mstime	trial_type	stim_file	subject	experiment	session	trial	task	item_name	item_num	recog_resp	recog_conf	resp	answer	test_x	test_y	test_z	color_r	color_g	color_b	case	font
0	SESS_START	n/a	LTP143	ltpFR	13	n/a	n/a	n/a	n/a	1	3	n/a	n/a	0	0	0	n/a	n/a	n/a	n/a	n/a
29173	START	n/a	LTP143	ltpFR	13	n/a	n/a	n/a	n/a	n/a	n/a	n/a	n/a	n/a	n/a	n/a	n/a	n/a	n/a	n/a	n/a
29198	PROB	n/a	LTP143	ltpFR	13	n/a	n/a	n/a	n/a	n/a	n/a	n/a	17	8	6	3	n/a	n/a	n/a	n/a	n/a
32178	PROB	n/a	LTP143	ltpFR	13	n/a	n/a	n/a	n/a	n/a	n/a	n/a	20	8	4	9	n/a	n/a	n/a	n/a	n/a
34758	PROB	n/a	LTP143	ltpFR	13	n/a	n/a	n/a	n/a	n/a	n/a	n/a	18	8	2	8	n/a	n/a	n/a	n/a	n/a
36664	PROB	n/a	LTP143	ltpFR	13	n/a	n/a	n/a	n/a	n/a	n/a	n/a	18	7	3	8	n/a	n/a	n/a	n/a	n/a
38986	PROB	n/a	LTP143	ltpFR	13	n/a	n/a	n/a	n/a	n/a	n/a	n/a	19	5	5	9	n/a	n/a	n/a	n/a	n/a
40734	PROB	n/a	LTP143	ltpFR	13	n/a	n/a	n/a	n/a	n/a	n/a	n/a	17	1	7	9	n/a	n/a	n/a	n/a	n/a
49173	STOP	n/a	LTP143	ltpFR	13	n/a	n/a	n/a	n/a	n/a	n/a	n/a	n/a	n/a	n/a	n/a	n/a	n/a	n/a	n/a	n/a
71390	WORD	wordpools/wasnorm_wordpool.txt	LTP143	ltpFR	13	1	0	GUN	673	0	n/a	1	n/a	0	0	0	0.57763671875	0.412841796875	1	upper	zerothre.ttf
75577	WORD	wordpools/wasnorm_wordpool.txt	LTP143	ltpFR	13	1	0	GANGSTER	620	n/a	n/a	1	n/a	0	0	0	0.57763671875	0.412841796875	1	upper	zerothre.ttf
79764	WORD	wordpools/wasnorm_wordpool.txt	LTP143	ltpFR	13	1	0	DEPUTY	450	n/a	n/a	1	n/a	0	0	0	0.57763671875	0.412841796875	1	upper	zerothre.ttf
83918	WORD	wordpools/wasnorm_wordpool.txt	LTP143	ltpFR	13	1	0	SLOPE	1328	n/a	n/a	1	n/a	0	0	0	0.57763671875	0.412841796875	1	upper	zerothre.ttf
87980	WORD	wordpools/wasnorm_wordpool.txt	LTP143	ltpFR	13	1	0	JUVENILE	767	n/a	n/a	1	n/a	0	0	0	0.57763671875	0.412841796875	1	upper	zerothre.ttf
91792	WORD	wordpools/wasnorm_wordpool.txt	LTP143	ltpFR	13	1	0	LIVER	833	n/a	n/a	0	n/a	0	0	0	0.57763671875	0.412841796875	1	upper	zerothre.ttf
95721	WORD	wordpools/wasnorm_wordpool.txt	LTP143	ltpFR	13	1	0	EAGLE	512	n/a	n/a	1	n/a	0	0	0	0.57763671875	0.412841796875	1	upper	zerothre.ttf
99532	WORD	wordpools/wasnorm_wordpool.txt	LTP143	ltpFR	13	1	0	NECK	939	n/a	n/a	0	n/a	0	0	0	0.57763671875	0.412841796875	1	upper	zerothre.ttf
103412	WORD	wordpools/wasnorm_wordpool.txt	LTP143	ltpFR	13	1	0	CLIMBER	323	n/a	n/a	1	n/a	0	0	0	0.57763671875	0.412841796875	1	upper	zerothre.ttf
107582	WORD	wordpools/wasnorm_wordpool.txt	LTP143	ltpFR	13	1	0	DONOR	485	n/a	n/a	1	n/a	0	0	0	0.57763671875	0.412841796875	1	upper	zerothre.ttf
111702	WORD	wordpools/wasnorm_wordpool.txt	LTP143	ltpFR	13	1	0	MARBLE	867	n/a	n/a	1	n/a	0	0	0	0.57763671875	0.412841796875	1	upper	zerothre.ttf
115747	WORD	wordpools/wasnorm_wordpool.txt	LTP143	ltpFR	13	1	0	SERGEANT	1269	n/a	n/a	1	n/a	0	0	0	0.57763671875	0.412841796875	1	upper	zerothre.ttf
119626	WORD	wordpools/wasnorm_wordpool.txt	LTP143	ltpFR	13	1	0	COCOON	339	n/a	n/a	0	n/a	0	0	0	0.57763671875	0.412841796875	1	upper	zerothre.ttf
123613	WORD	wordpools/wasnorm_wordpool.txt	LTP143	ltpFR	13	1	0	DUNE	506	n/a	n/a	1	n/a	0	0	0	0.57763671875	0.412841796875	1	upper	zerothre.ttf
127709	WORD	wordpools/wasnorm_wordpool.txt	LTP143	ltpFR	13	1	0	NOVEL	960	n/a	n/a	0	n/a	0	0	0	0.57763671875	0.412841796875	1	upper	zerothre.ttf
131754	WORD	wordpools/wasnorm_wordpool.txt	LTP143	ltpFR	13	1	0	JOURNAL	760	n/a	n/a	0	n/a	0	0	0	0.57763671875	0.412841796875	1	upper	zerothre.ttf
134759	START	n/a	LTP143	ltpFR	13	n/a	n/a	n/a	n/a	n/a	n/a	n/a	n/a	n/a	n/a	n/a	n/a	n/a	n/a	n/a	n/a
135666	PROB	n/a	LTP143	ltpFR	13	n/a	n/a	n/a	n/a	n/a	n/a	n/a	6	1	3	2	n/a	n/a	n/a	n/a	n/a
137880	PROB	n/a	LTP143	ltpFR	13	n/a	n/a	n/a	n/a	n/a	n/a	n/a	16	4	7	5	n/a	n/a	n/a	n/a	n/a
140386	PROB	n/a	LTP143	ltpFR	13	n/a	n/a	n/a	n/a	n/a	n/a	n/a	13	8	3	2	n/a	n/a	n/a	n/a	n/a
142274	STOP	n/a	LTP143	ltpFR	13	n/a	n/a	n/a	n/a	n/a	n/a	n/a	n/a	n/a	n/a	n/a	n/a	n/a	n/a	n/a	n/a
144581	REC_START	n/a	LTP143	ltpFR	13	1	n/a	n/a	n/a	n/a	n/a	n/a	n/a	0	0	0	n/a	n/a	n/a	n/a	n/a
146082	REC_WORD	wordpools/wasnorm_wordpool.txt	LTP143	ltpFR	13	1	0	DUNE	506	n/a	n/a	1	n/a	0	0	0	n/a	n/a	n/a	n/a	n/a
147424	REC_WORD	wordpools/wasnorm_wordpool.txt	LTP143	ltpFR	13	1	0	SERGEANT	1269	n/a	n/a	1	n/a	0	0	0	n/a	n/a	n/a	n/a	n/a
149559	REC_WORD	wordpools/wasnorm_wordpool.txt	LTP143	ltpFR	13	1	0	MARBLE	867	n/a	n/a	1	n/a	0	0	0	n/a	n/a	n/a	n/a	n/a
151176	REC_WORD	wordpools/wasnorm_wordpool.txt	LTP143	ltpFR	13	1	0	NOVEL	960	n/a	n/a	0	n/a	0	0	0	n/a	n/a	n/a	n/a	n/a
152902	REC_WORD	wordpools/wasnorm_wordpool.txt	LTP143	ltpFR	13	1	0	LIVER	833	n/a	n/a	0	n/a	0	0	0	n/a	n/a	n/a	n/a	n/a
157486	REC_WORD	wordpools/wasnorm_wordpool.txt	LTP143	ltpFR	13	1	0	DEPUTY	450	n/a	n/a	1	n/a	0	0	0	n/a	n/a	n/a	n/a	n/a
161088	REC_WORD	wordpools/wasnorm_wordpool.txt	LTP143	ltpFR	13	1	0	GUN	673	n/a	n/a	1	n/a	0	0	0	n/a	n/a	n/a	n/a	n/a
162650	REC_WORD	wordpools/wasnorm_wordpool.txt	LTP143	ltpFR	13	1	0	GANGSTER	620	n/a	n/a	1	n/a	0	0	0	n/a	n/a	n/a	n/a	n/a
165498	REC_WORD	wordpools/wasnorm_wordpool.txt	LTP143	ltpFR	13	1	0	NOVEL	960	n/a	n/a	0	n/a	0	0	0	n/a	n/a	n/a	n/a	n/a
167144	REC_WORD	wordpools/wasnorm_wordpool.txt	LTP143	ltpFR	13	1	0	NECK	939	n/a	n/a	0	n/a	0	0	0	n/a	n/a	n/a	n/a	n/a
175281	REC_WORD	wordpools/wasnorm_wordpool.txt	LTP143	ltpFR	13	1	0	EAGLE	512	n/a	n/a	1	n/a	0	0	0	n/a	n/a	n/a	n/a	n/a
184664	REC_WORD	wordpools/wasnorm_wordpool.txt	LTP143	ltpFR	13	1	0	CLIMBER	323	n/a	n/a	1	n/a	0	0	0	n/a	n/a	n/a	n/a	n/a
219550	REC_WORD_VV	wordpools/wasnorm_wordpool.txt	LTP143	ltpFR	13	1	n/a	<>	-1	n/a	n/a	n/a	n/a	0	0	0	n/a	n/a	n/a	n/a	n/a
225079	START	n/a	LTP143	ltpFR	13	n/a	n/a	n/a	n/a	n/a	n/a	n/a	n/a	n/a	n/a	n/a	n/a	n/a	n/a	n/a	n/a
226586	PROB	n/a	LTP143	ltpFR	13	n/a	n/a	n/a	n/a	n/a	n/a	n/a	5	2	1	2	n/a	n/a	n/a	n/a	n/a
228300	PROB	n/a	LTP143	ltpFR	13	n/a	n/a	n/a	n/a	n/a	n/a	n/a	6	1	3	2	n/a	n/a	n/a	n/a	n/a
229890	PROB	n/a	LTP143	ltpFR	13	n/a	n/a	n/a	n/a	n/a	n/a	n/a	15	5	3	7	n/a	n/a	n/a	n/a	n/a
231554	STOP	n/a	LTP143	ltpFR	13	n/a	n/a	n/a	n/a	n/a	n/a	n/a	n/a	n/a	n/a	n/a	n/a	n/a	n/a	n/a	n/a
234094	WORD	wordpools/wasnorm_wordpool.txt	LTP143	ltpFR	13	2	1	GARLIC	624	n/a	n/a	0	n/a	0	0	0	0.422607421875	0.5869140625	0	lower	amplitud.ttf
237099	START	n/a	LTP143	ltpFR	13	n/a	n/a	n/a	n/a	n/a	n/a	n/a	n/a	n/a	n/a	n/a	n/a	n/a	n/a	n/a	n/a
238280	PROB	n/a	LTP143	ltpFR	13	n/a	n/a	n/a	n/a	n/a	n/a	n/a	18	8	1	9	n/a	n/a	n/a	n/a	n/a
239704	PROB	n/a	LTP143	ltpFR	13	n/a	n/a	n/a	n/a	n/a	n/a	n/a	18	8	3	7	n/a	n/a	n/a	n/a	n/a
241310	PROB	n/a	LTP143	ltpFR	13	n/a	n/a	n/a	n/a	n/a	n/a	n/a	15	5	2	8	n/a	n/a	n/a	n/a	n/a
242900	PROB	n/a	LTP143	ltpFR	13	n/a	n/a	n/a	n/a	n/a	n/a	n/a	13	3	1	9	n/a	n/a	n/a	n/a	n/a
244242	STOP	n/a	LTP143	ltpFR	13	n/a	n/a	n/a	n/a	n/a	n/a	n/a	n/a	n/a	n/a	n/a	n/a	n/a	n/a	n/a	n/a
245938	WORD	wordpools/wasnorm_wordpool.txt	LTP143	ltpFR	13	2	1	SERVANT	1271	n/a	n/a	1	n/a	0	0	0	0.422607421875	0.5869140625	0	lower	amplitud.ttf
248944	START	n/a	LTP143	ltpFR	13	n/a	n/a	n/a	n/a	n/a	n/a	n/a	n/a	n/a	n/a	n/a	n/a	n/a	n/a	n/a	n/a
249825	PROB	n/a	LTP143	ltpFR	13	n/a	n/a	n/a	n/a	n/a	n/a	n/a	9	6	2	1	n/a	n/a	n/a	n/a	n/a
251840	PROB	n/a	LTP143	ltpFR	13	n/a	n/a	n/a	n/a	n/a	n/a	n/a	16	7	8	1	n/a	n/a	n/a	n/a	n/a
253812	PROB	n/a	LTP143	ltpFR	13	n/a	n/a	n/a	n/a	n/a	n/a	n/a	12	5	1	6	n/a	n/a	n/a	n/a	n/a
255978	STOP	n/a	LTP143	ltpFR	13	n/a	n/a	n/a	n/a	n/a	n/a	n/a	n/a	n/a	n/a	n/a	n/a	n/a	n/a	n/a	n/a
257983	WORD	wordpools/wasnorm_wordpool.txt	LTP143	ltpFR	13	2	1	HOSTESS	723	n/a	n/a	1	n/a	0	0	0	0.422607421875	0.5869140625	0	lower	amplitud.ttf
260988	START	n/a	LTP143	ltpFR	13	n/a	n/a	n/a	n/a	n/a	n/a	n/a	n/a	n/a	n/a	n/a	n/a	n/a	n/a	n/a	n/a
261978	PROB	n/a	LTP143	ltpFR	13	n/a	n/a	n/a	n/a	n/a	n/a	n/a	10	4	2	4	n/a	n/a	n/a	n/a	n/a
264084	PROB	n/a	LTP143	ltpFR	13	n/a	n/a	n/a	n/a	n/a	n/a	n/a	13	4	1	8	n/a	n/a	n/a	n/a	n/a
268988	STOP	n/a	LTP143	ltpFR	13	n/a	n/a	n/a	n/a	n/a	n/a	n/a	n/a	n/a	n/a	n/a	n/a	n/a	n/a	n/a	n/a
270185	WORD	wordpools/wasnorm_wordpool.txt	LTP143	ltpFR	13	2	1	DWARF	510	n/a	n/a	1	n/a	0	0	0	0.422607421875	0.5869140625	0	lower	amplitud.ttf
273191	START	n/a	LTP143	ltpFR	13	n/a	n/a	n/a	n/a	n/a	n/a	n/a	n/a	n/a	n/a	n/a	n/a	n/a	n/a	n/a	n/a
274072	PROB	n/a	LTP143	ltpFR	13	n/a	n/a	n/a	n/a	n/a	n/a	n/a	21	9	3	9	n/a	n/a	n/a	n/a	n/a
276420	PROB	n/a	LTP143	ltpFR	13	n/a	n/a	n/a	n/a	n/a	n/a	n/a	19	9	5	5	n/a	n/a	n/a	n/a	n/a
278068	PROB	n/a	LTP143	ltpFR	13	n/a	n/a	n/a	n/a	n/a	n/a	n/a	14	7	3	4	n/a	n/a	n/a	n/a	n/a
280562	STOP	n/a	LTP143	ltpFR	13	n/a	n/a	n/a	n/a	n/a	n/a	n/a	n/a	n/a	n/a	n/a	n/a	n/a	n/a	n/a	n/a
282013	WORD	wordpools/wasnorm_wordpool.txt	LTP143	ltpFR	13	2	1	IDOL	733	n/a	n/a	1	n/a	0	0	0	0.422607421875	0.5869140625	0	lower	amplitud.ttf
285018	START	n/a	LTP143	ltpFR	13	n/a	n/a	n/a	n/a	n/a	n/a	n/a	n/a	n/a	n/a	n/a	n/a	n/a	n/a	n/a	n/a
286050	PROB	n/a	LTP143	ltpFR	13	n/a	n/a	n/a	n/a	n/a	n/a	n/a	16	6	7	3	n/a	n/a	n/a	n/a	n/a
287657	PROB	n/a	LTP143	ltpFR	13	n/a	n/a	n/a	n/a	n/a	n/a	n/a	15	8	6	1	n/a	n/a	n/a	n/a	n/a
289721	PROB	n/a	LTP143	ltpFR	13	n/a	n/a	n/a	n/a	n/a	n/a	n/a	14	5	5	4	n/a	n/a	n/a	n/a	n/a
291144	PROB	n/a	LTP143	ltpFR	13	n/a	n/a	n/a	n/a	n/a	n/a	n/a	9	4	4	1	n/a	n/a	n/a	n/a	n/a
292930	STOP	n/a	LTP143	ltpFR	13	n/a	n/a	n/a	n/a	n/a	n/a	n/a	n/a	n/a	n/a	n/a	n/a	n/a	n/a	n/a	n/a
294057	WORD	wordpools/wasnorm_wordpool.txt	LTP143	ltpFR	13	2	1	HERB	704	n/a	n/a	0	n/a	0	0	0	0.422607421875	0.5869140625	0	lower	amplitud.ttf
297063	START	n/a	LTP143	ltpFR	13	n/a	n/a	n/a	n/a	n/a	n/a	n/a	n/a	n/a	n/a	n/a	n/a	n/a	n/a	n/a	n/a
298053	PROB	n/a	LTP143	ltpFR	13	n/a	n/a	n/a	n/a	n/a	n/a	n/a	19	6	7	6	n/a	n/a	n/a	n/a	n/a
305063	STOP	n/a	LTP143	ltpFR	13	n/a	n/a	n/a	n/a	n/a	n/a	n/a	n/a	n/a	n/a	n/a	n/a	n/a	n/a	n/a	n/a
306169	WORD	wordpools/wasnorm_wordpool.txt	LTP143	ltpFR	13	2	1	BOOTH	151	n/a	n/a	0	n/a	0	0	0	0.422607421875	0.5869140625	0	lower	amplitud.ttf
309174	START	n/a	LTP143	ltpFR	13	n/a	n/a	n/a	n/a	n/a	n/a	n/a	n/a	n/a	n/a	n/a	n/a	n/a	n/a	n/a	n/a
310106	PROB	n/a	LTP143	ltpFR	13	n/a	n/a	n/a	n/a	n/a	n/a	n/a	9	3	2	4	n/a	n/a	n/a	n/a	n/a
312453	PROB	n/a	LTP143	ltpFR	13	n/a	n/a	n/a	n/a	n/a	n/a	n/a	18	7	5	6	n/a	n/a	n/a	n/a	n/a
315930	STOP	n/a	LTP143	ltpFR	13	n/a	n/a	n/a	n/a	n/a	n/a	n/a	n/a	n/a	n/a	n/a	n/a	n/a	n/a	n/a	n/a
318304	WORD	wordpools/wasnorm_wordpool.txt	LTP143	ltpFR	13	2	1	HARE	688	n/a	n/a	1	n/a	0	0	0	0.422607421875	0.5869140625	0	lower	amplitud.ttf
321310	START	n/a	LTP143	ltpFR	13	n/a	n/a	n/a	n/a	n/a	n/a	n/a	n/a	n/a	n/a	n/a	n/a	n/a	n/a	n/a	n/a
322183	PROB	n/a	LTP143	ltpFR	13	n/a	n/a	n/a	n/a	n/a	n/a	n/a	12	5	2	5	n/a	n/a	n/a	n/a	n/a
323698	PROB	n/a	LTP143	ltpFR	13	n/a	n/a	n/a	n/a	n/a	n/a	n/a	23	7	7	9	n/a	n/a	n/a	n/a	n/a
328402	STOP	n/a	LTP143	ltpFR	13	n/a	n/a	n/a	n/a	n/a	n/a	n/a	n/a	n/a	n/a	n/a	n/a	n/a	n/a	n/a	n/a
330481	WORD	wordpools/wasnorm_wordpool.txt	LTP143	ltpFR	13	2	1	BOY	161	n/a	n/a	1	n/a	0	0	0	0.422607421875	0.5869140625	0	lower	amplitud.ttf
333486	START	n/a	LTP143	ltpFR	13	n/a	n/a	n/a	n/a	n/a	n/a	n/a	n/a	n/a	n/a	n/a	n/a	n/a	n/a	n/a	n/a
334510	PROB	n/a	LTP143	ltpFR	13	n/a	n/a	n/a	n/a	n/a	n/a	n/a	10	1	6	3	n/a	n/a	n/a	n/a	n/a
336608	PROB	n/a	LTP143	ltpFR	13	n/a	n/a	n/a	n/a	n/a	n/a	n/a	17	2	6	9	n/a	n/a	n/a	n/a	n/a
338822	PROB	n/a	LTP143	ltpFR	13	n/a	n/a	n/a	n/a	n/a	n/a	n/a	15	3	8	4	n/a	n/a	n/a	n/a	n/a
341066	STOP	n/a	LTP143	ltpFR	13	n/a	n/a	n/a	n/a	n/a	n/a	n/a	n/a	n/a	n/a	n/a	n/a	n/a	n/a	n/a	n/a
342585	WORD	wordpools/wasnorm_wordpool.txt	LTP143	ltpFR	13	2	1	CROSS	413	n/a	n/a	0	n/a	0	0	0	0.422607421875	0.5869140625	0	lower	amplitud.ttf
345590	START	n/a	LTP143	ltpFR	13	n/a	n/a	n/a	n/a	n/a	n/a	n/a	n/a	n/a	n/a	n/a	n/a	n/a	n/a	n/a	n/a
346721	PROB	n/a	LTP143	ltpFR	13	n/a	n/a	n/a	n/a	n/a	n/a	n/a	17	4	8	5	n/a	n/a	n/a	n/a	n/a
350342	PROB	n/a	LTP143	ltpFR	13	n/a	n/a	n/a	n/a	n/a	n/a	n/a	6	3	1	2	n/a	n/a	n/a	n/a	n/a
352489	STOP	n/a	LTP143	ltpFR	13	n/a	n/a	n/a	n/a	n/a	n/a	n/a	n/a	n/a	n/a	n/a	n/a	n/a	n/a	n/a	n/a
354545	WORD	wordpools/wasnorm_wordpool.txt	LTP143	ltpFR	13	2	1	TROMBONE	1508	n/a	n/a	0	n/a	0	0	0	0.422607421875	0.5869140625	0	lower	amplitud.ttf
357550	START	n/a	LTP143	ltpFR	13	n/a	n/a	n/a	n/a	n/a	n/a	n/a	n/a	n/a	n/a	n/a	n/a	n/a	n/a	n/a	n/a
358433	PROB	n/a	LTP143	ltpFR	13	n/a	n/a	n/a	n/a	n/a	n/a	n/a	10	4	5	1	n/a	n/a	n/a	n/a	n/a
360747	PROB	n/a	LTP143	ltpFR	13	n/a	n/a	n/a	n/a	n/a	n/a	n/a	12	5	6	1	n/a	n/a	n/a	n/a	n/a
363044	PROB	n/a	LTP143	ltpFR	13	n/a	n/a	n/a	n/a	n/a	n/a	n/a	12	4	6	2	n/a	n/a	n/a	n/a	n/a
364922	STOP	n/a	LTP143	ltpFR	13	n/a	n/a	n/a	n/a	n/a	n/a	n/a	n/a	n/a	n/a	n/a	n/a	n/a	n/a	n/a	n/a
366382	WORD	wordpools/wasnorm_wordpool.txt	LTP143	ltpFR	13	2	1	FIDDLE	561	n/a	n/a	0	n/a	0	0	0	0.422607421875	0.5869140625	0	lower	amplitud.ttf
369387	START	n/a	LTP143	ltpFR	13	n/a	n/a	n/a	n/a	n/a	n/a	n/a	n/a	n/a	n/a	n/a	n/a	n/a	n/a	n/a	n/a
370253	PROB	n/a	LTP143	ltpFR	13	n/a	n/a	n/a	n/a	n/a	n/a	n/a	4	1	2	1	n/a	n/a	n/a	n/a	n/a
371718	PROB	n/a	LTP143	ltpFR	13	n/a	n/a	n/a	n/a	n/a	n/a	n/a	15	8	1	6	n/a	n/a	n/a	n/a	n/a
373707	PROB	n/a	LTP143	ltpFR	13	n/a	n/a	n/a	n/a	n/a	n/a	n/a	14	3	6	5	n/a	n/a	n/a	n/a	n/a
376594	STOP	n/a	LTP143	ltpFR	13	n/a	n/a	n/a	n/a	n/a	n/a	n/a	n/a	n/a	n/a	n/a	n/a	n/a	n/a	n/a	n/a
378550	WORD	wordpools/wasnorm_wordpool.txt	LTP143	ltpFR	13	2	1	HANDCUFFS	685	n/a	n/a	0	n/a	0	0	0	0.422607421875	0.5869140625	0	lower	amplitud.ttf
381557	START	n/a	LTP143	ltpFR	13	n/a	n/a	n/a	n/a	n/a	n/a	n/a	n/a	n/a	n/a	n/a	n/a	n/a	n/a	n/a	n/a
382462	PROB	n/a	LTP143	ltpFR	13	n/a	n/a	n/a	n/a	n/a	n/a	n/a	21	9	5	7	n/a	n/a	n/a	n/a	n/a
388202	STOP	n/a	LTP143	ltpFR	13	n/a	n/a	n/a	n/a	n/a	n/a	n/a	n/a	n/a	n/a	n/a	n/a	n/a	n/a	n/a	n/a
390679	WORD	wordpools/wasnorm_wordpool.txt	LTP143	ltpFR	13	2	1	SPY	1360	n/a	n/a	1	n/a	0	0	0	0.422607421875	0.5869140625	0	lower	amplitud.ttf
393684	START	n/a	LTP143	ltpFR	13	n/a	n/a	n/a	n/a	n/a	n/a	n/a	n/a	n/a	n/a	n/a	n/a	n/a	n/a	n/a	n/a
394490	PROB	n/a	LTP143	ltpFR	13	n/a	n/a	n/a	n/a	n/a	n/a	n/a	20	4	9	7	n/a	n/a	n/a	n/a	n/a
397188	PROB	n/a	LTP143	ltpFR	13	n/a	n/a	n/a	n/a	n/a	n/a	n/a	19	8	8	3	n/a	n/a	n/a	n/a	n/a
401684	STOP	n/a	LTP143	ltpFR	13	n/a	n/a	n/a	n/a	n/a	n/a	n/a	n/a	n/a	n/a	n/a	n/a	n/a	n/a	n/a	n/a
402740	WORD	wordpools/wasnorm_wordpool.txt	LTP143	ltpFR	13	2	1	BRIDE	173	n/a	n/a	1	n/a	0	0	0	0.422607421875	0.5869140625	0	lower	amplitud.ttf
405745	START	n/a	LTP143	ltpFR	13	n/a	n/a	n/a	n/a	n/a	n/a	n/a	n/a	n/a	n/a	n/a	n/a	n/a	n/a	n/a	n/a
406852	PROB	n/a	LTP143	ltpFR	13	n/a	n/a	n/a	n/a	n/a	n/a	n/a	4	1	2	1	n/a	n/a	n/a	n/a	n/a
408874	PROB	n/a	LTP143	ltpFR	13	n/a	n/a	n/a	n/a	n/a	n/a	n/a	15	9	1	5	n/a	n/a	n/a	n/a	n/a
410697	PROB	n/a	LTP143	ltpFR	13	n/a	n/a	n/a	n/a	n/a	n/a	n/a	11	5	2	4	n/a	n/a	n/a	n/a	n/a
413010	STOP	n/a	LTP143	ltpFR	13	n/a	n/a	n/a	n/a	n/a	n/a	n/a	n/a	n/a	n/a	n/a	n/a	n/a	n/a	n/a	n/a
414776	WORD	wordpools/wasnorm_wordpool.txt	LTP143	ltpFR	13	2	1	SKYSCRAPER	1322	n/a	n/a	0	n/a	0	0	0	0.422607421875	0.5869140625	0	lower	amplitud.ttf
417781	START	n/a	LTP143	ltpFR	13	n/a	n/a	n/a	n/a	n/a	n/a	n/a	n/a	n/a	n/a	n/a	n/a	n/a	n/a	n/a	n/a
418738	PROB	n/a	LTP143	ltpFR	13	n/a	n/a	n/a	n/a	n/a	n/a	n/a	14	7	2	5	n/a	n/a	n/a	n/a	n/a
420861	PROB	n/a	LTP143	ltpFR	13	n/a	n/a	n/a	n/a	n/a	n/a	n/a	7	2	3	2	n/a	n/a	n/a	n/a	n/a
425780	STOP	n/a	LTP143	ltpFR	13	n/a	n/a	n/a	n/a	n/a	n/a	n/a	n/a	n/a	n/a	n/a	n/a	n/a	n/a	n/a	n/a
427662	REC_START	n/a	LTP143	ltpFR	13	2	n/a	n/a	n/a	n/a	n/a	n/a	n/a	0	0	0	n/a	n/a	n/a	n/a	n/a
428589	REC_WORD	wordpools/wasnorm_wordpool.txt	LTP143	ltpFR	13	2	1	SKYSCRAPER	1322	n/a	n/a	0	n/a	0	0	0	n/a	n/a	n/a	n/a	n/a
430805	REC_WORD	wordpools/wasnorm_wordpool.txt	LTP143	ltpFR	13	2	1	TROMBONE	1508	n/a	n/a	0	n/a	0	0	0	n/a	n/a	n/a	n/a	n/a
437220	REC_WORD	wordpools/wasnorm_wordpool.txt	LTP143	ltpFR	13	2	n/a	WAITRESS	1581	n/a	n/a	n/a	n/a	0	0	0	n/a	n/a	n/a	n/a	n/a
438397	REC_WORD	wordpools/wasnorm_wordpool.txt	LTP143	ltpFR	13	2	1	BOY	161	n/a	n/a	1	n/a	0	0	0	n/a	n/a	n/a	n/a	n/a
439499	REC_WORD	wordpools/wasnorm_wordpool.txt	LTP143	ltpFR	13	2	1	SERVANT	1271	n/a	n/a	1	n/a	0	0	0	n/a	n/a	n/a	n/a	n/a
481454	REC_WORD	wordpools/wasnorm_wordpool.txt	LTP143	ltpFR	13	2	1	CROSS	413	n/a	n/a	0	n/a	0	0	0	n/a	n/a	n/a	n/a	n/a
518032	START	n/a	LTP143	ltpFR	13	n/a	n/a	n/a	n/a	n/a	n/a	n/a	n/a	n/a	n/a	n/a	n/a	n/a	n/a	n/a	n/a
519537	PROB	n/a	LTP143	ltpFR	13	n/a	n/a	n/a	n/a	n/a	n/a	n/a	17	7	6	4	n/a	n/a	n/a	n/a	n/a
522118	PROB	n/a	LTP143	ltpFR	13	n/a	n/a	n/a	n/a	n/a	n/a	n/a	15	3	8	4	n/a	n/a	n/a	n/a	n/a
524232	PROB	n/a	LTP143	ltpFR	13	n/a	n/a	n/a	n/a	n/a	n/a	n/a	10	4	4	2	n/a	n/a	n/a	n/a	n/a
525986	STOP	n/a	LTP143	ltpFR	13	n/a	n/a	n/a	n/a	n/a	n/a	n/a	n/a	n/a	n/a	n/a	n/a	n/a	n/a	n/a	n/a
526996	WORD	wordpools/wasnorm_wordpool.txt	LTP143	ltpFR	13	3	1	LAWN	805	n/a	n/a	0	n/a	0	0	0	0.422607421875	0.5869140625	0	lower	amplitud.ttf
530001	START	n/a	LTP143	ltpFR	13	n/a	n/a	n/a	n/a	n/a	n/a	n/a	n/a	n/a	n/a	n/a	n/a	n/a	n/a	n/a	n/a
531050	PROB	n/a	LTP143	ltpFR	13	n/a	n/a	n/a	n/a	n/a	n/a	n/a	1	8	1	8	n/a	n/a	n/a	n/a	n/a
533014	PROB	n/a	LTP143	ltpFR	13	n/a	n/a	n/a	n/a	n/a	n/a	n/a	8	2	4	2	n/a	n/a	n/a	n/a	n/a
538001	STOP	n/a	LTP143	ltpFR	13	n/a	n/a	n/a	n/a	n/a	n/a	n/a	n/a	n/a	n/a	n/a	n/a	n/a	n/a	n/a	n/a
539198	WORD	wordpools/wasnorm_wordpool.txt	LTP143	ltpFR	13	3	1	UNIFORM	1539	n/a	n/a	0	n/a	0	0	0	0.422607421875	0.5869140625	0	lower	amplitud.ttf
542204	START	n/a	LTP143	ltpFR	13	n/a	n/a	n/a	n/a	n/a	n/a	n/a	n/a	n/a	n/a	n/a	n/a	n/a	n/a	n/a	n/a
543236	PROB	n/a	LTP143	ltpFR	13	n/a	n/a	n/a	n/a	n/a	n/a	n/a	11	3	1	7	n/a	n/a	n/a	n/a	n/a
545108	PROB	n/a	LTP143	ltpFR	13	n/a	n/a	n/a	n/a	n/a	n/a	n/a	10	4	4	2	n/a	n/a	n/a	n/a	n/a
546840	PROB	n/a	LTP143	ltpFR	13	n/a	n/a	n/a	n/a	n/a	n/a	n/a	19	4	9	6	n/a	n/a	n/a	n/a	n/a
549258	STOP	n/a	LTP143	ltpFR	13	n/a	n/a	n/a	n/a	n/a	n/a	n/a	n/a	n/a	n/a	n/a	n/a	n/a	n/a	n/a	n/a
551051	WORD	wordpools/wasnorm_wordpool.txt	LTP143	ltpFR	13	3	1	STAPLER	1372	n/a	n/a	0	n/a	0	0	0	0.422607421875	0.5869140625	0	lower	amplitud.ttf
554057	START	n/a	LTP143	ltpFR	13	n/a	n/a	n/a	n/a	n/a	n/a	n/a	n/a	n/a	n/a	n/a	n/a	n/a	n/a	n/a	n/a
555163	PROB	n/a	LTP143	ltpFR	13	n/a	n/a	n/a	n/a	n/a	n/a	n/a	17	3	5	9	n/a	n/a	n/a	n/a	n/a
562057	STOP	n/a	LTP143	ltpFR	13	n/a	n/a	n/a	n/a	n/a	n/a	n/a	n/a	n/a	n/a	n/a	n/a	n/a	n/a	n/a	n/a
562896	WORD	wordpools/wasnorm_wordpool.txt	LTP143	ltpFR	13	3	1	GOBLIN	645	n/a	n/a	0	n/a	0	0	0	0.422607421875	0.5869140625	0	lower	amplitud.ttf
565901	START	n/a	LTP143	ltpFR	13	n/a	n/a	n/a	n/a	n/a	n/a	n/a	n/a	n/a	n/a	n/a	n/a	n/a	n/a	n/a	n/a
566800	PROB	n/a	LTP143	ltpFR	13	n/a	n/a	n/a	n/a	n/a	n/a	n/a	10	2	5	3	n/a	n/a	n/a	n/a	n/a
573901	STOP	n/a	LTP143	ltpFR	13	n/a	n/a	n/a	n/a	n/a	n/a	n/a	n/a	n/a	n/a	n/a	n/a	n/a	n/a	n/a	n/a
574865	WORD	wordpools/wasnorm_wordpool.txt	LTP143	ltpFR	13	3	1	PRINCESS	1125	n/a	n/a	0	n/a	0	0	0	0.422607421875	0.5869140625	0	lower	amplitud.ttf
577871	START	n/a	LTP143	ltpFR	13	n/a	n/a	n/a	n/a	n/a	n/a	n/a	n/a	n/a	n/a	n/a	n/a	n/a	n/a	n/a	n/a
578903	PROB	n/a	LTP143	ltpFR	13	n/a	n/a	n/a	n/a	n/a	n/a	n/a	12	2	7	3	n/a	n/a	n/a	n/a	n/a
580659	PROB	n/a	LTP143	ltpFR	13	n/a	n/a	n/a	n/a	n/a	n/a	n/a	9	3	3	3	n/a	n/a	n/a	n/a	n/a
582190	PROB	n/a	LTP143	ltpFR	13	n/a	n/a	n/a	n/a	n/a	n/a	n/a	15	5	1	9	n/a	n/a	n/a	n/a	n/a
584537	STOP	n/a	LTP143	ltpFR	13	n/a	n/a	n/a	n/a	n/a	n/a	n/a	n/a	n/a	n/a	n/a	n/a	n/a	n/a	n/a	n/a
586768	WORD	wordpools/wasnorm_wordpool.txt	LTP143	ltpFR	13	3	1	OUTDOORS	987	n/a	n/a	0	n/a	0	0	0	0.422607421875	0.5869140625	0	lower	amplitud.ttf
589774	START	n/a	LTP143	ltpFR	13	n/a	n/a	n/a	n/a	n/a	n/a	n/a	n/a	n/a	n/a	n/a	n/a	n/a	n/a	n/a	n/a
590622	PROB	n/a	LTP143	ltpFR	13	n/a	n/a	n/a	n/a	n/a	n/a	n/a	10	1	8	1	n/a	n/a	n/a	n/a	n/a
592795	PROB	n/a	LTP143	ltpFR	13	n/a	n/a	n/a	n/a	n/a	n/a	n/a	21	9	5	7	n/a	n/a	n/a	n/a	n/a
597066	STOP	n/a	LTP143	ltpFR	13	n/a	n/a	n/a	n/a	n/a	n/a	n/a	n/a	n/a	n/a	n/a	n/a	n/a	n/a	n/a	n/a
598638	WORD	wordpools/wasnorm_wordpool.txt	LTP143	ltpFR	13	3	1	PLAID	1080	n/a	n/a	0	n/a	0	0	0	0.422607421875	0.5869140625	0	lower	amplitud.ttf
601643	START	n/a	LTP143	ltpFR	13	n/a	n/a	n/a	n/a	n/a	n/a	n/a	n/a	n/a	n/a	n/a	n/a	n/a	n/a	n/a	n/a
602833	PROB	n/a	LTP143	ltpFR	13	n/a	n/a	n/a	n/a	n/a	n/a	n/a	16	3	8	5	n/a	n/a	n/a	n/a	n/a
605405	PROB	n/a	LTP143	ltpFR	13	n/a	n/a	n/a	n/a	n/a	n/a	n/a	12	5	4	3	n/a	n/a	n/a	n/a	n/a
608338	STOP	n/a	LTP143	ltpFR	13	n/a	n/a	n/a	n/a	n/a	n/a	n/a	n/a	n/a	n/a	n/a	n/a	n/a	n/a	n/a	n/a
610732	WORD	wordpools/wasnorm_wordpool.txt	LTP143	ltpFR	13	3	1	SUIT	1402	n/a	n/a	0	n/a	0	0	0	0.422607421875	0.5869140625	0	lower	amplitud.ttf
613738	START	n/a	LTP143	ltpFR	13	n/a	n/a	n/a	n/a	n/a	n/a	n/a	n/a	n/a	n/a	n/a	n/a	n/a	n/a	n/a	n/a
614653	PROB	n/a	LTP143	ltpFR	13	n/a	n/a	n/a	n/a	n/a	n/a	n/a	19	9	7	3	n/a	n/a	n/a	n/a	n/a
616168	PROB	n/a	LTP143	ltpFR	13	n/a	n/a	n/a	n/a	n/a	n/a	n/a	23	6	9	8	n/a	n/a	n/a	n/a	n/a
621738	STOP	n/a	LTP143	ltpFR	13	n/a	n/a	n/a	n/a	n/a	n/a	n/a	n/a	n/a	n/a	n/a	n/a	n/a	n/a	n/a	n/a
622893	WORD	wordpools/wasnorm_wordpool.txt	LTP143	ltpFR	13	3	1	ANTEATER	26	n/a	n/a	1	n/a	0	0	0	0.422607421875	0.5869140625	0	lower	amplitud.ttf
625899	START	n/a	LTP143	ltpFR	13	n/a	n/a	n/a	n/a	n/a	n/a	n/a	n/a	n/a	n/a	n/a	n/a	n/a	n/a	n/a	n/a
626839	PROB	n/a	LTP143	ltpFR	13	n/a	n/a	n/a	n/a	n/a	n/a	n/a	17	6	9	2	n/a	n/a	n/a	n/a	n/a
629228	PROB	n/a	LTP143	ltpFR	13	n/a	n/a	n/a	n/a	n/a	n/a	n/a	14	4	3	7	n/a	n/a	n/a	n/a	n/a
631034	PROB	n/a	LTP143	ltpFR	13	n/a	n/a	n/a	n/a	n/a	n/a	n/a	13	2	4	7	n/a	n/a	n/a	n/a	n/a
633138	STOP	n/a	LTP143	ltpFR	13	n/a	n/a	n/a	n/a	n/a	n/a	n/a	n/a	n/a	n/a	n/a	n/a	n/a	n/a	n/a	n/a
634963	WORD	wordpools/wasnorm_wordpool.txt	LTP143	ltpFR	13	3	1	OTTER	986	n/a	n/a	1	n/a	0	0	0	0.422607421875	0.5869140625	0	lower	amplitud.ttf
637968	START	n/a	LTP143	ltpFR	13	n/a	n/a	n/a	n/a	n/a	n/a	n/a	n/a	n/a	n/a	n/a	n/a	n/a	n/a	n/a	n/a
638791	PROB	n/a	LTP143	ltpFR	13	n/a	n/a	n/a	n/a	n/a	n/a	n/a	9	1	1	7	n/a	n/a	n/a	n/a	n/a
640530	PROB	n/a	LTP143	ltpFR	13	n/a	n/a	n/a	n/a	n/a	n/a	n/a	12	1	4	7	n/a	n/a	n/a	n/a	n/a
642995	PROB	n/a	LTP143	ltpFR	13	n/a	n/a	n/a	n/a	n/a	n/a	n/a	19	5	5	9	n/a	n/a	n/a	n/a	n/a
644762	STOP	n/a	LTP143	ltpFR	13	n/a	n/a	n/a	n/a	n/a	n/a	n/a	n/a	n/a	n/a	n/a	n/a	n/a	n/a	n/a	n/a
647124	WORD	wordpools/wasnorm_wordpool.txt	LTP143	ltpFR	13	3	1	APPLE	33	n/a	n/a	0	n/a	0	0	0	0.422607421875	0.5869140625	0	lower	amplitud.ttf
650129	START	n/a	LTP143	ltpFR	13	n/a	n/a	n/a	n/a	n/a	n/a	n/a	n/a	n/a	n/a	n/a	n/a	n/a	n/a	n/a	n/a
650961	PROB	n/a	LTP143	ltpFR	13	n/a	n/a	n/a	n/a	n/a	n/a	n/a	15	5	7	3	n/a	n/a	n/a	n/a	n/a
652442	PROB	n/a	LTP143	ltpFR	13	n/a	n/a	n/a	n/a	n/a	n/a	n/a	7	1	2	4	n/a	n/a	n/a	n/a	n/a
654640	PROB	n/a	LTP143	ltpFR	13	n/a	n/a	n/a	n/a	n/a	n/a	n/a	16	6	9	1	n/a	n/a	n/a	n/a	n/a
658128	STOP	n/a	LTP143	ltpFR	13	n/a	n/a	n/a	n/a	n/a	n/a	n/a	n/a	n/a	n/a	n/a	n/a	n/a	n/a	n/a	n/a
658976	WORD	wordpools/wasnorm_wordpool.txt	LTP143	ltpFR	13	3	1	GHOST	634	n/a	n/a	0	n/a	0	0	0	0.422607421875	0.5869140625	0	lower	amplitud.ttf
661982	START	n/a	LTP143	ltpFR	13	n/a	n/a	n/a	n/a	n/a	n/a	n/a	n/a	n/a	n/a	n/a	n/a	n/a	n/a	n/a	n/a
662947	PROB	n/a	LTP143	ltpFR	13	n/a	n/a	n/a	n/a	n/a	n/a	n/a	23	8	7	8	n/a	n/a	n/a	n/a	n/a
669981	STOP	n/a	LTP143	ltpFR	13	n/a	n/a	n/a	n/a	n/a	n/a	n/a	n/a	n/a	n/a	n/a	n/a	n/a	n/a	n/a	n/a
670879	WORD	wordpools/wasnorm_wordpool.txt	LTP143	ltpFR	13	3	1	CARD	243	n/a	n/a	0	n/a	0	0	0	0.422607421875	0.5869140625	0	lower	amplitud.ttf
673885	START	n/a	LTP143	ltpFR	13	n/a	n/a	n/a	n/a	n/a	n/a	n/a	n/a	n/a	n/a	n/a	n/a	n/a	n/a	n/a	n/a
675041	PROB	n/a	LTP143	ltpFR	13	n/a	n/a	n/a	n/a	n/a	n/a	n/a	15	9	2	4	n/a	n/a	n/a	n/a	n/a
677830	PROB	n/a	LTP143	ltpFR	13	n/a	n/a	n/a	n/a	n/a	n/a	n/a	11	2	4	5	n/a	n/a	n/a	n/a	n/a
681885	STOP	n/a	LTP143	ltpFR	13	n/a	n/a	n/a	n/a	n/a	n/a	n/a	n/a	n/a	n/a	n/a	n/a	n/a	n/a	n/a	n/a
683065	WORD	wordpools/wasnorm_wordpool.txt	LTP143	ltpFR	13	3	1	NOTE	958	n/a	n/a	0	n/a	0	0	0	0.422607421875	0.5869140625	0	lower	amplitud.ttf
686070	START	n/a	LTP143	ltpFR	13	n/a	n/a	n/a	n/a	n/a	n/a	n/a	n/a	n/a	n/a	n/a	n/a	n/a	n/a	n/a	n/a
687085	PROB	n/a	LTP143	ltpFR	13	n/a	n/a	n/a	n/a	n/a	n/a	n/a	24	9	6	9	n/a	n/a	n/a	n/a	n/a
691073	PROB	n/a	LTP143	ltpFR	13	n/a	n/a	n/a	n/a	n/a	n/a	n/a	15	3	4	8	n/a	n/a	n/a	n/a	n/a
693338	STOP	n/a	LTP143	ltpFR	13	n/a	n/a	n/a	n/a	n/a	n/a	n/a	n/a	n/a	n/a	n/a	n/a	n/a	n/a	n/a	n/a
695010	WORD	wordpools/wasnorm_wordpool.txt	LTP143	ltpFR	13	3	1	KEYBOARD	774	n/a	n/a	0	n/a	0	0	0	0.422607421875	0.5869140625	0	lower	amplitud.ttf
698015	START	n/a	LTP143	ltpFR	13	n/a	n/a	n/a	n/a	n/a	n/a	n/a	n/a	n/a	n/a	n/a	n/a	n/a	n/a	n/a	n/a
698905	PROB	n/a	LTP143	ltpFR	13	n/a	n/a	n/a	n/a	n/a	n/a	n/a	8	6	1	1	n/a	n/a	n/a	n/a	n/a
700428	PROB	n/a	LTP143	ltpFR	13	n/a	n/a	n/a	n/a	n/a	n/a	n/a	9	4	1	4	n/a	n/a	n/a	n/a	n/a
702118	PROB	n/a	LTP143	ltpFR	13	n/a	n/a	n/a	n/a	n/a	n/a	n/a	11	1	2	8	n/a	n/a	n/a	n/a	n/a
706015	STOP	n/a	LTP143	ltpFR	13	n/a	n/a	n/a	n/a	n/a	n/a	n/a	n/a	n/a	n/a	n/a	n/a	n/a	n/a	n/a	n/a
707162	WORD	wordpools/wasnorm_wordpool.txt	LTP143	ltpFR	13	3	1	COMMANDER	354	n/a	n/a	1	n/a	0	0	0	0.422607421875	0.5869140625	0	lower	amplitud.ttf
710167	START	n/a	LTP143	ltpFR	13	n/a	n/a	n/a	n/a	n/a	n/a	n/a	n/a	n/a	n/a	n/a	n/a	n/a	n/a	n/a	n/a
711249	PROB	n/a	LTP143	ltpFR	13	n/a	n/a	n/a	n/a	n/a	n/a	n/a	16	9	1	6	n/a	n/a	n/a	n/a	n/a
712931	PROB	n/a	LTP143	ltpFR	13	n/a	n/a	n/a	n/a	n/a	n/a	n/a	14	2	9	3	n/a	n/a	n/a	n/a	n/a
715569	PROB	n/a	LTP143	ltpFR	13	n/a	n/a	n/a	n/a	n/a	n/a	n/a	6	2	2	2	n/a	n/a	n/a	n/a	n/a
716970	STOP	n/a	LTP143	ltpFR	13	n/a	n/a	n/a	n/a	n/a	n/a	n/a	n/a	n/a	n/a	n/a	n/a	n/a	n/a	n/a	n/a
719973	REC_START	n/a	LTP143	ltpFR	13	3	n/a	n/a	n/a	n/a	n/a	n/a	n/a	0	0	0	n/a	n/a	n/a	n/a	n/a
720935	REC_WORD	wordpools/wasnorm_wordpool.txt	LTP143	ltpFR	13	3	1	COMMANDER	354	n/a	n/a	1	n/a	0	0	0	n/a	n/a	n/a	n/a	n/a
722442	REC_WORD	wordpools/wasnorm_wordpool.txt	LTP143	ltpFR	13	3	1	KEYBOARD	774	n/a	n/a	0	n/a	0	0	0	n/a	n/a	n/a	n/a	n/a
727586	REC_WORD	wordpools/wasnorm_wordpool.txt	LTP143	ltpFR	13	3	1	CARD	243	n/a	n/a	0	n/a	0	0	0	n/a	n/a	n/a	n/a	n/a
729252	REC_WORD	wordpools/wasnorm_wordpool.txt	LTP143	ltpFR	13	3	1	NOTE	958	n/a	n/a	0	n/a	0	0	0	n/a	n/a	n/a	n/a	n/a
732360	REC_WORD	wordpools/wasnorm_wordpool.txt	LTP143	ltpFR	13	3	1	GHOST	634	n/a	n/a	0	n/a	0	0	0	n/a	n/a	n/a	n/a	n/a
736500	REC_WORD	wordpools/wasnorm_wordpool.txt	LTP143	ltpFR	13	3	1	PRINCESS	1125	n/a	n/a	0	n/a	0	0	0	n/a	n/a	n/a	n/a	n/a
738830	REC_WORD	wordpools/wasnorm_wordpool.txt	LTP143	ltpFR	13	3	1	ANTEATER	26	n/a	n/a	1	n/a	0	0	0	n/a	n/a	n/a	n/a	n/a
741619	REC_WORD	wordpools/wasnorm_wordpool.txt	LTP143	ltpFR	13	3	1	OTTER	986	n/a	n/a	1	n/a	0	0	0	n/a	n/a	n/a	n/a	n/a
762995	REC_WORD	wordpools/wasnorm_wordpool.txt	LTP143	ltpFR	13	3	1	LAWN	805	n/a	n/a	0	n/a	0	0	0	n/a	n/a	n/a	n/a	n/a
764407	REC_WORD	wordpools/wasnorm_wordpool.txt	LTP143	ltpFR	13	3	1	LAWN	805	n/a	n/a	0	n/a	0	0	0	n/a	n/a	n/a	n/a	n/a
769649	REC_WORD	wordpools/wasnorm_wordpool.txt	LTP143	ltpFR	13	3	1	SUIT	1402	n/a	n/a	0	n/a	0	0	0	n/a	n/a	n/a	n/a	n/a
770602	REC_WORD	wordpools/wasnorm_wordpool.txt	LTP143	ltpFR	13	3	1	UNIFORM	1539	n/a	n/a	0	n/a	0	0	0	n/a	n/a	n/a	n/a	n/a
775851	REC_WORD	wordpools/wasnorm_wordpool.txt	LTP143	ltpFR	13	3	1	DWARF	510	n/a	n/a	1	n/a	0	0	0	n/a	n/a	n/a	n/a	n/a
808337	WORD	wordpools/wasnorm_wordpool.txt	LTP143	ltpFR	13	4	0	SALMON	1227	n/a	n/a	0	n/a	0	0	0	0.57763671875	0.412841796875	1	upper	zerothre.ttf
812539	WORD	wordpools/wasnorm_wordpool.txt	LTP143	ltpFR	13	4	0	SCROLL	1257	n/a	n/a	0	n/a	0	0	0	0.57763671875	0.412841796875	1	upper	zerothre.ttf
816386	WORD	wordpools/wasnorm_wordpool.txt	LTP143	ltpFR	13	4	0	ELM	527	n/a	n/a	1	n/a	0	0	0	0.57763671875	0.412841796875	1	upper	zerothre.ttf
820331	WORD	wordpools/wasnorm_wordpool.txt	LTP143	ltpFR	13	4	0	DOLPHIN	483	n/a	n/a	0	n/a	0	0	0	0.57763671875	0.412841796875	1	upper	zerothre.ttf
824352	WORD	wordpools/wasnorm_wordpool.txt	LTP143	ltpFR	13	4	1	MAPLE	866	n/a	n/a	0	n/a	0	0	0	0.422607421875	0.5869140625	0	lower	amplitud.ttf
828314	WORD	wordpools/wasnorm_wordpool.txt	LTP143	ltpFR	13	4	1	SAP	1233	n/a	n/a	0	n/a	0	0	0	0.422607421875	0.5869140625	0	lower	amplitud.ttf
832367	WORD	wordpools/wasnorm_wordpool.txt	LTP143	ltpFR	13	4	1	TURNIP	1521	n/a	n/a	0	n/a	0	0	0	0.422607421875	0.5869140625	0	lower	amplitud.ttf
836363	WORD	wordpools/wasnorm_wordpool.txt	LTP143	ltpFR	13	4	1	TURKEY	1520	n/a	n/a	1	n/a	0	0	0	0.422607421875	0.5869140625	0	lower	amplitud.ttf
840450	WORD	wordpools/wasnorm_wordpool.txt	LTP143	ltpFR	13	4	0	PIANO	1057	n/a	n/a	1	n/a	0	0	0	0.57763671875	0.412841796875	1	upper	zerothre.ttf
844353	WORD	wordpools/wasnorm_wordpool.txt	LTP143	ltpFR	13	4	0	BAND	78	n/a	n/a	0	n/a	0	0	0	0.57763671875	0.412841796875	1	upper	zerothre.ttf
848332	WORD	wordpools/wasnorm_wordpool.txt	LTP143	ltpFR	13	4	1	LIST	830	n/a	n/a	0	n/a	0	0	0	0.422607421875	0.5869140625	0	lower	amplitud.ttf
852219	WORD	wordpools/wasnorm_wordpool.txt	LTP143	ltpFR	13	4	1	GROCERY	664	n/a	n/a	0	n/a	0	0	0	0.422607421875	0.5869140625	0	lower	amplitud.ttf
856190	WORD	wordpools/wasnorm_wordpool.txt	LTP143	ltpFR	13	4	1	RECIPE	1175	n/a	n/a	0	n/a	0	0	0	0.422607421875	0.5869140625	0	lower	amplitud.ttf
860185	WORD	wordpools/wasnorm_wordpool.txt	LTP143	ltpFR	13	4	1	SOFTBALL	1343	n/a	n/a	0	n/a	0	0	0	0.422607421875	0.5869140625	0	lower	amplitud.ttf
864372	WORD	wordpools/wasnorm_wordpool.txt	LTP143	ltpFR	13	4	0	ENEMY	534	n/a	n/a	1	n/a	0	0	0	0.57763671875	0.412841796875	1	upper	zerothre.ttf
868524	WORD	wordpools/wasnorm_wordpool.txt	LTP143	ltpFR	13	4	0	DANDRUFF	439	n/a	n/a	1	n/a	0	0	0	0.57763671875	0.412841796875	1	upper	zerothre.ttf
871529	START	n/a	LTP143	ltpFR	13	n/a	n/a	n/a	n/a	n/a	n/a	n/a	n/a	n/a	n/a	n/a	n/a	n/a	n/a	n/a	n/a
872604	PROB	n/a	LTP143	ltpFR	13	n/a	n/a	n/a	n/a	n/a	n/a	n/a	16	6	9	1	n/a	n/a	n/a	n/a	n/a
874685	PROB	n/a	LTP143	ltpFR	13	n/a	n/a	n/a	n/a	n/a	n/a	n/a	15	3	7	5	n/a	n/a	n/a	n/a	n/a
876316	PROB	n/a	LTP143	ltpFR	13	n/a	n/a	n/a	n/a	n/a	n/a	n/a	18	6	5	7	n/a	n/a	n/a	n/a	n/a
879034	STOP	n/a	LTP143	ltpFR	13	n/a	n/a	n/a	n/a	n/a	n/a	n/a	n/a	n/a	n/a	n/a	n/a	n/a	n/a	n/a	n/a
881419	REC_START	n/a	LTP143	ltpFR	13	4	n/a	n/a	n/a	n/a	n/a	n/a	n/a	0	0	0	n/a	n/a	n/a	n/a	n/a
882372	REC_WORD	wordpools/wasnorm_wordpool.txt	LTP143	ltpFR	13	4	0	DANDRUFF	439	n/a	n/a	1	n/a	0	0	0	n/a	n/a	n/a	n/a	n/a
883928	REC_WORD	wordpools/wasnorm_wordpool.txt	LTP143	ltpFR	13	4	1	SOFTBALL	1343	n/a	n/a	0	n/a	0	0	0	n/a	n/a	n/a	n/a	n/a
885809	REC_WORD	wordpools/wasnorm_wordpool.txt	LTP143	ltpFR	13	4	0	BAND	78	n/a	n/a	0	n/a	0	0	0	n/a	n/a	n/a	n/a	n/a
887435	REC_WORD	wordpools/wasnorm_wordpool.txt	LTP143	ltpFR	13	4	0	SALMON	1227	n/a	n/a	0	n/a	0	0	0	n/a	n/a	n/a	n/a	n/a
888986	REC_WORD	wordpools/wasnorm_wordpool.txt	LTP143	ltpFR	13	4	0	SCROLL	1257	n/a	n/a	0	n/a	0	0	0	n/a	n/a	n/a	n/a	n/a
913880	REC_WORD	wordpools/wasnorm_wordpool.txt	LTP143	ltpFR	13	4	1	MAPLE	866	n/a	n/a	0	n/a	0	0	0	n/a	n/a	n/a	n/a	n/a
915396	REC_WORD	wordpools/wasnorm_wordpool.txt	LTP143	ltpFR	13	4	1	SAP	1233	n/a	n/a	0	n/a	0	0	0	n/a	n/a	n/a	n/a	n/a
916993	REC_WORD	wordpools/wasnorm_wordpool.txt	LTP143	ltpFR	13	4	0	ELM	527	n/a	n/a	1	n/a	0	0	0	n/a	n/a	n/a	n/a	n/a
919402	REC_WORD	wordpools/wasnorm_wordpool.txt	LTP143	ltpFR	13	4	1	TURNIP	1521	n/a	n/a	0	n/a	0	0	0	n/a	n/a	n/a	n/a	n/a
954702	REC_WORD	wordpools/wasnorm_wordpool.txt	LTP143	ltpFR	13	4	0	PIANO	1057	n/a	n/a	1	n/a	0	0	0	n/a	n/a	n/a	n/a	n/a
960509	WORD	wordpools/wasnorm_wordpool.txt	LTP143	ltpFR	13	5	1	PATIO	1025	n/a	n/a	0	n/a	0	0	0	0.422607421875	0.5869140625	0	lower	amplitud.ttf
964589	WORD	wordpools/wasnorm_wordpool.txt	LTP143	ltpFR	13	5	1	CRITIC	410	n/a	n/a	1	n/a	0	0	0	0.422607421875	0.5869140625	0	lower	amplitud.ttf
968684	WORD	wordpools/wasnorm_wordpool.txt	LTP143	ltpFR	13	5	1	CLAW	319	n/a	n/a	0	n/a	0	0	0	0.422607421875	0.5869140625	0	lower	amplitud.ttf
972596	WORD	wordpools/wasnorm_wordpool.txt	LTP143	ltpFR	13	5	1	ELBOW	520	n/a	n/a	0	n/a	0	0	0	0.422607421875	0.5869140625	0	lower	amplitud.ttf
976442	WORD	wordpools/wasnorm_wordpool.txt	LTP143	ltpFR	13	5	0	CHURCH	307	n/a	n/a	1	n/a	0	0	0	0.57763671875	0.412841796875	1	upper	zerothre.ttf
980404	WORD	wordpools/wasnorm_wordpool.txt	LTP143	ltpFR	13	5	0	GERM	632	n/a	n/a	0	n/a	0	0	0	0.57763671875	0.412841796875	1	upper	zerothre.ttf
984441	WORD	wordpools/wasnorm_wordpool.txt	LTP143	ltpFR	13	5	0	VIRUS	1572	n/a	n/a	0	n/a	0	0	0	0.57763671875	0.412841796875	1	upper	zerothre.ttf
988403	WORD	wordpools/wasnorm_wordpool.txt	LTP143	ltpFR	13	5	0	ASPIRIN	47	n/a	n/a	0	n/a	0	0	0	0.57763671875	0.412841796875	1	upper	zerothre.ttf
992573	WORD	wordpools/wasnorm_wordpool.txt	LTP143	ltpFR	13	5	1	APARTMENT	30	n/a	n/a	0	n/a	0	0	0	0.422607421875	0.5869140625	0	lower	amplitud.ttf
996585	WORD	wordpools/wasnorm_wordpool.txt	LTP143	ltpFR	13	5	1	APPENDAGE	32	n/a	n/a	1	n/a	0	0	0	0.422607421875	0.5869140625	0	lower	amplitud.ttf
1000513	WORD	wordpools/wasnorm_wordpool.txt	LTP143	ltpFR	13	5	1	CAMEL	223	n/a	n/a	1	n/a	0	0	0	0.422607421875	0.5869140625	0	lower	amplitud.ttf
1004576	WORD	wordpools/wasnorm_wordpool.txt	LTP143	ltpFR	13	5	1	ULCER	1533	n/a	n/a	0	n/a	0	0	0	0.422607421875	0.5869140625	0	lower	amplitud.ttf
1008487	WORD	wordpools/wasnorm_wordpool.txt	LTP143	ltpFR	13	5	0	TIGER	1467	n/a	n/a	1	n/a	0	0	0	0.57763671875	0.412841796875	1	upper	zerothre.ttf
1012692	WORD	wordpools/wasnorm_wordpool.txt	LTP143	ltpFR	13	5	0	CAT	257	n/a	n/a	1	n/a	0	0	0	0.57763671875	0.412841796875	1	upper	zerothre.ttf
1016679	WORD	wordpools/wasnorm_wordpool.txt	LTP143	ltpFR	13	5	0	ZOO	1637	n/a	n/a	1	n/a	0	0	0	0.57763671875	0.412841796875	1	upper	zerothre.ttf
1020607	WORD	wordpools/wasnorm_wordpool.txt	LTP143	ltpFR	13	5	0	OX	994	n/a	n/a	1	n/a	0	0	0	0.57763671875	0.412841796875	1	upper	zerothre.ttf
1026601	REC_START	n/a	LTP143	ltpFR	13	5	n/a	n/a	n/a	n/a	n/a	n/a	n/a	0	0	0	n/a	n/a	n/a	n/a	n/a
1027289	REC_WORD	wordpools/wasnorm_wordpool.txt	LTP143	ltpFR	13	5	0	TIGER	1467	n/a	n/a	1	n/a	0	0	0	n/a	n/a	n/a	n/a	n/a
1028551	REC_WORD	wordpools/wasnorm_wordpool.txt	LTP143	ltpFR	13	5	0	CAT	257	n/a	n/a	1	n/a	0	0	0	n/a	n/a	n/a	n/a	n/a
1029813	REC_WORD	wordpools/wasnorm_wordpool.txt	LTP143	ltpFR	13	5	0	ZOO	1637	n/a	n/a	1	n/a	0	0	0	n/a	n/a	n/a	n/a	n/a
1031654	REC_WORD	wordpools/wasnorm_wordpool.txt	LTP143	ltpFR	13	5	0	OX	994	n/a	n/a	1	n/a	0	0	0	n/a	n/a	n/a	n/a	n/a
1033001	REC_WORD	wordpools/wasnorm_wordpool.txt	LTP143	ltpFR	13	5	1	APPENDAGE	32	n/a	n/a	1	n/a	0	0	0	n/a	n/a	n/a	n/a	n/a
1044615	REC_WORD	wordpools/wasnorm_wordpool.txt	LTP143	ltpFR	13	5	1	ELBOW	520	n/a	n/a	0	n/a	0	0	0	n/a	n/a	n/a	n/a	n/a
1047808	REC_WORD	wordpools/wasnorm_wordpool.txt	LTP143	ltpFR	13	5	1	RECIPE	1175	n/a	n/a	0	n/a	0	0	0	n/a	n/a	n/a	n/a	n/a
1057550	REC_WORD	wordpools/wasnorm_wordpool.txt	LTP143	ltpFR	13	5	1	PATIO	1025	n/a	n/a	0	n/a	0	0	0	n/a	n/a	n/a	n/a	n/a
1115123	WORD	wordpools/wasnorm_wordpool.txt	LTP143	ltpFR	13	6	1	BANANA	77	n/a	n/a	0	n/a	0	0	0	0.422607421875	0.5869140625	0	lower	amplitud.ttf
1119177	WORD	wordpools/wasnorm_wordpool.txt	LTP143	ltpFR	13	6	1	INDIAN	736	n/a	n/a	1	n/a	0	0	0	0.422607421875	0.5869140625	0	lower	amplitud.ttf
1123039	WORD	wordpools/wasnorm_wordpool.txt	LTP143	ltpFR	13	6	0	POOL	1103	n/a	n/a	1	n/a	0	0	0	0.57763671875	0.412841796875	1	upper	zerothre.ttf
1127001	WORD	wordpools/wasnorm_wordpool.txt	LTP143	ltpFR	13	6	0	CREEK	404	n/a	n/a	1	n/a	0	0	0	0.57763671875	0.412841796875	1	upper	zerothre.ttf
1130888	WORD	wordpools/wasnorm_wordpool.txt	LTP143	ltpFR	13	6	0	BINDER	127	n/a	n/a	0	n/a	0	0	0	0.57763671875	0.412841796875	1	upper	zerothre.ttf
1135091	WORD	wordpools/wasnorm_wordpool.txt	LTP143	ltpFR	13	6	0	TEAM	1441	n/a	n/a	1	n/a	0	0	0	0.57763671875	0.412841796875	1	upper	zerothre.ttf
1138995	WORD	wordpools/wasnorm_wordpool.txt	LTP143	ltpFR	13	6	1	SPINE	1353	n/a	n/a	0	n/a	0	0	0	0.422607421875	0.5869140625	0	lower	amplitud.ttf
1143091	WORD	wordpools/wasnorm_wordpool.txt	LTP143	ltpFR	13	6	1	TICK	1463	n/a	n/a	1	n/a	0	0	0	0.422607421875	0.5869140625	0	lower	amplitud.ttf
1147286	WORD	wordpools/wasnorm_wordpool.txt	LTP143	ltpFR	13	6	1	MISTER	901	n/a	n/a	1	n/a	0	0	0	0.422607421875	0.5869140625	0	lower	amplitud.ttf
1151256	WORD	wordpools/wasnorm_wordpool.txt	LTP143	ltpFR	13	6	0	HIGHWAY	707	n/a	n/a	1	n/a	0	0	0	0.57763671875	0.412841796875	1	upper	zerothre.ttf
1155202	WORD	wordpools/wasnorm_wordpool.txt	LTP143	ltpFR	13	6	0	BATTERY	101	n/a	n/a	0	n/a	0	0	0	0.57763671875	0.412841796875	1	upper	zerothre.ttf
1159214	WORD	wordpools/wasnorm_wordpool.txt	LTP143	ltpFR	13	6	0	GIRL	637	n/a	n/a	1	n/a	0	0	0	0.57763671875	0.412841796875	1	upper	zerothre.ttf
1163209	WORD	wordpools/wasnorm_wordpool.txt	LTP143	ltpFR	13	6	0	TANGERINE	1431	n/a	n/a	0	n/a	0	0	0	0.57763671875	0.412841796875	1	upper	zerothre.ttf
1167354	WORD	wordpools/wasnorm_wordpool.txt	LTP143	ltpFR	13	6	1	VOLLEYBALL	1576	n/a	n/a	0	n/a	0	0	0	0.422607421875	0.5869140625	0	lower	amplitud.ttf
1171458	WORD	wordpools/wasnorm_wordpool.txt	LTP143	ltpFR	13	6	1	SEASHORE	1263	n/a	n/a	0	n/a	0	0	0	0.422607421875	0.5869140625	0	lower	amplitud.ttf
1175428	WORD	wordpools/wasnorm_wordpool.txt	LTP143	ltpFR	13	6	1	CRICKET	408	n/a	n/a	1	n/a	0	0	0	0.422607421875	0.5869140625	0	lower	amplitud.ttf
1178433	START	n/a	LTP143	ltpFR	13	n/a	n/a	n/a	n/a	n/a	n/a	n/a	n/a	n/a	n/a	n/a	n/a	n/a	n/a	n/a	n/a
1179432	PROB	n/a	LTP143	ltpFR	13	n/a	n/a	n/a	n/a	n/a	n/a	n/a	18	9	3	6	n/a	n/a	n/a	n/a	n/a
1181862	PROB	n/a	LTP143	ltpFR	13	n/a	n/a	n/a	n/a	n/a	n/a	n/a	20	9	9	2	n/a	n/a	n/a	n/a	n/a
1183660	PROB	n/a	LTP143	ltpFR	13	n/a	n/a	n/a	n/a	n/a	n/a	n/a	14	5	5	4	n/a	n/a	n/a	n/a	n/a
1185258	PROB	n/a	LTP143	ltpFR	13	n/a	n/a	n/a	n/a	n/a	n/a	n/a	19	5	8	6	n/a	n/a	n/a	n/a	n/a
1189054	PROB	n/a	LTP143	ltpFR	13	n/a	n/a	n/a	n/a	n/a	n/a	n/a	12	4	3	5	n/a	n/a	n/a	n/a	n/a
1191917	PROB	n/a	LTP143	ltpFR	13	n/a	n/a	n/a	n/a	n/a	n/a	n/a	5	2	2	1	n/a	n/a	n/a	n/a	n/a
1193258	STOP	n/a	LTP143	ltpFR	13	n/a	n/a	n/a	n/a	n/a	n/a	n/a	n/a	n/a	n/a	n/a	n/a	n/a	n/a	n/a	n/a
1196271	REC_START	n/a	LTP143	ltpFR	13	6	n/a	n/a	n/a	n/a	n/a	n/a	n/a	0	0	0	n/a	n/a	n/a	n/a	n/a
1197368	REC_WORD	wordpools/wasnorm_wordpool.txt	LTP143	ltpFR	13	6	1	CRICKET	408	n/a	n/a	1	n/a	0	0	0	n/a	n/a	n/a	n/a	n/a
1200376	REC_WORD	wordpools/wasnorm_wordpool.txt	LTP143	ltpFR	13	6	0	BINDER	127	n/a	n/a	0	n/a	0	0	0	n/a	n/a	n/a	n/a	n/a
1216774	REC_WORD	wordpools/wasnorm_wordpool.txt	LTP143	ltpFR	13	6	0	GIRL	637	n/a	n/a	1	n/a	0	0	0	n/a	n/a	n/a	n/a	n/a
1225155	REC_WORD	wordpools/wasnorm_wordpool.txt	LTP143	ltpFR	13	6	0	POOL	1103	n/a	n/a	1	n/a	0	0	0	n/a	n/a	n/a	n/a	n/a
1226756	REC_WORD	wordpools/wasnorm_wordpool.txt	LTP143	ltpFR	13	6	0	CREEK	404	n/a	n/a	1	n/a	0	0	0	n/a	n/a	n/a	n/a	n/a
1245873	REC_WORD	wordpools/wasnorm_wordpool.txt	LTP143	ltpFR	13	6	0	TEAM	1441	n/a	n/a	1	n/a	0	0	0	n/a	n/a	n/a	n/a	n/a
1248517	REC_WORD	wordpools/wasnorm_wordpool.txt	LTP143	ltpFR	13	6	1	VOLLEYBALL	1576	n/a	n/a	0	n/a	0	0	0	n/a	n/a	n/a	n/a	n/a
1279366	START	n/a	LTP143	ltpFR	13	n/a	n/a	n/a	n/a	n/a	n/a	n/a	n/a	n/a	n/a	n/a	n/a	n/a	n/a	n/a	n/a
1280873	PROB	n/a	LTP143	ltpFR	13	n/a	n/a	n/a	n/a	n/a	n/a	n/a	19	4	8	7	n/a	n/a	n/a	n/a	n/a
1284635	PROB	n/a	LTP143	ltpFR	13	n/a	n/a	n/a	n/a	n/a	n/a	n/a	17	2	7	8	n/a	n/a	n/a	n/a	n/a
1287257	PROB	n/a	LTP143	ltpFR	13	n/a	n/a	n/a	n/a	n/a	n/a	n/a	22	9	7	6	n/a	n/a	n/a	n/a	n/a
1290703	PROB	n/a	LTP143	ltpFR	13	n/a	n/a	n/a	n/a	n/a	n/a	n/a	20	8	8	4	n/a	n/a	n/a	n/a	n/a
1292909	PROB	n/a	LTP143	ltpFR	13	n/a	n/a	n/a	n/a	n/a	n/a	n/a	14	9	1	4	n/a	n/a	n/a	n/a	n/a
1294513	STOP	n/a	LTP143	ltpFR	13	n/a	n/a	n/a	n/a	n/a	n/a	n/a	n/a	n/a	n/a	n/a	n/a	n/a	n/a	n/a	n/a
1296330	WORD	wordpools/wasnorm_wordpool.txt	LTP143	ltpFR	13	7	1	ATTIC	56	n/a	n/a	0	n/a	0	0	0	0.422607421875	0.5869140625	0	lower	amplitud.ttf
1299335	START	n/a	LTP143	ltpFR	13	n/a	n/a	n/a	n/a	n/a	n/a	n/a	n/a	n/a	n/a	n/a	n/a	n/a	n/a	n/a	n/a
1300516	PROB	n/a	LTP143	ltpFR	13	n/a	n/a	n/a	n/a	n/a	n/a	n/a	19	7	5	7	n/a	n/a	n/a	n/a	n/a
1303804	PROB	n/a	LTP143	ltpFR	13	n/a	n/a	n/a	n/a	n/a	n/a	n/a	21	5	8	8	n/a	n/a	n/a	n/a	n/a
1307109	PROB	n/a	LTP143	ltpFR	13	n/a	n/a	n/a	n/a	n/a	n/a	n/a	16	6	9	1	n/a	n/a	n/a	n/a	n/a
1308674	PROB	n/a	LTP143	ltpFR	13	n/a	n/a	n/a	n/a	n/a	n/a	n/a	18	8	4	6	n/a	n/a	n/a	n/a	n/a
1311004	PROB	n/a	LTP143	ltpFR	13	n/a	n/a	n/a	n/a	n/a	n/a	n/a	8	1	1	6	n/a	n/a	n/a	n/a	n/a
1312518	PROB	n/a	LTP143	ltpFR	13	n/a	n/a	n/a	n/a	n/a	n/a	n/a	17	9	6	2	n/a	n/a	n/a	n/a	n/a
1314738	STOP	n/a	LTP143	ltpFR	13	n/a	n/a	n/a	n/a	n/a	n/a	n/a	n/a	n/a	n/a	n/a	n/a	n/a	n/a	n/a	n/a
1316148	WORD	wordpools/wasnorm_wordpool.txt	LTP143	ltpFR	13	7	1	HOME	712	n/a	n/a	0	n/a	0	0	0	0.422607421875	0.5869140625	0	lower	amplitud.ttf
1319154	START	n/a	LTP143	ltpFR	13	n/a	n/a	n/a	n/a	n/a	n/a	n/a	n/a	n/a	n/a	n/a	n/a	n/a	n/a	n/a	n/a
1320210	PROB	n/a	LTP143	ltpFR	13	n/a	n/a	n/a	n/a	n/a	n/a	n/a	10	3	2	5	n/a	n/a	n/a	n/a	n/a
1322891	PROB	n/a	LTP143	ltpFR	13	n/a	n/a	n/a	n/a	n/a	n/a	n/a	7	1	1	5	n/a	n/a	n/a	n/a	n/a
1324463	PROB	n/a	LTP143	ltpFR	13	n/a	n/a	n/a	n/a	n/a	n/a	n/a	7	1	2	4	n/a	n/a	n/a	n/a	n/a
1326535	PROB	n/a	LTP143	ltpFR	13	n/a	n/a	n/a	n/a	n/a	n/a	n/a	25	9	8	8	n/a	n/a	n/a	n/a	n/a
1330066	PROB	n/a	LTP143	ltpFR	13	n/a	n/a	n/a	n/a	n/a	n/a	n/a	13	7	1	5	n/a	n/a	n/a	n/a	n/a
1335154	STOP	n/a	LTP143	ltpFR	13	n/a	n/a	n/a	n/a	n/a	n/a	n/a	n/a	n/a	n/a	n/a	n/a	n/a	n/a	n/a	n/a
1336117	WORD	wordpools/wasnorm_wordpool.txt	LTP143	ltpFR	13	7	1	COLESLAW	344	n/a	n/a	0	n/a	0	0	0	0.422607421875	0.5869140625	0	lower	amplitud.ttf
1339122	START	n/a	LTP143	ltpFR	13	n/a	n/a	n/a	n/a	n/a	n/a	n/a	n/a	n/a	n/a	n/a	n/a	n/a	n/a	n/a	n/a
1340212	PROB	n/a	LTP143	ltpFR	13	n/a	n/a	n/a	n/a	n/a	n/a	n/a	20	7	9	4	n/a	n/a	n/a	n/a	n/a
1344498	PROB	n/a	LTP143	ltpFR	13	n/a	n/a	n/a	n/a	n/a	n/a	n/a	18	3	6	9	n/a	n/a	n/a	n/a	n/a
1346829	PROB	n/a	LTP143	ltpFR	13	n/a	n/a	n/a	n/a	n/a	n/a	n/a	16	3	6	7	n/a	n/a	n/a	n/a	n/a
1348619	PROB	n/a	LTP143	ltpFR	13	n/a	n/a	n/a	n/a	n/a	n/a	n/a	7	5	1	1	n/a	n/a	n/a	n/a	n/a
1350042	PROB	n/a	LTP143	ltpFR	13	n/a	n/a	n/a	n/a	n/a	n/a	n/a	19	6	4	9	n/a	n/a	n/a	n/a	n/a
1355122	STOP	n/a	LTP143	ltpFR	13	n/a	n/a	n/a	n/a	n/a	n/a	n/a	n/a	n/a	n/a	n/a	n/a	n/a	n/a	n/a	n/a
1356044	WORD	wordpools/wasnorm_wordpool.txt	LTP143	ltpFR	13	7	1	DICE	461	n/a	n/a	0	n/a	0	0	0	0.422607421875	0.5869140625	0	lower	amplitud.ttf
1359049	START	n/a	LTP143	ltpFR	13	n/a	n/a	n/a	n/a	n/a	n/a	n/a	n/a	n/a	n/a	n/a	n/a	n/a	n/a	n/a	n/a
1359948	PROB	n/a	LTP143	ltpFR	13	n/a	n/a	n/a	n/a	n/a	n/a	n/a	15	5	9	1	n/a	n/a	n/a	n/a	n/a
1361363	PROB	n/a	LTP143	ltpFR	13	n/a	n/a	n/a	n/a	n/a	n/a	n/a	19	7	8	4	n/a	n/a	n/a	n/a	n/a
1364516	PROB	n/a	LTP143	ltpFR	13	n/a	n/a	n/a	n/a	n/a	n/a	n/a	14	7	3	4	n/a	n/a	n/a	n/a	n/a
1366390	PROB	n/a	LTP143	ltpFR	13	n/a	n/a	n/a	n/a	n/a	n/a	n/a	19	3	9	7	n/a	n/a	n/a	n/a	n/a
1369603	PROB	n/a	LTP143	ltpFR	13	n/a	n/a	n/a	n/a	n/a	n/a	n/a	21	6	9	6	n/a	n/a	n/a	n/a	n/a
1373650	STOP	n/a	LTP143	ltpFR	13	n/a	n/a	n/a	n/a	n/a	n/a	n/a	n/a	n/a	n/a	n/a	n/a	n/a	n/a	n/a	n/a
1376104	WORD	wordpools/wasnorm_wordpool.txt	LTP143	ltpFR	13	7	1	SEED	1266	n/a	n/a	0	n/a	0	0	0	0.422607421875	0.5869140625	0	lower	amplitud.ttf
1379109	START	n/a	LTP143	ltpFR	13	n/a	n/a	n/a	n/a	n/a	n/a	n/a	n/a	n/a	n/a	n/a	n/a	n/a	n/a	n/a	n/a
1380166	PROB	n/a	LTP143	ltpFR	13	n/a	n/a	n/a	n/a	n/a	n/a	n/a	14	8	3	3	n/a	n/a	n/a	n/a	n/a
1382580	PROB	n/a	LTP143	ltpFR	13	n/a	n/a	n/a	n/a	n/a	n/a	n/a	16	3	4	9	n/a	n/a	n/a	n/a	n/a
1385784	PROB	n/a	LTP143	ltpFR	13	n/a	n/a	n/a	n/a	n/a	n/a	n/a	15	4	2	9	n/a	n/a	n/a	n/a	n/a
1388132	PROB	n/a	LTP143	ltpFR	13	n/a	n/a	n/a	n/a	n/a	n/a	n/a	15	3	3	9	n/a	n/a	n/a	n/a	n/a
1390287	PROB	n/a	LTP143	ltpFR	13	n/a	n/a	n/a	n/a	n/a	n/a	n/a	16	9	1	6	n/a	n/a	n/a	n/a	n/a
1391794	PROB	n/a	LTP143	ltpFR	13	n/a	n/a	n/a	n/a	n/a	n/a	n/a	9	5	1	3	n/a	n/a	n/a	n/a	n/a
1393962	STOP	n/a	LTP143	ltpFR	13	n/a	n/a	n/a	n/a	n/a	n/a	n/a	n/a	n/a	n/a	n/a	n/a	n/a	n/a	n/a	n/a
1396314	WORD	wordpools/wasnorm_wordpool.txt	LTP143	ltpFR	13	7	1	BOSS	152	n/a	n/a	1	n/a	0	0	0	0.422607421875	0.5869140625	0	lower	amplitud.ttf
1399319	START	n/a	LTP143	ltpFR	13	n/a	n/a	n/a	n/a	n/a	n/a	n/a	n/a	n/a	n/a	n/a	n/a	n/a	n/a	n/a	n/a
1400409	PROB	n/a	LTP143	ltpFR	13	n/a	n/a	n/a	n/a	n/a	n/a	n/a	16	7	8	1	n/a	n/a	n/a	n/a	n/a
1402432	PROB	n/a	LTP143	ltpFR	13	n/a	n/a	n/a	n/a	n/a	n/a	n/a	11	3	3	5	n/a	n/a	n/a	n/a	n/a
1404563	PROB	n/a	LTP143	ltpFR	13	n/a	n/a	n/a	n/a	n/a	n/a	n/a	19	7	6	6	n/a	n/a	n/a	n/a	n/a
1408949	PROB	n/a	LTP143	ltpFR	13	n/a	n/a	n/a	n/a	n/a	n/a	n/a	23	9	9	5	n/a	n/a	n/a	n/a	n/a
1412337	PROB	n/a	LTP143	ltpFR	13	n/a	n/a	n/a	n/a	n/a	n/a	n/a	13	1	8	4	n/a	n/a	n/a	n/a	n/a
1414722	STOP	n/a	LTP143	ltpFR	13	n/a	n/a	n/a	n/a	n/a	n/a	n/a	n/a	n/a	n/a	n/a	n/a	n/a	n/a	n/a	n/a
1416183	WORD	wordpools/wasnorm_wordpool.txt	LTP143	ltpFR	13	7	0	SECRETARY	1265	n/a	n/a	1	n/a	0	0	0	0.57763671875	0.412841796875	1	upper	zerothre.ttf
1419188	START	n/a	LTP143	ltpFR	13	n/a	n/a	n/a	n/a	n/a	n/a	n/a	n/a	n/a	n/a	n/a	n/a	n/a	n/a	n/a	n/a
1420286	PROB	n/a	LTP143	ltpFR	13	n/a	n/a	n/a	n/a	n/a	n/a	n/a	13	3	8	2	n/a	n/a	n/a	n/a	n/a
1421768	PROB	n/a	LTP143	ltpFR	13	n/a	n/a	n/a	n/a	n/a	n/a	n/a	12	4	3	5	n/a	n/a	n/a	n/a	n/a
1424423	PROB	n/a	LTP143	ltpFR	13	n/a	n/a	n/a	n/a	n/a	n/a	n/a	23	9	9	5	n/a	n/a	n/a	n/a	n/a
1428110	PROB	n/a	LTP143	ltpFR	13	n/a	n/a	n/a	n/a	n/a	n/a	n/a	11	1	9	1	n/a	n/a	n/a	n/a	n/a
1429683	PROB	n/a	LTP143	ltpFR	13	n/a	n/a	n/a	n/a	n/a	n/a	n/a	14	8	4	2	n/a	n/a	n/a	n/a	n/a
1432405	PROB	n/a	LTP143	ltpFR	13	n/a	n/a	n/a	n/a	n/a	n/a	n/a	16	5	4	7	n/a	n/a	n/a	n/a	n/a
1434690	STOP	n/a	LTP143	ltpFR	13	n/a	n/a	n/a	n/a	n/a	n/a	n/a	n/a	n/a	n/a	n/a	n/a	n/a	n/a	n/a	n/a
1436276	WORD	wordpools/wasnorm_wordpool.txt	LTP143	ltpFR	13	7	0	GRASSHOPPER	656	n/a	n/a	0	n/a	0	0	0	0.57763671875	0.412841796875	1	upper	zerothre.ttf
1439281	START	n/a	LTP143	ltpFR	13	n/a	n/a	n/a	n/a	n/a	n/a	n/a	n/a	n/a	n/a	n/a	n/a	n/a	n/a	n/a	n/a
1440421	PROB	n/a	LTP143	ltpFR	13	n/a	n/a	n/a	n/a	n/a	n/a	n/a	13	4	4	5	n/a	n/a	n/a	n/a	n/a
1444158	PROB	n/a	LTP143	ltpFR	13	n/a	n/a	n/a	n/a	n/a	n/a	n/a	13	7	5	1	n/a	n/a	n/a	n/a	n/a
1446281	PROB	n/a	LTP143	ltpFR	13	n/a	n/a	n/a	n/a	n/a	n/a	n/a	15	6	7	2	n/a	n/a	n/a	n/a	n/a
1448170	PROB	n/a	LTP143	ltpFR	13	n/a	n/a	n/a	n/a	n/a	n/a	n/a	14	3	5	6	n/a	n/a	n/a	n/a	n/a
1450817	PROB	n/a	LTP143	ltpFR	13	n/a	n/a	n/a	n/a	n/a	n/a	n/a	18	6	9	3	n/a	n/a	n/a	n/a	n/a
1453315	PROB	n/a	LTP143	ltpFR	13	n/a	n/a	n/a	n/a	n/a	n/a	n/a	16	6	2	8	n/a	n/a	n/a	n/a	n/a
1455050	STOP	n/a	LTP143	ltpFR	13	n/a	n/a	n/a	n/a	n/a	n/a	n/a	n/a	n/a	n/a	n/a	n/a	n/a	n/a	n/a	n/a
1456411	WORD	wordpools/wasnorm_wordpool.txt	LTP143	ltpFR	13	7	0	HOUND	724	n/a	n/a	1	n/a	0	0	0	0.57763671875	0.412841796875	1	upper	zerothre.ttf
1459416	START	n/a	LTP143	ltpFR	13	n/a	n/a	n/a	n/a	n/a	n/a	n/a	n/a	n/a	n/a	n/a	n/a	n/a	n/a	n/a	n/a
1460306	PROB	n/a	LTP143	ltpFR	13	n/a	n/a	n/a	n/a	n/a	n/a	n/a	13	3	8	2	n/a	n/a	n/a	n/a	n/a
1462029	PROB	n/a	LTP143	ltpFR	13	n/a	n/a	n/a	n/a	n/a	n/a	n/a	14	2	4	8	n/a	n/a	n/a	n/a	n/a
1464002	PROB	n/a	LTP143	ltpFR	13	n/a	n/a	n/a	n/a	n/a	n/a	n/a	19	4	6	9	n/a	n/a	n/a	n/a	n/a
1467090	PROB	n/a	LTP143	ltpFR	13	n/a	n/a	n/a	n/a	n/a	n/a	n/a	14	8	2	4	n/a	n/a	n/a	n/a	n/a
1468763	PROB	n/a	LTP143	ltpFR	13	n/a	n/a	n/a	n/a	n/a	n/a	n/a	18	8	5	5	n/a	n/a	n/a	n/a	n/a
1470411	PROB	n/a	LTP143	ltpFR	13	n/a	n/a	n/a	n/a	n/a	n/a	n/a	12	2	4	6	n/a	n/a	n/a	n/a	n/a
1475415	STOP	n/a	LTP143	ltpFR	13	n/a	n/a	n/a	n/a	n/a	n/a	n/a	n/a	n/a	n/a	n/a	n/a	n/a	n/a	n/a	n/a
1476503	WORD	wordpools/wasnorm_wordpool.txt	LTP143	ltpFR	13	7	0	JOKER	759	n/a	n/a	1	n/a	0	0	0	0.57763671875	0.412841796875	1	upper	zerothre.ttf
1479509	START	n/a	LTP143	ltpFR	13	n/a	n/a	n/a	n/a	n/a	n/a	n/a	n/a	n/a	n/a	n/a	n/a	n/a	n/a	n/a	n/a
1480458	PROB	n/a	LTP143	ltpFR	13	n/a	n/a	n/a	n/a	n/a	n/a	n/a	18	6	3	9	n/a	n/a	n/a	n/a	n/a
1482530	PROB	n/a	LTP143	ltpFR	13	n/a	n/a	n/a	n/a	n/a	n/a	n/a	10	1	3	6	n/a	n/a	n/a	n/a	n/a
1484570	PROB	n/a	LTP143	ltpFR	13	n/a	n/a	n/a	n/a	n/a	n/a	n/a	21	6	7	7	n/a	n/a	n/a	n/a	n/a
1487841	PROB	n/a	LTP143	ltpFR	13	n/a	n/a	n/a	n/a	n/a	n/a	n/a	11	4	6	1	n/a	n/a	n/a	n/a	n/a
1489747	PROB	n/a	LTP143	ltpFR	13	n/a	n/a	n/a	n/a	n/a	n/a	n/a	21	9	6	6	n/a	n/a	n/a	n/a	n/a
1493060	PROB	n/a	LTP143	ltpFR	13	n/a	n/a	n/a	n/a	n/a	n/a	n/a	13	3	3	7	n/a	n/a	n/a	n/a	n/a
1495186	STOP	n/a	LTP143	ltpFR	13	n/a	n/a	n/a	n/a	n/a	n/a	n/a	n/a	n/a	n/a	n/a	n/a	n/a	n/a	n/a	n/a
1496365	WORD	wordpools/wasnorm_wordpool.txt	LTP143	ltpFR	13	7	0	DRAWER	493	n/a	n/a	1	n/a	0	0	0	0.57763671875	0.412841796875	1	upper	zerothre.ttf
1499370	START	n/a	LTP143	ltpFR	13	n/a	n/a	n/a	n/a	n/a	n/a	n/a	n/a	n/a	n/a	n/a	n/a	n/a	n/a	n/a	n/a
1500492	PROB	n/a	LTP143	ltpFR	13	n/a	n/a	n/a	n/a	n/a	n/a	n/a	22	9	8	5	n/a	n/a	n/a	n/a	n/a
1505221	PROB	n/a	LTP143	ltpFR	13	n/a	n/a	n/a	n/a	n/a	n/a	n/a	16	4	8	4	n/a	n/a	n/a	n/a	n/a
1509707	PROB	n/a	LTP143	ltpFR	13	n/a	n/a	n/a	n/a	n/a	n/a	n/a	17	3	8	6	n/a	n/a	n/a	n/a	n/a
1512554	PROB	n/a	LTP143	ltpFR	13	n/a	n/a	n/a	n/a	n/a	n/a	n/a	22	9	9	4	n/a	n/a	n/a	n/a	n/a
1514898	STOP	n/a	LTP143	ltpFR	13	n/a	n/a	n/a	n/a	n/a	n/a	n/a	n/a	n/a	n/a	n/a	n/a	n/a	n/a	n/a	n/a
1516250	WORD	wordpools/wasnorm_wordpool.txt	LTP143	ltpFR	13	7	0	FINGER	567	n/a	n/a	1	n/a	0	0	0	0.57763671875	0.412841796875	1	upper	zerothre.ttf
1519255	START	n/a	LTP143	ltpFR	13	n/a	n/a	n/a	n/a	n/a	n/a	n/a	n/a	n/a	n/a	n/a	n/a	n/a	n/a	n/a	n/a
1520162	PROB	n/a	LTP143	ltpFR	13	n/a	n/a	n/a	n/a	n/a	n/a	n/a	11	3	7	1	n/a	n/a	n/a	n/a	n/a
1521893	PROB	n/a	LTP143	ltpFR	13	n/a	n/a	n/a	n/a	n/a	n/a	n/a	11	2	2	7	n/a	n/a	n/a	n/a	n/a
1524232	PROB	n/a	LTP143	ltpFR	13	n/a	n/a	n/a	n/a	n/a	n/a	n/a	22	5	9	8	n/a	n/a	n/a	n/a	n/a
1527404	PROB	n/a	LTP143	ltpFR	13	n/a	n/a	n/a	n/a	n/a	n/a	n/a	11	3	7	1	n/a	n/a	n/a	n/a	n/a
1529018	PROB	n/a	LTP143	ltpFR	13	n/a	n/a	n/a	n/a	n/a	n/a	n/a	21	3	9	9	n/a	n/a	n/a	n/a	n/a
1530875	PROB	n/a	LTP143	ltpFR	13	n/a	n/a	n/a	n/a	n/a	n/a	n/a	23	8	9	6	n/a	n/a	n/a	n/a	n/a
1534682	STOP	n/a	LTP143	ltpFR	13	n/a	n/a	n/a	n/a	n/a	n/a	n/a	n/a	n/a	n/a	n/a	n/a	n/a	n/a	n/a	n/a
1536368	WORD	wordpools/wasnorm_wordpool.txt	LTP143	ltpFR	13	7	1	BANQUET	86	n/a	n/a	0	n/a	0	0	0	0.422607421875	0.5869140625	0	lower	amplitud.ttf
1539374	START	n/a	LTP143	ltpFR	13	n/a	n/a	n/a	n/a	n/a	n/a	n/a	n/a	n/a	n/a	n/a	n/a	n/a	n/a	n/a	n/a
1540197	PROB	n/a	LTP143	ltpFR	13	n/a	n/a	n/a	n/a	n/a	n/a	n/a	9	3	4	2	n/a	n/a	n/a	n/a	n/a
1542445	PROB	n/a	LTP143	ltpFR	13	n/a	n/a	n/a	n/a	n/a	n/a	n/a	12	9	1	2	n/a	n/a	n/a	n/a	n/a
1544076	PROB	n/a	LTP143	ltpFR	13	n/a	n/a	n/a	n/a	n/a	n/a	n/a	14	3	2	9	n/a	n/a	n/a	n/a	n/a
1546681	PROB	n/a	LTP143	ltpFR	13	n/a	n/a	n/a	n/a	n/a	n/a	n/a	17	8	8	1	n/a	n/a	n/a	n/a	n/a
1548621	PROB	n/a	LTP143	ltpFR	13	n/a	n/a	n/a	n/a	n/a	n/a	n/a	17	4	4	9	n/a	n/a	n/a	n/a	n/a
1551800	PROB	n/a	LTP143	ltpFR	13	n/a	n/a	n/a	n/a	n/a	n/a	n/a	13	3	7	3	n/a	n/a	n/a	n/a	n/a
1554202	STOP	n/a	LTP143	ltpFR	13	n/a	n/a	n/a	n/a	n/a	n/a	n/a	n/a	n/a	n/a	n/a	n/a	n/a	n/a	n/a	n/a
1556511	WORD	wordpools/wasnorm_wordpool.txt	LTP143	ltpFR	13	7	1	FLEA	577	n/a	n/a	1	n/a	0	0	0	0.422607421875	0.5869140625	0	lower	amplitud.ttf
1559516	START	n/a	LTP143	ltpFR	13	n/a	n/a	n/a	n/a	n/a	n/a	n/a	n/a	n/a	n/a	n/a	n/a	n/a	n/a	n/a	n/a
1560715	PROB	n/a	LTP143	ltpFR	13	n/a	n/a	n/a	n/a	n/a	n/a	n/a	5	1	3	1	n/a	n/a	n/a	n/a	n/a
1561955	PROB	n/a	LTP143	ltpFR	13	n/a	n/a	n/a	n/a	n/a	n/a	n/a	17	5	6	6	n/a	n/a	n/a	n/a	n/a
1565550	PROB	n/a	LTP143	ltpFR	13	n/a	n/a	n/a	n/a	n/a	n/a	n/a	23	8	7	8	n/a	n/a	n/a	n/a	n/a
1570770	PROB	n/a	LTP143	ltpFR	13	n/a	n/a	n/a	n/a	n/a	n/a	n/a	9	2	3	4	n/a	n/a	n/a	n/a	n/a
1575516	STOP	n/a	LTP143	ltpFR	13	n/a	n/a	n/a	n/a	n/a	n/a	n/a	n/a	n/a	n/a	n/a	n/a	n/a	n/a	n/a	n/a
1576438	WORD	wordpools/wasnorm_wordpool.txt	LTP143	ltpFR	13	7	0	LAWYER	806	n/a	n/a	1	n/a	0	0	0	0.57763671875	0.412841796875	1	upper	zerothre.ttf
1579444	START	n/a	LTP143	ltpFR	13	n/a	n/a	n/a	n/a	n/a	n/a	n/a	n/a	n/a	n/a	n/a	n/a	n/a	n/a	n/a	n/a
1580301	PROB	n/a	LTP143	ltpFR	13	n/a	n/a	n/a	n/a	n/a	n/a	n/a	12	5	3	4	n/a	n/a	n/a	n/a	n/a
1583164	PROB	n/a	LTP143	ltpFR	13	n/a	n/a	n/a	n/a	n/a	n/a	n/a	15	6	4	5	n/a	n/a	n/a	n/a	n/a
1586760	PROB	n/a	LTP143	ltpFR	13	n/a	n/a	n/a	n/a	n/a	n/a	n/a	22	4	9	9	n/a	n/a	n/a	n/a	n/a
1589332	PROB	n/a	LTP143	ltpFR	13	n/a	n/a	n/a	n/a	n/a	n/a	n/a	11	3	2	6	n/a	n/a	n/a	n/a	n/a
1592179	PROB	n/a	LTP143	ltpFR	13	n/a	n/a	n/a	n/a	n/a	n/a	n/a	11	7	1	3	n/a	n/a	n/a	n/a	n/a
1593644	PROB	n/a	LTP143	ltpFR	13	n/a	n/a	n/a	n/a	n/a	n/a	n/a	8	1	2	5	n/a	n/a	n/a	n/a	n/a
1595282	STOP	n/a	LTP143	ltpFR	13	n/a	n/a	n/a	n/a	n/a	n/a	n/a	n/a	n/a	n/a	n/a	n/a	n/a	n/a	n/a	n/a
1596415	WORD	wordpools/wasnorm_wordpool.txt	LTP143	ltpFR	13	7	0	STETHOSCOPE	1379	n/a	n/a	1	n/a	0	0	0	0.57763671875	0.412841796875	1	upper	zerothre.ttf
1599420	START	n/a	LTP143	ltpFR	13	n/a	n/a	n/a	n/a	n/a	n/a	n/a	n/a	n/a	n/a	n/a	n/a	n/a	n/a	n/a	n/a
1600261	PROB	n/a	LTP143	ltpFR	13	n/a	n/a	n/a	n/a	n/a	n/a	n/a	26	7	9	9	n/a	n/a	n/a	n/a	n/a
1604530	PROB	n/a	LTP143	ltpFR	13	n/a	n/a	n/a	n/a	n/a	n/a	n/a	14	3	3	8	n/a	n/a	n/a	n/a	n/a
1607036	PROB	n/a	LTP143	ltpFR	13	n/a	n/a	n/a	n/a	n/a	n/a	n/a	22	7	7	8	n/a	n/a	n/a	n/a	n/a
1610965	PROB	n/a	LTP143	ltpFR	13	n/a	n/a	n/a	n/a	n/a	n/a	n/a	18	8	9	1	n/a	n/a	n/a	n/a	n/a
1615420	STOP	n/a	LTP143	ltpFR	13	n/a	n/a	n/a	n/a	n/a	n/a	n/a	n/a	n/a	n/a	n/a	n/a	n/a	n/a	n/a	n/a
1617159	REC_START	n/a	LTP143	ltpFR	13	7	n/a	n/a	n/a	n/a	n/a	n/a	n/a	0	0	0	n/a	n/a	n/a	n/a	n/a
1618475	REC_WORD	wordpools/wasnorm_wordpool.txt	LTP143	ltpFR	13	7	0	STETHOSCOPE	1379	n/a	n/a	1	n/a	0	0	0	n/a	n/a	n/a	n/a	n/a
1620481	REC_WORD	wordpools/wasnorm_wordpool.txt	LTP143	ltpFR	13	7	1	FLEA	577	n/a	n/a	1	n/a	0	0	0	n/a	n/a	n/a	n/a	n/a
1626253	REC_WORD	wordpools/wasnorm_wordpool.txt	LTP143	ltpFR	13	7	0	GRASSHOPPER	656	n/a	n/a	0	n/a	0	0	0	n/a	n/a	n/a	n/a	n/a
1633744	REC_WORD	wordpools/wasnorm_wordpool.txt	LTP143	ltpFR	13	7	0	HOUND	724	n/a	n/a	1	n/a	0	0	0	n/a	n/a	n/a	n/a	n/a
1657701	REC_WORD	wordpools/wasnorm_wordpool.txt	LTP143	ltpFR	13	7	0	FINGER	567	n/a	n/a	1	n/a	0	0	0	n/a	n/a	n/a	n/a	n/a
1663010	REC_WORD	wordpools/wasnorm_wordpool.txt	LTP143	ltpFR	13	7	1	BANQUET	86	n/a	n/a	0	n/a	0	0	0	n/a	n/a	n/a	n/a	n/a
1667813	REC_WORD	wordpools/wasnorm_wordpool.txt	LTP143	ltpFR	13	7	1	COLESLAW	344	n/a	n/a	0	n/a	0	0	0	n/a	n/a	n/a	n/a	n/a
1681612	REC_WORD	wordpools/wasnorm_wordpool.txt	LTP143	ltpFR	13	7	0	HIGHWAY	707	n/a	n/a	1	n/a	0	0	0	n/a	n/a	n/a	n/a	n/a
1705680	WORD	wordpools/wasnorm_wordpool.txt	LTP143	ltpFR	13	8	1	TROUT	1511	n/a	n/a	1	n/a	0	0	0	0.422607421875	0.5869140625	0	lower	amplitud.ttf
1709792	WORD	wordpools/wasnorm_wordpool.txt	LTP143	ltpFR	13	8	1	MEDAL	885	n/a	n/a	0	n/a	0	0	0	0.422607421875	0.5869140625	0	lower	amplitud.ttf
1713846	WORD	wordpools/wasnorm_wordpool.txt	LTP143	ltpFR	13	8	1	REEF	1177	n/a	n/a	1	n/a	0	0	0	0.422607421875	0.5869140625	0	lower	amplitud.ttf
1718024	WORD	wordpools/wasnorm_wordpool.txt	LTP143	ltpFR	13	8	1	SEAFOOD	1260	n/a	n/a	1	n/a	0	0	0	0.422607421875	0.5869140625	0	lower	amplitud.ttf
1722120	WORD	wordpools/wasnorm_wordpool.txt	LTP143	ltpFR	13	8	1	SHEARS	1276	n/a	n/a	0	n/a	0	0	0	0.422607421875	0.5869140625	0	lower	amplitud.ttf
1726298	WORD	wordpools/wasnorm_wordpool.txt	LTP143	ltpFR	13	8	1	TAVERN	1437	n/a	n/a	0	n/a	0	0	0	0.422607421875	0.5869140625	0	lower	amplitud.ttf
1730377	WORD	wordpools/wasnorm_wordpool.txt	LTP143	ltpFR	13	8	1	BARREL	91	n/a	n/a	0	n/a	0	0	0	0.422607421875	0.5869140625	0	lower	amplitud.ttf
1734256	WORD	wordpools/wasnorm_wordpool.txt	LTP143	ltpFR	13	8	1	MARGARINE	868	n/a	n/a	0	n/a	0	0	0	0.422607421875	0.5869140625	0	lower	amplitud.ttf
1738318	WORD	wordpools/wasnorm_wordpool.txt	LTP143	ltpFR	13	8	1	BUTTER	205	n/a	n/a	0	n/a	0	0	0	0.422607421875	0.5869140625	0	lower	amplitud.ttf
1742155	WORD	wordpools/wasnorm_wordpool.txt	LTP143	ltpFR	13	8	1	GULL	671	n/a	n/a	1	n/a	0	0	0	0.422607421875	0.5869140625	0	lower	amplitud.ttf
1746250	WORD	wordpools/wasnorm_wordpool.txt	LTP143	ltpFR	13	8	1	FLY	586	n/a	n/a	1	n/a	0	0	0	0.422607421875	0.5869140625	0	lower	amplitud.ttf
1750087	WORD	wordpools/wasnorm_wordpool.txt	LTP143	ltpFR	13	8	1	FOREHEAD	592	n/a	n/a	1	n/a	0	0	0	0.422607421875	0.5869140625	0	lower	amplitud.ttf
1753991	WORD	wordpools/wasnorm_wordpool.txt	LTP143	ltpFR	13	8	1	ARROW	40	n/a	n/a	1	n/a	0	0	0	0.422607421875	0.5869140625	0	lower	amplitud.ttf
1758036	WORD	wordpools/wasnorm_wordpool.txt	LTP143	ltpFR	13	8	1	SAGE	1222	n/a	n/a	0	n/a	0	0	0	0.422607421875	0.5869140625	0	lower	amplitud.ttf
1762015	WORD	wordpools/wasnorm_wordpool.txt	LTP143	ltpFR	13	8	1	MERMAID	887	n/a	n/a	1	n/a	0	0	0	0.422607421875	0.5869140625	0	lower	amplitud.ttf
1766177	WORD	wordpools/wasnorm_wordpool.txt	LTP143	ltpFR	13	8	1	HEADBAND	696	n/a	n/a	0	n/a	0	0	0	0.422607421875	0.5869140625	0	lower	amplitud.ttf
1769182	START	n/a	LTP143	ltpFR	13	n/a	n/a	n/a	n/a	n/a	n/a	n/a	n/a	n/a	n/a	n/a	n/a	n/a	n/a	n/a	n/a
1770347	PROB	n/a	LTP143	ltpFR	13	n/a	n/a	n/a	n/a	n/a	n/a	n/a	12	9	1	2	n/a	n/a	n/a	n/a	n/a
1772278	PROB	n/a	LTP143	ltpFR	13	n/a	n/a	n/a	n/a	n/a	n/a	n/a	11	6	4	1	n/a	n/a	n/a	n/a	n/a
1773542	PROB	n/a	LTP143	ltpFR	13	n/a	n/a	n/a	n/a	n/a	n/a	n/a	13	6	2	5	n/a	n/a	n/a	n/a	n/a
1776378	STOP	n/a	LTP143	ltpFR	13	n/a	n/a	n/a	n/a	n/a	n/a	n/a	n/a	n/a	n/a	n/a	n/a	n/a	n/a	n/a	n/a
1778938	REC_START	n/a	LTP143	ltpFR	13	8	n/a	n/a	n/a	n/a	n/a	n/a	n/a	0	0	0	n/a	n/a	n/a	n/a	n/a
1779357	REC_WORD	wordpools/wasnorm_wordpool.txt	LTP143	ltpFR	13	8	1	MERMAID	887	n/a	n/a	1	n/a	0	0	0	n/a	n/a	n/a	n/a	n/a
1780654	REC_WORD	wordpools/wasnorm_wordpool.txt	LTP143	ltpFR	13	8	1	HEADBAND	696	n/a	n/a	0	n/a	0	0	0	n/a	n/a	n/a	n/a	n/a
1781711	REC_WORD	wordpools/wasnorm_wordpool.txt	LTP143	ltpFR	13	8	1	SAGE	1222	n/a	n/a	0	n/a	0	0	0	n/a	n/a	n/a	n/a	n/a
1786525	REC_WORD	wordpools/wasnorm_wordpool.txt	LTP143	ltpFR	13	8	1	REEF	1177	n/a	n/a	1	n/a	0	0	0	n/a	n/a	n/a	n/a	n/a
1789259	REC_WORD	wordpools/wasnorm_wordpool.txt	LTP143	ltpFR	13	8	1	FLY	586	n/a	n/a	1	n/a	0	0	0	n/a	n/a	n/a	n/a	n/a
1793834	REC_WORD	wordpools/wasnorm_wordpool.txt	LTP143	ltpFR	13	8	1	TAVERN	1437	n/a	n/a	0	n/a	0	0	0	n/a	n/a	n/a	n/a	n/a
1807019	REC_WORD	wordpools/wasnorm_wordpool.txt	LTP143	ltpFR	13	8	1	FOREHEAD	592	n/a	n/a	1	n/a	0	0	0	n/a	n/a	n/a	n/a	n/a
1816038	REC_WORD	wordpools/wasnorm_wordpool.txt	LTP143	ltpFR	13	8	1	GULL	671	n/a	n/a	1	n/a	0	0	0	n/a	n/a	n/a	n/a	n/a
1820358	REC_WORD	wordpools/wasnorm_wordpool.txt	LTP143	ltpFR	13	8	1	SEAFOOD	1260	n/a	n/a	1	n/a	0	0	0	n/a	n/a	n/a	n/a	n/a
1868750	START	n/a	LTP143	ltpFR	13	n/a	n/a	n/a	n/a	n/a	n/a	n/a	n/a	n/a	n/a	n/a	n/a	n/a	n/a	n/a	n/a
1870256	PROB	n/a	LTP143	ltpFR	13	n/a	n/a	n/a	n/a	n/a	n/a	n/a	6	3	1	2	n/a	n/a	n/a	n/a	n/a
1872138	PROB	n/a	LTP143	ltpFR	13	n/a	n/a	n/a	n/a	n/a	n/a	n/a	11	4	4	3	n/a	n/a	n/a	n/a	n/a
1873894	PROB	n/a	LTP143	ltpFR	13	n/a	n/a	n/a	n/a	n/a	n/a	n/a	19	9	9	1	n/a	n/a	n/a	n/a	n/a
1875674	STOP	n/a	LTP143	ltpFR	13	n/a	n/a	n/a	n/a	n/a	n/a	n/a	n/a	n/a	n/a	n/a	n/a	n/a	n/a	n/a	n/a
1877673	WORD	wordpools/wasnorm_wordpool.txt	LTP143	ltpFR	13	9	0	PAW	1029	n/a	n/a	1	n/a	0	0	0	0.57763671875	0.412841796875	1	upper	zerothre.ttf
1880678	START	n/a	LTP143	ltpFR	13	n/a	n/a	n/a	n/a	n/a	n/a	n/a	n/a	n/a	n/a	n/a	n/a	n/a	n/a	n/a	n/a
1881785	PROB	n/a	LTP143	ltpFR	13	n/a	n/a	n/a	n/a	n/a	n/a	n/a	10	3	5	2	n/a	n/a	n/a	n/a	n/a
1883899	PROB	n/a	LTP143	ltpFR	13	n/a	n/a	n/a	n/a	n/a	n/a	n/a	8	1	4	3	n/a	n/a	n/a	n/a	n/a
1885813	PROB	n/a	LTP143	ltpFR	13	n/a	n/a	n/a	n/a	n/a	n/a	n/a	18	2	9	7	n/a	n/a	n/a	n/a	n/a
1888322	STOP	n/a	LTP143	ltpFR	13	n/a	n/a	n/a	n/a	n/a	n/a	n/a	n/a	n/a	n/a	n/a	n/a	n/a	n/a	n/a	n/a
1889651	WORD	wordpools/wasnorm_wordpool.txt	LTP143	ltpFR	13	9	0	CARRIAGE	248	n/a	n/a	1	n/a	0	0	0	0.57763671875	0.412841796875	1	upper	zerothre.ttf
1892656	START	n/a	LTP143	ltpFR	13	n/a	n/a	n/a	n/a	n/a	n/a	n/a	n/a	n/a	n/a	n/a	n/a	n/a	n/a	n/a	n/a
1893771	PROB	n/a	LTP143	ltpFR	13	n/a	n/a	n/a	n/a	n/a	n/a	n/a	21	6	8	7	n/a	n/a	n/a	n/a	n/a
1896426	PROB	n/a	LTP143	ltpFR	13	n/a	n/a	n/a	n/a	n/a	n/a	n/a	19	9	1	9	n/a	n/a	n/a	n/a	n/a
1900656	STOP	n/a	LTP143	ltpFR	13	n/a	n/a	n/a	n/a	n/a	n/a	n/a	n/a	n/a	n/a	n/a	n/a	n/a	n/a	n/a	n/a
1901795	WORD	wordpools/wasnorm_wordpool.txt	LTP143	ltpFR	13	9	0	FLORIDA	582	n/a	n/a	1	n/a	0	0	0	0.57763671875	0.412841796875	1	upper	zerothre.ttf
1904800	START	n/a	LTP143	ltpFR	13	n/a	n/a	n/a	n/a	n/a	n/a	n/a	n/a	n/a	n/a	n/a	n/a	n/a	n/a	n/a	n/a
1905799	PROB	n/a	LTP143	ltpFR	13	n/a	n/a	n/a	n/a	n/a	n/a	n/a	13	2	9	2	n/a	n/a	n/a	n/a	n/a
1908137	PROB	n/a	LTP143	ltpFR	13	n/a	n/a	n/a	n/a	n/a	n/a	n/a	20	9	9	2	n/a	n/a	n/a	n/a	n/a
1912800	STOP	n/a	LTP143	ltpFR	13	n/a	n/a	n/a	n/a	n/a	n/a	n/a	n/a	n/a	n/a	n/a	n/a	n/a	n/a	n/a	n/a
1913939	WORD	wordpools/wasnorm_wordpool.txt	LTP143	ltpFR	13	9	0	PONY	1102	n/a	n/a	1	n/a	0	0	0	0.57763671875	0.412841796875	1	upper	zerothre.ttf
1916944	START	n/a	LTP143	ltpFR	13	n/a	n/a	n/a	n/a	n/a	n/a	n/a	n/a	n/a	n/a	n/a	n/a	n/a	n/a	n/a	n/a
1918084	PROB	n/a	LTP143	ltpFR	13	n/a	n/a	n/a	n/a	n/a	n/a	n/a	8	2	5	1	n/a	n/a	n/a	n/a	n/a
1922388	PROB	n/a	LTP143	ltpFR	13	n/a	n/a	n/a	n/a	n/a	n/a	n/a	15	3	4	8	n/a	n/a	n/a	n/a	n/a
1924481	STOP	n/a	LTP143	ltpFR	13	n/a	n/a	n/a	n/a	n/a	n/a	n/a	n/a	n/a	n/a	n/a	n/a	n/a	n/a	n/a	n/a
1926050	WORD	wordpools/wasnorm_wordpool.txt	LTP143	ltpFR	13	9	0	WELL	1600	n/a	n/a	1	n/a	0	0	0	0.57763671875	0.412841796875	1	upper	zerothre.ttf
1929055	START	n/a	LTP143	ltpFR	13	n/a	n/a	n/a	n/a	n/a	n/a	n/a	n/a	n/a	n/a	n/a	n/a	n/a	n/a	n/a	n/a
1930095	PROB	n/a	LTP143	ltpFR	13	n/a	n/a	n/a	n/a	n/a	n/a	n/a	25	8	9	8	n/a	n/a	n/a	n/a	n/a
1934523	PROB	n/a	LTP143	ltpFR	13	n/a	n/a	n/a	n/a	n/a	n/a	n/a	13	6	2	5	n/a	n/a	n/a	n/a	n/a
1936738	STOP	n/a	LTP143	ltpFR	13	n/a	n/a	n/a	n/a	n/a	n/a	n/a	n/a	n/a	n/a	n/a	n/a	n/a	n/a	n/a	n/a
1938211	WORD	wordpools/wasnorm_wordpool.txt	LTP143	ltpFR	13	9	1	VIOLIN	1571	n/a	n/a	0	n/a	0	0	0	0.422607421875	0.5869140625	0	lower	amplitud.ttf
1941216	START	n/a	LTP143	ltpFR	13	n/a	n/a	n/a	n/a	n/a	n/a	n/a	n/a	n/a	n/a	n/a	n/a	n/a	n/a	n/a	n/a
1942414	PROB	n/a	LTP143	ltpFR	13	n/a	n/a	n/a	n/a	n/a	n/a	n/a	14	8	5	1	n/a	n/a	n/a	n/a	n/a
1944454	PROB	n/a	LTP143	ltpFR	13	n/a	n/a	n/a	n/a	n/a	n/a	n/a	17	3	8	6	n/a	n/a	n/a	n/a	n/a
1949216	STOP	n/a	LTP143	ltpFR	13	n/a	n/a	n/a	n/a	n/a	n/a	n/a	n/a	n/a	n/a	n/a	n/a	n/a	n/a	n/a	n/a
1950289	WORD	wordpools/wasnorm_wordpool.txt	LTP143	ltpFR	13	9	1	CELLO	268	n/a	n/a	0	n/a	0	0	0	0.422607421875	0.5869140625	0	lower	amplitud.ttf
1953294	START	n/a	LTP143	ltpFR	13	n/a	n/a	n/a	n/a	n/a	n/a	n/a	n/a	n/a	n/a	n/a	n/a	n/a	n/a	n/a	n/a
1954151	PROB	n/a	LTP143	ltpFR	13	n/a	n/a	n/a	n/a	n/a	n/a	n/a	9	5	3	1	n/a	n/a	n/a	n/a	n/a
1961293	STOP	n/a	LTP143	ltpFR	13	n/a	n/a	n/a	n/a	n/a	n/a	n/a	n/a	n/a	n/a	n/a	n/a	n/a	n/a	n/a	n/a
1962482	WORD	wordpools/wasnorm_wordpool.txt	LTP143	ltpFR	13	9	1	GOVERNOR	651	n/a	n/a	1	n/a	0	0	0	0.422607421875	0.5869140625	0	lower	amplitud.ttf
1965487	START	n/a	LTP143	ltpFR	13	n/a	n/a	n/a	n/a	n/a	n/a	n/a	n/a	n/a	n/a	n/a	n/a	n/a	n/a	n/a	n/a
1966519	PROB	n/a	LTP143	ltpFR	13	n/a	n/a	n/a	n/a	n/a	n/a	n/a	18	6	3	9	n/a	n/a	n/a	n/a	n/a
1969134	PROB	n/a	LTP143	ltpFR	13	n/a	n/a	n/a	n/a	n/a	n/a	n/a	16	9	4	3	n/a	n/a	n/a	n/a	n/a
1973487	STOP	n/a	LTP143	ltpFR	13	n/a	n/a	n/a	n/a	n/a	n/a	n/a	n/a	n/a	n/a	n/a	n/a	n/a	n/a	n/a	n/a
1974452	WORD	wordpools/wasnorm_wordpool.txt	LTP143	ltpFR	13	9	1	CHECKERS	285	n/a	n/a	0	n/a	0	0	0	0.422607421875	0.5869140625	0	lower	amplitud.ttf
1977458	START	n/a	LTP143	ltpFR	13	n/a	n/a	n/a	n/a	n/a	n/a	n/a	n/a	n/a	n/a	n/a	n/a	n/a	n/a	n/a	n/a
1978497	PROB	n/a	LTP143	ltpFR	13	n/a	n/a	n/a	n/a	n/a	n/a	n/a	7	3	1	3	n/a	n/a	n/a	n/a	n/a
1980337	PROB	n/a	LTP143	ltpFR	13	n/a	n/a	n/a	n/a	n/a	n/a	n/a	7	5	1	1	n/a	n/a	n/a	n/a	n/a
1981844	PROB	n/a	LTP143	ltpFR	13	n/a	n/a	n/a	n/a	n/a	n/a	n/a	11	5	5	1	n/a	n/a	n/a	n/a	n/a
1983508	PROB	n/a	LTP143	ltpFR	13	n/a	n/a	n/a	n/a	n/a	n/a	n/a	12	3	2	7	n/a	n/a	n/a	n/a	n/a
1985034	STOP	n/a	LTP143	ltpFR	13	n/a	n/a	n/a	n/a	n/a	n/a	n/a	n/a	n/a	n/a	n/a	n/a	n/a	n/a	n/a	n/a
1986322	WORD	wordpools/wasnorm_wordpool.txt	LTP143	ltpFR	13	9	0	VET	1560	n/a	n/a	1	n/a	0	0	0	0.57763671875	0.412841796875	1	upper	zerothre.ttf
1989327	START	n/a	LTP143	ltpFR	13	n/a	n/a	n/a	n/a	n/a	n/a	n/a	n/a	n/a	n/a	n/a	n/a	n/a	n/a	n/a	n/a
1990284	PROB	n/a	LTP143	ltpFR	13	n/a	n/a	n/a	n/a	n/a	n/a	n/a	16	9	4	3	n/a	n/a	n/a	n/a	n/a
1995053	PROB	n/a	LTP143	ltpFR	13	n/a	n/a	n/a	n/a	n/a	n/a	n/a	13	7	3	3	n/a	n/a	n/a	n/a	n/a
1996730	STOP	n/a	LTP143	ltpFR	13	n/a	n/a	n/a	n/a	n/a	n/a	n/a	n/a	n/a	n/a	n/a	n/a	n/a	n/a	n/a	n/a
1998150	WORD	wordpools/wasnorm_wordpool.txt	LTP143	ltpFR	13	9	0	TECHNICIAN	1443	n/a	n/a	1	n/a	0	0	0	0.57763671875	0.412841796875	1	upper	zerothre.ttf
2001155	START	n/a	LTP143	ltpFR	13	n/a	n/a	n/a	n/a	n/a	n/a	n/a	n/a	n/a	n/a	n/a	n/a	n/a	n/a	n/a	n/a
2002229	PROB	n/a	LTP143	ltpFR	13	n/a	n/a	n/a	n/a	n/a	n/a	n/a	16	2	6	8	n/a	n/a	n/a	n/a	n/a
2004068	PROB	n/a	LTP143	ltpFR	13	n/a	n/a	n/a	n/a	n/a	n/a	n/a	13	1	4	8	n/a	n/a	n/a	n/a	n/a
2006224	PROB	n/a	LTP143	ltpFR	13	n/a	n/a	n/a	n/a	n/a	n/a	n/a	15	2	5	8	n/a	n/a	n/a	n/a	n/a
2008178	STOP	n/a	LTP143	ltpFR	13	n/a	n/a	n/a	n/a	n/a	n/a	n/a	n/a	n/a	n/a	n/a	n/a	n/a	n/a	n/a	n/a
2010244	WORD	wordpools/wasnorm_wordpool.txt	LTP143	ltpFR	13	9	0	HAMMER	680	n/a	n/a	0	n/a	0	0	0	0.57763671875	0.412841796875	1	upper	zerothre.ttf
2013250	START	n/a	LTP143	ltpFR	13	n/a	n/a	n/a	n/a	n/a	n/a	n/a	n/a	n/a	n/a	n/a	n/a	n/a	n/a	n/a	n/a
2014223	PROB	n/a	LTP143	ltpFR	13	n/a	n/a	n/a	n/a	n/a	n/a	n/a	13	7	3	3	n/a	n/a	n/a	n/a	n/a
2015779	PROB	n/a	LTP143	ltpFR	13	n/a	n/a	n/a	n/a	n/a	n/a	n/a	11	3	3	5	n/a	n/a	n/a	n/a	n/a
2018160	PROB	n/a	LTP143	ltpFR	13	n/a	n/a	n/a	n/a	n/a	n/a	n/a	21	9	9	3	n/a	n/a	n/a	n/a	n/a
2020346	STOP	n/a	LTP143	ltpFR	13	n/a	n/a	n/a	n/a	n/a	n/a	n/a	n/a	n/a	n/a	n/a	n/a	n/a	n/a	n/a	n/a
2022247	WORD	wordpools/wasnorm_wordpool.txt	LTP143	ltpFR	13	9	1	HERD	705	n/a	n/a	1	n/a	0	0	0	0.422607421875	0.5869140625	0	lower	amplitud.ttf
2025252	START	n/a	LTP143	ltpFR	13	n/a	n/a	n/a	n/a	n/a	n/a	n/a	n/a	n/a	n/a	n/a	n/a	n/a	n/a	n/a	n/a
2026176	PROB	n/a	LTP143	ltpFR	13	n/a	n/a	n/a	n/a	n/a	n/a	n/a	18	8	1	9	n/a	n/a	n/a	n/a	n/a
2027649	PROB	n/a	LTP143	ltpFR	13	n/a	n/a	n/a	n/a	n/a	n/a	n/a	13	4	6	3	n/a	n/a	n/a	n/a	n/a
2029546	PROB	n/a	LTP143	ltpFR	13	n/a	n/a	n/a	n/a	n/a	n/a	n/a	17	1	9	7	n/a	n/a	n/a	n/a	n/a
2031303	PROB	n/a	LTP143	ltpFR	13	n/a	n/a	n/a	n/a	n/a	n/a	n/a	14	8	2	4	n/a	n/a	n/a	n/a	n/a
2032962	STOP	n/a	LTP143	ltpFR	13	n/a	n/a	n/a	n/a	n/a	n/a	n/a	n/a	n/a	n/a	n/a	n/a	n/a	n/a	n/a	n/a
2034300	WORD	wordpools/wasnorm_wordpool.txt	LTP143	ltpFR	13	9	1	BEEF	113	n/a	n/a	1	n/a	0	0	0	0.422607421875	0.5869140625	0	lower	amplitud.ttf
2037305	START	n/a	LTP143	ltpFR	13	n/a	n/a	n/a	n/a	n/a	n/a	n/a	n/a	n/a	n/a	n/a	n/a	n/a	n/a	n/a	n/a
2038312	PROB	n/a	LTP143	ltpFR	13	n/a	n/a	n/a	n/a	n/a	n/a	n/a	11	4	2	5	n/a	n/a	n/a	n/a	n/a
2045305	STOP	n/a	LTP143	ltpFR	13	n/a	n/a	n/a	n/a	n/a	n/a	n/a	n/a	n/a	n/a	n/a	n/a	n/a	n/a	n/a	n/a
2046244	WORD	wordpools/wasnorm_wordpool.txt	LTP143	ltpFR	13	9	1	JELLO	754	n/a	n/a	0	n/a	0	0	0	0.422607421875	0.5869140625	0	lower	amplitud.ttf
2049249	START	n/a	LTP143	ltpFR	13	n/a	n/a	n/a	n/a	n/a	n/a	n/a	n/a	n/a	n/a	n/a	n/a	n/a	n/a	n/a	n/a
2050148	PROB	n/a	LTP143	ltpFR	13	n/a	n/a	n/a	n/a	n/a	n/a	n/a	15	5	8	2	n/a	n/a	n/a	n/a	n/a
2051545	PROB	n/a	LTP143	ltpFR	13	n/a	n/a	n/a	n/a	n/a	n/a	n/a	10	4	2	4	n/a	n/a	n/a	n/a	n/a
2053253	PROB	n/a	LTP143	ltpFR	13	n/a	n/a	n/a	n/a	n/a	n/a	n/a	16	1	6	9	n/a	n/a	n/a	n/a	n/a
2057249	STOP	n/a	LTP143	ltpFR	13	n/a	n/a	n/a	n/a	n/a	n/a	n/a	n/a	n/a	n/a	n/a	n/a	n/a	n/a	n/a	n/a
2058155	WORD	wordpools/wasnorm_wordpool.txt	LTP143	ltpFR	13	9	1	DOLL	481	n/a	n/a	0	n/a	0	0	0	0.422607421875	0.5869140625	0	lower	amplitud.ttf
2061160	START	n/a	LTP143	ltpFR	13	n/a	n/a	n/a	n/a	n/a	n/a	n/a	n/a	n/a	n/a	n/a	n/a	n/a	n/a	n/a	n/a
2062134	PROB	n/a	LTP143	ltpFR	13	n/a	n/a	n/a	n/a	n/a	n/a	n/a	10	1	8	1	n/a	n/a	n/a	n/a	n/a
2063624	PROB	n/a	LTP143	ltpFR	13	n/a	n/a	n/a	n/a	n/a	n/a	n/a	16	5	9	2	n/a	n/a	n/a	n/a	n/a
2065496	PROB	n/a	LTP143	ltpFR	13	n/a	n/a	n/a	n/a	n/a	n/a	n/a	6	1	2	3	n/a	n/a	n/a	n/a	n/a
2069160	STOP	n/a	LTP143	ltpFR	13	n/a	n/a	n/a	n/a	n/a	n/a	n/a	n/a	n/a	n/a	n/a	n/a	n/a	n/a	n/a	n/a
2070908	REC_START	n/a	LTP143	ltpFR	13	9	n/a	n/a	n/a	n/a	n/a	n/a	n/a	0	0	0	n/a	n/a	n/a	n/a	n/a
2071816	REC_WORD	wordpools/wasnorm_wordpool.txt	LTP143	ltpFR	13	9	1	DOLL	481	n/a	n/a	0	n/a	0	0	0	n/a	n/a	n/a	n/a	n/a
2073217	REC_WORD	wordpools/wasnorm_wordpool.txt	LTP143	ltpFR	13	9	0	CARRIAGE	248	n/a	n/a	1	n/a	0	0	0	n/a	n/a	n/a	n/a	n/a
2074494	REC_WORD	wordpools/wasnorm_wordpool.txt	LTP143	ltpFR	13	9	0	PONY	1102	n/a	n/a	1	n/a	0	0	0	n/a	n/a	n/a	n/a	n/a
2075895	REC_WORD	wordpools/wasnorm_wordpool.txt	LTP143	ltpFR	13	9	0	TECHNICIAN	1443	n/a	n/a	1	n/a	0	0	0	n/a	n/a	n/a	n/a	n/a
2081928	REC_WORD	wordpools/wasnorm_wordpool.txt	LTP143	ltpFR	13	9	0	WELL	1600	n/a	n/a	1	n/a	0	0	0	n/a	n/a	n/a	n/a	n/a
2112523	REC_WORD	wordpools/wasnorm_wordpool.txt	LTP143	ltpFR	13	9	1	VIOLIN	1571	n/a	n/a	0	n/a	0	0	0	n/a	n/a	n/a	n/a	n/a
2113656	REC_WORD	wordpools/wasnorm_wordpool.txt	LTP143	ltpFR	13	9	1	CELLO	268	n/a	n/a	0	n/a	0	0	0	n/a	n/a	n/a	n/a	n/a
2119193	REC_WORD	wordpools/wasnorm_wordpool.txt	LTP143	ltpFR	13	9	1	DOLL	481	n/a	n/a	0	n/a	0	0	0	n/a	n/a	n/a	n/a	n/a
2131559	REC_WORD	wordpools/wasnorm_wordpool.txt	LTP143	ltpFR	13	9	1	GOVERNOR	651	n/a	n/a	1	n/a	0	0	0	n/a	n/a	n/a	n/a	n/a
2135456	REC_WORD	wordpools/wasnorm_wordpool.txt	LTP143	ltpFR	13	9	0	FLORIDA	582	n/a	n/a	1	n/a	0	0	0	n/a	n/a	n/a	n/a	n/a
2158698	START	n/a	LTP143	ltpFR	13	n/a	n/a	n/a	n/a	n/a	n/a	n/a	n/a	n/a	n/a	n/a	n/a	n/a	n/a	n/a	n/a
2160204	PROB	n/a	LTP143	ltpFR	13	n/a	n/a	n/a	n/a	n/a	n/a	n/a	14	3	2	9	n/a	n/a	n/a	n/a	n/a
2162550	PROB	n/a	LTP143	ltpFR	13	n/a	n/a	n/a	n/a	n/a	n/a	n/a	9	4	1	4	n/a	n/a	n/a	n/a	n/a
2164133	PROB	n/a	LTP143	ltpFR	13	n/a	n/a	n/a	n/a	n/a	n/a	n/a	25	8	9	8	n/a	n/a	n/a	n/a	n/a
2168902	PROB	n/a	LTP143	ltpFR	13	n/a	n/a	n/a	n/a	n/a	n/a	n/a	20	4	9	7	n/a	n/a	n/a	n/a	n/a
2174698	STOP	n/a	LTP143	ltpFR	13	n/a	n/a	n/a	n/a	n/a	n/a	n/a	n/a	n/a	n/a	n/a	n/a	n/a	n/a	n/a	n/a
2175543	WORD	wordpools/wasnorm_wordpool.txt	LTP143	ltpFR	13	10	0	FIREPLACE	570	n/a	n/a	1	n/a	0	0	0	0.57763671875	0.412841796875	1	upper	zerothre.ttf
2178549	START	n/a	LTP143	ltpFR	13	n/a	n/a	n/a	n/a	n/a	n/a	n/a	n/a	n/a	n/a	n/a	n/a	n/a	n/a	n/a	n/a
2179656	PROB	n/a	LTP143	ltpFR	13	n/a	n/a	n/a	n/a	n/a	n/a	n/a	9	6	1	2	n/a	n/a	n/a	n/a	n/a
2181528	PROB	n/a	LTP143	ltpFR	13	n/a	n/a	n/a	n/a	n/a	n/a	n/a	15	2	4	9	n/a	n/a	n/a	n/a	n/a
2183394	PROB	n/a	LTP143	ltpFR	13	n/a	n/a	n/a	n/a	n/a	n/a	n/a	19	3	8	8	n/a	n/a	n/a	n/a	n/a
2185275	PROB	n/a	LTP143	ltpFR	13	n/a	n/a	n/a	n/a	n/a	n/a	n/a	17	9	3	5	n/a	n/a	n/a	n/a	n/a
2188379	PROB	n/a	LTP143	ltpFR	13	n/a	n/a	n/a	n/a	n/a	n/a	n/a	11	1	8	2	n/a	n/a	n/a	n/a	n/a
2190468	PROB	n/a	LTP143	ltpFR	13	n/a	n/a	n/a	n/a	n/a	n/a	n/a	8	3	4	1	n/a	n/a	n/a	n/a	n/a
2192600	PROB	n/a	LTP143	ltpFR	13	n/a	n/a	n/a	n/a	n/a	n/a	n/a	17	9	1	7	n/a	n/a	n/a	n/a	n/a
2194210	STOP	n/a	LTP143	ltpFR	13	n/a	n/a	n/a	n/a	n/a	n/a	n/a	n/a	n/a	n/a	n/a	n/a	n/a	n/a	n/a	n/a
2195604	WORD	wordpools/wasnorm_wordpool.txt	LTP143	ltpFR	13	10	0	CRUMB	416	n/a	n/a	0	n/a	0	0	0	0.57763671875	0.412841796875	1	upper	zerothre.ttf
2198610	START	n/a	LTP143	ltpFR	13	n/a	n/a	n/a	n/a	n/a	n/a	n/a	n/a	n/a	n/a	n/a	n/a	n/a	n/a	n/a	n/a
2199507	PROB	n/a	LTP143	ltpFR	13	n/a	n/a	n/a	n/a	n/a	n/a	n/a	18	6	9	3	n/a	n/a	n/a	n/a	n/a
2201664	PROB	n/a	LTP143	ltpFR	13	n/a	n/a	n/a	n/a	n/a	n/a	n/a	10	7	1	2	n/a	n/a	n/a	n/a	n/a
2203420	PROB	n/a	LTP143	ltpFR	13	n/a	n/a	n/a	n/a	n/a	n/a	n/a	18	8	8	2	n/a	n/a	n/a	n/a	n/a
2205401	PROB	n/a	LTP143	ltpFR	13	n/a	n/a	n/a	n/a	n/a	n/a	n/a	12	1	7	4	n/a	n/a	n/a	n/a	n/a
2207824	PROB	n/a	LTP143	ltpFR	13	n/a	n/a	n/a	n/a	n/a	n/a	n/a	11	7	3	1	n/a	n/a	n/a	n/a	n/a
2209130	PROB	n/a	LTP143	ltpFR	13	n/a	n/a	n/a	n/a	n/a	n/a	n/a	16	2	7	7	n/a	n/a	n/a	n/a	n/a
2210845	PROB	n/a	LTP143	ltpFR	13	n/a	n/a	n/a	n/a	n/a	n/a	n/a	23	8	6	9	n/a	n/a	n/a	n/a	n/a
2213866	STOP	n/a	LTP143	ltpFR	13	n/a	n/a	n/a	n/a	n/a	n/a	n/a	n/a	n/a	n/a	n/a	n/a	n/a	n/a	n/a	n/a
2215598	WORD	wordpools/wasnorm_wordpool.txt	LTP143	ltpFR	13	10	0	HAM	678	n/a	n/a	1	n/a	0	0	0	0.57763671875	0.412841796875	1	upper	zerothre.ttf
2218603	START	n/a	LTP143	ltpFR	13	n/a	n/a	n/a	n/a	n/a	n/a	n/a	n/a	n/a	n/a	n/a	n/a	n/a	n/a	n/a	n/a
2219585	PROB	n/a	LTP143	ltpFR	13	n/a	n/a	n/a	n/a	n/a	n/a	n/a	16	2	9	5	n/a	n/a	n/a	n/a	n/a
2222157	PROB	n/a	LTP143	ltpFR	13	n/a	n/a	n/a	n/a	n/a	n/a	n/a	16	8	4	4	n/a	n/a	n/a	n/a	n/a
2225527	PROB	n/a	LTP143	ltpFR	13	n/a	n/a	n/a	n/a	n/a	n/a	n/a	14	9	1	4	n/a	n/a	n/a	n/a	n/a
2226976	PROB	n/a	LTP143	ltpFR	13	n/a	n/a	n/a	n/a	n/a	n/a	n/a	15	1	4	9	n/a	n/a	n/a	n/a	n/a
2228699	PROB	n/a	LTP143	ltpFR	13	n/a	n/a	n/a	n/a	n/a	n/a	n/a	18	6	8	4	n/a	n/a	n/a	n/a	n/a
2234603	STOP	n/a	LTP143	ltpFR	13	n/a	n/a	n/a	n/a	n/a	n/a	n/a	n/a	n/a	n/a	n/a	n/a	n/a	n/a	n/a	n/a
2235433	WORD	wordpools/wasnorm_wordpool.txt	LTP143	ltpFR	13	10	0	COTTAGE	384	n/a	n/a	1	n/a	0	0	0	0.57763671875	0.412841796875	1	upper	zerothre.ttf
2238439	START	n/a	LTP143	ltpFR	13	n/a	n/a	n/a	n/a	n/a	n/a	n/a	n/a	n/a	n/a	n/a	n/a	n/a	n/a	n/a	n/a
2239404	PROB	n/a	LTP143	ltpFR	13	n/a	n/a	n/a	n/a	n/a	n/a	n/a	17	5	6	6	n/a	n/a	n/a	n/a	n/a
2242841	PROB	n/a	LTP143	ltpFR	13	n/a	n/a	n/a	n/a	n/a	n/a	n/a	19	9	8	2	n/a	n/a	n/a	n/a	n/a
2244431	PROB	n/a	LTP143	ltpFR	13	n/a	n/a	n/a	n/a	n/a	n/a	n/a	6	2	1	3	n/a	n/a	n/a	n/a	n/a
2246446	PROB	n/a	LTP143	ltpFR	13	n/a	n/a	n/a	n/a	n/a	n/a	n/a	24	8	8	8	n/a	n/a	n/a	n/a	n/a
2248385	PROB	n/a	LTP143	ltpFR	13	n/a	n/a	n/a	n/a	n/a	n/a	n/a	17	4	9	4	n/a	n/a	n/a	n/a	n/a
2254438	STOP	n/a	LTP143	ltpFR	13	n/a	n/a	n/a	n/a	n/a	n/a	n/a	n/a	n/a	n/a	n/a	n/a	n/a	n/a	n/a	n/a
2255377	WORD	wordpools/wasnorm_wordpool.txt	LTP143	ltpFR	13	10	0	MATCH	878	n/a	n/a	0	n/a	0	0	0	0.57763671875	0.412841796875	1	upper	zerothre.ttf
2258382	START	n/a	LTP143	ltpFR	13	n/a	n/a	n/a	n/a	n/a	n/a	n/a	n/a	n/a	n/a	n/a	n/a	n/a	n/a	n/a	n/a
2259555	PROB	n/a	LTP143	ltpFR	13	n/a	n/a	n/a	n/a	n/a	n/a	n/a	16	1	8	7	n/a	n/a	n/a	n/a	n/a
2261320	PROB	n/a	LTP143	ltpFR	13	n/a	n/a	n/a	n/a	n/a	n/a	n/a	23	8	6	9	n/a	n/a	n/a	n/a	n/a
2265415	PROB	n/a	LTP143	ltpFR	13	n/a	n/a	n/a	n/a	n/a	n/a	n/a	14	5	4	5	n/a	n/a	n/a	n/a	n/a
2266938	PROB	n/a	LTP143	ltpFR	13	n/a	n/a	n/a	n/a	n/a	n/a	n/a	20	8	4	8	n/a	n/a	n/a	n/a	n/a
2269019	PROB	n/a	LTP143	ltpFR	13	n/a	n/a	n/a	n/a	n/a	n/a	n/a	10	3	5	2	n/a	n/a	n/a	n/a	n/a
2271042	PROB	n/a	LTP143	ltpFR	13	n/a	n/a	n/a	n/a	n/a	n/a	n/a	14	2	8	4	n/a	n/a	n/a	n/a	n/a
2273106	STOP	n/a	LTP143	ltpFR	13	n/a	n/a	n/a	n/a	n/a	n/a	n/a	n/a	n/a	n/a	n/a	n/a	n/a	n/a	n/a	n/a
2275254	WORD	wordpools/wasnorm_wordpool.txt	LTP143	ltpFR	13	10	0	DUMP	505	n/a	n/a	1	n/a	0	0	0	0.57763671875	0.412841796875	1	upper	zerothre.ttf
2278259	START	n/a	LTP143	ltpFR	13	n/a	n/a	n/a	n/a	n/a	n/a	n/a	n/a	n/a	n/a	n/a	n/a	n/a	n/a	n/a	n/a
2279166	PROB	n/a	LTP143	ltpFR	13	n/a	n/a	n/a	n/a	n/a	n/a	n/a	14	4	6	4	n/a	n/a	n/a	n/a	n/a
2280864	PROB	n/a	LTP143	ltpFR	13	n/a	n/a	n/a	n/a	n/a	n/a	n/a	15	8	2	5	n/a	n/a	n/a	n/a	n/a
2282845	PROB	n/a	LTP143	ltpFR	13	n/a	n/a	n/a	n/a	n/a	n/a	n/a	12	8	3	1	n/a	n/a	n/a	n/a	n/a
2285051	PROB	n/a	LTP143	ltpFR	13	n/a	n/a	n/a	n/a	n/a	n/a	n/a	19	4	6	9	n/a	n/a	n/a	n/a	n/a
2287157	PROB	n/a	LTP143	ltpFR	13	n/a	n/a	n/a	n/a	n/a	n/a	n/a	18	9	5	4	n/a	n/a	n/a	n/a	n/a
2294259	STOP	n/a	LTP143	ltpFR	13	n/a	n/a	n/a	n/a	n/a	n/a	n/a	n/a	n/a	n/a	n/a	n/a	n/a	n/a	n/a	n/a
2295114	WORD	wordpools/wasnorm_wordpool.txt	LTP143	ltpFR	13	10	0	TERRITORY	1452	n/a	n/a	1	n/a	0	0	0	0.57763671875	0.412841796875	1	upper	zerothre.ttf
2298119	START	n/a	LTP143	ltpFR	13	n/a	n/a	n/a	n/a	n/a	n/a	n/a	n/a	n/a	n/a	n/a	n/a	n/a	n/a	n/a	n/a
2299051	PROB	n/a	LTP143	ltpFR	13	n/a	n/a	n/a	n/a	n/a	n/a	n/a	10	8	1	1	n/a	n/a	n/a	n/a	n/a
2300375	PROB	n/a	LTP143	ltpFR	13	n/a	n/a	n/a	n/a	n/a	n/a	n/a	12	2	9	2	n/a	n/a	n/a	n/a	n/a
2302580	PROB	n/a	LTP143	ltpFR	13	n/a	n/a	n/a	n/a	n/a	n/a	n/a	12	3	6	3	n/a	n/a	n/a	n/a	n/a
2304994	PROB	n/a	LTP143	ltpFR	13	n/a	n/a	n/a	n/a	n/a	n/a	n/a	12	2	8	2	n/a	n/a	n/a	n/a	n/a
2306451	PROB	n/a	LTP143	ltpFR	13	n/a	n/a	n/a	n/a	n/a	n/a	n/a	9	1	4	4	n/a	n/a	n/a	n/a	n/a
2308166	PROB	n/a	LTP143	ltpFR	13	n/a	n/a	n/a	n/a	n/a	n/a	n/a	26	9	8	9	n/a	n/a	n/a	n/a	n/a
2313442	STOP	n/a	LTP143	ltpFR	13	n/a	n/a	n/a	n/a	n/a	n/a	n/a	n/a	n/a	n/a	n/a	n/a	n/a	n/a	n/a	n/a
2315183	WORD	wordpools/wasnorm_wordpool.txt	LTP143	ltpFR	13	10	0	SOLDIER	1344	n/a	n/a	1	n/a	0	0	0	0.57763671875	0.412841796875	1	upper	zerothre.ttf
2318188	START	n/a	LTP143	ltpFR	13	n/a	n/a	n/a	n/a	n/a	n/a	n/a	n/a	n/a	n/a	n/a	n/a	n/a	n/a	n/a	n/a
2319369	PROB	n/a	LTP143	ltpFR	13	n/a	n/a	n/a	n/a	n/a	n/a	n/a	14	7	2	5	n/a	n/a	n/a	n/a	n/a
2321417	PROB	n/a	LTP143	ltpFR	13	n/a	n/a	n/a	n/a	n/a	n/a	n/a	13	6	4	3	n/a	n/a	n/a	n/a	n/a
2323107	PROB	n/a	LTP143	ltpFR	13	n/a	n/a	n/a	n/a	n/a	n/a	n/a	14	8	1	5	n/a	n/a	n/a	n/a	n/a
2326045	PROB	n/a	LTP143	ltpFR	13	n/a	n/a	n/a	n/a	n/a	n/a	n/a	15	7	6	2	n/a	n/a	n/a	n/a	n/a
2328426	PROB	n/a	LTP143	ltpFR	13	n/a	n/a	n/a	n/a	n/a	n/a	n/a	17	4	8	5	n/a	n/a	n/a	n/a	n/a
2334188	STOP	n/a	LTP143	ltpFR	13	n/a	n/a	n/a	n/a	n/a	n/a	n/a	n/a	n/a	n/a	n/a	n/a	n/a	n/a	n/a	n/a
2335051	WORD	wordpools/wasnorm_wordpool.txt	LTP143	ltpFR	13	10	0	GANG	619	n/a	n/a	1	n/a	0	0	0	0.57763671875	0.412841796875	1	upper	zerothre.ttf
2338057	START	n/a	LTP143	ltpFR	13	n/a	n/a	n/a	n/a	n/a	n/a	n/a	n/a	n/a	n/a	n/a	n/a	n/a	n/a	n/a	n/a
2338955	PROB	n/a	LTP143	ltpFR	13	n/a	n/a	n/a	n/a	n/a	n/a	n/a	18	6	3	9	n/a	n/a	n/a	n/a	n/a
2342193	PROB	n/a	LTP143	ltpFR	13	n/a	n/a	n/a	n/a	n/a	n/a	n/a	26	9	7	9	n/a	n/a	n/a	n/a	n/a
2348203	PROB	n/a	LTP143	ltpFR	13	n/a	n/a	n/a	n/a	n/a	n/a	n/a	21	6	8	7	n/a	n/a	n/a	n/a	n/a
2350866	PROB	n/a	LTP143	ltpFR	13	n/a	n/a	n/a	n/a	n/a	n/a	n/a	6	2	1	3	n/a	n/a	n/a	n/a	n/a
2352946	STOP	n/a	LTP143	ltpFR	13	n/a	n/a	n/a	n/a	n/a	n/a	n/a	n/a	n/a	n/a	n/a	n/a	n/a	n/a	n/a	n/a
2354945	WORD	wordpools/wasnorm_wordpool.txt	LTP143	ltpFR	13	10	0	CANDLE	229	n/a	n/a	0	n/a	0	0	0	0.57763671875	0.412841796875	1	upper	zerothre.ttf
2357950	START	n/a	LTP143	ltpFR	13	n/a	n/a	n/a	n/a	n/a	n/a	n/a	n/a	n/a	n/a	n/a	n/a	n/a	n/a	n/a	n/a
2358924	PROB	n/a	LTP143	ltpFR	13	n/a	n/a	n/a	n/a	n/a	n/a	n/a	15	3	8	4	n/a	n/a	n/a	n/a	n/a
2361146	PROB	n/a	LTP143	ltpFR	13	n/a	n/a	n/a	n/a	n/a	n/a	n/a	14	9	2	3	n/a	n/a	n/a	n/a	n/a
2363818	PROB	n/a	LTP143	ltpFR	13	n/a	n/a	n/a	n/a	n/a	n/a	n/a	10	6	2	2	n/a	n/a	n/a	n/a	n/a
2365882	PROB	n/a	LTP143	ltpFR	13	n/a	n/a	n/a	n/a	n/a	n/a	n/a	17	3	6	8	n/a	n/a	n/a	n/a	n/a
2368038	PROB	n/a	LTP143	ltpFR	13	n/a	n/a	n/a	n/a	n/a	n/a	n/a	13	4	6	3	n/a	n/a	n/a	n/a	n/a
2370102	PROB	n/a	LTP143	ltpFR	13	n/a	n/a	n/a	n/a	n/a	n/a	n/a	16	6	3	7	n/a	n/a	n/a	n/a	n/a
2373949	STOP	n/a	LTP143	ltpFR	13	n/a	n/a	n/a	n/a	n/a	n/a	n/a	n/a	n/a	n/a	n/a	n/a	n/a	n/a	n/a	n/a
2374963	WORD	wordpools/wasnorm_wordpool.txt	LTP143	ltpFR	13	10	0	BACKBONE	66	n/a	n/a	1	n/a	0	0	0	0.57763671875	0.412841796875	1	upper	zerothre.ttf
2377969	START	n/a	LTP143	ltpFR	13	n/a	n/a	n/a	n/a	n/a	n/a	n/a	n/a	n/a	n/a	n/a	n/a	n/a	n/a	n/a	n/a
2378909	PROB	n/a	LTP143	ltpFR	13	n/a	n/a	n/a	n/a	n/a	n/a	n/a	12	8	3	1	n/a	n/a	n/a	n/a	n/a
2381023	PROB	n/a	LTP143	ltpFR	13	n/a	n/a	n/a	n/a	n/a	n/a	n/a	20	9	3	8	n/a	n/a	n/a	n/a	n/a
2383494	PROB	n/a	LTP143	ltpFR	13	n/a	n/a	n/a	n/a	n/a	n/a	n/a	14	4	9	1	n/a	n/a	n/a	n/a	n/a
2384943	PROB	n/a	LTP143	ltpFR	13	n/a	n/a	n/a	n/a	n/a	n/a	n/a	9	2	6	1	n/a	n/a	n/a	n/a	n/a
2387024	PROB	n/a	LTP143	ltpFR	13	n/a	n/a	n/a	n/a	n/a	n/a	n/a	13	5	6	2	n/a	n/a	n/a	n/a	n/a
2389671	PROB	n/a	LTP143	ltpFR	13	n/a	n/a	n/a	n/a	n/a	n/a	n/a	21	6	8	7	n/a	n/a	n/a	n/a	n/a
2392077	PROB	n/a	LTP143	ltpFR	13	n/a	n/a	n/a	n/a	n/a	n/a	n/a	11	2	7	2	n/a	n/a	n/a	n/a	n/a
2393778	STOP	n/a	LTP143	ltpFR	13	n/a	n/a	n/a	n/a	n/a	n/a	n/a	n/a	n/a	n/a	n/a	n/a	n/a	n/a	n/a	n/a
2394973	WORD	wordpools/wasnorm_wordpool.txt	LTP143	ltpFR	13	10	0	DINER	467	n/a	n/a	1	n/a	0	0	0	0.57763671875	0.412841796875	1	upper	zerothre.ttf
2397979	START	n/a	LTP143	ltpFR	13	n/a	n/a	n/a	n/a	n/a	n/a	n/a	n/a	n/a	n/a	n/a	n/a	n/a	n/a	n/a	n/a
2399060	PROB	n/a	LTP143	ltpFR	13	n/a	n/a	n/a	n/a	n/a	n/a	n/a	16	4	3	9	n/a	n/a	n/a	n/a	n/a
2401566	PROB	n/a	LTP143	ltpFR	13	n/a	n/a	n/a	n/a	n/a	n/a	n/a	10	2	1	7	n/a	n/a	n/a	n/a	n/a
2403239	PROB	n/a	LTP143	ltpFR	13	n/a	n/a	n/a	n/a	n/a	n/a	n/a	18	5	7	6	n/a	n/a	n/a	n/a	n/a
2406526	PROB	n/a	LTP143	ltpFR	13	n/a	n/a	n/a	n/a	n/a	n/a	n/a	14	4	2	8	n/a	n/a	n/a	n/a	n/a
2407942	PROB	n/a	LTP143	ltpFR	13	n/a	n/a	n/a	n/a	n/a	n/a	n/a	19	6	6	7	n/a	n/a	n/a	n/a	n/a
2412866	STOP	n/a	LTP143	ltpFR	13	n/a	n/a	n/a	n/a	n/a	n/a	n/a	n/a	n/a	n/a	n/a	n/a	n/a	n/a	n/a	n/a
2414992	WORD	wordpools/wasnorm_wordpool.txt	LTP143	ltpFR	13	10	0	MARKET	871	n/a	n/a	1	n/a	0	0	0	0.57763671875	0.412841796875	1	upper	zerothre.ttf
2417997	START	n/a	LTP143	ltpFR	13	n/a	n/a	n/a	n/a	n/a	n/a	n/a	n/a	n/a	n/a	n/a	n/a	n/a	n/a	n/a	n/a
2419112	PROB	n/a	LTP143	ltpFR	13	n/a	n/a	n/a	n/a	n/a	n/a	n/a	13	5	3	5	n/a	n/a	n/a	n/a	n/a
2420777	PROB	n/a	LTP143	ltpFR	13	n/a	n/a	n/a	n/a	n/a	n/a	n/a	16	8	2	6	n/a	n/a	n/a	n/a	n/a
2422292	PROB	n/a	LTP143	ltpFR	13	n/a	n/a	n/a	n/a	n/a	n/a	n/a	5	2	1	2	n/a	n/a	n/a	n/a	n/a
2424115	PROB	n/a	LTP143	ltpFR	13	n/a	n/a	n/a	n/a	n/a	n/a	n/a	13	2	5	6	n/a	n/a	n/a	n/a	n/a
2429184	PROB	n/a	LTP143	ltpFR	13	n/a	n/a	n/a	n/a	n/a	n/a	n/a	10	1	7	2	n/a	n/a	n/a	n/a	n/a
2430898	PROB	n/a	LTP143	ltpFR	13	n/a	n/a	n/a	n/a	n/a	n/a	n/a	17	5	3	9	n/a	n/a	n/a	n/a	n/a
2433138	STOP	n/a	LTP143	ltpFR	13	n/a	n/a	n/a	n/a	n/a	n/a	n/a	n/a	n/a	n/a	n/a	n/a	n/a	n/a	n/a	n/a
2434944	WORD	wordpools/wasnorm_wordpool.txt	LTP143	ltpFR	13	10	0	DETECTIVE	454	n/a	n/a	1	n/a	0	0	0	0.57763671875	0.412841796875	1	upper	zerothre.ttf
2437949	START	n/a	LTP143	ltpFR	13	n/a	n/a	n/a	n/a	n/a	n/a	n/a	n/a	n/a	n/a	n/a	n/a	n/a	n/a	n/a	n/a
2438848	PROB	n/a	LTP143	ltpFR	13	n/a	n/a	n/a	n/a	n/a	n/a	n/a	13	4	4	5	n/a	n/a	n/a	n/a	n/a
2441469	PROB	n/a	LTP143	ltpFR	13	n/a	n/a	n/a	n/a	n/a	n/a	n/a	15	6	3	6	n/a	n/a	n/a	n/a	n/a
2443483	PROB	n/a	LTP143	ltpFR	13	n/a	n/a	n/a	n/a	n/a	n/a	n/a	15	5	3	7	n/a	n/a	n/a	n/a	n/a
2445174	PROB	n/a	LTP143	ltpFR	13	n/a	n/a	n/a	n/a	n/a	n/a	n/a	23	6	9	8	n/a	n/a	n/a	n/a	n/a
2453949	STOP	n/a	LTP143	ltpFR	13	n/a	n/a	n/a	n/a	n/a	n/a	n/a	n/a	n/a	n/a	n/a	n/a	n/a	n/a	n/a	n/a
2455112	WORD	wordpools/wasnorm_wordpool.txt	LTP143	ltpFR	13	10	0	PATROL	1027	n/a	n/a	1	n/a	0	0	0	0.57763671875	0.412841796875	1	upper	zerothre.ttf
2458117	START	n/a	LTP143	ltpFR	13	n/a	n/a	n/a	n/a	n/a	n/a	n/a	n/a	n/a	n/a	n/a	n/a	n/a	n/a	n/a	n/a
2459033	PROB	n/a	LTP143	ltpFR	13	n/a	n/a	n/a	n/a	n/a	n/a	n/a	13	8	3	2	n/a	n/a	n/a	n/a	n/a
2461005	PROB	n/a	LTP143	ltpFR	13	n/a	n/a	n/a	n/a	n/a	n/a	n/a	17	7	6	4	n/a	n/a	n/a	n/a	n/a
2463677	PROB	n/a	LTP143	ltpFR	13	n/a	n/a	n/a	n/a	n/a	n/a	n/a	8	3	1	4	n/a	n/a	n/a	n/a	n/a
2465567	PROB	n/a	LTP143	ltpFR	13	n/a	n/a	n/a	n/a	n/a	n/a	n/a	10	5	3	2	n/a	n/a	n/a	n/a	n/a
2467939	PROB	n/a	LTP143	ltpFR	13	n/a	n/a	n/a	n/a	n/a	n/a	n/a	16	8	4	4	n/a	n/a	n/a	n/a	n/a
2470877	PROB	n/a	LTP143	ltpFR	13	n/a	n/a	n/a	n/a	n/a	n/a	n/a	12	5	1	6	n/a	n/a	n/a	n/a	n/a
2473274	STOP	n/a	LTP143	ltpFR	13	n/a	n/a	n/a	n/a	n/a	n/a	n/a	n/a	n/a	n/a	n/a	n/a	n/a	n/a	n/a	n/a
2474989	WORD	wordpools/wasnorm_wordpool.txt	LTP143	ltpFR	13	10	0	TOASTER	1472	n/a	n/a	0	n/a	0	0	0	0.57763671875	0.412841796875	1	upper	zerothre.ttf
2477994	START	n/a	LTP143	ltpFR	13	n/a	n/a	n/a	n/a	n/a	n/a	n/a	n/a	n/a	n/a	n/a	n/a	n/a	n/a	n/a	n/a
2479101	PROB	n/a	LTP143	ltpFR	13	n/a	n/a	n/a	n/a	n/a	n/a	n/a	20	6	7	7	n/a	n/a	n/a	n/a	n/a
2482580	PROB	n/a	LTP143	ltpFR	13	n/a	n/a	n/a	n/a	n/a	n/a	n/a	21	7	5	9	n/a	n/a	n/a	n/a	n/a
2487375	PROB	n/a	LTP143	ltpFR	13	n/a	n/a	n/a	n/a	n/a	n/a	n/a	11	1	5	5	n/a	n/a	n/a	n/a	n/a
2488923	PROB	n/a	LTP143	ltpFR	13	n/a	n/a	n/a	n/a	n/a	n/a	n/a	13	6	2	5	n/a	n/a	n/a	n/a	n/a
2493993	STOP	n/a	LTP143	ltpFR	13	n/a	n/a	n/a	n/a	n/a	n/a	n/a	n/a	n/a	n/a	n/a	n/a	n/a	n/a	n/a	n/a
2495915	REC_START	n/a	LTP143	ltpFR	13	10	n/a	n/a	n/a	n/a	n/a	n/a	n/a	0	0	0	n/a	n/a	n/a	n/a	n/a
2497501	REC_WORD	wordpools/wasnorm_wordpool.txt	LTP143	ltpFR	13	10	0	TERRITORY	1452	n/a	n/a	1	n/a	0	0	0	n/a	n/a	n/a	n/a	n/a
2500708	REC_WORD	wordpools/wasnorm_wordpool.txt	LTP143	ltpFR	13	10	0	PATROL	1027	n/a	n/a	1	n/a	0	0	0	n/a	n/a	n/a	n/a	n/a
2507833	REC_WORD	wordpools/wasnorm_wordpool.txt	LTP143	ltpFR	13	10	0	DUMP	505	n/a	n/a	1	n/a	0	0	0	n/a	n/a	n/a	n/a	n/a
2561880	REC_WORD	wordpools/wasnorm_wordpool.txt	LTP143	ltpFR	13	10	0	CHURCH	307	n/a	n/a	1	n/a	0	0	0	n/a	n/a	n/a	n/a	n/a
2571493	REST_REWET	n/a	LTP143	ltpFR	13	10	n/a	n/a	n/a	n/a	n/a	n/a	n/a	0	0	0	n/a	n/a	n/a	n/a	n/a
2917127	WORD	wordpools/wasnorm_wordpool.txt	LTP143	ltpFR	13	11	0	HELMET	702	n/a	n/a	1	n/a	0	0	0	0.57763671875	0.412841796875	1	upper	zerothre.ttf
2921247	WORD	wordpools/wasnorm_wordpool.txt	LTP143	ltpFR	13	11	0	BABY	64	n/a	n/a	1	n/a	0	0	0	0.57763671875	0.412841796875	1	upper	zerothre.ttf
2925118	WORD	wordpools/wasnorm_wordpool.txt	LTP143	ltpFR	13	11	0	RAM	1165	n/a	n/a	1	n/a	0	0	0	0.57763671875	0.412841796875	1	upper	zerothre.ttf
2929046	WORD	wordpools/wasnorm_wordpool.txt	LTP143	ltpFR	13	11	0	EDITORIAL	517	n/a	n/a	1	n/a	0	0	0	0.57763671875	0.412841796875	1	upper	zerothre.ttf
2932900	WORD	wordpools/wasnorm_wordpool.txt	LTP143	ltpFR	13	11	0	COUNTRY	388	n/a	n/a	1	n/a	0	0	0	0.57763671875	0.412841796875	1	upper	zerothre.ttf
2937004	WORD	wordpools/wasnorm_wordpool.txt	LTP143	ltpFR	13	11	0	CITIZEN	312	n/a	n/a	1	n/a	0	0	0	0.57763671875	0.412841796875	1	upper	zerothre.ttf
2941007	WORD	wordpools/wasnorm_wordpool.txt	LTP143	ltpFR	13	11	0	NAIL	936	n/a	n/a	0	n/a	0	0	0	0.57763671875	0.412841796875	1	upper	zerothre.ttf
2944936	WORD	wordpools/wasnorm_wordpool.txt	LTP143	ltpFR	13	11	0	WRENCH	1625	n/a	n/a	0	n/a	0	0	0	0.57763671875	0.412841796875	1	upper	zerothre.ttf
2948823	WORD	wordpools/wasnorm_wordpool.txt	LTP143	ltpFR	13	11	0	SHEEP	1278	n/a	n/a	1	n/a	0	0	0	0.57763671875	0.412841796875	1	upper	zerothre.ttf
2952977	WORD	wordpools/wasnorm_wordpool.txt	LTP143	ltpFR	13	11	0	RACK	1154	n/a	n/a	1	n/a	0	0	0	0.57763671875	0.412841796875	1	upper	zerothre.ttf
2956831	WORD	wordpools/wasnorm_wordpool.txt	LTP143	ltpFR	13	11	0	LEOPARD	812	n/a	n/a	1	n/a	0	0	0	0.57763671875	0.412841796875	1	upper	zerothre.ttf
2960893	WORD	wordpools/wasnorm_wordpool.txt	LTP143	ltpFR	13	11	0	SCRIBBLE	1256	n/a	n/a	1	n/a	0	0	0	0.57763671875	0.412841796875	1	upper	zerothre.ttf
2964705	WORD	wordpools/wasnorm_wordpool.txt	LTP143	ltpFR	13	11	0	SHED	1277	n/a	n/a	1	n/a	0	0	0	0.57763671875	0.412841796875	1	upper	zerothre.ttf
2968700	WORD	wordpools/wasnorm_wordpool.txt	LTP143	ltpFR	13	11	0	CRAB	397	n/a	n/a	0	n/a	0	0	0	0.57763671875	0.412841796875	1	upper	zerothre.ttf
2972887	WORD	wordpools/wasnorm_wordpool.txt	LTP143	ltpFR	13	11	0	MAMMAL	861	n/a	n/a	1	n/a	0	0	0	0.57763671875	0.412841796875	1	upper	zerothre.ttf
2976816	WORD	wordpools/wasnorm_wordpool.txt	LTP143	ltpFR	13	11	0	BOTTLE	153	n/a	n/a	0	n/a	0	0	0	0.57763671875	0.412841796875	1	upper	zerothre.ttf
2982601	REC_START	n/a	LTP143	ltpFR	13	11	n/a	n/a	n/a	n/a	n/a	n/a	n/a	0	0	0	n/a	n/a	n/a	n/a	n/a
2983424	REC_WORD	wordpools/wasnorm_wordpool.txt	LTP143	ltpFR	13	11	0	BOTTLE	153	n/a	n/a	0	n/a	0	0	0	n/a	n/a	n/a	n/a	n/a
2984601	REC_WORD	wordpools/wasnorm_wordpool.txt	LTP143	ltpFR	13	11	0	MAMMAL	861	n/a	n/a	1	n/a	0	0	0	n/a	n/a	n/a	n/a	n/a
2985948	REC_WORD	wordpools/wasnorm_wordpool.txt	LTP143	ltpFR	13	11	0	SHED	1277	n/a	n/a	1	n/a	0	0	0	n/a	n/a	n/a	n/a	n/a
2987340	REC_WORD	wordpools/wasnorm_wordpool.txt	LTP143	ltpFR	13	11	0	NAIL	936	n/a	n/a	0	n/a	0	0	0	n/a	n/a	n/a	n/a	n/a
2988497	REC_WORD	wordpools/wasnorm_wordpool.txt	LTP143	ltpFR	13	11	0	WRENCH	1625	n/a	n/a	0	n/a	0	0	0	n/a	n/a	n/a	n/a	n/a
3005324	REC_WORD	wordpools/wasnorm_wordpool.txt	LTP143	ltpFR	13	11	0	CRAB	397	n/a	n/a	0	n/a	0	0	0	n/a	n/a	n/a	n/a	n/a
3034518	REC_WORD	wordpools/wasnorm_wordpool.txt	LTP143	ltpFR	13	11	n/a	ELEPHANT	523	n/a	n/a	n/a	n/a	0	0	0	n/a	n/a	n/a	n/a	n/a
3067569	WORD	wordpools/wasnorm_wordpool.txt	LTP143	ltpFR	13	12	0	SAILOR	1223	n/a	n/a	1	n/a	0	0	0	0.57763671875	0.412841796875	1	upper	zerothre.ttf
3071573	WORD	wordpools/wasnorm_wordpool.txt	LTP143	ltpFR	13	12	0	PIER	1063	n/a	n/a	1	n/a	0	0	0	0.57763671875	0.412841796875	1	upper	zerothre.ttf
3075526	WORD	wordpools/wasnorm_wordpool.txt	LTP143	ltpFR	13	12	0	TUB	1514	n/a	n/a	1	n/a	0	0	0	0.57763671875	0.412841796875	1	upper	zerothre.ttf
3079430	WORD	wordpools/wasnorm_wordpool.txt	LTP143	ltpFR	13	12	0	CHAUFFEUR	283	n/a	n/a	1	n/a	0	0	0	0.57763671875	0.412841796875	1	upper	zerothre.ttf
3083466	WORD	wordpools/wasnorm_wordpool.txt	LTP143	ltpFR	13	12	1	STUMP	1396	n/a	n/a	0	n/a	0	0	0	0.422607421875	0.5869140625	0	lower	amplitud.ttf
3087487	WORD	wordpools/wasnorm_wordpool.txt	LTP143	ltpFR	13	12	1	OVEN	991	n/a	n/a	1	n/a	0	0	0	0.422607421875	0.5869140625	0	lower	amplitud.ttf
3091666	WORD	wordpools/wasnorm_wordpool.txt	LTP143	ltpFR	13	12	0	STOVE	1388	n/a	n/a	2	n/a	0	0	0	0.57763671875	0.412841796875	1	upper	zerothre.ttf
3092565	KEY_MSG	n/a	LTP143	ltpFR	13	12	n/a	n/a	n/a	n/a	n/a	n/a	n/a	0	0	0	n/a	n/a	n/a	n/a	n/a
3095637	WORD	wordpools/wasnorm_wordpool.txt	LTP143	ltpFR	13	12	0	PLANT	1083	n/a	n/a	1	n/a	0	0	0	0.57763671875	0.412841796875	1	upper	zerothre.ttf
3099757	WORD	wordpools/wasnorm_wordpool.txt	LTP143	ltpFR	13	12	0	ACID	2	n/a	n/a	0	n/a	0	0	0	0.57763671875	0.412841796875	1	upper	zerothre.ttf
3103586	WORD	wordpools/wasnorm_wordpool.txt	LTP143	ltpFR	13	12	0	BROOK	177	n/a	n/a	1	n/a	0	0	0	0.57763671875	0.412841796875	1	upper	zerothre.ttf
3107556	WORD	wordpools/wasnorm_wordpool.txt	LTP143	ltpFR	13	12	1	TOOL	1480	n/a	n/a	0	n/a	0	0	0	0.422607421875	0.5869140625	0	lower	amplitud.ttf
3111676	WORD	wordpools/wasnorm_wordpool.txt	LTP143	ltpFR	13	12	1	CONVICT	371	n/a	n/a	1	n/a	0	0	0	0.422607421875	0.5869140625	0	lower	amplitud.ttf
3115797	WORD	wordpools/wasnorm_wordpool.txt	LTP143	ltpFR	13	12	1	CRAYON	401	n/a	n/a	0	n/a	0	0	0	0.422607421875	0.5869140625	0	lower	amplitud.ttf
3119634	WORD	wordpools/wasnorm_wordpool.txt	LTP143	ltpFR	13	12	1	TEAPOT	1442	n/a	n/a	0	n/a	0	0	0	0.422607421875	0.5869140625	0	lower	amplitud.ttf
3123478	WORD	wordpools/wasnorm_wordpool.txt	LTP143	ltpFR	13	12	1	HOSE	720	n/a	n/a	0	n/a	0	0	0	0.422607421875	0.5869140625	0	lower	amplitud.ttf
3127441	WORD	wordpools/wasnorm_wordpool.txt	LTP143	ltpFR	13	12	1	WIDOW	1608	n/a	n/a	1	n/a	0	0	0	0.422607421875	0.5869140625	0	lower	amplitud.ttf
3130446	START	n/a	LTP143	ltpFR	13	n/a	n/a	n/a	n/a	n/a	n/a	n/a	n/a	n/a	n/a	n/a	n/a	n/a	n/a	n/a	n/a
3131486	PROB	n/a	LTP143	ltpFR	13	n/a	n/a	n/a	n/a	n/a	n/a	n/a	21	9	6	6	n/a	n/a	n/a	n/a	n/a
3136656	PROB	n/a	LTP143	ltpFR	13	n/a	n/a	n/a	n/a	n/a	n/a	n/a	18	7	8	3	n/a	n/a	n/a	n/a	n/a
3139844	PROB	n/a	LTP143	ltpFR	13	n/a	n/a	n/a	n/a	n/a	n/a	n/a	16	5	9	2	n/a	n/a	n/a	n/a	n/a
3146445	STOP	n/a	LTP143	ltpFR	13	n/a	n/a	n/a	n/a	n/a	n/a	n/a	n/a	n/a	n/a	n/a	n/a	n/a	n/a	n/a	n/a
3148201	REC_START	n/a	LTP143	ltpFR	13	12	n/a	n/a	n/a	n/a	n/a	n/a	n/a	0	0	0	n/a	n/a	n/a	n/a	n/a
3148844	REC_WORD	wordpools/wasnorm_wordpool.txt	LTP143	ltpFR	13	12	1	CONVICT	371	n/a	n/a	1	n/a	0	0	0	n/a	n/a	n/a	n/a	n/a
3150141	REC_WORD	wordpools/wasnorm_wordpool.txt	LTP143	ltpFR	13	12	1	CRAYON	401	n/a	n/a	0	n/a	0	0	0	n/a	n/a	n/a	n/a	n/a
3166284	REC_WORD	wordpools/wasnorm_wordpool.txt	LTP143	ltpFR	13	12	1	HOSE	720	n/a	n/a	0	n/a	0	0	0	n/a	n/a	n/a	n/a	n/a
3196107	REC_WORD	wordpools/wasnorm_wordpool.txt	LTP143	ltpFR	13	12	1	WIDOW	1608	n/a	n/a	1	n/a	0	0	0	n/a	n/a	n/a	n/a	n/a
3246563	REC_START	n/a	LTP143	ltpFR	13	1	n/a	n/a	n/a	n/a	n/a	n/a	n/a	0	0	0	n/a	n/a	n/a	n/a	n/a
3246595	RECOG_TARGET	n/a	LTP143	ltpFR	13	1	1	FIDDLE	561	0	5	0	n/a	0	0	0	n/a	n/a	n/a	n/a	n/a
3247845	RECOG_RESP	n/a	LTP143	ltpFR	13	1	1	FIDDLE	561	0	n/a	0	n/a	0	0	0	n/a	n/a	n/a	n/a	n/a
3248763	RECOG_CONF	n/a	LTP143	ltpFR	13	1	1	FIDDLE	561	n/a	5	0	n/a	0	0	0	n/a	n/a	n/a	n/a	n/a
3250224	RECOG_TARGET	n/a	LTP143	ltpFR	13	1	0	TANGERINE	1431	1	5	0	n/a	0	0	0	n/a	n/a	n/a	n/a	n/a
3252746	RECOG_RESP	n/a	LTP143	ltpFR	13	1	0	TANGERINE	1431	1	n/a	0	n/a	0	0	0	n/a	n/a	n/a	n/a	n/a
3253841	RECOG_CONF	n/a	LTP143	ltpFR	13	1	0	TANGERINE	1431	n/a	5	0	n/a	0	0	0	n/a	n/a	n/a	n/a	n/a
3255277	RECOG_TARGET	n/a	LTP143	ltpFR	13	1	0	FINGER	567	1	5	1	n/a	0	0	0	n/a	n/a	n/a	n/a	n/a
3256048	RECOG_RESP	n/a	LTP143	ltpFR	13	1	0	FINGER	567	1	n/a	1	n/a	0	0	0	n/a	n/a	n/a	n/a	n/a
3256914	RECOG_CONF	n/a	LTP143	ltpFR	13	1	0	FINGER	567	n/a	5	1	n/a	0	0	0	n/a	n/a	n/a	n/a	n/a
3258472	RECOG_TARGET	n/a	LTP143	ltpFR	13	1	1	BOOTH	151	1	5	0	n/a	0	0	0	n/a	n/a	n/a	n/a	n/a
3259271	RECOG_RESP	n/a	LTP143	ltpFR	13	1	1	BOOTH	151	1	n/a	0	n/a	0	0	0	n/a	n/a	n/a	n/a	n/a
3260107	RECOG_CONF	n/a	LTP143	ltpFR	13	1	1	BOOTH	151	n/a	5	0	n/a	0	0	0	n/a	n/a	n/a	n/a	n/a
3261586	RECOG_TARGET	n/a	LTP143	ltpFR	13	1	1	DWARF	510	1	5	1	n/a	0	0	0	n/a	n/a	n/a	n/a	n/a
3262281	RECOG_RESP	n/a	LTP143	ltpFR	13	1	1	DWARF	510	1	n/a	1	n/a	0	0	0	n/a	n/a	n/a	n/a	n/a
3262985	RECOG_CONF	n/a	LTP143	ltpFR	13	1	1	DWARF	510	n/a	5	1	n/a	0	0	0	n/a	n/a	n/a	n/a	n/a
3264566	RECOG_TARGET	n/a	LTP143	ltpFR	13	1	0	POOL	1103	1	5	1	n/a	0	0	0	n/a	n/a	n/a	n/a	n/a
3265207	RECOG_RESP	n/a	LTP143	ltpFR	13	1	0	POOL	1103	1	n/a	1	n/a	0	0	0	n/a	n/a	n/a	n/a	n/a
3266143	RECOG_CONF	n/a	LTP143	ltpFR	13	1	0	POOL	1103	n/a	5	1	n/a	0	0	0	n/a	n/a	n/a	n/a	n/a
3267654	RECOG_TARGET	n/a	LTP143	ltpFR	13	1	0	NECK	939	1	5	0	n/a	0	0	0	n/a	n/a	n/a	n/a	n/a
3268338	RECOG_RESP	n/a	LTP143	ltpFR	13	1	0	NECK	939	1	n/a	0	n/a	0	0	0	n/a	n/a	n/a	n/a	n/a
3269316	RECOG_CONF	n/a	LTP143	ltpFR	13	1	0	NECK	939	n/a	5	0	n/a	0	0	0	n/a	n/a	n/a	n/a	n/a
3270909	RECOG_TARGET	n/a	LTP143	ltpFR	13	1	1	APARTMENT	30	1	5	0	n/a	0	0	0	n/a	n/a	n/a	n/a	n/a
3271661	RECOG_RESP	n/a	LTP143	ltpFR	13	1	1	APARTMENT	30	1	n/a	0	n/a	0	0	0	n/a	n/a	n/a	n/a	n/a
3272589	RECOG_CONF	n/a	LTP143	ltpFR	13	1	1	APARTMENT	30	n/a	5	0	n/a	0	0	0	n/a	n/a	n/a	n/a	n/a
3274138	RECOG_TARGET	n/a	LTP143	ltpFR	13	1	0	BAND	78	1	5	0	n/a	0	0	0	n/a	n/a	n/a	n/a	n/a
3274771	RECOG_RESP	n/a	LTP143	ltpFR	13	1	0	BAND	78	1	n/a	0	n/a	0	0	0	n/a	n/a	n/a	n/a	n/a
3275610	RECOG_CONF	n/a	LTP143	ltpFR	13	1	0	BAND	78	n/a	5	0	n/a	0	0	0	n/a	n/a	n/a	n/a	n/a
3277201	RECOG_LURE	n/a	LTP143	ltpFR	13	1	n/a	SLEEVE	1324	0	5	n/a	n/a	0	0	0	n/a	n/a	n/a	n/a	n/a
3278505	RECOG_RESP	n/a	LTP143	ltpFR	13	1	n/a	SLEEVE	1324	0	n/a	n/a	n/a	0	0	0	n/a	n/a	n/a	n/a	n/a
3279540	RECOG_CONF	n/a	LTP143	ltpFR	13	1	n/a	SLEEVE	1324	n/a	5	n/a	n/a	0	0	0	n/a	n/a	n/a	n/a	n/a
3281172	RECOG_TARGET	n/a	LTP143	ltpFR	13	1	1	HOSE	720	1	5	0	n/a	0	0	0	n/a	n/a	n/a	n/a	n/a
3281719	RECOG_RESP	n/a	LTP143	ltpFR	13	1	1	HOSE	720	1	n/a	0	n/a	0	0	0	n/a	n/a	n/a	n/a	n/a
3282520	RECOG_CONF	n/a	LTP143	ltpFR	13	1	1	HOSE	720	n/a	5	0	n/a	0	0	0	n/a	n/a	n/a	n/a	n/a
3284018	RECOG_TARGET	n/a	LTP143	ltpFR	13	1	0	MARBLE	867	1	5	1	n/a	0	0	0	n/a	n/a	n/a	n/a	n/a
3284598	RECOG_RESP	n/a	LTP143	ltpFR	13	1	0	MARBLE	867	1	n/a	1	n/a	0	0	0	n/a	n/a	n/a	n/a	n/a
3285390	RECOG_CONF	n/a	LTP143	ltpFR	13	1	0	MARBLE	867	n/a	5	1	n/a	0	0	0	n/a	n/a	n/a	n/a	n/a
3286840	RECOG_TARGET	n/a	LTP143	ltpFR	13	1	0	VIRUS	1572	1	5	0	n/a	0	0	0	n/a	n/a	n/a	n/a	n/a
3287473	RECOG_RESP	n/a	LTP143	ltpFR	13	1	0	VIRUS	1572	1	n/a	0	n/a	0	0	0	n/a	n/a	n/a	n/a	n/a
3288223	RECOG_CONF	n/a	LTP143	ltpFR	13	1	0	VIRUS	1572	n/a	5	0	n/a	0	0	0	n/a	n/a	n/a	n/a	n/a
3289703	RECOG_TARGET	n/a	LTP143	ltpFR	13	1	0	DOLPHIN	483	1	5	0	n/a	0	0	0	n/a	n/a	n/a	n/a	n/a
3290274	RECOG_RESP	n/a	LTP143	ltpFR	13	1	0	DOLPHIN	483	1	n/a	0	n/a	0	0	0	n/a	n/a	n/a	n/a	n/a
3291007	RECOG_CONF	n/a	LTP143	ltpFR	13	1	0	DOLPHIN	483	n/a	5	0	n/a	0	0	0	n/a	n/a	n/a	n/a	n/a
3292425	RECOG_TARGET	n/a	LTP143	ltpFR	13	1	1	BARREL	91	1	5	0	n/a	0	0	0	n/a	n/a	n/a	n/a	n/a
3293094	RECOG_RESP	n/a	LTP143	ltpFR	13	1	1	BARREL	91	1	n/a	0	n/a	0	0	0	n/a	n/a	n/a	n/a	n/a
3293787	RECOG_CONF	n/a	LTP143	ltpFR	13	1	1	BARREL	91	n/a	5	0	n/a	0	0	0	n/a	n/a	n/a	n/a	n/a
3295255	RECOG_TARGET	n/a	LTP143	ltpFR	13	1	1	PLAID	1080	1	5	0	n/a	0	0	0	n/a	n/a	n/a	n/a	n/a
3295778	RECOG_RESP	n/a	LTP143	ltpFR	13	1	1	PLAID	1080	1	n/a	0	n/a	0	0	0	n/a	n/a	n/a	n/a	n/a
3296554	RECOG_CONF	n/a	LTP143	ltpFR	13	1	1	PLAID	1080	n/a	5	0	n/a	0	0	0	n/a	n/a	n/a	n/a	n/a
3297886	RECOG_TARGET	n/a	LTP143	ltpFR	13	1	1	LIST	830	1	5	0	n/a	0	0	0	n/a	n/a	n/a	n/a	n/a
3299754	RECOG_RESP	n/a	LTP143	ltpFR	13	1	1	LIST	830	1	n/a	0	n/a	0	0	0	n/a	n/a	n/a	n/a	n/a
3300695	RECOG_CONF	n/a	LTP143	ltpFR	13	1	1	LIST	830	n/a	5	0	n/a	0	0	0	n/a	n/a	n/a	n/a	n/a
3302222	RECOG_TARGET	n/a	LTP143	ltpFR	13	1	1	CHECKERS	285	0	4	0	n/a	0	0	0	n/a	n/a	n/a	n/a	n/a
3303338	RECOG_RESP	n/a	LTP143	ltpFR	13	1	1	CHECKERS	285	0	n/a	0	n/a	0	0	0	n/a	n/a	n/a	n/a	n/a
3304546	RECOG_CONF	n/a	LTP143	ltpFR	13	1	1	CHECKERS	285	n/a	4	0	n/a	0	0	0	n/a	n/a	n/a	n/a	n/a
3305993	RECOG_TARGET	n/a	LTP143	ltpFR	13	1	0	BOTTLE	153	1	5	0	n/a	0	0	0	n/a	n/a	n/a	n/a	n/a
3306746	RECOG_RESP	n/a	LTP143	ltpFR	13	1	0	BOTTLE	153	1	n/a	0	n/a	0	0	0	n/a	n/a	n/a	n/a	n/a
3307440	RECOG_CONF	n/a	LTP143	ltpFR	13	1	0	BOTTLE	153	n/a	5	0	n/a	0	0	0	n/a	n/a	n/a	n/a	n/a
3308881	RECOG_TARGET	n/a	LTP143	ltpFR	13	1	1	CROSS	413	1	5	0	n/a	0	0	0	n/a	n/a	n/a	n/a	n/a
3309516	RECOG_RESP	n/a	LTP143	ltpFR	13	1	1	CROSS	413	1	n/a	0	n/a	0	0	0	n/a	n/a	n/a	n/a	n/a
3310253	RECOG_CONF	n/a	LTP143	ltpFR	13	1	1	CROSS	413	n/a	5	0	n/a	0	0	0	n/a	n/a	n/a	n/a	n/a
3313621	REC_START	n/a	LTP143	ltpFR	13	2	n/a	n/a	n/a	n/a	n/a	n/a	n/a	0	0	0	n/a	n/a	n/a	n/a	n/a
3313651	RECOG_TARGET	n/a	LTP143	ltpFR	13	2	0	GIRL	637	1	5	1	n/a	0	0	0	n/a	n/a	n/a	n/a	n/a
3314268	RECOG_RESP	n/a	LTP143	ltpFR	13	2	0	GIRL	637	1	n/a	1	n/a	0	0	0	n/a	n/a	n/a	n/a	n/a
3314974	RECOG_CONF	n/a	LTP143	ltpFR	13	2	0	GIRL	637	n/a	5	1	n/a	0	0	0	n/a	n/a	n/a	n/a	n/a
3316564	RECOG_TARGET	n/a	LTP143	ltpFR	13	2	0	SLOPE	1328	1	5	1	n/a	0	0	0	n/a	n/a	n/a	n/a	n/a
3317154	RECOG_RESP	n/a	LTP143	ltpFR	13	2	0	SLOPE	1328	1	n/a	1	n/a	0	0	0	n/a	n/a	n/a	n/a	n/a
3317956	RECOG_CONF	n/a	LTP143	ltpFR	13	2	0	SLOPE	1328	n/a	5	1	n/a	0	0	0	n/a	n/a	n/a	n/a	n/a
3319344	RECOG_TARGET	n/a	LTP143	ltpFR	13	2	1	SUIT	1402	1	5	0	n/a	0	0	0	n/a	n/a	n/a	n/a	n/a
3319927	RECOG_RESP	n/a	LTP143	ltpFR	13	2	1	SUIT	1402	1	n/a	0	n/a	0	0	0	n/a	n/a	n/a	n/a	n/a
3320754	RECOG_CONF	n/a	LTP143	ltpFR	13	2	1	SUIT	1402	n/a	5	0	n/a	0	0	0	n/a	n/a	n/a	n/a	n/a
3322332	RECOG_TARGET	n/a	LTP143	ltpFR	13	2	1	SKYSCRAPER	1322	1	5	0	n/a	0	0	0	n/a	n/a	n/a	n/a	n/a
3322946	RECOG_RESP	n/a	LTP143	ltpFR	13	2	1	SKYSCRAPER	1322	1	n/a	0	n/a	0	0	0	n/a	n/a	n/a	n/a	n/a
3323650	RECOG_CONF	n/a	LTP143	ltpFR	13	2	1	SKYSCRAPER	1322	n/a	5	0	n/a	0	0	0	n/a	n/a	n/a	n/a	n/a
3325137	RECOG_TARGET	n/a	LTP143	ltpFR	13	2	0	PAW	1029	1	5	1	n/a	0	0	0	n/a	n/a	n/a	n/a	n/a
3325720	RECOG_RESP	n/a	LTP143	ltpFR	13	2	0	PAW	1029	1	n/a	1	n/a	0	0	0	n/a	n/a	n/a	n/a	n/a
3326487	RECOG_CONF	n/a	LTP143	ltpFR	13	2	0	PAW	1029	n/a	5	1	n/a	0	0	0	n/a	n/a	n/a	n/a	n/a
3327909	RECOG_TARGET	n/a	LTP143	ltpFR	13	2	1	HEADBAND	696	1	5	0	n/a	0	0	0	n/a	n/a	n/a	n/a	n/a
3328420	RECOG_RESP	n/a	LTP143	ltpFR	13	2	1	HEADBAND	696	1	n/a	0	n/a	0	0	0	n/a	n/a	n/a	n/a	n/a
3329192	RECOG_CONF	n/a	LTP143	ltpFR	13	2	1	HEADBAND	696	n/a	5	0	n/a	0	0	0	n/a	n/a	n/a	n/a	n/a
3330814	RECOG_TARGET	n/a	LTP143	ltpFR	13	2	1	CONVICT	371	1	5	1	n/a	0	0	0	n/a	n/a	n/a	n/a	n/a
3331410	RECOG_RESP	n/a	LTP143	ltpFR	13	2	1	CONVICT	371	1	n/a	1	n/a	0	0	0	n/a	n/a	n/a	n/a	n/a
3332243	RECOG_CONF	n/a	LTP143	ltpFR	13	2	1	CONVICT	371	n/a	5	1	n/a	0	0	0	n/a	n/a	n/a	n/a	n/a
3333769	RECOG_LURE	n/a	LTP143	ltpFR	13	2	n/a	PLAZA	1088	0	5	n/a	n/a	0	0	0	n/a	n/a	n/a	n/a	n/a
3335651	RECOG_RESP	n/a	LTP143	ltpFR	13	2	n/a	PLAZA	1088	0	n/a	n/a	n/a	0	0	0	n/a	n/a	n/a	n/a	n/a
3336444	RECOG_CONF	n/a	LTP143	ltpFR	13	2	n/a	PLAZA	1088	n/a	5	n/a	n/a	0	0	0	n/a	n/a	n/a	n/a	n/a
3337923	RECOG_TARGET	n/a	LTP143	ltpFR	13	2	1	JELLO	754	1	5	0	n/a	0	0	0	n/a	n/a	n/a	n/a	n/a
3339658	RECOG_RESP	n/a	LTP143	ltpFR	13	2	1	JELLO	754	1	n/a	0	n/a	0	0	0	n/a	n/a	n/a	n/a	n/a
3340687	RECOG_CONF	n/a	LTP143	ltpFR	13	2	1	JELLO	754	n/a	5	0	n/a	0	0	0	n/a	n/a	n/a	n/a	n/a
3342218	RECOG_LURE	n/a	LTP143	ltpFR	13	2	n/a	WICK	1607	0	5	n/a	n/a	0	0	0	n/a	n/a	n/a	n/a	n/a
3342937	RECOG_RESP	n/a	LTP143	ltpFR	13	2	n/a	WICK	1607	0	n/a	n/a	n/a	0	0	0	n/a	n/a	n/a	n/a	n/a
3343707	RECOG_CONF	n/a	LTP143	ltpFR	13	2	n/a	WICK	1607	n/a	5	n/a	n/a	0	0	0	n/a	n/a	n/a	n/a	n/a
3345073	RECOG_TARGET	n/a	LTP143	ltpFR	13	2	1	OVEN	991	1	5	1	n/a	0	0	0	n/a	n/a	n/a	n/a	n/a
3346013	RECOG_RESP	n/a	LTP143	ltpFR	13	2	1	OVEN	991	1	n/a	1	n/a	0	0	0	n/a	n/a	n/a	n/a	n/a
3346777	RECOG_CONF	n/a	LTP143	ltpFR	13	2	1	OVEN	991	n/a	5	1	n/a	0	0	0	n/a	n/a	n/a	n/a	n/a
3348459	RECOG_TARGET	n/a	LTP143	ltpFR	13	2	1	HERD	705	1	5	1	n/a	0	0	0	n/a	n/a	n/a	n/a	n/a
3348986	RECOG_RESP	n/a	LTP143	ltpFR	13	2	1	HERD	705	1	n/a	1	n/a	0	0	0	n/a	n/a	n/a	n/a	n/a
3349724	RECOG_CONF	n/a	LTP143	ltpFR	13	2	1	HERD	705	n/a	5	1	n/a	0	0	0	n/a	n/a	n/a	n/a	n/a
3351207	RECOG_TARGET	n/a	LTP143	ltpFR	13	2	1	SEED	1266	1	5	0	n/a	0	0	0	n/a	n/a	n/a	n/a	n/a
3351793	RECOG_RESP	n/a	LTP143	ltpFR	13	2	1	SEED	1266	1	n/a	0	n/a	0	0	0	n/a	n/a	n/a	n/a	n/a
3352587	RECOG_CONF	n/a	LTP143	ltpFR	13	2	1	SEED	1266	n/a	5	0	n/a	0	0	0	n/a	n/a	n/a	n/a	n/a
3354046	RECOG_TARGET	n/a	LTP143	ltpFR	13	2	0	CRUMB	416	1	5	0	n/a	0	0	0	n/a	n/a	n/a	n/a	n/a
3354608	RECOG_RESP	n/a	LTP143	ltpFR	13	2	0	CRUMB	416	1	n/a	0	n/a	0	0	0	n/a	n/a	n/a	n/a	n/a
3355331	RECOG_CONF	n/a	LTP143	ltpFR	13	2	0	CRUMB	416	n/a	5	0	n/a	0	0	0	n/a	n/a	n/a	n/a	n/a
3356759	RECOG_TARGET	n/a	LTP143	ltpFR	13	2	0	DUNE	506	1	5	1	n/a	0	0	0	n/a	n/a	n/a	n/a	n/a
3357421	RECOG_RESP	n/a	LTP143	ltpFR	13	2	0	DUNE	506	1	n/a	1	n/a	0	0	0	n/a	n/a	n/a	n/a	n/a
3358185	RECOG_CONF	n/a	LTP143	ltpFR	13	2	0	DUNE	506	n/a	5	1	n/a	0	0	0	n/a	n/a	n/a	n/a	n/a
3359706	RECOG_TARGET	n/a	LTP143	ltpFR	13	2	0	VET	1560	1	5	1	n/a	0	0	0	n/a	n/a	n/a	n/a	n/a
3360260	RECOG_RESP	n/a	LTP143	ltpFR	13	2	0	VET	1560	1	n/a	1	n/a	0	0	0	n/a	n/a	n/a	n/a	n/a
3361008	RECOG_CONF	n/a	LTP143	ltpFR	13	2	0	VET	1560	n/a	5	1	n/a	0	0	0	n/a	n/a	n/a	n/a	n/a
3362444	RECOG_TARGET	n/a	LTP143	ltpFR	13	2	1	CRITIC	410	1	5	1	n/a	0	0	0	n/a	n/a	n/a	n/a	n/a
3362973	RECOG_RESP	n/a	LTP143	ltpFR	13	2	1	CRITIC	410	1	n/a	1	n/a	0	0	0	n/a	n/a	n/a	n/a	n/a
3363613	RECOG_CONF	n/a	LTP143	ltpFR	13	2	1	CRITIC	410	n/a	5	1	n/a	0	0	0	n/a	n/a	n/a	n/a	n/a
3365166	RECOG_TARGET	n/a	LTP143	ltpFR	13	2	0	GANGSTER	620	1	5	1	n/a	0	0	0	n/a	n/a	n/a	n/a	n/a
3365634	RECOG_RESP	n/a	LTP143	ltpFR	13	2	0	GANGSTER	620	1	n/a	1	n/a	0	0	0	n/a	n/a	n/a	n/a	n/a
3366376	RECOG_CONF	n/a	LTP143	ltpFR	13	2	0	GANGSTER	620	n/a	5	1	n/a	0	0	0	n/a	n/a	n/a	n/a	n/a
3367838	RECOG_TARGET	n/a	LTP143	ltpFR	13	2	0	FIREPLACE	570	1	5	1	n/a	0	0	0	n/a	n/a	n/a	n/a	n/a
3368836	RECOG_RESP	n/a	LTP143	ltpFR	13	2	0	FIREPLACE	570	1	n/a	1	n/a	0	0	0	n/a	n/a	n/a	n/a	n/a
3370087	RECOG_CONF	n/a	LTP143	ltpFR	13	2	0	FIREPLACE	570	n/a	5	1	n/a	0	0	0	n/a	n/a	n/a	n/a	n/a
3371650	RECOG_TARGET	n/a	LTP143	ltpFR	13	2	0	HOUND	724	1	5	1	n/a	0	0	0	n/a	n/a	n/a	n/a	n/a
3372177	RECOG_RESP	n/a	LTP143	ltpFR	13	2	0	HOUND	724	1	n/a	1	n/a	0	0	0	n/a	n/a	n/a	n/a	n/a
3373031	RECOG_CONF	n/a	LTP143	ltpFR	13	2	0	HOUND	724	n/a	5	1	n/a	0	0	0	n/a	n/a	n/a	n/a	n/a
3376379	REC_START	n/a	LTP143	ltpFR	13	3	n/a	n/a	n/a	n/a	n/a	n/a	n/a	0	0	0	n/a	n/a	n/a	n/a	n/a
3376411	RECOG_TARGET	n/a	LTP143	ltpFR	13	3	0	COUNTRY	388	1	5	1	n/a	0	0	0	n/a	n/a	n/a	n/a	n/a
3376953	RECOG_RESP	n/a	LTP143	ltpFR	13	3	0	COUNTRY	388	1	n/a	1	n/a	0	0	0	n/a	n/a	n/a	n/a	n/a
3377731	RECOG_CONF	n/a	LTP143	ltpFR	13	3	0	COUNTRY	388	n/a	5	1	n/a	0	0	0	n/a	n/a	n/a	n/a	n/a
