onset	duration	trial_type	sample	stim_file	subject	experiment	session	trial	item_name	item_num	list	answer	test_x	test_y	test_z
219.344	n/a	SESS_START	109672	n/a	LTP273	ltpFR2	14	n/a	n/a	n/a	n/a	n/a	0	0	0
376.228	n/a	START	188114	n/a	LTP273	ltpFR2	14	n/a	n/a	n/a	-1	n/a	n/a	n/a	n/a
376.278	n/a	PROB	188139	n/a	LTP273	ltpFR2	14	n/a	n/a	n/a	-1	12	4	7	1
378.42	n/a	PROB	189210	n/a	LTP273	ltpFR2	14	n/a	n/a	n/a	-1	22	6	6	8
379.838	n/a	PROB	189919	n/a	LTP273	ltpFR2	14	n/a	n/a	n/a	-1	17	4	4	9
381.396	n/a	PROB	190698	n/a	LTP273	ltpFR2	14	n/a	n/a	n/a	-1	13	3	7	3
382.82	n/a	PROB	191410	n/a	LTP273	ltpFR2	14	n/a	n/a	n/a	-1	8	1	3	4
384.158	n/a	PROB	192079	n/a	LTP273	ltpFR2	14	n/a	n/a	n/a	-1	16	4	4	8
385.48	n/a	PROB	192740	n/a	LTP273	ltpFR2	14	n/a	n/a	n/a	-1	12	3	2	7
387.104	n/a	STOP	193552	n/a	LTP273	ltpFR2	14	n/a	n/a	n/a	-1	n/a	n/a	n/a	n/a
808.932	n/a	DISTRACTOR	404466	n/a	LTP273	ltpFR2	14	1	n/a	n/a	n/a	n/a	0	0	0
808.932	n/a	START	404466	n/a	LTP273	ltpFR2	14	n/a	n/a	n/a	1	n/a	n/a	n/a	n/a
808.982	n/a	PROB	404491	n/a	LTP273	ltpFR2	14	n/a	n/a	n/a	1	24	9	8	6
811.236	n/a	PROB	405618	n/a	LTP273	ltpFR2	14	n/a	n/a	n/a	1	16	9	6	1
812.73	n/a	PROB	406365	n/a	LTP273	ltpFR2	14	n/a	n/a	n/a	1	17	6	1	9
813.818	n/a	PROB	406909	n/a	LTP273	ltpFR2	14	n/a	n/a	n/a	1	11	5	5	1
814.838	n/a	PROB	407419	n/a	LTP273	ltpFR2	14	n/a	n/a	n/a	1	15	7	6	2
817.312	n/a	PROB	408656	n/a	LTP273	ltpFR2	14	n/a	n/a	n/a	1	15	6	2	7
819.054	n/a	PROB	409527	n/a	LTP273	ltpFR2	14	n/a	n/a	n/a	1	15	2	6	7
820.678	n/a	PROB	410339	n/a	LTP273	ltpFR2	14	n/a	n/a	n/a	1	20	3	9	8
822.232	n/a	PROB	411116	n/a	LTP273	ltpFR2	14	n/a	n/a	n/a	1	13	8	4	1
823.436	n/a	PROB	411718	n/a	LTP273	ltpFR2	14	n/a	n/a	n/a	1	22	9	6	8
825.144	n/a	PROB	412572	n/a	LTP273	ltpFR2	14	n/a	n/a	n/a	1	19	5	8	6
827.536	n/a	PROB	413768	n/a	LTP273	ltpFR2	14	n/a	n/a	n/a	1	12	2	1	9
828.758	n/a	PROB	414379	n/a	LTP273	ltpFR2	14	n/a	n/a	n/a	1	24	4	9	8
830.632	n/a	PROB	415316	n/a	LTP273	ltpFR2	14	n/a	n/a	n/a	1	7	2	3	2
831.824	n/a	STOP	415912	n/a	LTP273	ltpFR2	14	n/a	n/a	n/a	1	n/a	n/a	n/a	n/a
834.144	n/a	WORD	417072	wordpools/wasnorm_wordpool_576.txt	LTP273	ltpFR2	14	1	ATLAS	53	n/a	n/a	0	0	0
836.788	n/a	WORD	418394	wordpools/wasnorm_wordpool_576.txt	LTP273	ltpFR2	14	1	ROBBER	1197	n/a	n/a	0	0	0
839.23	n/a	WORD	419615	wordpools/wasnorm_wordpool_576.txt	LTP273	ltpFR2	14	1	POSSUM	1112	n/a	n/a	0	0	0
841.674	n/a	WORD	420837	wordpools/wasnorm_wordpool_576.txt	LTP273	ltpFR2	14	1	PEACH	1031	n/a	n/a	0	0	0
844.266	n/a	WORD	422133	wordpools/wasnorm_wordpool_576.txt	LTP273	ltpFR2	14	1	MATCH	878	n/a	n/a	0	0	0
846.844	n/a	WORD	423422	wordpools/wasnorm_wordpool_576.txt	LTP273	ltpFR2	14	1	LAMP	798	n/a	n/a	0	0	0
849.414	n/a	WORD	424707	wordpools/wasnorm_wordpool_576.txt	LTP273	ltpFR2	14	1	SCARF	1246	n/a	n/a	0	0	0
852.23	n/a	WORD	426115	wordpools/wasnorm_wordpool_576.txt	LTP273	ltpFR2	14	1	CURTAIN	427	n/a	n/a	0	0	0
854.74	n/a	WORD	427370	wordpools/wasnorm_wordpool_576.txt	LTP273	ltpFR2	14	1	BACKBONE	66	n/a	n/a	0	0	0
857.434	n/a	WORD	428717	wordpools/wasnorm_wordpool_576.txt	LTP273	ltpFR2	14	1	BOARD	143	n/a	n/a	0	0	0
859.91	n/a	WORD	429955	wordpools/wasnorm_wordpool_576.txt	LTP273	ltpFR2	14	1	HOOD	714	n/a	n/a	0	0	0
862.502	n/a	WORD	431251	wordpools/wasnorm_wordpool_576.txt	LTP273	ltpFR2	14	1	BIKE	125	n/a	n/a	0	0	0
865.214	n/a	WORD	432607	wordpools/wasnorm_wordpool_576.txt	LTP273	ltpFR2	14	1	CHAUFFEUR	283	n/a	n/a	0	0	0
868.024	n/a	WORD	434012	wordpools/wasnorm_wordpool_576.txt	LTP273	ltpFR2	14	1	TUNNEL	1519	n/a	n/a	0	0	0
870.668	n/a	WORD	435334	wordpools/wasnorm_wordpool_576.txt	LTP273	ltpFR2	14	1	BUGGY	188	n/a	n/a	0	0	0
873.428	n/a	WORD	436714	wordpools/wasnorm_wordpool_576.txt	LTP273	ltpFR2	14	1	SCOTCH	1251	n/a	n/a	0	0	0
876.088	n/a	WORD	438044	wordpools/wasnorm_wordpool_576.txt	LTP273	ltpFR2	14	1	DAUGHTER	442	n/a	n/a	0	0	0
878.816	n/a	WORD	439408	wordpools/wasnorm_wordpool_576.txt	LTP273	ltpFR2	14	1	PARENT	1013	n/a	n/a	0	0	0
881.492	n/a	WORD	440746	wordpools/wasnorm_wordpool_576.txt	LTP273	ltpFR2	14	1	OZONE	996	n/a	n/a	0	0	0
884.302	n/a	WORD	442151	wordpools/wasnorm_wordpool_576.txt	LTP273	ltpFR2	14	1	HERO	706	n/a	n/a	0	0	0
887.064	n/a	WORD	443532	wordpools/wasnorm_wordpool_576.txt	LTP273	ltpFR2	14	1	WINDOW	1611	n/a	n/a	0	0	0
889.488	n/a	WORD	444744	wordpools/wasnorm_wordpool_576.txt	LTP273	ltpFR2	14	1	BALLOON	75	n/a	n/a	0	0	0
891.932	n/a	WORD	445966	wordpools/wasnorm_wordpool_576.txt	LTP273	ltpFR2	14	1	MISTER	901	n/a	n/a	0	0	0
894.71	n/a	WORD	447355	wordpools/wasnorm_wordpool_576.txt	LTP273	ltpFR2	14	1	LADY	794	n/a	n/a	0	0	0
896.328	n/a	START	448164	n/a	LTP273	ltpFR2	14	n/a	n/a	n/a	2	n/a	n/a	n/a	n/a
897.24	n/a	DISTRACTOR	448620	n/a	LTP273	ltpFR2	14	1	n/a	n/a	n/a	n/a	0	0	0
897.252	n/a	PROB	448626	n/a	LTP273	ltpFR2	14	n/a	n/a	n/a	2	17	4	8	5
900.142	n/a	PROB	450071	n/a	LTP273	ltpFR2	14	n/a	n/a	n/a	2	20	8	6	6
902.422	n/a	PROB	451211	n/a	LTP273	ltpFR2	14	n/a	n/a	n/a	2	6	2	3	1
903.622	n/a	PROB	451811	n/a	LTP273	ltpFR2	14	n/a	n/a	n/a	2	19	7	4	6
905.982	n/a	PROB	452991	n/a	LTP273	ltpFR2	14	n/a	n/a	n/a	2	16	8	4	4
907.302	n/a	PROB	453651	n/a	LTP273	ltpFR2	14	n/a	n/a	n/a	2	20	8	3	9
908.942	n/a	PROB	454471	n/a	LTP273	ltpFR2	14	n/a	n/a	n/a	2	14	4	4	6
910.318	n/a	PROB	455159	n/a	LTP273	ltpFR2	14	n/a	n/a	n/a	2	13	9	2	2
911.402	n/a	PROB	455701	n/a	LTP273	ltpFR2	14	n/a	n/a	n/a	2	15	7	2	6
912.942	n/a	PROB	456471	n/a	LTP273	ltpFR2	14	n/a	n/a	n/a	2	11	9	9	1
914.112	n/a	PROB	457056	n/a	LTP273	ltpFR2	14	n/a	n/a	n/a	2	10	4	2	4
917.006	n/a	PROB	458503	n/a	LTP273	ltpFR2	14	n/a	n/a	n/a	2	24	9	6	9
918.806	n/a	STOP	459403	n/a	LTP273	ltpFR2	14	n/a	n/a	n/a	2	n/a	n/a	n/a	n/a
922.216	n/a	REC_START	461108	n/a	LTP273	ltpFR2	14	1	n/a	n/a	n/a	n/a	0	0	0
923.382	n/a	REC_WORD	461691	wordpools/wasnorm_wordpool_576.txt	LTP273	ltpFR2	14	1	MISTER	901	n/a	n/a	0	0	0
923.992	n/a	REC_WORD	461996	wordpools/wasnorm_wordpool_576.txt	LTP273	ltpFR2	14	1	MATCH	878	n/a	n/a	0	0	0
924.58	n/a	REC_WORD	462290	wordpools/wasnorm_wordpool_576.txt	LTP273	ltpFR2	14	1	LAMP	798	n/a	n/a	0	0	0
925.148	n/a	REC_WORD	462574	wordpools/wasnorm_wordpool_576.txt	LTP273	ltpFR2	14	1	SCARF	1246	n/a	n/a	0	0	0
925.898	n/a	REC_WORD	462949	wordpools/wasnorm_wordpool_576.txt	LTP273	ltpFR2	14	1	ATLAS	53	n/a	n/a	0	0	0
926.418	n/a	REC_WORD	463209	wordpools/wasnorm_wordpool_576.txt	LTP273	ltpFR2	14	1	ROBBER	1197	n/a	n/a	0	0	0
927.15	n/a	REC_WORD	463575	wordpools/wasnorm_wordpool_576.txt	LTP273	ltpFR2	14	1	POSSUM	1112	n/a	n/a	0	0	0
929.016	n/a	REC_WORD	464508	wordpools/wasnorm_wordpool_576.txt	LTP273	ltpFR2	14	1	PEACH	1031	n/a	n/a	0	0	0
930.528	n/a	REC_WORD	465264	wordpools/wasnorm_wordpool_576.txt	LTP273	ltpFR2	14	1	LADY	794	n/a	n/a	0	0	0
931.684	n/a	REC_WORD	465842	wordpools/wasnorm_wordpool_576.txt	LTP273	ltpFR2	14	1	DAUGHTER	442	n/a	n/a	0	0	0
1013.312	n/a	DISTRACTOR	506656	n/a	LTP273	ltpFR2	14	2	n/a	n/a	n/a	n/a	0	0	0
1013.312	n/a	START	506656	n/a	LTP273	ltpFR2	14	n/a	n/a	n/a	3	n/a	n/a	n/a	n/a
1013.362	n/a	PROB	506681	n/a	LTP273	ltpFR2	14	n/a	n/a	n/a	3	1	5	7	3
1014.782	n/a	PROB	507391	n/a	LTP273	ltpFR2	14	n/a	n/a	n/a	3	14	9	3	2
1018.26	n/a	PROB	509130	n/a	LTP273	ltpFR2	14	n/a	n/a	n/a	3	12	6	1	6
1019.268	n/a	PROB	509634	n/a	LTP273	ltpFR2	14	n/a	n/a	n/a	3	5	1	2	2
1020.39	n/a	PROB	510195	n/a	LTP273	ltpFR2	14	n/a	n/a	n/a	3	13	3	9	1
1021.762	n/a	PROB	510881	n/a	LTP273	ltpFR2	14	n/a	n/a	n/a	3	18	9	3	6
1023.436	n/a	PROB	511718	n/a	LTP273	ltpFR2	14	n/a	n/a	n/a	3	10	2	7	1
1024.558	n/a	PROB	512279	n/a	LTP273	ltpFR2	14	n/a	n/a	n/a	3	16	3	6	7
1025.858	n/a	PROB	512929	n/a	LTP273	ltpFR2	14	n/a	n/a	n/a	3	13	5	3	5
1027.06	n/a	PROB	513530	n/a	LTP273	ltpFR2	14	n/a	n/a	n/a	3	19	3	8	8
1028.568	n/a	PROB	514284	n/a	LTP273	ltpFR2	14	n/a	n/a	n/a	3	10	3	2	5
1030.076	n/a	PROB	515038	n/a	LTP273	ltpFR2	14	n/a	n/a	n/a	3	9	3	2	4
1032.498	n/a	PROB	516249	n/a	LTP273	ltpFR2	14	n/a	n/a	n/a	3	11	1	2	8
1034.662	n/a	PROB	517331	n/a	LTP273	ltpFR2	14	n/a	n/a	n/a	3	16	6	5	5
1035.616	n/a	PROB	517808	n/a	LTP273	ltpFR2	14	n/a	n/a	n/a	3	15	5	8	2
1036.548	n/a	STOP	518274	n/a	LTP273	ltpFR2	14	n/a	n/a	n/a	3	n/a	n/a	n/a	n/a
1038.292	n/a	WORD	519146	wordpools/wasnorm_wordpool_576.txt	LTP273	ltpFR2	14	2	LUGGAGE	847	n/a	n/a	0	0	0
1040.902	n/a	WORD	520451	wordpools/wasnorm_wordpool_576.txt	LTP273	ltpFR2	14	2	PIZZA	1079	n/a	n/a	0	0	0
1043.34	n/a	WORD	521670	wordpools/wasnorm_wordpool_576.txt	LTP273	ltpFR2	14	2	LUNCH	849	n/a	n/a	0	0	0
1045.988	n/a	WORD	522994	wordpools/wasnorm_wordpool_576.txt	LTP273	ltpFR2	14	2	RAZOR	1171	n/a	n/a	0	0	0
1048.43	n/a	WORD	524215	wordpools/wasnorm_wordpool_576.txt	LTP273	ltpFR2	14	2	BARLEY	88	n/a	n/a	0	0	0
1051.074	n/a	WORD	525537	wordpools/wasnorm_wordpool_576.txt	LTP273	ltpFR2	14	2	TABLE	1426	n/a	n/a	0	0	0
1053.662	n/a	WORD	526831	wordpools/wasnorm_wordpool_576.txt	LTP273	ltpFR2	14	2	DOUGHNUT	490	n/a	n/a	0	0	0
1056.46	n/a	WORD	528230	wordpools/wasnorm_wordpool_576.txt	LTP273	ltpFR2	14	2	CLOCK	325	n/a	n/a	0	0	0
1059.036	n/a	WORD	529518	wordpools/wasnorm_wordpool_576.txt	LTP273	ltpFR2	14	2	SALT	1229	n/a	n/a	0	0	0
1061.8	n/a	WORD	530900	wordpools/wasnorm_wordpool_576.txt	LTP273	ltpFR2	14	2	PARSLEY	1016	n/a	n/a	0	0	0
1064.476	n/a	WORD	532238	wordpools/wasnorm_wordpool_576.txt	LTP273	ltpFR2	14	2	SEAGULL	1261	n/a	n/a	0	0	0
1067.186	n/a	WORD	533593	wordpools/wasnorm_wordpool_576.txt	LTP273	ltpFR2	14	2	RABBIT	1152	n/a	n/a	0	0	0
1069.674	n/a	WORD	534837	wordpools/wasnorm_wordpool_576.txt	LTP273	ltpFR2	14	2	DRESSER	496	n/a	n/a	0	0	0
1072.468	n/a	WORD	536234	wordpools/wasnorm_wordpool_576.txt	LTP273	ltpFR2	14	2	CHAMPAGNE	278	n/a	n/a	0	0	0
1075.116	n/a	WORD	537558	wordpools/wasnorm_wordpool_576.txt	LTP273	ltpFR2	14	2	COWBOY	395	n/a	n/a	0	0	0
1077.928	n/a	WORD	538964	wordpools/wasnorm_wordpool_576.txt	LTP273	ltpFR2	14	2	BANQUET	86	n/a	n/a	0	0	0
1080.402	n/a	WORD	540201	wordpools/wasnorm_wordpool_576.txt	LTP273	ltpFR2	14	2	HAWK	692	n/a	n/a	0	0	0
1082.83	n/a	WORD	541415	wordpools/wasnorm_wordpool_576.txt	LTP273	ltpFR2	14	2	CREATURE	403	n/a	n/a	0	0	0
1085.488	n/a	WORD	542744	wordpools/wasnorm_wordpool_576.txt	LTP273	ltpFR2	14	2	SCARECROW	1245	n/a	n/a	0	0	0
1088.048	n/a	WORD	544024	wordpools/wasnorm_wordpool_576.txt	LTP273	ltpFR2	14	2	LION	827	n/a	n/a	0	0	0
1090.66	n/a	WORD	545330	wordpools/wasnorm_wordpool_576.txt	LTP273	ltpFR2	14	2	LEOPARD	812	n/a	n/a	0	0	0
1093.334	n/a	WORD	546667	wordpools/wasnorm_wordpool_576.txt	LTP273	ltpFR2	14	2	PLUTO	1092	n/a	n/a	0	0	0
1095.762	n/a	WORD	547881	wordpools/wasnorm_wordpool_576.txt	LTP273	ltpFR2	14	2	KIDNEY	776	n/a	n/a	0	0	0
1098.4	n/a	WORD	549200	wordpools/wasnorm_wordpool_576.txt	LTP273	ltpFR2	14	2	CORAL	378	n/a	n/a	0	0	0
1100.012	n/a	START	550006	n/a	LTP273	ltpFR2	14	n/a	n/a	n/a	4	n/a	n/a	n/a	n/a
1100.85	n/a	DISTRACTOR	550425	n/a	LTP273	ltpFR2	14	2	n/a	n/a	n/a	n/a	0	0	0
1100.866	n/a	PROB	550433	n/a	LTP273	ltpFR2	14	n/a	n/a	n/a	4	16	4	7	5
1104.256	n/a	PROB	552128	n/a	LTP273	ltpFR2	14	n/a	n/a	n/a	4	16	4	4	8
1106.13	n/a	PROB	553065	n/a	LTP273	ltpFR2	14	n/a	n/a	n/a	4	9	3	3	3
1107.104	n/a	PROB	553552	n/a	LTP273	ltpFR2	14	n/a	n/a	n/a	4	11	3	2	6
1108.874	n/a	PROB	554437	n/a	LTP273	ltpFR2	14	n/a	n/a	n/a	4	14	3	2	9
1110.194	n/a	PROB	555097	n/a	LTP273	ltpFR2	14	n/a	n/a	n/a	4	12	6	1	5
1111.6	n/a	PROB	555800	n/a	LTP273	ltpFR2	14	n/a	n/a	n/a	4	8	2	6	2
1112.81	n/a	PROB	556405	n/a	LTP273	ltpFR2	14	n/a	n/a	n/a	4	13	6	3	4
1114.41	n/a	PROB	557205	n/a	LTP273	ltpFR2	14	n/a	n/a	n/a	4	69	1	3	5
1115.55	n/a	PROB	557775	n/a	LTP273	ltpFR2	14	n/a	n/a	n/a	4	12	9	3	1
1118.108	n/a	PROB	559054	n/a	LTP273	ltpFR2	14	n/a	n/a	n/a	4	10	5	1	4
1124.012	n/a	STOP	562006	n/a	LTP273	ltpFR2	14	n/a	n/a	n/a	4	n/a	n/a	n/a	n/a
1125.862	n/a	REC_START	562931	n/a	LTP273	ltpFR2	14	2	n/a	n/a	n/a	n/a	0	0	0
1127.84	n/a	REC_WORD	563920	wordpools/wasnorm_wordpool_576.txt	LTP273	ltpFR2	14	2	CORAL	378	n/a	n/a	0	0	0
1128.412	n/a	REC_WORD	564206	wordpools/wasnorm_wordpool_576.txt	LTP273	ltpFR2	14	2	LION	827	n/a	n/a	0	0	0
1129.166	n/a	REC_WORD	564583	wordpools/wasnorm_wordpool_576.txt	LTP273	ltpFR2	14	2	PLUTO	1092	n/a	n/a	0	0	0
1131.126	n/a	REC_WORD	565563	wordpools/wasnorm_wordpool_576.txt	LTP273	ltpFR2	14	2	KIDNEY	776	n/a	n/a	0	0	0
1133.516	n/a	REC_WORD	566758	wordpools/wasnorm_wordpool_576.txt	LTP273	ltpFR2	14	2	LEOPARD	812	n/a	n/a	0	0	0
1136.43	n/a	REC_WORD	568215	wordpools/wasnorm_wordpool_576.txt	LTP273	ltpFR2	14	2	LUGGAGE	847	n/a	n/a	0	0	0
1137.912	n/a	REC_WORD	568956	wordpools/wasnorm_wordpool_576.txt	LTP273	ltpFR2	14	2	PIZZA	1079	n/a	n/a	0	0	0
1139.064	n/a	REC_WORD	569532	wordpools/wasnorm_wordpool_576.txt	LTP273	ltpFR2	14	2	LUNCH	849	n/a	n/a	0	0	0
1139.774	n/a	REC_WORD	569887	wordpools/wasnorm_wordpool_576.txt	LTP273	ltpFR2	14	2	SALT	1229	n/a	n/a	0	0	0
1140.942	n/a	REC_WORD	570471	wordpools/wasnorm_wordpool_576.txt	LTP273	ltpFR2	14	2	CLOCK	325	n/a	n/a	0	0	0
1142.028	n/a	REC_WORD	571014	wordpools/wasnorm_wordpool_576.txt	LTP273	ltpFR2	14	2	BARLEY	88	n/a	n/a	0	0	0
1154.078	n/a	REC_WORD	577039	wordpools/wasnorm_wordpool_576.txt	LTP273	ltpFR2	14	2	RAZOR	1171	n/a	n/a	0	0	0
1216.926	n/a	WORD	608463	wordpools/wasnorm_wordpool_576.txt	LTP273	ltpFR2	14	3	GOBLIN	645	n/a	n/a	0	0	0
1219.732	n/a	WORD	609866	wordpools/wasnorm_wordpool_576.txt	LTP273	ltpFR2	14	3	TURTLE	1522	n/a	n/a	0	0	0
1222.462	n/a	WORD	611231	wordpools/wasnorm_wordpool_576.txt	LTP273	ltpFR2	14	3	RIFLE	1192	n/a	n/a	0	0	0
1225.072	n/a	WORD	612536	wordpools/wasnorm_wordpool_576.txt	LTP273	ltpFR2	14	3	COCOON	339	n/a	n/a	0	0	0
1227.498	n/a	WORD	613749	wordpools/wasnorm_wordpool_576.txt	LTP273	ltpFR2	14	3	ZEBRA	1635	n/a	n/a	0	0	0
1230.008	n/a	WORD	615004	wordpools/wasnorm_wordpool_576.txt	LTP273	ltpFR2	14	3	OX	994	n/a	n/a	0	0	0
1232.552	n/a	WORD	616276	wordpools/wasnorm_wordpool_576.txt	LTP273	ltpFR2	14	3	UMPIRE	1535	n/a	n/a	0	0	0
1235.178	n/a	WORD	617589	wordpools/wasnorm_wordpool_576.txt	LTP273	ltpFR2	14	3	ATOM	55	n/a	n/a	0	0	0
1237.716	n/a	WORD	618858	wordpools/wasnorm_wordpool_576.txt	LTP273	ltpFR2	14	3	VAGRANT	1544	n/a	n/a	0	0	0
1240.53	n/a	WORD	620265	wordpools/wasnorm_wordpool_576.txt	LTP273	ltpFR2	14	3	FRIAR	605	n/a	n/a	0	0	0
1243.036	n/a	WORD	621518	wordpools/wasnorm_wordpool_576.txt	LTP273	ltpFR2	14	3	CRAYON	401	n/a	n/a	0	0	0
1245.698	n/a	WORD	622849	wordpools/wasnorm_wordpool_576.txt	LTP273	ltpFR2	14	3	PIGMENT	1066	n/a	n/a	0	0	0
1248.508	n/a	WORD	624254	wordpools/wasnorm_wordpool_576.txt	LTP273	ltpFR2	14	3	FILM	565	n/a	n/a	0	0	0
1251.29	n/a	WORD	625645	wordpools/wasnorm_wordpool_576.txt	LTP273	ltpFR2	14	3	ISLAND	745	n/a	n/a	0	0	0
1254.082	n/a	WORD	627041	wordpools/wasnorm_wordpool_576.txt	LTP273	ltpFR2	14	3	PORTRAIT	1111	n/a	n/a	0	0	0
1256.672	n/a	WORD	628336	wordpools/wasnorm_wordpool_576.txt	LTP273	ltpFR2	14	3	AIRPORT	13	n/a	n/a	0	0	0
1259.302	n/a	WORD	629651	wordpools/wasnorm_wordpool_576.txt	LTP273	ltpFR2	14	3	FINGER	567	n/a	n/a	0	0	0
1261.808	n/a	WORD	630904	wordpools/wasnorm_wordpool_576.txt	LTP273	ltpFR2	14	3	SPONGE	1355	n/a	n/a	0	0	0
1264.356	n/a	WORD	632178	wordpools/wasnorm_wordpool_576.txt	LTP273	ltpFR2	14	3	PILOT	1070	n/a	n/a	0	0	0
1266.866	n/a	WORD	633433	wordpools/wasnorm_wordpool_576.txt	LTP273	ltpFR2	14	3	BUNNY	198	n/a	n/a	0	0	0
1269.374	n/a	WORD	634687	wordpools/wasnorm_wordpool_576.txt	LTP273	ltpFR2	14	3	WORLD	1622	n/a	n/a	0	0	0
1272.186	n/a	WORD	636093	wordpools/wasnorm_wordpool_576.txt	LTP273	ltpFR2	14	3	CASKET	255	n/a	n/a	0	0	0
1274.712	n/a	WORD	637356	wordpools/wasnorm_wordpool_576.txt	LTP273	ltpFR2	14	3	MUMMY	932	n/a	n/a	0	0	0
1277.15	n/a	WORD	638575	wordpools/wasnorm_wordpool_576.txt	LTP273	ltpFR2	14	3	SHOULDER	1294	n/a	n/a	0	0	0
1278.762	n/a	START	639381	n/a	LTP273	ltpFR2	14	n/a	n/a	n/a	5	n/a	n/a	n/a	n/a
1279.656	n/a	DISTRACTOR	639828	n/a	LTP273	ltpFR2	14	3	n/a	n/a	n/a	n/a	0	0	0
1279.664	n/a	PROB	639832	n/a	LTP273	ltpFR2	14	n/a	n/a	n/a	5	22	9	9	4
1282.018	n/a	PROB	641009	n/a	LTP273	ltpFR2	14	n/a	n/a	n/a	5	13	8	6	1
1283.698	n/a	PROB	641849	n/a	LTP273	ltpFR2	14	n/a	n/a	n/a	5	9	1	1	7
1284.78	n/a	PROB	642390	n/a	LTP273	ltpFR2	14	n/a	n/a	n/a	5	14	3	8	3
1286.988	n/a	PROB	643494	n/a	LTP273	ltpFR2	14	n/a	n/a	n/a	5	13	7	5	1
1288.644	n/a	PROB	644322	n/a	LTP273	ltpFR2	14	n/a	n/a	n/a	5	25	9	7	9
1291.186	n/a	PROB	645593	n/a	LTP273	ltpFR2	14	n/a	n/a	n/a	5	16	4	9	3
1293.664	n/a	PROB	646832	n/a	LTP273	ltpFR2	14	n/a	n/a	n/a	5	13	1	8	4
1295.66	n/a	PROB	647830	n/a	LTP273	ltpFR2	14	n/a	n/a	n/a	5	20	6	7	7
1297.628	n/a	PROB	648814	n/a	LTP273	ltpFR2	14	n/a	n/a	n/a	5	23	7	8	8
1299.452	n/a	PROB	649726	n/a	LTP273	ltpFR2	14	n/a	n/a	n/a	5	23	9	6	8
1302.37	n/a	STOP	651185	n/a	LTP273	ltpFR2	14	n/a	n/a	n/a	5	n/a	n/a	n/a	n/a
1304.594	n/a	REC_START	652297	n/a	LTP273	ltpFR2	14	3	n/a	n/a	n/a	n/a	0	0	0
1305.042	n/a	REC_WORD	652521	wordpools/wasnorm_wordpool_576.txt	LTP273	ltpFR2	14	3	CASKET	255	n/a	n/a	0	0	0
1305.982	n/a	REC_WORD	652991	wordpools/wasnorm_wordpool_576.txt	LTP273	ltpFR2	14	3	LASER	801	n/a	n/a	0	0	0
1315.742	n/a	REC_WORD	657871	wordpools/wasnorm_wordpool_576.txt	LTP273	ltpFR2	14	3	DOUGHNUT	490	n/a	n/a	0	0	0
1395.658	n/a	WORD	697829	wordpools/wasnorm_wordpool_576.txt	LTP273	ltpFR2	14	4	MISSILE	900	n/a	n/a	0	0	0
1398.118	n/a	WORD	699059	wordpools/wasnorm_wordpool_576.txt	LTP273	ltpFR2	14	4	OINTMENT	974	n/a	n/a	0	0	0
1400.762	n/a	WORD	700381	wordpools/wasnorm_wordpool_576.txt	LTP273	ltpFR2	14	4	OUTDOORS	987	n/a	n/a	0	0	0
1403.204	n/a	WORD	701602	wordpools/wasnorm_wordpool_576.txt	LTP273	ltpFR2	14	4	CEILING	265	n/a	n/a	0	0	0
1405.792	n/a	WORD	702896	wordpools/wasnorm_wordpool_576.txt	LTP273	ltpFR2	14	4	MOP	916	n/a	n/a	0	0	0
1408.472	n/a	WORD	704236	wordpools/wasnorm_wordpool_576.txt	LTP273	ltpFR2	14	4	BLENDER	136	n/a	n/a	0	0	0
1411.082	n/a	WORD	705541	wordpools/wasnorm_wordpool_576.txt	LTP273	ltpFR2	14	4	PRINCE	1124	n/a	n/a	0	0	0
1413.744	n/a	WORD	706872	wordpools/wasnorm_wordpool_576.txt	LTP273	ltpFR2	14	4	BOYFRIEND	162	n/a	n/a	0	0	0
1416.204	n/a	WORD	708102	wordpools/wasnorm_wordpool_576.txt	LTP273	ltpFR2	14	4	GAZELLE	628	n/a	n/a	0	0	0
1418.88	n/a	WORD	709440	wordpools/wasnorm_wordpool_576.txt	LTP273	ltpFR2	14	4	DUST	508	n/a	n/a	0	0	0
1421.39	n/a	WORD	710695	wordpools/wasnorm_wordpool_576.txt	LTP273	ltpFR2	14	4	BLACKBOARD	133	n/a	n/a	0	0	0
1424.184	n/a	WORD	712092	wordpools/wasnorm_wordpool_576.txt	LTP273	ltpFR2	14	4	ANTLER	29	n/a	n/a	0	0	0
1426.756	n/a	WORD	713378	wordpools/wasnorm_wordpool_576.txt	LTP273	ltpFR2	14	4	TRENCH	1503	n/a	n/a	0	0	0
1429.298	n/a	WORD	714649	wordpools/wasnorm_wordpool_576.txt	LTP273	ltpFR2	14	4	GLASS	639	n/a	n/a	0	0	0
1432.08	n/a	WORD	716040	wordpools/wasnorm_wordpool_576.txt	LTP273	ltpFR2	14	4	ROD	1203	n/a	n/a	0	0	0
1434.558	n/a	WORD	717279	wordpools/wasnorm_wordpool_576.txt	LTP273	ltpFR2	14	4	ACTOR	5	n/a	n/a	0	0	0
1437.284	n/a	WORD	718642	wordpools/wasnorm_wordpool_576.txt	LTP273	ltpFR2	14	4	TWISTER	1530	n/a	n/a	0	0	0
1439.71	n/a	WORD	719855	wordpools/wasnorm_wordpool_576.txt	LTP273	ltpFR2	14	4	AWARD	63	n/a	n/a	0	0	0
1442.268	n/a	WORD	721134	wordpools/wasnorm_wordpool_576.txt	LTP273	ltpFR2	14	4	MASK	876	n/a	n/a	0	0	0
1444.846	n/a	WORD	722423	wordpools/wasnorm_wordpool_576.txt	LTP273	ltpFR2	14	4	FRIEND	606	n/a	n/a	0	0	0
1447.338	n/a	WORD	723669	wordpools/wasnorm_wordpool_576.txt	LTP273	ltpFR2	14	4	NEUTRON	947	n/a	n/a	0	0	0
1450.044	n/a	WORD	725022	wordpools/wasnorm_wordpool_576.txt	LTP273	ltpFR2	14	4	SWORD	1423	n/a	n/a	0	0	0
1452.476	n/a	WORD	726238	wordpools/wasnorm_wordpool_576.txt	LTP273	ltpFR2	14	4	CHAPEL	280	n/a	n/a	0	0	0
1455.286	n/a	WORD	727643	wordpools/wasnorm_wordpool_576.txt	LTP273	ltpFR2	14	4	PREACHER	1119	n/a	n/a	0	0	0
1456.892	n/a	START	728446	n/a	LTP273	ltpFR2	14	n/a	n/a	n/a	6	n/a	n/a	n/a	n/a
1457.698	n/a	DISTRACTOR	728849	n/a	LTP273	ltpFR2	14	4	n/a	n/a	n/a	n/a	0	0	0
1457.712	n/a	PROB	728856	n/a	LTP273	ltpFR2	14	n/a	n/a	n/a	6	18	1	9	8
1459.85	n/a	PROB	729925	n/a	LTP273	ltpFR2	14	n/a	n/a	n/a	6	12	2	4	6
1461.458	n/a	PROB	730729	n/a	LTP273	ltpFR2	14	n/a	n/a	n/a	6	11	2	3	6
1462.828	n/a	PROB	731414	n/a	LTP273	ltpFR2	14	n/a	n/a	n/a	6	13	1	4	9
1463.964	n/a	PROB	731982	n/a	LTP273	ltpFR2	14	n/a	n/a	n/a	6	17	7	6	4
1466.072	n/a	PROB	733036	n/a	LTP273	ltpFR2	14	n/a	n/a	n/a	6	12	3	1	8
1467.282	n/a	PROB	733641	n/a	LTP273	ltpFR2	14	n/a	n/a	n/a	6	19	5	6	8
1468.956	n/a	PROB	734478	n/a	LTP273	ltpFR2	14	n/a	n/a	n/a	6	20	8	5	7
1470.388	n/a	PROB	735194	n/a	LTP273	ltpFR2	14	n/a	n/a	n/a	6	16	8	6	2
1471.732	n/a	PROB	735866	n/a	LTP273	ltpFR2	14	n/a	n/a	n/a	6	19	9	7	3
1472.984	n/a	PROB	736492	n/a	LTP273	ltpFR2	14	n/a	n/a	n/a	6	8	2	1	5
1474.07	n/a	PROB	737035	n/a	LTP273	ltpFR2	14	n/a	n/a	n/a	6	12	7	1	4
1475.412	n/a	PROB	737706	n/a	LTP273	ltpFR2	14	n/a	n/a	n/a	6	10	3	4	3
1476.886	n/a	PROB	738443	n/a	LTP273	ltpFR2	14	n/a	n/a	n/a	6	14	5	8	1
1478.47	n/a	PROB	739235	n/a	LTP273	ltpFR2	14	n/a	n/a	n/a	6	9	5	3	1
1479.532	n/a	STOP	739766	n/a	LTP273	ltpFR2	14	n/a	n/a	n/a	6	n/a	n/a	n/a	n/a
1482.804	n/a	REC_START	741402	n/a	LTP273	ltpFR2	14	4	n/a	n/a	n/a	n/a	0	0	0
1483.248	n/a	REC_WORD	741624	wordpools/wasnorm_wordpool_576.txt	LTP273	ltpFR2	14	4	NEUTRON	947	n/a	n/a	0	0	0
1484.032	n/a	REC_WORD	742016	wordpools/wasnorm_wordpool_576.txt	LTP273	ltpFR2	14	4	MISSILE	900	n/a	n/a	0	0	0
1486.148	n/a	REC_WORD	743074	wordpools/wasnorm_wordpool_576.txt	LTP273	ltpFR2	14	4	FRIEND	606	n/a	n/a	0	0	0
1486.742	n/a	REC_WORD	743371	wordpools/wasnorm_wordpool_576.txt	LTP273	ltpFR2	14	4	ACTOR	5	n/a	n/a	0	0	0
1487.502	n/a	REC_WORD_VV	743751	wordpools/wasnorm_wordpool_576.txt	LTP273	ltpFR2	14	4	<>	-1	n/a	n/a	0	0	0
1487.876	n/a	REC_WORD	743938	wordpools/wasnorm_wordpool_576.txt	LTP273	ltpFR2	14	4	PREACHER	1119	n/a	n/a	0	0	0
1488.552	n/a	REC_WORD	744276	wordpools/wasnorm_wordpool_576.txt	LTP273	ltpFR2	14	4	TRENCH	1503	n/a	n/a	0	0	0
1495.746	n/a	REC_WORD	747873	wordpools/wasnorm_wordpool_576.txt	LTP273	ltpFR2	14	4	CEILING	265	n/a	n/a	0	0	0
1496.45	n/a	REC_WORD	748225	wordpools/wasnorm_wordpool_576.txt	LTP273	ltpFR2	14	4	MOP	916	n/a	n/a	0	0	0
1498.002	n/a	REC_WORD	749001	wordpools/wasnorm_wordpool_576.txt	LTP273	ltpFR2	14	4	BLENDER	136	n/a	n/a	0	0	0
1502.778	n/a	REC_WORD	751389	wordpools/wasnorm_wordpool_576.txt	LTP273	ltpFR2	14	4	OINTMENT	974	n/a	n/a	0	0	0
1573.872	n/a	WORD	786936	wordpools/wasnorm_wordpool_576.txt	LTP273	ltpFR2	14	5	ARM	38	n/a	n/a	0	0	0
1576.516	n/a	WORD	788258	wordpools/wasnorm_wordpool_576.txt	LTP273	ltpFR2	14	5	LIGHTNING	820	n/a	n/a	0	0	0
1579.288	n/a	WORD	789644	wordpools/wasnorm_wordpool_576.txt	LTP273	ltpFR2	14	5	SALMON	1227	n/a	n/a	0	0	0
1581.754	n/a	WORD	790877	wordpools/wasnorm_wordpool_576.txt	LTP273	ltpFR2	14	5	CAFE	216	n/a	n/a	0	0	0
1584.492	n/a	WORD	792246	wordpools/wasnorm_wordpool_576.txt	LTP273	ltpFR2	14	5	BUBBLE	183	n/a	n/a	0	0	0
1586.956	n/a	WORD	793478	wordpools/wasnorm_wordpool_576.txt	LTP273	ltpFR2	14	5	PARROT	1015	n/a	n/a	0	0	0
1589.578	n/a	WORD	794789	wordpools/wasnorm_wordpool_576.txt	LTP273	ltpFR2	14	5	GIFT	635	n/a	n/a	0	0	0
1592.36	n/a	WORD	796180	wordpools/wasnorm_wordpool_576.txt	LTP273	ltpFR2	14	5	MARS	873	n/a	n/a	0	0	0
1594.898	n/a	WORD	797449	wordpools/wasnorm_wordpool_576.txt	LTP273	ltpFR2	14	5	CRUTCH	417	n/a	n/a	0	0	0
1597.442	n/a	WORD	798721	wordpools/wasnorm_wordpool_576.txt	LTP273	ltpFR2	14	5	BUCKET	184	n/a	n/a	0	0	0
1600.24	n/a	WORD	800120	wordpools/wasnorm_wordpool_576.txt	LTP273	ltpFR2	14	5	MARSH	874	n/a	n/a	0	0	0
1603.05	n/a	WORD	801525	wordpools/wasnorm_wordpool_576.txt	LTP273	ltpFR2	14	5	COOKBOOK	373	n/a	n/a	0	0	0
1605.594	n/a	WORD	802797	wordpools/wasnorm_wordpool_576.txt	LTP273	ltpFR2	14	5	WORKER	1621	n/a	n/a	0	0	0
1608.17	n/a	WORD	804085	wordpools/wasnorm_wordpool_576.txt	LTP273	ltpFR2	14	5	DONOR	485	n/a	n/a	0	0	0
1610.882	n/a	WORD	805441	wordpools/wasnorm_wordpool_576.txt	LTP273	ltpFR2	14	5	POWDER	1117	n/a	n/a	0	0	0
1613.422	n/a	WORD	806711	wordpools/wasnorm_wordpool_576.txt	LTP273	ltpFR2	14	5	WOMAN	1620	n/a	n/a	0	0	0
1616.118	n/a	WORD	808059	wordpools/wasnorm_wordpool_576.txt	LTP273	ltpFR2	14	5	CASHEW	253	n/a	n/a	0	0	0
1618.594	n/a	WORD	809297	wordpools/wasnorm_wordpool_576.txt	LTP273	ltpFR2	14	5	DRIVER	499	n/a	n/a	0	0	0
1621.286	n/a	WORD	810643	wordpools/wasnorm_wordpool_576.txt	LTP273	ltpFR2	14	5	TRUCK	1512	n/a	n/a	0	0	0
1623.96	n/a	WORD	811980	wordpools/wasnorm_wordpool_576.txt	LTP273	ltpFR2	14	5	BACON	67	n/a	n/a	0	0	0
1626.422	n/a	WORD	813211	wordpools/wasnorm_wordpool_576.txt	LTP273	ltpFR2	14	5	POLICE	1098	n/a	n/a	0	0	0
1629.178	n/a	WORD	814589	wordpools/wasnorm_wordpool_576.txt	LTP273	ltpFR2	14	5	SADDLE	1221	n/a	n/a	0	0	0
1631.794	n/a	WORD	815897	wordpools/wasnorm_wordpool_576.txt	LTP273	ltpFR2	14	5	MARROW	872	n/a	n/a	0	0	0
1634.366	n/a	WORD	817183	wordpools/wasnorm_wordpool_576.txt	LTP273	ltpFR2	14	5	GALLON	618	n/a	n/a	0	0	0
1635.978	n/a	START	817989	n/a	LTP273	ltpFR2	14	n/a	n/a	n/a	7	n/a	n/a	n/a	n/a
1636.978	n/a	DISTRACTOR	818489	n/a	LTP273	ltpFR2	14	5	n/a	n/a	n/a	n/a	0	0	0
1636.994	n/a	PROB	818497	n/a	LTP273	ltpFR2	14	n/a	n/a	n/a	7	16	1	6	9
1646.126	n/a	PROB	823063	n/a	LTP273	ltpFR2	14	n/a	n/a	n/a	7	16	6	4	7
1647.404	n/a	PROB	823702	n/a	LTP273	ltpFR2	14	n/a	n/a	n/a	7	2	8	3	1
1650.158	n/a	PROB	825079	n/a	LTP273	ltpFR2	14	n/a	n/a	n/a	7	14	4	3	7
1651.75	n/a	PROB	825875	n/a	LTP273	ltpFR2	14	n/a	n/a	n/a	7	21	7	5	9
1653.288	n/a	PROB	826644	n/a	LTP273	ltpFR2	14	n/a	n/a	n/a	7	10	2	4	4
1654.862	n/a	PROB	827431	n/a	LTP273	ltpFR2	14	n/a	n/a	n/a	7	4	3	1	3
1655.954	n/a	PROB	827977	n/a	LTP273	ltpFR2	14	n/a	n/a	n/a	7	22	8	7	7
1659.47	n/a	STOP	829735	n/a	LTP273	ltpFR2	14	n/a	n/a	n/a	7	n/a	n/a	n/a	n/a
1661.788	n/a	REC_START	830894	n/a	LTP273	ltpFR2	14	5	n/a	n/a	n/a	n/a	0	0	0
1662.316	n/a	REC_WORD	831158	wordpools/wasnorm_wordpool_576.txt	LTP273	ltpFR2	14	5	MASK	876	n/a	n/a	0	0	0
1663.0	n/a	REC_WORD	831500	wordpools/wasnorm_wordpool_576.txt	LTP273	ltpFR2	14	5	MARSH	874	n/a	n/a	0	0	0
1664.508	n/a	REC_WORD	832254	wordpools/wasnorm_wordpool_576.txt	LTP273	ltpFR2	14	5	MARROW	872	n/a	n/a	0	0	0
1752.824	n/a	DISTRACTOR	876412	n/a	LTP273	ltpFR2	14	6	n/a	n/a	n/a	n/a	0	0	0
1752.824	n/a	START	876412	n/a	LTP273	ltpFR2	14	n/a	n/a	n/a	8	n/a	n/a	n/a	n/a
1752.874	n/a	PROB	876437	n/a	LTP273	ltpFR2	14	n/a	n/a	n/a	8	10	7	1	2
1754.206	n/a	PROB	877103	n/a	LTP273	ltpFR2	14	n/a	n/a	n/a	8	21	7	5	9
1756.032	n/a	PROB	878016	n/a	LTP273	ltpFR2	14	n/a	n/a	n/a	8	16	2	8	6
1757.156	n/a	PROB	878578	n/a	LTP273	ltpFR2	14	n/a	n/a	n/a	8	15	5	8	2
1758.692	n/a	PROB	879346	n/a	LTP273	ltpFR2	14	n/a	n/a	n/a	8	11	6	5	3
1759.962	n/a	PROB	879981	n/a	LTP273	ltpFR2	14	n/a	n/a	n/a	8	14	9	5	1
1761.708	n/a	PROB	880854	n/a	LTP273	ltpFR2	14	n/a	n/a	n/a	8	11	3	5	3
1763.362	n/a	PROB	881681	n/a	LTP273	ltpFR2	14	n/a	n/a	n/a	8	21	8	5	9
1764.832	n/a	PROB	882416	n/a	LTP273	ltpFR2	14	n/a	n/a	n/a	8	20	7	9	4
1768.166	n/a	PROB	884083	n/a	LTP273	ltpFR2	14	n/a	n/a	n/a	8	18	4	7	7
1769.314	n/a	PROB	884657	n/a	LTP273	ltpFR2	14	n/a	n/a	n/a	8	10	3	6	2
1771.708	n/a	PROB	885854	n/a	LTP273	ltpFR2	14	n/a	n/a	n/a	8	20	9	8	3
1776.826	n/a	STOP	888413	n/a	LTP273	ltpFR2	14	n/a	n/a	n/a	8	n/a	n/a	n/a	n/a
1777.702	n/a	WORD	888851	wordpools/wasnorm_wordpool_576.txt	LTP273	ltpFR2	14	6	JUGGLER	763	n/a	n/a	0	0	0
1780.374	n/a	WORD	890187	wordpools/wasnorm_wordpool_576.txt	LTP273	ltpFR2	14	6	BLOUSE	139	n/a	n/a	0	0	0
1782.94	n/a	WORD	891470	wordpools/wasnorm_wordpool_576.txt	LTP273	ltpFR2	14	6	PENGUIN	1044	n/a	n/a	0	0	0
1785.514	n/a	WORD	892757	wordpools/wasnorm_wordpool_576.txt	LTP273	ltpFR2	14	6	ICING	732	n/a	n/a	0	0	0
1788.124	n/a	WORD	894062	wordpools/wasnorm_wordpool_576.txt	LTP273	ltpFR2	14	6	SHORTCAKE	1292	n/a	n/a	0	0	0
1790.652	n/a	WORD	895326	wordpools/wasnorm_wordpool_576.txt	LTP273	ltpFR2	14	6	MACHINE	852	n/a	n/a	0	0	0
1793.294	n/a	WORD	896647	wordpools/wasnorm_wordpool_576.txt	LTP273	ltpFR2	14	6	SPOON	1357	n/a	n/a	0	0	0
1796.088	n/a	WORD	898044	wordpools/wasnorm_wordpool_576.txt	LTP273	ltpFR2	14	6	SUSPECT	1415	n/a	n/a	0	0	0
1798.732	n/a	WORD	899366	wordpools/wasnorm_wordpool_576.txt	LTP273	ltpFR2	14	6	COSTUME	383	n/a	n/a	0	0	0
1801.46	n/a	WORD	900730	wordpools/wasnorm_wordpool_576.txt	LTP273	ltpFR2	14	6	TYPIST	1532	n/a	n/a	0	0	0
1804.114	n/a	WORD	902057	wordpools/wasnorm_wordpool_576.txt	LTP273	ltpFR2	14	6	OFFICE	972	n/a	n/a	0	0	0
1806.746	n/a	WORD	903373	wordpools/wasnorm_wordpool_576.txt	LTP273	ltpFR2	14	6	STAKE	1368	n/a	n/a	0	0	0
1809.284	n/a	WORD	904642	wordpools/wasnorm_wordpool_576.txt	LTP273	ltpFR2	14	6	DUSTPAN	509	n/a	n/a	0	0	0
1811.766	n/a	WORD	905883	wordpools/wasnorm_wordpool_576.txt	LTP273	ltpFR2	14	6	CITRUS	313	n/a	n/a	0	0	0
1814.408	n/a	WORD	907204	wordpools/wasnorm_wordpool_576.txt	LTP273	ltpFR2	14	6	GRAPE	654	n/a	n/a	0	0	0
1816.918	n/a	WORD	908459	wordpools/wasnorm_wordpool_576.txt	LTP273	ltpFR2	14	6	TRIBE	1505	n/a	n/a	0	0	0
1819.54	n/a	WORD	909770	wordpools/wasnorm_wordpool_576.txt	LTP273	ltpFR2	14	6	BOX	159	n/a	n/a	0	0	0
1822.054	n/a	WORD	911027	wordpools/wasnorm_wordpool_576.txt	LTP273	ltpFR2	14	6	INMATE	738	n/a	n/a	0	0	0
1824.598	n/a	WORD	912299	wordpools/wasnorm_wordpool_576.txt	LTP273	ltpFR2	14	6	FOX	598	n/a	n/a	0	0	0
1827.302	n/a	WORD	913651	wordpools/wasnorm_wordpool_576.txt	LTP273	ltpFR2	14	6	SURVEY	1414	n/a	n/a	0	0	0
1829.902	n/a	WORD	914951	wordpools/wasnorm_wordpool_576.txt	LTP273	ltpFR2	14	6	SUNRISE	1407	n/a	n/a	0	0	0
1832.46	n/a	WORD	916230	wordpools/wasnorm_wordpool_576.txt	LTP273	ltpFR2	14	6	PRIMATE	1123	n/a	n/a	0	0	0
1834.888	n/a	WORD	917444	wordpools/wasnorm_wordpool_576.txt	LTP273	ltpFR2	14	6	ITEM	746	n/a	n/a	0	0	0
1837.63	n/a	WORD	918815	wordpools/wasnorm_wordpool_576.txt	LTP273	ltpFR2	14	6	XEROX	1628	n/a	n/a	0	0	0
1839.238	n/a	START	919619	n/a	LTP273	ltpFR2	14	n/a	n/a	n/a	9	n/a	n/a	n/a	n/a
1840.162	n/a	DISTRACTOR	920081	n/a	LTP273	ltpFR2	14	6	n/a	n/a	n/a	n/a	0	0	0
1840.174	n/a	PROB	920087	n/a	LTP273	ltpFR2	14	n/a	n/a	n/a	9	11	2	4	5
1841.96	n/a	PROB	920980	n/a	LTP273	ltpFR2	14	n/a	n/a	n/a	9	20	8	8	6
1843.65	n/a	PROB	921825	n/a	LTP273	ltpFR2	14	n/a	n/a	n/a	9	12	3	6	3
1846.816	n/a	PROB	923408	n/a	LTP273	ltpFR2	14	n/a	n/a	n/a	9	14	4	4	6
1848.736	n/a	PROB	924368	n/a	LTP273	ltpFR2	14	n/a	n/a	n/a	9	12	2	3	7
1850.09	n/a	PROB	925045	n/a	LTP273	ltpFR2	14	n/a	n/a	n/a	9	9	1	1	7
1851.382	n/a	PROB	925691	n/a	LTP273	ltpFR2	14	n/a	n/a	n/a	9	17	7	8	2
1852.734	n/a	PROB	926367	n/a	LTP273	ltpFR2	14	n/a	n/a	n/a	9	16	7	7	2
1854.222	n/a	PROB	927111	n/a	LTP273	ltpFR2	14	n/a	n/a	n/a	9	14	1	5	8
1855.36	n/a	PROB	927680	n/a	LTP273	ltpFR2	14	n/a	n/a	n/a	9	13	8	1	4
1856.94	n/a	PROB	928470	n/a	LTP273	ltpFR2	14	n/a	n/a	n/a	9	11	2	6	5
1858.122	n/a	PROB	929061	n/a	LTP273	ltpFR2	14	n/a	n/a	n/a	9	26	8	9	9
1861.116	n/a	PROB	930558	n/a	LTP273	ltpFR2	14	n/a	n/a	n/a	9	11	6	2	3
1863.026	n/a	STOP	931513	n/a	LTP273	ltpFR2	14	n/a	n/a	n/a	9	n/a	n/a	n/a	n/a
1865.136	n/a	REC_START	932568	n/a	LTP273	ltpFR2	14	6	n/a	n/a	n/a	n/a	0	0	0
1866.308	n/a	REC_WORD	933154	wordpools/wasnorm_wordpool_576.txt	LTP273	ltpFR2	14	6	PRIMATE	1123	n/a	n/a	0	0	0
1866.87	n/a	REC_WORD	933435	wordpools/wasnorm_wordpool_576.txt	LTP273	ltpFR2	14	6	XEROX	1628	n/a	n/a	0	0	0
1867.648	n/a	REC_WORD	933824	wordpools/wasnorm_wordpool_576.txt	LTP273	ltpFR2	14	6	ICING	732	n/a	n/a	0	0	0
1868.662	n/a	REC_WORD	934331	wordpools/wasnorm_wordpool_576.txt	LTP273	ltpFR2	14	6	BOX	159	n/a	n/a	0	0	0
1956.168	n/a	DISTRACTOR	978084	n/a	LTP273	ltpFR2	14	7	n/a	n/a	n/a	n/a	0	0	0
1956.168	n/a	START	978084	n/a	LTP273	ltpFR2	14	n/a	n/a	n/a	10	n/a	n/a	n/a	n/a
1956.218	n/a	PROB	978109	n/a	LTP273	ltpFR2	14	n/a	n/a	n/a	10	16	7	6	3
1958.12	n/a	PROB	979060	n/a	LTP273	ltpFR2	14	n/a	n/a	n/a	10	14	8	5	1
1959.374	n/a	PROB	979687	n/a	LTP273	ltpFR2	14	n/a	n/a	n/a	10	8	5	1	2
1960.362	n/a	PROB	980181	n/a	LTP273	ltpFR2	14	n/a	n/a	n/a	10	15	8	4	3
1962.872	n/a	PROB	981436	n/a	LTP273	ltpFR2	14	n/a	n/a	n/a	10	21	5	8	8
1964.226	n/a	PROB	982113	n/a	LTP273	ltpFR2	14	n/a	n/a	n/a	10	11	6	4	1
1965.8	n/a	PROB	982900	n/a	LTP273	ltpFR2	14	n/a	n/a	n/a	10	17	5	6	6
1968.56	n/a	PROB	984280	n/a	LTP273	ltpFR2	14	n/a	n/a	n/a	10	20	5	9	6
1970.602	n/a	PROB	985301	n/a	LTP273	ltpFR2	14	n/a	n/a	n/a	10	16	6	2	8
1972.112	n/a	PROB	986056	n/a	LTP273	ltpFR2	14	n/a	n/a	n/a	10	12	4	4	4
1973.646	n/a	PROB	986823	n/a	LTP273	ltpFR2	14	n/a	n/a	n/a	10	16	8	7	1
1974.906	n/a	PROB	987453	n/a	LTP273	ltpFR2	14	n/a	n/a	n/a	10	21	7	5	9
1976.592	n/a	PROB	988296	n/a	LTP273	ltpFR2	14	n/a	n/a	n/a	10	18	9	4	5
1978.096	n/a	PROB	989048	n/a	LTP273	ltpFR2	14	n/a	n/a	n/a	10	24	8	9	7
1979.888	n/a	STOP	989944	n/a	LTP273	ltpFR2	14	n/a	n/a	n/a	10	n/a	n/a	n/a	n/a
1981.128	n/a	WORD	990564	wordpools/wasnorm_wordpool_576.txt	LTP273	ltpFR2	14	7	CATCHER	258	n/a	n/a	0	0	0
1983.584	n/a	WORD	991792	wordpools/wasnorm_wordpool_576.txt	LTP273	ltpFR2	14	7	SLIME	1327	n/a	n/a	0	0	0
1986.198	n/a	WORD	993099	wordpools/wasnorm_wordpool_576.txt	LTP273	ltpFR2	14	7	SCULPTURE	1258	n/a	n/a	0	0	0
1988.922	n/a	WORD	994461	wordpools/wasnorm_wordpool_576.txt	LTP273	ltpFR2	14	7	FARMER	553	n/a	n/a	0	0	0
1991.616	n/a	WORD	995808	wordpools/wasnorm_wordpool_576.txt	LTP273	ltpFR2	14	7	JELLY	755	n/a	n/a	0	0	0
1994.308	n/a	WORD	997154	wordpools/wasnorm_wordpool_576.txt	LTP273	ltpFR2	14	7	PIMPLE	1071	n/a	n/a	0	0	0
1996.836	n/a	WORD	998418	wordpools/wasnorm_wordpool_576.txt	LTP273	ltpFR2	14	7	FRECKLE	602	n/a	n/a	0	0	0
1999.612	n/a	WORD	999806	wordpools/wasnorm_wordpool_576.txt	LTP273	ltpFR2	14	7	KETCHUP	771	n/a	n/a	0	0	0
2002.076	n/a	WORD	1001038	wordpools/wasnorm_wordpool_576.txt	LTP273	ltpFR2	14	7	DANDRUFF	439	n/a	n/a	0	0	0
2004.822	n/a	WORD	1002411	wordpools/wasnorm_wordpool_576.txt	LTP273	ltpFR2	14	7	ASIA	46	n/a	n/a	0	0	0
2007.442	n/a	WORD	1003721	wordpools/wasnorm_wordpool_576.txt	LTP273	ltpFR2	14	7	THRONE	1461	n/a	n/a	0	0	0
2010.008	n/a	WORD	1005004	wordpools/wasnorm_wordpool_576.txt	LTP273	ltpFR2	14	7	HORSE	719	n/a	n/a	0	0	0
2012.51	n/a	WORD	1006255	wordpools/wasnorm_wordpool_576.txt	LTP273	ltpFR2	14	7	PERMIT	1051	n/a	n/a	0	0	0
2015.242	n/a	WORD	1007621	wordpools/wasnorm_wordpool_576.txt	LTP273	ltpFR2	14	7	TERMITE	1451	n/a	n/a	0	0	0
2017.686	n/a	WORD	1008843	wordpools/wasnorm_wordpool_576.txt	LTP273	ltpFR2	14	7	BRICK	172	n/a	n/a	0	0	0
2020.362	n/a	WORD	1010181	wordpools/wasnorm_wordpool_576.txt	LTP273	ltpFR2	14	7	SHERIFF	1284	n/a	n/a	0	0	0
2023.14	n/a	WORD	1011570	wordpools/wasnorm_wordpool_576.txt	LTP273	ltpFR2	14	7	SUBWAY	1400	n/a	n/a	0	0	0
2025.834	n/a	WORD	1012917	wordpools/wasnorm_wordpool_576.txt	LTP273	ltpFR2	14	7	JUDGE	761	n/a	n/a	0	0	0
2028.438	n/a	WORD	1014219	wordpools/wasnorm_wordpool_576.txt	LTP273	ltpFR2	14	7	IGLOO	734	n/a	n/a	0	0	0
2031.136	n/a	WORD	1015568	wordpools/wasnorm_wordpool_576.txt	LTP273	ltpFR2	14	7	HEADBAND	696	n/a	n/a	0	0	0
2033.61	n/a	WORD	1016805	wordpools/wasnorm_wordpool_576.txt	LTP273	ltpFR2	14	7	GLOBE	641	n/a	n/a	0	0	0
2036.39	n/a	WORD	1018195	wordpools/wasnorm_wordpool_576.txt	LTP273	ltpFR2	14	7	MUSTARD	935	n/a	n/a	0	0	0
2038.918	n/a	WORD	1019459	wordpools/wasnorm_wordpool_576.txt	LTP273	ltpFR2	14	7	CRIB	407	n/a	n/a	0	0	0
2041.526	n/a	WORD	1020763	wordpools/wasnorm_wordpool_576.txt	LTP273	ltpFR2	14	7	INFANT	737	n/a	n/a	0	0	0
2043.15	n/a	START	1021575	n/a	LTP273	ltpFR2	14	n/a	n/a	n/a	11	n/a	n/a	n/a	n/a
2044.122	n/a	DISTRACTOR	1022061	n/a	LTP273	ltpFR2	14	7	n/a	n/a	n/a	n/a	0	0	0
2044.136	n/a	PROB	1022068	n/a	LTP273	ltpFR2	14	n/a	n/a	n/a	11	13	5	6	2
2047.948	n/a	PROB	1023974	n/a	LTP273	ltpFR2	14	n/a	n/a	n/a	11	12	9	3	1
2048.952	n/a	PROB	1024476	n/a	LTP273	ltpFR2	14	n/a	n/a	n/a	11	14	4	3	7
2051.376	n/a	PROB	1025688	n/a	LTP273	ltpFR2	14	n/a	n/a	n/a	11	17	4	5	8
2053.924	n/a	PROB	1026962	n/a	LTP273	ltpFR2	14	n/a	n/a	n/a	11	17	6	4	7
2056.87	n/a	PROB	1028435	n/a	LTP273	ltpFR2	14	n/a	n/a	n/a	11	1	3	5	2
2058.738	n/a	PROB	1029369	n/a	LTP273	ltpFR2	14	n/a	n/a	n/a	11	13	2	9	2
2061.064	n/a	PROB	1030532	n/a	LTP273	ltpFR2	14	n/a	n/a	n/a	11	16	4	5	7
2062.452	n/a	PROB	1031226	n/a	LTP273	ltpFR2	14	n/a	n/a	n/a	11	20	6	7	7
2064.214	n/a	PROB	1032107	n/a	LTP273	ltpFR2	14	n/a	n/a	n/a	11	20	5	6	9
2067.152	n/a	STOP	1033576	n/a	LTP273	ltpFR2	14	n/a	n/a	n/a	11	n/a	n/a	n/a	n/a
2068.978	n/a	REC_START	1034489	n/a	LTP273	ltpFR2	14	7	n/a	n/a	n/a	n/a	0	0	0
2072.958	n/a	REC_WORD	1036479	wordpools/wasnorm_wordpool_576.txt	LTP273	ltpFR2	14	7	HORSE	719	n/a	n/a	0	0	0
2073.854	n/a	REC_WORD	1036927	wordpools/wasnorm_wordpool_576.txt	LTP273	ltpFR2	14	7	PIMPLE	1071	n/a	n/a	0	0	0
2074.604	n/a	REC_WORD	1037302	wordpools/wasnorm_wordpool_576.txt	LTP273	ltpFR2	14	7	FRECKLE	602	n/a	n/a	0	0	0
2075.79	n/a	REC_WORD	1037895	wordpools/wasnorm_wordpool_576.txt	LTP273	ltpFR2	14	7	ASIA	46	n/a	n/a	0	0	0
2081.272	n/a	REC_WORD	1040636	wordpools/wasnorm_wordpool_576.txt	LTP273	ltpFR2	14	7	SHERIFF	1284	n/a	n/a	0	0	0
2083.238	n/a	REC_WORD	1041619	wordpools/wasnorm_wordpool_576.txt	LTP273	ltpFR2	14	7	BRICK	172	n/a	n/a	0	0	0
2096.614	n/a	REC_WORD	1048307	wordpools/wasnorm_wordpool_576.txt	LTP273	ltpFR2	14	7	HANDCUFFS	685	n/a	n/a	0	0	0
2115.758	n/a	REC_WORD	1057879	wordpools/wasnorm_wordpool_576.txt	LTP273	ltpFR2	14	7	OUTDOORS	987	n/a	n/a	0	0	0
2160.048	n/a	WORD	1080024	wordpools/wasnorm_wordpool_576.txt	LTP273	ltpFR2	14	8	DRESS	495	n/a	n/a	0	0	0
2162.774	n/a	WORD	1081387	wordpools/wasnorm_wordpool_576.txt	LTP273	ltpFR2	14	8	JOURNAL	760	n/a	n/a	0	0	0
2165.55	n/a	WORD	1082775	wordpools/wasnorm_wordpool_576.txt	LTP273	ltpFR2	14	8	PROTON	1132	n/a	n/a	0	0	0
2168.056	n/a	WORD	1084028	wordpools/wasnorm_wordpool_576.txt	LTP273	ltpFR2	14	8	VENUS	1557	n/a	n/a	0	0	0
2170.788	n/a	WORD	1085394	wordpools/wasnorm_wordpool_576.txt	LTP273	ltpFR2	14	8	SHORTS	1293	n/a	n/a	0	0	0
2173.448	n/a	WORD	1086724	wordpools/wasnorm_wordpool_576.txt	LTP273	ltpFR2	14	8	SKIRT	1319	n/a	n/a	0	0	0
2176.226	n/a	WORD	1088113	wordpools/wasnorm_wordpool_576.txt	LTP273	ltpFR2	14	8	HARP	689	n/a	n/a	0	0	0
2178.898	n/a	WORD	1089449	wordpools/wasnorm_wordpool_576.txt	LTP273	ltpFR2	14	8	POSTAGE	1113	n/a	n/a	0	0	0
2181.374	n/a	WORD	1090687	wordpools/wasnorm_wordpool_576.txt	LTP273	ltpFR2	14	8	HUSBAND	728	n/a	n/a	0	0	0
2184.122	n/a	WORD	1092061	wordpools/wasnorm_wordpool_576.txt	LTP273	ltpFR2	14	8	HAND	683	n/a	n/a	0	0	0
2186.716	n/a	WORD	1093358	wordpools/wasnorm_wordpool_576.txt	LTP273	ltpFR2	14	8	NECKLACE	940	n/a	n/a	0	0	0
2189.27	n/a	WORD	1094635	wordpools/wasnorm_wordpool_576.txt	LTP273	ltpFR2	14	8	SHELTER	1282	n/a	n/a	0	0	0
2192.054	n/a	WORD	1096027	wordpools/wasnorm_wordpool_576.txt	LTP273	ltpFR2	14	8	CELLAR	267	n/a	n/a	0	0	0
2194.524	n/a	WORD	1097262	wordpools/wasnorm_wordpool_576.txt	LTP273	ltpFR2	14	8	BINDER	127	n/a	n/a	0	0	0
2197.184	n/a	WORD	1098592	wordpools/wasnorm_wordpool_576.txt	LTP273	ltpFR2	14	8	ROCKET	1202	n/a	n/a	0	0	0
2199.916	n/a	WORD	1099958	wordpools/wasnorm_wordpool_576.txt	LTP273	ltpFR2	14	8	COMET	353	n/a	n/a	0	0	0
2202.404	n/a	WORD	1101202	wordpools/wasnorm_wordpool_576.txt	LTP273	ltpFR2	14	8	NIGHTGOWN	953	n/a	n/a	0	0	0
2205.018	n/a	WORD	1102509	wordpools/wasnorm_wordpool_576.txt	LTP273	ltpFR2	14	8	HIGHWAY	707	n/a	n/a	0	0	0
2207.56	n/a	WORD	1103780	wordpools/wasnorm_wordpool_576.txt	LTP273	ltpFR2	14	8	BATHTUB	100	n/a	n/a	0	0	0
2210.288	n/a	WORD	1105144	wordpools/wasnorm_wordpool_576.txt	LTP273	ltpFR2	14	8	FLEET	578	n/a	n/a	0	0	0
2212.928	n/a	WORD	1106464	wordpools/wasnorm_wordpool_576.txt	LTP273	ltpFR2	14	8	PICTURE	1061	n/a	n/a	0	0	0
2215.576	n/a	WORD	1107788	wordpools/wasnorm_wordpool_576.txt	LTP273	ltpFR2	14	8	PUDDLE	1140	n/a	n/a	0	0	0
2218.118	n/a	WORD	1109059	wordpools/wasnorm_wordpool_576.txt	LTP273	ltpFR2	14	8	FREEZER	604	n/a	n/a	0	0	0
2220.596	n/a	WORD	1110298	wordpools/wasnorm_wordpool_576.txt	LTP273	ltpFR2	14	8	PACKAGE	997	n/a	n/a	0	0	0
2222.212	n/a	START	1111106	n/a	LTP273	ltpFR2	14	n/a	n/a	n/a	12	n/a	n/a	n/a	n/a
2223.046	n/a	DISTRACTOR	1111523	n/a	LTP273	ltpFR2	14	8	n/a	n/a	n/a	n/a	0	0	0
2223.054	n/a	PROB	1111527	n/a	LTP273	ltpFR2	14	n/a	n/a	n/a	12	12	1	3	8
2226.198	n/a	PROB	1113099	n/a	LTP273	ltpFR2	14	n/a	n/a	n/a	12	9	7	1	1
2227.488	n/a	PROB	1113744	n/a	LTP273	ltpFR2	14	n/a	n/a	n/a	12	8	2	5	1
2228.626	n/a	PROB	1114313	n/a	LTP273	ltpFR2	14	n/a	n/a	n/a	12	26	9	9	8
2230.528	n/a	PROB	1115264	n/a	LTP273	ltpFR2	14	n/a	n/a	n/a	12	18	3	8	7
2232.068	n/a	PROB	1116034	n/a	LTP273	ltpFR2	14	n/a	n/a	n/a	12	18	6	8	4
2233.376	n/a	PROB	1116688	n/a	LTP273	ltpFR2	14	n/a	n/a	n/a	12	15	6	6	9
2235.402	n/a	PROB	1117701	n/a	LTP273	ltpFR2	14	n/a	n/a	n/a	12	17	8	1	8
2237.488	n/a	PROB	1118744	n/a	LTP273	ltpFR2	14	n/a	n/a	n/a	12	17	8	4	5
2240.202	n/a	PROB	1120101	n/a	LTP273	ltpFR2	14	n/a	n/a	n/a	12	16	3	4	9
2241.888	n/a	PROB	1120944	n/a	LTP273	ltpFR2	14	n/a	n/a	n/a	12	16	4	8	4
2243.36	n/a	PROB	1121680	n/a	LTP273	ltpFR2	14	n/a	n/a	n/a	12	15	3	9	3
2244.694	n/a	STOP	1122347	n/a	LTP273	ltpFR2	14	n/a	n/a	n/a	12	n/a	n/a	n/a	n/a
2248.112	n/a	REC_START	1124056	n/a	LTP273	ltpFR2	14	8	n/a	n/a	n/a	n/a	0	0	0
2248.58	n/a	REC_WORD	1124290	wordpools/wasnorm_wordpool_576.txt	LTP273	ltpFR2	14	8	PACKAGE	997	n/a	n/a	0	0	0
2250.062	n/a	REC_WORD	1125031	wordpools/wasnorm_wordpool_576.txt	LTP273	ltpFR2	14	8	POSTAGE	1113	n/a	n/a	0	0	0
2251.992	n/a	REC_WORD	1125996	wordpools/wasnorm_wordpool_576.txt	LTP273	ltpFR2	14	8	STAMP	1370	n/a	n/a	0	0	0
2258.068	n/a	REC_WORD	1129034	wordpools/wasnorm_wordpool_576.txt	LTP273	ltpFR2	14	8	DRESS	495	n/a	n/a	0	0	0
2259.688	n/a	REC_WORD	1129844	wordpools/wasnorm_wordpool_576.txt	LTP273	ltpFR2	14	8	SHORTS	1293	n/a	n/a	0	0	0
2261.394	n/a	REC_WORD	1130697	wordpools/wasnorm_wordpool_576.txt	LTP273	ltpFR2	14	8	SKIRT	1319	n/a	n/a	0	0	0
2324.878	n/a	REST_REWET	1162439	n/a	LTP273	ltpFR2	14	8	n/a	n/a	n/a	n/a	0	0	0
2649.55	n/a	WORD	1324775	wordpools/wasnorm_wordpool_576.txt	LTP273	ltpFR2	14	9	SANDWICH	1232	n/a	n/a	0	0	0
2652.222	n/a	WORD	1326111	wordpools/wasnorm_wordpool_576.txt	LTP273	ltpFR2	14	9	PLIERS	1089	n/a	n/a	0	0	0
2654.972	n/a	WORD	1327486	wordpools/wasnorm_wordpool_576.txt	LTP273	ltpFR2	14	9	SERVER	1272	n/a	n/a	0	0	0
2657.666	n/a	WORD	1328833	wordpools/wasnorm_wordpool_576.txt	LTP273	ltpFR2	14	9	STOVE	1388	n/a	n/a	0	0	0
2660.158	n/a	WORD	1330079	wordpools/wasnorm_wordpool_576.txt	LTP273	ltpFR2	14	9	NOMAD	955	n/a	n/a	0	0	0
2662.77	n/a	WORD	1331385	wordpools/wasnorm_wordpool_576.txt	LTP273	ltpFR2	14	9	PIGEON	1065	n/a	n/a	0	0	0
2665.378	n/a	WORD	1332689	wordpools/wasnorm_wordpool_576.txt	LTP273	ltpFR2	14	9	YACHT	1629	n/a	n/a	0	0	0
2667.934	n/a	WORD	1333967	wordpools/wasnorm_wordpool_576.txt	LTP273	ltpFR2	14	9	TEMPLE	1448	n/a	n/a	0	0	0
2670.75	n/a	WORD	1335375	wordpools/wasnorm_wordpool_576.txt	LTP273	ltpFR2	14	9	CHURCH	307	n/a	n/a	0	0	0
2673.292	n/a	WORD	1336646	wordpools/wasnorm_wordpool_576.txt	LTP273	ltpFR2	14	9	CONCERT	360	n/a	n/a	0	0	0
2675.954	n/a	WORD	1337977	wordpools/wasnorm_wordpool_576.txt	LTP273	ltpFR2	14	9	POCKET	1093	n/a	n/a	0	0	0
2678.412	n/a	WORD	1339206	wordpools/wasnorm_wordpool_576.txt	LTP273	ltpFR2	14	9	TRANSPLANT	1496	n/a	n/a	0	0	0
2681.206	n/a	WORD	1340603	wordpools/wasnorm_wordpool_576.txt	LTP273	ltpFR2	14	9	TROMBONE	1508	n/a	n/a	0	0	0
2683.934	n/a	WORD	1341967	wordpools/wasnorm_wordpool_576.txt	LTP273	ltpFR2	14	9	BABY	64	n/a	n/a	0	0	0
2686.554	n/a	WORD	1343277	wordpools/wasnorm_wordpool_576.txt	LTP273	ltpFR2	14	9	LASER	801	n/a	n/a	0	0	0
2689.336	n/a	WORD	1344668	wordpools/wasnorm_wordpool_576.txt	LTP273	ltpFR2	14	9	SWITCH	1422	n/a	n/a	0	0	0
2691.83	n/a	WORD	1345915	wordpools/wasnorm_wordpool_576.txt	LTP273	ltpFR2	14	9	APPLE	33	n/a	n/a	0	0	0
2694.456	n/a	WORD	1347228	wordpools/wasnorm_wordpool_576.txt	LTP273	ltpFR2	14	9	MARINE	869	n/a	n/a	0	0	0
2696.984	n/a	WORD	1348492	wordpools/wasnorm_wordpool_576.txt	LTP273	ltpFR2	14	9	CRATER	400	n/a	n/a	0	0	0
2699.458	n/a	WORD	1349729	wordpools/wasnorm_wordpool_576.txt	LTP273	ltpFR2	14	9	WASHER	1592	n/a	n/a	0	0	0
2702.014	n/a	WORD	1351007	wordpools/wasnorm_wordpool_576.txt	LTP273	ltpFR2	14	9	FOREHEAD	592	n/a	n/a	0	0	0
2704.774	n/a	WORD	1352387	wordpools/wasnorm_wordpool_576.txt	LTP273	ltpFR2	14	9	STALLION	1369	n/a	n/a	0	0	0
2707.338	n/a	WORD	1353669	wordpools/wasnorm_wordpool_576.txt	LTP273	ltpFR2	14	9	TURNIP	1521	n/a	n/a	0	0	0
2709.766	n/a	WORD	1354883	wordpools/wasnorm_wordpool_576.txt	LTP273	ltpFR2	14	9	PATIENT	1024	n/a	n/a	0	0	0
2711.384	n/a	START	1355692	n/a	LTP273	ltpFR2	14	n/a	n/a	n/a	13	n/a	n/a	n/a	n/a
2712.262	n/a	DISTRACTOR	1356131	n/a	LTP273	ltpFR2	14	9	n/a	n/a	n/a	n/a	0	0	0
2712.274	n/a	PROB	1356137	n/a	LTP273	ltpFR2	14	n/a	n/a	n/a	13	14	5	1	8
2714.594	n/a	PROB	1357297	n/a	LTP273	ltpFR2	14	n/a	n/a	n/a	13	8	2	2	4
2715.818	n/a	PROB	1357909	n/a	LTP273	ltpFR2	14	n/a	n/a	n/a	13	22	8	9	5
2717.594	n/a	PROB	1358797	n/a	LTP273	ltpFR2	14	n/a	n/a	n/a	13	13	7	1	5
2719.53	n/a	PROB	1359765	n/a	LTP273	ltpFR2	14	n/a	n/a	n/a	13	8	1	6	1
2720.534	n/a	PROB	1360267	n/a	LTP273	ltpFR2	14	n/a	n/a	n/a	13	8	4	3	1
2721.592	n/a	PROB	1360796	n/a	LTP273	ltpFR2	14	n/a	n/a	n/a	13	23	8	9	6
2723.312	n/a	PROB	1361656	n/a	LTP273	ltpFR2	14	n/a	n/a	n/a	13	16	5	9	2
2725.486	n/a	PROB	1362743	n/a	LTP273	ltpFR2	14	n/a	n/a	n/a	13	17	3	8	6
2727.51	n/a	PROB	1363755	n/a	LTP273	ltpFR2	14	n/a	n/a	n/a	13	6	1	4	1
2728.788	n/a	PROB	1364394	n/a	LTP273	ltpFR2	14	n/a	n/a	n/a	13	18	3	8	7
2732.05	n/a	PROB	1366025	n/a	LTP273	ltpFR2	14	n/a	n/a	n/a	13	11	1	4	6
2735.384	n/a	STOP	1367692	n/a	LTP273	ltpFR2	14	n/a	n/a	n/a	13	n/a	n/a	n/a	n/a
2737.248	n/a	REC_START	1368624	n/a	LTP273	ltpFR2	14	9	n/a	n/a	n/a	n/a	0	0	0
2741.19	n/a	REC_WORD	1370595	wordpools/wasnorm_wordpool_576.txt	LTP273	ltpFR2	14	9	WASHER	1592	n/a	n/a	0	0	0
2828.284	n/a	DISTRACTOR	1414142	n/a	LTP273	ltpFR2	14	10	n/a	n/a	n/a	n/a	0	0	0
2828.284	n/a	START	1414142	n/a	LTP273	ltpFR2	14	n/a	n/a	n/a	14	n/a	n/a	n/a	n/a
2828.334	n/a	PROB	1414167	n/a	LTP273	ltpFR2	14	n/a	n/a	n/a	14	10	5	1	4
2830.102	n/a	PROB	1415051	n/a	LTP273	ltpFR2	14	n/a	n/a	n/a	14	8	2	2	4
2833.298	n/a	PROB	1416649	n/a	LTP273	ltpFR2	14	n/a	n/a	n/a	14	17	8	7	2
2834.722	n/a	PROB	1417361	n/a	LTP273	ltpFR2	14	n/a	n/a	n/a	14	15	5	2	8
2836.26	n/a	PROB	1418130	n/a	LTP273	ltpFR2	14	n/a	n/a	n/a	14	17	1	9	7
2837.816	n/a	PROB	1418908	n/a	LTP273	ltpFR2	14	n/a	n/a	n/a	14	10	4	2	4
2839.59	n/a	PROB	1419795	n/a	LTP273	ltpFR2	14	n/a	n/a	n/a	14	23	6	8	9
2841.666	n/a	PROB	1420833	n/a	LTP273	ltpFR2	14	n/a	n/a	n/a	14	14	4	4	6
2843.236	n/a	PROB	1421618	n/a	LTP273	ltpFR2	14	n/a	n/a	n/a	14	16	6	6	4
2844.66	n/a	PROB	1422330	n/a	LTP273	ltpFR2	14	n/a	n/a	n/a	14	13	8	3	2
2846.348	n/a	PROB	1423174	n/a	LTP273	ltpFR2	14	n/a	n/a	n/a	14	15	2	7	6
2847.62	n/a	PROB	1423810	n/a	LTP273	ltpFR2	14	n/a	n/a	n/a	14	15	4	3	8
2849.176	n/a	PROB	1424588	n/a	LTP273	ltpFR2	14	n/a	n/a	n/a	14	24	9	9	6
2851.15	n/a	STOP	1425575	n/a	LTP273	ltpFR2	14	n/a	n/a	n/a	14	n/a	n/a	n/a	n/a
2853.508	n/a	WORD	1426754	wordpools/wasnorm_wordpool_576.txt	LTP273	ltpFR2	14	10	BRANDY	169	n/a	n/a	0	0	0
2856.19	n/a	WORD	1428095	wordpools/wasnorm_wordpool_576.txt	LTP273	ltpFR2	14	10	DONKEY	484	n/a	n/a	0	0	0
2858.652	n/a	WORD	1429326	wordpools/wasnorm_wordpool_576.txt	LTP273	ltpFR2	14	10	NAPKIN	937	n/a	n/a	0	0	0
2861.194	n/a	WORD	1430597	wordpools/wasnorm_wordpool_576.txt	LTP273	ltpFR2	14	10	COLLEGE	346	n/a	n/a	0	0	0
2864.006	n/a	WORD	1432003	wordpools/wasnorm_wordpool_576.txt	LTP273	ltpFR2	14	10	MAILBOX	857	n/a	n/a	0	0	0
2866.48	n/a	WORD	1433240	wordpools/wasnorm_wordpool_576.txt	LTP273	ltpFR2	14	10	EMPIRE	530	n/a	n/a	0	0	0
2869.058	n/a	WORD	1434529	wordpools/wasnorm_wordpool_576.txt	LTP273	ltpFR2	14	10	FRUIT	610	n/a	n/a	0	0	0
2871.7	n/a	WORD	1435850	wordpools/wasnorm_wordpool_576.txt	LTP273	ltpFR2	14	10	CARROT	249	n/a	n/a	0	0	0
2874.222	n/a	WORD	1437111	wordpools/wasnorm_wordpool_576.txt	LTP273	ltpFR2	14	10	JUNGLE	764	n/a	n/a	0	0	0
2876.7	n/a	WORD	1438350	wordpools/wasnorm_wordpool_576.txt	LTP273	ltpFR2	14	10	ORANGE	980	n/a	n/a	0	0	0
2879.258	n/a	WORD	1439629	wordpools/wasnorm_wordpool_576.txt	LTP273	ltpFR2	14	10	YARN	1631	n/a	n/a	0	0	0
2881.824	n/a	WORD	1440912	wordpools/wasnorm_wordpool_576.txt	LTP273	ltpFR2	14	10	PADDLE	1000	n/a	n/a	0	0	0
2884.628	n/a	WORD	1442314	wordpools/wasnorm_wordpool_576.txt	LTP273	ltpFR2	14	10	GHETTO	633	n/a	n/a	0	0	0
2887.126	n/a	WORD	1443563	wordpools/wasnorm_wordpool_576.txt	LTP273	ltpFR2	14	10	COURSE	390	n/a	n/a	0	0	0
2889.546	n/a	WORD	1444773	wordpools/wasnorm_wordpool_576.txt	LTP273	ltpFR2	14	10	STOMACH	1384	n/a	n/a	0	0	0
2892.162	n/a	WORD	1446081	wordpools/wasnorm_wordpool_576.txt	LTP273	ltpFR2	14	10	COCKTAIL	338	n/a	n/a	0	0	0
2894.952	n/a	WORD	1447476	wordpools/wasnorm_wordpool_576.txt	LTP273	ltpFR2	14	10	CAMEL	223	n/a	n/a	0	0	0
2897.562	n/a	WORD	1448781	wordpools/wasnorm_wordpool_576.txt	LTP273	ltpFR2	14	10	FOOTBALL	591	n/a	n/a	0	0	0
2900.226	n/a	WORD	1450113	wordpools/wasnorm_wordpool_576.txt	LTP273	ltpFR2	14	10	BLADE	134	n/a	n/a	0	0	0
2903.004	n/a	WORD	1451502	wordpools/wasnorm_wordpool_576.txt	LTP273	ltpFR2	14	10	SCISSORS	1250	n/a	n/a	0	0	0
2905.53	n/a	WORD	1452765	wordpools/wasnorm_wordpool_576.txt	LTP273	ltpFR2	14	10	BISON	131	n/a	n/a	0	0	0
2908.134	n/a	WORD	1454067	wordpools/wasnorm_wordpool_576.txt	LTP273	ltpFR2	14	10	COBRA	336	n/a	n/a	0	0	0
2910.582	n/a	WORD	1455291	wordpools/wasnorm_wordpool_576.txt	LTP273	ltpFR2	14	10	PLATE	1086	n/a	n/a	0	0	0
2913.138	n/a	WORD	1456569	wordpools/wasnorm_wordpool_576.txt	LTP273	ltpFR2	14	10	DINER	467	n/a	n/a	0	0	0
2914.75	n/a	START	1457375	n/a	LTP273	ltpFR2	14	n/a	n/a	n/a	15	n/a	n/a	n/a	n/a
2915.77	n/a	DISTRACTOR	1457885	n/a	LTP273	ltpFR2	14	10	n/a	n/a	n/a	n/a	0	0	0
2915.786	n/a	PROB	1457893	n/a	LTP273	ltpFR2	14	n/a	n/a	n/a	15	13	1	8	4
2918.71	n/a	PROB	1459355	n/a	LTP273	ltpFR2	14	n/a	n/a	n/a	15	20	5	6	8
2921.956	n/a	PROB	1460978	n/a	LTP273	ltpFR2	14	n/a	n/a	n/a	15	21	4	8	9
2924.838	n/a	PROB	1462419	n/a	LTP273	ltpFR2	14	n/a	n/a	n/a	15	17	2	7	8
2926.442	n/a	PROB	1463221	n/a	LTP273	ltpFR2	14	n/a	n/a	n/a	15	11	7	2	2
2927.424	n/a	PROB	1463712	n/a	LTP273	ltpFR2	14	n/a	n/a	n/a	15	13	4	7	2
2931.044	n/a	PROB	1465522	n/a	LTP273	ltpFR2	14	n/a	n/a	n/a	15	17	3	8	6
2932.684	n/a	PROB	1466342	n/a	LTP273	ltpFR2	14	n/a	n/a	n/a	15	13	9	1	3
2934.754	n/a	PROB	1467377	n/a	LTP273	ltpFR2	14	n/a	n/a	n/a	15	12	3	7	2
2938.75	n/a	STOP	1469375	n/a	LTP273	ltpFR2	14	n/a	n/a	n/a	15	n/a	n/a	n/a	n/a
2940.698	n/a	REC_START	1470349	n/a	LTP273	ltpFR2	14	10	n/a	n/a	n/a	n/a	0	0	0
2941.13	n/a	REC_WORD	1470565	wordpools/wasnorm_wordpool_576.txt	LTP273	ltpFR2	14	10	DINER	467	n/a	n/a	0	0	0
2941.816	n/a	REC_WORD	1470908	wordpools/wasnorm_wordpool_576.txt	LTP273	ltpFR2	14	10	COBRA	336	n/a	n/a	0	0	0
2942.512	n/a	REC_WORD	1471256	wordpools/wasnorm_wordpool_576.txt	LTP273	ltpFR2	14	10	JUNGLE	764	n/a	n/a	0	0	0
2943.93	n/a	REC_WORD	1471965	wordpools/wasnorm_wordpool_576.txt	LTP273	ltpFR2	14	10	KING	777	n/a	n/a	0	0	0
2946.0	n/a	REC_WORD	1473000	wordpools/wasnorm_wordpool_576.txt	LTP273	ltpFR2	14	10	KINGDOM	-1	n/a	n/a	0	0	0
2950.028	n/a	REC_WORD	1475014	wordpools/wasnorm_wordpool_576.txt	LTP273	ltpFR2	14	10	GHETTO	633	n/a	n/a	0	0	0
2953.842	n/a	REC_WORD	1476921	wordpools/wasnorm_wordpool_576.txt	LTP273	ltpFR2	14	10	CARROT	249	n/a	n/a	0	0	0
2955.204	n/a	REC_WORD	1477602	wordpools/wasnorm_wordpool_576.txt	LTP273	ltpFR2	14	10	FRUIT	610	n/a	n/a	0	0	0
2958.466	n/a	REC_WORD	1479233	wordpools/wasnorm_wordpool_576.txt	LTP273	ltpFR2	14	10	DONKEY	484	n/a	n/a	0	0	0
2959.734	n/a	REC_WORD	1479867	wordpools/wasnorm_wordpool_576.txt	LTP273	ltpFR2	14	10	ORANGE	980	n/a	n/a	0	0	0
2961.076	n/a	REC_WORD	1480538	wordpools/wasnorm_wordpool_576.txt	LTP273	ltpFR2	14	10	YARN	1631	n/a	n/a	0	0	0
3031.762	n/a	WORD	1515881	wordpools/wasnorm_wordpool_576.txt	LTP273	ltpFR2	14	11	SKETCH	1315	n/a	n/a	0	0	0
3034.254	n/a	WORD	1517127	wordpools/wasnorm_wordpool_576.txt	LTP273	ltpFR2	14	11	PISTON	1076	n/a	n/a	0	0	0
3036.714	n/a	WORD	1518357	wordpools/wasnorm_wordpool_576.txt	LTP273	ltpFR2	14	11	PISTOL	1075	n/a	n/a	0	0	0
3039.324	n/a	WORD	1519662	wordpools/wasnorm_wordpool_576.txt	LTP273	ltpFR2	14	11	PAIL	1002	n/a	n/a	0	0	0
3042.08	n/a	WORD	1521040	wordpools/wasnorm_wordpool_576.txt	LTP273	ltpFR2	14	11	STAMP	1370	n/a	n/a	0	0	0
3044.51	n/a	WORD	1522255	wordpools/wasnorm_wordpool_576.txt	LTP273	ltpFR2	14	11	BOUQUET	157	n/a	n/a	0	0	0
3047.1	n/a	WORD	1523550	wordpools/wasnorm_wordpool_576.txt	LTP273	ltpFR2	14	11	FLIPPER	580	n/a	n/a	0	0	0
3049.648	n/a	WORD	1524824	wordpools/wasnorm_wordpool_576.txt	LTP273	ltpFR2	14	11	SNACK	1331	n/a	n/a	0	0	0
3052.436	n/a	WORD	1526218	wordpools/wasnorm_wordpool_576.txt	LTP273	ltpFR2	14	11	MARKER	870	n/a	n/a	0	0	0
3055.214	n/a	WORD	1527607	wordpools/wasnorm_wordpool_576.txt	LTP273	ltpFR2	14	11	LAGOON	795	n/a	n/a	0	0	0
3057.828	n/a	WORD	1528914	wordpools/wasnorm_wordpool_576.txt	LTP273	ltpFR2	14	11	CUPBOARD	425	n/a	n/a	0	0	0
3060.454	n/a	WORD	1530227	wordpools/wasnorm_wordpool_576.txt	LTP273	ltpFR2	14	11	TUBA	1515	n/a	n/a	0	0	0
3063.094	n/a	WORD	1531547	wordpools/wasnorm_wordpool_576.txt	LTP273	ltpFR2	14	11	FLUTE	585	n/a	n/a	0	0	0
3065.592	n/a	WORD	1532796	wordpools/wasnorm_wordpool_576.txt	LTP273	ltpFR2	14	11	WARDROBE	1587	n/a	n/a	0	0	0
3068.218	n/a	WORD	1534109	wordpools/wasnorm_wordpool_576.txt	LTP273	ltpFR2	14	11	PANTHER	1009	n/a	n/a	0	0	0
3070.93	n/a	WORD	1535465	wordpools/wasnorm_wordpool_576.txt	LTP273	ltpFR2	14	11	MAILMAN	858	n/a	n/a	0	0	0
3073.404	n/a	WORD	1536702	wordpools/wasnorm_wordpool_576.txt	LTP273	ltpFR2	14	11	CANDY	230	n/a	n/a	0	0	0
3076.082	n/a	WORD	1538041	wordpools/wasnorm_wordpool_576.txt	LTP273	ltpFR2	14	11	PASTRY	1022	n/a	n/a	0	0	0
3078.658	n/a	WORD	1539329	wordpools/wasnorm_wordpool_576.txt	LTP273	ltpFR2	14	11	CLIMBER	323	n/a	n/a	0	0	0
3081.314	n/a	WORD	1540657	wordpools/wasnorm_wordpool_576.txt	LTP273	ltpFR2	14	11	CLAM	315	n/a	n/a	0	0	0
3083.778	n/a	WORD	1541889	wordpools/wasnorm_wordpool_576.txt	LTP273	ltpFR2	14	11	PRINCESS	1125	n/a	n/a	0	0	0
3086.566	n/a	WORD	1543283	wordpools/wasnorm_wordpool_576.txt	LTP273	ltpFR2	14	11	WHISKERS	1605	n/a	n/a	0	0	0
3089.232	n/a	WORD	1544616	wordpools/wasnorm_wordpool_576.txt	LTP273	ltpFR2	14	11	SWAMP	1416	n/a	n/a	0	0	0
3092.056	n/a	WORD	1546028	wordpools/wasnorm_wordpool_576.txt	LTP273	ltpFR2	14	11	GROUND	666	n/a	n/a	0	0	0
3093.666	n/a	START	1546833	n/a	LTP273	ltpFR2	14	n/a	n/a	n/a	16	n/a	n/a	n/a	n/a
3094.81	n/a	DISTRACTOR	1547405	n/a	LTP273	ltpFR2	14	11	n/a	n/a	n/a	n/a	0	0	0
3094.82	n/a	PROB	1547410	n/a	LTP273	ltpFR2	14	n/a	n/a	n/a	16	15	2	9	4
3098.412	n/a	PROB	1549206	n/a	LTP273	ltpFR2	14	n/a	n/a	n/a	16	14	8	3	3
3099.752	n/a	PROB	1549876	n/a	LTP273	ltpFR2	14	n/a	n/a	n/a	16	10	4	5	1
3101.44	n/a	PROB	1550720	n/a	LTP273	ltpFR2	14	n/a	n/a	n/a	16	18	5	9	4
3104.808	n/a	PROB	1552404	n/a	LTP273	ltpFR2	14	n/a	n/a	n/a	16	18	6	7	5
3107.966	n/a	PROB	1553983	n/a	LTP273	ltpFR2	14	n/a	n/a	n/a	16	21	9	7	6
3110.994	n/a	PROB	1555497	n/a	LTP273	ltpFR2	14	n/a	n/a	n/a	16	15	8	6	1
3117.668	n/a	STOP	1558834	n/a	LTP273	ltpFR2	14	n/a	n/a	n/a	16	n/a	n/a	n/a	n/a
3119.582	n/a	REC_START	1559791	n/a	LTP273	ltpFR2	14	11	n/a	n/a	n/a	n/a	0	0	0
3121.484	n/a	REC_WORD	1560742	wordpools/wasnorm_wordpool_576.txt	LTP273	ltpFR2	14	11	WHISKERS	1605	n/a	n/a	0	0	0
3124.718	n/a	REC_WORD	1562359	wordpools/wasnorm_wordpool_576.txt	LTP273	ltpFR2	14	11	ATOM	55	n/a	n/a	0	0	0
3126.4	n/a	REC_WORD	1563200	wordpools/wasnorm_wordpool_576.txt	LTP273	ltpFR2	14	11	FLUTE	585	n/a	n/a	0	0	0
3127.634	n/a	REC_WORD	1563817	wordpools/wasnorm_wordpool_576.txt	LTP273	ltpFR2	14	11	WARDROBE	1587	n/a	n/a	0	0	0
3193.892	n/a	REC_WORD	1596946	wordpools/wasnorm_wordpool_576.txt	LTP273	ltpFR2	14	11	SKETCH	1315	n/a	n/a	0	0	0
3210.612	n/a	DISTRACTOR	1605306	n/a	LTP273	ltpFR2	14	12	n/a	n/a	n/a	n/a	0	0	0
3210.612	n/a	START	1605306	n/a	LTP273	ltpFR2	14	n/a	n/a	n/a	17	n/a	n/a	n/a	n/a
3210.664	n/a	PROB	1605332	n/a	LTP273	ltpFR2	14	n/a	n/a	n/a	17	14	1	7	6
3212.402	n/a	PROB	1606201	n/a	LTP273	ltpFR2	14	n/a	n/a	n/a	17	15	7	2	6
3214.658	n/a	PROB	1607329	n/a	LTP273	ltpFR2	14	n/a	n/a	n/a	17	21	3	9	9
3217.388	n/a	PROB	1608694	n/a	LTP273	ltpFR2	14	n/a	n/a	n/a	17	9	3	2	4
3219.642	n/a	PROB	1609821	n/a	LTP273	ltpFR2	14	n/a	n/a	n/a	17	17	3	5	9
3221.7	n/a	PROB	1610850	n/a	LTP273	ltpFR2	14	n/a	n/a	n/a	17	12	2	1	9
3223.49	n/a	PROB	1611745	n/a	LTP273	ltpFR2	14	n/a	n/a	n/a	17	15	4	3	8
3234.614	n/a	STOP	1617307	n/a	LTP273	ltpFR2	14	n/a	n/a	n/a	17	n/a	n/a	n/a	n/a
3235.536	n/a	WORD	1617768	wordpools/wasnorm_wordpool_576.txt	LTP273	ltpFR2	14	12	CRITIC	410	n/a	n/a	0	0	0
3238.252	n/a	WORD	1619126	wordpools/wasnorm_wordpool_576.txt	LTP273	ltpFR2	14	12	POPCORN	1104	n/a	n/a	0	0	0
3240.878	n/a	WORD	1620439	wordpools/wasnorm_wordpool_576.txt	LTP273	ltpFR2	14	12	GUARD	667	n/a	n/a	0	0	0
3243.532	n/a	WORD	1621766	wordpools/wasnorm_wordpool_576.txt	LTP273	ltpFR2	14	12	BADGE	68	n/a	n/a	0	0	0
3245.998	n/a	WORD	1622999	wordpools/wasnorm_wordpool_576.txt	LTP273	ltpFR2	14	12	APRON	35	n/a	n/a	0	0	0
3248.44	n/a	WORD	1624220	wordpools/wasnorm_wordpool_576.txt	LTP273	ltpFR2	14	12	SODA	1341	n/a	n/a	0	0	0
3251.212	n/a	WORD	1625606	wordpools/wasnorm_wordpool_576.txt	LTP273	ltpFR2	14	12	COFFEE	341	n/a	n/a	0	0	0
3253.912	n/a	WORD	1626956	wordpools/wasnorm_wordpool_576.txt	LTP273	ltpFR2	14	12	SLUG	1329	n/a	n/a	0	0	0
3256.554	n/a	WORD	1628277	wordpools/wasnorm_wordpool_576.txt	LTP273	ltpFR2	14	12	GAVEL	627	n/a	n/a	0	0	0
3259.082	n/a	WORD	1629541	wordpools/wasnorm_wordpool_576.txt	LTP273	ltpFR2	14	12	FLASK	576	n/a	n/a	0	0	0
3261.606	n/a	WORD	1630803	wordpools/wasnorm_wordpool_576.txt	LTP273	ltpFR2	14	12	LEG	809	n/a	n/a	0	0	0
3264.084	n/a	WORD	1632042	wordpools/wasnorm_wordpool_576.txt	LTP273	ltpFR2	14	12	NURSE	963	n/a	n/a	0	0	0
3266.878	n/a	WORD	1633439	wordpools/wasnorm_wordpool_576.txt	LTP273	ltpFR2	14	12	VALVE	1546	n/a	n/a	0	0	0
3269.65	n/a	WORD	1634825	wordpools/wasnorm_wordpool_576.txt	LTP273	ltpFR2	14	12	WITNESS	1618	n/a	n/a	0	0	0
3272.226	n/a	WORD	1636113	wordpools/wasnorm_wordpool_576.txt	LTP273	ltpFR2	14	12	CRICKET	408	n/a	n/a	0	0	0
3274.724	n/a	WORD	1637362	wordpools/wasnorm_wordpool_576.txt	LTP273	ltpFR2	14	12	KNAPSACK	783	n/a	n/a	0	0	0
3277.162	n/a	WORD	1638581	wordpools/wasnorm_wordpool_576.txt	LTP273	ltpFR2	14	12	CARRIAGE	248	n/a	n/a	0	0	0
3279.844	n/a	WORD	1639922	wordpools/wasnorm_wordpool_576.txt	LTP273	ltpFR2	14	12	COLONEL	348	n/a	n/a	0	0	0
3282.448	n/a	WORD	1641224	wordpools/wasnorm_wordpool_576.txt	LTP273	ltpFR2	14	12	PASTA	1021	n/a	n/a	0	0	0
3285.026	n/a	WORD	1642513	wordpools/wasnorm_wordpool_576.txt	LTP273	ltpFR2	14	12	DRUG	501	n/a	n/a	0	0	0
3287.468	n/a	WORD	1643734	wordpools/wasnorm_wordpool_576.txt	LTP273	ltpFR2	14	12	WRIST	1626	n/a	n/a	0	0	0
3290.25	n/a	WORD	1645125	wordpools/wasnorm_wordpool_576.txt	LTP273	ltpFR2	14	12	LEADER	807	n/a	n/a	0	0	0
3292.828	n/a	WORD	1646414	wordpools/wasnorm_wordpool_576.txt	LTP273	ltpFR2	14	12	TILE	1468	n/a	n/a	0	0	0
3295.454	n/a	WORD	1647727	wordpools/wasnorm_wordpool_576.txt	LTP273	ltpFR2	14	12	MAPLE	866	n/a	n/a	0	0	0
3297.06	n/a	START	1648530	n/a	LTP273	ltpFR2	14	n/a	n/a	n/a	18	n/a	n/a	n/a	n/a
3297.97	n/a	DISTRACTOR	1648985	n/a	LTP273	ltpFR2	14	12	n/a	n/a	n/a	n/a	0	0	0
3297.98	n/a	PROB	1648990	n/a	LTP273	ltpFR2	14	n/a	n/a	n/a	18	19	6	7	6
3300.808	n/a	PROB	1650404	n/a	LTP273	ltpFR2	14	n/a	n/a	n/a	18	17	4	9	4
3303.514	n/a	PROB	1651757	n/a	LTP273	ltpFR2	14	n/a	n/a	n/a	18	16	1	9	6
3304.786	n/a	PROB	1652393	n/a	LTP273	ltpFR2	14	n/a	n/a	n/a	18	18	9	4	5
3305.94	n/a	PROB	1652970	n/a	LTP273	ltpFR2	14	n/a	n/a	n/a	18	12	3	7	2
3307.668	n/a	PROB	1653834	n/a	LTP273	ltpFR2	14	n/a	n/a	n/a	18	19	6	8	5
3310.808	n/a	PROB	1655404	n/a	LTP273	ltpFR2	14	n/a	n/a	n/a	18	17	8	7	2
3312.446	n/a	PROB	1656223	n/a	LTP273	ltpFR2	14	n/a	n/a	n/a	18	17	9	6	2
3314.042	n/a	PROB	1657021	n/a	LTP273	ltpFR2	14	n/a	n/a	n/a	18	21	7	5	9
3315.682	n/a	PROB	1657841	n/a	LTP273	ltpFR2	14	n/a	n/a	n/a	18	17	6	2	9
3321.062	n/a	STOP	1660531	n/a	LTP273	ltpFR2	14	n/a	n/a	n/a	18	n/a	n/a	n/a	n/a
3323.006	n/a	REC_START	1661503	n/a	LTP273	ltpFR2	14	12	n/a	n/a	n/a	n/a	0	0	0
3325.99	n/a	REC_WORD	1662995	wordpools/wasnorm_wordpool_576.txt	LTP273	ltpFR2	14	12	KNAPSACK	783	n/a	n/a	0	0	0
3327.096	n/a	REC_WORD	1663548	wordpools/wasnorm_wordpool_576.txt	LTP273	ltpFR2	14	12	TILE	1468	n/a	n/a	0	0	0
3331.48	n/a	REC_WORD	1665740	wordpools/wasnorm_wordpool_576.txt	LTP273	ltpFR2	14	12	COLONEL	348	n/a	n/a	0	0	0
3334.108	n/a	REC_WORD	1667054	wordpools/wasnorm_wordpool_576.txt	LTP273	ltpFR2	14	12	LEADER	807	n/a	n/a	0	0	0
3414.042	n/a	WORD	1707021	wordpools/wasnorm_wordpool_576.txt	LTP273	ltpFR2	14	13	ULCER	1533	n/a	n/a	0	0	0
3416.818	n/a	WORD	1708409	wordpools/wasnorm_wordpool_576.txt	LTP273	ltpFR2	14	13	STONE	1385	n/a	n/a	0	0	0
3419.46	n/a	WORD	1709730	wordpools/wasnorm_wordpool_576.txt	LTP273	ltpFR2	14	13	RIVER	1194	n/a	n/a	0	0	0
3422.034	n/a	WORD	1711017	wordpools/wasnorm_wordpool_576.txt	LTP273	ltpFR2	14	13	COIN	343	n/a	n/a	0	0	0
3424.682	n/a	WORD	1712341	wordpools/wasnorm_wordpool_576.txt	LTP273	ltpFR2	14	13	SUPPER	1411	n/a	n/a	0	0	0
3427.206	n/a	WORD	1713603	wordpools/wasnorm_wordpool_576.txt	LTP273	ltpFR2	14	13	CABIN	211	n/a	n/a	0	0	0
3429.868	n/a	WORD	1714934	wordpools/wasnorm_wordpool_576.txt	LTP273	ltpFR2	14	13	CHEST	295	n/a	n/a	0	0	0
3432.326	n/a	WORD	1716163	wordpools/wasnorm_wordpool_576.txt	LTP273	ltpFR2	14	13	SOFTBALL	1343	n/a	n/a	0	0	0
3434.782	n/a	WORD	1717391	wordpools/wasnorm_wordpool_576.txt	LTP273	ltpFR2	14	13	BARREL	91	n/a	n/a	0	0	0
3437.53	n/a	WORD	1718765	wordpools/wasnorm_wordpool_576.txt	LTP273	ltpFR2	14	13	SUITCASE	1403	n/a	n/a	0	0	0
3440.268	n/a	WORD	1720134	wordpools/wasnorm_wordpool_576.txt	LTP273	ltpFR2	14	13	ROBOT	1200	n/a	n/a	0	0	0
3442.834	n/a	WORD	1721417	wordpools/wasnorm_wordpool_576.txt	LTP273	ltpFR2	14	13	PEPPER	1047	n/a	n/a	0	0	0
3445.326	n/a	WORD	1722663	wordpools/wasnorm_wordpool_576.txt	LTP273	ltpFR2	14	13	FLAG	573	n/a	n/a	0	0	0
3448.088	n/a	WORD	1724044	wordpools/wasnorm_wordpool_576.txt	LTP273	ltpFR2	14	13	SEAL	1262	n/a	n/a	0	0	0
3450.528	n/a	WORD	1725264	wordpools/wasnorm_wordpool_576.txt	LTP273	ltpFR2	14	13	VELVET	1555	n/a	n/a	0	0	0
3453.124	n/a	WORD	1726562	wordpools/wasnorm_wordpool_576.txt	LTP273	ltpFR2	14	13	LOFT	840	n/a	n/a	0	0	0
3455.868	n/a	WORD	1727934	wordpools/wasnorm_wordpool_576.txt	LTP273	ltpFR2	14	13	FRANCE	601	n/a	n/a	0	0	0
3458.36	n/a	WORD	1729180	wordpools/wasnorm_wordpool_576.txt	LTP273	ltpFR2	14	13	PEBBLE	1035	n/a	n/a	0	0	0
3461.054	n/a	WORD	1730527	wordpools/wasnorm_wordpool_576.txt	LTP273	ltpFR2	14	13	FIREPLACE	570	n/a	n/a	0	0	0
3463.832	n/a	WORD	1731916	wordpools/wasnorm_wordpool_576.txt	LTP273	ltpFR2	14	13	TWIG	1527	n/a	n/a	0	0	0
3466.49	n/a	WORD	1733245	wordpools/wasnorm_wordpool_576.txt	LTP273	ltpFR2	14	13	HEDGE	699	n/a	n/a	0	0	0
3469.084	n/a	WORD	1734542	wordpools/wasnorm_wordpool_576.txt	LTP273	ltpFR2	14	13	CHIPMUNK	304	n/a	n/a	0	0	0
3471.556	n/a	WORD	1735778	wordpools/wasnorm_wordpool_576.txt	LTP273	ltpFR2	14	13	LOVER	846	n/a	n/a	0	0	0
3474.216	n/a	WORD	1737108	wordpools/wasnorm_wordpool_576.txt	LTP273	ltpFR2	14	13	PARTNER	1017	n/a	n/a	0	0	0
3475.828	n/a	START	1737914	n/a	LTP273	ltpFR2	14	n/a	n/a	n/a	19	n/a	n/a	n/a	n/a
3476.666	n/a	DISTRACTOR	1738333	n/a	LTP273	ltpFR2	14	13	n/a	n/a	n/a	n/a	0	0	0
3476.68	n/a	PROB	1738340	n/a	LTP273	ltpFR2	14	n/a	n/a	n/a	19	20	6	8	6
3479.738	n/a	PROB	1739869	n/a	LTP273	ltpFR2	14	n/a	n/a	n/a	19	8	3	3	2
3481.114	n/a	PROB	1740557	n/a	LTP273	ltpFR2	14	n/a	n/a	n/a	19	9	5	1	3
3482.748	n/a	PROB	1741374	n/a	LTP273	ltpFR2	14	n/a	n/a	n/a	19	19	7	3	9
3484.336	n/a	PROB	1742168	n/a	LTP273	ltpFR2	14	n/a	n/a	n/a	19	16	9	5	2
3486.332	n/a	PROB	1743166	n/a	LTP273	ltpFR2	14	n/a	n/a	n/a	19	16	8	7	1
3488.52	n/a	PROB	1744260	n/a	LTP273	ltpFR2	14	n/a	n/a	n/a	19	10	4	1	5
3489.76	n/a	PROB	1744880	n/a	LTP273	ltpFR2	14	n/a	n/a	n/a	19	18	8	5	5
3490.98	n/a	PROB	1745490	n/a	LTP273	ltpFR2	14	n/a	n/a	n/a	19	12	3	6	3
3493.322	n/a	PROB	1746661	n/a	LTP273	ltpFR2	14	n/a	n/a	n/a	19	15	1	7	7
3494.66	n/a	PROB	1747330	n/a	LTP273	ltpFR2	14	n/a	n/a	n/a	19	21	5	7	9
3496.702	n/a	PROB	1748351	n/a	LTP273	ltpFR2	14	n/a	n/a	n/a	19	16	6	1	9
3498.69	n/a	STOP	1749345	n/a	LTP273	ltpFR2	14	n/a	n/a	n/a	19	n/a	n/a	n/a	n/a
3501.704	n/a	REC_START	1750852	n/a	LTP273	ltpFR2	14	13	n/a	n/a	n/a	n/a	0	0	0
3502.238	n/a	REC_WORD_VV	1751119	wordpools/wasnorm_wordpool_576.txt	LTP273	ltpFR2	14	13	<>	-1	n/a	n/a	0	0	0
3502.39	n/a	REC_WORD	1751195	wordpools/wasnorm_wordpool_576.txt	LTP273	ltpFR2	14	13	HEDGE	699	n/a	n/a	0	0	0
3503.248	n/a	REC_WORD	1751624	wordpools/wasnorm_wordpool_576.txt	LTP273	ltpFR2	14	13	DOG	480	n/a	n/a	0	0	0
3505.854	n/a	REC_WORD	1752927	wordpools/wasnorm_wordpool_576.txt	LTP273	ltpFR2	14	13	SHOVEL	1295	n/a	n/a	0	0	0
3513.226	n/a	REC_WORD	1756613	wordpools/wasnorm_wordpool_576.txt	LTP273	ltpFR2	14	13	ULCER	1533	n/a	n/a	0	0	0
3513.828	n/a	REC_WORD	1756914	wordpools/wasnorm_wordpool_576.txt	LTP273	ltpFR2	14	13	STONE	1385	n/a	n/a	0	0	0
3515.566	n/a	REC_WORD	1757783	wordpools/wasnorm_wordpool_576.txt	LTP273	ltpFR2	14	13	CABIN	211	n/a	n/a	0	0	0
3516.38	n/a	REC_WORD	1758190	wordpools/wasnorm_wordpool_576.txt	LTP273	ltpFR2	14	13	CHEST	295	n/a	n/a	0	0	0
3521.164	n/a	REC_WORD	1760582	wordpools/wasnorm_wordpool_576.txt	LTP273	ltpFR2	14	13	SOFTBALL	1343	n/a	n/a	0	0	0
3592.758	n/a	WORD	1796379	wordpools/wasnorm_wordpool_576.txt	LTP273	ltpFR2	14	14	DRAWING	494	n/a	n/a	0	0	0
3595.432	n/a	WORD	1797716	wordpools/wasnorm_wordpool_576.txt	LTP273	ltpFR2	14	14	LACE	792	n/a	n/a	0	0	0
3598.244	n/a	WORD	1799122	wordpools/wasnorm_wordpool_576.txt	LTP273	ltpFR2	14	14	SEAFOOD	1260	n/a	n/a	0	0	0
3600.872	n/a	WORD	1800436	wordpools/wasnorm_wordpool_576.txt	LTP273	ltpFR2	14	14	TUTU	1524	n/a	n/a	0	0	0
3603.644	n/a	WORD	1801822	wordpools/wasnorm_wordpool_576.txt	LTP273	ltpFR2	14	14	DANCER	437	n/a	n/a	0	0	0
3606.454	n/a	WORD	1803227	wordpools/wasnorm_wordpool_576.txt	LTP273	ltpFR2	14	14	NOTEBOOK	959	n/a	n/a	0	0	0
3609.27	n/a	WORD	1804635	wordpools/wasnorm_wordpool_576.txt	LTP273	ltpFR2	14	14	FOOT	590	n/a	n/a	0	0	0
3611.992	n/a	WORD	1805996	wordpools/wasnorm_wordpool_576.txt	LTP273	ltpFR2	14	14	PAPER	1011	n/a	n/a	0	0	0
3614.59	n/a	WORD	1807295	wordpools/wasnorm_wordpool_576.txt	LTP273	ltpFR2	14	14	ROOSTER	1209	n/a	n/a	0	0	0
3617.282	n/a	WORD	1808641	wordpools/wasnorm_wordpool_576.txt	LTP273	ltpFR2	14	14	SPARROW	1347	n/a	n/a	0	0	0
3620.062	n/a	WORD	1810031	wordpools/wasnorm_wordpool_576.txt	LTP273	ltpFR2	14	14	RECEIPT	1173	n/a	n/a	0	0	0
3622.504	n/a	WORD	1811252	wordpools/wasnorm_wordpool_576.txt	LTP273	ltpFR2	14	14	BANJO	82	n/a	n/a	0	0	0
3624.976	n/a	WORD	1812488	wordpools/wasnorm_wordpool_576.txt	LTP273	ltpFR2	14	14	BELLY	119	n/a	n/a	0	0	0
3627.59	n/a	WORD	1813795	wordpools/wasnorm_wordpool_576.txt	LTP273	ltpFR2	14	14	STREAM	1392	n/a	n/a	0	0	0
3630.15	n/a	WORD	1815075	wordpools/wasnorm_wordpool_576.txt	LTP273	ltpFR2	14	14	NOVEL	960	n/a	n/a	0	0	0
3632.822	n/a	WORD	1816411	wordpools/wasnorm_wordpool_576.txt	LTP273	ltpFR2	14	14	POET	1095	n/a	n/a	0	0	0
3635.514	n/a	WORD	1817757	wordpools/wasnorm_wordpool_576.txt	LTP273	ltpFR2	14	14	YOLK	1633	n/a	n/a	0	0	0
3638.08	n/a	WORD	1819040	wordpools/wasnorm_wordpool_576.txt	LTP273	ltpFR2	14	14	LAKE	796	n/a	n/a	0	0	0
3640.742	n/a	WORD	1820371	wordpools/wasnorm_wordpool_576.txt	LTP273	ltpFR2	14	14	KLEENEX	782	n/a	n/a	0	0	0
3643.178	n/a	WORD	1821589	wordpools/wasnorm_wordpool_576.txt	LTP273	ltpFR2	14	14	SLOPE	1328	n/a	n/a	0	0	0
3645.676	n/a	WORD	1822838	wordpools/wasnorm_wordpool_576.txt	LTP273	ltpFR2	14	14	BEAST	108	n/a	n/a	0	0	0
3648.464	n/a	WORD	1824232	wordpools/wasnorm_wordpool_576.txt	LTP273	ltpFR2	14	14	OMELET	976	n/a	n/a	0	0	0
3650.912	n/a	WORD	1825456	wordpools/wasnorm_wordpool_576.txt	LTP273	ltpFR2	14	14	SKILLET	1317	n/a	n/a	0	0	0
3653.454	n/a	WORD	1826727	wordpools/wasnorm_wordpool_576.txt	LTP273	ltpFR2	14	14	FLESH	579	n/a	n/a	0	0	0
3655.062	n/a	START	1827531	n/a	LTP273	ltpFR2	14	n/a	n/a	n/a	20	n/a	n/a	n/a	n/a
3656.156	n/a	DISTRACTOR	1828078	n/a	LTP273	ltpFR2	14	14	n/a	n/a	n/a	n/a	0	0	0
3656.166	n/a	PROB	1828083	n/a	LTP273	ltpFR2	14	n/a	n/a	n/a	20	11	3	3	5
3658.738	n/a	PROB	1829369	n/a	LTP273	ltpFR2	14	n/a	n/a	n/a	20	21	9	8	4
3661.766	n/a	PROB	1830883	n/a	LTP273	ltpFR2	14	n/a	n/a	n/a	20	16	3	7	6
3663.204	n/a	PROB	1831602	n/a	LTP273	ltpFR2	14	n/a	n/a	n/a	20	14	7	3	4
3664.526	n/a	PROB	1832263	n/a	LTP273	ltpFR2	14	n/a	n/a	n/a	20	20	3	9	8
3669.544	n/a	PROB	1834772	n/a	LTP273	ltpFR2	14	n/a	n/a	n/a	20	8	2	1	5
3671.084	n/a	PROB	1835542	n/a	LTP273	ltpFR2	14	n/a	n/a	n/a	20	16	7	8	1
3672.908	n/a	PROB	1836454	n/a	LTP273	ltpFR2	14	n/a	n/a	n/a	20	9	4	1	4
3674.114	n/a	PROB	1837057	n/a	LTP273	ltpFR2	14	n/a	n/a	n/a	20	21	7	8	9
3679.064	n/a	STOP	1839532	n/a	LTP273	ltpFR2	14	n/a	n/a	n/a	20	n/a	n/a	n/a	n/a
3680.928	n/a	REC_START	1840464	n/a	LTP273	ltpFR2	14	14	n/a	n/a	n/a	n/a	0	0	0
3689.91	n/a	REC_WORD	1844955	wordpools/wasnorm_wordpool_576.txt	LTP273	ltpFR2	14	14	CROSS	413	n/a	n/a	0	0	0
3771.992	n/a	WORD	1885996	wordpools/wasnorm_wordpool_576.txt	LTP273	ltpFR2	14	15	VIKING	1565	n/a	n/a	0	0	0
3774.702	n/a	WORD	1887351	wordpools/wasnorm_wordpool_576.txt	LTP273	ltpFR2	14	15	LIVER	833	n/a	n/a	0	0	0
3777.194	n/a	WORD	1888597	wordpools/wasnorm_wordpool_576.txt	LTP273	ltpFR2	14	15	SHRUB	1299	n/a	n/a	0	0	0
3780.006	n/a	WORD	1890003	wordpools/wasnorm_wordpool_576.txt	LTP273	ltpFR2	14	15	WAITER	1580	n/a	n/a	0	0	0
3782.582	n/a	WORD	1891291	wordpools/wasnorm_wordpool_576.txt	LTP273	ltpFR2	14	15	STAR	1373	n/a	n/a	0	0	0
3785.21	n/a	WORD	1892605	wordpools/wasnorm_wordpool_576.txt	LTP273	ltpFR2	14	15	LIZARD	834	n/a	n/a	0	0	0
3787.72	n/a	WORD	1893860	wordpools/wasnorm_wordpool_576.txt	LTP273	ltpFR2	14	15	BREAST	171	n/a	n/a	0	0	0
3790.39	n/a	WORD	1895195	wordpools/wasnorm_wordpool_576.txt	LTP273	ltpFR2	14	15	BUG	187	n/a	n/a	0	0	0
3792.906	n/a	WORD	1896453	wordpools/wasnorm_wordpool_576.txt	LTP273	ltpFR2	14	15	COUCH	386	n/a	n/a	0	0	0
3795.498	n/a	WORD	1897749	wordpools/wasnorm_wordpool_576.txt	LTP273	ltpFR2	14	15	DORM	488	n/a	n/a	0	0	0
3798.026	n/a	WORD	1899013	wordpools/wasnorm_wordpool_576.txt	LTP273	ltpFR2	14	15	TABLET	1427	n/a	n/a	0	0	0
3800.496	n/a	WORD	1900248	wordpools/wasnorm_wordpool_576.txt	LTP273	ltpFR2	14	15	MESSAGE	888	n/a	n/a	0	0	0
3803.278	n/a	WORD	1901639	wordpools/wasnorm_wordpool_576.txt	LTP273	ltpFR2	14	15	RAFT	1159	n/a	n/a	0	0	0
3806.074	n/a	WORD	1903037	wordpools/wasnorm_wordpool_576.txt	LTP273	ltpFR2	14	15	SCALPEL	1243	n/a	n/a	0	0	0
3808.582	n/a	WORD	1904291	wordpools/wasnorm_wordpool_576.txt	LTP273	ltpFR2	14	15	KNIFE	785	n/a	n/a	0	0	0
3811.174	n/a	WORD	1905587	wordpools/wasnorm_wordpool_576.txt	LTP273	ltpFR2	14	15	JEANS	752	n/a	n/a	0	0	0
3813.952	n/a	WORD	1906976	wordpools/wasnorm_wordpool_576.txt	LTP273	ltpFR2	14	15	ZIPPER	1636	n/a	n/a	0	0	0
3816.556	n/a	WORD	1908278	wordpools/wasnorm_wordpool_576.txt	LTP273	ltpFR2	14	15	COOK	372	n/a	n/a	0	0	0
3819.184	n/a	WORD	1909592	wordpools/wasnorm_wordpool_576.txt	LTP273	ltpFR2	14	15	SCRIBBLE	1256	n/a	n/a	0	0	0
3821.632	n/a	WORD	1910816	wordpools/wasnorm_wordpool_576.txt	LTP273	ltpFR2	14	15	DIVER	476	n/a	n/a	0	0	0
3824.088	n/a	WORD	1912044	wordpools/wasnorm_wordpool_576.txt	LTP273	ltpFR2	14	15	DRAGON	492	n/a	n/a	0	0	0
3826.686	n/a	WORD	1913343	wordpools/wasnorm_wordpool_576.txt	LTP273	ltpFR2	14	15	REPORT	1184	n/a	n/a	0	0	0
3829.456	n/a	WORD	1914728	wordpools/wasnorm_wordpool_576.txt	LTP273	ltpFR2	14	15	WAITRESS	1581	n/a	n/a	0	0	0
3832.154	n/a	WORD	1916077	wordpools/wasnorm_wordpool_576.txt	LTP273	ltpFR2	14	15	SHARK	1275	n/a	n/a	0	0	0
3833.762	n/a	START	1916881	n/a	LTP273	ltpFR2	14	n/a	n/a	n/a	21	n/a	n/a	n/a	n/a
3834.616	n/a	DISTRACTOR	1917308	n/a	LTP273	ltpFR2	14	15	n/a	n/a	n/a	n/a	0	0	0
3834.63	n/a	PROB	1917315	n/a	LTP273	ltpFR2	14	n/a	n/a	n/a	21	18	5	6	7
3838.324	n/a	PROB	1919162	n/a	LTP273	ltpFR2	14	n/a	n/a	n/a	21	18	9	2	7
3840.55	n/a	PROB	1920275	n/a	LTP273	ltpFR2	14	n/a	n/a	n/a	21	12	2	5	5
3842.04	n/a	PROB	1921020	n/a	LTP273	ltpFR2	14	n/a	n/a	n/a	21	7	3	2	2
3843.812	n/a	PROB	1921906	n/a	LTP273	ltpFR2	14	n/a	n/a	n/a	21	18	7	4	7
3846.376	n/a	PROB	1923188	n/a	LTP273	ltpFR2	14	n/a	n/a	n/a	21	16	2	5	9
3847.728	n/a	PROB	1923864	n/a	LTP273	ltpFR2	14	n/a	n/a	n/a	21	12	3	5	4
3849.702	n/a	PROB	1924851	n/a	LTP273	ltpFR2	14	n/a	n/a	n/a	21	14	9	3	2
3851.474	n/a	PROB	1925737	n/a	LTP273	ltpFR2	14	n/a	n/a	n/a	21	18	2	8	8
3852.818	n/a	PROB	1926409	n/a	LTP273	ltpFR2	14	n/a	n/a	n/a	21	15	1	9	5
3854.888	n/a	PROB	1927444	n/a	LTP273	ltpFR2	14	n/a	n/a	n/a	21	7	1	5	1
3855.992	n/a	PROB	1927996	n/a	LTP273	ltpFR2	14	n/a	n/a	n/a	21	21	9	7	6
3857.652	n/a	STOP	1928826	n/a	LTP273	ltpFR2	14	n/a	n/a	n/a	21	n/a	n/a	n/a	n/a
3859.594	n/a	REC_START	1929797	n/a	LTP273	ltpFR2	14	15	n/a	n/a	n/a	n/a	0	0	0
3863.29	n/a	REC_WORD	1931645	wordpools/wasnorm_wordpool_576.txt	LTP273	ltpFR2	14	15	WAITRESS	1581	n/a	n/a	0	0	0
3868.008	n/a	REC_WORD	1934004	wordpools/wasnorm_wordpool_576.txt	LTP273	ltpFR2	14	15	ZIPPER	1636	n/a	n/a	0	0	0
3869.448	n/a	REC_WORD	1934724	wordpools/wasnorm_wordpool_576.txt	LTP273	ltpFR2	14	15	VIKING	1565	n/a	n/a	0	0	0
3870.766	n/a	REC_WORD	1935383	wordpools/wasnorm_wordpool_576.txt	LTP273	ltpFR2	14	15	SHRUB	1299	n/a	n/a	0	0	0
3873.278	n/a	REC_WORD	1936639	wordpools/wasnorm_wordpool_576.txt	LTP273	ltpFR2	14	15	RAFT	1159	n/a	n/a	0	0	0
3874.172	n/a	REC_WORD	1937086	wordpools/wasnorm_wordpool_576.txt	LTP273	ltpFR2	14	15	SCALPEL	1243	n/a	n/a	0	0	0
3875.42	n/a	REC_WORD	1937710	wordpools/wasnorm_wordpool_576.txt	LTP273	ltpFR2	14	15	KNIFE	785	n/a	n/a	0	0	0
3950.624	n/a	DISTRACTOR	1975312	n/a	LTP273	ltpFR2	14	16	n/a	n/a	n/a	n/a	0	0	0
3950.624	n/a	START	1975312	n/a	LTP273	ltpFR2	14	n/a	n/a	n/a	22	n/a	n/a	n/a	n/a
3950.674	n/a	PROB	1975337	n/a	LTP273	ltpFR2	14	n/a	n/a	n/a	22	11	4	6	1
3954.82	n/a	PROB	1977410	n/a	LTP273	ltpFR2	14	n/a	n/a	n/a	22	10	3	1	6
3956.43	n/a	PROB	1978215	n/a	LTP273	ltpFR2	14	n/a	n/a	n/a	22	14	9	1	4
3958.198	n/a	PROB	1979099	n/a	LTP273	ltpFR2	14	n/a	n/a	n/a	22	17	8	5	4
3960.91	n/a	PROB	1980455	n/a	LTP273	ltpFR2	14	n/a	n/a	n/a	22	8	1	5	2
3962.264	n/a	PROB	1981132	n/a	LTP273	ltpFR2	14	n/a	n/a	n/a	22	19	6	4	9
3963.39	n/a	PROB	1981695	n/a	LTP273	ltpFR2	14	n/a	n/a	n/a	22	19	3	8	8
3965.846	n/a	PROB	1982923	n/a	LTP273	ltpFR2	14	n/a	n/a	n/a	22	18	3	8	7
3969.832	n/a	PROB	1984916	n/a	LTP273	ltpFR2	14	n/a	n/a	n/a	22	24	8	9	7
3973.084	n/a	STOP	1986542	n/a	LTP273	ltpFR2	14	n/a	n/a	n/a	22	n/a	n/a	n/a	n/a
3975.654	n/a	WORD	1987827	wordpools/wasnorm_wordpool_576.txt	LTP273	ltpFR2	14	16	OUTLAW	989	n/a	n/a	0	0	0
3978.33	n/a	WORD	1989165	wordpools/wasnorm_wordpool_576.txt	LTP273	ltpFR2	14	16	LAPEL	800	n/a	n/a	0	0	0
3981.058	n/a	WORD	1990529	wordpools/wasnorm_wordpool_576.txt	LTP273	ltpFR2	14	16	SIBLING	1301	n/a	n/a	0	0	0
3983.73	n/a	WORD	1991865	wordpools/wasnorm_wordpool_576.txt	LTP273	ltpFR2	14	16	AIRPLANE	12	n/a	n/a	0	0	0
3986.194	n/a	WORD	1993097	wordpools/wasnorm_wordpool_576.txt	LTP273	ltpFR2	14	16	CLOUD	328	n/a	n/a	0	0	0
3988.956	n/a	WORD	1994478	wordpools/wasnorm_wordpool_576.txt	LTP273	ltpFR2	14	16	CROWN	415	n/a	n/a	0	0	0
3991.514	n/a	WORD	1995757	wordpools/wasnorm_wordpool_576.txt	LTP273	ltpFR2	14	16	FRAGRANCE	599	n/a	n/a	0	0	0
3994.208	n/a	WORD	1997104	wordpools/wasnorm_wordpool_576.txt	LTP273	ltpFR2	14	16	QUAIL	1147	n/a	n/a	0	0	0
3996.768	n/a	WORD	1998384	wordpools/wasnorm_wordpool_576.txt	LTP273	ltpFR2	14	16	CAPTIVE	240	n/a	n/a	0	0	0
3999.378	n/a	WORD	1999689	wordpools/wasnorm_wordpool_576.txt	LTP273	ltpFR2	14	16	REBEL	1172	n/a	n/a	0	0	0
4001.8	n/a	WORD	2000900	wordpools/wasnorm_wordpool_576.txt	LTP273	ltpFR2	14	16	FRAME	600	n/a	n/a	0	0	0
4004.558	n/a	WORD	2002279	wordpools/wasnorm_wordpool_576.txt	LTP273	ltpFR2	14	16	MOTEL	919	n/a	n/a	0	0	0
4007.304	n/a	WORD	2003652	wordpools/wasnorm_wordpool_576.txt	LTP273	ltpFR2	14	16	TOURIST	1488	n/a	n/a	0	0	0
4009.736	n/a	WORD	2004868	wordpools/wasnorm_wordpool_576.txt	LTP273	ltpFR2	14	16	SHIRT	1287	n/a	n/a	0	0	0
4012.478	n/a	WORD	2006239	wordpools/wasnorm_wordpool_576.txt	LTP273	ltpFR2	14	16	DENIM	446	n/a	n/a	0	0	0
4015.154	n/a	WORD	2007577	wordpools/wasnorm_wordpool_576.txt	LTP273	ltpFR2	14	16	PERCH	1048	n/a	n/a	0	0	0
4017.596	n/a	WORD	2008798	wordpools/wasnorm_wordpool_576.txt	LTP273	ltpFR2	14	16	PUPPY	1144	n/a	n/a	0	0	0
4020.256	n/a	WORD	2010128	wordpools/wasnorm_wordpool_576.txt	LTP273	ltpFR2	14	16	CIGAR	308	n/a	n/a	0	0	0
4022.796	n/a	WORD	2011398	wordpools/wasnorm_wordpool_576.txt	LTP273	ltpFR2	14	16	PERFUME	1049	n/a	n/a	0	0	0
4025.444	n/a	WORD	2012722	wordpools/wasnorm_wordpool_576.txt	LTP273	ltpFR2	14	16	GIRL	637	n/a	n/a	0	0	0
4027.87	n/a	WORD	2013935	wordpools/wasnorm_wordpool_576.txt	LTP273	ltpFR2	14	16	SILK	1307	n/a	n/a	0	0	0
4030.648	n/a	WORD	2015324	wordpools/wasnorm_wordpool_576.txt	LTP273	ltpFR2	14	16	PADDING	999	n/a	n/a	0	0	0
4033.206	n/a	WORD	2016603	wordpools/wasnorm_wordpool_576.txt	LTP273	ltpFR2	14	16	COMPASS	358	n/a	n/a	0	0	0
4035.734	n/a	WORD	2017867	wordpools/wasnorm_wordpool_576.txt	LTP273	ltpFR2	14	16	EAGLE	512	n/a	n/a	0	0	0
4037.34	n/a	START	2018670	n/a	LTP273	ltpFR2	14	n/a	n/a	n/a	23	n/a	n/a	n/a	n/a
4038.242	n/a	DISTRACTOR	2019121	n/a	LTP273	ltpFR2	14	16	n/a	n/a	n/a	n/a	0	0	0
4038.26	n/a	PROB	2019130	n/a	LTP273	ltpFR2	14	n/a	n/a	n/a	23	8	1	4	3
4039.794	n/a	PROB	2019897	n/a	LTP273	ltpFR2	14	n/a	n/a	n/a	23	8	4	1	3
4041.116	n/a	PROB	2020558	n/a	LTP273	ltpFR2	14	n/a	n/a	n/a	23	5	1	2	2
4042.274	n/a	PROB	2021137	n/a	LTP273	ltpFR2	14	n/a	n/a	n/a	23	15	4	8	3
4044.028	n/a	PROB	2022014	n/a	LTP273	ltpFR2	14	n/a	n/a	n/a	23	17	3	8	6
4045.604	n/a	PROB	2022802	n/a	LTP273	ltpFR2	14	n/a	n/a	n/a	23	11	2	7	2
4047.272	n/a	PROB	2023636	n/a	LTP273	ltpFR2	14	n/a	n/a	n/a	23	7	3	1	3
4048.428	n/a	PROB	2024214	n/a	LTP273	ltpFR2	14	n/a	n/a	n/a	23	18	9	7	2
4050.456	n/a	PROB	2025228	n/a	LTP273	ltpFR2	14	n/a	n/a	n/a	23	15	7	1	7
4052.208	n/a	PROB	2026104	n/a	LTP273	ltpFR2	14	n/a	n/a	n/a	23	20	7	5	8
4054.066	n/a	PROB	2027033	n/a	LTP273	ltpFR2	14	n/a	n/a	n/a	23	18	4	7	7
4055.856	n/a	PROB	2027928	n/a	LTP273	ltpFR2	14	n/a	n/a	n/a	23	16	5	9	2
4057.818	n/a	PROB	2028909	n/a	LTP273	ltpFR2	14	n/a	n/a	n/a	23	10	4	5	1
4061.34	n/a	STOP	2030670	n/a	LTP273	ltpFR2	14	n/a	n/a	n/a	23	n/a	n/a	n/a	n/a
4063.168	n/a	REC_START	2031584	n/a	LTP273	ltpFR2	14	16	n/a	n/a	n/a	n/a	0	0	0
4064.476	n/a	REC_WORD	2032238	wordpools/wasnorm_wordpool_576.txt	LTP273	ltpFR2	14	16	EAGLE	512	n/a	n/a	0	0	0
4065.472	n/a	REC_WORD	2032736	wordpools/wasnorm_wordpool_576.txt	LTP273	ltpFR2	14	16	OUTLAW	989	n/a	n/a	0	0	0
4066.22	n/a	REC_WORD	2033110	wordpools/wasnorm_wordpool_576.txt	LTP273	ltpFR2	14	16	LAPEL	800	n/a	n/a	0	0	0
4139.95	n/a	REST_REWET	2069975	n/a	LTP273	ltpFR2	14	16	n/a	n/a	n/a	n/a	0	0	0
4437.804	n/a	WORD	2218902	wordpools/wasnorm_wordpool_576.txt	LTP273	ltpFR2	14	17	COUNTY	389	n/a	n/a	0	0	0
4440.48	n/a	WORD	2220240	wordpools/wasnorm_wordpool_576.txt	LTP273	ltpFR2	14	17	PUDDING	1139	n/a	n/a	0	0	0
4443.158	n/a	WORD	2221579	wordpools/wasnorm_wordpool_576.txt	LTP273	ltpFR2	14	17	CANAL	226	n/a	n/a	0	0	0
4445.834	n/a	WORD	2222917	wordpools/wasnorm_wordpool_576.txt	LTP273	ltpFR2	14	17	SWIMMER	1420	n/a	n/a	0	0	0
4448.36	n/a	WORD	2224180	wordpools/wasnorm_wordpool_576.txt	LTP273	ltpFR2	14	17	BEAVER	109	n/a	n/a	0	0	0
4451.154	n/a	WORD	2225577	wordpools/wasnorm_wordpool_576.txt	LTP273	ltpFR2	14	17	OUTFIT	988	n/a	n/a	0	0	0
4453.766	n/a	WORD	2226883	wordpools/wasnorm_wordpool_576.txt	LTP273	ltpFR2	14	17	SPOOL	1356	n/a	n/a	0	0	0
4456.542	n/a	WORD	2228271	wordpools/wasnorm_wordpool_576.txt	LTP273	ltpFR2	14	17	RADISH	1158	n/a	n/a	0	0	0
4459.332	n/a	WORD	2229666	wordpools/wasnorm_wordpool_576.txt	LTP273	ltpFR2	14	17	LETTUCE	814	n/a	n/a	0	0	0
4462.08	n/a	WORD	2231040	wordpools/wasnorm_wordpool_576.txt	LTP273	ltpFR2	14	17	FOREST	593	n/a	n/a	0	0	0
4464.79	n/a	WORD	2232395	wordpools/wasnorm_wordpool_576.txt	LTP273	ltpFR2	14	17	CREVICE	405	n/a	n/a	0	0	0
4467.534	n/a	WORD	2233767	wordpools/wasnorm_wordpool_576.txt	LTP273	ltpFR2	14	17	WRENCH	1625	n/a	n/a	0	0	0
4470.328	n/a	WORD	2235164	wordpools/wasnorm_wordpool_576.txt	LTP273	ltpFR2	14	17	HATCHET	691	n/a	n/a	0	0	0
4472.772	n/a	WORD	2236386	wordpools/wasnorm_wordpool_576.txt	LTP273	ltpFR2	14	17	FUNGUS	614	n/a	n/a	0	0	0
4475.442	n/a	WORD	2237721	wordpools/wasnorm_wordpool_576.txt	LTP273	ltpFR2	14	17	CONVICT	371	n/a	n/a	0	0	0
4478.242	n/a	WORD	2239121	wordpools/wasnorm_wordpool_576.txt	LTP273	ltpFR2	14	17	PORK	1108	n/a	n/a	0	0	0
4480.748	n/a	WORD	2240374	wordpools/wasnorm_wordpool_576.txt	LTP273	ltpFR2	14	17	JAPAN	749	n/a	n/a	0	0	0
4483.472	n/a	WORD	2241736	wordpools/wasnorm_wordpool_576.txt	LTP273	ltpFR2	14	17	PLAID	1080	n/a	n/a	0	0	0
4485.966	n/a	WORD	2242983	wordpools/wasnorm_wordpool_576.txt	LTP273	ltpFR2	14	17	SERVANT	1271	n/a	n/a	0	0	0
4488.526	n/a	WORD	2244263	wordpools/wasnorm_wordpool_576.txt	LTP273	ltpFR2	14	17	BLOCKADE	137	n/a	n/a	0	0	0
4491.274	n/a	WORD	2245637	wordpools/wasnorm_wordpool_576.txt	LTP273	ltpFR2	14	17	BRAKE	166	n/a	n/a	0	0	0
4493.868	n/a	WORD	2246934	wordpools/wasnorm_wordpool_576.txt	LTP273	ltpFR2	14	17	LUMBER	848	n/a	n/a	0	0	0
4496.578	n/a	WORD	2248289	wordpools/wasnorm_wordpool_576.txt	LTP273	ltpFR2	14	17	ARMY	39	n/a	n/a	0	0	0
4499.034	n/a	WORD	2249517	wordpools/wasnorm_wordpool_576.txt	LTP273	ltpFR2	14	17	COUNTRY	388	n/a	n/a	0	0	0
4500.644	n/a	START	2250322	n/a	LTP273	ltpFR2	14	n/a	n/a	n/a	24	n/a	n/a	n/a	n/a
4501.57	n/a	DISTRACTOR	2250785	n/a	LTP273	ltpFR2	14	17	n/a	n/a	n/a	n/a	0	0	0
4501.58	n/a	PROB	2250790	n/a	LTP273	ltpFR2	14	n/a	n/a	n/a	24	13	2	3	8
4504.654	n/a	PROB	2252327	n/a	LTP273	ltpFR2	14	n/a	n/a	n/a	24	14	3	9	2
4506.578	n/a	PROB	2253289	n/a	LTP273	ltpFR2	14	n/a	n/a	n/a	24	17	3	6	8
4508.486	n/a	PROB	2254243	n/a	LTP273	ltpFR2	14	n/a	n/a	n/a	24	7	1	3	3
4509.708	n/a	PROB	2254854	n/a	LTP273	ltpFR2	14	n/a	n/a	n/a	24	20	7	9	4
4511.364	n/a	PROB	2255682	n/a	LTP273	ltpFR2	14	n/a	n/a	n/a	24	13	5	8	8
4512.92	n/a	PROB	2256460	n/a	LTP273	ltpFR2	14	n/a	n/a	n/a	24	15	9	2	4
4516.182	n/a	PROB	2258091	n/a	LTP273	ltpFR2	14	n/a	n/a	n/a	24	13	1	7	4
4517.772	n/a	PROB	2258886	n/a	LTP273	ltpFR2	14	n/a	n/a	n/a	24	20	9	8	4
4519.98	n/a	PROB	2259990	n/a	LTP273	ltpFR2	14	n/a	n/a	n/a	24	17	6	2	9
4521.69	n/a	PROB	2260845	n/a	LTP273	ltpFR2	14	n/a	n/a	n/a	24	15	2	4	6
4524.644	n/a	STOP	2262322	n/a	LTP273	ltpFR2	14	n/a	n/a	n/a	24	n/a	n/a	n/a	n/a
4526.51	n/a	REC_START	2263255	n/a	LTP273	ltpFR2	14	17	n/a	n/a	n/a	n/a	0	0	0
4529.528	n/a	REC_WORD	2264764	wordpools/wasnorm_wordpool_576.txt	LTP273	ltpFR2	14	17	ARMY	39	n/a	n/a	0	0	0
4541.07	n/a	REC_WORD	2270535	wordpools/wasnorm_wordpool_576.txt	LTP273	ltpFR2	14	17	LUMBER	848	n/a	n/a	0	0	0
4897.01	n/a	WORD	2448505	wordpools/wasnorm_wordpool_576.txt	LTP273	ltpFR2	14	18	SNAIL	1332	n/a	n/a	0	0	0
4899.518	n/a	WORD	2449759	wordpools/wasnorm_wordpool_576.txt	LTP273	ltpFR2	14	18	CRAB	397	n/a	n/a	0	0	0
4902.046	n/a	WORD	2451023	wordpools/wasnorm_wordpool_576.txt	LTP273	ltpFR2	14	18	SMOG	1330	n/a	n/a	0	0	0
4904.756	n/a	WORD	2452378	wordpools/wasnorm_wordpool_576.txt	LTP273	ltpFR2	14	18	LONDON	843	n/a	n/a	0	0	0
4907.264	n/a	WORD	2453632	wordpools/wasnorm_wordpool_576.txt	LTP273	ltpFR2	14	18	EYELASH	546	n/a	n/a	0	0	0
4909.724	n/a	WORD	2454862	wordpools/wasnorm_wordpool_576.txt	LTP273	ltpFR2	14	18	ICEBERG	731	n/a	n/a	0	0	0
4912.146	n/a	WORD	2456073	wordpools/wasnorm_wordpool_576.txt	LTP273	ltpFR2	14	18	LADDER	793	n/a	n/a	0	0	0
4914.844	n/a	WORD	2457422	wordpools/wasnorm_wordpool_576.txt	LTP273	ltpFR2	14	18	SPIDER	1351	n/a	n/a	0	0	0
4917.604	n/a	WORD	2458802	wordpools/wasnorm_wordpool_576.txt	LTP273	ltpFR2	14	18	VIRUS	1572	n/a	n/a	0	0	0
4920.244	n/a	WORD	2460122	wordpools/wasnorm_wordpool_576.txt	LTP273	ltpFR2	14	18	SUNSET	1408	n/a	n/a	0	0	0
4922.976	n/a	WORD	2461488	wordpools/wasnorm_wordpool_576.txt	LTP273	ltpFR2	14	18	GRIZZLY	662	n/a	n/a	0	0	0
4925.748	n/a	WORD	2462874	wordpools/wasnorm_wordpool_576.txt	LTP273	ltpFR2	14	18	SUMMIT	1405	n/a	n/a	0	0	0
4928.462	n/a	WORD	2464231	wordpools/wasnorm_wordpool_576.txt	LTP273	ltpFR2	14	18	RACKET	1155	n/a	n/a	0	0	0
4931.084	n/a	WORD	2465542	wordpools/wasnorm_wordpool_576.txt	LTP273	ltpFR2	14	18	CANYON	235	n/a	n/a	0	0	0
4933.514	n/a	WORD	2466757	wordpools/wasnorm_wordpool_576.txt	LTP273	ltpFR2	14	18	ANKLE	24	n/a	n/a	0	0	0
4936.304	n/a	WORD	2468152	wordpools/wasnorm_wordpool_576.txt	LTP273	ltpFR2	14	18	ELBOW	520	n/a	n/a	0	0	0
4939.104	n/a	WORD	2469552	wordpools/wasnorm_wordpool_576.txt	LTP273	ltpFR2	14	18	LAVA	804	n/a	n/a	0	0	0
4941.876	n/a	WORD	2470938	wordpools/wasnorm_wordpool_576.txt	LTP273	ltpFR2	14	18	ROBIN	1199	n/a	n/a	0	0	0
4944.44	n/a	WORD	2472220	wordpools/wasnorm_wordpool_576.txt	LTP273	ltpFR2	14	18	TROUT	1511	n/a	n/a	0	0	0
4947.196	n/a	WORD	2473598	wordpools/wasnorm_wordpool_576.txt	LTP273	ltpFR2	14	18	LIPSTICK	829	n/a	n/a	0	0	0
4949.71	n/a	WORD	2474855	wordpools/wasnorm_wordpool_576.txt	LTP273	ltpFR2	14	18	BASEMENT	94	n/a	n/a	0	0	0
4952.354	n/a	WORD	2476177	wordpools/wasnorm_wordpool_576.txt	LTP273	ltpFR2	14	18	COD	340	n/a	n/a	0	0	0
4954.932	n/a	WORD	2477466	wordpools/wasnorm_wordpool_576.txt	LTP273	ltpFR2	14	18	OYSTER	995	n/a	n/a	0	0	0
4957.474	n/a	WORD	2478737	wordpools/wasnorm_wordpool_576.txt	LTP273	ltpFR2	14	18	SCALLOP	1242	n/a	n/a	0	0	0
4959.08	n/a	START	2479540	n/a	LTP273	ltpFR2	14	n/a	n/a	n/a	25	n/a	n/a	n/a	n/a
4960.238	n/a	DISTRACTOR	2480119	n/a	LTP273	ltpFR2	14	18	n/a	n/a	n/a	n/a	0	0	0
4960.25	n/a	PROB	2480125	n/a	LTP273	ltpFR2	14	n/a	n/a	n/a	25	13	3	4	6
4962.522	n/a	PROB	2481261	n/a	LTP273	ltpFR2	14	n/a	n/a	n/a	25	21	9	6	6
4964.932	n/a	PROB	2482466	n/a	LTP273	ltpFR2	14	n/a	n/a	n/a	25	13	1	8	4
4966.57	n/a	PROB	2483285	n/a	LTP273	ltpFR2	14	n/a	n/a	n/a	25	9	1	2	6
4967.574	n/a	PROB	2483787	n/a	LTP273	ltpFR2	14	n/a	n/a	n/a	25	16	5	2	9
4969.464	n/a	PROB	2484732	n/a	LTP273	ltpFR2	14	n/a	n/a	n/a	25	8	2	4	2
4970.872	n/a	PROB	2485436	n/a	LTP273	ltpFR2	14	n/a	n/a	n/a	25	14	5	2	7
4972.392	n/a	PROB	2486196	n/a	LTP273	ltpFR2	14	n/a	n/a	n/a	25	26	8	9	9
4974.45	n/a	PROB	2487225	n/a	LTP273	ltpFR2	14	n/a	n/a	n/a	25	7	4	2	1
4975.588	n/a	PROB	2487794	n/a	LTP273	ltpFR2	14	n/a	n/a	n/a	25	17	5	3	9
4976.776	n/a	PROB	2488388	n/a	LTP273	ltpFR2	14	n/a	n/a	n/a	25	17	9	4	4
4978.148	n/a	PROB	2489074	n/a	LTP273	ltpFR2	14	n/a	n/a	n/a	25	16	6	4	6
4979.34	n/a	PROB	2489670	n/a	LTP273	ltpFR2	14	n/a	n/a	n/a	25	17	8	1	8
4980.658	n/a	PROB	2490329	n/a	LTP273	ltpFR2	14	n/a	n/a	n/a	25	12	3	5	4
4982.098	n/a	STOP	2491049	n/a	LTP273	ltpFR2	14	n/a	n/a	n/a	25	n/a	n/a	n/a	n/a
4984.842	n/a	REC_START	2492421	n/a	LTP273	ltpFR2	14	18	n/a	n/a	n/a	n/a	0	0	0
4985.974	n/a	REC_WORD	2492987	wordpools/wasnorm_wordpool_576.txt	LTP273	ltpFR2	14	18	OYSTER	995	n/a	n/a	0	0	0
4986.768	n/a	REC_WORD	2493384	wordpools/wasnorm_wordpool_576.txt	LTP273	ltpFR2	14	18	COD	340	n/a	n/a	0	0	0
4987.692	n/a	REC_WORD	2493846	wordpools/wasnorm_wordpool_576.txt	LTP273	ltpFR2	14	18	SNAIL	1332	n/a	n/a	0	0	0
4994.918	n/a	REC_WORD	2497459	wordpools/wasnorm_wordpool_576.txt	LTP273	ltpFR2	14	18	LONDON	843	n/a	n/a	0	0	0
4996.076	n/a	REC_WORD	2498038	wordpools/wasnorm_wordpool_576.txt	LTP273	ltpFR2	14	18	SMOG	1330	n/a	n/a	0	0	0
5404.818	n/a	DISTRACTOR	2702409	n/a	LTP273	ltpFR2	14	19	n/a	n/a	n/a	n/a	0	0	0
5404.818	n/a	START	2702409	n/a	LTP273	ltpFR2	14	n/a	n/a	n/a	26	n/a	n/a	n/a	n/a
5404.868	n/a	PROB	2702434	n/a	LTP273	ltpFR2	14	n/a	n/a	n/a	26	10	1	8	1
5407.276	n/a	PROB	2703638	n/a	LTP273	ltpFR2	14	n/a	n/a	n/a	26	12	1	5	6
5408.912	n/a	PROB	2704456	n/a	LTP273	ltpFR2	14	n/a	n/a	n/a	26	13	9	2	2
5409.932	n/a	PROB	2704966	n/a	LTP273	ltpFR2	14	n/a	n/a	n/a	26	16	3	7	6
5411.036	n/a	PROB	2705518	n/a	LTP273	ltpFR2	14	n/a	n/a	n/a	26	12	4	3	5
5413.88	n/a	PROB	2706940	n/a	LTP273	ltpFR2	14	n/a	n/a	n/a	26	16	8	5	3
5415.518	n/a	PROB	2707759	n/a	LTP273	ltpFR2	14	n/a	n/a	n/a	26	14	4	2	8
5416.842	n/a	PROB	2708421	n/a	LTP273	ltpFR2	14	n/a	n/a	n/a	26	11	2	5	4
5418.582	n/a	PROB	2709291	n/a	LTP273	ltpFR2	14	n/a	n/a	n/a	26	14	1	6	7
5421.476	n/a	PROB	2710738	n/a	LTP273	ltpFR2	14	n/a	n/a	n/a	26	15	2	9	4
5423.116	n/a	PROB	2711558	n/a	LTP273	ltpFR2	14	n/a	n/a	n/a	26	17	4	6	7
5424.878	n/a	PROB	2712439	n/a	LTP273	ltpFR2	14	n/a	n/a	n/a	26	17	3	6	8
5426.886	n/a	PROB	2713443	n/a	LTP273	ltpFR2	14	n/a	n/a	n/a	26	18	4	4	6
5428.194	n/a	STOP	2714097	n/a	LTP273	ltpFR2	14	n/a	n/a	n/a	26	n/a	n/a	n/a	n/a
5429.706	n/a	WORD	2714853	wordpools/wasnorm_wordpool_576.txt	LTP273	ltpFR2	14	19	WHISTLE	1606	n/a	n/a	0	0	0
5432.172	n/a	WORD	2716086	wordpools/wasnorm_wordpool_576.txt	LTP273	ltpFR2	14	19	AUTHOR	61	n/a	n/a	0	0	0
5434.95	n/a	WORD	2717475	wordpools/wasnorm_wordpool_576.txt	LTP273	ltpFR2	14	19	CATTLE	261	n/a	n/a	0	0	0
5437.66	n/a	WORD	2718830	wordpools/wasnorm_wordpool_576.txt	LTP273	ltpFR2	14	19	MILK	895	n/a	n/a	0	0	0
5440.152	n/a	WORD	2720076	wordpools/wasnorm_wordpool_576.txt	LTP273	ltpFR2	14	19	TOMBSTONE	1478	n/a	n/a	0	0	0
5442.88	n/a	WORD	2721440	wordpools/wasnorm_wordpool_576.txt	LTP273	ltpFR2	14	19	BUREAU	199	n/a	n/a	0	0	0
5445.354	n/a	WORD	2722677	wordpools/wasnorm_wordpool_576.txt	LTP273	ltpFR2	14	19	GRAVE	658	n/a	n/a	0	0	0
5447.848	n/a	WORD	2723924	wordpools/wasnorm_wordpool_576.txt	LTP273	ltpFR2	14	19	IDOL	733	n/a	n/a	0	0	0
5450.29	n/a	WORD	2725145	wordpools/wasnorm_wordpool_576.txt	LTP273	ltpFR2	14	19	BLUEPRINT	142	n/a	n/a	0	0	0
5453.086	n/a	WORD	2726543	wordpools/wasnorm_wordpool_576.txt	LTP273	ltpFR2	14	19	SHELF	1280	n/a	n/a	0	0	0
5455.69	n/a	WORD	2727845	wordpools/wasnorm_wordpool_576.txt	LTP273	ltpFR2	14	19	SPHINX	1349	n/a	n/a	0	0	0
5458.172	n/a	WORD	2729086	wordpools/wasnorm_wordpool_576.txt	LTP273	ltpFR2	14	19	STATUE	1374	n/a	n/a	0	0	0
5460.932	n/a	WORD	2730466	wordpools/wasnorm_wordpool_576.txt	LTP273	ltpFR2	14	19	CLAMP	316	n/a	n/a	0	0	0
5463.558	n/a	WORD	2731779	wordpools/wasnorm_wordpool_576.txt	LTP273	ltpFR2	14	19	LABEL	790	n/a	n/a	0	0	0
5466.136	n/a	WORD	2733068	wordpools/wasnorm_wordpool_576.txt	LTP273	ltpFR2	14	19	WIDOW	1608	n/a	n/a	0	0	0
5468.694	n/a	WORD	2734347	wordpools/wasnorm_wordpool_576.txt	LTP273	ltpFR2	14	19	JURY	766	n/a	n/a	0	0	0
5471.372	n/a	WORD	2735686	wordpools/wasnorm_wordpool_576.txt	LTP273	ltpFR2	14	19	BRANCH	168	n/a	n/a	0	0	0
5473.866	n/a	WORD	2736933	wordpools/wasnorm_wordpool_576.txt	LTP273	ltpFR2	14	19	HELMET	702	n/a	n/a	0	0	0
5476.306	n/a	WORD	2738153	wordpools/wasnorm_wordpool_576.txt	LTP273	ltpFR2	14	19	SAUSAGE	1238	n/a	n/a	0	0	0
5478.9	n/a	WORD	2739450	wordpools/wasnorm_wordpool_576.txt	LTP273	ltpFR2	14	19	GARDEN	623	n/a	n/a	0	0	0
5481.342	n/a	WORD	2740671	wordpools/wasnorm_wordpool_576.txt	LTP273	ltpFR2	14	19	FLOWER	584	n/a	n/a	0	0	0
5483.786	n/a	WORD	2741893	wordpools/wasnorm_wordpool_576.txt	LTP273	ltpFR2	14	19	PEANUT	1032	n/a	n/a	0	0	0
5486.344	n/a	WORD	2743172	wordpools/wasnorm_wordpool_576.txt	LTP273	ltpFR2	14	19	FLASHLIGHT	575	n/a	n/a	0	0	0
5488.804	n/a	WORD	2744402	wordpools/wasnorm_wordpool_576.txt	LTP273	ltpFR2	14	19	SNAKE	1333	n/a	n/a	0	0	0
5490.424	n/a	START	2745212	n/a	LTP273	ltpFR2	14	n/a	n/a	n/a	27	n/a	n/a	n/a	n/a
5491.266	n/a	DISTRACTOR	2745633	n/a	LTP273	ltpFR2	14	19	n/a	n/a	n/a	n/a	0	0	0
5491.28	n/a	PROB	2745640	n/a	LTP273	ltpFR2	14	n/a	n/a	n/a	27	23	7	7	9
5493.768	n/a	PROB	2746884	n/a	LTP273	ltpFR2	14	n/a	n/a	n/a	27	12	4	1	7
5495.592	n/a	PROB	2747796	n/a	LTP273	ltpFR2	14	n/a	n/a	n/a	27	19	5	5	9
5496.752	n/a	PROB	2748376	n/a	LTP273	ltpFR2	14	n/a	n/a	n/a	27	15	5	6	4
5498.04	n/a	PROB	2749020	n/a	LTP273	ltpFR2	14	n/a	n/a	n/a	27	19	7	5	7
5499.558	n/a	PROB	2749779	n/a	LTP273	ltpFR2	14	n/a	n/a	n/a	27	17	6	7	2
5502.102	n/a	PROB	2751051	n/a	LTP273	ltpFR2	14	n/a	n/a	n/a	27	12	4	4	4
5503.41	n/a	PROB	2751705	n/a	LTP273	ltpFR2	14	n/a	n/a	n/a	27	12	5	3	4
5504.928	n/a	PROB	2752464	n/a	LTP273	ltpFR2	14	n/a	n/a	n/a	27	17	3	5	9
5506.316	n/a	PROB	2753158	n/a	LTP273	ltpFR2	14	n/a	n/a	n/a	27	12	9	2	1
5507.526	n/a	PROB	2753763	n/a	LTP273	ltpFR2	14	n/a	n/a	n/a	27	24	9	8	6
5509.73	n/a	PROB	2754865	n/a	LTP273	ltpFR2	14	n/a	n/a	n/a	27	8	3	2	3
5512.112	n/a	PROB	2756056	n/a	LTP273	ltpFR2	14	n/a	n/a	n/a	27	14	3	7	4
5513.71	n/a	STOP	2756855	n/a	LTP273	ltpFR2	14	n/a	n/a	n/a	27	n/a	n/a	n/a	n/a
5516.256	n/a	REC_START	2758128	n/a	LTP273	ltpFR2	14	19	n/a	n/a	n/a	n/a	0	0	0
5518.804	n/a	REC_WORD	2759402	wordpools/wasnorm_wordpool_576.txt	LTP273	ltpFR2	14	19	TOMBSTONE	1478	n/a	n/a	0	0	0
5519.416	n/a	REC_WORD	2759708	wordpools/wasnorm_wordpool_576.txt	LTP273	ltpFR2	14	19	BUREAU	199	n/a	n/a	0	0	0
5527.26	n/a	REC_WORD	2763630	wordpools/wasnorm_wordpool_576.txt	LTP273	ltpFR2	14	19	FRANCE	601	n/a	n/a	0	0	0
5529.564	n/a	REC_WORD	2764782	wordpools/wasnorm_wordpool_576.txt	LTP273	ltpFR2	14	19	AUTHOR	61	n/a	n/a	0	0	0
5530.628	n/a	REC_WORD	2765314	wordpools/wasnorm_wordpool_576.txt	LTP273	ltpFR2	14	19	CATTLE	261	n/a	n/a	0	0	0
5531.586	n/a	REC_WORD	2765793	wordpools/wasnorm_wordpool_576.txt	LTP273	ltpFR2	14	19	MILK	895	n/a	n/a	0	0	0
5532.72	n/a	REC_WORD	2766360	wordpools/wasnorm_wordpool_576.txt	LTP273	ltpFR2	14	19	WHISTLE	1606	n/a	n/a	0	0	0
5607.324	n/a	DISTRACTOR	2803662	n/a	LTP273	ltpFR2	14	20	n/a	n/a	n/a	n/a	0	0	0
5607.324	n/a	START	2803662	n/a	LTP273	ltpFR2	14	n/a	n/a	n/a	28	n/a	n/a	n/a	n/a
5607.374	n/a	PROB	2803687	n/a	LTP273	ltpFR2	14	n/a	n/a	n/a	28	11	3	5	3
5611.09	n/a	PROB	2805545	n/a	LTP273	ltpFR2	14	n/a	n/a	n/a	28	15	4	5	6
5613.526	n/a	PROB	2806763	n/a	LTP273	ltpFR2	14	n/a	n/a	n/a	28	22	9	8	5
5617.024	n/a	PROB	2808512	n/a	LTP273	ltpFR2	14	n/a	n/a	n/a	28	19	1	9	9
5618.26	n/a	PROB	2809130	n/a	LTP273	ltpFR2	14	n/a	n/a	n/a	28	11	1	9	1
5619.198	n/a	PROB	2809599	n/a	LTP273	ltpFR2	14	n/a	n/a	n/a	28	14	8	2	2
5620.224	n/a	PROB	2810112	n/a	LTP273	ltpFR2	14	n/a	n/a	n/a	28	15	8	2	5
5622.082	n/a	PROB	2811041	n/a	LTP273	ltpFR2	14	n/a	n/a	n/a	28	7	2	4	1
5623.704	n/a	PROB	2811852	n/a	LTP273	ltpFR2	14	n/a	n/a	n/a	28	20	9	2	9
5625.544	n/a	PROB	2812772	n/a	LTP273	ltpFR2	14	n/a	n/a	n/a	28	14	7	1	6
5627.384	n/a	PROB	2813692	n/a	LTP273	ltpFR2	14	n/a	n/a	n/a	28	15	3	3	9
5628.656	n/a	PROB	2814328	n/a	LTP273	ltpFR2	14	n/a	n/a	n/a	28	15	4	4	7
5630.676	n/a	STOP	2815338	n/a	LTP273	ltpFR2	14	n/a	n/a	n/a	28	n/a	n/a	n/a	n/a
5632.166	n/a	WORD	2816083	wordpools/wasnorm_wordpool_576.txt	LTP273	ltpFR2	14	20	DIME	466	n/a	n/a	0	0	0
5634.706	n/a	WORD	2817353	wordpools/wasnorm_wordpool_576.txt	LTP273	ltpFR2	14	20	HOSTESS	723	n/a	n/a	0	0	0
5637.322	n/a	WORD	2818661	wordpools/wasnorm_wordpool_576.txt	LTP273	ltpFR2	14	20	TEACHER	1440	n/a	n/a	0	0	0
5639.85	n/a	WORD	2819925	wordpools/wasnorm_wordpool_576.txt	LTP273	ltpFR2	14	20	PUPIL	1143	n/a	n/a	0	0	0
5642.308	n/a	WORD	2821154	wordpools/wasnorm_wordpool_576.txt	LTP273	ltpFR2	14	20	SISTER	1312	n/a	n/a	0	0	0
5645.12	n/a	WORD	2822560	wordpools/wasnorm_wordpool_576.txt	LTP273	ltpFR2	14	20	DRILL	497	n/a	n/a	0	0	0
5647.578	n/a	WORD	2823789	wordpools/wasnorm_wordpool_576.txt	LTP273	ltpFR2	14	20	DENTIST	447	n/a	n/a	0	0	0
5650.222	n/a	WORD	2825111	wordpools/wasnorm_wordpool_576.txt	LTP273	ltpFR2	14	20	BANK	83	n/a	n/a	0	0	0
5652.848	n/a	WORD	2826424	wordpools/wasnorm_wordpool_576.txt	LTP273	ltpFR2	14	20	GARBAGE	622	n/a	n/a	0	0	0
5655.654	n/a	WORD	2827827	wordpools/wasnorm_wordpool_576.txt	LTP273	ltpFR2	14	20	PASSAGE	1019	n/a	n/a	0	0	0
5658.352	n/a	WORD	2829176	wordpools/wasnorm_wordpool_576.txt	LTP273	ltpFR2	14	20	RATTLE	1170	n/a	n/a	0	0	0
5661.048	n/a	WORD	2830524	wordpools/wasnorm_wordpool_576.txt	LTP273	ltpFR2	14	20	CHILD	299	n/a	n/a	0	0	0
5663.652	n/a	WORD	2831826	wordpools/wasnorm_wordpool_576.txt	LTP273	ltpFR2	14	20	PALACE	1006	n/a	n/a	0	0	0
5666.412	n/a	WORD	2833206	wordpools/wasnorm_wordpool_576.txt	LTP273	ltpFR2	14	20	PICNIC	1060	n/a	n/a	0	0	0
5669.212	n/a	WORD	2834606	wordpools/wasnorm_wordpool_576.txt	LTP273	ltpFR2	14	20	CYCLONE	431	n/a	n/a	0	0	0
5671.838	n/a	WORD	2835919	wordpools/wasnorm_wordpool_576.txt	LTP273	ltpFR2	14	20	BEEF	113	n/a	n/a	0	0	0
5674.292	n/a	WORD	2837146	wordpools/wasnorm_wordpool_576.txt	LTP273	ltpFR2	14	20	WAGON	1578	n/a	n/a	0	0	0
5676.824	n/a	WORD	2838412	wordpools/wasnorm_wordpool_576.txt	LTP273	ltpFR2	14	20	KEEPER	769	n/a	n/a	0	0	0
5679.266	n/a	WORD	2839633	wordpools/wasnorm_wordpool_576.txt	LTP273	ltpFR2	14	20	FIREMAN	569	n/a	n/a	0	0	0
5681.956	n/a	WORD	2840978	wordpools/wasnorm_wordpool_576.txt	LTP273	ltpFR2	14	20	TRACTOR	1493	n/a	n/a	0	0	0
5684.468	n/a	WORD	2842234	wordpools/wasnorm_wordpool_576.txt	LTP273	ltpFR2	14	20	MATTRESS	879	n/a	n/a	0	0	0
5687.08	n/a	WORD	2843540	wordpools/wasnorm_wordpool_576.txt	LTP273	ltpFR2	14	20	KITCHEN	778	n/a	n/a	0	0	0
5689.734	n/a	WORD	2844867	wordpools/wasnorm_wordpool_576.txt	LTP273	ltpFR2	14	20	QUEEN	1149	n/a	n/a	0	0	0
5692.432	n/a	WORD	2846216	wordpools/wasnorm_wordpool_576.txt	LTP273	ltpFR2	14	20	BUTCHER	203	n/a	n/a	0	0	0
5694.04	n/a	START	2847020	n/a	LTP273	ltpFR2	14	n/a	n/a	n/a	29	n/a	n/a	n/a	n/a
5695.21	n/a	DISTRACTOR	2847605	n/a	LTP273	ltpFR2	14	20	n/a	n/a	n/a	n/a	0	0	0
5695.228	n/a	PROB	2847614	n/a	LTP273	ltpFR2	14	n/a	n/a	n/a	29	25	9	8	8
5698.088	n/a	PROB	2849044	n/a	LTP273	ltpFR2	14	n/a	n/a	n/a	29	13	7	4	2
5700.764	n/a	PROB	2850382	n/a	LTP273	ltpFR2	14	n/a	n/a	n/a	29	11	5	3	2
5702.004	n/a	PROB	2851002	n/a	LTP273	ltpFR2	14	n/a	n/a	n/a	29	11	4	3	4
5705.578	n/a	PROB	2852789	n/a	LTP273	ltpFR2	14	n/a	n/a	n/a	29	15	8	4	3
5707.34	n/a	PROB	2853670	n/a	LTP273	ltpFR2	14	n/a	n/a	n/a	29	15	3	7	5
5708.372	n/a	PROB	2854186	n/a	LTP273	ltpFR2	14	n/a	n/a	n/a	29	11	3	5	3
5710.18	n/a	PROB	2855090	n/a	LTP273	ltpFR2	14	n/a	n/a	n/a	29	17	3	5	9
5718.042	n/a	STOP	2859021	n/a	LTP273	ltpFR2	14	n/a	n/a	n/a	29	n/a	n/a	n/a	n/a
5719.952	n/a	REC_START	2859976	n/a	LTP273	ltpFR2	14	20	n/a	n/a	n/a	n/a	0	0	0
5733.228	n/a	REC_WORD	2866614	wordpools/wasnorm_wordpool_576.txt	LTP273	ltpFR2	14	20	HOSTESS	723	n/a	n/a	0	0	0
5810.988	n/a	WORD	2905494	wordpools/wasnorm_wordpool_576.txt	LTP273	ltpFR2	14	21	HONEY	713	n/a	n/a	0	0	0
5813.596	n/a	WORD	2906798	wordpools/wasnorm_wordpool_576.txt	LTP273	ltpFR2	14	21	TAXI	1438	n/a	n/a	0	0	0
5816.302	n/a	WORD	2908151	wordpools/wasnorm_wordpool_576.txt	LTP273	ltpFR2	14	21	QUARTER	1148	n/a	n/a	0	0	0
5818.766	n/a	WORD	2909383	wordpools/wasnorm_wordpool_576.txt	LTP273	ltpFR2	14	21	SPACE	1345	n/a	n/a	0	0	0
5821.326	n/a	WORD	2910663	wordpools/wasnorm_wordpool_576.txt	LTP273	ltpFR2	14	21	MARKET	871	n/a	n/a	0	0	0
5823.92	n/a	WORD	2911960	wordpools/wasnorm_wordpool_576.txt	LTP273	ltpFR2	14	21	STAPLE	1371	n/a	n/a	0	0	0
5826.378	n/a	WORD	2913189	wordpools/wasnorm_wordpool_576.txt	LTP273	ltpFR2	14	21	RUST	1219	n/a	n/a	0	0	0
5828.888	n/a	WORD	2914444	wordpools/wasnorm_wordpool_576.txt	LTP273	ltpFR2	14	21	HORNET	718	n/a	n/a	0	0	0
5831.398	n/a	WORD	2915699	wordpools/wasnorm_wordpool_576.txt	LTP273	ltpFR2	14	21	WASP	1593	n/a	n/a	0	0	0
5834.208	n/a	WORD	2917104	wordpools/wasnorm_wordpool_576.txt	LTP273	ltpFR2	14	21	WIFE	1609	n/a	n/a	0	0	0
5836.768	n/a	WORD	2918384	wordpools/wasnorm_wordpool_576.txt	LTP273	ltpFR2	14	21	CLOTHES	327	n/a	n/a	0	0	0
5839.562	n/a	WORD	2919781	wordpools/wasnorm_wordpool_576.txt	LTP273	ltpFR2	14	21	DAISY	435	n/a	n/a	0	0	0
5842.124	n/a	WORD	2921062	wordpools/wasnorm_wordpool_576.txt	LTP273	ltpFR2	14	21	GRILL	661	n/a	n/a	0	0	0
5844.846	n/a	WORD	2922423	wordpools/wasnorm_wordpool_576.txt	LTP273	ltpFR2	14	21	MEDAL	885	n/a	n/a	0	0	0
5847.358	n/a	WORD	2923679	wordpools/wasnorm_wordpool_576.txt	LTP273	ltpFR2	14	21	MOTOR	922	n/a	n/a	0	0	0
5850.082	n/a	WORD	2925041	wordpools/wasnorm_wordpool_576.txt	LTP273	ltpFR2	14	21	LILY	821	n/a	n/a	0	0	0
5852.762	n/a	WORD	2926381	wordpools/wasnorm_wordpool_576.txt	LTP273	ltpFR2	14	21	SPOUSE	1358	n/a	n/a	0	0	0
5855.372	n/a	WORD	2927686	wordpools/wasnorm_wordpool_576.txt	LTP273	ltpFR2	14	21	RECORD	1176	n/a	n/a	0	0	0
5857.982	n/a	WORD	2928991	wordpools/wasnorm_wordpool_576.txt	LTP273	ltpFR2	14	21	PIANO	1057	n/a	n/a	0	0	0
5860.76	n/a	WORD	2930380	wordpools/wasnorm_wordpool_576.txt	LTP273	ltpFR2	14	21	SALAD	1224	n/a	n/a	0	0	0
5863.238	n/a	WORD	2931619	wordpools/wasnorm_wordpool_576.txt	LTP273	ltpFR2	14	21	CONTRACT	368	n/a	n/a	0	0	0
5865.712	n/a	WORD	2932856	wordpools/wasnorm_wordpool_576.txt	LTP273	ltpFR2	14	21	GANGSTER	620	n/a	n/a	0	0	0
5868.306	n/a	WORD	2934153	wordpools/wasnorm_wordpool_576.txt	LTP273	ltpFR2	14	21	CROSS	413	n/a	n/a	0	0	0
5871.078	n/a	WORD	2935539	wordpools/wasnorm_wordpool_576.txt	LTP273	ltpFR2	14	21	GRAVEL	659	n/a	n/a	0	0	0
5872.688	n/a	START	2936344	n/a	LTP273	ltpFR2	14	n/a	n/a	n/a	30	n/a	n/a	n/a	n/a
5873.878	n/a	DISTRACTOR	2936939	n/a	LTP273	ltpFR2	14	21	n/a	n/a	n/a	n/a	0	0	0
5873.894	n/a	PROB	2936947	n/a	LTP273	ltpFR2	14	n/a	n/a	n/a	30	13	3	5	5
5876.048	n/a	PROB	2938024	n/a	LTP273	ltpFR2	14	n/a	n/a	n/a	30	4	1	2	1
5877.018	n/a	PROB	2938509	n/a	LTP273	ltpFR2	14	n/a	n/a	n/a	30	10	2	4	4
5878.472	n/a	PROB	2939236	n/a	LTP273	ltpFR2	14	n/a	n/a	n/a	30	11	3	2	6
5879.582	n/a	PROB	2939791	n/a	LTP273	ltpFR2	14	n/a	n/a	n/a	30	12	2	5	5
5880.598	n/a	PROB	2940299	n/a	LTP273	ltpFR2	14	n/a	n/a	n/a	30	12	3	7	2
5882.02	n/a	PROB	2941010	n/a	LTP273	ltpFR2	14	n/a	n/a	n/a	30	15	2	5	8
5883.142	n/a	PROB	2941571	n/a	LTP273	ltpFR2	14	n/a	n/a	n/a	30	15	8	4	3
5884.262	n/a	PROB	2942131	n/a	LTP273	ltpFR2	14	n/a	n/a	n/a	30	15	3	5	7
5887.508	n/a	PROB	2943754	n/a	LTP273	ltpFR2	14	n/a	n/a	n/a	30	17	3	5	9
5889.248	n/a	PROB	2944624	n/a	LTP273	ltpFR2	14	n/a	n/a	n/a	30	17	1	7	9
5890.752	n/a	PROB	2945376	n/a	LTP273	ltpFR2	14	n/a	n/a	n/a	30	10	3	5	2
5892.308	n/a	PROB	2946154	n/a	LTP273	ltpFR2	14	n/a	n/a	n/a	30	2	7	7	6
5893.564	n/a	PROB	2946782	n/a	LTP273	ltpFR2	14	n/a	n/a	n/a	30	14	5	4	5
5896.688	n/a	STOP	2948344	n/a	LTP273	ltpFR2	14	n/a	n/a	n/a	30	n/a	n/a	n/a	n/a
5898.6	n/a	REC_START	2949300	n/a	LTP273	ltpFR2	14	21	n/a	n/a	n/a	n/a	0	0	0
5899.066	n/a	REC_WORD	2949533	wordpools/wasnorm_wordpool_576.txt	LTP273	ltpFR2	14	21	LILY	821	n/a	n/a	0	0	0
5900.152	n/a	REC_WORD	2950076	wordpools/wasnorm_wordpool_576.txt	LTP273	ltpFR2	14	21	GRAVEL	659	n/a	n/a	0	0	0
5901.316	n/a	REC_WORD	2950658	wordpools/wasnorm_wordpool_576.txt	LTP273	ltpFR2	14	21	TOAST	1471	n/a	n/a	0	0	0
5989.618	n/a	DISTRACTOR	2994809	n/a	LTP273	ltpFR2	14	22	n/a	n/a	n/a	n/a	0	0	0
5989.618	n/a	START	2994809	n/a	LTP273	ltpFR2	14	n/a	n/a	n/a	31	n/a	n/a	n/a	n/a
5989.668	n/a	PROB	2994834	n/a	LTP273	ltpFR2	14	n/a	n/a	n/a	31	18	7	9	2
5992.994	n/a	PROB	2996497	n/a	LTP273	ltpFR2	14	n/a	n/a	n/a	31	12	6	4	2
5996.876	n/a	PROB	2998438	n/a	LTP273	ltpFR2	14	n/a	n/a	n/a	31	17	9	1	7
5998.57	n/a	PROB	2999285	n/a	LTP273	ltpFR2	14	n/a	n/a	n/a	31	10	2	3	5
6003.316	n/a	PROB	3001658	n/a	LTP273	ltpFR2	14	n/a	n/a	n/a	31	18	5	6	7
6007.364	n/a	PROB	3003682	n/a	LTP273	ltpFR2	14	n/a	n/a	n/a	31	17	7	1	9
6008.726	n/a	PROB	3004363	n/a	LTP273	ltpFR2	14	n/a	n/a	n/a	31	14	7	6	1
