onset	duration	trial_type	sample	stim_file	subject	experiment	session	trial	task	item_name	item_num	recog_conf	resp	color_b	color_g	color_r	case	font
228.278	n/a	SESS_START	114139	n/a	LTP086	ltpFR	5	n/a	n/a	n/a	n/a	5	n/a	n/a	n/a	n/a	n/a	n/a
277.032	n/a	WORD	138516	wordpools/wasnorm_wordpool.txt	LTP086	ltpFR	5	1	0	TROUSERS	1510	n/a	0	0	0.5869140625	0.422607421875	upper	../fonts/amplitud.ttf
281.032	n/a	WORD	140516	wordpools/wasnorm_wordpool.txt	LTP086	ltpFR	5	1	0	CRIB	407	n/a	1	0	0.5869140625	0.422607421875	upper	../fonts/amplitud.ttf
285.174	n/a	WORD	142587	wordpools/wasnorm_wordpool.txt	LTP086	ltpFR	5	1	0	GIRL	637	n/a	1	0	0.5869140625	0.422607421875	upper	../fonts/amplitud.ttf
289.148	n/a	WORD	144574	wordpools/wasnorm_wordpool.txt	LTP086	ltpFR	5	1	0	COOK	372	n/a	1	0	0.5869140625	0.422607421875	upper	../fonts/amplitud.ttf
293.182	n/a	WORD	146591	wordpools/wasnorm_wordpool.txt	LTP086	ltpFR	5	1	1	REFRIGERATOR	1179	n/a	0	1	0.412841796875	0.57763671875	lower	../fonts/zerothre.ttf
297.106	n/a	WORD	148553	wordpools/wasnorm_wordpool.txt	LTP086	ltpFR	5	1	1	COP	376	n/a	1	1	0.412841796875	0.57763671875	lower	../fonts/zerothre.ttf
300.998	n/a	WORD	150499	wordpools/wasnorm_wordpool.txt	LTP086	ltpFR	5	1	1	SHERIFF	1284	n/a	1	1	0.412841796875	0.57763671875	lower	../fonts/zerothre.ttf
305.048	n/a	WORD	152524	wordpools/wasnorm_wordpool.txt	LTP086	ltpFR	5	1	1	EUROPE	541	n/a	0	1	0.412841796875	0.57763671875	lower	../fonts/zerothre.ttf
309.024	n/a	WORD	154512	wordpools/wasnorm_wordpool.txt	LTP086	ltpFR	5	1	1	BABY	64	n/a	1	1	0.412841796875	0.57763671875	lower	../fonts/zerothre.ttf
313.214	n/a	WORD	156607	wordpools/wasnorm_wordpool.txt	LTP086	ltpFR	5	1	0	POCKET	1093	n/a	1	0	0.5869140625	0.422607421875	upper	../fonts/amplitud.ttf
317.14	n/a	WORD	158570	wordpools/wasnorm_wordpool.txt	LTP086	ltpFR	5	1	0	TILE	1468	n/a	0	0	0.5869140625	0.422607421875	upper	../fonts/amplitud.ttf
321.264	n/a	WORD	160632	wordpools/wasnorm_wordpool.txt	LTP086	ltpFR	5	1	0	FLASHLIGHT	575	n/a	1	0	0.5869140625	0.422607421875	upper	../fonts/amplitud.ttf
325.306	n/a	WORD	162653	wordpools/wasnorm_wordpool.txt	LTP086	ltpFR	5	1	0	SIRLOIN	1311	n/a	1	0	0.5869140625	0.422607421875	upper	../fonts/amplitud.ttf
329.198	n/a	WORD	164599	wordpools/wasnorm_wordpool.txt	LTP086	ltpFR	5	1	1	WILDERNESS	1610	n/a	0	1	0.412841796875	0.57763671875	lower	../fonts/zerothre.ttf
333.29	n/a	WORD	166645	wordpools/wasnorm_wordpool.txt	LTP086	ltpFR	5	1	1	JUNGLE	764	n/a	0	1	0.412841796875	0.57763671875	lower	../fonts/zerothre.ttf
337.148	n/a	WORD	168574	wordpools/wasnorm_wordpool.txt	LTP086	ltpFR	5	1	1	KID	775	n/a	1	1	0.412841796875	0.57763671875	lower	../fonts/zerothre.ttf
342.798	n/a	REC_START	171399	n/a	LTP086	ltpFR	5	1	n/a	n/a	n/a	n/a	n/a	n/a	n/a	n/a	n/a	n/a
343.302	n/a	REC_WORD	171651	wordpools/wasnorm_wordpool.txt	LTP086	ltpFR	5	1	1	WILDERNESS	1610	n/a	0	n/a	n/a	n/a	n/a	n/a
344.18	n/a	REC_WORD	172090	wordpools/wasnorm_wordpool.txt	LTP086	ltpFR	5	1	1	JUNGLE	764	n/a	0	n/a	n/a	n/a	n/a	n/a
345.088	n/a	REC_WORD	172544	wordpools/wasnorm_wordpool.txt	LTP086	ltpFR	5	1	1	KID	775	n/a	1	n/a	n/a	n/a	n/a	n/a
346.47	n/a	REC_WORD	173235	wordpools/wasnorm_wordpool.txt	LTP086	ltpFR	5	1	0	TROUSERS	1510	n/a	0	n/a	n/a	n/a	n/a	n/a
347.572	n/a	REC_WORD	173786	wordpools/wasnorm_wordpool.txt	LTP086	ltpFR	5	1	0	CRIB	407	n/a	1	n/a	n/a	n/a	n/a	n/a
348.664	n/a	REC_WORD	174332	wordpools/wasnorm_wordpool.txt	LTP086	ltpFR	5	1	1	COP	376	n/a	1	n/a	n/a	n/a	n/a	n/a
349.448	n/a	REC_WORD	174724	wordpools/wasnorm_wordpool.txt	LTP086	ltpFR	5	1	1	SHERIFF	1284	n/a	1	n/a	n/a	n/a	n/a	n/a
350.676	n/a	REC_WORD	175338	wordpools/wasnorm_wordpool.txt	LTP086	ltpFR	5	1	0	GIRL	637	n/a	1	n/a	n/a	n/a	n/a	n/a
351.594	n/a	REC_WORD	175797	wordpools/wasnorm_wordpool.txt	LTP086	ltpFR	5	1	1	EUROPE	541	n/a	0	n/a	n/a	n/a	n/a	n/a
354.516	n/a	REC_WORD	177258	wordpools/wasnorm_wordpool.txt	LTP086	ltpFR	5	1	0	FLASHLIGHT	575	n/a	1	n/a	n/a	n/a	n/a	n/a
357.07	n/a	REC_WORD	178535	wordpools/wasnorm_wordpool.txt	LTP086	ltpFR	5	1	0	POCKET	1093	n/a	1	n/a	n/a	n/a	n/a	n/a
376.822	n/a	REC_WORD	188411	wordpools/wasnorm_wordpool.txt	LTP086	ltpFR	5	1	1	BABY	64	n/a	1	n/a	n/a	n/a	n/a	n/a
379.106	n/a	REC_WORD	189553	wordpools/wasnorm_wordpool.txt	LTP086	ltpFR	5	1	1	KID	775	n/a	1	n/a	n/a	n/a	n/a	n/a
450.112	n/a	WORD	225056	wordpools/wasnorm_wordpool.txt	LTP086	ltpFR	5	2	1	PECAN	1036	n/a	0	1	0.412841796875	0.57763671875	lower	../fonts/zerothre.ttf
453.954	n/a	WORD	226977	wordpools/wasnorm_wordpool.txt	LTP086	ltpFR	5	2	1	GALLON	618	n/a	0	1	0.412841796875	0.57763671875	lower	../fonts/zerothre.ttf
457.904	n/a	WORD	228952	wordpools/wasnorm_wordpool.txt	LTP086	ltpFR	5	2	0	SPACE	1345	n/a	0	0	0.5869140625	0.422607421875	upper	../fonts/amplitud.ttf
462.004	n/a	WORD	231002	wordpools/wasnorm_wordpool.txt	LTP086	ltpFR	5	2	0	KITTEN	780	n/a	0	0	0.5869140625	0.422607421875	upper	../fonts/amplitud.ttf
466.11	n/a	WORD	233055	wordpools/wasnorm_wordpool.txt	LTP086	ltpFR	5	2	1	TAVERN	1437	n/a	1	1	0.412841796875	0.57763671875	lower	../fonts/zerothre.ttf
469.962	n/a	WORD	234981	wordpools/wasnorm_wordpool.txt	LTP086	ltpFR	5	2	1	BAG	69	n/a	0	1	0.412841796875	0.57763671875	lower	../fonts/zerothre.ttf
474.06	n/a	WORD	237030	wordpools/wasnorm_wordpool.txt	LTP086	ltpFR	5	2	0	COW	393	n/a	1	0	0.5869140625	0.422607421875	upper	../fonts/amplitud.ttf
477.92	n/a	WORD	238960	wordpools/wasnorm_wordpool.txt	LTP086	ltpFR	5	2	0	MECHANIC	884	n/a	1	0	0.5869140625	0.422607421875	upper	../fonts/amplitud.ttf
481.826	n/a	WORD	240913	wordpools/wasnorm_wordpool.txt	LTP086	ltpFR	5	2	0	FURNITURE	616	n/a	0	0	0.5869140625	0.422607421875	upper	../fonts/amplitud.ttf
485.936	n/a	WORD	242968	wordpools/wasnorm_wordpool.txt	LTP086	ltpFR	5	2	0	CHAIR	274	n/a	1	0	0.5869140625	0.422607421875	upper	../fonts/amplitud.ttf
489.802	n/a	WORD	244901	wordpools/wasnorm_wordpool.txt	LTP086	ltpFR	5	2	0	AUTOMOBILE	62	n/a	1	0	0.5869140625	0.422607421875	upper	../fonts/amplitud.ttf
493.61	n/a	WORD	246805	wordpools/wasnorm_wordpool.txt	LTP086	ltpFR	5	2	0	OLIVE	975	n/a	0	0	0.5869140625	0.422607421875	upper	../fonts/amplitud.ttf
497.452	n/a	WORD	248726	wordpools/wasnorm_wordpool.txt	LTP086	ltpFR	5	2	1	NOSE	957	n/a	1	1	0.412841796875	0.57763671875	lower	../fonts/zerothre.ttf
501.384	n/a	WORD	250692	wordpools/wasnorm_wordpool.txt	LTP086	ltpFR	5	2	1	EAR	513	n/a	1	1	0.412841796875	0.57763671875	lower	../fonts/zerothre.ttf
505.468	n/a	WORD	252734	wordpools/wasnorm_wordpool.txt	LTP086	ltpFR	5	2	1	PEANUT	1032	n/a	1	1	0.412841796875	0.57763671875	lower	../fonts/zerothre.ttf
509.352	n/a	WORD	254676	wordpools/wasnorm_wordpool.txt	LTP086	ltpFR	5	2	1	CRAB	397	n/a	1	1	0.412841796875	0.57763671875	lower	../fonts/zerothre.ttf
515.452	n/a	REC_START	257726	n/a	LTP086	ltpFR	5	2	n/a	n/a	n/a	n/a	n/a	n/a	n/a	n/a	n/a	n/a
515.806	n/a	REC_WORD	257903	wordpools/wasnorm_wordpool.txt	LTP086	ltpFR	5	2	1	NOSE	957	n/a	1	n/a	n/a	n/a	n/a	n/a
516.444	n/a	REC_WORD	258222	wordpools/wasnorm_wordpool.txt	LTP086	ltpFR	5	2	1	EAR	513	n/a	1	n/a	n/a	n/a	n/a	n/a
517.098	n/a	REC_WORD	258549	wordpools/wasnorm_wordpool.txt	LTP086	ltpFR	5	2	1	PEANUT	1032	n/a	1	n/a	n/a	n/a	n/a	n/a
517.89	n/a	REC_WORD	258945	wordpools/wasnorm_wordpool.txt	LTP086	ltpFR	5	2	1	CRAB	397	n/a	1	n/a	n/a	n/a	n/a	n/a
519.682	n/a	REC_WORD	259841	wordpools/wasnorm_wordpool.txt	LTP086	ltpFR	5	2	1	GALLON	618	n/a	0	n/a	n/a	n/a	n/a	n/a
521.144	n/a	REC_WORD	260572	wordpools/wasnorm_wordpool.txt	LTP086	ltpFR	5	2	1	BAG	69	n/a	0	n/a	n/a	n/a	n/a	n/a
522.814	n/a	REC_WORD	261407	wordpools/wasnorm_wordpool.txt	LTP086	ltpFR	5	2	1	PECAN	1036	n/a	0	n/a	n/a	n/a	n/a	n/a
527.658	n/a	REC_WORD	263829	wordpools/wasnorm_wordpool.txt	LTP086	ltpFR	5	2	0	KITTEN	780	n/a	0	n/a	n/a	n/a	n/a	n/a
528.578	n/a	REC_WORD	264289	wordpools/wasnorm_wordpool.txt	LTP086	ltpFR	5	2	0	SPACE	1345	n/a	0	n/a	n/a	n/a	n/a	n/a
529.884	n/a	REC_WORD	264942	wordpools/wasnorm_wordpool.txt	LTP086	ltpFR	5	2	0	OLIVE	975	n/a	0	n/a	n/a	n/a	n/a	n/a
546.368	n/a	REC_WORD	273184	wordpools/wasnorm_wordpool.txt	LTP086	ltpFR	5	2	1	EAR	513	n/a	1	n/a	n/a	n/a	n/a	n/a
605.806	n/a	WORD	302903	wordpools/wasnorm_wordpool.txt	LTP086	ltpFR	5	3	0	CASHIER	254	n/a	0	0	0.5869140625	0.422607421875	upper	../fonts/amplitud.ttf
609.782	n/a	WORD	304891	wordpools/wasnorm_wordpool.txt	LTP086	ltpFR	5	3	0	CARROT	249	n/a	0	0	0.5869140625	0.422607421875	upper	../fonts/amplitud.ttf
613.674	n/a	WORD	306837	wordpools/wasnorm_wordpool.txt	LTP086	ltpFR	5	3	0	SHORTCAKE	1292	n/a	0	0	0.5869140625	0.422607421875	upper	../fonts/amplitud.ttf
617.656	n/a	WORD	308828	wordpools/wasnorm_wordpool.txt	LTP086	ltpFR	5	3	0	PLAID	1080	n/a	0	0	0.5869140625	0.422607421875	upper	../fonts/amplitud.ttf
621.748	n/a	WORD	310874	wordpools/wasnorm_wordpool.txt	LTP086	ltpFR	5	3	0	VIDEO	1564	n/a	0	0	0.5869140625	0.422607421875	upper	../fonts/amplitud.ttf
625.606	n/a	WORD	312803	wordpools/wasnorm_wordpool.txt	LTP086	ltpFR	5	3	0	ZEBRA	1635	n/a	1	0	0.5869140625	0.422607421875	upper	../fonts/amplitud.ttf
629.556	n/a	WORD	314778	wordpools/wasnorm_wordpool.txt	LTP086	ltpFR	5	3	0	GRIZZLY	662	n/a	1	0	0.5869140625	0.422607421875	upper	../fonts/amplitud.ttf
633.606	n/a	WORD	316803	wordpools/wasnorm_wordpool.txt	LTP086	ltpFR	5	3	0	DIAGRAM	456	n/a	0	0	0.5869140625	0.422607421875	upper	../fonts/amplitud.ttf
637.44	n/a	WORD	318720	wordpools/wasnorm_wordpool.txt	LTP086	ltpFR	5	3	0	ZOO	1637	n/a	0	0	0.5869140625	0.422607421875	upper	../fonts/amplitud.ttf
641.322	n/a	WORD	320661	wordpools/wasnorm_wordpool.txt	LTP086	ltpFR	5	3	0	SCALLOP	1242	n/a	1	0	0.5869140625	0.422607421875	upper	../fonts/amplitud.ttf
645.164	n/a	WORD	322582	wordpools/wasnorm_wordpool.txt	LTP086	ltpFR	5	3	0	FIN	566	n/a	1	0	0.5869140625	0.422607421875	upper	../fonts/amplitud.ttf
649.346	n/a	WORD	324673	wordpools/wasnorm_wordpool.txt	LTP086	ltpFR	5	3	0	WALLET	1583	n/a	0	0	0.5869140625	0.422607421875	upper	../fonts/amplitud.ttf
653.198	n/a	WORD	326599	wordpools/wasnorm_wordpool.txt	LTP086	ltpFR	5	3	0	REEF	1177	n/a	1	0	0.5869140625	0.422607421875	upper	../fonts/amplitud.ttf
657.18	n/a	WORD	328590	wordpools/wasnorm_wordpool.txt	LTP086	ltpFR	5	3	0	CORAL	378	n/a	0	0	0.5869140625	0.422607421875	upper	../fonts/amplitud.ttf
661.072	n/a	WORD	330536	wordpools/wasnorm_wordpool.txt	LTP086	ltpFR	5	3	0	BACON	67	n/a	0	0	0.5869140625	0.422607421875	upper	../fonts/amplitud.ttf
665.206	n/a	WORD	332603	wordpools/wasnorm_wordpool.txt	LTP086	ltpFR	5	3	0	JAW	751	n/a	0	0	0.5869140625	0.422607421875	upper	../fonts/amplitud.ttf
671.09	n/a	REC_START	335545	n/a	LTP086	ltpFR	5	3	n/a	n/a	n/a	n/a	n/a	n/a	n/a	n/a	n/a	n/a
671.514	n/a	REC_WORD	335757	wordpools/wasnorm_wordpool.txt	LTP086	ltpFR	5	3	0	REEF	1177	n/a	1	n/a	n/a	n/a	n/a	n/a
672.122	n/a	REC_WORD	336061	wordpools/wasnorm_wordpool.txt	LTP086	ltpFR	5	3	0	CORAL	378	n/a	0	n/a	n/a	n/a	n/a	n/a
673.084	n/a	REC_WORD	336542	wordpools/wasnorm_wordpool.txt	LTP086	ltpFR	5	3	0	BACON	67	n/a	0	n/a	n/a	n/a	n/a	n/a
673.958	n/a	REC_WORD	336979	wordpools/wasnorm_wordpool.txt	LTP086	ltpFR	5	3	0	JAW	751	n/a	0	n/a	n/a	n/a	n/a	n/a
693.654	n/a	REC_WORD	346827	wordpools/wasnorm_wordpool.txt	LTP086	ltpFR	5	3	0	PLAID	1080	n/a	0	n/a	n/a	n/a	n/a	n/a
709.408	n/a	REC_WORD	354704	wordpools/wasnorm_wordpool.txt	LTP086	ltpFR	5	3	0	WALLET	1583	n/a	0	n/a	n/a	n/a	n/a	n/a
776.194	n/a	WORD	388097	wordpools/wasnorm_wordpool.txt	LTP086	ltpFR	5	4	-1	HELMET	702	n/a	-1	1	1.0	1.0	upper	../fonts/Verdana.ttf
780.294	n/a	WORD	390147	wordpools/wasnorm_wordpool.txt	LTP086	ltpFR	5	4	-1	DART	440	n/a	-1	1	1.0	1.0	upper	../fonts/Verdana.ttf
784.386	n/a	WORD	392193	wordpools/wasnorm_wordpool.txt	LTP086	ltpFR	5	4	-1	JET	756	n/a	-1	1	1.0	1.0	upper	../fonts/Verdana.ttf
788.536	n/a	WORD	394268	wordpools/wasnorm_wordpool.txt	LTP086	ltpFR	5	4	-1	WEED	1599	n/a	-1	1	1.0	1.0	upper	../fonts/Verdana.ttf
792.47	n/a	WORD	396235	wordpools/wasnorm_wordpool.txt	LTP086	ltpFR	5	4	-1	SEASHORE	1263	n/a	-1	1	1.0	1.0	upper	../fonts/Verdana.ttf
796.502	n/a	WORD	398251	wordpools/wasnorm_wordpool.txt	LTP086	ltpFR	5	4	-1	CACTUS	215	n/a	-1	1	1.0	1.0	upper	../fonts/Verdana.ttf
800.702	n/a	WORD	400351	wordpools/wasnorm_wordpool.txt	LTP086	ltpFR	5	4	-1	RECORD	1176	n/a	-1	1	1.0	1.0	upper	../fonts/Verdana.ttf
804.834	n/a	WORD	402417	wordpools/wasnorm_wordpool.txt	LTP086	ltpFR	5	4	-1	HARP	689	n/a	-1	1	1.0	1.0	upper	../fonts/Verdana.ttf
808.818	n/a	WORD	404409	wordpools/wasnorm_wordpool.txt	LTP086	ltpFR	5	4	-1	TRAITOR	1495	n/a	-1	1	1.0	1.0	upper	../fonts/Verdana.ttf
812.786	n/a	WORD	406393	wordpools/wasnorm_wordpool.txt	LTP086	ltpFR	5	4	-1	BOARD	143	n/a	-1	1	1.0	1.0	upper	../fonts/Verdana.ttf
816.952	n/a	WORD	408476	wordpools/wasnorm_wordpool.txt	LTP086	ltpFR	5	4	-1	PLANT	1083	n/a	-1	1	1.0	1.0	upper	../fonts/Verdana.ttf
821.168	n/a	WORD	410584	wordpools/wasnorm_wordpool.txt	LTP086	ltpFR	5	4	-1	ATTORNEY	58	n/a	-1	1	1.0	1.0	upper	../fonts/Verdana.ttf
825.16	n/a	WORD	412580	wordpools/wasnorm_wordpool.txt	LTP086	ltpFR	5	4	-1	BOLT	146	n/a	-1	1	1.0	1.0	upper	../fonts/Verdana.ttf
829.176	n/a	WORD	414588	wordpools/wasnorm_wordpool.txt	LTP086	ltpFR	5	4	-1	COACH	331	n/a	-1	1	1.0	1.0	upper	../fonts/Verdana.ttf
833.176	n/a	WORD	416588	wordpools/wasnorm_wordpool.txt	LTP086	ltpFR	5	4	-1	ROOF	1205	n/a	-1	1	1.0	1.0	upper	../fonts/Verdana.ttf
837.202	n/a	WORD	418601	wordpools/wasnorm_wordpool.txt	LTP086	ltpFR	5	4	-1	PRAIRIE	1118	n/a	-1	1	1.0	1.0	upper	../fonts/Verdana.ttf
843.202	n/a	REC_START	421601	n/a	LTP086	ltpFR	5	4	n/a	n/a	n/a	n/a	n/a	n/a	n/a	n/a	n/a	n/a
843.666	n/a	REC_WORD	421833	wordpools/wasnorm_wordpool.txt	LTP086	ltpFR	5	4	-1	HELMET	702	n/a	-1	n/a	n/a	n/a	n/a	n/a
844.672	n/a	REC_WORD	422336	wordpools/wasnorm_wordpool.txt	LTP086	ltpFR	5	4	-1	DART	440	n/a	-1	n/a	n/a	n/a	n/a	n/a
845.58	n/a	REC_WORD	422790	wordpools/wasnorm_wordpool.txt	LTP086	ltpFR	5	4	-1	JET	756	n/a	-1	n/a	n/a	n/a	n/a	n/a
846.538	n/a	REC_WORD	423269	wordpools/wasnorm_wordpool.txt	LTP086	ltpFR	5	4	-1	ROOF	1205	n/a	-1	n/a	n/a	n/a	n/a	n/a
847.446	n/a	REC_WORD	423723	wordpools/wasnorm_wordpool.txt	LTP086	ltpFR	5	4	-1	PRAIRIE	1118	n/a	-1	n/a	n/a	n/a	n/a	n/a
848.434	n/a	REC_WORD	424217	wordpools/wasnorm_wordpool.txt	LTP086	ltpFR	5	4	-1	ATTORNEY	58	n/a	-1	n/a	n/a	n/a	n/a	n/a
849.712	n/a	REC_WORD	424856	wordpools/wasnorm_wordpool.txt	LTP086	ltpFR	5	4	-1	BOARD	143	n/a	-1	n/a	n/a	n/a	n/a	n/a
851.878	n/a	REC_WORD	425939	wordpools/wasnorm_wordpool.txt	LTP086	ltpFR	5	4	-1	BOLT	146	n/a	-1	n/a	n/a	n/a	n/a	n/a
853.154	n/a	REC_WORD	426577	wordpools/wasnorm_wordpool.txt	LTP086	ltpFR	5	4	-1	SEASHORE	1263	n/a	-1	n/a	n/a	n/a	n/a	n/a
858.622	n/a	REC_WORD	429311	wordpools/wasnorm_wordpool.txt	LTP086	ltpFR	5	4	-1	WEED	1599	n/a	-1	n/a	n/a	n/a	n/a	n/a
859.82	n/a	REC_WORD	429910	wordpools/wasnorm_wordpool.txt	LTP086	ltpFR	5	4	-1	WEED	1599	n/a	-1	n/a	n/a	n/a	n/a	n/a
864.998	n/a	REC_WORD	432499	wordpools/wasnorm_wordpool.txt	LTP086	ltpFR	5	4	-1	COACH	331	n/a	-1	n/a	n/a	n/a	n/a	n/a
865.866	n/a	REC_WORD	432933	wordpools/wasnorm_wordpool.txt	LTP086	ltpFR	5	4	-1	ROOF	1205	n/a	-1	n/a	n/a	n/a	n/a	n/a
891.25	n/a	REC_WORD	445625	wordpools/wasnorm_wordpool.txt	LTP086	ltpFR	5	4	-1	CACTUS	215	n/a	-1	n/a	n/a	n/a	n/a	n/a
908.012	n/a	REC_WORD	454006	wordpools/wasnorm_wordpool.txt	LTP086	ltpFR	5	4	-1	PLANT	1083	n/a	-1	n/a	n/a	n/a	n/a	n/a
922.724	n/a	WORD	461362	wordpools/wasnorm_wordpool.txt	LTP086	ltpFR	5	5	1	BRUNETTE	181	n/a	0	1	0.412841796875	0.57763671875	lower	../fonts/zerothre.ttf
926.898	n/a	WORD	463449	wordpools/wasnorm_wordpool.txt	LTP086	ltpFR	5	5	1	ANIMAL	23	n/a	1	1	0.412841796875	0.57763671875	lower	../fonts/zerothre.ttf
930.814	n/a	WORD	465407	wordpools/wasnorm_wordpool.txt	LTP086	ltpFR	5	5	1	CUB	419	n/a	1	1	0.412841796875	0.57763671875	lower	../fonts/zerothre.ttf
934.698	n/a	WORD	467349	wordpools/wasnorm_wordpool.txt	LTP086	ltpFR	5	5	1	SCROLL	1257	n/a	0	1	0.412841796875	0.57763671875	lower	../fonts/zerothre.ttf
938.532	n/a	WORD	469266	wordpools/wasnorm_wordpool.txt	LTP086	ltpFR	5	5	1	SERVER	1272	n/a	1	1	0.412841796875	0.57763671875	lower	../fonts/zerothre.ttf
942.374	n/a	WORD	471187	wordpools/wasnorm_wordpool.txt	LTP086	ltpFR	5	5	1	DAM	436	n/a	1	1	0.412841796875	0.57763671875	lower	../fonts/zerothre.ttf
946.498	n/a	WORD	473249	wordpools/wasnorm_wordpool.txt	LTP086	ltpFR	5	5	1	DINER	467	n/a	1	1	0.412841796875	0.57763671875	lower	../fonts/zerothre.ttf
950.422	n/a	WORD	475211	wordpools/wasnorm_wordpool.txt	LTP086	ltpFR	5	5	1	CUE	422	n/a	1	1	0.412841796875	0.57763671875	lower	../fonts/zerothre.ttf
954.556	n/a	WORD	477278	wordpools/wasnorm_wordpool.txt	LTP086	ltpFR	5	5	1	BALL	73	n/a	0	1	0.412841796875	0.57763671875	lower	../fonts/zerothre.ttf
958.69	n/a	WORD	479345	wordpools/wasnorm_wordpool.txt	LTP086	ltpFR	5	5	1	ROOSTER	1209	n/a	1	1	0.412841796875	0.57763671875	lower	../fonts/zerothre.ttf
962.506	n/a	WORD	481253	wordpools/wasnorm_wordpool.txt	LTP086	ltpFR	5	5	1	BREAST	171	n/a	1	1	0.412841796875	0.57763671875	lower	../fonts/zerothre.ttf
966.39	n/a	WORD	483195	wordpools/wasnorm_wordpool.txt	LTP086	ltpFR	5	5	1	ELECTRICIAN	521	n/a	0	1	0.412841796875	0.57763671875	lower	../fonts/zerothre.ttf
970.306	n/a	WORD	485153	wordpools/wasnorm_wordpool.txt	LTP086	ltpFR	5	5	1	RECIPE	1175	n/a	0	1	0.412841796875	0.57763671875	lower	../fonts/zerothre.ttf
974.372	n/a	WORD	487186	wordpools/wasnorm_wordpool.txt	LTP086	ltpFR	5	5	1	DISH	474	n/a	0	1	0.412841796875	0.57763671875	lower	../fonts/zerothre.ttf
978.556	n/a	WORD	489278	wordpools/wasnorm_wordpool.txt	LTP086	ltpFR	5	5	1	CHEST	295	n/a	1	1	0.412841796875	0.57763671875	lower	../fonts/zerothre.ttf
982.598	n/a	WORD	491299	wordpools/wasnorm_wordpool.txt	LTP086	ltpFR	5	5	1	TYPIST	1532	n/a	1	1	0.412841796875	0.57763671875	lower	../fonts/zerothre.ttf
988.322	n/a	REC_START	494161	n/a	LTP086	ltpFR	5	5	n/a	n/a	n/a	n/a	n/a	n/a	n/a	n/a	n/a	n/a
989.934	n/a	REC_WORD	494967	wordpools/wasnorm_wordpool.txt	LTP086	ltpFR	5	5	1	TYPIST	1532	n/a	1	n/a	n/a	n/a	n/a	n/a
990.912	n/a	REC_WORD	495456	wordpools/wasnorm_wordpool.txt	LTP086	ltpFR	5	5	1	CHEST	295	n/a	1	n/a	n/a	n/a	n/a	n/a
996.948	n/a	REC_WORD	498474	wordpools/wasnorm_wordpool.txt	LTP086	ltpFR	5	5	1	ROOSTER	1209	n/a	1	n/a	n/a	n/a	n/a	n/a
999.552	n/a	REC_WORD	499776	wordpools/wasnorm_wordpool.txt	LTP086	ltpFR	5	5	1	CUB	419	n/a	1	n/a	n/a	n/a	n/a	n/a
1000.38	n/a	REC_WORD	500190	wordpools/wasnorm_wordpool.txt	LTP086	ltpFR	5	5	n/a	MAMMAL	861	n/a	n/a	n/a	n/a	n/a	n/a	n/a
1001.12	n/a	REC_WORD	500560	wordpools/wasnorm_wordpool.txt	LTP086	ltpFR	5	5	1	BREAST	171	n/a	1	n/a	n/a	n/a	n/a	n/a
1003.814	n/a	REC_WORD_VV	501907	wordpools/wasnorm_wordpool.txt	LTP086	ltpFR	5	5	n/a	<>	-1	n/a	n/a	n/a	n/a	n/a	n/a	n/a
1005.39	n/a	REC_WORD	502695	wordpools/wasnorm_wordpool.txt	LTP086	ltpFR	5	5	1	DAM	436	n/a	1	n/a	n/a	n/a	n/a	n/a
1007.126	n/a	REC_WORD	503563	wordpools/wasnorm_wordpool.txt	LTP086	ltpFR	5	5	1	BALL	73	n/a	0	n/a	n/a	n/a	n/a	n/a
1010.888	n/a	REC_WORD	505444	wordpools/wasnorm_wordpool.txt	LTP086	ltpFR	5	5	1	CUE	422	n/a	1	n/a	n/a	n/a	n/a	n/a
1011.366	n/a	REC_WORD	505683	wordpools/wasnorm_wordpool.txt	LTP086	ltpFR	5	5	1	CUE	422	n/a	1	n/a	n/a	n/a	n/a	n/a
1011.684	n/a	REC_WORD	505842	wordpools/wasnorm_wordpool.txt	LTP086	ltpFR	5	5	1	BALL	73	n/a	0	n/a	n/a	n/a	n/a	n/a
1012.116	n/a	REC_WORD_VV	506058	wordpools/wasnorm_wordpool.txt	LTP086	ltpFR	5	5	n/a	<>	-1	n/a	n/a	n/a	n/a	n/a	n/a	n/a
1012.924	n/a	REC_WORD	506462	wordpools/wasnorm_wordpool.txt	LTP086	ltpFR	5	5	1	BALL	73	n/a	0	n/a	n/a	n/a	n/a	n/a
1013.354	n/a	REC_WORD	506677	wordpools/wasnorm_wordpool.txt	LTP086	ltpFR	5	5	1	CUE	422	n/a	1	n/a	n/a	n/a	n/a	n/a
1014.918	n/a	REC_WORD_VV	507459	wordpools/wasnorm_wordpool.txt	LTP086	ltpFR	5	5	n/a	<>	-1	n/a	n/a	n/a	n/a	n/a	n/a	n/a
1018.96	n/a	REC_WORD	509480	wordpools/wasnorm_wordpool.txt	LTP086	ltpFR	5	5	1	SERVER	1272	n/a	1	n/a	n/a	n/a	n/a	n/a
1019.868	n/a	REC_WORD	509934	wordpools/wasnorm_wordpool.txt	LTP086	ltpFR	5	5	1	SCROLL	1257	n/a	0	n/a	n/a	n/a	n/a	n/a
1024.128	n/a	REC_WORD	512064	wordpools/wasnorm_wordpool.txt	LTP086	ltpFR	5	5	1	BRUNETTE	181	n/a	0	n/a	n/a	n/a	n/a	n/a
1028.078	n/a	REC_WORD	514039	wordpools/wasnorm_wordpool.txt	LTP086	ltpFR	5	5	1	ANIMAL	23	n/a	1	n/a	n/a	n/a	n/a	n/a
1029.306	n/a	REC_WORD	514653	wordpools/wasnorm_wordpool.txt	LTP086	ltpFR	5	5	1	CUB	419	n/a	1	n/a	n/a	n/a	n/a	n/a
1069.644	n/a	WORD	534822	wordpools/wasnorm_wordpool.txt	LTP086	ltpFR	5	6	-1	STY	1397	n/a	-1	1	1.0	1.0	upper	../fonts/Verdana.ttf
1073.638	n/a	WORD	536819	wordpools/wasnorm_wordpool.txt	LTP086	ltpFR	5	6	-1	PHYSICIAN	1056	n/a	-1	1	1.0	1.0	upper	../fonts/Verdana.ttf
1077.578	n/a	WORD	538789	wordpools/wasnorm_wordpool.txt	LTP086	ltpFR	5	6	-1	CHIME	300	n/a	-1	1	1.0	1.0	upper	../fonts/Verdana.ttf
1081.644	n/a	WORD	540822	wordpools/wasnorm_wordpool.txt	LTP086	ltpFR	5	6	-1	HANDCUFFS	685	n/a	-1	1	1.0	1.0	upper	../fonts/Verdana.ttf
1085.762	n/a	WORD	542881	wordpools/wasnorm_wordpool.txt	LTP086	ltpFR	5	6	-1	OATS	968	n/a	-1	1	1.0	1.0	upper	../fonts/Verdana.ttf
1089.92	n/a	WORD	544960	wordpools/wasnorm_wordpool.txt	LTP086	ltpFR	5	6	-1	SCALPEL	1243	n/a	-1	1	1.0	1.0	upper	../fonts/Verdana.ttf
1093.736	n/a	WORD	546868	wordpools/wasnorm_wordpool.txt	LTP086	ltpFR	5	6	-1	JEWEL	757	n/a	-1	1	1.0	1.0	upper	../fonts/Verdana.ttf
1097.72	n/a	WORD	548860	wordpools/wasnorm_wordpool.txt	LTP086	ltpFR	5	6	-1	STABLE	1363	n/a	-1	1	1.0	1.0	upper	../fonts/Verdana.ttf
1101.702	n/a	WORD	550851	wordpools/wasnorm_wordpool.txt	LTP086	ltpFR	5	6	-1	CAPTIVE	240	n/a	-1	1	1.0	1.0	upper	../fonts/Verdana.ttf
1105.586	n/a	WORD	552793	wordpools/wasnorm_wordpool.txt	LTP086	ltpFR	5	6	-1	JEEP	753	n/a	-1	1	1.0	1.0	upper	../fonts/Verdana.ttf
1109.486	n/a	WORD	554743	wordpools/wasnorm_wordpool.txt	LTP086	ltpFR	5	6	-1	WAGON	1578	n/a	-1	1	1.0	1.0	upper	../fonts/Verdana.ttf
1113.628	n/a	WORD	556814	wordpools/wasnorm_wordpool.txt	LTP086	ltpFR	5	6	-1	PATRIOT	1026	n/a	-1	1	1.0	1.0	upper	../fonts/Verdana.ttf
1117.778	n/a	WORD	558889	wordpools/wasnorm_wordpool.txt	LTP086	ltpFR	5	6	-1	MARINE	869	n/a	-1	1	1.0	1.0	upper	../fonts/Verdana.ttf
1121.66	n/a	WORD	560830	wordpools/wasnorm_wordpool.txt	LTP086	ltpFR	5	6	-1	RIVER	1194	n/a	-1	1	1.0	1.0	upper	../fonts/Verdana.ttf
1125.636	n/a	WORD	562818	wordpools/wasnorm_wordpool.txt	LTP086	ltpFR	5	6	-1	BUFFALO	186	n/a	-1	1	1.0	1.0	upper	../fonts/Verdana.ttf
1129.534	n/a	WORD	564767	wordpools/wasnorm_wordpool.txt	LTP086	ltpFR	5	6	-1	PARTY	1018	n/a	-1	1	1.0	1.0	upper	../fonts/Verdana.ttf
1135.278	n/a	REC_START	567639	n/a	LTP086	ltpFR	5	6	n/a	n/a	n/a	n/a	n/a	n/a	n/a	n/a	n/a	n/a
1135.89	n/a	REC_WORD	567945	wordpools/wasnorm_wordpool.txt	LTP086	ltpFR	5	6	-1	BUFFALO	186	n/a	-1	n/a	n/a	n/a	n/a	n/a
1136.64	n/a	REC_WORD	568320	wordpools/wasnorm_wordpool.txt	LTP086	ltpFR	5	6	-1	PARTY	1018	n/a	-1	n/a	n/a	n/a	n/a	n/a
1137.408	n/a	REC_WORD	568704	wordpools/wasnorm_wordpool.txt	LTP086	ltpFR	5	6	-1	MARINE	869	n/a	-1	n/a	n/a	n/a	n/a	n/a
1138.436	n/a	REC_WORD	569218	wordpools/wasnorm_wordpool.txt	LTP086	ltpFR	5	6	-1	RIVER	1194	n/a	-1	n/a	n/a	n/a	n/a	n/a
1139.358	n/a	REC_WORD	569679	wordpools/wasnorm_wordpool.txt	LTP086	ltpFR	5	6	-1	PATRIOT	1026	n/a	-1	n/a	n/a	n/a	n/a	n/a
1141.518	n/a	REC_WORD	570759	wordpools/wasnorm_wordpool.txt	LTP086	ltpFR	5	6	-1	HANDCUFFS	685	n/a	-1	n/a	n/a	n/a	n/a	n/a
1142.88	n/a	REC_WORD	571440	wordpools/wasnorm_wordpool.txt	LTP086	ltpFR	5	6	-1	CAPTIVE	240	n/a	-1	n/a	n/a	n/a	n/a	n/a
1143.892	n/a	REC_WORD	571946	wordpools/wasnorm_wordpool.txt	LTP086	ltpFR	5	6	-1	STABLE	1363	n/a	-1	n/a	n/a	n/a	n/a	n/a
1151.666	n/a	REC_WORD	575833	wordpools/wasnorm_wordpool.txt	LTP086	ltpFR	5	6	-1	STY	1397	n/a	-1	n/a	n/a	n/a	n/a	n/a
1152.572	n/a	REC_WORD	576286	wordpools/wasnorm_wordpool.txt	LTP086	ltpFR	5	6	-1	PHYSICIAN	1056	n/a	-1	n/a	n/a	n/a	n/a	n/a
1238.382	n/a	WORD	619191	wordpools/wasnorm_wordpool.txt	LTP086	ltpFR	5	7	1	BELL	118	n/a	1	1	0.412841796875	0.57763671875	lower	../fonts/zerothre.ttf
1242.448	n/a	WORD	621224	wordpools/wasnorm_wordpool.txt	LTP086	ltpFR	5	7	1	HORIZON	717	n/a	0	1	0.412841796875	0.57763671875	lower	../fonts/zerothre.ttf
1246.532	n/a	WORD	623266	wordpools/wasnorm_wordpool.txt	LTP086	ltpFR	5	7	0	SUNSET	1408	n/a	0	0	0.5869140625	0.422607421875	upper	../fonts/amplitud.ttf
1250.548	n/a	WORD	625274	wordpools/wasnorm_wordpool.txt	LTP086	ltpFR	5	7	0	RAISIN	1163	n/a	0	0	0.5869140625	0.422607421875	upper	../fonts/amplitud.ttf
1254.708	n/a	WORD	627354	wordpools/wasnorm_wordpool.txt	LTP086	ltpFR	5	7	1	ENCYCLOPEDIA	533	n/a	0	1	0.412841796875	0.57763671875	lower	../fonts/zerothre.ttf
1258.798	n/a	WORD	629399	wordpools/wasnorm_wordpool.txt	LTP086	ltpFR	5	7	1	RAM	1165	n/a	1	1	0.412841796875	0.57763671875	lower	../fonts/zerothre.ttf
1262.706	n/a	WORD	631353	wordpools/wasnorm_wordpool.txt	LTP086	ltpFR	5	7	0	DIAMOND	458	n/a	1	0	0.5869140625	0.422607421875	upper	../fonts/amplitud.ttf
1266.674	n/a	WORD	633337	wordpools/wasnorm_wordpool.txt	LTP086	ltpFR	5	7	0	LIME	823	n/a	1	0	0.5869140625	0.422607421875	upper	../fonts/amplitud.ttf
1270.872	n/a	WORD	635436	wordpools/wasnorm_wordpool.txt	LTP086	ltpFR	5	7	0	WHISKERS	1605	n/a	0	0	0.5869140625	0.422607421875	upper	../fonts/amplitud.ttf
1274.798	n/a	WORD	637399	wordpools/wasnorm_wordpool.txt	LTP086	ltpFR	5	7	0	PANTHER	1009	n/a	n/a	0	0.5869140625	0.422607421875	upper	../fonts/amplitud.ttf
1277.824	n/a	SLOW_MSG	638912	n/a	LTP086	ltpFR	5	7	n/a	n/a	n/a	n/a	n/a	n/a	n/a	n/a	n/a	n/a
1280.382	n/a	WORD	640191	wordpools/wasnorm_wordpool.txt	LTP086	ltpFR	5	7	0	WRITER	1627	n/a	1	0	0.5869140625	0.422607421875	upper	../fonts/amplitud.ttf
1284.39	n/a	WORD	642195	wordpools/wasnorm_wordpool.txt	LTP086	ltpFR	5	7	0	DWARF	510	n/a	0	0	0.5869140625	0.422607421875	upper	../fonts/amplitud.ttf
1288.364	n/a	WORD	644182	wordpools/wasnorm_wordpool.txt	LTP086	ltpFR	5	7	1	MAPLE	866	n/a	1	1	0.412841796875	0.57763671875	lower	../fonts/zerothre.ttf
1292.514	n/a	WORD	646257	wordpools/wasnorm_wordpool.txt	LTP086	ltpFR	5	7	1	SEA	1259	n/a	1	1	0.412841796875	0.57763671875	lower	../fonts/zerothre.ttf
1296.614	n/a	WORD	648307	wordpools/wasnorm_wordpool.txt	LTP086	ltpFR	5	7	1	TWINE	1529	n/a	1	1	0.412841796875	0.57763671875	lower	../fonts/zerothre.ttf
1300.764	n/a	WORD	650382	wordpools/wasnorm_wordpool.txt	LTP086	ltpFR	5	7	1	BELT	120	n/a	1	1	0.412841796875	0.57763671875	lower	../fonts/zerothre.ttf
1306.514	n/a	REC_START	653257	n/a	LTP086	ltpFR	5	7	n/a	n/a	n/a	n/a	n/a	n/a	n/a	n/a	n/a	n/a
1307.232	n/a	REC_WORD	653616	wordpools/wasnorm_wordpool.txt	LTP086	ltpFR	5	7	1	TWINE	1529	n/a	1	n/a	n/a	n/a	n/a	n/a
1308.21	n/a	REC_WORD	654105	wordpools/wasnorm_wordpool.txt	LTP086	ltpFR	5	7	1	BELT	120	n/a	1	n/a	n/a	n/a	n/a	n/a
1309.084	n/a	REC_WORD	654542	wordpools/wasnorm_wordpool.txt	LTP086	ltpFR	5	7	1	MAPLE	866	n/a	1	n/a	n/a	n/a	n/a	n/a
1312.176	n/a	REC_WORD_VV	656088	wordpools/wasnorm_wordpool.txt	LTP086	ltpFR	5	7	n/a	<>	-1	n/a	n/a	n/a	n/a	n/a	n/a	n/a
1312.736	n/a	REC_WORD	656368	wordpools/wasnorm_wordpool.txt	LTP086	ltpFR	5	7	0	WHISKERS	1605	n/a	0	n/a	n/a	n/a	n/a	n/a
1313.664	n/a	REC_WORD	656832	wordpools/wasnorm_wordpool.txt	LTP086	ltpFR	5	7	0	PANTHER	1009	n/a	n/a	n/a	n/a	n/a	n/a	n/a
1318.454	n/a	REC_WORD	659227	wordpools/wasnorm_wordpool.txt	LTP086	ltpFR	5	7	0	LIME	823	n/a	1	n/a	n/a	n/a	n/a	n/a
1361.776	n/a	REC_WORD_VV	680888	wordpools/wasnorm_wordpool.txt	LTP086	ltpFR	5	7	n/a	<>	-1	n/a	n/a	n/a	n/a	n/a	n/a	n/a
1362.292	n/a	REC_WORD	681146	wordpools/wasnorm_wordpool.txt	LTP086	ltpFR	5	7	1	HORIZON	717	n/a	0	n/a	n/a	n/a	n/a	n/a
1362.92	n/a	REC_WORD	681460	wordpools/wasnorm_wordpool.txt	LTP086	ltpFR	5	7	0	SUNSET	1408	n/a	0	n/a	n/a	n/a	n/a	n/a
1367.448	n/a	REC_WORD	683724	wordpools/wasnorm_wordpool.txt	LTP086	ltpFR	5	7	0	DWARF	510	n/a	0	n/a	n/a	n/a	n/a	n/a
1400.854	n/a	WORD	700427	wordpools/wasnorm_wordpool.txt	LTP086	ltpFR	5	8	0	FOE	587	n/a	1	0	0.5869140625	0.422607421875	upper	../fonts/amplitud.ttf
1404.954	n/a	WORD	702477	wordpools/wasnorm_wordpool.txt	LTP086	ltpFR	5	8	0	VISITOR	1573	n/a	0	0	0.5869140625	0.422607421875	upper	../fonts/amplitud.ttf
1409.136	n/a	WORD	704568	wordpools/wasnorm_wordpool.txt	LTP086	ltpFR	5	8	0	PILL	1068	n/a	0	0	0.5869140625	0.422607421875	upper	../fonts/amplitud.ttf
1413.062	n/a	WORD	706531	wordpools/wasnorm_wordpool.txt	LTP086	ltpFR	5	8	0	DICE	461	n/a	0	0	0.5869140625	0.422607421875	upper	../fonts/amplitud.ttf
1417.08	n/a	WORD	708540	wordpools/wasnorm_wordpool.txt	LTP086	ltpFR	5	8	1	DYNAMITE	511	n/a	0	1	0.412841796875	0.57763671875	lower	../fonts/zerothre.ttf
1421.094	n/a	WORD	710547	wordpools/wasnorm_wordpool.txt	LTP086	ltpFR	5	8	1	VOLCANO	1575	n/a	0	1	0.412841796875	0.57763671875	lower	../fonts/zerothre.ttf
1424.986	n/a	WORD	712493	wordpools/wasnorm_wordpool.txt	LTP086	ltpFR	5	8	0	TAXI	1438	n/a	0	0	0.5869140625	0.422607421875	upper	../fonts/amplitud.ttf
1429.144	n/a	WORD	714572	wordpools/wasnorm_wordpool.txt	LTP086	ltpFR	5	8	0	SHOP	1290	n/a	0	0	0.5869140625	0.422607421875	upper	../fonts/amplitud.ttf
1433.176	n/a	WORD	716588	wordpools/wasnorm_wordpool.txt	LTP086	ltpFR	5	8	0	DRILL	497	n/a	1	0	0.5869140625	0.422607421875	upper	../fonts/amplitud.ttf
1437.352	n/a	WORD	718676	wordpools/wasnorm_wordpool.txt	LTP086	ltpFR	5	8	0	DRIVER	499	n/a	1	0	0.5869140625	0.422607421875	upper	../fonts/amplitud.ttf
1441.236	n/a	WORD	720618	wordpools/wasnorm_wordpool.txt	LTP086	ltpFR	5	8	1	FACTORY	548	n/a	0	1	0.412841796875	0.57763671875	lower	../fonts/zerothre.ttf
1445.218	n/a	WORD	722609	wordpools/wasnorm_wordpool.txt	LTP086	ltpFR	5	8	1	JOKER	759	n/a	1	1	0.412841796875	0.57763671875	lower	../fonts/zerothre.ttf
1449.186	n/a	WORD	724593	wordpools/wasnorm_wordpool.txt	LTP086	ltpFR	5	8	1	FLIPPER	580	n/a	0	1	0.412841796875	0.57763671875	lower	../fonts/zerothre.ttf
1453.276	n/a	WORD	726638	wordpools/wasnorm_wordpool.txt	LTP086	ltpFR	5	8	1	TROUT	1511	n/a	0	1	0.412841796875	0.57763671875	lower	../fonts/zerothre.ttf
1457.352	n/a	WORD	728676	wordpools/wasnorm_wordpool.txt	LTP086	ltpFR	5	8	1	CABOOSE	214	n/a	0	1	0.412841796875	0.57763671875	lower	../fonts/zerothre.ttf
1461.294	n/a	WORD	730647	wordpools/wasnorm_wordpool.txt	LTP086	ltpFR	5	8	1	WHIP	1604	n/a	1	1	0.412841796875	0.57763671875	lower	../fonts/zerothre.ttf
1467.394	n/a	REC_START	733697	n/a	LTP086	ltpFR	5	8	n/a	n/a	n/a	n/a	n/a	n/a	n/a	n/a	n/a	n/a
1468.096	n/a	REC_WORD	734048	wordpools/wasnorm_wordpool.txt	LTP086	ltpFR	5	8	1	FACTORY	548	n/a	0	n/a	n/a	n/a	n/a	n/a
1469.374	n/a	REC_WORD	734687	wordpools/wasnorm_wordpool.txt	LTP086	ltpFR	5	8	1	WHIP	1604	n/a	1	n/a	n/a	n/a	n/a	n/a
1470.162	n/a	REC_WORD	735081	wordpools/wasnorm_wordpool.txt	LTP086	ltpFR	5	8	1	CABOOSE	214	n/a	0	n/a	n/a	n/a	n/a	n/a
1473.318	n/a	REC_WORD_VV	736659	wordpools/wasnorm_wordpool.txt	LTP086	ltpFR	5	8	n/a	<>	-1	n/a	n/a	n/a	n/a	n/a	n/a	n/a
1494.008	n/a	REC_WORD	747004	wordpools/wasnorm_wordpool.txt	LTP086	ltpFR	5	8	0	DRIVER	499	n/a	1	n/a	n/a	n/a	n/a	n/a
1496.762	n/a	REC_WORD	748381	wordpools/wasnorm_wordpool.txt	LTP086	ltpFR	5	8	0	VISITOR	1573	n/a	0	n/a	n/a	n/a	n/a	n/a
1586.958	n/a	WORD	793479	wordpools/wasnorm_wordpool.txt	LTP086	ltpFR	5	9	1	SPONGE	1355	n/a	0	1	0.412841796875	0.57763671875	lower	../fonts/zerothre.ttf
1591.14	n/a	WORD	795570	wordpools/wasnorm_wordpool.txt	LTP086	ltpFR	5	9	1	FLOUR	583	n/a	0	1	0.412841796875	0.57763671875	lower	../fonts/zerothre.ttf
1595.156	n/a	WORD	797578	wordpools/wasnorm_wordpool.txt	LTP086	ltpFR	5	9	1	CURB	426	n/a	0	1	0.412841796875	0.57763671875	lower	../fonts/zerothre.ttf
1599.066	n/a	WORD	799533	wordpools/wasnorm_wordpool.txt	LTP086	ltpFR	5	9	1	TULIP	1517	n/a	0	1	0.412841796875	0.57763671875	lower	../fonts/zerothre.ttf
1603.224	n/a	WORD	801612	wordpools/wasnorm_wordpool.txt	LTP086	ltpFR	5	9	1	NICOTINE	951	n/a	1	1	0.412841796875	0.57763671875	lower	../fonts/zerothre.ttf
1607.214	n/a	WORD	803607	wordpools/wasnorm_wordpool.txt	LTP086	ltpFR	5	9	1	RAILROAD	1162	n/a	0	1	0.412841796875	0.57763671875	lower	../fonts/zerothre.ttf
1611.172	n/a	WORD	805586	wordpools/wasnorm_wordpool.txt	LTP086	ltpFR	5	9	1	FREEWAY	603	n/a	0	1	0.412841796875	0.57763671875	lower	../fonts/zerothre.ttf
1615.214	n/a	WORD	807607	wordpools/wasnorm_wordpool.txt	LTP086	ltpFR	5	9	1	RUST	1219	n/a	0	1	0.412841796875	0.57763671875	lower	../fonts/zerothre.ttf
1619.032	n/a	WORD	809516	wordpools/wasnorm_wordpool.txt	LTP086	ltpFR	5	9	1	FRIEND	606	n/a	1	1	0.412841796875	0.57763671875	lower	../fonts/zerothre.ttf
1622.872	n/a	WORD	811436	wordpools/wasnorm_wordpool.txt	LTP086	ltpFR	5	9	1	ENEMY	534	n/a	0	1	0.412841796875	0.57763671875	lower	../fonts/zerothre.ttf
1626.914	n/a	WORD	813457	wordpools/wasnorm_wordpool.txt	LTP086	ltpFR	5	9	1	VIKING	1565	n/a	1	1	0.412841796875	0.57763671875	lower	../fonts/zerothre.ttf
1631.056	n/a	WORD	815528	wordpools/wasnorm_wordpool.txt	LTP086	ltpFR	5	9	1	ATHLETE	52	n/a	1	1	0.412841796875	0.57763671875	lower	../fonts/zerothre.ttf
1635.164	n/a	WORD	817582	wordpools/wasnorm_wordpool.txt	LTP086	ltpFR	5	9	1	DRAWING	494	n/a	1	1	0.412841796875	0.57763671875	lower	../fonts/zerothre.ttf
1639.048	n/a	WORD	819524	wordpools/wasnorm_wordpool.txt	LTP086	ltpFR	5	9	1	BATH	98	n/a	0	1	0.412841796875	0.57763671875	lower	../fonts/zerothre.ttf
1643.09	n/a	WORD	821545	wordpools/wasnorm_wordpool.txt	LTP086	ltpFR	5	9	1	PISTON	1076	n/a	1	1	0.412841796875	0.57763671875	lower	../fonts/zerothre.ttf
1647.04	n/a	WORD	823520	wordpools/wasnorm_wordpool.txt	LTP086	ltpFR	5	9	1	DESSERT	453	n/a	0	1	0.412841796875	0.57763671875	lower	../fonts/zerothre.ttf
1653.006	n/a	REC_START	826503	n/a	LTP086	ltpFR	5	9	n/a	n/a	n/a	n/a	n/a	n/a	n/a	n/a	n/a	n/a
1653.51	n/a	REC_WORD	826755	wordpools/wasnorm_wordpool.txt	LTP086	ltpFR	5	9	1	PISTON	1076	n/a	1	n/a	n/a	n/a	n/a	n/a
1654.368	n/a	REC_WORD	827184	wordpools/wasnorm_wordpool.txt	LTP086	ltpFR	5	9	1	DESSERT	453	n/a	0	n/a	n/a	n/a	n/a	n/a
1655.606	n/a	REC_WORD	827803	wordpools/wasnorm_wordpool.txt	LTP086	ltpFR	5	9	1	DRAWING	494	n/a	1	n/a	n/a	n/a	n/a	n/a
1656.802	n/a	REC_WORD	828401	wordpools/wasnorm_wordpool.txt	LTP086	ltpFR	5	9	1	BATH	98	n/a	0	n/a	n/a	n/a	n/a	n/a
1668.478	n/a	REC_WORD	834239	wordpools/wasnorm_wordpool.txt	LTP086	ltpFR	5	9	1	SPONGE	1355	n/a	0	n/a	n/a	n/a	n/a	n/a
1675.93	n/a	REC_WORD	837965	wordpools/wasnorm_wordpool.txt	LTP086	ltpFR	5	9	1	ATHLETE	52	n/a	1	n/a	n/a	n/a	n/a	n/a
1676.808	n/a	REC_WORD	838404	wordpools/wasnorm_wordpool.txt	LTP086	ltpFR	5	9	1	VIKING	1565	n/a	1	n/a	n/a	n/a	n/a	n/a
1682.426	n/a	REC_WORD	841213	wordpools/wasnorm_wordpool.txt	LTP086	ltpFR	5	9	1	FREEWAY	603	n/a	0	n/a	n/a	n/a	n/a	n/a
1683.374	n/a	REC_WORD	841687	wordpools/wasnorm_wordpool.txt	LTP086	ltpFR	5	9	1	RAILROAD	1162	n/a	0	n/a	n/a	n/a	n/a	n/a
1684.472	n/a	REC_WORD	842236	wordpools/wasnorm_wordpool.txt	LTP086	ltpFR	5	9	1	RUST	1219	n/a	0	n/a	n/a	n/a	n/a	n/a
1731.436	n/a	WORD	865718	wordpools/wasnorm_wordpool.txt	LTP086	ltpFR	5	10	-1	OPERA	978	n/a	-1	1	1.0	1.0	upper	../fonts/Verdana.ttf
1735.444	n/a	WORD	867722	wordpools/wasnorm_wordpool.txt	LTP086	ltpFR	5	10	-1	CANOE	233	n/a	-1	1	1.0	1.0	upper	../fonts/Verdana.ttf
1739.304	n/a	WORD	869652	wordpools/wasnorm_wordpool.txt	LTP086	ltpFR	5	10	-1	SHRINE	1298	n/a	-1	1	1.0	1.0	upper	../fonts/Verdana.ttf
1743.144	n/a	WORD	871572	wordpools/wasnorm_wordpool.txt	LTP086	ltpFR	5	10	-1	PRISONER	1128	n/a	-1	1	1.0	1.0	upper	../fonts/Verdana.ttf
1747.11	n/a	WORD	873555	wordpools/wasnorm_wordpool.txt	LTP086	ltpFR	5	10	-1	SLIDE	1326	n/a	-1	1	1.0	1.0	upper	../fonts/Verdana.ttf
1750.952	n/a	WORD	875476	wordpools/wasnorm_wordpool.txt	LTP086	ltpFR	5	10	-1	PREACHER	1119	n/a	-1	1	1.0	1.0	upper	../fonts/Verdana.ttf
1754.86	n/a	WORD	877430	wordpools/wasnorm_wordpool.txt	LTP086	ltpFR	5	10	-1	CONVENT	370	n/a	-1	1	1.0	1.0	upper	../fonts/Verdana.ttf
1759.054	n/a	WORD	879527	wordpools/wasnorm_wordpool.txt	LTP086	ltpFR	5	10	-1	BARN	89	n/a	-1	1	1.0	1.0	upper	../fonts/Verdana.ttf
1762.902	n/a	WORD	881451	wordpools/wasnorm_wordpool.txt	LTP086	ltpFR	5	10	-1	BUTCHER	203	n/a	-1	1	1.0	1.0	upper	../fonts/Verdana.ttf
1766.952	n/a	WORD	883476	wordpools/wasnorm_wordpool.txt	LTP086	ltpFR	5	10	-1	SAXOPHONE	1240	n/a	-1	1	1.0	1.0	upper	../fonts/Verdana.ttf
1770.97	n/a	WORD	885485	wordpools/wasnorm_wordpool.txt	LTP086	ltpFR	5	10	-1	ORGAN	984	n/a	-1	1	1.0	1.0	upper	../fonts/Verdana.ttf
1774.91	n/a	WORD	887455	wordpools/wasnorm_wordpool.txt	LTP086	ltpFR	5	10	-1	NURSERY	964	n/a	-1	1	1.0	1.0	upper	../fonts/Verdana.ttf
1778.86	n/a	WORD	889430	wordpools/wasnorm_wordpool.txt	LTP086	ltpFR	5	10	-1	MISSILE	900	n/a	-1	1	1.0	1.0	upper	../fonts/Verdana.ttf
1782.97	n/a	WORD	891485	wordpools/wasnorm_wordpool.txt	LTP086	ltpFR	5	10	-1	CONCERT	360	n/a	-1	1	1.0	1.0	upper	../fonts/Verdana.ttf
1787.118	n/a	WORD	893559	wordpools/wasnorm_wordpool.txt	LTP086	ltpFR	5	10	-1	HURRICANE	727	n/a	-1	1	1.0	1.0	upper	../fonts/Verdana.ttf
1791.176	n/a	WORD	895588	wordpools/wasnorm_wordpool.txt	LTP086	ltpFR	5	10	-1	HOSTAGE	722	n/a	-1	1	1.0	1.0	upper	../fonts/Verdana.ttf
1797.134	n/a	REC_START	898567	n/a	LTP086	ltpFR	5	10	n/a	n/a	n/a	n/a	n/a	n/a	n/a	n/a	n/a	n/a
1797.838	n/a	REC_WORD	898919	wordpools/wasnorm_wordpool.txt	LTP086	ltpFR	5	10	-1	CANOE	233	n/a	-1	n/a	n/a	n/a	n/a	n/a
1798.936	n/a	REC_WORD	899468	wordpools/wasnorm_wordpool.txt	LTP086	ltpFR	5	10	-1	BARN	89	n/a	-1	n/a	n/a	n/a	n/a	n/a
1799.744	n/a	REC_WORD	899872	wordpools/wasnorm_wordpool.txt	LTP086	ltpFR	5	10	-1	NURSERY	964	n/a	-1	n/a	n/a	n/a	n/a	n/a
1800.812	n/a	REC_WORD	900406	wordpools/wasnorm_wordpool.txt	LTP086	ltpFR	5	10	-1	HOSTAGE	722	n/a	-1	n/a	n/a	n/a	n/a	n/a
1801.84	n/a	REC_WORD	900920	wordpools/wasnorm_wordpool.txt	LTP086	ltpFR	5	10	-1	PRISONER	1128	n/a	-1	n/a	n/a	n/a	n/a	n/a
1802.668	n/a	REC_WORD	901334	wordpools/wasnorm_wordpool.txt	LTP086	ltpFR	5	10	-1	SHRINE	1298	n/a	-1	n/a	n/a	n/a	n/a	n/a
1803.984	n/a	REC_WORD	901992	wordpools/wasnorm_wordpool.txt	LTP086	ltpFR	5	10	-1	OPERA	978	n/a	-1	n/a	n/a	n/a	n/a	n/a
1824.644	n/a	REC_WORD	912322	wordpools/wasnorm_wordpool.txt	LTP086	ltpFR	5	10	-1	CONVENT	370	n/a	-1	n/a	n/a	n/a	n/a	n/a
1857.006	n/a	REC_WORD	928503	wordpools/wasnorm_wordpool.txt	LTP086	ltpFR	5	10	-1	BUTCHER	203	n/a	-1	n/a	n/a	n/a	n/a	n/a
1861.148	n/a	REC_WORD	930574	wordpools/wasnorm_wordpool.txt	LTP086	ltpFR	5	10	-1	SAXOPHONE	1240	n/a	-1	n/a	n/a	n/a	n/a	n/a
1864.86	n/a	REC_WORD	932430	wordpools/wasnorm_wordpool.txt	LTP086	ltpFR	5	10	-1	ORGAN	984	n/a	-1	n/a	n/a	n/a	n/a	n/a
1868.232	n/a	REC_WORD	934116	wordpools/wasnorm_wordpool.txt	LTP086	ltpFR	5	10	-1	MISSILE	900	n/a	-1	n/a	n/a	n/a	n/a	n/a
1887.524	n/a	WORD	943762	wordpools/wasnorm_wordpool.txt	LTP086	ltpFR	5	11	1	TOWEL	1489	n/a	0	1	0.412841796875	0.57763671875	lower	../fonts/zerothre.ttf
1891.508	n/a	WORD	945754	wordpools/wasnorm_wordpool.txt	LTP086	ltpFR	5	11	1	PLUMBER	1091	n/a	1	1	0.412841796875	0.57763671875	lower	../fonts/zerothre.ttf
1895.566	n/a	WORD	947783	wordpools/wasnorm_wordpool.txt	LTP086	ltpFR	5	11	1	BOUQUET	157	n/a	1	1	0.412841796875	0.57763671875	lower	../fonts/zerothre.ttf
1899.724	n/a	WORD	949862	wordpools/wasnorm_wordpool.txt	LTP086	ltpFR	5	11	1	ANCESTOR	20	n/a	1	1	0.412841796875	0.57763671875	lower	../fonts/zerothre.ttf
1903.64	n/a	WORD	951820	wordpools/wasnorm_wordpool.txt	LTP086	ltpFR	5	11	1	PAVEMENT	1028	n/a	0	1	0.412841796875	0.57763671875	lower	../fonts/zerothre.ttf
1907.632	n/a	WORD	953816	wordpools/wasnorm_wordpool.txt	LTP086	ltpFR	5	11	1	BOOK	149	n/a	0	1	0.412841796875	0.57763671875	lower	../fonts/zerothre.ttf
1911.682	n/a	WORD	955841	wordpools/wasnorm_wordpool.txt	LTP086	ltpFR	5	11	1	LIBRARY	816	n/a	0	1	0.412841796875	0.57763671875	lower	../fonts/zerothre.ttf
1915.714	n/a	WORD	957857	wordpools/wasnorm_wordpool.txt	LTP086	ltpFR	5	11	1	THORN	1459	n/a	0	1	0.412841796875	0.57763671875	lower	../fonts/zerothre.ttf
1919.79	n/a	WORD	959895	wordpools/wasnorm_wordpool.txt	LTP086	ltpFR	5	11	1	ISLAND	745	n/a	0	1	0.412841796875	0.57763671875	lower	../fonts/zerothre.ttf
1923.882	n/a	WORD	961941	wordpools/wasnorm_wordpool.txt	LTP086	ltpFR	5	11	1	BOULEVARD	156	n/a	0	1	0.412841796875	0.57763671875	lower	../fonts/zerothre.ttf
1927.798	n/a	WORD	963899	wordpools/wasnorm_wordpool.txt	LTP086	ltpFR	5	11	1	AUNT	60	n/a	1	1	0.412841796875	0.57763671875	lower	../fonts/zerothre.ttf
1931.94	n/a	WORD	965970	wordpools/wasnorm_wordpool.txt	LTP086	ltpFR	5	11	1	SKYSCRAPER	1322	n/a	0	1	0.412841796875	0.57763671875	lower	../fonts/zerothre.ttf
1935.938	n/a	WORD	967969	wordpools/wasnorm_wordpool.txt	LTP086	ltpFR	5	11	1	POISON	1096	n/a	0	1	0.412841796875	0.57763671875	lower	../fonts/zerothre.ttf
1939.848	n/a	WORD	969924	wordpools/wasnorm_wordpool.txt	LTP086	ltpFR	5	11	1	OREGANO	983	n/a	1	1	0.412841796875	0.57763671875	lower	../fonts/zerothre.ttf
1944.058	n/a	WORD	972029	wordpools/wasnorm_wordpool.txt	LTP086	ltpFR	5	11	1	SUGAR	1401	n/a	0	1	0.412841796875	0.57763671875	lower	../fonts/zerothre.ttf
1947.982	n/a	WORD	973991	wordpools/wasnorm_wordpool.txt	LTP086	ltpFR	5	11	1	CROCODILE	411	n/a	0	1	0.412841796875	0.57763671875	lower	../fonts/zerothre.ttf
1953.748	n/a	REC_START	976874	n/a	LTP086	ltpFR	5	11	n/a	n/a	n/a	n/a	n/a	n/a	n/a	n/a	n/a	n/a
1954.222	n/a	REC_WORD	977111	wordpools/wasnorm_wordpool.txt	LTP086	ltpFR	5	11	1	SUGAR	1401	n/a	0	n/a	n/a	n/a	n/a	n/a
1955.208	n/a	REC_WORD	977604	wordpools/wasnorm_wordpool.txt	LTP086	ltpFR	5	11	1	CROCODILE	411	n/a	0	n/a	n/a	n/a	n/a	n/a
1956.416	n/a	REC_WORD	978208	wordpools/wasnorm_wordpool.txt	LTP086	ltpFR	5	11	1	POISON	1096	n/a	0	n/a	n/a	n/a	n/a	n/a
1960.468	n/a	REC_WORD	980234	wordpools/wasnorm_wordpool.txt	LTP086	ltpFR	5	11	1	PLUMBER	1091	n/a	1	n/a	n/a	n/a	n/a	n/a
1961.302	n/a	REC_WORD	980651	wordpools/wasnorm_wordpool.txt	LTP086	ltpFR	5	11	1	TOWEL	1489	n/a	0	n/a	n/a	n/a	n/a	n/a
2011.094	n/a	REC_WORD	1005547	wordpools/wasnorm_wordpool.txt	LTP086	ltpFR	5	11	1	SKYSCRAPER	1322	n/a	0	n/a	n/a	n/a	n/a	n/a
2035.536	n/a	WORD	1017768	wordpools/wasnorm_wordpool.txt	LTP086	ltpFR	5	12	-1	MICROSCOPE	891	n/a	-1	1	1.0	1.0	upper	../fonts/Verdana.ttf
2039.378	n/a	WORD	1019689	wordpools/wasnorm_wordpool.txt	LTP086	ltpFR	5	12	-1	TUNNEL	1519	n/a	-1	1	1.0	1.0	upper	../fonts/Verdana.ttf
2043.454	n/a	WORD	1021727	wordpools/wasnorm_wordpool.txt	LTP086	ltpFR	5	12	-1	WRENCH	1625	n/a	-1	1	1.0	1.0	upper	../fonts/Verdana.ttf
2047.504	n/a	WORD	1023752	wordpools/wasnorm_wordpool.txt	LTP086	ltpFR	5	12	-1	PEOPLE	1046	n/a	-1	1	1.0	1.0	upper	../fonts/Verdana.ttf
2051.586	n/a	WORD	1025793	wordpools/wasnorm_wordpool.txt	LTP086	ltpFR	5	12	-1	STUMP	1396	n/a	-1	1	1.0	1.0	upper	../fonts/Verdana.ttf
2055.452	n/a	WORD	1027726	wordpools/wasnorm_wordpool.txt	LTP086	ltpFR	5	12	-1	WALNUT	1584	n/a	-1	1	1.0	1.0	upper	../fonts/Verdana.ttf
2059.36	n/a	WORD	1029680	wordpools/wasnorm_wordpool.txt	LTP086	ltpFR	5	12	-1	RUNNER	1218	n/a	-1	1	1.0	1.0	upper	../fonts/Verdana.ttf
2063.32	n/a	WORD	1031660	wordpools/wasnorm_wordpool.txt	LTP086	ltpFR	5	12	-1	GANG	619	n/a	-1	1	1.0	1.0	upper	../fonts/Verdana.ttf
2067.402	n/a	WORD	1033701	wordpools/wasnorm_wordpool.txt	LTP086	ltpFR	5	12	-1	YARN	1631	n/a	-1	1	1.0	1.0	upper	../fonts/Verdana.ttf
2071.41	n/a	WORD	1035705	wordpools/wasnorm_wordpool.txt	LTP086	ltpFR	5	12	-1	MONEY	908	n/a	-1	1	1.0	1.0	upper	../fonts/Verdana.ttf
2075.318	n/a	WORD	1037659	wordpools/wasnorm_wordpool.txt	LTP086	ltpFR	5	12	-1	REGISTER	1180	n/a	-1	1	1.0	1.0	upper	../fonts/Verdana.ttf
2079.336	n/a	WORD	1039668	wordpools/wasnorm_wordpool.txt	LTP086	ltpFR	5	12	-1	PAWN	1030	n/a	-1	1	1.0	1.0	upper	../fonts/Verdana.ttf
2083.186	n/a	WORD	1041593	wordpools/wasnorm_wordpool.txt	LTP086	ltpFR	5	12	-1	PENGUIN	1044	n/a	-1	1	1.0	1.0	upper	../fonts/Verdana.ttf
2087.062	n/a	WORD	1043531	wordpools/wasnorm_wordpool.txt	LTP086	ltpFR	5	12	-1	CLOVE	329	n/a	-1	1	1.0	1.0	upper	../fonts/Verdana.ttf
2090.886	n/a	WORD	1045443	wordpools/wasnorm_wordpool.txt	LTP086	ltpFR	5	12	-1	PEPPER	1047	n/a	-1	1	1.0	1.0	upper	../fonts/Verdana.ttf
2094.986	n/a	WORD	1047493	wordpools/wasnorm_wordpool.txt	LTP086	ltpFR	5	12	-1	CHEMIST	292	n/a	-1	1	1.0	1.0	upper	../fonts/Verdana.ttf
2100.868	n/a	REC_START	1050434	n/a	LTP086	ltpFR	5	12	n/a	n/a	n/a	n/a	n/a	n/a	n/a	n/a	n/a	n/a
2101.222	n/a	REC_WORD	1050611	wordpools/wasnorm_wordpool.txt	LTP086	ltpFR	5	12	-1	REGISTER	1180	n/a	-1	n/a	n/a	n/a	n/a	n/a
2102.186	n/a	REC_WORD	1051093	wordpools/wasnorm_wordpool.txt	LTP086	ltpFR	5	12	-1	PAWN	1030	n/a	-1	n/a	n/a	n/a	n/a	n/a
2103.094	n/a	REC_WORD	1051547	wordpools/wasnorm_wordpool.txt	LTP086	ltpFR	5	12	-1	PENGUIN	1044	n/a	-1	n/a	n/a	n/a	n/a	n/a
2104.096	n/a	REC_WORD	1052048	wordpools/wasnorm_wordpool.txt	LTP086	ltpFR	5	12	-1	CLOVE	329	n/a	-1	n/a	n/a	n/a	n/a	n/a
2105.214	n/a	REC_WORD	1052607	wordpools/wasnorm_wordpool.txt	LTP086	ltpFR	5	12	-1	PEPPER	1047	n/a	-1	n/a	n/a	n/a	n/a	n/a
2106.148	n/a	REC_WORD	1053074	wordpools/wasnorm_wordpool.txt	LTP086	ltpFR	5	12	-1	CHEMIST	292	n/a	-1	n/a	n/a	n/a	n/a	n/a
2109.936	n/a	REC_WORD_VV	1054968	wordpools/wasnorm_wordpool.txt	LTP086	ltpFR	5	12	n/a	<>	-1	n/a	n/a	n/a	n/a	n/a	n/a	n/a
2116.25	n/a	REC_WORD_VV	1058125	wordpools/wasnorm_wordpool.txt	LTP086	ltpFR	5	12	n/a	<>	-1	n/a	n/a	n/a	n/a	n/a	n/a	n/a
2116.552	n/a	REC_WORD	1058276	wordpools/wasnorm_wordpool.txt	LTP086	ltpFR	5	12	1	OREGANO	983	n/a	1	n/a	n/a	n/a	n/a	n/a
2117.218	n/a	REC_WORD_VV	1058609	wordpools/wasnorm_wordpool.txt	LTP086	ltpFR	5	12	n/a	<>	-1	n/a	n/a	n/a	n/a	n/a	n/a	n/a
2125.01	n/a	REC_WORD	1062505	wordpools/wasnorm_wordpool.txt	LTP086	ltpFR	5	12	-1	WRENCH	1625	n/a	-1	n/a	n/a	n/a	n/a	n/a
2125.874	n/a	REC_WORD	1062937	wordpools/wasnorm_wordpool.txt	LTP086	ltpFR	5	12	-1	PEOPLE	1046	n/a	-1	n/a	n/a	n/a	n/a	n/a
2133.122	n/a	REC_WORD	1066561	wordpools/wasnorm_wordpool.txt	LTP086	ltpFR	5	12	-1	STUMP	1396	n/a	-1	n/a	n/a	n/a	n/a	n/a
2176.458	n/a	REST_REWET	1088229	n/a	LTP086	ltpFR	5	12	n/a	n/a	n/a	n/a	n/a	n/a	n/a	n/a	n/a	n/a
2518.732	n/a	WORD	1259366	wordpools/wasnorm_wordpool.txt	LTP086	ltpFR	5	13	0	HEATER	698	n/a	1	0	0.5869140625	0.422607421875	upper	../fonts/amplitud.ttf
2522.674	n/a	WORD	1261337	wordpools/wasnorm_wordpool.txt	LTP086	ltpFR	5	13	0	STALLION	1369	n/a	1	0	0.5869140625	0.422607421875	upper	../fonts/amplitud.ttf
2526.774	n/a	WORD	1263387	wordpools/wasnorm_wordpool.txt	LTP086	ltpFR	5	13	1	GUEST	669	n/a	1	1	0.412841796875	0.57763671875	lower	../fonts/zerothre.ttf
2530.782	n/a	WORD	1265391	wordpools/wasnorm_wordpool.txt	LTP086	ltpFR	5	13	1	COMPANION	357	n/a	1	1	0.412841796875	0.57763671875	lower	../fonts/zerothre.ttf
2534.858	n/a	WORD	1267429	wordpools/wasnorm_wordpool.txt	LTP086	ltpFR	5	13	1	HOOD	714	n/a	0	1	0.412841796875	0.57763671875	lower	../fonts/zerothre.ttf
2538.89	n/a	WORD	1269445	wordpools/wasnorm_wordpool.txt	LTP086	ltpFR	5	13	1	THERMOMETER	1453	n/a	0	1	0.412841796875	0.57763671875	lower	../fonts/zerothre.ttf
2543.058	n/a	WORD	1271529	wordpools/wasnorm_wordpool.txt	LTP086	ltpFR	5	13	0	VIOLA	1570	n/a	0	0	0.5869140625	0.422607421875	upper	../fonts/amplitud.ttf
2546.932	n/a	WORD	1273466	wordpools/wasnorm_wordpool.txt	LTP086	ltpFR	5	13	0	COLLAR	345	n/a	0	0	0.5869140625	0.422607421875	upper	../fonts/amplitud.ttf
2550.816	n/a	WORD	1275408	wordpools/wasnorm_wordpool.txt	LTP086	ltpFR	5	13	1	MANAGER	863	n/a	1	1	0.412841796875	0.57763671875	lower	../fonts/zerothre.ttf
2554.766	n/a	WORD	1277383	wordpools/wasnorm_wordpool.txt	LTP086	ltpFR	5	13	1	STAFF	1365	n/a	1	1	0.412841796875	0.57763671875	lower	../fonts/zerothre.ttf
2558.772	n/a	WORD	1279386	wordpools/wasnorm_wordpool.txt	LTP086	ltpFR	5	13	1	DRESS	495	n/a	1	1	0.412841796875	0.57763671875	lower	../fonts/zerothre.ttf
2562.98	n/a	WORD	1281490	wordpools/wasnorm_wordpool.txt	LTP086	ltpFR	5	13	1	ATTIRE	57	n/a	0	1	0.412841796875	0.57763671875	lower	../fonts/zerothre.ttf
2567.174	n/a	WORD	1283587	wordpools/wasnorm_wordpool.txt	LTP086	ltpFR	5	13	0	PUZZLE	1146	n/a	1	0	0.5869140625	0.422607421875	upper	../fonts/amplitud.ttf
2571.1	n/a	WORD	1285550	wordpools/wasnorm_wordpool.txt	LTP086	ltpFR	5	13	0	BOX	159	n/a	0	0	0.5869140625	0.422607421875	upper	../fonts/amplitud.ttf
2574.948	n/a	WORD	1287474	wordpools/wasnorm_wordpool.txt	LTP086	ltpFR	5	13	0	LAUNDRY	803	n/a	0	0	0.5869140625	0.422607421875	upper	../fonts/amplitud.ttf
2579.098	n/a	WORD	1289549	wordpools/wasnorm_wordpool.txt	LTP086	ltpFR	5	13	0	COWBOY	395	n/a	1	0	0.5869140625	0.422607421875	upper	../fonts/amplitud.ttf
2584.722	n/a	REC_START	1292361	n/a	LTP086	ltpFR	5	13	n/a	n/a	n/a	n/a	n/a	n/a	n/a	n/a	n/a	n/a
2585.282	n/a	REC_WORD	1292641	wordpools/wasnorm_wordpool.txt	LTP086	ltpFR	5	13	0	PUZZLE	1146	n/a	1	n/a	n/a	n/a	n/a	n/a
2586.004	n/a	REC_WORD	1293002	wordpools/wasnorm_wordpool.txt	LTP086	ltpFR	5	13	0	LAUNDRY	803	n/a	0	n/a	n/a	n/a	n/a	n/a
2587.024	n/a	REC_WORD	1293512	wordpools/wasnorm_wordpool.txt	LTP086	ltpFR	5	13	0	COWBOY	395	n/a	1	n/a	n/a	n/a	n/a	n/a
2588.026	n/a	REC_WORD	1294013	wordpools/wasnorm_wordpool.txt	LTP086	ltpFR	5	13	0	STALLION	1369	n/a	1	n/a	n/a	n/a	n/a	n/a
2589.218	n/a	REC_WORD	1294609	wordpools/wasnorm_wordpool.txt	LTP086	ltpFR	5	13	1	COMPANION	357	n/a	1	n/a	n/a	n/a	n/a	n/a
2590.426	n/a	REC_WORD	1295213	wordpools/wasnorm_wordpool.txt	LTP086	ltpFR	5	13	1	GUEST	669	n/a	1	n/a	n/a	n/a	n/a	n/a
2592.342	n/a	REC_WORD	1296171	wordpools/wasnorm_wordpool.txt	LTP086	ltpFR	5	13	0	COLLAR	345	n/a	0	n/a	n/a	n/a	n/a	n/a
2597.41	n/a	REC_WORD	1298705	wordpools/wasnorm_wordpool.txt	LTP086	ltpFR	5	13	1	MANAGER	863	n/a	1	n/a	n/a	n/a	n/a	n/a
2598.188	n/a	REC_WORD	1299094	wordpools/wasnorm_wordpool.txt	LTP086	ltpFR	5	13	1	STAFF	1365	n/a	1	n/a	n/a	n/a	n/a	n/a
2621.756	n/a	REC_WORD	1310878	wordpools/wasnorm_wordpool.txt	LTP086	ltpFR	5	13	0	BOX	159	n/a	0	n/a	n/a	n/a	n/a	n/a
2641.956	n/a	REC_WORD	1320978	wordpools/wasnorm_wordpool.txt	LTP086	ltpFR	5	13	0	VIOLA	1570	n/a	0	n/a	n/a	n/a	n/a	n/a
2665.228	n/a	WORD	1332614	wordpools/wasnorm_wordpool.txt	LTP086	ltpFR	5	14	1	PATIO	1025	n/a	0	1	0.412841796875	0.57763671875	lower	../fonts/zerothre.ttf
2669.254	n/a	WORD	1334627	wordpools/wasnorm_wordpool.txt	LTP086	ltpFR	5	14	1	FRUIT	610	n/a	1	1	0.412841796875	0.57763671875	lower	../fonts/zerothre.ttf
2673.22	n/a	WORD	1336610	wordpools/wasnorm_wordpool.txt	LTP086	ltpFR	5	14	1	ALLIGATOR	16	n/a	1	1	0.412841796875	0.57763671875	lower	../fonts/zerothre.ttf
2677.304	n/a	WORD	1338652	wordpools/wasnorm_wordpool.txt	LTP086	ltpFR	5	14	1	CELERY	266	n/a	1	1	0.412841796875	0.57763671875	lower	../fonts/zerothre.ttf
2681.194	n/a	WORD	1340597	wordpools/wasnorm_wordpool.txt	LTP086	ltpFR	5	14	1	TANGERINE	1431	n/a	1	1	0.412841796875	0.57763671875	lower	../fonts/zerothre.ttf
2685.054	n/a	WORD	1342527	wordpools/wasnorm_wordpool.txt	LTP086	ltpFR	5	14	1	CREATURE	403	n/a	1	1	0.412841796875	0.57763671875	lower	../fonts/zerothre.ttf
2688.962	n/a	WORD	1344481	wordpools/wasnorm_wordpool.txt	LTP086	ltpFR	5	14	0	HOSE	720	n/a	n/a	0	0.5869140625	0.422607421875	upper	../fonts/amplitud.ttf
2691.986	n/a	SLOW_MSG	1345993	n/a	LTP086	ltpFR	5	14	n/a	n/a	n/a	n/a	n/a	n/a	n/a	n/a	n/a	n/a
2694.662	n/a	WORD	1347331	wordpools/wasnorm_wordpool.txt	LTP086	ltpFR	5	14	0	CREEK	404	n/a	1	0	0.5869140625	0.422607421875	upper	../fonts/amplitud.ttf
2698.52	n/a	WORD	1349260	wordpools/wasnorm_wordpool.txt	LTP086	ltpFR	5	14	0	SKIN	1318	n/a	1	0	0.5869140625	0.422607421875	upper	../fonts/amplitud.ttf
2702.728	n/a	WORD	1351364	wordpools/wasnorm_wordpool.txt	LTP086	ltpFR	5	14	0	SURF	1412	n/a	1	0	0.5869140625	0.422607421875	upper	../fonts/amplitud.ttf
2706.652	n/a	WORD	1353326	wordpools/wasnorm_wordpool.txt	LTP086	ltpFR	5	14	1	SOCIETY	1338	n/a	1	1	0.412841796875	0.57763671875	lower	../fonts/zerothre.ttf
2710.512	n/a	WORD	1355256	wordpools/wasnorm_wordpool.txt	LTP086	ltpFR	5	14	1	RICE	1190	n/a	1	1	0.412841796875	0.57763671875	lower	../fonts/zerothre.ttf
2714.394	n/a	WORD	1357197	wordpools/wasnorm_wordpool.txt	LTP086	ltpFR	5	14	0	CHEF	290	n/a	1	0	0.5869140625	0.422607421875	upper	../fonts/amplitud.ttf
2718.318	n/a	WORD	1359159	wordpools/wasnorm_wordpool.txt	LTP086	ltpFR	5	14	0	FAIRY	549	n/a	1	0	0.5869140625	0.422607421875	upper	../fonts/amplitud.ttf
2722.252	n/a	WORD	1361126	wordpools/wasnorm_wordpool.txt	LTP086	ltpFR	5	14	0	BLACKBERRY	132	n/a	0	0	0.5869140625	0.422607421875	upper	../fonts/amplitud.ttf
2726.352	n/a	WORD	1363176	wordpools/wasnorm_wordpool.txt	LTP086	ltpFR	5	14	0	RUG	1215	n/a	3	0	0.5869140625	0.422607421875	upper	../fonts/amplitud.ttf
2727.06	n/a	KEY_MSG	1363530	n/a	LTP086	ltpFR	5	14	n/a	n/a	n/a	n/a	n/a	n/a	n/a	n/a	n/a	n/a
2732.028	n/a	REC_START	1366014	n/a	LTP086	ltpFR	5	14	n/a	n/a	n/a	n/a	n/a	n/a	n/a	n/a	n/a	n/a
2733.27	n/a	REC_WORD	1366635	wordpools/wasnorm_wordpool.txt	LTP086	ltpFR	5	14	0	BLACKBERRY	132	n/a	0	n/a	n/a	n/a	n/a	n/a
2734.218	n/a	REC_WORD	1367109	wordpools/wasnorm_wordpool.txt	LTP086	ltpFR	5	14	0	RUG	1215	n/a	3	n/a	n/a	n/a	n/a	n/a
2737.73	n/a	REC_WORD	1368865	wordpools/wasnorm_wordpool.txt	LTP086	ltpFR	5	14	1	ALLIGATOR	16	n/a	1	n/a	n/a	n/a	n/a	n/a
2742.4	n/a	REC_WORD	1371200	wordpools/wasnorm_wordpool.txt	LTP086	ltpFR	5	14	1	CELERY	266	n/a	1	n/a	n/a	n/a	n/a	n/a
2743.298	n/a	REC_WORD	1371649	wordpools/wasnorm_wordpool.txt	LTP086	ltpFR	5	14	1	TANGERINE	1431	n/a	1	n/a	n/a	n/a	n/a	n/a
2755.666	n/a	REC_WORD	1377833	wordpools/wasnorm_wordpool.txt	LTP086	ltpFR	5	14	1	FRUIT	610	n/a	1	n/a	n/a	n/a	n/a	n/a
2757.456	n/a	REC_WORD	1378728	wordpools/wasnorm_wordpool.txt	LTP086	ltpFR	5	14	0	FAIRY	549	n/a	1	n/a	n/a	n/a	n/a	n/a
2810.916	n/a	WORD	1405458	wordpools/wasnorm_wordpool.txt	LTP086	ltpFR	5	15	0	HOUSE	725	n/a	1	0	0.5869140625	0.422607421875	upper	../fonts/amplitud.ttf
2814.766	n/a	WORD	1407383	wordpools/wasnorm_wordpool.txt	LTP086	ltpFR	5	15	0	TACK	1428	n/a	1	0	0.5869140625	0.422607421875	upper	../fonts/amplitud.ttf
2818.584	n/a	WORD	1409292	wordpools/wasnorm_wordpool.txt	LTP086	ltpFR	5	15	0	HOSPITAL	721	n/a	1	0	0.5869140625	0.422607421875	upper	../fonts/amplitud.ttf
2822.742	n/a	WORD	1411371	wordpools/wasnorm_wordpool.txt	LTP086	ltpFR	5	15	0	STETHOSCOPE	1379	n/a	1	0	0.5869140625	0.422607421875	upper	../fonts/amplitud.ttf
2826.832	n/a	WORD	1413416	wordpools/wasnorm_wordpool.txt	LTP086	ltpFR	5	15	0	HAY	693	n/a	1	0	0.5869140625	0.422607421875	upper	../fonts/amplitud.ttf
2831.026	n/a	WORD	1415513	wordpools/wasnorm_wordpool.txt	LTP086	ltpFR	5	15	0	ATTIC	56	n/a	1	0	0.5869140625	0.422607421875	upper	../fonts/amplitud.ttf
2835.232	n/a	WORD	1417616	wordpools/wasnorm_wordpool.txt	LTP086	ltpFR	5	15	0	VINE	1568	n/a	0	0	0.5869140625	0.422607421875	upper	../fonts/amplitud.ttf
2839.274	n/a	WORD	1419637	wordpools/wasnorm_wordpool.txt	LTP086	ltpFR	5	15	0	SALOON	1228	n/a	1	0	0.5869140625	0.422607421875	upper	../fonts/amplitud.ttf
2843.448	n/a	WORD	1421724	wordpools/wasnorm_wordpool.txt	LTP086	ltpFR	5	15	0	DIGGER	464	n/a	1	0	0.5869140625	0.422607421875	upper	../fonts/amplitud.ttf
2847.29	n/a	WORD	1423645	wordpools/wasnorm_wordpool.txt	LTP086	ltpFR	5	15	0	ELECTRON	522	n/a	0	0	0.5869140625	0.422607421875	upper	../fonts/amplitud.ttf
2851.266	n/a	WORD	1425633	wordpools/wasnorm_wordpool.txt	LTP086	ltpFR	5	15	0	OFFICER	973	n/a	1	0	0.5869140625	0.422607421875	upper	../fonts/amplitud.ttf
2855.084	n/a	WORD	1427542	wordpools/wasnorm_wordpool.txt	LTP086	ltpFR	5	15	0	DETECTIVE	454	n/a	0	0	0.5869140625	0.422607421875	upper	../fonts/amplitud.ttf
2858.924	n/a	WORD	1429462	wordpools/wasnorm_wordpool.txt	LTP086	ltpFR	5	15	0	ATOM	55	n/a	0	0	0.5869140625	0.422607421875	upper	../fonts/amplitud.ttf
2862.798	n/a	WORD	1431399	wordpools/wasnorm_wordpool.txt	LTP086	ltpFR	5	15	0	STRAWBERRY	1391	n/a	1	0	0.5869140625	0.422607421875	upper	../fonts/amplitud.ttf
2866.848	n/a	WORD	1433424	wordpools/wasnorm_wordpool.txt	LTP086	ltpFR	5	15	0	AUDIENCE	59	n/a	0	0	0.5869140625	0.422607421875	upper	../fonts/amplitud.ttf
2871.008	n/a	WORD	1435504	wordpools/wasnorm_wordpool.txt	LTP086	ltpFR	5	15	0	PAGE	1001	n/a	0	0	0.5869140625	0.422607421875	upper	../fonts/amplitud.ttf
2876.708	n/a	REC_START	1438354	n/a	LTP086	ltpFR	5	15	n/a	n/a	n/a	n/a	n/a	n/a	n/a	n/a	n/a	n/a
2877.252	n/a	REC_WORD	1438626	wordpools/wasnorm_wordpool.txt	LTP086	ltpFR	5	15	0	AUDIENCE	59	n/a	0	n/a	n/a	n/a	n/a	n/a
2877.984	n/a	REC_WORD	1438992	wordpools/wasnorm_wordpool.txt	LTP086	ltpFR	5	15	0	PAGE	1001	n/a	0	n/a	n/a	n/a	n/a	n/a
2879.038	n/a	REC_WORD	1439519	wordpools/wasnorm_wordpool.txt	LTP086	ltpFR	5	15	0	OFFICER	973	n/a	1	n/a	n/a	n/a	n/a	n/a
2879.906	n/a	REC_WORD	1439953	wordpools/wasnorm_wordpool.txt	LTP086	ltpFR	5	15	0	SALOON	1228	n/a	1	n/a	n/a	n/a	n/a	n/a
2881.292	n/a	REC_WORD	1440646	wordpools/wasnorm_wordpool.txt	LTP086	ltpFR	5	15	0	STRAWBERRY	1391	n/a	1	n/a	n/a	n/a	n/a	n/a
2882.988	n/a	REC_WORD	1441494	wordpools/wasnorm_wordpool.txt	LTP086	ltpFR	5	15	0	HOUSE	725	n/a	1	n/a	n/a	n/a	n/a	n/a
2884.086	n/a	REC_WORD	1442043	wordpools/wasnorm_wordpool.txt	LTP086	ltpFR	5	15	0	HAY	693	n/a	1	n/a	n/a	n/a	n/a	n/a
2885.184	n/a	REC_WORD	1442592	wordpools/wasnorm_wordpool.txt	LTP086	ltpFR	5	15	0	ATTIC	56	n/a	1	n/a	n/a	n/a	n/a	n/a
2901.368	n/a	REC_WORD	1450684	wordpools/wasnorm_wordpool.txt	LTP086	ltpFR	5	15	0	ELECTRON	522	n/a	0	n/a	n/a	n/a	n/a	n/a
2902.374	n/a	REC_WORD	1451187	wordpools/wasnorm_wordpool.txt	LTP086	ltpFR	5	15	0	ATOM	55	n/a	0	n/a	n/a	n/a	n/a	n/a
2924.666	n/a	REC_WORD_VV	1462333	wordpools/wasnorm_wordpool.txt	LTP086	ltpFR	5	15	n/a	<>	-1	n/a	n/a	n/a	n/a	n/a	n/a	n/a
2925.344	n/a	REC_WORD	1462672	wordpools/wasnorm_wordpool.txt	LTP086	ltpFR	5	15	0	STETHOSCOPE	1379	n/a	1	n/a	n/a	n/a	n/a	n/a
2944.67	n/a	REC_WORD	1472335	wordpools/wasnorm_wordpool.txt	LTP086	ltpFR	5	15	0	AUDIENCE	59	n/a	0	n/a	n/a	n/a	n/a	n/a
2962.396	n/a	WORD	1481198	wordpools/wasnorm_wordpool.txt	LTP086	ltpFR	5	16	0	BEE	112	n/a	1	0	0.5869140625	0.422607421875	upper	../fonts/amplitud.ttf
2966.388	n/a	WORD	1483194	wordpools/wasnorm_wordpool.txt	LTP086	ltpFR	5	16	0	FLASK	576	n/a	1	0	0.5869140625	0.422607421875	upper	../fonts/amplitud.ttf
2970.512	n/a	WORD	1485256	wordpools/wasnorm_wordpool.txt	LTP086	ltpFR	5	16	0	BARLEY	88	n/a	0	0	0.5869140625	0.422607421875	upper	../fonts/amplitud.ttf
2974.596	n/a	WORD	1487298	wordpools/wasnorm_wordpool.txt	LTP086	ltpFR	5	16	0	HONEY	713	n/a	1	0	0.5869140625	0.422607421875	upper	../fonts/amplitud.ttf
2978.53	n/a	WORD	1489265	wordpools/wasnorm_wordpool.txt	LTP086	ltpFR	5	16	0	FREEZER	604	n/a	0	0	0.5869140625	0.422607421875	upper	../fonts/amplitud.ttf
2982.662	n/a	WORD	1491331	wordpools/wasnorm_wordpool.txt	LTP086	ltpFR	5	16	0	QUARTER	1148	n/a	0	0	0.5869140625	0.422607421875	upper	../fonts/amplitud.ttf
2986.678	n/a	WORD	1493339	wordpools/wasnorm_wordpool.txt	LTP086	ltpFR	5	16	0	CASH	252	n/a	n/a	0	0.5869140625	0.422607421875	upper	../fonts/amplitud.ttf
2989.704	n/a	SLOW_MSG	1494852	n/a	LTP086	ltpFR	5	16	n/a	n/a	n/a	n/a	n/a	n/a	n/a	n/a	n/a	n/a
2992.262	n/a	WORD	1496131	wordpools/wasnorm_wordpool.txt	LTP086	ltpFR	5	16	0	TUNA	1518	n/a	0	0	0.5869140625	0.422607421875	upper	../fonts/amplitud.ttf
2996.346	n/a	WORD	1498173	wordpools/wasnorm_wordpool.txt	LTP086	ltpFR	5	16	0	BASSINET	97	n/a	1	0	0.5869140625	0.422607421875	upper	../fonts/amplitud.ttf
3000.17	n/a	WORD	1500085	wordpools/wasnorm_wordpool.txt	LTP086	ltpFR	5	16	0	STADIUM	1364	n/a	1	0	0.5869140625	0.422607421875	upper	../fonts/amplitud.ttf
3004.354	n/a	WORD	1502177	wordpools/wasnorm_wordpool.txt	LTP086	ltpFR	5	16	0	SOFTBALL	1343	n/a	1	0	0.5869140625	0.422607421875	upper	../fonts/amplitud.ttf
3008.394	n/a	WORD	1504197	wordpools/wasnorm_wordpool.txt	LTP086	ltpFR	5	16	0	EYELASH	546	n/a	0	0	0.5869140625	0.422607421875	upper	../fonts/amplitud.ttf
3012.454	n/a	WORD	1506227	wordpools/wasnorm_wordpool.txt	LTP086	ltpFR	5	16	0	PIER	1063	n/a	1	0	0.5869140625	0.422607421875	upper	../fonts/amplitud.ttf
3016.662	n/a	WORD	1508331	wordpools/wasnorm_wordpool.txt	LTP086	ltpFR	5	16	0	SISTER	1312	n/a	1	0	0.5869140625	0.422607421875	upper	../fonts/amplitud.ttf
3020.544	n/a	WORD	1510272	wordpools/wasnorm_wordpool.txt	LTP086	ltpFR	5	16	0	HOME	712	n/a	1	0	0.5869140625	0.422607421875	upper	../fonts/amplitud.ttf
3024.71	n/a	WORD	1512355	wordpools/wasnorm_wordpool.txt	LTP086	ltpFR	5	16	0	SWEATER	1419	n/a	1	0	0.5869140625	0.422607421875	upper	../fonts/amplitud.ttf
3030.378	n/a	REC_START	1515189	n/a	LTP086	ltpFR	5	16	n/a	n/a	n/a	n/a	n/a	n/a	n/a	n/a	n/a	n/a
3030.712	n/a	REC_WORD	1515356	wordpools/wasnorm_wordpool.txt	LTP086	ltpFR	5	16	0	PIER	1063	n/a	1	n/a	n/a	n/a	n/a	n/a
3031.32	n/a	REC_WORD	1515660	wordpools/wasnorm_wordpool.txt	LTP086	ltpFR	5	16	0	SISTER	1312	n/a	1	n/a	n/a	n/a	n/a	n/a
3032.398	n/a	REC_WORD	1516199	wordpools/wasnorm_wordpool.txt	LTP086	ltpFR	5	16	0	HOME	712	n/a	1	n/a	n/a	n/a	n/a	n/a
3033.158	n/a	REC_WORD	1516579	wordpools/wasnorm_wordpool.txt	LTP086	ltpFR	5	16	0	SWEATER	1419	n/a	1	n/a	n/a	n/a	n/a	n/a
3041.658	n/a	REC_WORD	1520829	wordpools/wasnorm_wordpool.txt	LTP086	ltpFR	5	16	0	BARLEY	88	n/a	0	n/a	n/a	n/a	n/a	n/a
3042.904	n/a	REC_WORD	1521452	wordpools/wasnorm_wordpool.txt	LTP086	ltpFR	5	16	0	HONEY	713	n/a	1	n/a	n/a	n/a	n/a	n/a
3044.122	n/a	REC_WORD	1522061	wordpools/wasnorm_wordpool.txt	LTP086	ltpFR	5	16	0	FREEZER	604	n/a	0	n/a	n/a	n/a	n/a	n/a
3090.32	n/a	REC_WORD	1545160	wordpools/wasnorm_wordpool.txt	LTP086	ltpFR	5	16	0	SWEATER	1419	n/a	1	n/a	n/a	n/a	n/a	n/a
3124.218	n/a	REC_START	1562109	n/a	LTP086	ltpFR	5	n/a	n/a	n/a	n/a	n/a	n/a	n/a	n/a	n/a	n/a	n/a
3124.612	n/a	FFR_REC_WORD	1562306	wordpools/wasnorm_wordpool.txt	LTP086	ltpFR	5	n/a	0	SWEATER	1419	n/a	1	n/a	n/a	n/a	n/a	n/a
3125.728	n/a	FFR_REC_WORD	1562864	wordpools/wasnorm_wordpool.txt	LTP086	ltpFR	5	n/a	1	ALLIGATOR	16	n/a	1	n/a	n/a	n/a	n/a	n/a
3126.66	n/a	FFR_REC_WORD	1563330	wordpools/wasnorm_wordpool.txt	LTP086	ltpFR	5	n/a	1	CROCODILE	411	n/a	0	n/a	n/a	n/a	n/a	n/a
3128.322	n/a	FFR_REC_WORD	1564161	wordpools/wasnorm_wordpool.txt	LTP086	ltpFR	5	n/a	0	COLLAR	345	n/a	0	n/a	n/a	n/a	n/a	n/a
3129.9	n/a	FFR_REC_WORD	1564950	wordpools/wasnorm_wordpool.txt	LTP086	ltpFR	5	n/a	1	CHEST	295	n/a	1	n/a	n/a	n/a	n/a	n/a
3130.678	n/a	FFR_REC_WORD	1565339	wordpools/wasnorm_wordpool.txt	LTP086	ltpFR	5	n/a	1	BREAST	171	n/a	1	n/a	n/a	n/a	n/a	n/a
3132.694	n/a	FFR_REC_WORD_VV	1566347	wordpools/wasnorm_wordpool.txt	LTP086	ltpFR	5	n/a	n/a	<>	-1	n/a	n/a	n/a	n/a	n/a	n/a	n/a
3134.69	n/a	FFR_REC_WORD	1567345	wordpools/wasnorm_wordpool.txt	LTP086	ltpFR	5	n/a	-1	CAPTIVE	240	n/a	-1	n/a	n/a	n/a	n/a	n/a
3135.412	n/a	FFR_REC_WORD	1567706	wordpools/wasnorm_wordpool.txt	LTP086	ltpFR	5	n/a	-1	HANDCUFFS	685	n/a	-1	n/a	n/a	n/a	n/a	n/a
3136.596	n/a	FFR_REC_WORD	1568298	wordpools/wasnorm_wordpool.txt	LTP086	ltpFR	5	n/a	-1	PRISONER	1128	n/a	-1	n/a	n/a	n/a	n/a	n/a
3137.352	n/a	FFR_REC_WORD	1568676	wordpools/wasnorm_wordpool.txt	LTP086	ltpFR	5	n/a	-1	SHRINE	1298	n/a	-1	n/a	n/a	n/a	n/a	n/a
3138.208	n/a	FFR_REC_WORD	1569104	wordpools/wasnorm_wordpool.txt	LTP086	ltpFR	5	n/a	-1	CONVENT	370	n/a	-1	n/a	n/a	n/a	n/a	n/a
3140.356	n/a	FFR_REC_WORD_VV	1570178	wordpools/wasnorm_wordpool.txt	LTP086	ltpFR	5	n/a	n/a	<>	-1	n/a	n/a	n/a	n/a	n/a	n/a	n/a
3144.796	n/a	FFR_REC_WORD	1572398	wordpools/wasnorm_wordpool.txt	LTP086	ltpFR	5	n/a	1	HOOD	714	n/a	0	n/a	n/a	n/a	n/a	n/a
3147.47	n/a	FFR_REC_WORD	1573735	wordpools/wasnorm_wordpool.txt	LTP086	ltpFR	5	n/a	0	LIME	823	n/a	1	n/a	n/a	n/a	n/a	n/a
3162.048	n/a	FFR_REC_WORD	1581024	wordpools/wasnorm_wordpool.txt	LTP086	ltpFR	5	n/a	0	PLAID	1080	n/a	0	n/a	n/a	n/a	n/a	n/a
3168.922	n/a	FFR_REC_WORD	1584461	wordpools/wasnorm_wordpool.txt	LTP086	ltpFR	5	n/a	1	EAR	513	n/a	1	n/a	n/a	n/a	n/a	n/a
3169.602	n/a	FFR_REC_WORD	1584801	wordpools/wasnorm_wordpool.txt	LTP086	ltpFR	5	n/a	n/a	THROAT	-1	n/a	n/a	n/a	n/a	n/a	n/a	n/a
3171.028	n/a	FFR_REC_WORD_VV	1585514	wordpools/wasnorm_wordpool.txt	LTP086	ltpFR	5	n/a	n/a	<>	-1	n/a	n/a	n/a	n/a	n/a	n/a	n/a
3171.234	n/a	FFR_REC_WORD	1585617	wordpools/wasnorm_wordpool.txt	LTP086	ltpFR	5	n/a	1	EAR	513	n/a	1	n/a	n/a	n/a	n/a	n/a
3171.632	n/a	FFR_REC_WORD	1585816	wordpools/wasnorm_wordpool.txt	LTP086	ltpFR	5	n/a	1	NOSE	957	n/a	1	n/a	n/a	n/a	n/a	n/a
3172.228	n/a	FFR_REC_WORD_VV	1586114	wordpools/wasnorm_wordpool.txt	LTP086	ltpFR	5	n/a	n/a	<>	-1	n/a	n/a	n/a	n/a	n/a	n/a	n/a
3172.71	n/a	FFR_REC_WORD	1586355	wordpools/wasnorm_wordpool.txt	LTP086	ltpFR	5	n/a	1	EAR	513	n/a	1	n/a	n/a	n/a	n/a	n/a
3173.012	n/a	FFR_REC_WORD	1586506	wordpools/wasnorm_wordpool.txt	LTP086	ltpFR	5	n/a	1	NOSE	957	n/a	1	n/a	n/a	n/a	n/a	n/a
3174.472	n/a	FFR_REC_WORD_VV	1587236	wordpools/wasnorm_wordpool.txt	LTP086	ltpFR	5	n/a	n/a	<>	-1	n/a	n/a	n/a	n/a	n/a	n/a	n/a
3179.46	n/a	FFR_REC_WORD	1589730	wordpools/wasnorm_wordpool.txt	LTP086	ltpFR	5	n/a	0	EYELASH	546	n/a	0	n/a	n/a	n/a	n/a	n/a
3181.396	n/a	FFR_REC_WORD	1590698	wordpools/wasnorm_wordpool.txt	LTP086	ltpFR	5	n/a	0	BOX	159	n/a	0	n/a	n/a	n/a	n/a	n/a
3183.45	n/a	FFR_REC_WORD	1591725	wordpools/wasnorm_wordpool.txt	LTP086	ltpFR	5	n/a	0	SOFTBALL	1343	n/a	1	n/a	n/a	n/a	n/a	n/a
3186.842	n/a	FFR_REC_WORD	1593421	wordpools/wasnorm_wordpool.txt	LTP086	ltpFR	5	n/a	0	ELECTRON	522	n/a	0	n/a	n/a	n/a	n/a	n/a
3187.81	n/a	FFR_REC_WORD	1593905	wordpools/wasnorm_wordpool.txt	LTP086	ltpFR	5	n/a	0	ATOM	55	n/a	0	n/a	n/a	n/a	n/a	n/a
3197.34	n/a	FFR_REC_WORD	1598670	wordpools/wasnorm_wordpool.txt	LTP086	ltpFR	5	n/a	0	LAUNDRY	803	n/a	0	n/a	n/a	n/a	n/a	n/a
3212.486	n/a	FFR_REC_WORD	1606243	wordpools/wasnorm_wordpool.txt	LTP086	ltpFR	5	n/a	-1	WRENCH	1625	n/a	-1	n/a	n/a	n/a	n/a	n/a
3221.806	n/a	FFR_REC_WORD	1610903	wordpools/wasnorm_wordpool.txt	LTP086	ltpFR	5	n/a	1	TYPIST	1532	n/a	1	n/a	n/a	n/a	n/a	n/a
3226.296	n/a	FFR_REC_WORD	1613148	wordpools/wasnorm_wordpool.txt	LTP086	ltpFR	5	n/a	1	BRUNETTE	181	n/a	0	n/a	n/a	n/a	n/a	n/a
3229.948	n/a	FFR_REC_WORD	1614974	wordpools/wasnorm_wordpool.txt	LTP086	ltpFR	5	n/a	0	TUNA	1518	n/a	0	n/a	n/a	n/a	n/a	n/a
3248.046	n/a	FFR_REC_WORD	1624023	wordpools/wasnorm_wordpool.txt	LTP086	ltpFR	5	n/a	1	KID	775	n/a	1	n/a	n/a	n/a	n/a	n/a
3254.484	n/a	FFR_REC_WORD	1627242	wordpools/wasnorm_wordpool.txt	LTP086	ltpFR	5	n/a	0	PUZZLE	1146	n/a	1	n/a	n/a	n/a	n/a	n/a
3266.746	n/a	FFR_REC_WORD	1633373	wordpools/wasnorm_wordpool.txt	LTP086	ltpFR	5	n/a	1	ATTIRE	57	n/a	0	n/a	n/a	n/a	n/a	n/a
3270.048	n/a	FFR_REC_WORD	1635024	wordpools/wasnorm_wordpool.txt	LTP086	ltpFR	5	n/a	0	TROUSERS	1510	n/a	0	n/a	n/a	n/a	n/a	n/a
3272.084	n/a	FFR_REC_WORD	1636042	wordpools/wasnorm_wordpool.txt	LTP086	ltpFR	5	n/a	0	POCKET	1093	n/a	1	n/a	n/a	n/a	n/a	n/a
3279.766	n/a	FFR_REC_WORD	1639883	wordpools/wasnorm_wordpool.txt	LTP086	ltpFR	5	n/a	1	CELERY	266	n/a	1	n/a	n/a	n/a	n/a	n/a
3280.85	n/a	FFR_REC_WORD	1640425	wordpools/wasnorm_wordpool.txt	LTP086	ltpFR	5	n/a	1	TANGERINE	1431	n/a	1	n/a	n/a	n/a	n/a	n/a
3283.228	n/a	FFR_REC_WORD_VV	1641614	wordpools/wasnorm_wordpool.txt	LTP086	ltpFR	5	n/a	n/a	<>	-1	n/a	n/a	n/a	n/a	n/a	n/a	n/a
3284.76	n/a	FFR_REC_WORD	1642380	wordpools/wasnorm_wordpool.txt	LTP086	ltpFR	5	n/a	-1	BUFFALO	186	n/a	-1	n/a	n/a	n/a	n/a	n/a
3288.736	n/a	FFR_REC_WORD	1644368	wordpools/wasnorm_wordpool.txt	LTP086	ltpFR	5	n/a	-1	WRENCH	1625	n/a	-1	n/a	n/a	n/a	n/a	n/a
3289.426	n/a	FFR_REC_WORD	1644713	wordpools/wasnorm_wordpool.txt	LTP086	ltpFR	5	n/a	-1	PEOPLE	1046	n/a	-1	n/a	n/a	n/a	n/a	n/a
3302.002	n/a	FFR_REC_WORD	1651001	wordpools/wasnorm_wordpool.txt	LTP086	ltpFR	5	n/a	-1	CACTUS	215	n/a	-1	n/a	n/a	n/a	n/a	n/a
3302.824	n/a	FFR_REC_WORD	1651412	wordpools/wasnorm_wordpool.txt	LTP086	ltpFR	5	n/a	-1	SEASHORE	1263	n/a	-1	n/a	n/a	n/a	n/a	n/a
3304.212	n/a	FFR_REC_WORD	1652106	wordpools/wasnorm_wordpool.txt	LTP086	ltpFR	5	n/a	-1	WEED	1599	n/a	-1	n/a	n/a	n/a	n/a	n/a
3306.686	n/a	FFR_REC_WORD_VV	1653343	wordpools/wasnorm_wordpool.txt	LTP086	ltpFR	5	n/a	n/a	<>	-1	n/a	n/a	n/a	n/a	n/a	n/a	n/a
3311.146	n/a	FFR_REC_WORD	1655573	wordpools/wasnorm_wordpool.txt	LTP086	ltpFR	5	n/a	-1	JET	756	n/a	-1	n/a	n/a	n/a	n/a	n/a
3314.918	n/a	FFR_REC_WORD	1657459	wordpools/wasnorm_wordpool.txt	LTP086	ltpFR	5	n/a	-1	TRAITOR	1495	n/a	-1	n/a	n/a	n/a	n/a	n/a
3317.972	n/a	FFR_REC_WORD	1658986	wordpools/wasnorm_wordpool.txt	LTP086	ltpFR	5	n/a	1	DAM	436	n/a	1	n/a	n/a	n/a	n/a	n/a
3318.94	n/a	FFR_REC_WORD	1659470	wordpools/wasnorm_wordpool.txt	LTP086	ltpFR	5	n/a	1	BRUNETTE	181	n/a	0	n/a	n/a	n/a	n/a	n/a
3320.556	n/a	FFR_REC_WORD	1660278	wordpools/wasnorm_wordpool.txt	LTP086	ltpFR	5	n/a	1	BALL	73	n/a	0	n/a	n/a	n/a	n/a	n/a
3321.334	n/a	FFR_REC_WORD	1660667	wordpools/wasnorm_wordpool.txt	LTP086	ltpFR	5	n/a	1	SERVER	1272	n/a	1	n/a	n/a	n/a	n/a	n/a
3322.83	n/a	FFR_REC_WORD	1661415	wordpools/wasnorm_wordpool.txt	LTP086	ltpFR	5	n/a	1	SCROLL	1257	n/a	0	n/a	n/a	n/a	n/a	n/a
3328.494	n/a	FFR_REC_WORD_VV	1664247	wordpools/wasnorm_wordpool.txt	LTP086	ltpFR	5	n/a	n/a	<>	-1	n/a	n/a	n/a	n/a	n/a	n/a	n/a
3334.95	n/a	FFR_REC_WORD	1667475	wordpools/wasnorm_wordpool.txt	LTP086	ltpFR	5	n/a	1	CUB	419	n/a	1	n/a	n/a	n/a	n/a	n/a
3335.682	n/a	FFR_REC_WORD	1667841	wordpools/wasnorm_wordpool.txt	LTP086	ltpFR	5	n/a	1	ANIMAL	23	n/a	1	n/a	n/a	n/a	n/a	n/a
3351.736	n/a	FFR_REC_WORD	1675868	wordpools/wasnorm_wordpool.txt	LTP086	ltpFR	5	n/a	1	RAILROAD	1162	n/a	0	n/a	n/a	n/a	n/a	n/a
3352.634	n/a	FFR_REC_WORD	1676317	wordpools/wasnorm_wordpool.txt	LTP086	ltpFR	5	n/a	1	RUST	1219	n/a	0	n/a	n/a	n/a	n/a	n/a
3371.696	n/a	FFR_REC_WORD	1685848	wordpools/wasnorm_wordpool.txt	LTP086	ltpFR	5	n/a	1	CRAB	397	n/a	1	n/a	n/a	n/a	n/a	n/a
3377.988	n/a	FFR_REC_WORD	1688994	wordpools/wasnorm_wordpool.txt	LTP086	ltpFR	5	n/a	0	SCALLOP	1242	n/a	1	n/a	n/a	n/a	n/a	n/a
3401.052	n/a	FFR_REC_WORD	1700526	wordpools/wasnorm_wordpool.txt	LTP086	ltpFR	5	n/a	-1	PLANT	1083	n/a	-1	n/a	n/a	n/a	n/a	n/a
3403.736	n/a	FFR_REC_WORD	1701868	wordpools/wasnorm_wordpool.txt	LTP086	ltpFR	5	n/a	-1	BOARD	143	n/a	-1	n/a	n/a	n/a	n/a	n/a
3441.044	n/a	REC_START	1720522	n/a	LTP086	ltpFR	5	1	n/a	n/a	n/a	n/a	n/a	n/a	n/a	n/a	n/a	n/a
3441.076	n/a	RECOG_TARGET	1720538	n/a	LTP086	ltpFR	5	1	1	DRAWING	494	5	1	n/a	n/a	n/a	n/a	n/a
3441.784	n/a	RECOG_RESP	1720892	n/a	LTP086	ltpFR	5	1	1	DRAWING	494	n/a	1	n/a	n/a	n/a	n/a	n/a
3442.426	n/a	RECOG_CONF	1721213	n/a	LTP086	ltpFR	5	1	1	DRAWING	494	5	1	n/a	n/a	n/a	n/a	n/a
3443.75	n/a	RECOG_TARGET	1721875	n/a	LTP086	ltpFR	5	1	1	MAPLE	866	1	1	n/a	n/a	n/a	n/a	n/a
3444.59	n/a	RECOG_RESP_VV	1722295	n/a	LTP086	ltpFR	5	1	1	MAPLE	866	n/a	1	n/a	n/a	n/a	n/a	n/a
3445.032	n/a	RECOG_RESP	1722516	n/a	LTP086	ltpFR	5	1	1	MAPLE	866	n/a	1	n/a	n/a	n/a	n/a	n/a
3445.778	n/a	RECOG_CONF	1722889	n/a	LTP086	ltpFR	5	1	1	MAPLE	866	1	1	n/a	n/a	n/a	n/a	n/a
3447.068	n/a	RECOG_TARGET	1723534	n/a	LTP086	ltpFR	5	1	1	RAILROAD	1162	5	0	n/a	n/a	n/a	n/a	n/a
3447.774	n/a	RECOG_RESP	1723887	n/a	LTP086	ltpFR	5	1	1	RAILROAD	1162	n/a	0	n/a	n/a	n/a	n/a	n/a
3448.52	n/a	RECOG_CONF	1724260	n/a	LTP086	ltpFR	5	1	1	RAILROAD	1162	5	0	n/a	n/a	n/a	n/a	n/a
3449.692	n/a	RECOG_TARGET	1724846	n/a	LTP086	ltpFR	5	1	-1	JET	756	5	-1	n/a	n/a	n/a	n/a	n/a
3450.258	n/a	RECOG_RESP	1725129	n/a	LTP086	ltpFR	5	1	-1	JET	756	n/a	-1	n/a	n/a	n/a	n/a	n/a
3451.004	n/a	RECOG_CONF	1725502	n/a	LTP086	ltpFR	5	1	-1	JET	756	5	-1	n/a	n/a	n/a	n/a	n/a
3452.266	n/a	RECOG_LURE	1726133	n/a	LTP086	ltpFR	5	1	n/a	HAT	690	2	n/a	n/a	n/a	n/a	n/a	n/a
3452.822	n/a	RECOG_RESP_VV	1726411	n/a	LTP086	ltpFR	5	1	n/a	HAT	690	n/a	n/a	n/a	n/a	n/a	n/a	n/a
3453.374	n/a	RECOG_RESP	1726687	n/a	LTP086	ltpFR	5	1	n/a	HAT	690	n/a	n/a	n/a	n/a	n/a	n/a	n/a
3454.0	n/a	RECOG_CONF	1727000	n/a	LTP086	ltpFR	5	1	n/a	HAT	690	2	n/a	n/a	n/a	n/a	n/a	n/a
3455.458	n/a	RECOG_TARGET	1727729	n/a	LTP086	ltpFR	5	1	0	SIRLOIN	1311	5	1	n/a	n/a	n/a	n/a	n/a
3456.184	n/a	RECOG_RESP	1728092	n/a	LTP086	ltpFR	5	1	0	SIRLOIN	1311	n/a	1	n/a	n/a	n/a	n/a	n/a
3456.888	n/a	RECOG_CONF	1728444	n/a	LTP086	ltpFR	5	1	0	SIRLOIN	1311	5	1	n/a	n/a	n/a	n/a	n/a
3458.084	n/a	RECOG_TARGET	1729042	n/a	LTP086	ltpFR	5	1	-1	CANOE	233	5	-1	n/a	n/a	n/a	n/a	n/a
3458.62	n/a	RECOG_RESP	1729310	n/a	LTP086	ltpFR	5	1	-1	CANOE	233	n/a	-1	n/a	n/a	n/a	n/a	n/a
3459.302	n/a	RECOG_CONF	1729651	n/a	LTP086	ltpFR	5	1	-1	CANOE	233	5	-1	n/a	n/a	n/a	n/a	n/a
3460.55	n/a	RECOG_TARGET	1730275	n/a	LTP086	ltpFR	5	1	-1	PEOPLE	1046	5	-1	n/a	n/a	n/a	n/a	n/a
3461.184	n/a	RECOG_RESP	1730592	n/a	LTP086	ltpFR	5	1	-1	PEOPLE	1046	n/a	-1	n/a	n/a	n/a	n/a	n/a
3461.772	n/a	RECOG_CONF	1730886	n/a	LTP086	ltpFR	5	1	-1	PEOPLE	1046	5	-1	n/a	n/a	n/a	n/a	n/a
3463.184	n/a	RECOG_TARGET	1731592	n/a	LTP086	ltpFR	5	1	0	VINE	1568	5	0	n/a	n/a	n/a	n/a	n/a
3463.708	n/a	RECOG_RESP	1731854	n/a	LTP086	ltpFR	5	1	0	VINE	1568	n/a	0	n/a	n/a	n/a	n/a	n/a
3464.256	n/a	RECOG_CONF	1732128	n/a	LTP086	ltpFR	5	1	0	VINE	1568	5	0	n/a	n/a	n/a	n/a	n/a
3465.592	n/a	RECOG_TARGET	1732796	n/a	LTP086	ltpFR	5	1	-1	JEWEL	757	5	-1	n/a	n/a	n/a	n/a	n/a
3466.122	n/a	RECOG_RESP	1733061	n/a	LTP086	ltpFR	5	1	-1	JEWEL	757	n/a	-1	n/a	n/a	n/a	n/a	n/a
3466.75	n/a	RECOG_CONF	1733375	n/a	LTP086	ltpFR	5	1	-1	JEWEL	757	5	-1	n/a	n/a	n/a	n/a	n/a
3468.118	n/a	RECOG_TARGET	1734059	n/a	LTP086	ltpFR	5	1	0	WRITER	1627	2	1	n/a	n/a	n/a	n/a	n/a
3468.626	n/a	RECOG_RESP	1734313	n/a	LTP086	ltpFR	5	1	0	WRITER	1627	n/a	1	n/a	n/a	n/a	n/a	n/a
3469.484	n/a	RECOG_CONF	1734742	n/a	LTP086	ltpFR	5	1	0	WRITER	1627	2	1	n/a	n/a	n/a	n/a	n/a
3470.85	n/a	RECOG_TARGET	1735425	n/a	LTP086	ltpFR	5	1	0	QUARTER	1148	5	0	n/a	n/a	n/a	n/a	n/a
3471.38	n/a	RECOG_RESP	1735690	n/a	LTP086	ltpFR	5	1	0	QUARTER	1148	n/a	0	n/a	n/a	n/a	n/a	n/a
3472.192	n/a	RECOG_CONF	1736096	n/a	LTP086	ltpFR	5	1	0	QUARTER	1148	5	0	n/a	n/a	n/a	n/a	n/a
3473.34	n/a	RECOG_TARGET	1736670	n/a	LTP086	ltpFR	5	1	1	FRUIT	610	5	1	n/a	n/a	n/a	n/a	n/a
3473.876	n/a	RECOG_RESP	1736938	n/a	LTP086	ltpFR	5	1	1	FRUIT	610	n/a	1	n/a	n/a	n/a	n/a	n/a
3475.044	n/a	RECOG_CONF	1737522	n/a	LTP086	ltpFR	5	1	1	FRUIT	610	5	1	n/a	n/a	n/a	n/a	n/a
3476.524	n/a	RECOG_TARGET	1738262	n/a	LTP086	ltpFR	5	1	-1	BOARD	143	5	-1	n/a	n/a	n/a	n/a	n/a
3477.098	n/a	RECOG_RESP	1738549	n/a	LTP086	ltpFR	5	1	-1	BOARD	143	n/a	-1	n/a	n/a	n/a	n/a	n/a
3477.846	n/a	RECOG_CONF	1738923	n/a	LTP086	ltpFR	5	1	-1	BOARD	143	5	-1	n/a	n/a	n/a	n/a	n/a
3479.0	n/a	RECOG_TARGET	1739500	n/a	LTP086	ltpFR	5	1	0	COW	393	2	1	n/a	n/a	n/a	n/a	n/a
3479.542	n/a	RECOG_RESP	1739771	n/a	LTP086	ltpFR	5	1	0	COW	393	n/a	1	n/a	n/a	n/a	n/a	n/a
3480.122	n/a	RECOG_CONF	1740061	n/a	LTP086	ltpFR	5	1	0	COW	393	2	1	n/a	n/a	n/a	n/a	n/a
3481.424	n/a	RECOG_TARGET	1740712	n/a	LTP086	ltpFR	5	1	1	ROOSTER	1209	5	1	n/a	n/a	n/a	n/a	n/a
3482.028	n/a	RECOG_RESP	1741014	n/a	LTP086	ltpFR	5	1	1	ROOSTER	1209	n/a	1	n/a	n/a	n/a	n/a	n/a
3482.606	n/a	RECOG_CONF	1741303	n/a	LTP086	ltpFR	5	1	1	ROOSTER	1209	5	1	n/a	n/a	n/a	n/a	n/a
3484.016	n/a	RECOG_TARGET	1742008	n/a	LTP086	ltpFR	5	1	0	SCALLOP	1242	5	1	n/a	n/a	n/a	n/a	n/a
3484.572	n/a	RECOG_RESP	1742286	n/a	LTP086	ltpFR	5	1	0	SCALLOP	1242	n/a	1	n/a	n/a	n/a	n/a	n/a
3485.13	n/a	RECOG_CONF	1742565	n/a	LTP086	ltpFR	5	1	0	SCALLOP	1242	5	1	n/a	n/a	n/a	n/a	n/a
3486.5	n/a	RECOG_LURE	1743250	n/a	LTP086	ltpFR	5	1	n/a	CONTAINER	366	1	n/a	n/a	n/a	n/a	n/a	n/a
3487.216	n/a	RECOG_RESP	1743608	n/a	LTP086	ltpFR	5	1	n/a	CONTAINER	366	n/a	n/a	n/a	n/a	n/a	n/a	n/a
3487.794	n/a	RECOG_CONF	1743897	n/a	LTP086	ltpFR	5	1	n/a	CONTAINER	366	1	n/a	n/a	n/a	n/a	n/a	n/a
3489.192	n/a	RECOG_LURE	1744596	n/a	LTP086	ltpFR	5	1	n/a	SIDEWALK	1303	2	n/a	n/a	n/a	n/a	n/a	n/a
3489.74	n/a	RECOG_RESP	1744870	n/a	LTP086	ltpFR	5	1	n/a	SIDEWALK	1303	n/a	n/a	n/a	n/a	n/a	n/a	n/a
3490.348	n/a	RECOG_CONF	1745174	n/a	LTP086	ltpFR	5	1	n/a	SIDEWALK	1303	2	n/a	n/a	n/a	n/a	n/a	n/a
3491.69	n/a	RECOG_TARGET	1745845	n/a	LTP086	ltpFR	5	1	-1	MICROSCOPE	891	5	-1	n/a	n/a	n/a	n/a	n/a
3492.234	n/a	RECOG_RESP	1746117	n/a	LTP086	ltpFR	5	1	-1	MICROSCOPE	891	n/a	-1	n/a	n/a	n/a	n/a	n/a
3492.958	n/a	RECOG_CONF	1746479	n/a	LTP086	ltpFR	5	1	-1	MICROSCOPE	891	5	-1	n/a	n/a	n/a	n/a	n/a
3496.14	n/a	REC_START	1748070	n/a	LTP086	ltpFR	5	2	n/a	n/a	n/a	n/a	n/a	n/a	n/a	n/a	n/a	n/a
3496.176	n/a	RECOG_TARGET	1748088	n/a	LTP086	ltpFR	5	2	0	BACON	67	5	0	n/a	n/a	n/a	n/a	n/a
3496.514	n/a	RECOG_RESP	1748257	n/a	LTP086	ltpFR	5	2	0	BACON	67	n/a	0	n/a	n/a	n/a	n/a	n/a
3497.198	n/a	RECOG_CONF	1748599	n/a	LTP086	ltpFR	5	2	0	BACON	67	5	0	n/a	n/a	n/a	n/a	n/a
3498.382	n/a	RECOG_TARGET	1749191	n/a	LTP086	ltpFR	5	2	0	CREEK	404	5	1	n/a	n/a	n/a	n/a	n/a
3498.68	n/a	RECOG_RESP	1749340	n/a	LTP086	ltpFR	5	2	0	CREEK	404	n/a	1	n/a	n/a	n/a	n/a	n/a
3499.32	n/a	RECOG_CONF	1749660	n/a	LTP086	ltpFR	5	2	0	CREEK	404	5	1	n/a	n/a	n/a	n/a	n/a
3500.474	n/a	RECOG_TARGET	1750237	n/a	LTP086	ltpFR	5	2	1	VOLCANO	1575	5	0	n/a	n/a	n/a	n/a	n/a
3500.744	n/a	RECOG_RESP	1750372	n/a	LTP086	ltpFR	5	2	1	VOLCANO	1575	n/a	0	n/a	n/a	n/a	n/a	n/a
3501.364	n/a	RECOG_CONF	1750682	n/a	LTP086	ltpFR	5	2	1	VOLCANO	1575	5	0	n/a	n/a	n/a	n/a	n/a
3502.466	n/a	RECOG_TARGET	1751233	n/a	LTP086	ltpFR	5	2	0	HAY	693	5	1	n/a	n/a	n/a	n/a	n/a
3502.69	n/a	RECOG_RESP	1751345	n/a	LTP086	ltpFR	5	2	0	HAY	693	n/a	1	n/a	n/a	n/a	n/a	n/a
3503.266	n/a	RECOG_CONF	1751633	n/a	LTP086	ltpFR	5	2	0	HAY	693	5	1	n/a	n/a	n/a	n/a	n/a
3504.398	n/a	RECOG_TARGET	1752199	n/a	LTP086	ltpFR	5	2	-1	SAXOPHONE	1240	5	-1	n/a	n/a	n/a	n/a	n/a
3504.596	n/a	RECOG_RESP	1752298	n/a	LTP086	ltpFR	5	2	-1	SAXOPHONE	1240	n/a	-1	n/a	n/a	n/a	n/a	n/a
3505.194	n/a	RECOG_CONF	1752597	n/a	LTP086	ltpFR	5	2	-1	SAXOPHONE	1240	5	-1	n/a	n/a	n/a	n/a	n/a
3506.282	n/a	RECOG_LURE	1753141	n/a	LTP086	ltpFR	5	2	n/a	PRIEST	1122	5	n/a	n/a	n/a	n/a	n/a	n/a
3507.166	n/a	RECOG_RESP	1753583	n/a	LTP086	ltpFR	5	2	n/a	PRIEST	1122	n/a	n/a	n/a	n/a	n/a	n/a	n/a
3507.892	n/a	RECOG_CONF	1753946	n/a	LTP086	ltpFR	5	2	n/a	PRIEST	1122	5	n/a	n/a	n/a	n/a	n/a	n/a
3509.206	n/a	RECOG_TARGET	1754603	n/a	LTP086	ltpFR	5	2	1	AUNT	60	5	1	n/a	n/a	n/a	n/a	n/a
3509.794	n/a	RECOG_RESP	1754897	n/a	LTP086	ltpFR	5	2	1	AUNT	60	n/a	1	n/a	n/a	n/a	n/a	n/a
3510.434	n/a	RECOG_CONF	1755217	n/a	LTP086	ltpFR	5	2	1	AUNT	60	5	1	n/a	n/a	n/a	n/a	n/a
3511.614	n/a	RECOG_TARGET	1755807	n/a	LTP086	ltpFR	5	2	1	SOCIETY	1338	5	1	n/a	n/a	n/a	n/a	n/a
3512.09	n/a	RECOG_RESP	1756045	n/a	LTP086	ltpFR	5	2	1	SOCIETY	1338	n/a	1	n/a	n/a	n/a	n/a	n/a
3512.73	n/a	RECOG_CONF	1756365	n/a	LTP086	ltpFR	5	2	1	SOCIETY	1338	5	1	n/a	n/a	n/a	n/a	n/a
3513.932	n/a	RECOG_TARGET	1756966	n/a	LTP086	ltpFR	5	2	1	TROUT	1511	5	0	n/a	n/a	n/a	n/a	n/a
3514.394	n/a	RECOG_RESP	1757197	n/a	LTP086	ltpFR	5	2	1	TROUT	1511	n/a	0	n/a	n/a	n/a	n/a	n/a
3515.034	n/a	RECOG_CONF	1757517	n/a	LTP086	ltpFR	5	2	1	TROUT	1511	5	0	n/a	n/a	n/a	n/a	n/a
3516.258	n/a	RECOG_TARGET	1758129	n/a	LTP086	ltpFR	5	2	0	STETHOSCOPE	1379	5	1	n/a	n/a	n/a	n/a	n/a
3516.6	n/a	RECOG_RESP	1758300	n/a	LTP086	ltpFR	5	2	0	STETHOSCOPE	1379	n/a	1	n/a	n/a	n/a	n/a	n/a
3517.26	n/a	RECOG_CONF	1758630	n/a	LTP086	ltpFR	5	2	0	STETHOSCOPE	1379	5	1	n/a	n/a	n/a	n/a	n/a
3518.432	n/a	RECOG_LURE	1759216	n/a	LTP086	ltpFR	5	2	n/a	WORLD	1622	5	n/a	n/a	n/a	n/a	n/a	n/a
3518.784	n/a	RECOG_RESP	1759392	n/a	LTP086	ltpFR	5	2	n/a	WORLD	1622	n/a	n/a	n/a	n/a	n/a	n/a	n/a
3519.468	n/a	RECOG_CONF	1759734	n/a	LTP086	ltpFR	5	2	n/a	WORLD	1622	5	n/a	n/a	n/a	n/a	n/a	n/a
3520.748	n/a	RECOG_TARGET	1760374	n/a	LTP086	ltpFR	5	2	-1	CLOVE	329	5	-1	n/a	n/a	n/a	n/a	n/a
3521.444	n/a	RECOG_RESP	1760722	n/a	LTP086	ltpFR	5	2	-1	CLOVE	329	n/a	-1	n/a	n/a	n/a	n/a	n/a
3522.106	n/a	RECOG_CONF	1761053	n/a	LTP086	ltpFR	5	2	-1	CLOVE	329	5	-1	n/a	n/a	n/a	n/a	n/a
3523.464	n/a	RECOG_LURE	1761732	n/a	LTP086	ltpFR	5	2	n/a	VICTOR	1563	2	n/a	n/a	n/a	n/a	n/a	n/a
3523.834	n/a	RECOG_RESP_VV	1761917	n/a	LTP086	ltpFR	5	2	n/a	VICTOR	1563	n/a	n/a	n/a	n/a	n/a	n/a	n/a
3524.342	n/a	RECOG_RESP	1762171	n/a	LTP086	ltpFR	5	2	n/a	VICTOR	1563	n/a	n/a	n/a	n/a	n/a	n/a	n/a
3524.94	n/a	RECOG_CONF	1762470	n/a	LTP086	ltpFR	5	2	n/a	VICTOR	1563	2	n/a	n/a	n/a	n/a	n/a	n/a
3526.264	n/a	RECOG_TARGET	1763132	n/a	LTP086	ltpFR	5	2	1	ATHLETE	52	5	1	n/a	n/a	n/a	n/a	n/a
3526.746	n/a	RECOG_RESP	1763373	n/a	LTP086	ltpFR	5	2	1	ATHLETE	52	n/a	1	n/a	n/a	n/a	n/a	n/a
3527.476	n/a	RECOG_CONF	1763738	n/a	LTP086	ltpFR	5	2	1	ATHLETE	52	5	1	n/a	n/a	n/a	n/a	n/a
3528.782	n/a	RECOG_TARGET	1764391	n/a	LTP086	ltpFR	5	2	1	CRAB	397	5	1	n/a	n/a	n/a	n/a	n/a
3529.072	n/a	RECOG_RESP	1764536	n/a	LTP086	ltpFR	5	2	1	CRAB	397	n/a	1	n/a	n/a	n/a	n/a	n/a
3529.712	n/a	RECOG_CONF	1764856	n/a	LTP086	ltpFR	5	2	1	CRAB	397	5	1	n/a	n/a	n/a	n/a	n/a
3530.84	n/a	RECOG_TARGET	1765420	n/a	LTP086	ltpFR	5	2	1	TAVERN	1437	5	1	n/a	n/a	n/a	n/a	n/a
3531.502	n/a	RECOG_RESP	1765751	n/a	LTP086	ltpFR	5	2	1	TAVERN	1437	n/a	1	n/a	n/a	n/a	n/a	n/a
3532.142	n/a	RECOG_CONF	1766071	n/a	LTP086	ltpFR	5	2	1	TAVERN	1437	5	1	n/a	n/a	n/a	n/a	n/a
3533.44	n/a	RECOG_TARGET	1766720	n/a	LTP086	ltpFR	5	2	1	BABY	64	1	1	n/a	n/a	n/a	n/a	n/a
3534.136	n/a	RECOG_RESP	1767068	n/a	LTP086	ltpFR	5	2	1	BABY	64	n/a	1	n/a	n/a	n/a	n/a	n/a
3534.84	n/a	RECOG_CONF	1767420	n/a	LTP086	ltpFR	5	2	1	BABY	64	1	1	n/a	n/a	n/a	n/a	n/a
3535.99	n/a	RECOG_TARGET	1767995	n/a	LTP086	ltpFR	5	2	-1	RECORD	1176	5	-1	n/a	n/a	n/a	n/a	n/a
3536.556	n/a	RECOG_RESP	1768278	n/a	LTP086	ltpFR	5	2	-1	RECORD	1176	n/a	-1	n/a	n/a	n/a	n/a	n/a
3537.216	n/a	RECOG_CONF	1768608	n/a	LTP086	ltpFR	5	2	-1	RECORD	1176	5	-1	n/a	n/a	n/a	n/a	n/a
3538.424	n/a	RECOG_TARGET	1769212	n/a	LTP086	ltpFR	5	2	0	CHEF	290	5	1	n/a	n/a	n/a	n/a	n/a
3538.88	n/a	RECOG_RESP	1769440	n/a	LTP086	ltpFR	5	2	0	CHEF	290	n/a	1	n/a	n/a	n/a	n/a	n/a
3539.39	n/a	RECOG_CONF	1769695	n/a	LTP086	ltpFR	5	2	0	CHEF	290	5	1	n/a	n/a	n/a	n/a	n/a
3540.764	n/a	RECOG_TARGET	1770382	n/a	LTP086	ltpFR	5	2	1	CUE	422	5	1	n/a	n/a	n/a	n/a	n/a
3541.184	n/a	RECOG_RESP	1770592	n/a	LTP086	ltpFR	5	2	1	CUE	422	n/a	1	n/a	n/a	n/a	n/a	n/a
3541.782	n/a	RECOG_CONF	1770891	n/a	LTP086	ltpFR	5	2	1	CUE	422	5	1	n/a	n/a	n/a	n/a	n/a
3544.706	n/a	REC_START	1772353	n/a	LTP086	ltpFR	5	3	n/a	n/a	n/a	n/a	n/a	n/a	n/a	n/a	n/a	n/a
3544.74	n/a	RECOG_TARGET	1772370	n/a	LTP086	ltpFR	5	3	1	BOULEVARD	156	2	0	n/a	n/a	n/a	n/a	n/a
3545.084	n/a	RECOG_RESP_VV	1772542	n/a	LTP086	ltpFR	5	3	1	BOULEVARD	156	n/a	0	n/a	n/a	n/a	n/a	n/a
3545.334	n/a	RECOG_RESP	1772667	n/a	LTP086	ltpFR	5	3	1	BOULEVARD	156	n/a	0	n/a	n/a	n/a	n/a	n/a
3545.858	n/a	RECOG_CONF	1772929	n/a	LTP086	ltpFR	5	3	1	BOULEVARD	156	2	0	n/a	n/a	n/a	n/a	n/a
3547.23	n/a	RECOG_TARGET	1773615	n/a	LTP086	ltpFR	5	3	1	WHIP	1604	5	1	n/a	n/a	n/a	n/a	n/a
3547.674	n/a	RECOG_RESP	1773837	n/a	LTP086	ltpFR	5	3	1	WHIP	1604	n/a	1	n/a	n/a	n/a	n/a	n/a
3548.172	n/a	RECOG_CONF	1774086	n/a	LTP086	ltpFR	5	3	1	WHIP	1604	5	1	n/a	n/a	n/a	n/a	n/a
3549.538	n/a	RECOG_TARGET	1774769	n/a	LTP086	ltpFR	5	3	1	BOOK	149	1	0	n/a	n/a	n/a	n/a	n/a
3549.898	n/a	RECOG_RESP	1774949	n/a	LTP086	ltpFR	5	3	1	BOOK	149	n/a	0	n/a	n/a	n/a	n/a	n/a
3550.508	n/a	RECOG_CONF	1775254	n/a	LTP086	ltpFR	5	3	1	BOOK	149	1	0	n/a	n/a	n/a	n/a	n/a
3551.864	n/a	RECOG_TARGET	1775932	n/a	LTP086	ltpFR	5	3	-1	HANDCUFFS	685	5	-1	n/a	n/a	n/a	n/a	n/a
3552.284	n/a	RECOG_RESP	1776142	n/a	LTP086	ltpFR	5	3	-1	HANDCUFFS	685	n/a	-1	n/a	n/a	n/a	n/a	n/a
3552.782	n/a	RECOG_CONF	1776391	n/a	LTP086	ltpFR	5	3	-1	HANDCUFFS	685	5	-1	n/a	n/a	n/a	n/a	n/a
3554.156	n/a	RECOG_TARGET	1777078	n/a	LTP086	ltpFR	5	3	-1	BOLT	146	5	-1	n/a	n/a	n/a	n/a	n/a
3554.974	n/a	RECOG_RESP	1777487	n/a	LTP086	ltpFR	5	3	-1	BOLT	146	n/a	-1	n/a	n/a	n/a	n/a	n/a
3555.508	n/a	RECOG_CONF	1777754	n/a	LTP086	ltpFR	5	3	-1	BOLT	146	5	-1	n/a	n/a	n/a	n/a	n/a
3557.014	n/a	RECOG_TARGET	1778507	n/a	LTP086	ltpFR	5	3	0	HONEY	713	5	1	n/a	n/a	n/a	n/a	n/a
3557.482	n/a	RECOG_RESP	1778741	n/a	LTP086	ltpFR	5	3	0	HONEY	713	n/a	1	n/a	n/a	n/a	n/a	n/a
3557.946	n/a	RECOG_CONF	1778973	n/a	LTP086	ltpFR	5	3	0	HONEY	713	5	1	n/a	n/a	n/a	n/a	n/a
3559.44	n/a	RECOG_TARGET	1779720	n/a	LTP086	ltpFR	5	3	0	FLASHLIGHT	575	5	1	n/a	n/a	n/a	n/a	n/a
3559.708	n/a	RECOG_RESP	1779854	n/a	LTP086	ltpFR	5	3	0	FLASHLIGHT	575	n/a	1	n/a	n/a	n/a	n/a	n/a
3560.158	n/a	RECOG_CONF	1780079	n/a	LTP086	ltpFR	5	3	0	FLASHLIGHT	575	5	1	n/a	n/a	n/a	n/a	n/a
3561.514	n/a	RECOG_TARGET	1780757	n/a	LTP086	ltpFR	5	3	-1	ATTORNEY	58	5	-1	n/a	n/a	n/a	n/a	n/a
3561.812	n/a	RECOG_RESP	1780906	n/a	LTP086	ltpFR	5	3	-1	ATTORNEY	58	n/a	-1	n/a	n/a	n/a	n/a	n/a
3562.276	n/a	RECOG_CONF	1781138	n/a	LTP086	ltpFR	5	3	-1	ATTORNEY	58	5	-1	n/a	n/a	n/a	n/a	n/a
3563.588	n/a	RECOG_LURE	1781794	n/a	LTP086	ltpFR	5	3	n/a	FOUNTAIN	597	2	n/a	n/a	n/a	n/a	n/a	n/a
3563.858	n/a	RECOG_RESP_VV	1781929	n/a	LTP086	ltpFR	5	3	n/a	FOUNTAIN	597	n/a	n/a	n/a	n/a	n/a	n/a	n/a
3564.366	n/a	RECOG_RESP	1782183	n/a	LTP086	ltpFR	5	3	n/a	FOUNTAIN	597	n/a	n/a	n/a	n/a	n/a	n/a	n/a
3564.906	n/a	RECOG_CONF	1782453	n/a	LTP086	ltpFR	5	3	n/a	FOUNTAIN	597	2	n/a	n/a	n/a	n/a	n/a	n/a
3566.356	n/a	RECOG_LURE	1783178	n/a	LTP086	ltpFR	5	3	n/a	CHALK	276	1	n/a	n/a	n/a	n/a	n/a	n/a
3566.936	n/a	RECOG_RESP	1783468	n/a	LTP086	ltpFR	5	3	n/a	CHALK	276	n/a	n/a	n/a	n/a	n/a	n/a	n/a
3567.43	n/a	RECOG_CONF	1783715	n/a	LTP086	ltpFR	5	3	n/a	CHALK	276	1	n/a	n/a	n/a	n/a	n/a	n/a
3568.68	n/a	RECOG_LURE	1784340	n/a	LTP086	ltpFR	5	3	n/a	PALACE	1006	1	n/a	n/a	n/a	n/a	n/a	n/a
3569.226	n/a	RECOG_RESP	1784613	n/a	LTP086	ltpFR	5	3	n/a	PALACE	1006	n/a	n/a	n/a	n/a	n/a	n/a	n/a
3569.714	n/a	RECOG_CONF	1784857	n/a	LTP086	ltpFR	5	3	n/a	PALACE	1006	1	n/a	n/a	n/a	n/a	n/a	n/a
3571.056	n/a	RECOG_TARGET	1785528	n/a	LTP086	ltpFR	5	3	0	SKIN	1318	5	1	n/a	n/a	n/a	n/a	n/a
3571.63	n/a	RECOG_RESP	1785815	n/a	LTP086	ltpFR	5	3	0	SKIN	1318	n/a	1	n/a	n/a	n/a	n/a	n/a
3572.198	n/a	RECOG_CONF	1786099	n/a	LTP086	ltpFR	5	3	0	SKIN	1318	5	1	n/a	n/a	n/a	n/a	n/a
3573.538	n/a	RECOG_TARGET	1786769	n/a	LTP086	ltpFR	5	3	0	TILE	1468	5	0	n/a	n/a	n/a	n/a	n/a
3573.954	n/a	RECOG_RESP	1786977	n/a	LTP086	ltpFR	5	3	0	TILE	1468	n/a	0	n/a	n/a	n/a	n/a	n/a
3574.418	n/a	RECOG_CONF	1787209	n/a	LTP086	ltpFR	5	3	0	TILE	1468	5	0	n/a	n/a	n/a	n/a	n/a
3575.748	n/a	RECOG_TARGET	1787874	n/a	LTP086	ltpFR	5	3	1	TWINE	1529	5	1	n/a	n/a	n/a	n/a	n/a
3576.2	n/a	RECOG_RESP	1788100	n/a	LTP086	ltpFR	5	3	1	TWINE	1529	n/a	1	n/a	n/a	n/a	n/a	n/a
3576.664	n/a	RECOG_CONF	1788332	n/a	LTP086	ltpFR	5	3	1	TWINE	1529	5	1	n/a	n/a	n/a	n/a	n/a
3578.048	n/a	RECOG_TARGET	1789024	n/a	LTP086	ltpFR	5	3	1	JOKER	759	5	1	n/a	n/a	n/a	n/a	n/a
3578.416	n/a	RECOG_RESP	1789208	n/a	LTP086	ltpFR	5	3	1	JOKER	759	n/a	1	n/a	n/a	n/a	n/a	n/a
3578.88	n/a	RECOG_CONF	1789440	n/a	LTP086	ltpFR	5	3	1	JOKER	759	5	1	n/a	n/a	n/a	n/a	n/a
3580.246	n/a	RECOG_TARGET	1790123	n/a	LTP086	ltpFR	5	3	0	SOFTBALL	1343	5	1	n/a	n/a	n/a	n/a	n/a
3580.64	n/a	RECOG_RESP	1790320	n/a	LTP086	ltpFR	5	3	0	SOFTBALL	1343	n/a	1	n/a	n/a	n/a	n/a	n/a
3581.104	n/a	RECOG_CONF	1790552	n/a	LTP086	ltpFR	5	3	0	SOFTBALL	1343	5	1	n/a	n/a	n/a	n/a	n/a
3582.564	n/a	RECOG_LURE	1791282	n/a	LTP086	ltpFR	5	3	n/a	BANKER	84	5	n/a	n/a	n/a	n/a	n/a	n/a
3582.876	n/a	RECOG_RESP	1791438	n/a	LTP086	ltpFR	5	3	n/a	BANKER	84	n/a	n/a	n/a	n/a	n/a	n/a	n/a
3583.374	n/a	RECOG_CONF	1791687	n/a	LTP086	ltpFR	5	3	n/a	BANKER	84	5	n/a	n/a	n/a	n/a	n/a	n/a
3584.872	n/a	RECOG_LURE	1792436	n/a	LTP086	ltpFR	5	3	n/a	WALL	1582	2	n/a	n/a	n/a	n/a	n/a	n/a
3585.45	n/a	RECOG_RESP	1792725	n/a	LTP086	ltpFR	5	3	n/a	WALL	1582	n/a	n/a	n/a	n/a	n/a	n/a	n/a
3585.95	n/a	RECOG_CONF	1792975	n/a	LTP086	ltpFR	5	3	n/a	WALL	1582	2	n/a	n/a	n/a	n/a	n/a	n/a
3587.288	n/a	RECOG_LURE	1793644	n/a	LTP086	ltpFR	5	3	n/a	BUBBLE	183	2	n/a	n/a	n/a	n/a	n/a	n/a
3587.824	n/a	RECOG_RESP	1793912	n/a	LTP086	ltpFR	5	3	n/a	BUBBLE	183	n/a	n/a	n/a	n/a	n/a	n/a	n/a
3588.522	n/a	RECOG_CONF	1794261	n/a	LTP086	ltpFR	5	3	n/a	BUBBLE	183	2	n/a	n/a	n/a	n/a	n/a	n/a
3589.938	n/a	RECOG_TARGET	1794969	n/a	LTP086	ltpFR	5	3	1	BAG	69	5	0	n/a	n/a	n/a	n/a	n/a
3590.378	n/a	RECOG_RESP	1795189	n/a	LTP086	ltpFR	5	3	1	BAG	69	n/a	0	n/a	n/a	n/a	n/a	n/a
3590.842	n/a	RECOG_CONF	1795421	n/a	LTP086	ltpFR	5	3	1	BAG	69	5	0	n/a	n/a	n/a	n/a	n/a
3594.518	n/a	REC_START	1797259	n/a	LTP086	ltpFR	5	4	n/a	n/a	n/a	n/a	n/a	n/a	n/a	n/a	n/a	n/a
3594.554	n/a	RECOG_TARGET	1797277	n/a	LTP086	ltpFR	5	4	1	DESSERT	453	5	0	n/a	n/a	n/a	n/a	n/a
3594.882	n/a	RECOG_RESP	1797441	n/a	LTP086	ltpFR	5	4	1	DESSERT	453	n/a	0	n/a	n/a	n/a	n/a	n/a
3595.416	n/a	RECOG_CONF	1797708	n/a	LTP086	ltpFR	5	4	1	DESSERT	453	5	0	n/a	n/a	n/a	n/a	n/a
3596.864	n/a	RECOG_TARGET	1798432	n/a	LTP086	ltpFR	5	4	1	POISON	1096	5	0	n/a	n/a	n/a	n/a	n/a
3597.492	n/a	RECOG_RESP	1798746	n/a	LTP086	ltpFR	5	4	1	POISON	1096	n/a	0	n/a	n/a	n/a	n/a	n/a
3597.91	n/a	RECOG_CONF	1798955	n/a	LTP086	ltpFR	5	4	1	POISON	1096	5	0	n/a	n/a	n/a	n/a	n/a
3599.514	n/a	RECOG_TARGET	1799757	n/a	LTP086	ltpFR	5	4	1	ATTIRE	57	5	0	n/a	n/a	n/a	n/a	n/a
3599.93	n/a	RECOG_RESP	1799965	n/a	LTP086	ltpFR	5	4	1	ATTIRE	57	n/a	0	n/a	n/a	n/a	n/a	n/a
3600.428	n/a	RECOG_CONF	1800214	n/a	LTP086	ltpFR	5	4	1	ATTIRE	57	5	0	n/a	n/a	n/a	n/a	n/a
3601.864	n/a	RECOG_TARGET	1800932	n/a	LTP086	ltpFR	5	4	0	DRIVER	499	4	1	n/a	n/a	n/a	n/a	n/a
3602.538	n/a	RECOG_RESP	1801269	n/a	LTP086	ltpFR	5	4	0	DRIVER	499	n/a	1	n/a	n/a	n/a	n/a	n/a
3603.25	n/a	RECOG_CONF	1801625	n/a	LTP086	ltpFR	5	4	0	DRIVER	499	4	1	n/a	n/a	n/a	n/a	n/a
3604.562	n/a	RECOG_LURE	1802281	n/a	LTP086	ltpFR	5	4	n/a	GRILL	661	2	n/a	n/a	n/a	n/a	n/a	n/a
3605.03	n/a	RECOG_RESP_VV	1802515	n/a	LTP086	ltpFR	5	4	n/a	GRILL	661	n/a	n/a	n/a	n/a	n/a	n/a	n/a
3605.25	n/a	RECOG_RESP	1802625	n/a	LTP086	ltpFR	5	4	n/a	GRILL	661	n/a	n/a	n/a	n/a	n/a	n/a	n/a
3605.778	n/a	RECOG_CONF	1802889	n/a	LTP086	ltpFR	5	4	n/a	GRILL	661	2	n/a	n/a	n/a	n/a	n/a	n/a
3607.196	n/a	RECOG_TARGET	1803598	n/a	LTP086	ltpFR	5	4	-1	PENGUIN	1044	5	-1	n/a	n/a	n/a	n/a	n/a
3607.91	n/a	RECOG_RESP	1803955	n/a	LTP086	ltpFR	5	4	-1	PENGUIN	1044	n/a	-1	n/a	n/a	n/a	n/a	n/a
3608.58	n/a	RECOG_CONF	1804290	n/a	LTP086	ltpFR	5	4	-1	PENGUIN	1044	5	-1	n/a	n/a	n/a	n/a	n/a
3609.862	n/a	RECOG_TARGET	1804931	n/a	LTP086	ltpFR	5	4	0	LIME	823	5	1	n/a	n/a	n/a	n/a	n/a
3610.304	n/a	RECOG_RESP	1805152	n/a	LTP086	ltpFR	5	4	0	LIME	823	n/a	1	n/a	n/a	n/a	n/a	n/a
3610.814	n/a	RECOG_CONF	1805407	n/a	LTP086	ltpFR	5	4	0	LIME	823	5	1	n/a	n/a	n/a	n/a	n/a
3612.438	n/a	RECOG_TARGET	1806219	n/a	LTP086	ltpFR	5	4	1	KID	775	5	1	n/a	n/a	n/a	n/a	n/a
3612.812	n/a	RECOG_RESP	1806406	n/a	LTP086	ltpFR	5	4	1	KID	775	n/a	1	n/a	n/a	n/a	n/a	n/a
3613.346	n/a	RECOG_CONF	1806673	n/a	LTP086	ltpFR	5	4	1	KID	775	5	1	n/a	n/a	n/a	n/a	n/a
3614.596	n/a	RECOG_TARGET	1807298	n/a	LTP086	ltpFR	5	4	0	COWBOY	395	5	1	n/a	n/a	n/a	n/a	n/a
3614.952	n/a	RECOG_RESP	1807476	n/a	LTP086	ltpFR	5	4	0	COWBOY	395	n/a	1	n/a	n/a	n/a	n/a	n/a
3615.492	n/a	RECOG_CONF	1807746	n/a	LTP086	ltpFR	5	4	0	COWBOY	395	5	1	n/a	n/a	n/a	n/a	n/a
3616.838	n/a	RECOG_TARGET	1808419	n/a	LTP086	ltpFR	5	4	1	VIKING	1565	5	1	n/a	n/a	n/a	n/a	n/a
3617.118	n/a	RECOG_RESP	1808559	n/a	LTP086	ltpFR	5	4	1	VIKING	1565	n/a	1	n/a	n/a	n/a	n/a	n/a
3617.586	n/a	RECOG_CONF	1808793	n/a	LTP086	ltpFR	5	4	1	VIKING	1565	5	1	n/a	n/a	n/a	n/a	n/a
3618.912	n/a	RECOG_TARGET	1809456	n/a	LTP086	ltpFR	5	4	1	WILDERNESS	1610	5	0	n/a	n/a	n/a	n/a	n/a
3619.158	n/a	RECOG_RESP	1809579	n/a	LTP086	ltpFR	5	4	1	WILDERNESS	1610	n/a	0	n/a	n/a	n/a	n/a	n/a
3619.68	n/a	RECOG_CONF	1809840	n/a	LTP086	ltpFR	5	4	1	WILDERNESS	1610	5	0	n/a	n/a	n/a	n/a	n/a
3621.072	n/a	RECOG_TARGET	1810536	n/a	LTP086	ltpFR	5	4	1	STAFF	1365	1	1	n/a	n/a	n/a	n/a	n/a
3621.304	n/a	RECOG_RESP	1810652	n/a	LTP086	ltpFR	5	4	1	STAFF	1365	n/a	1	n/a	n/a	n/a	n/a	n/a
3621.768	n/a	RECOG_CONF	1810884	n/a	LTP086	ltpFR	5	4	1	STAFF	1365	1	1	n/a	n/a	n/a	n/a	n/a
3623.188	n/a	RECOG_TARGET	1811594	n/a	LTP086	ltpFR	5	4	1	ALLIGATOR	16	5	1	n/a	n/a	n/a	n/a	n/a
3623.418	n/a	RECOG_RESP	1811709	n/a	LTP086	ltpFR	5	4	1	ALLIGATOR	16	n/a	1	n/a	n/a	n/a	n/a	n/a
3623.836	n/a	RECOG_CONF	1811918	n/a	LTP086	ltpFR	5	4	1	ALLIGATOR	16	5	1	n/a	n/a	n/a	n/a	n/a
3625.262	n/a	RECOG_TARGET	1812631	n/a	LTP086	ltpFR	5	4	-1	PATRIOT	1026	5	-1	n/a	n/a	n/a	n/a	n/a
3625.468	n/a	RECOG_RESP	1812734	n/a	LTP086	ltpFR	5	4	-1	PATRIOT	1026	n/a	-1	n/a	n/a	n/a	n/a	n/a
3625.938	n/a	RECOG_CONF	1812969	n/a	LTP086	ltpFR	5	4	-1	PATRIOT	1026	5	-1	n/a	n/a	n/a	n/a	n/a
3627.278	n/a	RECOG_LURE	1813639	n/a	LTP086	ltpFR	5	4	n/a	DOUGH	489	1	n/a	n/a	n/a	n/a	n/a	n/a
3627.52	n/a	RECOG_RESP	1813760	n/a	LTP086	ltpFR	5	4	n/a	DOUGH	489	n/a	n/a	n/a	n/a	n/a	n/a	n/a
3627.994	n/a	RECOG_CONF	1813997	n/a	LTP086	ltpFR	5	4	n/a	DOUGH	489	1	n/a	n/a	n/a	n/a	n/a	n/a
3629.654	n/a	RECOG_LURE	1814827	n/a	LTP086	ltpFR	5	4	n/a	BODY	145	2	n/a	n/a	n/a	n/a	n/a	n/a
3630.338	n/a	RECOG_RESP	1815169	n/a	LTP086	ltpFR	5	4	n/a	BODY	145	n/a	n/a	n/a	n/a	n/a	n/a	n/a
3630.76	n/a	RECOG_CONF	1815380	n/a	LTP086	ltpFR	5	4	n/a	BODY	145	2	n/a	n/a	n/a	n/a	n/a	n/a
3632.146	n/a	RECOG_TARGET	1816073	n/a	LTP086	ltpFR	5	4	0	STADIUM	1364	5	1	n/a	n/a	n/a	n/a	n/a
3632.488	n/a	RECOG_RESP	1816244	n/a	LTP086	ltpFR	5	4	0	STADIUM	1364	n/a	1	n/a	n/a	n/a	n/a	n/a
3633.102	n/a	RECOG_CONF	1816551	n/a	LTP086	ltpFR	5	4	0	STADIUM	1364	5	1	n/a	n/a	n/a	n/a	n/a
3634.544	n/a	RECOG_TARGET	1817272	n/a	LTP086	ltpFR	5	4	0	HEATER	698	1	1	n/a	n/a	n/a	n/a	n/a
3634.932	n/a	RECOG_RESP	1817466	n/a	LTP086	ltpFR	5	4	0	HEATER	698	n/a	1	n/a	n/a	n/a	n/a	n/a
3635.522	n/a	RECOG_CONF	1817761	n/a	LTP086	ltpFR	5	4	0	HEATER	698	1	1	n/a	n/a	n/a	n/a	n/a
3636.738	n/a	RECOG_TARGET	1818369	n/a	LTP086	ltpFR	5	4	0	SISTER	1312	5	1	n/a	n/a	n/a	n/a	n/a
3637.178	n/a	RECOG_RESP	1818589	n/a	LTP086	ltpFR	5	4	0	SISTER	1312	n/a	1	n/a	n/a	n/a	n/a	n/a
3637.652	n/a	RECOG_CONF	1818826	n/a	LTP086	ltpFR	5	4	0	SISTER	1312	5	1	n/a	n/a	n/a	n/a	n/a
3638.962	n/a	RECOG_TARGET	1819481	n/a	LTP086	ltpFR	5	4	-1	SCALPEL	1243	5	-1	n/a	n/a	n/a	n/a	n/a
3639.374	n/a	RECOG_RESP	1819687	n/a	LTP086	ltpFR	5	4	-1	SCALPEL	1243	n/a	-1	n/a	n/a	n/a	n/a	n/a
3639.908	n/a	RECOG_CONF	1819954	n/a	LTP086	ltpFR	5	4	-1	SCALPEL	1243	5	-1	n/a	n/a	n/a	n/a	n/a
3642.756	n/a	REC_START	1821378	n/a	LTP086	ltpFR	5	5	n/a	n/a	n/a	n/a	n/a	n/a	n/a	n/a	n/a	n/a
3642.786	n/a	RECOG_TARGET	1821393	n/a	LTP086	ltpFR	5	5	-1	DART	440	5	-1	n/a	n/a	n/a	n/a	n/a
3643.11	n/a	RECOG_RESP	1821555	n/a	LTP086	ltpFR	5	5	-1	DART	440	n/a	-1	n/a	n/a	n/a	n/a	n/a
3643.75	n/a	RECOG_CONF	1821875	n/a	LTP086	ltpFR	5	5	-1	DART	440	5	-1	n/a	n/a	n/a	n/a	n/a
3644.912	n/a	RECOG_LURE	1822456	n/a	LTP086	ltpFR	5	5	n/a	NEPHEW	942	2	n/a	n/a	n/a	n/a	n/a	n/a
3645.538	n/a	RECOG_RESP	1822769	n/a	LTP086	ltpFR	5	5	n/a	NEPHEW	942	n/a	n/a	n/a	n/a	n/a	n/a	n/a
3646.084	n/a	RECOG_CONF	1823042	n/a	LTP086	ltpFR	5	5	n/a	NEPHEW	942	2	n/a	n/a	n/a	n/a	n/a	n/a
3647.378	n/a	RECOG_TARGET	1823689	n/a	LTP086	ltpFR	5	5	1	CUB	419	5	1	n/a	n/a	n/a	n/a	n/a
3647.838	n/a	RECOG_RESP	1823919	n/a	LTP086	ltpFR	5	5	1	CUB	419	n/a	1	n/a	n/a	n/a	n/a	n/a
3648.522	n/a	RECOG_CONF	1824261	n/a	LTP086	ltpFR	5	5	1	CUB	419	5	1	n/a	n/a	n/a	n/a	n/a
3649.594	n/a	RECOG_TARGET	1824797	n/a	LTP086	ltpFR	5	5	0	SURF	1412	5	1	n/a	n/a	n/a	n/a	n/a
3649.914	n/a	RECOG_RESP	1824957	n/a	LTP086	ltpFR	5	5	0	SURF	1412	n/a	1	n/a	n/a	n/a	n/a	n/a
3650.512	n/a	RECOG_CONF	1825256	n/a	LTP086	ltpFR	5	5	0	SURF	1412	5	1	n/a	n/a	n/a	n/a	n/a
3651.72	n/a	RECOG_TARGET	1825860	n/a	LTP086	ltpFR	5	5	0	WALLET	1583	5	0	n/a	n/a	n/a	n/a	n/a
3652.06	n/a	RECOG_RESP	1826030	n/a	LTP086	ltpFR	5	5	0	WALLET	1583	n/a	0	n/a	n/a	n/a	n/a	n/a
3652.72	n/a	RECOG_CONF	1826360	n/a	LTP086	ltpFR	5	5	0	WALLET	1583	5	0	n/a	n/a	n/a	n/a	n/a
3653.878	n/a	RECOG_TARGET	1826939	n/a	LTP086	ltpFR	5	5	0	KITTEN	780	5	0	n/a	n/a	n/a	n/a	n/a
3654.164	n/a	RECOG_RESP	1827082	n/a	LTP086	ltpFR	5	5	0	KITTEN	780	n/a	0	n/a	n/a	n/a	n/a	n/a
3654.762	n/a	RECOG_CONF	1827381	n/a	LTP086	ltpFR	5	5	0	KITTEN	780	5	0	n/a	n/a	n/a	n/a	n/a
3655.936	n/a	RECOG_TARGET	1827968	n/a	LTP086	ltpFR	5	5	1	FACTORY	548	1	0	n/a	n/a	n/a	n/a	n/a
3656.17	n/a	RECOG_RESP	1828085	n/a	LTP086	ltpFR	5	5	1	FACTORY	548	n/a	0	n/a	n/a	n/a	n/a	n/a
3656.68	n/a	RECOG_CONF	1828340	n/a	LTP086	ltpFR	5	5	1	FACTORY	548	1	0	n/a	n/a	n/a	n/a	n/a
3657.946	n/a	RECOG_LURE	1828973	n/a	LTP086	ltpFR	5	5	n/a	EMERALD	528	2	n/a	n/a	n/a	n/a	n/a	n/a
3658.562	n/a	RECOG_RESP	1829281	n/a	LTP086	ltpFR	5	5	n/a	EMERALD	528	n/a	n/a	n/a	n/a	n/a	n/a	n/a
3659.138	n/a	RECOG_CONF	1829569	n/a	LTP086	ltpFR	5	5	n/a	EMERALD	528	2	n/a	n/a	n/a	n/a	n/a	n/a
3660.428	n/a	RECOG_LURE	1830214	n/a	LTP086	ltpFR	5	5	n/a	CELLAR	267	2	n/a	n/a	n/a	n/a	n/a	n/a
3660.9	n/a	RECOG_RESP_VV	1830450	n/a	LTP086	ltpFR	5	5	n/a	CELLAR	267	n/a	n/a	n/a	n/a	n/a	n/a	n/a
3661.43	n/a	RECOG_RESP	1830715	n/a	LTP086	ltpFR	5	5	n/a	CELLAR	267	n/a	n/a	n/a	n/a	n/a	n/a	n/a
3662.008	n/a	RECOG_CONF	1831004	n/a	LTP086	ltpFR	5	5	n/a	CELLAR	267	2	n/a	n/a	n/a	n/a	n/a	n/a
3663.354	n/a	RECOG_TARGET	1831677	n/a	LTP086	ltpFR	5	5	0	AUDIENCE	59	5	0	n/a	n/a	n/a	n/a	n/a
3663.824	n/a	RECOG_RESP	1831912	n/a	LTP086	ltpFR	5	5	0	AUDIENCE	59	n/a	0	n/a	n/a	n/a	n/a	n/a
3664.506	n/a	RECOG_CONF	1832253	n/a	LTP086	ltpFR	5	5	0	AUDIENCE	59	5	0	n/a	n/a	n/a	n/a	n/a
3665.702	n/a	RECOG_TARGET	1832851	n/a	LTP086	ltpFR	5	5	-1	TUNNEL	1519	5	-1	n/a	n/a	n/a	n/a	n/a
3666.148	n/a	RECOG_RESP	1833074	n/a	LTP086	ltpFR	5	5	-1	TUNNEL	1519	n/a	-1	n/a	n/a	n/a	n/a	n/a
3666.788	n/a	RECOG_CONF	1833394	n/a	LTP086	ltpFR	5	5	-1	TUNNEL	1519	5	-1	n/a	n/a	n/a	n/a	n/a
3667.87	n/a	RECOG_TARGET	1833935	n/a	LTP086	ltpFR	5	5	0	GRIZZLY	662	1	1	n/a	n/a	n/a	n/a	n/a
3668.174	n/a	RECOG_RESP	1834087	n/a	LTP086	ltpFR	5	5	0	GRIZZLY	662	n/a	1	n/a	n/a	n/a	n/a	n/a
3668.75	n/a	RECOG_CONF	1834375	n/a	LTP086	ltpFR	5	5	0	GRIZZLY	662	1	1	n/a	n/a	n/a	n/a	n/a
3669.936	n/a	RECOG_TARGET	1834968	n/a	LTP086	ltpFR	5	5	-1	YARN	1631	1	-1	n/a	n/a	n/a	n/a	n/a
3670.188	n/a	RECOG_RESP	1835094	n/a	LTP086	ltpFR	5	5	-1	YARN	1631	n/a	-1	n/a	n/a	n/a	n/a	n/a
3670.728	n/a	RECOG_CONF	1835364	n/a	LTP086	ltpFR	5	5	-1	YARN	1631	1	-1	n/a	n/a	n/a	n/a	n/a
3671.92	n/a	RECOG_TARGET	1835960	n/a	LTP086	ltpFR	5	5	1	PAVEMENT	1028	1	0	n/a	n/a	n/a	n/a	n/a
3672.454	n/a	RECOG_RESP	1836227	n/a	LTP086	ltpFR	5	5	1	PAVEMENT	1028	n/a	0	n/a	n/a	n/a	n/a	n/a
3673.086	n/a	RECOG_CONF	1836543	n/a	LTP086	ltpFR	5	5	1	PAVEMENT	1028	1	0	n/a	n/a	n/a	n/a	n/a
3674.086	n/a	RECOG_TARGET	1837043	n/a	LTP086	ltpFR	5	5	0	RAISIN	1163	5	0	n/a	n/a	n/a	n/a	n/a
3674.51	n/a	RECOG_RESP	1837255	n/a	LTP086	ltpFR	5	5	0	RAISIN	1163	n/a	0	n/a	n/a	n/a	n/a	n/a
3675.128	n/a	RECOG_CONF	1837564	n/a	LTP086	ltpFR	5	5	0	RAISIN	1163	5	0	n/a	n/a	n/a	n/a	n/a
3676.244	n/a	RECOG_TARGET	1838122	n/a	LTP086	ltpFR	5	5	0	SPACE	1345	5	0	n/a	n/a	n/a	n/a	n/a
3676.626	n/a	RECOG_RESP	1838313	n/a	LTP086	ltpFR	5	5	0	SPACE	1345	n/a	0	n/a	n/a	n/a	n/a	n/a
3677.308	n/a	RECOG_CONF	1838654	n/a	LTP086	ltpFR	5	5	0	SPACE	1345	5	0	n/a	n/a	n/a	n/a	n/a
3678.444	n/a	RECOG_TARGET	1839222	n/a	LTP086	ltpFR	5	5	-1	MISSILE	900	5	-1	n/a	n/a	n/a	n/a	n/a
3678.77	n/a	RECOG_RESP	1839385	n/a	LTP086	ltpFR	5	5	-1	MISSILE	900	n/a	-1	n/a	n/a	n/a	n/a	n/a
3679.39	n/a	RECOG_CONF	1839695	n/a	LTP086	ltpFR	5	5	-1	MISSILE	900	5	-1	n/a	n/a	n/a	n/a	n/a
3680.52	n/a	RECOG_TARGET	1840260	n/a	LTP086	ltpFR	5	5	-1	CAPTIVE	240	5	-1	n/a	n/a	n/a	n/a	n/a
3680.726	n/a	RECOG_RESP	1840363	n/a	LTP086	ltpFR	5	5	-1	CAPTIVE	240	n/a	-1	n/a	n/a	n/a	n/a	n/a
3681.346	n/a	RECOG_CONF	1840673	n/a	LTP086	ltpFR	5	5	-1	CAPTIVE	240	5	-1	n/a	n/a	n/a	n/a	n/a
3682.452	n/a	RECOG_TARGET	1841226	n/a	LTP086	ltpFR	5	5	-1	COACH	331	5	-1	n/a	n/a	n/a	n/a	n/a
3682.642	n/a	RECOG_RESP	1841321	n/a	LTP086	ltpFR	5	5	-1	COACH	331	n/a	-1	n/a	n/a	n/a	n/a	n/a
3683.196	n/a	RECOG_CONF	1841598	n/a	LTP086	ltpFR	5	5	-1	COACH	331	5	-1	n/a	n/a	n/a	n/a	n/a
3684.302	n/a	RECOG_TARGET	1842151	n/a	LTP086	ltpFR	5	5	0	DWARF	510	5	0	n/a	n/a	n/a	n/a	n/a
3684.478	n/a	RECOG_RESP	1842239	n/a	LTP086	ltpFR	5	5	0	DWARF	510	n/a	0	n/a	n/a	n/a	n/a	n/a
3684.99	n/a	RECOG_CONF	1842495	n/a	LTP086	ltpFR	5	5	0	DWARF	510	5	0	n/a	n/a	n/a	n/a	n/a
3688.38	n/a	REC_START	1844190	n/a	LTP086	ltpFR	5	6	n/a	n/a	n/a	n/a	n/a	n/a	n/a	n/a	n/a	n/a
3688.41	n/a	RECOG_TARGET	1844205	n/a	LTP086	ltpFR	5	6	1	CHEST	295	5	1	n/a	n/a	n/a	n/a	n/a
3688.774	n/a	RECOG_RESP	1844387	n/a	LTP086	ltpFR	5	6	1	CHEST	295	n/a	1	n/a	n/a	n/a	n/a	n/a
3689.188	n/a	RECOG_CONF	1844594	n/a	LTP086	ltpFR	5	6	1	CHEST	295	5	1	n/a	n/a	n/a	n/a	n/a
3690.676	n/a	RECOG_TARGET	1845338	n/a	LTP086	ltpFR	5	6	0	FREEZER	604	5	0	n/a	n/a	n/a	n/a	n/a
3691.074	n/a	RECOG_RESP	1845537	n/a	LTP086	ltpFR	5	6	0	FREEZER	604	n/a	0	n/a	n/a	n/a	n/a	n/a
3691.502	n/a	RECOG_CONF	1845751	n/a	LTP086	ltpFR	5	6	0	FREEZER	604	5	0	n/a	n/a	n/a	n/a	n/a
3692.76	n/a	RECOG_TARGET	1846380	n/a	LTP086	ltpFR	5	6	1	FLIPPER	580	5	0	n/a	n/a	n/a	n/a	n/a
3692.968	n/a	RECOG_RESP	1846484	n/a	LTP086	ltpFR	5	6	1	FLIPPER	580	n/a	0	n/a	n/a	n/a	n/a	n/a
3693.404	n/a	RECOG_CONF	1846702	n/a	LTP086	ltpFR	5	6	1	FLIPPER	580	5	0	n/a	n/a	n/a	n/a	n/a
3694.834	n/a	RECOG_TARGET	1847417	n/a	LTP086	ltpFR	5	6	-1	CHIME	300	5	-1	n/a	n/a	n/a	n/a	n/a
3695.1	n/a	RECOG_RESP	1847550	n/a	LTP086	ltpFR	5	6	-1	CHIME	300	n/a	-1	n/a	n/a	n/a	n/a	n/a
3695.56	n/a	RECOG_CONF	1847780	n/a	LTP086	ltpFR	5	6	-1	CHIME	300	5	-1	n/a	n/a	n/a	n/a	n/a
3696.794	n/a	RECOG_TARGET	1848397	n/a	LTP086	ltpFR	5	6	1	HORIZON	717	5	0	n/a	n/a	n/a	n/a	n/a
3697.046	n/a	RECOG_RESP	1848523	n/a	LTP086	ltpFR	5	6	1	HORIZON	717	n/a	0	n/a	n/a	n/a	n/a	n/a
3697.552	n/a	RECOG_CONF	1848776	n/a	LTP086	ltpFR	5	6	1	HORIZON	717	5	0	n/a	n/a	n/a	n/a	n/a
3698.694	n/a	RECOG_TARGET	1849347	n/a	LTP086	ltpFR	5	6	0	DIAMOND	458	1	1	n/a	n/a	n/a	n/a	n/a
3699.016	n/a	RECOG_RESP	1849508	n/a	LTP086	ltpFR	5	6	0	DIAMOND	458	n/a	1	n/a	n/a	n/a	n/a	n/a
3699.472	n/a	RECOG_CONF	1849736	n/a	LTP086	ltpFR	5	6	0	DIAMOND	458	1	1	n/a	n/a	n/a	n/a	n/a
3700.752	n/a	RECOG_TARGET	1850376	n/a	LTP086	ltpFR	5	6	1	DAM	436	5	1	n/a	n/a	n/a	n/a	n/a
3700.946	n/a	RECOG_RESP	1850473	n/a	LTP086	ltpFR	5	6	1	DAM	436	n/a	1	n/a	n/a	n/a	n/a	n/a
3701.458	n/a	RECOG_CONF	1850729	n/a	LTP086	ltpFR	5	6	1	DAM	436	5	1	n/a	n/a	n/a	n/a	n/a
3702.668	n/a	RECOG_TARGET	1851334	n/a	LTP086	ltpFR	5	6	1	ANIMAL	23	5	1	n/a	n/a	n/a	n/a	n/a
3702.892	n/a	RECOG_RESP	1851446	n/a	LTP086	ltpFR	5	6	1	ANIMAL	23	n/a	1	n/a	n/a	n/a	n/a	n/a
3703.38	n/a	RECOG_CONF	1851690	n/a	LTP086	ltpFR	5	6	1	ANIMAL	23	5	1	n/a	n/a	n/a	n/a	n/a
3704.568	n/a	RECOG_LURE	1852284	n/a	LTP086	ltpFR	5	6	n/a	CAMERA	224	2	n/a	n/a	n/a	n/a	n/a	n/a
3704.858	n/a	RECOG_RESP_VV	1852429	n/a	LTP086	ltpFR	5	6	n/a	CAMERA	224	n/a	n/a	n/a	n/a	n/a	n/a	n/a
3705.11	n/a	RECOG_RESP	1852555	n/a	LTP086	ltpFR	5	6	n/a	CAMERA	224	n/a	n/a	n/a	n/a	n/a	n/a	n/a
3705.55	n/a	RECOG_CONF	1852775	n/a	LTP086	ltpFR	5	6	n/a	CAMERA	224	2	n/a	n/a	n/a	n/a	n/a	n/a
3706.826	n/a	RECOG_TARGET	1853413	n/a	LTP086	ltpFR	5	6	-1	OATS	968	1	-1	n/a	n/a	n/a	n/a	n/a
3707.302	n/a	RECOG_RESP	1853651	n/a	LTP086	ltpFR	5	6	-1	OATS	968	n/a	-1	n/a	n/a	n/a	n/a	n/a
3707.744	n/a	RECOG_CONF	1853872	n/a	LTP086	ltpFR	5	6	-1	OATS	968	1	-1	n/a	n/a	n/a	n/a	n/a
3709.086	n/a	RECOG_LURE	1854543	n/a	LTP086	ltpFR	5	6	n/a	ATMOSPHERE	54	1	n/a	n/a	n/a	n/a	n/a	n/a
