onset	duration	trial_type	sample	stim_file	subject	experiment	session	trial	item_name	item_num	list	answer	test_x	test_y	test_z
214.17	n/a	SESS_START	107085	n/a	LTP316	ltpFR2	17	n/a	n/a	n/a	n/a	n/a	0	0	0
231.52	n/a	START	115760	n/a	LTP316	ltpFR2	17	n/a	n/a	n/a	-1	n/a	n/a	n/a	n/a
231.552	n/a	PROB	115776	n/a	LTP316	ltpFR2	17	n/a	n/a	n/a	-1	12	2	3	7
233.17	n/a	PROB	116585	n/a	LTP316	ltpFR2	17	n/a	n/a	n/a	-1	18	5	5	8
234.438	n/a	PROB	117219	n/a	LTP316	ltpFR2	17	n/a	n/a	n/a	-1	20	9	2	9
235.888	n/a	PROB	117944	n/a	LTP316	ltpFR2	17	n/a	n/a	n/a	-1	25	9	7	9
238.056	n/a	PROB	119028	n/a	LTP316	ltpFR2	17	n/a	n/a	n/a	-1	20	9	6	7
240.342	n/a	PROB	120171	n/a	LTP316	ltpFR2	17	n/a	n/a	n/a	-1	17	1	9	7
243.52	n/a	STOP	121760	n/a	LTP316	ltpFR2	17	n/a	n/a	n/a	-1	n/a	n/a	n/a	n/a
284.26	n/a	WORD	142130	wordpools/wasnorm_wordpool_576.txt	LTP316	ltpFR2	17	1	OYSTER	995	n/a	n/a	0	0	0
287.046	n/a	WORD	143523	wordpools/wasnorm_wordpool_576.txt	LTP316	ltpFR2	17	1	GARBAGE	622	n/a	n/a	0	0	0
289.598	n/a	WORD	144799	wordpools/wasnorm_wordpool_576.txt	LTP316	ltpFR2	17	1	FOX	598	n/a	n/a	0	0	0
292.316	n/a	WORD	146158	wordpools/wasnorm_wordpool_576.txt	LTP316	ltpFR2	17	1	SAUSAGE	1238	n/a	n/a	0	0	0
294.768	n/a	WORD	147384	wordpools/wasnorm_wordpool_576.txt	LTP316	ltpFR2	17	1	GRILL	661	n/a	n/a	0	0	0
297.404	n/a	WORD	148702	wordpools/wasnorm_wordpool_576.txt	LTP316	ltpFR2	17	1	SCULPTURE	1258	n/a	n/a	0	0	0
300.122	n/a	WORD	150061	wordpools/wasnorm_wordpool_576.txt	LTP316	ltpFR2	17	1	BRANDY	169	n/a	n/a	0	0	0
302.792	n/a	WORD	151396	wordpools/wasnorm_wordpool_576.txt	LTP316	ltpFR2	17	1	LODGE	839	n/a	n/a	0	0	0
305.462	n/a	WORD	152731	wordpools/wasnorm_wordpool_576.txt	LTP316	ltpFR2	17	1	GHETTO	633	n/a	n/a	0	0	0
308.112	n/a	WORD	154056	wordpools/wasnorm_wordpool_576.txt	LTP316	ltpFR2	17	1	ICEBERG	731	n/a	n/a	0	0	0
310.864	n/a	WORD	155432	wordpools/wasnorm_wordpool_576.txt	LTP316	ltpFR2	17	1	LEOPARD	812	n/a	n/a	0	0	0
313.634	n/a	WORD	156817	wordpools/wasnorm_wordpool_576.txt	LTP316	ltpFR2	17	1	DORM	488	n/a	n/a	0	0	0
316.286	n/a	WORD	158143	wordpools/wasnorm_wordpool_576.txt	LTP316	ltpFR2	17	1	BEAST	108	n/a	n/a	0	0	0
318.87	n/a	WORD	159435	wordpools/wasnorm_wordpool_576.txt	LTP316	ltpFR2	17	1	CLAM	315	n/a	n/a	0	0	0
321.39	n/a	WORD	160695	wordpools/wasnorm_wordpool_576.txt	LTP316	ltpFR2	17	1	GRAPE	654	n/a	n/a	0	0	0
324.108	n/a	WORD	162054	wordpools/wasnorm_wordpool_576.txt	LTP316	ltpFR2	17	1	PEACH	1031	n/a	n/a	0	0	0
326.826	n/a	WORD	163413	wordpools/wasnorm_wordpool_576.txt	LTP316	ltpFR2	17	1	CUSTARD	429	n/a	n/a	0	0	0
329.314	n/a	WORD	164657	wordpools/wasnorm_wordpool_576.txt	LTP316	ltpFR2	17	1	TUNNEL	1519	n/a	n/a	0	0	0
331.832	n/a	WORD	165916	wordpools/wasnorm_wordpool_576.txt	LTP316	ltpFR2	17	1	YACHT	1629	n/a	n/a	0	0	0
334.616	n/a	WORD	167308	wordpools/wasnorm_wordpool_576.txt	LTP316	ltpFR2	17	1	FOREST	593	n/a	n/a	0	0	0
337.252	n/a	WORD	168626	wordpools/wasnorm_wordpool_576.txt	LTP316	ltpFR2	17	1	BRANCH	168	n/a	n/a	0	0	0
340.004	n/a	WORD	170002	wordpools/wasnorm_wordpool_576.txt	LTP316	ltpFR2	17	1	WAGON	1578	n/a	n/a	0	0	0
342.556	n/a	WORD	171278	wordpools/wasnorm_wordpool_576.txt	LTP316	ltpFR2	17	1	SHIRT	1287	n/a	n/a	0	0	0
345.092	n/a	WORD	172546	wordpools/wasnorm_wordpool_576.txt	LTP316	ltpFR2	17	1	TUTU	1524	n/a	n/a	0	0	0
346.71	n/a	START	173355	n/a	LTP316	ltpFR2	17	n/a	n/a	n/a	1	n/a	n/a	n/a	n/a
347.794	n/a	DISTRACTOR	173897	n/a	LTP316	ltpFR2	17	1	n/a	n/a	n/a	n/a	0	0	0
347.81	n/a	PROB	173905	n/a	LTP316	ltpFR2	17	n/a	n/a	n/a	1	15	6	5	4
351.63	n/a	PROB	175815	n/a	LTP316	ltpFR2	17	n/a	n/a	n/a	1	13	4	8	1
353.13	n/a	PROB	176565	n/a	LTP316	ltpFR2	17	n/a	n/a	n/a	1	16	6	4	6
354.3	n/a	PROB	177150	n/a	LTP316	ltpFR2	17	n/a	n/a	n/a	1	21	7	9	5
355.732	n/a	PROB	177866	n/a	LTP316	ltpFR2	17	n/a	n/a	n/a	1	19	6	5	8
357.1	n/a	PROB	178550	n/a	LTP316	ltpFR2	17	n/a	n/a	n/a	1	12	2	7	3
358.502	n/a	PROB	179251	n/a	LTP316	ltpFR2	17	n/a	n/a	n/a	1	13	1	4	8
360.17	n/a	PROB	180085	n/a	LTP316	ltpFR2	17	n/a	n/a	n/a	1	18	8	6	4
361.872	n/a	PROB	180936	n/a	LTP316	ltpFR2	17	n/a	n/a	n/a	1	12	4	2	6
363.19	n/a	PROB	181595	n/a	LTP316	ltpFR2	17	n/a	n/a	n/a	1	19	9	2	8
364.89	n/a	PROB	182445	n/a	LTP316	ltpFR2	17	n/a	n/a	n/a	1	21	9	3	9
366.926	n/a	PROB	183463	n/a	LTP316	ltpFR2	17	n/a	n/a	n/a	1	12	4	3	5
368.312	n/a	PROB	184156	n/a	LTP316	ltpFR2	17	n/a	n/a	n/a	1	23	7	8	8
370.074	n/a	STOP	185037	n/a	LTP316	ltpFR2	17	n/a	n/a	n/a	1	n/a	n/a	n/a	n/a
372.58	n/a	REC_START	186290	n/a	LTP316	ltpFR2	17	1	n/a	n/a	n/a	n/a	0	0	0
375.402	n/a	REC_WORD	187701	wordpools/wasnorm_wordpool_576.txt	LTP316	ltpFR2	17	1	OYSTER	995	n/a	n/a	0	0	0
376.346	n/a	REC_WORD	188173	wordpools/wasnorm_wordpool_576.txt	LTP316	ltpFR2	17	1	CLAM	315	n/a	n/a	0	0	0
377.358	n/a	REC_WORD	188679	wordpools/wasnorm_wordpool_576.txt	LTP316	ltpFR2	17	1	GARBAGE	622	n/a	n/a	0	0	0
378.13	n/a	REC_WORD	189065	wordpools/wasnorm_wordpool_576.txt	LTP316	ltpFR2	17	1	SAUSAGE	1238	n/a	n/a	0	0	0
379.174	n/a	REC_WORD	189587	wordpools/wasnorm_wordpool_576.txt	LTP316	ltpFR2	17	1	GRILL	661	n/a	n/a	0	0	0
379.822	n/a	REC_WORD	189911	wordpools/wasnorm_wordpool_576.txt	LTP316	ltpFR2	17	1	FOX	598	n/a	n/a	0	0	0
380.822	n/a	REC_WORD_VV	190411	wordpools/wasnorm_wordpool_576.txt	LTP316	ltpFR2	17	1	<>	-1	n/a	n/a	0	0	0
381.158	n/a	REC_WORD	190579	wordpools/wasnorm_wordpool_576.txt	LTP316	ltpFR2	17	1	GRAPE	654	n/a	n/a	0	0	0
382.032	n/a	REC_WORD	191016	wordpools/wasnorm_wordpool_576.txt	LTP316	ltpFR2	17	1	PEACH	1031	n/a	n/a	0	0	0
385.902	n/a	REC_WORD	192951	wordpools/wasnorm_wordpool_576.txt	LTP316	ltpFR2	17	1	GRAPE	654	n/a	n/a	0	0	0
386.692	n/a	REC_WORD	193346	wordpools/wasnorm_wordpool_576.txt	LTP316	ltpFR2	17	1	PEACH	1031	n/a	n/a	0	0	0
387.704	n/a	REC_WORD	193852	wordpools/wasnorm_wordpool_576.txt	LTP316	ltpFR2	17	1	STATUE	1374	n/a	n/a	0	0	0
388.704	n/a	REC_WORD_VV	194352	wordpools/wasnorm_wordpool_576.txt	LTP316	ltpFR2	17	1	<>	-1	n/a	n/a	0	0	0
389.29	n/a	REC_WORD	194645	wordpools/wasnorm_wordpool_576.txt	LTP316	ltpFR2	17	1	ICEBERG	731	n/a	n/a	0	0	0
390.29	n/a	REC_WORD_VV	195145	wordpools/wasnorm_wordpool_576.txt	LTP316	ltpFR2	17	1	<>	-1	n/a	n/a	0	0	0
390.464	n/a	REC_WORD	195232	wordpools/wasnorm_wordpool_576.txt	LTP316	ltpFR2	17	1	LEOPARD	812	n/a	n/a	0	0	0
391.49	n/a	REC_WORD	195745	wordpools/wasnorm_wordpool_576.txt	LTP316	ltpFR2	17	1	BEAST	108	n/a	n/a	0	0	0
392.28	n/a	REC_WORD	196140	wordpools/wasnorm_wordpool_576.txt	LTP316	ltpFR2	17	1	DORM	488	n/a	n/a	0	0	0
393.12	n/a	REC_WORD	196560	wordpools/wasnorm_wordpool_576.txt	LTP316	ltpFR2	17	1	BRANDY	169	n/a	n/a	0	0	0
395.306	n/a	REC_WORD	197653	wordpools/wasnorm_wordpool_576.txt	LTP316	ltpFR2	17	1	LODGE	839	n/a	n/a	0	0	0
396.784	n/a	REC_WORD	198392	wordpools/wasnorm_wordpool_576.txt	LTP316	ltpFR2	17	1	FOREST	593	n/a	n/a	0	0	0
397.784	n/a	REC_WORD_VV	198892	wordpools/wasnorm_wordpool_576.txt	LTP316	ltpFR2	17	1	<>	-1	n/a	n/a	0	0	0
397.996	n/a	REC_WORD	198998	wordpools/wasnorm_wordpool_576.txt	LTP316	ltpFR2	17	1	BRANCH	168	n/a	n/a	0	0	0
398.98	n/a	REC_WORD	199490	wordpools/wasnorm_wordpool_576.txt	LTP316	ltpFR2	17	1	WAGON	1578	n/a	n/a	0	0	0
400.238	n/a	REC_WORD	200119	wordpools/wasnorm_wordpool_576.txt	LTP316	ltpFR2	17	1	SHIRT	1287	n/a	n/a	0	0	0
409.828	n/a	REC_WORD	204914	wordpools/wasnorm_wordpool_576.txt	LTP316	ltpFR2	17	1	TUNNEL	1519	n/a	n/a	0	0	0
410.38	n/a	REC_WORD	205190	wordpools/wasnorm_wordpool_576.txt	LTP316	ltpFR2	17	1	YACHT	1629	n/a	n/a	0	0	0
463.136	n/a	WORD	231568	wordpools/wasnorm_wordpool_576.txt	LTP316	ltpFR2	17	2	CONTRACT	368	n/a	n/a	0	0	0
465.72	n/a	WORD	232860	wordpools/wasnorm_wordpool_576.txt	LTP316	ltpFR2	17	2	COOKBOOK	373	n/a	n/a	0	0	0
468.34	n/a	WORD	234170	wordpools/wasnorm_wordpool_576.txt	LTP316	ltpFR2	17	2	BLACKBOARD	133	n/a	n/a	0	0	0
470.808	n/a	WORD	235404	wordpools/wasnorm_wordpool_576.txt	LTP316	ltpFR2	17	2	WHISKERS	1605	n/a	n/a	0	0	0
473.56	n/a	WORD	236780	wordpools/wasnorm_wordpool_576.txt	LTP316	ltpFR2	17	2	BACON	67	n/a	n/a	0	0	0
476.228	n/a	WORD	238114	wordpools/wasnorm_wordpool_576.txt	LTP316	ltpFR2	17	2	SWIMMER	1420	n/a	n/a	0	0	0
478.93	n/a	WORD	239465	wordpools/wasnorm_wordpool_576.txt	LTP316	ltpFR2	17	2	PEBBLE	1035	n/a	n/a	0	0	0
481.416	n/a	WORD	240708	wordpools/wasnorm_wordpool_576.txt	LTP316	ltpFR2	17	2	KEEPER	769	n/a	n/a	0	0	0
483.934	n/a	WORD	241967	wordpools/wasnorm_wordpool_576.txt	LTP316	ltpFR2	17	2	FOREHEAD	592	n/a	n/a	0	0	0
486.62	n/a	WORD	243310	wordpools/wasnorm_wordpool_576.txt	LTP316	ltpFR2	17	2	BLUEPRINT	142	n/a	n/a	0	0	0
489.272	n/a	WORD	244636	wordpools/wasnorm_wordpool_576.txt	LTP316	ltpFR2	17	2	OMELET	976	n/a	n/a	0	0	0
491.774	n/a	WORD	245887	wordpools/wasnorm_wordpool_576.txt	LTP316	ltpFR2	17	2	KITCHEN	778	n/a	n/a	0	0	0
494.476	n/a	WORD	247238	wordpools/wasnorm_wordpool_576.txt	LTP316	ltpFR2	17	2	ACTRESS	6	n/a	n/a	0	0	0
497.28	n/a	WORD	248640	wordpools/wasnorm_wordpool_576.txt	LTP316	ltpFR2	17	2	GLASS	639	n/a	n/a	0	0	0
500.082	n/a	WORD	250041	wordpools/wasnorm_wordpool_576.txt	LTP316	ltpFR2	17	2	CREVICE	405	n/a	n/a	0	0	0
502.734	n/a	WORD	251367	wordpools/wasnorm_wordpool_576.txt	LTP316	ltpFR2	17	2	HOSTESS	723	n/a	n/a	0	0	0
505.37	n/a	WORD	252685	wordpools/wasnorm_wordpool_576.txt	LTP316	ltpFR2	17	2	CRAB	397	n/a	n/a	0	0	0
507.938	n/a	WORD	253969	wordpools/wasnorm_wordpool_576.txt	LTP316	ltpFR2	17	2	FOOTBALL	591	n/a	n/a	0	0	0
510.456	n/a	WORD	255228	wordpools/wasnorm_wordpool_576.txt	LTP316	ltpFR2	17	2	SOFTBALL	1343	n/a	n/a	0	0	0
513.024	n/a	WORD	256512	wordpools/wasnorm_wordpool_576.txt	LTP316	ltpFR2	17	2	HONEY	713	n/a	n/a	0	0	0
515.494	n/a	WORD	257747	wordpools/wasnorm_wordpool_576.txt	LTP316	ltpFR2	17	2	WASP	1593	n/a	n/a	0	0	0
517.978	n/a	WORD	258989	wordpools/wasnorm_wordpool_576.txt	LTP316	ltpFR2	17	2	SERVANT	1271	n/a	n/a	0	0	0
520.414	n/a	WORD	260207	wordpools/wasnorm_wordpool_576.txt	LTP316	ltpFR2	17	2	SURVEY	1414	n/a	n/a	0	0	0
523.182	n/a	WORD	261591	wordpools/wasnorm_wordpool_576.txt	LTP316	ltpFR2	17	2	PORK	1108	n/a	n/a	0	0	0
524.8	n/a	START	262400	n/a	LTP316	ltpFR2	17	n/a	n/a	n/a	2	n/a	n/a	n/a	n/a
525.63	n/a	DISTRACTOR	262815	n/a	LTP316	ltpFR2	17	2	n/a	n/a	n/a	n/a	0	0	0
525.634	n/a	PROB	262817	n/a	LTP316	ltpFR2	17	n/a	n/a	n/a	2	14	6	7	1
527.236	n/a	PROB	263618	n/a	LTP316	ltpFR2	17	n/a	n/a	n/a	2	17	5	3	9
529.172	n/a	PROB	264586	n/a	LTP316	ltpFR2	17	n/a	n/a	n/a	2	7	1	5	1
530.474	n/a	PROB	265237	n/a	LTP316	ltpFR2	17	n/a	n/a	n/a	2	14	3	3	8
531.89	n/a	PROB	265945	n/a	LTP316	ltpFR2	17	n/a	n/a	n/a	2	17	5	6	6
533.892	n/a	PROB	266946	n/a	LTP316	ltpFR2	17	n/a	n/a	n/a	2	21	8	8	5
535.376	n/a	PROB	267688	n/a	LTP316	ltpFR2	17	n/a	n/a	n/a	2	14	7	4	3
536.76	n/a	PROB	268380	n/a	LTP316	ltpFR2	17	n/a	n/a	n/a	2	19	6	9	4
538.562	n/a	PROB	269281	n/a	LTP316	ltpFR2	17	n/a	n/a	n/a	2	12	1	8	3
540.18	n/a	PROB	270090	n/a	LTP316	ltpFR2	17	n/a	n/a	n/a	2	15	6	6	3
541.698	n/a	PROB	270849	n/a	LTP316	ltpFR2	17	n/a	n/a	n/a	2	17	4	5	8
543.282	n/a	PROB	271641	n/a	LTP316	ltpFR2	17	n/a	n/a	n/a	2	16	4	4	8
544.834	n/a	PROB	272417	n/a	LTP316	ltpFR2	17	n/a	n/a	n/a	2	16	5	2	9
546.452	n/a	PROB	273226	n/a	LTP316	ltpFR2	17	n/a	n/a	n/a	2	16	7	6	3
547.824	n/a	STOP	273912	n/a	LTP316	ltpFR2	17	n/a	n/a	n/a	2	n/a	n/a	n/a	n/a
550.588	n/a	REC_START	275294	n/a	LTP316	ltpFR2	17	2	n/a	n/a	n/a	n/a	0	0	0
554.332	n/a	REC_WORD	277166	wordpools/wasnorm_wordpool_576.txt	LTP316	ltpFR2	17	2	PORK	1108	n/a	n/a	0	0	0
554.824	n/a	REC_WORD	277412	wordpools/wasnorm_wordpool_576.txt	LTP316	ltpFR2	17	2	SERVANT	1271	n/a	n/a	0	0	0
555.532	n/a	REC_WORD	277766	wordpools/wasnorm_wordpool_576.txt	LTP316	ltpFR2	17	2	SURVEY	1414	n/a	n/a	0	0	0
565.904	n/a	REC_WORD	282952	wordpools/wasnorm_wordpool_576.txt	LTP316	ltpFR2	17	2	SERVANT	1271	n/a	n/a	0	0	0
566.602	n/a	REC_WORD	283301	wordpools/wasnorm_wordpool_576.txt	LTP316	ltpFR2	17	2	SURVEY	1414	n/a	n/a	0	0	0
567.754	n/a	REC_WORD	283877	wordpools/wasnorm_wordpool_576.txt	LTP316	ltpFR2	17	2	HOSTESS	723	n/a	n/a	0	0	0
568.556	n/a	REC_WORD	284278	wordpools/wasnorm_wordpool_576.txt	LTP316	ltpFR2	17	2	ACTRESS	6	n/a	n/a	0	0	0
569.46	n/a	REC_WORD	284730	wordpools/wasnorm_wordpool_576.txt	LTP316	ltpFR2	17	2	GLASS	639	n/a	n/a	0	0	0
570.176	n/a	REC_WORD	285088	wordpools/wasnorm_wordpool_576.txt	LTP316	ltpFR2	17	2	CREVICE	405	n/a	n/a	0	0	0
571.176	n/a	REC_WORD_VV	285588	wordpools/wasnorm_wordpool_576.txt	LTP316	ltpFR2	17	2	<>	-1	n/a	n/a	0	0	0
600.252	n/a	REC_WORD	300126	wordpools/wasnorm_wordpool_576.txt	LTP316	ltpFR2	17	2	CRAB	397	n/a	n/a	0	0	0
641.242	n/a	WORD	320621	wordpools/wasnorm_wordpool_576.txt	LTP316	ltpFR2	17	3	DUST	508	n/a	n/a	0	0	0
643.812	n/a	WORD	321906	wordpools/wasnorm_wordpool_576.txt	LTP316	ltpFR2	17	3	ARM	38	n/a	n/a	0	0	0
646.464	n/a	WORD	323232	wordpools/wasnorm_wordpool_576.txt	LTP316	ltpFR2	17	3	DOLPHIN	483	n/a	n/a	0	0	0
648.982	n/a	WORD	324491	wordpools/wasnorm_wordpool_576.txt	LTP316	ltpFR2	17	3	COLLEGE	346	n/a	n/a	0	0	0
651.468	n/a	WORD	325734	wordpools/wasnorm_wordpool_576.txt	LTP316	ltpFR2	17	3	COSTUME	383	n/a	n/a	0	0	0
654.186	n/a	WORD	327093	wordpools/wasnorm_wordpool_576.txt	LTP316	ltpFR2	17	3	PRINCE	1124	n/a	n/a	0	0	0
656.754	n/a	WORD	328377	wordpools/wasnorm_wordpool_576.txt	LTP316	ltpFR2	17	3	BACKBONE	66	n/a	n/a	0	0	0
659.324	n/a	WORD	329662	wordpools/wasnorm_wordpool_576.txt	LTP316	ltpFR2	17	3	SHELF	1280	n/a	n/a	0	0	0
662.026	n/a	WORD	331013	wordpools/wasnorm_wordpool_576.txt	LTP316	ltpFR2	17	3	COLONEL	348	n/a	n/a	0	0	0
664.678	n/a	WORD	332339	wordpools/wasnorm_wordpool_576.txt	LTP316	ltpFR2	17	3	GUARD	667	n/a	n/a	0	0	0
667.314	n/a	WORD	333657	wordpools/wasnorm_wordpool_576.txt	LTP316	ltpFR2	17	3	NOVEL	960	n/a	n/a	0	0	0
670.082	n/a	WORD	335041	wordpools/wasnorm_wordpool_576.txt	LTP316	ltpFR2	17	3	BUCKET	184	n/a	n/a	0	0	0
672.602	n/a	WORD	336301	wordpools/wasnorm_wordpool_576.txt	LTP316	ltpFR2	17	3	JUDGE	761	n/a	n/a	0	0	0
675.27	n/a	WORD	337635	wordpools/wasnorm_wordpool_576.txt	LTP316	ltpFR2	17	3	JURY	766	n/a	n/a	0	0	0
678.056	n/a	WORD	339028	wordpools/wasnorm_wordpool_576.txt	LTP316	ltpFR2	17	3	MEDAL	885	n/a	n/a	0	0	0
680.84	n/a	WORD	340420	wordpools/wasnorm_wordpool_576.txt	LTP316	ltpFR2	17	3	NECKLACE	940	n/a	n/a	0	0	0
683.376	n/a	WORD	341688	wordpools/wasnorm_wordpool_576.txt	LTP316	ltpFR2	17	3	ANKLE	24	n/a	n/a	0	0	0
686.012	n/a	WORD	343006	wordpools/wasnorm_wordpool_576.txt	LTP316	ltpFR2	17	3	BLOUSE	139	n/a	n/a	0	0	0
688.78	n/a	WORD	344390	wordpools/wasnorm_wordpool_576.txt	LTP316	ltpFR2	17	3	SEAL	1262	n/a	n/a	0	0	0
691.416	n/a	WORD	345708	wordpools/wasnorm_wordpool_576.txt	LTP316	ltpFR2	17	3	BINDER	127	n/a	n/a	0	0	0
694.218	n/a	WORD	347109	wordpools/wasnorm_wordpool_576.txt	LTP316	ltpFR2	17	3	MUFFIN	929	n/a	n/a	0	0	0
696.686	n/a	WORD	348343	wordpools/wasnorm_wordpool_576.txt	LTP316	ltpFR2	17	3	SHORTS	1293	n/a	n/a	0	0	0
699.44	n/a	WORD	349720	wordpools/wasnorm_wordpool_576.txt	LTP316	ltpFR2	17	3	SHRUB	1299	n/a	n/a	0	0	0
701.974	n/a	WORD	350987	wordpools/wasnorm_wordpool_576.txt	LTP316	ltpFR2	17	3	HORNET	718	n/a	n/a	0	0	0
703.592	n/a	START	351796	n/a	LTP316	ltpFR2	17	n/a	n/a	n/a	3	n/a	n/a	n/a	n/a
704.582	n/a	DISTRACTOR	352291	n/a	LTP316	ltpFR2	17	3	n/a	n/a	n/a	n/a	0	0	0
704.594	n/a	PROB	352297	n/a	LTP316	ltpFR2	17	n/a	n/a	n/a	3	16	4	8	4
706.228	n/a	PROB	353114	n/a	LTP316	ltpFR2	17	n/a	n/a	n/a	3	13	7	2	4
708.58	n/a	PROB	354290	n/a	LTP316	ltpFR2	17	n/a	n/a	n/a	3	23	6	8	9
711.932	n/a	PROB	355966	n/a	LTP316	ltpFR2	17	n/a	n/a	n/a	3	10	3	3	4
713.4	n/a	PROB	356700	n/a	LTP316	ltpFR2	17	n/a	n/a	n/a	3	9	2	4	3
716.354	n/a	PROB	358177	n/a	LTP316	ltpFR2	17	n/a	n/a	n/a	3	13	1	8	4
718.104	n/a	PROB	359052	n/a	LTP316	ltpFR2	17	n/a	n/a	n/a	3	14	8	4	2
719.588	n/a	PROB	359794	n/a	LTP316	ltpFR2	17	n/a	n/a	n/a	3	13	5	5	3
720.822	n/a	PROB	360411	n/a	LTP316	ltpFR2	17	n/a	n/a	n/a	3	19	3	7	9
722.156	n/a	PROB	361078	n/a	LTP316	ltpFR2	17	n/a	n/a	n/a	3	18	4	9	5
723.724	n/a	PROB	361862	n/a	LTP316	ltpFR2	17	n/a	n/a	n/a	3	16	8	7	1
725.092	n/a	PROB	362546	n/a	LTP316	ltpFR2	17	n/a	n/a	n/a	3	17	8	4	5
727.108	n/a	STOP	363554	n/a	LTP316	ltpFR2	17	n/a	n/a	n/a	3	n/a	n/a	n/a	n/a
729.464	n/a	REC_START	364732	n/a	LTP316	ltpFR2	17	3	n/a	n/a	n/a	n/a	0	0	0
733.11	n/a	REC_WORD_VV	366555	wordpools/wasnorm_wordpool_576.txt	LTP316	ltpFR2	17	3	<>	-1	n/a	n/a	0	0	0
734.314	n/a	REC_WORD	367157	wordpools/wasnorm_wordpool_576.txt	LTP316	ltpFR2	17	3	HORNET	718	n/a	n/a	0	0	0
735.366	n/a	REC_WORD	367683	wordpools/wasnorm_wordpool_576.txt	LTP316	ltpFR2	17	3	WASP	1593	n/a	n/a	0	0	0
737.034	n/a	REC_WORD_VV	368517	wordpools/wasnorm_wordpool_576.txt	LTP316	ltpFR2	17	3	<>	-1	n/a	n/a	0	0	0
742.26	n/a	REC_WORD	371130	wordpools/wasnorm_wordpool_576.txt	LTP316	ltpFR2	17	3	DUST	508	n/a	n/a	0	0	0
742.862	n/a	REC_WORD	371431	wordpools/wasnorm_wordpool_576.txt	LTP316	ltpFR2	17	3	ARM	38	n/a	n/a	0	0	0
743.542	n/a	REC_WORD	371771	wordpools/wasnorm_wordpool_576.txt	LTP316	ltpFR2	17	3	DOLPHIN	483	n/a	n/a	0	0	0
745.552	n/a	REC_WORD	372776	wordpools/wasnorm_wordpool_576.txt	LTP316	ltpFR2	17	3	COLLEGE	346	n/a	n/a	0	0	0
747.002	n/a	REC_WORD	373501	wordpools/wasnorm_wordpool_576.txt	LTP316	ltpFR2	17	3	COSTUME	383	n/a	n/a	0	0	0
748.002	n/a	REC_WORD_VV	374001	wordpools/wasnorm_wordpool_576.txt	LTP316	ltpFR2	17	3	<>	-1	n/a	n/a	0	0	0
749.708	n/a	REC_WORD	374854	wordpools/wasnorm_wordpool_576.txt	LTP316	ltpFR2	17	3	COLLEGE	346	n/a	n/a	0	0	0
750.292	n/a	REC_WORD	375146	wordpools/wasnorm_wordpool_576.txt	LTP316	ltpFR2	17	3	COSTUME	383	n/a	n/a	0	0	0
751.308	n/a	REC_WORD	375654	wordpools/wasnorm_wordpool_576.txt	LTP316	ltpFR2	17	3	PRINCE	1124	n/a	n/a	0	0	0
752.308	n/a	REC_WORD_VV	376154	wordpools/wasnorm_wordpool_576.txt	LTP316	ltpFR2	17	3	<>	-1	n/a	n/a	0	0	0
754.142	n/a	REC_WORD	377071	wordpools/wasnorm_wordpool_576.txt	LTP316	ltpFR2	17	3	BACKBONE	66	n/a	n/a	0	0	0
754.872	n/a	REC_WORD	377436	wordpools/wasnorm_wordpool_576.txt	LTP316	ltpFR2	17	3	SHELF	1280	n/a	n/a	0	0	0
756.618	n/a	REC_WORD	378309	wordpools/wasnorm_wordpool_576.txt	LTP316	ltpFR2	17	3	COLONEL	348	n/a	n/a	0	0	0
757.818	n/a	REC_WORD	378909	wordpools/wasnorm_wordpool_576.txt	LTP316	ltpFR2	17	3	GUARD	667	n/a	n/a	0	0	0
758.744	n/a	REC_WORD	379372	wordpools/wasnorm_wordpool_576.txt	LTP316	ltpFR2	17	3	NOVEL	960	n/a	n/a	0	0	0
761.802	n/a	REC_WORD	380901	wordpools/wasnorm_wordpool_576.txt	LTP316	ltpFR2	17	3	MEDAL	885	n/a	n/a	0	0	0
762.432	n/a	REC_WORD	381216	wordpools/wasnorm_wordpool_576.txt	LTP316	ltpFR2	17	3	NECKLACE	940	n/a	n/a	0	0	0
763.28	n/a	REC_WORD	381640	wordpools/wasnorm_wordpool_576.txt	LTP316	ltpFR2	17	3	ANKLE	24	n/a	n/a	0	0	0
766.72	n/a	REC_WORD	383360	wordpools/wasnorm_wordpool_576.txt	LTP316	ltpFR2	17	3	NECKLACE	940	n/a	n/a	0	0	0
766.968	n/a	REC_WORD	383484	wordpools/wasnorm_wordpool_576.txt	LTP316	ltpFR2	17	3	ANKLE	24	n/a	n/a	0	0	0
767.452	n/a	REC_WORD	383726	wordpools/wasnorm_wordpool_576.txt	LTP316	ltpFR2	17	3	JUDGE	761	n/a	n/a	0	0	0
768.044	n/a	REC_WORD	384022	wordpools/wasnorm_wordpool_576.txt	LTP316	ltpFR2	17	3	JURY	766	n/a	n/a	0	0	0
768.732	n/a	REC_WORD	384366	wordpools/wasnorm_wordpool_576.txt	LTP316	ltpFR2	17	3	PAIL	1002	n/a	n/a	0	0	0
769.398	n/a	REC_WORD	384699	wordpools/wasnorm_wordpool_576.txt	LTP316	ltpFR2	17	3	SEAL	1262	n/a	n/a	0	0	0
773.32	n/a	REC_WORD	386660	wordpools/wasnorm_wordpool_576.txt	LTP316	ltpFR2	17	3	NECKLACE	940	n/a	n/a	0	0	0
774.464	n/a	REC_WORD	387232	wordpools/wasnorm_wordpool_576.txt	LTP316	ltpFR2	17	3	ANKLE	24	n/a	n/a	0	0	0
776.444	n/a	REC_WORD_VV	388222	wordpools/wasnorm_wordpool_576.txt	LTP316	ltpFR2	17	3	<>	-1	n/a	n/a	0	0	0
776.876	n/a	REC_WORD	388438	wordpools/wasnorm_wordpool_576.txt	LTP316	ltpFR2	17	3	MUFFIN	929	n/a	n/a	0	0	0
777.53	n/a	REC_WORD	388765	wordpools/wasnorm_wordpool_576.txt	LTP316	ltpFR2	17	3	SHORTS	1293	n/a	n/a	0	0	0
778.21	n/a	REC_WORD	389105	wordpools/wasnorm_wordpool_576.txt	LTP316	ltpFR2	17	3	SHRUB	1299	n/a	n/a	0	0	0
820.118	n/a	DISTRACTOR	410059	n/a	LTP316	ltpFR2	17	4	n/a	n/a	n/a	n/a	0	0	0
820.118	n/a	START	410059	n/a	LTP316	ltpFR2	17	n/a	n/a	n/a	4	n/a	n/a	n/a	n/a
820.15	n/a	PROB	410075	n/a	LTP316	ltpFR2	17	n/a	n/a	n/a	4	14	4	1	9
822.036	n/a	PROB	411018	n/a	LTP316	ltpFR2	17	n/a	n/a	n/a	4	6	1	4	1
823.438	n/a	PROB	411719	n/a	LTP316	ltpFR2	17	n/a	n/a	n/a	4	19	7	5	7
825.906	n/a	PROB	412953	n/a	LTP316	ltpFR2	17	n/a	n/a	n/a	4	12	2	4	6
827.358	n/a	PROB	413679	n/a	LTP316	ltpFR2	17	n/a	n/a	n/a	4	19	7	4	8
828.84	n/a	PROB	414420	n/a	LTP316	ltpFR2	17	n/a	n/a	n/a	4	13	2	6	5
830.226	n/a	PROB	415113	n/a	LTP316	ltpFR2	17	n/a	n/a	n/a	4	4	1	1	2
831.494	n/a	PROB	415747	n/a	LTP316	ltpFR2	17	n/a	n/a	n/a	4	16	9	6	1
832.928	n/a	PROB	416464	n/a	LTP316	ltpFR2	17	n/a	n/a	n/a	4	11	2	4	5
834.398	n/a	PROB	417199	n/a	LTP316	ltpFR2	17	n/a	n/a	n/a	4	13	2	9	2
835.914	n/a	PROB	417957	n/a	LTP316	ltpFR2	17	n/a	n/a	n/a	4	17	9	2	6
839.034	n/a	PROB	419517	n/a	LTP316	ltpFR2	17	n/a	n/a	n/a	4	14	2	7	5
840.75	n/a	PROB	420375	n/a	LTP316	ltpFR2	17	n/a	n/a	n/a	4	21	7	8	6
842.32	n/a	PROB	421160	n/a	LTP316	ltpFR2	17	n/a	n/a	n/a	4	22	9	9	4
843.672	n/a	STOP	421836	n/a	LTP316	ltpFR2	17	n/a	n/a	n/a	4	n/a	n/a	n/a	n/a
845.054	n/a	WORD	422527	wordpools/wasnorm_wordpool_576.txt	LTP316	ltpFR2	17	4	CHEST	295	n/a	n/a	0	0	0
847.656	n/a	WORD	423828	wordpools/wasnorm_wordpool_576.txt	LTP316	ltpFR2	17	4	CHEMIST	292	n/a	n/a	0	0	0
850.492	n/a	WORD	425246	wordpools/wasnorm_wordpool_576.txt	LTP316	ltpFR2	17	4	PLAZA	1088	n/a	n/a	0	0	0
853.312	n/a	WORD	426656	wordpools/wasnorm_wordpool_576.txt	LTP316	ltpFR2	17	4	CRUTCH	417	n/a	n/a	0	0	0
856.03	n/a	WORD	428015	wordpools/wasnorm_wordpool_576.txt	LTP316	ltpFR2	17	4	MAILMAN	858	n/a	n/a	0	0	0
858.582	n/a	WORD	429291	wordpools/wasnorm_wordpool_576.txt	LTP316	ltpFR2	17	4	COBRA	336	n/a	n/a	0	0	0
861.318	n/a	WORD	430659	wordpools/wasnorm_wordpool_576.txt	LTP316	ltpFR2	17	4	MARS	873	n/a	n/a	0	0	0
863.886	n/a	WORD	431943	wordpools/wasnorm_wordpool_576.txt	LTP316	ltpFR2	17	4	GUITAR	670	n/a	n/a	0	0	0
866.522	n/a	WORD	433261	wordpools/wasnorm_wordpool_576.txt	LTP316	ltpFR2	17	4	FEMALE	559	n/a	n/a	0	0	0
869.19	n/a	WORD	434595	wordpools/wasnorm_wordpool_576.txt	LTP316	ltpFR2	17	4	RIFLE	1192	n/a	n/a	0	0	0
871.942	n/a	WORD	435971	wordpools/wasnorm_wordpool_576.txt	LTP316	ltpFR2	17	4	BREAST	171	n/a	n/a	0	0	0
874.562	n/a	WORD	437281	wordpools/wasnorm_wordpool_576.txt	LTP316	ltpFR2	17	4	CRICKET	408	n/a	n/a	0	0	0
877.13	n/a	WORD	438565	wordpools/wasnorm_wordpool_576.txt	LTP316	ltpFR2	17	4	VICTIM	1562	n/a	n/a	0	0	0
879.916	n/a	WORD	439958	wordpools/wasnorm_wordpool_576.txt	LTP316	ltpFR2	17	4	TURNIP	1521	n/a	n/a	0	0	0
882.534	n/a	WORD	441267	wordpools/wasnorm_wordpool_576.txt	LTP316	ltpFR2	17	4	FLOWER	584	n/a	n/a	0	0	0
885.086	n/a	WORD	442543	wordpools/wasnorm_wordpool_576.txt	LTP316	ltpFR2	17	4	WAITRESS	1581	n/a	n/a	0	0	0
887.904	n/a	WORD	443952	wordpools/wasnorm_wordpool_576.txt	LTP316	ltpFR2	17	4	RIVER	1194	n/a	n/a	0	0	0
890.69	n/a	WORD	445345	wordpools/wasnorm_wordpool_576.txt	LTP316	ltpFR2	17	4	BATHTUB	100	n/a	n/a	0	0	0
893.36	n/a	WORD	446680	wordpools/wasnorm_wordpool_576.txt	LTP316	ltpFR2	17	4	ZEBRA	1635	n/a	n/a	0	0	0
896.194	n/a	WORD	448097	wordpools/wasnorm_wordpool_576.txt	LTP316	ltpFR2	17	4	CATTLE	261	n/a	n/a	0	0	0
898.93	n/a	WORD	449465	wordpools/wasnorm_wordpool_576.txt	LTP316	ltpFR2	17	4	TOASTER	1472	n/a	n/a	0	0	0
901.55	n/a	WORD	450775	wordpools/wasnorm_wordpool_576.txt	LTP316	ltpFR2	17	4	CASKET	255	n/a	n/a	0	0	0
904.352	n/a	WORD	452176	wordpools/wasnorm_wordpool_576.txt	LTP316	ltpFR2	17	4	LIZARD	834	n/a	n/a	0	0	0
906.804	n/a	WORD	453402	wordpools/wasnorm_wordpool_576.txt	LTP316	ltpFR2	17	4	GANGSTER	620	n/a	n/a	0	0	0
908.422	n/a	START	454211	n/a	LTP316	ltpFR2	17	n/a	n/a	n/a	5	n/a	n/a	n/a	n/a
909.368	n/a	DISTRACTOR	454684	n/a	LTP316	ltpFR2	17	4	n/a	n/a	n/a	n/a	0	0	0
909.39	n/a	PROB	454695	n/a	LTP316	ltpFR2	17	n/a	n/a	n/a	5	14	6	2	6
912.124	n/a	PROB	456062	n/a	LTP316	ltpFR2	17	n/a	n/a	n/a	5	22	9	4	9
913.792	n/a	PROB	456896	n/a	LTP316	ltpFR2	17	n/a	n/a	n/a	5	16	6	6	4
915.378	n/a	PROB	457689	n/a	LTP316	ltpFR2	17	n/a	n/a	n/a	5	20	6	5	9
917.812	n/a	PROB	458906	n/a	LTP316	ltpFR2	17	n/a	n/a	n/a	5	17	8	1	8
919.664	n/a	PROB	459832	n/a	LTP316	ltpFR2	17	n/a	n/a	n/a	5	17	3	7	7
921.03	n/a	PROB	460515	n/a	LTP316	ltpFR2	17	n/a	n/a	n/a	5	7	3	1	3
922.548	n/a	PROB	461274	n/a	LTP316	ltpFR2	17	n/a	n/a	n/a	5	12	6	5	1
923.9	n/a	PROB	461950	n/a	LTP316	ltpFR2	17	n/a	n/a	n/a	5	14	2	7	5
925.418	n/a	PROB	462709	n/a	LTP316	ltpFR2	17	n/a	n/a	n/a	5	22	9	5	8
927.37	n/a	PROB	463685	n/a	LTP316	ltpFR2	17	n/a	n/a	n/a	5	21	6	6	9
929.104	n/a	PROB	464552	n/a	LTP316	ltpFR2	17	n/a	n/a	n/a	5	12	6	5	1
930.588	n/a	PROB	465294	n/a	LTP316	ltpFR2	17	n/a	n/a	n/a	5	17	5	3	9
932.068	n/a	STOP	466034	n/a	LTP316	ltpFR2	17	n/a	n/a	n/a	5	n/a	n/a	n/a	n/a
934.376	n/a	REC_START	467188	n/a	LTP316	ltpFR2	17	4	n/a	n/a	n/a	n/a	0	0	0
938.308	n/a	REC_WORD	469154	wordpools/wasnorm_wordpool_576.txt	LTP316	ltpFR2	17	4	ZEBRA	1635	n/a	n/a	0	0	0
939.146	n/a	REC_WORD	469573	wordpools/wasnorm_wordpool_576.txt	LTP316	ltpFR2	17	4	CATTLE	261	n/a	n/a	0	0	0
941.26	n/a	REC_WORD	470630	wordpools/wasnorm_wordpool_576.txt	LTP316	ltpFR2	17	4	ZEBRA	1635	n/a	n/a	0	0	0
942.198	n/a	REC_WORD	471099	wordpools/wasnorm_wordpool_576.txt	LTP316	ltpFR2	17	4	CATTLE	261	n/a	n/a	0	0	0
942.868	n/a	REC_WORD	471434	wordpools/wasnorm_wordpool_576.txt	LTP316	ltpFR2	17	4	TOASTER	1472	n/a	n/a	0	0	0
948.398	n/a	REC_WORD	474199	wordpools/wasnorm_wordpool_576.txt	LTP316	ltpFR2	17	4	LIZARD	834	n/a	n/a	0	0	0
962.838	n/a	REC_WORD	481419	wordpools/wasnorm_wordpool_576.txt	LTP316	ltpFR2	17	4	CHEST	295	n/a	n/a	0	0	0
963.898	n/a	REC_WORD	481949	wordpools/wasnorm_wordpool_576.txt	LTP316	ltpFR2	17	4	CHEMIST	292	n/a	n/a	0	0	0
964.898	n/a	REC_WORD_VV	482449	wordpools/wasnorm_wordpool_576.txt	LTP316	ltpFR2	17	4	<>	-1	n/a	n/a	0	0	0
965.926	n/a	REC_WORD	482963	wordpools/wasnorm_wordpool_576.txt	LTP316	ltpFR2	17	4	MAILMAN	858	n/a	n/a	0	0	0
967.112	n/a	REC_WORD	483556	wordpools/wasnorm_wordpool_576.txt	LTP316	ltpFR2	17	4	CRUTCH	417	n/a	n/a	0	0	0
970.46	n/a	REC_WORD	485230	wordpools/wasnorm_wordpool_576.txt	LTP316	ltpFR2	17	4	MARS	873	n/a	n/a	0	0	0
971.46	n/a	REC_WORD_VV	485730	wordpools/wasnorm_wordpool_576.txt	LTP316	ltpFR2	17	4	<>	-1	n/a	n/a	0	0	0
971.672	n/a	REC_WORD	485836	wordpools/wasnorm_wordpool_576.txt	LTP316	ltpFR2	17	4	GUITAR	670	n/a	n/a	0	0	0
972.672	n/a	REC_WORD_VV	486336	wordpools/wasnorm_wordpool_576.txt	LTP316	ltpFR2	17	4	<>	-1	n/a	n/a	0	0	0
973.168	n/a	REC_WORD	486584	wordpools/wasnorm_wordpool_576.txt	LTP316	ltpFR2	17	4	FEMALE	559	n/a	n/a	0	0	0
974.168	n/a	REC_WORD_VV	487084	wordpools/wasnorm_wordpool_576.txt	LTP316	ltpFR2	17	4	<>	-1	n/a	n/a	0	0	0
974.6	n/a	REC_WORD	487300	wordpools/wasnorm_wordpool_576.txt	LTP316	ltpFR2	17	4	RIFLE	1192	n/a	n/a	0	0	0
975.6	n/a	REC_WORD_VV	487800	wordpools/wasnorm_wordpool_576.txt	LTP316	ltpFR2	17	4	<>	-1	n/a	n/a	0	0	0
979.104	n/a	REC_WORD	489552	wordpools/wasnorm_wordpool_576.txt	LTP316	ltpFR2	17	4	RIFLE	1192	n/a	n/a	0	0	0
980.404	n/a	REC_WORD	490202	wordpools/wasnorm_wordpool_576.txt	LTP316	ltpFR2	17	4	TULIP	1517	n/a	n/a	0	0	0
981.404	n/a	REC_WORD_VV	490702	wordpools/wasnorm_wordpool_576.txt	LTP316	ltpFR2	17	4	<>	-1	n/a	n/a	0	0	0
982.56	n/a	REC_WORD	491280	wordpools/wasnorm_wordpool_576.txt	LTP316	ltpFR2	17	4	BLOOM	-1	n/a	n/a	0	0	0
983.686	n/a	REC_WORD_VV	491843	wordpools/wasnorm_wordpool_576.txt	LTP316	ltpFR2	17	4	<>	-1	n/a	n/a	0	0	0
987.724	n/a	REC_WORD_VV	493862	wordpools/wasnorm_wordpool_576.txt	LTP316	ltpFR2	17	4	<>	-1	n/a	n/a	0	0	0
988.724	n/a	REC_WORD_VV	494362	wordpools/wasnorm_wordpool_576.txt	LTP316	ltpFR2	17	4	<>	-1	n/a	n/a	0	0	0
990.95	n/a	REC_WORD	495475	wordpools/wasnorm_wordpool_576.txt	LTP316	ltpFR2	17	4	WAITRESS	1581	n/a	n/a	0	0	0
991.968	n/a	REC_WORD	495984	wordpools/wasnorm_wordpool_576.txt	LTP316	ltpFR2	17	4	RIVER	1194	n/a	n/a	0	0	0
992.748	n/a	REC_WORD	496374	wordpools/wasnorm_wordpool_576.txt	LTP316	ltpFR2	17	4	BATHTUB	100	n/a	n/a	0	0	0
1024.83	n/a	DISTRACTOR	512415	n/a	LTP316	ltpFR2	17	5	n/a	n/a	n/a	n/a	0	0	0
1024.83	n/a	START	512415	n/a	LTP316	ltpFR2	17	n/a	n/a	n/a	6	n/a	n/a	n/a	n/a
1024.846	n/a	PROB	512423	n/a	LTP316	ltpFR2	17	n/a	n/a	n/a	6	13	7	4	2
1026.598	n/a	PROB	513299	n/a	LTP316	ltpFR2	17	n/a	n/a	n/a	6	11	3	1	7
1027.948	n/a	PROB	513974	n/a	LTP316	ltpFR2	17	n/a	n/a	n/a	6	15	3	8	4
1029.934	n/a	PROB	514967	n/a	LTP316	ltpFR2	17	n/a	n/a	n/a	6	14	2	3	9
1031.502	n/a	PROB	515751	n/a	LTP316	ltpFR2	17	n/a	n/a	n/a	6	21	8	5	8
1033.504	n/a	PROB	516752	n/a	LTP316	ltpFR2	17	n/a	n/a	n/a	6	18	4	6	8
1035.038	n/a	PROB	517519	n/a	LTP316	ltpFR2	17	n/a	n/a	n/a	6	15	5	7	3
1036.54	n/a	PROB	518270	n/a	LTP316	ltpFR2	17	n/a	n/a	n/a	6	13	2	4	7
1037.99	n/a	PROB	518995	n/a	LTP316	ltpFR2	17	n/a	n/a	n/a	6	20	9	4	7
1039.908	n/a	PROB	519954	n/a	LTP316	ltpFR2	17	n/a	n/a	n/a	6	17	5	3	9
1041.444	n/a	PROB	520722	n/a	LTP316	ltpFR2	17	n/a	n/a	n/a	6	3	1	1	1
1042.728	n/a	PROB	521364	n/a	LTP316	ltpFR2	17	n/a	n/a	n/a	6	13	9	2	2
1044.43	n/a	PROB	522215	n/a	LTP316	ltpFR2	17	n/a	n/a	n/a	6	18	5	9	4
1046.096	n/a	PROB	523048	n/a	LTP316	ltpFR2	17	n/a	n/a	n/a	6	16	8	2	6
1047.328	n/a	STOP	523664	n/a	LTP316	ltpFR2	17	n/a	n/a	n/a	6	n/a	n/a	n/a	n/a
1049.834	n/a	WORD	524917	wordpools/wasnorm_wordpool_576.txt	LTP316	ltpFR2	17	5	RUST	1219	n/a	n/a	0	0	0
1052.42	n/a	WORD	526210	wordpools/wasnorm_wordpool_576.txt	LTP316	ltpFR2	17	5	DRESSER	496	n/a	n/a	0	0	0
1055.088	n/a	WORD	527544	wordpools/wasnorm_wordpool_576.txt	LTP316	ltpFR2	17	5	TRACTOR	1493	n/a	n/a	0	0	0
1057.722	n/a	WORD	528861	wordpools/wasnorm_wordpool_576.txt	LTP316	ltpFR2	17	5	FLESH	579	n/a	n/a	0	0	0
1060.19	n/a	WORD	530095	wordpools/wasnorm_wordpool_576.txt	LTP316	ltpFR2	17	5	EGYPT	519	n/a	n/a	0	0	0
1062.976	n/a	WORD	531488	wordpools/wasnorm_wordpool_576.txt	LTP316	ltpFR2	17	5	PATROL	1027	n/a	n/a	0	0	0
1065.612	n/a	WORD	532806	wordpools/wasnorm_wordpool_576.txt	LTP316	ltpFR2	17	5	AGENT	10	n/a	n/a	0	0	0
1068.332	n/a	WORD	534166	wordpools/wasnorm_wordpool_576.txt	LTP316	ltpFR2	17	5	EAGLE	512	n/a	n/a	0	0	0
1071.166	n/a	WORD	535583	wordpools/wasnorm_wordpool_576.txt	LTP316	ltpFR2	17	5	MAMMAL	861	n/a	n/a	0	0	0
1073.636	n/a	WORD	536818	wordpools/wasnorm_wordpool_576.txt	LTP316	ltpFR2	17	5	SKETCH	1315	n/a	n/a	0	0	0
1076.154	n/a	WORD	538077	wordpools/wasnorm_wordpool_576.txt	LTP316	ltpFR2	17	5	COUNTRY	388	n/a	n/a	0	0	0
1078.74	n/a	WORD	539370	wordpools/wasnorm_wordpool_576.txt	LTP316	ltpFR2	17	5	SADDLE	1221	n/a	n/a	0	0	0
1081.342	n/a	WORD	540671	wordpools/wasnorm_wordpool_576.txt	LTP316	ltpFR2	17	5	DRILL	497	n/a	n/a	0	0	0
1083.91	n/a	WORD	541955	wordpools/wasnorm_wordpool_576.txt	LTP316	ltpFR2	17	5	JAPAN	749	n/a	n/a	0	0	0
1086.412	n/a	WORD	543206	wordpools/wasnorm_wordpool_576.txt	LTP316	ltpFR2	17	5	SNAIL	1332	n/a	n/a	0	0	0
1088.864	n/a	WORD	544432	wordpools/wasnorm_wordpool_576.txt	LTP316	ltpFR2	17	5	TOURIST	1488	n/a	n/a	0	0	0
1091.532	n/a	WORD	545766	wordpools/wasnorm_wordpool_576.txt	LTP316	ltpFR2	17	5	DONOR	485	n/a	n/a	0	0	0
1094.134	n/a	WORD	547067	wordpools/wasnorm_wordpool_576.txt	LTP316	ltpFR2	17	5	OUTDOORS	987	n/a	n/a	0	0	0
1096.92	n/a	WORD	548460	wordpools/wasnorm_wordpool_576.txt	LTP316	ltpFR2	17	5	TRENCH	1503	n/a	n/a	0	0	0
1099.39	n/a	WORD	549695	wordpools/wasnorm_wordpool_576.txt	LTP316	ltpFR2	17	5	BIKE	125	n/a	n/a	0	0	0
1102.108	n/a	WORD	551054	wordpools/wasnorm_wordpool_576.txt	LTP316	ltpFR2	17	5	HELMET	702	n/a	n/a	0	0	0
1104.844	n/a	WORD	552422	wordpools/wasnorm_wordpool_576.txt	LTP316	ltpFR2	17	5	SCARECROW	1245	n/a	n/a	0	0	0
1107.53	n/a	WORD	553765	wordpools/wasnorm_wordpool_576.txt	LTP316	ltpFR2	17	5	ROBIN	1199	n/a	n/a	0	0	0
1110.348	n/a	WORD	555174	wordpools/wasnorm_wordpool_576.txt	LTP316	ltpFR2	17	5	CRAYON	401	n/a	n/a	0	0	0
1111.966	n/a	START	555983	n/a	LTP316	ltpFR2	17	n/a	n/a	n/a	7	n/a	n/a	n/a	n/a
1112.8	n/a	DISTRACTOR	556400	n/a	LTP316	ltpFR2	17	5	n/a	n/a	n/a	n/a	0	0	0
1112.816	n/a	PROB	556408	n/a	LTP316	ltpFR2	17	n/a	n/a	n/a	7	17	6	7	4
1114.868	n/a	PROB	557434	n/a	LTP316	ltpFR2	17	n/a	n/a	n/a	7	19	8	8	3
1116.286	n/a	PROB	558143	n/a	LTP316	ltpFR2	17	n/a	n/a	n/a	7	8	1	4	3
1118.07	n/a	PROB	559035	n/a	LTP316	ltpFR2	17	n/a	n/a	n/a	7	16	7	4	5
1120.106	n/a	PROB	560053	n/a	LTP316	ltpFR2	17	n/a	n/a	n/a	7	12	3	8	1
1121.458	n/a	PROB	560729	n/a	LTP316	ltpFR2	17	n/a	n/a	n/a	7	11	2	2	7
1122.89	n/a	PROB	561445	n/a	LTP316	ltpFR2	17	n/a	n/a	n/a	7	12	6	5	1
1124.51	n/a	PROB	562255	n/a	LTP316	ltpFR2	17	n/a	n/a	n/a	7	21	8	6	7
1128.862	n/a	PROB	564431	n/a	LTP316	ltpFR2	17	n/a	n/a	n/a	7	21	9	3	9
1130.764	n/a	PROB	565382	n/a	LTP316	ltpFR2	17	n/a	n/a	n/a	7	14	6	5	3
1132.648	n/a	PROB	566324	n/a	LTP316	ltpFR2	17	n/a	n/a	n/a	7	15	5	8	2
1135.966	n/a	STOP	567983	n/a	LTP316	ltpFR2	17	n/a	n/a	n/a	7	n/a	n/a	n/a	n/a
1137.754	n/a	REC_START	568877	n/a	LTP316	ltpFR2	17	5	n/a	n/a	n/a	n/a	0	0	0
1139.454	n/a	REC_WORD	569727	wordpools/wasnorm_wordpool_576.txt	LTP316	ltpFR2	17	5	OUTDOORS	987	n/a	n/a	0	0	0
1140.432	n/a	REC_WORD	570216	wordpools/wasnorm_wordpool_576.txt	LTP316	ltpFR2	17	5	TRENCH	1503	n/a	n/a	0	0	0
1141.342	n/a	REC_WORD	570671	wordpools/wasnorm_wordpool_576.txt	LTP316	ltpFR2	17	5	BIKE	125	n/a	n/a	0	0	0
1142.038	n/a	REC_WORD	571019	wordpools/wasnorm_wordpool_576.txt	LTP316	ltpFR2	17	5	HELMET	702	n/a	n/a	0	0	0
1142.67	n/a	REC_WORD	571335	wordpools/wasnorm_wordpool_576.txt	LTP316	ltpFR2	17	5	SCARECROW	1245	n/a	n/a	0	0	0
1143.67	n/a	REC_WORD_VV	571835	wordpools/wasnorm_wordpool_576.txt	LTP316	ltpFR2	17	5	<>	-1	n/a	n/a	0	0	0
1143.81	n/a	REC_WORD	571905	wordpools/wasnorm_wordpool_576.txt	LTP316	ltpFR2	17	5	CRAYON	401	n/a	n/a	0	0	0
1147.82	n/a	REC_WORD	573910	wordpools/wasnorm_wordpool_576.txt	LTP316	ltpFR2	17	5	DRESSER	496	n/a	n/a	0	0	0
1148.688	n/a	REC_WORD	574344	wordpools/wasnorm_wordpool_576.txt	LTP316	ltpFR2	17	5	RUST	1219	n/a	n/a	0	0	0
1149.27	n/a	REC_WORD	574635	wordpools/wasnorm_wordpool_576.txt	LTP316	ltpFR2	17	5	TRACTOR	1493	n/a	n/a	0	0	0
1150.11	n/a	REC_WORD	575055	wordpools/wasnorm_wordpool_576.txt	LTP316	ltpFR2	17	5	FLESH	579	n/a	n/a	0	0	0
1151.04	n/a	REC_WORD	575520	wordpools/wasnorm_wordpool_576.txt	LTP316	ltpFR2	17	5	EGYPT	519	n/a	n/a	0	0	0
1152.04	n/a	REC_WORD_VV	576020	wordpools/wasnorm_wordpool_576.txt	LTP316	ltpFR2	17	5	<>	-1	n/a	n/a	0	0	0
1152.744	n/a	REC_WORD	576372	wordpools/wasnorm_wordpool_576.txt	LTP316	ltpFR2	17	5	PATROL	1027	n/a	n/a	0	0	0
1153.768	n/a	REC_WORD	576884	wordpools/wasnorm_wordpool_576.txt	LTP316	ltpFR2	17	5	AGENT	10	n/a	n/a	0	0	0
1154.768	n/a	REC_WORD_VV	577384	wordpools/wasnorm_wordpool_576.txt	LTP316	ltpFR2	17	5	<>	-1	n/a	n/a	0	0	0
1161.728	n/a	REC_WORD	580864	wordpools/wasnorm_wordpool_576.txt	LTP316	ltpFR2	17	5	SKETCH	1315	n/a	n/a	0	0	0
1162.552	n/a	REC_WORD	581276	wordpools/wasnorm_wordpool_576.txt	LTP316	ltpFR2	17	5	MAMMAL	861	n/a	n/a	0	0	0
1228.224	n/a	WORD	614112	wordpools/wasnorm_wordpool_576.txt	LTP316	ltpFR2	17	6	OUTLAW	989	n/a	n/a	0	0	0
1230.776	n/a	WORD	615388	wordpools/wasnorm_wordpool_576.txt	LTP316	ltpFR2	17	6	HUMAN	726	n/a	n/a	0	0	0
1233.412	n/a	WORD	616706	wordpools/wasnorm_wordpool_576.txt	LTP316	ltpFR2	17	6	JUGGLER	763	n/a	n/a	0	0	0
1235.948	n/a	WORD	617974	wordpools/wasnorm_wordpool_576.txt	LTP316	ltpFR2	17	6	FRECKLE	602	n/a	n/a	0	0	0
1238.6	n/a	WORD	619300	wordpools/wasnorm_wordpool_576.txt	LTP316	ltpFR2	17	6	SEAFOOD	1260	n/a	n/a	0	0	0
1241.268	n/a	WORD	620634	wordpools/wasnorm_wordpool_576.txt	LTP316	ltpFR2	17	6	CONCERT	360	n/a	n/a	0	0	0
1243.836	n/a	WORD	621918	wordpools/wasnorm_wordpool_576.txt	LTP316	ltpFR2	17	6	CAFE	216	n/a	n/a	0	0	0
1246.59	n/a	WORD	623295	wordpools/wasnorm_wordpool_576.txt	LTP316	ltpFR2	17	6	RATTLE	1170	n/a	n/a	0	0	0
1249.192	n/a	WORD	624596	wordpools/wasnorm_wordpool_576.txt	LTP316	ltpFR2	17	6	BALLOON	75	n/a	n/a	0	0	0
1251.642	n/a	WORD	625821	wordpools/wasnorm_wordpool_576.txt	LTP316	ltpFR2	17	6	COFFEE	341	n/a	n/a	0	0	0
1254.194	n/a	WORD	627097	wordpools/wasnorm_wordpool_576.txt	LTP316	ltpFR2	17	6	SPOON	1357	n/a	n/a	0	0	0
1256.914	n/a	WORD	628457	wordpools/wasnorm_wordpool_576.txt	LTP316	ltpFR2	17	6	MUSTARD	935	n/a	n/a	0	0	0
1259.516	n/a	WORD	629758	wordpools/wasnorm_wordpool_576.txt	LTP316	ltpFR2	17	6	KNAPSACK	783	n/a	n/a	0	0	0
1262.184	n/a	WORD	631092	wordpools/wasnorm_wordpool_576.txt	LTP316	ltpFR2	17	6	MATCH	878	n/a	n/a	0	0	0
1264.67	n/a	WORD	632335	wordpools/wasnorm_wordpool_576.txt	LTP316	ltpFR2	17	6	FLASHLIGHT	575	n/a	n/a	0	0	0
1267.172	n/a	WORD	633586	wordpools/wasnorm_wordpool_576.txt	LTP316	ltpFR2	17	6	PEPPER	1047	n/a	n/a	0	0	0
1269.64	n/a	WORD	634820	wordpools/wasnorm_wordpool_576.txt	LTP316	ltpFR2	17	6	FRIEND	606	n/a	n/a	0	0	0
1272.076	n/a	WORD	636038	wordpools/wasnorm_wordpool_576.txt	LTP316	ltpFR2	17	6	SCARF	1246	n/a	n/a	0	0	0
1274.862	n/a	WORD	637431	wordpools/wasnorm_wordpool_576.txt	LTP316	ltpFR2	17	6	PUDDING	1139	n/a	n/a	0	0	0
1277.464	n/a	WORD	638732	wordpools/wasnorm_wordpool_576.txt	LTP316	ltpFR2	17	6	BOUQUET	157	n/a	n/a	0	0	0
1280.182	n/a	WORD	640091	wordpools/wasnorm_wordpool_576.txt	LTP316	ltpFR2	17	6	ORCHID	982	n/a	n/a	0	0	0
1282.934	n/a	WORD	641467	wordpools/wasnorm_wordpool_576.txt	LTP316	ltpFR2	17	6	CATCHER	258	n/a	n/a	0	0	0
1285.438	n/a	WORD	642719	wordpools/wasnorm_wordpool_576.txt	LTP316	ltpFR2	17	6	UMPIRE	1535	n/a	n/a	0	0	0
1288.088	n/a	WORD	644044	wordpools/wasnorm_wordpool_576.txt	LTP316	ltpFR2	17	6	PARTNER	1017	n/a	n/a	0	0	0
1289.706	n/a	START	644853	n/a	LTP316	ltpFR2	17	n/a	n/a	n/a	8	n/a	n/a	n/a	n/a
1290.61	n/a	DISTRACTOR	645305	n/a	LTP316	ltpFR2	17	6	n/a	n/a	n/a	n/a	0	0	0
1290.64	n/a	PROB	645320	n/a	LTP316	ltpFR2	17	n/a	n/a	n/a	8	21	7	9	5
1292.592	n/a	PROB	646296	n/a	LTP316	ltpFR2	17	n/a	n/a	n/a	8	10	3	3	4
1295.078	n/a	PROB	647539	n/a	LTP316	ltpFR2	17	n/a	n/a	n/a	8	18	4	9	5
1296.812	n/a	PROB	648406	n/a	LTP316	ltpFR2	17	n/a	n/a	n/a	8	18	4	6	8
1298.196	n/a	PROB	649098	n/a	LTP316	ltpFR2	17	n/a	n/a	n/a	8	7	4	2	1
1300.448	n/a	PROB	650224	n/a	LTP316	ltpFR2	17	n/a	n/a	n/a	8	22	8	8	6
1302.284	n/a	PROB	651142	n/a	LTP316	ltpFR2	17	n/a	n/a	n/a	8	18	5	8	5
1303.934	n/a	PROB	651967	n/a	LTP316	ltpFR2	17	n/a	n/a	n/a	8	17	9	5	3
1305.836	n/a	PROB	652918	n/a	LTP316	ltpFR2	17	n/a	n/a	n/a	8	13	4	4	5
1307.488	n/a	PROB	653744	n/a	LTP316	ltpFR2	17	n/a	n/a	n/a	8	15	2	9	4
1309.088	n/a	PROB	654544	n/a	LTP316	ltpFR2	17	n/a	n/a	n/a	8	17	2	7	8
1313.708	n/a	STOP	656854	n/a	LTP316	ltpFR2	17	n/a	n/a	n/a	8	n/a	n/a	n/a	n/a
1315.644	n/a	REC_START	657822	n/a	LTP316	ltpFR2	17	6	n/a	n/a	n/a	n/a	0	0	0
1320.218	n/a	REC_WORD_VV	660109	wordpools/wasnorm_wordpool_576.txt	LTP316	ltpFR2	17	6	<>	-1	n/a	n/a	0	0	0
1321.162	n/a	REC_WORD	660581	wordpools/wasnorm_wordpool_576.txt	LTP316	ltpFR2	17	6	BOUQUET	157	n/a	n/a	0	0	0
1322.038	n/a	REC_WORD	661019	wordpools/wasnorm_wordpool_576.txt	LTP316	ltpFR2	17	6	ORCHID	982	n/a	n/a	0	0	0
1322.966	n/a	REC_WORD	661483	wordpools/wasnorm_wordpool_576.txt	LTP316	ltpFR2	17	6	CATCHER	258	n/a	n/a	0	0	0
1325.018	n/a	REC_WORD	662509	wordpools/wasnorm_wordpool_576.txt	LTP316	ltpFR2	17	6	UMPIRE	1535	n/a	n/a	0	0	0
1326.018	n/a	REC_WORD_VV	663009	wordpools/wasnorm_wordpool_576.txt	LTP316	ltpFR2	17	6	<>	-1	n/a	n/a	0	0	0
1337.406	n/a	REC_WORD	668703	wordpools/wasnorm_wordpool_576.txt	LTP316	ltpFR2	17	6	OUTLAW	989	n/a	n/a	0	0	0
1338.406	n/a	REC_WORD_VV	669203	wordpools/wasnorm_wordpool_576.txt	LTP316	ltpFR2	17	6	<>	-1	n/a	n/a	0	0	0
1338.608	n/a	REC_WORD	669304	wordpools/wasnorm_wordpool_576.txt	LTP316	ltpFR2	17	6	JUGGLER	763	n/a	n/a	0	0	0
1339.64	n/a	REC_WORD	669820	wordpools/wasnorm_wordpool_576.txt	LTP316	ltpFR2	17	6	HUMAN	726	n/a	n/a	0	0	0
1340.64	n/a	REC_WORD_VV	670320	wordpools/wasnorm_wordpool_576.txt	LTP316	ltpFR2	17	6	<>	-1	n/a	n/a	0	0	0
1341.166	n/a	REC_WORD	670583	wordpools/wasnorm_wordpool_576.txt	LTP316	ltpFR2	17	6	FRECKLE	602	n/a	n/a	0	0	0
1342.166	n/a	REC_WORD_VV	671083	wordpools/wasnorm_wordpool_576.txt	LTP316	ltpFR2	17	6	<>	-1	n/a	n/a	0	0	0
1342.272	n/a	REC_WORD	671136	wordpools/wasnorm_wordpool_576.txt	LTP316	ltpFR2	17	6	SEAFOOD	1260	n/a	n/a	0	0	0
1343.272	n/a	REC_WORD_VV	671636	wordpools/wasnorm_wordpool_576.txt	LTP316	ltpFR2	17	6	<>	-1	n/a	n/a	0	0	0
1345.92	n/a	REC_WORD	672960	wordpools/wasnorm_wordpool_576.txt	LTP316	ltpFR2	17	6	COFFEE	341	n/a	n/a	0	0	0
1346.616	n/a	REC_WORD	673308	wordpools/wasnorm_wordpool_576.txt	LTP316	ltpFR2	17	6	KNAPSACK	783	n/a	n/a	0	0	0
1347.364	n/a	REC_WORD	673682	wordpools/wasnorm_wordpool_576.txt	LTP316	ltpFR2	17	6	MATCH	878	n/a	n/a	0	0	0
1353.908	n/a	REC_WORD	676954	wordpools/wasnorm_wordpool_576.txt	LTP316	ltpFR2	17	6	PEANUT BUTTER	-1	n/a	n/a	0	0	0
1357.394	n/a	REC_WORD_VV	678697	wordpools/wasnorm_wordpool_576.txt	LTP316	ltpFR2	17	6	<>	-1	n/a	n/a	0	0	0
1406.244	n/a	DISTRACTOR	703122	n/a	LTP316	ltpFR2	17	7	n/a	n/a	n/a	n/a	0	0	0
1406.244	n/a	START	703122	n/a	LTP316	ltpFR2	17	n/a	n/a	n/a	9	n/a	n/a	n/a	n/a
1406.258	n/a	PROB	703129	n/a	LTP316	ltpFR2	17	n/a	n/a	n/a	9	13	6	2	5
1407.928	n/a	PROB	703964	n/a	LTP316	ltpFR2	17	n/a	n/a	n/a	9	16	1	8	7
1409.612	n/a	PROB	704806	n/a	LTP316	ltpFR2	17	n/a	n/a	n/a	9	19	9	1	9
1411.046	n/a	PROB	705523	n/a	LTP316	ltpFR2	17	n/a	n/a	n/a	9	16	8	5	3
1413.95	n/a	PROB	706975	n/a	LTP316	ltpFR2	17	n/a	n/a	n/a	9	17	7	2	8
1416.108	n/a	PROB	708054	n/a	LTP316	ltpFR2	17	n/a	n/a	n/a	9	7	2	2	3
1418.12	n/a	PROB	709060	n/a	LTP316	ltpFR2	17	n/a	n/a	n/a	9	18	6	7	5
1419.522	n/a	PROB	709761	n/a	LTP316	ltpFR2	17	n/a	n/a	n/a	9	22	7	7	8
1422.44	n/a	PROB	711220	n/a	LTP316	ltpFR2	17	n/a	n/a	n/a	9	24	7	9	8
1426.176	n/a	PROB	713088	n/a	LTP316	ltpFR2	17	n/a	n/a	n/a	9	10	7	1	2
1427.796	n/a	PROB	713898	n/a	LTP316	ltpFR2	17	n/a	n/a	n/a	9	16	6	6	4
1429.226	n/a	STOP	714613	n/a	LTP316	ltpFR2	17	n/a	n/a	n/a	9	n/a	n/a	n/a	n/a
1431.23	n/a	WORD	715615	wordpools/wasnorm_wordpool_576.txt	LTP316	ltpFR2	17	7	TURTLE	1522	n/a	n/a	0	0	0
1433.774	n/a	WORD	716887	wordpools/wasnorm_wordpool_576.txt	LTP316	ltpFR2	17	7	MISSILE	900	n/a	n/a	0	0	0
1436.56	n/a	WORD	718280	wordpools/wasnorm_wordpool_576.txt	LTP316	ltpFR2	17	7	ROCKET	1202	n/a	n/a	0	0	0
1439.112	n/a	WORD	719556	wordpools/wasnorm_wordpool_576.txt	LTP316	ltpFR2	17	7	NOTEBOOK	959	n/a	n/a	0	0	0
1441.742	n/a	WORD	720871	wordpools/wasnorm_wordpool_576.txt	LTP316	ltpFR2	17	7	MARINE	869	n/a	n/a	0	0	0
1444.484	n/a	WORD	722242	wordpools/wasnorm_wordpool_576.txt	LTP316	ltpFR2	17	7	PILOT	1070	n/a	n/a	0	0	0
1447.078	n/a	WORD	723539	wordpools/wasnorm_wordpool_576.txt	LTP316	ltpFR2	17	7	VIKING	1565	n/a	n/a	0	0	0
1449.786	n/a	WORD	724893	wordpools/wasnorm_wordpool_576.txt	LTP316	ltpFR2	17	7	BOYFRIEND	162	n/a	n/a	0	0	0
1452.434	n/a	WORD	726217	wordpools/wasnorm_wordpool_576.txt	LTP316	ltpFR2	17	7	TORTOISE	1486	n/a	n/a	0	0	0
1455.036	n/a	WORD	727518	wordpools/wasnorm_wordpool_576.txt	LTP316	ltpFR2	17	7	BLOCKADE	137	n/a	n/a	0	0	0
1457.638	n/a	WORD	728819	wordpools/wasnorm_wordpool_576.txt	LTP316	ltpFR2	17	7	PUDDLE	1140	n/a	n/a	0	0	0
1460.306	n/a	WORD	730153	wordpools/wasnorm_wordpool_576.txt	LTP316	ltpFR2	17	7	AIRPLANE	12	n/a	n/a	0	0	0
1462.764	n/a	WORD	731382	wordpools/wasnorm_wordpool_576.txt	LTP316	ltpFR2	17	7	PASSAGE	1019	n/a	n/a	0	0	0
1465.466	n/a	WORD	732733	wordpools/wasnorm_wordpool_576.txt	LTP316	ltpFR2	17	7	BUREAU	199	n/a	n/a	0	0	0
1468.068	n/a	WORD	734034	wordpools/wasnorm_wordpool_576.txt	LTP316	ltpFR2	17	7	HARP	689	n/a	n/a	0	0	0
1470.766	n/a	WORD	735383	wordpools/wasnorm_wordpool_576.txt	LTP316	ltpFR2	17	7	CORAL	378	n/a	n/a	0	0	0
1473.402	n/a	WORD	736701	wordpools/wasnorm_wordpool_576.txt	LTP316	ltpFR2	17	7	PICTURE	1061	n/a	n/a	0	0	0
1476.104	n/a	WORD	738052	wordpools/wasnorm_wordpool_576.txt	LTP316	ltpFR2	17	7	PORTRAIT	1111	n/a	n/a	0	0	0
1478.822	n/a	WORD	739411	wordpools/wasnorm_wordpool_576.txt	LTP316	ltpFR2	17	7	TABLE	1426	n/a	n/a	0	0	0
1481.458	n/a	WORD	740729	wordpools/wasnorm_wordpool_576.txt	LTP316	ltpFR2	17	7	SCRIBBLE	1256	n/a	n/a	0	0	0
1483.942	n/a	WORD	741971	wordpools/wasnorm_wordpool_576.txt	LTP316	ltpFR2	17	7	LABEL	790	n/a	n/a	0	0	0
1486.364	n/a	WORD	743182	wordpools/wasnorm_wordpool_576.txt	LTP316	ltpFR2	17	7	BARLEY	88	n/a	n/a	0	0	0
1488.898	n/a	WORD	744449	wordpools/wasnorm_wordpool_576.txt	LTP316	ltpFR2	17	7	GALLON	618	n/a	n/a	0	0	0
1491.67	n/a	WORD	745835	wordpools/wasnorm_wordpool_576.txt	LTP316	ltpFR2	17	7	IDOL	733	n/a	n/a	0	0	0
1493.286	n/a	START	746643	n/a	LTP316	ltpFR2	17	n/a	n/a	n/a	10	n/a	n/a	n/a	n/a
1494.484	n/a	DISTRACTOR	747242	n/a	LTP316	ltpFR2	17	7	n/a	n/a	n/a	n/a	0	0	0
1494.49	n/a	PROB	747245	n/a	LTP316	ltpFR2	17	n/a	n/a	n/a	10	18	9	4	5
1496.97	n/a	PROB	748485	n/a	LTP316	ltpFR2	17	n/a	n/a	n/a	10	20	8	5	7
1499.14	n/a	PROB	749570	n/a	LTP316	ltpFR2	17	n/a	n/a	n/a	10	18	7	9	2
1500.658	n/a	PROB	750329	n/a	LTP316	ltpFR2	17	n/a	n/a	n/a	10	14	4	1	9
1502.492	n/a	PROB	751246	n/a	LTP316	ltpFR2	17	n/a	n/a	n/a	10	21	7	8	6
1504.128	n/a	PROB	752064	n/a	LTP316	ltpFR2	17	n/a	n/a	n/a	10	9	1	7	1
1505.38	n/a	PROB	752690	n/a	LTP316	ltpFR2	17	n/a	n/a	n/a	10	12	3	7	2
1506.73	n/a	PROB	753365	n/a	LTP316	ltpFR2	17	n/a	n/a	n/a	10	14	7	4	3
1508.764	n/a	PROB	754382	n/a	LTP316	ltpFR2	17	n/a	n/a	n/a	10	9	2	6	1
1510.582	n/a	PROB	755291	n/a	LTP316	ltpFR2	17	n/a	n/a	n/a	10	16	2	7	7
1512.768	n/a	PROB	756384	n/a	LTP316	ltpFR2	17	n/a	n/a	n/a	10	12	6	1	5
1514.786	n/a	PROB	757393	n/a	LTP316	ltpFR2	17	n/a	n/a	n/a	10	156	6	6	3
1516.764	n/a	STOP	758382	n/a	LTP316	ltpFR2	17	n/a	n/a	n/a	10	n/a	n/a	n/a	n/a
1519.124	n/a	REC_START	759562	n/a	LTP316	ltpFR2	17	7	n/a	n/a	n/a	n/a	0	0	0
1522.298	n/a	REC_WORD_VV	761149	wordpools/wasnorm_wordpool_576.txt	LTP316	ltpFR2	17	7	<>	-1	n/a	n/a	0	0	0
1523.298	n/a	REC_WORD_VV	761649	wordpools/wasnorm_wordpool_576.txt	LTP316	ltpFR2	17	7	<>	-1	n/a	n/a	0	0	0
1524.122	n/a	REC_WORD_VV	762061	wordpools/wasnorm_wordpool_576.txt	LTP316	ltpFR2	17	7	<>	-1	n/a	n/a	0	0	0
1527.468	n/a	REC_WORD	763734	wordpools/wasnorm_wordpool_576.txt	LTP316	ltpFR2	17	7	PICTURE	1061	n/a	n/a	0	0	0
1528.158	n/a	REC_WORD	764079	wordpools/wasnorm_wordpool_576.txt	LTP316	ltpFR2	17	7	PORTRAIT	1111	n/a	n/a	0	0	0
1528.992	n/a	REC_WORD	764496	wordpools/wasnorm_wordpool_576.txt	LTP316	ltpFR2	17	7	SCRIBBLE	1256	n/a	n/a	0	0	0
1529.91	n/a	REC_WORD	764955	wordpools/wasnorm_wordpool_576.txt	LTP316	ltpFR2	17	7	TABLE	1426	n/a	n/a	0	0	0
1530.852	n/a	REC_WORD	765426	wordpools/wasnorm_wordpool_576.txt	LTP316	ltpFR2	17	7	LABEL	790	n/a	n/a	0	0	0
1539.036	n/a	REC_WORD	769518	wordpools/wasnorm_wordpool_576.txt	LTP316	ltpFR2	17	7	LABEL	790	n/a	n/a	0	0	0
1540.018	n/a	REC_WORD	770009	wordpools/wasnorm_wordpool_576.txt	LTP316	ltpFR2	17	7	TURTLE	1522	n/a	n/a	0	0	0
1540.802	n/a	REC_WORD	770401	wordpools/wasnorm_wordpool_576.txt	LTP316	ltpFR2	17	7	MISSILE	900	n/a	n/a	0	0	0
1541.594	n/a	REC_WORD	770797	wordpools/wasnorm_wordpool_576.txt	LTP316	ltpFR2	17	7	ROCKET	1202	n/a	n/a	0	0	0
1543.326	n/a	REC_WORD	771663	wordpools/wasnorm_wordpool_576.txt	LTP316	ltpFR2	17	7	NOTEBOOK	959	n/a	n/a	0	0	0
1544.12	n/a	REC_WORD	772060	wordpools/wasnorm_wordpool_576.txt	LTP316	ltpFR2	17	7	MARINE	869	n/a	n/a	0	0	0
1544.89	n/a	REC_WORD	772445	wordpools/wasnorm_wordpool_576.txt	LTP316	ltpFR2	17	7	PILOT	1070	n/a	n/a	0	0	0
1545.89	n/a	REC_WORD_VV	772945	wordpools/wasnorm_wordpool_576.txt	LTP316	ltpFR2	17	7	<>	-1	n/a	n/a	0	0	0
1548.02	n/a	REC_WORD	774010	wordpools/wasnorm_wordpool_576.txt	LTP316	ltpFR2	17	7	BOYFRIEND	162	n/a	n/a	0	0	0
1548.828	n/a	REC_WORD	774414	wordpools/wasnorm_wordpool_576.txt	LTP316	ltpFR2	17	7	TORTOISE	1486	n/a	n/a	0	0	0
1549.828	n/a	REC_WORD_VV	774914	wordpools/wasnorm_wordpool_576.txt	LTP316	ltpFR2	17	7	<>	-1	n/a	n/a	0	0	0
1555.052	n/a	REC_WORD_VV	777526	wordpools/wasnorm_wordpool_576.txt	LTP316	ltpFR2	17	7	<>	-1	n/a	n/a	0	0	0
1555.394	n/a	REC_WORD	777697	wordpools/wasnorm_wordpool_576.txt	LTP316	ltpFR2	17	7	TORTOISE	1486	n/a	n/a	0	0	0
1557.326	n/a	REC_WORD	778663	wordpools/wasnorm_wordpool_576.txt	LTP316	ltpFR2	17	7	AIRPLANE	12	n/a	n/a	0	0	0
1558.458	n/a	REC_WORD	779229	wordpools/wasnorm_wordpool_576.txt	LTP316	ltpFR2	17	7	PASSAGE	1019	n/a	n/a	0	0	0
1559.458	n/a	REC_WORD_VV	779729	wordpools/wasnorm_wordpool_576.txt	LTP316	ltpFR2	17	7	<>	-1	n/a	n/a	0	0	0
1636.09	n/a	WORD	818045	wordpools/wasnorm_wordpool_576.txt	LTP316	ltpFR2	17	8	THRONE	1461	n/a	n/a	0	0	0
1638.628	n/a	WORD	819314	wordpools/wasnorm_wordpool_576.txt	LTP316	ltpFR2	17	8	LONDON	843	n/a	n/a	0	0	0
1641.306	n/a	WORD	820653	wordpools/wasnorm_wordpool_576.txt	LTP316	ltpFR2	17	8	SPOOL	1356	n/a	n/a	0	0	0
1644.074	n/a	WORD	822037	wordpools/wasnorm_wordpool_576.txt	LTP316	ltpFR2	17	8	CITRUS	313	n/a	n/a	0	0	0
1646.494	n/a	WORD	823247	wordpools/wasnorm_wordpool_576.txt	LTP316	ltpFR2	17	8	WIFE	1609	n/a	n/a	0	0	0
1649.002	n/a	WORD	824501	wordpools/wasnorm_wordpool_576.txt	LTP316	ltpFR2	17	8	PERFUME	1049	n/a	n/a	0	0	0
1651.696	n/a	WORD	825848	wordpools/wasnorm_wordpool_576.txt	LTP316	ltpFR2	17	8	COUCH	386	n/a	n/a	0	0	0
1654.19	n/a	WORD	827095	wordpools/wasnorm_wordpool_576.txt	LTP316	ltpFR2	17	8	BROOK	177	n/a	n/a	0	0	0
1656.826	n/a	WORD	828413	wordpools/wasnorm_wordpool_576.txt	LTP316	ltpFR2	17	8	SCISSORS	1250	n/a	n/a	0	0	0
1659.396	n/a	WORD	829698	wordpools/wasnorm_wordpool_576.txt	LTP316	ltpFR2	17	8	SALAD	1224	n/a	n/a	0	0	0
1662.188	n/a	WORD	831094	wordpools/wasnorm_wordpool_576.txt	LTP316	ltpFR2	17	8	RADISH	1158	n/a	n/a	0	0	0
1664.75	n/a	WORD	832375	wordpools/wasnorm_wordpool_576.txt	LTP316	ltpFR2	17	8	PACKAGE	997	n/a	n/a	0	0	0
1667.486	n/a	WORD	833743	wordpools/wasnorm_wordpool_576.txt	LTP316	ltpFR2	17	8	GRAVEL	659	n/a	n/a	0	0	0
1669.92	n/a	WORD	834960	wordpools/wasnorm_wordpool_576.txt	LTP316	ltpFR2	17	8	MEAT	883	n/a	n/a	0	0	0
1672.606	n/a	WORD	836303	wordpools/wasnorm_wordpool_576.txt	LTP316	ltpFR2	17	8	BOX	159	n/a	n/a	0	0	0
1675.282	n/a	WORD	837641	wordpools/wasnorm_wordpool_576.txt	LTP316	ltpFR2	17	8	HANDBAG	684	n/a	n/a	0	0	0
1677.95	n/a	WORD	838975	wordpools/wasnorm_wordpool_576.txt	LTP316	ltpFR2	17	8	NURSE	963	n/a	n/a	0	0	0
1680.714	n/a	WORD	840357	wordpools/wasnorm_wordpool_576.txt	LTP316	ltpFR2	17	8	CRIB	407	n/a	n/a	0	0	0
1683.4	n/a	WORD	841700	wordpools/wasnorm_wordpool_576.txt	LTP316	ltpFR2	17	8	ORANGE	980	n/a	n/a	0	0	0
1685.824	n/a	WORD	842912	wordpools/wasnorm_wordpool_576.txt	LTP316	ltpFR2	17	8	CARROT	249	n/a	n/a	0	0	0
1688.558	n/a	WORD	844279	wordpools/wasnorm_wordpool_576.txt	LTP316	ltpFR2	17	8	STALLION	1369	n/a	n/a	0	0	0
1691.322	n/a	WORD	845661	wordpools/wasnorm_wordpool_576.txt	LTP316	ltpFR2	17	8	HIGHWAY	707	n/a	n/a	0	0	0
1694.058	n/a	WORD	847029	wordpools/wasnorm_wordpool_576.txt	LTP316	ltpFR2	17	8	DAUGHTER	442	n/a	n/a	0	0	0
1696.648	n/a	WORD	848324	wordpools/wasnorm_wordpool_576.txt	LTP316	ltpFR2	17	8	MILDEW	893	n/a	n/a	0	0	0
1698.262	n/a	START	849131	n/a	LTP316	ltpFR2	17	n/a	n/a	n/a	11	n/a	n/a	n/a	n/a
1699.306	n/a	DISTRACTOR	849653	n/a	LTP316	ltpFR2	17	8	n/a	n/a	n/a	n/a	0	0	0
1699.312	n/a	PROB	849656	n/a	LTP316	ltpFR2	17	n/a	n/a	n/a	11	18	9	1	8
1702.164	n/a	PROB	851082	n/a	LTP316	ltpFR2	17	n/a	n/a	n/a	11	13	1	3	9
1703.914	n/a	PROB	851957	n/a	LTP316	ltpFR2	17	n/a	n/a	n/a	11	17	9	6	2
1706.15	n/a	PROB	853075	n/a	LTP316	ltpFR2	17	n/a	n/a	n/a	11	13	1	3	9
1707.804	n/a	PROB	853902	n/a	LTP316	ltpFR2	17	n/a	n/a	n/a	11	17	6	5	6
1709.904	n/a	PROB	854952	n/a	LTP316	ltpFR2	17	n/a	n/a	n/a	11	18	9	4	5
1712.79	n/a	PROB	856395	n/a	LTP316	ltpFR2	17	n/a	n/a	n/a	11	11	4	1	6
1714.36	n/a	PROB	857180	n/a	LTP316	ltpFR2	17	n/a	n/a	n/a	11	14	9	3	2
1716.008	n/a	PROB	858004	n/a	LTP316	ltpFR2	17	n/a	n/a	n/a	11	20	5	7	8
1717.812	n/a	PROB	858906	n/a	LTP316	ltpFR2	17	n/a	n/a	n/a	11	10	2	5	3
1722.262	n/a	STOP	861131	n/a	LTP316	ltpFR2	17	n/a	n/a	n/a	11	n/a	n/a	n/a	n/a
1724.1	n/a	REC_START	862050	n/a	LTP316	ltpFR2	17	8	n/a	n/a	n/a	n/a	0	0	0
1727.33	n/a	REC_WORD	863665	wordpools/wasnorm_wordpool_576.txt	LTP316	ltpFR2	17	8	MILDEW	893	n/a	n/a	0	0	0
1730.224	n/a	REC_WORD_VV	865112	wordpools/wasnorm_wordpool_576.txt	LTP316	ltpFR2	17	8	<>	-1	n/a	n/a	0	0	0
1731.388	n/a	REC_WORD	865694	wordpools/wasnorm_wordpool_576.txt	LTP316	ltpFR2	17	8	LONDON	843	n/a	n/a	0	0	0
1732.716	n/a	REC_WORD	866358	wordpools/wasnorm_wordpool_576.txt	LTP316	ltpFR2	17	8	THRONE	1461	n/a	n/a	0	0	0
1733.838	n/a	REC_WORD	866919	wordpools/wasnorm_wordpool_576.txt	LTP316	ltpFR2	17	8	WIFE	1609	n/a	n/a	0	0	0
1734.93	n/a	REC_WORD	867465	wordpools/wasnorm_wordpool_576.txt	LTP316	ltpFR2	17	8	PERFUME	1049	n/a	n/a	0	0	0
1735.842	n/a	REC_WORD	867921	wordpools/wasnorm_wordpool_576.txt	LTP316	ltpFR2	17	8	SPOOL	1356	n/a	n/a	0	0	0
1736.776	n/a	REC_WORD	868388	wordpools/wasnorm_wordpool_576.txt	LTP316	ltpFR2	17	8	ORANGE	980	n/a	n/a	0	0	0
1739.63	n/a	REC_WORD	869815	wordpools/wasnorm_wordpool_576.txt	LTP316	ltpFR2	17	8	CRIB	407	n/a	n/a	0	0	0
1740.246	n/a	REC_WORD	870123	wordpools/wasnorm_wordpool_576.txt	LTP316	ltpFR2	17	8	NURSE	963	n/a	n/a	0	0	0
1749.332	n/a	REC_WORD_VV	874666	wordpools/wasnorm_wordpool_576.txt	LTP316	ltpFR2	17	8	<>	-1	n/a	n/a	0	0	0
1751.09	n/a	REC_WORD	875545	wordpools/wasnorm_wordpool_576.txt	LTP316	ltpFR2	17	8	STALLION	1369	n/a	n/a	0	0	0
1752.176	n/a	REC_WORD	876088	wordpools/wasnorm_wordpool_576.txt	LTP316	ltpFR2	17	8	HIGHWAY	707	n/a	n/a	0	0	0
1753.176	n/a	REC_WORD_VV	876588	wordpools/wasnorm_wordpool_576.txt	LTP316	ltpFR2	17	8	<>	-1	n/a	n/a	0	0	0
1756.78	n/a	REC_WORD	878390	wordpools/wasnorm_wordpool_576.txt	LTP316	ltpFR2	17	8	PACKAGE	997	n/a	n/a	0	0	0
1759.324	n/a	REC_WORD_VV	879662	wordpools/wasnorm_wordpool_576.txt	LTP316	ltpFR2	17	8	<>	-1	n/a	n/a	0	0	0
1762.098	n/a	REC_WORD	881049	wordpools/wasnorm_wordpool_576.txt	LTP316	ltpFR2	17	8	BROTHER	179	n/a	n/a	0	0	0
1763.804	n/a	REC_WORD_VV	881902	wordpools/wasnorm_wordpool_576.txt	LTP316	ltpFR2	17	8	<>	-1	n/a	n/a	0	0	0
1765.602	n/a	REC_WORD	882801	wordpools/wasnorm_wordpool_576.txt	LTP316	ltpFR2	17	8	MEAT	883	n/a	n/a	0	0	0
1766.548	n/a	REC_WORD	883274	wordpools/wasnorm_wordpool_576.txt	LTP316	ltpFR2	17	8	BOX	159	n/a	n/a	0	0	0
1767.694	n/a	REC_WORD	883847	wordpools/wasnorm_wordpool_576.txt	LTP316	ltpFR2	17	8	HANDBAG	684	n/a	n/a	0	0	0
1768.694	n/a	REC_WORD_VV	884347	wordpools/wasnorm_wordpool_576.txt	LTP316	ltpFR2	17	8	<>	-1	n/a	n/a	0	0	0
1800.646	n/a	REST_REWET	900323	n/a	LTP316	ltpFR2	17	8	n/a	n/a	n/a	n/a	0	0	0
2232.188	n/a	DISTRACTOR	1116094	n/a	LTP316	ltpFR2	17	9	n/a	n/a	n/a	n/a	0	0	0
2232.188	n/a	START	1116094	n/a	LTP316	ltpFR2	17	n/a	n/a	n/a	12	n/a	n/a	n/a	n/a
2232.204	n/a	PROB	1116102	n/a	LTP316	ltpFR2	17	n/a	n/a	n/a	12	22	4	9	9
2234.154	n/a	PROB	1117077	n/a	LTP316	ltpFR2	17	n/a	n/a	n/a	12	9	1	5	3
2236.606	n/a	PROB	1118303	n/a	LTP316	ltpFR2	17	n/a	n/a	n/a	12	18	4	9	5
2238.876	n/a	PROB	1119438	n/a	LTP316	ltpFR2	17	n/a	n/a	n/a	12	15	7	6	2
2240.444	n/a	PROB	1120222	n/a	LTP316	ltpFR2	17	n/a	n/a	n/a	12	14	7	5	2
2241.83	n/a	PROB	1120915	n/a	LTP316	ltpFR2	17	n/a	n/a	n/a	12	18	5	9	4
2243.366	n/a	PROB	1121683	n/a	LTP316	ltpFR2	17	n/a	n/a	n/a	12	10	1	8	1
2244.682	n/a	PROB	1122341	n/a	LTP316	ltpFR2	17	n/a	n/a	n/a	12	23	6	8	9
2246.316	n/a	PROB	1123158	n/a	LTP316	ltpFR2	17	n/a	n/a	n/a	12	25	8	8	9
2248.284	n/a	PROB	1124142	n/a	LTP316	ltpFR2	17	n/a	n/a	n/a	12	17	8	8	1
2250.22	n/a	PROB	1125110	n/a	LTP316	ltpFR2	17	n/a	n/a	n/a	12	22	5	8	9
2252.204	n/a	PROB	1126102	n/a	LTP316	ltpFR2	17	n/a	n/a	n/a	12	14	8	4	2
2254.056	n/a	PROB	1127028	n/a	LTP316	ltpFR2	17	n/a	n/a	n/a	12	27	9	9	9
2255.994	n/a	STOP	1127997	n/a	LTP316	ltpFR2	17	n/a	n/a	n/a	12	n/a	n/a	n/a	n/a
2257.126	n/a	WORD	1128563	wordpools/wasnorm_wordpool_576.txt	LTP316	ltpFR2	17	9	POWDER	1117	n/a	n/a	0	0	0
2259.828	n/a	WORD	1129914	wordpools/wasnorm_wordpool_576.txt	LTP316	ltpFR2	17	9	GARDEN	623	n/a	n/a	0	0	0
2262.464	n/a	WORD	1131232	wordpools/wasnorm_wordpool_576.txt	LTP316	ltpFR2	17	9	YARN	1631	n/a	n/a	0	0	0
2265.116	n/a	WORD	1132558	wordpools/wasnorm_wordpool_576.txt	LTP316	ltpFR2	17	9	COCKTAIL	338	n/a	n/a	0	0	0
2267.868	n/a	WORD	1133934	wordpools/wasnorm_wordpool_576.txt	LTP316	ltpFR2	17	9	CHAMPAGNE	278	n/a	n/a	0	0	0
2270.504	n/a	WORD	1135252	wordpools/wasnorm_wordpool_576.txt	LTP316	ltpFR2	17	9	PEDAL	1037	n/a	n/a	0	0	0
2273.138	n/a	WORD	1136569	wordpools/wasnorm_wordpool_576.txt	LTP316	ltpFR2	17	9	RAFT	1159	n/a	n/a	0	0	0
2275.608	n/a	WORD	1137804	wordpools/wasnorm_wordpool_576.txt	LTP316	ltpFR2	17	9	COIN	343	n/a	n/a	0	0	0
2278.41	n/a	WORD	1139205	wordpools/wasnorm_wordpool_576.txt	LTP316	ltpFR2	17	9	ITEM	746	n/a	n/a	0	0	0
2280.88	n/a	WORD	1140440	wordpools/wasnorm_wordpool_576.txt	LTP316	ltpFR2	17	9	CLOUD	328	n/a	n/a	0	0	0
2283.68	n/a	WORD	1141840	wordpools/wasnorm_wordpool_576.txt	LTP316	ltpFR2	17	9	SMOG	1330	n/a	n/a	0	0	0
2286.332	n/a	WORD	1143166	wordpools/wasnorm_wordpool_576.txt	LTP316	ltpFR2	17	9	LIPSTICK	829	n/a	n/a	0	0	0
2288.902	n/a	WORD	1144451	wordpools/wasnorm_wordpool_576.txt	LTP316	ltpFR2	17	9	CLIMBER	323	n/a	n/a	0	0	0
2291.354	n/a	WORD	1145677	wordpools/wasnorm_wordpool_576.txt	LTP316	ltpFR2	17	9	SLUG	1329	n/a	n/a	0	0	0
2293.974	n/a	WORD	1146987	wordpools/wasnorm_wordpool_576.txt	LTP316	ltpFR2	17	9	DIVER	476	n/a	n/a	0	0	0
2296.424	n/a	WORD	1148212	wordpools/wasnorm_wordpool_576.txt	LTP316	ltpFR2	17	9	PECAN	1036	n/a	n/a	0	0	0
2299.226	n/a	WORD	1149613	wordpools/wasnorm_wordpool_576.txt	LTP316	ltpFR2	17	9	DRAGON	492	n/a	n/a	0	0	0
2301.928	n/a	WORD	1150964	wordpools/wasnorm_wordpool_576.txt	LTP316	ltpFR2	17	9	BANJO	82	n/a	n/a	0	0	0
2304.63	n/a	WORD	1152315	wordpools/wasnorm_wordpool_576.txt	LTP316	ltpFR2	17	9	LAVA	804	n/a	n/a	0	0	0
2307.232	n/a	WORD	1153616	wordpools/wasnorm_wordpool_576.txt	LTP316	ltpFR2	17	9	REBEL	1172	n/a	n/a	0	0	0
2309.684	n/a	WORD	1154842	wordpools/wasnorm_wordpool_576.txt	LTP316	ltpFR2	17	9	MARSH	874	n/a	n/a	0	0	0
2312.174	n/a	WORD	1156087	wordpools/wasnorm_wordpool_576.txt	LTP316	ltpFR2	17	9	CAMEL	223	n/a	n/a	0	0	0
2314.844	n/a	WORD	1157422	wordpools/wasnorm_wordpool_576.txt	LTP316	ltpFR2	17	9	GRAVE	658	n/a	n/a	0	0	0
2317.458	n/a	WORD	1158729	wordpools/wasnorm_wordpool_576.txt	LTP316	ltpFR2	17	9	BRAKE	166	n/a	n/a	0	0	0
2319.064	n/a	START	1159532	n/a	LTP316	ltpFR2	17	n/a	n/a	n/a	13	n/a	n/a	n/a	n/a
2320.016	n/a	DISTRACTOR	1160008	n/a	LTP316	ltpFR2	17	9	n/a	n/a	n/a	n/a	0	0	0
2320.026	n/a	PROB	1160013	n/a	LTP316	ltpFR2	17	n/a	n/a	n/a	13	24	9	6	9
2322.132	n/a	PROB	1161066	n/a	LTP316	ltpFR2	17	n/a	n/a	n/a	13	10	2	5	3
2324.65	n/a	PROB	1162325	n/a	LTP316	ltpFR2	17	n/a	n/a	n/a	13	17	1	9	7
2326.386	n/a	PROB	1163193	n/a	LTP316	ltpFR2	17	n/a	n/a	n/a	13	14	9	2	3
2328.572	n/a	PROB	1164286	n/a	LTP316	ltpFR2	17	n/a	n/a	n/a	13	26	9	9	8
2330.254	n/a	PROB	1165127	n/a	LTP316	ltpFR2	17	n/a	n/a	n/a	13	19	5	5	9
2331.706	n/a	PROB	1165853	n/a	LTP316	ltpFR2	17	n/a	n/a	n/a	13	19	5	9	5
2333.81	n/a	PROB	1166905	n/a	LTP316	ltpFR2	17	n/a	n/a	n/a	13	16	1	7	8
2335.444	n/a	PROB	1167722	n/a	LTP316	ltpFR2	17	n/a	n/a	n/a	13	9	5	1	3
2337.11	n/a	PROB	1168555	n/a	LTP316	ltpFR2	17	n/a	n/a	n/a	13	14	3	9	2
2338.612	n/a	PROB	1169306	n/a	LTP316	ltpFR2	17	n/a	n/a	n/a	13	17	6	4	7
2340.13	n/a	PROB	1170065	n/a	LTP316	ltpFR2	17	n/a	n/a	n/a	13	17	7	1	9
2341.924	n/a	STOP	1170962	n/a	LTP316	ltpFR2	17	n/a	n/a	n/a	13	n/a	n/a	n/a	n/a
2344.868	n/a	REC_START	1172434	n/a	LTP316	ltpFR2	17	9	n/a	n/a	n/a	n/a	0	0	0
2347.46	n/a	REC_WORD	1173730	wordpools/wasnorm_wordpool_576.txt	LTP316	ltpFR2	17	9	LAVA	804	n/a	n/a	0	0	0
2348.062	n/a	REC_WORD	1174031	wordpools/wasnorm_wordpool_576.txt	LTP316	ltpFR2	17	9	MARSH	874	n/a	n/a	0	0	0
2348.632	n/a	REC_WORD	1174316	wordpools/wasnorm_wordpool_576.txt	LTP316	ltpFR2	17	9	DRAGON	492	n/a	n/a	0	0	0
2349.274	n/a	REC_WORD	1174637	wordpools/wasnorm_wordpool_576.txt	LTP316	ltpFR2	17	9	BANJO	82	n/a	n/a	0	0	0
2356.712	n/a	REC_WORD	1178356	wordpools/wasnorm_wordpool_576.txt	LTP316	ltpFR2	17	9	POWDER	1117	n/a	n/a	0	0	0
2357.48	n/a	REC_WORD	1178740	wordpools/wasnorm_wordpool_576.txt	LTP316	ltpFR2	17	9	GARDEN	623	n/a	n/a	0	0	0
2435.312	n/a	WORD	1217656	wordpools/wasnorm_wordpool_576.txt	LTP316	ltpFR2	17	10	SPACE	1345	n/a	n/a	0	0	0
2437.916	n/a	WORD	1218958	wordpools/wasnorm_wordpool_576.txt	LTP316	ltpFR2	17	10	ROBOT	1200	n/a	n/a	0	0	0
2440.7	n/a	WORD	1220350	wordpools/wasnorm_wordpool_576.txt	LTP316	ltpFR2	17	10	CELLAR	267	n/a	n/a	0	0	0
2443.374	n/a	WORD	1221687	wordpools/wasnorm_wordpool_576.txt	LTP316	ltpFR2	17	10	ATLAS	53	n/a	n/a	0	0	0
2445.94	n/a	WORD	1222970	wordpools/wasnorm_wordpool_576.txt	LTP316	ltpFR2	17	10	BEAKER	104	n/a	n/a	0	0	0
2448.496	n/a	WORD	1224248	wordpools/wasnorm_wordpool_576.txt	LTP316	ltpFR2	17	10	MUMMY	932	n/a	n/a	0	0	0
2451.06	n/a	WORD	1225530	wordpools/wasnorm_wordpool_576.txt	LTP316	ltpFR2	17	10	HAND	683	n/a	n/a	0	0	0
2453.596	n/a	WORD	1226798	wordpools/wasnorm_wordpool_576.txt	LTP316	ltpFR2	17	10	GLOVE	642	n/a	n/a	0	0	0
2456.348	n/a	WORD	1228174	wordpools/wasnorm_wordpool_576.txt	LTP316	ltpFR2	17	10	SODA	1341	n/a	n/a	0	0	0
2458.934	n/a	WORD	1229467	wordpools/wasnorm_wordpool_576.txt	LTP316	ltpFR2	17	10	CARRIAGE	248	n/a	n/a	0	0	0
2461.62	n/a	WORD	1230810	wordpools/wasnorm_wordpool_576.txt	LTP316	ltpFR2	17	10	FLUTE	585	n/a	n/a	0	0	0
2464.44	n/a	WORD	1232220	wordpools/wasnorm_wordpool_576.txt	LTP316	ltpFR2	17	10	JOURNAL	760	n/a	n/a	0	0	0
2466.99	n/a	WORD	1233495	wordpools/wasnorm_wordpool_576.txt	LTP316	ltpFR2	17	10	MESSAGE	888	n/a	n/a	0	0	0
2469.426	n/a	WORD	1234713	wordpools/wasnorm_wordpool_576.txt	LTP316	ltpFR2	17	10	SUNSET	1408	n/a	n/a	0	0	0
2471.994	n/a	WORD	1235997	wordpools/wasnorm_wordpool_576.txt	LTP316	ltpFR2	17	10	KNIFE	785	n/a	n/a	0	0	0
2474.63	n/a	WORD	1237315	wordpools/wasnorm_wordpool_576.txt	LTP316	ltpFR2	17	10	SCALPEL	1243	n/a	n/a	0	0	0
2477.216	n/a	WORD	1238608	wordpools/wasnorm_wordpool_576.txt	LTP316	ltpFR2	17	10	REPORT	1184	n/a	n/a	0	0	0
2480.02	n/a	WORD	1240010	wordpools/wasnorm_wordpool_576.txt	LTP316	ltpFR2	17	10	FIDDLE	561	n/a	n/a	0	0	0
2482.638	n/a	WORD	1241319	wordpools/wasnorm_wordpool_576.txt	LTP316	ltpFR2	17	10	VENUS	1557	n/a	n/a	0	0	0
2485.14	n/a	WORD	1242570	wordpools/wasnorm_wordpool_576.txt	LTP316	ltpFR2	17	10	PADDLE	1000	n/a	n/a	0	0	0
2487.608	n/a	WORD	1243804	wordpools/wasnorm_wordpool_576.txt	LTP316	ltpFR2	17	10	COWBOY	395	n/a	n/a	0	0	0
2490.078	n/a	WORD	1245039	wordpools/wasnorm_wordpool_576.txt	LTP316	ltpFR2	17	10	LOFT	840	n/a	n/a	0	0	0
2492.53	n/a	WORD	1246265	wordpools/wasnorm_wordpool_576.txt	LTP316	ltpFR2	17	10	TOMBSTONE	1478	n/a	n/a	0	0	0
2495.332	n/a	WORD	1247666	wordpools/wasnorm_wordpool_576.txt	LTP316	ltpFR2	17	10	FIREPLACE	570	n/a	n/a	0	0	0
2496.95	n/a	START	1248475	n/a	LTP316	ltpFR2	17	n/a	n/a	n/a	14	n/a	n/a	n/a	n/a
2498.088	n/a	DISTRACTOR	1249044	n/a	LTP316	ltpFR2	17	10	n/a	n/a	n/a	n/a	0	0	0
2498.1	n/a	PROB	1249050	n/a	LTP316	ltpFR2	17	n/a	n/a	n/a	14	14	6	6	2
2499.618	n/a	PROB	1249809	n/a	LTP316	ltpFR2	17	n/a	n/a	n/a	14	14	2	4	8
2501.404	n/a	PROB	1250702	n/a	LTP316	ltpFR2	17	n/a	n/a	n/a	14	8	4	1	3
2505.056	n/a	PROB	1252528	n/a	LTP316	ltpFR2	17	n/a	n/a	n/a	14	9	5	3	1
2506.892	n/a	PROB	1253446	n/a	LTP316	ltpFR2	17	n/a	n/a	n/a	14	21	3	9	9
2509.042	n/a	PROB	1254521	n/a	LTP316	ltpFR2	17	n/a	n/a	n/a	14	8	5	2	1
2510.696	n/a	PROB	1255348	n/a	LTP316	ltpFR2	17	n/a	n/a	n/a	14	9	6	2	1
2512.366	n/a	PROB	1256183	n/a	LTP316	ltpFR2	17	n/a	n/a	n/a	14	16	7	8	1
2513.846	n/a	PROB	1256923	n/a	LTP316	ltpFR2	17	n/a	n/a	n/a	14	18	3	9	6
2515.78	n/a	PROB	1257890	n/a	LTP316	ltpFR2	17	n/a	n/a	n/a	14	14	2	7	5
2517.532	n/a	PROB	1258766	n/a	LTP316	ltpFR2	17	n/a	n/a	n/a	14	13	5	5	3
2518.918	n/a	PROB	1259459	n/a	LTP316	ltpFR2	17	n/a	n/a	n/a	14	19	4	8	7
2520.57	n/a	STOP	1260285	n/a	LTP316	ltpFR2	17	n/a	n/a	n/a	14	n/a	n/a	n/a	n/a
2522.872	n/a	REC_START	1261436	n/a	LTP316	ltpFR2	17	10	n/a	n/a	n/a	n/a	0	0	0
2524.334	n/a	REC_WORD_VV	1262167	wordpools/wasnorm_wordpool_576.txt	LTP316	ltpFR2	17	10	<>	-1	n/a	n/a	0	0	0
2525.268	n/a	REC_WORD	1262634	wordpools/wasnorm_wordpool_576.txt	LTP316	ltpFR2	17	10	COWBOY	395	n/a	n/a	0	0	0
2526.268	n/a	REC_WORD_VV	1263134	wordpools/wasnorm_wordpool_576.txt	LTP316	ltpFR2	17	10	<>	-1	n/a	n/a	0	0	0
2530.458	n/a	REC_WORD_VV	1265229	wordpools/wasnorm_wordpool_576.txt	LTP316	ltpFR2	17	10	<>	-1	n/a	n/a	0	0	0
2531.938	n/a	REC_WORD	1265969	wordpools/wasnorm_wordpool_576.txt	LTP316	ltpFR2	17	10	SPACE	1345	n/a	n/a	0	0	0
2532.974	n/a	REC_WORD	1266487	wordpools/wasnorm_wordpool_576.txt	LTP316	ltpFR2	17	10	ROBOT	1200	n/a	n/a	0	0	0
2533.956	n/a	REC_WORD	1266978	wordpools/wasnorm_wordpool_576.txt	LTP316	ltpFR2	17	10	CELLAR	267	n/a	n/a	0	0	0
2534.956	n/a	REC_WORD_VV	1267478	wordpools/wasnorm_wordpool_576.txt	LTP316	ltpFR2	17	10	<>	-1	n/a	n/a	0	0	0
2536.144	n/a	REC_WORD	1268072	wordpools/wasnorm_wordpool_576.txt	LTP316	ltpFR2	17	10	ATLAS	53	n/a	n/a	0	0	0
2537.238	n/a	REC_WORD	1268619	wordpools/wasnorm_wordpool_576.txt	LTP316	ltpFR2	17	10	BEAKER	104	n/a	n/a	0	0	0
2538.276	n/a	REC_WORD	1269138	wordpools/wasnorm_wordpool_576.txt	LTP316	ltpFR2	17	10	MUMMY	932	n/a	n/a	0	0	0
2539.11	n/a	REC_WORD	1269555	wordpools/wasnorm_wordpool_576.txt	LTP316	ltpFR2	17	10	HAND	683	n/a	n/a	0	0	0
2540.11	n/a	REC_WORD_VV	1270055	wordpools/wasnorm_wordpool_576.txt	LTP316	ltpFR2	17	10	<>	-1	n/a	n/a	0	0	0
2540.224	n/a	REC_WORD	1270112	wordpools/wasnorm_wordpool_576.txt	LTP316	ltpFR2	17	10	GLOVE	642	n/a	n/a	0	0	0
2541.192	n/a	REC_WORD	1270596	wordpools/wasnorm_wordpool_576.txt	LTP316	ltpFR2	17	10	SODA	1341	n/a	n/a	0	0	0
2542.192	n/a	REC_WORD_VV	1271096	wordpools/wasnorm_wordpool_576.txt	LTP316	ltpFR2	17	10	<>	-1	n/a	n/a	0	0	0
2542.372	n/a	REC_WORD	1271186	wordpools/wasnorm_wordpool_576.txt	LTP316	ltpFR2	17	10	CARRIAGE	248	n/a	n/a	0	0	0
2543.372	n/a	REC_WORD_VV	1271686	wordpools/wasnorm_wordpool_576.txt	LTP316	ltpFR2	17	10	<>	-1	n/a	n/a	0	0	0
2544.804	n/a	REC_WORD	1272402	wordpools/wasnorm_wordpool_576.txt	LTP316	ltpFR2	17	10	FLUTE	585	n/a	n/a	0	0	0
2545.892	n/a	REC_WORD	1272946	wordpools/wasnorm_wordpool_576.txt	LTP316	ltpFR2	17	10	JOURNAL	760	n/a	n/a	0	0	0
2546.892	n/a	REC_WORD_VV	1273446	wordpools/wasnorm_wordpool_576.txt	LTP316	ltpFR2	17	10	<>	-1	n/a	n/a	0	0	0
2548.294	n/a	REC_WORD_VV	1274147	wordpools/wasnorm_wordpool_576.txt	LTP316	ltpFR2	17	10	<>	-1	n/a	n/a	0	0	0
2549.294	n/a	REC_WORD	1274647	wordpools/wasnorm_wordpool_576.txt	LTP316	ltpFR2	17	10	KNIFE	785	n/a	n/a	0	0	0
2551.656	n/a	REC_WORD	1275828	wordpools/wasnorm_wordpool_576.txt	LTP316	ltpFR2	17	10	BLADE	134	n/a	n/a	0	0	0
2554.094	n/a	REC_WORD	1277047	wordpools/wasnorm_wordpool_576.txt	LTP316	ltpFR2	17	10	SUNSET	1408	n/a	n/a	0	0	0
2555.094	n/a	REC_WORD_VV	1277547	wordpools/wasnorm_wordpool_576.txt	LTP316	ltpFR2	17	10	<>	-1	n/a	n/a	0	0	0
2561.128	n/a	REC_WORD	1280564	wordpools/wasnorm_wordpool_576.txt	LTP316	ltpFR2	17	10	VENUS	1557	n/a	n/a	0	0	0
2613.316	n/a	WORD	1306658	wordpools/wasnorm_wordpool_576.txt	LTP316	ltpFR2	17	11	GIFT	635	n/a	n/a	0	0	0
2616.01	n/a	WORD	1308005	wordpools/wasnorm_wordpool_576.txt	LTP316	ltpFR2	17	11	CABBAGE	210	n/a	n/a	0	0	0
2618.564	n/a	WORD	1309282	wordpools/wasnorm_wordpool_576.txt	LTP316	ltpFR2	17	11	SHARK	1275	n/a	n/a	0	0	0
2621.198	n/a	WORD	1310599	wordpools/wasnorm_wordpool_576.txt	LTP316	ltpFR2	17	11	ELBOW	520	n/a	n/a	0	0	0
2624.016	n/a	WORD	1312008	wordpools/wasnorm_wordpool_576.txt	LTP316	ltpFR2	17	11	BODY	145	n/a	n/a	0	0	0
2626.462	n/a	WORD	1313231	wordpools/wasnorm_wordpool_576.txt	LTP316	ltpFR2	17	11	LOVER	846	n/a	n/a	0	0	0
2628.954	n/a	WORD	1314477	wordpools/wasnorm_wordpool_576.txt	LTP316	ltpFR2	17	11	BISON	131	n/a	n/a	0	0	0
2631.416	n/a	WORD	1315708	wordpools/wasnorm_wordpool_576.txt	LTP316	ltpFR2	17	11	STONE	1385	n/a	n/a	0	0	0
2634.208	n/a	WORD	1317104	wordpools/wasnorm_wordpool_576.txt	LTP316	ltpFR2	17	11	RAZOR	1171	n/a	n/a	0	0	0
2636.768	n/a	WORD	1318384	wordpools/wasnorm_wordpool_576.txt	LTP316	ltpFR2	17	11	FIREMAN	569	n/a	n/a	0	0	0
2639.328	n/a	WORD	1319664	wordpools/wasnorm_wordpool_576.txt	LTP316	ltpFR2	17	11	SPARROW	1347	n/a	n/a	0	0	0
2642.014	n/a	WORD	1321007	wordpools/wasnorm_wordpool_576.txt	LTP316	ltpFR2	17	11	MASK	876	n/a	n/a	0	0	0
2644.778	n/a	WORD	1322389	wordpools/wasnorm_wordpool_576.txt	LTP316	ltpFR2	17	11	BLADE	134	n/a	n/a	0	0	0
2647.28	n/a	WORD	1323640	wordpools/wasnorm_wordpool_576.txt	LTP316	ltpFR2	17	11	MILK	895	n/a	n/a	0	0	0
2649.72	n/a	WORD	1324860	wordpools/wasnorm_wordpool_576.txt	LTP316	ltpFR2	17	11	HEART	697	n/a	n/a	0	0	0
2652.216	n/a	WORD	1326108	wordpools/wasnorm_wordpool_576.txt	LTP316	ltpFR2	17	11	KIDNEY	776	n/a	n/a	0	0	0
2654.758	n/a	WORD	1327379	wordpools/wasnorm_wordpool_576.txt	LTP316	ltpFR2	17	11	FLIPPER	580	n/a	n/a	0	0	0
2657.422	n/a	WORD	1328711	wordpools/wasnorm_wordpool_576.txt	LTP316	ltpFR2	17	11	RABBIT	1152	n/a	n/a	0	0	0
2659.89	n/a	WORD	1329945	wordpools/wasnorm_wordpool_576.txt	LTP316	ltpFR2	17	11	PENGUIN	1044	n/a	n/a	0	0	0
2662.544	n/a	WORD	1331272	wordpools/wasnorm_wordpool_576.txt	LTP316	ltpFR2	17	11	QUEEN	1149	n/a	n/a	0	0	0
2664.978	n/a	WORD	1332489	wordpools/wasnorm_wordpool_576.txt	LTP316	ltpFR2	17	11	PALACE	1006	n/a	n/a	0	0	0
2667.414	n/a	WORD	1333707	wordpools/wasnorm_wordpool_576.txt	LTP316	ltpFR2	17	11	PLAID	1080	n/a	n/a	0	0	0
2670.182	n/a	WORD	1335091	wordpools/wasnorm_wordpool_576.txt	LTP316	ltpFR2	17	11	GIRL	637	n/a	n/a	0	0	0
2672.904	n/a	WORD	1336452	wordpools/wasnorm_wordpool_576.txt	LTP316	ltpFR2	17	11	CANDY	230	n/a	n/a	0	0	0
2674.52	n/a	START	1337260	n/a	LTP316	ltpFR2	17	n/a	n/a	n/a	15	n/a	n/a	n/a	n/a
2675.67	n/a	DISTRACTOR	1337835	n/a	LTP316	ltpFR2	17	11	n/a	n/a	n/a	n/a	0	0	0
2675.686	n/a	PROB	1337843	n/a	LTP316	ltpFR2	17	n/a	n/a	n/a	15	14	4	3	7
2677.788	n/a	PROB	1338894	n/a	LTP316	ltpFR2	17	n/a	n/a	n/a	15	20	9	5	6
2679.722	n/a	PROB	1339861	n/a	LTP316	ltpFR2	17	n/a	n/a	n/a	15	20	8	9	3
2682.544	n/a	PROB	1341272	n/a	LTP316	ltpFR2	17	n/a	n/a	n/a	15	12	9	1	2
2684.144	n/a	PROB	1342072	n/a	LTP316	ltpFR2	17	n/a	n/a	n/a	15	11	2	3	6
2685.694	n/a	PROB	1342847	n/a	LTP316	ltpFR2	17	n/a	n/a	n/a	15	16	5	3	8
2687.862	n/a	PROB	1343931	n/a	LTP316	ltpFR2	17	n/a	n/a	n/a	15	11	4	5	3
2692.636	n/a	PROB	1346318	n/a	LTP316	ltpFR2	17	n/a	n/a	n/a	15	18	4	5	9
2695.204	n/a	PROB	1347602	n/a	LTP316	ltpFR2	17	n/a	n/a	n/a	15	19	9	7	3
2697.736	n/a	STOP	1348868	n/a	LTP316	ltpFR2	17	n/a	n/a	n/a	15	n/a	n/a	n/a	n/a
2700.374	n/a	REC_START	1350187	n/a	LTP316	ltpFR2	17	11	n/a	n/a	n/a	n/a	0	0	0
2701.514	n/a	REC_WORD	1350757	wordpools/wasnorm_wordpool_576.txt	LTP316	ltpFR2	17	11	QUEEN	1149	n/a	n/a	0	0	0
2702.176	n/a	REC_WORD	1351088	wordpools/wasnorm_wordpool_576.txt	LTP316	ltpFR2	17	11	PLAID	1080	n/a	n/a	0	0	0
2702.914	n/a	REC_WORD	1351457	wordpools/wasnorm_wordpool_576.txt	LTP316	ltpFR2	17	11	PALACE	1006	n/a	n/a	0	0	0
2703.738	n/a	REC_WORD	1351869	wordpools/wasnorm_wordpool_576.txt	LTP316	ltpFR2	17	11	CANDY	230	n/a	n/a	0	0	0
2704.598	n/a	REC_WORD	1352299	wordpools/wasnorm_wordpool_576.txt	LTP316	ltpFR2	17	11	GIRL	637	n/a	n/a	0	0	0
2705.14	n/a	REC_WORD	1352570	wordpools/wasnorm_wordpool_576.txt	LTP316	ltpFR2	17	11	FLIPPER	580	n/a	n/a	0	0	0
2706.088	n/a	REC_WORD	1353044	wordpools/wasnorm_wordpool_576.txt	LTP316	ltpFR2	17	11	RABBIT	1152	n/a	n/a	0	0	0
2706.902	n/a	REC_WORD	1353451	wordpools/wasnorm_wordpool_576.txt	LTP316	ltpFR2	17	11	PENGUIN	1044	n/a	n/a	0	0	0
2707.856	n/a	REC_WORD	1353928	wordpools/wasnorm_wordpool_576.txt	LTP316	ltpFR2	17	11	HEART	697	n/a	n/a	0	0	0
2708.65	n/a	REC_WORD	1354325	wordpools/wasnorm_wordpool_576.txt	LTP316	ltpFR2	17	11	KIDNEY	776	n/a	n/a	0	0	0
2942.45	n/a	WORD	1471225	wordpools/wasnorm_wordpool_576.txt	LTP316	ltpFR2	17	12	JEANS	752	n/a	n/a	0	0	0
2945.134	n/a	WORD	1472567	wordpools/wasnorm_wordpool_576.txt	LTP316	ltpFR2	17	12	CASHIER	254	n/a	n/a	0	0	0
2947.638	n/a	WORD	1473819	wordpools/wasnorm_wordpool_576.txt	LTP316	ltpFR2	17	12	HORSE	719	n/a	n/a	0	0	0
2950.24	n/a	WORD	1475120	wordpools/wasnorm_wordpool_576.txt	LTP316	ltpFR2	17	12	TROUT	1511	n/a	n/a	0	0	0
2952.96	n/a	WORD	1476480	wordpools/wasnorm_wordpool_576.txt	LTP316	ltpFR2	17	12	VALVE	1546	n/a	n/a	0	0	0
2955.414	n/a	WORD	1477707	wordpools/wasnorm_wordpool_576.txt	LTP316	ltpFR2	17	12	PASTRY	1022	n/a	n/a	0	0	0
2958.198	n/a	WORD	1479099	wordpools/wasnorm_wordpool_576.txt	LTP316	ltpFR2	17	12	FRIAR	605	n/a	n/a	0	0	0
2960.916	n/a	WORD	1480458	wordpools/wasnorm_wordpool_576.txt	LTP316	ltpFR2	17	12	HEADBAND	696	n/a	n/a	0	0	0
2963.42	n/a	WORD	1481710	wordpools/wasnorm_wordpool_576.txt	LTP316	ltpFR2	17	12	SNAKE	1333	n/a	n/a	0	0	0
2966.186	n/a	WORD	1483093	wordpools/wasnorm_wordpool_576.txt	LTP316	ltpFR2	17	12	POISON	1096	n/a	n/a	0	0	0
2968.922	n/a	WORD	1484461	wordpools/wasnorm_wordpool_576.txt	LTP316	ltpFR2	17	12	QUARTER	1148	n/a	n/a	0	0	0
2971.442	n/a	WORD	1485721	wordpools/wasnorm_wordpool_576.txt	LTP316	ltpFR2	17	12	PASTA	1021	n/a	n/a	0	0	0
2974.01	n/a	WORD	1487005	wordpools/wasnorm_wordpool_576.txt	LTP316	ltpFR2	17	12	XEROX	1628	n/a	n/a	0	0	0
2976.48	n/a	WORD	1488240	wordpools/wasnorm_wordpool_576.txt	LTP316	ltpFR2	17	12	DOUGHNUT	490	n/a	n/a	0	0	0
2978.98	n/a	WORD	1489490	wordpools/wasnorm_wordpool_576.txt	LTP316	ltpFR2	17	12	SEAGULL	1261	n/a	n/a	0	0	0
2981.718	n/a	WORD	1490859	wordpools/wasnorm_wordpool_576.txt	LTP316	ltpFR2	17	12	HAWK	692	n/a	n/a	0	0	0
2984.168	n/a	WORD	1492084	wordpools/wasnorm_wordpool_576.txt	LTP316	ltpFR2	17	12	COCOON	339	n/a	n/a	0	0	0
2986.67	n/a	WORD	1493335	wordpools/wasnorm_wordpool_576.txt	LTP316	ltpFR2	17	12	DONKEY	484	n/a	n/a	0	0	0
2989.172	n/a	WORD	1494586	wordpools/wasnorm_wordpool_576.txt	LTP316	ltpFR2	17	12	GRIZZLY	662	n/a	n/a	0	0	0
2991.742	n/a	WORD	1495871	wordpools/wasnorm_wordpool_576.txt	LTP316	ltpFR2	17	12	SKIRT	1319	n/a	n/a	0	0	0
2994.494	n/a	WORD	1497247	wordpools/wasnorm_wordpool_576.txt	LTP316	ltpFR2	17	12	CIGAR	308	n/a	n/a	0	0	0
2997.262	n/a	WORD	1498631	wordpools/wasnorm_wordpool_576.txt	LTP316	ltpFR2	17	12	INFANT	737	n/a	n/a	0	0	0
2999.982	n/a	WORD	1499991	wordpools/wasnorm_wordpool_576.txt	LTP316	ltpFR2	17	12	CHILD	299	n/a	n/a	0	0	0
3002.468	n/a	WORD	1501234	wordpools/wasnorm_wordpool_576.txt	LTP316	ltpFR2	17	12	FARMER	553	n/a	n/a	0	0	0
3004.084	n/a	START	1502042	n/a	LTP316	ltpFR2	17	n/a	n/a	n/a	16	n/a	n/a	n/a	n/a
3005.18	n/a	DISTRACTOR	1502590	n/a	LTP316	ltpFR2	17	12	n/a	n/a	n/a	n/a	0	0	0
3005.186	n/a	PROB	1502593	n/a	LTP316	ltpFR2	17	n/a	n/a	n/a	16	20	2	9	9
3008.236	n/a	PROB	1504118	n/a	LTP316	ltpFR2	17	n/a	n/a	n/a	16	19	7	4	8
3011.054	n/a	PROB	1505527	n/a	LTP316	ltpFR2	17	n/a	n/a	n/a	16	18	2	9	7
3012.642	n/a	PROB	1506321	n/a	LTP316	ltpFR2	17	n/a	n/a	n/a	16	18	5	6	7
3014.342	n/a	PROB	1507171	n/a	LTP316	ltpFR2	17	n/a	n/a	n/a	16	8	1	2	5
3015.81	n/a	PROB	1507905	n/a	LTP316	ltpFR2	17	n/a	n/a	n/a	16	16	6	1	9
3018.13	n/a	PROB	1509065	n/a	LTP316	ltpFR2	17	n/a	n/a	n/a	16	17	7	1	9
3019.628	n/a	PROB	1509814	n/a	LTP316	ltpFR2	17	n/a	n/a	n/a	16	15	6	8	1
3021.314	n/a	PROB	1510657	n/a	LTP316	ltpFR2	17	n/a	n/a	n/a	16	16	5	2	9
3023.384	n/a	PROB	1511692	n/a	LTP316	ltpFR2	17	n/a	n/a	n/a	16	18	9	7	2
3026.034	n/a	PROB	1513017	n/a	LTP316	ltpFR2	17	n/a	n/a	n/a	16	12	1	2	9
3027.762	n/a	STOP	1513881	n/a	LTP316	ltpFR2	17	n/a	n/a	n/a	16	n/a	n/a	n/a	n/a
3029.962	n/a	REC_START	1514981	n/a	LTP316	ltpFR2	17	12	n/a	n/a	n/a	n/a	0	0	0
3031.126	n/a	REC_WORD	1515563	wordpools/wasnorm_wordpool_576.txt	LTP316	ltpFR2	17	12	INFANT	737	n/a	n/a	0	0	0
3031.812	n/a	REC_WORD	1515906	wordpools/wasnorm_wordpool_576.txt	LTP316	ltpFR2	17	12	CHILD	299	n/a	n/a	0	0	0
3032.52	n/a	REC_WORD	1516260	wordpools/wasnorm_wordpool_576.txt	LTP316	ltpFR2	17	12	FARMER	553	n/a	n/a	0	0	0
3033.52	n/a	REC_WORD	1516760	wordpools/wasnorm_wordpool_576.txt	LTP316	ltpFR2	17	12	JEANS	752	n/a	n/a	0	0	0
3034.364	n/a	REC_WORD	1517182	wordpools/wasnorm_wordpool_576.txt	LTP316	ltpFR2	17	12	SKIRT	1319	n/a	n/a	0	0	0
3035.228	n/a	REC_WORD	1517614	wordpools/wasnorm_wordpool_576.txt	LTP316	ltpFR2	17	12	HEADBAND	696	n/a	n/a	0	0	0
3036.144	n/a	REC_WORD	1518072	wordpools/wasnorm_wordpool_576.txt	LTP316	ltpFR2	17	12	CASHIER	254	n/a	n/a	0	0	0
3038.492	n/a	REC_WORD	1519246	wordpools/wasnorm_wordpool_576.txt	LTP316	ltpFR2	17	12	HORSE	719	n/a	n/a	0	0	0
3039.33	n/a	REC_WORD	1519665	wordpools/wasnorm_wordpool_576.txt	LTP316	ltpFR2	17	12	TROUT	1511	n/a	n/a	0	0	0
3040.42	n/a	REC_WORD	1520210	wordpools/wasnorm_wordpool_576.txt	LTP316	ltpFR2	17	12	GRIZZLY	662	n/a	n/a	0	0	0
3041.374	n/a	REC_WORD	1520687	wordpools/wasnorm_wordpool_576.txt	LTP316	ltpFR2	17	12	DONKEY	484	n/a	n/a	0	0	0
3047.68	n/a	REC_WORD	1523840	wordpools/wasnorm_wordpool_576.txt	LTP316	ltpFR2	17	12	PASTA	1021	n/a	n/a	0	0	0
3048.542	n/a	REC_WORD	1524271	wordpools/wasnorm_wordpool_576.txt	LTP316	ltpFR2	17	12	QUARTER	1148	n/a	n/a	0	0	0
3049.27	n/a	REC_WORD	1524635	wordpools/wasnorm_wordpool_576.txt	LTP316	ltpFR2	17	12	DOUGHNUT	490	n/a	n/a	0	0	0
3050.27	n/a	REC_WORD_VV	1525135	wordpools/wasnorm_wordpool_576.txt	LTP316	ltpFR2	17	12	<>	-1	n/a	n/a	0	0	0
3120.402	n/a	WORD	1560201	wordpools/wasnorm_wordpool_576.txt	LTP316	ltpFR2	17	13	SLOPE	1328	n/a	n/a	0	0	0
3122.912	n/a	WORD	1561456	wordpools/wasnorm_wordpool_576.txt	LTP316	ltpFR2	17	13	FRUIT	610	n/a	n/a	0	0	0
3125.508	n/a	WORD	1562754	wordpools/wasnorm_wordpool_576.txt	LTP316	ltpFR2	17	13	NEUTRON	947	n/a	n/a	0	0	0
3128.21	n/a	WORD	1564105	wordpools/wasnorm_wordpool_576.txt	LTP316	ltpFR2	17	13	OZONE	996	n/a	n/a	0	0	0
3130.896	n/a	WORD	1565448	wordpools/wasnorm_wordpool_576.txt	LTP316	ltpFR2	17	13	SPHINX	1349	n/a	n/a	0	0	0
3133.4	n/a	WORD	1566700	wordpools/wasnorm_wordpool_576.txt	LTP316	ltpFR2	17	13	SWAMP	1416	n/a	n/a	0	0	0
3136.034	n/a	WORD	1568017	wordpools/wasnorm_wordpool_576.txt	LTP316	ltpFR2	17	13	STREAM	1392	n/a	n/a	0	0	0
3138.79	n/a	WORD	1569395	wordpools/wasnorm_wordpool_576.txt	LTP316	ltpFR2	17	13	GROUND	666	n/a	n/a	0	0	0
3141.522	n/a	WORD	1570761	wordpools/wasnorm_wordpool_576.txt	LTP316	ltpFR2	17	13	WRENCH	1625	n/a	n/a	0	0	0
3143.99	n/a	WORD	1571995	wordpools/wasnorm_wordpool_576.txt	LTP316	ltpFR2	17	13	SERVER	1272	n/a	n/a	0	0	0
3146.576	n/a	WORD	1573288	wordpools/wasnorm_wordpool_576.txt	LTP316	ltpFR2	17	13	CEILING	265	n/a	n/a	0	0	0
3149.162	n/a	WORD	1574581	wordpools/wasnorm_wordpool_576.txt	LTP316	ltpFR2	17	13	BEEF	113	n/a	n/a	0	0	0
3151.83	n/a	WORD	1575915	wordpools/wasnorm_wordpool_576.txt	LTP316	ltpFR2	17	13	PARENT	1013	n/a	n/a	0	0	0
3154.3	n/a	WORD	1577150	wordpools/wasnorm_wordpool_576.txt	LTP316	ltpFR2	17	13	BUNNY	198	n/a	n/a	0	0	0
3156.936	n/a	WORD	1578468	wordpools/wasnorm_wordpool_576.txt	LTP316	ltpFR2	17	13	SLIME	1327	n/a	n/a	0	0	0
3159.72	n/a	WORD	1579860	wordpools/wasnorm_wordpool_576.txt	LTP316	ltpFR2	17	13	FUNGUS	614	n/a	n/a	0	0	0
3162.474	n/a	WORD	1581237	wordpools/wasnorm_wordpool_576.txt	LTP316	ltpFR2	17	13	LAMP	798	n/a	n/a	0	0	0
3164.89	n/a	WORD	1582445	wordpools/wasnorm_wordpool_576.txt	LTP316	ltpFR2	17	13	TWEEZERS	1526	n/a	n/a	0	0	0
3167.676	n/a	WORD	1583838	wordpools/wasnorm_wordpool_576.txt	LTP316	ltpFR2	17	13	PLIERS	1089	n/a	n/a	0	0	0
3170.246	n/a	WORD	1585123	wordpools/wasnorm_wordpool_576.txt	LTP316	ltpFR2	17	13	LUMBER	848	n/a	n/a	0	0	0
3172.982	n/a	WORD	1586491	wordpools/wasnorm_wordpool_576.txt	LTP316	ltpFR2	17	13	JUNGLE	764	n/a	n/a	0	0	0
3175.502	n/a	WORD	1587751	wordpools/wasnorm_wordpool_576.txt	LTP316	ltpFR2	17	13	BOARD	143	n/a	n/a	0	0	0
3178.168	n/a	WORD	1589084	wordpools/wasnorm_wordpool_576.txt	LTP316	ltpFR2	17	13	SHORTCAKE	1292	n/a	n/a	0	0	0
3180.806	n/a	WORD	1590403	wordpools/wasnorm_wordpool_576.txt	LTP316	ltpFR2	17	13	TART	1436	n/a	n/a	0	0	0
3182.426	n/a	START	1591213	n/a	LTP316	ltpFR2	17	n/a	n/a	n/a	17	n/a	n/a	n/a	n/a
3183.37	n/a	DISTRACTOR	1591685	n/a	LTP316	ltpFR2	17	13	n/a	n/a	n/a	n/a	0	0	0
3183.376	n/a	PROB	1591688	n/a	LTP316	ltpFR2	17	n/a	n/a	n/a	17	13	1	8	4
3185.76	n/a	PROB	1592880	n/a	LTP316	ltpFR2	17	n/a	n/a	n/a	17	19	4	9	6
3188.194	n/a	PROB	1594097	n/a	LTP316	ltpFR2	17	n/a	n/a	n/a	17	20	6	7	7
3191.348	n/a	PROB	1595674	n/a	LTP316	ltpFR2	17	n/a	n/a	n/a	17	15	6	4	5
3192.914	n/a	PROB	1596457	n/a	LTP316	ltpFR2	17	n/a	n/a	n/a	17	19	2	8	9
3194.3	n/a	PROB	1597150	n/a	LTP316	ltpFR2	17	n/a	n/a	n/a	17	20	8	8	4
3195.702	n/a	PROB	1597851	n/a	LTP316	ltpFR2	17	n/a	n/a	n/a	17	13	9	1	3
3197.052	n/a	PROB	1598526	n/a	LTP316	ltpFR2	17	n/a	n/a	n/a	17	11	6	1	4
3199.422	n/a	PROB	1599711	n/a	LTP316	ltpFR2	17	n/a	n/a	n/a	17	9	6	2	1
3200.988	n/a	PROB	1600494	n/a	LTP316	ltpFR2	17	n/a	n/a	n/a	17	15	2	5	8
3203.072	n/a	PROB	1601536	n/a	LTP316	ltpFR2	17	n/a	n/a	n/a	17	16	5	7	4
3204.608	n/a	PROB	1602304	n/a	LTP316	ltpFR2	17	n/a	n/a	n/a	17	20	7	6	7
3206.278	n/a	STOP	1603139	n/a	LTP316	ltpFR2	17	n/a	n/a	n/a	17	n/a	n/a	n/a	n/a
3208.396	n/a	REC_START	1604198	n/a	LTP316	ltpFR2	17	13	n/a	n/a	n/a	n/a	0	0	0
3209.848	n/a	REC_WORD	1604924	wordpools/wasnorm_wordpool_576.txt	LTP316	ltpFR2	17	13	TWEEZERS	1526	n/a	n/a	0	0	0
3210.5	n/a	REC_WORD	1605250	wordpools/wasnorm_wordpool_576.txt	LTP316	ltpFR2	17	13	PLIERS	1089	n/a	n/a	0	0	0
3211.188	n/a	REC_WORD	1605594	wordpools/wasnorm_wordpool_576.txt	LTP316	ltpFR2	17	13	LUMBER	848	n/a	n/a	0	0	0
3211.916	n/a	REC_WORD	1605958	wordpools/wasnorm_wordpool_576.txt	LTP316	ltpFR2	17	13	BOARD	143	n/a	n/a	0	0	0
3214.752	n/a	REC_WORD	1607376	wordpools/wasnorm_wordpool_576.txt	LTP316	ltpFR2	17	13	SLOPE	1328	n/a	n/a	0	0	0
3215.57	n/a	REC_WORD	1607785	wordpools/wasnorm_wordpool_576.txt	LTP316	ltpFR2	17	13	SPHINX	1349	n/a	n/a	0	0	0
3216.57	n/a	REC_WORD_VV	1608285	wordpools/wasnorm_wordpool_576.txt	LTP316	ltpFR2	17	13	<>	-1	n/a	n/a	0	0	0
3218.122	n/a	REC_WORD	1609061	wordpools/wasnorm_wordpool_576.txt	LTP316	ltpFR2	17	13	SWAMP	1416	n/a	n/a	0	0	0
3218.708	n/a	REC_WORD	1609354	wordpools/wasnorm_wordpool_576.txt	LTP316	ltpFR2	17	13	STREAM	1392	n/a	n/a	0	0	0
3220.776	n/a	REC_WORD	1610388	wordpools/wasnorm_wordpool_576.txt	LTP316	ltpFR2	17	13	GROUND	666	n/a	n/a	0	0	0
3221.564	n/a	REC_WORD	1610782	wordpools/wasnorm_wordpool_576.txt	LTP316	ltpFR2	17	13	WRENCH	1625	n/a	n/a	0	0	0
3240.214	n/a	REC_WORD	1620107	wordpools/wasnorm_wordpool_576.txt	LTP316	ltpFR2	17	13	SLOPE	1328	n/a	n/a	0	0	0
3241.67	n/a	REC_WORD_VV	1620835	wordpools/wasnorm_wordpool_576.txt	LTP316	ltpFR2	17	13	<>	-1	n/a	n/a	0	0	0
3245.846	n/a	REC_WORD	1622923	wordpools/wasnorm_wordpool_576.txt	LTP316	ltpFR2	17	13	BEEF	113	n/a	n/a	0	0	0
3246.424	n/a	REC_WORD	1623212	wordpools/wasnorm_wordpool_576.txt	LTP316	ltpFR2	17	13	SERVER	1272	n/a	n/a	0	0	0
3247.252	n/a	REC_WORD	1623626	wordpools/wasnorm_wordpool_576.txt	LTP316	ltpFR2	17	13	CEILING	265	n/a	n/a	0	0	0
3248.252	n/a	REC_WORD_VV	1624126	wordpools/wasnorm_wordpool_576.txt	LTP316	ltpFR2	17	13	<>	-1	n/a	n/a	0	0	0
3298.824	n/a	DISTRACTOR	1649412	n/a	LTP316	ltpFR2	17	14	n/a	n/a	n/a	n/a	0	0	0
3298.824	n/a	START	1649412	n/a	LTP316	ltpFR2	17	n/a	n/a	n/a	18	n/a	n/a	n/a	n/a
3298.84	n/a	PROB	1649420	n/a	LTP316	ltpFR2	17	n/a	n/a	n/a	18	13	9	1	3
3300.324	n/a	PROB	1650162	n/a	LTP316	ltpFR2	17	n/a	n/a	n/a	18	12	5	6	1
3301.626	n/a	PROB	1650813	n/a	LTP316	ltpFR2	17	n/a	n/a	n/a	18	16	7	5	4
3303.728	n/a	PROB	1651864	n/a	LTP316	ltpFR2	17	n/a	n/a	n/a	18	21	8	9	4
3305.244	n/a	PROB	1652622	n/a	LTP316	ltpFR2	17	n/a	n/a	n/a	18	5	2	1	2
3306.43	n/a	PROB	1653215	n/a	LTP316	ltpFR2	17	n/a	n/a	n/a	18	16	3	5	8
3307.796	n/a	PROB	1653898	n/a	LTP316	ltpFR2	17	n/a	n/a	n/a	18	14	8	1	5
3309.482	n/a	PROB	1654741	n/a	LTP316	ltpFR2	17	n/a	n/a	n/a	18	17	7	2	8
3311.25	n/a	PROB	1655625	n/a	LTP316	ltpFR2	17	n/a	n/a	n/a	18	17	7	8	2
3312.768	n/a	PROB	1656384	n/a	LTP316	ltpFR2	17	n/a	n/a	n/a	18	16	7	4	5
3314.386	n/a	PROB	1657193	n/a	LTP316	ltpFR2	17	n/a	n/a	n/a	18	16	7	4	5
3315.854	n/a	PROB	1657927	n/a	LTP316	ltpFR2	17	n/a	n/a	n/a	18	19	5	5	9
3317.306	n/a	PROB	1658653	n/a	LTP316	ltpFR2	17	n/a	n/a	n/a	18	15	4	7	4
3318.692	n/a	PROB	1659346	n/a	LTP316	ltpFR2	17	n/a	n/a	n/a	18	17	2	8	7
3320.274	n/a	PROB	1660137	n/a	LTP316	ltpFR2	17	n/a	n/a	n/a	18	15	8	5	2
3322.162	n/a	STOP	1661081	n/a	LTP316	ltpFR2	17	n/a	n/a	n/a	18	n/a	n/a	n/a	n/a
3323.98	n/a	WORD	1661990	wordpools/wasnorm_wordpool_576.txt	LTP316	ltpFR2	17	14	ONION	977	n/a	n/a	0	0	0
3326.466	n/a	WORD	1663233	wordpools/wasnorm_wordpool_576.txt	LTP316	ltpFR2	17	14	BANKER	84	n/a	n/a	0	0	0
3328.976	n/a	WORD	1664488	wordpools/wasnorm_wordpool_576.txt	LTP316	ltpFR2	17	14	MARKET	871	n/a	n/a	0	0	0
3331.794	n/a	WORD	1665897	wordpools/wasnorm_wordpool_576.txt	LTP316	ltpFR2	17	14	DANDRUFF	439	n/a	n/a	0	0	0
3334.488	n/a	WORD	1667244	wordpools/wasnorm_wordpool_576.txt	LTP316	ltpFR2	17	14	BEAVER	109	n/a	n/a	0	0	0
3337.214	n/a	WORD	1668607	wordpools/wasnorm_wordpool_576.txt	LTP316	ltpFR2	17	14	POCKET	1093	n/a	n/a	0	0	0
3340.026	n/a	WORD	1670013	wordpools/wasnorm_wordpool_576.txt	LTP316	ltpFR2	17	14	LADDER	793	n/a	n/a	0	0	0
3342.836	n/a	WORD	1671418	wordpools/wasnorm_wordpool_576.txt	LTP316	ltpFR2	17	14	APRON	35	n/a	n/a	0	0	0
3345.654	n/a	WORD	1672827	wordpools/wasnorm_wordpool_576.txt	LTP316	ltpFR2	17	14	CHIPMUNK	304	n/a	n/a	0	0	0
3348.266	n/a	WORD	1674133	wordpools/wasnorm_wordpool_576.txt	LTP316	ltpFR2	17	14	SUPPER	1411	n/a	n/a	0	0	0
3351.01	n/a	WORD	1675505	wordpools/wasnorm_wordpool_576.txt	LTP316	ltpFR2	17	14	PANTHER	1009	n/a	n/a	0	0	0
3353.456	n/a	WORD	1676728	wordpools/wasnorm_wordpool_576.txt	LTP316	ltpFR2	17	14	PIMPLE	1071	n/a	n/a	0	0	0
3356.046	n/a	WORD	1678023	wordpools/wasnorm_wordpool_576.txt	LTP316	ltpFR2	17	14	DRAWING	494	n/a	n/a	0	0	0
3358.816	n/a	WORD	1679408	wordpools/wasnorm_wordpool_576.txt	LTP316	ltpFR2	17	14	FRAME	600	n/a	n/a	0	0	0
3361.26	n/a	WORD	1680630	wordpools/wasnorm_wordpool_576.txt	LTP316	ltpFR2	17	14	LAPEL	800	n/a	n/a	0	0	0
3363.986	n/a	WORD	1681993	wordpools/wasnorm_wordpool_576.txt	LTP316	ltpFR2	17	14	PLUTO	1092	n/a	n/a	0	0	0
3366.422	n/a	WORD	1683211	wordpools/wasnorm_wordpool_576.txt	LTP316	ltpFR2	17	14	PAPER	1011	n/a	n/a	0	0	0
3368.874	n/a	WORD	1684437	wordpools/wasnorm_wordpool_576.txt	LTP316	ltpFR2	17	14	CROWN	415	n/a	n/a	0	0	0
3371.692	n/a	WORD	1685846	wordpools/wasnorm_wordpool_576.txt	LTP316	ltpFR2	17	14	VELVET	1555	n/a	n/a	0	0	0
3374.256	n/a	WORD	1687128	wordpools/wasnorm_wordpool_576.txt	LTP316	ltpFR2	17	14	HUSBAND	728	n/a	n/a	0	0	0
3377.012	n/a	WORD	1688506	wordpools/wasnorm_wordpool_576.txt	LTP316	ltpFR2	17	14	SPOUSE	1358	n/a	n/a	0	0	0
3379.466	n/a	WORD	1689733	wordpools/wasnorm_wordpool_576.txt	LTP316	ltpFR2	17	14	PERCH	1048	n/a	n/a	0	0	0
3382.234	n/a	WORD	1691117	wordpools/wasnorm_wordpool_576.txt	LTP316	ltpFR2	17	14	PRINCESS	1125	n/a	n/a	0	0	0
3385.032	n/a	WORD	1692516	wordpools/wasnorm_wordpool_576.txt	LTP316	ltpFR2	17	14	PUPPY	1144	n/a	n/a	0	0	0
3386.638	n/a	START	1693319	n/a	LTP316	ltpFR2	17	n/a	n/a	n/a	19	n/a	n/a	n/a	n/a
3387.608	n/a	DISTRACTOR	1693804	n/a	LTP316	ltpFR2	17	14	n/a	n/a	n/a	n/a	0	0	0
3387.618	n/a	PROB	1693809	n/a	LTP316	ltpFR2	17	n/a	n/a	n/a	19	16	6	3	7
3390.836	n/a	PROB	1695418	n/a	LTP316	ltpFR2	17	n/a	n/a	n/a	19	12	6	4	2
3392.386	n/a	PROB	1696193	n/a	LTP316	ltpFR2	17	n/a	n/a	n/a	19	15	4	6	5
3393.572	n/a	PROB	1696786	n/a	LTP316	ltpFR2	17	n/a	n/a	n/a	19	14	6	7	1
3395.356	n/a	PROB	1697678	n/a	LTP316	ltpFR2	17	n/a	n/a	n/a	19	18	7	7	4
3397.356	n/a	PROB	1698678	n/a	LTP316	ltpFR2	17	n/a	n/a	n/a	19	17	5	8	4
3399.242	n/a	PROB	1699621	n/a	LTP316	ltpFR2	17	n/a	n/a	n/a	19	14	1	9	4
3400.578	n/a	PROB	1700289	n/a	LTP316	ltpFR2	17	n/a	n/a	n/a	19	20	5	8	7
3403.212	n/a	PROB	1701606	n/a	LTP316	ltpFR2	17	n/a	n/a	n/a	19	17	5	5	7
3404.596	n/a	PROB	1702298	n/a	LTP316	ltpFR2	17	n/a	n/a	n/a	19	14	6	1	7
3406.214	n/a	PROB	1703107	n/a	LTP316	ltpFR2	17	n/a	n/a	n/a	19	18	4	8	6
3407.95	n/a	PROB	1703975	n/a	LTP316	ltpFR2	17	n/a	n/a	n/a	19	18	5	5	8
3409.204	n/a	STOP	1704602	n/a	LTP316	ltpFR2	17	n/a	n/a	n/a	19	n/a	n/a	n/a	n/a
3412.538	n/a	REC_START	1706269	n/a	LTP316	ltpFR2	17	14	n/a	n/a	n/a	n/a	0	0	0
3414.802	n/a	REC_WORD	1707401	wordpools/wasnorm_wordpool_576.txt	LTP316	ltpFR2	17	14	PRINCESS	1125	n/a	n/a	0	0	0
3415.856	n/a	REC_WORD	1707928	wordpools/wasnorm_wordpool_576.txt	LTP316	ltpFR2	17	14	PUPPY	1144	n/a	n/a	0	0	0
3416.784	n/a	REC_WORD	1708392	wordpools/wasnorm_wordpool_576.txt	LTP316	ltpFR2	17	14	PERCH	1048	n/a	n/a	0	0	0
3426.726	n/a	REC_WORD_VV	1713363	wordpools/wasnorm_wordpool_576.txt	LTP316	ltpFR2	17	14	<>	-1	n/a	n/a	0	0	0
3427.704	n/a	REC_WORD	1713852	wordpools/wasnorm_wordpool_576.txt	LTP316	ltpFR2	17	14	BANKER	84	n/a	n/a	0	0	0
3428.646	n/a	REC_WORD	1714323	wordpools/wasnorm_wordpool_576.txt	LTP316	ltpFR2	17	14	ONION	977	n/a	n/a	0	0	0
3429.684	n/a	REC_WORD	1714842	wordpools/wasnorm_wordpool_576.txt	LTP316	ltpFR2	17	14	MARKET	871	n/a	n/a	0	0	0
3430.684	n/a	REC_WORD_VV	1715342	wordpools/wasnorm_wordpool_576.txt	LTP316	ltpFR2	17	14	<>	-1	n/a	n/a	0	0	0
3432.06	n/a	REC_WORD_VV	1716030	wordpools/wasnorm_wordpool_576.txt	LTP316	ltpFR2	17	14	<>	-1	n/a	n/a	0	0	0
3440.56	n/a	REC_WORD	1720280	wordpools/wasnorm_wordpool_576.txt	LTP316	ltpFR2	17	14	POCKET	1093	n/a	n/a	0	0	0
3441.36	n/a	REC_WORD	1720680	wordpools/wasnorm_wordpool_576.txt	LTP316	ltpFR2	17	14	BEAVER	109	n/a	n/a	0	0	0
3453.742	n/a	REC_WORD_VV	1726871	wordpools/wasnorm_wordpool_576.txt	LTP316	ltpFR2	17	14	<>	-1	n/a	n/a	0	0	0
3454.176	n/a	REC_WORD	1727088	wordpools/wasnorm_wordpool_576.txt	LTP316	ltpFR2	17	14	PLUTO	1092	n/a	n/a	0	0	0
3455.176	n/a	REC_WORD_VV	1727588	wordpools/wasnorm_wordpool_576.txt	LTP316	ltpFR2	17	14	<>	-1	n/a	n/a	0	0	0
3458.904	n/a	REC_WORD	1729452	wordpools/wasnorm_wordpool_576.txt	LTP316	ltpFR2	17	14	DRAWING	494	n/a	n/a	0	0	0
3459.48	n/a	REC_WORD	1729740	wordpools/wasnorm_wordpool_576.txt	LTP316	ltpFR2	17	14	SKETCH	1315	n/a	n/a	0	0	0
3460.542	n/a	REC_WORD_VV	1730271	wordpools/wasnorm_wordpool_576.txt	LTP316	ltpFR2	17	14	<>	-1	n/a	n/a	0	0	0
3460.854	n/a	REC_WORD	1730427	wordpools/wasnorm_wordpool_576.txt	LTP316	ltpFR2	17	14	CROWN	415	n/a	n/a	0	0	0
3463.7	n/a	REC_WORD	1731850	wordpools/wasnorm_wordpool_576.txt	LTP316	ltpFR2	17	14	PAPER	1011	n/a	n/a	0	0	0
3464.656	n/a	REC_WORD_VV	1732328	wordpools/wasnorm_wordpool_576.txt	LTP316	ltpFR2	17	14	<>	-1	n/a	n/a	0	0	0
3467.656	n/a	REC_WORD	1733828	wordpools/wasnorm_wordpool_576.txt	LTP316	ltpFR2	17	14	PAPER	1011	n/a	n/a	0	0	0
3468.464	n/a	REC_WORD_VV	1734232	wordpools/wasnorm_wordpool_576.txt	LTP316	ltpFR2	17	14	<>	-1	n/a	n/a	0	0	0
3503.014	n/a	DISTRACTOR	1751507	n/a	LTP316	ltpFR2	17	15	n/a	n/a	n/a	n/a	0	0	0
3503.014	n/a	START	1751507	n/a	LTP316	ltpFR2	17	n/a	n/a	n/a	20	n/a	n/a	n/a	n/a
3503.028	n/a	PROB	1751514	n/a	LTP316	ltpFR2	17	n/a	n/a	n/a	20	11	3	2	6
3504.602	n/a	PROB	1752301	n/a	LTP316	ltpFR2	17	n/a	n/a	n/a	20	16	9	4	3
3506.018	n/a	PROB	1753009	n/a	LTP316	ltpFR2	17	n/a	n/a	n/a	20	7	4	1	2
3507.866	n/a	PROB	1753933	n/a	LTP316	ltpFR2	17	n/a	n/a	n/a	20	21	4	8	9
3510.756	n/a	PROB	1755378	n/a	LTP316	ltpFR2	17	n/a	n/a	n/a	20	12	1	5	6
3512.508	n/a	PROB	1756254	n/a	LTP316	ltpFR2	17	n/a	n/a	n/a	20	17	3	8	6
3514.544	n/a	PROB	1757272	n/a	LTP316	ltpFR2	17	n/a	n/a	n/a	20	15	7	4	4
3516.126	n/a	PROB	1758063	n/a	LTP316	ltpFR2	17	n/a	n/a	n/a	20	16	6	3	7
3517.962	n/a	PROB	1758981	n/a	LTP316	ltpFR2	17	n/a	n/a	n/a	20	23	9	7	7
3520.648	n/a	PROB	1760324	n/a	LTP316	ltpFR2	17	n/a	n/a	n/a	20	23	8	8	7
3523.05	n/a	PROB	1761525	n/a	LTP316	ltpFR2	17	n/a	n/a	n/a	20	11	9	1	1
3524.47	n/a	PROB	1762235	n/a	LTP316	ltpFR2	17	n/a	n/a	n/a	20	12	7	2	3
3526.792	n/a	STOP	1763396	n/a	LTP316	ltpFR2	17	n/a	n/a	n/a	20	n/a	n/a	n/a	n/a
3527.932	n/a	WORD	1763966	wordpools/wasnorm_wordpool_576.txt	LTP316	ltpFR2	17	15	WIDOW	1608	n/a	n/a	0	0	0
3530.486	n/a	WORD	1765243	wordpools/wasnorm_wordpool_576.txt	LTP316	ltpFR2	17	15	SKILLET	1317	n/a	n/a	0	0	0
3533.136	n/a	WORD	1766568	wordpools/wasnorm_wordpool_576.txt	LTP316	ltpFR2	17	15	DAISY	435	n/a	n/a	0	0	0
3535.838	n/a	WORD	1767919	wordpools/wasnorm_wordpool_576.txt	LTP316	ltpFR2	17	15	VALLEY	1545	n/a	n/a	0	0	0
3538.476	n/a	WORD	1769238	wordpools/wasnorm_wordpool_576.txt	LTP316	ltpFR2	17	15	LIGHTNING	820	n/a	n/a	0	0	0
3541.126	n/a	WORD	1770563	wordpools/wasnorm_wordpool_576.txt	LTP316	ltpFR2	17	15	FOOT	590	n/a	n/a	0	0	0
3543.644	n/a	WORD	1771822	wordpools/wasnorm_wordpool_576.txt	LTP316	ltpFR2	17	15	ICING	732	n/a	n/a	0	0	0
3546.27	n/a	WORD	1773135	wordpools/wasnorm_wordpool_576.txt	LTP316	ltpFR2	17	15	LAKE	796	n/a	n/a	0	0	0
3549.056	n/a	WORD	1774528	wordpools/wasnorm_wordpool_576.txt	LTP316	ltpFR2	17	15	ISLAND	745	n/a	n/a	0	0	0
3551.508	n/a	WORD	1775754	wordpools/wasnorm_wordpool_576.txt	LTP316	ltpFR2	17	15	YOLK	1633	n/a	n/a	0	0	0
3554.194	n/a	WORD	1777097	wordpools/wasnorm_wordpool_576.txt	LTP316	ltpFR2	17	15	TILE	1468	n/a	n/a	0	0	0
3556.864	n/a	WORD	1778432	wordpools/wasnorm_wordpool_576.txt	LTP316	ltpFR2	17	15	CRITIC	410	n/a	n/a	0	0	0
3559.4	n/a	WORD	1779700	wordpools/wasnorm_wordpool_576.txt	LTP316	ltpFR2	17	15	THIEF	1456	n/a	n/a	0	0	0
3561.876	n/a	WORD	1780938	wordpools/wasnorm_wordpool_576.txt	LTP316	ltpFR2	17	15	CURTAIN	427	n/a	n/a	0	0	0
3564.362	n/a	WORD	1782181	wordpools/wasnorm_wordpool_576.txt	LTP316	ltpFR2	17	15	HIKER	708	n/a	n/a	0	0	0
3566.838	n/a	WORD	1783419	wordpools/wasnorm_wordpool_576.txt	LTP316	ltpFR2	17	15	TERMITE	1451	n/a	n/a	0	0	0
3569.656	n/a	WORD	1784828	wordpools/wasnorm_wordpool_576.txt	LTP316	ltpFR2	17	15	LACE	792	n/a	n/a	0	0	0
3572.142	n/a	WORD	1786071	wordpools/wasnorm_wordpool_576.txt	LTP316	ltpFR2	17	15	SUMMIT	1405	n/a	n/a	0	0	0
3574.636	n/a	WORD	1787318	wordpools/wasnorm_wordpool_576.txt	LTP316	ltpFR2	17	15	COMET	353	n/a	n/a	0	0	0
3577.296	n/a	WORD	1788648	wordpools/wasnorm_wordpool_576.txt	LTP316	ltpFR2	17	15	CASHEW	253	n/a	n/a	0	0	0
3579.722	n/a	WORD	1789861	wordpools/wasnorm_wordpool_576.txt	LTP316	ltpFR2	17	15	PEANUT	1032	n/a	n/a	0	0	0
3582.226	n/a	WORD	1791113	wordpools/wasnorm_wordpool_576.txt	LTP316	ltpFR2	17	15	CLOCK	325	n/a	n/a	0	0	0
3584.77	n/a	WORD	1792385	wordpools/wasnorm_wordpool_576.txt	LTP316	ltpFR2	17	15	PLAYGROUND	1087	n/a	n/a	0	0	0
3587.34	n/a	WORD	1793670	wordpools/wasnorm_wordpool_576.txt	LTP316	ltpFR2	17	15	MONSTER	912	n/a	n/a	0	0	0
3588.948	n/a	START	1794474	n/a	LTP316	ltpFR2	17	n/a	n/a	n/a	21	n/a	n/a	n/a	n/a
3590.104	n/a	DISTRACTOR	1795052	n/a	LTP316	ltpFR2	17	15	n/a	n/a	n/a	n/a	0	0	0
3590.116	n/a	PROB	1795058	n/a	LTP316	ltpFR2	17	n/a	n/a	n/a	21	20	8	9	3
3592.192	n/a	PROB	1796096	n/a	LTP316	ltpFR2	17	n/a	n/a	n/a	21	10	5	3	2
3593.71	n/a	PROB	1796855	n/a	LTP316	ltpFR2	17	n/a	n/a	n/a	21	8	2	5	1
3595.744	n/a	PROB	1797872	n/a	LTP316	ltpFR2	17	n/a	n/a	n/a	21	12	5	5	2
3596.98	n/a	PROB	1798490	n/a	LTP316	ltpFR2	17	n/a	n/a	n/a	21	17	5	3	9
3599.568	n/a	PROB	1799784	n/a	LTP316	ltpFR2	17	n/a	n/a	n/a	21	17	6	3	8
3602.066	n/a	PROB	1801033	n/a	LTP316	ltpFR2	17	n/a	n/a	n/a	21	22	6	9	7
3604.836	n/a	PROB	1802418	n/a	LTP316	ltpFR2	17	n/a	n/a	n/a	21	11	3	4	4
3606.606	n/a	PROB	1803303	n/a	LTP316	ltpFR2	17	n/a	n/a	n/a	21	22	5	8	9
3609.542	n/a	PROB	1804771	n/a	LTP316	ltpFR2	17	n/a	n/a	n/a	21	12	6	4	2
3611.042	n/a	PROB	1805521	n/a	LTP316	ltpFR2	17	n/a	n/a	n/a	21	9	2	2	5
3612.476	n/a	STOP	1806238	n/a	LTP316	ltpFR2	17	n/a	n/a	n/a	21	n/a	n/a	n/a	n/a
3614.762	n/a	REC_START	1807381	n/a	LTP316	ltpFR2	17	15	n/a	n/a	n/a	n/a	0	0	0
3615.932	n/a	REC_WORD	1807966	wordpools/wasnorm_wordpool_576.txt	LTP316	ltpFR2	17	15	PLAYGROUND	1087	n/a	n/a	0	0	0
3616.938	n/a	REC_WORD	1808469	wordpools/wasnorm_wordpool_576.txt	LTP316	ltpFR2	17	15	MONSTER	912	n/a	n/a	0	0	0
3617.938	n/a	REC_WORD_VV	1808969	wordpools/wasnorm_wordpool_576.txt	LTP316	ltpFR2	17	15	<>	-1	n/a	n/a	0	0	0
3620.748	n/a	REC_WORD_VV	1810374	wordpools/wasnorm_wordpool_576.txt	LTP316	ltpFR2	17	15	<>	-1	n/a	n/a	0	0	0
3622.138	n/a	REC_WORD	1811069	wordpools/wasnorm_wordpool_576.txt	LTP316	ltpFR2	17	15	SUMMIT	1405	n/a	n/a	0	0	0
3622.806	n/a	REC_WORD	1811403	wordpools/wasnorm_wordpool_576.txt	LTP316	ltpFR2	17	15	LACE	792	n/a	n/a	0	0	0
3625.334	n/a	REC_WORD	1812667	wordpools/wasnorm_wordpool_576.txt	LTP316	ltpFR2	17	15	TERMITE	1451	n/a	n/a	0	0	0
3626.334	n/a	REC_WORD_VV	1813167	wordpools/wasnorm_wordpool_576.txt	LTP316	ltpFR2	17	15	<>	-1	n/a	n/a	0	0	0
3626.734	n/a	REC_WORD	1813367	wordpools/wasnorm_wordpool_576.txt	LTP316	ltpFR2	17	15	HIKER	708	n/a	n/a	0	0	0
3628.638	n/a	REC_WORD	1814319	wordpools/wasnorm_wordpool_576.txt	LTP316	ltpFR2	17	15	COMET	353	n/a	n/a	0	0	0
3629.638	n/a	REC_WORD_VV	1814819	wordpools/wasnorm_wordpool_576.txt	LTP316	ltpFR2	17	15	<>	-1	n/a	n/a	0	0	0
3634.596	n/a	REC_WORD_VV	1817298	wordpools/wasnorm_wordpool_576.txt	LTP316	ltpFR2	17	15	<>	-1	n/a	n/a	0	0	0
3635.336	n/a	REC_WORD	1817668	wordpools/wasnorm_wordpool_576.txt	LTP316	ltpFR2	17	15	WIDOW	1608	n/a	n/a	0	0	0
3636.008	n/a	REC_WORD	1818004	wordpools/wasnorm_wordpool_576.txt	LTP316	ltpFR2	17	15	SKILLET	1317	n/a	n/a	0	0	0
3637.132	n/a	REC_WORD	1818566	wordpools/wasnorm_wordpool_576.txt	LTP316	ltpFR2	17	15	DAISY	435	n/a	n/a	0	0	0
3637.922	n/a	REC_WORD	1818961	wordpools/wasnorm_wordpool_576.txt	LTP316	ltpFR2	17	15	VALLEY	1545	n/a	n/a	0	0	0
3644.294	n/a	REC_WORD	1822147	wordpools/wasnorm_wordpool_576.txt	LTP316	ltpFR2	17	15	LIGHTNING	820	n/a	n/a	0	0	0
3645.314	n/a	REC_WORD	1822657	wordpools/wasnorm_wordpool_576.txt	LTP316	ltpFR2	17	15	FOOT	590	n/a	n/a	0	0	0
3646.596	n/a	REC_WORD	1823298	wordpools/wasnorm_wordpool_576.txt	LTP316	ltpFR2	17	15	ICING	732	n/a	n/a	0	0	0
3647.596	n/a	REC_WORD_VV	1823798	wordpools/wasnorm_wordpool_576.txt	LTP316	ltpFR2	17	15	<>	-1	n/a	n/a	0	0	0
3652.636	n/a	REC_WORD	1826318	wordpools/wasnorm_wordpool_576.txt	LTP316	ltpFR2	17	15	RAIN	-1	n/a	n/a	0	0	0
3659.596	n/a	REC_WORD	1829798	wordpools/wasnorm_wordpool_576.txt	LTP316	ltpFR2	17	15	ISLAND	745	n/a	n/a	0	0	0
3660.596	n/a	REC_WORD_VV	1830298	wordpools/wasnorm_wordpool_576.txt	LTP316	ltpFR2	17	15	<>	-1	n/a	n/a	0	0	0
3661.686	n/a	REC_WORD	1830843	wordpools/wasnorm_wordpool_576.txt	LTP316	ltpFR2	17	15	YOLK	1633	n/a	n/a	0	0	0
3662.912	n/a	REC_WORD	1831456	wordpools/wasnorm_wordpool_576.txt	LTP316	ltpFR2	17	15	LAKE	796	n/a	n/a	0	0	0
3751.546	n/a	WORD	1875773	wordpools/wasnorm_wordpool_576.txt	LTP316	ltpFR2	17	16	BANQUET	86	n/a	n/a	0	0	0
3754.346	n/a	WORD	1877173	wordpools/wasnorm_wordpool_576.txt	LTP316	ltpFR2	17	16	CANAL	226	n/a	n/a	0	0	0
3756.882	n/a	WORD	1878441	wordpools/wasnorm_wordpool_576.txt	LTP316	ltpFR2	17	16	STUDENT	1395	n/a	n/a	0	0	0
3759.316	n/a	WORD	1879658	wordpools/wasnorm_wordpool_576.txt	LTP316	ltpFR2	17	16	COURSE	390	n/a	n/a	0	0	0
3761.872	n/a	WORD	1880936	wordpools/wasnorm_wordpool_576.txt	LTP316	ltpFR2	17	16	LION	827	n/a	n/a	0	0	0
3764.37	n/a	WORD	1882185	wordpools/wasnorm_wordpool_576.txt	LTP316	ltpFR2	17	16	SWITCH	1422	n/a	n/a	0	0	0
3766.89	n/a	WORD	1883445	wordpools/wasnorm_wordpool_576.txt	LTP316	ltpFR2	17	16	LASER	801	n/a	n/a	0	0	0
3769.598	n/a	WORD	1884799	wordpools/wasnorm_wordpool_576.txt	LTP316	ltpFR2	17	16	SUNRISE	1407	n/a	n/a	0	0	0
3772.214	n/a	WORD	1886107	wordpools/wasnorm_wordpool_576.txt	LTP316	ltpFR2	17	16	OUTFIT	988	n/a	n/a	0	0	0
3774.812	n/a	WORD	1887406	wordpools/wasnorm_wordpool_576.txt	LTP316	ltpFR2	17	16	ROD	1203	n/a	n/a	0	0	0
3777.614	n/a	WORD	1888807	wordpools/wasnorm_wordpool_576.txt	LTP316	ltpFR2	17	16	FLAG	573	n/a	n/a	0	0	0
3780.232	n/a	WORD	1890116	wordpools/wasnorm_wordpool_576.txt	LTP316	ltpFR2	17	16	SALMON	1227	n/a	n/a	0	0	0
3782.718	n/a	WORD	1891359	wordpools/wasnorm_wordpool_576.txt	LTP316	ltpFR2	17	16	CHAUFFEUR	283	n/a	n/a	0	0	0
3785.242	n/a	WORD	1892621	wordpools/wasnorm_wordpool_576.txt	LTP316	ltpFR2	17	16	GLOBE	641	n/a	n/a	0	0	0
3787.878	n/a	WORD	1893939	wordpools/wasnorm_wordpool_576.txt	LTP316	ltpFR2	17	16	HATCHET	691	n/a	n/a	0	0	0
3790.624	n/a	WORD	1895312	wordpools/wasnorm_wordpool_576.txt	LTP316	ltpFR2	17	16	SPIDER	1351	n/a	n/a	0	0	0
3793.418	n/a	WORD	1896709	wordpools/wasnorm_wordpool_576.txt	LTP316	ltpFR2	17	16	MISTER	901	n/a	n/a	0	0	0
3796.128	n/a	WORD	1898064	wordpools/wasnorm_wordpool_576.txt	LTP316	ltpFR2	17	16	LADY	794	n/a	n/a	0	0	0
3798.938	n/a	WORD	1899469	wordpools/wasnorm_wordpool_576.txt	LTP316	ltpFR2	17	16	SWORD	1423	n/a	n/a	0	0	0
3801.484	n/a	WORD	1900742	wordpools/wasnorm_wordpool_576.txt	LTP316	ltpFR2	17	16	STOVE	1388	n/a	n/a	0	0	0
3804.284	n/a	WORD	1902142	wordpools/wasnorm_wordpool_576.txt	LTP316	ltpFR2	17	16	PAIL	1002	n/a	n/a	0	0	0
3807.028	n/a	WORD	1903514	wordpools/wasnorm_wordpool_576.txt	LTP316	ltpFR2	17	16	JELLY	755	n/a	n/a	0	0	0
3809.556	n/a	WORD	1904778	wordpools/wasnorm_wordpool_576.txt	LTP316	ltpFR2	17	16	TYPIST	1532	n/a	n/a	0	0	0
3812.074	n/a	WORD	1906037	wordpools/wasnorm_wordpool_576.txt	LTP316	ltpFR2	17	16	HEDGE	699	n/a	n/a	0	0	0
3813.684	n/a	START	1906842	n/a	LTP316	ltpFR2	17	n/a	n/a	n/a	22	n/a	n/a	n/a	n/a
3814.56	n/a	DISTRACTOR	1907280	n/a	LTP316	ltpFR2	17	16	n/a	n/a	n/a	n/a	0	0	0
3814.568	n/a	PROB	1907284	n/a	LTP316	ltpFR2	17	n/a	n/a	n/a	22	24	8	9	7
3816.52	n/a	PROB	1908260	n/a	LTP316	ltpFR2	17	n/a	n/a	n/a	22	18	7	7	4
3819.17	n/a	PROB	1909585	n/a	LTP316	ltpFR2	17	n/a	n/a	n/a	22	18	7	2	9
3821.088	n/a	PROB	1910544	n/a	LTP316	ltpFR2	17	n/a	n/a	n/a	22	18	6	3	9
3823.208	n/a	PROB	1911604	n/a	LTP316	ltpFR2	17	n/a	n/a	n/a	22	16	6	9	1
3826.594	n/a	PROB	1913297	n/a	LTP316	ltpFR2	17	n/a	n/a	n/a	22	18	4	8	6
3828.262	n/a	PROB	1914131	n/a	LTP316	ltpFR2	17	n/a	n/a	n/a	22	15	9	4	2
3829.664	n/a	PROB	1914832	n/a	LTP316	ltpFR2	17	n/a	n/a	n/a	22	12	6	1	5
3831.484	n/a	PROB	1915742	n/a	LTP316	ltpFR2	17	n/a	n/a	n/a	22	16	3	9	4
3833.018	n/a	PROB	1916509	n/a	LTP316	ltpFR2	17	n/a	n/a	n/a	22	12	9	2	1
3835.368	n/a	PROB	1917684	n/a	LTP316	ltpFR2	17	n/a	n/a	n/a	22	12	1	6	5
3837.026	n/a	STOP	1918513	n/a	LTP316	ltpFR2	17	n/a	n/a	n/a	22	n/a	n/a	n/a	n/a
3839.622	n/a	REC_START	1919811	n/a	LTP316	ltpFR2	17	16	n/a	n/a	n/a	n/a	0	0	0
3842.546	n/a	REC_WORD	1921273	wordpools/wasnorm_wordpool_576.txt	LTP316	ltpFR2	17	16	BANQUET	86	n/a	n/a	0	0	0
3843.306	n/a	REC_WORD	1921653	wordpools/wasnorm_wordpool_576.txt	LTP316	ltpFR2	17	16	CANAL	226	n/a	n/a	0	0	0
3844.068	n/a	REC_WORD	1922034	wordpools/wasnorm_wordpool_576.txt	LTP316	ltpFR2	17	16	STUDENT	1395	n/a	n/a	0	0	0
3845.132	n/a	REC_WORD	1922566	wordpools/wasnorm_wordpool_576.txt	LTP316	ltpFR2	17	16	COURSE	390	n/a	n/a	0	0	0
3846.16	n/a	REC_WORD	1923080	wordpools/wasnorm_wordpool_576.txt	LTP316	ltpFR2	17	16	SWITCH	1422	n/a	n/a	0	0	0
3847.192	n/a	REC_WORD	1923596	wordpools/wasnorm_wordpool_576.txt	LTP316	ltpFR2	17	16	LION	827	n/a	n/a	0	0	0
3847.944	n/a	REC_WORD	1923972	wordpools/wasnorm_wordpool_576.txt	LTP316	ltpFR2	17	16	LASER	801	n/a	n/a	0	0	0
3848.738	n/a	REC_WORD	1924369	wordpools/wasnorm_wordpool_576.txt	LTP316	ltpFR2	17	16	SUNRISE	1407	n/a	n/a	0	0	0
3849.738	n/a	REC_WORD_VV	1924869	wordpools/wasnorm_wordpool_576.txt	LTP316	ltpFR2	17	16	<>	-1	n/a	n/a	0	0	0
3855.464	n/a	REC_WORD	1927732	wordpools/wasnorm_wordpool_576.txt	LTP316	ltpFR2	17	16	SUNRISE	1407	n/a	n/a	0	0	0
