onset	duration	trial_type	sample	stim_file	subject	experiment	session	trial	item_name	item_num	list	answer	test_x	test_y	test_z
274.278	n/a	SESS_START	137139	n/a	LTP133	ltpFR2	23	n/a	n/a	n/a	n/a	n/a	0	0	0
316.914	n/a	START	158457	n/a	LTP133	ltpFR2	23	n/a	n/a	n/a	-1	n/a	n/a	n/a	n/a
316.928	n/a	PROB	158464	n/a	LTP133	ltpFR2	23	n/a	n/a	n/a	-1	17	7	3	7
318.412	n/a	PROB	159206	n/a	LTP133	ltpFR2	23	n/a	n/a	n/a	-1	18	3	6	9
319.446	n/a	PROB	159723	n/a	LTP133	ltpFR2	23	n/a	n/a	n/a	-1	10	2	2	6
320.564	n/a	PROB	160282	n/a	LTP133	ltpFR2	23	n/a	n/a	n/a	-1	14	7	1	6
321.782	n/a	PROB	160891	n/a	LTP133	ltpFR2	23	n/a	n/a	n/a	-1	12	2	5	5
323.216	n/a	PROB	161608	n/a	LTP133	ltpFR2	23	n/a	n/a	n/a	-1	25	7	9	9
324.718	n/a	PROB	162359	n/a	LTP133	ltpFR2	23	n/a	n/a	n/a	-1	14	5	6	3
325.986	n/a	PROB	162993	n/a	LTP133	ltpFR2	23	n/a	n/a	n/a	-1	20	9	8	3
327.236	n/a	PROB	163618	n/a	LTP133	ltpFR2	23	n/a	n/a	n/a	-1	16	7	5	4
328.746	n/a	STOP	164373	n/a	LTP133	ltpFR2	23	n/a	n/a	n/a	-1	n/a	n/a	n/a	n/a
417.142	n/a	DISTRACTOR	208571	n/a	LTP133	ltpFR2	23	1	n/a	n/a	n/a	n/a	0	0	0
417.144	n/a	START	208572	n/a	LTP133	ltpFR2	23	n/a	n/a	n/a	1	n/a	n/a	n/a	n/a
417.16	n/a	PROB	208580	n/a	LTP133	ltpFR2	23	n/a	n/a	n/a	1	13	3	8	2
419.962	n/a	PROB	209981	n/a	LTP133	ltpFR2	23	n/a	n/a	n/a	1	21	9	9	3
421.462	n/a	PROB	210731	n/a	LTP133	ltpFR2	23	n/a	n/a	n/a	1	22	9	9	4
422.764	n/a	PROB	211382	n/a	LTP133	ltpFR2	23	n/a	n/a	n/a	1	16	7	6	3
423.882	n/a	PROB	211941	n/a	LTP133	ltpFR2	23	n/a	n/a	n/a	1	23	9	9	5
425.082	n/a	PROB	212541	n/a	LTP133	ltpFR2	23	n/a	n/a	n/a	1	16	8	2	6
426.4	n/a	PROB	213200	n/a	LTP133	ltpFR2	23	n/a	n/a	n/a	1	18	5	6	7
427.918	n/a	PROB	213959	n/a	LTP133	ltpFR2	23	n/a	n/a	n/a	1	18	9	1	8
428.886	n/a	PROB	214443	n/a	LTP133	ltpFR2	23	n/a	n/a	n/a	1	17	8	5	4
430.354	n/a	PROB	215177	n/a	LTP133	ltpFR2	23	n/a	n/a	n/a	1	9	2	3	4
431.354	n/a	PROB	215677	n/a	LTP133	ltpFR2	23	n/a	n/a	n/a	1	13	2	4	7
432.738	n/a	PROB	216369	n/a	LTP133	ltpFR2	23	n/a	n/a	n/a	1	5	1	1	3
433.622	n/a	PROB	216811	n/a	LTP133	ltpFR2	23	n/a	n/a	n/a	1	11	1	3	7
434.79	n/a	PROB	217395	n/a	LTP133	ltpFR2	23	n/a	n/a	n/a	1	9	1	6	2
436.158	n/a	PROB	218079	n/a	LTP133	ltpFR2	23	n/a	n/a	n/a	1	12	7	4	1
437.474	n/a	PROB	218737	n/a	LTP133	ltpFR2	23	n/a	n/a	n/a	1	6	3	1	2
439.244	n/a	PROB	219622	n/a	LTP133	ltpFR2	23	n/a	n/a	n/a	1	18	3	7	8
440.294	n/a	STOP	220147	n/a	LTP133	ltpFR2	23	n/a	n/a	n/a	1	n/a	n/a	n/a	n/a
442.364	n/a	WORD	221182	wordpools/wasnorm_wordpool_576.txt	LTP133	ltpFR2	23	1	CROOK	412	n/a	n/a	0	0	0
445.082	n/a	WORD	222541	wordpools/wasnorm_wordpool_576.txt	LTP133	ltpFR2	23	1	PATIENT	1024	n/a	n/a	0	0	0
447.618	n/a	WORD	223809	wordpools/wasnorm_wordpool_576.txt	LTP133	ltpFR2	23	1	CATTLE	261	n/a	n/a	0	0	0
450.236	n/a	WORD	225118	wordpools/wasnorm_wordpool_576.txt	LTP133	ltpFR2	23	1	MEADOW	881	n/a	n/a	0	0	0
452.672	n/a	WORD	226336	wordpools/wasnorm_wordpool_576.txt	LTP133	ltpFR2	23	1	CEILING	265	n/a	n/a	0	0	0
455.19	n/a	WORD	227595	wordpools/wasnorm_wordpool_576.txt	LTP133	ltpFR2	23	1	SHERIFF	1284	n/a	n/a	0	0	0
457.926	n/a	WORD	228963	wordpools/wasnorm_wordpool_576.txt	LTP133	ltpFR2	23	1	NOVEL	960	n/a	n/a	0	0	0
460.476	n/a	WORD	230238	wordpools/wasnorm_wordpool_576.txt	LTP133	ltpFR2	23	1	PARSLEY	1016	n/a	n/a	0	0	0
462.896	n/a	WORD	231448	wordpools/wasnorm_wordpool_576.txt	LTP133	ltpFR2	23	1	RELISH	1183	n/a	n/a	0	0	0
465.682	n/a	WORD	232841	wordpools/wasnorm_wordpool_576.txt	LTP133	ltpFR2	23	1	SPINACH	1352	n/a	n/a	0	0	0
468.3	n/a	WORD	234150	wordpools/wasnorm_wordpool_576.txt	LTP133	ltpFR2	23	1	BUTLER	204	n/a	n/a	0	0	0
471.02	n/a	WORD	235510	wordpools/wasnorm_wordpool_576.txt	LTP133	ltpFR2	23	1	CHEMIST	292	n/a	n/a	0	0	0
473.488	n/a	WORD	236744	wordpools/wasnorm_wordpool_576.txt	LTP133	ltpFR2	23	1	APRON	35	n/a	n/a	0	0	0
476.19	n/a	WORD	238095	wordpools/wasnorm_wordpool_576.txt	LTP133	ltpFR2	23	1	COOKBOOK	373	n/a	n/a	0	0	0
478.742	n/a	WORD	239371	wordpools/wasnorm_wordpool_576.txt	LTP133	ltpFR2	23	1	MONGOOSE	909	n/a	n/a	0	0	0
481.328	n/a	WORD	240664	wordpools/wasnorm_wordpool_576.txt	LTP133	ltpFR2	23	1	LAGOON	795	n/a	n/a	0	0	0
483.88	n/a	WORD	241940	wordpools/wasnorm_wordpool_576.txt	LTP133	ltpFR2	23	1	COLLEGE	346	n/a	n/a	0	0	0
486.464	n/a	WORD	243232	wordpools/wasnorm_wordpool_576.txt	LTP133	ltpFR2	23	1	STUMP	1396	n/a	n/a	0	0	0
489.234	n/a	WORD	244617	wordpools/wasnorm_wordpool_576.txt	LTP133	ltpFR2	23	1	PORCH	1106	n/a	n/a	0	0	0
491.72	n/a	WORD	245860	wordpools/wasnorm_wordpool_576.txt	LTP133	ltpFR2	23	1	WINGS	1614	n/a	n/a	0	0	0
494.154	n/a	WORD	247077	wordpools/wasnorm_wordpool_576.txt	LTP133	ltpFR2	23	1	SLIDE	1326	n/a	n/a	0	0	0
496.774	n/a	WORD	248387	wordpools/wasnorm_wordpool_576.txt	LTP133	ltpFR2	23	1	STAPLE	1371	n/a	n/a	0	0	0
499.424	n/a	WORD	249712	wordpools/wasnorm_wordpool_576.txt	LTP133	ltpFR2	23	1	PAPER	1011	n/a	n/a	0	0	0
501.978	n/a	WORD	250989	wordpools/wasnorm_wordpool_576.txt	LTP133	ltpFR2	23	1	BINDER	127	n/a	n/a	0	0	0
503.58	n/a	START	251790	n/a	LTP133	ltpFR2	23	n/a	n/a	n/a	2	n/a	n/a	n/a	n/a
504.488	n/a	DISTRACTOR	252244	n/a	LTP133	ltpFR2	23	1	n/a	n/a	n/a	n/a	0	0	0
504.496	n/a	PROB	252248	n/a	LTP133	ltpFR2	23	n/a	n/a	n/a	2	14	6	3	5
506.364	n/a	PROB	253182	n/a	LTP133	ltpFR2	23	n/a	n/a	n/a	2	16	8	5	3
507.598	n/a	PROB	253799	n/a	LTP133	ltpFR2	23	n/a	n/a	n/a	2	10	6	1	3
508.916	n/a	PROB	254458	n/a	LTP133	ltpFR2	23	n/a	n/a	n/a	2	15	5	2	8
510.4	n/a	PROB	255200	n/a	LTP133	ltpFR2	23	n/a	n/a	n/a	2	20	9	9	2
511.586	n/a	PROB	255793	n/a	LTP133	ltpFR2	23	n/a	n/a	n/a	2	8	3	1	4
512.786	n/a	PROB	256393	n/a	LTP133	ltpFR2	23	n/a	n/a	n/a	2	11	3	6	2
513.904	n/a	PROB	256952	n/a	LTP133	ltpFR2	23	n/a	n/a	n/a	2	23	9	6	8
515.722	n/a	PROB	257861	n/a	LTP133	ltpFR2	23	n/a	n/a	n/a	2	23	5	9	9
517.488	n/a	PROB	258744	n/a	LTP133	ltpFR2	23	n/a	n/a	n/a	2	19	6	8	5
518.892	n/a	PROB	259446	n/a	LTP133	ltpFR2	23	n/a	n/a	n/a	2	185	7	7	4
519.926	n/a	PROB	259963	n/a	LTP133	ltpFR2	23	n/a	n/a	n/a	2	17	9	2	6
522.476	n/a	PROB	261238	n/a	LTP133	ltpFR2	23	n/a	n/a	n/a	2	18	6	6	6
523.612	n/a	PROB	261806	n/a	LTP133	ltpFR2	23	n/a	n/a	n/a	2	24	7	9	8
526.194	n/a	STOP	263097	n/a	LTP133	ltpFR2	23	n/a	n/a	n/a	2	n/a	n/a	n/a	n/a
529.4	n/a	REC_START	264700	n/a	LTP133	ltpFR2	23	1	n/a	n/a	n/a	n/a	0	0	0
531.55	n/a	REC_WORD	265775	wordpools/wasnorm_wordpool_576.txt	LTP133	ltpFR2	23	1	PORCH	1106	n/a	n/a	0	0	0
532.5	n/a	REC_WORD	266250	wordpools/wasnorm_wordpool_576.txt	LTP133	ltpFR2	23	1	WINGS	1614	n/a	n/a	0	0	0
533.332	n/a	REC_WORD	266666	wordpools/wasnorm_wordpool_576.txt	LTP133	ltpFR2	23	1	SLIDE	1326	n/a	n/a	0	0	0
534.598	n/a	REC_WORD	267299	wordpools/wasnorm_wordpool_576.txt	LTP133	ltpFR2	23	1	STAPLE	1371	n/a	n/a	0	0	0
535.59	n/a	REC_WORD	267795	wordpools/wasnorm_wordpool_576.txt	LTP133	ltpFR2	23	1	PAPER	1011	n/a	n/a	0	0	0
536.79	n/a	REC_WORD	268395	wordpools/wasnorm_wordpool_576.txt	LTP133	ltpFR2	23	1	BLENDER	136	n/a	n/a	0	0	0
538.55	n/a	REC_WORD	269275	wordpools/wasnorm_wordpool_576.txt	LTP133	ltpFR2	23	1	BUTLER	204	n/a	n/a	0	0	0
539.314	n/a	REC_WORD	269657	wordpools/wasnorm_wordpool_576.txt	LTP133	ltpFR2	23	1	SPINACH	1352	n/a	n/a	0	0	0
540.47	n/a	REC_WORD	270235	wordpools/wasnorm_wordpool_576.txt	LTP133	ltpFR2	23	1	CHEMIST	292	n/a	n/a	0	0	0
542.518	n/a	REC_WORD	271259	wordpools/wasnorm_wordpool_576.txt	LTP133	ltpFR2	23	1	COOKBOOK	373	n/a	n/a	0	0	0
543.454	n/a	REC_WORD	271727	wordpools/wasnorm_wordpool_576.txt	LTP133	ltpFR2	23	1	APRON	35	n/a	n/a	0	0	0
555.506	n/a	REC_WORD	277753	wordpools/wasnorm_wordpool_576.txt	LTP133	ltpFR2	23	1	PARSLEY	1016	n/a	n/a	0	0	0
556.386	n/a	REC_WORD	278193	wordpools/wasnorm_wordpool_576.txt	LTP133	ltpFR2	23	1	RELISH	1183	n/a	n/a	0	0	0
557.522	n/a	REC_WORD	278761	wordpools/wasnorm_wordpool_576.txt	LTP133	ltpFR2	23	1	NOVEL	960	n/a	n/a	0	0	0
561.44	n/a	REC_WORD	280720	wordpools/wasnorm_wordpool_576.txt	LTP133	ltpFR2	23	1	LAGOON	795	n/a	n/a	0	0	0
562.21	n/a	REC_WORD	281105	wordpools/wasnorm_wordpool_576.txt	LTP133	ltpFR2	23	1	STUMP	1396	n/a	n/a	0	0	0
563.168	n/a	REC_WORD	281584	wordpools/wasnorm_wordpool_576.txt	LTP133	ltpFR2	23	1	COLLEGE	346	n/a	n/a	0	0	0
569.524	n/a	REC_WORD	284762	wordpools/wasnorm_wordpool_576.txt	LTP133	ltpFR2	23	1	SHERIFF	1284	n/a	n/a	0	0	0
570.388	n/a	REC_WORD	285194	wordpools/wasnorm_wordpool_576.txt	LTP133	ltpFR2	23	1	MEADOW	881	n/a	n/a	0	0	0
571.086	n/a	REC_WORD	285543	wordpools/wasnorm_wordpool_576.txt	LTP133	ltpFR2	23	1	CEILING	265	n/a	n/a	0	0	0
619.822	n/a	DISTRACTOR	309911	n/a	LTP133	ltpFR2	23	2	n/a	n/a	n/a	n/a	0	0	0
619.824	n/a	START	309912	n/a	LTP133	ltpFR2	23	n/a	n/a	n/a	3	n/a	n/a	n/a	n/a
619.84	n/a	PROB	309920	n/a	LTP133	ltpFR2	23	n/a	n/a	n/a	3	6	4	1	1
620.874	n/a	PROB	310437	n/a	LTP133	ltpFR2	23	n/a	n/a	n/a	3	17	5	9	3
622.274	n/a	PROB	311137	n/a	LTP133	ltpFR2	23	n/a	n/a	n/a	3	13	6	1	6
623.792	n/a	PROB	311896	n/a	LTP133	ltpFR2	23	n/a	n/a	n/a	3	8	1	6	1
624.826	n/a	PROB	312413	n/a	LTP133	ltpFR2	23	n/a	n/a	n/a	3	16	8	3	5
626.094	n/a	PROB	313047	n/a	LTP133	ltpFR2	23	n/a	n/a	n/a	3	21	7	7	7
627.128	n/a	PROB	313564	n/a	LTP133	ltpFR2	23	n/a	n/a	n/a	3	10	1	3	6
628.38	n/a	PROB	314190	n/a	LTP133	ltpFR2	23	n/a	n/a	n/a	3	13	8	2	3
629.73	n/a	PROB	314865	n/a	LTP133	ltpFR2	23	n/a	n/a	n/a	3	12	6	5	1
630.816	n/a	PROB	315408	n/a	LTP133	ltpFR2	23	n/a	n/a	n/a	3	19	1	9	9
631.966	n/a	PROB	315983	n/a	LTP133	ltpFR2	23	n/a	n/a	n/a	3	23	7	8	8
633.184	n/a	PROB	316592	n/a	LTP133	ltpFR2	23	n/a	n/a	n/a	3	8	2	1	5
634.368	n/a	PROB	317184	n/a	LTP133	ltpFR2	23	n/a	n/a	n/a	3	24	8	7	9
635.72	n/a	PROB	317860	n/a	LTP133	ltpFR2	23	n/a	n/a	n/a	3	14	3	5	6
637.054	n/a	PROB	318527	n/a	LTP133	ltpFR2	23	n/a	n/a	n/a	3	22	8	9	5
638.538	n/a	PROB	319269	n/a	LTP133	ltpFR2	23	n/a	n/a	n/a	3	12	2	8	2
639.856	n/a	PROB	319928	n/a	LTP133	ltpFR2	23	n/a	n/a	n/a	3	15	4	9	2
641.174	n/a	PROB	320587	n/a	LTP133	ltpFR2	23	n/a	n/a	n/a	3	15	9	2	4
642.438	n/a	STOP	321219	n/a	LTP133	ltpFR2	23	n/a	n/a	n/a	3	n/a	n/a	n/a	n/a
644.944	n/a	WORD	322472	wordpools/wasnorm_wordpool_576.txt	LTP133	ltpFR2	23	2	TROUT	1511	n/a	n/a	0	0	0
647.444	n/a	WORD	323722	wordpools/wasnorm_wordpool_576.txt	LTP133	ltpFR2	23	2	TRIGGER	1507	n/a	n/a	0	0	0
650.13	n/a	WORD	325065	wordpools/wasnorm_wordpool_576.txt	LTP133	ltpFR2	23	2	SHIRT	1287	n/a	n/a	0	0	0
652.7	n/a	WORD	326350	wordpools/wasnorm_wordpool_576.txt	LTP133	ltpFR2	23	2	ONION	977	n/a	n/a	0	0	0
655.252	n/a	WORD	327626	wordpools/wasnorm_wordpool_576.txt	LTP133	ltpFR2	23	2	SNACK	1331	n/a	n/a	0	0	0
657.97	n/a	WORD	328985	wordpools/wasnorm_wordpool_576.txt	LTP133	ltpFR2	23	2	BOUILLON	154	n/a	n/a	0	0	0
660.722	n/a	WORD	330361	wordpools/wasnorm_wordpool_576.txt	LTP133	ltpFR2	23	2	FOLDER	588	n/a	n/a	0	0	0
663.44	n/a	WORD	331720	wordpools/wasnorm_wordpool_576.txt	LTP133	ltpFR2	23	2	CONCRETE	361	n/a	n/a	0	0	0
665.926	n/a	WORD	332963	wordpools/wasnorm_wordpool_576.txt	LTP133	ltpFR2	23	2	KNIFE	785	n/a	n/a	0	0	0
668.478	n/a	WORD	334239	wordpools/wasnorm_wordpool_576.txt	LTP133	ltpFR2	23	2	SCALPEL	1243	n/a	n/a	0	0	0
670.98	n/a	WORD	335490	wordpools/wasnorm_wordpool_576.txt	LTP133	ltpFR2	23	2	NEPHEW	942	n/a	n/a	0	0	0
673.7	n/a	WORD	336850	wordpools/wasnorm_wordpool_576.txt	LTP133	ltpFR2	23	2	FARM	552	n/a	n/a	0	0	0
676.318	n/a	WORD	338159	wordpools/wasnorm_wordpool_576.txt	LTP133	ltpFR2	23	2	COBWEB	337	n/a	n/a	0	0	0
678.904	n/a	WORD	339452	wordpools/wasnorm_wordpool_576.txt	LTP133	ltpFR2	23	2	AIRPORT	13	n/a	n/a	0	0	0
681.672	n/a	WORD	340836	wordpools/wasnorm_wordpool_576.txt	LTP133	ltpFR2	23	2	PILOT	1070	n/a	n/a	0	0	0
684.174	n/a	WORD	342087	wordpools/wasnorm_wordpool_576.txt	LTP133	ltpFR2	23	2	MISSILE	900	n/a	n/a	0	0	0
686.644	n/a	WORD	343322	wordpools/wasnorm_wordpool_576.txt	LTP133	ltpFR2	23	2	COUNTRY	388	n/a	n/a	0	0	0
689.112	n/a	WORD	344556	wordpools/wasnorm_wordpool_576.txt	LTP133	ltpFR2	23	2	STOMACH	1384	n/a	n/a	0	0	0
691.798	n/a	WORD	345899	wordpools/wasnorm_wordpool_576.txt	LTP133	ltpFR2	23	2	ZIPPER	1636	n/a	n/a	0	0	0
694.498	n/a	WORD	347249	wordpools/wasnorm_wordpool_576.txt	LTP133	ltpFR2	23	2	BATHROOM	99	n/a	n/a	0	0	0
697.118	n/a	WORD	348559	wordpools/wasnorm_wordpool_576.txt	LTP133	ltpFR2	23	2	STAKE	1368	n/a	n/a	0	0	0
699.904	n/a	WORD	349952	wordpools/wasnorm_wordpool_576.txt	LTP133	ltpFR2	23	2	KNAPSACK	783	n/a	n/a	0	0	0
702.454	n/a	WORD	351227	wordpools/wasnorm_wordpool_576.txt	LTP133	ltpFR2	23	2	SUPPER	1411	n/a	n/a	0	0	0
705.092	n/a	WORD	352546	wordpools/wasnorm_wordpool_576.txt	LTP133	ltpFR2	23	2	BABY	64	n/a	n/a	0	0	0
706.692	n/a	START	353346	n/a	LTP133	ltpFR2	23	n/a	n/a	n/a	4	n/a	n/a	n/a	n/a
707.784	n/a	DISTRACTOR	353892	n/a	LTP133	ltpFR2	23	2	n/a	n/a	n/a	n/a	0	0	0
707.794	n/a	PROB	353897	n/a	LTP133	ltpFR2	23	n/a	n/a	n/a	4	3	1	1	1
709.112	n/a	PROB	354556	n/a	LTP133	ltpFR2	23	n/a	n/a	n/a	4	20	5	6	9
711.896	n/a	PROB	355948	n/a	LTP133	ltpFR2	23	n/a	n/a	n/a	4	18	8	3	7
713.164	n/a	PROB	356582	n/a	LTP133	ltpFR2	23	n/a	n/a	n/a	4	10	1	7	2
714.532	n/a	PROB	357266	n/a	LTP133	ltpFR2	23	n/a	n/a	n/a	4	18	3	6	9
716.084	n/a	PROB	358042	n/a	LTP133	ltpFR2	23	n/a	n/a	n/a	4	22	8	9	5
717.384	n/a	PROB	358692	n/a	LTP133	ltpFR2	23	n/a	n/a	n/a	4	7	3	3	1
718.586	n/a	PROB	359293	n/a	LTP133	ltpFR2	23	n/a	n/a	n/a	4	14	8	5	1
720.154	n/a	PROB	360077	n/a	LTP133	ltpFR2	23	n/a	n/a	n/a	4	17	8	3	6
721.754	n/a	PROB	360877	n/a	LTP133	ltpFR2	23	n/a	n/a	n/a	4	19	5	8	6
723.622	n/a	PROB	361811	n/a	LTP133	ltpFR2	23	n/a	n/a	n/a	4	15	5	3	7
724.99	n/a	PROB	362495	n/a	LTP133	ltpFR2	23	n/a	n/a	n/a	4	23	8	6	9
726.324	n/a	PROB	363162	n/a	LTP133	ltpFR2	23	n/a	n/a	n/a	4	12	2	5	5
727.71	n/a	PROB	363855	n/a	LTP133	ltpFR2	23	n/a	n/a	n/a	4	19	9	3	7
730.692	n/a	STOP	365346	n/a	LTP133	ltpFR2	23	n/a	n/a	n/a	4	n/a	n/a	n/a	n/a
732.58	n/a	REC_START	366290	n/a	LTP133	ltpFR2	23	2	n/a	n/a	n/a	n/a	0	0	0
734.192	n/a	REC_WORD	367096	wordpools/wasnorm_wordpool_576.txt	LTP133	ltpFR2	23	2	ZIPPER	1636	n/a	n/a	0	0	0
735.132	n/a	REC_WORD	367566	wordpools/wasnorm_wordpool_576.txt	LTP133	ltpFR2	23	2	BATHROOM	99	n/a	n/a	0	0	0
740.362	n/a	REC_WORD	370181	wordpools/wasnorm_wordpool_576.txt	LTP133	ltpFR2	23	2	KNAPSACK	783	n/a	n/a	0	0	0
741.28	n/a	REC_WORD	370640	wordpools/wasnorm_wordpool_576.txt	LTP133	ltpFR2	23	2	BABY	64	n/a	n/a	0	0	0
742.472	n/a	REC_WORD	371236	wordpools/wasnorm_wordpool_576.txt	LTP133	ltpFR2	23	2	SUPPER	1411	n/a	n/a	0	0	0
744.004	n/a	REC_WORD	372002	wordpools/wasnorm_wordpool_576.txt	LTP133	ltpFR2	23	2	SCALPEL	1243	n/a	n/a	0	0	0
745.062	n/a	REC_WORD	372531	wordpools/wasnorm_wordpool_576.txt	LTP133	ltpFR2	23	2	NEPHEW	942	n/a	n/a	0	0	0
745.97	n/a	REC_WORD	372985	wordpools/wasnorm_wordpool_576.txt	LTP133	ltpFR2	23	2	FARM	552	n/a	n/a	0	0	0
749.12	n/a	REC_WORD	374560	wordpools/wasnorm_wordpool_576.txt	LTP133	ltpFR2	23	2	CONCRETE	361	n/a	n/a	0	0	0
750.12	n/a	REC_WORD_VV	375060	wordpools/wasnorm_wordpool_576.txt	LTP133	ltpFR2	23	2	<>	-1	n/a	n/a	0	0	0
880.316	n/a	DISTRACTOR	440158	n/a	LTP133	ltpFR2	23	3	n/a	n/a	n/a	n/a	0	0	0
880.316	n/a	START	440158	n/a	LTP133	ltpFR2	23	n/a	n/a	n/a	5	n/a	n/a	n/a	n/a
880.332	n/a	PROB	440166	n/a	LTP133	ltpFR2	23	n/a	n/a	n/a	5	18	4	9	5
881.634	n/a	PROB	440817	n/a	LTP133	ltpFR2	23	n/a	n/a	n/a	5	14	5	7	2
882.952	n/a	PROB	441476	n/a	LTP133	ltpFR2	23	n/a	n/a	n/a	5	18	3	8	7
884.07	n/a	PROB	442035	n/a	LTP133	ltpFR2	23	n/a	n/a	n/a	5	16	9	1	6
885.136	n/a	PROB	442568	n/a	LTP133	ltpFR2	23	n/a	n/a	n/a	5	14	4	3	7
886.404	n/a	PROB	443202	n/a	LTP133	ltpFR2	23	n/a	n/a	n/a	5	16	1	6	9
887.972	n/a	PROB	443986	n/a	LTP133	ltpFR2	23	n/a	n/a	n/a	5	14	2	5	7
889.306	n/a	PROB	444653	n/a	LTP133	ltpFR2	23	n/a	n/a	n/a	5	15	9	1	5
890.658	n/a	PROB	445329	n/a	LTP133	ltpFR2	23	n/a	n/a	n/a	5	14	7	1	6
891.958	n/a	PROB	445979	n/a	LTP133	ltpFR2	23	n/a	n/a	n/a	5	16	4	7	5
893.16	n/a	PROB	446580	n/a	LTP133	ltpFR2	23	n/a	n/a	n/a	5	14	6	7	1
894.76	n/a	PROB	447380	n/a	LTP133	ltpFR2	23	n/a	n/a	n/a	5	9	4	1	4
896.246	n/a	PROB	448123	n/a	LTP133	ltpFR2	23	n/a	n/a	n/a	5	24	9	8	7
897.696	n/a	PROB	448848	n/a	LTP133	ltpFR2	23	n/a	n/a	n/a	5	6	2	3	1
898.73	n/a	PROB	449365	n/a	LTP133	ltpFR2	23	n/a	n/a	n/a	5	14	6	4	4
900.032	n/a	PROB	450016	n/a	LTP133	ltpFR2	23	n/a	n/a	n/a	5	21	9	4	8
901.632	n/a	PROB	450816	n/a	LTP133	ltpFR2	23	n/a	n/a	n/a	5	14	4	4	6
903.034	n/a	STOP	451517	n/a	LTP133	ltpFR2	23	n/a	n/a	n/a	5	n/a	n/a	n/a	n/a
905.252	n/a	WORD	452626	wordpools/wasnorm_wordpool_576.txt	LTP133	ltpFR2	23	3	TROPHY	1509	n/a	n/a	0	0	0
907.938	n/a	WORD	453969	wordpools/wasnorm_wordpool_576.txt	LTP133	ltpFR2	23	3	LIGHTNING	820	n/a	n/a	0	0	0
910.64	n/a	WORD	455320	wordpools/wasnorm_wordpool_576.txt	LTP133	ltpFR2	23	3	BANDAGE	79	n/a	n/a	0	0	0
913.408	n/a	WORD	456704	wordpools/wasnorm_wordpool_576.txt	LTP133	ltpFR2	23	3	STATUE	1374	n/a	n/a	0	0	0
916.178	n/a	WORD	458089	wordpools/wasnorm_wordpool_576.txt	LTP133	ltpFR2	23	3	ANGEL	22	n/a	n/a	0	0	0
918.764	n/a	WORD	459382	wordpools/wasnorm_wordpool_576.txt	LTP133	ltpFR2	23	3	ROD	1203	n/a	n/a	0	0	0
921.566	n/a	WORD	460783	wordpools/wasnorm_wordpool_576.txt	LTP133	ltpFR2	23	3	FLOWER	584	n/a	n/a	0	0	0
924.084	n/a	WORD	462042	wordpools/wasnorm_wordpool_576.txt	LTP133	ltpFR2	23	3	BOUQUET	157	n/a	n/a	0	0	0
926.57	n/a	WORD	463285	wordpools/wasnorm_wordpool_576.txt	LTP133	ltpFR2	23	3	FRIES	607	n/a	n/a	0	0	0
929.322	n/a	WORD	464661	wordpools/wasnorm_wordpool_576.txt	LTP133	ltpFR2	23	3	PENCIL	1042	n/a	n/a	0	0	0
931.808	n/a	WORD	465904	wordpools/wasnorm_wordpool_576.txt	LTP133	ltpFR2	23	3	WORLD	1622	n/a	n/a	0	0	0
934.31	n/a	WORD	467155	wordpools/wasnorm_wordpool_576.txt	LTP133	ltpFR2	23	3	SNOB	1335	n/a	n/a	0	0	0
937.028	n/a	WORD	468514	wordpools/wasnorm_wordpool_576.txt	LTP133	ltpFR2	23	3	LIVER	833	n/a	n/a	0	0	0
939.714	n/a	WORD	469857	wordpools/wasnorm_wordpool_576.txt	LTP133	ltpFR2	23	3	KIDNEY	776	n/a	n/a	0	0	0
942.216	n/a	WORD	471108	wordpools/wasnorm_wordpool_576.txt	LTP133	ltpFR2	23	3	SEAL	1262	n/a	n/a	0	0	0
944.902	n/a	WORD	472451	wordpools/wasnorm_wordpool_576.txt	LTP133	ltpFR2	23	3	CHICKEN	297	n/a	n/a	0	0	0
947.57	n/a	WORD	473785	wordpools/wasnorm_wordpool_576.txt	LTP133	ltpFR2	23	3	ATLAS	53	n/a	n/a	0	0	0
950.372	n/a	WORD	475186	wordpools/wasnorm_wordpool_576.txt	LTP133	ltpFR2	23	3	TRIBE	1505	n/a	n/a	0	0	0
953.008	n/a	WORD	476504	wordpools/wasnorm_wordpool_576.txt	LTP133	ltpFR2	23	3	FRAGRANCE	599	n/a	n/a	0	0	0
955.742	n/a	WORD	477871	wordpools/wasnorm_wordpool_576.txt	LTP133	ltpFR2	23	3	IDOL	733	n/a	n/a	0	0	0
958.312	n/a	WORD	479156	wordpools/wasnorm_wordpool_576.txt	LTP133	ltpFR2	23	3	VICTOR	1563	n/a	n/a	0	0	0
961.08	n/a	WORD	480540	wordpools/wasnorm_wordpool_576.txt	LTP133	ltpFR2	23	3	RUG	1215	n/a	n/a	0	0	0
963.566	n/a	WORD	481783	wordpools/wasnorm_wordpool_576.txt	LTP133	ltpFR2	23	3	MOP	916	n/a	n/a	0	0	0
966.284	n/a	WORD	483142	wordpools/wasnorm_wordpool_576.txt	LTP133	ltpFR2	23	3	GIRL	637	n/a	n/a	0	0	0
967.886	n/a	START	483943	n/a	LTP133	ltpFR2	23	n/a	n/a	n/a	6	n/a	n/a	n/a	n/a
968.722	n/a	DISTRACTOR	484361	n/a	LTP133	ltpFR2	23	3	n/a	n/a	n/a	n/a	0	0	0
968.736	n/a	PROB	484368	n/a	LTP133	ltpFR2	23	n/a	n/a	n/a	6	9	1	4	4
970.138	n/a	PROB	485069	n/a	LTP133	ltpFR2	23	n/a	n/a	n/a	6	24	8	7	9
971.856	n/a	PROB	485928	n/a	LTP133	ltpFR2	23	n/a	n/a	n/a	6	12	7	1	4
973.14	n/a	PROB	486570	n/a	LTP133	ltpFR2	23	n/a	n/a	n/a	6	10	2	4	4
974.508	n/a	PROB	487254	n/a	LTP133	ltpFR2	23	n/a	n/a	n/a	6	15	2	4	9
975.842	n/a	PROB	487921	n/a	LTP133	ltpFR2	23	n/a	n/a	n/a	6	12	5	6	1
977.044	n/a	PROB	488522	n/a	LTP133	ltpFR2	23	n/a	n/a	n/a	6	15	6	1	8
978.562	n/a	PROB	489281	n/a	LTP133	ltpFR2	23	n/a	n/a	n/a	6	19	8	4	7
980.364	n/a	PROB	490182	n/a	LTP133	ltpFR2	23	n/a	n/a	n/a	6	13	7	2	4
981.832	n/a	PROB	490916	n/a	LTP133	ltpFR2	23	n/a	n/a	n/a	6	19	9	2	8
983.184	n/a	PROB	491592	n/a	LTP133	ltpFR2	23	n/a	n/a	n/a	6	1	3	5	9
988.306	n/a	PROB	494153	n/a	LTP133	ltpFR2	23	n/a	n/a	n/a	6	23	9	8	6
991.822	n/a	STOP	495911	n/a	LTP133	ltpFR2	23	n/a	n/a	n/a	6	n/a	n/a	n/a	n/a
993.694	n/a	REC_START	496847	n/a	LTP133	ltpFR2	23	3	n/a	n/a	n/a	n/a	0	0	0
996.582	n/a	REC_WORD	498291	wordpools/wasnorm_wordpool_576.txt	LTP133	ltpFR2	23	3	RUG	1215	n/a	n/a	0	0	0
997.766	n/a	REC_WORD	498883	wordpools/wasnorm_wordpool_576.txt	LTP133	ltpFR2	23	3	MOP	916	n/a	n/a	0	0	0
998.904	n/a	REC_WORD	499452	wordpools/wasnorm_wordpool_576.txt	LTP133	ltpFR2	23	3	GIRL	637	n/a	n/a	0	0	0
1000.256	n/a	REC_WORD	500128	wordpools/wasnorm_wordpool_576.txt	LTP133	ltpFR2	23	3	VICTOR	1563	n/a	n/a	0	0	0
1001.418	n/a	REC_WORD	500709	wordpools/wasnorm_wordpool_576.txt	LTP133	ltpFR2	23	3	IDOL	733	n/a	n/a	0	0	0
1002.47	n/a	REC_WORD	501235	wordpools/wasnorm_wordpool_576.txt	LTP133	ltpFR2	23	3	FRAGRANCE	599	n/a	n/a	0	0	0
1007.376	n/a	REC_WORD	503688	wordpools/wasnorm_wordpool_576.txt	LTP133	ltpFR2	23	3	CHICKEN	297	n/a	n/a	0	0	0
1008.342	n/a	REC_WORD	504171	wordpools/wasnorm_wordpool_576.txt	LTP133	ltpFR2	23	3	ATLAS	53	n/a	n/a	0	0	0
1009.398	n/a	REC_WORD	504699	wordpools/wasnorm_wordpool_576.txt	LTP133	ltpFR2	23	3	TRIBE	1505	n/a	n/a	0	0	0
1011.19	n/a	REC_WORD	505595	wordpools/wasnorm_wordpool_576.txt	LTP133	ltpFR2	23	3	LIVER	833	n/a	n/a	0	0	0
1012.126	n/a	REC_WORD	506063	wordpools/wasnorm_wordpool_576.txt	LTP133	ltpFR2	23	3	KIDNEY	776	n/a	n/a	0	0	0
1013.104	n/a	REC_WORD	506552	wordpools/wasnorm_wordpool_576.txt	LTP133	ltpFR2	23	3	SEAL	1262	n/a	n/a	0	0	0
1051.312	n/a	REC_WORD	525656	wordpools/wasnorm_wordpool_576.txt	LTP133	ltpFR2	23	3	FLOWER	584	n/a	n/a	0	0	0
1052.752	n/a	REC_WORD	526376	wordpools/wasnorm_wordpool_576.txt	LTP133	ltpFR2	23	3	BOUQUET	157	n/a	n/a	0	0	0
1063.252	n/a	REC_WORD	531626	wordpools/wasnorm_wordpool_576.txt	LTP133	ltpFR2	23	3	TROPHY	1509	n/a	n/a	0	0	0
1064.198	n/a	REC_WORD	532099	wordpools/wasnorm_wordpool_576.txt	LTP133	ltpFR2	23	3	LIGHTNING	820	n/a	n/a	0	0	0
1065.358	n/a	REC_WORD	532679	wordpools/wasnorm_wordpool_576.txt	LTP133	ltpFR2	23	3	ROD	1203	n/a	n/a	0	0	0
1066.4	n/a	REC_WORD	533200	wordpools/wasnorm_wordpool_576.txt	LTP133	ltpFR2	23	3	STATUE	1374	n/a	n/a	0	0	0
1067.348	n/a	REC_WORD	533674	wordpools/wasnorm_wordpool_576.txt	LTP133	ltpFR2	23	3	ANGEL	22	n/a	n/a	0	0	0
1135.206	n/a	WORD	567603	wordpools/wasnorm_wordpool_576.txt	LTP133	ltpFR2	23	4	TOOTHBRUSH	1482	n/a	n/a	0	0	0
1137.81	n/a	WORD	568905	wordpools/wasnorm_wordpool_576.txt	LTP133	ltpFR2	23	4	TURNIP	1521	n/a	n/a	0	0	0
1140.362	n/a	WORD	570181	wordpools/wasnorm_wordpool_576.txt	LTP133	ltpFR2	23	4	RABBIT	1152	n/a	n/a	0	0	0
1143.098	n/a	WORD	571549	wordpools/wasnorm_wordpool_576.txt	LTP133	ltpFR2	23	4	BLUEJAY	141	n/a	n/a	0	0	0
1145.8	n/a	WORD	572900	wordpools/wasnorm_wordpool_576.txt	LTP133	ltpFR2	23	4	PROTON	1132	n/a	n/a	0	0	0
1148.316	n/a	WORD	574158	wordpools/wasnorm_wordpool_576.txt	LTP133	ltpFR2	23	4	FLASK	576	n/a	n/a	0	0	0
1151.004	n/a	WORD	575502	wordpools/wasnorm_wordpool_576.txt	LTP133	ltpFR2	23	4	CRADLE	399	n/a	n/a	0	0	0
1153.604	n/a	WORD	576802	wordpools/wasnorm_wordpool_576.txt	LTP133	ltpFR2	23	4	TAXI	1438	n/a	n/a	0	0	0
1156.174	n/a	WORD	578087	wordpools/wasnorm_wordpool_576.txt	LTP133	ltpFR2	23	4	SUGAR	1401	n/a	n/a	0	0	0
1158.91	n/a	WORD	579455	wordpools/wasnorm_wordpool_576.txt	LTP133	ltpFR2	23	4	JOINT	758	n/a	n/a	0	0	0
1161.728	n/a	WORD	580864	wordpools/wasnorm_wordpool_576.txt	LTP133	ltpFR2	23	4	LAPEL	800	n/a	n/a	0	0	0
1164.348	n/a	WORD	582174	wordpools/wasnorm_wordpool_576.txt	LTP133	ltpFR2	23	4	VIKING	1565	n/a	n/a	0	0	0
1166.848	n/a	WORD	583424	wordpools/wasnorm_wordpool_576.txt	LTP133	ltpFR2	23	4	CABBAGE	210	n/a	n/a	0	0	0
1169.618	n/a	WORD	584809	wordpools/wasnorm_wordpool_576.txt	LTP133	ltpFR2	23	4	FEATHER	557	n/a	n/a	0	0	0
1172.454	n/a	WORD	586227	wordpools/wasnorm_wordpool_576.txt	LTP133	ltpFR2	23	4	MOTOR	922	n/a	n/a	0	0	0
1175.206	n/a	WORD	587603	wordpools/wasnorm_wordpool_576.txt	LTP133	ltpFR2	23	4	PLAZA	1088	n/a	n/a	0	0	0
1177.742	n/a	WORD	588871	wordpools/wasnorm_wordpool_576.txt	LTP133	ltpFR2	23	4	MARKET	871	n/a	n/a	0	0	0
1180.492	n/a	WORD	590246	wordpools/wasnorm_wordpool_576.txt	LTP133	ltpFR2	23	4	LASER	801	n/a	n/a	0	0	0
1183.264	n/a	WORD	591632	wordpools/wasnorm_wordpool_576.txt	LTP133	ltpFR2	23	4	FUNGUS	614	n/a	n/a	0	0	0
1185.698	n/a	WORD	592849	wordpools/wasnorm_wordpool_576.txt	LTP133	ltpFR2	23	4	BLOSSOM	138	n/a	n/a	0	0	0
1188.466	n/a	WORD	594233	wordpools/wasnorm_wordpool_576.txt	LTP133	ltpFR2	23	4	SHACK	1273	n/a	n/a	0	0	0
1191.104	n/a	WORD	595552	wordpools/wasnorm_wordpool_576.txt	LTP133	ltpFR2	23	4	TOMBSTONE	1478	n/a	n/a	0	0	0
1193.804	n/a	WORD	596902	wordpools/wasnorm_wordpool_576.txt	LTP133	ltpFR2	23	4	CHAUFFEUR	283	n/a	n/a	0	0	0
1196.424	n/a	WORD	598212	wordpools/wasnorm_wordpool_576.txt	LTP133	ltpFR2	23	4	GREASE	660	n/a	n/a	0	0	0
1198.042	n/a	START	599021	n/a	LTP133	ltpFR2	23	n/a	n/a	n/a	7	n/a	n/a	n/a	n/a
1199.236	n/a	DISTRACTOR	599618	n/a	LTP133	ltpFR2	23	4	n/a	n/a	n/a	n/a	0	0	0
1199.242	n/a	PROB	599621	n/a	LTP133	ltpFR2	23	n/a	n/a	n/a	7	9	5	2	2
1200.56	n/a	PROB	600280	n/a	LTP133	ltpFR2	23	n/a	n/a	n/a	7	7	2	3	2
1202.276	n/a	PROB	601138	n/a	LTP133	ltpFR2	23	n/a	n/a	n/a	7	18	8	1	9
1203.478	n/a	PROB	601739	n/a	LTP133	ltpFR2	23	n/a	n/a	n/a	7	12	2	5	5
1204.88	n/a	PROB	602440	n/a	LTP133	ltpFR2	23	n/a	n/a	n/a	7	21	7	6	8
1206.348	n/a	PROB	603174	n/a	LTP133	ltpFR2	23	n/a	n/a	n/a	7	18	7	7	4
1207.716	n/a	PROB	603858	n/a	LTP133	ltpFR2	23	n/a	n/a	n/a	7	12	6	2	4
1209.35	n/a	PROB	604675	n/a	LTP133	ltpFR2	23	n/a	n/a	n/a	7	10	1	3	6
1210.7	n/a	PROB	605350	n/a	LTP133	ltpFR2	23	n/a	n/a	n/a	7	16	2	9	5
1212.068	n/a	PROB	606034	n/a	LTP133	ltpFR2	23	n/a	n/a	n/a	7	20	5	6	9
1213.786	n/a	PROB	606893	n/a	LTP133	ltpFR2	23	n/a	n/a	n/a	7	10	5	3	2
1215.238	n/a	PROB	607619	n/a	LTP133	ltpFR2	23	n/a	n/a	n/a	7	15	8	2	5
1216.722	n/a	PROB	608361	n/a	LTP133	ltpFR2	23	n/a	n/a	n/a	7	13	7	2	4
1218.44	n/a	PROB	609220	n/a	LTP133	ltpFR2	23	n/a	n/a	n/a	7	13	4	7	2
1219.876	n/a	PROB	609938	n/a	LTP133	ltpFR2	23	n/a	n/a	n/a	7	16	7	4	5
1221.248	n/a	STOP	610624	n/a	LTP133	ltpFR2	23	n/a	n/a	n/a	7	n/a	n/a	n/a	n/a
1223.962	n/a	REC_START	611981	n/a	LTP133	ltpFR2	23	4	n/a	n/a	n/a	n/a	0	0	0
1225.644	n/a	REC_WORD	612822	wordpools/wasnorm_wordpool_576.txt	LTP133	ltpFR2	23	4	CHAUFFEUR	283	n/a	n/a	0	0	0
1227.098	n/a	REC_WORD	613549	wordpools/wasnorm_wordpool_576.txt	LTP133	ltpFR2	23	4	GREASE	660	n/a	n/a	0	0	0
1234.698	n/a	REC_WORD	617349	wordpools/wasnorm_wordpool_576.txt	LTP133	ltpFR2	23	4	TOOTHBRUSH	1482	n/a	n/a	0	0	0
1237.52	n/a	REC_WORD	618760	wordpools/wasnorm_wordpool_576.txt	LTP133	ltpFR2	23	4	TURNIP	1521	n/a	n/a	0	0	0
1249.022	n/a	REC_WORD	624511	wordpools/wasnorm_wordpool_576.txt	LTP133	ltpFR2	23	4	PROTON	1132	n/a	n/a	0	0	0
1250.734	n/a	REC_WORD	625367	wordpools/wasnorm_wordpool_576.txt	LTP133	ltpFR2	23	4	BLUEJAY	141	n/a	n/a	0	0	0
1257.446	n/a	REC_WORD	628723	wordpools/wasnorm_wordpool_576.txt	LTP133	ltpFR2	23	4	FLASK	576	n/a	n/a	0	0	0
1268.14	n/a	REC_WORD	634070	wordpools/wasnorm_wordpool_576.txt	LTP133	ltpFR2	23	4	LAPEL	800	n/a	n/a	0	0	0
1269.58	n/a	REC_WORD	634790	wordpools/wasnorm_wordpool_576.txt	LTP133	ltpFR2	23	4	BOW	-1	n/a	n/a	0	0	0
1314.432	n/a	WORD	657216	wordpools/wasnorm_wordpool_576.txt	LTP133	ltpFR2	23	5	CONCERT	360	n/a	n/a	0	0	0
1316.92	n/a	WORD	658460	wordpools/wasnorm_wordpool_576.txt	LTP133	ltpFR2	23	5	FACE	547	n/a	n/a	0	0	0
1319.722	n/a	WORD	659861	wordpools/wasnorm_wordpool_576.txt	LTP133	ltpFR2	23	5	LOBSTER	837	n/a	n/a	0	0	0
1322.424	n/a	WORD	661212	wordpools/wasnorm_wordpool_576.txt	LTP133	ltpFR2	23	5	BEETLE	116	n/a	n/a	0	0	0
1324.876	n/a	WORD	662438	wordpools/wasnorm_wordpool_576.txt	LTP133	ltpFR2	23	5	EMPIRE	530	n/a	n/a	0	0	0
1327.412	n/a	WORD	663706	wordpools/wasnorm_wordpool_576.txt	LTP133	ltpFR2	23	5	PRISON	1127	n/a	n/a	0	0	0
1330.182	n/a	WORD	665091	wordpools/wasnorm_wordpool_576.txt	LTP133	ltpFR2	23	5	WATER	1594	n/a	n/a	0	0	0
1332.634	n/a	WORD	666317	wordpools/wasnorm_wordpool_576.txt	LTP133	ltpFR2	23	5	CONVENT	370	n/a	n/a	0	0	0
1335.234	n/a	WORD	667617	wordpools/wasnorm_wordpool_576.txt	LTP133	ltpFR2	23	5	LEG	809	n/a	n/a	0	0	0
1338.02	n/a	WORD	669010	wordpools/wasnorm_wordpool_576.txt	LTP133	ltpFR2	23	5	GRAVEL	659	n/a	n/a	0	0	0
1340.824	n/a	WORD	670412	wordpools/wasnorm_wordpool_576.txt	LTP133	ltpFR2	23	5	CLAMP	316	n/a	n/a	0	0	0
1343.324	n/a	WORD	671662	wordpools/wasnorm_wordpool_576.txt	LTP133	ltpFR2	23	5	WIFE	1609	n/a	n/a	0	0	0
1345.944	n/a	WORD	672972	wordpools/wasnorm_wordpool_576.txt	LTP133	ltpFR2	23	5	LITTER	832	n/a	n/a	0	0	0
1348.494	n/a	WORD	674247	wordpools/wasnorm_wordpool_576.txt	LTP133	ltpFR2	23	5	WALRUS	1585	n/a	n/a	0	0	0
1350.998	n/a	WORD	675499	wordpools/wasnorm_wordpool_576.txt	LTP133	ltpFR2	23	5	GLACIER	638	n/a	n/a	0	0	0
1353.7	n/a	WORD	676850	wordpools/wasnorm_wordpool_576.txt	LTP133	ltpFR2	23	5	SKATE	1313	n/a	n/a	0	0	0
1356.168	n/a	WORD	678084	wordpools/wasnorm_wordpool_576.txt	LTP133	ltpFR2	23	5	LUGGAGE	847	n/a	n/a	0	0	0
1358.688	n/a	WORD	679344	wordpools/wasnorm_wordpool_576.txt	LTP133	ltpFR2	23	5	CHAMBER	277	n/a	n/a	0	0	0
1361.206	n/a	WORD	680603	wordpools/wasnorm_wordpool_576.txt	LTP133	ltpFR2	23	5	SCHOOL	1248	n/a	n/a	0	0	0
1363.66	n/a	WORD	681830	wordpools/wasnorm_wordpool_576.txt	LTP133	ltpFR2	23	5	WRITER	1627	n/a	n/a	0	0	0
1366.176	n/a	WORD	683088	wordpools/wasnorm_wordpool_576.txt	LTP133	ltpFR2	23	5	SHRIMP	1297	n/a	n/a	0	0	0
1368.646	n/a	WORD	684323	wordpools/wasnorm_wordpool_576.txt	LTP133	ltpFR2	23	5	SNAIL	1332	n/a	n/a	0	0	0
1371.298	n/a	WORD	685649	wordpools/wasnorm_wordpool_576.txt	LTP133	ltpFR2	23	5	CHISEL	305	n/a	n/a	0	0	0
1373.85	n/a	WORD	686925	wordpools/wasnorm_wordpool_576.txt	LTP133	ltpFR2	23	5	HAMMER	680	n/a	n/a	0	0	0
1375.468	n/a	START	687734	n/a	LTP133	ltpFR2	23	n/a	n/a	n/a	8	n/a	n/a	n/a	n/a
1376.352	n/a	DISTRACTOR	688176	n/a	LTP133	ltpFR2	23	5	n/a	n/a	n/a	n/a	0	0	0
1376.368	n/a	PROB	688184	n/a	LTP133	ltpFR2	23	n/a	n/a	n/a	8	9	1	6	2
1377.92	n/a	PROB	688960	n/a	LTP133	ltpFR2	23	n/a	n/a	n/a	8	18	7	9	2
1379.77	n/a	PROB	689885	n/a	LTP133	ltpFR2	23	n/a	n/a	n/a	8	19	8	4	7
1381.322	n/a	PROB	690661	n/a	LTP133	ltpFR2	23	n/a	n/a	n/a	8	12	5	6	1
1382.674	n/a	PROB	691337	n/a	LTP133	ltpFR2	23	n/a	n/a	n/a	8	12	7	1	4
1384.174	n/a	PROB	692087	n/a	LTP133	ltpFR2	23	n/a	n/a	n/a	8	17	8	1	8
1385.708	n/a	PROB	692854	n/a	LTP133	ltpFR2	23	n/a	n/a	n/a	8	14	5	7	2
1387.492	n/a	PROB	693746	n/a	LTP133	ltpFR2	23	n/a	n/a	n/a	8	17	2	8	7
1389.028	n/a	PROB	694514	n/a	LTP133	ltpFR2	23	n/a	n/a	n/a	8	21	3	9	9
1390.678	n/a	PROB	695339	n/a	LTP133	ltpFR2	23	n/a	n/a	n/a	8	11	9	1	1
1392.032	n/a	PROB	696016	n/a	LTP133	ltpFR2	23	n/a	n/a	n/a	8	6	2	2	2
1393.348	n/a	PROB	696674	n/a	LTP133	ltpFR2	23	n/a	n/a	n/a	8	13	7	2	4
1395.016	n/a	PROB	697508	n/a	LTP133	ltpFR2	23	n/a	n/a	n/a	8	18	5	6	7
1396.448	n/a	PROB	698224	n/a	LTP133	ltpFR2	23	n/a	n/a	n/a	8	16	6	2	8
1399.466	n/a	STOP	699733	n/a	LTP133	ltpFR2	23	n/a	n/a	n/a	8	n/a	n/a	n/a	n/a
1401.406	n/a	REC_START	700703	n/a	LTP133	ltpFR2	23	5	n/a	n/a	n/a	n/a	0	0	0
1406.838	n/a	REC_WORD	703419	wordpools/wasnorm_wordpool_576.txt	LTP133	ltpFR2	23	5	WRITER	1627	n/a	n/a	0	0	0
1407.796	n/a	REC_WORD	703898	wordpools/wasnorm_wordpool_576.txt	LTP133	ltpFR2	23	5	SCHOOL	1248	n/a	n/a	0	0	0
1409.282	n/a	REC_WORD	704641	wordpools/wasnorm_wordpool_576.txt	LTP133	ltpFR2	23	5	CHAMBER	277	n/a	n/a	0	0	0
1411.742	n/a	REC_WORD	705871	wordpools/wasnorm_wordpool_576.txt	LTP133	ltpFR2	23	5	CLAMP	316	n/a	n/a	0	0	0
1413.134	n/a	REC_WORD	706567	wordpools/wasnorm_wordpool_576.txt	LTP133	ltpFR2	23	5	GRAVEL	659	n/a	n/a	0	0	0
1414.42	n/a	REC_WORD	707210	wordpools/wasnorm_wordpool_576.txt	LTP133	ltpFR2	23	5	WIFE	1609	n/a	n/a	0	0	0
1415.87	n/a	REC_WORD	707935	wordpools/wasnorm_wordpool_576.txt	LTP133	ltpFR2	23	5	LITTER	832	n/a	n/a	0	0	0
1420.074	n/a	REC_WORD	710037	wordpools/wasnorm_wordpool_576.txt	LTP133	ltpFR2	23	5	LUGGAGE	847	n/a	n/a	0	0	0
1439.948	n/a	REC_WORD	719974	wordpools/wasnorm_wordpool_576.txt	LTP133	ltpFR2	23	5	SNACK	1331	n/a	n/a	0	0	0
1447.574	n/a	REC_WORD	723787	wordpools/wasnorm_wordpool_576.txt	LTP133	ltpFR2	23	5	CONCERT	360	n/a	n/a	0	0	0
1562.034	n/a	WORD	781017	wordpools/wasnorm_wordpool_576.txt	LTP133	ltpFR2	23	6	SHARK	1275	n/a	n/a	0	0	0
1564.688	n/a	WORD	782344	wordpools/wasnorm_wordpool_576.txt	LTP133	ltpFR2	23	6	SCOTCH	1251	n/a	n/a	0	0	0
1567.14	n/a	WORD	783570	wordpools/wasnorm_wordpool_576.txt	LTP133	ltpFR2	23	6	MERMAID	887	n/a	n/a	0	0	0
1569.958	n/a	WORD	784979	wordpools/wasnorm_wordpool_576.txt	LTP133	ltpFR2	23	6	SQUID	1361	n/a	n/a	0	0	0
1572.51	n/a	WORD	786255	wordpools/wasnorm_wordpool_576.txt	LTP133	ltpFR2	23	6	SPOOL	1356	n/a	n/a	0	0	0
1575.03	n/a	WORD	787515	wordpools/wasnorm_wordpool_576.txt	LTP133	ltpFR2	23	6	MUSTARD	935	n/a	n/a	0	0	0
1577.548	n/a	WORD	788774	wordpools/wasnorm_wordpool_576.txt	LTP133	ltpFR2	23	6	LIPSTICK	829	n/a	n/a	0	0	0
1580.066	n/a	WORD	790033	wordpools/wasnorm_wordpool_576.txt	LTP133	ltpFR2	23	6	PANTHER	1009	n/a	n/a	0	0	0
1582.602	n/a	WORD	791301	wordpools/wasnorm_wordpool_576.txt	LTP133	ltpFR2	23	6	BRACELET	163	n/a	n/a	0	0	0
1585.204	n/a	WORD	792602	wordpools/wasnorm_wordpool_576.txt	LTP133	ltpFR2	23	6	PEOPLE	1046	n/a	n/a	0	0	0
1587.906	n/a	WORD	793953	wordpools/wasnorm_wordpool_576.txt	LTP133	ltpFR2	23	6	SOCKET	1340	n/a	n/a	0	0	0
1590.726	n/a	WORD	795363	wordpools/wasnorm_wordpool_576.txt	LTP133	ltpFR2	23	6	GLASSES	640	n/a	n/a	0	0	0
1593.36	n/a	WORD	796680	wordpools/wasnorm_wordpool_576.txt	LTP133	ltpFR2	23	6	CARTON	251	n/a	n/a	0	0	0
1595.796	n/a	WORD	797898	wordpools/wasnorm_wordpool_576.txt	LTP133	ltpFR2	23	6	WAREHOUSE	1588	n/a	n/a	0	0	0
1598.396	n/a	WORD	799198	wordpools/wasnorm_wordpool_576.txt	LTP133	ltpFR2	23	6	HEDGE	699	n/a	n/a	0	0	0
1600.834	n/a	WORD	800417	wordpools/wasnorm_wordpool_576.txt	LTP133	ltpFR2	23	6	PONY	1102	n/a	n/a	0	0	0
1603.302	n/a	WORD	801651	wordpools/wasnorm_wordpool_576.txt	LTP133	ltpFR2	23	6	SMOG	1330	n/a	n/a	0	0	0
1606.12	n/a	WORD	803060	wordpools/wasnorm_wordpool_576.txt	LTP133	ltpFR2	23	6	PLUM	1090	n/a	n/a	0	0	0
1608.822	n/a	WORD	804411	wordpools/wasnorm_wordpool_576.txt	LTP133	ltpFR2	23	6	TEAPOT	1442	n/a	n/a	0	0	0
1611.342	n/a	WORD	805671	wordpools/wasnorm_wordpool_576.txt	LTP133	ltpFR2	23	6	COUNTY	389	n/a	n/a	0	0	0
1613.794	n/a	WORD	806897	wordpools/wasnorm_wordpool_576.txt	LTP133	ltpFR2	23	6	WAIST	1579	n/a	n/a	0	0	0
1616.262	n/a	WORD	808131	wordpools/wasnorm_wordpool_576.txt	LTP133	ltpFR2	23	6	COCKTAIL	338	n/a	n/a	0	0	0
1618.73	n/a	WORD	809365	wordpools/wasnorm_wordpool_576.txt	LTP133	ltpFR2	23	6	SCALLOP	1242	n/a	n/a	0	0	0
1621.232	n/a	WORD	810616	wordpools/wasnorm_wordpool_576.txt	LTP133	ltpFR2	23	6	NOMAD	955	n/a	n/a	0	0	0
1622.85	n/a	START	811425	n/a	LTP133	ltpFR2	23	n/a	n/a	n/a	9	n/a	n/a	n/a	n/a
1623.78	n/a	DISTRACTOR	811890	n/a	LTP133	ltpFR2	23	6	n/a	n/a	n/a	n/a	0	0	0
1623.784	n/a	PROB	811892	n/a	LTP133	ltpFR2	23	n/a	n/a	n/a	9	15	2	6	7
1625.5	n/a	PROB	812750	n/a	LTP133	ltpFR2	23	n/a	n/a	n/a	9	15	4	3	8
1627.354	n/a	PROB	813677	n/a	LTP133	ltpFR2	23	n/a	n/a	n/a	9	14	3	3	8
1628.938	n/a	PROB	814469	n/a	LTP133	ltpFR2	23	n/a	n/a	n/a	9	23	8	7	8
1630.356	n/a	PROB	815178	n/a	LTP133	ltpFR2	23	n/a	n/a	n/a	9	17	5	5	7
1631.84	n/a	PROB	815920	n/a	LTP133	ltpFR2	23	n/a	n/a	n/a	9	8	2	4	2
1633.674	n/a	PROB	816837	n/a	LTP133	ltpFR2	23	n/a	n/a	n/a	9	12	5	5	2
1634.926	n/a	PROB	817463	n/a	LTP133	ltpFR2	23	n/a	n/a	n/a	9	14	5	6	3
1636.392	n/a	PROB	818196	n/a	LTP133	ltpFR2	23	n/a	n/a	n/a	9	12	3	3	6
1637.996	n/a	PROB	818998	n/a	LTP133	ltpFR2	23	n/a	n/a	n/a	9	11	6	2	3
1639.464	n/a	PROB	819732	n/a	LTP133	ltpFR2	23	n/a	n/a	n/a	9	8	1	4	3
1640.714	n/a	PROB	820357	n/a	LTP133	ltpFR2	23	n/a	n/a	n/a	9	8	4	3	1
1641.964	n/a	PROB	820982	n/a	LTP133	ltpFR2	23	n/a	n/a	n/a	9	4	1	2	1
1643.182	n/a	PROB	821591	n/a	LTP133	ltpFR2	23	n/a	n/a	n/a	9	14	9	1	4
1644.684	n/a	PROB	822342	n/a	LTP133	ltpFR2	23	n/a	n/a	n/a	9	11	7	2	2
1646.202	n/a	STOP	823101	n/a	LTP133	ltpFR2	23	n/a	n/a	n/a	9	n/a	n/a	n/a	n/a
1648.804	n/a	REC_START	824402	n/a	LTP133	ltpFR2	23	6	n/a	n/a	n/a	n/a	0	0	0
1651.126	n/a	REC_WORD	825563	wordpools/wasnorm_wordpool_576.txt	LTP133	ltpFR2	23	6	COCKTAIL	338	n/a	n/a	0	0	0
1652.036	n/a	REC_WORD	826018	wordpools/wasnorm_wordpool_576.txt	LTP133	ltpFR2	23	6	SCALLOP	1242	n/a	n/a	0	0	0
1653.492	n/a	REC_WORD	826746	wordpools/wasnorm_wordpool_576.txt	LTP133	ltpFR2	23	6	NOMAD	955	n/a	n/a	0	0	0
1654.966	n/a	REC_WORD	827483	wordpools/wasnorm_wordpool_576.txt	LTP133	ltpFR2	23	6	SPOOL	1356	n/a	n/a	0	0	0
1656.326	n/a	REC_WORD	828163	wordpools/wasnorm_wordpool_576.txt	LTP133	ltpFR2	23	6	SQUID	1361	n/a	n/a	0	0	0
1661.724	n/a	REC_WORD	830862	wordpools/wasnorm_wordpool_576.txt	LTP133	ltpFR2	23	6	WAIST	1579	n/a	n/a	0	0	0
1662.982	n/a	REC_WORD	831491	wordpools/wasnorm_wordpool_576.txt	LTP133	ltpFR2	23	6	COUNTY	389	n/a	n/a	0	0	0
1664.338	n/a	REC_WORD	832169	wordpools/wasnorm_wordpool_576.txt	LTP133	ltpFR2	23	6	TEAPOT	1442	n/a	n/a	0	0	0
1682.808	n/a	REC_WORD	841404	wordpools/wasnorm_wordpool_576.txt	LTP133	ltpFR2	23	6	MERMAID	887	n/a	n/a	0	0	0
1684.114	n/a	REC_WORD	842057	wordpools/wasnorm_wordpool_576.txt	LTP133	ltpFR2	23	6	SCOTCH	1251	n/a	n/a	0	0	0
1739.276	n/a	WORD	869638	wordpools/wasnorm_wordpool_576.txt	LTP133	ltpFR2	23	7	ORANGE	980	n/a	n/a	0	0	0
1742.062	n/a	WORD	871031	wordpools/wasnorm_wordpool_576.txt	LTP133	ltpFR2	23	7	CARROT	249	n/a	n/a	0	0	0
1744.614	n/a	WORD	872307	wordpools/wasnorm_wordpool_576.txt	LTP133	ltpFR2	23	7	STAMP	1370	n/a	n/a	0	0	0
1747.052	n/a	WORD	873526	wordpools/wasnorm_wordpool_576.txt	LTP133	ltpFR2	23	7	HUSBAND	728	n/a	n/a	0	0	0
1749.836	n/a	WORD	874918	wordpools/wasnorm_wordpool_576.txt	LTP133	ltpFR2	23	7	KETTLE	772	n/a	n/a	0	0	0
1752.356	n/a	WORD	876178	wordpools/wasnorm_wordpool_576.txt	LTP133	ltpFR2	23	7	SWITCH	1422	n/a	n/a	0	0	0
1754.824	n/a	WORD	877412	wordpools/wasnorm_wordpool_576.txt	LTP133	ltpFR2	23	7	CREEK	404	n/a	n/a	0	0	0
1757.358	n/a	WORD	878679	wordpools/wasnorm_wordpool_576.txt	LTP133	ltpFR2	23	7	CASHIER	254	n/a	n/a	0	0	0
1759.812	n/a	WORD	879906	wordpools/wasnorm_wordpool_576.txt	LTP133	ltpFR2	23	7	STABLE	1363	n/a	n/a	0	0	0
1762.462	n/a	WORD	881231	wordpools/wasnorm_wordpool_576.txt	LTP133	ltpFR2	23	7	BRIDGE	174	n/a	n/a	0	0	0
1765.082	n/a	WORD	882541	wordpools/wasnorm_wordpool_576.txt	LTP133	ltpFR2	23	7	PLANET	1082	n/a	n/a	0	0	0
1767.652	n/a	WORD	883826	wordpools/wasnorm_wordpool_576.txt	LTP133	ltpFR2	23	7	GRAPE	654	n/a	n/a	0	0	0
1770.402	n/a	WORD	885201	wordpools/wasnorm_wordpool_576.txt	LTP133	ltpFR2	23	7	GLOBE	641	n/a	n/a	0	0	0
1773.206	n/a	WORD	886603	wordpools/wasnorm_wordpool_576.txt	LTP133	ltpFR2	23	7	CRAYON	401	n/a	n/a	0	0	0
1775.808	n/a	WORD	887904	wordpools/wasnorm_wordpool_576.txt	LTP133	ltpFR2	23	7	MARKER	870	n/a	n/a	0	0	0
1778.458	n/a	WORD	889229	wordpools/wasnorm_wordpool_576.txt	LTP133	ltpFR2	23	7	VILLAIN	1567	n/a	n/a	0	0	0
1780.96	n/a	WORD	890480	wordpools/wasnorm_wordpool_576.txt	LTP133	ltpFR2	23	7	MAJOR	859	n/a	n/a	0	0	0
1783.63	n/a	WORD	891815	wordpools/wasnorm_wordpool_576.txt	LTP133	ltpFR2	23	7	WORKER	1621	n/a	n/a	0	0	0
1786.116	n/a	WORD	893058	wordpools/wasnorm_wordpool_576.txt	LTP133	ltpFR2	23	7	PLASTER	1085	n/a	n/a	0	0	0
1788.918	n/a	WORD	894459	wordpools/wasnorm_wordpool_576.txt	LTP133	ltpFR2	23	7	BANDIT	81	n/a	n/a	0	0	0
1791.586	n/a	WORD	895793	wordpools/wasnorm_wordpool_576.txt	LTP133	ltpFR2	23	7	POND	1101	n/a	n/a	0	0	0
1794.104	n/a	WORD	897052	wordpools/wasnorm_wordpool_576.txt	LTP133	ltpFR2	23	7	FOUNTAIN	597	n/a	n/a	0	0	0
1796.924	n/a	WORD	898462	wordpools/wasnorm_wordpool_576.txt	LTP133	ltpFR2	23	7	DOCTOR	478	n/a	n/a	0	0	0
1799.694	n/a	WORD	899847	wordpools/wasnorm_wordpool_576.txt	LTP133	ltpFR2	23	7	EARRING	514	n/a	n/a	0	0	0
1801.312	n/a	START	900656	n/a	LTP133	ltpFR2	23	n/a	n/a	n/a	10	n/a	n/a	n/a	n/a
1802.19	n/a	DISTRACTOR	901095	n/a	LTP133	ltpFR2	23	7	n/a	n/a	n/a	n/a	0	0	0
1802.196	n/a	PROB	901098	n/a	LTP133	ltpFR2	23	n/a	n/a	n/a	10	16	9	2	5
1803.864	n/a	PROB	901932	n/a	LTP133	ltpFR2	23	n/a	n/a	n/a	10	14	5	2	7
1805.196	n/a	PROB	902598	n/a	LTP133	ltpFR2	23	n/a	n/a	n/a	10	15	5	5	5
1806.496	n/a	PROB	903248	n/a	LTP133	ltpFR2	23	n/a	n/a	n/a	10	8	1	6	1
1808.066	n/a	PROB	904033	n/a	LTP133	ltpFR2	23	n/a	n/a	n/a	10	11	1	2	8
1809.734	n/a	PROB	904867	n/a	LTP133	ltpFR2	23	n/a	n/a	n/a	10	4	1	2	1
1811.036	n/a	PROB	905518	n/a	LTP133	ltpFR2	23	n/a	n/a	n/a	10	16	8	1	7
1812.652	n/a	PROB	906326	n/a	LTP133	ltpFR2	23	n/a	n/a	n/a	10	19	4	9	6
1814.436	n/a	PROB	907218	n/a	LTP133	ltpFR2	23	n/a	n/a	n/a	10	10	2	6	2
1816.272	n/a	PROB	908136	n/a	LTP133	ltpFR2	23	n/a	n/a	n/a	10	7	1	5	1
1817.488	n/a	PROB	908744	n/a	LTP133	ltpFR2	23	n/a	n/a	n/a	10	20	5	9	6
1819.042	n/a	PROB	909521	n/a	LTP133	ltpFR2	23	n/a	n/a	n/a	10	6	1	3	2
1820.56	n/a	PROB	910280	n/a	LTP133	ltpFR2	23	n/a	n/a	n/a	10	9	5	2	2
1821.744	n/a	PROB	910872	n/a	LTP133	ltpFR2	23	n/a	n/a	n/a	10	16	7	8	1
1823.28	n/a	PROB	911640	n/a	LTP133	ltpFR2	23	n/a	n/a	n/a	10	14	9	1	4
1824.514	n/a	STOP	912257	n/a	LTP133	ltpFR2	23	n/a	n/a	n/a	10	n/a	n/a	n/a	n/a
1827.264	n/a	REC_START	913632	n/a	LTP133	ltpFR2	23	7	n/a	n/a	n/a	n/a	0	0	0
1829.24	n/a	REC_WORD	914620	wordpools/wasnorm_wordpool_576.txt	LTP133	ltpFR2	23	7	BANDIT	81	n/a	n/a	0	0	0
1842.394	n/a	REC_WORD	921197	wordpools/wasnorm_wordpool_576.txt	LTP133	ltpFR2	23	7	CRAYON	401	n/a	n/a	0	0	0
1843.586	n/a	REC_WORD	921793	wordpools/wasnorm_wordpool_576.txt	LTP133	ltpFR2	23	7	MARKER	870	n/a	n/a	0	0	0
1845.07	n/a	REC_WORD	922535	wordpools/wasnorm_wordpool_576.txt	LTP133	ltpFR2	23	7	GLOBE	641	n/a	n/a	0	0	0
1899.334	n/a	REC_WORD	949667	wordpools/wasnorm_wordpool_576.txt	LTP133	ltpFR2	23	7	BRIDGE	174	n/a	n/a	0	0	0
1900.238	n/a	REC_WORD	950119	wordpools/wasnorm_wordpool_576.txt	LTP133	ltpFR2	23	7	PLANET	1082	n/a	n/a	0	0	0
1901.64	n/a	REC_WORD	950820	wordpools/wasnorm_wordpool_576.txt	LTP133	ltpFR2	23	7	GRAPE	654	n/a	n/a	0	0	0
1991.648	n/a	DISTRACTOR	995824	n/a	LTP133	ltpFR2	23	8	n/a	n/a	n/a	n/a	0	0	0
1991.648	n/a	START	995824	n/a	LTP133	ltpFR2	23	n/a	n/a	n/a	11	n/a	n/a	n/a	n/a
1991.664	n/a	PROB	995832	n/a	LTP133	ltpFR2	23	n/a	n/a	n/a	11	24	9	6	9
1993.3	n/a	PROB	996650	n/a	LTP133	ltpFR2	23	n/a	n/a	n/a	11	14	3	2	9
1994.748	n/a	PROB	997374	n/a	LTP133	ltpFR2	23	n/a	n/a	n/a	11	18	4	8	6
1996.65	n/a	PROB	998325	n/a	LTP133	ltpFR2	23	n/a	n/a	n/a	11	8	1	4	3
1997.836	n/a	PROB	998918	n/a	LTP133	ltpFR2	23	n/a	n/a	n/a	11	16	2	7	7
1999.752	n/a	PROB	999876	n/a	LTP133	ltpFR2	23	n/a	n/a	n/a	11	21	4	8	9
2001.12	n/a	PROB	1000560	n/a	LTP133	ltpFR2	23	n/a	n/a	n/a	11	15	5	4	6
2003.022	n/a	PROB	1001511	n/a	LTP133	ltpFR2	23	n/a	n/a	n/a	11	21	8	8	5
2004.174	n/a	PROB	1002087	n/a	LTP133	ltpFR2	23	n/a	n/a	n/a	11	12	2	8	2
2006.476	n/a	PROB	1003238	n/a	LTP133	ltpFR2	23	n/a	n/a	n/a	11	20	4	9	7
2007.912	n/a	PROB	1003956	n/a	LTP133	ltpFR2	23	n/a	n/a	n/a	11	11	2	1	8
2009.096	n/a	PROB	1004548	n/a	LTP133	ltpFR2	23	n/a	n/a	n/a	11	12	7	3	2
2010.278	n/a	PROB	1005139	n/a	LTP133	ltpFR2	23	n/a	n/a	n/a	11	24	8	7	9
2011.596	n/a	PROB	1005798	n/a	LTP133	ltpFR2	23	n/a	n/a	n/a	11	16	9	2	5
2013.232	n/a	PROB	1006616	n/a	LTP133	ltpFR2	23	n/a	n/a	n/a	11	9	7	1	1
2014.306	n/a	STOP	1007153	n/a	LTP133	ltpFR2	23	n/a	n/a	n/a	11	n/a	n/a	n/a	n/a
2016.634	n/a	WORD	1008317	wordpools/wasnorm_wordpool_576.txt	LTP133	ltpFR2	23	8	LUNCH	849	n/a	n/a	0	0	0
2019.304	n/a	WORD	1009652	wordpools/wasnorm_wordpool_576.txt	LTP133	ltpFR2	23	8	POWDER	1117	n/a	n/a	0	0	0
2021.99	n/a	WORD	1010995	wordpools/wasnorm_wordpool_576.txt	LTP133	ltpFR2	23	8	CAFE	216	n/a	n/a	0	0	0
2024.69	n/a	WORD	1012345	wordpools/wasnorm_wordpool_576.txt	LTP133	ltpFR2	23	8	PICKLE	1059	n/a	n/a	0	0	0
2027.142	n/a	WORD	1013571	wordpools/wasnorm_wordpool_576.txt	LTP133	ltpFR2	23	8	TROUSERS	1510	n/a	n/a	0	0	0
2029.578	n/a	WORD	1014789	wordpools/wasnorm_wordpool_576.txt	LTP133	ltpFR2	23	8	BRANDY	169	n/a	n/a	0	0	0
2032.396	n/a	WORD	1016198	wordpools/wasnorm_wordpool_576.txt	LTP133	ltpFR2	23	8	PENGUIN	1044	n/a	n/a	0	0	0
2034.932	n/a	WORD	1017466	wordpools/wasnorm_wordpool_576.txt	LTP133	ltpFR2	23	8	LEMON	810	n/a	n/a	0	0	0
2037.534	n/a	WORD	1018767	wordpools/wasnorm_wordpool_576.txt	LTP133	ltpFR2	23	8	BULLET	194	n/a	n/a	0	0	0
2040.302	n/a	WORD	1020151	wordpools/wasnorm_wordpool_576.txt	LTP133	ltpFR2	23	8	CRAB	397	n/a	n/a	0	0	0
2043.09	n/a	WORD	1021545	wordpools/wasnorm_wordpool_576.txt	LTP133	ltpFR2	23	8	COD	340	n/a	n/a	0	0	0
2045.708	n/a	WORD	1022854	wordpools/wasnorm_wordpool_576.txt	LTP133	ltpFR2	23	8	PITCHFORK	1078	n/a	n/a	0	0	0
2048.16	n/a	WORD	1024080	wordpools/wasnorm_wordpool_576.txt	LTP133	ltpFR2	23	8	NEEDLE	941	n/a	n/a	0	0	0
2050.962	n/a	WORD	1025481	wordpools/wasnorm_wordpool_576.txt	LTP133	ltpFR2	23	8	FOOTBALL	591	n/a	n/a	0	0	0
2053.614	n/a	WORD	1026807	wordpools/wasnorm_wordpool_576.txt	LTP133	ltpFR2	23	8	AIRCRAFT	11	n/a	n/a	0	0	0
2056.266	n/a	WORD	1028133	wordpools/wasnorm_wordpool_576.txt	LTP133	ltpFR2	23	8	MAGNET	855	n/a	n/a	0	0	0
2059.002	n/a	WORD	1029501	wordpools/wasnorm_wordpool_576.txt	LTP133	ltpFR2	23	8	FAUCET	555	n/a	n/a	0	0	0
2061.504	n/a	WORD	1030752	wordpools/wasnorm_wordpool_576.txt	LTP133	ltpFR2	23	8	BRUNETTE	181	n/a	n/a	0	0	0
2064.29	n/a	WORD	1032145	wordpools/wasnorm_wordpool_576.txt	LTP133	ltpFR2	23	8	SKUNK	1321	n/a	n/a	0	0	0
2067.026	n/a	WORD	1033513	wordpools/wasnorm_wordpool_576.txt	LTP133	ltpFR2	23	8	PANTS	1010	n/a	n/a	0	0	0
2069.828	n/a	WORD	1034914	wordpools/wasnorm_wordpool_576.txt	LTP133	ltpFR2	23	8	MAPLE	866	n/a	n/a	0	0	0
2072.58	n/a	WORD	1036290	wordpools/wasnorm_wordpool_576.txt	LTP133	ltpFR2	23	8	SHEPHERD	1283	n/a	n/a	0	0	0
2075.364	n/a	WORD	1037682	wordpools/wasnorm_wordpool_576.txt	LTP133	ltpFR2	23	8	ROBIN	1199	n/a	n/a	0	0	0
2077.85	n/a	WORD	1038925	wordpools/wasnorm_wordpool_576.txt	LTP133	ltpFR2	23	8	SEAGULL	1261	n/a	n/a	0	0	0
2079.468	n/a	START	1039734	n/a	LTP133	ltpFR2	23	n/a	n/a	n/a	12	n/a	n/a	n/a	n/a
2080.482	n/a	DISTRACTOR	1040241	n/a	LTP133	ltpFR2	23	8	n/a	n/a	n/a	n/a	0	0	0
2080.5	n/a	PROB	1040250	n/a	LTP133	ltpFR2	23	n/a	n/a	n/a	12	7	2	2	3
2081.888	n/a	PROB	1040944	n/a	LTP133	ltpFR2	23	n/a	n/a	n/a	12	15	5	6	4
2083.288	n/a	PROB	1041644	n/a	LTP133	ltpFR2	23	n/a	n/a	n/a	12	10	4	4	2
2084.788	n/a	PROB	1042394	n/a	LTP133	ltpFR2	23	n/a	n/a	n/a	12	16	5	2	9
2086.322	n/a	PROB	1043161	n/a	LTP133	ltpFR2	23	n/a	n/a	n/a	12	17	5	5	7
2087.556	n/a	PROB	1043778	n/a	LTP133	ltpFR2	23	n/a	n/a	n/a	12	10	1	2	7
2088.892	n/a	PROB	1044446	n/a	LTP133	ltpFR2	23	n/a	n/a	n/a	12	19	4	9	6
2091.276	n/a	PROB	1045638	n/a	LTP133	ltpFR2	23	n/a	n/a	n/a	12	20	9	8	3
2092.844	n/a	PROB	1046422	n/a	LTP133	ltpFR2	23	n/a	n/a	n/a	12	12	3	6	3
2094.512	n/a	PROB	1047256	n/a	LTP133	ltpFR2	23	n/a	n/a	n/a	12	16	4	5	7
2095.882	n/a	PROB	1047941	n/a	LTP133	ltpFR2	23	n/a	n/a	n/a	12	16	4	4	8
2097.248	n/a	PROB	1048624	n/a	LTP133	ltpFR2	23	n/a	n/a	n/a	12	15	5	6	4
2098.682	n/a	PROB	1049341	n/a	LTP133	ltpFR2	23	n/a	n/a	n/a	12	7	1	4	2
2100.084	n/a	PROB	1050042	n/a	LTP133	ltpFR2	23	n/a	n/a	n/a	12	15	4	3	8
2101.304	n/a	PROB	1050652	n/a	LTP133	ltpFR2	23	n/a	n/a	n/a	12	19	8	8	3
2102.502	n/a	STOP	1051251	n/a	LTP133	ltpFR2	23	n/a	n/a	n/a	12	n/a	n/a	n/a	n/a
2105.24	n/a	REC_START	1052620	n/a	LTP133	ltpFR2	23	8	n/a	n/a	n/a	n/a	0	0	0
2106.762	n/a	REC_WORD	1053381	wordpools/wasnorm_wordpool_576.txt	LTP133	ltpFR2	23	8	SHEPHERD	1283	n/a	n/a	0	0	0
2107.952	n/a	REC_WORD	1053976	wordpools/wasnorm_wordpool_576.txt	LTP133	ltpFR2	23	8	ROBIN	1199	n/a	n/a	0	0	0
2108.926	n/a	REC_WORD	1054463	wordpools/wasnorm_wordpool_576.txt	LTP133	ltpFR2	23	8	SEAGULL	1261	n/a	n/a	0	0	0
2147.42	n/a	REC_WORD	1073710	wordpools/wasnorm_wordpool_576.txt	LTP133	ltpFR2	23	8	BRANDY	169	n/a	n/a	0	0	0
2148.474	n/a	REC_WORD	1074237	wordpools/wasnorm_wordpool_576.txt	LTP133	ltpFR2	23	8	PICKLE	1059	n/a	n/a	0	0	0
2153.354	n/a	REC_WORD	1076677	wordpools/wasnorm_wordpool_576.txt	LTP133	ltpFR2	23	8	SANDWICH	1232	n/a	n/a	0	0	0
2181.784	n/a	REST_REWET	1090892	n/a	LTP133	ltpFR2	23	8	n/a	n/a	n/a	n/a	0	0	0
2692.946	n/a	DISTRACTOR	1346473	n/a	LTP133	ltpFR2	23	9	n/a	n/a	n/a	n/a	0	0	0
2692.946	n/a	START	1346473	n/a	LTP133	ltpFR2	23	n/a	n/a	n/a	13	n/a	n/a	n/a	n/a
2692.962	n/a	PROB	1346481	n/a	LTP133	ltpFR2	23	n/a	n/a	n/a	13	19	9	6	4
2694.614	n/a	PROB	1347307	n/a	LTP133	ltpFR2	23	n/a	n/a	n/a	13	18	9	6	3
2695.83	n/a	PROB	1347915	n/a	LTP133	ltpFR2	23	n/a	n/a	n/a	13	16	4	6	6
2697.464	n/a	PROB	1348732	n/a	LTP133	ltpFR2	23	n/a	n/a	n/a	13	18	5	6	7
2698.918	n/a	PROB	1349459	n/a	LTP133	ltpFR2	23	n/a	n/a	n/a	13	23	8	6	9
2700.802	n/a	PROB	1350401	n/a	LTP133	ltpFR2	23	n/a	n/a	n/a	13	15	1	5	9
2702.086	n/a	PROB	1351043	n/a	LTP133	ltpFR2	23	n/a	n/a	n/a	13	13	8	4	1
2703.354	n/a	PROB	1351677	n/a	LTP133	ltpFR2	23	n/a	n/a	n/a	13	18	5	7	6
2704.488	n/a	PROB	1352244	n/a	LTP133	ltpFR2	23	n/a	n/a	n/a	13	15	9	2	4
2705.788	n/a	PROB	1352894	n/a	LTP133	ltpFR2	23	n/a	n/a	n/a	13	14	7	2	5
2707.192	n/a	PROB	1353596	n/a	LTP133	ltpFR2	23	n/a	n/a	n/a	13	13	4	3	6
2708.558	n/a	PROB	1354279	n/a	LTP133	ltpFR2	23	n/a	n/a	n/a	13	13	6	4	3
2710.21	n/a	PROB	1355105	n/a	LTP133	ltpFR2	23	n/a	n/a	n/a	13	11	2	4	5
2711.494	n/a	PROB	1355747	n/a	LTP133	ltpFR2	23	n/a	n/a	n/a	13	14	5	1	8
2712.93	n/a	PROB	1356465	n/a	LTP133	ltpFR2	23	n/a	n/a	n/a	13	14	6	4	4
2714.28	n/a	PROB	1357140	n/a	LTP133	ltpFR2	23	n/a	n/a	n/a	13	13	4	3	6
2715.512	n/a	STOP	1357756	n/a	LTP133	ltpFR2	23	n/a	n/a	n/a	13	n/a	n/a	n/a	n/a
2717.916	n/a	WORD	1358958	wordpools/wasnorm_wordpool_576.txt	LTP133	ltpFR2	23	9	HAMMOCK	681	n/a	n/a	0	0	0
2720.552	n/a	WORD	1360276	wordpools/wasnorm_wordpool_576.txt	LTP133	ltpFR2	23	9	BLANKET	135	n/a	n/a	0	0	0
2723.12	n/a	WORD	1361560	wordpools/wasnorm_wordpool_576.txt	LTP133	ltpFR2	23	9	CASTLE	256	n/a	n/a	0	0	0
2725.824	n/a	WORD	1362912	wordpools/wasnorm_wordpool_576.txt	LTP133	ltpFR2	23	9	YACHT	1629	n/a	n/a	0	0	0
2728.342	n/a	WORD	1364171	wordpools/wasnorm_wordpool_576.txt	LTP133	ltpFR2	23	9	SPARROW	1347	n/a	n/a	0	0	0
2731.112	n/a	WORD	1365556	wordpools/wasnorm_wordpool_576.txt	LTP133	ltpFR2	23	9	ROOSTER	1209	n/a	n/a	0	0	0
2733.646	n/a	WORD	1366823	wordpools/wasnorm_wordpool_576.txt	LTP133	ltpFR2	23	9	SADDLE	1221	n/a	n/a	0	0	0
2736.464	n/a	WORD	1368232	wordpools/wasnorm_wordpool_576.txt	LTP133	ltpFR2	23	9	CITRUS	313	n/a	n/a	0	0	0
2739.052	n/a	WORD	1369526	wordpools/wasnorm_wordpool_576.txt	LTP133	ltpFR2	23	9	LION	827	n/a	n/a	0	0	0
2741.718	n/a	WORD	1370859	wordpools/wasnorm_wordpool_576.txt	LTP133	ltpFR2	23	9	FIELD	562	n/a	n/a	0	0	0
2744.388	n/a	WORD	1372194	wordpools/wasnorm_wordpool_576.txt	LTP133	ltpFR2	23	9	TURTLE	1522	n/a	n/a	0	0	0
2747.04	n/a	WORD	1373520	wordpools/wasnorm_wordpool_576.txt	LTP133	ltpFR2	23	9	SENATE	1267	n/a	n/a	0	0	0
2749.826	n/a	WORD	1374913	wordpools/wasnorm_wordpool_576.txt	LTP133	ltpFR2	23	9	BOULDER	155	n/a	n/a	0	0	0
2752.294	n/a	WORD	1376147	wordpools/wasnorm_wordpool_576.txt	LTP133	ltpFR2	23	9	BRIDE	173	n/a	n/a	0	0	0
2755.014	n/a	WORD	1377507	wordpools/wasnorm_wordpool_576.txt	LTP133	ltpFR2	23	9	DESSERT	453	n/a	n/a	0	0	0
2757.614	n/a	WORD	1378807	wordpools/wasnorm_wordpool_576.txt	LTP133	ltpFR2	23	9	WOMAN	1620	n/a	n/a	0	0	0
2760.3	n/a	WORD	1380150	wordpools/wasnorm_wordpool_576.txt	LTP133	ltpFR2	23	9	HAYSTACK	694	n/a	n/a	0	0	0
2762.836	n/a	WORD	1381418	wordpools/wasnorm_wordpool_576.txt	LTP133	ltpFR2	23	9	THIMBLE	1458	n/a	n/a	0	0	0
2765.572	n/a	WORD	1382786	wordpools/wasnorm_wordpool_576.txt	LTP133	ltpFR2	23	9	LEOPARD	812	n/a	n/a	0	0	0
2768.04	n/a	WORD	1384020	wordpools/wasnorm_wordpool_576.txt	LTP133	ltpFR2	23	9	BOYFRIEND	162	n/a	n/a	0	0	0
2770.842	n/a	WORD	1385421	wordpools/wasnorm_wordpool_576.txt	LTP133	ltpFR2	23	9	HANDBAG	684	n/a	n/a	0	0	0
2773.36	n/a	WORD	1386680	wordpools/wasnorm_wordpool_576.txt	LTP133	ltpFR2	23	9	DWARF	510	n/a	n/a	0	0	0
2775.914	n/a	WORD	1387957	wordpools/wasnorm_wordpool_576.txt	LTP133	ltpFR2	23	9	CHECKERS	285	n/a	n/a	0	0	0
2778.398	n/a	WORD	1389199	wordpools/wasnorm_wordpool_576.txt	LTP133	ltpFR2	23	9	FEMALE	559	n/a	n/a	0	0	0
2780.016	n/a	START	1390008	n/a	LTP133	ltpFR2	23	n/a	n/a	n/a	14	n/a	n/a	n/a	n/a
2781.056	n/a	DISTRACTOR	1390528	n/a	LTP133	ltpFR2	23	9	n/a	n/a	n/a	n/a	0	0	0
2781.068	n/a	PROB	1390534	n/a	LTP133	ltpFR2	23	n/a	n/a	n/a	14	19	5	8	6
2782.968	n/a	PROB	1391484	n/a	LTP133	ltpFR2	23	n/a	n/a	n/a	14	17	5	7	5
2785.32	n/a	PROB	1392660	n/a	LTP133	ltpFR2	23	n/a	n/a	n/a	14	19	3	8	8
2786.62	n/a	PROB	1393310	n/a	LTP133	ltpFR2	23	n/a	n/a	n/a	14	18	8	1	9
2787.854	n/a	PROB	1393927	n/a	LTP133	ltpFR2	23	n/a	n/a	n/a	14	8	2	1	5
2789.09	n/a	PROB	1394545	n/a	LTP133	ltpFR2	23	n/a	n/a	n/a	14	6	1	3	2
2790.542	n/a	PROB	1395271	n/a	LTP133	ltpFR2	23	n/a	n/a	n/a	14	11	6	3	2
2791.726	n/a	PROB	1395863	n/a	LTP133	ltpFR2	23	n/a	n/a	n/a	14	21	3	9	9
2793.576	n/a	PROB	1396788	n/a	LTP133	ltpFR2	23	n/a	n/a	n/a	14	16	1	6	9
2795.362	n/a	PROB	1397681	n/a	LTP133	ltpFR2	23	n/a	n/a	n/a	14	19	3	8	8
2796.862	n/a	PROB	1398431	n/a	LTP133	ltpFR2	23	n/a	n/a	n/a	14	16	7	5	4
2798.462	n/a	PROB	1399231	n/a	LTP133	ltpFR2	23	n/a	n/a	n/a	14	6	2	1	3
2799.882	n/a	PROB	1399941	n/a	LTP133	ltpFR2	23	n/a	n/a	n/a	14	13	5	4	4
2801.25	n/a	PROB	1400625	n/a	LTP133	ltpFR2	23	n/a	n/a	n/a	14	22	7	8	7
2803.038	n/a	STOP	1401519	n/a	LTP133	ltpFR2	23	n/a	n/a	n/a	14	n/a	n/a	n/a	n/a
2805.956	n/a	REC_START	1402978	n/a	LTP133	ltpFR2	23	9	n/a	n/a	n/a	n/a	0	0	0
2808.408	n/a	REC_WORD	1404204	wordpools/wasnorm_wordpool_576.txt	LTP133	ltpFR2	23	9	HANDBAG	684	n/a	n/a	0	0	0
2809.564	n/a	REC_WORD	1404782	wordpools/wasnorm_wordpool_576.txt	LTP133	ltpFR2	23	9	DWARF	510	n/a	n/a	0	0	0
2812.318	n/a	REC_WORD	1406159	wordpools/wasnorm_wordpool_576.txt	LTP133	ltpFR2	23	9	THIMBLE	1458	n/a	n/a	0	0	0
2813.528	n/a	REC_WORD	1406764	wordpools/wasnorm_wordpool_576.txt	LTP133	ltpFR2	23	9	HAYSTACK	694	n/a	n/a	0	0	0
2815.324	n/a	REC_WORD	1407662	wordpools/wasnorm_wordpool_576.txt	LTP133	ltpFR2	23	9	BOYFRIEND	162	n/a	n/a	0	0	0
2823.028	n/a	REC_WORD	1411514	wordpools/wasnorm_wordpool_576.txt	LTP133	ltpFR2	23	9	CHECKERS	285	n/a	n/a	0	0	0
2824.882	n/a	REC_WORD	1412441	wordpools/wasnorm_wordpool_576.txt	LTP133	ltpFR2	23	9	WOMAN	1620	n/a	n/a	0	0	0
2825.88	n/a	REC_WORD	1412940	wordpools/wasnorm_wordpool_576.txt	LTP133	ltpFR2	23	9	FEMALE	559	n/a	n/a	0	0	0
2827.664	n/a	REC_WORD	1413832	wordpools/wasnorm_wordpool_576.txt	LTP133	ltpFR2	23	9	DESSERT	453	n/a	n/a	0	0	0
2835.638	n/a	REC_WORD	1417819	wordpools/wasnorm_wordpool_576.txt	LTP133	ltpFR2	23	9	BRIDE	173	n/a	n/a	0	0	0
2947.152	n/a	WORD	1473576	wordpools/wasnorm_wordpool_576.txt	LTP133	ltpFR2	23	10	SATURN	1236	n/a	n/a	0	0	0
2949.938	n/a	WORD	1474969	wordpools/wasnorm_wordpool_576.txt	LTP133	ltpFR2	23	10	MONKEY	911	n/a	n/a	0	0	0
2952.772	n/a	WORD	1476386	wordpools/wasnorm_wordpool_576.txt	LTP133	ltpFR2	23	10	UMPIRE	1535	n/a	n/a	0	0	0
2955.458	n/a	WORD	1477729	wordpools/wasnorm_wordpool_576.txt	LTP133	ltpFR2	23	10	PORPOISE	1109	n/a	n/a	0	0	0
2957.994	n/a	WORD	1478997	wordpools/wasnorm_wordpool_576.txt	LTP133	ltpFR2	23	10	OINTMENT	974	n/a	n/a	0	0	0
2960.662	n/a	WORD	1480331	wordpools/wasnorm_wordpool_576.txt	LTP133	ltpFR2	23	10	DRUG	501	n/a	n/a	0	0	0
2963.13	n/a	WORD	1481565	wordpools/wasnorm_wordpool_576.txt	LTP133	ltpFR2	23	10	CARPET	247	n/a	n/a	0	0	0
2965.884	n/a	WORD	1482942	wordpools/wasnorm_wordpool_576.txt	LTP133	ltpFR2	23	10	COCOON	339	n/a	n/a	0	0	0
2968.468	n/a	WORD	1484234	wordpools/wasnorm_wordpool_576.txt	LTP133	ltpFR2	23	10	FLESH	579	n/a	n/a	0	0	0
2971.004	n/a	WORD	1485502	wordpools/wasnorm_wordpool_576.txt	LTP133	ltpFR2	23	10	VALVE	1546	n/a	n/a	0	0	0
2973.688	n/a	WORD	1486844	wordpools/wasnorm_wordpool_576.txt	LTP133	ltpFR2	23	10	WINDOW	1611	n/a	n/a	0	0	0
2976.258	n/a	WORD	1488129	wordpools/wasnorm_wordpool_576.txt	LTP133	ltpFR2	23	10	SWIMMER	1420	n/a	n/a	0	0	0
2979.028	n/a	WORD	1489514	wordpools/wasnorm_wordpool_576.txt	LTP133	ltpFR2	23	10	HUMAN	726	n/a	n/a	0	0	0
2981.778	n/a	WORD	1490889	wordpools/wasnorm_wordpool_576.txt	LTP133	ltpFR2	23	10	SOFTBALL	1343	n/a	n/a	0	0	0
2984.48	n/a	WORD	1492240	wordpools/wasnorm_wordpool_576.txt	LTP133	ltpFR2	23	10	SPIDER	1351	n/a	n/a	0	0	0
2987.216	n/a	WORD	1493608	wordpools/wasnorm_wordpool_576.txt	LTP133	ltpFR2	23	10	PERSON	1052	n/a	n/a	0	0	0
2989.802	n/a	WORD	1494901	wordpools/wasnorm_wordpool_576.txt	LTP133	ltpFR2	23	10	GIRAFFE	636	n/a	n/a	0	0	0
2992.504	n/a	WORD	1496252	wordpools/wasnorm_wordpool_576.txt	LTP133	ltpFR2	23	10	PERCH	1048	n/a	n/a	0	0	0
2994.956	n/a	WORD	1497478	wordpools/wasnorm_wordpool_576.txt	LTP133	ltpFR2	23	10	ATTIRE	57	n/a	n/a	0	0	0
2997.524	n/a	WORD	1498762	wordpools/wasnorm_wordpool_576.txt	LTP133	ltpFR2	23	10	CHURCH	307	n/a	n/a	0	0	0
3000.294	n/a	WORD	1500147	wordpools/wasnorm_wordpool_576.txt	LTP133	ltpFR2	23	10	TEMPLE	1448	n/a	n/a	0	0	0
3002.762	n/a	WORD	1501381	wordpools/wasnorm_wordpool_576.txt	LTP133	ltpFR2	23	10	HOSTAGE	722	n/a	n/a	0	0	0
3005.332	n/a	WORD	1502666	wordpools/wasnorm_wordpool_576.txt	LTP133	ltpFR2	23	10	FARMER	553	n/a	n/a	0	0	0
3008.068	n/a	WORD	1504034	wordpools/wasnorm_wordpool_576.txt	LTP133	ltpFR2	23	10	SEAFOOD	1260	n/a	n/a	0	0	0
3009.686	n/a	START	1504843	n/a	LTP133	ltpFR2	23	n/a	n/a	n/a	15	n/a	n/a	n/a	n/a
3010.868	n/a	DISTRACTOR	1505434	n/a	LTP133	ltpFR2	23	10	n/a	n/a	n/a	n/a	0	0	0
3010.886	n/a	PROB	1505443	n/a	LTP133	ltpFR2	23	n/a	n/a	n/a	15	15	5	9	1
3012.67	n/a	PROB	1506335	n/a	LTP133	ltpFR2	23	n/a	n/a	n/a	15	24	9	7	8
3014.52	n/a	PROB	1507260	n/a	LTP133	ltpFR2	23	n/a	n/a	n/a	15	14	2	9	3
3016.038	n/a	PROB	1508019	n/a	LTP133	ltpFR2	23	n/a	n/a	n/a	15	17	4	5	8
3017.84	n/a	PROB	1508920	n/a	LTP133	ltpFR2	23	n/a	n/a	n/a	15	15	3	3	9
3019.092	n/a	PROB	1509546	n/a	LTP133	ltpFR2	23	n/a	n/a	n/a	15	19	8	9	2
3020.758	n/a	PROB	1510379	n/a	LTP133	ltpFR2	23	n/a	n/a	n/a	15	10	3	4	3
3022.46	n/a	PROB	1511230	n/a	LTP133	ltpFR2	23	n/a	n/a	n/a	15	15	1	8	6
3023.778	n/a	PROB	1511889	n/a	LTP133	ltpFR2	23	n/a	n/a	n/a	15	12	5	5	2
3024.88	n/a	PROB	1512440	n/a	LTP133	ltpFR2	23	n/a	n/a	n/a	15	11	2	1	8
3026.198	n/a	PROB	1513099	n/a	LTP133	ltpFR2	23	n/a	n/a	n/a	15	21	4	9	9
3027.832	n/a	PROB	1513916	n/a	LTP133	ltpFR2	23	n/a	n/a	n/a	15	18	5	7	6
3029.116	n/a	PROB	1514558	n/a	LTP133	ltpFR2	23	n/a	n/a	n/a	15	22	8	9	5
3031.902	n/a	PROB	1515951	n/a	LTP133	ltpFR2	23	n/a	n/a	n/a	15	7	2	1	4
3033.128	n/a	STOP	1516564	n/a	LTP133	ltpFR2	23	n/a	n/a	n/a	15	n/a	n/a	n/a	n/a
3035.638	n/a	REC_START	1517819	n/a	LTP133	ltpFR2	23	10	n/a	n/a	n/a	n/a	0	0	0
3038.864	n/a	REC_WORD	1519432	wordpools/wasnorm_wordpool_576.txt	LTP133	ltpFR2	23	10	HOSTAGE	722	n/a	n/a	0	0	0
3044.58	n/a	REC_WORD	1522290	wordpools/wasnorm_wordpool_576.txt	LTP133	ltpFR2	23	10	PORPOISE	1109	n/a	n/a	0	0	0
3047.516	n/a	REC_WORD	1523758	wordpools/wasnorm_wordpool_576.txt	LTP133	ltpFR2	23	10	OINTMENT	974	n/a	n/a	0	0	0
3048.986	n/a	REC_WORD	1524493	wordpools/wasnorm_wordpool_576.txt	LTP133	ltpFR2	23	10	DRUG	501	n/a	n/a	0	0	0
3052.148	n/a	REC_WORD	1526074	wordpools/wasnorm_wordpool_576.txt	LTP133	ltpFR2	23	10	CARPET	247	n/a	n/a	0	0	0
3053.038	n/a	REC_WORD	1526519	wordpools/wasnorm_wordpool_576.txt	LTP133	ltpFR2	23	10	COCOON	339	n/a	n/a	0	0	0
3126.096	n/a	DISTRACTOR	1563048	n/a	LTP133	ltpFR2	23	11	n/a	n/a	n/a	n/a	0	0	0
3126.096	n/a	START	1563048	n/a	LTP133	ltpFR2	23	n/a	n/a	n/a	16	n/a	n/a	n/a	n/a
3126.112	n/a	PROB	1563056	n/a	LTP133	ltpFR2	23	n/a	n/a	n/a	16	21	4	8	9
3127.596	n/a	PROB	1563798	n/a	LTP133	ltpFR2	23	n/a	n/a	n/a	16	6	1	4	1
3128.712	n/a	PROB	1564356	n/a	LTP133	ltpFR2	23	n/a	n/a	n/a	16	15	4	2	9
3129.864	n/a	PROB	1564932	n/a	LTP133	ltpFR2	23	n/a	n/a	n/a	16	19	9	4	6
3131.848	n/a	PROB	1565924	n/a	LTP133	ltpFR2	23	n/a	n/a	n/a	16	19	3	8	8
3133.084	n/a	PROB	1566542	n/a	LTP133	ltpFR2	23	n/a	n/a	n/a	16	19	5	9	5
3134.636	n/a	PROB	1567318	n/a	LTP133	ltpFR2	23	n/a	n/a	n/a	16	19	9	2	8
3136.07	n/a	PROB	1568035	n/a	LTP133	ltpFR2	23	n/a	n/a	n/a	16	6	1	1	4
3137.172	n/a	PROB	1568586	n/a	LTP133	ltpFR2	23	n/a	n/a	n/a	16	21	7	8	6
3138.772	n/a	PROB	1569386	n/a	LTP133	ltpFR2	23	n/a	n/a	n/a	16	16	6	9	1
3139.942	n/a	PROB	1569971	n/a	LTP133	ltpFR2	23	n/a	n/a	n/a	16	22	7	7	8
3141.29	n/a	PROB	1570645	n/a	LTP133	ltpFR2	23	n/a	n/a	n/a	16	15	7	7	1
3142.406	n/a	PROB	1571203	n/a	LTP133	ltpFR2	23	n/a	n/a	n/a	16	22	9	7	6
3144.01	n/a	PROB	1572005	n/a	LTP133	ltpFR2	23	n/a	n/a	n/a	16	15	2	6	7
3145.458	n/a	PROB	1572729	n/a	LTP133	ltpFR2	23	n/a	n/a	n/a	16	23	7	8	8
3147.444	n/a	PROB	1573722	n/a	LTP133	ltpFR2	23	n/a	n/a	n/a	16	10	3	3	4
3148.724	n/a	STOP	1574362	n/a	LTP133	ltpFR2	23	n/a	n/a	n/a	16	n/a	n/a	n/a	n/a
3151.0	n/a	WORD	1575500	wordpools/wasnorm_wordpool_576.txt	LTP133	ltpFR2	23	11	CABOOSE	214	n/a	n/a	0	0	0
3153.568	n/a	WORD	1576784	wordpools/wasnorm_wordpool_576.txt	LTP133	ltpFR2	23	11	DUST	508	n/a	n/a	0	0	0
3156.37	n/a	WORD	1578185	wordpools/wasnorm_wordpool_576.txt	LTP133	ltpFR2	23	11	BIBLE	124	n/a	n/a	0	0	0
3159.09	n/a	WORD	1579545	wordpools/wasnorm_wordpool_576.txt	LTP133	ltpFR2	23	11	FRIEND	606	n/a	n/a	0	0	0
3161.824	n/a	WORD	1580912	wordpools/wasnorm_wordpool_576.txt	LTP133	ltpFR2	23	11	PARTNER	1017	n/a	n/a	0	0	0
3164.376	n/a	WORD	1582188	wordpools/wasnorm_wordpool_576.txt	LTP133	ltpFR2	23	11	SALESMAN	1225	n/a	n/a	0	0	0
3167.128	n/a	WORD	1583564	wordpools/wasnorm_wordpool_576.txt	LTP133	ltpFR2	23	11	GODDESS	646	n/a	n/a	0	0	0
3169.864	n/a	WORD	1584932	wordpools/wasnorm_wordpool_576.txt	LTP133	ltpFR2	23	11	PEPPER	1047	n/a	n/a	0	0	0
3172.566	n/a	WORD	1586283	wordpools/wasnorm_wordpool_576.txt	LTP133	ltpFR2	23	11	REPTILE	1185	n/a	n/a	0	0	0
3175.352	n/a	WORD	1587676	wordpools/wasnorm_wordpool_576.txt	LTP133	ltpFR2	23	11	CRIB	407	n/a	n/a	0	0	0
3178.104	n/a	WORD	1589052	wordpools/wasnorm_wordpool_576.txt	LTP133	ltpFR2	23	11	HEADBAND	696	n/a	n/a	0	0	0
3180.556	n/a	WORD	1590278	wordpools/wasnorm_wordpool_576.txt	LTP133	ltpFR2	23	11	TWEEZERS	1526	n/a	n/a	0	0	0
3183.292	n/a	WORD	1591646	wordpools/wasnorm_wordpool_576.txt	LTP133	ltpFR2	23	11	QUAIL	1147	n/a	n/a	0	0	0
3186.044	n/a	WORD	1593022	wordpools/wasnorm_wordpool_576.txt	LTP133	ltpFR2	23	11	VALLEY	1545	n/a	n/a	0	0	0
3188.878	n/a	WORD	1594439	wordpools/wasnorm_wordpool_576.txt	LTP133	ltpFR2	23	11	DRIVEWAY	500	n/a	n/a	0	0	0
3191.548	n/a	WORD	1595774	wordpools/wasnorm_wordpool_576.txt	LTP133	ltpFR2	23	11	SUITE	1404	n/a	n/a	0	0	0
3193.984	n/a	WORD	1596992	wordpools/wasnorm_wordpool_576.txt	LTP133	ltpFR2	23	11	PLAQUE	1084	n/a	n/a	0	0	0
3196.686	n/a	WORD	1598343	wordpools/wasnorm_wordpool_576.txt	LTP133	ltpFR2	23	11	FOSSIL	596	n/a	n/a	0	0	0
3199.322	n/a	WORD	1599661	wordpools/wasnorm_wordpool_576.txt	LTP133	ltpFR2	23	11	KNUCKLE	789	n/a	n/a	0	0	0
3202.074	n/a	WORD	1601037	wordpools/wasnorm_wordpool_576.txt	LTP133	ltpFR2	23	11	PADDING	999	n/a	n/a	0	0	0
3204.674	n/a	WORD	1602337	wordpools/wasnorm_wordpool_576.txt	LTP133	ltpFR2	23	11	SUITCASE	1403	n/a	n/a	0	0	0
3207.194	n/a	WORD	1603597	wordpools/wasnorm_wordpool_576.txt	LTP133	ltpFR2	23	11	GAZELLE	628	n/a	n/a	0	0	0
3209.83	n/a	WORD	1604915	wordpools/wasnorm_wordpool_576.txt	LTP133	ltpFR2	23	11	SAPPHIRE	1234	n/a	n/a	0	0	0
3212.498	n/a	WORD	1606249	wordpools/wasnorm_wordpool_576.txt	LTP133	ltpFR2	23	11	CRYSTAL	418	n/a	n/a	0	0	0
3214.118	n/a	START	1607059	n/a	LTP133	ltpFR2	23	n/a	n/a	n/a	17	n/a	n/a	n/a	n/a
3215.216	n/a	DISTRACTOR	1607608	n/a	LTP133	ltpFR2	23	11	n/a	n/a	n/a	n/a	0	0	0
3215.234	n/a	PROB	1607617	n/a	LTP133	ltpFR2	23	n/a	n/a	n/a	17	19	7	9	3
3217.434	n/a	PROB	1608717	n/a	LTP133	ltpFR2	23	n/a	n/a	n/a	17	15	8	6	1
3218.584	n/a	PROB	1609292	n/a	LTP133	ltpFR2	23	n/a	n/a	n/a	17	19	8	2	9
3219.92	n/a	PROB	1609960	n/a	LTP133	ltpFR2	23	n/a	n/a	n/a	17	20	8	9	3
3221.606	n/a	PROB	1610803	n/a	LTP133	ltpFR2	23	n/a	n/a	n/a	17	19	5	6	8
3222.906	n/a	PROB	1611453	n/a	LTP133	ltpFR2	23	n/a	n/a	n/a	17	19	9	9	1
3224.526	n/a	PROB	1612263	n/a	LTP133	ltpFR2	23	n/a	n/a	n/a	17	12	7	3	2
3225.842	n/a	PROB	1612921	n/a	LTP133	ltpFR2	23	n/a	n/a	n/a	17	21	7	5	9
3227.16	n/a	PROB	1613580	n/a	LTP133	ltpFR2	23	n/a	n/a	n/a	17	20	7	4	9
3229.51	n/a	PROB	1614755	n/a	LTP133	ltpFR2	23	n/a	n/a	n/a	17	18	6	6	6
3230.746	n/a	PROB	1615373	n/a	LTP133	ltpFR2	23	n/a	n/a	n/a	17	15	6	7	2
3232.212	n/a	PROB	1616106	n/a	LTP133	ltpFR2	23	n/a	n/a	n/a	17	11	7	2	2
3233.532	n/a	PROB	1616766	n/a	LTP133	ltpFR2	23	n/a	n/a	n/a	17	13	5	3	5
3238.118	n/a	STOP	1619059	n/a	LTP133	ltpFR2	23	n/a	n/a	n/a	17	n/a	n/a	n/a	n/a
3239.938	n/a	REC_START	1619969	n/a	LTP133	ltpFR2	23	11	n/a	n/a	n/a	n/a	0	0	0
3241.528	n/a	REC_WORD	1620764	wordpools/wasnorm_wordpool_576.txt	LTP133	ltpFR2	23	11	SUITCASE	1403	n/a	n/a	0	0	0
3242.63	n/a	REC_WORD	1621315	wordpools/wasnorm_wordpool_576.txt	LTP133	ltpFR2	23	11	GAZELLE	628	n/a	n/a	0	0	0
3244.6	n/a	REC_WORD	1622300	wordpools/wasnorm_wordpool_576.txt	LTP133	ltpFR2	23	11	SAPPHIRE	1234	n/a	n/a	0	0	0
3245.6	n/a	REC_WORD_VV	1622800	wordpools/wasnorm_wordpool_576.txt	LTP133	ltpFR2	23	11	<>	-1	n/a	n/a	0	0	0
3259.09	n/a	REC_WORD	1629545	wordpools/wasnorm_wordpool_576.txt	LTP133	ltpFR2	23	11	EMERALD	528	n/a	n/a	0	0	0
3301.64	n/a	REC_WORD	1650820	wordpools/wasnorm_wordpool_576.txt	LTP133	ltpFR2	23	11	REPTILE	1185	n/a	n/a	0	0	0
3302.69	n/a	REC_WORD	1651345	wordpools/wasnorm_wordpool_576.txt	LTP133	ltpFR2	23	11	PEPPER	1047	n/a	n/a	0	0	0
3304.238	n/a	REC_WORD	1652119	wordpools/wasnorm_wordpool_576.txt	LTP133	ltpFR2	23	11	GODDESS	646	n/a	n/a	0	0	0
3305.766	n/a	REC_WORD	1652883	wordpools/wasnorm_wordpool_576.txt	LTP133	ltpFR2	23	11	HOSTAGE	722	n/a	n/a	0	0	0
3377.716	n/a	DISTRACTOR	1688858	n/a	LTP133	ltpFR2	23	12	n/a	n/a	n/a	n/a	0	0	0
3377.716	n/a	START	1688858	n/a	LTP133	ltpFR2	23	n/a	n/a	n/a	18	n/a	n/a	n/a	n/a
3377.732	n/a	PROB	1688866	n/a	LTP133	ltpFR2	23	n/a	n/a	n/a	18	13	4	6	3
3378.964	n/a	PROB	1689482	n/a	LTP133	ltpFR2	23	n/a	n/a	n/a	18	9	1	3	5
3380.248	n/a	PROB	1690124	n/a	LTP133	ltpFR2	23	n/a	n/a	n/a	18	21	7	8	6
3381.684	n/a	PROB	1690842	n/a	LTP133	ltpFR2	23	n/a	n/a	n/a	18	17	7	5	5
3383.534	n/a	PROB	1691767	n/a	LTP133	ltpFR2	23	n/a	n/a	n/a	18	6	1	2	3
3384.886	n/a	PROB	1692443	n/a	LTP133	ltpFR2	23	n/a	n/a	n/a	18	13	2	6	5
3386.722	n/a	PROB	1693361	n/a	LTP133	ltpFR2	23	n/a	n/a	n/a	18	14	8	2	4
3388.088	n/a	PROB	1694044	n/a	LTP133	ltpFR2	23	n/a	n/a	n/a	18	14	7	4	3
3389.408	n/a	PROB	1694704	n/a	LTP133	ltpFR2	23	n/a	n/a	n/a	18	22	9	9	4
3390.74	n/a	PROB	1695370	n/a	LTP133	ltpFR2	23	n/a	n/a	n/a	18	14	3	6	5
3392.794	n/a	PROB	1696397	n/a	LTP133	ltpFR2	23	n/a	n/a	n/a	18	19	8	9	2
3394.362	n/a	PROB	1697181	n/a	LTP133	ltpFR2	23	n/a	n/a	n/a	18	21	9	7	5
3396.294	n/a	PROB	1698147	n/a	LTP133	ltpFR2	23	n/a	n/a	n/a	18	22	5	9	8
3398.146	n/a	PROB	1699073	n/a	LTP133	ltpFR2	23	n/a	n/a	n/a	18	13	8	1	4
3399.43	n/a	PROB	1699715	n/a	LTP133	ltpFR2	23	n/a	n/a	n/a	18	14	4	9	1
3401.248	n/a	STOP	1700624	n/a	LTP133	ltpFR2	23	n/a	n/a	n/a	18	n/a	n/a	n/a	n/a
3402.718	n/a	WORD	1701359	wordpools/wasnorm_wordpool_576.txt	LTP133	ltpFR2	23	12	ATTIC	56	n/a	n/a	0	0	0
3405.22	n/a	WORD	1702610	wordpools/wasnorm_wordpool_576.txt	LTP133	ltpFR2	23	12	COLESLAW	344	n/a	n/a	0	0	0
3407.756	n/a	WORD	1703878	wordpools/wasnorm_wordpool_576.txt	LTP133	ltpFR2	23	12	MUSHROOM	934	n/a	n/a	0	0	0
3410.208	n/a	WORD	1705104	wordpools/wasnorm_wordpool_576.txt	LTP133	ltpFR2	23	12	POISON	1096	n/a	n/a	0	0	0
3412.744	n/a	WORD	1706372	wordpools/wasnorm_wordpool_576.txt	LTP133	ltpFR2	23	12	CLOCK	325	n/a	n/a	0	0	0
3415.294	n/a	WORD	1707647	wordpools/wasnorm_wordpool_576.txt	LTP133	ltpFR2	23	12	MAILBOX	857	n/a	n/a	0	0	0
3417.748	n/a	WORD	1708874	wordpools/wasnorm_wordpool_576.txt	LTP133	ltpFR2	23	12	POPCORN	1104	n/a	n/a	0	0	0
3420.398	n/a	WORD	1710199	wordpools/wasnorm_wordpool_576.txt	LTP133	ltpFR2	23	12	LODGE	839	n/a	n/a	0	0	0
3423.084	n/a	WORD	1711542	wordpools/wasnorm_wordpool_576.txt	LTP133	ltpFR2	23	12	CONVICT	371	n/a	n/a	0	0	0
3425.852	n/a	WORD	1712926	wordpools/wasnorm_wordpool_576.txt	LTP133	ltpFR2	23	12	BURGLAR	200	n/a	n/a	0	0	0
3428.356	n/a	WORD	1714178	wordpools/wasnorm_wordpool_576.txt	LTP133	ltpFR2	23	12	CUPBOARD	425	n/a	n/a	0	0	0
3431.09	n/a	WORD	1715545	wordpools/wasnorm_wordpool_576.txt	LTP133	ltpFR2	23	12	MATTRESS	879	n/a	n/a	0	0	0
3433.626	n/a	WORD	1716813	wordpools/wasnorm_wordpool_576.txt	LTP133	ltpFR2	23	12	PORK	1108	n/a	n/a	0	0	0
3436.196	n/a	WORD	1718098	wordpools/wasnorm_wordpool_576.txt	LTP133	ltpFR2	23	12	COFFIN	342	n/a	n/a	0	0	0
3438.73	n/a	WORD	1719365	wordpools/wasnorm_wordpool_576.txt	LTP133	ltpFR2	23	12	FROST	609	n/a	n/a	0	0	0
3441.2	n/a	WORD	1720600	wordpools/wasnorm_wordpool_576.txt	LTP133	ltpFR2	23	12	COBRA	336	n/a	n/a	0	0	0
3443.684	n/a	WORD	1721842	wordpools/wasnorm_wordpool_576.txt	LTP133	ltpFR2	23	12	WALNUT	1584	n/a	n/a	0	0	0
3446.354	n/a	WORD	1723177	wordpools/wasnorm_wordpool_576.txt	LTP133	ltpFR2	23	12	VILLAGE	1566	n/a	n/a	0	0	0
3448.822	n/a	WORD	1724411	wordpools/wasnorm_wordpool_576.txt	LTP133	ltpFR2	23	12	SUBURB	1399	n/a	n/a	0	0	0
3451.506	n/a	WORD	1725753	wordpools/wasnorm_wordpool_576.txt	LTP133	ltpFR2	23	12	MARBLE	867	n/a	n/a	0	0	0
3454.292	n/a	WORD	1727146	wordpools/wasnorm_wordpool_576.txt	LTP133	ltpFR2	23	12	MOTHER	921	n/a	n/a	0	0	0
3456.762	n/a	WORD	1728381	wordpools/wasnorm_wordpool_576.txt	LTP133	ltpFR2	23	12	DORM	488	n/a	n/a	0	0	0
3459.33	n/a	WORD	1729665	wordpools/wasnorm_wordpool_576.txt	LTP133	ltpFR2	23	12	STAIRS	1367	n/a	n/a	0	0	0
3462.132	n/a	WORD	1731066	wordpools/wasnorm_wordpool_576.txt	LTP133	ltpFR2	23	12	SIRLOIN	1311	n/a	n/a	0	0	0
3463.752	n/a	START	1731876	n/a	LTP133	ltpFR2	23	n/a	n/a	n/a	19	n/a	n/a	n/a	n/a
3464.852	n/a	DISTRACTOR	1732426	n/a	LTP133	ltpFR2	23	12	n/a	n/a	n/a	n/a	0	0	0
3464.868	n/a	PROB	1732434	n/a	LTP133	ltpFR2	23	n/a	n/a	n/a	19	6	1	2	3
3466.236	n/a	PROB	1733118	n/a	LTP133	ltpFR2	23	n/a	n/a	n/a	19	16	8	1	7
3467.718	n/a	PROB	1733859	n/a	LTP133	ltpFR2	23	n/a	n/a	n/a	19	19	8	5	6
3469.088	n/a	PROB	1734544	n/a	LTP133	ltpFR2	23	n/a	n/a	n/a	19	22	7	9	6
3470.806	n/a	PROB	1735403	n/a	LTP133	ltpFR2	23	n/a	n/a	n/a	19	11	1	1	9
3472.106	n/a	PROB	1736053	n/a	LTP133	ltpFR2	23	n/a	n/a	n/a	19	6	3	2	1
3473.424	n/a	PROB	1736712	n/a	LTP133	ltpFR2	23	n/a	n/a	n/a	19	15	6	2	7
3474.846	n/a	PROB	1737423	n/a	LTP133	ltpFR2	23	n/a	n/a	n/a	19	16	2	5	9
3476.594	n/a	PROB	1738297	n/a	LTP133	ltpFR2	23	n/a	n/a	n/a	19	7	4	1	2
3478.062	n/a	PROB	1739031	n/a	LTP133	ltpFR2	23	n/a	n/a	n/a	19	18	8	6	4
3479.33	n/a	PROB	1739665	n/a	LTP133	ltpFR2	23	n/a	n/a	n/a	19	15	5	8	2
3480.68	n/a	PROB	1740340	n/a	LTP133	ltpFR2	23	n/a	n/a	n/a	19	9	1	2	6
3481.968	n/a	PROB	1740984	n/a	LTP133	ltpFR2	23	n/a	n/a	n/a	19	18	7	6	5
3483.398	n/a	PROB	1741699	n/a	LTP133	ltpFR2	23	n/a	n/a	n/a	19	11	3	6	2
3484.716	n/a	PROB	1742358	n/a	LTP133	ltpFR2	23	n/a	n/a	n/a	19	21	7	9	5
3487.752	n/a	STOP	1743876	n/a	LTP133	ltpFR2	23	n/a	n/a	n/a	19	n/a	n/a	n/a	n/a
3489.572	n/a	REC_START	1744786	n/a	LTP133	ltpFR2	23	12	n/a	n/a	n/a	n/a	0	0	0
3491.488	n/a	REC_WORD	1745744	wordpools/wasnorm_wordpool_576.txt	LTP133	ltpFR2	23	12	MARBLE	867	n/a	n/a	0	0	0
3492.484	n/a	REC_WORD	1746242	wordpools/wasnorm_wordpool_576.txt	LTP133	ltpFR2	23	12	MOTHER	921	n/a	n/a	0	0	0
3493.626	n/a	REC_WORD	1746813	wordpools/wasnorm_wordpool_576.txt	LTP133	ltpFR2	23	12	DORM	488	n/a	n/a	0	0	0
3494.622	n/a	REC_WORD	1747311	wordpools/wasnorm_wordpool_576.txt	LTP133	ltpFR2	23	12	STAIRS	1367	n/a	n/a	0	0	0
3495.622	n/a	REC_WORD_VV	1747811	wordpools/wasnorm_wordpool_576.txt	LTP133	ltpFR2	23	12	<>	-1	n/a	n/a	0	0	0
3501.088	n/a	REC_WORD	1750544	wordpools/wasnorm_wordpool_576.txt	LTP133	ltpFR2	23	12	CONVICT	371	n/a	n/a	0	0	0
3502.034	n/a	REC_WORD	1751017	wordpools/wasnorm_wordpool_576.txt	LTP133	ltpFR2	23	12	POPCORN	1104	n/a	n/a	0	0	0
3503.52	n/a	REC_WORD	1751760	wordpools/wasnorm_wordpool_576.txt	LTP133	ltpFR2	23	12	LODGE	839	n/a	n/a	0	0	0
3505.05	n/a	REC_WORD	1752525	wordpools/wasnorm_wordpool_576.txt	LTP133	ltpFR2	23	12	VILLAGE	1566	n/a	n/a	0	0	0
3506.004	n/a	REC_WORD	1753002	wordpools/wasnorm_wordpool_576.txt	LTP133	ltpFR2	23	12	WALNUT	1584	n/a	n/a	0	0	0
3507.024	n/a	REC_WORD	1753512	wordpools/wasnorm_wordpool_576.txt	LTP133	ltpFR2	23	12	SUBURB	1399	n/a	n/a	0	0	0
3561.016	n/a	REC_WORD	1780508	wordpools/wasnorm_wordpool_576.txt	LTP133	ltpFR2	23	12	POISON	1096	n/a	n/a	0	0	0
3561.77	n/a	REC_WORD	1780885	wordpools/wasnorm_wordpool_576.txt	LTP133	ltpFR2	23	12	MUSHROOM	934	n/a	n/a	0	0	0
3562.966	n/a	REC_WORD	1781483	wordpools/wasnorm_wordpool_576.txt	LTP133	ltpFR2	23	12	COLESLAW	344	n/a	n/a	0	0	0
3580.044	n/a	WORD	1790022	wordpools/wasnorm_wordpool_576.txt	LTP133	ltpFR2	23	13	SPICE	1350	n/a	n/a	0	0	0
3582.496	n/a	WORD	1791248	wordpools/wasnorm_wordpool_576.txt	LTP133	ltpFR2	23	13	SERVER	1272	n/a	n/a	0	0	0
3585.282	n/a	WORD	1792641	wordpools/wasnorm_wordpool_576.txt	LTP133	ltpFR2	23	13	JUGGLER	763	n/a	n/a	0	0	0
3587.85	n/a	WORD	1793925	wordpools/wasnorm_wordpool_576.txt	LTP133	ltpFR2	23	13	STONE	1385	n/a	n/a	0	0	0
3590.518	n/a	WORD	1795259	wordpools/wasnorm_wordpool_576.txt	LTP133	ltpFR2	23	13	PEBBLE	1035	n/a	n/a	0	0	0
3593.24	n/a	WORD	1796620	wordpools/wasnorm_wordpool_576.txt	LTP133	ltpFR2	23	13	PICTURE	1061	n/a	n/a	0	0	0
3595.974	n/a	WORD	1797987	wordpools/wasnorm_wordpool_576.txt	LTP133	ltpFR2	23	13	RACKET	1155	n/a	n/a	0	0	0
3598.76	n/a	WORD	1799380	wordpools/wasnorm_wordpool_576.txt	LTP133	ltpFR2	23	13	CANVAS	234	n/a	n/a	0	0	0
3601.362	n/a	WORD	1800681	wordpools/wasnorm_wordpool_576.txt	LTP133	ltpFR2	23	13	HOUSE	725	n/a	n/a	0	0	0
3603.93	n/a	WORD	1801965	wordpools/wasnorm_wordpool_576.txt	LTP133	ltpFR2	23	13	PIGMENT	1066	n/a	n/a	0	0	0
3606.682	n/a	WORD	1803341	wordpools/wasnorm_wordpool_576.txt	LTP133	ltpFR2	23	13	STALLION	1369	n/a	n/a	0	0	0
3609.5	n/a	WORD	1804750	wordpools/wasnorm_wordpool_576.txt	LTP133	ltpFR2	23	13	GUARD	667	n/a	n/a	0	0	0
3612.086	n/a	WORD	1806043	wordpools/wasnorm_wordpool_576.txt	LTP133	ltpFR2	23	13	HORNET	718	n/a	n/a	0	0	0
3614.672	n/a	WORD	1807336	wordpools/wasnorm_wordpool_576.txt	LTP133	ltpFR2	23	13	FEAST	556	n/a	n/a	0	0	0
3617.224	n/a	WORD	1808612	wordpools/wasnorm_wordpool_576.txt	LTP133	ltpFR2	23	13	HIGHWAY	707	n/a	n/a	0	0	0
3619.942	n/a	WORD	1809971	wordpools/wasnorm_wordpool_576.txt	LTP133	ltpFR2	23	13	PLATE	1086	n/a	n/a	0	0	0
3622.544	n/a	WORD	1811272	wordpools/wasnorm_wordpool_576.txt	LTP133	ltpFR2	23	13	ANCHOR	21	n/a	n/a	0	0	0
3625.014	n/a	WORD	1812507	wordpools/wasnorm_wordpool_576.txt	LTP133	ltpFR2	23	13	STAPLER	1372	n/a	n/a	0	0	0
3627.666	n/a	WORD	1813833	wordpools/wasnorm_wordpool_576.txt	LTP133	ltpFR2	23	13	LIST	830	n/a	n/a	0	0	0
3630.152	n/a	WORD	1815076	wordpools/wasnorm_wordpool_576.txt	LTP133	ltpFR2	23	13	SERPENT	1270	n/a	n/a	0	0	0
3632.654	n/a	WORD	1816327	wordpools/wasnorm_wordpool_576.txt	LTP133	ltpFR2	23	13	PIRATE	1074	n/a	n/a	0	0	0
3635.454	n/a	WORD	1817727	wordpools/wasnorm_wordpool_576.txt	LTP133	ltpFR2	23	13	PRIEST	1122	n/a	n/a	0	0	0
3638.008	n/a	WORD	1819004	wordpools/wasnorm_wordpool_576.txt	LTP133	ltpFR2	23	13	SQUIRREL	1362	n/a	n/a	0	0	0
3640.626	n/a	WORD	1820313	wordpools/wasnorm_wordpool_576.txt	LTP133	ltpFR2	23	13	TRUMPET	1513	n/a	n/a	0	0	0
3642.246	n/a	START	1821123	n/a	LTP133	ltpFR2	23	n/a	n/a	n/a	20	n/a	n/a	n/a	n/a
3643.382	n/a	DISTRACTOR	1821691	n/a	LTP133	ltpFR2	23	13	n/a	n/a	n/a	n/a	0	0	0
3643.394	n/a	PROB	1821697	n/a	LTP133	ltpFR2	23	n/a	n/a	n/a	20	13	3	4	6
3644.88	n/a	PROB	1822440	n/a	LTP133	ltpFR2	23	n/a	n/a	n/a	20	11	3	4	4
3646.428	n/a	PROB	1823214	n/a	LTP133	ltpFR2	23	n/a	n/a	n/a	20	14	2	4	8
3647.782	n/a	PROB	1823891	n/a	LTP133	ltpFR2	23	n/a	n/a	n/a	20	20	7	6	7
3649.116	n/a	PROB	1824558	n/a	LTP133	ltpFR2	23	n/a	n/a	n/a	20	15	3	8	4
3650.45	n/a	PROB	1825225	n/a	LTP133	ltpFR2	23	n/a	n/a	n/a	20	21	6	8	7
3651.952	n/a	PROB	1825976	n/a	LTP133	ltpFR2	23	n/a	n/a	n/a	20	10	7	1	2
3654.02	n/a	PROB	1827010	n/a	LTP133	ltpFR2	23	n/a	n/a	n/a	20	17	1	9	7
3655.32	n/a	PROB	1827660	n/a	LTP133	ltpFR2	23	n/a	n/a	n/a	20	17	5	9	3
3656.788	n/a	PROB	1828394	n/a	LTP133	ltpFR2	23	n/a	n/a	n/a	20	13	6	1	6
3658.456	n/a	PROB	1829228	n/a	LTP133	ltpFR2	23	n/a	n/a	n/a	20	17	2	9	6
3659.958	n/a	PROB	1829979	n/a	LTP133	ltpFR2	23	n/a	n/a	n/a	20	11	4	1	6
3661.16	n/a	PROB	1830580	n/a	LTP133	ltpFR2	23	n/a	n/a	n/a	20	8	2	4	2
3662.396	n/a	PROB	1831198	n/a	LTP133	ltpFR2	23	n/a	n/a	n/a	20	10	2	3	5
3663.812	n/a	PROB	1831906	n/a	LTP133	ltpFR2	23	n/a	n/a	n/a	20	10	5	1	4
3665.1	n/a	STOP	1832550	n/a	LTP133	ltpFR2	23	n/a	n/a	n/a	20	n/a	n/a	n/a	n/a
3668.05	n/a	REC_START	1834025	n/a	LTP133	ltpFR2	23	13	n/a	n/a	n/a	n/a	0	0	0
3669.432	n/a	REC_WORD	1834716	wordpools/wasnorm_wordpool_576.txt	LTP133	ltpFR2	23	13	SQUIRREL	1362	n/a	n/a	0	0	0
3670.948	n/a	REC_WORD	1835474	wordpools/wasnorm_wordpool_576.txt	LTP133	ltpFR2	23	13	PRIESTESS	-1	n/a	n/a	0	0	0
3672.074	n/a	REC_WORD	1836037	wordpools/wasnorm_wordpool_576.txt	LTP133	ltpFR2	23	13	TRUMPET	1513	n/a	n/a	0	0	0
3677.91	n/a	REC_WORD	1838955	wordpools/wasnorm_wordpool_576.txt	LTP133	ltpFR2	23	13	SERPENT	1270	n/a	n/a	0	0	0
3678.942	n/a	REC_WORD	1839471	wordpools/wasnorm_wordpool_576.txt	LTP133	ltpFR2	23	13	PIRATE	1074	n/a	n/a	0	0	0
3680.286	n/a	REC_WORD	1840143	wordpools/wasnorm_wordpool_576.txt	LTP133	ltpFR2	23	13	LIST	830	n/a	n/a	0	0	0
3758.52	n/a	WORD	1879260	wordpools/wasnorm_wordpool_576.txt	LTP133	ltpFR2	23	14	CHARCOAL	281	n/a	n/a	0	0	0
3761.04	n/a	WORD	1880520	wordpools/wasnorm_wordpool_576.txt	LTP133	ltpFR2	23	14	DUNGEON	507	n/a	n/a	0	0	0
3763.726	n/a	WORD	1881863	wordpools/wasnorm_wordpool_576.txt	LTP133	ltpFR2	23	14	QUEEN	1149	n/a	n/a	0	0	0
3766.312	n/a	WORD	1883156	wordpools/wasnorm_wordpool_576.txt	LTP133	ltpFR2	23	14	BUCKLE	185	n/a	n/a	0	0	0
3768.78	n/a	WORD	1884390	wordpools/wasnorm_wordpool_576.txt	LTP133	ltpFR2	23	14	DAD	433	n/a	n/a	0	0	0
3771.416	n/a	WORD	1885708	wordpools/wasnorm_wordpool_576.txt	LTP133	ltpFR2	23	14	BUGLE	189	n/a	n/a	0	0	0
3774.05	n/a	WORD	1887025	wordpools/wasnorm_wordpool_576.txt	LTP133	ltpFR2	23	14	HERO	706	n/a	n/a	0	0	0
3776.786	n/a	WORD	1888393	wordpools/wasnorm_wordpool_576.txt	LTP133	ltpFR2	23	14	COLUMN	350	n/a	n/a	0	0	0
3779.288	n/a	WORD	1889644	wordpools/wasnorm_wordpool_576.txt	LTP133	ltpFR2	23	14	BASEBALL	93	n/a	n/a	0	0	0
3781.94	n/a	WORD	1890970	wordpools/wasnorm_wordpool_576.txt	LTP133	ltpFR2	23	14	LETTER	813	n/a	n/a	0	0	0
3784.392	n/a	WORD	1892196	wordpools/wasnorm_wordpool_576.txt	LTP133	ltpFR2	23	14	SCISSORS	1250	n/a	n/a	0	0	0
3787.144	n/a	WORD	1893572	wordpools/wasnorm_wordpool_576.txt	LTP133	ltpFR2	23	14	PIGEON	1065	n/a	n/a	0	0	0
3789.664	n/a	WORD	1894832	wordpools/wasnorm_wordpool_576.txt	LTP133	ltpFR2	23	14	PUMPKIN	1142	n/a	n/a	0	0	0
3792.098	n/a	WORD	1896049	wordpools/wasnorm_wordpool_576.txt	LTP133	ltpFR2	23	14	COBBLER	335	n/a	n/a	0	0	0
3794.85	n/a	WORD	1897425	wordpools/wasnorm_wordpool_576.txt	LTP133	ltpFR2	23	14	PASSAGE	1019	n/a	n/a	0	0	0
3797.402	n/a	WORD	1898701	wordpools/wasnorm_wordpool_576.txt	LTP133	ltpFR2	23	14	OX	994	n/a	n/a	0	0	0
3800.122	n/a	WORD	1900061	wordpools/wasnorm_wordpool_576.txt	LTP133	ltpFR2	23	14	SCRIBBLE	1256	n/a	n/a	0	0	0
3802.692	n/a	WORD	1901346	wordpools/wasnorm_wordpool_576.txt	LTP133	ltpFR2	23	14	BOTTLE	153	n/a	n/a	0	0	0
3805.474	n/a	WORD	1902737	wordpools/wasnorm_wordpool_576.txt	LTP133	ltpFR2	23	14	COUSIN	392	n/a	n/a	0	0	0
3807.978	n/a	WORD	1903989	wordpools/wasnorm_wordpool_576.txt	LTP133	ltpFR2	23	14	KITTEN	780	n/a	n/a	0	0	0
3810.78	n/a	WORD	1905390	wordpools/wasnorm_wordpool_576.txt	LTP133	ltpFR2	23	14	DOG	480	n/a	n/a	0	0	0
3813.464	n/a	WORD	1906732	wordpools/wasnorm_wordpool_576.txt	LTP133	ltpFR2	23	14	PARCEL	1012	n/a	n/a	0	0	0
3816.218	n/a	WORD	1908109	wordpools/wasnorm_wordpool_576.txt	LTP133	ltpFR2	23	14	SLACKS	1323	n/a	n/a	0	0	0
3819.004	n/a	WORD	1909502	wordpools/wasnorm_wordpool_576.txt	LTP133	ltpFR2	23	14	FATHER	554	n/a	n/a	0	0	0
3820.622	n/a	START	1910311	n/a	LTP133	ltpFR2	23	n/a	n/a	n/a	21	n/a	n/a	n/a	n/a
3821.564	n/a	DISTRACTOR	1910782	n/a	LTP133	ltpFR2	23	14	n/a	n/a	n/a	n/a	0	0	0
3821.572	n/a	PROB	1910786	n/a	LTP133	ltpFR2	23	n/a	n/a	n/a	21	10	1	3	6
3823.272	n/a	PROB	1911636	n/a	LTP133	ltpFR2	23	n/a	n/a	n/a	21	21	5	7	9
3824.44	n/a	PROB	1912220	n/a	LTP133	ltpFR2	23	n/a	n/a	n/a	21	18	6	5	7
3825.69	n/a	PROB	1912845	n/a	LTP133	ltpFR2	23	n/a	n/a	n/a	21	10	6	1	3
3827.042	n/a	PROB	1913521	n/a	LTP133	ltpFR2	23	n/a	n/a	n/a	21	21	5	8	8
3828.344	n/a	PROB	1914172	n/a	LTP133	ltpFR2	23	n/a	n/a	n/a	21	17	8	4	5
3829.896	n/a	PROB	1914948	n/a	LTP133	ltpFR2	23	n/a	n/a	n/a	21	14	9	3	3
3831.93	n/a	PROB	1915965	n/a	LTP133	ltpFR2	23	n/a	n/a	n/a	21	14	7	2	5
3834.048	n/a	PROB	1917024	n/a	LTP133	ltpFR2	23	n/a	n/a	n/a	21	22	9	9	4
3835.234	n/a	PROB	1917617	n/a	LTP133	ltpFR2	23	n/a	n/a	n/a	21	7	3	2	2
3836.334	n/a	PROB	1918167	n/a	LTP133	ltpFR2	23	n/a	n/a	n/a	21	10	1	2	7
3837.536	n/a	PROB	1918768	n/a	LTP133	ltpFR2	23	n/a	n/a	n/a	21	14	6	7	1
3839.004	n/a	PROB	1919502	n/a	LTP133	ltpFR2	23	n/a	n/a	n/a	21	16	5	5	6
3840.07	n/a	PROB	1920035	n/a	LTP133	ltpFR2	23	n/a	n/a	n/a	21	17	8	5	4
3841.388	n/a	PROB	1920694	n/a	LTP133	ltpFR2	23	n/a	n/a	n/a	21	25	8	9	8
3844.622	n/a	STOP	1922311	n/a	LTP133	ltpFR2	23	n/a	n/a	n/a	21	n/a	n/a	n/a	n/a
3846.44	n/a	REC_START	1923220	n/a	LTP133	ltpFR2	23	14	n/a	n/a	n/a	n/a	0	0	0
3849.054	n/a	REC_WORD	1924527	wordpools/wasnorm_wordpool_576.txt	LTP133	ltpFR2	23	14	PARCEL	1012	n/a	n/a	0	0	0
3850.684	n/a	REC_WORD	1925342	wordpools/wasnorm_wordpool_576.txt	LTP133	ltpFR2	23	14	PACKAGE	997	n/a	n/a	0	0	0
3853.03	n/a	REC_WORD	1926515	wordpools/wasnorm_wordpool_576.txt	LTP133	ltpFR2	23	14	KITTEN	780	n/a	n/a	0	0	0
3854.122	n/a	REC_WORD	1927061	wordpools/wasnorm_wordpool_576.txt	LTP133	ltpFR2	23	14	DOG	480	n/a	n/a	0	0	0
3855.15	n/a	REC_WORD	1927575	wordpools/wasnorm_wordpool_576.txt	LTP133	ltpFR2	23	14	COUSIN	392	n/a	n/a	0	0	0
3869.918	n/a	REC_WORD	1934959	wordpools/wasnorm_wordpool_576.txt	LTP133	ltpFR2	23	14	WATCH	-1	n/a	n/a	0	0	0
3870.77	n/a	REC_WORD	1935385	wordpools/wasnorm_wordpool_576.txt	LTP133	ltpFR2	23	14	SCISSORS	1250	n/a	n/a	0	0	0
3872.052	n/a	REC_WORD	1936026	wordpools/wasnorm_wordpool_576.txt	LTP133	ltpFR2	23	14	LETTER	813	n/a	n/a	0	0	0
3873.15	n/a	REC_WORD	1936575	wordpools/wasnorm_wordpool_576.txt	LTP133	ltpFR2	23	14	HERO	706	n/a	n/a	0	0	0
3874.316	n/a	REC_WORD	1937158	wordpools/wasnorm_wordpool_576.txt	LTP133	ltpFR2	23	14	COLUMN	350	n/a	n/a	0	0	0
3875.544	n/a	REC_WORD	1937772	wordpools/wasnorm_wordpool_576.txt	LTP133	ltpFR2	23	14	BASEBALL	93	n/a	n/a	0	0	0
4041.832	n/a	WORD	2020916	wordpools/wasnorm_wordpool_576.txt	LTP133	ltpFR2	23	15	CABIN	211	n/a	n/a	0	0	0
4044.302	n/a	WORD	2022151	wordpools/wasnorm_wordpool_576.txt	LTP133	ltpFR2	23	15	PRINCESS	1125	n/a	n/a	0	0	0
4046.954	n/a	WORD	2023477	wordpools/wasnorm_wordpool_576.txt	LTP133	ltpFR2	23	15	TIGER	1467	n/a	n/a	0	0	0
4049.39	n/a	WORD	2024695	wordpools/wasnorm_wordpool_576.txt	LTP133	ltpFR2	23	15	IGLOO	734	n/a	n/a	0	0	0
4051.926	n/a	WORD	2025963	wordpools/wasnorm_wordpool_576.txt	LTP133	ltpFR2	23	15	JOURNAL	760	n/a	n/a	0	0	0
4054.578	n/a	WORD	2027289	wordpools/wasnorm_wordpool_576.txt	LTP133	ltpFR2	23	15	HIKER	708	n/a	n/a	0	0	0
4057.346	n/a	WORD	2028673	wordpools/wasnorm_wordpool_576.txt	LTP133	ltpFR2	23	15	GERM	632	n/a	n/a	0	0	0
4059.882	n/a	WORD	2029941	wordpools/wasnorm_wordpool_576.txt	LTP133	ltpFR2	23	15	BATHTUB	100	n/a	n/a	0	0	0
4062.366	n/a	WORD	2031183	wordpools/wasnorm_wordpool_576.txt	LTP133	ltpFR2	23	15	LAKE	796	n/a	n/a	0	0	0
4064.852	n/a	WORD	2032426	wordpools/wasnorm_wordpool_576.txt	LTP133	ltpFR2	23	15	GAVEL	627	n/a	n/a	0	0	0
4067.572	n/a	WORD	2033786	wordpools/wasnorm_wordpool_576.txt	LTP133	ltpFR2	23	15	ADULT	8	n/a	n/a	0	0	0
4070.274	n/a	WORD	2035137	wordpools/wasnorm_wordpool_576.txt	LTP133	ltpFR2	23	15	STOCKING	1383	n/a	n/a	0	0	0
4072.892	n/a	WORD	2036446	wordpools/wasnorm_wordpool_576.txt	LTP133	ltpFR2	23	15	THRONE	1461	n/a	n/a	0	0	0
4075.662	n/a	WORD	2037831	wordpools/wasnorm_wordpool_576.txt	LTP133	ltpFR2	23	15	CLERK	321	n/a	n/a	0	0	0
4078.412	n/a	WORD	2039206	wordpools/wasnorm_wordpool_576.txt	LTP133	ltpFR2	23	15	RECORD	1176	n/a	n/a	0	0	0
4081.018	n/a	WORD	2040509	wordpools/wasnorm_wordpool_576.txt	LTP133	ltpFR2	23	15	WHISTLE	1606	n/a	n/a	0	0	0
4083.516	n/a	WORD	2041758	wordpools/wasnorm_wordpool_576.txt	LTP133	ltpFR2	23	15	JURY	766	n/a	n/a	0	0	0
4086.154	n/a	WORD	2043077	wordpools/wasnorm_wordpool_576.txt	LTP133	ltpFR2	23	15	TREASURE	1500	n/a	n/a	0	0	0
4088.656	n/a	WORD	2044328	wordpools/wasnorm_wordpool_576.txt	LTP133	ltpFR2	23	15	CLIFF	322	n/a	n/a	0	0	0
4091.24	n/a	WORD	2045620	wordpools/wasnorm_wordpool_576.txt	LTP133	ltpFR2	23	15	PUDDLE	1140	n/a	n/a	0	0	0
4093.81	n/a	WORD	2046905	wordpools/wasnorm_wordpool_576.txt	LTP133	ltpFR2	23	15	SAUCER	1237	n/a	n/a	0	0	0
4096.478	n/a	WORD	2048239	wordpools/wasnorm_wordpool_576.txt	LTP133	ltpFR2	23	15	ANKLE	24	n/a	n/a	0	0	0
4099.296	n/a	WORD	2049648	wordpools/wasnorm_wordpool_576.txt	LTP133	ltpFR2	23	15	FOOT	590	n/a	n/a	0	0	0
4101.816	n/a	WORD	2050908	wordpools/wasnorm_wordpool_576.txt	LTP133	ltpFR2	23	15	TYPIST	1532	n/a	n/a	0	0	0
4103.434	n/a	START	2051717	n/a	LTP133	ltpFR2	23	n/a	n/a	n/a	22	n/a	n/a	n/a	n/a
4104.486	n/a	DISTRACTOR	2052243	n/a	LTP133	ltpFR2	23	15	n/a	n/a	n/a	n/a	0	0	0
4104.5	n/a	PROB	2052250	n/a	LTP133	ltpFR2	23	n/a	n/a	n/a	22	7	3	2	2
4106.152	n/a	PROB	2053076	n/a	LTP133	ltpFR2	23	n/a	n/a	n/a	22	14	4	3	7
4107.97	n/a	PROB	2053985	n/a	LTP133	ltpFR2	23	n/a	n/a	n/a	22	15	3	8	4
4109.804	n/a	PROB	2054902	n/a	LTP133	ltpFR2	23	n/a	n/a	n/a	22	14	2	7	5
4111.438	n/a	PROB	2055719	n/a	LTP133	ltpFR2	23	n/a	n/a	n/a	22	12	6	5	1
4113.274	n/a	PROB	2056637	n/a	LTP133	ltpFR2	23	n/a	n/a	n/a	22	17	4	8	5
4115.876	n/a	PROB	2057938	n/a	LTP133	ltpFR2	23	n/a	n/a	n/a	22	17	5	6	6
4117.426	n/a	PROB	2058713	n/a	LTP133	ltpFR2	23	n/a	n/a	n/a	22	7	2	1	4
4118.73	n/a	PROB	2059365	n/a	LTP133	ltpFR2	23	n/a	n/a	n/a	22	13	8	1	4
4120.146	n/a	PROB	2060073	n/a	LTP133	ltpFR2	23	n/a	n/a	n/a	22	14	2	3	9
4121.532	n/a	PROB	2060766	n/a	LTP133	ltpFR2	23	n/a	n/a	n/a	22	11	7	1	3
4122.848	n/a	PROB	2061424	n/a	LTP133	ltpFR2	23	n/a	n/a	n/a	22	11	4	6	1
4123.95	n/a	PROB	2061975	n/a	LTP133	ltpFR2	23	n/a	n/a	n/a	22	12	1	5	6
4125.186	n/a	PROB	2062593	n/a	LTP133	ltpFR2	23	n/a	n/a	n/a	22	19	4	7	8
4126.808	n/a	STOP	2063404	n/a	LTP133	ltpFR2	23	n/a	n/a	n/a	22	n/a	n/a	n/a	n/a
4129.238	n/a	REC_START	2064619	n/a	LTP133	ltpFR2	23	15	n/a	n/a	n/a	n/a	0	0	0
4131.88	n/a	REC_WORD	2065940	wordpools/wasnorm_wordpool_576.txt	LTP133	ltpFR2	23	15	THRONE	1461	n/a	n/a	0	0	0
4132.898	n/a	REC_WORD	2066449	wordpools/wasnorm_wordpool_576.txt	LTP133	ltpFR2	23	15	CLERK	321	n/a	n/a	0	0	0
4133.932	n/a	REC_WORD	2066966	wordpools/wasnorm_wordpool_576.txt	LTP133	ltpFR2	23	15	TYPIST	1532	n/a	n/a	0	0	0
4135.104	n/a	REC_WORD	2067552	wordpools/wasnorm_wordpool_576.txt	LTP133	ltpFR2	23	15	FOOT	590	n/a	n/a	0	0	0
4136.2	n/a	REC_WORD	2068100	wordpools/wasnorm_wordpool_576.txt	LTP133	ltpFR2	23	15	ANKLE	24	n/a	n/a	0	0	0
4138.92	n/a	REC_WORD	2069460	wordpools/wasnorm_wordpool_576.txt	LTP133	ltpFR2	23	15	WITNESS	1618	n/a	n/a	0	0	0
4141.686	n/a	REC_WORD	2070843	wordpools/wasnorm_wordpool_576.txt	LTP133	ltpFR2	23	15	WHISTLE	1606	n/a	n/a	0	0	0
4143.002	n/a	REC_WORD	2071501	wordpools/wasnorm_wordpool_576.txt	LTP133	ltpFR2	23	15	JURY	766	n/a	n/a	0	0	0
4144.052	n/a	REC_WORD	2072026	wordpools/wasnorm_wordpool_576.txt	LTP133	ltpFR2	23	15	TREASURE	1500	n/a	n/a	0	0	0
4293.838	n/a	DISTRACTOR	2146919	n/a	LTP133	ltpFR2	23	16	n/a	n/a	n/a	n/a	0	0	0
4293.838	n/a	START	2146919	n/a	LTP133	ltpFR2	23	n/a	n/a	n/a	23	n/a	n/a	n/a	n/a
4293.854	n/a	PROB	2146927	n/a	LTP133	ltpFR2	23	n/a	n/a	n/a	23	17	7	2	8
4295.354	n/a	PROB	2147677	n/a	LTP133	ltpFR2	23	n/a	n/a	n/a	23	13	6	5	2
4296.638	n/a	PROB	2148319	n/a	LTP133	ltpFR2	23	n/a	n/a	n/a	23	12	4	5	3
4298.024	n/a	PROB	2149012	n/a	LTP133	ltpFR2	23	n/a	n/a	n/a	23	13	1	6	6
4300.04	n/a	PROB	2150020	n/a	LTP133	ltpFR2	23	n/a	n/a	n/a	23	11	5	5	1
4301.094	n/a	PROB	2150547	n/a	LTP133	ltpFR2	23	n/a	n/a	n/a	23	9	3	2	4
4302.326	n/a	PROB	2151163	n/a	LTP133	ltpFR2	23	n/a	n/a	n/a	23	15	2	7	6
4303.878	n/a	PROB	2151939	n/a	LTP133	ltpFR2	23	n/a	n/a	n/a	23	7	1	2	4
4304.978	n/a	PROB	2152489	n/a	LTP133	ltpFR2	23	n/a	n/a	n/a	23	12	2	9	1
4306.53	n/a	PROB	2153265	n/a	LTP133	ltpFR2	23	n/a	n/a	n/a	23	13	3	6	4
4307.914	n/a	PROB	2153957	n/a	LTP133	ltpFR2	23	n/a	n/a	n/a	23	17	3	8	6
4309.564	n/a	PROB	2154782	n/a	LTP133	ltpFR2	23	n/a	n/a	n/a	23	24	7	8	9
4311.134	n/a	PROB	2155567	n/a	LTP133	ltpFR2	23	n/a	n/a	n/a	23	15	3	6	6
4312.25	n/a	PROB	2156125	n/a	LTP133	ltpFR2	23	n/a	n/a	n/a	23	17	7	5	5
4313.618	n/a	PROB	2156809	n/a	LTP133	ltpFR2	23	n/a	n/a	n/a	23	22	8	9	5
4315.002	n/a	PROB	2157501	n/a	LTP133	ltpFR2	23	n/a	n/a	n/a	23	16	8	6	2
4316.344	n/a	STOP	2158172	n/a	LTP133	ltpFR2	23	n/a	n/a	n/a	23	n/a	n/a	n/a	n/a
4318.908	n/a	WORD	2159454	wordpools/wasnorm_wordpool_576.txt	LTP133	ltpFR2	23	16	PLUMBER	1091	n/a	n/a	0	0	0
4321.508	n/a	WORD	2160754	wordpools/wasnorm_wordpool_576.txt	LTP133	ltpFR2	23	16	WITNESS	1618	n/a	n/a	0	0	0
4323.978	n/a	WORD	2161989	wordpools/wasnorm_wordpool_576.txt	LTP133	ltpFR2	23	16	EYELASH	546	n/a	n/a	0	0	0
4326.48	n/a	WORD	2163240	wordpools/wasnorm_wordpool_576.txt	LTP133	ltpFR2	23	16	LOBBY	836	n/a	n/a	0	0	0
4329.082	n/a	WORD	2164541	wordpools/wasnorm_wordpool_576.txt	LTP133	ltpFR2	23	16	CRATER	400	n/a	n/a	0	0	0
4331.55	n/a	WORD	2165775	wordpools/wasnorm_wordpool_576.txt	LTP133	ltpFR2	23	16	DASHBOARD	441	n/a	n/a	0	0	0
4334.02	n/a	WORD	2167010	wordpools/wasnorm_wordpool_576.txt	LTP133	ltpFR2	23	16	FINGER	567	n/a	n/a	0	0	0
4336.538	n/a	WORD	2168269	wordpools/wasnorm_wordpool_576.txt	LTP133	ltpFR2	23	16	GLOVE	642	n/a	n/a	0	0	0
4339.306	n/a	WORD	2169653	wordpools/wasnorm_wordpool_576.txt	LTP133	ltpFR2	23	16	WASHER	1592	n/a	n/a	0	0	0
4341.842	n/a	WORD	2170921	wordpools/wasnorm_wordpool_576.txt	LTP133	ltpFR2	23	16	BUREAU	199	n/a	n/a	0	0	0
4344.444	n/a	WORD	2172222	wordpools/wasnorm_wordpool_576.txt	LTP133	ltpFR2	23	16	TIMBER	1469	n/a	n/a	0	0	0
4347.046	n/a	WORD	2173523	wordpools/wasnorm_wordpool_576.txt	LTP133	ltpFR2	23	16	HEEL	700	n/a	n/a	0	0	0
4349.732	n/a	WORD	2174866	wordpools/wasnorm_wordpool_576.txt	LTP133	ltpFR2	23	16	QUILT	1151	n/a	n/a	0	0	0
4352.5	n/a	WORD	2176250	wordpools/wasnorm_wordpool_576.txt	LTP133	ltpFR2	23	16	WAX	1597	n/a	n/a	0	0	0
4355.002	n/a	WORD	2177501	wordpools/wasnorm_wordpool_576.txt	LTP133	ltpFR2	23	16	BELT	120	n/a	n/a	0	0	0
4357.754	n/a	WORD	2178877	wordpools/wasnorm_wordpool_576.txt	LTP133	ltpFR2	23	16	DRAGON	492	n/a	n/a	0	0	0
4360.306	n/a	WORD	2180153	wordpools/wasnorm_wordpool_576.txt	LTP133	ltpFR2	23	16	ROBBER	1197	n/a	n/a	0	0	0
4362.826	n/a	WORD	2181413	wordpools/wasnorm_wordpool_576.txt	LTP133	ltpFR2	23	16	INMATE	738	n/a	n/a	0	0	0
4365.628	n/a	WORD	2182814	wordpools/wasnorm_wordpool_576.txt	LTP133	ltpFR2	23	16	RESORT	1186	n/a	n/a	0	0	0
4368.214	n/a	WORD	2184107	wordpools/wasnorm_wordpool_576.txt	LTP133	ltpFR2	23	16	OUTLAW	989	n/a	n/a	0	0	0
4370.682	n/a	WORD	2185341	wordpools/wasnorm_wordpool_576.txt	LTP133	ltpFR2	23	16	PATROL	1027	n/a	n/a	0	0	0
4373.366	n/a	WORD	2186683	wordpools/wasnorm_wordpool_576.txt	LTP133	ltpFR2	23	16	DRILL	497	n/a	n/a	0	0	0
4375.952	n/a	WORD	2187976	wordpools/wasnorm_wordpool_576.txt	LTP133	ltpFR2	23	16	THREAD	1460	n/a	n/a	0	0	0
4378.538	n/a	WORD	2189269	wordpools/wasnorm_wordpool_576.txt	LTP133	ltpFR2	23	16	HORSE	719	n/a	n/a	0	0	0
4380.158	n/a	START	2190079	n/a	LTP133	ltpFR2	23	n/a	n/a	n/a	24	n/a	n/a	n/a	n/a
4381.104	n/a	DISTRACTOR	2190552	n/a	LTP133	ltpFR2	23	16	n/a	n/a	n/a	n/a	0	0	0
4381.124	n/a	PROB	2190562	n/a	LTP133	ltpFR2	23	n/a	n/a	n/a	24	13	2	9	2
4382.674	n/a	PROB	2191337	n/a	LTP133	ltpFR2	23	n/a	n/a	n/a	24	14	4	5	5
4384.142	n/a	PROB	2192071	n/a	LTP133	ltpFR2	23	n/a	n/a	n/a	24	27	9	9	9
4385.594	n/a	PROB	2192797	n/a	LTP133	ltpFR2	23	n/a	n/a	n/a	24	10	3	3	4
4386.978	n/a	PROB	2193489	n/a	LTP133	ltpFR2	23	n/a	n/a	n/a	24	16	3	5	8
4388.18	n/a	PROB	2194090	n/a	LTP133	ltpFR2	23	n/a	n/a	n/a	24	15	9	3	3
4389.598	n/a	PROB	2194799	n/a	LTP133	ltpFR2	23	n/a	n/a	n/a	24	9	1	4	4
4390.748	n/a	PROB	2195374	n/a	LTP133	ltpFR2	23	n/a	n/a	n/a	24	20	8	6	6
4392.582	n/a	PROB	2196291	n/a	LTP133	ltpFR2	23	n/a	n/a	n/a	24	14	9	1	4
4393.932	n/a	PROB	2196966	n/a	LTP133	ltpFR2	23	n/a	n/a	n/a	24	17	9	5	3
4395.402	n/a	PROB	2197701	n/a	LTP133	ltpFR2	23	n/a	n/a	n/a	24	15	6	7	2
4396.534	n/a	PROB	2198267	n/a	LTP133	ltpFR2	23	n/a	n/a	n/a	24	19	7	5	7
4397.786	n/a	PROB	2198893	n/a	LTP133	ltpFR2	23	n/a	n/a	n/a	24	14	2	7	5
4399.436	n/a	PROB	2199718	n/a	LTP133	ltpFR2	23	n/a	n/a	n/a	24	15	2	9	4
4400.888	n/a	PROB	2200444	n/a	LTP133	ltpFR2	23	n/a	n/a	n/a	24	18	7	9	2
4402.39	n/a	PROB	2201195	n/a	LTP133	ltpFR2	23	n/a	n/a	n/a	24	14	5	8	1
4403.578	n/a	STOP	2201789	n/a	LTP133	ltpFR2	23	n/a	n/a	n/a	24	n/a	n/a	n/a	n/a
4406.01	n/a	REC_START	2203005	n/a	LTP133	ltpFR2	23	16	n/a	n/a	n/a	n/a	0	0	0
4407.594	n/a	REC_WORD	2203797	wordpools/wasnorm_wordpool_576.txt	LTP133	ltpFR2	23	16	QUILT	1151	n/a	n/a	0	0	0
4408.432	n/a	REC_WORD	2204216	wordpools/wasnorm_wordpool_576.txt	LTP133	ltpFR2	23	16	PATROL	1027	n/a	n/a	0	0	0
4409.936	n/a	REC_WORD	2204968	wordpools/wasnorm_wordpool_576.txt	LTP133	ltpFR2	23	16	DRILL	497	n/a	n/a	0	0	0
4410.942	n/a	REC_WORD	2205471	wordpools/wasnorm_wordpool_576.txt	LTP133	ltpFR2	23	16	THREAD	1460	n/a	n/a	0	0	0
4412.384	n/a	REC_WORD	2206192	wordpools/wasnorm_wordpool_576.txt	LTP133	ltpFR2	23	16	HORSE	719	n/a	n/a	0	0	0
4482.556	n/a	REST_REWET	2241278	n/a	LTP133	ltpFR2	23	16	n/a	n/a	n/a	n/a	0	0	0
4853.288	n/a	WORD	2426644	wordpools/wasnorm_wordpool_576.txt	LTP133	ltpFR2	23	17	STRANGER	1389	n/a	n/a	0	0	0
4855.74	n/a	WORD	2427870	wordpools/wasnorm_wordpool_576.txt	LTP133	ltpFR2	23	17	PORT	1110	n/a	n/a	0	0	0
4858.524	n/a	WORD	2429262	wordpools/wasnorm_wordpool_576.txt	LTP133	ltpFR2	23	17	PEDAL	1037	n/a	n/a	0	0	0
4861.112	n/a	WORD	2430556	wordpools/wasnorm_wordpool_576.txt	LTP133	ltpFR2	23	17	SWORD	1423	n/a	n/a	0	0	0
4863.73	n/a	WORD	2431865	wordpools/wasnorm_wordpool_576.txt	LTP133	ltpFR2	23	17	ATHLETE	52	n/a	n/a	0	0	0
4866.182	n/a	WORD	2433091	wordpools/wasnorm_wordpool_576.txt	LTP133	ltpFR2	23	17	PLAYGROUND	1087	n/a	n/a	0	0	0
4868.884	n/a	WORD	2434442	wordpools/wasnorm_wordpool_576.txt	LTP133	ltpFR2	23	17	JELLY	755	n/a	n/a	0	0	0
4871.354	n/a	WORD	2435677	wordpools/wasnorm_wordpool_576.txt	LTP133	ltpFR2	23	17	SUNSET	1408	n/a	n/a	0	0	0
4873.922	n/a	WORD	2436961	wordpools/wasnorm_wordpool_576.txt	LTP133	ltpFR2	23	17	SUNRISE	1407	n/a	n/a	0	0	0
4876.724	n/a	WORD	2438362	wordpools/wasnorm_wordpool_576.txt	LTP133	ltpFR2	23	17	STREAM	1392	n/a	n/a	0	0	0
4879.342	n/a	WORD	2439671	wordpools/wasnorm_wordpool_576.txt	LTP133	ltpFR2	23	17	TREAT	1501	n/a	n/a	0	0	0
4882.012	n/a	WORD	2441006	wordpools/wasnorm_wordpool_576.txt	LTP133	ltpFR2	23	17	MASK	876	n/a	n/a	0	0	0
4884.58	n/a	WORD	2442290	wordpools/wasnorm_wordpool_576.txt	LTP133	ltpFR2	23	17	DART	440	n/a	n/a	0	0	0
4887.032	n/a	WORD	2443516	wordpools/wasnorm_wordpool_576.txt	LTP133	ltpFR2	23	17	NEPTUNE	943	n/a	n/a	0	0	0
4889.482	n/a	WORD	2444741	wordpools/wasnorm_wordpool_576.txt	LTP133	ltpFR2	23	17	DRESSER	496	n/a	n/a	0	0	0
4891.97	n/a	WORD	2445985	wordpools/wasnorm_wordpool_576.txt	LTP133	ltpFR2	23	17	SKILLET	1317	n/a	n/a	0	0	0
4894.486	n/a	WORD	2447243	wordpools/wasnorm_wordpool_576.txt	LTP133	ltpFR2	23	17	BLADE	134	n/a	n/a	0	0	0
4897.19	n/a	WORD	2448595	wordpools/wasnorm_wordpool_576.txt	LTP133	ltpFR2	23	17	DAISY	435	n/a	n/a	0	0	0
4899.892	n/a	WORD	2449946	wordpools/wasnorm_wordpool_576.txt	LTP133	ltpFR2	23	17	DONKEY	484	n/a	n/a	0	0	0
4902.378	n/a	WORD	2451189	wordpools/wasnorm_wordpool_576.txt	LTP133	ltpFR2	23	17	DOUGHNUT	490	n/a	n/a	0	0	0
4905.046	n/a	WORD	2452523	wordpools/wasnorm_wordpool_576.txt	LTP133	ltpFR2	23	17	JOKER	759	n/a	n/a	0	0	0
4907.548	n/a	WORD	2453774	wordpools/wasnorm_wordpool_576.txt	LTP133	ltpFR2	23	17	RODENT	1204	n/a	n/a	0	0	0
4910.268	n/a	WORD	2455134	wordpools/wasnorm_wordpool_576.txt	LTP133	ltpFR2	23	17	CHEST	295	n/a	n/a	0	0	0
4912.82	n/a	WORD	2456410	wordpools/wasnorm_wordpool_576.txt	LTP133	ltpFR2	23	17	ROACH	1195	n/a	n/a	0	0	0
4914.436	n/a	START	2457218	n/a	LTP133	ltpFR2	23	n/a	n/a	n/a	25	n/a	n/a	n/a	n/a
4915.492	n/a	DISTRACTOR	2457746	n/a	LTP133	ltpFR2	23	17	n/a	n/a	n/a	n/a	0	0	0
4915.504	n/a	PROB	2457752	n/a	LTP133	ltpFR2	23	n/a	n/a	n/a	25	25	8	8	9
4917.324	n/a	PROB	2458662	n/a	LTP133	ltpFR2	23	n/a	n/a	n/a	25	12	5	5	2
4918.656	n/a	PROB	2459328	n/a	LTP133	ltpFR2	23	n/a	n/a	n/a	25	21	9	4	8
4920.558	n/a	PROB	2460279	n/a	LTP133	ltpFR2	23	n/a	n/a	n/a	25	9	1	2	6
4921.91	n/a	PROB	2460955	n/a	LTP133	ltpFR2	23	n/a	n/a	n/a	25	17	6	5	6
4923.442	n/a	PROB	2461721	n/a	LTP133	ltpFR2	23	n/a	n/a	n/a	25	18	2	9	7
4925.262	n/a	PROB	2462631	n/a	LTP133	ltpFR2	23	n/a	n/a	n/a	25	20	3	9	8
4926.978	n/a	PROB	2463489	n/a	LTP133	ltpFR2	23	n/a	n/a	n/a	25	17	6	2	9
4928.73	n/a	PROB	2464365	n/a	LTP133	ltpFR2	23	n/a	n/a	n/a	25	17	6	8	3
4930.332	n/a	PROB	2465166	n/a	LTP133	ltpFR2	23	n/a	n/a	n/a	25	17	6	3	8
4932.402	n/a	PROB	2466201	n/a	LTP133	ltpFR2	23	n/a	n/a	n/a	25	12	6	2	4
4934.118	n/a	PROB	2467059	n/a	LTP133	ltpFR2	23	n/a	n/a	n/a	25	15	7	6	2
4935.788	n/a	PROB	2467894	n/a	LTP133	ltpFR2	23	n/a	n/a	n/a	25	14	5	1	8
4938.106	n/a	STOP	2469053	n/a	LTP133	ltpFR2	23	n/a	n/a	n/a	25	n/a	n/a	n/a	n/a
4940.26	n/a	REC_START	2470130	n/a	LTP133	ltpFR2	23	17	n/a	n/a	n/a	n/a	0	0	0
4942.712	n/a	REC_WORD	2471356	wordpools/wasnorm_wordpool_576.txt	LTP133	ltpFR2	23	17	ROACH	1195	n/a	n/a	0	0	0
4943.566	n/a	REC_WORD	2471783	wordpools/wasnorm_wordpool_576.txt	LTP133	ltpFR2	23	17	CHEST	295	n/a	n/a	0	0	0
4947.172	n/a	REC_WORD	2473586	wordpools/wasnorm_wordpool_576.txt	LTP133	ltpFR2	23	17	STRANGER	1389	n/a	n/a	0	0	0
4948.414	n/a	REC_WORD	2474207	wordpools/wasnorm_wordpool_576.txt	LTP133	ltpFR2	23	17	PORT	1110	n/a	n/a	0	0	0
4949.734	n/a	REC_WORD	2474867	wordpools/wasnorm_wordpool_576.txt	LTP133	ltpFR2	23	17	PEDAL	1037	n/a	n/a	0	0	0
4953.082	n/a	REC_WORD	2476541	wordpools/wasnorm_wordpool_576.txt	LTP133	ltpFR2	23	17	SWORD	1423	n/a	n/a	0	0	0
4954.2	n/a	REC_WORD	2477100	wordpools/wasnorm_wordpool_576.txt	LTP133	ltpFR2	23	17	ATHLETE	52	n/a	n/a	0	0	0
4955.614	n/a	REC_WORD	2477807	wordpools/wasnorm_wordpool_576.txt	LTP133	ltpFR2	23	17	PLAYGROUND	1087	n/a	n/a	0	0	0
5030.732	n/a	WORD	2515366	wordpools/wasnorm_wordpool_576.txt	LTP133	ltpFR2	23	18	SWAMP	1416	n/a	n/a	0	0	0
5033.166	n/a	WORD	2516583	wordpools/wasnorm_wordpool_576.txt	LTP133	ltpFR2	23	18	TORCH	1484	n/a	n/a	0	0	0
5035.768	n/a	WORD	2517884	wordpools/wasnorm_wordpool_576.txt	LTP133	ltpFR2	23	18	WINDSHIELD	1612	n/a	n/a	0	0	0
5038.504	n/a	WORD	2519252	wordpools/wasnorm_wordpool_576.txt	LTP133	ltpFR2	23	18	DAGGER	434	n/a	n/a	0	0	0
5041.24	n/a	WORD	2520620	wordpools/wasnorm_wordpool_576.txt	LTP133	ltpFR2	23	18	HANDCUFFS	685	n/a	n/a	0	0	0
5044.024	n/a	WORD	2522012	wordpools/wasnorm_wordpool_576.txt	LTP133	ltpFR2	23	18	RAISIN	1163	n/a	n/a	0	0	0
5046.778	n/a	WORD	2523389	wordpools/wasnorm_wordpool_576.txt	LTP133	ltpFR2	23	18	OATMEAL	967	n/a	n/a	0	0	0
5049.33	n/a	WORD	2524665	wordpools/wasnorm_wordpool_576.txt	LTP133	ltpFR2	23	18	JUNGLE	764	n/a	n/a	0	0	0
5051.932	n/a	WORD	2525966	wordpools/wasnorm_wordpool_576.txt	LTP133	ltpFR2	23	18	BODY	145	n/a	n/a	0	0	0
5054.684	n/a	WORD	2527342	wordpools/wasnorm_wordpool_576.txt	LTP133	ltpFR2	23	18	NICKEL	950	n/a	n/a	0	0	0
5057.22	n/a	WORD	2528610	wordpools/wasnorm_wordpool_576.txt	LTP133	ltpFR2	23	18	MANSION	864	n/a	n/a	0	0	0
5059.804	n/a	WORD	2529902	wordpools/wasnorm_wordpool_576.txt	LTP133	ltpFR2	23	18	LAVA	804	n/a	n/a	0	0	0
5062.406	n/a	WORD	2531203	wordpools/wasnorm_wordpool_576.txt	LTP133	ltpFR2	23	18	BLUEPRINT	142	n/a	n/a	0	0	0
5065.092	n/a	WORD	2532546	wordpools/wasnorm_wordpool_576.txt	LTP133	ltpFR2	23	18	INSECT	740	n/a	n/a	0	0	0
5067.562	n/a	WORD	2533781	wordpools/wasnorm_wordpool_576.txt	LTP133	ltpFR2	23	18	KIWI	781	n/a	n/a	0	0	0
5070.196	n/a	WORD	2535098	wordpools/wasnorm_wordpool_576.txt	LTP133	ltpFR2	23	18	DIAMOND	458	n/a	n/a	0	0	0
5072.698	n/a	WORD	2536349	wordpools/wasnorm_wordpool_576.txt	LTP133	ltpFR2	23	18	DOORBELL	487	n/a	n/a	0	0	0
5075.368	n/a	WORD	2537684	wordpools/wasnorm_wordpool_576.txt	LTP133	ltpFR2	23	18	TUTU	1524	n/a	n/a	0	0	0
5077.82	n/a	WORD	2538910	wordpools/wasnorm_wordpool_576.txt	LTP133	ltpFR2	23	18	SWATTER	1418	n/a	n/a	0	0	0
5080.354	n/a	WORD	2540177	wordpools/wasnorm_wordpool_576.txt	LTP133	ltpFR2	23	18	BOARD	143	n/a	n/a	0	0	0
5082.856	n/a	WORD	2541428	wordpools/wasnorm_wordpool_576.txt	LTP133	ltpFR2	23	18	SAND	1230	n/a	n/a	0	0	0
5085.342	n/a	WORD	2542671	wordpools/wasnorm_wordpool_576.txt	LTP133	ltpFR2	23	18	CONTRACT	368	n/a	n/a	0	0	0
5087.894	n/a	WORD	2543947	wordpools/wasnorm_wordpool_576.txt	LTP133	ltpFR2	23	18	SICKLE	1302	n/a	n/a	0	0	0
5090.444	n/a	WORD	2545222	wordpools/wasnorm_wordpool_576.txt	LTP133	ltpFR2	23	18	SEASHORE	1263	n/a	n/a	0	0	0
5092.064	n/a	START	2546032	n/a	LTP133	ltpFR2	23	n/a	n/a	n/a	26	n/a	n/a	n/a	n/a
5092.91	n/a	DISTRACTOR	2546455	n/a	LTP133	ltpFR2	23	18	n/a	n/a	n/a	n/a	0	0	0
5092.914	n/a	PROB	2546457	n/a	LTP133	ltpFR2	23	n/a	n/a	n/a	26	14	4	6	4
5094.598	n/a	PROB	2547299	n/a	LTP133	ltpFR2	23	n/a	n/a	n/a	26	17	9	4	4
5096.414	n/a	PROB	2548207	n/a	LTP133	ltpFR2	23	n/a	n/a	n/a	26	7	1	3	3
5097.966	n/a	PROB	2548983	n/a	LTP133	ltpFR2	23	n/a	n/a	n/a	26	17	3	9	5
5099.602	n/a	PROB	2549801	n/a	LTP133	ltpFR2	23	n/a	n/a	n/a	26	18	3	7	8
5100.788	n/a	PROB	2550394	n/a	LTP133	ltpFR2	23	n/a	n/a	n/a	26	11	8	1	2
5102.538	n/a	PROB	2551269	n/a	LTP133	ltpFR2	23	n/a	n/a	n/a	26	10	3	1	6
5103.972	n/a	PROB	2551986	n/a	LTP133	ltpFR2	23	n/a	n/a	n/a	26	19	9	3	7
5105.658	n/a	PROB	2552829	n/a	LTP133	ltpFR2	23	n/a	n/a	n/a	26	22	6	8	8
5107.326	n/a	PROB	2553663	n/a	LTP133	ltpFR2	23	n/a	n/a	n/a	26	12	3	8	1
5108.928	n/a	PROB	2554464	n/a	LTP133	ltpFR2	23	n/a	n/a	n/a	26	13	4	8	1
5110.544	n/a	PROB	2555272	n/a	LTP133	ltpFR2	23	n/a	n/a	n/a	26	15	4	3	8
5111.928	n/a	PROB	2555964	n/a	LTP133	ltpFR2	23	n/a	n/a	n/a	26	16	4	6	6
5113.33	n/a	PROB	2556665	n/a	LTP133	ltpFR2	23	n/a	n/a	n/a	26	17	8	2	7
5114.818	n/a	STOP	2557409	n/a	LTP133	ltpFR2	23	n/a	n/a	n/a	26	n/a	n/a	n/a	n/a
5117.968	n/a	REC_START	2558984	n/a	LTP133	ltpFR2	23	18	n/a	n/a	n/a	n/a	0	0	0
5120.092	n/a	REC_WORD	2560046	wordpools/wasnorm_wordpool_576.txt	LTP133	ltpFR2	23	18	SICKLE	1302	n/a	n/a	0	0	0
5121.102	n/a	REC_WORD	2560551	wordpools/wasnorm_wordpool_576.txt	LTP133	ltpFR2	23	18	SEASHORE	1263	n/a	n/a	0	0	0
5122.464	n/a	REC_WORD	2561232	wordpools/wasnorm_wordpool_576.txt	LTP133	ltpFR2	23	18	CONTRACT	368	n/a	n/a	0	0	0
5123.916	n/a	REC_WORD	2561958	wordpools/wasnorm_wordpool_576.txt	LTP133	ltpFR2	23	18	DAGGER	434	n/a	n/a	0	0	0
5124.878	n/a	REC_WORD	2562439	wordpools/wasnorm_wordpool_576.txt	LTP133	ltpFR2	23	18	HANDCUFFS	685	n/a	n/a	0	0	0
5126.52	n/a	REC_WORD	2563260	wordpools/wasnorm_wordpool_576.txt	LTP133	ltpFR2	23	18	JUNGLE	764	n/a	n/a	0	0	0
