mstime	trial_type	stim_file	subject	experiment	session	trial	item_name	item_num	list	answer	test_x	test_y	test_z
0	SESS_START	n/a	LTP346	ltpFR2	23	n/a	n/a	n/a	n/a	n/a	0	0	0
25658	START	n/a	LTP346	ltpFR2	23	n/a	n/a	n/a	-1	n/a	n/a	n/a	n/a
25688	PROB	n/a	LTP346	ltpFR2	23	n/a	n/a	n/a	-1	14	5	7	2
27654	PROB	n/a	LTP346	ltpFR2	23	n/a	n/a	n/a	-1	19	7	6	6
29571	PROB	n/a	LTP346	ltpFR2	23	n/a	n/a	n/a	-1	13	6	4	3
31453	PROB	n/a	LTP346	ltpFR2	23	n/a	n/a	n/a	-1	21	3	9	9
32785	PROB	n/a	LTP346	ltpFR2	23	n/a	n/a	n/a	-1	17	6	5	6
34335	PROB	n/a	LTP346	ltpFR2	23	n/a	n/a	n/a	-1	18	9	2	7
35767	PROB	n/a	LTP346	ltpFR2	23	n/a	n/a	n/a	-1	14	9	4	1
37222	STOP	n/a	LTP346	ltpFR2	23	n/a	n/a	n/a	-1	n/a	n/a	n/a	n/a
119662	DISTRACTOR	n/a	LTP346	ltpFR2	23	1	n/a	n/a	n/a	n/a	0	0	0
119663	START	n/a	LTP346	ltpFR2	23	n/a	n/a	n/a	1	n/a	n/a	n/a	n/a
119679	PROB	n/a	LTP346	ltpFR2	23	n/a	n/a	n/a	1	6	3	1	2
120878	PROB	n/a	LTP346	ltpFR2	23	n/a	n/a	n/a	1	18	2	9	7
122362	PROB	n/a	LTP346	ltpFR2	23	n/a	n/a	n/a	1	12	2	5	5
123295	PROB	n/a	LTP346	ltpFR2	23	n/a	n/a	n/a	1	17	8	8	1
124411	PROB	n/a	LTP346	ltpFR2	23	n/a	n/a	n/a	1	14	8	5	1
125577	PROB	n/a	LTP346	ltpFR2	23	n/a	n/a	n/a	1	17	1	8	8
126876	PROB	n/a	LTP346	ltpFR2	23	n/a	n/a	n/a	1	21	6	8	7
128025	PROB	n/a	LTP346	ltpFR2	23	n/a	n/a	n/a	1	17	1	8	8
129276	PROB	n/a	LTP346	ltpFR2	23	n/a	n/a	n/a	1	23	7	7	9
131057	PROB	n/a	LTP346	ltpFR2	23	n/a	n/a	n/a	1	22	4	9	9
132258	PROB	n/a	LTP346	ltpFR2	23	n/a	n/a	n/a	1	19	7	6	6
133823	PROB	n/a	LTP346	ltpFR2	23	n/a	n/a	n/a	1	16	9	6	1
135039	PROB	n/a	LTP346	ltpFR2	23	n/a	n/a	n/a	1	14	1	4	9
136121	PROB	n/a	LTP346	ltpFR2	23	n/a	n/a	n/a	1	18	7	8	3
137272	PROB	n/a	LTP346	ltpFR2	23	n/a	n/a	n/a	1	27	9	9	9
138471	PROB	n/a	LTP346	ltpFR2	23	n/a	n/a	n/a	1	14	7	1	6
139571	PROB	n/a	LTP346	ltpFR2	23	n/a	n/a	n/a	1	15	8	4	3
140719	PROB	n/a	LTP346	ltpFR2	23	n/a	n/a	n/a	1	15	8	4	3
143662	STOP	n/a	LTP346	ltpFR2	23	n/a	n/a	n/a	1	n/a	n/a	n/a	n/a
144701	WORD	wordpools/wasnorm_wordpool_576.txt	LTP346	ltpFR2	23	1	PARTNER	1017	n/a	n/a	0	0	0
147334	WORD	wordpools/wasnorm_wordpool_576.txt	LTP346	ltpFR2	23	1	TILE	1468	n/a	n/a	0	0	0
150048	WORD	wordpools/wasnorm_wordpool_576.txt	LTP346	ltpFR2	23	1	TREASURE	1500	n/a	n/a	0	0	0
152548	WORD	wordpools/wasnorm_wordpool_576.txt	LTP346	ltpFR2	23	1	NOVEL	960	n/a	n/a	0	0	0
155080	WORD	wordpools/wasnorm_wordpool_576.txt	LTP346	ltpFR2	23	1	RUG	1215	n/a	n/a	0	0	0
157646	WORD	wordpools/wasnorm_wordpool_576.txt	LTP346	ltpFR2	23	1	CRYSTAL	418	n/a	n/a	0	0	0
160228	WORD	wordpools/wasnorm_wordpool_576.txt	LTP346	ltpFR2	23	1	BASKET	95	n/a	n/a	0	0	0
162659	WORD	wordpools/wasnorm_wordpool_576.txt	LTP346	ltpFR2	23	1	GYMNAST	675	n/a	n/a	0	0	0
165276	WORD	wordpools/wasnorm_wordpool_576.txt	LTP346	ltpFR2	23	1	COLLEGE	346	n/a	n/a	0	0	0
167807	WORD	wordpools/wasnorm_wordpool_576.txt	LTP346	ltpFR2	23	1	NOTEBOOK	959	n/a	n/a	0	0	0
170540	WORD	wordpools/wasnorm_wordpool_576.txt	LTP346	ltpFR2	23	1	SCAPEGOAT	1244	n/a	n/a	0	0	0
173071	WORD	wordpools/wasnorm_wordpool_576.txt	LTP346	ltpFR2	23	1	WAX	1597	n/a	n/a	0	0	0
175820	WORD	wordpools/wasnorm_wordpool_576.txt	LTP346	ltpFR2	23	1	NICKEL	950	n/a	n/a	0	0	0
178570	WORD	wordpools/wasnorm_wordpool_576.txt	LTP346	ltpFR2	23	1	SAPPHIRE	1234	n/a	n/a	0	0	0
181051	WORD	wordpools/wasnorm_wordpool_576.txt	LTP346	ltpFR2	23	1	COLUMN	350	n/a	n/a	0	0	0
183534	WORD	wordpools/wasnorm_wordpool_576.txt	LTP346	ltpFR2	23	1	HUSBAND	728	n/a	n/a	0	0	0
186200	WORD	wordpools/wasnorm_wordpool_576.txt	LTP346	ltpFR2	23	1	SCULPTURE	1258	n/a	n/a	0	0	0
188714	WORD	wordpools/wasnorm_wordpool_576.txt	LTP346	ltpFR2	23	1	SARDINE	1235	n/a	n/a	0	0	0
191247	WORD	wordpools/wasnorm_wordpool_576.txt	LTP346	ltpFR2	23	1	SHRIMP	1297	n/a	n/a	0	0	0
193895	WORD	wordpools/wasnorm_wordpool_576.txt	LTP346	ltpFR2	23	1	DRAWING	494	n/a	n/a	0	0	0
196711	WORD	wordpools/wasnorm_wordpool_576.txt	LTP346	ltpFR2	23	1	TORCH	1484	n/a	n/a	0	0	0
199194	WORD	wordpools/wasnorm_wordpool_576.txt	LTP346	ltpFR2	23	1	FIST	572	n/a	n/a	0	0	0
201892	WORD	wordpools/wasnorm_wordpool_576.txt	LTP346	ltpFR2	23	1	COMPASS	358	n/a	n/a	0	0	0
204525	WORD	wordpools/wasnorm_wordpool_576.txt	LTP346	ltpFR2	23	1	PIZZA	1079	n/a	n/a	0	0	0
206141	START	n/a	LTP346	ltpFR2	23	n/a	n/a	n/a	2	n/a	n/a	n/a	n/a
207229	DISTRACTOR	n/a	LTP346	ltpFR2	23	1	n/a	n/a	n/a	n/a	0	0	0
207240	PROB	n/a	LTP346	ltpFR2	23	n/a	n/a	n/a	2	9	4	2	3
209506	PROB	n/a	LTP346	ltpFR2	23	n/a	n/a	n/a	2	19	9	5	5
210704	PROB	n/a	LTP346	ltpFR2	23	n/a	n/a	n/a	2	17	3	9	5
212803	PROB	n/a	LTP346	ltpFR2	23	n/a	n/a	n/a	2	18	4	6	8
214069	PROB	n/a	LTP346	ltpFR2	23	n/a	n/a	n/a	2	16	3	7	6
216169	PROB	n/a	LTP346	ltpFR2	23	n/a	n/a	n/a	2	14	6	7	1
217519	PROB	n/a	LTP346	ltpFR2	23	n/a	n/a	n/a	2	21	9	7	4
218834	PROB	n/a	LTP346	ltpFR2	23	n/a	n/a	n/a	2	13	9	1	3
221683	PROB	n/a	LTP346	ltpFR2	23	n/a	n/a	n/a	2	12	2	8	2
223049	PROB	n/a	LTP346	ltpFR2	23	n/a	n/a	n/a	2	13	3	1	9
224516	PROB	n/a	LTP346	ltpFR2	23	n/a	n/a	n/a	2	10	4	3	3
226047	PROB	n/a	LTP346	ltpFR2	23	n/a	n/a	n/a	2	26	8	9	9
227880	PROB	n/a	LTP346	ltpFR2	23	n/a	n/a	n/a	2	11	5	3	3
228970	STOP	n/a	LTP346	ltpFR2	23	n/a	n/a	n/a	2	n/a	n/a	n/a	n/a
231929	REC_START	n/a	LTP346	ltpFR2	23	1	n/a	n/a	n/a	n/a	0	0	0
232476	REC_WORD	wordpools/wasnorm_wordpool_576.txt	LTP346	ltpFR2	23	1	PARTNER	1017	n/a	n/a	0	0	0
234050	REC_WORD	wordpools/wasnorm_wordpool_576.txt	LTP346	ltpFR2	23	1	TILE	1468	n/a	n/a	0	0	0
234601	REC_WORD	wordpools/wasnorm_wordpool_576.txt	LTP346	ltpFR2	23	1	RUG	1215	n/a	n/a	0	0	0
238670	REC_WORD	wordpools/wasnorm_wordpool_576.txt	LTP346	ltpFR2	23	1	SARDINE	1235	n/a	n/a	0	0	0
239469	REC_WORD	wordpools/wasnorm_wordpool_576.txt	LTP346	ltpFR2	23	1	CRYSTAL	418	n/a	n/a	0	0	0
240136	REC_WORD	wordpools/wasnorm_wordpool_576.txt	LTP346	ltpFR2	23	1	COLUMN	350	n/a	n/a	0	0	0
245438	REC_WORD	wordpools/wasnorm_wordpool_576.txt	LTP346	ltpFR2	23	1	DRAWING	494	n/a	n/a	0	0	0
246668	REC_WORD	wordpools/wasnorm_wordpool_576.txt	LTP346	ltpFR2	23	1	FIST	572	n/a	n/a	0	0	0
247507	REC_WORD	wordpools/wasnorm_wordpool_576.txt	LTP346	ltpFR2	23	1	TORCH	1484	n/a	n/a	0	0	0
250772	REC_WORD	wordpools/wasnorm_wordpool_576.txt	LTP346	ltpFR2	23	1	HUSBAND	728	n/a	n/a	0	0	0
251345	REC_WORD	wordpools/wasnorm_wordpool_576.txt	LTP346	ltpFR2	23	1	SCULPTURE	1258	n/a	n/a	0	0	0
254421	REC_WORD	wordpools/wasnorm_wordpool_576.txt	LTP346	ltpFR2	23	1	PIZZA	1079	n/a	n/a	0	0	0
260996	REC_WORD	wordpools/wasnorm_wordpool_576.txt	LTP346	ltpFR2	23	1	SCAPEGOAT	1244	n/a	n/a	0	0	0
276715	REC_WORD	wordpools/wasnorm_wordpool_576.txt	LTP346	ltpFR2	23	1	NOTEBOOK	959	n/a	n/a	0	0	0
288585	REC_WORD	wordpools/wasnorm_wordpool_576.txt	LTP346	ltpFR2	23	1	SHRIMP	1297	n/a	n/a	0	0	0
322371	WORD	wordpools/wasnorm_wordpool_576.txt	LTP346	ltpFR2	23	2	SERVANT	1271	n/a	n/a	0	0	0
324986	WORD	wordpools/wasnorm_wordpool_576.txt	LTP346	ltpFR2	23	2	COOKIE	374	n/a	n/a	0	0	0
327436	WORD	wordpools/wasnorm_wordpool_576.txt	LTP346	ltpFR2	23	2	GOBLIN	645	n/a	n/a	0	0	0
330234	WORD	wordpools/wasnorm_wordpool_576.txt	LTP346	ltpFR2	23	2	GLACIER	638	n/a	n/a	0	0	0
332782	WORD	wordpools/wasnorm_wordpool_576.txt	LTP346	ltpFR2	23	2	OATMEAL	967	n/a	n/a	0	0	0
335315	WORD	wordpools/wasnorm_wordpool_576.txt	LTP346	ltpFR2	23	2	SUNRISE	1407	n/a	n/a	0	0	0
337913	WORD	wordpools/wasnorm_wordpool_576.txt	LTP346	ltpFR2	23	2	HAYSTACK	694	n/a	n/a	0	0	0
340580	WORD	wordpools/wasnorm_wordpool_576.txt	LTP346	ltpFR2	23	2	STABLE	1363	n/a	n/a	0	0	0
343178	WORD	wordpools/wasnorm_wordpool_576.txt	LTP346	ltpFR2	23	2	BUILDER	190	n/a	n/a	0	0	0
345993	WORD	wordpools/wasnorm_wordpool_576.txt	LTP346	ltpFR2	23	2	NEEDLE	941	n/a	n/a	0	0	0
348593	WORD	wordpools/wasnorm_wordpool_576.txt	LTP346	ltpFR2	23	2	QUARTER	1148	n/a	n/a	0	0	0
351391	WORD	wordpools/wasnorm_wordpool_576.txt	LTP346	ltpFR2	23	2	SOFA	1342	n/a	n/a	0	0	0
354072	WORD	wordpools/wasnorm_wordpool_576.txt	LTP346	ltpFR2	23	2	GARLIC	624	n/a	n/a	0	0	0
356688	WORD	wordpools/wasnorm_wordpool_576.txt	LTP346	ltpFR2	23	2	SNORKEL	1336	n/a	n/a	0	0	0
359488	WORD	wordpools/wasnorm_wordpool_576.txt	LTP346	ltpFR2	23	2	SINK	1309	n/a	n/a	0	0	0
361969	WORD	wordpools/wasnorm_wordpool_576.txt	LTP346	ltpFR2	23	2	FIGHTER	564	n/a	n/a	0	0	0
364519	WORD	wordpools/wasnorm_wordpool_576.txt	LTP346	ltpFR2	23	2	AIRCRAFT	11	n/a	n/a	0	0	0
367083	WORD	wordpools/wasnorm_wordpool_576.txt	LTP346	ltpFR2	23	2	JAR	750	n/a	n/a	0	0	0
369600	WORD	wordpools/wasnorm_wordpool_576.txt	LTP346	ltpFR2	23	2	AUTHOR	61	n/a	n/a	0	0	0
372031	WORD	wordpools/wasnorm_wordpool_576.txt	LTP346	ltpFR2	23	2	RABBIT	1152	n/a	n/a	0	0	0
374680	WORD	wordpools/wasnorm_wordpool_576.txt	LTP346	ltpFR2	23	2	SENATE	1267	n/a	n/a	0	0	0
377380	WORD	wordpools/wasnorm_wordpool_576.txt	LTP346	ltpFR2	23	2	ADULT	8	n/a	n/a	0	0	0
380094	WORD	wordpools/wasnorm_wordpool_576.txt	LTP346	ltpFR2	23	2	FATHER	554	n/a	n/a	0	0	0
382709	WORD	wordpools/wasnorm_wordpool_576.txt	LTP346	ltpFR2	23	2	SALT	1229	n/a	n/a	0	0	0
384327	START	n/a	LTP346	ltpFR2	23	n/a	n/a	n/a	3	n/a	n/a	n/a	n/a
385214	DISTRACTOR	n/a	LTP346	ltpFR2	23	2	n/a	n/a	n/a	n/a	0	0	0
385226	PROB	n/a	LTP346	ltpFR2	23	n/a	n/a	n/a	3	17	2	9	6
386609	PROB	n/a	LTP346	ltpFR2	23	n/a	n/a	n/a	3	16	8	4	4
387840	PROB	n/a	LTP346	ltpFR2	23	n/a	n/a	n/a	3	15	1	9	4
390407	PROB	n/a	LTP346	ltpFR2	23	n/a	n/a	n/a	3	12	7	3	2
392788	PROB	n/a	LTP346	ltpFR2	23	n/a	n/a	n/a	3	14	4	1	9
394572	PROB	n/a	LTP346	ltpFR2	23	n/a	n/a	n/a	3	19	1	9	9
395737	PROB	n/a	LTP346	ltpFR2	23	n/a	n/a	n/a	3	10	1	8	1
396786	PROB	n/a	LTP346	ltpFR2	23	n/a	n/a	n/a	3	25	7	9	9
398735	PROB	n/a	LTP346	ltpFR2	23	n/a	n/a	n/a	3	15	9	3	3
400319	PROB	n/a	LTP346	ltpFR2	23	n/a	n/a	n/a	3	14	7	4	3
402734	PROB	n/a	LTP346	ltpFR2	23	n/a	n/a	n/a	3	18	8	9	1
404050	PROB	n/a	LTP346	ltpFR2	23	n/a	n/a	n/a	3	17	8	6	3
405450	PROB	n/a	LTP346	ltpFR2	23	n/a	n/a	n/a	3	19	8	6	5
406808	STOP	n/a	LTP346	ltpFR2	23	n/a	n/a	n/a	3	n/a	n/a	n/a	n/a
410148	REC_START	n/a	LTP346	ltpFR2	23	2	n/a	n/a	n/a	n/a	0	0	0
410339	REC_WORD	wordpools/wasnorm_wordpool_576.txt	LTP346	ltpFR2	23	2	RABBIT	1152	n/a	n/a	0	0	0
410971	REC_WORD	wordpools/wasnorm_wordpool_576.txt	LTP346	ltpFR2	23	2	ADULT	8	n/a	n/a	0	0	0
411556	REC_WORD	wordpools/wasnorm_wordpool_576.txt	LTP346	ltpFR2	23	2	SENATE	1267	n/a	n/a	0	0	0
412191	REC_WORD	wordpools/wasnorm_wordpool_576.txt	LTP346	ltpFR2	23	2	FATHER	554	n/a	n/a	0	0	0
413862	REC_WORD	wordpools/wasnorm_wordpool_576.txt	LTP346	ltpFR2	23	2	SERVANT	1271	n/a	n/a	0	0	0
414911	REC_WORD	wordpools/wasnorm_wordpool_576.txt	LTP346	ltpFR2	23	2	COOKIE	374	n/a	n/a	0	0	0
415767	REC_WORD	wordpools/wasnorm_wordpool_576.txt	LTP346	ltpFR2	23	2	OATMEAL	967	n/a	n/a	0	0	0
423078	REC_WORD	wordpools/wasnorm_wordpool_576.txt	LTP346	ltpFR2	23	2	BUILDER	190	n/a	n/a	0	0	0
424336	REC_WORD	wordpools/wasnorm_wordpool_576.txt	LTP346	ltpFR2	23	2	QUARTER	1148	n/a	n/a	0	0	0
424989	REC_WORD	wordpools/wasnorm_wordpool_576.txt	LTP346	ltpFR2	23	2	NEEDLE	941	n/a	n/a	0	0	0
427795	REC_WORD	wordpools/wasnorm_wordpool_576.txt	LTP346	ltpFR2	23	2	SOFA	1342	n/a	n/a	0	0	0
431296	REC_WORD	wordpools/wasnorm_wordpool_576.txt	LTP346	ltpFR2	23	2	HAYSTACK	694	n/a	n/a	0	0	0
432827	REC_WORD	wordpools/wasnorm_wordpool_576.txt	LTP346	ltpFR2	23	2	STABLE	1363	n/a	n/a	0	0	0
437983	REC_WORD	wordpools/wasnorm_wordpool_576.txt	LTP346	ltpFR2	23	2	GLACIER	638	n/a	n/a	0	0	0
440056	REC_WORD	wordpools/wasnorm_wordpool_576.txt	LTP346	ltpFR2	23	2	SUNRISE	1407	n/a	n/a	0	0	0
446788	REC_WORD	wordpools/wasnorm_wordpool_576.txt	LTP346	ltpFR2	23	2	AIRCRAFT	11	n/a	n/a	0	0	0
447341	REC_WORD	wordpools/wasnorm_wordpool_576.txt	LTP346	ltpFR2	23	2	FIGHTER	564	n/a	n/a	0	0	0
449289	REC_WORD	wordpools/wasnorm_wordpool_576.txt	LTP346	ltpFR2	23	2	AUTHOR	61	n/a	n/a	0	0	0
449875	REC_WORD	wordpools/wasnorm_wordpool_576.txt	LTP346	ltpFR2	23	2	JAR	750	n/a	n/a	0	0	0
500590	DISTRACTOR	n/a	LTP346	ltpFR2	23	3	n/a	n/a	n/a	n/a	0	0	0
500590	START	n/a	LTP346	ltpFR2	23	n/a	n/a	n/a	4	n/a	n/a	n/a	n/a
500607	PROB	n/a	LTP346	ltpFR2	23	n/a	n/a	n/a	4	19	8	2	9
502122	PROB	n/a	LTP346	ltpFR2	23	n/a	n/a	n/a	4	11	3	4	4
503322	PROB	n/a	LTP346	ltpFR2	23	n/a	n/a	n/a	4	20	9	2	9
505670	PROB	n/a	LTP346	ltpFR2	23	n/a	n/a	n/a	4	21	9	8	4
506986	PROB	n/a	LTP346	ltpFR2	23	n/a	n/a	n/a	4	22	6	8	8
508470	PROB	n/a	LTP346	ltpFR2	23	n/a	n/a	n/a	4	23	7	7	9
510402	PROB	n/a	LTP346	ltpFR2	23	n/a	n/a	n/a	4	12	6	4	2
511485	PROB	n/a	LTP346	ltpFR2	23	n/a	n/a	n/a	4	13	3	9	1
513368	PROB	n/a	LTP346	ltpFR2	23	n/a	n/a	n/a	4	21	5	8	8
514766	PROB	n/a	LTP346	ltpFR2	23	n/a	n/a	n/a	4	7	1	2	4
515916	PROB	n/a	LTP346	ltpFR2	23	n/a	n/a	n/a	4	16	7	8	1
516948	PROB	n/a	LTP346	ltpFR2	23	n/a	n/a	n/a	4	21	8	5	8
518714	PROB	n/a	LTP346	ltpFR2	23	n/a	n/a	n/a	4	22	6	9	9
520080	PROB	n/a	LTP346	ltpFR2	23	n/a	n/a	n/a	4	14	6	4	4
521880	PROB	n/a	LTP346	ltpFR2	23	n/a	n/a	n/a	4	11	1	3	7
522779	PROB	n/a	LTP346	ltpFR2	23	n/a	n/a	n/a	4	15	9	1	5
523651	STOP	n/a	LTP346	ltpFR2	23	n/a	n/a	n/a	4	n/a	n/a	n/a	n/a
525579	WORD	wordpools/wasnorm_wordpool_576.txt	LTP346	ltpFR2	23	3	BEAVER	109	n/a	n/a	0	0	0
528194	WORD	wordpools/wasnorm_wordpool_576.txt	LTP346	ltpFR2	23	3	DRESSER	496	n/a	n/a	0	0	0
530676	WORD	wordpools/wasnorm_wordpool_576.txt	LTP346	ltpFR2	23	3	TABLE	1426	n/a	n/a	0	0	0
533359	WORD	wordpools/wasnorm_wordpool_576.txt	LTP346	ltpFR2	23	3	DECK	443	n/a	n/a	0	0	0
535823	WORD	wordpools/wasnorm_wordpool_576.txt	LTP346	ltpFR2	23	3	WIFE	1609	n/a	n/a	0	0	0
538490	WORD	wordpools/wasnorm_wordpool_576.txt	LTP346	ltpFR2	23	3	FARMER	553	n/a	n/a	0	0	0
540988	WORD	wordpools/wasnorm_wordpool_576.txt	LTP346	ltpFR2	23	3	JOKER	759	n/a	n/a	0	0	0
543554	WORD	wordpools/wasnorm_wordpool_576.txt	LTP346	ltpFR2	23	3	SHOELACE	1289	n/a	n/a	0	0	0
546153	WORD	wordpools/wasnorm_wordpool_576.txt	LTP346	ltpFR2	23	3	ATLAS	53	n/a	n/a	0	0	0
548701	WORD	wordpools/wasnorm_wordpool_576.txt	LTP346	ltpFR2	23	3	ROD	1203	n/a	n/a	0	0	0
551500	WORD	wordpools/wasnorm_wordpool_576.txt	LTP346	ltpFR2	23	3	ATOM	55	n/a	n/a	0	0	0
554098	WORD	wordpools/wasnorm_wordpool_576.txt	LTP346	ltpFR2	23	3	FACE	547	n/a	n/a	0	0	0
556880	WORD	wordpools/wasnorm_wordpool_576.txt	LTP346	ltpFR2	23	3	FROG	608	n/a	n/a	0	0	0
559563	WORD	wordpools/wasnorm_wordpool_576.txt	LTP346	ltpFR2	23	3	CANOE	233	n/a	n/a	0	0	0
562245	WORD	wordpools/wasnorm_wordpool_576.txt	LTP346	ltpFR2	23	3	CANDY	230	n/a	n/a	0	0	0
564827	WORD	wordpools/wasnorm_wordpool_576.txt	LTP346	ltpFR2	23	3	TART	1436	n/a	n/a	0	0	0
567477	WORD	wordpools/wasnorm_wordpool_576.txt	LTP346	ltpFR2	23	3	SWEATER	1419	n/a	n/a	0	0	0
570074	WORD	wordpools/wasnorm_wordpool_576.txt	LTP346	ltpFR2	23	3	TRACTOR	1493	n/a	n/a	0	0	0
572608	WORD	wordpools/wasnorm_wordpool_576.txt	LTP346	ltpFR2	23	3	DENTIST	447	n/a	n/a	0	0	0
575055	WORD	wordpools/wasnorm_wordpool_576.txt	LTP346	ltpFR2	23	3	PRAIRIE	1118	n/a	n/a	0	0	0
577489	WORD	wordpools/wasnorm_wordpool_576.txt	LTP346	ltpFR2	23	3	CABLE	213	n/a	n/a	0	0	0
579920	WORD	wordpools/wasnorm_wordpool_576.txt	LTP346	ltpFR2	23	3	CONSOLE	364	n/a	n/a	0	0	0
582470	WORD	wordpools/wasnorm_wordpool_576.txt	LTP346	ltpFR2	23	3	CABOOSE	214	n/a	n/a	0	0	0
585001	WORD	wordpools/wasnorm_wordpool_576.txt	LTP346	ltpFR2	23	3	GLASSES	640	n/a	n/a	0	0	0
586618	START	n/a	LTP346	ltpFR2	23	n/a	n/a	n/a	5	n/a	n/a	n/a	n/a
587444	DISTRACTOR	n/a	LTP346	ltpFR2	23	3	n/a	n/a	n/a	n/a	0	0	0
587451	PROB	n/a	LTP346	ltpFR2	23	n/a	n/a	n/a	5	15	7	4	4
589517	PROB	n/a	LTP346	ltpFR2	23	n/a	n/a	n/a	5	5	1	3	1
591149	PROB	n/a	LTP346	ltpFR2	23	n/a	n/a	n/a	5	14	3	2	9
592632	PROB	n/a	LTP346	ltpFR2	23	n/a	n/a	n/a	5	18	8	1	9
593997	PROB	n/a	LTP346	ltpFR2	23	n/a	n/a	n/a	5	17	9	7	1
595580	PROB	n/a	LTP346	ltpFR2	23	n/a	n/a	n/a	5	12	4	1	7
596962	PROB	n/a	LTP346	ltpFR2	23	n/a	n/a	n/a	5	17	8	3	6
599944	PROB	n/a	LTP346	ltpFR2	23	n/a	n/a	n/a	5	21	8	8	5
601261	PROB	n/a	LTP346	ltpFR2	23	n/a	n/a	n/a	5	11	2	2	7
606242	PROB	n/a	LTP346	ltpFR2	23	n/a	n/a	n/a	5	16	4	6	6
607492	PROB	n/a	LTP346	ltpFR2	23	n/a	n/a	n/a	5	17	5	4	8
608923	PROB	n/a	LTP346	ltpFR2	23	n/a	n/a	n/a	5	25	7	7	9
610279	STOP	n/a	LTP346	ltpFR2	23	n/a	n/a	n/a	5	n/a	n/a	n/a	n/a
612457	REC_START	n/a	LTP346	ltpFR2	23	3	n/a	n/a	n/a	n/a	0	0	0
612611	REC_WORD	wordpools/wasnorm_wordpool_576.txt	LTP346	ltpFR2	23	3	CABLE	213	n/a	n/a	0	0	0
613171	REC_WORD	wordpools/wasnorm_wordpool_576.txt	LTP346	ltpFR2	23	3	CONSOLE	364	n/a	n/a	0	0	0
613824	REC_WORD	wordpools/wasnorm_wordpool_576.txt	LTP346	ltpFR2	23	3	CABOOSE	214	n/a	n/a	0	0	0
614520	REC_WORD	wordpools/wasnorm_wordpool_576.txt	LTP346	ltpFR2	23	3	GLASSES	640	n/a	n/a	0	0	0
616542	REC_WORD	wordpools/wasnorm_wordpool_576.txt	LTP346	ltpFR2	23	3	WIFE	1609	n/a	n/a	0	0	0
617256	REC_WORD	wordpools/wasnorm_wordpool_576.txt	LTP346	ltpFR2	23	3	BEAVER	109	n/a	n/a	0	0	0
618321	REC_WORD	wordpools/wasnorm_wordpool_576.txt	LTP346	ltpFR2	23	3	TABLE	1426	n/a	n/a	0	0	0
620079	REC_WORD	wordpools/wasnorm_wordpool_576.txt	LTP346	ltpFR2	23	3	DRESSER	496	n/a	n/a	0	0	0
621549	REC_WORD	wordpools/wasnorm_wordpool_576.txt	LTP346	ltpFR2	23	3	DECK	443	n/a	n/a	0	0	0
624851	REC_WORD	wordpools/wasnorm_wordpool_576.txt	LTP346	ltpFR2	23	3	FROG	608	n/a	n/a	0	0	0
625503	REC_WORD	wordpools/wasnorm_wordpool_576.txt	LTP346	ltpFR2	23	3	CANOE	233	n/a	n/a	0	0	0
627950	REC_WORD	wordpools/wasnorm_wordpool_576.txt	LTP346	ltpFR2	23	3	ROD	1203	n/a	n/a	0	0	0
628378	REC_WORD	wordpools/wasnorm_wordpool_576.txt	LTP346	ltpFR2	23	3	ATOM	55	n/a	n/a	0	0	0
628868	REC_WORD	wordpools/wasnorm_wordpool_576.txt	LTP346	ltpFR2	23	3	FACE	547	n/a	n/a	0	0	0
633197	REC_WORD	wordpools/wasnorm_wordpool_576.txt	LTP346	ltpFR2	23	3	JOKER	759	n/a	n/a	0	0	0
633672	REC_WORD	wordpools/wasnorm_wordpool_576.txt	LTP346	ltpFR2	23	3	SHOELACE	1289	n/a	n/a	0	0	0
634381	REC_WORD	wordpools/wasnorm_wordpool_576.txt	LTP346	ltpFR2	23	3	ATLAS	53	n/a	n/a	0	0	0
638922	REC_WORD	wordpools/wasnorm_wordpool_576.txt	LTP346	ltpFR2	23	3	FARMER	553	n/a	n/a	0	0	0
641180	REC_WORD	wordpools/wasnorm_wordpool_576.txt	LTP346	ltpFR2	23	3	TRACTOR	1493	n/a	n/a	0	0	0
642433	REC_WORD	wordpools/wasnorm_wordpool_576.txt	LTP346	ltpFR2	23	3	SWEATER	1419	n/a	n/a	0	0	0
643131	REC_WORD	wordpools/wasnorm_wordpool_576.txt	LTP346	ltpFR2	23	3	DENTIST	447	n/a	n/a	0	0	0
643726	REC_WORD	wordpools/wasnorm_wordpool_576.txt	LTP346	ltpFR2	23	3	PRAIRIE	1118	n/a	n/a	0	0	0
649822	REC_WORD	wordpools/wasnorm_wordpool_576.txt	LTP346	ltpFR2	23	3	TART	1436	n/a	n/a	0	0	0
650303	REC_WORD	wordpools/wasnorm_wordpool_576.txt	LTP346	ltpFR2	23	3	CANDY	230	n/a	n/a	0	0	0
702897	DISTRACTOR	n/a	LTP346	ltpFR2	23	4	n/a	n/a	n/a	n/a	0	0	0
702897	START	n/a	LTP346	ltpFR2	23	n/a	n/a	n/a	6	n/a	n/a	n/a	n/a
702914	PROB	n/a	LTP346	ltpFR2	23	n/a	n/a	n/a	6	15	6	4	5
704796	PROB	n/a	LTP346	ltpFR2	23	n/a	n/a	n/a	6	9	2	2	4
705763	PROB	n/a	LTP346	ltpFR2	23	n/a	n/a	n/a	6	12	6	2	4
707530	PROB	n/a	LTP346	ltpFR2	23	n/a	n/a	n/a	6	13	2	8	3
709629	PROB	n/a	LTP346	ltpFR2	23	n/a	n/a	n/a	6	16	8	5	3
710777	PROB	n/a	LTP346	ltpFR2	23	n/a	n/a	n/a	6	22	6	7	9
713394	PROB	n/a	LTP346	ltpFR2	23	n/a	n/a	n/a	6	21	8	7	6
714560	PROB	n/a	LTP346	ltpFR2	23	n/a	n/a	n/a	6	21	6	9	7
716991	PROB	n/a	LTP346	ltpFR2	23	n/a	n/a	n/a	6	6	4	1	1
721323	PROB	n/a	LTP346	ltpFR2	23	n/a	n/a	n/a	6	19	3	7	9
723005	PROB	n/a	LTP346	ltpFR2	23	n/a	n/a	n/a	6	12	3	7	2
726897	STOP	n/a	LTP346	ltpFR2	23	n/a	n/a	n/a	6	n/a	n/a	n/a	n/a
727786	WORD	wordpools/wasnorm_wordpool_576.txt	LTP346	ltpFR2	23	4	MUMMY	932	n/a	n/a	0	0	0
730219	WORD	wordpools/wasnorm_wordpool_576.txt	LTP346	ltpFR2	23	4	PENGUIN	1044	n/a	n/a	0	0	0
732967	WORD	wordpools/wasnorm_wordpool_576.txt	LTP346	ltpFR2	23	4	KLEENEX	782	n/a	n/a	0	0	0
735633	WORD	wordpools/wasnorm_wordpool_576.txt	LTP346	ltpFR2	23	4	SAUCER	1237	n/a	n/a	0	0	0
738366	WORD	wordpools/wasnorm_wordpool_576.txt	LTP346	ltpFR2	23	4	TEAPOT	1442	n/a	n/a	0	0	0
740913	WORD	wordpools/wasnorm_wordpool_576.txt	LTP346	ltpFR2	23	4	COWBOY	395	n/a	n/a	0	0	0
743662	WORD	wordpools/wasnorm_wordpool_576.txt	LTP346	ltpFR2	23	4	DAUGHTER	442	n/a	n/a	0	0	0
746395	WORD	wordpools/wasnorm_wordpool_576.txt	LTP346	ltpFR2	23	4	AGENT	10	n/a	n/a	0	0	0
748826	WORD	wordpools/wasnorm_wordpool_576.txt	LTP346	ltpFR2	23	4	BADGE	68	n/a	n/a	0	0	0
751460	WORD	wordpools/wasnorm_wordpool_576.txt	LTP346	ltpFR2	23	4	HANDCUFFS	685	n/a	n/a	0	0	0
754091	WORD	wordpools/wasnorm_wordpool_576.txt	LTP346	ltpFR2	23	4	GUARD	667	n/a	n/a	0	0	0
756689	WORD	wordpools/wasnorm_wordpool_576.txt	LTP346	ltpFR2	23	4	ELK	526	n/a	n/a	0	0	0
759289	WORD	wordpools/wasnorm_wordpool_576.txt	LTP346	ltpFR2	23	4	CROWN	415	n/a	n/a	0	0	0
761804	WORD	wordpools/wasnorm_wordpool_576.txt	LTP346	ltpFR2	23	4	BRIDE	173	n/a	n/a	0	0	0
764454	WORD	wordpools/wasnorm_wordpool_576.txt	LTP346	ltpFR2	23	4	TRUMPET	1513	n/a	n/a	0	0	0
767101	WORD	wordpools/wasnorm_wordpool_576.txt	LTP346	ltpFR2	23	4	SUBURB	1399	n/a	n/a	0	0	0
769834	WORD	wordpools/wasnorm_wordpool_576.txt	LTP346	ltpFR2	23	4	BRUNETTE	181	n/a	n/a	0	0	0
772600	WORD	wordpools/wasnorm_wordpool_576.txt	LTP346	ltpFR2	23	4	TRIGGER	1507	n/a	n/a	0	0	0
775098	WORD	wordpools/wasnorm_wordpool_576.txt	LTP346	ltpFR2	23	4	HOSTAGE	722	n/a	n/a	0	0	0
777564	WORD	wordpools/wasnorm_wordpool_576.txt	LTP346	ltpFR2	23	4	CIRCUS	311	n/a	n/a	0	0	0
780213	WORD	wordpools/wasnorm_wordpool_576.txt	LTP346	ltpFR2	23	4	PIANO	1057	n/a	n/a	0	0	0
782994	WORD	wordpools/wasnorm_wordpool_576.txt	LTP346	ltpFR2	23	4	BUGLE	189	n/a	n/a	0	0	0
785743	WORD	wordpools/wasnorm_wordpool_576.txt	LTP346	ltpFR2	23	4	BOUQUET	157	n/a	n/a	0	0	0
788476	WORD	wordpools/wasnorm_wordpool_576.txt	LTP346	ltpFR2	23	4	HARP	689	n/a	n/a	0	0	0
790091	START	n/a	LTP346	ltpFR2	23	n/a	n/a	n/a	7	n/a	n/a	n/a	n/a
790978	DISTRACTOR	n/a	LTP346	ltpFR2	23	4	n/a	n/a	n/a	n/a	0	0	0
790991	PROB	n/a	LTP346	ltpFR2	23	n/a	n/a	n/a	7	16	4	6	6
793706	PROB	n/a	LTP346	ltpFR2	23	n/a	n/a	n/a	7	12	2	3	7
794856	PROB	n/a	LTP346	ltpFR2	23	n/a	n/a	n/a	7	21	9	9	3
796072	PROB	n/a	LTP346	ltpFR2	23	n/a	n/a	n/a	7	16	5	2	9
797405	PROB	n/a	LTP346	ltpFR2	23	n/a	n/a	n/a	7	9	4	1	4
798488	PROB	n/a	LTP346	ltpFR2	23	n/a	n/a	n/a	7	11	2	2	7
799870	PROB	n/a	LTP346	ltpFR2	23	n/a	n/a	n/a	7	20	5	8	6
803901	PROB	n/a	LTP346	ltpFR2	23	n/a	n/a	n/a	7	16	6	6	4
807384	PROB	n/a	LTP346	ltpFR2	23	n/a	n/a	n/a	7	19	9	3	7
809300	PROB	n/a	LTP346	ltpFR2	23	n/a	n/a	n/a	7	16	5	2	9
811582	PROB	n/a	LTP346	ltpFR2	23	n/a	n/a	n/a	7	15	9	4	2
812828	STOP	n/a	LTP346	ltpFR2	23	n/a	n/a	n/a	7	n/a	n/a	n/a	n/a
815980	REC_START	n/a	LTP346	ltpFR2	23	4	n/a	n/a	n/a	n/a	0	0	0
817255	REC_WORD	wordpools/wasnorm_wordpool_576.txt	LTP346	ltpFR2	23	4	CIRCUS	311	n/a	n/a	0	0	0
818061	REC_WORD	wordpools/wasnorm_wordpool_576.txt	LTP346	ltpFR2	23	4	PIANO	1057	n/a	n/a	0	0	0
818917	REC_WORD	wordpools/wasnorm_wordpool_576.txt	LTP346	ltpFR2	23	4	BUGLE	189	n/a	n/a	0	0	0
821431	REC_WORD	wordpools/wasnorm_wordpool_576.txt	LTP346	ltpFR2	23	4	HARP	689	n/a	n/a	0	0	0
824658	REC_WORD	wordpools/wasnorm_wordpool_576.txt	LTP346	ltpFR2	23	4	BRIDE	173	n/a	n/a	0	0	0
825126	REC_WORD	wordpools/wasnorm_wordpool_576.txt	LTP346	ltpFR2	23	4	CROWN	415	n/a	n/a	0	0	0
825639	REC_WORD	wordpools/wasnorm_wordpool_576.txt	LTP346	ltpFR2	23	4	TRUMPET	1513	n/a	n/a	0	0	0
827703	REC_WORD	wordpools/wasnorm_wordpool_576.txt	LTP346	ltpFR2	23	4	MUMMY	932	n/a	n/a	0	0	0
828232	REC_WORD	wordpools/wasnorm_wordpool_576.txt	LTP346	ltpFR2	23	4	PENGUIN	1044	n/a	n/a	0	0	0
828852	REC_WORD	wordpools/wasnorm_wordpool_576.txt	LTP346	ltpFR2	23	4	KLEENEX	782	n/a	n/a	0	0	0
830379	REC_WORD	wordpools/wasnorm_wordpool_576.txt	LTP346	ltpFR2	23	4	SAUCER	1237	n/a	n/a	0	0	0
831082	REC_WORD	wordpools/wasnorm_wordpool_576.txt	LTP346	ltpFR2	23	4	TEAPOT	1442	n/a	n/a	0	0	0
836815	REC_WORD	wordpools/wasnorm_wordpool_576.txt	LTP346	ltpFR2	23	4	DAUGHTER	442	n/a	n/a	0	0	0
837334	REC_WORD	wordpools/wasnorm_wordpool_576.txt	LTP346	ltpFR2	23	4	COWBOY	395	n/a	n/a	0	0	0
839369	REC_WORD	wordpools/wasnorm_wordpool_576.txt	LTP346	ltpFR2	23	4	AGENT	10	n/a	n/a	0	0	0
839994	REC_WORD	wordpools/wasnorm_wordpool_576.txt	LTP346	ltpFR2	23	4	BADGE	68	n/a	n/a	0	0	0
841672	REC_WORD	wordpools/wasnorm_wordpool_576.txt	LTP346	ltpFR2	23	4	HANDCUFFS	685	n/a	n/a	0	0	0
842638	REC_WORD	wordpools/wasnorm_wordpool_576.txt	LTP346	ltpFR2	23	4	ELK	526	n/a	n/a	0	0	0
863262	REC_WORD	wordpools/wasnorm_wordpool_576.txt	LTP346	ltpFR2	23	4	GUARD	667	n/a	n/a	0	0	0
906423	WORD	wordpools/wasnorm_wordpool_576.txt	LTP346	ltpFR2	23	5	JELLY	755	n/a	n/a	0	0	0
909070	WORD	wordpools/wasnorm_wordpool_576.txt	LTP346	ltpFR2	23	5	BRANDY	169	n/a	n/a	0	0	0
911686	WORD	wordpools/wasnorm_wordpool_576.txt	LTP346	ltpFR2	23	5	PLANET	1082	n/a	n/a	0	0	0
914152	WORD	wordpools/wasnorm_wordpool_576.txt	LTP346	ltpFR2	23	5	INSECT	740	n/a	n/a	0	0	0
916635	WORD	wordpools/wasnorm_wordpool_576.txt	LTP346	ltpFR2	23	5	SWATTER	1418	n/a	n/a	0	0	0
919417	WORD	wordpools/wasnorm_wordpool_576.txt	LTP346	ltpFR2	23	5	PROTON	1132	n/a	n/a	0	0	0
922048	WORD	wordpools/wasnorm_wordpool_576.txt	LTP346	ltpFR2	23	5	SMOG	1330	n/a	n/a	0	0	0
924564	WORD	wordpools/wasnorm_wordpool_576.txt	LTP346	ltpFR2	23	5	GANGSTER	620	n/a	n/a	0	0	0
927246	WORD	wordpools/wasnorm_wordpool_576.txt	LTP346	ltpFR2	23	5	BANDAGE	79	n/a	n/a	0	0	0
930061	WORD	wordpools/wasnorm_wordpool_576.txt	LTP346	ltpFR2	23	5	RAZOR	1171	n/a	n/a	0	0	0
932710	WORD	wordpools/wasnorm_wordpool_576.txt	LTP346	ltpFR2	23	5	LIPSTICK	829	n/a	n/a	0	0	0
935309	WORD	wordpools/wasnorm_wordpool_576.txt	LTP346	ltpFR2	23	5	THICKET	1455	n/a	n/a	0	0	0
937974	WORD	wordpools/wasnorm_wordpool_576.txt	LTP346	ltpFR2	23	5	DART	440	n/a	n/a	0	0	0
940407	WORD	wordpools/wasnorm_wordpool_576.txt	LTP346	ltpFR2	23	5	RAILROAD	1162	n/a	n/a	0	0	0
943156	WORD	wordpools/wasnorm_wordpool_576.txt	LTP346	ltpFR2	23	5	PARCEL	1012	n/a	n/a	0	0	0
945670	WORD	wordpools/wasnorm_wordpool_576.txt	LTP346	ltpFR2	23	5	BATHROOM	99	n/a	n/a	0	0	0
948437	WORD	wordpools/wasnorm_wordpool_576.txt	LTP346	ltpFR2	23	5	DAGGER	434	n/a	n/a	0	0	0
950868	WORD	wordpools/wasnorm_wordpool_576.txt	LTP346	ltpFR2	23	5	BELLY	119	n/a	n/a	0	0	0
953518	WORD	wordpools/wasnorm_wordpool_576.txt	LTP346	ltpFR2	23	5	STOMACH	1384	n/a	n/a	0	0	0
956116	WORD	wordpools/wasnorm_wordpool_576.txt	LTP346	ltpFR2	23	5	RIFLE	1192	n/a	n/a	0	0	0
958848	WORD	wordpools/wasnorm_wordpool_576.txt	LTP346	ltpFR2	23	5	SKATE	1313	n/a	n/a	0	0	0
961581	WORD	wordpools/wasnorm_wordpool_576.txt	LTP346	ltpFR2	23	5	MUSHROOM	934	n/a	n/a	0	0	0
964012	WORD	wordpools/wasnorm_wordpool_576.txt	LTP346	ltpFR2	23	5	PERMIT	1051	n/a	n/a	0	0	0
966579	WORD	wordpools/wasnorm_wordpool_576.txt	LTP346	ltpFR2	23	5	BRAKE	166	n/a	n/a	0	0	0
968195	START	n/a	LTP346	ltpFR2	23	n/a	n/a	n/a	8	n/a	n/a	n/a	n/a
969053	DISTRACTOR	n/a	LTP346	ltpFR2	23	5	n/a	n/a	n/a	n/a	0	0	0
969060	PROB	n/a	LTP346	ltpFR2	23	n/a	n/a	n/a	8	22	4	9	9
971426	PROB	n/a	LTP346	ltpFR2	23	n/a	n/a	n/a	8	15	7	3	5
972609	PROB	n/a	LTP346	ltpFR2	23	n/a	n/a	n/a	8	20	8	8	4
973874	PROB	n/a	LTP346	ltpFR2	23	n/a	n/a	n/a	8	18	9	1	7
975074	PROB	n/a	LTP346	ltpFR2	23	n/a	n/a	n/a	8	12	6	4	2
977224	PROB	n/a	LTP346	ltpFR2	23	n/a	n/a	n/a	8	7	3	2	2
979072	PROB	n/a	LTP346	ltpFR2	23	n/a	n/a	n/a	8	12	5	2	5
980071	PROB	n/a	LTP346	ltpFR2	23	n/a	n/a	n/a	8	14	2	8	4
981189	PROB	n/a	LTP346	ltpFR2	23	n/a	n/a	n/a	8	13	3	4	6
982371	PROB	n/a	LTP346	ltpFR2	23	n/a	n/a	n/a	8	10	2	3	5
983803	PROB	n/a	LTP346	ltpFR2	23	n/a	n/a	n/a	8	21	8	4	9
985337	PROB	n/a	LTP346	ltpFR2	23	n/a	n/a	n/a	8	8	1	3	4
986569	PROB	n/a	LTP346	ltpFR2	23	n/a	n/a	n/a	8	17	6	4	7
989017	PROB	n/a	LTP346	ltpFR2	23	n/a	n/a	n/a	8	18	9	8	1
990168	PROB	n/a	LTP346	ltpFR2	23	n/a	n/a	n/a	8	13	7	2	4
992049	STOP	n/a	LTP346	ltpFR2	23	n/a	n/a	n/a	8	n/a	n/a	n/a	n/a
994016	REC_START	n/a	LTP346	ltpFR2	23	5	n/a	n/a	n/a	n/a	0	0	0
994018	REC_WORD	wordpools/wasnorm_wordpool_576.txt	LTP346	ltpFR2	23	5	PERMIT	1051	n/a	n/a	0	0	0
994490	REC_WORD	wordpools/wasnorm_wordpool_576.txt	LTP346	ltpFR2	23	5	SKATE	1313	n/a	n/a	0	0	0
995059	REC_WORD	wordpools/wasnorm_wordpool_576.txt	LTP346	ltpFR2	23	5	MUSHROOM	934	n/a	n/a	0	0	0
995773	REC_WORD	wordpools/wasnorm_wordpool_576.txt	LTP346	ltpFR2	23	5	BRAKE	166	n/a	n/a	0	0	0
1005695	REC_WORD	wordpools/wasnorm_wordpool_576.txt	LTP346	ltpFR2	23	5	PLANET	1082	n/a	n/a	0	0	0
1006914	REC_WORD	wordpools/wasnorm_wordpool_576.txt	LTP346	ltpFR2	23	5	INSECT	740	n/a	n/a	0	0	0
1007445	REC_WORD	wordpools/wasnorm_wordpool_576.txt	LTP346	ltpFR2	23	5	SWATTER	1418	n/a	n/a	0	0	0
1008632	REC_WORD	wordpools/wasnorm_wordpool_576.txt	LTP346	ltpFR2	23	5	SMOG	1330	n/a	n/a	0	0	0
1009321	REC_WORD	wordpools/wasnorm_wordpool_576.txt	LTP346	ltpFR2	23	5	PROTON	1132	n/a	n/a	0	0	0
1011619	REC_WORD	wordpools/wasnorm_wordpool_576.txt	LTP346	ltpFR2	23	5	GANGSTER	620	n/a	n/a	0	0	0
1012282	REC_WORD	wordpools/wasnorm_wordpool_576.txt	LTP346	ltpFR2	23	5	BANDAGE	79	n/a	n/a	0	0	0
1012825	REC_WORD	wordpools/wasnorm_wordpool_576.txt	LTP346	ltpFR2	23	5	RAZOR	1171	n/a	n/a	0	0	0
1014000	REC_WORD	wordpools/wasnorm_wordpool_576.txt	LTP346	ltpFR2	23	5	BELLY	119	n/a	n/a	0	0	0
1014301	REC_WORD	wordpools/wasnorm_wordpool_576.txt	LTP346	ltpFR2	23	5	STOMACH	1384	n/a	n/a	0	0	0
1016324	REC_WORD	wordpools/wasnorm_wordpool_576.txt	LTP346	ltpFR2	23	5	DAGGER	434	n/a	n/a	0	0	0
1016906	REC_WORD	wordpools/wasnorm_wordpool_576.txt	LTP346	ltpFR2	23	5	PARCEL	1012	n/a	n/a	0	0	0
1017596	REC_WORD	wordpools/wasnorm_wordpool_576.txt	LTP346	ltpFR2	23	5	BATHROOM	99	n/a	n/a	0	0	0
1019940	REC_WORD	wordpools/wasnorm_wordpool_576.txt	LTP346	ltpFR2	23	5	RAILROAD	1162	n/a	n/a	0	0	0
1020632	REC_WORD	wordpools/wasnorm_wordpool_576.txt	LTP346	ltpFR2	23	5	DART	440	n/a	n/a	0	0	0
1024328	REC_WORD	wordpools/wasnorm_wordpool_576.txt	LTP346	ltpFR2	23	5	LIPSTICK	829	n/a	n/a	0	0	0
1028097	REC_WORD	wordpools/wasnorm_wordpool_576.txt	LTP346	ltpFR2	23	5	THICKER	-1	n/a	n/a	0	0	0
1029547	REC_WORD	wordpools/wasnorm_wordpool_576.txt	LTP346	ltpFR2	23	5	THICKET	1455	n/a	n/a	0	0	0
1084442	DISTRACTOR	n/a	LTP346	ltpFR2	23	6	n/a	n/a	n/a	n/a	0	0	0
1084442	START	n/a	LTP346	ltpFR2	23	n/a	n/a	n/a	9	n/a	n/a	n/a	n/a
1084458	PROB	n/a	LTP346	ltpFR2	23	n/a	n/a	n/a	9	15	5	3	7
1086158	PROB	n/a	LTP346	ltpFR2	23	n/a	n/a	n/a	9	3	1	1	1
1087123	PROB	n/a	LTP346	ltpFR2	23	n/a	n/a	n/a	9	21	8	4	9
1088523	PROB	n/a	LTP346	ltpFR2	23	n/a	n/a	n/a	9	20	7	6	7
1089788	PROB	n/a	LTP346	ltpFR2	23	n/a	n/a	n/a	9	6	2	1	3
1090771	PROB	n/a	LTP346	ltpFR2	23	n/a	n/a	n/a	9	9	1	2	6
1092071	PROB	n/a	LTP346	ltpFR2	23	n/a	n/a	n/a	9	21	7	9	5
1093288	PROB	n/a	LTP346	ltpFR2	23	n/a	n/a	n/a	9	15	5	7	3
1094454	PROB	n/a	LTP346	ltpFR2	23	n/a	n/a	n/a	9	13	3	2	8
1096186	PROB	n/a	LTP346	ltpFR2	23	n/a	n/a	n/a	9	8	1	6	1
1097369	PROB	n/a	LTP346	ltpFR2	23	n/a	n/a	n/a	9	12	8	2	2
1098287	PROB	n/a	LTP346	ltpFR2	23	n/a	n/a	n/a	9	12	3	1	8
1099468	PROB	n/a	LTP346	ltpFR2	23	n/a	n/a	n/a	9	12	1	2	9
1101100	PROB	n/a	LTP346	ltpFR2	23	n/a	n/a	n/a	9	15	6	2	7
1102284	PROB	n/a	LTP346	ltpFR2	23	n/a	n/a	n/a	9	24	8	8	8
1103600	PROB	n/a	LTP346	ltpFR2	23	n/a	n/a	n/a	9	16	5	4	7
1105365	PROB	n/a	LTP346	ltpFR2	23	n/a	n/a	n/a	9	22	6	8	9
1108060	STOP	n/a	LTP346	ltpFR2	23	n/a	n/a	n/a	9	n/a	n/a	n/a	n/a
1109430	WORD	wordpools/wasnorm_wordpool_576.txt	LTP346	ltpFR2	23	6	TAXI	1438	n/a	n/a	0	0	0
1111862	WORD	wordpools/wasnorm_wordpool_576.txt	LTP346	ltpFR2	23	6	DANDRUFF	439	n/a	n/a	0	0	0
1114345	WORD	wordpools/wasnorm_wordpool_576.txt	LTP346	ltpFR2	23	6	HEADBAND	696	n/a	n/a	0	0	0
1117059	WORD	wordpools/wasnorm_wordpool_576.txt	LTP346	ltpFR2	23	6	BRICK	172	n/a	n/a	0	0	0
1119708	WORD	wordpools/wasnorm_wordpool_576.txt	LTP346	ltpFR2	23	6	VALLEY	1545	n/a	n/a	0	0	0
1122158	WORD	wordpools/wasnorm_wordpool_576.txt	LTP346	ltpFR2	23	6	BLOCKADE	137	n/a	n/a	0	0	0
1124739	WORD	wordpools/wasnorm_wordpool_576.txt	LTP346	ltpFR2	23	6	WALRUS	1585	n/a	n/a	0	0	0
1127372	WORD	wordpools/wasnorm_wordpool_576.txt	LTP346	ltpFR2	23	6	STONE	1385	n/a	n/a	0	0	0
1130138	WORD	wordpools/wasnorm_wordpool_576.txt	LTP346	ltpFR2	23	6	HOOD	714	n/a	n/a	0	0	0
1132702	WORD	wordpools/wasnorm_wordpool_576.txt	LTP346	ltpFR2	23	6	GODDESS	646	n/a	n/a	0	0	0
1135235	WORD	wordpools/wasnorm_wordpool_576.txt	LTP346	ltpFR2	23	6	PARTY	1018	n/a	n/a	0	0	0
1137817	WORD	wordpools/wasnorm_wordpool_576.txt	LTP346	ltpFR2	23	6	SEASHORE	1263	n/a	n/a	0	0	0
1140266	WORD	wordpools/wasnorm_wordpool_576.txt	LTP346	ltpFR2	23	6	CREEK	404	n/a	n/a	0	0	0
1142864	WORD	wordpools/wasnorm_wordpool_576.txt	LTP346	ltpFR2	23	6	SCOUT	1252	n/a	n/a	0	0	0
1145497	WORD	wordpools/wasnorm_wordpool_576.txt	LTP346	ltpFR2	23	6	SPICE	1350	n/a	n/a	0	0	0
1147945	WORD	wordpools/wasnorm_wordpool_576.txt	LTP346	ltpFR2	23	6	SQUIRREL	1362	n/a	n/a	0	0	0
1150495	WORD	wordpools/wasnorm_wordpool_576.txt	LTP346	ltpFR2	23	6	HATCHET	691	n/a	n/a	0	0	0
1153161	WORD	wordpools/wasnorm_wordpool_576.txt	LTP346	ltpFR2	23	6	BIBLE	124	n/a	n/a	0	0	0
1155942	WORD	wordpools/wasnorm_wordpool_576.txt	LTP346	ltpFR2	23	6	DOORBELL	487	n/a	n/a	0	0	0
1158541	WORD	wordpools/wasnorm_wordpool_576.txt	LTP346	ltpFR2	23	6	WOLF	1619	n/a	n/a	0	0	0
1161257	WORD	wordpools/wasnorm_wordpool_576.txt	LTP346	ltpFR2	23	6	PARROT	1015	n/a	n/a	0	0	0
1163855	WORD	wordpools/wasnorm_wordpool_576.txt	LTP346	ltpFR2	23	6	SPARROW	1347	n/a	n/a	0	0	0
1166421	WORD	wordpools/wasnorm_wordpool_576.txt	LTP346	ltpFR2	23	6	TOOTHPASTE	1483	n/a	n/a	0	0	0
1169237	WORD	wordpools/wasnorm_wordpool_576.txt	LTP346	ltpFR2	23	6	TWEEZERS	1526	n/a	n/a	0	0	0
1170852	START	n/a	LTP346	ltpFR2	23	n/a	n/a	n/a	10	n/a	n/a	n/a	n/a
1171915	DISTRACTOR	n/a	LTP346	ltpFR2	23	6	n/a	n/a	n/a	n/a	0	0	0
1171918	PROB	n/a	LTP346	ltpFR2	23	n/a	n/a	n/a	10	10	6	1	3
1173168	PROB	n/a	LTP346	ltpFR2	23	n/a	n/a	n/a	10	11	9	1	1
1174134	PROB	n/a	LTP346	ltpFR2	23	n/a	n/a	n/a	10	13	3	6	4
1175201	PROB	n/a	LTP346	ltpFR2	23	n/a	n/a	n/a	10	23	5	9	9
1176882	PROB	n/a	LTP346	ltpFR2	23	n/a	n/a	n/a	10	23	8	7	8
1178466	PROB	n/a	LTP346	ltpFR2	23	n/a	n/a	n/a	10	21	6	8	7
1179498	PROB	n/a	LTP346	ltpFR2	23	n/a	n/a	n/a	10	13	2	8	3
1180615	PROB	n/a	LTP346	ltpFR2	23	n/a	n/a	n/a	10	15	3	7	5
1181663	PROB	n/a	LTP346	ltpFR2	23	n/a	n/a	n/a	10	6	2	3	2
1182896	PROB	n/a	LTP346	ltpFR2	23	n/a	n/a	n/a	10	17	7	4	6
1184463	PROB	n/a	LTP346	ltpFR2	23	n/a	n/a	n/a	10	13	7	1	8
1185562	PROB	n/a	LTP346	ltpFR2	23	n/a	n/a	n/a	10	10	2	3	5
1187094	PROB	n/a	LTP346	ltpFR2	23	n/a	n/a	n/a	10	12	3	8	1
1188060	PROB	n/a	LTP346	ltpFR2	23	n/a	n/a	n/a	10	11	4	3	4
1189227	PROB	n/a	LTP346	ltpFR2	23	n/a	n/a	n/a	10	19	2	9	8
1190792	PROB	n/a	LTP346	ltpFR2	23	n/a	n/a	n/a	10	19	5	8	6
1192293	PROB	n/a	LTP346	ltpFR2	23	n/a	n/a	n/a	10	19	4	7	8
1193975	STOP	n/a	LTP346	ltpFR2	23	n/a	n/a	n/a	10	n/a	n/a	n/a	n/a
1196774	REC_START	n/a	LTP346	ltpFR2	23	6	n/a	n/a	n/a	n/a	0	0	0
1198763	REC_WORD	wordpools/wasnorm_wordpool_576.txt	LTP346	ltpFR2	23	6	TAXI	1438	n/a	n/a	0	0	0
1199490	REC_WORD	wordpools/wasnorm_wordpool_576.txt	LTP346	ltpFR2	23	6	HEADBAND	696	n/a	n/a	0	0	0
1201357	REC_WORD	wordpools/wasnorm_wordpool_576.txt	LTP346	ltpFR2	23	6	DANDRUFF	439	n/a	n/a	0	0	0
1204335	REC_WORD	wordpools/wasnorm_wordpool_576.txt	LTP346	ltpFR2	23	6	BRICK	172	n/a	n/a	0	0	0
1204691	REC_WORD	wordpools/wasnorm_wordpool_576.txt	LTP346	ltpFR2	23	6	STONE	1385	n/a	n/a	0	0	0
1206608	REC_WORD	wordpools/wasnorm_wordpool_576.txt	LTP346	ltpFR2	23	6	BLOCKADE	137	n/a	n/a	0	0	0
1208175	REC_WORD	wordpools/wasnorm_wordpool_576.txt	LTP346	ltpFR2	23	6	VALLEY	1545	n/a	n/a	0	0	0
1208760	REC_WORD	wordpools/wasnorm_wordpool_576.txt	LTP346	ltpFR2	23	6	WALRUS	1585	n/a	n/a	0	0	0
1211663	REC_WORD	wordpools/wasnorm_wordpool_576.txt	LTP346	ltpFR2	23	6	HOOD	714	n/a	n/a	0	0	0
1212657	REC_WORD	wordpools/wasnorm_wordpool_576.txt	LTP346	ltpFR2	23	6	GODDESS	646	n/a	n/a	0	0	0
1213656	REC_WORD	wordpools/wasnorm_wordpool_576.txt	LTP346	ltpFR2	23	6	PARTY	1018	n/a	n/a	0	0	0
1215428	REC_WORD	wordpools/wasnorm_wordpool_576.txt	LTP346	ltpFR2	23	6	SQUIRREL	1362	n/a	n/a	0	0	0
1216064	REC_WORD	wordpools/wasnorm_wordpool_576.txt	LTP346	ltpFR2	23	6	HATCHET	691	n/a	n/a	0	0	0
1216654	REC_WORD	wordpools/wasnorm_wordpool_576.txt	LTP346	ltpFR2	23	6	SPICE	1350	n/a	n/a	0	0	0
1220200	REC_WORD	wordpools/wasnorm_wordpool_576.txt	LTP346	ltpFR2	23	6	TOOTHPASTE	1483	n/a	n/a	0	0	0
1220831	REC_WORD	wordpools/wasnorm_wordpool_576.txt	LTP346	ltpFR2	23	6	TWEEZERS	1526	n/a	n/a	0	0	0
1222525	REC_WORD	wordpools/wasnorm_wordpool_576.txt	LTP346	ltpFR2	23	6	BIBLE	124	n/a	n/a	0	0	0
1223063	REC_WORD	wordpools/wasnorm_wordpool_576.txt	LTP346	ltpFR2	23	6	DOORBELL	487	n/a	n/a	0	0	0
1224707	REC_WORD	wordpools/wasnorm_wordpool_576.txt	LTP346	ltpFR2	23	6	SPARROW	1347	n/a	n/a	0	0	0
1225326	REC_WORD	wordpools/wasnorm_wordpool_576.txt	LTP346	ltpFR2	23	6	PARROT	1015	n/a	n/a	0	0	0
1225801	REC_WORD	wordpools/wasnorm_wordpool_576.txt	LTP346	ltpFR2	23	6	WOLF	1619	n/a	n/a	0	0	0
1287216	WORD	wordpools/wasnorm_wordpool_576.txt	LTP346	ltpFR2	23	7	NEPTUNE	943	n/a	n/a	0	0	0
1289897	WORD	wordpools/wasnorm_wordpool_576.txt	LTP346	ltpFR2	23	7	FLASK	576	n/a	n/a	0	0	0
1292647	WORD	wordpools/wasnorm_wordpool_576.txt	LTP346	ltpFR2	23	7	ISLAND	745	n/a	n/a	0	0	0
1295396	WORD	wordpools/wasnorm_wordpool_576.txt	LTP346	ltpFR2	23	7	CRACKER	398	n/a	n/a	0	0	0
1298211	WORD	wordpools/wasnorm_wordpool_576.txt	LTP346	ltpFR2	23	7	OUTLAW	989	n/a	n/a	0	0	0
1300909	WORD	wordpools/wasnorm_wordpool_576.txt	LTP346	ltpFR2	23	7	ROBBER	1197	n/a	n/a	0	0	0
1303526	WORD	wordpools/wasnorm_wordpool_576.txt	LTP346	ltpFR2	23	7	DAISY	435	n/a	n/a	0	0	0
1306158	WORD	wordpools/wasnorm_wordpool_576.txt	LTP346	ltpFR2	23	7	FILM	565	n/a	n/a	0	0	0
1308955	WORD	wordpools/wasnorm_wordpool_576.txt	LTP346	ltpFR2	23	7	PASSAGE	1019	n/a	n/a	0	0	0
1311472	WORD	wordpools/wasnorm_wordpool_576.txt	LTP346	ltpFR2	23	7	STRING	1394	n/a	n/a	0	0	0
1314036	WORD	wordpools/wasnorm_wordpool_576.txt	LTP346	ltpFR2	23	7	PAINTING	1005	n/a	n/a	0	0	0
1316769	WORD	wordpools/wasnorm_wordpool_576.txt	LTP346	ltpFR2	23	7	LILY	821	n/a	n/a	0	0	0
1319435	WORD	wordpools/wasnorm_wordpool_576.txt	LTP346	ltpFR2	23	7	SQUID	1361	n/a	n/a	0	0	0
1322033	WORD	wordpools/wasnorm_wordpool_576.txt	LTP346	ltpFR2	23	7	GLASS	639	n/a	n/a	0	0	0
1324765	WORD	wordpools/wasnorm_wordpool_576.txt	LTP346	ltpFR2	23	7	PLASTER	1085	n/a	n/a	0	0	0
1327231	WORD	wordpools/wasnorm_wordpool_576.txt	LTP346	ltpFR2	23	7	TUBA	1515	n/a	n/a	0	0	0
1329696	WORD	wordpools/wasnorm_wordpool_576.txt	LTP346	ltpFR2	23	7	FRAME	600	n/a	n/a	0	0	0
1332312	WORD	wordpools/wasnorm_wordpool_576.txt	LTP346	ltpFR2	23	7	SHELF	1280	n/a	n/a	0	0	0
1334910	WORD	wordpools/wasnorm_wordpool_576.txt	LTP346	ltpFR2	23	7	LOBBY	836	n/a	n/a	0	0	0
1337742	WORD	wordpools/wasnorm_wordpool_576.txt	LTP346	ltpFR2	23	7	DIAMOND	458	n/a	n/a	0	0	0
1340459	WORD	wordpools/wasnorm_wordpool_576.txt	LTP346	ltpFR2	23	7	APRON	35	n/a	n/a	0	0	0
1343023	WORD	wordpools/wasnorm_wordpool_576.txt	LTP346	ltpFR2	23	7	TOASTER	1472	n/a	n/a	0	0	0
1345457	WORD	wordpools/wasnorm_wordpool_576.txt	LTP346	ltpFR2	23	7	COFFIN	342	n/a	n/a	0	0	0
1347954	WORD	wordpools/wasnorm_wordpool_576.txt	LTP346	ltpFR2	23	7	POLICE	1098	n/a	n/a	0	0	0
1349572	START	n/a	LTP346	ltpFR2	23	n/a	n/a	n/a	11	n/a	n/a	n/a	n/a
1350389	DISTRACTOR	n/a	LTP346	ltpFR2	23	7	n/a	n/a	n/a	n/a	0	0	0
1350404	PROB	n/a	LTP346	ltpFR2	23	n/a	n/a	n/a	11	24	9	8	7
1351637	PROB	n/a	LTP346	ltpFR2	23	n/a	n/a	n/a	11	10	2	7	1
1353935	PROB	n/a	LTP346	ltpFR2	23	n/a	n/a	n/a	11	18	4	8	6
1355435	PROB	n/a	LTP346	ltpFR2	23	n/a	n/a	n/a	11	13	1	3	9
1356717	PROB	n/a	LTP346	ltpFR2	23	n/a	n/a	n/a	11	12	1	3	8
1358816	PROB	n/a	LTP346	ltpFR2	23	n/a	n/a	n/a	11	9	2	1	6
1360200	PROB	n/a	LTP346	ltpFR2	23	n/a	n/a	n/a	11	13	6	1	6
1361333	PROB	n/a	LTP346	ltpFR2	23	n/a	n/a	n/a	11	18	8	7	3
1362416	PROB	n/a	LTP346	ltpFR2	23	n/a	n/a	n/a	11	8	4	1	3
1363482	PROB	n/a	LTP346	ltpFR2	23	n/a	n/a	n/a	11	4	2	1	1
1364415	PROB	n/a	LTP346	ltpFR2	23	n/a	n/a	n/a	11	14	5	5	4
1365631	PROB	n/a	LTP346	ltpFR2	23	n/a	n/a	n/a	11	17	4	5	8
1367380	PROB	n/a	LTP346	ltpFR2	23	n/a	n/a	n/a	11	15	5	4	6
1369078	PROB	n/a	LTP346	ltpFR2	23	n/a	n/a	n/a	11	17	5	4	8
1371195	PROB	n/a	LTP346	ltpFR2	23	n/a	n/a	n/a	11	13	3	8	2
1372940	STOP	n/a	LTP346	ltpFR2	23	n/a	n/a	n/a	11	n/a	n/a	n/a	n/a
1375410	REC_START	n/a	LTP346	ltpFR2	23	7	n/a	n/a	n/a	n/a	0	0	0
1375625	REC_WORD	wordpools/wasnorm_wordpool_576.txt	LTP346	ltpFR2	23	7	POLICE	1098	n/a	n/a	0	0	0
1376285	REC_WORD	wordpools/wasnorm_wordpool_576.txt	LTP346	ltpFR2	23	7	COFFIN	342	n/a	n/a	0	0	0
1380007	REC_WORD	wordpools/wasnorm_wordpool_576.txt	LTP346	ltpFR2	23	7	FILM	565	n/a	n/a	0	0	0
1380967	REC_WORD	wordpools/wasnorm_wordpool_576.txt	LTP346	ltpFR2	23	7	DAISY	435	n/a	n/a	0	0	0
1381641	REC_WORD	wordpools/wasnorm_wordpool_576.txt	LTP346	ltpFR2	23	7	PASSAGE	1019	n/a	n/a	0	0	0
1386981	REC_WORD	wordpools/wasnorm_wordpool_576.txt	LTP346	ltpFR2	23	7	STRING	1394	n/a	n/a	0	0	0
1392857	REC_WORD	wordpools/wasnorm_wordpool_576.txt	LTP346	ltpFR2	23	7	PAINTING	1005	n/a	n/a	0	0	0
1394521	REC_WORD	wordpools/wasnorm_wordpool_576.txt	LTP346	ltpFR2	23	7	LILY	821	n/a	n/a	0	0	0
1394882	REC_WORD	wordpools/wasnorm_wordpool_576.txt	LTP346	ltpFR2	23	7	SQUID	1361	n/a	n/a	0	0	0
1397027	REC_WORD	wordpools/wasnorm_wordpool_576.txt	LTP346	ltpFR2	23	7	GLASS	639	n/a	n/a	0	0	0
1398014	REC_WORD	wordpools/wasnorm_wordpool_576.txt	LTP346	ltpFR2	23	7	PLASTER	1085	n/a	n/a	0	0	0
1399933	REC_WORD	wordpools/wasnorm_wordpool_576.txt	LTP346	ltpFR2	23	7	TUBA	1515	n/a	n/a	0	0	0
1400365	REC_WORD	wordpools/wasnorm_wordpool_576.txt	LTP346	ltpFR2	23	7	FRAME	600	n/a	n/a	0	0	0
1400844	REC_WORD	wordpools/wasnorm_wordpool_576.txt	LTP346	ltpFR2	23	7	SHELF	1280	n/a	n/a	0	0	0
1401394	REC_WORD	wordpools/wasnorm_wordpool_576.txt	LTP346	ltpFR2	23	7	LOBBY	836	n/a	n/a	0	0	0
1402586	REC_WORD	wordpools/wasnorm_wordpool_576.txt	LTP346	ltpFR2	23	7	DIAMOND	458	n/a	n/a	0	0	0
1403186	REC_WORD	wordpools/wasnorm_wordpool_576.txt	LTP346	ltpFR2	23	7	APRON	35	n/a	n/a	0	0	0
1403703	REC_WORD	wordpools/wasnorm_wordpool_576.txt	LTP346	ltpFR2	23	7	TOASTER	1472	n/a	n/a	0	0	0
1410285	REC_WORD	wordpools/wasnorm_wordpool_576.txt	LTP346	ltpFR2	23	7	NEPTUNE	943	n/a	n/a	0	0	0
1412146	REC_WORD	wordpools/wasnorm_wordpool_576.txt	LTP346	ltpFR2	23	7	ISLAND	745	n/a	n/a	0	0	0
1413389	REC_WORD	wordpools/wasnorm_wordpool_576.txt	LTP346	ltpFR2	23	7	CRACKER	398	n/a	n/a	0	0	0
1414003	REC_WORD	wordpools/wasnorm_wordpool_576.txt	LTP346	ltpFR2	23	7	FLASK	576	n/a	n/a	0	0	0
1419411	REC_WORD	wordpools/wasnorm_wordpool_576.txt	LTP346	ltpFR2	23	7	OUTLAW	989	n/a	n/a	0	0	0
1420678	REC_WORD	wordpools/wasnorm_wordpool_576.txt	LTP346	ltpFR2	23	7	ROBBER	1197	n/a	n/a	0	0	0
1465851	DISTRACTOR	n/a	LTP346	ltpFR2	23	8	n/a	n/a	n/a	n/a	0	0	0
1465851	START	n/a	LTP346	ltpFR2	23	n/a	n/a	n/a	12	n/a	n/a	n/a	n/a
1465868	PROB	n/a	LTP346	ltpFR2	23	n/a	n/a	n/a	12	17	6	6	5
1467351	PROB	n/a	LTP346	ltpFR2	23	n/a	n/a	n/a	12	9	3	4	2
1468567	PROB	n/a	LTP346	ltpFR2	23	n/a	n/a	n/a	12	7	1	1	5
1469650	PROB	n/a	LTP346	ltpFR2	23	n/a	n/a	n/a	12	7	1	3	3
1470815	PROB	n/a	LTP346	ltpFR2	23	n/a	n/a	n/a	12	22	6	8	8
1472416	PROB	n/a	LTP346	ltpFR2	23	n/a	n/a	n/a	12	12	8	3	1
1473449	PROB	n/a	LTP346	ltpFR2	23	n/a	n/a	n/a	12	16	5	3	8
1474730	PROB	n/a	LTP346	ltpFR2	23	n/a	n/a	n/a	12	11	3	3	5
1475846	PROB	n/a	LTP346	ltpFR2	23	n/a	n/a	n/a	12	20	3	9	8
1477729	PROB	n/a	LTP346	ltpFR2	23	n/a	n/a	n/a	12	13	7	2	2
1479379	PROB	n/a	LTP346	ltpFR2	23	n/a	n/a	n/a	12	14	2	6	6
1480728	PROB	n/a	LTP346	ltpFR2	23	n/a	n/a	n/a	12	10	4	2	4
1481760	PROB	n/a	LTP346	ltpFR2	23	n/a	n/a	n/a	12	9	1	3	5
1482910	PROB	n/a	LTP346	ltpFR2	23	n/a	n/a	n/a	12	11	9	1	1
1483809	PROB	n/a	LTP346	ltpFR2	23	n/a	n/a	n/a	12	20	7	9	4
1486243	PROB	n/a	LTP346	ltpFR2	23	n/a	n/a	n/a	12	15	9	4	4
1489850	STOP	n/a	LTP346	ltpFR2	23	n/a	n/a	n/a	12	n/a	n/a	n/a	n/a
1490706	WORD	wordpools/wasnorm_wordpool_576.txt	LTP346	ltpFR2	23	8	GAVEL	627	n/a	n/a	0	0	0
1493256	WORD	wordpools/wasnorm_wordpool_576.txt	LTP346	ltpFR2	23	8	SUSPECT	1415	n/a	n/a	0	0	0
1495954	WORD	wordpools/wasnorm_wordpool_576.txt	LTP346	ltpFR2	23	8	STAR	1373	n/a	n/a	0	0	0
1498686	WORD	wordpools/wasnorm_wordpool_576.txt	LTP346	ltpFR2	23	8	STOCKING	1383	n/a	n/a	0	0	0
1501403	WORD	wordpools/wasnorm_wordpool_576.txt	LTP346	ltpFR2	23	8	REINDEER	1181	n/a	n/a	0	0	0
1504000	WORD	wordpools/wasnorm_wordpool_576.txt	LTP346	ltpFR2	23	8	HANDBAG	684	n/a	n/a	0	0	0
1506617	WORD	wordpools/wasnorm_wordpool_576.txt	LTP346	ltpFR2	23	8	EAGLE	512	n/a	n/a	0	0	0
1509316	WORD	wordpools/wasnorm_wordpool_576.txt	LTP346	ltpFR2	23	8	TOILET	1475	n/a	n/a	0	0	0
1512113	WORD	wordpools/wasnorm_wordpool_576.txt	LTP346	ltpFR2	23	8	PISTON	1076	n/a	n/a	0	0	0
1514729	WORD	wordpools/wasnorm_wordpool_576.txt	LTP346	ltpFR2	23	8	WASHER	1592	n/a	n/a	0	0	0
1517412	WORD	wordpools/wasnorm_wordpool_576.txt	LTP346	ltpFR2	23	8	CATTLE	261	n/a	n/a	0	0	0
1520093	WORD	wordpools/wasnorm_wordpool_576.txt	LTP346	ltpFR2	23	8	BUREAU	199	n/a	n/a	0	0	0
1522725	WORD	wordpools/wasnorm_wordpool_576.txt	LTP346	ltpFR2	23	8	POCKET	1093	n/a	n/a	0	0	0
1525508	WORD	wordpools/wasnorm_wordpool_576.txt	LTP346	ltpFR2	23	8	BLOSSOM	138	n/a	n/a	0	0	0
1528240	WORD	wordpools/wasnorm_wordpool_576.txt	LTP346	ltpFR2	23	8	MEADOW	881	n/a	n/a	0	0	0
1530955	WORD	wordpools/wasnorm_wordpool_576.txt	LTP346	ltpFR2	23	8	CHICKEN	297	n/a	n/a	0	0	0
1533455	WORD	wordpools/wasnorm_wordpool_576.txt	LTP346	ltpFR2	23	8	BUG	187	n/a	n/a	0	0	0
1535986	WORD	wordpools/wasnorm_wordpool_576.txt	LTP346	ltpFR2	23	8	PORCH	1106	n/a	n/a	0	0	0
1538536	WORD	wordpools/wasnorm_wordpool_576.txt	LTP346	ltpFR2	23	8	SALESMAN	1225	n/a	n/a	0	0	0
1540967	WORD	wordpools/wasnorm_wordpool_576.txt	LTP346	ltpFR2	23	8	DESSERT	453	n/a	n/a	0	0	0
1543500	WORD	wordpools/wasnorm_wordpool_576.txt	LTP346	ltpFR2	23	8	CLIFF	322	n/a	n/a	0	0	0
1546215	WORD	wordpools/wasnorm_wordpool_576.txt	LTP346	ltpFR2	23	8	FAUCET	555	n/a	n/a	0	0	0
1548863	WORD	wordpools/wasnorm_wordpool_576.txt	LTP346	ltpFR2	23	8	ROBIN	1199	n/a	n/a	0	0	0
1551313	WORD	wordpools/wasnorm_wordpool_576.txt	LTP346	ltpFR2	23	8	THIMBLE	1458	n/a	n/a	0	0	0
1552928	START	n/a	LTP346	ltpFR2	23	n/a	n/a	n/a	13	n/a	n/a	n/a	n/a
1553741	DISTRACTOR	n/a	LTP346	ltpFR2	23	8	n/a	n/a	n/a	n/a	0	0	0
1553744	PROB	n/a	LTP346	ltpFR2	23	n/a	n/a	n/a	13	22	8	6	9
1555943	PROB	n/a	LTP346	ltpFR2	23	n/a	n/a	n/a	13	19	7	6	6
1559459	PROB	n/a	LTP346	ltpFR2	23	n/a	n/a	n/a	13	18	7	7	4
1562192	PROB	n/a	LTP346	ltpFR2	23	n/a	n/a	n/a	13	17	1	7	9
1563491	PROB	n/a	LTP346	ltpFR2	23	n/a	n/a	n/a	13	4	1	1	2
1564607	PROB	n/a	LTP346	ltpFR2	23	n/a	n/a	n/a	13	9	3	5	1
1566122	PROB	n/a	LTP346	ltpFR2	23	n/a	n/a	n/a	13	17	9	3	5
1567655	PROB	n/a	LTP346	ltpFR2	23	n/a	n/a	n/a	13	23	8	7	8
1569687	PROB	n/a	LTP346	ltpFR2	23	n/a	n/a	n/a	13	15	2	6	7
1571204	PROB	n/a	LTP346	ltpFR2	23	n/a	n/a	n/a	13	18	5	7	6
1573436	PROB	n/a	LTP346	ltpFR2	23	n/a	n/a	n/a	13	11	4	1	6
1574652	PROB	n/a	LTP346	ltpFR2	23	n/a	n/a	n/a	13	8	1	5	2
1575770	STOP	n/a	LTP346	ltpFR2	23	n/a	n/a	n/a	13	n/a	n/a	n/a	n/a
1578767	REC_START	n/a	LTP346	ltpFR2	23	8	n/a	n/a	n/a	n/a	0	0	0
1578892	REC_WORD	wordpools/wasnorm_wordpool_576.txt	LTP346	ltpFR2	23	8	ROBIN	1199	n/a	n/a	0	0	0
1579991	REC_WORD	wordpools/wasnorm_wordpool_576.txt	LTP346	ltpFR2	23	8	THIMBLE	1458	n/a	n/a	0	0	0
1580937	REC_WORD	wordpools/wasnorm_wordpool_576.txt	LTP346	ltpFR2	23	8	CLIFF	322	n/a	n/a	0	0	0
1582128	REC_WORD	wordpools/wasnorm_wordpool_576.txt	LTP346	ltpFR2	23	8	FAUCET	555	n/a	n/a	0	0	0
1585978	REC_WORD	wordpools/wasnorm_wordpool_576.txt	LTP346	ltpFR2	23	8	GAVEL	627	n/a	n/a	0	0	0
1588331	REC_WORD	wordpools/wasnorm_wordpool_576.txt	LTP346	ltpFR2	23	8	SUSPECT	1415	n/a	n/a	0	0	0
1589073	REC_WORD	wordpools/wasnorm_wordpool_576.txt	LTP346	ltpFR2	23	8	STAR	1373	n/a	n/a	0	0	0
1590862	REC_WORD	wordpools/wasnorm_wordpool_576.txt	LTP346	ltpFR2	23	8	REINDEER	1181	n/a	n/a	0	0	0
1591389	REC_WORD	wordpools/wasnorm_wordpool_576.txt	LTP346	ltpFR2	23	8	STOCKING	1383	n/a	n/a	0	0	0
1592109	REC_WORD	wordpools/wasnorm_wordpool_576.txt	LTP346	ltpFR2	23	8	HANDBAG	684	n/a	n/a	0	0	0
1594428	REC_WORD	wordpools/wasnorm_wordpool_576.txt	LTP346	ltpFR2	23	8	TOILET	1475	n/a	n/a	0	0	0
1595791	REC_WORD	wordpools/wasnorm_wordpool_576.txt	LTP346	ltpFR2	23	8	EAGLE	512	n/a	n/a	0	0	0
1616924	REC_WORD	wordpools/wasnorm_wordpool_576.txt	LTP346	ltpFR2	23	8	POCKET	1093	n/a	n/a	0	0	0
1618689	REC_WORD	wordpools/wasnorm_wordpool_576.txt	LTP346	ltpFR2	23	8	SALESMAN	1225	n/a	n/a	0	0	0
1619459	REC_WORD	wordpools/wasnorm_wordpool_576.txt	LTP346	ltpFR2	23	8	PORCH	1106	n/a	n/a	0	0	0
1620005	REC_WORD	wordpools/wasnorm_wordpool_576.txt	LTP346	ltpFR2	23	8	DESSERT	453	n/a	n/a	0	0	0
1627680	REC_WORD	wordpools/wasnorm_wordpool_576.txt	LTP346	ltpFR2	23	8	BUREAU	199	n/a	n/a	0	0	0
1628312	REC_WORD	wordpools/wasnorm_wordpool_576.txt	LTP346	ltpFR2	23	8	CATTLE	261	n/a	n/a	0	0	0
1628935	REC_WORD	wordpools/wasnorm_wordpool_576.txt	LTP346	ltpFR2	23	8	WASHER	1592	n/a	n/a	0	0	0
1655299	REST_REWET	n/a	LTP346	ltpFR2	23	8	n/a	n/a	n/a	n/a	0	0	0
1841248	DISTRACTOR	n/a	LTP346	ltpFR2	23	9	n/a	n/a	n/a	n/a	0	0	0
1841248	START	n/a	LTP346	ltpFR2	23	n/a	n/a	n/a	14	n/a	n/a	n/a	n/a
1841265	PROB	n/a	LTP346	ltpFR2	23	n/a	n/a	n/a	14	16	3	8	5
1843063	PROB	n/a	LTP346	ltpFR2	23	n/a	n/a	n/a	14	21	9	6	6
1844962	PROB	n/a	LTP346	ltpFR2	23	n/a	n/a	n/a	14	14	4	5	5
1846146	PROB	n/a	LTP346	ltpFR2	23	n/a	n/a	n/a	14	15	3	5	7
1847379	PROB	n/a	LTP346	ltpFR2	23	n/a	n/a	n/a	14	12	1	3	8
1848461	PROB	n/a	LTP346	ltpFR2	23	n/a	n/a	n/a	14	13	4	1	8
1849628	PROB	n/a	LTP346	ltpFR2	23	n/a	n/a	n/a	14	22	9	8	5
1851377	PROB	n/a	LTP346	ltpFR2	23	n/a	n/a	n/a	14	16	2	8	6
1852742	PROB	n/a	LTP346	ltpFR2	23	n/a	n/a	n/a	14	12	3	4	5
1854409	PROB	n/a	LTP346	ltpFR2	23	n/a	n/a	n/a	14	16	7	3	6
1856773	PROB	n/a	LTP346	ltpFR2	23	n/a	n/a	n/a	14	17	6	3	8
1859173	PROB	n/a	LTP346	ltpFR2	23	n/a	n/a	n/a	14	15	3	8	4
1860523	PROB	n/a	LTP346	ltpFR2	23	n/a	n/a	n/a	14	18	3	7	8
1862021	PROB	n/a	LTP346	ltpFR2	23	n/a	n/a	n/a	14	15	8	5	2
1863915	STOP	n/a	LTP346	ltpFR2	23	n/a	n/a	n/a	14	n/a	n/a	n/a	n/a
1866220	WORD	wordpools/wasnorm_wordpool_576.txt	LTP346	ltpFR2	23	9	HANGER	687	n/a	n/a	0	0	0
1868951	WORD	wordpools/wasnorm_wordpool_576.txt	LTP346	ltpFR2	23	9	SATURN	1236	n/a	n/a	0	0	0
1871733	WORD	wordpools/wasnorm_wordpool_576.txt	LTP346	ltpFR2	23	9	RUBY	1214	n/a	n/a	0	0	0
1874383	WORD	wordpools/wasnorm_wordpool_576.txt	LTP346	ltpFR2	23	9	TOOTHBRUSH	1482	n/a	n/a	0	0	0
1876964	WORD	wordpools/wasnorm_wordpool_576.txt	LTP346	ltpFR2	23	9	BIKE	125	n/a	n/a	0	0	0
1879464	WORD	wordpools/wasnorm_wordpool_576.txt	LTP346	ltpFR2	23	9	GARAGE	621	n/a	n/a	0	0	0
1881929	WORD	wordpools/wasnorm_wordpool_576.txt	LTP346	ltpFR2	23	9	WINDSHIELD	1612	n/a	n/a	0	0	0
1884761	WORD	wordpools/wasnorm_wordpool_576.txt	LTP346	ltpFR2	23	9	PEBBLE	1035	n/a	n/a	0	0	0
1887410	WORD	wordpools/wasnorm_wordpool_576.txt	LTP346	ltpFR2	23	9	TOURIST	1488	n/a	n/a	0	0	0
1889842	WORD	wordpools/wasnorm_wordpool_576.txt	LTP346	ltpFR2	23	9	CAPTIVE	240	n/a	n/a	0	0	0
1892525	WORD	wordpools/wasnorm_wordpool_576.txt	LTP346	ltpFR2	23	9	JACKET	747	n/a	n/a	0	0	0
1895340	WORD	wordpools/wasnorm_wordpool_576.txt	LTP346	ltpFR2	23	9	CHEMIST	292	n/a	n/a	0	0	0
1897988	WORD	wordpools/wasnorm_wordpool_576.txt	LTP346	ltpFR2	23	9	TIMBER	1469	n/a	n/a	0	0	0
1900538	WORD	wordpools/wasnorm_wordpool_576.txt	LTP346	ltpFR2	23	9	MAJOR	859	n/a	n/a	0	0	0
1903287	WORD	wordpools/wasnorm_wordpool_576.txt	LTP346	ltpFR2	23	9	SERGEANT	1269	n/a	n/a	0	0	0
1905934	WORD	wordpools/wasnorm_wordpool_576.txt	LTP346	ltpFR2	23	9	DRIVEWAY	500	n/a	n/a	0	0	0
1908617	WORD	wordpools/wasnorm_wordpool_576.txt	LTP346	ltpFR2	23	9	BLANKET	135	n/a	n/a	0	0	0
1911383	WORD	wordpools/wasnorm_wordpool_576.txt	LTP346	ltpFR2	23	9	FLANNEL	574	n/a	n/a	0	0	0
1914198	WORD	wordpools/wasnorm_wordpool_576.txt	LTP346	ltpFR2	23	9	WHISKERS	1605	n/a	n/a	0	0	0
1917013	WORD	wordpools/wasnorm_wordpool_576.txt	LTP346	ltpFR2	23	9	POPCORN	1104	n/a	n/a	0	0	0
1919828	WORD	wordpools/wasnorm_wordpool_576.txt	LTP346	ltpFR2	23	9	LETTER	813	n/a	n/a	0	0	0
1922511	WORD	wordpools/wasnorm_wordpool_576.txt	LTP346	ltpFR2	23	9	NEWSSTAND	949	n/a	n/a	0	0	0
1925126	WORD	wordpools/wasnorm_wordpool_576.txt	LTP346	ltpFR2	23	9	ACORN	3	n/a	n/a	0	0	0
1927708	WORD	wordpools/wasnorm_wordpool_576.txt	LTP346	ltpFR2	23	9	DONKEY	484	n/a	n/a	0	0	0
1929325	START	n/a	LTP346	ltpFR2	23	n/a	n/a	n/a	15	n/a	n/a	n/a	n/a
1930161	DISTRACTOR	n/a	LTP346	ltpFR2	23	9	n/a	n/a	n/a	n/a	0	0	0
1930174	PROB	n/a	LTP346	ltpFR2	23	n/a	n/a	n/a	15	14	6	7	1
1933089	PROB	n/a	LTP346	ltpFR2	23	n/a	n/a	n/a	15	18	4	8	6
1942018	PROB	n/a	LTP346	ltpFR2	23	n/a	n/a	n/a	15	17	2	7	8
1945116	PROB	n/a	LTP346	ltpFR2	23	n/a	n/a	n/a	15	20	5	7	8
1948965	PROB	n/a	LTP346	ltpFR2	23	n/a	n/a	n/a	15	14	1	6	7
1953324	STOP	n/a	LTP346	ltpFR2	23	n/a	n/a	n/a	15	n/a	n/a	n/a	n/a
1955097	REC_START	n/a	LTP346	ltpFR2	23	9	n/a	n/a	n/a	n/a	0	0	0
1955346	REC_WORD	wordpools/wasnorm_wordpool_576.txt	LTP346	ltpFR2	23	9	POPCORN	1104	n/a	n/a	0	0	0
1956085	REC_WORD	wordpools/wasnorm_wordpool_576.txt	LTP346	ltpFR2	23	9	LETTER	813	n/a	n/a	0	0	0
1957195	REC_WORD	wordpools/wasnorm_wordpool_576.txt	LTP346	ltpFR2	23	9	NEWSSTAND	949	n/a	n/a	0	0	0
1958061	REC_WORD	wordpools/wasnorm_wordpool_576.txt	LTP346	ltpFR2	23	9	ACORN	3	n/a	n/a	0	0	0
1958768	REC_WORD	wordpools/wasnorm_wordpool_576.txt	LTP346	ltpFR2	23	9	DONKEY	484	n/a	n/a	0	0	0
1961186	REC_WORD	wordpools/wasnorm_wordpool_576.txt	LTP346	ltpFR2	23	9	HANGER	687	n/a	n/a	0	0	0
1962038	REC_WORD	wordpools/wasnorm_wordpool_576.txt	LTP346	ltpFR2	23	9	SATURN	1236	n/a	n/a	0	0	0
1963136	REC_WORD	wordpools/wasnorm_wordpool_576.txt	LTP346	ltpFR2	23	9	RUBY	1214	n/a	n/a	0	0	0
1968149	REC_WORD	wordpools/wasnorm_wordpool_576.txt	LTP346	ltpFR2	23	9	GARAGE	621	n/a	n/a	0	0	0
1968939	REC_WORD	wordpools/wasnorm_wordpool_576.txt	LTP346	ltpFR2	23	9	BIKE	125	n/a	n/a	0	0	0
1969543	REC_WORD	wordpools/wasnorm_wordpool_576.txt	LTP346	ltpFR2	23	9	WINDSHIELD	1612	n/a	n/a	0	0	0
1970448	REC_WORD	wordpools/wasnorm_wordpool_576.txt	LTP346	ltpFR2	23	9	TOOTHBRUSH	1482	n/a	n/a	0	0	0
1978578	REC_WORD	wordpools/wasnorm_wordpool_576.txt	LTP346	ltpFR2	23	9	MAJOR	859	n/a	n/a	0	0	0
1979173	REC_WORD	wordpools/wasnorm_wordpool_576.txt	LTP346	ltpFR2	23	9	SERGEANT	1269	n/a	n/a	0	0	0
1980161	REC_WORD	wordpools/wasnorm_wordpool_576.txt	LTP346	ltpFR2	23	9	DRIVEWAY	500	n/a	n/a	0	0	0
1982941	REC_WORD	wordpools/wasnorm_wordpool_576.txt	LTP346	ltpFR2	23	9	PEBBLE	1035	n/a	n/a	0	0	0
1983477	REC_WORD	wordpools/wasnorm_wordpool_576.txt	LTP346	ltpFR2	23	9	TOURIST	1488	n/a	n/a	0	0	0
1986625	REC_WORD	wordpools/wasnorm_wordpool_576.txt	LTP346	ltpFR2	23	9	CHEMIST	292	n/a	n/a	0	0	0
1988039	REC_WORD	wordpools/wasnorm_wordpool_576.txt	LTP346	ltpFR2	23	9	JACKET	747	n/a	n/a	0	0	0
1988839	REC_WORD	wordpools/wasnorm_wordpool_576.txt	LTP346	ltpFR2	23	9	CAPTIVE	240	n/a	n/a	0	0	0
1993452	REC_WORD	wordpools/wasnorm_wordpool_576.txt	LTP346	ltpFR2	23	9	BLANKET	135	n/a	n/a	0	0	0
1996582	REC_WORD	wordpools/wasnorm_wordpool_576.txt	LTP346	ltpFR2	23	9	FLANNEL	574	n/a	n/a	0	0	0
1997591	REC_WORD	wordpools/wasnorm_wordpool_576.txt	LTP346	ltpFR2	23	9	WHISKERS	1605	n/a	n/a	0	0	0
2000027	REC_WORD	wordpools/wasnorm_wordpool_576.txt	LTP346	ltpFR2	23	9	TIMBER	1469	n/a	n/a	0	0	0
2045522	DISTRACTOR	n/a	LTP346	ltpFR2	23	10	n/a	n/a	n/a	n/a	0	0	0
2045522	START	n/a	LTP346	ltpFR2	23	n/a	n/a	n/a	16	n/a	n/a	n/a	n/a
2045539	PROB	n/a	LTP346	ltpFR2	23	n/a	n/a	n/a	16	7	1	2	4
2047020	PROB	n/a	LTP346	ltpFR2	23	n/a	n/a	n/a	16	11	1	5	5
2048070	PROB	n/a	LTP346	ltpFR2	23	n/a	n/a	n/a	16	11	1	1	9
2049019	PROB	n/a	LTP346	ltpFR2	23	n/a	n/a	n/a	16	12	6	5	1
2050102	PROB	n/a	LTP346	ltpFR2	23	n/a	n/a	n/a	16	19	6	4	9
2051519	PROB	n/a	LTP346	ltpFR2	23	n/a	n/a	n/a	16	14	3	4	7
2052768	PROB	n/a	LTP346	ltpFR2	23	n/a	n/a	n/a	16	185	1	9	8
2053967	PROB	n/a	LTP346	ltpFR2	23	n/a	n/a	n/a	16	22	6	7	9
2056716	PROB	n/a	LTP346	ltpFR2	23	n/a	n/a	n/a	16	14	2	8	4
2058566	PROB	n/a	LTP346	ltpFR2	23	n/a	n/a	n/a	16	20	9	6	5
2060714	PROB	n/a	LTP346	ltpFR2	23	n/a	n/a	n/a	16	16	8	4	4
2062348	PROB	n/a	LTP346	ltpFR2	23	n/a	n/a	n/a	16	17	9	2	6
2063514	PROB	n/a	LTP346	ltpFR2	23	n/a	n/a	n/a	16	21	8	9	4
2064712	PROB	n/a	LTP346	ltpFR2	23	n/a	n/a	n/a	16	11	5	2	4
2065862	PROB	n/a	LTP346	ltpFR2	23	n/a	n/a	n/a	16	8	2	1	5
2067078	PROB	n/a	LTP346	ltpFR2	23	n/a	n/a	n/a	16	16	9	1	6
2068162	STOP	n/a	LTP346	ltpFR2	23	n/a	n/a	n/a	16	n/a	n/a	n/a	n/a
2070344	WORD	wordpools/wasnorm_wordpool_576.txt	LTP346	ltpFR2	23	10	WATER	1594	n/a	n/a	0	0	0
2072875	WORD	wordpools/wasnorm_wordpool_576.txt	LTP346	ltpFR2	23	10	WITNESS	1618	n/a	n/a	0	0	0
2075358	WORD	wordpools/wasnorm_wordpool_576.txt	LTP346	ltpFR2	23	10	BRANCH	168	n/a	n/a	0	0	0
2078174	WORD	wordpools/wasnorm_wordpool_576.txt	LTP346	ltpFR2	23	10	FOREST	593	n/a	n/a	0	0	0
2080805	WORD	wordpools/wasnorm_wordpool_576.txt	LTP346	ltpFR2	23	10	BUTLER	204	n/a	n/a	0	0	0
2083455	WORD	wordpools/wasnorm_wordpool_576.txt	LTP346	ltpFR2	23	10	BASEBALL	93	n/a	n/a	0	0	0
2085886	WORD	wordpools/wasnorm_wordpool_576.txt	LTP346	ltpFR2	23	10	BROOK	177	n/a	n/a	0	0	0
2088386	WORD	wordpools/wasnorm_wordpool_576.txt	LTP346	ltpFR2	23	10	NEUTRON	947	n/a	n/a	0	0	0
2090934	WORD	wordpools/wasnorm_wordpool_576.txt	LTP346	ltpFR2	23	10	TRUCK	1512	n/a	n/a	0	0	0
2093666	WORD	wordpools/wasnorm_wordpool_576.txt	LTP346	ltpFR2	23	10	EUROPE	541	n/a	n/a	0	0	0
2096399	WORD	wordpools/wasnorm_wordpool_576.txt	LTP346	ltpFR2	23	10	FIELD	562	n/a	n/a	0	0	0
2098830	WORD	wordpools/wasnorm_wordpool_576.txt	LTP346	ltpFR2	23	10	COLESLAW	344	n/a	n/a	0	0	0
2101430	WORD	wordpools/wasnorm_wordpool_576.txt	LTP346	ltpFR2	23	10	COUNTRY	388	n/a	n/a	0	0	0
2104229	WORD	wordpools/wasnorm_wordpool_576.txt	LTP346	ltpFR2	23	10	EYELASH	546	n/a	n/a	0	0	0
2107026	WORD	wordpools/wasnorm_wordpool_576.txt	LTP346	ltpFR2	23	10	STATUE	1374	n/a	n/a	0	0	0
2109709	WORD	wordpools/wasnorm_wordpool_576.txt	LTP346	ltpFR2	23	10	KIDNEY	776	n/a	n/a	0	0	0
2112525	WORD	wordpools/wasnorm_wordpool_576.txt	LTP346	ltpFR2	23	10	KIWI	781	n/a	n/a	0	0	0
2115307	WORD	wordpools/wasnorm_wordpool_576.txt	LTP346	ltpFR2	23	10	MARKET	871	n/a	n/a	0	0	0
2117838	WORD	wordpools/wasnorm_wordpool_576.txt	LTP346	ltpFR2	23	10	SUPPER	1411	n/a	n/a	0	0	0
2120371	WORD	wordpools/wasnorm_wordpool_576.txt	LTP346	ltpFR2	23	10	THRONE	1461	n/a	n/a	0	0	0
2123119	WORD	wordpools/wasnorm_wordpool_576.txt	LTP346	ltpFR2	23	10	INFANT	737	n/a	n/a	0	0	0
2125569	WORD	wordpools/wasnorm_wordpool_576.txt	LTP346	ltpFR2	23	10	WRITER	1627	n/a	n/a	0	0	0
2128351	WORD	wordpools/wasnorm_wordpool_576.txt	LTP346	ltpFR2	23	10	STAPLER	1372	n/a	n/a	0	0	0
2130916	WORD	wordpools/wasnorm_wordpool_576.txt	LTP346	ltpFR2	23	10	CRIB	407	n/a	n/a	0	0	0
2132533	START	n/a	LTP346	ltpFR2	23	n/a	n/a	n/a	17	n/a	n/a	n/a	n/a
2133575	DISTRACTOR	n/a	LTP346	ltpFR2	23	10	n/a	n/a	n/a	n/a	0	0	0
2133582	PROB	n/a	LTP346	ltpFR2	23	n/a	n/a	n/a	17	17	4	5	8
2137746	PROB	n/a	LTP346	ltpFR2	23	n/a	n/a	n/a	17	26	9	8	9
2139313	PROB	n/a	LTP346	ltpFR2	23	n/a	n/a	n/a	17	15	6	7	2
2140412	PROB	n/a	LTP346	ltpFR2	23	n/a	n/a	n/a	17	16	5	5	6
2141462	PROB	n/a	LTP346	ltpFR2	23	n/a	n/a	n/a	17	18	1	9	8
2142545	PROB	n/a	LTP346	ltpFR2	23	n/a	n/a	n/a	17	18	7	7	4
2143860	PROB	n/a	LTP346	ltpFR2	23	n/a	n/a	n/a	17	16	2	5	9
2146125	PROB	n/a	LTP346	ltpFR2	23	n/a	n/a	n/a	17	20	8	5	7
2147675	PROB	n/a	LTP346	ltpFR2	23	n/a	n/a	n/a	17	11	1	2	8
2150707	PROB	n/a	LTP346	ltpFR2	23	n/a	n/a	n/a	17	14	1	6	7
2151806	PROB	n/a	LTP346	ltpFR2	23	n/a	n/a	n/a	17	18	1	9	8
2152939	PROB	n/a	LTP346	ltpFR2	23	n/a	n/a	n/a	17	14	5	2	7
2154855	PROB	n/a	LTP346	ltpFR2	23	n/a	n/a	n/a	17	24	8	7	9
2155956	STOP	n/a	LTP346	ltpFR2	23	n/a	n/a	n/a	17	n/a	n/a	n/a	n/a
2158305	REC_START	n/a	LTP346	ltpFR2	23	10	n/a	n/a	n/a	n/a	0	0	0
2158922	REC_WORD	wordpools/wasnorm_wordpool_576.txt	LTP346	ltpFR2	23	10	THRONE	1461	n/a	n/a	0	0	0
2159625	REC_WORD	wordpools/wasnorm_wordpool_576.txt	LTP346	ltpFR2	23	10	INFANT	737	n/a	n/a	0	0	0
2160250	REC_WORD	wordpools/wasnorm_wordpool_576.txt	LTP346	ltpFR2	23	10	CRIB	407	n/a	n/a	0	0	0
2161028	REC_WORD	wordpools/wasnorm_wordpool_576.txt	LTP346	ltpFR2	23	10	WRITER	1627	n/a	n/a	0	0	0
2161507	REC_WORD	wordpools/wasnorm_wordpool_576.txt	LTP346	ltpFR2	23	10	STAPLER	1372	n/a	n/a	0	0	0
2163734	REC_WORD	wordpools/wasnorm_wordpool_576.txt	LTP346	ltpFR2	23	10	WITNESS	1618	n/a	n/a	0	0	0
2165097	REC_WORD	wordpools/wasnorm_wordpool_576.txt	LTP346	ltpFR2	23	10	WATER	1594	n/a	n/a	0	0	0
2166294	REC_WORD	wordpools/wasnorm_wordpool_576.txt	LTP346	ltpFR2	23	10	BUTLER	204	n/a	n/a	0	0	0
2172114	REC_WORD	wordpools/wasnorm_wordpool_576.txt	LTP346	ltpFR2	23	10	BROOK	177	n/a	n/a	0	0	0
2172750	REC_WORD	wordpools/wasnorm_wordpool_576.txt	LTP346	ltpFR2	23	10	BASEBALL	93	n/a	n/a	0	0	0
2173314	REC_WORD	wordpools/wasnorm_wordpool_576.txt	LTP346	ltpFR2	23	10	FIELD	562	n/a	n/a	0	0	0
2176311	REC_WORD	wordpools/wasnorm_wordpool_576.txt	LTP346	ltpFR2	23	10	TRUCK	1512	n/a	n/a	0	0	0
2180370	REC_WORD	wordpools/wasnorm_wordpool_576.txt	LTP346	ltpFR2	23	10	EUROPE	541	n/a	n/a	0	0	0
2181869	REC_WORD	wordpools/wasnorm_wordpool_576.txt	LTP346	ltpFR2	23	10	COUNTRY	388	n/a	n/a	0	0	0
2182461	REC_WORD	wordpools/wasnorm_wordpool_576.txt	LTP346	ltpFR2	23	10	COLESLAW	344	n/a	n/a	0	0	0
2184558	REC_WORD	wordpools/wasnorm_wordpool_576.txt	LTP346	ltpFR2	23	10	STATUE	1374	n/a	n/a	0	0	0
2185312	REC_WORD	wordpools/wasnorm_wordpool_576.txt	LTP346	ltpFR2	23	10	EYELASH	546	n/a	n/a	0	0	0
2186005	REC_WORD	wordpools/wasnorm_wordpool_576.txt	LTP346	ltpFR2	23	10	KIDNEY	776	n/a	n/a	0	0	0
2187819	REC_WORD	wordpools/wasnorm_wordpool_576.txt	LTP346	ltpFR2	23	10	KIWI	781	n/a	n/a	0	0	0
2188287	REC_WORD	wordpools/wasnorm_wordpool_576.txt	LTP346	ltpFR2	23	10	MARKET	871	n/a	n/a	0	0	0
2189008	REC_WORD	wordpools/wasnorm_wordpool_576.txt	LTP346	ltpFR2	23	10	SUPPER	1411	n/a	n/a	0	0	0
2208957	REC_WORD	wordpools/wasnorm_wordpool_576.txt	LTP346	ltpFR2	23	10	NEUTRON	947	n/a	n/a	0	0	0
2248762	WORD	wordpools/wasnorm_wordpool_576.txt	LTP346	ltpFR2	23	11	SHERIFF	1284	n/a	n/a	0	0	0
2251312	WORD	wordpools/wasnorm_wordpool_576.txt	LTP346	ltpFR2	23	11	ANCHOR	21	n/a	n/a	0	0	0
2253860	WORD	wordpools/wasnorm_wordpool_576.txt	LTP346	ltpFR2	23	11	SPRINKLE	1359	n/a	n/a	0	0	0
2256310	WORD	wordpools/wasnorm_wordpool_576.txt	LTP346	ltpFR2	23	11	BATHTUB	100	n/a	n/a	0	0	0
2259074	WORD	wordpools/wasnorm_wordpool_576.txt	LTP346	ltpFR2	23	11	RAISIN	1163	n/a	n/a	0	0	0
2261689	WORD	wordpools/wasnorm_wordpool_576.txt	LTP346	ltpFR2	23	11	DUNGEON	507	n/a	n/a	0	0	0
2264206	WORD	wordpools/wasnorm_wordpool_576.txt	LTP346	ltpFR2	23	11	SPINACH	1352	n/a	n/a	0	0	0
2266954	WORD	wordpools/wasnorm_wordpool_576.txt	LTP346	ltpFR2	23	11	COCKTAIL	338	n/a	n/a	0	0	0
2269669	WORD	wordpools/wasnorm_wordpool_576.txt	LTP346	ltpFR2	23	11	FOUNTAIN	597	n/a	n/a	0	0	0
2272302	WORD	wordpools/wasnorm_wordpool_576.txt	LTP346	ltpFR2	23	11	MONGOOSE	909	n/a	n/a	0	0	0
2275100	WORD	wordpools/wasnorm_wordpool_576.txt	LTP346	ltpFR2	23	11	MANSION	864	n/a	n/a	0	0	0
2277650	WORD	wordpools/wasnorm_wordpool_576.txt	LTP346	ltpFR2	23	11	WAREHOUSE	1588	n/a	n/a	0	0	0
2280165	WORD	wordpools/wasnorm_wordpool_576.txt	LTP346	ltpFR2	23	11	PUMPKIN	1142	n/a	n/a	0	0	0
2282648	WORD	wordpools/wasnorm_wordpool_576.txt	LTP346	ltpFR2	23	11	PLUM	1090	n/a	n/a	0	0	0
2285396	WORD	wordpools/wasnorm_wordpool_576.txt	LTP346	ltpFR2	23	11	MOP	916	n/a	n/a	0	0	0
2287878	WORD	wordpools/wasnorm_wordpool_576.txt	LTP346	ltpFR2	23	11	GARBAGE	622	n/a	n/a	0	0	0
2290477	WORD	wordpools/wasnorm_wordpool_576.txt	LTP346	ltpFR2	23	11	REPTILE	1185	n/a	n/a	0	0	0
2293276	WORD	wordpools/wasnorm_wordpool_576.txt	LTP346	ltpFR2	23	11	CARRIAGE	248	n/a	n/a	0	0	0
2295841	WORD	wordpools/wasnorm_wordpool_576.txt	LTP346	ltpFR2	23	11	SAILOR	1223	n/a	n/a	0	0	0
2298607	WORD	wordpools/wasnorm_wordpool_576.txt	LTP346	ltpFR2	23	11	DRILL	497	n/a	n/a	0	0	0
2301189	WORD	wordpools/wasnorm_wordpool_576.txt	LTP346	ltpFR2	23	11	VAMPIRE	1547	n/a	n/a	0	0	0
2303804	WORD	wordpools/wasnorm_wordpool_576.txt	LTP346	ltpFR2	23	11	ORGAN	984	n/a	n/a	0	0	0
2306254	WORD	wordpools/wasnorm_wordpool_576.txt	LTP346	ltpFR2	23	11	STAPLE	1371	n/a	n/a	0	0	0
2308718	WORD	wordpools/wasnorm_wordpool_576.txt	LTP346	ltpFR2	23	11	CHAMBER	277	n/a	n/a	0	0	0
2310335	START	n/a	LTP346	ltpFR2	23	n/a	n/a	n/a	18	n/a	n/a	n/a	n/a
2311342	DISTRACTOR	n/a	LTP346	ltpFR2	23	11	n/a	n/a	n/a	n/a	0	0	0
2311351	PROB	n/a	LTP346	ltpFR2	23	n/a	n/a	n/a	18	17	7	7	3
2312916	PROB	n/a	LTP346	ltpFR2	23	n/a	n/a	n/a	18	20	9	9	2
2314250	PROB	n/a	LTP346	ltpFR2	23	n/a	n/a	n/a	18	7	2	2	3
2316031	PROB	n/a	LTP346	ltpFR2	23	n/a	n/a	n/a	18	10	1	6	3
2318331	PROB	n/a	LTP346	ltpFR2	23	n/a	n/a	n/a	18	14	8	1	5
2322678	PROB	n/a	LTP346	ltpFR2	23	n/a	n/a	n/a	18	17	3	6	8
2324129	PROB	n/a	LTP346	ltpFR2	23	n/a	n/a	n/a	18	13	3	4	6
2325428	PROB	n/a	LTP346	ltpFR2	23	n/a	n/a	n/a	18	14	8	3	3
2326710	PROB	n/a	LTP346	ltpFR2	23	n/a	n/a	n/a	18	18	8	3	7
2328709	PROB	n/a	LTP346	ltpFR2	23	n/a	n/a	n/a	18	19	6	8	5
2331991	PROB	n/a	LTP346	ltpFR2	23	n/a	n/a	n/a	18	24	9	7	8
2333057	STOP	n/a	LTP346	ltpFR2	23	n/a	n/a	n/a	18	n/a	n/a	n/a	n/a
2336207	REC_START	n/a	LTP346	ltpFR2	23	11	n/a	n/a	n/a	n/a	0	0	0
2336553	REC_WORD	wordpools/wasnorm_wordpool_576.txt	LTP346	ltpFR2	23	11	STAPLE	1371	n/a	n/a	0	0	0
2337476	REC_WORD	wordpools/wasnorm_wordpool_576.txt	LTP346	ltpFR2	23	11	CHAMBER	277	n/a	n/a	0	0	0
2338131	REC_WORD	wordpools/wasnorm_wordpool_576.txt	LTP346	ltpFR2	23	11	VAMPIRE	1547	n/a	n/a	0	0	0
2339011	REC_WORD	wordpools/wasnorm_wordpool_576.txt	LTP346	ltpFR2	23	11	ORGAN	984	n/a	n/a	0	0	0
2340070	REC_WORD	wordpools/wasnorm_wordpool_576.txt	LTP346	ltpFR2	23	11	SHERIFF	1284	n/a	n/a	0	0	0
2341883	REC_WORD	wordpools/wasnorm_wordpool_576.txt	LTP346	ltpFR2	23	11	ANCHOR	21	n/a	n/a	0	0	0
2343076	REC_WORD	wordpools/wasnorm_wordpool_576.txt	LTP346	ltpFR2	23	11	SPRINKLE	1359	n/a	n/a	0	0	0
2343863	REC_WORD	wordpools/wasnorm_wordpool_576.txt	LTP346	ltpFR2	23	11	RAISIN	1163	n/a	n/a	0	0	0
2344472	REC_WORD	wordpools/wasnorm_wordpool_576.txt	LTP346	ltpFR2	23	11	BATHTUB	100	n/a	n/a	0	0	0
2346050	REC_WORD	wordpools/wasnorm_wordpool_576.txt	LTP346	ltpFR2	23	11	DUNGEON	507	n/a	n/a	0	0	0
2346584	REC_WORD	wordpools/wasnorm_wordpool_576.txt	LTP346	ltpFR2	23	11	SPINACH	1352	n/a	n/a	0	0	0
2347377	REC_WORD	wordpools/wasnorm_wordpool_576.txt	LTP346	ltpFR2	23	11	COCKTAIL	338	n/a	n/a	0	0	0
2348662	REC_WORD	wordpools/wasnorm_wordpool_576.txt	LTP346	ltpFR2	23	11	FOUNTAIN	597	n/a	n/a	0	0	0
2349620	REC_WORD	wordpools/wasnorm_wordpool_576.txt	LTP346	ltpFR2	23	11	MONGOOSE	909	n/a	n/a	0	0	0
2350358	REC_WORD	wordpools/wasnorm_wordpool_576.txt	LTP346	ltpFR2	23	11	MANSION	864	n/a	n/a	0	0	0
2351037	REC_WORD	wordpools/wasnorm_wordpool_576.txt	LTP346	ltpFR2	23	11	WAREHOUSE	1588	n/a	n/a	0	0	0
2360637	REC_WORD	wordpools/wasnorm_wordpool_576.txt	LTP346	ltpFR2	23	11	MOP	916	n/a	n/a	0	0	0
2361469	REC_WORD	wordpools/wasnorm_wordpool_576.txt	LTP346	ltpFR2	23	11	GARBAGE	622	n/a	n/a	0	0	0
2426649	DISTRACTOR	n/a	LTP346	ltpFR2	23	12	n/a	n/a	n/a	n/a	0	0	0
2426649	START	n/a	LTP346	ltpFR2	23	n/a	n/a	n/a	19	n/a	n/a	n/a	n/a
2426665	PROB	n/a	LTP346	ltpFR2	23	n/a	n/a	n/a	19	19	9	8	2
2428114	PROB	n/a	LTP346	ltpFR2	23	n/a	n/a	n/a	19	13	4	5	4
2430729	PROB	n/a	LTP346	ltpFR2	23	n/a	n/a	n/a	19	10	2	3	5
2433579	PROB	n/a	LTP346	ltpFR2	23	n/a	n/a	n/a	19	16	5	7	4
2436145	PROB	n/a	LTP346	ltpFR2	23	n/a	n/a	n/a	19	19	5	7	7
2437511	PROB	n/a	LTP346	ltpFR2	23	n/a	n/a	n/a	19	15	5	4	6
2439360	PROB	n/a	LTP346	ltpFR2	23	n/a	n/a	n/a	19	20	5	7	8
2440692	PROB	n/a	LTP346	ltpFR2	23	n/a	n/a	n/a	19	16	8	5	3
2442508	PROB	n/a	LTP346	ltpFR2	23	n/a	n/a	n/a	19	17	8	8	1
2443707	PROB	n/a	LTP346	ltpFR2	23	n/a	n/a	n/a	19	16	5	6	5
2444823	PROB	n/a	LTP346	ltpFR2	23	n/a	n/a	n/a	19	17	9	1	7
2446223	PROB	n/a	LTP346	ltpFR2	23	n/a	n/a	n/a	19	17	7	2	8
2447573	PROB	n/a	LTP346	ltpFR2	23	n/a	n/a	n/a	19	20	8	6	6
2449222	STOP	n/a	LTP346	ltpFR2	23	n/a	n/a	n/a	19	n/a	n/a	n/a	n/a
2451638	WORD	wordpools/wasnorm_wordpool_576.txt	LTP346	ltpFR2	23	12	SNOB	1335	n/a	n/a	0	0	0
2454303	WORD	wordpools/wasnorm_wordpool_576.txt	LTP346	ltpFR2	23	12	SUITE	1404	n/a	n/a	0	0	0
2457051	WORD	wordpools/wasnorm_wordpool_576.txt	LTP346	ltpFR2	23	12	SKUNK	1321	n/a	n/a	0	0	0
2459584	WORD	wordpools/wasnorm_wordpool_576.txt	LTP346	ltpFR2	23	12	STAMP	1370	n/a	n/a	0	0	0
2462266	WORD	wordpools/wasnorm_wordpool_576.txt	LTP346	ltpFR2	23	12	BOX	159	n/a	n/a	0	0	0
2464864	WORD	wordpools/wasnorm_wordpool_576.txt	LTP346	ltpFR2	23	12	CLERK	321	n/a	n/a	0	0	0
2467414	WORD	wordpools/wasnorm_wordpool_576.txt	LTP346	ltpFR2	23	12	OCEAN	970	n/a	n/a	0	0	0
2470062	WORD	wordpools/wasnorm_wordpool_576.txt	LTP346	ltpFR2	23	12	CHAUFFEUR	283	n/a	n/a	0	0	0
2472710	WORD	wordpools/wasnorm_wordpool_576.txt	LTP346	ltpFR2	23	12	DASHBOARD	441	n/a	n/a	0	0	0
2475327	WORD	wordpools/wasnorm_wordpool_576.txt	LTP346	ltpFR2	23	12	SCRIBBLE	1256	n/a	n/a	0	0	0
2478058	WORD	wordpools/wasnorm_wordpool_576.txt	LTP346	ltpFR2	23	12	JUNGLE	764	n/a	n/a	0	0	0
2480873	WORD	wordpools/wasnorm_wordpool_576.txt	LTP346	ltpFR2	23	12	WALNUT	1584	n/a	n/a	0	0	0
2483705	WORD	wordpools/wasnorm_wordpool_576.txt	LTP346	ltpFR2	23	12	PACKAGE	997	n/a	n/a	0	0	0
2486422	WORD	wordpools/wasnorm_wordpool_576.txt	LTP346	ltpFR2	23	12	CRICKET	408	n/a	n/a	0	0	0
2489171	WORD	wordpools/wasnorm_wordpool_576.txt	LTP346	ltpFR2	23	12	COCOON	339	n/a	n/a	0	0	0
2491752	WORD	wordpools/wasnorm_wordpool_576.txt	LTP346	ltpFR2	23	12	CHIPMUNK	304	n/a	n/a	0	0	0
2494352	WORD	wordpools/wasnorm_wordpool_576.txt	LTP346	ltpFR2	23	12	FLUTE	585	n/a	n/a	0	0	0
2496866	WORD	wordpools/wasnorm_wordpool_576.txt	LTP346	ltpFR2	23	12	CHECKERS	285	n/a	n/a	0	0	0
2499349	WORD	wordpools/wasnorm_wordpool_576.txt	LTP346	ltpFR2	23	12	GIFT	635	n/a	n/a	0	0	0
2502097	WORD	wordpools/wasnorm_wordpool_576.txt	LTP346	ltpFR2	23	12	CONTRACT	368	n/a	n/a	0	0	0
2504813	WORD	wordpools/wasnorm_wordpool_576.txt	LTP346	ltpFR2	23	12	GRAPE	654	n/a	n/a	0	0	0
2507246	WORD	wordpools/wasnorm_wordpool_576.txt	LTP346	ltpFR2	23	12	CRADLE	399	n/a	n/a	0	0	0
2509727	WORD	wordpools/wasnorm_wordpool_576.txt	LTP346	ltpFR2	23	12	ROBOT	1200	n/a	n/a	0	0	0
2512393	WORD	wordpools/wasnorm_wordpool_576.txt	LTP346	ltpFR2	23	12	SPIDER	1351	n/a	n/a	0	0	0
2514008	START	n/a	LTP346	ltpFR2	23	n/a	n/a	n/a	20	n/a	n/a	n/a	n/a
2515093	DISTRACTOR	n/a	LTP346	ltpFR2	23	12	n/a	n/a	n/a	n/a	0	0	0
2515108	PROB	n/a	LTP346	ltpFR2	23	n/a	n/a	n/a	20	15	4	4	7
2516807	PROB	n/a	LTP346	ltpFR2	23	n/a	n/a	n/a	20	20	8	5	7
2518090	PROB	n/a	LTP346	ltpFR2	23	n/a	n/a	n/a	20	18	7	3	8
2520440	PROB	n/a	LTP346	ltpFR2	23	n/a	n/a	n/a	20	22	9	5	8
2522389	PROB	n/a	LTP346	ltpFR2	23	n/a	n/a	n/a	20	17	7	9	1
2524554	PROB	n/a	LTP346	ltpFR2	23	n/a	n/a	n/a	20	19	7	9	3
2525836	PROB	n/a	LTP346	ltpFR2	23	n/a	n/a	n/a	20	20	7	6	7
2527036	PROB	n/a	LTP346	ltpFR2	23	n/a	n/a	n/a	20	20	4	8	8
2529486	PROB	n/a	LTP346	ltpFR2	23	n/a	n/a	n/a	20	14	2	3	9
2531084	PROB	n/a	LTP346	ltpFR2	23	n/a	n/a	n/a	20	11	1	7	3
2532318	PROB	n/a	LTP346	ltpFR2	23	n/a	n/a	n/a	20	13	8	4	1
2534082	PROB	n/a	LTP346	ltpFR2	23	n/a	n/a	n/a	20	14	4	8	2
2535998	PROB	n/a	LTP346	ltpFR2	23	n/a	n/a	n/a	20	19	7	3	9
2537751	STOP	n/a	LTP346	ltpFR2	23	n/a	n/a	n/a	20	n/a	n/a	n/a	n/a
2539847	REC_START	n/a	LTP346	ltpFR2	23	12	n/a	n/a	n/a	n/a	0	0	0
2540231	REC_WORD	wordpools/wasnorm_wordpool_576.txt	LTP346	ltpFR2	23	12	ROBOT	1200	n/a	n/a	0	0	0
2540864	REC_WORD	wordpools/wasnorm_wordpool_576.txt	LTP346	ltpFR2	23	12	SPIDER	1351	n/a	n/a	0	0	0
2542511	REC_WORD	wordpools/wasnorm_wordpool_576.txt	LTP346	ltpFR2	23	12	GIFT	635	n/a	n/a	0	0	0
2543041	REC_WORD	wordpools/wasnorm_wordpool_576.txt	LTP346	ltpFR2	23	12	CONTRACT	368	n/a	n/a	0	0	0
2545618	REC_WORD	wordpools/wasnorm_wordpool_576.txt	LTP346	ltpFR2	23	12	GRAPE	654	n/a	n/a	0	0	0
2548190	REC_WORD	wordpools/wasnorm_wordpool_576.txt	LTP346	ltpFR2	23	12	CHIPMUNK	304	n/a	n/a	0	0	0
2548809	REC_WORD	wordpools/wasnorm_wordpool_576.txt	LTP346	ltpFR2	23	12	FLUTE	585	n/a	n/a	0	0	0
2549430	REC_WORD	wordpools/wasnorm_wordpool_576.txt	LTP346	ltpFR2	23	12	CHECKERS	285	n/a	n/a	0	0	0
2561132	REC_WORD	wordpools/wasnorm_wordpool_576.txt	LTP346	ltpFR2	23	12	OCEAN	970	n/a	n/a	0	0	0
2561633	REC_WORD	wordpools/wasnorm_wordpool_576.txt	LTP346	ltpFR2	23	12	CHAUFFEUR	283	n/a	n/a	0	0	0
2562622	REC_WORD	wordpools/wasnorm_wordpool_576.txt	LTP346	ltpFR2	23	12	DASHBOARD	441	n/a	n/a	0	0	0
2564134	REC_WORD	wordpools/wasnorm_wordpool_576.txt	LTP346	ltpFR2	23	12	SCRIBBLE	1256	n/a	n/a	0	0	0
2565748	REC_WORD	wordpools/wasnorm_wordpool_576.txt	LTP346	ltpFR2	23	12	JUNGLE	764	n/a	n/a	0	0	0
2566704	REC_WORD	wordpools/wasnorm_wordpool_576.txt	LTP346	ltpFR2	23	12	WALNUT	1584	n/a	n/a	0	0	0
2611507	REC_WORD	wordpools/wasnorm_wordpool_576.txt	LTP346	ltpFR2	23	12	SAILOR	1223	n/a	n/a	0	0	0
2665123	WORD	wordpools/wasnorm_wordpool_576.txt	LTP346	ltpFR2	23	13	COUGAR	387	n/a	n/a	0	0	0
2667872	WORD	wordpools/wasnorm_wordpool_576.txt	LTP346	ltpFR2	23	13	TIGER	1467	n/a	n/a	0	0	0
2670538	WORD	wordpools/wasnorm_wordpool_576.txt	LTP346	ltpFR2	23	13	BARREL	91	n/a	n/a	0	0	0
2673270	WORD	wordpools/wasnorm_wordpool_576.txt	LTP346	ltpFR2	23	13	LEG	809	n/a	n/a	0	0	0
2676018	WORD	wordpools/wasnorm_wordpool_576.txt	LTP346	ltpFR2	23	13	SALMON	1227	n/a	n/a	0	0	0
2678800	WORD	wordpools/wasnorm_wordpool_576.txt	LTP346	ltpFR2	23	13	VICTOR	1563	n/a	n/a	0	0	0
2681433	WORD	wordpools/wasnorm_wordpool_576.txt	LTP346	ltpFR2	23	13	SCALLOP	1242	n/a	n/a	0	0	0
2683914	WORD	wordpools/wasnorm_wordpool_576.txt	LTP346	ltpFR2	23	13	BOXER	160	n/a	n/a	0	0	0
2686464	WORD	wordpools/wasnorm_wordpool_576.txt	LTP346	ltpFR2	23	13	TAVERN	1437	n/a	n/a	0	0	0
2688912	WORD	wordpools/wasnorm_wordpool_576.txt	LTP346	ltpFR2	23	13	LEAF	808	n/a	n/a	0	0	0
2691495	WORD	wordpools/wasnorm_wordpool_576.txt	LTP346	ltpFR2	23	13	STUMP	1396	n/a	n/a	0	0	0
2693927	WORD	wordpools/wasnorm_wordpool_576.txt	LTP346	ltpFR2	23	13	FREEWAY	603	n/a	n/a	0	0	0
2696626	WORD	wordpools/wasnorm_wordpool_576.txt	LTP346	ltpFR2	23	13	BOTTLE	153	n/a	n/a	0	0	0
2699375	WORD	wordpools/wasnorm_wordpool_576.txt	LTP346	ltpFR2	23	13	KEEPER	769	n/a	n/a	0	0	0
2702207	WORD	wordpools/wasnorm_wordpool_576.txt	LTP346	ltpFR2	23	13	HEEL	700	n/a	n/a	0	0	0
2704988	WORD	wordpools/wasnorm_wordpool_576.txt	LTP346	ltpFR2	23	13	BABY	64	n/a	n/a	0	0	0
2707804	WORD	wordpools/wasnorm_wordpool_576.txt	LTP346	ltpFR2	23	13	JEEP	753	n/a	n/a	0	0	0
2710620	WORD	wordpools/wasnorm_wordpool_576.txt	LTP346	ltpFR2	23	13	BELT	120	n/a	n/a	0	0	0
2713101	WORD	wordpools/wasnorm_wordpool_576.txt	LTP346	ltpFR2	23	13	KEYBOARD	774	n/a	n/a	0	0	0
2715917	WORD	wordpools/wasnorm_wordpool_576.txt	LTP346	ltpFR2	23	13	BUCKLE	185	n/a	n/a	0	0	0
2718616	WORD	wordpools/wasnorm_wordpool_576.txt	LTP346	ltpFR2	23	13	SLACKS	1323	n/a	n/a	0	0	0
2721298	WORD	wordpools/wasnorm_wordpool_576.txt	LTP346	ltpFR2	23	13	GRAVE	658	n/a	n/a	0	0	0
2723730	WORD	wordpools/wasnorm_wordpool_576.txt	LTP346	ltpFR2	23	13	GALLON	618	n/a	n/a	0	0	0
2726496	WORD	wordpools/wasnorm_wordpool_576.txt	LTP346	ltpFR2	23	13	RIBBON	1189	n/a	n/a	0	0	0
2728111	START	n/a	LTP346	ltpFR2	23	n/a	n/a	n/a	21	n/a	n/a	n/a	n/a
2729106	DISTRACTOR	n/a	LTP346	ltpFR2	23	13	n/a	n/a	n/a	n/a	0	0	0
2729111	PROB	n/a	LTP346	ltpFR2	23	n/a	n/a	n/a	21	12	3	5	4
2732776	PROB	n/a	LTP346	ltpFR2	23	n/a	n/a	n/a	21	14	6	3	5
2735791	PROB	n/a	LTP346	ltpFR2	23	n/a	n/a	n/a	21	14	8	5	1
2737057	PROB	n/a	LTP346	ltpFR2	23	n/a	n/a	n/a	21	19	8	3	8
2740357	PROB	n/a	LTP346	ltpFR2	23	n/a	n/a	n/a	21	22	9	5	7
2742372	PROB	n/a	LTP346	ltpFR2	23	n/a	n/a	n/a	21	26	9	9	8
2743971	PROB	n/a	LTP346	ltpFR2	23	n/a	n/a	n/a	21	22	7	8	7
2747220	PROB	n/a	LTP346	ltpFR2	23	n/a	n/a	n/a	21	11	1	9	1
2748203	PROB	n/a	LTP346	ltpFR2	23	n/a	n/a	n/a	21	16	5	3	8
2749851	PROB	n/a	LTP346	ltpFR2	23	n/a	n/a	n/a	21	18	4	6	8
2751295	STOP	n/a	LTP346	ltpFR2	23	n/a	n/a	n/a	21	n/a	n/a	n/a	n/a
2753950	REC_START	n/a	LTP346	ltpFR2	23	13	n/a	n/a	n/a	n/a	0	0	0
2754396	REC_WORD	wordpools/wasnorm_wordpool_576.txt	LTP346	ltpFR2	23	13	GALLON	618	n/a	n/a	0	0	0
2755091	REC_WORD	wordpools/wasnorm_wordpool_576.txt	LTP346	ltpFR2	23	13	RIBBON	1189	n/a	n/a	0	0	0
2758341	REC_WORD	wordpools/wasnorm_wordpool_576.txt	LTP346	ltpFR2	23	13	SLACKS	1323	n/a	n/a	0	0	0
2761484	REC_WORD	wordpools/wasnorm_wordpool_576.txt	LTP346	ltpFR2	23	13	KEYBOARD	774	n/a	n/a	0	0	0
2762807	REC_WORD	wordpools/wasnorm_wordpool_576.txt	LTP346	ltpFR2	23	13	GRAVE	658	n/a	n/a	0	0	0
2768508	REC_WORD	wordpools/wasnorm_wordpool_576.txt	LTP346	ltpFR2	23	13	JEEP	753	n/a	n/a	0	0	0
2769451	REC_WORD	wordpools/wasnorm_wordpool_576.txt	LTP346	ltpFR2	23	13	BELT	120	n/a	n/a	0	0	0
2770106	REC_WORD	wordpools/wasnorm_wordpool_576.txt	LTP346	ltpFR2	23	13	BUCKLE	185	n/a	n/a	0	0	0
2772403	REC_WORD	wordpools/wasnorm_wordpool_576.txt	LTP346	ltpFR2	23	13	COUGAR	387	n/a	n/a	0	0	0
2773038	REC_WORD	wordpools/wasnorm_wordpool_576.txt	LTP346	ltpFR2	23	13	TIGER	1467	n/a	n/a	0	0	0
2774032	REC_WORD	wordpools/wasnorm_wordpool_576.txt	LTP346	ltpFR2	23	13	BARREL	91	n/a	n/a	0	0	0
2774720	REC_WORD	wordpools/wasnorm_wordpool_576.txt	LTP346	ltpFR2	23	13	LEG	809	n/a	n/a	0	0	0
2775850	REC_WORD	wordpools/wasnorm_wordpool_576.txt	LTP346	ltpFR2	23	13	SALMON	1227	n/a	n/a	0	0	0
2776528	REC_WORD	wordpools/wasnorm_wordpool_576.txt	LTP346	ltpFR2	23	13	SCALLOP	1242	n/a	n/a	0	0	0
2777255	REC_WORD	wordpools/wasnorm_wordpool_576.txt	LTP346	ltpFR2	23	13	VICTOR	1563	n/a	n/a	0	0	0
2779266	REC_WORD	wordpools/wasnorm_wordpool_576.txt	LTP346	ltpFR2	23	13	TAVERN	1437	n/a	n/a	0	0	0
2779897	REC_WORD	wordpools/wasnorm_wordpool_576.txt	LTP346	ltpFR2	23	13	LEAF	808	n/a	n/a	0	0	0
2780427	REC_WORD	wordpools/wasnorm_wordpool_576.txt	LTP346	ltpFR2	23	13	STUMP	1396	n/a	n/a	0	0	0
2782804	REC_WORD	wordpools/wasnorm_wordpool_576.txt	LTP346	ltpFR2	23	13	BABY	64	n/a	n/a	0	0	0
2783222	REC_WORD	wordpools/wasnorm_wordpool_576.txt	LTP346	ltpFR2	23	13	HEEL	700	n/a	n/a	0	0	0
2785162	REC_WORD	wordpools/wasnorm_wordpool_576.txt	LTP346	ltpFR2	23	13	FREEWAY	603	n/a	n/a	0	0	0
2785975	REC_WORD	wordpools/wasnorm_wordpool_576.txt	LTP346	ltpFR2	23	13	KEEPER	769	n/a	n/a	0	0	0
2786753	REC_WORD	wordpools/wasnorm_wordpool_576.txt	LTP346	ltpFR2	23	13	BOTTLE	153	n/a	n/a	0	0	0
2844376	DISTRACTOR	n/a	LTP346	ltpFR2	23	14	n/a	n/a	n/a	n/a	0	0	0
2844376	START	n/a	LTP346	ltpFR2	23	n/a	n/a	n/a	22	n/a	n/a	n/a	n/a
2844393	PROB	n/a	LTP346	ltpFR2	23	n/a	n/a	n/a	22	15	6	6	3
2845609	PROB	n/a	LTP346	ltpFR2	23	n/a	n/a	n/a	22	11	7	3	1
2846824	PROB	n/a	LTP346	ltpFR2	23	n/a	n/a	n/a	22	10	6	2	2
2847990	PROB	n/a	LTP346	ltpFR2	23	n/a	n/a	n/a	22	25	7	9	9
2849324	PROB	n/a	LTP346	ltpFR2	23	n/a	n/a	n/a	22	15	3	8	4
2851606	PROB	n/a	LTP346	ltpFR2	23	n/a	n/a	n/a	22	13	4	5	4
2854355	PROB	n/a	LTP346	ltpFR2	23	n/a	n/a	n/a	22	15	4	5	6
2856204	PROB	n/a	LTP346	ltpFR2	23	n/a	n/a	n/a	22	19	6	9	4
2858036	PROB	n/a	LTP346	ltpFR2	23	n/a	n/a	n/a	22	18	5	4	9
2859785	PROB	n/a	LTP346	ltpFR2	23	n/a	n/a	n/a	22	17	6	3	8
2861834	PROB	n/a	LTP346	ltpFR2	23	n/a	n/a	n/a	22	19	4	6	9
2863384	PROB	n/a	LTP346	ltpFR2	23	n/a	n/a	n/a	22	13	9	2	2
2864584	PROB	n/a	LTP346	ltpFR2	23	n/a	n/a	n/a	22	13	1	4	9
2865782	PROB	n/a	LTP346	ltpFR2	23	n/a	n/a	n/a	22	13	5	3	5
2867218	STOP	n/a	LTP346	ltpFR2	23	n/a	n/a	n/a	22	n/a	n/a	n/a	n/a
2869548	WORD	wordpools/wasnorm_wordpool_576.txt	LTP346	ltpFR2	23	14	SHEARS	1276	n/a	n/a	0	0	0
2872062	WORD	wordpools/wasnorm_wordpool_576.txt	LTP346	ltpFR2	23	14	PRISON	1127	n/a	n/a	0	0	0
2874845	WORD	wordpools/wasnorm_wordpool_576.txt	LTP346	ltpFR2	23	14	VILLAIN	1567	n/a	n/a	0	0	0
2877278	WORD	wordpools/wasnorm_wordpool_576.txt	LTP346	ltpFR2	23	14	PEOPLE	1046	n/a	n/a	0	0	0
2879976	WORD	wordpools/wasnorm_wordpool_576.txt	LTP346	ltpFR2	23	14	CROOK	412	n/a	n/a	0	0	0
2882492	WORD	wordpools/wasnorm_wordpool_576.txt	LTP346	ltpFR2	23	14	SPOON	1357	n/a	n/a	0	0	0
2885123	WORD	wordpools/wasnorm_wordpool_576.txt	LTP346	ltpFR2	23	14	KNUCKLE	789	n/a	n/a	0	0	0
2887772	WORD	wordpools/wasnorm_wordpool_576.txt	LTP346	ltpFR2	23	14	TERMITE	1451	n/a	n/a	0	0	0
2890455	WORD	wordpools/wasnorm_wordpool_576.txt	LTP346	ltpFR2	23	14	GIRL	637	n/a	n/a	0	0	0
2892953	WORD	wordpools/wasnorm_wordpool_576.txt	LTP346	ltpFR2	23	14	PERCH	1048	n/a	n/a	0	0	0
2895536	WORD	wordpools/wasnorm_wordpool_576.txt	LTP346	ltpFR2	23	14	EXPERT	543	n/a	n/a	0	0	0
2898235	WORD	wordpools/wasnorm_wordpool_576.txt	LTP346	ltpFR2	23	14	MONARCH	906	n/a	n/a	0	0	0
2900866	WORD	wordpools/wasnorm_wordpool_576.txt	LTP346	ltpFR2	23	14	RULER	1216	n/a	n/a	0	0	0
2903333	WORD	wordpools/wasnorm_wordpool_576.txt	LTP346	ltpFR2	23	14	PIRATE	1074	n/a	n/a	0	0	0
2906148	WORD	wordpools/wasnorm_wordpool_576.txt	LTP346	ltpFR2	23	14	DOCK	477	n/a	n/a	0	0	0
2908663	WORD	wordpools/wasnorm_wordpool_576.txt	LTP346	ltpFR2	23	14	OX	994	n/a	n/a	0	0	0
2911129	WORD	wordpools/wasnorm_wordpool_576.txt	LTP346	ltpFR2	23	14	SIDING	1304	n/a	n/a	0	0	0
2913660	WORD	wordpools/wasnorm_wordpool_576.txt	LTP346	ltpFR2	23	14	POSTAGE	1113	n/a	n/a	0	0	0
2916260	WORD	wordpools/wasnorm_wordpool_576.txt	LTP346	ltpFR2	23	14	COBBLER	335	n/a	n/a	0	0	0
2918741	WORD	wordpools/wasnorm_wordpool_576.txt	LTP346	ltpFR2	23	14	POND	1101	n/a	n/a	0	0	0
2921424	WORD	wordpools/wasnorm_wordpool_576.txt	LTP346	ltpFR2	23	14	BANDIT	81	n/a	n/a	0	0	0
2924072	WORD	wordpools/wasnorm_wordpool_576.txt	LTP346	ltpFR2	23	14	GRASS	655	n/a	n/a	0	0	0
2926688	WORD	wordpools/wasnorm_wordpool_576.txt	LTP346	ltpFR2	23	14	DRINK	498	n/a	n/a	0	0	0
2929471	WORD	wordpools/wasnorm_wordpool_576.txt	LTP346	ltpFR2	23	14	PERSON	1052	n/a	n/a	0	0	0
2931086	START	n/a	LTP346	ltpFR2	23	n/a	n/a	n/a	23	n/a	n/a	n/a	n/a
2931889	DISTRACTOR	n/a	LTP346	ltpFR2	23	14	n/a	n/a	n/a	n/a	0	0	0
2931902	PROB	n/a	LTP346	ltpFR2	23	n/a	n/a	n/a	23	15	4	7	4
2933436	PROB	n/a	LTP346	ltpFR2	23	n/a	n/a	n/a	23	11	9	2	1
2934435	PROB	n/a	LTP346	ltpFR2	23	n/a	n/a	n/a	23	12	6	4	2
2936351	PROB	n/a	LTP346	ltpFR2	23	n/a	n/a	n/a	23	12	3	8	1
2937384	PROB	n/a	LTP346	ltpFR2	23	n/a	n/a	n/a	23	16	6	6	4
2939283	PROB	n/a	LTP346	ltpFR2	23	n/a	n/a	n/a	23	18	7	6	5
2941048	PROB	n/a	LTP346	ltpFR2	23	n/a	n/a	n/a	23	21	6	6	9
2943181	PROB	n/a	LTP346	ltpFR2	23	n/a	n/a	n/a	23	12	1	8	3
2944381	PROB	n/a	LTP346	ltpFR2	23	n/a	n/a	n/a	23	18	8	5	5
2945812	PROB	n/a	LTP346	ltpFR2	23	n/a	n/a	n/a	23	10	1	3	6
2946978	PROB	n/a	LTP346	ltpFR2	23	n/a	n/a	n/a	23	12	8	2	2
2948545	PROB	n/a	LTP346	ltpFR2	23	n/a	n/a	n/a	23	13	6	3	4
2950077	PROB	n/a	LTP346	ltpFR2	23	n/a	n/a	n/a	23	14	2	6	6
2951976	PROB	n/a	LTP346	ltpFR2	23	n/a	n/a	n/a	23	22	6	9	9
2954076	STOP	n/a	LTP346	ltpFR2	23	n/a	n/a	n/a	23	n/a	n/a	n/a	n/a
2956891	REC_START	n/a	LTP346	ltpFR2	23	14	n/a	n/a	n/a	n/a	0	0	0
2957416	REC_WORD	wordpools/wasnorm_wordpool_576.txt	LTP346	ltpFR2	23	14	PERSON	1052	n/a	n/a	0	0	0
2958014	REC_WORD	wordpools/wasnorm_wordpool_576.txt	LTP346	ltpFR2	23	14	DRINK	498	n/a	n/a	0	0	0
2958601	REC_WORD	wordpools/wasnorm_wordpool_576.txt	LTP346	ltpFR2	23	14	COBBLER	335	n/a	n/a	0	0	0
2959228	REC_WORD	wordpools/wasnorm_wordpool_576.txt	LTP346	ltpFR2	23	14	POND	1101	n/a	n/a	0	0	0
2960504	REC_WORD	wordpools/wasnorm_wordpool_576.txt	LTP346	ltpFR2	23	14	BANDIT	81	n/a	n/a	0	0	0
2961074	REC_WORD	wordpools/wasnorm_wordpool_576.txt	LTP346	ltpFR2	23	14	GRASS	655	n/a	n/a	0	0	0
2964268	REC_WORD	wordpools/wasnorm_wordpool_576.txt	LTP346	ltpFR2	23	14	SHEARS	1276	n/a	n/a	0	0	0
2967088	REC_WORD	wordpools/wasnorm_wordpool_576.txt	LTP346	ltpFR2	23	14	PRISON	1127	n/a	n/a	0	0	0
2976922	REC_WORD	wordpools/wasnorm_wordpool_576.txt	LTP346	ltpFR2	23	14	PEOPLE	1046	n/a	n/a	0	0	0
2985573	REC_WORD	wordpools/wasnorm_wordpool_576.txt	LTP346	ltpFR2	23	14	TERMITE	1451	n/a	n/a	0	0	0
2986629	REC_WORD	wordpools/wasnorm_wordpool_576.txt	LTP346	ltpFR2	23	14	GIRL	637	n/a	n/a	0	0	0
2988208	REC_WORD	wordpools/wasnorm_wordpool_576.txt	LTP346	ltpFR2	23	14	PERCH	1048	n/a	n/a	0	0	0
2988870	REC_WORD	wordpools/wasnorm_wordpool_576.txt	LTP346	ltpFR2	23	14	EXPERT	543	n/a	n/a	0	0	0
2989457	REC_WORD	wordpools/wasnorm_wordpool_576.txt	LTP346	ltpFR2	23	14	RULER	1216	n/a	n/a	0	0	0
2990074	REC_WORD	wordpools/wasnorm_wordpool_576.txt	LTP346	ltpFR2	23	14	MONARCH	906	n/a	n/a	0	0	0
2995075	REC_WORD	wordpools/wasnorm_wordpool_576.txt	LTP346	ltpFR2	23	14	DOCK	477	n/a	n/a	0	0	0
2996882	REC_WORD	wordpools/wasnorm_wordpool_576.txt	LTP346	ltpFR2	23	14	SIDING	1304	n/a	n/a	0	0	0
2999079	REC_WORD	wordpools/wasnorm_wordpool_576.txt	LTP346	ltpFR2	23	14	PIRATE	1074	n/a	n/a	0	0	0
2999814	REC_WORD	wordpools/wasnorm_wordpool_576.txt	LTP346	ltpFR2	23	14	OX	994	n/a	n/a	0	0	0
3010522	REC_WORD	wordpools/wasnorm_wordpool_576.txt	LTP346	ltpFR2	23	14	CROOK	412	n/a	n/a	0	0	0
3012792	REC_WORD	wordpools/wasnorm_wordpool_576.txt	LTP346	ltpFR2	23	14	KNUCKLE	789	n/a	n/a	0	0	0
3047334	DISTRACTOR	n/a	LTP346	ltpFR2	23	15	n/a	n/a	n/a	n/a	0	0	0
3047334	START	n/a	LTP346	ltpFR2	23	n/a	n/a	n/a	24	n/a	n/a	n/a	n/a
3047350	PROB	n/a	LTP346	ltpFR2	23	n/a	n/a	n/a	24	15	1	7	7
3048550	PROB	n/a	LTP346	ltpFR2	23	n/a	n/a	n/a	24	11	5	3	3
3049948	PROB	n/a	LTP346	ltpFR2	23	n/a	n/a	n/a	24	13	2	9	2
3052215	PROB	n/a	LTP346	ltpFR2	23	n/a	n/a	n/a	24	12	2	9	1
3053631	PROB	n/a	LTP346	ltpFR2	23	n/a	n/a	n/a	24	17	9	2	6
3054996	PROB	n/a	LTP346	ltpFR2	23	n/a	n/a	n/a	24	13	8	1	4
3056146	PROB	n/a	LTP346	ltpFR2	23	n/a	n/a	n/a	24	1	6	6	7
3057978	PROB	n/a	LTP346	ltpFR2	23	n/a	n/a	n/a	24	19	5	6	8
3060345	PROB	n/a	LTP346	ltpFR2	23	n/a	n/a	n/a	24	14	4	7	3
3061444	PROB	n/a	LTP346	ltpFR2	23	n/a	n/a	n/a	24	11	3	3	5
3062726	PROB	n/a	LTP346	ltpFR2	23	n/a	n/a	n/a	24	4	1	2	1
3063626	PROB	n/a	LTP346	ltpFR2	23	n/a	n/a	n/a	24	24	7	9	8
3064925	PROB	n/a	LTP346	ltpFR2	23	n/a	n/a	n/a	24	5	2	3	2
3066124	PROB	n/a	LTP346	ltpFR2	23	n/a	n/a	n/a	24	13	3	6	4
3069191	PROB	n/a	LTP346	ltpFR2	23	n/a	n/a	n/a	24	9	5	3	1
3070376	STOP	n/a	LTP346	ltpFR2	23	n/a	n/a	n/a	24	n/a	n/a	n/a	n/a
3072356	WORD	wordpools/wasnorm_wordpool_576.txt	LTP346	ltpFR2	23	15	XEROX	1628	n/a	n/a	0	0	0
3074870	WORD	wordpools/wasnorm_wordpool_576.txt	LTP346	ltpFR2	23	15	SUGAR	1401	n/a	n/a	0	0	0
3077354	WORD	wordpools/wasnorm_wordpool_576.txt	LTP346	ltpFR2	23	15	BRIDGE	174	n/a	n/a	0	0	0
3079951	WORD	wordpools/wasnorm_wordpool_576.txt	LTP346	ltpFR2	23	15	COLONEL	348	n/a	n/a	0	0	0
3082485	WORD	wordpools/wasnorm_wordpool_576.txt	LTP346	ltpFR2	23	15	COOK	372	n/a	n/a	0	0	0
3085049	WORD	wordpools/wasnorm_wordpool_576.txt	LTP346	ltpFR2	23	15	STOVE	1388	n/a	n/a	0	0	0
3087566	WORD	wordpools/wasnorm_wordpool_576.txt	LTP346	ltpFR2	23	15	WORLD	1622	n/a	n/a	0	0	0
3090314	WORD	wordpools/wasnorm_wordpool_576.txt	LTP346	ltpFR2	23	15	DOG	480	n/a	n/a	0	0	0
3093029	WORD	wordpools/wasnorm_wordpool_576.txt	LTP346	ltpFR2	23	15	DRESS	495	n/a	n/a	0	0	0
3095479	WORD	wordpools/wasnorm_wordpool_576.txt	LTP346	ltpFR2	23	15	SHIRT	1287	n/a	n/a	0	0	0
3098110	WORD	wordpools/wasnorm_wordpool_576.txt	LTP346	ltpFR2	23	15	SAND	1230	n/a	n/a	0	0	0
3100809	WORD	wordpools/wasnorm_wordpool_576.txt	LTP346	ltpFR2	23	15	WINDOW	1611	n/a	n/a	0	0	0
3103508	WORD	wordpools/wasnorm_wordpool_576.txt	LTP346	ltpFR2	23	15	PARSLEY	1016	n/a	n/a	0	0	0
3106056	WORD	wordpools/wasnorm_wordpool_576.txt	LTP346	ltpFR2	23	15	PADDLE	1000	n/a	n/a	0	0	0
3108523	WORD	wordpools/wasnorm_wordpool_576.txt	LTP346	ltpFR2	23	15	CLOSET	326	n/a	n/a	0	0	0
3110954	WORD	wordpools/wasnorm_wordpool_576.txt	LTP346	ltpFR2	23	15	SWAMP	1416	n/a	n/a	0	0	0
3113686	WORD	wordpools/wasnorm_wordpool_576.txt	LTP346	ltpFR2	23	15	SOLDIER	1344	n/a	n/a	0	0	0
3116286	WORD	wordpools/wasnorm_wordpool_576.txt	LTP346	ltpFR2	23	15	MARINE	869	n/a	n/a	0	0	0
3119000	WORD	wordpools/wasnorm_wordpool_576.txt	LTP346	ltpFR2	23	15	PREACHER	1119	n/a	n/a	0	0	0
3121766	WORD	wordpools/wasnorm_wordpool_576.txt	LTP346	ltpFR2	23	15	IDOL	733	n/a	n/a	0	0	0
3124232	WORD	wordpools/wasnorm_wordpool_576.txt	LTP346	ltpFR2	23	15	BOUILLON	154	n/a	n/a	0	0	0
3126680	WORD	wordpools/wasnorm_wordpool_576.txt	LTP346	ltpFR2	23	15	BLUEPRINT	142	n/a	n/a	0	0	0
3129447	WORD	wordpools/wasnorm_wordpool_576.txt	LTP346	ltpFR2	23	15	GLOBE	641	n/a	n/a	0	0	0
3132078	WORD	wordpools/wasnorm_wordpool_576.txt	LTP346	ltpFR2	23	15	SERPENT	1270	n/a	n/a	0	0	0
3133694	START	n/a	LTP346	ltpFR2	23	n/a	n/a	n/a	25	n/a	n/a	n/a	n/a
3134627	DISTRACTOR	n/a	LTP346	ltpFR2	23	15	n/a	n/a	n/a	n/a	0	0	0
3134644	PROB	n/a	LTP346	ltpFR2	23	n/a	n/a	n/a	25	13	5	4	4
3138226	PROB	n/a	LTP346	ltpFR2	23	n/a	n/a	n/a	25	16	2	5	9
3141057	PROB	n/a	LTP346	ltpFR2	23	n/a	n/a	n/a	25	6	2	1	3
3142257	PROB	n/a	LTP346	ltpFR2	23	n/a	n/a	n/a	25	24	8	8	8
3145173	PROB	n/a	LTP346	ltpFR2	23	n/a	n/a	n/a	25	23	9	9	5
3146754	PROB	n/a	LTP346	ltpFR2	23	n/a	n/a	n/a	25	16	4	9	3
3150254	PROB	n/a	LTP346	ltpFR2	23	n/a	n/a	n/a	25	21	8	4	9
3152170	PROB	n/a	LTP346	ltpFR2	23	n/a	n/a	n/a	25	18	4	8	6
3154001	PROB	n/a	LTP346	ltpFR2	23	n/a	n/a	n/a	25	10	2	7	1
3155318	PROB	n/a	LTP346	ltpFR2	23	n/a	n/a	n/a	25	22	8	7	7
3156595	STOP	n/a	LTP346	ltpFR2	23	n/a	n/a	n/a	25	n/a	n/a	n/a	n/a
3159500	REC_START	n/a	LTP346	ltpFR2	23	15	n/a	n/a	n/a	n/a	0	0	0
3159505	REC_WORD	wordpools/wasnorm_wordpool_576.txt	LTP346	ltpFR2	23	15	GLOBE	641	n/a	n/a	0	0	0
3160081	REC_WORD	wordpools/wasnorm_wordpool_576.txt	LTP346	ltpFR2	23	15	SERPENT	1270	n/a	n/a	0	0	0
3161606	REC_WORD	wordpools/wasnorm_wordpool_576.txt	LTP346	ltpFR2	23	15	BOUILLON	154	n/a	n/a	0	0	0
3162445	REC_WORD	wordpools/wasnorm_wordpool_576.txt	LTP346	ltpFR2	23	15	BLUEPRINT	142	n/a	n/a	0	0	0
3165462	REC_WORD	wordpools/wasnorm_wordpool_576.txt	LTP346	ltpFR2	23	15	XEROX	1628	n/a	n/a	0	0	0
3166306	REC_WORD	wordpools/wasnorm_wordpool_576.txt	LTP346	ltpFR2	23	15	SUGAR	1401	n/a	n/a	0	0	0
3167456	REC_WORD	wordpools/wasnorm_wordpool_576.txt	LTP346	ltpFR2	23	15	COOK	372	n/a	n/a	0	0	0
3168137	REC_WORD	wordpools/wasnorm_wordpool_576.txt	LTP346	ltpFR2	23	15	STOVE	1388	n/a	n/a	0	0	0
3169534	REC_WORD	wordpools/wasnorm_wordpool_576.txt	LTP346	ltpFR2	23	15	COLONEL	348	n/a	n/a	0	0	0
3170577	REC_WORD	wordpools/wasnorm_wordpool_576.txt	LTP346	ltpFR2	23	15	BRIDGE	174	n/a	n/a	0	0	0
3171673	REC_WORD	wordpools/wasnorm_wordpool_576.txt	LTP346	ltpFR2	23	15	WORLD	1622	n/a	n/a	0	0	0
3176880	REC_WORD	wordpools/wasnorm_wordpool_576.txt	LTP346	ltpFR2	23	15	PUPPY	1144	n/a	n/a	0	0	0
3177329	REC_WORD	wordpools/wasnorm_wordpool_576.txt	LTP346	ltpFR2	23	15	DOG	480	n/a	n/a	0	0	0
3178711	REC_WORD_VV	wordpools/wasnorm_wordpool_576.txt	LTP346	ltpFR2	23	15	<>	-1	n/a	n/a	0	0	0
3180643	REC_WORD	wordpools/wasnorm_wordpool_576.txt	LTP346	ltpFR2	23	15	DRESS	495	n/a	n/a	0	0	0
3181370	REC_WORD	wordpools/wasnorm_wordpool_576.txt	LTP346	ltpFR2	23	15	SHIRT	1287	n/a	n/a	0	0	0
3187187	REC_WORD	wordpools/wasnorm_wordpool_576.txt	LTP346	ltpFR2	23	15	PUPPY	1144	n/a	n/a	0	0	0
3194773	REC_WORD	wordpools/wasnorm_wordpool_576.txt	LTP346	ltpFR2	23	15	SOLDIER	1344	n/a	n/a	0	0	0
3195685	REC_WORD	wordpools/wasnorm_wordpool_576.txt	LTP346	ltpFR2	23	15	MARINE	869	n/a	n/a	0	0	0
3196806	REC_WORD	wordpools/wasnorm_wordpool_576.txt	LTP346	ltpFR2	23	15	SWAMP	1416	n/a	n/a	0	0	0
3198243	REC_WORD	wordpools/wasnorm_wordpool_576.txt	LTP346	ltpFR2	23	15	PREACHER	1119	n/a	n/a	0	0	0
3199258	REC_WORD	wordpools/wasnorm_wordpool_576.txt	LTP346	ltpFR2	23	15	IDOL	733	n/a	n/a	0	0	0
3202633	REC_WORD	wordpools/wasnorm_wordpool_576.txt	LTP346	ltpFR2	23	15	WINDOW	1611	n/a	n/a	0	0	0
3203511	REC_WORD	wordpools/wasnorm_wordpool_576.txt	LTP346	ltpFR2	23	15	SAND	1230	n/a	n/a	0	0	0
3204687	REC_WORD	wordpools/wasnorm_wordpool_576.txt	LTP346	ltpFR2	23	15	PARSLEY	1016	n/a	n/a	0	0	0
3205770	REC_WORD	wordpools/wasnorm_wordpool_576.txt	LTP346	ltpFR2	23	15	CLOSET	326	n/a	n/a	0	0	0
3206792	REC_WORD	wordpools/wasnorm_wordpool_576.txt	LTP346	ltpFR2	23	15	PADDLE	1000	n/a	n/a	0	0	0
3249941	WORD	wordpools/wasnorm_wordpool_576.txt	LTP346	ltpFR2	23	16	PAPER	1011	n/a	n/a	0	0	0
3252424	WORD	wordpools/wasnorm_wordpool_576.txt	LTP346	ltpFR2	23	16	SIRLOIN	1311	n/a	n/a	0	0	0
3255022	WORD	wordpools/wasnorm_wordpool_576.txt	LTP346	ltpFR2	23	16	MARROW	872	n/a	n/a	0	0	0
3257837	WORD	wordpools/wasnorm_wordpool_576.txt	LTP346	ltpFR2	23	16	SPACE	1345	n/a	n/a	0	0	0
3260337	WORD	wordpools/wasnorm_wordpool_576.txt	LTP346	ltpFR2	23	16	FEATHER	557	n/a	n/a	0	0	0
3263018	WORD	wordpools/wasnorm_wordpool_576.txt	LTP346	ltpFR2	23	16	MAILMAN	858	n/a	n/a	0	0	0
3265784	WORD	wordpools/wasnorm_wordpool_576.txt	LTP346	ltpFR2	23	16	PIMPLE	1071	n/a	n/a	0	0	0
3268333	WORD	wordpools/wasnorm_wordpool_576.txt	LTP346	ltpFR2	23	16	BUTCHER	203	n/a	n/a	0	0	0
3271098	WORD	wordpools/wasnorm_wordpool_576.txt	LTP346	ltpFR2	23	16	CANVAS	234	n/a	n/a	0	0	0
3273598	WORD	wordpools/wasnorm_wordpool_576.txt	LTP346	ltpFR2	23	16	PLIERS	1089	n/a	n/a	0	0	0
3276197	WORD	wordpools/wasnorm_wordpool_576.txt	LTP346	ltpFR2	23	16	LAKE	796	n/a	n/a	0	0	0
3278894	WORD	wordpools/wasnorm_wordpool_576.txt	LTP346	ltpFR2	23	16	PENCIL	1042	n/a	n/a	0	0	0
3281710	WORD	wordpools/wasnorm_wordpool_576.txt	LTP346	ltpFR2	23	16	LOBSTER	837	n/a	n/a	0	0	0
3284493	WORD	wordpools/wasnorm_wordpool_576.txt	LTP346	ltpFR2	23	16	GIRAFFE	636	n/a	n/a	0	0	0
3287242	WORD	wordpools/wasnorm_wordpool_576.txt	LTP346	ltpFR2	23	16	RACCOON	1153	n/a	n/a	0	0	0
3289873	WORD	wordpools/wasnorm_wordpool_576.txt	LTP346	ltpFR2	23	16	DOCTOR	478	n/a	n/a	0	0	0
3292306	WORD	wordpools/wasnorm_wordpool_576.txt	LTP346	ltpFR2	23	16	SURGEON	1413	n/a	n/a	0	0	0
3295087	WORD	wordpools/wasnorm_wordpool_576.txt	LTP346	ltpFR2	23	16	ARTIST	43	n/a	n/a	0	0	0
3297752	WORD	wordpools/wasnorm_wordpool_576.txt	LTP346	ltpFR2	23	16	BEDROOM	111	n/a	n/a	0	0	0
3300269	WORD	wordpools/wasnorm_wordpool_576.txt	LTP346	ltpFR2	23	16	LOUNGE	845	n/a	n/a	0	0	0
3302800	WORD	wordpools/wasnorm_wordpool_576.txt	LTP346	ltpFR2	23	16	BLUEJAY	141	n/a	n/a	0	0	0
3305333	WORD	wordpools/wasnorm_wordpool_576.txt	LTP346	ltpFR2	23	16	ATTIC	56	n/a	n/a	0	0	0
3308014	WORD	wordpools/wasnorm_wordpool_576.txt	LTP346	ltpFR2	23	16	VESSEL	1558	n/a	n/a	0	0	0
3310780	WORD	wordpools/wasnorm_wordpool_576.txt	LTP346	ltpFR2	23	16	BAKER	71	n/a	n/a	0	0	0
3312397	START	n/a	LTP346	ltpFR2	23	n/a	n/a	n/a	26	n/a	n/a	n/a	n/a
3313410	DISTRACTOR	n/a	LTP346	ltpFR2	23	16	n/a	n/a	n/a	n/a	0	0	0
3313413	PROB	n/a	LTP346	ltpFR2	23	n/a	n/a	n/a	26	26	9	9	8
3314911	PROB	n/a	LTP346	ltpFR2	23	n/a	n/a	n/a	26	18	5	5	8
3316395	PROB	n/a	LTP346	ltpFR2	23	n/a	n/a	n/a	26	11	2	6	3
3317893	PROB	n/a	LTP346	ltpFR2	23	n/a	n/a	n/a	26	6	2	3	1
3319026	PROB	n/a	LTP346	ltpFR2	23	n/a	n/a	n/a	26	8	1	2	5
3320510	PROB	n/a	LTP346	ltpFR2	23	n/a	n/a	n/a	26	16	6	7	3
3322108	PROB	n/a	LTP346	ltpFR2	23	n/a	n/a	n/a	26	11	1	5	5
3323041	PROB	n/a	LTP346	ltpFR2	23	n/a	n/a	n/a	26	11	4	1	6
3324007	PROB	n/a	LTP346	ltpFR2	23	n/a	n/a	n/a	26	19	8	2	9
3325307	PROB	n/a	LTP346	ltpFR2	23	n/a	n/a	n/a	26	13	4	5	4
3326640	PROB	n/a	LTP346	ltpFR2	23	n/a	n/a	n/a	26	20	9	7	4
3328888	PROB	n/a	LTP346	ltpFR2	23	n/a	n/a	n/a	26	20	5	9	6
3331904	PROB	n/a	LTP346	ltpFR2	23	n/a	n/a	n/a	26	12	2	5	5
3332970	PROB	n/a	LTP346	ltpFR2	23	n/a	n/a	n/a	26	17	7	8	2
3334254	PROB	n/a	LTP346	ltpFR2	23	n/a	n/a	n/a	26	8	2	4	2
3335424	STOP	n/a	LTP346	ltpFR2	23	n/a	n/a	n/a	26	n/a	n/a	n/a	n/a
3338252	REC_START	n/a	LTP346	ltpFR2	23	16	n/a	n/a	n/a	n/a	0	0	0
3338472	REC_WORD	wordpools/wasnorm_wordpool_576.txt	LTP346	ltpFR2	23	16	ATTIC	56	n/a	n/a	0	0	0
3339002	REC_WORD	wordpools/wasnorm_wordpool_576.txt	LTP346	ltpFR2	23	16	VESSEL	1558	n/a	n/a	0	0	0
3340023	REC_WORD	wordpools/wasnorm_wordpool_576.txt	LTP346	ltpFR2	23	16	BAKER	71	n/a	n/a	0	0	0
3345429	REC_WORD	wordpools/wasnorm_wordpool_576.txt	LTP346	ltpFR2	23	16	PAPER	1011	n/a	n/a	0	0	0
3346001	REC_WORD	wordpools/wasnorm_wordpool_576.txt	LTP346	ltpFR2	23	16	SIRLOIN	1311	n/a	n/a	0	0	0
3346800	REC_WORD	wordpools/wasnorm_wordpool_576.txt	LTP346	ltpFR2	23	16	MARROW	872	n/a	n/a	0	0	0
3348786	REC_WORD	wordpools/wasnorm_wordpool_576.txt	LTP346	ltpFR2	23	16	SPACE	1345	n/a	n/a	0	0	0
3352762	REC_WORD	wordpools/wasnorm_wordpool_576.txt	LTP346	ltpFR2	23	16	MAILMAN	858	n/a	n/a	0	0	0
3353766	REC_WORD	wordpools/wasnorm_wordpool_576.txt	LTP346	ltpFR2	23	16	FEATHER	557	n/a	n/a	0	0	0
3354710	REC_WORD	wordpools/wasnorm_wordpool_576.txt	LTP346	ltpFR2	23	16	PIMPLE	1071	n/a	n/a	0	0	0
3360599	REC_WORD	wordpools/wasnorm_wordpool_576.txt	LTP346	ltpFR2	23	16	PENCIL	1042	n/a	n/a	0	0	0
3361466	REC_WORD	wordpools/wasnorm_wordpool_576.txt	LTP346	ltpFR2	23	16	LAKE	796	n/a	n/a	0	0	0
3362318	REC_WORD	wordpools/wasnorm_wordpool_576.txt	LTP346	ltpFR2	23	16	LOBSTER	837	n/a	n/a	0	0	0
3383262	REC_WORD	wordpools/wasnorm_wordpool_576.txt	LTP346	ltpFR2	23	16	GIRAFFE	636	n/a	n/a	0	0	0
3384075	REC_WORD	wordpools/wasnorm_wordpool_576.txt	LTP346	ltpFR2	23	16	RACCOON	1153	n/a	n/a	0	0	0
3385043	REC_WORD	wordpools/wasnorm_wordpool_576.txt	LTP346	ltpFR2	23	16	DOCTOR	478	n/a	n/a	0	0	0
3385537	REC_WORD	wordpools/wasnorm_wordpool_576.txt	LTP346	ltpFR2	23	16	SURGEON	1413	n/a	n/a	0	0	0
3386851	REC_WORD	wordpools/wasnorm_wordpool_576.txt	LTP346	ltpFR2	23	16	ARTIST	43	n/a	n/a	0	0	0
3387692	REC_WORD	wordpools/wasnorm_wordpool_576.txt	LTP346	ltpFR2	23	16	BEDROOM	111	n/a	n/a	0	0	0
3414799	REST_REWET	n/a	LTP346	ltpFR2	23	16	n/a	n/a	n/a	n/a	0	0	0
3642013	WORD	wordpools/wasnorm_wordpool_576.txt	LTP346	ltpFR2	23	17	LEMON	810	n/a	n/a	0	0	0
3644828	WORD	wordpools/wasnorm_wordpool_576.txt	LTP346	ltpFR2	23	17	TROUSERS	1510	n/a	n/a	0	0	0
3647445	WORD	wordpools/wasnorm_wordpool_576.txt	LTP346	ltpFR2	23	17	BACKBONE	66	n/a	n/a	0	0	0
3649976	WORD	wordpools/wasnorm_wordpool_576.txt	LTP346	ltpFR2	23	17	HOUND	724	n/a	n/a	0	0	0
3652609	WORD	wordpools/wasnorm_wordpool_576.txt	LTP346	ltpFR2	23	17	FROST	609	n/a	n/a	0	0	0
3655258	WORD	wordpools/wasnorm_wordpool_576.txt	LTP346	ltpFR2	23	17	QUILT	1151	n/a	n/a	0	0	0
3657939	WORD	wordpools/wasnorm_wordpool_576.txt	LTP346	ltpFR2	23	17	FOSSIL	596	n/a	n/a	0	0	0
3660572	WORD	wordpools/wasnorm_wordpool_576.txt	LTP346	ltpFR2	23	17	SICKLE	1302	n/a	n/a	0	0	0
3663321	WORD	wordpools/wasnorm_wordpool_576.txt	LTP346	ltpFR2	23	17	ONION	977	n/a	n/a	0	0	0
3665785	WORD	wordpools/wasnorm_wordpool_576.txt	LTP346	ltpFR2	23	17	PICKLE	1059	n/a	n/a	0	0	0
3668402	WORD	wordpools/wasnorm_wordpool_576.txt	LTP346	ltpFR2	23	17	PORPOISE	1109	n/a	n/a	0	0	0
3671033	WORD	wordpools/wasnorm_wordpool_576.txt	LTP346	ltpFR2	23	17	COMET	353	n/a	n/a	0	0	0
3673748	WORD	wordpools/wasnorm_wordpool_576.txt	LTP346	ltpFR2	23	17	FLAG	573	n/a	n/a	0	0	0
3676331	WORD	wordpools/wasnorm_wordpool_576.txt	LTP346	ltpFR2	23	17	MERMAID	887	n/a	n/a	0	0	0
3679112	WORD	wordpools/wasnorm_wordpool_576.txt	LTP346	ltpFR2	23	17	SOCKET	1340	n/a	n/a	0	0	0
3681861	WORD	wordpools/wasnorm_wordpool_576.txt	LTP346	ltpFR2	23	17	GERM	632	n/a	n/a	0	0	0
3684494	WORD	wordpools/wasnorm_wordpool_576.txt	LTP346	ltpFR2	23	17	CHISEL	305	n/a	n/a	0	0	0
3687160	WORD	wordpools/wasnorm_wordpool_576.txt	LTP346	ltpFR2	23	17	WRENCH	1625	n/a	n/a	0	0	0
3689874	WORD	wordpools/wasnorm_wordpool_576.txt	LTP346	ltpFR2	23	17	DUST	508	n/a	n/a	0	0	0
3692474	WORD	wordpools/wasnorm_wordpool_576.txt	LTP346	ltpFR2	23	17	BEETLE	116	n/a	n/a	0	0	0
3695290	WORD	wordpools/wasnorm_wordpool_576.txt	LTP346	ltpFR2	23	17	ROACH	1195	n/a	n/a	0	0	0
3697787	WORD	wordpools/wasnorm_wordpool_576.txt	LTP346	ltpFR2	23	17	CRUTCH	417	n/a	n/a	0	0	0
3700570	WORD	wordpools/wasnorm_wordpool_576.txt	LTP346	ltpFR2	23	17	GAUZE	626	n/a	n/a	0	0	0
3703035	WORD	wordpools/wasnorm_wordpool_576.txt	LTP346	ltpFR2	23	17	CLIPPERS	324	n/a	n/a	0	0	0
3704651	START	n/a	LTP346	ltpFR2	23	n/a	n/a	n/a	27	n/a	n/a	n/a	n/a
3705543	DISTRACTOR	n/a	LTP346	ltpFR2	23	17	n/a	n/a	n/a	n/a	0	0	0
3705551	PROB	n/a	LTP346	ltpFR2	23	n/a	n/a	n/a	27	16	7	3	6
3707833	PROB	n/a	LTP346	ltpFR2	23	n/a	n/a	n/a	27	22	6	7	9
3710715	PROB	n/a	LTP346	ltpFR2	23	n/a	n/a	n/a	27	22	9	5	8
3716647	PROB	n/a	LTP346	ltpFR2	23	n/a	n/a	n/a	27	5	1	1	3
3717795	PROB	n/a	LTP346	ltpFR2	23	n/a	n/a	n/a	27	18	9	8	1
3719744	PROB	n/a	LTP346	ltpFR2	23	n/a	n/a	n/a	27	19	5	5	9
3721311	PROB	n/a	LTP346	ltpFR2	23	n/a	n/a	n/a	27	14	4	9	1
3722776	PROB	n/a	LTP346	ltpFR2	23	n/a	n/a	n/a	27	11	6	4	1
3725008	PROB	n/a	LTP346	ltpFR2	23	n/a	n/a	n/a	27	14	5	7	2
3727683	STOP	n/a	LTP346	ltpFR2	23	n/a	n/a	n/a	27	n/a	n/a	n/a	n/a
3730407	REC_START	n/a	LTP346	ltpFR2	23	17	n/a	n/a	n/a	n/a	0	0	0
3730551	REC_WORD	wordpools/wasnorm_wordpool_576.txt	LTP346	ltpFR2	23	17	CLIPPERS	324	n/a	n/a	0	0	0
3731322	REC_WORD	wordpools/wasnorm_wordpool_576.txt	LTP346	ltpFR2	23	17	GAUZE	626	n/a	n/a	0	0	0
3731969	REC_WORD	wordpools/wasnorm_wordpool_576.txt	LTP346	ltpFR2	23	17	CRUTCH	417	n/a	n/a	0	0	0
3737294	REC_WORD	wordpools/wasnorm_wordpool_576.txt	LTP346	ltpFR2	23	17	PORPOISE	1109	n/a	n/a	0	0	0
3740555	REC_WORD	wordpools/wasnorm_wordpool_576.txt	LTP346	ltpFR2	23	17	LEMON	810	n/a	n/a	0	0	0
3745646	REC_WORD	wordpools/wasnorm_wordpool_576.txt	LTP346	ltpFR2	23	17	TROUSERS	1510	n/a	n/a	0	0	0
3748619	REC_WORD	wordpools/wasnorm_wordpool_576.txt	LTP346	ltpFR2	23	17	BACKBONE	66	n/a	n/a	0	0	0
3749533	REC_WORD	wordpools/wasnorm_wordpool_576.txt	LTP346	ltpFR2	23	17	HOUND	724	n/a	n/a	0	0	0
3750351	REC_WORD	wordpools/wasnorm_wordpool_576.txt	LTP346	ltpFR2	23	17	FROST	609	n/a	n/a	0	0	0
3751307	REC_WORD	wordpools/wasnorm_wordpool_576.txt	LTP346	ltpFR2	23	17	QUILT	1151	n/a	n/a	0	0	0
3752609	REC_WORD	wordpools/wasnorm_wordpool_576.txt	LTP346	ltpFR2	23	17	FOSSIL	596	n/a	n/a	0	0	0
3753584	REC_WORD	wordpools/wasnorm_wordpool_576.txt	LTP346	ltpFR2	23	17	SICKLE	1302	n/a	n/a	0	0	0
3759373	REC_WORD	wordpools/wasnorm_wordpool_576.txt	LTP346	ltpFR2	23	17	BEETLE	116	n/a	n/a	0	0	0
3759919	REC_WORD	wordpools/wasnorm_wordpool_576.txt	LTP346	ltpFR2	23	17	ROACH	1195	n/a	n/a	0	0	0
3764064	REC_WORD	wordpools/wasnorm_wordpool_576.txt	LTP346	ltpFR2	23	17	FLAG	573	n/a	n/a	0	0	0
3764957	REC_WORD	wordpools/wasnorm_wordpool_576.txt	LTP346	ltpFR2	23	17	COMET	353	n/a	n/a	0	0	0
3780518	REC_WORD	wordpools/wasnorm_wordpool_576.txt	LTP346	ltpFR2	23	17	MERMAID	887	n/a	n/a	0	0	0
3782891	REC_WORD	wordpools/wasnorm_wordpool_576.txt	LTP346	ltpFR2	23	17	SOCKET	1340	n/a	n/a	0	0	0
3785253	REC_WORD	wordpools/wasnorm_wordpool_576.txt	LTP346	ltpFR2	23	17	CHISEL	305	n/a	n/a	0	0	0
3785829	REC_WORD	wordpools/wasnorm_wordpool_576.txt	LTP346	ltpFR2	23	17	WRENCH	1625	n/a	n/a	0	0	0
3788520	REC_WORD	wordpools/wasnorm_wordpool_576.txt	LTP346	ltpFR2	23	17	GERM	632	n/a	n/a	0	0	0
3791061	REC_WORD	wordpools/wasnorm_wordpool_576.txt	LTP346	ltpFR2	23	17	DUST	508	n/a	n/a	0	0	0
3820865	WORD	wordpools/wasnorm_wordpool_576.txt	LTP346	ltpFR2	23	18	RESORT	1186	n/a	n/a	0	0	0
3823648	WORD	wordpools/wasnorm_wordpool_576.txt	LTP346	ltpFR2	23	18	STUDENT	1395	n/a	n/a	0	0	0
3826079	WORD	wordpools/wasnorm_wordpool_576.txt	LTP346	ltpFR2	23	18	SKILLET	1317	n/a	n/a	0	0	0
3828546	WORD	wordpools/wasnorm_wordpool_576.txt	LTP346	ltpFR2	23	18	MOTHER	921	n/a	n/a	0	0	0
