mstime	trial_type	stim_file	subject	experiment	session	trial	item_name	item_num	list	answer	test_x	test_y	test_z
0	SESS_START	n/a	LTP283	ltpFR2	13	n/a	n/a	n/a	n/a	n/a	0	0	0
19356	START	n/a	LTP283	ltpFR2	13	n/a	n/a	n/a	-1	n/a	n/a	n/a	n/a
19389	PROB	n/a	LTP283	ltpFR2	13	n/a	n/a	n/a	-1	11	2	8	1
22067	PROB	n/a	LTP283	ltpFR2	13	n/a	n/a	n/a	-1	18	9	7	2
23733	PROB	n/a	LTP283	ltpFR2	13	n/a	n/a	n/a	-1	15	8	4	3
25113	PROB	n/a	LTP283	ltpFR2	13	n/a	n/a	n/a	-1	14	5	4	5
26279	PROB	n/a	LTP283	ltpFR2	13	n/a	n/a	n/a	-1	20	9	4	7
28243	PROB	n/a	LTP283	ltpFR2	13	n/a	n/a	n/a	-1	16	7	3	6
31351	STOP	n/a	LTP283	ltpFR2	13	n/a	n/a	n/a	-1	n/a	n/a	n/a	n/a
74175	DISTRACTOR	n/a	LTP283	ltpFR2	13	1	n/a	n/a	n/a	n/a	0	0	0
74175	START	n/a	LTP283	ltpFR2	13	n/a	n/a	n/a	1	n/a	n/a	n/a	n/a
74208	PROB	n/a	LTP283	ltpFR2	13	n/a	n/a	n/a	1	11	2	5	4
76455	PROB	n/a	LTP283	ltpFR2	13	n/a	n/a	n/a	1	18	6	5	7
79334	PROB	n/a	LTP283	ltpFR2	13	n/a	n/a	n/a	1	14	4	1	9
80632	PROB	n/a	LTP283	ltpFR2	13	n/a	n/a	n/a	1	4	1	1	2
81697	PROB	n/a	LTP283	ltpFR2	13	n/a	n/a	n/a	1	18	6	9	3
83278	PROB	n/a	LTP283	ltpFR2	13	n/a	n/a	n/a	1	4	1	1	2
84576	PROB	n/a	LTP283	ltpFR2	13	n/a	n/a	n/a	1	17	7	4	6
86007	PROB	n/a	LTP283	ltpFR2	13	n/a	n/a	n/a	1	16	9	4	3
87688	PROB	n/a	LTP283	ltpFR2	13	n/a	n/a	n/a	1	13	5	8	1
89784	PROB	n/a	LTP283	ltpFR2	13	n/a	n/a	n/a	1	23	9	8	6
91649	PROB	n/a	LTP283	ltpFR2	13	n/a	n/a	n/a	1	18	8	2	8
92930	PROB	n/a	LTP283	ltpFR2	13	n/a	n/a	n/a	1	14	8	5	1
94429	PROB	n/a	LTP283	ltpFR2	13	n/a	n/a	n/a	1	16	5	7	4
96426	PROB	n/a	LTP283	ltpFR2	13	n/a	n/a	n/a	1	16	3	9	4
98063	STOP	n/a	LTP283	ltpFR2	13	n/a	n/a	n/a	1	n/a	n/a	n/a	n/a
99255	WORD	wordpools/wasnorm_wordpool_576.txt	LTP283	ltpFR2	13	1	DUST	508	n/a	n/a	0	0	0
102016	WORD	wordpools/wasnorm_wordpool_576.txt	LTP283	ltpFR2	13	1	CREVICE	405	n/a	n/a	0	0	0
104829	WORD	wordpools/wasnorm_wordpool_576.txt	LTP283	ltpFR2	13	1	HONEY	713	n/a	n/a	0	0	0
107326	WORD	wordpools/wasnorm_wordpool_576.txt	LTP283	ltpFR2	13	1	RECEIPT	1173	n/a	n/a	0	0	0
110088	WORD	wordpools/wasnorm_wordpool_576.txt	LTP283	ltpFR2	13	1	PLUTO	1092	n/a	n/a	0	0	0
112635	WORD	wordpools/wasnorm_wordpool_576.txt	LTP283	ltpFR2	13	1	OX	994	n/a	n/a	0	0	0
115265	WORD	wordpools/wasnorm_wordpool_576.txt	LTP283	ltpFR2	13	1	HORSE	719	n/a	n/a	0	0	0
117694	WORD	wordpools/wasnorm_wordpool_576.txt	LTP283	ltpFR2	13	1	JELLO	754	n/a	n/a	0	0	0
120174	WORD	wordpools/wasnorm_wordpool_576.txt	LTP283	ltpFR2	13	1	PARTNER	1017	n/a	n/a	0	0	0
122786	WORD	wordpools/wasnorm_wordpool_576.txt	LTP283	ltpFR2	13	1	TOURIST	1488	n/a	n/a	0	0	0
125350	WORD	wordpools/wasnorm_wordpool_576.txt	LTP283	ltpFR2	13	1	DRESSER	496	n/a	n/a	0	0	0
128045	WORD	wordpools/wasnorm_wordpool_576.txt	LTP283	ltpFR2	13	1	WARDROBE	1587	n/a	n/a	0	0	0
130725	WORD	wordpools/wasnorm_wordpool_576.txt	LTP283	ltpFR2	13	1	POCKET	1093	n/a	n/a	0	0	0
133188	WORD	wordpools/wasnorm_wordpool_576.txt	LTP283	ltpFR2	13	1	GROUND	666	n/a	n/a	0	0	0
135983	WORD	wordpools/wasnorm_wordpool_576.txt	LTP283	ltpFR2	13	1	PASTA	1021	n/a	n/a	0	0	0
138464	WORD	wordpools/wasnorm_wordpool_576.txt	LTP283	ltpFR2	13	1	FEMALE	559	n/a	n/a	0	0	0
140942	WORD	wordpools/wasnorm_wordpool_576.txt	LTP283	ltpFR2	13	1	GIFT	635	n/a	n/a	0	0	0
143689	WORD	wordpools/wasnorm_wordpool_576.txt	LTP283	ltpFR2	13	1	BOX	159	n/a	n/a	0	0	0
146452	WORD	wordpools/wasnorm_wordpool_576.txt	LTP283	ltpFR2	13	1	GRAVE	658	n/a	n/a	0	0	0
148931	WORD	wordpools/wasnorm_wordpool_576.txt	LTP283	ltpFR2	13	1	SHOVEL	1295	n/a	n/a	0	0	0
151545	WORD	wordpools/wasnorm_wordpool_576.txt	LTP283	ltpFR2	13	1	AIRPLANE	12	n/a	n/a	0	0	0
154040	WORD	wordpools/wasnorm_wordpool_576.txt	LTP283	ltpFR2	13	1	FRIEND	606	n/a	n/a	0	0	0
156537	WORD	wordpools/wasnorm_wordpool_576.txt	LTP283	ltpFR2	13	1	RELISH	1183	n/a	n/a	0	0	0
159350	WORD	wordpools/wasnorm_wordpool_576.txt	LTP283	ltpFR2	13	1	SURVEY	1414	n/a	n/a	0	0	0
160963	START	n/a	LTP283	ltpFR2	13	n/a	n/a	n/a	2	n/a	n/a	n/a	n/a
161770	DISTRACTOR	n/a	LTP283	ltpFR2	13	1	n/a	n/a	n/a	n/a	0	0	0
161779	PROB	n/a	LTP283	ltpFR2	13	n/a	n/a	n/a	2	11	3	6	2
163311	PROB	n/a	LTP283	ltpFR2	13	n/a	n/a	n/a	2	11	9	1	1
164392	PROB	n/a	LTP283	ltpFR2	13	n/a	n/a	n/a	2	20	5	8	7
165674	PROB	n/a	LTP283	ltpFR2	13	n/a	n/a	n/a	2	11	1	1	9
166756	PROB	n/a	LTP283	ltpFR2	13	n/a	n/a	n/a	2	19	4	9	6
168019	PROB	n/a	LTP283	ltpFR2	13	n/a	n/a	n/a	2	16	4	4	8
169385	PROB	n/a	LTP283	ltpFR2	13	n/a	n/a	n/a	2	19	9	7	3
170633	PROB	n/a	LTP283	ltpFR2	13	n/a	n/a	n/a	2	19	7	3	9
172431	PROB	n/a	LTP283	ltpFR2	13	n/a	n/a	n/a	2	20	7	5	8
173662	PROB	n/a	LTP283	ltpFR2	13	n/a	n/a	n/a	2	20	3	8	9
175126	PROB	n/a	LTP283	ltpFR2	13	n/a	n/a	n/a	2	13	7	5	1
176491	PROB	n/a	LTP283	ltpFR2	13	n/a	n/a	n/a	2	20	6	7	7
177788	PROB	n/a	LTP283	ltpFR2	13	n/a	n/a	n/a	2	7	1	3	3
179154	PROB	n/a	LTP283	ltpFR2	13	n/a	n/a	n/a	2	13	1	3	9
180552	PROB	n/a	LTP283	ltpFR2	13	n/a	n/a	n/a	2	6	1	1	4
181650	PROB	n/a	LTP283	ltpFR2	13	n/a	n/a	n/a	2	18	7	9	2
184963	STOP	n/a	LTP283	ltpFR2	13	n/a	n/a	n/a	2	n/a	n/a	n/a	n/a
186842	REC_START	n/a	LTP283	ltpFR2	13	1	n/a	n/a	n/a	n/a	0	0	0
188987	REC_WORD	wordpools/wasnorm_wordpool_576.txt	LTP283	ltpFR2	13	1	FRIEND	606	n/a	n/a	0	0	0
189837	REC_WORD	wordpools/wasnorm_wordpool_576.txt	LTP283	ltpFR2	13	1	AIRPLANE	12	n/a	n/a	0	0	0
190583	REC_WORD	wordpools/wasnorm_wordpool_576.txt	LTP283	ltpFR2	13	1	SURVEY	1414	n/a	n/a	0	0	0
191474	REC_WORD	wordpools/wasnorm_wordpool_576.txt	LTP283	ltpFR2	13	1	RELISH	1183	n/a	n/a	0	0	0
192234	REC_WORD	wordpools/wasnorm_wordpool_576.txt	LTP283	ltpFR2	13	1	SHOVEL	1295	n/a	n/a	0	0	0
193181	REC_WORD	wordpools/wasnorm_wordpool_576.txt	LTP283	ltpFR2	13	1	BOX	159	n/a	n/a	0	0	0
193795	REC_WORD	wordpools/wasnorm_wordpool_576.txt	LTP283	ltpFR2	13	1	GRAVE	658	n/a	n/a	0	0	0
195474	REC_WORD	wordpools/wasnorm_wordpool_576.txt	LTP283	ltpFR2	13	1	TOURIST	1488	n/a	n/a	0	0	0
196104	REC_WORD	wordpools/wasnorm_wordpool_576.txt	LTP283	ltpFR2	13	1	HORSE	719	n/a	n/a	0	0	0
197353	REC_WORD	wordpools/wasnorm_wordpool_576.txt	LTP283	ltpFR2	13	1	WARDROBE	1587	n/a	n/a	0	0	0
198338	REC_WORD_VV	wordpools/wasnorm_wordpool_576.txt	LTP283	ltpFR2	13	1	<>	-1	n/a	n/a	0	0	0
200484	REC_WORD	wordpools/wasnorm_wordpool_576.txt	LTP283	ltpFR2	13	1	DRESSER	496	n/a	n/a	0	0	0
204343	REC_WORD	wordpools/wasnorm_wordpool_576.txt	LTP283	ltpFR2	13	1	CREVICE	405	n/a	n/a	0	0	0
204927	REC_WORD	wordpools/wasnorm_wordpool_576.txt	LTP283	ltpFR2	13	1	DUST	508	n/a	n/a	0	0	0
205345	REC_WORD	wordpools/wasnorm_wordpool_576.txt	LTP283	ltpFR2	13	1	HONEY	713	n/a	n/a	0	0	0
205745	REC_WORD	wordpools/wasnorm_wordpool_576.txt	LTP283	ltpFR2	13	1	RECEIPT	1173	n/a	n/a	0	0	0
206807	REC_WORD	wordpools/wasnorm_wordpool_576.txt	LTP283	ltpFR2	13	1	PLUTO	1092	n/a	n/a	0	0	0
207412	REC_WORD	wordpools/wasnorm_wordpool_576.txt	LTP283	ltpFR2	13	1	OX	994	n/a	n/a	0	0	0
210162	REC_WORD	wordpools/wasnorm_wordpool_576.txt	LTP283	ltpFR2	13	1	GROUND	666	n/a	n/a	0	0	0
211198	REC_WORD	wordpools/wasnorm_wordpool_576.txt	LTP283	ltpFR2	13	1	POCKET	1093	n/a	n/a	0	0	0
238793	REC_WORD	wordpools/wasnorm_wordpool_576.txt	LTP283	ltpFR2	13	1	GIFT	635	n/a	n/a	0	0	0
278258	DISTRACTOR	n/a	LTP283	ltpFR2	13	2	n/a	n/a	n/a	n/a	0	0	0
278258	START	n/a	LTP283	ltpFR2	13	n/a	n/a	n/a	3	n/a	n/a	n/a	n/a
278291	PROB	n/a	LTP283	ltpFR2	13	n/a	n/a	n/a	3	14	3	6	5
281487	PROB	n/a	LTP283	ltpFR2	13	n/a	n/a	n/a	3	9	1	1	7
282569	PROB	n/a	LTP283	ltpFR2	13	n/a	n/a	n/a	3	20	3	3	4
283999	PROB	n/a	LTP283	ltpFR2	13	n/a	n/a	n/a	3	9	3	3	3
285331	PROB	n/a	LTP283	ltpFR2	13	n/a	n/a	n/a	3	15	2	9	4
287312	PROB	n/a	LTP283	ltpFR2	13	n/a	n/a	n/a	3	23	7	8	8
289774	PROB	n/a	LTP283	ltpFR2	13	n/a	n/a	n/a	3	14	5	1	8
291239	PROB	n/a	LTP283	ltpFR2	13	n/a	n/a	n/a	3	10	1	2	7
292371	PROB	n/a	LTP283	ltpFR2	13	n/a	n/a	n/a	3	13	1	7	5
293669	PROB	n/a	LTP283	ltpFR2	13	n/a	n/a	n/a	3	15	6	4	5
294816	PROB	n/a	LTP283	ltpFR2	13	n/a	n/a	n/a	3	11	1	5	5
295915	PROB	n/a	LTP283	ltpFR2	13	n/a	n/a	n/a	3	14	3	9	2
298662	PROB	n/a	LTP283	ltpFR2	13	n/a	n/a	n/a	3	16	5	3	8
299992	PROB	n/a	LTP283	ltpFR2	13	n/a	n/a	n/a	3	19	5	5	9
301108	STOP	n/a	LTP283	ltpFR2	13	n/a	n/a	n/a	3	n/a	n/a	n/a	n/a
303121	WORD	wordpools/wasnorm_wordpool_576.txt	LTP283	ltpFR2	13	2	SPACE	1345	n/a	n/a	0	0	0
305618	WORD	wordpools/wasnorm_wordpool_576.txt	LTP283	ltpFR2	13	2	WASHER	1592	n/a	n/a	0	0	0
308047	WORD	wordpools/wasnorm_wordpool_576.txt	LTP283	ltpFR2	13	2	LEG	809	n/a	n/a	0	0	0
310809	WORD	wordpools/wasnorm_wordpool_576.txt	LTP283	ltpFR2	13	2	ARM	38	n/a	n/a	0	0	0
313257	WORD	wordpools/wasnorm_wordpool_576.txt	LTP283	ltpFR2	13	2	JUDGE	761	n/a	n/a	0	0	0
315952	WORD	wordpools/wasnorm_wordpool_576.txt	LTP283	ltpFR2	13	2	CRIB	407	n/a	n/a	0	0	0
318765	WORD	wordpools/wasnorm_wordpool_576.txt	LTP283	ltpFR2	13	2	MASK	876	n/a	n/a	0	0	0
321561	WORD	wordpools/wasnorm_wordpool_576.txt	LTP283	ltpFR2	13	2	FOREST	593	n/a	n/a	0	0	0
324023	WORD	wordpools/wasnorm_wordpool_576.txt	LTP283	ltpFR2	13	2	NOMAD	955	n/a	n/a	0	0	0
326587	WORD	wordpools/wasnorm_wordpool_576.txt	LTP283	ltpFR2	13	2	LADY	794	n/a	n/a	0	0	0
329300	WORD	wordpools/wasnorm_wordpool_576.txt	LTP283	ltpFR2	13	2	POWDER	1117	n/a	n/a	0	0	0
331845	WORD	wordpools/wasnorm_wordpool_576.txt	LTP283	ltpFR2	13	2	GREASE	660	n/a	n/a	0	0	0
334342	WORD	wordpools/wasnorm_wordpool_576.txt	LTP283	ltpFR2	13	2	GAVEL	627	n/a	n/a	0	0	0
336804	WORD	wordpools/wasnorm_wordpool_576.txt	LTP283	ltpFR2	13	2	RIFLE	1192	n/a	n/a	0	0	0
339318	WORD	wordpools/wasnorm_wordpool_576.txt	LTP283	ltpFR2	13	2	LETTUCE	814	n/a	n/a	0	0	0
341847	WORD	wordpools/wasnorm_wordpool_576.txt	LTP283	ltpFR2	13	2	TWEEZERS	1526	n/a	n/a	0	0	0
344644	WORD	wordpools/wasnorm_wordpool_576.txt	LTP283	ltpFR2	13	2	COOK	372	n/a	n/a	0	0	0
347373	WORD	wordpools/wasnorm_wordpool_576.txt	LTP283	ltpFR2	13	2	BEEF	113	n/a	n/a	0	0	0
350186	WORD	wordpools/wasnorm_wordpool_576.txt	LTP283	ltpFR2	13	2	ROOSTER	1209	n/a	n/a	0	0	0
352615	WORD	wordpools/wasnorm_wordpool_576.txt	LTP283	ltpFR2	13	2	YOLK	1633	n/a	n/a	0	0	0
355278	WORD	wordpools/wasnorm_wordpool_576.txt	LTP283	ltpFR2	13	2	FRIAR	605	n/a	n/a	0	0	0
357824	WORD	wordpools/wasnorm_wordpool_576.txt	LTP283	ltpFR2	13	2	GAZELLE	628	n/a	n/a	0	0	0
360421	WORD	wordpools/wasnorm_wordpool_576.txt	LTP283	ltpFR2	13	2	STOVE	1388	n/a	n/a	0	0	0
363049	WORD	wordpools/wasnorm_wordpool_576.txt	LTP283	ltpFR2	13	2	JURY	766	n/a	n/a	0	0	0
364665	START	n/a	LTP283	ltpFR2	13	n/a	n/a	n/a	4	n/a	n/a	n/a	n/a
365799	DISTRACTOR	n/a	LTP283	ltpFR2	13	2	n/a	n/a	n/a	n/a	0	0	0
365812	PROB	n/a	LTP283	ltpFR2	13	n/a	n/a	n/a	4	14	3	3	8
367394	PROB	n/a	LTP283	ltpFR2	13	n/a	n/a	n/a	4	15	5	4	6
368642	PROB	n/a	LTP283	ltpFR2	13	n/a	n/a	n/a	4	11	5	7	9
372136	PROB	n/a	LTP283	ltpFR2	13	n/a	n/a	n/a	4	24	6	9	9
375830	PROB	n/a	LTP283	ltpFR2	13	n/a	n/a	n/a	4	24	9	8	7
378077	PROB	n/a	LTP283	ltpFR2	13	n/a	n/a	n/a	4	11	1	2	8
379409	PROB	n/a	LTP283	ltpFR2	13	n/a	n/a	n/a	4	18	8	9	1
380608	PROB	n/a	LTP283	ltpFR2	13	n/a	n/a	n/a	4	9	1	6	2
381888	PROB	n/a	LTP283	ltpFR2	13	n/a	n/a	n/a	4	15	8	4	3
383603	PROB	n/a	LTP283	ltpFR2	13	n/a	n/a	n/a	4	5	3	1	1
384602	PROB	n/a	LTP283	ltpFR2	13	n/a	n/a	n/a	4	17	9	4	4
386065	PROB	n/a	LTP283	ltpFR2	13	n/a	n/a	n/a	4	12	7	4	1
388263	STOP	n/a	LTP283	ltpFR2	13	n/a	n/a	n/a	4	n/a	n/a	n/a	n/a
390460	REC_START	n/a	LTP283	ltpFR2	13	2	n/a	n/a	n/a	n/a	0	0	0
392267	REC_WORD	wordpools/wasnorm_wordpool_576.txt	LTP283	ltpFR2	13	2	SPACE	1345	n/a	n/a	0	0	0
393222	REC_WORD	wordpools/wasnorm_wordpool_576.txt	LTP283	ltpFR2	13	2	WASHER	1592	n/a	n/a	0	0	0
396060	REC_WORD	wordpools/wasnorm_wordpool_576.txt	LTP283	ltpFR2	13	2	LEG	809	n/a	n/a	0	0	0
396330	REC_WORD	wordpools/wasnorm_wordpool_576.txt	LTP283	ltpFR2	13	2	ARM	38	n/a	n/a	0	0	0
396697	REC_WORD	wordpools/wasnorm_wordpool_576.txt	LTP283	ltpFR2	13	2	CRIB	407	n/a	n/a	0	0	0
398432	REC_WORD	wordpools/wasnorm_wordpool_576.txt	LTP283	ltpFR2	13	2	MASK	876	n/a	n/a	0	0	0
403180	REC_WORD	wordpools/wasnorm_wordpool_576.txt	LTP283	ltpFR2	13	2	JUDGE	761	n/a	n/a	0	0	0
403628	REC_WORD	wordpools/wasnorm_wordpool_576.txt	LTP283	ltpFR2	13	2	JURY	766	n/a	n/a	0	0	0
404859	REC_WORD	wordpools/wasnorm_wordpool_576.txt	LTP283	ltpFR2	13	2	GAVEL	627	n/a	n/a	0	0	0
413147	REC_WORD	wordpools/wasnorm_wordpool_576.txt	LTP283	ltpFR2	13	2	NOMAD	955	n/a	n/a	0	0	0
415911	REC_WORD	wordpools/wasnorm_wordpool_576.txt	LTP283	ltpFR2	13	2	FOREST	593	n/a	n/a	0	0	0
420116	REC_WORD	wordpools/wasnorm_wordpool_576.txt	LTP283	ltpFR2	13	2	POWDER	1117	n/a	n/a	0	0	0
423366	REC_WORD	wordpools/wasnorm_wordpool_576.txt	LTP283	ltpFR2	13	2	LADY	794	n/a	n/a	0	0	0
424734	REC_WORD	wordpools/wasnorm_wordpool_576.txt	LTP283	ltpFR2	13	2	GREASE	660	n/a	n/a	0	0	0
425888	REC_WORD	wordpools/wasnorm_wordpool_576.txt	LTP283	ltpFR2	13	2	RIFLE	1192	n/a	n/a	0	0	0
428273	REC_WORD_VV	wordpools/wasnorm_wordpool_576.txt	LTP283	ltpFR2	13	2	<>	-1	n/a	n/a	0	0	0
429761	REC_WORD	wordpools/wasnorm_wordpool_576.txt	LTP283	ltpFR2	13	2	FRIAR	605	n/a	n/a	0	0	0
430393	REC_WORD	wordpools/wasnorm_wordpool_576.txt	LTP283	ltpFR2	13	2	STOVE	1388	n/a	n/a	0	0	0
432753	REC_WORD	wordpools/wasnorm_wordpool_576.txt	LTP283	ltpFR2	13	2	LETTUCE	814	n/a	n/a	0	0	0
433476	REC_WORD	wordpools/wasnorm_wordpool_576.txt	LTP283	ltpFR2	13	2	BEEF	113	n/a	n/a	0	0	0
434533	REC_WORD	wordpools/wasnorm_wordpool_576.txt	LTP283	ltpFR2	13	2	GAZELLE	628	n/a	n/a	0	0	0
481092	DISTRACTOR	n/a	LTP283	ltpFR2	13	3	n/a	n/a	n/a	n/a	0	0	0
481092	START	n/a	LTP283	ltpFR2	13	n/a	n/a	n/a	5	n/a	n/a	n/a	n/a
481125	PROB	n/a	LTP283	ltpFR2	13	n/a	n/a	n/a	5	19	8	7	4
482724	PROB	n/a	LTP283	ltpFR2	13	n/a	n/a	n/a	5	8	6	1	1
483788	PROB	n/a	LTP283	ltpFR2	13	n/a	n/a	n/a	5	12	5	1	6
484920	PROB	n/a	LTP283	ltpFR2	13	n/a	n/a	n/a	5	16	5	6	5
486369	PROB	n/a	LTP283	ltpFR2	13	n/a	n/a	n/a	5	18	7	3	8
487550	PROB	n/a	LTP283	ltpFR2	13	n/a	n/a	n/a	5	18	9	7	2
488997	PROB	n/a	LTP283	ltpFR2	13	n/a	n/a	n/a	5	15	7	5	3
490596	PROB	n/a	LTP283	ltpFR2	13	n/a	n/a	n/a	5	10	4	2	4
491843	PROB	n/a	LTP283	ltpFR2	13	n/a	n/a	n/a	5	10	2	3	5
493141	PROB	n/a	LTP283	ltpFR2	13	n/a	n/a	n/a	5	13	1	3	9
494424	PROB	n/a	LTP283	ltpFR2	13	n/a	n/a	n/a	5	9	5	1	3
495738	PROB	n/a	LTP283	ltpFR2	13	n/a	n/a	n/a	5	15	7	3	5
497303	PROB	n/a	LTP283	ltpFR2	13	n/a	n/a	n/a	5	22	8	5	9
499450	PROB	n/a	LTP283	ltpFR2	13	n/a	n/a	n/a	5	12	9	2	1
500648	PROB	n/a	LTP283	ltpFR2	13	n/a	n/a	n/a	5	9	1	7	1
501828	PROB	n/a	LTP283	ltpFR2	13	n/a	n/a	n/a	5	10	3	1	6
503110	PROB	n/a	LTP283	ltpFR2	13	n/a	n/a	n/a	5	8	2	2	4
504297	STOP	n/a	LTP283	ltpFR2	13	n/a	n/a	n/a	5	n/a	n/a	n/a	n/a
506122	WORD	wordpools/wasnorm_wordpool_576.txt	LTP283	ltpFR2	13	3	STALLION	1369	n/a	n/a	0	0	0
508619	WORD	wordpools/wasnorm_wordpool_576.txt	LTP283	ltpFR2	13	3	ANTLER	29	n/a	n/a	0	0	0
511415	WORD	wordpools/wasnorm_wordpool_576.txt	LTP283	ltpFR2	13	3	EYELASH	546	n/a	n/a	0	0	0
513994	WORD	wordpools/wasnorm_wordpool_576.txt	LTP283	ltpFR2	13	3	MARROW	872	n/a	n/a	0	0	0
516674	WORD	wordpools/wasnorm_wordpool_576.txt	LTP283	ltpFR2	13	3	TUBA	1515	n/a	n/a	0	0	0
519304	WORD	wordpools/wasnorm_wordpool_576.txt	LTP283	ltpFR2	13	3	RECORD	1176	n/a	n/a	0	0	0
521849	WORD	wordpools/wasnorm_wordpool_576.txt	LTP283	ltpFR2	13	3	ELBOW	520	n/a	n/a	0	0	0
524629	WORD	wordpools/wasnorm_wordpool_576.txt	LTP283	ltpFR2	13	3	DIVER	476	n/a	n/a	0	0	0
527342	WORD	wordpools/wasnorm_wordpool_576.txt	LTP283	ltpFR2	13	3	DRINK	498	n/a	n/a	0	0	0
529920	WORD	wordpools/wasnorm_wordpool_576.txt	LTP283	ltpFR2	13	3	SAUSAGE	1238	n/a	n/a	0	0	0
532651	WORD	wordpools/wasnorm_wordpool_576.txt	LTP283	ltpFR2	13	3	BRANCH	168	n/a	n/a	0	0	0
535447	WORD	wordpools/wasnorm_wordpool_576.txt	LTP283	ltpFR2	13	3	SCOTCH	1251	n/a	n/a	0	0	0
538042	WORD	wordpools/wasnorm_wordpool_576.txt	LTP283	ltpFR2	13	3	PIGEON	1065	n/a	n/a	0	0	0
540473	WORD	wordpools/wasnorm_wordpool_576.txt	LTP283	ltpFR2	13	3	MILDEW	893	n/a	n/a	0	0	0
543118	WORD	wordpools/wasnorm_wordpool_576.txt	LTP283	ltpFR2	13	3	MUMMY	932	n/a	n/a	0	0	0
545548	WORD	wordpools/wasnorm_wordpool_576.txt	LTP283	ltpFR2	13	3	DAUGHTER	442	n/a	n/a	0	0	0
548278	WORD	wordpools/wasnorm_wordpool_576.txt	LTP283	ltpFR2	13	3	RAZOR	1171	n/a	n/a	0	0	0
550823	WORD	wordpools/wasnorm_wordpool_576.txt	LTP283	ltpFR2	13	3	BLADE	134	n/a	n/a	0	0	0
553320	WORD	wordpools/wasnorm_wordpool_576.txt	LTP283	ltpFR2	13	3	CHILD	299	n/a	n/a	0	0	0
555982	WORD	wordpools/wasnorm_wordpool_576.txt	LTP283	ltpFR2	13	3	WHISKERS	1605	n/a	n/a	0	0	0
558513	WORD	wordpools/wasnorm_wordpool_576.txt	LTP283	ltpFR2	13	3	LAKE	796	n/a	n/a	0	0	0
560991	WORD	wordpools/wasnorm_wordpool_576.txt	LTP283	ltpFR2	13	3	FLASK	576	n/a	n/a	0	0	0
563821	WORD	wordpools/wasnorm_wordpool_576.txt	LTP283	ltpFR2	13	3	MAPLE	866	n/a	n/a	0	0	0
566318	WORD	wordpools/wasnorm_wordpool_576.txt	LTP283	ltpFR2	13	3	GRAPE	654	n/a	n/a	0	0	0
567931	START	n/a	LTP283	ltpFR2	13	n/a	n/a	n/a	6	n/a	n/a	n/a	n/a
568820	DISTRACTOR	n/a	LTP283	ltpFR2	13	3	n/a	n/a	n/a	n/a	0	0	0
568830	PROB	n/a	LTP283	ltpFR2	13	n/a	n/a	n/a	6	12	7	2	2
571427	PROB	n/a	LTP283	ltpFR2	13	n/a	n/a	n/a	6	15	9	3	3
572758	PROB	n/a	LTP283	ltpFR2	13	n/a	n/a	n/a	6	13	1	4	8
574921	PROB	n/a	LTP283	ltpFR2	13	n/a	n/a	n/a	6	20	7	6	7
576253	PROB	n/a	LTP283	ltpFR2	13	n/a	n/a	n/a	6	10	1	5	4
577402	PROB	n/a	LTP283	ltpFR2	13	n/a	n/a	n/a	6	17	6	7	4
579315	PROB	n/a	LTP283	ltpFR2	13	n/a	n/a	n/a	6	13	5	4	4
581362	PROB	n/a	LTP283	ltpFR2	13	n/a	n/a	n/a	6	15	8	4	3
582893	PROB	n/a	LTP283	ltpFR2	13	n/a	n/a	n/a	6	23	8	9	6
584741	PROB	n/a	LTP283	ltpFR2	13	n/a	n/a	n/a	6	7	2	4	1
587103	PROB	n/a	LTP283	ltpFR2	13	n/a	n/a	n/a	6	12	4	6	2
588236	PROB	n/a	LTP283	ltpFR2	13	n/a	n/a	n/a	6	13	3	1	9
590199	PROB	n/a	LTP283	ltpFR2	13	n/a	n/a	n/a	6	13	1	6	6
591507	STOP	n/a	LTP283	ltpFR2	13	n/a	n/a	n/a	6	n/a	n/a	n/a	n/a
593728	REC_START	n/a	LTP283	ltpFR2	13	3	n/a	n/a	n/a	n/a	0	0	0
595703	REC_WORD	wordpools/wasnorm_wordpool_576.txt	LTP283	ltpFR2	13	3	LAKE	796	n/a	n/a	0	0	0
596306	REC_WORD	wordpools/wasnorm_wordpool_576.txt	LTP283	ltpFR2	13	3	GRAPE	654	n/a	n/a	0	0	0
596933	REC_WORD	wordpools/wasnorm_wordpool_576.txt	LTP283	ltpFR2	13	3	MAPLE	866	n/a	n/a	0	0	0
597452	REC_WORD	wordpools/wasnorm_wordpool_576.txt	LTP283	ltpFR2	13	3	FLASK	576	n/a	n/a	0	0	0
599108	REC_WORD	wordpools/wasnorm_wordpool_576.txt	LTP283	ltpFR2	13	3	WHISKERS	1605	n/a	n/a	0	0	0
600085	REC_WORD	wordpools/wasnorm_wordpool_576.txt	LTP283	ltpFR2	13	3	DAUGHTER	442	n/a	n/a	0	0	0
600600	REC_WORD	wordpools/wasnorm_wordpool_576.txt	LTP283	ltpFR2	13	3	CHILD	299	n/a	n/a	0	0	0
603941	REC_WORD	wordpools/wasnorm_wordpool_576.txt	LTP283	ltpFR2	13	3	SCOTCH	1251	n/a	n/a	0	0	0
604941	REC_WORD_VV	wordpools/wasnorm_wordpool_576.txt	LTP283	ltpFR2	13	3	<>	-1	n/a	n/a	0	0	0
610324	REC_WORD	wordpools/wasnorm_wordpool_576.txt	LTP283	ltpFR2	13	3	BRANCH	168	n/a	n/a	0	0	0
619908	REC_WORD	wordpools/wasnorm_wordpool_576.txt	LTP283	ltpFR2	13	3	ANTLER	29	n/a	n/a	0	0	0
620490	REC_WORD	wordpools/wasnorm_wordpool_576.txt	LTP283	ltpFR2	13	3	STALLION	1369	n/a	n/a	0	0	0
623011	REC_WORD	wordpools/wasnorm_wordpool_576.txt	LTP283	ltpFR2	13	3	MARROW	872	n/a	n/a	0	0	0
623740	REC_WORD	wordpools/wasnorm_wordpool_576.txt	LTP283	ltpFR2	13	3	ELBOW	520	n/a	n/a	0	0	0
625425	REC_WORD	wordpools/wasnorm_wordpool_576.txt	LTP283	ltpFR2	13	3	SAUSAGE	1238	n/a	n/a	0	0	0
632484	REC_WORD	wordpools/wasnorm_wordpool_576.txt	LTP283	ltpFR2	13	3	EYELASH	546	n/a	n/a	0	0	0
636524	REC_WORD	wordpools/wasnorm_wordpool_576.txt	LTP283	ltpFR2	13	3	RAZOR	1171	n/a	n/a	0	0	0
637572	REC_WORD	wordpools/wasnorm_wordpool_576.txt	LTP283	ltpFR2	13	3	BLADE	134	n/a	n/a	0	0	0
684361	DISTRACTOR	n/a	LTP283	ltpFR2	13	4	n/a	n/a	n/a	n/a	0	0	0
684361	START	n/a	LTP283	ltpFR2	13	n/a	n/a	n/a	7	n/a	n/a	n/a	n/a
684394	PROB	n/a	LTP283	ltpFR2	13	n/a	n/a	n/a	7	13	5	4	4
686008	PROB	n/a	LTP283	ltpFR2	13	n/a	n/a	n/a	7	5	1	1	3
687023	PROB	n/a	LTP283	ltpFR2	13	n/a	n/a	n/a	7	17	7	9	1
688172	PROB	n/a	LTP283	ltpFR2	13	n/a	n/a	n/a	7	14	6	5	3
690236	PROB	n/a	LTP283	ltpFR2	13	n/a	n/a	n/a	7	14	3	5	6
692599	PROB	n/a	LTP283	ltpFR2	13	n/a	n/a	n/a	7	17	7	7	5
694363	PROB	n/a	LTP283	ltpFR2	13	n/a	n/a	n/a	7	17	8	1	8
696059	PROB	n/a	LTP283	ltpFR2	13	n/a	n/a	n/a	7	13	3	6	4
697525	PROB	n/a	LTP283	ltpFR2	13	n/a	n/a	n/a	7	14	3	9	2
699105	PROB	n/a	LTP283	ltpFR2	13	n/a	n/a	n/a	7	16	6	6	4
700354	PROB	n/a	LTP283	ltpFR2	13	n/a	n/a	n/a	7	13	1	6	6
701636	PROB	n/a	LTP283	ltpFR2	13	n/a	n/a	n/a	7	10	3	3	4
703049	PROB	n/a	LTP283	ltpFR2	13	n/a	n/a	n/a	7	12	3	2	7
704515	PROB	n/a	LTP283	ltpFR2	13	n/a	n/a	n/a	7	19	9	6	4
705778	PROB	n/a	LTP283	ltpFR2	13	n/a	n/a	n/a	7	8	2	3	3
706933	STOP	n/a	LTP283	ltpFR2	13	n/a	n/a	n/a	7	n/a	n/a	n/a	n/a
709357	WORD	wordpools/wasnorm_wordpool_576.txt	LTP283	ltpFR2	13	4	YARN	1631	n/a	n/a	0	0	0
711936	WORD	wordpools/wasnorm_wordpool_576.txt	LTP283	ltpFR2	13	4	VAGRANT	1544	n/a	n/a	0	0	0
714583	WORD	wordpools/wasnorm_wordpool_576.txt	LTP283	ltpFR2	13	4	HORNET	718	n/a	n/a	0	0	0
717196	WORD	wordpools/wasnorm_wordpool_576.txt	LTP283	ltpFR2	13	4	SPONGE	1355	n/a	n/a	0	0	0
720024	WORD	wordpools/wasnorm_wordpool_576.txt	LTP283	ltpFR2	13	4	TRACTOR	1493	n/a	n/a	0	0	0
722455	WORD	wordpools/wasnorm_wordpool_576.txt	LTP283	ltpFR2	13	4	PLIERS	1089	n/a	n/a	0	0	0
725184	WORD	wordpools/wasnorm_wordpool_576.txt	LTP283	ltpFR2	13	4	PADDLE	1000	n/a	n/a	0	0	0
727963	WORD	wordpools/wasnorm_wordpool_576.txt	LTP283	ltpFR2	13	4	HOUND	724	n/a	n/a	0	0	0
730710	WORD	wordpools/wasnorm_wordpool_576.txt	LTP283	ltpFR2	13	4	TRENCH	1503	n/a	n/a	0	0	0
733522	WORD	wordpools/wasnorm_wordpool_576.txt	LTP283	ltpFR2	13	4	PRINCESS	1125	n/a	n/a	0	0	0
736067	WORD	wordpools/wasnorm_wordpool_576.txt	LTP283	ltpFR2	13	4	TRIBE	1505	n/a	n/a	0	0	0
738813	WORD	wordpools/wasnorm_wordpool_576.txt	LTP283	ltpFR2	13	4	BACKBONE	66	n/a	n/a	0	0	0
741510	WORD	wordpools/wasnorm_wordpool_576.txt	LTP283	ltpFR2	13	4	CHAPEL	280	n/a	n/a	0	0	0
744190	WORD	wordpools/wasnorm_wordpool_576.txt	LTP283	ltpFR2	13	4	CHURCH	307	n/a	n/a	0	0	0
746686	WORD	wordpools/wasnorm_wordpool_576.txt	LTP283	ltpFR2	13	4	PEANUT	1032	n/a	n/a	0	0	0
749266	WORD	wordpools/wasnorm_wordpool_576.txt	LTP283	ltpFR2	13	4	PIZZA	1079	n/a	n/a	0	0	0
752044	WORD	wordpools/wasnorm_wordpool_576.txt	LTP283	ltpFR2	13	4	COUCH	386	n/a	n/a	0	0	0
754491	WORD	wordpools/wasnorm_wordpool_576.txt	LTP283	ltpFR2	13	4	RACKET	1155	n/a	n/a	0	0	0
757220	WORD	wordpools/wasnorm_wordpool_576.txt	LTP283	ltpFR2	13	4	LION	827	n/a	n/a	0	0	0
759866	WORD	wordpools/wasnorm_wordpool_576.txt	LTP283	ltpFR2	13	4	BEAST	108	n/a	n/a	0	0	0
762346	WORD	wordpools/wasnorm_wordpool_576.txt	LTP283	ltpFR2	13	4	THREAD	1460	n/a	n/a	0	0	0
764958	WORD	wordpools/wasnorm_wordpool_576.txt	LTP283	ltpFR2	13	4	BUCKET	184	n/a	n/a	0	0	0
767539	WORD	wordpools/wasnorm_wordpool_576.txt	LTP283	ltpFR2	13	4	TABLE	1426	n/a	n/a	0	0	0
770285	WORD	wordpools/wasnorm_wordpool_576.txt	LTP283	ltpFR2	13	4	CATCHER	258	n/a	n/a	0	0	0
771898	START	n/a	LTP283	ltpFR2	13	n/a	n/a	n/a	8	n/a	n/a	n/a	n/a
773009	DISTRACTOR	n/a	LTP283	ltpFR2	13	4	n/a	n/a	n/a	n/a	0	0	0
773013	PROB	n/a	LTP283	ltpFR2	13	n/a	n/a	n/a	8	11	4	6	1
774196	PROB	n/a	LTP283	ltpFR2	13	n/a	n/a	n/a	8	20	8	4	8
775527	PROB	n/a	LTP283	ltpFR2	13	n/a	n/a	n/a	8	19	8	9	2
777124	PROB	n/a	LTP283	ltpFR2	13	n/a	n/a	n/a	8	17	9	7	1
778356	PROB	n/a	LTP283	ltpFR2	13	n/a	n/a	n/a	8	9	3	5	1
779688	PROB	n/a	LTP283	ltpFR2	13	n/a	n/a	n/a	8	17	8	4	5
781285	PROB	n/a	LTP283	ltpFR2	13	n/a	n/a	n/a	8	18	4	6	8
782567	PROB	n/a	LTP283	ltpFR2	13	n/a	n/a	n/a	8	117	1	8	8
783947	PROB	n/a	LTP283	ltpFR2	13	n/a	n/a	n/a	8	7	1	3	3
785346	PROB	n/a	LTP283	ltpFR2	13	n/a	n/a	n/a	8	15	7	7	1
786710	PROB	n/a	LTP283	ltpFR2	13	n/a	n/a	n/a	8	15	8	4	3
788425	PROB	n/a	LTP283	ltpFR2	13	n/a	n/a	n/a	8	10	3	4	3
790355	PROB	n/a	LTP283	ltpFR2	13	n/a	n/a	n/a	8	15	3	7	5
792152	PROB	n/a	LTP283	ltpFR2	13	n/a	n/a	n/a	8	16	8	1	7
793832	PROB	n/a	LTP283	ltpFR2	13	n/a	n/a	n/a	8	22	9	5	8
795472	STOP	n/a	LTP283	ltpFR2	13	n/a	n/a	n/a	8	n/a	n/a	n/a	n/a
797745	REC_START	n/a	LTP283	ltpFR2	13	4	n/a	n/a	n/a	n/a	0	0	0
799388	REC_WORD	wordpools/wasnorm_wordpool_576.txt	LTP283	ltpFR2	13	4	LION	827	n/a	n/a	0	0	0
800178	REC_WORD	wordpools/wasnorm_wordpool_576.txt	LTP283	ltpFR2	13	4	BUCKET	184	n/a	n/a	0	0	0
800805	REC_WORD	wordpools/wasnorm_wordpool_576.txt	LTP283	ltpFR2	13	4	CATCHER	258	n/a	n/a	0	0	0
805092	REC_WORD	wordpools/wasnorm_wordpool_576.txt	LTP283	ltpFR2	13	4	CHAPEL	280	n/a	n/a	0	0	0
805631	REC_WORD	wordpools/wasnorm_wordpool_576.txt	LTP283	ltpFR2	13	4	CHURCH	307	n/a	n/a	0	0	0
806421	REC_WORD	wordpools/wasnorm_wordpool_576.txt	LTP283	ltpFR2	13	4	PRINCESS	1125	n/a	n/a	0	0	0
807107	REC_WORD	wordpools/wasnorm_wordpool_576.txt	LTP283	ltpFR2	13	4	BACKBONE	66	n/a	n/a	0	0	0
807884	REC_WORD	wordpools/wasnorm_wordpool_576.txt	LTP283	ltpFR2	13	4	VAGRANT	1544	n/a	n/a	0	0	0
810421	REC_WORD_VV	wordpools/wasnorm_wordpool_576.txt	LTP283	ltpFR2	13	4	<>	-1	n/a	n/a	0	0	0
811421	REC_WORD_VV	wordpools/wasnorm_wordpool_576.txt	LTP283	ltpFR2	13	4	<>	-1	n/a	n/a	0	0	0
812434	REC_WORD	wordpools/wasnorm_wordpool_576.txt	LTP283	ltpFR2	13	4	BEAST	108	n/a	n/a	0	0	0
812919	REC_WORD	wordpools/wasnorm_wordpool_576.txt	LTP283	ltpFR2	13	4	COUCH	386	n/a	n/a	0	0	0
813993	REC_WORD	wordpools/wasnorm_wordpool_576.txt	LTP283	ltpFR2	13	4	THREAD	1460	n/a	n/a	0	0	0
815429	REC_WORD	wordpools/wasnorm_wordpool_576.txt	LTP283	ltpFR2	13	4	YARN	1631	n/a	n/a	0	0	0
816133	REC_WORD	wordpools/wasnorm_wordpool_576.txt	LTP283	ltpFR2	13	4	SPONGE	1355	n/a	n/a	0	0	0
817133	REC_WORD_VV	wordpools/wasnorm_wordpool_576.txt	LTP283	ltpFR2	13	4	<>	-1	n/a	n/a	0	0	0
818514	REC_WORD	wordpools/wasnorm_wordpool_576.txt	LTP283	ltpFR2	13	4	TRACTOR	1493	n/a	n/a	0	0	0
819699	REC_WORD	wordpools/wasnorm_wordpool_576.txt	LTP283	ltpFR2	13	4	PLIERS	1089	n/a	n/a	0	0	0
820634	REC_WORD	wordpools/wasnorm_wordpool_576.txt	LTP283	ltpFR2	13	4	PADDLE	1000	n/a	n/a	0	0	0
826160	REC_WORD	wordpools/wasnorm_wordpool_576.txt	LTP283	ltpFR2	13	4	HOUND	724	n/a	n/a	0	0	0
826884	REC_WORD	wordpools/wasnorm_wordpool_576.txt	LTP283	ltpFR2	13	4	TRENCH	1503	n/a	n/a	0	0	0
836251	REC_WORD	wordpools/wasnorm_wordpool_576.txt	LTP283	ltpFR2	13	4	TRIBE	1505	n/a	n/a	0	0	0
904037	WORD	wordpools/wasnorm_wordpool_576.txt	LTP283	ltpFR2	13	5	BUGGY	188	n/a	n/a	0	0	0
906783	WORD	wordpools/wasnorm_wordpool_576.txt	LTP283	ltpFR2	13	5	SPOON	1357	n/a	n/a	0	0	0
909580	WORD	wordpools/wasnorm_wordpool_576.txt	LTP283	ltpFR2	13	5	CRATER	400	n/a	n/a	0	0	0
912009	WORD	wordpools/wasnorm_wordpool_576.txt	LTP283	ltpFR2	13	5	ZEBRA	1635	n/a	n/a	0	0	0
914523	WORD	wordpools/wasnorm_wordpool_576.txt	LTP283	ltpFR2	13	5	IGLOO	734	n/a	n/a	0	0	0
917185	WORD	wordpools/wasnorm_wordpool_576.txt	LTP283	ltpFR2	13	5	KLEENEX	782	n/a	n/a	0	0	0
919632	WORD	wordpools/wasnorm_wordpool_576.txt	LTP283	ltpFR2	13	5	CABIN	211	n/a	n/a	0	0	0
922394	WORD	wordpools/wasnorm_wordpool_576.txt	LTP283	ltpFR2	13	5	BRICK	172	n/a	n/a	0	0	0
925073	WORD	wordpools/wasnorm_wordpool_576.txt	LTP283	ltpFR2	13	5	ICING	732	n/a	n/a	0	0	0
927503	WORD	wordpools/wasnorm_wordpool_576.txt	LTP283	ltpFR2	13	5	BANK	83	n/a	n/a	0	0	0
930065	WORD	wordpools/wasnorm_wordpool_576.txt	LTP283	ltpFR2	13	5	MARSH	874	n/a	n/a	0	0	0
932878	WORD	wordpools/wasnorm_wordpool_576.txt	LTP283	ltpFR2	13	5	ASIA	46	n/a	n/a	0	0	0
935675	WORD	wordpools/wasnorm_wordpool_576.txt	LTP283	ltpFR2	13	5	WAITER	1580	n/a	n/a	0	0	0
938271	WORD	wordpools/wasnorm_wordpool_576.txt	LTP283	ltpFR2	13	5	MOTEL	919	n/a	n/a	0	0	0
940800	WORD	wordpools/wasnorm_wordpool_576.txt	LTP283	ltpFR2	13	5	DONKEY	484	n/a	n/a	0	0	0
943247	WORD	wordpools/wasnorm_wordpool_576.txt	LTP283	ltpFR2	13	5	CHIPMUNK	304	n/a	n/a	0	0	0
945693	WORD	wordpools/wasnorm_wordpool_576.txt	LTP283	ltpFR2	13	5	PUDDLE	1140	n/a	n/a	0	0	0
948240	WORD	wordpools/wasnorm_wordpool_576.txt	LTP283	ltpFR2	13	5	CABBAGE	210	n/a	n/a	0	0	0
950835	WORD	wordpools/wasnorm_wordpool_576.txt	LTP283	ltpFR2	13	5	THIEF	1456	n/a	n/a	0	0	0
953515	WORD	wordpools/wasnorm_wordpool_576.txt	LTP283	ltpFR2	13	5	ISLAND	745	n/a	n/a	0	0	0
956077	WORD	wordpools/wasnorm_wordpool_576.txt	LTP283	ltpFR2	13	5	STICKER	1382	n/a	n/a	0	0	0
958840	WORD	wordpools/wasnorm_wordpool_576.txt	LTP283	ltpFR2	13	5	BUBBLE	183	n/a	n/a	0	0	0
961320	WORD	wordpools/wasnorm_wordpool_576.txt	LTP283	ltpFR2	13	5	OMELET	976	n/a	n/a	0	0	0
963999	WORD	wordpools/wasnorm_wordpool_576.txt	LTP283	ltpFR2	13	5	DENTIST	447	n/a	n/a	0	0	0
965614	START	n/a	LTP283	ltpFR2	13	n/a	n/a	n/a	9	n/a	n/a	n/a	n/a
966454	DISTRACTOR	n/a	LTP283	ltpFR2	13	5	n/a	n/a	n/a	n/a	0	0	0
966463	PROB	n/a	LTP283	ltpFR2	13	n/a	n/a	n/a	9	10	3	2	5
967793	PROB	n/a	LTP283	ltpFR2	13	n/a	n/a	n/a	9	12	1	8	3
969242	PROB	n/a	LTP283	ltpFR2	13	n/a	n/a	n/a	9	20	7	9	4
970723	PROB	n/a	LTP283	ltpFR2	13	n/a	n/a	n/a	9	10	2	6	2
971970	PROB	n/a	LTP283	ltpFR2	13	n/a	n/a	n/a	9	7	1	3	3
973336	PROB	n/a	LTP283	ltpFR2	13	n/a	n/a	n/a	9	9	4	1	4
974534	PROB	n/a	LTP283	ltpFR2	13	n/a	n/a	n/a	9	16	8	4	4
976432	PROB	n/a	LTP283	ltpFR2	13	n/a	n/a	n/a	9	11	4	5	2
978145	PROB	n/a	LTP283	ltpFR2	13	n/a	n/a	n/a	9	7	1	2	4
979809	PROB	n/a	LTP283	ltpFR2	13	n/a	n/a	n/a	9	19	8	8	3
981308	PROB	n/a	LTP283	ltpFR2	13	n/a	n/a	n/a	9	13	8	3	2
982706	PROB	n/a	LTP283	ltpFR2	13	n/a	n/a	n/a	9	11	1	6	4
983737	PROB	n/a	LTP283	ltpFR2	13	n/a	n/a	n/a	9	16	6	2	8
984935	PROB	n/a	LTP283	ltpFR2	13	n/a	n/a	n/a	9	17	5	5	7
986116	PROB	n/a	LTP283	ltpFR2	13	n/a	n/a	n/a	9	13	2	9	2
987632	PROB	n/a	LTP283	ltpFR2	13	n/a	n/a	n/a	9	12	4	4	4
988644	STOP	n/a	LTP283	ltpFR2	13	n/a	n/a	n/a	9	n/a	n/a	n/a	n/a
991526	REC_START	n/a	LTP283	ltpFR2	13	5	n/a	n/a	n/a	n/a	0	0	0
993883	REC_WORD	wordpools/wasnorm_wordpool_576.txt	LTP283	ltpFR2	13	5	ISLAND	745	n/a	n/a	0	0	0
994568	REC_WORD	wordpools/wasnorm_wordpool_576.txt	LTP283	ltpFR2	13	5	BUBBLE	183	n/a	n/a	0	0	0
995115	REC_WORD	wordpools/wasnorm_wordpool_576.txt	LTP283	ltpFR2	13	5	STICKER	1382	n/a	n/a	0	0	0
995951	REC_WORD	wordpools/wasnorm_wordpool_576.txt	LTP283	ltpFR2	13	5	OMELET	976	n/a	n/a	0	0	0
996639	REC_WORD	wordpools/wasnorm_wordpool_576.txt	LTP283	ltpFR2	13	5	MARSH	874	n/a	n/a	0	0	0
1009478	REC_WORD	wordpools/wasnorm_wordpool_576.txt	LTP283	ltpFR2	13	5	ICING	732	n/a	n/a	0	0	0
1010546	REC_WORD	wordpools/wasnorm_wordpool_576.txt	LTP283	ltpFR2	13	5	IGLOO	734	n/a	n/a	0	0	0
1011198	REC_WORD	wordpools/wasnorm_wordpool_576.txt	LTP283	ltpFR2	13	5	CABIN	211	n/a	n/a	0	0	0
1012370	REC_WORD	wordpools/wasnorm_wordpool_576.txt	LTP283	ltpFR2	13	5	BRICK	172	n/a	n/a	0	0	0
1016411	REC_WORD	wordpools/wasnorm_wordpool_576.txt	LTP283	ltpFR2	13	5	DONKEY	484	n/a	n/a	0	0	0
1017039	REC_WORD	wordpools/wasnorm_wordpool_576.txt	LTP283	ltpFR2	13	5	PUDDLE	1140	n/a	n/a	0	0	0
1017550	REC_WORD	wordpools/wasnorm_wordpool_576.txt	LTP283	ltpFR2	13	5	CABBAGE	210	n/a	n/a	0	0	0
1018243	REC_WORD	wordpools/wasnorm_wordpool_576.txt	LTP283	ltpFR2	13	5	THIEF	1456	n/a	n/a	0	0	0
1022150	REC_WORD	wordpools/wasnorm_wordpool_576.txt	LTP283	ltpFR2	13	5	CHIPMUNK	304	n/a	n/a	0	0	0
1049596	REC_WORD	wordpools/wasnorm_wordpool_576.txt	LTP283	ltpFR2	13	5	ASIA	46	n/a	n/a	0	0	0
1060874	REC_WORD	wordpools/wasnorm_wordpool_576.txt	LTP283	ltpFR2	13	5	BUGGY	188	n/a	n/a	0	0	0
1062062	REC_WORD	wordpools/wasnorm_wordpool_576.txt	LTP283	ltpFR2	13	5	SPOON	1357	n/a	n/a	0	0	0
1063883	REC_WORD	wordpools/wasnorm_wordpool_576.txt	LTP283	ltpFR2	13	5	ZEBRA	1635	n/a	n/a	0	0	0
1082142	DISTRACTOR	n/a	LTP283	ltpFR2	13	6	n/a	n/a	n/a	n/a	0	0	0
1082142	START	n/a	LTP283	ltpFR2	13	n/a	n/a	n/a	10	n/a	n/a	n/a	n/a
1082176	PROB	n/a	LTP283	ltpFR2	13	n/a	n/a	n/a	10	16	5	8	3
1083757	PROB	n/a	LTP283	ltpFR2	13	n/a	n/a	n/a	10	16	6	7	3
1084888	PROB	n/a	LTP283	ltpFR2	13	n/a	n/a	n/a	10	19	3	9	7
1086420	PROB	n/a	LTP283	ltpFR2	13	n/a	n/a	n/a	10	20	7	5	8
1087685	PROB	n/a	LTP283	ltpFR2	13	n/a	n/a	n/a	10	17	5	7	5
1088882	PROB	n/a	LTP283	ltpFR2	13	n/a	n/a	n/a	10	18	9	3	6
1090264	PROB	n/a	LTP283	ltpFR2	13	n/a	n/a	n/a	10	20	3	8	9
1091429	PROB	n/a	LTP283	ltpFR2	13	n/a	n/a	n/a	10	20	8	8	4
1092876	PROB	n/a	LTP283	ltpFR2	13	n/a	n/a	n/a	10	14	2	6	6
1094375	PROB	n/a	LTP283	ltpFR2	13	n/a	n/a	n/a	10	18	3	7	8
1095573	PROB	n/a	LTP283	ltpFR2	13	n/a	n/a	n/a	10	21	6	9	7
1096787	PROB	n/a	LTP283	ltpFR2	13	n/a	n/a	n/a	10	18	5	5	8
1098018	PROB	n/a	LTP283	ltpFR2	13	n/a	n/a	n/a	10	24	9	8	7
1099782	PROB	n/a	LTP283	ltpFR2	13	n/a	n/a	n/a	10	18	9	7	2
1101114	PROB	n/a	LTP283	ltpFR2	13	n/a	n/a	n/a	10	25	8	8	9
1103395	PROB	n/a	LTP283	ltpFR2	13	n/a	n/a	n/a	10	7	3	2	2
1104735	STOP	n/a	LTP283	ltpFR2	13	n/a	n/a	n/a	10	n/a	n/a	n/a	n/a
1107072	WORD	wordpools/wasnorm_wordpool_576.txt	LTP283	ltpFR2	13	6	SHIRT	1287	n/a	n/a	0	0	0
1109801	WORD	wordpools/wasnorm_wordpool_576.txt	LTP283	ltpFR2	13	6	DRESS	495	n/a	n/a	0	0	0
1112448	WORD	wordpools/wasnorm_wordpool_576.txt	LTP283	ltpFR2	13	6	FUNGUS	614	n/a	n/a	0	0	0
1114894	WORD	wordpools/wasnorm_wordpool_576.txt	LTP283	ltpFR2	13	6	VIKING	1565	n/a	n/a	0	0	0
1117358	WORD	wordpools/wasnorm_wordpool_576.txt	LTP283	ltpFR2	13	6	PARSLEY	1016	n/a	n/a	0	0	0
1119969	WORD	wordpools/wasnorm_wordpool_576.txt	LTP283	ltpFR2	13	6	SNAIL	1332	n/a	n/a	0	0	0
1122782	WORD	wordpools/wasnorm_wordpool_576.txt	LTP283	ltpFR2	13	6	SMOG	1330	n/a	n/a	0	0	0
1125379	WORD	wordpools/wasnorm_wordpool_576.txt	LTP283	ltpFR2	13	6	SLIME	1327	n/a	n/a	0	0	0
1127991	WORD	wordpools/wasnorm_wordpool_576.txt	LTP283	ltpFR2	13	6	HUMAN	726	n/a	n/a	0	0	0
1130803	WORD	wordpools/wasnorm_wordpool_576.txt	LTP283	ltpFR2	13	6	VIRUS	1572	n/a	n/a	0	0	0
1133517	WORD	wordpools/wasnorm_wordpool_576.txt	LTP283	ltpFR2	13	6	SPARROW	1347	n/a	n/a	0	0	0
1136096	WORD	wordpools/wasnorm_wordpool_576.txt	LTP283	ltpFR2	13	6	FIREPLACE	570	n/a	n/a	0	0	0
1138543	WORD	wordpools/wasnorm_wordpool_576.txt	LTP283	ltpFR2	13	6	PRINCE	1124	n/a	n/a	0	0	0
1141138	WORD	wordpools/wasnorm_wordpool_576.txt	LTP283	ltpFR2	13	6	QUAIL	1147	n/a	n/a	0	0	0
1143636	WORD	wordpools/wasnorm_wordpool_576.txt	LTP283	ltpFR2	13	6	STAMP	1370	n/a	n/a	0	0	0
1146098	WORD	wordpools/wasnorm_wordpool_576.txt	LTP283	ltpFR2	13	6	PUDDING	1139	n/a	n/a	0	0	0
1148844	WORD	wordpools/wasnorm_wordpool_576.txt	LTP283	ltpFR2	13	6	KNIFE	785	n/a	n/a	0	0	0
1151657	WORD	wordpools/wasnorm_wordpool_576.txt	LTP283	ltpFR2	13	6	ROCKET	1202	n/a	n/a	0	0	0
1154119	WORD	wordpools/wasnorm_wordpool_576.txt	LTP283	ltpFR2	13	6	BIKE	125	n/a	n/a	0	0	0
1156766	WORD	wordpools/wasnorm_wordpool_576.txt	LTP283	ltpFR2	13	6	SCALPEL	1243	n/a	n/a	0	0	0
1159363	WORD	wordpools/wasnorm_wordpool_576.txt	LTP283	ltpFR2	13	6	PARENT	1013	n/a	n/a	0	0	0
1162141	WORD	wordpools/wasnorm_wordpool_576.txt	LTP283	ltpFR2	13	6	BROTHER	179	n/a	n/a	0	0	0
1164803	WORD	wordpools/wasnorm_wordpool_576.txt	LTP283	ltpFR2	13	6	PICTURE	1061	n/a	n/a	0	0	0
1167501	WORD	wordpools/wasnorm_wordpool_576.txt	LTP283	ltpFR2	13	6	DRAWING	494	n/a	n/a	0	0	0
1169114	START	n/a	LTP283	ltpFR2	13	n/a	n/a	n/a	11	n/a	n/a	n/a	n/a
1170191	DISTRACTOR	n/a	LTP283	ltpFR2	13	6	n/a	n/a	n/a	n/a	0	0	0
1170197	PROB	n/a	LTP283	ltpFR2	13	n/a	n/a	n/a	11	22	9	8	5
1174772	PROB	n/a	LTP283	ltpFR2	13	n/a	n/a	n/a	11	20	2	9	9
1176070	PROB	n/a	LTP283	ltpFR2	13	n/a	n/a	n/a	11	17	3	6	8
1177967	PROB	n/a	LTP283	ltpFR2	13	n/a	n/a	n/a	11	14	4	2	8
1179366	PROB	n/a	LTP283	ltpFR2	13	n/a	n/a	n/a	11	24	8	8	8
1180714	PROB	n/a	LTP283	ltpFR2	13	n/a	n/a	n/a	11	16	6	5	5
1181828	PROB	n/a	LTP283	ltpFR2	13	n/a	n/a	n/a	11	12	3	7	2
1183077	PROB	n/a	LTP283	ltpFR2	13	n/a	n/a	n/a	11	13	7	1	5
1184442	PROB	n/a	LTP283	ltpFR2	13	n/a	n/a	n/a	11	19	7	4	8
1186273	PROB	n/a	LTP283	ltpFR2	13	n/a	n/a	n/a	11	14	4	3	7
1187471	PROB	n/a	LTP283	ltpFR2	13	n/a	n/a	n/a	11	21	5	9	7
1191065	PROB	n/a	LTP283	ltpFR2	13	n/a	n/a	n/a	11	13	3	9	1
1192713	STOP	n/a	LTP283	ltpFR2	13	n/a	n/a	n/a	11	n/a	n/a	n/a	n/a
1194876	REC_START	n/a	LTP283	ltpFR2	13	6	n/a	n/a	n/a	n/a	0	0	0
1197666	REC_WORD	wordpools/wasnorm_wordpool_576.txt	LTP283	ltpFR2	13	6	SHIRT	1287	n/a	n/a	0	0	0
1198515	REC_WORD	wordpools/wasnorm_wordpool_576.txt	LTP283	ltpFR2	13	6	DRESS	495	n/a	n/a	0	0	0
1199618	REC_WORD	wordpools/wasnorm_wordpool_576.txt	LTP283	ltpFR2	13	6	VIKING	1565	n/a	n/a	0	0	0
1200308	REC_WORD_VV	wordpools/wasnorm_wordpool_576.txt	LTP283	ltpFR2	13	6	<>	-1	n/a	n/a	0	0	0
1201308	REC_WORD_VV	wordpools/wasnorm_wordpool_576.txt	LTP283	ltpFR2	13	6	<>	-1	n/a	n/a	0	0	0
1205029	REC_WORD	wordpools/wasnorm_wordpool_576.txt	LTP283	ltpFR2	13	6	MILDEW	893	n/a	n/a	0	0	0
1206029	REC_WORD_VV	wordpools/wasnorm_wordpool_576.txt	LTP283	ltpFR2	13	6	<>	-1	n/a	n/a	0	0	0
1209061	REC_WORD	wordpools/wasnorm_wordpool_576.txt	LTP283	ltpFR2	13	6	HUMAN	726	n/a	n/a	0	0	0
1209633	REC_WORD	wordpools/wasnorm_wordpool_576.txt	LTP283	ltpFR2	13	6	VIRUS	1572	n/a	n/a	0	0	0
1210257	REC_WORD	wordpools/wasnorm_wordpool_576.txt	LTP283	ltpFR2	13	6	SLIME	1327	n/a	n/a	0	0	0
1212237	REC_WORD	wordpools/wasnorm_wordpool_576.txt	LTP283	ltpFR2	13	6	PARSLEY	1016	n/a	n/a	0	0	0
1214912	REC_WORD	wordpools/wasnorm_wordpool_576.txt	LTP283	ltpFR2	13	6	SNAIL	1332	n/a	n/a	0	0	0
1219600	REC_WORD	wordpools/wasnorm_wordpool_576.txt	LTP283	ltpFR2	13	6	FIREPLACE	570	n/a	n/a	0	0	0
1220600	REC_WORD_VV	wordpools/wasnorm_wordpool_576.txt	LTP283	ltpFR2	13	6	<>	-1	n/a	n/a	0	0	0
1221707	REC_WORD	wordpools/wasnorm_wordpool_576.txt	LTP283	ltpFR2	13	6	PRINCE	1124	n/a	n/a	0	0	0
1222398	REC_WORD	wordpools/wasnorm_wordpool_576.txt	LTP283	ltpFR2	13	6	PARENT	1013	n/a	n/a	0	0	0
1223159	REC_WORD	wordpools/wasnorm_wordpool_576.txt	LTP283	ltpFR2	13	6	BROTHER	179	n/a	n/a	0	0	0
1223932	REC_WORD	wordpools/wasnorm_wordpool_576.txt	LTP283	ltpFR2	13	6	PICTURE	1061	n/a	n/a	0	0	0
1224462	REC_WORD	wordpools/wasnorm_wordpool_576.txt	LTP283	ltpFR2	13	6	DRAWING	494	n/a	n/a	0	0	0
1227301	REC_WORD	wordpools/wasnorm_wordpool_576.txt	LTP283	ltpFR2	13	6	BIKE	125	n/a	n/a	0	0	0
1232044	REC_WORD	wordpools/wasnorm_wordpool_576.txt	LTP283	ltpFR2	13	6	PUDDING	1139	n/a	n/a	0	0	0
1233310	REC_WORD	wordpools/wasnorm_wordpool_576.txt	LTP283	ltpFR2	13	6	QUAIL	1147	n/a	n/a	0	0	0
1234346	REC_WORD	wordpools/wasnorm_wordpool_576.txt	LTP283	ltpFR2	13	6	SPARROW	1347	n/a	n/a	0	0	0
1285494	DISTRACTOR	n/a	LTP283	ltpFR2	13	7	n/a	n/a	n/a	n/a	0	0	0
1285494	START	n/a	LTP283	ltpFR2	13	n/a	n/a	n/a	12	n/a	n/a	n/a	n/a
1285527	PROB	n/a	LTP283	ltpFR2	13	n/a	n/a	n/a	12	20	2	9	9
1286990	PROB	n/a	LTP283	ltpFR2	13	n/a	n/a	n/a	12	16	4	8	4
1288606	PROB	n/a	LTP283	ltpFR2	13	n/a	n/a	n/a	12	17	3	8	6
1290570	PROB	n/a	LTP283	ltpFR2	13	n/a	n/a	n/a	12	12	8	3	1
1291883	PROB	n/a	LTP283	ltpFR2	13	n/a	n/a	n/a	12	13	6	6	1
1293015	PROB	n/a	LTP283	ltpFR2	13	n/a	n/a	n/a	12	16	4	3	9
1294979	PROB	n/a	LTP283	ltpFR2	13	n/a	n/a	n/a	12	9	4	4	1
1296195	PROB	n/a	LTP283	ltpFR2	13	n/a	n/a	n/a	12	20	9	5	6
1297476	PROB	n/a	LTP283	ltpFR2	13	n/a	n/a	n/a	12	21	8	4	9
1299523	PROB	n/a	LTP283	ltpFR2	13	n/a	n/a	n/a	12	13	6	3	4
1300804	PROB	n/a	LTP283	ltpFR2	13	n/a	n/a	n/a	12	11	3	2	6
1302052	PROB	n/a	LTP283	ltpFR2	13	n/a	n/a	n/a	12	17	7	9	1
1303318	PROB	n/a	LTP283	ltpFR2	13	n/a	n/a	n/a	12	23	6	9	8
1306146	PROB	n/a	LTP283	ltpFR2	13	n/a	n/a	n/a	12	26	9	8	9
1307893	PROB	n/a	LTP283	ltpFR2	13	n/a	n/a	n/a	12	20	4	8	8
1309475	STOP	n/a	LTP283	ltpFR2	13	n/a	n/a	n/a	12	n/a	n/a	n/a	n/a
1310490	WORD	wordpools/wasnorm_wordpool_576.txt	LTP283	ltpFR2	13	7	OZONE	996	n/a	n/a	0	0	0
1313269	WORD	wordpools/wasnorm_wordpool_576.txt	LTP283	ltpFR2	13	7	SUSPECT	1415	n/a	n/a	0	0	0
1315898	WORD	wordpools/wasnorm_wordpool_576.txt	LTP283	ltpFR2	13	7	KETCHUP	771	n/a	n/a	0	0	0
1318595	WORD	wordpools/wasnorm_wordpool_576.txt	LTP283	ltpFR2	13	7	TURKEY	1520	n/a	n/a	0	0	0
1321324	WORD	wordpools/wasnorm_wordpool_576.txt	LTP283	ltpFR2	13	7	HARP	689	n/a	n/a	0	0	0
1324036	WORD	wordpools/wasnorm_wordpool_576.txt	LTP283	ltpFR2	13	7	LIPSTICK	829	n/a	n/a	0	0	0
1326483	WORD	wordpools/wasnorm_wordpool_576.txt	LTP283	ltpFR2	13	7	NAPKIN	937	n/a	n/a	0	0	0
1329246	WORD	wordpools/wasnorm_wordpool_576.txt	LTP283	ltpFR2	13	7	SPOUSE	1358	n/a	n/a	0	0	0
1331676	WORD	wordpools/wasnorm_wordpool_576.txt	LTP283	ltpFR2	13	7	LOVER	846	n/a	n/a	0	0	0
1334172	WORD	wordpools/wasnorm_wordpool_576.txt	LTP283	ltpFR2	13	7	SHORTCAKE	1292	n/a	n/a	0	0	0
1336602	WORD	wordpools/wasnorm_wordpool_576.txt	LTP283	ltpFR2	13	7	HAMPER	682	n/a	n/a	0	0	0
1339047	WORD	wordpools/wasnorm_wordpool_576.txt	LTP283	ltpFR2	13	7	CONVICT	371	n/a	n/a	0	0	0
1341761	WORD	wordpools/wasnorm_wordpool_576.txt	LTP283	ltpFR2	13	7	CAMEL	223	n/a	n/a	0	0	0
1344241	WORD	wordpools/wasnorm_wordpool_576.txt	LTP283	ltpFR2	13	7	COUSIN	392	n/a	n/a	0	0	0
1346803	WORD	wordpools/wasnorm_wordpool_576.txt	LTP283	ltpFR2	13	7	YACHT	1629	n/a	n/a	0	0	0
1349483	WORD	wordpools/wasnorm_wordpool_576.txt	LTP283	ltpFR2	13	7	COMET	353	n/a	n/a	0	0	0
1352229	WORD	wordpools/wasnorm_wordpool_576.txt	LTP283	ltpFR2	13	7	TURNIP	1521	n/a	n/a	0	0	0
1354991	WORD	wordpools/wasnorm_wordpool_576.txt	LTP283	ltpFR2	13	7	GARBAGE	622	n/a	n/a	0	0	0
1357654	WORD	wordpools/wasnorm_wordpool_576.txt	LTP283	ltpFR2	13	7	PACKAGE	997	n/a	n/a	0	0	0
1360450	WORD	wordpools/wasnorm_wordpool_576.txt	LTP283	ltpFR2	13	7	AUTHOR	61	n/a	n/a	0	0	0
1362929	WORD	wordpools/wasnorm_wordpool_576.txt	LTP283	ltpFR2	13	7	POET	1095	n/a	n/a	0	0	0
1365543	WORD	wordpools/wasnorm_wordpool_576.txt	LTP283	ltpFR2	13	7	OFFICE	972	n/a	n/a	0	0	0
1368305	WORD	wordpools/wasnorm_wordpool_576.txt	LTP283	ltpFR2	13	7	TYPIST	1532	n/a	n/a	0	0	0
1370735	WORD	wordpools/wasnorm_wordpool_576.txt	LTP283	ltpFR2	13	7	BALLOON	75	n/a	n/a	0	0	0
1372350	START	n/a	LTP283	ltpFR2	13	n/a	n/a	n/a	13	n/a	n/a	n/a	n/a
1373476	DISTRACTOR	n/a	LTP283	ltpFR2	13	7	n/a	n/a	n/a	n/a	0	0	0
1373481	PROB	n/a	LTP283	ltpFR2	13	n/a	n/a	n/a	13	12	8	3	1
1374895	PROB	n/a	LTP283	ltpFR2	13	n/a	n/a	n/a	13	17	9	6	2
1377008	PROB	n/a	LTP283	ltpFR2	13	n/a	n/a	n/a	13	16	6	9	1
1378140	PROB	n/a	LTP283	ltpFR2	13	n/a	n/a	n/a	13	12	2	5	5
1379389	PROB	n/a	LTP283	ltpFR2	13	n/a	n/a	n/a	13	20	2	9	9
1380504	PROB	n/a	LTP283	ltpFR2	13	n/a	n/a	n/a	13	9	4	3	2
1382185	PROB	n/a	LTP283	ltpFR2	13	n/a	n/a	n/a	13	8	1	4	3
1383433	PROB	n/a	LTP283	ltpFR2	13	n/a	n/a	n/a	13	11	7	1	3
1384665	PROB	n/a	LTP283	ltpFR2	13	n/a	n/a	n/a	13	19	2	8	9
1386412	PROB	n/a	LTP283	ltpFR2	13	n/a	n/a	n/a	13	16	4	3	9
1387727	PROB	n/a	LTP283	ltpFR2	13	n/a	n/a	n/a	13	19	5	9	5
1388924	PROB	n/a	LTP283	ltpFR2	13	n/a	n/a	n/a	13	18	2	7	9
1390273	PROB	n/a	LTP283	ltpFR2	13	n/a	n/a	n/a	13	21	4	8	9
1392503	PROB	n/a	LTP283	ltpFR2	13	n/a	n/a	n/a	13	12	3	1	8
1394100	PROB	n/a	LTP283	ltpFR2	13	n/a	n/a	n/a	13	14	8	1	5
1395405	STOP	n/a	LTP283	ltpFR2	13	n/a	n/a	n/a	13	n/a	n/a	n/a	n/a
1398179	REC_START	n/a	LTP283	ltpFR2	13	7	n/a	n/a	n/a	n/a	0	0	0
1401298	REC_WORD	wordpools/wasnorm_wordpool_576.txt	LTP283	ltpFR2	13	7	YACHT	1629	n/a	n/a	0	0	0
1402439	REC_WORD	wordpools/wasnorm_wordpool_576.txt	LTP283	ltpFR2	13	7	COMET	353	n/a	n/a	0	0	0
1403111	REC_WORD	wordpools/wasnorm_wordpool_576.txt	LTP283	ltpFR2	13	7	PACKAGE	997	n/a	n/a	0	0	0
1403830	REC_WORD	wordpools/wasnorm_wordpool_576.txt	LTP283	ltpFR2	13	7	TYPIST	1532	n/a	n/a	0	0	0
1406208	REC_WORD	wordpools/wasnorm_wordpool_576.txt	LTP283	ltpFR2	13	7	GARBAGE	622	n/a	n/a	0	0	0
1406806	REC_WORD	wordpools/wasnorm_wordpool_576.txt	LTP283	ltpFR2	13	7	BALLOON	75	n/a	n/a	0	0	0
1409044	REC_WORD	wordpools/wasnorm_wordpool_576.txt	LTP283	ltpFR2	13	7	OZONE	996	n/a	n/a	0	0	0
1409775	REC_WORD	wordpools/wasnorm_wordpool_576.txt	LTP283	ltpFR2	13	7	KETCHUP	771	n/a	n/a	0	0	0
1411949	REC_WORD_VV	wordpools/wasnorm_wordpool_576.txt	LTP283	ltpFR2	13	7	<>	-1	n/a	n/a	0	0	0
1415710	REC_WORD_VV	wordpools/wasnorm_wordpool_576.txt	LTP283	ltpFR2	13	7	<>	-1	n/a	n/a	0	0	0
1416271	REC_WORD	wordpools/wasnorm_wordpool_576.txt	LTP283	ltpFR2	13	7	CONVICT	371	n/a	n/a	0	0	0
1421466	REC_WORD	wordpools/wasnorm_wordpool_576.txt	LTP283	ltpFR2	13	7	CAMEL	223	n/a	n/a	0	0	0
1422251	REC_WORD	wordpools/wasnorm_wordpool_576.txt	LTP283	ltpFR2	13	7	COUSIN	392	n/a	n/a	0	0	0
1429052	REC_WORD	wordpools/wasnorm_wordpool_576.txt	LTP283	ltpFR2	13	7	LOVER	846	n/a	n/a	0	0	0
1429472	REC_WORD	wordpools/wasnorm_wordpool_576.txt	LTP283	ltpFR2	13	7	SPOUSE	1358	n/a	n/a	0	0	0
1430339	REC_WORD	wordpools/wasnorm_wordpool_576.txt	LTP283	ltpFR2	13	7	LIPSTICK	829	n/a	n/a	0	0	0
1432061	REC_WORD	wordpools/wasnorm_wordpool_576.txt	LTP283	ltpFR2	13	7	NAPKIN	937	n/a	n/a	0	0	0
1437257	REC_WORD	wordpools/wasnorm_wordpool_576.txt	LTP283	ltpFR2	13	7	TURKEY	1520	n/a	n/a	0	0	0
1439464	REC_WORD	wordpools/wasnorm_wordpool_576.txt	LTP283	ltpFR2	13	7	SHORTCAKE	1292	n/a	n/a	0	0	0
1446204	REC_WORD	wordpools/wasnorm_wordpool_576.txt	LTP283	ltpFR2	13	7	HAMPER	682	n/a	n/a	0	0	0
1451114	REC_WORD	wordpools/wasnorm_wordpool_576.txt	LTP283	ltpFR2	13	7	OFFICE	972	n/a	n/a	0	0	0
1453920	REC_WORD	wordpools/wasnorm_wordpool_576.txt	LTP283	ltpFR2	13	7	AUTHOR	61	n/a	n/a	0	0	0
1454388	REC_WORD	wordpools/wasnorm_wordpool_576.txt	LTP283	ltpFR2	13	7	POET	1095	n/a	n/a	0	0	0
1457891	REC_WORD	wordpools/wasnorm_wordpool_576.txt	LTP283	ltpFR2	13	7	BALLOON	75	n/a	n/a	0	0	0
1465546	REC_WORD	wordpools/wasnorm_wordpool_576.txt	LTP283	ltpFR2	13	7	TURNIP	1521	n/a	n/a	0	0	0
1488794	WORD	wordpools/wasnorm_wordpool_576.txt	LTP283	ltpFR2	13	8	WITNESS	1618	n/a	n/a	0	0	0
1491291	WORD	wordpools/wasnorm_wordpool_576.txt	LTP283	ltpFR2	13	8	FLEET	578	n/a	n/a	0	0	0
1493903	WORD	wordpools/wasnorm_wordpool_576.txt	LTP283	ltpFR2	13	8	SPOOL	1356	n/a	n/a	0	0	0
1496567	WORD	wordpools/wasnorm_wordpool_576.txt	LTP283	ltpFR2	13	8	MEDAL	885	n/a	n/a	0	0	0
1499129	WORD	wordpools/wasnorm_wordpool_576.txt	LTP283	ltpFR2	13	8	BRIEFCASE	175	n/a	n/a	0	0	0
1501841	WORD	wordpools/wasnorm_wordpool_576.txt	LTP283	ltpFR2	13	8	TURTLE	1522	n/a	n/a	0	0	0
1504621	WORD	wordpools/wasnorm_wordpool_576.txt	LTP283	ltpFR2	13	8	AWARD	63	n/a	n/a	0	0	0
1507201	WORD	wordpools/wasnorm_wordpool_576.txt	LTP283	ltpFR2	13	8	PERMIT	1051	n/a	n/a	0	0	0
1509996	WORD	wordpools/wasnorm_wordpool_576.txt	LTP283	ltpFR2	13	8	SUBWAY	1400	n/a	n/a	0	0	0
1512693	WORD	wordpools/wasnorm_wordpool_576.txt	LTP283	ltpFR2	13	8	GYMNAST	675	n/a	n/a	0	0	0
1515489	WORD	wordpools/wasnorm_wordpool_576.txt	LTP283	ltpFR2	13	8	TUNNEL	1519	n/a	n/a	0	0	0
1518185	WORD	wordpools/wasnorm_wordpool_576.txt	LTP283	ltpFR2	13	8	WAGON	1578	n/a	n/a	0	0	0
1520731	WORD	wordpools/wasnorm_wordpool_576.txt	LTP283	ltpFR2	13	8	SWITCH	1422	n/a	n/a	0	0	0
1523394	WORD	wordpools/wasnorm_wordpool_576.txt	LTP283	ltpFR2	13	8	HIGHWAY	707	n/a	n/a	0	0	0
1525972	WORD	wordpools/wasnorm_wordpool_576.txt	LTP283	ltpFR2	13	8	BATHTUB	100	n/a	n/a	0	0	0
1528636	WORD	wordpools/wasnorm_wordpool_576.txt	LTP283	ltpFR2	13	8	LAGOON	795	n/a	n/a	0	0	0
1531166	WORD	wordpools/wasnorm_wordpool_576.txt	LTP283	ltpFR2	13	8	FINGER	567	n/a	n/a	0	0	0
1533629	WORD	wordpools/wasnorm_wordpool_576.txt	LTP283	ltpFR2	13	8	APRON	35	n/a	n/a	0	0	0
1536158	WORD	wordpools/wasnorm_wordpool_576.txt	LTP283	ltpFR2	13	8	FLIPPER	580	n/a	n/a	0	0	0
1538870	WORD	wordpools/wasnorm_wordpool_576.txt	LTP283	ltpFR2	13	8	BROOK	177	n/a	n/a	0	0	0
1541684	WORD	wordpools/wasnorm_wordpool_576.txt	LTP283	ltpFR2	13	8	LADDER	793	n/a	n/a	0	0	0
1544496	WORD	wordpools/wasnorm_wordpool_576.txt	LTP283	ltpFR2	13	8	BURGLAR	200	n/a	n/a	0	0	0
1547292	WORD	wordpools/wasnorm_wordpool_576.txt	LTP283	ltpFR2	13	8	CLAM	315	n/a	n/a	0	0	0
1549937	WORD	wordpools/wasnorm_wordpool_576.txt	LTP283	ltpFR2	13	8	OYSTER	995	n/a	n/a	0	0	0
1551553	START	n/a	LTP283	ltpFR2	13	n/a	n/a	n/a	14	n/a	n/a	n/a	n/a
1552389	DISTRACTOR	n/a	LTP283	ltpFR2	13	8	n/a	n/a	n/a	n/a	0	0	0
1552401	PROB	n/a	LTP283	ltpFR2	13	n/a	n/a	n/a	14	16	6	1	9
1553915	PROB	n/a	LTP283	ltpFR2	13	n/a	n/a	n/a	14	25	8	9	8
1556794	PROB	n/a	LTP283	ltpFR2	13	n/a	n/a	n/a	14	16	6	4	6
1557925	PROB	n/a	LTP283	ltpFR2	13	n/a	n/a	n/a	14	17	9	1	7
1559191	PROB	n/a	LTP283	ltpFR2	13	n/a	n/a	n/a	14	12	1	5	6
1560389	PROB	n/a	LTP283	ltpFR2	13	n/a	n/a	n/a	14	15	9	1	5
1561521	PROB	n/a	LTP283	ltpFR2	13	n/a	n/a	n/a	14	17	9	2	6
1563352	PROB	n/a	LTP283	ltpFR2	13	n/a	n/a	n/a	14	21	6	9	6
1565582	PROB	n/a	LTP283	ltpFR2	13	n/a	n/a	n/a	14	13	4	6	3
1567079	PROB	n/a	LTP283	ltpFR2	13	n/a	n/a	n/a	14	16	2	5	9
1568694	PROB	n/a	LTP283	ltpFR2	13	n/a	n/a	n/a	14	11	4	3	4
1571606	PROB	n/a	LTP283	ltpFR2	13	n/a	n/a	n/a	14	20	5	7	8
1572887	PROB	n/a	LTP283	ltpFR2	13	n/a	n/a	n/a	14	6	1	2	3
1574002	PROB	n/a	LTP283	ltpFR2	13	n/a	n/a	n/a	14	13	7	1	5
1575289	STOP	n/a	LTP283	ltpFR2	13	n/a	n/a	n/a	14	n/a	n/a	n/a	n/a
1577432	REC_START	n/a	LTP283	ltpFR2	13	8	n/a	n/a	n/a	n/a	0	0	0
1578988	REC_WORD	wordpools/wasnorm_wordpool_576.txt	LTP283	ltpFR2	13	8	OYSTER	995	n/a	n/a	0	0	0
1579647	REC_WORD	wordpools/wasnorm_wordpool_576.txt	LTP283	ltpFR2	13	8	CLAM	315	n/a	n/a	0	0	0
1581848	REC_WORD	wordpools/wasnorm_wordpool_576.txt	LTP283	ltpFR2	13	8	LADDER	793	n/a	n/a	0	0	0
1582385	REC_WORD	wordpools/wasnorm_wordpool_576.txt	LTP283	ltpFR2	13	8	BURGLAR	200	n/a	n/a	0	0	0
1583122	REC_WORD	wordpools/wasnorm_wordpool_576.txt	LTP283	ltpFR2	13	8	FINGER	567	n/a	n/a	0	0	0
1583480	REC_WORD	wordpools/wasnorm_wordpool_576.txt	LTP283	ltpFR2	13	8	FLIPPER	580	n/a	n/a	0	0	0
1584242	REC_WORD	wordpools/wasnorm_wordpool_576.txt	LTP283	ltpFR2	13	8	APRON	35	n/a	n/a	0	0	0
1586854	REC_WORD	wordpools/wasnorm_wordpool_576.txt	LTP283	ltpFR2	13	8	LAGOON	795	n/a	n/a	0	0	0
1588016	REC_WORD	wordpools/wasnorm_wordpool_576.txt	LTP283	ltpFR2	13	8	BATHTUB	100	n/a	n/a	0	0	0
1593307	REC_WORD	wordpools/wasnorm_wordpool_576.txt	LTP283	ltpFR2	13	8	SWITCH	1422	n/a	n/a	0	0	0
1593954	REC_WORD	wordpools/wasnorm_wordpool_576.txt	LTP283	ltpFR2	13	8	HIGHWAY	707	n/a	n/a	0	0	0
1595177	REC_WORD	wordpools/wasnorm_wordpool_576.txt	LTP283	ltpFR2	13	8	TUNNEL	1519	n/a	n/a	0	0	0
1595999	REC_WORD	wordpools/wasnorm_wordpool_576.txt	LTP283	ltpFR2	13	8	WAGON	1578	n/a	n/a	0	0	0
1600355	REC_WORD	wordpools/wasnorm_wordpool_576.txt	LTP283	ltpFR2	13	8	BATHTUB	100	n/a	n/a	0	0	0
1607450	REC_WORD	wordpools/wasnorm_wordpool_576.txt	LTP283	ltpFR2	13	8	PERMIT	1051	n/a	n/a	0	0	0
1608150	REC_WORD	wordpools/wasnorm_wordpool_576.txt	LTP283	ltpFR2	13	8	AWARD	63	n/a	n/a	0	0	0
1608858	REC_WORD	wordpools/wasnorm_wordpool_576.txt	LTP283	ltpFR2	13	8	MEDAL	885	n/a	n/a	0	0	0
1610215	REC_WORD	wordpools/wasnorm_wordpool_576.txt	LTP283	ltpFR2	13	8	FLEET	578	n/a	n/a	0	0	0
1614032	REC_WORD	wordpools/wasnorm_wordpool_576.txt	LTP283	ltpFR2	13	8	BRIEFCASE	175	n/a	n/a	0	0	0
1614881	REC_WORD	wordpools/wasnorm_wordpool_576.txt	LTP283	ltpFR2	13	8	TURTLE	1522	n/a	n/a	0	0	0
1615345	REC_WORD	wordpools/wasnorm_wordpool_576.txt	LTP283	ltpFR2	13	8	SUBWAY	1400	n/a	n/a	0	0	0
1618367	REC_WORD	wordpools/wasnorm_wordpool_576.txt	LTP283	ltpFR2	13	8	WITNESS	1618	n/a	n/a	0	0	0
1654051	REST_REWET	n/a	LTP283	ltpFR2	13	8	n/a	n/a	n/a	n/a	0	0	0
2090743	DISTRACTOR	n/a	LTP283	ltpFR2	13	9	n/a	n/a	n/a	n/a	0	0	0
2090743	START	n/a	LTP283	ltpFR2	13	n/a	n/a	n/a	15	n/a	n/a	n/a	n/a
2090775	PROB	n/a	LTP283	ltpFR2	13	n/a	n/a	n/a	15	19	4	7	8
2092707	PROB	n/a	LTP283	ltpFR2	13	n/a	n/a	n/a	15	15	7	7	1
2094137	PROB	n/a	LTP283	ltpFR2	13	n/a	n/a	n/a	15	16	8	5	3
2095801	PROB	n/a	LTP283	ltpFR2	13	n/a	n/a	n/a	15	17	9	5	3
2098031	PROB	n/a	LTP283	ltpFR2	13	n/a	n/a	n/a	15	19	5	8	6
2100045	PROB	n/a	LTP283	ltpFR2	13	n/a	n/a	n/a	15	7	4	2	1
2101361	PROB	n/a	LTP283	ltpFR2	13	n/a	n/a	n/a	15	19	9	4	6
2102957	PROB	n/a	LTP283	ltpFR2	13	n/a	n/a	n/a	15	15	9	3	3
2104157	PROB	n/a	LTP283	ltpFR2	13	n/a	n/a	n/a	15	15	3	4	8
2105588	PROB	n/a	LTP283	ltpFR2	13	n/a	n/a	n/a	15	13	9	1	3
2106653	PROB	n/a	LTP283	ltpFR2	13	n/a	n/a	n/a	15	9	4	4	1
2107751	PROB	n/a	LTP283	ltpFR2	13	n/a	n/a	n/a	15	18	9	4	5
2109098	PROB	n/a	LTP283	ltpFR2	13	n/a	n/a	n/a	15	12	6	3	3
2110397	PROB	n/a	LTP283	ltpFR2	13	n/a	n/a	n/a	15	22	5	9	8
2112594	PROB	n/a	LTP283	ltpFR2	13	n/a	n/a	n/a	15	11	3	4	4
2113812	STOP	n/a	LTP283	ltpFR2	13	n/a	n/a	n/a	15	n/a	n/a	n/a	n/a
2115955	WORD	wordpools/wasnorm_wordpool_576.txt	LTP283	ltpFR2	13	9	HUSBAND	728	n/a	n/a	0	0	0
2118402	WORD	wordpools/wasnorm_wordpool_576.txt	LTP283	ltpFR2	13	9	GLASS	639	n/a	n/a	0	0	0
2120898	WORD	wordpools/wasnorm_wordpool_576.txt	LTP283	ltpFR2	13	9	SALAD	1224	n/a	n/a	0	0	0
2123661	WORD	wordpools/wasnorm_wordpool_576.txt	LTP283	ltpFR2	13	9	MEAT	883	n/a	n/a	0	0	0
2126140	WORD	wordpools/wasnorm_wordpool_576.txt	LTP283	ltpFR2	13	9	WRENCH	1625	n/a	n/a	0	0	0
2128869	WORD	wordpools/wasnorm_wordpool_576.txt	LTP283	ltpFR2	13	9	DINER	467	n/a	n/a	0	0	0
2131566	WORD	wordpools/wasnorm_wordpool_576.txt	LTP283	ltpFR2	13	9	JUGGLER	763	n/a	n/a	0	0	0
2134112	WORD	wordpools/wasnorm_wordpool_576.txt	LTP283	ltpFR2	13	9	CREATURE	403	n/a	n/a	0	0	0
2136857	WORD	wordpools/wasnorm_wordpool_576.txt	LTP283	ltpFR2	13	9	CUSTARD	429	n/a	n/a	0	0	0
2139471	WORD	wordpools/wasnorm_wordpool_576.txt	LTP283	ltpFR2	13	9	PECAN	1036	n/a	n/a	0	0	0
2141917	WORD	wordpools/wasnorm_wordpool_576.txt	LTP283	ltpFR2	13	9	CURTAIN	427	n/a	n/a	0	0	0
2144464	WORD	wordpools/wasnorm_wordpool_576.txt	LTP283	ltpFR2	13	9	PILOT	1070	n/a	n/a	0	0	0
2147109	WORD	wordpools/wasnorm_wordpool_576.txt	LTP283	ltpFR2	13	9	PLATE	1086	n/a	n/a	0	0	0
2149922	WORD	wordpools/wasnorm_wordpool_576.txt	LTP283	ltpFR2	13	9	SCARF	1246	n/a	n/a	0	0	0
2152685	WORD	wordpools/wasnorm_wordpool_576.txt	LTP283	ltpFR2	13	9	GLOBE	641	n/a	n/a	0	0	0
2155114	WORD	wordpools/wasnorm_wordpool_576.txt	LTP283	ltpFR2	13	9	RAFT	1159	n/a	n/a	0	0	0
2157910	WORD	wordpools/wasnorm_wordpool_576.txt	LTP283	ltpFR2	13	9	PICNIC	1060	n/a	n/a	0	0	0
2160674	WORD	wordpools/wasnorm_wordpool_576.txt	LTP283	ltpFR2	13	9	BANQUET	86	n/a	n/a	0	0	0
2163220	WORD	wordpools/wasnorm_wordpool_576.txt	LTP283	ltpFR2	13	9	OUTFIT	988	n/a	n/a	0	0	0
2165832	WORD	wordpools/wasnorm_wordpool_576.txt	LTP283	ltpFR2	13	9	GANGSTER	620	n/a	n/a	0	0	0
2168429	WORD	wordpools/wasnorm_wordpool_576.txt	LTP283	ltpFR2	13	9	PISTOL	1075	n/a	n/a	0	0	0
2171107	WORD	wordpools/wasnorm_wordpool_576.txt	LTP283	ltpFR2	13	9	MAILMAN	858	n/a	n/a	0	0	0
2173704	WORD	wordpools/wasnorm_wordpool_576.txt	LTP283	ltpFR2	13	9	PUPPY	1144	n/a	n/a	0	0	0
2176384	WORD	wordpools/wasnorm_wordpool_576.txt	LTP283	ltpFR2	13	9	FREEZER	604	n/a	n/a	0	0	0
2177997	START	n/a	LTP283	ltpFR2	13	n/a	n/a	n/a	16	n/a	n/a	n/a	n/a
2179179	DISTRACTOR	n/a	LTP283	ltpFR2	13	9	n/a	n/a	n/a	n/a	0	0	0
2179196	PROB	n/a	LTP283	ltpFR2	13	n/a	n/a	n/a	16	2	8	9	6
2181142	PROB	n/a	LTP283	ltpFR2	13	n/a	n/a	n/a	16	12	3	4	5
2183139	PROB	n/a	LTP283	ltpFR2	13	n/a	n/a	n/a	16	12	3	5	4
2185952	PROB	n/a	LTP283	ltpFR2	13	n/a	n/a	n/a	16	12	3	3	6
2187334	PROB	n/a	LTP283	ltpFR2	13	n/a	n/a	n/a	16	18	5	4	9
2188649	PROB	n/a	LTP283	ltpFR2	13	n/a	n/a	n/a	16	17	9	5	3
2190146	PROB	n/a	LTP283	ltpFR2	13	n/a	n/a	n/a	16	19	5	8	6
2195887	PROB	n/a	LTP283	ltpFR2	13	n/a	n/a	n/a	16	9	3	1	5
2197186	PROB	n/a	LTP283	ltpFR2	13	n/a	n/a	n/a	16	17	3	8	6
2199981	PROB	n/a	LTP283	ltpFR2	13	n/a	n/a	n/a	16	13	3	2	8
2201301	STOP	n/a	LTP283	ltpFR2	13	n/a	n/a	n/a	16	n/a	n/a	n/a	n/a
2203761	REC_START	n/a	LTP283	ltpFR2	13	9	n/a	n/a	n/a	n/a	0	0	0
2205272	REC_WORD	wordpools/wasnorm_wordpool_576.txt	LTP283	ltpFR2	13	9	PUPPY	1144	n/a	n/a	0	0	0
2205948	REC_WORD	wordpools/wasnorm_wordpool_576.txt	LTP283	ltpFR2	13	9	FREEZER	604	n/a	n/a	0	0	0
2206875	REC_WORD	wordpools/wasnorm_wordpool_576.txt	LTP283	ltpFR2	13	9	PISTOL	1075	n/a	n/a	0	0	0
2208145	REC_WORD	wordpools/wasnorm_wordpool_576.txt	LTP283	ltpFR2	13	9	GANGSTER	620	n/a	n/a	0	0	0
2209193	REC_WORD	wordpools/wasnorm_wordpool_576.txt	LTP283	ltpFR2	13	9	MAILMAN	858	n/a	n/a	0	0	0
2210808	REC_WORD	wordpools/wasnorm_wordpool_576.txt	LTP283	ltpFR2	13	9	PLATE	1086	n/a	n/a	0	0	0
2211450	REC_WORD	wordpools/wasnorm_wordpool_576.txt	LTP283	ltpFR2	13	9	PILOT	1070	n/a	n/a	0	0	0
2214932	REC_WORD	wordpools/wasnorm_wordpool_576.txt	LTP283	ltpFR2	13	9	HUSBAND	728	n/a	n/a	0	0	0
2215623	REC_WORD	wordpools/wasnorm_wordpool_576.txt	LTP283	ltpFR2	13	9	GLASS	639	n/a	n/a	0	0	0
2216027	REC_WORD	wordpools/wasnorm_wordpool_576.txt	LTP283	ltpFR2	13	9	SALAD	1224	n/a	n/a	0	0	0
2217926	REC_WORD	wordpools/wasnorm_wordpool_576.txt	LTP283	ltpFR2	13	9	DINER	467	n/a	n/a	0	0	0
2218577	REC_WORD	wordpools/wasnorm_wordpool_576.txt	LTP283	ltpFR2	13	9	WRENCH	1625	n/a	n/a	0	0	0
2220630	REC_WORD	wordpools/wasnorm_wordpool_576.txt	LTP283	ltpFR2	13	9	JUGGLER	763	n/a	n/a	0	0	0
2221591	REC_WORD	wordpools/wasnorm_wordpool_576.txt	LTP283	ltpFR2	13	9	PECAN	1036	n/a	n/a	0	0	0
2223535	REC_WORD	wordpools/wasnorm_wordpool_576.txt	LTP283	ltpFR2	13	9	PUDDING	1139	n/a	n/a	0	0	0
2224790	REC_WORD	wordpools/wasnorm_wordpool_576.txt	LTP283	ltpFR2	13	9	CREATURE	403	n/a	n/a	0	0	0
2232726	REC_WORD	wordpools/wasnorm_wordpool_576.txt	LTP283	ltpFR2	13	9	PICNIC	1060	n/a	n/a	0	0	0
2233273	REC_WORD	wordpools/wasnorm_wordpool_576.txt	LTP283	ltpFR2	13	9	BOUQUET	157	n/a	n/a	0	0	0
2234890	REC_WORD	wordpools/wasnorm_wordpool_576.txt	LTP283	ltpFR2	13	9	BANQUET	86	n/a	n/a	0	0	0
2294443	WORD	wordpools/wasnorm_wordpool_576.txt	LTP283	ltpFR2	13	10	REPORT	1184	n/a	n/a	0	0	0
2296922	WORD	wordpools/wasnorm_wordpool_576.txt	LTP283	ltpFR2	13	10	ORCHID	982	n/a	n/a	0	0	0
2299702	WORD	wordpools/wasnorm_wordpool_576.txt	LTP283	ltpFR2	13	10	FLESH	579	n/a	n/a	0	0	0
2302232	WORD	wordpools/wasnorm_wordpool_576.txt	LTP283	ltpFR2	13	10	SHELTER	1282	n/a	n/a	0	0	0
2304678	WORD	wordpools/wasnorm_wordpool_576.txt	LTP283	ltpFR2	13	10	DIME	466	n/a	n/a	0	0	0
2307140	WORD	wordpools/wasnorm_wordpool_576.txt	LTP283	ltpFR2	13	10	TREAT	1501	n/a	n/a	0	0	0
2309870	WORD	wordpools/wasnorm_wordpool_576.txt	LTP283	ltpFR2	13	10	CANDY	230	n/a	n/a	0	0	0
2312367	WORD	wordpools/wasnorm_wordpool_576.txt	LTP283	ltpFR2	13	10	JELLY	755	n/a	n/a	0	0	0
2315062	WORD	wordpools/wasnorm_wordpool_576.txt	LTP283	ltpFR2	13	10	HAWK	692	n/a	n/a	0	0	0
2317841	WORD	wordpools/wasnorm_wordpool_576.txt	LTP283	ltpFR2	13	10	BREAST	171	n/a	n/a	0	0	0
2320439	WORD	wordpools/wasnorm_wordpool_576.txt	LTP283	ltpFR2	13	10	MESSAGE	888	n/a	n/a	0	0	0
2323134	WORD	wordpools/wasnorm_wordpool_576.txt	LTP283	ltpFR2	13	10	AGENT	10	n/a	n/a	0	0	0
2325946	WORD	wordpools/wasnorm_wordpool_576.txt	LTP283	ltpFR2	13	10	GRILL	661	n/a	n/a	0	0	0
2328743	WORD	wordpools/wasnorm_wordpool_576.txt	LTP283	ltpFR2	13	10	BABY	64	n/a	n/a	0	0	0
2331439	WORD	wordpools/wasnorm_wordpool_576.txt	LTP283	ltpFR2	13	10	BANKER	84	n/a	n/a	0	0	0
2334018	WORD	wordpools/wasnorm_wordpool_576.txt	LTP283	ltpFR2	13	10	KNAPSACK	783	n/a	n/a	0	0	0
2336681	WORD	wordpools/wasnorm_wordpool_576.txt	LTP283	ltpFR2	13	10	FILM	565	n/a	n/a	0	0	0
2339194	WORD	wordpools/wasnorm_wordpool_576.txt	LTP283	ltpFR2	13	10	ROD	1203	n/a	n/a	0	0	0
2341939	WORD	wordpools/wasnorm_wordpool_576.txt	LTP283	ltpFR2	13	10	COTTAGE	384	n/a	n/a	0	0	0
2344487	WORD	wordpools/wasnorm_wordpool_576.txt	LTP283	ltpFR2	13	10	SEAGULL	1261	n/a	n/a	0	0	0
2347299	WORD	wordpools/wasnorm_wordpool_576.txt	LTP283	ltpFR2	13	10	SCRIBBLE	1256	n/a	n/a	0	0	0
2349961	WORD	wordpools/wasnorm_wordpool_576.txt	LTP283	ltpFR2	13	10	HOOD	714	n/a	n/a	0	0	0
2352724	WORD	wordpools/wasnorm_wordpool_576.txt	LTP283	ltpFR2	13	10	MOTOR	922	n/a	n/a	0	0	0
2355454	WORD	wordpools/wasnorm_wordpool_576.txt	LTP283	ltpFR2	13	10	QUARTER	1148	n/a	n/a	0	0	0
2357067	START	n/a	LTP283	ltpFR2	13	n/a	n/a	n/a	17	n/a	n/a	n/a	n/a
2357893	DISTRACTOR	n/a	LTP283	ltpFR2	13	10	n/a	n/a	n/a	n/a	0	0	0
2357899	PROB	n/a	LTP283	ltpFR2	13	n/a	n/a	n/a	17	16	4	4	8
2359531	PROB	n/a	LTP283	ltpFR2	13	n/a	n/a	n/a	17	13	8	2	3
2361094	PROB	n/a	LTP283	ltpFR2	13	n/a	n/a	n/a	17	18	3	6	9
2362294	PROB	n/a	LTP283	ltpFR2	13	n/a	n/a	n/a	17	21	5	9	7
2365489	PROB	n/a	LTP283	ltpFR2	13	n/a	n/a	n/a	17	15	2	8	5
2366754	PROB	n/a	LTP283	ltpFR2	13	n/a	n/a	n/a	17	15	2	6	7
2369367	PROB	n/a	LTP283	ltpFR2	13	n/a	n/a	n/a	17	22	8	9	5
2371247	PROB	n/a	LTP283	ltpFR2	13	n/a	n/a	n/a	17	13	7	5	1
2373110	PROB	n/a	LTP283	ltpFR2	13	n/a	n/a	n/a	17	19	7	4	8
2375158	PROB	n/a	LTP283	ltpFR2	13	n/a	n/a	n/a	17	18	9	7	2
2377488	PROB	n/a	LTP283	ltpFR2	13	n/a	n/a	n/a	17	18	3	9	6
2379018	PROB	n/a	LTP283	ltpFR2	13	n/a	n/a	n/a	17	12	4	5	3
2380291	STOP	n/a	LTP283	ltpFR2	13	n/a	n/a	n/a	17	n/a	n/a	n/a	n/a
2382880	REC_START	n/a	LTP283	ltpFR2	13	10	n/a	n/a	n/a	n/a	0	0	0
2383720	REC_WORD	wordpools/wasnorm_wordpool_576.txt	LTP283	ltpFR2	13	10	SEAGULL	1261	n/a	n/a	0	0	0
2384467	REC_WORD	wordpools/wasnorm_wordpool_576.txt	LTP283	ltpFR2	13	10	QUARTER	1148	n/a	n/a	0	0	0
2385055	REC_WORD	wordpools/wasnorm_wordpool_576.txt	LTP283	ltpFR2	13	10	MOTOR	922	n/a	n/a	0	0	0
2386432	REC_WORD	wordpools/wasnorm_wordpool_576.txt	LTP283	ltpFR2	13	10	COTTAGE	384	n/a	n/a	0	0	0
2387695	REC_WORD	wordpools/wasnorm_wordpool_576.txt	LTP283	ltpFR2	13	10	HOOD	714	n/a	n/a	0	0	0
2397424	REC_WORD	wordpools/wasnorm_wordpool_576.txt	LTP283	ltpFR2	13	10	SHELTER	1282	n/a	n/a	0	0	0
2398392	REC_WORD	wordpools/wasnorm_wordpool_576.txt	LTP283	ltpFR2	13	10	BREAST	171	n/a	n/a	0	0	0
2399003	REC_WORD	wordpools/wasnorm_wordpool_576.txt	LTP283	ltpFR2	13	10	MESSAGE	888	n/a	n/a	0	0	0
2399874	REC_WORD	wordpools/wasnorm_wordpool_576.txt	LTP283	ltpFR2	13	10	AGENT	10	n/a	n/a	0	0	0
2404007	REC_WORD	wordpools/wasnorm_wordpool_576.txt	LTP283	ltpFR2	13	10	KNAPSACK	783	n/a	n/a	0	0	0
2404814	REC_WORD	wordpools/wasnorm_wordpool_576.txt	LTP283	ltpFR2	13	10	BABY	64	n/a	n/a	0	0	0
2407890	REC_WORD	wordpools/wasnorm_wordpool_576.txt	LTP283	ltpFR2	13	10	ROD	1203	n/a	n/a	0	0	0
2409592	REC_WORD	wordpools/wasnorm_wordpool_576.txt	LTP283	ltpFR2	13	10	FILM	565	n/a	n/a	0	0	0
2413337	REC_WORD	wordpools/wasnorm_wordpool_576.txt	LTP283	ltpFR2	13	10	DIME	466	n/a	n/a	0	0	0
2413706	REC_WORD	wordpools/wasnorm_wordpool_576.txt	LTP283	ltpFR2	13	10	QUARTER	1148	n/a	n/a	0	0	0
2414845	REC_WORD	wordpools/wasnorm_wordpool_576.txt	LTP283	ltpFR2	13	10	TREAT	1501	n/a	n/a	0	0	0
2418576	REC_WORD	wordpools/wasnorm_wordpool_576.txt	LTP283	ltpFR2	13	10	HAWK	692	n/a	n/a	0	0	0
2421408	REC_WORD	wordpools/wasnorm_wordpool_576.txt	LTP283	ltpFR2	13	10	JELLO	754	n/a	n/a	0	0	0
2473514	DISTRACTOR	n/a	LTP283	ltpFR2	13	11	n/a	n/a	n/a	n/a	0	0	0
2473514	START	n/a	LTP283	ltpFR2	13	n/a	n/a	n/a	18	n/a	n/a	n/a	n/a
2473547	PROB	n/a	LTP283	ltpFR2	13	n/a	n/a	n/a	18	13	2	3	8
2474977	PROB	n/a	LTP283	ltpFR2	13	n/a	n/a	n/a	18	18	7	2	9
2476393	PROB	n/a	LTP283	ltpFR2	13	n/a	n/a	n/a	18	10	4	4	2
2477541	PROB	n/a	LTP283	ltpFR2	13	n/a	n/a	n/a	18	14	6	4	4
2478689	PROB	n/a	LTP283	ltpFR2	13	n/a	n/a	n/a	18	15	6	6	3
2480503	PROB	n/a	LTP283	ltpFR2	13	n/a	n/a	n/a	18	18	6	3	9
2482782	PROB	n/a	LTP283	ltpFR2	13	n/a	n/a	n/a	18	17	8	1	8
2484581	PROB	n/a	LTP283	ltpFR2	13	n/a	n/a	n/a	18	18	3	6	9
2485762	PROB	n/a	LTP283	ltpFR2	13	n/a	n/a	n/a	18	12	1	2	9
2486943	PROB	n/a	LTP283	ltpFR2	13	n/a	n/a	n/a	18	10	1	1	8
2488209	PROB	n/a	LTP283	ltpFR2	13	n/a	n/a	n/a	18	18	3	8	7
2489390	PROB	n/a	LTP283	ltpFR2	13	n/a	n/a	n/a	18	18	5	4	9
2490555	PROB	n/a	LTP283	ltpFR2	13	n/a	n/a	n/a	18	11	1	2	8
2491769	PROB	n/a	LTP283	ltpFR2	13	n/a	n/a	n/a	18	23	5	9	9
2493966	PROB	n/a	LTP283	ltpFR2	13	n/a	n/a	n/a	18	21	5	8	8
2495348	PROB	n/a	LTP283	ltpFR2	13	n/a	n/a	n/a	18	17	4	8	5
2497069	STOP	n/a	LTP283	ltpFR2	13	n/a	n/a	n/a	18	n/a	n/a	n/a	n/a
2498410	WORD	wordpools/wasnorm_wordpool_576.txt	LTP283	ltpFR2	13	11	EAGLE	512	n/a	n/a	0	0	0
2501072	WORD	wordpools/wasnorm_wordpool_576.txt	LTP283	ltpFR2	13	11	LOFT	840	n/a	n/a	0	0	0
2503835	WORD	wordpools/wasnorm_wordpool_576.txt	LTP283	ltpFR2	13	11	CITRUS	313	n/a	n/a	0	0	0
2506548	WORD	wordpools/wasnorm_wordpool_576.txt	LTP283	ltpFR2	13	11	NIGHTGOWN	953	n/a	n/a	0	0	0
2509361	WORD	wordpools/wasnorm_wordpool_576.txt	LTP283	ltpFR2	13	11	BANJO	82	n/a	n/a	0	0	0
2511823	WORD	wordpools/wasnorm_wordpool_576.txt	LTP283	ltpFR2	13	11	COLLEGE	346	n/a	n/a	0	0	0
2514553	WORD	wordpools/wasnorm_wordpool_576.txt	LTP283	ltpFR2	13	11	CRAYON	401	n/a	n/a	0	0	0
2517299	WORD	wordpools/wasnorm_wordpool_576.txt	LTP283	ltpFR2	13	11	PAPER	1011	n/a	n/a	0	0	0
2519878	WORD	wordpools/wasnorm_wordpool_576.txt	LTP283	ltpFR2	13	11	POISON	1096	n/a	n/a	0	0	0
2522625	WORD	wordpools/wasnorm_wordpool_576.txt	LTP283	ltpFR2	13	11	LIZARD	834	n/a	n/a	0	0	0
2525337	WORD	wordpools/wasnorm_wordpool_576.txt	LTP283	ltpFR2	13	11	VALLEY	1545	n/a	n/a	0	0	0
2528132	WORD	wordpools/wasnorm_wordpool_576.txt	LTP283	ltpFR2	13	11	SLOPE	1328	n/a	n/a	0	0	0
2530845	WORD	wordpools/wasnorm_wordpool_576.txt	LTP283	ltpFR2	13	11	BEAKER	104	n/a	n/a	0	0	0
2533425	WORD	wordpools/wasnorm_wordpool_576.txt	LTP283	ltpFR2	13	11	MARINE	869	n/a	n/a	0	0	0
2536221	WORD	wordpools/wasnorm_wordpool_576.txt	LTP283	ltpFR2	13	11	SILK	1307	n/a	n/a	0	0	0
2538767	WORD	wordpools/wasnorm_wordpool_576.txt	LTP283	ltpFR2	13	11	COURSE	390	n/a	n/a	0	0	0
2541580	WORD	wordpools/wasnorm_wordpool_576.txt	LTP283	ltpFR2	13	11	GALLON	618	n/a	n/a	0	0	0
2544059	WORD	wordpools/wasnorm_wordpool_576.txt	LTP283	ltpFR2	13	11	FARMER	553	n/a	n/a	0	0	0
2546771	WORD	wordpools/wasnorm_wordpool_576.txt	LTP283	ltpFR2	13	11	TROUT	1511	n/a	n/a	0	0	0
2549552	WORD	wordpools/wasnorm_wordpool_576.txt	LTP283	ltpFR2	13	11	POPCORN	1104	n/a	n/a	0	0	0
2552298	WORD	wordpools/wasnorm_wordpool_576.txt	LTP283	ltpFR2	13	11	CATTLE	261	n/a	n/a	0	0	0
2554926	WORD	wordpools/wasnorm_wordpool_576.txt	LTP283	ltpFR2	13	11	MILK	895	n/a	n/a	0	0	0
2557540	WORD	wordpools/wasnorm_wordpool_576.txt	LTP283	ltpFR2	13	11	UNCLE	1536	n/a	n/a	0	0	0
2559969	WORD	wordpools/wasnorm_wordpool_576.txt	LTP283	ltpFR2	13	11	MONEY	908	n/a	n/a	0	0	0
2561584	START	n/a	LTP283	ltpFR2	13	n/a	n/a	n/a	19	n/a	n/a	n/a	n/a
2562487	DISTRACTOR	n/a	LTP283	ltpFR2	13	11	n/a	n/a	n/a	n/a	0	0	0
2562499	PROB	n/a	LTP283	ltpFR2	13	n/a	n/a	n/a	19	12	7	4	1
2564563	PROB	n/a	LTP283	ltpFR2	13	n/a	n/a	n/a	19	14	4	7	3
2565843	PROB	n/a	LTP283	ltpFR2	13	n/a	n/a	n/a	19	10	3	4	3
2567176	PROB	n/a	LTP283	ltpFR2	13	n/a	n/a	n/a	19	23	9	8	6
2568789	PROB	n/a	LTP283	ltpFR2	13	n/a	n/a	n/a	19	14	4	2	8
2570087	PROB	n/a	LTP283	ltpFR2	13	n/a	n/a	n/a	19	15	7	5	3
2571320	PROB	n/a	LTP283	ltpFR2	13	n/a	n/a	n/a	19	18	3	6	9
2572916	PROB	n/a	LTP283	ltpFR2	13	n/a	n/a	n/a	19	15	3	8	4
2574731	PROB	n/a	LTP283	ltpFR2	13	n/a	n/a	n/a	19	19	2	9	8
2576028	PROB	n/a	LTP283	ltpFR2	13	n/a	n/a	n/a	19	9	4	3	2
2577494	PROB	n/a	LTP283	ltpFR2	13	n/a	n/a	n/a	19	13	4	4	5
2579140	PROB	n/a	LTP283	ltpFR2	13	n/a	n/a	n/a	19	15	6	7	2
2581222	PROB	n/a	LTP283	ltpFR2	13	n/a	n/a	n/a	19	18	9	2	7
2582620	PROB	n/a	LTP283	ltpFR2	13	n/a	n/a	n/a	19	10	3	1	6
2583685	PROB	n/a	LTP283	ltpFR2	13	n/a	n/a	n/a	19	20	7	9	4
2585160	STOP	n/a	LTP283	ltpFR2	13	n/a	n/a	n/a	19	n/a	n/a	n/a	n/a
2587397	REC_START	n/a	LTP283	ltpFR2	13	11	n/a	n/a	n/a	n/a	0	0	0
2589604	REC_WORD_VV	wordpools/wasnorm_wordpool_576.txt	LTP283	ltpFR2	13	11	<>	-1	n/a	n/a	0	0	0
2590863	REC_WORD	wordpools/wasnorm_wordpool_576.txt	LTP283	ltpFR2	13	11	CATTLE	261	n/a	n/a	0	0	0
2591887	REC_WORD	wordpools/wasnorm_wordpool_576.txt	LTP283	ltpFR2	13	11	FARMER	553	n/a	n/a	0	0	0
2593233	REC_WORD	wordpools/wasnorm_wordpool_576.txt	LTP283	ltpFR2	13	11	MILK	895	n/a	n/a	0	0	0
2594296	REC_WORD	wordpools/wasnorm_wordpool_576.txt	LTP283	ltpFR2	13	11	TROUT	1511	n/a	n/a	0	0	0
2595759	REC_WORD	wordpools/wasnorm_wordpool_576.txt	LTP283	ltpFR2	13	11	MONEY	908	n/a	n/a	0	0	0
2599140	REC_WORD	wordpools/wasnorm_wordpool_576.txt	LTP283	ltpFR2	13	11	UNCLE	1536	n/a	n/a	0	0	0
2601056	REC_WORD	wordpools/wasnorm_wordpool_576.txt	LTP283	ltpFR2	13	11	LIZARD	834	n/a	n/a	0	0	0
2602004	REC_WORD	wordpools/wasnorm_wordpool_576.txt	LTP283	ltpFR2	13	11	POISON	1096	n/a	n/a	0	0	0
2603241	REC_WORD	wordpools/wasnorm_wordpool_576.txt	LTP283	ltpFR2	13	11	SLOPE	1328	n/a	n/a	0	0	0
2604064	REC_WORD	wordpools/wasnorm_wordpool_576.txt	LTP283	ltpFR2	13	11	VALLEY	1545	n/a	n/a	0	0	0
2607369	REC_WORD_VV	wordpools/wasnorm_wordpool_576.txt	LTP283	ltpFR2	13	11	<>	-1	n/a	n/a	0	0	0
2609881	REC_WORD	wordpools/wasnorm_wordpool_576.txt	LTP283	ltpFR2	13	11	MARINE	869	n/a	n/a	0	0	0
2611176	REC_WORD	wordpools/wasnorm_wordpool_576.txt	LTP283	ltpFR2	13	11	BEAKER	104	n/a	n/a	0	0	0
2613376	REC_WORD	wordpools/wasnorm_wordpool_576.txt	LTP283	ltpFR2	13	11	GALLON	618	n/a	n/a	0	0	0
2615468	REC_WORD	wordpools/wasnorm_wordpool_576.txt	LTP283	ltpFR2	13	11	COLLEGE	346	n/a	n/a	0	0	0
2616142	REC_WORD	wordpools/wasnorm_wordpool_576.txt	LTP283	ltpFR2	13	11	COURSE	390	n/a	n/a	0	0	0
2617395	REC_WORD	wordpools/wasnorm_wordpool_576.txt	LTP283	ltpFR2	13	11	SILK	1307	n/a	n/a	0	0	0
2618172	REC_WORD	wordpools/wasnorm_wordpool_576.txt	LTP283	ltpFR2	13	11	NIGHTGOWN	953	n/a	n/a	0	0	0
2620672	REC_WORD	wordpools/wasnorm_wordpool_576.txt	LTP283	ltpFR2	13	11	EAGLE	512	n/a	n/a	0	0	0
2621228	REC_WORD	wordpools/wasnorm_wordpool_576.txt	LTP283	ltpFR2	13	11	LOFT	840	n/a	n/a	0	0	0
2621635	REC_WORD	wordpools/wasnorm_wordpool_576.txt	LTP283	ltpFR2	13	11	CITRUS	313	n/a	n/a	0	0	0
2678078	WORD	wordpools/wasnorm_wordpool_576.txt	LTP283	ltpFR2	13	12	CROWN	415	n/a	n/a	0	0	0
2680841	WORD	wordpools/wasnorm_wordpool_576.txt	LTP283	ltpFR2	13	12	LONDON	843	n/a	n/a	0	0	0
2683422	WORD	wordpools/wasnorm_wordpool_576.txt	LTP283	ltpFR2	13	12	MUFFIN	929	n/a	n/a	0	0	0
2685884	WORD	wordpools/wasnorm_wordpool_576.txt	LTP283	ltpFR2	13	12	TOASTER	1472	n/a	n/a	0	0	0
2688398	WORD	wordpools/wasnorm_wordpool_576.txt	LTP283	ltpFR2	13	12	BRACES	164	n/a	n/a	0	0	0
2690876	WORD	wordpools/wasnorm_wordpool_576.txt	LTP283	ltpFR2	13	12	PENGUIN	1044	n/a	n/a	0	0	0
2693440	WORD	wordpools/wasnorm_wordpool_576.txt	LTP283	ltpFR2	13	12	FRAGRANCE	599	n/a	n/a	0	0	0
2695919	WORD	wordpools/wasnorm_wordpool_576.txt	LTP283	ltpFR2	13	12	MISSILE	900	n/a	n/a	0	0	0
2698466	WORD	wordpools/wasnorm_wordpool_576.txt	LTP283	ltpFR2	13	12	CLIMBER	323	n/a	n/a	0	0	0
2700912	WORD	wordpools/wasnorm_wordpool_576.txt	LTP283	ltpFR2	13	12	SISTER	1312	n/a	n/a	0	0	0
2703642	WORD	wordpools/wasnorm_wordpool_576.txt	LTP283	ltpFR2	13	12	WINDOW	1611	n/a	n/a	0	0	0
2706120	WORD	wordpools/wasnorm_wordpool_576.txt	LTP283	ltpFR2	13	12	COMPASS	358	n/a	n/a	0	0	0
2708900	WORD	wordpools/wasnorm_wordpool_576.txt	LTP283	ltpFR2	13	12	NECKLACE	940	n/a	n/a	0	0	0
2711713	WORD	wordpools/wasnorm_wordpool_576.txt	LTP283	ltpFR2	13	12	MATCH	878	n/a	n/a	0	0	0
2714509	WORD	wordpools/wasnorm_wordpool_576.txt	LTP283	ltpFR2	13	12	GARDEN	623	n/a	n/a	0	0	0
2717255	WORD	wordpools/wasnorm_wordpool_576.txt	LTP283	ltpFR2	13	12	HOSTESS	723	n/a	n/a	0	0	0
2719983	WORD	wordpools/wasnorm_wordpool_576.txt	LTP283	ltpFR2	13	12	HATCHET	691	n/a	n/a	0	0	0
2722514	WORD	wordpools/wasnorm_wordpool_576.txt	LTP283	ltpFR2	13	12	SNAKE	1333	n/a	n/a	0	0	0
2725177	WORD	wordpools/wasnorm_wordpool_576.txt	LTP283	ltpFR2	13	12	DRILL	497	n/a	n/a	0	0	0
2727640	WORD	wordpools/wasnorm_wordpool_576.txt	LTP283	ltpFR2	13	12	BUG	187	n/a	n/a	0	0	0
2730236	WORD	wordpools/wasnorm_wordpool_576.txt	LTP283	ltpFR2	13	12	COCOON	339	n/a	n/a	0	0	0
2733048	WORD	wordpools/wasnorm_wordpool_576.txt	LTP283	ltpFR2	13	12	GLOVE	642	n/a	n/a	0	0	0
2735827	WORD	wordpools/wasnorm_wordpool_576.txt	LTP283	ltpFR2	13	12	SCISSORS	1250	n/a	n/a	0	0	0
2738624	WORD	wordpools/wasnorm_wordpool_576.txt	LTP283	ltpFR2	13	12	LILY	821	n/a	n/a	0	0	0
2740238	START	n/a	LTP283	ltpFR2	13	n/a	n/a	n/a	20	n/a	n/a	n/a	n/a
2741278	DISTRACTOR	n/a	LTP283	ltpFR2	13	12	n/a	n/a	n/a	n/a	0	0	0
2741286	PROB	n/a	LTP283	ltpFR2	13	n/a	n/a	n/a	20	13	5	2	6
2743383	PROB	n/a	LTP283	ltpFR2	13	n/a	n/a	n/a	20	18	9	6	3
2744765	PROB	n/a	LTP283	ltpFR2	13	n/a	n/a	n/a	20	17	1	8	8
2746078	PROB	n/a	LTP283	ltpFR2	13	n/a	n/a	n/a	20	16	9	5	2
2747677	PROB	n/a	LTP283	ltpFR2	13	n/a	n/a	n/a	20	14	5	3	6
2750223	PROB	n/a	LTP283	ltpFR2	13	n/a	n/a	n/a	20	20	3	8	9
2751388	PROB	n/a	LTP283	ltpFR2	13	n/a	n/a	n/a	20	17	6	3	8
2753652	PROB	n/a	LTP283	ltpFR2	13	n/a	n/a	n/a	20	15	9	5	1
2754999	PROB	n/a	LTP283	ltpFR2	13	n/a	n/a	n/a	20	17	8	3	6
2756631	PROB	n/a	LTP283	ltpFR2	13	n/a	n/a	n/a	20	15	6	1	8
2758011	PROB	n/a	LTP283	ltpFR2	13	n/a	n/a	n/a	20	16	6	7	3
2759327	PROB	n/a	LTP283	ltpFR2	13	n/a	n/a	n/a	20	26	9	8	9
2761023	PROB	n/a	LTP283	ltpFR2	13	n/a	n/a	n/a	20	8	4	1	3
2764238	STOP	n/a	LTP283	ltpFR2	13	n/a	n/a	n/a	20	n/a	n/a	n/a	n/a
2766000	REC_START	n/a	LTP283	ltpFR2	13	12	n/a	n/a	n/a	n/a	0	0	0
2767942	REC_WORD	wordpools/wasnorm_wordpool_576.txt	LTP283	ltpFR2	13	12	LILY	821	n/a	n/a	0	0	0
2772257	REC_WORD	wordpools/wasnorm_wordpool_576.txt	LTP283	ltpFR2	13	12	GARDEN	623	n/a	n/a	0	0	0
2772819	REC_WORD	wordpools/wasnorm_wordpool_576.txt	LTP283	ltpFR2	13	12	MATCH	878	n/a	n/a	0	0	0
2775029	REC_WORD	wordpools/wasnorm_wordpool_576.txt	LTP283	ltpFR2	13	12	COCOON	339	n/a	n/a	0	0	0
2775771	REC_WORD	wordpools/wasnorm_wordpool_576.txt	LTP283	ltpFR2	13	12	SCISSORS	1250	n/a	n/a	0	0	0
2776463	REC_WORD	wordpools/wasnorm_wordpool_576.txt	LTP283	ltpFR2	13	12	GLOVE	642	n/a	n/a	0	0	0
2776950	REC_WORD	wordpools/wasnorm_wordpool_576.txt	LTP283	ltpFR2	13	12	SNAKE	1333	n/a	n/a	0	0	0
2777876	REC_WORD	wordpools/wasnorm_wordpool_576.txt	LTP283	ltpFR2	13	12	DRILL	497	n/a	n/a	0	0	0
2778348	REC_WORD	wordpools/wasnorm_wordpool_576.txt	LTP283	ltpFR2	13	12	HATCHET	691	n/a	n/a	0	0	0
2778952	REC_WORD	wordpools/wasnorm_wordpool_576.txt	LTP283	ltpFR2	13	12	HOSTESS	723	n/a	n/a	0	0	0
2782141	REC_WORD_VV	wordpools/wasnorm_wordpool_576.txt	LTP283	ltpFR2	13	12	<>	-1	n/a	n/a	0	0	0
2785891	REC_WORD	wordpools/wasnorm_wordpool_576.txt	LTP283	ltpFR2	13	12	BUG	187	n/a	n/a	0	0	0
2790795	REC_WORD_VV	wordpools/wasnorm_wordpool_576.txt	LTP283	ltpFR2	13	12	<>	-1	n/a	n/a	0	0	0
2794076	REC_WORD	wordpools/wasnorm_wordpool_576.txt	LTP283	ltpFR2	13	12	SISTER	1312	n/a	n/a	0	0	0
2795076	REC_WORD_VV	wordpools/wasnorm_wordpool_576.txt	LTP283	ltpFR2	13	12	<>	-1	n/a	n/a	0	0	0
2796266	REC_WORD	wordpools/wasnorm_wordpool_576.txt	LTP283	ltpFR2	13	12	CROWN	415	n/a	n/a	0	0	0
2797296	REC_WORD	wordpools/wasnorm_wordpool_576.txt	LTP283	ltpFR2	13	12	NECKLACE	940	n/a	n/a	0	0	0
2798325	REC_WORD	wordpools/wasnorm_wordpool_576.txt	LTP283	ltpFR2	13	12	COMPASS	358	n/a	n/a	0	0	0
2799640	REC_WORD	wordpools/wasnorm_wordpool_576.txt	LTP283	ltpFR2	13	12	CLIMBER	323	n/a	n/a	0	0	0
2800278	REC_WORD	wordpools/wasnorm_wordpool_576.txt	LTP283	ltpFR2	13	12	MISSILE	900	n/a	n/a	0	0	0
2804765	REC_WORD	wordpools/wasnorm_wordpool_576.txt	LTP283	ltpFR2	13	12	BRACES	164	n/a	n/a	0	0	0
2806368	REC_WORD	wordpools/wasnorm_wordpool_576.txt	LTP283	ltpFR2	13	12	FRAGRANCE	599	n/a	n/a	0	0	0
2807368	REC_WORD_VV	wordpools/wasnorm_wordpool_576.txt	LTP283	ltpFR2	13	12	<>	-1	n/a	n/a	0	0	0
2817526	REC_WORD	wordpools/wasnorm_wordpool_576.txt	LTP283	ltpFR2	13	12	MISSILE	900	n/a	n/a	0	0	0
2821038	REC_WORD	wordpools/wasnorm_wordpool_576.txt	LTP283	ltpFR2	13	12	LONDON	843	n/a	n/a	0	0	0
2829331	REC_WORD	wordpools/wasnorm_wordpool_576.txt	LTP283	ltpFR2	13	12	WINDOW	1611	n/a	n/a	0	0	0
2856634	WORD	wordpools/wasnorm_wordpool_576.txt	LTP283	ltpFR2	13	13	CRAB	397	n/a	n/a	0	0	0
2859230	WORD	wordpools/wasnorm_wordpool_576.txt	LTP283	ltpFR2	13	13	CARROT	249	n/a	n/a	0	0	0
2861925	WORD	wordpools/wasnorm_wordpool_576.txt	LTP283	ltpFR2	13	13	ATLAS	53	n/a	n/a	0	0	0
2864356	WORD	wordpools/wasnorm_wordpool_576.txt	LTP283	ltpFR2	13	13	SLIDE	1326	n/a	n/a	0	0	0
2867100	WORD	wordpools/wasnorm_wordpool_576.txt	LTP283	ltpFR2	13	13	WRIST	1626	n/a	n/a	0	0	0
2869548	WORD	wordpools/wasnorm_wordpool_576.txt	LTP283	ltpFR2	13	13	BELLY	119	n/a	n/a	0	0	0
2871977	WORD	wordpools/wasnorm_wordpool_576.txt	LTP283	ltpFR2	13	13	PISTON	1076	n/a	n/a	0	0	0
2874541	WORD	wordpools/wasnorm_wordpool_576.txt	LTP283	ltpFR2	13	13	SUITCASE	1403	n/a	n/a	0	0	0
2877069	WORD	wordpools/wasnorm_wordpool_576.txt	LTP283	ltpFR2	13	13	LASER	801	n/a	n/a	0	0	0
2879700	WORD	wordpools/wasnorm_wordpool_576.txt	LTP283	ltpFR2	13	13	SIDEWALK	1303	n/a	n/a	0	0	0
2882329	WORD	wordpools/wasnorm_wordpool_576.txt	LTP283	ltpFR2	13	13	FLAG	573	n/a	n/a	0	0	0
2884808	WORD	wordpools/wasnorm_wordpool_576.txt	LTP283	ltpFR2	13	13	DORM	488	n/a	n/a	0	0	0
2887472	WORD	wordpools/wasnorm_wordpool_576.txt	LTP283	ltpFR2	13	13	LEADER	807	n/a	n/a	0	0	0
2890117	WORD	wordpools/wasnorm_wordpool_576.txt	LTP283	ltpFR2	13	13	COUNTY	389	n/a	n/a	0	0	0
2892829	WORD	wordpools/wasnorm_wordpool_576.txt	LTP283	ltpFR2	13	13	NOVEL	960	n/a	n/a	0	0	0
2895410	WORD	wordpools/wasnorm_wordpool_576.txt	LTP283	ltpFR2	13	13	PLAYGROUND	1087	n/a	n/a	0	0	0
2897955	WORD	wordpools/wasnorm_wordpool_576.txt	LTP283	ltpFR2	13	13	CRITIC	410	n/a	n/a	0	0	0
2900652	WORD	wordpools/wasnorm_wordpool_576.txt	LTP283	ltpFR2	13	13	LUNCH	849	n/a	n/a	0	0	0
2903114	WORD	wordpools/wasnorm_wordpool_576.txt	LTP283	ltpFR2	13	13	COOKBOOK	373	n/a	n/a	0	0	0
2905711	WORD	wordpools/wasnorm_wordpool_576.txt	LTP283	ltpFR2	13	13	MARKET	871	n/a	n/a	0	0	0
2908357	WORD	wordpools/wasnorm_wordpool_576.txt	LTP283	ltpFR2	13	13	SNACK	1331	n/a	n/a	0	0	0
2910953	WORD	wordpools/wasnorm_wordpool_576.txt	LTP283	ltpFR2	13	13	SUPPER	1411	n/a	n/a	0	0	0
2913650	WORD	wordpools/wasnorm_wordpool_576.txt	LTP283	ltpFR2	13	13	BUTCHER	203	n/a	n/a	0	0	0
2916362	WORD	wordpools/wasnorm_wordpool_576.txt	LTP283	ltpFR2	13	13	SEAFOOD	1260	n/a	n/a	0	0	0
2917976	START	n/a	LTP283	ltpFR2	13	n/a	n/a	n/a	21	n/a	n/a	n/a	n/a
2919134	DISTRACTOR	n/a	LTP283	ltpFR2	13	13	n/a	n/a	n/a	n/a	0	0	0
2919141	PROB	n/a	LTP283	ltpFR2	13	n/a	n/a	n/a	21	23	9	6	8
2921953	PROB	n/a	LTP283	ltpFR2	13	n/a	n/a	n/a	21	13	5	7	1
2924567	PROB	n/a	LTP283	ltpFR2	13	n/a	n/a	n/a	21	11	3	4	4
2926030	PROB	n/a	LTP283	ltpFR2	13	n/a	n/a	n/a	21	14	6	7	1
2927296	PROB	n/a	LTP283	ltpFR2	13	n/a	n/a	n/a	21	24	9	9	6
2929941	PROB	n/a	LTP283	ltpFR2	13	n/a	n/a	n/a	21	12	2	2	8
2931174	PROB	n/a	LTP283	ltpFR2	13	n/a	n/a	n/a	21	16	6	1	9
2932356	PROB	n/a	LTP283	ltpFR2	13	n/a	n/a	n/a	21	15	4	5	6
2933769	PROB	n/a	LTP283	ltpFR2	13	n/a	n/a	n/a	21	23	5	9	9
2936914	PROB	n/a	LTP283	ltpFR2	13	n/a	n/a	n/a	21	19	5	6	7
2940077	PROB	n/a	LTP283	ltpFR2	13	n/a	n/a	n/a	21	21	8	8	5
2941680	STOP	n/a	LTP283	ltpFR2	13	n/a	n/a	n/a	21	n/a	n/a	n/a	n/a
2943756	REC_START	n/a	LTP283	ltpFR2	13	13	n/a	n/a	n/a	n/a	0	0	0
2947429	REC_WORD	wordpools/wasnorm_wordpool_576.txt	LTP283	ltpFR2	13	13	CRAB	397	n/a	n/a	0	0	0
2949107	REC_WORD_VV	wordpools/wasnorm_wordpool_576.txt	LTP283	ltpFR2	13	13	<>	-1	n/a	n/a	0	0	0
2950901	REC_WORD	wordpools/wasnorm_wordpool_576.txt	LTP283	ltpFR2	13	13	WRIST	1626	n/a	n/a	0	0	0
2951627	REC_WORD	wordpools/wasnorm_wordpool_576.txt	LTP283	ltpFR2	13	13	SLIDE	1326	n/a	n/a	0	0	0
2952517	REC_WORD	wordpools/wasnorm_wordpool_576.txt	LTP283	ltpFR2	13	13	BELLY	119	n/a	n/a	0	0	0
2953130	REC_WORD_VV	wordpools/wasnorm_wordpool_576.txt	LTP283	ltpFR2	13	13	<>	-1	n/a	n/a	0	0	0
2954130	REC_WORD_VV	wordpools/wasnorm_wordpool_576.txt	LTP283	ltpFR2	13	13	<>	-1	n/a	n/a	0	0	0
2956920	REC_WORD_VV	wordpools/wasnorm_wordpool_576.txt	LTP283	ltpFR2	13	13	<>	-1	n/a	n/a	0	0	0
2957907	REC_WORD_VV	wordpools/wasnorm_wordpool_576.txt	LTP283	ltpFR2	13	13	<>	-1	n/a	n/a	0	0	0
2960084	REC_WORD	wordpools/wasnorm_wordpool_576.txt	LTP283	ltpFR2	13	13	PISTON	1076	n/a	n/a	0	0	0
2960829	REC_WORD	wordpools/wasnorm_wordpool_576.txt	LTP283	ltpFR2	13	13	CARROT	249	n/a	n/a	0	0	0
2961331	REC_WORD	wordpools/wasnorm_wordpool_576.txt	LTP283	ltpFR2	13	13	FLAG	573	n/a	n/a	0	0	0
2965213	REC_WORD	wordpools/wasnorm_wordpool_576.txt	LTP283	ltpFR2	13	13	ATLAS	53	n/a	n/a	0	0	0
2966229	REC_WORD	wordpools/wasnorm_wordpool_576.txt	LTP283	ltpFR2	13	13	LASER	801	n/a	n/a	0	0	0
2966977	REC_WORD	wordpools/wasnorm_wordpool_576.txt	LTP283	ltpFR2	13	13	BRIEFCASE	175	n/a	n/a	0	0	0
2968887	REC_WORD	wordpools/wasnorm_wordpool_576.txt	LTP283	ltpFR2	13	13	SIDEWALK	1303	n/a	n/a	0	0	0
2971748	REC_WORD	wordpools/wasnorm_wordpool_576.txt	LTP283	ltpFR2	13	13	FLAG	573	n/a	n/a	0	0	0
2973751	REC_WORD	wordpools/wasnorm_wordpool_576.txt	LTP283	ltpFR2	13	13	DORM	488	n/a	n/a	0	0	0
2974286	REC_WORD	wordpools/wasnorm_wordpool_576.txt	LTP283	ltpFR2	13	13	LEADER	807	n/a	n/a	0	0	0
2975098	REC_WORD	wordpools/wasnorm_wordpool_576.txt	LTP283	ltpFR2	13	13	NOVEL	960	n/a	n/a	0	0	0
2975797	REC_WORD	wordpools/wasnorm_wordpool_576.txt	LTP283	ltpFR2	13	13	CRITIC	410	n/a	n/a	0	0	0
2980537	REC_WORD_VV	wordpools/wasnorm_wordpool_576.txt	LTP283	ltpFR2	13	13	<>	-1	n/a	n/a	0	0	0
2980923	REC_WORD	wordpools/wasnorm_wordpool_576.txt	LTP283	ltpFR2	13	13	PLAYGROUND	1087	n/a	n/a	0	0	0
2981833	REC_WORD	wordpools/wasnorm_wordpool_576.txt	LTP283	ltpFR2	13	13	PICNIC	1060	n/a	n/a	0	0	0
2987358	REC_WORD	wordpools/wasnorm_wordpool_576.txt	LTP283	ltpFR2	13	13	MARKET	871	n/a	n/a	0	0	0
2987944	REC_WORD	wordpools/wasnorm_wordpool_576.txt	LTP283	ltpFR2	13	13	SUPPER	1411	n/a	n/a	0	0	0
2989223	REC_WORD	wordpools/wasnorm_wordpool_576.txt	LTP283	ltpFR2	13	13	BUTCHER	203	n/a	n/a	0	0	0
2989846	REC_WORD	wordpools/wasnorm_wordpool_576.txt	LTP283	ltpFR2	13	13	SEAFOOD	1260	n/a	n/a	0	0	0
2994231	REC_WORD	wordpools/wasnorm_wordpool_576.txt	LTP283	ltpFR2	13	13	LUNCH	849	n/a	n/a	0	0	0
3034406	WORD	wordpools/wasnorm_wordpool_576.txt	LTP283	ltpFR2	13	14	STAKE	1368	n/a	n/a	0	0	0
3036834	WORD	wordpools/wasnorm_wordpool_576.txt	LTP283	ltpFR2	13	14	IDOL	733	n/a	n/a	0	0	0
3039615	WORD	wordpools/wasnorm_wordpool_576.txt	LTP283	ltpFR2	13	14	STAR	1373	n/a	n/a	0	0	0
3042110	WORD	wordpools/wasnorm_wordpool_576.txt	LTP283	ltpFR2	13	14	MUSTARD	935	n/a	n/a	0	0	0
3044674	WORD	wordpools/wasnorm_wordpool_576.txt	LTP283	ltpFR2	13	14	PORK	1108	n/a	n/a	0	0	0
3047270	WORD	wordpools/wasnorm_wordpool_576.txt	LTP283	ltpFR2	13	14	LIVER	833	n/a	n/a	0	0	0
3049750	WORD	wordpools/wasnorm_wordpool_576.txt	LTP283	ltpFR2	13	14	HELMET	702	n/a	n/a	0	0	0
3052296	WORD	wordpools/wasnorm_wordpool_576.txt	LTP283	ltpFR2	13	14	APPLE	33	n/a	n/a	0	0	0
3054759	WORD	wordpools/wasnorm_wordpool_576.txt	LTP283	ltpFR2	13	14	WIFE	1609	n/a	n/a	0	0	0
3057338	WORD	wordpools/wasnorm_wordpool_576.txt	LTP283	ltpFR2	13	14	REBEL	1172	n/a	n/a	0	0	0
3060083	WORD	wordpools/wasnorm_wordpool_576.txt	LTP283	ltpFR2	13	14	HANDBAG	684	n/a	n/a	0	0	0
3062879	WORD	wordpools/wasnorm_wordpool_576.txt	LTP283	ltpFR2	13	14	CUPBOARD	425	n/a	n/a	0	0	0
3065560	WORD	wordpools/wasnorm_wordpool_576.txt	LTP283	ltpFR2	13	14	WIDOW	1608	n/a	n/a	0	0	0
3068272	WORD	wordpools/wasnorm_wordpool_576.txt	LTP283	ltpFR2	13	14	PIANO	1057	n/a	n/a	0	0	0
3071051	WORD	wordpools/wasnorm_wordpool_576.txt	LTP283	ltpFR2	13	14	FLUTE	585	n/a	n/a	0	0	0
3073498	WORD	wordpools/wasnorm_wordpool_576.txt	LTP283	ltpFR2	13	14	SCALLOP	1242	n/a	n/a	0	0	0
3076177	WORD	wordpools/wasnorm_wordpool_576.txt	LTP283	ltpFR2	13	14	MISTER	901	n/a	n/a	0	0	0
3078873	WORD	wordpools/wasnorm_wordpool_576.txt	LTP283	ltpFR2	13	14	CAFE	216	n/a	n/a	0	0	0
3081470	WORD	wordpools/wasnorm_wordpool_576.txt	LTP283	ltpFR2	13	14	SLUG	1329	n/a	n/a	0	0	0
3083965	WORD	wordpools/wasnorm_wordpool_576.txt	LTP283	ltpFR2	13	14	POSTAGE	1113	n/a	n/a	0	0	0
3086562	WORD	wordpools/wasnorm_wordpool_576.txt	LTP283	ltpFR2	13	14	CASKET	255	n/a	n/a	0	0	0
3089341	WORD	wordpools/wasnorm_wordpool_576.txt	LTP283	ltpFR2	13	14	SERVER	1272	n/a	n/a	0	0	0
3092120	WORD	wordpools/wasnorm_wordpool_576.txt	LTP283	ltpFR2	13	14	PANTHER	1009	n/a	n/a	0	0	0
3094932	WORD	wordpools/wasnorm_wordpool_576.txt	LTP283	ltpFR2	13	14	ORANGE	980	n/a	n/a	0	0	0
3096548	START	n/a	LTP283	ltpFR2	13	n/a	n/a	n/a	22	n/a	n/a	n/a	n/a
3097536	DISTRACTOR	n/a	LTP283	ltpFR2	13	14	n/a	n/a	n/a	n/a	0	0	0
3097546	PROB	n/a	LTP283	ltpFR2	13	n/a	n/a	n/a	22	10	1	7	2
3099393	PROB	n/a	LTP283	ltpFR2	13	n/a	n/a	n/a	22	13	4	1	7
3101224	PROB	n/a	LTP283	ltpFR2	13	n/a	n/a	n/a	22	19	9	9	1
3102539	PROB	n/a	LTP283	ltpFR2	13	n/a	n/a	n/a	22	14	1	9	4
3104519	PROB	n/a	LTP283	ltpFR2	13	n/a	n/a	n/a	22	14	7	3	4
3105734	PROB	n/a	LTP283	ltpFR2	13	n/a	n/a	n/a	22	17	5	8	4
3109196	PROB	n/a	LTP283	ltpFR2	13	n/a	n/a	n/a	22	16	7	2	7
3110544	PROB	n/a	LTP283	ltpFR2	13	n/a	n/a	n/a	22	24	9	8	7
3114538	PROB	n/a	LTP283	ltpFR2	13	n/a	n/a	n/a	22	13	1	5	7
3115935	PROB	n/a	LTP283	ltpFR2	13	n/a	n/a	n/a	22	15	9	4	2
3117300	PROB	n/a	LTP283	ltpFR2	13	n/a	n/a	n/a	22	10	5	1	4
3118947	PROB	n/a	LTP283	ltpFR2	13	n/a	n/a	n/a	22	7	3	2	2
3120508	STOP	n/a	LTP283	ltpFR2	13	n/a	n/a	n/a	22	n/a	n/a	n/a	n/a
3122377	REC_START	n/a	LTP283	ltpFR2	13	14	n/a	n/a	n/a	n/a	0	0	0
3123451	REC_WORD	wordpools/wasnorm_wordpool_576.txt	LTP283	ltpFR2	13	14	PANTHER	1009	n/a	n/a	0	0	0
3124186	REC_WORD	wordpools/wasnorm_wordpool_576.txt	LTP283	ltpFR2	13	14	ORANGE	980	n/a	n/a	0	0	0
3128532	REC_WORD	wordpools/wasnorm_wordpool_576.txt	LTP283	ltpFR2	13	14	CUPBOARD	425	n/a	n/a	0	0	0
3129079	REC_WORD	wordpools/wasnorm_wordpool_576.txt	LTP283	ltpFR2	13	14	SERVER	1272	n/a	n/a	0	0	0
3132467	REC_WORD_VV	wordpools/wasnorm_wordpool_576.txt	LTP283	ltpFR2	13	14	<>	-1	n/a	n/a	0	0	0
3132837	REC_WORD	wordpools/wasnorm_wordpool_576.txt	LTP283	ltpFR2	13	14	CASKET	255	n/a	n/a	0	0	0
3135241	REC_WORD	wordpools/wasnorm_wordpool_576.txt	LTP283	ltpFR2	13	14	WIDOW	1608	n/a	n/a	0	0	0
3135840	REC_WORD	wordpools/wasnorm_wordpool_576.txt	LTP283	ltpFR2	13	14	WIFE	1609	n/a	n/a	0	0	0
3137737	REC_WORD	wordpools/wasnorm_wordpool_576.txt	LTP283	ltpFR2	13	14	REBEL	1172	n/a	n/a	0	0	0
3144809	REC_WORD	wordpools/wasnorm_wordpool_576.txt	LTP283	ltpFR2	13	14	PIANO	1057	n/a	n/a	0	0	0
3145277	REC_WORD	wordpools/wasnorm_wordpool_576.txt	LTP283	ltpFR2	13	14	FLUTE	585	n/a	n/a	0	0	0
3145657	REC_WORD	wordpools/wasnorm_wordpool_576.txt	LTP283	ltpFR2	13	14	SCALLOP	1242	n/a	n/a	0	0	0
3146190	REC_WORD	wordpools/wasnorm_wordpool_576.txt	LTP283	ltpFR2	13	14	MISTER	901	n/a	n/a	0	0	0
3148339	REC_WORD	wordpools/wasnorm_wordpool_576.txt	LTP283	ltpFR2	13	14	IDOL	733	n/a	n/a	0	0	0
3148759	REC_WORD	wordpools/wasnorm_wordpool_576.txt	LTP283	ltpFR2	13	14	STAR	1373	n/a	n/a	0	0	0
3149340	REC_WORD	wordpools/wasnorm_wordpool_576.txt	LTP283	ltpFR2	13	14	STAKE	1368	n/a	n/a	0	0	0
3150167	REC_WORD	wordpools/wasnorm_wordpool_576.txt	LTP283	ltpFR2	13	14	MUSTARD	935	n/a	n/a	0	0	0
3151369	REC_WORD	wordpools/wasnorm_wordpool_576.txt	LTP283	ltpFR2	13	14	HELMET	702	n/a	n/a	0	0	0
3152086	REC_WORD	wordpools/wasnorm_wordpool_576.txt	LTP283	ltpFR2	13	14	APPLE	33	n/a	n/a	0	0	0
3153638	REC_WORD	wordpools/wasnorm_wordpool_576.txt	LTP283	ltpFR2	13	14	PORK	1108	n/a	n/a	0	0	0
3154172	REC_WORD	wordpools/wasnorm_wordpool_576.txt	LTP283	ltpFR2	13	14	LIVER	833	n/a	n/a	0	0	0
3163715	REC_WORD	wordpools/wasnorm_wordpool_576.txt	LTP283	ltpFR2	13	14	HELMET	702	n/a	n/a	0	0	0
3175974	REC_WORD	wordpools/wasnorm_wordpool_576.txt	LTP283	ltpFR2	13	14	HANDBAG	684	n/a	n/a	0	0	0
3181907	REC_WORD	wordpools/wasnorm_wordpool_576.txt	LTP283	ltpFR2	13	14	CAFE	216	n/a	n/a	0	0	0
3213108	WORD	wordpools/wasnorm_wordpool_576.txt	LTP283	ltpFR2	13	15	SUNSET	1408	n/a	n/a	0	0	0
3215871	WORD	wordpools/wasnorm_wordpool_576.txt	LTP283	ltpFR2	13	15	SOFTBALL	1343	n/a	n/a	0	0	0
3218318	WORD	wordpools/wasnorm_wordpool_576.txt	LTP283	ltpFR2	13	15	FOOTBALL	591	n/a	n/a	0	0	0
3221047	WORD	wordpools/wasnorm_wordpool_576.txt	LTP283	ltpFR2	13	15	TROMBONE	1508	n/a	n/a	0	0	0
3223793	WORD	wordpools/wasnorm_wordpool_576.txt	LTP283	ltpFR2	13	15	CASHIER	254	n/a	n/a	0	0	0
3226506	WORD	wordpools/wasnorm_wordpool_576.txt	LTP283	ltpFR2	13	15	SHORTS	1293	n/a	n/a	0	0	0
3229269	WORD	wordpools/wasnorm_wordpool_576.txt	LTP283	ltpFR2	13	15	GUITAR	670	n/a	n/a	0	0	0
3231848	WORD	wordpools/wasnorm_wordpool_576.txt	LTP283	ltpFR2	13	15	CLAMP	316	n/a	n/a	0	0	0
3234461	WORD	wordpools/wasnorm_wordpool_576.txt	LTP283	ltpFR2	13	15	CANYON	235	n/a	n/a	0	0	0
3237057	WORD	wordpools/wasnorm_wordpool_576.txt	LTP283	ltpFR2	13	15	JOURNAL	760	n/a	n/a	0	0	0
3239571	WORD	wordpools/wasnorm_wordpool_576.txt	LTP283	ltpFR2	13	15	FRUIT	610	n/a	n/a	0	0	0
3242150	WORD	wordpools/wasnorm_wordpool_576.txt	LTP283	ltpFR2	13	15	PEACH	1031	n/a	n/a	0	0	0
3244646	WORD	wordpools/wasnorm_wordpool_576.txt	LTP283	ltpFR2	13	15	BRANDY	169	n/a	n/a	0	0	0
3247459	WORD	wordpools/wasnorm_wordpool_576.txt	LTP283	ltpFR2	13	15	ITEM	746	n/a	n/a	0	0	0
3250271	WORD	wordpools/wasnorm_wordpool_576.txt	LTP283	ltpFR2	13	15	TOMBSTONE	1478	n/a	n/a	0	0	0
3252800	WORD	wordpools/wasnorm_wordpool_576.txt	LTP283	ltpFR2	13	15	PARROT	1015	n/a	n/a	0	0	0
3255497	WORD	wordpools/wasnorm_wordpool_576.txt	LTP283	ltpFR2	13	15	ONION	977	n/a	n/a	0	0	0
3258293	WORD	wordpools/wasnorm_wordpool_576.txt	LTP283	ltpFR2	13	15	SALT	1229	n/a	n/a	0	0	0
3260971	WORD	wordpools/wasnorm_wordpool_576.txt	LTP283	ltpFR2	13	15	PLAZA	1088	n/a	n/a	0	0	0
3263652	WORD	wordpools/wasnorm_wordpool_576.txt	LTP283	ltpFR2	13	15	SUMMIT	1405	n/a	n/a	0	0	0
3266081	WORD	wordpools/wasnorm_wordpool_576.txt	LTP283	ltpFR2	13	15	SUNRISE	1407	n/a	n/a	0	0	0
3268711	WORD	wordpools/wasnorm_wordpool_576.txt	LTP283	ltpFR2	13	15	ATOM	55	n/a	n/a	0	0	0
3271274	WORD	wordpools/wasnorm_wordpool_576.txt	LTP283	ltpFR2	13	15	RADISH	1158	n/a	n/a	0	0	0
3273986	WORD	wordpools/wasnorm_wordpool_576.txt	LTP283	ltpFR2	13	15	FOX	598	n/a	n/a	0	0	0
3275601	START	n/a	LTP283	ltpFR2	13	n/a	n/a	n/a	23	n/a	n/a	n/a	n/a
3276523	DISTRACTOR	n/a	LTP283	ltpFR2	13	15	n/a	n/a	n/a	n/a	0	0	0
3276533	PROB	n/a	LTP283	ltpFR2	13	n/a	n/a	n/a	23	9	4	1	4
3277930	PROB	n/a	LTP283	ltpFR2	13	n/a	n/a	n/a	23	12	1	8	3
3279212	PROB	n/a	LTP283	ltpFR2	13	n/a	n/a	n/a	23	8	1	5	2
3280560	PROB	n/a	LTP283	ltpFR2	13	n/a	n/a	n/a	23	11	1	7	3
3281774	PROB	n/a	LTP283	ltpFR2	13	n/a	n/a	n/a	23	19	9	7	3
3283106	PROB	n/a	LTP283	ltpFR2	13	n/a	n/a	n/a	23	11	7	2	2
3284321	PROB	n/a	LTP283	ltpFR2	13	n/a	n/a	n/a	23	17	5	4	8
3286751	PROB	n/a	LTP283	ltpFR2	13	n/a	n/a	n/a	23	16	9	4	3
3288098	PROB	n/a	LTP283	ltpFR2	13	n/a	n/a	n/a	23	9	6	2	1
3289198	PROB	n/a	LTP283	ltpFR2	13	n/a	n/a	n/a	23	10	1	2	7
3290263	PROB	n/a	LTP283	ltpFR2	13	n/a	n/a	n/a	23	20	9	6	5
3291478	PROB	n/a	LTP283	ltpFR2	13	n/a	n/a	n/a	23	19	3	7	9
3292659	PROB	n/a	LTP283	ltpFR2	13	n/a	n/a	n/a	23	14	3	8	3
3294039	PROB	n/a	LTP283	ltpFR2	13	n/a	n/a	n/a	23	13	7	1	5
3295239	PROB	n/a	LTP283	ltpFR2	13	n/a	n/a	n/a	23	17	8	2	7
3296935	PROB	n/a	LTP283	ltpFR2	13	n/a	n/a	n/a	23	12	5	4	3
3298720	STOP	n/a	LTP283	ltpFR2	13	n/a	n/a	n/a	23	n/a	n/a	n/a	n/a
3301513	REC_START	n/a	LTP283	ltpFR2	13	15	n/a	n/a	n/a	n/a	0	0	0
3304595	REC_WORD	wordpools/wasnorm_wordpool_576.txt	LTP283	ltpFR2	13	15	SUNRISE	1407	n/a	n/a	0	0	0
3305259	REC_WORD	wordpools/wasnorm_wordpool_576.txt	LTP283	ltpFR2	13	15	SUNSET	1408	n/a	n/a	0	0	0
3306170	REC_WORD	wordpools/wasnorm_wordpool_576.txt	LTP283	ltpFR2	13	15	SOFTBALL	1343	n/a	n/a	0	0	0
3306832	REC_WORD	wordpools/wasnorm_wordpool_576.txt	LTP283	ltpFR2	13	15	FOOTBALL	591	n/a	n/a	0	0	0
3309207	REC_WORD	wordpools/wasnorm_wordpool_576.txt	LTP283	ltpFR2	13	15	TROMBONE	1508	n/a	n/a	0	0	0
3309927	REC_WORD	wordpools/wasnorm_wordpool_576.txt	LTP283	ltpFR2	13	15	FLUTE	585	n/a	n/a	0	0	0
3315242	REC_WORD	wordpools/wasnorm_wordpool_576.txt	LTP283	ltpFR2	13	15	CASHIER	254	n/a	n/a	0	0	0
3315916	REC_WORD	wordpools/wasnorm_wordpool_576.txt	LTP283	ltpFR2	13	15	SHORTS	1293	n/a	n/a	0	0	0
3316562	REC_WORD	wordpools/wasnorm_wordpool_576.txt	LTP283	ltpFR2	13	15	ITEM	746	n/a	n/a	0	0	0
3317201	REC_WORD	wordpools/wasnorm_wordpool_576.txt	LTP283	ltpFR2	13	15	CLAMP	316	n/a	n/a	0	0	0
3323524	REC_WORD	wordpools/wasnorm_wordpool_576.txt	LTP283	ltpFR2	13	15	CANYON	235	n/a	n/a	0	0	0
3326648	REC_WORD	wordpools/wasnorm_wordpool_576.txt	LTP283	ltpFR2	13	15	SUMMIT	1405	n/a	n/a	0	0	0
3327563	REC_WORD	wordpools/wasnorm_wordpool_576.txt	LTP283	ltpFR2	13	15	PLAZA	1088	n/a	n/a	0	0	0
3328360	REC_WORD	wordpools/wasnorm_wordpool_576.txt	LTP283	ltpFR2	13	15	TOMBSTONE	1478	n/a	n/a	0	0	0
3329288	REC_WORD	wordpools/wasnorm_wordpool_576.txt	LTP283	ltpFR2	13	15	PARROT	1015	n/a	n/a	0	0	0
3330860	REC_WORD	wordpools/wasnorm_wordpool_576.txt	LTP283	ltpFR2	13	15	ONION	977	n/a	n/a	0	0	0
3331258	REC_WORD	wordpools/wasnorm_wordpool_576.txt	LTP283	ltpFR2	13	15	SALT	1229	n/a	n/a	0	0	0
3331931	REC_WORD	wordpools/wasnorm_wordpool_576.txt	LTP283	ltpFR2	13	15	FOX	598	n/a	n/a	0	0	0
3333324	REC_WORD	wordpools/wasnorm_wordpool_576.txt	LTP283	ltpFR2	13	15	RADISH	1158	n/a	n/a	0	0	0
3335648	REC_WORD	wordpools/wasnorm_wordpool_576.txt	LTP283	ltpFR2	13	15	JOURNAL	760	n/a	n/a	0	0	0
3392145	WORD	wordpools/wasnorm_wordpool_576.txt	LTP283	ltpFR2	13	16	SERVANT	1271	n/a	n/a	0	0	0
3394958	WORD	wordpools/wasnorm_wordpool_576.txt	LTP283	ltpFR2	13	16	DRAGON	492	n/a	n/a	0	0	0
3397472	WORD	wordpools/wasnorm_wordpool_576.txt	LTP283	ltpFR2	13	16	CHEMIST	292	n/a	n/a	0	0	0
3400201	WORD	wordpools/wasnorm_wordpool_576.txt	LTP283	ltpFR2	13	16	WAITRESS	1581	n/a	n/a	0	0	0
3402879	WORD	wordpools/wasnorm_wordpool_576.txt	LTP283	ltpFR2	13	16	WORKER	1621	n/a	n/a	0	0	0
3405377	WORD	wordpools/wasnorm_wordpool_576.txt	LTP283	ltpFR2	13	16	BLENDER	136	n/a	n/a	0	0	0
3407839	WORD	wordpools/wasnorm_wordpool_576.txt	LTP283	ltpFR2	13	16	LUGGAGE	847	n/a	n/a	0	0	0
3410569	WORD	wordpools/wasnorm_wordpool_576.txt	LTP283	ltpFR2	13	16	AIRPORT	13	n/a	n/a	0	0	0
3413149	WORD	wordpools/wasnorm_wordpool_576.txt	LTP283	ltpFR2	13	16	ULCER	1533	n/a	n/a	0	0	0
3415728	WORD	wordpools/wasnorm_wordpool_576.txt	LTP283	ltpFR2	13	16	DENIM	446	n/a	n/a	0	0	0
3418507	WORD	wordpools/wasnorm_wordpool_576.txt	LTP283	ltpFR2	13	16	TEMPLE	1448	n/a	n/a	0	0	0
3421287	WORD	wordpools/wasnorm_wordpool_576.txt	LTP283	ltpFR2	13	16	FOOT	590	n/a	n/a	0	0	0
3423782	WORD	wordpools/wasnorm_wordpool_576.txt	LTP283	ltpFR2	13	16	KIDNEY	776	n/a	n/a	0	0	0
3426263	WORD	wordpools/wasnorm_wordpool_576.txt	LTP283	ltpFR2	13	16	MATTRESS	879	n/a	n/a	0	0	0
3428958	WORD	wordpools/wasnorm_wordpool_576.txt	LTP283	ltpFR2	13	16	ANKLE	24	n/a	n/a	0	0	0
3431671	WORD	wordpools/wasnorm_wordpool_576.txt	LTP283	ltpFR2	13	16	PEDAL	1037	n/a	n/a	0	0	0
3434351	WORD	wordpools/wasnorm_wordpool_576.txt	LTP283	ltpFR2	13	16	PLAID	1080	n/a	n/a	0	0	0
3437146	WORD	wordpools/wasnorm_wordpool_576.txt	LTP283	ltpFR2	13	16	NURSE	963	n/a	n/a	0	0	0
3439925	WORD	wordpools/wasnorm_wordpool_576.txt	LTP283	ltpFR2	13	16	PATIENT	1024	n/a	n/a	0	0	0
3442639	WORD	wordpools/wasnorm_wordpool_576.txt	LTP283	ltpFR2	13	16	DAISY	435	n/a	n/a	0	0	0
3445335	WORD	wordpools/wasnorm_wordpool_576.txt	LTP283	ltpFR2	13	16	BLUEPRINT	142	n/a	n/a	0	0	0
3447946	WORD	wordpools/wasnorm_wordpool_576.txt	LTP283	ltpFR2	13	16	RABBIT	1152	n/a	n/a	0	0	0
3450394	WORD	wordpools/wasnorm_wordpool_576.txt	LTP283	ltpFR2	13	16	SHOULDER	1294	n/a	n/a	0	0	0
3453022	WORD	wordpools/wasnorm_wordpool_576.txt	LTP283	ltpFR2	13	16	CRUTCH	417	n/a	n/a	0	0	0
3454638	START	n/a	LTP283	ltpFR2	13	n/a	n/a	n/a	24	n/a	n/a	n/a	n/a
3455510	DISTRACTOR	n/a	LTP283	ltpFR2	13	16	n/a	n/a	n/a	n/a	0	0	0
3455520	PROB	n/a	LTP283	ltpFR2	13	n/a	n/a	n/a	24	20	9	6	5
3457000	PROB	n/a	LTP283	ltpFR2	13	n/a	n/a	n/a	24	16	9	5	2
3458632	PROB	n/a	LTP283	ltpFR2	13	n/a	n/a	n/a	24	14	7	2	5
3460229	PROB	n/a	LTP283	ltpFR2	13	n/a	n/a	n/a	24	14	6	5	3
3463074	PROB	n/a	LTP283	ltpFR2	13	n/a	n/a	n/a	24	12	5	5	2
3464224	PROB	n/a	LTP283	ltpFR2	13	n/a	n/a	n/a	24	10	4	5	1
3465322	PROB	n/a	LTP283	ltpFR2	13	n/a	n/a	n/a	24	6	1	4	1
3467135	PROB	n/a	LTP283	ltpFR2	13	n/a	n/a	n/a	24	14	9	2	3
3468534	PROB	n/a	LTP283	ltpFR2	13	n/a	n/a	n/a	24	13	3	2	8
3469881	PROB	n/a	LTP283	ltpFR2	13	n/a	n/a	n/a	24	14	9	4	1
3471330	PROB	n/a	LTP283	ltpFR2	13	n/a	n/a	n/a	24	11	1	6	4
3472511	PROB	n/a	LTP283	ltpFR2	13	n/a	n/a	n/a	24	18	5	4	9
3474125	PROB	n/a	LTP283	ltpFR2	13	n/a	n/a	n/a	24	17	5	9	3
3475839	PROB	n/a	LTP283	ltpFR2	13	n/a	n/a	n/a	24	1	8	6	1
3477484	STOP	n/a	LTP283	ltpFR2	13	n/a	n/a	n/a	24	n/a	n/a	n/a	n/a
3480567	REC_START	n/a	LTP283	ltpFR2	13	16	n/a	n/a	n/a	n/a	0	0	0
3483376	REC_WORD	wordpools/wasnorm_wordpool_576.txt	LTP283	ltpFR2	13	16	RABBIT	1152	n/a	n/a	0	0	0
3483810	REC_WORD	wordpools/wasnorm_wordpool_576.txt	LTP283	ltpFR2	13	16	SHOULDER	1294	n/a	n/a	0	0	0
3484471	REC_WORD	wordpools/wasnorm_wordpool_576.txt	LTP283	ltpFR2	13	16	CRUTCH	417	n/a	n/a	0	0	0
3485288	REC_WORD	wordpools/wasnorm_wordpool_576.txt	LTP283	ltpFR2	13	16	TEA	1439	n/a	n/a	0	0	0
3487531	REC_WORD	wordpools/wasnorm_wordpool_576.txt	LTP283	ltpFR2	13	16	NURSE	963	n/a	n/a	0	0	0
3488121	REC_WORD	wordpools/wasnorm_wordpool_576.txt	LTP283	ltpFR2	13	16	PATIENT	1024	n/a	n/a	0	0	0
3489112	REC_WORD	wordpools/wasnorm_wordpool_576.txt	LTP283	ltpFR2	13	16	SERVANT	1271	n/a	n/a	0	0	0
3489902	REC_WORD	wordpools/wasnorm_wordpool_576.txt	LTP283	ltpFR2	13	16	WORKER	1621	n/a	n/a	0	0	0
3491458	REC_WORD	wordpools/wasnorm_wordpool_576.txt	LTP283	ltpFR2	13	16	LUGGAGE	847	n/a	n/a	0	0	0
3492030	REC_WORD	wordpools/wasnorm_wordpool_576.txt	LTP283	ltpFR2	13	16	AIRPORT	13	n/a	n/a	0	0	0
3492920	REC_WORD	wordpools/wasnorm_wordpool_576.txt	LTP283	ltpFR2	13	16	PEDAL	1037	n/a	n/a	0	0	0
3493443	REC_WORD	wordpools/wasnorm_wordpool_576.txt	LTP283	ltpFR2	13	16	ANKLE	24	n/a	n/a	0	0	0
3495319	REC_WORD_VV	wordpools/wasnorm_wordpool_576.txt	LTP283	ltpFR2	13	16	<>	-1	n/a	n/a	0	0	0
3495911	REC_WORD	wordpools/wasnorm_wordpool_576.txt	LTP283	ltpFR2	13	16	KIDNEY	776	n/a	n/a	0	0	0
3499399	REC_WORD	wordpools/wasnorm_wordpool_576.txt	LTP283	ltpFR2	13	16	MATTRESS	879	n/a	n/a	0	0	0
3500309	REC_WORD	wordpools/wasnorm_wordpool_576.txt	LTP283	ltpFR2	13	16	PLAID	1080	n/a	n/a	0	0	0
3500817	REC_WORD	wordpools/wasnorm_wordpool_576.txt	LTP283	ltpFR2	13	16	DENIM	446	n/a	n/a	0	0	0
3503075	REC_WORD	wordpools/wasnorm_wordpool_576.txt	LTP283	ltpFR2	13	16	WAITRESS	1581	n/a	n/a	0	0	0
3503845	REC_WORD	wordpools/wasnorm_wordpool_576.txt	LTP283	ltpFR2	13	16	BLENDER	136	n/a	n/a	0	0	0
3504543	REC_WORD	wordpools/wasnorm_wordpool_576.txt	LTP283	ltpFR2	13	16	CHEMIST	292	n/a	n/a	0	0	0
3511967	REC_WORD	wordpools/wasnorm_wordpool_576.txt	LTP283	ltpFR2	13	16	DAISY	435	n/a	n/a	0	0	0
3513960	REC_WORD	wordpools/wasnorm_wordpool_576.txt	LTP283	ltpFR2	13	16	BLUEPRINT	142	n/a	n/a	0	0	0
3521198	REC_WORD	wordpools/wasnorm_wordpool_576.txt	LTP283	ltpFR2	13	16	ULCER	1533	n/a	n/a	0	0	0
3521775	REC_WORD	wordpools/wasnorm_wordpool_576.txt	LTP283	ltpFR2	13	16	FOOT	590	n/a	n/a	0	0	0
3557736	REST_REWET	n/a	LTP283	ltpFR2	13	16	n/a	n/a	n/a	n/a	0	0	0
3960377	WORD	wordpools/wasnorm_wordpool_576.txt	LTP283	ltpFR2	13	17	CLOUD	328	n/a	n/a	0	0	0
3962856	WORD	wordpools/wasnorm_wordpool_576.txt	LTP283	ltpFR2	13	17	BASEMENT	94	n/a	n/a	0	0	0
3965320	WORD	wordpools/wasnorm_wordpool_576.txt	LTP283	ltpFR2	13	17	SKILLET	1317	n/a	n/a	0	0	0
3967899	WORD	wordpools/wasnorm_wordpool_576.txt	LTP283	ltpFR2	13	17	GRAVEL	659	n/a	n/a	0	0	0
3970379	WORD	wordpools/wasnorm_wordpool_576.txt	LTP283	ltpFR2	13	17	RIVER	1194	n/a	n/a	0	0	0
3973124	WORD	wordpools/wasnorm_wordpool_576.txt	LTP283	ltpFR2	13	17	SHARK	1275	n/a	n/a	0	0	0
3975837	WORD	wordpools/wasnorm_wordpool_576.txt	LTP283	ltpFR2	13	17	COWBOY	395	n/a	n/a	0	0	0
3978368	WORD	wordpools/wasnorm_wordpool_576.txt	LTP283	ltpFR2	13	17	GHETTO	633	n/a	n/a	0	0	0
3980996	WORD	wordpools/wasnorm_wordpool_576.txt	LTP283	ltpFR2	13	17	CAPTIVE	240	n/a	n/a	0	0	0
3983560	WORD	wordpools/wasnorm_wordpool_576.txt	LTP283	ltpFR2	13	17	STREAM	1392	n/a	n/a	0	0	0
3986072	WORD	wordpools/wasnorm_wordpool_576.txt	LTP283	ltpFR2	13	17	BUNNY	198	n/a	n/a	0	0	0
3988636	WORD	wordpools/wasnorm_wordpool_576.txt	LTP283	ltpFR2	13	17	BLOCKADE	137	n/a	n/a	0	0	0
3991315	WORD	wordpools/wasnorm_wordpool_576.txt	LTP283	ltpFR2	13	17	SADDLE	1221	n/a	n/a	0	0	0
3993745	WORD	wordpools/wasnorm_wordpool_576.txt	LTP283	ltpFR2	13	17	STOMACH	1384	n/a	n/a	0	0	0
3996408	WORD	wordpools/wasnorm_wordpool_576.txt	LTP283	ltpFR2	13	17	BODY	145	n/a	n/a	0	0	0
3999136	WORD	wordpools/wasnorm_wordpool_576.txt	LTP283	ltpFR2	13	17	SPHINX	1349	n/a	n/a	0	0	0
4001633	WORD	wordpools/wasnorm_wordpool_576.txt	LTP283	ltpFR2	13	17	EGYPT	519	n/a	n/a	0	0	0
4004196	WORD	wordpools/wasnorm_wordpool_576.txt	LTP283	ltpFR2	13	17	CYCLONE	431	n/a	n/a	0	0	0
4006709	WORD	wordpools/wasnorm_wordpool_576.txt	LTP283	ltpFR2	13	17	CARRIAGE	248	n/a	n/a	0	0	0
4009455	WORD	wordpools/wasnorm_wordpool_576.txt	LTP283	ltpFR2	13	17	XEROX	1628	n/a	n/a	0	0	0
4012218	WORD	wordpools/wasnorm_wordpool_576.txt	LTP283	ltpFR2	13	17	LODGE	839	n/a	n/a	0	0	0
4014929	WORD	wordpools/wasnorm_wordpool_576.txt	LTP283	ltpFR2	13	17	LUMBER	848	n/a	n/a	0	0	0
4017676	WORD	wordpools/wasnorm_wordpool_576.txt	LTP283	ltpFR2	13	17	OUTDOORS	987	n/a	n/a	0	0	0
4020122	WORD	wordpools/wasnorm_wordpool_576.txt	LTP283	ltpFR2	13	17	MACHINE	852	n/a	n/a	0	0	0
4021737	START	n/a	LTP283	ltpFR2	13	n/a	n/a	n/a	25	n/a	n/a	n/a	n/a
4022753	DISTRACTOR	n/a	LTP283	ltpFR2	13	17	n/a	n/a	n/a	n/a	0	0	0
4022768	PROB	n/a	LTP283	ltpFR2	13	n/a	n/a	n/a	25	10	5	4	1
4024516	PROB	n/a	LTP283	ltpFR2	13	n/a	n/a	n/a	25	16	4	3	9
4026113	PROB	n/a	LTP283	ltpFR2	13	n/a	n/a	n/a	25	11	6	4	1
4027196	PROB	n/a	LTP283	ltpFR2	13	n/a	n/a	n/a	25	18	5	9	4
4028959	PROB	n/a	LTP283	ltpFR2	13	n/a	n/a	n/a	25	22	7	9	6
4032238	PROB	n/a	LTP283	ltpFR2	13	n/a	n/a	n/a	25	16	1	6	9
4033636	PROB	n/a	LTP283	ltpFR2	13	n/a	n/a	n/a	25	15	8	1	6
4035251	PROB	n/a	LTP283	ltpFR2	13	n/a	n/a	n/a	25	14	6	7	1
4036549	PROB	n/a	LTP283	ltpFR2	13	n/a	n/a	n/a	25	10	1	3	6
4037630	PROB	n/a	LTP283	ltpFR2	13	n/a	n/a	n/a	25	12	6	3	3
4038911	PROB	n/a	LTP283	ltpFR2	13	n/a	n/a	n/a	25	18	2	8	8
4040160	PROB	n/a	LTP283	ltpFR2	13	n/a	n/a	n/a	25	17	7	4	6
4041675	PROB	n/a	LTP283	ltpFR2	13	n/a	n/a	n/a	25	10	2	1	7
4042855	PROB	n/a	LTP283	ltpFR2	13	n/a	n/a	n/a	25	11	6	4	1
4043937	PROB	n/a	LTP283	ltpFR2	13	n/a	n/a	n/a	25	13	3	1	9
4045040	STOP	n/a	LTP283	ltpFR2	13	n/a	n/a	n/a	25	n/a	n/a	n/a	n/a
4047683	REC_START	n/a	LTP283	ltpFR2	13	17	n/a	n/a	n/a	n/a	0	0	0
4049349	REC_WORD	wordpools/wasnorm_wordpool_576.txt	LTP283	ltpFR2	13	17	LODGE	839	n/a	n/a	0	0	0
4049916	REC_WORD	wordpools/wasnorm_wordpool_576.txt	LTP283	ltpFR2	13	17	LUMBER	848	n/a	n/a	0	0	0
4050938	REC_WORD	wordpools/wasnorm_wordpool_576.txt	LTP283	ltpFR2	13	17	MACHINE	852	n/a	n/a	0	0	0
4051779	REC_WORD	wordpools/wasnorm_wordpool_576.txt	LTP283	ltpFR2	13	17	CYCLONE	431	n/a	n/a	0	0	0
4056822	REC_WORD	wordpools/wasnorm_wordpool_576.txt	LTP283	ltpFR2	13	17	CLOUD	328	n/a	n/a	0	0	0
4057832	REC_WORD	wordpools/wasnorm_wordpool_576.txt	LTP283	ltpFR2	13	17	BASEMENT	94	n/a	n/a	0	0	0
4059578	REC_WORD	wordpools/wasnorm_wordpool_576.txt	LTP283	ltpFR2	13	17	SKILLET	1317	n/a	n/a	0	0	0
4061486	REC_WORD	wordpools/wasnorm_wordpool_576.txt	LTP283	ltpFR2	13	17	GRAVEL	659	n/a	n/a	0	0	0
4061935	REC_WORD	wordpools/wasnorm_wordpool_576.txt	LTP283	ltpFR2	13	17	STREAM	1392	n/a	n/a	0	0	0
4062586	REC_WORD	wordpools/wasnorm_wordpool_576.txt	LTP283	ltpFR2	13	17	RIVER	1194	n/a	n/a	0	0	0
4063225	REC_WORD	wordpools/wasnorm_wordpool_576.txt	LTP283	ltpFR2	13	17	BUNNY	198	n/a	n/a	0	0	0
4063703	REC_WORD	wordpools/wasnorm_wordpool_576.txt	LTP283	ltpFR2	13	17	BLOCKADE	137	n/a	n/a	0	0	0
4064535	REC_WORD	wordpools/wasnorm_wordpool_576.txt	LTP283	ltpFR2	13	17	COWBOY	395	n/a	n/a	0	0	0
4065033	REC_WORD	wordpools/wasnorm_wordpool_576.txt	LTP283	ltpFR2	13	17	SADDLE	1221	n/a	n/a	0	0	0
4066642	REC_WORD	wordpools/wasnorm_wordpool_576.txt	LTP283	ltpFR2	13	17	GHETTO	633	n/a	n/a	0	0	0
4068147	REC_WORD	wordpools/wasnorm_wordpool_576.txt	LTP283	ltpFR2	13	17	SPHINX	1349	n/a	n/a	0	0	0
