onset	duration	trial_type	sample	stim_file	subject	experiment	session	trial	task	item_name	item_num	recog_resp	recog_conf	resp	answer	test_x	test_y	test_z	color_r	color_g	color_b	case	font
457.488	n/a	SESS_START	228744	n/a	LTP261	ltpFR	14	n/a	n/a	n/a	n/a	1	3	n/a	n/a	0	0	0	n/a	n/a	n/a	n/a	n/a
483.602	n/a	START	241801	n/a	LTP261	ltpFR	14	n/a	n/a	n/a	n/a	n/a	n/a	n/a	n/a	n/a	n/a	n/a	n/a	n/a	n/a	n/a	n/a
483.652	n/a	PROB	241826	n/a	LTP261	ltpFR	14	n/a	n/a	n/a	n/a	n/a	n/a	n/a	11	2	1	8	n/a	n/a	n/a	n/a	n/a
485.424	n/a	PROB	242712	n/a	LTP261	ltpFR	14	n/a	n/a	n/a	n/a	n/a	n/a	n/a	13	7	3	3	n/a	n/a	n/a	n/a	n/a
486.754	n/a	PROB	243377	n/a	LTP261	ltpFR	14	n/a	n/a	n/a	n/a	n/a	n/a	n/a	22	5	8	9	n/a	n/a	n/a	n/a	n/a
490.048	n/a	PROB	245024	n/a	LTP261	ltpFR	14	n/a	n/a	n/a	n/a	n/a	n/a	n/a	12	2	9	1	n/a	n/a	n/a	n/a	n/a
492.04	n/a	PROB	246020	n/a	LTP261	ltpFR	14	n/a	n/a	n/a	n/a	n/a	n/a	n/a	15	7	7	1	n/a	n/a	n/a	n/a	n/a
493.54	n/a	PROB	246770	n/a	LTP261	ltpFR	14	n/a	n/a	n/a	n/a	n/a	n/a	n/a	18	6	9	3	n/a	n/a	n/a	n/a	n/a
495.572	n/a	PROB	247786	n/a	LTP261	ltpFR	14	n/a	n/a	n/a	n/a	n/a	n/a	n/a	20	7	4	9	n/a	n/a	n/a	n/a	n/a
497.912	n/a	PROB	248956	n/a	LTP261	ltpFR	14	n/a	n/a	n/a	n/a	n/a	n/a	n/a	16	4	4	8	n/a	n/a	n/a	n/a	n/a
499.58	n/a	PROB	249790	n/a	LTP261	ltpFR	14	n/a	n/a	n/a	n/a	n/a	n/a	n/a	23	5	9	9	n/a	n/a	n/a	n/a	n/a
502.622	n/a	STOP	251311	n/a	LTP261	ltpFR	14	n/a	n/a	n/a	n/a	n/a	n/a	n/a	n/a	n/a	n/a	n/a	n/a	n/a	n/a	n/a	n/a
532.02	n/a	START	266010	n/a	LTP261	ltpFR	14	n/a	n/a	n/a	n/a	n/a	n/a	n/a	n/a	n/a	n/a	n/a	n/a	n/a	n/a	n/a	n/a
533.532	n/a	PROB	266766	n/a	LTP261	ltpFR	14	n/a	n/a	n/a	n/a	n/a	n/a	n/a	10	1	7	2	n/a	n/a	n/a	n/a	n/a
535.188	n/a	PROB	267594	n/a	LTP261	ltpFR	14	n/a	n/a	n/a	n/a	n/a	n/a	n/a	17	6	3	8	n/a	n/a	n/a	n/a	n/a
537.14	n/a	PROB	268570	n/a	LTP261	ltpFR	14	n/a	n/a	n/a	n/a	n/a	n/a	n/a	10	1	8	1	n/a	n/a	n/a	n/a	n/a
540.022	n/a	STOP	270011	n/a	LTP261	ltpFR	14	n/a	n/a	n/a	n/a	n/a	n/a	n/a	n/a	n/a	n/a	n/a	n/a	n/a	n/a	n/a	n/a
541.238	n/a	WORD	270619	wordpools/wasnorm_wordpool_less_exclusions.txt	LTP261	ltpFR	14	1	0	WATER	1594	0	n/a	0	n/a	0	0	0	0.422607421875	0.5869140625	0	lower	zerothre.ttf
544.25	n/a	START	272125	n/a	LTP261	ltpFR	14	n/a	n/a	n/a	n/a	n/a	n/a	n/a	n/a	n/a	n/a	n/a	n/a	n/a	n/a	n/a	n/a
545.192	n/a	PROB	272596	n/a	LTP261	ltpFR	14	n/a	n/a	n/a	n/a	n/a	n/a	n/a	17	2	6	9	n/a	n/a	n/a	n/a	n/a
552.252	n/a	STOP	276126	n/a	LTP261	ltpFR	14	n/a	n/a	n/a	n/a	n/a	n/a	n/a	n/a	n/a	n/a	n/a	n/a	n/a	n/a	n/a	n/a
553.424	n/a	WORD	276712	wordpools/wasnorm_wordpool_less_exclusions.txt	LTP261	ltpFR	14	1	0	BEAVER	109	n/a	n/a	1	n/a	0	0	0	0.422607421875	0.5869140625	0	lower	zerothre.ttf
556.436	n/a	START	278218	n/a	LTP261	ltpFR	14	n/a	n/a	n/a	n/a	n/a	n/a	n/a	n/a	n/a	n/a	n/a	n/a	n/a	n/a	n/a	n/a
557.484	n/a	PROB	278742	n/a	LTP261	ltpFR	14	n/a	n/a	n/a	n/a	n/a	n/a	n/a	25	9	7	9	n/a	n/a	n/a	n/a	n/a
560.93	n/a	PROB	280465	n/a	LTP261	ltpFR	14	n/a	n/a	n/a	n/a	n/a	n/a	n/a	10	3	3	4	n/a	n/a	n/a	n/a	n/a
564.436	n/a	STOP	282218	n/a	LTP261	ltpFR	14	n/a	n/a	n/a	n/a	n/a	n/a	n/a	n/a	n/a	n/a	n/a	n/a	n/a	n/a	n/a	n/a
565.666	n/a	WORD	282833	wordpools/wasnorm_wordpool_less_exclusions.txt	LTP261	ltpFR	14	1	0	TELEPHONE	1445	n/a	n/a	0	n/a	0	0	0	0.422607421875	0.5869140625	0	lower	zerothre.ttf
568.678	n/a	START	284339	n/a	LTP261	ltpFR	14	n/a	n/a	n/a	n/a	n/a	n/a	n/a	n/a	n/a	n/a	n/a	n/a	n/a	n/a	n/a	n/a
569.536	n/a	PROB	284768	n/a	LTP261	ltpFR	14	n/a	n/a	n/a	n/a	n/a	n/a	n/a	13	1	5	7	n/a	n/a	n/a	n/a	n/a
573.334	n/a	PROB	286667	n/a	LTP261	ltpFR	14	n/a	n/a	n/a	n/a	n/a	n/a	n/a	10	4	3	3	n/a	n/a	n/a	n/a	n/a
576.678	n/a	STOP	288339	n/a	LTP261	ltpFR	14	n/a	n/a	n/a	n/a	n/a	n/a	n/a	n/a	n/a	n/a	n/a	n/a	n/a	n/a	n/a	n/a
577.696	n/a	WORD	288848	wordpools/wasnorm_wordpool_less_exclusions.txt	LTP261	ltpFR	14	1	0	CAMEL	223	n/a	n/a	1	n/a	0	0	0	0.422607421875	0.5869140625	0	lower	zerothre.ttf
580.708	n/a	START	290354	n/a	LTP261	ltpFR	14	n/a	n/a	n/a	n/a	n/a	n/a	n/a	n/a	n/a	n/a	n/a	n/a	n/a	n/a	n/a	n/a
581.818	n/a	PROB	290909	n/a	LTP261	ltpFR	14	n/a	n/a	n/a	n/a	n/a	n/a	n/a	16	1	6	9	n/a	n/a	n/a	n/a	n/a
583.818	n/a	PROB	291909	n/a	LTP261	ltpFR	14	n/a	n/a	n/a	n/a	n/a	n/a	n/a	18	4	9	5	n/a	n/a	n/a	n/a	n/a
586.578	n/a	PROB	293289	n/a	LTP261	ltpFR	14	n/a	n/a	n/a	n/a	n/a	n/a	n/a	14	4	5	5	n/a	n/a	n/a	n/a	n/a
587.906	n/a	STOP	293953	n/a	LTP261	ltpFR	14	n/a	n/a	n/a	n/a	n/a	n/a	n/a	n/a	n/a	n/a	n/a	n/a	n/a	n/a	n/a	n/a
589.832	n/a	WORD	294916	wordpools/wasnorm_wordpool_less_exclusions.txt	LTP261	ltpFR	14	1	1	PAIL	1002	n/a	n/a	0	n/a	0	0	0	0.57763671875	0.412841796875	1	upper	amplitud.ttf
592.844	n/a	START	296422	n/a	LTP261	ltpFR	14	n/a	n/a	n/a	n/a	n/a	n/a	n/a	n/a	n/a	n/a	n/a	n/a	n/a	n/a	n/a	n/a
593.846	n/a	PROB	296923	n/a	LTP261	ltpFR	14	n/a	n/a	n/a	n/a	n/a	n/a	n/a	25	8	8	9	n/a	n/a	n/a	n/a	n/a
599.884	n/a	STOP	299942	n/a	LTP261	ltpFR	14	n/a	n/a	n/a	n/a	n/a	n/a	n/a	n/a	n/a	n/a	n/a	n/a	n/a	n/a	n/a	n/a
601.704	n/a	WORD	300852	wordpools/wasnorm_wordpool_less_exclusions.txt	LTP261	ltpFR	14	1	1	SHIP	1286	n/a	n/a	0	n/a	0	0	0	0.57763671875	0.412841796875	1	upper	amplitud.ttf
604.716	n/a	START	302358	n/a	LTP261	ltpFR	14	n/a	n/a	n/a	n/a	n/a	n/a	n/a	n/a	n/a	n/a	n/a	n/a	n/a	n/a	n/a	n/a
605.692	n/a	PROB	302846	n/a	LTP261	ltpFR	14	n/a	n/a	n/a	n/a	n/a	n/a	n/a	20	6	8	6	n/a	n/a	n/a	n/a	n/a
608.076	n/a	PROB	304038	n/a	LTP261	ltpFR	14	n/a	n/a	n/a	n/a	n/a	n/a	n/a	22	8	8	6	n/a	n/a	n/a	n/a	n/a
611.812	n/a	STOP	305906	n/a	LTP261	ltpFR	14	n/a	n/a	n/a	n/a	n/a	n/a	n/a	n/a	n/a	n/a	n/a	n/a	n/a	n/a	n/a	n/a
613.572	n/a	WORD	306786	wordpools/wasnorm_wordpool_less_exclusions.txt	LTP261	ltpFR	14	1	1	MONEY	908	n/a	n/a	0	n/a	0	0	0	0.57763671875	0.412841796875	1	upper	amplitud.ttf
616.584	n/a	START	308292	n/a	LTP261	ltpFR	14	n/a	n/a	n/a	n/a	n/a	n/a	n/a	n/a	n/a	n/a	n/a	n/a	n/a	n/a	n/a	n/a
617.536	n/a	PROB	308768	n/a	LTP261	ltpFR	14	n/a	n/a	n/a	n/a	n/a	n/a	n/a	19	6	8	5	n/a	n/a	n/a	n/a	n/a
624.584	n/a	STOP	312292	n/a	LTP261	ltpFR	14	n/a	n/a	n/a	n/a	n/a	n/a	n/a	n/a	n/a	n/a	n/a	n/a	n/a	n/a	n/a	n/a
625.6	n/a	WORD	312800	wordpools/wasnorm_wordpool_less_exclusions.txt	LTP261	ltpFR	14	1	1	QUARTER	1148	n/a	n/a	0	n/a	0	0	0	0.57763671875	0.412841796875	1	upper	amplitud.ttf
628.614	n/a	START	314307	n/a	LTP261	ltpFR	14	n/a	n/a	n/a	n/a	n/a	n/a	n/a	n/a	n/a	n/a	n/a	n/a	n/a	n/a	n/a	n/a
629.448	n/a	PROB	314724	n/a	LTP261	ltpFR	14	n/a	n/a	n/a	n/a	n/a	n/a	n/a	14	7	3	4	n/a	n/a	n/a	n/a	n/a
631.032	n/a	PROB	315516	n/a	LTP261	ltpFR	14	n/a	n/a	n/a	n/a	n/a	n/a	n/a	12	1	5	6	n/a	n/a	n/a	n/a	n/a
632.972	n/a	PROB	316486	n/a	LTP261	ltpFR	14	n/a	n/a	n/a	n/a	n/a	n/a	n/a	26	8	9	9	n/a	n/a	n/a	n/a	n/a
635.822	n/a	STOP	317911	n/a	LTP261	ltpFR	14	n/a	n/a	n/a	n/a	n/a	n/a	n/a	n/a	n/a	n/a	n/a	n/a	n/a	n/a	n/a	n/a
637.814	n/a	WORD	318907	wordpools/wasnorm_wordpool_less_exclusions.txt	LTP261	ltpFR	14	1	1	ALLIGATOR	16	n/a	n/a	1	n/a	0	0	0	0.57763671875	0.412841796875	1	upper	amplitud.ttf
640.826	n/a	START	320413	n/a	LTP261	ltpFR	14	n/a	n/a	n/a	n/a	n/a	n/a	n/a	n/a	n/a	n/a	n/a	n/a	n/a	n/a	n/a	n/a
641.78	n/a	PROB	320890	n/a	LTP261	ltpFR	14	n/a	n/a	n/a	n/a	n/a	n/a	n/a	20	5	9	6	n/a	n/a	n/a	n/a	n/a
648.828	n/a	STOP	324414	n/a	LTP261	ltpFR	14	n/a	n/a	n/a	n/a	n/a	n/a	n/a	n/a	n/a	n/a	n/a	n/a	n/a	n/a	n/a	n/a
649.988	n/a	WORD	324994	wordpools/wasnorm_wordpool_less_exclusions.txt	LTP261	ltpFR	14	1	0	MESSAGE	888	n/a	n/a	0	n/a	0	0	0	0.422607421875	0.5869140625	0	lower	zerothre.ttf
653.0	n/a	START	326500	n/a	LTP261	ltpFR	14	n/a	n/a	n/a	n/a	n/a	n/a	n/a	n/a	n/a	n/a	n/a	n/a	n/a	n/a	n/a	n/a
654.092	n/a	PROB	327046	n/a	LTP261	ltpFR	14	n/a	n/a	n/a	n/a	n/a	n/a	n/a	15	3	9	3	n/a	n/a	n/a	n/a	n/a
656.528	n/a	PROB	328264	n/a	LTP261	ltpFR	14	n/a	n/a	n/a	n/a	n/a	n/a	n/a	21	8	4	9	n/a	n/a	n/a	n/a	n/a
659.654	n/a	STOP	329827	n/a	LTP261	ltpFR	14	n/a	n/a	n/a	n/a	n/a	n/a	n/a	n/a	n/a	n/a	n/a	n/a	n/a	n/a	n/a	n/a
661.866	n/a	WORD	330933	wordpools/wasnorm_wordpool_less_exclusions.txt	LTP261	ltpFR	14	1	0	ENVELOPE	537	n/a	n/a	0	n/a	0	0	0	0.422607421875	0.5869140625	0	lower	zerothre.ttf
664.878	n/a	START	332439	n/a	LTP261	ltpFR	14	n/a	n/a	n/a	n/a	n/a	n/a	n/a	n/a	n/a	n/a	n/a	n/a	n/a	n/a	n/a	n/a
665.772	n/a	PROB	332886	n/a	LTP261	ltpFR	14	n/a	n/a	n/a	n/a	n/a	n/a	n/a	8	2	2	4	n/a	n/a	n/a	n/a	n/a
667.388	n/a	PROB	333694	n/a	LTP261	ltpFR	14	n/a	n/a	n/a	n/a	n/a	n/a	n/a	15	7	1	7	n/a	n/a	n/a	n/a	n/a
668.966	n/a	PROB	334483	n/a	LTP261	ltpFR	14	n/a	n/a	n/a	n/a	n/a	n/a	n/a	6	1	3	2	n/a	n/a	n/a	n/a	n/a
670.488	n/a	PROB	335244	n/a	LTP261	ltpFR	14	n/a	n/a	n/a	n/a	n/a	n/a	n/a	15	8	2	5	n/a	n/a	n/a	n/a	n/a
671.902	n/a	STOP	335951	n/a	LTP261	ltpFR	14	n/a	n/a	n/a	n/a	n/a	n/a	n/a	n/a	n/a	n/a	n/a	n/a	n/a	n/a	n/a	n/a
674.068	n/a	WORD	337034	wordpools/wasnorm_wordpool_less_exclusions.txt	LTP261	ltpFR	14	1	1	GIRAFFE	636	n/a	n/a	1	n/a	0	0	0	0.57763671875	0.412841796875	1	upper	amplitud.ttf
677.08	n/a	START	338540	n/a	LTP261	ltpFR	14	n/a	n/a	n/a	n/a	n/a	n/a	n/a	n/a	n/a	n/a	n/a	n/a	n/a	n/a	n/a	n/a
677.966	n/a	PROB	338983	n/a	LTP261	ltpFR	14	n/a	n/a	n/a	n/a	n/a	n/a	n/a	8	2	1	5	n/a	n/a	n/a	n/a	n/a
680.554	n/a	PROB	340277	n/a	LTP261	ltpFR	14	n/a	n/a	n/a	n/a	n/a	n/a	n/a	15	4	6	5	n/a	n/a	n/a	n/a	n/a
682.042	n/a	PROB	341021	n/a	LTP261	ltpFR	14	n/a	n/a	n/a	n/a	n/a	n/a	n/a	17	4	5	8	n/a	n/a	n/a	n/a	n/a
684.912	n/a	STOP	342456	n/a	LTP261	ltpFR	14	n/a	n/a	n/a	n/a	n/a	n/a	n/a	n/a	n/a	n/a	n/a	n/a	n/a	n/a	n/a	n/a
686.042	n/a	WORD	343021	wordpools/wasnorm_wordpool_less_exclusions.txt	LTP261	ltpFR	14	1	1	SNORKEL	1336	n/a	n/a	0	n/a	0	0	0	0.57763671875	0.412841796875	1	upper	amplitud.ttf
689.054	n/a	START	344527	n/a	LTP261	ltpFR	14	n/a	n/a	n/a	n/a	n/a	n/a	n/a	n/a	n/a	n/a	n/a	n/a	n/a	n/a	n/a	n/a
690.198	n/a	PROB	345099	n/a	LTP261	ltpFR	14	n/a	n/a	n/a	n/a	n/a	n/a	n/a	14	7	2	5	n/a	n/a	n/a	n/a	n/a
692.306	n/a	PROB	346153	n/a	LTP261	ltpFR	14	n/a	n/a	n/a	n/a	n/a	n/a	n/a	13	3	8	2	n/a	n/a	n/a	n/a	n/a
694.346	n/a	PROB	347173	n/a	LTP261	ltpFR	14	n/a	n/a	n/a	n/a	n/a	n/a	n/a	14	4	4	6	n/a	n/a	n/a	n/a	n/a
696.824	n/a	STOP	348412	n/a	LTP261	ltpFR	14	n/a	n/a	n/a	n/a	n/a	n/a	n/a	n/a	n/a	n/a	n/a	n/a	n/a	n/a	n/a	n/a
697.954	n/a	WORD	348977	wordpools/wasnorm_wordpool_less_exclusions.txt	LTP261	ltpFR	14	1	1	DRINK	498	n/a	n/a	0	n/a	0	0	0	0.57763671875	0.412841796875	1	upper	amplitud.ttf
700.966	n/a	START	350483	n/a	LTP261	ltpFR	14	n/a	n/a	n/a	n/a	n/a	n/a	n/a	n/a	n/a	n/a	n/a	n/a	n/a	n/a	n/a	n/a
701.986	n/a	PROB	350993	n/a	LTP261	ltpFR	14	n/a	n/a	n/a	n/a	n/a	n/a	n/a	12	7	3	2	n/a	n/a	n/a	n/a	n/a
703.324	n/a	PROB	351662	n/a	LTP261	ltpFR	14	n/a	n/a	n/a	n/a	n/a	n/a	n/a	18	7	2	9	n/a	n/a	n/a	n/a	n/a
705.792	n/a	PROB	352896	n/a	LTP261	ltpFR	14	n/a	n/a	n/a	n/a	n/a	n/a	n/a	19	7	7	5	n/a	n/a	n/a	n/a	n/a
708.248	n/a	STOP	354124	n/a	LTP261	ltpFR	14	n/a	n/a	n/a	n/a	n/a	n/a	n/a	n/a	n/a	n/a	n/a	n/a	n/a	n/a	n/a	n/a
710.006	n/a	WORD	355003	wordpools/wasnorm_wordpool_less_exclusions.txt	LTP261	ltpFR	14	1	0	GRATE	657	n/a	n/a	0	n/a	0	0	0	0.422607421875	0.5869140625	0	lower	zerothre.ttf
713.018	n/a	START	356509	n/a	LTP261	ltpFR	14	n/a	n/a	n/a	n/a	n/a	n/a	n/a	n/a	n/a	n/a	n/a	n/a	n/a	n/a	n/a	n/a
713.972	n/a	PROB	356986	n/a	LTP261	ltpFR	14	n/a	n/a	n/a	n/a	n/a	n/a	n/a	7	2	2	3	n/a	n/a	n/a	n/a	n/a
716.53	n/a	PROB	358265	n/a	LTP261	ltpFR	14	n/a	n/a	n/a	n/a	n/a	n/a	n/a	15	4	5	6	n/a	n/a	n/a	n/a	n/a
718.17	n/a	PROB	359085	n/a	LTP261	ltpFR	14	n/a	n/a	n/a	n/a	n/a	n/a	n/a	18	6	4	8	n/a	n/a	n/a	n/a	n/a
720.32	n/a	STOP	360160	n/a	LTP261	ltpFR	14	n/a	n/a	n/a	n/a	n/a	n/a	n/a	n/a	n/a	n/a	n/a	n/a	n/a	n/a	n/a	n/a
722.12	n/a	WORD	361060	wordpools/wasnorm_wordpool_less_exclusions.txt	LTP261	ltpFR	14	1	0	DOLPHIN	483	n/a	n/a	1	n/a	0	0	0	0.422607421875	0.5869140625	0	lower	zerothre.ttf
725.132	n/a	START	362566	n/a	LTP261	ltpFR	14	n/a	n/a	n/a	n/a	n/a	n/a	n/a	n/a	n/a	n/a	n/a	n/a	n/a	n/a	n/a	n/a
726.028	n/a	PROB	363014	n/a	LTP261	ltpFR	14	n/a	n/a	n/a	n/a	n/a	n/a	n/a	12	7	3	2	n/a	n/a	n/a	n/a	n/a
727.282	n/a	PROB	363641	n/a	LTP261	ltpFR	14	n/a	n/a	n/a	n/a	n/a	n/a	n/a	16	6	5	5	n/a	n/a	n/a	n/a	n/a
729.76	n/a	PROB	364880	n/a	LTP261	ltpFR	14	n/a	n/a	n/a	n/a	n/a	n/a	n/a	21	5	7	9	n/a	n/a	n/a	n/a	n/a
732.754	n/a	STOP	366377	n/a	LTP261	ltpFR	14	n/a	n/a	n/a	n/a	n/a	n/a	n/a	n/a	n/a	n/a	n/a	n/a	n/a	n/a	n/a	n/a
734.928	n/a	REC_START	367464	n/a	LTP261	ltpFR	14	1	n/a	n/a	n/a	n/a	n/a	n/a	n/a	0	0	0	n/a	n/a	n/a	n/a	n/a
735.774	n/a	REC_WORD	367887	wordpools/wasnorm_wordpool_less_exclusions.txt	LTP261	ltpFR	14	1	1	SNORKEL	1336	n/a	n/a	0	n/a	0	0	0	n/a	n/a	n/a	n/a	n/a
737.984	n/a	REC_WORD	368992	wordpools/wasnorm_wordpool_less_exclusions.txt	LTP261	ltpFR	14	1	1	GIRAFFE	636	n/a	n/a	1	n/a	0	0	0	n/a	n/a	n/a	n/a	n/a
739.06	n/a	REC_WORD	369530	wordpools/wasnorm_wordpool_less_exclusions.txt	LTP261	ltpFR	14	1	1	ALLIGATOR	16	n/a	n/a	1	n/a	0	0	0	n/a	n/a	n/a	n/a	n/a
740.372	n/a	REC_WORD	370186	wordpools/wasnorm_wordpool_less_exclusions.txt	LTP261	ltpFR	14	1	0	MESSAGE	888	n/a	n/a	0	n/a	0	0	0	n/a	n/a	n/a	n/a	n/a
741.538	n/a	REC_WORD	370769	wordpools/wasnorm_wordpool_less_exclusions.txt	LTP261	ltpFR	14	1	0	ENVELOPE	537	n/a	n/a	0	n/a	0	0	0	n/a	n/a	n/a	n/a	n/a
742.882	n/a	REC_WORD	371441	wordpools/wasnorm_wordpool_less_exclusions.txt	LTP261	ltpFR	14	1	0	TELEPHONE	1445	n/a	n/a	0	n/a	0	0	0	n/a	n/a	n/a	n/a	n/a
744.68	n/a	REC_WORD	372340	wordpools/wasnorm_wordpool_less_exclusions.txt	LTP261	ltpFR	14	1	1	SHIP	1286	n/a	n/a	0	n/a	0	0	0	n/a	n/a	n/a	n/a	n/a
753.532	n/a	REC_WORD	376766	wordpools/wasnorm_wordpool_less_exclusions.txt	LTP261	ltpFR	14	1	1	PAIL	1002	n/a	n/a	0	n/a	0	0	0	n/a	n/a	n/a	n/a	n/a
754.636	n/a	REC_WORD	377318	wordpools/wasnorm_wordpool_less_exclusions.txt	LTP261	ltpFR	14	1	1	MONEY	908	n/a	n/a	0	n/a	0	0	0	n/a	n/a	n/a	n/a	n/a
761.01	n/a	REC_WORD	380505	wordpools/wasnorm_wordpool_less_exclusions.txt	LTP261	ltpFR	14	1	0	WATER	1594	n/a	n/a	0	n/a	0	0	0	n/a	n/a	n/a	n/a	n/a
763.32	n/a	REC_WORD	381660	wordpools/wasnorm_wordpool_less_exclusions.txt	LTP261	ltpFR	14	1	0	BEAVER	109	n/a	n/a	1	n/a	0	0	0	n/a	n/a	n/a	n/a	n/a
764.296	n/a	REC_WORD	382148	wordpools/wasnorm_wordpool_less_exclusions.txt	LTP261	ltpFR	14	1	0	CAMEL	223	n/a	n/a	1	n/a	0	0	0	n/a	n/a	n/a	n/a	n/a
833.438	n/a	WORD	416719	wordpools/wasnorm_wordpool_less_exclusions.txt	LTP261	ltpFR	14	2	0	DONKEY	484	n/a	n/a	1	n/a	0	0	0	0.422607421875	0.5869140625	0	lower	zerothre.ttf
837.578	n/a	WORD	418789	wordpools/wasnorm_wordpool_less_exclusions.txt	LTP261	ltpFR	14	2	0	RECIPE	1175	n/a	n/a	0	n/a	0	0	0	0.422607421875	0.5869140625	0	lower	zerothre.ttf
841.542	n/a	WORD	420771	wordpools/wasnorm_wordpool_less_exclusions.txt	LTP261	ltpFR	14	2	0	VILLAGE	1566	n/a	n/a	1	n/a	0	0	0	0.422607421875	0.5869140625	0	lower	zerothre.ttf
845.384	n/a	WORD	422692	wordpools/wasnorm_wordpool_less_exclusions.txt	LTP261	ltpFR	14	2	0	IGLOO	734	n/a	n/a	1	n/a	0	0	0	0.422607421875	0.5869140625	0	lower	zerothre.ttf
849.366	n/a	WORD	424683	wordpools/wasnorm_wordpool_less_exclusions.txt	LTP261	ltpFR	14	2	0	WAITRESS	1581	n/a	n/a	1	n/a	0	0	0	0.422607421875	0.5869140625	0	lower	zerothre.ttf
853.28	n/a	WORD	426640	wordpools/wasnorm_wordpool_less_exclusions.txt	LTP261	ltpFR	14	2	0	TREASURE	1500	n/a	n/a	1	n/a	0	0	0	0.422607421875	0.5869140625	0	lower	zerothre.ttf
857.314	n/a	WORD	428657	wordpools/wasnorm_wordpool_less_exclusions.txt	LTP261	ltpFR	14	2	0	OTTER	986	n/a	n/a	1	n/a	0	0	0	0.422607421875	0.5869140625	0	lower	zerothre.ttf
861.15	n/a	WORD	430575	wordpools/wasnorm_wordpool_less_exclusions.txt	LTP261	ltpFR	14	2	0	TABLE	1426	n/a	n/a	1	n/a	0	0	0	0.422607421875	0.5869140625	0	lower	zerothre.ttf
865.126	n/a	WORD	432563	wordpools/wasnorm_wordpool_less_exclusions.txt	LTP261	ltpFR	14	2	0	PADDING	999	n/a	n/a	0	n/a	0	0	0	0.422607421875	0.5869140625	0	lower	zerothre.ttf
869.124	n/a	WORD	434562	wordpools/wasnorm_wordpool_less_exclusions.txt	LTP261	ltpFR	14	2	0	POPE	1105	n/a	n/a	1	n/a	0	0	0	0.422607421875	0.5869140625	0	lower	zerothre.ttf
873.222	n/a	WORD	436611	wordpools/wasnorm_wordpool_less_exclusions.txt	LTP261	ltpFR	14	2	0	PREACHER	1119	n/a	n/a	1	n/a	0	0	0	0.422607421875	0.5869140625	0	lower	zerothre.ttf
877.322	n/a	WORD	438661	wordpools/wasnorm_wordpool_less_exclusions.txt	LTP261	ltpFR	14	2	0	SNEAKER	1334	n/a	n/a	0	n/a	0	0	0	0.422607421875	0.5869140625	0	lower	zerothre.ttf
881.478	n/a	WORD	440739	wordpools/wasnorm_wordpool_less_exclusions.txt	LTP261	ltpFR	14	2	0	RODENT	1204	n/a	n/a	0	n/a	0	0	0	0.422607421875	0.5869140625	0	lower	zerothre.ttf
885.52	n/a	WORD	442760	wordpools/wasnorm_wordpool_less_exclusions.txt	LTP261	ltpFR	14	2	0	BRACELET	163	n/a	n/a	0	n/a	0	0	0	0.422607421875	0.5869140625	0	lower	zerothre.ttf
889.342	n/a	WORD	444671	wordpools/wasnorm_wordpool_less_exclusions.txt	LTP261	ltpFR	14	2	0	BUG	187	n/a	n/a	0	n/a	0	0	0	0.422607421875	0.5869140625	0	lower	zerothre.ttf
893.402	n/a	WORD	446701	wordpools/wasnorm_wordpool_less_exclusions.txt	LTP261	ltpFR	14	2	0	MAID	856	n/a	n/a	1	n/a	0	0	0	0.422607421875	0.5869140625	0	lower	zerothre.ttf
896.412	n/a	START	448206	n/a	LTP261	ltpFR	14	n/a	n/a	n/a	n/a	n/a	n/a	n/a	n/a	n/a	n/a	n/a	n/a	n/a	n/a	n/a	n/a
897.3	n/a	PROB	448650	n/a	LTP261	ltpFR	14	n/a	n/a	n/a	n/a	n/a	n/a	n/a	7	3	3	1	n/a	n/a	n/a	n/a	n/a
899.028	n/a	PROB	449514	n/a	LTP261	ltpFR	14	n/a	n/a	n/a	n/a	n/a	n/a	n/a	13	1	7	5	n/a	n/a	n/a	n/a	n/a
904.412	n/a	STOP	452206	n/a	LTP261	ltpFR	14	n/a	n/a	n/a	n/a	n/a	n/a	n/a	n/a	n/a	n/a	n/a	n/a	n/a	n/a	n/a	n/a
906.368	n/a	REC_START	453184	n/a	LTP261	ltpFR	14	2	n/a	n/a	n/a	n/a	n/a	n/a	n/a	0	0	0	n/a	n/a	n/a	n/a	n/a
908.432	n/a	REC_WORD	454216	wordpools/wasnorm_wordpool_less_exclusions.txt	LTP261	ltpFR	14	2	0	BUG	187	n/a	n/a	0	n/a	0	0	0	n/a	n/a	n/a	n/a	n/a
909.678	n/a	REC_WORD	454839	wordpools/wasnorm_wordpool_less_exclusions.txt	LTP261	ltpFR	14	2	0	SNEAKER	1334	n/a	n/a	0	n/a	0	0	0	n/a	n/a	n/a	n/a	n/a
916.386	n/a	REC_WORD	458193	wordpools/wasnorm_wordpool_less_exclusions.txt	LTP261	ltpFR	14	2	0	OTTER	986	n/a	n/a	1	n/a	0	0	0	n/a	n/a	n/a	n/a	n/a
932.448	n/a	REC_WORD	466224	wordpools/wasnorm_wordpool_less_exclusions.txt	LTP261	ltpFR	14	2	0	IGLOO	734	n/a	n/a	1	n/a	0	0	0	n/a	n/a	n/a	n/a	n/a
933.342	n/a	REC_WORD	466671	wordpools/wasnorm_wordpool_less_exclusions.txt	LTP261	ltpFR	14	2	0	VILLAGE	1566	n/a	n/a	1	n/a	0	0	0	n/a	n/a	n/a	n/a	n/a
935.072	n/a	REC_WORD	467536	wordpools/wasnorm_wordpool_less_exclusions.txt	LTP261	ltpFR	14	2	0	WAITRESS	1581	n/a	n/a	1	n/a	0	0	0	n/a	n/a	n/a	n/a	n/a
936.06	n/a	REC_WORD	468030	wordpools/wasnorm_wordpool_less_exclusions.txt	LTP261	ltpFR	14	2	0	MAID	856	n/a	n/a	1	n/a	0	0	0	n/a	n/a	n/a	n/a	n/a
942.114	n/a	REC_WORD	471057	wordpools/wasnorm_wordpool_less_exclusions.txt	LTP261	ltpFR	14	2	0	POPE	1105	n/a	n/a	1	n/a	0	0	0	n/a	n/a	n/a	n/a	n/a
942.98	n/a	REC_WORD	471490	wordpools/wasnorm_wordpool_less_exclusions.txt	LTP261	ltpFR	14	2	0	PREACHER	1119	n/a	n/a	1	n/a	0	0	0	n/a	n/a	n/a	n/a	n/a
945.686	n/a	REC_WORD	472843	wordpools/wasnorm_wordpool_less_exclusions.txt	LTP261	ltpFR	14	2	0	RECIPE	1175	n/a	n/a	0	n/a	0	0	0	n/a	n/a	n/a	n/a	n/a
955.494	n/a	REC_WORD	477747	wordpools/wasnorm_wordpool_less_exclusions.txt	LTP261	ltpFR	14	2	0	DONKEY	484	n/a	n/a	1	n/a	0	0	0	n/a	n/a	n/a	n/a	n/a
990.412	n/a	START	495206	n/a	LTP261	ltpFR	14	n/a	n/a	n/a	n/a	n/a	n/a	n/a	n/a	n/a	n/a	n/a	n/a	n/a	n/a	n/a	n/a
991.928	n/a	PROB	495964	n/a	LTP261	ltpFR	14	n/a	n/a	n/a	n/a	n/a	n/a	n/a	20	6	8	6	n/a	n/a	n/a	n/a	n/a
994.108	n/a	PROB	497054	n/a	LTP261	ltpFR	14	n/a	n/a	n/a	n/a	n/a	n/a	n/a	16	7	8	1	n/a	n/a	n/a	n/a	n/a
995.96	n/a	PROB	497980	n/a	LTP261	ltpFR	14	n/a	n/a	n/a	n/a	n/a	n/a	n/a	15	8	2	5	n/a	n/a	n/a	n/a	n/a
997.298	n/a	PROB	498649	n/a	LTP261	ltpFR	14	n/a	n/a	n/a	n/a	n/a	n/a	n/a	19	9	1	9	n/a	n/a	n/a	n/a	n/a
998.76	n/a	PROB	499380	n/a	LTP261	ltpFR	14	n/a	n/a	n/a	n/a	n/a	n/a	n/a	10	4	4	2	n/a	n/a	n/a	n/a	n/a
1000.208	n/a	PROB	500104	n/a	LTP261	ltpFR	14	n/a	n/a	n/a	n/a	n/a	n/a	n/a	8	1	2	5	n/a	n/a	n/a	n/a	n/a
1002.182	n/a	PROB	501091	n/a	LTP261	ltpFR	14	n/a	n/a	n/a	n/a	n/a	n/a	n/a	14	3	2	9	n/a	n/a	n/a	n/a	n/a
1005.216	n/a	STOP	502608	n/a	LTP261	ltpFR	14	n/a	n/a	n/a	n/a	n/a	n/a	n/a	n/a	n/a	n/a	n/a	n/a	n/a	n/a	n/a	n/a
1007.31	n/a	WORD	503655	wordpools/wasnorm_wordpool_less_exclusions.txt	LTP261	ltpFR	14	3	1	HORNET	718	n/a	n/a	0	n/a	0	0	0	0.57763671875	0.412841796875	1	upper	amplitud.ttf
1010.322	n/a	START	505161	n/a	LTP261	ltpFR	14	n/a	n/a	n/a	n/a	n/a	n/a	n/a	n/a	n/a	n/a	n/a	n/a	n/a	n/a	n/a	n/a
1011.258	n/a	PROB	505629	n/a	LTP261	ltpFR	14	n/a	n/a	n/a	n/a	n/a	n/a	n/a	11	2	4	5	n/a	n/a	n/a	n/a	n/a
1013.678	n/a	PROB	506839	n/a	LTP261	ltpFR	14	n/a	n/a	n/a	n/a	n/a	n/a	n/a	14	3	9	2	n/a	n/a	n/a	n/a	n/a
1016.46	n/a	PROB	508230	n/a	LTP261	ltpFR	14	n/a	n/a	n/a	n/a	n/a	n/a	n/a	17	6	2	9	n/a	n/a	n/a	n/a	n/a
1018.602	n/a	PROB	509301	n/a	LTP261	ltpFR	14	n/a	n/a	n/a	n/a	n/a	n/a	n/a	12	2	7	3	n/a	n/a	n/a	n/a	n/a
1020.302	n/a	PROB	510151	n/a	LTP261	ltpFR	14	n/a	n/a	n/a	n/a	n/a	n/a	n/a	18	9	6	3	n/a	n/a	n/a	n/a	n/a
1022.342	n/a	PROB	511171	n/a	LTP261	ltpFR	14	n/a	n/a	n/a	n/a	n/a	n/a	n/a	14	1	8	5	n/a	n/a	n/a	n/a	n/a
1026.322	n/a	STOP	513161	n/a	LTP261	ltpFR	14	n/a	n/a	n/a	n/a	n/a	n/a	n/a	n/a	n/a	n/a	n/a	n/a	n/a	n/a	n/a	n/a
1027.296	n/a	WORD	513648	wordpools/wasnorm_wordpool_less_exclusions.txt	LTP261	ltpFR	14	3	1	CAKE	219	n/a	n/a	0	n/a	0	0	0	0.57763671875	0.412841796875	1	upper	amplitud.ttf
1030.308	n/a	START	515154	n/a	LTP261	ltpFR	14	n/a	n/a	n/a	n/a	n/a	n/a	n/a	n/a	n/a	n/a	n/a	n/a	n/a	n/a	n/a	n/a
1031.412	n/a	PROB	515706	n/a	LTP261	ltpFR	14	n/a	n/a	n/a	n/a	n/a	n/a	n/a	16	4	3	9	n/a	n/a	n/a	n/a	n/a
1034.044	n/a	PROB	517022	n/a	LTP261	ltpFR	14	n/a	n/a	n/a	n/a	n/a	n/a	n/a	16	6	4	6	n/a	n/a	n/a	n/a	n/a
1035.684	n/a	PROB	517842	n/a	LTP261	ltpFR	14	n/a	n/a	n/a	n/a	n/a	n/a	n/a	17	7	1	9	n/a	n/a	n/a	n/a	n/a
1038.304	n/a	PROB	519152	n/a	LTP261	ltpFR	14	n/a	n/a	n/a	n/a	n/a	n/a	n/a	11	8	1	2	n/a	n/a	n/a	n/a	n/a
1040.252	n/a	PROB	520126	n/a	LTP261	ltpFR	14	n/a	n/a	n/a	n/a	n/a	n/a	n/a	14	8	2	4	n/a	n/a	n/a	n/a	n/a
1042.226	n/a	PROB	521113	n/a	LTP261	ltpFR	14	n/a	n/a	n/a	n/a	n/a	n/a	n/a	14	3	7	4	n/a	n/a	n/a	n/a	n/a
1043.798	n/a	PROB	521899	n/a	LTP261	ltpFR	14	n/a	n/a	n/a	n/a	n/a	n/a	n/a	13	5	4	4	n/a	n/a	n/a	n/a	n/a
1046.066	n/a	STOP	523033	n/a	LTP261	ltpFR	14	n/a	n/a	n/a	n/a	n/a	n/a	n/a	n/a	n/a	n/a	n/a	n/a	n/a	n/a	n/a	n/a
1047.49	n/a	WORD	523745	wordpools/wasnorm_wordpool_less_exclusions.txt	LTP261	ltpFR	14	3	1	LION	827	n/a	n/a	1	n/a	0	0	0	0.57763671875	0.412841796875	1	upper	amplitud.ttf
1050.502	n/a	START	525251	n/a	LTP261	ltpFR	14	n/a	n/a	n/a	n/a	n/a	n/a	n/a	n/a	n/a	n/a	n/a	n/a	n/a	n/a	n/a	n/a
1051.538	n/a	PROB	525769	n/a	LTP261	ltpFR	14	n/a	n/a	n/a	n/a	n/a	n/a	n/a	23	8	9	6	n/a	n/a	n/a	n/a	n/a
1056.508	n/a	PROB	528254	n/a	LTP261	ltpFR	14	n/a	n/a	n/a	n/a	n/a	n/a	n/a	14	6	7	1	n/a	n/a	n/a	n/a	n/a
1060.228	n/a	PROB	530114	n/a	LTP261	ltpFR	14	n/a	n/a	n/a	n/a	n/a	n/a	n/a	16	8	2	6	n/a	n/a	n/a	n/a	n/a
1061.678	n/a	PROB	530839	n/a	LTP261	ltpFR	14	n/a	n/a	n/a	n/a	n/a	n/a	n/a	18	6	9	3	n/a	n/a	n/a	n/a	n/a
1063.468	n/a	PROB	531734	n/a	LTP261	ltpFR	14	n/a	n/a	n/a	n/a	n/a	n/a	n/a	19	9	3	7	n/a	n/a	n/a	n/a	n/a
1065.716	n/a	STOP	532858	n/a	LTP261	ltpFR	14	n/a	n/a	n/a	n/a	n/a	n/a	n/a	n/a	n/a	n/a	n/a	n/a	n/a	n/a	n/a	n/a
1067.724	n/a	WORD	533862	wordpools/wasnorm_wordpool_less_exclusions.txt	LTP261	ltpFR	14	3	1	LOLLIPOP	842	n/a	n/a	0	n/a	0	0	0	0.57763671875	0.412841796875	1	upper	amplitud.ttf
1070.736	n/a	START	535368	n/a	LTP261	ltpFR	14	n/a	n/a	n/a	n/a	n/a	n/a	n/a	n/a	n/a	n/a	n/a	n/a	n/a	n/a	n/a	n/a
1071.85	n/a	PROB	535925	n/a	LTP261	ltpFR	14	n/a	n/a	n/a	n/a	n/a	n/a	n/a	15	9	4	2	n/a	n/a	n/a	n/a	n/a
1075.336	n/a	PROB	537668	n/a	LTP261	ltpFR	14	n/a	n/a	n/a	n/a	n/a	n/a	n/a	18	7	9	2	n/a	n/a	n/a	n/a	n/a
1077.588	n/a	PROB	538794	n/a	LTP261	ltpFR	14	n/a	n/a	n/a	n/a	n/a	n/a	n/a	22	9	9	4	n/a	n/a	n/a	n/a	n/a
1079.946	n/a	PROB	539973	n/a	LTP261	ltpFR	14	n/a	n/a	n/a	n/a	n/a	n/a	n/a	5	2	2	1	n/a	n/a	n/a	n/a	n/a
1081.124	n/a	PROB	540562	n/a	LTP261	ltpFR	14	n/a	n/a	n/a	n/a	n/a	n/a	n/a	20	8	5	7	n/a	n/a	n/a	n/a	n/a
1085.14	n/a	PROB	542570	n/a	LTP261	ltpFR	14	n/a	n/a	n/a	n/a	n/a	n/a	n/a	19	6	4	9	n/a	n/a	n/a	n/a	n/a
1086.582	n/a	STOP	543291	n/a	LTP261	ltpFR	14	n/a	n/a	n/a	n/a	n/a	n/a	n/a	n/a	n/a	n/a	n/a	n/a	n/a	n/a	n/a	n/a
1087.618	n/a	WORD	543809	wordpools/wasnorm_wordpool_less_exclusions.txt	LTP261	ltpFR	14	3	1	DIRECTOR	471	n/a	n/a	1	n/a	0	0	0	0.57763671875	0.412841796875	1	upper	amplitud.ttf
1090.63	n/a	START	545315	n/a	LTP261	ltpFR	14	n/a	n/a	n/a	n/a	n/a	n/a	n/a	n/a	n/a	n/a	n/a	n/a	n/a	n/a	n/a	n/a
1091.7	n/a	PROB	545850	n/a	LTP261	ltpFR	14	n/a	n/a	n/a	n/a	n/a	n/a	n/a	13	8	4	1	n/a	n/a	n/a	n/a	n/a
1094.468	n/a	PROB	547234	n/a	LTP261	ltpFR	14	n/a	n/a	n/a	n/a	n/a	n/a	n/a	16	5	3	8	n/a	n/a	n/a	n/a	n/a
1098.418	n/a	PROB	549209	n/a	LTP261	ltpFR	14	n/a	n/a	n/a	n/a	n/a	n/a	n/a	18	3	8	7	n/a	n/a	n/a	n/a	n/a
1100.156	n/a	PROB	550078	n/a	LTP261	ltpFR	14	n/a	n/a	n/a	n/a	n/a	n/a	n/a	17	5	8	4	n/a	n/a	n/a	n/a	n/a
1102.216	n/a	PROB	551108	n/a	LTP261	ltpFR	14	n/a	n/a	n/a	n/a	n/a	n/a	n/a	18	6	3	9	n/a	n/a	n/a	n/a	n/a
1106.63	n/a	STOP	553315	n/a	LTP261	ltpFR	14	n/a	n/a	n/a	n/a	n/a	n/a	n/a	n/a	n/a	n/a	n/a	n/a	n/a	n/a	n/a	n/a
1107.728	n/a	WORD	553864	wordpools/wasnorm_wordpool_less_exclusions.txt	LTP261	ltpFR	14	3	1	FILM	565	n/a	n/a	0	n/a	0	0	0	0.57763671875	0.412841796875	1	upper	amplitud.ttf
1110.74	n/a	START	555370	n/a	LTP261	ltpFR	14	n/a	n/a	n/a	n/a	n/a	n/a	n/a	n/a	n/a	n/a	n/a	n/a	n/a	n/a	n/a	n/a
1111.642	n/a	PROB	555821	n/a	LTP261	ltpFR	14	n/a	n/a	n/a	n/a	n/a	n/a	n/a	13	3	5	5	n/a	n/a	n/a	n/a	n/a
1113.174	n/a	PROB	556587	n/a	LTP261	ltpFR	14	n/a	n/a	n/a	n/a	n/a	n/a	n/a	16	5	2	9	n/a	n/a	n/a	n/a	n/a
1115.532	n/a	PROB	557766	n/a	LTP261	ltpFR	14	n/a	n/a	n/a	n/a	n/a	n/a	n/a	15	8	2	5	n/a	n/a	n/a	n/a	n/a
1116.972	n/a	PROB	558486	n/a	LTP261	ltpFR	14	n/a	n/a	n/a	n/a	n/a	n/a	n/a	20	6	9	5	n/a	n/a	n/a	n/a	n/a
1121.974	n/a	PROB	560987	n/a	LTP261	ltpFR	14	n/a	n/a	n/a	n/a	n/a	n/a	n/a	18	6	8	4	n/a	n/a	n/a	n/a	n/a
1124.2	n/a	PROB	562100	n/a	LTP261	ltpFR	14	n/a	n/a	n/a	n/a	n/a	n/a	n/a	10	2	3	5	n/a	n/a	n/a	n/a	n/a
1126.086	n/a	STOP	563043	n/a	LTP261	ltpFR	14	n/a	n/a	n/a	n/a	n/a	n/a	n/a	n/a	n/a	n/a	n/a	n/a	n/a	n/a	n/a	n/a
1127.964	n/a	WORD	563982	wordpools/wasnorm_wordpool_less_exclusions.txt	LTP261	ltpFR	14	3	1	BENCH	121	n/a	n/a	0	n/a	0	0	0	0.57763671875	0.412841796875	1	upper	amplitud.ttf
1130.976	n/a	START	565488	n/a	LTP261	ltpFR	14	n/a	n/a	n/a	n/a	n/a	n/a	n/a	n/a	n/a	n/a	n/a	n/a	n/a	n/a	n/a	n/a
1132.17	n/a	PROB	566085	n/a	LTP261	ltpFR	14	n/a	n/a	n/a	n/a	n/a	n/a	n/a	13	1	7	5	n/a	n/a	n/a	n/a	n/a
1135.778	n/a	PROB	567889	n/a	LTP261	ltpFR	14	n/a	n/a	n/a	n/a	n/a	n/a	n/a	9	1	3	5	n/a	n/a	n/a	n/a	n/a
1138.086	n/a	PROB	569043	n/a	LTP261	ltpFR	14	n/a	n/a	n/a	n/a	n/a	n/a	n/a	17	8	7	2	n/a	n/a	n/a	n/a	n/a
1139.626	n/a	PROB	569813	n/a	LTP261	ltpFR	14	n/a	n/a	n/a	n/a	n/a	n/a	n/a	10	1	4	5	n/a	n/a	n/a	n/a	n/a
1142.052	n/a	PROB	571026	n/a	LTP261	ltpFR	14	n/a	n/a	n/a	n/a	n/a	n/a	n/a	15	1	6	8	n/a	n/a	n/a	n/a	n/a
1144.16	n/a	PROB	572080	n/a	LTP261	ltpFR	14	n/a	n/a	n/a	n/a	n/a	n/a	n/a	17	4	8	5	n/a	n/a	n/a	n/a	n/a
1145.744	n/a	STOP	572872	n/a	LTP261	ltpFR	14	n/a	n/a	n/a	n/a	n/a	n/a	n/a	n/a	n/a	n/a	n/a	n/a	n/a	n/a	n/a	n/a
1147.84	n/a	WORD	573920	wordpools/wasnorm_wordpool_less_exclusions.txt	LTP261	ltpFR	14	3	1	TOWER	1490	n/a	n/a	0	n/a	0	0	0	0.57763671875	0.412841796875	1	upper	amplitud.ttf
1150.852	n/a	START	575426	n/a	LTP261	ltpFR	14	n/a	n/a	n/a	n/a	n/a	n/a	n/a	n/a	n/a	n/a	n/a	n/a	n/a	n/a	n/a	n/a
1151.706	n/a	PROB	575853	n/a	LTP261	ltpFR	14	n/a	n/a	n/a	n/a	n/a	n/a	n/a	9	3	2	4	n/a	n/a	n/a	n/a	n/a
1154.924	n/a	PROB	577462	n/a	LTP261	ltpFR	14	n/a	n/a	n/a	n/a	n/a	n/a	n/a	21	8	4	9	n/a	n/a	n/a	n/a	n/a
1159.836	n/a	PROB	579918	n/a	LTP261	ltpFR	14	n/a	n/a	n/a	n/a	n/a	n/a	n/a	21	5	9	7	n/a	n/a	n/a	n/a	n/a
1165.488	n/a	STOP	582744	n/a	LTP261	ltpFR	14	n/a	n/a	n/a	n/a	n/a	n/a	n/a	n/a	n/a	n/a	n/a	n/a	n/a	n/a	n/a	n/a
1167.966	n/a	WORD	583983	wordpools/wasnorm_wordpool_less_exclusions.txt	LTP261	ltpFR	14	3	1	LADDER	793	n/a	n/a	0	n/a	0	0	0	0.57763671875	0.412841796875	1	upper	amplitud.ttf
1170.978	n/a	START	585489	n/a	LTP261	ltpFR	14	n/a	n/a	n/a	n/a	n/a	n/a	n/a	n/a	n/a	n/a	n/a	n/a	n/a	n/a	n/a	n/a
1172.088	n/a	PROB	586044	n/a	LTP261	ltpFR	14	n/a	n/a	n/a	n/a	n/a	n/a	n/a	5	1	1	3	n/a	n/a	n/a	n/a	n/a
1173.32	n/a	PROB	586660	n/a	LTP261	ltpFR	14	n/a	n/a	n/a	n/a	n/a	n/a	n/a	17	4	4	9	n/a	n/a	n/a	n/a	n/a
1175.06	n/a	PROB	587530	n/a	LTP261	ltpFR	14	n/a	n/a	n/a	n/a	n/a	n/a	n/a	14	6	4	4	n/a	n/a	n/a	n/a	n/a
1177.018	n/a	PROB	588509	n/a	LTP261	ltpFR	14	n/a	n/a	n/a	n/a	n/a	n/a	n/a	14	8	2	4	n/a	n/a	n/a	n/a	n/a
1178.53	n/a	PROB	589265	n/a	LTP261	ltpFR	14	n/a	n/a	n/a	n/a	n/a	n/a	n/a	12	4	7	1	n/a	n/a	n/a	n/a	n/a
1181.508	n/a	PROB	590754	n/a	LTP261	ltpFR	14	n/a	n/a	n/a	n/a	n/a	n/a	n/a	16	6	5	5	n/a	n/a	n/a	n/a	n/a
1183.198	n/a	PROB	591599	n/a	LTP261	ltpFR	14	n/a	n/a	n/a	n/a	n/a	n/a	n/a	15	2	4	9	n/a	n/a	n/a	n/a	n/a
1186.978	n/a	STOP	593489	n/a	LTP261	ltpFR	14	n/a	n/a	n/a	n/a	n/a	n/a	n/a	n/a	n/a	n/a	n/a	n/a	n/a	n/a	n/a	n/a
1187.932	n/a	WORD	593966	wordpools/wasnorm_wordpool_less_exclusions.txt	LTP261	ltpFR	14	3	1	ROOST	1208	n/a	n/a	0	n/a	0	0	0	0.57763671875	0.412841796875	1	upper	amplitud.ttf
1190.944	n/a	START	595472	n/a	LTP261	ltpFR	14	n/a	n/a	n/a	n/a	n/a	n/a	n/a	n/a	n/a	n/a	n/a	n/a	n/a	n/a	n/a	n/a
1191.958	n/a	PROB	595979	n/a	LTP261	ltpFR	14	n/a	n/a	n/a	n/a	n/a	n/a	n/a	18	6	4	8	n/a	n/a	n/a	n/a	n/a
1193.454	n/a	PROB	596727	n/a	LTP261	ltpFR	14	n/a	n/a	n/a	n/a	n/a	n/a	n/a	13	3	7	3	n/a	n/a	n/a	n/a	n/a
1194.92	n/a	PROB	597460	n/a	LTP261	ltpFR	14	n/a	n/a	n/a	n/a	n/a	n/a	n/a	11	1	8	2	n/a	n/a	n/a	n/a	n/a
1196.358	n/a	PROB	598179	n/a	LTP261	ltpFR	14	n/a	n/a	n/a	n/a	n/a	n/a	n/a	9	7	1	1	n/a	n/a	n/a	n/a	n/a
1198.116	n/a	PROB	599058	n/a	LTP261	ltpFR	14	n/a	n/a	n/a	n/a	n/a	n/a	n/a	16	5	7	4	n/a	n/a	n/a	n/a	n/a
1201.144	n/a	PROB	600572	n/a	LTP261	ltpFR	14	n/a	n/a	n/a	n/a	n/a	n/a	n/a	15	3	7	5	n/a	n/a	n/a	n/a	n/a
1202.718	n/a	PROB	601359	n/a	LTP261	ltpFR	14	n/a	n/a	n/a	n/a	n/a	n/a	n/a	11	2	8	1	n/a	n/a	n/a	n/a	n/a
1206.946	n/a	STOP	603473	n/a	LTP261	ltpFR	14	n/a	n/a	n/a	n/a	n/a	n/a	n/a	n/a	n/a	n/a	n/a	n/a	n/a	n/a	n/a	n/a
1207.992	n/a	WORD	603996	wordpools/wasnorm_wordpool_less_exclusions.txt	LTP261	ltpFR	14	3	1	TURKEY	1520	n/a	n/a	1	n/a	0	0	0	0.57763671875	0.412841796875	1	upper	amplitud.ttf
1211.004	n/a	START	605502	n/a	LTP261	ltpFR	14	n/a	n/a	n/a	n/a	n/a	n/a	n/a	n/a	n/a	n/a	n/a	n/a	n/a	n/a	n/a	n/a
1211.95	n/a	PROB	605975	n/a	LTP261	ltpFR	14	n/a	n/a	n/a	n/a	n/a	n/a	n/a	13	6	4	3	n/a	n/a	n/a	n/a	n/a
1214.268	n/a	PROB	607134	n/a	LTP261	ltpFR	14	n/a	n/a	n/a	n/a	n/a	n/a	n/a	17	9	1	7	n/a	n/a	n/a	n/a	n/a
1216.292	n/a	PROB	608146	n/a	LTP261	ltpFR	14	n/a	n/a	n/a	n/a	n/a	n/a	n/a	11	1	1	9	n/a	n/a	n/a	n/a	n/a
1218.746	n/a	PROB	609373	n/a	LTP261	ltpFR	14	n/a	n/a	n/a	n/a	n/a	n/a	n/a	21	6	6	9	n/a	n/a	n/a	n/a	n/a
1220.904	n/a	PROB	610452	n/a	LTP261	ltpFR	14	n/a	n/a	n/a	n/a	n/a	n/a	n/a	16	9	1	6	n/a	n/a	n/a	n/a	n/a
1227.004	n/a	STOP	613502	n/a	LTP261	ltpFR	14	n/a	n/a	n/a	n/a	n/a	n/a	n/a	n/a	n/a	n/a	n/a	n/a	n/a	n/a	n/a	n/a
1227.896	n/a	WORD	613948	wordpools/wasnorm_wordpool_less_exclusions.txt	LTP261	ltpFR	14	3	1	HEN	703	n/a	n/a	1	n/a	0	0	0	0.57763671875	0.412841796875	1	upper	amplitud.ttf
1230.908	n/a	START	615454	n/a	LTP261	ltpFR	14	n/a	n/a	n/a	n/a	n/a	n/a	n/a	n/a	n/a	n/a	n/a	n/a	n/a	n/a	n/a	n/a
1231.868	n/a	PROB	615934	n/a	LTP261	ltpFR	14	n/a	n/a	n/a	n/a	n/a	n/a	n/a	14	3	4	7	n/a	n/a	n/a	n/a	n/a
1233.842	n/a	PROB	616921	n/a	LTP261	ltpFR	14	n/a	n/a	n/a	n/a	n/a	n/a	n/a	8	2	3	3	n/a	n/a	n/a	n/a	n/a
1235.894	n/a	PROB	617947	n/a	LTP261	ltpFR	14	n/a	n/a	n/a	n/a	n/a	n/a	n/a	19	5	6	8	n/a	n/a	n/a	n/a	n/a
1238.772	n/a	PROB	619386	n/a	LTP261	ltpFR	14	n/a	n/a	n/a	n/a	n/a	n/a	n/a	8	1	2	5	n/a	n/a	n/a	n/a	n/a
1240.56	n/a	PROB	620280	n/a	LTP261	ltpFR	14	n/a	n/a	n/a	n/a	n/a	n/a	n/a	11	3	2	6	n/a	n/a	n/a	n/a	n/a
1242.568	n/a	PROB	621284	n/a	LTP261	ltpFR	14	n/a	n/a	n/a	n/a	n/a	n/a	n/a	13	1	8	4	n/a	n/a	n/a	n/a	n/a
1246.91	n/a	STOP	623455	n/a	LTP261	ltpFR	14	n/a	n/a	n/a	n/a	n/a	n/a	n/a	n/a	n/a	n/a	n/a	n/a	n/a	n/a	n/a	n/a
1247.912	n/a	WORD	623956	wordpools/wasnorm_wordpool_less_exclusions.txt	LTP261	ltpFR	14	3	1	PATIO	1025	n/a	n/a	0	n/a	0	0	0	0.57763671875	0.412841796875	1	upper	amplitud.ttf
1250.924	n/a	START	625462	n/a	LTP261	ltpFR	14	n/a	n/a	n/a	n/a	n/a	n/a	n/a	n/a	n/a	n/a	n/a	n/a	n/a	n/a	n/a	n/a
1251.738	n/a	PROB	625869	n/a	LTP261	ltpFR	14	n/a	n/a	n/a	n/a	n/a	n/a	n/a	19	8	9	2	n/a	n/a	n/a	n/a	n/a
1253.394	n/a	PROB	626697	n/a	LTP261	ltpFR	14	n/a	n/a	n/a	n/a	n/a	n/a	n/a	12	1	2	9	n/a	n/a	n/a	n/a	n/a
1255.452	n/a	PROB	627726	n/a	LTP261	ltpFR	14	n/a	n/a	n/a	n/a	n/a	n/a	n/a	17	3	6	8	n/a	n/a	n/a	n/a	n/a
1257.376	n/a	PROB	628688	n/a	LTP261	ltpFR	14	n/a	n/a	n/a	n/a	n/a	n/a	n/a	11	3	4	4	n/a	n/a	n/a	n/a	n/a
1259.5	n/a	PROB	629750	n/a	LTP261	ltpFR	14	n/a	n/a	n/a	n/a	n/a	n/a	n/a	20	6	7	7	n/a	n/a	n/a	n/a	n/a
1262.05	n/a	PROB	631025	n/a	LTP261	ltpFR	14	n/a	n/a	n/a	n/a	n/a	n/a	n/a	19	7	7	5	n/a	n/a	n/a	n/a	n/a
1266.022	n/a	STOP	633011	n/a	LTP261	ltpFR	14	n/a	n/a	n/a	n/a	n/a	n/a	n/a	n/a	n/a	n/a	n/a	n/a	n/a	n/a	n/a	n/a
1267.972	n/a	WORD	633986	wordpools/wasnorm_wordpool_less_exclusions.txt	LTP261	ltpFR	14	3	1	CROW	414	n/a	n/a	1	n/a	0	0	0	0.57763671875	0.412841796875	1	upper	amplitud.ttf
1270.984	n/a	START	635492	n/a	LTP261	ltpFR	14	n/a	n/a	n/a	n/a	n/a	n/a	n/a	n/a	n/a	n/a	n/a	n/a	n/a	n/a	n/a	n/a
1271.982	n/a	PROB	635991	n/a	LTP261	ltpFR	14	n/a	n/a	n/a	n/a	n/a	n/a	n/a	16	8	1	7	n/a	n/a	n/a	n/a	n/a
1277.1	n/a	PROB	638550	n/a	LTP261	ltpFR	14	n/a	n/a	n/a	n/a	n/a	n/a	n/a	14	2	6	6	n/a	n/a	n/a	n/a	n/a
1278.948	n/a	PROB	639474	n/a	LTP261	ltpFR	14	n/a	n/a	n/a	n/a	n/a	n/a	n/a	14	2	7	5	n/a	n/a	n/a	n/a	n/a
1284.87	n/a	PROB	642435	n/a	LTP261	ltpFR	14	n/a	n/a	n/a	n/a	n/a	n/a	n/a	12	3	8	1	n/a	n/a	n/a	n/a	n/a
1286.856	n/a	STOP	643428	n/a	LTP261	ltpFR	14	n/a	n/a	n/a	n/a	n/a	n/a	n/a	n/a	n/a	n/a	n/a	n/a	n/a	n/a	n/a	n/a
1288.132	n/a	WORD	644066	wordpools/wasnorm_wordpool_less_exclusions.txt	LTP261	ltpFR	14	3	1	WAVE	1596	n/a	n/a	0	n/a	0	0	0	0.57763671875	0.412841796875	1	upper	amplitud.ttf
1291.144	n/a	START	645572	n/a	LTP261	ltpFR	14	n/a	n/a	n/a	n/a	n/a	n/a	n/a	n/a	n/a	n/a	n/a	n/a	n/a	n/a	n/a	n/a
1292.148	n/a	PROB	646074	n/a	LTP261	ltpFR	14	n/a	n/a	n/a	n/a	n/a	n/a	n/a	6	2	2	2	n/a	n/a	n/a	n/a	n/a
1293.632	n/a	PROB	646816	n/a	LTP261	ltpFR	14	n/a	n/a	n/a	n/a	n/a	n/a	n/a	17	1	9	7	n/a	n/a	n/a	n/a	n/a
1295.386	n/a	PROB	647693	n/a	LTP261	ltpFR	14	n/a	n/a	n/a	n/a	n/a	n/a	n/a	19	9	9	1	n/a	n/a	n/a	n/a	n/a
1297.418	n/a	PROB	648709	n/a	LTP261	ltpFR	14	n/a	n/a	n/a	n/a	n/a	n/a	n/a	18	9	2	7	n/a	n/a	n/a	n/a	n/a
1300.462	n/a	PROB	650231	n/a	LTP261	ltpFR	14	n/a	n/a	n/a	n/a	n/a	n/a	n/a	15	6	3	6	n/a	n/a	n/a	n/a	n/a
1303.066	n/a	PROB	651533	n/a	LTP261	ltpFR	14	n/a	n/a	n/a	n/a	n/a	n/a	n/a	18	5	6	7	n/a	n/a	n/a	n/a	n/a
1306.144	n/a	STOP	653072	n/a	LTP261	ltpFR	14	n/a	n/a	n/a	n/a	n/a	n/a	n/a	n/a	n/a	n/a	n/a	n/a	n/a	n/a	n/a	n/a
1308.002	n/a	WORD	654001	wordpools/wasnorm_wordpool_less_exclusions.txt	LTP261	ltpFR	14	3	1	SPICE	1350	n/a	n/a	0	n/a	0	0	0	0.57763671875	0.412841796875	1	upper	amplitud.ttf
1311.014	n/a	START	655507	n/a	LTP261	ltpFR	14	n/a	n/a	n/a	n/a	n/a	n/a	n/a	n/a	n/a	n/a	n/a	n/a	n/a	n/a	n/a	n/a
1312.184	n/a	PROB	656092	n/a	LTP261	ltpFR	14	n/a	n/a	n/a	n/a	n/a	n/a	n/a	20	8	8	4	n/a	n/a	n/a	n/a	n/a
1313.908	n/a	PROB	656954	n/a	LTP261	ltpFR	14	n/a	n/a	n/a	n/a	n/a	n/a	n/a	18	6	4	8	n/a	n/a	n/a	n/a	n/a
1315.352	n/a	PROB	657676	n/a	LTP261	ltpFR	14	n/a	n/a	n/a	n/a	n/a	n/a	n/a	17	3	8	6	n/a	n/a	n/a	n/a	n/a
1317.042	n/a	PROB	658521	n/a	LTP261	ltpFR	14	n/a	n/a	n/a	n/a	n/a	n/a	n/a	23	6	7	9	n/a	n/a	n/a	n/a	n/a
1322.816	n/a	PROB	661408	n/a	LTP261	ltpFR	14	n/a	n/a	n/a	n/a	n/a	n/a	n/a	10	7	2	1	n/a	n/a	n/a	n/a	n/a
1327.012	n/a	STOP	663506	n/a	LTP261	ltpFR	14	n/a	n/a	n/a	n/a	n/a	n/a	n/a	n/a	n/a	n/a	n/a	n/a	n/a	n/a	n/a	n/a
1328.834	n/a	REC_START	664417	n/a	LTP261	ltpFR	14	3	n/a	n/a	n/a	n/a	n/a	n/a	n/a	0	0	0	n/a	n/a	n/a	n/a	n/a
1330.168	n/a	REC_WORD	665084	wordpools/wasnorm_wordpool_less_exclusions.txt	LTP261	ltpFR	14	3	1	SPICE	1350	n/a	n/a	0	n/a	0	0	0	n/a	n/a	n/a	n/a	n/a
1333.046	n/a	REC_WORD	666523	wordpools/wasnorm_wordpool_less_exclusions.txt	LTP261	ltpFR	14	3	1	TOWER	1490	n/a	n/a	0	n/a	0	0	0	n/a	n/a	n/a	n/a	n/a
1334.466	n/a	REC_WORD	667233	wordpools/wasnorm_wordpool_less_exclusions.txt	LTP261	ltpFR	14	3	1	LADDER	793	n/a	n/a	0	n/a	0	0	0	n/a	n/a	n/a	n/a	n/a
1336.432	n/a	REC_WORD	668216	wordpools/wasnorm_wordpool_less_exclusions.txt	LTP261	ltpFR	14	3	1	DIRECTOR	471	n/a	n/a	1	n/a	0	0	0	n/a	n/a	n/a	n/a	n/a
1338.068	n/a	REC_WORD	669034	wordpools/wasnorm_wordpool_less_exclusions.txt	LTP261	ltpFR	14	3	1	FILM	565	n/a	n/a	0	n/a	0	0	0	n/a	n/a	n/a	n/a	n/a
1341.2	n/a	REC_WORD	670600	wordpools/wasnorm_wordpool_less_exclusions.txt	LTP261	ltpFR	14	3	1	CROW	414	n/a	n/a	1	n/a	0	0	0	n/a	n/a	n/a	n/a	n/a
1344.53	n/a	REC_WORD	672265	wordpools/wasnorm_wordpool_less_exclusions.txt	LTP261	ltpFR	14	3	1	HEN	703	n/a	n/a	1	n/a	0	0	0	n/a	n/a	n/a	n/a	n/a
1345.378	n/a	REC_WORD	672689	wordpools/wasnorm_wordpool_less_exclusions.txt	LTP261	ltpFR	14	3	1	TURKEY	1520	n/a	n/a	1	n/a	0	0	0	n/a	n/a	n/a	n/a	n/a
1346.69	n/a	REC_WORD	673345	wordpools/wasnorm_wordpool_less_exclusions.txt	LTP261	ltpFR	14	3	1	ROOST	1208	n/a	n/a	0	n/a	0	0	0	n/a	n/a	n/a	n/a	n/a
1410.494	n/a	WORD	705247	wordpools/wasnorm_wordpool_less_exclusions.txt	LTP261	ltpFR	14	4	0	CHIMNEY	301	n/a	n/a	1	n/a	0	0	0	0.422607421875	0.5869140625	0	lower	zerothre.ttf
1414.548	n/a	WORD	707274	wordpools/wasnorm_wordpool_less_exclusions.txt	LTP261	ltpFR	14	4	0	LEOPARD	812	n/a	n/a	1	n/a	0	0	0	0.422607421875	0.5869140625	0	lower	zerothre.ttf
1418.464	n/a	WORD	709232	wordpools/wasnorm_wordpool_less_exclusions.txt	LTP261	ltpFR	14	4	0	GRIZZLY	662	n/a	n/a	1	n/a	0	0	0	0.422607421875	0.5869140625	0	lower	zerothre.ttf
1422.312	n/a	WORD	711156	wordpools/wasnorm_wordpool_less_exclusions.txt	LTP261	ltpFR	14	4	0	MOUNTAIN	924	n/a	n/a	1	n/a	0	0	0	0.422607421875	0.5869140625	0	lower	zerothre.ttf
1426.176	n/a	WORD	713088	wordpools/wasnorm_wordpool_less_exclusions.txt	LTP261	ltpFR	14	4	0	HONEY	713	n/a	n/a	0	n/a	0	0	0	0.422607421875	0.5869140625	0	lower	zerothre.ttf
1430.386	n/a	WORD	715193	wordpools/wasnorm_wordpool_less_exclusions.txt	LTP261	ltpFR	14	4	0	SAUCER	1237	n/a	n/a	0	n/a	0	0	0	0.422607421875	0.5869140625	0	lower	zerothre.ttf
1434.284	n/a	WORD	717142	wordpools/wasnorm_wordpool_less_exclusions.txt	LTP261	ltpFR	14	4	0	HOSTESS	723	n/a	n/a	1	n/a	0	0	0	0.422607421875	0.5869140625	0	lower	zerothre.ttf
1438.156	n/a	WORD	719078	wordpools/wasnorm_wordpool_less_exclusions.txt	LTP261	ltpFR	14	4	0	BANK	83	n/a	n/a	1	n/a	0	0	0	0.422607421875	0.5869140625	0	lower	zerothre.ttf
1442.138	n/a	WORD	721069	wordpools/wasnorm_wordpool_less_exclusions.txt	LTP261	ltpFR	14	4	0	SNACK	1331	n/a	n/a	0	n/a	0	0	0	0.422607421875	0.5869140625	0	lower	zerothre.ttf
1446.102	n/a	WORD	723051	wordpools/wasnorm_wordpool_less_exclusions.txt	LTP261	ltpFR	14	4	0	PASTRY	1022	n/a	n/a	0	n/a	0	0	0	0.422607421875	0.5869140625	0	lower	zerothre.ttf
1449.978	n/a	WORD	724989	wordpools/wasnorm_wordpool_less_exclusions.txt	LTP261	ltpFR	14	4	0	ENGINEER	536	n/a	n/a	1	n/a	0	0	0	0.422607421875	0.5869140625	0	lower	zerothre.ttf
1453.966	n/a	WORD	726983	wordpools/wasnorm_wordpool_less_exclusions.txt	LTP261	ltpFR	14	4	0	APPENDAGE	32	n/a	n/a	0	n/a	0	0	0	0.422607421875	0.5869140625	0	lower	zerothre.ttf
1457.808	n/a	WORD	728904	wordpools/wasnorm_wordpool_less_exclusions.txt	LTP261	ltpFR	14	4	0	PORT	1110	n/a	n/a	1	n/a	0	0	0	0.422607421875	0.5869140625	0	lower	zerothre.ttf
1461.83	n/a	WORD	730915	wordpools/wasnorm_wordpool_less_exclusions.txt	LTP261	ltpFR	14	4	0	PIRATE	1074	n/a	n/a	1	n/a	0	0	0	0.422607421875	0.5869140625	0	lower	zerothre.ttf
1466.012	n/a	WORD	733006	wordpools/wasnorm_wordpool_less_exclusions.txt	LTP261	ltpFR	14	4	0	MUG	930	n/a	n/a	0	n/a	0	0	0	0.422607421875	0.5869140625	0	lower	zerothre.ttf
1470.02	n/a	WORD	735010	wordpools/wasnorm_wordpool_less_exclusions.txt	LTP261	ltpFR	14	4	0	FIREPLACE	570	n/a	n/a	0	n/a	0	0	0	0.422607421875	0.5869140625	0	lower	zerothre.ttf
1475.878	n/a	REC_START	737939	n/a	LTP261	ltpFR	14	4	n/a	n/a	n/a	n/a	n/a	n/a	n/a	0	0	0	n/a	n/a	n/a	n/a	n/a
1476.824	n/a	REC_WORD	738412	wordpools/wasnorm_wordpool_less_exclusions.txt	LTP261	ltpFR	14	4	0	FIREPLACE	570	n/a	n/a	0	n/a	0	0	0	n/a	n/a	n/a	n/a	n/a
1478.344	n/a	REC_WORD	739172	wordpools/wasnorm_wordpool_less_exclusions.txt	LTP261	ltpFR	14	4	0	MUG	930	n/a	n/a	0	n/a	0	0	0	n/a	n/a	n/a	n/a	n/a
1479.092	n/a	REC_WORD	739546	wordpools/wasnorm_wordpool_less_exclusions.txt	LTP261	ltpFR	14	4	0	PORT	1110	n/a	n/a	1	n/a	0	0	0	n/a	n/a	n/a	n/a	n/a
1480.15	n/a	REC_WORD	740075	wordpools/wasnorm_wordpool_less_exclusions.txt	LTP261	ltpFR	14	4	0	PIRATE	1074	n/a	n/a	1	n/a	0	0	0	n/a	n/a	n/a	n/a	n/a
1485.256	n/a	REC_WORD	742628	wordpools/wasnorm_wordpool_less_exclusions.txt	LTP261	ltpFR	14	4	0	APPENDAGE	32	n/a	n/a	0	n/a	0	0	0	n/a	n/a	n/a	n/a	n/a
1486.256	n/a	REC_WORD_VV	743128	wordpools/wasnorm_wordpool_less_exclusions.txt	LTP261	ltpFR	14	4	n/a	<>	-1	n/a	n/a	n/a	n/a	0	0	0	n/a	n/a	n/a	n/a	n/a
1487.29	n/a	REC_WORD	743645	wordpools/wasnorm_wordpool_less_exclusions.txt	LTP261	ltpFR	14	4	0	SNACK	1331	n/a	n/a	0	n/a	0	0	0	n/a	n/a	n/a	n/a	n/a
1489.408	n/a	REC_WORD	744704	wordpools/wasnorm_wordpool_less_exclusions.txt	LTP261	ltpFR	14	4	0	PASTRY	1022	n/a	n/a	0	n/a	0	0	0	n/a	n/a	n/a	n/a	n/a
1495.972	n/a	REC_WORD	747986	wordpools/wasnorm_wordpool_less_exclusions.txt	LTP261	ltpFR	14	4	0	LEOPARD	812	n/a	n/a	1	n/a	0	0	0	n/a	n/a	n/a	n/a	n/a
1497.32	n/a	REC_WORD	748660	wordpools/wasnorm_wordpool_less_exclusions.txt	LTP261	ltpFR	14	4	0	GRIZZLY	662	n/a	n/a	1	n/a	0	0	0	n/a	n/a	n/a	n/a	n/a
1498.55	n/a	REC_WORD	749275	wordpools/wasnorm_wordpool_less_exclusions.txt	LTP261	ltpFR	14	4	0	MOUNTAIN	924	n/a	n/a	1	n/a	0	0	0	n/a	n/a	n/a	n/a	n/a
1501.1	n/a	REC_WORD	750550	wordpools/wasnorm_wordpool_less_exclusions.txt	LTP261	ltpFR	14	4	0	HONEY	713	n/a	n/a	0	n/a	0	0	0	n/a	n/a	n/a	n/a	n/a
1502.374	n/a	REC_WORD	751187	wordpools/wasnorm_wordpool_less_exclusions.txt	LTP261	ltpFR	14	4	0	SAUCER	1237	n/a	n/a	0	n/a	0	0	0	n/a	n/a	n/a	n/a	n/a
1554.618	n/a	WORD	777309	wordpools/wasnorm_wordpool_less_exclusions.txt	LTP261	ltpFR	14	5	1	CAT	257	n/a	n/a	0	n/a	0	0	0	0.57763671875	0.412841796875	1	upper	amplitud.ttf
1558.834	n/a	WORD	779417	wordpools/wasnorm_wordpool_less_exclusions.txt	LTP261	ltpFR	14	5	1	POLYESTER	1100	n/a	n/a	0	n/a	0	0	0	0.57763671875	0.412841796875	1	upper	amplitud.ttf
1562.766	n/a	WORD	781383	wordpools/wasnorm_wordpool_less_exclusions.txt	LTP261	ltpFR	14	5	1	SHEPHERD	1283	n/a	n/a	1	n/a	0	0	0	0.57763671875	0.412841796875	1	upper	amplitud.ttf
1566.63	n/a	WORD	783315	wordpools/wasnorm_wordpool_less_exclusions.txt	LTP261	ltpFR	14	5	1	METEOR	889	n/a	n/a	0	n/a	0	0	0	0.57763671875	0.412841796875	1	upper	amplitud.ttf
1570.69	n/a	WORD	785345	wordpools/wasnorm_wordpool_less_exclusions.txt	LTP261	ltpFR	14	5	0	APPLE	33	n/a	n/a	0	n/a	0	0	0	0.422607421875	0.5869140625	0	lower	zerothre.ttf
1574.56	n/a	WORD	787280	wordpools/wasnorm_wordpool_less_exclusions.txt	LTP261	ltpFR	14	5	0	CITRUS	313	n/a	n/a	0	n/a	0	0	0	0.422607421875	0.5869140625	0	lower	zerothre.ttf
1578.57	n/a	WORD	789285	wordpools/wasnorm_wordpool_less_exclusions.txt	LTP261	ltpFR	14	5	0	PANTHER	1009	n/a	n/a	1	n/a	0	0	0	0.422607421875	0.5869140625	0	lower	zerothre.ttf
1582.726	n/a	WORD	791363	wordpools/wasnorm_wordpool_less_exclusions.txt	LTP261	ltpFR	14	5	0	KLEENEX	782	n/a	n/a	0	n/a	0	0	0	0.422607421875	0.5869140625	0	lower	zerothre.ttf
1586.874	n/a	WORD	793437	wordpools/wasnorm_wordpool_less_exclusions.txt	LTP261	ltpFR	14	5	1	DRAWER	493	n/a	n/a	0	n/a	0	0	0	0.57763671875	0.412841796875	1	upper	amplitud.ttf
1590.95	n/a	WORD	795475	wordpools/wasnorm_wordpool_less_exclusions.txt	LTP261	ltpFR	14	5	1	MAILMAN	858	n/a	n/a	1	n/a	0	0	0	0.57763671875	0.412841796875	1	upper	amplitud.ttf
1595.056	n/a	WORD	797528	wordpools/wasnorm_wordpool_less_exclusions.txt	LTP261	ltpFR	14	5	1	PAW	1029	n/a	n/a	0	n/a	0	0	0	0.57763671875	0.412841796875	1	upper	amplitud.ttf
1599.232	n/a	WORD	799616	wordpools/wasnorm_wordpool_less_exclusions.txt	LTP261	ltpFR	14	5	1	BARN	89	n/a	n/a	0	n/a	0	0	0	0.57763671875	0.412841796875	1	upper	amplitud.ttf
1603.152	n/a	WORD	801576	wordpools/wasnorm_wordpool_less_exclusions.txt	LTP261	ltpFR	14	5	0	EARRING	514	n/a	n/a	0	n/a	0	0	0	0.422607421875	0.5869140625	0	lower	zerothre.ttf
1607.318	n/a	WORD	803659	wordpools/wasnorm_wordpool_less_exclusions.txt	LTP261	ltpFR	14	5	0	MARROW	872	n/a	n/a	0	n/a	0	0	0	0.422607421875	0.5869140625	0	lower	zerothre.ttf
1611.384	n/a	WORD	805692	wordpools/wasnorm_wordpool_less_exclusions.txt	LTP261	ltpFR	14	5	0	BACKBONE	66	n/a	n/a	0	n/a	0	0	0	0.422607421875	0.5869140625	0	lower	zerothre.ttf
1615.376	n/a	WORD	807688	wordpools/wasnorm_wordpool_less_exclusions.txt	LTP261	ltpFR	14	5	0	CORAL	378	n/a	n/a	0	n/a	0	0	0	0.422607421875	0.5869140625	0	lower	zerothre.ttf
1618.388	n/a	START	809194	n/a	LTP261	ltpFR	14	n/a	n/a	n/a	n/a	n/a	n/a	n/a	n/a	n/a	n/a	n/a	n/a	n/a	n/a	n/a	n/a
1619.582	n/a	PROB	809791	n/a	LTP261	ltpFR	14	n/a	n/a	n/a	n/a	n/a	n/a	n/a	18	8	9	1	n/a	n/a	n/a	n/a	n/a
1622.074	n/a	PROB	811037	n/a	LTP261	ltpFR	14	n/a	n/a	n/a	n/a	n/a	n/a	n/a	19	9	2	8	n/a	n/a	n/a	n/a	n/a
1623.95	n/a	PROB	811975	n/a	LTP261	ltpFR	14	n/a	n/a	n/a	n/a	n/a	n/a	n/a	17	6	3	8	n/a	n/a	n/a	n/a	n/a
1625.99	n/a	PROB	812995	n/a	LTP261	ltpFR	14	n/a	n/a	n/a	n/a	n/a	n/a	n/a	18	7	2	9	n/a	n/a	n/a	n/a	n/a
1628.008	n/a	PROB	814004	n/a	LTP261	ltpFR	14	n/a	n/a	n/a	n/a	n/a	n/a	n/a	19	2	9	8	n/a	n/a	n/a	n/a	n/a
1629.53	n/a	PROB	814765	n/a	LTP261	ltpFR	14	n/a	n/a	n/a	n/a	n/a	n/a	n/a	23	7	9	7	n/a	n/a	n/a	n/a	n/a
1633.882	n/a	STOP	816941	n/a	LTP261	ltpFR	14	n/a	n/a	n/a	n/a	n/a	n/a	n/a	n/a	n/a	n/a	n/a	n/a	n/a	n/a	n/a	n/a
1636.28	n/a	REC_START	818140	n/a	LTP261	ltpFR	14	5	n/a	n/a	n/a	n/a	n/a	n/a	n/a	0	0	0	n/a	n/a	n/a	n/a	n/a
1638.12	n/a	REC_WORD	819060	wordpools/wasnorm_wordpool_less_exclusions.txt	LTP261	ltpFR	14	5	0	CORAL	378	n/a	n/a	0	n/a	0	0	0	n/a	n/a	n/a	n/a	n/a
1643.16	n/a	REC_WORD	821580	wordpools/wasnorm_wordpool_less_exclusions.txt	LTP261	ltpFR	14	5	0	PANTHER	1009	n/a	n/a	1	n/a	0	0	0	n/a	n/a	n/a	n/a	n/a
1647.03	n/a	REC_WORD	823515	wordpools/wasnorm_wordpool_less_exclusions.txt	LTP261	ltpFR	14	5	1	DRAWER	493	n/a	n/a	0	n/a	0	0	0	n/a	n/a	n/a	n/a	n/a
1651.394	n/a	REC_WORD	825697	wordpools/wasnorm_wordpool_less_exclusions.txt	LTP261	ltpFR	14	5	1	POLYESTER	1100	n/a	n/a	0	n/a	0	0	0	n/a	n/a	n/a	n/a	n/a
1652.394	n/a	REC_WORD_VV	826197	wordpools/wasnorm_wordpool_less_exclusions.txt	LTP261	ltpFR	14	5	n/a	<>	-1	n/a	n/a	n/a	n/a	0	0	0	n/a	n/a	n/a	n/a	n/a
1655.602	n/a	REC_WORD	827801	wordpools/wasnorm_wordpool_less_exclusions.txt	LTP261	ltpFR	14	5	1	METEOR	889	n/a	n/a	0	n/a	0	0	0	n/a	n/a	n/a	n/a	n/a
1672.278	n/a	REC_WORD	836139	wordpools/wasnorm_wordpool_less_exclusions.txt	LTP261	ltpFR	14	5	1	CAT	257	n/a	n/a	0	n/a	0	0	0	n/a	n/a	n/a	n/a	n/a
1689.814	n/a	REC_WORD	844907	wordpools/wasnorm_wordpool_less_exclusions.txt	LTP261	ltpFR	14	5	0	BANK	83	n/a	n/a	1	n/a	0	0	0	n/a	n/a	n/a	n/a	n/a
1707.178	n/a	REC_WORD	853589	wordpools/wasnorm_wordpool_less_exclusions.txt	LTP261	ltpFR	14	5	1	MAILMAN	858	n/a	n/a	1	n/a	0	0	0	n/a	n/a	n/a	n/a	n/a
1715.432	n/a	WORD	857716	wordpools/wasnorm_wordpool_less_exclusions.txt	LTP261	ltpFR	14	6	1	GIRL	637	n/a	n/a	1	n/a	0	0	0	0.57763671875	0.412841796875	1	upper	amplitud.ttf
1719.598	n/a	WORD	859799	wordpools/wasnorm_wordpool_less_exclusions.txt	LTP261	ltpFR	14	6	1	SUITE	1404	n/a	n/a	0	n/a	0	0	0	0.57763671875	0.412841796875	1	upper	amplitud.ttf
1723.646	n/a	WORD	861823	wordpools/wasnorm_wordpool_less_exclusions.txt	LTP261	ltpFR	14	6	1	HOUSE	725	n/a	n/a	0	n/a	0	0	0	0.57763671875	0.412841796875	1	upper	amplitud.ttf
1727.624	n/a	WORD	863812	wordpools/wasnorm_wordpool_less_exclusions.txt	LTP261	ltpFR	14	6	0	SCOUT	1252	n/a	n/a	1	n/a	0	0	0	0.422607421875	0.5869140625	0	lower	zerothre.ttf
1731.796	n/a	WORD	865898	wordpools/wasnorm_wordpool_less_exclusions.txt	LTP261	ltpFR	14	6	0	STAKE	1368	n/a	n/a	1	n/a	0	0	0	0.422607421875	0.5869140625	0	lower	zerothre.ttf
1735.854	n/a	WORD	867927	wordpools/wasnorm_wordpool_less_exclusions.txt	LTP261	ltpFR	14	6	0	DICTATOR	462	n/a	n/a	1	n/a	0	0	0	0.422607421875	0.5869140625	0	lower	zerothre.ttf
1739.702	n/a	WORD	869851	wordpools/wasnorm_wordpool_less_exclusions.txt	LTP261	ltpFR	14	6	0	FRIES	607	n/a	n/a	0	n/a	0	0	0	0.422607421875	0.5869140625	0	lower	zerothre.ttf
1743.852	n/a	WORD	871926	wordpools/wasnorm_wordpool_less_exclusions.txt	LTP261	ltpFR	14	6	1	ORCHID	982	n/a	n/a	1	n/a	0	0	0	0.57763671875	0.412841796875	1	upper	amplitud.ttf
1748.074	n/a	WORD	874037	wordpools/wasnorm_wordpool_less_exclusions.txt	LTP261	ltpFR	14	6	1	CORPORATION	382	n/a	n/a	0	n/a	0	0	0	0.57763671875	0.412841796875	1	upper	amplitud.ttf
1752.106	n/a	WORD	876053	wordpools/wasnorm_wordpool_less_exclusions.txt	LTP261	ltpFR	14	6	1	APPLICATION	34	n/a	n/a	0	n/a	0	0	0	0.57763671875	0.412841796875	1	upper	amplitud.ttf
1756.188	n/a	WORD	878094	wordpools/wasnorm_wordpool_less_exclusions.txt	LTP261	ltpFR	14	6	0	PRIEST	1122	n/a	n/a	1	n/a	0	0	0	0.422607421875	0.5869140625	0	lower	zerothre.ttf
1760.168	n/a	WORD	880084	wordpools/wasnorm_wordpool_less_exclusions.txt	LTP261	ltpFR	14	6	0	MANAGER	863	n/a	n/a	1	n/a	0	0	0	0.422607421875	0.5869140625	0	lower	zerothre.ttf
1764.246	n/a	WORD	882123	wordpools/wasnorm_wordpool_less_exclusions.txt	LTP261	ltpFR	14	6	0	WORKER	1621	n/a	n/a	1	n/a	0	0	0	0.422607421875	0.5869140625	0	lower	zerothre.ttf
1768.194	n/a	WORD	884097	wordpools/wasnorm_wordpool_less_exclusions.txt	LTP261	ltpFR	14	6	0	KING	777	n/a	n/a	1	n/a	0	0	0	0.422607421875	0.5869140625	0	lower	zerothre.ttf
1772.126	n/a	WORD	886063	wordpools/wasnorm_wordpool_less_exclusions.txt	LTP261	ltpFR	14	6	1	RIB	1188	n/a	n/a	0	n/a	0	0	0	0.57763671875	0.412841796875	1	upper	amplitud.ttf
1776.03	n/a	WORD	888015	wordpools/wasnorm_wordpool_less_exclusions.txt	LTP261	ltpFR	14	6	1	SPATULA	1348	n/a	n/a	0	n/a	0	0	0	0.57763671875	0.412841796875	1	upper	amplitud.ttf
1779.042	n/a	START	889521	n/a	LTP261	ltpFR	14	n/a	n/a	n/a	n/a	n/a	n/a	n/a	n/a	n/a	n/a	n/a	n/a	n/a	n/a	n/a	n/a
1780.056	n/a	PROB	890028	n/a	LTP261	ltpFR	14	n/a	n/a	n/a	n/a	n/a	n/a	n/a	23	7	8	8	n/a	n/a	n/a	n/a	n/a
1783.754	n/a	PROB	891877	n/a	LTP261	ltpFR	14	n/a	n/a	n/a	n/a	n/a	n/a	n/a	7	2	1	4	n/a	n/a	n/a	n/a	n/a
1785.658	n/a	STOP	892829	n/a	LTP261	ltpFR	14	n/a	n/a	n/a	n/a	n/a	n/a	n/a	n/a	n/a	n/a	n/a	n/a	n/a	n/a	n/a	n/a
1788.964	n/a	REC_START	894482	n/a	LTP261	ltpFR	14	6	n/a	n/a	n/a	n/a	n/a	n/a	n/a	0	0	0	n/a	n/a	n/a	n/a	n/a
1789.882	n/a	REC_WORD	894941	wordpools/wasnorm_wordpool_less_exclusions.txt	LTP261	ltpFR	14	6	0	PRIEST	1122	n/a	n/a	1	n/a	0	0	0	n/a	n/a	n/a	n/a	n/a
1791.196	n/a	REC_WORD	895598	wordpools/wasnorm_wordpool_less_exclusions.txt	LTP261	ltpFR	14	6	1	SPATULA	1348	n/a	n/a	0	n/a	0	0	0	n/a	n/a	n/a	n/a	n/a
1792.84	n/a	REC_WORD	896420	wordpools/wasnorm_wordpool_less_exclusions.txt	LTP261	ltpFR	14	6	0	WORKER	1621	n/a	n/a	1	n/a	0	0	0	n/a	n/a	n/a	n/a	n/a
1794.54	n/a	REC_WORD	897270	wordpools/wasnorm_wordpool_less_exclusions.txt	LTP261	ltpFR	14	6	0	KING	777	n/a	n/a	1	n/a	0	0	0	n/a	n/a	n/a	n/a	n/a
1795.734	n/a	REC_WORD	897867	wordpools/wasnorm_wordpool_less_exclusions.txt	LTP261	ltpFR	14	6	0	MANAGER	863	n/a	n/a	1	n/a	0	0	0	n/a	n/a	n/a	n/a	n/a
1796.734	n/a	REC_WORD_VV	898367	wordpools/wasnorm_wordpool_less_exclusions.txt	LTP261	ltpFR	14	6	n/a	<>	-1	n/a	n/a	n/a	n/a	0	0	0	n/a	n/a	n/a	n/a	n/a
1797.976	n/a	REC_WORD	898988	wordpools/wasnorm_wordpool_less_exclusions.txt	LTP261	ltpFR	14	6	0	DICTATOR	462	n/a	n/a	1	n/a	0	0	0	n/a	n/a	n/a	n/a	n/a
1798.976	n/a	REC_WORD_VV	899488	wordpools/wasnorm_wordpool_less_exclusions.txt	LTP261	ltpFR	14	6	n/a	<>	-1	n/a	n/a	n/a	n/a	0	0	0	n/a	n/a	n/a	n/a	n/a
1804.496	n/a	REC_WORD	902248	wordpools/wasnorm_wordpool_less_exclusions.txt	LTP261	ltpFR	14	6	1	GIRL	637	n/a	n/a	1	n/a	0	0	0	n/a	n/a	n/a	n/a	n/a
1819.702	n/a	REC_WORD	909851	wordpools/wasnorm_wordpool_less_exclusions.txt	LTP261	ltpFR	14	6	1	ORCHID	982	n/a	n/a	1	n/a	0	0	0	n/a	n/a	n/a	n/a	n/a
1821.046	n/a	REC_WORD	910523	wordpools/wasnorm_wordpool_less_exclusions.txt	LTP261	ltpFR	14	6	1	APPLICATION	34	n/a	n/a	0	n/a	0	0	0	n/a	n/a	n/a	n/a	n/a
1822.614	n/a	REC_WORD	911307	wordpools/wasnorm_wordpool_less_exclusions.txt	LTP261	ltpFR	14	6	1	CORPORATION	382	n/a	n/a	0	n/a	0	0	0	n/a	n/a	n/a	n/a	n/a
1823.614	n/a	REC_WORD_VV	911807	wordpools/wasnorm_wordpool_less_exclusions.txt	LTP261	ltpFR	14	6	n/a	<>	-1	n/a	n/a	n/a	n/a	0	0	0	n/a	n/a	n/a	n/a	n/a
1902.564	n/a	START	951282	n/a	LTP261	ltpFR	14	n/a	n/a	n/a	n/a	n/a	n/a	n/a	n/a	n/a	n/a	n/a	n/a	n/a	n/a	n/a	n/a
1904.08	n/a	PROB	952040	n/a	LTP261	ltpFR	14	n/a	n/a	n/a	n/a	n/a	n/a	n/a	8	1	5	2	n/a	n/a	n/a	n/a	n/a
1906.444	n/a	PROB	953222	n/a	LTP261	ltpFR	14	n/a	n/a	n/a	n/a	n/a	n/a	n/a	17	5	3	9	n/a	n/a	n/a	n/a	n/a
1908.722	n/a	PROB	954361	n/a	LTP261	ltpFR	14	n/a	n/a	n/a	n/a	n/a	n/a	n/a	11	1	9	1	n/a	n/a	n/a	n/a	n/a
1910.336	n/a	STOP	955168	n/a	LTP261	ltpFR	14	n/a	n/a	n/a	n/a	n/a	n/a	n/a	n/a	n/a	n/a	n/a	n/a	n/a	n/a	n/a	n/a
1911.666	n/a	WORD	955833	wordpools/wasnorm_wordpool_less_exclusions.txt	LTP261	ltpFR	14	7	1	MOAT	903	n/a	n/a	0	n/a	0	0	0	0.57763671875	0.412841796875	1	upper	amplitud.ttf
1914.678	n/a	START	957339	n/a	LTP261	ltpFR	14	n/a	n/a	n/a	n/a	n/a	n/a	n/a	n/a	n/a	n/a	n/a	n/a	n/a	n/a	n/a	n/a
1915.58	n/a	PROB	957790	n/a	LTP261	ltpFR	14	n/a	n/a	n/a	n/a	n/a	n/a	n/a	20	7	8	5	n/a	n/a	n/a	n/a	n/a
1922.678	n/a	STOP	961339	n/a	LTP261	ltpFR	14	n/a	n/a	n/a	n/a	n/a	n/a	n/a	n/a	n/a	n/a	n/a	n/a	n/a	n/a	n/a	n/a
1923.688	n/a	WORD	961844	wordpools/wasnorm_wordpool_less_exclusions.txt	LTP261	ltpFR	14	7	1	CALF	222	n/a	n/a	0	n/a	0	0	0	0.57763671875	0.412841796875	1	upper	amplitud.ttf
1926.7	n/a	START	963350	n/a	LTP261	ltpFR	14	n/a	n/a	n/a	n/a	n/a	n/a	n/a	n/a	n/a	n/a	n/a	n/a	n/a	n/a	n/a	n/a
1927.542	n/a	PROB	963771	n/a	LTP261	ltpFR	14	n/a	n/a	n/a	n/a	n/a	n/a	n/a	17	8	6	3	n/a	n/a	n/a	n/a	n/a
1929.912	n/a	PROB	964956	n/a	LTP261	ltpFR	14	n/a	n/a	n/a	n/a	n/a	n/a	n/a	15	8	3	4	n/a	n/a	n/a	n/a	n/a
1932.588	n/a	PROB	966294	n/a	LTP261	ltpFR	14	n/a	n/a	n/a	n/a	n/a	n/a	n/a	18	1	9	8	n/a	n/a	n/a	n/a	n/a
1934.25	n/a	STOP	967125	n/a	LTP261	ltpFR	14	n/a	n/a	n/a	n/a	n/a	n/a	n/a	n/a	n/a	n/a	n/a	n/a	n/a	n/a	n/a	n/a
1935.792	n/a	WORD	967896	wordpools/wasnorm_wordpool_less_exclusions.txt	LTP261	ltpFR	14	7	1	TICKET	1464	n/a	n/a	0	n/a	0	0	0	0.57763671875	0.412841796875	1	upper	amplitud.ttf
1938.804	n/a	START	969402	n/a	LTP261	ltpFR	14	n/a	n/a	n/a	n/a	n/a	n/a	n/a	n/a	n/a	n/a	n/a	n/a	n/a	n/a	n/a	n/a
1939.806	n/a	PROB	969903	n/a	LTP261	ltpFR	14	n/a	n/a	n/a	n/a	n/a	n/a	n/a	21	5	8	8	n/a	n/a	n/a	n/a	n/a
1946.804	n/a	STOP	973402	n/a	LTP261	ltpFR	14	n/a	n/a	n/a	n/a	n/a	n/a	n/a	n/a	n/a	n/a	n/a	n/a	n/a	n/a	n/a	n/a
1947.92	n/a	WORD	973960	wordpools/wasnorm_wordpool_less_exclusions.txt	LTP261	ltpFR	14	7	1	BUGGY	188	n/a	n/a	0	n/a	0	0	0	0.57763671875	0.412841796875	1	upper	amplitud.ttf
1950.932	n/a	START	975466	n/a	LTP261	ltpFR	14	n/a	n/a	n/a	n/a	n/a	n/a	n/a	n/a	n/a	n/a	n/a	n/a	n/a	n/a	n/a	n/a
1951.936	n/a	PROB	975968	n/a	LTP261	ltpFR	14	n/a	n/a	n/a	n/a	n/a	n/a	n/a	17	5	9	3	n/a	n/a	n/a	n/a	n/a
1955.048	n/a	PROB	977524	n/a	LTP261	ltpFR	14	n/a	n/a	n/a	n/a	n/a	n/a	n/a	11	8	1	2	n/a	n/a	n/a	n/a	n/a
1958.932	n/a	STOP	979466	n/a	LTP261	ltpFR	14	n/a	n/a	n/a	n/a	n/a	n/a	n/a	n/a	n/a	n/a	n/a	n/a	n/a	n/a	n/a	n/a
1960.076	n/a	WORD	980038	wordpools/wasnorm_wordpool_less_exclusions.txt	LTP261	ltpFR	14	7	1	ENEMY	534	n/a	n/a	1	n/a	0	0	0	0.57763671875	0.412841796875	1	upper	amplitud.ttf
1963.088	n/a	START	981544	n/a	LTP261	ltpFR	14	n/a	n/a	n/a	n/a	n/a	n/a	n/a	n/a	n/a	n/a	n/a	n/a	n/a	n/a	n/a	n/a
1964.266	n/a	PROB	982133	n/a	LTP261	ltpFR	14	n/a	n/a	n/a	n/a	n/a	n/a	n/a	15	9	5	1	n/a	n/a	n/a	n/a	n/a
1966.284	n/a	PROB	983142	n/a	LTP261	ltpFR	14	n/a	n/a	n/a	n/a	n/a	n/a	n/a	9	3	4	2	n/a	n/a	n/a	n/a	n/a
1971.088	n/a	STOP	985544	n/a	LTP261	ltpFR	14	n/a	n/a	n/a	n/a	n/a	n/a	n/a	n/a	n/a	n/a	n/a	n/a	n/a	n/a	n/a	n/a
1972.074	n/a	WORD	986037	wordpools/wasnorm_wordpool_less_exclusions.txt	LTP261	ltpFR	14	7	1	ASSOCIATE	49	n/a	n/a	1	n/a	0	0	0	0.57763671875	0.412841796875	1	upper	amplitud.ttf
1975.086	n/a	START	987543	n/a	LTP261	ltpFR	14	n/a	n/a	n/a	n/a	n/a	n/a	n/a	n/a	n/a	n/a	n/a	n/a	n/a	n/a	n/a	n/a
1976.156	n/a	PROB	988078	n/a	LTP261	ltpFR	14	n/a	n/a	n/a	n/a	n/a	n/a	n/a	15	7	6	2	n/a	n/a	n/a	n/a	n/a
1983.086	n/a	STOP	991543	n/a	LTP261	ltpFR	14	n/a	n/a	n/a	n/a	n/a	n/a	n/a	n/a	n/a	n/a	n/a	n/a	n/a	n/a	n/a	n/a
1984.158	n/a	WORD	992079	wordpools/wasnorm_wordpool_less_exclusions.txt	LTP261	ltpFR	14	7	0	CHECK	284	n/a	n/a	0	n/a	0	0	0	0.422607421875	0.5869140625	0	lower	zerothre.ttf
1987.17	n/a	START	993585	n/a	LTP261	ltpFR	14	n/a	n/a	n/a	n/a	n/a	n/a	n/a	n/a	n/a	n/a	n/a	n/a	n/a	n/a	n/a	n/a
1988.022	n/a	PROB	994011	n/a	LTP261	ltpFR	14	n/a	n/a	n/a	n/a	n/a	n/a	n/a	18	5	5	8	n/a	n/a	n/a	n/a	n/a
1989.378	n/a	PROB	994689	n/a	LTP261	ltpFR	14	n/a	n/a	n/a	n/a	n/a	n/a	n/a	4	2	1	1	n/a	n/a	n/a	n/a	n/a
1990.778	n/a	PROB	995389	n/a	LTP261	ltpFR	14	n/a	n/a	n/a	n/a	n/a	n/a	n/a	17	6	8	3	n/a	n/a	n/a	n/a	n/a
1995.17	n/a	STOP	997585	n/a	LTP261	ltpFR	14	n/a	n/a	n/a	n/a	n/a	n/a	n/a	n/a	n/a	n/a	n/a	n/a	n/a	n/a	n/a	n/a
1996.054	n/a	WORD	998027	wordpools/wasnorm_wordpool_less_exclusions.txt	LTP261	ltpFR	14	7	0	TILE	1468	n/a	n/a	0	n/a	0	0	0	0.422607421875	0.5869140625	0	lower	zerothre.ttf
1999.066	n/a	START	999533	n/a	LTP261	ltpFR	14	n/a	n/a	n/a	n/a	n/a	n/a	n/a	n/a	n/a	n/a	n/a	n/a	n/a	n/a	n/a	n/a
1999.914	n/a	PROB	999957	n/a	LTP261	ltpFR	14	n/a	n/a	n/a	n/a	n/a	n/a	n/a	23	6	8	7	n/a	n/a	n/a	n/a	n/a
2002.864	n/a	PROB	1001432	n/a	LTP261	ltpFR	14	n/a	n/a	n/a	n/a	n/a	n/a	n/a	18	5	9	4	n/a	n/a	n/a	n/a	n/a
2005.494	n/a	STOP	1002747	n/a	LTP261	ltpFR	14	n/a	n/a	n/a	n/a	n/a	n/a	n/a	n/a	n/a	n/a	n/a	n/a	n/a	n/a	n/a	n/a
2008.01	n/a	WORD	1004005	wordpools/wasnorm_wordpool_less_exclusions.txt	LTP261	ltpFR	14	7	0	CUE	422	n/a	n/a	0	n/a	0	0	0	0.422607421875	0.5869140625	0	lower	zerothre.ttf
2011.022	n/a	START	1005511	n/a	LTP261	ltpFR	14	n/a	n/a	n/a	n/a	n/a	n/a	n/a	n/a	n/a	n/a	n/a	n/a	n/a	n/a	n/a	n/a
2011.866	n/a	PROB	1005933	n/a	LTP261	ltpFR	14	n/a	n/a	n/a	n/a	n/a	n/a	n/a	16	8	3	5	n/a	n/a	n/a	n/a	n/a
2014.318	n/a	PROB	1007159	n/a	LTP261	ltpFR	14	n/a	n/a	n/a	n/a	n/a	n/a	n/a	18	2	9	7	n/a	n/a	n/a	n/a	n/a
2016.408	n/a	PROB	1008204	n/a	LTP261	ltpFR	14	n/a	n/a	n/a	n/a	n/a	n/a	n/a	19	6	6	7	n/a	n/a	n/a	n/a	n/a
2018.43	n/a	STOP	1009215	n/a	LTP261	ltpFR	14	n/a	n/a	n/a	n/a	n/a	n/a	n/a	n/a	n/a	n/a	n/a	n/a	n/a	n/a	n/a	n/a
2019.94	n/a	WORD	1009970	wordpools/wasnorm_wordpool_less_exclusions.txt	LTP261	ltpFR	14	7	0	COACH	331	n/a	n/a	1	n/a	0	0	0	0.422607421875	0.5869140625	0	lower	zerothre.ttf
2022.952	n/a	START	1011476	n/a	LTP261	ltpFR	14	n/a	n/a	n/a	n/a	n/a	n/a	n/a	n/a	n/a	n/a	n/a	n/a	n/a	n/a	n/a	n/a
2024.088	n/a	PROB	1012044	n/a	LTP261	ltpFR	14	n/a	n/a	n/a	n/a	n/a	n/a	n/a	19	6	7	6	n/a	n/a	n/a	n/a	n/a
2026.218	n/a	PROB	1013109	n/a	LTP261	ltpFR	14	n/a	n/a	n/a	n/a	n/a	n/a	n/a	16	5	3	8	n/a	n/a	n/a	n/a	n/a
2030.952	n/a	STOP	1015476	n/a	LTP261	ltpFR	14	n/a	n/a	n/a	n/a	n/a	n/a	n/a	n/a	n/a	n/a	n/a	n/a	n/a	n/a	n/a	n/a
2031.926	n/a	WORD	1015963	wordpools/wasnorm_wordpool_less_exclusions.txt	LTP261	ltpFR	14	7	0	COLLAR	345	n/a	n/a	0	n/a	0	0	0	0.422607421875	0.5869140625	0	lower	zerothre.ttf
2034.938	n/a	START	1017469	n/a	LTP261	ltpFR	14	n/a	n/a	n/a	n/a	n/a	n/a	n/a	n/a	n/a	n/a	n/a	n/a	n/a	n/a	n/a	n/a
2035.79	n/a	PROB	1017895	n/a	LTP261	ltpFR	14	n/a	n/a	n/a	n/a	n/a	n/a	n/a	13	3	4	6	n/a	n/a	n/a	n/a	n/a
2037.556	n/a	PROB	1018778	n/a	LTP261	ltpFR	14	n/a	n/a	n/a	n/a	n/a	n/a	n/a	18	9	6	3	n/a	n/a	n/a	n/a	n/a
2039.722	n/a	PROB	1019861	n/a	LTP261	ltpFR	14	n/a	n/a	n/a	n/a	n/a	n/a	n/a	9	3	5	1	n/a	n/a	n/a	n/a	n/a
2041.494	n/a	STOP	1020747	n/a	LTP261	ltpFR	14	n/a	n/a	n/a	n/a	n/a	n/a	n/a	n/a	n/a	n/a	n/a	n/a	n/a	n/a	n/a	n/a
2044.088	n/a	WORD	1022044	wordpools/wasnorm_wordpool_less_exclusions.txt	LTP261	ltpFR	14	7	1	JACKET	747	n/a	n/a	0	n/a	0	0	0	0.57763671875	0.412841796875	1	upper	amplitud.ttf
2047.1	n/a	START	1023550	n/a	LTP261	ltpFR	14	n/a	n/a	n/a	n/a	n/a	n/a	n/a	n/a	n/a	n/a	n/a	n/a	n/a	n/a	n/a	n/a
2048.238	n/a	PROB	1024119	n/a	LTP261	ltpFR	14	n/a	n/a	n/a	n/a	n/a	n/a	n/a	24	9	6	9	n/a	n/a	n/a	n/a	n/a
2050.658	n/a	PROB	1025329	n/a	LTP261	ltpFR	14	n/a	n/a	n/a	n/a	n/a	n/a	n/a	7	1	3	3	n/a	n/a	n/a	n/a	n/a
2055.1	n/a	STOP	1027550	n/a	LTP261	ltpFR	14	n/a	n/a	n/a	n/a	n/a	n/a	n/a	n/a	n/a	n/a	n/a	n/a	n/a	n/a	n/a	n/a
2056.034	n/a	WORD	1028017	wordpools/wasnorm_wordpool_less_exclusions.txt	LTP261	ltpFR	14	7	1	VEHICLE	1553	n/a	n/a	0	n/a	0	0	0	0.57763671875	0.412841796875	1	upper	amplitud.ttf
2059.046	n/a	START	1029523	n/a	LTP261	ltpFR	14	n/a	n/a	n/a	n/a	n/a	n/a	n/a	n/a	n/a	n/a	n/a	n/a	n/a	n/a	n/a	n/a
2060.192	n/a	PROB	1030096	n/a	LTP261	ltpFR	14	n/a	n/a	n/a	n/a	n/a	n/a	n/a	11	1	2	8	n/a	n/a	n/a	n/a	n/a
2061.682	n/a	PROB	1030841	n/a	LTP261	ltpFR	14	n/a	n/a	n/a	n/a	n/a	n/a	n/a	19	2	8	9	n/a	n/a	n/a	n/a	n/a
2063.31	n/a	PROB	1031655	n/a	LTP261	ltpFR	14	n/a	n/a	n/a	n/a	n/a	n/a	n/a	13	4	5	4	n/a	n/a	n/a	n/a	n/a
2066.368	n/a	STOP	1033184	n/a	LTP261	ltpFR	14	n/a	n/a	n/a	n/a	n/a	n/a	n/a	n/a	n/a	n/a	n/a	n/a	n/a	n/a	n/a	n/a
2067.93	n/a	WORD	1033965	wordpools/wasnorm_wordpool_less_exclusions.txt	LTP261	ltpFR	14	7	0	TUBE	1516	n/a	n/a	0	n/a	0	0	0	0.422607421875	0.5869140625	0	lower	zerothre.ttf
2070.942	n/a	START	1035471	n/a	LTP261	ltpFR	14	n/a	n/a	n/a	n/a	n/a	n/a	n/a	n/a	n/a	n/a	n/a	n/a	n/a	n/a	n/a	n/a
2071.762	n/a	PROB	1035881	n/a	LTP261	ltpFR	14	n/a	n/a	n/a	n/a	n/a	n/a	n/a	15	4	7	4	n/a	n/a	n/a	n/a	n/a
2074.438	n/a	PROB	1037219	n/a	LTP261	ltpFR	14	n/a	n/a	n/a	n/a	n/a	n/a	n/a	16	9	6	1	n/a	n/a	n/a	n/a	n/a
2078.942	n/a	STOP	1039471	n/a	LTP261	ltpFR	14	n/a	n/a	n/a	n/a	n/a	n/a	n/a	n/a	n/a	n/a	n/a	n/a	n/a	n/a	n/a	n/a
2079.97	n/a	WORD	1039985	wordpools/wasnorm_wordpool_less_exclusions.txt	LTP261	ltpFR	14	7	0	DECK	443	n/a	n/a	1	n/a	0	0	0	0.422607421875	0.5869140625	0	lower	zerothre.ttf
2082.98	n/a	START	1041490	n/a	LTP261	ltpFR	14	n/a	n/a	n/a	n/a	n/a	n/a	n/a	n/a	n/a	n/a	n/a	n/a	n/a	n/a	n/a	n/a
2083.984	n/a	PROB	1041992	n/a	LTP261	ltpFR	14	n/a	n/a	n/a	n/a	n/a	n/a	n/a	9	1	5	3	n/a	n/a	n/a	n/a	n/a
2090.982	n/a	STOP	1045491	n/a	LTP261	ltpFR	14	n/a	n/a	n/a	n/a	n/a	n/a	n/a	n/a	n/a	n/a	n/a	n/a	n/a	n/a	n/a	n/a
2092.088	n/a	WORD	1046044	wordpools/wasnorm_wordpool_less_exclusions.txt	LTP261	ltpFR	14	7	0	SWIMMER	1420	n/a	n/a	1	n/a	0	0	0	0.422607421875	0.5869140625	0	lower	zerothre.ttf
2095.1	n/a	START	1047550	n/a	LTP261	ltpFR	14	n/a	n/a	n/a	n/a	n/a	n/a	n/a	n/a	n/a	n/a	n/a	n/a	n/a	n/a	n/a	n/a
2096.254	n/a	PROB	1048127	n/a	LTP261	ltpFR	14	n/a	n/a	n/a	n/a	n/a	n/a	n/a	6	1	3	2	n/a	n/a	n/a	n/a	n/a
2097.976	n/a	PROB	1048988	n/a	LTP261	ltpFR	14	n/a	n/a	n/a	n/a	n/a	n/a	n/a	20	6	6	8	n/a	n/a	n/a	n/a	n/a
2103.1	n/a	STOP	1051550	n/a	LTP261	ltpFR	14	n/a	n/a	n/a	n/a	n/a	n/a	n/a	n/a	n/a	n/a	n/a	n/a	n/a	n/a	n/a	n/a
2104.89	n/a	REC_START	1052445	n/a	LTP261	ltpFR	14	7	n/a	n/a	n/a	n/a	n/a	n/a	n/a	0	0	0	n/a	n/a	n/a	n/a	n/a
2105.922	n/a	REC_WORD	1052961	wordpools/wasnorm_wordpool_less_exclusions.txt	LTP261	ltpFR	14	7	0	SWIMMER	1420	n/a	n/a	1	n/a	0	0	0	n/a	n/a	n/a	n/a	n/a
2108.558	n/a	REC_WORD	1054279	wordpools/wasnorm_wordpool_less_exclusions.txt	LTP261	ltpFR	14	7	1	ENEMY	534	n/a	n/a	1	n/a	0	0	0	n/a	n/a	n/a	n/a	n/a
2115.818	n/a	REC_WORD	1057909	wordpools/wasnorm_wordpool_less_exclusions.txt	LTP261	ltpFR	14	7	0	CHECK	284	n/a	n/a	0	n/a	0	0	0	n/a	n/a	n/a	n/a	n/a
2121.434	n/a	REC_WORD	1060717	wordpools/wasnorm_wordpool_less_exclusions.txt	LTP261	ltpFR	14	7	1	ASSOCIATE	49	n/a	n/a	1	n/a	0	0	0	n/a	n/a	n/a	n/a	n/a
2187.722	n/a	START	1093861	n/a	LTP261	ltpFR	14	n/a	n/a	n/a	n/a	n/a	n/a	n/a	n/a	n/a	n/a	n/a	n/a	n/a	n/a	n/a	n/a
2189.236	n/a	PROB	1094618	n/a	LTP261	ltpFR	14	n/a	n/a	n/a	n/a	n/a	n/a	n/a	19	4	6	9	n/a	n/a	n/a	n/a	n/a
2190.96	n/a	PROB	1095480	n/a	LTP261	ltpFR	14	n/a	n/a	n/a	n/a	n/a	n/a	n/a	18	8	6	4	n/a	n/a	n/a	n/a	n/a
2192.498	n/a	PROB	1096249	n/a	LTP261	ltpFR	14	n/a	n/a	n/a	n/a	n/a	n/a	n/a	8	4	1	3	n/a	n/a	n/a	n/a	n/a
2194.07	n/a	PROB	1097035	n/a	LTP261	ltpFR	14	n/a	n/a	n/a	n/a	n/a	n/a	n/a	15	5	5	5	n/a	n/a	n/a	n/a	n/a
2195.254	n/a	STOP	1097627	n/a	LTP261	ltpFR	14	n/a	n/a	n/a	n/a	n/a	n/a	n/a	n/a	n/a	n/a	n/a	n/a	n/a	n/a	n/a	n/a
2196.906	n/a	WORD	1098453	wordpools/wasnorm_wordpool_less_exclusions.txt	LTP261	ltpFR	14	8	1	SKETCH	1315	n/a	n/a	0	n/a	0	0	0	0.57763671875	0.412841796875	1	upper	amplitud.ttf
2199.918	n/a	START	1099959	n/a	LTP261	ltpFR	14	n/a	n/a	n/a	n/a	n/a	n/a	n/a	n/a	n/a	n/a	n/a	n/a	n/a	n/a	n/a	n/a
2200.904	n/a	PROB	1100452	n/a	LTP261	ltpFR	14	n/a	n/a	n/a	n/a	n/a	n/a	n/a	14	2	9	3	n/a	n/a	n/a	n/a	n/a
2204.26	n/a	PROB	1102130	n/a	LTP261	ltpFR	14	n/a	n/a	n/a	n/a	n/a	n/a	n/a	14	7	2	5	n/a	n/a	n/a	n/a	n/a
2206.334	n/a	PROB	1103167	n/a	LTP261	ltpFR	14	n/a	n/a	n/a	n/a	n/a	n/a	n/a	12	2	7	3	n/a	n/a	n/a	n/a	n/a
2207.624	n/a	STOP	1103812	n/a	LTP261	ltpFR	14	n/a	n/a	n/a	n/a	n/a	n/a	n/a	n/a	n/a	n/a	n/a	n/a	n/a	n/a	n/a	n/a
2208.896	n/a	WORD	1104448	wordpools/wasnorm_wordpool_less_exclusions.txt	LTP261	ltpFR	14	8	1	REFRIGERATOR	1179	n/a	n/a	0	n/a	0	0	0	0.57763671875	0.412841796875	1	upper	amplitud.ttf
2211.908	n/a	START	1105954	n/a	LTP261	ltpFR	14	n/a	n/a	n/a	n/a	n/a	n/a	n/a	n/a	n/a	n/a	n/a	n/a	n/a	n/a	n/a	n/a
2213.026	n/a	PROB	1106513	n/a	LTP261	ltpFR	14	n/a	n/a	n/a	n/a	n/a	n/a	n/a	7	1	5	1	n/a	n/a	n/a	n/a	n/a
2215.302	n/a	PROB	1107651	n/a	LTP261	ltpFR	14	n/a	n/a	n/a	n/a	n/a	n/a	n/a	18	4	5	9	n/a	n/a	n/a	n/a	n/a
2217.652	n/a	PROB	1108826	n/a	LTP261	ltpFR	14	n/a	n/a	n/a	n/a	n/a	n/a	n/a	6	2	2	2	n/a	n/a	n/a	n/a	n/a
2218.706	n/a	STOP	1109353	n/a	LTP261	ltpFR	14	n/a	n/a	n/a	n/a	n/a	n/a	n/a	n/a	n/a	n/a	n/a	n/a	n/a	n/a	n/a	n/a
2221.064	n/a	WORD	1110532	wordpools/wasnorm_wordpool_less_exclusions.txt	LTP261	ltpFR	14	8	1	CORN	381	n/a	n/a	0	n/a	0	0	0	0.57763671875	0.412841796875	1	upper	amplitud.ttf
2224.076	n/a	START	1112038	n/a	LTP261	ltpFR	14	n/a	n/a	n/a	n/a	n/a	n/a	n/a	n/a	n/a	n/a	n/a	n/a	n/a	n/a	n/a	n/a
2225.264	n/a	PROB	1112632	n/a	LTP261	ltpFR	14	n/a	n/a	n/a	n/a	n/a	n/a	n/a	14	2	5	7	n/a	n/a	n/a	n/a	n/a
2227.538	n/a	PROB	1113769	n/a	LTP261	ltpFR	14	n/a	n/a	n/a	n/a	n/a	n/a	n/a	17	3	5	9	n/a	n/a	n/a	n/a	n/a
2232.076	n/a	STOP	1116038	n/a	LTP261	ltpFR	14	n/a	n/a	n/a	n/a	n/a	n/a	n/a	n/a	n/a	n/a	n/a	n/a	n/a	n/a	n/a	n/a
2233.304	n/a	WORD	1116652	wordpools/wasnorm_wordpool_less_exclusions.txt	LTP261	ltpFR	14	8	1	MANSION	864	n/a	n/a	0	n/a	0	0	0	0.57763671875	0.412841796875	1	upper	amplitud.ttf
2236.316	n/a	START	1118158	n/a	LTP261	ltpFR	14	n/a	n/a	n/a	n/a	n/a	n/a	n/a	n/a	n/a	n/a	n/a	n/a	n/a	n/a	n/a	n/a
2237.46	n/a	PROB	1118730	n/a	LTP261	ltpFR	14	n/a	n/a	n/a	n/a	n/a	n/a	n/a	16	4	6	6	n/a	n/a	n/a	n/a	n/a
2241.368	n/a	PROB	1120684	n/a	LTP261	ltpFR	14	n/a	n/a	n/a	n/a	n/a	n/a	n/a	18	8	5	5	n/a	n/a	n/a	n/a	n/a
2242.778	n/a	STOP	1121389	n/a	LTP261	ltpFR	14	n/a	n/a	n/a	n/a	n/a	n/a	n/a	n/a	n/a	n/a	n/a	n/a	n/a	n/a	n/a	n/a
2245.508	n/a	WORD	1122754	wordpools/wasnorm_wordpool_less_exclusions.txt	LTP261	ltpFR	14	8	1	TUNA	1518	n/a	n/a	1	n/a	0	0	0	0.57763671875	0.412841796875	1	upper	amplitud.ttf
2248.52	n/a	START	1124260	n/a	LTP261	ltpFR	14	n/a	n/a	n/a	n/a	n/a	n/a	n/a	n/a	n/a	n/a	n/a	n/a	n/a	n/a	n/a	n/a
2249.6	n/a	PROB	1124800	n/a	LTP261	ltpFR	14	n/a	n/a	n/a	n/a	n/a	n/a	n/a	174	8	8	1	n/a	n/a	n/a	n/a	n/a
2251.222	n/a	PROB	1125611	n/a	LTP261	ltpFR	14	n/a	n/a	n/a	n/a	n/a	n/a	n/a	18	1	9	8	n/a	n/a	n/a	n/a	n/a
2256.52	n/a	STOP	1128260	n/a	LTP261	ltpFR	14	n/a	n/a	n/a	n/a	n/a	n/a	n/a	n/a	n/a	n/a	n/a	n/a	n/a	n/a	n/a	n/a
2257.536	n/a	WORD	1128768	wordpools/wasnorm_wordpool_less_exclusions.txt	LTP261	ltpFR	14	8	1	GLASSES	640	n/a	n/a	0	n/a	0	0	0	0.57763671875	0.412841796875	1	upper	amplitud.ttf
2260.548	n/a	START	1130274	n/a	LTP261	ltpFR	14	n/a	n/a	n/a	n/a	n/a	n/a	n/a	n/a	n/a	n/a	n/a	n/a	n/a	n/a	n/a	n/a
2268.548	n/a	STOP	1134274	n/a	LTP261	ltpFR	14	n/a	n/a	n/a	n/a	n/a	n/a	n/a	n/a	n/a	n/a	n/a	n/a	n/a	n/a	n/a	n/a
2269.734	n/a	WORD	1134867	wordpools/wasnorm_wordpool_less_exclusions.txt	LTP261	ltpFR	14	8	1	EYELASH	546	n/a	n/a	0	n/a	0	0	0	0.57763671875	0.412841796875	1	upper	amplitud.ttf
2272.746	n/a	START	1136373	n/a	LTP261	ltpFR	14	n/a	n/a	n/a	n/a	n/a	n/a	n/a	n/a	n/a	n/a	n/a	n/a	n/a	n/a	n/a	n/a
2273.816	n/a	PROB	1136908	n/a	LTP261	ltpFR	14	n/a	n/a	n/a	n/a	n/a	n/a	n/a	15	4	3	8	n/a	n/a	n/a	n/a	n/a
2276.638	n/a	PROB	1138319	n/a	LTP261	ltpFR	14	n/a	n/a	n/a	n/a	n/a	n/a	n/a	11	6	1	4	n/a	n/a	n/a	n/a	n/a
2279.284	n/a	STOP	1139642	n/a	LTP261	ltpFR	14	n/a	n/a	n/a	n/a	n/a	n/a	n/a	n/a	n/a	n/a	n/a	n/a	n/a	n/a	n/a	n/a
2281.892	n/a	WORD	1140946	wordpools/wasnorm_wordpool_less_exclusions.txt	LTP261	ltpFR	14	8	1	BRIDE	173	n/a	n/a	1	n/a	0	0	0	0.57763671875	0.412841796875	1	upper	amplitud.ttf
2284.91	n/a	START	1142455	n/a	LTP261	ltpFR	14	n/a	n/a	n/a	n/a	n/a	n/a	n/a	n/a	n/a	n/a	n/a	n/a	n/a	n/a	n/a	n/a
2285.974	n/a	PROB	1142987	n/a	LTP261	ltpFR	14	n/a	n/a	n/a	n/a	n/a	n/a	n/a	17	1	7	9	n/a	n/a	n/a	n/a	n/a
2289.24	n/a	PROB	1144620	n/a	LTP261	ltpFR	14	n/a	n/a	n/a	n/a	n/a	n/a	n/a	10	2	5	3	n/a	n/a	n/a	n/a	n/a
2291.908	n/a	STOP	1145954	n/a	LTP261	ltpFR	14	n/a	n/a	n/a	n/a	n/a	n/a	n/a	n/a	n/a	n/a	n/a	n/a	n/a	n/a	n/a	n/a
2293.894	n/a	WORD	1146947	wordpools/wasnorm_wordpool_less_exclusions.txt	LTP261	ltpFR	14	8	1	PRINCESS	1125	n/a	n/a	1	n/a	0	0	0	0.57763671875	0.412841796875	1	upper	amplitud.ttf
2296.906	n/a	START	1148453	n/a	LTP261	ltpFR	14	n/a	n/a	n/a	n/a	n/a	n/a	n/a	n/a	n/a	n/a	n/a	n/a	n/a	n/a	n/a	n/a
2298.058	n/a	PROB	1149029	n/a	LTP261	ltpFR	14	n/a	n/a	n/a	n/a	n/a	n/a	n/a	22	8	6	8	n/a	n/a	n/a	n/a	n/a
2302.074	n/a	PROB	1151037	n/a	LTP261	ltpFR	14	n/a	n/a	n/a	n/a	n/a	n/a	n/a	13	8	1	4	n/a	n/a	n/a	n/a	n/a
2304.356	n/a	STOP	1152178	n/a	LTP261	ltpFR	14	n/a	n/a	n/a	n/a	n/a	n/a	n/a	n/a	n/a	n/a	n/a	n/a	n/a	n/a	n/a	n/a
2305.982	n/a	WORD	1152991	wordpools/wasnorm_wordpool_less_exclusions.txt	LTP261	ltpFR	14	8	1	SQUID	1361	n/a	n/a	1	n/a	0	0	0	0.57763671875	0.412841796875	1	upper	amplitud.ttf
2308.994	n/a	START	1154497	n/a	LTP261	ltpFR	14	n/a	n/a	n/a	n/a	n/a	n/a	n/a	n/a	n/a	n/a	n/a	n/a	n/a	n/a	n/a	n/a
2309.97	n/a	PROB	1154985	n/a	LTP261	ltpFR	14	n/a	n/a	n/a	n/a	n/a	n/a	n/a	23	7	8	8	n/a	n/a	n/a	n/a	n/a
2316.994	n/a	STOP	1158497	n/a	LTP261	ltpFR	14	n/a	n/a	n/a	n/a	n/a	n/a	n/a	n/a	n/a	n/a	n/a	n/a	n/a	n/a	n/a	n/a
2317.994	n/a	WORD	1158997	wordpools/wasnorm_wordpool_less_exclusions.txt	LTP261	ltpFR	14	8	1	ROOM	1206	n/a	n/a	0	n/a	0	0	0	0.57763671875	0.412841796875	1	upper	amplitud.ttf
2321.006	n/a	START	1160503	n/a	LTP261	ltpFR	14	n/a	n/a	n/a	n/a	n/a	n/a	n/a	n/a	n/a	n/a	n/a	n/a	n/a	n/a	n/a	n/a
2322.076	n/a	PROB	1161038	n/a	LTP261	ltpFR	14	n/a	n/a	n/a	n/a	n/a	n/a	n/a	15	5	7	3	n/a	n/a	n/a	n/a	n/a
2323.852	n/a	PROB	1161926	n/a	LTP261	ltpFR	14	n/a	n/a	n/a	n/a	n/a	n/a	n/a	17	1	9	7	n/a	n/a	n/a	n/a	n/a
2325.876	n/a	PROB	1162938	n/a	LTP261	ltpFR	14	n/a	n/a	n/a	n/a	n/a	n/a	n/a	14	4	6	4	n/a	n/a	n/a	n/a	n/a
2327.662	n/a	STOP	1163831	n/a	LTP261	ltpFR	14	n/a	n/a	n/a	n/a	n/a	n/a	n/a	n/a	n/a	n/a	n/a	n/a	n/a	n/a	n/a	n/a
2330.046	n/a	WORD	1165023	wordpools/wasnorm_wordpool_less_exclusions.txt	LTP261	ltpFR	14	8	1	MOVIE	927	n/a	n/a	1	n/a	0	0	0	0.57763671875	0.412841796875	1	upper	amplitud.ttf
2333.06	n/a	START	1166530	n/a	LTP261	ltpFR	14	n/a	n/a	n/a	n/a	n/a	n/a	n/a	n/a	n/a	n/a	n/a	n/a	n/a	n/a	n/a	n/a
2333.956	n/a	PROB	1166978	n/a	LTP261	ltpFR	14	n/a	n/a	n/a	n/a	n/a	n/a	n/a	15	8	3	4	n/a	n/a	n/a	n/a	n/a
2338.422	n/a	PROB	1169211	n/a	LTP261	ltpFR	14	n/a	n/a	n/a	n/a	n/a	n/a	n/a	11	3	7	1	n/a	n/a	n/a	n/a	n/a
2339.614	n/a	STOP	1169807	n/a	LTP261	ltpFR	14	n/a	n/a	n/a	n/a	n/a	n/a	n/a	n/a	n/a	n/a	n/a	n/a	n/a	n/a	n/a	n/a
2342.22	n/a	WORD	1171110	wordpools/wasnorm_wordpool_less_exclusions.txt	LTP261	ltpFR	14	8	1	ARENA	37	n/a	n/a	1	n/a	0	0	0	0.57763671875	0.412841796875	1	upper	amplitud.ttf
2345.232	n/a	START	1172616	n/a	LTP261	ltpFR	14	n/a	n/a	n/a	n/a	n/a	n/a	n/a	n/a	n/a	n/a	n/a	n/a	n/a	n/a	n/a	n/a
2346.36	n/a	PROB	1173180	n/a	LTP261	ltpFR	14	n/a	n/a	n/a	n/a	n/a	n/a	n/a	11	7	2	2	n/a	n/a	n/a	n/a	n/a
2349.8	n/a	PROB	1174900	n/a	LTP261	ltpFR	14	n/a	n/a	n/a	n/a	n/a	n/a	n/a	6	2	3	1	n/a	n/a	n/a	n/a	n/a
2353.234	n/a	STOP	1176617	n/a	LTP261	ltpFR	14	n/a	n/a	n/a	n/a	n/a	n/a	n/a	n/a	n/a	n/a	n/a	n/a	n/a	n/a	n/a	n/a
2354.19	n/a	WORD	1177095	wordpools/wasnorm_wordpool_less_exclusions.txt	LTP261	ltpFR	14	8	1	HALL	677	n/a	n/a	0	n/a	0	0	0	0.57763671875	0.412841796875	1	upper	amplitud.ttf
2357.202	n/a	START	1178601	n/a	LTP261	ltpFR	14	n/a	n/a	n/a	n/a	n/a	n/a	n/a	n/a	n/a	n/a	n/a	n/a	n/a	n/a	n/a	n/a
2358.038	n/a	PROB	1179019	n/a	LTP261	ltpFR	14	n/a	n/a	n/a	n/a	n/a	n/a	n/a	17	2	9	6	n/a	n/a	n/a	n/a	n/a
2361.226	n/a	PROB	1180613	n/a	LTP261	ltpFR	14	n/a	n/a	n/a	n/a	n/a	n/a	n/a	15	6	4	5	n/a	n/a	n/a	n/a	n/a
2362.916	n/a	PROB	1181458	n/a	LTP261	ltpFR	14	n/a	n/a	n/a	n/a	n/a	n/a	n/a	18	8	2	8	n/a	n/a	n/a	n/a	n/a
2364.232	n/a	STOP	1182116	n/a	LTP261	ltpFR	14	n/a	n/a	n/a	n/a	n/a	n/a	n/a	n/a	n/a	n/a	n/a	n/a	n/a	n/a	n/a	n/a
2366.228	n/a	WORD	1183114	wordpools/wasnorm_wordpool_less_exclusions.txt	LTP261	ltpFR	14	8	1	ARTIST	43	n/a	n/a	1	n/a	0	0	0	0.57763671875	0.412841796875	1	upper	amplitud.ttf
2369.24	n/a	START	1184620	n/a	LTP261	ltpFR	14	n/a	n/a	n/a	n/a	n/a	n/a	n/a	n/a	n/a	n/a	n/a	n/a	n/a	n/a	n/a	n/a
2370.2	n/a	PROB	1185100	n/a	LTP261	ltpFR	14	n/a	n/a	n/a	n/a	n/a	n/a	n/a	18	7	8	3	n/a	n/a	n/a	n/a	n/a
2371.718	n/a	PROB	1185859	n/a	LTP261	ltpFR	14	n/a	n/a	n/a	n/a	n/a	n/a	n/a	12	5	5	2	n/a	n/a	n/a	n/a	n/a
2372.99	n/a	PROB	1186495	n/a	LTP261	ltpFR	14	n/a	n/a	n/a	n/a	n/a	n/a	n/a	12	1	7	4	n/a	n/a	n/a	n/a	n/a
2375.738	n/a	STOP	1187869	n/a	LTP261	ltpFR	14	n/a	n/a	n/a	n/a	n/a	n/a	n/a	n/a	n/a	n/a	n/a	n/a	n/a	n/a	n/a	n/a
2378.08	n/a	WORD	1189040	wordpools/wasnorm_wordpool_less_exclusions.txt	LTP261	ltpFR	14	8	1	FRIEND	606	n/a	n/a	1	n/a	0	0	0	0.57763671875	0.412841796875	1	upper	amplitud.ttf
2381.092	n/a	START	1190546	n/a	LTP261	ltpFR	14	n/a	n/a	n/a	n/a	n/a	n/a	n/a	n/a	n/a	n/a	n/a	n/a	n/a	n/a	n/a	n/a
2382.162	n/a	PROB	1191081	n/a	LTP261	ltpFR	14	n/a	n/a	n/a	n/a	n/a	n/a	n/a	11	8	1	2	n/a	n/a	n/a	n/a	n/a
2383.886	n/a	PROB	1191943	n/a	LTP261	ltpFR	14	n/a	n/a	n/a	n/a	n/a	n/a	n/a	14	3	2	9	n/a	n/a	n/a	n/a	n/a
2389.094	n/a	STOP	1194547	n/a	LTP261	ltpFR	14	n/a	n/a	n/a	n/a	n/a	n/a	n/a	n/a	n/a	n/a	n/a	n/a	n/a	n/a	n/a	n/a
2390.898	n/a	REC_START	1195449	n/a	LTP261	ltpFR	14	8	n/a	n/a	n/a	n/a	n/a	n/a	n/a	0	0	0	n/a	n/a	n/a	n/a	n/a
2392.436	n/a	REC_WORD	1196218	wordpools/wasnorm_wordpool_less_exclusions.txt	LTP261	ltpFR	14	8	1	ARTIST	43	n/a	n/a	1	n/a	0	0	0	n/a	n/a	n/a	n/a	n/a
2394.22	n/a	REC_WORD	1197110	wordpools/wasnorm_wordpool_less_exclusions.txt	LTP261	ltpFR	14	8	1	BRIDE	173	n/a	n/a	1	n/a	0	0	0	n/a	n/a	n/a	n/a	n/a
2395.286	n/a	REC_WORD	1197643	wordpools/wasnorm_wordpool_less_exclusions.txt	LTP261	ltpFR	14	8	1	PRINCESS	1125	n/a	n/a	1	n/a	0	0	0	n/a	n/a	n/a	n/a	n/a
2397.344	n/a	REC_WORD	1198672	wordpools/wasnorm_wordpool_less_exclusions.txt	LTP261	ltpFR	14	8	1	FRIEND	606	n/a	n/a	1	n/a	0	0	0	n/a	n/a	n/a	n/a	n/a
2419.518	n/a	REC_WORD	1209759	wordpools/wasnorm_wordpool_less_exclusions.txt	LTP261	ltpFR	14	8	1	ROOM	1206	n/a	n/a	0	n/a	0	0	0	n/a	n/a	n/a	n/a	n/a
2471.984	n/a	WORD	1235992	wordpools/wasnorm_wordpool_less_exclusions.txt	LTP261	ltpFR	14	9	0	ATTIRE	57	n/a	n/a	0	n/a	0	0	0	0.422607421875	0.5869140625	0	lower	zerothre.ttf
2476.022	n/a	WORD	1238011	wordpools/wasnorm_wordpool_less_exclusions.txt	LTP261	ltpFR	14	9	0	CROCODILE	411	n/a	n/a	1	n/a	0	0	0	0.422607421875	0.5869140625	0	lower	zerothre.ttf
2479.87	n/a	WORD	1239935	wordpools/wasnorm_wordpool_less_exclusions.txt	LTP261	ltpFR	14	9	0	REPTILE	1185	n/a	n/a	1	n/a	0	0	0	0.422607421875	0.5869140625	0	lower	zerothre.ttf
2483.77	n/a	WORD	1241885	wordpools/wasnorm_wordpool_less_exclusions.txt	LTP261	ltpFR	14	9	0	POTATO	1115	n/a	n/a	0	n/a	0	0	0	0.422607421875	0.5869140625	0	lower	zerothre.ttf
2487.7	n/a	WORD	1243850	wordpools/wasnorm_wordpool_less_exclusions.txt	LTP261	ltpFR	14	9	0	SISTER	1312	n/a	n/a	1	n/a	0	0	0	0.422607421875	0.5869140625	0	lower	zerothre.ttf
2491.592	n/a	WORD	1245796	wordpools/wasnorm_wordpool_less_exclusions.txt	LTP261	ltpFR	14	9	0	TRAY	1498	n/a	n/a	0	n/a	0	0	0	0.422607421875	0.5869140625	0	lower	zerothre.ttf
2495.64	n/a	WORD	1247820	wordpools/wasnorm_wordpool_less_exclusions.txt	LTP261	ltpFR	14	9	0	HAT	690	n/a	n/a	0	n/a	0	0	0	0.422607421875	0.5869140625	0	lower	zerothre.ttf
2499.814	n/a	WORD	1249907	wordpools/wasnorm_wordpool_less_exclusions.txt	LTP261	ltpFR	14	9	0	BRUSH	182	n/a	n/a	0	n/a	0	0	0	0.422607421875	0.5869140625	0	lower	zerothre.ttf
2503.93	n/a	WORD	1251965	wordpools/wasnorm_wordpool_less_exclusions.txt	LTP261	ltpFR	14	9	0	SUPERMARKET	1409	n/a	n/a	1	n/a	0	0	0	0.422607421875	0.5869140625	0	lower	zerothre.ttf
2508.01	n/a	WORD	1254005	wordpools/wasnorm_wordpool_less_exclusions.txt	LTP261	ltpFR	14	9	0	ZUCCHINI	1638	n/a	n/a	0	n/a	0	0	0	0.422607421875	0.5869140625	0	lower	zerothre.ttf
2511.876	n/a	WORD	1255938	wordpools/wasnorm_wordpool_less_exclusions.txt	LTP261	ltpFR	14	9	0	PRESIDENT	1121	n/a	n/a	1	n/a	0	0	0	0.422607421875	0.5869140625	0	lower	zerothre.ttf
2515.824	n/a	WORD	1257912	wordpools/wasnorm_wordpool_less_exclusions.txt	LTP261	ltpFR	14	9	0	ROBE	1198	n/a	n/a	0	n/a	0	0	0	0.422607421875	0.5869140625	0	lower	zerothre.ttf
2519.94	n/a	WORD	1259970	wordpools/wasnorm_wordpool_less_exclusions.txt	LTP261	ltpFR	14	9	0	HAMBURGER	679	n/a	n/a	0	n/a	0	0	0	0.422607421875	0.5869140625	0	lower	zerothre.ttf
2523.99	n/a	WORD	1261995	wordpools/wasnorm_wordpool_less_exclusions.txt	LTP261	ltpFR	14	9	0	MUSTARD	935	n/a	n/a	0	n/a	0	0	0	0.422607421875	0.5869140625	0	lower	zerothre.ttf
2527.914	n/a	WORD	1263957	wordpools/wasnorm_wordpool_less_exclusions.txt	LTP261	ltpFR	14	9	0	TUB	1514	n/a	n/a	1	n/a	0	0	0	0.422607421875	0.5869140625	0	lower	zerothre.ttf
2531.87	n/a	WORD	1265935	wordpools/wasnorm_wordpool_less_exclusions.txt	LTP261	ltpFR	14	9	0	OLIVE	975	n/a	n/a	0	n/a	0	0	0	0.422607421875	0.5869140625	0	lower	zerothre.ttf
2534.88	n/a	START	1267440	n/a	LTP261	ltpFR	14	n/a	n/a	n/a	n/a	n/a	n/a	n/a	n/a	n/a	n/a	n/a	n/a	n/a	n/a	n/a	n/a
2535.928	n/a	PROB	1267964	n/a	LTP261	ltpFR	14	n/a	n/a	n/a	n/a	n/a	n/a	n/a	15	4	2	9	n/a	n/a	n/a	n/a	n/a
2538.252	n/a	PROB	1269126	n/a	LTP261	ltpFR	14	n/a	n/a	n/a	n/a	n/a	n/a	n/a	8	3	4	1	n/a	n/a	n/a	n/a	n/a
2540.344	n/a	PROB	1270172	n/a	LTP261	ltpFR	14	n/a	n/a	n/a	n/a	n/a	n/a	n/a	10	1	6	3	n/a	n/a	n/a	n/a	n/a
2541.658	n/a	STOP	1270829	n/a	LTP261	ltpFR	14	n/a	n/a	n/a	n/a	n/a	n/a	n/a	n/a	n/a	n/a	n/a	n/a	n/a	n/a	n/a	n/a
2544.836	n/a	REC_START	1272418	n/a	LTP261	ltpFR	14	9	n/a	n/a	n/a	n/a	n/a	n/a	n/a	0	0	0	n/a	n/a	n/a	n/a	n/a
2545.402	n/a	REC_WORD	1272701	wordpools/wasnorm_wordpool_less_exclusions.txt	LTP261	ltpFR	14	9	0	OLIVE	975	n/a	n/a	0	n/a	0	0	0	n/a	n/a	n/a	n/a	n/a
2546.184	n/a	REC_WORD	1273092	wordpools/wasnorm_wordpool_less_exclusions.txt	LTP261	ltpFR	14	9	0	HAMBURGER	679	n/a	n/a	0	n/a	0	0	0	n/a	n/a	n/a	n/a	n/a
2547.112	n/a	REC_WORD	1273556	wordpools/wasnorm_wordpool_less_exclusions.txt	LTP261	ltpFR	14	9	0	MUSTARD	935	n/a	n/a	0	n/a	0	0	0	n/a	n/a	n/a	n/a	n/a
2548.738	n/a	REC_WORD	1274369	wordpools/wasnorm_wordpool_less_exclusions.txt	LTP261	ltpFR	14	9	0	SISTER	1312	n/a	n/a	1	n/a	0	0	0	n/a	n/a	n/a	n/a	n/a
2550.47	n/a	REC_WORD	1275235	wordpools/wasnorm_wordpool_less_exclusions.txt	LTP261	ltpFR	14	9	0	TUB	1514	n/a	n/a	1	n/a	0	0	0	n/a	n/a	n/a	n/a	n/a
2552.718	n/a	REC_WORD	1276359	wordpools/wasnorm_wordpool_less_exclusions.txt	LTP261	ltpFR	14	9	0	ROBE	1198	n/a	n/a	0	n/a	0	0	0	n/a	n/a	n/a	n/a	n/a
2557.298	n/a	REC_WORD	1278649	wordpools/wasnorm_wordpool_less_exclusions.txt	LTP261	ltpFR	14	9	0	REPTILE	1185	n/a	n/a	1	n/a	0	0	0	n/a	n/a	n/a	n/a	n/a
2558.644	n/a	REC_WORD	1279322	wordpools/wasnorm_wordpool_less_exclusions.txt	LTP261	ltpFR	14	9	0	CROCODILE	411	n/a	n/a	1	n/a	0	0	0	n/a	n/a	n/a	n/a	n/a
2567.794	n/a	REC_WORD	1283897	wordpools/wasnorm_wordpool_less_exclusions.txt	LTP261	ltpFR	14	9	0	ATTIRE	57	n/a	n/a	0	n/a	0	0	0	n/a	n/a	n/a	n/a	n/a
2640.344	n/a	WORD	1320172	wordpools/wasnorm_wordpool_less_exclusions.txt	LTP261	ltpFR	14	10	1	DOLLAR	482	n/a	n/a	0	n/a	0	0	0	0.57763671875	0.412841796875	1	upper	amplitud.ttf
2644.516	n/a	WORD	1322258	wordpools/wasnorm_wordpool_less_exclusions.txt	LTP261	ltpFR	14	10	1	AGENT	10	n/a	n/a	1	n/a	0	0	0	0.57763671875	0.412841796875	1	upper	amplitud.ttf
2648.39	n/a	WORD	1324195	wordpools/wasnorm_wordpool_less_exclusions.txt	LTP261	ltpFR	14	10	1	OPERA	978	n/a	n/a	0	n/a	0	0	0	0.57763671875	0.412841796875	1	upper	amplitud.ttf
2652.478	n/a	WORD	1326239	wordpools/wasnorm_wordpool_less_exclusions.txt	LTP261	ltpFR	14	10	1	SQUIRREL	1362	n/a	n/a	1	n/a	0	0	0	0.57763671875	0.412841796875	1	upper	amplitud.ttf
2656.394	n/a	WORD	1328197	wordpools/wasnorm_wordpool_less_exclusions.txt	LTP261	ltpFR	14	10	1	SUSPECT	1415	n/a	n/a	1	n/a	0	0	0	0.57763671875	0.412841796875	1	upper	amplitud.ttf
2660.494	n/a	WORD	1330247	wordpools/wasnorm_wordpool_less_exclusions.txt	LTP261	ltpFR	14	10	1	BRUNETTE	181	n/a	n/a	1	n/a	0	0	0	0.57763671875	0.412841796875	1	upper	amplitud.ttf
2664.618	n/a	WORD	1332309	wordpools/wasnorm_wordpool_less_exclusions.txt	LTP261	ltpFR	14	10	1	NUT	965	n/a	n/a	0	n/a	0	0	0	0.57763671875	0.412841796875	1	upper	amplitud.ttf
2668.776	n/a	WORD	1334388	wordpools/wasnorm_wordpool_less_exclusions.txt	LTP261	ltpFR	14	10	1	SHARK	1275	n/a	n/a	1	n/a	0	0	0	0.57763671875	0.412841796875	1	upper	amplitud.ttf
2672.734	n/a	WORD	1336367	wordpools/wasnorm_wordpool_less_exclusions.txt	LTP261	ltpFR	14	10	1	SPY	1360	n/a	n/a	1	n/a	0	0	0	0.57763671875	0.412841796875	1	upper	amplitud.ttf
2676.856	n/a	WORD	1338428	wordpools/wasnorm_wordpool_less_exclusions.txt	LTP261	ltpFR	14	10	1	YARN	1631	n/a	n/a	0	n/a	0	0	0	0.57763671875	0.412841796875	1	upper	amplitud.ttf
2680.838	n/a	WORD	1340419	wordpools/wasnorm_wordpool_less_exclusions.txt	LTP261	ltpFR	14	10	1	MARINE	869	n/a	n/a	1	n/a	0	0	0	0.57763671875	0.412841796875	1	upper	amplitud.ttf
2685.004	n/a	WORD	1342502	wordpools/wasnorm_wordpool_less_exclusions.txt	LTP261	ltpFR	14	10	1	HOSE	720	n/a	n/a	0	n/a	0	0	0	0.57763671875	0.412841796875	1	upper	amplitud.ttf
2688.868	n/a	WORD	1344434	wordpools/wasnorm_wordpool_less_exclusions.txt	LTP261	ltpFR	14	10	1	SOAP	1337	n/a	n/a	0	n/a	0	0	0	0.57763671875	0.412841796875	1	upper	amplitud.ttf
2693.028	n/a	WORD	1346514	wordpools/wasnorm_wordpool_less_exclusions.txt	LTP261	ltpFR	14	10	1	DETERGENT	455	n/a	n/a	0	n/a	0	0	0	0.57763671875	0.412841796875	1	upper	amplitud.ttf
2697.1	n/a	WORD	1348550	wordpools/wasnorm_wordpool_less_exclusions.txt	LTP261	ltpFR	14	10	1	PERCH	1048	n/a	n/a	1	n/a	0	0	0	0.57763671875	0.412841796875	1	upper	amplitud.ttf
2701.182	n/a	WORD	1350591	wordpools/wasnorm_wordpool_less_exclusions.txt	LTP261	ltpFR	14	10	1	BANDIT	81	n/a	n/a	1	n/a	0	0	0	0.57763671875	0.412841796875	1	upper	amplitud.ttf
2707.054	n/a	REC_START	1353527	n/a	LTP261	ltpFR	14	10	n/a	n/a	n/a	n/a	n/a	n/a	n/a	0	0	0	n/a	n/a	n/a	n/a	n/a
2707.64	n/a	REC_WORD	1353820	wordpools/wasnorm_wordpool_less_exclusions.txt	LTP261	ltpFR	14	10	1	BANDIT	81	n/a	n/a	1	n/a	0	0	0	n/a	n/a	n/a	n/a	n/a
2710.414	n/a	REC_WORD	1355207	wordpools/wasnorm_wordpool_less_exclusions.txt	LTP261	ltpFR	14	10	1	SUSPECT	1415	n/a	n/a	1	n/a	0	0	0	n/a	n/a	n/a	n/a	n/a
2711.414	n/a	REC_WORD_VV	1355707	wordpools/wasnorm_wordpool_less_exclusions.txt	LTP261	ltpFR	14	10	n/a	<>	-1	n/a	n/a	n/a	n/a	0	0	0	n/a	n/a	n/a	n/a	n/a
2715.204	n/a	REC_WORD	1357602	wordpools/wasnorm_wordpool_less_exclusions.txt	LTP261	ltpFR	14	10	1	AGENT	10	n/a	n/a	1	n/a	0	0	0	n/a	n/a	n/a	n/a	n/a
2716.206	n/a	REC_WORD	1358103	wordpools/wasnorm_wordpool_less_exclusions.txt	LTP261	ltpFR	14	10	1	SQUIRREL	1362	n/a	n/a	1	n/a	0	0	0	n/a	n/a	n/a	n/a	n/a
2717.206	n/a	REC_WORD_VV	1358603	wordpools/wasnorm_wordpool_less_exclusions.txt	LTP261	ltpFR	14	10	n/a	<>	-1	n/a	n/a	n/a	n/a	0	0	0	n/a	n/a	n/a	n/a	n/a
2717.672	n/a	REC_WORD	1358836	wordpools/wasnorm_wordpool_less_exclusions.txt	LTP261	ltpFR	14	10	1	NUT	965	n/a	n/a	0	n/a	0	0	0	n/a	n/a	n/a	n/a	n/a
2720.748	n/a	REC_WORD	1360374	wordpools/wasnorm_wordpool_less_exclusions.txt	LTP261	ltpFR	14	10	1	DOLLAR	482	n/a	n/a	0	n/a	0	0	0	n/a	n/a	n/a	n/a	n/a
2745.312	n/a	REC_WORD	1372656	wordpools/wasnorm_wordpool_less_exclusions.txt	LTP261	ltpFR	14	10	1	PERCH	1048	n/a	n/a	1	n/a	0	0	0	n/a	n/a	n/a	n/a	n/a
2758.314	n/a	REC_WORD	1379157	wordpools/wasnorm_wordpool_less_exclusions.txt	LTP261	ltpFR	14	10	1	OPERA	978	n/a	n/a	0	n/a	0	0	0	n/a	n/a	n/a	n/a	n/a
2782.704	n/a	REST_REWET	1391352	n/a	LTP261	ltpFR	14	10	n/a	n/a	n/a	n/a	n/a	n/a	n/a	0	0	0	n/a	n/a	n/a	n/a	n/a
3315.38	n/a	START	1657690	n/a	LTP261	ltpFR	14	n/a	n/a	n/a	n/a	n/a	n/a	n/a	n/a	n/a	n/a	n/a	n/a	n/a	n/a	n/a	n/a
3316.896	n/a	PROB	1658448	n/a	LTP261	ltpFR	14	n/a	n/a	n/a	n/a	n/a	n/a	n/a	9	1	2	6	n/a	n/a	n/a	n/a	n/a
3318.954	n/a	PROB	1659477	n/a	LTP261	ltpFR	14	n/a	n/a	n/a	n/a	n/a	n/a	n/a	19	6	4	9	n/a	n/a	n/a	n/a	n/a
3320.426	n/a	PROB	1660213	n/a	LTP261	ltpFR	14	n/a	n/a	n/a	n/a	n/a	n/a	n/a	13	8	2	3	n/a	n/a	n/a	n/a	n/a
3321.722	n/a	PROB	1660861	n/a	LTP261	ltpFR	14	n/a	n/a	n/a	n/a	n/a	n/a	n/a	22	8	5	9	n/a	n/a	n/a	n/a	n/a
3325.462	n/a	PROB	1662731	n/a	LTP261	ltpFR	14	n/a	n/a	n/a	n/a	n/a	n/a	n/a	12	5	4	3	n/a	n/a	n/a	n/a	n/a
3327.694	n/a	PROB	1663847	n/a	LTP261	ltpFR	14	n/a	n/a	n/a	n/a	n/a	n/a	n/a	24	9	6	9	n/a	n/a	n/a	n/a	n/a
3330.404	n/a	STOP	1665202	n/a	LTP261	ltpFR	14	n/a	n/a	n/a	n/a	n/a	n/a	n/a	n/a	n/a	n/a	n/a	n/a	n/a	n/a	n/a	n/a
3332.544	n/a	WORD	1666272	wordpools/wasnorm_wordpool_less_exclusions.txt	LTP261	ltpFR	14	11	0	COMPANION	357	n/a	n/a	1	n/a	0	0	0	0.422607421875	0.5869140625	0	lower	zerothre.ttf
3335.558	n/a	START	1667779	n/a	LTP261	ltpFR	14	n/a	n/a	n/a	n/a	n/a	n/a	n/a	n/a	n/a	n/a	n/a	n/a	n/a	n/a	n/a	n/a
3336.494	n/a	PROB	1668247	n/a	LTP261	ltpFR	14	n/a	n/a	n/a	n/a	n/a	n/a	n/a	14	6	6	2	n/a	n/a	n/a	n/a	n/a
3338.144	n/a	PROB	1669072	n/a	LTP261	ltpFR	14	n/a	n/a	n/a	n/a	n/a	n/a	n/a	16	7	4	6	n/a	n/a	n/a	n/a	n/a
3339.472	n/a	PROB	1669736	n/a	LTP261	ltpFR	14	n/a	n/a	n/a	n/a	n/a	n/a	n/a	12	6	1	5	n/a	n/a	n/a	n/a	n/a
3342.728	n/a	PROB	1671364	n/a	LTP261	ltpFR	14	n/a	n/a	n/a	n/a	n/a	n/a	n/a	15	4	9	2	n/a	n/a	n/a	n/a	n/a
3346.146	n/a	PROB	1673073	n/a	LTP261	ltpFR	14	n/a	n/a	n/a	n/a	n/a	n/a	n/a	20	9	8	3	n/a	n/a	n/a	n/a	n/a
3351.558	n/a	STOP	1675779	n/a	LTP261	ltpFR	14	n/a	n/a	n/a	n/a	n/a	n/a	n/a	n/a	n/a	n/a	n/a	n/a	n/a	n/a	n/a	n/a
3352.52	n/a	WORD	1676260	wordpools/wasnorm_wordpool_less_exclusions.txt	LTP261	ltpFR	14	11	0	SLEEVE	1324	n/a	n/a	0	n/a	0	0	0	0.422607421875	0.5869140625	0	lower	zerothre.ttf
3355.534	n/a	START	1677767	n/a	LTP261	ltpFR	14	n/a	n/a	n/a	n/a	n/a	n/a	n/a	n/a	n/a	n/a	n/a	n/a	n/a	n/a	n/a	n/a
3356.636	n/a	PROB	1678318	n/a	LTP261	ltpFR	14	n/a	n/a	n/a	n/a	n/a	n/a	n/a	12	3	4	5	n/a	n/a	n/a	n/a	n/a
3359.04	n/a	PROB	1679520	n/a	LTP261	ltpFR	14	n/a	n/a	n/a	n/a	n/a	n/a	n/a	18	9	5	4	n/a	n/a	n/a	n/a	n/a
3361.656	n/a	PROB	1680828	n/a	LTP261	ltpFR	14	n/a	n/a	n/a	n/a	n/a	n/a	n/a	14	3	8	3	n/a	n/a	n/a	n/a	n/a
3363.826	n/a	PROB	1681913	n/a	LTP261	ltpFR	14	n/a	n/a	n/a	n/a	n/a	n/a	n/a	13	7	1	5	n/a	n/a	n/a	n/a	n/a
3370.278	n/a	STOP	1685139	n/a	LTP261	ltpFR	14	n/a	n/a	n/a	n/a	n/a	n/a	n/a	n/a	n/a	n/a	n/a	n/a	n/a	n/a	n/a	n/a
3372.598	n/a	WORD	1686299	wordpools/wasnorm_wordpool_less_exclusions.txt	LTP261	ltpFR	14	11	0	SUPERVISOR	1410	n/a	n/a	1	n/a	0	0	0	0.422607421875	0.5869140625	0	lower	zerothre.ttf
3375.61	n/a	START	1687805	n/a	LTP261	ltpFR	14	n/a	n/a	n/a	n/a	n/a	n/a	n/a	n/a	n/a	n/a	n/a	n/a	n/a	n/a	n/a	n/a
3376.69	n/a	PROB	1688345	n/a	LTP261	ltpFR	14	n/a	n/a	n/a	n/a	n/a	n/a	n/a	4	1	1	2	n/a	n/a	n/a	n/a	n/a
3377.88	n/a	PROB	1688940	n/a	LTP261	ltpFR	14	n/a	n/a	n/a	n/a	n/a	n/a	n/a	20	8	7	5	n/a	n/a	n/a	n/a	n/a
3381.174	n/a	PROB	1690587	n/a	LTP261	ltpFR	14	n/a	n/a	n/a	n/a	n/a	n/a	n/a	18	6	6	6	n/a	n/a	n/a	n/a	n/a
3384.102	n/a	PROB	1692051	n/a	LTP261	ltpFR	14	n/a	n/a	n/a	n/a	n/a	n/a	n/a	12	1	7	4	n/a	n/a	n/a	n/a	n/a
3386.126	n/a	PROB	1693063	n/a	LTP261	ltpFR	14	n/a	n/a	n/a	n/a	n/a	n/a	n/a	14	8	2	4	n/a	n/a	n/a	n/a	n/a
3391.61	n/a	STOP	1695805	n/a	LTP261	ltpFR	14	n/a	n/a	n/a	n/a	n/a	n/a	n/a	n/a	n/a	n/a	n/a	n/a	n/a	n/a	n/a	n/a
3392.81	n/a	WORD	1696405	wordpools/wasnorm_wordpool_less_exclusions.txt	LTP261	ltpFR	14	11	0	DESK	452	n/a	n/a	1	n/a	0	0	0	0.422607421875	0.5869140625	0	lower	zerothre.ttf
3395.822	n/a	START	1697911	n/a	LTP261	ltpFR	14	n/a	n/a	n/a	n/a	n/a	n/a	n/a	n/a	n/a	n/a	n/a	n/a	n/a	n/a	n/a	n/a
3396.992	n/a	PROB	1698496	n/a	LTP261	ltpFR	14	n/a	n/a	n/a	n/a	n/a	n/a	n/a	17	7	8	2	n/a	n/a	n/a	n/a	n/a
3400.062	n/a	PROB	1700031	n/a	LTP261	ltpFR	14	n/a	n/a	n/a	n/a	n/a	n/a	n/a	5	2	1	2	n/a	n/a	n/a	n/a	n/a
3403.164	n/a	PROB	1701582	n/a	LTP261	ltpFR	14	n/a	n/a	n/a	n/a	n/a	n/a	n/a	17	1	7	9	n/a	n/a	n/a	n/a	n/a
3405.902	n/a	PROB	1702951	n/a	LTP261	ltpFR	14	n/a	n/a	n/a	n/a	n/a	n/a	n/a	11	1	3	7	n/a	n/a	n/a	n/a	n/a
3411.822	n/a	STOP	1705911	n/a	LTP261	ltpFR	14	n/a	n/a	n/a	n/a	n/a	n/a	n/a	n/a	n/a	n/a	n/a	n/a	n/a	n/a	n/a	n/a
3412.718	n/a	WORD	1706359	wordpools/wasnorm_wordpool_less_exclusions.txt	LTP261	ltpFR	14	11	1	BRAKE	166	n/a	n/a	0	n/a	0	0	0	0.57763671875	0.412841796875	1	upper	amplitud.ttf
3415.732	n/a	START	1707866	n/a	LTP261	ltpFR	14	n/a	n/a	n/a	n/a	n/a	n/a	n/a	n/a	n/a	n/a	n/a	n/a	n/a	n/a	n/a	n/a
3416.56	n/a	PROB	1708280	n/a	LTP261	ltpFR	14	n/a	n/a	n/a	n/a	n/a	n/a	n/a	13	1	4	8	n/a	n/a	n/a	n/a	n/a
3418.606	n/a	PROB	1709303	n/a	LTP261	ltpFR	14	n/a	n/a	n/a	n/a	n/a	n/a	n/a	14	3	7	4	n/a	n/a	n/a	n/a	n/a
3419.906	n/a	PROB	1709953	n/a	LTP261	ltpFR	14	n/a	n/a	n/a	n/a	n/a	n/a	n/a	20	8	7	5	n/a	n/a	n/a	n/a	n/a
3423.738	n/a	PROB	1711869	n/a	LTP261	ltpFR	14	n/a	n/a	n/a	n/a	n/a	n/a	n/a	20	5	9	6	n/a	n/a	n/a	n/a	n/a
3428.554	n/a	PROB	1714277	n/a	LTP261	ltpFR	14	n/a	n/a	n/a	n/a	n/a	n/a	n/a	11	1	3	7	n/a	n/a	n/a	n/a	n/a
3431.732	n/a	STOP	1715866	n/a	LTP261	ltpFR	14	n/a	n/a	n/a	n/a	n/a	n/a	n/a	n/a	n/a	n/a	n/a	n/a	n/a	n/a	n/a	n/a
3432.812	n/a	WORD	1716406	wordpools/wasnorm_wordpool_less_exclusions.txt	LTP261	ltpFR	14	11	1	FURNITURE	616	n/a	n/a	0	n/a	0	0	0	0.57763671875	0.412841796875	1	upper	amplitud.ttf
3435.824	n/a	START	1717912	n/a	LTP261	ltpFR	14	n/a	n/a	n/a	n/a	n/a	n/a	n/a	n/a	n/a	n/a	n/a	n/a	n/a	n/a	n/a	n/a
3436.788	n/a	PROB	1718394	n/a	LTP261	ltpFR	14	n/a	n/a	n/a	n/a	n/a	n/a	n/a	18	1	8	9	n/a	n/a	n/a	n/a	n/a
3438.466	n/a	PROB	1719233	n/a	LTP261	ltpFR	14	n/a	n/a	n/a	n/a	n/a	n/a	n/a	13	8	1	4	n/a	n/a	n/a	n/a	n/a
3440.416	n/a	PROB	1720208	n/a	LTP261	ltpFR	14	n/a	n/a	n/a	n/a	n/a	n/a	n/a	13	3	6	4	n/a	n/a	n/a	n/a	n/a
3442.056	n/a	PROB	1721028	n/a	LTP261	ltpFR	14	n/a	n/a	n/a	n/a	n/a	n/a	n/a	19	8	4	7	n/a	n/a	n/a	n/a	n/a
3447.35	n/a	PROB	1723675	n/a	LTP261	ltpFR	14	n/a	n/a	n/a	n/a	n/a	n/a	n/a	22	8	9	5	n/a	n/a	n/a	n/a	n/a
3451.602	n/a	STOP	1725801	n/a	LTP261	ltpFR	14	n/a	n/a	n/a	n/a	n/a	n/a	n/a	n/a	n/a	n/a	n/a	n/a	n/a	n/a	n/a	n/a
3453.0	n/a	WORD	1726500	wordpools/wasnorm_wordpool_less_exclusions.txt	LTP261	ltpFR	14	11	1	WHEAT	1602	n/a	n/a	1	n/a	0	0	0	0.57763671875	0.412841796875	1	upper	amplitud.ttf
3456.012	n/a	START	1728006	n/a	LTP261	ltpFR	14	n/a	n/a	n/a	n/a	n/a	n/a	n/a	n/a	n/a	n/a	n/a	n/a	n/a	n/a	n/a	n/a
3456.932	n/a	PROB	1728466	n/a	LTP261	ltpFR	14	n/a	n/a	n/a	n/a	n/a	n/a	n/a	10	4	4	2	n/a	n/a	n/a	n/a	n/a
3460.836	n/a	PROB	1730418	n/a	LTP261	ltpFR	14	n/a	n/a	n/a	n/a	n/a	n/a	n/a	16	7	6	4	n/a	n/a	n/a	n/a	n/a
3463.338	n/a	PROB	1731669	n/a	LTP261	ltpFR	14	n/a	n/a	n/a	n/a	n/a	n/a	n/a	17	5	7	5	n/a	n/a	n/a	n/a	n/a
3464.962	n/a	PROB	1732481	n/a	LTP261	ltpFR	14	n/a	n/a	n/a	n/a	n/a	n/a	n/a	14	7	3	4	n/a	n/a	n/a	n/a	n/a
3466.516	n/a	PROB	1733258	n/a	LTP261	ltpFR	14	n/a	n/a	n/a	n/a	n/a	n/a	n/a	16	7	6	3	n/a	n/a	n/a	n/a	n/a
3467.914	n/a	PROB	1733957	n/a	LTP261	ltpFR	14	n/a	n/a	n/a	n/a	n/a	n/a	n/a	15	3	9	6	n/a	n/a	n/a	n/a	n/a
3472.012	n/a	STOP	1736006	n/a	LTP261	ltpFR	14	n/a	n/a	n/a	n/a	n/a	n/a	n/a	n/a	n/a	n/a	n/a	n/a	n/a	n/a	n/a	n/a
3473.116	n/a	WORD	1736558	wordpools/wasnorm_wordpool_less_exclusions.txt	LTP261	ltpFR	14	11	0	BARLEY	88	n/a	n/a	0	n/a	0	0	0	0.422607421875	0.5869140625	0	lower	zerothre.ttf
3476.128	n/a	START	1738064	n/a	LTP261	ltpFR	14	n/a	n/a	n/a	n/a	n/a	n/a	n/a	n/a	n/a	n/a	n/a	n/a	n/a	n/a	n/a	n/a
3477.258	n/a	PROB	1738629	n/a	LTP261	ltpFR	14	n/a	n/a	n/a	n/a	n/a	n/a	n/a	23	8	7	8	n/a	n/a	n/a	n/a	n/a
3484.686	n/a	PROB	1742343	n/a	LTP261	ltpFR	14	n/a	n/a	n/a	n/a	n/a	n/a	n/a	17	5	5	7	n/a	n/a	n/a	n/a	n/a
3487.816	n/a	PROB	1743908	n/a	LTP261	ltpFR	14	n/a	n/a	n/a	n/a	n/a	n/a	n/a	19	7	5	7	n/a	n/a	n/a	n/a	n/a
3491.564	n/a	STOP	1745782	n/a	LTP261	ltpFR	14	n/a	n/a	n/a	n/a	n/a	n/a	n/a	n/a	n/a	n/a	n/a	n/a	n/a	n/a	n/a	n/a
3493.218	n/a	WORD	1746609	wordpools/wasnorm_wordpool_less_exclusions.txt	LTP261	ltpFR	14	11	0	SCAPEGOAT	1244	n/a	n/a	0	n/a	0	0	0	0.422607421875	0.5869140625	0	lower	zerothre.ttf
3496.23	n/a	START	1748115	n/a	LTP261	ltpFR	14	n/a	n/a	n/a	n/a	n/a	n/a	n/a	n/a	n/a	n/a	n/a	n/a	n/a	n/a	n/a	n/a
3497.274	n/a	PROB	1748637	n/a	LTP261	ltpFR	14	n/a	n/a	n/a	n/a	n/a	n/a	n/a	16	3	4	9	n/a	n/a	n/a	n/a	n/a
3499.896	n/a	PROB	1749948	n/a	LTP261	ltpFR	14	n/a	n/a	n/a	n/a	n/a	n/a	n/a	7	1	3	3	n/a	n/a	n/a	n/a	n/a
3501.842	n/a	PROB	1750921	n/a	LTP261	ltpFR	14	n/a	n/a	n/a	n/a	n/a	n/a	n/a	20	6	8	6	n/a	n/a	n/a	n/a	n/a
3504.244	n/a	PROB	1752122	n/a	LTP261	ltpFR	14	n/a	n/a	n/a	n/a	n/a	n/a	n/a	4	1	2	1	n/a	n/a	n/a	n/a	n/a
3505.354	n/a	PROB	1752677	n/a	LTP261	ltpFR	14	n/a	n/a	n/a	n/a	n/a	n/a	n/a	6	1	4	1	n/a	n/a	n/a	n/a	n/a
3506.722	n/a	PROB	1753361	n/a	LTP261	ltpFR	14	n/a	n/a	n/a	n/a	n/a	n/a	n/a	18	6	3	9	n/a	n/a	n/a	n/a	n/a
3509.004	n/a	PROB	1754502	n/a	LTP261	ltpFR	14	n/a	n/a	n/a	n/a	n/a	n/a	n/a	14	3	3	8	n/a	n/a	n/a	n/a	n/a
3511.126	n/a	STOP	1755563	n/a	LTP261	ltpFR	14	n/a	n/a	n/a	n/a	n/a	n/a	n/a	n/a	n/a	n/a	n/a	n/a	n/a	n/a	n/a	n/a
3513.396	n/a	WORD	1756698	wordpools/wasnorm_wordpool_less_exclusions.txt	LTP261	ltpFR	14	11	0	TIE	1466	n/a	n/a	0	n/a	0	0	0	0.422607421875	0.5869140625	0	lower	zerothre.ttf
3516.408	n/a	START	1758204	n/a	LTP261	ltpFR	14	n/a	n/a	n/a	n/a	n/a	n/a	n/a	n/a	n/a	n/a	n/a	n/a	n/a	n/a	n/a	n/a
3517.344	n/a	PROB	1758672	n/a	LTP261	ltpFR	14	n/a	n/a	n/a	n/a	n/a	n/a	n/a	12	6	4	2	n/a	n/a	n/a	n/a	n/a
3520.172	n/a	PROB	1760086	n/a	LTP261	ltpFR	14	n/a	n/a	n/a	n/a	n/a	n/a	n/a	14	6	4	4	n/a	n/a	n/a	n/a	n/a
3521.862	n/a	PROB	1760931	n/a	LTP261	ltpFR	14	n/a	n/a	n/a	n/a	n/a	n/a	n/a	9	4	2	3	n/a	n/a	n/a	n/a	n/a
3525.264	n/a	PROB	1762632	n/a	LTP261	ltpFR	14	n/a	n/a	n/a	n/a	n/a	n/a	n/a	15	7	2	6	n/a	n/a	n/a	n/a	n/a
3527.674	n/a	PROB	1763837	n/a	LTP261	ltpFR	14	n/a	n/a	n/a	n/a	n/a	n/a	n/a	9	4	2	3	n/a	n/a	n/a	n/a	n/a
3530.864	n/a	STOP	1765432	n/a	LTP261	ltpFR	14	n/a	n/a	n/a	n/a	n/a	n/a	n/a	n/a	n/a	n/a	n/a	n/a	n/a	n/a	n/a	n/a
3533.49	n/a	WORD	1766745	wordpools/wasnorm_wordpool_less_exclusions.txt	LTP261	ltpFR	14	11	0	TRUCK	1512	n/a	n/a	1	n/a	0	0	0	0.422607421875	0.5869140625	0	lower	zerothre.ttf
3536.508	n/a	START	1768254	n/a	LTP261	ltpFR	14	n/a	n/a	n/a	n/a	n/a	n/a	n/a	n/a	n/a	n/a	n/a	n/a	n/a	n/a	n/a	n/a
3537.588	n/a	PROB	1768794	n/a	LTP261	ltpFR	14	n/a	n/a	n/a	n/a	n/a	n/a	n/a	20	3	9	8	n/a	n/a	n/a	n/a	n/a
3541.134	n/a	PROB	1770567	n/a	LTP261	ltpFR	14	n/a	n/a	n/a	n/a	n/a	n/a	n/a	24	7	6	9	n/a	n/a	n/a	n/a	n/a
3546.876	n/a	PROB	1773438	n/a	LTP261	ltpFR	14	n/a	n/a	n/a	n/a	n/a	n/a	n/a	18	5	8	5	n/a	n/a	n/a	n/a	n/a
3548.246	n/a	PROB	1774123	n/a	LTP261	ltpFR	14	n/a	n/a	n/a	n/a	n/a	n/a	n/a	18	8	6	4	n/a	n/a	n/a	n/a	n/a
3552.508	n/a	STOP	1776254	n/a	LTP261	ltpFR	14	n/a	n/a	n/a	n/a	n/a	n/a	n/a	n/a	n/a	n/a	n/a	n/a	n/a	n/a	n/a	n/a
3553.506	n/a	WORD	1776753	wordpools/wasnorm_wordpool_less_exclusions.txt	LTP261	ltpFR	14	11	1	TROMBONE	1508	n/a	n/a	1	n/a	0	0	0	0.57763671875	0.412841796875	1	upper	amplitud.ttf
3556.518	n/a	START	1778259	n/a	LTP261	ltpFR	14	n/a	n/a	n/a	n/a	n/a	n/a	n/a	n/a	n/a	n/a	n/a	n/a	n/a	n/a	n/a	n/a
3557.614	n/a	PROB	1778807	n/a	LTP261	ltpFR	14	n/a	n/a	n/a	n/a	n/a	n/a	n/a	16	1	7	8	n/a	n/a	n/a	n/a	n/a
3559.388	n/a	PROB	1779694	n/a	LTP261	ltpFR	14	n/a	n/a	n/a	n/a	n/a	n/a	n/a	10	4	2	4	n/a	n/a	n/a	n/a	n/a
3561.228	n/a	PROB	1780614	n/a	LTP261	ltpFR	14	n/a	n/a	n/a	n/a	n/a	n/a	n/a	13	5	7	1	n/a	n/a	n/a	n/a	n/a
3565.344	n/a	PROB	1782672	n/a	LTP261	ltpFR	14	n/a	n/a	n/a	n/a	n/a	n/a	n/a	17	5	6	6	n/a	n/a	n/a	n/a	n/a
3568.49	n/a	PROB	1784245	n/a	LTP261	ltpFR	14	n/a	n/a	n/a	n/a	n/a	n/a	n/a	16	5	3	8	n/a	n/a	n/a	n/a	n/a
3570.27	n/a	PROB	1785135	n/a	LTP261	ltpFR	14	n/a	n/a	n/a	n/a	n/a	n/a	n/a	19	3	7	9	n/a	n/a	n/a	n/a	n/a
3571.97	n/a	STOP	1785985	n/a	LTP261	ltpFR	14	n/a	n/a	n/a	n/a	n/a	n/a	n/a	n/a	n/a	n/a	n/a	n/a	n/a	n/a	n/a	n/a
3573.482	n/a	WORD	1786741	wordpools/wasnorm_wordpool_less_exclusions.txt	LTP261	ltpFR	14	11	1	PALM	1007	n/a	n/a	0	n/a	0	0	0	0.57763671875	0.412841796875	1	upper	amplitud.ttf
3576.494	n/a	START	1788247	n/a	LTP261	ltpFR	14	n/a	n/a	n/a	n/a	n/a	n/a	n/a	n/a	n/a	n/a	n/a	n/a	n/a	n/a	n/a	n/a
3577.514	n/a	PROB	1788757	n/a	LTP261	ltpFR	14	n/a	n/a	n/a	n/a	n/a	n/a	n/a	20	9	3	8	n/a	n/a	n/a	n/a	n/a
3579.532	n/a	PROB	1789766	n/a	LTP261	ltpFR	14	n/a	n/a	n/a	n/a	n/a	n/a	n/a	12	1	9	2	n/a	n/a	n/a	n/a	n/a
3581.094	n/a	PROB	1790547	n/a	LTP261	ltpFR	14	n/a	n/a	n/a	n/a	n/a	n/a	n/a	16	6	7	1	n/a	n/a	n/a	n/a	n/a
3584.484	n/a	PROB	1792242	n/a	LTP261	ltpFR	14	n/a	n/a	n/a	n/a	n/a	n/a	n/a	11	2	1	8	n/a	n/a	n/a	n/a	n/a
3587.932	n/a	PROB	1793966	n/a	LTP261	ltpFR	14	n/a	n/a	n/a	n/a	n/a	n/a	n/a	15	8	3	4	n/a	n/a	n/a	n/a	n/a
3590.406	n/a	PROB	1795203	n/a	LTP261	ltpFR	14	n/a	n/a	n/a	n/a	n/a	n/a	n/a	9	2	1	6	n/a	n/a	n/a	n/a	n/a
3592.282	n/a	STOP	1796141	n/a	LTP261	ltpFR	14	n/a	n/a	n/a	n/a	n/a	n/a	n/a	n/a	n/a	n/a	n/a	n/a	n/a	n/a	n/a	n/a
3593.486	n/a	WORD	1796743	wordpools/wasnorm_wordpool_less_exclusions.txt	LTP261	ltpFR	14	11	1	STOOL	1386	n/a	n/a	0	n/a	0	0	0	0.57763671875	0.412841796875	1	upper	amplitud.ttf
3596.498	n/a	START	1798249	n/a	LTP261	ltpFR	14	n/a	n/a	n/a	n/a	n/a	n/a	n/a	n/a	n/a	n/a	n/a	n/a	n/a	n/a	n/a	n/a
3597.668	n/a	PROB	1798834	n/a	LTP261	ltpFR	14	n/a	n/a	n/a	n/a	n/a	n/a	n/a	14	2	8	4	n/a	n/a	n/a	n/a	n/a
3599.33	n/a	PROB	1799665	n/a	LTP261	ltpFR	14	n/a	n/a	n/a	n/a	n/a	n/a	n/a	14	1	6	7	n/a	n/a	n/a	n/a	n/a
3601.902	n/a	PROB	1800951	n/a	LTP261	ltpFR	14	n/a	n/a	n/a	n/a	n/a	n/a	n/a	18	8	1	9	n/a	n/a	n/a	n/a	n/a
3604.35	n/a	PROB	1802175	n/a	LTP261	ltpFR	14	n/a	n/a	n/a	n/a	n/a	n/a	n/a	15	3	6	6	n/a	n/a	n/a	n/a	n/a
3607.54	n/a	PROB	1803770	n/a	LTP261	ltpFR	14	n/a	n/a	n/a	n/a	n/a	n/a	n/a	18	4	6	8	n/a	n/a	n/a	n/a	n/a
3609.03	n/a	PROB	1804515	n/a	LTP261	ltpFR	14	n/a	n/a	n/a	n/a	n/a	n/a	n/a	14	4	4	6	n/a	n/a	n/a	n/a	n/a
3610.956	n/a	STOP	1805478	n/a	LTP261	ltpFR	14	n/a	n/a	n/a	n/a	n/a	n/a	n/a	n/a	n/a	n/a	n/a	n/a	n/a	n/a	n/a	n/a
3613.662	n/a	WORD	1806831	wordpools/wasnorm_wordpool_less_exclusions.txt	LTP261	ltpFR	14	11	1	MAN	862	n/a	n/a	1	n/a	0	0	0	0.57763671875	0.412841796875	1	upper	amplitud.ttf
3616.674	n/a	START	1808337	n/a	LTP261	ltpFR	14	n/a	n/a	n/a	n/a	n/a	n/a	n/a	n/a	n/a	n/a	n/a	n/a	n/a	n/a	n/a	n/a
3617.566	n/a	PROB	1808783	n/a	LTP261	ltpFR	14	n/a	n/a	n/a	n/a	n/a	n/a	n/a	20	8	9	3	n/a	n/a	n/a	n/a	n/a
3620.338	n/a	PROB	1810169	n/a	LTP261	ltpFR	14	n/a	n/a	n/a	n/a	n/a	n/a	n/a	19	9	8	2	n/a	n/a	n/a	n/a	n/a
3624.494	n/a	PROB	1812247	n/a	LTP261	ltpFR	14	n/a	n/a	n/a	n/a	n/a	n/a	n/a	19	5	7	6	n/a	n/a	n/a	n/a	n/a
3632.676	n/a	STOP	1816338	n/a	LTP261	ltpFR	14	n/a	n/a	n/a	n/a	n/a	n/a	n/a	n/a	n/a	n/a	n/a	n/a	n/a	n/a	n/a	n/a
3633.846	n/a	WORD	1816923	wordpools/wasnorm_wordpool_less_exclusions.txt	LTP261	ltpFR	14	11	1	FEMALE	559	n/a	n/a	1	n/a	0	0	0	0.57763671875	0.412841796875	1	upper	amplitud.ttf
3636.858	n/a	START	1818429	n/a	LTP261	ltpFR	14	n/a	n/a	n/a	n/a	n/a	n/a	n/a	n/a	n/a	n/a	n/a	n/a	n/a	n/a	n/a	n/a
3637.856	n/a	PROB	1818928	n/a	LTP261	ltpFR	14	n/a	n/a	n/a	n/a	n/a	n/a	n/a	19	9	1	9	n/a	n/a	n/a	n/a	n/a
3639.344	n/a	PROB	1819672	n/a	LTP261	ltpFR	14	n/a	n/a	n/a	n/a	n/a	n/a	n/a	20	4	7	9	n/a	n/a	n/a	n/a	n/a
3641.738	n/a	PROB	1820869	n/a	LTP261	ltpFR	14	n/a	n/a	n/a	n/a	n/a	n/a	n/a	13	5	6	2	n/a	n/a	n/a	n/a	n/a
3643.828	n/a	PROB	1821914	n/a	LTP261	ltpFR	14	n/a	n/a	n/a	n/a	n/a	n/a	n/a	16	3	9	4	n/a	n/a	n/a	n/a	n/a
3646.528	n/a	PROB	1823264	n/a	LTP261	ltpFR	14	n/a	n/a	n/a	n/a	n/a	n/a	n/a	19	3	9	7	n/a	n/a	n/a	n/a	n/a
3648.118	n/a	PROB	1824059	n/a	LTP261	ltpFR	14	n/a	n/a	n/a	n/a	n/a	n/a	n/a	14	4	3	7	n/a	n/a	n/a	n/a	n/a
3652.858	n/a	STOP	1826429	n/a	LTP261	ltpFR	14	n/a	n/a	n/a	n/a	n/a	n/a	n/a	n/a	n/a	n/a	n/a	n/a	n/a	n/a	n/a	n/a
3654.652	n/a	REC_START	1827326	n/a	LTP261	ltpFR	14	11	n/a	n/a	n/a	n/a	n/a	n/a	n/a	0	0	0	n/a	n/a	n/a	n/a	n/a
3655.53	n/a	REC_WORD	1827765	wordpools/wasnorm_wordpool_less_exclusions.txt	LTP261	ltpFR	14	11	1	MAN	862	n/a	n/a	1	n/a	0	0	0	n/a	n/a	n/a	n/a	n/a
3657.624	n/a	REC_WORD	1828812	wordpools/wasnorm_wordpool_less_exclusions.txt	LTP261	ltpFR	14	11	1	STOOL	1386	n/a	n/a	0	n/a	0	0	0	n/a	n/a	n/a	n/a	n/a
3659.75	n/a	REC_WORD	1829875	wordpools/wasnorm_wordpool_less_exclusions.txt	LTP261	ltpFR	14	11	1	FEMALE	559	n/a	n/a	1	n/a	0	0	0	n/a	n/a	n/a	n/a	n/a
3673.218	n/a	REC_WORD	1836609	wordpools/wasnorm_wordpool_less_exclusions.txt	LTP261	ltpFR	14	11	0	TIE	1466	n/a	n/a	0	n/a	0	0	0	n/a	n/a	n/a	n/a	n/a
3734.794	n/a	WORD	1867397	wordpools/wasnorm_wordpool_less_exclusions.txt	LTP261	ltpFR	14	12	0	FIREMAN	569	n/a	n/a	1	n/a	0	0	0	0.422607421875	0.5869140625	0	lower	zerothre.ttf
3738.882	n/a	WORD	1869441	wordpools/wasnorm_wordpool_less_exclusions.txt	LTP261	ltpFR	14	12	0	CHALK	276	n/a	n/a	0	n/a	0	0	0	0.422607421875	0.5869140625	0	lower	zerothre.ttf
3742.84	n/a	WORD	1871420	wordpools/wasnorm_wordpool_less_exclusions.txt	LTP261	ltpFR	14	12	0	ARTICLE	42	n/a	n/a	0	n/a	0	0	0	0.422607421875	0.5869140625	0	lower	zerothre.ttf
3746.996	n/a	WORD	1873498	wordpools/wasnorm_wordpool_less_exclusions.txt	LTP261	ltpFR	14	12	0	MAGAZINE	853	n/a	n/a	0	n/a	0	0	0	0.422607421875	0.5869140625	0	lower	zerothre.ttf
3750.988	n/a	WORD	1875494	wordpools/wasnorm_wordpool_less_exclusions.txt	LTP261	ltpFR	14	12	1	MOTH	920	n/a	n/a	1	n/a	0	0	0	0.57763671875	0.412841796875	1	upper	amplitud.ttf
3755.092	n/a	WORD	1877546	wordpools/wasnorm_wordpool_less_exclusions.txt	LTP261	ltpFR	14	12	1	CRYSTAL	418	n/a	n/a	0	n/a	0	0	0	0.57763671875	0.412841796875	1	upper	amplitud.ttf
