mstime	trial_type	stim_file	subject	experiment	session	trial	item_name	item_num	list	answer	test_x	test_y	test_z
0	SESS_START	n/a	LTP367	ltpFR2	21	n/a	n/a	n/a	n/a	n/a	0	0	0
12098	START	n/a	LTP367	ltpFR2	21	n/a	n/a	n/a	-1	n/a	n/a	n/a	n/a
12128	PROB	n/a	LTP367	ltpFR2	21	n/a	n/a	n/a	-1	18	9	4	5
13893	PROB	n/a	LTP367	ltpFR2	21	n/a	n/a	n/a	-1	11	1	5	5
14926	PROB	n/a	LTP367	ltpFR2	21	n/a	n/a	n/a	-1	17	9	7	1
16243	PROB	n/a	LTP367	ltpFR2	21	n/a	n/a	n/a	-1	11	1	2	8
17392	PROB	n/a	LTP367	ltpFR2	21	n/a	n/a	n/a	-1	9	1	2	6
18791	PROB	n/a	LTP367	ltpFR2	21	n/a	n/a	n/a	-1	16	2	9	5
20374	PROB	n/a	LTP367	ltpFR2	21	n/a	n/a	n/a	-1	19	9	8	2
21456	PROB	n/a	LTP367	ltpFR2	21	n/a	n/a	n/a	-1	26	8	9	9
22759	STOP	n/a	LTP367	ltpFR2	21	n/a	n/a	n/a	-1	n/a	n/a	n/a	n/a
52343	DISTRACTOR	n/a	LTP367	ltpFR2	21	1	n/a	n/a	n/a	n/a	0	0	0
52343	START	n/a	LTP367	ltpFR2	21	n/a	n/a	n/a	1	n/a	n/a	n/a	n/a
52359	PROB	n/a	LTP367	ltpFR2	21	n/a	n/a	n/a	1	12	2	2	8
54508	PROB	n/a	LTP367	ltpFR2	21	n/a	n/a	n/a	1	9	3	5	1
55890	PROB	n/a	LTP367	ltpFR2	21	n/a	n/a	n/a	1	13	6	2	5
57590	PROB	n/a	LTP367	ltpFR2	21	n/a	n/a	n/a	1	17	7	1	9
59107	PROB	n/a	LTP367	ltpFR2	21	n/a	n/a	n/a	1	13	9	2	2
60688	PROB	n/a	LTP367	ltpFR2	21	n/a	n/a	n/a	1	21	9	9	3
61988	PROB	n/a	LTP367	ltpFR2	21	n/a	n/a	n/a	1	14	5	7	2
63355	PROB	n/a	LTP367	ltpFR2	21	n/a	n/a	n/a	1	18	8	8	2
64537	PROB	n/a	LTP367	ltpFR2	21	n/a	n/a	n/a	1	14	1	4	9
65769	PROB	n/a	LTP367	ltpFR2	21	n/a	n/a	n/a	1	14	3	6	5
67253	PROB	n/a	LTP367	ltpFR2	21	n/a	n/a	n/a	1	16	5	6	5
68401	PROB	n/a	LTP367	ltpFR2	21	n/a	n/a	n/a	1	17	5	4	8
69851	PROB	n/a	LTP367	ltpFR2	21	n/a	n/a	n/a	1	10	2	5	3
71567	PROB	n/a	LTP367	ltpFR2	21	n/a	n/a	n/a	1	19	3	8	8
73167	PROB	n/a	LTP367	ltpFR2	21	n/a	n/a	n/a	1	13	7	2	4
74824	STOP	n/a	LTP367	ltpFR2	21	n/a	n/a	n/a	1	n/a	n/a	n/a	n/a
77331	WORD	wordpools/wasnorm_wordpool_576.txt	LTP367	ltpFR2	21	1	JEANS	752	n/a	n/a	0	0	0
80114	WORD	wordpools/wasnorm_wordpool_576.txt	LTP367	ltpFR2	21	1	ZIPPER	1636	n/a	n/a	0	0	0
82678	WORD	wordpools/wasnorm_wordpool_576.txt	LTP367	ltpFR2	21	1	MARKET	871	n/a	n/a	0	0	0
85360	WORD	wordpools/wasnorm_wordpool_576.txt	LTP367	ltpFR2	21	1	TUBA	1515	n/a	n/a	0	0	0
88126	WORD	wordpools/wasnorm_wordpool_576.txt	LTP367	ltpFR2	21	1	ARM	38	n/a	n/a	0	0	0
90891	WORD	wordpools/wasnorm_wordpool_576.txt	LTP367	ltpFR2	21	1	BLOUSE	139	n/a	n/a	0	0	0
93690	WORD	wordpools/wasnorm_wordpool_576.txt	LTP367	ltpFR2	21	1	PREACHER	1119	n/a	n/a	0	0	0
96422	WORD	wordpools/wasnorm_wordpool_576.txt	LTP367	ltpFR2	21	1	PARSLEY	1016	n/a	n/a	0	0	0
99238	WORD	wordpools/wasnorm_wordpool_576.txt	LTP367	ltpFR2	21	1	CLAM	315	n/a	n/a	0	0	0
101786	WORD	wordpools/wasnorm_wordpool_576.txt	LTP367	ltpFR2	21	1	CORAL	378	n/a	n/a	0	0	0
104485	WORD	wordpools/wasnorm_wordpool_576.txt	LTP367	ltpFR2	21	1	MARROW	872	n/a	n/a	0	0	0
106917	WORD	wordpools/wasnorm_wordpool_576.txt	LTP367	ltpFR2	21	1	ARMY	39	n/a	n/a	0	0	0
109732	WORD	wordpools/wasnorm_wordpool_576.txt	LTP367	ltpFR2	21	1	DOLPHIN	483	n/a	n/a	0	0	0
112548	WORD	wordpools/wasnorm_wordpool_576.txt	LTP367	ltpFR2	21	1	ZEBRA	1635	n/a	n/a	0	0	0
115264	WORD	wordpools/wasnorm_wordpool_576.txt	LTP367	ltpFR2	21	1	SLIME	1327	n/a	n/a	0	0	0
117795	WORD	wordpools/wasnorm_wordpool_576.txt	LTP367	ltpFR2	21	1	POSSUM	1112	n/a	n/a	0	0	0
120245	WORD	wordpools/wasnorm_wordpool_576.txt	LTP367	ltpFR2	21	1	AWARD	63	n/a	n/a	0	0	0
122926	WORD	wordpools/wasnorm_wordpool_576.txt	LTP367	ltpFR2	21	1	ASIA	46	n/a	n/a	0	0	0
125375	WORD	wordpools/wasnorm_wordpool_576.txt	LTP367	ltpFR2	21	1	PLAYGROUND	1087	n/a	n/a	0	0	0
127990	WORD	wordpools/wasnorm_wordpool_576.txt	LTP367	ltpFR2	21	1	SLIDE	1326	n/a	n/a	0	0	0
130672	WORD	wordpools/wasnorm_wordpool_576.txt	LTP367	ltpFR2	21	1	CHIPMUNK	304	n/a	n/a	0	0	0
133139	WORD	wordpools/wasnorm_wordpool_576.txt	LTP367	ltpFR2	21	1	IGLOO	734	n/a	n/a	0	0	0
135703	WORD	wordpools/wasnorm_wordpool_576.txt	LTP367	ltpFR2	21	1	FRANCE	601	n/a	n/a	0	0	0
138419	WORD	wordpools/wasnorm_wordpool_576.txt	LTP367	ltpFR2	21	1	CROSS	413	n/a	n/a	0	0	0
140036	START	n/a	LTP367	ltpFR2	21	n/a	n/a	n/a	2	n/a	n/a	n/a	n/a
140965	DISTRACTOR	n/a	LTP367	ltpFR2	21	1	n/a	n/a	n/a	n/a	0	0	0
140968	PROB	n/a	LTP367	ltpFR2	21	n/a	n/a	n/a	2	14	1	4	9
142400	PROB	n/a	LTP367	ltpFR2	21	n/a	n/a	n/a	2	14	6	3	5
144516	PROB	n/a	LTP367	ltpFR2	21	n/a	n/a	n/a	2	13	7	5	1
146449	PROB	n/a	LTP367	ltpFR2	21	n/a	n/a	n/a	2	12	3	4	5
148265	PROB	n/a	LTP367	ltpFR2	21	n/a	n/a	n/a	2	15	8	3	4
150164	PROB	n/a	LTP367	ltpFR2	21	n/a	n/a	n/a	2	22	9	6	8
152014	PROB	n/a	LTP367	ltpFR2	21	n/a	n/a	n/a	2	16	2	5	9
153628	PROB	n/a	LTP367	ltpFR2	21	n/a	n/a	n/a	2	17	8	2	7
155045	PROB	n/a	LTP367	ltpFR2	21	n/a	n/a	n/a	2	13	3	6	4
156944	PROB	n/a	LTP367	ltpFR2	21	n/a	n/a	n/a	2	16	4	6	6
158044	PROB	n/a	LTP367	ltpFR2	21	n/a	n/a	n/a	2	20	7	7	6
160026	PROB	n/a	LTP367	ltpFR2	21	n/a	n/a	n/a	2	8	5	2	1
161109	PROB	n/a	LTP367	ltpFR2	21	n/a	n/a	n/a	2	13	1	3	9
162309	PROB	n/a	LTP367	ltpFR2	21	n/a	n/a	n/a	2	12	1	5	6
163459	STOP	n/a	LTP367	ltpFR2	21	n/a	n/a	n/a	2	n/a	n/a	n/a	n/a
165873	REC_START	n/a	LTP367	ltpFR2	21	1	n/a	n/a	n/a	n/a	0	0	0
166662	REC_WORD	wordpools/wasnorm_wordpool_576.txt	LTP367	ltpFR2	21	1	JEANS	752	n/a	n/a	0	0	0
167721	REC_WORD	wordpools/wasnorm_wordpool_576.txt	LTP367	ltpFR2	21	1	ZIPPER	1636	n/a	n/a	0	0	0
168678	REC_WORD	wordpools/wasnorm_wordpool_576.txt	LTP367	ltpFR2	21	1	MARKET	871	n/a	n/a	0	0	0
169649	REC_WORD	wordpools/wasnorm_wordpool_576.txt	LTP367	ltpFR2	21	1	TUBA	1515	n/a	n/a	0	0	0
170729	REC_WORD	wordpools/wasnorm_wordpool_576.txt	LTP367	ltpFR2	21	1	ARM	38	n/a	n/a	0	0	0
171670	REC_WORD	wordpools/wasnorm_wordpool_576.txt	LTP367	ltpFR2	21	1	BLOUSE	139	n/a	n/a	0	0	0
172845	REC_WORD	wordpools/wasnorm_wordpool_576.txt	LTP367	ltpFR2	21	1	PREACHER	1119	n/a	n/a	0	0	0
174020	REC_WORD	wordpools/wasnorm_wordpool_576.txt	LTP367	ltpFR2	21	1	CLAM	315	n/a	n/a	0	0	0
175204	REC_WORD	wordpools/wasnorm_wordpool_576.txt	LTP367	ltpFR2	21	1	PARSLEY	1016	n/a	n/a	0	0	0
176266	REC_WORD	wordpools/wasnorm_wordpool_576.txt	LTP367	ltpFR2	21	1	CORAL	378	n/a	n/a	0	0	0
177454	REC_WORD	wordpools/wasnorm_wordpool_576.txt	LTP367	ltpFR2	21	1	MARROW	872	n/a	n/a	0	0	0
178821	REC_WORD	wordpools/wasnorm_wordpool_576.txt	LTP367	ltpFR2	21	1	DOLPHIN	483	n/a	n/a	0	0	0
180097	REC_WORD	wordpools/wasnorm_wordpool_576.txt	LTP367	ltpFR2	21	1	ARMY	39	n/a	n/a	0	0	0
181200	REC_WORD	wordpools/wasnorm_wordpool_576.txt	LTP367	ltpFR2	21	1	ZEBRA	1635	n/a	n/a	0	0	0
182180	REC_WORD	wordpools/wasnorm_wordpool_576.txt	LTP367	ltpFR2	21	1	SLIME	1327	n/a	n/a	0	0	0
183377	REC_WORD	wordpools/wasnorm_wordpool_576.txt	LTP367	ltpFR2	21	1	POSSUM	1112	n/a	n/a	0	0	0
184544	REC_WORD	wordpools/wasnorm_wordpool_576.txt	LTP367	ltpFR2	21	1	AWARD	63	n/a	n/a	0	0	0
185713	REC_WORD	wordpools/wasnorm_wordpool_576.txt	LTP367	ltpFR2	21	1	ASIA	46	n/a	n/a	0	0	0
186968	REC_WORD	wordpools/wasnorm_wordpool_576.txt	LTP367	ltpFR2	21	1	PLAYGROUND	1087	n/a	n/a	0	0	0
188042	REC_WORD	wordpools/wasnorm_wordpool_576.txt	LTP367	ltpFR2	21	1	SLIDE	1326	n/a	n/a	0	0	0
189347	REC_WORD	wordpools/wasnorm_wordpool_576.txt	LTP367	ltpFR2	21	1	CHIPMUNK	304	n/a	n/a	0	0	0
190541	REC_WORD	wordpools/wasnorm_wordpool_576.txt	LTP367	ltpFR2	21	1	IGLOO	734	n/a	n/a	0	0	0
191610	REC_WORD	wordpools/wasnorm_wordpool_576.txt	LTP367	ltpFR2	21	1	FRANCE	601	n/a	n/a	0	0	0
202041	REC_WORD	wordpools/wasnorm_wordpool_576.txt	LTP367	ltpFR2	21	1	CROSS	413	n/a	n/a	0	0	0
256332	WORD	wordpools/wasnorm_wordpool_576.txt	LTP367	ltpFR2	21	2	COMPASS	358	n/a	n/a	0	0	0
259097	WORD	wordpools/wasnorm_wordpool_576.txt	LTP367	ltpFR2	21	2	ONION	977	n/a	n/a	0	0	0
261628	WORD	wordpools/wasnorm_wordpool_576.txt	LTP367	ltpFR2	21	2	TWISTER	1530	n/a	n/a	0	0	0
264228	WORD	wordpools/wasnorm_wordpool_576.txt	LTP367	ltpFR2	21	2	SPOUSE	1358	n/a	n/a	0	0	0
266676	WORD	wordpools/wasnorm_wordpool_576.txt	LTP367	ltpFR2	21	2	HUSBAND	728	n/a	n/a	0	0	0
269491	WORD	wordpools/wasnorm_wordpool_576.txt	LTP367	ltpFR2	21	2	SKILLET	1317	n/a	n/a	0	0	0
272191	WORD	wordpools/wasnorm_wordpool_576.txt	LTP367	ltpFR2	21	2	GUARD	667	n/a	n/a	0	0	0
274672	WORD	wordpools/wasnorm_wordpool_576.txt	LTP367	ltpFR2	21	2	WHISTLE	1606	n/a	n/a	0	0	0
277222	WORD	wordpools/wasnorm_wordpool_576.txt	LTP367	ltpFR2	21	2	CYCLONE	431	n/a	n/a	0	0	0
279887	WORD	wordpools/wasnorm_wordpool_576.txt	LTP367	ltpFR2	21	2	TYPIST	1532	n/a	n/a	0	0	0
282452	WORD	wordpools/wasnorm_wordpool_576.txt	LTP367	ltpFR2	21	2	MISTER	901	n/a	n/a	0	0	0
284901	WORD	wordpools/wasnorm_wordpool_576.txt	LTP367	ltpFR2	21	2	PERMIT	1051	n/a	n/a	0	0	0
287700	WORD	wordpools/wasnorm_wordpool_576.txt	LTP367	ltpFR2	21	2	CRUTCH	417	n/a	n/a	0	0	0
290432	WORD	wordpools/wasnorm_wordpool_576.txt	LTP367	ltpFR2	21	2	SHOULDER	1294	n/a	n/a	0	0	0
292980	WORD	wordpools/wasnorm_wordpool_576.txt	LTP367	ltpFR2	21	2	PERFUME	1049	n/a	n/a	0	0	0
295579	WORD	wordpools/wasnorm_wordpool_576.txt	LTP367	ltpFR2	21	2	NEUTRON	947	n/a	n/a	0	0	0
298162	WORD	wordpools/wasnorm_wordpool_576.txt	LTP367	ltpFR2	21	2	RELISH	1183	n/a	n/a	0	0	0
300710	WORD	wordpools/wasnorm_wordpool_576.txt	LTP367	ltpFR2	21	2	VIRUS	1572	n/a	n/a	0	0	0
303426	WORD	wordpools/wasnorm_wordpool_576.txt	LTP367	ltpFR2	21	2	ICEBERG	731	n/a	n/a	0	0	0
306225	WORD	wordpools/wasnorm_wordpool_576.txt	LTP367	ltpFR2	21	2	STAPLE	1371	n/a	n/a	0	0	0
308940	WORD	wordpools/wasnorm_wordpool_576.txt	LTP367	ltpFR2	21	2	CRIB	407	n/a	n/a	0	0	0
311389	WORD	wordpools/wasnorm_wordpool_576.txt	LTP367	ltpFR2	21	2	DIME	466	n/a	n/a	0	0	0
313854	WORD	wordpools/wasnorm_wordpool_576.txt	LTP367	ltpFR2	21	2	BUNNY	198	n/a	n/a	0	0	0
316486	WORD	wordpools/wasnorm_wordpool_576.txt	LTP367	ltpFR2	21	2	GANGSTER	620	n/a	n/a	0	0	0
318103	START	n/a	LTP367	ltpFR2	21	n/a	n/a	n/a	3	n/a	n/a	n/a	n/a
319055	DISTRACTOR	n/a	LTP367	ltpFR2	21	2	n/a	n/a	n/a	n/a	0	0	0
319069	PROB	n/a	LTP367	ltpFR2	21	n/a	n/a	n/a	3	18	6	4	8
322268	PROB	n/a	LTP367	ltpFR2	21	n/a	n/a	n/a	3	12	3	4	5
324899	PROB	n/a	LTP367	ltpFR2	21	n/a	n/a	n/a	3	19	8	3	8
326365	PROB	n/a	LTP367	ltpFR2	21	n/a	n/a	n/a	3	11	1	8	2
327364	PROB	n/a	LTP367	ltpFR2	21	n/a	n/a	n/a	3	10	3	5	2
329048	PROB	n/a	LTP367	ltpFR2	21	n/a	n/a	n/a	3	13	7	2	4
330248	PROB	n/a	LTP367	ltpFR2	21	n/a	n/a	n/a	3	17	7	3	7
331314	PROB	n/a	LTP367	ltpFR2	21	n/a	n/a	n/a	3	17	7	3	7
332529	PROB	n/a	LTP367	ltpFR2	21	n/a	n/a	n/a	3	13	3	9	1
333662	PROB	n/a	LTP367	ltpFR2	21	n/a	n/a	n/a	3	16	4	9	3
335012	PROB	n/a	LTP367	ltpFR2	21	n/a	n/a	n/a	3	16	1	9	6
336295	PROB	n/a	LTP367	ltpFR2	21	n/a	n/a	n/a	3	23	9	6	8
342103	STOP	n/a	LTP367	ltpFR2	21	n/a	n/a	n/a	3	n/a	n/a	n/a	n/a
343975	REC_START	n/a	LTP367	ltpFR2	21	2	n/a	n/a	n/a	n/a	0	0	0
347273	REC_WORD	wordpools/wasnorm_wordpool_576.txt	LTP367	ltpFR2	21	2	ONION	977	n/a	n/a	0	0	0
348109	REC_WORD	wordpools/wasnorm_wordpool_576.txt	LTP367	ltpFR2	21	2	SPOUSE	1358	n/a	n/a	0	0	0
349148	REC_WORD	wordpools/wasnorm_wordpool_576.txt	LTP367	ltpFR2	21	2	SKILLET	1317	n/a	n/a	0	0	0
350266	REC_WORD	wordpools/wasnorm_wordpool_576.txt	LTP367	ltpFR2	21	2	CYCLONE	431	n/a	n/a	0	0	0
351409	REC_WORD	wordpools/wasnorm_wordpool_576.txt	LTP367	ltpFR2	21	2	GUARD	667	n/a	n/a	0	0	0
352367	REC_WORD	wordpools/wasnorm_wordpool_576.txt	LTP367	ltpFR2	21	2	PERMIT	1051	n/a	n/a	0	0	0
354012	REC_WORD	wordpools/wasnorm_wordpool_576.txt	LTP367	ltpFR2	21	2	RELISH	1183	n/a	n/a	0	0	0
354910	REC_WORD	wordpools/wasnorm_wordpool_576.txt	LTP367	ltpFR2	21	2	STAPLE	1371	n/a	n/a	0	0	0
356167	REC_WORD	wordpools/wasnorm_wordpool_576.txt	LTP367	ltpFR2	21	2	ICEBERG	731	n/a	n/a	0	0	0
357323	REC_WORD	wordpools/wasnorm_wordpool_576.txt	LTP367	ltpFR2	21	2	BUNNY	198	n/a	n/a	0	0	0
358293	REC_WORD	wordpools/wasnorm_wordpool_576.txt	LTP367	ltpFR2	21	2	WHISTLE	1606	n/a	n/a	0	0	0
359349	REC_WORD	wordpools/wasnorm_wordpool_576.txt	LTP367	ltpFR2	21	2	GANGSTER	620	n/a	n/a	0	0	0
434432	DISTRACTOR	n/a	LTP367	ltpFR2	21	3	n/a	n/a	n/a	n/a	0	0	0
434432	START	n/a	LTP367	ltpFR2	21	n/a	n/a	n/a	4	n/a	n/a	n/a	n/a
434448	PROB	n/a	LTP367	ltpFR2	21	n/a	n/a	n/a	4	11	4	6	1
436930	PROB	n/a	LTP367	ltpFR2	21	n/a	n/a	n/a	4	24	9	6	9
439114	PROB	n/a	LTP367	ltpFR2	21	n/a	n/a	n/a	4	11	7	1	3
440263	PROB	n/a	LTP367	ltpFR2	21	n/a	n/a	n/a	4	19	9	9	1
441362	PROB	n/a	LTP367	ltpFR2	21	n/a	n/a	n/a	4	16	2	9	5
443062	PROB	n/a	LTP367	ltpFR2	21	n/a	n/a	n/a	4	11	3	5	3
444927	PROB	n/a	LTP367	ltpFR2	21	n/a	n/a	n/a	4	10	4	3	3
446359	PROB	n/a	LTP367	ltpFR2	21	n/a	n/a	n/a	4	16	8	7	1
447492	PROB	n/a	LTP367	ltpFR2	21	n/a	n/a	n/a	4	8	3	2	3
449491	PROB	n/a	LTP367	ltpFR2	21	n/a	n/a	n/a	4	6	1	4	1
450807	PROB	n/a	LTP367	ltpFR2	21	n/a	n/a	n/a	4	17	2	9	6
453124	PROB	n/a	LTP367	ltpFR2	21	n/a	n/a	n/a	4	19	6	8	5
455173	PROB	n/a	LTP367	ltpFR2	21	n/a	n/a	n/a	4	15	4	3	8
456421	PROB	n/a	LTP367	ltpFR2	21	n/a	n/a	n/a	4	15	3	6	6
457709	STOP	n/a	LTP367	ltpFR2	21	n/a	n/a	n/a	4	n/a	n/a	n/a	n/a
459387	WORD	wordpools/wasnorm_wordpool_576.txt	LTP367	ltpFR2	21	3	COWBOY	395	n/a	n/a	0	0	0
462186	WORD	wordpools/wasnorm_wordpool_576.txt	LTP367	ltpFR2	21	3	INMATE	738	n/a	n/a	0	0	0
464934	WORD	wordpools/wasnorm_wordpool_576.txt	LTP367	ltpFR2	21	3	LOVER	846	n/a	n/a	0	0	0
467699	WORD	wordpools/wasnorm_wordpool_576.txt	LTP367	ltpFR2	21	3	MILK	895	n/a	n/a	0	0	0
470149	WORD	wordpools/wasnorm_wordpool_576.txt	LTP367	ltpFR2	21	3	PEANUT	1032	n/a	n/a	0	0	0
472880	WORD	wordpools/wasnorm_wordpool_576.txt	LTP367	ltpFR2	21	3	PRIMATE	1123	n/a	n/a	0	0	0
475314	WORD	wordpools/wasnorm_wordpool_576.txt	LTP367	ltpFR2	21	3	CRITIC	410	n/a	n/a	0	0	0
477745	WORD	wordpools/wasnorm_wordpool_576.txt	LTP367	ltpFR2	21	3	BUBBLE	183	n/a	n/a	0	0	0
480295	WORD	wordpools/wasnorm_wordpool_576.txt	LTP367	ltpFR2	21	3	BEEF	113	n/a	n/a	0	0	0
482726	WORD	wordpools/wasnorm_wordpool_576.txt	LTP367	ltpFR2	21	3	BUTCHER	203	n/a	n/a	0	0	0
485259	WORD	wordpools/wasnorm_wordpool_576.txt	LTP367	ltpFR2	21	3	SOFTBALL	1343	n/a	n/a	0	0	0
487790	WORD	wordpools/wasnorm_wordpool_576.txt	LTP367	ltpFR2	21	3	RACKET	1155	n/a	n/a	0	0	0
490472	WORD	wordpools/wasnorm_wordpool_576.txt	LTP367	ltpFR2	21	3	BROOK	177	n/a	n/a	0	0	0
493255	WORD	wordpools/wasnorm_wordpool_576.txt	LTP367	ltpFR2	21	3	BOUQUET	157	n/a	n/a	0	0	0
495703	WORD	wordpools/wasnorm_wordpool_576.txt	LTP367	ltpFR2	21	3	RADISH	1158	n/a	n/a	0	0	0
498485	WORD	wordpools/wasnorm_wordpool_576.txt	LTP367	ltpFR2	21	3	ROBBER	1197	n/a	n/a	0	0	0
501118	WORD	wordpools/wasnorm_wordpool_576.txt	LTP367	ltpFR2	21	3	BANK	83	n/a	n/a	0	0	0
503916	WORD	wordpools/wasnorm_wordpool_576.txt	LTP367	ltpFR2	21	3	PORK	1108	n/a	n/a	0	0	0
506431	WORD	wordpools/wasnorm_wordpool_576.txt	LTP367	ltpFR2	21	3	CREATURE	403	n/a	n/a	0	0	0
508980	WORD	wordpools/wasnorm_wordpool_576.txt	LTP367	ltpFR2	21	3	POPCORN	1104	n/a	n/a	0	0	0
511629	WORD	wordpools/wasnorm_wordpool_576.txt	LTP367	ltpFR2	21	3	SUSPECT	1415	n/a	n/a	0	0	0
514312	WORD	wordpools/wasnorm_wordpool_576.txt	LTP367	ltpFR2	21	3	DONKEY	484	n/a	n/a	0	0	0
516777	WORD	wordpools/wasnorm_wordpool_576.txt	LTP367	ltpFR2	21	3	BOYFRIEND	162	n/a	n/a	0	0	0
519359	WORD	wordpools/wasnorm_wordpool_576.txt	LTP367	ltpFR2	21	3	DUSTPAN	509	n/a	n/a	0	0	0
520975	START	n/a	LTP367	ltpFR2	21	n/a	n/a	n/a	5	n/a	n/a	n/a	n/a
521862	DISTRACTOR	n/a	LTP367	ltpFR2	21	3	n/a	n/a	n/a	n/a	0	0	0
521874	PROB	n/a	LTP367	ltpFR2	21	n/a	n/a	n/a	5	18	9	7	2
524208	PROB	n/a	LTP367	ltpFR2	21	n/a	n/a	n/a	5	21	8	3	9
527555	PROB	n/a	LTP367	ltpFR2	21	n/a	n/a	n/a	5	17	5	3	9
529289	PROB	n/a	LTP367	ltpFR2	21	n/a	n/a	n/a	5	16	6	7	3
530670	PROB	n/a	LTP367	ltpFR2	21	n/a	n/a	n/a	5	15	2	9	4
531986	PROB	n/a	LTP367	ltpFR2	21	n/a	n/a	n/a	5	9	5	1	3
533337	PROB	n/a	LTP367	ltpFR2	21	n/a	n/a	n/a	5	12	6	5	1
534602	PROB	n/a	LTP367	ltpFR2	21	n/a	n/a	n/a	5	16	4	3	9
536052	PROB	n/a	LTP367	ltpFR2	21	n/a	n/a	n/a	5	12	7	3	2
538717	PROB	n/a	LTP367	ltpFR2	21	n/a	n/a	n/a	5	17	5	5	7
539866	PROB	n/a	LTP367	ltpFR2	21	n/a	n/a	n/a	5	15	3	5	7
541499	PROB	n/a	LTP367	ltpFR2	21	n/a	n/a	n/a	5	15	7	5	3
542798	PROB	n/a	LTP367	ltpFR2	21	n/a	n/a	n/a	5	14	6	1	7
543984	STOP	n/a	LTP367	ltpFR2	21	n/a	n/a	n/a	5	n/a	n/a	n/a	n/a
546847	REC_START	n/a	LTP367	ltpFR2	21	3	n/a	n/a	n/a	n/a	0	0	0
549991	REC_WORD	wordpools/wasnorm_wordpool_576.txt	LTP367	ltpFR2	21	3	CROP	-1	n/a	n/a	0	0	0
551129	REC_WORD	wordpools/wasnorm_wordpool_576.txt	LTP367	ltpFR2	21	3	DUSTPAN	509	n/a	n/a	0	0	0
554965	REC_WORD	wordpools/wasnorm_wordpool_576.txt	LTP367	ltpFR2	21	3	POLICE	1098	n/a	n/a	0	0	0
637322	WORD	wordpools/wasnorm_wordpool_576.txt	LTP367	ltpFR2	21	4	BIKE	125	n/a	n/a	0	0	0
639970	WORD	wordpools/wasnorm_wordpool_576.txt	LTP367	ltpFR2	21	4	VIKING	1565	n/a	n/a	0	0	0
642485	WORD	wordpools/wasnorm_wordpool_576.txt	LTP367	ltpFR2	21	4	TRUCK	1512	n/a	n/a	0	0	0
645201	WORD	wordpools/wasnorm_wordpool_576.txt	LTP367	ltpFR2	21	4	ATOM	55	n/a	n/a	0	0	0
647633	WORD	wordpools/wasnorm_wordpool_576.txt	LTP367	ltpFR2	21	4	PASSAGE	1019	n/a	n/a	0	0	0
650183	WORD	wordpools/wasnorm_wordpool_576.txt	LTP367	ltpFR2	21	4	YARN	1631	n/a	n/a	0	0	0
652964	WORD	wordpools/wasnorm_wordpool_576.txt	LTP367	ltpFR2	21	4	CROWN	415	n/a	n/a	0	0	0
655479	WORD	wordpools/wasnorm_wordpool_576.txt	LTP367	ltpFR2	21	4	CASKET	255	n/a	n/a	0	0	0
657995	WORD	wordpools/wasnorm_wordpool_576.txt	LTP367	ltpFR2	21	4	SNAIL	1332	n/a	n/a	0	0	0
660643	WORD	wordpools/wasnorm_wordpool_576.txt	LTP367	ltpFR2	21	4	TURTLE	1522	n/a	n/a	0	0	0
663143	WORD	wordpools/wasnorm_wordpool_576.txt	LTP367	ltpFR2	21	4	MACHINE	852	n/a	n/a	0	0	0
665858	WORD	wordpools/wasnorm_wordpool_576.txt	LTP367	ltpFR2	21	4	MARS	873	n/a	n/a	0	0	0
668656	WORD	wordpools/wasnorm_wordpool_576.txt	LTP367	ltpFR2	21	4	COURSE	390	n/a	n/a	0	0	0
671306	WORD	wordpools/wasnorm_wordpool_576.txt	LTP367	ltpFR2	21	4	WIFE	1609	n/a	n/a	0	0	0
673787	WORD	wordpools/wasnorm_wordpool_576.txt	LTP367	ltpFR2	21	4	HAND	683	n/a	n/a	0	0	0
676603	WORD	wordpools/wasnorm_wordpool_576.txt	LTP367	ltpFR2	21	4	STICKER	1382	n/a	n/a	0	0	0
679401	WORD	wordpools/wasnorm_wordpool_576.txt	LTP367	ltpFR2	21	4	GAVEL	627	n/a	n/a	0	0	0
681834	WORD	wordpools/wasnorm_wordpool_576.txt	LTP367	ltpFR2	21	4	PROTON	1132	n/a	n/a	0	0	0
684366	WORD	wordpools/wasnorm_wordpool_576.txt	LTP367	ltpFR2	21	4	WRIST	1626	n/a	n/a	0	0	0
686798	WORD	wordpools/wasnorm_wordpool_576.txt	LTP367	ltpFR2	21	4	MEAT	883	n/a	n/a	0	0	0
689497	WORD	wordpools/wasnorm_wordpool_576.txt	LTP367	ltpFR2	21	4	LADY	794	n/a	n/a	0	0	0
692163	WORD	wordpools/wasnorm_wordpool_576.txt	LTP367	ltpFR2	21	4	HUMAN	726	n/a	n/a	0	0	0
694628	WORD	wordpools/wasnorm_wordpool_576.txt	LTP367	ltpFR2	21	4	FOREST	593	n/a	n/a	0	0	0
697111	WORD	wordpools/wasnorm_wordpool_576.txt	LTP367	ltpFR2	21	4	MAPLE	866	n/a	n/a	0	0	0
698726	START	n/a	LTP367	ltpFR2	21	n/a	n/a	n/a	6	n/a	n/a	n/a	n/a
699720	DISTRACTOR	n/a	LTP367	ltpFR2	21	4	n/a	n/a	n/a	n/a	0	0	0
699725	PROB	n/a	LTP367	ltpFR2	21	n/a	n/a	n/a	6	13	1	7	5
702208	PROB	n/a	LTP367	ltpFR2	21	n/a	n/a	n/a	6	16	6	4	6
703390	PROB	n/a	LTP367	ltpFR2	21	n/a	n/a	n/a	6	12	5	6	1
704523	PROB	n/a	LTP367	ltpFR2	21	n/a	n/a	n/a	6	18	6	4	8
705622	PROB	n/a	LTP367	ltpFR2	21	n/a	n/a	n/a	6	17	6	5	6
707223	PROB	n/a	LTP367	ltpFR2	21	n/a	n/a	n/a	6	14	6	5	3
711038	PROB	n/a	LTP367	ltpFR2	21	n/a	n/a	n/a	6	16	5	8	3
712819	PROB	n/a	LTP367	ltpFR2	21	n/a	n/a	n/a	6	16	6	3	7
714219	PROB	n/a	LTP367	ltpFR2	21	n/a	n/a	n/a	6	15	4	6	5
715286	PROB	n/a	LTP367	ltpFR2	21	n/a	n/a	n/a	6	13	2	4	7
716617	PROB	n/a	LTP367	ltpFR2	21	n/a	n/a	n/a	6	16	6	6	4
717717	PROB	n/a	LTP367	ltpFR2	21	n/a	n/a	n/a	6	10	1	7	2
718833	PROB	n/a	LTP367	ltpFR2	21	n/a	n/a	n/a	6	18	7	4	7
720516	PROB	n/a	LTP367	ltpFR2	21	n/a	n/a	n/a	6	13	4	7	2
721869	STOP	n/a	LTP367	ltpFR2	21	n/a	n/a	n/a	6	n/a	n/a	n/a	n/a
724564	REC_START	n/a	LTP367	ltpFR2	21	4	n/a	n/a	n/a	n/a	0	0	0
725177	REC_WORD	wordpools/wasnorm_wordpool_576.txt	LTP367	ltpFR2	21	4	BIKE	125	n/a	n/a	0	0	0
815023	WORD	wordpools/wasnorm_wordpool_576.txt	LTP367	ltpFR2	21	5	BLOCKADE	137	n/a	n/a	0	0	0
817571	WORD	wordpools/wasnorm_wordpool_576.txt	LTP367	ltpFR2	21	5	THIEF	1456	n/a	n/a	0	0	0
820070	WORD	wordpools/wasnorm_wordpool_576.txt	LTP367	ltpFR2	21	5	BLADE	134	n/a	n/a	0	0	0
822618	WORD	wordpools/wasnorm_wordpool_576.txt	LTP367	ltpFR2	21	5	ATLAS	53	n/a	n/a	0	0	0
825085	WORD	wordpools/wasnorm_wordpool_576.txt	LTP367	ltpFR2	21	5	FRAME	600	n/a	n/a	0	0	0
827516	WORD	wordpools/wasnorm_wordpool_576.txt	LTP367	ltpFR2	21	5	GRIZZLY	662	n/a	n/a	0	0	0
830249	WORD	wordpools/wasnorm_wordpool_576.txt	LTP367	ltpFR2	21	5	BEAST	108	n/a	n/a	0	0	0
832814	WORD	wordpools/wasnorm_wordpool_576.txt	LTP367	ltpFR2	21	5	GROUND	666	n/a	n/a	0	0	0
835596	WORD	wordpools/wasnorm_wordpool_576.txt	LTP367	ltpFR2	21	5	DENIM	446	n/a	n/a	0	0	0
838129	WORD	wordpools/wasnorm_wordpool_576.txt	LTP367	ltpFR2	21	5	PASTRY	1022	n/a	n/a	0	0	0
840660	WORD	wordpools/wasnorm_wordpool_576.txt	LTP367	ltpFR2	21	5	ICING	732	n/a	n/a	0	0	0
843260	WORD	wordpools/wasnorm_wordpool_576.txt	LTP367	ltpFR2	21	5	RUG	1215	n/a	n/a	0	0	0
845691	WORD	wordpools/wasnorm_wordpool_576.txt	LTP367	ltpFR2	21	5	NURSE	963	n/a	n/a	0	0	0
848224	WORD	wordpools/wasnorm_wordpool_576.txt	LTP367	ltpFR2	21	5	CONVICT	371	n/a	n/a	0	0	0
850722	WORD	wordpools/wasnorm_wordpool_576.txt	LTP367	ltpFR2	21	5	BRANDY	169	n/a	n/a	0	0	0
853272	WORD	wordpools/wasnorm_wordpool_576.txt	LTP367	ltpFR2	21	5	PATIENT	1024	n/a	n/a	0	0	0
855953	WORD	wordpools/wasnorm_wordpool_576.txt	LTP367	ltpFR2	21	5	PAPER	1011	n/a	n/a	0	0	0
858552	WORD	wordpools/wasnorm_wordpool_576.txt	LTP367	ltpFR2	21	5	RAZOR	1171	n/a	n/a	0	0	0
861035	WORD	wordpools/wasnorm_wordpool_576.txt	LTP367	ltpFR2	21	5	SPOON	1357	n/a	n/a	0	0	0
863466	WORD	wordpools/wasnorm_wordpool_576.txt	LTP367	ltpFR2	21	5	DAISY	435	n/a	n/a	0	0	0
865982	WORD	wordpools/wasnorm_wordpool_576.txt	LTP367	ltpFR2	21	5	CAMEL	223	n/a	n/a	0	0	0
868780	WORD	wordpools/wasnorm_wordpool_576.txt	LTP367	ltpFR2	21	5	FIDDLE	561	n/a	n/a	0	0	0
871462	WORD	wordpools/wasnorm_wordpool_576.txt	LTP367	ltpFR2	21	5	PISTON	1076	n/a	n/a	0	0	0
874095	WORD	wordpools/wasnorm_wordpool_576.txt	LTP367	ltpFR2	21	5	BRIEFCASE	175	n/a	n/a	0	0	0
875710	START	n/a	LTP367	ltpFR2	21	n/a	n/a	n/a	7	n/a	n/a	n/a	n/a
876845	DISTRACTOR	n/a	LTP367	ltpFR2	21	5	n/a	n/a	n/a	n/a	0	0	0
876860	PROB	n/a	LTP367	ltpFR2	21	n/a	n/a	n/a	7	5	1	2	2
878044	PROB	n/a	LTP367	ltpFR2	21	n/a	n/a	n/a	7	20	9	7	4
880475	PROB	n/a	LTP367	ltpFR2	21	n/a	n/a	n/a	7	13	3	3	7
881608	PROB	n/a	LTP367	ltpFR2	21	n/a	n/a	n/a	7	17	8	5	4
883225	PROB	n/a	LTP367	ltpFR2	21	n/a	n/a	n/a	7	16	7	4	5
885090	PROB	n/a	LTP367	ltpFR2	21	n/a	n/a	n/a	7	10	5	1	4
886206	PROB	n/a	LTP367	ltpFR2	21	n/a	n/a	n/a	7	16	9	3	4
887488	PROB	n/a	LTP367	ltpFR2	21	n/a	n/a	n/a	7	15	5	6	4
888604	PROB	n/a	LTP367	ltpFR2	21	n/a	n/a	n/a	7	21	6	9	6
890437	PROB	n/a	LTP367	ltpFR2	21	n/a	n/a	n/a	7	16	2	6	8
892070	PROB	n/a	LTP367	ltpFR2	21	n/a	n/a	n/a	7	7	4	2	1
894103	PROB	n/a	LTP367	ltpFR2	21	n/a	n/a	n/a	7	4	2	1	1
895551	PROB	n/a	LTP367	ltpFR2	21	n/a	n/a	n/a	7	19	4	7	8
897550	PROB	n/a	LTP367	ltpFR2	21	n/a	n/a	n/a	7	15	2	5	8
898883	STOP	n/a	LTP367	ltpFR2	21	n/a	n/a	n/a	7	n/a	n/a	n/a	n/a
901582	REC_START	n/a	LTP367	ltpFR2	21	5	n/a	n/a	n/a	n/a	0	0	0
902945	REC_WORD	wordpools/wasnorm_wordpool_576.txt	LTP367	ltpFR2	21	5	PISTON	1076	n/a	n/a	0	0	0
904813	REC_WORD	wordpools/wasnorm_wordpool_576.txt	LTP367	ltpFR2	21	5	BRIEFCASE	175	n/a	n/a	0	0	0
992057	DISTRACTOR	n/a	LTP367	ltpFR2	21	6	n/a	n/a	n/a	n/a	0	0	0
992057	START	n/a	LTP367	ltpFR2	21	n/a	n/a	n/a	8	n/a	n/a	n/a	n/a
992074	PROB	n/a	LTP367	ltpFR2	21	n/a	n/a	n/a	8	17	5	6	6
994040	PROB	n/a	LTP367	ltpFR2	21	n/a	n/a	n/a	8	14	2	3	9
995438	PROB	n/a	LTP367	ltpFR2	21	n/a	n/a	n/a	8	13	5	5	3
997188	PROB	n/a	LTP367	ltpFR2	21	n/a	n/a	n/a	8	19	6	5	8
998770	PROB	n/a	LTP367	ltpFR2	21	n/a	n/a	n/a	8	18	6	4	8
999869	PROB	n/a	LTP367	ltpFR2	21	n/a	n/a	n/a	8	21	7	8	6
1002269	PROB	n/a	LTP367	ltpFR2	21	n/a	n/a	n/a	8	5	1	1	3
1003285	PROB	n/a	LTP367	ltpFR2	21	n/a	n/a	n/a	8	9	2	3	4
1005201	PROB	n/a	LTP367	ltpFR2	21	n/a	n/a	n/a	8	13	6	5	2
1006899	PROB	n/a	LTP367	ltpFR2	21	n/a	n/a	n/a	8	16	3	8	5
1008482	PROB	n/a	LTP367	ltpFR2	21	n/a	n/a	n/a	8	14	4	1	9
1009948	PROB	n/a	LTP367	ltpFR2	21	n/a	n/a	n/a	8	16	8	5	3
1011581	PROB	n/a	LTP367	ltpFR2	21	n/a	n/a	n/a	8	11	2	5	4
1013281	PROB	n/a	LTP367	ltpFR2	21	n/a	n/a	n/a	8	13	1	4	8
1014967	STOP	n/a	LTP367	ltpFR2	21	n/a	n/a	n/a	8	n/a	n/a	n/a	n/a
1016878	WORD	wordpools/wasnorm_wordpool_576.txt	LTP367	ltpFR2	21	6	PLAZA	1088	n/a	n/a	0	0	0
1019643	WORD	wordpools/wasnorm_wordpool_576.txt	LTP367	ltpFR2	21	6	PEDAL	1037	n/a	n/a	0	0	0
1022110	WORD	wordpools/wasnorm_wordpool_576.txt	LTP367	ltpFR2	21	6	TRENCH	1503	n/a	n/a	0	0	0
1024908	WORD	wordpools/wasnorm_wordpool_576.txt	LTP367	ltpFR2	21	6	TROMBONE	1508	n/a	n/a	0	0	0
1027606	WORD	wordpools/wasnorm_wordpool_576.txt	LTP367	ltpFR2	21	6	GARLIC	624	n/a	n/a	0	0	0
1030123	WORD	wordpools/wasnorm_wordpool_576.txt	LTP367	ltpFR2	21	6	PASTA	1021	n/a	n/a	0	0	0
1032804	WORD	wordpools/wasnorm_wordpool_576.txt	LTP367	ltpFR2	21	6	SALAD	1224	n/a	n/a	0	0	0
1035469	WORD	wordpools/wasnorm_wordpool_576.txt	LTP367	ltpFR2	21	6	STAKE	1368	n/a	n/a	0	0	0
1037902	WORD	wordpools/wasnorm_wordpool_576.txt	LTP367	ltpFR2	21	6	HONEY	713	n/a	n/a	0	0	0
1040517	WORD	wordpools/wasnorm_wordpool_576.txt	LTP367	ltpFR2	21	6	BLENDER	136	n/a	n/a	0	0	0
1043334	WORD	wordpools/wasnorm_wordpool_576.txt	LTP367	ltpFR2	21	6	FIREPLACE	570	n/a	n/a	0	0	0
1046066	WORD	wordpools/wasnorm_wordpool_576.txt	LTP367	ltpFR2	21	6	FLASHLIGHT	575	n/a	n/a	0	0	0
1048830	WORD	wordpools/wasnorm_wordpool_576.txt	LTP367	ltpFR2	21	6	CUPBOARD	425	n/a	n/a	0	0	0
1051330	WORD	wordpools/wasnorm_wordpool_576.txt	LTP367	ltpFR2	21	6	LUNCH	849	n/a	n/a	0	0	0
1053828	WORD	wordpools/wasnorm_wordpool_576.txt	LTP367	ltpFR2	21	6	COIN	343	n/a	n/a	0	0	0
1056660	WORD	wordpools/wasnorm_wordpool_576.txt	LTP367	ltpFR2	21	6	CABBAGE	210	n/a	n/a	0	0	0
1059110	WORD	wordpools/wasnorm_wordpool_576.txt	LTP367	ltpFR2	21	6	PENGUIN	1044	n/a	n/a	0	0	0
1061541	WORD	wordpools/wasnorm_wordpool_576.txt	LTP367	ltpFR2	21	6	JELLO	754	n/a	n/a	0	0	0
1064057	WORD	wordpools/wasnorm_wordpool_576.txt	LTP367	ltpFR2	21	6	SANDWICH	1232	n/a	n/a	0	0	0
1066638	WORD	wordpools/wasnorm_wordpool_576.txt	LTP367	ltpFR2	21	6	WORKER	1621	n/a	n/a	0	0	0
1069437	WORD	wordpools/wasnorm_wordpool_576.txt	LTP367	ltpFR2	21	6	DANCER	437	n/a	n/a	0	0	0
1072120	WORD	wordpools/wasnorm_wordpool_576.txt	LTP367	ltpFR2	21	6	RABBIT	1152	n/a	n/a	0	0	0
1074918	WORD	wordpools/wasnorm_wordpool_576.txt	LTP367	ltpFR2	21	6	CARROT	249	n/a	n/a	0	0	0
1077433	WORD	wordpools/wasnorm_wordpool_576.txt	LTP367	ltpFR2	21	6	TOURIST	1488	n/a	n/a	0	0	0
1079050	START	n/a	LTP367	ltpFR2	21	n/a	n/a	n/a	9	n/a	n/a	n/a	n/a
1079907	DISTRACTOR	n/a	LTP367	ltpFR2	21	6	n/a	n/a	n/a	n/a	0	0	0
1079916	PROB	n/a	LTP367	ltpFR2	21	n/a	n/a	n/a	9	13	1	8	4
1081748	PROB	n/a	LTP367	ltpFR2	21	n/a	n/a	n/a	9	17	9	2	6
1083414	PROB	n/a	LTP367	ltpFR2	21	n/a	n/a	n/a	9	9	4	4	1
1084680	PROB	n/a	LTP367	ltpFR2	21	n/a	n/a	n/a	9	13	5	5	3
1086030	PROB	n/a	LTP367	ltpFR2	21	n/a	n/a	n/a	9	17	6	7	4
1088279	PROB	n/a	LTP367	ltpFR2	21	n/a	n/a	n/a	9	9	1	5	3
1089594	PROB	n/a	LTP367	ltpFR2	21	n/a	n/a	n/a	9	16	6	2	8
1090827	PROB	n/a	LTP367	ltpFR2	21	n/a	n/a	n/a	9	15	5	5	5
1091960	PROB	n/a	LTP367	ltpFR2	21	n/a	n/a	n/a	9	25	8	8	9
1094077	PROB	n/a	LTP367	ltpFR2	21	n/a	n/a	n/a	9	15	2	7	6
1096424	PROB	n/a	LTP367	ltpFR2	21	n/a	n/a	n/a	9	12	9	2	1
1097924	PROB	n/a	LTP367	ltpFR2	21	n/a	n/a	n/a	9	21	4	8	9
1099823	PROB	n/a	LTP367	ltpFR2	21	n/a	n/a	n/a	9	24	8	8	8
1103050	STOP	n/a	LTP367	ltpFR2	21	n/a	n/a	n/a	9	n/a	n/a	n/a	n/a
1104921	REC_START	n/a	LTP367	ltpFR2	21	6	n/a	n/a	n/a	n/a	0	0	0
1105881	REC_WORD	wordpools/wasnorm_wordpool_576.txt	LTP367	ltpFR2	21	6	PLAZA	1088	n/a	n/a	0	0	0
1107449	REC_WORD	wordpools/wasnorm_wordpool_576.txt	LTP367	ltpFR2	21	6	TRENCH	1503	n/a	n/a	0	0	0
1108871	REC_WORD	wordpools/wasnorm_wordpool_576.txt	LTP367	ltpFR2	21	6	TROMBONE	1508	n/a	n/a	0	0	0
1195379	WORD	wordpools/wasnorm_wordpool_576.txt	LTP367	ltpFR2	21	7	EUROPE	541	n/a	n/a	0	0	0
1198012	WORD	wordpools/wasnorm_wordpool_576.txt	LTP367	ltpFR2	21	7	FLAG	573	n/a	n/a	0	0	0
1200809	WORD	wordpools/wasnorm_wordpool_576.txt	LTP367	ltpFR2	21	7	PARTNER	1017	n/a	n/a	0	0	0
1203243	WORD	wordpools/wasnorm_wordpool_576.txt	LTP367	ltpFR2	21	7	FRIEND	606	n/a	n/a	0	0	0
1205707	WORD	wordpools/wasnorm_wordpool_576.txt	LTP367	ltpFR2	21	7	RUST	1219	n/a	n/a	0	0	0
1208140	WORD	wordpools/wasnorm_wordpool_576.txt	LTP367	ltpFR2	21	7	LOFT	840	n/a	n/a	0	0	0
1210738	WORD	wordpools/wasnorm_wordpool_576.txt	LTP367	ltpFR2	21	7	UMPIRE	1535	n/a	n/a	0	0	0
1213370	WORD	wordpools/wasnorm_wordpool_576.txt	LTP367	ltpFR2	21	7	WRENCH	1625	n/a	n/a	0	0	0
1215919	WORD	wordpools/wasnorm_wordpool_576.txt	LTP367	ltpFR2	21	7	TABLE	1426	n/a	n/a	0	0	0
1218734	WORD	wordpools/wasnorm_wordpool_576.txt	LTP367	ltpFR2	21	7	CATCHER	258	n/a	n/a	0	0	0
1221251	WORD	wordpools/wasnorm_wordpool_576.txt	LTP367	ltpFR2	21	7	SPOOL	1356	n/a	n/a	0	0	0
1223815	WORD	wordpools/wasnorm_wordpool_576.txt	LTP367	ltpFR2	21	7	GLASS	639	n/a	n/a	0	0	0
1226564	WORD	wordpools/wasnorm_wordpool_576.txt	LTP367	ltpFR2	21	7	TABLET	1427	n/a	n/a	0	0	0
1229031	WORD	wordpools/wasnorm_wordpool_576.txt	LTP367	ltpFR2	21	7	SNAKE	1333	n/a	n/a	0	0	0
1231479	WORD	wordpools/wasnorm_wordpool_576.txt	LTP367	ltpFR2	21	7	PADDING	999	n/a	n/a	0	0	0
1234228	WORD	wordpools/wasnorm_wordpool_576.txt	LTP367	ltpFR2	21	7	WINDOW	1611	n/a	n/a	0	0	0
1236826	WORD	wordpools/wasnorm_wordpool_576.txt	LTP367	ltpFR2	21	7	HARP	689	n/a	n/a	0	0	0
1239475	WORD	wordpools/wasnorm_wordpool_576.txt	LTP367	ltpFR2	21	7	QUAIL	1147	n/a	n/a	0	0	0
1241924	WORD	wordpools/wasnorm_wordpool_576.txt	LTP367	ltpFR2	21	7	COTTAGE	384	n/a	n/a	0	0	0
1244556	WORD	wordpools/wasnorm_wordpool_576.txt	LTP367	ltpFR2	21	7	COUCH	386	n/a	n/a	0	0	0
1247255	WORD	wordpools/wasnorm_wordpool_576.txt	LTP367	ltpFR2	21	7	SHELTER	1282	n/a	n/a	0	0	0
1249770	WORD	wordpools/wasnorm_wordpool_576.txt	LTP367	ltpFR2	21	7	DORM	488	n/a	n/a	0	0	0
1252469	WORD	wordpools/wasnorm_wordpool_576.txt	LTP367	ltpFR2	21	7	SMOG	1330	n/a	n/a	0	0	0
1255185	WORD	wordpools/wasnorm_wordpool_576.txt	LTP367	ltpFR2	21	7	CLOCK	325	n/a	n/a	0	0	0
1256800	START	n/a	LTP367	ltpFR2	21	n/a	n/a	n/a	10	n/a	n/a	n/a	n/a
1257878	DISTRACTOR	n/a	LTP367	ltpFR2	21	7	n/a	n/a	n/a	n/a	0	0	0
1257883	PROB	n/a	LTP367	ltpFR2	21	n/a	n/a	n/a	10	19	5	7	7
1259749	PROB	n/a	LTP367	ltpFR2	21	n/a	n/a	n/a	10	23	7	7	9
1262115	PROB	n/a	LTP367	ltpFR2	21	n/a	n/a	n/a	10	21	6	6	9
1263380	PROB	n/a	LTP367	ltpFR2	21	n/a	n/a	n/a	10	8	3	2	3
1265579	PROB	n/a	LTP367	ltpFR2	21	n/a	n/a	n/a	10	14	2	6	6
1267230	PROB	n/a	LTP367	ltpFR2	21	n/a	n/a	n/a	10	16	5	3	8
1268895	PROB	n/a	LTP367	ltpFR2	21	n/a	n/a	n/a	10	14	1	3	8
1270311	PROB	n/a	LTP367	ltpFR2	21	n/a	n/a	n/a	10	9	1	6	2
1271527	PROB	n/a	LTP367	ltpFR2	21	n/a	n/a	n/a	10	21	5	7	9
1272776	PROB	n/a	LTP367	ltpFR2	21	n/a	n/a	n/a	10	14	2	8	4
1274992	PROB	n/a	LTP367	ltpFR2	21	n/a	n/a	n/a	10	16	7	7	2
1277007	PROB	n/a	LTP367	ltpFR2	21	n/a	n/a	n/a	10	18	5	9	4
1278807	PROB	n/a	LTP367	ltpFR2	21	n/a	n/a	n/a	10	8	2	5	1
1279919	STOP	n/a	LTP367	ltpFR2	21	n/a	n/a	n/a	10	n/a	n/a	n/a	n/a
1282555	REC_START	n/a	LTP367	ltpFR2	21	7	n/a	n/a	n/a	n/a	0	0	0
1282784	REC_WORD	wordpools/wasnorm_wordpool_576.txt	LTP367	ltpFR2	21	7	SHELTER	1282	n/a	n/a	0	0	0
1284036	REC_WORD	wordpools/wasnorm_wordpool_576.txt	LTP367	ltpFR2	21	7	DORM	488	n/a	n/a	0	0	0
1284907	REC_WORD	wordpools/wasnorm_wordpool_576.txt	LTP367	ltpFR2	21	7	SMOG	1330	n/a	n/a	0	0	0
1286212	REC_WORD	wordpools/wasnorm_wordpool_576.txt	LTP367	ltpFR2	21	7	CLOCK	325	n/a	n/a	0	0	0
1373014	WORD	wordpools/wasnorm_wordpool_576.txt	LTP367	ltpFR2	21	8	BACON	67	n/a	n/a	0	0	0
1375762	WORD	wordpools/wasnorm_wordpool_576.txt	LTP367	ltpFR2	21	8	COSTUME	383	n/a	n/a	0	0	0
1378560	WORD	wordpools/wasnorm_wordpool_576.txt	LTP367	ltpFR2	21	8	PIANO	1057	n/a	n/a	0	0	0
1381210	WORD	wordpools/wasnorm_wordpool_576.txt	LTP367	ltpFR2	21	8	DRUG	501	n/a	n/a	0	0	0
1383691	WORD	wordpools/wasnorm_wordpool_576.txt	LTP367	ltpFR2	21	8	TEMPLE	1448	n/a	n/a	0	0	0
1386324	WORD	wordpools/wasnorm_wordpool_576.txt	LTP367	ltpFR2	21	8	CRAB	397	n/a	n/a	0	0	0
1389023	WORD	wordpools/wasnorm_wordpool_576.txt	LTP367	ltpFR2	21	8	APPLE	33	n/a	n/a	0	0	0
1391538	WORD	wordpools/wasnorm_wordpool_576.txt	LTP367	ltpFR2	21	8	PECAN	1036	n/a	n/a	0	0	0
1394071	WORD	wordpools/wasnorm_wordpool_576.txt	LTP367	ltpFR2	21	8	COOKBOOK	373	n/a	n/a	0	0	0
1396852	WORD	wordpools/wasnorm_wordpool_576.txt	LTP367	ltpFR2	21	8	GOBLIN	645	n/a	n/a	0	0	0
1399484	WORD	wordpools/wasnorm_wordpool_576.txt	LTP367	ltpFR2	21	8	BRICK	172	n/a	n/a	0	0	0
1402234	WORD	wordpools/wasnorm_wordpool_576.txt	LTP367	ltpFR2	21	8	YACHT	1629	n/a	n/a	0	0	0
1404748	WORD	wordpools/wasnorm_wordpool_576.txt	LTP367	ltpFR2	21	8	SHRUB	1299	n/a	n/a	0	0	0
1407380	WORD	wordpools/wasnorm_wordpool_576.txt	LTP367	ltpFR2	21	8	LUMBER	848	n/a	n/a	0	0	0
1409829	WORD	wordpools/wasnorm_wordpool_576.txt	LTP367	ltpFR2	21	8	EGYPT	519	n/a	n/a	0	0	0
1412495	WORD	wordpools/wasnorm_wordpool_576.txt	LTP367	ltpFR2	21	8	SEAFOOD	1260	n/a	n/a	0	0	0
1414960	WORD	wordpools/wasnorm_wordpool_576.txt	LTP367	ltpFR2	21	8	FARMER	553	n/a	n/a	0	0	0
1417442	WORD	wordpools/wasnorm_wordpool_576.txt	LTP367	ltpFR2	21	8	STALLION	1369	n/a	n/a	0	0	0
1419941	WORD	wordpools/wasnorm_wordpool_576.txt	LTP367	ltpFR2	21	8	BUGGY	188	n/a	n/a	0	0	0
1422473	WORD	wordpools/wasnorm_wordpool_576.txt	LTP367	ltpFR2	21	8	CARRIAGE	248	n/a	n/a	0	0	0
1425040	WORD	wordpools/wasnorm_wordpool_576.txt	LTP367	ltpFR2	21	8	MATTRESS	879	n/a	n/a	0	0	0
1427504	WORD	wordpools/wasnorm_wordpool_576.txt	LTP367	ltpFR2	21	8	SHIRT	1287	n/a	n/a	0	0	0
1430137	WORD	wordpools/wasnorm_wordpool_576.txt	LTP367	ltpFR2	21	8	SCOTCH	1251	n/a	n/a	0	0	0
1432802	WORD	wordpools/wasnorm_wordpool_576.txt	LTP367	ltpFR2	21	8	IDOL	733	n/a	n/a	0	0	0
1434418	START	n/a	LTP367	ltpFR2	21	n/a	n/a	n/a	11	n/a	n/a	n/a	n/a
1435407	DISTRACTOR	n/a	LTP367	ltpFR2	21	8	n/a	n/a	n/a	n/a	0	0	0
1435417	PROB	n/a	LTP367	ltpFR2	21	n/a	n/a	n/a	11	23	7	9	7
1437433	PROB	n/a	LTP367	ltpFR2	21	n/a	n/a	n/a	11	8	4	2	2
1439615	PROB	n/a	LTP367	ltpFR2	21	n/a	n/a	n/a	11	20	6	6	8
1441498	PROB	n/a	LTP367	ltpFR2	21	n/a	n/a	n/a	11	10	2	6	2
1443131	PROB	n/a	LTP367	ltpFR2	21	n/a	n/a	n/a	11	23	7	9	7
1444763	PROB	n/a	LTP367	ltpFR2	21	n/a	n/a	n/a	11	25	9	9	7
1447096	PROB	n/a	LTP367	ltpFR2	21	n/a	n/a	n/a	11	17	5	7	5
1448411	PROB	n/a	LTP367	ltpFR2	21	n/a	n/a	n/a	11	20	2	9	9
1449861	PROB	n/a	LTP367	ltpFR2	21	n/a	n/a	n/a	11	14	3	3	8
1451161	PROB	n/a	LTP367	ltpFR2	21	n/a	n/a	n/a	11	16	4	6	6
1452110	PROB	n/a	LTP367	ltpFR2	21	n/a	n/a	n/a	11	13	2	3	8
1453725	PROB	n/a	LTP367	ltpFR2	21	n/a	n/a	n/a	11	20	6	9	5
1455159	PROB	n/a	LTP367	ltpFR2	21	n/a	n/a	n/a	11	10	1	2	7
1456209	PROB	n/a	LTP367	ltpFR2	21	n/a	n/a	n/a	11	16	4	7	5
1457717	STOP	n/a	LTP367	ltpFR2	21	n/a	n/a	n/a	11	n/a	n/a	n/a	n/a
1460341	REC_START	n/a	LTP367	ltpFR2	21	8	n/a	n/a	n/a	n/a	0	0	0
1460923	REC_WORD	wordpools/wasnorm_wordpool_576.txt	LTP367	ltpFR2	21	8	TEMPLE	1448	n/a	n/a	0	0	0
1536887	REST_REWET	n/a	LTP367	ltpFR2	21	8	n/a	n/a	n/a	n/a	0	0	0
1713189	DISTRACTOR	n/a	LTP367	ltpFR2	21	9	n/a	n/a	n/a	n/a	0	0	0
1713189	START	n/a	LTP367	ltpFR2	21	n/a	n/a	n/a	12	n/a	n/a	n/a	n/a
1713206	PROB	n/a	LTP367	ltpFR2	21	n/a	n/a	n/a	12	14	3	6	5
1715454	PROB	n/a	LTP367	ltpFR2	21	n/a	n/a	n/a	12	14	4	8	2
1716703	PROB	n/a	LTP367	ltpFR2	21	n/a	n/a	n/a	12	15	4	9	4
1718170	PROB	n/a	LTP367	ltpFR2	21	n/a	n/a	n/a	12	15	6	2	7
1722285	PROB	n/a	LTP367	ltpFR2	21	n/a	n/a	n/a	12	10	5	2	3
1723567	PROB	n/a	LTP367	ltpFR2	21	n/a	n/a	n/a	12	20	9	7	4
1724983	PROB	n/a	LTP367	ltpFR2	21	n/a	n/a	n/a	12	21	9	7	5
1726565	PROB	n/a	LTP367	ltpFR2	21	n/a	n/a	n/a	12	21	9	7	4
1728315	PROB	n/a	LTP367	ltpFR2	21	n/a	n/a	n/a	12	20	4	8	8
1730015	PROB	n/a	LTP367	ltpFR2	21	n/a	n/a	n/a	12	15	7	7	1
1731114	PROB	n/a	LTP367	ltpFR2	21	n/a	n/a	n/a	12	19	4	9	6
1732363	PROB	n/a	LTP367	ltpFR2	21	n/a	n/a	n/a	12	15	8	4	3
1733795	PROB	n/a	LTP367	ltpFR2	21	n/a	n/a	n/a	12	16	6	2	8
1735029	PROB	n/a	LTP367	ltpFR2	21	n/a	n/a	n/a	12	20	9	9	2
1736087	STOP	n/a	LTP367	ltpFR2	21	n/a	n/a	n/a	12	n/a	n/a	n/a	n/a
1738227	WORD	wordpools/wasnorm_wordpool_576.txt	LTP367	ltpFR2	21	9	PEBBLE	1035	n/a	n/a	0	0	0
1740842	WORD	wordpools/wasnorm_wordpool_576.txt	LTP367	ltpFR2	21	9	STONE	1385	n/a	n/a	0	0	0
1743391	WORD	wordpools/wasnorm_wordpool_576.txt	LTP367	ltpFR2	21	9	CRAYON	401	n/a	n/a	0	0	0
1745873	WORD	wordpools/wasnorm_wordpool_576.txt	LTP367	ltpFR2	21	9	SALT	1229	n/a	n/a	0	0	0
1748655	WORD	wordpools/wasnorm_wordpool_576.txt	LTP367	ltpFR2	21	9	BARLEY	88	n/a	n/a	0	0	0
1751387	WORD	wordpools/wasnorm_wordpool_576.txt	LTP367	ltpFR2	21	9	CLIMBER	323	n/a	n/a	0	0	0
1753919	WORD	wordpools/wasnorm_wordpool_576.txt	LTP367	ltpFR2	21	9	MUFFIN	929	n/a	n/a	0	0	0
1756401	WORD	wordpools/wasnorm_wordpool_576.txt	LTP367	ltpFR2	21	9	BABY	64	n/a	n/a	0	0	0
1758917	WORD	wordpools/wasnorm_wordpool_576.txt	LTP367	ltpFR2	21	9	TROUT	1511	n/a	n/a	0	0	0
1761432	WORD	wordpools/wasnorm_wordpool_576.txt	LTP367	ltpFR2	21	9	BELLY	119	n/a	n/a	0	0	0
1764049	WORD	wordpools/wasnorm_wordpool_576.txt	LTP367	ltpFR2	21	9	HOSTESS	723	n/a	n/a	0	0	0
1766797	WORD	wordpools/wasnorm_wordpool_576.txt	LTP367	ltpFR2	21	9	FLESH	579	n/a	n/a	0	0	0
1769263	WORD	wordpools/wasnorm_wordpool_576.txt	LTP367	ltpFR2	21	9	AIRPLANE	12	n/a	n/a	0	0	0
1772012	WORD	wordpools/wasnorm_wordpool_576.txt	LTP367	ltpFR2	21	9	POET	1095	n/a	n/a	0	0	0
1774743	WORD	wordpools/wasnorm_wordpool_576.txt	LTP367	ltpFR2	21	9	CHURCH	307	n/a	n/a	0	0	0
1777525	WORD	wordpools/wasnorm_wordpool_576.txt	LTP367	ltpFR2	21	9	PALACE	1006	n/a	n/a	0	0	0
1780258	WORD	wordpools/wasnorm_wordpool_576.txt	LTP367	ltpFR2	21	9	CABIN	211	n/a	n/a	0	0	0
1782689	WORD	wordpools/wasnorm_wordpool_576.txt	LTP367	ltpFR2	21	9	FRAGRANCE	599	n/a	n/a	0	0	0
1785405	WORD	wordpools/wasnorm_wordpool_576.txt	LTP367	ltpFR2	21	9	BROTHER	179	n/a	n/a	0	0	0
1788138	WORD	wordpools/wasnorm_wordpool_576.txt	LTP367	ltpFR2	21	9	TRANSPLANT	1496	n/a	n/a	0	0	0
1790835	WORD	wordpools/wasnorm_wordpool_576.txt	LTP367	ltpFR2	21	9	WAITRESS	1581	n/a	n/a	0	0	0
1793584	WORD	wordpools/wasnorm_wordpool_576.txt	LTP367	ltpFR2	21	9	GARDEN	623	n/a	n/a	0	0	0
1796034	WORD	wordpools/wasnorm_wordpool_576.txt	LTP367	ltpFR2	21	9	BATHTUB	100	n/a	n/a	0	0	0
1798548	WORD	wordpools/wasnorm_wordpool_576.txt	LTP367	ltpFR2	21	9	PARENT	1013	n/a	n/a	0	0	0
1800166	START	n/a	LTP367	ltpFR2	21	n/a	n/a	n/a	13	n/a	n/a	n/a	n/a
1801297	DISTRACTOR	n/a	LTP367	ltpFR2	21	9	n/a	n/a	n/a	n/a	0	0	0
1801315	PROB	n/a	LTP367	ltpFR2	21	n/a	n/a	n/a	13	8	1	5	2
1802896	PROB	n/a	LTP367	ltpFR2	21	n/a	n/a	n/a	13	26	9	9	8
1804779	PROB	n/a	LTP367	ltpFR2	21	n/a	n/a	n/a	13	20	9	5	6
1806179	PROB	n/a	LTP367	ltpFR2	21	n/a	n/a	n/a	13	23	8	6	9
1807811	PROB	n/a	LTP367	ltpFR2	21	n/a	n/a	n/a	13	21	9	6	6
1809493	PROB	n/a	LTP367	ltpFR2	21	n/a	n/a	n/a	13	18	2	8	8
1812859	PROB	n/a	LTP367	ltpFR2	21	n/a	n/a	n/a	13	14	9	2	3
1814358	PROB	n/a	LTP367	ltpFR2	21	n/a	n/a	n/a	13	1	7	2	3
1815907	PROB	n/a	LTP367	ltpFR2	21	n/a	n/a	n/a	13	14	8	5	1
1817490	PROB	n/a	LTP367	ltpFR2	21	n/a	n/a	n/a	13	23	5	9	9
1818906	PROB	n/a	LTP367	ltpFR2	21	n/a	n/a	n/a	13	24	6	9	9
1820572	PROB	n/a	LTP367	ltpFR2	21	n/a	n/a	n/a	13	13	4	7	2
1821971	PROB	n/a	LTP367	ltpFR2	21	n/a	n/a	n/a	13	18	8	9	1
1823921	STOP	n/a	LTP367	ltpFR2	21	n/a	n/a	n/a	13	n/a	n/a	n/a	n/a
1825920	REC_START	n/a	LTP367	ltpFR2	21	9	n/a	n/a	n/a	n/a	0	0	0
1826424	REC_WORD	wordpools/wasnorm_wordpool_576.txt	LTP367	ltpFR2	21	9	WAITRESS	1581	n/a	n/a	0	0	0
1827480	REC_WORD	wordpools/wasnorm_wordpool_576.txt	LTP367	ltpFR2	21	9	BELLY	119	n/a	n/a	0	0	0
1828375	REC_WORD	wordpools/wasnorm_wordpool_576.txt	LTP367	ltpFR2	21	9	FLESH	579	n/a	n/a	0	0	0
1916345	DISTRACTOR	n/a	LTP367	ltpFR2	21	10	n/a	n/a	n/a	n/a	0	0	0
1916345	START	n/a	LTP367	ltpFR2	21	n/a	n/a	n/a	14	n/a	n/a	n/a	n/a
1916360	PROB	n/a	LTP367	ltpFR2	21	n/a	n/a	n/a	14	12	2	2	8
1917527	PROB	n/a	LTP367	ltpFR2	21	n/a	n/a	n/a	14	10	7	1	2
1918843	PROB	n/a	LTP367	ltpFR2	21	n/a	n/a	n/a	14	17	6	7	4
1920758	PROB	n/a	LTP367	ltpFR2	21	n/a	n/a	n/a	14	9	2	6	1
1921958	PROB	n/a	LTP367	ltpFR2	21	n/a	n/a	n/a	14	13	1	8	4
1925006	PROB	n/a	LTP367	ltpFR2	21	n/a	n/a	n/a	14	13	2	2	9
1926522	PROB	n/a	LTP367	ltpFR2	21	n/a	n/a	n/a	14	19	9	5	5
1927722	PROB	n/a	LTP367	ltpFR2	21	n/a	n/a	n/a	14	8	1	6	1
1928871	PROB	n/a	LTP367	ltpFR2	21	n/a	n/a	n/a	14	23	8	6	9
1930704	PROB	n/a	LTP367	ltpFR2	21	n/a	n/a	n/a	14	13	1	6	6
1931970	PROB	n/a	LTP367	ltpFR2	21	n/a	n/a	n/a	14	15	7	6	2
1933836	PROB	n/a	LTP367	ltpFR2	21	n/a	n/a	n/a	14	19	3	8	8
1936052	PROB	n/a	LTP367	ltpFR2	21	n/a	n/a	n/a	14	19	7	7	5
1938101	PROB	n/a	LTP367	ltpFR2	21	n/a	n/a	n/a	14	14	7	1	6
1939445	STOP	n/a	LTP367	ltpFR2	21	n/a	n/a	n/a	14	n/a	n/a	n/a	n/a
1941365	WORD	wordpools/wasnorm_wordpool_576.txt	LTP367	ltpFR2	21	10	RATTLE	1170	n/a	n/a	0	0	0
1943948	WORD	wordpools/wasnorm_wordpool_576.txt	LTP367	ltpFR2	21	10	GLOBE	641	n/a	n/a	0	0	0
1946680	WORD	wordpools/wasnorm_wordpool_576.txt	LTP367	ltpFR2	21	10	SIBLING	1301	n/a	n/a	0	0	0
1949395	WORD	wordpools/wasnorm_wordpool_576.txt	LTP367	ltpFR2	21	10	PLAID	1080	n/a	n/a	0	0	0
1952028	WORD	wordpools/wasnorm_wordpool_576.txt	LTP367	ltpFR2	21	10	LAPEL	800	n/a	n/a	0	0	0
1954826	WORD	wordpools/wasnorm_wordpool_576.txt	LTP367	ltpFR2	21	10	CREVICE	405	n/a	n/a	0	0	0
1957441	WORD	wordpools/wasnorm_wordpool_576.txt	LTP367	ltpFR2	21	10	QUEEN	1149	n/a	n/a	0	0	0
1960041	WORD	wordpools/wasnorm_wordpool_576.txt	LTP367	ltpFR2	21	10	SHOVEL	1295	n/a	n/a	0	0	0
1962706	WORD	wordpools/wasnorm_wordpool_576.txt	LTP367	ltpFR2	21	10	GIRL	637	n/a	n/a	0	0	0
1965471	WORD	wordpools/wasnorm_wordpool_576.txt	LTP367	ltpFR2	21	10	RAFT	1159	n/a	n/a	0	0	0
1968154	WORD	wordpools/wasnorm_wordpool_576.txt	LTP367	ltpFR2	21	10	STREAM	1392	n/a	n/a	0	0	0
1970952	WORD	wordpools/wasnorm_wordpool_576.txt	LTP367	ltpFR2	21	10	STOMACH	1384	n/a	n/a	0	0	0
1973384	WORD	wordpools/wasnorm_wordpool_576.txt	LTP367	ltpFR2	21	10	XEROX	1628	n/a	n/a	0	0	0
1975816	WORD	wordpools/wasnorm_wordpool_576.txt	LTP367	ltpFR2	21	10	SERVANT	1271	n/a	n/a	0	0	0
1978365	WORD	wordpools/wasnorm_wordpool_576.txt	LTP367	ltpFR2	21	10	PUDDING	1139	n/a	n/a	0	0	0
1981081	WORD	wordpools/wasnorm_wordpool_576.txt	LTP367	ltpFR2	21	10	GYMNAST	675	n/a	n/a	0	0	0
1983812	WORD	wordpools/wasnorm_wordpool_576.txt	LTP367	ltpFR2	21	10	RIFLE	1192	n/a	n/a	0	0	0
1986528	WORD	wordpools/wasnorm_wordpool_576.txt	LTP367	ltpFR2	21	10	DRESSER	496	n/a	n/a	0	0	0
1989144	WORD	wordpools/wasnorm_wordpool_576.txt	LTP367	ltpFR2	21	10	APRON	35	n/a	n/a	0	0	0
1991709	WORD	wordpools/wasnorm_wordpool_576.txt	LTP367	ltpFR2	21	10	GHETTO	633	n/a	n/a	0	0	0
1994159	WORD	wordpools/wasnorm_wordpool_576.txt	LTP367	ltpFR2	21	10	BACKBONE	66	n/a	n/a	0	0	0
1996656	WORD	wordpools/wasnorm_wordpool_576.txt	LTP367	ltpFR2	21	10	FINGER	567	n/a	n/a	0	0	0
1999405	WORD	wordpools/wasnorm_wordpool_576.txt	LTP367	ltpFR2	21	10	JUGGLER	763	n/a	n/a	0	0	0
2002105	WORD	wordpools/wasnorm_wordpool_576.txt	LTP367	ltpFR2	21	10	LIVER	833	n/a	n/a	0	0	0
2003720	START	n/a	LTP367	ltpFR2	21	n/a	n/a	n/a	15	n/a	n/a	n/a	n/a
2004767	DISTRACTOR	n/a	LTP367	ltpFR2	21	10	n/a	n/a	n/a	n/a	0	0	0
2004769	PROB	n/a	LTP367	ltpFR2	21	n/a	n/a	n/a	15	11	2	1	8
2006419	PROB	n/a	LTP367	ltpFR2	21	n/a	n/a	n/a	15	12	3	8	1
2007851	PROB	n/a	LTP367	ltpFR2	21	n/a	n/a	n/a	15	12	6	1	5
2009252	PROB	n/a	LTP367	ltpFR2	21	n/a	n/a	n/a	15	27	9	9	9
2010717	PROB	n/a	LTP367	ltpFR2	21	n/a	n/a	n/a	15	9	3	4	2
2013016	PROB	n/a	LTP367	ltpFR2	21	n/a	n/a	n/a	15	19	8	4	7
2015864	PROB	n/a	LTP367	ltpFR2	21	n/a	n/a	n/a	15	18	7	9	2
2017580	PROB	n/a	LTP367	ltpFR2	21	n/a	n/a	n/a	15	13	1	3	9
2019097	PROB	n/a	LTP367	ltpFR2	21	n/a	n/a	n/a	15	14	3	6	5
2022029	PROB	n/a	LTP367	ltpFR2	21	n/a	n/a	n/a	15	21	3	9	9
2023727	PROB	n/a	LTP367	ltpFR2	21	n/a	n/a	n/a	15	19	5	9	5
2025410	PROB	n/a	LTP367	ltpFR2	21	n/a	n/a	n/a	15	12	5	2	5
2026783	STOP	n/a	LTP367	ltpFR2	21	n/a	n/a	n/a	15	n/a	n/a	n/a	n/a
2029508	REC_START	n/a	LTP367	ltpFR2	21	10	n/a	n/a	n/a	n/a	0	0	0
2034329	REC_WORD	wordpools/wasnorm_wordpool_576.txt	LTP367	ltpFR2	21	10	FINGER	567	n/a	n/a	0	0	0
2035268	REC_WORD	wordpools/wasnorm_wordpool_576.txt	LTP367	ltpFR2	21	10	BACKBONE	66	n/a	n/a	0	0	0
2036562	REC_WORD	wordpools/wasnorm_wordpool_576.txt	LTP367	ltpFR2	21	10	JUGGLER	763	n/a	n/a	0	0	0
2037808	REC_WORD	wordpools/wasnorm_wordpool_576.txt	LTP367	ltpFR2	21	10	LIVER	833	n/a	n/a	0	0	0
2040364	REC_WORD	wordpools/wasnorm_wordpool_576.txt	LTP367	ltpFR2	21	10	RATTLE	1170	n/a	n/a	0	0	0
2043251	REC_WORD	wordpools/wasnorm_wordpool_576.txt	LTP367	ltpFR2	21	10	GLOBE	641	n/a	n/a	0	0	0
2044592	REC_WORD	wordpools/wasnorm_wordpool_576.txt	LTP367	ltpFR2	21	10	SIBLING	1301	n/a	n/a	0	0	0
2046013	REC_WORD	wordpools/wasnorm_wordpool_576.txt	LTP367	ltpFR2	21	10	PLAID	1080	n/a	n/a	0	0	0
2048373	REC_WORD	wordpools/wasnorm_wordpool_576.txt	LTP367	ltpFR2	21	10	LAPEL	800	n/a	n/a	0	0	0
2119982	DISTRACTOR	n/a	LTP367	ltpFR2	21	11	n/a	n/a	n/a	n/a	0	0	0
2119983	START	n/a	LTP367	ltpFR2	21	n/a	n/a	n/a	16	n/a	n/a	n/a	n/a
2119999	PROB	n/a	LTP367	ltpFR2	21	n/a	n/a	n/a	16	23	8	6	9
2121998	PROB	n/a	LTP367	ltpFR2	21	n/a	n/a	n/a	16	17	1	8	8
2123581	PROB	n/a	LTP367	ltpFR2	21	n/a	n/a	n/a	16	11	3	1	7
2124847	PROB	n/a	LTP367	ltpFR2	21	n/a	n/a	n/a	16	8	4	2	2
2126197	PROB	n/a	LTP367	ltpFR2	21	n/a	n/a	n/a	16	12	9	1	2
2127696	PROB	n/a	LTP367	ltpFR2	21	n/a	n/a	n/a	16	21	3	9	9
2129113	PROB	n/a	LTP367	ltpFR2	21	n/a	n/a	n/a	16	18	6	5	7
2130511	PROB	n/a	LTP367	ltpFR2	21	n/a	n/a	n/a	16	15	7	7	1
2131810	PROB	n/a	LTP367	ltpFR2	21	n/a	n/a	n/a	16	18	9	1	8
2133161	PROB	n/a	LTP367	ltpFR2	21	n/a	n/a	n/a	16	9	6	1	2
2134294	PROB	n/a	LTP367	ltpFR2	21	n/a	n/a	n/a	16	10	6	1	3
2135575	PROB	n/a	LTP367	ltpFR2	21	n/a	n/a	n/a	16	13	5	4	4
2137724	PROB	n/a	LTP367	ltpFR2	21	n/a	n/a	n/a	16	15	1	9	5
2139757	PROB	n/a	LTP367	ltpFR2	21	n/a	n/a	n/a	16	13	3	1	9
2143983	STOP	n/a	LTP367	ltpFR2	21	n/a	n/a	n/a	16	n/a	n/a	n/a	n/a
2144804	WORD	wordpools/wasnorm_wordpool_576.txt	LTP367	ltpFR2	21	11	CLOUD	328	n/a	n/a	0	0	0
2147354	WORD	wordpools/wasnorm_wordpool_576.txt	LTP367	ltpFR2	21	11	CAPTIVE	240	n/a	n/a	0	0	0
2149819	WORD	wordpools/wasnorm_wordpool_576.txt	LTP367	ltpFR2	21	11	SUBWAY	1400	n/a	n/a	0	0	0
2152352	WORD	wordpools/wasnorm_wordpool_576.txt	LTP367	ltpFR2	21	11	STAR	1373	n/a	n/a	0	0	0
2154933	WORD	wordpools/wasnorm_wordpool_576.txt	LTP367	ltpFR2	21	11	OUTLAW	989	n/a	n/a	0	0	0
2157382	WORD	wordpools/wasnorm_wordpool_576.txt	LTP367	ltpFR2	21	11	BOX	159	n/a	n/a	0	0	0
2160031	WORD	wordpools/wasnorm_wordpool_576.txt	LTP367	ltpFR2	21	11	COLLEGE	346	n/a	n/a	0	0	0
2162763	WORD	wordpools/wasnorm_wordpool_576.txt	LTP367	ltpFR2	21	11	PACKAGE	997	n/a	n/a	0	0	0
2165329	WORD	wordpools/wasnorm_wordpool_576.txt	LTP367	ltpFR2	21	11	PIGMENT	1066	n/a	n/a	0	0	0
2168144	WORD	wordpools/wasnorm_wordpool_576.txt	LTP367	ltpFR2	21	11	OZONE	996	n/a	n/a	0	0	0
2170892	WORD	wordpools/wasnorm_wordpool_576.txt	LTP367	ltpFR2	21	11	MEDAL	885	n/a	n/a	0	0	0
2173624	WORD	wordpools/wasnorm_wordpool_576.txt	LTP367	ltpFR2	21	11	LAKE	796	n/a	n/a	0	0	0
2176157	WORD	wordpools/wasnorm_wordpool_576.txt	LTP367	ltpFR2	21	11	COD	340	n/a	n/a	0	0	0
2178672	WORD	wordpools/wasnorm_wordpool_576.txt	LTP367	ltpFR2	21	11	SHARK	1275	n/a	n/a	0	0	0
2181172	WORD	wordpools/wasnorm_wordpool_576.txt	LTP367	ltpFR2	21	11	SWAMP	1416	n/a	n/a	0	0	0
2183803	WORD	wordpools/wasnorm_wordpool_576.txt	LTP367	ltpFR2	21	11	TRACTOR	1493	n/a	n/a	0	0	0
2186618	WORD	wordpools/wasnorm_wordpool_576.txt	LTP367	ltpFR2	21	11	TOMBSTONE	1478	n/a	n/a	0	0	0
2189268	WORD	wordpools/wasnorm_wordpool_576.txt	LTP367	ltpFR2	21	11	CANAL	226	n/a	n/a	0	0	0
2191899	WORD	wordpools/wasnorm_wordpool_576.txt	LTP367	ltpFR2	21	11	DASHBOARD	441	n/a	n/a	0	0	0
2194415	WORD	wordpools/wasnorm_wordpool_576.txt	LTP367	ltpFR2	21	11	TAXI	1438	n/a	n/a	0	0	0
2197014	WORD	wordpools/wasnorm_wordpool_576.txt	LTP367	ltpFR2	21	11	BRAKE	166	n/a	n/a	0	0	0
2199462	WORD	wordpools/wasnorm_wordpool_576.txt	LTP367	ltpFR2	21	11	HAWK	692	n/a	n/a	0	0	0
2202229	WORD	wordpools/wasnorm_wordpool_576.txt	LTP367	ltpFR2	21	11	WAGON	1578	n/a	n/a	0	0	0
2204860	WORD	wordpools/wasnorm_wordpool_576.txt	LTP367	ltpFR2	21	11	ULCER	1533	n/a	n/a	0	0	0
2206476	START	n/a	LTP367	ltpFR2	21	n/a	n/a	n/a	17	n/a	n/a	n/a	n/a
2207660	DISTRACTOR	n/a	LTP367	ltpFR2	21	11	n/a	n/a	n/a	n/a	0	0	0
2207675	PROB	n/a	LTP367	ltpFR2	21	n/a	n/a	n/a	17	15	8	4	3
2209724	PROB	n/a	LTP367	ltpFR2	21	n/a	n/a	n/a	17	12	4	6	2
2211058	PROB	n/a	LTP367	ltpFR2	21	n/a	n/a	n/a	17	18	6	9	3
2212806	PROB	n/a	LTP367	ltpFR2	21	n/a	n/a	n/a	17	13	9	2	2
2214106	PROB	n/a	LTP367	ltpFR2	21	n/a	n/a	n/a	17	18	2	9	7
2215788	PROB	n/a	LTP367	ltpFR2	21	n/a	n/a	n/a	17	19	6	8	5
2217887	PROB	n/a	LTP367	ltpFR2	21	n/a	n/a	n/a	17	18	5	5	8
2219187	PROB	n/a	LTP367	ltpFR2	21	n/a	n/a	n/a	17	11	6	2	3
2220952	PROB	n/a	LTP367	ltpFR2	21	n/a	n/a	n/a	17	21	9	5	7
2222502	PROB	n/a	LTP367	ltpFR2	21	n/a	n/a	n/a	17	20	4	8	8
2224335	PROB	n/a	LTP367	ltpFR2	21	n/a	n/a	n/a	17	17	8	7	2
2226251	PROB	n/a	LTP367	ltpFR2	21	n/a	n/a	n/a	17	12	4	3	5
2227799	PROB	n/a	LTP367	ltpFR2	21	n/a	n/a	n/a	17	17	5	6	6
2229343	STOP	n/a	LTP367	ltpFR2	21	n/a	n/a	n/a	17	n/a	n/a	n/a	n/a
2232249	REC_START	n/a	LTP367	ltpFR2	21	11	n/a	n/a	n/a	n/a	0	0	0
2233258	REC_WORD	wordpools/wasnorm_wordpool_576.txt	LTP367	ltpFR2	21	11	COLLEGE	346	n/a	n/a	0	0	0
2233930	REC_WORD	wordpools/wasnorm_wordpool_576.txt	LTP367	ltpFR2	21	11	TAXI	1438	n/a	n/a	0	0	0
2234650	REC_WORD	wordpools/wasnorm_wordpool_576.txt	LTP367	ltpFR2	21	11	HAWK	692	n/a	n/a	0	0	0
2235430	REC_WORD	wordpools/wasnorm_wordpool_576.txt	LTP367	ltpFR2	21	11	LAKE	796	n/a	n/a	0	0	0
2236135	REC_WORD	wordpools/wasnorm_wordpool_576.txt	LTP367	ltpFR2	21	11	ULCER	1533	n/a	n/a	0	0	0
2245961	REC_WORD	wordpools/wasnorm_wordpool_576.txt	LTP367	ltpFR2	21	11	WAGON	1578	n/a	n/a	0	0	0
2252331	REC_WORD	wordpools/wasnorm_wordpool_576.txt	LTP367	ltpFR2	21	11	BOX	159	n/a	n/a	0	0	0
2322688	DISTRACTOR	n/a	LTP367	ltpFR2	21	12	n/a	n/a	n/a	n/a	0	0	0
2322689	START	n/a	LTP367	ltpFR2	21	n/a	n/a	n/a	18	n/a	n/a	n/a	n/a
2322705	PROB	n/a	LTP367	ltpFR2	21	n/a	n/a	n/a	18	15	1	9	5
2324437	PROB	n/a	LTP367	ltpFR2	21	n/a	n/a	n/a	18	15	3	3	9
2326121	PROB	n/a	LTP367	ltpFR2	21	n/a	n/a	n/a	18	12	5	3	4
2328153	PROB	n/a	LTP367	ltpFR2	21	n/a	n/a	n/a	18	5	3	1	1
2329086	PROB	n/a	LTP367	ltpFR2	21	n/a	n/a	n/a	18	17	1	7	9
2331069	PROB	n/a	LTP367	ltpFR2	21	n/a	n/a	n/a	18	16	7	7	2
2332434	PROB	n/a	LTP367	ltpFR2	21	n/a	n/a	n/a	18	20	9	2	9
2333800	PROB	n/a	LTP367	ltpFR2	21	n/a	n/a	n/a	18	11	2	6	3
2335632	PROB	n/a	LTP367	ltpFR2	21	n/a	n/a	n/a	18	16	7	4	5
2337431	PROB	n/a	LTP367	ltpFR2	21	n/a	n/a	n/a	18	17	7	2	8
2338714	PROB	n/a	LTP367	ltpFR2	21	n/a	n/a	n/a	18	13	2	3	8
2340115	PROB	n/a	LTP367	ltpFR2	21	n/a	n/a	n/a	18	20	2	9	9
2341413	PROB	n/a	LTP367	ltpFR2	21	n/a	n/a	n/a	18	10	6	2	2
2342729	PROB	n/a	LTP367	ltpFR2	21	n/a	n/a	n/a	18	9	2	4	3
2346689	STOP	n/a	LTP367	ltpFR2	21	n/a	n/a	n/a	18	n/a	n/a	n/a	n/a
2347810	WORD	wordpools/wasnorm_wordpool_576.txt	LTP367	ltpFR2	21	12	FLOWER	584	n/a	n/a	0	0	0
2350277	WORD	wordpools/wasnorm_wordpool_576.txt	LTP367	ltpFR2	21	12	POSTAGE	1113	n/a	n/a	0	0	0
2352741	WORD	wordpools/wasnorm_wordpool_576.txt	LTP367	ltpFR2	21	12	FRECKLE	602	n/a	n/a	0	0	0
2355523	WORD	wordpools/wasnorm_wordpool_576.txt	LTP367	ltpFR2	21	12	EYELASH	546	n/a	n/a	0	0	0
2357972	WORD	wordpools/wasnorm_wordpool_576.txt	LTP367	ltpFR2	21	12	PIMPLE	1071	n/a	n/a	0	0	0
2360404	WORD	wordpools/wasnorm_wordpool_576.txt	LTP367	ltpFR2	21	12	GRAVEL	659	n/a	n/a	0	0	0
2362886	WORD	wordpools/wasnorm_wordpool_576.txt	LTP367	ltpFR2	21	12	KNIFE	785	n/a	n/a	0	0	0
2365618	WORD	wordpools/wasnorm_wordpool_576.txt	LTP367	ltpFR2	21	12	VAGRANT	1544	n/a	n/a	0	0	0
2368235	WORD	wordpools/wasnorm_wordpool_576.txt	LTP367	ltpFR2	21	12	MILDEW	893	n/a	n/a	0	0	0
2370716	WORD	wordpools/wasnorm_wordpool_576.txt	LTP367	ltpFR2	21	12	AGENT	10	n/a	n/a	0	0	0
2373365	WORD	wordpools/wasnorm_wordpool_576.txt	LTP367	ltpFR2	21	12	SUNSET	1408	n/a	n/a	0	0	0
2375880	WORD	wordpools/wasnorm_wordpool_576.txt	LTP367	ltpFR2	21	12	SUNRISE	1407	n/a	n/a	0	0	0
2378546	WORD	wordpools/wasnorm_wordpool_576.txt	LTP367	ltpFR2	21	12	DRINK	498	n/a	n/a	0	0	0
2381112	WORD	wordpools/wasnorm_wordpool_576.txt	LTP367	ltpFR2	21	12	CASHIER	254	n/a	n/a	0	0	0
2383893	WORD	wordpools/wasnorm_wordpool_576.txt	LTP367	ltpFR2	21	12	JELLY	755	n/a	n/a	0	0	0
2386409	WORD	wordpools/wasnorm_wordpool_576.txt	LTP367	ltpFR2	21	12	GALLON	618	n/a	n/a	0	0	0
2389208	WORD	wordpools/wasnorm_wordpool_576.txt	LTP367	ltpFR2	21	12	CHEST	295	n/a	n/a	0	0	0
2391690	WORD	wordpools/wasnorm_wordpool_576.txt	LTP367	ltpFR2	21	12	DOUGHNUT	490	n/a	n/a	0	0	0
2394223	WORD	wordpools/wasnorm_wordpool_576.txt	LTP367	ltpFR2	21	12	CRICKET	408	n/a	n/a	0	0	0
2396671	WORD	wordpools/wasnorm_wordpool_576.txt	LTP367	ltpFR2	21	12	SWORD	1423	n/a	n/a	0	0	0
2399386	WORD	wordpools/wasnorm_wordpool_576.txt	LTP367	ltpFR2	21	12	CEILING	265	n/a	n/a	0	0	0
2402086	WORD	wordpools/wasnorm_wordpool_576.txt	LTP367	ltpFR2	21	12	SUMMIT	1405	n/a	n/a	0	0	0
2404867	WORD	wordpools/wasnorm_wordpool_576.txt	LTP367	ltpFR2	21	12	HIGHWAY	707	n/a	n/a	0	0	0
2407366	WORD	wordpools/wasnorm_wordpool_576.txt	LTP367	ltpFR2	21	12	THREAD	1460	n/a	n/a	0	0	0
2408982	START	n/a	LTP367	ltpFR2	21	n/a	n/a	n/a	19	n/a	n/a	n/a	n/a
2410078	DISTRACTOR	n/a	LTP367	ltpFR2	21	12	n/a	n/a	n/a	n/a	0	0	0
2410082	PROB	n/a	LTP367	ltpFR2	21	n/a	n/a	n/a	19	18	9	4	5
2411963	PROB	n/a	LTP367	ltpFR2	21	n/a	n/a	n/a	19	21	9	6	6
2413314	PROB	n/a	LTP367	ltpFR2	21	n/a	n/a	n/a	19	4	2	1	1
2414895	PROB	n/a	LTP367	ltpFR2	21	n/a	n/a	n/a	19	8	5	1	2
2416113	PROB	n/a	LTP367	ltpFR2	21	n/a	n/a	n/a	19	16	8	5	3
2418112	PROB	n/a	LTP367	ltpFR2	21	n/a	n/a	n/a	19	18	8	3	7
2419527	PROB	n/a	LTP367	ltpFR2	21	n/a	n/a	n/a	19	14	1	8	5
2420959	PROB	n/a	LTP367	ltpFR2	21	n/a	n/a	n/a	19	16	2	6	6
2424259	PROB	n/a	LTP367	ltpFR2	21	n/a	n/a	n/a	19	16	6	7	3
2425624	PROB	n/a	LTP367	ltpFR2	21	n/a	n/a	n/a	19	17	7	2	8
2427141	PROB	n/a	LTP367	ltpFR2	21	n/a	n/a	n/a	19	18	4	5	9
2429539	PROB	n/a	LTP367	ltpFR2	21	n/a	n/a	n/a	19	14	2	6	6
2431039	PROB	n/a	LTP367	ltpFR2	21	n/a	n/a	n/a	19	13	1	5	7
2432460	STOP	n/a	LTP367	ltpFR2	21	n/a	n/a	n/a	19	n/a	n/a	n/a	n/a
2434770	REC_START	n/a	LTP367	ltpFR2	21	12	n/a	n/a	n/a	n/a	0	0	0
2436382	REC_WORD	wordpools/wasnorm_wordpool_576.txt	LTP367	ltpFR2	21	12	PIMPLE	1071	n/a	n/a	0	0	0
2437141	REC_WORD	wordpools/wasnorm_wordpool_576.txt	LTP367	ltpFR2	21	12	FRECKLE	602	n/a	n/a	0	0	0
2438274	REC_WORD	wordpools/wasnorm_wordpool_576.txt	LTP367	ltpFR2	21	12	VAGRANT	1544	n/a	n/a	0	0	0
2439322	REC_WORD	wordpools/wasnorm_wordpool_576.txt	LTP367	ltpFR2	21	12	KNIFE	785	n/a	n/a	0	0	0
2440245	REC_WORD	wordpools/wasnorm_wordpool_576.txt	LTP367	ltpFR2	21	12	POSTAGE	1113	n/a	n/a	0	0	0
2441386	REC_WORD	wordpools/wasnorm_wordpool_576.txt	LTP367	ltpFR2	21	12	GRAVEL	659	n/a	n/a	0	0	0
2443787	REC_WORD	wordpools/wasnorm_wordpool_576.txt	LTP367	ltpFR2	21	12	AGENT	10	n/a	n/a	0	0	0
2447045	REC_WORD	wordpools/wasnorm_wordpool_576.txt	LTP367	ltpFR2	21	12	DRINK	498	n/a	n/a	0	0	0
2447746	REC_WORD	wordpools/wasnorm_wordpool_576.txt	LTP367	ltpFR2	21	12	CASHIER	254	n/a	n/a	0	0	0
2448650	REC_WORD	wordpools/wasnorm_wordpool_576.txt	LTP367	ltpFR2	21	12	JELLY	755	n/a	n/a	0	0	0
2449366	REC_WORD	wordpools/wasnorm_wordpool_576.txt	LTP367	ltpFR2	21	12	CHEST	295	n/a	n/a	0	0	0
2450224	REC_WORD	wordpools/wasnorm_wordpool_576.txt	LTP367	ltpFR2	21	12	DOUGHNUT	490	n/a	n/a	0	0	0
2451021	REC_WORD	wordpools/wasnorm_wordpool_576.txt	LTP367	ltpFR2	21	12	CRICKET	408	n/a	n/a	0	0	0
2451893	REC_WORD	wordpools/wasnorm_wordpool_576.txt	LTP367	ltpFR2	21	12	SWORD	1423	n/a	n/a	0	0	0
2452626	REC_WORD	wordpools/wasnorm_wordpool_576.txt	LTP367	ltpFR2	21	12	CEILING	265	n/a	n/a	0	0	0
2453489	REC_WORD	wordpools/wasnorm_wordpool_576.txt	LTP367	ltpFR2	21	12	SUMMIT	1405	n/a	n/a	0	0	0
2454360	REC_WORD	wordpools/wasnorm_wordpool_576.txt	LTP367	ltpFR2	21	12	HIGHWAY	707	n/a	n/a	0	0	0
2456986	REC_WORD	wordpools/wasnorm_wordpool_576.txt	LTP367	ltpFR2	21	12	THREAD	1460	n/a	n/a	0	0	0
2460880	REC_WORD	wordpools/wasnorm_wordpool_576.txt	LTP367	ltpFR2	21	12	SUNRISE	1407	n/a	n/a	0	0	0
2461596	REC_WORD	wordpools/wasnorm_wordpool_576.txt	LTP367	ltpFR2	21	12	SUNSET	1408	n/a	n/a	0	0	0
2525212	DISTRACTOR	n/a	LTP367	ltpFR2	21	13	n/a	n/a	n/a	n/a	0	0	0
2525212	START	n/a	LTP367	ltpFR2	21	n/a	n/a	n/a	20	n/a	n/a	n/a	n/a
2525229	PROB	n/a	LTP367	ltpFR2	21	n/a	n/a	n/a	20	14	3	4	7
2527144	PROB	n/a	LTP367	ltpFR2	21	n/a	n/a	n/a	20	12	6	1	5
2528409	PROB	n/a	LTP367	ltpFR2	21	n/a	n/a	n/a	20	16	4	7	5
2530293	PROB	n/a	LTP367	ltpFR2	21	n/a	n/a	n/a	20	14	5	4	5
2531641	PROB	n/a	LTP367	ltpFR2	21	n/a	n/a	n/a	20	19	4	9	6
2532974	PROB	n/a	LTP367	ltpFR2	21	n/a	n/a	n/a	20	17	9	5	3
2535423	PROB	n/a	LTP367	ltpFR2	21	n/a	n/a	n/a	20	15	7	4	4
2537405	PROB	n/a	LTP367	ltpFR2	21	n/a	n/a	n/a	20	15	1	5	9
2539089	PROB	n/a	LTP367	ltpFR2	21	n/a	n/a	n/a	20	20	8	8	4
2541720	PROB	n/a	LTP367	ltpFR2	21	n/a	n/a	n/a	20	14	5	4	5
2542969	PROB	n/a	LTP367	ltpFR2	21	n/a	n/a	n/a	20	15	2	7	6
2544752	PROB	n/a	LTP367	ltpFR2	21	n/a	n/a	n/a	20	13	3	4	6
2546335	PROB	n/a	LTP367	ltpFR2	21	n/a	n/a	n/a	20	11	1	9	1
2549212	STOP	n/a	LTP367	ltpFR2	21	n/a	n/a	n/a	20	n/a	n/a	n/a	n/a
2550117	WORD	wordpools/wasnorm_wordpool_576.txt	LTP367	ltpFR2	21	13	MESSAGE	888	n/a	n/a	0	0	0
2552682	WORD	wordpools/wasnorm_wordpool_576.txt	LTP367	ltpFR2	21	13	SEAL	1262	n/a	n/a	0	0	0
2555181	WORD	wordpools/wasnorm_wordpool_576.txt	LTP367	ltpFR2	21	13	MISSILE	900	n/a	n/a	0	0	0
2557629	WORD	wordpools/wasnorm_wordpool_576.txt	LTP367	ltpFR2	21	13	BUG	187	n/a	n/a	0	0	0
2560062	WORD	wordpools/wasnorm_wordpool_576.txt	LTP367	ltpFR2	21	13	LAGOON	795	n/a	n/a	0	0	0
2562644	WORD	wordpools/wasnorm_wordpool_576.txt	LTP367	ltpFR2	21	13	LONDON	843	n/a	n/a	0	0	0
2565260	WORD	wordpools/wasnorm_wordpool_576.txt	LTP367	ltpFR2	21	13	LABEL	790	n/a	n/a	0	0	0
2568008	WORD	wordpools/wasnorm_wordpool_576.txt	LTP367	ltpFR2	21	13	NECKLACE	940	n/a	n/a	0	0	0
2570473	WORD	wordpools/wasnorm_wordpool_576.txt	LTP367	ltpFR2	21	13	TERMITE	1451	n/a	n/a	0	0	0
2573140	WORD	wordpools/wasnorm_wordpool_576.txt	LTP367	ltpFR2	21	13	DRESS	495	n/a	n/a	0	0	0
2575604	WORD	wordpools/wasnorm_wordpool_576.txt	LTP367	ltpFR2	21	13	NAPKIN	937	n/a	n/a	0	0	0
2578204	WORD	wordpools/wasnorm_wordpool_576.txt	LTP367	ltpFR2	21	13	BINDER	127	n/a	n/a	0	0	0
2580968	WORD	wordpools/wasnorm_wordpool_576.txt	LTP367	ltpFR2	21	13	PUPPY	1144	n/a	n/a	0	0	0
2583534	WORD	wordpools/wasnorm_wordpool_576.txt	LTP367	ltpFR2	21	13	DIVER	476	n/a	n/a	0	0	0
2586300	WORD	wordpools/wasnorm_wordpool_576.txt	LTP367	ltpFR2	21	13	ISLAND	745	n/a	n/a	0	0	0
2588731	WORD	wordpools/wasnorm_wordpool_576.txt	LTP367	ltpFR2	21	13	DRILL	497	n/a	n/a	0	0	0
2591397	WORD	wordpools/wasnorm_wordpool_576.txt	LTP367	ltpFR2	21	13	ORCHID	982	n/a	n/a	0	0	0
2593912	WORD	wordpools/wasnorm_wordpool_576.txt	LTP367	ltpFR2	21	13	ROBOT	1200	n/a	n/a	0	0	0
2596411	WORD	wordpools/wasnorm_wordpool_576.txt	LTP367	ltpFR2	21	13	FOX	598	n/a	n/a	0	0	0
2598877	WORD	wordpools/wasnorm_wordpool_576.txt	LTP367	ltpFR2	21	13	LACE	792	n/a	n/a	0	0	0
2601476	WORD	wordpools/wasnorm_wordpool_576.txt	LTP367	ltpFR2	21	13	COUNTY	389	n/a	n/a	0	0	0
2604059	WORD	wordpools/wasnorm_wordpool_576.txt	LTP367	ltpFR2	21	13	PAIL	1002	n/a	n/a	0	0	0
2606740	WORD	wordpools/wasnorm_wordpool_576.txt	LTP367	ltpFR2	21	13	SPONGE	1355	n/a	n/a	0	0	0
2609455	WORD	wordpools/wasnorm_wordpool_576.txt	LTP367	ltpFR2	21	13	DANDRUFF	439	n/a	n/a	0	0	0
2611072	START	n/a	LTP367	ltpFR2	21	n/a	n/a	n/a	21	n/a	n/a	n/a	n/a
2612027	DISTRACTOR	n/a	LTP367	ltpFR2	21	13	n/a	n/a	n/a	n/a	0	0	0
2612038	PROB	n/a	LTP367	ltpFR2	21	n/a	n/a	n/a	21	19	5	7	7
2614221	PROB	n/a	LTP367	ltpFR2	21	n/a	n/a	n/a	21	16	5	3	8
2615985	PROB	n/a	LTP367	ltpFR2	21	n/a	n/a	n/a	21	9	2	6	1
2617635	PROB	n/a	LTP367	ltpFR2	21	n/a	n/a	n/a	21	9	4	1	4
2618967	PROB	n/a	LTP367	ltpFR2	21	n/a	n/a	n/a	21	15	4	9	2
2620500	PROB	n/a	LTP367	ltpFR2	21	n/a	n/a	n/a	21	18	8	2	8
2621733	PROB	n/a	LTP367	ltpFR2	21	n/a	n/a	n/a	21	25	8	9	8
2623698	PROB	n/a	LTP367	ltpFR2	21	n/a	n/a	n/a	21	24	9	8	7
2626198	PROB	n/a	LTP367	ltpFR2	21	n/a	n/a	n/a	21	12	4	6	2
2627298	PROB	n/a	LTP367	ltpFR2	21	n/a	n/a	n/a	21	23	9	7	7
2629147	PROB	n/a	LTP367	ltpFR2	21	n/a	n/a	n/a	21	8	1	4	3
2630962	PROB	n/a	LTP367	ltpFR2	21	n/a	n/a	n/a	21	18	8	1	9
2632478	PROB	n/a	LTP367	ltpFR2	21	n/a	n/a	n/a	21	13	1	8	4
2634124	STOP	n/a	LTP367	ltpFR2	21	n/a	n/a	n/a	21	n/a	n/a	n/a	n/a
2636976	REC_START	n/a	LTP367	ltpFR2	21	13	n/a	n/a	n/a	n/a	0	0	0
2640571	REC_WORD	wordpools/wasnorm_wordpool_576.txt	LTP367	ltpFR2	21	13	MESSAGE	888	n/a	n/a	0	0	0
2641528	REC_WORD	wordpools/wasnorm_wordpool_576.txt	LTP367	ltpFR2	21	13	SEAL	1262	n/a	n/a	0	0	0
2642468	REC_WORD	wordpools/wasnorm_wordpool_576.txt	LTP367	ltpFR2	21	13	MISSILE	900	n/a	n/a	0	0	0
2643463	REC_WORD	wordpools/wasnorm_wordpool_576.txt	LTP367	ltpFR2	21	13	BUG	187	n/a	n/a	0	0	0
2644250	REC_WORD	wordpools/wasnorm_wordpool_576.txt	LTP367	ltpFR2	21	13	LAGOON	795	n/a	n/a	0	0	0
2645281	REC_WORD	wordpools/wasnorm_wordpool_576.txt	LTP367	ltpFR2	21	13	TERMITE	1451	n/a	n/a	0	0	0
2646140	REC_WORD	wordpools/wasnorm_wordpool_576.txt	LTP367	ltpFR2	21	13	LONDON	843	n/a	n/a	0	0	0
2648326	REC_WORD	wordpools/wasnorm_wordpool_576.txt	LTP367	ltpFR2	21	13	LABEL	790	n/a	n/a	0	0	0
2649227	REC_WORD	wordpools/wasnorm_wordpool_576.txt	LTP367	ltpFR2	21	13	NECKLACE	940	n/a	n/a	0	0	0
2650500	REC_WORD	wordpools/wasnorm_wordpool_576.txt	LTP367	ltpFR2	21	13	BINDER	127	n/a	n/a	0	0	0
2651699	REC_WORD	wordpools/wasnorm_wordpool_576.txt	LTP367	ltpFR2	21	13	PUPPY	1144	n/a	n/a	0	0	0
2652722	REC_WORD	wordpools/wasnorm_wordpool_576.txt	LTP367	ltpFR2	21	13	DIVER	476	n/a	n/a	0	0	0
2653719	REC_WORD	wordpools/wasnorm_wordpool_576.txt	LTP367	ltpFR2	21	13	ISLAND	745	n/a	n/a	0	0	0
2654875	REC_WORD	wordpools/wasnorm_wordpool_576.txt	LTP367	ltpFR2	21	13	DRILL	497	n/a	n/a	0	0	0
2655999	REC_WORD	wordpools/wasnorm_wordpool_576.txt	LTP367	ltpFR2	21	13	ORCHID	982	n/a	n/a	0	0	0
2659650	REC_WORD	wordpools/wasnorm_wordpool_576.txt	LTP367	ltpFR2	21	13	ROBOT	1200	n/a	n/a	0	0	0
2662547	REC_WORD	wordpools/wasnorm_wordpool_576.txt	LTP367	ltpFR2	21	13	COUNTRY	388	n/a	n/a	0	0	0
2663659	REC_WORD	wordpools/wasnorm_wordpool_576.txt	LTP367	ltpFR2	21	13	PAIL	1002	n/a	n/a	0	0	0
2664493	REC_WORD	wordpools/wasnorm_wordpool_576.txt	LTP367	ltpFR2	21	13	SPONGE	1355	n/a	n/a	0	0	0
2667789	REC_WORD	wordpools/wasnorm_wordpool_576.txt	LTP367	ltpFR2	21	13	LACE	792	n/a	n/a	0	0	0
2671568	REC_WORD	wordpools/wasnorm_wordpool_576.txt	LTP367	ltpFR2	21	13	DANDRUFF	439	n/a	n/a	0	0	0
2727434	DISTRACTOR	n/a	LTP367	ltpFR2	21	14	n/a	n/a	n/a	n/a	0	0	0
2727434	START	n/a	LTP367	ltpFR2	21	n/a	n/a	n/a	22	n/a	n/a	n/a	n/a
2727450	PROB	n/a	LTP367	ltpFR2	21	n/a	n/a	n/a	22	19	2	9	8
2729334	PROB	n/a	LTP367	ltpFR2	21	n/a	n/a	n/a	22	10	2	6	2
2730615	PROB	n/a	LTP367	ltpFR2	21	n/a	n/a	n/a	22	16	6	2	8
2732166	PROB	n/a	LTP367	ltpFR2	21	n/a	n/a	n/a	22	6	3	2	1
2733564	PROB	n/a	LTP367	ltpFR2	21	n/a	n/a	n/a	22	16	5	4	7
2735331	PROB	n/a	LTP367	ltpFR2	21	n/a	n/a	n/a	22	11	5	3	3
2736529	PROB	n/a	LTP367	ltpFR2	21	n/a	n/a	n/a	22	19	9	5	5
2737662	PROB	n/a	LTP367	ltpFR2	21	n/a	n/a	n/a	22	15	8	2	5
2739894	PROB	n/a	LTP367	ltpFR2	21	n/a	n/a	n/a	22	21	9	4	8
2741377	PROB	n/a	LTP367	ltpFR2	21	n/a	n/a	n/a	22	17	9	3	5
2742976	PROB	n/a	LTP367	ltpFR2	21	n/a	n/a	n/a	22	14	5	4	5
2744376	PROB	n/a	LTP367	ltpFR2	21	n/a	n/a	n/a	22	15	9	1	5
2745658	PROB	n/a	LTP367	ltpFR2	21	n/a	n/a	n/a	22	13	2	3	8
2748724	PROB	n/a	LTP367	ltpFR2	21	n/a	n/a	n/a	22	3	1	1	1
2750055	STOP	n/a	LTP367	ltpFR2	21	n/a	n/a	n/a	22	n/a	n/a	n/a	n/a
2752505	WORD	wordpools/wasnorm_wordpool_576.txt	LTP367	ltpFR2	21	14	UNCLE	1536	n/a	n/a	0	0	0
2755222	WORD	wordpools/wasnorm_wordpool_576.txt	LTP367	ltpFR2	21	14	LODGE	839	n/a	n/a	0	0	0
2758003	WORD	wordpools/wasnorm_wordpool_576.txt	LTP367	ltpFR2	21	14	MOTEL	919	n/a	n/a	0	0	0
2760601	WORD	wordpools/wasnorm_wordpool_576.txt	LTP367	ltpFR2	21	14	FLIPPER	580	n/a	n/a	0	0	0
2763101	WORD	wordpools/wasnorm_wordpool_576.txt	LTP367	ltpFR2	21	14	VICTIM	1562	n/a	n/a	0	0	0
2765616	WORD	wordpools/wasnorm_wordpool_576.txt	LTP367	ltpFR2	21	14	SHELF	1280	n/a	n/a	0	0	0
2768199	WORD	wordpools/wasnorm_wordpool_576.txt	LTP367	ltpFR2	21	14	SWIMMER	1420	n/a	n/a	0	0	0
2770847	WORD	wordpools/wasnorm_wordpool_576.txt	LTP367	ltpFR2	21	14	FILM	565	n/a	n/a	0	0	0
2773462	WORD	wordpools/wasnorm_wordpool_576.txt	LTP367	ltpFR2	21	14	PIGEON	1065	n/a	n/a	0	0	0
2776112	WORD	wordpools/wasnorm_wordpool_576.txt	LTP367	ltpFR2	21	14	BREAST	171	n/a	n/a	0	0	0
2778560	WORD	wordpools/wasnorm_wordpool_576.txt	LTP367	ltpFR2	21	14	GIFT	635	n/a	n/a	0	0	0
2781026	WORD	wordpools/wasnorm_wordpool_576.txt	LTP367	ltpFR2	21	14	TORTOISE	1486	n/a	n/a	0	0	0
2783674	WORD	wordpools/wasnorm_wordpool_576.txt	LTP367	ltpFR2	21	14	SLUG	1329	n/a	n/a	0	0	0
2786157	WORD	wordpools/wasnorm_wordpool_576.txt	LTP367	ltpFR2	21	14	PISTOL	1075	n/a	n/a	0	0	0
2788822	WORD	wordpools/wasnorm_wordpool_576.txt	LTP367	ltpFR2	21	14	POWDER	1117	n/a	n/a	0	0	0
2791271	WORD	wordpools/wasnorm_wordpool_576.txt	LTP367	ltpFR2	21	14	BALLOON	75	n/a	n/a	0	0	0
2793969	WORD	wordpools/wasnorm_wordpool_576.txt	LTP367	ltpFR2	21	14	RIVER	1194	n/a	n/a	0	0	0
2796435	WORD	wordpools/wasnorm_wordpool_576.txt	LTP367	ltpFR2	21	14	TURKEY	1520	n/a	n/a	0	0	0
2799184	WORD	wordpools/wasnorm_wordpool_576.txt	LTP367	ltpFR2	21	14	COUSIN	392	n/a	n/a	0	0	0
2801832	WORD	wordpools/wasnorm_wordpool_576.txt	LTP367	ltpFR2	21	14	WORLD	1622	n/a	n/a	0	0	0
2804614	WORD	wordpools/wasnorm_wordpool_576.txt	LTP367	ltpFR2	21	14	PEACH	1031	n/a	n/a	0	0	0
2807181	WORD	wordpools/wasnorm_wordpool_576.txt	LTP367	ltpFR2	21	14	PERCH	1048	n/a	n/a	0	0	0
2809745	WORD	wordpools/wasnorm_wordpool_576.txt	LTP367	ltpFR2	21	14	CRATER	400	n/a	n/a	0	0	0
2812328	WORD	wordpools/wasnorm_wordpool_576.txt	LTP367	ltpFR2	21	14	CITRUS	313	n/a	n/a	0	0	0
2813943	START	n/a	LTP367	ltpFR2	21	n/a	n/a	n/a	23	n/a	n/a	n/a	n/a
2814806	DISTRACTOR	n/a	LTP367	ltpFR2	21	14	n/a	n/a	n/a	n/a	0	0	0
2814809	PROB	n/a	LTP367	ltpFR2	21	n/a	n/a	n/a	23	8	4	2	2
2816575	PROB	n/a	LTP367	ltpFR2	21	n/a	n/a	n/a	23	19	1	9	9
2818674	PROB	n/a	LTP367	ltpFR2	21	n/a	n/a	n/a	23	14	1	8	5
2820457	PROB	n/a	LTP367	ltpFR2	21	n/a	n/a	n/a	23	12	5	3	4
2822922	PROB	n/a	LTP367	ltpFR2	21	n/a	n/a	n/a	23	12	9	1	2
2824388	PROB	n/a	LTP367	ltpFR2	21	n/a	n/a	n/a	23	20	9	4	7
2827171	PROB	n/a	LTP367	ltpFR2	21	n/a	n/a	n/a	23	18	9	3	6
2828653	PROB	n/a	LTP367	ltpFR2	21	n/a	n/a	n/a	23	9	3	2	4
2830769	PROB	n/a	LTP367	ltpFR2	21	n/a	n/a	n/a	23	11	3	1	7
2831901	PROB	n/a	LTP367	ltpFR2	21	n/a	n/a	n/a	23	19	2	8	9
2833185	PROB	n/a	LTP367	ltpFR2	21	n/a	n/a	n/a	23	14	5	8	1
2834683	PROB	n/a	LTP367	ltpFR2	21	n/a	n/a	n/a	23	18	7	8	3
2835950	PROB	n/a	LTP367	ltpFR2	21	n/a	n/a	n/a	23	9	1	1	7
2836865	STOP	n/a	LTP367	ltpFR2	21	n/a	n/a	n/a	23	n/a	n/a	n/a	n/a
2839865	REC_START	n/a	LTP367	ltpFR2	21	14	n/a	n/a	n/a	n/a	0	0	0
2840633	REC_WORD	wordpools/wasnorm_wordpool_576.txt	LTP367	ltpFR2	21	14	PEACH	1031	n/a	n/a	0	0	0
2841705	REC_WORD	wordpools/wasnorm_wordpool_576.txt	LTP367	ltpFR2	21	14	PERCH	1048	n/a	n/a	0	0	0
2842792	REC_WORD	wordpools/wasnorm_wordpool_576.txt	LTP367	ltpFR2	21	14	CRATER	400	n/a	n/a	0	0	0
2930307	WORD	wordpools/wasnorm_wordpool_576.txt	LTP367	ltpFR2	21	15	ORANGE	980	n/a	n/a	0	0	0
2933055	WORD	wordpools/wasnorm_wordpool_576.txt	LTP367	ltpFR2	21	15	WARDROBE	1587	n/a	n/a	0	0	0
2935503	WORD	wordpools/wasnorm_wordpool_576.txt	LTP367	ltpFR2	21	15	CLOTHES	327	n/a	n/a	0	0	0
2937969	WORD	wordpools/wasnorm_wordpool_576.txt	LTP367	ltpFR2	21	15	QUARTER	1148	n/a	n/a	0	0	0
2940617	WORD	wordpools/wasnorm_wordpool_576.txt	LTP367	ltpFR2	21	15	CANDY	230	n/a	n/a	0	0	0
2943383	WORD	wordpools/wasnorm_wordpool_576.txt	LTP367	ltpFR2	21	15	MUSTARD	935	n/a	n/a	0	0	0
2945882	WORD	wordpools/wasnorm_wordpool_576.txt	LTP367	ltpFR2	21	15	HORSE	719	n/a	n/a	0	0	0
2948530	WORD	wordpools/wasnorm_wordpool_576.txt	LTP367	ltpFR2	21	15	CATTLE	261	n/a	n/a	0	0	0
2951330	WORD	wordpools/wasnorm_wordpool_576.txt	LTP367	ltpFR2	21	15	COCOON	339	n/a	n/a	0	0	0
2954062	WORD	wordpools/wasnorm_wordpool_576.txt	LTP367	ltpFR2	21	15	DINER	467	n/a	n/a	0	0	0
2956660	WORD	wordpools/wasnorm_wordpool_576.txt	LTP367	ltpFR2	21	15	BANQUET	86	n/a	n/a	0	0	0
2959343	WORD	wordpools/wasnorm_wordpool_576.txt	LTP367	ltpFR2	21	15	CASHEW	253	n/a	n/a	0	0	0
2962142	WORD	wordpools/wasnorm_wordpool_576.txt	LTP367	ltpFR2	21	15	TUNNEL	1519	n/a	n/a	0	0	0
2964739	WORD	wordpools/wasnorm_wordpool_576.txt	LTP367	ltpFR2	21	15	WAITER	1580	n/a	n/a	0	0	0
2967438	WORD	wordpools/wasnorm_wordpool_576.txt	LTP367	ltpFR2	21	15	GRILL	661	n/a	n/a	0	0	0
2970255	WORD	wordpools/wasnorm_wordpool_576.txt	LTP367	ltpFR2	21	15	PUDDLE	1140	n/a	n/a	0	0	0
2972769	WORD	wordpools/wasnorm_wordpool_576.txt	LTP367	ltpFR2	21	15	MARINE	869	n/a	n/a	0	0	0
2975451	WORD	wordpools/wasnorm_wordpool_576.txt	LTP367	ltpFR2	21	15	ACTRESS	6	n/a	n/a	0	0	0
2977950	WORD	wordpools/wasnorm_wordpool_576.txt	LTP367	ltpFR2	21	15	HOUND	724	n/a	n/a	0	0	0
2980632	WORD	wordpools/wasnorm_wordpool_576.txt	LTP367	ltpFR2	21	15	LAMP	798	n/a	n/a	0	0	0
2983082	WORD	wordpools/wasnorm_wordpool_576.txt	LTP367	ltpFR2	21	15	ACTOR	5	n/a	n/a	0	0	0
2985730	WORD	wordpools/wasnorm_wordpool_576.txt	LTP367	ltpFR2	21	15	FLEET	578	n/a	n/a	0	0	0
2988512	WORD	wordpools/wasnorm_wordpool_576.txt	LTP367	ltpFR2	21	15	MAILBOX	857	n/a	n/a	0	0	0
2991078	WORD	wordpools/wasnorm_wordpool_576.txt	LTP367	ltpFR2	21	15	KETCHUP	771	n/a	n/a	0	0	0
2992693	START	n/a	LTP367	ltpFR2	21	n/a	n/a	n/a	24	n/a	n/a	n/a	n/a
2993528	DISTRACTOR	n/a	LTP367	ltpFR2	21	15	n/a	n/a	n/a	n/a	0	0	0
2993543	PROB	n/a	LTP367	ltpFR2	21	n/a	n/a	n/a	24	9	2	5	2
2995692	PROB	n/a	LTP367	ltpFR2	21	n/a	n/a	n/a	24	6	1	4	1
2996941	PROB	n/a	LTP367	ltpFR2	21	n/a	n/a	n/a	24	13	6	6	1
2998574	PROB	n/a	LTP367	ltpFR2	21	n/a	n/a	n/a	24	14	1	7	6
3000091	PROB	n/a	LTP367	ltpFR2	21	n/a	n/a	n/a	24	15	8	2	5
3001789	PROB	n/a	LTP367	ltpFR2	21	n/a	n/a	n/a	24	13	1	8	4
3003805	PROB	n/a	LTP367	ltpFR2	21	n/a	n/a	n/a	24	11	3	3	5
3005305	PROB	n/a	LTP367	ltpFR2	21	n/a	n/a	n/a	24	8	4	3	1
3006687	PROB	n/a	LTP367	ltpFR2	21	n/a	n/a	n/a	24	10	1	7	2
3007686	PROB	n/a	LTP367	ltpFR2	21	n/a	n/a	n/a	24	19	3	9	7
3009270	PROB	n/a	LTP367	ltpFR2	21	n/a	n/a	n/a	24	8	4	4	2
3010435	PROB	n/a	LTP367	ltpFR2	21	n/a	n/a	n/a	24	27	9	9	9
3011884	PROB	n/a	LTP367	ltpFR2	21	n/a	n/a	n/a	24	7	4	1	2
3013767	PROB	n/a	LTP367	ltpFR2	21	n/a	n/a	n/a	24	18	6	6	6
3014983	PROB	n/a	LTP367	ltpFR2	21	n/a	n/a	n/a	24	13	5	1	7
3016462	STOP	n/a	LTP367	ltpFR2	21	n/a	n/a	n/a	24	n/a	n/a	n/a	n/a
3018465	REC_START	n/a	LTP367	ltpFR2	21	15	n/a	n/a	n/a	n/a	0	0	0
3018941	REC_WORD	wordpools/wasnorm_wordpool_576.txt	LTP367	ltpFR2	21	15	FLEET	578	n/a	n/a	0	0	0
3019772	REC_WORD	wordpools/wasnorm_wordpool_576.txt	LTP367	ltpFR2	21	15	MAILBOX	857	n/a	n/a	0	0	0
3020926	REC_WORD	wordpools/wasnorm_wordpool_576.txt	LTP367	ltpFR2	21	15	KETCHUP	771	n/a	n/a	0	0	0
3022049	REC_WORD	wordpools/wasnorm_wordpool_576.txt	LTP367	ltpFR2	21	15	ORANGE	980	n/a	n/a	0	0	0
3108939	WORD	wordpools/wasnorm_wordpool_576.txt	LTP367	ltpFR2	21	16	SODA	1341	n/a	n/a	0	0	0
3111671	WORD	wordpools/wasnorm_wordpool_576.txt	LTP367	ltpFR2	21	16	ANTLER	29	n/a	n/a	0	0	0
3114204	WORD	wordpools/wasnorm_wordpool_576.txt	LTP367	ltpFR2	21	16	SAUSAGE	1238	n/a	n/a	0	0	0
3117002	WORD	wordpools/wasnorm_wordpool_576.txt	LTP367	ltpFR2	21	16	PIZZA	1079	n/a	n/a	0	0	0
3119751	WORD	wordpools/wasnorm_wordpool_576.txt	LTP367	ltpFR2	21	16	PLASTER	1085	n/a	n/a	0	0	0
3122466	WORD	wordpools/wasnorm_wordpool_576.txt	LTP367	ltpFR2	21	16	CURTAIN	427	n/a	n/a	0	0	0
3124998	WORD	wordpools/wasnorm_wordpool_576.txt	LTP367	ltpFR2	21	16	DONOR	485	n/a	n/a	0	0	0
3127630	WORD	wordpools/wasnorm_wordpool_576.txt	LTP367	ltpFR2	21	16	AIRPORT	13	n/a	n/a	0	0	0
3130396	WORD	wordpools/wasnorm_wordpool_576.txt	LTP367	ltpFR2	21	16	FREEZER	604	n/a	n/a	0	0	0
3132844	WORD	wordpools/wasnorm_wordpool_576.txt	LTP367	ltpFR2	21	16	JOURNAL	760	n/a	n/a	0	0	0
3135311	WORD	wordpools/wasnorm_wordpool_576.txt	LTP367	ltpFR2	21	16	JUDGE	761	n/a	n/a	0	0	0
3137742	WORD	wordpools/wasnorm_wordpool_576.txt	LTP367	ltpFR2	21	16	SUPPER	1411	n/a	n/a	0	0	0
3140259	WORD	wordpools/wasnorm_wordpool_576.txt	LTP367	ltpFR2	21	16	KNAPSACK	783	n/a	n/a	0	0	0
3142906	WORD	wordpools/wasnorm_wordpool_576.txt	LTP367	ltpFR2	21	16	STOVE	1388	n/a	n/a	0	0	0
3145605	WORD	wordpools/wasnorm_wordpool_576.txt	LTP367	ltpFR2	21	16	SCARF	1246	n/a	n/a	0	0	0
3148105	WORD	wordpools/wasnorm_wordpool_576.txt	LTP367	ltpFR2	21	16	OUTDOORS	987	n/a	n/a	0	0	0
3150586	WORD	wordpools/wasnorm_wordpool_576.txt	LTP367	ltpFR2	21	16	VALVE	1546	n/a	n/a	0	0	0
3153153	WORD	wordpools/wasnorm_wordpool_576.txt	LTP367	ltpFR2	21	16	CHAUFFEUR	283	n/a	n/a	0	0	0
3155867	WORD	wordpools/wasnorm_wordpool_576.txt	LTP367	ltpFR2	21	16	PRINCESS	1125	n/a	n/a	0	0	0
3158632	WORD	wordpools/wasnorm_wordpool_576.txt	LTP367	ltpFR2	21	16	SUITCASE	1403	n/a	n/a	0	0	0
3161381	WORD	wordpools/wasnorm_wordpool_576.txt	LTP367	ltpFR2	21	16	TRIBE	1505	n/a	n/a	0	0	0
3164048	WORD	wordpools/wasnorm_wordpool_576.txt	LTP367	ltpFR2	21	16	ROD	1203	n/a	n/a	0	0	0
3166695	WORD	wordpools/wasnorm_wordpool_576.txt	LTP367	ltpFR2	21	16	TOASTER	1472	n/a	n/a	0	0	0
3169511	WORD	wordpools/wasnorm_wordpool_576.txt	LTP367	ltpFR2	21	16	NOTEBOOK	959	n/a	n/a	0	0	0
3171128	START	n/a	LTP367	ltpFR2	21	n/a	n/a	n/a	25	n/a	n/a	n/a	n/a
3172252	DISTRACTOR	n/a	LTP367	ltpFR2	21	16	n/a	n/a	n/a	n/a	0	0	0
3172260	PROB	n/a	LTP367	ltpFR2	21	n/a	n/a	n/a	25	11	5	5	1
3174110	PROB	n/a	LTP367	ltpFR2	21	n/a	n/a	n/a	25	22	8	5	9
3177757	PROB	n/a	LTP367	ltpFR2	21	n/a	n/a	n/a	25	12	8	2	2
3181855	PROB	n/a	LTP367	ltpFR2	21	n/a	n/a	n/a	25	18	4	6	8
3183339	PROB	n/a	LTP367	ltpFR2	21	n/a	n/a	n/a	25	14	3	7	4
3184737	PROB	n/a	LTP367	ltpFR2	21	n/a	n/a	n/a	25	19	9	2	8
3185870	PROB	n/a	LTP367	ltpFR2	21	n/a	n/a	n/a	25	21	8	5	9
3188270	PROB	n/a	LTP367	ltpFR2	21	n/a	n/a	n/a	25	11	4	2	5
3189868	PROB	n/a	LTP367	ltpFR2	21	n/a	n/a	n/a	25	10	1	6	3
3190917	PROB	n/a	LTP367	ltpFR2	21	n/a	n/a	n/a	25	20	4	9	7
3192650	PROB	n/a	LTP367	ltpFR2	21	n/a	n/a	n/a	25	14	4	8	2
3193907	STOP	n/a	LTP367	ltpFR2	21	n/a	n/a	n/a	25	n/a	n/a	n/a	n/a
3196932	REC_START	n/a	LTP367	ltpFR2	21	16	n/a	n/a	n/a	n/a	0	0	0
3197893	REC_WORD	wordpools/wasnorm_wordpool_576.txt	LTP367	ltpFR2	21	16	TRIBE	1505	n/a	n/a	0	0	0
3199131	REC_WORD	wordpools/wasnorm_wordpool_576.txt	LTP367	ltpFR2	21	16	TOASTER	1472	n/a	n/a	0	0	0
3273479	REST_REWET	n/a	LTP367	ltpFR2	21	16	n/a	n/a	n/a	n/a	0	0	0
3392474	DISTRACTOR	n/a	LTP367	ltpFR2	21	17	n/a	n/a	n/a	n/a	0	0	0
3392474	START	n/a	LTP367	ltpFR2	21	n/a	n/a	n/a	26	n/a	n/a	n/a	n/a
3392490	PROB	n/a	LTP367	ltpFR2	21	n/a	n/a	n/a	26	12	2	1	9
3393873	PROB	n/a	LTP367	ltpFR2	21	n/a	n/a	n/a	26	22	4	9	9
3395207	PROB	n/a	LTP367	ltpFR2	21	n/a	n/a	n/a	26	23	9	5	9
3396838	PROB	n/a	LTP367	ltpFR2	21	n/a	n/a	n/a	26	21	8	4	9
3398537	PROB	n/a	LTP367	ltpFR2	21	n/a	n/a	n/a	26	7	5	1	1
3399870	PROB	n/a	LTP367	ltpFR2	21	n/a	n/a	n/a	26	21	7	7	7
3401287	PROB	n/a	LTP367	ltpFR2	21	n/a	n/a	n/a	26	14	8	2	4
3403685	PROB	n/a	LTP367	ltpFR2	21	n/a	n/a	n/a	26	21	6	9	6
3405119	PROB	n/a	LTP367	ltpFR2	21	n/a	n/a	n/a	26	13	7	4	1
3406850	PROB	n/a	LTP367	ltpFR2	21	n/a	n/a	n/a	26	13	7	2	4
3408766	PROB	n/a	LTP367	ltpFR2	21	n/a	n/a	n/a	26	19	5	5	9
3409899	PROB	n/a	LTP367	ltpFR2	21	n/a	n/a	n/a	26	9	2	4	3
3411931	PROB	n/a	LTP367	ltpFR2	21	n/a	n/a	n/a	26	27	9	9	9
3413414	PROB	n/a	LTP367	ltpFR2	21	n/a	n/a	n/a	26	14	7	3	4
3416474	STOP	n/a	LTP367	ltpFR2	21	n/a	n/a	n/a	26	n/a	n/a	n/a	n/a
3417662	WORD	wordpools/wasnorm_wordpool_576.txt	LTP367	ltpFR2	21	17	PEPPER	1047	n/a	n/a	0	0	0
3420145	WORD	wordpools/wasnorm_wordpool_576.txt	LTP367	ltpFR2	21	17	COBRA	336	n/a	n/a	0	0	0
3422593	WORD	wordpools/wasnorm_wordpool_576.txt	LTP367	ltpFR2	21	17	SALMON	1227	n/a	n/a	0	0	0
3425276	WORD	wordpools/wasnorm_wordpool_576.txt	LTP367	ltpFR2	21	17	BRACES	164	n/a	n/a	0	0	0
3427790	WORD	wordpools/wasnorm_wordpool_576.txt	LTP367	ltpFR2	21	17	TREAT	1501	n/a	n/a	0	0	0
3430422	WORD	wordpools/wasnorm_wordpool_576.txt	LTP367	ltpFR2	21	17	OMELET	976	n/a	n/a	0	0	0
3432988	WORD	wordpools/wasnorm_wordpool_576.txt	LTP367	ltpFR2	21	17	FUNGUS	614	n/a	n/a	0	0	0
3435703	WORD	wordpools/wasnorm_wordpool_576.txt	LTP367	ltpFR2	21	17	LETTUCE	814	n/a	n/a	0	0	0
3438502	WORD	wordpools/wasnorm_wordpool_576.txt	LTP367	ltpFR2	21	17	MONEY	908	n/a	n/a	0	0	0
3441152	WORD	wordpools/wasnorm_wordpool_576.txt	LTP367	ltpFR2	21	17	PLUTO	1092	n/a	n/a	0	0	0
3443916	WORD	wordpools/wasnorm_wordpool_576.txt	LTP367	ltpFR2	21	17	FOOT	590	n/a	n/a	0	0	0
3446598	WORD	wordpools/wasnorm_wordpool_576.txt	LTP367	ltpFR2	21	17	SPARROW	1347	n/a	n/a	0	0	0
3449065	WORD	wordpools/wasnorm_wordpool_576.txt	LTP367	ltpFR2	21	17	JURY	766	n/a	n/a	0	0	0
3451596	WORD	wordpools/wasnorm_wordpool_576.txt	LTP367	ltpFR2	21	17	DRAWING	494	n/a	n/a	0	0	0
3454079	WORD	wordpools/wasnorm_wordpool_576.txt	LTP367	ltpFR2	21	17	RECORD	1176	n/a	n/a	0	0	0
3456727	WORD	wordpools/wasnorm_wordpool_576.txt	LTP367	ltpFR2	21	17	SPACE	1345	n/a	n/a	0	0	0
3459459	WORD	wordpools/wasnorm_wordpool_576.txt	LTP367	ltpFR2	21	17	HOOK	715	n/a	n/a	0	0	0
3461958	WORD	wordpools/wasnorm_wordpool_576.txt	LTP367	ltpFR2	21	17	CHAPEL	280	n/a	n/a	0	0	0
3464407	WORD	wordpools/wasnorm_wordpool_576.txt	LTP367	ltpFR2	21	17	ANKLE	24	n/a	n/a	0	0	0
3466939	WORD	wordpools/wasnorm_wordpool_576.txt	LTP367	ltpFR2	21	17	KITCHEN	778	n/a	n/a	0	0	0
3469588	WORD	wordpools/wasnorm_wordpool_576.txt	LTP367	ltpFR2	21	17	BANKER	84	n/a	n/a	0	0	0
3472321	WORD	wordpools/wasnorm_wordpool_576.txt	LTP367	ltpFR2	21	17	RECEIPT	1173	n/a	n/a	0	0	0
3475053	WORD	wordpools/wasnorm_wordpool_576.txt	LTP367	ltpFR2	21	17	KEEPER	769	n/a	n/a	0	0	0
3477584	WORD	wordpools/wasnorm_wordpool_576.txt	LTP367	ltpFR2	21	17	TART	1436	n/a	n/a	0	0	0
3479201	START	n/a	LTP367	ltpFR2	21	n/a	n/a	n/a	27	n/a	n/a	n/a	n/a
3480348	DISTRACTOR	n/a	LTP367	ltpFR2	21	17	n/a	n/a	n/a	n/a	0	0	0
3480350	PROB	n/a	LTP367	ltpFR2	21	n/a	n/a	n/a	27	14	1	4	9
3482249	PROB	n/a	LTP367	ltpFR2	21	n/a	n/a	n/a	27	8	2	1	5
3483364	PROB	n/a	LTP367	ltpFR2	21	n/a	n/a	n/a	27	19	3	8	8
3485231	PROB	n/a	LTP367	ltpFR2	21	n/a	n/a	n/a	27	21	4	8	9
3486713	PROB	n/a	LTP367	ltpFR2	21	n/a	n/a	n/a	27	15	5	1	9
3488346	PROB	n/a	LTP367	ltpFR2	21	n/a	n/a	n/a	27	18	8	7	3
3489645	PROB	n/a	LTP367	ltpFR2	21	n/a	n/a	n/a	27	15	4	8	3
3491245	PROB	n/a	LTP367	ltpFR2	21	n/a	n/a	n/a	27	6	1	2	3
3492560	PROB	n/a	LTP367	ltpFR2	21	n/a	n/a	n/a	27	15	6	8	1
3494493	PROB	n/a	LTP367	ltpFR2	21	n/a	n/a	n/a	27	12	3	1	8
3495992	PROB	n/a	LTP367	ltpFR2	21	n/a	n/a	n/a	27	10	6	3	1
3497042	PROB	n/a	LTP367	ltpFR2	21	n/a	n/a	n/a	27	16	5	9	2
3498657	PROB	n/a	LTP367	ltpFR2	21	n/a	n/a	n/a	27	14	2	5	7
3500423	PROB	n/a	LTP367	ltpFR2	21	n/a	n/a	n/a	27	15	1	7	7
3501556	PROB	n/a	LTP367	ltpFR2	21	n/a	n/a	n/a	27	15	4	6	5
3502613	STOP	n/a	LTP367	ltpFR2	21	n/a	n/a	n/a	27	n/a	n/a	n/a	n/a
3505139	REC_START	n/a	LTP367	ltpFR2	21	17	n/a	n/a	n/a	n/a	0	0	0
3506537	REC_WORD	wordpools/wasnorm_wordpool_576.txt	LTP367	ltpFR2	21	17	COBRA	336	n/a	n/a	0	0	0
3507183	REC_WORD	wordpools/wasnorm_wordpool_576.txt	LTP367	ltpFR2	21	17	PEPPER	1047	n/a	n/a	0	0	0
3507791	REC_WORD	wordpools/wasnorm_wordpool_576.txt	LTP367	ltpFR2	21	17	SALMON	1227	n/a	n/a	0	0	0
3508712	REC_WORD	wordpools/wasnorm_wordpool_576.txt	LTP367	ltpFR2	21	17	BRACES	164	n/a	n/a	0	0	0
3510361	REC_WORD	wordpools/wasnorm_wordpool_576.txt	LTP367	ltpFR2	21	17	OMELET	976	n/a	n/a	0	0	0
3511082	REC_WORD	wordpools/wasnorm_wordpool_576.txt	LTP367	ltpFR2	21	17	FUNGUS	614	n/a	n/a	0	0	0
3512129	REC_WORD	wordpools/wasnorm_wordpool_576.txt	LTP367	ltpFR2	21	17	LETTUCE	814	n/a	n/a	0	0	0
3513301	REC_WORD	wordpools/wasnorm_wordpool_576.txt	LTP367	ltpFR2	21	17	PLUTO	1092	n/a	n/a	0	0	0
3514192	REC_WORD	wordpools/wasnorm_wordpool_576.txt	LTP367	ltpFR2	21	17	SPACE	1345	n/a	n/a	0	0	0
3515261	REC_WORD	wordpools/wasnorm_wordpool_576.txt	LTP367	ltpFR2	21	17	SPARROW	1347	n/a	n/a	0	0	0
3516333	REC_WORD	wordpools/wasnorm_wordpool_576.txt	LTP367	ltpFR2	21	17	FOOT	590	n/a	n/a	0	0	0
3517537	REC_WORD	wordpools/wasnorm_wordpool_576.txt	LTP367	ltpFR2	21	17	JURY	766	n/a	n/a	0	0	0
3518504	REC_WORD	wordpools/wasnorm_wordpool_576.txt	LTP367	ltpFR2	21	17	DRAWING	494	n/a	n/a	0	0	0
3519648	REC_WORD	wordpools/wasnorm_wordpool_576.txt	LTP367	ltpFR2	21	17	RECORD	1176	n/a	n/a	0	0	0
3523143	REC_WORD	wordpools/wasnorm_wordpool_576.txt	LTP367	ltpFR2	21	17	HOOK	715	n/a	n/a	0	0	0
3523958	REC_WORD	wordpools/wasnorm_wordpool_576.txt	LTP367	ltpFR2	21	17	CHAPEL	280	n/a	n/a	0	0	0
3525295	REC_WORD	wordpools/wasnorm_wordpool_576.txt	LTP367	ltpFR2	21	17	KITCHEN	778	n/a	n/a	0	0	0
3526431	REC_WORD	wordpools/wasnorm_wordpool_576.txt	LTP367	ltpFR2	21	17	BANKER	84	n/a	n/a	0	0	0
3527721	REC_WORD	wordpools/wasnorm_wordpool_576.txt	LTP367	ltpFR2	21	17	ANKLE	24	n/a	n/a	0	0	0
3529913	REC_WORD	wordpools/wasnorm_wordpool_576.txt	LTP367	ltpFR2	21	17	RECEIPT	1173	n/a	n/a	0	0	0
3531171	REC_WORD	wordpools/wasnorm_wordpool_576.txt	LTP367	ltpFR2	21	17	TART	1436	n/a	n/a	0	0	0
3595579	DISTRACTOR	n/a	LTP367	ltpFR2	21	18	n/a	n/a	n/a	n/a	0	0	0
3595579	START	n/a	LTP367	ltpFR2	21	n/a	n/a	n/a	28	n/a	n/a	n/a	n/a
3595596	PROB	n/a	LTP367	ltpFR2	21	n/a	n/a	n/a	28	21	7	6	9
3597744	PROB	n/a	LTP367	ltpFR2	21	n/a	n/a	n/a	28	18	9	3	6
3599560	PROB	n/a	LTP367	ltpFR2	21	n/a	n/a	n/a	28	15	8	6	1
3601127	PROB	n/a	LTP367	ltpFR2	21	n/a	n/a	n/a	28	25	8	8	7
3603925	PROB	n/a	LTP367	ltpFR2	21	n/a	n/a	n/a	28	19	3	9	7
3605325	PROB	n/a	LTP367	ltpFR2	21	n/a	n/a	n/a	28	4	1	1	2
3606640	PROB	n/a	LTP367	ltpFR2	21	n/a	n/a	n/a	28	12	5	2	5
3607906	PROB	n/a	LTP367	ltpFR2	21	n/a	n/a	n/a	28	6	1	4	1
3609040	PROB	n/a	LTP367	ltpFR2	21	n/a	n/a	n/a	28	11	4	6	1
3610173	PROB	n/a	LTP367	ltpFR2	21	n/a	n/a	n/a	28	13	8	3	2
3613038	PROB	n/a	LTP367	ltpFR2	21	n/a	n/a	n/a	28	11	2	8	1
3614221	PROB	n/a	LTP367	ltpFR2	21	n/a	n/a	n/a	28	16	6	8	2
3615570	PROB	n/a	LTP367	ltpFR2	21	n/a	n/a	n/a	28	12	4	1	7
3616802	PROB	n/a	LTP367	ltpFR2	21	n/a	n/a	n/a	28	9	2	5	2
3618592	STOP	n/a	LTP367	ltpFR2	21	n/a	n/a	n/a	28	n/a	n/a	n/a	n/a
3620567	WORD	wordpools/wasnorm_wordpool_576.txt	LTP367	ltpFR2	21	18	LAVA	804	n/a	n/a	0	0	0
3623383	WORD	wordpools/wasnorm_wordpool_576.txt	LTP367	ltpFR2	21	18	FRUIT	610	n/a	n/a	0	0	0
3625915	WORD	wordpools/wasnorm_wordpool_576.txt	LTP367	ltpFR2	21	18	GARBAGE	622	n/a	n/a	0	0	0
3628497	WORD	wordpools/wasnorm_wordpool_576.txt	LTP367	ltpFR2	21	18	KLEENEX	782	n/a	n/a	0	0	0
3630946	WORD	wordpools/wasnorm_wordpool_576.txt	LTP367	ltpFR2	21	18	HERO	706	n/a	n/a	0	0	0
3633694	WORD	wordpools/wasnorm_wordpool_576.txt	LTP367	ltpFR2	21	18	SPHINX	1349	n/a	n/a	0	0	0
3636144	WORD	wordpools/wasnorm_wordpool_576.txt	LTP367	ltpFR2	21	18	SCALPEL	1243	n/a	n/a	0	0	0
3638592	WORD	wordpools/wasnorm_wordpool_576.txt	LTP367	ltpFR2	21	18	ROBIN	1199	n/a	n/a	0	0	0
3641292	WORD	wordpools/wasnorm_wordpool_576.txt	LTP367	ltpFR2	21	18	PARROT	1015	n/a	n/a	0	0	0
3644057	WORD	wordpools/wasnorm_wordpool_576.txt	LTP367	ltpFR2	21	18	MUMMY	932	n/a	n/a	0	0	0
3646855	WORD	wordpools/wasnorm_wordpool_576.txt	LTP367	ltpFR2	21	18	HELMET	702	n/a	n/a	0	0	0
3649470	WORD	wordpools/wasnorm_wordpool_576.txt	LTP367	ltpFR2	21	18	DENTIST	447	n/a	n/a	0	0	0
3652137	WORD	wordpools/wasnorm_wordpool_576.txt	LTP367	ltpFR2	21	18	GRAPE	654	n/a	n/a	0	0	0
3654601	WORD	wordpools/wasnorm_wordpool_576.txt	LTP367	ltpFR2	21	18	LUGGAGE	847	n/a	n/a	0	0	0
3657318	WORD	wordpools/wasnorm_wordpool_576.txt	LTP367	ltpFR2	21	18	REBEL	1172	n/a	n/a	0	0	0
3659916	WORD	wordpools/wasnorm_wordpool_576.txt	LTP367	ltpFR2	21	18	SERVER	1272	n/a	n/a	0	0	0
3662648	WORD	wordpools/wasnorm_wordpool_576.txt	LTP367	ltpFR2	21	18	CAFE	216	n/a	n/a	0	0	0
3665314	WORD	wordpools/wasnorm_wordpool_576.txt	LTP367	ltpFR2	21	18	SIDEWALK	1303	n/a	n/a	0	0	0
3667995	WORD	wordpools/wasnorm_wordpool_576.txt	LTP367	ltpFR2	21	18	BLUEPRINT	142	n/a	n/a	0	0	0
3670694	WORD	wordpools/wasnorm_wordpool_576.txt	LTP367	ltpFR2	21	18	BISON	131	n/a	n/a	0	0	0
3673127	WORD	wordpools/wasnorm_wordpool_576.txt	LTP367	ltpFR2	21	18	LIZARD	834	n/a	n/a	0	0	0
3675891	WORD	wordpools/wasnorm_wordpool_576.txt	LTP367	ltpFR2	21	18	PANTHER	1009	n/a	n/a	0	0	0
3678490	WORD	wordpools/wasnorm_wordpool_576.txt	LTP367	ltpFR2	21	18	OX	994	n/a	n/a	0	0	0
3681090	WORD	wordpools/wasnorm_wordpool_576.txt	LTP367	ltpFR2	21	18	PILOT	1070	n/a	n/a	0	0	0
3682705	START	n/a	LTP367	ltpFR2	21	n/a	n/a	n/a	29	n/a	n/a	n/a	n/a
3683683	DISTRACTOR	n/a	LTP367	ltpFR2	21	18	n/a	n/a	n/a	n/a	0	0	0
3683688	PROB	n/a	LTP367	ltpFR2	21	n/a	n/a	n/a	29	19	1	9	9
3685520	PROB	n/a	LTP367	ltpFR2	21	n/a	n/a	n/a	29	20	3	8	9
3687519	PROB	n/a	LTP367	ltpFR2	21	n/a	n/a	n/a	29	12	1	5	6
3688835	PROB	n/a	LTP367	ltpFR2	21	n/a	n/a	n/a	29	7	1	3	3
3690036	PROB	n/a	LTP367	ltpFR2	21	n/a	n/a	n/a	29	21	7	5	9
3691717	PROB	n/a	LTP367	ltpFR2	21	n/a	n/a	n/a	29	19	7	6	6
3693134	PROB	n/a	LTP367	ltpFR2	21	n/a	n/a	n/a	29	18	9	3	6
3694533	PROB	n/a	LTP367	ltpFR2	21	n/a	n/a	n/a	29	23	6	9	8
3697232	PROB	n/a	LTP367	ltpFR2	21	n/a	n/a	n/a	29	24	8	8	8
3698797	PROB	n/a	LTP367	ltpFR2	21	n/a	n/a	n/a	29	12	2	8	2
3699847	PROB	n/a	LTP367	ltpFR2	21	n/a	n/a	n/a	29	20	6	5	9
3701097	PROB	n/a	LTP367	ltpFR2	21	n/a	n/a	n/a	29	12	4	2	6
3702280	PROB	n/a	LTP367	ltpFR2	21	n/a	n/a	n/a	29	16	8	4	4
3704745	PROB	n/a	LTP367	ltpFR2	21	n/a	n/a	n/a	29	5	1	1	3
3705779	STOP	n/a	LTP367	ltpFR2	21	n/a	n/a	n/a	29	n/a	n/a	n/a	n/a
3708627	REC_START	n/a	LTP367	ltpFR2	21	18	n/a	n/a	n/a	n/a	0	0	0
3709645	REC_WORD	wordpools/wasnorm_wordpool_576.txt	LTP367	ltpFR2	21	18	BISON	131	n/a	n/a	0	0	0
3710764	REC_WORD	wordpools/wasnorm_wordpool_576.txt	LTP367	ltpFR2	21	18	OX	994	n/a	n/a	0	0	0
3799085	WORD	wordpools/wasnorm_wordpool_576.txt	LTP367	ltpFR2	21	19	THRONE	1461	n/a	n/a	0	0	0
3801899	WORD	wordpools/wasnorm_wordpool_576.txt	LTP367	ltpFR2	21	19	GUITAR	670	n/a	n/a	0	0	0
3804415	WORD	wordpools/wasnorm_wordpool_576.txt	LTP367	ltpFR2	21	19	WASHER	1592	n/a	n/a	0	0	0
3806964	WORD	wordpools/wasnorm_wordpool_576.txt	LTP367	ltpFR2	21	19	VALLEY	1545	n/a	n/a	0	0	0
3809546	WORD	wordpools/wasnorm_wordpool_576.txt	LTP367	ltpFR2	21	19	SLOPE	1328	n/a	n/a	0	0	0
3812212	WORD	wordpools/wasnorm_wordpool_576.txt	LTP367	ltpFR2	21	19	CLAMP	316	n/a	n/a	0	0	0
3814743	WORD	wordpools/wasnorm_wordpool_576.txt	LTP367	ltpFR2	21	19	GLOVE	642	n/a	n/a	0	0	0
3817243	WORD	wordpools/wasnorm_wordpool_576.txt	LTP367	ltpFR2	21	19	NOVEL	960	n/a	n/a	0	0	0
3819991	WORD	wordpools/wasnorm_wordpool_576.txt	LTP367	ltpFR2	21	19	SCRIBBLE	1256	n/a	n/a	0	0	0
3822473	WORD	wordpools/wasnorm_wordpool_576.txt	LTP367	ltpFR2	21	19	BUREAU	199	n/a	n/a	0	0	0
3824972	WORD	wordpools/wasnorm_wordpool_576.txt	LTP367	ltpFR2	21	19	PRINCE	1124	n/a	n/a	0	0	0
3827521	WORD	wordpools/wasnorm_wordpool_576.txt	LTP367	ltpFR2	21	19	PORTRAIT	1111	n/a	n/a	0	0	0
3829970	WORD	wordpools/wasnorm_wordpool_576.txt	LTP367	ltpFR2	21	19	AUTHOR	61	n/a	n/a	0	0	0
3832435	WORD	wordpools/wasnorm_wordpool_576.txt	LTP367	ltpFR2	21	19	INFANT	737	n/a	n/a	0	0	0
3835068	WORD	wordpools/wasnorm_wordpool_576.txt	LTP367	ltpFR2	21	19	CHILD	299	n/a	n/a	0	0	0
3837783	WORD	wordpools/wasnorm_wordpool_576.txt	LTP367	ltpFR2	21	19	SILK	1307	n/a	n/a	0	0	0
3840581	WORD	wordpools/wasnorm_wordpool_576.txt	LTP367	ltpFR2	21	19	VELVET	1555	n/a	n/a	0	0	0
3843148	WORD	wordpools/wasnorm_wordpool_576.txt	LTP367	ltpFR2	21	19	JUNGLE	764	n/a	n/a	0	0	0
3845629	WORD	wordpools/wasnorm_wordpool_576.txt	LTP367	ltpFR2	21	19	BULLET	194	n/a	n/a	0	0	0
3848212	WORD	wordpools/wasnorm_wordpool_576.txt	LTP367	ltpFR2	21	19	HEART	697	n/a	n/a	0	0	0
3850977	WORD	wordpools/wasnorm_wordpool_576.txt	LTP367	ltpFR2	21	19	HAMPER	682	n/a	n/a	0	0	0
3853659	WORD	wordpools/wasnorm_wordpool_576.txt	LTP367	ltpFR2	21	19	CHAMPAGNE	278	n/a	n/a	0	0	0
3856374	WORD	wordpools/wasnorm_wordpool_576.txt	LTP367	ltpFR2	21	19	WITNESS	1618	n/a	n/a	0	0	0
3859140	WORD	wordpools/wasnorm_wordpool_576.txt	LTP367	ltpFR2	21	19	REPORT	1184	n/a	n/a	0	0	0
3860755	START	n/a	LTP367	ltpFR2	21	n/a	n/a	n/a	30	n/a	n/a	n/a	n/a
3861784	DISTRACTOR	n/a	LTP367	ltpFR2	21	19	n/a	n/a	n/a	n/a	0	0	0
3861788	PROB	n/a	LTP367	ltpFR2	21	n/a	n/a	n/a	30	15	2	7	6
3863754	PROB	n/a	LTP367	ltpFR2	21	n/a	n/a	n/a	30	6	2	3	1
3865038	PROB	n/a	LTP367	ltpFR2	21	n/a	n/a	n/a	30	9	5	2	2
3866204	PROB	n/a	LTP367	ltpFR2	21	n/a	n/a	n/a	30	19	7	6	6
3868020	PROB	n/a	LTP367	ltpFR2	21	n/a	n/a	n/a	30	12	3	1	8
3869186	PROB	n/a	LTP367	ltpFR2	21	n/a	n/a	n/a	30	19	6	6	7
3870701	PROB	n/a	LTP367	ltpFR2	21	n/a	n/a	n/a	30	17	7	6	4
3871917	PROB	n/a	LTP367	ltpFR2	21	n/a	n/a	n/a	30	13	6	2	5
3873799	PROB	n/a	LTP367	ltpFR2	21	n/a	n/a	n/a	30	19	7	7	5
3875548	PROB	n/a	LTP367	ltpFR2	21	n/a	n/a	n/a	30	18	5	7	6
3877215	PROB	n/a	LTP367	ltpFR2	21	n/a	n/a	n/a	30	17	3	8	6
3879397	PROB	n/a	LTP367	ltpFR2	21	n/a	n/a	n/a	30	12	5	4	3
3880796	PROB	n/a	LTP367	ltpFR2	21	n/a	n/a	n/a	30	20	6	7	7
3883664	STOP	n/a	LTP367	ltpFR2	21	n/a	n/a	n/a	30	n/a	n/a	n/a	n/a
3886561	REC_START	n/a	LTP367	ltpFR2	21	19	n/a	n/a	n/a	n/a	0	0	0
3886685	REC_WORD	wordpools/wasnorm_wordpool_576.txt	LTP367	ltpFR2	21	19	HAMPER	682	n/a	n/a	0	0	0
3888136	REC_WORD	wordpools/wasnorm_wordpool_576.txt	LTP367	ltpFR2	21	19	NOVEL	960	n/a	n/a	0	0	0
3977035	WORD	wordpools/wasnorm_wordpool_576.txt	LTP367	ltpFR2	21	20	CUSTARD	429	n/a	n/a	0	0	0
3979567	WORD	wordpools/wasnorm_wordpool_576.txt	LTP367	ltpFR2	21	20	PICTURE	1061	n/a	n/a	0	0	0
3982365	WORD	wordpools/wasnorm_wordpool_576.txt	LTP367	ltpFR2	21	20	COFFEE	341	n/a	n/a	0	0	0
3984847	WORD	wordpools/wasnorm_wordpool_576.txt	LTP367	ltpFR2	21	20	HOOD	714	n/a	n/a	0	0	0
3987396	WORD	wordpools/wasnorm_wordpool_576.txt	LTP367	ltpFR2	21	20	COLONEL	348	n/a	n/a	0	0	0
3989978	WORD	wordpools/wasnorm_wordpool_576.txt	LTP367	ltpFR2	21	20	SADDLE	1221	n/a	n/a	0	0	0
3992611	WORD	wordpools/wasnorm_wordpool_576.txt	LTP367	ltpFR2	21	20	DRAGON	492	n/a	n/a	0	0	0
3995260	WORD	wordpools/wasnorm_wordpool_576.txt	LTP367	ltpFR2	21	20	SKETCH	1315	n/a	n/a	0	0	0
3997958	WORD	wordpools/wasnorm_wordpool_576.txt	LTP367	ltpFR2	21	20	MONSTER	912	n/a	n/a	0	0	0
4000407	WORD	wordpools/wasnorm_wordpool_576.txt	LTP367	ltpFR2	21	20	SWITCH	1422	n/a	n/a	0	0	0
4002906	WORD	wordpools/wasnorm_wordpool_576.txt	LTP367	ltpFR2	21	20	MASK	876	n/a	n/a	0	0	0
4005654	WORD	wordpools/wasnorm_wordpool_576.txt	LTP367	ltpFR2	21	20	TWEEZERS	1526	n/a	n/a	0	0	0
4008237	WORD	wordpools/wasnorm_wordpool_576.txt	LTP367	ltpFR2	21	20	LASER	801	n/a	n/a	0	0	0
4010852	WORD	wordpools/wasnorm_wordpool_576.txt	LTP367	ltpFR2	21	20	COUNTRY	388	n/a	n/a	0	0	0
4013601	WORD	wordpools/wasnorm_wordpool_576.txt	LTP367	ltpFR2	21	20	BASEMENT	94	n/a	n/a	0	0	0
4016084	WORD	wordpools/wasnorm_wordpool_576.txt	LTP367	ltpFR2	21	20	CELLAR	267	n/a	n/a	0	0	0
4018682	WORD	wordpools/wasnorm_wordpool_576.txt	LTP367	ltpFR2	21	20	JAPAN	749	n/a	n/a	0	0	0
4021132	WORD	wordpools/wasnorm_wordpool_576.txt	LTP367	ltpFR2	21	20	EXPERT	543	n/a	n/a	0	0	0
4023746	WORD	wordpools/wasnorm_wordpool_576.txt	LTP367	ltpFR2	21	20	LEOPARD	812	n/a	n/a	0	0	0
4026346	WORD	wordpools/wasnorm_wordpool_576.txt	LTP367	ltpFR2	21	20	LION	827	n/a	n/a	0	0	0
4029144	WORD	wordpools/wasnorm_wordpool_576.txt	LTP367	ltpFR2	21	20	BURGLAR	200	n/a	n/a	0	0	0
4031792	WORD	wordpools/wasnorm_wordpool_576.txt	LTP367	ltpFR2	21	20	FEMALE	559	n/a	n/a	0	0	0
4034358	WORD	wordpools/wasnorm_wordpool_576.txt	LTP367	ltpFR2	21	20	POCKET	1093	n/a	n/a	0	0	0
4036957	WORD	wordpools/wasnorm_wordpool_576.txt	LTP367	ltpFR2	21	20	PLATE	1086	n/a	n/a	0	0	0
4038573	START	n/a	LTP367	ltpFR2	21	n/a	n/a	n/a	31	n/a	n/a	n/a	n/a
4039508	DISTRACTOR	n/a	LTP367	ltpFR2	21	20	n/a	n/a	n/a	n/a	0	0	0
4039522	PROB	n/a	LTP367	ltpFR2	21	n/a	n/a	n/a	31	6	2	3	1
4041072	PROB	n/a	LTP367	ltpFR2	21	n/a	n/a	n/a	31	21	9	5	7
4042587	PROB	n/a	LTP367	ltpFR2	21	n/a	n/a	n/a	31	11	3	7	1
4043587	PROB	n/a	LTP367	ltpFR2	21	n/a	n/a	n/a	31	18	9	6	3
4044853	PROB	n/a	LTP367	ltpFR2	21	n/a	n/a	n/a	31	10	5	4	1
4046153	PROB	n/a	LTP367	ltpFR2	21	n/a	n/a	n/a	31	14	4	3	7
4047219	PROB	n/a	LTP367	ltpFR2	21	n/a	n/a	n/a	31	15	3	6	6
4048684	PROB	n/a	LTP367	ltpFR2	21	n/a	n/a	n/a	31	12	5	1	6
4050018	PROB	n/a	LTP367	ltpFR2	21	n/a	n/a	n/a	31	19	2	8	9
4051101	PROB	n/a	LTP367	ltpFR2	21	n/a	n/a	n/a	31	12	6	3	3
4052733	PROB	n/a	LTP367	ltpFR2	21	n/a	n/a	n/a	31	17	5	9	3
4055016	PROB	n/a	LTP367	ltpFR2	21	n/a	n/a	n/a	31	14	4	4	6
4056082	PROB	n/a	LTP367	ltpFR2	21	n/a	n/a	n/a	31	7	1	1	5
4057614	PROB	n/a	LTP367	ltpFR2	21	n/a	n/a	n/a	31	12	5	2	5
4058830	PROB	n/a	LTP367	ltpFR2	21	n/a	n/a	n/a	31	16	6	1	9
4060479	PROB	n/a	LTP367	ltpFR2	21	n/a	n/a	n/a	31	9	1	3	5
4061694	STOP	n/a	LTP367	ltpFR2	21	n/a	n/a	n/a	31	n/a	n/a	n/a	n/a
4064494	REC_START	n/a	LTP367	ltpFR2	21	20	n/a	n/a	n/a	n/a	0	0	0
4065608	REC_WORD	wordpools/wasnorm_wordpool_576.txt	LTP367	ltpFR2	21	20	LEOPARD	812	n/a	n/a	0	0	0
4066120	REC_WORD	wordpools/wasnorm_wordpool_576.txt	LTP367	ltpFR2	21	20	FEMALE	559	n/a	n/a	0	0	0
4066882	REC_WORD	wordpools/wasnorm_wordpool_576.txt	LTP367	ltpFR2	21	20	BURGLAR	200	n/a	n/a	0	0	0
4067621	REC_WORD	wordpools/wasnorm_wordpool_576.txt	LTP367	ltpFR2	21	20	EXPERT	543	n/a	n/a	0	0	0
4068290	REC_WORD	wordpools/wasnorm_wordpool_576.txt	LTP367	ltpFR2	21	20	CELLAR	267	n/a	n/a	0	0	0
4069700	REC_WORD	wordpools/wasnorm_wordpool_576.txt	LTP367	ltpFR2	21	20	BASEMENT	94	n/a	n/a	0	0	0
4070424	REC_WORD	wordpools/wasnorm_wordpool_576.txt	LTP367	ltpFR2	21	20	TWEEZERS	1526	n/a	n/a	0	0	0
4071674	REC_WORD	wordpools/wasnorm_wordpool_576.txt	LTP367	ltpFR2	21	20	PLATE	1086	n/a	n/a	0	0	0
4072295	REC_WORD	wordpools/wasnorm_wordpool_576.txt	LTP367	ltpFR2	21	20	POCKET	1093	n/a	n/a	0	0	0
4075536	REC_WORD	wordpools/wasnorm_wordpool_576.txt	LTP367	ltpFR2	21	20	MASK	876	n/a	n/a	0	0	0
4154968	WORD	wordpools/wasnorm_wordpool_576.txt	LTP367	ltpFR2	21	21	HIKER	708	n/a	n/a	0	0	0
4157500	WORD	wordpools/wasnorm_wordpool_576.txt	LTP367	ltpFR2	21	21	SCARECROW	1245	n/a	n/a	0	0	0
4160033	WORD	wordpools/wasnorm_wordpool_576.txt	LTP367	ltpFR2	21	21	ITEM	746	n/a	n/a	0	0	0
4162548	WORD	wordpools/wasnorm_wordpool_576.txt	LTP367	ltpFR2	21	21	PLIERS	1089	n/a	n/a	0	0	0
4165248	WORD	wordpools/wasnorm_wordpool_576.txt	LTP367	ltpFR2	21	21	BRANCH	168	n/a	n/a	0	0	0
4167712	WORD	wordpools/wasnorm_wordpool_576.txt	LTP367	ltpFR2	21	21	POLICE	1098	n/a	n/a	0	0	0
4170394	WORD	wordpools/wasnorm_wordpool_576.txt	LTP367	ltpFR2	21	21	YOLK	1633	n/a	n/a	0	0	0
4172893	WORD	wordpools/wasnorm_wordpool_576.txt	LTP367	ltpFR2	21	21	FLASK	576	n/a	n/a	0	0	0
4175492	WORD	wordpools/wasnorm_wordpool_576.txt	LTP367	ltpFR2	21	21	FRIAR	605	n/a	n/a	0	0	0
4178058	WORD	wordpools/wasnorm_wordpool_576.txt	LTP367	ltpFR2	21	21	HEDGE	699	n/a	n/a	0	0	0
4180723	WORD	wordpools/wasnorm_wordpool_576.txt	LTP367	ltpFR2	21	21	POISON	1096	n/a	n/a	0	0	0
4183372	WORD	wordpools/wasnorm_wordpool_576.txt	LTP367	ltpFR2	21	21	GRAVE	658	n/a	n/a	0	0	0
4186138	WORD	wordpools/wasnorm_wordpool_576.txt	LTP367	ltpFR2	21	21	BANJO	82	n/a	n/a	0	0	0
4188686	WORD	wordpools/wasnorm_wordpool_576.txt	LTP367	ltpFR2	21	21	TWIG	1527	n/a	n/a	0	0	0
4191451	WORD	wordpools/wasnorm_wordpool_576.txt	LTP367	ltpFR2	21	21	ROOSTER	1209	n/a	n/a	0	0	0
4194268	WORD	wordpools/wasnorm_wordpool_576.txt	LTP367	ltpFR2	21	21	BADGE	68	n/a	n/a	0	0	0
4196915	WORD	wordpools/wasnorm_wordpool_576.txt	LTP367	ltpFR2	21	21	LADDER	793	n/a	n/a	0	0	0
4199448	WORD	wordpools/wasnorm_wordpool_576.txt	LTP367	ltpFR2	21	21	HANDBAG	684	n/a	n/a	0	0	0
4202047	WORD	wordpools/wasnorm_wordpool_576.txt	LTP367	ltpFR2	21	21	STAMP	1370	n/a	n/a	0	0	0
4204745	WORD	wordpools/wasnorm_wordpool_576.txt	LTP367	ltpFR2	21	21	EAGLE	512	n/a	n/a	0	0	0
4207361	WORD	wordpools/wasnorm_wordpool_576.txt	LTP367	ltpFR2	21	21	MOTOR	922	n/a	n/a	0	0	0
4210110	WORD	wordpools/wasnorm_wordpool_576.txt	LTP367	ltpFR2	21	21	STUDENT	1395	n/a	n/a	0	0	0
4212841	WORD	wordpools/wasnorm_wordpool_576.txt	LTP367	ltpFR2	21	21	BLACKBOARD	133	n/a	n/a	0	0	0
4215523	WORD	wordpools/wasnorm_wordpool_576.txt	LTP367	ltpFR2	21	21	BOARD	143	n/a	n/a	0	0	0
4217141	START	n/a	LTP367	ltpFR2	21	n/a	n/a	n/a	32	n/a	n/a	n/a	n/a
4218087	DISTRACTOR	n/a	LTP367	ltpFR2	21	21	n/a	n/a	n/a	n/a	0	0	0
4218090	PROB	n/a	LTP367	ltpFR2	21	n/a	n/a	n/a	32	18	8	1	9
4220072	PROB	n/a	LTP367	ltpFR2	21	n/a	n/a	n/a	32	15	4	2	9
4221404	PROB	n/a	LTP367	ltpFR2	21	n/a	n/a	n/a	32	17	5	9	3
4223204	PROB	n/a	LTP367	ltpFR2	21	n/a	n/a	n/a	32	14	8	1	5
4224869	PROB	n/a	LTP367	ltpFR2	21	n/a	n/a	n/a	32	8	4	3	1
4226568	PROB	n/a	LTP367	ltpFR2	21	n/a	n/a	n/a	32	15	3	8	4
4228152	PROB	n/a	LTP367	ltpFR2	21	n/a	n/a	n/a	32	21	9	7	5
4229717	PROB	n/a	LTP367	ltpFR2	21	n/a	n/a	n/a	32	13	7	5	1
4231017	PROB	n/a	LTP367	ltpFR2	21	n/a	n/a	n/a	32	12	2	7	3
4232100	PROB	n/a	LTP367	ltpFR2	21	n/a	n/a	n/a	32	16	1	6	9
4234481	PROB	n/a	LTP367	ltpFR2	21	n/a	n/a	n/a	32	10	6	1	3
4235614	PROB	n/a	LTP367	ltpFR2	21	n/a	n/a	n/a	32	5	1	3	1
4236614	PROB	n/a	LTP367	ltpFR2	21	n/a	n/a	n/a	32	25	8	8	9
4238746	PROB	n/a	LTP367	ltpFR2	21	n/a	n/a	n/a	32	11	2	8	1
4240180	STOP	n/a	LTP367	ltpFR2	21	n/a	n/a	n/a	32	n/a	n/a	n/a	n/a
4243046	REC_START	n/a	LTP367	ltpFR2	21	21	n/a	n/a	n/a	n/a	0	0	0
4243378	REC_WORD	wordpools/wasnorm_wordpool_576.txt	LTP367	ltpFR2	21	21	BLACKBOARD	133	n/a	n/a	0	0	0
4244088	REC_WORD	wordpools/wasnorm_wordpool_576.txt	LTP367	ltpFR2	21	21	STUDENT	1395	n/a	n/a	0	0	0
4245099	REC_WORD	wordpools/wasnorm_wordpool_576.txt	LTP367	ltpFR2	21	21	BOARD	143	n/a	n/a	0	0	0
4316434	REC_WORD_VV	wordpools/wasnorm_wordpool_576.txt	LTP367	ltpFR2	21	21	<>	-1	n/a	n/a	0	0	0
4317478	REC_WORD_VV	wordpools/wasnorm_wordpool_576.txt	LTP367	ltpFR2	21	21	<>	-1	n/a	n/a	0	0	0
4333502	WORD	wordpools/wasnorm_wordpool_576.txt	LTP367	ltpFR2	21	22	LEADER	807	n/a	n/a	0	0	0
4336235	WORD	wordpools/wasnorm_wordpool_576.txt	LTP367	ltpFR2	21	22	TURNIP	1521	n/a	n/a	0	0	0
4338866	WORD	wordpools/wasnorm_wordpool_576.txt	LTP367	ltpFR2	21	22	MAMMAL	861	n/a	n/a	0	0	0
4341299	WORD	wordpools/wasnorm_wordpool_576.txt	LTP367	ltpFR2	21	22	BEAVER	109	n/a	n/a	0	0	0
4344014	WORD	wordpools/wasnorm_wordpool_576.txt	LTP367	ltpFR2	21	22	TEACHER	1440	n/a	n/a	0	0	0
4346562	WORD	wordpools/wasnorm_wordpool_576.txt	LTP367	ltpFR2	21	22	MOP	916	n/a	n/a	0	0	0
4349079	WORD	wordpools/wasnorm_wordpool_576.txt	LTP367	ltpFR2	21	22	MATCH	878	n/a	n/a	0	0	0
4351577	WORD	wordpools/wasnorm_wordpool_576.txt	LTP367	ltpFR2	21	22	BARREL	91	n/a	n/a	0	0	0
4354027	WORD	wordpools/wasnorm_wordpool_576.txt	LTP367	ltpFR2	21	22	LILY	821	n/a	n/a	0	0	0
4356491	WORD	wordpools/wasnorm_wordpool_576.txt	LTP367	ltpFR2	21	22	FOOTBALL	591	n/a	n/a	0	0	0
4358940	WORD	wordpools/wasnorm_wordpool_576.txt	LTP367	ltpFR2	21	22	NOMAD	955	n/a	n/a	0	0	0
4361639	WORD	wordpools/wasnorm_wordpool_576.txt	LTP367	ltpFR2	21	22	MARSH	874	n/a	n/a	0	0	0
4364272	WORD	wordpools/wasnorm_wordpool_576.txt	LTP367	ltpFR2	21	22	PATROL	1027	n/a	n/a	0	0	0
4367054	WORD	wordpools/wasnorm_wordpool_576.txt	LTP367	ltpFR2	21	22	SHERIFF	1284	n/a	n/a	0	0	0
4369852	WORD	wordpools/wasnorm_wordpool_576.txt	LTP367	ltpFR2	21	22	SISTER	1312	n/a	n/a	0	0	0
4372667	WORD	wordpools/wasnorm_wordpool_576.txt	LTP367	ltpFR2	21	22	GAZELLE	628	n/a	n/a	0	0	0
4375167	WORD	wordpools/wasnorm_wordpool_576.txt	LTP367	ltpFR2	21	22	MAILMAN	858	n/a	n/a	0	0	0
4377748	WORD	wordpools/wasnorm_wordpool_576.txt	LTP367	ltpFR2	21	22	FOREHEAD	592	n/a	n/a	0	0	0
4380348	WORD	wordpools/wasnorm_wordpool_576.txt	LTP367	ltpFR2	21	22	LIPSTICK	829	n/a	n/a	0	0	0
4382979	WORD	wordpools/wasnorm_wordpool_576.txt	LTP367	ltpFR2	21	22	PUPIL	1143	n/a	n/a	0	0	0
4385511	WORD	wordpools/wasnorm_wordpool_576.txt	LTP367	ltpFR2	21	22	TILE	1468	n/a	n/a	0	0	0
4387960	WORD	wordpools/wasnorm_wordpool_576.txt	LTP367	ltpFR2	21	22	SHORTCAKE	1292	n/a	n/a	0	0	0
4390575	WORD	wordpools/wasnorm_wordpool_576.txt	LTP367	ltpFR2	21	22	SNACK	1331	n/a	n/a	0	0	0
4393357	WORD	wordpools/wasnorm_wordpool_576.txt	LTP367	ltpFR2	21	22	STATUE	1374	n/a	n/a	0	0	0
4394973	START	n/a	LTP367	ltpFR2	21	n/a	n/a	n/a	33	n/a	n/a	n/a	n/a
4396068	DISTRACTOR	n/a	LTP367	ltpFR2	21	22	n/a	n/a	n/a	n/a	0	0	0
4396074	PROB	n/a	LTP367	ltpFR2	21	n/a	n/a	n/a	33	15	6	1	8
4397722	PROB	n/a	LTP367	ltpFR2	21	n/a	n/a	n/a	33	16	5	8	3
4399454	PROB	n/a	LTP367	ltpFR2	21	n/a	n/a	n/a	33	15	4	7	4
4401055	PROB	n/a	LTP367	ltpFR2	21	n/a	n/a	n/a	33	17	6	7	4
4402986	PROB	n/a	LTP367	ltpFR2	21	n/a	n/a	n/a	33	9	4	1	4
4404270	PROB	n/a	LTP367	ltpFR2	21	n/a	n/a	n/a	33	14	2	3	9
4405718	PROB	n/a	LTP367	ltpFR2	21	n/a	n/a	n/a	33	12	2	2	8
4406868	PROB	n/a	LTP367	ltpFR2	21	n/a	n/a	n/a	33	15	4	3	8
4408218	PROB	n/a	LTP367	ltpFR2	21	n/a	n/a	n/a	33	19	4	6	9
4409650	PROB	n/a	LTP367	ltpFR2	21	n/a	n/a	n/a	33	9	2	3	4
4411432	PROB	n/a	LTP367	ltpFR2	21	n/a	n/a	n/a	33	9	3	2	4
4414481	PROB	n/a	LTP367	ltpFR2	21	n/a	n/a	n/a	33	15	7	7	1
4415514	PROB	n/a	LTP367	ltpFR2	21	n/a	n/a	n/a	33	5	3	1	1
4416580	PROB	n/a	LTP367	ltpFR2	21	n/a	n/a	n/a	33	20	6	9	5
4418202	STOP	n/a	LTP367	ltpFR2	21	n/a	n/a	n/a	33	n/a	n/a	n/a	n/a
4420746	REC_START	n/a	LTP367	ltpFR2	21	22	n/a	n/a	n/a	n/a	0	0	0
4421792	REC_WORD	wordpools/wasnorm_wordpool_576.txt	LTP367	ltpFR2	21	22	LEADER	807	n/a	n/a	0	0	0
4422790	REC_WORD	wordpools/wasnorm_wordpool_576.txt	LTP367	ltpFR2	21	22	TURNIP	1521	n/a	n/a	0	0	0
4423712	REC_WORD	wordpools/wasnorm_wordpool_576.txt	LTP367	ltpFR2	21	22	MAMMAL	861	n/a	n/a	0	0	0
4424734	REC_WORD	wordpools/wasnorm_wordpool_576.txt	LTP367	ltpFR2	21	22	BEAVER	109	n/a	n/a	0	0	0
4425829	REC_WORD	wordpools/wasnorm_wordpool_576.txt	LTP367	ltpFR2	21	22	TEACHER	1440	n/a	n/a	0	0	0
4426889	REC_WORD	wordpools/wasnorm_wordpool_576.txt	LTP367	ltpFR2	21	22	MOP	916	n/a	n/a	0	0	0
4428029	REC_WORD	wordpools/wasnorm_wordpool_576.txt	LTP367	ltpFR2	21	22	MATCH	878	n/a	n/a	0	0	0
4429195	REC_WORD	wordpools/wasnorm_wordpool_576.txt	LTP367	ltpFR2	21	22	BARREL	91	n/a	n/a	0	0	0
4430252	REC_WORD	wordpools/wasnorm_wordpool_576.txt	LTP367	ltpFR2	21	22	FOOTBALL	591	n/a	n/a	0	0	0
4431383	REC_WORD	wordpools/wasnorm_wordpool_576.txt	LTP367	ltpFR2	21	22	NOMAD	955	n/a	n/a	0	0	0
4437845	REC_WORD	wordpools/wasnorm_wordpool_576.txt	LTP367	ltpFR2	21	22	SWAMP	1416	n/a	n/a	0	0	0
4511203	WORD	wordpools/wasnorm_wordpool_576.txt	LTP367	ltpFR2	21	23	WASP	1593	n/a	n/a	0	0	0
4514019	WORD	wordpools/wasnorm_wordpool_576.txt	LTP367	ltpFR2	21	23	SPIDER	1351	n/a	n/a	0	0	0
