mstime	trial_type	stim_file	subject	experiment	session	trial	item_name	item_num	list	answer	test_x	test_y	test_z
0	SESS_START	n/a	LTP393	ltpFR2	9	n/a	n/a	n/a	n/a	n/a	0	0	0
15618	START	n/a	LTP393	ltpFR2	9	n/a	n/a	n/a	-1	n/a	n/a	n/a	n/a
15649	PROB	n/a	LTP393	ltpFR2	9	n/a	n/a	n/a	-1	24	8	7	9
18099	PROB	n/a	LTP393	ltpFR2	9	n/a	n/a	n/a	-1	17	5	6	6
20432	PROB	n/a	LTP393	ltpFR2	9	n/a	n/a	n/a	-1	10	7	1	2
22866	PROB	n/a	LTP393	ltpFR2	9	n/a	n/a	n/a	-1	21	3	9	9
24499	PROB	n/a	LTP393	ltpFR2	9	n/a	n/a	n/a	-1	1	3	8	7
26416	STOP	n/a	LTP393	ltpFR2	9	n/a	n/a	n/a	-1	n/a	n/a	n/a	n/a
73148	WORD	wordpools/wasnorm_wordpool_576.txt	LTP393	ltpFR2	9	1	EXPERT	543	n/a	n/a	0	0	0
75815	WORD	wordpools/wasnorm_wordpool_576.txt	LTP393	ltpFR2	9	1	OUTDOORS	987	n/a	n/a	0	0	0
78315	WORD	wordpools/wasnorm_wordpool_576.txt	LTP393	ltpFR2	9	1	CARRIAGE	248	n/a	n/a	0	0	0
80915	WORD	wordpools/wasnorm_wordpool_576.txt	LTP393	ltpFR2	9	1	CHILD	299	n/a	n/a	0	0	0
83431	WORD	wordpools/wasnorm_wordpool_576.txt	LTP393	ltpFR2	9	1	HUSBAND	728	n/a	n/a	0	0	0
86148	WORD	wordpools/wasnorm_wordpool_576.txt	LTP393	ltpFR2	9	1	HORSE	719	n/a	n/a	0	0	0
88865	WORD	wordpools/wasnorm_wordpool_576.txt	LTP393	ltpFR2	9	1	SCALLOP	1242	n/a	n/a	0	0	0
91415	WORD	wordpools/wasnorm_wordpool_576.txt	LTP393	ltpFR2	9	1	LION	827	n/a	n/a	0	0	0
93881	WORD	wordpools/wasnorm_wordpool_576.txt	LTP393	ltpFR2	9	1	BEAVER	109	n/a	n/a	0	0	0
96698	WORD	wordpools/wasnorm_wordpool_576.txt	LTP393	ltpFR2	9	1	OX	994	n/a	n/a	0	0	0
99498	WORD	wordpools/wasnorm_wordpool_576.txt	LTP393	ltpFR2	9	1	PATROL	1027	n/a	n/a	0	0	0
102298	WORD	wordpools/wasnorm_wordpool_576.txt	LTP393	ltpFR2	9	1	WITNESS	1618	n/a	n/a	0	0	0
104798	WORD	wordpools/wasnorm_wordpool_576.txt	LTP393	ltpFR2	9	1	MARSH	874	n/a	n/a	0	0	0
107564	WORD	wordpools/wasnorm_wordpool_576.txt	LTP393	ltpFR2	9	1	SILK	1307	n/a	n/a	0	0	0
110198	WORD	wordpools/wasnorm_wordpool_576.txt	LTP393	ltpFR2	9	1	VELVET	1555	n/a	n/a	0	0	0
112981	WORD	wordpools/wasnorm_wordpool_576.txt	LTP393	ltpFR2	9	1	SISTER	1312	n/a	n/a	0	0	0
115714	WORD	wordpools/wasnorm_wordpool_576.txt	LTP393	ltpFR2	9	1	CRATER	400	n/a	n/a	0	0	0
118464	WORD	wordpools/wasnorm_wordpool_576.txt	LTP393	ltpFR2	9	1	BISON	131	n/a	n/a	0	0	0
121164	WORD	wordpools/wasnorm_wordpool_576.txt	LTP393	ltpFR2	9	1	PILOT	1070	n/a	n/a	0	0	0
123881	WORD	wordpools/wasnorm_wordpool_576.txt	LTP393	ltpFR2	9	1	LEOPARD	812	n/a	n/a	0	0	0
126331	WORD	wordpools/wasnorm_wordpool_576.txt	LTP393	ltpFR2	9	1	TROUT	1511	n/a	n/a	0	0	0
129097	WORD	wordpools/wasnorm_wordpool_576.txt	LTP393	ltpFR2	9	1	EAGLE	512	n/a	n/a	0	0	0
131664	WORD	wordpools/wasnorm_wordpool_576.txt	LTP393	ltpFR2	9	1	EMPIRE	530	n/a	n/a	0	0	0
134281	WORD	wordpools/wasnorm_wordpool_576.txt	LTP393	ltpFR2	9	1	MONSTER	912	n/a	n/a	0	0	0
135897	START	n/a	LTP393	ltpFR2	9	n/a	n/a	n/a	1	n/a	n/a	n/a	n/a
136827	DISTRACTOR	n/a	LTP393	ltpFR2	9	1	n/a	n/a	n/a	n/a	0	0	0
136830	PROB	n/a	LTP393	ltpFR2	9	n/a	n/a	n/a	1	15	5	2	8
138547	PROB	n/a	LTP393	ltpFR2	9	n/a	n/a	n/a	1	24	9	9	8
140464	PROB	n/a	LTP393	ltpFR2	9	n/a	n/a	n/a	1	11	1	3	7
141614	PROB	n/a	LTP393	ltpFR2	9	n/a	n/a	n/a	1	13	5	5	4
143564	PROB	n/a	LTP393	ltpFR2	9	n/a	n/a	n/a	1	12	2	8	2
145097	PROB	n/a	LTP393	ltpFR2	9	n/a	n/a	n/a	1	9	4	3	2
146614	PROB	n/a	LTP393	ltpFR2	9	n/a	n/a	n/a	1	19	6	7	6
148197	PROB	n/a	LTP393	ltpFR2	9	n/a	n/a	n/a	1	14	2	4	8
149980	PROB	n/a	LTP393	ltpFR2	9	n/a	n/a	n/a	1	12	2	3	7
151314	PROB	n/a	LTP393	ltpFR2	9	n/a	n/a	n/a	1	12	8	2	2
152747	PROB	n/a	LTP393	ltpFR2	9	n/a	n/a	n/a	1	22	8	7	7
155580	PROB	n/a	LTP393	ltpFR2	9	n/a	n/a	n/a	1	17	6	8	3
158604	STOP	n/a	LTP393	ltpFR2	9	n/a	n/a	n/a	1	n/a	n/a	n/a	n/a
161764	REC_START	n/a	LTP393	ltpFR2	9	1	n/a	n/a	n/a	n/a	0	0	0
163694	REC_WORD	wordpools/wasnorm_wordpool_576.txt	LTP393	ltpFR2	9	1	OX	994	n/a	n/a	0	0	0
164851	REC_WORD	wordpools/wasnorm_wordpool_576.txt	LTP393	ltpFR2	9	1	LION	827	n/a	n/a	0	0	0
166284	REC_WORD	wordpools/wasnorm_wordpool_576.txt	LTP393	ltpFR2	9	1	BEAVER	109	n/a	n/a	0	0	0
168270	REC_WORD	wordpools/wasnorm_wordpool_576.txt	LTP393	ltpFR2	9	1	EAGLE	512	n/a	n/a	0	0	0
169852	REC_WORD	wordpools/wasnorm_wordpool_576.txt	LTP393	ltpFR2	9	1	TROUT	1511	n/a	n/a	0	0	0
181948	REC_WORD	wordpools/wasnorm_wordpool_576.txt	LTP393	ltpFR2	9	1	CARRIAGE	248	n/a	n/a	0	0	0
183088	REC_WORD	wordpools/wasnorm_wordpool_576.txt	LTP393	ltpFR2	9	1	OUTDOORS	987	n/a	n/a	0	0	0
185100	REC_WORD	wordpools/wasnorm_wordpool_576.txt	LTP393	ltpFR2	9	1	PATROL	1027	n/a	n/a	0	0	0
186922	REC_WORD	wordpools/wasnorm_wordpool_576.txt	LTP393	ltpFR2	9	1	EMPIRE	530	n/a	n/a	0	0	0
193129	REC_WORD	wordpools/wasnorm_wordpool_576.txt	LTP393	ltpFR2	9	1	HUSBAND	728	n/a	n/a	0	0	0
194523	REC_WORD	wordpools/wasnorm_wordpool_576.txt	LTP393	ltpFR2	9	1	CHILD	299	n/a	n/a	0	0	0
222411	REC_WORD	wordpools/wasnorm_wordpool_576.txt	LTP393	ltpFR2	9	1	SCALLOP	1242	n/a	n/a	0	0	0
252195	DISTRACTOR	n/a	LTP393	ltpFR2	9	2	n/a	n/a	n/a	n/a	0	0	0
252195	START	n/a	LTP393	ltpFR2	9	n/a	n/a	n/a	2	n/a	n/a	n/a	n/a
252212	PROB	n/a	LTP393	ltpFR2	9	n/a	n/a	n/a	2	17	5	7	5
254262	PROB	n/a	LTP393	ltpFR2	9	n/a	n/a	n/a	2	23	7	7	9
257062	PROB	n/a	LTP393	ltpFR2	9	n/a	n/a	n/a	2	17	1	7	9
259479	PROB	n/a	LTP393	ltpFR2	9	n/a	n/a	n/a	2	17	2	8	7
261312	PROB	n/a	LTP393	ltpFR2	9	n/a	n/a	n/a	2	11	2	8	1
263545	PROB	n/a	LTP393	ltpFR2	9	n/a	n/a	n/a	2	18	6	7	5
265628	PROB	n/a	LTP393	ltpFR2	9	n/a	n/a	n/a	2	19	9	7	3
267062	PROB	n/a	LTP393	ltpFR2	9	n/a	n/a	n/a	2	19	9	5	5
270612	PROB	n/a	LTP393	ltpFR2	9	n/a	n/a	n/a	2	14	5	3	6
276195	STOP	n/a	LTP393	ltpFR2	9	n/a	n/a	n/a	2	n/a	n/a	n/a	n/a
277211	WORD	wordpools/wasnorm_wordpool_576.txt	LTP393	ltpFR2	9	2	CLOTHES	327	n/a	n/a	0	0	0
279912	WORD	wordpools/wasnorm_wordpool_576.txt	LTP393	ltpFR2	9	2	BOX	159	n/a	n/a	0	0	0
282561	WORD	wordpools/wasnorm_wordpool_576.txt	LTP393	ltpFR2	9	2	SODA	1341	n/a	n/a	0	0	0
285311	WORD	wordpools/wasnorm_wordpool_576.txt	LTP393	ltpFR2	9	2	VENUS	1557	n/a	n/a	0	0	0
287845	WORD	wordpools/wasnorm_wordpool_576.txt	LTP393	ltpFR2	9	2	GRAVE	658	n/a	n/a	0	0	0
290511	WORD	wordpools/wasnorm_wordpool_576.txt	LTP393	ltpFR2	9	2	JELLY	755	n/a	n/a	0	0	0
293211	WORD	wordpools/wasnorm_wordpool_576.txt	LTP393	ltpFR2	9	2	BABY	64	n/a	n/a	0	0	0
295995	WORD	wordpools/wasnorm_wordpool_576.txt	LTP393	ltpFR2	9	2	CHAUFFEUR	283	n/a	n/a	0	0	0
298461	WORD	wordpools/wasnorm_wordpool_576.txt	LTP393	ltpFR2	9	2	TRANSPLANT	1496	n/a	n/a	0	0	0
301228	WORD	wordpools/wasnorm_wordpool_576.txt	LTP393	ltpFR2	9	2	SLIME	1327	n/a	n/a	0	0	0
303861	WORD	wordpools/wasnorm_wordpool_576.txt	LTP393	ltpFR2	9	2	GREASE	660	n/a	n/a	0	0	0
306661	WORD	wordpools/wasnorm_wordpool_576.txt	LTP393	ltpFR2	9	2	VALVE	1546	n/a	n/a	0	0	0
309128	WORD	wordpools/wasnorm_wordpool_576.txt	LTP393	ltpFR2	9	2	CLOCK	325	n/a	n/a	0	0	0
311894	WORD	wordpools/wasnorm_wordpool_576.txt	LTP393	ltpFR2	9	2	TAXI	1438	n/a	n/a	0	0	0
314361	WORD	wordpools/wasnorm_wordpool_576.txt	LTP393	ltpFR2	9	2	BREAST	171	n/a	n/a	0	0	0
316978	WORD	wordpools/wasnorm_wordpool_576.txt	LTP393	ltpFR2	9	2	SIBLING	1301	n/a	n/a	0	0	0
319761	WORD	wordpools/wasnorm_wordpool_576.txt	LTP393	ltpFR2	9	2	NEUTRON	947	n/a	n/a	0	0	0
322444	WORD	wordpools/wasnorm_wordpool_576.txt	LTP393	ltpFR2	9	2	PROTON	1132	n/a	n/a	0	0	0
324994	WORD	wordpools/wasnorm_wordpool_576.txt	LTP393	ltpFR2	9	2	DENIM	446	n/a	n/a	0	0	0
327511	WORD	wordpools/wasnorm_wordpool_576.txt	LTP393	ltpFR2	9	2	INFANT	737	n/a	n/a	0	0	0
330077	WORD	wordpools/wasnorm_wordpool_576.txt	LTP393	ltpFR2	9	2	JELLO	754	n/a	n/a	0	0	0
332744	WORD	wordpools/wasnorm_wordpool_576.txt	LTP393	ltpFR2	9	2	GIFT	635	n/a	n/a	0	0	0
335244	WORD	wordpools/wasnorm_wordpool_576.txt	LTP393	ltpFR2	9	2	CLAM	315	n/a	n/a	0	0	0
337911	WORD	wordpools/wasnorm_wordpool_576.txt	LTP393	ltpFR2	9	2	CORAL	378	n/a	n/a	0	0	0
339527	START	n/a	LTP393	ltpFR2	9	n/a	n/a	n/a	3	n/a	n/a	n/a	n/a
340551	DISTRACTOR	n/a	LTP393	ltpFR2	9	2	n/a	n/a	n/a	n/a	0	0	0
340561	PROB	n/a	LTP393	ltpFR2	9	n/a	n/a	n/a	3	16	7	1	8
342827	PROB	n/a	LTP393	ltpFR2	9	n/a	n/a	n/a	3	20	4	9	7
345644	PROB	n/a	LTP393	ltpFR2	9	n/a	n/a	n/a	3	6	2	2	2
346827	PROB	n/a	LTP393	ltpFR2	9	n/a	n/a	n/a	3	12	4	2	6
348427	PROB	n/a	LTP393	ltpFR2	9	n/a	n/a	n/a	3	18	4	8	6
350444	PROB	n/a	LTP393	ltpFR2	9	n/a	n/a	n/a	3	21	8	7	6
352360	PROB	n/a	LTP393	ltpFR2	9	n/a	n/a	n/a	3	17	8	7	2
355044	PROB	n/a	LTP393	ltpFR2	9	n/a	n/a	n/a	3	14	4	1	9
357244	PROB	n/a	LTP393	ltpFR2	9	n/a	n/a	n/a	3	15	7	5	3
359227	PROB	n/a	LTP393	ltpFR2	9	n/a	n/a	n/a	3	10	6	1	3
362338	STOP	n/a	LTP393	ltpFR2	9	n/a	n/a	n/a	3	n/a	n/a	n/a	n/a
365427	REC_START	n/a	LTP393	ltpFR2	9	2	n/a	n/a	n/a	n/a	0	0	0
366132	REC_WORD	wordpools/wasnorm_wordpool_576.txt	LTP393	ltpFR2	9	2	CLAM	315	n/a	n/a	0	0	0
368253	REC_WORD	wordpools/wasnorm_wordpool_576.txt	LTP393	ltpFR2	9	2	PROTON	1132	n/a	n/a	0	0	0
369361	REC_WORD	wordpools/wasnorm_wordpool_576.txt	LTP393	ltpFR2	9	2	NEUTRON	947	n/a	n/a	0	0	0
370951	REC_WORD	wordpools/wasnorm_wordpool_576.txt	LTP393	ltpFR2	9	2	BROTHER	179	n/a	n/a	0	0	0
376125	REC_WORD	wordpools/wasnorm_wordpool_576.txt	LTP393	ltpFR2	9	2	VENUS	1557	n/a	n/a	0	0	0
417010	REC_WORD	wordpools/wasnorm_wordpool_576.txt	LTP393	ltpFR2	9	2	CORAL	378	n/a	n/a	0	0	0
455892	WORD	wordpools/wasnorm_wordpool_576.txt	LTP393	ltpFR2	9	3	SIDEWALK	1303	n/a	n/a	0	0	0
458542	WORD	wordpools/wasnorm_wordpool_576.txt	LTP393	ltpFR2	9	3	RIFLE	1192	n/a	n/a	0	0	0
461209	WORD	wordpools/wasnorm_wordpool_576.txt	LTP393	ltpFR2	9	3	SOFTBALL	1343	n/a	n/a	0	0	0
463742	WORD	wordpools/wasnorm_wordpool_576.txt	LTP393	ltpFR2	9	3	RACKET	1155	n/a	n/a	0	0	0
466525	WORD	wordpools/wasnorm_wordpool_576.txt	LTP393	ltpFR2	9	3	COMET	353	n/a	n/a	0	0	0
469158	WORD	wordpools/wasnorm_wordpool_576.txt	LTP393	ltpFR2	9	3	SHORTS	1293	n/a	n/a	0	0	0
471808	WORD	wordpools/wasnorm_wordpool_576.txt	LTP393	ltpFR2	9	3	ZIPPER	1636	n/a	n/a	0	0	0
474392	WORD	wordpools/wasnorm_wordpool_576.txt	LTP393	ltpFR2	9	3	LOFT	840	n/a	n/a	0	0	0
476925	WORD	wordpools/wasnorm_wordpool_576.txt	LTP393	ltpFR2	9	3	OYSTER	995	n/a	n/a	0	0	0
479641	WORD	wordpools/wasnorm_wordpool_576.txt	LTP393	ltpFR2	9	3	BULLET	194	n/a	n/a	0	0	0
482208	WORD	wordpools/wasnorm_wordpool_576.txt	LTP393	ltpFR2	9	3	HELMET	702	n/a	n/a	0	0	0
484925	WORD	wordpools/wasnorm_wordpool_576.txt	LTP393	ltpFR2	9	3	IGLOO	734	n/a	n/a	0	0	0
487726	WORD	wordpools/wasnorm_wordpool_576.txt	LTP393	ltpFR2	9	3	CRICKET	408	n/a	n/a	0	0	0
490425	WORD	wordpools/wasnorm_wordpool_576.txt	LTP393	ltpFR2	9	3	TABLE	1426	n/a	n/a	0	0	0
493041	WORD	wordpools/wasnorm_wordpool_576.txt	LTP393	ltpFR2	9	3	GIRL	637	n/a	n/a	0	0	0
495858	WORD	wordpools/wasnorm_wordpool_576.txt	LTP393	ltpFR2	9	3	GARBAGE	622	n/a	n/a	0	0	0
498524	WORD	wordpools/wasnorm_wordpool_576.txt	LTP393	ltpFR2	9	3	LIVER	833	n/a	n/a	0	0	0
501108	WORD	wordpools/wasnorm_wordpool_576.txt	LTP393	ltpFR2	9	3	CLAMP	316	n/a	n/a	0	0	0
503591	WORD	wordpools/wasnorm_wordpool_576.txt	LTP393	ltpFR2	9	3	ROBIN	1199	n/a	n/a	0	0	0
506108	WORD	wordpools/wasnorm_wordpool_576.txt	LTP393	ltpFR2	9	3	SCARECROW	1245	n/a	n/a	0	0	0
508775	WORD	wordpools/wasnorm_wordpool_576.txt	LTP393	ltpFR2	9	3	STUDENT	1395	n/a	n/a	0	0	0
511241	WORD	wordpools/wasnorm_wordpool_576.txt	LTP393	ltpFR2	9	3	KLEENEX	782	n/a	n/a	0	0	0
514058	WORD	wordpools/wasnorm_wordpool_576.txt	LTP393	ltpFR2	9	3	ACTRESS	6	n/a	n/a	0	0	0
516758	WORD	wordpools/wasnorm_wordpool_576.txt	LTP393	ltpFR2	9	3	SWITCH	1422	n/a	n/a	0	0	0
518374	START	n/a	LTP393	ltpFR2	9	n/a	n/a	n/a	4	n/a	n/a	n/a	n/a
519208	DISTRACTOR	n/a	LTP393	ltpFR2	9	3	n/a	n/a	n/a	n/a	0	0	0
519224	PROB	n/a	LTP393	ltpFR2	9	n/a	n/a	n/a	4	17	9	4	4
525257	PROB	n/a	LTP393	ltpFR2	9	n/a	n/a	n/a	4	13	6	2	5
528357	PROB	n/a	LTP393	ltpFR2	9	n/a	n/a	n/a	4	7	1	2	4
530191	PROB	n/a	LTP393	ltpFR2	9	n/a	n/a	n/a	4	9	2	2	5
531991	PROB	n/a	LTP393	ltpFR2	9	n/a	n/a	n/a	4	17	7	6	4
534157	PROB	n/a	LTP393	ltpFR2	9	n/a	n/a	n/a	4	16	1	7	8
536024	PROB	n/a	LTP393	ltpFR2	9	n/a	n/a	n/a	4	17	6	3	8
538041	PROB	n/a	LTP393	ltpFR2	9	n/a	n/a	n/a	4	13	2	2	9
540407	PROB	n/a	LTP393	ltpFR2	9	n/a	n/a	n/a	4	14	5	2	7
542247	STOP	n/a	LTP393	ltpFR2	9	n/a	n/a	n/a	4	n/a	n/a	n/a	n/a
544324	REC_START	n/a	LTP393	ltpFR2	9	3	n/a	n/a	n/a	n/a	0	0	0
549970	REC_WORD	wordpools/wasnorm_wordpool_576.txt	LTP393	ltpFR2	9	3	MAP	865	n/a	n/a	0	0	0
557573	REC_WORD	wordpools/wasnorm_wordpool_576.txt	LTP393	ltpFR2	9	3	ACTRESS	6	n/a	n/a	0	0	0
558843	REC_WORD	wordpools/wasnorm_wordpool_576.txt	LTP393	ltpFR2	9	3	ACTOR	5	n/a	n/a	0	0	0
565409	REC_WORD	wordpools/wasnorm_wordpool_576.txt	LTP393	ltpFR2	9	3	SCARECROW	1245	n/a	n/a	0	0	0
569219	REC_WORD	wordpools/wasnorm_wordpool_576.txt	LTP393	ltpFR2	9	3	KLEENEX	782	n/a	n/a	0	0	0
634772	WORD	wordpools/wasnorm_wordpool_576.txt	LTP393	ltpFR2	9	4	HOSTESS	723	n/a	n/a	0	0	0
637256	WORD	wordpools/wasnorm_wordpool_576.txt	LTP393	ltpFR2	9	4	PASTRY	1022	n/a	n/a	0	0	0
639839	WORD	wordpools/wasnorm_wordpool_576.txt	LTP393	ltpFR2	9	4	MARROW	872	n/a	n/a	0	0	0
642656	WORD	wordpools/wasnorm_wordpool_576.txt	LTP393	ltpFR2	9	4	UMPIRE	1535	n/a	n/a	0	0	0
645106	WORD	wordpools/wasnorm_wordpool_576.txt	LTP393	ltpFR2	9	4	BANQUET	86	n/a	n/a	0	0	0
647806	WORD	wordpools/wasnorm_wordpool_576.txt	LTP393	ltpFR2	9	4	PIGEON	1065	n/a	n/a	0	0	0
650555	WORD	wordpools/wasnorm_wordpool_576.txt	LTP393	ltpFR2	9	4	PIMPLE	1071	n/a	n/a	0	0	0
653339	WORD	wordpools/wasnorm_wordpool_576.txt	LTP393	ltpFR2	9	4	AIRPLANE	12	n/a	n/a	0	0	0
655905	WORD	wordpools/wasnorm_wordpool_576.txt	LTP393	ltpFR2	9	4	POET	1095	n/a	n/a	0	0	0
658422	WORD	wordpools/wasnorm_wordpool_576.txt	LTP393	ltpFR2	9	4	SKILLET	1317	n/a	n/a	0	0	0
661222	WORD	wordpools/wasnorm_wordpool_576.txt	LTP393	ltpFR2	9	4	BUTCHER	203	n/a	n/a	0	0	0
664005	WORD	wordpools/wasnorm_wordpool_576.txt	LTP393	ltpFR2	9	4	VICTIM	1562	n/a	n/a	0	0	0
666655	WORD	wordpools/wasnorm_wordpool_576.txt	LTP393	ltpFR2	9	4	BUGGY	188	n/a	n/a	0	0	0
669089	WORD	wordpools/wasnorm_wordpool_576.txt	LTP393	ltpFR2	9	4	MOTOR	922	n/a	n/a	0	0	0
671788	WORD	wordpools/wasnorm_wordpool_576.txt	LTP393	ltpFR2	9	4	DRESS	495	n/a	n/a	0	0	0
674422	WORD	wordpools/wasnorm_wordpool_576.txt	LTP393	ltpFR2	9	4	VALLEY	1545	n/a	n/a	0	0	0
677105	WORD	wordpools/wasnorm_wordpool_576.txt	LTP393	ltpFR2	9	4	AIRPORT	13	n/a	n/a	0	0	0
679572	WORD	wordpools/wasnorm_wordpool_576.txt	LTP393	ltpFR2	9	4	SPHINX	1349	n/a	n/a	0	0	0
682372	WORD	wordpools/wasnorm_wordpool_576.txt	LTP393	ltpFR2	9	4	SHRUB	1299	n/a	n/a	0	0	0
684822	WORD	wordpools/wasnorm_wordpool_576.txt	LTP393	ltpFR2	9	4	HEDGE	699	n/a	n/a	0	0	0
687305	WORD	wordpools/wasnorm_wordpool_576.txt	LTP393	ltpFR2	9	4	STONE	1385	n/a	n/a	0	0	0
689855	WORD	wordpools/wasnorm_wordpool_576.txt	LTP393	ltpFR2	9	4	STATUE	1374	n/a	n/a	0	0	0
692638	WORD	wordpools/wasnorm_wordpool_576.txt	LTP393	ltpFR2	9	4	BLOUSE	139	n/a	n/a	0	0	0
695105	WORD	wordpools/wasnorm_wordpool_576.txt	LTP393	ltpFR2	9	4	CANYON	235	n/a	n/a	0	0	0
696723	START	n/a	LTP393	ltpFR2	9	n/a	n/a	n/a	5	n/a	n/a	n/a	n/a
697888	DISTRACTOR	n/a	LTP393	ltpFR2	9	4	n/a	n/a	n/a	n/a	0	0	0
697905	PROB	n/a	LTP393	ltpFR2	9	n/a	n/a	n/a	5	14	5	3	6
720164	STOP	n/a	LTP393	ltpFR2	9	n/a	n/a	n/a	5	n/a	n/a	n/a	n/a
722621	REC_START	n/a	LTP393	ltpFR2	9	4	n/a	n/a	n/a	n/a	0	0	0
726712	REC_WORD	wordpools/wasnorm_wordpool_576.txt	LTP393	ltpFR2	9	4	HOSTESS	723	n/a	n/a	0	0	0
728746	REC_WORD	wordpools/wasnorm_wordpool_576.txt	LTP393	ltpFR2	9	4	PASTRY	1022	n/a	n/a	0	0	0
730864	REC_WORD	wordpools/wasnorm_wordpool_576.txt	LTP393	ltpFR2	9	4	PITCHER	-1	n/a	n/a	0	0	0
732710	REC_WORD	wordpools/wasnorm_wordpool_576.txt	LTP393	ltpFR2	9	4	PIMPLE	1071	n/a	n/a	0	0	0
734551	REC_WORD	wordpools/wasnorm_wordpool_576.txt	LTP393	ltpFR2	9	4	UNCLE	1536	n/a	n/a	0	0	0
736367	REC_WORD	wordpools/wasnorm_wordpool_576.txt	LTP393	ltpFR2	9	4	UMPIRE	1535	n/a	n/a	0	0	0
738225	REC_WORD	wordpools/wasnorm_wordpool_576.txt	LTP393	ltpFR2	9	4	AIRPLANE	12	n/a	n/a	0	0	0
740279	REC_WORD	wordpools/wasnorm_wordpool_576.txt	LTP393	ltpFR2	9	4	SPHINX	1349	n/a	n/a	0	0	0
742676	REC_WORD	wordpools/wasnorm_wordpool_576.txt	LTP393	ltpFR2	9	4	BANQUET	86	n/a	n/a	0	0	0
813053	DISTRACTOR	n/a	LTP393	ltpFR2	9	5	n/a	n/a	n/a	n/a	0	0	0
813053	START	n/a	LTP393	ltpFR2	9	n/a	n/a	n/a	6	n/a	n/a	n/a	n/a
813069	PROB	n/a	LTP393	ltpFR2	9	n/a	n/a	n/a	6	17	9	7	1
816103	PROB	n/a	LTP393	ltpFR2	9	n/a	n/a	n/a	6	19	8	8	3
818303	PROB	n/a	LTP393	ltpFR2	9	n/a	n/a	n/a	6	8	1	6	1
819553	PROB	n/a	LTP393	ltpFR2	9	n/a	n/a	n/a	6	15	5	9	1
820919	PROB	n/a	LTP393	ltpFR2	9	n/a	n/a	n/a	6	15	7	1	7
822119	PROB	n/a	LTP393	ltpFR2	9	n/a	n/a	n/a	6	12	5	1	6
824736	PROB	n/a	LTP393	ltpFR2	9	n/a	n/a	n/a	6	17	1	7	9
827136	PROB	n/a	LTP393	ltpFR2	9	n/a	n/a	n/a	6	19	7	9	3
831586	PROB	n/a	LTP393	ltpFR2	9	n/a	n/a	n/a	6	11	4	6	1
832969	PROB	n/a	LTP393	ltpFR2	9	n/a	n/a	n/a	6	16	5	9	2
837040	STOP	n/a	LTP393	ltpFR2	9	n/a	n/a	n/a	6	n/a	n/a	n/a	n/a
838052	WORD	wordpools/wasnorm_wordpool_576.txt	LTP393	ltpFR2	9	5	OUTFIT	988	n/a	n/a	0	0	0
840602	WORD	wordpools/wasnorm_wordpool_576.txt	LTP393	ltpFR2	9	5	LAVA	804	n/a	n/a	0	0	0
843102	WORD	wordpools/wasnorm_wordpool_576.txt	LTP393	ltpFR2	9	5	ICING	732	n/a	n/a	0	0	0
845802	WORD	wordpools/wasnorm_wordpool_576.txt	LTP393	ltpFR2	9	5	LILY	821	n/a	n/a	0	0	0
848402	WORD	wordpools/wasnorm_wordpool_576.txt	LTP393	ltpFR2	9	5	BIKE	125	n/a	n/a	0	0	0
851002	WORD	wordpools/wasnorm_wordpool_576.txt	LTP393	ltpFR2	9	5	TWISTER	1530	n/a	n/a	0	0	0
853686	WORD	wordpools/wasnorm_wordpool_576.txt	LTP393	ltpFR2	9	5	MAPLE	866	n/a	n/a	0	0	0
856235	WORD	wordpools/wasnorm_wordpool_576.txt	LTP393	ltpFR2	9	5	FRIAR	605	n/a	n/a	0	0	0
858919	WORD	wordpools/wasnorm_wordpool_576.txt	LTP393	ltpFR2	9	5	SPOON	1357	n/a	n/a	0	0	0
861585	WORD	wordpools/wasnorm_wordpool_576.txt	LTP393	ltpFR2	9	5	CASHEW	253	n/a	n/a	0	0	0
864219	WORD	wordpools/wasnorm_wordpool_576.txt	LTP393	ltpFR2	9	5	BINDER	127	n/a	n/a	0	0	0
866769	WORD	wordpools/wasnorm_wordpool_576.txt	LTP393	ltpFR2	9	5	AUTHOR	61	n/a	n/a	0	0	0
869569	WORD	wordpools/wasnorm_wordpool_576.txt	LTP393	ltpFR2	9	5	PUDDING	1139	n/a	n/a	0	0	0
872169	WORD	wordpools/wasnorm_wordpool_576.txt	LTP393	ltpFR2	9	5	LIZARD	834	n/a	n/a	0	0	0
874935	WORD	wordpools/wasnorm_wordpool_576.txt	LTP393	ltpFR2	9	5	STAPLE	1371	n/a	n/a	0	0	0
877502	WORD	wordpools/wasnorm_wordpool_576.txt	LTP393	ltpFR2	9	5	MILDEW	893	n/a	n/a	0	0	0
880268	WORD	wordpools/wasnorm_wordpool_576.txt	LTP393	ltpFR2	9	5	COOK	372	n/a	n/a	0	0	0
882785	WORD	wordpools/wasnorm_wordpool_576.txt	LTP393	ltpFR2	9	5	TOASTER	1472	n/a	n/a	0	0	0
885335	WORD	wordpools/wasnorm_wordpool_576.txt	LTP393	ltpFR2	9	5	LUGGAGE	847	n/a	n/a	0	0	0
888135	WORD	wordpools/wasnorm_wordpool_576.txt	LTP393	ltpFR2	9	5	MARS	873	n/a	n/a	0	0	0
890785	WORD	wordpools/wasnorm_wordpool_576.txt	LTP393	ltpFR2	9	5	PARSLEY	1016	n/a	n/a	0	0	0
893385	WORD	wordpools/wasnorm_wordpool_576.txt	LTP393	ltpFR2	9	5	PERFUME	1049	n/a	n/a	0	0	0
896152	WORD	wordpools/wasnorm_wordpool_576.txt	LTP393	ltpFR2	9	5	BOUQUET	157	n/a	n/a	0	0	0
898618	WORD	wordpools/wasnorm_wordpool_576.txt	LTP393	ltpFR2	9	5	PLUTO	1092	n/a	n/a	0	0	0
900235	START	n/a	LTP393	ltpFR2	9	n/a	n/a	n/a	7	n/a	n/a	n/a	n/a
901173	DISTRACTOR	n/a	LTP393	ltpFR2	9	5	n/a	n/a	n/a	n/a	0	0	0
901185	PROB	n/a	LTP393	ltpFR2	9	n/a	n/a	n/a	7	12	3	6	3
904868	PROB	n/a	LTP393	ltpFR2	9	n/a	n/a	n/a	7	20	6	5	9
907151	PROB	n/a	LTP393	ltpFR2	9	n/a	n/a	n/a	7	10	4	4	3
909618	PROB	n/a	LTP393	ltpFR2	9	n/a	n/a	n/a	7	14	5	7	2
911401	PROB	n/a	LTP393	ltpFR2	9	n/a	n/a	n/a	7	10	1	7	2
912951	PROB	n/a	LTP393	ltpFR2	9	n/a	n/a	n/a	7	9	3	5	1
914801	PROB	n/a	LTP393	ltpFR2	9	n/a	n/a	n/a	7	16	8	6	2
917018	PROB	n/a	LTP393	ltpFR2	9	n/a	n/a	n/a	7	8	1	3	4
918651	PROB	n/a	LTP393	ltpFR2	9	n/a	n/a	n/a	7	7	1	1	5
920868	PROB	n/a	LTP393	ltpFR2	9	n/a	n/a	n/a	7	24	6	9	9
923538	STOP	n/a	LTP393	ltpFR2	9	n/a	n/a	n/a	7	n/a	n/a	n/a	n/a
926002	REC_START	n/a	LTP393	ltpFR2	9	5	n/a	n/a	n/a	n/a	0	0	0
927300	REC_WORD	wordpools/wasnorm_wordpool_576.txt	LTP393	ltpFR2	9	5	PLUTO	1092	n/a	n/a	0	0	0
928434	REC_WORD	wordpools/wasnorm_wordpool_576.txt	LTP393	ltpFR2	9	5	PATROL	1027	n/a	n/a	0	0	0
1016449	DISTRACTOR	n/a	LTP393	ltpFR2	9	6	n/a	n/a	n/a	n/a	0	0	0
1016450	START	n/a	LTP393	ltpFR2	9	n/a	n/a	n/a	8	n/a	n/a	n/a	n/a
1016466	PROB	n/a	LTP393	ltpFR2	9	n/a	n/a	n/a	8	12	3	6	3
1020133	PROB	n/a	LTP393	ltpFR2	9	n/a	n/a	n/a	8	19	9	8	2
1022116	PROB	n/a	LTP393	ltpFR2	9	n/a	n/a	n/a	8	1	1	8	5
1024299	PROB	n/a	LTP393	ltpFR2	9	n/a	n/a	n/a	8	421	7	5	9
1026766	PROB	n/a	LTP393	ltpFR2	9	n/a	n/a	n/a	8	15	7	3	5
1028249	PROB	n/a	LTP393	ltpFR2	9	n/a	n/a	n/a	8	13	5	1	7
1030649	PROB	n/a	LTP393	ltpFR2	9	n/a	n/a	n/a	8	12	5	3	4
1032566	PROB	n/a	LTP393	ltpFR2	9	n/a	n/a	n/a	8	7	3	2	2
1034733	PROB	n/a	LTP393	ltpFR2	9	n/a	n/a	n/a	8	20	6	5	9
1040450	STOP	n/a	LTP393	ltpFR2	9	n/a	n/a	n/a	8	n/a	n/a	n/a	n/a
1041532	WORD	wordpools/wasnorm_wordpool_576.txt	LTP393	ltpFR2	9	6	QUARTER	1148	n/a	n/a	0	0	0
1044032	WORD	wordpools/wasnorm_wordpool_576.txt	LTP393	ltpFR2	9	6	BEEF	113	n/a	n/a	0	0	0
1046699	WORD	wordpools/wasnorm_wordpool_576.txt	LTP393	ltpFR2	9	6	PECAN	1036	n/a	n/a	0	0	0
1049332	WORD	wordpools/wasnorm_wordpool_576.txt	LTP393	ltpFR2	9	6	KETCHUP	771	n/a	n/a	0	0	0
1051882	WORD	wordpools/wasnorm_wordpool_576.txt	LTP393	ltpFR2	9	6	PICTURE	1061	n/a	n/a	0	0	0
1054432	WORD	wordpools/wasnorm_wordpool_576.txt	LTP393	ltpFR2	9	6	PEANUT	1032	n/a	n/a	0	0	0
1056899	WORD	wordpools/wasnorm_wordpool_576.txt	LTP393	ltpFR2	9	6	WAITER	1580	n/a	n/a	0	0	0
1059349	WORD	wordpools/wasnorm_wordpool_576.txt	LTP393	ltpFR2	9	6	CYCLONE	431	n/a	n/a	0	0	0
1062015	WORD	wordpools/wasnorm_wordpool_576.txt	LTP393	ltpFR2	9	6	GLOVE	642	n/a	n/a	0	0	0
1064765	WORD	wordpools/wasnorm_wordpool_576.txt	LTP393	ltpFR2	9	6	WRIST	1626	n/a	n/a	0	0	0
1067299	WORD	wordpools/wasnorm_wordpool_576.txt	LTP393	ltpFR2	9	6	ULCER	1533	n/a	n/a	0	0	0
1069815	WORD	wordpools/wasnorm_wordpool_576.txt	LTP393	ltpFR2	9	6	LUMBER	848	n/a	n/a	0	0	0
1072432	WORD	wordpools/wasnorm_wordpool_576.txt	LTP393	ltpFR2	9	6	BEAST	108	n/a	n/a	0	0	0
1075098	WORD	wordpools/wasnorm_wordpool_576.txt	LTP393	ltpFR2	9	6	CREATURE	403	n/a	n/a	0	0	0
1077599	WORD	wordpools/wasnorm_wordpool_576.txt	LTP393	ltpFR2	9	6	HIKER	708	n/a	n/a	0	0	0
1080032	WORD	wordpools/wasnorm_wordpool_576.txt	LTP393	ltpFR2	9	6	MEAT	883	n/a	n/a	0	0	0
1082648	WORD	wordpools/wasnorm_wordpool_576.txt	LTP393	ltpFR2	9	6	INMATE	738	n/a	n/a	0	0	0
1085298	WORD	wordpools/wasnorm_wordpool_576.txt	LTP393	ltpFR2	9	6	FOREST	593	n/a	n/a	0	0	0
1088015	WORD	wordpools/wasnorm_wordpool_576.txt	LTP393	ltpFR2	9	6	PLAZA	1088	n/a	n/a	0	0	0
1090498	WORD	wordpools/wasnorm_wordpool_576.txt	LTP393	ltpFR2	9	6	CASHIER	254	n/a	n/a	0	0	0
1092998	WORD	wordpools/wasnorm_wordpool_576.txt	LTP393	ltpFR2	9	6	DORM	488	n/a	n/a	0	0	0
1095665	WORD	wordpools/wasnorm_wordpool_576.txt	LTP393	ltpFR2	9	6	JUNGLE	764	n/a	n/a	0	0	0
1098332	WORD	wordpools/wasnorm_wordpool_576.txt	LTP393	ltpFR2	9	6	COOKBOOK	373	n/a	n/a	0	0	0
1100815	WORD	wordpools/wasnorm_wordpool_576.txt	LTP393	ltpFR2	9	6	ATOM	55	n/a	n/a	0	0	0
1102432	START	n/a	LTP393	ltpFR2	9	n/a	n/a	n/a	9	n/a	n/a	n/a	n/a
1103507	DISTRACTOR	n/a	LTP393	ltpFR2	9	6	n/a	n/a	n/a	n/a	0	0	0
1103515	PROB	n/a	LTP393	ltpFR2	9	n/a	n/a	n/a	9	20	9	4	7
1115298	PROB	n/a	LTP393	ltpFR2	9	n/a	n/a	n/a	9	13	2	8	3
1116998	PROB	n/a	LTP393	ltpFR2	9	n/a	n/a	n/a	9	9	7	1	1
1118748	PROB	n/a	LTP393	ltpFR2	9	n/a	n/a	n/a	9	24	8	9	7
1122714	PROB	n/a	LTP393	ltpFR2	9	n/a	n/a	n/a	9	13	7	2	4
1125698	STOP	n/a	LTP393	ltpFR2	9	n/a	n/a	n/a	9	n/a	n/a	n/a	n/a
1128381	REC_START	n/a	LTP393	ltpFR2	9	6	n/a	n/a	n/a	n/a	0	0	0
1135219	REC_WORD	wordpools/wasnorm_wordpool_576.txt	LTP393	ltpFR2	9	6	QUARTER	1148	n/a	n/a	0	0	0
1137037	REC_WORD	wordpools/wasnorm_wordpool_576.txt	LTP393	ltpFR2	9	6	BEEF	113	n/a	n/a	0	0	0
1138875	REC_WORD	wordpools/wasnorm_wordpool_576.txt	LTP393	ltpFR2	9	6	KETCHUP	771	n/a	n/a	0	0	0
1218846	WORD	wordpools/wasnorm_wordpool_576.txt	LTP393	ltpFR2	9	7	GUARD	667	n/a	n/a	0	0	0
1221279	WORD	wordpools/wasnorm_wordpool_576.txt	LTP393	ltpFR2	9	7	JEANS	752	n/a	n/a	0	0	0
1223913	WORD	wordpools/wasnorm_wordpool_576.txt	LTP393	ltpFR2	9	7	COUNTRY	388	n/a	n/a	0	0	0
1226463	WORD	wordpools/wasnorm_wordpool_576.txt	LTP393	ltpFR2	9	7	WORLD	1622	n/a	n/a	0	0	0
1229046	WORD	wordpools/wasnorm_wordpool_576.txt	LTP393	ltpFR2	9	7	BARREL	91	n/a	n/a	0	0	0
1231729	WORD	wordpools/wasnorm_wordpool_576.txt	LTP393	ltpFR2	9	7	MESSAGE	888	n/a	n/a	0	0	0
1234346	WORD	wordpools/wasnorm_wordpool_576.txt	LTP393	ltpFR2	9	7	MUSTARD	935	n/a	n/a	0	0	0
1236929	WORD	wordpools/wasnorm_wordpool_576.txt	LTP393	ltpFR2	9	7	COTTAGE	384	n/a	n/a	0	0	0
1239412	WORD	wordpools/wasnorm_wordpool_576.txt	LTP393	ltpFR2	9	7	SLOPE	1328	n/a	n/a	0	0	0
1241996	WORD	wordpools/wasnorm_wordpool_576.txt	LTP393	ltpFR2	9	7	HAMPER	682	n/a	n/a	0	0	0
1244796	WORD	wordpools/wasnorm_wordpool_576.txt	LTP393	ltpFR2	9	7	GYMNAST	675	n/a	n/a	0	0	0
1247346	WORD	wordpools/wasnorm_wordpool_576.txt	LTP393	ltpFR2	9	7	FOREHEAD	592	n/a	n/a	0	0	0
1249912	WORD	wordpools/wasnorm_wordpool_576.txt	LTP393	ltpFR2	9	7	PIZZA	1079	n/a	n/a	0	0	0
1252346	WORD	wordpools/wasnorm_wordpool_576.txt	LTP393	ltpFR2	9	7	TRACTOR	1493	n/a	n/a	0	0	0
1254896	WORD	wordpools/wasnorm_wordpool_576.txt	LTP393	ltpFR2	9	7	BLUEPRINT	142	n/a	n/a	0	0	0
1257446	WORD	wordpools/wasnorm_wordpool_576.txt	LTP393	ltpFR2	9	7	BANJO	82	n/a	n/a	0	0	0
1260129	WORD	wordpools/wasnorm_wordpool_576.txt	LTP393	ltpFR2	9	7	RECORD	1176	n/a	n/a	0	0	0
1262929	WORD	wordpools/wasnorm_wordpool_576.txt	LTP393	ltpFR2	9	7	PLASTER	1085	n/a	n/a	0	0	0
1265695	WORD	wordpools/wasnorm_wordpool_576.txt	LTP393	ltpFR2	9	7	GLASS	639	n/a	n/a	0	0	0
1268529	WORD	wordpools/wasnorm_wordpool_576.txt	LTP393	ltpFR2	9	7	BRANDY	169	n/a	n/a	0	0	0
1271345	WORD	wordpools/wasnorm_wordpool_576.txt	LTP393	ltpFR2	9	7	COCKTAIL	338	n/a	n/a	0	0	0
1274095	WORD	wordpools/wasnorm_wordpool_576.txt	LTP393	ltpFR2	9	7	WARDROBE	1587	n/a	n/a	0	0	0
1276679	WORD	wordpools/wasnorm_wordpool_576.txt	LTP393	ltpFR2	9	7	RADISH	1158	n/a	n/a	0	0	0
1279429	WORD	wordpools/wasnorm_wordpool_576.txt	LTP393	ltpFR2	9	7	GAZELLE	628	n/a	n/a	0	0	0
1281045	START	n/a	LTP393	ltpFR2	9	n/a	n/a	n/a	10	n/a	n/a	n/a	n/a
1281845	DISTRACTOR	n/a	LTP393	ltpFR2	9	7	n/a	n/a	n/a	n/a	0	0	0
1281862	PROB	n/a	LTP393	ltpFR2	9	n/a	n/a	n/a	10	18	8	4	6
1286495	PROB	n/a	LTP393	ltpFR2	9	n/a	n/a	n/a	10	21	7	6	8
1289678	PROB	n/a	LTP393	ltpFR2	9	n/a	n/a	n/a	10	11	7	2	2
1291328	PROB	n/a	LTP393	ltpFR2	9	n/a	n/a	n/a	10	14	4	7	3
1292878	PROB	n/a	LTP393	ltpFR2	9	n/a	n/a	n/a	10	19	6	9	4
1294895	PROB	n/a	LTP393	ltpFR2	9	n/a	n/a	n/a	10	18	3	6	9
1296795	PROB	n/a	LTP393	ltpFR2	9	n/a	n/a	n/a	10	9	2	5	2
1298561	PROB	n/a	LTP393	ltpFR2	9	n/a	n/a	n/a	10	17	7	6	4
1299962	PROB	n/a	LTP393	ltpFR2	9	n/a	n/a	n/a	10	13	3	9	1
1301478	PROB	n/a	LTP393	ltpFR2	9	n/a	n/a	n/a	10	17	3	5	9
1304230	STOP	n/a	LTP393	ltpFR2	9	n/a	n/a	n/a	10	n/a	n/a	n/a	n/a
1306929	REC_START	n/a	LTP393	ltpFR2	9	7	n/a	n/a	n/a	n/a	0	0	0
1312374	REC_WORD_VV	wordpools/wasnorm_wordpool_576.txt	LTP393	ltpFR2	9	7	<>	-1	n/a	n/a	0	0	0
1315480	REC_WORD	wordpools/wasnorm_wordpool_576.txt	LTP393	ltpFR2	9	7	INMATE	738	n/a	n/a	0	0	0
1397377	DISTRACTOR	n/a	LTP393	ltpFR2	9	8	n/a	n/a	n/a	n/a	0	0	0
1397377	START	n/a	LTP393	ltpFR2	9	n/a	n/a	n/a	11	n/a	n/a	n/a	n/a
1397393	PROB	n/a	LTP393	ltpFR2	9	n/a	n/a	n/a	11	14	8	1	5
1416210	PROB	n/a	LTP393	ltpFR2	9	n/a	n/a	n/a	11	13	1	3	9
1418193	PROB	n/a	LTP393	ltpFR2	9	n/a	n/a	n/a	11	18	8	9	1
1419727	PROB	n/a	LTP393	ltpFR2	9	n/a	n/a	n/a	11	13	7	3	3
1421057	STOP	n/a	LTP393	ltpFR2	9	n/a	n/a	n/a	11	n/a	n/a	n/a	n/a
1422226	WORD	wordpools/wasnorm_wordpool_576.txt	LTP393	ltpFR2	9	8	DRINK	498	n/a	n/a	0	0	0
1424993	WORD	wordpools/wasnorm_wordpool_576.txt	LTP393	ltpFR2	9	8	BROOK	177	n/a	n/a	0	0	0
1427759	WORD	wordpools/wasnorm_wordpool_576.txt	LTP393	ltpFR2	9	8	LAGOON	795	n/a	n/a	0	0	0
1430393	WORD	wordpools/wasnorm_wordpool_576.txt	LTP393	ltpFR2	9	8	SHIRT	1287	n/a	n/a	0	0	0
1432993	WORD	wordpools/wasnorm_wordpool_576.txt	LTP393	ltpFR2	9	8	COSTUME	383	n/a	n/a	0	0	0
1435743	WORD	wordpools/wasnorm_wordpool_576.txt	LTP393	ltpFR2	9	8	ACTOR	5	n/a	n/a	0	0	0
1438259	WORD	wordpools/wasnorm_wordpool_576.txt	LTP393	ltpFR2	9	8	TWEEZERS	1526	n/a	n/a	0	0	0
1440727	WORD	wordpools/wasnorm_wordpool_576.txt	LTP393	ltpFR2	9	8	GAVEL	627	n/a	n/a	0	0	0
1443176	WORD	wordpools/wasnorm_wordpool_576.txt	LTP393	ltpFR2	9	8	SLUG	1329	n/a	n/a	0	0	0
1445692	WORD	wordpools/wasnorm_wordpool_576.txt	LTP393	ltpFR2	9	8	REPORT	1184	n/a	n/a	0	0	0
1448492	WORD	wordpools/wasnorm_wordpool_576.txt	LTP393	ltpFR2	9	8	BRIEFCASE	175	n/a	n/a	0	0	0
1451242	WORD	wordpools/wasnorm_wordpool_576.txt	LTP393	ltpFR2	9	8	JOURNAL	760	n/a	n/a	0	0	0
1453759	WORD	wordpools/wasnorm_wordpool_576.txt	LTP393	ltpFR2	9	8	APPLE	33	n/a	n/a	0	0	0
1456559	WORD	wordpools/wasnorm_wordpool_576.txt	LTP393	ltpFR2	9	8	FRIEND	606	n/a	n/a	0	0	0
1459092	WORD	wordpools/wasnorm_wordpool_576.txt	LTP393	ltpFR2	9	8	GROUND	666	n/a	n/a	0	0	0
1461809	WORD	wordpools/wasnorm_wordpool_576.txt	LTP393	ltpFR2	9	8	COUNTY	389	n/a	n/a	0	0	0
1464559	WORD	wordpools/wasnorm_wordpool_576.txt	LTP393	ltpFR2	9	8	DANDRUFF	439	n/a	n/a	0	0	0
1467009	WORD	wordpools/wasnorm_wordpool_576.txt	LTP393	ltpFR2	9	8	NOMAD	955	n/a	n/a	0	0	0
1469575	WORD	wordpools/wasnorm_wordpool_576.txt	LTP393	ltpFR2	9	8	MISTER	901	n/a	n/a	0	0	0
1472275	WORD	wordpools/wasnorm_wordpool_576.txt	LTP393	ltpFR2	9	8	ROBBER	1197	n/a	n/a	0	0	0
1474775	WORD	wordpools/wasnorm_wordpool_576.txt	LTP393	ltpFR2	9	8	FEMALE	559	n/a	n/a	0	0	0
1477275	WORD	wordpools/wasnorm_wordpool_576.txt	LTP393	ltpFR2	9	8	JUDGE	761	n/a	n/a	0	0	0
1479792	WORD	wordpools/wasnorm_wordpool_576.txt	LTP393	ltpFR2	9	8	KNAPSACK	783	n/a	n/a	0	0	0
1482575	WORD	wordpools/wasnorm_wordpool_576.txt	LTP393	ltpFR2	9	8	MARINE	869	n/a	n/a	0	0	0
1484192	START	n/a	LTP393	ltpFR2	9	n/a	n/a	n/a	12	n/a	n/a	n/a	n/a
1485027	DISTRACTOR	n/a	LTP393	ltpFR2	9	8	n/a	n/a	n/a	n/a	0	0	0
1508192	STOP	n/a	LTP393	ltpFR2	9	n/a	n/a	n/a	12	n/a	n/a	n/a	n/a
1509992	REC_START	n/a	LTP393	ltpFR2	9	8	n/a	n/a	n/a	n/a	0	0	0
1511580	REC_WORD	wordpools/wasnorm_wordpool_576.txt	LTP393	ltpFR2	9	8	BROTHER	179	n/a	n/a	0	0	0
1517316	REC_WORD	wordpools/wasnorm_wordpool_576.txt	LTP393	ltpFR2	9	8	EMPIRE	530	n/a	n/a	0	0	0
1521099	REC_WORD	wordpools/wasnorm_wordpool_576.txt	LTP393	ltpFR2	9	8	SWORD	1423	n/a	n/a	0	0	0
1523215	REC_WORD	wordpools/wasnorm_wordpool_576.txt	LTP393	ltpFR2	9	8	PICNIC	1060	n/a	n/a	0	0	0
1526492	REC_WORD_VV	wordpools/wasnorm_wordpool_576.txt	LTP393	ltpFR2	9	8	<>	-1	n/a	n/a	0	0	0
1526776	REC_WORD	wordpools/wasnorm_wordpool_576.txt	LTP393	ltpFR2	9	8	BOX	159	n/a	n/a	0	0	0
1528285	REC_WORD	wordpools/wasnorm_wordpool_576.txt	LTP393	ltpFR2	9	8	LUNCH	849	n/a	n/a	0	0	0
1586540	REST_REWET	n/a	LTP393	ltpFR2	9	8	n/a	n/a	n/a	n/a	0	0	0
1786154	DISTRACTOR	n/a	LTP393	ltpFR2	9	9	n/a	n/a	n/a	n/a	0	0	0
1786154	START	n/a	LTP393	ltpFR2	9	n/a	n/a	n/a	13	n/a	n/a	n/a	n/a
1786170	PROB	n/a	LTP393	ltpFR2	9	n/a	n/a	n/a	13	6	1	4	1
1788104	PROB	n/a	LTP393	ltpFR2	9	n/a	n/a	n/a	13	13	2	3	8
1791453	PROB	n/a	LTP393	ltpFR2	9	n/a	n/a	n/a	13	18	6	3	9
1794370	PROB	n/a	LTP393	ltpFR2	9	n/a	n/a	n/a	13	12	3	1	8
1797153	PROB	n/a	LTP393	ltpFR2	9	n/a	n/a	n/a	13	14	3	2	9
1799570	PROB	n/a	LTP393	ltpFR2	9	n/a	n/a	n/a	13	16	7	2	7
1801653	PROB	n/a	LTP393	ltpFR2	9	n/a	n/a	n/a	13	17	6	7	4
1803603	PROB	n/a	LTP393	ltpFR2	9	n/a	n/a	n/a	13	15	4	2	9
1805337	PROB	n/a	LTP393	ltpFR2	9	n/a	n/a	n/a	13	17	7	1	9
1807503	PROB	n/a	LTP393	ltpFR2	9	n/a	n/a	n/a	13	5	1	2	2
1808797	STOP	n/a	LTP393	ltpFR2	9	n/a	n/a	n/a	13	n/a	n/a	n/a	n/a
1811220	WORD	wordpools/wasnorm_wordpool_576.txt	LTP393	ltpFR2	9	9	CHEMIST	292	n/a	n/a	0	0	0
1813786	WORD	wordpools/wasnorm_wordpool_576.txt	LTP393	ltpFR2	9	9	GALLON	618	n/a	n/a	0	0	0
1816486	WORD	wordpools/wasnorm_wordpool_576.txt	LTP393	ltpFR2	9	9	MEDAL	885	n/a	n/a	0	0	0
1819103	WORD	wordpools/wasnorm_wordpool_576.txt	LTP393	ltpFR2	9	9	PUPIL	1143	n/a	n/a	0	0	0
1821853	WORD	wordpools/wasnorm_wordpool_576.txt	LTP393	ltpFR2	9	9	CROSS	413	n/a	n/a	0	0	0
1824320	WORD	wordpools/wasnorm_wordpool_576.txt	LTP393	ltpFR2	9	9	SCOTCH	1251	n/a	n/a	0	0	0
1826986	WORD	wordpools/wasnorm_wordpool_576.txt	LTP393	ltpFR2	9	9	FLASK	576	n/a	n/a	0	0	0
1829703	WORD	wordpools/wasnorm_wordpool_576.txt	LTP393	ltpFR2	9	9	CIGAR	308	n/a	n/a	0	0	0
1832336	WORD	wordpools/wasnorm_wordpool_576.txt	LTP393	ltpFR2	9	9	SUSPECT	1415	n/a	n/a	0	0	0
1835053	WORD	wordpools/wasnorm_wordpool_576.txt	LTP393	ltpFR2	9	9	PEACH	1031	n/a	n/a	0	0	0
1837536	WORD	wordpools/wasnorm_wordpool_576.txt	LTP393	ltpFR2	9	9	BADGE	68	n/a	n/a	0	0	0
1840303	WORD	wordpools/wasnorm_wordpool_576.txt	LTP393	ltpFR2	9	9	BLOCKADE	137	n/a	n/a	0	0	0
1842736	WORD	wordpools/wasnorm_wordpool_576.txt	LTP393	ltpFR2	9	9	PEBBLE	1035	n/a	n/a	0	0	0
1845369	WORD	wordpools/wasnorm_wordpool_576.txt	LTP393	ltpFR2	9	9	SPOUSE	1358	n/a	n/a	0	0	0
1847803	WORD	wordpools/wasnorm_wordpool_576.txt	LTP393	ltpFR2	9	9	ROD	1203	n/a	n/a	0	0	0
1850336	WORD	wordpools/wasnorm_wordpool_576.txt	LTP393	ltpFR2	9	9	CEILING	265	n/a	n/a	0	0	0
1852936	WORD	wordpools/wasnorm_wordpool_576.txt	LTP393	ltpFR2	9	9	RUG	1215	n/a	n/a	0	0	0
1855453	WORD	wordpools/wasnorm_wordpool_576.txt	LTP393	ltpFR2	9	9	QUAIL	1147	n/a	n/a	0	0	0
1858036	WORD	wordpools/wasnorm_wordpool_576.txt	LTP393	ltpFR2	9	9	SCARF	1246	n/a	n/a	0	0	0
1860619	WORD	wordpools/wasnorm_wordpool_576.txt	LTP393	ltpFR2	9	9	CHAPEL	280	n/a	n/a	0	0	0
1863369	WORD	wordpools/wasnorm_wordpool_576.txt	LTP393	ltpFR2	9	9	EYELASH	546	n/a	n/a	0	0	0
1866002	WORD	wordpools/wasnorm_wordpool_576.txt	LTP393	ltpFR2	9	9	OUTLAW	989	n/a	n/a	0	0	0
1868802	WORD	wordpools/wasnorm_wordpool_576.txt	LTP393	ltpFR2	9	9	ICEBERG	731	n/a	n/a	0	0	0
1871535	WORD	wordpools/wasnorm_wordpool_576.txt	LTP393	ltpFR2	9	9	CUPBOARD	425	n/a	n/a	0	0	0
1873152	START	n/a	LTP393	ltpFR2	9	n/a	n/a	n/a	14	n/a	n/a	n/a	n/a
1874250	DISTRACTOR	n/a	LTP393	ltpFR2	9	9	n/a	n/a	n/a	n/a	0	0	0
1874252	PROB	n/a	LTP393	ltpFR2	9	n/a	n/a	n/a	14	9	4	1	4
1876735	PROB	n/a	LTP393	ltpFR2	9	n/a	n/a	n/a	14	20	5	6	9
1878702	PROB	n/a	LTP393	ltpFR2	9	n/a	n/a	n/a	14	13	3	9	1
1881019	PROB	n/a	LTP393	ltpFR2	9	n/a	n/a	n/a	14	10	2	1	7
1883385	PROB	n/a	LTP393	ltpFR2	9	n/a	n/a	n/a	14	20	9	7	4
1886720	PROB	n/a	LTP393	ltpFR2	9	n/a	n/a	n/a	14	13	2	4	7
1888969	PROB	n/a	LTP393	ltpFR2	9	n/a	n/a	n/a	14	19	9	4	6
1891602	PROB	n/a	LTP393	ltpFR2	9	n/a	n/a	n/a	14	15	5	3	7
1893485	PROB	n/a	LTP393	ltpFR2	9	n/a	n/a	n/a	14	12	2	8	2
1897152	STOP	n/a	LTP393	ltpFR2	9	n/a	n/a	n/a	14	n/a	n/a	n/a	n/a
1898935	REC_START	n/a	LTP393	ltpFR2	9	9	n/a	n/a	n/a	n/a	0	0	0
1899579	REC_WORD	wordpools/wasnorm_wordpool_576.txt	LTP393	ltpFR2	9	9	IGLOO	734	n/a	n/a	0	0	0
1900665	REC_WORD	wordpools/wasnorm_wordpool_576.txt	LTP393	ltpFR2	9	9	ICEBERG	731	n/a	n/a	0	0	0
1907141	REC_WORD	wordpools/wasnorm_wordpool_576.txt	LTP393	ltpFR2	9	9	WITNESS	1618	n/a	n/a	0	0	0
1909373	REC_WORD	wordpools/wasnorm_wordpool_576.txt	LTP393	ltpFR2	9	9	CONFESS	-1	n/a	n/a	0	0	0
1989417	WORD	wordpools/wasnorm_wordpool_576.txt	LTP393	ltpFR2	9	10	FOX	598	n/a	n/a	0	0	0
1992067	WORD	wordpools/wasnorm_wordpool_576.txt	LTP393	ltpFR2	9	10	MILK	895	n/a	n/a	0	0	0
1994550	WORD	wordpools/wasnorm_wordpool_576.txt	LTP393	ltpFR2	9	10	CURTAIN	427	n/a	n/a	0	0	0
1997033	WORD	wordpools/wasnorm_wordpool_576.txt	LTP393	ltpFR2	9	10	PREACHER	1119	n/a	n/a	0	0	0
1999550	WORD	wordpools/wasnorm_wordpool_576.txt	LTP393	ltpFR2	9	10	TYPIST	1532	n/a	n/a	0	0	0
2002117	WORD	wordpools/wasnorm_wordpool_576.txt	LTP393	ltpFR2	9	10	CRIB	407	n/a	n/a	0	0	0
2004817	WORD	wordpools/wasnorm_wordpool_576.txt	LTP393	ltpFR2	9	10	KIDNEY	776	n/a	n/a	0	0	0
2007450	WORD	wordpools/wasnorm_wordpool_576.txt	LTP393	ltpFR2	9	10	BELLY	119	n/a	n/a	0	0	0
2010250	WORD	wordpools/wasnorm_wordpool_576.txt	LTP393	ltpFR2	9	10	STAKE	1368	n/a	n/a	0	0	0
2012917	WORD	wordpools/wasnorm_wordpool_576.txt	LTP393	ltpFR2	9	10	MARKER	870	n/a	n/a	0	0	0
2015417	WORD	wordpools/wasnorm_wordpool_576.txt	LTP393	ltpFR2	9	10	CRUTCH	417	n/a	n/a	0	0	0
2018000	WORD	wordpools/wasnorm_wordpool_576.txt	LTP393	ltpFR2	9	10	SHOULDER	1294	n/a	n/a	0	0	0
2020566	WORD	wordpools/wasnorm_wordpool_576.txt	LTP393	ltpFR2	9	10	SPONGE	1355	n/a	n/a	0	0	0
2023133	WORD	wordpools/wasnorm_wordpool_576.txt	LTP393	ltpFR2	9	10	ATLAS	53	n/a	n/a	0	0	0
2025933	WORD	wordpools/wasnorm_wordpool_576.txt	LTP393	ltpFR2	9	10	MACHINE	852	n/a	n/a	0	0	0
2028366	WORD	wordpools/wasnorm_wordpool_576.txt	LTP393	ltpFR2	9	10	CHIPMUNK	304	n/a	n/a	0	0	0
2030850	WORD	wordpools/wasnorm_wordpool_576.txt	LTP393	ltpFR2	9	10	RECEIPT	1173	n/a	n/a	0	0	0
2033416	WORD	wordpools/wasnorm_wordpool_576.txt	LTP393	ltpFR2	9	10	MONEY	908	n/a	n/a	0	0	0
2036183	WORD	wordpools/wasnorm_wordpool_576.txt	LTP393	ltpFR2	9	10	HAND	683	n/a	n/a	0	0	0
2038733	WORD	wordpools/wasnorm_wordpool_576.txt	LTP393	ltpFR2	9	10	BUREAU	199	n/a	n/a	0	0	0
2041266	WORD	wordpools/wasnorm_wordpool_576.txt	LTP393	ltpFR2	9	10	BUNNY	198	n/a	n/a	0	0	0
2043949	WORD	wordpools/wasnorm_wordpool_576.txt	LTP393	ltpFR2	9	10	BARLEY	88	n/a	n/a	0	0	0
2046699	WORD	wordpools/wasnorm_wordpool_576.txt	LTP393	ltpFR2	9	10	GLOBE	641	n/a	n/a	0	0	0
2049199	WORD	wordpools/wasnorm_wordpool_576.txt	LTP393	ltpFR2	9	10	PRIMATE	1123	n/a	n/a	0	0	0
2050816	START	n/a	LTP393	ltpFR2	9	n/a	n/a	n/a	15	n/a	n/a	n/a	n/a
2051895	DISTRACTOR	n/a	LTP393	ltpFR2	9	10	n/a	n/a	n/a	n/a	0	0	0
2051899	PROB	n/a	LTP393	ltpFR2	9	n/a	n/a	n/a	15	5	1	3	1
2074816	STOP	n/a	LTP393	ltpFR2	9	n/a	n/a	n/a	15	n/a	n/a	n/a	n/a
2076633	REC_START	n/a	LTP393	ltpFR2	9	10	n/a	n/a	n/a	n/a	0	0	0
2080801	REC_WORD	wordpools/wasnorm_wordpool_576.txt	LTP393	ltpFR2	9	10	MARROW	872	n/a	n/a	0	0	0
2085593	REC_WORD	wordpools/wasnorm_wordpool_576.txt	LTP393	ltpFR2	9	10	CRIB	407	n/a	n/a	0	0	0
2167097	WORD	wordpools/wasnorm_wordpool_576.txt	LTP393	ltpFR2	9	11	DUSTPAN	509	n/a	n/a	0	0	0
2169581	WORD	wordpools/wasnorm_wordpool_576.txt	LTP393	ltpFR2	9	11	BRANCH	168	n/a	n/a	0	0	0
2172164	WORD	wordpools/wasnorm_wordpool_576.txt	LTP393	ltpFR2	9	11	HEADBAND	696	n/a	n/a	0	0	0
2174931	WORD	wordpools/wasnorm_wordpool_576.txt	LTP393	ltpFR2	9	11	DRESSER	496	n/a	n/a	0	0	0
2177747	WORD	wordpools/wasnorm_wordpool_576.txt	LTP393	ltpFR2	9	11	ZEBRA	1635	n/a	n/a	0	0	0
2180314	WORD	wordpools/wasnorm_wordpool_576.txt	LTP393	ltpFR2	9	11	OFFICE	972	n/a	n/a	0	0	0
2182914	WORD	wordpools/wasnorm_wordpool_576.txt	LTP393	ltpFR2	9	11	TRUCK	1512	n/a	n/a	0	0	0
2185647	WORD	wordpools/wasnorm_wordpool_576.txt	LTP393	ltpFR2	9	11	GOBLIN	645	n/a	n/a	0	0	0
2188147	WORD	wordpools/wasnorm_wordpool_576.txt	LTP393	ltpFR2	9	11	BUCKET	184	n/a	n/a	0	0	0
2190780	WORD	wordpools/wasnorm_wordpool_576.txt	LTP393	ltpFR2	9	11	PANTHER	1009	n/a	n/a	0	0	0
2193314	WORD	wordpools/wasnorm_wordpool_576.txt	LTP393	ltpFR2	9	11	HOUND	724	n/a	n/a	0	0	0
2195964	WORD	wordpools/wasnorm_wordpool_576.txt	LTP393	ltpFR2	9	11	ONION	977	n/a	n/a	0	0	0
2198697	WORD	wordpools/wasnorm_wordpool_576.txt	LTP393	ltpFR2	9	11	CITRUS	313	n/a	n/a	0	0	0
2201130	WORD	wordpools/wasnorm_wordpool_576.txt	LTP393	ltpFR2	9	11	TILE	1468	n/a	n/a	0	0	0
2203580	WORD	wordpools/wasnorm_wordpool_576.txt	LTP393	ltpFR2	9	11	MOP	916	n/a	n/a	0	0	0
2206030	WORD	wordpools/wasnorm_wordpool_576.txt	LTP393	ltpFR2	9	11	BRAKE	166	n/a	n/a	0	0	0
2208647	WORD	wordpools/wasnorm_wordpool_576.txt	LTP393	ltpFR2	9	11	LODGE	839	n/a	n/a	0	0	0
2211280	WORD	wordpools/wasnorm_wordpool_576.txt	LTP393	ltpFR2	9	11	MOTEL	919	n/a	n/a	0	0	0
2213847	WORD	wordpools/wasnorm_wordpool_576.txt	LTP393	ltpFR2	9	11	CATTLE	261	n/a	n/a	0	0	0
2216413	WORD	wordpools/wasnorm_wordpool_576.txt	LTP393	ltpFR2	9	11	SCULPTURE	1258	n/a	n/a	0	0	0
2219130	WORD	wordpools/wasnorm_wordpool_576.txt	LTP393	ltpFR2	9	11	TERMITE	1451	n/a	n/a	0	0	0
2221830	WORD	wordpools/wasnorm_wordpool_576.txt	LTP393	ltpFR2	9	11	NURSE	963	n/a	n/a	0	0	0
2224496	WORD	wordpools/wasnorm_wordpool_576.txt	LTP393	ltpFR2	9	11	FRANCE	601	n/a	n/a	0	0	0
2226930	WORD	wordpools/wasnorm_wordpool_576.txt	LTP393	ltpFR2	9	11	TWIG	1527	n/a	n/a	0	0	0
2228547	START	n/a	LTP393	ltpFR2	9	n/a	n/a	n/a	16	n/a	n/a	n/a	n/a
2229718	DISTRACTOR	n/a	LTP393	ltpFR2	9	11	n/a	n/a	n/a	n/a	0	0	0
2252547	STOP	n/a	LTP393	ltpFR2	9	n/a	n/a	n/a	16	n/a	n/a	n/a	n/a
2254463	REC_START	n/a	LTP393	ltpFR2	9	11	n/a	n/a	n/a	n/a	0	0	0
2263351	REC_WORD	wordpools/wasnorm_wordpool_576.txt	LTP393	ltpFR2	9	11	FRANCE	601	n/a	n/a	0	0	0
2266468	REC_WORD_VV	wordpools/wasnorm_wordpool_576.txt	LTP393	ltpFR2	9	11	<>	-1	n/a	n/a	0	0	0
2269814	REC_WORD	wordpools/wasnorm_wordpool_576.txt	LTP393	ltpFR2	9	11	PICNIC	1060	n/a	n/a	0	0	0
2279699	REC_WORD	wordpools/wasnorm_wordpool_576.txt	LTP393	ltpFR2	9	11	WASHER	1592	n/a	n/a	0	0	0
2344928	WORD	wordpools/wasnorm_wordpool_576.txt	LTP393	ltpFR2	9	12	CABBAGE	210	n/a	n/a	0	0	0
2347644	WORD	wordpools/wasnorm_wordpool_576.txt	LTP393	ltpFR2	9	12	STOMACH	1384	n/a	n/a	0	0	0
2350244	WORD	wordpools/wasnorm_wordpool_576.txt	LTP393	ltpFR2	9	12	SNACK	1331	n/a	n/a	0	0	0
2352844	WORD	wordpools/wasnorm_wordpool_576.txt	LTP393	ltpFR2	9	12	TOURIST	1488	n/a	n/a	0	0	0
2355594	WORD	wordpools/wasnorm_wordpool_576.txt	LTP393	ltpFR2	9	12	PUDDLE	1140	n/a	n/a	0	0	0
2358111	WORD	wordpools/wasnorm_wordpool_576.txt	LTP393	ltpFR2	9	12	FLASHLIGHT	575	n/a	n/a	0	0	0
2360678	WORD	wordpools/wasnorm_wordpool_576.txt	LTP393	ltpFR2	9	12	PASTA	1021	n/a	n/a	0	0	0
2363377	WORD	wordpools/wasnorm_wordpool_576.txt	LTP393	ltpFR2	9	12	SHELF	1280	n/a	n/a	0	0	0
2365878	WORD	wordpools/wasnorm_wordpool_576.txt	LTP393	ltpFR2	9	12	PADDLE	1000	n/a	n/a	0	0	0
2368644	WORD	wordpools/wasnorm_wordpool_576.txt	LTP393	ltpFR2	9	12	PARTNER	1017	n/a	n/a	0	0	0
2371227	WORD	wordpools/wasnorm_wordpool_576.txt	LTP393	ltpFR2	9	12	FRAGRANCE	599	n/a	n/a	0	0	0
2373777	WORD	wordpools/wasnorm_wordpool_576.txt	LTP393	ltpFR2	9	12	SWIMMER	1420	n/a	n/a	0	0	0
2376477	WORD	wordpools/wasnorm_wordpool_576.txt	LTP393	ltpFR2	9	12	CAMEL	223	n/a	n/a	0	0	0
2379027	WORD	wordpools/wasnorm_wordpool_576.txt	LTP393	ltpFR2	9	12	TREAT	1501	n/a	n/a	0	0	0
2381728	WORD	wordpools/wasnorm_wordpool_576.txt	LTP393	ltpFR2	9	12	CANDY	230	n/a	n/a	0	0	0
2384227	WORD	wordpools/wasnorm_wordpool_576.txt	LTP393	ltpFR2	9	12	PALACE	1006	n/a	n/a	0	0	0
2386927	WORD	wordpools/wasnorm_wordpool_576.txt	LTP393	ltpFR2	9	12	LETTUCE	814	n/a	n/a	0	0	0
2389494	WORD	wordpools/wasnorm_wordpool_576.txt	LTP393	ltpFR2	9	12	TRIBE	1505	n/a	n/a	0	0	0
2392044	WORD	wordpools/wasnorm_wordpool_576.txt	LTP393	ltpFR2	9	12	SKETCH	1315	n/a	n/a	0	0	0
2394728	WORD	wordpools/wasnorm_wordpool_576.txt	LTP393	ltpFR2	9	12	PADDING	999	n/a	n/a	0	0	0
2397410	WORD	wordpools/wasnorm_wordpool_576.txt	LTP393	ltpFR2	9	12	MUMMY	932	n/a	n/a	0	0	0
2400094	WORD	wordpools/wasnorm_wordpool_576.txt	LTP393	ltpFR2	9	12	BACKBONE	66	n/a	n/a	0	0	0
2402610	WORD	wordpools/wasnorm_wordpool_576.txt	LTP393	ltpFR2	9	12	COUCH	386	n/a	n/a	0	0	0
2405194	WORD	wordpools/wasnorm_wordpool_576.txt	LTP393	ltpFR2	9	12	SMOG	1330	n/a	n/a	0	0	0
2406810	START	n/a	LTP393	ltpFR2	9	n/a	n/a	n/a	17	n/a	n/a	n/a	n/a
2407633	DISTRACTOR	n/a	LTP393	ltpFR2	9	12	n/a	n/a	n/a	n/a	0	0	0
2430809	STOP	n/a	LTP393	ltpFR2	9	n/a	n/a	n/a	17	n/a	n/a	n/a	n/a
2432744	REC_START	n/a	LTP393	ltpFR2	9	12	n/a	n/a	n/a	n/a	0	0	0
2447427	REC_WORD_VV	wordpools/wasnorm_wordpool_576.txt	LTP393	ltpFR2	9	12	<>	-1	n/a	n/a	0	0	0
2454799	REC_WORD	wordpools/wasnorm_wordpool_576.txt	LTP393	ltpFR2	9	12	TREAT	1501	n/a	n/a	0	0	0
2523191	DISTRACTOR	n/a	LTP393	ltpFR2	9	13	n/a	n/a	n/a	n/a	0	0	0
2523192	START	n/a	LTP393	ltpFR2	9	n/a	n/a	n/a	18	n/a	n/a	n/a	n/a
2523208	PROB	n/a	LTP393	ltpFR2	9	n/a	n/a	n/a	18	11	5	4	2
2526525	PROB	n/a	LTP393	ltpFR2	9	n/a	n/a	n/a	18	19	5	6	8
2528642	PROB	n/a	LTP393	ltpFR2	9	n/a	n/a	n/a	18	18	8	9	1
2530558	PROB	n/a	LTP393	ltpFR2	9	n/a	n/a	n/a	18	13	9	2	2
2532375	PROB	n/a	LTP393	ltpFR2	9	n/a	n/a	n/a	18	15	3	7	5
2534175	PROB	n/a	LTP393	ltpFR2	9	n/a	n/a	n/a	18	22	8	8	6
2537841	PROB	n/a	LTP393	ltpFR2	9	n/a	n/a	n/a	18	13	5	5	3
2539341	PROB	n/a	LTP393	ltpFR2	9	n/a	n/a	n/a	18	18	4	7	7
2541308	PROB	n/a	LTP393	ltpFR2	9	n/a	n/a	n/a	18	16	1	7	8
2543325	PROB	n/a	LTP393	ltpFR2	9	n/a	n/a	n/a	18	14	6	2	6
2546419	STOP	n/a	LTP393	ltpFR2	9	n/a	n/a	n/a	18	n/a	n/a	n/a	n/a
2548174	WORD	wordpools/wasnorm_wordpool_576.txt	LTP393	ltpFR2	9	13	PISTOL	1075	n/a	n/a	0	0	0
2550708	WORD	wordpools/wasnorm_wordpool_576.txt	LTP393	ltpFR2	9	13	FUNGUS	614	n/a	n/a	0	0	0
2553191	WORD	wordpools/wasnorm_wordpool_576.txt	LTP393	ltpFR2	9	13	ANKLE	24	n/a	n/a	0	0	0
2555958	WORD	wordpools/wasnorm_wordpool_576.txt	LTP393	ltpFR2	9	13	BANKER	84	n/a	n/a	0	0	0
2558658	WORD	wordpools/wasnorm_wordpool_576.txt	LTP393	ltpFR2	9	13	BRICK	172	n/a	n/a	0	0	0
2561408	WORD	wordpools/wasnorm_wordpool_576.txt	LTP393	ltpFR2	9	13	PARROT	1015	n/a	n/a	0	0	0
2564224	WORD	wordpools/wasnorm_wordpool_576.txt	LTP393	ltpFR2	9	13	ORCHID	982	n/a	n/a	0	0	0
2567041	WORD	wordpools/wasnorm_wordpool_576.txt	LTP393	ltpFR2	9	13	YACHT	1629	n/a	n/a	0	0	0
2569657	WORD	wordpools/wasnorm_wordpool_576.txt	LTP393	ltpFR2	9	13	SEAGULL	1261	n/a	n/a	0	0	0
2572407	WORD	wordpools/wasnorm_wordpool_576.txt	LTP393	ltpFR2	9	13	NOVEL	960	n/a	n/a	0	0	0
2574941	WORD	wordpools/wasnorm_wordpool_576.txt	LTP393	ltpFR2	9	13	PLIERS	1089	n/a	n/a	0	0	0
2577507	WORD	wordpools/wasnorm_wordpool_576.txt	LTP393	ltpFR2	9	13	EGYPT	519	n/a	n/a	0	0	0
2580057	WORD	wordpools/wasnorm_wordpool_576.txt	LTP393	ltpFR2	9	13	VAGRANT	1544	n/a	n/a	0	0	0
2582657	WORD	wordpools/wasnorm_wordpool_576.txt	LTP393	ltpFR2	9	13	OZONE	996	n/a	n/a	0	0	0
2585324	WORD	wordpools/wasnorm_wordpool_576.txt	LTP393	ltpFR2	9	13	TEMPLE	1448	n/a	n/a	0	0	0
2587791	WORD	wordpools/wasnorm_wordpool_576.txt	LTP393	ltpFR2	9	13	DAISY	435	n/a	n/a	0	0	0
2590557	WORD	wordpools/wasnorm_wordpool_576.txt	LTP393	ltpFR2	9	13	TURNIP	1521	n/a	n/a	0	0	0
2593140	WORD	wordpools/wasnorm_wordpool_576.txt	LTP393	ltpFR2	9	13	PLAID	1080	n/a	n/a	0	0	0
2595757	WORD	wordpools/wasnorm_wordpool_576.txt	LTP393	ltpFR2	9	13	ASIA	46	n/a	n/a	0	0	0
2598507	WORD	wordpools/wasnorm_wordpool_576.txt	LTP393	ltpFR2	9	13	LONDON	843	n/a	n/a	0	0	0
2601240	WORD	wordpools/wasnorm_wordpool_576.txt	LTP393	ltpFR2	9	13	OMELET	976	n/a	n/a	0	0	0
2603924	WORD	wordpools/wasnorm_wordpool_576.txt	LTP393	ltpFR2	9	13	LAMP	798	n/a	n/a	0	0	0
2606740	WORD	wordpools/wasnorm_wordpool_576.txt	LTP393	ltpFR2	9	13	XEROX	1628	n/a	n/a	0	0	0
2609290	WORD	wordpools/wasnorm_wordpool_576.txt	LTP393	ltpFR2	9	13	LADY	794	n/a	n/a	0	0	0
2610907	START	n/a	LTP393	ltpFR2	9	n/a	n/a	n/a	19	n/a	n/a	n/a	n/a
2611970	DISTRACTOR	n/a	LTP393	ltpFR2	9	13	n/a	n/a	n/a	n/a	0	0	0
2611973	PROB	n/a	LTP393	ltpFR2	9	n/a	n/a	n/a	19	13	4	1	8
2615340	PROB	n/a	LTP393	ltpFR2	9	n/a	n/a	n/a	19	13	2	5	6
2617790	PROB	n/a	LTP393	ltpFR2	9	n/a	n/a	n/a	19	17	1	9	7
2619190	PROB	n/a	LTP393	ltpFR2	9	n/a	n/a	n/a	19	19	8	6	7
2622040	PROB	n/a	LTP393	ltpFR2	9	n/a	n/a	n/a	19	12	4	5	3
2624173	PROB	n/a	LTP393	ltpFR2	9	n/a	n/a	n/a	19	14	5	8	1
2626607	PROB	n/a	LTP393	ltpFR2	9	n/a	n/a	n/a	19	19	7	7	5
2628407	PROB	n/a	LTP393	ltpFR2	9	n/a	n/a	n/a	19	17	2	7	8
2631490	PROB	n/a	LTP393	ltpFR2	9	n/a	n/a	n/a	19	22	8	7	7
2634907	STOP	n/a	LTP393	ltpFR2	9	n/a	n/a	n/a	19	n/a	n/a	n/a	n/a
2636707	REC_START	n/a	LTP393	ltpFR2	9	13	n/a	n/a	n/a	n/a	0	0	0
2638403	REC_WORD	wordpools/wasnorm_wordpool_576.txt	LTP393	ltpFR2	9	13	BRICK	172	n/a	n/a	0	0	0
2639350	REC_WORD	wordpools/wasnorm_wordpool_576.txt	LTP393	ltpFR2	9	13	XEROX	1628	n/a	n/a	0	0	0
2641384	REC_WORD	wordpools/wasnorm_wordpool_576.txt	LTP393	ltpFR2	9	13	TEMPLE	1448	n/a	n/a	0	0	0
2644632	REC_WORD	wordpools/wasnorm_wordpool_576.txt	LTP393	ltpFR2	9	13	CHAPEL	280	n/a	n/a	0	0	0
2727172	WORD	wordpools/wasnorm_wordpool_576.txt	LTP393	ltpFR2	9	14	SUITCASE	1403	n/a	n/a	0	0	0
2729605	WORD	wordpools/wasnorm_wordpool_576.txt	LTP393	ltpFR2	9	14	LUNCH	849	n/a	n/a	0	0	0
2732321	WORD	wordpools/wasnorm_wordpool_576.txt	LTP393	ltpFR2	9	14	SERVANT	1271	n/a	n/a	0	0	0
2735138	WORD	wordpools/wasnorm_wordpool_576.txt	LTP393	ltpFR2	9	14	WHISTLE	1606	n/a	n/a	0	0	0
2737821	WORD	wordpools/wasnorm_wordpool_576.txt	LTP393	ltpFR2	9	14	COUSIN	392	n/a	n/a	0	0	0
2740538	WORD	wordpools/wasnorm_wordpool_576.txt	LTP393	ltpFR2	9	14	UNCLE	1536	n/a	n/a	0	0	0
2743088	WORD	wordpools/wasnorm_wordpool_576.txt	LTP393	ltpFR2	9	14	HORNET	718	n/a	n/a	0	0	0
2745671	WORD	wordpools/wasnorm_wordpool_576.txt	LTP393	ltpFR2	9	14	LABEL	790	n/a	n/a	0	0	0
2748405	WORD	wordpools/wasnorm_wordpool_576.txt	LTP393	ltpFR2	9	14	MAILMAN	858	n/a	n/a	0	0	0
2751121	WORD	wordpools/wasnorm_wordpool_576.txt	LTP393	ltpFR2	9	14	HOOK	715	n/a	n/a	0	0	0
2753554	WORD	wordpools/wasnorm_wordpool_576.txt	LTP393	ltpFR2	9	14	SANDWICH	1232	n/a	n/a	0	0	0
2756321	WORD	wordpools/wasnorm_wordpool_576.txt	LTP393	ltpFR2	9	14	FIDDLE	561	n/a	n/a	0	0	0
2759071	WORD	wordpools/wasnorm_wordpool_576.txt	LTP393	ltpFR2	9	14	SWAMP	1416	n/a	n/a	0	0	0
2761904	WORD	wordpools/wasnorm_wordpool_576.txt	LTP393	ltpFR2	9	14	LAKE	796	n/a	n/a	0	0	0
2764488	WORD	wordpools/wasnorm_wordpool_576.txt	LTP393	ltpFR2	9	14	MATTRESS	879	n/a	n/a	0	0	0
2767038	WORD	wordpools/wasnorm_wordpool_576.txt	LTP393	ltpFR2	9	14	SHARK	1275	n/a	n/a	0	0	0
2769554	WORD	wordpools/wasnorm_wordpool_576.txt	LTP393	ltpFR2	9	14	SUBWAY	1400	n/a	n/a	0	0	0
2772288	WORD	wordpools/wasnorm_wordpool_576.txt	LTP393	ltpFR2	9	14	WASHER	1592	n/a	n/a	0	0	0
2774722	WORD	wordpools/wasnorm_wordpool_576.txt	LTP393	ltpFR2	9	14	COIN	343	n/a	n/a	0	0	0
2777437	WORD	wordpools/wasnorm_wordpool_576.txt	LTP393	ltpFR2	9	14	LIGHTNING	820	n/a	n/a	0	0	0
2779871	WORD	wordpools/wasnorm_wordpool_576.txt	LTP393	ltpFR2	9	14	PACKAGE	997	n/a	n/a	0	0	0
2782454	WORD	wordpools/wasnorm_wordpool_576.txt	LTP393	ltpFR2	9	14	STAMP	1370	n/a	n/a	0	0	0
2785087	WORD	wordpools/wasnorm_wordpool_576.txt	LTP393	ltpFR2	9	14	WAITRESS	1581	n/a	n/a	0	0	0
2787904	WORD	wordpools/wasnorm_wordpool_576.txt	LTP393	ltpFR2	9	14	WINDOW	1611	n/a	n/a	0	0	0
2789521	START	n/a	LTP393	ltpFR2	9	n/a	n/a	n/a	20	n/a	n/a	n/a	n/a
2790324	DISTRACTOR	n/a	LTP393	ltpFR2	9	14	n/a	n/a	n/a	n/a	0	0	0
2813521	STOP	n/a	LTP393	ltpFR2	9	n/a	n/a	n/a	20	n/a	n/a	n/a	n/a
2815320	REC_START	n/a	LTP393	ltpFR2	9	14	n/a	n/a	n/a	n/a	0	0	0
2820096	REC_WORD	wordpools/wasnorm_wordpool_576.txt	LTP393	ltpFR2	9	14	SERVANT	1271	n/a	n/a	0	0	0
2822901	REC_WORD	wordpools/wasnorm_wordpool_576.txt	LTP393	ltpFR2	9	14	WHISTLE	1606	n/a	n/a	0	0	0
2828870	REC_WORD	wordpools/wasnorm_wordpool_576.txt	LTP393	ltpFR2	9	14	SUITCASE	1403	n/a	n/a	0	0	0
2835641	REC_WORD	wordpools/wasnorm_wordpool_576.txt	LTP393	ltpFR2	9	14	TRAPT	-1	n/a	n/a	0	0	0
2905769	DISTRACTOR	n/a	LTP393	ltpFR2	9	15	n/a	n/a	n/a	n/a	0	0	0
2905769	START	n/a	LTP393	ltpFR2	9	n/a	n/a	n/a	21	n/a	n/a	n/a	n/a
2929769	STOP	n/a	LTP393	ltpFR2	9	n/a	n/a	n/a	21	n/a	n/a	n/a	n/a
2930952	WORD	wordpools/wasnorm_wordpool_576.txt	LTP393	ltpFR2	9	15	COBRA	336	n/a	n/a	0	0	0
2933501	WORD	wordpools/wasnorm_wordpool_576.txt	LTP393	ltpFR2	9	15	DIME	466	n/a	n/a	0	0	0
2935935	WORD	wordpools/wasnorm_wordpool_576.txt	LTP393	ltpFR2	9	15	POCKET	1093	n/a	n/a	0	0	0
2938751	WORD	wordpools/wasnorm_wordpool_576.txt	LTP393	ltpFR2	9	15	DUST	508	n/a	n/a	0	0	0
2941351	WORD	wordpools/wasnorm_wordpool_576.txt	LTP393	ltpFR2	9	15	STREAM	1392	n/a	n/a	0	0	0
2944118	WORD	wordpools/wasnorm_wordpool_576.txt	LTP393	ltpFR2	9	15	RAFT	1159	n/a	n/a	0	0	0
2946785	WORD	wordpools/wasnorm_wordpool_576.txt	LTP393	ltpFR2	9	15	TURKEY	1520	n/a	n/a	0	0	0
2949551	WORD	wordpools/wasnorm_wordpool_576.txt	LTP393	ltpFR2	9	15	DOLPHIN	483	n/a	n/a	0	0	0
2952151	WORD	wordpools/wasnorm_wordpool_576.txt	LTP393	ltpFR2	9	15	AGENT	10	n/a	n/a	0	0	0
2954851	WORD	wordpools/wasnorm_wordpool_576.txt	LTP393	ltpFR2	9	15	KEEPER	769	n/a	n/a	0	0	0
2957418	WORD	wordpools/wasnorm_wordpool_576.txt	LTP393	ltpFR2	9	15	SLIDE	1326	n/a	n/a	0	0	0
2960018	WORD	wordpools/wasnorm_wordpool_576.txt	LTP393	ltpFR2	9	15	STAR	1373	n/a	n/a	0	0	0
2962834	WORD	wordpools/wasnorm_wordpool_576.txt	LTP393	ltpFR2	9	15	HUMAN	726	n/a	n/a	0	0	0
2965284	WORD	wordpools/wasnorm_wordpool_576.txt	LTP393	ltpFR2	9	15	CROWN	415	n/a	n/a	0	0	0
2968018	WORD	wordpools/wasnorm_wordpool_576.txt	LTP393	ltpFR2	9	15	SURVEY	1414	n/a	n/a	0	0	0
2970634	WORD	wordpools/wasnorm_wordpool_576.txt	LTP393	ltpFR2	9	15	BEAKER	104	n/a	n/a	0	0	0
2973451	WORD	wordpools/wasnorm_wordpool_576.txt	LTP393	ltpFR2	9	15	BROTHER	179	n/a	n/a	0	0	0
2976034	WORD	wordpools/wasnorm_wordpool_576.txt	LTP393	ltpFR2	9	15	BUG	187	n/a	n/a	0	0	0
2978467	WORD	wordpools/wasnorm_wordpool_576.txt	LTP393	ltpFR2	9	15	THRONE	1461	n/a	n/a	0	0	0
2981284	WORD	wordpools/wasnorm_wordpool_576.txt	LTP393	ltpFR2	9	15	CREVICE	405	n/a	n/a	0	0	0
2984051	WORD	wordpools/wasnorm_wordpool_576.txt	LTP393	ltpFR2	9	15	DRUG	501	n/a	n/a	0	0	0
2986801	WORD	wordpools/wasnorm_wordpool_576.txt	LTP393	ltpFR2	9	15	PASSAGE	1019	n/a	n/a	0	0	0
2989417	WORD	wordpools/wasnorm_wordpool_576.txt	LTP393	ltpFR2	9	15	DAUGHTER	442	n/a	n/a	0	0	0
2991884	WORD	wordpools/wasnorm_wordpool_576.txt	LTP393	ltpFR2	9	15	PICNIC	1060	n/a	n/a	0	0	0
2993501	START	n/a	LTP393	ltpFR2	9	n/a	n/a	n/a	22	n/a	n/a	n/a	n/a
2994513	DISTRACTOR	n/a	LTP393	ltpFR2	9	15	n/a	n/a	n/a	n/a	0	0	0
2994517	PROB	n/a	LTP393	ltpFR2	9	n/a	n/a	n/a	22	17	6	3	8
2996967	PROB	n/a	LTP393	ltpFR2	9	n/a	n/a	n/a	22	19	9	7	3
2998567	PROB	n/a	LTP393	ltpFR2	9	n/a	n/a	n/a	22	9	2	3	4
3000584	PROB	n/a	LTP393	ltpFR2	9	n/a	n/a	n/a	22	17	9	4	4
3002517	PROB	n/a	LTP393	ltpFR2	9	n/a	n/a	n/a	22	17	9	3	5
3006350	PROB	n/a	LTP393	ltpFR2	9	n/a	n/a	n/a	22	18	9	3	6
3008100	PROB	n/a	LTP393	ltpFR2	9	n/a	n/a	n/a	22	27	9	9	9
3010300	PROB	n/a	LTP393	ltpFR2	9	n/a	n/a	n/a	22	13	2	3	8
3012350	PROB	n/a	LTP393	ltpFR2	9	n/a	n/a	n/a	22	13	6	2	5
3016168	STOP	n/a	LTP393	ltpFR2	9	n/a	n/a	n/a	22	n/a	n/a	n/a	n/a
3019334	REC_START	n/a	LTP393	ltpFR2	9	15	n/a	n/a	n/a	n/a	0	0	0
3020225	REC_WORD	wordpools/wasnorm_wordpool_576.txt	LTP393	ltpFR2	9	15	DRUG	501	n/a	n/a	0	0	0
3021478	REC_WORD	wordpools/wasnorm_wordpool_576.txt	LTP393	ltpFR2	9	15	PASSAGE	1019	n/a	n/a	0	0	0
3025820	REC_WORD	wordpools/wasnorm_wordpool_576.txt	LTP393	ltpFR2	9	15	PICNIC	1060	n/a	n/a	0	0	0
3027143	REC_WORD	wordpools/wasnorm_wordpool_576.txt	LTP393	ltpFR2	9	15	BONUS	-1	n/a	n/a	0	0	0
3109799	WORD	wordpools/wasnorm_wordpool_576.txt	LTP393	ltpFR2	9	16	CARROT	249	n/a	n/a	0	0	0
3112499	WORD	wordpools/wasnorm_wordpool_576.txt	LTP393	ltpFR2	9	16	MAILBOX	857	n/a	n/a	0	0	0
3115182	WORD	wordpools/wasnorm_wordpool_576.txt	LTP393	ltpFR2	9	16	SUPPER	1411	n/a	n/a	0	0	0
3117999	WORD	wordpools/wasnorm_wordpool_576.txt	LTP393	ltpFR2	9	16	DINER	467	n/a	n/a	0	0	0
3120699	WORD	wordpools/wasnorm_wordpool_576.txt	LTP393	ltpFR2	9	16	ROCKET	1202	n/a	n/a	0	0	0
3123398	WORD	wordpools/wasnorm_wordpool_576.txt	LTP393	ltpFR2	9	16	POPCORN	1104	n/a	n/a	0	0	0
3126198	WORD	wordpools/wasnorm_wordpool_576.txt	LTP393	ltpFR2	9	16	COCOON	339	n/a	n/a	0	0	0
3128782	WORD	wordpools/wasnorm_wordpool_576.txt	LTP393	ltpFR2	9	16	GARDEN	623	n/a	n/a	0	0	0
3131315	WORD	wordpools/wasnorm_wordpool_576.txt	LTP393	ltpFR2	9	16	LIPSTICK	829	n/a	n/a	0	0	0
3133865	WORD	wordpools/wasnorm_wordpool_576.txt	LTP393	ltpFR2	9	16	FOOT	590	n/a	n/a	0	0	0
3136315	WORD	wordpools/wasnorm_wordpool_576.txt	LTP393	ltpFR2	9	16	SHORTCAKE	1292	n/a	n/a	0	0	0
3138898	WORD	wordpools/wasnorm_wordpool_576.txt	LTP393	ltpFR2	9	16	BRACES	164	n/a	n/a	0	0	0
3141581	WORD	wordpools/wasnorm_wordpool_576.txt	LTP393	ltpFR2	9	16	STOVE	1388	n/a	n/a	0	0	0
3144048	WORD	wordpools/wasnorm_wordpool_576.txt	LTP393	ltpFR2	9	16	FLIPPER	580	n/a	n/a	0	0	0
3146681	WORD	wordpools/wasnorm_wordpool_576.txt	LTP393	ltpFR2	9	16	TRENCH	1503	n/a	n/a	0	0	0
3149465	WORD	wordpools/wasnorm_wordpool_576.txt	LTP393	ltpFR2	9	16	HIGHWAY	707	n/a	n/a	0	0	0
3152198	WORD	wordpools/wasnorm_wordpool_576.txt	LTP393	ltpFR2	9	16	SPIDER	1351	n/a	n/a	0	0	0
3154948	WORD	wordpools/wasnorm_wordpool_576.txt	LTP393	ltpFR2	9	16	MAMMAL	861	n/a	n/a	0	0	0
3157715	WORD	wordpools/wasnorm_wordpool_576.txt	LTP393	ltpFR2	9	16	FINGER	567	n/a	n/a	0	0	0
3160348	WORD	wordpools/wasnorm_wordpool_576.txt	LTP393	ltpFR2	9	16	FLOWER	584	n/a	n/a	0	0	0
3162881	WORD	wordpools/wasnorm_wordpool_576.txt	LTP393	ltpFR2	9	16	JAPAN	749	n/a	n/a	0	0	0
3165314	WORD	wordpools/wasnorm_wordpool_576.txt	LTP393	ltpFR2	9	16	SHELTER	1282	n/a	n/a	0	0	0
3167881	WORD	wordpools/wasnorm_wordpool_576.txt	LTP393	ltpFR2	9	16	LAPEL	800	n/a	n/a	0	0	0
3170681	WORD	wordpools/wasnorm_wordpool_576.txt	LTP393	ltpFR2	9	16	CATCHER	258	n/a	n/a	0	0	0
3172298	START	n/a	LTP393	ltpFR2	9	n/a	n/a	n/a	23	n/a	n/a	n/a	n/a
3173261	DISTRACTOR	n/a	LTP393	ltpFR2	9	16	n/a	n/a	n/a	n/a	0	0	0
3173281	PROB	n/a	LTP393	ltpFR2	9	n/a	n/a	n/a	23	13	1	8	4
3187447	PROB	n/a	LTP393	ltpFR2	9	n/a	n/a	n/a	23	7	2	3	2
3189297	PROB	n/a	LTP393	ltpFR2	9	n/a	n/a	n/a	23	17	5	4	8
3191314	PROB	n/a	LTP393	ltpFR2	9	n/a	n/a	n/a	23	19	7	9	3
3193631	PROB	n/a	LTP393	ltpFR2	9	n/a	n/a	n/a	23	15	5	7	3
3195662	STOP	n/a	LTP393	ltpFR2	9	n/a	n/a	n/a	23	n/a	n/a	n/a	n/a
3198231	REC_START	n/a	LTP393	ltpFR2	9	16	n/a	n/a	n/a	n/a	0	0	0
3205198	REC_WORD	wordpools/wasnorm_wordpool_576.txt	LTP393	ltpFR2	9	16	FRIAR	605	n/a	n/a	0	0	0
3208142	REC_WORD	wordpools/wasnorm_wordpool_576.txt	LTP393	ltpFR2	9	16	PARTNER	1017	n/a	n/a	0	0	0
3209784	REC_WORD_VV	wordpools/wasnorm_wordpool_576.txt	LTP393	ltpFR2	9	16	<>	-1	n/a	n/a	0	0	0
3274779	REST_REWET	n/a	LTP393	ltpFR2	9	16	n/a	n/a	n/a	n/a	0	0	0
3477259	WORD	wordpools/wasnorm_wordpool_576.txt	LTP393	ltpFR2	9	17	TEACHER	1440	n/a	n/a	0	0	0
3479709	WORD	wordpools/wasnorm_wordpool_576.txt	LTP393	ltpFR2	9	17	HAWK	692	n/a	n/a	0	0	0
3482509	WORD	wordpools/wasnorm_wordpool_576.txt	LTP393	ltpFR2	9	17	COURSE	390	n/a	n/a	0	0	0
3485326	WORD	wordpools/wasnorm_wordpool_576.txt	LTP393	ltpFR2	9	17	DONOR	485	n/a	n/a	0	0	0
3488092	WORD	wordpools/wasnorm_wordpool_576.txt	LTP393	ltpFR2	9	17	TROMBONE	1508	n/a	n/a	0	0	0
3490609	WORD	wordpools/wasnorm_wordpool_576.txt	LTP393	ltpFR2	9	17	GANGSTER	620	n/a	n/a	0	0	0
3493242	WORD	wordpools/wasnorm_wordpool_576.txt	LTP393	ltpFR2	9	17	POSTAGE	1113	n/a	n/a	0	0	0
3495759	WORD	wordpools/wasnorm_wordpool_576.txt	LTP393	ltpFR2	9	17	BOARD	143	n/a	n/a	0	0	0
3498476	WORD	wordpools/wasnorm_wordpool_576.txt	LTP393	ltpFR2	9	17	DONKEY	484	n/a	n/a	0	0	0
3501159	WORD	wordpools/wasnorm_wordpool_576.txt	LTP393	ltpFR2	9	17	PIANO	1057	n/a	n/a	0	0	0
3503676	WORD	wordpools/wasnorm_wordpool_576.txt	LTP393	ltpFR2	9	17	POISON	1096	n/a	n/a	0	0	0
3506225	WORD	wordpools/wasnorm_wordpool_576.txt	LTP393	ltpFR2	9	17	SCISSORS	1250	n/a	n/a	0	0	0
3508759	WORD	wordpools/wasnorm_wordpool_576.txt	LTP393	ltpFR2	9	17	SUMMIT	1405	n/a	n/a	0	0	0
3511425	WORD	wordpools/wasnorm_wordpool_576.txt	LTP393	ltpFR2	9	17	CLIMBER	323	n/a	n/a	0	0	0
3513992	WORD	wordpools/wasnorm_wordpool_576.txt	LTP393	ltpFR2	9	17	COLLEGE	346	n/a	n/a	0	0	0
3516425	WORD	wordpools/wasnorm_wordpool_576.txt	LTP393	ltpFR2	9	17	PENGUIN	1044	n/a	n/a	0	0	0
3518925	WORD	wordpools/wasnorm_wordpool_576.txt	LTP393	ltpFR2	9	17	SPARROW	1347	n/a	n/a	0	0	0
3521709	WORD	wordpools/wasnorm_wordpool_576.txt	LTP393	ltpFR2	9	17	VIKING	1565	n/a	n/a	0	0	0
3524325	WORD	wordpools/wasnorm_wordpool_576.txt	LTP393	ltpFR2	9	17	HANDBAG	684	n/a	n/a	0	0	0
3526758	WORD	wordpools/wasnorm_wordpool_576.txt	LTP393	ltpFR2	9	17	DASHBOARD	441	n/a	n/a	0	0	0
3529325	WORD	wordpools/wasnorm_wordpool_576.txt	LTP393	ltpFR2	9	17	CANAL	226	n/a	n/a	0	0	0
3532058	WORD	wordpools/wasnorm_wordpool_576.txt	LTP393	ltpFR2	9	17	WIDOW	1608	n/a	n/a	0	0	0
3534708	WORD	wordpools/wasnorm_wordpool_576.txt	LTP393	ltpFR2	9	17	WOMAN	1620	n/a	n/a	0	0	0
3537492	WORD	wordpools/wasnorm_wordpool_576.txt	LTP393	ltpFR2	9	17	CLOUD	328	n/a	n/a	0	0	0
3539108	START	n/a	LTP393	ltpFR2	9	n/a	n/a	n/a	24	n/a	n/a	n/a	n/a
3539963	DISTRACTOR	n/a	LTP393	ltpFR2	9	17	n/a	n/a	n/a	n/a	0	0	0
3539975	PROB	n/a	LTP393	ltpFR2	9	n/a	n/a	n/a	24	23	9	7	7
3549625	PROB	n/a	LTP393	ltpFR2	9	n/a	n/a	n/a	24	12	7	1	4
3551791	PROB	n/a	LTP393	ltpFR2	9	n/a	n/a	n/a	24	20	6	6	8
3553241	PROB	n/a	LTP393	ltpFR2	9	n/a	n/a	n/a	24	14	2	5	7
3554741	PROB	n/a	LTP393	ltpFR2	9	n/a	n/a	n/a	24	7	3	2	2
3557691	PROB	n/a	LTP393	ltpFR2	9	n/a	n/a	n/a	24	11	1	9	1
3563108	STOP	n/a	LTP393	ltpFR2	9	n/a	n/a	n/a	24	n/a	n/a	n/a	n/a
3564925	REC_START	n/a	LTP393	ltpFR2	9	17	n/a	n/a	n/a	n/a	0	0	0
3566647	REC_WORD	wordpools/wasnorm_wordpool_576.txt	LTP393	ltpFR2	9	17	POSTAGE	1113	n/a	n/a	0	0	0
3569002	REC_WORD	wordpools/wasnorm_wordpool_576.txt	LTP393	ltpFR2	9	17	GANGSTER	620	n/a	n/a	0	0	0
3578500	REC_WORD	wordpools/wasnorm_wordpool_576.txt	LTP393	ltpFR2	9	17	PICNIC	1060	n/a	n/a	0	0	0
3579644	REC_WORD	wordpools/wasnorm_wordpool_576.txt	LTP393	ltpFR2	9	17	VIKING	1565	n/a	n/a	0	0	0
3580801	REC_WORD	wordpools/wasnorm_wordpool_576.txt	LTP393	ltpFR2	9	17	HANDBAG	684	n/a	n/a	0	0	0
3655390	DISTRACTOR	n/a	LTP393	ltpFR2	9	18	n/a	n/a	n/a	n/a	0	0	0
3655390	START	n/a	LTP393	ltpFR2	9	n/a	n/a	n/a	25	n/a	n/a	n/a	n/a
3679390	STOP	n/a	LTP393	ltpFR2	9	n/a	n/a	n/a	25	n/a	n/a	n/a	n/a
3680373	WORD	wordpools/wasnorm_wordpool_576.txt	LTP393	ltpFR2	9	18	ROOSTER	1209	n/a	n/a	0	0	0
3682989	WORD	wordpools/wasnorm_wordpool_576.txt	LTP393	ltpFR2	9	18	ITEM	746	n/a	n/a	0	0	0
3685823	WORD	wordpools/wasnorm_wordpool_576.txt	LTP393	ltpFR2	9	18	NOTEBOOK	959	n/a	n/a	0	0	0
3688406	WORD	wordpools/wasnorm_wordpool_576.txt	LTP393	ltpFR2	9	18	FLAG	573	n/a	n/a	0	0	0
3690889	WORD	wordpools/wasnorm_wordpool_576.txt	LTP393	ltpFR2	9	18	BURGLAR	200	n/a	n/a	0	0	0
3693539	WORD	wordpools/wasnorm_wordpool_576.txt	LTP393	ltpFR2	9	18	TUTU	1524	n/a	n/a	0	0	0
3696122	WORD	wordpools/wasnorm_wordpool_576.txt	LTP393	ltpFR2	9	18	HOOD	714	n/a	n/a	0	0	0
3698589	WORD	wordpools/wasnorm_wordpool_576.txt	LTP393	ltpFR2	9	18	JUGGLER	763	n/a	n/a	0	0	0
3701339	WORD	wordpools/wasnorm_wordpool_576.txt	LTP393	ltpFR2	9	18	NAPKIN	937	n/a	n/a	0	0	0
3704139	WORD	wordpools/wasnorm_wordpool_576.txt	LTP393	ltpFR2	9	18	MASK	876	n/a	n/a	0	0	0
3706839	WORD	wordpools/wasnorm_wordpool_576.txt	LTP393	ltpFR2	9	18	THIEF	1456	n/a	n/a	0	0	0
3709372	WORD	wordpools/wasnorm_wordpool_576.txt	LTP393	ltpFR2	9	18	FLEET	578	n/a	n/a	0	0	0
3711905	WORD	wordpools/wasnorm_wordpool_576.txt	LTP393	ltpFR2	9	18	SNAIL	1332	n/a	n/a	0	0	0
3714639	WORD	wordpools/wasnorm_wordpool_576.txt	LTP393	ltpFR2	9	18	WIFE	1609	n/a	n/a	0	0	0
3717255	WORD	wordpools/wasnorm_wordpool_576.txt	LTP393	ltpFR2	9	18	PUPPY	1144	n/a	n/a	0	0	0
3719705	WORD	wordpools/wasnorm_wordpool_576.txt	LTP393	ltpFR2	9	18	BLADE	134	n/a	n/a	0	0	0
3722139	WORD	wordpools/wasnorm_wordpool_576.txt	LTP393	ltpFR2	9	18	SCALPEL	1243	n/a	n/a	0	0	0
3724655	WORD	wordpools/wasnorm_wordpool_576.txt	LTP393	ltpFR2	9	18	LOVER	846	n/a	n/a	0	0	0
3727205	WORD	wordpools/wasnorm_wordpool_576.txt	LTP393	ltpFR2	9	18	FILM	565	n/a	n/a	0	0	0
3729655	WORD	wordpools/wasnorm_wordpool_576.txt	LTP393	ltpFR2	9	18	GRAPE	654	n/a	n/a	0	0	0
3732372	WORD	wordpools/wasnorm_wordpool_576.txt	LTP393	ltpFR2	9	18	PORK	1108	n/a	n/a	0	0	0
3734888	WORD	wordpools/wasnorm_wordpool_576.txt	LTP393	ltpFR2	9	18	TOMBSTONE	1478	n/a	n/a	0	0	0
3737355	WORD	wordpools/wasnorm_wordpool_576.txt	LTP393	ltpFR2	9	18	CASKET	255	n/a	n/a	0	0	0
3739888	WORD	wordpools/wasnorm_wordpool_576.txt	LTP393	ltpFR2	9	18	WRENCH	1625	n/a	n/a	0	0	0
3741505	START	n/a	LTP393	ltpFR2	9	n/a	n/a	n/a	26	n/a	n/a	n/a	n/a
3742321	DISTRACTOR	n/a	LTP393	ltpFR2	9	18	n/a	n/a	n/a	n/a	0	0	0
3765505	STOP	n/a	LTP393	ltpFR2	9	n/a	n/a	n/a	26	n/a	n/a	n/a	n/a
3767438	REC_START	n/a	LTP393	ltpFR2	9	18	n/a	n/a	n/a	n/a	0	0	0
3778329	REC_WORD_VV	wordpools/wasnorm_wordpool_576.txt	LTP393	ltpFR2	9	18	<>	-1	n/a	n/a	0	0	0
3780048	REC_WORD	wordpools/wasnorm_wordpool_576.txt	LTP393	ltpFR2	9	18	COZY	-1	n/a	n/a	0	0	0
3785257	REC_WORD	wordpools/wasnorm_wordpool_576.txt	LTP393	ltpFR2	9	18	JUGGLER	763	n/a	n/a	0	0	0
3789202	REC_WORD_VV	wordpools/wasnorm_wordpool_576.txt	LTP393	ltpFR2	9	18	<>	-1	n/a	n/a	0	0	0
3818807	REC_WORD_VV	wordpools/wasnorm_wordpool_576.txt	LTP393	ltpFR2	9	18	<>	-1	n/a	n/a	0	0	0
3819807	REC_WORD_VV	wordpools/wasnorm_wordpool_576.txt	LTP393	ltpFR2	9	18	<>	-1	n/a	n/a	0	0	0
3820807	REC_WORD_VV	wordpools/wasnorm_wordpool_576.txt	LTP393	ltpFR2	9	18	<>	-1	n/a	n/a	0	0	0
3833206	REC_WORD_VV	wordpools/wasnorm_wordpool_576.txt	LTP393	ltpFR2	9	18	<>	-1	n/a	n/a	0	0	0
3857903	WORD	wordpools/wasnorm_wordpool_576.txt	LTP393	ltpFR2	9	19	WASP	1593	n/a	n/a	0	0	0
3860670	WORD	wordpools/wasnorm_wordpool_576.txt	LTP393	ltpFR2	9	19	HONEY	713	n/a	n/a	0	0	0
3863353	WORD	wordpools/wasnorm_wordpool_576.txt	LTP393	ltpFR2	9	19	WAGON	1578	n/a	n/a	0	0	0
3866070	WORD	wordpools/wasnorm_wordpool_576.txt	LTP393	ltpFR2	9	19	PIGMENT	1066	n/a	n/a	0	0	0
3868603	WORD	wordpools/wasnorm_wordpool_576.txt	LTP393	ltpFR2	9	19	TUBA	1515	n/a	n/a	0	0	0
3871186	WORD	wordpools/wasnorm_wordpool_576.txt	LTP393	ltpFR2	9	19	DRAGON	492	n/a	n/a	0	0	0
3873686	WORD	wordpools/wasnorm_wordpool_576.txt	LTP393	ltpFR2	9	19	SPACE	1345	n/a	n/a	0	0	0
3876486	WORD	wordpools/wasnorm_wordpool_576.txt	LTP393	ltpFR2	9	19	BOYFRIEND	162	n/a	n/a	0	0	0
3879086	WORD	wordpools/wasnorm_wordpool_576.txt	LTP393	ltpFR2	9	19	SPOOL	1356	n/a	n/a	0	0	0
3881720	WORD	wordpools/wasnorm_wordpool_576.txt	LTP393	ltpFR2	9	19	RAZOR	1171	n/a	n/a	0	0	0
3884219	WORD	wordpools/wasnorm_wordpool_576.txt	LTP393	ltpFR2	9	19	STALLION	1369	n/a	n/a	0	0	0
3886669	WORD	wordpools/wasnorm_wordpool_576.txt	LTP393	ltpFR2	9	19	POLICE	1098	n/a	n/a	0	0	0
3889236	WORD	wordpools/wasnorm_wordpool_576.txt	LTP393	ltpFR2	9	19	BACON	67	n/a	n/a	0	0	0
3892003	WORD	wordpools/wasnorm_wordpool_576.txt	LTP393	ltpFR2	9	19	SAUSAGE	1238	n/a	n/a	0	0	0
3894619	WORD	wordpools/wasnorm_wordpool_576.txt	LTP393	ltpFR2	9	19	FRUIT	610	n/a	n/a	0	0	0
3897102	WORD	wordpools/wasnorm_wordpool_576.txt	LTP393	ltpFR2	9	19	YARN	1631	n/a	n/a	0	0	0
3899552	WORD	wordpools/wasnorm_wordpool_576.txt	LTP393	ltpFR2	9	19	HEART	697	n/a	n/a	0	0	0
3902269	WORD	wordpools/wasnorm_wordpool_576.txt	LTP393	ltpFR2	9	19	SKIRT	1319	n/a	n/a	0	0	0
3905002	WORD	wordpools/wasnorm_wordpool_576.txt	LTP393	ltpFR2	9	19	AWARD	63	n/a	n/a	0	0	0
3907836	WORD	wordpools/wasnorm_wordpool_576.txt	LTP393	ltpFR2	9	19	GRILL	661	n/a	n/a	0	0	0
3910636	WORD	wordpools/wasnorm_wordpool_576.txt	LTP393	ltpFR2	9	19	TURTLE	1522	n/a	n/a	0	0	0
3913402	WORD	wordpools/wasnorm_wordpool_576.txt	LTP393	ltpFR2	9	19	DENTIST	447	n/a	n/a	0	0	0
3916152	WORD	wordpools/wasnorm_wordpool_576.txt	LTP393	ltpFR2	9	19	CUSTARD	429	n/a	n/a	0	0	0
3918952	WORD	wordpools/wasnorm_wordpool_576.txt	LTP393	ltpFR2	9	19	LACE	792	n/a	n/a	0	0	0
3920569	START	n/a	LTP393	ltpFR2	9	n/a	n/a	n/a	27	n/a	n/a	n/a	n/a
3921695	DISTRACTOR	n/a	LTP393	ltpFR2	9	19	n/a	n/a	n/a	n/a	0	0	0
3921702	PROB	n/a	LTP393	ltpFR2	9	n/a	n/a	n/a	27	18	5	7	6
3927335	PROB	n/a	LTP393	ltpFR2	9	n/a	n/a	n/a	27	17	5	3	9
3931385	PROB	n/a	LTP393	ltpFR2	9	n/a	n/a	n/a	27	16	9	3	2
3935118	PROB	n/a	LTP393	ltpFR2	9	n/a	n/a	n/a	27	16	7	5	4
3944569	STOP	n/a	LTP393	ltpFR2	9	n/a	n/a	n/a	27	n/a	n/a	n/a	n/a
3946352	REC_START	n/a	LTP393	ltpFR2	9	19	n/a	n/a	n/a	n/a	0	0	0
3947064	REC_WORD	wordpools/wasnorm_wordpool_576.txt	LTP393	ltpFR2	9	19	WASP	1593	n/a	n/a	0	0	0
3950089	REC_WORD	wordpools/wasnorm_wordpool_576.txt	LTP393	ltpFR2	9	19	HONEY	713	n/a	n/a	0	0	0
3951983	REC_WORD	wordpools/wasnorm_wordpool_576.txt	LTP393	ltpFR2	9	19	WAGON	1578	n/a	n/a	0	0	0
3954515	REC_WORD	wordpools/wasnorm_wordpool_576.txt	LTP393	ltpFR2	9	19	TUBA	1515	n/a	n/a	0	0	0
3957579	REC_WORD	wordpools/wasnorm_wordpool_576.txt	LTP393	ltpFR2	9	19	PIGMENT	1066	n/a	n/a	0	0	0
4036800	DISTRACTOR	n/a	LTP393	ltpFR2	9	20	n/a	n/a	n/a	n/a	0	0	0
4036800	START	n/a	LTP393	ltpFR2	9	n/a	n/a	n/a	28	n/a	n/a	n/a	n/a
4036817	PROB	n/a	LTP393	ltpFR2	9	n/a	n/a	n/a	28	14	3	6	5
4039700	PROB	n/a	LTP393	ltpFR2	9	n/a	n/a	n/a	28	18	7	2	9
4041617	PROB	n/a	LTP393	ltpFR2	9	n/a	n/a	n/a	28	17	3	6	8
4044217	PROB	n/a	LTP393	ltpFR2	9	n/a	n/a	n/a	28	9	5	2	2
4045850	PROB	n/a	LTP393	ltpFR2	9	n/a	n/a	n/a	28	16	9	4	3
4047767	PROB	n/a	LTP393	ltpFR2	9	n/a	n/a	n/a	28	1	3	4	5
4049500	PROB	n/a	LTP393	ltpFR2	9	n/a	n/a	n/a	28	16	5	5	6
4051750	PROB	n/a	LTP393	ltpFR2	9	n/a	n/a	n/a	28	13	7	4	2
4053466	PROB	n/a	LTP393	ltpFR2	9	n/a	n/a	n/a	28	24	8	8	8
4054883	PROB	n/a	LTP393	ltpFR2	9	n/a	n/a	n/a	28	15	4	5	6
4056417	PROB	n/a	LTP393	ltpFR2	9	n/a	n/a	n/a	28	7	1	3	3
4058350	PROB	n/a	LTP393	ltpFR2	9	n/a	n/a	n/a	28	18	9	5	4
4059895	STOP	n/a	LTP393	ltpFR2	9	n/a	n/a	n/a	28	n/a	n/a	n/a	n/a
4061733	WORD	wordpools/wasnorm_wordpool_576.txt	LTP393	ltpFR2	9	20	KITCHEN	778	n/a	n/a	0	0	0
4064383	WORD	wordpools/wasnorm_wordpool_576.txt	LTP393	ltpFR2	9	20	BASEMENT	94	n/a	n/a	0	0	0
4066966	WORD	wordpools/wasnorm_wordpool_576.txt	LTP393	ltpFR2	9	20	MISSILE	900	n/a	n/a	0	0	0
4069766	WORD	wordpools/wasnorm_wordpool_576.txt	LTP393	ltpFR2	9	20	STICKER	1382	n/a	n/a	0	0	0
4072250	WORD	wordpools/wasnorm_wordpool_576.txt	LTP393	ltpFR2	9	20	OINTMENT	974	n/a	n/a	0	0	0
4074966	WORD	wordpools/wasnorm_wordpool_576.txt	LTP393	ltpFR2	9	20	DIVER	476	n/a	n/a	0	0	0
4077599	WORD	wordpools/wasnorm_wordpool_576.txt	LTP393	ltpFR2	9	20	ROBOT	1200	n/a	n/a	0	0	0
4080149	WORD	wordpools/wasnorm_wordpool_576.txt	LTP393	ltpFR2	9	20	APRON	35	n/a	n/a	0	0	0
4082899	WORD	wordpools/wasnorm_wordpool_576.txt	LTP393	ltpFR2	9	20	CRAB	397	n/a	n/a	0	0	0
4085333	WORD	wordpools/wasnorm_wordpool_576.txt	LTP393	ltpFR2	9	20	RATTLE	1170	n/a	n/a	0	0	0
4087799	WORD	wordpools/wasnorm_wordpool_576.txt	LTP393	ltpFR2	9	20	SALMON	1227	n/a	n/a	0	0	0
4090233	WORD	wordpools/wasnorm_wordpool_576.txt	LTP393	ltpFR2	9	20	MARKET	871	n/a	n/a	0	0	0
4092766	WORD	wordpools/wasnorm_wordpool_576.txt	LTP393	ltpFR2	9	20	SALAD	1224	n/a	n/a	0	0	0
4095583	WORD	wordpools/wasnorm_wordpool_576.txt	LTP393	ltpFR2	9	20	PRINCESS	1125	n/a	n/a	0	0	0
4098082	WORD	wordpools/wasnorm_wordpool_576.txt	LTP393	ltpFR2	9	20	COD	340	n/a	n/a	0	0	0
4100749	WORD	wordpools/wasnorm_wordpool_576.txt	LTP393	ltpFR2	9	20	SEAFOOD	1260	n/a	n/a	0	0	0
4103282	WORD	wordpools/wasnorm_wordpool_576.txt	LTP393	ltpFR2	9	20	COMPASS	358	n/a	n/a	0	0	0
4105732	WORD	wordpools/wasnorm_wordpool_576.txt	LTP393	ltpFR2	9	20	PERCH	1048	n/a	n/a	0	0	0
4108166	WORD	wordpools/wasnorm_wordpool_576.txt	LTP393	ltpFR2	9	20	LEADER	807	n/a	n/a	0	0	0
4110632	WORD	wordpools/wasnorm_wordpool_576.txt	LTP393	ltpFR2	9	20	LADDER	793	n/a	n/a	0	0	0
4113449	WORD	wordpools/wasnorm_wordpool_576.txt	LTP393	ltpFR2	9	20	BATHTUB	100	n/a	n/a	0	0	0
4115899	WORD	wordpools/wasnorm_wordpool_576.txt	LTP393	ltpFR2	9	20	CELLAR	267	n/a	n/a	0	0	0
4118649	WORD	wordpools/wasnorm_wordpool_576.txt	LTP393	ltpFR2	9	20	FRECKLE	602	n/a	n/a	0	0	0
4121215	WORD	wordpools/wasnorm_wordpool_576.txt	LTP393	ltpFR2	9	20	POWDER	1117	n/a	n/a	0	0	0
4122832	START	n/a	LTP393	ltpFR2	9	n/a	n/a	n/a	29	n/a	n/a	n/a	n/a
4123841	DISTRACTOR	n/a	LTP393	ltpFR2	9	20	n/a	n/a	n/a	n/a	0	0	0
4123849	PROB	n/a	LTP393	ltpFR2	9	n/a	n/a	n/a	29	18	7	2	9
4127832	PROB	n/a	LTP393	ltpFR2	9	n/a	n/a	n/a	29	20	9	8	3
4130465	PROB	n/a	LTP393	ltpFR2	9	n/a	n/a	n/a	29	18	8	8	2
4132032	PROB	n/a	LTP393	ltpFR2	9	n/a	n/a	n/a	29	7	1	3	3
4133532	PROB	n/a	LTP393	ltpFR2	9	n/a	n/a	n/a	29	6	2	3	1
4135515	PROB	n/a	LTP393	ltpFR2	9	n/a	n/a	n/a	29	7	4	2	1
4136899	PROB	n/a	LTP393	ltpFR2	9	n/a	n/a	n/a	29	10	3	6	1
4138798	PROB	n/a	LTP393	ltpFR2	9	n/a	n/a	n/a	29	20	5	6	9
4141315	PROB	n/a	LTP393	ltpFR2	9	n/a	n/a	n/a	29	12	3	6	3
4143015	PROB	n/a	LTP393	ltpFR2	9	n/a	n/a	n/a	29	19	4	6	9
4146832	STOP	n/a	LTP393	ltpFR2	9	n/a	n/a	n/a	29	n/a	n/a	n/a	n/a
4148599	REC_START	n/a	LTP393	ltpFR2	9	20	n/a	n/a	n/a	n/a	0	0	0
4150126	REC_WORD	wordpools/wasnorm_wordpool_576.txt	LTP393	ltpFR2	9	20	BATHTUB	100	n/a	n/a	0	0	0
4153025	REC_WORD	wordpools/wasnorm_wordpool_576.txt	LTP393	ltpFR2	9	20	MARKET	871	n/a	n/a	0	0	0
4154929	REC_WORD	wordpools/wasnorm_wordpool_576.txt	LTP393	ltpFR2	9	20	SALAD	1224	n/a	n/a	0	0	0
4156064	REC_WORD	wordpools/wasnorm_wordpool_576.txt	LTP393	ltpFR2	9	20	SEAFOOD	1260	n/a	n/a	0	0	0
4157292	REC_WORD	wordpools/wasnorm_wordpool_576.txt	LTP393	ltpFR2	9	20	CRAB	397	n/a	n/a	0	0	0
4158370	REC_WORD	wordpools/wasnorm_wordpool_576.txt	LTP393	ltpFR2	9	20	COD	340	n/a	n/a	0	0	0
4159505	REC_WORD	wordpools/wasnorm_wordpool_576.txt	LTP393	ltpFR2	9	20	SALMON	1227	n/a	n/a	0	0	0
4160801	REC_WORD	wordpools/wasnorm_wordpool_576.txt	LTP393	ltpFR2	9	20	PERCH	1048	n/a	n/a	0	0	0
4239047	DISTRACTOR	n/a	LTP393	ltpFR2	9	21	n/a	n/a	n/a	n/a	0	0	0
4239047	START	n/a	LTP393	ltpFR2	9	n/a	n/a	n/a	30	n/a	n/a	n/a	n/a
4239063	PROB	n/a	LTP393	ltpFR2	9	n/a	n/a	n/a	30	9	4	1	4
4240930	PROB	n/a	LTP393	ltpFR2	9	n/a	n/a	n/a	30	10	4	1	5
4242997	PROB	n/a	LTP393	ltpFR2	9	n/a	n/a	n/a	30	11	1	1	9
4244280	PROB	n/a	LTP393	ltpFR2	9	n/a	n/a	n/a	30	21	5	9	7
4246280	PROB	n/a	LTP393	ltpFR2	9	n/a	n/a	n/a	30	20	5	8	7
4248030	PROB	n/a	LTP393	ltpFR2	9	n/a	n/a	n/a	30	19	7	7	5
4250580	PROB	n/a	LTP393	ltpFR2	9	n/a	n/a	n/a	30	19	7	9	3
4253363	PROB	n/a	LTP393	ltpFR2	9	n/a	n/a	n/a	30	7	3	1	3
4254730	PROB	n/a	LTP393	ltpFR2	9	n/a	n/a	n/a	30	19	4	9	6
4256746	PROB	n/a	LTP393	ltpFR2	9	n/a	n/a	n/a	30	17	6	3	8
4258613	PROB	n/a	LTP393	ltpFR2	9	n/a	n/a	n/a	30	15	4	4	7
4260613	PROB	n/a	LTP393	ltpFR2	9	n/a	n/a	n/a	30	14	4	2	8
4262045	STOP	n/a	LTP393	ltpFR2	9	n/a	n/a	n/a	30	n/a	n/a	n/a	n/a
4264213	WORD	wordpools/wasnorm_wordpool_576.txt	LTP393	ltpFR2	9	21	SWORD	1423	n/a	n/a	0	0	0
4266863	WORD	wordpools/wasnorm_wordpool_576.txt	LTP393	ltpFR2	9	21	KNIFE	785	n/a	n/a	0	0	0
4269463	WORD	wordpools/wasnorm_wordpool_576.txt	LTP393	ltpFR2	9	21	DANCER	437	n/a	n/a	0	0	0
4271896	WORD	wordpools/wasnorm_wordpool_576.txt	LTP393	ltpFR2	9	21	GRIZZLY	662	n/a	n/a	0	0	0
4274646	WORD	wordpools/wasnorm_wordpool_576.txt	LTP393	ltpFR2	9	21	PERMIT	1051	n/a	n/a	0	0	0
4277463	WORD	wordpools/wasnorm_wordpool_576.txt	LTP393	ltpFR2	9	21	RELISH	1183	n/a	n/a	0	0	0
4279996	WORD	wordpools/wasnorm_wordpool_576.txt	LTP393	ltpFR2	9	21	CONTRACT	368	n/a	n/a	0	0	0
4282496	WORD	wordpools/wasnorm_wordpool_576.txt	LTP393	ltpFR2	9	21	PAPER	1011	n/a	n/a	0	0	0
4285246	WORD	wordpools/wasnorm_wordpool_576.txt	LTP393	ltpFR2	9	21	WHISKERS	1605	n/a	n/a	0	0	0
4287796	WORD	wordpools/wasnorm_wordpool_576.txt	LTP393	ltpFR2	9	21	PATIENT	1024	n/a	n/a	0	0	0
4290463	WORD	wordpools/wasnorm_wordpool_576.txt	LTP393	ltpFR2	9	21	THREAD	1460	n/a	n/a	0	0	0
4293263	WORD	wordpools/wasnorm_wordpool_576.txt	LTP393	ltpFR2	9	21	PISTON	1076	n/a	n/a	0	0	0
4296029	WORD	wordpools/wasnorm_wordpool_576.txt	LTP393	ltpFR2	9	21	RUST	1219	n/a	n/a	0	0	0
4298462	WORD	wordpools/wasnorm_wordpool_576.txt	LTP393	ltpFR2	9	21	CONCERT	360	n/a	n/a	0	0	0
4301079	WORD	wordpools/wasnorm_wordpool_576.txt	LTP393	ltpFR2	9	21	SADDLE	1221	n/a	n/a	0	0	0
4303679	WORD	wordpools/wasnorm_wordpool_576.txt	LTP393	ltpFR2	9	21	HATCHET	691	n/a	n/a	0	0	0
4306112	WORD	wordpools/wasnorm_wordpool_576.txt	LTP393	ltpFR2	9	21	CONVICT	371	n/a	n/a	0	0	0
4308729	WORD	wordpools/wasnorm_wordpool_576.txt	LTP393	ltpFR2	9	21	GUITAR	670	n/a	n/a	0	0	0
4311412	WORD	wordpools/wasnorm_wordpool_576.txt	LTP393	ltpFR2	9	21	ISLAND	745	n/a	n/a	0	0	0
4313912	WORD	wordpools/wasnorm_wordpool_576.txt	LTP393	ltpFR2	9	21	DRILL	497	n/a	n/a	0	0	0
4316379	WORD	wordpools/wasnorm_wordpool_576.txt	LTP393	ltpFR2	9	21	TUNNEL	1519	n/a	n/a	0	0	0
4318829	WORD	wordpools/wasnorm_wordpool_576.txt	LTP393	ltpFR2	9	21	TABLET	1427	n/a	n/a	0	0	0
4321312	WORD	wordpools/wasnorm_wordpool_576.txt	LTP393	ltpFR2	9	21	CHAMPAGNE	278	n/a	n/a	0	0	0
4323895	WORD	wordpools/wasnorm_wordpool_576.txt	LTP393	ltpFR2	9	21	POSSUM	1112	n/a	n/a	0	0	0
4325512	START	n/a	LTP393	ltpFR2	9	n/a	n/a	n/a	31	n/a	n/a	n/a	n/a
4326385	DISTRACTOR	n/a	LTP393	ltpFR2	9	21	n/a	n/a	n/a	n/a	0	0	0
4326395	PROB	n/a	LTP393	ltpFR2	9	n/a	n/a	n/a	31	24	9	8	7
4332629	PROB	n/a	LTP393	ltpFR2	9	n/a	n/a	n/a	31	19	8	9	2
4335495	PROB	n/a	LTP393	ltpFR2	9	n/a	n/a	n/a	31	20	7	4	9
4337879	PROB	n/a	LTP393	ltpFR2	9	n/a	n/a	n/a	31	24	9	9	6
4341695	PROB	n/a	LTP393	ltpFR2	9	n/a	n/a	n/a	31	18	1	8	9
4343295	PROB	n/a	LTP393	ltpFR2	9	n/a	n/a	n/a	31	12	2	6	4
4349512	STOP	n/a	LTP393	ltpFR2	9	n/a	n/a	n/a	31	n/a	n/a	n/a	n/a
4351329	REC_START	n/a	LTP393	ltpFR2	9	21	n/a	n/a	n/a	n/a	0	0	0
4352514	REC_WORD	wordpools/wasnorm_wordpool_576.txt	LTP393	ltpFR2	9	21	GRIZZLY	662	n/a	n/a	0	0	0
4356961	REC_WORD	wordpools/wasnorm_wordpool_576.txt	LTP393	ltpFR2	9	21	DOCK	477	n/a	n/a	0	0	0
4441777	DISTRACTOR	n/a	LTP393	ltpFR2	9	22	n/a	n/a	n/a	n/a	0	0	0
4441777	START	n/a	LTP393	ltpFR2	9	n/a	n/a	n/a	32	n/a	n/a	n/a	n/a
4441793	PROB	n/a	LTP393	ltpFR2	9	n/a	n/a	n/a	32	14	4	7	3
4443660	PROB	n/a	LTP393	ltpFR2	9	n/a	n/a	n/a	32	24	9	7	8
4445643	PROB	n/a	LTP393	ltpFR2	9	n/a	n/a	n/a	32	20	9	4	7
4447643	PROB	n/a	LTP393	ltpFR2	9	n/a	n/a	n/a	32	20	4	8	8
4449643	PROB	n/a	LTP393	ltpFR2	9	n/a	n/a	n/a	32	10	1	2	7
4451927	PROB	n/a	LTP393	ltpFR2	9	n/a	n/a	n/a	32	8	4	3	1
4453277	PROB	n/a	LTP393	ltpFR2	9	n/a	n/a	n/a	32	21	9	8	4
4456060	PROB	n/a	LTP393	ltpFR2	9	n/a	n/a	n/a	32	13	6	2	5
4459243	PROB	n/a	LTP393	ltpFR2	9	n/a	n/a	n/a	32	19	9	4	6
4461427	PROB	n/a	LTP393	ltpFR2	9	n/a	n/a	n/a	32	13	6	4	3
4463660	PROB	n/a	LTP393	ltpFR2	9	n/a	n/a	n/a	32	25	9	9	7
4465603	STOP	n/a	LTP393	ltpFR2	9	n/a	n/a	n/a	32	n/a	n/a	n/a	n/a
4466610	WORD	wordpools/wasnorm_wordpool_576.txt	LTP393	ltpFR2	9	22	ELBOW	520	n/a	n/a	0	0	0
4469093	WORD	wordpools/wasnorm_wordpool_576.txt	LTP393	ltpFR2	9	22	RABBIT	1152	n/a	n/a	0	0	0
4471776	WORD	wordpools/wasnorm_wordpool_576.txt	LTP393	ltpFR2	9	22	DRAWING	494	n/a	n/a	0	0	0
4474210	WORD	wordpools/wasnorm_wordpool_576.txt	LTP393	ltpFR2	9	22	BLACKBOARD	133	n/a	n/a	0	0	0
4477026	WORD	wordpools/wasnorm_wordpool_576.txt	LTP393	ltpFR2	9	22	SCRIBBLE	1256	n/a	n/a	0	0	0
4479660	WORD	wordpools/wasnorm_wordpool_576.txt	LTP393	ltpFR2	9	22	SERVER	1272	n/a	n/a	0	0	0
4482343	WORD	wordpools/wasnorm_wordpool_576.txt	LTP393	ltpFR2	9	22	SEAL	1262	n/a	n/a	0	0	0
4485093	WORD	wordpools/wasnorm_wordpool_576.txt	LTP393	ltpFR2	9	22	FREEZER	604	n/a	n/a	0	0	0
4487727	WORD	wordpools/wasnorm_wordpool_576.txt	LTP393	ltpFR2	9	22	BALLOON	75	n/a	n/a	0	0	0
4490359	WORD	wordpools/wasnorm_wordpool_576.txt	LTP393	ltpFR2	9	22	CRAYON	401	n/a	n/a	0	0	0
4493026	WORD	wordpools/wasnorm_wordpool_576.txt	LTP393	ltpFR2	9	22	PARENT	1013	n/a	n/a	0	0	0
4495793	WORD	wordpools/wasnorm_wordpool_576.txt	LTP393	ltpFR2	9	22	FARMER	553	n/a	n/a	0	0	0
4498443	WORD	wordpools/wasnorm_wordpool_576.txt	LTP393	ltpFR2	9	22	WORKER	1621	n/a	n/a	0	0	0
4500943	WORD	wordpools/wasnorm_wordpool_576.txt	LTP393	ltpFR2	9	22	MATCH	878	n/a	n/a	0	0	0
4503542	WORD	wordpools/wasnorm_wordpool_576.txt	LTP393	ltpFR2	9	22	FIREPLACE	570	n/a	n/a	0	0	0
4506326	WORD	wordpools/wasnorm_wordpool_576.txt	LTP393	ltpFR2	9	22	FLESH	579	n/a	n/a	0	0	0
4508792	WORD	wordpools/wasnorm_wordpool_576.txt	LTP393	ltpFR2	9	22	TORTOISE	1486	n/a	n/a	0	0	0
4511259	WORD	wordpools/wasnorm_wordpool_576.txt	LTP393	ltpFR2	9	22	BANK	83	n/a	n/a	0	0	0
4514009	WORD	wordpools/wasnorm_wordpool_576.txt	LTP393	ltpFR2	9	22	LEG	809	n/a	n/a	0	0	0
4516476	WORD	wordpools/wasnorm_wordpool_576.txt	LTP393	ltpFR2	9	22	ANTLER	29	n/a	n/a	0	0	0
4519242	WORD	wordpools/wasnorm_wordpool_576.txt	LTP393	ltpFR2	9	22	HARP	689	n/a	n/a	0	0	0
4522026	WORD	wordpools/wasnorm_wordpool_576.txt	LTP393	ltpFR2	9	22	SUNRISE	1407	n/a	n/a	0	0	0
4524609	WORD	wordpools/wasnorm_wordpool_576.txt	LTP393	ltpFR2	9	22	SUNSET	1408	n/a	n/a	0	0	0
4527175	WORD	wordpools/wasnorm_wordpool_576.txt	LTP393	ltpFR2	9	22	BLENDER	136	n/a	n/a	0	0	0
4528792	START	n/a	LTP393	ltpFR2	9	n/a	n/a	n/a	33	n/a	n/a	n/a	n/a
4529838	DISTRACTOR	n/a	LTP393	ltpFR2	9	22	n/a	n/a	n/a	n/a	0	0	0
4529842	PROB	n/a	LTP393	ltpFR2	9	n/a	n/a	n/a	33	20	7	5	8
4532309	PROB	n/a	LTP393	ltpFR2	9	n/a	n/a	n/a	33	16	5	2	9
4534025	PROB	n/a	LTP393	ltpFR2	9	n/a	n/a	n/a	33	15	8	3	4
4535742	PROB	n/a	LTP393	ltpFR2	9	n/a	n/a	n/a	33	18	2	9	7
4537559	PROB	n/a	LTP393	ltpFR2	9	n/a	n/a	n/a	33	15	7	6	2
4539242	PROB	n/a	LTP393	ltpFR2	9	n/a	n/a	n/a	33	8	4	2	2
4541042	PROB	n/a	LTP393	ltpFR2	9	n/a	n/a	n/a	33	20	8	4	8
4543325	PROB	n/a	LTP393	ltpFR2	9	n/a	n/a	n/a	33	19	8	2	9
4545758	PROB	n/a	LTP393	ltpFR2	9	n/a	n/a	n/a	33	10	3	3	4
4548575	PROB	n/a	LTP393	ltpFR2	9	n/a	n/a	n/a	33	17	7	1	9
4551270	STOP	n/a	LTP393	ltpFR2	9	n/a	n/a	n/a	33	n/a	n/a	n/a	n/a
4554642	REC_START	n/a	LTP393	ltpFR2	9	22	n/a	n/a	n/a	n/a	0	0	0
4555470	REC_WORD	wordpools/wasnorm_wordpool_576.txt	LTP393	ltpFR2	9	22	FARMER	553	n/a	n/a	0	0	0
4557144	REC_WORD	wordpools/wasnorm_wordpool_576.txt	LTP393	ltpFR2	9	22	SUNRISE	1407	n/a	n/a	0	0	0
4558568	REC_WORD	wordpools/wasnorm_wordpool_576.txt	LTP393	ltpFR2	9	22	SUNSET	1408	n/a	n/a	0	0	0
4560428	REC_WORD	wordpools/wasnorm_wordpool_576.txt	LTP393	ltpFR2	9	22	FIREPLACE	570	n/a	n/a	0	0	0
4562155	REC_WORD	wordpools/wasnorm_wordpool_576.txt	LTP393	ltpFR2	9	22	FLESH	579	n/a	n/a	0	0	0
4645107	WORD	wordpools/wasnorm_wordpool_576.txt	LTP393	ltpFR2	9	23	PLATE	1086	n/a	n/a	0	0	0
4647740	WORD	wordpools/wasnorm_wordpool_576.txt	LTP393	ltpFR2	9	23	EUROPE	541	n/a	n/a	0	0	0
4650257	WORD	wordpools/wasnorm_wordpool_576.txt	LTP393	ltpFR2	9	23	PEDAL	1037	n/a	n/a	0	0	0
4653023	WORD	wordpools/wasnorm_wordpool_576.txt	LTP393	ltpFR2	9	23	LASER	801	n/a	n/a	0	0	0
4655657	WORD	wordpools/wasnorm_wordpool_576.txt	LTP393	ltpFR2	9	23	IDOL	733	n/a	n/a	0	0	0
4658290	WORD	wordpools/wasnorm_wordpool_576.txt	LTP393	ltpFR2	9	23	FOOTBALL	591	n/a	n/a	0	0	0
4660807	WORD	wordpools/wasnorm_wordpool_576.txt	LTP393	ltpFR2	9	23	COLONEL	348	n/a	n/a	0	0	0
4663340	WORD	wordpools/wasnorm_wordpool_576.txt	LTP393	ltpFR2	9	23	FIREMAN	569	n/a	n/a	0	0	0
4666123	WORD	wordpools/wasnorm_wordpool_576.txt	LTP393	ltpFR2	9	23	SNAKE	1333	n/a	n/a	0	0	0
4668840	WORD	wordpools/wasnorm_wordpool_576.txt	LTP393	ltpFR2	9	23	ARM	38	n/a	n/a	0	0	0
4671590	WORD	wordpools/wasnorm_wordpool_576.txt	LTP393	ltpFR2	9	23	CAFE	216	n/a	n/a	0	0	0
4674206	WORD	wordpools/wasnorm_wordpool_576.txt	LTP393	ltpFR2	9	23	REBEL	1172	n/a	n/a	0	0	0
4676640	WORD	wordpools/wasnorm_wordpool_576.txt	LTP393	ltpFR2	9	23	DRIVER	499	n/a	n/a	0	0	0
4679256	WORD	wordpools/wasnorm_wordpool_576.txt	LTP393	ltpFR2	9	23	PRINCE	1124	n/a	n/a	0	0	0
4681740	WORD	wordpools/wasnorm_wordpool_576.txt	LTP393	ltpFR2	9	23	QUEEN	1149	n/a	n/a	0	0	0
4684206	WORD	wordpools/wasnorm_wordpool_576.txt	LTP393	ltpFR2	9	23	HERO	706	n/a	n/a	0	0	0
4686756	WORD	wordpools/wasnorm_wordpool_576.txt	LTP393	ltpFR2	9	23	NIGHTGOWN	953	n/a	n/a	0	0	0
4689239	WORD	wordpools/wasnorm_wordpool_576.txt	LTP393	ltpFR2	9	23	PLAYGROUND	1087	n/a	n/a	0	0	0
4691706	WORD	wordpools/wasnorm_wordpool_576.txt	LTP393	ltpFR2	9	23	ARMY	39	n/a	n/a	0	0	0
4694306	WORD	wordpools/wasnorm_wordpool_576.txt	LTP393	ltpFR2	9	23	FRAME	600	n/a	n/a	0	0	0
4696873	WORD	wordpools/wasnorm_wordpool_576.txt	LTP393	ltpFR2	9	23	PORTRAIT	1111	n/a	n/a	0	0	0
4699323	WORD	wordpools/wasnorm_wordpool_576.txt	LTP393	ltpFR2	9	23	CRITIC	410	n/a	n/a	0	0	0
4701856	WORD	wordpools/wasnorm_wordpool_576.txt	LTP393	ltpFR2	9	23	CHEST	295	n/a	n/a	0	0	0
4704606	WORD	wordpools/wasnorm_wordpool_576.txt	LTP393	ltpFR2	9	23	BODY	145	n/a	n/a	0	0	0
4706223	START	n/a	LTP393	ltpFR2	9	n/a	n/a	n/a	34	n/a	n/a	n/a	n/a
4707145	DISTRACTOR	n/a	LTP393	ltpFR2	9	23	n/a	n/a	n/a	n/a	0	0	0
4730223	STOP	n/a	LTP393	ltpFR2	9	n/a	n/a	n/a	34	n/a	n/a	n/a	n/a
4731989	REC_START	n/a	LTP393	ltpFR2	9	23	n/a	n/a	n/a	n/a	0	0	0
4736035	REC_WORD	wordpools/wasnorm_wordpool_576.txt	LTP393	ltpFR2	9	23	PLAYGROUND	1087	n/a	n/a	0	0	0
4738276	REC_WORD	wordpools/wasnorm_wordpool_576.txt	LTP393	ltpFR2	9	23	HARP	689	n/a	n/a	0	0	0
4822437	DISTRACTOR	n/a	LTP393	ltpFR2	9	24	n/a	n/a	n/a	n/a	0	0	0
4822437	START	n/a	LTP393	ltpFR2	9	n/a	n/a	n/a	35	n/a	n/a	n/a	n/a
4822454	PROB	n/a	LTP393	ltpFR2	9	n/a	n/a	n/a	35	20	6	6	8
4826437	PROB	n/a	LTP393	ltpFR2	9	n/a	n/a	n/a	35	11	2	6	3
4832737	PROB	n/a	LTP393	ltpFR2	9	n/a	n/a	n/a	35	13	4	6	3
4834570	PROB	n/a	LTP393	ltpFR2	9	n/a	n/a	n/a	35	13	7	1	5
4836387	PROB	n/a	LTP393	ltpFR2	9	n/a	n/a	n/a	35	9	4	1	4
4837687	PROB	n/a	LTP393	ltpFR2	9	n/a	n/a	n/a	35	12	3	8	1
4840703	PROB	n/a	LTP393	ltpFR2	9	n/a	n/a	n/a	35	13	3	5	5
4842953	PROB	n/a	LTP393	ltpFR2	9	n/a	n/a	n/a	35	18	7	6	5
4845167	STOP	n/a	LTP393	ltpFR2	9	n/a	n/a	n/a	35	n/a	n/a	n/a	n/a
4847453	WORD	wordpools/wasnorm_wordpool_576.txt	LTP393	ltpFR2	9	24	GARLIC	624	n/a	n/a	0	0	0
4850270	WORD	wordpools/wasnorm_wordpool_576.txt	LTP393	ltpFR2	9	24	MUFFIN	929	n/a	n/a	0	0	0
4852837	WORD	wordpools/wasnorm_wordpool_576.txt	LTP393	ltpFR2	9	24	NECKLACE	940	n/a	n/a	0	0	0
4855603	WORD	wordpools/wasnorm_wordpool_576.txt	LTP393	ltpFR2	9	24	ORANGE	980	n/a	n/a	0	0	0
4858070	WORD	wordpools/wasnorm_wordpool_576.txt	LTP393	ltpFR2	9	24	CAPTIVE	240	n/a	n/a	0	0	0
4860687	WORD	wordpools/wasnorm_wordpool_576.txt	LTP393	ltpFR2	9	24	SALT	1229	n/a	n/a	0	0	0
4863286	WORD	wordpools/wasnorm_wordpool_576.txt	LTP393	ltpFR2	9	24	PEPPER	1047	n/a	n/a	0	0	0
4866053	WORD	wordpools/wasnorm_wordpool_576.txt	LTP393	ltpFR2	9	24	CABIN	211	n/a	n/a	0	0	0
4868520	WORD	wordpools/wasnorm_wordpool_576.txt	LTP393	ltpFR2	9	24	SHOVEL	1295	n/a	n/a	0	0	0
4871170	WORD	wordpools/wasnorm_wordpool_576.txt	LTP393	ltpFR2	9	24	COFFEE	341	n/a	n/a	0	0	0
4873603	WORD	wordpools/wasnorm_wordpool_576.txt	LTP393	ltpFR2	9	24	TART	1436	n/a	n/a	0	0	0
4876236	WORD	wordpools/wasnorm_wordpool_576.txt	LTP393	ltpFR2	9	24	PAIL	1002	n/a	n/a	0	0	0
4878986	WORD	wordpools/wasnorm_wordpool_576.txt	LTP393	ltpFR2	9	24	COWBOY	395	n/a	n/a	0	0	0
4881503	WORD	wordpools/wasnorm_wordpool_576.txt	LTP393	ltpFR2	9	24	SHERIFF	1284	n/a	n/a	0	0	0
4883986	WORD	wordpools/wasnorm_wordpool_576.txt	LTP393	ltpFR2	9	24	DOUGHNUT	490	n/a	n/a	0	0	0
4886536	WORD	wordpools/wasnorm_wordpool_576.txt	LTP393	ltpFR2	9	24	FLUTE	585	n/a	n/a	0	0	0
4889003	WORD	wordpools/wasnorm_wordpool_576.txt	LTP393	ltpFR2	9	24	JURY	766	n/a	n/a	0	0	0
4891703	WORD	wordpools/wasnorm_wordpool_576.txt	LTP393	ltpFR2	9	24	BUBBLE	183	n/a	n/a	0	0	0
4894236	WORD	wordpools/wasnorm_wordpool_576.txt	LTP393	ltpFR2	9	24	GRAVEL	659	n/a	n/a	0	0	0
4896736	WORD	wordpools/wasnorm_wordpool_576.txt	LTP393	ltpFR2	9	24	CHURCH	307	n/a	n/a	0	0	0
4899369	WORD	wordpools/wasnorm_wordpool_576.txt	LTP393	ltpFR2	9	24	VIRUS	1572	n/a	n/a	0	0	0
4901953	WORD	wordpools/wasnorm_wordpool_576.txt	LTP393	ltpFR2	9	24	GHETTO	633	n/a	n/a	0	0	0
4904753	WORD	wordpools/wasnorm_wordpool_576.txt	LTP393	ltpFR2	9	24	RIVER	1194	n/a	n/a	0	0	0
4907436	WORD	wordpools/wasnorm_wordpool_576.txt	LTP393	ltpFR2	9	24	YOLK	1633	n/a	n/a	0	0	0
4909053	START	n/a	LTP393	ltpFR2	9	n/a	n/a	n/a	36	n/a	n/a	n/a	n/a
4909871	DISTRACTOR	n/a	LTP393	ltpFR2	9	24	n/a	n/a	n/a	n/a	0	0	0
4909886	PROB	n/a	LTP393	ltpFR2	9	n/a	n/a	n/a	36	9	1	3	5
4914186	PROB	n/a	LTP393	ltpFR2	9	n/a	n/a	n/a	36	11	1	9	1
4915669	PROB	n/a	LTP393	ltpFR2	9	n/a	n/a	n/a	36	22	8	7	7
4928102	PROB	n/a	LTP393	ltpFR2	9	n/a	n/a	n/a	36	16	4	7	5
4932361	STOP	n/a	LTP393	ltpFR2	9	n/a	n/a	n/a	36	n/a	n/a	n/a	n/a
4934836	REC_START	n/a	LTP393	ltpFR2	9	24	n/a	n/a	n/a	n/a	0	0	0
4935511	REC_WORD	wordpools/wasnorm_wordpool_576.txt	LTP393	ltpFR2	9	24	GARLIC	624	n/a	n/a	0	0	0
4936744	REC_WORD	wordpools/wasnorm_wordpool_576.txt	LTP393	ltpFR2	9	24	COWBOY	395	n/a	n/a	0	0	0
4938177	REC_WORD	wordpools/wasnorm_wordpool_576.txt	LTP393	ltpFR2	9	24	SHERIFF	1284	n/a	n/a	0	0	0
4951824	REC_WORD	wordpools/wasnorm_wordpool_576.txt	LTP393	ltpFR2	9	24	JURY	766	n/a	n/a	0	0	0
4959260	REC_WORD	wordpools/wasnorm_wordpool_576.txt	LTP393	ltpFR2	9	24	MAP	865	n/a	n/a	0	0	0
4965362	REC_WORD	wordpools/wasnorm_wordpool_576.txt	LTP393	ltpFR2	9	24	RIVER	1194	n/a	n/a	0	0	0
4970216	REC_WORD	wordpools/wasnorm_wordpool_576.txt	LTP393	ltpFR2	9	24	TOURIST	1488	n/a	n/a	0	0	0
4987716	REC_WORD	wordpools/wasnorm_wordpool_576.txt	LTP393	ltpFR2	9	24	OATS	968	n/a	n/a	0	0	0
4999963	REC_WORD	wordpools/wasnorm_wordpool_576.txt	LTP393	ltpFR2	9	24	COFFEE	341	n/a	n/a	0	0	0
5014268	SESS_END	n/a	LTP393	ltpFR2	9	24	n/a	n/a	n/a	n/a	0	0	0
