onset	duration	trial_type	sample	stim_file	subject	experiment	session	trial	task	item_name	item_num	recog_conf	resp	color_b	color_g	color_r	case	font
445.59	n/a	SESS_START	222795	n/a	LTP293	ltpFR	6	n/a	n/a	n/a	n/a	4	n/a	n/a	n/a	n/a	n/a	n/a
546.95	n/a	WORD	273475	wordpools/wasnorm_wordpool_less_exclusions.txt	LTP293	ltpFR	6	1	0	KEG	770	n/a	0	0	0.5869140625	0.422607421875	lower	../fonts/zerothre.ttf
551.164	n/a	WORD	275582	wordpools/wasnorm_wordpool_less_exclusions.txt	LTP293	ltpFR	6	1	0	KIWI	781	n/a	0	0	0.5869140625	0.422607421875	lower	../fonts/zerothre.ttf
555.232	n/a	WORD	277616	wordpools/wasnorm_wordpool_less_exclusions.txt	LTP293	ltpFR	6	1	1	ACORN	3	n/a	1	1	0.412841796875	0.57763671875	upper	../fonts/amplitud.ttf
559.432	n/a	WORD	279716	wordpools/wasnorm_wordpool_less_exclusions.txt	LTP293	ltpFR	6	1	1	SCALE	1241	n/a	0	1	0.412841796875	0.57763671875	upper	../fonts/amplitud.ttf
563.514	n/a	WORD	281757	wordpools/wasnorm_wordpool_less_exclusions.txt	LTP293	ltpFR	6	1	1	DRINK	498	n/a	0	1	0.412841796875	0.57763671875	upper	../fonts/amplitud.ttf
567.612	n/a	WORD	283806	wordpools/wasnorm_wordpool_less_exclusions.txt	LTP293	ltpFR	6	1	1	DENIM	446	n/a	0	1	0.412841796875	0.57763671875	upper	../fonts/amplitud.ttf
571.476	n/a	WORD	285738	wordpools/wasnorm_wordpool_less_exclusions.txt	LTP293	ltpFR	6	1	1	TIMBER	1469	n/a	0	1	0.412841796875	0.57763671875	upper	../fonts/amplitud.ttf
575.46	n/a	WORD	287730	wordpools/wasnorm_wordpool_less_exclusions.txt	LTP293	ltpFR	6	1	0	SIBLING	1301	n/a	1	0	0.5869140625	0.422607421875	lower	../fonts/zerothre.ttf
579.592	n/a	WORD	289796	wordpools/wasnorm_wordpool_less_exclusions.txt	LTP293	ltpFR	6	1	0	PIG	1064	n/a	1	0	0.5869140625	0.422607421875	lower	../fonts/zerothre.ttf
583.606	n/a	WORD	291803	wordpools/wasnorm_wordpool_less_exclusions.txt	LTP293	ltpFR	6	1	0	THIGH	1457	n/a	0	0	0.5869140625	0.422607421875	lower	../fonts/zerothre.ttf
587.538	n/a	WORD	293769	wordpools/wasnorm_wordpool_less_exclusions.txt	LTP293	ltpFR	6	1	0	STUMP	1396	n/a	0	0	0.5869140625	0.422607421875	lower	../fonts/zerothre.ttf
591.37	n/a	WORD	295685	wordpools/wasnorm_wordpool_less_exclusions.txt	LTP293	ltpFR	6	1	1	LIMB	822	n/a	0	1	0.412841796875	0.57763671875	upper	../fonts/amplitud.ttf
595.57	n/a	WORD	297785	wordpools/wasnorm_wordpool_less_exclusions.txt	LTP293	ltpFR	6	1	1	ROPE	1211	n/a	0	1	0.412841796875	0.57763671875	upper	../fonts/amplitud.ttf
599.602	n/a	WORD	299801	wordpools/wasnorm_wordpool_less_exclusions.txt	LTP293	ltpFR	6	1	1	KITE	779	n/a	0	1	0.412841796875	0.57763671875	upper	../fonts/amplitud.ttf
603.75	n/a	WORD	301875	wordpools/wasnorm_wordpool_less_exclusions.txt	LTP293	ltpFR	6	1	0	BANDIT	81	n/a	1	0	0.5869140625	0.422607421875	lower	../fonts/zerothre.ttf
607.598	n/a	WORD	303799	wordpools/wasnorm_wordpool_less_exclusions.txt	LTP293	ltpFR	6	1	0	BURGLAR	200	n/a	1	0	0.5869140625	0.422607421875	lower	../fonts/zerothre.ttf
613.624	n/a	REC_START	306812	n/a	LTP293	ltpFR	6	1	n/a	n/a	n/a	n/a	n/a	n/a	n/a	n/a	n/a	n/a
614.326	n/a	REC_WORD	307163	wordpools/wasnorm_wordpool_less_exclusions.txt	LTP293	ltpFR	6	1	0	BANDIT	81	n/a	1	n/a	n/a	n/a	n/a	n/a
615.264	n/a	REC_WORD	307632	wordpools/wasnorm_wordpool_less_exclusions.txt	LTP293	ltpFR	6	1	0	BURGLAR	200	n/a	1	n/a	n/a	n/a	n/a	n/a
617.204	n/a	REC_WORD	308602	wordpools/wasnorm_wordpool_less_exclusions.txt	LTP293	ltpFR	6	1	0	SIBLING	1301	n/a	1	n/a	n/a	n/a	n/a	n/a
618.756	n/a	REC_WORD	309378	wordpools/wasnorm_wordpool_less_exclusions.txt	LTP293	ltpFR	6	1	0	KEG	770	n/a	0	n/a	n/a	n/a	n/a	n/a
619.746	n/a	REC_WORD	309873	wordpools/wasnorm_wordpool_less_exclusions.txt	LTP293	ltpFR	6	1	0	KIWI	781	n/a	0	n/a	n/a	n/a	n/a	n/a
621.646	n/a	REC_WORD	310823	wordpools/wasnorm_wordpool_less_exclusions.txt	LTP293	ltpFR	6	1	1	DRINK	498	n/a	0	n/a	n/a	n/a	n/a	n/a
623.694	n/a	REC_WORD	311847	wordpools/wasnorm_wordpool_less_exclusions.txt	LTP293	ltpFR	6	1	0	THIGH	1457	n/a	0	n/a	n/a	n/a	n/a	n/a
625.628	n/a	REC_WORD	312814	wordpools/wasnorm_wordpool_less_exclusions.txt	LTP293	ltpFR	6	1	0	STUMP	1396	n/a	0	n/a	n/a	n/a	n/a	n/a
627.412	n/a	REC_WORD	313706	wordpools/wasnorm_wordpool_less_exclusions.txt	LTP293	ltpFR	6	1	0	PIG	1064	n/a	1	n/a	n/a	n/a	n/a	n/a
641.08	n/a	REC_WORD	320540	wordpools/wasnorm_wordpool_less_exclusions.txt	LTP293	ltpFR	6	1	1	ACORN	3	n/a	1	n/a	n/a	n/a	n/a	n/a
735.788	n/a	WORD	367894	wordpools/wasnorm_wordpool_less_exclusions.txt	LTP293	ltpFR	6	2	1	SAPPHIRE	1234	n/a	0	1	0.412841796875	0.57763671875	upper	../fonts/amplitud.ttf
739.802	n/a	WORD	369901	wordpools/wasnorm_wordpool_less_exclusions.txt	LTP293	ltpFR	6	2	1	VISITOR	1573	n/a	1	1	0.412841796875	0.57763671875	upper	../fonts/amplitud.ttf
743.802	n/a	WORD	371901	wordpools/wasnorm_wordpool_less_exclusions.txt	LTP293	ltpFR	6	2	0	HAMPER	682	n/a	1	0	0.5869140625	0.422607421875	lower	../fonts/zerothre.ttf
747.65	n/a	WORD	373825	wordpools/wasnorm_wordpool_less_exclusions.txt	LTP293	ltpFR	6	2	0	LAPEL	800	n/a	0	0	0.5869140625	0.422607421875	lower	../fonts/zerothre.ttf
751.832	n/a	WORD	375916	wordpools/wasnorm_wordpool_less_exclusions.txt	LTP293	ltpFR	6	2	1	KIDNEY	776	n/a	0	1	0.412841796875	0.57763671875	upper	../fonts/amplitud.ttf
755.864	n/a	WORD	377932	wordpools/wasnorm_wordpool_less_exclusions.txt	LTP293	ltpFR	6	2	1	NICKEL	950	n/a	0	1	0.412841796875	0.57763671875	upper	../fonts/amplitud.ttf
759.912	n/a	WORD	379956	wordpools/wasnorm_wordpool_less_exclusions.txt	LTP293	ltpFR	6	2	1	CENT	270	n/a	0	1	0.412841796875	0.57763671875	upper	../fonts/amplitud.ttf
764.08	n/a	WORD	382040	wordpools/wasnorm_wordpool_less_exclusions.txt	LTP293	ltpFR	6	2	1	CARRIAGE	248	n/a	0	1	0.412841796875	0.57763671875	upper	../fonts/amplitud.ttf
767.994	n/a	WORD	383997	wordpools/wasnorm_wordpool_less_exclusions.txt	LTP293	ltpFR	6	2	0	REFRIGERATOR	1179	n/a	1	0	0.5869140625	0.422607421875	lower	../fonts/zerothre.ttf
771.892	n/a	WORD	385946	wordpools/wasnorm_wordpool_less_exclusions.txt	LTP293	ltpFR	6	2	0	VENT	1556	n/a	1	0	0.5869140625	0.422607421875	lower	../fonts/zerothre.ttf
775.824	n/a	WORD	387912	wordpools/wasnorm_wordpool_less_exclusions.txt	LTP293	ltpFR	6	2	0	SIGN	1305	n/a	0	0	0.5869140625	0.422607421875	lower	../fonts/zerothre.ttf
779.822	n/a	WORD	389911	wordpools/wasnorm_wordpool_less_exclusions.txt	LTP293	ltpFR	6	2	0	TRACTOR	1493	n/a	1	0	0.5869140625	0.422607421875	lower	../fonts/zerothre.ttf
783.988	n/a	WORD	391994	wordpools/wasnorm_wordpool_less_exclusions.txt	LTP293	ltpFR	6	2	0	ENEMY	534	n/a	1	0	0.5869140625	0.422607421875	lower	../fonts/zerothre.ttf
787.936	n/a	WORD	393968	wordpools/wasnorm_wordpool_less_exclusions.txt	LTP293	ltpFR	6	2	0	SALMON	1227	n/a	0	0	0.5869140625	0.422607421875	lower	../fonts/zerothre.ttf
792.102	n/a	WORD	396051	wordpools/wasnorm_wordpool_less_exclusions.txt	LTP293	ltpFR	6	2	1	FOLLOWER	589	n/a	1	1	0.412841796875	0.57763671875	upper	../fonts/amplitud.ttf
796.05	n/a	WORD	398025	wordpools/wasnorm_wordpool_less_exclusions.txt	LTP293	ltpFR	6	2	1	SENATOR	1268	n/a	1	1	0.412841796875	0.57763671875	upper	../fonts/amplitud.ttf
801.892	n/a	REC_START	400946	n/a	LTP293	ltpFR	6	2	n/a	n/a	n/a	n/a	n/a	n/a	n/a	n/a	n/a	n/a
802.432	n/a	REC_WORD	401216	wordpools/wasnorm_wordpool_less_exclusions.txt	LTP293	ltpFR	6	2	1	SENATOR	1268	n/a	1	n/a	n/a	n/a	n/a	n/a
803.49	n/a	REC_WORD	401745	wordpools/wasnorm_wordpool_less_exclusions.txt	LTP293	ltpFR	6	2	1	FOLLOWER	589	n/a	1	n/a	n/a	n/a	n/a	n/a
805.224	n/a	REC_WORD	402612	wordpools/wasnorm_wordpool_less_exclusions.txt	LTP293	ltpFR	6	2	0	ENEMY	534	n/a	1	n/a	n/a	n/a	n/a	n/a
807.828	n/a	REC_WORD	403914	wordpools/wasnorm_wordpool_less_exclusions.txt	LTP293	ltpFR	6	2	1	VISITOR	1573	n/a	1	n/a	n/a	n/a	n/a	n/a
809.046	n/a	REC_WORD	404523	wordpools/wasnorm_wordpool_less_exclusions.txt	LTP293	ltpFR	6	2	1	SAPPHIRE	1234	n/a	0	n/a	n/a	n/a	n/a	n/a
810.718	n/a	REC_WORD	405359	wordpools/wasnorm_wordpool_less_exclusions.txt	LTP293	ltpFR	6	2	0	HAMPER	682	n/a	1	n/a	n/a	n/a	n/a	n/a
812.562	n/a	REC_WORD	406281	wordpools/wasnorm_wordpool_less_exclusions.txt	LTP293	ltpFR	6	2	1	NICKEL	950	n/a	0	n/a	n/a	n/a	n/a	n/a
813.58	n/a	REC_WORD	406790	wordpools/wasnorm_wordpool_less_exclusions.txt	LTP293	ltpFR	6	2	1	CENT	270	n/a	0	n/a	n/a	n/a	n/a	n/a
815.472	n/a	REC_WORD	407736	wordpools/wasnorm_wordpool_less_exclusions.txt	LTP293	ltpFR	6	2	1	KIDNEY	776	n/a	0	n/a	n/a	n/a	n/a	n/a
817.258	n/a	REC_WORD	408629	wordpools/wasnorm_wordpool_less_exclusions.txt	LTP293	ltpFR	6	2	0	SIGN	1305	n/a	0	n/a	n/a	n/a	n/a	n/a
818.476	n/a	REC_WORD	409238	wordpools/wasnorm_wordpool_less_exclusions.txt	LTP293	ltpFR	6	2	0	REFRIGERATOR	1179	n/a	1	n/a	n/a	n/a	n/a	n/a
834.89	n/a	REC_WORD	417445	wordpools/wasnorm_wordpool_less_exclusions.txt	LTP293	ltpFR	6	2	0	VENT	1556	n/a	1	n/a	n/a	n/a	n/a	n/a
918.972	n/a	WORD	459486	wordpools/wasnorm_wordpool_less_exclusions.txt	LTP293	ltpFR	6	3	1	SUBMARINE	1398	n/a	0	1	0.412841796875	0.57763671875	upper	../fonts/amplitud.ttf
922.886	n/a	WORD	461443	wordpools/wasnorm_wordpool_less_exclusions.txt	LTP293	ltpFR	6	3	1	PEAR	1033	n/a	1	1	0.412841796875	0.57763671875	upper	../fonts/amplitud.ttf
926.818	n/a	WORD	463409	wordpools/wasnorm_wordpool_less_exclusions.txt	LTP293	ltpFR	6	3	1	PIRATE	1074	n/a	1	1	0.412841796875	0.57763671875	upper	../fonts/amplitud.ttf
930.932	n/a	WORD	465466	wordpools/wasnorm_wordpool_less_exclusions.txt	LTP293	ltpFR	6	3	0	CUP	424	n/a	0	0	0.5869140625	0.422607421875	lower	../fonts/zerothre.ttf
934.982	n/a	WORD	467491	wordpools/wasnorm_wordpool_less_exclusions.txt	LTP293	ltpFR	6	3	0	VIKING	1565	n/a	1	0	0.5869140625	0.422607421875	lower	../fonts/zerothre.ttf
938.93	n/a	WORD	469465	wordpools/wasnorm_wordpool_less_exclusions.txt	LTP293	ltpFR	6	3	0	YACHT	1629	n/a	1	0	0.5869140625	0.422607421875	lower	../fonts/zerothre.ttf
942.946	n/a	WORD	471473	wordpools/wasnorm_wordpool_less_exclusions.txt	LTP293	ltpFR	6	3	0	VET	1560	n/a	1	0	0.5869140625	0.422607421875	lower	../fonts/zerothre.ttf
947.078	n/a	WORD	473539	wordpools/wasnorm_wordpool_less_exclusions.txt	LTP293	ltpFR	6	3	0	PRINCE	1124	n/a	1	0	0.5869140625	0.422607421875	lower	../fonts/zerothre.ttf
951.144	n/a	WORD	475572	wordpools/wasnorm_wordpool_less_exclusions.txt	LTP293	ltpFR	6	3	1	HOUSE	725	n/a	0	1	0.412841796875	0.57763671875	upper	../fonts/amplitud.ttf
955.076	n/a	WORD	477538	wordpools/wasnorm_wordpool_less_exclusions.txt	LTP293	ltpFR	6	3	1	CONTRACTOR	369	n/a	1	1	0.412841796875	0.57763671875	upper	../fonts/amplitud.ttf
959.158	n/a	WORD	479579	wordpools/wasnorm_wordpool_less_exclusions.txt	LTP293	ltpFR	6	3	1	GLASS	639	n/a	0	1	0.412841796875	0.57763671875	upper	../fonts/amplitud.ttf
962.972	n/a	WORD	481486	wordpools/wasnorm_wordpool_less_exclusions.txt	LTP293	ltpFR	6	3	1	MOUSE	925	n/a	1	1	0.412841796875	0.57763671875	upper	../fonts/amplitud.ttf
966.988	n/a	WORD	483494	wordpools/wasnorm_wordpool_less_exclusions.txt	LTP293	ltpFR	6	3	1	PIER	1063	n/a	0	1	0.412841796875	0.57763671875	upper	../fonts/amplitud.ttf
971.088	n/a	WORD	485544	wordpools/wasnorm_wordpool_less_exclusions.txt	LTP293	ltpFR	6	3	0	JOURNAL	760	n/a	0	0	0.5869140625	0.422607421875	lower	../fonts/zerothre.ttf
974.918	n/a	WORD	487459	wordpools/wasnorm_wordpool_less_exclusions.txt	LTP293	ltpFR	6	3	0	LABEL	790	n/a	0	0	0.5869140625	0.422607421875	lower	../fonts/zerothre.ttf
978.85	n/a	WORD	489425	wordpools/wasnorm_wordpool_less_exclusions.txt	LTP293	ltpFR	6	3	0	BOUILLON	154	n/a	0	0	0.5869140625	0.422607421875	lower	../fonts/zerothre.ttf
984.706	n/a	REC_START	492353	n/a	LTP293	ltpFR	6	3	n/a	n/a	n/a	n/a	n/a	n/a	n/a	n/a	n/a	n/a
985.282	n/a	REC_WORD	492641	wordpools/wasnorm_wordpool_less_exclusions.txt	LTP293	ltpFR	6	3	0	BOUILLON	154	n/a	0	n/a	n/a	n/a	n/a	n/a
986.966	n/a	REC_WORD	493483	wordpools/wasnorm_wordpool_less_exclusions.txt	LTP293	ltpFR	6	3	1	CONTRACTOR	369	n/a	1	n/a	n/a	n/a	n/a	n/a
988.044	n/a	REC_WORD	494022	wordpools/wasnorm_wordpool_less_exclusions.txt	LTP293	ltpFR	6	3	1	HOUSE	725	n/a	0	n/a	n/a	n/a	n/a	n/a
989.262	n/a	REC_WORD	494631	wordpools/wasnorm_wordpool_less_exclusions.txt	LTP293	ltpFR	6	3	1	PIRATE	1074	n/a	1	n/a	n/a	n/a	n/a	n/a
990.138	n/a	REC_WORD	495069	wordpools/wasnorm_wordpool_less_exclusions.txt	LTP293	ltpFR	6	3	0	YACHT	1629	n/a	1	n/a	n/a	n/a	n/a	n/a
991.042	n/a	REC_WORD	495521	wordpools/wasnorm_wordpool_less_exclusions.txt	LTP293	ltpFR	6	3	1	SUBMARINE	1398	n/a	0	n/a	n/a	n/a	n/a	n/a
992.696	n/a	REC_WORD	496348	wordpools/wasnorm_wordpool_less_exclusions.txt	LTP293	ltpFR	6	3	0	CUP	424	n/a	0	n/a	n/a	n/a	n/a	n/a
993.742	n/a	REC_WORD	496871	wordpools/wasnorm_wordpool_less_exclusions.txt	LTP293	ltpFR	6	3	1	GLASS	639	n/a	0	n/a	n/a	n/a	n/a	n/a
994.812	n/a	REC_WORD	497406	wordpools/wasnorm_wordpool_less_exclusions.txt	LTP293	ltpFR	6	3	1	PEAR	1033	n/a	1	n/a	n/a	n/a	n/a	n/a
1008.188	n/a	REC_WORD	504094	wordpools/wasnorm_wordpool_less_exclusions.txt	LTP293	ltpFR	6	3	0	JOURNAL	760	n/a	0	n/a	n/a	n/a	n/a	n/a
1096.214	n/a	WORD	548107	wordpools/wasnorm_wordpool_less_exclusions.txt	LTP293	ltpFR	6	4	-1	IRON	744	n/a	-1	1	1.0	1.0	upper	../fonts/Verdana.ttf
1100.246	n/a	WORD	550123	wordpools/wasnorm_wordpool_less_exclusions.txt	LTP293	ltpFR	6	4	-1	SKI	1316	n/a	-1	1	1.0	1.0	upper	../fonts/Verdana.ttf
1104.38	n/a	WORD	552190	wordpools/wasnorm_wordpool_less_exclusions.txt	LTP293	ltpFR	6	4	-1	SLEIGH	1325	n/a	-1	1	1.0	1.0	upper	../fonts/Verdana.ttf
1108.212	n/a	WORD	554106	wordpools/wasnorm_wordpool_less_exclusions.txt	LTP293	ltpFR	6	4	-1	MILK	895	n/a	-1	1	1.0	1.0	upper	../fonts/Verdana.ttf
1112.16	n/a	WORD	556080	wordpools/wasnorm_wordpool_less_exclusions.txt	LTP293	ltpFR	6	4	-1	TROUT	1511	n/a	-1	1	1.0	1.0	upper	../fonts/Verdana.ttf
1116.056	n/a	WORD	558028	wordpools/wasnorm_wordpool_less_exclusions.txt	LTP293	ltpFR	6	4	-1	FRIEND	606	n/a	-1	1	1.0	1.0	upper	../fonts/Verdana.ttf
1119.904	n/a	WORD	559952	wordpools/wasnorm_wordpool_less_exclusions.txt	LTP293	ltpFR	6	4	-1	APRON	35	n/a	-1	1	1.0	1.0	upper	../fonts/Verdana.ttf
1124.106	n/a	WORD	562053	wordpools/wasnorm_wordpool_less_exclusions.txt	LTP293	ltpFR	6	4	-1	SHARK	1275	n/a	-1	1	1.0	1.0	upper	../fonts/Verdana.ttf
1127.954	n/a	WORD	563977	wordpools/wasnorm_wordpool_less_exclusions.txt	LTP293	ltpFR	6	4	-1	MEDAL	885	n/a	-1	1	1.0	1.0	upper	../fonts/Verdana.ttf
1132.002	n/a	WORD	566001	wordpools/wasnorm_wordpool_less_exclusions.txt	LTP293	ltpFR	6	4	-1	BALLERINA	74	n/a	-1	1	1.0	1.0	upper	../fonts/Verdana.ttf
1135.882	n/a	WORD	567941	wordpools/wasnorm_wordpool_less_exclusions.txt	LTP293	ltpFR	6	4	-1	CANDLE	229	n/a	-1	1	1.0	1.0	upper	../fonts/Verdana.ttf
1140.084	n/a	WORD	570042	wordpools/wasnorm_wordpool_less_exclusions.txt	LTP293	ltpFR	6	4	-1	FAMILY	550	n/a	-1	1	1.0	1.0	upper	../fonts/Verdana.ttf
1143.898	n/a	WORD	571949	wordpools/wasnorm_wordpool_less_exclusions.txt	LTP293	ltpFR	6	4	-1	EAGLE	512	n/a	-1	1	1.0	1.0	upper	../fonts/Verdana.ttf
1147.896	n/a	WORD	573948	wordpools/wasnorm_wordpool_less_exclusions.txt	LTP293	ltpFR	6	4	-1	PARROT	1015	n/a	-1	1	1.0	1.0	upper	../fonts/Verdana.ttf
1151.81	n/a	WORD	575905	wordpools/wasnorm_wordpool_less_exclusions.txt	LTP293	ltpFR	6	4	-1	CHIMNEY	301	n/a	-1	1	1.0	1.0	upper	../fonts/Verdana.ttf
1155.91	n/a	WORD	577955	wordpools/wasnorm_wordpool_less_exclusions.txt	LTP293	ltpFR	6	4	-1	CHARCOAL	281	n/a	-1	1	1.0	1.0	upper	../fonts/Verdana.ttf
1161.734	n/a	REC_START	580867	n/a	LTP293	ltpFR	6	4	n/a	n/a	n/a	n/a	n/a	n/a	n/a	n/a	n/a	n/a
1162.092	n/a	REC_WORD	581046	wordpools/wasnorm_wordpool_less_exclusions.txt	LTP293	ltpFR	6	4	-1	CHARCOAL	281	n/a	-1	n/a	n/a	n/a	n/a	n/a
1162.936	n/a	REC_WORD	581468	wordpools/wasnorm_wordpool_less_exclusions.txt	LTP293	ltpFR	6	4	-1	CHIMNEY	301	n/a	-1	n/a	n/a	n/a	n/a	n/a
1163.804	n/a	REC_WORD	581902	wordpools/wasnorm_wordpool_less_exclusions.txt	LTP293	ltpFR	6	4	-1	PARROT	1015	n/a	-1	n/a	n/a	n/a	n/a	n/a
1165.1	n/a	REC_WORD	582550	wordpools/wasnorm_wordpool_less_exclusions.txt	LTP293	ltpFR	6	4	-1	FRIEND	606	n/a	-1	n/a	n/a	n/a	n/a	n/a
1165.932	n/a	REC_WORD	582966	wordpools/wasnorm_wordpool_less_exclusions.txt	LTP293	ltpFR	6	4	-1	FAMILY	550	n/a	-1	n/a	n/a	n/a	n/a	n/a
1167.48	n/a	REC_WORD	583740	wordpools/wasnorm_wordpool_less_exclusions.txt	LTP293	ltpFR	6	4	-1	BALLERINA	74	n/a	-1	n/a	n/a	n/a	n/a	n/a
1169.002	n/a	REC_WORD	584501	wordpools/wasnorm_wordpool_less_exclusions.txt	LTP293	ltpFR	6	4	-1	IRON	744	n/a	-1	n/a	n/a	n/a	n/a	n/a
1169.984	n/a	REC_WORD	584992	wordpools/wasnorm_wordpool_less_exclusions.txt	LTP293	ltpFR	6	4	-1	MEDAL	885	n/a	-1	n/a	n/a	n/a	n/a	n/a
1173.002	n/a	REC_WORD	586501	wordpools/wasnorm_wordpool_less_exclusions.txt	LTP293	ltpFR	6	4	-1	SKI	1316	n/a	-1	n/a	n/a	n/a	n/a	n/a
1176.604	n/a	REC_WORD	588302	wordpools/wasnorm_wordpool_less_exclusions.txt	LTP293	ltpFR	6	4	-1	MILK	895	n/a	-1	n/a	n/a	n/a	n/a	n/a
1189.66	n/a	REC_WORD	594830	wordpools/wasnorm_wordpool_less_exclusions.txt	LTP293	ltpFR	6	4	-1	CANDLE	229	n/a	-1	n/a	n/a	n/a	n/a	n/a
1197.778	n/a	REC_WORD	598889	wordpools/wasnorm_wordpool_less_exclusions.txt	LTP293	ltpFR	6	4	-1	APRON	35	n/a	-1	n/a	n/a	n/a	n/a	n/a
1248.664	n/a	WORD	624332	wordpools/wasnorm_wordpool_less_exclusions.txt	LTP293	ltpFR	6	5	1	ISLAND	745	n/a	0	1	0.412841796875	0.57763671875	upper	../fonts/amplitud.ttf
1252.614	n/a	WORD	626307	wordpools/wasnorm_wordpool_less_exclusions.txt	LTP293	ltpFR	6	5	1	PORT	1110	n/a	0	1	0.412841796875	0.57763671875	upper	../fonts/amplitud.ttf
1256.444	n/a	WORD	628222	wordpools/wasnorm_wordpool_less_exclusions.txt	LTP293	ltpFR	6	5	1	ELECTRICIAN	521	n/a	1	1	0.412841796875	0.57763671875	upper	../fonts/amplitud.ttf
1260.494	n/a	WORD	630247	wordpools/wasnorm_wordpool_less_exclusions.txt	LTP293	ltpFR	6	5	1	PLUM	1090	n/a	0	1	0.412841796875	0.57763671875	upper	../fonts/amplitud.ttf
1264.426	n/a	WORD	632213	wordpools/wasnorm_wordpool_less_exclusions.txt	LTP293	ltpFR	6	5	1	PIPE	1073	n/a	0	1	0.412841796875	0.57763671875	upper	../fonts/amplitud.ttf
1268.608	n/a	WORD	634304	wordpools/wasnorm_wordpool_less_exclusions.txt	LTP293	ltpFR	6	5	1	LILY	821	n/a	0	1	0.412841796875	0.57763671875	upper	../fonts/amplitud.ttf
1272.64	n/a	WORD	636320	wordpools/wasnorm_wordpool_less_exclusions.txt	LTP293	ltpFR	6	5	1	TELEPHONE	1445	n/a	0	1	0.412841796875	0.57763671875	upper	../fonts/amplitud.ttf
1276.722	n/a	WORD	638361	wordpools/wasnorm_wordpool_less_exclusions.txt	LTP293	ltpFR	6	5	1	MESSAGE	888	n/a	0	1	0.412841796875	0.57763671875	upper	../fonts/amplitud.ttf
1280.588	n/a	WORD	640294	wordpools/wasnorm_wordpool_less_exclusions.txt	LTP293	ltpFR	6	5	1	ASH	44	n/a	0	1	0.412841796875	0.57763671875	upper	../fonts/amplitud.ttf
1284.67	n/a	WORD	642335	wordpools/wasnorm_wordpool_less_exclusions.txt	LTP293	ltpFR	6	5	1	BULB	192	n/a	0	1	0.412841796875	0.57763671875	upper	../fonts/amplitud.ttf
1288.518	n/a	WORD	644259	wordpools/wasnorm_wordpool_less_exclusions.txt	LTP293	ltpFR	6	5	1	DECK	443	n/a	0	1	0.412841796875	0.57763671875	upper	../fonts/amplitud.ttf
1292.734	n/a	WORD	646367	wordpools/wasnorm_wordpool_less_exclusions.txt	LTP293	ltpFR	6	5	1	JOKER	759	n/a	0	1	0.412841796875	0.57763671875	upper	../fonts/amplitud.ttf
1296.616	n/a	WORD	648308	wordpools/wasnorm_wordpool_less_exclusions.txt	LTP293	ltpFR	6	5	1	NEPHEW	942	n/a	1	1	0.412841796875	0.57763671875	upper	../fonts/amplitud.ttf
1300.73	n/a	WORD	650365	wordpools/wasnorm_wordpool_less_exclusions.txt	LTP293	ltpFR	6	5	1	FARM	552	n/a	0	1	0.412841796875	0.57763671875	upper	../fonts/amplitud.ttf
1304.646	n/a	WORD	652323	wordpools/wasnorm_wordpool_less_exclusions.txt	LTP293	ltpFR	6	5	1	ANTEATER	26	n/a	1	1	0.412841796875	0.57763671875	upper	../fonts/amplitud.ttf
1308.678	n/a	WORD	654339	wordpools/wasnorm_wordpool_less_exclusions.txt	LTP293	ltpFR	6	5	1	TWIG	1527	n/a	0	1	0.412841796875	0.57763671875	upper	../fonts/amplitud.ttf
1314.618	n/a	REC_START	657309	n/a	LTP293	ltpFR	6	5	n/a	n/a	n/a	n/a	n/a	n/a	n/a	n/a	n/a	n/a
1315.282	n/a	REC_WORD	657641	wordpools/wasnorm_wordpool_less_exclusions.txt	LTP293	ltpFR	6	5	1	TWIG	1527	n/a	0	n/a	n/a	n/a	n/a	n/a
1316.294	n/a	REC_WORD	658147	wordpools/wasnorm_wordpool_less_exclusions.txt	LTP293	ltpFR	6	5	1	ANTEATER	26	n/a	1	n/a	n/a	n/a	n/a	n/a
1317.926	n/a	REC_WORD	658963	wordpools/wasnorm_wordpool_less_exclusions.txt	LTP293	ltpFR	6	5	1	LILY	821	n/a	0	n/a	n/a	n/a	n/a	n/a
1319.076	n/a	REC_WORD	659538	wordpools/wasnorm_wordpool_less_exclusions.txt	LTP293	ltpFR	6	5	1	NEPHEW	942	n/a	1	n/a	n/a	n/a	n/a	n/a
1320.942	n/a	REC_WORD	660471	wordpools/wasnorm_wordpool_less_exclusions.txt	LTP293	ltpFR	6	5	n/a	BONE	148	n/a	n/a	n/a	n/a	n/a	n/a	n/a
1322.75	n/a	REC_WORD	661375	wordpools/wasnorm_wordpool_less_exclusions.txt	LTP293	ltpFR	6	5	1	MESSAGE	888	n/a	0	n/a	n/a	n/a	n/a	n/a
1324.452	n/a	REC_WORD	662226	wordpools/wasnorm_wordpool_less_exclusions.txt	LTP293	ltpFR	6	5	1	BULB	192	n/a	0	n/a	n/a	n/a	n/a	n/a
1325.294	n/a	REC_WORD	662647	wordpools/wasnorm_wordpool_less_exclusions.txt	LTP293	ltpFR	6	5	1	ELECTRICIAN	521	n/a	1	n/a	n/a	n/a	n/a	n/a
1328.182	n/a	REC_WORD	664091	wordpools/wasnorm_wordpool_less_exclusions.txt	LTP293	ltpFR	6	5	1	PLUM	1090	n/a	0	n/a	n/a	n/a	n/a	n/a
1329.29	n/a	REC_WORD	664645	wordpools/wasnorm_wordpool_less_exclusions.txt	LTP293	ltpFR	6	5	1	PIPE	1073	n/a	0	n/a	n/a	n/a	n/a	n/a
1332.092	n/a	REC_WORD	666046	wordpools/wasnorm_wordpool_less_exclusions.txt	LTP293	ltpFR	6	5	1	JOKER	759	n/a	0	n/a	n/a	n/a	n/a	n/a
1333.764	n/a	REC_WORD	666882	wordpools/wasnorm_wordpool_less_exclusions.txt	LTP293	ltpFR	6	5	1	PORT	1110	n/a	0	n/a	n/a	n/a	n/a	n/a
1337.5	n/a	REC_WORD	668750	wordpools/wasnorm_wordpool_less_exclusions.txt	LTP293	ltpFR	6	5	1	ISLAND	745	n/a	0	n/a	n/a	n/a	n/a	n/a
1339.74	n/a	REC_WORD	669870	wordpools/wasnorm_wordpool_less_exclusions.txt	LTP293	ltpFR	6	5	1	FARM	552	n/a	0	n/a	n/a	n/a	n/a	n/a
1426.562	n/a	WORD	713281	wordpools/wasnorm_wordpool_less_exclusions.txt	LTP293	ltpFR	6	6	0	POND	1101	n/a	1	0	0.5869140625	0.422607421875	lower	../fonts/zerothre.ttf
1430.56	n/a	WORD	715280	wordpools/wasnorm_wordpool_less_exclusions.txt	LTP293	ltpFR	6	6	0	POTTERY	1116	n/a	0	0	0.5869140625	0.422607421875	lower	../fonts/zerothre.ttf
1434.726	n/a	WORD	717363	wordpools/wasnorm_wordpool_less_exclusions.txt	LTP293	ltpFR	6	6	0	WORKER	1621	n/a	1	0	0.5869140625	0.422607421875	lower	../fonts/zerothre.ttf
1438.84	n/a	WORD	719420	wordpools/wasnorm_wordpool_less_exclusions.txt	LTP293	ltpFR	6	6	0	MINK	897	n/a	0	0	0.5869140625	0.422607421875	lower	../fonts/zerothre.ttf
1442.756	n/a	WORD	721378	wordpools/wasnorm_wordpool_less_exclusions.txt	LTP293	ltpFR	6	6	0	BOOTH	151	n/a	1	0	0.5869140625	0.422607421875	lower	../fonts/zerothre.ttf
1446.656	n/a	WORD	723328	wordpools/wasnorm_wordpool_less_exclusions.txt	LTP293	ltpFR	6	6	0	DIAL	457	n/a	0	0	0.5869140625	0.422607421875	lower	../fonts/zerothre.ttf
1450.77	n/a	WORD	725385	wordpools/wasnorm_wordpool_less_exclusions.txt	LTP293	ltpFR	6	6	0	SNOB	1335	n/a	1	0	0.5869140625	0.422607421875	lower	../fonts/zerothre.ttf
1454.768	n/a	WORD	727384	wordpools/wasnorm_wordpool_less_exclusions.txt	LTP293	ltpFR	6	6	0	FARMER	553	n/a	1	0	0.5869140625	0.422607421875	lower	../fonts/zerothre.ttf
1458.618	n/a	WORD	729309	wordpools/wasnorm_wordpool_less_exclusions.txt	LTP293	ltpFR	6	6	0	GOOSE	649	n/a	1	0	0.5869140625	0.422607421875	lower	../fonts/zerothre.ttf
1462.55	n/a	WORD	731275	wordpools/wasnorm_wordpool_less_exclusions.txt	LTP293	ltpFR	6	6	0	SAGE	1222	n/a	0	0	0.5869140625	0.422607421875	lower	../fonts/zerothre.ttf
1466.582	n/a	WORD	733291	wordpools/wasnorm_wordpool_less_exclusions.txt	LTP293	ltpFR	6	6	0	FLESH	579	n/a	0	0	0.5869140625	0.422607421875	lower	../fonts/zerothre.ttf
1470.762	n/a	WORD	735381	wordpools/wasnorm_wordpool_less_exclusions.txt	LTP293	ltpFR	6	6	0	VEIN	1554	n/a	0	0	0.5869140625	0.422607421875	lower	../fonts/zerothre.ttf
1474.828	n/a	WORD	737414	wordpools/wasnorm_wordpool_less_exclusions.txt	LTP293	ltpFR	6	6	0	EWE	542	n/a	1	0	0.5869140625	0.422607421875	lower	../fonts/zerothre.ttf
1479.012	n/a	WORD	739506	wordpools/wasnorm_wordpool_less_exclusions.txt	LTP293	ltpFR	6	6	0	RUST	1219	n/a	0	0	0.5869140625	0.422607421875	lower	../fonts/zerothre.ttf
1482.91	n/a	WORD	741455	wordpools/wasnorm_wordpool_less_exclusions.txt	LTP293	ltpFR	6	6	0	GOLD	647	n/a	0	0	0.5869140625	0.422607421875	lower	../fonts/zerothre.ttf
1486.792	n/a	WORD	743396	wordpools/wasnorm_wordpool_less_exclusions.txt	LTP293	ltpFR	6	6	0	TILE	1468	n/a	0	0	0.5869140625	0.422607421875	lower	../fonts/zerothre.ttf
1492.43	n/a	REC_START	746215	n/a	LTP293	ltpFR	6	6	n/a	n/a	n/a	n/a	n/a	n/a	n/a	n/a	n/a	n/a
1493.13	n/a	REC_WORD	746565	wordpools/wasnorm_wordpool_less_exclusions.txt	LTP293	ltpFR	6	6	0	TILE	1468	n/a	0	n/a	n/a	n/a	n/a	n/a
1494.48	n/a	REC_WORD	747240	wordpools/wasnorm_wordpool_less_exclusions.txt	LTP293	ltpFR	6	6	0	BOOTH	151	n/a	1	n/a	n/a	n/a	n/a	n/a
1495.54	n/a	REC_WORD	747770	wordpools/wasnorm_wordpool_less_exclusions.txt	LTP293	ltpFR	6	6	0	WORKER	1621	n/a	1	n/a	n/a	n/a	n/a	n/a
1498.016	n/a	REC_WORD	749008	wordpools/wasnorm_wordpool_less_exclusions.txt	LTP293	ltpFR	6	6	0	SNOB	1335	n/a	1	n/a	n/a	n/a	n/a	n/a
1500.266	n/a	REC_WORD	750133	wordpools/wasnorm_wordpool_less_exclusions.txt	LTP293	ltpFR	6	6	0	DIAL	457	n/a	0	n/a	n/a	n/a	n/a	n/a
1501.524	n/a	REC_WORD	750762	wordpools/wasnorm_wordpool_less_exclusions.txt	LTP293	ltpFR	6	6	0	FLESH	579	n/a	0	n/a	n/a	n/a	n/a	n/a
1503.172	n/a	REC_WORD	751586	wordpools/wasnorm_wordpool_less_exclusions.txt	LTP293	ltpFR	6	6	0	POND	1101	n/a	1	n/a	n/a	n/a	n/a	n/a
1504.856	n/a	REC_WORD	752428	wordpools/wasnorm_wordpool_less_exclusions.txt	LTP293	ltpFR	6	6	0	GOOSE	649	n/a	1	n/a	n/a	n/a	n/a	n/a
1604.122	n/a	WORD	802061	wordpools/wasnorm_wordpool_less_exclusions.txt	LTP293	ltpFR	6	7	-1	RECORD	1176	n/a	-1	1	1.0	1.0	upper	../fonts/Verdana.ttf
1608.322	n/a	WORD	804161	wordpools/wasnorm_wordpool_less_exclusions.txt	LTP293	ltpFR	6	7	-1	SEAT	1264	n/a	-1	1	1.0	1.0	upper	../fonts/Verdana.ttf
1612.54	n/a	WORD	806270	wordpools/wasnorm_wordpool_less_exclusions.txt	LTP293	ltpFR	6	7	-1	THREAD	1460	n/a	-1	1	1.0	1.0	upper	../fonts/Verdana.ttf
1616.706	n/a	WORD	808353	wordpools/wasnorm_wordpool_less_exclusions.txt	LTP293	ltpFR	6	7	-1	COACH	331	n/a	-1	1	1.0	1.0	upper	../fonts/Verdana.ttf
1620.854	n/a	WORD	810427	wordpools/wasnorm_wordpool_less_exclusions.txt	LTP293	ltpFR	6	7	-1	PUDDLE	1140	n/a	-1	1	1.0	1.0	upper	../fonts/Verdana.ttf
1624.852	n/a	WORD	812426	wordpools/wasnorm_wordpool_less_exclusions.txt	LTP293	ltpFR	6	7	-1	WATER	1594	n/a	-1	1	1.0	1.0	upper	../fonts/Verdana.ttf
1628.95	n/a	WORD	814475	wordpools/wasnorm_wordpool_less_exclusions.txt	LTP293	ltpFR	6	7	-1	HANDKERCHIEF	686	n/a	-1	1	1.0	1.0	upper	../fonts/Verdana.ttf
1632.85	n/a	WORD	816425	wordpools/wasnorm_wordpool_less_exclusions.txt	LTP293	ltpFR	6	7	-1	TONGUE	1479	n/a	-1	1	1.0	1.0	upper	../fonts/Verdana.ttf
1636.932	n/a	WORD	818466	wordpools/wasnorm_wordpool_less_exclusions.txt	LTP293	ltpFR	6	7	-1	PUMP	1141	n/a	-1	1	1.0	1.0	upper	../fonts/Verdana.ttf
1641.098	n/a	WORD	820549	wordpools/wasnorm_wordpool_less_exclusions.txt	LTP293	ltpFR	6	7	-1	FAN	551	n/a	-1	1	1.0	1.0	upper	../fonts/Verdana.ttf
1645.146	n/a	WORD	822573	wordpools/wasnorm_wordpool_less_exclusions.txt	LTP293	ltpFR	6	7	-1	CACTUS	215	n/a	-1	1	1.0	1.0	upper	../fonts/Verdana.ttf
1649.33	n/a	WORD	824665	wordpools/wasnorm_wordpool_less_exclusions.txt	LTP293	ltpFR	6	7	-1	FRAME	600	n/a	-1	1	1.0	1.0	upper	../fonts/Verdana.ttf
1653.31	n/a	WORD	826655	wordpools/wasnorm_wordpool_less_exclusions.txt	LTP293	ltpFR	6	7	-1	TRIBE	1505	n/a	-1	1	1.0	1.0	upper	../fonts/Verdana.ttf
1657.226	n/a	WORD	828613	wordpools/wasnorm_wordpool_less_exclusions.txt	LTP293	ltpFR	6	7	-1	TOOL	1480	n/a	-1	1	1.0	1.0	upper	../fonts/Verdana.ttf
1661.106	n/a	WORD	830553	wordpools/wasnorm_wordpool_less_exclusions.txt	LTP293	ltpFR	6	7	-1	TABLE	1426	n/a	-1	1	1.0	1.0	upper	../fonts/Verdana.ttf
1665.222	n/a	WORD	832611	wordpools/wasnorm_wordpool_less_exclusions.txt	LTP293	ltpFR	6	7	-1	ELBOW	520	n/a	-1	1	1.0	1.0	upper	../fonts/Verdana.ttf
1670.828	n/a	REC_START	835414	n/a	LTP293	ltpFR	6	7	n/a	n/a	n/a	n/a	n/a	n/a	n/a	n/a	n/a	n/a
1671.392	n/a	REC_WORD	835696	wordpools/wasnorm_wordpool_less_exclusions.txt	LTP293	ltpFR	6	7	-1	ELBOW	520	n/a	-1	n/a	n/a	n/a	n/a	n/a
1672.276	n/a	REC_WORD	836138	wordpools/wasnorm_wordpool_less_exclusions.txt	LTP293	ltpFR	6	7	-1	TRIBE	1505	n/a	-1	n/a	n/a	n/a	n/a	n/a
1673.464	n/a	REC_WORD	836732	wordpools/wasnorm_wordpool_less_exclusions.txt	LTP293	ltpFR	6	7	-1	TABLE	1426	n/a	-1	n/a	n/a	n/a	n/a	n/a
1674.454	n/a	REC_WORD	837227	wordpools/wasnorm_wordpool_less_exclusions.txt	LTP293	ltpFR	6	7	-1	THREAD	1460	n/a	-1	n/a	n/a	n/a	n/a	n/a
1675.358	n/a	REC_WORD	837679	wordpools/wasnorm_wordpool_less_exclusions.txt	LTP293	ltpFR	6	7	-1	HANDKERCHIEF	686	n/a	-1	n/a	n/a	n/a	n/a	n/a
1677.356	n/a	REC_WORD	838678	wordpools/wasnorm_wordpool_less_exclusions.txt	LTP293	ltpFR	6	7	-1	COACH	331	n/a	-1	n/a	n/a	n/a	n/a	n/a
1678.292	n/a	REC_WORD	839146	wordpools/wasnorm_wordpool_less_exclusions.txt	LTP293	ltpFR	6	7	-1	PUMP	1141	n/a	-1	n/a	n/a	n/a	n/a	n/a
1679.444	n/a	REC_WORD	839722	wordpools/wasnorm_wordpool_less_exclusions.txt	LTP293	ltpFR	6	7	-1	RECORD	1176	n/a	-1	n/a	n/a	n/a	n/a	n/a
1680.762	n/a	REC_WORD	840381	wordpools/wasnorm_wordpool_less_exclusions.txt	LTP293	ltpFR	6	7	-1	SEAT	1264	n/a	-1	n/a	n/a	n/a	n/a	n/a
1689.674	n/a	REC_WORD	844837	wordpools/wasnorm_wordpool_less_exclusions.txt	LTP293	ltpFR	6	7	-1	CACTUS	215	n/a	-1	n/a	n/a	n/a	n/a	n/a
1782.456	n/a	WORD	891228	wordpools/wasnorm_wordpool_less_exclusions.txt	LTP293	ltpFR	6	8	0	WILDERNESS	1610	n/a	1	0	0.5869140625	0.422607421875	lower	../fonts/zerothre.ttf
1786.638	n/a	WORD	893319	wordpools/wasnorm_wordpool_less_exclusions.txt	LTP293	ltpFR	6	8	0	BELL	118	n/a	0	0	0.5869140625	0.422607421875	lower	../fonts/zerothre.ttf
1790.536	n/a	WORD	895268	wordpools/wasnorm_wordpool_less_exclusions.txt	LTP293	ltpFR	6	8	1	BARTENDER	92	n/a	1	1	0.412841796875	0.57763671875	upper	../fonts/amplitud.ttf
1794.718	n/a	WORD	897359	wordpools/wasnorm_wordpool_less_exclusions.txt	LTP293	ltpFR	6	8	1	WEED	1599	n/a	0	1	0.412841796875	0.57763671875	upper	../fonts/amplitud.ttf
1798.734	n/a	WORD	899367	wordpools/wasnorm_wordpool_less_exclusions.txt	LTP293	ltpFR	6	8	1	ATOM	55	n/a	0	1	0.412841796875	0.57763671875	upper	../fonts/amplitud.ttf
1802.798	n/a	WORD	901399	wordpools/wasnorm_wordpool_less_exclusions.txt	LTP293	ltpFR	6	8	1	ELECTRON	522	n/a	0	1	0.412841796875	0.57763671875	upper	../fonts/amplitud.ttf
1806.964	n/a	WORD	903482	wordpools/wasnorm_wordpool_less_exclusions.txt	LTP293	ltpFR	6	8	1	BRANDY	169	n/a	0	1	0.412841796875	0.57763671875	upper	../fonts/amplitud.ttf
1810.896	n/a	WORD	905448	wordpools/wasnorm_wordpool_less_exclusions.txt	LTP293	ltpFR	6	8	0	MOOSE	915	n/a	1	0	0.5869140625	0.422607421875	lower	../fonts/zerothre.ttf
1814.844	n/a	WORD	907422	wordpools/wasnorm_wordpool_less_exclusions.txt	LTP293	ltpFR	6	8	0	ANT	25	n/a	0	0	0.5869140625	0.422607421875	lower	../fonts/zerothre.ttf
1818.728	n/a	WORD	909364	wordpools/wasnorm_wordpool_less_exclusions.txt	LTP293	ltpFR	6	8	0	DANDELION	438	n/a	1	0	0.5869140625	0.422607421875	lower	../fonts/zerothre.ttf
1822.826	n/a	WORD	911413	wordpools/wasnorm_wordpool_less_exclusions.txt	LTP293	ltpFR	6	8	0	SAND	1230	n/a	0	0	0.5869140625	0.422607421875	lower	../fonts/zerothre.ttf
1826.89	n/a	WORD	913445	wordpools/wasnorm_wordpool_less_exclusions.txt	LTP293	ltpFR	6	8	0	VOLLEYBALL	1576	n/a	1	0	0.5869140625	0.422607421875	lower	../fonts/zerothre.ttf
1830.94	n/a	WORD	915470	wordpools/wasnorm_wordpool_less_exclusions.txt	LTP293	ltpFR	6	8	0	UNICORN	1538	n/a	1	0	0.5869140625	0.422607421875	lower	../fonts/zerothre.ttf
1834.87	n/a	WORD	917435	wordpools/wasnorm_wordpool_less_exclusions.txt	LTP293	ltpFR	6	8	1	PREACHER	1119	n/a	1	1	0.412841796875	0.57763671875	upper	../fonts/amplitud.ttf
1838.904	n/a	WORD	919452	wordpools/wasnorm_wordpool_less_exclusions.txt	LTP293	ltpFR	6	8	1	MUSHROOM	934	n/a	0	1	0.412841796875	0.57763671875	upper	../fonts/amplitud.ttf
1843.12	n/a	WORD	921560	wordpools/wasnorm_wordpool_less_exclusions.txt	LTP293	ltpFR	6	8	1	BRIEFCASE	175	n/a	0	1	0.412841796875	0.57763671875	upper	../fonts/amplitud.ttf
1848.876	n/a	REC_START	924438	n/a	LTP293	ltpFR	6	8	n/a	n/a	n/a	n/a	n/a	n/a	n/a	n/a	n/a	n/a
1850.088	n/a	REC_WORD	925044	wordpools/wasnorm_wordpool_less_exclusions.txt	LTP293	ltpFR	6	8	1	BRIEFCASE	175	n/a	0	n/a	n/a	n/a	n/a	n/a
1851.306	n/a	REC_WORD	925653	wordpools/wasnorm_wordpool_less_exclusions.txt	LTP293	ltpFR	6	8	1	MUSHROOM	934	n/a	0	n/a	n/a	n/a	n/a	n/a
1855.936	n/a	REC_WORD	927968	wordpools/wasnorm_wordpool_less_exclusions.txt	LTP293	ltpFR	6	8	1	BARTENDER	92	n/a	1	n/a	n/a	n/a	n/a	n/a
1857.238	n/a	REC_WORD	928619	wordpools/wasnorm_wordpool_less_exclusions.txt	LTP293	ltpFR	6	8	0	WILDERNESS	1610	n/a	1	n/a	n/a	n/a	n/a	n/a
1861.434	n/a	REC_WORD	930717	wordpools/wasnorm_wordpool_less_exclusions.txt	LTP293	ltpFR	6	8	1	BRANDY	169	n/a	0	n/a	n/a	n/a	n/a	n/a
1865.126	n/a	REC_WORD	932563	wordpools/wasnorm_wordpool_less_exclusions.txt	LTP293	ltpFR	6	8	0	DANDELION	438	n/a	1	n/a	n/a	n/a	n/a	n/a
1868.178	n/a	REC_WORD	934089	wordpools/wasnorm_wordpool_less_exclusions.txt	LTP293	ltpFR	6	8	0	SAND	1230	n/a	0	n/a	n/a	n/a	n/a	n/a
1869.678	n/a	REC_WORD	934839	wordpools/wasnorm_wordpool_less_exclusions.txt	LTP293	ltpFR	6	8	0	VOLLEYBALL	1576	n/a	1	n/a	n/a	n/a	n/a	n/a
1924.514	n/a	REST_REWET	962257	n/a	LTP293	ltpFR	6	8	n/a	n/a	n/a	n/a	n/a	n/a	n/a	n/a	n/a	n/a
2401.034	n/a	WORD	1200517	wordpools/wasnorm_wordpool_less_exclusions.txt	LTP293	ltpFR	6	9	1	BUFFALO	186	n/a	1	1	0.412841796875	0.57763671875	upper	../fonts/amplitud.ttf
2405.118	n/a	WORD	1202559	wordpools/wasnorm_wordpool_less_exclusions.txt	LTP293	ltpFR	6	9	1	JELLY	755	n/a	0	1	0.412841796875	0.57763671875	upper	../fonts/amplitud.ttf
2409.066	n/a	WORD	1204533	wordpools/wasnorm_wordpool_less_exclusions.txt	LTP293	ltpFR	6	9	1	TOE	1473	n/a	0	1	0.412841796875	0.57763671875	upper	../fonts/amplitud.ttf
2413.264	n/a	WORD	1206632	wordpools/wasnorm_wordpool_less_exclusions.txt	LTP293	ltpFR	6	9	1	BUILDING	191	n/a	0	1	0.412841796875	0.57763671875	upper	../fonts/amplitud.ttf
2417.112	n/a	WORD	1208556	wordpools/wasnorm_wordpool_less_exclusions.txt	LTP293	ltpFR	6	9	1	CHAUFFEUR	283	n/a	1	1	0.412841796875	0.57763671875	upper	../fonts/amplitud.ttf
2421.178	n/a	WORD	1210589	wordpools/wasnorm_wordpool_less_exclusions.txt	LTP293	ltpFR	6	9	1	CLOUD	328	n/a	0	1	0.412841796875	0.57763671875	upper	../fonts/amplitud.ttf
2425.262	n/a	WORD	1212631	wordpools/wasnorm_wordpool_less_exclusions.txt	LTP293	ltpFR	6	9	1	ROBIN	1199	n/a	0	1	0.412841796875	0.57763671875	upper	../fonts/amplitud.ttf
2429.344	n/a	WORD	1214672	wordpools/wasnorm_wordpool_less_exclusions.txt	LTP293	ltpFR	6	9	1	SPARROW	1347	n/a	1	1	0.412841796875	0.57763671875	upper	../fonts/amplitud.ttf
2433.426	n/a	WORD	1216713	wordpools/wasnorm_wordpool_less_exclusions.txt	LTP293	ltpFR	6	9	1	LODGE	839	n/a	0	1	0.412841796875	0.57763671875	upper	../fonts/amplitud.ttf
2437.642	n/a	WORD	1218821	wordpools/wasnorm_wordpool_less_exclusions.txt	LTP293	ltpFR	6	9	1	SINK	1309	n/a	0	1	0.412841796875	0.57763671875	upper	../fonts/amplitud.ttf
2441.608	n/a	WORD	1220804	wordpools/wasnorm_wordpool_less_exclusions.txt	LTP293	ltpFR	6	9	1	CUPBOARD	425	n/a	0	1	0.412841796875	0.57763671875	upper	../fonts/amplitud.ttf
2445.772	n/a	WORD	1222886	wordpools/wasnorm_wordpool_less_exclusions.txt	LTP293	ltpFR	6	9	1	BEAN	105	n/a	0	1	0.412841796875	0.57763671875	upper	../fonts/amplitud.ttf
2449.822	n/a	WORD	1224911	wordpools/wasnorm_wordpool_less_exclusions.txt	LTP293	ltpFR	6	9	1	VEHICLE	1553	n/a	0	1	0.412841796875	0.57763671875	upper	../fonts/amplitud.ttf
2453.854	n/a	WORD	1226927	wordpools/wasnorm_wordpool_less_exclusions.txt	LTP293	ltpFR	6	9	1	ACTOR	5	n/a	1	1	0.412841796875	0.57763671875	upper	../fonts/amplitud.ttf
2457.736	n/a	WORD	1228868	wordpools/wasnorm_wordpool_less_exclusions.txt	LTP293	ltpFR	6	9	1	PRODUCER	1129	n/a	1	1	0.412841796875	0.57763671875	upper	../fonts/amplitud.ttf
2461.684	n/a	WORD	1230842	wordpools/wasnorm_wordpool_less_exclusions.txt	LTP293	ltpFR	6	9	1	POOL	1103	n/a	0	1	0.412841796875	0.57763671875	upper	../fonts/amplitud.ttf
2467.474	n/a	REC_START	1233737	n/a	LTP293	ltpFR	6	9	n/a	n/a	n/a	n/a	n/a	n/a	n/a	n/a	n/a	n/a
2467.854	n/a	REC_WORD	1233927	wordpools/wasnorm_wordpool_less_exclusions.txt	LTP293	ltpFR	6	9	1	POOL	1103	n/a	0	n/a	n/a	n/a	n/a	n/a
2468.744	n/a	REC_WORD	1234372	wordpools/wasnorm_wordpool_less_exclusions.txt	LTP293	ltpFR	6	9	1	ACTOR	5	n/a	1	n/a	n/a	n/a	n/a	n/a
2469.686	n/a	REC_WORD	1234843	wordpools/wasnorm_wordpool_less_exclusions.txt	LTP293	ltpFR	6	9	1	PRODUCER	1129	n/a	1	n/a	n/a	n/a	n/a	n/a
2471.918	n/a	REC_WORD	1235959	wordpools/wasnorm_wordpool_less_exclusions.txt	LTP293	ltpFR	6	9	1	BEAN	105	n/a	0	n/a	n/a	n/a	n/a	n/a
2473.816	n/a	REC_WORD	1236908	wordpools/wasnorm_wordpool_less_exclusions.txt	LTP293	ltpFR	6	9	1	JELLY	755	n/a	0	n/a	n/a	n/a	n/a	n/a
2475.79	n/a	REC_WORD	1237895	wordpools/wasnorm_wordpool_less_exclusions.txt	LTP293	ltpFR	6	9	1	CHAUFFEUR	283	n/a	1	n/a	n/a	n/a	n/a	n/a
2477.306	n/a	REC_WORD	1238653	wordpools/wasnorm_wordpool_less_exclusions.txt	LTP293	ltpFR	6	9	1	VEHICLE	1553	n/a	0	n/a	n/a	n/a	n/a	n/a
2479.534	n/a	REC_WORD	1239767	wordpools/wasnorm_wordpool_less_exclusions.txt	LTP293	ltpFR	6	9	1	BUFFALO	186	n/a	1	n/a	n/a	n/a	n/a	n/a
2480.632	n/a	REC_WORD	1240316	wordpools/wasnorm_wordpool_less_exclusions.txt	LTP293	ltpFR	6	9	1	CLOUD	328	n/a	0	n/a	n/a	n/a	n/a	n/a
2482.118	n/a	REC_WORD	1241059	wordpools/wasnorm_wordpool_less_exclusions.txt	LTP293	ltpFR	6	9	1	LODGE	839	n/a	0	n/a	n/a	n/a	n/a	n/a
2485.05	n/a	REC_WORD	1242525	wordpools/wasnorm_wordpool_less_exclusions.txt	LTP293	ltpFR	6	9	1	SPARROW	1347	n/a	1	n/a	n/a	n/a	n/a	n/a
2488.154	n/a	REC_WORD	1244077	wordpools/wasnorm_wordpool_less_exclusions.txt	LTP293	ltpFR	6	9	1	ROBIN	1199	n/a	0	n/a	n/a	n/a	n/a	n/a
2497.324	n/a	REC_WORD	1248662	wordpools/wasnorm_wordpool_less_exclusions.txt	LTP293	ltpFR	6	9	1	POOL	1103	n/a	0	n/a	n/a	n/a	n/a	n/a
2516.512	n/a	REC_WORD	1258256	wordpools/wasnorm_wordpool_less_exclusions.txt	LTP293	ltpFR	6	9	1	TOE	1473	n/a	0	n/a	n/a	n/a	n/a	n/a
2569.764	n/a	WORD	1284882	wordpools/wasnorm_wordpool_less_exclusions.txt	LTP293	ltpFR	6	10	0	PIKE	1067	n/a	0	0	0.5869140625	0.422607421875	lower	../fonts/zerothre.ttf
2573.696	n/a	WORD	1286848	wordpools/wasnorm_wordpool_less_exclusions.txt	LTP293	ltpFR	6	10	0	ANIMAL	23	n/a	1	0	0.5869140625	0.422607421875	lower	../fonts/zerothre.ttf
2577.61	n/a	WORD	1288805	wordpools/wasnorm_wordpool_less_exclusions.txt	LTP293	ltpFR	6	10	0	APE	31	n/a	1	0	0.5869140625	0.422607421875	lower	../fonts/zerothre.ttf
2581.726	n/a	WORD	1290863	wordpools/wasnorm_wordpool_less_exclusions.txt	LTP293	ltpFR	6	10	1	MAGICIAN	854	n/a	1	1	0.412841796875	0.57763671875	upper	../fonts/amplitud.ttf
2585.942	n/a	WORD	1292971	wordpools/wasnorm_wordpool_less_exclusions.txt	LTP293	ltpFR	6	10	1	FIN	566	n/a	0	1	0.412841796875	0.57763671875	upper	../fonts/amplitud.ttf
2589.888	n/a	WORD	1294944	wordpools/wasnorm_wordpool_less_exclusions.txt	LTP293	ltpFR	6	10	1	DINER	467	n/a	0	1	0.412841796875	0.57763671875	upper	../fonts/amplitud.ttf
2593.922	n/a	WORD	1296961	wordpools/wasnorm_wordpool_less_exclusions.txt	LTP293	ltpFR	6	10	1	SPATULA	1348	n/a	0	1	0.412841796875	0.57763671875	upper	../fonts/amplitud.ttf
2598.104	n/a	WORD	1299052	wordpools/wasnorm_wordpool_less_exclusions.txt	LTP293	ltpFR	6	10	1	HAM	678	n/a	0	1	0.412841796875	0.57763671875	upper	../fonts/amplitud.ttf
2602.236	n/a	WORD	1301118	wordpools/wasnorm_wordpool_less_exclusions.txt	LTP293	ltpFR	6	10	1	HOSE	720	n/a	0	1	0.412841796875	0.57763671875	upper	../fonts/amplitud.ttf
2606.336	n/a	WORD	1303168	wordpools/wasnorm_wordpool_less_exclusions.txt	LTP293	ltpFR	6	10	0	FOREHEAD	592	n/a	1	0	0.5869140625	0.422607421875	lower	../fonts/zerothre.ttf
2610.454	n/a	WORD	1305227	wordpools/wasnorm_wordpool_less_exclusions.txt	LTP293	ltpFR	6	10	0	FACE	547	n/a	1	0	0.5869140625	0.422607421875	lower	../fonts/zerothre.ttf
2614.636	n/a	WORD	1307318	wordpools/wasnorm_wordpool_less_exclusions.txt	LTP293	ltpFR	6	10	0	COUCH	386	n/a	1	0	0.5869140625	0.422607421875	lower	../fonts/zerothre.ttf
2618.65	n/a	WORD	1309325	wordpools/wasnorm_wordpool_less_exclusions.txt	LTP293	ltpFR	6	10	1	PASSENGER	1020	n/a	1	1	0.412841796875	0.57763671875	upper	../fonts/amplitud.ttf
2622.616	n/a	WORD	1311308	wordpools/wasnorm_wordpool_less_exclusions.txt	LTP293	ltpFR	6	10	1	COOKIE	374	n/a	0	1	0.412841796875	0.57763671875	upper	../fonts/amplitud.ttf
2626.748	n/a	WORD	1313374	wordpools/wasnorm_wordpool_less_exclusions.txt	LTP293	ltpFR	6	10	0	LOFT	840	n/a	1	0	0.5869140625	0.422607421875	lower	../fonts/zerothre.ttf
2630.846	n/a	WORD	1315423	wordpools/wasnorm_wordpool_less_exclusions.txt	LTP293	ltpFR	6	10	0	CREEK	404	n/a	1	0	0.5869140625	0.422607421875	lower	../fonts/zerothre.ttf
2636.588	n/a	REC_START	1318294	n/a	LTP293	ltpFR	6	10	n/a	n/a	n/a	n/a	n/a	n/a	n/a	n/a	n/a	n/a
2637.11	n/a	REC_WORD	1318555	wordpools/wasnorm_wordpool_less_exclusions.txt	LTP293	ltpFR	6	10	0	CREEK	404	n/a	1	n/a	n/a	n/a	n/a	n/a
2638.808	n/a	REC_WORD	1319404	wordpools/wasnorm_wordpool_less_exclusions.txt	LTP293	ltpFR	6	10	0	LOFT	840	n/a	1	n/a	n/a	n/a	n/a	n/a
2640.732	n/a	REC_WORD	1320366	wordpools/wasnorm_wordpool_less_exclusions.txt	LTP293	ltpFR	6	10	1	COOKIE	374	n/a	0	n/a	n/a	n/a	n/a	n/a
2642.15	n/a	REC_WORD	1321075	wordpools/wasnorm_wordpool_less_exclusions.txt	LTP293	ltpFR	6	10	0	COUCH	386	n/a	1	n/a	n/a	n/a	n/a	n/a
2643.39	n/a	REC_WORD	1321695	wordpools/wasnorm_wordpool_less_exclusions.txt	LTP293	ltpFR	6	10	1	DINER	467	n/a	0	n/a	n/a	n/a	n/a	n/a
2644.568	n/a	REC_WORD	1322284	wordpools/wasnorm_wordpool_less_exclusions.txt	LTP293	ltpFR	6	10	1	SPATULA	1348	n/a	0	n/a	n/a	n/a	n/a	n/a
2647.146	n/a	REC_WORD	1323573	wordpools/wasnorm_wordpool_less_exclusions.txt	LTP293	ltpFR	6	10	0	PIKE	1067	n/a	0	n/a	n/a	n/a	n/a	n/a
2648.124	n/a	REC_WORD	1324062	wordpools/wasnorm_wordpool_less_exclusions.txt	LTP293	ltpFR	6	10	1	FIN	566	n/a	0	n/a	n/a	n/a	n/a	n/a
2670.882	n/a	REC_WORD	1335441	wordpools/wasnorm_wordpool_less_exclusions.txt	LTP293	ltpFR	6	10	1	MAGICIAN	854	n/a	1	n/a	n/a	n/a	n/a	n/a
2743.662	n/a	WORD	1371831	wordpools/wasnorm_wordpool_less_exclusions.txt	LTP293	ltpFR	6	11	0	FORK	594	n/a	0	0	0.5869140625	0.422607421875	lower	../fonts/zerothre.ttf
2747.762	n/a	WORD	1373881	wordpools/wasnorm_wordpool_less_exclusions.txt	LTP293	ltpFR	6	11	0	BLOUSE	139	n/a	0	0	0.5869140625	0.422607421875	lower	../fonts/zerothre.ttf
2751.91	n/a	WORD	1375955	wordpools/wasnorm_wordpool_less_exclusions.txt	LTP293	ltpFR	6	11	0	FLANNEL	574	n/a	0	0	0.5869140625	0.422607421875	lower	../fonts/zerothre.ttf
2756.008	n/a	WORD	1378004	wordpools/wasnorm_wordpool_less_exclusions.txt	LTP293	ltpFR	6	11	0	DIPLOMA	470	n/a	0	0	0.5869140625	0.422607421875	lower	../fonts/zerothre.ttf
2759.872	n/a	WORD	1379936	wordpools/wasnorm_wordpool_less_exclusions.txt	LTP293	ltpFR	6	11	0	VAMPIRE	1547	n/a	1	0	0.5869140625	0.422607421875	lower	../fonts/zerothre.ttf
2763.756	n/a	WORD	1381878	wordpools/wasnorm_wordpool_less_exclusions.txt	LTP293	ltpFR	6	11	0	DONKEY	484	n/a	1	0	0.5869140625	0.422607421875	lower	../fonts/zerothre.ttf
2767.654	n/a	WORD	1383827	wordpools/wasnorm_wordpool_less_exclusions.txt	LTP293	ltpFR	6	11	0	NECK	939	n/a	0	0	0.5869140625	0.422607421875	lower	../fonts/zerothre.ttf
2771.536	n/a	WORD	1385768	wordpools/wasnorm_wordpool_less_exclusions.txt	LTP293	ltpFR	6	11	0	BARK	87	n/a	1	0	0.5869140625	0.422607421875	lower	../fonts/zerothre.ttf
2775.434	n/a	WORD	1387717	wordpools/wasnorm_wordpool_less_exclusions.txt	LTP293	ltpFR	6	11	0	COLUMN	350	n/a	1	0	0.5869140625	0.422607421875	lower	../fonts/zerothre.ttf
2779.38	n/a	WORD	1389690	wordpools/wasnorm_wordpool_less_exclusions.txt	LTP293	ltpFR	6	11	0	DIARY	460	n/a	0	0	0.5869140625	0.422607421875	lower	../fonts/zerothre.ttf
2783.448	n/a	WORD	1391724	wordpools/wasnorm_wordpool_less_exclusions.txt	LTP293	ltpFR	6	11	0	WHEEL	1603	n/a	1	0	0.5869140625	0.422607421875	lower	../fonts/zerothre.ttf
2787.344	n/a	WORD	1393672	wordpools/wasnorm_wordpool_less_exclusions.txt	LTP293	ltpFR	6	11	0	GRADUATE	653	n/a	1	0	0.5869140625	0.422607421875	lower	../fonts/zerothre.ttf
2791.544	n/a	WORD	1395772	wordpools/wasnorm_wordpool_less_exclusions.txt	LTP293	ltpFR	6	11	0	TWINE	1529	n/a	0	0	0.5869140625	0.422607421875	lower	../fonts/zerothre.ttf
2795.644	n/a	WORD	1397822	wordpools/wasnorm_wordpool_less_exclusions.txt	LTP293	ltpFR	6	11	0	CHISEL	305	n/a	0	0	0.5869140625	0.422607421875	lower	../fonts/zerothre.ttf
2799.642	n/a	WORD	1399821	wordpools/wasnorm_wordpool_less_exclusions.txt	LTP293	ltpFR	6	11	0	CONSOLE	364	n/a	0	0	0.5869140625	0.422607421875	lower	../fonts/zerothre.ttf
2803.824	n/a	WORD	1401912	wordpools/wasnorm_wordpool_less_exclusions.txt	LTP293	ltpFR	6	11	0	DRIVER	499	n/a	0	0	0.5869140625	0.422607421875	lower	../fonts/zerothre.ttf
2809.766	n/a	REC_START	1404883	n/a	LTP293	ltpFR	6	11	n/a	n/a	n/a	n/a	n/a	n/a	n/a	n/a	n/a	n/a
2810.296	n/a	REC_WORD	1405148	wordpools/wasnorm_wordpool_less_exclusions.txt	LTP293	ltpFR	6	11	0	DRIVER	499	n/a	0	n/a	n/a	n/a	n/a	n/a
2811.232	n/a	REC_WORD	1405616	wordpools/wasnorm_wordpool_less_exclusions.txt	LTP293	ltpFR	6	11	0	CONSOLE	364	n/a	0	n/a	n/a	n/a	n/a	n/a
2812.656	n/a	REC_WORD	1406328	wordpools/wasnorm_wordpool_less_exclusions.txt	LTP293	ltpFR	6	11	0	VAMPIRE	1547	n/a	1	n/a	n/a	n/a	n/a	n/a
2813.754	n/a	REC_WORD	1406877	wordpools/wasnorm_wordpool_less_exclusions.txt	LTP293	ltpFR	6	11	0	NECK	939	n/a	0	n/a	n/a	n/a	n/a	n/a
2814.952	n/a	REC_WORD	1407476	wordpools/wasnorm_wordpool_less_exclusions.txt	LTP293	ltpFR	6	11	0	WHEEL	1603	n/a	1	n/a	n/a	n/a	n/a	n/a
2816.566	n/a	REC_WORD	1408283	wordpools/wasnorm_wordpool_less_exclusions.txt	LTP293	ltpFR	6	11	0	BLOUSE	139	n/a	0	n/a	n/a	n/a	n/a	n/a
2817.39	n/a	REC_WORD	1408695	wordpools/wasnorm_wordpool_less_exclusions.txt	LTP293	ltpFR	6	11	0	FLANNEL	574	n/a	0	n/a	n/a	n/a	n/a	n/a
2818.74	n/a	REC_WORD	1409370	wordpools/wasnorm_wordpool_less_exclusions.txt	LTP293	ltpFR	6	11	0	FORK	594	n/a	0	n/a	n/a	n/a	n/a	n/a
2820.066	n/a	REC_WORD	1410033	wordpools/wasnorm_wordpool_less_exclusions.txt	LTP293	ltpFR	6	11	0	BARK	87	n/a	1	n/a	n/a	n/a	n/a	n/a
2821.746	n/a	REC_WORD	1410873	wordpools/wasnorm_wordpool_less_exclusions.txt	LTP293	ltpFR	6	11	0	DONKEY	484	n/a	1	n/a	n/a	n/a	n/a	n/a
2824.972	n/a	REC_WORD	1412486	wordpools/wasnorm_wordpool_less_exclusions.txt	LTP293	ltpFR	6	11	0	COLUMN	350	n/a	1	n/a	n/a	n/a	n/a	n/a
2826.014	n/a	REC_WORD	1413007	wordpools/wasnorm_wordpool_less_exclusions.txt	LTP293	ltpFR	6	11	0	DIARY	460	n/a	0	n/a	n/a	n/a	n/a	n/a
2827.288	n/a	REC_WORD	1413644	wordpools/wasnorm_wordpool_less_exclusions.txt	LTP293	ltpFR	6	11	0	GRADUATE	653	n/a	1	n/a	n/a	n/a	n/a	n/a
2828.106	n/a	REC_WORD	1414053	wordpools/wasnorm_wordpool_less_exclusions.txt	LTP293	ltpFR	6	11	0	DIPLOMA	470	n/a	0	n/a	n/a	n/a	n/a	n/a
2904.274	n/a	WORD	1452137	wordpools/wasnorm_wordpool_less_exclusions.txt	LTP293	ltpFR	6	12	-1	MATCH	878	n/a	-1	1	1.0	1.0	upper	../fonts/Verdana.ttf
2908.172	n/a	WORD	1454086	wordpools/wasnorm_wordpool_less_exclusions.txt	LTP293	ltpFR	6	12	-1	LIGHTER	819	n/a	-1	1	1.0	1.0	upper	../fonts/Verdana.ttf
2912.34	n/a	WORD	1456170	wordpools/wasnorm_wordpool_less_exclusions.txt	LTP293	ltpFR	6	12	-1	HAMMOCK	681	n/a	-1	1	1.0	1.0	upper	../fonts/Verdana.ttf
2916.472	n/a	WORD	1458236	wordpools/wasnorm_wordpool_less_exclusions.txt	LTP293	ltpFR	6	12	-1	KNOT	788	n/a	-1	1	1.0	1.0	upper	../fonts/Verdana.ttf
2920.622	n/a	WORD	1460311	wordpools/wasnorm_wordpool_less_exclusions.txt	LTP293	ltpFR	6	12	-1	OINTMENT	974	n/a	-1	1	1.0	1.0	upper	../fonts/Verdana.ttf
2924.704	n/a	WORD	1462352	wordpools/wasnorm_wordpool_less_exclusions.txt	LTP293	ltpFR	6	12	-1	RAZOR	1171	n/a	-1	1	1.0	1.0	upper	../fonts/Verdana.ttf
2928.568	n/a	WORD	1464284	wordpools/wasnorm_wordpool_less_exclusions.txt	LTP293	ltpFR	6	12	-1	GIRL	637	n/a	-1	1	1.0	1.0	upper	../fonts/Verdana.ttf
2932.768	n/a	WORD	1466384	wordpools/wasnorm_wordpool_less_exclusions.txt	LTP293	ltpFR	6	12	-1	NIGHTGOWN	953	n/a	-1	1	1.0	1.0	upper	../fonts/Verdana.ttf
2936.832	n/a	WORD	1468416	wordpools/wasnorm_wordpool_less_exclusions.txt	LTP293	ltpFR	6	12	-1	NEWSSTAND	949	n/a	-1	1	1.0	1.0	upper	../fonts/Verdana.ttf
2940.982	n/a	WORD	1470491	wordpools/wasnorm_wordpool_less_exclusions.txt	LTP293	ltpFR	6	12	-1	SISTER	1312	n/a	-1	1	1.0	1.0	upper	../fonts/Verdana.ttf
2945.014	n/a	WORD	1472507	wordpools/wasnorm_wordpool_less_exclusions.txt	LTP293	ltpFR	6	12	-1	WAIST	1579	n/a	-1	1	1.0	1.0	upper	../fonts/Verdana.ttf
2948.862	n/a	WORD	1474431	wordpools/wasnorm_wordpool_less_exclusions.txt	LTP293	ltpFR	6	12	-1	NAPKIN	937	n/a	-1	1	1.0	1.0	upper	../fonts/Verdana.ttf
2952.712	n/a	WORD	1476356	wordpools/wasnorm_wordpool_less_exclusions.txt	LTP293	ltpFR	6	12	-1	TICKET	1464	n/a	-1	1	1.0	1.0	upper	../fonts/Verdana.ttf
2956.66	n/a	WORD	1478330	wordpools/wasnorm_wordpool_less_exclusions.txt	LTP293	ltpFR	6	12	-1	TAPIOCA	1434	n/a	-1	1	1.0	1.0	upper	../fonts/Verdana.ttf
2960.674	n/a	WORD	1480337	wordpools/wasnorm_wordpool_less_exclusions.txt	LTP293	ltpFR	6	12	-1	OBOE	969	n/a	-1	1	1.0	1.0	upper	../fonts/Verdana.ttf
2964.572	n/a	WORD	1482286	wordpools/wasnorm_wordpool_less_exclusions.txt	LTP293	ltpFR	6	12	-1	BANJO	82	n/a	-1	1	1.0	1.0	upper	../fonts/Verdana.ttf
2970.48	n/a	REC_START	1485240	n/a	LTP293	ltpFR	6	12	n/a	n/a	n/a	n/a	n/a	n/a	n/a	n/a	n/a	n/a
2970.872	n/a	REC_WORD	1485436	wordpools/wasnorm_wordpool_less_exclusions.txt	LTP293	ltpFR	6	12	-1	OBOE	969	n/a	-1	n/a	n/a	n/a	n/a	n/a
2971.804	n/a	REC_WORD	1485902	wordpools/wasnorm_wordpool_less_exclusions.txt	LTP293	ltpFR	6	12	-1	BANJO	82	n/a	-1	n/a	n/a	n/a	n/a	n/a
2972.802	n/a	REC_WORD	1486401	wordpools/wasnorm_wordpool_less_exclusions.txt	LTP293	ltpFR	6	12	-1	TAPIOCA	1434	n/a	-1	n/a	n/a	n/a	n/a	n/a
2974.424	n/a	REC_WORD	1487212	wordpools/wasnorm_wordpool_less_exclusions.txt	LTP293	ltpFR	6	12	-1	TICKET	1464	n/a	-1	n/a	n/a	n/a	n/a	n/a
2976.582	n/a	REC_WORD	1488291	wordpools/wasnorm_wordpool_less_exclusions.txt	LTP293	ltpFR	6	12	-1	OINTMENT	974	n/a	-1	n/a	n/a	n/a	n/a	n/a
2977.65	n/a	REC_WORD	1488825	wordpools/wasnorm_wordpool_less_exclusions.txt	LTP293	ltpFR	6	12	-1	RAZOR	1171	n/a	-1	n/a	n/a	n/a	n/a	n/a
2978.948	n/a	REC_WORD	1489474	wordpools/wasnorm_wordpool_less_exclusions.txt	LTP293	ltpFR	6	12	-1	GIRL	637	n/a	-1	n/a	n/a	n/a	n/a	n/a
2980.058	n/a	REC_WORD	1490029	wordpools/wasnorm_wordpool_less_exclusions.txt	LTP293	ltpFR	6	12	-1	SISTER	1312	n/a	-1	n/a	n/a	n/a	n/a	n/a
2982.47	n/a	REC_WORD	1491235	wordpools/wasnorm_wordpool_less_exclusions.txt	LTP293	ltpFR	6	12	-1	NAPKIN	937	n/a	-1	n/a	n/a	n/a	n/a	n/a
2985.08	n/a	REC_WORD	1492540	wordpools/wasnorm_wordpool_less_exclusions.txt	LTP293	ltpFR	6	12	-1	HAMMOCK	681	n/a	-1	n/a	n/a	n/a	n/a	n/a
2986.534	n/a	REC_WORD	1493267	wordpools/wasnorm_wordpool_less_exclusions.txt	LTP293	ltpFR	6	12	-1	KNOT	788	n/a	-1	n/a	n/a	n/a	n/a	n/a
2988.308	n/a	REC_WORD	1494154	wordpools/wasnorm_wordpool_less_exclusions.txt	LTP293	ltpFR	6	12	-1	MATCH	878	n/a	-1	n/a	n/a	n/a	n/a	n/a
2989.456	n/a	REC_WORD	1494728	wordpools/wasnorm_wordpool_less_exclusions.txt	LTP293	ltpFR	6	12	-1	LIGHTER	819	n/a	-1	n/a	n/a	n/a	n/a	n/a
3032.536	n/a	REC_WORD	1516268	wordpools/wasnorm_wordpool_less_exclusions.txt	LTP293	ltpFR	6	12	-1	OBOE	969	n/a	-1	n/a	n/a	n/a	n/a	n/a
3033.536	n/a	REC_WORD	1516768	wordpools/wasnorm_wordpool_less_exclusions.txt	LTP293	ltpFR	6	12	-1	BANJO	82	n/a	-1	n/a	n/a	n/a	n/a	n/a
3053.194	n/a	WORD	1526597	wordpools/wasnorm_wordpool_less_exclusions.txt	LTP293	ltpFR	6	13	-1	BEET	115	n/a	-1	1	1.0	1.0	upper	../fonts/Verdana.ttf
3057.192	n/a	WORD	1528596	wordpools/wasnorm_wordpool_less_exclusions.txt	LTP293	ltpFR	6	13	-1	CREVICE	405	n/a	-1	1	1.0	1.0	upper	../fonts/Verdana.ttf
3061.106	n/a	WORD	1530553	wordpools/wasnorm_wordpool_less_exclusions.txt	LTP293	ltpFR	6	13	-1	SKETCH	1315	n/a	-1	1	1.0	1.0	upper	../fonts/Verdana.ttf
3065.006	n/a	WORD	1532503	wordpools/wasnorm_wordpool_less_exclusions.txt	LTP293	ltpFR	6	13	-1	PICTURE	1061	n/a	-1	1	1.0	1.0	upper	../fonts/Verdana.ttf
3068.838	n/a	WORD	1534419	wordpools/wasnorm_wordpool_less_exclusions.txt	LTP293	ltpFR	6	13	-1	TUXEDO	1525	n/a	-1	1	1.0	1.0	upper	../fonts/Verdana.ttf
3073.036	n/a	WORD	1536518	wordpools/wasnorm_wordpool_less_exclusions.txt	LTP293	ltpFR	6	13	-1	COPIER	377	n/a	-1	1	1.0	1.0	upper	../fonts/Verdana.ttf
3076.968	n/a	WORD	1538484	wordpools/wasnorm_wordpool_less_exclusions.txt	LTP293	ltpFR	6	13	-1	DANCER	437	n/a	-1	1	1.0	1.0	upper	../fonts/Verdana.ttf
3080.882	n/a	WORD	1540441	wordpools/wasnorm_wordpool_less_exclusions.txt	LTP293	ltpFR	6	13	-1	BEAD	103	n/a	-1	1	1.0	1.0	upper	../fonts/Verdana.ttf
3084.948	n/a	WORD	1542474	wordpools/wasnorm_wordpool_less_exclusions.txt	LTP293	ltpFR	6	13	-1	TOMATO	1476	n/a	-1	1	1.0	1.0	upper	../fonts/Verdana.ttf
3088.914	n/a	WORD	1544457	wordpools/wasnorm_wordpool_less_exclusions.txt	LTP293	ltpFR	6	13	-1	SHIRT	1287	n/a	-1	1	1.0	1.0	upper	../fonts/Verdana.ttf
3092.762	n/a	WORD	1546381	wordpools/wasnorm_wordpool_less_exclusions.txt	LTP293	ltpFR	6	13	-1	BUCKLE	185	n/a	-1	1	1.0	1.0	upper	../fonts/Verdana.ttf
3096.81	n/a	WORD	1548405	wordpools/wasnorm_wordpool_less_exclusions.txt	LTP293	ltpFR	6	13	-1	VIOLA	1570	n/a	-1	1	1.0	1.0	upper	../fonts/Verdana.ttf
3100.71	n/a	WORD	1550355	wordpools/wasnorm_wordpool_less_exclusions.txt	LTP293	ltpFR	6	13	-1	NOTE	958	n/a	-1	1	1.0	1.0	upper	../fonts/Verdana.ttf
3104.592	n/a	WORD	1552296	wordpools/wasnorm_wordpool_less_exclusions.txt	LTP293	ltpFR	6	13	-1	WHALE	1601	n/a	-1	1	1.0	1.0	upper	../fonts/Verdana.ttf
3108.656	n/a	WORD	1554328	wordpools/wasnorm_wordpool_less_exclusions.txt	LTP293	ltpFR	6	13	-1	SKIRT	1319	n/a	-1	1	1.0	1.0	upper	../fonts/Verdana.ttf
3112.538	n/a	WORD	1556269	wordpools/wasnorm_wordpool_less_exclusions.txt	LTP293	ltpFR	6	13	-1	VITAMIN	1574	n/a	-1	1	1.0	1.0	upper	../fonts/Verdana.ttf
3118.578	n/a	REC_START	1559289	n/a	LTP293	ltpFR	6	13	n/a	n/a	n/a	n/a	n/a	n/a	n/a	n/a	n/a	n/a
3119.082	n/a	REC_WORD	1559541	wordpools/wasnorm_wordpool_less_exclusions.txt	LTP293	ltpFR	6	13	-1	VITAMIN	1574	n/a	-1	n/a	n/a	n/a	n/a	n/a
3120.076	n/a	REC_WORD	1560038	wordpools/wasnorm_wordpool_less_exclusions.txt	LTP293	ltpFR	6	13	-1	NOTE	958	n/a	-1	n/a	n/a	n/a	n/a	n/a
3121.34	n/a	REC_WORD	1560670	wordpools/wasnorm_wordpool_less_exclusions.txt	LTP293	ltpFR	6	13	-1	SKIRT	1319	n/a	-1	n/a	n/a	n/a	n/a	n/a
3122.642	n/a	REC_WORD	1561321	wordpools/wasnorm_wordpool_less_exclusions.txt	LTP293	ltpFR	6	13	-1	SHIRT	1287	n/a	-1	n/a	n/a	n/a	n/a	n/a
3123.71	n/a	REC_WORD	1561855	wordpools/wasnorm_wordpool_less_exclusions.txt	LTP293	ltpFR	6	13	-1	WHALE	1601	n/a	-1	n/a	n/a	n/a	n/a	n/a
3129.616	n/a	REC_WORD	1564808	wordpools/wasnorm_wordpool_less_exclusions.txt	LTP293	ltpFR	6	13	-1	PICTURE	1061	n/a	-1	n/a	n/a	n/a	n/a	n/a
3130.876	n/a	REC_WORD	1565438	wordpools/wasnorm_wordpool_less_exclusions.txt	LTP293	ltpFR	6	13	-1	SKETCH	1315	n/a	-1	n/a	n/a	n/a	n/a	n/a
3135.514	n/a	REC_WORD	1567757	wordpools/wasnorm_wordpool_less_exclusions.txt	LTP293	ltpFR	6	13	-1	TUXEDO	1525	n/a	-1	n/a	n/a	n/a	n/a	n/a
3139.32	n/a	REC_WORD	1569660	wordpools/wasnorm_wordpool_less_exclusions.txt	LTP293	ltpFR	6	13	-1	TOMATO	1476	n/a	-1	n/a	n/a	n/a	n/a	n/a
3145.138	n/a	REC_WORD	1572569	wordpools/wasnorm_wordpool_less_exclusions.txt	LTP293	ltpFR	6	13	-1	CREVICE	405	n/a	-1	n/a	n/a	n/a	n/a	n/a
3206.782	n/a	WORD	1603391	wordpools/wasnorm_wordpool_less_exclusions.txt	LTP293	ltpFR	6	14	0	SCULPTURE	1258	n/a	1	0	0.5869140625	0.422607421875	lower	../fonts/zerothre.ttf
3210.812	n/a	WORD	1605406	wordpools/wasnorm_wordpool_less_exclusions.txt	LTP293	ltpFR	6	14	0	MUSEUM	933	n/a	1	0	0.5869140625	0.422607421875	lower	../fonts/zerothre.ttf
3214.896	n/a	WORD	1607448	wordpools/wasnorm_wordpool_less_exclusions.txt	LTP293	ltpFR	6	14	0	LEG	809	n/a	1	0	0.5869140625	0.422607421875	lower	../fonts/zerothre.ttf
3219.078	n/a	WORD	1609539	wordpools/wasnorm_wordpool_less_exclusions.txt	LTP293	ltpFR	6	14	0	RAM	1165	n/a	1	0	0.5869140625	0.422607421875	lower	../fonts/zerothre.ttf
3223.294	n/a	WORD	1611647	wordpools/wasnorm_wordpool_less_exclusions.txt	LTP293	ltpFR	6	14	0	DRILL	497	n/a	0	0	0.5869140625	0.422607421875	lower	../fonts/zerothre.ttf
3227.478	n/a	WORD	1613739	wordpools/wasnorm_wordpool_less_exclusions.txt	LTP293	ltpFR	6	14	0	AGENT	10	n/a	1	0	0.5869140625	0.422607421875	lower	../fonts/zerothre.ttf
3231.476	n/a	WORD	1615738	wordpools/wasnorm_wordpool_less_exclusions.txt	LTP293	ltpFR	6	14	0	POLICE	1098	n/a	1	0	0.5869140625	0.422607421875	lower	../fonts/zerothre.ttf
3235.476	n/a	WORD	1617738	wordpools/wasnorm_wordpool_less_exclusions.txt	LTP293	ltpFR	6	14	0	TENT	1449	n/a	1	0	0.5869140625	0.422607421875	lower	../fonts/zerothre.ttf
3239.59	n/a	WORD	1619795	wordpools/wasnorm_wordpool_less_exclusions.txt	LTP293	ltpFR	6	14	0	CREATURE	403	n/a	1	0	0.5869140625	0.422607421875	lower	../fonts/zerothre.ttf
3243.506	n/a	WORD	1621753	wordpools/wasnorm_wordpool_less_exclusions.txt	LTP293	ltpFR	6	14	0	TUNA	1518	n/a	1	0	0.5869140625	0.422607421875	lower	../fonts/zerothre.ttf
3247.504	n/a	WORD	1623752	wordpools/wasnorm_wordpool_less_exclusions.txt	LTP293	ltpFR	6	14	0	DRAGON	492	n/a	1	0	0.5869140625	0.422607421875	lower	../fonts/zerothre.ttf
3251.42	n/a	WORD	1625710	wordpools/wasnorm_wordpool_less_exclusions.txt	LTP293	ltpFR	6	14	0	SHOULDER	1294	n/a	0	0	0.5869140625	0.422607421875	lower	../fonts/zerothre.ttf
3255.568	n/a	WORD	1627784	wordpools/wasnorm_wordpool_less_exclusions.txt	LTP293	ltpFR	6	14	0	SUMMIT	1405	n/a	1	0	0.5869140625	0.422607421875	lower	../fonts/zerothre.ttf
3259.668	n/a	WORD	1629834	wordpools/wasnorm_wordpool_less_exclusions.txt	LTP293	ltpFR	6	14	0	EDITOR	516	n/a	1	0	0.5869140625	0.422607421875	lower	../fonts/zerothre.ttf
3263.7	n/a	WORD	1631850	wordpools/wasnorm_wordpool_less_exclusions.txt	LTP293	ltpFR	6	14	0	LOLLIPOP	842	n/a	0	0	0.5869140625	0.422607421875	lower	../fonts/zerothre.ttf
3267.88	n/a	WORD	1633940	wordpools/wasnorm_wordpool_less_exclusions.txt	LTP293	ltpFR	6	14	0	SPICE	1350	n/a	0	0	0.5869140625	0.422607421875	lower	../fonts/zerothre.ttf
3273.838	n/a	REC_START	1636919	n/a	LTP293	ltpFR	6	14	n/a	n/a	n/a	n/a	n/a	n/a	n/a	n/a	n/a	n/a
3274.048	n/a	REC_WORD	1637024	wordpools/wasnorm_wordpool_less_exclusions.txt	LTP293	ltpFR	6	14	0	SPICE	1350	n/a	0	n/a	n/a	n/a	n/a	n/a
3275.054	n/a	REC_WORD	1637527	wordpools/wasnorm_wordpool_less_exclusions.txt	LTP293	ltpFR	6	14	0	LOLLIPOP	842	n/a	0	n/a	n/a	n/a	n/a	n/a
3276.168	n/a	REC_WORD	1638084	wordpools/wasnorm_wordpool_less_exclusions.txt	LTP293	ltpFR	6	14	0	DRAGON	492	n/a	1	n/a	n/a	n/a	n/a	n/a
3277.48	n/a	REC_WORD	1638740	wordpools/wasnorm_wordpool_less_exclusions.txt	LTP293	ltpFR	6	14	0	CREATURE	403	n/a	1	n/a	n/a	n/a	n/a	n/a
3278.606	n/a	REC_WORD	1639303	wordpools/wasnorm_wordpool_less_exclusions.txt	LTP293	ltpFR	6	14	0	RAM	1165	n/a	1	n/a	n/a	n/a	n/a	n/a
3279.482	n/a	REC_WORD	1639741	wordpools/wasnorm_wordpool_less_exclusions.txt	LTP293	ltpFR	6	14	0	SCULPTURE	1258	n/a	1	n/a	n/a	n/a	n/a	n/a
3281.096	n/a	REC_WORD	1640548	wordpools/wasnorm_wordpool_less_exclusions.txt	LTP293	ltpFR	6	14	0	MUSEUM	933	n/a	1	n/a	n/a	n/a	n/a	n/a
3283.974	n/a	REC_WORD	1641987	wordpools/wasnorm_wordpool_less_exclusions.txt	LTP293	ltpFR	6	14	0	TENT	1449	n/a	1	n/a	n/a	n/a	n/a	n/a
3286.62	n/a	REC_WORD	1643310	wordpools/wasnorm_wordpool_less_exclusions.txt	LTP293	ltpFR	6	14	0	SUMMIT	1405	n/a	1	n/a	n/a	n/a	n/a	n/a
3289.226	n/a	REC_WORD	1644613	wordpools/wasnorm_wordpool_less_exclusions.txt	LTP293	ltpFR	6	14	0	EDITOR	516	n/a	1	n/a	n/a	n/a	n/a	n/a
3294.016	n/a	REC_WORD	1647008	wordpools/wasnorm_wordpool_less_exclusions.txt	LTP293	ltpFR	6	14	0	AGENT	10	n/a	1	n/a	n/a	n/a	n/a	n/a
3368.098	n/a	WORD	1684049	wordpools/wasnorm_wordpool_less_exclusions.txt	LTP293	ltpFR	6	15	1	SCISSORS	1250	n/a	0	1	0.412841796875	0.57763671875	upper	../fonts/amplitud.ttf
3372.112	n/a	WORD	1686056	wordpools/wasnorm_wordpool_less_exclusions.txt	LTP293	ltpFR	6	15	1	SCALPEL	1243	n/a	0	1	0.412841796875	0.57763671875	upper	../fonts/amplitud.ttf
3376.044	n/a	WORD	1688022	wordpools/wasnorm_wordpool_less_exclusions.txt	LTP293	ltpFR	6	15	0	CITRUS	313	n/a	0	0	0.5869140625	0.422607421875	lower	../fonts/zerothre.ttf
3380.142	n/a	WORD	1690071	wordpools/wasnorm_wordpool_less_exclusions.txt	LTP293	ltpFR	6	15	0	APPLE	33	n/a	0	0	0.5869140625	0.422607421875	lower	../fonts/zerothre.ttf
3383.992	n/a	WORD	1691996	wordpools/wasnorm_wordpool_less_exclusions.txt	LTP293	ltpFR	6	15	0	SILK	1307	n/a	0	0	0.5869140625	0.422607421875	lower	../fonts/zerothre.ttf
3387.89	n/a	WORD	1693945	wordpools/wasnorm_wordpool_less_exclusions.txt	LTP293	ltpFR	6	15	1	LEAF	808	n/a	1	1	0.412841796875	0.57763671875	upper	../fonts/amplitud.ttf
3392.038	n/a	WORD	1696019	wordpools/wasnorm_wordpool_less_exclusions.txt	LTP293	ltpFR	6	15	1	LIST	830	n/a	0	1	0.412841796875	0.57763671875	upper	../fonts/amplitud.ttf
3396.02	n/a	WORD	1698010	wordpools/wasnorm_wordpool_less_exclusions.txt	LTP293	ltpFR	6	15	0	CLOWN	330	n/a	1	0	0.5869140625	0.422607421875	lower	../fonts/zerothre.ttf
3399.936	n/a	WORD	1699968	wordpools/wasnorm_wordpool_less_exclusions.txt	LTP293	ltpFR	6	15	0	SHORE	1291	n/a	1	0	0.5869140625	0.422607421875	lower	../fonts/zerothre.ttf
3403.934	n/a	WORD	1701967	wordpools/wasnorm_wordpool_less_exclusions.txt	LTP293	ltpFR	6	15	0	DIGGER	464	n/a	1	0	0.5869140625	0.422607421875	lower	../fonts/zerothre.ttf
3407.784	n/a	WORD	1703892	wordpools/wasnorm_wordpool_less_exclusions.txt	LTP293	ltpFR	6	15	0	MINER	896	n/a	1	0	0.5869140625	0.422607421875	lower	../fonts/zerothre.ttf
3411.682	n/a	WORD	1705841	wordpools/wasnorm_wordpool_less_exclusions.txt	LTP293	ltpFR	6	15	0	ELM	527	n/a	1	0	0.5869140625	0.422607421875	lower	../fonts/zerothre.ttf
3415.596	n/a	WORD	1707798	wordpools/wasnorm_wordpool_less_exclusions.txt	LTP293	ltpFR	6	15	1	RIB	1188	n/a	0	1	0.412841796875	0.57763671875	upper	../fonts/amplitud.ttf
3419.594	n/a	WORD	1709797	wordpools/wasnorm_wordpool_less_exclusions.txt	LTP293	ltpFR	6	15	1	SHOWER	1296	n/a	0	1	0.412841796875	0.57763671875	upper	../fonts/amplitud.ttf
3423.66	n/a	WORD	1711830	wordpools/wasnorm_wordpool_less_exclusions.txt	LTP293	ltpFR	6	15	1	SPY	1360	n/a	1	1	0.412841796875	0.57763671875	upper	../fonts/amplitud.ttf
3427.542	n/a	WORD	1713771	wordpools/wasnorm_wordpool_less_exclusions.txt	LTP293	ltpFR	6	15	1	DINNER	468	n/a	0	1	0.412841796875	0.57763671875	upper	../fonts/amplitud.ttf
3433.448	n/a	REC_START	1716724	n/a	LTP293	ltpFR	6	15	n/a	n/a	n/a	n/a	n/a	n/a	n/a	n/a	n/a	n/a
3433.94	n/a	REC_WORD	1716970	wordpools/wasnorm_wordpool_less_exclusions.txt	LTP293	ltpFR	6	15	1	DINNER	468	n/a	0	n/a	n/a	n/a	n/a	n/a
3434.734	n/a	REC_WORD	1717367	wordpools/wasnorm_wordpool_less_exclusions.txt	LTP293	ltpFR	6	15	1	SPY	1360	n/a	1	n/a	n/a	n/a	n/a	n/a
3437.674	n/a	REC_WORD	1718837	wordpools/wasnorm_wordpool_less_exclusions.txt	LTP293	ltpFR	6	15	1	SCALPEL	1243	n/a	0	n/a	n/a	n/a	n/a	n/a
3439.13	n/a	REC_WORD	1719565	wordpools/wasnorm_wordpool_less_exclusions.txt	LTP293	ltpFR	6	15	1	SCISSORS	1250	n/a	0	n/a	n/a	n/a	n/a	n/a
3443.426	n/a	REC_WORD	1721713	wordpools/wasnorm_wordpool_less_exclusions.txt	LTP293	ltpFR	6	15	0	CITRUS	313	n/a	0	n/a	n/a	n/a	n/a	n/a
3445.042	n/a	REC_WORD	1722521	wordpools/wasnorm_wordpool_less_exclusions.txt	LTP293	ltpFR	6	15	0	APPLE	33	n/a	0	n/a	n/a	n/a	n/a	n/a
3449.984	n/a	REC_WORD	1724992	wordpools/wasnorm_wordpool_less_exclusions.txt	LTP293	ltpFR	6	15	0	ELM	527	n/a	1	n/a	n/a	n/a	n/a	n/a
3516.934	n/a	WORD	1758467	wordpools/wasnorm_wordpool_less_exclusions.txt	LTP293	ltpFR	6	16	1	CAT	257	n/a	1	1	0.412841796875	0.57763671875	upper	../fonts/amplitud.ttf
3521.016	n/a	WORD	1760508	wordpools/wasnorm_wordpool_less_exclusions.txt	LTP293	ltpFR	6	16	1	SPHINX	1349	n/a	1	1	0.412841796875	0.57763671875	upper	../fonts/amplitud.ttf
3524.996	n/a	WORD	1762498	wordpools/wasnorm_wordpool_less_exclusions.txt	LTP293	ltpFR	6	16	1	YARN	1631	n/a	0	1	0.412841796875	0.57763671875	upper	../fonts/amplitud.ttf
3529.146	n/a	WORD	1764573	wordpools/wasnorm_wordpool_less_exclusions.txt	LTP293	ltpFR	6	16	1	MICROWAVE	892	n/a	0	1	0.412841796875	0.57763671875	upper	../fonts/amplitud.ttf
3533.028	n/a	WORD	1766514	wordpools/wasnorm_wordpool_less_exclusions.txt	LTP293	ltpFR	6	16	1	OVAL	990	n/a	0	1	0.412841796875	0.57763671875	upper	../fonts/amplitud.ttf
3536.992	n/a	WORD	1768496	wordpools/wasnorm_wordpool_less_exclusions.txt	LTP293	ltpFR	6	16	1	SUSPECT	1415	n/a	1	1	0.412841796875	0.57763671875	upper	../fonts/amplitud.ttf
3540.858	n/a	WORD	1770429	wordpools/wasnorm_wordpool_less_exclusions.txt	LTP293	ltpFR	6	16	1	PANTHER	1009	n/a	1	1	0.412841796875	0.57763671875	upper	../fonts/amplitud.ttf
3544.89	n/a	WORD	1772445	wordpools/wasnorm_wordpool_less_exclusions.txt	LTP293	ltpFR	6	16	1	SPIT	1354	n/a	0	1	0.412841796875	0.57763671875	upper	../fonts/amplitud.ttf
3549.072	n/a	WORD	1774536	wordpools/wasnorm_wordpool_less_exclusions.txt	LTP293	ltpFR	6	16	1	PATRIOT	1026	n/a	1	1	0.412841796875	0.57763671875	upper	../fonts/amplitud.ttf
3553.256	n/a	WORD	1776628	wordpools/wasnorm_wordpool_less_exclusions.txt	LTP293	ltpFR	6	16	1	FLAG	573	n/a	0	1	0.412841796875	0.57763671875	upper	../fonts/amplitud.ttf
3557.104	n/a	WORD	1778552	wordpools/wasnorm_wordpool_less_exclusions.txt	LTP293	ltpFR	6	16	1	TUB	1514	n/a	0	1	0.412841796875	0.57763671875	upper	../fonts/amplitud.ttf
3561.302	n/a	WORD	1780651	wordpools/wasnorm_wordpool_less_exclusions.txt	LTP293	ltpFR	6	16	1	OLIVE	975	n/a	0	1	0.412841796875	0.57763671875	upper	../fonts/amplitud.ttf
3565.184	n/a	WORD	1782592	wordpools/wasnorm_wordpool_less_exclusions.txt	LTP293	ltpFR	6	16	1	HEDGE	699	n/a	0	1	0.412841796875	0.57763671875	upper	../fonts/amplitud.ttf
3569.3	n/a	WORD	1784650	wordpools/wasnorm_wordpool_less_exclusions.txt	LTP293	ltpFR	6	16	1	CONDUCTOR	362	n/a	0	1	0.412841796875	0.57763671875	upper	../fonts/amplitud.ttf
3573.148	n/a	WORD	1786574	wordpools/wasnorm_wordpool_less_exclusions.txt	LTP293	ltpFR	6	16	1	FIDDLE	561	n/a	0	1	0.412841796875	0.57763671875	upper	../fonts/amplitud.ttf
3577.348	n/a	WORD	1788674	wordpools/wasnorm_wordpool_less_exclusions.txt	LTP293	ltpFR	6	16	1	SWEATER	1419	n/a	0	1	0.412841796875	0.57763671875	upper	../fonts/amplitud.ttf
3583.17	n/a	REC_START	1791585	n/a	LTP293	ltpFR	6	16	n/a	n/a	n/a	n/a	n/a	n/a	n/a	n/a	n/a	n/a
3583.836	n/a	REC_WORD	1791918	wordpools/wasnorm_wordpool_less_exclusions.txt	LTP293	ltpFR	6	16	1	SWEATER	1419	n/a	0	n/a	n/a	n/a	n/a	n/a
3585.934	n/a	REC_WORD	1792967	wordpools/wasnorm_wordpool_less_exclusions.txt	LTP293	ltpFR	6	16	1	CAT	257	n/a	1	n/a	n/a	n/a	n/a	n/a
3588.006	n/a	REC_WORD	1794003	wordpools/wasnorm_wordpool_less_exclusions.txt	LTP293	ltpFR	6	16	1	PANTHER	1009	n/a	1	n/a	n/a	n/a	n/a	n/a
3590.664	n/a	REC_WORD	1795332	wordpools/wasnorm_wordpool_less_exclusions.txt	LTP293	ltpFR	6	16	1	HEDGE	699	n/a	0	n/a	n/a	n/a	n/a	n/a
3593.49	n/a	REC_WORD	1796745	wordpools/wasnorm_wordpool_less_exclusions.txt	LTP293	ltpFR	6	16	1	SPHINX	1349	n/a	1	n/a	n/a	n/a	n/a	n/a
3596.644	n/a	REC_WORD	1798322	wordpools/wasnorm_wordpool_less_exclusions.txt	LTP293	ltpFR	6	16	1	YARN	1631	n/a	0	n/a	n/a	n/a	n/a	n/a
3613.372	n/a	REC_WORD	1806686	wordpools/wasnorm_wordpool_less_exclusions.txt	LTP293	ltpFR	6	16	1	FLAG	573	n/a	0	n/a	n/a	n/a	n/a	n/a
3953.588	n/a	REC_START	1976794	n/a	LTP293	ltpFR	6	1	n/a	n/a	n/a	n/a	n/a	n/a	n/a	n/a	n/a	n/a
3953.636	n/a	RECOG_LURE	1976818	n/a	LTP293	ltpFR	6	1	n/a	PILL	1068	3	n/a	n/a	n/a	n/a	n/a	n/a
3955.108	n/a	RECOG_RESP	1977554	n/a	LTP293	ltpFR	6	1	n/a	PILL	1068	n/a	n/a	n/a	n/a	n/a	n/a	n/a
3956.598	n/a	RECOG_CONF	1978299	n/a	LTP293	ltpFR	6	1	n/a	PILL	1068	3	n/a	n/a	n/a	n/a	n/a	n/a
3958.522	n/a	RECOG_TARGET	1979261	n/a	LTP293	ltpFR	6	1	0	SPICE	1350	2	0	n/a	n/a	n/a	n/a	n/a
3959.112	n/a	RECOG_RESP	1979556	n/a	LTP293	ltpFR	6	1	0	SPICE	1350	n/a	0	n/a	n/a	n/a	n/a	n/a
3959.968	n/a	RECOG_CONF	1979984	n/a	LTP293	ltpFR	6	1	0	SPICE	1350	2	0	n/a	n/a	n/a	n/a	n/a
3961.75	n/a	RECOG_LURE	1980875	n/a	LTP293	ltpFR	6	1	n/a	LEVER	815	4	n/a	n/a	n/a	n/a	n/a	n/a
3962.498	n/a	RECOG_RESP	1981249	n/a	LTP293	ltpFR	6	1	n/a	LEVER	815	n/a	n/a	n/a	n/a	n/a	n/a	n/a
3963.248	n/a	RECOG_CONF	1981624	n/a	LTP293	ltpFR	6	1	n/a	LEVER	815	4	n/a	n/a	n/a	n/a	n/a	n/a
3965.196	n/a	RECOG_TARGET	1982598	n/a	LTP293	ltpFR	6	1	0	TENT	1449	5	1	n/a	n/a	n/a	n/a	n/a
3965.748	n/a	RECOG_RESP	1982874	n/a	LTP293	ltpFR	6	1	0	TENT	1449	n/a	1	n/a	n/a	n/a	n/a	n/a
3966.538	n/a	RECOG_CONF	1983269	n/a	LTP293	ltpFR	6	1	0	TENT	1449	5	1	n/a	n/a	n/a	n/a	n/a
3968.274	n/a	RECOG_LURE	1984137	n/a	LTP293	ltpFR	6	1	n/a	CRAYON	401	4	n/a	n/a	n/a	n/a	n/a	n/a
3968.924	n/a	RECOG_RESP	1984462	n/a	LTP293	ltpFR	6	1	n/a	CRAYON	401	n/a	n/a	n/a	n/a	n/a	n/a	n/a
3969.608	n/a	RECOG_CONF	1984804	n/a	LTP293	ltpFR	6	1	n/a	CRAYON	401	4	n/a	n/a	n/a	n/a	n/a	n/a
3971.47	n/a	RECOG_TARGET	1985735	n/a	LTP293	ltpFR	6	1	0	BANDIT	81	3	1	n/a	n/a	n/a	n/a	n/a
3972.078	n/a	RECOG_RESP	1986039	n/a	LTP293	ltpFR	6	1	0	BANDIT	81	n/a	1	n/a	n/a	n/a	n/a	n/a
3972.698	n/a	RECOG_CONF	1986349	n/a	LTP293	ltpFR	6	1	0	BANDIT	81	3	1	n/a	n/a	n/a	n/a	n/a
3974.532	n/a	RECOG_LURE	1987266	n/a	LTP293	ltpFR	6	1	n/a	ICEBERG	731	4	n/a	n/a	n/a	n/a	n/a	n/a
3975.034	n/a	RECOG_RESP	1987517	n/a	LTP293	ltpFR	6	1	n/a	ICEBERG	731	n/a	n/a	n/a	n/a	n/a	n/a	n/a
3975.678	n/a	RECOG_CONF	1987839	n/a	LTP293	ltpFR	6	1	n/a	ICEBERG	731	4	n/a	n/a	n/a	n/a	n/a	n/a
3977.392	n/a	RECOG_TARGET	1988696	n/a	LTP293	ltpFR	6	1	1	SPATULA	1348	5	0	n/a	n/a	n/a	n/a	n/a
3977.904	n/a	RECOG_RESP	1988952	n/a	LTP293	ltpFR	6	1	1	SPATULA	1348	n/a	0	n/a	n/a	n/a	n/a	n/a
3978.498	n/a	RECOG_CONF	1989249	n/a	LTP293	ltpFR	6	1	1	SPATULA	1348	5	0	n/a	n/a	n/a	n/a	n/a
3980.22	n/a	RECOG_TARGET	1990110	n/a	LTP293	ltpFR	6	1	0	SHORE	1291	4	1	n/a	n/a	n/a	n/a	n/a
3980.678	n/a	RECOG_RESP	1990339	n/a	LTP293	ltpFR	6	1	0	SHORE	1291	n/a	1	n/a	n/a	n/a	n/a	n/a
3981.358	n/a	RECOG_CONF	1990679	n/a	LTP293	ltpFR	6	1	0	SHORE	1291	4	1	n/a	n/a	n/a	n/a	n/a
3983.198	n/a	RECOG_LURE	1991599	n/a	LTP293	ltpFR	6	1	n/a	JUPITER	765	4	n/a	n/a	n/a	n/a	n/a	n/a
3983.598	n/a	RECOG_RESP	1991799	n/a	LTP293	ltpFR	6	1	n/a	JUPITER	765	n/a	n/a	n/a	n/a	n/a	n/a	n/a
3984.268	n/a	RECOG_CONF	1992134	n/a	LTP293	ltpFR	6	1	n/a	JUPITER	765	4	n/a	n/a	n/a	n/a	n/a	n/a
3986.058	n/a	RECOG_LURE	1993029	n/a	LTP293	ltpFR	6	1	n/a	BAIT	70	3	n/a	n/a	n/a	n/a	n/a	n/a
3986.544	n/a	RECOG_RESP	1993272	n/a	LTP293	ltpFR	6	1	n/a	BAIT	70	n/a	n/a	n/a	n/a	n/a	n/a	n/a
3987.0	n/a	RECOG_CONF	1993500	n/a	LTP293	ltpFR	6	1	n/a	BAIT	70	3	n/a	n/a	n/a	n/a	n/a	n/a
3988.986	n/a	RECOG_TARGET	1994493	n/a	LTP293	ltpFR	6	1	1	VEHICLE	1553	2	0	n/a	n/a	n/a	n/a	n/a
3989.554	n/a	RECOG_RESP	1994777	n/a	LTP293	ltpFR	6	1	1	VEHICLE	1553	n/a	0	n/a	n/a	n/a	n/a	n/a
3990.02	n/a	RECOG_CONF	1995010	n/a	LTP293	ltpFR	6	1	1	VEHICLE	1553	2	0	n/a	n/a	n/a	n/a	n/a
3991.914	n/a	RECOG_TARGET	1995957	n/a	LTP293	ltpFR	6	1	1	FARM	552	3	0	n/a	n/a	n/a	n/a	n/a
3992.49	n/a	RECOG_RESP	1996245	n/a	LTP293	ltpFR	6	1	1	FARM	552	n/a	0	n/a	n/a	n/a	n/a	n/a
3993.11	n/a	RECOG_CONF	1996555	n/a	LTP293	ltpFR	6	1	1	FARM	552	3	0	n/a	n/a	n/a	n/a	n/a
3994.926	n/a	RECOG_TARGET	1997463	n/a	LTP293	ltpFR	6	1	0	WILDERNESS	1610	5	1	n/a	n/a	n/a	n/a	n/a
3995.41	n/a	RECOG_RESP	1997705	n/a	LTP293	ltpFR	6	1	0	WILDERNESS	1610	n/a	1	n/a	n/a	n/a	n/a	n/a
3995.87	n/a	RECOG_CONF	1997935	n/a	LTP293	ltpFR	6	1	0	WILDERNESS	1610	5	1	n/a	n/a	n/a	n/a	n/a
3997.888	n/a	RECOG_TARGET	1998944	n/a	LTP293	ltpFR	6	1	0	GOOSE	649	2	1	n/a	n/a	n/a	n/a	n/a
3998.4	n/a	RECOG_RESP	1999200	n/a	LTP293	ltpFR	6	1	0	GOOSE	649	n/a	1	n/a	n/a	n/a	n/a	n/a
3999.0	n/a	RECOG_CONF	1999500	n/a	LTP293	ltpFR	6	1	0	GOOSE	649	2	1	n/a	n/a	n/a	n/a	n/a
4000.698	n/a	RECOG_LURE	2000349	n/a	LTP293	ltpFR	6	1	n/a	MANAGER	863	1	n/a	n/a	n/a	n/a	n/a	n/a
4001.71	n/a	RECOG_RESP	2000855	n/a	LTP293	ltpFR	6	1	n/a	MANAGER	863	n/a	n/a	n/a	n/a	n/a	n/a	n/a
4002.36	n/a	RECOG_CONF	2001180	n/a	LTP293	ltpFR	6	1	n/a	MANAGER	863	1	n/a	n/a	n/a	n/a	n/a	n/a
4004.212	n/a	RECOG_LURE	2002106	n/a	LTP293	ltpFR	6	1	n/a	EMPEROR	529	3	n/a	n/a	n/a	n/a	n/a	n/a
4004.77	n/a	RECOG_RESP	2002385	n/a	LTP293	ltpFR	6	1	n/a	EMPEROR	529	n/a	n/a	n/a	n/a	n/a	n/a	n/a
4005.39	n/a	RECOG_CONF	2002695	n/a	LTP293	ltpFR	6	1	n/a	EMPEROR	529	3	n/a	n/a	n/a	n/a	n/a	n/a
4007.14	n/a	RECOG_TARGET	2003570	n/a	LTP293	ltpFR	6	1	1	SPHINX	1349	4	1	n/a	n/a	n/a	n/a	n/a
4007.68	n/a	RECOG_RESP	2003840	n/a	LTP293	ltpFR	6	1	1	SPHINX	1349	n/a	1	n/a	n/a	n/a	n/a	n/a
4008.21	n/a	RECOG_CONF	2004105	n/a	LTP293	ltpFR	6	1	1	SPHINX	1349	4	1	n/a	n/a	n/a	n/a	n/a
4010.152	n/a	RECOG_TARGET	2005076	n/a	LTP293	ltpFR	6	1	1	SPIT	1354	3	0	n/a	n/a	n/a	n/a	n/a
4010.746	n/a	RECOG_RESP	2005373	n/a	LTP293	ltpFR	6	1	1	SPIT	1354	n/a	0	n/a	n/a	n/a	n/a	n/a
4011.25	n/a	RECOG_CONF	2005625	n/a	LTP293	ltpFR	6	1	1	SPIT	1354	3	0	n/a	n/a	n/a	n/a	n/a
4013.18	n/a	RECOG_LURE	2006590	n/a	LTP293	ltpFR	6	1	n/a	MAGNET	855	4	n/a	n/a	n/a	n/a	n/a	n/a
4013.74	n/a	RECOG_RESP	2006870	n/a	LTP293	ltpFR	6	1	n/a	MAGNET	855	n/a	n/a	n/a	n/a	n/a	n/a	n/a
4014.38	n/a	RECOG_CONF	2007190	n/a	LTP293	ltpFR	6	1	n/a	MAGNET	855	4	n/a	n/a	n/a	n/a	n/a	n/a
4017.994	n/a	REC_START	2008997	n/a	LTP293	ltpFR	6	2	n/a	n/a	n/a	n/a	n/a	n/a	n/a	n/a	n/a	n/a
4018.048	n/a	RECOG_TARGET	2009024	n/a	LTP293	ltpFR	6	2	0	DIARY	460	5	0	n/a	n/a	n/a	n/a	n/a
4019.058	n/a	RECOG_RESP	2009529	n/a	LTP293	ltpFR	6	2	0	DIARY	460	n/a	0	n/a	n/a	n/a	n/a	n/a
4019.714	n/a	RECOG_CONF	2009857	n/a	LTP293	ltpFR	6	2	0	DIARY	460	5	0	n/a	n/a	n/a	n/a	n/a
4021.512	n/a	RECOG_TARGET	2010756	n/a	LTP293	ltpFR	6	2	-1	TOMATO	1476	4	-1	n/a	n/a	n/a	n/a	n/a
4022.034	n/a	RECOG_RESP	2011017	n/a	LTP293	ltpFR	6	2	-1	TOMATO	1476	n/a	-1	n/a	n/a	n/a	n/a	n/a
4022.664	n/a	RECOG_CONF	2011332	n/a	LTP293	ltpFR	6	2	-1	TOMATO	1476	4	-1	n/a	n/a	n/a	n/a	n/a
4024.388	n/a	RECOG_TARGET	2012194	n/a	LTP293	ltpFR	6	2	0	BOUILLON	154	4	0	n/a	n/a	n/a	n/a	n/a
4024.844	n/a	RECOG_RESP	2012422	n/a	LTP293	ltpFR	6	2	0	BOUILLON	154	n/a	0	n/a	n/a	n/a	n/a	n/a
4025.564	n/a	RECOG_CONF	2012782	n/a	LTP293	ltpFR	6	2	0	BOUILLON	154	4	0	n/a	n/a	n/a	n/a	n/a
4027.502	n/a	RECOG_TARGET	2013751	n/a	LTP293	ltpFR	6	2	0	NECK	939	3	0	n/a	n/a	n/a	n/a	n/a
4028.034	n/a	RECOG_RESP	2014017	n/a	LTP293	ltpFR	6	2	0	NECK	939	n/a	0	n/a	n/a	n/a	n/a	n/a
4028.644	n/a	RECOG_CONF	2014322	n/a	LTP293	ltpFR	6	2	0	NECK	939	3	0	n/a	n/a	n/a	n/a	n/a
4030.362	n/a	RECOG_LURE	2015181	n/a	LTP293	ltpFR	6	2	n/a	SUGAR	1401	4	n/a	n/a	n/a	n/a	n/a	n/a
4030.88	n/a	RECOG_RESP	2015440	n/a	LTP293	ltpFR	6	2	n/a	SUGAR	1401	n/a	n/a	n/a	n/a	n/a	n/a	n/a
4031.504	n/a	RECOG_CONF	2015752	n/a	LTP293	ltpFR	6	2	n/a	SUGAR	1401	4	n/a	n/a	n/a	n/a	n/a	n/a
4033.222	n/a	RECOG_TARGET	2016611	n/a	LTP293	ltpFR	6	2	0	POTTERY	1116	5	0	n/a	n/a	n/a	n/a	n/a
4033.774	n/a	RECOG_RESP	2016887	n/a	LTP293	ltpFR	6	2	0	POTTERY	1116	n/a	0	n/a	n/a	n/a	n/a	n/a
4034.214	n/a	RECOG_CONF	2017107	n/a	LTP293	ltpFR	6	2	0	POTTERY	1116	5	0	n/a	n/a	n/a	n/a	n/a
4036.1	n/a	RECOG_LURE	2018050	n/a	LTP293	ltpFR	6	2	n/a	RAFT	1159	2	n/a	n/a	n/a	n/a	n/a	n/a
4036.62	n/a	RECOG_RESP	2018310	n/a	LTP293	ltpFR	6	2	n/a	RAFT	1159	n/a	n/a	n/a	n/a	n/a	n/a	n/a
4037.224	n/a	RECOG_CONF	2018612	n/a	LTP293	ltpFR	6	2	n/a	RAFT	1159	2	n/a	n/a	n/a	n/a	n/a	n/a
4039.112	n/a	RECOG_TARGET	2019556	n/a	LTP293	ltpFR	6	2	0	GRADUATE	653	3	1	n/a	n/a	n/a	n/a	n/a
4039.62	n/a	RECOG_RESP	2019810	n/a	LTP293	ltpFR	6	2	0	GRADUATE	653	n/a	1	n/a	n/a	n/a	n/a	n/a
4040.194	n/a	RECOG_CONF	2020097	n/a	LTP293	ltpFR	6	2	0	GRADUATE	653	3	1	n/a	n/a	n/a	n/a	n/a
4041.938	n/a	RECOG_LURE	2020969	n/a	LTP293	ltpFR	6	2	n/a	GRIZZLY	662	4	n/a	n/a	n/a	n/a	n/a	n/a
4042.424	n/a	RECOG_RESP	2021212	n/a	LTP293	ltpFR	6	2	n/a	GRIZZLY	662	n/a	n/a	n/a	n/a	n/a	n/a	n/a
4042.994	n/a	RECOG_CONF	2021497	n/a	LTP293	ltpFR	6	2	n/a	GRIZZLY	662	4	n/a	n/a	n/a	n/a	n/a	n/a
4044.734	n/a	RECOG_LURE	2022367	n/a	LTP293	ltpFR	6	2	n/a	BOUQUET	157	4	n/a	n/a	n/a	n/a	n/a	n/a
4045.35	n/a	RECOG_RESP	2022675	n/a	LTP293	ltpFR	6	2	n/a	BOUQUET	157	n/a	n/a	n/a	n/a	n/a	n/a	n/a
4045.936	n/a	RECOG_CONF	2022968	n/a	LTP293	ltpFR	6	2	n/a	BOUQUET	157	4	n/a	n/a	n/a	n/a	n/a	n/a
4047.612	n/a	RECOG_LURE	2023806	n/a	LTP293	ltpFR	6	2	n/a	SQUIRREL	1362	2	n/a	n/a	n/a	n/a	n/a	n/a
4048.176	n/a	RECOG_RESP	2024088	n/a	LTP293	ltpFR	6	2	n/a	SQUIRREL	1362	n/a	n/a	n/a	n/a	n/a	n/a	n/a
4048.816	n/a	RECOG_CONF	2024408	n/a	LTP293	ltpFR	6	2	n/a	SQUIRREL	1362	2	n/a	n/a	n/a	n/a	n/a	n/a
4050.656	n/a	RECOG_LURE	2025328	n/a	LTP293	ltpFR	6	2	n/a	BILL	126	3	n/a	n/a	n/a	n/a	n/a	n/a
4051.236	n/a	RECOG_RESP	2025618	n/a	LTP293	ltpFR	6	2	n/a	BILL	126	n/a	n/a	n/a	n/a	n/a	n/a	n/a
4051.846	n/a	RECOG_CONF	2025923	n/a	LTP293	ltpFR	6	2	n/a	BILL	126	3	n/a	n/a	n/a	n/a	n/a	n/a
4053.734	n/a	RECOG_TARGET	2026867	n/a	LTP293	ltpFR	6	2	-1	OINTMENT	974	5	-1	n/a	n/a	n/a	n/a	n/a
4054.276	n/a	RECOG_RESP	2027138	n/a	LTP293	ltpFR	6	2	-1	OINTMENT	974	n/a	-1	n/a	n/a	n/a	n/a	n/a
4054.856	n/a	RECOG_CONF	2027428	n/a	LTP293	ltpFR	6	2	-1	OINTMENT	974	5	-1	n/a	n/a	n/a	n/a	n/a
4056.68	n/a	RECOG_TARGET	2028340	n/a	LTP293	ltpFR	6	2	0	EDITOR	516	2	1	n/a	n/a	n/a	n/a	n/a
4057.156	n/a	RECOG_RESP	2028578	n/a	LTP293	ltpFR	6	2	0	EDITOR	516	n/a	1	n/a	n/a	n/a	n/a	n/a
4057.856	n/a	RECOG_CONF	2028928	n/a	LTP293	ltpFR	6	2	0	EDITOR	516	2	1	n/a	n/a	n/a	n/a	n/a
4059.556	n/a	RECOG_LURE	2029778	n/a	LTP293	ltpFR	6	2	n/a	GOO	648	4	n/a	n/a	n/a	n/a	n/a	n/a
4060.09	n/a	RECOG_RESP	2030045	n/a	LTP293	ltpFR	6	2	n/a	GOO	648	n/a	n/a	n/a	n/a	n/a	n/a	n/a
4060.696	n/a	RECOG_CONF	2030348	n/a	LTP293	ltpFR	6	2	n/a	GOO	648	4	n/a	n/a	n/a	n/a	n/a	n/a
4062.468	n/a	RECOG_TARGET	2031234	n/a	LTP293	ltpFR	6	2	-1	TROUT	1511	3	-1	n/a	n/a	n/a	n/a	n/a
4063.046	n/a	RECOG_RESP	2031523	n/a	LTP293	ltpFR	6	2	-1	TROUT	1511	n/a	-1	n/a	n/a	n/a	n/a	n/a
4063.506	n/a	RECOG_CONF	2031753	n/a	LTP293	ltpFR	6	2	-1	TROUT	1511	3	-1	n/a	n/a	n/a	n/a	n/a
4065.362	n/a	RECOG_TARGET	2032681	n/a	LTP293	ltpFR	6	2	-1	PUMP	1141	4	-1	n/a	n/a	n/a	n/a	n/a
4065.966	n/a	RECOG_RESP	2032983	n/a	LTP293	ltpFR	6	2	-1	PUMP	1141	n/a	-1	n/a	n/a	n/a	n/a	n/a
4066.486	n/a	RECOG_CONF	2033243	n/a	LTP293	ltpFR	6	2	-1	PUMP	1141	4	-1	n/a	n/a	n/a	n/a	n/a
4068.324	n/a	RECOG_LURE	2034162	n/a	LTP293	ltpFR	6	2	n/a	ARCHITECT	36	2	n/a	n/a	n/a	n/a	n/a	n/a
4068.862	n/a	RECOG_RESP	2034431	n/a	LTP293	ltpFR	6	2	n/a	ARCHITECT	36	n/a	n/a	n/a	n/a	n/a	n/a	n/a
4069.586	n/a	RECOG_CONF	2034793	n/a	LTP293	ltpFR	6	2	n/a	ARCHITECT	36	2	n/a	n/a	n/a	n/a	n/a	n/a
4071.368	n/a	RECOG_LURE	2035684	n/a	LTP293	ltpFR	6	2	n/a	METEOR	889	2	n/a	n/a	n/a	n/a	n/a	n/a
4071.962	n/a	RECOG_RESP	2035981	n/a	LTP293	ltpFR	6	2	n/a	METEOR	889	n/a	n/a	n/a	n/a	n/a	n/a	n/a
4072.566	n/a	RECOG_CONF	2036283	n/a	LTP293	ltpFR	6	2	n/a	METEOR	889	2	n/a	n/a	n/a	n/a	n/a	n/a
4074.564	n/a	RECOG_TARGET	2037282	n/a	LTP293	ltpFR	6	2	-1	LIGHTER	819	5	-1	n/a	n/a	n/a	n/a	n/a
4075.192	n/a	RECOG_RESP	2037596	n/a	LTP293	ltpFR	6	2	-1	LIGHTER	819	n/a	-1	n/a	n/a	n/a	n/a	n/a
4075.686	n/a	RECOG_CONF	2037843	n/a	LTP293	ltpFR	6	2	-1	LIGHTER	819	5	-1	n/a	n/a	n/a	n/a	n/a
4079.206	n/a	REC_START	2039603	n/a	LTP293	ltpFR	6	3	n/a	n/a	n/a	n/a	n/a	n/a	n/a	n/a	n/a	n/a
4079.264	n/a	RECOG_TARGET	2039632	n/a	LTP293	ltpFR	6	3	-1	NIGHTGOWN	953	5	-1	n/a	n/a	n/a	n/a	n/a
4079.912	n/a	RECOG_RESP	2039956	n/a	LTP293	ltpFR	6	3	-1	NIGHTGOWN	953	n/a	-1	n/a	n/a	n/a	n/a	n/a
4080.506	n/a	RECOG_CONF	2040253	n/a	LTP293	ltpFR	6	3	-1	NIGHTGOWN	953	5	-1	n/a	n/a	n/a	n/a	n/a
4082.21	n/a	RECOG_TARGET	2041105	n/a	LTP293	ltpFR	6	3	-1	CREVICE	405	5	-1	n/a	n/a	n/a	n/a	n/a
4082.702	n/a	RECOG_RESP	2041351	n/a	LTP293	ltpFR	6	3	-1	CREVICE	405	n/a	-1	n/a	n/a	n/a	n/a	n/a
4083.288	n/a	RECOG_CONF	2041644	n/a	LTP293	ltpFR	6	3	-1	CREVICE	405	5	-1	n/a	n/a	n/a	n/a	n/a
4084.936	n/a	RECOG_TARGET	2042468	n/a	LTP293	ltpFR	6	3	-1	CHIMNEY	301	4	-1	n/a	n/a	n/a	n/a	n/a
4085.388	n/a	RECOG_RESP	2042694	n/a	LTP293	ltpFR	6	3	-1	CHIMNEY	301	n/a	-1	n/a	n/a	n/a	n/a	n/a
4085.918	n/a	RECOG_CONF	2042959	n/a	LTP293	ltpFR	6	3	-1	CHIMNEY	301	4	-1	n/a	n/a	n/a	n/a	n/a
4087.748	n/a	RECOG_LURE	2043874	n/a	LTP293	ltpFR	6	3	n/a	TACK	1428	1	n/a	n/a	n/a	n/a	n/a	n/a
4088.148	n/a	RECOG_RESP	2044074	n/a	LTP293	ltpFR	6	3	n/a	TACK	1428	n/a	n/a	n/a	n/a	n/a	n/a	n/a
4088.678	n/a	RECOG_CONF	2044339	n/a	LTP293	ltpFR	6	3	n/a	TACK	1428	1	n/a	n/a	n/a	n/a	n/a	n/a
4090.56	n/a	RECOG_TARGET	2045280	n/a	LTP293	ltpFR	6	3	0	MINK	897	3	0	n/a	n/a	n/a	n/a	n/a
4091.042	n/a	RECOG_RESP	2045521	n/a	LTP293	ltpFR	6	3	0	MINK	897	n/a	0	n/a	n/a	n/a	n/a	n/a
4091.578	n/a	RECOG_CONF	2045789	n/a	LTP293	ltpFR	6	3	0	MINK	897	3	0	n/a	n/a	n/a	n/a	n/a
4093.47	n/a	RECOG_LURE	2046735	n/a	LTP293	ltpFR	6	3	n/a	PROTON	1132	1	n/a	n/a	n/a	n/a	n/a	n/a
4093.952	n/a	RECOG_RESP	2046976	n/a	LTP293	ltpFR	6	3	n/a	PROTON	1132	n/a	n/a	n/a	n/a	n/a	n/a	n/a
4094.558	n/a	RECOG_CONF	2047279	n/a	LTP293	ltpFR	6	3	n/a	PROTON	1132	1	n/a	n/a	n/a	n/a	n/a	n/a
4096.396	n/a	RECOG_TARGET	2048198	n/a	LTP293	ltpFR	6	3	1	GLASS	639	4	0	n/a	n/a	n/a	n/a	n/a
4096.882	n/a	RECOG_RESP_VV	2048441	n/a	LTP293	ltpFR	6	3	1	GLASS	639	n/a	0	n/a	n/a	n/a	n/a	n/a
4097.458	n/a	RECOG_RESP	2048729	n/a	LTP293	ltpFR	6	3	1	GLASS	639	n/a	0	n/a	n/a	n/a	n/a	n/a
4098.048	n/a	RECOG_CONF	2049024	n/a	LTP293	ltpFR	6	3	1	GLASS	639	4	0	n/a	n/a	n/a	n/a	n/a
4099.71	n/a	RECOG_TARGET	2049855	n/a	LTP293	ltpFR	6	3	0	CHISEL	305	4	0	n/a	n/a	n/a	n/a	n/a
4100.218	n/a	RECOG_RESP	2050109	n/a	LTP293	ltpFR	6	3	0	CHISEL	305	n/a	0	n/a	n/a	n/a	n/a	n/a
4100.768	n/a	RECOG_CONF	2050384	n/a	LTP293	ltpFR	6	3	0	CHISEL	305	4	0	n/a	n/a	n/a	n/a	n/a
4102.472	n/a	RECOG_TARGET	2051236	n/a	LTP293	ltpFR	6	3	1	BARTENDER	92	2	1	n/a	n/a	n/a	n/a	n/a
4103.468	n/a	RECOG_RESP	2051734	n/a	LTP293	ltpFR	6	3	1	BARTENDER	92	n/a	1	n/a	n/a	n/a	n/a	n/a
4104.128	n/a	RECOG_CONF	2052064	n/a	LTP293	ltpFR	6	3	1	BARTENDER	92	2	1	n/a	n/a	n/a	n/a	n/a
4105.818	n/a	RECOG_TARGET	2052909	n/a	LTP293	ltpFR	6	3	-1	PICTURE	1061	3	-1	n/a	n/a	n/a	n/a	n/a
4106.404	n/a	RECOG_RESP	2053202	n/a	LTP293	ltpFR	6	3	-1	PICTURE	1061	n/a	-1	n/a	n/a	n/a	n/a	n/a
4106.978	n/a	RECOG_CONF	2053489	n/a	LTP293	ltpFR	6	3	-1	PICTURE	1061	3	-1	n/a	n/a	n/a	n/a	n/a
4108.746	n/a	RECOG_TARGET	2054373	n/a	LTP293	ltpFR	6	3	1	SAPPHIRE	1234	4	0	n/a	n/a	n/a	n/a	n/a
4109.254	n/a	RECOG_RESP	2054627	n/a	LTP293	ltpFR	6	3	1	SAPPHIRE	1234	n/a	0	n/a	n/a	n/a	n/a	n/a
4109.818	n/a	RECOG_CONF	2054909	n/a	LTP293	ltpFR	6	3	1	SAPPHIRE	1234	4	0	n/a	n/a	n/a	n/a	n/a
4111.656	n/a	RECOG_TARGET	2055828	n/a	LTP293	ltpFR	6	3	1	MAGICIAN	854	5	1	n/a	n/a	n/a	n/a	n/a
4112.198	n/a	RECOG_RESP	2056099	n/a	LTP293	ltpFR	6	3	1	MAGICIAN	854	n/a	1	n/a	n/a	n/a	n/a	n/a
4112.748	n/a	RECOG_CONF	2056374	n/a	LTP293	ltpFR	6	3	1	MAGICIAN	854	5	1	n/a	n/a	n/a	n/a	n/a
4114.55	n/a	RECOG_TARGET	2057275	n/a	LTP293	ltpFR	6	3	1	PORT	1110	4	0	n/a	n/a	n/a	n/a	n/a
4115.064	n/a	RECOG_RESP	2057532	n/a	LTP293	ltpFR	6	3	1	PORT	1110	n/a	0	n/a	n/a	n/a	n/a	n/a
4115.658	n/a	RECOG_CONF	2057829	n/a	LTP293	ltpFR	6	3	1	PORT	1110	4	0	n/a	n/a	n/a	n/a	n/a
4117.41	n/a	RECOG_TARGET	2058705	n/a	LTP293	ltpFR	6	3	-1	BUCKLE	185	1	-1	n/a	n/a	n/a	n/a	n/a
4118.008	n/a	RECOG_RESP	2059004	n/a	LTP293	ltpFR	6	3	-1	BUCKLE	185	n/a	-1	n/a	n/a	n/a	n/a	n/a
4118.438	n/a	RECOG_CONF	2059219	n/a	LTP293	ltpFR	6	3	-1	BUCKLE	185	1	-1	n/a	n/a	n/a	n/a	n/a
4120.256	n/a	RECOG_TARGET	2060128	n/a	LTP293	ltpFR	6	3	0	BELL	118	3	0	n/a	n/a	n/a	n/a	n/a
4120.89	n/a	RECOG_RESP	2060445	n/a	LTP293	ltpFR	6	3	0	BELL	118	n/a	0	n/a	n/a	n/a	n/a	n/a
4121.4	n/a	RECOG_CONF	2060700	n/a	LTP293	ltpFR	6	3	0	BELL	118	3	0	n/a	n/a	n/a	n/a	n/a
4123.266	n/a	RECOG_TARGET	2061633	n/a	LTP293	ltpFR	6	3	1	FIN	566	4	0	n/a	n/a	n/a	n/a	n/a
4123.754	n/a	RECOG_RESP	2061877	n/a	LTP293	ltpFR	6	3	1	FIN	566	n/a	0	n/a	n/a	n/a	n/a	n/a
4124.23	n/a	RECOG_CONF	2062115	n/a	LTP293	ltpFR	6	3	1	FIN	566	4	0	n/a	n/a	n/a	n/a	n/a
4126.01	n/a	RECOG_TARGET	2063005	n/a	LTP293	ltpFR	6	3	-1	WHALE	1601	5	-1	n/a	n/a	n/a	n/a	n/a
4126.494	n/a	RECOG_RESP	2063247	n/a	LTP293	ltpFR	6	3	-1	WHALE	1601	n/a	-1	n/a	n/a	n/a	n/a	n/a
4127.03	n/a	RECOG_CONF	2063515	n/a	LTP293	ltpFR	6	3	-1	WHALE	1601	5	-1	n/a	n/a	n/a	n/a	n/a
4128.722	n/a	RECOG_TARGET	2064361	n/a	LTP293	ltpFR	6	3	1	CONTRACTOR	369	2	1	n/a	n/a	n/a	n/a	n/a
4129.224	n/a	RECOG_RESP	2064612	n/a	LTP293	ltpFR	6	3	1	CONTRACTOR	369	n/a	1	n/a	n/a	n/a	n/a	n/a
4129.78	n/a	RECOG_CONF	2064890	n/a	LTP293	ltpFR	6	3	1	CONTRACTOR	369	2	1	n/a	n/a	n/a	n/a	n/a
4131.632	n/a	RECOG_LURE	2065816	n/a	LTP293	ltpFR	6	3	n/a	CHAMPION	279	1	n/a	n/a	n/a	n/a	n/a	n/a
4132.104	n/a	RECOG_RESP_VV	2066052	n/a	LTP293	ltpFR	6	3	n/a	CHAMPION	279	n/a	n/a	n/a	n/a	n/a	n/a	n/a
4133.41	n/a	RECOG_RESP	2066705	n/a	LTP293	ltpFR	6	3	n/a	CHAMPION	279	n/a	n/a	n/a	n/a	n/a	n/a	n/a
4134.66	n/a	RECOG_CONF	2067330	n/a	LTP293	ltpFR	6	3	n/a	CHAMPION	279	1	n/a	n/a	n/a	n/a	n/a	n/a
4136.884	n/a	RECOG_LURE	2068442	n/a	LTP293	ltpFR	6	3	n/a	PERCH	1048	4	n/a	n/a	n/a	n/a	n/a	n/a
4137.73	n/a	RECOG_RESP	2068865	n/a	LTP293	ltpFR	6	3	n/a	PERCH	1048	n/a	n/a	n/a	n/a	n/a	n/a	n/a
4138.53	n/a	RECOG_CONF	2069265	n/a	LTP293	ltpFR	6	3	n/a	PERCH	1048	4	n/a	n/a	n/a	n/a	n/a	n/a
4147.126	n/a	REC_START	2073563	n/a	LTP293	ltpFR	6	4	n/a	n/a	n/a	n/a	n/a	n/a	n/a	n/a	n/a	n/a
4147.174	n/a	RECOG_TARGET	2073587	n/a	LTP293	ltpFR	6	4	-1	TAPIOCA	1434	5	-1	n/a	n/a	n/a	n/a	n/a
4147.826	n/a	RECOG_RESP	2073913	n/a	LTP293	ltpFR	6	4	-1	TAPIOCA	1434	n/a	-1	n/a	n/a	n/a	n/a	n/a
4148.476	n/a	RECOG_CONF	2074238	n/a	LTP293	ltpFR	6	4	-1	TAPIOCA	1434	5	-1	n/a	n/a	n/a	n/a	n/a
4150.354	n/a	RECOG_TARGET	2075177	n/a	LTP293	ltpFR	6	4	1	HAM	678	3	0	n/a	n/a	n/a	n/a	n/a
4150.922	n/a	RECOG_RESP	2075461	n/a	LTP293	ltpFR	6	4	1	HAM	678	n/a	0	n/a	n/a	n/a	n/a	n/a
4151.506	n/a	RECOG_CONF	2075753	n/a	LTP293	ltpFR	6	4	1	HAM	678	3	0	n/a	n/a	n/a	n/a	n/a
4153.23	n/a	RECOG_TARGET	2076615	n/a	LTP293	ltpFR	6	4	1	PIRATE	1074	4	1	n/a	n/a	n/a	n/a	n/a
4153.862	n/a	RECOG_RESP	2076931	n/a	LTP293	ltpFR	6	4	1	PIRATE	1074	n/a	1	n/a	n/a	n/a	n/a	n/a
4154.426	n/a	RECOG_CONF	2077213	n/a	LTP293	ltpFR	6	4	1	PIRATE	1074	4	1	n/a	n/a	n/a	n/a	n/a
4156.292	n/a	RECOG_TARGET	2078146	n/a	LTP293	ltpFR	6	4	1	SUSPECT	1415	1	1	n/a	n/a	n/a	n/a	n/a
4156.922	n/a	RECOG_RESP_VV	2078461	n/a	LTP293	ltpFR	6	4	1	SUSPECT	1415	n/a	1	n/a	n/a	n/a	n/a	n/a
4157.632	n/a	RECOG_RESP	2078816	n/a	LTP293	ltpFR	6	4	1	SUSPECT	1415	n/a	1	n/a	n/a	n/a	n/a	n/a
4158.298	n/a	RECOG_CONF	2079149	n/a	LTP293	ltpFR	6	4	1	SUSPECT	1415	1	1	n/a	n/a	n/a	n/a	n/a
4160.008	n/a	RECOG_TARGET	2080004	n/a	LTP293	ltpFR	6	4	0	LEG	809	3	1	n/a	n/a	n/a	n/a	n/a
4160.992	n/a	RECOG_RESP	2080496	n/a	LTP293	ltpFR	6	4	0	LEG	809	n/a	1	n/a	n/a	n/a	n/a	n/a
4161.478	n/a	RECOG_CONF	2080739	n/a	LTP293	ltpFR	6	4	0	LEG	809	3	1	n/a	n/a	n/a	n/a	n/a
4163.27	n/a	RECOG_LURE	2081635	n/a	LTP293	ltpFR	6	4	n/a	COMPANION	357	4	n/a	n/a	n/a	n/a	n/a	n/a
4163.958	n/a	RECOG_RESP	2081979	n/a	LTP293	ltpFR	6	4	n/a	COMPANION	357	n/a	n/a	n/a	n/a	n/a	n/a	n/a
4164.748	n/a	RECOG_CONF	2082374	n/a	LTP293	ltpFR	6	4	n/a	COMPANION	357	4	n/a	n/a	n/a	n/a	n/a	n/a
4166.432	n/a	RECOG_TARGET	2083216	n/a	LTP293	ltpFR	6	4	0	VET	1560	2	1	n/a	n/a	n/a	n/a	n/a
4166.992	n/a	RECOG_RESP	2083496	n/a	LTP293	ltpFR	6	4	0	VET	1560	n/a	1	n/a	n/a	n/a	n/a	n/a
4167.598	n/a	RECOG_CONF	2083799	n/a	LTP293	ltpFR	6	4	0	VET	1560	2	1	n/a	n/a	n/a	n/a	n/a
4169.392	n/a	RECOG_TARGET	2084696	n/a	LTP293	ltpFR	6	4	-1	NOTE	958	3	-1	n/a	n/a	n/a	n/a	n/a
4169.902	n/a	RECOG_RESP	2084951	n/a	LTP293	ltpFR	6	4	-1	NOTE	958	n/a	-1	n/a	n/a	n/a	n/a	n/a
4170.378	n/a	RECOG_CONF	2085189	n/a	LTP293	ltpFR	6	4	-1	NOTE	958	3	-1	n/a	n/a	n/a	n/a	n/a
4172.12	n/a	RECOG_TARGET	2086060	n/a	LTP293	ltpFR	6	4	1	CHAUFFEUR	283	5	1	n/a	n/a	n/a	n/a	n/a
4172.658	n/a	RECOG_RESP	2086329	n/a	LTP293	ltpFR	6	4	1	CHAUFFEUR	283	n/a	1	n/a	n/a	n/a	n/a	n/a
4173.178	n/a	RECOG_CONF	2086589	n/a	LTP293	ltpFR	6	4	1	CHAUFFEUR	283	5	1	n/a	n/a	n/a	n/a	n/a
4175.048	n/a	RECOG_TARGET	2087524	n/a	LTP293	ltpFR	6	4	0	KIWI	781	5	0	n/a	n/a	n/a	n/a	n/a
4175.504	n/a	RECOG_RESP	2087752	n/a	LTP293	ltpFR	6	4	0	KIWI	781	n/a	0	n/a	n/a	n/a	n/a	n/a
4176.138	n/a	RECOG_CONF	2088069	n/a	LTP293	ltpFR	6	4	0	KIWI	781	5	0	n/a	n/a	n/a	n/a	n/a
4177.844	n/a	RECOG_TARGET	2088922	n/a	LTP293	ltpFR	6	4	-1	SHARK	1275	4	-1	n/a	n/a	n/a	n/a	n/a
4178.344	n/a	RECOG_RESP	2089172	n/a	LTP293	ltpFR	6	4	-1	SHARK	1275	n/a	-1	n/a	n/a	n/a	n/a	n/a
4178.758	n/a	RECOG_CONF	2089379	n/a	LTP293	ltpFR	6	4	-1	SHARK	1275	4	-1	n/a	n/a	n/a	n/a	n/a
4180.52	n/a	RECOG_TARGET	2090260	n/a	LTP293	ltpFR	6	4	0	UNICORN	1538	5	1	n/a	n/a	n/a	n/a	n/a
4181.084	n/a	RECOG_RESP	2090542	n/a	LTP293	ltpFR	6	4	0	UNICORN	1538	n/a	1	n/a	n/a	n/a	n/a	n/a
4181.608	n/a	RECOG_CONF	2090804	n/a	LTP293	ltpFR	6	4	0	UNICORN	1538	5	1	n/a	n/a	n/a	n/a	n/a
4183.346	n/a	RECOG_TARGET	2091673	n/a	LTP293	ltpFR	6	4	0	HAMPER	682	5	1	n/a	n/a	n/a	n/a	n/a
4183.864	n/a	RECOG_RESP	2091932	n/a	LTP293	ltpFR	6	4	0	HAMPER	682	n/a	1	n/a	n/a	n/a	n/a	n/a
4184.528	n/a	RECOG_CONF	2092264	n/a	LTP293	ltpFR	6	4	0	HAMPER	682	5	1	n/a	n/a	n/a	n/a	n/a
4186.29	n/a	RECOG_LURE	2093145	n/a	LTP293	ltpFR	6	4	n/a	PORTRAIT	1111	2	n/a	n/a	n/a	n/a	n/a	n/a
4186.798	n/a	RECOG_RESP	2093399	n/a	LTP293	ltpFR	6	4	n/a	PORTRAIT	1111	n/a	n/a	n/a	n/a	n/a	n/a	n/a
4187.438	n/a	RECOG_CONF	2093719	n/a	LTP293	ltpFR	6	4	n/a	PORTRAIT	1111	2	n/a	n/a	n/a	n/a	n/a	n/a
4189.286	n/a	RECOG_LURE	2094643	n/a	LTP293	ltpFR	6	4	n/a	BOY	161	4	n/a	n/a	n/a	n/a	n/a	n/a
4189.908	n/a	RECOG_RESP	2094954	n/a	LTP293	ltpFR	6	4	n/a	BOY	161	n/a	n/a	n/a	n/a	n/a	n/a	n/a
4190.508	n/a	RECOG_CONF	2095254	n/a	LTP293	ltpFR	6	4	n/a	BOY	161	4	n/a	n/a	n/a	n/a	n/a	n/a
4192.196	n/a	RECOG_TARGET	2096098	n/a	LTP293	ltpFR	6	4	0	SHOULDER	1294	3	0	n/a	n/a	n/a	n/a	n/a
4192.728	n/a	RECOG_RESP	2096364	n/a	LTP293	ltpFR	6	4	0	SHOULDER	1294	n/a	0	n/a	n/a	n/a	n/a	n/a
4193.318	n/a	RECOG_CONF	2096659	n/a	LTP293	ltpFR	6	4	0	SHOULDER	1294	3	0	n/a	n/a	n/a	n/a	n/a
4195.124	n/a	RECOG_LURE	2097562	n/a	LTP293	ltpFR	6	4	n/a	MARS	873	4	n/a	n/a	n/a	n/a	n/a	n/a
4196.1	n/a	RECOG_RESP	2098050	n/a	LTP293	ltpFR	6	4	n/a	MARS	873	n/a	n/a	n/a	n/a	n/a	n/a	n/a
4196.74	n/a	RECOG_CONF	2098370	n/a	LTP293	ltpFR	6	4	n/a	MARS	873	4	n/a	n/a	n/a	n/a	n/a	n/a
4198.556	n/a	RECOG_TARGET	2099278	n/a	LTP293	ltpFR	6	4	0	VAMPIRE	1547	5	1	n/a	n/a	n/a	n/a	n/a
4199.09	n/a	RECOG_RESP	2099545	n/a	LTP293	ltpFR	6	4	0	VAMPIRE	1547	n/a	1	n/a	n/a	n/a	n/a	n/a
4199.72	n/a	RECOG_CONF	2099860	n/a	LTP293	ltpFR	6	4	0	VAMPIRE	1547	5	1	n/a	n/a	n/a	n/a	n/a
4201.466	n/a	RECOG_TARGET	2100733	n/a	LTP293	ltpFR	6	4	1	SUBMARINE	1398	5	0	n/a	n/a	n/a	n/a	n/a
4202.174	n/a	RECOG_RESP	2101087	n/a	LTP293	ltpFR	6	4	1	SUBMARINE	1398	n/a	0	n/a	n/a	n/a	n/a	n/a
4202.78	n/a	RECOG_CONF	2101390	n/a	LTP293	ltpFR	6	4	1	SUBMARINE	1398	5	0	n/a	n/a	n/a	n/a	n/a
4204.544	n/a	RECOG_TARGET	2102272	n/a	LTP293	ltpFR	6	4	1	BULB	192	4	0	n/a	n/a	n/a	n/a	n/a
4205.12	n/a	RECOG_RESP	2102560	n/a	LTP293	ltpFR	6	4	1	BULB	192	n/a	0	n/a	n/a	n/a	n/a	n/a
4205.8	n/a	RECOG_CONF	2102900	n/a	LTP293	ltpFR	6	4	1	BULB	192	4	0	n/a	n/a	n/a	n/a	n/a
4212.374	n/a	REC_START	2106187	n/a	LTP293	ltpFR	6	5	n/a	n/a	n/a	n/a	n/a	n/a	n/a	n/a	n/a	n/a
4212.424	n/a	RECOG_TARGET	2106212	n/a	LTP293	ltpFR	6	5	1	TELEPHONE	1445	1	0	n/a	n/a	n/a	n/a	n/a
4212.994	n/a	RECOG_RESP	2106497	n/a	LTP293	ltpFR	6	5	1	TELEPHONE	1445	n/a	0	n/a	n/a	n/a	n/a	n/a
4214.196	n/a	RECOG_CONF	2107098	n/a	LTP293	ltpFR	6	5	1	TELEPHONE	1445	1	0	n/a	n/a	n/a	n/a	n/a
4215.904	n/a	RECOG_TARGET	2107952	n/a	LTP293	ltpFR	6	5	0	ELM	527	3	1	n/a	n/a	n/a	n/a	n/a
4216.456	n/a	RECOG_RESP	2108228	n/a	LTP293	ltpFR	6	5	0	ELM	527	n/a	1	n/a	n/a	n/a	n/a	n/a
4217.046	n/a	RECOG_CONF	2108523	n/a	LTP293	ltpFR	6	5	0	ELM	527	3	1	n/a	n/a	n/a	n/a	n/a
4218.832	n/a	RECOG_LURE	2109416	n/a	LTP293	ltpFR	6	5	n/a	CAMEL	223	4	n/a	n/a	n/a	n/a	n/a	n/a
4219.366	n/a	RECOG_RESP	2109683	n/a	LTP293	ltpFR	6	5	n/a	CAMEL	223	n/a	n/a	n/a	n/a	n/a	n/a	n/a
4219.926	n/a	RECOG_CONF	2109963	n/a	LTP293	ltpFR	6	5	n/a	CAMEL	223	4	n/a	n/a	n/a	n/a	n/a	n/a
4221.728	n/a	RECOG_TARGET	2110864	n/a	LTP293	ltpFR	6	5	0	DIGGER	464	4	1	n/a	n/a	n/a	n/a	n/a
4222.23	n/a	RECOG_RESP	2111115	n/a	LTP293	ltpFR	6	5	0	DIGGER	464	n/a	1	n/a	n/a	n/a	n/a	n/a
4222.976	n/a	RECOG_CONF	2111488	n/a	LTP293	ltpFR	6	5	0	DIGGER	464	4	1	n/a	n/a	n/a	n/a	n/a
4224.738	n/a	RECOG_TARGET	2112369	n/a	LTP293	ltpFR	6	5	0	COLUMN	350	5	1	n/a	n/a	n/a	n/a	n/a
4225.27	n/a	RECOG_RESP_VV	2112635	n/a	LTP293	ltpFR	6	5	0	COLUMN	350	n/a	1	n/a	n/a	n/a	n/a	n/a
4225.746	n/a	RECOG_RESP	2112873	n/a	LTP293	ltpFR	6	5	0	COLUMN	350	n/a	1	n/a	n/a	n/a	n/a	n/a
4226.336	n/a	RECOG_CONF	2113168	n/a	LTP293	ltpFR	6	5	0	COLUMN	350	5	1	n/a	n/a	n/a	n/a	n/a
4228.016	n/a	RECOG_LURE	2114008	n/a	LTP293	ltpFR	6	5	n/a	WASHCLOTH	1591	3	n/a	n/a	n/a	n/a	n/a	n/a
4228.646	n/a	RECOG_RESP	2114323	n/a	LTP293	ltpFR	6	5	n/a	WASHCLOTH	1591	n/a	n/a	n/a	n/a	n/a	n/a	n/a
4229.286	n/a	RECOG_CONF	2114643	n/a	LTP293	ltpFR	6	5	n/a	WASHCLOTH	1591	3	n/a	n/a	n/a	n/a	n/a	n/a
4231.044	n/a	RECOG_LURE	2115522	n/a	LTP293	ltpFR	6	5	n/a	LIGHTNING	820	4	n/a	n/a	n/a	n/a	n/a	n/a
4231.646	n/a	RECOG_RESP	2115823	n/a	LTP293	ltpFR	6	5	n/a	LIGHTNING	820	n/a	n/a	n/a	n/a	n/a	n/a	n/a
4232.106	n/a	RECOG_CONF	2116053	n/a	LTP293	ltpFR	6	5	n/a	LIGHTNING	820	4	n/a	n/a	n/a	n/a	n/a	n/a
4233.906	n/a	RECOG_LURE	2116953	n/a	LTP293	ltpFR	6	5	n/a	KEEPER	769	5	n/a	n/a	n/a	n/a	n/a	n/a
4234.536	n/a	RECOG_RESP	2117268	n/a	LTP293	ltpFR	6	5	n/a	KEEPER	769	n/a	n/a	n/a	n/a	n/a	n/a	n/a
4235.316	n/a	RECOG_CONF	2117658	n/a	LTP293	ltpFR	6	5	n/a	KEEPER	769	5	n/a	n/a	n/a	n/a	n/a	n/a
4237.118	n/a	RECOG_LURE	2118559	n/a	LTP293	ltpFR	6	5	n/a	BREAD	170	4	n/a	n/a	n/a	n/a	n/a	n/a
4237.756	n/a	RECOG_RESP	2118878	n/a	LTP293	ltpFR	6	5	n/a	BREAD	170	n/a	n/a	n/a	n/a	n/a	n/a	n/a
4238.376	n/a	RECOG_CONF	2119188	n/a	LTP293	ltpFR	6	5	n/a	BREAD	170	4	n/a	n/a	n/a	n/a	n/a	n/a
4240.062	n/a	RECOG_TARGET	2120031	n/a	LTP293	ltpFR	6	5	0	FOREHEAD	592	5	1	n/a	n/a	n/a	n/a	n/a
4240.632	n/a	RECOG_RESP	2120316	n/a	LTP293	ltpFR	6	5	0	FOREHEAD	592	n/a	1	n/a	n/a	n/a	n/a	n/a
4241.256	n/a	RECOG_CONF	2120628	n/a	LTP293	ltpFR	6	5	0	FOREHEAD	592	5	1	n/a	n/a	n/a	n/a	n/a
4242.99	n/a	RECOG_LURE	2121495	n/a	LTP293	ltpFR	6	5	n/a	RELISH	1183	3	n/a	n/a	n/a	n/a	n/a	n/a
4243.596	n/a	RECOG_RESP	2121798	n/a	LTP293	ltpFR	6	5	n/a	RELISH	1183	n/a	n/a	n/a	n/a	n/a	n/a	n/a
4244.316	n/a	RECOG_CONF	2122158	n/a	LTP293	ltpFR	6	5	n/a	RELISH	1183	3	n/a	n/a	n/a	n/a	n/a	n/a
4245.986	n/a	RECOG_TARGET	2122993	n/a	LTP293	ltpFR	6	5	1	POOL	1103	4	0	n/a	n/a	n/a	n/a	n/a
4246.516	n/a	RECOG_RESP	2123258	n/a	LTP293	ltpFR	6	5	1	POOL	1103	n/a	0	n/a	n/a	n/a	n/a	n/a
4247.066	n/a	RECOG_CONF	2123533	n/a	LTP293	ltpFR	6	5	1	POOL	1103	4	0	n/a	n/a	n/a	n/a	n/a
4248.714	n/a	RECOG_TARGET	2124357	n/a	LTP293	ltpFR	6	5	1	SINK	1309	1	0	n/a	n/a	n/a	n/a	n/a
4249.292	n/a	RECOG_RESP	2124646	n/a	LTP293	ltpFR	6	5	1	SINK	1309	n/a	0	n/a	n/a	n/a	n/a	n/a
4250.616	n/a	RECOG_CONF	2125308	n/a	LTP293	ltpFR	6	5	1	SINK	1309	1	0	n/a	n/a	n/a	n/a	n/a
4252.326	n/a	RECOG_TARGET	2126163	n/a	LTP293	ltpFR	6	5	1	SPARROW	1347	3	1	n/a	n/a	n/a	n/a	n/a
4253.618	n/a	RECOG_RESP	2126809	n/a	LTP293	ltpFR	6	5	1	SPARROW	1347	n/a	1	n/a	n/a	n/a	n/a	n/a
4254.528	n/a	RECOG_CONF	2127264	n/a	LTP293	ltpFR	6	5	1	SPARROW	1347	3	1	n/a	n/a	n/a	n/a	n/a
4256.308	n/a	RECOG_TARGET	2128154	n/a	LTP293	ltpFR	6	5	1	NICKEL	950	5	0	n/a	n/a	n/a	n/a	n/a
4256.888	n/a	RECOG_RESP_VV	2128444	n/a	LTP293	ltpFR	6	5	1	NICKEL	950	n/a	0	n/a	n/a	n/a	n/a	n/a
4257.512	n/a	RECOG_RESP	2128756	n/a	LTP293	ltpFR	6	5	1	NICKEL	950	n/a	0	n/a	n/a	n/a	n/a	n/a
4258.138	n/a	RECOG_CONF	2129069	n/a	LTP293	ltpFR	6	5	1	NICKEL	950	5	0	n/a	n/a	n/a	n/a	n/a
4259.756	n/a	RECOG_TARGET	2129878	n/a	LTP293	ltpFR	6	5	0	VENT	1556	5	1	n/a	n/a	n/a	n/a	n/a
4260.298	n/a	RECOG_RESP	2130149	n/a	LTP293	ltpFR	6	5	0	VENT	1556	n/a	1	n/a	n/a	n/a	n/a	n/a
4260.978	n/a	RECOG_CONF	2130489	n/a	LTP293	ltpFR	6	5	0	VENT	1556	5	1	n/a	n/a	n/a	n/a	n/a
4262.768	n/a	RECOG_LURE	2131384	n/a	LTP293	ltpFR	6	5	n/a	HORIZON	717	4	n/a	n/a	n/a	n/a	n/a	n/a
4263.322	n/a	RECOG_RESP	2131661	n/a	LTP293	ltpFR	6	5	n/a	HORIZON	717	n/a	n/a	n/a	n/a	n/a	n/a	n/a
4263.938	n/a	RECOG_CONF	2131969	n/a	LTP293	ltpFR	6	5	n/a	HORIZON	717	4	n/a	n/a	n/a	n/a	n/a	n/a
4265.644	n/a	RECOG_TARGET	2132822	n/a	LTP293	ltpFR	6	5	-1	WATER	1594	5	-1	n/a	n/a	n/a	n/a	n/a
4266.208	n/a	RECOG_RESP	2133104	n/a	LTP293	ltpFR	6	5	-1	WATER	1594	n/a	-1	n/a	n/a	n/a	n/a	n/a
4266.838	n/a	RECOG_CONF	2133419	n/a	LTP293	ltpFR	6	5	-1	WATER	1594	5	-1	n/a	n/a	n/a	n/a	n/a
4268.538	n/a	RECOG_TARGET	2134269	n/a	LTP293	ltpFR	6	5	1	SCALPEL	1243	5	0	n/a	n/a	n/a	n/a	n/a
4269.098	n/a	RECOG_RESP	2134549	n/a	LTP293	ltpFR	6	5	1	SCALPEL	1243	n/a	0	n/a	n/a	n/a	n/a	n/a
4269.728	n/a	RECOG_CONF	2134864	n/a	LTP293	ltpFR	6	5	1	SCALPEL	1243	5	0	n/a	n/a	n/a	n/a	n/a
4271.568	n/a	RECOG_LURE	2135784	n/a	LTP293	ltpFR	6	5	n/a	PERFUME	1049	3	n/a	n/a	n/a	n/a	n/a	n/a
4272.078	n/a	RECOG_RESP	2136039	n/a	LTP293	ltpFR	6	5	n/a	PERFUME	1049	n/a	n/a	n/a	n/a	n/a	n/a	n/a
4272.858	n/a	RECOG_CONF	2136429	n/a	LTP293	ltpFR	6	5	n/a	PERFUME	1049	3	n/a	n/a	n/a	n/a	n/a	n/a
4280.092	n/a	REC_START	2140046	n/a	LTP293	ltpFR	6	6	n/a	n/a	n/a	n/a	n/a	n/a	n/a	n/a	n/a	n/a
4280.15	n/a	RECOG_LURE	2140075	n/a	LTP293	ltpFR	6	6	n/a	VASE	1549	4	n/a	n/a	n/a	n/a	n/a	n/a
4280.772	n/a	RECOG_RESP	2140386	n/a	LTP293	ltpFR	6	6	n/a	VASE	1549	n/a	n/a	n/a	n/a	n/a	n/a	n/a
4281.452	n/a	RECOG_CONF	2140726	n/a	LTP293	ltpFR	6	6	n/a	VASE	1549	4	n/a	n/a	n/a	n/a	n/a	n/a
4283.11	n/a	RECOG_LURE	2141555	n/a	LTP293	ltpFR	6	6	n/a	CHEST	295	4	n/a	n/a	n/a	n/a	n/a	n/a
4283.638	n/a	RECOG_RESP	2141819	n/a	LTP293	ltpFR	6	6	n/a	CHEST	295	n/a	n/a	n/a	n/a	n/a	n/a	n/a
4284.302	n/a	RECOG_CONF	2142151	n/a	LTP293	ltpFR	6	6	n/a	CHEST	295	4	n/a	n/a	n/a	n/a	n/a	n/a
4285.972	n/a	RECOG_LURE	2142986	n/a	LTP293	ltpFR	6	6	n/a	FUNGUS	614	4	n/a	n/a	n/a	n/a	n/a	n/a
4286.528	n/a	RECOG_RESP	2143264	n/a	LTP293	ltpFR	6	6	n/a	FUNGUS	614	n/a	n/a	n/a	n/a	n/a	n/a	n/a
4287.122	n/a	RECOG_CONF	2143561	n/a	LTP293	ltpFR	6	6	n/a	FUNGUS	614	4	n/a	n/a	n/a	n/a	n/a	n/a
4288.95	n/a	RECOG_LURE	2144475	n/a	LTP293	ltpFR	6	6	n/a	OWNER	993	3	n/a	n/a	n/a	n/a	n/a	n/a
4289.514	n/a	RECOG_RESP	2144757	n/a	LTP293	ltpFR	6	6	n/a	OWNER	993	n/a	n/a	n/a	n/a	n/a	n/a	n/a
4290.274	n/a	RECOG_CONF	2145137	n/a	LTP293	ltpFR	6	6	n/a	OWNER	993	3	n/a	n/a	n/a	n/a	n/a	n/a
4292.012	n/a	RECOG_TARGET	2146006	n/a	LTP293	ltpFR	6	6	-1	SKI	1316	5	-1	n/a	n/a	n/a	n/a	n/a
4292.544	n/a	RECOG_RESP	2146272	n/a	LTP293	ltpFR	6	6	-1	SKI	1316	n/a	-1	n/a	n/a	n/a	n/a	n/a
4293.004	n/a	RECOG_CONF	2146502	n/a	LTP293	ltpFR	6	6	-1	SKI	1316	5	-1	n/a	n/a	n/a	n/a	n/a
4294.906	n/a	RECOG_TARGET	2147453	n/a	LTP293	ltpFR	6	6	-1	FRIEND	606	5	-1	n/a	n/a	n/a	n/a	n/a
4295.448	n/a	RECOG_RESP_VV	2147724	n/a	LTP293	ltpFR	6	6	-1	FRIEND	606	n/a	-1	n/a	n/a	n/a	n/a	n/a
4295.998	n/a	RECOG_RESP	2147999	n/a	LTP293	ltpFR	6	6	-1	FRIEND	606	n/a	-1	n/a	n/a	n/a	n/a	n/a
4296.444	n/a	RECOG_CONF	2148222	n/a	LTP293	ltpFR	6	6	-1	FRIEND	606	5	-1	n/a	n/a	n/a	n/a	n/a
4298.318	n/a	RECOG_LURE	2149159	n/a	LTP293	ltpFR	6	6	n/a	STAIRS	1367	4	n/a	n/a	n/a	n/a	n/a	n/a
4298.828	n/a	RECOG_RESP	2149414	n/a	LTP293	ltpFR	6	6	n/a	STAIRS	1367	n/a	n/a	n/a	n/a	n/a	n/a	n/a
4299.554	n/a	RECOG_CONF	2149777	n/a	LTP293	ltpFR	6	6	n/a	STAIRS	1367	4	n/a	n/a	n/a	n/a	n/a	n/a
4301.246	n/a	RECOG_TARGET	2150623	n/a	LTP293	ltpFR	6	6	1	SWEATER	1419	4	0	n/a	n/a	n/a	n/a	n/a
4301.838	n/a	RECOG_RESP	2150919	n/a	LTP293	ltpFR	6	6	1	SWEATER	1419	n/a	0	n/a	n/a	n/a	n/a	n/a
4302.474	n/a	RECOG_CONF	2151237	n/a	LTP293	ltpFR	6	6	1	SWEATER	1419	4	0	n/a	n/a	n/a	n/a	n/a
4304.106	n/a	RECOG_LURE	2152053	n/a	LTP293	ltpFR	6	6	n/a	SCREW	1254	2	n/a	n/a	n/a	n/a	n/a	n/a
4304.684	n/a	RECOG_RESP	2152342	n/a	LTP293	ltpFR	6	6	n/a	SCREW	1254	n/a	n/a	n/a	n/a	n/a	n/a	n/a
4305.594	n/a	RECOG_CONF	2152797	n/a	LTP293	ltpFR	6	6	n/a	SCREW	1254	2	n/a	n/a	n/a	n/a	n/a	n/a
4307.352	n/a	RECOG_TARGET	2153676	n/a	LTP293	ltpFR	6	6	-1	BEET	115	5	-1	n/a	n/a	n/a	n/a	n/a
4307.844	n/a	RECOG_RESP	2153922	n/a	LTP293	ltpFR	6	6	-1	BEET	115	n/a	-1	n/a	n/a	n/a	n/a	n/a
4308.464	n/a	RECOG_CONF	2154232	n/a	LTP293	ltpFR	6	6	-1	BEET	115	5	-1	n/a	n/a	n/a	n/a	n/a
4310.182	n/a	RECOG_TARGET	2155091	n/a	LTP293	ltpFR	6	6	0	STUMP	1396	3	0	n/a	n/a	n/a	n/a	n/a
4310.864	n/a	RECOG_RESP	2155432	n/a	LTP293	ltpFR	6	6	0	STUMP	1396	n/a	0	n/a	n/a	n/a	n/a	n/a
4311.474	n/a	RECOG_CONF	2155737	n/a	LTP293	ltpFR	6	6	0	STUMP	1396	3	0	n/a	n/a	n/a	n/a	n/a
4313.176	n/a	RECOG_TARGET	2156588	n/a	LTP293	ltpFR	6	6	1	MUSHROOM	934	4	0	n/a	n/a	n/a	n/a	n/a
4313.694	n/a	RECOG_RESP	2156847	n/a	LTP293	ltpFR	6	6	1	MUSHROOM	934	n/a	0	n/a	n/a	n/a	n/a	n/a
4314.254	n/a	RECOG_CONF	2157127	n/a	LTP293	ltpFR	6	6	1	MUSHROOM	934	4	0	n/a	n/a	n/a	n/a	n/a
4315.92	n/a	RECOG_TARGET	2157960	n/a	LTP293	ltpFR	6	6	-1	COPIER	377	4	-1	n/a	n/a	n/a	n/a	n/a
4316.444	n/a	RECOG_RESP	2158222	n/a	LTP293	ltpFR	6	6	-1	COPIER	377	n/a	-1	n/a	n/a	n/a	n/a	n/a
4316.814	n/a	RECOG_CONF	2158407	n/a	LTP293	ltpFR	6	6	-1	COPIER	377	4	-1	n/a	n/a	n/a	n/a	n/a
4318.78	n/a	RECOG_LURE	2159390	n/a	LTP293	ltpFR	6	6	n/a	CHILD	299	2	n/a	n/a	n/a	n/a	n/a	n/a
4319.304	n/a	RECOG_RESP	2159652	n/a	LTP293	ltpFR	6	6	n/a	CHILD	299	n/a	n/a	n/a	n/a	n/a	n/a	n/a
4319.984	n/a	RECOG_CONF	2159992	n/a	LTP293	ltpFR	6	6	n/a	CHILD	299	2	n/a	n/a	n/a	n/a	n/a	n/a
4321.608	n/a	RECOG_LURE	2160804	n/a	LTP293	ltpFR	6	6	n/a	STRAWBERRY	1391	3	n/a	n/a	n/a	n/a	n/a	n/a
4322.2	n/a	RECOG_RESP	2161100	n/a	LTP293	ltpFR	6	6	n/a	STRAWBERRY	1391	n/a	n/a	n/a	n/a	n/a	n/a	n/a
4322.814	n/a	RECOG_CONF	2161407	n/a	LTP293	ltpFR	6	6	n/a	STRAWBERRY	1391	3	n/a	n/a	n/a	n/a	n/a	n/a
4324.57	n/a	RECOG_TARGET	2162285	n/a	LTP293	ltpFR	6	6	0	TUNA	1518	4	1	n/a	n/a	n/a	n/a	n/a
4325.03	n/a	RECOG_RESP	2162515	n/a	LTP293	ltpFR	6	6	0	TUNA	1518	n/a	1	n/a	n/a	n/a	n/a	n/a
4325.474	n/a	RECOG_CONF	2162737	n/a	LTP293	ltpFR	6	6	0	TUNA	1518	4	1	n/a	n/a	n/a	n/a	n/a
4327.398	n/a	RECOG_LURE	2163699	n/a	LTP293	ltpFR	6	6	n/a	MOTH	920	4	n/a	n/a	n/a	n/a	n/a	n/a
4327.93	n/a	RECOG_RESP	2163965	n/a	LTP293	ltpFR	6	6	n/a	MOTH	920	n/a	n/a	n/a	n/a	n/a	n/a	n/a
4328.556	n/a	RECOG_CONF	2164278	n/a	LTP293	ltpFR	6	6	n/a	MOTH	920	4	n/a	n/a	n/a	n/a	n/a	n/a
4330.208	n/a	RECOG_TARGET	2165104	n/a	LTP293	ltpFR	6	6	1	KIDNEY	776	5	0	n/a	n/a	n/a	n/a	n/a
