onset	duration	trial_type	sample	stim_file	subject	experiment	session	trial	item_name	item_num	list	answer	test_x	test_y	test_z
222.64	n/a	SESS_START	111320	n/a	LTP310	ltpFR2	18	n/a	n/a	n/a	n/a	n/a	0	0	0
231.8	n/a	START	115900	n/a	LTP310	ltpFR2	18	n/a	n/a	n/a	-1	n/a	n/a	n/a	n/a
231.816	n/a	PROB	115908	n/a	LTP310	ltpFR2	18	n/a	n/a	n/a	-1	21	9	9	3
233.782	n/a	PROB	116891	n/a	LTP310	ltpFR2	18	n/a	n/a	n/a	-1	10	3	2	5
235.114	n/a	PROB	117557	n/a	LTP310	ltpFR2	18	n/a	n/a	n/a	-1	21	8	5	8
236.85	n/a	PROB	118425	n/a	LTP310	ltpFR2	18	n/a	n/a	n/a	-1	17	4	9	4
238.418	n/a	PROB	119209	n/a	LTP310	ltpFR2	18	n/a	n/a	n/a	-1	7	3	2	2
240.152	n/a	PROB	120076	n/a	LTP310	ltpFR2	18	n/a	n/a	n/a	-1	18	2	8	8
241.586	n/a	PROB	120793	n/a	LTP310	ltpFR2	18	n/a	n/a	n/a	-1	19	2	8	9
242.854	n/a	STOP	121427	n/a	LTP310	ltpFR2	18	n/a	n/a	n/a	-1	n/a	n/a	n/a	n/a
262.81	n/a	DISTRACTOR	131405	n/a	LTP310	ltpFR2	18	1	n/a	n/a	n/a	n/a	0	0	0
262.81	n/a	START	131405	n/a	LTP310	ltpFR2	18	n/a	n/a	n/a	1	n/a	n/a	n/a	n/a
262.824	n/a	PROB	131412	n/a	LTP310	ltpFR2	18	n/a	n/a	n/a	1	15	2	9	4
264.356	n/a	PROB	132178	n/a	LTP310	ltpFR2	18	n/a	n/a	n/a	1	16	6	6	4
265.942	n/a	PROB	132971	n/a	LTP310	ltpFR2	18	n/a	n/a	n/a	1	11	2	1	8
267.106	n/a	PROB	133553	n/a	LTP310	ltpFR2	18	n/a	n/a	n/a	1	15	9	1	5
268.158	n/a	PROB	134079	n/a	LTP310	ltpFR2	18	n/a	n/a	n/a	1	15	9	2	4
269.592	n/a	PROB	134796	n/a	LTP310	ltpFR2	18	n/a	n/a	n/a	1	9	1	2	6
272.11	n/a	PROB	136055	n/a	LTP310	ltpFR2	18	n/a	n/a	n/a	1	20	5	7	8
273.628	n/a	PROB	136814	n/a	LTP310	ltpFR2	18	n/a	n/a	n/a	1	9	1	2	6
274.912	n/a	PROB	137456	n/a	LTP310	ltpFR2	18	n/a	n/a	n/a	1	15	8	5	2
276.198	n/a	PROB	138099	n/a	LTP310	ltpFR2	18	n/a	n/a	n/a	1	22	8	6	8
277.75	n/a	PROB	138875	n/a	LTP310	ltpFR2	18	n/a	n/a	n/a	1	15	5	7	3
279.434	n/a	PROB	139717	n/a	LTP310	ltpFR2	18	n/a	n/a	n/a	1	13	4	5	4
280.918	n/a	PROB	140459	n/a	LTP310	ltpFR2	18	n/a	n/a	n/a	1	16	9	2	5
282.334	n/a	PROB	141167	n/a	LTP310	ltpFR2	18	n/a	n/a	n/a	1	17	3	9	5
283.754	n/a	PROB	141877	n/a	LTP310	ltpFR2	18	n/a	n/a	n/a	1	19	9	6	4
285.254	n/a	PROB	142627	n/a	LTP310	ltpFR2	18	n/a	n/a	n/a	1	18	6	9	3
286.696	n/a	STOP	143348	n/a	LTP310	ltpFR2	18	n/a	n/a	n/a	1	n/a	n/a	n/a	n/a
288.014	n/a	WORD	144007	wordpools/wasnorm_wordpool_576.txt	LTP310	ltpFR2	18	1	CROWN	415	n/a	n/a	0	0	0
290.51	n/a	WORD	145255	wordpools/wasnorm_wordpool_576.txt	LTP310	ltpFR2	18	1	ROBIN	1199	n/a	n/a	0	0	0
293.012	n/a	WORD	146506	wordpools/wasnorm_wordpool_576.txt	LTP310	ltpFR2	18	1	COSTUME	383	n/a	n/a	0	0	0
295.436	n/a	WORD	147718	wordpools/wasnorm_wordpool_576.txt	LTP310	ltpFR2	18	1	SUITCASE	1403	n/a	n/a	0	0	0
298.132	n/a	WORD	149066	wordpools/wasnorm_wordpool_576.txt	LTP310	ltpFR2	18	1	SNACK	1331	n/a	n/a	0	0	0
300.64	n/a	WORD	150320	wordpools/wasnorm_wordpool_576.txt	LTP310	ltpFR2	18	1	CHIPMUNK	304	n/a	n/a	0	0	0
303.454	n/a	WORD	151727	wordpools/wasnorm_wordpool_576.txt	LTP310	ltpFR2	18	1	GHETTO	633	n/a	n/a	0	0	0
306.144	n/a	WORD	153072	wordpools/wasnorm_wordpool_576.txt	LTP310	ltpFR2	18	1	SPONGE	1355	n/a	n/a	0	0	0
308.658	n/a	WORD	154329	wordpools/wasnorm_wordpool_576.txt	LTP310	ltpFR2	18	1	PREACHER	1119	n/a	n/a	0	0	0
311.442	n/a	WORD	155721	wordpools/wasnorm_wordpool_576.txt	LTP310	ltpFR2	18	1	PERCH	1048	n/a	n/a	0	0	0
314.034	n/a	WORD	157017	wordpools/wasnorm_wordpool_576.txt	LTP310	ltpFR2	18	1	ISLAND	745	n/a	n/a	0	0	0
316.782	n/a	WORD	158391	wordpools/wasnorm_wordpool_576.txt	LTP310	ltpFR2	18	1	LAKE	796	n/a	n/a	0	0	0
319.282	n/a	WORD	159641	wordpools/wasnorm_wordpool_576.txt	LTP310	ltpFR2	18	1	SWIMMER	1420	n/a	n/a	0	0	0
321.768	n/a	WORD	160884	wordpools/wasnorm_wordpool_576.txt	LTP310	ltpFR2	18	1	CROSS	413	n/a	n/a	0	0	0
324.454	n/a	WORD	162227	wordpools/wasnorm_wordpool_576.txt	LTP310	ltpFR2	18	1	BRICK	172	n/a	n/a	0	0	0
326.972	n/a	WORD	163486	wordpools/wasnorm_wordpool_576.txt	LTP310	ltpFR2	18	1	CARRIAGE	248	n/a	n/a	0	0	0
329.682	n/a	WORD	164841	wordpools/wasnorm_wordpool_576.txt	LTP310	ltpFR2	18	1	FLOWER	584	n/a	n/a	0	0	0
332.15	n/a	WORD	166075	wordpools/wasnorm_wordpool_576.txt	LTP310	ltpFR2	18	1	SHIRT	1287	n/a	n/a	0	0	0
334.844	n/a	WORD	167422	wordpools/wasnorm_wordpool_576.txt	LTP310	ltpFR2	18	1	EYELASH	546	n/a	n/a	0	0	0
337.398	n/a	WORD	168699	wordpools/wasnorm_wordpool_576.txt	LTP310	ltpFR2	18	1	SPOOL	1356	n/a	n/a	0	0	0
339.916	n/a	WORD	169958	wordpools/wasnorm_wordpool_576.txt	LTP310	ltpFR2	18	1	HAMPER	682	n/a	n/a	0	0	0
342.35	n/a	WORD	171175	wordpools/wasnorm_wordpool_576.txt	LTP310	ltpFR2	18	1	MATCH	878	n/a	n/a	0	0	0
344.894	n/a	WORD	172447	wordpools/wasnorm_wordpool_576.txt	LTP310	ltpFR2	18	1	GIFT	635	n/a	n/a	0	0	0
347.672	n/a	WORD	173836	wordpools/wasnorm_wordpool_576.txt	LTP310	ltpFR2	18	1	PACKAGE	997	n/a	n/a	0	0	0
349.282	n/a	START	174641	n/a	LTP310	ltpFR2	18	n/a	n/a	n/a	2	n/a	n/a	n/a	n/a
350.088	n/a	DISTRACTOR	175044	n/a	LTP310	ltpFR2	18	1	n/a	n/a	n/a	n/a	0	0	0
350.098	n/a	PROB	175049	n/a	LTP310	ltpFR2	18	n/a	n/a	n/a	2	15	7	9	5
352.64	n/a	PROB	176320	n/a	LTP310	ltpFR2	18	n/a	n/a	n/a	2	22	8	7	7
354.524	n/a	PROB	177262	n/a	LTP310	ltpFR2	18	n/a	n/a	n/a	2	18	7	5	6
356.11	n/a	PROB	178055	n/a	LTP310	ltpFR2	18	n/a	n/a	n/a	2	11	3	2	6
358.946	n/a	PROB	179473	n/a	LTP310	ltpFR2	18	n/a	n/a	n/a	2	12	3	2	7
360.23	n/a	PROB	180115	n/a	LTP310	ltpFR2	18	n/a	n/a	n/a	2	24	7	8	9
361.73	n/a	PROB	180865	n/a	LTP310	ltpFR2	18	n/a	n/a	n/a	2	19	9	7	3
363.066	n/a	PROB	181533	n/a	LTP310	ltpFR2	18	n/a	n/a	n/a	2	6	1	1	4
364.25	n/a	PROB	182125	n/a	LTP310	ltpFR2	18	n/a	n/a	n/a	2	19	9	6	4
365.484	n/a	PROB	182742	n/a	LTP310	ltpFR2	18	n/a	n/a	n/a	2	14	9	3	2
367.318	n/a	PROB	183659	n/a	LTP310	ltpFR2	18	n/a	n/a	n/a	2	19	7	6	6
368.67	n/a	PROB	184335	n/a	LTP310	ltpFR2	18	n/a	n/a	n/a	2	17	2	9	6
370.054	n/a	PROB	185027	n/a	LTP310	ltpFR2	18	n/a	n/a	n/a	2	17	4	8	5
373.28	n/a	STOP	186640	n/a	LTP310	ltpFR2	18	n/a	n/a	n/a	2	n/a	n/a	n/a	n/a
375.144	n/a	REC_START	187572	n/a	LTP310	ltpFR2	18	1	n/a	n/a	n/a	n/a	0	0	0
378.318	n/a	REC_WORD	189159	wordpools/wasnorm_wordpool_576.txt	LTP310	ltpFR2	18	1	CROWN	415	n/a	n/a	0	0	0
379.122	n/a	REC_WORD	189561	wordpools/wasnorm_wordpool_576.txt	LTP310	ltpFR2	18	1	COSTUME	383	n/a	n/a	0	0	0
380.122	n/a	REC_WORD_VV	190061	wordpools/wasnorm_wordpool_576.txt	LTP310	ltpFR2	18	1	<>	-1	n/a	n/a	0	0	0
380.248	n/a	REC_WORD	190124	wordpools/wasnorm_wordpool_576.txt	LTP310	ltpFR2	18	1	ROBIN	1199	n/a	n/a	0	0	0
381.53	n/a	REC_WORD	190765	wordpools/wasnorm_wordpool_576.txt	LTP310	ltpFR2	18	1	SUITCASE	1403	n/a	n/a	0	0	0
382.53	n/a	REC_WORD_VV	191265	wordpools/wasnorm_wordpool_576.txt	LTP310	ltpFR2	18	1	<>	-1	n/a	n/a	0	0	0
384.45	n/a	REC_WORD	192225	wordpools/wasnorm_wordpool_576.txt	LTP310	ltpFR2	18	1	SNACK	1331	n/a	n/a	0	0	0
385.904	n/a	REC_WORD	192952	wordpools/wasnorm_wordpool_576.txt	LTP310	ltpFR2	18	1	CHIPMUNK	304	n/a	n/a	0	0	0
389.692	n/a	REC_WORD	194846	wordpools/wasnorm_wordpool_576.txt	LTP310	ltpFR2	18	1	SPONGE	1355	n/a	n/a	0	0	0
390.692	n/a	REC_WORD_VV	195346	wordpools/wasnorm_wordpool_576.txt	LTP310	ltpFR2	18	1	<>	-1	n/a	n/a	0	0	0
395.732	n/a	REC_WORD	197866	wordpools/wasnorm_wordpool_576.txt	LTP310	ltpFR2	18	1	PREACHER	1119	n/a	n/a	0	0	0
397.614	n/a	REC_WORD	198807	wordpools/wasnorm_wordpool_576.txt	LTP310	ltpFR2	18	1	PERCH	1048	n/a	n/a	0	0	0
398.508	n/a	REC_WORD	199254	wordpools/wasnorm_wordpool_576.txt	LTP310	ltpFR2	18	1	ISLAND	745	n/a	n/a	0	0	0
400.136	n/a	REC_WORD	200068	wordpools/wasnorm_wordpool_576.txt	LTP310	ltpFR2	18	1	LAKE	796	n/a	n/a	0	0	0
400.702	n/a	REC_WORD	200351	wordpools/wasnorm_wordpool_576.txt	LTP310	ltpFR2	18	1	SWIMMER	1420	n/a	n/a	0	0	0
401.642	n/a	REC_WORD	200821	wordpools/wasnorm_wordpool_576.txt	LTP310	ltpFR2	18	1	BRICK	172	n/a	n/a	0	0	0
402.554	n/a	REC_WORD	201277	wordpools/wasnorm_wordpool_576.txt	LTP310	ltpFR2	18	1	CARRIAGE	248	n/a	n/a	0	0	0
404.204	n/a	REC_WORD	202102	wordpools/wasnorm_wordpool_576.txt	LTP310	ltpFR2	18	1	EYELASH	546	n/a	n/a	0	0	0
408.544	n/a	REC_WORD	204272	wordpools/wasnorm_wordpool_576.txt	LTP310	ltpFR2	18	1	SHIRT	1287	n/a	n/a	0	0	0
409.384	n/a	REC_WORD	204692	wordpools/wasnorm_wordpool_576.txt	LTP310	ltpFR2	18	1	FLOWER	584	n/a	n/a	0	0	0
465.596	n/a	DISTRACTOR	232798	n/a	LTP310	ltpFR2	18	2	n/a	n/a	n/a	n/a	0	0	0
465.596	n/a	START	232798	n/a	LTP310	ltpFR2	18	n/a	n/a	n/a	3	n/a	n/a	n/a	n/a
465.612	n/a	PROB	232806	n/a	LTP310	ltpFR2	18	n/a	n/a	n/a	3	13	9	1	3
467.348	n/a	PROB	233674	n/a	LTP310	ltpFR2	18	n/a	n/a	n/a	3	17	8	2	7
468.598	n/a	PROB	234299	n/a	LTP310	ltpFR2	18	n/a	n/a	n/a	3	13	1	9	3
469.716	n/a	PROB	234858	n/a	LTP310	ltpFR2	18	n/a	n/a	n/a	3	13	1	7	5
471.2	n/a	PROB	235600	n/a	LTP310	ltpFR2	18	n/a	n/a	n/a	3	18	9	7	2
472.918	n/a	PROB	236459	n/a	LTP310	ltpFR2	18	n/a	n/a	n/a	3	19	8	3	8
474.886	n/a	PROB	237443	n/a	LTP310	ltpFR2	18	n/a	n/a	n/a	3	15	5	2	8
476.37	n/a	PROB	238185	n/a	LTP310	ltpFR2	18	n/a	n/a	n/a	3	13	3	9	1
477.94	n/a	PROB	238970	n/a	LTP310	ltpFR2	18	n/a	n/a	n/a	3	15	5	1	9
479.59	n/a	PROB	239795	n/a	LTP310	ltpFR2	18	n/a	n/a	n/a	3	16	5	4	7
481.174	n/a	PROB	240587	n/a	LTP310	ltpFR2	18	n/a	n/a	n/a	3	14	7	1	6
485.178	n/a	PROB	242589	n/a	LTP310	ltpFR2	18	n/a	n/a	n/a	3	15	4	5	6
487.596	n/a	PROB	243798	n/a	LTP310	ltpFR2	18	n/a	n/a	n/a	3	19	6	4	9
488.922	n/a	STOP	244461	n/a	LTP310	ltpFR2	18	n/a	n/a	n/a	3	n/a	n/a	n/a	n/a
490.616	n/a	WORD	245308	wordpools/wasnorm_wordpool_576.txt	LTP310	ltpFR2	18	2	TAXI	1438	n/a	n/a	0	0	0
493.384	n/a	WORD	246692	wordpools/wasnorm_wordpool_576.txt	LTP310	ltpFR2	18	2	PATROL	1027	n/a	n/a	0	0	0
496.204	n/a	WORD	248102	wordpools/wasnorm_wordpool_576.txt	LTP310	ltpFR2	18	2	EGYPT	519	n/a	n/a	0	0	0
498.724	n/a	WORD	249362	wordpools/wasnorm_wordpool_576.txt	LTP310	ltpFR2	18	2	VENUS	1557	n/a	n/a	0	0	0
501.224	n/a	WORD	250612	wordpools/wasnorm_wordpool_576.txt	LTP310	ltpFR2	18	2	PLUTO	1092	n/a	n/a	0	0	0
503.728	n/a	WORD	251864	wordpools/wasnorm_wordpool_576.txt	LTP310	ltpFR2	18	2	TURNIP	1521	n/a	n/a	0	0	0
506.496	n/a	WORD	253248	wordpools/wasnorm_wordpool_576.txt	LTP310	ltpFR2	18	2	BARLEY	88	n/a	n/a	0	0	0
508.98	n/a	WORD	254490	wordpools/wasnorm_wordpool_576.txt	LTP310	ltpFR2	18	2	DOUGHNUT	490	n/a	n/a	0	0	0
511.718	n/a	WORD	255859	wordpools/wasnorm_wordpool_576.txt	LTP310	ltpFR2	18	2	SILK	1307	n/a	n/a	0	0	0
514.15	n/a	WORD	257075	wordpools/wasnorm_wordpool_576.txt	LTP310	ltpFR2	18	2	SCARECROW	1245	n/a	n/a	0	0	0
516.57	n/a	WORD	258285	wordpools/wasnorm_wordpool_576.txt	LTP310	ltpFR2	18	2	CONCERT	360	n/a	n/a	0	0	0
518.992	n/a	WORD	259496	wordpools/wasnorm_wordpool_576.txt	LTP310	ltpFR2	18	2	MARKER	870	n/a	n/a	0	0	0
521.574	n/a	WORD	260787	wordpools/wasnorm_wordpool_576.txt	LTP310	ltpFR2	18	2	GLOBE	641	n/a	n/a	0	0	0
524.108	n/a	WORD	262054	wordpools/wasnorm_wordpool_576.txt	LTP310	ltpFR2	18	2	HERO	706	n/a	n/a	0	0	0
526.594	n/a	WORD	263297	wordpools/wasnorm_wordpool_576.txt	LTP310	ltpFR2	18	2	HORSE	719	n/a	n/a	0	0	0
529.134	n/a	WORD	264567	wordpools/wasnorm_wordpool_576.txt	LTP310	ltpFR2	18	2	RABBIT	1152	n/a	n/a	0	0	0
531.848	n/a	WORD	265924	wordpools/wasnorm_wordpool_576.txt	LTP310	ltpFR2	18	2	PISTOL	1075	n/a	n/a	0	0	0
534.482	n/a	WORD	267241	wordpools/wasnorm_wordpool_576.txt	LTP310	ltpFR2	18	2	AIRPORT	13	n/a	n/a	0	0	0
536.986	n/a	WORD	268493	wordpools/wasnorm_wordpool_576.txt	LTP310	ltpFR2	18	2	SPHINX	1349	n/a	n/a	0	0	0
539.47	n/a	WORD	269735	wordpools/wasnorm_wordpool_576.txt	LTP310	ltpFR2	18	2	PLASTER	1085	n/a	n/a	0	0	0
542.24	n/a	WORD	271120	wordpools/wasnorm_wordpool_576.txt	LTP310	ltpFR2	18	2	ROBBER	1197	n/a	n/a	0	0	0
544.982	n/a	WORD	272491	wordpools/wasnorm_wordpool_576.txt	LTP310	ltpFR2	18	2	SUSPECT	1415	n/a	n/a	0	0	0
547.762	n/a	WORD	273881	wordpools/wasnorm_wordpool_576.txt	LTP310	ltpFR2	18	2	RUG	1215	n/a	n/a	0	0	0
550.434	n/a	WORD	275217	wordpools/wasnorm_wordpool_576.txt	LTP310	ltpFR2	18	2	MUFFIN	929	n/a	n/a	0	0	0
552.048	n/a	START	276024	n/a	LTP310	ltpFR2	18	n/a	n/a	n/a	4	n/a	n/a	n/a	n/a
553.056	n/a	DISTRACTOR	276528	n/a	LTP310	ltpFR2	18	2	n/a	n/a	n/a	n/a	0	0	0
553.064	n/a	PROB	276532	n/a	LTP310	ltpFR2	18	n/a	n/a	n/a	4	11	3	5	3
554.966	n/a	PROB	277483	n/a	LTP310	ltpFR2	18	n/a	n/a	n/a	4	9	3	3	3
556.232	n/a	PROB	278116	n/a	LTP310	ltpFR2	18	n/a	n/a	n/a	4	24	9	9	6
557.834	n/a	PROB	278917	n/a	LTP310	ltpFR2	18	n/a	n/a	n/a	4	19	9	1	9
558.92	n/a	PROB	279460	n/a	LTP310	ltpFR2	18	n/a	n/a	n/a	4	16	4	9	3
560.986	n/a	PROB	280493	n/a	LTP310	ltpFR2	18	n/a	n/a	n/a	4	20	7	5	8
562.822	n/a	PROB	281411	n/a	LTP310	ltpFR2	18	n/a	n/a	n/a	4	23	9	7	7
564.742	n/a	PROB	282371	n/a	LTP310	ltpFR2	18	n/a	n/a	n/a	4	15	3	4	8
566.324	n/a	PROB	283162	n/a	LTP310	ltpFR2	18	n/a	n/a	n/a	4	16	3	8	5
567.828	n/a	PROB	283914	n/a	LTP310	ltpFR2	18	n/a	n/a	n/a	4	13	5	2	6
570.012	n/a	PROB	285006	n/a	LTP310	ltpFR2	18	n/a	n/a	n/a	4	19	6	5	8
571.512	n/a	PROB	285756	n/a	LTP310	ltpFR2	18	n/a	n/a	n/a	4	17	7	4	6
573.13	n/a	PROB	286565	n/a	LTP310	ltpFR2	18	n/a	n/a	n/a	4	13	3	9	1
576.046	n/a	STOP	288023	n/a	LTP310	ltpFR2	18	n/a	n/a	n/a	4	n/a	n/a	n/a	n/a
577.786	n/a	REC_START	288893	n/a	LTP310	ltpFR2	18	2	n/a	n/a	n/a	n/a	0	0	0
582.328	n/a	REC_WORD	291164	wordpools/wasnorm_wordpool_576.txt	LTP310	ltpFR2	18	2	SUSPECT	1415	n/a	n/a	0	0	0
583.328	n/a	REC_WORD_VV	291664	wordpools/wasnorm_wordpool_576.txt	LTP310	ltpFR2	18	2	<>	-1	n/a	n/a	0	0	0
583.6	n/a	REC_WORD	291800	wordpools/wasnorm_wordpool_576.txt	LTP310	ltpFR2	18	2	RUG	1215	n/a	n/a	0	0	0
585.222	n/a	REC_WORD	292611	wordpools/wasnorm_wordpool_576.txt	LTP310	ltpFR2	18	2	MUFFIN	929	n/a	n/a	0	0	0
587.148	n/a	REC_WORD	293574	wordpools/wasnorm_wordpool_576.txt	LTP310	ltpFR2	18	2	PATROL	1027	n/a	n/a	0	0	0
588.574	n/a	REC_WORD	294287	wordpools/wasnorm_wordpool_576.txt	LTP310	ltpFR2	18	2	TAXI	1438	n/a	n/a	0	0	0
590.266	n/a	REC_WORD	295133	wordpools/wasnorm_wordpool_576.txt	LTP310	ltpFR2	18	2	EGYPT	519	n/a	n/a	0	0	0
591.482	n/a	REC_WORD	295741	wordpools/wasnorm_wordpool_576.txt	LTP310	ltpFR2	18	2	TURNIP	1521	n/a	n/a	0	0	0
592.346	n/a	REC_WORD	296173	wordpools/wasnorm_wordpool_576.txt	LTP310	ltpFR2	18	2	BARLEY	88	n/a	n/a	0	0	0
594.116	n/a	REC_WORD	297058	wordpools/wasnorm_wordpool_576.txt	LTP310	ltpFR2	18	2	VENUS	1557	n/a	n/a	0	0	0
595.11	n/a	REC_WORD	297555	wordpools/wasnorm_wordpool_576.txt	LTP310	ltpFR2	18	2	PLUTO	1092	n/a	n/a	0	0	0
598.836	n/a	REC_WORD	299418	wordpools/wasnorm_wordpool_576.txt	LTP310	ltpFR2	18	2	DOUGHNUT	490	n/a	n/a	0	0	0
600.046	n/a	REC_WORD	300023	wordpools/wasnorm_wordpool_576.txt	LTP310	ltpFR2	18	2	SILK	1307	n/a	n/a	0	0	0
600.87	n/a	REC_WORD	300435	wordpools/wasnorm_wordpool_576.txt	LTP310	ltpFR2	18	2	SCARECROW	1245	n/a	n/a	0	0	0
601.87	n/a	REC_WORD_VV	300935	wordpools/wasnorm_wordpool_576.txt	LTP310	ltpFR2	18	2	<>	-1	n/a	n/a	0	0	0
602.9	n/a	REC_WORD	301450	wordpools/wasnorm_wordpool_576.txt	LTP310	ltpFR2	18	2	MARKER	870	n/a	n/a	0	0	0
603.736	n/a	REC_WORD_VV	301868	wordpools/wasnorm_wordpool_576.txt	LTP310	ltpFR2	18	2	<>	-1	n/a	n/a	0	0	0
604.92	n/a	REC_WORD	302460	wordpools/wasnorm_wordpool_576.txt	LTP310	ltpFR2	18	2	CONCERT	360	n/a	n/a	0	0	0
606.268	n/a	REC_WORD	303134	wordpools/wasnorm_wordpool_576.txt	LTP310	ltpFR2	18	2	GLOBE	641	n/a	n/a	0	0	0
668.254	n/a	WORD	334127	wordpools/wasnorm_wordpool_576.txt	LTP310	ltpFR2	18	3	PLAYGROUND	1087	n/a	n/a	0	0	0
670.758	n/a	WORD	335379	wordpools/wasnorm_wordpool_576.txt	LTP310	ltpFR2	18	3	BUG	187	n/a	n/a	0	0	0
673.506	n/a	WORD	336753	wordpools/wasnorm_wordpool_576.txt	LTP310	ltpFR2	18	3	BRANDY	169	n/a	n/a	0	0	0
675.958	n/a	WORD	337979	wordpools/wasnorm_wordpool_576.txt	LTP310	ltpFR2	18	3	SODA	1341	n/a	n/a	0	0	0
678.728	n/a	WORD	339364	wordpools/wasnorm_wordpool_576.txt	LTP310	ltpFR2	18	3	BUCKET	184	n/a	n/a	0	0	0
681.23	n/a	WORD	340615	wordpools/wasnorm_wordpool_576.txt	LTP310	ltpFR2	18	3	RAFT	1159	n/a	n/a	0	0	0
684.048	n/a	WORD	342024	wordpools/wasnorm_wordpool_576.txt	LTP310	ltpFR2	18	3	BROTHER	179	n/a	n/a	0	0	0
686.734	n/a	WORD	343367	wordpools/wasnorm_wordpool_576.txt	LTP310	ltpFR2	18	3	SISTER	1312	n/a	n/a	0	0	0
689.37	n/a	WORD	344685	wordpools/wasnorm_wordpool_576.txt	LTP310	ltpFR2	18	3	STALLION	1369	n/a	n/a	0	0	0
691.806	n/a	WORD	345903	wordpools/wasnorm_wordpool_576.txt	LTP310	ltpFR2	18	3	ARM	38	n/a	n/a	0	0	0
694.392	n/a	WORD	347196	wordpools/wasnorm_wordpool_576.txt	LTP310	ltpFR2	18	3	VIKING	1565	n/a	n/a	0	0	0
696.944	n/a	WORD	348472	wordpools/wasnorm_wordpool_576.txt	LTP310	ltpFR2	18	3	AIRPLANE	12	n/a	n/a	0	0	0
699.396	n/a	WORD	349698	wordpools/wasnorm_wordpool_576.txt	LTP310	ltpFR2	18	3	SIBLING	1301	n/a	n/a	0	0	0
702.13	n/a	WORD	351065	wordpools/wasnorm_wordpool_576.txt	LTP310	ltpFR2	18	3	WASP	1593	n/a	n/a	0	0	0
704.584	n/a	WORD	352292	wordpools/wasnorm_wordpool_576.txt	LTP310	ltpFR2	18	3	FRAGRANCE	599	n/a	n/a	0	0	0
707.318	n/a	WORD	353659	wordpools/wasnorm_wordpool_576.txt	LTP310	ltpFR2	18	3	ONION	977	n/a	n/a	0	0	0
709.986	n/a	WORD	354993	wordpools/wasnorm_wordpool_576.txt	LTP310	ltpFR2	18	3	WAITRESS	1581	n/a	n/a	0	0	0
712.656	n/a	WORD	356328	wordpools/wasnorm_wordpool_576.txt	LTP310	ltpFR2	18	3	PENGUIN	1044	n/a	n/a	0	0	0
715.458	n/a	WORD	357729	wordpools/wasnorm_wordpool_576.txt	LTP310	ltpFR2	18	3	QUAIL	1147	n/a	n/a	0	0	0
718.142	n/a	WORD	359071	wordpools/wasnorm_wordpool_576.txt	LTP310	ltpFR2	18	3	CONVICT	371	n/a	n/a	0	0	0
720.644	n/a	WORD	360322	wordpools/wasnorm_wordpool_576.txt	LTP310	ltpFR2	18	3	HOOD	714	n/a	n/a	0	0	0
723.432	n/a	WORD	361716	wordpools/wasnorm_wordpool_576.txt	LTP310	ltpFR2	18	3	SADDLE	1221	n/a	n/a	0	0	0
725.884	n/a	WORD	362942	wordpools/wasnorm_wordpool_576.txt	LTP310	ltpFR2	18	3	BIKE	125	n/a	n/a	0	0	0
728.652	n/a	WORD	364326	wordpools/wasnorm_wordpool_576.txt	LTP310	ltpFR2	18	3	THIEF	1456	n/a	n/a	0	0	0
730.27	n/a	START	365135	n/a	LTP310	ltpFR2	18	n/a	n/a	n/a	5	n/a	n/a	n/a	n/a
731.296	n/a	DISTRACTOR	365648	n/a	LTP310	ltpFR2	18	3	n/a	n/a	n/a	n/a	0	0	0
731.304	n/a	PROB	365652	n/a	LTP310	ltpFR2	18	n/a	n/a	n/a	5	13	9	3	1
732.888	n/a	PROB	366444	n/a	LTP310	ltpFR2	18	n/a	n/a	n/a	5	15	7	3	5
734.156	n/a	PROB	367078	n/a	LTP310	ltpFR2	18	n/a	n/a	n/a	5	12	7	4	1
735.656	n/a	PROB	367828	n/a	LTP310	ltpFR2	18	n/a	n/a	n/a	5	16	3	6	7
737.224	n/a	PROB	368612	n/a	LTP310	ltpFR2	18	n/a	n/a	n/a	5	15	8	6	1
739.076	n/a	PROB	369538	n/a	LTP310	ltpFR2	18	n/a	n/a	n/a	5	14	1	6	7
740.56	n/a	PROB	370280	n/a	LTP310	ltpFR2	18	n/a	n/a	n/a	5	23	9	6	8
742.294	n/a	PROB	371147	n/a	LTP310	ltpFR2	18	n/a	n/a	n/a	5	18	7	3	8
743.546	n/a	PROB	371773	n/a	LTP310	ltpFR2	18	n/a	n/a	n/a	5	16	4	6	6
744.716	n/a	PROB	372358	n/a	LTP310	ltpFR2	18	n/a	n/a	n/a	5	17	6	3	8
746.414	n/a	PROB	373207	n/a	LTP310	ltpFR2	18	n/a	n/a	n/a	5	12	3	3	6
747.95	n/a	PROB	373975	n/a	LTP310	ltpFR2	18	n/a	n/a	n/a	5	17	3	7	7
749.352	n/a	PROB	374676	n/a	LTP310	ltpFR2	18	n/a	n/a	n/a	5	10	2	4	4
752.518	n/a	PROB	376259	n/a	LTP310	ltpFR2	18	n/a	n/a	n/a	5	19	5	9	5
754.072	n/a	STOP	377036	n/a	LTP310	ltpFR2	18	n/a	n/a	n/a	5	n/a	n/a	n/a	n/a
756.088	n/a	REC_START	378044	n/a	LTP310	ltpFR2	18	3	n/a	n/a	n/a	n/a	0	0	0
765.67	n/a	REC_WORD	382835	wordpools/wasnorm_wordpool_576.txt	LTP310	ltpFR2	18	3	VIKING	1565	n/a	n/a	0	0	0
766.832	n/a	REC_WORD	383416	wordpools/wasnorm_wordpool_576.txt	LTP310	ltpFR2	18	3	AIRPLANE	12	n/a	n/a	0	0	0
767.832	n/a	REC_WORD_VV	383916	wordpools/wasnorm_wordpool_576.txt	LTP310	ltpFR2	18	3	<>	-1	n/a	n/a	0	0	0
769.644	n/a	REC_WORD	384822	wordpools/wasnorm_wordpool_576.txt	LTP310	ltpFR2	18	3	BRANDY	169	n/a	n/a	0	0	0
770.994	n/a	REC_WORD	385497	wordpools/wasnorm_wordpool_576.txt	LTP310	ltpFR2	18	3	SODA	1341	n/a	n/a	0	0	0
772.414	n/a	REC_WORD	386207	wordpools/wasnorm_wordpool_576.txt	LTP310	ltpFR2	18	3	BUCKET	184	n/a	n/a	0	0	0
773.718	n/a	REC_WORD	386859	wordpools/wasnorm_wordpool_576.txt	LTP310	ltpFR2	18	3	RAFT	1159	n/a	n/a	0	0	0
775.262	n/a	REC_WORD	387631	wordpools/wasnorm_wordpool_576.txt	LTP310	ltpFR2	18	3	BROTHER	179	n/a	n/a	0	0	0
776.296	n/a	REC_WORD	388148	wordpools/wasnorm_wordpool_576.txt	LTP310	ltpFR2	18	3	SISTER	1312	n/a	n/a	0	0	0
777.296	n/a	REC_WORD_VV	388648	wordpools/wasnorm_wordpool_576.txt	LTP310	ltpFR2	18	3	<>	-1	n/a	n/a	0	0	0
777.98	n/a	REC_WORD	388990	wordpools/wasnorm_wordpool_576.txt	LTP310	ltpFR2	18	3	STALLION	1369	n/a	n/a	0	0	0
779.614	n/a	REC_WORD	389807	wordpools/wasnorm_wordpool_576.txt	LTP310	ltpFR2	18	3	ARM	38	n/a	n/a	0	0	0
846.526	n/a	WORD	423263	wordpools/wasnorm_wordpool_576.txt	LTP310	ltpFR2	18	4	MAPLE	866	n/a	n/a	0	0	0
849.338	n/a	WORD	424669	wordpools/wasnorm_wordpool_576.txt	LTP310	ltpFR2	18	4	UMPIRE	1535	n/a	n/a	0	0	0
851.992	n/a	WORD	425996	wordpools/wasnorm_wordpool_576.txt	LTP310	ltpFR2	18	4	GLOVE	642	n/a	n/a	0	0	0
854.694	n/a	WORD	427347	wordpools/wasnorm_wordpool_576.txt	LTP310	ltpFR2	18	4	CRAYON	401	n/a	n/a	0	0	0
857.128	n/a	WORD	428564	wordpools/wasnorm_wordpool_576.txt	LTP310	ltpFR2	18	4	DONOR	485	n/a	n/a	0	0	0
859.614	n/a	WORD	429807	wordpools/wasnorm_wordpool_576.txt	LTP310	ltpFR2	18	4	GLASS	639	n/a	n/a	0	0	0
862.334	n/a	WORD	431167	wordpools/wasnorm_wordpool_576.txt	LTP310	ltpFR2	18	4	WINDOW	1611	n/a	n/a	0	0	0
864.902	n/a	WORD	432451	wordpools/wasnorm_wordpool_576.txt	LTP310	ltpFR2	18	4	KLEENEX	782	n/a	n/a	0	0	0
867.37	n/a	WORD	433685	wordpools/wasnorm_wordpool_576.txt	LTP310	ltpFR2	18	4	TABLET	1427	n/a	n/a	0	0	0
870.078	n/a	WORD	435039	wordpools/wasnorm_wordpool_576.txt	LTP310	ltpFR2	18	4	GIRL	637	n/a	n/a	0	0	0
872.666	n/a	WORD	436333	wordpools/wasnorm_wordpool_576.txt	LTP310	ltpFR2	18	4	DRIVER	499	n/a	n/a	0	0	0
875.262	n/a	WORD	437631	wordpools/wasnorm_wordpool_576.txt	LTP310	ltpFR2	18	4	REPORT	1184	n/a	n/a	0	0	0
877.998	n/a	WORD	438999	wordpools/wasnorm_wordpool_576.txt	LTP310	ltpFR2	18	4	HAND	683	n/a	n/a	0	0	0
880.784	n/a	WORD	440392	wordpools/wasnorm_wordpool_576.txt	LTP310	ltpFR2	18	4	FINGER	567	n/a	n/a	0	0	0
883.234	n/a	WORD	441617	wordpools/wasnorm_wordpool_576.txt	LTP310	ltpFR2	18	4	CAMEL	223	n/a	n/a	0	0	0
886.042	n/a	WORD	443021	wordpools/wasnorm_wordpool_576.txt	LTP310	ltpFR2	18	4	HEART	697	n/a	n/a	0	0	0
888.744	n/a	WORD	444372	wordpools/wasnorm_wordpool_576.txt	LTP310	ltpFR2	18	4	QUEEN	1149	n/a	n/a	0	0	0
891.424	n/a	WORD	445712	wordpools/wasnorm_wordpool_576.txt	LTP310	ltpFR2	18	4	CANYON	235	n/a	n/a	0	0	0
894.192	n/a	WORD	447096	wordpools/wasnorm_wordpool_576.txt	LTP310	ltpFR2	18	4	ANTLER	29	n/a	n/a	0	0	0
896.946	n/a	WORD	448473	wordpools/wasnorm_wordpool_576.txt	LTP310	ltpFR2	18	4	OUTLAW	989	n/a	n/a	0	0	0
899.452	n/a	WORD	449726	wordpools/wasnorm_wordpool_576.txt	LTP310	ltpFR2	18	4	TRACTOR	1493	n/a	n/a	0	0	0
902.1	n/a	WORD	451050	wordpools/wasnorm_wordpool_576.txt	LTP310	ltpFR2	18	4	HOUND	724	n/a	n/a	0	0	0
904.552	n/a	WORD	452276	wordpools/wasnorm_wordpool_576.txt	LTP310	ltpFR2	18	4	HIKER	708	n/a	n/a	0	0	0
907.07	n/a	WORD	453535	wordpools/wasnorm_wordpool_576.txt	LTP310	ltpFR2	18	4	BRIEFCASE	175	n/a	n/a	0	0	0
908.676	n/a	START	454338	n/a	LTP310	ltpFR2	18	n/a	n/a	n/a	6	n/a	n/a	n/a	n/a
909.636	n/a	DISTRACTOR	454818	n/a	LTP310	ltpFR2	18	4	n/a	n/a	n/a	n/a	0	0	0
909.64	n/a	PROB	454820	n/a	LTP310	ltpFR2	18	n/a	n/a	n/a	6	12	3	1	8
911.458	n/a	PROB	455729	n/a	LTP310	ltpFR2	18	n/a	n/a	n/a	6	19	5	5	9
912.628	n/a	PROB	456314	n/a	LTP310	ltpFR2	18	n/a	n/a	n/a	6	14	2	8	4
913.76	n/a	PROB	456880	n/a	LTP310	ltpFR2	18	n/a	n/a	n/a	6	12	8	3	1
915.428	n/a	PROB	457714	n/a	LTP310	ltpFR2	18	n/a	n/a	n/a	6	19	6	9	4
917.112	n/a	PROB	458556	n/a	LTP310	ltpFR2	18	n/a	n/a	n/a	6	18	4	6	8
918.346	n/a	PROB	459173	n/a	LTP310	ltpFR2	18	n/a	n/a	n/a	6	17	2	7	8
920.252	n/a	PROB	460126	n/a	LTP310	ltpFR2	18	n/a	n/a	n/a	6	19	5	7	7
921.704	n/a	PROB	460852	n/a	LTP310	ltpFR2	18	n/a	n/a	n/a	6	23	8	7	8
923.62	n/a	PROB	461810	n/a	LTP310	ltpFR2	18	n/a	n/a	n/a	6	16	1	9	6
924.736	n/a	PROB	462368	n/a	LTP310	ltpFR2	18	n/a	n/a	n/a	6	13	3	6	4
926.104	n/a	PROB	463052	n/a	LTP310	ltpFR2	18	n/a	n/a	n/a	6	23	9	9	4
928.692	n/a	PROB	464346	n/a	LTP310	ltpFR2	18	n/a	n/a	n/a	6	8	6	1	1
931.562	n/a	STOP	465781	n/a	LTP310	ltpFR2	18	n/a	n/a	n/a	6	n/a	n/a	n/a	n/a
934.546	n/a	REC_START	467273	n/a	LTP310	ltpFR2	18	4	n/a	n/a	n/a	n/a	0	0	0
939.17	n/a	REC_WORD	469585	wordpools/wasnorm_wordpool_576.txt	LTP310	ltpFR2	18	4	MAPLE	866	n/a	n/a	0	0	0
940.008	n/a	REC_WORD	470004	wordpools/wasnorm_wordpool_576.txt	LTP310	ltpFR2	18	4	UMPIRE	1535	n/a	n/a	0	0	0
941.008	n/a	REC_WORD_VV	470504	wordpools/wasnorm_wordpool_576.txt	LTP310	ltpFR2	18	4	<>	-1	n/a	n/a	0	0	0
941.48	n/a	REC_WORD	470740	wordpools/wasnorm_wordpool_576.txt	LTP310	ltpFR2	18	4	GLOVE	642	n/a	n/a	0	0	0
942.812	n/a	REC_WORD	471406	wordpools/wasnorm_wordpool_576.txt	LTP310	ltpFR2	18	4	CRAYON	401	n/a	n/a	0	0	0
943.928	n/a	REC_WORD	471964	wordpools/wasnorm_wordpool_576.txt	LTP310	ltpFR2	18	4	DONOR	485	n/a	n/a	0	0	0
946.254	n/a	REC_WORD	473127	wordpools/wasnorm_wordpool_576.txt	LTP310	ltpFR2	18	4	GLASS	639	n/a	n/a	0	0	0
947.35	n/a	REC_WORD	473675	wordpools/wasnorm_wordpool_576.txt	LTP310	ltpFR2	18	4	WINDOW	1611	n/a	n/a	0	0	0
953.118	n/a	REC_WORD	476559	wordpools/wasnorm_wordpool_576.txt	LTP310	ltpFR2	18	4	KLEENEX	782	n/a	n/a	0	0	0
954.118	n/a	REC_WORD_VV	477059	wordpools/wasnorm_wordpool_576.txt	LTP310	ltpFR2	18	4	<>	-1	n/a	n/a	0	0	0
961.52	n/a	REC_WORD	480760	wordpools/wasnorm_wordpool_576.txt	LTP310	ltpFR2	18	4	GIRL	637	n/a	n/a	0	0	0
962.388	n/a	REC_WORD	481194	wordpools/wasnorm_wordpool_576.txt	LTP310	ltpFR2	18	4	DRIVER	499	n/a	n/a	0	0	0
963.898	n/a	REC_WORD	481949	wordpools/wasnorm_wordpool_576.txt	LTP310	ltpFR2	18	4	CAMEL	223	n/a	n/a	0	0	0
965.298	n/a	REC_WORD	482649	wordpools/wasnorm_wordpool_576.txt	LTP310	ltpFR2	18	4	HARD	-1	n/a	n/a	0	0	0
969.65	n/a	REC_WORD	484825	wordpools/wasnorm_wordpool_576.txt	LTP310	ltpFR2	18	4	FINGER	567	n/a	n/a	0	0	0
978.344	n/a	REC_WORD	489172	wordpools/wasnorm_wordpool_576.txt	LTP310	ltpFR2	18	4	QUEEN	1149	n/a	n/a	0	0	0
979.178	n/a	REC_WORD	489589	wordpools/wasnorm_wordpool_576.txt	LTP310	ltpFR2	18	4	HEART	697	n/a	n/a	0	0	0
983.874	n/a	REC_WORD	491937	wordpools/wasnorm_wordpool_576.txt	LTP310	ltpFR2	18	4	CANYON	235	n/a	n/a	0	0	0
986.81	n/a	REC_WORD	493405	wordpools/wasnorm_wordpool_576.txt	LTP310	ltpFR2	18	4	ANTLER	29	n/a	n/a	0	0	0
988.176	n/a	REC_WORD	494088	wordpools/wasnorm_wordpool_576.txt	LTP310	ltpFR2	18	4	OUTLAW	989	n/a	n/a	0	0	0
989.098	n/a	REC_WORD	494549	wordpools/wasnorm_wordpool_576.txt	LTP310	ltpFR2	18	4	HIKER	708	n/a	n/a	0	0	0
989.996	n/a	REC_WORD	494998	wordpools/wasnorm_wordpool_576.txt	LTP310	ltpFR2	18	4	HOUND	724	n/a	n/a	0	0	0
1024.966	n/a	DISTRACTOR	512483	n/a	LTP310	ltpFR2	18	5	n/a	n/a	n/a	n/a	0	0	0
1024.966	n/a	START	512483	n/a	LTP310	ltpFR2	18	n/a	n/a	n/a	7	n/a	n/a	n/a	n/a
1024.982	n/a	PROB	512491	n/a	LTP310	ltpFR2	18	n/a	n/a	n/a	7	12	5	2	5
1026.784	n/a	PROB	513392	n/a	LTP310	ltpFR2	18	n/a	n/a	n/a	7	21	9	5	7
1028.416	n/a	PROB	514208	n/a	LTP310	ltpFR2	18	n/a	n/a	n/a	7	18	4	8	6
1029.836	n/a	PROB	514918	n/a	LTP310	ltpFR2	18	n/a	n/a	n/a	7	18	6	7	5
1031.638	n/a	PROB	515819	n/a	LTP310	ltpFR2	18	n/a	n/a	n/a	7	17	7	5	5
1033.706	n/a	PROB	516853	n/a	LTP310	ltpFR2	18	n/a	n/a	n/a	7	16	4	8	4
1035.622	n/a	PROB	517811	n/a	LTP310	ltpFR2	18	n/a	n/a	n/a	7	13	3	1	9
1036.974	n/a	PROB	518487	n/a	LTP310	ltpFR2	18	n/a	n/a	n/a	7	21	6	8	7
1039.026	n/a	PROB	519513	n/a	LTP310	ltpFR2	18	n/a	n/a	n/a	7	11	3	1	7
1041.594	n/a	PROB	520797	n/a	LTP310	ltpFR2	18	n/a	n/a	n/a	7	17	5	3	9
1043.33	n/a	PROB	521665	n/a	LTP310	ltpFR2	18	n/a	n/a	n/a	7	19	3	7	9
1044.898	n/a	PROB	522449	n/a	LTP310	ltpFR2	18	n/a	n/a	n/a	7	13	2	8	3
1046.182	n/a	PROB	523091	n/a	LTP310	ltpFR2	18	n/a	n/a	n/a	7	21	6	6	9
1047.79	n/a	STOP	523895	n/a	LTP310	ltpFR2	18	n/a	n/a	n/a	7	n/a	n/a	n/a	n/a
1049.936	n/a	WORD	524968	wordpools/wasnorm_wordpool_576.txt	LTP310	ltpFR2	18	5	BLACKBOARD	133	n/a	n/a	0	0	0
1052.646	n/a	WORD	526323	wordpools/wasnorm_wordpool_576.txt	LTP310	ltpFR2	18	5	ATOM	55	n/a	n/a	0	0	0
1055.24	n/a	WORD	527620	wordpools/wasnorm_wordpool_576.txt	LTP310	ltpFR2	18	5	SPOON	1357	n/a	n/a	0	0	0
1057.826	n/a	WORD	528913	wordpools/wasnorm_wordpool_576.txt	LTP310	ltpFR2	18	5	WASHER	1592	n/a	n/a	0	0	0
1060.618	n/a	WORD	530309	wordpools/wasnorm_wordpool_576.txt	LTP310	ltpFR2	18	5	HOOK	715	n/a	n/a	0	0	0
1063.162	n/a	WORD	531581	wordpools/wasnorm_wordpool_576.txt	LTP310	ltpFR2	18	5	COUCH	386	n/a	n/a	0	0	0
1065.982	n/a	WORD	532991	wordpools/wasnorm_wordpool_576.txt	LTP310	ltpFR2	18	5	TABLE	1426	n/a	n/a	0	0	0
1068.6	n/a	WORD	534300	wordpools/wasnorm_wordpool_576.txt	LTP310	ltpFR2	18	5	COURSE	390	n/a	n/a	0	0	0
1071.352	n/a	WORD	535676	wordpools/wasnorm_wordpool_576.txt	LTP310	ltpFR2	18	5	CRICKET	408	n/a	n/a	0	0	0
1074.096	n/a	WORD	537048	wordpools/wasnorm_wordpool_576.txt	LTP310	ltpFR2	18	5	BOARD	143	n/a	n/a	0	0	0
1076.582	n/a	WORD	538291	wordpools/wasnorm_wordpool_576.txt	LTP310	ltpFR2	18	5	CREATURE	403	n/a	n/a	0	0	0
1079.034	n/a	WORD	539517	wordpools/wasnorm_wordpool_576.txt	LTP310	ltpFR2	18	5	LOFT	840	n/a	n/a	0	0	0
1081.526	n/a	WORD	540763	wordpools/wasnorm_wordpool_576.txt	LTP310	ltpFR2	18	5	CRIB	407	n/a	n/a	0	0	0
1084.022	n/a	WORD	542011	wordpools/wasnorm_wordpool_576.txt	LTP310	ltpFR2	18	5	SNAKE	1333	n/a	n/a	0	0	0
1086.54	n/a	WORD	543270	wordpools/wasnorm_wordpool_576.txt	LTP310	ltpFR2	18	5	MILDEW	893	n/a	n/a	0	0	0
1089.082	n/a	WORD	544541	wordpools/wasnorm_wordpool_576.txt	LTP310	ltpFR2	18	5	RUST	1219	n/a	n/a	0	0	0
1091.902	n/a	WORD	545951	wordpools/wasnorm_wordpool_576.txt	LTP310	ltpFR2	18	5	WHISKERS	1605	n/a	n/a	0	0	0
1094.53	n/a	WORD	547265	wordpools/wasnorm_wordpool_576.txt	LTP310	ltpFR2	18	5	COCKTAIL	338	n/a	n/a	0	0	0
1097.272	n/a	WORD	548636	wordpools/wasnorm_wordpool_576.txt	LTP310	ltpFR2	18	5	GUITAR	670	n/a	n/a	0	0	0
1100.086	n/a	WORD	550043	wordpools/wasnorm_wordpool_576.txt	LTP310	ltpFR2	18	5	ANKLE	24	n/a	n/a	0	0	0
1102.876	n/a	WORD	551438	wordpools/wasnorm_wordpool_576.txt	LTP310	ltpFR2	18	5	BALLOON	75	n/a	n/a	0	0	0
1105.356	n/a	WORD	552678	wordpools/wasnorm_wordpool_576.txt	LTP310	ltpFR2	18	5	OZONE	996	n/a	n/a	0	0	0
1107.792	n/a	WORD	553896	wordpools/wasnorm_wordpool_576.txt	LTP310	ltpFR2	18	5	MACHINE	852	n/a	n/a	0	0	0
1110.46	n/a	WORD	555230	wordpools/wasnorm_wordpool_576.txt	LTP310	ltpFR2	18	5	BANQUET	86	n/a	n/a	0	0	0
1112.068	n/a	START	556034	n/a	LTP310	ltpFR2	18	n/a	n/a	n/a	8	n/a	n/a	n/a	n/a
1113.066	n/a	DISTRACTOR	556533	n/a	LTP310	ltpFR2	18	5	n/a	n/a	n/a	n/a	0	0	0
1113.08	n/a	PROB	556540	n/a	LTP310	ltpFR2	18	n/a	n/a	n/a	8	5	1	3	1
1114.868	n/a	PROB	557434	n/a	LTP310	ltpFR2	18	n/a	n/a	n/a	8	17	5	7	5
1116.42	n/a	PROB	558210	n/a	LTP310	ltpFR2	18	n/a	n/a	n/a	8	17	3	7	7
1117.756	n/a	PROB	558878	n/a	LTP310	ltpFR2	18	n/a	n/a	n/a	8	8	2	1	5
1118.94	n/a	PROB	559470	n/a	LTP310	ltpFR2	18	n/a	n/a	n/a	8	10	1	8	1
1120.39	n/a	PROB	560195	n/a	LTP310	ltpFR2	18	n/a	n/a	n/a	8	8	4	1	3
1121.876	n/a	PROB	560938	n/a	LTP310	ltpFR2	18	n/a	n/a	n/a	8	14	5	4	5
1123.342	n/a	PROB	561671	n/a	LTP310	ltpFR2	18	n/a	n/a	n/a	8	17	7	4	6
1126.294	n/a	PROB	563147	n/a	LTP310	ltpFR2	18	n/a	n/a	n/a	8	17	5	8	4
1127.962	n/a	PROB	563981	n/a	LTP310	ltpFR2	18	n/a	n/a	n/a	8	12	7	3	2
1129.098	n/a	PROB	564549	n/a	LTP310	ltpFR2	18	n/a	n/a	n/a	8	21	4	8	9
1131.082	n/a	PROB	565541	n/a	LTP310	ltpFR2	18	n/a	n/a	n/a	8	10	6	2	2
1132.814	n/a	PROB	566407	n/a	LTP310	ltpFR2	18	n/a	n/a	n/a	8	15	4	4	7
1136.068	n/a	STOP	568034	n/a	LTP310	ltpFR2	18	n/a	n/a	n/a	8	n/a	n/a	n/a	n/a
1137.868	n/a	REC_START	568934	n/a	LTP310	ltpFR2	18	5	n/a	n/a	n/a	n/a	0	0	0
1140.038	n/a	REC_WORD	570019	wordpools/wasnorm_wordpool_576.txt	LTP310	ltpFR2	18	5	BLACKBOARD	133	n/a	n/a	0	0	0
1141.006	n/a	REC_WORD	570503	wordpools/wasnorm_wordpool_576.txt	LTP310	ltpFR2	18	5	ATOM	55	n/a	n/a	0	0	0
1141.986	n/a	REC_WORD	570993	wordpools/wasnorm_wordpool_576.txt	LTP310	ltpFR2	18	5	SPOON	1357	n/a	n/a	0	0	0
1143.242	n/a	REC_WORD	571621	wordpools/wasnorm_wordpool_576.txt	LTP310	ltpFR2	18	5	WASHER	1592	n/a	n/a	0	0	0
1145.07	n/a	REC_WORD	572535	wordpools/wasnorm_wordpool_576.txt	LTP310	ltpFR2	18	5	HOOK	715	n/a	n/a	0	0	0
1145.934	n/a	REC_WORD	572967	wordpools/wasnorm_wordpool_576.txt	LTP310	ltpFR2	18	5	TABLE	1426	n/a	n/a	0	0	0
1146.978	n/a	REC_WORD	573489	wordpools/wasnorm_wordpool_576.txt	LTP310	ltpFR2	18	5	COURSE	390	n/a	n/a	0	0	0
1147.976	n/a	REC_WORD	573988	wordpools/wasnorm_wordpool_576.txt	LTP310	ltpFR2	18	5	CRICKET	408	n/a	n/a	0	0	0
1152.422	n/a	REC_WORD	576211	wordpools/wasnorm_wordpool_576.txt	LTP310	ltpFR2	18	5	RUST	1219	n/a	n/a	0	0	0
1155.068	n/a	REC_WORD	577534	wordpools/wasnorm_wordpool_576.txt	LTP310	ltpFR2	18	5	COCKTAIL	338	n/a	n/a	0	0	0
1156.244	n/a	REC_WORD	578122	wordpools/wasnorm_wordpool_576.txt	LTP310	ltpFR2	18	5	GUITAR	670	n/a	n/a	0	0	0
1157.922	n/a	REC_WORD	578961	wordpools/wasnorm_wordpool_576.txt	LTP310	ltpFR2	18	5	ANKLE	24	n/a	n/a	0	0	0
1158.94	n/a	REC_WORD	579470	wordpools/wasnorm_wordpool_576.txt	LTP310	ltpFR2	18	5	BALLOON	75	n/a	n/a	0	0	0
1228.324	n/a	WORD	614162	wordpools/wasnorm_wordpool_576.txt	LTP310	ltpFR2	18	6	JURY	766	n/a	n/a	0	0	0
1231.01	n/a	WORD	615505	wordpools/wasnorm_wordpool_576.txt	LTP310	ltpFR2	18	6	YOLK	1633	n/a	n/a	0	0	0
1233.428	n/a	WORD	616714	wordpools/wasnorm_wordpool_576.txt	LTP310	ltpFR2	18	6	CASHIER	254	n/a	n/a	0	0	0
1235.93	n/a	WORD	617965	wordpools/wasnorm_wordpool_576.txt	LTP310	ltpFR2	18	6	AWARD	63	n/a	n/a	0	0	0
1238.47	n/a	WORD	619235	wordpools/wasnorm_wordpool_576.txt	LTP310	ltpFR2	18	6	FIREMAN	569	n/a	n/a	0	0	0
1241.202	n/a	WORD	620601	wordpools/wasnorm_wordpool_576.txt	LTP310	ltpFR2	18	6	GARBAGE	622	n/a	n/a	0	0	0
1243.84	n/a	WORD	621920	wordpools/wasnorm_wordpool_576.txt	LTP310	ltpFR2	18	6	PIGMENT	1066	n/a	n/a	0	0	0
1246.638	n/a	WORD	623319	wordpools/wasnorm_wordpool_576.txt	LTP310	ltpFR2	18	6	COUSIN	392	n/a	n/a	0	0	0
1249.358	n/a	WORD	624679	wordpools/wasnorm_wordpool_576.txt	LTP310	ltpFR2	18	6	STOMACH	1384	n/a	n/a	0	0	0
1251.876	n/a	WORD	625938	wordpools/wasnorm_wordpool_576.txt	LTP310	ltpFR2	18	6	PLATE	1086	n/a	n/a	0	0	0
1254.428	n/a	WORD	627214	wordpools/wasnorm_wordpool_576.txt	LTP310	ltpFR2	18	6	SWITCH	1422	n/a	n/a	0	0	0
1257.164	n/a	WORD	628582	wordpools/wasnorm_wordpool_576.txt	LTP310	ltpFR2	18	6	DENTIST	447	n/a	n/a	0	0	0
1259.882	n/a	WORD	629941	wordpools/wasnorm_wordpool_576.txt	LTP310	ltpFR2	18	6	PEACH	1031	n/a	n/a	0	0	0
1262.486	n/a	WORD	631243	wordpools/wasnorm_wordpool_576.txt	LTP310	ltpFR2	18	6	SKILLET	1317	n/a	n/a	0	0	0
1265.192	n/a	WORD	632596	wordpools/wasnorm_wordpool_576.txt	LTP310	ltpFR2	18	6	SKIRT	1319	n/a	n/a	0	0	0
1267.872	n/a	WORD	633936	wordpools/wasnorm_wordpool_576.txt	LTP310	ltpFR2	18	6	SHORTS	1293	n/a	n/a	0	0	0
1270.33	n/a	WORD	635165	wordpools/wasnorm_wordpool_576.txt	LTP310	ltpFR2	18	6	CAPTIVE	240	n/a	n/a	0	0	0
1272.778	n/a	WORD	636389	wordpools/wasnorm_wordpool_576.txt	LTP310	ltpFR2	18	6	FLESH	579	n/a	n/a	0	0	0
1275.362	n/a	WORD	637681	wordpools/wasnorm_wordpool_576.txt	LTP310	ltpFR2	18	6	FIDDLE	561	n/a	n/a	0	0	0
1277.946	n/a	WORD	638973	wordpools/wasnorm_wordpool_576.txt	LTP310	ltpFR2	18	6	HAWK	692	n/a	n/a	0	0	0
1280.432	n/a	WORD	640216	wordpools/wasnorm_wordpool_576.txt	LTP310	ltpFR2	18	6	OUTFIT	988	n/a	n/a	0	0	0
1282.966	n/a	WORD	641483	wordpools/wasnorm_wordpool_576.txt	LTP310	ltpFR2	18	6	FRIAR	605	n/a	n/a	0	0	0
1285.77	n/a	WORD	642885	wordpools/wasnorm_wordpool_576.txt	LTP310	ltpFR2	18	6	PASTRY	1022	n/a	n/a	0	0	0
1288.572	n/a	WORD	644286	wordpools/wasnorm_wordpool_576.txt	LTP310	ltpFR2	18	6	CANDY	230	n/a	n/a	0	0	0
1290.182	n/a	START	645091	n/a	LTP310	ltpFR2	18	n/a	n/a	n/a	9	n/a	n/a	n/a	n/a
1291.124	n/a	DISTRACTOR	645562	n/a	LTP310	ltpFR2	18	6	n/a	n/a	n/a	n/a	0	0	0
1291.132	n/a	PROB	645566	n/a	LTP310	ltpFR2	18	n/a	n/a	n/a	9	18	3	6	9
1293.108	n/a	PROB	646554	n/a	LTP310	ltpFR2	18	n/a	n/a	n/a	9	3	1	1	1
1294.076	n/a	PROB	647038	n/a	LTP310	ltpFR2	18	n/a	n/a	n/a	9	9	7	1	1
1295.476	n/a	PROB	647738	n/a	LTP310	ltpFR2	18	n/a	n/a	n/a	9	11	3	1	7
1296.578	n/a	PROB	648289	n/a	LTP310	ltpFR2	18	n/a	n/a	n/a	9	9	1	4	4
1297.878	n/a	PROB	648939	n/a	LTP310	ltpFR2	18	n/a	n/a	n/a	9	13	1	8	4
1299.43	n/a	PROB	649715	n/a	LTP310	ltpFR2	18	n/a	n/a	n/a	9	14	1	6	7
1300.68	n/a	PROB	650340	n/a	LTP310	ltpFR2	18	n/a	n/a	n/a	9	13	5	5	3
1301.848	n/a	PROB	650924	n/a	LTP310	ltpFR2	18	n/a	n/a	n/a	9	17	8	7	2
1303.266	n/a	PROB	651633	n/a	LTP310	ltpFR2	18	n/a	n/a	n/a	9	27	9	9	9
1304.866	n/a	PROB	652433	n/a	LTP310	ltpFR2	18	n/a	n/a	n/a	9	18	9	6	3
1306.602	n/a	PROB	653301	n/a	LTP310	ltpFR2	18	n/a	n/a	n/a	9	17	8	7	2
1309.472	n/a	PROB	654736	n/a	LTP310	ltpFR2	18	n/a	n/a	n/a	9	10	7	1	2
1313.114	n/a	STOP	656557	n/a	LTP310	ltpFR2	18	n/a	n/a	n/a	9	n/a	n/a	n/a	n/a
1316.044	n/a	REC_START	658022	n/a	LTP310	ltpFR2	18	6	n/a	n/a	n/a	n/a	0	0	0
1321.438	n/a	REC_WORD	660719	wordpools/wasnorm_wordpool_576.txt	LTP310	ltpFR2	18	6	HAWK	692	n/a	n/a	0	0	0
1323.132	n/a	REC_WORD	661566	wordpools/wasnorm_wordpool_576.txt	LTP310	ltpFR2	18	6	FIDDLE	561	n/a	n/a	0	0	0
1324.8	n/a	REC_WORD	662400	wordpools/wasnorm_wordpool_576.txt	LTP310	ltpFR2	18	6	FRIAR	605	n/a	n/a	0	0	0
1327.336	n/a	REC_WORD	663668	wordpools/wasnorm_wordpool_576.txt	LTP310	ltpFR2	18	6	PASTRY	1022	n/a	n/a	0	0	0
1328.336	n/a	REC_WORD_VV	664168	wordpools/wasnorm_wordpool_576.txt	LTP310	ltpFR2	18	6	<>	-1	n/a	n/a	0	0	0
1329.26	n/a	REC_WORD	664630	wordpools/wasnorm_wordpool_576.txt	LTP310	ltpFR2	18	6	OUTFIT	988	n/a	n/a	0	0	0
1330.522	n/a	REC_WORD	665261	wordpools/wasnorm_wordpool_576.txt	LTP310	ltpFR2	18	6	CANDY	230	n/a	n/a	0	0	0
1406.498	n/a	DISTRACTOR	703249	n/a	LTP310	ltpFR2	18	7	n/a	n/a	n/a	n/a	0	0	0
1406.498	n/a	START	703249	n/a	LTP310	ltpFR2	18	n/a	n/a	n/a	10	n/a	n/a	n/a	n/a
1406.514	n/a	PROB	703257	n/a	LTP310	ltpFR2	18	n/a	n/a	n/a	10	10	7	1	2
1408.248	n/a	PROB	704124	n/a	LTP310	ltpFR2	18	n/a	n/a	n/a	10	11	7	1	3
1409.632	n/a	PROB	704816	n/a	LTP310	ltpFR2	18	n/a	n/a	n/a	10	15	3	6	6
1412.568	n/a	PROB	706284	n/a	LTP310	ltpFR2	18	n/a	n/a	n/a	10	20	4	9	7
1414.218	n/a	PROB	707109	n/a	LTP310	ltpFR2	18	n/a	n/a	n/a	10	13	3	1	9
1415.47	n/a	PROB	707735	n/a	LTP310	ltpFR2	18	n/a	n/a	n/a	10	12	6	2	4
1416.654	n/a	PROB	708327	n/a	LTP310	ltpFR2	18	n/a	n/a	n/a	10	12	1	8	3
1421.306	n/a	PROB	710653	n/a	LTP310	ltpFR2	18	n/a	n/a	n/a	10	18	4	7	7
1422.692	n/a	PROB	711346	n/a	LTP310	ltpFR2	18	n/a	n/a	n/a	10	12	4	7	1
1424.644	n/a	PROB	712322	n/a	LTP310	ltpFR2	18	n/a	n/a	n/a	10	16	2	6	8
1426.18	n/a	PROB	713090	n/a	LTP310	ltpFR2	18	n/a	n/a	n/a	10	15	7	1	7
1427.828	n/a	PROB	713914	n/a	LTP310	ltpFR2	18	n/a	n/a	n/a	10	18	4	6	8
1428.988	n/a	STOP	714494	n/a	LTP310	ltpFR2	18	n/a	n/a	n/a	10	n/a	n/a	n/a	n/a
1431.516	n/a	WORD	715758	wordpools/wasnorm_wordpool_576.txt	LTP310	ltpFR2	18	7	KNAPSACK	783	n/a	n/a	0	0	0
1434.236	n/a	WORD	717118	wordpools/wasnorm_wordpool_576.txt	LTP310	ltpFR2	18	7	POSSUM	1112	n/a	n/a	0	0	0
1436.87	n/a	WORD	718435	wordpools/wasnorm_wordpool_576.txt	LTP310	ltpFR2	18	7	BISON	131	n/a	n/a	0	0	0
1439.39	n/a	WORD	719695	wordpools/wasnorm_wordpool_576.txt	LTP310	ltpFR2	18	7	BREAST	171	n/a	n/a	0	0	0
1441.976	n/a	WORD	720988	wordpools/wasnorm_wordpool_576.txt	LTP310	ltpFR2	18	7	ROOSTER	1209	n/a	n/a	0	0	0
1444.728	n/a	WORD	722364	wordpools/wasnorm_wordpool_576.txt	LTP310	ltpFR2	18	7	TUBA	1515	n/a	n/a	0	0	0
1447.396	n/a	WORD	723698	wordpools/wasnorm_wordpool_576.txt	LTP310	ltpFR2	18	7	BROOK	177	n/a	n/a	0	0	0
1450.098	n/a	WORD	725049	wordpools/wasnorm_wordpool_576.txt	LTP310	ltpFR2	18	7	LETTUCE	814	n/a	n/a	0	0	0
1452.9	n/a	WORD	726450	wordpools/wasnorm_wordpool_576.txt	LTP310	ltpFR2	18	7	STATUE	1374	n/a	n/a	0	0	0
1455.552	n/a	WORD	727776	wordpools/wasnorm_wordpool_576.txt	LTP310	ltpFR2	18	7	SEAGULL	1261	n/a	n/a	0	0	0
1458.12	n/a	WORD	729060	wordpools/wasnorm_wordpool_576.txt	LTP310	ltpFR2	18	7	HANDBAG	684	n/a	n/a	0	0	0
1460.606	n/a	WORD	730303	wordpools/wasnorm_wordpool_576.txt	LTP310	ltpFR2	18	7	BUGGY	188	n/a	n/a	0	0	0
1463.142	n/a	WORD	731571	wordpools/wasnorm_wordpool_576.txt	LTP310	ltpFR2	18	7	SHORTCAKE	1292	n/a	n/a	0	0	0
1465.892	n/a	WORD	732946	wordpools/wasnorm_wordpool_576.txt	LTP310	ltpFR2	18	7	TOASTER	1472	n/a	n/a	0	0	0
1468.348	n/a	WORD	734174	wordpools/wasnorm_wordpool_576.txt	LTP310	ltpFR2	18	7	NURSE	963	n/a	n/a	0	0	0
1471.03	n/a	WORD	735515	wordpools/wasnorm_wordpool_576.txt	LTP310	ltpFR2	18	7	CRAB	397	n/a	n/a	0	0	0
1473.466	n/a	WORD	736733	wordpools/wasnorm_wordpool_576.txt	LTP310	ltpFR2	18	7	DRILL	497	n/a	n/a	0	0	0
1476.172	n/a	WORD	738086	wordpools/wasnorm_wordpool_576.txt	LTP310	ltpFR2	18	7	MEDAL	885	n/a	n/a	0	0	0
1478.82	n/a	WORD	739410	wordpools/wasnorm_wordpool_576.txt	LTP310	ltpFR2	18	7	APPLE	33	n/a	n/a	0	0	0
1481.306	n/a	WORD	740653	wordpools/wasnorm_wordpool_576.txt	LTP310	ltpFR2	18	7	LAMP	798	n/a	n/a	0	0	0
1484.012	n/a	WORD	742006	wordpools/wasnorm_wordpool_576.txt	LTP310	ltpFR2	18	7	SNAIL	1332	n/a	n/a	0	0	0
1486.642	n/a	WORD	743321	wordpools/wasnorm_wordpool_576.txt	LTP310	ltpFR2	18	7	NECKLACE	940	n/a	n/a	0	0	0
1489.084	n/a	WORD	744542	wordpools/wasnorm_wordpool_576.txt	LTP310	ltpFR2	18	7	FLEET	578	n/a	n/a	0	0	0
1491.514	n/a	WORD	745757	wordpools/wasnorm_wordpool_576.txt	LTP310	ltpFR2	18	7	GUARD	667	n/a	n/a	0	0	0
1493.12	n/a	START	746560	n/a	LTP310	ltpFR2	18	n/a	n/a	n/a	11	n/a	n/a	n/a	n/a
1494.248	n/a	DISTRACTOR	747124	n/a	LTP310	ltpFR2	18	7	n/a	n/a	n/a	n/a	0	0	0
1494.254	n/a	PROB	747127	n/a	LTP310	ltpFR2	18	n/a	n/a	n/a	11	8	3	4	1
1496.518	n/a	PROB	748259	n/a	LTP310	ltpFR2	18	n/a	n/a	n/a	11	14	3	5	6
1498.216	n/a	PROB	749108	n/a	LTP310	ltpFR2	18	n/a	n/a	n/a	11	16	3	4	9
1499.72	n/a	PROB	749860	n/a	LTP310	ltpFR2	18	n/a	n/a	n/a	11	14	5	1	8
1501.086	n/a	PROB	750543	n/a	LTP310	ltpFR2	18	n/a	n/a	n/a	11	18	5	5	8
1503.47	n/a	PROB	751735	n/a	LTP310	ltpFR2	18	n/a	n/a	n/a	11	13	2	9	2
1505.64	n/a	PROB	752820	n/a	LTP310	ltpFR2	18	n/a	n/a	n/a	11	21	9	4	8
1507.56	n/a	PROB	753780	n/a	LTP310	ltpFR2	18	n/a	n/a	n/a	11	15	6	8	5
1509.042	n/a	PROB	754521	n/a	LTP310	ltpFR2	18	n/a	n/a	n/a	11	9	6	2	1
1510.56	n/a	PROB	755280	n/a	LTP310	ltpFR2	18	n/a	n/a	n/a	11	19	3	9	7
1512.162	n/a	PROB	756081	n/a	LTP310	ltpFR2	18	n/a	n/a	n/a	11	19	8	7	4
1513.896	n/a	PROB	756948	n/a	LTP310	ltpFR2	18	n/a	n/a	n/a	11	11	1	5	5
1515.132	n/a	PROB	757566	n/a	LTP310	ltpFR2	18	n/a	n/a	n/a	11	17	1	9	7
1516.526	n/a	STOP	758263	n/a	LTP310	ltpFR2	18	n/a	n/a	n/a	11	n/a	n/a	n/a	n/a
1518.902	n/a	REC_START	759451	n/a	LTP310	ltpFR2	18	7	n/a	n/a	n/a	n/a	0	0	0
1527.544	n/a	REC_WORD	763772	wordpools/wasnorm_wordpool_576.txt	LTP310	ltpFR2	18	7	POSSUM	1112	n/a	n/a	0	0	0
1528.626	n/a	REC_WORD	764313	wordpools/wasnorm_wordpool_576.txt	LTP310	ltpFR2	18	7	KNAPSACK	783	n/a	n/a	0	0	0
1529.626	n/a	REC_WORD_VV	764813	wordpools/wasnorm_wordpool_576.txt	LTP310	ltpFR2	18	7	<>	-1	n/a	n/a	0	0	0
1531.57	n/a	REC_WORD	765785	wordpools/wasnorm_wordpool_576.txt	LTP310	ltpFR2	18	7	BISON	131	n/a	n/a	0	0	0
1533.696	n/a	REC_WORD	766848	wordpools/wasnorm_wordpool_576.txt	LTP310	ltpFR2	18	7	ROOSTER	1209	n/a	n/a	0	0	0
1537.258	n/a	REC_WORD	768629	wordpools/wasnorm_wordpool_576.txt	LTP310	ltpFR2	18	7	BREAST	171	n/a	n/a	0	0	0
1538.202	n/a	REC_WORD	769101	wordpools/wasnorm_wordpool_576.txt	LTP310	ltpFR2	18	7	MEDAL	885	n/a	n/a	0	0	0
1542.154	n/a	REC_WORD	771077	wordpools/wasnorm_wordpool_576.txt	LTP310	ltpFR2	18	7	TUBA	1515	n/a	n/a	0	0	0
1544.162	n/a	REC_WORD	772081	wordpools/wasnorm_wordpool_576.txt	LTP310	ltpFR2	18	7	BROOK	177	n/a	n/a	0	0	0
1544.906	n/a	REC_WORD	772453	wordpools/wasnorm_wordpool_576.txt	LTP310	ltpFR2	18	7	LETTUCE	814	n/a	n/a	0	0	0
1545.67	n/a	REC_WORD	772835	wordpools/wasnorm_wordpool_576.txt	LTP310	ltpFR2	18	7	STATUE	1374	n/a	n/a	0	0	0
1546.89	n/a	REC_WORD	773445	wordpools/wasnorm_wordpool_576.txt	LTP310	ltpFR2	18	7	SEAGULL	1261	n/a	n/a	0	0	0
1547.916	n/a	REC_WORD	773958	wordpools/wasnorm_wordpool_576.txt	LTP310	ltpFR2	18	7	HANDBAG	684	n/a	n/a	0	0	0
1561.982	n/a	REC_WORD	780991	wordpools/wasnorm_wordpool_576.txt	LTP310	ltpFR2	18	7	CRAB	397	n/a	n/a	0	0	0
1563.6	n/a	REC_WORD	781800	wordpools/wasnorm_wordpool_576.txt	LTP310	ltpFR2	18	7	NURSE	963	n/a	n/a	0	0	0
1566.938	n/a	REC_WORD	783469	wordpools/wasnorm_wordpool_576.txt	LTP310	ltpFR2	18	7	DRILL	497	n/a	n/a	0	0	0
1568.088	n/a	REC_WORD	784044	wordpools/wasnorm_wordpool_576.txt	LTP310	ltpFR2	18	7	APPLE	33	n/a	n/a	0	0	0
1569.152	n/a	REC_WORD	784576	wordpools/wasnorm_wordpool_576.txt	LTP310	ltpFR2	18	7	LAMP	798	n/a	n/a	0	0	0
1571.172	n/a	REC_WORD	785586	wordpools/wasnorm_wordpool_576.txt	LTP310	ltpFR2	18	7	NECKLACE	940	n/a	n/a	0	0	0
1572.092	n/a	REC_WORD	786046	wordpools/wasnorm_wordpool_576.txt	LTP310	ltpFR2	18	7	SNAIL	1332	n/a	n/a	0	0	0
1572.998	n/a	REC_WORD	786499	wordpools/wasnorm_wordpool_576.txt	LTP310	ltpFR2	18	7	FLEET	578	n/a	n/a	0	0	0
1574.516	n/a	REC_WORD	787258	wordpools/wasnorm_wordpool_576.txt	LTP310	ltpFR2	18	7	GUARD	667	n/a	n/a	0	0	0
1609.338	n/a	WORD	804669	wordpools/wasnorm_wordpool_576.txt	LTP310	ltpFR2	18	8	PLAID	1080	n/a	n/a	0	0	0
1611.986	n/a	WORD	805993	wordpools/wasnorm_wordpool_576.txt	LTP310	ltpFR2	18	8	SCRIBBLE	1256	n/a	n/a	0	0	0
1614.756	n/a	WORD	807378	wordpools/wasnorm_wordpool_576.txt	LTP310	ltpFR2	18	8	SMOG	1330	n/a	n/a	0	0	0
1617.542	n/a	WORD	808771	wordpools/wasnorm_wordpool_576.txt	LTP310	ltpFR2	18	8	BUNNY	198	n/a	n/a	0	0	0
1620.064	n/a	WORD	810032	wordpools/wasnorm_wordpool_576.txt	LTP310	ltpFR2	18	8	CARROT	249	n/a	n/a	0	0	0
1622.696	n/a	WORD	811348	wordpools/wasnorm_wordpool_576.txt	LTP310	ltpFR2	18	8	HONEY	713	n/a	n/a	0	0	0
1625.332	n/a	WORD	812666	wordpools/wasnorm_wordpool_576.txt	LTP310	ltpFR2	18	8	DENIM	446	n/a	n/a	0	0	0
1628.018	n/a	WORD	814009	wordpools/wasnorm_wordpool_576.txt	LTP310	ltpFR2	18	8	DORM	488	n/a	n/a	0	0	0
1630.436	n/a	WORD	815218	wordpools/wasnorm_wordpool_576.txt	LTP310	ltpFR2	18	8	DUST	508	n/a	n/a	0	0	0
1632.972	n/a	WORD	816486	wordpools/wasnorm_wordpool_576.txt	LTP310	ltpFR2	18	8	PARROT	1015	n/a	n/a	0	0	0
1635.574	n/a	WORD	817787	wordpools/wasnorm_wordpool_576.txt	LTP310	ltpFR2	18	8	POSTAGE	1113	n/a	n/a	0	0	0
1638.224	n/a	WORD	819112	wordpools/wasnorm_wordpool_576.txt	LTP310	ltpFR2	18	8	COOK	372	n/a	n/a	0	0	0
1641.028	n/a	WORD	820514	wordpools/wasnorm_wordpool_576.txt	LTP310	ltpFR2	18	8	BURGLAR	200	n/a	n/a	0	0	0
1643.848	n/a	WORD	821924	wordpools/wasnorm_wordpool_576.txt	LTP310	ltpFR2	18	8	GALLON	618	n/a	n/a	0	0	0
1646.366	n/a	WORD	823183	wordpools/wasnorm_wordpool_576.txt	LTP310	ltpFR2	18	8	JELLY	755	n/a	n/a	0	0	0
1649.05	n/a	WORD	824525	wordpools/wasnorm_wordpool_576.txt	LTP310	ltpFR2	18	8	BOX	159	n/a	n/a	0	0	0
1651.72	n/a	WORD	825860	wordpools/wasnorm_wordpool_576.txt	LTP310	ltpFR2	18	8	COFFEE	341	n/a	n/a	0	0	0
1654.506	n/a	WORD	827253	wordpools/wasnorm_wordpool_576.txt	LTP310	ltpFR2	18	8	PATIENT	1024	n/a	n/a	0	0	0
1657.276	n/a	WORD	828638	wordpools/wasnorm_wordpool_576.txt	LTP310	ltpFR2	18	8	CHEMIST	292	n/a	n/a	0	0	0
1659.78	n/a	WORD	829890	wordpools/wasnorm_wordpool_576.txt	LTP310	ltpFR2	18	8	EAGLE	512	n/a	n/a	0	0	0
1662.38	n/a	WORD	831190	wordpools/wasnorm_wordpool_576.txt	LTP310	ltpFR2	18	8	POCKET	1093	n/a	n/a	0	0	0
1664.882	n/a	WORD	832441	wordpools/wasnorm_wordpool_576.txt	LTP310	ltpFR2	18	8	TRIBE	1505	n/a	n/a	0	0	0
1667.618	n/a	WORD	833809	wordpools/wasnorm_wordpool_576.txt	LTP310	ltpFR2	18	8	COWBOY	395	n/a	n/a	0	0	0
1670.402	n/a	WORD	835201	wordpools/wasnorm_wordpool_576.txt	LTP310	ltpFR2	18	8	STAPLE	1371	n/a	n/a	0	0	0
1672.022	n/a	START	836011	n/a	LTP310	ltpFR2	18	n/a	n/a	n/a	12	n/a	n/a	n/a	n/a
1672.824	n/a	DISTRACTOR	836412	n/a	LTP310	ltpFR2	18	8	n/a	n/a	n/a	n/a	0	0	0
1672.838	n/a	PROB	836419	n/a	LTP310	ltpFR2	18	n/a	n/a	n/a	12	16	7	1	8
1674.588	n/a	PROB	837294	n/a	LTP310	ltpFR2	18	n/a	n/a	n/a	12	12	5	3	4
1676.04	n/a	PROB	838020	n/a	LTP310	ltpFR2	18	n/a	n/a	n/a	12	22	9	8	5
1677.908	n/a	PROB	838954	n/a	LTP310	ltpFR2	18	n/a	n/a	n/a	12	8	4	1	3
1679.826	n/a	PROB	839913	n/a	LTP310	ltpFR2	18	n/a	n/a	n/a	12	23	8	7	8
1681.844	n/a	PROB	840922	n/a	LTP310	ltpFR2	18	n/a	n/a	n/a	12	15	5	7	3
1683.33	n/a	PROB	841665	n/a	LTP310	ltpFR2	18	n/a	n/a	n/a	12	6	2	2	4
1684.646	n/a	PROB	842323	n/a	LTP310	ltpFR2	18	n/a	n/a	n/a	12	11	3	6	2
1688.366	n/a	PROB	844183	n/a	LTP310	ltpFR2	18	n/a	n/a	n/a	12	12	2	8	2
1689.7	n/a	PROB	844850	n/a	LTP310	ltpFR2	18	n/a	n/a	n/a	12	22	8	6	8
1691.452	n/a	PROB	845726	n/a	LTP310	ltpFR2	18	n/a	n/a	n/a	12	17	7	9	1
1693.136	n/a	PROB	846568	n/a	LTP310	ltpFR2	18	n/a	n/a	n/a	12	18	7	4	7
1695.944	n/a	STOP	847972	n/a	LTP310	ltpFR2	18	n/a	n/a	n/a	12	n/a	n/a	n/a	n/a
1697.926	n/a	REC_START	848963	n/a	LTP310	ltpFR2	18	8	n/a	n/a	n/a	n/a	0	0	0
1712.664	n/a	REC_WORD	856332	wordpools/wasnorm_wordpool_576.txt	LTP310	ltpFR2	18	8	CHEMIST	292	n/a	n/a	0	0	0
1713.82	n/a	REC_WORD	856910	wordpools/wasnorm_wordpool_576.txt	LTP310	ltpFR2	18	8	EAGLE	512	n/a	n/a	0	0	0
1715.392	n/a	REC_WORD	857696	wordpools/wasnorm_wordpool_576.txt	LTP310	ltpFR2	18	8	POCKET	1093	n/a	n/a	0	0	0
1716.96	n/a	REC_WORD	858480	wordpools/wasnorm_wordpool_576.txt	LTP310	ltpFR2	18	8	TRIBE	1505	n/a	n/a	0	0	0
1718.124	n/a	REC_WORD	859062	wordpools/wasnorm_wordpool_576.txt	LTP310	ltpFR2	18	8	COWBOY	395	n/a	n/a	0	0	0
1719.644	n/a	REC_WORD	859822	wordpools/wasnorm_wordpool_576.txt	LTP310	ltpFR2	18	8	STAPLE	1371	n/a	n/a	0	0	0
1720.644	n/a	REC_WORD_VV	860322	wordpools/wasnorm_wordpool_576.txt	LTP310	ltpFR2	18	8	<>	-1	n/a	n/a	0	0	0
1774.45	n/a	REST_REWET	887225	n/a	LTP310	ltpFR2	18	8	n/a	n/a	n/a	n/a	0	0	0
2076.482	n/a	DISTRACTOR	1038241	n/a	LTP310	ltpFR2	18	9	n/a	n/a	n/a	n/a	0	0	0
2076.482	n/a	START	1038241	n/a	LTP310	ltpFR2	18	n/a	n/a	n/a	13	n/a	n/a	n/a	n/a
2076.496	n/a	PROB	1038248	n/a	LTP310	ltpFR2	18	n/a	n/a	n/a	13	12	2	4	6
2077.854	n/a	PROB	1038927	n/a	LTP310	ltpFR2	18	n/a	n/a	n/a	13	16	4	3	9
2079.438	n/a	PROB	1039719	n/a	LTP310	ltpFR2	18	n/a	n/a	n/a	13	10	1	8	1
2080.64	n/a	PROB	1040320	n/a	LTP310	ltpFR2	18	n/a	n/a	n/a	13	6	1	1	4
2081.856	n/a	PROB	1040928	n/a	LTP310	ltpFR2	18	n/a	n/a	n/a	13	13	2	2	9
2083.342	n/a	PROB	1041671	n/a	LTP310	ltpFR2	18	n/a	n/a	n/a	13	12	8	2	2
2084.458	n/a	PROB	1042229	n/a	LTP310	ltpFR2	18	n/a	n/a	n/a	13	15	5	6	4
2085.91	n/a	PROB	1042955	n/a	LTP310	ltpFR2	18	n/a	n/a	n/a	13	16	1	8	7
2087.628	n/a	PROB	1043814	n/a	LTP310	ltpFR2	18	n/a	n/a	n/a	13	10	8	9	3
2090.044	n/a	PROB	1045022	n/a	LTP310	ltpFR2	18	n/a	n/a	n/a	13	24	6	9	5
2092.848	n/a	PROB	1046424	n/a	LTP310	ltpFR2	18	n/a	n/a	n/a	13	15	6	5	4
2095.08	n/a	PROB	1047540	n/a	LTP310	ltpFR2	18	n/a	n/a	n/a	13	25	8	8	9
2097.054	n/a	PROB	1048527	n/a	LTP310	ltpFR2	18	n/a	n/a	n/a	13	12	3	1	8
2098.65	n/a	PROB	1049325	n/a	LTP310	ltpFR2	18	n/a	n/a	n/a	13	18	8	8	2
2099.984	n/a	STOP	1049992	n/a	LTP310	ltpFR2	18	n/a	n/a	n/a	13	n/a	n/a	n/a	n/a
2101.604	n/a	WORD	1050802	wordpools/wasnorm_wordpool_576.txt	LTP310	ltpFR2	18	9	TEACHER	1440	n/a	n/a	0	0	0
2104.038	n/a	WORD	1052019	wordpools/wasnorm_wordpool_576.txt	LTP310	ltpFR2	18	9	SLIME	1327	n/a	n/a	0	0	0
2106.506	n/a	WORD	1053253	wordpools/wasnorm_wordpool_576.txt	LTP310	ltpFR2	18	9	BODY	145	n/a	n/a	0	0	0
2109.26	n/a	WORD	1054630	wordpools/wasnorm_wordpool_576.txt	LTP310	ltpFR2	18	9	SUPPER	1411	n/a	n/a	0	0	0
2111.912	n/a	WORD	1055956	wordpools/wasnorm_wordpool_576.txt	LTP310	ltpFR2	18	9	TREAT	1501	n/a	n/a	0	0	0
2114.512	n/a	WORD	1057256	wordpools/wasnorm_wordpool_576.txt	LTP310	ltpFR2	18	9	VALVE	1546	n/a	n/a	0	0	0
2117.182	n/a	WORD	1058591	wordpools/wasnorm_wordpool_576.txt	LTP310	ltpFR2	18	9	LEG	809	n/a	n/a	0	0	0
2119.8	n/a	WORD	1059900	wordpools/wasnorm_wordpool_576.txt	LTP310	ltpFR2	18	9	CABBAGE	210	n/a	n/a	0	0	0
2122.586	n/a	WORD	1061293	wordpools/wasnorm_wordpool_576.txt	LTP310	ltpFR2	18	9	RIVER	1194	n/a	n/a	0	0	0
2125.122	n/a	WORD	1062561	wordpools/wasnorm_wordpool_576.txt	LTP310	ltpFR2	18	9	LILY	821	n/a	n/a	0	0	0
2127.776	n/a	WORD	1063888	wordpools/wasnorm_wordpool_576.txt	LTP310	ltpFR2	18	9	SALAD	1224	n/a	n/a	0	0	0
2130.26	n/a	WORD	1065130	wordpools/wasnorm_wordpool_576.txt	LTP310	ltpFR2	18	9	JUGGLER	763	n/a	n/a	0	0	0
2132.812	n/a	WORD	1066406	wordpools/wasnorm_wordpool_576.txt	LTP310	ltpFR2	18	9	ACTOR	5	n/a	n/a	0	0	0
2135.532	n/a	WORD	1067766	wordpools/wasnorm_wordpool_576.txt	LTP310	ltpFR2	18	9	JOURNAL	760	n/a	n/a	0	0	0
2138.05	n/a	WORD	1069025	wordpools/wasnorm_wordpool_576.txt	LTP310	ltpFR2	18	9	AUTHOR	61	n/a	n/a	0	0	0
2140.82	n/a	WORD	1070410	wordpools/wasnorm_wordpool_576.txt	LTP310	ltpFR2	18	9	SCISSORS	1250	n/a	n/a	0	0	0
2143.572	n/a	WORD	1071786	wordpools/wasnorm_wordpool_576.txt	LTP310	ltpFR2	18	9	MARROW	872	n/a	n/a	0	0	0
2146.04	n/a	WORD	1073020	wordpools/wasnorm_wordpool_576.txt	LTP310	ltpFR2	18	9	BLENDER	136	n/a	n/a	0	0	0
2148.594	n/a	WORD	1074297	wordpools/wasnorm_wordpool_576.txt	LTP310	ltpFR2	18	9	SUNSET	1408	n/a	n/a	0	0	0
2151.246	n/a	WORD	1075623	wordpools/wasnorm_wordpool_576.txt	LTP310	ltpFR2	18	9	LIZARD	834	n/a	n/a	0	0	0
2153.898	n/a	WORD	1076949	wordpools/wasnorm_wordpool_576.txt	LTP310	ltpFR2	18	9	FLASHLIGHT	575	n/a	n/a	0	0	0
2156.65	n/a	WORD	1078325	wordpools/wasnorm_wordpool_576.txt	LTP310	ltpFR2	18	9	MARKET	871	n/a	n/a	0	0	0
2159.316	n/a	WORD	1079658	wordpools/wasnorm_wordpool_576.txt	LTP310	ltpFR2	18	9	DINER	467	n/a	n/a	0	0	0
2162.054	n/a	WORD	1081027	wordpools/wasnorm_wordpool_576.txt	LTP310	ltpFR2	18	9	SUNRISE	1407	n/a	n/a	0	0	0
2163.672	n/a	START	1081836	n/a	LTP310	ltpFR2	18	n/a	n/a	n/a	14	n/a	n/a	n/a	n/a
2164.67	n/a	DISTRACTOR	1082335	n/a	LTP310	ltpFR2	18	9	n/a	n/a	n/a	n/a	0	0	0
2164.688	n/a	PROB	1082344	n/a	LTP310	ltpFR2	18	n/a	n/a	n/a	14	9	4	3	2
2168.324	n/a	PROB	1084162	n/a	LTP310	ltpFR2	18	n/a	n/a	n/a	14	20	8	5	7
2169.874	n/a	PROB	1084937	n/a	LTP310	ltpFR2	18	n/a	n/a	n/a	14	16	1	8	7
2171.41	n/a	PROB	1085705	n/a	LTP310	ltpFR2	18	n/a	n/a	n/a	14	8	1	3	4
2172.96	n/a	PROB	1086480	n/a	LTP310	ltpFR2	18	n/a	n/a	n/a	14	18	6	6	6
2174.894	n/a	PROB	1087447	n/a	LTP310	ltpFR2	18	n/a	n/a	n/a	14	15	9	2	4
2176.848	n/a	PROB	1088424	n/a	LTP310	ltpFR2	18	n/a	n/a	n/a	14	13	9	1	3
2178.448	n/a	PROB	1089224	n/a	LTP310	ltpFR2	18	n/a	n/a	n/a	14	17	6	7	4
2179.95	n/a	PROB	1089975	n/a	LTP310	ltpFR2	18	n/a	n/a	n/a	14	13	7	3	3
2181.452	n/a	PROB	1090726	n/a	LTP310	ltpFR2	18	n/a	n/a	n/a	14	7	3	3	1
2182.968	n/a	PROB	1091484	n/a	LTP310	ltpFR2	18	n/a	n/a	n/a	14	17	7	1	9
2184.754	n/a	PROB	1092377	n/a	LTP310	ltpFR2	18	n/a	n/a	n/a	14	15	9	1	5
2187.672	n/a	STOP	1093836	n/a	LTP310	ltpFR2	18	n/a	n/a	n/a	14	n/a	n/a	n/a	n/a
2189.506	n/a	REC_START	1094753	n/a	LTP310	ltpFR2	18	9	n/a	n/a	n/a	n/a	0	0	0
2195.472	n/a	REC_WORD	1097736	wordpools/wasnorm_wordpool_576.txt	LTP310	ltpFR2	18	9	TEACHER	1440	n/a	n/a	0	0	0
2196.592	n/a	REC_WORD	1098296	wordpools/wasnorm_wordpool_576.txt	LTP310	ltpFR2	18	9	BODY	145	n/a	n/a	0	0	0
2197.778	n/a	REC_WORD	1098889	wordpools/wasnorm_wordpool_576.txt	LTP310	ltpFR2	18	9	SLIME	1327	n/a	n/a	0	0	0
2279.944	n/a	WORD	1139972	wordpools/wasnorm_wordpool_576.txt	LTP310	ltpFR2	18	10	JEANS	752	n/a	n/a	0	0	0
2282.44	n/a	WORD	1141220	wordpools/wasnorm_wordpool_576.txt	LTP310	ltpFR2	18	10	PANTHER	1009	n/a	n/a	0	0	0
2285.008	n/a	WORD	1142504	wordpools/wasnorm_wordpool_576.txt	LTP310	ltpFR2	18	10	STUDENT	1395	n/a	n/a	0	0	0
2287.468	n/a	WORD	1143734	wordpools/wasnorm_wordpool_576.txt	LTP310	ltpFR2	18	10	FOOT	590	n/a	n/a	0	0	0
2290.046	n/a	WORD	1145023	wordpools/wasnorm_wordpool_576.txt	LTP310	ltpFR2	18	10	STAMP	1370	n/a	n/a	0	0	0
2292.782	n/a	WORD	1146391	wordpools/wasnorm_wordpool_576.txt	LTP310	ltpFR2	18	10	MAILMAN	858	n/a	n/a	0	0	0
2295.332	n/a	WORD	1147666	wordpools/wasnorm_wordpool_576.txt	LTP310	ltpFR2	18	10	PISTON	1076	n/a	n/a	0	0	0
2297.902	n/a	WORD	1148951	wordpools/wasnorm_wordpool_576.txt	LTP310	ltpFR2	18	10	KNIFE	785	n/a	n/a	0	0	0
2300.422	n/a	WORD	1150211	wordpools/wasnorm_wordpool_576.txt	LTP310	ltpFR2	18	10	MAILBOX	857	n/a	n/a	0	0	0
2302.94	n/a	WORD	1151470	wordpools/wasnorm_wordpool_576.txt	LTP310	ltpFR2	18	10	MESSAGE	888	n/a	n/a	0	0	0
2305.75	n/a	WORD	1152875	wordpools/wasnorm_wordpool_576.txt	LTP310	ltpFR2	18	10	TRENCH	1503	n/a	n/a	0	0	0
2308.178	n/a	WORD	1154089	wordpools/wasnorm_wordpool_576.txt	LTP310	ltpFR2	18	10	BATHTUB	100	n/a	n/a	0	0	0
2310.63	n/a	WORD	1155315	wordpools/wasnorm_wordpool_576.txt	LTP310	ltpFR2	18	10	PIANO	1057	n/a	n/a	0	0	0
2313.172	n/a	WORD	1156586	wordpools/wasnorm_wordpool_576.txt	LTP310	ltpFR2	18	10	ELBOW	520	n/a	n/a	0	0	0
2315.9	n/a	WORD	1157950	wordpools/wasnorm_wordpool_576.txt	LTP310	ltpFR2	18	10	TORTOISE	1486	n/a	n/a	0	0	0
2318.488	n/a	WORD	1159244	wordpools/wasnorm_wordpool_576.txt	LTP310	ltpFR2	18	10	NEUTRON	947	n/a	n/a	0	0	0
2320.988	n/a	WORD	1160494	wordpools/wasnorm_wordpool_576.txt	LTP310	ltpFR2	18	10	SCALPEL	1243	n/a	n/a	0	0	0
2323.564	n/a	WORD	1161782	wordpools/wasnorm_wordpool_576.txt	LTP310	ltpFR2	18	10	OMELET	976	n/a	n/a	0	0	0
2326.128	n/a	WORD	1163064	wordpools/wasnorm_wordpool_576.txt	LTP310	ltpFR2	18	10	LADDER	793	n/a	n/a	0	0	0
2328.684	n/a	WORD	1164342	wordpools/wasnorm_wordpool_576.txt	LTP310	ltpFR2	18	10	CABIN	211	n/a	n/a	0	0	0
2331.198	n/a	WORD	1165599	wordpools/wasnorm_wordpool_576.txt	LTP310	ltpFR2	18	10	PEANUT	1032	n/a	n/a	0	0	0
2333.704	n/a	WORD	1166852	wordpools/wasnorm_wordpool_576.txt	LTP310	ltpFR2	18	10	BACON	67	n/a	n/a	0	0	0
2336.172	n/a	WORD	1168086	wordpools/wasnorm_wordpool_576.txt	LTP310	ltpFR2	18	10	SWAMP	1416	n/a	n/a	0	0	0
2338.742	n/a	WORD	1169371	wordpools/wasnorm_wordpool_576.txt	LTP310	ltpFR2	18	10	SHOULDER	1294	n/a	n/a	0	0	0
2340.356	n/a	START	1170178	n/a	LTP310	ltpFR2	18	n/a	n/a	n/a	15	n/a	n/a	n/a	n/a
2341.256	n/a	DISTRACTOR	1170628	n/a	LTP310	ltpFR2	18	10	n/a	n/a	n/a	n/a	0	0	0
2341.272	n/a	PROB	1170636	n/a	LTP310	ltpFR2	18	n/a	n/a	n/a	15	12	8	1	3
2343.44	n/a	PROB	1171720	n/a	LTP310	ltpFR2	18	n/a	n/a	n/a	15	19	7	7	5
2345.024	n/a	PROB	1172512	n/a	LTP310	ltpFR2	18	n/a	n/a	n/a	15	15	2	7	6
2346.648	n/a	PROB	1173324	n/a	LTP310	ltpFR2	18	n/a	n/a	n/a	15	16	8	1	7
2348.346	n/a	PROB	1174173	n/a	LTP310	ltpFR2	18	n/a	n/a	n/a	15	8	3	1	4
2350.08	n/a	PROB	1175040	n/a	LTP310	ltpFR2	18	n/a	n/a	n/a	15	14	6	6	2
2354.2	n/a	PROB	1177100	n/a	LTP310	ltpFR2	18	n/a	n/a	n/a	15	21	8	9	4
2356.136	n/a	PROB	1178068	n/a	LTP310	ltpFR2	18	n/a	n/a	n/a	15	22	9	7	6
2358.188	n/a	PROB	1179094	n/a	LTP310	ltpFR2	18	n/a	n/a	n/a	15	19	1	9	9
2359.386	n/a	PROB	1179693	n/a	LTP310	ltpFR2	18	n/a	n/a	n/a	15	15	3	6	6
2361.99	n/a	PROB	1180995	n/a	LTP310	ltpFR2	18	n/a	n/a	n/a	15	14	1	5	8
2363.71	n/a	STOP	1181855	n/a	LTP310	ltpFR2	18	n/a	n/a	n/a	15	n/a	n/a	n/a	n/a
2366.28	n/a	REC_START	1183140	n/a	LTP310	ltpFR2	18	10	n/a	n/a	n/a	n/a	0	0	0
2373.246	n/a	REC_WORD	1186623	wordpools/wasnorm_wordpool_576.txt	LTP310	ltpFR2	18	10	OMELET	976	n/a	n/a	0	0	0
2374.06	n/a	REC_WORD	1187030	wordpools/wasnorm_wordpool_576.txt	LTP310	ltpFR2	18	10	LADDER	793	n/a	n/a	0	0	0
2374.924	n/a	REC_WORD	1187462	wordpools/wasnorm_wordpool_576.txt	LTP310	ltpFR2	18	10	CABIN	211	n/a	n/a	0	0	0
2375.822	n/a	REC_WORD	1187911	wordpools/wasnorm_wordpool_576.txt	LTP310	ltpFR2	18	10	SWAMP	1416	n/a	n/a	0	0	0
2377.186	n/a	REC_WORD	1188593	wordpools/wasnorm_wordpool_576.txt	LTP310	ltpFR2	18	10	PEANUT	1032	n/a	n/a	0	0	0
2378.214	n/a	REC_WORD	1189107	wordpools/wasnorm_wordpool_576.txt	LTP310	ltpFR2	18	10	BACON	67	n/a	n/a	0	0	0
2383.462	n/a	REC_WORD	1191731	wordpools/wasnorm_wordpool_576.txt	LTP310	ltpFR2	18	10	SHOULDER	1294	n/a	n/a	0	0	0
2456.718	n/a	DISTRACTOR	1228359	n/a	LTP310	ltpFR2	18	11	n/a	n/a	n/a	n/a	0	0	0
2456.718	n/a	START	1228359	n/a	LTP310	ltpFR2	18	n/a	n/a	n/a	16	n/a	n/a	n/a	n/a
2456.734	n/a	PROB	1228367	n/a	LTP310	ltpFR2	18	n/a	n/a	n/a	16	15	5	2	8
2458.636	n/a	PROB	1229318	n/a	LTP310	ltpFR2	18	n/a	n/a	n/a	16	15	4	7	4
2460.302	n/a	PROB	1230151	n/a	LTP310	ltpFR2	18	n/a	n/a	n/a	16	6	1	4	1
2461.838	n/a	PROB	1230919	n/a	LTP310	ltpFR2	18	n/a	n/a	n/a	16	14	5	5	4
2463.504	n/a	PROB	1231752	n/a	LTP310	ltpFR2	18	n/a	n/a	n/a	16	17	2	9	6
2465.088	n/a	PROB	1232544	n/a	LTP310	ltpFR2	18	n/a	n/a	n/a	16	20	7	5	8
2467.74	n/a	PROB	1233870	n/a	LTP310	ltpFR2	18	n/a	n/a	n/a	16	20	8	8	4
2470.644	n/a	PROB	1235322	n/a	LTP310	ltpFR2	18	n/a	n/a	n/a	16	20	2	9	9
2472.944	n/a	PROB	1236472	n/a	LTP310	ltpFR2	18	n/a	n/a	n/a	16	12	5	6	1
2474.614	n/a	PROB	1237307	n/a	LTP310	ltpFR2	18	n/a	n/a	n/a	16	14	2	8	4
2475.78	n/a	PROB	1237890	n/a	LTP310	ltpFR2	18	n/a	n/a	n/a	16	22	9	4	9
2477.732	n/a	PROB	1238866	n/a	LTP310	ltpFR2	18	n/a	n/a	n/a	16	13	5	1	7
2480.078	n/a	STOP	1240039	n/a	LTP310	ltpFR2	18	n/a	n/a	n/a	16	n/a	n/a	n/a	n/a
2481.842	n/a	WORD	1240921	wordpools/wasnorm_wordpool_576.txt	LTP310	ltpFR2	18	11	BEAKER	104	n/a	n/a	0	0	0
2484.594	n/a	WORD	1242297	wordpools/wasnorm_wordpool_576.txt	LTP310	ltpFR2	18	11	CHILD	299	n/a	n/a	0	0	0
2487.38	n/a	WORD	1243690	wordpools/wasnorm_wordpool_576.txt	LTP310	ltpFR2	18	11	COD	340	n/a	n/a	0	0	0
2490.042	n/a	WORD	1245021	wordpools/wasnorm_wordpool_576.txt	LTP310	ltpFR2	18	11	KEEPER	769	n/a	n/a	0	0	0
2492.578	n/a	WORD	1246289	wordpools/wasnorm_wordpool_576.txt	LTP310	ltpFR2	18	11	TURTLE	1522	n/a	n/a	0	0	0
2495.33	n/a	WORD	1247665	wordpools/wasnorm_wordpool_576.txt	LTP310	ltpFR2	18	11	HEDGE	699	n/a	n/a	0	0	0
2497.99	n/a	WORD	1248995	wordpools/wasnorm_wordpool_576.txt	LTP310	ltpFR2	18	11	WHISTLE	1606	n/a	n/a	0	0	0
2500.744	n/a	WORD	1250372	wordpools/wasnorm_wordpool_576.txt	LTP310	ltpFR2	18	11	LUNCH	849	n/a	n/a	0	0	0
2503.362	n/a	WORD	1251681	wordpools/wasnorm_wordpool_576.txt	LTP310	ltpFR2	18	11	BEAVER	109	n/a	n/a	0	0	0
2505.996	n/a	WORD	1252998	wordpools/wasnorm_wordpool_576.txt	LTP310	ltpFR2	18	11	MEAT	883	n/a	n/a	0	0	0
2508.582	n/a	WORD	1254291	wordpools/wasnorm_wordpool_576.txt	LTP310	ltpFR2	18	11	DRESS	495	n/a	n/a	0	0	0
2511.166	n/a	WORD	1255583	wordpools/wasnorm_wordpool_576.txt	LTP310	ltpFR2	18	11	VELVET	1555	n/a	n/a	0	0	0
2513.71	n/a	WORD	1256855	wordpools/wasnorm_wordpool_576.txt	LTP310	ltpFR2	18	11	PERMIT	1051	n/a	n/a	0	0	0
2516.188	n/a	WORD	1258094	wordpools/wasnorm_wordpool_576.txt	LTP310	ltpFR2	18	11	WOMAN	1620	n/a	n/a	0	0	0
2518.682	n/a	WORD	1259341	wordpools/wasnorm_wordpool_576.txt	LTP310	ltpFR2	18	11	MISTER	901	n/a	n/a	0	0	0
2521.3	n/a	WORD	1260650	wordpools/wasnorm_wordpool_576.txt	LTP310	ltpFR2	18	11	SALT	1229	n/a	n/a	0	0	0
2524.094	n/a	WORD	1262047	wordpools/wasnorm_wordpool_576.txt	LTP310	ltpFR2	18	11	PARSLEY	1016	n/a	n/a	0	0	0
2526.914	n/a	WORD	1263457	wordpools/wasnorm_wordpool_576.txt	LTP310	ltpFR2	18	11	FLASK	576	n/a	n/a	0	0	0
2529.432	n/a	WORD	1264716	wordpools/wasnorm_wordpool_576.txt	LTP310	ltpFR2	18	11	BEAST	108	n/a	n/a	0	0	0
2531.892	n/a	WORD	1265946	wordpools/wasnorm_wordpool_576.txt	LTP310	ltpFR2	18	11	WARDROBE	1587	n/a	n/a	0	0	0
2534.604	n/a	WORD	1267302	wordpools/wasnorm_wordpool_576.txt	LTP310	ltpFR2	18	11	COLONEL	348	n/a	n/a	0	0	0
2537.156	n/a	WORD	1268578	wordpools/wasnorm_wordpool_576.txt	LTP310	ltpFR2	18	11	SANDWICH	1232	n/a	n/a	0	0	0
2539.698	n/a	WORD	1269849	wordpools/wasnorm_wordpool_576.txt	LTP310	ltpFR2	18	11	VIRUS	1572	n/a	n/a	0	0	0
2542.5	n/a	WORD	1271250	wordpools/wasnorm_wordpool_576.txt	LTP310	ltpFR2	18	11	NIGHTGOWN	953	n/a	n/a	0	0	0
2544.112	n/a	START	1272056	n/a	LTP310	ltpFR2	18	n/a	n/a	n/a	17	n/a	n/a	n/a	n/a
2545.304	n/a	DISTRACTOR	1272652	n/a	LTP310	ltpFR2	18	11	n/a	n/a	n/a	n/a	0	0	0
2545.314	n/a	PROB	1272657	n/a	LTP310	ltpFR2	18	n/a	n/a	n/a	17	10	3	2	5
2547.036	n/a	PROB	1273518	n/a	LTP310	ltpFR2	18	n/a	n/a	n/a	17	9	6	2	1
2548.672	n/a	PROB	1274336	n/a	LTP310	ltpFR2	18	n/a	n/a	n/a	17	16	5	5	6
2550.122	n/a	PROB	1275061	n/a	LTP310	ltpFR2	18	n/a	n/a	n/a	17	19	7	7	5
2551.758	n/a	PROB	1275879	n/a	LTP310	ltpFR2	18	n/a	n/a	n/a	17	7	2	1	4
2553.358	n/a	PROB	1276679	n/a	LTP310	ltpFR2	18	n/a	n/a	n/a	17	20	6	9	5
2555.042	n/a	PROB	1277521	n/a	LTP310	ltpFR2	18	n/a	n/a	n/a	17	11	3	5	3
2556.894	n/a	PROB	1278447	n/a	LTP310	ltpFR2	18	n/a	n/a	n/a	17	18	5	9	4
2558.528	n/a	PROB	1279264	n/a	LTP310	ltpFR2	18	n/a	n/a	n/a	17	14	3	2	9
2560.58	n/a	PROB	1280290	n/a	LTP310	ltpFR2	18	n/a	n/a	n/a	17	16	2	6	8
2562.096	n/a	PROB	1281048	n/a	LTP310	ltpFR2	18	n/a	n/a	n/a	17	22	7	6	9
2563.882	n/a	PROB	1281941	n/a	LTP310	ltpFR2	18	n/a	n/a	n/a	17	11	3	4	4
2568.112	n/a	STOP	1284056	n/a	LTP310	ltpFR2	18	n/a	n/a	n/a	17	n/a	n/a	n/a	n/a
2569.92	n/a	REC_START	1284960	n/a	LTP310	ltpFR2	18	11	n/a	n/a	n/a	n/a	0	0	0
2574.59	n/a	REC_WORD	1287295	wordpools/wasnorm_wordpool_576.txt	LTP310	ltpFR2	18	11	BEAKER	104	n/a	n/a	0	0	0
2575.274	n/a	REC_WORD	1287637	wordpools/wasnorm_wordpool_576.txt	LTP310	ltpFR2	18	11	CHILD	299	n/a	n/a	0	0	0
2576.356	n/a	REC_WORD	1288178	wordpools/wasnorm_wordpool_576.txt	LTP310	ltpFR2	18	11	COD	340	n/a	n/a	0	0	0
2577.592	n/a	REC_WORD	1288796	wordpools/wasnorm_wordpool_576.txt	LTP310	ltpFR2	18	11	TURTLE	1522	n/a	n/a	0	0	0
2578.726	n/a	REC_WORD	1289363	wordpools/wasnorm_wordpool_576.txt	LTP310	ltpFR2	18	11	KEEPER	769	n/a	n/a	0	0	0
2579.598	n/a	REC_WORD	1289799	wordpools/wasnorm_wordpool_576.txt	LTP310	ltpFR2	18	11	HEDGE	699	n/a	n/a	0	0	0
2581.272	n/a	REC_WORD	1290636	wordpools/wasnorm_wordpool_576.txt	LTP310	ltpFR2	18	11	WHISTLE	1606	n/a	n/a	0	0	0
2582.384	n/a	REC_WORD	1291192	wordpools/wasnorm_wordpool_576.txt	LTP310	ltpFR2	18	11	LUNCH	849	n/a	n/a	0	0	0
2584.114	n/a	REC_WORD	1292057	wordpools/wasnorm_wordpool_576.txt	LTP310	ltpFR2	18	11	BEAVER	109	n/a	n/a	0	0	0
2585.052	n/a	REC_WORD	1292526	wordpools/wasnorm_wordpool_576.txt	LTP310	ltpFR2	18	11	MEAT	883	n/a	n/a	0	0	0
2586.538	n/a	REC_WORD	1293269	wordpools/wasnorm_wordpool_576.txt	LTP310	ltpFR2	18	11	SALT	1229	n/a	n/a	0	0	0
2589.828	n/a	REC_WORD	1294914	wordpools/wasnorm_wordpool_576.txt	LTP310	ltpFR2	18	11	FLASK	576	n/a	n/a	0	0	0
2590.9	n/a	REC_WORD	1295450	wordpools/wasnorm_wordpool_576.txt	LTP310	ltpFR2	18	11	BEAST	108	n/a	n/a	0	0	0
2591.842	n/a	REC_WORD	1295921	wordpools/wasnorm_wordpool_576.txt	LTP310	ltpFR2	18	11	PARSLEY	1016	n/a	n/a	0	0	0
2593.562	n/a	REC_WORD	1296781	wordpools/wasnorm_wordpool_576.txt	LTP310	ltpFR2	18	11	PERMIT	1051	n/a	n/a	0	0	0
2594.486	n/a	REC_WORD	1297243	wordpools/wasnorm_wordpool_576.txt	LTP310	ltpFR2	18	11	MISTER	901	n/a	n/a	0	0	0
2595.766	n/a	REC_WORD	1297883	wordpools/wasnorm_wordpool_576.txt	LTP310	ltpFR2	18	11	WOMAN	1620	n/a	n/a	0	0	0
2660.376	n/a	DISTRACTOR	1330188	n/a	LTP310	ltpFR2	18	12	n/a	n/a	n/a	n/a	0	0	0
2660.376	n/a	START	1330188	n/a	LTP310	ltpFR2	18	n/a	n/a	n/a	18	n/a	n/a	n/a	n/a
2660.392	n/a	PROB	1330196	n/a	LTP310	ltpFR2	18	n/a	n/a	n/a	18	21	8	8	5
2662.876	n/a	PROB	1331438	n/a	LTP310	ltpFR2	18	n/a	n/a	n/a	18	17	9	5	3
2664.494	n/a	PROB	1332247	n/a	LTP310	ltpFR2	18	n/a	n/a	n/a	18	16	9	4	4
2666.378	n/a	PROB	1333189	n/a	LTP310	ltpFR2	18	n/a	n/a	n/a	18	20	5	7	8
2669.482	n/a	PROB	1334741	n/a	LTP310	ltpFR2	18	n/a	n/a	n/a	18	9	1	5	3
2670.866	n/a	PROB	1335433	n/a	LTP310	ltpFR2	18	n/a	n/a	n/a	18	20	9	8	3
2674.168	n/a	PROB	1337084	n/a	LTP310	ltpFR2	18	n/a	n/a	n/a	18	11	7	3	1
2675.452	n/a	PROB	1337726	n/a	LTP310	ltpFR2	18	n/a	n/a	n/a	18	13	6	1	6
2677.136	n/a	PROB	1338568	n/a	LTP310	ltpFR2	18	n/a	n/a	n/a	18	10	3	1	6
2678.622	n/a	PROB	1339311	n/a	LTP310	ltpFR2	18	n/a	n/a	n/a	18	19	7	7	5
2680.24	n/a	PROB	1340120	n/a	LTP310	ltpFR2	18	n/a	n/a	n/a	18	17	9	3	5
2682.092	n/a	PROB	1341046	n/a	LTP310	ltpFR2	18	n/a	n/a	n/a	18	22	8	8	6
2683.85	n/a	STOP	1341925	n/a	LTP310	ltpFR2	18	n/a	n/a	n/a	18	n/a	n/a	n/a	n/a
2685.544	n/a	WORD	1342772	wordpools/wasnorm_wordpool_576.txt	LTP310	ltpFR2	18	12	KETCHUP	771	n/a	n/a	0	0	0
2688.334	n/a	WORD	1344167	wordpools/wasnorm_wordpool_576.txt	LTP310	ltpFR2	18	12	CLOUD	328	n/a	n/a	0	0	0
2691.054	n/a	WORD	1345527	wordpools/wasnorm_wordpool_576.txt	LTP310	ltpFR2	18	12	BOUQUET	157	n/a	n/a	0	0	0
2693.554	n/a	WORD	1346777	wordpools/wasnorm_wordpool_576.txt	LTP310	ltpFR2	18	12	GRILL	661	n/a	n/a	0	0	0
2696.04	n/a	WORD	1348020	wordpools/wasnorm_wordpool_576.txt	LTP310	ltpFR2	18	12	LIPSTICK	829	n/a	n/a	0	0	0
2698.744	n/a	WORD	1349372	wordpools/wasnorm_wordpool_576.txt	LTP310	ltpFR2	18	12	DAISY	435	n/a	n/a	0	0	0
2701.524	n/a	WORD	1350762	wordpools/wasnorm_wordpool_576.txt	LTP310	ltpFR2	18	12	PADDING	999	n/a	n/a	0	0	0
2703.996	n/a	WORD	1351998	wordpools/wasnorm_wordpool_576.txt	LTP310	ltpFR2	18	12	LACE	792	n/a	n/a	0	0	0
2706.662	n/a	WORD	1353331	wordpools/wasnorm_wordpool_576.txt	LTP310	ltpFR2	18	12	VALLEY	1545	n/a	n/a	0	0	0
2709.302	n/a	WORD	1354651	wordpools/wasnorm_wordpool_576.txt	LTP310	ltpFR2	18	12	SUMMIT	1405	n/a	n/a	0	0	0
2711.882	n/a	WORD	1355941	wordpools/wasnorm_wordpool_576.txt	LTP310	ltpFR2	18	12	PILOT	1070	n/a	n/a	0	0	0
2714.45	n/a	WORD	1357225	wordpools/wasnorm_wordpool_576.txt	LTP310	ltpFR2	18	12	WORKER	1621	n/a	n/a	0	0	0
2716.992	n/a	WORD	1358496	wordpools/wasnorm_wordpool_576.txt	LTP310	ltpFR2	18	12	TEMPLE	1448	n/a	n/a	0	0	0
2719.426	n/a	WORD	1359713	wordpools/wasnorm_wordpool_576.txt	LTP310	ltpFR2	18	12	DIME	466	n/a	n/a	0	0	0
2721.924	n/a	WORD	1360962	wordpools/wasnorm_wordpool_576.txt	LTP310	ltpFR2	18	12	COIN	343	n/a	n/a	0	0	0
2724.376	n/a	WORD	1362188	wordpools/wasnorm_wordpool_576.txt	LTP310	ltpFR2	18	12	ZIPPER	1636	n/a	n/a	0	0	0
2726.828	n/a	WORD	1363414	wordpools/wasnorm_wordpool_576.txt	LTP310	ltpFR2	18	12	BRACES	164	n/a	n/a	0	0	0
2729.562	n/a	WORD	1364781	wordpools/wasnorm_wordpool_576.txt	LTP310	ltpFR2	18	12	HUSBAND	728	n/a	n/a	0	0	0
2732.38	n/a	WORD	1366190	wordpools/wasnorm_wordpool_576.txt	LTP310	ltpFR2	18	12	POLICE	1098	n/a	n/a	0	0	0
2735.0	n/a	WORD	1367500	wordpools/wasnorm_wordpool_576.txt	LTP310	ltpFR2	18	12	RELISH	1183	n/a	n/a	0	0	0
2737.692	n/a	WORD	1368846	wordpools/wasnorm_wordpool_576.txt	LTP310	ltpFR2	18	12	ULCER	1533	n/a	n/a	0	0	0
2740.278	n/a	WORD	1370139	wordpools/wasnorm_wordpool_576.txt	LTP310	ltpFR2	18	12	MUMMY	932	n/a	n/a	0	0	0
2742.84	n/a	WORD	1371420	wordpools/wasnorm_wordpool_576.txt	LTP310	ltpFR2	18	12	PUPIL	1143	n/a	n/a	0	0	0
2745.366	n/a	WORD	1372683	wordpools/wasnorm_wordpool_576.txt	LTP310	ltpFR2	18	12	TWISTER	1530	n/a	n/a	0	0	0
2746.978	n/a	START	1373489	n/a	LTP310	ltpFR2	18	n/a	n/a	n/a	19	n/a	n/a	n/a	n/a
2747.8	n/a	DISTRACTOR	1373900	n/a	LTP310	ltpFR2	18	12	n/a	n/a	n/a	n/a	0	0	0
2747.81	n/a	PROB	1373905	n/a	LTP310	ltpFR2	18	n/a	n/a	n/a	19	12	1	5	6
2749.762	n/a	PROB	1374881	n/a	LTP310	ltpFR2	18	n/a	n/a	n/a	19	9	4	4	1
2751.246	n/a	PROB	1375623	n/a	LTP310	ltpFR2	18	n/a	n/a	n/a	19	12	1	9	2
2752.73	n/a	PROB	1376365	n/a	LTP310	ltpFR2	18	n/a	n/a	n/a	19	19	1	9	9
2754.03	n/a	PROB	1377015	n/a	LTP310	ltpFR2	18	n/a	n/a	n/a	19	17	3	5	9
2755.632	n/a	PROB	1377816	n/a	LTP310	ltpFR2	18	n/a	n/a	n/a	19	16	4	4	8
2757.116	n/a	PROB	1378558	n/a	LTP310	ltpFR2	18	n/a	n/a	n/a	19	9	1	6	2
2758.484	n/a	PROB	1379242	n/a	LTP310	ltpFR2	18	n/a	n/a	n/a	19	15	2	8	5
2759.936	n/a	PROB	1379968	n/a	LTP310	ltpFR2	18	n/a	n/a	n/a	19	19	2	9	8
2761.538	n/a	PROB	1380769	n/a	LTP310	ltpFR2	18	n/a	n/a	n/a	19	25	9	8	8
2764.022	n/a	PROB	1382011	n/a	LTP310	ltpFR2	18	n/a	n/a	n/a	19	18	5	8	5
2767.024	n/a	PROB	1383512	n/a	LTP310	ltpFR2	18	n/a	n/a	n/a	19	21	8	9	4
2769.078	n/a	PROB	1384539	n/a	LTP310	ltpFR2	18	n/a	n/a	n/a	19	16	2	9	5
2770.532	n/a	STOP	1385266	n/a	LTP310	ltpFR2	18	n/a	n/a	n/a	19	n/a	n/a	n/a	n/a
2772.794	n/a	REC_START	1386397	n/a	LTP310	ltpFR2	18	12	n/a	n/a	n/a	n/a	0	0	0
2777.582	n/a	REC_WORD	1388791	wordpools/wasnorm_wordpool_576.txt	LTP310	ltpFR2	18	12	ULCER	1533	n/a	n/a	0	0	0
2778.384	n/a	REC_WORD	1389192	wordpools/wasnorm_wordpool_576.txt	LTP310	ltpFR2	18	12	MUMMY	932	n/a	n/a	0	0	0
2779.048	n/a	REC_WORD	1389524	wordpools/wasnorm_wordpool_576.txt	LTP310	ltpFR2	18	12	STUDENT	1395	n/a	n/a	0	0	0
2780.942	n/a	REC_WORD	1390471	wordpools/wasnorm_wordpool_576.txt	LTP310	ltpFR2	18	12	PUPIL	1143	n/a	n/a	0	0	0
2788.906	n/a	REC_WORD	1394453	wordpools/wasnorm_wordpool_576.txt	LTP310	ltpFR2	18	12	RELISH	1183	n/a	n/a	0	0	0
2789.98	n/a	REC_WORD	1394990	wordpools/wasnorm_wordpool_576.txt	LTP310	ltpFR2	18	12	POLICE	1098	n/a	n/a	0	0	0
2790.98	n/a	REC_WORD_VV	1395490	wordpools/wasnorm_wordpool_576.txt	LTP310	ltpFR2	18	12	<>	-1	n/a	n/a	0	0	0
2863.266	n/a	WORD	1431633	wordpools/wasnorm_wordpool_576.txt	LTP310	ltpFR2	18	13	JAPAN	749	n/a	n/a	0	0	0
2865.918	n/a	WORD	1432959	wordpools/wasnorm_wordpool_576.txt	LTP310	ltpFR2	18	13	COUNTRY	388	n/a	n/a	0	0	0
2868.402	n/a	WORD	1434201	wordpools/wasnorm_wordpool_576.txt	LTP310	ltpFR2	18	13	MAMMAL	861	n/a	n/a	0	0	0
2870.938	n/a	WORD	1435469	wordpools/wasnorm_wordpool_576.txt	LTP310	ltpFR2	18	13	COCOON	339	n/a	n/a	0	0	0
2873.726	n/a	WORD	1436863	wordpools/wasnorm_wordpool_576.txt	LTP310	ltpFR2	18	13	SHARK	1275	n/a	n/a	0	0	0
2876.41	n/a	WORD	1438205	wordpools/wasnorm_wordpool_576.txt	LTP310	ltpFR2	18	13	CUPBOARD	425	n/a	n/a	0	0	0
2878.928	n/a	WORD	1439464	wordpools/wasnorm_wordpool_576.txt	LTP310	ltpFR2	18	13	KITCHEN	778	n/a	n/a	0	0	0
2881.732	n/a	WORD	1440866	wordpools/wasnorm_wordpool_576.txt	LTP310	ltpFR2	18	13	CHEST	295	n/a	n/a	0	0	0
2884.284	n/a	WORD	1442142	wordpools/wasnorm_wordpool_576.txt	LTP310	ltpFR2	18	13	BEEF	113	n/a	n/a	0	0	0
2886.984	n/a	WORD	1443492	wordpools/wasnorm_wordpool_576.txt	LTP310	ltpFR2	18	13	FRANCE	601	n/a	n/a	0	0	0
2889.754	n/a	WORD	1444877	wordpools/wasnorm_wordpool_576.txt	LTP310	ltpFR2	18	13	GREASE	660	n/a	n/a	0	0	0
2892.474	n/a	WORD	1446237	wordpools/wasnorm_wordpool_576.txt	LTP310	ltpFR2	18	13	MOTEL	919	n/a	n/a	0	0	0
2895.208	n/a	WORD	1447604	wordpools/wasnorm_wordpool_576.txt	LTP310	ltpFR2	18	13	PLAZA	1088	n/a	n/a	0	0	0
2898.014	n/a	WORD	1449007	wordpools/wasnorm_wordpool_576.txt	LTP310	ltpFR2	18	13	LIGHTNING	820	n/a	n/a	0	0	0
2900.648	n/a	WORD	1450324	wordpools/wasnorm_wordpool_576.txt	LTP310	ltpFR2	18	13	CASHEW	253	n/a	n/a	0	0	0
2903.282	n/a	WORD	1451641	wordpools/wasnorm_wordpool_576.txt	LTP310	ltpFR2	18	13	POPCORN	1104	n/a	n/a	0	0	0
2906.05	n/a	WORD	1453025	wordpools/wasnorm_wordpool_576.txt	LTP310	ltpFR2	18	13	MONSTER	912	n/a	n/a	0	0	0
2908.784	n/a	WORD	1454392	wordpools/wasnorm_wordpool_576.txt	LTP310	ltpFR2	18	13	MATTRESS	879	n/a	n/a	0	0	0
2911.256	n/a	WORD	1455628	wordpools/wasnorm_wordpool_576.txt	LTP310	ltpFR2	18	13	BARREL	91	n/a	n/a	0	0	0
2913.726	n/a	WORD	1456863	wordpools/wasnorm_wordpool_576.txt	LTP310	ltpFR2	18	13	DRAWING	494	n/a	n/a	0	0	0
2916.458	n/a	WORD	1458229	wordpools/wasnorm_wordpool_576.txt	LTP310	ltpFR2	18	13	ICEBERG	731	n/a	n/a	0	0	0
2919.01	n/a	WORD	1459505	wordpools/wasnorm_wordpool_576.txt	LTP310	ltpFR2	18	13	SKETCH	1315	n/a	n/a	0	0	0
2921.63	n/a	WORD	1460815	wordpools/wasnorm_wordpool_576.txt	LTP310	ltpFR2	18	13	FRAME	600	n/a	n/a	0	0	0
2924.164	n/a	WORD	1462082	wordpools/wasnorm_wordpool_576.txt	LTP310	ltpFR2	18	13	DOLPHIN	483	n/a	n/a	0	0	0
2925.77	n/a	START	1462885	n/a	LTP310	ltpFR2	18	n/a	n/a	n/a	20	n/a	n/a	n/a	n/a
2926.82	n/a	DISTRACTOR	1463410	n/a	LTP310	ltpFR2	18	13	n/a	n/a	n/a	n/a	0	0	0
2926.832	n/a	PROB	1463416	n/a	LTP310	ltpFR2	18	n/a	n/a	n/a	20	23	9	6	9
2929.366	n/a	PROB	1464683	n/a	LTP310	ltpFR2	18	n/a	n/a	n/a	20	21	9	5	7
2931.72	n/a	PROB	1465860	n/a	LTP310	ltpFR2	18	n/a	n/a	n/a	20	23	9	9	5
2933.672	n/a	PROB	1466836	n/a	LTP310	ltpFR2	18	n/a	n/a	n/a	20	14	4	7	3
2935.642	n/a	PROB	1467821	n/a	LTP310	ltpFR2	18	n/a	n/a	n/a	20	15	2	6	7
2937.96	n/a	PROB	1468980	n/a	LTP310	ltpFR2	18	n/a	n/a	n/a	20	13	4	5	4
2939.678	n/a	PROB	1469839	n/a	LTP310	ltpFR2	18	n/a	n/a	n/a	20	13	7	1	5
2941.462	n/a	PROB	1470731	n/a	LTP310	ltpFR2	18	n/a	n/a	n/a	20	16	6	4	6
2944.18	n/a	PROB	1472090	n/a	LTP310	ltpFR2	18	n/a	n/a	n/a	20	20	6	5	9
2946.03	n/a	PROB	1473015	n/a	LTP310	ltpFR2	18	n/a	n/a	n/a	20	18	9	2	7
2949.768	n/a	STOP	1474884	n/a	LTP310	ltpFR2	18	n/a	n/a	n/a	20	n/a	n/a	n/a	n/a
2951.552	n/a	REC_START	1475776	n/a	LTP310	ltpFR2	18	13	n/a	n/a	n/a	n/a	0	0	0
2954.92	n/a	REC_WORD	1477460	wordpools/wasnorm_wordpool_576.txt	LTP310	ltpFR2	18	13	JAPAN	749	n/a	n/a	0	0	0
2955.852	n/a	REC_WORD	1477926	wordpools/wasnorm_wordpool_576.txt	LTP310	ltpFR2	18	13	COUNTRY	388	n/a	n/a	0	0	0
2956.778	n/a	REC_WORD	1478389	wordpools/wasnorm_wordpool_576.txt	LTP310	ltpFR2	18	13	MAMMAL	861	n/a	n/a	0	0	0
2957.714	n/a	REC_WORD	1478857	wordpools/wasnorm_wordpool_576.txt	LTP310	ltpFR2	18	13	COCOON	339	n/a	n/a	0	0	0
2962.136	n/a	REC_WORD	1481068	wordpools/wasnorm_wordpool_576.txt	LTP310	ltpFR2	18	13	SHARK	1275	n/a	n/a	0	0	0
2963.73	n/a	REC_WORD	1481865	wordpools/wasnorm_wordpool_576.txt	LTP310	ltpFR2	18	13	KITCHEN	778	n/a	n/a	0	0	0
2964.546	n/a	REC_WORD	1482273	wordpools/wasnorm_wordpool_576.txt	LTP310	ltpFR2	18	13	CUPBOARD	425	n/a	n/a	0	0	0
2973.712	n/a	REC_WORD	1486856	wordpools/wasnorm_wordpool_576.txt	LTP310	ltpFR2	18	13	CHEST	295	n/a	n/a	0	0	0
2974.68	n/a	REC_WORD	1487340	wordpools/wasnorm_wordpool_576.txt	LTP310	ltpFR2	18	13	BEEF	113	n/a	n/a	0	0	0
2975.802	n/a	REC_WORD	1487901	wordpools/wasnorm_wordpool_576.txt	LTP310	ltpFR2	18	13	FRANCE	601	n/a	n/a	0	0	0
2976.91	n/a	REC_WORD	1488455	wordpools/wasnorm_wordpool_576.txt	LTP310	ltpFR2	18	13	GREASE	660	n/a	n/a	0	0	0
2978.668	n/a	REC_WORD	1489334	wordpools/wasnorm_wordpool_576.txt	LTP310	ltpFR2	18	13	MOTEL	919	n/a	n/a	0	0	0
2979.536	n/a	REC_WORD	1489768	wordpools/wasnorm_wordpool_576.txt	LTP310	ltpFR2	18	13	PLAZA	1088	n/a	n/a	0	0	0
2980.536	n/a	REC_WORD_VV	1490268	wordpools/wasnorm_wordpool_576.txt	LTP310	ltpFR2	18	13	<>	-1	n/a	n/a	0	0	0
2984.056	n/a	REC_WORD	1492028	wordpools/wasnorm_wordpool_576.txt	LTP310	ltpFR2	18	13	FRAME	600	n/a	n/a	0	0	0
2985.178	n/a	REC_WORD	1492589	wordpools/wasnorm_wordpool_576.txt	LTP310	ltpFR2	18	13	DOLPHIN	483	n/a	n/a	0	0	0
2986.028	n/a	REC_WORD	1493014	wordpools/wasnorm_wordpool_576.txt	LTP310	ltpFR2	18	13	ICEBERG	731	n/a	n/a	0	0	0
3041.972	n/a	DISTRACTOR	1520986	n/a	LTP310	ltpFR2	18	14	n/a	n/a	n/a	n/a	0	0	0
3041.974	n/a	START	1520987	n/a	LTP310	ltpFR2	18	n/a	n/a	n/a	21	n/a	n/a	n/a	n/a
3041.988	n/a	PROB	1520994	n/a	LTP310	ltpFR2	18	n/a	n/a	n/a	21	11	9	1	1
3043.808	n/a	PROB	1521904	n/a	LTP310	ltpFR2	18	n/a	n/a	n/a	21	17	6	9	2
3045.792	n/a	PROB	1522896	n/a	LTP310	ltpFR2	18	n/a	n/a	n/a	21	20	8	7	5
3047.492	n/a	PROB	1523746	n/a	LTP310	ltpFR2	18	n/a	n/a	n/a	21	15	2	6	7
3049.028	n/a	PROB	1524514	n/a	LTP310	ltpFR2	18	n/a	n/a	n/a	21	20	3	9	8
3050.714	n/a	PROB	1525357	n/a	LTP310	ltpFR2	18	n/a	n/a	n/a	21	16	2	9	5
3052.33	n/a	PROB	1526165	n/a	LTP310	ltpFR2	18	n/a	n/a	n/a	21	13	3	5	5
3054.13	n/a	PROB	1527065	n/a	LTP310	ltpFR2	18	n/a	n/a	n/a	21	15	5	1	9
3055.366	n/a	PROB	1527683	n/a	LTP310	ltpFR2	18	n/a	n/a	n/a	21	13	8	2	3
3056.636	n/a	PROB	1528318	n/a	LTP310	ltpFR2	18	n/a	n/a	n/a	21	14	3	6	5
3058.33	n/a	PROB	1529165	n/a	LTP310	ltpFR2	18	n/a	n/a	n/a	21	10	5	2	3
3059.836	n/a	PROB	1529918	n/a	LTP310	ltpFR2	18	n/a	n/a	n/a	21	21	5	9	7
3061.756	n/a	PROB	1530878	n/a	LTP310	ltpFR2	18	n/a	n/a	n/a	21	12	8	2	2
3063.018	n/a	PROB	1531509	n/a	LTP310	ltpFR2	18	n/a	n/a	n/a	21	9	1	3	5
3064.324	n/a	PROB	1532162	n/a	LTP310	ltpFR2	18	n/a	n/a	n/a	21	10	4	2	4
3065.96	n/a	STOP	1532980	n/a	LTP310	ltpFR2	18	n/a	n/a	n/a	21	n/a	n/a	n/a	n/a
3066.822	n/a	WORD	1533411	wordpools/wasnorm_wordpool_576.txt	LTP310	ltpFR2	18	14	HEADBAND	696	n/a	n/a	0	0	0
3069.342	n/a	WORD	1534671	wordpools/wasnorm_wordpool_576.txt	LTP310	ltpFR2	18	14	OINTMENT	974	n/a	n/a	0	0	0
3071.796	n/a	WORD	1535898	wordpools/wasnorm_wordpool_576.txt	LTP310	ltpFR2	18	14	SERVANT	1271	n/a	n/a	0	0	0
3074.23	n/a	WORD	1537115	wordpools/wasnorm_wordpool_576.txt	LTP310	ltpFR2	18	14	VAGRANT	1544	n/a	n/a	0	0	0
3077.048	n/a	WORD	1538524	wordpools/wasnorm_wordpool_576.txt	LTP310	ltpFR2	18	14	GRAVE	658	n/a	n/a	0	0	0
3079.5	n/a	WORD	1539750	wordpools/wasnorm_wordpool_576.txt	LTP310	ltpFR2	18	14	VICTIM	1562	n/a	n/a	0	0	0
3082.134	n/a	WORD	1541067	wordpools/wasnorm_wordpool_576.txt	LTP310	ltpFR2	18	14	COOKBOOK	373	n/a	n/a	0	0	0
3084.904	n/a	WORD	1542452	wordpools/wasnorm_wordpool_576.txt	LTP310	ltpFR2	18	14	RADISH	1158	n/a	n/a	0	0	0
3087.39	n/a	WORD	1543695	wordpools/wasnorm_wordpool_576.txt	LTP310	ltpFR2	18	14	WAGON	1578	n/a	n/a	0	0	0
3090.06	n/a	WORD	1545030	wordpools/wasnorm_wordpool_576.txt	LTP310	ltpFR2	18	14	ZEBRA	1635	n/a	n/a	0	0	0
3092.81	n/a	WORD	1546405	wordpools/wasnorm_wordpool_576.txt	LTP310	ltpFR2	18	14	CRITIC	410	n/a	n/a	0	0	0
3095.312	n/a	WORD	1547656	wordpools/wasnorm_wordpool_576.txt	LTP310	ltpFR2	18	14	ROCKET	1202	n/a	n/a	0	0	0
3098.016	n/a	WORD	1549008	wordpools/wasnorm_wordpool_576.txt	LTP310	ltpFR2	18	14	SPACE	1345	n/a	n/a	0	0	0
3100.5	n/a	WORD	1550250	wordpools/wasnorm_wordpool_576.txt	LTP310	ltpFR2	18	14	CHAPEL	280	n/a	n/a	0	0	0
3103.186	n/a	WORD	1551593	wordpools/wasnorm_wordpool_576.txt	LTP310	ltpFR2	18	14	ROD	1203	n/a	n/a	0	0	0
3105.674	n/a	WORD	1552837	wordpools/wasnorm_wordpool_576.txt	LTP310	ltpFR2	18	14	MUSTARD	935	n/a	n/a	0	0	0
3108.424	n/a	WORD	1554212	wordpools/wasnorm_wordpool_576.txt	LTP310	ltpFR2	18	14	PICNIC	1060	n/a	n/a	0	0	0
3111.06	n/a	WORD	1555530	wordpools/wasnorm_wordpool_576.txt	LTP310	ltpFR2	18	14	ACTRESS	6	n/a	n/a	0	0	0
3113.712	n/a	WORD	1556856	wordpools/wasnorm_wordpool_576.txt	LTP310	ltpFR2	18	14	DRINK	498	n/a	n/a	0	0	0
3116.314	n/a	WORD	1558157	wordpools/wasnorm_wordpool_576.txt	LTP310	ltpFR2	18	14	TWIG	1527	n/a	n/a	0	0	0
3118.982	n/a	WORD	1559491	wordpools/wasnorm_wordpool_576.txt	LTP310	ltpFR2	18	14	XEROX	1628	n/a	n/a	0	0	0
3121.62	n/a	WORD	1560810	wordpools/wasnorm_wordpool_576.txt	LTP310	ltpFR2	18	14	CRUTCH	417	n/a	n/a	0	0	0
3124.136	n/a	WORD	1562068	wordpools/wasnorm_wordpool_576.txt	LTP310	ltpFR2	18	14	BACKBONE	66	n/a	n/a	0	0	0
3126.938	n/a	WORD	1563469	wordpools/wasnorm_wordpool_576.txt	LTP310	ltpFR2	18	14	LIVER	833	n/a	n/a	0	0	0
3128.558	n/a	START	1564279	n/a	LTP310	ltpFR2	18	n/a	n/a	n/a	22	n/a	n/a	n/a	n/a
3129.718	n/a	DISTRACTOR	1564859	n/a	LTP310	ltpFR2	18	14	n/a	n/a	n/a	n/a	0	0	0
3129.726	n/a	PROB	1564863	n/a	LTP310	ltpFR2	18	n/a	n/a	n/a	22	12	7	2	3
3131.574	n/a	PROB	1565787	n/a	LTP310	ltpFR2	18	n/a	n/a	n/a	22	24	8	7	9
3133.442	n/a	PROB	1566721	n/a	LTP310	ltpFR2	18	n/a	n/a	n/a	22	14	7	1	6
3135.648	n/a	PROB	1567824	n/a	LTP310	ltpFR2	18	n/a	n/a	n/a	22	21	8	4	9
3137.996	n/a	PROB	1568998	n/a	LTP310	ltpFR2	18	n/a	n/a	n/a	22	12	3	6	3
3140.132	n/a	PROB	1570066	n/a	LTP310	ltpFR2	18	n/a	n/a	n/a	22	16	1	6	9
3141.566	n/a	PROB	1570783	n/a	LTP310	ltpFR2	18	n/a	n/a	n/a	22	12	4	4	4
3142.984	n/a	PROB	1571492	n/a	LTP310	ltpFR2	18	n/a	n/a	n/a	22	13	1	7	5
3144.802	n/a	PROB	1572401	n/a	LTP310	ltpFR2	18	n/a	n/a	n/a	22	18	4	9	5
3146.322	n/a	PROB	1573161	n/a	LTP310	ltpFR2	18	n/a	n/a	n/a	22	19	6	6	7
3147.904	n/a	PROB	1573952	n/a	LTP310	ltpFR2	18	n/a	n/a	n/a	22	14	6	3	5
3149.856	n/a	PROB	1574928	n/a	LTP310	ltpFR2	18	n/a	n/a	n/a	22	5	2	2	1
3152.558	n/a	STOP	1576279	n/a	LTP310	ltpFR2	18	n/a	n/a	n/a	22	n/a	n/a	n/a	n/a
3154.442	n/a	REC_START	1577221	n/a	LTP310	ltpFR2	18	14	n/a	n/a	n/a	n/a	0	0	0
3158.186	n/a	REC_WORD	1579093	wordpools/wasnorm_wordpool_576.txt	LTP310	ltpFR2	18	14	SERVANT	1271	n/a	n/a	0	0	0
3159.186	n/a	REC_WORD_VV	1579593	wordpools/wasnorm_wordpool_576.txt	LTP310	ltpFR2	18	14	<>	-1	n/a	n/a	0	0	0
3159.632	n/a	REC_WORD	1579816	wordpools/wasnorm_wordpool_576.txt	LTP310	ltpFR2	18	14	VAGRANT	1544	n/a	n/a	0	0	0
3163.122	n/a	REC_WORD	1581561	wordpools/wasnorm_wordpool_576.txt	LTP310	ltpFR2	18	14	GRAVE	658	n/a	n/a	0	0	0
3167.966	n/a	REC_WORD	1583983	wordpools/wasnorm_wordpool_576.txt	LTP310	ltpFR2	18	14	RADISH	1158	n/a	n/a	0	0	0
3169.346	n/a	REC_WORD	1584673	wordpools/wasnorm_wordpool_576.txt	LTP310	ltpFR2	18	14	COOKBOOK	373	n/a	n/a	0	0	0
3174.604	n/a	REC_WORD	1587302	wordpools/wasnorm_wordpool_576.txt	LTP310	ltpFR2	18	14	ZEBRA	1635	n/a	n/a	0	0	0
3175.822	n/a	REC_WORD	1587911	wordpools/wasnorm_wordpool_576.txt	LTP310	ltpFR2	18	14	WAGON	1578	n/a	n/a	0	0	0
3177.146	n/a	REC_WORD	1588573	wordpools/wasnorm_wordpool_576.txt	LTP310	ltpFR2	18	14	CRITIC	410	n/a	n/a	0	0	0
3178.636	n/a	REC_WORD	1589318	wordpools/wasnorm_wordpool_576.txt	LTP310	ltpFR2	18	14	ROCKET	1202	n/a	n/a	0	0	0
3179.756	n/a	REC_WORD	1589878	wordpools/wasnorm_wordpool_576.txt	LTP310	ltpFR2	18	14	SPACE	1345	n/a	n/a	0	0	0
3181.224	n/a	REC_WORD	1590612	wordpools/wasnorm_wordpool_576.txt	LTP310	ltpFR2	18	14	CHAPEL	280	n/a	n/a	0	0	0
3189.31	n/a	REC_WORD	1594655	wordpools/wasnorm_wordpool_576.txt	LTP310	ltpFR2	18	14	ROD	1203	n/a	n/a	0	0	0
3192.284	n/a	REC_WORD	1596142	wordpools/wasnorm_wordpool_576.txt	LTP310	ltpFR2	18	14	TWIG	1527	n/a	n/a	0	0	0
3193.282	n/a	REC_WORD	1596641	wordpools/wasnorm_wordpool_576.txt	LTP310	ltpFR2	18	14	XEROX	1628	n/a	n/a	0	0	0
3194.388	n/a	REC_WORD	1597194	wordpools/wasnorm_wordpool_576.txt	LTP310	ltpFR2	18	14	CRUTCH	417	n/a	n/a	0	0	0
3195.78	n/a	REC_WORD	1597890	wordpools/wasnorm_wordpool_576.txt	LTP310	ltpFR2	18	14	ACTRESS	6	n/a	n/a	0	0	0
3196.712	n/a	REC_WORD	1598356	wordpools/wasnorm_wordpool_576.txt	LTP310	ltpFR2	18	14	DRINK	498	n/a	n/a	0	0	0
3198.106	n/a	REC_WORD	1599053	wordpools/wasnorm_wordpool_576.txt	LTP310	ltpFR2	18	14	LIVER	833	n/a	n/a	0	0	0
3244.88	n/a	WORD	1622440	wordpools/wasnorm_wordpool_576.txt	LTP310	ltpFR2	18	15	SUBWAY	1400	n/a	n/a	0	0	0
3247.376	n/a	WORD	1623688	wordpools/wasnorm_wordpool_576.txt	LTP310	ltpFR2	18	15	RECORD	1176	n/a	n/a	0	0	0
3250.086	n/a	WORD	1625043	wordpools/wasnorm_wordpool_576.txt	LTP310	ltpFR2	18	15	THREAD	1460	n/a	n/a	0	0	0
3252.854	n/a	WORD	1626427	wordpools/wasnorm_wordpool_576.txt	LTP310	ltpFR2	18	15	COLLEGE	346	n/a	n/a	0	0	0
3255.64	n/a	WORD	1627820	wordpools/wasnorm_wordpool_576.txt	LTP310	ltpFR2	18	15	MARINE	869	n/a	n/a	0	0	0
3258.084	n/a	WORD	1629042	wordpools/wasnorm_wordpool_576.txt	LTP310	ltpFR2	18	15	FILM	565	n/a	n/a	0	0	0
3260.62	n/a	WORD	1630310	wordpools/wasnorm_wordpool_576.txt	LTP310	ltpFR2	18	15	SWORD	1423	n/a	n/a	0	0	0
3263.204	n/a	WORD	1631602	wordpools/wasnorm_wordpool_576.txt	LTP310	ltpFR2	18	15	STREAM	1392	n/a	n/a	0	0	0
3265.626	n/a	WORD	1632813	wordpools/wasnorm_wordpool_576.txt	LTP310	ltpFR2	18	15	ORCHID	982	n/a	n/a	0	0	0
3268.276	n/a	WORD	1634138	wordpools/wasnorm_wordpool_576.txt	LTP310	ltpFR2	18	15	SURVEY	1414	n/a	n/a	0	0	0
3270.714	n/a	WORD	1635357	wordpools/wasnorm_wordpool_576.txt	LTP310	ltpFR2	18	15	ASIA	46	n/a	n/a	0	0	0
3273.364	n/a	WORD	1636682	wordpools/wasnorm_wordpool_576.txt	LTP310	ltpFR2	18	15	STAKE	1368	n/a	n/a	0	0	0
3275.79	n/a	WORD	1637895	wordpools/wasnorm_wordpool_576.txt	LTP310	ltpFR2	18	15	QUARTER	1148	n/a	n/a	0	0	0
3278.502	n/a	WORD	1639251	wordpools/wasnorm_wordpool_576.txt	LTP310	ltpFR2	18	15	TOURIST	1488	n/a	n/a	0	0	0
3281.288	n/a	WORD	1640644	wordpools/wasnorm_wordpool_576.txt	LTP310	ltpFR2	18	15	PIGEON	1065	n/a	n/a	0	0	0
3283.972	n/a	WORD	1641986	wordpools/wasnorm_wordpool_576.txt	LTP310	ltpFR2	18	15	LONDON	843	n/a	n/a	0	0	0
3286.46	n/a	WORD	1643230	wordpools/wasnorm_wordpool_576.txt	LTP310	ltpFR2	18	15	DONKEY	484	n/a	n/a	0	0	0
3289.144	n/a	WORD	1644572	wordpools/wasnorm_wordpool_576.txt	LTP310	ltpFR2	18	15	SPIDER	1351	n/a	n/a	0	0	0
3291.648	n/a	WORD	1645824	wordpools/wasnorm_wordpool_576.txt	LTP310	ltpFR2	18	15	TOMBSTONE	1478	n/a	n/a	0	0	0
3294.454	n/a	WORD	1647227	wordpools/wasnorm_wordpool_576.txt	LTP310	ltpFR2	18	15	PIZZA	1079	n/a	n/a	0	0	0
3297.052	n/a	WORD	1648526	wordpools/wasnorm_wordpool_576.txt	LTP310	ltpFR2	18	15	POWDER	1117	n/a	n/a	0	0	0
3299.77	n/a	WORD	1649885	wordpools/wasnorm_wordpool_576.txt	LTP310	ltpFR2	18	15	HOSTESS	723	n/a	n/a	0	0	0
3302.356	n/a	WORD	1651178	wordpools/wasnorm_wordpool_576.txt	LTP310	ltpFR2	18	15	STAR	1373	n/a	n/a	0	0	0
3304.924	n/a	WORD	1652462	wordpools/wasnorm_wordpool_576.txt	LTP310	ltpFR2	18	15	COMET	353	n/a	n/a	0	0	0
3306.53	n/a	START	1653265	n/a	LTP310	ltpFR2	18	n/a	n/a	n/a	23	n/a	n/a	n/a	n/a
3307.618	n/a	DISTRACTOR	1653809	n/a	LTP310	ltpFR2	18	15	n/a	n/a	n/a	n/a	0	0	0
3307.628	n/a	PROB	1653814	n/a	LTP310	ltpFR2	18	n/a	n/a	n/a	23	14	3	7	4
3309.328	n/a	PROB	1654664	n/a	LTP310	ltpFR2	18	n/a	n/a	n/a	23	11	8	1	2
3310.598	n/a	PROB	1655299	n/a	LTP310	ltpFR2	18	n/a	n/a	n/a	23	21	7	7	7
3311.98	n/a	PROB	1655990	n/a	LTP310	ltpFR2	18	n/a	n/a	n/a	23	12	6	4	2
3313.148	n/a	PROB	1656574	n/a	LTP310	ltpFR2	18	n/a	n/a	n/a	23	12	2	3	7
3314.398	n/a	PROB	1657199	n/a	LTP310	ltpFR2	18	n/a	n/a	n/a	23	19	3	8	8
3316.018	n/a	PROB	1658009	n/a	LTP310	ltpFR2	18	n/a	n/a	n/a	23	13	6	1	6
3317.416	n/a	PROB	1658708	n/a	LTP310	ltpFR2	18	n/a	n/a	n/a	23	13	7	5	1
3319.002	n/a	PROB	1659501	n/a	LTP310	ltpFR2	18	n/a	n/a	n/a	23	11	1	4	6
3320.22	n/a	PROB	1660110	n/a	LTP310	ltpFR2	18	n/a	n/a	n/a	23	18	5	9	4
3323.924	n/a	PROB	1661962	n/a	LTP310	ltpFR2	18	n/a	n/a	n/a	23	7	7	4	6
3326.612	n/a	PROB	1663306	n/a	LTP310	ltpFR2	18	n/a	n/a	n/a	23	8	2	1	5
3328.112	n/a	PROB	1664056	n/a	LTP310	ltpFR2	18	n/a	n/a	n/a	23	13	8	3	2
3329.798	n/a	STOP	1664899	n/a	LTP310	ltpFR2	18	n/a	n/a	n/a	23	n/a	n/a	n/a	n/a
3332.334	n/a	REC_START	1666167	n/a	LTP310	ltpFR2	18	15	n/a	n/a	n/a	n/a	0	0	0
3337.134	n/a	REC_WORD	1668567	wordpools/wasnorm_wordpool_576.txt	LTP310	ltpFR2	18	15	COMET	353	n/a	n/a	0	0	0
3337.826	n/a	REC_WORD	1668913	wordpools/wasnorm_wordpool_576.txt	LTP310	ltpFR2	18	15	STAR	1373	n/a	n/a	0	0	0
3338.594	n/a	REC_WORD	1669297	wordpools/wasnorm_wordpool_576.txt	LTP310	ltpFR2	18	15	HOSTESS	723	n/a	n/a	0	0	0
3339.624	n/a	REC_WORD	1669812	wordpools/wasnorm_wordpool_576.txt	LTP310	ltpFR2	18	15	PIZZA	1079	n/a	n/a	0	0	0
3340.306	n/a	REC_WORD	1670153	wordpools/wasnorm_wordpool_576.txt	LTP310	ltpFR2	18	15	POWDER	1117	n/a	n/a	0	0	0
3342.554	n/a	REC_WORD	1671277	wordpools/wasnorm_wordpool_576.txt	LTP310	ltpFR2	18	15	STAKE	1368	n/a	n/a	0	0	0
3345.55	n/a	REC_WORD	1672775	wordpools/wasnorm_wordpool_576.txt	LTP310	ltpFR2	18	15	TOURIST	1488	n/a	n/a	0	0	0
3346.47	n/a	REC_WORD	1673235	wordpools/wasnorm_wordpool_576.txt	LTP310	ltpFR2	18	15	PIGEON	1065	n/a	n/a	0	0	0
3347.116	n/a	REC_WORD	1673558	wordpools/wasnorm_wordpool_576.txt	LTP310	ltpFR2	18	15	LONDON	843	n/a	n/a	0	0	0
3352.63	n/a	REC_WORD	1676315	wordpools/wasnorm_wordpool_576.txt	LTP310	ltpFR2	18	15	QUARTER	1148	n/a	n/a	0	0	0
3422.768	n/a	WORD	1711384	wordpools/wasnorm_wordpool_576.txt	LTP310	ltpFR2	18	16	GAZELLE	628	n/a	n/a	0	0	0
3425.472	n/a	WORD	1712736	wordpools/wasnorm_wordpool_576.txt	LTP310	ltpFR2	18	16	SEAL	1262	n/a	n/a	0	0	0
3428.242	n/a	WORD	1714121	wordpools/wasnorm_wordpool_576.txt	LTP310	ltpFR2	18	16	GAVEL	627	n/a	n/a	0	0	0
3430.86	n/a	WORD	1715430	wordpools/wasnorm_wordpool_576.txt	LTP310	ltpFR2	18	16	DANCER	437	n/a	n/a	0	0	0
3433.478	n/a	WORD	1716739	wordpools/wasnorm_wordpool_576.txt	LTP310	ltpFR2	18	16	HIGHWAY	707	n/a	n/a	0	0	0
3436.212	n/a	WORD	1718106	wordpools/wasnorm_wordpool_576.txt	LTP310	ltpFR2	18	16	CREVICE	405	n/a	n/a	0	0	0
3438.654	n/a	WORD	1719327	wordpools/wasnorm_wordpool_576.txt	LTP310	ltpFR2	18	16	EXPERT	543	n/a	n/a	0	0	0
3441.184	n/a	WORD	1720592	wordpools/wasnorm_wordpool_576.txt	LTP310	ltpFR2	18	16	IDOL	733	n/a	n/a	0	0	0
3443.738	n/a	WORD	1721869	wordpools/wasnorm_wordpool_576.txt	LTP310	ltpFR2	18	16	LADY	794	n/a	n/a	0	0	0
3446.272	n/a	WORD	1723136	wordpools/wasnorm_wordpool_576.txt	LTP310	ltpFR2	18	16	BANK	83	n/a	n/a	0	0	0
3448.748	n/a	WORD	1724374	wordpools/wasnorm_wordpool_576.txt	LTP310	ltpFR2	18	16	PUDDLE	1140	n/a	n/a	0	0	0
3451.376	n/a	WORD	1725688	wordpools/wasnorm_wordpool_576.txt	LTP310	ltpFR2	18	16	NOMAD	955	n/a	n/a	0	0	0
3454.068	n/a	WORD	1727034	wordpools/wasnorm_wordpool_576.txt	LTP310	ltpFR2	18	16	OFFICE	972	n/a	n/a	0	0	0
3456.57	n/a	WORD	1728285	wordpools/wasnorm_wordpool_576.txt	LTP310	ltpFR2	18	16	TYPIST	1532	n/a	n/a	0	0	0
3459.356	n/a	WORD	1729678	wordpools/wasnorm_wordpool_576.txt	LTP310	ltpFR2	18	16	DRUG	501	n/a	n/a	0	0	0
3461.824	n/a	WORD	1730912	wordpools/wasnorm_wordpool_576.txt	LTP310	ltpFR2	18	16	BELLY	119	n/a	n/a	0	0	0
3464.47	n/a	WORD	1732235	wordpools/wasnorm_wordpool_576.txt	LTP310	ltpFR2	18	16	HUMAN	726	n/a	n/a	0	0	0
3467.056	n/a	WORD	1733528	wordpools/wasnorm_wordpool_576.txt	LTP310	ltpFR2	18	16	KIDNEY	776	n/a	n/a	0	0	0
3469.482	n/a	WORD	1734741	wordpools/wasnorm_wordpool_576.txt	LTP310	ltpFR2	18	16	FLAG	573	n/a	n/a	0	0	0
3472.242	n/a	WORD	1736121	wordpools/wasnorm_wordpool_576.txt	LTP310	ltpFR2	18	16	FRIEND	606	n/a	n/a	0	0	0
3474.944	n/a	WORD	1737472	wordpools/wasnorm_wordpool_576.txt	LTP310	ltpFR2	18	16	PORTRAIT	1111	n/a	n/a	0	0	0
3477.428	n/a	WORD	1738714	wordpools/wasnorm_wordpool_576.txt	LTP310	ltpFR2	18	16	FEMALE	559	n/a	n/a	0	0	0
3480.04	n/a	WORD	1740020	wordpools/wasnorm_wordpool_576.txt	LTP310	ltpFR2	18	16	PALACE	1006	n/a	n/a	0	0	0
3482.548	n/a	WORD	1741274	wordpools/wasnorm_wordpool_576.txt	LTP310	ltpFR2	18	16	PARTNER	1017	n/a	n/a	0	0	0
3484.16	n/a	START	1742080	n/a	LTP310	ltpFR2	18	n/a	n/a	n/a	24	n/a	n/a	n/a	n/a
3485.088	n/a	DISTRACTOR	1742544	n/a	LTP310	ltpFR2	18	16	n/a	n/a	n/a	n/a	0	0	0
3485.094	n/a	PROB	1742547	n/a	LTP310	ltpFR2	18	n/a	n/a	n/a	24	15	2	9	4
3487.118	n/a	PROB	1743559	n/a	LTP310	ltpFR2	18	n/a	n/a	n/a	24	20	6	7	7
3488.786	n/a	PROB	1744393	n/a	LTP310	ltpFR2	18	n/a	n/a	n/a	24	17	3	9	5
3490.454	n/a	PROB	1745227	n/a	LTP310	ltpFR2	18	n/a	n/a	n/a	24	22	4	8	9
3493.224	n/a	PROB	1746612	n/a	LTP310	ltpFR2	18	n/a	n/a	n/a	24	10	5	2	3
3495.126	n/a	PROB	1747563	n/a	LTP310	ltpFR2	18	n/a	n/a	n/a	24	15	5	5	5
3496.376	n/a	PROB	1748188	n/a	LTP310	ltpFR2	18	n/a	n/a	n/a	24	6	4	1	1
3498.194	n/a	PROB	1749097	n/a	LTP310	ltpFR2	18	n/a	n/a	n/a	24	21	9	6	6
3500.096	n/a	PROB	1750048	n/a	LTP310	ltpFR2	18	n/a	n/a	n/a	24	13	8	1	4
3501.614	n/a	PROB	1750807	n/a	LTP310	ltpFR2	18	n/a	n/a	n/a	24	18	4	5	9
3503.284	n/a	PROB	1751642	n/a	LTP310	ltpFR2	18	n/a	n/a	n/a	24	12	4	6	2
3504.7	n/a	PROB	1752350	n/a	LTP310	ltpFR2	18	n/a	n/a	n/a	24	18	3	9	6
3508.16	n/a	STOP	1754080	n/a	LTP310	ltpFR2	18	n/a	n/a	n/a	24	n/a	n/a	n/a	n/a
3510.054	n/a	REC_START	1755027	n/a	LTP310	ltpFR2	18	16	n/a	n/a	n/a	n/a	0	0	0
3520.384	n/a	REC_WORD	1760192	wordpools/wasnorm_wordpool_576.txt	LTP310	ltpFR2	18	16	GAZELLE	628	n/a	n/a	0	0	0
3522.234	n/a	REC_WORD	1761117	wordpools/wasnorm_wordpool_576.txt	LTP310	ltpFR2	18	16	HIGHWAY	707	n/a	n/a	0	0	0
3523.512	n/a	REC_WORD	1761756	wordpools/wasnorm_wordpool_576.txt	LTP310	ltpFR2	18	16	CREVICE	405	n/a	n/a	0	0	0
3525.164	n/a	REC_WORD	1762582	wordpools/wasnorm_wordpool_576.txt	LTP310	ltpFR2	18	16	DANCER	437	n/a	n/a	0	0	0
3526.164	n/a	REC_WORD_VV	1763082	wordpools/wasnorm_wordpool_576.txt	LTP310	ltpFR2	18	16	<>	-1	n/a	n/a	0	0	0
3526.988	n/a	REC_WORD	1763494	wordpools/wasnorm_wordpool_576.txt	LTP310	ltpFR2	18	16	EXPERT	543	n/a	n/a	0	0	0
3528.242	n/a	REC_WORD	1764121	wordpools/wasnorm_wordpool_576.txt	LTP310	ltpFR2	18	16	IDOL	733	n/a	n/a	0	0	0
3529.696	n/a	REC_WORD	1764848	wordpools/wasnorm_wordpool_576.txt	LTP310	ltpFR2	18	16	WOMAN	1620	n/a	n/a	0	0	0
3533.184	n/a	REC_WORD	1766592	wordpools/wasnorm_wordpool_576.txt	LTP310	ltpFR2	18	16	PUDDLE	1140	n/a	n/a	0	0	0
3534.516	n/a	REC_WORD	1767258	wordpools/wasnorm_wordpool_576.txt	LTP310	ltpFR2	18	16	NOMAD	955	n/a	n/a	0	0	0
3535.576	n/a	REC_WORD	1767788	wordpools/wasnorm_wordpool_576.txt	LTP310	ltpFR2	18	16	OFFICE	972	n/a	n/a	0	0	0
3539.246	n/a	REC_WORD	1769623	wordpools/wasnorm_wordpool_576.txt	LTP310	ltpFR2	18	16	TYPIST	1532	n/a	n/a	0	0	0
3542.514	n/a	REC_WORD	1771257	wordpools/wasnorm_wordpool_576.txt	LTP310	ltpFR2	18	16	KIDNEY	776	n/a	n/a	0	0	0
3544.138	n/a	REC_WORD	1772069	wordpools/wasnorm_wordpool_576.txt	LTP310	ltpFR2	18	16	HUMAN	726	n/a	n/a	0	0	0
3545.742	n/a	REC_WORD	1772871	wordpools/wasnorm_wordpool_576.txt	LTP310	ltpFR2	18	16	BELLY	119	n/a	n/a	0	0	0
3550.01	n/a	REC_WORD	1775005	wordpools/wasnorm_wordpool_576.txt	LTP310	ltpFR2	18	16	FLAG	573	n/a	n/a	0	0	0
3551.262	n/a	REC_WORD	1775631	wordpools/wasnorm_wordpool_576.txt	LTP310	ltpFR2	18	16	FRIEND	606	n/a	n/a	0	0	0
3552.476	n/a	REC_WORD	1776238	wordpools/wasnorm_wordpool_576.txt	LTP310	ltpFR2	18	16	PORTRAIT	1111	n/a	n/a	0	0	0
3586.598	n/a	REST_REWET	1793299	n/a	LTP310	ltpFR2	18	16	n/a	n/a	n/a	n/a	0	0	0
3840.496	n/a	DISTRACTOR	1920248	n/a	LTP310	ltpFR2	18	17	n/a	n/a	n/a	n/a	0	0	0
3840.496	n/a	START	1920248	n/a	LTP310	ltpFR2	18	n/a	n/a	n/a	25	n/a	n/a	n/a	n/a
3840.512	n/a	PROB	1920256	n/a	LTP310	ltpFR2	18	n/a	n/a	n/a	25	20	9	6	5
3842.33	n/a	PROB	1921165	n/a	LTP310	ltpFR2	18	n/a	n/a	n/a	25	13	5	7	6
3843.914	n/a	PROB	1921957	n/a	LTP310	ltpFR2	18	n/a	n/a	n/a	25	10	2	1	7
3845.45	n/a	PROB	1922725	n/a	LTP310	ltpFR2	18	n/a	n/a	n/a	25	17	7	9	1
3846.882	n/a	PROB	1923441	n/a	LTP310	ltpFR2	18	n/a	n/a	n/a	25	22	9	9	4
3848.868	n/a	PROB	1924434	n/a	LTP310	ltpFR2	18	n/a	n/a	n/a	25	14	7	5	2
3850.72	n/a	PROB	1925360	n/a	LTP310	ltpFR2	18	n/a	n/a	n/a	25	12	4	4	4
3851.97	n/a	PROB	1925985	n/a	LTP310	ltpFR2	18	n/a	n/a	n/a	25	9	6	1	2
3853.956	n/a	PROB	1926978	n/a	LTP310	ltpFR2	18	n/a	n/a	n/a	25	17	5	5	7
3855.356	n/a	PROB	1927678	n/a	LTP310	ltpFR2	18	n/a	n/a	n/a	25	21	9	3	9
3857.224	n/a	PROB	1928612	n/a	LTP310	ltpFR2	18	n/a	n/a	n/a	25	23	9	8	6
3859.21	n/a	PROB	1929605	n/a	LTP310	ltpFR2	18	n/a	n/a	n/a	25	18	3	9	6
3860.928	n/a	PROB	1930464	n/a	LTP310	ltpFR2	18	n/a	n/a	n/a	25	24	9	6	9
3863.262	n/a	STOP	1931631	n/a	LTP310	ltpFR2	18	n/a	n/a	n/a	25	n/a	n/a	n/a	n/a
3865.332	n/a	WORD	1932666	wordpools/wasnorm_wordpool_576.txt	LTP310	ltpFR2	18	17	BLUEPRINT	142	n/a	n/a	0	0	0
3868.084	n/a	WORD	1934042	wordpools/wasnorm_wordpool_576.txt	LTP310	ltpFR2	18	17	TROUT	1511	n/a	n/a	0	0	0
3870.87	n/a	WORD	1935435	wordpools/wasnorm_wordpool_576.txt	LTP310	ltpFR2	18	17	SCALLOP	1242	n/a	n/a	0	0	0
3873.64	n/a	WORD	1936820	wordpools/wasnorm_wordpool_576.txt	LTP310	ltpFR2	18	17	EMPIRE	530	n/a	n/a	0	0	0
3876.174	n/a	WORD	1938087	wordpools/wasnorm_wordpool_576.txt	LTP310	ltpFR2	18	17	LEADER	807	n/a	n/a	0	0	0
3878.926	n/a	WORD	1939463	wordpools/wasnorm_wordpool_576.txt	LTP310	ltpFR2	18	17	CELLAR	267	n/a	n/a	0	0	0
3881.528	n/a	WORD	1940764	wordpools/wasnorm_wordpool_576.txt	LTP310	ltpFR2	18	17	YACHT	1629	n/a	n/a	0	0	0
3884.03	n/a	WORD	1942015	wordpools/wasnorm_wordpool_576.txt	LTP310	ltpFR2	18	17	PADDLE	1000	n/a	n/a	0	0	0
3886.482	n/a	WORD	1943241	wordpools/wasnorm_wordpool_576.txt	LTP310	ltpFR2	18	17	LION	827	n/a	n/a	0	0	0
3888.95	n/a	WORD	1944475	wordpools/wasnorm_wordpool_576.txt	LTP310	ltpFR2	18	17	CLAMP	316	n/a	n/a	0	0	0
3891.452	n/a	WORD	1945726	wordpools/wasnorm_wordpool_576.txt	LTP310	ltpFR2	18	17	CLOTHES	327	n/a	n/a	0	0	0
3894.14	n/a	WORD	1947070	wordpools/wasnorm_wordpool_576.txt	LTP310	ltpFR2	18	17	LOVER	846	n/a	n/a	0	0	0
3896.756	n/a	WORD	1948378	wordpools/wasnorm_wordpool_576.txt	LTP310	ltpFR2	18	17	CHAMPAGNE	278	n/a	n/a	0	0	0
3899.312	n/a	WORD	1949656	wordpools/wasnorm_wordpool_576.txt	LTP310	ltpFR2	18	17	CIGAR	308	n/a	n/a	0	0	0
3902.098	n/a	WORD	1951049	wordpools/wasnorm_wordpool_576.txt	LTP310	ltpFR2	18	17	CATCHER	258	n/a	n/a	0	0	0
3904.602	n/a	WORD	1952301	wordpools/wasnorm_wordpool_576.txt	LTP310	ltpFR2	18	17	LODGE	839	n/a	n/a	0	0	0
3907.248	n/a	WORD	1953624	wordpools/wasnorm_wordpool_576.txt	LTP310	ltpFR2	18	17	LUMBER	848	n/a	n/a	0	0	0
3909.684	n/a	WORD	1954842	wordpools/wasnorm_wordpool_576.txt	LTP310	ltpFR2	18	17	SOFTBALL	1343	n/a	n/a	0	0	0
3912.268	n/a	WORD	1956134	wordpools/wasnorm_wordpool_576.txt	LTP310	ltpFR2	18	17	SPARROW	1347	n/a	n/a	0	0	0
3915.086	n/a	WORD	1957543	wordpools/wasnorm_wordpool_576.txt	LTP310	ltpFR2	18	17	BUREAU	199	n/a	n/a	0	0	0
3917.888	n/a	WORD	1958944	wordpools/wasnorm_wordpool_576.txt	LTP310	ltpFR2	18	17	CLAM	315	n/a	n/a	0	0	0
3920.34	n/a	WORD	1960170	wordpools/wasnorm_wordpool_576.txt	LTP310	ltpFR2	18	17	SCARF	1246	n/a	n/a	0	0	0
3922.998	n/a	WORD	1961499	wordpools/wasnorm_wordpool_576.txt	LTP310	ltpFR2	18	17	TART	1436	n/a	n/a	0	0	0
3925.596	n/a	WORD	1962798	wordpools/wasnorm_wordpool_576.txt	LTP310	ltpFR2	18	17	ROBOT	1200	n/a	n/a	0	0	0
3927.202	n/a	START	1963601	n/a	LTP310	ltpFR2	18	n/a	n/a	n/a	26	n/a	n/a	n/a	n/a
3928.026	n/a	DISTRACTOR	1964013	n/a	LTP310	ltpFR2	18	17	n/a	n/a	n/a	n/a	0	0	0
3928.036	n/a	PROB	1964018	n/a	LTP310	ltpFR2	18	n/a	n/a	n/a	26	16	8	3	5
3930.33	n/a	PROB	1965165	n/a	LTP310	ltpFR2	18	n/a	n/a	n/a	26	17	9	6	2
3932.166	n/a	PROB	1966083	n/a	LTP310	ltpFR2	18	n/a	n/a	n/a	26	17	5	3	9
3933.816	n/a	PROB	1966908	n/a	LTP310	ltpFR2	18	n/a	n/a	n/a	26	23	7	8	8
3935.52	n/a	PROB	1967760	n/a	LTP310	ltpFR2	18	n/a	n/a	n/a	26	13	7	1	5
3937.688	n/a	PROB	1968844	n/a	LTP310	ltpFR2	18	n/a	n/a	n/a	26	22	5	4	8
3939.39	n/a	PROB	1969695	n/a	LTP310	ltpFR2	18	n/a	n/a	n/a	26	15	7	7	6
3942.158	n/a	PROB	1971079	n/a	LTP310	ltpFR2	18	n/a	n/a	n/a	26	17	6	3	8
3943.792	n/a	PROB	1971896	n/a	LTP310	ltpFR2	18	n/a	n/a	n/a	26	16	1	7	8
3945.494	n/a	PROB	1972747	n/a	LTP310	ltpFR2	18	n/a	n/a	n/a	26	24	8	9	7
3948.062	n/a	PROB	1974031	n/a	LTP310	ltpFR2	18	n/a	n/a	n/a	26	12	8	1	3
3951.168	n/a	STOP	1975584	n/a	LTP310	ltpFR2	18	n/a	n/a	n/a	26	n/a	n/a	n/a	n/a
3953.016	n/a	REC_START	1976508	n/a	LTP310	ltpFR2	18	17	n/a	n/a	n/a	n/a	0	0	0
3956.1	n/a	REC_WORD	1978050	wordpools/wasnorm_wordpool_576.txt	LTP310	ltpFR2	18	17	BLUEPRINT	142	n/a	n/a	0	0	0
3957.1	n/a	REC_WORD_VV	1978550	wordpools/wasnorm_wordpool_576.txt	LTP310	ltpFR2	18	17	<>	-1	n/a	n/a	0	0	0
3957.574	n/a	REC_WORD	1978787	wordpools/wasnorm_wordpool_576.txt	LTP310	ltpFR2	18	17	EMPIRE	530	n/a	n/a	0	0	0
3959.266	n/a	REC_WORD	1979633	wordpools/wasnorm_wordpool_576.txt	LTP310	ltpFR2	18	17	TROUT	1511	n/a	n/a	0	0	0
3960.15	n/a	REC_WORD	1980075	wordpools/wasnorm_wordpool_576.txt	LTP310	ltpFR2	18	17	SCALLOP	1242	n/a	n/a	0	0	0
3961.15	n/a	REC_WORD_VV	1980575	wordpools/wasnorm_wordpool_576.txt	LTP310	ltpFR2	18	17	<>	-1	n/a	n/a	0	0	0
3963.132	n/a	REC_WORD	1981566	wordpools/wasnorm_wordpool_576.txt	LTP310	ltpFR2	18	17	CELLAR	267	n/a	n/a	0	0	0
3964.512	n/a	REC_WORD	1982256	wordpools/wasnorm_wordpool_576.txt	LTP310	ltpFR2	18	17	YACHT	1629	n/a	n/a	0	0	0
3968.118	n/a	REC_WORD	1984059	wordpools/wasnorm_wordpool_576.txt	LTP310	ltpFR2	18	17	LEADER	807	n/a	n/a	0	0	0
3972.02	n/a	REC_WORD	1986010	wordpools/wasnorm_wordpool_576.txt	LTP310	ltpFR2	18	17	PADDLE	1000	n/a	n/a	0	0	0
3972.782	n/a	REC_WORD	1986391	wordpools/wasnorm_wordpool_576.txt	LTP310	ltpFR2	18	17	LION	827	n/a	n/a	0	0	0
3974.67	n/a	REC_WORD	1987335	wordpools/wasnorm_wordpool_576.txt	LTP310	ltpFR2	18	17	CHAMPAGNE	278	n/a	n/a	0	0	0
3975.682	n/a	REC_WORD	1987841	wordpools/wasnorm_wordpool_576.txt	LTP310	ltpFR2	18	17	CIGAR	308	n/a	n/a	0	0	0
3977.344	n/a	REC_WORD	1988672	wordpools/wasnorm_wordpool_576.txt	LTP310	ltpFR2	18	17	LOVER	846	n/a	n/a	0	0	0
3978.598	n/a	REC_WORD	1989299	wordpools/wasnorm_wordpool_576.txt	LTP310	ltpFR2	18	17	CLOTHES	327	n/a	n/a	0	0	0
3981.876	n/a	REC_WORD	1990938	wordpools/wasnorm_wordpool_576.txt	LTP310	ltpFR2	18	17	CLAMP	316	n/a	n/a	0	0	0
3990.63	n/a	REC_WORD	1995315	wordpools/wasnorm_wordpool_576.txt	LTP310	ltpFR2	18	17	SPARROW	1347	n/a	n/a	0	0	0
3992.398	n/a	REC_WORD	1996199	wordpools/wasnorm_wordpool_576.txt	LTP310	ltpFR2	18	17	BUREAU	199	n/a	n/a	0	0	0
3996.858	n/a	REC_WORD	1998429	wordpools/wasnorm_wordpool_576.txt	LTP310	ltpFR2	18	17	TART	1436	n/a	n/a	0	0	0
3999.192	n/a	REC_WORD	1999596	wordpools/wasnorm_wordpool_576.txt	LTP310	ltpFR2	18	17	CLAM	315	n/a	n/a	0	0	0
