onset	duration	trial_type	sample	stim_file	subject	experiment	session	trial	task	item_name	item_num	recog_resp	recog_conf	resp	answer	test_x	test_y	test_z	color_r	color_g	color_b	case	font
213.07	n/a	SESS_START	106535	n/a	LTP211	ltpFR	11	n/a	n/a	n/a	n/a	0	5	n/a	n/a	0	0	0	n/a	n/a	n/a	n/a	n/a
236.118	n/a	START	118059	n/a	LTP211	ltpFR	11	n/a	n/a	n/a	n/a	n/a	n/a	n/a	n/a	n/a	n/a	n/a	n/a	n/a	n/a	n/a	n/a
236.15	n/a	PROB	118075	n/a	LTP211	ltpFR	11	n/a	n/a	n/a	n/a	n/a	n/a	n/a	10	1	5	4	n/a	n/a	n/a	n/a	n/a
239.644	n/a	PROB	119822	n/a	LTP211	ltpFR	11	n/a	n/a	n/a	n/a	n/a	n/a	n/a	20	8	4	8	n/a	n/a	n/a	n/a	n/a
241.36	n/a	PROB	120680	n/a	LTP211	ltpFR	11	n/a	n/a	n/a	n/a	n/a	n/a	n/a	23	7	7	9	n/a	n/a	n/a	n/a	n/a
243.256	n/a	PROB	121628	n/a	LTP211	ltpFR	11	n/a	n/a	n/a	n/a	n/a	n/a	n/a	19	3	7	9	n/a	n/a	n/a	n/a	n/a
244.738	n/a	PROB	122369	n/a	LTP211	ltpFR	11	n/a	n/a	n/a	n/a	n/a	n/a	n/a	20	8	4	8	n/a	n/a	n/a	n/a	n/a
246.268	n/a	PROB	123134	n/a	LTP211	ltpFR	11	n/a	n/a	n/a	n/a	n/a	n/a	n/a	25	8	8	9	n/a	n/a	n/a	n/a	n/a
248.68	n/a	PROB	124340	n/a	LTP211	ltpFR	11	n/a	n/a	n/a	n/a	n/a	n/a	n/a	12	6	3	3	n/a	n/a	n/a	n/a	n/a
251.112	n/a	PROB	125556	n/a	LTP211	ltpFR	11	n/a	n/a	n/a	n/a	n/a	n/a	n/a	12	3	8	1	n/a	n/a	n/a	n/a	n/a
252.826	n/a	PROB	126413	n/a	LTP211	ltpFR	11	n/a	n/a	n/a	n/a	n/a	n/a	n/a	11	2	8	1	n/a	n/a	n/a	n/a	n/a
256.118	n/a	STOP	128059	n/a	LTP211	ltpFR	11	n/a	n/a	n/a	n/a	n/a	n/a	n/a	n/a	n/a	n/a	n/a	n/a	n/a	n/a	n/a	n/a
280.086	n/a	START	140043	n/a	LTP211	ltpFR	11	n/a	n/a	n/a	n/a	n/a	n/a	n/a	n/a	n/a	n/a	n/a	n/a	n/a	n/a	n/a	n/a
281.598	n/a	PROB	140799	n/a	LTP211	ltpFR	11	n/a	n/a	n/a	n/a	n/a	n/a	n/a	17	2	8	7	n/a	n/a	n/a	n/a	n/a
283.098	n/a	PROB	141549	n/a	LTP211	ltpFR	11	n/a	n/a	n/a	n/a	n/a	n/a	n/a	10	1	5	4	n/a	n/a	n/a	n/a	n/a
285.544	n/a	PROB	142772	n/a	LTP211	ltpFR	11	n/a	n/a	n/a	n/a	n/a	n/a	n/a	20	8	4	8	n/a	n/a	n/a	n/a	n/a
287.472	n/a	STOP	143736	n/a	LTP211	ltpFR	11	n/a	n/a	n/a	n/a	n/a	n/a	n/a	n/a	n/a	n/a	n/a	n/a	n/a	n/a	n/a	n/a
288.99	n/a	WORD	144495	wordpools/wasnorm_wordpool_less_exclusions.txt	LTP211	ltpFR	11	1	1	LADY	794	1	1	0	n/a	0	0	0	0.422607421875	0.5869140625	0	upper	zerothre.ttf
292.002	n/a	START	146001	n/a	LTP211	ltpFR	11	n/a	n/a	n/a	n/a	n/a	n/a	n/a	n/a	n/a	n/a	n/a	n/a	n/a	n/a	n/a	n/a
293.016	n/a	PROB	146508	n/a	LTP211	ltpFR	11	n/a	n/a	n/a	n/a	n/a	n/a	n/a	21	8	8	5	n/a	n/a	n/a	n/a	n/a
295.812	n/a	PROB	147906	n/a	LTP211	ltpFR	11	n/a	n/a	n/a	n/a	n/a	n/a	n/a	6	2	2	2	n/a	n/a	n/a	n/a	n/a
297.128	n/a	PROB	148564	n/a	LTP211	ltpFR	11	n/a	n/a	n/a	n/a	n/a	n/a	n/a	12	3	3	6	n/a	n/a	n/a	n/a	n/a
300.002	n/a	STOP	150001	n/a	LTP211	ltpFR	11	n/a	n/a	n/a	n/a	n/a	n/a	n/a	n/a	n/a	n/a	n/a	n/a	n/a	n/a	n/a	n/a
300.972	n/a	WORD	150486	wordpools/wasnorm_wordpool_less_exclusions.txt	LTP211	ltpFR	11	1	1	CHEERLEADER	288	0	n/a	1	n/a	0	0	0	0.422607421875	0.5869140625	0	upper	zerothre.ttf
303.984	n/a	START	151992	n/a	LTP211	ltpFR	11	n/a	n/a	n/a	n/a	n/a	n/a	n/a	n/a	n/a	n/a	n/a	n/a	n/a	n/a	n/a	n/a
304.8	n/a	PROB	152400	n/a	LTP211	ltpFR	11	n/a	n/a	n/a	n/a	n/a	n/a	n/a	18	8	7	3	n/a	n/a	n/a	n/a	n/a
306.396	n/a	PROB	153198	n/a	LTP211	ltpFR	11	n/a	n/a	n/a	n/a	n/a	n/a	n/a	21	9	9	3	n/a	n/a	n/a	n/a	n/a
309.408	n/a	PROB	154704	n/a	LTP211	ltpFR	11	n/a	n/a	n/a	n/a	n/a	n/a	n/a	10	1	2	7	n/a	n/a	n/a	n/a	n/a
310.662	n/a	STOP	155331	n/a	LTP211	ltpFR	11	n/a	n/a	n/a	n/a	n/a	n/a	n/a	n/a	n/a	n/a	n/a	n/a	n/a	n/a	n/a	n/a
312.87	n/a	WORD	156435	wordpools/wasnorm_wordpool_less_exclusions.txt	LTP211	ltpFR	11	1	1	BUFFALO	186	n/a	n/a	1	n/a	0	0	0	0.422607421875	0.5869140625	0	upper	zerothre.ttf
315.884	n/a	START	157942	n/a	LTP211	ltpFR	11	n/a	n/a	n/a	n/a	n/a	n/a	n/a	n/a	n/a	n/a	n/a	n/a	n/a	n/a	n/a	n/a
316.748	n/a	PROB	158374	n/a	LTP211	ltpFR	11	n/a	n/a	n/a	n/a	n/a	n/a	n/a	16	8	2	6	n/a	n/a	n/a	n/a	n/a
318.462	n/a	PROB	159231	n/a	LTP211	ltpFR	11	n/a	n/a	n/a	n/a	n/a	n/a	n/a	17	6	9	2	n/a	n/a	n/a	n/a	n/a
320.476	n/a	PROB	160238	n/a	LTP211	ltpFR	11	n/a	n/a	n/a	n/a	n/a	n/a	n/a	17	5	5	7	n/a	n/a	n/a	n/a	n/a
321.758	n/a	PROB	160879	n/a	LTP211	ltpFR	11	n/a	n/a	n/a	n/a	n/a	n/a	n/a	19	9	5	5	n/a	n/a	n/a	n/a	n/a
323.12	n/a	STOP	161560	n/a	LTP211	ltpFR	11	n/a	n/a	n/a	n/a	n/a	n/a	n/a	n/a	n/a	n/a	n/a	n/a	n/a	n/a	n/a	n/a
324.852	n/a	WORD	162426	wordpools/wasnorm_wordpool_less_exclusions.txt	LTP211	ltpFR	11	1	1	SPIDER	1351	n/a	n/a	1	n/a	0	0	0	0.422607421875	0.5869140625	0	upper	zerothre.ttf
327.866	n/a	START	163933	n/a	LTP211	ltpFR	11	n/a	n/a	n/a	n/a	n/a	n/a	n/a	n/a	n/a	n/a	n/a	n/a	n/a	n/a	n/a	n/a
328.946	n/a	PROB	164473	n/a	LTP211	ltpFR	11	n/a	n/a	n/a	n/a	n/a	n/a	n/a	10	4	4	2	n/a	n/a	n/a	n/a	n/a
330.728	n/a	PROB	165364	n/a	LTP211	ltpFR	11	n/a	n/a	n/a	n/a	n/a	n/a	n/a	14	7	2	5	n/a	n/a	n/a	n/a	n/a
332.324	n/a	PROB	166162	n/a	LTP211	ltpFR	11	n/a	n/a	n/a	n/a	n/a	n/a	n/a	18	4	8	6	n/a	n/a	n/a	n/a	n/a
333.906	n/a	PROB	166953	n/a	LTP211	ltpFR	11	n/a	n/a	n/a	n/a	n/a	n/a	n/a	17	4	6	7	n/a	n/a	n/a	n/a	n/a
335.352	n/a	STOP	167676	n/a	LTP211	ltpFR	11	n/a	n/a	n/a	n/a	n/a	n/a	n/a	n/a	n/a	n/a	n/a	n/a	n/a	n/a	n/a	n/a
336.752	n/a	WORD	168376	wordpools/wasnorm_wordpool_less_exclusions.txt	LTP211	ltpFR	11	1	1	ICING	732	n/a	n/a	0	n/a	0	0	0	0.422607421875	0.5869140625	0	upper	zerothre.ttf
339.764	n/a	START	169882	n/a	LTP211	ltpFR	11	n/a	n/a	n/a	n/a	n/a	n/a	n/a	n/a	n/a	n/a	n/a	n/a	n/a	n/a	n/a	n/a
340.878	n/a	PROB	170439	n/a	LTP211	ltpFR	11	n/a	n/a	n/a	n/a	n/a	n/a	n/a	20	5	7	8	n/a	n/a	n/a	n/a	n/a
342.692	n/a	PROB	171346	n/a	LTP211	ltpFR	11	n/a	n/a	n/a	n/a	n/a	n/a	n/a	4	1	1	2	n/a	n/a	n/a	n/a	n/a
343.874	n/a	PROB	171937	n/a	LTP211	ltpFR	11	n/a	n/a	n/a	n/a	n/a	n/a	n/a	16	7	3	6	n/a	n/a	n/a	n/a	n/a
345.106	n/a	PROB	172553	n/a	LTP211	ltpFR	11	n/a	n/a	n/a	n/a	n/a	n/a	n/a	11	1	8	2	n/a	n/a	n/a	n/a	n/a
346.392	n/a	STOP	173196	n/a	LTP211	ltpFR	11	n/a	n/a	n/a	n/a	n/a	n/a	n/a	n/a	n/a	n/a	n/a	n/a	n/a	n/a	n/a	n/a
348.9	n/a	WORD	174450	wordpools/wasnorm_wordpool_less_exclusions.txt	LTP211	ltpFR	11	1	1	CLAY	320	n/a	n/a	0	n/a	0	0	0	0.422607421875	0.5869140625	0	upper	zerothre.ttf
351.912	n/a	START	175956	n/a	LTP211	ltpFR	11	n/a	n/a	n/a	n/a	n/a	n/a	n/a	n/a	n/a	n/a	n/a	n/a	n/a	n/a	n/a	n/a
352.928	n/a	PROB	176464	n/a	LTP211	ltpFR	11	n/a	n/a	n/a	n/a	n/a	n/a	n/a	16	1	7	8	n/a	n/a	n/a	n/a	n/a
354.742	n/a	PROB	177371	n/a	LTP211	ltpFR	11	n/a	n/a	n/a	n/a	n/a	n/a	n/a	18	1	9	8	n/a	n/a	n/a	n/a	n/a
356.19	n/a	PROB	178095	n/a	LTP211	ltpFR	11	n/a	n/a	n/a	n/a	n/a	n/a	n/a	21	5	8	8	n/a	n/a	n/a	n/a	n/a
359.544	n/a	STOP	179772	n/a	LTP211	ltpFR	11	n/a	n/a	n/a	n/a	n/a	n/a	n/a	n/a	n/a	n/a	n/a	n/a	n/a	n/a	n/a	n/a
360.916	n/a	WORD	180458	wordpools/wasnorm_wordpool_less_exclusions.txt	LTP211	ltpFR	11	1	1	SEA	1259	n/a	n/a	0	n/a	0	0	0	0.422607421875	0.5869140625	0	upper	zerothre.ttf
363.928	n/a	START	181964	n/a	LTP211	ltpFR	11	n/a	n/a	n/a	n/a	n/a	n/a	n/a	n/a	n/a	n/a	n/a	n/a	n/a	n/a	n/a	n/a
365.11	n/a	PROB	182555	n/a	LTP211	ltpFR	11	n/a	n/a	n/a	n/a	n/a	n/a	n/a	10	7	1	2	n/a	n/a	n/a	n/a	n/a
367.224	n/a	PROB	183612	n/a	LTP211	ltpFR	11	n/a	n/a	n/a	n/a	n/a	n/a	n/a	20	2	9	9	n/a	n/a	n/a	n/a	n/a
371.92	n/a	STOP	185960	n/a	LTP211	ltpFR	11	n/a	n/a	n/a	n/a	n/a	n/a	n/a	n/a	n/a	n/a	n/a	n/a	n/a	n/a	n/a	n/a
372.848	n/a	WORD	186424	wordpools/wasnorm_wordpool_less_exclusions.txt	LTP211	ltpFR	11	1	1	BAY	102	n/a	n/a	0	n/a	0	0	0	0.422607421875	0.5869140625	0	upper	zerothre.ttf
375.862	n/a	START	187931	n/a	LTP211	ltpFR	11	n/a	n/a	n/a	n/a	n/a	n/a	n/a	n/a	n/a	n/a	n/a	n/a	n/a	n/a	n/a	n/a
377.026	n/a	PROB	188513	n/a	LTP211	ltpFR	11	n/a	n/a	n/a	n/a	n/a	n/a	n/a	21	8	9	5	n/a	n/a	n/a	n/a	n/a
383.862	n/a	STOP	191931	n/a	LTP211	ltpFR	11	n/a	n/a	n/a	n/a	n/a	n/a	n/a	n/a	n/a	n/a	n/a	n/a	n/a	n/a	n/a	n/a
384.898	n/a	WORD	192449	wordpools/wasnorm_wordpool_less_exclusions.txt	LTP211	ltpFR	11	1	1	CHICK	296	n/a	n/a	1	n/a	0	0	0	0.422607421875	0.5869140625	0	upper	zerothre.ttf
387.91	n/a	START	193955	n/a	LTP211	ltpFR	11	n/a	n/a	n/a	n/a	n/a	n/a	n/a	n/a	n/a	n/a	n/a	n/a	n/a	n/a	n/a	n/a
388.724	n/a	PROB	194362	n/a	LTP211	ltpFR	11	n/a	n/a	n/a	n/a	n/a	n/a	n/a	12	4	7	1	n/a	n/a	n/a	n/a	n/a
390.688	n/a	PROB	195344	n/a	LTP211	ltpFR	11	n/a	n/a	n/a	n/a	n/a	n/a	n/a	12	1	9	2	n/a	n/a	n/a	n/a	n/a
392.036	n/a	PROB	196018	n/a	LTP211	ltpFR	11	n/a	n/a	n/a	n/a	n/a	n/a	n/a	11	3	3	5	n/a	n/a	n/a	n/a	n/a
395.91	n/a	STOP	197955	n/a	LTP211	ltpFR	11	n/a	n/a	n/a	n/a	n/a	n/a	n/a	n/a	n/a	n/a	n/a	n/a	n/a	n/a	n/a	n/a
397.062	n/a	WORD	198531	wordpools/wasnorm_wordpool_less_exclusions.txt	LTP211	ltpFR	11	1	1	ROOST	1208	n/a	n/a	0	n/a	0	0	0	0.422607421875	0.5869140625	0	upper	zerothre.ttf
400.074	n/a	START	200037	n/a	LTP211	ltpFR	11	n/a	n/a	n/a	n/a	n/a	n/a	n/a	n/a	n/a	n/a	n/a	n/a	n/a	n/a	n/a	n/a
401.056	n/a	PROB	200528	n/a	LTP211	ltpFR	11	n/a	n/a	n/a	n/a	n/a	n/a	n/a	14	4	9	1	n/a	n/a	n/a	n/a	n/a
403.584	n/a	PROB	201792	n/a	LTP211	ltpFR	11	n/a	n/a	n/a	n/a	n/a	n/a	n/a	17	8	7	2	n/a	n/a	n/a	n/a	n/a
405.35	n/a	PROB	202675	n/a	LTP211	ltpFR	11	n/a	n/a	n/a	n/a	n/a	n/a	n/a	11	9	1	1	n/a	n/a	n/a	n/a	n/a
407.304	n/a	STOP	203652	n/a	LTP211	ltpFR	11	n/a	n/a	n/a	n/a	n/a	n/a	n/a	n/a	n/a	n/a	n/a	n/a	n/a	n/a	n/a	n/a
409.278	n/a	WORD	204639	wordpools/wasnorm_wordpool_less_exclusions.txt	LTP211	ltpFR	11	1	1	FOX	598	n/a	n/a	1	n/a	0	0	0	0.422607421875	0.5869140625	0	upper	zerothre.ttf
412.29	n/a	START	206145	n/a	LTP211	ltpFR	11	n/a	n/a	n/a	n/a	n/a	n/a	n/a	n/a	n/a	n/a	n/a	n/a	n/a	n/a	n/a	n/a
413.106	n/a	PROB	206553	n/a	LTP211	ltpFR	11	n/a	n/a	n/a	n/a	n/a	n/a	n/a	16	4	7	5	n/a	n/a	n/a	n/a	n/a
415.168	n/a	PROB	207584	n/a	LTP211	ltpFR	11	n/a	n/a	n/a	n/a	n/a	n/a	n/a	14	3	2	9	n/a	n/a	n/a	n/a	n/a
417.298	n/a	PROB	208649	n/a	LTP211	ltpFR	11	n/a	n/a	n/a	n/a	n/a	n/a	n/a	13	3	9	1	n/a	n/a	n/a	n/a	n/a
418.73	n/a	PROB	209365	n/a	LTP211	ltpFR	11	n/a	n/a	n/a	n/a	n/a	n/a	n/a	15	2	5	8	n/a	n/a	n/a	n/a	n/a
420.24	n/a	STOP	210120	n/a	LTP211	ltpFR	11	n/a	n/a	n/a	n/a	n/a	n/a	n/a	n/a	n/a	n/a	n/a	n/a	n/a	n/a	n/a	n/a
421.21	n/a	WORD	210605	wordpools/wasnorm_wordpool_less_exclusions.txt	LTP211	ltpFR	11	1	1	CERAMICS	271	n/a	n/a	0	n/a	0	0	0	0.422607421875	0.5869140625	0	upper	zerothre.ttf
424.222	n/a	START	212111	n/a	LTP211	ltpFR	11	n/a	n/a	n/a	n/a	n/a	n/a	n/a	n/a	n/a	n/a	n/a	n/a	n/a	n/a	n/a	n/a
425.42	n/a	PROB	212710	n/a	LTP211	ltpFR	11	n/a	n/a	n/a	n/a	n/a	n/a	n/a	14	7	3	4	n/a	n/a	n/a	n/a	n/a
426.852	n/a	PROB	213426	n/a	LTP211	ltpFR	11	n/a	n/a	n/a	n/a	n/a	n/a	n/a	17	4	4	9	n/a	n/a	n/a	n/a	n/a
428.614	n/a	PROB	214307	n/a	LTP211	ltpFR	11	n/a	n/a	n/a	n/a	n/a	n/a	n/a	10	3	3	4	n/a	n/a	n/a	n/a	n/a
432.224	n/a	STOP	216112	n/a	LTP211	ltpFR	11	n/a	n/a	n/a	n/a	n/a	n/a	n/a	n/a	n/a	n/a	n/a	n/a	n/a	n/a	n/a	n/a
433.426	n/a	WORD	216713	wordpools/wasnorm_wordpool_less_exclusions.txt	LTP211	ltpFR	11	1	1	SAUCER	1237	n/a	n/a	0	n/a	0	0	0	0.422607421875	0.5869140625	0	upper	zerothre.ttf
436.438	n/a	START	218219	n/a	LTP211	ltpFR	11	n/a	n/a	n/a	n/a	n/a	n/a	n/a	n/a	n/a	n/a	n/a	n/a	n/a	n/a	n/a	n/a
437.286	n/a	PROB	218643	n/a	LTP211	ltpFR	11	n/a	n/a	n/a	n/a	n/a	n/a	n/a	9	2	1	6	n/a	n/a	n/a	n/a	n/a
440.398	n/a	PROB	220199	n/a	LTP211	ltpFR	11	n/a	n/a	n/a	n/a	n/a	n/a	n/a	18	6	7	5	n/a	n/a	n/a	n/a	n/a
442.906	n/a	STOP	221453	n/a	LTP211	ltpFR	11	n/a	n/a	n/a	n/a	n/a	n/a	n/a	n/a	n/a	n/a	n/a	n/a	n/a	n/a	n/a	n/a
445.458	n/a	WORD	222729	wordpools/wasnorm_wordpool_less_exclusions.txt	LTP211	ltpFR	11	1	1	COW	393	n/a	n/a	1	n/a	0	0	0	0.422607421875	0.5869140625	0	upper	zerothre.ttf
448.47	n/a	START	224235	n/a	LTP211	ltpFR	11	n/a	n/a	n/a	n/a	n/a	n/a	n/a	n/a	n/a	n/a	n/a	n/a	n/a	n/a	n/a	n/a
449.286	n/a	PROB	224643	n/a	LTP211	ltpFR	11	n/a	n/a	n/a	n/a	n/a	n/a	n/a	21	8	5	8	n/a	n/a	n/a	n/a	n/a
451.448	n/a	PROB	225724	n/a	LTP211	ltpFR	11	n/a	n/a	n/a	n/a	n/a	n/a	n/a	15	2	5	8	n/a	n/a	n/a	n/a	n/a
452.996	n/a	PROB	226498	n/a	LTP211	ltpFR	11	n/a	n/a	n/a	n/a	n/a	n/a	n/a	7	3	1	3	n/a	n/a	n/a	n/a	n/a
455.186	n/a	STOP	227593	n/a	LTP211	ltpFR	11	n/a	n/a	n/a	n/a	n/a	n/a	n/a	n/a	n/a	n/a	n/a	n/a	n/a	n/a	n/a	n/a
457.588	n/a	WORD	228794	wordpools/wasnorm_wordpool_less_exclusions.txt	LTP211	ltpFR	11	1	1	APE	31	n/a	n/a	1	n/a	0	0	0	0.422607421875	0.5869140625	0	upper	zerothre.ttf
460.602	n/a	START	230301	n/a	LTP211	ltpFR	11	n/a	n/a	n/a	n/a	n/a	n/a	n/a	n/a	n/a	n/a	n/a	n/a	n/a	n/a	n/a	n/a
461.434	n/a	PROB	230717	n/a	LTP211	ltpFR	11	n/a	n/a	n/a	n/a	n/a	n/a	n/a	13	3	5	5	n/a	n/a	n/a	n/a	n/a
462.866	n/a	PROB	231433	n/a	LTP211	ltpFR	11	n/a	n/a	n/a	n/a	n/a	n/a	n/a	24	6	9	9	n/a	n/a	n/a	n/a	n/a
465.71	n/a	PROB	232855	n/a	LTP211	ltpFR	11	n/a	n/a	n/a	n/a	n/a	n/a	n/a	18	2	8	8	n/a	n/a	n/a	n/a	n/a
466.958	n/a	PROB	233479	n/a	LTP211	ltpFR	11	n/a	n/a	n/a	n/a	n/a	n/a	n/a	16	9	3	4	n/a	n/a	n/a	n/a	n/a
468.514	n/a	STOP	234257	n/a	LTP211	ltpFR	11	n/a	n/a	n/a	n/a	n/a	n/a	n/a	n/a	n/a	n/a	n/a	n/a	n/a	n/a	n/a	n/a
469.488	n/a	WORD	234744	wordpools/wasnorm_wordpool_less_exclusions.txt	LTP211	ltpFR	11	1	1	MINT	898	n/a	n/a	0	n/a	0	0	0	0.422607421875	0.5869140625	0	upper	zerothre.ttf
472.5	n/a	START	236250	n/a	LTP211	ltpFR	11	n/a	n/a	n/a	n/a	n/a	n/a	n/a	n/a	n/a	n/a	n/a	n/a	n/a	n/a	n/a	n/a
473.664	n/a	PROB	236832	n/a	LTP211	ltpFR	11	n/a	n/a	n/a	n/a	n/a	n/a	n/a	19	6	9	4	n/a	n/a	n/a	n/a	n/a
475.412	n/a	PROB	237706	n/a	LTP211	ltpFR	11	n/a	n/a	n/a	n/a	n/a	n/a	n/a	23	8	6	9	n/a	n/a	n/a	n/a	n/a
477.942	n/a	PROB	238971	n/a	LTP211	ltpFR	11	n/a	n/a	n/a	n/a	n/a	n/a	n/a	18	2	8	2	n/a	n/a	n/a	n/a	n/a
479.162	n/a	STOP	239581	n/a	LTP211	ltpFR	11	n/a	n/a	n/a	n/a	n/a	n/a	n/a	n/a	n/a	n/a	n/a	n/a	n/a	n/a	n/a	n/a
482.336	n/a	REC_START	241168	n/a	LTP211	ltpFR	11	1	n/a	n/a	n/a	n/a	n/a	n/a	n/a	0	0	0	n/a	n/a	n/a	n/a	n/a
484.72	n/a	REC_WORD	242360	wordpools/wasnorm_wordpool_less_exclusions.txt	LTP211	ltpFR	11	1	1	LADY	794	n/a	n/a	0	n/a	0	0	0	n/a	n/a	n/a	n/a	n/a
485.768	n/a	REC_WORD	242884	wordpools/wasnorm_wordpool_less_exclusions.txt	LTP211	ltpFR	11	1	1	CHEERLEADER	288	n/a	n/a	1	n/a	0	0	0	n/a	n/a	n/a	n/a	n/a
488.672	n/a	REC_WORD	244336	wordpools/wasnorm_wordpool_less_exclusions.txt	LTP211	ltpFR	11	1	1	BUFFALO	186	n/a	n/a	1	n/a	0	0	0	n/a	n/a	n/a	n/a	n/a
489.48	n/a	REC_WORD	244740	wordpools/wasnorm_wordpool_less_exclusions.txt	LTP211	ltpFR	11	1	1	SPIDER	1351	n/a	n/a	1	n/a	0	0	0	n/a	n/a	n/a	n/a	n/a
490.808	n/a	REC_WORD	245404	wordpools/wasnorm_wordpool_less_exclusions.txt	LTP211	ltpFR	11	1	1	ICING	732	n/a	n/a	0	n/a	0	0	0	n/a	n/a	n/a	n/a	n/a
491.84	n/a	REC_WORD	245920	wordpools/wasnorm_wordpool_less_exclusions.txt	LTP211	ltpFR	11	1	1	CLAY	320	n/a	n/a	0	n/a	0	0	0	n/a	n/a	n/a	n/a	n/a
493.59	n/a	REC_WORD	246795	wordpools/wasnorm_wordpool_less_exclusions.txt	LTP211	ltpFR	11	1	1	SEA	1259	n/a	n/a	0	n/a	0	0	0	n/a	n/a	n/a	n/a	n/a
494.978	n/a	REC_WORD	247489	wordpools/wasnorm_wordpool_less_exclusions.txt	LTP211	ltpFR	11	1	1	BAY	102	n/a	n/a	0	n/a	0	0	0	n/a	n/a	n/a	n/a	n/a
496.11	n/a	REC_WORD	248055	wordpools/wasnorm_wordpool_less_exclusions.txt	LTP211	ltpFR	11	1	1	CHICK	296	n/a	n/a	1	n/a	0	0	0	n/a	n/a	n/a	n/a	n/a
497.308	n/a	REC_WORD	248654	wordpools/wasnorm_wordpool_less_exclusions.txt	LTP211	ltpFR	11	1	1	ROOST	1208	n/a	n/a	0	n/a	0	0	0	n/a	n/a	n/a	n/a	n/a
498.484	n/a	REC_WORD	249242	wordpools/wasnorm_wordpool_less_exclusions.txt	LTP211	ltpFR	11	1	1	FOX	598	n/a	n/a	1	n/a	0	0	0	n/a	n/a	n/a	n/a	n/a
499.96	n/a	REC_WORD	249980	wordpools/wasnorm_wordpool_less_exclusions.txt	LTP211	ltpFR	11	1	1	CERAMICS	271	n/a	n/a	0	n/a	0	0	0	n/a	n/a	n/a	n/a	n/a
502.23	n/a	REC_WORD	251115	wordpools/wasnorm_wordpool_less_exclusions.txt	LTP211	ltpFR	11	1	1	SAUCER	1237	n/a	n/a	0	n/a	0	0	0	n/a	n/a	n/a	n/a	n/a
505.09	n/a	REC_WORD	252545	wordpools/wasnorm_wordpool_less_exclusions.txt	LTP211	ltpFR	11	1	1	COW	393	n/a	n/a	1	n/a	0	0	0	n/a	n/a	n/a	n/a	n/a
507.864	n/a	REC_WORD	253932	wordpools/wasnorm_wordpool_less_exclusions.txt	LTP211	ltpFR	11	1	1	APE	31	n/a	n/a	1	n/a	0	0	0	n/a	n/a	n/a	n/a	n/a
510.1	n/a	REC_WORD	255050	wordpools/wasnorm_wordpool_less_exclusions.txt	LTP211	ltpFR	11	1	1	MINT	898	n/a	n/a	0	n/a	0	0	0	n/a	n/a	n/a	n/a	n/a
560.088	n/a	WORD	280044	wordpools/wasnorm_wordpool_less_exclusions.txt	LTP211	ltpFR	11	2	0	SWAMP	1416	n/a	n/a	1	n/a	0	0	0	0.57763671875	0.412841796875	1	lower	amplitud.ttf
564.214	n/a	WORD	282107	wordpools/wasnorm_wordpool_less_exclusions.txt	LTP211	ltpFR	11	2	0	SWAN	1417	n/a	n/a	0	n/a	0	0	0	0.57763671875	0.412841796875	1	lower	amplitud.ttf
568.058	n/a	WORD	284029	wordpools/wasnorm_wordpool_less_exclusions.txt	LTP211	ltpFR	11	2	0	BALLERINA	74	n/a	n/a	1	n/a	0	0	0	0.57763671875	0.412841796875	1	lower	amplitud.ttf
572.27	n/a	WORD	286135	wordpools/wasnorm_wordpool_less_exclusions.txt	LTP211	ltpFR	11	2	1	WALL	1582	n/a	n/a	0	n/a	0	0	0	0.422607421875	0.5869140625	0	upper	zerothre.ttf
576.264	n/a	WORD	288132	wordpools/wasnorm_wordpool_less_exclusions.txt	LTP211	ltpFR	11	2	1	WAX	1597	n/a	n/a	0	n/a	0	0	0	0.422607421875	0.5869140625	0	upper	zerothre.ttf
580.126	n/a	WORD	290063	wordpools/wasnorm_wordpool_less_exclusions.txt	LTP211	ltpFR	11	2	1	COMMUNITY	356	n/a	n/a	0	n/a	0	0	0	0.422607421875	0.5869140625	0	upper	zerothre.ttf
584.036	n/a	WORD	292018	wordpools/wasnorm_wordpool_less_exclusions.txt	LTP211	ltpFR	11	2	1	WRENCH	1625	n/a	n/a	0	n/a	0	0	0	0.422607421875	0.5869140625	0	upper	zerothre.ttf
588.18	n/a	WORD	294090	wordpools/wasnorm_wordpool_less_exclusions.txt	LTP211	ltpFR	11	2	0	COBWEB	337	n/a	n/a	0	n/a	0	0	0	0.57763671875	0.412841796875	1	lower	amplitud.ttf
592.174	n/a	WORD	296087	wordpools/wasnorm_wordpool_less_exclusions.txt	LTP211	ltpFR	11	2	0	SINK	1309	n/a	n/a	1	n/a	0	0	0	0.57763671875	0.412841796875	1	lower	amplitud.ttf
596.034	n/a	WORD	298017	wordpools/wasnorm_wordpool_less_exclusions.txt	LTP211	ltpFR	11	2	1	TOWN	1491	n/a	n/a	0	n/a	0	0	0	0.422607421875	0.5869140625	0	upper	zerothre.ttf
599.978	n/a	WORD	299989	wordpools/wasnorm_wordpool_less_exclusions.txt	LTP211	ltpFR	11	2	1	COBBLER	335	n/a	n/a	1	n/a	0	0	0	0.422607421875	0.5869140625	0	upper	zerothre.ttf
604.156	n/a	WORD	302078	wordpools/wasnorm_wordpool_less_exclusions.txt	LTP211	ltpFR	11	2	1	SHOE	1288	n/a	n/a	0	n/a	0	0	0	0.422607421875	0.5869140625	0	upper	zerothre.ttf
608.15	n/a	WORD	304075	wordpools/wasnorm_wordpool_less_exclusions.txt	LTP211	ltpFR	11	2	1	CANDLE	229	n/a	n/a	0	n/a	0	0	0	0.422607421875	0.5869140625	0	upper	zerothre.ttf
612.178	n/a	WORD	306089	wordpools/wasnorm_wordpool_less_exclusions.txt	LTP211	ltpFR	11	2	0	SPINACH	1352	n/a	n/a	0	n/a	0	0	0	0.57763671875	0.412841796875	1	lower	amplitud.ttf
616.388	n/a	WORD	308194	wordpools/wasnorm_wordpool_less_exclusions.txt	LTP211	ltpFR	11	2	0	BROCCOLI	176	n/a	n/a	0	n/a	0	0	0	0.57763671875	0.412841796875	1	lower	amplitud.ttf
620.464	n/a	WORD	310232	wordpools/wasnorm_wordpool_less_exclusions.txt	LTP211	ltpFR	11	2	0	SHARK	1275	n/a	n/a	1	n/a	0	0	0	0.57763671875	0.412841796875	1	lower	amplitud.ttf
623.478	n/a	START	311739	n/a	LTP211	ltpFR	11	n/a	n/a	n/a	n/a	n/a	n/a	n/a	n/a	n/a	n/a	n/a	n/a	n/a	n/a	n/a	n/a
624.674	n/a	PROB	312337	n/a	LTP211	ltpFR	11	n/a	n/a	n/a	n/a	n/a	n/a	n/a	11	2	1	8	n/a	n/a	n/a	n/a	n/a
626.772	n/a	PROB	313386	n/a	LTP211	ltpFR	11	n/a	n/a	n/a	n/a	n/a	n/a	n/a	21	7	7	7	n/a	n/a	n/a	n/a	n/a
628.236	n/a	PROB	314118	n/a	LTP211	ltpFR	11	n/a	n/a	n/a	n/a	n/a	n/a	n/a	17	3	7	7	n/a	n/a	n/a	n/a	n/a
631.478	n/a	STOP	315739	n/a	LTP211	ltpFR	11	n/a	n/a	n/a	n/a	n/a	n/a	n/a	n/a	n/a	n/a	n/a	n/a	n/a	n/a	n/a	n/a
633.396	n/a	REC_START	316698	n/a	LTP211	ltpFR	11	2	n/a	n/a	n/a	n/a	n/a	n/a	n/a	0	0	0	n/a	n/a	n/a	n/a	n/a
635.396	n/a	REC_WORD	317698	wordpools/wasnorm_wordpool_less_exclusions.txt	LTP211	ltpFR	11	2	0	SWAMP	1416	n/a	n/a	1	n/a	0	0	0	n/a	n/a	n/a	n/a	n/a
636.55	n/a	REC_WORD	318275	wordpools/wasnorm_wordpool_less_exclusions.txt	LTP211	ltpFR	11	2	0	SWAN	1417	n/a	n/a	0	n/a	0	0	0	n/a	n/a	n/a	n/a	n/a
637.922	n/a	REC_WORD	318961	wordpools/wasnorm_wordpool_less_exclusions.txt	LTP211	ltpFR	11	2	0	BALLERINA	74	n/a	n/a	1	n/a	0	0	0	n/a	n/a	n/a	n/a	n/a
639.956	n/a	REC_WORD	319978	wordpools/wasnorm_wordpool_less_exclusions.txt	LTP211	ltpFR	11	2	1	WALL	1582	n/a	n/a	0	n/a	0	0	0	n/a	n/a	n/a	n/a	n/a
641.582	n/a	REC_WORD	320791	wordpools/wasnorm_wordpool_less_exclusions.txt	LTP211	ltpFR	11	2	1	WAX	1597	n/a	n/a	0	n/a	0	0	0	n/a	n/a	n/a	n/a	n/a
643.448	n/a	REC_WORD	321724	wordpools/wasnorm_wordpool_less_exclusions.txt	LTP211	ltpFR	11	2	1	WRENCH	1625	n/a	n/a	0	n/a	0	0	0	n/a	n/a	n/a	n/a	n/a
645.204	n/a	REC_WORD	322602	wordpools/wasnorm_wordpool_less_exclusions.txt	LTP211	ltpFR	11	2	1	COMMUNITY	356	n/a	n/a	0	n/a	0	0	0	n/a	n/a	n/a	n/a	n/a
647.874	n/a	REC_WORD	323937	wordpools/wasnorm_wordpool_less_exclusions.txt	LTP211	ltpFR	11	2	0	SINK	1309	n/a	n/a	1	n/a	0	0	0	n/a	n/a	n/a	n/a	n/a
649.46	n/a	REC_WORD	324730	wordpools/wasnorm_wordpool_less_exclusions.txt	LTP211	ltpFR	11	2	1	TOWN	1491	n/a	n/a	0	n/a	0	0	0	n/a	n/a	n/a	n/a	n/a
650.882	n/a	REC_WORD	325441	wordpools/wasnorm_wordpool_less_exclusions.txt	LTP211	ltpFR	11	2	1	COBBLER	335	n/a	n/a	1	n/a	0	0	0	n/a	n/a	n/a	n/a	n/a
652.334	n/a	REC_WORD	326167	wordpools/wasnorm_wordpool_less_exclusions.txt	LTP211	ltpFR	11	2	1	SHOE	1288	n/a	n/a	0	n/a	0	0	0	n/a	n/a	n/a	n/a	n/a
654.076	n/a	REC_WORD	327038	wordpools/wasnorm_wordpool_less_exclusions.txt	LTP211	ltpFR	11	2	1	CANDLE	229	n/a	n/a	0	n/a	0	0	0	n/a	n/a	n/a	n/a	n/a
658.2	n/a	REC_WORD	329100	wordpools/wasnorm_wordpool_less_exclusions.txt	LTP211	ltpFR	11	2	0	SPINACH	1352	n/a	n/a	0	n/a	0	0	0	n/a	n/a	n/a	n/a	n/a
660.116	n/a	REC_WORD	330058	wordpools/wasnorm_wordpool_less_exclusions.txt	LTP211	ltpFR	11	2	0	BROCCOLI	176	n/a	n/a	0	n/a	0	0	0	n/a	n/a	n/a	n/a	n/a
662.532	n/a	REC_WORD	331266	wordpools/wasnorm_wordpool_less_exclusions.txt	LTP211	ltpFR	11	2	0	SHARK	1275	n/a	n/a	1	n/a	0	0	0	n/a	n/a	n/a	n/a	n/a
677.418	n/a	REC_WORD	338709	wordpools/wasnorm_wordpool_less_exclusions.txt	LTP211	ltpFR	11	2	0	COBWEB	337	n/a	n/a	0	n/a	0	0	0	n/a	n/a	n/a	n/a	n/a
687.634	n/a	REC_WORD	343817	wordpools/wasnorm_wordpool_less_exclusions.txt	LTP211	ltpFR	11	2	1	COBBLER	335	n/a	n/a	1	n/a	0	0	0	n/a	n/a	n/a	n/a	n/a
710.698	n/a	START	355349	n/a	LTP211	ltpFR	11	n/a	n/a	n/a	n/a	n/a	n/a	n/a	n/a	n/a	n/a	n/a	n/a	n/a	n/a	n/a	n/a
712.212	n/a	PROB	356106	n/a	LTP211	ltpFR	11	n/a	n/a	n/a	n/a	n/a	n/a	n/a	17	5	5	7	n/a	n/a	n/a	n/a	n/a
713.494	n/a	PROB	356747	n/a	LTP211	ltpFR	11	n/a	n/a	n/a	n/a	n/a	n/a	n/a	14	7	6	1	n/a	n/a	n/a	n/a	n/a
715.44	n/a	PROB	357720	n/a	LTP211	ltpFR	11	n/a	n/a	n/a	n/a	n/a	n/a	n/a	17	9	7	3	n/a	n/a	n/a	n/a	n/a
717.104	n/a	PROB	358552	n/a	LTP211	ltpFR	11	n/a	n/a	n/a	n/a	n/a	n/a	n/a	14	5	6	3	n/a	n/a	n/a	n/a	n/a
718.77	n/a	PROB	359385	n/a	LTP211	ltpFR	11	n/a	n/a	n/a	n/a	n/a	n/a	n/a	16	5	3	8	n/a	n/a	n/a	n/a	n/a
720.3	n/a	PROB	360150	n/a	LTP211	ltpFR	11	n/a	n/a	n/a	n/a	n/a	n/a	n/a	26	8	9	9	n/a	n/a	n/a	n/a	n/a
723.296	n/a	PROB	361648	n/a	LTP211	ltpFR	11	n/a	n/a	n/a	n/a	n/a	n/a	n/a	18	9	6	3	n/a	n/a	n/a	n/a	n/a
725.238	n/a	STOP	362619	n/a	LTP211	ltpFR	11	n/a	n/a	n/a	n/a	n/a	n/a	n/a	n/a	n/a	n/a	n/a	n/a	n/a	n/a	n/a	n/a
727.79	n/a	WORD	363895	wordpools/wasnorm_wordpool_less_exclusions.txt	LTP211	ltpFR	11	3	0	OCEAN	970	n/a	n/a	1	n/a	0	0	0	0.57763671875	0.412841796875	1	lower	amplitud.ttf
730.802	n/a	START	365401	n/a	LTP211	ltpFR	11	n/a	n/a	n/a	n/a	n/a	n/a	n/a	n/a	n/a	n/a	n/a	n/a	n/a	n/a	n/a	n/a
731.784	n/a	PROB	365892	n/a	LTP211	ltpFR	11	n/a	n/a	n/a	n/a	n/a	n/a	n/a	16	2	8	6	n/a	n/a	n/a	n/a	n/a
733.266	n/a	PROB	366633	n/a	LTP211	ltpFR	11	n/a	n/a	n/a	n/a	n/a	n/a	n/a	9	2	4	3	n/a	n/a	n/a	n/a	n/a
736.41	n/a	PROB	368205	n/a	LTP211	ltpFR	11	n/a	n/a	n/a	n/a	n/a	n/a	n/a	14	2	3	9	n/a	n/a	n/a	n/a	n/a
737.824	n/a	PROB	368912	n/a	LTP211	ltpFR	11	n/a	n/a	n/a	n/a	n/a	n/a	n/a	11	1	1	9	n/a	n/a	n/a	n/a	n/a
739.14	n/a	PROB	369570	n/a	LTP211	ltpFR	11	n/a	n/a	n/a	n/a	n/a	n/a	n/a	17	2	6	9	n/a	n/a	n/a	n/a	n/a
743.068	n/a	PROB	371534	n/a	LTP211	ltpFR	11	n/a	n/a	n/a	n/a	n/a	n/a	n/a	19	8	3	8	n/a	n/a	n/a	n/a	n/a
744.764	n/a	PROB	372382	n/a	LTP211	ltpFR	11	n/a	n/a	n/a	n/a	n/a	n/a	n/a	18	7	4	7	n/a	n/a	n/a	n/a	n/a
746.254	n/a	STOP	373127	n/a	LTP211	ltpFR	11	n/a	n/a	n/a	n/a	n/a	n/a	n/a	n/a	n/a	n/a	n/a	n/a	n/a	n/a	n/a	n/a
747.744	n/a	WORD	373872	wordpools/wasnorm_wordpool_less_exclusions.txt	LTP211	ltpFR	11	3	0	POSSUM	1112	n/a	n/a	1	n/a	0	0	0	0.57763671875	0.412841796875	1	lower	amplitud.ttf
750.756	n/a	START	375378	n/a	LTP211	ltpFR	11	n/a	n/a	n/a	n/a	n/a	n/a	n/a	n/a	n/a	n/a	n/a	n/a	n/a	n/a	n/a	n/a
751.754	n/a	PROB	375877	n/a	LTP211	ltpFR	11	n/a	n/a	n/a	n/a	n/a	n/a	n/a	16	2	8	6	n/a	n/a	n/a	n/a	n/a
753.202	n/a	PROB	376601	n/a	LTP211	ltpFR	11	n/a	n/a	n/a	n/a	n/a	n/a	n/a	13	3	3	7	n/a	n/a	n/a	n/a	n/a
754.95	n/a	PROB	377475	n/a	LTP211	ltpFR	11	n/a	n/a	n/a	n/a	n/a	n/a	n/a	17	7	9	1	n/a	n/a	n/a	n/a	n/a
756.846	n/a	PROB	378423	n/a	LTP211	ltpFR	11	n/a	n/a	n/a	n/a	n/a	n/a	n/a	14	3	5	6	n/a	n/a	n/a	n/a	n/a
758.76	n/a	PROB	379380	n/a	LTP211	ltpFR	11	n/a	n/a	n/a	n/a	n/a	n/a	n/a	12	5	1	6	n/a	n/a	n/a	n/a	n/a
760.458	n/a	PROB	380229	n/a	LTP211	ltpFR	11	n/a	n/a	n/a	n/a	n/a	n/a	n/a	19	7	3	9	n/a	n/a	n/a	n/a	n/a
762.904	n/a	PROB	381452	n/a	LTP211	ltpFR	11	n/a	n/a	n/a	n/a	n/a	n/a	n/a	10	5	4	1	n/a	n/a	n/a	n/a	n/a
765.018	n/a	PROB	382509	n/a	LTP211	ltpFR	11	n/a	n/a	n/a	n/a	n/a	n/a	n/a	7	1	5	1	n/a	n/a	n/a	n/a	n/a
766.318	n/a	STOP	383159	n/a	LTP211	ltpFR	11	n/a	n/a	n/a	n/a	n/a	n/a	n/a	n/a	n/a	n/a	n/a	n/a	n/a	n/a	n/a	n/a
767.846	n/a	WORD	383923	wordpools/wasnorm_wordpool_less_exclusions.txt	LTP211	ltpFR	11	3	0	TWIG	1527	n/a	n/a	0	n/a	0	0	0	0.57763671875	0.412841796875	1	lower	amplitud.ttf
770.86	n/a	START	385430	n/a	LTP211	ltpFR	11	n/a	n/a	n/a	n/a	n/a	n/a	n/a	n/a	n/a	n/a	n/a	n/a	n/a	n/a	n/a	n/a
771.908	n/a	PROB	385954	n/a	LTP211	ltpFR	11	n/a	n/a	n/a	n/a	n/a	n/a	n/a	10	1	8	1	n/a	n/a	n/a	n/a	n/a
773.156	n/a	PROB	386578	n/a	LTP211	ltpFR	11	n/a	n/a	n/a	n/a	n/a	n/a	n/a	13	5	7	1	n/a	n/a	n/a	n/a	n/a
775.236	n/a	PROB	387618	n/a	LTP211	ltpFR	11	n/a	n/a	n/a	n/a	n/a	n/a	n/a	16	4	9	3	n/a	n/a	n/a	n/a	n/a
777.282	n/a	PROB	388641	n/a	LTP211	ltpFR	11	n/a	n/a	n/a	n/a	n/a	n/a	n/a	11	5	6	5	n/a	n/a	n/a	n/a	n/a
779.862	n/a	PROB	389931	n/a	LTP211	ltpFR	11	n/a	n/a	n/a	n/a	n/a	n/a	n/a	17	1	9	7	n/a	n/a	n/a	n/a	n/a
781.842	n/a	PROB	390921	n/a	LTP211	ltpFR	11	n/a	n/a	n/a	n/a	n/a	n/a	n/a	18	9	5	4	n/a	n/a	n/a	n/a	n/a
783.606	n/a	PROB	391803	n/a	LTP211	ltpFR	11	n/a	n/a	n/a	n/a	n/a	n/a	n/a	27	9	9	9	n/a	n/a	n/a	n/a	n/a
786.094	n/a	STOP	393047	n/a	LTP211	ltpFR	11	n/a	n/a	n/a	n/a	n/a	n/a	n/a	n/a	n/a	n/a	n/a	n/a	n/a	n/a	n/a	n/a
787.834	n/a	WORD	393917	wordpools/wasnorm_wordpool_less_exclusions.txt	LTP211	ltpFR	11	3	0	BLUEBERRY	140	n/a	n/a	0	n/a	0	0	0	0.57763671875	0.412841796875	1	lower	amplitud.ttf
790.846	n/a	START	395423	n/a	LTP211	ltpFR	11	n/a	n/a	n/a	n/a	n/a	n/a	n/a	n/a	n/a	n/a	n/a	n/a	n/a	n/a	n/a	n/a
791.91	n/a	PROB	395955	n/a	LTP211	ltpFR	11	n/a	n/a	n/a	n/a	n/a	n/a	n/a	11	1	4	6	n/a	n/a	n/a	n/a	n/a
793.826	n/a	PROB	396913	n/a	LTP211	ltpFR	11	n/a	n/a	n/a	n/a	n/a	n/a	n/a	15	7	4	4	n/a	n/a	n/a	n/a	n/a
796.872	n/a	PROB	398436	n/a	LTP211	ltpFR	11	n/a	n/a	n/a	n/a	n/a	n/a	n/a	15	7	3	5	n/a	n/a	n/a	n/a	n/a
799.018	n/a	PROB	399509	n/a	LTP211	ltpFR	11	n/a	n/a	n/a	n/a	n/a	n/a	n/a	13	1	6	6	n/a	n/a	n/a	n/a	n/a
800.632	n/a	PROB	400316	n/a	LTP211	ltpFR	11	n/a	n/a	n/a	n/a	n/a	n/a	n/a	13	9	2	2	n/a	n/a	n/a	n/a	n/a
802.796	n/a	PROB	401398	n/a	LTP211	ltpFR	11	n/a	n/a	n/a	n/a	n/a	n/a	n/a	14	5	4	5	n/a	n/a	n/a	n/a	n/a
806.848	n/a	STOP	403424	n/a	LTP211	ltpFR	11	n/a	n/a	n/a	n/a	n/a	n/a	n/a	n/a	n/a	n/a	n/a	n/a	n/a	n/a	n/a	n/a
807.804	n/a	WORD	403902	wordpools/wasnorm_wordpool_less_exclusions.txt	LTP211	ltpFR	11	3	0	DESSERT	453	n/a	n/a	1	n/a	0	0	0	0.57763671875	0.412841796875	1	lower	amplitud.ttf
810.818	n/a	START	405409	n/a	LTP211	ltpFR	11	n/a	n/a	n/a	n/a	n/a	n/a	n/a	n/a	n/a	n/a	n/a	n/a	n/a	n/a	n/a	n/a
811.966	n/a	PROB	405983	n/a	LTP211	ltpFR	11	n/a	n/a	n/a	n/a	n/a	n/a	n/a	21	9	6	6	n/a	n/a	n/a	n/a	n/a
814.394	n/a	PROB	407197	n/a	LTP211	ltpFR	11	n/a	n/a	n/a	n/a	n/a	n/a	n/a	13	3	5	5	n/a	n/a	n/a	n/a	n/a
815.776	n/a	PROB	407888	n/a	LTP211	ltpFR	11	n/a	n/a	n/a	n/a	n/a	n/a	n/a	26	9	8	9	n/a	n/a	n/a	n/a	n/a
819.786	n/a	PROB	409893	n/a	LTP211	ltpFR	11	n/a	n/a	n/a	n/a	n/a	n/a	n/a	18	2	9	7	n/a	n/a	n/a	n/a	n/a
822.116	n/a	PROB	411058	n/a	LTP211	ltpFR	11	n/a	n/a	n/a	n/a	n/a	n/a	n/a	12	3	3	6	n/a	n/a	n/a	n/a	n/a
823.532	n/a	PROB	411766	n/a	LTP211	ltpFR	11	n/a	n/a	n/a	n/a	n/a	n/a	n/a	12	6	1	5	n/a	n/a	n/a	n/a	n/a
826.174	n/a	STOP	413087	n/a	LTP211	ltpFR	11	n/a	n/a	n/a	n/a	n/a	n/a	n/a	n/a	n/a	n/a	n/a	n/a	n/a	n/a	n/a	n/a
827.64	n/a	WORD	413820	wordpools/wasnorm_wordpool_less_exclusions.txt	LTP211	ltpFR	11	3	0	SEED	1266	n/a	n/a	0	n/a	0	0	0	0.57763671875	0.412841796875	1	lower	amplitud.ttf
830.654	n/a	START	415327	n/a	LTP211	ltpFR	11	n/a	n/a	n/a	n/a	n/a	n/a	n/a	n/a	n/a	n/a	n/a	n/a	n/a	n/a	n/a	n/a
831.502	n/a	PROB	415751	n/a	LTP211	ltpFR	11	n/a	n/a	n/a	n/a	n/a	n/a	n/a	7	5	1	1	n/a	n/a	n/a	n/a	n/a
833.266	n/a	PROB	416633	n/a	LTP211	ltpFR	11	n/a	n/a	n/a	n/a	n/a	n/a	n/a	10	5	1	4	n/a	n/a	n/a	n/a	n/a
835.564	n/a	PROB	417782	n/a	LTP211	ltpFR	11	n/a	n/a	n/a	n/a	n/a	n/a	n/a	17	7	3	7	n/a	n/a	n/a	n/a	n/a
836.894	n/a	PROB	418447	n/a	LTP211	ltpFR	11	n/a	n/a	n/a	n/a	n/a	n/a	n/a	24	7	8	8	n/a	n/a	n/a	n/a	n/a
838.542	n/a	PROB	419271	n/a	LTP211	ltpFR	11	n/a	n/a	n/a	n/a	n/a	n/a	n/a	21	5	8	8	n/a	n/a	n/a	n/a	n/a
841.022	n/a	PROB	420511	n/a	LTP211	ltpFR	11	n/a	n/a	n/a	n/a	n/a	n/a	n/a	9	2	4	3	n/a	n/a	n/a	n/a	n/a
842.87	n/a	PROB	421435	n/a	LTP211	ltpFR	11	n/a	n/a	n/a	n/a	n/a	n/a	n/a	15	3	8	4	n/a	n/a	n/a	n/a	n/a
846.654	n/a	STOP	423327	n/a	LTP211	ltpFR	11	n/a	n/a	n/a	n/a	n/a	n/a	n/a	n/a	n/a	n/a	n/a	n/a	n/a	n/a	n/a	n/a
847.812	n/a	WORD	423906	wordpools/wasnorm_wordpool_less_exclusions.txt	LTP211	ltpFR	11	3	0	RODENT	1204	n/a	n/a	n/a	n/a	0	0	0	0.57763671875	0.412841796875	1	lower	amplitud.ttf
850.84	n/a	SLOW_MSG	425420	n/a	LTP211	ltpFR	11	3	n/a	n/a	n/a	n/a	n/a	n/a	n/a	0	0	0	n/a	n/a	n/a	n/a	n/a
852.372	n/a	START	426186	n/a	LTP211	ltpFR	11	n/a	n/a	n/a	n/a	n/a	n/a	n/a	n/a	n/a	n/a	n/a	n/a	n/a	n/a	n/a	n/a
853.286	n/a	PROB	426643	n/a	LTP211	ltpFR	11	n/a	n/a	n/a	n/a	n/a	n/a	n/a	18	9	8	1	n/a	n/a	n/a	n/a	n/a
855.218	n/a	PROB	427609	n/a	LTP211	ltpFR	11	n/a	n/a	n/a	n/a	n/a	n/a	n/a	12	3	3	6	n/a	n/a	n/a	n/a	n/a
856.864	n/a	PROB	428432	n/a	LTP211	ltpFR	11	n/a	n/a	n/a	n/a	n/a	n/a	n/a	12	5	4	3	n/a	n/a	n/a	n/a	n/a
861.126	n/a	PROB	430563	n/a	LTP211	ltpFR	11	n/a	n/a	n/a	n/a	n/a	n/a	n/a	19	2	9	8	n/a	n/a	n/a	n/a	n/a
863.356	n/a	PROB	431678	n/a	LTP211	ltpFR	11	n/a	n/a	n/a	n/a	n/a	n/a	n/a	21	8	9	4	n/a	n/a	n/a	n/a	n/a
865.102	n/a	PROB	432551	n/a	LTP211	ltpFR	11	n/a	n/a	n/a	n/a	n/a	n/a	n/a	15	1	9	5	n/a	n/a	n/a	n/a	n/a
866.84	n/a	STOP	433420	n/a	LTP211	ltpFR	11	n/a	n/a	n/a	n/a	n/a	n/a	n/a	n/a	n/a	n/a	n/a	n/a	n/a	n/a	n/a	n/a
869.446	n/a	WORD	434723	wordpools/wasnorm_wordpool_less_exclusions.txt	LTP211	ltpFR	11	3	0	CHECK	284	n/a	n/a	0	n/a	0	0	0	0.57763671875	0.412841796875	1	lower	amplitud.ttf
872.46	n/a	START	436230	n/a	LTP211	ltpFR	11	n/a	n/a	n/a	n/a	n/a	n/a	n/a	n/a	n/a	n/a	n/a	n/a	n/a	n/a	n/a	n/a
873.324	n/a	PROB	436662	n/a	LTP211	ltpFR	11	n/a	n/a	n/a	n/a	n/a	n/a	n/a	19	9	8	2	n/a	n/a	n/a	n/a	n/a
874.622	n/a	PROB	437311	n/a	LTP211	ltpFR	11	n/a	n/a	n/a	n/a	n/a	n/a	n/a	19	6	8	5	n/a	n/a	n/a	n/a	n/a
876.82	n/a	PROB	438410	n/a	LTP211	ltpFR	11	n/a	n/a	n/a	n/a	n/a	n/a	n/a	18	6	6	6	n/a	n/a	n/a	n/a	n/a
878.466	n/a	PROB	439233	n/a	LTP211	ltpFR	11	n/a	n/a	n/a	n/a	n/a	n/a	n/a	12	6	4	2	n/a	n/a	n/a	n/a	n/a
880.214	n/a	PROB	440107	n/a	LTP211	ltpFR	11	n/a	n/a	n/a	n/a	n/a	n/a	n/a	11	1	8	2	n/a	n/a	n/a	n/a	n/a
881.896	n/a	PROB	440948	n/a	LTP211	ltpFR	11	n/a	n/a	n/a	n/a	n/a	n/a	n/a	11	4	2	5	n/a	n/a	n/a	n/a	n/a
883.41	n/a	PROB	441705	n/a	LTP211	ltpFR	11	n/a	n/a	n/a	n/a	n/a	n/a	n/a	17	9	4	4	n/a	n/a	n/a	n/a	n/a
885.672	n/a	PROB	442836	n/a	LTP211	ltpFR	11	n/a	n/a	n/a	n/a	n/a	n/a	n/a	11	4	1	6	n/a	n/a	n/a	n/a	n/a
887.96	n/a	STOP	443980	n/a	LTP211	ltpFR	11	n/a	n/a	n/a	n/a	n/a	n/a	n/a	n/a	n/a	n/a	n/a	n/a	n/a	n/a	n/a	n/a
889.3	n/a	WORD	444650	wordpools/wasnorm_wordpool_less_exclusions.txt	LTP211	ltpFR	11	3	0	VAULT	1550	n/a	n/a	1	n/a	0	0	0	0.57763671875	0.412841796875	1	lower	amplitud.ttf
892.314	n/a	START	446157	n/a	LTP211	ltpFR	11	n/a	n/a	n/a	n/a	n/a	n/a	n/a	n/a	n/a	n/a	n/a	n/a	n/a	n/a	n/a	n/a
893.528	n/a	PROB	446764	n/a	LTP211	ltpFR	11	n/a	n/a	n/a	n/a	n/a	n/a	n/a	18	9	4	5	n/a	n/a	n/a	n/a	n/a
895.276	n/a	PROB	447638	n/a	LTP211	ltpFR	11	n/a	n/a	n/a	n/a	n/a	n/a	n/a	14	4	3	7	n/a	n/a	n/a	n/a	n/a
897.654	n/a	PROB	448827	n/a	LTP211	ltpFR	11	n/a	n/a	n/a	n/a	n/a	n/a	n/a	10	1	4	5	n/a	n/a	n/a	n/a	n/a
899.02	n/a	PROB	449510	n/a	LTP211	ltpFR	11	n/a	n/a	n/a	n/a	n/a	n/a	n/a	15	7	3	5	n/a	n/a	n/a	n/a	n/a
900.234	n/a	PROB	450117	n/a	LTP211	ltpFR	11	n/a	n/a	n/a	n/a	n/a	n/a	n/a	13	3	3	7	n/a	n/a	n/a	n/a	n/a
901.716	n/a	PROB	450858	n/a	LTP211	ltpFR	11	n/a	n/a	n/a	n/a	n/a	n/a	n/a	14	1	4	9	n/a	n/a	n/a	n/a	n/a
903.164	n/a	PROB	451582	n/a	LTP211	ltpFR	11	n/a	n/a	n/a	n/a	n/a	n/a	n/a	19	7	6	6	n/a	n/a	n/a	n/a	n/a
905.226	n/a	PROB	452613	n/a	LTP211	ltpFR	11	n/a	n/a	n/a	n/a	n/a	n/a	n/a	12	2	8	2	n/a	n/a	n/a	n/a	n/a
906.508	n/a	PROB	453254	n/a	LTP211	ltpFR	11	n/a	n/a	n/a	n/a	n/a	n/a	n/a	13	4	7	2	n/a	n/a	n/a	n/a	n/a
908.224	n/a	STOP	454112	n/a	LTP211	ltpFR	11	n/a	n/a	n/a	n/a	n/a	n/a	n/a	n/a	n/a	n/a	n/a	n/a	n/a	n/a	n/a	n/a
909.404	n/a	WORD	454702	wordpools/wasnorm_wordpool_less_exclusions.txt	LTP211	ltpFR	11	3	0	TURTLE	1522	n/a	n/a	0	n/a	0	0	0	0.57763671875	0.412841796875	1	lower	amplitud.ttf
912.416	n/a	START	456208	n/a	LTP211	ltpFR	11	n/a	n/a	n/a	n/a	n/a	n/a	n/a	n/a	n/a	n/a	n/a	n/a	n/a	n/a	n/a	n/a
913.464	n/a	PROB	456732	n/a	LTP211	ltpFR	11	n/a	n/a	n/a	n/a	n/a	n/a	n/a	18	6	9	3	n/a	n/a	n/a	n/a	n/a
915.396	n/a	PROB	457698	n/a	LTP211	ltpFR	11	n/a	n/a	n/a	n/a	n/a	n/a	n/a	9	3	2	3	n/a	n/a	n/a	n/a	n/a
916.892	n/a	PROB	458446	n/a	LTP211	ltpFR	11	n/a	n/a	n/a	n/a	n/a	n/a	n/a	17	1	8	8	n/a	n/a	n/a	n/a	n/a
919.24	n/a	PROB	459620	n/a	LTP211	ltpFR	11	n/a	n/a	n/a	n/a	n/a	n/a	n/a	17	7	6	4	n/a	n/a	n/a	n/a	n/a
921.086	n/a	PROB	460543	n/a	LTP211	ltpFR	11	n/a	n/a	n/a	n/a	n/a	n/a	n/a	6	2	2	2	n/a	n/a	n/a	n/a	n/a
922.168	n/a	PROB	461084	n/a	LTP211	ltpFR	11	n/a	n/a	n/a	n/a	n/a	n/a	n/a	18	7	6	5	n/a	n/a	n/a	n/a	n/a
923.882	n/a	PROB	461941	n/a	LTP211	ltpFR	11	n/a	n/a	n/a	n/a	n/a	n/a	n/a	15	3	3	9	n/a	n/a	n/a	n/a	n/a
925.962	n/a	PROB	462981	n/a	LTP211	ltpFR	11	n/a	n/a	n/a	n/a	n/a	n/a	n/a	16	2	6	8	n/a	n/a	n/a	n/a	n/a
927.416	n/a	STOP	463708	n/a	LTP211	ltpFR	11	n/a	n/a	n/a	n/a	n/a	n/a	n/a	n/a	n/a	n/a	n/a	n/a	n/a	n/a	n/a	n/a
929.574	n/a	WORD	464787	wordpools/wasnorm_wordpool_less_exclusions.txt	LTP211	ltpFR	11	3	0	LASH	802	n/a	n/a	0	n/a	0	0	0	0.57763671875	0.412841796875	1	lower	amplitud.ttf
932.586	n/a	START	466293	n/a	LTP211	ltpFR	11	n/a	n/a	n/a	n/a	n/a	n/a	n/a	n/a	n/a	n/a	n/a	n/a	n/a	n/a	n/a	n/a
933.402	n/a	PROB	466701	n/a	LTP211	ltpFR	11	n/a	n/a	n/a	n/a	n/a	n/a	n/a	10	3	2	5	n/a	n/a	n/a	n/a	n/a
935.696	n/a	PROB	467848	n/a	LTP211	ltpFR	11	n/a	n/a	n/a	n/a	n/a	n/a	n/a	18	6	5	7	n/a	n/a	n/a	n/a	n/a
937.196	n/a	PROB	468598	n/a	LTP211	ltpFR	11	n/a	n/a	n/a	n/a	n/a	n/a	n/a	17	8	6	3	n/a	n/a	n/a	n/a	n/a
939.31	n/a	PROB	469655	n/a	LTP211	ltpFR	11	n/a	n/a	n/a	n/a	n/a	n/a	n/a	10	3	1	6	n/a	n/a	n/a	n/a	n/a
941.24	n/a	PROB	470620	n/a	LTP211	ltpFR	11	n/a	n/a	n/a	n/a	n/a	n/a	n/a	11	8	2	1	n/a	n/a	n/a	n/a	n/a
942.872	n/a	PROB	471436	n/a	LTP211	ltpFR	11	n/a	n/a	n/a	n/a	n/a	n/a	n/a	13	9	7	3	n/a	n/a	n/a	n/a	n/a
948.586	n/a	STOP	474293	n/a	LTP211	ltpFR	11	n/a	n/a	n/a	n/a	n/a	n/a	n/a	n/a	n/a	n/a	n/a	n/a	n/a	n/a	n/a	n/a
949.778	n/a	WORD	474889	wordpools/wasnorm_wordpool_less_exclusions.txt	LTP211	ltpFR	11	3	0	FENCE	560	n/a	n/a	1	n/a	0	0	0	0.57763671875	0.412841796875	1	lower	amplitud.ttf
952.79	n/a	START	476395	n/a	LTP211	ltpFR	11	n/a	n/a	n/a	n/a	n/a	n/a	n/a	n/a	n/a	n/a	n/a	n/a	n/a	n/a	n/a	n/a
953.806	n/a	PROB	476903	n/a	LTP211	ltpFR	11	n/a	n/a	n/a	n/a	n/a	n/a	n/a	12	2	4	6	n/a	n/a	n/a	n/a	n/a
956.968	n/a	PROB	478484	n/a	LTP211	ltpFR	11	n/a	n/a	n/a	n/a	n/a	n/a	n/a	23	7	7	9	n/a	n/a	n/a	n/a	n/a
959.514	n/a	PROB	479757	n/a	LTP211	ltpFR	11	n/a	n/a	n/a	n/a	n/a	n/a	n/a	14	5	4	5	n/a	n/a	n/a	n/a	n/a
961.494	n/a	PROB	480747	n/a	LTP211	ltpFR	11	n/a	n/a	n/a	n/a	n/a	n/a	n/a	25	8	9	8	n/a	n/a	n/a	n/a	n/a
964.622	n/a	PROB	482311	n/a	LTP211	ltpFR	11	n/a	n/a	n/a	n/a	n/a	n/a	n/a	10	4	5	1	n/a	n/a	n/a	n/a	n/a
966.004	n/a	PROB	483002	n/a	LTP211	ltpFR	11	n/a	n/a	n/a	n/a	n/a	n/a	n/a	12	5	3	4	n/a	n/a	n/a	n/a	n/a
967.528	n/a	STOP	483764	n/a	LTP211	ltpFR	11	n/a	n/a	n/a	n/a	n/a	n/a	n/a	n/a	n/a	n/a	n/a	n/a	n/a	n/a	n/a	n/a
970.014	n/a	WORD	485007	wordpools/wasnorm_wordpool_less_exclusions.txt	LTP211	ltpFR	11	3	0	PRIMATE	1123	n/a	n/a	1	n/a	0	0	0	0.57763671875	0.412841796875	1	lower	amplitud.ttf
973.026	n/a	START	486513	n/a	LTP211	ltpFR	11	n/a	n/a	n/a	n/a	n/a	n/a	n/a	n/a	n/a	n/a	n/a	n/a	n/a	n/a	n/a	n/a
973.842	n/a	PROB	486921	n/a	LTP211	ltpFR	11	n/a	n/a	n/a	n/a	n/a	n/a	n/a	14	1	9	4	n/a	n/a	n/a	n/a	n/a
975.74	n/a	PROB	487870	n/a	LTP211	ltpFR	11	n/a	n/a	n/a	n/a	n/a	n/a	n/a	18	3	9	6	n/a	n/a	n/a	n/a	n/a
978.268	n/a	PROB	489134	n/a	LTP211	ltpFR	11	n/a	n/a	n/a	n/a	n/a	n/a	n/a	17	7	2	8	n/a	n/a	n/a	n/a	n/a
980.1	n/a	PROB	490050	n/a	LTP211	ltpFR	11	n/a	n/a	n/a	n/a	n/a	n/a	n/a	21	6	7	8	n/a	n/a	n/a	n/a	n/a
984.11	n/a	PROB	492055	n/a	LTP211	ltpFR	11	n/a	n/a	n/a	n/a	n/a	n/a	n/a	12	1	3	8	n/a	n/a	n/a	n/a	n/a
985.874	n/a	PROB	492937	n/a	LTP211	ltpFR	11	n/a	n/a	n/a	n/a	n/a	n/a	n/a	14	3	9	2	n/a	n/a	n/a	n/a	n/a
987.768	n/a	STOP	493884	n/a	LTP211	ltpFR	11	n/a	n/a	n/a	n/a	n/a	n/a	n/a	n/a	n/a	n/a	n/a	n/a	n/a	n/a	n/a	n/a
989.852	n/a	WORD	494926	wordpools/wasnorm_wordpool_less_exclusions.txt	LTP211	ltpFR	11	3	0	BARN	89	n/a	n/a	1	n/a	0	0	0	0.57763671875	0.412841796875	1	lower	amplitud.ttf
992.864	n/a	START	496432	n/a	LTP211	ltpFR	11	n/a	n/a	n/a	n/a	n/a	n/a	n/a	n/a	n/a	n/a	n/a	n/a	n/a	n/a	n/a	n/a
993.996	n/a	PROB	496998	n/a	LTP211	ltpFR	11	n/a	n/a	n/a	n/a	n/a	n/a	n/a	20	9	2	9	n/a	n/a	n/a	n/a	n/a
997.324	n/a	PROB	498662	n/a	LTP211	ltpFR	11	n/a	n/a	n/a	n/a	n/a	n/a	n/a	16	4	7	5	n/a	n/a	n/a	n/a	n/a
999.586	n/a	PROB	499793	n/a	LTP211	ltpFR	11	n/a	n/a	n/a	n/a	n/a	n/a	n/a	13	6	6	1	n/a	n/a	n/a	n/a	n/a
1001.35	n/a	PROB	500675	n/a	LTP211	ltpFR	11	n/a	n/a	n/a	n/a	n/a	n/a	n/a	24	7	9	8	n/a	n/a	n/a	n/a	n/a
1003.53	n/a	PROB	501765	n/a	LTP211	ltpFR	11	n/a	n/a	n/a	n/a	n/a	n/a	n/a	14	6	2	6	n/a	n/a	n/a	n/a	n/a
1005.412	n/a	PROB	502706	n/a	LTP211	ltpFR	11	n/a	n/a	n/a	n/a	n/a	n/a	n/a	14	2	4	8	n/a	n/a	n/a	n/a	n/a
1007.784	n/a	STOP	503892	n/a	LTP211	ltpFR	11	n/a	n/a	n/a	n/a	n/a	n/a	n/a	n/a	n/a	n/a	n/a	n/a	n/a	n/a	n/a	n/a
1010.054	n/a	WORD	505027	wordpools/wasnorm_wordpool_less_exclusions.txt	LTP211	ltpFR	11	3	0	CAPTAIN	239	n/a	n/a	1	n/a	0	0	0	0.57763671875	0.412841796875	1	lower	amplitud.ttf
1013.068	n/a	START	506534	n/a	LTP211	ltpFR	11	n/a	n/a	n/a	n/a	n/a	n/a	n/a	n/a	n/a	n/a	n/a	n/a	n/a	n/a	n/a	n/a
1014.15	n/a	PROB	507075	n/a	LTP211	ltpFR	11	n/a	n/a	n/a	n/a	n/a	n/a	n/a	16	8	1	7	n/a	n/a	n/a	n/a	n/a
1015.864	n/a	PROB	507932	n/a	LTP211	ltpFR	11	n/a	n/a	n/a	n/a	n/a	n/a	n/a	24	9	9	6	n/a	n/a	n/a	n/a	n/a
1018.094	n/a	PROB	509047	n/a	LTP211	ltpFR	11	n/a	n/a	n/a	n/a	n/a	n/a	n/a	16	2	6	8	n/a	n/a	n/a	n/a	n/a
1022.504	n/a	PROB	511252	n/a	LTP211	ltpFR	11	n/a	n/a	n/a	n/a	n/a	n/a	n/a	18	6	3	9	n/a	n/a	n/a	n/a	n/a
1024.6	n/a	PROB	512300	n/a	LTP211	ltpFR	11	n/a	n/a	n/a	n/a	n/a	n/a	n/a	14	9	3	2	n/a	n/a	n/a	n/a	n/a
1026.148	n/a	PROB	513074	n/a	LTP211	ltpFR	11	n/a	n/a	n/a	n/a	n/a	n/a	n/a	20	6	6	8	n/a	n/a	n/a	n/a	n/a
1028.338	n/a	STOP	514169	n/a	LTP211	ltpFR	11	n/a	n/a	n/a	n/a	n/a	n/a	n/a	n/a	n/a	n/a	n/a	n/a	n/a	n/a	n/a	n/a
1029.96	n/a	WORD	514980	wordpools/wasnorm_wordpool_less_exclusions.txt	LTP211	ltpFR	11	3	0	BRANCH	168	n/a	n/a	1	n/a	0	0	0	0.57763671875	0.412841796875	1	lower	amplitud.ttf
1032.972	n/a	START	516486	n/a	LTP211	ltpFR	11	n/a	n/a	n/a	n/a	n/a	n/a	n/a	n/a	n/a	n/a	n/a	n/a	n/a	n/a	n/a	n/a
1033.97	n/a	PROB	516985	n/a	LTP211	ltpFR	11	n/a	n/a	n/a	n/a	n/a	n/a	n/a	19	6	4	9	n/a	n/a	n/a	n/a	n/a
1035.666	n/a	PROB	517833	n/a	LTP211	ltpFR	11	n/a	n/a	n/a	n/a	n/a	n/a	n/a	18	7	8	3	n/a	n/a	n/a	n/a	n/a
1037.582	n/a	PROB	518791	n/a	LTP211	ltpFR	11	n/a	n/a	n/a	n/a	n/a	n/a	n/a	18	7	6	5	n/a	n/a	n/a	n/a	n/a
1040.376	n/a	PROB	520188	n/a	LTP211	ltpFR	11	n/a	n/a	n/a	n/a	n/a	n/a	n/a	18	6	8	4	n/a	n/a	n/a	n/a	n/a
1042.258	n/a	PROB	521129	n/a	LTP211	ltpFR	11	n/a	n/a	n/a	n/a	n/a	n/a	n/a	15	2	5	8	n/a	n/a	n/a	n/a	n/a
1043.788	n/a	PROB	521894	n/a	LTP211	ltpFR	11	n/a	n/a	n/a	n/a	n/a	n/a	n/a	15	4	6	5	n/a	n/a	n/a	n/a	n/a
1045.32	n/a	PROB	522660	n/a	LTP211	ltpFR	11	n/a	n/a	n/a	n/a	n/a	n/a	n/a	11	2	7	2	n/a	n/a	n/a	n/a	n/a
1047.334	n/a	PROB	523667	n/a	LTP211	ltpFR	11	n/a	n/a	n/a	n/a	n/a	n/a	n/a	19	5	6	8	n/a	n/a	n/a	n/a	n/a
1048.89	n/a	STOP	524445	n/a	LTP211	ltpFR	11	n/a	n/a	n/a	n/a	n/a	n/a	n/a	n/a	n/a	n/a	n/a	n/a	n/a	n/a	n/a	n/a
1050.878	n/a	REC_START	525439	n/a	LTP211	ltpFR	11	3	n/a	n/a	n/a	n/a	n/a	n/a	n/a	0	0	0	n/a	n/a	n/a	n/a	n/a
1053.302	n/a	REC_WORD	526651	wordpools/wasnorm_wordpool_less_exclusions.txt	LTP211	ltpFR	11	3	0	OCEAN	970	n/a	n/a	1	n/a	0	0	0	n/a	n/a	n/a	n/a	n/a
1054.396	n/a	REC_WORD	527198	wordpools/wasnorm_wordpool_less_exclusions.txt	LTP211	ltpFR	11	3	0	POSSUM	1112	n/a	n/a	1	n/a	0	0	0	n/a	n/a	n/a	n/a	n/a
1055.582	n/a	REC_WORD	527791	wordpools/wasnorm_wordpool_less_exclusions.txt	LTP211	ltpFR	11	3	0	TWIG	1527	n/a	n/a	0	n/a	0	0	0	n/a	n/a	n/a	n/a	n/a
1056.636	n/a	REC_WORD	528318	wordpools/wasnorm_wordpool_less_exclusions.txt	LTP211	ltpFR	11	3	0	BLUEBERRY	140	n/a	n/a	0	n/a	0	0	0	n/a	n/a	n/a	n/a	n/a
1057.692	n/a	REC_WORD	528846	wordpools/wasnorm_wordpool_less_exclusions.txt	LTP211	ltpFR	11	3	0	DESSERT	453	n/a	n/a	1	n/a	0	0	0	n/a	n/a	n/a	n/a	n/a
1058.93	n/a	REC_WORD	529465	wordpools/wasnorm_wordpool_less_exclusions.txt	LTP211	ltpFR	11	3	0	SEED	1266	n/a	n/a	0	n/a	0	0	0	n/a	n/a	n/a	n/a	n/a
1060.292	n/a	REC_WORD	530146	wordpools/wasnorm_wordpool_less_exclusions.txt	LTP211	ltpFR	11	3	0	RODENT	1204	n/a	n/a	n/a	n/a	0	0	0	n/a	n/a	n/a	n/a	n/a
1062.646	n/a	REC_WORD	531323	wordpools/wasnorm_wordpool_less_exclusions.txt	LTP211	ltpFR	11	3	0	CHECK	284	n/a	n/a	0	n/a	0	0	0	n/a	n/a	n/a	n/a	n/a
1063.832	n/a	REC_WORD	531916	wordpools/wasnorm_wordpool_less_exclusions.txt	LTP211	ltpFR	11	3	0	VAULT	1550	n/a	n/a	1	n/a	0	0	0	n/a	n/a	n/a	n/a	n/a
1065.79	n/a	REC_WORD	532895	wordpools/wasnorm_wordpool_less_exclusions.txt	LTP211	ltpFR	11	3	n/a	TORTOISE	1486	n/a	n/a	n/a	n/a	0	0	0	n/a	n/a	n/a	n/a	n/a
1069.066	n/a	REC_WORD	534533	wordpools/wasnorm_wordpool_less_exclusions.txt	LTP211	ltpFR	11	3	0	TURTLE	1522	n/a	n/a	0	n/a	0	0	0	n/a	n/a	n/a	n/a	n/a
1071.89	n/a	REC_WORD	535945	wordpools/wasnorm_wordpool_less_exclusions.txt	LTP211	ltpFR	11	3	0	LASH	802	n/a	n/a	0	n/a	0	0	0	n/a	n/a	n/a	n/a	n/a
1074.426	n/a	REC_WORD	537213	wordpools/wasnorm_wordpool_less_exclusions.txt	LTP211	ltpFR	11	3	0	FENCE	560	n/a	n/a	1	n/a	0	0	0	n/a	n/a	n/a	n/a	n/a
1076.994	n/a	REC_WORD	538497	wordpools/wasnorm_wordpool_less_exclusions.txt	LTP211	ltpFR	11	3	0	PRIMATE	1123	n/a	n/a	1	n/a	0	0	0	n/a	n/a	n/a	n/a	n/a
1079.03	n/a	REC_WORD	539515	wordpools/wasnorm_wordpool_less_exclusions.txt	LTP211	ltpFR	11	3	0	BARN	89	n/a	n/a	1	n/a	0	0	0	n/a	n/a	n/a	n/a	n/a
1080.88	n/a	REC_WORD	540440	wordpools/wasnorm_wordpool_less_exclusions.txt	LTP211	ltpFR	11	3	0	CAPTAIN	239	n/a	n/a	1	n/a	0	0	0	n/a	n/a	n/a	n/a	n/a
1082.906	n/a	REC_WORD	541453	wordpools/wasnorm_wordpool_less_exclusions.txt	LTP211	ltpFR	11	3	0	BRANCH	168	n/a	n/a	1	n/a	0	0	0	n/a	n/a	n/a	n/a	n/a
1128.562	n/a	WORD	564281	wordpools/wasnorm_wordpool_less_exclusions.txt	LTP211	ltpFR	11	4	0	BASEMENT	94	n/a	n/a	1	n/a	0	0	0	0.57763671875	0.412841796875	1	lower	amplitud.ttf
1132.39	n/a	WORD	566195	wordpools/wasnorm_wordpool_less_exclusions.txt	LTP211	ltpFR	11	4	0	CABIN	211	n/a	n/a	1	n/a	0	0	0	0.57763671875	0.412841796875	1	lower	amplitud.ttf
1136.284	n/a	WORD	568142	wordpools/wasnorm_wordpool_less_exclusions.txt	LTP211	ltpFR	11	4	0	CAB	209	n/a	n/a	1	n/a	0	0	0	0.57763671875	0.412841796875	1	lower	amplitud.ttf
1140.178	n/a	WORD	570089	wordpools/wasnorm_wordpool_less_exclusions.txt	LTP211	ltpFR	11	4	0	YARN	1631	n/a	n/a	0	n/a	0	0	0	0.57763671875	0.412841796875	1	lower	amplitud.ttf
1144.39	n/a	WORD	572195	wordpools/wasnorm_wordpool_less_exclusions.txt	LTP211	ltpFR	11	4	0	KIDNEY	776	n/a	n/a	0	n/a	0	0	0	0.57763671875	0.412841796875	1	lower	amplitud.ttf
1148.584	n/a	WORD	574292	wordpools/wasnorm_wordpool_less_exclusions.txt	LTP211	ltpFR	11	4	1	COCKTAIL	338	n/a	n/a	0	n/a	0	0	0	0.422607421875	0.5869140625	0	upper	zerothre.ttf
1152.71	n/a	WORD	576355	wordpools/wasnorm_wordpool_less_exclusions.txt	LTP211	ltpFR	11	4	1	CANYON	235	n/a	n/a	1	n/a	0	0	0	0.422607421875	0.5869140625	0	upper	zerothre.ttf
1156.588	n/a	WORD	578294	wordpools/wasnorm_wordpool_less_exclusions.txt	LTP211	ltpFR	11	4	1	HIKER	708	n/a	n/a	1	n/a	0	0	0	0.422607421875	0.5869140625	0	upper	zerothre.ttf
1160.516	n/a	WORD	580258	wordpools/wasnorm_wordpool_less_exclusions.txt	LTP211	ltpFR	11	4	1	SEAL	1262	n/a	n/a	1	n/a	0	0	0	0.422607421875	0.5869140625	0	upper	zerothre.ttf
1164.476	n/a	WORD	582238	wordpools/wasnorm_wordpool_less_exclusions.txt	LTP211	ltpFR	11	4	1	MAID	856	n/a	n/a	1	n/a	0	0	0	0.422607421875	0.5869140625	0	upper	zerothre.ttf
1168.604	n/a	WORD	584302	wordpools/wasnorm_wordpool_less_exclusions.txt	LTP211	ltpFR	11	4	0	SALOON	1228	n/a	n/a	1	n/a	0	0	0	0.57763671875	0.412841796875	1	lower	amplitud.ttf
1172.664	n/a	WORD	586332	wordpools/wasnorm_wordpool_less_exclusions.txt	LTP211	ltpFR	11	4	0	FIN	566	n/a	n/a	1	n/a	0	0	0	0.57763671875	0.412841796875	1	lower	amplitud.ttf
1176.608	n/a	WORD	588304	wordpools/wasnorm_wordpool_less_exclusions.txt	LTP211	ltpFR	11	4	0	PORPOISE	1109	n/a	n/a	1	n/a	0	0	0	0.57763671875	0.412841796875	1	lower	amplitud.ttf
1180.602	n/a	WORD	590301	wordpools/wasnorm_wordpool_less_exclusions.txt	LTP211	ltpFR	11	4	1	VEHICLE	1553	n/a	n/a	0	n/a	0	0	0	0.422607421875	0.5869140625	0	upper	zerothre.ttf
1184.48	n/a	WORD	592240	wordpools/wasnorm_wordpool_less_exclusions.txt	LTP211	ltpFR	11	4	1	DUSTPAN	509	n/a	n/a	0	n/a	0	0	0	0.422607421875	0.5869140625	0	upper	zerothre.ttf
1188.674	n/a	WORD	594337	wordpools/wasnorm_wordpool_less_exclusions.txt	LTP211	ltpFR	11	4	1	BRACES	164	n/a	n/a	0	n/a	0	0	0	0.422607421875	0.5869140625	0	upper	zerothre.ttf
1191.686	n/a	START	595843	n/a	LTP211	ltpFR	11	n/a	n/a	n/a	n/a	n/a	n/a	n/a	n/a	n/a	n/a	n/a	n/a	n/a	n/a	n/a	n/a
1192.584	n/a	PROB	596292	n/a	LTP211	ltpFR	11	n/a	n/a	n/a	n/a	n/a	n/a	n/a	13	8	2	3	n/a	n/a	n/a	n/a	n/a
1194.466	n/a	PROB	597233	n/a	LTP211	ltpFR	11	n/a	n/a	n/a	n/a	n/a	n/a	n/a	16	1	7	8	n/a	n/a	n/a	n/a	n/a
1196.578	n/a	PROB	598289	n/a	LTP211	ltpFR	11	n/a	n/a	n/a	n/a	n/a	n/a	n/a	12	2	5	5	n/a	n/a	n/a	n/a	n/a
1198.176	n/a	PROB	599088	n/a	LTP211	ltpFR	11	n/a	n/a	n/a	n/a	n/a	n/a	n/a	12	8	2	2	n/a	n/a	n/a	n/a	n/a
1199.65	n/a	STOP	599825	n/a	LTP211	ltpFR	11	n/a	n/a	n/a	n/a	n/a	n/a	n/a	n/a	n/a	n/a	n/a	n/a	n/a	n/a	n/a	n/a
1201.638	n/a	REC_START	600819	n/a	LTP211	ltpFR	11	4	n/a	n/a	n/a	n/a	n/a	n/a	n/a	0	0	0	n/a	n/a	n/a	n/a	n/a
1203.488	n/a	REC_WORD	601744	wordpools/wasnorm_wordpool_less_exclusions.txt	LTP211	ltpFR	11	4	0	CABIN	211	n/a	n/a	1	n/a	0	0	0	n/a	n/a	n/a	n/a	n/a
1205.628	n/a	REC_WORD	602814	wordpools/wasnorm_wordpool_less_exclusions.txt	LTP211	ltpFR	11	4	0	BASEMENT	94	n/a	n/a	1	n/a	0	0	0	n/a	n/a	n/a	n/a	n/a
1207.06	n/a	REC_WORD	603530	wordpools/wasnorm_wordpool_less_exclusions.txt	LTP211	ltpFR	11	4	0	CAB	209	n/a	n/a	1	n/a	0	0	0	n/a	n/a	n/a	n/a	n/a
1212.254	n/a	REC_WORD	606127	wordpools/wasnorm_wordpool_less_exclusions.txt	LTP211	ltpFR	11	4	1	COCKTAIL	338	n/a	n/a	0	n/a	0	0	0	n/a	n/a	n/a	n/a	n/a
1219.906	n/a	REC_WORD	609953	wordpools/wasnorm_wordpool_less_exclusions.txt	LTP211	ltpFR	11	4	1	CANYON	235	n/a	n/a	1	n/a	0	0	0	n/a	n/a	n/a	n/a	n/a
1220.624	n/a	REC_WORD	610312	wordpools/wasnorm_wordpool_less_exclusions.txt	LTP211	ltpFR	11	4	1	HIKER	708	n/a	n/a	1	n/a	0	0	0	n/a	n/a	n/a	n/a	n/a
1222.166	n/a	REC_WORD	611083	wordpools/wasnorm_wordpool_less_exclusions.txt	LTP211	ltpFR	11	4	1	SEAL	1262	n/a	n/a	1	n/a	0	0	0	n/a	n/a	n/a	n/a	n/a
1229.572	n/a	REC_WORD	614786	wordpools/wasnorm_wordpool_less_exclusions.txt	LTP211	ltpFR	11	4	0	SALOON	1228	n/a	n/a	1	n/a	0	0	0	n/a	n/a	n/a	n/a	n/a
1230.61	n/a	REC_WORD	615305	wordpools/wasnorm_wordpool_less_exclusions.txt	LTP211	ltpFR	11	4	0	FIN	566	n/a	n/a	1	n/a	0	0	0	n/a	n/a	n/a	n/a	n/a
1231.71	n/a	REC_WORD	615855	wordpools/wasnorm_wordpool_less_exclusions.txt	LTP211	ltpFR	11	4	0	PORPOISE	1109	n/a	n/a	1	n/a	0	0	0	n/a	n/a	n/a	n/a	n/a
1236.16	n/a	REC_WORD	618080	wordpools/wasnorm_wordpool_less_exclusions.txt	LTP211	ltpFR	11	4	1	VEHICLE	1553	n/a	n/a	0	n/a	0	0	0	n/a	n/a	n/a	n/a	n/a
1239.488	n/a	REC_WORD	619744	wordpools/wasnorm_wordpool_less_exclusions.txt	LTP211	ltpFR	11	4	1	DUSTPAN	509	n/a	n/a	0	n/a	0	0	0	n/a	n/a	n/a	n/a	n/a
1241.178	n/a	REC_WORD	620589	wordpools/wasnorm_wordpool_less_exclusions.txt	LTP211	ltpFR	11	4	1	BRACES	164	n/a	n/a	0	n/a	0	0	0	n/a	n/a	n/a	n/a	n/a
1281.852	n/a	WORD	640926	wordpools/wasnorm_wordpool_less_exclusions.txt	LTP211	ltpFR	11	5	1	FLIPPER	580	n/a	n/a	0	n/a	0	0	0	0.422607421875	0.5869140625	0	upper	zerothre.ttf
1285.896	n/a	WORD	642948	wordpools/wasnorm_wordpool_less_exclusions.txt	LTP211	ltpFR	11	5	1	COLONEL	348	n/a	n/a	1	n/a	0	0	0	0.422607421875	0.5869140625	0	upper	zerothre.ttf
1290.024	n/a	WORD	645012	wordpools/wasnorm_wordpool_less_exclusions.txt	LTP211	ltpFR	11	5	1	FLEET	578	n/a	n/a	0	n/a	0	0	0	0.422607421875	0.5869140625	0	upper	zerothre.ttf
1294.034	n/a	WORD	647017	wordpools/wasnorm_wordpool_less_exclusions.txt	LTP211	ltpFR	11	5	0	BULLETIN	195	n/a	n/a	0	n/a	0	0	0	0.57763671875	0.412841796875	1	lower	amplitud.ttf
1297.962	n/a	WORD	648981	wordpools/wasnorm_wordpool_less_exclusions.txt	LTP211	ltpFR	11	5	0	FOREST	593	n/a	n/a	1	n/a	0	0	0	0.57763671875	0.412841796875	1	lower	amplitud.ttf
1302.024	n/a	WORD	651012	wordpools/wasnorm_wordpool_less_exclusions.txt	LTP211	ltpFR	11	5	0	RAM	1165	n/a	n/a	1	n/a	0	0	0	0.57763671875	0.412841796875	1	lower	amplitud.ttf
1306.15	n/a	WORD	653075	wordpools/wasnorm_wordpool_less_exclusions.txt	LTP211	ltpFR	11	5	0	FLASK	576	n/a	n/a	1	n/a	0	0	0	0.57763671875	0.412841796875	1	lower	amplitud.ttf
1310.212	n/a	WORD	655106	wordpools/wasnorm_wordpool_less_exclusions.txt	LTP211	ltpFR	11	5	0	CHEMICAL	291	n/a	n/a	0	n/a	0	0	0	0.57763671875	0.412841796875	1	lower	amplitud.ttf
1314.422	n/a	WORD	657211	wordpools/wasnorm_wordpool_less_exclusions.txt	LTP211	ltpFR	11	5	1	TART	1436	n/a	n/a	0	n/a	0	0	0	0.422607421875	0.5869140625	0	upper	zerothre.ttf
1318.516	n/a	WORD	659258	wordpools/wasnorm_wordpool_less_exclusions.txt	LTP211	ltpFR	11	5	1	PUMP	1141	n/a	n/a	0	n/a	0	0	0	0.422607421875	0.5869140625	0	upper	zerothre.ttf
1322.526	n/a	WORD	661263	wordpools/wasnorm_wordpool_less_exclusions.txt	LTP211	ltpFR	11	5	1	SHERIFF	1284	n/a	n/a	1	n/a	0	0	0	0.422607421875	0.5869140625	0	upper	zerothre.ttf
1326.736	n/a	WORD	663368	wordpools/wasnorm_wordpool_less_exclusions.txt	LTP211	ltpFR	11	5	1	BERRY	122	n/a	n/a	0	n/a	0	0	0	0.422607421875	0.5869140625	0	upper	zerothre.ttf
1330.914	n/a	WORD	665457	wordpools/wasnorm_wordpool_less_exclusions.txt	LTP211	ltpFR	11	5	1	COD	340	n/a	n/a	1	n/a	0	0	0	0.422607421875	0.5869140625	0	upper	zerothre.ttf
1334.742	n/a	WORD	667371	wordpools/wasnorm_wordpool_less_exclusions.txt	LTP211	ltpFR	11	5	0	DEPUTY	450	n/a	n/a	1	n/a	0	0	0	0.57763671875	0.412841796875	1	lower	amplitud.ttf
1338.818	n/a	WORD	669409	wordpools/wasnorm_wordpool_less_exclusions.txt	LTP211	ltpFR	11	5	0	CHEESE	289	n/a	n/a	0	n/a	0	0	0	0.57763671875	0.412841796875	1	lower	amplitud.ttf
1342.696	n/a	WORD	671348	wordpools/wasnorm_wordpool_less_exclusions.txt	LTP211	ltpFR	11	5	0	PEPPER	1047	n/a	n/a	0	n/a	0	0	0	0.57763671875	0.412841796875	1	lower	amplitud.ttf
1348.704	n/a	REC_START	674352	n/a	LTP211	ltpFR	11	5	n/a	n/a	n/a	n/a	n/a	n/a	n/a	0	0	0	n/a	n/a	n/a	n/a	n/a
1351.536	n/a	REC_WORD	675768	wordpools/wasnorm_wordpool_less_exclusions.txt	LTP211	ltpFR	11	5	1	FLIPPER	580	n/a	n/a	0	n/a	0	0	0	n/a	n/a	n/a	n/a	n/a
1353.49	n/a	REC_WORD	676745	wordpools/wasnorm_wordpool_less_exclusions.txt	LTP211	ltpFR	11	5	1	FLIPPER	580	n/a	n/a	0	n/a	0	0	0	n/a	n/a	n/a	n/a	n/a
1354.744	n/a	REC_WORD	677372	wordpools/wasnorm_wordpool_less_exclusions.txt	LTP211	ltpFR	11	5	1	COLONEL	348	n/a	n/a	1	n/a	0	0	0	n/a	n/a	n/a	n/a	n/a
1355.706	n/a	REC_WORD	677853	wordpools/wasnorm_wordpool_less_exclusions.txt	LTP211	ltpFR	11	5	1	FLEET	578	n/a	n/a	0	n/a	0	0	0	n/a	n/a	n/a	n/a	n/a
1357.598	n/a	REC_WORD	678799	wordpools/wasnorm_wordpool_less_exclusions.txt	LTP211	ltpFR	11	5	0	BULLETIN	195	n/a	n/a	0	n/a	0	0	0	n/a	n/a	n/a	n/a	n/a
1359.034	n/a	REC_WORD	679517	wordpools/wasnorm_wordpool_less_exclusions.txt	LTP211	ltpFR	11	5	0	FOREST	593	n/a	n/a	1	n/a	0	0	0	n/a	n/a	n/a	n/a	n/a
1361.066	n/a	REC_WORD	680533	wordpools/wasnorm_wordpool_less_exclusions.txt	LTP211	ltpFR	11	5	0	RAM	1165	n/a	n/a	1	n/a	0	0	0	n/a	n/a	n/a	n/a	n/a
1362.986	n/a	REC_WORD	681493	wordpools/wasnorm_wordpool_less_exclusions.txt	LTP211	ltpFR	11	5	0	FLASK	576	n/a	n/a	1	n/a	0	0	0	n/a	n/a	n/a	n/a	n/a
1364.972	n/a	REC_WORD	682486	wordpools/wasnorm_wordpool_less_exclusions.txt	LTP211	ltpFR	11	5	0	CHEMICAL	291	n/a	n/a	0	n/a	0	0	0	n/a	n/a	n/a	n/a	n/a
1371.012	n/a	REC_WORD	685506	wordpools/wasnorm_wordpool_less_exclusions.txt	LTP211	ltpFR	11	5	1	TART	1436	n/a	n/a	0	n/a	0	0	0	n/a	n/a	n/a	n/a	n/a
1378.456	n/a	REC_WORD	689228	wordpools/wasnorm_wordpool_less_exclusions.txt	LTP211	ltpFR	11	5	0	DEPUTY	450	n/a	n/a	1	n/a	0	0	0	n/a	n/a	n/a	n/a	n/a
1383.47	n/a	REC_WORD	691735	wordpools/wasnorm_wordpool_less_exclusions.txt	LTP211	ltpFR	11	5	1	BERRY	122	n/a	n/a	0	n/a	0	0	0	n/a	n/a	n/a	n/a	n/a
1384.538	n/a	REC_WORD	692269	wordpools/wasnorm_wordpool_less_exclusions.txt	LTP211	ltpFR	11	5	1	COD	340	n/a	n/a	1	n/a	0	0	0	n/a	n/a	n/a	n/a	n/a
1385.526	n/a	REC_WORD	692763	wordpools/wasnorm_wordpool_less_exclusions.txt	LTP211	ltpFR	11	5	1	SHERIFF	1284	n/a	n/a	1	n/a	0	0	0	n/a	n/a	n/a	n/a	n/a
1386.638	n/a	REC_WORD	693319	wordpools/wasnorm_wordpool_less_exclusions.txt	LTP211	ltpFR	11	5	0	CHEESE	289	n/a	n/a	0	n/a	0	0	0	n/a	n/a	n/a	n/a	n/a
1388.09	n/a	REC_WORD	694045	wordpools/wasnorm_wordpool_less_exclusions.txt	LTP211	ltpFR	11	5	0	PEPPER	1047	n/a	n/a	0	n/a	0	0	0	n/a	n/a	n/a	n/a	n/a
1392.06	n/a	REC_WORD	696030	wordpools/wasnorm_wordpool_less_exclusions.txt	LTP211	ltpFR	11	5	1	PUMP	1141	n/a	n/a	0	n/a	0	0	0	n/a	n/a	n/a	n/a	n/a
1427.504	n/a	WORD	713752	wordpools/wasnorm_wordpool_less_exclusions.txt	LTP211	ltpFR	11	6	1	CRAB	397	n/a	n/a	1	n/a	0	0	0	0.422607421875	0.5869140625	0	upper	zerothre.ttf
1431.68	n/a	WORD	715840	wordpools/wasnorm_wordpool_less_exclusions.txt	LTP211	ltpFR	11	6	1	TAR	1435	n/a	n/a	0	n/a	0	0	0	0.422607421875	0.5869140625	0	upper	zerothre.ttf
1435.858	n/a	WORD	717929	wordpools/wasnorm_wordpool_less_exclusions.txt	LTP211	ltpFR	11	6	1	STICKER	1382	n/a	n/a	0	n/a	0	0	0	0.422607421875	0.5869140625	0	upper	zerothre.ttf
1439.786	n/a	WORD	719893	wordpools/wasnorm_wordpool_less_exclusions.txt	LTP211	ltpFR	11	6	1	VIDEO	1564	n/a	n/a	0	n/a	0	0	0	0.422607421875	0.5869140625	0	upper	zerothre.ttf
1443.678	n/a	WORD	721839	wordpools/wasnorm_wordpool_less_exclusions.txt	LTP211	ltpFR	11	6	1	ALMANAC	17	n/a	n/a	0	n/a	0	0	0	0.422607421875	0.5869140625	0	upper	zerothre.ttf
1447.524	n/a	WORD	723762	wordpools/wasnorm_wordpool_less_exclusions.txt	LTP211	ltpFR	11	6	0	LOLLIPOP	842	n/a	n/a	0	n/a	0	0	0	0.57763671875	0.412841796875	1	lower	amplitud.ttf
1451.552	n/a	WORD	725776	wordpools/wasnorm_wordpool_less_exclusions.txt	LTP211	ltpFR	11	6	0	WOLF	1619	n/a	n/a	1	n/a	0	0	0	0.57763671875	0.412841796875	1	lower	amplitud.ttf
1455.53	n/a	WORD	727765	wordpools/wasnorm_wordpool_less_exclusions.txt	LTP211	ltpFR	11	6	0	BEAVER	109	n/a	n/a	1	n/a	0	0	0	0.57763671875	0.412841796875	1	lower	amplitud.ttf
1459.74	n/a	WORD	729870	wordpools/wasnorm_wordpool_less_exclusions.txt	LTP211	ltpFR	11	6	0	LUGGAGE	847	n/a	n/a	0	n/a	0	0	0	0.57763671875	0.412841796875	1	lower	amplitud.ttf
1463.634	n/a	WORD	731817	wordpools/wasnorm_wordpool_less_exclusions.txt	LTP211	ltpFR	11	6	1	BEGGAR	117	n/a	n/a	1	n/a	0	0	0	0.422607421875	0.5869140625	0	upper	zerothre.ttf
1467.794	n/a	WORD	733897	wordpools/wasnorm_wordpool_less_exclusions.txt	LTP211	ltpFR	11	6	1	THESAURUS	1454	n/a	n/a	0	n/a	0	0	0	0.422607421875	0.5869140625	0	upper	zerothre.ttf
1471.906	n/a	WORD	735953	wordpools/wasnorm_wordpool_less_exclusions.txt	LTP211	ltpFR	11	6	1	PORK	1108	n/a	n/a	1	n/a	0	0	0	0.422607421875	0.5869140625	0	upper	zerothre.ttf
1475.916	n/a	WORD	737958	wordpools/wasnorm_wordpool_less_exclusions.txt	LTP211	ltpFR	11	6	0	SQUID	1361	n/a	n/a	0	n/a	0	0	0	0.57763671875	0.412841796875	1	lower	amplitud.ttf
1479.744	n/a	WORD	739872	wordpools/wasnorm_wordpool_less_exclusions.txt	LTP211	ltpFR	11	6	0	DISC	473	n/a	n/a	0	n/a	0	0	0	0.57763671875	0.412841796875	1	lower	amplitud.ttf
1483.738	n/a	WORD	741869	wordpools/wasnorm_wordpool_less_exclusions.txt	LTP211	ltpFR	11	6	0	STUDENT	1395	n/a	n/a	1	n/a	0	0	0	0.57763671875	0.412841796875	1	lower	amplitud.ttf
1487.948	n/a	WORD	743974	wordpools/wasnorm_wordpool_less_exclusions.txt	LTP211	ltpFR	11	6	0	INSTRUCTOR	741	n/a	n/a	1	n/a	0	0	0	0.57763671875	0.412841796875	1	lower	amplitud.ttf
1490.96	n/a	START	745480	n/a	LTP211	ltpFR	11	n/a	n/a	n/a	n/a	n/a	n/a	n/a	n/a	n/a	n/a	n/a	n/a	n/a	n/a	n/a	n/a
1492.026	n/a	PROB	746013	n/a	LTP211	ltpFR	11	n/a	n/a	n/a	n/a	n/a	n/a	n/a	11	4	3	4	n/a	n/a	n/a	n/a	n/a
1494.338	n/a	PROB	747169	n/a	LTP211	ltpFR	11	n/a	n/a	n/a	n/a	n/a	n/a	n/a	14	9	4	1	n/a	n/a	n/a	n/a	n/a
1496.202	n/a	PROB	748101	n/a	LTP211	ltpFR	11	n/a	n/a	n/a	n/a	n/a	n/a	n/a	12	3	8	1	n/a	n/a	n/a	n/a	n/a
1497.95	n/a	PROB	748975	n/a	LTP211	ltpFR	11	n/a	n/a	n/a	n/a	n/a	n/a	n/a	17	4	5	8	n/a	n/a	n/a	n/a	n/a
1500.262	n/a	PROB	750131	n/a	LTP211	ltpFR	11	n/a	n/a	n/a	n/a	n/a	n/a	n/a	20	6	5	9	n/a	n/a	n/a	n/a	n/a
1502.808	n/a	PROB	751404	n/a	LTP211	ltpFR	11	n/a	n/a	n/a	n/a	n/a	n/a	n/a	11	7	3	1	n/a	n/a	n/a	n/a	n/a
1504.174	n/a	PROB	752087	n/a	LTP211	ltpFR	11	n/a	n/a	n/a	n/a	n/a	n/a	n/a	16	9	3	4	n/a	n/a	n/a	n/a	n/a
1506.328	n/a	STOP	753164	n/a	LTP211	ltpFR	11	n/a	n/a	n/a	n/a	n/a	n/a	n/a	n/a	n/a	n/a	n/a	n/a	n/a	n/a	n/a	n/a
1508.918	n/a	REC_START	754459	n/a	LTP211	ltpFR	11	6	n/a	n/a	n/a	n/a	n/a	n/a	n/a	0	0	0	n/a	n/a	n/a	n/a	n/a
1515.756	n/a	REC_WORD	757878	wordpools/wasnorm_wordpool_less_exclusions.txt	LTP211	ltpFR	11	6	0	INSTRUCTOR	741	n/a	n/a	1	n/a	0	0	0	n/a	n/a	n/a	n/a	n/a
1516.824	n/a	REC_WORD	758412	wordpools/wasnorm_wordpool_less_exclusions.txt	LTP211	ltpFR	11	6	0	STUDENT	1395	n/a	n/a	1	n/a	0	0	0	n/a	n/a	n/a	n/a	n/a
1517.882	n/a	REC_WORD	758941	wordpools/wasnorm_wordpool_less_exclusions.txt	LTP211	ltpFR	11	6	0	DISC	473	n/a	n/a	0	n/a	0	0	0	n/a	n/a	n/a	n/a	n/a
1519.29	n/a	REC_WORD	759645	wordpools/wasnorm_wordpool_less_exclusions.txt	LTP211	ltpFR	11	6	1	BEGGAR	117	n/a	n/a	1	n/a	0	0	0	n/a	n/a	n/a	n/a	n/a
1521.54	n/a	REC_WORD	760770	wordpools/wasnorm_wordpool_less_exclusions.txt	LTP211	ltpFR	11	6	1	THESAURUS	1454	n/a	n/a	0	n/a	0	0	0	n/a	n/a	n/a	n/a	n/a
1523.166	n/a	REC_WORD	761583	wordpools/wasnorm_wordpool_less_exclusions.txt	LTP211	ltpFR	11	6	1	PORK	1108	n/a	n/a	1	n/a	0	0	0	n/a	n/a	n/a	n/a	n/a
1523.918	n/a	REC_WORD	761959	wordpools/wasnorm_wordpool_less_exclusions.txt	LTP211	ltpFR	11	6	0	SQUID	1361	n/a	n/a	0	n/a	0	0	0	n/a	n/a	n/a	n/a	n/a
1525.076	n/a	REC_WORD	762538	wordpools/wasnorm_wordpool_less_exclusions.txt	LTP211	ltpFR	11	6	0	LUGGAGE	847	n/a	n/a	0	n/a	0	0	0	n/a	n/a	n/a	n/a	n/a
1526.284	n/a	REC_WORD	763142	wordpools/wasnorm_wordpool_less_exclusions.txt	LTP211	ltpFR	11	6	0	BEAVER	109	n/a	n/a	1	n/a	0	0	0	n/a	n/a	n/a	n/a	n/a
1527.486	n/a	REC_WORD	763743	wordpools/wasnorm_wordpool_less_exclusions.txt	LTP211	ltpFR	11	6	1	FOX	598	n/a	n/a	1	n/a	0	0	0	n/a	n/a	n/a	n/a	n/a
1530.19	n/a	REC_WORD	765095	wordpools/wasnorm_wordpool_less_exclusions.txt	LTP211	ltpFR	11	6	0	LOLLIPOP	842	n/a	n/a	0	n/a	0	0	0	n/a	n/a	n/a	n/a	n/a
1533.432	n/a	REC_WORD	766716	wordpools/wasnorm_wordpool_less_exclusions.txt	LTP211	ltpFR	11	6	1	ALMANAC	17	n/a	n/a	0	n/a	0	0	0	n/a	n/a	n/a	n/a	n/a
1535.982	n/a	REC_WORD	767991	wordpools/wasnorm_wordpool_less_exclusions.txt	LTP211	ltpFR	11	6	1	VIDEO	1564	n/a	n/a	0	n/a	0	0	0	n/a	n/a	n/a	n/a	n/a
1537.362	n/a	REC_WORD	768681	wordpools/wasnorm_wordpool_less_exclusions.txt	LTP211	ltpFR	11	6	1	STICKER	1382	n/a	n/a	0	n/a	0	0	0	n/a	n/a	n/a	n/a	n/a
1539.608	n/a	REC_WORD	769804	wordpools/wasnorm_wordpool_less_exclusions.txt	LTP211	ltpFR	11	6	1	TAR	1435	n/a	n/a	0	n/a	0	0	0	n/a	n/a	n/a	n/a	n/a
1542.208	n/a	REC_WORD	771104	wordpools/wasnorm_wordpool_less_exclusions.txt	LTP211	ltpFR	11	6	1	CRAB	397	n/a	n/a	1	n/a	0	0	0	n/a	n/a	n/a	n/a	n/a
1585.404	n/a	START	792702	n/a	LTP211	ltpFR	11	n/a	n/a	n/a	n/a	n/a	n/a	n/a	n/a	n/a	n/a	n/a	n/a	n/a	n/a	n/a	n/a
1586.918	n/a	PROB	793459	n/a	LTP211	ltpFR	11	n/a	n/a	n/a	n/a	n/a	n/a	n/a	14	3	6	5	n/a	n/a	n/a	n/a	n/a
1588.348	n/a	PROB	794174	n/a	LTP211	ltpFR	11	n/a	n/a	n/a	n/a	n/a	n/a	n/a	17	4	5	8	n/a	n/a	n/a	n/a	n/a
1590.58	n/a	PROB	795290	n/a	LTP211	ltpFR	11	n/a	n/a	n/a	n/a	n/a	n/a	n/a	13	7	4	2	n/a	n/a	n/a	n/a	n/a
1592.45	n/a	STOP	796225	n/a	LTP211	ltpFR	11	n/a	n/a	n/a	n/a	n/a	n/a	n/a	n/a	n/a	n/a	n/a	n/a	n/a	n/a	n/a	n/a
1594.34	n/a	WORD	797170	wordpools/wasnorm_wordpool_less_exclusions.txt	LTP211	ltpFR	11	7	1	BUG	187	n/a	n/a	1	n/a	0	0	0	0.422607421875	0.5869140625	0	upper	zerothre.ttf
1597.354	n/a	START	798677	n/a	LTP211	ltpFR	11	n/a	n/a	n/a	n/a	n/a	n/a	n/a	n/a	n/a	n/a	n/a	n/a	n/a	n/a	n/a	n/a
1598.252	n/a	PROB	799126	n/a	LTP211	ltpFR	11	n/a	n/a	n/a	n/a	n/a	n/a	n/a	19	4	8	7	n/a	n/a	n/a	n/a	n/a
1600.0	n/a	PROB	800000	n/a	LTP211	ltpFR	11	n/a	n/a	n/a	n/a	n/a	n/a	n/a	24	8	7	9	n/a	n/a	n/a	n/a	n/a
1601.564	n/a	PROB	800782	n/a	LTP211	ltpFR	11	n/a	n/a	n/a	n/a	n/a	n/a	n/a	19	8	5	7	n/a	n/a	n/a	n/a	n/a
1603.866	n/a	STOP	801933	n/a	LTP211	ltpFR	11	n/a	n/a	n/a	n/a	n/a	n/a	n/a	n/a	n/a	n/a	n/a	n/a	n/a	n/a	n/a	n/a
1606.256	n/a	WORD	803128	wordpools/wasnorm_wordpool_less_exclusions.txt	LTP211	ltpFR	11	7	1	BEE	112	n/a	n/a	1	n/a	0	0	0	0.422607421875	0.5869140625	0	upper	zerothre.ttf
1609.268	n/a	START	804634	n/a	LTP211	ltpFR	11	n/a	n/a	n/a	n/a	n/a	n/a	n/a	n/a	n/a	n/a	n/a	n/a	n/a	n/a	n/a	n/a
1610.45	n/a	PROB	805225	n/a	LTP211	ltpFR	11	n/a	n/a	n/a	n/a	n/a	n/a	n/a	21	8	5	8	n/a	n/a	n/a	n/a	n/a
1612.914	n/a	PROB	806457	n/a	LTP211	ltpFR	11	n/a	n/a	n/a	n/a	n/a	n/a	n/a	19	8	3	8	n/a	n/a	n/a	n/a	n/a
1614.578	n/a	PROB	807289	n/a	LTP211	ltpFR	11	n/a	n/a	n/a	n/a	n/a	n/a	n/a	7	3	3	1	n/a	n/a	n/a	n/a	n/a
1616.226	n/a	STOP	808113	n/a	LTP211	ltpFR	11	n/a	n/a	n/a	n/a	n/a	n/a	n/a	n/a	n/a	n/a	n/a	n/a	n/a	n/a	n/a	n/a
1618.288	n/a	WORD	809144	wordpools/wasnorm_wordpool_less_exclusions.txt	LTP211	ltpFR	11	7	1	NERVE	944	n/a	n/a	0	n/a	0	0	0	0.422607421875	0.5869140625	0	upper	zerothre.ttf
1621.302	n/a	START	810651	n/a	LTP211	ltpFR	11	n/a	n/a	n/a	n/a	n/a	n/a	n/a	n/a	n/a	n/a	n/a	n/a	n/a	n/a	n/a	n/a
1622.2	n/a	PROB	811100	n/a	LTP211	ltpFR	11	n/a	n/a	n/a	n/a	n/a	n/a	n/a	10	4	3	3	n/a	n/a	n/a	n/a	n/a
1624.928	n/a	PROB	812464	n/a	LTP211	ltpFR	11	n/a	n/a	n/a	n/a	n/a	n/a	n/a	10	3	3	4	n/a	n/a	n/a	n/a	n/a
1626.858	n/a	PROB	813429	n/a	LTP211	ltpFR	11	n/a	n/a	n/a	n/a	n/a	n/a	n/a	17	8	1	8	n/a	n/a	n/a	n/a	n/a
1628.402	n/a	STOP	814201	n/a	LTP211	ltpFR	11	n/a	n/a	n/a	n/a	n/a	n/a	n/a	n/a	n/a	n/a	n/a	n/a	n/a	n/a	n/a	n/a
1630.338	n/a	WORD	815169	wordpools/wasnorm_wordpool_less_exclusions.txt	LTP211	ltpFR	11	7	1	EUROPE	541	n/a	n/a	0	n/a	0	0	0	0.422607421875	0.5869140625	0	upper	zerothre.ttf
1633.35	n/a	START	816675	n/a	LTP211	ltpFR	11	n/a	n/a	n/a	n/a	n/a	n/a	n/a	n/a	n/a	n/a	n/a	n/a	n/a	n/a	n/a	n/a
1634.182	n/a	PROB	817091	n/a	LTP211	ltpFR	11	n/a	n/a	n/a	n/a	n/a	n/a	n/a	17	7	3	7	n/a	n/a	n/a	n/a	n/a
1635.912	n/a	PROB	817956	n/a	LTP211	ltpFR	11	n/a	n/a	n/a	n/a	n/a	n/a	n/a	11	2	1	8	n/a	n/a	n/a	n/a	n/a
1638.158	n/a	PROB	819079	n/a	LTP211	ltpFR	11	n/a	n/a	n/a	n/a	n/a	n/a	n/a	21	9	3	9	n/a	n/a	n/a	n/a	n/a
1639.756	n/a	PROB	819878	n/a	LTP211	ltpFR	11	n/a	n/a	n/a	n/a	n/a	n/a	n/a	14	7	3	4	n/a	n/a	n/a	n/a	n/a
1640.978	n/a	STOP	820489	n/a	LTP211	ltpFR	11	n/a	n/a	n/a	n/a	n/a	n/a	n/a	n/a	n/a	n/a	n/a	n/a	n/a	n/a	n/a	n/a
1642.518	n/a	WORD	821259	wordpools/wasnorm_wordpool_less_exclusions.txt	LTP211	ltpFR	11	7	1	ROAD	1196	n/a	n/a	0	n/a	0	0	0	0.422607421875	0.5869140625	0	upper	zerothre.ttf
1645.532	n/a	START	822766	n/a	LTP211	ltpFR	11	n/a	n/a	n/a	n/a	n/a	n/a	n/a	n/a	n/a	n/a	n/a	n/a	n/a	n/a	n/a	n/a
1646.53	n/a	PROB	823265	n/a	LTP211	ltpFR	11	n/a	n/a	n/a	n/a	n/a	n/a	n/a	21	6	6	9	n/a	n/a	n/a	n/a	n/a
1649.526	n/a	PROB	824763	n/a	LTP211	ltpFR	11	n/a	n/a	n/a	n/a	n/a	n/a	n/a	20	8	5	7	n/a	n/a	n/a	n/a	n/a
1651.788	n/a	PROB	825894	n/a	LTP211	ltpFR	11	n/a	n/a	n/a	n/a	n/a	n/a	n/a	15	5	5	5	n/a	n/a	n/a	n/a	n/a
1652.978	n/a	STOP	826489	n/a	LTP211	ltpFR	11	n/a	n/a	n/a	n/a	n/a	n/a	n/a	n/a	n/a	n/a	n/a	n/a	n/a	n/a	n/a	n/a
1654.75	n/a	WORD	827375	wordpools/wasnorm_wordpool_less_exclusions.txt	LTP211	ltpFR	11	7	1	FEAST	556	n/a	n/a	0	n/a	0	0	0	0.422607421875	0.5869140625	0	upper	zerothre.ttf
1657.764	n/a	START	828882	n/a	LTP211	ltpFR	11	n/a	n/a	n/a	n/a	n/a	n/a	n/a	n/a	n/a	n/a	n/a	n/a	n/a	n/a	n/a	n/a
1658.894	n/a	PROB	829447	n/a	LTP211	ltpFR	11	n/a	n/a	n/a	n/a	n/a	n/a	n/a	7	1	2	4	n/a	n/a	n/a	n/a	n/a
1660.442	n/a	PROB	830221	n/a	LTP211	ltpFR	11	n/a	n/a	n/a	n/a	n/a	n/a	n/a	18	8	2	8	n/a	n/a	n/a	n/a	n/a
1661.792	n/a	PROB	830896	n/a	LTP211	ltpFR	11	n/a	n/a	n/a	n/a	n/a	n/a	n/a	20	2	9	2	n/a	n/a	n/a	n/a	n/a
1663.62	n/a	PROB	831810	n/a	LTP211	ltpFR	11	n/a	n/a	n/a	n/a	n/a	n/a	n/a	15	8	1	6	n/a	n/a	n/a	n/a	n/a
1665.618	n/a	STOP	832809	n/a	LTP211	ltpFR	11	n/a	n/a	n/a	n/a	n/a	n/a	n/a	n/a	n/a	n/a	n/a	n/a	n/a	n/a	n/a	n/a
1666.584	n/a	WORD	833292	wordpools/wasnorm_wordpool_less_exclusions.txt	LTP211	ltpFR	11	7	1	THERMOMETER	1453	n/a	n/a	0	n/a	0	0	0	0.422607421875	0.5869140625	0	upper	zerothre.ttf
1669.596	n/a	START	834798	n/a	LTP211	ltpFR	11	n/a	n/a	n/a	n/a	n/a	n/a	n/a	n/a	n/a	n/a	n/a	n/a	n/a	n/a	n/a	n/a
1670.494	n/a	PROB	835247	n/a	LTP211	ltpFR	11	n/a	n/a	n/a	n/a	n/a	n/a	n/a	17	7	2	8	n/a	n/a	n/a	n/a	n/a
1672.158	n/a	PROB	836079	n/a	LTP211	ltpFR	11	n/a	n/a	n/a	n/a	n/a	n/a	n/a	20	8	3	9	n/a	n/a	n/a	n/a	n/a
1673.79	n/a	PROB	836895	n/a	LTP211	ltpFR	11	n/a	n/a	n/a	n/a	n/a	n/a	n/a	17	4	6	7	n/a	n/a	n/a	n/a	n/a
1675.122	n/a	PROB	837561	n/a	LTP211	ltpFR	11	n/a	n/a	n/a	n/a	n/a	n/a	n/a	8	3	2	3	n/a	n/a	n/a	n/a	n/a
1677.25	n/a	STOP	838625	n/a	LTP211	ltpFR	11	n/a	n/a	n/a	n/a	n/a	n/a	n/a	n/a	n/a	n/a	n/a	n/a	n/a	n/a	n/a	n/a
1678.5	n/a	WORD	839250	wordpools/wasnorm_wordpool_less_exclusions.txt	LTP211	ltpFR	11	7	1	STALLION	1369	n/a	n/a	0	n/a	0	0	0	0.422607421875	0.5869140625	0	upper	zerothre.ttf
1681.512	n/a	START	840756	n/a	LTP211	ltpFR	11	n/a	n/a	n/a	n/a	n/a	n/a	n/a	n/a	n/a	n/a	n/a	n/a	n/a	n/a	n/a	n/a
1682.426	n/a	PROB	841213	n/a	LTP211	ltpFR	11	n/a	n/a	n/a	n/a	n/a	n/a	n/a	11	1	5	6	n/a	n/a	n/a	n/a	n/a
1684.058	n/a	PROB	842029	n/a	LTP211	ltpFR	11	n/a	n/a	n/a	n/a	n/a	n/a	n/a	16	3	5	8	n/a	n/a	n/a	n/a	n/a
1686.204	n/a	PROB	843102	n/a	LTP211	ltpFR	11	n/a	n/a	n/a	n/a	n/a	n/a	n/a	13	9	1	2	n/a	n/a	n/a	n/a	n/a
1689.512	n/a	STOP	844756	n/a	LTP211	ltpFR	11	n/a	n/a	n/a	n/a	n/a	n/a	n/a	n/a	n/a	n/a	n/a	n/a	n/a	n/a	n/a	n/a
1690.464	n/a	WORD	845232	wordpools/wasnorm_wordpool_less_exclusions.txt	LTP211	ltpFR	11	7	1	CHARCOAL	281	n/a	n/a	1	n/a	0	0	0	0.422607421875	0.5869140625	0	upper	zerothre.ttf
1693.478	n/a	START	846739	n/a	LTP211	ltpFR	11	n/a	n/a	n/a	n/a	n/a	n/a	n/a	n/a	n/a	n/a	n/a	n/a	n/a	n/a	n/a	n/a
1694.426	n/a	PROB	847213	n/a	LTP211	ltpFR	11	n/a	n/a	n/a	n/a	n/a	n/a	n/a	7	3	3	1	n/a	n/a	n/a	n/a	n/a
1695.79	n/a	PROB	847895	n/a	LTP211	ltpFR	11	n/a	n/a	n/a	n/a	n/a	n/a	n/a	18	8	7	3	n/a	n/a	n/a	n/a	n/a
1697.338	n/a	PROB	848669	n/a	LTP211	ltpFR	11	n/a	n/a	n/a	n/a	n/a	n/a	n/a	21	4	8	9	n/a	n/a	n/a	n/a	n/a
1699.052	n/a	PROB	849526	n/a	LTP211	ltpFR	11	n/a	n/a	n/a	n/a	n/a	n/a	n/a	12	6	1	5	n/a	n/a	n/a	n/a	n/a
1700.714	n/a	STOP	850357	n/a	LTP211	ltpFR	11	n/a	n/a	n/a	n/a	n/a	n/a	n/a	n/a	n/a	n/a	n/a	n/a	n/a	n/a	n/a	n/a
1702.646	n/a	WORD	851323	wordpools/wasnorm_wordpool_less_exclusions.txt	LTP211	ltpFR	11	7	1	NECKLACE	940	n/a	n/a	0	n/a	0	0	0	0.422607421875	0.5869140625	0	upper	zerothre.ttf
1705.658	n/a	START	852829	n/a	LTP211	ltpFR	11	n/a	n/a	n/a	n/a	n/a	n/a	n/a	n/a	n/a	n/a	n/a	n/a	n/a	n/a	n/a	n/a
1706.524	n/a	PROB	853262	n/a	LTP211	ltpFR	11	n/a	n/a	n/a	n/a	n/a	n/a	n/a	20	4	4	8	n/a	n/a	n/a	n/a	n/a
1708.106	n/a	PROB	854053	n/a	LTP211	ltpFR	11	n/a	n/a	n/a	n/a	n/a	n/a	n/a	23	7	8	8	n/a	n/a	n/a	n/a	n/a
1710.336	n/a	PROB	855168	n/a	LTP211	ltpFR	11	n/a	n/a	n/a	n/a	n/a	n/a	n/a	16	6	1	9	n/a	n/a	n/a	n/a	n/a
1711.8	n/a	PROB	855900	n/a	LTP211	ltpFR	11	n/a	n/a	n/a	n/a	n/a	n/a	n/a	15	8	2	5	n/a	n/a	n/a	n/a	n/a
1712.962	n/a	STOP	856481	n/a	LTP211	ltpFR	11	n/a	n/a	n/a	n/a	n/a	n/a	n/a	n/a	n/a	n/a	n/a	n/a	n/a	n/a	n/a	n/a
1714.578	n/a	WORD	857289	wordpools/wasnorm_wordpool_less_exclusions.txt	LTP211	ltpFR	11	7	1	CURB	426	n/a	n/a	0	n/a	0	0	0	0.422607421875	0.5869140625	0	upper	zerothre.ttf
1717.592	n/a	START	858796	n/a	LTP211	ltpFR	11	n/a	n/a	n/a	n/a	n/a	n/a	n/a	n/a	n/a	n/a	n/a	n/a	n/a	n/a	n/a	n/a
1718.772	n/a	PROB	859386	n/a	LTP211	ltpFR	11	n/a	n/a	n/a	n/a	n/a	n/a	n/a	14	9	2	3	n/a	n/a	n/a	n/a	n/a
1720.454	n/a	PROB	860227	n/a	LTP211	ltpFR	11	n/a	n/a	n/a	n/a	n/a	n/a	n/a	17	5	7	5	n/a	n/a	n/a	n/a	n/a
1722.368	n/a	PROB	861184	n/a	LTP211	ltpFR	11	n/a	n/a	n/a	n/a	n/a	n/a	n/a	16	6	9	2	n/a	n/a	n/a	n/a	n/a
1724.698	n/a	STOP	862349	n/a	LTP211	ltpFR	11	n/a	n/a	n/a	n/a	n/a	n/a	n/a	n/a	n/a	n/a	n/a	n/a	n/a	n/a	n/a	n/a
1726.562	n/a	WORD	863281	wordpools/wasnorm_wordpool_less_exclusions.txt	LTP211	ltpFR	11	7	1	LOAF	835	n/a	n/a	0	n/a	0	0	0	0.422607421875	0.5869140625	0	upper	zerothre.ttf
1729.574	n/a	START	864787	n/a	LTP211	ltpFR	11	n/a	n/a	n/a	n/a	n/a	n/a	n/a	n/a	n/a	n/a	n/a	n/a	n/a	n/a	n/a	n/a
1730.456	n/a	PROB	865228	n/a	LTP211	ltpFR	11	n/a	n/a	n/a	n/a	n/a	n/a	n/a	19	8	5	6	n/a	n/a	n/a	n/a	n/a
1732.17	n/a	PROB	866085	n/a	LTP211	ltpFR	11	n/a	n/a	n/a	n/a	n/a	n/a	n/a	11	6	3	2	n/a	n/a	n/a	n/a	n/a
1733.818	n/a	PROB	866909	n/a	LTP211	ltpFR	11	n/a	n/a	n/a	n/a	n/a	n/a	n/a	11	5	1	5	n/a	n/a	n/a	n/a	n/a
1737.574	n/a	STOP	868787	n/a	LTP211	ltpFR	11	n/a	n/a	n/a	n/a	n/a	n/a	n/a	n/a	n/a	n/a	n/a	n/a	n/a	n/a	n/a	n/a
1738.71	n/a	WORD	869355	wordpools/wasnorm_wordpool_less_exclusions.txt	LTP211	ltpFR	11	7	1	TOAST	1471	n/a	n/a	0	n/a	0	0	0	0.422607421875	0.5869140625	0	upper	zerothre.ttf
1741.724	n/a	START	870862	n/a	LTP211	ltpFR	11	n/a	n/a	n/a	n/a	n/a	n/a	n/a	n/a	n/a	n/a	n/a	n/a	n/a	n/a	n/a	n/a
1742.686	n/a	PROB	871343	n/a	LTP211	ltpFR	11	n/a	n/a	n/a	n/a	n/a	n/a	n/a	15	6	6	3	n/a	n/a	n/a	n/a	n/a
1744.902	n/a	PROB	872451	n/a	LTP211	ltpFR	11	n/a	n/a	n/a	n/a	n/a	n/a	n/a	6	3	1	2	n/a	n/a	n/a	n/a	n/a
1749.724	n/a	STOP	874862	n/a	LTP211	ltpFR	11	n/a	n/a	n/a	n/a	n/a	n/a	n/a	n/a	n/a	n/a	n/a	n/a	n/a	n/a	n/a	n/a
1750.542	n/a	WORD	875271	wordpools/wasnorm_wordpool_less_exclusions.txt	LTP211	ltpFR	11	7	1	SERVER	1272	n/a	n/a	1	n/a	0	0	0	0.422607421875	0.5869140625	0	upper	zerothre.ttf
1753.556	n/a	START	876778	n/a	LTP211	ltpFR	11	n/a	n/a	n/a	n/a	n/a	n/a	n/a	n/a	n/a	n/a	n/a	n/a	n/a	n/a	n/a	n/a
1754.404	n/a	PROB	877202	n/a	LTP211	ltpFR	11	n/a	n/a	n/a	n/a	n/a	n/a	n/a	17	6	3	8	n/a	n/a	n/a	n/a	n/a
1756.052	n/a	PROB	878026	n/a	LTP211	ltpFR	11	n/a	n/a	n/a	n/a	n/a	n/a	n/a	13	8	3	2	n/a	n/a	n/a	n/a	n/a
1758.064	n/a	PROB	879032	n/a	LTP211	ltpFR	11	n/a	n/a	n/a	n/a	n/a	n/a	n/a	19	3	7	9	n/a	n/a	n/a	n/a	n/a
1760.068	n/a	STOP	880034	n/a	LTP211	ltpFR	11	n/a	n/a	n/a	n/a	n/a	n/a	n/a	n/a	n/a	n/a	n/a	n/a	n/a	n/a	n/a	n/a
1762.542	n/a	WORD	881271	wordpools/wasnorm_wordpool_less_exclusions.txt	LTP211	ltpFR	11	7	1	SNACK	1331	n/a	n/a	0	n/a	0	0	0	0.422607421875	0.5869140625	0	upper	zerothre.ttf
1765.554	n/a	START	882777	n/a	LTP211	ltpFR	11	n/a	n/a	n/a	n/a	n/a	n/a	n/a	n/a	n/a	n/a	n/a	n/a	n/a	n/a	n/a	n/a
1766.652	n/a	PROB	883326	n/a	LTP211	ltpFR	11	n/a	n/a	n/a	n/a	n/a	n/a	n/a	17	7	9	1	n/a	n/a	n/a	n/a	n/a
1769.164	n/a	PROB	884582	n/a	LTP211	ltpFR	11	n/a	n/a	n/a	n/a	n/a	n/a	n/a	14	3	8	4	n/a	n/a	n/a	n/a	n/a
1770.646	n/a	PROB	885323	n/a	LTP211	ltpFR	11	n/a	n/a	n/a	n/a	n/a	n/a	n/a	14	4	9	1	n/a	n/a	n/a	n/a	n/a
1772.564	n/a	STOP	886282	n/a	LTP211	ltpFR	11	n/a	n/a	n/a	n/a	n/a	n/a	n/a	n/a	n/a	n/a	n/a	n/a	n/a	n/a	n/a	n/a
1774.556	n/a	WORD	887278	wordpools/wasnorm_wordpool_less_exclusions.txt	LTP211	ltpFR	11	7	1	COWBOY	395	n/a	n/a	1	n/a	0	0	0	0.422607421875	0.5869140625	0	upper	zerothre.ttf
1777.57	n/a	START	888785	n/a	LTP211	ltpFR	11	n/a	n/a	n/a	n/a	n/a	n/a	n/a	n/a	n/a	n/a	n/a	n/a	n/a	n/a	n/a	n/a
1778.666	n/a	PROB	889333	n/a	LTP211	ltpFR	11	n/a	n/a	n/a	n/a	n/a	n/a	n/a	14	4	5	5	n/a	n/a	n/a	n/a	n/a
1780.066	n/a	PROB	890033	n/a	LTP211	ltpFR	11	n/a	n/a	n/a	n/a	n/a	n/a	n/a	11	4	3	4	n/a	n/a	n/a	n/a	n/a
1782.546	n/a	PROB	891273	n/a	LTP211	ltpFR	11	n/a	n/a	n/a	n/a	n/a	n/a	n/a	12	1	2	9	n/a	n/a	n/a	n/a	n/a
1784.204	n/a	STOP	892102	n/a	LTP211	ltpFR	11	n/a	n/a	n/a	n/a	n/a	n/a	n/a	n/a	n/a	n/a	n/a	n/a	n/a	n/a	n/a	n/a
1787.356	n/a	REC_START	893678	n/a	LTP211	ltpFR	11	7	n/a	n/a	n/a	n/a	n/a	n/a	n/a	0	0	0	n/a	n/a	n/a	n/a	n/a
1790.692	n/a	REC_WORD	895346	wordpools/wasnorm_wordpool_less_exclusions.txt	LTP211	ltpFR	11	7	1	BUG	187	n/a	n/a	1	n/a	0	0	0	n/a	n/a	n/a	n/a	n/a
1791.87	n/a	REC_WORD	895935	wordpools/wasnorm_wordpool_less_exclusions.txt	LTP211	ltpFR	11	7	1	BEE	112	n/a	n/a	1	n/a	0	0	0	n/a	n/a	n/a	n/a	n/a
1792.778	n/a	REC_WORD	896389	wordpools/wasnorm_wordpool_less_exclusions.txt	LTP211	ltpFR	11	7	1	NERVE	944	n/a	n/a	0	n/a	0	0	0	n/a	n/a	n/a	n/a	n/a
1794.054	n/a	REC_WORD	897027	wordpools/wasnorm_wordpool_less_exclusions.txt	LTP211	ltpFR	11	7	1	EUROPE	541	n/a	n/a	0	n/a	0	0	0	n/a	n/a	n/a	n/a	n/a
1796.818	n/a	REC_WORD	898409	wordpools/wasnorm_wordpool_less_exclusions.txt	LTP211	ltpFR	11	7	1	ROAD	1196	n/a	n/a	0	n/a	0	0	0	n/a	n/a	n/a	n/a	n/a
1801.028	n/a	REC_WORD	900514	wordpools/wasnorm_wordpool_less_exclusions.txt	LTP211	ltpFR	11	7	1	FEAST	556	n/a	n/a	0	n/a	0	0	0	n/a	n/a	n/a	n/a	n/a
1803.278	n/a	REC_WORD	901639	wordpools/wasnorm_wordpool_less_exclusions.txt	LTP211	ltpFR	11	7	1	THERMOMETER	1453	n/a	n/a	0	n/a	0	0	0	n/a	n/a	n/a	n/a	n/a
1805.378	n/a	REC_WORD	902689	wordpools/wasnorm_wordpool_less_exclusions.txt	LTP211	ltpFR	11	7	1	STALLION	1369	n/a	n/a	0	n/a	0	0	0	n/a	n/a	n/a	n/a	n/a
1807.002	n/a	REC_WORD	903501	wordpools/wasnorm_wordpool_less_exclusions.txt	LTP211	ltpFR	11	7	1	CHARCOAL	281	n/a	n/a	1	n/a	0	0	0	n/a	n/a	n/a	n/a	n/a
1808.544	n/a	REC_WORD	904272	wordpools/wasnorm_wordpool_less_exclusions.txt	LTP211	ltpFR	11	7	1	NECKLACE	940	n/a	n/a	0	n/a	0	0	0	n/a	n/a	n/a	n/a	n/a
1810.654	n/a	REC_WORD	905327	wordpools/wasnorm_wordpool_less_exclusions.txt	LTP211	ltpFR	11	7	1	CURB	426	n/a	n/a	0	n/a	0	0	0	n/a	n/a	n/a	n/a	n/a
1812.144	n/a	REC_WORD	906072	wordpools/wasnorm_wordpool_less_exclusions.txt	LTP211	ltpFR	11	7	1	LOAF	835	n/a	n/a	0	n/a	0	0	0	n/a	n/a	n/a	n/a	n/a
1813.522	n/a	REC_WORD	906761	wordpools/wasnorm_wordpool_less_exclusions.txt	LTP211	ltpFR	11	7	1	TOAST	1471	n/a	n/a	0	n/a	0	0	0	n/a	n/a	n/a	n/a	n/a
1814.854	n/a	REC_WORD	907427	wordpools/wasnorm_wordpool_less_exclusions.txt	LTP211	ltpFR	11	7	1	SERVER	1272	n/a	n/a	1	n/a	0	0	0	n/a	n/a	n/a	n/a	n/a
1816.176	n/a	REC_WORD	908088	wordpools/wasnorm_wordpool_less_exclusions.txt	LTP211	ltpFR	11	7	1	SNACK	1331	n/a	n/a	0	n/a	0	0	0	n/a	n/a	n/a	n/a	n/a
1817.838	n/a	REC_WORD	908919	wordpools/wasnorm_wordpool_less_exclusions.txt	LTP211	ltpFR	11	7	1	COWBOY	395	n/a	n/a	1	n/a	0	0	0	n/a	n/a	n/a	n/a	n/a
1863.908	n/a	START	931954	n/a	LTP211	ltpFR	11	n/a	n/a	n/a	n/a	n/a	n/a	n/a	n/a	n/a	n/a	n/a	n/a	n/a	n/a	n/a	n/a
1865.422	n/a	PROB	932711	n/a	LTP211	ltpFR	11	n/a	n/a	n/a	n/a	n/a	n/a	n/a	14	2	9	3	n/a	n/a	n/a	n/a	n/a
1867.918	n/a	PROB	933959	n/a	LTP211	ltpFR	11	n/a	n/a	n/a	n/a	n/a	n/a	n/a	13	3	5	5	n/a	n/a	n/a	n/a	n/a
1869.234	n/a	PROB	934617	n/a	LTP211	ltpFR	11	n/a	n/a	n/a	n/a	n/a	n/a	n/a	14	5	4	5	n/a	n/a	n/a	n/a	n/a
1870.696	n/a	PROB	935348	n/a	LTP211	ltpFR	11	n/a	n/a	n/a	n/a	n/a	n/a	n/a	10	4	3	3	n/a	n/a	n/a	n/a	n/a
1873.394	n/a	PROB	936697	n/a	LTP211	ltpFR	11	n/a	n/a	n/a	n/a	n/a	n/a	n/a	11	1	5	5	n/a	n/a	n/a	n/a	n/a
1874.592	n/a	PROB	937296	n/a	LTP211	ltpFR	11	n/a	n/a	n/a	n/a	n/a	n/a	n/a	17	1	9	7	n/a	n/a	n/a	n/a	n/a
1876.09	n/a	PROB	938045	n/a	LTP211	ltpFR	11	n/a	n/a	n/a	n/a	n/a	n/a	n/a	15	5	9	1	n/a	n/a	n/a	n/a	n/a
1877.52	n/a	PROB	938760	n/a	LTP211	ltpFR	11	n/a	n/a	n/a	n/a	n/a	n/a	n/a	10	3	4	3	n/a	n/a	n/a	n/a	n/a
1879.142	n/a	STOP	939571	n/a	LTP211	ltpFR	11	n/a	n/a	n/a	n/a	n/a	n/a	n/a	n/a	n/a	n/a	n/a	n/a	n/a	n/a	n/a	n/a
1880.966	n/a	WORD	940483	wordpools/wasnorm_wordpool_less_exclusions.txt	LTP211	ltpFR	11	8	0	EGG	518	n/a	n/a	0	n/a	0	0	0	0.57763671875	0.412841796875	1	lower	amplitud.ttf
1883.98	n/a	START	941990	n/a	LTP211	ltpFR	11	n/a	n/a	n/a	n/a	n/a	n/a	n/a	n/a	n/a	n/a	n/a	n/a	n/a	n/a	n/a	n/a
1884.86	n/a	PROB	942430	n/a	LTP211	ltpFR	11	n/a	n/a	n/a	n/a	n/a	n/a	n/a	21	8	5	8	n/a	n/a	n/a	n/a	n/a
1888.09	n/a	PROB	944045	n/a	LTP211	ltpFR	11	n/a	n/a	n/a	n/a	n/a	n/a	n/a	15	3	4	8	n/a	n/a	n/a	n/a	n/a
1889.554	n/a	PROB	944777	n/a	LTP211	ltpFR	11	n/a	n/a	n/a	n/a	n/a	n/a	n/a	7	3	2	2	n/a	n/a	n/a	n/a	n/a
1892.116	n/a	PROB	946058	n/a	LTP211	ltpFR	11	n/a	n/a	n/a	n/a	n/a	n/a	n/a	21	8	6	7	n/a	n/a	n/a	n/a	n/a
1894.23	n/a	PROB	947115	n/a	LTP211	ltpFR	11	n/a	n/a	n/a	n/a	n/a	n/a	n/a	18	6	5	7	n/a	n/a	n/a	n/a	n/a
1896.976	n/a	PROB	948488	n/a	LTP211	ltpFR	11	n/a	n/a	n/a	n/a	n/a	n/a	n/a	9	1	7	1	n/a	n/a	n/a	n/a	n/a
1898.208	n/a	PROB	949104	n/a	LTP211	ltpFR	11	n/a	n/a	n/a	n/a	n/a	n/a	n/a	19	6	4	9	n/a	n/a	n/a	n/a	n/a
1899.534	n/a	STOP	949767	n/a	LTP211	ltpFR	11	n/a	n/a	n/a	n/a	n/a	n/a	n/a	n/a	n/a	n/a	n/a	n/a	n/a	n/a	n/a	n/a
1901.054	n/a	WORD	950527	wordpools/wasnorm_wordpool_less_exclusions.txt	LTP211	ltpFR	11	8	0	PRINCE	1124	n/a	n/a	1	n/a	0	0	0	0.57763671875	0.412841796875	1	lower	amplitud.ttf
1904.066	n/a	START	952033	n/a	LTP211	ltpFR	11	n/a	n/a	n/a	n/a	n/a	n/a	n/a	n/a	n/a	n/a	n/a	n/a	n/a	n/a	n/a	n/a
1904.964	n/a	PROB	952482	n/a	LTP211	ltpFR	11	n/a	n/a	n/a	n/a	n/a	n/a	n/a	16	7	7	2	n/a	n/a	n/a	n/a	n/a
1908.326	n/a	PROB	954163	n/a	LTP211	ltpFR	11	n/a	n/a	n/a	n/a	n/a	n/a	n/a	16	6	1	9	n/a	n/a	n/a	n/a	n/a
1909.906	n/a	PROB	954953	n/a	LTP211	ltpFR	11	n/a	n/a	n/a	n/a	n/a	n/a	n/a	22	6	8	8	n/a	n/a	n/a	n/a	n/a
1914.05	n/a	PROB	957025	n/a	LTP211	ltpFR	11	n/a	n/a	n/a	n/a	n/a	n/a	n/a	13	1	5	7	n/a	n/a	n/a	n/a	n/a
1915.498	n/a	PROB	957749	n/a	LTP211	ltpFR	11	n/a	n/a	n/a	n/a	n/a	n/a	n/a	18	6	3	9	n/a	n/a	n/a	n/a	n/a
1917.262	n/a	PROB	958631	n/a	LTP211	ltpFR	11	n/a	n/a	n/a	n/a	n/a	n/a	n/a	10	6	1	3	n/a	n/a	n/a	n/a	n/a
1918.668	n/a	STOP	959334	n/a	LTP211	ltpFR	11	n/a	n/a	n/a	n/a	n/a	n/a	n/a	n/a	n/a	n/a	n/a	n/a	n/a	n/a	n/a	n/a
1921.256	n/a	WORD	960628	wordpools/wasnorm_wordpool_less_exclusions.txt	LTP211	ltpFR	11	8	0	IGLOO	734	n/a	n/a	1	n/a	0	0	0	0.57763671875	0.412841796875	1	lower	amplitud.ttf
1924.27	n/a	START	962135	n/a	LTP211	ltpFR	11	n/a	n/a	n/a	n/a	n/a	n/a	n/a	n/a	n/a	n/a	n/a	n/a	n/a	n/a	n/a	n/a
1925.4	n/a	PROB	962700	n/a	LTP211	ltpFR	11	n/a	n/a	n/a	n/a	n/a	n/a	n/a	15	8	3	4	n/a	n/a	n/a	n/a	n/a
1927.514	n/a	PROB	963757	n/a	LTP211	ltpFR	11	n/a	n/a	n/a	n/a	n/a	n/a	n/a	9	3	2	4	n/a	n/a	n/a	n/a	n/a
1931.674	n/a	PROB	965837	n/a	LTP211	ltpFR	11	n/a	n/a	n/a	n/a	n/a	n/a	n/a	12	6	2	4	n/a	n/a	n/a	n/a	n/a
1934.454	n/a	PROB	967227	n/a	LTP211	ltpFR	11	n/a	n/a	n/a	n/a	n/a	n/a	n/a	11	1	3	7	n/a	n/a	n/a	n/a	n/a
1936.2	n/a	PROB	968100	n/a	LTP211	ltpFR	11	n/a	n/a	n/a	n/a	n/a	n/a	n/a	15	7	6	2	n/a	n/a	n/a	n/a	n/a
1940.27	n/a	STOP	970135	n/a	LTP211	ltpFR	11	n/a	n/a	n/a	n/a	n/a	n/a	n/a	n/a	n/a	n/a	n/a	n/a	n/a	n/a	n/a	n/a
1941.394	n/a	WORD	970697	wordpools/wasnorm_wordpool_less_exclusions.txt	LTP211	ltpFR	11	8	1	REFRIGERATOR	1179	n/a	n/a	0	n/a	0	0	0	0.422607421875	0.5869140625	0	upper	zerothre.ttf
1944.406	n/a	START	972203	n/a	LTP211	ltpFR	11	n/a	n/a	n/a	n/a	n/a	n/a	n/a	n/a	n/a	n/a	n/a	n/a	n/a	n/a	n/a	n/a
1945.52	n/a	PROB	972760	n/a	LTP211	ltpFR	11	n/a	n/a	n/a	n/a	n/a	n/a	n/a	21	6	7	8	n/a	n/a	n/a	n/a	n/a
1947.434	n/a	PROB	973717	n/a	LTP211	ltpFR	11	n/a	n/a	n/a	n/a	n/a	n/a	n/a	12	5	1	6	n/a	n/a	n/a	n/a	n/a
1949.63	n/a	PROB	974815	n/a	LTP211	ltpFR	11	n/a	n/a	n/a	n/a	n/a	n/a	n/a	13	3	6	4	n/a	n/a	n/a	n/a	n/a
1951.13	n/a	PROB	975565	n/a	LTP211	ltpFR	11	n/a	n/a	n/a	n/a	n/a	n/a	n/a	16	4	8	4	n/a	n/a	n/a	n/a	n/a
1953.826	n/a	PROB	976913	n/a	LTP211	ltpFR	11	n/a	n/a	n/a	n/a	n/a	n/a	n/a	6	2	3	1	n/a	n/a	n/a	n/a	n/a
1956.722	n/a	PROB	978361	n/a	LTP211	ltpFR	11	n/a	n/a	n/a	n/a	n/a	n/a	n/a	18	3	8	7	n/a	n/a	n/a	n/a	n/a
1958.202	n/a	PROB	979101	n/a	LTP211	ltpFR	11	n/a	n/a	n/a	n/a	n/a	n/a	n/a	11	2	7	2	n/a	n/a	n/a	n/a	n/a
1959.99	n/a	STOP	979995	n/a	LTP211	ltpFR	11	n/a	n/a	n/a	n/a	n/a	n/a	n/a	n/a	n/a	n/a	n/a	n/a	n/a	n/a	n/a	n/a
1961.282	n/a	WORD	980641	wordpools/wasnorm_wordpool_less_exclusions.txt	LTP211	ltpFR	11	8	1	CHURCH	307	n/a	n/a	0	n/a	0	0	0	0.422607421875	0.5869140625	0	upper	zerothre.ttf
1964.294	n/a	START	982147	n/a	LTP211	ltpFR	11	n/a	n/a	n/a	n/a	n/a	n/a	n/a	n/a	n/a	n/a	n/a	n/a	n/a	n/a	n/a	n/a
1965.276	n/a	PROB	982638	n/a	LTP211	ltpFR	11	n/a	n/a	n/a	n/a	n/a	n/a	n/a	23	7	7	9	n/a	n/a	n/a	n/a	n/a
1968.154	n/a	PROB	984077	n/a	LTP211	ltpFR	11	n/a	n/a	n/a	n/a	n/a	n/a	n/a	20	9	4	7	n/a	n/a	n/a	n/a	n/a
1972.48	n/a	PROB	986240	n/a	LTP211	ltpFR	11	n/a	n/a	n/a	n/a	n/a	n/a	n/a	16	3	8	5	n/a	n/a	n/a	n/a	n/a
1974.178	n/a	PROB	987089	n/a	LTP211	ltpFR	11	n/a	n/a	n/a	n/a	n/a	n/a	n/a	13	9	3	1	n/a	n/a	n/a	n/a	n/a
1976.392	n/a	PROB	988196	n/a	LTP211	ltpFR	11	n/a	n/a	n/a	n/a	n/a	n/a	n/a	19	8	9	2	n/a	n/a	n/a	n/a	n/a
1979.382	n/a	STOP	989691	n/a	LTP211	ltpFR	11	n/a	n/a	n/a	n/a	n/a	n/a	n/a	n/a	n/a	n/a	n/a	n/a	n/a	n/a	n/a	n/a
1981.352	n/a	WORD	990676	wordpools/wasnorm_wordpool_less_exclusions.txt	LTP211	ltpFR	11	8	1	BALLOT	76	n/a	n/a	0	n/a	0	0	0	0.422607421875	0.5869140625	0	upper	zerothre.ttf
1984.364	n/a	START	992182	n/a	LTP211	ltpFR	11	n/a	n/a	n/a	n/a	n/a	n/a	n/a	n/a	n/a	n/a	n/a	n/a	n/a	n/a	n/a	n/a
1985.278	n/a	PROB	992639	n/a	LTP211	ltpFR	11	n/a	n/a	n/a	n/a	n/a	n/a	n/a	19	8	8	3	n/a	n/a	n/a	n/a	n/a
1987.658	n/a	PROB	993829	n/a	LTP211	ltpFR	11	n/a	n/a	n/a	n/a	n/a	n/a	n/a	18	6	7	5	n/a	n/a	n/a	n/a	n/a
1989.604	n/a	PROB	994802	n/a	LTP211	ltpFR	11	n/a	n/a	n/a	n/a	n/a	n/a	n/a	12	3	3	6	n/a	n/a	n/a	n/a	n/a
1991.104	n/a	PROB	995552	n/a	LTP211	ltpFR	11	n/a	n/a	n/a	n/a	n/a	n/a	n/a	16	7	8	1	n/a	n/a	n/a	n/a	n/a
1994.266	n/a	PROB	997133	n/a	LTP211	ltpFR	11	n/a	n/a	n/a	n/a	n/a	n/a	n/a	16	5	2	9	n/a	n/a	n/a	n/a	n/a
1995.846	n/a	PROB	997923	n/a	LTP211	ltpFR	11	n/a	n/a	n/a	n/a	n/a	n/a	n/a	15	6	5	4	n/a	n/a	n/a	n/a	n/a
2000.364	n/a	STOP	1000182	n/a	LTP211	ltpFR	11	n/a	n/a	n/a	n/a	n/a	n/a	n/a	n/a	n/a	n/a	n/a	n/a	n/a	n/a	n/a	n/a
2001.254	n/a	WORD	1000627	wordpools/wasnorm_wordpool_less_exclusions.txt	LTP211	ltpFR	11	8	1	MAGAZINE	853	n/a	n/a	0	n/a	0	0	0	0.422607421875	0.5869140625	0	upper	zerothre.ttf
2004.268	n/a	START	1002134	n/a	LTP211	ltpFR	11	n/a	n/a	n/a	n/a	n/a	n/a	n/a	n/a	n/a	n/a	n/a	n/a	n/a	n/a	n/a	n/a
2005.116	n/a	PROB	1002558	n/a	LTP211	ltpFR	11	n/a	n/a	n/a	n/a	n/a	n/a	n/a	21	5	8	9	n/a	n/a	n/a	n/a	n/a
2007.428	n/a	PROB	1003714	n/a	LTP211	ltpFR	11	n/a	n/a	n/a	n/a	n/a	n/a	n/a	16	4	7	5	n/a	n/a	n/a	n/a	n/a
2009.442	n/a	PROB	1004721	n/a	LTP211	ltpFR	11	n/a	n/a	n/a	n/a	n/a	n/a	n/a	11	4	4	3	n/a	n/a	n/a	n/a	n/a
2011.906	n/a	PROB	1005953	n/a	LTP211	ltpFR	11	n/a	n/a	n/a	n/a	n/a	n/a	n/a	15	7	5	3	n/a	n/a	n/a	n/a	n/a
2013.752	n/a	PROB	1006876	n/a	LTP211	ltpFR	11	n/a	n/a	n/a	n/a	n/a	n/a	n/a	15	5	4	6	n/a	n/a	n/a	n/a	n/a
2015.416	n/a	PROB	1007708	n/a	LTP211	ltpFR	11	n/a	n/a	n/a	n/a	n/a	n/a	n/a	17	9	3	5	n/a	n/a	n/a	n/a	n/a
2017.13	n/a	PROB	1008565	n/a	LTP211	ltpFR	11	n/a	n/a	n/a	n/a	n/a	n/a	n/a	13	3	8	2	n/a	n/a	n/a	n/a	n/a
2018.662	n/a	PROB	1009331	n/a	LTP211	ltpFR	11	n/a	n/a	n/a	n/a	n/a	n/a	n/a	9	2	2	5	n/a	n/a	n/a	n/a	n/a
2020.15	n/a	STOP	1010075	n/a	LTP211	ltpFR	11	n/a	n/a	n/a	n/a	n/a	n/a	n/a	n/a	n/a	n/a	n/a	n/a	n/a	n/a	n/a	n/a
2021.142	n/a	WORD	1010571	wordpools/wasnorm_wordpool_less_exclusions.txt	LTP211	ltpFR	11	8	1	DASHBOARD	441	n/a	n/a	0	n/a	0	0	0	0.422607421875	0.5869140625	0	upper	zerothre.ttf
2024.156	n/a	START	1012078	n/a	LTP211	ltpFR	11	n/a	n/a	n/a	n/a	n/a	n/a	n/a	n/a	n/a	n/a	n/a	n/a	n/a	n/a	n/a	n/a
2025.17	n/a	PROB	1012585	n/a	LTP211	ltpFR	11	n/a	n/a	n/a	n/a	n/a	n/a	n/a	15	5	1	9	n/a	n/a	n/a	n/a	n/a
2027.284	n/a	PROB	1013642	n/a	LTP211	ltpFR	11	n/a	n/a	n/a	n/a	n/a	n/a	n/a	4	1	2	1	n/a	n/a	n/a	n/a	n/a
2028.68	n/a	PROB	1014340	n/a	LTP211	ltpFR	11	n/a	n/a	n/a	n/a	n/a	n/a	n/a	8	3	4	1	n/a	n/a	n/a	n/a	n/a
2030.03	n/a	PROB	1015015	n/a	LTP211	ltpFR	11	n/a	n/a	n/a	n/a	n/a	n/a	n/a	15	1	7	7	n/a	n/a	n/a	n/a	n/a
2032.426	n/a	PROB	1016213	n/a	LTP211	ltpFR	11	n/a	n/a	n/a	n/a	n/a	n/a	n/a	14	1	4	9	n/a	n/a	n/a	n/a	n/a
2034.156	n/a	PROB	1017078	n/a	LTP211	ltpFR	11	n/a	n/a	n/a	n/a	n/a	n/a	n/a	11	3	6	2	n/a	n/a	n/a	n/a	n/a
2035.97	n/a	PROB	1017985	n/a	LTP211	ltpFR	11	n/a	n/a	n/a	n/a	n/a	n/a	n/a	16	4	7	5	n/a	n/a	n/a	n/a	n/a
2038.168	n/a	PROB	1019084	n/a	LTP211	ltpFR	11	n/a	n/a	n/a	n/a	n/a	n/a	n/a	17	7	4	6	n/a	n/a	n/a	n/a	n/a
2039.776	n/a	STOP	1019888	n/a	LTP211	ltpFR	11	n/a	n/a	n/a	n/a	n/a	n/a	n/a	n/a	n/a	n/a	n/a	n/a	n/a	n/a	n/a	n/a
2040.996	n/a	WORD	1020498	wordpools/wasnorm_wordpool_less_exclusions.txt	LTP211	ltpFR	11	8	0	JEEP	753	n/a	n/a	1	n/a	0	0	0	0.57763671875	0.412841796875	1	lower	amplitud.ttf
2044.008	n/a	START	1022004	n/a	LTP211	ltpFR	11	n/a	n/a	n/a	n/a	n/a	n/a	n/a	n/a	n/a	n/a	n/a	n/a	n/a	n/a	n/a	n/a
2044.84	n/a	PROB	1022420	n/a	LTP211	ltpFR	11	n/a	n/a	n/a	n/a	n/a	n/a	n/a	20	5	9	6	n/a	n/a	n/a	n/a	n/a
2047.254	n/a	PROB	1023627	n/a	LTP211	ltpFR	11	n/a	n/a	n/a	n/a	n/a	n/a	n/a	23	8	6	9	n/a	n/a	n/a	n/a	n/a
2049.484	n/a	PROB	1024742	n/a	LTP211	ltpFR	11	n/a	n/a	n/a	n/a	n/a	n/a	n/a	14	3	5	6	n/a	n/a	n/a	n/a	n/a
2052.312	n/a	PROB	1026156	n/a	LTP211	ltpFR	11	n/a	n/a	n/a	n/a	n/a	n/a	n/a	13	1	4	8	n/a	n/a	n/a	n/a	n/a
2055.026	n/a	PROB	1027513	n/a	LTP211	ltpFR	11	n/a	n/a	n/a	n/a	n/a	n/a	n/a	16	2	9	5	n/a	n/a	n/a	n/a	n/a
2057.088	n/a	PROB	1028544	n/a	LTP211	ltpFR	11	n/a	n/a	n/a	n/a	n/a	n/a	n/a	24	8	9	7	n/a	n/a	n/a	n/a	n/a
2059.24	n/a	STOP	1029620	n/a	LTP211	ltpFR	11	n/a	n/a	n/a	n/a	n/a	n/a	n/a	n/a	n/a	n/a	n/a	n/a	n/a	n/a	n/a	n/a
2061.0	n/a	WORD	1030500	wordpools/wasnorm_wordpool_less_exclusions.txt	LTP211	ltpFR	11	8	0	TANK	1432	n/a	n/a	1	n/a	0	0	0	0.57763671875	0.412841796875	1	lower	amplitud.ttf
2064.012	n/a	START	1032006	n/a	LTP211	ltpFR	11	n/a	n/a	n/a	n/a	n/a	n/a	n/a	n/a	n/a	n/a	n/a	n/a	n/a	n/a	n/a	n/a
2065.194	n/a	PROB	1032597	n/a	LTP211	ltpFR	11	n/a	n/a	n/a	n/a	n/a	n/a	n/a	20	8	4	8	n/a	n/a	n/a	n/a	n/a
2067.14	n/a	PROB	1033570	n/a	LTP211	ltpFR	11	n/a	n/a	n/a	n/a	n/a	n/a	n/a	13	3	8	2	n/a	n/a	n/a	n/a	n/a
2069.72	n/a	PROB	1034860	n/a	LTP211	ltpFR	11	n/a	n/a	n/a	n/a	n/a	n/a	n/a	26	9	8	9	n/a	n/a	n/a	n/a	n/a
2073.448	n/a	PROB	1036724	n/a	LTP211	ltpFR	11	n/a	n/a	n/a	n/a	n/a	n/a	n/a	19	9	1	9	n/a	n/a	n/a	n/a	n/a
2074.812	n/a	PROB	1037406	n/a	LTP211	ltpFR	11	n/a	n/a	n/a	n/a	n/a	n/a	n/a	8	1	5	2	n/a	n/a	n/a	n/a	n/a
2076.46	n/a	PROB	1038230	n/a	LTP211	ltpFR	11	n/a	n/a	n/a	n/a	n/a	n/a	n/a	12	3	2	7	n/a	n/a	n/a	n/a	n/a
2078.324	n/a	PROB	1039162	n/a	LTP211	ltpFR	11	n/a	n/a	n/a	n/a	n/a	n/a	n/a	11	3	6	2	n/a	n/a	n/a	n/a	n/a
2079.8	n/a	STOP	1039900	n/a	LTP211	ltpFR	11	n/a	n/a	n/a	n/a	n/a	n/a	n/a	n/a	n/a	n/a	n/a	n/a	n/a	n/a	n/a	n/a
2081.086	n/a	WORD	1040543	wordpools/wasnorm_wordpool_less_exclusions.txt	LTP211	ltpFR	11	8	0	VICTOR	1563	n/a	n/a	1	n/a	0	0	0	0.57763671875	0.412841796875	1	lower	amplitud.ttf
2084.1	n/a	START	1042050	n/a	LTP211	ltpFR	11	n/a	n/a	n/a	n/a	n/a	n/a	n/a	n/a	n/a	n/a	n/a	n/a	n/a	n/a	n/a	n/a
2085.13	n/a	PROB	1042565	n/a	LTP211	ltpFR	11	n/a	n/a	n/a	n/a	n/a	n/a	n/a	26	9	8	8	n/a	n/a	n/a	n/a	n/a
2088.376	n/a	PROB	1044188	n/a	LTP211	ltpFR	11	n/a	n/a	n/a	n/a	n/a	n/a	n/a	6	4	1	1	n/a	n/a	n/a	n/a	n/a
2089.656	n/a	PROB	1044828	n/a	LTP211	ltpFR	11	n/a	n/a	n/a	n/a	n/a	n/a	n/a	14	3	2	9	n/a	n/a	n/a	n/a	n/a
2091.288	n/a	PROB	1045644	n/a	LTP211	ltpFR	11	n/a	n/a	n/a	n/a	n/a	n/a	n/a	13	7	2	4	n/a	n/a	n/a	n/a	n/a
2093.502	n/a	PROB	1046751	n/a	LTP211	ltpFR	11	n/a	n/a	n/a	n/a	n/a	n/a	n/a	15	3	4	8	n/a	n/a	n/a	n/a	n/a
2095.134	n/a	PROB	1047567	n/a	LTP211	ltpFR	11	n/a	n/a	n/a	n/a	n/a	n/a	n/a	12	5	1	6	n/a	n/a	n/a	n/a	n/a
2096.63	n/a	PROB	1048315	n/a	LTP211	ltpFR	11	n/a	n/a	n/a	n/a	n/a	n/a	n/a	17	6	8	3	n/a	n/a	n/a	n/a	n/a
2098.84	n/a	STOP	1049420	n/a	LTP211	ltpFR	11	n/a	n/a	n/a	n/a	n/a	n/a	n/a	n/a	n/a	n/a	n/a	n/a	n/a	n/a	n/a	n/a
2101.274	n/a	WORD	1050637	wordpools/wasnorm_wordpool_less_exclusions.txt	LTP211	ltpFR	11	8	1	CANDIDATE	228	n/a	n/a	1	n/a	0	0	0	0.422607421875	0.5869140625	0	upper	zerothre.ttf
2104.286	n/a	START	1052143	n/a	LTP211	ltpFR	11	n/a	n/a	n/a	n/a	n/a	n/a	n/a	n/a	n/a	n/a	n/a	n/a	n/a	n/a	n/a	n/a
2105.318	n/a	PROB	1052659	n/a	LTP211	ltpFR	11	n/a	n/a	n/a	n/a	n/a	n/a	n/a	13	6	3	4	n/a	n/a	n/a	n/a	n/a
2107.298	n/a	PROB	1053649	n/a	LTP211	ltpFR	11	n/a	n/a	n/a	n/a	n/a	n/a	n/a	19	9	2	8	n/a	n/a	n/a	n/a	n/a
2109.66	n/a	PROB	1054830	n/a	LTP211	ltpFR	11	n/a	n/a	n/a	n/a	n/a	n/a	n/a	21	7	7	7	n/a	n/a	n/a	n/a	n/a
2111.042	n/a	PROB	1055521	n/a	LTP211	ltpFR	11	n/a	n/a	n/a	n/a	n/a	n/a	n/a	18	8	8	2	n/a	n/a	n/a	n/a	n/a
2113.672	n/a	PROB	1056836	n/a	LTP211	ltpFR	11	n/a	n/a	n/a	n/a	n/a	n/a	n/a	12	6	1	5	n/a	n/a	n/a	n/a	n/a
2115.07	n/a	PROB	1057535	n/a	LTP211	ltpFR	11	n/a	n/a	n/a	n/a	n/a	n/a	n/a	20	5	9	6	n/a	n/a	n/a	n/a	n/a
2118.332	n/a	PROB	1059166	n/a	LTP211	ltpFR	11	n/a	n/a	n/a	n/a	n/a	n/a	n/a	14	8	1	5	n/a	n/a	n/a	n/a	n/a
2119.8	n/a	STOP	1059900	n/a	LTP211	ltpFR	11	n/a	n/a	n/a	n/a	n/a	n/a	n/a	n/a	n/a	n/a	n/a	n/a	n/a	n/a	n/a	n/a
2121.294	n/a	WORD	1060647	wordpools/wasnorm_wordpool_less_exclusions.txt	LTP211	ltpFR	11	8	1	NAPKIN	937	n/a	n/a	0	n/a	0	0	0	0.422607421875	0.5869140625	0	upper	zerothre.ttf
2124.306	n/a	START	1062153	n/a	LTP211	ltpFR	11	n/a	n/a	n/a	n/a	n/a	n/a	n/a	n/a	n/a	n/a	n/a	n/a	n/a	n/a	n/a	n/a
2125.454	n/a	PROB	1062727	n/a	LTP211	ltpFR	11	n/a	n/a	n/a	n/a	n/a	n/a	n/a	17	9	4	4	n/a	n/a	n/a	n/a	n/a
2128.9	n/a	PROB	1064450	n/a	LTP211	ltpFR	11	n/a	n/a	n/a	n/a	n/a	n/a	n/a	9	5	2	2	n/a	n/a	n/a	n/a	n/a
2130.264	n/a	PROB	1065132	n/a	LTP211	ltpFR	11	n/a	n/a	n/a	n/a	n/a	n/a	n/a	11	6	1	4	n/a	n/a	n/a	n/a	n/a
2132.86	n/a	PROB	1066430	n/a	LTP211	ltpFR	11	n/a	n/a	n/a	n/a	n/a	n/a	n/a	15	8	2	5	n/a	n/a	n/a	n/a	n/a
2134.292	n/a	PROB	1067146	n/a	LTP211	ltpFR	11	n/a	n/a	n/a	n/a	n/a	n/a	n/a	17	3	6	8	n/a	n/a	n/a	n/a	n/a
2135.888	n/a	PROB	1067944	n/a	LTP211	ltpFR	11	n/a	n/a	n/a	n/a	n/a	n/a	n/a	12	3	6	3	n/a	n/a	n/a	n/a	n/a
2137.986	n/a	PROB	1068993	n/a	LTP211	ltpFR	11	n/a	n/a	n/a	n/a	n/a	n/a	n/a	19	7	7	3	n/a	n/a	n/a	n/a	n/a
2140.16	n/a	STOP	1070080	n/a	LTP211	ltpFR	11	n/a	n/a	n/a	n/a	n/a	n/a	n/a	n/a	n/a	n/a	n/a	n/a	n/a	n/a	n/a	n/a
2141.498	n/a	WORD	1070749	wordpools/wasnorm_wordpool_less_exclusions.txt	LTP211	ltpFR	11	8	1	HOOD	714	n/a	n/a	0	n/a	0	0	0	0.422607421875	0.5869140625	0	upper	zerothre.ttf
2144.51	n/a	START	1072255	n/a	LTP211	ltpFR	11	n/a	n/a	n/a	n/a	n/a	n/a	n/a	n/a	n/a	n/a	n/a	n/a	n/a	n/a	n/a	n/a
2145.442	n/a	PROB	1072721	n/a	LTP211	ltpFR	11	n/a	n/a	n/a	n/a	n/a	n/a	n/a	13	9	3	1	n/a	n/a	n/a	n/a	n/a
2148.238	n/a	PROB	1074119	n/a	LTP211	ltpFR	11	n/a	n/a	n/a	n/a	n/a	n/a	n/a	21	9	5	7	n/a	n/a	n/a	n/a	n/a
2151.05	n/a	PROB	1075525	n/a	LTP211	ltpFR	11	n/a	n/a	n/a	n/a	n/a	n/a	n/a	9	4	1	4	n/a	n/a	n/a	n/a	n/a
2152.73	n/a	PROB	1076365	n/a	LTP211	ltpFR	11	n/a	n/a	n/a	n/a	n/a	n/a	n/a	13	2	7	4	n/a	n/a	n/a	n/a	n/a
2155.876	n/a	PROB	1077938	n/a	LTP211	ltpFR	11	n/a	n/a	n/a	n/a	n/a	n/a	n/a	20	8	6	6	n/a	n/a	n/a	n/a	n/a
2157.956	n/a	PROB	1078978	n/a	LTP211	ltpFR	11	n/a	n/a	n/a	n/a	n/a	n/a	n/a	17	7	3	7	n/a	n/a	n/a	n/a	n/a
2159.304	n/a	STOP	1079652	n/a	LTP211	ltpFR	11	n/a	n/a	n/a	n/a	n/a	n/a	n/a	n/a	n/a	n/a	n/a	n/a	n/a	n/a	n/a	n/a
2161.45	n/a	WORD	1080725	wordpools/wasnorm_wordpool_less_exclusions.txt	LTP211	ltpFR	11	8	0	KING	777	n/a	n/a	1	n/a	0	0	0	0.57763671875	0.412841796875	1	lower	amplitud.ttf
2164.464	n/a	START	1082232	n/a	LTP211	ltpFR	11	n/a	n/a	n/a	n/a	n/a	n/a	n/a	n/a	n/a	n/a	n/a	n/a	n/a	n/a	n/a	n/a
2165.378	n/a	PROB	1082689	n/a	LTP211	ltpFR	11	n/a	n/a	n/a	n/a	n/a	n/a	n/a	17	3	7	7	n/a	n/a	n/a	n/a	n/a
2167.41	n/a	PROB	1083705	n/a	LTP211	ltpFR	11	n/a	n/a	n/a	n/a	n/a	n/a	n/a	16	6	4	6	n/a	n/a	n/a	n/a	n/a
2169.19	n/a	PROB	1084595	n/a	LTP211	ltpFR	11	n/a	n/a	n/a	n/a	n/a	n/a	n/a	18	8	5	5	n/a	n/a	n/a	n/a	n/a
2171.288	n/a	PROB	1085644	n/a	LTP211	ltpFR	11	n/a	n/a	n/a	n/a	n/a	n/a	n/a	15	5	1	9	n/a	n/a	n/a	n/a	n/a
2172.918	n/a	PROB	1086459	n/a	LTP211	ltpFR	11	n/a	n/a	n/a	n/a	n/a	n/a	n/a	18	9	2	7	n/a	n/a	n/a	n/a	n/a
2175.598	n/a	PROB	1087799	n/a	LTP211	ltpFR	11	n/a	n/a	n/a	n/a	n/a	n/a	n/a	17	3	8	6	n/a	n/a	n/a	n/a	n/a
2177.544	n/a	PROB	1088772	n/a	LTP211	ltpFR	11	n/a	n/a	n/a	n/a	n/a	n/a	n/a	16	1	9	6	n/a	n/a	n/a	n/a	n/a
2180.464	n/a	STOP	1090232	n/a	LTP211	ltpFR	11	n/a	n/a	n/a	n/a	n/a	n/a	n/a	n/a	n/a	n/a	n/a	n/a	n/a	n/a	n/a	n/a
2181.422	n/a	WORD	1090711	wordpools/wasnorm_wordpool_less_exclusions.txt	LTP211	ltpFR	11	8	0	MONARCH	906	n/a	n/a	1	n/a	0	0	0	0.57763671875	0.412841796875	1	lower	amplitud.ttf
2184.434	n/a	START	1092217	n/a	LTP211	ltpFR	11	n/a	n/a	n/a	n/a	n/a	n/a	n/a	n/a	n/a	n/a	n/a	n/a	n/a	n/a	n/a	n/a
2185.532	n/a	PROB	1092766	n/a	LTP211	ltpFR	11	n/a	n/a	n/a	n/a	n/a	n/a	n/a	17	4	5	8	n/a	n/a	n/a	n/a	n/a
2187.214	n/a	PROB	1093607	n/a	LTP211	ltpFR	11	n/a	n/a	n/a	n/a	n/a	n/a	n/a	19	7	5	7	n/a	n/a	n/a	n/a	n/a
2189.376	n/a	PROB	1094688	n/a	LTP211	ltpFR	11	n/a	n/a	n/a	n/a	n/a	n/a	n/a	18	2	9	7	n/a	n/a	n/a	n/a	n/a
2190.842	n/a	PROB	1095421	n/a	LTP211	ltpFR	11	n/a	n/a	n/a	n/a	n/a	n/a	n/a	17	7	3	7	n/a	n/a	n/a	n/a	n/a
2192.19	n/a	PROB	1096095	n/a	LTP211	ltpFR	11	n/a	n/a	n/a	n/a	n/a	n/a	n/a	19	6	8	5	n/a	n/a	n/a	n/a	n/a
2194.936	n/a	PROB	1097468	n/a	LTP211	ltpFR	11	n/a	n/a	n/a	n/a	n/a	n/a	n/a	23	9	7	7	n/a	n/a	n/a	n/a	n/a
2200.434	n/a	STOP	1100217	n/a	LTP211	ltpFR	11	n/a	n/a	n/a	n/a	n/a	n/a	n/a	n/a	n/a	n/a	n/a	n/a	n/a	n/a	n/a	n/a
2202.358	n/a	REC_START	1101179	n/a	LTP211	ltpFR	11	8	n/a	n/a	n/a	n/a	n/a	n/a	n/a	0	0	0	n/a	n/a	n/a	n/a	n/a
2205.35	n/a	REC_WORD	1102675	wordpools/wasnorm_wordpool_less_exclusions.txt	LTP211	ltpFR	11	8	0	EGG	518	n/a	n/a	0	n/a	0	0	0	n/a	n/a	n/a	n/a	n/a
2206.198	n/a	REC_WORD	1103099	wordpools/wasnorm_wordpool_less_exclusions.txt	LTP211	ltpFR	11	8	0	PRINCE	1124	n/a	n/a	1	n/a	0	0	0	n/a	n/a	n/a	n/a	n/a
2207.122	n/a	REC_WORD	1103561	wordpools/wasnorm_wordpool_less_exclusions.txt	LTP211	ltpFR	11	8	0	IGLOO	734	n/a	n/a	1	n/a	0	0	0	n/a	n/a	n/a	n/a	n/a
2207.868	n/a	REC_WORD	1103934	wordpools/wasnorm_wordpool_less_exclusions.txt	LTP211	ltpFR	11	8	1	REFRIGERATOR	1179	n/a	n/a	0	n/a	0	0	0	n/a	n/a	n/a	n/a	n/a
2210.074	n/a	REC_WORD	1105037	wordpools/wasnorm_wordpool_less_exclusions.txt	LTP211	ltpFR	11	8	1	CHURCH	307	n/a	n/a	0	n/a	0	0	0	n/a	n/a	n/a	n/a	n/a
2211.282	n/a	REC_WORD	1105641	wordpools/wasnorm_wordpool_less_exclusions.txt	LTP211	ltpFR	11	8	1	BALLOT	76	n/a	n/a	0	n/a	0	0	0	n/a	n/a	n/a	n/a	n/a
2213.478	n/a	REC_WORD	1106739	wordpools/wasnorm_wordpool_less_exclusions.txt	LTP211	ltpFR	11	8	1	MAGAZINE	853	n/a	n/a	0	n/a	0	0	0	n/a	n/a	n/a	n/a	n/a
2214.66	n/a	REC_WORD	1107330	wordpools/wasnorm_wordpool_less_exclusions.txt	LTP211	ltpFR	11	8	1	DASHBOARD	441	n/a	n/a	0	n/a	0	0	0	n/a	n/a	n/a	n/a	n/a
2215.678	n/a	REC_WORD	1107839	wordpools/wasnorm_wordpool_less_exclusions.txt	LTP211	ltpFR	11	8	0	JEEP	753	n/a	n/a	1	n/a	0	0	0	n/a	n/a	n/a	n/a	n/a
2216.804	n/a	REC_WORD	1108402	wordpools/wasnorm_wordpool_less_exclusions.txt	LTP211	ltpFR	11	8	0	TANK	1432	n/a	n/a	1	n/a	0	0	0	n/a	n/a	n/a	n/a	n/a
2218.032	n/a	REC_WORD	1109016	wordpools/wasnorm_wordpool_less_exclusions.txt	LTP211	ltpFR	11	8	0	VICTOR	1563	n/a	n/a	1	n/a	0	0	0	n/a	n/a	n/a	n/a	n/a
2219.104	n/a	REC_WORD	1109552	wordpools/wasnorm_wordpool_less_exclusions.txt	LTP211	ltpFR	11	8	1	CANDIDATE	228	n/a	n/a	1	n/a	0	0	0	n/a	n/a	n/a	n/a	n/a
2220.242	n/a	REC_WORD	1110121	wordpools/wasnorm_wordpool_less_exclusions.txt	LTP211	ltpFR	11	8	1	NAPKIN	937	n/a	n/a	0	n/a	0	0	0	n/a	n/a	n/a	n/a	n/a
2221.12	n/a	REC_WORD	1110560	wordpools/wasnorm_wordpool_less_exclusions.txt	LTP211	ltpFR	11	8	1	HOOD	714	n/a	n/a	0	n/a	0	0	0	n/a	n/a	n/a	n/a	n/a
2224.342	n/a	REC_WORD	1112171	wordpools/wasnorm_wordpool_less_exclusions.txt	LTP211	ltpFR	11	8	0	KING	777	n/a	n/a	1	n/a	0	0	0	n/a	n/a	n/a	n/a	n/a
2225.444	n/a	REC_WORD	1112722	wordpools/wasnorm_wordpool_less_exclusions.txt	LTP211	ltpFR	11	8	0	MONARCH	906	n/a	n/a	1	n/a	0	0	0	n/a	n/a	n/a	n/a	n/a
2281.058	n/a	WORD	1140529	wordpools/wasnorm_wordpool_less_exclusions.txt	LTP211	ltpFR	11	9	1	JUG	762	n/a	n/a	0	n/a	0	0	0	0.422607421875	0.5869140625	0	upper	zerothre.ttf
2285.052	n/a	WORD	1142526	wordpools/wasnorm_wordpool_less_exclusions.txt	LTP211	ltpFR	11	9	1	DIPLOMA	470	n/a	n/a	0	n/a	0	0	0	0.422607421875	0.5869140625	0	upper	zerothre.ttf
2289.228	n/a	WORD	1144614	wordpools/wasnorm_wordpool_less_exclusions.txt	LTP211	ltpFR	11	9	1	GAZELLE	628	n/a	n/a	1	n/a	0	0	0	0.422607421875	0.5869140625	0	upper	zerothre.ttf
2293.172	n/a	WORD	1146586	wordpools/wasnorm_wordpool_less_exclusions.txt	LTP211	ltpFR	11	9	1	PAINTING	1005	n/a	n/a	0	n/a	0	0	0	0.422607421875	0.5869140625	0	upper	zerothre.ttf
2297.15	n/a	WORD	1148575	wordpools/wasnorm_wordpool_less_exclusions.txt	LTP211	ltpFR	11	9	1	TUBE	1516	n/a	n/a	0	n/a	0	0	0	0.422607421875	0.5869140625	0	upper	zerothre.ttf
2301.278	n/a	WORD	1150639	wordpools/wasnorm_wordpool_less_exclusions.txt	LTP211	ltpFR	11	9	1	BISON	131	n/a	n/a	1	n/a	0	0	0	0.422607421875	0.5869140625	0	upper	zerothre.ttf
2305.404	n/a	WORD	1152702	wordpools/wasnorm_wordpool_less_exclusions.txt	LTP211	ltpFR	11	9	1	RACCOON	1153	n/a	n/a	1	n/a	0	0	0	0.422607421875	0.5869140625	0	upper	zerothre.ttf
2309.366	n/a	WORD	1154683	wordpools/wasnorm_wordpool_less_exclusions.txt	LTP211	ltpFR	11	9	1	OCTOPUS	971	n/a	n/a	1	n/a	0	0	0	0.422607421875	0.5869140625	0	upper	zerothre.ttf
2313.494	n/a	WORD	1156747	wordpools/wasnorm_wordpool_less_exclusions.txt	LTP211	ltpFR	11	9	1	POCKETBOOK	1094	n/a	n/a	0	n/a	0	0	0	0.422607421875	0.5869140625	0	upper	zerothre.ttf
2317.538	n/a	WORD	1158769	wordpools/wasnorm_wordpool_less_exclusions.txt	LTP211	ltpFR	11	9	1	KANGAROO	768	n/a	n/a	1	n/a	0	0	0	0.422607421875	0.5869140625	0	upper	zerothre.ttf
2321.63	n/a	WORD	1160815	wordpools/wasnorm_wordpool_less_exclusions.txt	LTP211	ltpFR	11	9	1	LOG	841	n/a	n/a	0	n/a	0	0	0	0.422607421875	0.5869140625	0	upper	zerothre.ttf
2325.608	n/a	WORD	1162804	wordpools/wasnorm_wordpool_less_exclusions.txt	LTP211	ltpFR	11	9	1	MOTEL	919	n/a	n/a	0	n/a	0	0	0	0.422607421875	0.5869140625	0	upper	zerothre.ttf
2329.668	n/a	WORD	1164834	wordpools/wasnorm_wordpool_less_exclusions.txt	LTP211	ltpFR	11	9	1	FAUCET	555	n/a	n/a	0	n/a	0	0	0	0.422607421875	0.5869140625	0	upper	zerothre.ttf
2333.496	n/a	WORD	1166748	wordpools/wasnorm_wordpool_less_exclusions.txt	LTP211	ltpFR	11	9	1	SALMON	1227	n/a	n/a	1	n/a	0	0	0	0.422607421875	0.5869140625	0	upper	zerothre.ttf
2337.49	n/a	WORD	1168745	wordpools/wasnorm_wordpool_less_exclusions.txt	LTP211	ltpFR	11	9	1	STATUE	1374	n/a	n/a	0	n/a	0	0	0	0.422607421875	0.5869140625	0	upper	zerothre.ttf
2341.468	n/a	WORD	1170734	wordpools/wasnorm_wordpool_less_exclusions.txt	LTP211	ltpFR	11	9	1	BEDROOM	111	n/a	n/a	0	n/a	0	0	0	0.422607421875	0.5869140625	0	upper	zerothre.ttf
2344.48	n/a	START	1172240	n/a	LTP211	ltpFR	11	n/a	n/a	n/a	n/a	n/a	n/a	n/a	n/a	n/a	n/a	n/a	n/a	n/a	n/a	n/a	n/a
2345.528	n/a	PROB	1172764	n/a	LTP211	ltpFR	11	n/a	n/a	n/a	n/a	n/a	n/a	n/a	14	2	5	7	n/a	n/a	n/a	n/a	n/a
2347.692	n/a	PROB	1173846	n/a	LTP211	ltpFR	11	n/a	n/a	n/a	n/a	n/a	n/a	n/a	11	1	6	4	n/a	n/a	n/a	n/a	n/a
2349.806	n/a	PROB	1174903	n/a	LTP211	ltpFR	11	n/a	n/a	n/a	n/a	n/a	n/a	n/a	21	9	6	6	n/a	n/a	n/a	n/a	n/a
2352.402	n/a	PROB	1176201	n/a	LTP211	ltpFR	11	n/a	n/a	n/a	n/a	n/a	n/a	n/a	22	7	8	7	n/a	n/a	n/a	n/a	n/a
2354.948	n/a	PROB	1177474	n/a	LTP211	ltpFR	11	n/a	n/a	n/a	n/a	n/a	n/a	n/a	16	4	8	4	n/a	n/a	n/a	n/a	n/a
2357.328	n/a	PROB	1178664	n/a	LTP211	ltpFR	11	n/a	n/a	n/a	n/a	n/a	n/a	n/a	19	6	7	5	n/a	n/a	n/a	n/a	n/a
2359.5	n/a	STOP	1179750	n/a	LTP211	ltpFR	11	n/a	n/a	n/a	n/a	n/a	n/a	n/a	n/a	n/a	n/a	n/a	n/a	n/a	n/a	n/a	n/a
2362.37	n/a	REC_START	1181185	n/a	LTP211	ltpFR	11	9	n/a	n/a	n/a	n/a	n/a	n/a	n/a	0	0	0	n/a	n/a	n/a	n/a	n/a
2365.722	n/a	REC_WORD	1182861	wordpools/wasnorm_wordpool_less_exclusions.txt	LTP211	ltpFR	11	9	1	JUG	762	n/a	n/a	0	n/a	0	0	0	n/a	n/a	n/a	n/a	n/a
2366.62	n/a	REC_WORD	1183310	wordpools/wasnorm_wordpool_less_exclusions.txt	LTP211	ltpFR	11	9	1	DIPLOMA	470	n/a	n/a	0	n/a	0	0	0	n/a	n/a	n/a	n/a	n/a
2367.944	n/a	REC_WORD	1183972	wordpools/wasnorm_wordpool_less_exclusions.txt	LTP211	ltpFR	11	9	1	GAZELLE	628	n/a	n/a	1	n/a	0	0	0	n/a	n/a	n/a	n/a	n/a
2369.214	n/a	REC_WORD	1184607	wordpools/wasnorm_wordpool_less_exclusions.txt	LTP211	ltpFR	11	9	1	PAINTING	1005	n/a	n/a	0	n/a	0	0	0	n/a	n/a	n/a	n/a	n/a
2370.398	n/a	REC_WORD	1185199	wordpools/wasnorm_wordpool_less_exclusions.txt	LTP211	ltpFR	11	9	1	TUBE	1516	n/a	n/a	0	n/a	0	0	0	n/a	n/a	n/a	n/a	n/a
2372.718	n/a	REC_WORD	1186359	wordpools/wasnorm_wordpool_less_exclusions.txt	LTP211	ltpFR	11	9	1	RACCOON	1153	n/a	n/a	1	n/a	0	0	0	n/a	n/a	n/a	n/a	n/a
2373.994	n/a	REC_WORD	1186997	wordpools/wasnorm_wordpool_less_exclusions.txt	LTP211	ltpFR	11	9	1	BISON	131	n/a	n/a	1	n/a	0	0	0	n/a	n/a	n/a	n/a	n/a
2375.66	n/a	REC_WORD	1187830	wordpools/wasnorm_wordpool_less_exclusions.txt	LTP211	ltpFR	11	9	1	OCTOPUS	971	n/a	n/a	1	n/a	0	0	0	n/a	n/a	n/a	n/a	n/a
2377.006	n/a	REC_WORD	1188503	wordpools/wasnorm_wordpool_less_exclusions.txt	LTP211	ltpFR	11	9	1	POCKETBOOK	1094	n/a	n/a	0	n/a	0	0	0	n/a	n/a	n/a	n/a	n/a
2378.012	n/a	REC_WORD_VV	1189006	wordpools/wasnorm_wordpool_less_exclusions.txt	LTP211	ltpFR	11	9	n/a	<>	-1	n/a	n/a	n/a	n/a	0	0	0	n/a	n/a	n/a	n/a	n/a
2378.714	n/a	REC_WORD	1189357	wordpools/wasnorm_wordpool_less_exclusions.txt	LTP211	ltpFR	11	9	1	KANGAROO	768	n/a	n/a	1	n/a	0	0	0	n/a	n/a	n/a	n/a	n/a
2380.2	n/a	REC_WORD	1190100	wordpools/wasnorm_wordpool_less_exclusions.txt	LTP211	ltpFR	11	9	1	LOG	841	n/a	n/a	0	n/a	0	0	0	n/a	n/a	n/a	n/a	n/a
2381.302	n/a	REC_WORD	1190651	wordpools/wasnorm_wordpool_less_exclusions.txt	LTP211	ltpFR	11	9	1	MOTEL	919	n/a	n/a	0	n/a	0	0	0	n/a	n/a	n/a	n/a	n/a
