mstime	trial_type	stim_file	subject	experiment	session	trial	task	item_name	item_num	recog_resp	recog_conf	resp	answer	test_x	test_y	test_z	color_r	color_g	color_b	case	font
0	SESS_START	n/a	LTP146	ltpFR	10	n/a	n/a	n/a	n/a	0	n/a	n/a	n/a	0	0	0	n/a	n/a	n/a	n/a	n/a
25437	START	n/a	LTP146	ltpFR	10	n/a	n/a	n/a	n/a	n/a	n/a	n/a	n/a	n/a	n/a	n/a	n/a	n/a	n/a	n/a	n/a
25462	PROB	n/a	LTP146	ltpFR	10	n/a	n/a	n/a	n/a	n/a	n/a	n/a	21	3	9	9	n/a	n/a	n/a	n/a	n/a
27453	PROB	n/a	LTP146	ltpFR	10	n/a	n/a	n/a	n/a	n/a	n/a	n/a	19	7	8	4	n/a	n/a	n/a	n/a	n/a
29377	PROB	n/a	LTP146	ltpFR	10	n/a	n/a	n/a	n/a	n/a	n/a	n/a	17	5	8	4	n/a	n/a	n/a	n/a	n/a
31510	PROB	n/a	LTP146	ltpFR	10	n/a	n/a	n/a	n/a	n/a	n/a	n/a	20	9	4	7	n/a	n/a	n/a	n/a	n/a
33292	PROB	n/a	LTP146	ltpFR	10	n/a	n/a	n/a	n/a	n/a	n/a	n/a	14	3	9	2	n/a	n/a	n/a	n/a	n/a
34617	PROB	n/a	LTP146	ltpFR	10	n/a	n/a	n/a	n/a	n/a	n/a	n/a	13	2	4	5	n/a	n/a	n/a	n/a	n/a
36258	PROB	n/a	LTP146	ltpFR	10	n/a	n/a	n/a	n/a	n/a	n/a	n/a	10	5	1	4	n/a	n/a	n/a	n/a	n/a
38482	PROB	n/a	LTP146	ltpFR	10	n/a	n/a	n/a	n/a	n/a	n/a	n/a	11	1	7	3	n/a	n/a	n/a	n/a	n/a
39806	PROB	n/a	LTP146	ltpFR	10	n/a	n/a	n/a	n/a	n/a	n/a	n/a	22	9	5	8	n/a	n/a	n/a	n/a	n/a
41598	PROB	n/a	LTP146	ltpFR	10	n/a	n/a	n/a	n/a	n/a	n/a	n/a	9	1	4	4	n/a	n/a	n/a	n/a	n/a
42821	PROB	n/a	LTP146	ltpFR	10	n/a	n/a	n/a	n/a	n/a	n/a	n/a	9	3	3	3	n/a	n/a	n/a	n/a	n/a
43917	STOP	n/a	LTP146	ltpFR	10	n/a	n/a	n/a	n/a	n/a	n/a	n/a	n/a	n/a	n/a	n/a	n/a	n/a	n/a	n/a	n/a
79816	WORD	wordpools/wasnorm_wordpool.txt	LTP146	ltpFR	10	1	0	MOAT	903	n/a	n/a	1	n/a	0	0	0	0.57763671875	0.412841796875	1	upper	zerothre.ttf
83707	WORD	wordpools/wasnorm_wordpool.txt	LTP146	ltpFR	10	1	0	BAY	102	n/a	n/a	1	n/a	0	0	0	0.57763671875	0.412841796875	1	upper	zerothre.ttf
87764	WORD	wordpools/wasnorm_wordpool.txt	LTP146	ltpFR	10	1	0	TRIANGLE	1504	n/a	n/a	1	n/a	0	0	0	0.57763671875	0.412841796875	1	upper	zerothre.ttf
91862	WORD	wordpools/wasnorm_wordpool.txt	LTP146	ltpFR	10	1	0	MARROW	872	n/a	n/a	0	n/a	0	0	0	0.57763671875	0.412841796875	1	upper	zerothre.ttf
95919	WORD	wordpools/wasnorm_wordpool.txt	LTP146	ltpFR	10	1	0	PIMPLE	1071	n/a	n/a	1	n/a	0	0	0	0.57763671875	0.412841796875	1	upper	zerothre.ttf
99868	WORD	wordpools/wasnorm_wordpool.txt	LTP146	ltpFR	10	1	0	JUVENILE	767	n/a	n/a	1	n/a	0	0	0	0.57763671875	0.412841796875	1	upper	zerothre.ttf
103916	WORD	wordpools/wasnorm_wordpool.txt	LTP146	ltpFR	10	1	0	SKELETON	1314	n/a	n/a	1	n/a	0	0	0	0.57763671875	0.412841796875	1	upper	zerothre.ttf
107823	WORD	wordpools/wasnorm_wordpool.txt	LTP146	ltpFR	10	1	0	LOOP	844	n/a	n/a	1	n/a	0	0	0	0.57763671875	0.412841796875	1	upper	zerothre.ttf
111955	WORD	wordpools/wasnorm_wordpool.txt	LTP146	ltpFR	10	1	0	GUEST	669	n/a	n/a	1	n/a	0	0	0	0.57763671875	0.412841796875	1	upper	zerothre.ttf
116087	WORD	wordpools/wasnorm_wordpool.txt	LTP146	ltpFR	10	1	0	CRAYON	401	n/a	n/a	0	n/a	0	0	0	0.57763671875	0.412841796875	1	upper	zerothre.ttf
120027	WORD	wordpools/wasnorm_wordpool.txt	LTP146	ltpFR	10	1	0	STAIRS	1367	n/a	n/a	1	n/a	0	0	0	0.57763671875	0.412841796875	1	upper	zerothre.ttf
124227	WORD	wordpools/wasnorm_wordpool.txt	LTP146	ltpFR	10	1	0	LIP	828	n/a	n/a	1	n/a	0	0	0	0.57763671875	0.412841796875	1	upper	zerothre.ttf
128350	WORD	wordpools/wasnorm_wordpool.txt	LTP146	ltpFR	10	1	0	DENTIST	447	n/a	n/a	1	n/a	0	0	0	0.57763671875	0.412841796875	1	upper	zerothre.ttf
132174	WORD	wordpools/wasnorm_wordpool.txt	LTP146	ltpFR	10	1	0	VILLAIN	1567	n/a	n/a	1	n/a	0	0	0	0.57763671875	0.412841796875	1	upper	zerothre.ttf
136364	WORD	wordpools/wasnorm_wordpool.txt	LTP146	ltpFR	10	1	0	CRUMB	416	n/a	n/a	0	n/a	0	0	0	0.57763671875	0.412841796875	1	upper	zerothre.ttf
140563	WORD	wordpools/wasnorm_wordpool.txt	LTP146	ltpFR	10	1	0	SHORTCAKE	1292	n/a	n/a	0	n/a	0	0	0	0.57763671875	0.412841796875	1	upper	zerothre.ttf
143570	START	n/a	LTP146	ltpFR	10	n/a	n/a	n/a	n/a	n/a	n/a	n/a	n/a	n/a	n/a	n/a	n/a	n/a	n/a	n/a	n/a
144511	PROB	n/a	LTP146	ltpFR	10	n/a	n/a	n/a	n/a	n/a	n/a	n/a	41	2	6	2	n/a	n/a	n/a	n/a	n/a
146560	PROB	n/a	LTP146	ltpFR	10	n/a	n/a	n/a	n/a	n/a	n/a	n/a	16	3	6	7	n/a	n/a	n/a	n/a	n/a
148193	PROB	n/a	LTP146	ltpFR	10	n/a	n/a	n/a	n/a	n/a	n/a	n/a	74	9	1	9	n/a	n/a	n/a	n/a	n/a
150150	STOP	n/a	LTP146	ltpFR	10	n/a	n/a	n/a	n/a	n/a	n/a	n/a	n/a	n/a	n/a	n/a	n/a	n/a	n/a	n/a	n/a
153384	REC_START	n/a	LTP146	ltpFR	10	1	n/a	n/a	n/a	n/a	n/a	n/a	n/a	0	0	0	n/a	n/a	n/a	n/a	n/a
153873	REC_WORD	wordpools/wasnorm_wordpool.txt	LTP146	ltpFR	10	1	0	SHORTCAKE	1292	n/a	n/a	0	n/a	0	0	0	n/a	n/a	n/a	n/a	n/a
154895	REC_WORD	wordpools/wasnorm_wordpool.txt	LTP146	ltpFR	10	1	0	DENTIST	447	n/a	n/a	1	n/a	0	0	0	n/a	n/a	n/a	n/a	n/a
155698	REC_WORD	wordpools/wasnorm_wordpool.txt	LTP146	ltpFR	10	1	0	VILLAIN	1567	n/a	n/a	1	n/a	0	0	0	n/a	n/a	n/a	n/a	n/a
156711	REC_WORD	wordpools/wasnorm_wordpool.txt	LTP146	ltpFR	10	1	0	STAIRS	1367	n/a	n/a	1	n/a	0	0	0	n/a	n/a	n/a	n/a	n/a
158133	REC_WORD	wordpools/wasnorm_wordpool.txt	LTP146	ltpFR	10	1	0	CRUMB	416	n/a	n/a	0	n/a	0	0	0	n/a	n/a	n/a	n/a	n/a
159460	REC_WORD	wordpools/wasnorm_wordpool.txt	LTP146	ltpFR	10	1	0	CRAYON	401	n/a	n/a	0	n/a	0	0	0	n/a	n/a	n/a	n/a	n/a
164144	REC_WORD	wordpools/wasnorm_wordpool.txt	LTP146	ltpFR	10	1	0	PIMPLE	1071	n/a	n/a	1	n/a	0	0	0	n/a	n/a	n/a	n/a	n/a
165806	REC_WORD	wordpools/wasnorm_wordpool.txt	LTP146	ltpFR	10	1	n/a	ADOLESCENT	7	n/a	n/a	n/a	n/a	0	0	0	n/a	n/a	n/a	n/a	n/a
168270	REC_WORD	wordpools/wasnorm_wordpool.txt	LTP146	ltpFR	10	1	n/a	TEENAGER	1444	n/a	n/a	n/a	n/a	0	0	0	n/a	n/a	n/a	n/a	n/a
170635	REC_WORD	wordpools/wasnorm_wordpool.txt	LTP146	ltpFR	10	1	0	LIP	828	n/a	n/a	1	n/a	0	0	0	n/a	n/a	n/a	n/a	n/a
178582	REC_WORD	wordpools/wasnorm_wordpool.txt	LTP146	ltpFR	10	1	0	LOOP	844	n/a	n/a	1	n/a	0	0	0	n/a	n/a	n/a	n/a	n/a
187471	REC_WORD	wordpools/wasnorm_wordpool.txt	LTP146	ltpFR	10	1	0	MARROW	872	n/a	n/a	0	n/a	0	0	0	n/a	n/a	n/a	n/a	n/a
188379	REC_WORD	wordpools/wasnorm_wordpool.txt	LTP146	ltpFR	10	1	0	SKELETON	1314	n/a	n/a	1	n/a	0	0	0	n/a	n/a	n/a	n/a	n/a
189806	REC_WORD	wordpools/wasnorm_wordpool.txt	LTP146	ltpFR	10	1	0	TRIANGLE	1504	n/a	n/a	1	n/a	0	0	0	n/a	n/a	n/a	n/a	n/a
233438	START	n/a	LTP146	ltpFR	10	n/a	n/a	n/a	n/a	n/a	n/a	n/a	n/a	n/a	n/a	n/a	n/a	n/a	n/a	n/a	n/a
234945	PROB	n/a	LTP146	ltpFR	10	n/a	n/a	n/a	n/a	n/a	n/a	n/a	9	1	7	1	n/a	n/a	n/a	n/a	n/a
236303	PROB	n/a	LTP146	ltpFR	10	n/a	n/a	n/a	n/a	n/a	n/a	n/a	12	3	4	5	n/a	n/a	n/a	n/a	n/a
237719	PROB	n/a	LTP146	ltpFR	10	n/a	n/a	n/a	n/a	n/a	n/a	n/a	10	7	1	2	n/a	n/a	n/a	n/a	n/a
239169	PROB	n/a	LTP146	ltpFR	10	n/a	n/a	n/a	n/a	n/a	n/a	n/a	17	2	8	7	n/a	n/a	n/a	n/a	n/a
240558	STOP	n/a	LTP146	ltpFR	10	n/a	n/a	n/a	n/a	n/a	n/a	n/a	n/a	n/a	n/a	n/a	n/a	n/a	n/a	n/a	n/a
242435	WORD	wordpools/wasnorm_wordpool.txt	LTP146	ltpFR	10	2	1	CHEERLEADER	288	n/a	n/a	3	n/a	0	0	0	0.422607421875	0.5869140625	0	lower	amplitud.ttf
243725	KEY_MSG	n/a	LTP146	ltpFR	10	2	n/a	n/a	n/a	n/a	n/a	n/a	n/a	0	0	0	n/a	n/a	n/a	n/a	n/a
245442	START	n/a	LTP146	ltpFR	10	n/a	n/a	n/a	n/a	n/a	n/a	n/a	n/a	n/a	n/a	n/a	n/a	n/a	n/a	n/a	n/a
246408	PROB	n/a	LTP146	ltpFR	10	n/a	n/a	n/a	n/a	n/a	n/a	n/a	9	1	3	5	n/a	n/a	n/a	n/a	n/a
247657	PROB	n/a	LTP146	ltpFR	10	n/a	n/a	n/a	n/a	n/a	n/a	n/a	20	8	4	8	n/a	n/a	n/a	n/a	n/a
249182	PROB	n/a	LTP146	ltpFR	10	n/a	n/a	n/a	n/a	n/a	n/a	n/a	12	3	2	7	n/a	n/a	n/a	n/a	n/a
250647	PROB	n/a	LTP146	ltpFR	10	n/a	n/a	n/a	n/a	n/a	n/a	n/a	14	3	3	8	n/a	n/a	n/a	n/a	n/a
252150	STOP	n/a	LTP146	ltpFR	10	n/a	n/a	n/a	n/a	n/a	n/a	n/a	n/a	n/a	n/a	n/a	n/a	n/a	n/a	n/a	n/a
254280	WORD	wordpools/wasnorm_wordpool.txt	LTP146	ltpFR	10	2	1	TREE	1502	n/a	n/a	1	n/a	0	0	0	0.422607421875	0.5869140625	0	lower	amplitud.ttf
257288	START	n/a	LTP146	ltpFR	10	n/a	n/a	n/a	n/a	n/a	n/a	n/a	n/a	n/a	n/a	n/a	n/a	n/a	n/a	n/a	n/a
258154	PROB	n/a	LTP146	ltpFR	10	n/a	n/a	n/a	n/a	n/a	n/a	n/a	13	4	8	1	n/a	n/a	n/a	n/a	n/a
260077	PROB	n/a	LTP146	ltpFR	10	n/a	n/a	n/a	n/a	n/a	n/a	n/a	14	7	1	6	n/a	n/a	n/a	n/a	n/a
261478	PROB	n/a	LTP146	ltpFR	10	n/a	n/a	n/a	n/a	n/a	n/a	n/a	15	2	9	4	n/a	n/a	n/a	n/a	n/a
262785	PROB	n/a	LTP146	ltpFR	10	n/a	n/a	n/a	n/a	n/a	n/a	n/a	24	7	9	7	n/a	n/a	n/a	n/a	n/a
264286	STOP	n/a	LTP146	ltpFR	10	n/a	n/a	n/a	n/a	n/a	n/a	n/a	n/a	n/a	n/a	n/a	n/a	n/a	n/a	n/a	n/a
266318	WORD	wordpools/wasnorm_wordpool.txt	LTP146	ltpFR	10	2	1	WOMAN	1620	n/a	n/a	1	n/a	0	0	0	0.422607421875	0.5869140625	0	lower	amplitud.ttf
269325	START	n/a	LTP146	ltpFR	10	n/a	n/a	n/a	n/a	n/a	n/a	n/a	n/a	n/a	n/a	n/a	n/a	n/a	n/a	n/a	n/a
270141	PROB	n/a	LTP146	ltpFR	10	n/a	n/a	n/a	n/a	n/a	n/a	n/a	21	3	9	9	n/a	n/a	n/a	n/a	n/a
271416	PROB	n/a	LTP146	ltpFR	10	n/a	n/a	n/a	n/a	n/a	n/a	n/a	23	6	8	9	n/a	n/a	n/a	n/a	n/a
273797	PROB	n/a	LTP146	ltpFR	10	n/a	n/a	n/a	n/a	n/a	n/a	n/a	16	1	7	9	n/a	n/a	n/a	n/a	n/a
275298	PROB	n/a	LTP146	ltpFR	10	n/a	n/a	n/a	n/a	n/a	n/a	n/a	19	5	6	8	n/a	n/a	n/a	n/a	n/a
276765	STOP	n/a	LTP146	ltpFR	10	n/a	n/a	n/a	n/a	n/a	n/a	n/a	n/a	n/a	n/a	n/a	n/a	n/a	n/a	n/a	n/a
278230	WORD	wordpools/wasnorm_wordpool.txt	LTP146	ltpFR	10	2	1	COACH	331	n/a	n/a	1	n/a	0	0	0	0.422607421875	0.5869140625	0	lower	amplitud.ttf
281238	START	n/a	LTP146	ltpFR	10	n/a	n/a	n/a	n/a	n/a	n/a	n/a	n/a	n/a	n/a	n/a	n/a	n/a	n/a	n/a	n/a
282220	PROB	n/a	LTP146	ltpFR	10	n/a	n/a	n/a	n/a	n/a	n/a	n/a	4	1	2	1	n/a	n/a	n/a	n/a	n/a
283203	PROB	n/a	LTP146	ltpFR	10	n/a	n/a	n/a	n/a	n/a	n/a	n/a	14	6	6	4	n/a	n/a	n/a	n/a	n/a
284668	PROB	n/a	LTP146	ltpFR	10	n/a	n/a	n/a	n/a	n/a	n/a	n/a	19	6	6	7	n/a	n/a	n/a	n/a	n/a
287018	PROB	n/a	LTP146	ltpFR	10	n/a	n/a	n/a	n/a	n/a	n/a	n/a	19	8	4	7	n/a	n/a	n/a	n/a	n/a
288853	STOP	n/a	LTP146	ltpFR	10	n/a	n/a	n/a	n/a	n/a	n/a	n/a	n/a	n/a	n/a	n/a	n/a	n/a	n/a	n/a	n/a
290075	WORD	wordpools/wasnorm_wordpool.txt	LTP146	ltpFR	10	2	1	STUMP	1396	n/a	n/a	1	n/a	0	0	0	0.422607421875	0.5869140625	0	lower	amplitud.ttf
293083	START	n/a	LTP146	ltpFR	10	n/a	n/a	n/a	n/a	n/a	n/a	n/a	n/a	n/a	n/a	n/a	n/a	n/a	n/a	n/a	n/a
293998	PROB	n/a	LTP146	ltpFR	10	n/a	n/a	n/a	n/a	n/a	n/a	n/a	19	7	5	7	n/a	n/a	n/a	n/a	n/a
295491	PROB	n/a	LTP146	ltpFR	10	n/a	n/a	n/a	n/a	n/a	n/a	n/a	17	6	5	6	n/a	n/a	n/a	n/a	n/a
297064	PROB	n/a	LTP146	ltpFR	10	n/a	n/a	n/a	n/a	n/a	n/a	n/a	10	5	2	3	n/a	n/a	n/a	n/a	n/a
301083	STOP	n/a	LTP146	ltpFR	10	n/a	n/a	n/a	n/a	n/a	n/a	n/a	n/a	n/a	n/a	n/a	n/a	n/a	n/a	n/a	n/a
302172	WORD	wordpools/wasnorm_wordpool.txt	LTP146	ltpFR	10	2	1	HOE	711	n/a	n/a	0	n/a	0	0	0	0.422607421875	0.5869140625	0	lower	amplitud.ttf
305179	START	n/a	LTP146	ltpFR	10	n/a	n/a	n/a	n/a	n/a	n/a	n/a	n/a	n/a	n/a	n/a	n/a	n/a	n/a	n/a	n/a
306262	PROB	n/a	LTP146	ltpFR	10	n/a	n/a	n/a	n/a	n/a	n/a	n/a	6	2	3	1	n/a	n/a	n/a	n/a	n/a
307819	PROB	n/a	LTP146	ltpFR	10	n/a	n/a	n/a	n/a	n/a	n/a	n/a	19	7	6	6	n/a	n/a	n/a	n/a	n/a
309502	PROB	n/a	LTP146	ltpFR	10	n/a	n/a	n/a	n/a	n/a	n/a	n/a	14	6	1	7	n/a	n/a	n/a	n/a	n/a
311110	PROB	n/a	LTP146	ltpFR	10	n/a	n/a	n/a	n/a	n/a	n/a	n/a	14	5	5	4	n/a	n/a	n/a	n/a	n/a
312198	STOP	n/a	LTP146	ltpFR	10	n/a	n/a	n/a	n/a	n/a	n/a	n/a	n/a	n/a	n/a	n/a	n/a	n/a	n/a	n/a	n/a
314359	WORD	wordpools/wasnorm_wordpool.txt	LTP146	ltpFR	10	2	1	LAUNDRY	803	n/a	n/a	0	n/a	0	0	0	0.422607421875	0.5869140625	0	lower	amplitud.ttf
317367	START	n/a	LTP146	ltpFR	10	n/a	n/a	n/a	n/a	n/a	n/a	n/a	n/a	n/a	n/a	n/a	n/a	n/a	n/a	n/a	n/a
318183	PROB	n/a	LTP146	ltpFR	10	n/a	n/a	n/a	n/a	n/a	n/a	n/a	18	3	8	7	n/a	n/a	n/a	n/a	n/a
319532	PROB	n/a	LTP146	ltpFR	10	n/a	n/a	n/a	n/a	n/a	n/a	n/a	17	4	7	6	n/a	n/a	n/a	n/a	n/a
321315	PROB	n/a	LTP146	ltpFR	10	n/a	n/a	n/a	n/a	n/a	n/a	n/a	20	7	8	4	n/a	n/a	n/a	n/a	n/a
325367	STOP	n/a	LTP146	ltpFR	10	n/a	n/a	n/a	n/a	n/a	n/a	n/a	n/a	n/a	n/a	n/a	n/a	n/a	n/a	n/a	n/a
326213	WORD	wordpools/wasnorm_wordpool.txt	LTP146	ltpFR	10	2	1	CLOTHES	327	n/a	n/a	0	n/a	0	0	0	0.422607421875	0.5869140625	0	lower	amplitud.ttf
329221	START	n/a	LTP146	ltpFR	10	n/a	n/a	n/a	n/a	n/a	n/a	n/a	n/a	n/a	n/a	n/a	n/a	n/a	n/a	n/a	n/a
330077	PROB	n/a	LTP146	ltpFR	10	n/a	n/a	n/a	n/a	n/a	n/a	n/a	18	9	3	5	n/a	n/a	n/a	n/a	n/a
331594	PROB	n/a	LTP146	ltpFR	10	n/a	n/a	n/a	n/a	n/a	n/a	n/a	23	5	8	9	n/a	n/a	n/a	n/a	n/a
333277	PROB	n/a	LTP146	ltpFR	10	n/a	n/a	n/a	n/a	n/a	n/a	n/a	12	3	4	5	n/a	n/a	n/a	n/a	n/a
335468	PROB	n/a	LTP146	ltpFR	10	n/a	n/a	n/a	n/a	n/a	n/a	n/a	19	4	6	9	n/a	n/a	n/a	n/a	n/a
336709	STOP	n/a	LTP146	ltpFR	10	n/a	n/a	n/a	n/a	n/a	n/a	n/a	n/a	n/a	n/a	n/a	n/a	n/a	n/a	n/a	n/a
338159	WORD	wordpools/wasnorm_wordpool.txt	LTP146	ltpFR	10	2	1	VITAMIN	1574	n/a	n/a	0	n/a	0	0	0	0.422607421875	0.5869140625	0	lower	amplitud.ttf
341166	START	n/a	LTP146	ltpFR	10	n/a	n/a	n/a	n/a	n/a	n/a	n/a	n/a	n/a	n/a	n/a	n/a	n/a	n/a	n/a	n/a
342141	PROB	n/a	LTP146	ltpFR	10	n/a	n/a	n/a	n/a	n/a	n/a	n/a	17	9	1	7	n/a	n/a	n/a	n/a	n/a
343906	PROB	n/a	LTP146	ltpFR	10	n/a	n/a	n/a	n/a	n/a	n/a	n/a	18	6	4	8	n/a	n/a	n/a	n/a	n/a
345598	PROB	n/a	LTP146	ltpFR	10	n/a	n/a	n/a	n/a	n/a	n/a	n/a	24	6	8	9	n/a	n/a	n/a	n/a	n/a
347389	PROB	n/a	LTP146	ltpFR	10	n/a	n/a	n/a	n/a	n/a	n/a	n/a	11	8	1	2	n/a	n/a	n/a	n/a	n/a
348997	STOP	n/a	LTP146	ltpFR	10	n/a	n/a	n/a	n/a	n/a	n/a	n/a	n/a	n/a	n/a	n/a	n/a	n/a	n/a	n/a	n/a
350095	WORD	wordpools/wasnorm_wordpool.txt	LTP146	ltpFR	10	2	1	CUSTOMER	430	n/a	n/a	0	n/a	0	0	0	0.422607421875	0.5869140625	0	lower	amplitud.ttf
353104	START	n/a	LTP146	ltpFR	10	n/a	n/a	n/a	n/a	n/a	n/a	n/a	n/a	n/a	n/a	n/a	n/a	n/a	n/a	n/a	n/a
354253	PROB	n/a	LTP146	ltpFR	10	n/a	n/a	n/a	n/a	n/a	n/a	n/a	8	4	3	1	n/a	n/a	n/a	n/a	n/a
355469	PROB	n/a	LTP146	ltpFR	10	n/a	n/a	n/a	n/a	n/a	n/a	n/a	15	6	4	5	n/a	n/a	n/a	n/a	n/a
357177	PROB	n/a	LTP146	ltpFR	10	n/a	n/a	n/a	n/a	n/a	n/a	n/a	16	3	7	6	n/a	n/a	n/a	n/a	n/a
358510	PROB	n/a	LTP146	ltpFR	10	n/a	n/a	n/a	n/a	n/a	n/a	n/a	17	4	6	7	n/a	n/a	n/a	n/a	n/a
360342	STOP	n/a	LTP146	ltpFR	10	n/a	n/a	n/a	n/a	n/a	n/a	n/a	n/a	n/a	n/a	n/a	n/a	n/a	n/a	n/a	n/a
361966	WORD	wordpools/wasnorm_wordpool.txt	LTP146	ltpFR	10	2	1	DETERGENT	455	n/a	n/a	1	n/a	0	0	0	0.422607421875	0.5869140625	0	lower	amplitud.ttf
364974	START	n/a	LTP146	ltpFR	10	n/a	n/a	n/a	n/a	n/a	n/a	n/a	n/a	n/a	n/a	n/a	n/a	n/a	n/a	n/a	n/a
365898	PROB	n/a	LTP146	ltpFR	10	n/a	n/a	n/a	n/a	n/a	n/a	n/a	12	3	7	2	n/a	n/a	n/a	n/a	n/a
367240	PROB	n/a	LTP146	ltpFR	10	n/a	n/a	n/a	n/a	n/a	n/a	n/a	17	7	6	4	n/a	n/a	n/a	n/a	n/a
369063	PROB	n/a	LTP146	ltpFR	10	n/a	n/a	n/a	n/a	n/a	n/a	n/a	20	7	9	4	n/a	n/a	n/a	n/a	n/a
371347	PROB	n/a	LTP146	ltpFR	10	n/a	n/a	n/a	n/a	n/a	n/a	n/a	12	1	5	6	n/a	n/a	n/a	n/a	n/a
372574	STOP	n/a	LTP146	ltpFR	10	n/a	n/a	n/a	n/a	n/a	n/a	n/a	n/a	n/a	n/a	n/a	n/a	n/a	n/a	n/a	n/a
373828	WORD	wordpools/wasnorm_wordpool.txt	LTP146	ltpFR	10	2	1	SHED	1277	n/a	n/a	1	n/a	0	0	0	0.422607421875	0.5869140625	0	lower	amplitud.ttf
376836	START	n/a	LTP146	ltpFR	10	n/a	n/a	n/a	n/a	n/a	n/a	n/a	n/a	n/a	n/a	n/a	n/a	n/a	n/a	n/a	n/a
377844	PROB	n/a	LTP146	ltpFR	10	n/a	n/a	n/a	n/a	n/a	n/a	n/a	14	2	3	9	n/a	n/a	n/a	n/a	n/a
379444	PROB	n/a	LTP146	ltpFR	10	n/a	n/a	n/a	n/a	n/a	n/a	n/a	14	8	4	2	n/a	n/a	n/a	n/a	n/a
380734	PROB	n/a	LTP146	ltpFR	10	n/a	n/a	n/a	n/a	n/a	n/a	n/a	21	8	8	5	n/a	n/a	n/a	n/a	n/a
382026	PROB	n/a	LTP146	ltpFR	10	n/a	n/a	n/a	n/a	n/a	n/a	n/a	18	8	5	5	n/a	n/a	n/a	n/a	n/a
384836	STOP	n/a	LTP146	ltpFR	10	n/a	n/a	n/a	n/a	n/a	n/a	n/a	n/a	n/a	n/a	n/a	n/a	n/a	n/a	n/a	n/a
385866	WORD	wordpools/wasnorm_wordpool.txt	LTP146	ltpFR	10	2	1	ATOM	55	n/a	n/a	1	n/a	0	0	0	0.422607421875	0.5869140625	0	lower	amplitud.ttf
388873	START	n/a	LTP146	ltpFR	10	n/a	n/a	n/a	n/a	n/a	n/a	n/a	n/a	n/a	n/a	n/a	n/a	n/a	n/a	n/a	n/a
389781	PROB	n/a	LTP146	ltpFR	10	n/a	n/a	n/a	n/a	n/a	n/a	n/a	14	3	3	8	n/a	n/a	n/a	n/a	n/a
391780	PROB	n/a	LTP146	ltpFR	10	n/a	n/a	n/a	n/a	n/a	n/a	n/a	19	6	4	9	n/a	n/a	n/a	n/a	n/a
393896	PROB	n/a	LTP146	ltpFR	10	n/a	n/a	n/a	n/a	n/a	n/a	n/a	12	2	4	6	n/a	n/a	n/a	n/a	n/a
395709	STOP	n/a	LTP146	ltpFR	10	n/a	n/a	n/a	n/a	n/a	n/a	n/a	n/a	n/a	n/a	n/a	n/a	n/a	n/a	n/a	n/a
397887	WORD	wordpools/wasnorm_wordpool.txt	LTP146	ltpFR	10	2	1	ACORN	3	n/a	n/a	1	n/a	0	0	0	0.422607421875	0.5869140625	0	lower	amplitud.ttf
400894	START	n/a	LTP146	ltpFR	10	n/a	n/a	n/a	n/a	n/a	n/a	n/a	n/a	n/a	n/a	n/a	n/a	n/a	n/a	n/a	n/a
401793	PROB	n/a	LTP146	ltpFR	10	n/a	n/a	n/a	n/a	n/a	n/a	n/a	4	1	2	1	n/a	n/a	n/a	n/a	n/a
402701	PROB	n/a	LTP146	ltpFR	10	n/a	n/a	n/a	n/a	n/a	n/a	n/a	15	6	7	2	n/a	n/a	n/a	n/a	n/a
404402	PROB	n/a	LTP146	ltpFR	10	n/a	n/a	n/a	n/a	n/a	n/a	n/a	16	5	2	9	n/a	n/a	n/a	n/a	n/a
406126	PROB	n/a	LTP146	ltpFR	10	n/a	n/a	n/a	n/a	n/a	n/a	n/a	13	6	3	5	n/a	n/a	n/a	n/a	n/a
407733	STOP	n/a	LTP146	ltpFR	10	n/a	n/a	n/a	n/a	n/a	n/a	n/a	n/a	n/a	n/a	n/a	n/a	n/a	n/a	n/a	n/a
409757	WORD	wordpools/wasnorm_wordpool.txt	LTP146	ltpFR	10	2	1	MECHANIC	884	n/a	n/a	1	n/a	0	0	0	0.422607421875	0.5869140625	0	lower	amplitud.ttf
412765	START	n/a	LTP146	ltpFR	10	n/a	n/a	n/a	n/a	n/a	n/a	n/a	n/a	n/a	n/a	n/a	n/a	n/a	n/a	n/a	n/a
413656	PROB	n/a	LTP146	ltpFR	10	n/a	n/a	n/a	n/a	n/a	n/a	n/a	16	2	6	8	n/a	n/a	n/a	n/a	n/a
415398	PROB	n/a	LTP146	ltpFR	10	n/a	n/a	n/a	n/a	n/a	n/a	n/a	27	9	9	9	n/a	n/a	n/a	n/a	n/a
416921	PROB	n/a	LTP146	ltpFR	10	n/a	n/a	n/a	n/a	n/a	n/a	n/a	9	1	3	5	n/a	n/a	n/a	n/a	n/a
418172	PROB	n/a	LTP146	ltpFR	10	n/a	n/a	n/a	n/a	n/a	n/a	n/a	19	8	6	5	n/a	n/a	n/a	n/a	n/a
419717	STOP	n/a	LTP146	ltpFR	10	n/a	n/a	n/a	n/a	n/a	n/a	n/a	n/a	n/a	n/a	n/a	n/a	n/a	n/a	n/a	n/a
421961	WORD	wordpools/wasnorm_wordpool.txt	LTP146	ltpFR	10	2	1	SALESMAN	1225	n/a	n/a	1	n/a	0	0	0	0.422607421875	0.5869140625	0	lower	amplitud.ttf
424969	START	n/a	LTP146	ltpFR	10	n/a	n/a	n/a	n/a	n/a	n/a	n/a	n/a	n/a	n/a	n/a	n/a	n/a	n/a	n/a	n/a
425802	PROB	n/a	LTP146	ltpFR	10	n/a	n/a	n/a	n/a	n/a	n/a	n/a	14	3	5	6	n/a	n/a	n/a	n/a	n/a
427826	PROB	n/a	LTP146	ltpFR	10	n/a	n/a	n/a	n/a	n/a	n/a	n/a	13	2	5	6	n/a	n/a	n/a	n/a	n/a
429176	PROB	n/a	LTP146	ltpFR	10	n/a	n/a	n/a	n/a	n/a	n/a	n/a	17	7	6	4	n/a	n/a	n/a	n/a	n/a
430891	PROB	n/a	LTP146	ltpFR	10	n/a	n/a	n/a	n/a	n/a	n/a	n/a	8	5	2	1	n/a	n/a	n/a	n/a	n/a
431973	STOP	n/a	LTP146	ltpFR	10	n/a	n/a	n/a	n/a	n/a	n/a	n/a	n/a	n/a	n/a	n/a	n/a	n/a	n/a	n/a	n/a
434891	REC_START	n/a	LTP146	ltpFR	10	2	n/a	n/a	n/a	n/a	n/a	n/a	n/a	0	0	0	n/a	n/a	n/a	n/a	n/a
435460	REC_WORD	wordpools/wasnorm_wordpool.txt	LTP146	ltpFR	10	2	1	SALESMAN	1225	n/a	n/a	1	n/a	0	0	0	n/a	n/a	n/a	n/a	n/a
436642	REC_WORD	wordpools/wasnorm_wordpool.txt	LTP146	ltpFR	10	2	1	TREE	1502	n/a	n/a	1	n/a	0	0	0	n/a	n/a	n/a	n/a	n/a
438592	REC_WORD	wordpools/wasnorm_wordpool.txt	LTP146	ltpFR	10	2	1	STUMP	1396	n/a	n/a	1	n/a	0	0	0	n/a	n/a	n/a	n/a	n/a
439989	REC_WORD	wordpools/wasnorm_wordpool.txt	LTP146	ltpFR	10	2	1	CHEERLEADER	288	n/a	n/a	3	n/a	0	0	0	n/a	n/a	n/a	n/a	n/a
441511	REC_WORD	wordpools/wasnorm_wordpool.txt	LTP146	ltpFR	10	2	1	WOMAN	1620	n/a	n/a	1	n/a	0	0	0	n/a	n/a	n/a	n/a	n/a
442798	REC_WORD	wordpools/wasnorm_wordpool.txt	LTP146	ltpFR	10	2	1	COACH	331	n/a	n/a	1	n/a	0	0	0	n/a	n/a	n/a	n/a	n/a
453823	REC_WORD	wordpools/wasnorm_wordpool.txt	LTP146	ltpFR	10	2	1	HOE	711	n/a	n/a	0	n/a	0	0	0	n/a	n/a	n/a	n/a	n/a
465287	REC_WORD	wordpools/wasnorm_wordpool.txt	LTP146	ltpFR	10	2	0	STAIRS	1367	n/a	n/a	1	n/a	0	0	0	n/a	n/a	n/a	n/a	n/a
515886	START	n/a	LTP146	ltpFR	10	n/a	n/a	n/a	n/a	n/a	n/a	n/a	n/a	n/a	n/a	n/a	n/a	n/a	n/a	n/a	n/a
517387	PROB	n/a	LTP146	ltpFR	10	n/a	n/a	n/a	n/a	n/a	n/a	n/a	13	7	3	7	n/a	n/a	n/a	n/a	n/a
518603	PROB	n/a	LTP146	ltpFR	10	n/a	n/a	n/a	n/a	n/a	n/a	n/a	24	9	7	7	n/a	n/a	n/a	n/a	n/a
520452	PROB	n/a	LTP146	ltpFR	10	n/a	n/a	n/a	n/a	n/a	n/a	n/a	16	7	3	6	n/a	n/a	n/a	n/a	n/a
521701	PROB	n/a	LTP146	ltpFR	10	n/a	n/a	n/a	n/a	n/a	n/a	n/a	21	6	9	5	n/a	n/a	n/a	n/a	n/a
523185	PROB	n/a	LTP146	ltpFR	10	n/a	n/a	n/a	n/a	n/a	n/a	n/a	12	3	3	6	n/a	n/a	n/a	n/a	n/a
524484	PROB	n/a	LTP146	ltpFR	10	n/a	n/a	n/a	n/a	n/a	n/a	n/a	19	9	4	6	n/a	n/a	n/a	n/a	n/a
525958	PROB	n/a	LTP146	ltpFR	10	n/a	n/a	n/a	n/a	n/a	n/a	n/a	11	4	4	3	n/a	n/a	n/a	n/a	n/a
528773	PROB	n/a	LTP146	ltpFR	10	n/a	n/a	n/a	n/a	n/a	n/a	n/a	8	1	1	6	n/a	n/a	n/a	n/a	n/a
529881	PROB	n/a	LTP146	ltpFR	10	n/a	n/a	n/a	n/a	n/a	n/a	n/a	22	9	9	4	n/a	n/a	n/a	n/a	n/a
531438	STOP	n/a	LTP146	ltpFR	10	n/a	n/a	n/a	n/a	n/a	n/a	n/a	n/a	n/a	n/a	n/a	n/a	n/a	n/a	n/a	n/a
532755	WORD	wordpools/wasnorm_wordpool.txt	LTP146	ltpFR	10	3	1	TUBE	1516	n/a	n/a	1	n/a	0	0	0	0.422607421875	0.5869140625	0	lower	amplitud.ttf
535763	START	n/a	LTP146	ltpFR	10	n/a	n/a	n/a	n/a	n/a	n/a	n/a	n/a	n/a	n/a	n/a	n/a	n/a	n/a	n/a	n/a
536912	PROB	n/a	LTP146	ltpFR	10	n/a	n/a	n/a	n/a	n/a	n/a	n/a	9	4	3	2	n/a	n/a	n/a	n/a	n/a
538895	PROB	n/a	LTP146	ltpFR	10	n/a	n/a	n/a	n/a	n/a	n/a	n/a	21	8	9	4	n/a	n/a	n/a	n/a	n/a
540445	PROB	n/a	LTP146	ltpFR	10	n/a	n/a	n/a	n/a	n/a	n/a	n/a	18	6	6	6	n/a	n/a	n/a	n/a	n/a
541977	PROB	n/a	LTP146	ltpFR	10	n/a	n/a	n/a	n/a	n/a	n/a	n/a	16	3	7	6	n/a	n/a	n/a	n/a	n/a
543527	PROB	n/a	LTP146	ltpFR	10	n/a	n/a	n/a	n/a	n/a	n/a	n/a	17	2	6	9	n/a	n/a	n/a	n/a	n/a
545310	PROB	n/a	LTP146	ltpFR	10	n/a	n/a	n/a	n/a	n/a	n/a	n/a	14	4	6	4	n/a	n/a	n/a	n/a	n/a
547017	PROB	n/a	LTP146	ltpFR	10	n/a	n/a	n/a	n/a	n/a	n/a	n/a	19	7	9	3	n/a	n/a	n/a	n/a	n/a
548758	PROB	n/a	LTP146	ltpFR	10	n/a	n/a	n/a	n/a	n/a	n/a	n/a	14	5	1	8	n/a	n/a	n/a	n/a	n/a
550661	STOP	n/a	LTP146	ltpFR	10	n/a	n/a	n/a	n/a	n/a	n/a	n/a	n/a	n/a	n/a	n/a	n/a	n/a	n/a	n/a	n/a
552948	WORD	wordpools/wasnorm_wordpool.txt	LTP146	ltpFR	10	3	1	COFFIN	342	n/a	n/a	0	n/a	0	0	0	0.422607421875	0.5869140625	0	lower	amplitud.ttf
555956	START	n/a	LTP146	ltpFR	10	n/a	n/a	n/a	n/a	n/a	n/a	n/a	n/a	n/a	n/a	n/a	n/a	n/a	n/a	n/a	n/a
556797	PROB	n/a	LTP146	ltpFR	10	n/a	n/a	n/a	n/a	n/a	n/a	n/a	24	9	6	9	n/a	n/a	n/a	n/a	n/a
558746	PROB	n/a	LTP146	ltpFR	10	n/a	n/a	n/a	n/a	n/a	n/a	n/a	18	9	5	3	n/a	n/a	n/a	n/a	n/a
560630	PROB	n/a	LTP146	ltpFR	10	n/a	n/a	n/a	n/a	n/a	n/a	n/a	11	7	1	2	n/a	n/a	n/a	n/a	n/a
562129	PROB	n/a	LTP146	ltpFR	10	n/a	n/a	n/a	n/a	n/a	n/a	n/a	19	1	9	9	n/a	n/a	n/a	n/a	n/a
563711	PROB	n/a	LTP146	ltpFR	10	n/a	n/a	n/a	n/a	n/a	n/a	n/a	10	6	3	1	n/a	n/a	n/a	n/a	n/a
565178	PROB	n/a	LTP146	ltpFR	10	n/a	n/a	n/a	n/a	n/a	n/a	n/a	9	4	2	3	n/a	n/a	n/a	n/a	n/a
567585	PROB	n/a	LTP146	ltpFR	10	n/a	n/a	n/a	n/a	n/a	n/a	n/a	24	9	7	8	n/a	n/a	n/a	n/a	n/a
569800	PROB	n/a	LTP146	ltpFR	10	n/a	n/a	n/a	n/a	n/a	n/a	n/a	21	8	8	5	n/a	n/a	n/a	n/a	n/a
571606	STOP	n/a	LTP146	ltpFR	10	n/a	n/a	n/a	n/a	n/a	n/a	n/a	n/a	n/a	n/a	n/a	n/a	n/a	n/a	n/a	n/a
572816	WORD	wordpools/wasnorm_wordpool.txt	LTP146	ltpFR	10	3	1	VIOLIN	1571	n/a	n/a	0	n/a	0	0	0	0.422607421875	0.5869140625	0	lower	amplitud.ttf
575824	START	n/a	LTP146	ltpFR	10	n/a	n/a	n/a	n/a	n/a	n/a	n/a	n/a	n/a	n/a	n/a	n/a	n/a	n/a	n/a	n/a
576864	PROB	n/a	LTP146	ltpFR	10	n/a	n/a	n/a	n/a	n/a	n/a	n/a	10	4	4	2	n/a	n/a	n/a	n/a	n/a
578232	PROB	n/a	LTP146	ltpFR	10	n/a	n/a	n/a	n/a	n/a	n/a	n/a	13	3	8	2	n/a	n/a	n/a	n/a	n/a
579847	PROB	n/a	LTP146	ltpFR	10	n/a	n/a	n/a	n/a	n/a	n/a	n/a	8	4	1	3	n/a	n/a	n/a	n/a	n/a
581671	PROB	n/a	LTP146	ltpFR	10	n/a	n/a	n/a	n/a	n/a	n/a	n/a	18	7	3	8	n/a	n/a	n/a	n/a	n/a
583230	PROB	n/a	LTP146	ltpFR	10	n/a	n/a	n/a	n/a	n/a	n/a	n/a	15	2	4	9	n/a	n/a	n/a	n/a	n/a
585204	PROB	n/a	LTP146	ltpFR	10	n/a	n/a	n/a	n/a	n/a	n/a	n/a	18	8	2	8	n/a	n/a	n/a	n/a	n/a
586562	PROB	n/a	LTP146	ltpFR	10	n/a	n/a	n/a	n/a	n/a	n/a	n/a	22	9	4	9	n/a	n/a	n/a	n/a	n/a
588111	PROB	n/a	LTP146	ltpFR	10	n/a	n/a	n/a	n/a	n/a	n/a	n/a	20	6	5	9	n/a	n/a	n/a	n/a	n/a
590582	STOP	n/a	LTP146	ltpFR	10	n/a	n/a	n/a	n/a	n/a	n/a	n/a	n/a	n/a	n/a	n/a	n/a	n/a	n/a	n/a	n/a
592950	WORD	wordpools/wasnorm_wordpool.txt	LTP146	ltpFR	10	3	1	DUST	508	n/a	n/a	0	n/a	0	0	0	0.422607421875	0.5869140625	0	lower	amplitud.ttf
595958	START	n/a	LTP146	ltpFR	10	n/a	n/a	n/a	n/a	n/a	n/a	n/a	n/a	n/a	n/a	n/a	n/a	n/a	n/a	n/a	n/a
596857	PROB	n/a	LTP146	ltpFR	10	n/a	n/a	n/a	n/a	n/a	n/a	n/a	14	6	7	1	n/a	n/a	n/a	n/a	n/a
598283	PROB	n/a	LTP146	ltpFR	10	n/a	n/a	n/a	n/a	n/a	n/a	n/a	13	3	4	6	n/a	n/a	n/a	n/a	n/a
599731	PROB	n/a	LTP146	ltpFR	10	n/a	n/a	n/a	n/a	n/a	n/a	n/a	20	9	7	4	n/a	n/a	n/a	n/a	n/a
602963	PROB	n/a	LTP146	ltpFR	10	n/a	n/a	n/a	n/a	n/a	n/a	n/a	8	4	2	2	n/a	n/a	n/a	n/a	n/a
604189	PROB	n/a	LTP146	ltpFR	10	n/a	n/a	n/a	n/a	n/a	n/a	n/a	20	8	5	7	n/a	n/a	n/a	n/a	n/a
606263	PROB	n/a	LTP146	ltpFR	10	n/a	n/a	n/a	n/a	n/a	n/a	n/a	18	6	6	6	n/a	n/a	n/a	n/a	n/a
607621	PROB	n/a	LTP146	ltpFR	10	n/a	n/a	n/a	n/a	n/a	n/a	n/a	7	3	1	3	n/a	n/a	n/a	n/a	n/a
609179	PROB	n/a	LTP146	ltpFR	10	n/a	n/a	n/a	n/a	n/a	n/a	n/a	12	5	2	5	n/a	n/a	n/a	n/a	n/a
610494	STOP	n/a	LTP146	ltpFR	10	n/a	n/a	n/a	n/a	n/a	n/a	n/a	n/a	n/a	n/a	n/a	n/a	n/a	n/a	n/a	n/a
612960	WORD	wordpools/wasnorm_wordpool.txt	LTP146	ltpFR	10	3	0	ACROBAT	4	n/a	n/a	1	n/a	0	0	0	0.57763671875	0.412841796875	1	upper	zerothre.ttf
615968	START	n/a	LTP146	ltpFR	10	n/a	n/a	n/a	n/a	n/a	n/a	n/a	n/a	n/a	n/a	n/a	n/a	n/a	n/a	n/a	n/a
616792	PROB	n/a	LTP146	ltpFR	10	n/a	n/a	n/a	n/a	n/a	n/a	n/a	6	1	2	3	n/a	n/a	n/a	n/a	n/a
617833	PROB	n/a	LTP146	ltpFR	10	n/a	n/a	n/a	n/a	n/a	n/a	n/a	14	2	8	4	n/a	n/a	n/a	n/a	n/a
619359	PROB	n/a	LTP146	ltpFR	10	n/a	n/a	n/a	n/a	n/a	n/a	n/a	13	3	3	7	n/a	n/a	n/a	n/a	n/a
620665	PROB	n/a	LTP146	ltpFR	10	n/a	n/a	n/a	n/a	n/a	n/a	n/a	10	3	3	4	n/a	n/a	n/a	n/a	n/a
622549	PROB	n/a	LTP146	ltpFR	10	n/a	n/a	n/a	n/a	n/a	n/a	n/a	24	9	6	9	n/a	n/a	n/a	n/a	n/a
624490	PROB	n/a	LTP146	ltpFR	10	n/a	n/a	n/a	n/a	n/a	n/a	n/a	4	2	4	1	n/a	n/a	n/a	n/a	n/a
626373	PROB	n/a	LTP146	ltpFR	10	n/a	n/a	n/a	n/a	n/a	n/a	n/a	21	6	7	9	n/a	n/a	n/a	n/a	n/a
628688	PROB	n/a	LTP146	ltpFR	10	n/a	n/a	n/a	n/a	n/a	n/a	n/a	19	9	3	7	n/a	n/a	n/a	n/a	n/a
630037	PROB	n/a	LTP146	ltpFR	10	n/a	n/a	n/a	n/a	n/a	n/a	n/a	21	7	5	9	n/a	n/a	n/a	n/a	n/a
631941	STOP	n/a	LTP146	ltpFR	10	n/a	n/a	n/a	n/a	n/a	n/a	n/a	n/a	n/a	n/a	n/a	n/a	n/a	n/a	n/a	n/a
633112	WORD	wordpools/wasnorm_wordpool.txt	LTP146	ltpFR	10	3	0	RECORD	1176	n/a	n/a	1	n/a	0	0	0	0.57763671875	0.412841796875	1	upper	zerothre.ttf
636120	START	n/a	LTP146	ltpFR	10	n/a	n/a	n/a	n/a	n/a	n/a	n/a	n/a	n/a	n/a	n/a	n/a	n/a	n/a	n/a	n/a
636976	PROB	n/a	LTP146	ltpFR	10	n/a	n/a	n/a	n/a	n/a	n/a	n/a	10	7	1	2	n/a	n/a	n/a	n/a	n/a
638527	PROB	n/a	LTP146	ltpFR	10	n/a	n/a	n/a	n/a	n/a	n/a	n/a	14	3	5	6	n/a	n/a	n/a	n/a	n/a
640393	PROB	n/a	LTP146	ltpFR	10	n/a	n/a	n/a	n/a	n/a	n/a	n/a	15	2	6	7	n/a	n/a	n/a	n/a	n/a
642317	PROB	n/a	LTP146	ltpFR	10	n/a	n/a	n/a	n/a	n/a	n/a	n/a	13	1	8	4	n/a	n/a	n/a	n/a	n/a
644707	PROB	n/a	LTP146	ltpFR	10	n/a	n/a	n/a	n/a	n/a	n/a	n/a	13	6	1	6	n/a	n/a	n/a	n/a	n/a
646065	PROB	n/a	LTP146	ltpFR	10	n/a	n/a	n/a	n/a	n/a	n/a	n/a	12	6	2	4	n/a	n/a	n/a	n/a	n/a
647947	PROB	n/a	LTP146	ltpFR	10	n/a	n/a	n/a	n/a	n/a	n/a	n/a	16	6	9	1	n/a	n/a	n/a	n/a	n/a
649423	PROB	n/a	LTP146	ltpFR	10	n/a	n/a	n/a	n/a	n/a	n/a	n/a	12	1	5	6	n/a	n/a	n/a	n/a	n/a
651021	STOP	n/a	LTP146	ltpFR	10	n/a	n/a	n/a	n/a	n/a	n/a	n/a	n/a	n/a	n/a	n/a	n/a	n/a	n/a	n/a	n/a
653255	WORD	wordpools/wasnorm_wordpool.txt	LTP146	ltpFR	10	3	0	REEF	1177	n/a	n/a	0	n/a	0	0	0	0.57763671875	0.412841796875	1	upper	zerothre.ttf
656263	START	n/a	LTP146	ltpFR	10	n/a	n/a	n/a	n/a	n/a	n/a	n/a	n/a	n/a	n/a	n/a	n/a	n/a	n/a	n/a	n/a
657287	PROB	n/a	LTP146	ltpFR	10	n/a	n/a	n/a	n/a	n/a	n/a	n/a	9	4	4	1	n/a	n/a	n/a	n/a	n/a
658860	PROB	n/a	LTP146	ltpFR	10	n/a	n/a	n/a	n/a	n/a	n/a	n/a	16	7	5	4	n/a	n/a	n/a	n/a	n/a
660536	PROB	n/a	LTP146	ltpFR	10	n/a	n/a	n/a	n/a	n/a	n/a	n/a	14	5	8	1	n/a	n/a	n/a	n/a	n/a
661934	PROB	n/a	LTP146	ltpFR	10	n/a	n/a	n/a	n/a	n/a	n/a	n/a	14	4	4	6	n/a	n/a	n/a	n/a	n/a
663683	PROB	n/a	LTP146	ltpFR	10	n/a	n/a	n/a	n/a	n/a	n/a	n/a	6	1	2	3	n/a	n/a	n/a	n/a	n/a
664783	PROB	n/a	LTP146	ltpFR	10	n/a	n/a	n/a	n/a	n/a	n/a	n/a	14	3	2	9	n/a	n/a	n/a	n/a	n/a
666175	PROB	n/a	LTP146	ltpFR	10	n/a	n/a	n/a	n/a	n/a	n/a	n/a	18	8	3	7	n/a	n/a	n/a	n/a	n/a
667732	PROB	n/a	LTP146	ltpFR	10	n/a	n/a	n/a	n/a	n/a	n/a	n/a	13	7	3	3	n/a	n/a	n/a	n/a	n/a
669032	PROB	n/a	LTP146	ltpFR	10	n/a	n/a	n/a	n/a	n/a	n/a	n/a	7	2	1	4	n/a	n/a	n/a	n/a	n/a
670374	PROB	n/a	LTP146	ltpFR	10	n/a	n/a	n/a	n/a	n/a	n/a	n/a	18	9	8	1	n/a	n/a	n/a	n/a	n/a
671981	STOP	n/a	LTP146	ltpFR	10	n/a	n/a	n/a	n/a	n/a	n/a	n/a	n/a	n/a	n/a	n/a	n/a	n/a	n/a	n/a	n/a
673273	WORD	wordpools/wasnorm_wordpool.txt	LTP146	ltpFR	10	3	0	SLIME	1327	n/a	n/a	0	n/a	0	0	0	0.57763671875	0.412841796875	1	upper	zerothre.ttf
676280	START	n/a	LTP146	ltpFR	10	n/a	n/a	n/a	n/a	n/a	n/a	n/a	n/a	n/a	n/a	n/a	n/a	n/a	n/a	n/a	n/a
677396	PROB	n/a	LTP146	ltpFR	10	n/a	n/a	n/a	n/a	n/a	n/a	n/a	13	1	9	3	n/a	n/a	n/a	n/a	n/a
679346	PROB	n/a	LTP146	ltpFR	10	n/a	n/a	n/a	n/a	n/a	n/a	n/a	8	2	1	5	n/a	n/a	n/a	n/a	n/a
680620	PROB	n/a	LTP146	ltpFR	10	n/a	n/a	n/a	n/a	n/a	n/a	n/a	16	7	6	3	n/a	n/a	n/a	n/a	n/a
682461	PROB	n/a	LTP146	ltpFR	10	n/a	n/a	n/a	n/a	n/a	n/a	n/a	15	8	5	2	n/a	n/a	n/a	n/a	n/a
684610	PROB	n/a	LTP146	ltpFR	10	n/a	n/a	n/a	n/a	n/a	n/a	n/a	14	5	6	3	n/a	n/a	n/a	n/a	n/a
686151	PROB	n/a	LTP146	ltpFR	10	n/a	n/a	n/a	n/a	n/a	n/a	n/a	12	1	7	4	n/a	n/a	n/a	n/a	n/a
687658	PROB	n/a	LTP146	ltpFR	10	n/a	n/a	n/a	n/a	n/a	n/a	n/a	11	1	8	2	n/a	n/a	n/a	n/a	n/a
688908	PROB	n/a	LTP146	ltpFR	10	n/a	n/a	n/a	n/a	n/a	n/a	n/a	14	4	7	3	n/a	n/a	n/a	n/a	n/a
690625	PROB	n/a	LTP146	ltpFR	10	n/a	n/a	n/a	n/a	n/a	n/a	n/a	9	1	1	7	n/a	n/a	n/a	n/a	n/a
691805	STOP	n/a	LTP146	ltpFR	10	n/a	n/a	n/a	n/a	n/a	n/a	n/a	n/a	n/a	n/a	n/a	n/a	n/a	n/a	n/a	n/a
693482	WORD	wordpools/wasnorm_wordpool.txt	LTP146	ltpFR	10	3	1	WEED	1599	n/a	n/a	1	n/a	0	0	0	0.422607421875	0.5869140625	0	lower	amplitud.ttf
696490	START	n/a	LTP146	ltpFR	10	n/a	n/a	n/a	n/a	n/a	n/a	n/a	n/a	n/a	n/a	n/a	n/a	n/a	n/a	n/a	n/a
697646	PROB	n/a	LTP146	ltpFR	10	n/a	n/a	n/a	n/a	n/a	n/a	n/a	21	3	7	9	n/a	n/a	n/a	n/a	n/a
699522	PROB	n/a	LTP146	ltpFR	10	n/a	n/a	n/a	n/a	n/a	n/a	n/a	10	5	3	2	n/a	n/a	n/a	n/a	n/a
701687	PROB	n/a	LTP146	ltpFR	10	n/a	n/a	n/a	n/a	n/a	n/a	n/a	7	3	2	2	n/a	n/a	n/a	n/a	n/a
703137	PROB	n/a	LTP146	ltpFR	10	n/a	n/a	n/a	n/a	n/a	n/a	n/a	11	3	2	6	n/a	n/a	n/a	n/a	n/a
704478	PROB	n/a	LTP146	ltpFR	10	n/a	n/a	n/a	n/a	n/a	n/a	n/a	10	1	4	5	n/a	n/a	n/a	n/a	n/a
706469	PROB	n/a	LTP146	ltpFR	10	n/a	n/a	n/a	n/a	n/a	n/a	n/a	12	3	2	7	n/a	n/a	n/a	n/a	n/a
707834	PROB	n/a	LTP146	ltpFR	10	n/a	n/a	n/a	n/a	n/a	n/a	n/a	15	7	7	1	n/a	n/a	n/a	n/a	n/a
709160	PROB	n/a	LTP146	ltpFR	10	n/a	n/a	n/a	n/a	n/a	n/a	n/a	21	8	8	5	n/a	n/a	n/a	n/a	n/a
710692	PROB	n/a	LTP146	ltpFR	10	n/a	n/a	n/a	n/a	n/a	n/a	n/a	17	5	5	7	n/a	n/a	n/a	n/a	n/a
711901	STOP	n/a	LTP146	ltpFR	10	n/a	n/a	n/a	n/a	n/a	n/a	n/a	n/a	n/a	n/a	n/a	n/a	n/a	n/a	n/a	n/a
713408	WORD	wordpools/wasnorm_wordpool.txt	LTP146	ltpFR	10	3	1	STRANGER	1389	n/a	n/a	1	n/a	0	0	0	0.422607421875	0.5869140625	0	lower	amplitud.ttf
716416	START	n/a	LTP146	ltpFR	10	n/a	n/a	n/a	n/a	n/a	n/a	n/a	n/a	n/a	n/a	n/a	n/a	n/a	n/a	n/a	n/a
717265	PROB	n/a	LTP146	ltpFR	10	n/a	n/a	n/a	n/a	n/a	n/a	n/a	16	5	5	6	n/a	n/a	n/a	n/a	n/a
718440	PROB	n/a	LTP146	ltpFR	10	n/a	n/a	n/a	n/a	n/a	n/a	n/a	9	5	2	2	n/a	n/a	n/a	n/a	n/a
719738	PROB	n/a	LTP146	ltpFR	10	n/a	n/a	n/a	n/a	n/a	n/a	n/a	21	9	4	8	n/a	n/a	n/a	n/a	n/a
721447	PROB	n/a	LTP146	ltpFR	10	n/a	n/a	n/a	n/a	n/a	n/a	n/a	13	6	1	6	n/a	n/a	n/a	n/a	n/a
723213	PROB	n/a	LTP146	ltpFR	10	n/a	n/a	n/a	n/a	n/a	n/a	n/a	7	3	2	2	n/a	n/a	n/a	n/a	n/a
725204	PROB	n/a	LTP146	ltpFR	10	n/a	n/a	n/a	n/a	n/a	n/a	n/a	10	4	3	3	n/a	n/a	n/a	n/a	n/a
726794	PROB	n/a	LTP146	ltpFR	10	n/a	n/a	n/a	n/a	n/a	n/a	n/a	17	6	4	7	n/a	n/a	n/a	n/a	n/a
728286	PROB	n/a	LTP146	ltpFR	10	n/a	n/a	n/a	n/a	n/a	n/a	n/a	9	5	1	3	n/a	n/a	n/a	n/a	n/a
729860	PROB	n/a	LTP146	ltpFR	10	n/a	n/a	n/a	n/a	n/a	n/a	n/a	21	5	8	8	n/a	n/a	n/a	n/a	n/a
731174	STOP	n/a	LTP146	ltpFR	10	n/a	n/a	n/a	n/a	n/a	n/a	n/a	n/a	n/a	n/a	n/a	n/a	n/a	n/a	n/a	n/a
733285	WORD	wordpools/wasnorm_wordpool.txt	LTP146	ltpFR	10	3	0	MOTORCYCLE	923	n/a	n/a	1	n/a	0	0	0	0.57763671875	0.412841796875	1	upper	zerothre.ttf
736292	START	n/a	LTP146	ltpFR	10	n/a	n/a	n/a	n/a	n/a	n/a	n/a	n/a	n/a	n/a	n/a	n/a	n/a	n/a	n/a	n/a
737133	PROB	n/a	LTP146	ltpFR	10	n/a	n/a	n/a	n/a	n/a	n/a	n/a	18	7	9	2	n/a	n/a	n/a	n/a	n/a
738765	PROB	n/a	LTP146	ltpFR	10	n/a	n/a	n/a	n/a	n/a	n/a	n/a	14	5	1	8	n/a	n/a	n/a	n/a	n/a
740224	PROB	n/a	LTP146	ltpFR	10	n/a	n/a	n/a	n/a	n/a	n/a	n/a	10	6	2	2	n/a	n/a	n/a	n/a	n/a
742390	PROB	n/a	LTP146	ltpFR	10	n/a	n/a	n/a	n/a	n/a	n/a	n/a	6	1	2	3	n/a	n/a	n/a	n/a	n/a
743573	PROB	n/a	LTP146	ltpFR	10	n/a	n/a	n/a	n/a	n/a	n/a	n/a	16	7	8	1	n/a	n/a	n/a	n/a	n/a
745155	PROB	n/a	LTP146	ltpFR	10	n/a	n/a	n/a	n/a	n/a	n/a	n/a	14	8	2	4	n/a	n/a	n/a	n/a	n/a
746297	PROB	n/a	LTP146	ltpFR	10	n/a	n/a	n/a	n/a	n/a	n/a	n/a	17	6	9	2	n/a	n/a	n/a	n/a	n/a
747837	PROB	n/a	LTP146	ltpFR	10	n/a	n/a	n/a	n/a	n/a	n/a	n/a	18	5	5	8	n/a	n/a	n/a	n/a	n/a
749137	PROB	n/a	LTP146	ltpFR	10	n/a	n/a	n/a	n/a	n/a	n/a	n/a	16	3	7	6	n/a	n/a	n/a	n/a	n/a
750620	PROB	n/a	LTP146	ltpFR	10	n/a	n/a	n/a	n/a	n/a	n/a	n/a	18	6	8	4	n/a	n/a	n/a	n/a	n/a
752134	STOP	n/a	LTP146	ltpFR	10	n/a	n/a	n/a	n/a	n/a	n/a	n/a	n/a	n/a	n/a	n/a	n/a	n/a	n/a	n/a	n/a
753378	WORD	wordpools/wasnorm_wordpool.txt	LTP146	ltpFR	10	3	0	RACK	1154	n/a	n/a	1	n/a	0	0	0	0.57763671875	0.412841796875	1	upper	zerothre.ttf
756385	START	n/a	LTP146	ltpFR	10	n/a	n/a	n/a	n/a	n/a	n/a	n/a	n/a	n/a	n/a	n/a	n/a	n/a	n/a	n/a	n/a
757284	PROB	n/a	LTP146	ltpFR	10	n/a	n/a	n/a	n/a	n/a	n/a	n/a	19	7	8	4	n/a	n/a	n/a	n/a	n/a
759517	PROB	n/a	LTP146	ltpFR	10	n/a	n/a	n/a	n/a	n/a	n/a	n/a	14	3	9	2	n/a	n/a	n/a	n/a	n/a
761225	PROB	n/a	LTP146	ltpFR	10	n/a	n/a	n/a	n/a	n/a	n/a	n/a	10	6	1	3	n/a	n/a	n/a	n/a	n/a
762641	PROB	n/a	LTP146	ltpFR	10	n/a	n/a	n/a	n/a	n/a	n/a	n/a	14	5	7	1	n/a	n/a	n/a	n/a	n/a
764232	PROB	n/a	LTP146	ltpFR	10	n/a	n/a	n/a	n/a	n/a	n/a	n/a	18	5	6	7	n/a	n/a	n/a	n/a	n/a
765939	PROB	n/a	LTP146	ltpFR	10	n/a	n/a	n/a	n/a	n/a	n/a	n/a	9	2	3	4	n/a	n/a	n/a	n/a	n/a
767771	PROB	n/a	LTP146	ltpFR	10	n/a	n/a	n/a	n/a	n/a	n/a	n/a	21	9	5	7	n/a	n/a	n/a	n/a	n/a
769971	PROB	n/a	LTP146	ltpFR	10	n/a	n/a	n/a	n/a	n/a	n/a	n/a	12	5	5	2	n/a	n/a	n/a	n/a	n/a
771053	STOP	n/a	LTP146	ltpFR	10	n/a	n/a	n/a	n/a	n/a	n/a	n/a	n/a	n/a	n/a	n/a	n/a	n/a	n/a	n/a	n/a
773404	WORD	wordpools/wasnorm_wordpool.txt	LTP146	ltpFR	10	3	0	PAPER	1011	n/a	n/a	0	n/a	0	0	0	0.57763671875	0.412841796875	1	upper	zerothre.ttf
776411	START	n/a	LTP146	ltpFR	10	n/a	n/a	n/a	n/a	n/a	n/a	n/a	n/a	n/a	n/a	n/a	n/a	n/a	n/a	n/a	n/a
777236	PROB	n/a	LTP146	ltpFR	10	n/a	n/a	n/a	n/a	n/a	n/a	n/a	14	2	5	7	n/a	n/a	n/a	n/a	n/a
779042	PROB	n/a	LTP146	ltpFR	10	n/a	n/a	n/a	n/a	n/a	n/a	n/a	18	9	4	5	n/a	n/a	n/a	n/a	n/a
780643	PROB	n/a	LTP146	ltpFR	10	n/a	n/a	n/a	n/a	n/a	n/a	n/a	20	7	8	5	n/a	n/a	n/a	n/a	n/a
782592	PROB	n/a	LTP146	ltpFR	10	n/a	n/a	n/a	n/a	n/a	n/a	n/a	19	8	7	4	n/a	n/a	n/a	n/a	n/a
784074	PROB	n/a	LTP146	ltpFR	10	n/a	n/a	n/a	n/a	n/a	n/a	n/a	18	9	2	7	n/a	n/a	n/a	n/a	n/a
785673	PROB	n/a	LTP146	ltpFR	10	n/a	n/a	n/a	n/a	n/a	n/a	n/a	20	8	3	9	n/a	n/a	n/a	n/a	n/a
787931	PROB	n/a	LTP146	ltpFR	10	n/a	n/a	n/a	n/a	n/a	n/a	n/a	23	7	9	5	n/a	n/a	n/a	n/a	n/a
791214	STOP	n/a	LTP146	ltpFR	10	n/a	n/a	n/a	n/a	n/a	n/a	n/a	n/a	n/a	n/a	n/a	n/a	n/a	n/a	n/a	n/a
793305	WORD	wordpools/wasnorm_wordpool.txt	LTP146	ltpFR	10	3	0	NEWSSTAND	949	n/a	n/a	0	n/a	0	0	0	0.57763671875	0.412841796875	1	upper	zerothre.ttf
796313	START	n/a	LTP146	ltpFR	10	n/a	n/a	n/a	n/a	n/a	n/a	n/a	n/a	n/a	n/a	n/a	n/a	n/a	n/a	n/a	n/a
797154	PROB	n/a	LTP146	ltpFR	10	n/a	n/a	n/a	n/a	n/a	n/a	n/a	11	8	1	2	n/a	n/a	n/a	n/a	n/a
798869	PROB	n/a	LTP146	ltpFR	10	n/a	n/a	n/a	n/a	n/a	n/a	n/a	21	6	9	6	n/a	n/a	n/a	n/a	n/a
801043	PROB	n/a	LTP146	ltpFR	10	n/a	n/a	n/a	n/a	n/a	n/a	n/a	17	7	4	6	n/a	n/a	n/a	n/a	n/a
803084	PROB	n/a	LTP146	ltpFR	10	n/a	n/a	n/a	n/a	n/a	n/a	n/a	16	7	4	5	n/a	n/a	n/a	n/a	n/a
805126	PROB	n/a	LTP146	ltpFR	10	n/a	n/a	n/a	n/a	n/a	n/a	n/a	24	8	8	8	n/a	n/a	n/a	n/a	n/a
806625	PROB	n/a	LTP146	ltpFR	10	n/a	n/a	n/a	n/a	n/a	n/a	n/a	16	8	7	1	n/a	n/a	n/a	n/a	n/a
808040	PROB	n/a	LTP146	ltpFR	10	n/a	n/a	n/a	n/a	n/a	n/a	n/a	19	9	6	4	n/a	n/a	n/a	n/a	n/a
809748	PROB	n/a	LTP146	ltpFR	10	n/a	n/a	n/a	n/a	n/a	n/a	n/a	7	2	3	2	n/a	n/a	n/a	n/a	n/a
811582	STOP	n/a	LTP146	ltpFR	10	n/a	n/a	n/a	n/a	n/a	n/a	n/a	n/a	n/a	n/a	n/a	n/a	n/a	n/a	n/a	n/a
813365	WORD	wordpools/wasnorm_wordpool.txt	LTP146	ltpFR	10	3	1	CUB	419	n/a	n/a	0	n/a	0	0	0	0.422607421875	0.5869140625	0	lower	amplitud.ttf
816372	START	n/a	LTP146	ltpFR	10	n/a	n/a	n/a	n/a	n/a	n/a	n/a	n/a	n/a	n/a	n/a	n/a	n/a	n/a	n/a	n/a
817396	PROB	n/a	LTP146	ltpFR	10	n/a	n/a	n/a	n/a	n/a	n/a	n/a	13	6	5	2	n/a	n/a	n/a	n/a	n/a
819287	PROB	n/a	LTP146	ltpFR	10	n/a	n/a	n/a	n/a	n/a	n/a	n/a	19	3	9	7	n/a	n/a	n/a	n/a	n/a
821810	PROB	n/a	LTP146	ltpFR	10	n/a	n/a	n/a	n/a	n/a	n/a	n/a	13	6	2	5	n/a	n/a	n/a	n/a	n/a
824026	PROB	n/a	LTP146	ltpFR	10	n/a	n/a	n/a	n/a	n/a	n/a	n/a	16	3	7	6	n/a	n/a	n/a	n/a	n/a
825776	PROB	n/a	LTP146	ltpFR	10	n/a	n/a	n/a	n/a	n/a	n/a	n/a	12	9	1	2	n/a	n/a	n/a	n/a	n/a
827075	PROB	n/a	LTP146	ltpFR	10	n/a	n/a	n/a	n/a	n/a	n/a	n/a	15	2	8	5	n/a	n/a	n/a	n/a	n/a
828417	PROB	n/a	LTP146	ltpFR	10	n/a	n/a	n/a	n/a	n/a	n/a	n/a	7	1	2	4	n/a	n/a	n/a	n/a	n/a
829666	PROB	n/a	LTP146	ltpFR	10	n/a	n/a	n/a	n/a	n/a	n/a	n/a	12	2	6	4	n/a	n/a	n/a	n/a	n/a
832029	STOP	n/a	LTP146	ltpFR	10	n/a	n/a	n/a	n/a	n/a	n/a	n/a	n/a	n/a	n/a	n/a	n/a	n/a	n/a	n/a	n/a
833474	WORD	wordpools/wasnorm_wordpool.txt	LTP146	ltpFR	10	3	1	FOE	587	n/a	n/a	0	n/a	0	0	0	0.422607421875	0.5869140625	0	lower	amplitud.ttf
836481	START	n/a	LTP146	ltpFR	10	n/a	n/a	n/a	n/a	n/a	n/a	n/a	n/a	n/a	n/a	n/a	n/a	n/a	n/a	n/a	n/a
837356	PROB	n/a	LTP146	ltpFR	10	n/a	n/a	n/a	n/a	n/a	n/a	n/a	12	1	6	5	n/a	n/a	n/a	n/a	n/a
838631	PROB	n/a	LTP146	ltpFR	10	n/a	n/a	n/a	n/a	n/a	n/a	n/a	18	7	4	7	n/a	n/a	n/a	n/a	n/a
840012	PROB	n/a	LTP146	ltpFR	10	n/a	n/a	n/a	n/a	n/a	n/a	n/a	16	7	3	6	n/a	n/a	n/a	n/a	n/a
841446	PROB	n/a	LTP146	ltpFR	10	n/a	n/a	n/a	n/a	n/a	n/a	n/a	22	8	8	6	n/a	n/a	n/a	n/a	n/a
844187	PROB	n/a	LTP146	ltpFR	10	n/a	n/a	n/a	n/a	n/a	n/a	n/a	21	9	4	8	n/a	n/a	n/a	n/a	n/a
846111	PROB	n/a	LTP146	ltpFR	10	n/a	n/a	n/a	n/a	n/a	n/a	n/a	15	8	6	1	n/a	n/a	n/a	n/a	n/a
847710	PROB	n/a	LTP146	ltpFR	10	n/a	n/a	n/a	n/a	n/a	n/a	n/a	24	9	6	9	n/a	n/a	n/a	n/a	n/a
849535	PROB	n/a	LTP146	ltpFR	10	n/a	n/a	n/a	n/a	n/a	n/a	n/a	11	5	1	5	n/a	n/a	n/a	n/a	n/a
850783	PROB	n/a	LTP146	ltpFR	10	n/a	n/a	n/a	n/a	n/a	n/a	n/a	14	2	6	6	n/a	n/a	n/a	n/a	n/a
852422	STOP	n/a	LTP146	ltpFR	10	n/a	n/a	n/a	n/a	n/a	n/a	n/a	n/a	n/a	n/a	n/a	n/a	n/a	n/a	n/a	n/a
854209	REC_START	n/a	LTP146	ltpFR	10	3	n/a	n/a	n/a	n/a	n/a	n/a	n/a	0	0	0	n/a	n/a	n/a	n/a	n/a
854977	REC_WORD	wordpools/wasnorm_wordpool.txt	LTP146	ltpFR	10	3	1	FOE	587	n/a	n/a	0	n/a	0	0	0	n/a	n/a	n/a	n/a	n/a
857067	REC_WORD	wordpools/wasnorm_wordpool.txt	LTP146	ltpFR	10	3	1	HOE	711	n/a	n/a	0	n/a	0	0	0	n/a	n/a	n/a	n/a	n/a
859587	REC_WORD	wordpools/wasnorm_wordpool.txt	LTP146	ltpFR	10	3	1	DUST	508	n/a	n/a	0	n/a	0	0	0	n/a	n/a	n/a	n/a	n/a
861098	REC_WORD	wordpools/wasnorm_wordpool.txt	LTP146	ltpFR	10	3	0	ACROBAT	4	n/a	n/a	1	n/a	0	0	0	n/a	n/a	n/a	n/a	n/a
873779	REC_WORD	wordpools/wasnorm_wordpool.txt	LTP146	ltpFR	10	3	1	WEED	1599	n/a	n/a	1	n/a	0	0	0	n/a	n/a	n/a	n/a	n/a
878124	REC_WORD	wordpools/wasnorm_wordpool.txt	LTP146	ltpFR	10	3	n/a	SMOKE	-1	n/a	n/a	n/a	n/a	0	0	0	n/a	n/a	n/a	n/a	n/a
955555	WORD	wordpools/wasnorm_wordpool.txt	LTP146	ltpFR	10	4	0	FIST	572	n/a	n/a	1	n/a	0	0	0	0.57763671875	0.412841796875	1	upper	zerothre.ttf
959686	WORD	wordpools/wasnorm_wordpool.txt	LTP146	ltpFR	10	4	0	CAFETERIA	217	n/a	n/a	0	n/a	0	0	0	0.57763671875	0.412841796875	1	upper	zerothre.ttf
963743	WORD	wordpools/wasnorm_wordpool.txt	LTP146	ltpFR	10	4	0	COOKBOOK	373	n/a	n/a	0	n/a	0	0	0	0.57763671875	0.412841796875	1	upper	zerothre.ttf
967892	WORD	wordpools/wasnorm_wordpool.txt	LTP146	ltpFR	10	4	0	DAISY	435	n/a	n/a	0	n/a	0	0	0	0.57763671875	0.412841796875	1	upper	zerothre.ttf
971724	WORD	wordpools/wasnorm_wordpool.txt	LTP146	ltpFR	10	4	1	BAKER	71	n/a	n/a	1	n/a	0	0	0	0.422607421875	0.5869140625	0	lower	amplitud.ttf
975714	WORD	wordpools/wasnorm_wordpool.txt	LTP146	ltpFR	10	4	1	CHERRY	293	n/a	n/a	1	n/a	0	0	0	0.422607421875	0.5869140625	0	lower	amplitud.ttf
979605	WORD	wordpools/wasnorm_wordpool.txt	LTP146	ltpFR	10	4	1	FAUCET	555	n/a	n/a	0	n/a	0	0	0	0.422607421875	0.5869140625	0	lower	amplitud.ttf
983537	WORD	wordpools/wasnorm_wordpool.txt	LTP146	ltpFR	10	4	1	COUSIN	392	n/a	n/a	0	n/a	0	0	0	0.422607421875	0.5869140625	0	lower	amplitud.ttf
987377	WORD	wordpools/wasnorm_wordpool.txt	LTP146	ltpFR	10	4	0	FAMILY	550	n/a	n/a	1	n/a	0	0	0	0.57763671875	0.412841796875	1	upper	zerothre.ttf
991251	WORD	wordpools/wasnorm_wordpool.txt	LTP146	ltpFR	10	4	0	DUMP	505	n/a	n/a	0	n/a	0	0	0	0.57763671875	0.412841796875	1	upper	zerothre.ttf
995450	WORD	wordpools/wasnorm_wordpool.txt	LTP146	ltpFR	10	4	0	OAR	966	n/a	n/a	0	n/a	0	0	0	0.57763671875	0.412841796875	1	upper	zerothre.ttf
999448	WORD	wordpools/wasnorm_wordpool.txt	LTP146	ltpFR	10	4	0	MEADOW	881	n/a	n/a	0	n/a	0	0	0	0.57763671875	0.412841796875	1	upper	zerothre.ttf
1003597	WORD	wordpools/wasnorm_wordpool.txt	LTP146	ltpFR	10	4	1	TRASH	1497	n/a	n/a	0	n/a	0	0	0	0.422607421875	0.5869140625	0	lower	amplitud.ttf
1007462	WORD	wordpools/wasnorm_wordpool.txt	LTP146	ltpFR	10	4	1	ELK	526	n/a	n/a	1	n/a	0	0	0	0.422607421875	0.5869140625	0	lower	amplitud.ttf
1011460	WORD	wordpools/wasnorm_wordpool.txt	LTP146	ltpFR	10	4	1	SIDEWALK	1303	n/a	n/a	0	n/a	0	0	0	0.422607421875	0.5869140625	0	lower	amplitud.ttf
1015276	WORD	wordpools/wasnorm_wordpool.txt	LTP146	ltpFR	10	4	1	EGYPT	519	n/a	n/a	1	n/a	0	0	0	0.422607421875	0.5869140625	0	lower	amplitud.ttf
1021116	REC_START	n/a	LTP146	ltpFR	10	4	n/a	n/a	n/a	n/a	n/a	n/a	n/a	0	0	0	n/a	n/a	n/a	n/a	n/a
1022054	REC_WORD	wordpools/wasnorm_wordpool.txt	LTP146	ltpFR	10	4	1	EGYPT	519	n/a	n/a	1	n/a	0	0	0	n/a	n/a	n/a	n/a	n/a
1022837	REC_WORD	wordpools/wasnorm_wordpool.txt	LTP146	ltpFR	10	4	1	SIDEWALK	1303	n/a	n/a	0	n/a	0	0	0	n/a	n/a	n/a	n/a	n/a
1023989	REC_WORD	wordpools/wasnorm_wordpool.txt	LTP146	ltpFR	10	4	1	TRASH	1497	n/a	n/a	0	n/a	0	0	0	n/a	n/a	n/a	n/a	n/a
1025226	REC_WORD	wordpools/wasnorm_wordpool.txt	LTP146	ltpFR	10	4	0	DUMP	505	n/a	n/a	0	n/a	0	0	0	n/a	n/a	n/a	n/a	n/a
1026434	REC_WORD	wordpools/wasnorm_wordpool.txt	LTP146	ltpFR	10	4	0	OAR	966	n/a	n/a	0	n/a	0	0	0	n/a	n/a	n/a	n/a	n/a
1027945	REC_WORD	wordpools/wasnorm_wordpool.txt	LTP146	ltpFR	10	4	0	FAMILY	550	n/a	n/a	1	n/a	0	0	0	n/a	n/a	n/a	n/a	n/a
1029552	REC_WORD	wordpools/wasnorm_wordpool.txt	LTP146	ltpFR	10	4	1	CHERRY	293	n/a	n/a	1	n/a	0	0	0	n/a	n/a	n/a	n/a	n/a
1031313	REC_WORD	wordpools/wasnorm_wordpool.txt	LTP146	ltpFR	10	4	1	BAKER	71	n/a	n/a	1	n/a	0	0	0	n/a	n/a	n/a	n/a	n/a
1036865	REC_WORD	wordpools/wasnorm_wordpool.txt	LTP146	ltpFR	10	4	1	FAUCET	555	n/a	n/a	0	n/a	0	0	0	n/a	n/a	n/a	n/a	n/a
1039818	REC_WORD	wordpools/wasnorm_wordpool.txt	LTP146	ltpFR	10	4	1	COUSIN	392	n/a	n/a	0	n/a	0	0	0	n/a	n/a	n/a	n/a	n/a
1069157	REC_WORD	wordpools/wasnorm_wordpool.txt	LTP146	ltpFR	10	4	0	FAMILY	550	n/a	n/a	1	n/a	0	0	0	n/a	n/a	n/a	n/a	n/a
1070259	REC_WORD	wordpools/wasnorm_wordpool.txt	LTP146	ltpFR	10	4	1	SIDEWALK	1303	n/a	n/a	0	n/a	0	0	0	n/a	n/a	n/a	n/a	n/a
1111940	WORD	wordpools/wasnorm_wordpool.txt	LTP146	ltpFR	10	5	1	GANGSTER	620	n/a	n/a	1	n/a	0	0	0	0.422607421875	0.5869140625	0	lower	amplitud.ttf
1116055	WORD	wordpools/wasnorm_wordpool.txt	LTP146	ltpFR	10	5	1	PEOPLE	1046	n/a	n/a	1	n/a	0	0	0	0.422607421875	0.5869140625	0	lower	amplitud.ttf
1120197	WORD	wordpools/wasnorm_wordpool.txt	LTP146	ltpFR	10	5	1	SPATULA	1348	n/a	n/a	0	n/a	0	0	0	0.422607421875	0.5869140625	0	lower	amplitud.ttf
1124129	WORD	wordpools/wasnorm_wordpool.txt	LTP146	ltpFR	10	5	1	SILVERWARE	1308	n/a	n/a	0	n/a	0	0	0	0.422607421875	0.5869140625	0	lower	amplitud.ttf
1128111	WORD	wordpools/wasnorm_wordpool.txt	LTP146	ltpFR	10	5	1	LION	827	n/a	n/a	1	n/a	0	0	0	0.422607421875	0.5869140625	0	lower	amplitud.ttf
1132259	WORD	wordpools/wasnorm_wordpool.txt	LTP146	ltpFR	10	5	1	DRYER	503	n/a	n/a	0	n/a	0	0	0	0.422607421875	0.5869140625	0	lower	amplitud.ttf
1136124	WORD	wordpools/wasnorm_wordpool.txt	LTP146	ltpFR	10	5	1	SLIDE	1326	n/a	n/a	0	n/a	0	0	0	0.422607421875	0.5869140625	0	lower	amplitud.ttf
1140340	WORD	wordpools/wasnorm_wordpool.txt	LTP146	ltpFR	10	5	1	PENGUIN	1044	n/a	n/a	1	n/a	0	0	0	0.422607421875	0.5869140625	0	lower	amplitud.ttf
1144230	WORD	wordpools/wasnorm_wordpool.txt	LTP146	ltpFR	10	5	1	COD	340	n/a	n/a	1	n/a	0	0	0	0.422607421875	0.5869140625	0	lower	amplitud.ttf
1148312	WORD	wordpools/wasnorm_wordpool.txt	LTP146	ltpFR	10	5	1	SALAD	1224	n/a	n/a	0	n/a	0	0	0	0.422607421875	0.5869140625	0	lower	amplitud.ttf
1152477	WORD	wordpools/wasnorm_wordpool.txt	LTP146	ltpFR	10	5	1	CARAVAN	242	n/a	n/a	0	n/a	0	0	0	0.422607421875	0.5869140625	0	lower	amplitud.ttf
1156634	WORD	wordpools/wasnorm_wordpool.txt	LTP146	ltpFR	10	5	1	COMB	351	n/a	n/a	0	n/a	0	0	0	0.422607421875	0.5869140625	0	lower	amplitud.ttf
1160656	WORD	wordpools/wasnorm_wordpool.txt	LTP146	ltpFR	10	5	1	TUNA	1518	n/a	n/a	0	n/a	0	0	0	0.422607421875	0.5869140625	0	lower	amplitud.ttf
1164514	WORD	wordpools/wasnorm_wordpool.txt	LTP146	ltpFR	10	5	1	CHECKERS	285	n/a	n/a	1	n/a	0	0	0	0.422607421875	0.5869140625	0	lower	amplitud.ttf
1168421	WORD	wordpools/wasnorm_wordpool.txt	LTP146	ltpFR	10	5	1	TEAM	1441	n/a	n/a	1	n/a	0	0	0	0.422607421875	0.5869140625	0	lower	amplitud.ttf
1172312	WORD	wordpools/wasnorm_wordpool.txt	LTP146	ltpFR	10	5	1	CHICKEN	297	n/a	n/a	1	n/a	0	0	0	0.422607421875	0.5869140625	0	lower	amplitud.ttf
1175319	START	n/a	LTP146	ltpFR	10	n/a	n/a	n/a	n/a	n/a	n/a	n/a	n/a	n/a	n/a	n/a	n/a	n/a	n/a	n/a	n/a
1176477	PROB	n/a	LTP146	ltpFR	10	n/a	n/a	n/a	n/a	n/a	n/a	n/a	19	7	7	5	n/a	n/a	n/a	n/a	n/a
1178259	PROB	n/a	LTP146	ltpFR	10	n/a	n/a	n/a	n/a	n/a	n/a	n/a	11	4	6	1	n/a	n/a	n/a	n/a	n/a
1179609	PROB	n/a	LTP146	ltpFR	10	n/a	n/a	n/a	n/a	n/a	n/a	n/a	11	4	2	5	n/a	n/a	n/a	n/a	n/a
1181433	PROB	n/a	LTP146	ltpFR	10	n/a	n/a	n/a	n/a	n/a	n/a	n/a	13	6	1	5	n/a	n/a	n/a	n/a	n/a
1183082	PROB	n/a	LTP146	ltpFR	10	n/a	n/a	n/a	n/a	n/a	n/a	n/a	9	1	6	2	n/a	n/a	n/a	n/a	n/a
1184441	PROB	n/a	LTP146	ltpFR	10	n/a	n/a	n/a	n/a	n/a	n/a	n/a	20	8	7	5	n/a	n/a	n/a	n/a	n/a
1185864	PROB	n/a	LTP146	ltpFR	10	n/a	n/a	n/a	n/a	n/a	n/a	n/a	15	7	3	5	n/a	n/a	n/a	n/a	n/a
1187014	PROB	n/a	LTP146	ltpFR	10	n/a	n/a	n/a	n/a	n/a	n/a	n/a	18	4	7	7	n/a	n/a	n/a	n/a	n/a
1188464	PROB	n/a	LTP146	ltpFR	10	n/a	n/a	n/a	n/a	n/a	n/a	n/a	13	6	3	4	n/a	n/a	n/a	n/a	n/a
1189893	STOP	n/a	LTP146	ltpFR	10	n/a	n/a	n/a	n/a	n/a	n/a	n/a	n/a	n/a	n/a	n/a	n/a	n/a	n/a	n/a	n/a
1193180	REC_START	n/a	LTP146	ltpFR	10	5	n/a	n/a	n/a	n/a	n/a	n/a	n/a	0	0	0	n/a	n/a	n/a	n/a	n/a
1194557	REC_WORD	wordpools/wasnorm_wordpool.txt	LTP146	ltpFR	10	5	1	CHECKERS	285	n/a	n/a	1	n/a	0	0	0	n/a	n/a	n/a	n/a	n/a
1195839	REC_WORD	wordpools/wasnorm_wordpool.txt	LTP146	ltpFR	10	5	1	TEAM	1441	n/a	n/a	1	n/a	0	0	0	n/a	n/a	n/a	n/a	n/a
1197550	REC_WORD	wordpools/wasnorm_wordpool.txt	LTP146	ltpFR	10	5	1	LION	827	n/a	n/a	1	n/a	0	0	0	n/a	n/a	n/a	n/a	n/a
1199051	REC_WORD	wordpools/wasnorm_wordpool.txt	LTP146	ltpFR	10	5	1	DRYER	503	n/a	n/a	0	n/a	0	0	0	n/a	n/a	n/a	n/a	n/a
1200558	REC_WORD	wordpools/wasnorm_wordpool.txt	LTP146	ltpFR	10	5	1	PENGUIN	1044	n/a	n/a	1	n/a	0	0	0	n/a	n/a	n/a	n/a	n/a
1201968	REC_WORD	wordpools/wasnorm_wordpool.txt	LTP146	ltpFR	10	5	1	SLIDE	1326	n/a	n/a	0	n/a	0	0	0	n/a	n/a	n/a	n/a	n/a
1205881	REC_WORD	wordpools/wasnorm_wordpool.txt	LTP146	ltpFR	10	5	1	COD	340	n/a	n/a	1	n/a	0	0	0	n/a	n/a	n/a	n/a	n/a
1207013	REC_WORD	wordpools/wasnorm_wordpool.txt	LTP146	ltpFR	10	5	1	SALAD	1224	n/a	n/a	0	n/a	0	0	0	n/a	n/a	n/a	n/a	n/a
1216073	REC_WORD	wordpools/wasnorm_wordpool.txt	LTP146	ltpFR	10	5	1	GANGSTER	620	n/a	n/a	1	n/a	0	0	0	n/a	n/a	n/a	n/a	n/a
1217764	REC_WORD	wordpools/wasnorm_wordpool.txt	LTP146	ltpFR	10	5	1	SPATULA	1348	n/a	n/a	0	n/a	0	0	0	n/a	n/a	n/a	n/a	n/a
1219520	REC_WORD	wordpools/wasnorm_wordpool.txt	LTP146	ltpFR	10	5	1	PEOPLE	1046	n/a	n/a	1	n/a	0	0	0	n/a	n/a	n/a	n/a	n/a
1220872	REC_WORD	wordpools/wasnorm_wordpool.txt	LTP146	ltpFR	10	5	1	SILVERWARE	1308	n/a	n/a	0	n/a	0	0	0	n/a	n/a	n/a	n/a	n/a
1240642	REC_WORD	wordpools/wasnorm_wordpool.txt	LTP146	ltpFR	10	5	1	PENGUIN	1044	n/a	n/a	1	n/a	0	0	0	n/a	n/a	n/a	n/a	n/a
1241645	REC_WORD	wordpools/wasnorm_wordpool.txt	LTP146	ltpFR	10	5	1	SLIDE	1326	n/a	n/a	0	n/a	0	0	0	n/a	n/a	n/a	n/a	n/a
1251398	REC_WORD	wordpools/wasnorm_wordpool.txt	LTP146	ltpFR	10	5	n/a	MEDAL	885	n/a	n/a	n/a	n/a	0	0	0	n/a	n/a	n/a	n/a	n/a
1284197	WORD	wordpools/wasnorm_wordpool.txt	LTP146	ltpFR	10	6	1	SEAFOOD	1260	n/a	n/a	1	n/a	0	0	0	0.422607421875	0.5869140625	0	lower	amplitud.ttf
1288345	WORD	wordpools/wasnorm_wordpool.txt	LTP146	ltpFR	10	6	1	QUEEN	1149	n/a	n/a	0	n/a	0	0	0	0.422607421875	0.5869140625	0	lower	amplitud.ttf
1292210	WORD	wordpools/wasnorm_wordpool.txt	LTP146	ltpFR	10	6	1	FLANNEL	574	n/a	n/a	0	n/a	0	0	0	0.422607421875	0.5869140625	0	lower	amplitud.ttf
1296401	WORD	wordpools/wasnorm_wordpool.txt	LTP146	ltpFR	10	6	1	TUXEDO	1525	n/a	n/a	0	n/a	0	0	0	0.422607421875	0.5869140625	0	lower	amplitud.ttf
1300507	WORD	wordpools/wasnorm_wordpool.txt	LTP146	ltpFR	10	6	0	SKIRT	1319	n/a	n/a	1	n/a	0	0	0	0.57763671875	0.412841796875	1	upper	zerothre.ttf
1304598	WORD	wordpools/wasnorm_wordpool.txt	LTP146	ltpFR	10	6	0	SQUID	1361	n/a	n/a	1	n/a	0	0	0	0.57763671875	0.412841796875	1	upper	zerothre.ttf
1308563	WORD	wordpools/wasnorm_wordpool.txt	LTP146	ltpFR	10	6	0	VESSEL	1558	n/a	n/a	0	n/a	0	0	0	0.57763671875	0.412841796875	1	upper	zerothre.ttf
1312536	WORD	wordpools/wasnorm_wordpool.txt	LTP146	ltpFR	10	6	0	COMEDIAN	352	n/a	n/a	1	n/a	0	0	0	0.57763671875	0.412841796875	1	upper	zerothre.ttf
1316568	WORD	wordpools/wasnorm_wordpool.txt	LTP146	ltpFR	10	6	1	DISC	473	n/a	n/a	0	n/a	0	0	0	0.422607421875	0.5869140625	0	lower	amplitud.ttf
1320500	WORD	wordpools/wasnorm_wordpool.txt	LTP146	ltpFR	10	6	1	ENGINEER	536	n/a	n/a	1	n/a	0	0	0	0.422607421875	0.5869140625	0	lower	amplitud.ttf
1324324	WORD	wordpools/wasnorm_wordpool.txt	LTP146	ltpFR	10	6	1	WOLF	1619	n/a	n/a	1	n/a	0	0	0	0.422607421875	0.5869140625	0	lower	amplitud.ttf
1328364	WORD	wordpools/wasnorm_wordpool.txt	LTP146	ltpFR	10	6	1	RACCOON	1153	n/a	n/a	1	n/a	0	0	0	0.422607421875	0.5869140625	0	lower	amplitud.ttf
1332288	WORD	wordpools/wasnorm_wordpool.txt	LTP146	ltpFR	10	6	0	JUGGLER	763	n/a	n/a	1	n/a	0	0	0	0.57763671875	0.412841796875	1	upper	zerothre.ttf
1336178	WORD	wordpools/wasnorm_wordpool.txt	LTP146	ltpFR	10	6	0	RULER	1216	n/a	n/a	1	n/a	0	0	0	0.57763671875	0.412841796875	1	upper	zerothre.ttf
1340352	WORD	wordpools/wasnorm_wordpool.txt	LTP146	ltpFR	10	6	0	MAILMAN	858	n/a	n/a	1	n/a	0	0	0	0.57763671875	0.412841796875	1	upper	zerothre.ttf
1344525	WORD	wordpools/wasnorm_wordpool.txt	LTP146	ltpFR	10	6	0	MUG	930	n/a	n/a	0	n/a	0	0	0	0.57763671875	0.412841796875	1	upper	zerothre.ttf
1347533	START	n/a	LTP146	ltpFR	10	n/a	n/a	n/a	n/a	n/a	n/a	n/a	n/a	n/a	n/a	n/a	n/a	n/a	n/a	n/a	n/a
1348465	PROB	n/a	LTP146	ltpFR	10	n/a	n/a	n/a	n/a	n/a	n/a	n/a	23	8	6	9	n/a	n/a	n/a	n/a	n/a
1351123	PROB	n/a	LTP146	ltpFR	10	n/a	n/a	n/a	n/a	n/a	n/a	n/a	12	3	7	2	n/a	n/a	n/a	n/a	n/a
1352564	PROB	n/a	LTP146	ltpFR	10	n/a	n/a	n/a	n/a	n/a	n/a	n/a	15	3	7	6	n/a	n/a	n/a	n/a	n/a
1355533	STOP	n/a	LTP146	ltpFR	10	n/a	n/a	n/a	n/a	n/a	n/a	n/a	n/a	n/a	n/a	n/a	n/a	n/a	n/a	n/a	n/a
1357405	REC_START	n/a	LTP146	ltpFR	10	6	n/a	n/a	n/a	n/a	n/a	n/a	n/a	0	0	0	n/a	n/a	n/a	n/a	n/a
1357959	REC_WORD	wordpools/wasnorm_wordpool.txt	LTP146	ltpFR	10	6	0	MAILMAN	858	n/a	n/a	1	n/a	0	0	0	n/a	n/a	n/a	n/a	n/a
1359056	REC_WORD	wordpools/wasnorm_wordpool.txt	LTP146	ltpFR	10	6	0	MUG	930	n/a	n/a	0	n/a	0	0	0	n/a	n/a	n/a	n/a	n/a
1360757	REC_WORD	wordpools/wasnorm_wordpool.txt	LTP146	ltpFR	10	6	1	QUEEN	1149	n/a	n/a	0	n/a	0	0	0	n/a	n/a	n/a	n/a	n/a
1365282	REC_WORD	wordpools/wasnorm_wordpool.txt	LTP146	ltpFR	10	6	1	RACCOON	1153	n/a	n/a	1	n/a	0	0	0	n/a	n/a	n/a	n/a	n/a
1370046	REC_WORD	wordpools/wasnorm_wordpool.txt	LTP146	ltpFR	10	6	1	ENGINEER	536	n/a	n/a	1	n/a	0	0	0	n/a	n/a	n/a	n/a	n/a
1371538	REC_WORD	wordpools/wasnorm_wordpool.txt	LTP146	ltpFR	10	6	1	WOLF	1619	n/a	n/a	1	n/a	0	0	0	n/a	n/a	n/a	n/a	n/a
1372805	REC_WORD	wordpools/wasnorm_wordpool.txt	LTP146	ltpFR	10	6	0	VESSEL	1558	n/a	n/a	0	n/a	0	0	0	n/a	n/a	n/a	n/a	n/a
1375663	REC_WORD	wordpools/wasnorm_wordpool.txt	LTP146	ltpFR	10	6	1	SEAFOOD	1260	n/a	n/a	1	n/a	0	0	0	n/a	n/a	n/a	n/a	n/a
1377185	REC_WORD	wordpools/wasnorm_wordpool.txt	LTP146	ltpFR	10	6	0	SQUID	1361	n/a	n/a	1	n/a	0	0	0	n/a	n/a	n/a	n/a	n/a
1380053	REC_WORD	wordpools/wasnorm_wordpool.txt	LTP146	ltpFR	10	6	1	QUEEN	1149	n/a	n/a	0	n/a	0	0	0	n/a	n/a	n/a	n/a	n/a
1380996	REC_WORD	wordpools/wasnorm_wordpool.txt	LTP146	ltpFR	10	6	0	SKIRT	1319	n/a	n/a	1	n/a	0	0	0	n/a	n/a	n/a	n/a	n/a
1400392	REC_WORD	wordpools/wasnorm_wordpool.txt	LTP146	ltpFR	10	6	n/a	LEADER	807	n/a	n/a	n/a	n/a	0	0	0	n/a	n/a	n/a	n/a	n/a
1404702	REC_WORD	wordpools/wasnorm_wordpool.txt	LTP146	ltpFR	10	6	n/a	NOBLE	-1	n/a	n/a	n/a	n/a	0	0	0	n/a	n/a	n/a	n/a	n/a
1448054	START	n/a	LTP146	ltpFR	10	n/a	n/a	n/a	n/a	n/a	n/a	n/a	n/a	n/a	n/a	n/a	n/a	n/a	n/a	n/a	n/a
1449563	PROB	n/a	LTP146	ltpFR	10	n/a	n/a	n/a	n/a	n/a	n/a	n/a	19	8	9	2	n/a	n/a	n/a	n/a	n/a
1452378	PROB	n/a	LTP146	ltpFR	10	n/a	n/a	n/a	n/a	n/a	n/a	n/a	19	6	6	8	n/a	n/a	n/a	n/a	n/a
1454103	PROB	n/a	LTP146	ltpFR	10	n/a	n/a	n/a	n/a	n/a	n/a	n/a	9	2	3	4	n/a	n/a	n/a	n/a	n/a
1455877	STOP	n/a	LTP146	ltpFR	10	n/a	n/a	n/a	n/a	n/a	n/a	n/a	n/a	n/a	n/a	n/a	n/a	n/a	n/a	n/a	n/a
1456909	WORD	wordpools/wasnorm_wordpool.txt	LTP146	ltpFR	10	7	1	BUILDING	191	n/a	n/a	0	n/a	0	0	0	0.422607421875	0.5869140625	0	lower	amplitud.ttf
1459917	START	n/a	LTP146	ltpFR	10	n/a	n/a	n/a	n/a	n/a	n/a	n/a	n/a	n/a	n/a	n/a	n/a	n/a	n/a	n/a	n/a
1461008	PROB	n/a	LTP146	ltpFR	10	n/a	n/a	n/a	n/a	n/a	n/a	n/a	19	6	8	5	n/a	n/a	n/a	n/a	n/a
1462740	PROB	n/a	LTP146	ltpFR	10	n/a	n/a	n/a	n/a	n/a	n/a	n/a	24	7	9	7	n/a	n/a	n/a	n/a	n/a
1464399	PROB	n/a	LTP146	ltpFR	10	n/a	n/a	n/a	n/a	n/a	n/a	n/a	14	8	1	5	n/a	n/a	n/a	n/a	n/a
1467917	STOP	n/a	LTP146	ltpFR	10	n/a	n/a	n/a	n/a	n/a	n/a	n/a	n/a	n/a	n/a	n/a	n/a	n/a	n/a	n/a	n/a
1468746	WORD	wordpools/wasnorm_wordpool.txt	LTP146	ltpFR	10	7	1	TWEEZERS	1526	n/a	n/a	0	n/a	0	0	0	0.422607421875	0.5869140625	0	lower	amplitud.ttf
1471754	START	n/a	LTP146	ltpFR	10	n/a	n/a	n/a	n/a	n/a	n/a	n/a	n/a	n/a	n/a	n/a	n/a	n/a	n/a	n/a	n/a
1472653	PROB	n/a	LTP146	ltpFR	10	n/a	n/a	n/a	n/a	n/a	n/a	n/a	16	6	5	5	n/a	n/a	n/a	n/a	n/a
1473853	PROB	n/a	LTP146	ltpFR	10	n/a	n/a	n/a	n/a	n/a	n/a	n/a	10	3	3	4	n/a	n/a	n/a	n/a	n/a
1475677	PROB	n/a	LTP146	ltpFR	10	n/a	n/a	n/a	n/a	n/a	n/a	n/a	21	9	7	5	n/a	n/a	n/a	n/a	n/a
1478278	STOP	n/a	LTP146	ltpFR	10	n/a	n/a	n/a	n/a	n/a	n/a	n/a	n/a	n/a	n/a	n/a	n/a	n/a	n/a	n/a	n/a
1480884	WORD	wordpools/wasnorm_wordpool.txt	LTP146	ltpFR	10	7	0	WINNER	1615	n/a	n/a	1	n/a	0	0	0	0.57763671875	0.412841796875	1	upper	zerothre.ttf
1483892	START	n/a	LTP146	ltpFR	10	n/a	n/a	n/a	n/a	n/a	n/a	n/a	n/a	n/a	n/a	n/a	n/a	n/a	n/a	n/a	n/a
1484816	PROB	n/a	LTP146	ltpFR	10	n/a	n/a	n/a	n/a	n/a	n/a	n/a	21	7	6	8	n/a	n/a	n/a	n/a	n/a
1486957	PROB	n/a	LTP146	ltpFR	10	n/a	n/a	n/a	n/a	n/a	n/a	n/a	16	1	6	9	n/a	n/a	n/a	n/a	n/a
1488673	PROB	n/a	LTP146	ltpFR	10	n/a	n/a	n/a	n/a	n/a	n/a	n/a	13	5	5	3	n/a	n/a	n/a	n/a	n/a
1491892	STOP	n/a	LTP146	ltpFR	10	n/a	n/a	n/a	n/a	n/a	n/a	n/a	n/a	n/a	n/a	n/a	n/a	n/a	n/a	n/a	n/a
1492755	WORD	wordpools/wasnorm_wordpool.txt	LTP146	ltpFR	10	7	0	STEAM	1375	n/a	n/a	1	n/a	0	0	0	0.57763671875	0.412841796875	1	upper	zerothre.ttf
1495762	START	n/a	LTP146	ltpFR	10	n/a	n/a	n/a	n/a	n/a	n/a	n/a	n/a	n/a	n/a	n/a	n/a	n/a	n/a	n/a	n/a
1496928	PROB	n/a	LTP146	ltpFR	10	n/a	n/a	n/a	n/a	n/a	n/a	n/a	12	4	5	3	n/a	n/a	n/a	n/a	n/a
1498669	PROB	n/a	LTP146	ltpFR	10	n/a	n/a	n/a	n/a	n/a	n/a	n/a	12	3	3	6	n/a	n/a	n/a	n/a	n/a
1500002	PROB	n/a	LTP146	ltpFR	10	n/a	n/a	n/a	n/a	n/a	n/a	n/a	17	3	6	8	n/a	n/a	n/a	n/a	n/a
1502661	STOP	n/a	LTP146	ltpFR	10	n/a	n/a	n/a	n/a	n/a	n/a	n/a	n/a	n/a	n/a	n/a	n/a	n/a	n/a	n/a	n/a
1504934	WORD	wordpools/wasnorm_wordpool.txt	LTP146	ltpFR	10	7	0	RICE	1190	n/a	n/a	0	n/a	0	0	0	0.57763671875	0.412841796875	1	upper	zerothre.ttf
1507941	START	n/a	LTP146	ltpFR	10	n/a	n/a	n/a	n/a	n/a	n/a	n/a	n/a	n/a	n/a	n/a	n/a	n/a	n/a	n/a	n/a
1509057	PROB	n/a	LTP146	ltpFR	10	n/a	n/a	n/a	n/a	n/a	n/a	n/a	20	8	7	5	n/a	n/a	n/a	n/a	n/a
1510806	PROB	n/a	LTP146	ltpFR	10	n/a	n/a	n/a	n/a	n/a	n/a	n/a	18	7	8	3	n/a	n/a	n/a	n/a	n/a
1512797	PROB	n/a	LTP146	ltpFR	10	n/a	n/a	n/a	n/a	n/a	n/a	n/a	11	5	4	2	n/a	n/a	n/a	n/a	n/a
1514148	PROB	n/a	LTP146	ltpFR	10	n/a	n/a	n/a	n/a	n/a	n/a	n/a	16	9	2	5	n/a	n/a	n/a	n/a	n/a
1515510	STOP	n/a	LTP146	ltpFR	10	n/a	n/a	n/a	n/a	n/a	n/a	n/a	n/a	n/a	n/a	n/a	n/a	n/a	n/a	n/a	n/a
1516779	WORD	wordpools/wasnorm_wordpool.txt	LTP146	ltpFR	10	7	1	PLATE	1086	n/a	n/a	0	n/a	0	0	0	0.422607421875	0.5869140625	0	lower	amplitud.ttf
1519787	START	n/a	LTP146	ltpFR	10	n/a	n/a	n/a	n/a	n/a	n/a	n/a	n/a	n/a	n/a	n/a	n/a	n/a	n/a	n/a	n/a
1520736	PROB	n/a	LTP146	ltpFR	10	n/a	n/a	n/a	n/a	n/a	n/a	n/a	13	3	3	7	n/a	n/a	n/a	n/a	n/a
1522128	PROB	n/a	LTP146	ltpFR	10	n/a	n/a	n/a	n/a	n/a	n/a	n/a	13	3	5	5	n/a	n/a	n/a	n/a	n/a
1523311	PROB	n/a	LTP146	ltpFR	10	n/a	n/a	n/a	n/a	n/a	n/a	n/a	14	4	7	3	n/a	n/a	n/a	n/a	n/a
1524611	PROB	n/a	LTP146	ltpFR	10	n/a	n/a	n/a	n/a	n/a	n/a	n/a	20	6	6	8	n/a	n/a	n/a	n/a	n/a
1526454	STOP	n/a	LTP146	ltpFR	10	n/a	n/a	n/a	n/a	n/a	n/a	n/a	n/a	n/a	n/a	n/a	n/a	n/a	n/a	n/a	n/a
1528667	WORD	wordpools/wasnorm_wordpool.txt	LTP146	ltpFR	10	7	1	CHAMPION	279	n/a	n/a	1	n/a	0	0	0	0.422607421875	0.5869140625	0	lower	amplitud.ttf
1531675	START	n/a	LTP146	ltpFR	10	n/a	n/a	n/a	n/a	n/a	n/a	n/a	n/a	n/a	n/a	n/a	n/a	n/a	n/a	n/a	n/a
1532832	PROB	n/a	LTP146	ltpFR	10	n/a	n/a	n/a	n/a	n/a	n/a	n/a	18	8	8	2	n/a	n/a	n/a	n/a	n/a
1534466	PROB	n/a	LTP146	ltpFR	10	n/a	n/a	n/a	n/a	n/a	n/a	n/a	14	3	3	8	n/a	n/a	n/a	n/a	n/a
1536382	PROB	n/a	LTP146	ltpFR	10	n/a	n/a	n/a	n/a	n/a	n/a	n/a	19	6	9	4	n/a	n/a	n/a	n/a	n/a
1538158	STOP	n/a	LTP146	ltpFR	10	n/a	n/a	n/a	n/a	n/a	n/a	n/a	n/a	n/a	n/a	n/a	n/a	n/a	n/a	n/a	n/a
1540522	WORD	wordpools/wasnorm_wordpool.txt	LTP146	ltpFR	10	7	0	SIBLING	1301	n/a	n/a	1	n/a	0	0	0	0.57763671875	0.412841796875	1	upper	zerothre.ttf
1543530	START	n/a	LTP146	ltpFR	10	n/a	n/a	n/a	n/a	n/a	n/a	n/a	n/a	n/a	n/a	n/a	n/a	n/a	n/a	n/a	n/a
1544554	PROB	n/a	LTP146	ltpFR	10	n/a	n/a	n/a	n/a	n/a	n/a	n/a	13	6	6	1	n/a	n/a	n/a	n/a	n/a
1545736	PROB	n/a	LTP146	ltpFR	10	n/a	n/a	n/a	n/a	n/a	n/a	n/a	20	8	3	9	n/a	n/a	n/a	n/a	n/a
1548136	PROB	n/a	LTP146	ltpFR	10	n/a	n/a	n/a	n/a	n/a	n/a	n/a	11	3	2	6	n/a	n/a	n/a	n/a	n/a
1549552	PROB	n/a	LTP146	ltpFR	10	n/a	n/a	n/a	n/a	n/a	n/a	n/a	19	9	5	5	n/a	n/a	n/a	n/a	n/a
1550901	STOP	n/a	LTP146	ltpFR	10	n/a	n/a	n/a	n/a	n/a	n/a	n/a	n/a	n/a	n/a	n/a	n/a	n/a	n/a	n/a	n/a
1552426	WORD	wordpools/wasnorm_wordpool.txt	LTP146	ltpFR	10	7	0	LIEUTENANT	818	n/a	n/a	1	n/a	0	0	0	0.57763671875	0.412841796875	1	upper	zerothre.ttf
1555434	START	n/a	LTP146	ltpFR	10	n/a	n/a	n/a	n/a	n/a	n/a	n/a	n/a	n/a	n/a	n/a	n/a	n/a	n/a	n/a	n/a
1556383	PROB	n/a	LTP146	ltpFR	10	n/a	n/a	n/a	n/a	n/a	n/a	n/a	11	2	5	4	n/a	n/a	n/a	n/a	n/a
1557898	PROB	n/a	LTP146	ltpFR	10	n/a	n/a	n/a	n/a	n/a	n/a	n/a	11	5	4	2	n/a	n/a	n/a	n/a	n/a
1559989	PROB	n/a	LTP146	ltpFR	10	n/a	n/a	n/a	n/a	n/a	n/a	n/a	20	4	9	7	n/a	n/a	n/a	n/a	n/a
1561481	PROB	n/a	LTP146	ltpFR	10	n/a	n/a	n/a	n/a	n/a	n/a	n/a	17	4	5	8	n/a	n/a	n/a	n/a	n/a
1563294	STOP	n/a	LTP146	ltpFR	10	n/a	n/a	n/a	n/a	n/a	n/a	n/a	n/a	n/a	n/a	n/a	n/a	n/a	n/a	n/a	n/a
1564438	WORD	wordpools/wasnorm_wordpool.txt	LTP146	ltpFR	10	7	0	ELECTRICIAN	521	n/a	n/a	1	n/a	0	0	0	0.57763671875	0.412841796875	1	upper	zerothre.ttf
1567446	START	n/a	LTP146	ltpFR	10	n/a	n/a	n/a	n/a	n/a	n/a	n/a	n/a	n/a	n/a	n/a	n/a	n/a	n/a	n/a	n/a
1568520	PROB	n/a	LTP146	ltpFR	10	n/a	n/a	n/a	n/a	n/a	n/a	n/a	14	6	6	2	n/a	n/a	n/a	n/a	n/a
1569769	PROB	n/a	LTP146	ltpFR	10	n/a	n/a	n/a	n/a	n/a	n/a	n/a	16	9	1	6	n/a	n/a	n/a	n/a	n/a
1571411	PROB	n/a	LTP146	ltpFR	10	n/a	n/a	n/a	n/a	n/a	n/a	n/a	17	8	3	6	n/a	n/a	n/a	n/a	n/a
1572951	PROB	n/a	LTP146	ltpFR	10	n/a	n/a	n/a	n/a	n/a	n/a	n/a	11	3	3	5	n/a	n/a	n/a	n/a	n/a
1574630	STOP	n/a	LTP146	ltpFR	10	n/a	n/a	n/a	n/a	n/a	n/a	n/a	n/a	n/a	n/a	n/a	n/a	n/a	n/a	n/a	n/a
1576342	WORD	wordpools/wasnorm_wordpool.txt	LTP146	ltpFR	10	7	0	LIGHTNING	820	n/a	n/a	1	n/a	0	0	0	0.57763671875	0.412841796875	1	upper	zerothre.ttf
1579350	START	n/a	LTP146	ltpFR	10	n/a	n/a	n/a	n/a	n/a	n/a	n/a	n/a	n/a	n/a	n/a	n/a	n/a	n/a	n/a	n/a
1580174	PROB	n/a	LTP146	ltpFR	10	n/a	n/a	n/a	n/a	n/a	n/a	n/a	18	4	5	9	n/a	n/a	n/a	n/a	n/a
1582499	PROB	n/a	LTP146	ltpFR	10	n/a	n/a	n/a	n/a	n/a	n/a	n/a	21	8	9	5	n/a	n/a	n/a	n/a	n/a
1584072	PROB	n/a	LTP146	ltpFR	10	n/a	n/a	n/a	n/a	n/a	n/a	n/a	16	2	5	9	n/a	n/a	n/a	n/a	n/a
1587350	STOP	n/a	LTP146	ltpFR	10	n/a	n/a	n/a	n/a	n/a	n/a	n/a	n/a	n/a	n/a	n/a	n/a	n/a	n/a	n/a	n/a
1588172	WORD	wordpools/wasnorm_wordpool.txt	LTP146	ltpFR	10	7	0	CAKE	219	n/a	n/a	0	n/a	0	0	0	0.57763671875	0.412841796875	1	upper	zerothre.ttf
1591179	START	n/a	LTP146	ltpFR	10	n/a	n/a	n/a	n/a	n/a	n/a	n/a	n/a	n/a	n/a	n/a	n/a	n/a	n/a	n/a	n/a
1592137	PROB	n/a	LTP146	ltpFR	10	n/a	n/a	n/a	n/a	n/a	n/a	n/a	18	3	7	8	n/a	n/a	n/a	n/a	n/a
1593470	PROB	n/a	LTP146	ltpFR	10	n/a	n/a	n/a	n/a	n/a	n/a	n/a	15	5	7	3	n/a	n/a	n/a	n/a	n/a
1595352	PROB	n/a	LTP146	ltpFR	10	n/a	n/a	n/a	n/a	n/a	n/a	n/a	20	8	7	5	n/a	n/a	n/a	n/a	n/a
1597268	PROB	n/a	LTP146	ltpFR	10	n/a	n/a	n/a	n/a	n/a	n/a	n/a	11	7	2	2	n/a	n/a	n/a	n/a	n/a
1598454	STOP	n/a	LTP146	ltpFR	10	n/a	n/a	n/a	n/a	n/a	n/a	n/a	n/a	n/a	n/a	n/a	n/a	n/a	n/a	n/a	n/a
1600351	WORD	wordpools/wasnorm_wordpool.txt	LTP146	ltpFR	10	7	1	DESSERT	453	n/a	n/a	1	n/a	0	0	0	0.422607421875	0.5869140625	0	lower	amplitud.ttf
1603358	START	n/a	LTP146	ltpFR	10	n/a	n/a	n/a	n/a	n/a	n/a	n/a	n/a	n/a	n/a	n/a	n/a	n/a	n/a	n/a	n/a
1604549	PROB	n/a	LTP146	ltpFR	10	n/a	n/a	n/a	n/a	n/a	n/a	n/a	6	2	1	3	n/a	n/a	n/a	n/a	n/a
1605599	PROB	n/a	LTP146	ltpFR	10	n/a	n/a	n/a	n/a	n/a	n/a	n/a	16	6	5	5	n/a	n/a	n/a	n/a	n/a
1606831	PROB	n/a	LTP146	ltpFR	10	n/a	n/a	n/a	n/a	n/a	n/a	n/a	14	3	5	6	n/a	n/a	n/a	n/a	n/a
1608239	PROB	n/a	LTP146	ltpFR	10	n/a	n/a	n/a	n/a	n/a	n/a	n/a	19	9	1	9	n/a	n/a	n/a	n/a	n/a
1609941	STOP	n/a	LTP146	ltpFR	10	n/a	n/a	n/a	n/a	n/a	n/a	n/a	n/a	n/a	n/a	n/a	n/a	n/a	n/a	n/a	n/a
1612546	WORD	wordpools/wasnorm_wordpool.txt	LTP146	ltpFR	10	7	1	CANNON	232	n/a	n/a	0	n/a	0	0	0	0.422607421875	0.5869140625	0	lower	amplitud.ttf
1615554	START	n/a	LTP146	ltpFR	10	n/a	n/a	n/a	n/a	n/a	n/a	n/a	n/a	n/a	n/a	n/a	n/a	n/a	n/a	n/a	n/a
1616611	PROB	n/a	LTP146	ltpFR	10	n/a	n/a	n/a	n/a	n/a	n/a	n/a	9	4	1	4	n/a	n/a	n/a	n/a	n/a
1617702	PROB	n/a	LTP146	ltpFR	10	n/a	n/a	n/a	n/a	n/a	n/a	n/a	14	6	3	5	n/a	n/a	n/a	n/a	n/a
1620393	PROB	n/a	LTP146	ltpFR	10	n/a	n/a	n/a	n/a	n/a	n/a	n/a	18	4	8	6	n/a	n/a	n/a	n/a	n/a
1622358	STOP	n/a	LTP146	ltpFR	10	n/a	n/a	n/a	n/a	n/a	n/a	n/a	n/a	n/a	n/a	n/a	n/a	n/a	n/a	n/a	n/a
1624542	WORD	wordpools/wasnorm_wordpool.txt	LTP146	ltpFR	10	7	1	MANSION	864	n/a	n/a	1	n/a	0	0	0	0.422607421875	0.5869140625	0	lower	amplitud.ttf
1627550	START	n/a	LTP146	ltpFR	10	n/a	n/a	n/a	n/a	n/a	n/a	n/a	n/a	n/a	n/a	n/a	n/a	n/a	n/a	n/a	n/a
1628407	PROB	n/a	LTP146	ltpFR	10	n/a	n/a	n/a	n/a	n/a	n/a	n/a	10	1	1	8	n/a	n/a	n/a	n/a	n/a
1630448	PROB	n/a	LTP146	ltpFR	10	n/a	n/a	n/a	n/a	n/a	n/a	n/a	15	5	9	1	n/a	n/a	n/a	n/a	n/a
1631614	PROB	n/a	LTP146	ltpFR	10	n/a	n/a	n/a	n/a	n/a	n/a	n/a	18	6	3	9	n/a	n/a	n/a	n/a	n/a
1633038	PROB	n/a	LTP146	ltpFR	10	n/a	n/a	n/a	n/a	n/a	n/a	n/a	17	9	2	6	n/a	n/a	n/a	n/a	n/a
1634541	STOP	n/a	LTP146	ltpFR	10	n/a	n/a	n/a	n/a	n/a	n/a	n/a	n/a	n/a	n/a	n/a	n/a	n/a	n/a	n/a	n/a
1636388	WORD	wordpools/wasnorm_wordpool.txt	LTP146	ltpFR	10	7	1	FACE	547	n/a	n/a	1	n/a	0	0	0	0.422607421875	0.5869140625	0	lower	amplitud.ttf
1639395	START	n/a	LTP146	ltpFR	10	n/a	n/a	n/a	n/a	n/a	n/a	n/a	n/a	n/a	n/a	n/a	n/a	n/a	n/a	n/a	n/a
1640461	PROB	n/a	LTP146	ltpFR	10	n/a	n/a	n/a	n/a	n/a	n/a	n/a	13	9	2	2	n/a	n/a	n/a	n/a	n/a
1641951	PROB	n/a	LTP146	ltpFR	10	n/a	n/a	n/a	n/a	n/a	n/a	n/a	11	3	5	3	n/a	n/a	n/a	n/a	n/a
1643477	PROB	n/a	LTP146	ltpFR	10	n/a	n/a	n/a	n/a	n/a	n/a	n/a	11	5	3	3	n/a	n/a	n/a	n/a	n/a
1644692	PROB	n/a	LTP146	ltpFR	10	n/a	n/a	n/a	n/a	n/a	n/a	n/a	9	1	2	6	n/a	n/a	n/a	n/a	n/a
1645869	STOP	n/a	LTP146	ltpFR	10	n/a	n/a	n/a	n/a	n/a	n/a	n/a	n/a	n/a	n/a	n/a	n/a	n/a	n/a	n/a	n/a
1649267	REC_START	n/a	LTP146	ltpFR	10	7	n/a	n/a	n/a	n/a	n/a	n/a	n/a	0	0	0	n/a	n/a	n/a	n/a	n/a
1650539	REC_WORD	wordpools/wasnorm_wordpool.txt	LTP146	ltpFR	10	7	1	MANSION	864	n/a	n/a	1	n/a	0	0	0	n/a	n/a	n/a	n/a	n/a
1651535	REC_WORD	wordpools/wasnorm_wordpool.txt	LTP146	ltpFR	10	7	1	FACE	547	n/a	n/a	1	n/a	0	0	0	n/a	n/a	n/a	n/a	n/a
1652804	REC_WORD	wordpools/wasnorm_wordpool.txt	LTP146	ltpFR	10	7	1	CANNON	232	n/a	n/a	0	n/a	0	0	0	n/a	n/a	n/a	n/a	n/a
1655203	REC_WORD	wordpools/wasnorm_wordpool.txt	LTP146	ltpFR	10	7	0	CAKE	219	n/a	n/a	0	n/a	0	0	0	n/a	n/a	n/a	n/a	n/a
1657738	REC_WORD	wordpools/wasnorm_wordpool.txt	LTP146	ltpFR	10	7	1	BUILDING	191	n/a	n/a	0	n/a	0	0	0	n/a	n/a	n/a	n/a	n/a
1658865	REC_WORD	wordpools/wasnorm_wordpool.txt	LTP146	ltpFR	10	7	0	WINNER	1615	n/a	n/a	1	n/a	0	0	0	n/a	n/a	n/a	n/a	n/a
1659823	REC_WORD	wordpools/wasnorm_wordpool.txt	LTP146	ltpFR	10	7	1	CHAMPION	279	n/a	n/a	1	n/a	0	0	0	n/a	n/a	n/a	n/a	n/a
1661230	REC_WORD	wordpools/wasnorm_wordpool.txt	LTP146	ltpFR	10	7	1	TWEEZERS	1526	n/a	n/a	0	n/a	0	0	0	n/a	n/a	n/a	n/a	n/a
1663480	REC_WORD	wordpools/wasnorm_wordpool.txt	LTP146	ltpFR	10	7	0	LIEUTENANT	818	n/a	n/a	1	n/a	0	0	0	n/a	n/a	n/a	n/a	n/a
1665016	REC_WORD	wordpools/wasnorm_wordpool.txt	LTP146	ltpFR	10	7	0	ELECTRICIAN	521	n/a	n/a	1	n/a	0	0	0	n/a	n/a	n/a	n/a	n/a
1667421	REC_WORD	wordpools/wasnorm_wordpool.txt	LTP146	ltpFR	10	7	0	LIGHTNING	820	n/a	n/a	1	n/a	0	0	0	n/a	n/a	n/a	n/a	n/a
1672708	REC_WORD	wordpools/wasnorm_wordpool.txt	LTP146	ltpFR	10	7	0	WINNER	1615	n/a	n/a	1	n/a	0	0	0	n/a	n/a	n/a	n/a	n/a
1673397	REC_WORD	wordpools/wasnorm_wordpool.txt	LTP146	ltpFR	10	7	1	CHAMPION	279	n/a	n/a	1	n/a	0	0	0	n/a	n/a	n/a	n/a	n/a
1740091	WORD	wordpools/wasnorm_wordpool.txt	LTP146	ltpFR	10	8	0	PUBLISHER	1137	n/a	n/a	1	n/a	0	0	0	0.57763671875	0.412841796875	1	upper	zerothre.ttf
1744249	WORD	wordpools/wasnorm_wordpool.txt	LTP146	ltpFR	10	8	0	SHIRT	1287	n/a	n/a	1	n/a	0	0	0	0.57763671875	0.412841796875	1	upper	zerothre.ttf
1748373	WORD	wordpools/wasnorm_wordpool.txt	LTP146	ltpFR	10	8	1	CRICKET	408	n/a	n/a	1	n/a	0	0	0	0.422607421875	0.5869140625	0	lower	amplitud.ttf
1752396	WORD	wordpools/wasnorm_wordpool.txt	LTP146	ltpFR	10	8	1	ENCYCLOPEDIA	533	n/a	n/a	1	n/a	0	0	0	0.422607421875	0.5869140625	0	lower	amplitud.ttf
1756278	WORD	wordpools/wasnorm_wordpool.txt	LTP146	ltpFR	10	8	1	PAVEMENT	1028	n/a	n/a	0	n/a	0	0	0	0.422607421875	0.5869140625	0	lower	amplitud.ttf
1760302	WORD	wordpools/wasnorm_wordpool.txt	LTP146	ltpFR	10	8	1	JACKET	747	n/a	n/a	0	n/a	0	0	0	0.422607421875	0.5869140625	0	lower	amplitud.ttf
1764450	WORD	wordpools/wasnorm_wordpool.txt	LTP146	ltpFR	10	8	0	UMPIRE	1535	n/a	n/a	1	n/a	0	0	0	0.57763671875	0.412841796875	1	upper	zerothre.ttf
1768324	WORD	wordpools/wasnorm_wordpool.txt	LTP146	ltpFR	10	8	0	SOFTBALL	1343	n/a	n/a	0	n/a	0	0	0	0.57763671875	0.412841796875	1	upper	zerothre.ttf
1772173	WORD	wordpools/wasnorm_wordpool.txt	LTP146	ltpFR	10	8	0	WASP	1593	n/a	n/a	1	n/a	0	0	0	0.57763671875	0.412841796875	1	upper	zerothre.ttf
1776363	WORD	wordpools/wasnorm_wordpool.txt	LTP146	ltpFR	10	8	0	LANDSCAPE	799	n/a	n/a	1	n/a	0	0	0	0.57763671875	0.412841796875	1	upper	zerothre.ttf
1780561	WORD	wordpools/wasnorm_wordpool.txt	LTP146	ltpFR	10	8	1	ACID	2	n/a	n/a	0	n/a	0	0	0	0.422607421875	0.5869140625	0	lower	amplitud.ttf
1784510	WORD	wordpools/wasnorm_wordpool.txt	LTP146	ltpFR	10	8	1	NAIL	936	n/a	n/a	0	n/a	0	0	0	0.422607421875	0.5869140625	0	lower	amplitud.ttf
1788425	WORD	wordpools/wasnorm_wordpool.txt	LTP146	ltpFR	10	8	1	LABYRINTH	791	n/a	n/a	1	n/a	0	0	0	0.422607421875	0.5869140625	0	lower	amplitud.ttf
1792474	WORD	wordpools/wasnorm_wordpool.txt	LTP146	ltpFR	10	8	1	RAT	1169	n/a	n/a	1	n/a	0	0	0	0.422607421875	0.5869140625	0	lower	amplitud.ttf
1796514	WORD	wordpools/wasnorm_wordpool.txt	LTP146	ltpFR	10	8	0	UNIFORM	1539	n/a	n/a	1	n/a	0	0	0	0.57763671875	0.412841796875	1	upper	zerothre.ttf
1800670	WORD	wordpools/wasnorm_wordpool.txt	LTP146	ltpFR	10	8	0	APPLICATION	34	n/a	n/a	1	n/a	0	0	0	0.57763671875	0.412841796875	1	upper	zerothre.ttf
1806536	REC_START	n/a	LTP146	ltpFR	10	8	n/a	n/a	n/a	n/a	n/a	n/a	n/a	0	0	0	n/a	n/a	n/a	n/a	n/a
1807104	REC_WORD	wordpools/wasnorm_wordpool.txt	LTP146	ltpFR	10	8	0	APPLICATION	34	n/a	n/a	1	n/a	0	0	0	n/a	n/a	n/a	n/a	n/a
1808322	REC_WORD	wordpools/wasnorm_wordpool.txt	LTP146	ltpFR	10	8	0	UNIFORM	1539	n/a	n/a	1	n/a	0	0	0	n/a	n/a	n/a	n/a	n/a
1809434	REC_WORD	wordpools/wasnorm_wordpool.txt	LTP146	ltpFR	10	8	1	RAT	1169	n/a	n/a	1	n/a	0	0	0	n/a	n/a	n/a	n/a	n/a
1810416	REC_WORD	wordpools/wasnorm_wordpool.txt	LTP146	ltpFR	10	8	1	NAIL	936	n/a	n/a	0	n/a	0	0	0	n/a	n/a	n/a	n/a	n/a
1811415	REC_WORD	wordpools/wasnorm_wordpool.txt	LTP146	ltpFR	10	8	1	LABYRINTH	791	n/a	n/a	1	n/a	0	0	0	n/a	n/a	n/a	n/a	n/a
1812547	REC_WORD	wordpools/wasnorm_wordpool.txt	LTP146	ltpFR	10	8	1	ACID	2	n/a	n/a	0	n/a	0	0	0	n/a	n/a	n/a	n/a	n/a
1814847	REC_WORD	wordpools/wasnorm_wordpool.txt	LTP146	ltpFR	10	8	1	CRICKET	408	n/a	n/a	1	n/a	0	0	0	n/a	n/a	n/a	n/a	n/a
1815895	REC_WORD	wordpools/wasnorm_wordpool.txt	LTP146	ltpFR	10	8	1	PAVEMENT	1028	n/a	n/a	0	n/a	0	0	0	n/a	n/a	n/a	n/a	n/a
1816897	REC_WORD	wordpools/wasnorm_wordpool.txt	LTP146	ltpFR	10	8	1	ENCYCLOPEDIA	533	n/a	n/a	1	n/a	0	0	0	n/a	n/a	n/a	n/a	n/a
1818908	REC_WORD	wordpools/wasnorm_wordpool.txt	LTP146	ltpFR	10	8	0	PUBLISHER	1137	n/a	n/a	1	n/a	0	0	0	n/a	n/a	n/a	n/a	n/a
1820165	REC_WORD	wordpools/wasnorm_wordpool.txt	LTP146	ltpFR	10	8	0	SHIRT	1287	n/a	n/a	1	n/a	0	0	0	n/a	n/a	n/a	n/a	n/a
1823183	REC_WORD	wordpools/wasnorm_wordpool.txt	LTP146	ltpFR	10	8	0	SOFTBALL	1343	n/a	n/a	0	n/a	0	0	0	n/a	n/a	n/a	n/a	n/a
1824695	REC_WORD	wordpools/wasnorm_wordpool.txt	LTP146	ltpFR	10	8	n/a	EMPIRE	530	n/a	n/a	n/a	n/a	0	0	0	n/a	n/a	n/a	n/a	n/a
1829459	REC_WORD	wordpools/wasnorm_wordpool.txt	LTP146	ltpFR	10	8	n/a	FIELD	562	n/a	n/a	n/a	n/a	0	0	0	n/a	n/a	n/a	n/a	n/a
1830731	REC_WORD	wordpools/wasnorm_wordpool.txt	LTP146	ltpFR	10	8	n/a	MEDAL	885	n/a	n/a	n/a	n/a	0	0	0	n/a	n/a	n/a	n/a	n/a
1831544	REC_WORD	wordpools/wasnorm_wordpool.txt	LTP146	ltpFR	10	8	n/a	GRASS	655	n/a	n/a	n/a	n/a	0	0	0	n/a	n/a	n/a	n/a	n/a
1833405	REC_WORD	wordpools/wasnorm_wordpool.txt	LTP146	ltpFR	10	8	n/a	LAWN	805	n/a	n/a	n/a	n/a	0	0	0	n/a	n/a	n/a	n/a	n/a
1857440	REC_WORD	wordpools/wasnorm_wordpool.txt	LTP146	ltpFR	10	8	n/a	DESERT	-1	n/a	n/a	n/a	n/a	0	0	0	n/a	n/a	n/a	n/a	n/a
1861142	REC_WORD	wordpools/wasnorm_wordpool.txt	LTP146	ltpFR	10	8	1	DESSERT	453	n/a	n/a	1	n/a	0	0	0	n/a	n/a	n/a	n/a	n/a
1897002	WORD	wordpools/wasnorm_wordpool.txt	LTP146	ltpFR	10	9	1	GIRAFFE	636	n/a	n/a	1	n/a	0	0	0	0.422607421875	0.5869140625	0	lower	amplitud.ttf
1901034	WORD	wordpools/wasnorm_wordpool.txt	LTP146	ltpFR	10	9	1	TRUMPET	1513	n/a	n/a	1	n/a	0	0	0	0.422607421875	0.5869140625	0	lower	amplitud.ttf
1904999	WORD	wordpools/wasnorm_wordpool.txt	LTP146	ltpFR	10	9	1	HINGE	709	n/a	n/a	0	n/a	0	0	0	0.422607421875	0.5869140625	0	lower	amplitud.ttf
1908906	WORD	wordpools/wasnorm_wordpool.txt	LTP146	ltpFR	10	9	1	BACK	65	n/a	n/a	0	n/a	0	0	0	0.422607421875	0.5869140625	0	lower	amplitud.ttf
1913005	WORD	wordpools/wasnorm_wordpool.txt	LTP146	ltpFR	10	9	1	ZOO	1637	n/a	n/a	0	n/a	0	0	0	0.422607421875	0.5869140625	0	lower	amplitud.ttf
1916870	WORD	wordpools/wasnorm_wordpool.txt	LTP146	ltpFR	10	9	1	SKI	1316	n/a	n/a	0	n/a	0	0	0	0.422607421875	0.5869140625	0	lower	amplitud.ttf
1920985	WORD	wordpools/wasnorm_wordpool.txt	LTP146	ltpFR	10	9	1	CONCRETE	361	n/a	n/a	1	n/a	0	0	0	0.422607421875	0.5869140625	0	lower	amplitud.ttf
1924909	WORD	wordpools/wasnorm_wordpool.txt	LTP146	ltpFR	10	9	1	HARP	689	n/a	n/a	0	n/a	0	0	0	0.422607421875	0.5869140625	0	lower	amplitud.ttf
1928857	WORD	wordpools/wasnorm_wordpool.txt	LTP146	ltpFR	10	9	1	BATHTUB	100	n/a	n/a	0	n/a	0	0	0	0.422607421875	0.5869140625	0	lower	amplitud.ttf
1932723	WORD	wordpools/wasnorm_wordpool.txt	LTP146	ltpFR	10	9	1	LAKE	796	n/a	n/a	0	n/a	0	0	0	0.422607421875	0.5869140625	0	lower	amplitud.ttf
1936888	WORD	wordpools/wasnorm_wordpool.txt	LTP146	ltpFR	10	9	1	BUILDER	190	n/a	n/a	1	n/a	0	0	0	0.422607421875	0.5869140625	0	lower	amplitud.ttf
1940911	WORD	wordpools/wasnorm_wordpool.txt	LTP146	ltpFR	10	9	1	IDOL	733	n/a	n/a	1	n/a	0	0	0	0.422607421875	0.5869140625	0	lower	amplitud.ttf
1944802	WORD	wordpools/wasnorm_wordpool.txt	LTP146	ltpFR	10	9	1	CAR	241	n/a	n/a	0	n/a	0	0	0	0.422607421875	0.5869140625	0	lower	amplitud.ttf
1948643	WORD	wordpools/wasnorm_wordpool.txt	LTP146	ltpFR	10	9	1	CHAUFFEUR	283	n/a	n/a	1	n/a	0	0	0	0.422607421875	0.5869140625	0	lower	amplitud.ttf
1952824	WORD	wordpools/wasnorm_wordpool.txt	LTP146	ltpFR	10	9	1	PATROL	1027	n/a	n/a	1	n/a	0	0	0	0.422607421875	0.5869140625	0	lower	amplitud.ttf
1956872	WORD	wordpools/wasnorm_wordpool.txt	LTP146	ltpFR	10	9	1	ATTORNEY	58	n/a	n/a	1	n/a	0	0	0	0.422607421875	0.5869140625	0	lower	amplitud.ttf
1959880	START	n/a	LTP146	ltpFR	10	n/a	n/a	n/a	n/a	n/a	n/a	n/a	n/a	n/a	n/a	n/a	n/a	n/a	n/a	n/a	n/a
1960796	PROB	n/a	LTP146	ltpFR	10	n/a	n/a	n/a	n/a	n/a	n/a	n/a	16	2	9	5	n/a	n/a	n/a	n/a	n/a
1962704	PROB	n/a	LTP146	ltpFR	10	n/a	n/a	n/a	n/a	n/a	n/a	n/a	15	5	1	9	n/a	n/a	n/a	n/a	n/a
1964213	PROB	n/a	LTP146	ltpFR	10	n/a	n/a	n/a	n/a	n/a	n/a	n/a	8	2	3	3	n/a	n/a	n/a	n/a	n/a
1965370	PROB	n/a	LTP146	ltpFR	10	n/a	n/a	n/a	n/a	n/a	n/a	n/a	10	2	6	2	n/a	n/a	n/a	n/a	n/a
1966637	PROB	n/a	LTP146	ltpFR	10	n/a	n/a	n/a	n/a	n/a	n/a	n/a	16	1	9	6	n/a	n/a	n/a	n/a	n/a
1968093	PROB	n/a	LTP146	ltpFR	10	n/a	n/a	n/a	n/a	n/a	n/a	n/a	16	4	8	4	n/a	n/a	n/a	n/a	n/a
1969411	PROB	n/a	LTP146	ltpFR	10	n/a	n/a	n/a	n/a	n/a	n/a	n/a	1	7	3	2	n/a	n/a	n/a	n/a	n/a
1970410	PROB	n/a	LTP146	ltpFR	10	n/a	n/a	n/a	n/a	n/a	n/a	n/a	15	1	8	6	n/a	n/a	n/a	n/a	n/a
1971909	PROB	n/a	LTP146	ltpFR	10	n/a	n/a	n/a	n/a	n/a	n/a	n/a	13	3	8	2	n/a	n/a	n/a	n/a	n/a
1972975	PROB	n/a	LTP146	ltpFR	10	n/a	n/a	n/a	n/a	n/a	n/a	n/a	16	3	6	7	n/a	n/a	n/a	n/a	n/a
1974462	STOP	n/a	LTP146	ltpFR	10	n/a	n/a	n/a	n/a	n/a	n/a	n/a	n/a	n/a	n/a	n/a	n/a	n/a	n/a	n/a	n/a
1977791	REC_START	n/a	LTP146	ltpFR	10	9	n/a	n/a	n/a	n/a	n/a	n/a	n/a	0	0	0	n/a	n/a	n/a	n/a	n/a
1978592	REC_WORD	wordpools/wasnorm_wordpool.txt	LTP146	ltpFR	10	9	1	ATTORNEY	58	n/a	n/a	1	n/a	0	0	0	n/a	n/a	n/a	n/a	n/a
1979647	REC_WORD	wordpools/wasnorm_wordpool.txt	LTP146	ltpFR	10	9	1	CHAUFFEUR	283	n/a	n/a	1	n/a	0	0	0	n/a	n/a	n/a	n/a	n/a
1981018	REC_WORD	wordpools/wasnorm_wordpool.txt	LTP146	ltpFR	10	9	1	CAR	241	n/a	n/a	0	n/a	0	0	0	n/a	n/a	n/a	n/a	n/a
1982061	REC_WORD	wordpools/wasnorm_wordpool.txt	LTP146	ltpFR	10	9	1	PATROL	1027	n/a	n/a	1	n/a	0	0	0	n/a	n/a	n/a	n/a	n/a
1983892	REC_WORD	wordpools/wasnorm_wordpool.txt	LTP146	ltpFR	10	9	1	GIRAFFE	636	n/a	n/a	1	n/a	0	0	0	n/a	n/a	n/a	n/a	n/a
1985279	REC_WORD	wordpools/wasnorm_wordpool.txt	LTP146	ltpFR	10	9	1	TRUMPET	1513	n/a	n/a	1	n/a	0	0	0	n/a	n/a	n/a	n/a	n/a
1987434	REC_WORD	wordpools/wasnorm_wordpool.txt	LTP146	ltpFR	10	9	1	CONCRETE	361	n/a	n/a	1	n/a	0	0	0	n/a	n/a	n/a	n/a	n/a
1989200	REC_WORD	wordpools/wasnorm_wordpool.txt	LTP146	ltpFR	10	9	1	ZOO	1637	n/a	n/a	0	n/a	0	0	0	n/a	n/a	n/a	n/a	n/a
1991076	REC_WORD	wordpools/wasnorm_wordpool.txt	LTP146	ltpFR	10	9	1	HINGE	709	n/a	n/a	0	n/a	0	0	0	n/a	n/a	n/a	n/a	n/a
1992438	REC_WORD	wordpools/wasnorm_wordpool.txt	LTP146	ltpFR	10	9	1	BACK	65	n/a	n/a	0	n/a	0	0	0	n/a	n/a	n/a	n/a	n/a
1993640	REC_WORD	wordpools/wasnorm_wordpool.txt	LTP146	ltpFR	10	9	1	SKI	1316	n/a	n/a	0	n/a	0	0	0	n/a	n/a	n/a	n/a	n/a
1999905	REC_WORD	wordpools/wasnorm_wordpool.txt	LTP146	ltpFR	10	9	1	HARP	689	n/a	n/a	0	n/a	0	0	0	n/a	n/a	n/a	n/a	n/a
2001407	REC_WORD	wordpools/wasnorm_wordpool.txt	LTP146	ltpFR	10	9	1	BATHTUB	100	n/a	n/a	0	n/a	0	0	0	n/a	n/a	n/a	n/a	n/a
2002879	REC_WORD	wordpools/wasnorm_wordpool.txt	LTP146	ltpFR	10	9	1	LAKE	796	n/a	n/a	0	n/a	0	0	0	n/a	n/a	n/a	n/a	n/a
2005074	REC_WORD	wordpools/wasnorm_wordpool.txt	LTP146	ltpFR	10	9	1	BUILDER	190	n/a	n/a	1	n/a	0	0	0	n/a	n/a	n/a	n/a	n/a
2048904	REC_WORD	wordpools/wasnorm_wordpool.txt	LTP146	ltpFR	10	9	1	ELK	526	n/a	n/a	1	n/a	0	0	0	n/a	n/a	n/a	n/a	n/a
2061668	WORD	wordpools/wasnorm_wordpool.txt	LTP146	ltpFR	10	10	0	LEADER	807	n/a	n/a	1	n/a	0	0	0	0.57763671875	0.412841796875	1	upper	zerothre.ttf
2065626	WORD	wordpools/wasnorm_wordpool.txt	LTP146	ltpFR	10	10	0	DENIM	446	n/a	n/a	0	n/a	0	0	0	0.57763671875	0.412841796875	1	upper	zerothre.ttf
2069716	WORD	wordpools/wasnorm_wordpool.txt	LTP146	ltpFR	10	10	0	PATRIOT	1026	n/a	n/a	1	n/a	0	0	0	0.57763671875	0.412841796875	1	upper	zerothre.ttf
2073582	WORD	wordpools/wasnorm_wordpool.txt	LTP146	ltpFR	10	10	0	BANDAGE	79	n/a	n/a	1	n/a	0	0	0	0.57763671875	0.412841796875	1	upper	zerothre.ttf
2077555	WORD	wordpools/wasnorm_wordpool.txt	LTP146	ltpFR	10	10	0	SAW	1239	n/a	n/a	0	n/a	0	0	0	0.57763671875	0.412841796875	1	upper	zerothre.ttf
2081554	WORD	wordpools/wasnorm_wordpool.txt	LTP146	ltpFR	10	10	0	COMPUTER	359	n/a	n/a	0	n/a	0	0	0	0.57763671875	0.412841796875	1	upper	zerothre.ttf
2085643	WORD	wordpools/wasnorm_wordpool.txt	LTP146	ltpFR	10	10	0	HAMPER	682	n/a	n/a	1	n/a	0	0	0	0.57763671875	0.412841796875	1	upper	zerothre.ttf
2089767	WORD	wordpools/wasnorm_wordpool.txt	LTP146	ltpFR	10	10	0	DIVER	476	n/a	n/a	0	n/a	0	0	0	0.57763671875	0.412841796875	1	upper	zerothre.ttf
2093874	WORD	wordpools/wasnorm_wordpool.txt	LTP146	ltpFR	10	10	0	SURF	1412	n/a	n/a	1	n/a	0	0	0	0.57763671875	0.412841796875	1	upper	zerothre.ttf
2097706	WORD	wordpools/wasnorm_wordpool.txt	LTP146	ltpFR	10	10	0	POTATO	1115	n/a	n/a	1	n/a	0	0	0	0.57763671875	0.412841796875	1	upper	zerothre.ttf
2101580	WORD	wordpools/wasnorm_wordpool.txt	LTP146	ltpFR	10	10	0	NEUTRON	947	n/a	n/a	1	n/a	0	0	0	0.57763671875	0.412841796875	1	upper	zerothre.ttf
2105778	WORD	wordpools/wasnorm_wordpool.txt	LTP146	ltpFR	10	10	0	LAVA	804	n/a	n/a	1	n/a	0	0	0	0.57763671875	0.412841796875	1	upper	zerothre.ttf
2109801	WORD	wordpools/wasnorm_wordpool.txt	LTP146	ltpFR	10	10	0	ABDOMEN	1	n/a	n/a	1	n/a	0	0	0	0.57763671875	0.412841796875	1	upper	zerothre.ttf
2113950	WORD	wordpools/wasnorm_wordpool.txt	LTP146	ltpFR	10	10	0	SKIN	1318	n/a	n/a	1	n/a	0	0	0	0.57763671875	0.412841796875	1	upper	zerothre.ttf
2118032	WORD	wordpools/wasnorm_wordpool.txt	LTP146	ltpFR	10	10	0	VOLCANO	1575	n/a	n/a	1	n/a	0	0	0	0.57763671875	0.412841796875	1	upper	zerothre.ttf
2121889	WORD	wordpools/wasnorm_wordpool.txt	LTP146	ltpFR	10	10	0	CAPTAIN	239	n/a	n/a	1	n/a	0	0	0	0.57763671875	0.412841796875	1	upper	zerothre.ttf
2124896	START	n/a	LTP146	ltpFR	10	n/a	n/a	n/a	n/a	n/a	n/a	n/a	n/a	n/a	n/a	n/a	n/a	n/a	n/a	n/a	n/a
2125704	PROB	n/a	LTP146	ltpFR	10	n/a	n/a	n/a	n/a	n/a	n/a	n/a	8	2	1	5	n/a	n/a	n/a	n/a	n/a
2127263	PROB	n/a	LTP146	ltpFR	10	n/a	n/a	n/a	n/a	n/a	n/a	n/a	16	9	6	1	n/a	n/a	n/a	n/a	n/a
2129420	PROB	n/a	LTP146	ltpFR	10	n/a	n/a	n/a	n/a	n/a	n/a	n/a	18	6	9	3	n/a	n/a	n/a	n/a	n/a
2131052	PROB	n/a	LTP146	ltpFR	10	n/a	n/a	n/a	n/a	n/a	n/a	n/a	18	9	6	3	n/a	n/a	n/a	n/a	n/a
2132630	STOP	n/a	LTP146	ltpFR	10	n/a	n/a	n/a	n/a	n/a	n/a	n/a	n/a	n/a	n/a	n/a	n/a	n/a	n/a	n/a	n/a
2134818	REC_START	n/a	LTP146	ltpFR	10	10	n/a	n/a	n/a	n/a	n/a	n/a	n/a	0	0	0	n/a	n/a	n/a	n/a	n/a
2135232	REC_WORD	wordpools/wasnorm_wordpool.txt	LTP146	ltpFR	10	10	0	LAVA	804	n/a	n/a	1	n/a	0	0	0	n/a	n/a	n/a	n/a	n/a
2135915	REC_WORD	wordpools/wasnorm_wordpool.txt	LTP146	ltpFR	10	10	0	VOLCANO	1575	n/a	n/a	1	n/a	0	0	0	n/a	n/a	n/a	n/a	n/a
2137182	REC_WORD	wordpools/wasnorm_wordpool.txt	LTP146	ltpFR	10	10	0	DIVER	476	n/a	n/a	0	n/a	0	0	0	n/a	n/a	n/a	n/a	n/a
2138025	REC_WORD	wordpools/wasnorm_wordpool.txt	LTP146	ltpFR	10	10	0	POTATO	1115	n/a	n/a	1	n/a	0	0	0	n/a	n/a	n/a	n/a	n/a
2139502	REC_WORD	wordpools/wasnorm_wordpool.txt	LTP146	ltpFR	10	10	0	ABDOMEN	1	n/a	n/a	1	n/a	0	0	0	n/a	n/a	n/a	n/a	n/a
2142246	REC_WORD	wordpools/wasnorm_wordpool.txt	LTP146	ltpFR	10	10	0	SKIN	1318	n/a	n/a	1	n/a	0	0	0	n/a	n/a	n/a	n/a	n/a
2144785	REC_WORD	wordpools/wasnorm_wordpool.txt	LTP146	ltpFR	10	10	0	SURF	1412	n/a	n/a	1	n/a	0	0	0	n/a	n/a	n/a	n/a	n/a
2151724	REC_WORD	wordpools/wasnorm_wordpool.txt	LTP146	ltpFR	10	10	0	LEADER	807	n/a	n/a	1	n/a	0	0	0	n/a	n/a	n/a	n/a	n/a
2153201	REC_WORD	wordpools/wasnorm_wordpool.txt	LTP146	ltpFR	10	10	0	DENIM	446	n/a	n/a	0	n/a	0	0	0	n/a	n/a	n/a	n/a	n/a
2154274	REC_WORD	wordpools/wasnorm_wordpool.txt	LTP146	ltpFR	10	10	0	PATRIOT	1026	n/a	n/a	1	n/a	0	0	0	n/a	n/a	n/a	n/a	n/a
2155695	REC_WORD	wordpools/wasnorm_wordpool.txt	LTP146	ltpFR	10	10	0	BANDAGE	79	n/a	n/a	1	n/a	0	0	0	n/a	n/a	n/a	n/a	n/a
2196098	REC_WORD	wordpools/wasnorm_wordpool.txt	LTP146	ltpFR	10	10	0	VOLCANO	1575	n/a	n/a	1	n/a	0	0	0	n/a	n/a	n/a	n/a	n/a
2197520	REC_WORD	wordpools/wasnorm_wordpool.txt	LTP146	ltpFR	10	10	0	LAVA	804	n/a	n/a	1	n/a	0	0	0	n/a	n/a	n/a	n/a	n/a
2210441	REST_REWET	n/a	LTP146	ltpFR	10	10	n/a	n/a	n/a	n/a	n/a	n/a	n/a	0	0	0	n/a	n/a	n/a	n/a	n/a
2462102	START	n/a	LTP146	ltpFR	10	n/a	n/a	n/a	n/a	n/a	n/a	n/a	n/a	n/a	n/a	n/a	n/a	n/a	n/a	n/a	n/a
2463609	PROB	n/a	LTP146	ltpFR	10	n/a	n/a	n/a	n/a	n/a	n/a	n/a	14	6	7	1	n/a	n/a	n/a	n/a	n/a
2465401	PROB	n/a	LTP146	ltpFR	10	n/a	n/a	n/a	n/a	n/a	n/a	n/a	12	7	1	4	n/a	n/a	n/a	n/a	n/a
2470101	STOP	n/a	LTP146	ltpFR	10	n/a	n/a	n/a	n/a	n/a	n/a	n/a	n/a	n/a	n/a	n/a	n/a	n/a	n/a	n/a	n/a
2471064	WORD	wordpools/wasnorm_wordpool.txt	LTP146	ltpFR	10	11	0	MAGICIAN	854	n/a	n/a	1	n/a	0	0	0	0.57763671875	0.412841796875	1	upper	zerothre.ttf
2474072	START	n/a	LTP146	ltpFR	10	n/a	n/a	n/a	n/a	n/a	n/a	n/a	n/a	n/a	n/a	n/a	n/a	n/a	n/a	n/a	n/a
2474963	PROB	n/a	LTP146	ltpFR	10	n/a	n/a	n/a	n/a	n/a	n/a	n/a	19	5	5	9	n/a	n/a	n/a	n/a	n/a
2476172	PROB	n/a	LTP146	ltpFR	10	n/a	n/a	n/a	n/a	n/a	n/a	n/a	11	5	2	4	n/a	n/a	n/a	n/a	n/a
2477862	PROB	n/a	LTP146	ltpFR	10	n/a	n/a	n/a	n/a	n/a	n/a	n/a	17	2	9	6	n/a	n/a	n/a	n/a	n/a
2479254	PROB	n/a	LTP146	ltpFR	10	n/a	n/a	n/a	n/a	n/a	n/a	n/a	14	1	5	8	n/a	n/a	n/a	n/a	n/a
2480877	STOP	n/a	LTP146	ltpFR	10	n/a	n/a	n/a	n/a	n/a	n/a	n/a	n/a	n/a	n/a	n/a	n/a	n/a	n/a	n/a	n/a
2483093	WORD	wordpools/wasnorm_wordpool.txt	LTP146	ltpFR	10	11	0	WAITRESS	1581	n/a	n/a	1	n/a	0	0	0	0.57763671875	0.412841796875	1	upper	zerothre.ttf
2486102	START	n/a	LTP146	ltpFR	10	n/a	n/a	n/a	n/a	n/a	n/a	n/a	n/a	n/a	n/a	n/a	n/a	n/a	n/a	n/a	n/a
2486958	PROB	n/a	LTP146	ltpFR	10	n/a	n/a	n/a	n/a	n/a	n/a	n/a	14	3	5	6	n/a	n/a	n/a	n/a	n/a
2488242	PROB	n/a	LTP146	ltpFR	10	n/a	n/a	n/a	n/a	n/a	n/a	n/a	17	5	7	5	n/a	n/a	n/a	n/a	n/a
2489857	PROB	n/a	LTP146	ltpFR	10	n/a	n/a	n/a	n/a	n/a	n/a	n/a	20	9	9	2	n/a	n/a	n/a	n/a	n/a
2491366	PROB	n/a	LTP146	ltpFR	10	n/a	n/a	n/a	n/a	n/a	n/a	n/a	21	3	6	6	n/a	n/a	n/a	n/a	n/a
2492558	STOP	n/a	LTP146	ltpFR	10	n/a	n/a	n/a	n/a	n/a	n/a	n/a	n/a	n/a	n/a	n/a	n/a	n/a	n/a	n/a	n/a
2495047	WORD	wordpools/wasnorm_wordpool.txt	LTP146	ltpFR	10	11	1	CORN	381	n/a	n/a	1	n/a	0	0	0	0.422607421875	0.5869140625	0	lower	amplitud.ttf
2498055	START	n/a	LTP146	ltpFR	10	n/a	n/a	n/a	n/a	n/a	n/a	n/a	n/a	n/a	n/a	n/a	n/a	n/a	n/a	n/a	n/a
2499096	PROB	n/a	LTP146	ltpFR	10	n/a	n/a	n/a	n/a	n/a	n/a	n/a	7	2	4	1	n/a	n/a	n/a	n/a	n/a
2500221	PROB	n/a	LTP146	ltpFR	10	n/a	n/a	n/a	n/a	n/a	n/a	n/a	20	7	9	4	n/a	n/a	n/a	n/a	n/a
2502346	PROB	n/a	LTP146	ltpFR	10	n/a	n/a	n/a	n/a	n/a	n/a	n/a	10	3	5	2	n/a	n/a	n/a	n/a	n/a
2504203	PROB	n/a	LTP146	ltpFR	10	n/a	n/a	n/a	n/a	n/a	n/a	n/a	6	1	3	2	n/a	n/a	n/a	n/a	n/a
2505709	STOP	n/a	LTP146	ltpFR	10	n/a	n/a	n/a	n/a	n/a	n/a	n/a	n/a	n/a	n/a	n/a	n/a	n/a	n/a	n/a	n/a
2507035	WORD	wordpools/wasnorm_wordpool.txt	LTP146	ltpFR	10	11	1	ICEBERG	731	n/a	n/a	0	n/a	0	0	0	0.422607421875	0.5869140625	0	lower	amplitud.ttf
2510042	START	n/a	LTP146	ltpFR	10	n/a	n/a	n/a	n/a	n/a	n/a	n/a	n/a	n/a	n/a	n/a	n/a	n/a	n/a	n/a	n/a
2511008	PROB	n/a	LTP146	ltpFR	10	n/a	n/a	n/a	n/a	n/a	n/a	n/a	17	4	5	8	n/a	n/a	n/a	n/a	n/a
2512699	PROB	n/a	LTP146	ltpFR	10	n/a	n/a	n/a	n/a	n/a	n/a	n/a	18	7	7	4	n/a	n/a	n/a	n/a	n/a
2514007	PROB	n/a	LTP146	ltpFR	10	n/a	n/a	n/a	n/a	n/a	n/a	n/a	15	3	7	5	n/a	n/a	n/a	n/a	n/a
2515166	PROB	n/a	LTP146	ltpFR	10	n/a	n/a	n/a	n/a	n/a	n/a	n/a	14	4	5	5	n/a	n/a	n/a	n/a	n/a
2516324	PROB	n/a	LTP146	ltpFR	10	n/a	n/a	n/a	n/a	n/a	n/a	n/a	15	7	5	3	n/a	n/a	n/a	n/a	n/a
2517510	STOP	n/a	LTP146	ltpFR	10	n/a	n/a	n/a	n/a	n/a	n/a	n/a	n/a	n/a	n/a	n/a	n/a	n/a	n/a	n/a	n/a
2519080	WORD	wordpools/wasnorm_wordpool.txt	LTP146	ltpFR	10	11	1	BRICK	172	n/a	n/a	0	n/a	0	0	0	0.422607421875	0.5869140625	0	lower	amplitud.ttf
2522088	START	n/a	LTP146	ltpFR	10	n/a	n/a	n/a	n/a	n/a	n/a	n/a	n/a	n/a	n/a	n/a	n/a	n/a	n/a	n/a	n/a
2523230	PROB	n/a	LTP146	ltpFR	10	n/a	n/a	n/a	n/a	n/a	n/a	n/a	16	1	7	8	n/a	n/a	n/a	n/a	n/a
2524887	PROB	n/a	LTP146	ltpFR	10	n/a	n/a	n/a	n/a	n/a	n/a	n/a	14	5	7	2	n/a	n/a	n/a	n/a	n/a
2526819	PROB	n/a	LTP146	ltpFR	10	n/a	n/a	n/a	n/a	n/a	n/a	n/a	21	9	6	6	n/a	n/a	n/a	n/a	n/a
2528869	STOP	n/a	LTP146	ltpFR	10	n/a	n/a	n/a	n/a	n/a	n/a	n/a	n/a	n/a	n/a	n/a	n/a	n/a	n/a	n/a	n/a
2531034	WORD	wordpools/wasnorm_wordpool.txt	LTP146	ltpFR	10	11	1	LINEN	825	n/a	n/a	0	n/a	0	0	0	0.422607421875	0.5869140625	0	lower	amplitud.ttf
2534042	START	n/a	LTP146	ltpFR	10	n/a	n/a	n/a	n/a	n/a	n/a	n/a	n/a	n/a	n/a	n/a	n/a	n/a	n/a	n/a	n/a
2535134	PROB	n/a	LTP146	ltpFR	10	n/a	n/a	n/a	n/a	n/a	n/a	n/a	17	5	5	7	n/a	n/a	n/a	n/a	n/a
2536284	PROB	n/a	LTP146	ltpFR	10	n/a	n/a	n/a	n/a	n/a	n/a	n/a	14	7	3	4	n/a	n/a	n/a	n/a	n/a
2537508	PROB	n/a	LTP146	ltpFR	10	n/a	n/a	n/a	n/a	n/a	n/a	n/a	11	4	6	1	n/a	n/a	n/a	n/a	n/a
2538616	PROB	n/a	LTP146	ltpFR	10	n/a	n/a	n/a	n/a	n/a	n/a	n/a	19	3	8	8	n/a	n/a	n/a	n/a	n/a
2540132	PROB	n/a	LTP146	ltpFR	10	n/a	n/a	n/a	n/a	n/a	n/a	n/a	6	1	2	3	n/a	n/a	n/a	n/a	n/a
2541061	STOP	n/a	LTP146	ltpFR	10	n/a	n/a	n/a	n/a	n/a	n/a	n/a	n/a	n/a	n/a	n/a	n/a	n/a	n/a	n/a	n/a
2542864	WORD	wordpools/wasnorm_wordpool.txt	LTP146	ltpFR	10	11	0	BRAKE	166	n/a	n/a	0	n/a	0	0	0	0.57763671875	0.412841796875	1	upper	zerothre.ttf
2545871	START	n/a	LTP146	ltpFR	10	n/a	n/a	n/a	n/a	n/a	n/a	n/a	n/a	n/a	n/a	n/a	n/a	n/a	n/a	n/a	n/a
2547037	PROB	n/a	LTP146	ltpFR	10	n/a	n/a	n/a	n/a	n/a	n/a	n/a	19	8	3	8	n/a	n/a	n/a	n/a	n/a
2548496	PROB	n/a	LTP146	ltpFR	10	n/a	n/a	n/a	n/a	n/a	n/a	n/a	12	2	3	7	n/a	n/a	n/a	n/a	n/a
2549744	PROB	n/a	LTP146	ltpFR	10	n/a	n/a	n/a	n/a	n/a	n/a	n/a	19	5	9	5	n/a	n/a	n/a	n/a	n/a
2551170	PROB	n/a	LTP146	ltpFR	10	n/a	n/a	n/a	n/a	n/a	n/a	n/a	19	8	3	8	n/a	n/a	n/a	n/a	n/a
2552877	STOP	n/a	LTP146	ltpFR	10	n/a	n/a	n/a	n/a	n/a	n/a	n/a	n/a	n/a	n/a	n/a	n/a	n/a	n/a	n/a	n/a
2554909	WORD	wordpools/wasnorm_wordpool.txt	LTP146	ltpFR	10	11	0	TREAT	1501	n/a	n/a	0	n/a	0	0	0	0.57763671875	0.412841796875	1	upper	zerothre.ttf
2557917	START	n/a	LTP146	ltpFR	10	n/a	n/a	n/a	n/a	n/a	n/a	n/a	n/a	n/a	n/a	n/a	n/a	n/a	n/a	n/a	n/a
2559083	PROB	n/a	LTP146	ltpFR	10	n/a	n/a	n/a	n/a	n/a	n/a	n/a	20	9	5	4	n/a	n/a	n/a	n/a	n/a
2561015	PROB	n/a	LTP146	ltpFR	10	n/a	n/a	n/a	n/a	n/a	n/a	n/a	21	7	5	9	n/a	n/a	n/a	n/a	n/a
2562856	PROB	n/a	LTP146	ltpFR	10	n/a	n/a	n/a	n/a	n/a	n/a	n/a	16	5	8	3	n/a	n/a	n/a	n/a	n/a
2564240	PROB	n/a	LTP146	ltpFR	10	n/a	n/a	n/a	n/a	n/a	n/a	n/a	12	4	6	2	n/a	n/a	n/a	n/a	n/a
2565206	STOP	n/a	LTP146	ltpFR	10	n/a	n/a	n/a	n/a	n/a	n/a	n/a	n/a	n/a	n/a	n/a	n/a	n/a	n/a	n/a	n/a
2566813	WORD	wordpools/wasnorm_wordpool.txt	LTP146	ltpFR	10	11	0	CHIME	300	n/a	n/a	0	n/a	0	0	0	0.57763671875	0.412841796875	1	upper	zerothre.ttf
2569821	START	n/a	LTP146	ltpFR	10	n/a	n/a	n/a	n/a	n/a	n/a	n/a	n/a	n/a	n/a	n/a	n/a	n/a	n/a	n/a	n/a
2570754	PROB	n/a	LTP146	ltpFR	10	n/a	n/a	n/a	n/a	n/a	n/a	n/a	20	4	7	9	n/a	n/a	n/a	n/a	n/a
2572321	PROB	n/a	LTP146	ltpFR	10	n/a	n/a	n/a	n/a	n/a	n/a	n/a	14	5	2	7	n/a	n/a	n/a	n/a	n/a
2573579	PROB	n/a	LTP146	ltpFR	10	n/a	n/a	n/a	n/a	n/a	n/a	n/a	13	6	2	5	n/a	n/a	n/a	n/a	n/a
2574777	PROB	n/a	LTP146	ltpFR	10	n/a	n/a	n/a	n/a	n/a	n/a	n/a	25	9	7	9	n/a	n/a	n/a	n/a	n/a
2576302	STOP	n/a	LTP146	ltpFR	10	n/a	n/a	n/a	n/a	n/a	n/a	n/a	n/a	n/a	n/a	n/a	n/a	n/a	n/a	n/a	n/a
2578967	WORD	wordpools/wasnorm_wordpool.txt	LTP146	ltpFR	10	11	0	COAT	333	n/a	n/a	0	n/a	0	0	0	0.57763671875	0.412841796875	1	upper	zerothre.ttf
2581975	START	n/a	LTP146	ltpFR	10	n/a	n/a	n/a	n/a	n/a	n/a	n/a	n/a	n/a	n/a	n/a	n/a	n/a	n/a	n/a	n/a
2582899	PROB	n/a	LTP146	ltpFR	10	n/a	n/a	n/a	n/a	n/a	n/a	n/a	20	4	9	7	n/a	n/a	n/a	n/a	n/a
2584690	PROB	n/a	LTP146	ltpFR	10	n/a	n/a	n/a	n/a	n/a	n/a	n/a	13	3	2	8	n/a	n/a	n/a	n/a	n/a
2586207	PROB	n/a	LTP146	ltpFR	10	n/a	n/a	n/a	n/a	n/a	n/a	n/a	12	5	5	2	n/a	n/a	n/a	n/a	n/a
2587165	PROB	n/a	LTP146	ltpFR	10	n/a	n/a	n/a	n/a	n/a	n/a	n/a	184	5	9	3	n/a	n/a	n/a	n/a	n/a
2588893	STOP	n/a	LTP146	ltpFR	10	n/a	n/a	n/a	n/a	n/a	n/a	n/a	n/a	n/a	n/a	n/a	n/a	n/a	n/a	n/a	n/a
2590938	WORD	wordpools/wasnorm_wordpool.txt	LTP146	ltpFR	10	11	1	WHEEL	1603	n/a	n/a	0	n/a	0	0	0	0.422607421875	0.5869140625	0	lower	amplitud.ttf
2593946	START	n/a	LTP146	ltpFR	10	n/a	n/a	n/a	n/a	n/a	n/a	n/a	n/a	n/a	n/a	n/a	n/a	n/a	n/a	n/a	n/a
2594978	PROB	n/a	LTP146	ltpFR	10	n/a	n/a	n/a	n/a	n/a	n/a	n/a	6	4	1	1	n/a	n/a	n/a	n/a	n/a
2596212	PROB	n/a	LTP146	ltpFR	10	n/a	n/a	n/a	n/a	n/a	n/a	n/a	11	5	1	5	n/a	n/a	n/a	n/a	n/a
2597203	PROB	n/a	LTP146	ltpFR	10	n/a	n/a	n/a	n/a	n/a	n/a	n/a	9	1	2	6	n/a	n/a	n/a	n/a	n/a
2598503	PROB	n/a	LTP146	ltpFR	10	n/a	n/a	n/a	n/a	n/a	n/a	n/a	13	3	3	7	n/a	n/a	n/a	n/a	n/a
2599611	PROB	n/a	LTP146	ltpFR	10	n/a	n/a	n/a	n/a	n/a	n/a	n/a	21	8	4	9	n/a	n/a	n/a	n/a	n/a
2601037	STOP	n/a	LTP146	ltpFR	10	n/a	n/a	n/a	n/a	n/a	n/a	n/a	n/a	n/a	n/a	n/a	n/a	n/a	n/a	n/a	n/a
2602884	WORD	wordpools/wasnorm_wordpool.txt	LTP146	ltpFR	10	11	1	BIKE	125	n/a	n/a	0	n/a	0	0	0	0.422607421875	0.5869140625	0	lower	amplitud.ttf
2605891	START	n/a	LTP146	ltpFR	10	n/a	n/a	n/a	n/a	n/a	n/a	n/a	n/a	n/a	n/a	n/a	n/a	n/a	n/a	n/a	n/a
2606716	PROB	n/a	LTP146	ltpFR	10	n/a	n/a	n/a	n/a	n/a	n/a	n/a	19	9	4	5	n/a	n/a	n/a	n/a	n/a
2608291	PROB	n/a	LTP146	ltpFR	10	n/a	n/a	n/a	n/a	n/a	n/a	n/a	15	6	2	7	n/a	n/a	n/a	n/a	n/a
2610081	PROB	n/a	LTP146	ltpFR	10	n/a	n/a	n/a	n/a	n/a	n/a	n/a	13	4	3	6	n/a	n/a	n/a	n/a	n/a
2611440	PROB	n/a	LTP146	ltpFR	10	n/a	n/a	n/a	n/a	n/a	n/a	n/a	15	9	5	1	n/a	n/a	n/a	n/a	n/a
2612590	STOP	n/a	LTP146	ltpFR	10	n/a	n/a	n/a	n/a	n/a	n/a	n/a	n/a	n/a	n/a	n/a	n/a	n/a	n/a	n/a	n/a
2614979	WORD	wordpools/wasnorm_wordpool.txt	LTP146	ltpFR	10	11	1	INMATE	738	n/a	n/a	0	n/a	0	0	0	0.422607421875	0.5869140625	0	lower	amplitud.ttf
2617987	START	n/a	LTP146	ltpFR	10	n/a	n/a	n/a	n/a	n/a	n/a	n/a	n/a	n/a	n/a	n/a	n/a	n/a	n/a	n/a	n/a
2618803	PROB	n/a	LTP146	ltpFR	10	n/a	n/a	n/a	n/a	n/a	n/a	n/a	14	7	1	6	n/a	n/a	n/a	n/a	n/a
2620069	PROB	n/a	LTP146	ltpFR	10	n/a	n/a	n/a	n/a	n/a	n/a	n/a	15	6	1	8	n/a	n/a	n/a	n/a	n/a
2621794	PROB	n/a	LTP146	ltpFR	10	n/a	n/a	n/a	n/a	n/a	n/a	n/a	19	9	2	8	n/a	n/a	n/a	n/a	n/a
2624236	PROB	n/a	LTP146	ltpFR	10	n/a	n/a	n/a	n/a	n/a	n/a	n/a	20	8	8	4	n/a	n/a	n/a	n/a	n/a
2625661	STOP	n/a	LTP146	ltpFR	10	n/a	n/a	n/a	n/a	n/a	n/a	n/a	n/a	n/a	n/a	n/a	n/a	n/a	n/a	n/a	n/a
2626809	WORD	wordpools/wasnorm_wordpool.txt	LTP146	ltpFR	10	11	1	FUGITIVE	612	n/a	n/a	1	n/a	0	0	0	0.422607421875	0.5869140625	0	lower	amplitud.ttf
2629816	START	n/a	LTP146	ltpFR	10	n/a	n/a	n/a	n/a	n/a	n/a	n/a	n/a	n/a	n/a	n/a	n/a	n/a	n/a	n/a	n/a
2630741	PROB	n/a	LTP146	ltpFR	10	n/a	n/a	n/a	n/a	n/a	n/a	n/a	21	8	6	7	n/a	n/a	n/a	n/a	n/a
2632224	PROB	n/a	LTP146	ltpFR	10	n/a	n/a	n/a	n/a	n/a	n/a	n/a	6	1	3	2	n/a	n/a	n/a	n/a	n/a
2633332	PROB	n/a	LTP146	ltpFR	10	n/a	n/a	n/a	n/a	n/a	n/a	n/a	14	7	2	5	n/a	n/a	n/a	n/a	n/a
2634582	PROB	n/a	LTP146	ltpFR	10	n/a	n/a	n/a	n/a	n/a	n/a	n/a	12	3	4	5	n/a	n/a	n/a	n/a	n/a
2636773	STOP	n/a	LTP146	ltpFR	10	n/a	n/a	n/a	n/a	n/a	n/a	n/a	n/a	n/a	n/a	n/a	n/a	n/a	n/a	n/a	n/a
2638888	WORD	wordpools/wasnorm_wordpool.txt	LTP146	ltpFR	10	11	0	BELL	118	n/a	n/a	0	n/a	0	0	0	0.57763671875	0.412841796875	1	upper	zerothre.ttf
2641895	START	n/a	LTP146	ltpFR	10	n/a	n/a	n/a	n/a	n/a	n/a	n/a	n/a	n/a	n/a	n/a	n/a	n/a	n/a	n/a	n/a
2643086	PROB	n/a	LTP146	ltpFR	10	n/a	n/a	n/a	n/a	n/a	n/a	n/a	13	7	3	3	n/a	n/a	n/a	n/a	n/a
2644220	PROB	n/a	LTP146	ltpFR	10	n/a	n/a	n/a	n/a	n/a	n/a	n/a	21	7	8	6	n/a	n/a	n/a	n/a	n/a
2645694	PROB	n/a	LTP146	ltpFR	10	n/a	n/a	n/a	n/a	n/a	n/a	n/a	17	6	7	4	n/a	n/a	n/a	n/a	n/a
2647884	PROB	n/a	LTP146	ltpFR	10	n/a	n/a	n/a	n/a	n/a	n/a	n/a	19	6	5	8	n/a	n/a	n/a	n/a	n/a
2649510	STOP	n/a	LTP146	ltpFR	10	n/a	n/a	n/a	n/a	n/a	n/a	n/a	n/a	n/a	n/a	n/a	n/a	n/a	n/a	n/a	n/a
2651101	WORD	wordpools/wasnorm_wordpool.txt	LTP146	ltpFR	10	11	0	SWIMMER	1420	n/a	n/a	2	n/a	0	0	0	0.57763671875	0.412841796875	1	upper	zerothre.ttf
2652409	KEY_MSG	n/a	LTP146	ltpFR	10	11	n/a	n/a	n/a	n/a	n/a	n/a	n/a	0	0	0	n/a	n/a	n/a	n/a	n/a
2654108	START	n/a	LTP146	ltpFR	10	n/a	n/a	n/a	n/a	n/a	n/a	n/a	n/a	n/a	n/a	n/a	n/a	n/a	n/a	n/a	n/a
2655032	PROB	n/a	LTP146	ltpFR	10	n/a	n/a	n/a	n/a	n/a	n/a	n/a	15	3	4	8	n/a	n/a	n/a	n/a	n/a
2656624	PROB	n/a	LTP146	ltpFR	10	n/a	n/a	n/a	n/a	n/a	n/a	n/a	11	3	7	1	n/a	n/a	n/a	n/a	n/a
2657773	PROB	n/a	LTP146	ltpFR	10	n/a	n/a	n/a	n/a	n/a	n/a	n/a	14	3	8	3	n/a	n/a	n/a	n/a	n/a
2659373	PROB	n/a	LTP146	ltpFR	10	n/a	n/a	n/a	n/a	n/a	n/a	n/a	11	2	6	3	n/a	n/a	n/a	n/a	n/a
2660917	STOP	n/a	LTP146	ltpFR	10	n/a	n/a	n/a	n/a	n/a	n/a	n/a	n/a	n/a	n/a	n/a	n/a	n/a	n/a	n/a	n/a
2663988	REC_START	n/a	LTP146	ltpFR	10	11	n/a	n/a	n/a	n/a	n/a	n/a	n/a	0	0	0	n/a	n/a	n/a	n/a	n/a
2664626	REC_WORD	wordpools/wasnorm_wordpool.txt	LTP146	ltpFR	10	11	0	SWIMMER	1420	n/a	n/a	2	n/a	0	0	0	n/a	n/a	n/a	n/a	n/a
2665659	REC_WORD	wordpools/wasnorm_wordpool.txt	LTP146	ltpFR	10	11	1	CORN	381	n/a	n/a	1	n/a	0	0	0	n/a	n/a	n/a	n/a	n/a
2666567	REC_WORD	wordpools/wasnorm_wordpool.txt	LTP146	ltpFR	10	11	1	INMATE	738	n/a	n/a	0	n/a	0	0	0	n/a	n/a	n/a	n/a	n/a
2667335	REC_WORD	wordpools/wasnorm_wordpool.txt	LTP146	ltpFR	10	11	1	FUGITIVE	612	n/a	n/a	1	n/a	0	0	0	n/a	n/a	n/a	n/a	n/a
2671166	REC_WORD	wordpools/wasnorm_wordpool.txt	LTP146	ltpFR	10	11	0	MAGICIAN	854	n/a	n/a	1	n/a	0	0	0	n/a	n/a	n/a	n/a	n/a
2672304	REC_WORD	wordpools/wasnorm_wordpool.txt	LTP146	ltpFR	10	11	0	WAITRESS	1581	n/a	n/a	1	n/a	0	0	0	n/a	n/a	n/a	n/a	n/a
2681568	REC_WORD	wordpools/wasnorm_wordpool.txt	LTP146	ltpFR	10	11	n/a	BICYCLE	-1	n/a	n/a	n/a	n/a	0	0	0	n/a	n/a	n/a	n/a	n/a
2684496	REC_WORD	wordpools/wasnorm_wordpool.txt	LTP146	ltpFR	10	11	1	BIKE	125	n/a	n/a	0	n/a	0	0	0	n/a	n/a	n/a	n/a	n/a
2702101	REC_WORD_VV	wordpools/wasnorm_wordpool.txt	LTP146	ltpFR	10	11	n/a	<>	-1	n/a	n/a	n/a	n/a	0	0	0	n/a	n/a	n/a	n/a	n/a
2712353	REC_WORD	wordpools/wasnorm_wordpool.txt	LTP146	ltpFR	10	11	0	BRAKE	166	n/a	n/a	0	n/a	0	0	0	n/a	n/a	n/a	n/a	n/a
2751798	START	n/a	LTP146	ltpFR	10	n/a	n/a	n/a	n/a	n/a	n/a	n/a	n/a	n/a	n/a	n/a	n/a	n/a	n/a	n/a	n/a
2753298	PROB	n/a	LTP146	ltpFR	10	n/a	n/a	n/a	n/a	n/a	n/a	n/a	19	7	3	9	n/a	n/a	n/a	n/a	n/a
2754830	PROB	n/a	LTP146	ltpFR	10	n/a	n/a	n/a	n/a	n/a	n/a	n/a	13	1	6	6	n/a	n/a	n/a	n/a	n/a
2755929	PROB	n/a	LTP146	ltpFR	10	n/a	n/a	n/a	n/a	n/a	n/a	n/a	19	6	4	8	n/a	n/a	n/a	n/a	n/a
2757330	PROB	n/a	LTP146	ltpFR	10	n/a	n/a	n/a	n/a	n/a	n/a	n/a	1	8	3	2	n/a	n/a	n/a	n/a	n/a
2758712	PROB	n/a	LTP146	ltpFR	10	n/a	n/a	n/a	n/a	n/a	n/a	n/a	12	1	2	9	n/a	n/a	n/a	n/a	n/a
2759994	PROB	n/a	LTP146	ltpFR	10	n/a	n/a	n/a	n/a	n/a	n/a	n/a	12	2	6	4	n/a	n/a	n/a	n/a	n/a
2761320	PROB	n/a	LTP146	ltpFR	10	n/a	n/a	n/a	n/a	n/a	n/a	n/a	10	1	5	4	n/a	n/a	n/a	n/a	n/a
2763403	PROB	n/a	LTP146	ltpFR	10	n/a	n/a	n/a	n/a	n/a	n/a	n/a	16	5	8	3	n/a	n/a	n/a	n/a	n/a
2764784	PROB	n/a	LTP146	ltpFR	10	n/a	n/a	n/a	n/a	n/a	n/a	n/a	11	7	1	2	n/a	n/a	n/a	n/a	n/a
2765959	PROB	n/a	LTP146	ltpFR	10	n/a	n/a	n/a	n/a	n/a	n/a	n/a	8	4	3	1	n/a	n/a	n/a	n/a	n/a
2767134	STOP	n/a	LTP146	ltpFR	10	n/a	n/a	n/a	n/a	n/a	n/a	n/a	n/a	n/a	n/a	n/a	n/a	n/a	n/a	n/a	n/a
2768908	WORD	wordpools/wasnorm_wordpool.txt	LTP146	ltpFR	10	12	0	AIRPLANE	12	n/a	n/a	1	n/a	0	0	0	0.57763671875	0.412841796875	1	upper	zerothre.ttf
2771916	START	n/a	LTP146	ltpFR	10	n/a	n/a	n/a	n/a	n/a	n/a	n/a	n/a	n/a	n/a	n/a	n/a	n/a	n/a	n/a	n/a
2772782	PROB	n/a	LTP146	ltpFR	10	n/a	n/a	n/a	n/a	n/a	n/a	n/a	17	4	5	8	n/a	n/a	n/a	n/a	n/a
2774557	PROB	n/a	LTP146	ltpFR	10	n/a	n/a	n/a	n/a	n/a	n/a	n/a	12	3	6	3	n/a	n/a	n/a	n/a	n/a
2775814	PROB	n/a	LTP146	ltpFR	10	n/a	n/a	n/a	n/a	n/a	n/a	n/a	13	2	7	4	n/a	n/a	n/a	n/a	n/a
2777523	PROB	n/a	LTP146	ltpFR	10	n/a	n/a	n/a	n/a	n/a	n/a	n/a	17	3	5	9	n/a	n/a	n/a	n/a	n/a
2779339	PROB	n/a	LTP146	ltpFR	10	n/a	n/a	n/a	n/a	n/a	n/a	n/a	14	5	5	4	n/a	n/a	n/a	n/a	n/a
2780380	PROB	n/a	LTP146	ltpFR	10	n/a	n/a	n/a	n/a	n/a	n/a	n/a	13	2	6	5	n/a	n/a	n/a	n/a	n/a
2782362	PROB	n/a	LTP146	ltpFR	10	n/a	n/a	n/a	n/a	n/a	n/a	n/a	15	5	1	9	n/a	n/a	n/a	n/a	n/a
2783894	PROB	n/a	LTP146	ltpFR	10	n/a	n/a	n/a	n/a	n/a	n/a	n/a	9	1	3	5	n/a	n/a	n/a	n/a	n/a
2785120	PROB	n/a	LTP146	ltpFR	10	n/a	n/a	n/a	n/a	n/a	n/a	n/a	23	8	5	9	n/a	n/a	n/a	n/a	n/a
2787270	STOP	n/a	LTP146	ltpFR	10	n/a	n/a	n/a	n/a	n/a	n/a	n/a	n/a	n/a	n/a	n/a	n/a	n/a	n/a	n/a	n/a
2789059	WORD	wordpools/wasnorm_wordpool.txt	LTP146	ltpFR	10	12	0	STEWARDESS	1381	n/a	n/a	1	n/a	0	0	0	0.57763671875	0.412841796875	1	upper	zerothre.ttf
2792067	START	n/a	LTP146	ltpFR	10	n/a	n/a	n/a	n/a	n/a	n/a	n/a	n/a	n/a	n/a	n/a	n/a	n/a	n/a	n/a	n/a
2792924	PROB	n/a	LTP146	ltpFR	10	n/a	n/a	n/a	n/a	n/a	n/a	n/a	17	6	5	6	n/a	n/a	n/a	n/a	n/a
2794250	PROB	n/a	LTP146	ltpFR	10	n/a	n/a	n/a	n/a	n/a	n/a	n/a	14	8	4	2	n/a	n/a	n/a	n/a	n/a
2795633	PROB	n/a	LTP146	ltpFR	10	n/a	n/a	n/a	n/a	n/a	n/a	n/a	16	7	3	6	n/a	n/a	n/a	n/a	n/a
2797399	PROB	n/a	LTP146	ltpFR	10	n/a	n/a	n/a	n/a	n/a	n/a	n/a	198	6	6	7	n/a	n/a	n/a	n/a	n/a
2799206	PROB	n/a	LTP146	ltpFR	10	n/a	n/a	n/a	n/a	n/a	n/a	n/a	9	4	4	1	n/a	n/a	n/a	n/a	n/a
2800289	PROB	n/a	LTP146	ltpFR	10	n/a	n/a	n/a	n/a	n/a	n/a	n/a	18	8	2	8	n/a	n/a	n/a	n/a	n/a
2802164	PROB	n/a	LTP146	ltpFR	10	n/a	n/a	n/a	n/a	n/a	n/a	n/a	11	1	2	8	n/a	n/a	n/a	n/a	n/a
2803272	PROB	n/a	LTP146	ltpFR	10	n/a	n/a	n/a	n/a	n/a	n/a	n/a	16	4	8	4	n/a	n/a	n/a	n/a	n/a
2805095	PROB	n/a	LTP146	ltpFR	10	n/a	n/a	n/a	n/a	n/a	n/a	n/a	15	5	2	8	n/a	n/a	n/a	n/a	n/a
2806562	PROB	n/a	LTP146	ltpFR	10	n/a	n/a	n/a	n/a	n/a	n/a	n/a	12	2	8	2	n/a	n/a	n/a	n/a	n/a
2807757	STOP	n/a	LTP146	ltpFR	10	n/a	n/a	n/a	n/a	n/a	n/a	n/a	n/a	n/a	n/a	n/a	n/a	n/a	n/a	n/a	n/a
2809027	WORD	wordpools/wasnorm_wordpool.txt	LTP146	ltpFR	10	12	0	WAITER	1580	n/a	n/a	1	n/a	0	0	0	0.57763671875	0.412841796875	1	upper	zerothre.ttf
2812035	START	n/a	LTP146	ltpFR	10	n/a	n/a	n/a	n/a	n/a	n/a	n/a	n/a	n/a	n/a	n/a	n/a	n/a	n/a	n/a	n/a
2813210	PROB	n/a	LTP146	ltpFR	10	n/a	n/a	n/a	n/a	n/a	n/a	n/a	10	1	6	3	n/a	n/a	n/a	n/a	n/a
2814643	PROB	n/a	LTP146	ltpFR	10	n/a	n/a	n/a	n/a	n/a	n/a	n/a	8	5	2	1	n/a	n/a	n/a	n/a	n/a
2815808	PROB	n/a	LTP146	ltpFR	10	n/a	n/a	n/a	n/a	n/a	n/a	n/a	20	9	8	3	n/a	n/a	n/a	n/a	n/a
2817533	PROB	n/a	LTP146	ltpFR	10	n/a	n/a	n/a	n/a	n/a	n/a	n/a	14	2	5	7	n/a	n/a	n/a	n/a	n/a
2818998	PROB	n/a	LTP146	ltpFR	10	n/a	n/a	n/a	n/a	n/a	n/a	n/a	14	1	4	9	n/a	n/a	n/a	n/a	n/a
2820332	PROB	n/a	LTP146	ltpFR	10	n/a	n/a	n/a	n/a	n/a	n/a	n/a	12	5	1	6	n/a	n/a	n/a	n/a	n/a
2821906	PROB	n/a	LTP146	ltpFR	10	n/a	n/a	n/a	n/a	n/a	n/a	n/a	11	5	1	5	n/a	n/a	n/a	n/a	n/a
2822955	PROB	n/a	LTP146	ltpFR	10	n/a	n/a	n/a	n/a	n/a	n/a	n/a	15	4	3	8	n/a	n/a	n/a	n/a	n/a
2826338	PROB	n/a	LTP146	ltpFR	10	n/a	n/a	n/a	n/a	n/a	n/a	n/a	7	1	3	3	n/a	n/a	n/a	n/a	n/a
2827638	STOP	n/a	LTP146	ltpFR	10	n/a	n/a	n/a	n/a	n/a	n/a	n/a	n/a	n/a	n/a	n/a	n/a	n/a	n/a	n/a	n/a
2829020	WORD	wordpools/wasnorm_wordpool.txt	LTP146	ltpFR	10	12	0	BOOT	150	n/a	n/a	1	n/a	0	0	0	0.57763671875	0.412841796875	1	upper	zerothre.ttf
2832028	START	n/a	LTP146	ltpFR	10	n/a	n/a	n/a	n/a	n/a	n/a	n/a	n/a	n/a	n/a	n/a	n/a	n/a	n/a	n/a	n/a
2832952	PROB	n/a	LTP146	ltpFR	10	n/a	n/a	n/a	n/a	n/a	n/a	n/a	18	6	7	5	n/a	n/a	n/a	n/a	n/a
2834544	PROB	n/a	LTP146	ltpFR	10	n/a	n/a	n/a	n/a	n/a	n/a	n/a	19	7	5	7	n/a	n/a	n/a	n/a	n/a
2835967	PROB	n/a	LTP146	ltpFR	10	n/a	n/a	n/a	n/a	n/a	n/a	n/a	8	3	1	4	n/a	n/a	n/a	n/a	n/a
2837268	PROB	n/a	LTP146	ltpFR	10	n/a	n/a	n/a	n/a	n/a	n/a	n/a	16	3	4	9	n/a	n/a	n/a	n/a	n/a
2839201	PROB	n/a	LTP146	ltpFR	10	n/a	n/a	n/a	n/a	n/a	n/a	n/a	16	8	7	1	n/a	n/a	n/a	n/a	n/a
2840782	PROB	n/a	LTP146	ltpFR	10	n/a	n/a	n/a	n/a	n/a	n/a	n/a	16	7	6	3	n/a	n/a	n/a	n/a	n/a
2842308	PROB	n/a	LTP146	ltpFR	10	n/a	n/a	n/a	n/a	n/a	n/a	n/a	9	3	1	5	n/a	n/a	n/a	n/a	n/a
2844315	PROB	n/a	LTP146	ltpFR	10	n/a	n/a	n/a	n/a	n/a	n/a	n/a	7	2	3	2	n/a	n/a	n/a	n/a	n/a
2846055	PROB	n/a	LTP146	ltpFR	10	n/a	n/a	n/a	n/a	n/a	n/a	n/a	14	6	6	2	n/a	n/a	n/a	n/a	n/a
2847685	STOP	n/a	LTP146	ltpFR	10	n/a	n/a	n/a	n/a	n/a	n/a	n/a	n/a	n/a	n/a	n/a	n/a	n/a	n/a	n/a	n/a
2848996	WORD	wordpools/wasnorm_wordpool.txt	LTP146	ltpFR	10	12	0	CARPET	247	n/a	n/a	0	n/a	0	0	0	0.57763671875	0.412841796875	1	upper	zerothre.ttf
2852004	START	n/a	LTP146	ltpFR	10	n/a	n/a	n/a	n/a	n/a	n/a	n/a	n/a	n/a	n/a	n/a	n/a	n/a	n/a	n/a	n/a
2853129	PROB	n/a	LTP146	ltpFR	10	n/a	n/a	n/a	n/a	n/a	n/a	n/a	20	9	3	8	n/a	n/a	n/a	n/a	n/a
2854936	PROB	n/a	LTP146	ltpFR	10	n/a	n/a	n/a	n/a	n/a	n/a	n/a	20	6	5	9	n/a	n/a	n/a	n/a	n/a
2856586	PROB	n/a	LTP146	ltpFR	10	n/a	n/a	n/a	n/a	n/a	n/a	n/a	8	2	2	4	n/a	n/a	n/a	n/a	n/a
2857627	PROB	n/a	LTP146	ltpFR	10	n/a	n/a	n/a	n/a	n/a	n/a	n/a	14	8	5	1	n/a	n/a	n/a	n/a	n/a
2859026	PROB	n/a	LTP146	ltpFR	10	n/a	n/a	n/a	n/a	n/a	n/a	n/a	12	3	6	3	n/a	n/a	n/a	n/a	n/a
2860293	PROB	n/a	LTP146	ltpFR	10	n/a	n/a	n/a	n/a	n/a	n/a	n/a	15	5	3	7	n/a	n/a	n/a	n/a	n/a
2861609	PROB	n/a	LTP146	ltpFR	10	n/a	n/a	n/a	n/a	n/a	n/a	n/a	14	3	4	7	n/a	n/a	n/a	n/a	n/a
2862849	PROB	n/a	LTP146	ltpFR	10	n/a	n/a	n/a	n/a	n/a	n/a	n/a	19	5	8	6	n/a	n/a	n/a	n/a	n/a
2865015	PROB	n/a	LTP146	ltpFR	10	n/a	n/a	n/a	n/a	n/a	n/a	n/a	19	5	5	9	n/a	n/a	n/a	n/a	n/a
2866183	PROB	n/a	LTP146	ltpFR	10	n/a	n/a	n/a	n/a	n/a	n/a	n/a	17	9	1	7	n/a	n/a	n/a	n/a	n/a
2867566	STOP	n/a	LTP146	ltpFR	10	n/a	n/a	n/a	n/a	n/a	n/a	n/a	n/a	n/a	n/a	n/a	n/a	n/a	n/a	n/a	n/a
2869014	WORD	wordpools/wasnorm_wordpool.txt	LTP146	ltpFR	10	12	0	ASTEROID	50	n/a	n/a	1	n/a	0	0	0	0.57763671875	0.412841796875	1	upper	zerothre.ttf
2872022	START	n/a	LTP146	ltpFR	10	n/a	n/a	n/a	n/a	n/a	n/a	n/a	n/a	n/a	n/a	n/a	n/a	n/a	n/a	n/a	n/a
2872829	PROB	n/a	LTP146	ltpFR	10	n/a	n/a	n/a	n/a	n/a	n/a	n/a	14	4	6	4	n/a	n/a	n/a	n/a	n/a
2874571	PROB	n/a	LTP146	ltpFR	10	n/a	n/a	n/a	n/a	n/a	n/a	n/a	20	5	8	7	n/a	n/a	n/a	n/a	n/a
2876237	PROB	n/a	LTP146	ltpFR	10	n/a	n/a	n/a	n/a	n/a	n/a	n/a	21	8	9	5	n/a	n/a	n/a	n/a	n/a
2878094	PROB	n/a	LTP146	ltpFR	10	n/a	n/a	n/a	n/a	n/a	n/a	n/a	12	3	7	2	n/a	n/a	n/a	n/a	n/a
2879353	PROB	n/a	LTP146	ltpFR	10	n/a	n/a	n/a	n/a	n/a	n/a	n/a	12	2	6	4	n/a	n/a	n/a	n/a	n/a
2880544	PROB	n/a	LTP146	ltpFR	10	n/a	n/a	n/a	n/a	n/a	n/a	n/a	23	6	9	7	n/a	n/a	n/a	n/a	n/a
2882009	PROB	n/a	LTP146	ltpFR	10	n/a	n/a	n/a	n/a	n/a	n/a	n/a	22	8	6	7	n/a	n/a	n/a	n/a	n/a
2883775	PROB	n/a	LTP146	ltpFR	10	n/a	n/a	n/a	n/a	n/a	n/a	n/a	16	2	5	9	n/a	n/a	n/a	n/a	n/a
2885317	PROB	n/a	LTP146	ltpFR	10	n/a	n/a	n/a	n/a	n/a	n/a	n/a	9	5	1	3	n/a	n/a	n/a	n/a	n/a
2887502	STOP	n/a	LTP146	ltpFR	10	n/a	n/a	n/a	n/a	n/a	n/a	n/a	n/a	n/a	n/a	n/a	n/a	n/a	n/a	n/a	n/a
