mstime	trial_type	stim_file	subject	experiment	session	trial	item_name	item_num	list	answer	test_x	test_y	test_z
0	SESS_START	n/a	LTP344	ltpFR2	11	n/a	n/a	n/a	n/a	n/a	0	0	0
13913	START	n/a	LTP344	ltpFR2	11	n/a	n/a	n/a	-1	n/a	n/a	n/a	n/a
13944	PROB	n/a	LTP344	ltpFR2	11	n/a	n/a	n/a	-1	15	7	6	2
16076	PROB	n/a	LTP344	ltpFR2	11	n/a	n/a	n/a	-1	15	4	4	7
17660	PROB	n/a	LTP344	ltpFR2	11	n/a	n/a	n/a	-1	12	3	8	1
19376	PROB	n/a	LTP344	ltpFR2	11	n/a	n/a	n/a	-1	13	3	7	3
20425	PROB	n/a	LTP344	ltpFR2	11	n/a	n/a	n/a	-1	13	8	1	4
21708	PROB	n/a	LTP344	ltpFR2	11	n/a	n/a	n/a	-1	17	4	5	8
23424	PROB	n/a	LTP344	ltpFR2	11	n/a	n/a	n/a	-1	14	1	8	5
24653	STOP	n/a	LTP344	ltpFR2	11	n/a	n/a	n/a	-1	n/a	n/a	n/a	n/a
73251	WORD	wordpools/wasnorm_wordpool_576.txt	LTP344	ltpFR2	11	1	DRIVER	499	n/a	n/a	0	0	0
76066	WORD	wordpools/wasnorm_wordpool_576.txt	LTP344	ltpFR2	11	1	PLAZA	1088	n/a	n/a	0	0	0
78582	WORD	wordpools/wasnorm_wordpool_576.txt	LTP344	ltpFR2	11	1	HERO	706	n/a	n/a	0	0	0
81298	WORD	wordpools/wasnorm_wordpool_576.txt	LTP344	ltpFR2	11	1	CASKET	255	n/a	n/a	0	0	0
84046	WORD	wordpools/wasnorm_wordpool_576.txt	LTP344	ltpFR2	11	1	MARSH	874	n/a	n/a	0	0	0
86679	WORD	wordpools/wasnorm_wordpool_576.txt	LTP344	ltpFR2	11	1	LETTUCE	814	n/a	n/a	0	0	0
89160	WORD	wordpools/wasnorm_wordpool_576.txt	LTP344	ltpFR2	11	1	GARBAGE	622	n/a	n/a	0	0	0
91626	WORD	wordpools/wasnorm_wordpool_576.txt	LTP344	ltpFR2	11	1	JAPAN	749	n/a	n/a	0	0	0
94275	WORD	wordpools/wasnorm_wordpool_576.txt	LTP344	ltpFR2	11	1	HUMAN	726	n/a	n/a	0	0	0
96906	WORD	wordpools/wasnorm_wordpool_576.txt	LTP344	ltpFR2	11	1	LAKE	796	n/a	n/a	0	0	0
99706	WORD	wordpools/wasnorm_wordpool_576.txt	LTP344	ltpFR2	11	1	VALVE	1546	n/a	n/a	0	0	0
102305	WORD	wordpools/wasnorm_wordpool_576.txt	LTP344	ltpFR2	11	1	HIGHWAY	707	n/a	n/a	0	0	0
104836	WORD	wordpools/wasnorm_wordpool_576.txt	LTP344	ltpFR2	11	1	CRAYON	401	n/a	n/a	0	0	0
107470	WORD	wordpools/wasnorm_wordpool_576.txt	LTP344	ltpFR2	11	1	TUNNEL	1519	n/a	n/a	0	0	0
110067	WORD	wordpools/wasnorm_wordpool_576.txt	LTP344	ltpFR2	11	1	PLAYGROUND	1087	n/a	n/a	0	0	0
112767	WORD	wordpools/wasnorm_wordpool_576.txt	LTP344	ltpFR2	11	1	SLIDE	1326	n/a	n/a	0	0	0
115232	WORD	wordpools/wasnorm_wordpool_576.txt	LTP344	ltpFR2	11	1	COD	340	n/a	n/a	0	0	0
117748	WORD	wordpools/wasnorm_wordpool_576.txt	LTP344	ltpFR2	11	1	LIPSTICK	829	n/a	n/a	0	0	0
120347	WORD	wordpools/wasnorm_wordpool_576.txt	LTP344	ltpFR2	11	1	FUNGUS	614	n/a	n/a	0	0	0
122945	WORD	wordpools/wasnorm_wordpool_576.txt	LTP344	ltpFR2	11	1	SNACK	1331	n/a	n/a	0	0	0
125561	WORD	wordpools/wasnorm_wordpool_576.txt	LTP344	ltpFR2	11	1	BANQUET	86	n/a	n/a	0	0	0
128360	WORD	wordpools/wasnorm_wordpool_576.txt	LTP344	ltpFR2	11	1	NOVEL	960	n/a	n/a	0	0	0
131175	WORD	wordpools/wasnorm_wordpool_576.txt	LTP344	ltpFR2	11	1	PEANUT	1032	n/a	n/a	0	0	0
133741	WORD	wordpools/wasnorm_wordpool_576.txt	LTP344	ltpFR2	11	1	ASIA	46	n/a	n/a	0	0	0
135357	START	n/a	LTP344	ltpFR2	11	n/a	n/a	n/a	1	n/a	n/a	n/a	n/a
136358	DISTRACTOR	n/a	LTP344	ltpFR2	11	1	n/a	n/a	n/a	n/a	0	0	0
136373	PROB	n/a	LTP344	ltpFR2	11	n/a	n/a	n/a	1	11	2	4	5
137904	PROB	n/a	LTP344	ltpFR2	11	n/a	n/a	n/a	1	18	8	6	4
139421	PROB	n/a	LTP344	ltpFR2	11	n/a	n/a	n/a	1	9	6	2	1
140438	PROB	n/a	LTP344	ltpFR2	11	n/a	n/a	n/a	1	15	7	1	7
141454	PROB	n/a	LTP344	ltpFR2	11	n/a	n/a	n/a	1	19	7	9	3
143486	PROB	n/a	LTP344	ltpFR2	11	n/a	n/a	n/a	1	22	5	9	8
145084	PROB	n/a	LTP344	ltpFR2	11	n/a	n/a	n/a	1	9	2	1	6
146335	PROB	n/a	LTP344	ltpFR2	11	n/a	n/a	n/a	1	15	1	6	8
147651	PROB	n/a	LTP344	ltpFR2	11	n/a	n/a	n/a	1	7	3	3	1
148667	PROB	n/a	LTP344	ltpFR2	11	n/a	n/a	n/a	1	17	7	1	9
150450	PROB	n/a	LTP344	ltpFR2	11	n/a	n/a	n/a	1	113	3	2	8
151816	PROB	n/a	LTP344	ltpFR2	11	n/a	n/a	n/a	1	16	8	3	5
154830	PROB	n/a	LTP344	ltpFR2	11	n/a	n/a	n/a	1	9	5	2	2
155896	PROB	n/a	LTP344	ltpFR2	11	n/a	n/a	n/a	1	23	9	5	9
157480	PROB	n/a	LTP344	ltpFR2	11	n/a	n/a	n/a	1	18	8	8	2
158777	STOP	n/a	LTP344	ltpFR2	11	n/a	n/a	n/a	1	n/a	n/a	n/a	n/a
161144	REC_START	n/a	LTP344	ltpFR2	11	1	n/a	n/a	n/a	n/a	0	0	0
161840	REC_WORD	wordpools/wasnorm_wordpool_576.txt	LTP344	ltpFR2	11	1	DRIVER	499	n/a	n/a	0	0	0
162933	REC_WORD	wordpools/wasnorm_wordpool_576.txt	LTP344	ltpFR2	11	1	HUMAN	726	n/a	n/a	0	0	0
164067	REC_WORD	wordpools/wasnorm_wordpool_576.txt	LTP344	ltpFR2	11	1	MARSH	874	n/a	n/a	0	0	0
167320	REC_WORD	wordpools/wasnorm_wordpool_576.txt	LTP344	ltpFR2	11	1	FUNGUS	614	n/a	n/a	0	0	0
170591	REC_WORD	wordpools/wasnorm_wordpool_576.txt	LTP344	ltpFR2	11	1	CASKET	255	n/a	n/a	0	0	0
171888	REC_WORD	wordpools/wasnorm_wordpool_576.txt	LTP344	ltpFR2	11	1	HERO	706	n/a	n/a	0	0	0
172878	REC_WORD	wordpools/wasnorm_wordpool_576.txt	LTP344	ltpFR2	11	1	PLAZA	1088	n/a	n/a	0	0	0
176428	REC_WORD	wordpools/wasnorm_wordpool_576.txt	LTP344	ltpFR2	11	1	LIPSTICK	829	n/a	n/a	0	0	0
195285	REC_WORD	wordpools/wasnorm_wordpool_576.txt	LTP344	ltpFR2	11	1	PEANUT	1032	n/a	n/a	0	0	0
211912	REC_WORD	wordpools/wasnorm_wordpool_576.txt	LTP344	ltpFR2	11	1	NOVEL	960	n/a	n/a	0	0	0
251604	WORD	wordpools/wasnorm_wordpool_576.txt	LTP344	ltpFR2	11	2	FIREMAN	569	n/a	n/a	0	0	0
254168	WORD	wordpools/wasnorm_wordpool_576.txt	LTP344	ltpFR2	11	2	POCKET	1093	n/a	n/a	0	0	0
256635	WORD	wordpools/wasnorm_wordpool_576.txt	LTP344	ltpFR2	11	2	OFFICE	972	n/a	n/a	0	0	0
259217	WORD	wordpools/wasnorm_wordpool_576.txt	LTP344	ltpFR2	11	2	TYPIST	1532	n/a	n/a	0	0	0
261749	WORD	wordpools/wasnorm_wordpool_576.txt	LTP344	ltpFR2	11	2	DAUGHTER	442	n/a	n/a	0	0	0
264365	WORD	wordpools/wasnorm_wordpool_576.txt	LTP344	ltpFR2	11	2	JEANS	752	n/a	n/a	0	0	0
266846	WORD	wordpools/wasnorm_wordpool_576.txt	LTP344	ltpFR2	11	2	VAGRANT	1544	n/a	n/a	0	0	0
269446	WORD	wordpools/wasnorm_wordpool_576.txt	LTP344	ltpFR2	11	2	DORM	488	n/a	n/a	0	0	0
272094	WORD	wordpools/wasnorm_wordpool_576.txt	LTP344	ltpFR2	11	2	SKIRT	1319	n/a	n/a	0	0	0
274926	WORD	wordpools/wasnorm_wordpool_576.txt	LTP344	ltpFR2	11	2	RAFT	1159	n/a	n/a	0	0	0
277592	WORD	wordpools/wasnorm_wordpool_576.txt	LTP344	ltpFR2	11	2	PUDDLE	1140	n/a	n/a	0	0	0
280107	WORD	wordpools/wasnorm_wordpool_576.txt	LTP344	ltpFR2	11	2	THIEF	1456	n/a	n/a	0	0	0
282807	WORD	wordpools/wasnorm_wordpool_576.txt	LTP344	ltpFR2	11	2	CIGAR	308	n/a	n/a	0	0	0
285455	WORD	wordpools/wasnorm_wordpool_576.txt	LTP344	ltpFR2	11	2	MARINE	869	n/a	n/a	0	0	0
288237	WORD	wordpools/wasnorm_wordpool_576.txt	LTP344	ltpFR2	11	2	GOBLIN	645	n/a	n/a	0	0	0
290753	WORD	wordpools/wasnorm_wordpool_576.txt	LTP344	ltpFR2	11	2	SMOG	1330	n/a	n/a	0	0	0
293452	WORD	wordpools/wasnorm_wordpool_576.txt	LTP344	ltpFR2	11	2	BLENDER	136	n/a	n/a	0	0	0
295933	WORD	wordpools/wasnorm_wordpool_576.txt	LTP344	ltpFR2	11	2	APRON	35	n/a	n/a	0	0	0
298649	WORD	wordpools/wasnorm_wordpool_576.txt	LTP344	ltpFR2	11	2	DONOR	485	n/a	n/a	0	0	0
301198	WORD	wordpools/wasnorm_wordpool_576.txt	LTP344	ltpFR2	11	2	SEAL	1262	n/a	n/a	0	0	0
303814	WORD	wordpools/wasnorm_wordpool_576.txt	LTP344	ltpFR2	11	2	WRIST	1626	n/a	n/a	0	0	0
306346	WORD	wordpools/wasnorm_wordpool_576.txt	LTP344	ltpFR2	11	2	CLOCK	325	n/a	n/a	0	0	0
308844	WORD	wordpools/wasnorm_wordpool_576.txt	LTP344	ltpFR2	11	2	HORNET	718	n/a	n/a	0	0	0
311510	WORD	wordpools/wasnorm_wordpool_576.txt	LTP344	ltpFR2	11	2	STOVE	1388	n/a	n/a	0	0	0
313125	START	n/a	LTP344	ltpFR2	11	n/a	n/a	n/a	2	n/a	n/a	n/a	n/a
314322	DISTRACTOR	n/a	LTP344	ltpFR2	11	2	n/a	n/a	n/a	n/a	0	0	0
314326	PROB	n/a	LTP344	ltpFR2	11	n/a	n/a	n/a	2	14	6	1	7
315625	PROB	n/a	LTP344	ltpFR2	11	n/a	n/a	n/a	2	14	6	5	3
317741	PROB	n/a	LTP344	ltpFR2	11	n/a	n/a	n/a	2	17	4	6	7
319423	PROB	n/a	LTP344	ltpFR2	11	n/a	n/a	n/a	2	20	6	5	9
320988	PROB	n/a	LTP344	ltpFR2	11	n/a	n/a	n/a	2	20	9	9	2
322222	PROB	n/a	LTP344	ltpFR2	11	n/a	n/a	n/a	2	6	2	1	3
323705	PROB	n/a	LTP344	ltpFR2	11	n/a	n/a	n/a	2	12	3	4	5
325754	PROB	n/a	LTP344	ltpFR2	11	n/a	n/a	n/a	2	8	5	1	2
326969	PROB	n/a	LTP344	ltpFR2	11	n/a	n/a	n/a	2	11	6	4	1
328002	PROB	n/a	LTP344	ltpFR2	11	n/a	n/a	n/a	2	15	1	8	6
329369	PROB	n/a	LTP344	ltpFR2	11	n/a	n/a	n/a	2	11	1	1	9
330402	PROB	n/a	LTP344	ltpFR2	11	n/a	n/a	n/a	2	14	9	3	2
332150	PROB	n/a	LTP344	ltpFR2	11	n/a	n/a	n/a	2	24	8	8	8
333267	PROB	n/a	LTP344	ltpFR2	11	n/a	n/a	n/a	2	21	9	3	9
334999	PROB	n/a	LTP344	ltpFR2	11	n/a	n/a	n/a	2	20	2	9	9
336223	STOP	n/a	LTP344	ltpFR2	11	n/a	n/a	n/a	2	n/a	n/a	n/a	n/a
338897	REC_START	n/a	LTP344	ltpFR2	11	2	n/a	n/a	n/a	n/a	0	0	0
339650	REC_WORD	wordpools/wasnorm_wordpool_576.txt	LTP344	ltpFR2	11	2	FIREMAN	569	n/a	n/a	0	0	0
341709	REC_WORD	wordpools/wasnorm_wordpool_576.txt	LTP344	ltpFR2	11	2	POCKET	1093	n/a	n/a	0	0	0
342700	REC_WORD	wordpools/wasnorm_wordpool_576.txt	LTP344	ltpFR2	11	2	OFFICE	972	n/a	n/a	0	0	0
343565	REC_WORD	wordpools/wasnorm_wordpool_576.txt	LTP344	ltpFR2	11	2	TYPIST	1532	n/a	n/a	0	0	0
344645	REC_WORD	wordpools/wasnorm_wordpool_576.txt	LTP344	ltpFR2	11	2	DAUGHTER	442	n/a	n/a	0	0	0
345640	REC_WORD	wordpools/wasnorm_wordpool_576.txt	LTP344	ltpFR2	11	2	JEANS	752	n/a	n/a	0	0	0
346620	REC_WORD	wordpools/wasnorm_wordpool_576.txt	LTP344	ltpFR2	11	2	SKIRT	1319	n/a	n/a	0	0	0
348012	REC_WORD	wordpools/wasnorm_wordpool_576.txt	LTP344	ltpFR2	11	2	VAGRANT	1544	n/a	n/a	0	0	0
349301	REC_WORD	wordpools/wasnorm_wordpool_576.txt	LTP344	ltpFR2	11	2	DORM	488	n/a	n/a	0	0	0
350378	REC_WORD	wordpools/wasnorm_wordpool_576.txt	LTP344	ltpFR2	11	2	THIEF	1456	n/a	n/a	0	0	0
351887	REC_WORD	wordpools/wasnorm_wordpool_576.txt	LTP344	ltpFR2	11	2	GOBLIN	645	n/a	n/a	0	0	0
353527	REC_WORD	wordpools/wasnorm_wordpool_576.txt	LTP344	ltpFR2	11	2	BLENDER	136	n/a	n/a	0	0	0
354982	REC_WORD	wordpools/wasnorm_wordpool_576.txt	LTP344	ltpFR2	11	2	STOVE	1388	n/a	n/a	0	0	0
357644	REC_WORD	wordpools/wasnorm_wordpool_576.txt	LTP344	ltpFR2	11	2	HORNET	718	n/a	n/a	0	0	0
359696	REC_WORD	wordpools/wasnorm_wordpool_576.txt	LTP344	ltpFR2	11	2	PUDDLE	1140	n/a	n/a	0	0	0
360273	REC_WORD	wordpools/wasnorm_wordpool_576.txt	LTP344	ltpFR2	11	2	RAFT	1159	n/a	n/a	0	0	0
364188	REC_WORD	wordpools/wasnorm_wordpool_576.txt	LTP344	ltpFR2	11	2	SEAL	1262	n/a	n/a	0	0	0
366610	REC_WORD	wordpools/wasnorm_wordpool_576.txt	LTP344	ltpFR2	11	2	DONOR	485	n/a	n/a	0	0	0
373656	REC_WORD	wordpools/wasnorm_wordpool_576.txt	LTP344	ltpFR2	11	2	APRON	35	n/a	n/a	0	0	0
429340	WORD	wordpools/wasnorm_wordpool_576.txt	LTP344	ltpFR2	11	3	RATTLE	1170	n/a	n/a	0	0	0
431988	WORD	wordpools/wasnorm_wordpool_576.txt	LTP344	ltpFR2	11	3	HOOD	714	n/a	n/a	0	0	0
434438	WORD	wordpools/wasnorm_wordpool_576.txt	LTP344	ltpFR2	11	3	SUPPER	1411	n/a	n/a	0	0	0
437052	WORD	wordpools/wasnorm_wordpool_576.txt	LTP344	ltpFR2	11	3	PIMPLE	1071	n/a	n/a	0	0	0
439719	WORD	wordpools/wasnorm_wordpool_576.txt	LTP344	ltpFR2	11	3	COMPASS	358	n/a	n/a	0	0	0
442218	WORD	wordpools/wasnorm_wordpool_576.txt	LTP344	ltpFR2	11	3	MEDAL	885	n/a	n/a	0	0	0
444800	WORD	wordpools/wasnorm_wordpool_576.txt	LTP344	ltpFR2	11	3	BATHTUB	100	n/a	n/a	0	0	0
447415	WORD	wordpools/wasnorm_wordpool_576.txt	LTP344	ltpFR2	11	3	BELLY	119	n/a	n/a	0	0	0
449930	WORD	wordpools/wasnorm_wordpool_576.txt	LTP344	ltpFR2	11	3	HOUND	724	n/a	n/a	0	0	0
452430	WORD	wordpools/wasnorm_wordpool_576.txt	LTP344	ltpFR2	11	3	PATROL	1027	n/a	n/a	0	0	0
454911	WORD	wordpools/wasnorm_wordpool_576.txt	LTP344	ltpFR2	11	3	PADDING	999	n/a	n/a	0	0	0
457561	WORD	wordpools/wasnorm_wordpool_576.txt	LTP344	ltpFR2	11	3	TILE	1468	n/a	n/a	0	0	0
460193	WORD	wordpools/wasnorm_wordpool_576.txt	LTP344	ltpFR2	11	3	RUG	1215	n/a	n/a	0	0	0
462891	WORD	wordpools/wasnorm_wordpool_576.txt	LTP344	ltpFR2	11	3	GRAPE	654	n/a	n/a	0	0	0
465424	WORD	wordpools/wasnorm_wordpool_576.txt	LTP344	ltpFR2	11	3	FRUIT	610	n/a	n/a	0	0	0
467955	WORD	wordpools/wasnorm_wordpool_576.txt	LTP344	ltpFR2	11	3	DRAGON	492	n/a	n/a	0	0	0
470755	WORD	wordpools/wasnorm_wordpool_576.txt	LTP344	ltpFR2	11	3	LIZARD	834	n/a	n/a	0	0	0
473504	WORD	wordpools/wasnorm_wordpool_576.txt	LTP344	ltpFR2	11	3	MILK	895	n/a	n/a	0	0	0
476286	WORD	wordpools/wasnorm_wordpool_576.txt	LTP344	ltpFR2	11	3	BREAST	171	n/a	n/a	0	0	0
478850	WORD	wordpools/wasnorm_wordpool_576.txt	LTP344	ltpFR2	11	3	SISTER	1312	n/a	n/a	0	0	0
481300	WORD	wordpools/wasnorm_wordpool_576.txt	LTP344	ltpFR2	11	3	MAILMAN	858	n/a	n/a	0	0	0
483898	WORD	wordpools/wasnorm_wordpool_576.txt	LTP344	ltpFR2	11	3	HOOK	715	n/a	n/a	0	0	0
486414	WORD	wordpools/wasnorm_wordpool_576.txt	LTP344	ltpFR2	11	3	DUSTPAN	509	n/a	n/a	0	0	0
488846	WORD	wordpools/wasnorm_wordpool_576.txt	LTP344	ltpFR2	11	3	NECKLACE	940	n/a	n/a	0	0	0
490463	START	n/a	LTP344	ltpFR2	11	n/a	n/a	n/a	3	n/a	n/a	n/a	n/a
491530	DISTRACTOR	n/a	LTP344	ltpFR2	11	3	n/a	n/a	n/a	n/a	0	0	0
491545	PROB	n/a	LTP344	ltpFR2	11	n/a	n/a	n/a	3	14	6	6	2
493578	PROB	n/a	LTP344	ltpFR2	11	n/a	n/a	n/a	3	13	2	7	4
495010	PROB	n/a	LTP344	ltpFR2	11	n/a	n/a	n/a	3	14	8	3	3
496377	PROB	n/a	LTP344	ltpFR2	11	n/a	n/a	n/a	3	14	6	2	6
497693	PROB	n/a	LTP344	ltpFR2	11	n/a	n/a	n/a	3	20	7	9	4
499559	PROB	n/a	LTP344	ltpFR2	11	n/a	n/a	n/a	3	21	9	9	3
500758	PROB	n/a	LTP344	ltpFR2	11	n/a	n/a	n/a	3	17	6	2	9
502540	PROB	n/a	LTP344	ltpFR2	11	n/a	n/a	n/a	3	10	4	2	4
503906	PROB	n/a	LTP344	ltpFR2	11	n/a	n/a	n/a	3	20	4	8	8
505838	PROB	n/a	LTP344	ltpFR2	11	n/a	n/a	n/a	3	17	4	9	4
507538	PROB	n/a	LTP344	ltpFR2	11	n/a	n/a	n/a	3	11	2	2	7
508754	PROB	n/a	LTP344	ltpFR2	11	n/a	n/a	n/a	3	19	8	4	7
510470	PROB	n/a	LTP344	ltpFR2	11	n/a	n/a	n/a	3	16	7	1	8
511753	PROB	n/a	LTP344	ltpFR2	11	n/a	n/a	n/a	3	12	1	9	2
512802	PROB	n/a	LTP344	ltpFR2	11	n/a	n/a	n/a	3	12	7	3	2
513764	STOP	n/a	LTP344	ltpFR2	11	n/a	n/a	n/a	3	n/a	n/a	n/a	n/a
516368	REC_START	n/a	LTP344	ltpFR2	11	3	n/a	n/a	n/a	n/a	0	0	0
519572	REC_WORD	wordpools/wasnorm_wordpool_576.txt	LTP344	ltpFR2	11	3	RATTLE	1170	n/a	n/a	0	0	0
521897	REC_WORD	wordpools/wasnorm_wordpool_576.txt	LTP344	ltpFR2	11	3	MEDAL	885	n/a	n/a	0	0	0
523142	REC_WORD	wordpools/wasnorm_wordpool_576.txt	LTP344	ltpFR2	11	3	GRAPE	654	n/a	n/a	0	0	0
524105	REC_WORD	wordpools/wasnorm_wordpool_576.txt	LTP344	ltpFR2	11	3	FRUIT	610	n/a	n/a	0	0	0
525892	REC_WORD	wordpools/wasnorm_wordpool_576.txt	LTP344	ltpFR2	11	3	BELLY	119	n/a	n/a	0	0	0
527212	REC_WORD	wordpools/wasnorm_wordpool_576.txt	LTP344	ltpFR2	11	3	BATHTUB	100	n/a	n/a	0	0	0
528280	REC_WORD	wordpools/wasnorm_wordpool_576.txt	LTP344	ltpFR2	11	3	RUG	1215	n/a	n/a	0	0	0
528920	REC_WORD	wordpools/wasnorm_wordpool_576.txt	LTP344	ltpFR2	11	3	TILE	1468	n/a	n/a	0	0	0
529751	REC_WORD	wordpools/wasnorm_wordpool_576.txt	LTP344	ltpFR2	11	3	PADDING	999	n/a	n/a	0	0	0
531018	REC_WORD	wordpools/wasnorm_wordpool_576.txt	LTP344	ltpFR2	11	3	PATROL	1027	n/a	n/a	0	0	0
532331	REC_WORD	wordpools/wasnorm_wordpool_576.txt	LTP344	ltpFR2	11	3	HOUND	724	n/a	n/a	0	0	0
537211	REC_WORD	wordpools/wasnorm_wordpool_576.txt	LTP344	ltpFR2	11	3	MILK	895	n/a	n/a	0	0	0
538037	REC_WORD	wordpools/wasnorm_wordpool_576.txt	LTP344	ltpFR2	11	3	BREAST	171	n/a	n/a	0	0	0
556909	REC_WORD	wordpools/wasnorm_wordpool_576.txt	LTP344	ltpFR2	11	3	SISTER	1312	n/a	n/a	0	0	0
606826	WORD	wordpools/wasnorm_wordpool_576.txt	LTP344	ltpFR2	11	4	TUTU	1524	n/a	n/a	0	0	0
609425	WORD	wordpools/wasnorm_wordpool_576.txt	LTP344	ltpFR2	11	4	BLOUSE	139	n/a	n/a	0	0	0
612123	WORD	wordpools/wasnorm_wordpool_576.txt	LTP344	ltpFR2	11	4	LAPEL	800	n/a	n/a	0	0	0
614623	WORD	wordpools/wasnorm_wordpool_576.txt	LTP344	ltpFR2	11	4	FRAGRANCE	599	n/a	n/a	0	0	0
617189	WORD	wordpools/wasnorm_wordpool_576.txt	LTP344	ltpFR2	11	4	MILDEW	893	n/a	n/a	0	0	0
619771	WORD	wordpools/wasnorm_wordpool_576.txt	LTP344	ltpFR2	11	4	LOFT	840	n/a	n/a	0	0	0
622386	WORD	wordpools/wasnorm_wordpool_576.txt	LTP344	ltpFR2	11	4	MEAT	883	n/a	n/a	0	0	0
624967	WORD	wordpools/wasnorm_wordpool_576.txt	LTP344	ltpFR2	11	4	SAUSAGE	1238	n/a	n/a	0	0	0
627551	WORD	wordpools/wasnorm_wordpool_576.txt	LTP344	ltpFR2	11	4	SPONGE	1355	n/a	n/a	0	0	0
630283	WORD	wordpools/wasnorm_wordpool_576.txt	LTP344	ltpFR2	11	4	MESSAGE	888	n/a	n/a	0	0	0
632914	WORD	wordpools/wasnorm_wordpool_576.txt	LTP344	ltpFR2	11	4	TEACHER	1440	n/a	n/a	0	0	0
635547	WORD	wordpools/wasnorm_wordpool_576.txt	LTP344	ltpFR2	11	4	DONKEY	484	n/a	n/a	0	0	0
638279	WORD	wordpools/wasnorm_wordpool_576.txt	LTP344	ltpFR2	11	4	SIBLING	1301	n/a	n/a	0	0	0
640745	WORD	wordpools/wasnorm_wordpool_576.txt	LTP344	ltpFR2	11	4	COURSE	390	n/a	n/a	0	0	0
643377	WORD	wordpools/wasnorm_wordpool_576.txt	LTP344	ltpFR2	11	4	MOP	916	n/a	n/a	0	0	0
646175	WORD	wordpools/wasnorm_wordpool_576.txt	LTP344	ltpFR2	11	4	PRIMATE	1123	n/a	n/a	0	0	0
648691	WORD	wordpools/wasnorm_wordpool_576.txt	LTP344	ltpFR2	11	4	BLADE	134	n/a	n/a	0	0	0
651156	WORD	wordpools/wasnorm_wordpool_576.txt	LTP344	ltpFR2	11	4	SHORTCAKE	1292	n/a	n/a	0	0	0
653739	WORD	wordpools/wasnorm_wordpool_576.txt	LTP344	ltpFR2	11	4	MATTRESS	879	n/a	n/a	0	0	0
656404	WORD	wordpools/wasnorm_wordpool_576.txt	LTP344	ltpFR2	11	4	SUMMIT	1405	n/a	n/a	0	0	0
659119	WORD	wordpools/wasnorm_wordpool_576.txt	LTP344	ltpFR2	11	4	OINTMENT	974	n/a	n/a	0	0	0
661867	WORD	wordpools/wasnorm_wordpool_576.txt	LTP344	ltpFR2	11	4	BRANCH	168	n/a	n/a	0	0	0
664317	WORD	wordpools/wasnorm_wordpool_576.txt	LTP344	ltpFR2	11	4	SHELF	1280	n/a	n/a	0	0	0
667048	WORD	wordpools/wasnorm_wordpool_576.txt	LTP344	ltpFR2	11	4	MAILBOX	857	n/a	n/a	0	0	0
668665	START	n/a	LTP344	ltpFR2	11	n/a	n/a	n/a	4	n/a	n/a	n/a	n/a
669722	DISTRACTOR	n/a	LTP344	ltpFR2	11	4	n/a	n/a	n/a	n/a	0	0	0
669731	PROB	n/a	LTP344	ltpFR2	11	n/a	n/a	n/a	4	18	8	6	4
671231	PROB	n/a	LTP344	ltpFR2	11	n/a	n/a	n/a	4	14	3	3	8
672397	PROB	n/a	LTP344	ltpFR2	11	n/a	n/a	n/a	4	11	6	4	1
673513	PROB	n/a	LTP344	ltpFR2	11	n/a	n/a	n/a	4	15	8	3	4
675011	PROB	n/a	LTP344	ltpFR2	11	n/a	n/a	n/a	4	23	8	9	6
677127	PROB	n/a	LTP344	ltpFR2	11	n/a	n/a	n/a	4	18	9	2	7
678860	PROB	n/a	LTP344	ltpFR2	11	n/a	n/a	n/a	4	17	3	7	7
680610	PROB	n/a	LTP344	ltpFR2	11	n/a	n/a	n/a	4	24	7	8	9
682409	PROB	n/a	LTP344	ltpFR2	11	n/a	n/a	n/a	4	11	3	6	2
684791	PROB	n/a	LTP344	ltpFR2	11	n/a	n/a	n/a	4	19	7	3	9
686274	PROB	n/a	LTP344	ltpFR2	11	n/a	n/a	n/a	4	17	2	9	6
687889	PROB	n/a	LTP344	ltpFR2	11	n/a	n/a	n/a	4	13	8	3	2
690005	PROB	n/a	LTP344	ltpFR2	11	n/a	n/a	n/a	4	18	8	4	6
691418	STOP	n/a	LTP344	ltpFR2	11	n/a	n/a	n/a	4	n/a	n/a	n/a	n/a
694455	REC_START	n/a	LTP344	ltpFR2	11	4	n/a	n/a	n/a	n/a	0	0	0
695120	REC_WORD	wordpools/wasnorm_wordpool_576.txt	LTP344	ltpFR2	11	4	MAILBOX	857	n/a	n/a	0	0	0
696120	REC_WORD_VV	wordpools/wasnorm_wordpool_576.txt	LTP344	ltpFR2	11	4	<>	-1	n/a	n/a	0	0	0
699533	REC_WORD	wordpools/wasnorm_wordpool_576.txt	LTP344	ltpFR2	11	4	LOFT	840	n/a	n/a	0	0	0
701356	REC_WORD	wordpools/wasnorm_wordpool_576.txt	LTP344	ltpFR2	11	4	DONKEY	484	n/a	n/a	0	0	0
702687	REC_WORD	wordpools/wasnorm_wordpool_576.txt	LTP344	ltpFR2	11	4	SIBLING	1301	n/a	n/a	0	0	0
709505	REC_WORD	wordpools/wasnorm_wordpool_576.txt	LTP344	ltpFR2	11	4	TUTU	1524	n/a	n/a	0	0	0
711144	REC_WORD	wordpools/wasnorm_wordpool_576.txt	LTP344	ltpFR2	11	4	BLOUSE	139	n/a	n/a	0	0	0
716577	REC_WORD	wordpools/wasnorm_wordpool_576.txt	LTP344	ltpFR2	11	4	FRAGRANCE	599	n/a	n/a	0	0	0
718376	REC_WORD	wordpools/wasnorm_wordpool_576.txt	LTP344	ltpFR2	11	4	OINTMENT	974	n/a	n/a	0	0	0
719280	REC_WORD	wordpools/wasnorm_wordpool_576.txt	LTP344	ltpFR2	11	4	BRANCH	168	n/a	n/a	0	0	0
719825	REC_WORD	wordpools/wasnorm_wordpool_576.txt	LTP344	ltpFR2	11	4	SHELF	1280	n/a	n/a	0	0	0
745029	REC_WORD	wordpools/wasnorm_wordpool_576.txt	LTP344	ltpFR2	11	4	BLADE	134	n/a	n/a	0	0	0
747321	REC_WORD	wordpools/wasnorm_wordpool_576.txt	LTP344	ltpFR2	11	4	MOP	916	n/a	n/a	0	0	0
751023	REC_WORD	wordpools/wasnorm_wordpool_576.txt	LTP344	ltpFR2	11	4	PRIMATE	1123	n/a	n/a	0	0	0
784928	WORD	wordpools/wasnorm_wordpool_576.txt	LTP344	ltpFR2	11	5	REPORT	1184	n/a	n/a	0	0	0
787745	WORD	wordpools/wasnorm_wordpool_576.txt	LTP344	ltpFR2	11	5	SUNRISE	1407	n/a	n/a	0	0	0
790493	WORD	wordpools/wasnorm_wordpool_576.txt	LTP344	ltpFR2	11	5	MACHINE	852	n/a	n/a	0	0	0
792925	WORD	wordpools/wasnorm_wordpool_576.txt	LTP344	ltpFR2	11	5	CLAM	315	n/a	n/a	0	0	0
795591	WORD	wordpools/wasnorm_wordpool_576.txt	LTP344	ltpFR2	11	5	SCALLOP	1242	n/a	n/a	0	0	0
798290	WORD	wordpools/wasnorm_wordpool_576.txt	LTP344	ltpFR2	11	5	LADDER	793	n/a	n/a	0	0	0
800904	WORD	wordpools/wasnorm_wordpool_576.txt	LTP344	ltpFR2	11	5	FRAME	600	n/a	n/a	0	0	0
803354	WORD	wordpools/wasnorm_wordpool_576.txt	LTP344	ltpFR2	11	5	PEDAL	1037	n/a	n/a	0	0	0
805869	WORD	wordpools/wasnorm_wordpool_576.txt	LTP344	ltpFR2	11	5	HANDBAG	684	n/a	n/a	0	0	0
808535	WORD	wordpools/wasnorm_wordpool_576.txt	LTP344	ltpFR2	11	5	CASHEW	253	n/a	n/a	0	0	0
811150	WORD	wordpools/wasnorm_wordpool_576.txt	LTP344	ltpFR2	11	5	ROOSTER	1209	n/a	n/a	0	0	0
813683	WORD	wordpools/wasnorm_wordpool_576.txt	LTP344	ltpFR2	11	5	WASHER	1592	n/a	n/a	0	0	0
816448	WORD	wordpools/wasnorm_wordpool_576.txt	LTP344	ltpFR2	11	5	QUARTER	1148	n/a	n/a	0	0	0
818963	WORD	wordpools/wasnorm_wordpool_576.txt	LTP344	ltpFR2	11	5	PORTRAIT	1111	n/a	n/a	0	0	0
821429	WORD	wordpools/wasnorm_wordpool_576.txt	LTP344	ltpFR2	11	5	CHIPMUNK	304	n/a	n/a	0	0	0
823944	WORD	wordpools/wasnorm_wordpool_576.txt	LTP344	ltpFR2	11	5	CELLAR	267	n/a	n/a	0	0	0
826627	WORD	wordpools/wasnorm_wordpool_576.txt	LTP344	ltpFR2	11	5	RABBIT	1152	n/a	n/a	0	0	0
829259	WORD	wordpools/wasnorm_wordpool_576.txt	LTP344	ltpFR2	11	5	TURTLE	1522	n/a	n/a	0	0	0
832057	WORD	wordpools/wasnorm_wordpool_576.txt	LTP344	ltpFR2	11	5	COBRA	336	n/a	n/a	0	0	0
834757	WORD	wordpools/wasnorm_wordpool_576.txt	LTP344	ltpFR2	11	5	PICNIC	1060	n/a	n/a	0	0	0
837356	WORD	wordpools/wasnorm_wordpool_576.txt	LTP344	ltpFR2	11	5	PASTRY	1022	n/a	n/a	0	0	0
839804	WORD	wordpools/wasnorm_wordpool_576.txt	LTP344	ltpFR2	11	5	LAGOON	795	n/a	n/a	0	0	0
842303	WORD	wordpools/wasnorm_wordpool_576.txt	LTP344	ltpFR2	11	5	CRICKET	408	n/a	n/a	0	0	0
844901	WORD	wordpools/wasnorm_wordpool_576.txt	LTP344	ltpFR2	11	5	GARLIC	624	n/a	n/a	0	0	0
846518	START	n/a	LTP344	ltpFR2	11	n/a	n/a	n/a	5	n/a	n/a	n/a	n/a
847466	DISTRACTOR	n/a	LTP344	ltpFR2	11	5	n/a	n/a	n/a	n/a	0	0	0
847468	PROB	n/a	LTP344	ltpFR2	11	n/a	n/a	n/a	5	16	5	4	7
849350	PROB	n/a	LTP344	ltpFR2	11	n/a	n/a	n/a	5	7	2	3	2
851233	PROB	n/a	LTP344	ltpFR2	11	n/a	n/a	n/a	5	9	5	1	3
852632	PROB	n/a	LTP344	ltpFR2	11	n/a	n/a	n/a	5	16	4	8	4
854147	PROB	n/a	LTP344	ltpFR2	11	n/a	n/a	n/a	5	14	6	5	3
855447	PROB	n/a	LTP344	ltpFR2	11	n/a	n/a	n/a	5	14	9	1	4
856797	PROB	n/a	LTP344	ltpFR2	11	n/a	n/a	n/a	5	16	3	4	9
860044	PROB	n/a	LTP344	ltpFR2	11	n/a	n/a	n/a	5	12	6	3	3
861261	PROB	n/a	LTP344	ltpFR2	11	n/a	n/a	n/a	5	22	8	9	5
863660	PROB	n/a	LTP344	ltpFR2	11	n/a	n/a	n/a	5	14	1	7	6
865343	PROB	n/a	LTP344	ltpFR2	11	n/a	n/a	n/a	5	15	3	5	7
866709	PROB	n/a	LTP344	ltpFR2	11	n/a	n/a	n/a	5	10	6	3	1
867857	PROB	n/a	LTP344	ltpFR2	11	n/a	n/a	n/a	5	1	4	8	4
870517	STOP	n/a	LTP344	ltpFR2	11	n/a	n/a	n/a	5	n/a	n/a	n/a	n/a
872324	REC_START	n/a	LTP344	ltpFR2	11	5	n/a	n/a	n/a	n/a	0	0	0
874003	REC_WORD	wordpools/wasnorm_wordpool_576.txt	LTP344	ltpFR2	11	5	PICNIC	1060	n/a	n/a	0	0	0
874990	REC_WORD	wordpools/wasnorm_wordpool_576.txt	LTP344	ltpFR2	11	5	COBRA	336	n/a	n/a	0	0	0
877402	REC_WORD_VV	wordpools/wasnorm_wordpool_576.txt	LTP344	ltpFR2	11	5	<>	-1	n/a	n/a	0	0	0
878201	REC_WORD	wordpools/wasnorm_wordpool_576.txt	LTP344	ltpFR2	11	5	LAGOON	795	n/a	n/a	0	0	0
880393	REC_WORD	wordpools/wasnorm_wordpool_576.txt	LTP344	ltpFR2	11	5	TURTLE	1522	n/a	n/a	0	0	0
881978	REC_WORD	wordpools/wasnorm_wordpool_576.txt	LTP344	ltpFR2	11	5	RABBIT	1152	n/a	n/a	0	0	0
883723	REC_WORD	wordpools/wasnorm_wordpool_576.txt	LTP344	ltpFR2	11	5	CLAM	315	n/a	n/a	0	0	0
885009	REC_WORD	wordpools/wasnorm_wordpool_576.txt	LTP344	ltpFR2	11	5	SCALLOP	1242	n/a	n/a	0	0	0
886015	REC_WORD_VV	wordpools/wasnorm_wordpool_576.txt	LTP344	ltpFR2	11	5	<>	-1	n/a	n/a	0	0	0
886413	REC_WORD	wordpools/wasnorm_wordpool_576.txt	LTP344	ltpFR2	11	5	MACHINE	852	n/a	n/a	0	0	0
888286	REC_WORD	wordpools/wasnorm_wordpool_576.txt	LTP344	ltpFR2	11	5	PEDAL	1037	n/a	n/a	0	0	0
890292	REC_WORD	wordpools/wasnorm_wordpool_576.txt	LTP344	ltpFR2	11	5	PORTRAIT	1111	n/a	n/a	0	0	0
891357	REC_WORD	wordpools/wasnorm_wordpool_576.txt	LTP344	ltpFR2	11	5	FRAME	600	n/a	n/a	0	0	0
896542	REC_WORD	wordpools/wasnorm_wordpool_576.txt	LTP344	ltpFR2	11	5	HANDBAG	684	n/a	n/a	0	0	0
897902	REC_WORD	wordpools/wasnorm_wordpool_576.txt	LTP344	ltpFR2	11	5	CASHEW	253	n/a	n/a	0	0	0
901111	REC_WORD	wordpools/wasnorm_wordpool_576.txt	LTP344	ltpFR2	11	5	WASHER	1592	n/a	n/a	0	0	0
901843	REC_WORD	wordpools/wasnorm_wordpool_576.txt	LTP344	ltpFR2	11	5	QUARTER	1148	n/a	n/a	0	0	0
962766	DISTRACTOR	n/a	LTP344	ltpFR2	11	6	n/a	n/a	n/a	n/a	0	0	0
962766	START	n/a	LTP344	ltpFR2	11	n/a	n/a	n/a	6	n/a	n/a	n/a	n/a
962782	PROB	n/a	LTP344	ltpFR2	11	n/a	n/a	n/a	6	19	4	6	9
964198	PROB	n/a	LTP344	ltpFR2	11	n/a	n/a	n/a	6	23	8	6	9
965830	PROB	n/a	LTP344	ltpFR2	11	n/a	n/a	n/a	6	20	5	8	7
967730	PROB	n/a	LTP344	ltpFR2	11	n/a	n/a	n/a	6	6	1	1	4
968679	PROB	n/a	LTP344	ltpFR2	11	n/a	n/a	n/a	6	18	9	8	1
970078	PROB	n/a	LTP344	ltpFR2	11	n/a	n/a	n/a	6	17	9	5	3
972144	PROB	n/a	LTP344	ltpFR2	11	n/a	n/a	n/a	6	12	1	2	9
973627	PROB	n/a	LTP344	ltpFR2	11	n/a	n/a	n/a	6	21	5	7	9
975443	PROB	n/a	LTP344	ltpFR2	11	n/a	n/a	n/a	6	22	7	8	7
979475	PROB	n/a	LTP344	ltpFR2	11	n/a	n/a	n/a	6	13	5	6	2
981123	PROB	n/a	LTP344	ltpFR2	11	n/a	n/a	n/a	6	22	8	8	6
982889	PROB	n/a	LTP344	ltpFR2	11	n/a	n/a	n/a	6	15	6	2	7
984472	PROB	n/a	LTP344	ltpFR2	11	n/a	n/a	n/a	6	24	7	8	9
986275	STOP	n/a	LTP344	ltpFR2	11	n/a	n/a	n/a	6	n/a	n/a	n/a	n/a
987721	WORD	wordpools/wasnorm_wordpool_576.txt	LTP344	ltpFR2	11	6	OUTLAW	989	n/a	n/a	0	0	0
990436	WORD	wordpools/wasnorm_wordpool_576.txt	LTP344	ltpFR2	11	6	MONSTER	912	n/a	n/a	0	0	0
993202	WORD	wordpools/wasnorm_wordpool_576.txt	LTP344	ltpFR2	11	6	SPIDER	1351	n/a	n/a	0	0	0
995883	WORD	wordpools/wasnorm_wordpool_576.txt	LTP344	ltpFR2	11	6	WASP	1593	n/a	n/a	0	0	0
998599	WORD	wordpools/wasnorm_wordpool_576.txt	LTP344	ltpFR2	11	6	FLOWER	584	n/a	n/a	0	0	0
1001131	WORD	wordpools/wasnorm_wordpool_576.txt	LTP344	ltpFR2	11	6	PROTON	1132	n/a	n/a	0	0	0
1003797	WORD	wordpools/wasnorm_wordpool_576.txt	LTP344	ltpFR2	11	6	CATCHER	258	n/a	n/a	0	0	0
1006262	WORD	wordpools/wasnorm_wordpool_576.txt	LTP344	ltpFR2	11	6	UMPIRE	1535	n/a	n/a	0	0	0
1008778	WORD	wordpools/wasnorm_wordpool_576.txt	LTP344	ltpFR2	11	6	HEDGE	699	n/a	n/a	0	0	0
1011210	WORD	wordpools/wasnorm_wordpool_576.txt	LTP344	ltpFR2	11	6	LODGE	839	n/a	n/a	0	0	0
1013693	WORD	wordpools/wasnorm_wordpool_576.txt	LTP344	ltpFR2	11	6	STOMACH	1384	n/a	n/a	0	0	0
1016441	WORD	wordpools/wasnorm_wordpool_576.txt	LTP344	ltpFR2	11	6	LIVER	833	n/a	n/a	0	0	0
1019056	WORD	wordpools/wasnorm_wordpool_576.txt	LTP344	ltpFR2	11	6	INMATE	738	n/a	n/a	0	0	0
1021722	WORD	wordpools/wasnorm_wordpool_576.txt	LTP344	ltpFR2	11	6	MARKER	870	n/a	n/a	0	0	0
1024404	WORD	wordpools/wasnorm_wordpool_576.txt	LTP344	ltpFR2	11	6	MARKET	871	n/a	n/a	0	0	0
1026919	WORD	wordpools/wasnorm_wordpool_576.txt	LTP344	ltpFR2	11	6	MOTEL	919	n/a	n/a	0	0	0
1029735	WORD	wordpools/wasnorm_wordpool_576.txt	LTP344	ltpFR2	11	6	WAITER	1580	n/a	n/a	0	0	0
1032451	WORD	wordpools/wasnorm_wordpool_576.txt	LTP344	ltpFR2	11	6	CONVICT	371	n/a	n/a	0	0	0
1034998	WORD	wordpools/wasnorm_wordpool_576.txt	LTP344	ltpFR2	11	6	POPCORN	1104	n/a	n/a	0	0	0
1037698	WORD	wordpools/wasnorm_wordpool_576.txt	LTP344	ltpFR2	11	6	TREAT	1501	n/a	n/a	0	0	0
1040163	WORD	wordpools/wasnorm_wordpool_576.txt	LTP344	ltpFR2	11	6	APPLE	33	n/a	n/a	0	0	0
1042845	WORD	wordpools/wasnorm_wordpool_576.txt	LTP344	ltpFR2	11	6	FRECKLE	602	n/a	n/a	0	0	0
1045611	WORD	wordpools/wasnorm_wordpool_576.txt	LTP344	ltpFR2	11	6	MONEY	908	n/a	n/a	0	0	0
1048159	WORD	wordpools/wasnorm_wordpool_576.txt	LTP344	ltpFR2	11	6	SKETCH	1315	n/a	n/a	0	0	0
1049776	START	n/a	LTP344	ltpFR2	11	n/a	n/a	n/a	7	n/a	n/a	n/a	n/a
1050826	DISTRACTOR	n/a	LTP344	ltpFR2	11	6	n/a	n/a	n/a	n/a	0	0	0
1050841	PROB	n/a	LTP344	ltpFR2	11	n/a	n/a	n/a	7	23	7	9	7
1052508	PROB	n/a	LTP344	ltpFR2	11	n/a	n/a	n/a	7	10	7	1	2
1054257	PROB	n/a	LTP344	ltpFR2	11	n/a	n/a	n/a	7	15	4	6	5
1056106	PROB	n/a	LTP344	ltpFR2	11	n/a	n/a	n/a	7	9	2	3	4
1058256	PROB	n/a	LTP344	ltpFR2	11	n/a	n/a	n/a	7	10	3	6	1
1059722	PROB	n/a	LTP344	ltpFR2	11	n/a	n/a	n/a	7	11	1	2	8
1061003	PROB	n/a	LTP344	ltpFR2	11	n/a	n/a	n/a	7	22	9	8	5
1062969	PROB	n/a	LTP344	ltpFR2	11	n/a	n/a	n/a	7	17	8	5	4
1065968	PROB	n/a	LTP344	ltpFR2	11	n/a	n/a	n/a	7	16	8	5	3
1068933	PROB	n/a	LTP344	ltpFR2	11	n/a	n/a	n/a	7	18	9	5	4
1070717	PROB	n/a	LTP344	ltpFR2	11	n/a	n/a	n/a	7	12	6	4	2
1071848	PROB	n/a	LTP344	ltpFR2	11	n/a	n/a	n/a	7	19	9	1	9
1072893	STOP	n/a	LTP344	ltpFR2	11	n/a	n/a	n/a	7	n/a	n/a	n/a	n/a
1075632	REC_START	n/a	LTP344	ltpFR2	11	6	n/a	n/a	n/a	n/a	0	0	0
1076305	REC_WORD	wordpools/wasnorm_wordpool_576.txt	LTP344	ltpFR2	11	6	FRECKLE	602	n/a	n/a	0	0	0
1077650	REC_WORD	wordpools/wasnorm_wordpool_576.txt	LTP344	ltpFR2	11	6	CONVICT	371	n/a	n/a	0	0	0
1078998	REC_WORD	wordpools/wasnorm_wordpool_576.txt	LTP344	ltpFR2	11	6	MOTEL	919	n/a	n/a	0	0	0
1080975	REC_WORD	wordpools/wasnorm_wordpool_576.txt	LTP344	ltpFR2	11	6	WAITER	1580	n/a	n/a	0	0	0
1082464	REC_WORD	wordpools/wasnorm_wordpool_576.txt	LTP344	ltpFR2	11	6	POPCORN	1104	n/a	n/a	0	0	0
1083559	REC_WORD	wordpools/wasnorm_wordpool_576.txt	LTP344	ltpFR2	11	6	TREAT	1501	n/a	n/a	0	0	0
1084571	REC_WORD	wordpools/wasnorm_wordpool_576.txt	LTP344	ltpFR2	11	6	APPLE	33	n/a	n/a	0	0	0
1085811	REC_WORD	wordpools/wasnorm_wordpool_576.txt	LTP344	ltpFR2	11	6	MONSTER	912	n/a	n/a	0	0	0
1087145	REC_WORD	wordpools/wasnorm_wordpool_576.txt	LTP344	ltpFR2	11	6	SPIDER	1351	n/a	n/a	0	0	0
1088498	REC_WORD	wordpools/wasnorm_wordpool_576.txt	LTP344	ltpFR2	11	6	HORNET	718	n/a	n/a	0	0	0
1091207	REC_WORD	wordpools/wasnorm_wordpool_576.txt	LTP344	ltpFR2	11	6	OUTLAW	989	n/a	n/a	0	0	0
1092774	REC_WORD	wordpools/wasnorm_wordpool_576.txt	LTP344	ltpFR2	11	6	FLOWER	584	n/a	n/a	0	0	0
1093604	REC_WORD	wordpools/wasnorm_wordpool_576.txt	LTP344	ltpFR2	11	6	PROTON	1132	n/a	n/a	0	0	0
1095008	REC_WORD	wordpools/wasnorm_wordpool_576.txt	LTP344	ltpFR2	11	6	HEDGE	699	n/a	n/a	0	0	0
1166106	WORD	wordpools/wasnorm_wordpool_576.txt	LTP344	ltpFR2	11	7	FOOT	590	n/a	n/a	0	0	0
1168739	WORD	wordpools/wasnorm_wordpool_576.txt	LTP344	ltpFR2	11	7	ONION	977	n/a	n/a	0	0	0
1171305	WORD	wordpools/wasnorm_wordpool_576.txt	LTP344	ltpFR2	11	7	PERFUME	1049	n/a	n/a	0	0	0
1173886	WORD	wordpools/wasnorm_wordpool_576.txt	LTP344	ltpFR2	11	7	TRIBE	1505	n/a	n/a	0	0	0
1176435	WORD	wordpools/wasnorm_wordpool_576.txt	LTP344	ltpFR2	11	7	SKILLET	1317	n/a	n/a	0	0	0
1179184	WORD	wordpools/wasnorm_wordpool_576.txt	LTP344	ltpFR2	11	7	LUNCH	849	n/a	n/a	0	0	0
1181999	WORD	wordpools/wasnorm_wordpool_576.txt	LTP344	ltpFR2	11	7	ANKLE	24	n/a	n/a	0	0	0
1184748	WORD	wordpools/wasnorm_wordpool_576.txt	LTP344	ltpFR2	11	7	DUST	508	n/a	n/a	0	0	0
1187297	WORD	wordpools/wasnorm_wordpool_576.txt	LTP344	ltpFR2	11	7	BARREL	91	n/a	n/a	0	0	0
1190045	WORD	wordpools/wasnorm_wordpool_576.txt	LTP344	ltpFR2	11	7	BALLOON	75	n/a	n/a	0	0	0
1192645	WORD	wordpools/wasnorm_wordpool_576.txt	LTP344	ltpFR2	11	7	COLLEGE	346	n/a	n/a	0	0	0
1195244	WORD	wordpools/wasnorm_wordpool_576.txt	LTP344	ltpFR2	11	7	SILK	1307	n/a	n/a	0	0	0
1197925	WORD	wordpools/wasnorm_wordpool_576.txt	LTP344	ltpFR2	11	7	VELVET	1555	n/a	n/a	0	0	0
1200641	WORD	wordpools/wasnorm_wordpool_576.txt	LTP344	ltpFR2	11	7	ITEM	746	n/a	n/a	0	0	0
1203156	WORD	wordpools/wasnorm_wordpool_576.txt	LTP344	ltpFR2	11	7	NAPKIN	937	n/a	n/a	0	0	0
1205855	WORD	wordpools/wasnorm_wordpool_576.txt	LTP344	ltpFR2	11	7	SALT	1229	n/a	n/a	0	0	0
1208438	WORD	wordpools/wasnorm_wordpool_576.txt	LTP344	ltpFR2	11	7	TRACTOR	1493	n/a	n/a	0	0	0
1211169	WORD	wordpools/wasnorm_wordpool_576.txt	LTP344	ltpFR2	11	7	GIRL	637	n/a	n/a	0	0	0
1213918	WORD	wordpools/wasnorm_wordpool_576.txt	LTP344	ltpFR2	11	7	ISLAND	745	n/a	n/a	0	0	0
1216717	WORD	wordpools/wasnorm_wordpool_576.txt	LTP344	ltpFR2	11	7	SODA	1341	n/a	n/a	0	0	0
1219283	WORD	wordpools/wasnorm_wordpool_576.txt	LTP344	ltpFR2	11	7	HEART	697	n/a	n/a	0	0	0
1222097	WORD	wordpools/wasnorm_wordpool_576.txt	LTP344	ltpFR2	11	7	BISON	131	n/a	n/a	0	0	0
1224530	WORD	wordpools/wasnorm_wordpool_576.txt	LTP344	ltpFR2	11	7	PERMIT	1051	n/a	n/a	0	0	0
1227179	WORD	wordpools/wasnorm_wordpool_576.txt	LTP344	ltpFR2	11	7	STAR	1373	n/a	n/a	0	0	0
1228795	START	n/a	LTP344	ltpFR2	11	n/a	n/a	n/a	8	n/a	n/a	n/a	n/a
1229763	DISTRACTOR	n/a	LTP344	ltpFR2	11	7	n/a	n/a	n/a	n/a	0	0	0
1229778	PROB	n/a	LTP344	ltpFR2	11	n/a	n/a	n/a	8	13	5	6	2
1231843	PROB	n/a	LTP344	ltpFR2	11	n/a	n/a	n/a	8	12	1	4	7
1233426	PROB	n/a	LTP344	ltpFR2	11	n/a	n/a	n/a	8	9	5	3	1
1234925	PROB	n/a	LTP344	ltpFR2	11	n/a	n/a	n/a	8	15	4	4	7
1236208	PROB	n/a	LTP344	ltpFR2	11	n/a	n/a	n/a	8	24	8	8	8
1237391	PROB	n/a	LTP344	ltpFR2	11	n/a	n/a	n/a	8	23	5	9	9
1238873	PROB	n/a	LTP344	ltpFR2	11	n/a	n/a	n/a	8	13	3	4	6
1242171	PROB	n/a	LTP344	ltpFR2	11	n/a	n/a	n/a	8	16	4	6	6
1243954	PROB	n/a	LTP344	ltpFR2	11	n/a	n/a	n/a	8	16	5	3	8
1245804	PROB	n/a	LTP344	ltpFR2	11	n/a	n/a	n/a	8	15	5	2	4
1248885	PROB	n/a	LTP344	ltpFR2	11	n/a	n/a	n/a	8	13	8	4	1
1252468	STOP	n/a	LTP344	ltpFR2	11	n/a	n/a	n/a	8	n/a	n/a	n/a	n/a
1254585	REC_START	n/a	LTP344	ltpFR2	11	7	n/a	n/a	n/a	n/a	0	0	0
1255670	REC_WORD	wordpools/wasnorm_wordpool_576.txt	LTP344	ltpFR2	11	7	TRACTOR	1493	n/a	n/a	0	0	0
1256808	REC_WORD	wordpools/wasnorm_wordpool_576.txt	LTP344	ltpFR2	11	7	SODA	1341	n/a	n/a	0	0	0
1258327	REC_WORD	wordpools/wasnorm_wordpool_576.txt	LTP344	ltpFR2	11	7	BISON	131	n/a	n/a	0	0	0
1259918	REC_WORD	wordpools/wasnorm_wordpool_576.txt	LTP344	ltpFR2	11	7	ISLAND	745	n/a	n/a	0	0	0
1261461	REC_WORD	wordpools/wasnorm_wordpool_576.txt	LTP344	ltpFR2	11	7	GIRL	637	n/a	n/a	0	0	0
1264002	REC_WORD	wordpools/wasnorm_wordpool_576.txt	LTP344	ltpFR2	11	7	FOOT	590	n/a	n/a	0	0	0
1265969	REC_WORD	wordpools/wasnorm_wordpool_576.txt	LTP344	ltpFR2	11	7	ONION	977	n/a	n/a	0	0	0
1267791	REC_WORD	wordpools/wasnorm_wordpool_576.txt	LTP344	ltpFR2	11	7	PERFUME	1049	n/a	n/a	0	0	0
1274337	REC_WORD	wordpools/wasnorm_wordpool_576.txt	LTP344	ltpFR2	11	7	DUST	508	n/a	n/a	0	0	0
1276146	REC_WORD	wordpools/wasnorm_wordpool_576.txt	LTP344	ltpFR2	11	7	BALLOON	75	n/a	n/a	0	0	0
1277819	REC_WORD	wordpools/wasnorm_wordpool_576.txt	LTP344	ltpFR2	11	7	BARREL	91	n/a	n/a	0	0	0
1279780	REC_WORD	wordpools/wasnorm_wordpool_576.txt	LTP344	ltpFR2	11	7	COLLEGE	346	n/a	n/a	0	0	0
1281303	REC_WORD	wordpools/wasnorm_wordpool_576.txt	LTP344	ltpFR2	11	7	SILK	1307	n/a	n/a	0	0	0
1283032	REC_WORD	wordpools/wasnorm_wordpool_576.txt	LTP344	ltpFR2	11	7	VELVET	1555	n/a	n/a	0	0	0
1345025	WORD	wordpools/wasnorm_wordpool_576.txt	LTP344	ltpFR2	11	8	CHEMIST	292	n/a	n/a	0	0	0
1347791	WORD	wordpools/wasnorm_wordpool_576.txt	LTP344	ltpFR2	11	8	INFANT	737	n/a	n/a	0	0	0
1350274	WORD	wordpools/wasnorm_wordpool_576.txt	LTP344	ltpFR2	11	8	CURTAIN	427	n/a	n/a	0	0	0
1353071	WORD	wordpools/wasnorm_wordpool_576.txt	LTP344	ltpFR2	11	8	SADDLE	1221	n/a	n/a	0	0	0
1355870	WORD	wordpools/wasnorm_wordpool_576.txt	LTP344	ltpFR2	11	8	PAIL	1002	n/a	n/a	0	0	0
1358603	WORD	wordpools/wasnorm_wordpool_576.txt	LTP344	ltpFR2	11	8	MUFFIN	929	n/a	n/a	0	0	0
1361418	WORD	wordpools/wasnorm_wordpool_576.txt	LTP344	ltpFR2	11	8	TORTOISE	1486	n/a	n/a	0	0	0
1364116	WORD	wordpools/wasnorm_wordpool_576.txt	LTP344	ltpFR2	11	8	CHAMPAGNE	278	n/a	n/a	0	0	0
1366882	WORD	wordpools/wasnorm_wordpool_576.txt	LTP344	ltpFR2	11	8	CUSTARD	429	n/a	n/a	0	0	0
1369631	WORD	wordpools/wasnorm_wordpool_576.txt	LTP344	ltpFR2	11	8	OUTDOORS	987	n/a	n/a	0	0	0
1372264	WORD	wordpools/wasnorm_wordpool_576.txt	LTP344	ltpFR2	11	8	AIRPORT	13	n/a	n/a	0	0	0
1375028	WORD	wordpools/wasnorm_wordpool_576.txt	LTP344	ltpFR2	11	8	SANDWICH	1232	n/a	n/a	0	0	0
1377678	WORD	wordpools/wasnorm_wordpool_576.txt	LTP344	ltpFR2	11	8	RELISH	1183	n/a	n/a	0	0	0
1380293	WORD	wordpools/wasnorm_wordpool_576.txt	LTP344	ltpFR2	11	8	ROBBER	1197	n/a	n/a	0	0	0
1382809	WORD	wordpools/wasnorm_wordpool_576.txt	LTP344	ltpFR2	11	8	COIN	343	n/a	n/a	0	0	0
1385374	WORD	wordpools/wasnorm_wordpool_576.txt	LTP344	ltpFR2	11	8	JURY	766	n/a	n/a	0	0	0
1387939	WORD	wordpools/wasnorm_wordpool_576.txt	LTP344	ltpFR2	11	8	VICTIM	1562	n/a	n/a	0	0	0
1390622	WORD	wordpools/wasnorm_wordpool_576.txt	LTP344	ltpFR2	11	8	HAND	683	n/a	n/a	0	0	0
1393321	WORD	wordpools/wasnorm_wordpool_576.txt	LTP344	ltpFR2	11	8	SURVEY	1414	n/a	n/a	0	0	0
1396102	WORD	wordpools/wasnorm_wordpool_576.txt	LTP344	ltpFR2	11	8	CANAL	226	n/a	n/a	0	0	0
1398834	WORD	wordpools/wasnorm_wordpool_576.txt	LTP344	ltpFR2	11	8	CAPTIVE	240	n/a	n/a	0	0	0
1401334	WORD	wordpools/wasnorm_wordpool_576.txt	LTP344	ltpFR2	11	8	BUNNY	198	n/a	n/a	0	0	0
1403832	WORD	wordpools/wasnorm_wordpool_576.txt	LTP344	ltpFR2	11	8	LASER	801	n/a	n/a	0	0	0
1406465	WORD	wordpools/wasnorm_wordpool_576.txt	LTP344	ltpFR2	11	8	FLASHLIGHT	575	n/a	n/a	0	0	0
1408080	START	n/a	LTP344	ltpFR2	11	n/a	n/a	n/a	9	n/a	n/a	n/a	n/a
1408946	DISTRACTOR	n/a	LTP344	ltpFR2	11	8	n/a	n/a	n/a	n/a	0	0	0
1408963	PROB	n/a	LTP344	ltpFR2	11	n/a	n/a	n/a	9	21	9	6	6
1410679	PROB	n/a	LTP344	ltpFR2	11	n/a	n/a	n/a	9	1	5	8	6
1412429	PROB	n/a	LTP344	ltpFR2	11	n/a	n/a	n/a	9	16	9	1	6
1413778	PROB	n/a	LTP344	ltpFR2	11	n/a	n/a	n/a	9	12	3	8	1
1415077	PROB	n/a	LTP344	ltpFR2	11	n/a	n/a	n/a	9	18	8	6	4
1417276	PROB	n/a	LTP344	ltpFR2	11	n/a	n/a	n/a	9	13	3	7	3
1418393	PROB	n/a	LTP344	ltpFR2	11	n/a	n/a	n/a	9	19	9	3	7
1419874	PROB	n/a	LTP344	ltpFR2	11	n/a	n/a	n/a	9	16	3	9	4
1421441	PROB	n/a	LTP344	ltpFR2	11	n/a	n/a	n/a	9	17	2	8	7
1422607	PROB	n/a	LTP344	ltpFR2	11	n/a	n/a	n/a	9	22	9	5	8
1424440	PROB	n/a	LTP344	ltpFR2	11	n/a	n/a	n/a	9	11	3	3	5
1425988	PROB	n/a	LTP344	ltpFR2	11	n/a	n/a	n/a	9	14	1	5	8
1427489	PROB	n/a	LTP344	ltpFR2	11	n/a	n/a	n/a	9	13	7	4	2
1429438	PROB	n/a	LTP344	ltpFR2	11	n/a	n/a	n/a	9	13	3	9	1
1432080	STOP	n/a	LTP344	ltpFR2	11	n/a	n/a	n/a	9	n/a	n/a	n/a	n/a
1433835	REC_START	n/a	LTP344	ltpFR2	11	8	n/a	n/a	n/a	n/a	0	0	0
1439293	REC_WORD	wordpools/wasnorm_wordpool_576.txt	LTP344	ltpFR2	11	8	BUNNY	198	n/a	n/a	0	0	0
1440908	REC_WORD	wordpools/wasnorm_wordpool_576.txt	LTP344	ltpFR2	11	8	CAPTIVE	240	n/a	n/a	0	0	0
1442468	REC_WORD	wordpools/wasnorm_wordpool_576.txt	LTP344	ltpFR2	11	8	LASER	801	n/a	n/a	0	0	0
1443803	REC_WORD	wordpools/wasnorm_wordpool_576.txt	LTP344	ltpFR2	11	8	FLASHLIGHT	575	n/a	n/a	0	0	0
1444803	REC_WORD_VV	wordpools/wasnorm_wordpool_576.txt	LTP344	ltpFR2	11	8	<>	-1	n/a	n/a	0	0	0
1446611	REC_WORD	wordpools/wasnorm_wordpool_576.txt	LTP344	ltpFR2	11	8	CHEMIST	292	n/a	n/a	0	0	0
1447855	REC_WORD	wordpools/wasnorm_wordpool_576.txt	LTP344	ltpFR2	11	8	INFANT	737	n/a	n/a	0	0	0
1449220	REC_WORD	wordpools/wasnorm_wordpool_576.txt	LTP344	ltpFR2	11	8	COIN	343	n/a	n/a	0	0	0
1450888	REC_WORD	wordpools/wasnorm_wordpool_576.txt	LTP344	ltpFR2	11	8	PAIL	1002	n/a	n/a	0	0	0
1454053	REC_WORD	wordpools/wasnorm_wordpool_576.txt	LTP344	ltpFR2	11	8	MUFFIN	929	n/a	n/a	0	0	0
1459297	REC_WORD	wordpools/wasnorm_wordpool_576.txt	LTP344	ltpFR2	11	8	TORTOISE	1486	n/a	n/a	0	0	0
1460376	REC_WORD	wordpools/wasnorm_wordpool_576.txt	LTP344	ltpFR2	11	8	CHAMPAGNE	278	n/a	n/a	0	0	0
1462481	REC_WORD	wordpools/wasnorm_wordpool_576.txt	LTP344	ltpFR2	11	8	AIRPORT	13	n/a	n/a	0	0	0
1463020	REC_WORD	wordpools/wasnorm_wordpool_576.txt	LTP344	ltpFR2	11	8	SANDWICH	1232	n/a	n/a	0	0	0
1463981	REC_WORD_VV	wordpools/wasnorm_wordpool_576.txt	LTP344	ltpFR2	11	8	<>	-1	n/a	n/a	0	0	0
1464321	REC_WORD	wordpools/wasnorm_wordpool_576.txt	LTP344	ltpFR2	11	8	RELISH	1183	n/a	n/a	0	0	0
1510368	REST_REWET	n/a	LTP344	ltpFR2	11	8	n/a	n/a	n/a	n/a	0	0	0
1705446	DISTRACTOR	n/a	LTP344	ltpFR2	11	9	n/a	n/a	n/a	n/a	0	0	0
1705446	START	n/a	LTP344	ltpFR2	11	n/a	n/a	n/a	10	n/a	n/a	n/a	n/a
1705463	PROB	n/a	LTP344	ltpFR2	11	n/a	n/a	n/a	10	10	2	4	4
1706746	PROB	n/a	LTP344	ltpFR2	11	n/a	n/a	n/a	10	11	4	4	3
1708228	PROB	n/a	LTP344	ltpFR2	11	n/a	n/a	n/a	10	11	1	7	3
1709744	PROB	n/a	LTP344	ltpFR2	11	n/a	n/a	n/a	10	10	5	4	1
1710959	PROB	n/a	LTP344	ltpFR2	11	n/a	n/a	n/a	10	14	8	3	3
1712376	PROB	n/a	LTP344	ltpFR2	11	n/a	n/a	n/a	10	14	4	7	3
1713542	PROB	n/a	LTP344	ltpFR2	11	n/a	n/a	n/a	10	9	3	2	4
1715091	PROB	n/a	LTP344	ltpFR2	11	n/a	n/a	n/a	10	18	5	7	6
1716873	PROB	n/a	LTP344	ltpFR2	11	n/a	n/a	n/a	10	10	2	2	6
1717889	PROB	n/a	LTP344	ltpFR2	11	n/a	n/a	n/a	10	14	9	1	4
1719089	PROB	n/a	LTP344	ltpFR2	11	n/a	n/a	n/a	10	14	1	7	6
1721622	PROB	n/a	LTP344	ltpFR2	11	n/a	n/a	n/a	10	16	6	8	2
1723821	PROB	n/a	LTP344	ltpFR2	11	n/a	n/a	n/a	10	14	6	2	6
1725570	PROB	n/a	LTP344	ltpFR2	11	n/a	n/a	n/a	10	17	9	1	7
1726653	PROB	n/a	LTP344	ltpFR2	11	n/a	n/a	n/a	10	24	9	6	9
1728619	STOP	n/a	LTP344	ltpFR2	11	n/a	n/a	n/a	10	n/a	n/a	n/a	n/a
1730468	WORD	wordpools/wasnorm_wordpool_576.txt	LTP344	ltpFR2	11	9	BURGLAR	200	n/a	n/a	0	0	0
1733149	WORD	wordpools/wasnorm_wordpool_576.txt	LTP344	ltpFR2	11	9	PATIENT	1024	n/a	n/a	0	0	0
1735716	WORD	wordpools/wasnorm_wordpool_576.txt	LTP344	ltpFR2	11	9	WHISTLE	1606	n/a	n/a	0	0	0
1738464	WORD	wordpools/wasnorm_wordpool_576.txt	LTP344	ltpFR2	11	9	LABEL	790	n/a	n/a	0	0	0
1741129	WORD	wordpools/wasnorm_wordpool_576.txt	LTP344	ltpFR2	11	9	HORSE	719	n/a	n/a	0	0	0
1743629	WORD	wordpools/wasnorm_wordpool_576.txt	LTP344	ltpFR2	11	9	KNAPSACK	783	n/a	n/a	0	0	0
1746093	WORD	wordpools/wasnorm_wordpool_576.txt	LTP344	ltpFR2	11	9	CROWN	415	n/a	n/a	0	0	0
1748543	WORD	wordpools/wasnorm_wordpool_576.txt	LTP344	ltpFR2	11	9	PRINCE	1124	n/a	n/a	0	0	0
1751292	WORD	wordpools/wasnorm_wordpool_576.txt	LTP344	ltpFR2	11	9	DASHBOARD	441	n/a	n/a	0	0	0
1754056	WORD	wordpools/wasnorm_wordpool_576.txt	LTP344	ltpFR2	11	9	LION	827	n/a	n/a	0	0	0
1756506	WORD	wordpools/wasnorm_wordpool_576.txt	LTP344	ltpFR2	11	9	SALMON	1227	n/a	n/a	0	0	0
1759154	WORD	wordpools/wasnorm_wordpool_576.txt	LTP344	ltpFR2	11	9	TROUT	1511	n/a	n/a	0	0	0
1761654	WORD	wordpools/wasnorm_wordpool_576.txt	LTP344	ltpFR2	11	9	AWARD	63	n/a	n/a	0	0	0
1764403	WORD	wordpools/wasnorm_wordpool_576.txt	LTP344	ltpFR2	11	9	DENTIST	447	n/a	n/a	0	0	0
1767117	WORD	wordpools/wasnorm_wordpool_576.txt	LTP344	ltpFR2	11	9	PLATE	1086	n/a	n/a	0	0	0
1769667	WORD	wordpools/wasnorm_wordpool_576.txt	LTP344	ltpFR2	11	9	YARN	1631	n/a	n/a	0	0	0
1772449	WORD	wordpools/wasnorm_wordpool_576.txt	LTP344	ltpFR2	11	9	WINDOW	1611	n/a	n/a	0	0	0
1775080	WORD	wordpools/wasnorm_wordpool_576.txt	LTP344	ltpFR2	11	9	SWAMP	1416	n/a	n/a	0	0	0
1777530	WORD	wordpools/wasnorm_wordpool_576.txt	LTP344	ltpFR2	11	9	SPHINX	1349	n/a	n/a	0	0	0
1780078	WORD	wordpools/wasnorm_wordpool_576.txt	LTP344	ltpFR2	11	9	FLUTE	585	n/a	n/a	0	0	0
1782511	WORD	wordpools/wasnorm_wordpool_576.txt	LTP344	ltpFR2	11	9	DIVER	476	n/a	n/a	0	0	0
1785343	WORD	wordpools/wasnorm_wordpool_576.txt	LTP344	ltpFR2	11	9	QUEEN	1149	n/a	n/a	0	0	0
1788008	WORD	wordpools/wasnorm_wordpool_576.txt	LTP344	ltpFR2	11	9	PRINCESS	1125	n/a	n/a	0	0	0
1790641	WORD	wordpools/wasnorm_wordpool_576.txt	LTP344	ltpFR2	11	9	CAFE	216	n/a	n/a	0	0	0
1792257	START	n/a	LTP344	ltpFR2	11	n/a	n/a	n/a	11	n/a	n/a	n/a	n/a
1793187	DISTRACTOR	n/a	LTP344	ltpFR2	11	9	n/a	n/a	n/a	n/a	0	0	0
1793190	PROB	n/a	LTP344	ltpFR2	11	n/a	n/a	n/a	11	26	9	8	9
1794971	PROB	n/a	LTP344	ltpFR2	11	n/a	n/a	n/a	11	13	3	2	8
1796638	PROB	n/a	LTP344	ltpFR2	11	n/a	n/a	n/a	11	11	1	8	2
1798537	PROB	n/a	LTP344	ltpFR2	11	n/a	n/a	n/a	11	12	3	6	3
1799803	PROB	n/a	LTP344	ltpFR2	11	n/a	n/a	n/a	11	19	8	3	8
1801319	PROB	n/a	LTP344	ltpFR2	11	n/a	n/a	n/a	11	20	9	2	9
1802669	PROB	n/a	LTP344	ltpFR2	11	n/a	n/a	n/a	11	14	4	3	7
1803752	PROB	n/a	LTP344	ltpFR2	11	n/a	n/a	n/a	11	15	1	9	5
1804718	PROB	n/a	LTP344	ltpFR2	11	n/a	n/a	n/a	11	13	6	2	5
1806250	PROB	n/a	LTP344	ltpFR2	11	n/a	n/a	n/a	11	3	9	6	8
1809182	PROB	n/a	LTP344	ltpFR2	11	n/a	n/a	n/a	11	13	1	5	7
1810765	PROB	n/a	LTP344	ltpFR2	11	n/a	n/a	n/a	11	7	2	3	2
1812431	PROB	n/a	LTP344	ltpFR2	11	n/a	n/a	n/a	11	12	2	3	7
1813447	PROB	n/a	LTP344	ltpFR2	11	n/a	n/a	n/a	11	14	4	6	4
1814647	PROB	n/a	LTP344	ltpFR2	11	n/a	n/a	n/a	11	10	4	1	5
1815789	STOP	n/a	LTP344	ltpFR2	11	n/a	n/a	n/a	11	n/a	n/a	n/a	n/a
1818161	REC_START	n/a	LTP344	ltpFR2	11	9	n/a	n/a	n/a	n/a	0	0	0
1820561	REC_WORD	wordpools/wasnorm_wordpool_576.txt	LTP344	ltpFR2	11	9	HORSE	719	n/a	n/a	0	0	0
1822809	REC_WORD	wordpools/wasnorm_wordpool_576.txt	LTP344	ltpFR2	11	9	PRINCE	1124	n/a	n/a	0	0	0
1823870	REC_WORD	wordpools/wasnorm_wordpool_576.txt	LTP344	ltpFR2	11	9	CROWN	415	n/a	n/a	0	0	0
1824666	REC_WORD	wordpools/wasnorm_wordpool_576.txt	LTP344	ltpFR2	11	9	PRINCESS	1125	n/a	n/a	0	0	0
1825642	REC_WORD	wordpools/wasnorm_wordpool_576.txt	LTP344	ltpFR2	11	9	QUEEN	1149	n/a	n/a	0	0	0
1826424	REC_WORD	wordpools/wasnorm_wordpool_576.txt	LTP344	ltpFR2	11	9	CAFE	216	n/a	n/a	0	0	0
1827461	REC_WORD	wordpools/wasnorm_wordpool_576.txt	LTP344	ltpFR2	11	9	PLATE	1086	n/a	n/a	0	0	0
1828655	REC_WORD	wordpools/wasnorm_wordpool_576.txt	LTP344	ltpFR2	11	9	DENTIST	447	n/a	n/a	0	0	0
1830061	REC_WORD	wordpools/wasnorm_wordpool_576.txt	LTP344	ltpFR2	11	9	TROUT	1511	n/a	n/a	0	0	0
1836167	REC_WORD	wordpools/wasnorm_wordpool_576.txt	LTP344	ltpFR2	11	9	BURGLAR	200	n/a	n/a	0	0	0
1837046	REC_WORD	wordpools/wasnorm_wordpool_576.txt	LTP344	ltpFR2	11	9	PATIENT	1024	n/a	n/a	0	0	0
1837852	REC_WORD	wordpools/wasnorm_wordpool_576.txt	LTP344	ltpFR2	11	9	WHISTLE	1606	n/a	n/a	0	0	0
1908621	WORD	wordpools/wasnorm_wordpool_576.txt	LTP344	ltpFR2	11	10	BANK	83	n/a	n/a	0	0	0
1911203	WORD	wordpools/wasnorm_wordpool_576.txt	LTP344	ltpFR2	11	10	RADISH	1158	n/a	n/a	0	0	0
1914034	WORD	wordpools/wasnorm_wordpool_576.txt	LTP344	ltpFR2	11	10	PISTON	1076	n/a	n/a	0	0	0
1916684	WORD	wordpools/wasnorm_wordpool_576.txt	LTP344	ltpFR2	11	10	DIME	466	n/a	n/a	0	0	0
1919132	WORD	wordpools/wasnorm_wordpool_576.txt	LTP344	ltpFR2	11	10	CITRUS	313	n/a	n/a	0	0	0
1921864	WORD	wordpools/wasnorm_wordpool_576.txt	LTP344	ltpFR2	11	10	JUGGLER	763	n/a	n/a	0	0	0
1924364	WORD	wordpools/wasnorm_wordpool_576.txt	LTP344	ltpFR2	11	10	HAWK	692	n/a	n/a	0	0	0
1927161	WORD	wordpools/wasnorm_wordpool_576.txt	LTP344	ltpFR2	11	10	BACON	67	n/a	n/a	0	0	0
1929645	WORD	wordpools/wasnorm_wordpool_576.txt	LTP344	ltpFR2	11	10	OMELET	976	n/a	n/a	0	0	0
1932360	WORD	wordpools/wasnorm_wordpool_576.txt	LTP344	ltpFR2	11	10	COCKTAIL	338	n/a	n/a	0	0	0
1934908	WORD	wordpools/wasnorm_wordpool_576.txt	LTP344	ltpFR2	11	10	HELMET	702	n/a	n/a	0	0	0
1937408	WORD	wordpools/wasnorm_wordpool_576.txt	LTP344	ltpFR2	11	10	POISON	1096	n/a	n/a	0	0	0
1940072	WORD	wordpools/wasnorm_wordpool_576.txt	LTP344	ltpFR2	11	10	SLOPE	1328	n/a	n/a	0	0	0
1942672	WORD	wordpools/wasnorm_wordpool_576.txt	LTP344	ltpFR2	11	10	CABIN	211	n/a	n/a	0	0	0
1945120	WORD	wordpools/wasnorm_wordpool_576.txt	LTP344	ltpFR2	11	10	CRITIC	410	n/a	n/a	0	0	0
1947670	WORD	wordpools/wasnorm_wordpool_576.txt	LTP344	ltpFR2	11	10	LAVA	804	n/a	n/a	0	0	0
1950419	WORD	wordpools/wasnorm_wordpool_576.txt	LTP344	ltpFR2	11	10	CRATER	400	n/a	n/a	0	0	0
1953166	WORD	wordpools/wasnorm_wordpool_576.txt	LTP344	ltpFR2	11	10	JUDGE	761	n/a	n/a	0	0	0
1955716	WORD	wordpools/wasnorm_wordpool_576.txt	LTP344	ltpFR2	11	10	LAMP	798	n/a	n/a	0	0	0
1958147	WORD	wordpools/wasnorm_wordpool_576.txt	LTP344	ltpFR2	11	10	THREAD	1460	n/a	n/a	0	0	0
1960747	WORD	wordpools/wasnorm_wordpool_576.txt	LTP344	ltpFR2	11	10	DRINK	498	n/a	n/a	0	0	0
1963296	WORD	wordpools/wasnorm_wordpool_576.txt	LTP344	ltpFR2	11	10	DAISY	435	n/a	n/a	0	0	0
1965911	WORD	wordpools/wasnorm_wordpool_576.txt	LTP344	ltpFR2	11	10	RACKET	1155	n/a	n/a	0	0	0
1968444	WORD	wordpools/wasnorm_wordpool_576.txt	LTP344	ltpFR2	11	10	SCOTCH	1251	n/a	n/a	0	0	0
1970059	START	n/a	LTP344	ltpFR2	11	n/a	n/a	n/a	12	n/a	n/a	n/a	n/a
1970991	DISTRACTOR	n/a	LTP344	ltpFR2	11	10	n/a	n/a	n/a	n/a	0	0	0
1971008	PROB	n/a	LTP344	ltpFR2	11	n/a	n/a	n/a	12	16	2	5	9
1972609	PROB	n/a	LTP344	ltpFR2	11	n/a	n/a	n/a	12	9	2	3	4
1974374	PROB	n/a	LTP344	ltpFR2	11	n/a	n/a	n/a	12	15	4	8	3
1980054	PROB	n/a	LTP344	ltpFR2	11	n/a	n/a	n/a	12	14	5	6	3
1981621	PROB	n/a	LTP344	ltpFR2	11	n/a	n/a	n/a	12	8	2	5	1
1982504	PROB	n/a	LTP344	ltpFR2	11	n/a	n/a	n/a	12	24	9	8	7
1985319	PROB	n/a	LTP344	ltpFR2	11	n/a	n/a	n/a	12	9	6	2	1
1986419	PROB	n/a	LTP344	ltpFR2	11	n/a	n/a	n/a	12	18	5	7	6
1987718	PROB	n/a	LTP344	ltpFR2	11	n/a	n/a	n/a	12	15	1	7	7
1988768	PROB	n/a	LTP344	ltpFR2	11	n/a	n/a	n/a	12	18	5	7	6
1990567	PROB	n/a	LTP344	ltpFR2	11	n/a	n/a	n/a	12	13	2	8	3
1991899	PROB	n/a	LTP344	ltpFR2	11	n/a	n/a	n/a	12	6	3	2	3
1993050	STOP	n/a	LTP344	ltpFR2	11	n/a	n/a	n/a	12	n/a	n/a	n/a	n/a
1995964	REC_START	n/a	LTP344	ltpFR2	11	10	n/a	n/a	n/a	n/a	0	0	0
1998036	REC_WORD	wordpools/wasnorm_wordpool_576.txt	LTP344	ltpFR2	11	10	RADISH	1158	n/a	n/a	0	0	0
1999133	REC_WORD	wordpools/wasnorm_wordpool_576.txt	LTP344	ltpFR2	11	10	BANK	83	n/a	n/a	0	0	0
2000005	REC_WORD	wordpools/wasnorm_wordpool_576.txt	LTP344	ltpFR2	11	10	SLOPE	1328	n/a	n/a	0	0	0
2001466	REC_WORD	wordpools/wasnorm_wordpool_576.txt	LTP344	ltpFR2	11	10	DIME	466	n/a	n/a	0	0	0
2002495	REC_WORD	wordpools/wasnorm_wordpool_576.txt	LTP344	ltpFR2	11	10	CITRUS	313	n/a	n/a	0	0	0
2003495	REC_WORD_VV	wordpools/wasnorm_wordpool_576.txt	LTP344	ltpFR2	11	10	<>	-1	n/a	n/a	0	0	0
2003972	REC_WORD	wordpools/wasnorm_wordpool_576.txt	LTP344	ltpFR2	11	10	JUGGLER	763	n/a	n/a	0	0	0
2004854	REC_WORD	wordpools/wasnorm_wordpool_576.txt	LTP344	ltpFR2	11	10	HAWK	692	n/a	n/a	0	0	0
2007268	REC_WORD	wordpools/wasnorm_wordpool_576.txt	LTP344	ltpFR2	11	10	HELMET	702	n/a	n/a	0	0	0
2008454	REC_WORD	wordpools/wasnorm_wordpool_576.txt	LTP344	ltpFR2	11	10	POISON	1096	n/a	n/a	0	0	0
2086407	DISTRACTOR	n/a	LTP344	ltpFR2	11	11	n/a	n/a	n/a	n/a	0	0	0
2086407	START	n/a	LTP344	ltpFR2	11	n/a	n/a	n/a	13	n/a	n/a	n/a	n/a
2086424	PROB	n/a	LTP344	ltpFR2	11	n/a	n/a	n/a	13	12	8	3	1
2087905	PROB	n/a	LTP344	ltpFR2	11	n/a	n/a	n/a	13	14	1	8	5
2089222	PROB	n/a	LTP344	ltpFR2	11	n/a	n/a	n/a	13	23	9	9	5
2090422	PROB	n/a	LTP344	ltpFR2	11	n/a	n/a	n/a	13	12	1	3	8
2092804	PROB	n/a	LTP344	ltpFR2	11	n/a	n/a	n/a	13	17	7	8	2
2094503	PROB	n/a	LTP344	ltpFR2	11	n/a	n/a	n/a	13	17	4	4	9
2096168	PROB	n/a	LTP344	ltpFR2	11	n/a	n/a	n/a	13	19	3	9	7
2097901	PROB	n/a	LTP344	ltpFR2	11	n/a	n/a	n/a	13	21	9	5	7
2100334	PROB	n/a	LTP344	ltpFR2	11	n/a	n/a	n/a	13	8	1	4	3
2102016	PROB	n/a	LTP344	ltpFR2	11	n/a	n/a	n/a	13	15	5	7	3
2103233	PROB	n/a	LTP344	ltpFR2	11	n/a	n/a	n/a	13	16	4	3	9
2104848	PROB	n/a	LTP344	ltpFR2	11	n/a	n/a	n/a	13	24	6	8	8
2106565	PROB	n/a	LTP344	ltpFR2	11	n/a	n/a	n/a	13	21	9	3	9
2109990	STOP	n/a	LTP344	ltpFR2	11	n/a	n/a	n/a	13	n/a	n/a	n/a	n/a
2111496	WORD	wordpools/wasnorm_wordpool_576.txt	LTP344	ltpFR2	11	11	SLIME	1327	n/a	n/a	0	0	0
2114144	WORD	wordpools/wasnorm_wordpool_576.txt	LTP344	ltpFR2	11	11	COMET	353	n/a	n/a	0	0	0
2116942	WORD	wordpools/wasnorm_wordpool_576.txt	LTP344	ltpFR2	11	11	CHAUFFEUR	283	n/a	n/a	0	0	0
2119542	WORD	wordpools/wasnorm_wordpool_576.txt	LTP344	ltpFR2	11	11	BOYFRIEND	162	n/a	n/a	0	0	0
2122241	WORD	wordpools/wasnorm_wordpool_576.txt	LTP344	ltpFR2	11	11	RIVER	1194	n/a	n/a	0	0	0
2124922	WORD	wordpools/wasnorm_wordpool_576.txt	LTP344	ltpFR2	11	11	CORAL	378	n/a	n/a	0	0	0
2127505	WORD	wordpools/wasnorm_wordpool_576.txt	LTP344	ltpFR2	11	11	GLOBE	641	n/a	n/a	0	0	0
2129953	WORD	wordpools/wasnorm_wordpool_576.txt	LTP344	ltpFR2	11	11	BEAST	108	n/a	n/a	0	0	0
2132703	WORD	wordpools/wasnorm_wordpool_576.txt	LTP344	ltpFR2	11	11	PANTHER	1009	n/a	n/a	0	0	0
2135302	WORD	wordpools/wasnorm_wordpool_576.txt	LTP344	ltpFR2	11	11	HAMPER	682	n/a	n/a	0	0	0
2138099	WORD	wordpools/wasnorm_wordpool_576.txt	LTP344	ltpFR2	11	11	OUTFIT	988	n/a	n/a	0	0	0
2140766	WORD	wordpools/wasnorm_wordpool_576.txt	LTP344	ltpFR2	11	11	ACTRESS	6	n/a	n/a	0	0	0
2143548	WORD	wordpools/wasnorm_wordpool_576.txt	LTP344	ltpFR2	11	11	SCULPTURE	1258	n/a	n/a	0	0	0
2146213	WORD	wordpools/wasnorm_wordpool_576.txt	LTP344	ltpFR2	11	11	BADGE	68	n/a	n/a	0	0	0
2148894	WORD	wordpools/wasnorm_wordpool_576.txt	LTP344	ltpFR2	11	11	BEEF	113	n/a	n/a	0	0	0
2151694	WORD	wordpools/wasnorm_wordpool_576.txt	LTP344	ltpFR2	11	11	PARTNER	1017	n/a	n/a	0	0	0
2154276	WORD	wordpools/wasnorm_wordpool_576.txt	LTP344	ltpFR2	11	11	STICKER	1382	n/a	n/a	0	0	0
2156907	WORD	wordpools/wasnorm_wordpool_576.txt	LTP344	ltpFR2	11	11	POET	1095	n/a	n/a	0	0	0
2159407	WORD	wordpools/wasnorm_wordpool_576.txt	LTP344	ltpFR2	11	11	STONE	1385	n/a	n/a	0	0	0
2162105	WORD	wordpools/wasnorm_wordpool_576.txt	LTP344	ltpFR2	11	11	AUTHOR	61	n/a	n/a	0	0	0
2164538	WORD	wordpools/wasnorm_wordpool_576.txt	LTP344	ltpFR2	11	11	LACE	792	n/a	n/a	0	0	0
2167354	WORD	wordpools/wasnorm_wordpool_576.txt	LTP344	ltpFR2	11	11	ROBOT	1200	n/a	n/a	0	0	0
2169952	WORD	wordpools/wasnorm_wordpool_576.txt	LTP344	ltpFR2	11	11	BUTCHER	203	n/a	n/a	0	0	0
2172718	WORD	wordpools/wasnorm_wordpool_576.txt	LTP344	ltpFR2	11	11	GHETTO	633	n/a	n/a	0	0	0
2174334	START	n/a	LTP344	ltpFR2	11	n/a	n/a	n/a	14	n/a	n/a	n/a	n/a
2175318	DISTRACTOR	n/a	LTP344	ltpFR2	11	11	n/a	n/a	n/a	n/a	0	0	0
2175333	PROB	n/a	LTP344	ltpFR2	11	n/a	n/a	n/a	14	23	7	9	7
2177516	PROB	n/a	LTP344	ltpFR2	11	n/a	n/a	n/a	14	11	2	2	7
2178565	PROB	n/a	LTP344	ltpFR2	11	n/a	n/a	n/a	14	10	6	1	3
2180164	PROB	n/a	LTP344	ltpFR2	11	n/a	n/a	n/a	14	12	2	7	3
2181531	PROB	n/a	LTP344	ltpFR2	11	n/a	n/a	n/a	14	12	1	9	2
2182946	PROB	n/a	LTP344	ltpFR2	11	n/a	n/a	n/a	14	21	9	8	4
2184978	PROB	n/a	LTP344	ltpFR2	11	n/a	n/a	n/a	14	11	1	1	9
2186028	PROB	n/a	LTP344	ltpFR2	11	n/a	n/a	n/a	14	17	6	3	8
2187695	PROB	n/a	LTP344	ltpFR2	11	n/a	n/a	n/a	14	11	5	2	4
2189360	PROB	n/a	LTP344	ltpFR2	11	n/a	n/a	n/a	14	21	9	4	8
2190909	PROB	n/a	LTP344	ltpFR2	11	n/a	n/a	n/a	14	17	6	5	6
2192592	PROB	n/a	LTP344	ltpFR2	11	n/a	n/a	n/a	14	17	8	7	2
2194024	PROB	n/a	LTP344	ltpFR2	11	n/a	n/a	n/a	14	12	4	6	2
2195308	PROB	n/a	LTP344	ltpFR2	11	n/a	n/a	n/a	14	14	3	7	4
2196541	PROB	n/a	LTP344	ltpFR2	11	n/a	n/a	n/a	14	11	5	4	1
2197650	STOP	n/a	LTP344	ltpFR2	11	n/a	n/a	n/a	14	n/a	n/a	n/a	n/a
2200122	REC_START	n/a	LTP344	ltpFR2	11	11	n/a	n/a	n/a	n/a	0	0	0
2202777	REC_WORD	wordpools/wasnorm_wordpool_576.txt	LTP344	ltpFR2	11	11	STONE	1385	n/a	n/a	0	0	0
2204533	REC_WORD_VV	wordpools/wasnorm_wordpool_576.txt	LTP344	ltpFR2	11	11	<>	-1	n/a	n/a	0	0	0
2214564	REC_WORD	wordpools/wasnorm_wordpool_576.txt	LTP344	ltpFR2	11	11	LACE	792	n/a	n/a	0	0	0
2290581	WORD	wordpools/wasnorm_wordpool_576.txt	LTP344	ltpFR2	11	12	HATCHET	691	n/a	n/a	0	0	0
2293330	WORD	wordpools/wasnorm_wordpool_576.txt	LTP344	ltpFR2	11	12	SPOON	1357	n/a	n/a	0	0	0
2296028	WORD	wordpools/wasnorm_wordpool_576.txt	LTP344	ltpFR2	11	12	SIDEWALK	1303	n/a	n/a	0	0	0
2298661	WORD	wordpools/wasnorm_wordpool_576.txt	LTP344	ltpFR2	11	12	BOX	159	n/a	n/a	0	0	0
2301476	WORD	wordpools/wasnorm_wordpool_576.txt	LTP344	ltpFR2	11	12	CAMEL	223	n/a	n/a	0	0	0
2303908	WORD	wordpools/wasnorm_wordpool_576.txt	LTP344	ltpFR2	11	12	CRIB	407	n/a	n/a	0	0	0
2306391	WORD	wordpools/wasnorm_wordpool_576.txt	LTP344	ltpFR2	11	12	BUGGY	188	n/a	n/a	0	0	0
2308972	WORD	wordpools/wasnorm_wordpool_576.txt	LTP344	ltpFR2	11	12	GARDEN	623	n/a	n/a	0	0	0
2311655	WORD	wordpools/wasnorm_wordpool_576.txt	LTP344	ltpFR2	11	12	PIGMENT	1066	n/a	n/a	0	0	0
2314271	WORD	wordpools/wasnorm_wordpool_576.txt	LTP344	ltpFR2	11	12	BANKER	84	n/a	n/a	0	0	0
2316885	WORD	wordpools/wasnorm_wordpool_576.txt	LTP344	ltpFR2	11	12	GRAVEL	659	n/a	n/a	0	0	0
2319368	WORD	wordpools/wasnorm_wordpool_576.txt	LTP344	ltpFR2	11	12	BLOCKADE	137	n/a	n/a	0	0	0
2321999	WORD	wordpools/wasnorm_wordpool_576.txt	LTP344	ltpFR2	11	12	TERMITE	1451	n/a	n/a	0	0	0
2324749	WORD	wordpools/wasnorm_wordpool_576.txt	LTP344	ltpFR2	11	12	LIGHTNING	820	n/a	n/a	0	0	0
2327181	WORD	wordpools/wasnorm_wordpool_576.txt	LTP344	ltpFR2	11	12	GREASE	660	n/a	n/a	0	0	0
2329764	WORD	wordpools/wasnorm_wordpool_576.txt	LTP344	ltpFR2	11	12	CANDY	230	n/a	n/a	0	0	0
2332229	WORD	wordpools/wasnorm_wordpool_576.txt	LTP344	ltpFR2	11	12	LADY	794	n/a	n/a	0	0	0
2334960	WORD	wordpools/wasnorm_wordpool_576.txt	LTP344	ltpFR2	11	12	KETCHUP	771	n/a	n/a	0	0	0
2337577	WORD	wordpools/wasnorm_wordpool_576.txt	LTP344	ltpFR2	11	12	MUSTARD	935	n/a	n/a	0	0	0
2340275	WORD	wordpools/wasnorm_wordpool_576.txt	LTP344	ltpFR2	11	12	EXPERT	543	n/a	n/a	0	0	0
2342907	WORD	wordpools/wasnorm_wordpool_576.txt	LTP344	ltpFR2	11	12	WIDOW	1608	n/a	n/a	0	0	0
2345423	WORD	wordpools/wasnorm_wordpool_576.txt	LTP344	ltpFR2	11	12	BRAKE	166	n/a	n/a	0	0	0
2348189	WORD	wordpools/wasnorm_wordpool_576.txt	LTP344	ltpFR2	11	12	BABY	64	n/a	n/a	0	0	0
2350804	WORD	wordpools/wasnorm_wordpool_576.txt	LTP344	ltpFR2	11	12	CREVICE	405	n/a	n/a	0	0	0
2352420	START	n/a	LTP344	ltpFR2	11	n/a	n/a	n/a	15	n/a	n/a	n/a	n/a
2353590	DISTRACTOR	n/a	LTP344	ltpFR2	11	12	n/a	n/a	n/a	n/a	0	0	0
2353603	PROB	n/a	LTP344	ltpFR2	11	n/a	n/a	n/a	15	16	7	3	6
2354918	PROB	n/a	LTP344	ltpFR2	11	n/a	n/a	n/a	15	22	8	7	7
2357484	PROB	n/a	LTP344	ltpFR2	11	n/a	n/a	n/a	15	12	3	7	2
2358517	PROB	n/a	LTP344	ltpFR2	11	n/a	n/a	n/a	15	19	4	6	9
2359650	PROB	n/a	LTP344	ltpFR2	11	n/a	n/a	n/a	15	8	2	3	3
2361148	PROB	n/a	LTP344	ltpFR2	11	n/a	n/a	n/a	15	18	9	5	4
2363265	PROB	n/a	LTP344	ltpFR2	11	n/a	n/a	n/a	15	12	8	1	3
2364464	PROB	n/a	LTP344	ltpFR2	11	n/a	n/a	n/a	15	13	8	4	1
2366197	PROB	n/a	LTP344	ltpFR2	11	n/a	n/a	n/a	15	23	9	8	6
2369396	PROB	n/a	LTP344	ltpFR2	11	n/a	n/a	n/a	15	19	7	6	6
2371528	PROB	n/a	LTP344	ltpFR2	11	n/a	n/a	n/a	15	12	1	4	7
2373026	PROB	n/a	LTP344	ltpFR2	11	n/a	n/a	n/a	15	10	5	3	2
2374377	PROB	n/a	LTP344	ltpFR2	11	n/a	n/a	n/a	15	20	4	7	9
2375862	STOP	n/a	LTP344	ltpFR2	11	n/a	n/a	n/a	15	n/a	n/a	n/a	n/a
2378275	REC_START	n/a	LTP344	ltpFR2	11	12	n/a	n/a	n/a	n/a	0	0	0
2380004	REC_WORD	wordpools/wasnorm_wordpool_576.txt	LTP344	ltpFR2	11	12	BANKER	84	n/a	n/a	0	0	0
2381282	REC_WORD	wordpools/wasnorm_wordpool_576.txt	LTP344	ltpFR2	11	12	GRAVEL	659	n/a	n/a	0	0	0
2382450	REC_WORD	wordpools/wasnorm_wordpool_576.txt	LTP344	ltpFR2	11	12	SPOON	1357	n/a	n/a	0	0	0
2383423	REC_WORD	wordpools/wasnorm_wordpool_576.txt	LTP344	ltpFR2	11	12	HATCHET	691	n/a	n/a	0	0	0
2384531	REC_WORD	wordpools/wasnorm_wordpool_576.txt	LTP344	ltpFR2	11	12	SIDEWALK	1303	n/a	n/a	0	0	0
2387424	REC_WORD	wordpools/wasnorm_wordpool_576.txt	LTP344	ltpFR2	11	12	CRIB	407	n/a	n/a	0	0	0
2388942	REC_WORD	wordpools/wasnorm_wordpool_576.txt	LTP344	ltpFR2	11	12	BOX	159	n/a	n/a	0	0	0
2390236	REC_WORD	wordpools/wasnorm_wordpool_576.txt	LTP344	ltpFR2	11	12	CAMEL	223	n/a	n/a	0	0	0
2396195	REC_WORD	wordpools/wasnorm_wordpool_576.txt	LTP344	ltpFR2	11	12	BABY	64	n/a	n/a	0	0	0
2400502	REC_WORD	wordpools/wasnorm_wordpool_576.txt	LTP344	ltpFR2	11	12	LIGHTNING	820	n/a	n/a	0	0	0
2401908	REC_WORD	wordpools/wasnorm_wordpool_576.txt	LTP344	ltpFR2	11	12	GREASE	660	n/a	n/a	0	0	0
2404098	REC_WORD	wordpools/wasnorm_wordpool_576.txt	LTP344	ltpFR2	11	12	CANDY	230	n/a	n/a	0	0	0
2405029	REC_WORD	wordpools/wasnorm_wordpool_576.txt	LTP344	ltpFR2	11	12	LADY	794	n/a	n/a	0	0	0
2406452	REC_WORD	wordpools/wasnorm_wordpool_576.txt	LTP344	ltpFR2	11	12	EXPERT	543	n/a	n/a	0	0	0
2407083	REC_WORD	wordpools/wasnorm_wordpool_576.txt	LTP344	ltpFR2	11	12	WIDOW	1608	n/a	n/a	0	0	0
2468717	DISTRACTOR	n/a	LTP344	ltpFR2	11	13	n/a	n/a	n/a	n/a	0	0	0
2468718	START	n/a	LTP344	ltpFR2	11	n/a	n/a	n/a	16	n/a	n/a	n/a	n/a
2468734	PROB	n/a	LTP344	ltpFR2	11	n/a	n/a	n/a	16	11	1	7	3
2470166	PROB	n/a	LTP344	ltpFR2	11	n/a	n/a	n/a	16	12	8	3	1
2471283	PROB	n/a	LTP344	ltpFR2	11	n/a	n/a	n/a	16	16	4	7	5
2473582	PROB	n/a	LTP344	ltpFR2	11	n/a	n/a	n/a	16	11	2	5	4
2475147	PROB	n/a	LTP344	ltpFR2	11	n/a	n/a	n/a	16	5	1	1	3
2476514	PROB	n/a	LTP344	ltpFR2	11	n/a	n/a	n/a	16	13	2	8	3
2477680	PROB	n/a	LTP344	ltpFR2	11	n/a	n/a	n/a	16	17	9	7	1
2480595	PROB	n/a	LTP344	ltpFR2	11	n/a	n/a	n/a	16	21	9	4	8
2483377	PROB	n/a	LTP344	ltpFR2	11	n/a	n/a	n/a	16	12	2	9	1
2484477	PROB	n/a	LTP344	ltpFR2	11	n/a	n/a	n/a	16	10	2	6	2
2485526	PROB	n/a	LTP344	ltpFR2	11	n/a	n/a	n/a	16	19	7	7	5
2487292	PROB	n/a	LTP344	ltpFR2	11	n/a	n/a	n/a	16	15	5	1	9
2488259	PROB	n/a	LTP344	ltpFR2	11	n/a	n/a	n/a	16	15	6	1	8
2489774	PROB	n/a	LTP344	ltpFR2	11	n/a	n/a	n/a	16	17	4	5	8
2491531	STOP	n/a	LTP344	ltpFR2	11	n/a	n/a	n/a	16	n/a	n/a	n/a	n/a
2493639	WORD	wordpools/wasnorm_wordpool_576.txt	LTP344	ltpFR2	11	13	RECORD	1176	n/a	n/a	0	0	0
2496087	WORD	wordpools/wasnorm_wordpool_576.txt	LTP344	ltpFR2	11	13	HIKER	708	n/a	n/a	0	0	0
2498571	WORD	wordpools/wasnorm_wordpool_576.txt	LTP344	ltpFR2	11	13	LILY	821	n/a	n/a	0	0	0
2501286	WORD	wordpools/wasnorm_wordpool_576.txt	LTP344	ltpFR2	11	13	BLUEPRINT	142	n/a	n/a	0	0	0
2503768	WORD	wordpools/wasnorm_wordpool_576.txt	LTP344	ltpFR2	11	13	ROD	1203	n/a	n/a	0	0	0
2506517	WORD	wordpools/wasnorm_wordpool_576.txt	LTP344	ltpFR2	11	13	ORANGE	980	n/a	n/a	0	0	0
2509165	WORD	wordpools/wasnorm_wordpool_576.txt	LTP344	ltpFR2	11	13	SUNSET	1408	n/a	n/a	0	0	0
2511748	WORD	wordpools/wasnorm_wordpool_576.txt	LTP344	ltpFR2	11	13	WORLD	1622	n/a	n/a	0	0	0
2514380	WORD	wordpools/wasnorm_wordpool_576.txt	LTP344	ltpFR2	11	13	PARROT	1015	n/a	n/a	0	0	0
2517179	WORD	wordpools/wasnorm_wordpool_576.txt	LTP344	ltpFR2	11	13	GIFT	635	n/a	n/a	0	0	0
2519711	WORD	wordpools/wasnorm_wordpool_576.txt	LTP344	ltpFR2	11	13	SHORTS	1293	n/a	n/a	0	0	0
2522493	WORD	wordpools/wasnorm_wordpool_576.txt	LTP344	ltpFR2	11	13	COTTAGE	384	n/a	n/a	0	0	0
2524924	WORD	wordpools/wasnorm_wordpool_576.txt	LTP344	ltpFR2	11	13	LEOPARD	812	n/a	n/a	0	0	0
2527707	WORD	wordpools/wasnorm_wordpool_576.txt	LTP344	ltpFR2	11	13	SPACE	1345	n/a	n/a	0	0	0
2530273	WORD	wordpools/wasnorm_wordpool_576.txt	LTP344	ltpFR2	11	13	CLOTHES	327	n/a	n/a	0	0	0
2533071	WORD	wordpools/wasnorm_wordpool_576.txt	LTP344	ltpFR2	11	13	BUREAU	199	n/a	n/a	0	0	0
2535554	WORD	wordpools/wasnorm_wordpool_576.txt	LTP344	ltpFR2	11	13	SHOULDER	1294	n/a	n/a	0	0	0
2538018	WORD	wordpools/wasnorm_wordpool_576.txt	LTP344	ltpFR2	11	13	CLAMP	316	n/a	n/a	0	0	0
2540768	WORD	wordpools/wasnorm_wordpool_576.txt	LTP344	ltpFR2	11	13	CLOUD	328	n/a	n/a	0	0	0
2543350	WORD	wordpools/wasnorm_wordpool_576.txt	LTP344	ltpFR2	11	13	TRENCH	1503	n/a	n/a	0	0	0
2546098	WORD	wordpools/wasnorm_wordpool_576.txt	LTP344	ltpFR2	11	13	TROMBONE	1508	n/a	n/a	0	0	0
2548564	WORD	wordpools/wasnorm_wordpool_576.txt	LTP344	ltpFR2	11	13	BANJO	82	n/a	n/a	0	0	0
2551180	WORD	wordpools/wasnorm_wordpool_576.txt	LTP344	ltpFR2	11	13	CLIMBER	323	n/a	n/a	0	0	0
2553779	WORD	wordpools/wasnorm_wordpool_576.txt	LTP344	ltpFR2	11	13	PICTURE	1061	n/a	n/a	0	0	0
2555395	START	n/a	LTP344	ltpFR2	11	n/a	n/a	n/a	17	n/a	n/a	n/a	n/a
2556367	DISTRACTOR	n/a	LTP344	ltpFR2	11	13	n/a	n/a	n/a	n/a	0	0	0
2556378	PROB	n/a	LTP344	ltpFR2	11	n/a	n/a	n/a	17	11	5	1	5
2557560	PROB	n/a	LTP344	ltpFR2	11	n/a	n/a	n/a	17	13	7	4	2
2559276	PROB	n/a	LTP344	ltpFR2	11	n/a	n/a	n/a	17	12	3	8	1
2560559	PROB	n/a	LTP344	ltpFR2	11	n/a	n/a	n/a	17	8	1	1	6
2561542	PROB	n/a	LTP344	ltpFR2	11	n/a	n/a	n/a	17	17	7	6	4
2562808	PROB	n/a	LTP344	ltpFR2	11	n/a	n/a	n/a	17	17	3	5	9
2564241	PROB	n/a	LTP344	ltpFR2	11	n/a	n/a	n/a	17	2	9	7	9
2565839	PROB	n/a	LTP344	ltpFR2	11	n/a	n/a	n/a	17	19	9	6	4
2567489	PROB	n/a	LTP344	ltpFR2	11	n/a	n/a	n/a	17	17	1	7	9
2569021	PROB	n/a	LTP344	ltpFR2	11	n/a	n/a	n/a	17	16	2	5	9
2570937	PROB	n/a	LTP344	ltpFR2	11	n/a	n/a	n/a	17	10	4	3	3
2572221	PROB	n/a	LTP344	ltpFR2	11	n/a	n/a	n/a	17	16	6	6	4
2574253	PROB	n/a	LTP344	ltpFR2	11	n/a	n/a	n/a	17	10	1	2	7
2575319	PROB	n/a	LTP344	ltpFR2	11	n/a	n/a	n/a	17	19	9	9	1
2576502	PROB	n/a	LTP344	ltpFR2	11	n/a	n/a	n/a	17	19	7	6	6
2578973	STOP	n/a	LTP344	ltpFR2	11	n/a	n/a	n/a	17	n/a	n/a	n/a	n/a
2581250	REC_START	n/a	LTP344	ltpFR2	11	13	n/a	n/a	n/a	n/a	0	0	0
2582552	REC_WORD	wordpools/wasnorm_wordpool_576.txt	LTP344	ltpFR2	11	13	TRENCH	1503	n/a	n/a	0	0	0
2583579	REC_WORD	wordpools/wasnorm_wordpool_576.txt	LTP344	ltpFR2	11	13	CLIMBER	323	n/a	n/a	0	0	0
2584149	REC_WORD	wordpools/wasnorm_wordpool_576.txt	LTP344	ltpFR2	11	13	TROMBONE	1508	n/a	n/a	0	0	0
2585127	REC_WORD	wordpools/wasnorm_wordpool_576.txt	LTP344	ltpFR2	11	13	BANJO	82	n/a	n/a	0	0	0
2588617	REC_WORD	wordpools/wasnorm_wordpool_576.txt	LTP344	ltpFR2	11	13	HIKER	708	n/a	n/a	0	0	0
2589715	REC_WORD	wordpools/wasnorm_wordpool_576.txt	LTP344	ltpFR2	11	13	LILY	821	n/a	n/a	0	0	0
2590644	REC_WORD	wordpools/wasnorm_wordpool_576.txt	LTP344	ltpFR2	11	13	SHOULDER	1294	n/a	n/a	0	0	0
2591620	REC_WORD	wordpools/wasnorm_wordpool_576.txt	LTP344	ltpFR2	11	13	CLAMP	316	n/a	n/a	0	0	0
2596897	REC_WORD	wordpools/wasnorm_wordpool_576.txt	LTP344	ltpFR2	11	13	BLUEPRINT	142	n/a	n/a	0	0	0
2597925	REC_WORD	wordpools/wasnorm_wordpool_576.txt	LTP344	ltpFR2	11	13	ROD	1203	n/a	n/a	0	0	0
2608639	REC_WORD	wordpools/wasnorm_wordpool_576.txt	LTP344	ltpFR2	11	13	SUNSET	1408	n/a	n/a	0	0	0
2609639	REC_WORD_VV	wordpools/wasnorm_wordpool_576.txt	LTP344	ltpFR2	11	13	<>	-1	n/a	n/a	0	0	0
2611197	REC_WORD	wordpools/wasnorm_wordpool_576.txt	LTP344	ltpFR2	11	13	WORLD	1622	n/a	n/a	0	0	0
2618898	REC_WORD	wordpools/wasnorm_wordpool_576.txt	LTP344	ltpFR2	11	13	CLOUD	328	n/a	n/a	0	0	0
2671692	DISTRACTOR	n/a	LTP344	ltpFR2	11	14	n/a	n/a	n/a	n/a	0	0	0
2671692	START	n/a	LTP344	ltpFR2	11	n/a	n/a	n/a	18	n/a	n/a	n/a	n/a
2671709	PROB	n/a	LTP344	ltpFR2	11	n/a	n/a	n/a	18	24	9	8	7
2673758	PROB	n/a	LTP344	ltpFR2	11	n/a	n/a	n/a	18	17	8	4	5
2675524	PROB	n/a	LTP344	ltpFR2	11	n/a	n/a	n/a	18	9	6	1	2
2677539	PROB	n/a	LTP344	ltpFR2	11	n/a	n/a	n/a	18	15	5	8	2
2678838	PROB	n/a	LTP344	ltpFR2	11	n/a	n/a	n/a	18	22	8	6	8
2680421	PROB	n/a	LTP344	ltpFR2	11	n/a	n/a	n/a	18	13	5	5	3
2681853	PROB	n/a	LTP344	ltpFR2	11	n/a	n/a	n/a	18	15	6	7	2
2683254	PROB	n/a	LTP344	ltpFR2	11	n/a	n/a	n/a	18	12	5	2	5
2684320	PROB	n/a	LTP344	ltpFR2	11	n/a	n/a	n/a	18	23	9	9	5
2685552	PROB	n/a	LTP344	ltpFR2	11	n/a	n/a	n/a	18	19	8	5	6
2687818	PROB	n/a	LTP344	ltpFR2	11	n/a	n/a	n/a	18	14	9	4	1
2689484	PROB	n/a	LTP344	ltpFR2	11	n/a	n/a	n/a	18	21	5	8	8
2690700	PROB	n/a	LTP344	ltpFR2	11	n/a	n/a	n/a	18	20	6	9	5
2692931	PROB	n/a	LTP344	ltpFR2	11	n/a	n/a	n/a	18	15	3	7	5
2694164	PROB	n/a	LTP344	ltpFR2	11	n/a	n/a	n/a	18	9	5	3	1
2695529	STOP	n/a	LTP344	ltpFR2	11	n/a	n/a	n/a	18	n/a	n/a	n/a	n/a
2696531	WORD	wordpools/wasnorm_wordpool_576.txt	LTP344	ltpFR2	11	14	AIRPLANE	12	n/a	n/a	0	0	0
2699213	WORD	wordpools/wasnorm_wordpool_576.txt	LTP344	ltpFR2	11	14	CONCERT	360	n/a	n/a	0	0	0
2701994	WORD	wordpools/wasnorm_wordpool_576.txt	LTP344	ltpFR2	11	14	EGYPT	519	n/a	n/a	0	0	0
2704594	WORD	wordpools/wasnorm_wordpool_576.txt	LTP344	ltpFR2	11	14	XEROX	1628	n/a	n/a	0	0	0
2707058	WORD	wordpools/wasnorm_wordpool_576.txt	LTP344	ltpFR2	11	14	NOMAD	955	n/a	n/a	0	0	0
2709758	WORD	wordpools/wasnorm_wordpool_576.txt	LTP344	ltpFR2	11	14	CABBAGE	210	n/a	n/a	0	0	0
2712207	WORD	wordpools/wasnorm_wordpool_576.txt	LTP344	ltpFR2	11	14	QUAIL	1147	n/a	n/a	0	0	0
2714972	WORD	wordpools/wasnorm_wordpool_576.txt	LTP344	ltpFR2	11	14	DRESS	495	n/a	n/a	0	0	0
2717638	WORD	wordpools/wasnorm_wordpool_576.txt	LTP344	ltpFR2	11	14	JOURNAL	760	n/a	n/a	0	0	0
2720453	WORD	wordpools/wasnorm_wordpool_576.txt	LTP344	ltpFR2	11	14	TABLET	1427	n/a	n/a	0	0	0
2722951	WORD	wordpools/wasnorm_wordpool_576.txt	LTP344	ltpFR2	11	14	SCRIBBLE	1256	n/a	n/a	0	0	0
2725734	WORD	wordpools/wasnorm_wordpool_576.txt	LTP344	ltpFR2	11	14	COUCH	386	n/a	n/a	0	0	0
2728400	WORD	wordpools/wasnorm_wordpool_576.txt	LTP344	ltpFR2	11	14	CHILD	299	n/a	n/a	0	0	0
2730898	WORD	wordpools/wasnorm_wordpool_576.txt	LTP344	ltpFR2	11	14	SCARF	1246	n/a	n/a	0	0	0
2733731	WORD	wordpools/wasnorm_wordpool_576.txt	LTP344	ltpFR2	11	14	ATOM	55	n/a	n/a	0	0	0
2736263	WORD	wordpools/wasnorm_wordpool_576.txt	LTP344	ltpFR2	11	14	COUNTRY	388	n/a	n/a	0	0	0
2739027	WORD	wordpools/wasnorm_wordpool_576.txt	LTP344	ltpFR2	11	14	LONDON	843	n/a	n/a	0	0	0
2741644	WORD	wordpools/wasnorm_wordpool_576.txt	LTP344	ltpFR2	11	14	TOURIST	1488	n/a	n/a	0	0	0
2744426	WORD	wordpools/wasnorm_wordpool_576.txt	LTP344	ltpFR2	11	14	TWIG	1527	n/a	n/a	0	0	0
2746907	WORD	wordpools/wasnorm_wordpool_576.txt	LTP344	ltpFR2	11	14	WHISKERS	1605	n/a	n/a	0	0	0
2749457	WORD	wordpools/wasnorm_wordpool_576.txt	LTP344	ltpFR2	11	14	PARENT	1013	n/a	n/a	0	0	0
2752121	WORD	wordpools/wasnorm_wordpool_576.txt	LTP344	ltpFR2	11	14	GUITAR	670	n/a	n/a	0	0	0
2754755	WORD	wordpools/wasnorm_wordpool_576.txt	LTP344	ltpFR2	11	14	CRUTCH	417	n/a	n/a	0	0	0
2757337	WORD	wordpools/wasnorm_wordpool_576.txt	LTP344	ltpFR2	11	14	LEG	809	n/a	n/a	0	0	0
2758952	START	n/a	LTP344	ltpFR2	11	n/a	n/a	n/a	19	n/a	n/a	n/a	n/a
2760086	DISTRACTOR	n/a	LTP344	ltpFR2	11	14	n/a	n/a	n/a	n/a	0	0	0
2760101	PROB	n/a	LTP344	ltpFR2	11	n/a	n/a	n/a	19	13	5	7	1
2761768	PROB	n/a	LTP344	ltpFR2	11	n/a	n/a	n/a	19	16	3	6	7
2763717	PROB	n/a	LTP344	ltpFR2	11	n/a	n/a	n/a	19	17	8	1	8
2765099	PROB	n/a	LTP344	ltpFR2	11	n/a	n/a	n/a	19	17	5	4	8
2766599	PROB	n/a	LTP344	ltpFR2	11	n/a	n/a	n/a	19	15	3	4	8
2768031	PROB	n/a	LTP344	ltpFR2	11	n/a	n/a	n/a	19	16	5	5	6
2769047	PROB	n/a	LTP344	ltpFR2	11	n/a	n/a	n/a	19	10	4	2	4
2770481	PROB	n/a	LTP344	ltpFR2	11	n/a	n/a	n/a	19	14	2	8	4
2771614	PROB	n/a	LTP344	ltpFR2	11	n/a	n/a	n/a	19	14	8	3	3
2772995	PROB	n/a	LTP344	ltpFR2	11	n/a	n/a	n/a	19	12	7	3	2
2774429	PROB	n/a	LTP344	ltpFR2	11	n/a	n/a	n/a	19	21	7	7	7
2775478	PROB	n/a	LTP344	ltpFR2	11	n/a	n/a	n/a	19	19	9	4	6
2776910	PROB	n/a	LTP344	ltpFR2	11	n/a	n/a	n/a	19	9	4	2	3
2778560	PROB	n/a	LTP344	ltpFR2	11	n/a	n/a	n/a	19	14	5	5	4
2779660	PROB	n/a	LTP344	ltpFR2	11	n/a	n/a	n/a	19	21	6	8	7
2781276	PROB	n/a	LTP344	ltpFR2	11	n/a	n/a	n/a	19	18	7	4	7
2782628	STOP	n/a	LTP344	ltpFR2	11	n/a	n/a	n/a	19	n/a	n/a	n/a	n/a
2784708	REC_START	n/a	LTP344	ltpFR2	11	14	n/a	n/a	n/a	n/a	0	0	0
2811021	REC_WORD_VV	wordpools/wasnorm_wordpool_576.txt	LTP344	ltpFR2	11	14	<>	-1	n/a	n/a	0	0	0
2812299	REC_WORD_VV	wordpools/wasnorm_wordpool_576.txt	LTP344	ltpFR2	11	14	<>	-1	n/a	n/a	0	0	0
2828128	REC_WORD	wordpools/wasnorm_wordpool_576.txt	LTP344	ltpFR2	11	14	ATOM	55	n/a	n/a	0	0	0
2875132	DISTRACTOR	n/a	LTP344	ltpFR2	11	15	n/a	n/a	n/a	n/a	0	0	0
2875133	START	n/a	LTP344	ltpFR2	11	n/a	n/a	n/a	20	n/a	n/a	n/a	n/a
2875149	PROB	n/a	LTP344	ltpFR2	11	n/a	n/a	n/a	20	18	9	1	8
2876516	PROB	n/a	LTP344	ltpFR2	11	n/a	n/a	n/a	20	15	2	5	8
2878098	PROB	n/a	LTP344	ltpFR2	11	n/a	n/a	n/a	20	11	1	9	1
2879365	PROB	n/a	LTP344	ltpFR2	11	n/a	n/a	n/a	20	18	3	8	7
2881414	PROB	n/a	LTP344	ltpFR2	11	n/a	n/a	n/a	20	14	7	1	6
2883280	PROB	n/a	LTP344	ltpFR2	11	n/a	n/a	n/a	20	1	6	4	7
2884529	PROB	n/a	LTP344	ltpFR2	11	n/a	n/a	n/a	20	16	5	6	5
2886127	PROB	n/a	LTP344	ltpFR2	11	n/a	n/a	n/a	20	20	9	8	3
2888361	PROB	n/a	LTP344	ltpFR2	11	n/a	n/a	n/a	20	17	6	2	9
2890393	PROB	n/a	LTP344	ltpFR2	11	n/a	n/a	n/a	20	11	2	3	6
2891709	PROB	n/a	LTP344	ltpFR2	11	n/a	n/a	n/a	20	13	3	7	3
2892725	PROB	n/a	LTP344	ltpFR2	11	n/a	n/a	n/a	20	10	8	1	1
2893775	PROB	n/a	LTP344	ltpFR2	11	n/a	n/a	n/a	20	10	2	6	2
2894890	PROB	n/a	LTP344	ltpFR2	11	n/a	n/a	n/a	20	12	7	3	2
2896073	PROB	n/a	LTP344	ltpFR2	11	n/a	n/a	n/a	20	9	2	5	2
2897056	PROB	n/a	LTP344	ltpFR2	11	n/a	n/a	n/a	20	18	4	6	8
2898063	STOP	n/a	LTP344	ltpFR2	11	n/a	n/a	n/a	20	n/a	n/a	n/a	n/a
2900021	WORD	wordpools/wasnorm_wordpool_576.txt	LTP344	ltpFR2	11	15	ICING	732	n/a	n/a	0	0	0
2902504	WORD	wordpools/wasnorm_wordpool_576.txt	LTP344	ltpFR2	11	15	SUBWAY	1400	n/a	n/a	0	0	0
2905002	WORD	wordpools/wasnorm_wordpool_576.txt	LTP344	ltpFR2	11	15	PLIERS	1089	n/a	n/a	0	0	0
2907635	WORD	wordpools/wasnorm_wordpool_576.txt	LTP344	ltpFR2	11	15	GAVEL	627	n/a	n/a	0	0	0
2910251	WORD	wordpools/wasnorm_wordpool_576.txt	LTP344	ltpFR2	11	15	COLONEL	348	n/a	n/a	0	0	0
2912816	WORD	wordpools/wasnorm_wordpool_576.txt	LTP344	ltpFR2	11	15	ARMY	39	n/a	n/a	0	0	0
2915415	WORD	wordpools/wasnorm_wordpool_576.txt	LTP344	ltpFR2	11	15	JELLY	755	n/a	n/a	0	0	0
2917913	WORD	wordpools/wasnorm_wordpool_576.txt	LTP344	ltpFR2	11	15	TWEEZERS	1526	n/a	n/a	0	0	0
2920713	WORD	wordpools/wasnorm_wordpool_576.txt	LTP344	ltpFR2	11	15	FOOTBALL	591	n/a	n/a	0	0	0
2923412	WORD	wordpools/wasnorm_wordpool_576.txt	LTP344	ltpFR2	11	15	STUDENT	1395	n/a	n/a	0	0	0
2926093	WORD	wordpools/wasnorm_wordpool_576.txt	LTP344	ltpFR2	11	15	PERCH	1048	n/a	n/a	0	0	0
2928858	WORD	wordpools/wasnorm_wordpool_576.txt	LTP344	ltpFR2	11	15	WITNESS	1618	n/a	n/a	0	0	0
2931625	WORD	wordpools/wasnorm_wordpool_576.txt	LTP344	ltpFR2	11	15	JELLO	754	n/a	n/a	0	0	0
2934273	WORD	wordpools/wasnorm_wordpool_576.txt	LTP344	ltpFR2	11	15	GALLON	618	n/a	n/a	0	0	0
2936954	WORD	wordpools/wasnorm_wordpool_576.txt	LTP344	ltpFR2	11	15	FREEZER	604	n/a	n/a	0	0	0
2939571	WORD	wordpools/wasnorm_wordpool_576.txt	LTP344	ltpFR2	11	15	KLEENEX	782	n/a	n/a	0	0	0
2942236	WORD	wordpools/wasnorm_wordpool_576.txt	LTP344	ltpFR2	11	15	EAGLE	512	n/a	n/a	0	0	0
2944951	WORD	wordpools/wasnorm_wordpool_576.txt	LTP344	ltpFR2	11	15	TART	1436	n/a	n/a	0	0	0
2947417	WORD	wordpools/wasnorm_wordpool_576.txt	LTP344	ltpFR2	11	15	COCOON	339	n/a	n/a	0	0	0
2950148	WORD	wordpools/wasnorm_wordpool_576.txt	LTP344	ltpFR2	11	15	MAMMAL	861	n/a	n/a	0	0	0
2952931	WORD	wordpools/wasnorm_wordpool_576.txt	LTP344	ltpFR2	11	15	CARROT	249	n/a	n/a	0	0	0
2955514	WORD	wordpools/wasnorm_wordpool_576.txt	LTP344	ltpFR2	11	15	PEACH	1031	n/a	n/a	0	0	0
2958128	WORD	wordpools/wasnorm_wordpool_576.txt	LTP344	ltpFR2	11	15	TURKEY	1520	n/a	n/a	0	0	0
2960595	WORD	wordpools/wasnorm_wordpool_576.txt	LTP344	ltpFR2	11	15	CREATURE	403	n/a	n/a	0	0	0
2962211	START	n/a	LTP344	ltpFR2	11	n/a	n/a	n/a	21	n/a	n/a	n/a	n/a
2963405	DISTRACTOR	n/a	LTP344	ltpFR2	11	15	n/a	n/a	n/a	n/a	0	0	0
2963410	PROB	n/a	LTP344	ltpFR2	11	n/a	n/a	n/a	21	7	2	2	3
2964842	PROB	n/a	LTP344	ltpFR2	11	n/a	n/a	n/a	21	16	5	8	3
2966858	PROB	n/a	LTP344	ltpFR2	11	n/a	n/a	n/a	21	13	7	5	1
2968558	PROB	n/a	LTP344	ltpFR2	11	n/a	n/a	n/a	21	16	5	5	6
2969624	PROB	n/a	LTP344	ltpFR2	11	n/a	n/a	n/a	21	6	1	3	2
2970989	PROB	n/a	LTP344	ltpFR2	11	n/a	n/a	n/a	21	16	5	7	4
2973239	PROB	n/a	LTP344	ltpFR2	11	n/a	n/a	n/a	21	12	3	8	1
2974854	PROB	n/a	LTP344	ltpFR2	11	n/a	n/a	n/a	21	18	3	8	7
2976521	PROB	n/a	LTP344	ltpFR2	11	n/a	n/a	n/a	21	16	5	6	5
2977620	PROB	n/a	LTP344	ltpFR2	11	n/a	n/a	n/a	21	26	8	9	9
2979686	PROB	n/a	LTP344	ltpFR2	11	n/a	n/a	n/a	21	20	9	4	7
2981235	PROB	n/a	LTP344	ltpFR2	11	n/a	n/a	n/a	21	14	7	6	1
2982685	PROB	n/a	LTP344	ltpFR2	11	n/a	n/a	n/a	21	10	4	1	5
2984467	PROB	n/a	LTP344	ltpFR2	11	n/a	n/a	n/a	21	12	5	1	6
2985707	STOP	n/a	LTP344	ltpFR2	11	n/a	n/a	n/a	21	n/a	n/a	n/a	n/a
2988166	REC_START	n/a	LTP344	ltpFR2	11	15	n/a	n/a	n/a	n/a	0	0	0
2989824	REC_WORD	wordpools/wasnorm_wordpool_576.txt	LTP344	ltpFR2	11	15	COCOON	339	n/a	n/a	0	0	0
2990951	REC_WORD	wordpools/wasnorm_wordpool_576.txt	LTP344	ltpFR2	11	15	MAMMAL	861	n/a	n/a	0	0	0
2992241	REC_WORD_VV	wordpools/wasnorm_wordpool_576.txt	LTP344	ltpFR2	11	15	<>	-1	n/a	n/a	0	0	0
2992886	REC_WORD	wordpools/wasnorm_wordpool_576.txt	LTP344	ltpFR2	11	15	ARMY	39	n/a	n/a	0	0	0
2994670	REC_WORD	wordpools/wasnorm_wordpool_576.txt	LTP344	ltpFR2	11	15	JELLO	754	n/a	n/a	0	0	0
2995436	REC_WORD	wordpools/wasnorm_wordpool_576.txt	LTP344	ltpFR2	11	15	GALLON	618	n/a	n/a	0	0	0
2995975	REC_WORD	wordpools/wasnorm_wordpool_576.txt	LTP344	ltpFR2	11	15	FREEZER	604	n/a	n/a	0	0	0
2997371	REC_WORD	wordpools/wasnorm_wordpool_576.txt	LTP344	ltpFR2	11	15	JELLY	755	n/a	n/a	0	0	0
2998299	REC_WORD	wordpools/wasnorm_wordpool_576.txt	LTP344	ltpFR2	11	15	TWEEZERS	1526	n/a	n/a	0	0	0
2999325	REC_WORD	wordpools/wasnorm_wordpool_576.txt	LTP344	ltpFR2	11	15	PLIERS	1089	n/a	n/a	0	0	0
3020964	REC_WORD_VV	wordpools/wasnorm_wordpool_576.txt	LTP344	ltpFR2	11	15	<>	-1	n/a	n/a	0	0	0
3021964	REC_WORD_VV	wordpools/wasnorm_wordpool_576.txt	LTP344	ltpFR2	11	15	<>	-1	n/a	n/a	0	0	0
3022964	REC_WORD_VV	wordpools/wasnorm_wordpool_576.txt	LTP344	ltpFR2	11	15	<>	-1	n/a	n/a	0	0	0
3023964	REC_WORD_VV	wordpools/wasnorm_wordpool_576.txt	LTP344	ltpFR2	11	15	<>	-1	n/a	n/a	0	0	0
3024964	REC_WORD_VV	wordpools/wasnorm_wordpool_576.txt	LTP344	ltpFR2	11	15	<>	-1	n/a	n/a	0	0	0
3025964	REC_WORD_VV	wordpools/wasnorm_wordpool_576.txt	LTP344	ltpFR2	11	15	<>	-1	n/a	n/a	0	0	0
3026964	REC_WORD_VV	wordpools/wasnorm_wordpool_576.txt	LTP344	ltpFR2	11	15	<>	-1	n/a	n/a	0	0	0
3029854	REC_WORD_VV	wordpools/wasnorm_wordpool_576.txt	LTP344	ltpFR2	11	15	<>	-1	n/a	n/a	0	0	0
3078591	DISTRACTOR	n/a	LTP344	ltpFR2	11	16	n/a	n/a	n/a	n/a	0	0	0
3078592	START	n/a	LTP344	ltpFR2	11	n/a	n/a	n/a	22	n/a	n/a	n/a	n/a
3078608	PROB	n/a	LTP344	ltpFR2	11	n/a	n/a	n/a	22	1	2	4	8
3080357	PROB	n/a	LTP344	ltpFR2	11	n/a	n/a	n/a	22	20	6	7	7
3082373	PROB	n/a	LTP344	ltpFR2	11	n/a	n/a	n/a	22	17	1	7	9
3084522	PROB	n/a	LTP344	ltpFR2	11	n/a	n/a	n/a	22	10	1	8	1
3086120	PROB	n/a	LTP344	ltpFR2	11	n/a	n/a	n/a	22	8	1	6	1
3087136	PROB	n/a	LTP344	ltpFR2	11	n/a	n/a	n/a	22	21	5	8	8
3088637	PROB	n/a	LTP344	ltpFR2	11	n/a	n/a	n/a	22	14	9	3	2
3091068	PROB	n/a	LTP344	ltpFR2	11	n/a	n/a	n/a	22	18	3	9	6
3094117	PROB	n/a	LTP344	ltpFR2	11	n/a	n/a	n/a	22	16	5	2	9
3096417	PROB	n/a	LTP344	ltpFR2	11	n/a	n/a	n/a	22	14	1	7	6
3097716	PROB	n/a	LTP344	ltpFR2	11	n/a	n/a	n/a	22	10	4	3	3
3099615	PROB	n/a	LTP344	ltpFR2	11	n/a	n/a	n/a	22	1	6	5	6
3102334	STOP	n/a	LTP344	ltpFR2	11	n/a	n/a	n/a	22	n/a	n/a	n/a	n/a
3103630	WORD	wordpools/wasnorm_wordpool_576.txt	LTP344	ltpFR2	11	16	CARRIAGE	248	n/a	n/a	0	0	0
3106229	WORD	wordpools/wasnorm_wordpool_576.txt	LTP344	ltpFR2	11	16	DANCER	437	n/a	n/a	0	0	0
3108661	WORD	wordpools/wasnorm_wordpool_576.txt	LTP344	ltpFR2	11	16	CATTLE	261	n/a	n/a	0	0	0
3111193	WORD	wordpools/wasnorm_wordpool_576.txt	LTP344	ltpFR2	11	16	CRAB	397	n/a	n/a	0	0	0
3113974	WORD	wordpools/wasnorm_wordpool_576.txt	LTP344	ltpFR2	11	16	STREAM	1392	n/a	n/a	0	0	0
3116507	WORD	wordpools/wasnorm_wordpool_576.txt	LTP344	ltpFR2	11	16	PUPPY	1144	n/a	n/a	0	0	0
3119206	WORD	wordpools/wasnorm_wordpool_576.txt	LTP344	ltpFR2	11	16	BRACES	164	n/a	n/a	0	0	0
3121805	WORD	wordpools/wasnorm_wordpool_576.txt	LTP344	ltpFR2	11	16	POSTAGE	1113	n/a	n/a	0	0	0
3124537	WORD	wordpools/wasnorm_wordpool_576.txt	LTP344	ltpFR2	11	16	MARROW	872	n/a	n/a	0	0	0
3127052	WORD	wordpools/wasnorm_wordpool_576.txt	LTP344	ltpFR2	11	16	THRONE	1461	n/a	n/a	0	0	0
3129501	WORD	wordpools/wasnorm_wordpool_576.txt	LTP344	ltpFR2	11	16	PALACE	1006	n/a	n/a	0	0	0
3132184	WORD	wordpools/wasnorm_wordpool_576.txt	LTP344	ltpFR2	11	16	TAXI	1438	n/a	n/a	0	0	0
3134816	WORD	wordpools/wasnorm_wordpool_576.txt	LTP344	ltpFR2	11	16	WAGON	1578	n/a	n/a	0	0	0
3137298	WORD	wordpools/wasnorm_wordpool_576.txt	LTP344	ltpFR2	11	16	BODY	145	n/a	n/a	0	0	0
3140096	WORD	wordpools/wasnorm_wordpool_576.txt	LTP344	ltpFR2	11	16	GRAVE	658	n/a	n/a	0	0	0
3142696	WORD	wordpools/wasnorm_wordpool_576.txt	LTP344	ltpFR2	11	16	OX	994	n/a	n/a	0	0	0
3145311	WORD	wordpools/wasnorm_wordpool_576.txt	LTP344	ltpFR2	11	16	GYMNAST	675	n/a	n/a	0	0	0
3147760	WORD	wordpools/wasnorm_wordpool_576.txt	LTP344	ltpFR2	11	16	MISSILE	900	n/a	n/a	0	0	0
3150525	WORD	wordpools/wasnorm_wordpool_576.txt	LTP344	ltpFR2	11	16	FLESH	579	n/a	n/a	0	0	0
3153291	WORD	wordpools/wasnorm_wordpool_576.txt	LTP344	ltpFR2	11	16	DOLPHIN	483	n/a	n/a	0	0	0
3156022	WORD	wordpools/wasnorm_wordpool_576.txt	LTP344	ltpFR2	11	16	FEMALE	559	n/a	n/a	0	0	0
3158722	WORD	wordpools/wasnorm_wordpool_576.txt	LTP344	ltpFR2	11	16	COOKBOOK	373	n/a	n/a	0	0	0
3161237	WORD	wordpools/wasnorm_wordpool_576.txt	LTP344	ltpFR2	11	16	CHAPEL	280	n/a	n/a	0	0	0
3163736	WORD	wordpools/wasnorm_wordpool_576.txt	LTP344	ltpFR2	11	16	IDOL	733	n/a	n/a	0	0	0
3165352	START	n/a	LTP344	ltpFR2	11	n/a	n/a	n/a	23	n/a	n/a	n/a	n/a
3166377	DISTRACTOR	n/a	LTP344	ltpFR2	11	16	n/a	n/a	n/a	n/a	0	0	0
3166385	PROB	n/a	LTP344	ltpFR2	11	n/a	n/a	n/a	23	14	5	6	3
3168417	PROB	n/a	LTP344	ltpFR2	11	n/a	n/a	n/a	23	21	8	9	4
3170483	PROB	n/a	LTP344	ltpFR2	11	n/a	n/a	n/a	23	18	4	9	5
3172266	PROB	n/a	LTP344	ltpFR2	11	n/a	n/a	n/a	23	3	1	1	1
3173131	PROB	n/a	LTP344	ltpFR2	11	n/a	n/a	n/a	23	7	2	1	4
3175281	PROB	n/a	LTP344	ltpFR2	11	n/a	n/a	n/a	23	15	6	4	5
3176564	PROB	n/a	LTP344	ltpFR2	11	n/a	n/a	n/a	23	18	8	8	2
3178145	PROB	n/a	LTP344	ltpFR2	11	n/a	n/a	n/a	23	19	8	5	6
3179779	PROB	n/a	LTP344	ltpFR2	11	n/a	n/a	n/a	23	13	4	7	2
3181678	PROB	n/a	LTP344	ltpFR2	11	n/a	n/a	n/a	23	10	8	1	1
3182661	PROB	n/a	LTP344	ltpFR2	11	n/a	n/a	n/a	23	15	5	6	4
3184327	PROB	n/a	LTP344	ltpFR2	11	n/a	n/a	n/a	23	10	1	5	4
3185510	PROB	n/a	LTP344	ltpFR2	11	n/a	n/a	n/a	23	14	4	2	8
3186825	PROB	n/a	LTP344	ltpFR2	11	n/a	n/a	n/a	23	14	5	7	2
3188489	STOP	n/a	LTP344	ltpFR2	11	n/a	n/a	n/a	23	n/a	n/a	n/a	n/a
3191174	REC_START	n/a	LTP344	ltpFR2	11	16	n/a	n/a	n/a	n/a	0	0	0
3193377	REC_WORD	wordpools/wasnorm_wordpool_576.txt	LTP344	ltpFR2	11	16	CARRIAGE	248	n/a	n/a	0	0	0
3194329	REC_WORD	wordpools/wasnorm_wordpool_576.txt	LTP344	ltpFR2	11	16	CATTLE	261	n/a	n/a	0	0	0
3195515	REC_WORD	wordpools/wasnorm_wordpool_576.txt	LTP344	ltpFR2	11	16	OX	994	n/a	n/a	0	0	0
3196931	REC_WORD	wordpools/wasnorm_wordpool_576.txt	LTP344	ltpFR2	11	16	MISSILE	900	n/a	n/a	0	0	0
3197320	REC_WORD	wordpools/wasnorm_wordpool_576.txt	LTP344	ltpFR2	11	16	FLESH	579	n/a	n/a	0	0	0
3199697	REC_WORD	wordpools/wasnorm_wordpool_576.txt	LTP344	ltpFR2	11	16	MARROW	872	n/a	n/a	0	0	0
3202642	REC_WORD	wordpools/wasnorm_wordpool_576.txt	LTP344	ltpFR2	11	16	CRAB	397	n/a	n/a	0	0	0
3204211	REC_WORD	wordpools/wasnorm_wordpool_576.txt	LTP344	ltpFR2	11	16	DANCER	437	n/a	n/a	0	0	0
3205170	REC_WORD	wordpools/wasnorm_wordpool_576.txt	LTP344	ltpFR2	11	16	GYMNAST	675	n/a	n/a	0	0	0
3206735	REC_WORD	wordpools/wasnorm_wordpool_576.txt	LTP344	ltpFR2	11	16	WAGON	1578	n/a	n/a	0	0	0
3208604	REC_WORD	wordpools/wasnorm_wordpool_576.txt	LTP344	ltpFR2	11	16	GRAVE	658	n/a	n/a	0	0	0
3267706	REST_REWET	n/a	LTP344	ltpFR2	11	16	n/a	n/a	n/a	n/a	0	0	0
3680502	WORD	wordpools/wasnorm_wordpool_576.txt	LTP344	ltpFR2	11	17	ARM	38	n/a	n/a	0	0	0
3683284	WORD	wordpools/wasnorm_wordpool_576.txt	LTP344	ltpFR2	11	17	ELBOW	520	n/a	n/a	0	0	0
3685932	WORD	wordpools/wasnorm_wordpool_576.txt	LTP344	ltpFR2	11	17	SHARK	1275	n/a	n/a	0	0	0
3688365	WORD	wordpools/wasnorm_wordpool_576.txt	LTP344	ltpFR2	11	17	MAPLE	866	n/a	n/a	0	0	0
3691146	WORD	wordpools/wasnorm_wordpool_576.txt	LTP344	ltpFR2	11	17	ROBIN	1199	n/a	n/a	0	0	0
3693862	WORD	wordpools/wasnorm_wordpool_576.txt	LTP344	ltpFR2	11	17	SCARECROW	1245	n/a	n/a	0	0	0
3696478	WORD	wordpools/wasnorm_wordpool_576.txt	LTP344	ltpFR2	11	17	SPARROW	1347	n/a	n/a	0	0	0
3699244	WORD	wordpools/wasnorm_wordpool_576.txt	LTP344	ltpFR2	11	17	FLIPPER	580	n/a	n/a	0	0	0
3701925	WORD	wordpools/wasnorm_wordpool_576.txt	LTP344	ltpFR2	11	17	DRILL	497	n/a	n/a	0	0	0
3704358	WORD	wordpools/wasnorm_wordpool_576.txt	LTP344	ltpFR2	11	17	PLUTO	1092	n/a	n/a	0	0	0
3707173	WORD	wordpools/wasnorm_wordpool_576.txt	LTP344	ltpFR2	11	17	WRENCH	1625	n/a	n/a	0	0	0
3709756	WORD	wordpools/wasnorm_wordpool_576.txt	LTP344	ltpFR2	11	17	PENGUIN	1044	n/a	n/a	0	0	0
3712488	WORD	wordpools/wasnorm_wordpool_576.txt	LTP344	ltpFR2	11	17	BASEMENT	94	n/a	n/a	0	0	0
3715102	WORD	wordpools/wasnorm_wordpool_576.txt	LTP344	ltpFR2	11	17	COFFEE	341	n/a	n/a	0	0	0
3717619	WORD	wordpools/wasnorm_wordpool_576.txt	LTP344	ltpFR2	11	17	DENIM	446	n/a	n/a	0	0	0
3720384	WORD	wordpools/wasnorm_wordpool_576.txt	LTP344	ltpFR2	11	17	PORK	1108	n/a	n/a	0	0	0
3722982	WORD	wordpools/wasnorm_wordpool_576.txt	LTP344	ltpFR2	11	17	MARS	873	n/a	n/a	0	0	0
3725698	WORD	wordpools/wasnorm_wordpool_576.txt	LTP344	ltpFR2	11	17	DINER	467	n/a	n/a	0	0	0
3728247	WORD	wordpools/wasnorm_wordpool_576.txt	LTP344	ltpFR2	11	17	CUPBOARD	425	n/a	n/a	0	0	0
3730729	WORD	wordpools/wasnorm_wordpool_576.txt	LTP344	ltpFR2	11	17	FRANCE	601	n/a	n/a	0	0	0
3733245	WORD	wordpools/wasnorm_wordpool_576.txt	LTP344	ltpFR2	11	17	ROCKET	1202	n/a	n/a	0	0	0
3735909	WORD	wordpools/wasnorm_wordpool_576.txt	LTP344	ltpFR2	11	17	MASK	876	n/a	n/a	0	0	0
3738493	WORD	wordpools/wasnorm_wordpool_576.txt	LTP344	ltpFR2	11	17	COUNTY	389	n/a	n/a	0	0	0
3741241	WORD	wordpools/wasnorm_wordpool_576.txt	LTP344	ltpFR2	11	17	POLICE	1098	n/a	n/a	0	0	0
3742856	START	n/a	LTP344	ltpFR2	11	n/a	n/a	n/a	24	n/a	n/a	n/a	n/a
3743704	DISTRACTOR	n/a	LTP344	ltpFR2	11	17	n/a	n/a	n/a	n/a	0	0	0
3743707	PROB	n/a	LTP344	ltpFR2	11	n/a	n/a	n/a	24	14	6	7	1
3745439	PROB	n/a	LTP344	ltpFR2	11	n/a	n/a	n/a	24	13	2	6	5
3747154	PROB	n/a	LTP344	ltpFR2	11	n/a	n/a	n/a	24	21	8	5	9
3748887	PROB	n/a	LTP344	ltpFR2	11	n/a	n/a	n/a	24	9	3	5	1
3750670	PROB	n/a	LTP344	ltpFR2	11	n/a	n/a	n/a	24	15	3	3	9
3752152	PROB	n/a	LTP344	ltpFR2	11	n/a	n/a	n/a	24	14	7	4	3
3753586	PROB	n/a	LTP344	ltpFR2	11	n/a	n/a	n/a	24	9	6	2	1
3754569	PROB	n/a	LTP344	ltpFR2	11	n/a	n/a	n/a	24	19	9	7	3
3756050	PROB	n/a	LTP344	ltpFR2	11	n/a	n/a	n/a	24	10	5	3	2
3760582	PROB	n/a	LTP344	ltpFR2	11	n/a	n/a	n/a	24	9	5	1	3
3763064	PROB	n/a	LTP344	ltpFR2	11	n/a	n/a	n/a	24	10	2	4	4
3764247	PROB	n/a	LTP344	ltpFR2	11	n/a	n/a	n/a	24	15	6	1	8
3765747	STOP	n/a	LTP344	ltpFR2	11	n/a	n/a	n/a	24	n/a	n/a	n/a	n/a
3768629	REC_START	n/a	LTP344	ltpFR2	11	17	n/a	n/a	n/a	n/a	0	0	0
3770667	REC_WORD	wordpools/wasnorm_wordpool_576.txt	LTP344	ltpFR2	11	17	PLUTO	1092	n/a	n/a	0	0	0
3771420	REC_WORD	wordpools/wasnorm_wordpool_576.txt	LTP344	ltpFR2	11	17	SHARK	1275	n/a	n/a	0	0	0
3772675	REC_WORD	wordpools/wasnorm_wordpool_576.txt	LTP344	ltpFR2	11	17	ROCKET	1202	n/a	n/a	0	0	0
3830500	REC_WORD	wordpools/wasnorm_wordpool_576.txt	LTP344	ltpFR2	11	17	COFFEE	341	n/a	n/a	0	0	0
3859087	WORD	wordpools/wasnorm_wordpool_576.txt	LTP344	ltpFR2	11	18	YOLK	1633	n/a	n/a	0	0	0
3861803	WORD	wordpools/wasnorm_wordpool_576.txt	LTP344	ltpFR2	11	18	SLUG	1329	n/a	n/a	0	0	0
3864552	WORD	wordpools/wasnorm_wordpool_576.txt	LTP344	ltpFR2	11	18	ACTOR	5	n/a	n/a	0	0	0
3867050	WORD	wordpools/wasnorm_wordpool_576.txt	LTP344	ltpFR2	11	18	GUARD	667	n/a	n/a	0	0	0
3869733	WORD	wordpools/wasnorm_wordpool_576.txt	LTP344	ltpFR2	11	18	DOUGHNUT	490	n/a	n/a	0	0	0
3872164	WORD	wordpools/wasnorm_wordpool_576.txt	LTP344	ltpFR2	11	18	GLOVE	642	n/a	n/a	0	0	0
3874697	WORD	wordpools/wasnorm_wordpool_576.txt	LTP344	ltpFR2	11	18	SOFTBALL	1343	n/a	n/a	0	0	0
3877413	WORD	wordpools/wasnorm_wordpool_576.txt	LTP344	ltpFR2	11	18	BARLEY	88	n/a	n/a	0	0	0
3880094	WORD	wordpools/wasnorm_wordpool_576.txt	LTP344	ltpFR2	11	18	TRUCK	1512	n/a	n/a	0	0	0
3882527	WORD	wordpools/wasnorm_wordpool_576.txt	LTP344	ltpFR2	11	18	PUPIL	1143	n/a	n/a	0	0	0
3884975	WORD	wordpools/wasnorm_wordpool_576.txt	LTP344	ltpFR2	11	18	VIRUS	1572	n/a	n/a	0	0	0
3887692	WORD	wordpools/wasnorm_wordpool_576.txt	LTP344	ltpFR2	11	18	POSSUM	1112	n/a	n/a	0	0	0
3890340	WORD	wordpools/wasnorm_wordpool_576.txt	LTP344	ltpFR2	11	18	CHURCH	307	n/a	n/a	0	0	0
3892988	WORD	wordpools/wasnorm_wordpool_576.txt	LTP344	ltpFR2	11	18	RIFLE	1192	n/a	n/a	0	0	0
3895455	WORD	wordpools/wasnorm_wordpool_576.txt	LTP344	ltpFR2	11	18	LUGGAGE	847	n/a	n/a	0	0	0
3897936	WORD	wordpools/wasnorm_wordpool_576.txt	LTP344	ltpFR2	11	18	BRIEFCASE	175	n/a	n/a	0	0	0
3900536	WORD	wordpools/wasnorm_wordpool_576.txt	LTP344	ltpFR2	11	18	EYELASH	546	n/a	n/a	0	0	0
3903050	WORD	wordpools/wasnorm_wordpool_576.txt	LTP344	ltpFR2	11	18	PEBBLE	1035	n/a	n/a	0	0	0
3905750	WORD	wordpools/wasnorm_wordpool_576.txt	LTP344	ltpFR2	11	18	BIKE	125	n/a	n/a	0	0	0
3908266	WORD	wordpools/wasnorm_wordpool_576.txt	LTP344	ltpFR2	11	18	STALLION	1369	n/a	n/a	0	0	0
3910698	WORD	wordpools/wasnorm_wordpool_576.txt	LTP344	ltpFR2	11	18	ZEBRA	1635	n/a	n/a	0	0	0
3913430	WORD	wordpools/wasnorm_wordpool_576.txt	LTP344	ltpFR2	11	18	TURNIP	1521	n/a	n/a	0	0	0
3916229	WORD	wordpools/wasnorm_wordpool_576.txt	LTP344	ltpFR2	11	18	SNAIL	1332	n/a	n/a	0	0	0
3918661	WORD	wordpools/wasnorm_wordpool_576.txt	LTP344	ltpFR2	11	18	SHOVEL	1295	n/a	n/a	0	0	0
3920277	START	n/a	LTP344	ltpFR2	11	n/a	n/a	n/a	25	n/a	n/a	n/a	n/a
3921207	DISTRACTOR	n/a	LTP344	ltpFR2	11	18	n/a	n/a	n/a	n/a	0	0	0
3921210	PROB	n/a	LTP344	ltpFR2	11	n/a	n/a	n/a	25	15	4	3	8
3922858	PROB	n/a	LTP344	ltpFR2	11	n/a	n/a	n/a	25	10	6	3	1
3924141	PROB	n/a	LTP344	ltpFR2	11	n/a	n/a	n/a	25	13	9	3	1
3925308	PROB	n/a	LTP344	ltpFR2	11	n/a	n/a	n/a	25	24	7	8	9
3926707	PROB	n/a	LTP344	ltpFR2	11	n/a	n/a	n/a	25	13	7	3	3
3928089	PROB	n/a	LTP344	ltpFR2	11	n/a	n/a	n/a	25	26	9	8	9
3931004	PROB	n/a	LTP344	ltpFR2	11	n/a	n/a	n/a	25	14	8	1	5
3932521	PROB	n/a	LTP344	ltpFR2	11	n/a	n/a	n/a	25	10	2	1	7
3933953	PROB	n/a	LTP344	ltpFR2	11	n/a	n/a	n/a	25	17	6	8	3
3935803	PROB	n/a	LTP344	ltpFR2	11	n/a	n/a	n/a	25	21	9	6	6
3936952	PROB	n/a	LTP344	ltpFR2	11	n/a	n/a	n/a	25	12	3	6	3
3938319	PROB	n/a	LTP344	ltpFR2	11	n/a	n/a	n/a	25	9	1	5	3
3940468	PROB	n/a	LTP344	ltpFR2	11	n/a	n/a	n/a	25	17	7	4	6
3941750	PROB	n/a	LTP344	ltpFR2	11	n/a	n/a	n/a	25	17	4	9	4
3943689	STOP	n/a	LTP344	ltpFR2	11	n/a	n/a	n/a	25	n/a	n/a	n/a	n/a
3946216	REC_START	n/a	LTP344	ltpFR2	11	18	n/a	n/a	n/a	n/a	0	0	0
3946683	REC_WORD	wordpools/wasnorm_wordpool_576.txt	LTP344	ltpFR2	11	18	SNAIL	1332	n/a	n/a	0	0	0
3947683	REC_WORD_VV	wordpools/wasnorm_wordpool_576.txt	LTP344	ltpFR2	11	18	<>	-1	n/a	n/a	0	0	0
3947790	REC_WORD	wordpools/wasnorm_wordpool_576.txt	LTP344	ltpFR2	11	18	SLUG	1329	n/a	n/a	0	0	0
3948761	REC_WORD	wordpools/wasnorm_wordpool_576.txt	LTP344	ltpFR2	11	18	SHOVEL	1295	n/a	n/a	0	0	0
3955963	REC_WORD	wordpools/wasnorm_wordpool_576.txt	LTP344	ltpFR2	11	18	RIFLE	1192	n/a	n/a	0	0	0
3957136	REC_WORD	wordpools/wasnorm_wordpool_576.txt	LTP344	ltpFR2	11	18	GUARD	667	n/a	n/a	0	0	0
3958520	REC_WORD	wordpools/wasnorm_wordpool_576.txt	LTP344	ltpFR2	11	18	ACTOR	5	n/a	n/a	0	0	0
3959502	REC_WORD	wordpools/wasnorm_wordpool_576.txt	LTP344	ltpFR2	11	18	SOFTBALL	1343	n/a	n/a	0	0	0
3961683	REC_WORD	wordpools/wasnorm_wordpool_576.txt	LTP344	ltpFR2	11	18	GLOVE	642	n/a	n/a	0	0	0
3962513	REC_WORD	wordpools/wasnorm_wordpool_576.txt	LTP344	ltpFR2	11	18	DOUGHNUT	490	n/a	n/a	0	0	0
3964000	REC_WORD	wordpools/wasnorm_wordpool_576.txt	LTP344	ltpFR2	11	18	LUGGAGE	847	n/a	n/a	0	0	0
3967724	REC_WORD	wordpools/wasnorm_wordpool_576.txt	LTP344	ltpFR2	11	18	BRIEFCASE	175	n/a	n/a	0	0	0
4036641	DISTRACTOR	n/a	LTP344	ltpFR2	11	19	n/a	n/a	n/a	n/a	0	0	0
4036641	START	n/a	LTP344	ltpFR2	11	n/a	n/a	n/a	26	n/a	n/a	n/a	n/a
4036657	PROB	n/a	LTP344	ltpFR2	11	n/a	n/a	n/a	26	18	9	4	5
4038273	PROB	n/a	LTP344	ltpFR2	11	n/a	n/a	n/a	26	12	4	5	3
4040372	PROB	n/a	LTP344	ltpFR2	11	n/a	n/a	n/a	26	2	8	5	7
4042688	PROB	n/a	LTP344	ltpFR2	11	n/a	n/a	n/a	26	19	6	5	8
4045270	PROB	n/a	LTP344	ltpFR2	11	n/a	n/a	n/a	26	25	8	8	9
4046852	PROB	n/a	LTP344	ltpFR2	11	n/a	n/a	n/a	26	10	1	1	8
4047868	PROB	n/a	LTP344	ltpFR2	11	n/a	n/a	n/a	26	17	6	2	9
4050301	PROB	n/a	LTP344	ltpFR2	11	n/a	n/a	n/a	26	14	9	4	1
4051467	PROB	n/a	LTP344	ltpFR2	11	n/a	n/a	n/a	26	10	4	4	2
4052467	PROB	n/a	LTP344	ltpFR2	11	n/a	n/a	n/a	26	6	2	3	1
4053800	PROB	n/a	LTP344	ltpFR2	11	n/a	n/a	n/a	26	13	1	5	7
4055532	PROB	n/a	LTP344	ltpFR2	11	n/a	n/a	n/a	26	15	4	2	9
4056897	PROB	n/a	LTP344	ltpFR2	11	n/a	n/a	n/a	26	15	6	8	2
4058248	PROB	n/a	LTP344	ltpFR2	11	n/a	n/a	n/a	26	16	4	3	9
4060381	STOP	n/a	LTP344	ltpFR2	11	n/a	n/a	n/a	26	n/a	n/a	n/a	n/a
4061763	WORD	wordpools/wasnorm_wordpool_576.txt	LTP344	ltpFR2	11	19	FIDDLE	561	n/a	n/a	0	0	0
4064462	WORD	wordpools/wasnorm_wordpool_576.txt	LTP344	ltpFR2	11	19	PIANO	1057	n/a	n/a	0	0	0
4067009	WORD	wordpools/wasnorm_wordpool_576.txt	LTP344	ltpFR2	11	19	SPOOL	1356	n/a	n/a	0	0	0
4069476	WORD	wordpools/wasnorm_wordpool_576.txt	LTP344	ltpFR2	11	19	GROUND	666	n/a	n/a	0	0	0
4072258	WORD	wordpools/wasnorm_wordpool_576.txt	LTP344	ltpFR2	11	19	CEILING	265	n/a	n/a	0	0	0
4074790	WORD	wordpools/wasnorm_wordpool_576.txt	LTP344	ltpFR2	11	19	TOASTER	1472	n/a	n/a	0	0	0
4077572	WORD	wordpools/wasnorm_wordpool_576.txt	LTP344	ltpFR2	11	19	PEPPER	1047	n/a	n/a	0	0	0
4080338	WORD	wordpools/wasnorm_wordpool_576.txt	LTP344	ltpFR2	11	19	BULLET	194	n/a	n/a	0	0	0
4082919	WORD	wordpools/wasnorm_wordpool_576.txt	LTP344	ltpFR2	11	19	SHRUB	1299	n/a	n/a	0	0	0
4085552	WORD	wordpools/wasnorm_wordpool_576.txt	LTP344	ltpFR2	11	19	DRAWING	494	n/a	n/a	0	0	0
4088100	WORD	wordpools/wasnorm_wordpool_576.txt	LTP344	ltpFR2	11	19	FLEET	578	n/a	n/a	0	0	0
4090566	WORD	wordpools/wasnorm_wordpool_576.txt	LTP344	ltpFR2	11	19	BUBBLE	183	n/a	n/a	0	0	0
4093014	WORD	wordpools/wasnorm_wordpool_576.txt	LTP344	ltpFR2	11	19	NOTEBOOK	959	n/a	n/a	0	0	0
4095464	WORD	wordpools/wasnorm_wordpool_576.txt	LTP344	ltpFR2	11	19	CASHIER	254	n/a	n/a	0	0	0
4098129	WORD	wordpools/wasnorm_wordpool_576.txt	LTP344	ltpFR2	11	19	EMPIRE	530	n/a	n/a	0	0	0
4100628	WORD	wordpools/wasnorm_wordpool_576.txt	LTP344	ltpFR2	11	19	SEAFOOD	1260	n/a	n/a	0	0	0
4103211	WORD	wordpools/wasnorm_wordpool_576.txt	LTP344	ltpFR2	11	19	SPOUSE	1358	n/a	n/a	0	0	0
4105992	WORD	wordpools/wasnorm_wordpool_576.txt	LTP344	ltpFR2	11	19	BINDER	127	n/a	n/a	0	0	0
4108675	WORD	wordpools/wasnorm_wordpool_576.txt	LTP344	ltpFR2	11	19	KEEPER	769	n/a	n/a	0	0	0
4111274	WORD	wordpools/wasnorm_wordpool_576.txt	LTP344	ltpFR2	11	19	STAPLE	1371	n/a	n/a	0	0	0
4113789	WORD	wordpools/wasnorm_wordpool_576.txt	LTP344	ltpFR2	11	19	BACKBONE	66	n/a	n/a	0	0	0
4116338	WORD	wordpools/wasnorm_wordpool_576.txt	LTP344	ltpFR2	11	19	NIGHTGOWN	953	n/a	n/a	0	0	0
4118869	WORD	wordpools/wasnorm_wordpool_576.txt	LTP344	ltpFR2	11	19	PAPER	1011	n/a	n/a	0	0	0
4121452	WORD	wordpools/wasnorm_wordpool_576.txt	LTP344	ltpFR2	11	19	GLASS	639	n/a	n/a	0	0	0
4123067	START	n/a	LTP344	ltpFR2	11	n/a	n/a	n/a	27	n/a	n/a	n/a	n/a
4123908	DISTRACTOR	n/a	LTP344	ltpFR2	11	19	n/a	n/a	n/a	n/a	0	0	0
4123917	PROB	n/a	LTP344	ltpFR2	11	n/a	n/a	n/a	27	12	1	8	3
4126866	PROB	n/a	LTP344	ltpFR2	11	n/a	n/a	n/a	27	10	2	5	3
4128466	PROB	n/a	LTP344	ltpFR2	11	n/a	n/a	n/a	27	13	4	2	7
4130398	PROB	n/a	LTP344	ltpFR2	11	n/a	n/a	n/a	27	12	1	6	5
4132846	PROB	n/a	LTP344	ltpFR2	11	n/a	n/a	n/a	27	14	1	6	7
4134363	PROB	n/a	LTP344	ltpFR2	11	n/a	n/a	n/a	27	15	4	4	7
4135796	PROB	n/a	LTP344	ltpFR2	11	n/a	n/a	n/a	27	10	4	5	1
4137044	PROB	n/a	LTP344	ltpFR2	11	n/a	n/a	n/a	27	19	6	7	6
4139261	PROB	n/a	LTP344	ltpFR2	11	n/a	n/a	n/a	27	8	1	1	6
4140344	PROB	n/a	LTP344	ltpFR2	11	n/a	n/a	n/a	27	23	9	7	7
4141926	PROB	n/a	LTP344	ltpFR2	11	n/a	n/a	n/a	27	13	5	7	1
4143609	PROB	n/a	LTP344	ltpFR2	11	n/a	n/a	n/a	27	15	4	5	6
4144924	PROB	n/a	LTP344	ltpFR2	11	n/a	n/a	n/a	27	10	4	3	3
4145974	STOP	n/a	LTP344	ltpFR2	11	n/a	n/a	n/a	27	n/a	n/a	n/a	n/a
4148989	REC_START	n/a	LTP344	ltpFR2	11	19	n/a	n/a	n/a	n/a	0	0	0
4149800	REC_WORD	wordpools/wasnorm_wordpool_576.txt	LTP344	ltpFR2	11	19	SPOOL	1356	n/a	n/a	0	0	0
4151006	REC_WORD_VV	wordpools/wasnorm_wordpool_576.txt	LTP344	ltpFR2	11	19	<>	-1	n/a	n/a	0	0	0
4152052	REC_WORD	wordpools/wasnorm_wordpool_576.txt	LTP344	ltpFR2	11	19	NIGHTGOWN	953	n/a	n/a	0	0	0
4153889	REC_WORD	wordpools/wasnorm_wordpool_576.txt	LTP344	ltpFR2	11	19	BACKBONE	66	n/a	n/a	0	0	0
4239432	WORD	wordpools/wasnorm_wordpool_576.txt	LTP344	ltpFR2	11	20	POWDER	1117	n/a	n/a	0	0	0
4242097	WORD	wordpools/wasnorm_wordpool_576.txt	LTP344	ltpFR2	11	20	FOREHEAD	592	n/a	n/a	0	0	0
4244746	WORD	wordpools/wasnorm_wordpool_576.txt	LTP344	ltpFR2	11	20	DANDRUFF	439	n/a	n/a	0	0	0
4247245	WORD	wordpools/wasnorm_wordpool_576.txt	LTP344	ltpFR2	11	20	RAZOR	1171	n/a	n/a	0	0	0
4249976	WORD	wordpools/wasnorm_wordpool_576.txt	LTP344	ltpFR2	11	20	STAKE	1368	n/a	n/a	0	0	0
4252443	WORD	wordpools/wasnorm_wordpool_576.txt	LTP344	ltpFR2	11	20	SERVER	1272	n/a	n/a	0	0	0
4255141	WORD	wordpools/wasnorm_wordpool_576.txt	LTP344	ltpFR2	11	20	ZIPPER	1636	n/a	n/a	0	0	0
4257840	WORD	wordpools/wasnorm_wordpool_576.txt	LTP344	ltpFR2	11	20	REBEL	1172	n/a	n/a	0	0	0
4260589	WORD	wordpools/wasnorm_wordpool_576.txt	LTP344	ltpFR2	11	20	FOX	598	n/a	n/a	0	0	0
4263171	WORD	wordpools/wasnorm_wordpool_576.txt	LTP344	ltpFR2	11	20	MUMMY	932	n/a	n/a	0	0	0
4265737	WORD	wordpools/wasnorm_wordpool_576.txt	LTP344	ltpFR2	11	20	KITCHEN	778	n/a	n/a	0	0	0
4268486	WORD	wordpools/wasnorm_wordpool_576.txt	LTP344	ltpFR2	11	20	TABLE	1426	n/a	n/a	0	0	0
4270917	WORD	wordpools/wasnorm_wordpool_576.txt	LTP344	ltpFR2	11	20	FRIAR	605	n/a	n/a	0	0	0
4273717	WORD	wordpools/wasnorm_wordpool_576.txt	LTP344	ltpFR2	11	20	UNCLE	1536	n/a	n/a	0	0	0
4276332	WORD	wordpools/wasnorm_wordpool_576.txt	LTP344	ltpFR2	11	20	BEAVER	109	n/a	n/a	0	0	0
4279013	WORD	wordpools/wasnorm_wordpool_576.txt	LTP344	ltpFR2	11	20	DRESSER	496	n/a	n/a	0	0	0
4281563	WORD	wordpools/wasnorm_wordpool_576.txt	LTP344	ltpFR2	11	20	COUSIN	392	n/a	n/a	0	0	0
4284011	WORD	wordpools/wasnorm_wordpool_576.txt	LTP344	ltpFR2	11	20	OYSTER	995	n/a	n/a	0	0	0
4286678	WORD	wordpools/wasnorm_wordpool_576.txt	LTP344	ltpFR2	11	20	PIGEON	1065	n/a	n/a	0	0	0
4289260	WORD	wordpools/wasnorm_wordpool_576.txt	LTP344	ltpFR2	11	20	SEAGULL	1261	n/a	n/a	0	0	0
4291858	WORD	wordpools/wasnorm_wordpool_576.txt	LTP344	ltpFR2	11	20	CHEST	295	n/a	n/a	0	0	0
4294541	WORD	wordpools/wasnorm_wordpool_576.txt	LTP344	ltpFR2	11	20	PREACHER	1119	n/a	n/a	0	0	0
4297339	WORD	wordpools/wasnorm_wordpool_576.txt	LTP344	ltpFR2	11	20	CROSS	413	n/a	n/a	0	0	0
4300021	WORD	wordpools/wasnorm_wordpool_576.txt	LTP344	ltpFR2	11	20	FLAG	573	n/a	n/a	0	0	0
4301638	START	n/a	LTP344	ltpFR2	11	n/a	n/a	n/a	28	n/a	n/a	n/a	n/a
4302704	DISTRACTOR	n/a	LTP344	ltpFR2	11	20	n/a	n/a	n/a	n/a	0	0	0
4302720	PROB	n/a	LTP344	ltpFR2	11	n/a	n/a	n/a	28	19	8	3	8
4304736	PROB	n/a	LTP344	ltpFR2	11	n/a	n/a	n/a	28	19	9	1	9
4306302	PROB	n/a	LTP344	ltpFR2	11	n/a	n/a	n/a	28	21	9	5	7
4308734	PROB	n/a	LTP344	ltpFR2	11	n/a	n/a	n/a	28	7	2	3	2
4310700	PROB	n/a	LTP344	ltpFR2	11	n/a	n/a	n/a	28	18	2	9	7
4312015	PROB	n/a	LTP344	ltpFR2	11	n/a	n/a	n/a	28	16	7	1	8
4313131	PROB	n/a	LTP344	ltpFR2	11	n/a	n/a	n/a	28	15	1	6	8
4314598	PROB	n/a	LTP344	ltpFR2	11	n/a	n/a	n/a	28	14	1	9	4
4315631	PROB	n/a	LTP344	ltpFR2	11	n/a	n/a	n/a	28	15	3	9	3
4316764	PROB	n/a	LTP344	ltpFR2	11	n/a	n/a	n/a	28	14	2	6	6
4317979	PROB	n/a	LTP344	ltpFR2	11	n/a	n/a	n/a	28	17	5	7	5
4319479	PROB	n/a	LTP344	ltpFR2	11	n/a	n/a	n/a	28	23	7	9	7
4321395	PROB	n/a	LTP344	ltpFR2	11	n/a	n/a	n/a	28	19	4	8	7
4323060	PROB	n/a	LTP344	ltpFR2	11	n/a	n/a	n/a	28	13	8	1	4
4324285	STOP	n/a	LTP344	ltpFR2	11	n/a	n/a	n/a	28	n/a	n/a	n/a	n/a
4327393	REC_START	n/a	LTP344	ltpFR2	11	20	n/a	n/a	n/a	n/a	0	0	0
4328588	REC_WORD	wordpools/wasnorm_wordpool_576.txt	LTP344	ltpFR2	11	20	CROSS	413	n/a	n/a	0	0	0
4329978	REC_WORD	wordpools/wasnorm_wordpool_576.txt	LTP344	ltpFR2	11	20	FLAG	573	n/a	n/a	0	0	0
4330978	REC_WORD_VV	wordpools/wasnorm_wordpool_576.txt	LTP344	ltpFR2	11	20	<>	-1	n/a	n/a	0	0	0
4335072	REC_WORD	wordpools/wasnorm_wordpool_576.txt	LTP344	ltpFR2	11	20	FOREHEAD	592	n/a	n/a	0	0	0
4337402	REC_WORD	wordpools/wasnorm_wordpool_576.txt	LTP344	ltpFR2	11	20	POWDER	1117	n/a	n/a	0	0	0
4345903	REC_WORD	wordpools/wasnorm_wordpool_576.txt	LTP344	ltpFR2	11	20	DANDRUFF	439	n/a	n/a	0	0	0
4346425	REC_WORD	wordpools/wasnorm_wordpool_576.txt	LTP344	ltpFR2	11	20	STAKE	1368	n/a	n/a	0	0	0
4347375	REC_WORD	wordpools/wasnorm_wordpool_576.txt	LTP344	ltpFR2	11	20	WAITER	1580	n/a	n/a	0	0	0
4350146	REC_WORD	wordpools/wasnorm_wordpool_576.txt	LTP344	ltpFR2	11	20	ZIPPER	1636	n/a	n/a	0	0	0
4350866	REC_WORD	wordpools/wasnorm_wordpool_576.txt	LTP344	ltpFR2	11	20	REBEL	1172	n/a	n/a	0	0	0
4351722	REC_WORD	wordpools/wasnorm_wordpool_576.txt	LTP344	ltpFR2	11	20	FOX	598	n/a	n/a	0	0	0
4352034	REC_WORD	wordpools/wasnorm_wordpool_576.txt	LTP344	ltpFR2	11	20	MUMMY	932	n/a	n/a	0	0	0
4352662	REC_WORD	wordpools/wasnorm_wordpool_576.txt	LTP344	ltpFR2	11	20	FRIAR	605	n/a	n/a	0	0	0
4354733	REC_WORD	wordpools/wasnorm_wordpool_576.txt	LTP344	ltpFR2	11	20	BEAVER	109	n/a	n/a	0	0	0
4417818	DISTRACTOR	n/a	LTP344	ltpFR2	11	21	n/a	n/a	n/a	n/a	0	0	0
4417818	START	n/a	LTP344	ltpFR2	11	n/a	n/a	n/a	29	n/a	n/a	n/a	n/a
4417834	PROB	n/a	LTP344	ltpFR2	11	n/a	n/a	n/a	29	15	4	6	5
4419567	PROB	n/a	LTP344	ltpFR2	11	n/a	n/a	n/a	29	16	2	5	9
4421233	PROB	n/a	LTP344	ltpFR2	11	n/a	n/a	n/a	29	7	4	2	1
4422349	PROB	n/a	LTP344	ltpFR2	11	n/a	n/a	n/a	29	17	4	6	7
4423616	PROB	n/a	LTP344	ltpFR2	11	n/a	n/a	n/a	29	18	7	4	7
4424947	PROB	n/a	LTP344	ltpFR2	11	n/a	n/a	n/a	29	7	4	2	1
4426130	PROB	n/a	LTP344	ltpFR2	11	n/a	n/a	n/a	29	13	8	2	3
4428363	PROB	n/a	LTP344	ltpFR2	11	n/a	n/a	n/a	29	13	4	8	1
4429796	PROB	n/a	LTP344	ltpFR2	11	n/a	n/a	n/a	29	23	9	9	5
4431662	PROB	n/a	LTP344	ltpFR2	11	n/a	n/a	n/a	29	13	5	2	6
4433461	PROB	n/a	LTP344	ltpFR2	11	n/a	n/a	n/a	29	19	4	6	9
4434843	PROB	n/a	LTP344	ltpFR2	11	n/a	n/a	n/a	29	16	8	5	3
4437559	PROB	n/a	LTP344	ltpFR2	11	n/a	n/a	n/a	29	12	6	1	5
4439175	PROB	n/a	LTP344	ltpFR2	11	n/a	n/a	n/a	29	20	6	9	5
4440927	STOP	n/a	LTP344	ltpFR2	11	n/a	n/a	n/a	29	n/a	n/a	n/a	n/a
4442972	WORD	wordpools/wasnorm_wordpool_576.txt	LTP344	ltpFR2	11	21	GRIZZLY	662	n/a	n/a	0	0	0
4445722	WORD	wordpools/wasnorm_wordpool_576.txt	LTP344	ltpFR2	11	21	PACKAGE	997	n/a	n/a	0	0	0
4448288	WORD	wordpools/wasnorm_wordpool_576.txt	LTP344	ltpFR2	11	21	STAMP	1370	n/a	n/a	0	0	0
4450952	WORD	wordpools/wasnorm_wordpool_576.txt	LTP344	ltpFR2	11	21	HONEY	713	n/a	n/a	0	0	0
4453485	WORD	wordpools/wasnorm_wordpool_576.txt	LTP344	ltpFR2	11	21	WAITRESS	1581	n/a	n/a	0	0	0
4456150	WORD	wordpools/wasnorm_wordpool_576.txt	LTP344	ltpFR2	11	21	SCISSORS	1250	n/a	n/a	0	0	0
4458750	WORD	wordpools/wasnorm_wordpool_576.txt	LTP344	ltpFR2	11	21	LUMBER	848	n/a	n/a	0	0	0
4461432	WORD	wordpools/wasnorm_wordpool_576.txt	LTP344	ltpFR2	11	21	FLASK	576	n/a	n/a	0	0	0
4463896	WORD	wordpools/wasnorm_wordpool_576.txt	LTP344	ltpFR2	11	21	BEAKER	104	n/a	n/a	0	0	0
4466346	WORD	wordpools/wasnorm_wordpool_576.txt	LTP344	ltpFR2	11	21	BOARD	143	n/a	n/a	0	0	0
4469011	WORD	wordpools/wasnorm_wordpool_576.txt	LTP344	ltpFR2	11	21	PUDDING	1139	n/a	n/a	0	0	0
4471677	WORD	wordpools/wasnorm_wordpool_576.txt	LTP344	ltpFR2	11	21	ORCHID	982	n/a	n/a	0	0	0
4474193	WORD	wordpools/wasnorm_wordpool_576.txt	LTP344	ltpFR2	11	21	SWORD	1423	n/a	n/a	0	0	0
4476658	WORD	wordpools/wasnorm_wordpool_576.txt	LTP344	ltpFR2	11	21	HARP	689	n/a	n/a	0	0	0
4479156	WORD	wordpools/wasnorm_wordpool_576.txt	LTP344	ltpFR2	11	21	PASSAGE	1019	n/a	n/a	0	0	0
4481938	WORD	wordpools/wasnorm_wordpool_576.txt	LTP344	ltpFR2	11	21	WOMAN	1620	n/a	n/a	0	0	0
4484588	WORD	wordpools/wasnorm_wordpool_576.txt	LTP344	ltpFR2	11	21	MOTOR	922	n/a	n/a	0	0	0
4487353	WORD	wordpools/wasnorm_wordpool_576.txt	LTP344	ltpFR2	11	21	COWBOY	395	n/a	n/a	0	0	0
4489935	WORD	wordpools/wasnorm_wordpool_576.txt	LTP344	ltpFR2	11	21	TUBA	1515	n/a	n/a	0	0	0
4492701	WORD	wordpools/wasnorm_wordpool_576.txt	LTP344	ltpFR2	11	21	RUST	1219	n/a	n/a	0	0	0
4495165	WORD	wordpools/wasnorm_wordpool_576.txt	LTP344	ltpFR2	11	21	SHELTER	1282	n/a	n/a	0	0	0
