mstime	trial_type	stim_file	subject	experiment	session	trial	item_name	item_num	list	answer	test_x	test_y	test_z
0	SESS_START	n/a	LTP359	ltpFR2	0	n/a	n/a	n/a	n/a	n/a	0	0	0
29755	START	n/a	LTP359	ltpFR2	0	n/a	n/a	n/a	-1	n/a	n/a	n/a	n/a
29769	PROB	n/a	LTP359	ltpFR2	0	n/a	n/a	n/a	-1	15	6	5	4
33152	PROB	n/a	LTP359	ltpFR2	0	n/a	n/a	n/a	-1	10	4	4	2
34650	PROB	n/a	LTP359	ltpFR2	0	n/a	n/a	n/a	-1	21	6	6	9
36882	PROB	n/a	LTP359	ltpFR2	0	n/a	n/a	n/a	-1	11	7	3	1
38116	PROB	n/a	LTP359	ltpFR2	0	n/a	n/a	n/a	-1	21	6	5	8
40557	STOP	n/a	LTP359	ltpFR2	0	n/a	n/a	n/a	-1	n/a	n/a	n/a	n/a
94990	WORD	wordpools/wasnorm_wordpool_576.txt	LTP359	ltpFR2	0	1	HIGHWAY	707	n/a	n/a	0	0	0
97688	WORD	wordpools/wasnorm_wordpool_576.txt	LTP359	ltpFR2	0	1	GYMNAST	675	n/a	n/a	0	0	0
100488	WORD	wordpools/wasnorm_wordpool_576.txt	LTP359	ltpFR2	0	1	ONION	977	n/a	n/a	0	0	0
102919	WORD	wordpools/wasnorm_wordpool_576.txt	LTP359	ltpFR2	0	1	LUMBER	848	n/a	n/a	0	0	0
105369	WORD	wordpools/wasnorm_wordpool_576.txt	LTP359	ltpFR2	0	1	CHEMIST	292	n/a	n/a	0	0	0
108051	WORD	wordpools/wasnorm_wordpool_576.txt	LTP359	ltpFR2	0	1	BEAKER	104	n/a	n/a	0	0	0
110816	WORD	wordpools/wasnorm_wordpool_576.txt	LTP359	ltpFR2	0	1	DENTIST	447	n/a	n/a	0	0	0
113482	WORD	wordpools/wasnorm_wordpool_576.txt	LTP359	ltpFR2	0	1	KNIFE	785	n/a	n/a	0	0	0
115930	WORD	wordpools/wasnorm_wordpool_576.txt	LTP359	ltpFR2	0	1	SCALPEL	1243	n/a	n/a	0	0	0
118413	WORD	wordpools/wasnorm_wordpool_576.txt	LTP359	ltpFR2	0	1	SNAKE	1333	n/a	n/a	0	0	0
120979	WORD	wordpools/wasnorm_wordpool_576.txt	LTP359	ltpFR2	0	1	FOOTBALL	591	n/a	n/a	0	0	0
123628	WORD	wordpools/wasnorm_wordpool_576.txt	LTP359	ltpFR2	0	1	FREEZER	604	n/a	n/a	0	0	0
126443	WORD	wordpools/wasnorm_wordpool_576.txt	LTP359	ltpFR2	0	1	CRAB	397	n/a	n/a	0	0	0
129092	WORD	wordpools/wasnorm_wordpool_576.txt	LTP359	ltpFR2	0	1	PUPIL	1143	n/a	n/a	0	0	0
131640	WORD	wordpools/wasnorm_wordpool_576.txt	LTP359	ltpFR2	0	1	SCRIBBLE	1256	n/a	n/a	0	0	0
134106	WORD	wordpools/wasnorm_wordpool_576.txt	LTP359	ltpFR2	0	1	CABIN	211	n/a	n/a	0	0	0
136871	WORD	wordpools/wasnorm_wordpool_576.txt	LTP359	ltpFR2	0	1	VALLEY	1545	n/a	n/a	0	0	0
139653	WORD	wordpools/wasnorm_wordpool_576.txt	LTP359	ltpFR2	0	1	PEBBLE	1035	n/a	n/a	0	0	0
142119	WORD	wordpools/wasnorm_wordpool_576.txt	LTP359	ltpFR2	0	1	SIDEWALK	1303	n/a	n/a	0	0	0
144934	WORD	wordpools/wasnorm_wordpool_576.txt	LTP359	ltpFR2	0	1	FIREPLACE	570	n/a	n/a	0	0	0
147600	WORD	wordpools/wasnorm_wordpool_576.txt	LTP359	ltpFR2	0	1	STAR	1373	n/a	n/a	0	0	0
150349	WORD	wordpools/wasnorm_wordpool_576.txt	LTP359	ltpFR2	0	1	CRIB	407	n/a	n/a	0	0	0
152847	WORD	wordpools/wasnorm_wordpool_576.txt	LTP359	ltpFR2	0	1	MUSTARD	935	n/a	n/a	0	0	0
155497	WORD	wordpools/wasnorm_wordpool_576.txt	LTP359	ltpFR2	0	1	BACON	67	n/a	n/a	0	0	0
157113	START	n/a	LTP359	ltpFR2	0	n/a	n/a	n/a	1	n/a	n/a	n/a	n/a
158121	DISTRACTOR	n/a	LTP359	ltpFR2	0	1	n/a	n/a	n/a	n/a	0	0	0
158129	PROB	n/a	LTP359	ltpFR2	0	n/a	n/a	n/a	1	12	3	6	3
162527	PROB	n/a	LTP359	ltpFR2	0	n/a	n/a	n/a	1	17	4	5	8
164459	PROB	n/a	LTP359	ltpFR2	0	n/a	n/a	n/a	1	18	5	8	5
166275	PROB	n/a	LTP359	ltpFR2	0	n/a	n/a	n/a	1	10	6	2	2
167707	PROB	n/a	LTP359	ltpFR2	0	n/a	n/a	n/a	1	10	2	3	5
169190	PROB	n/a	LTP359	ltpFR2	0	n/a	n/a	n/a	1	6	2	1	3
170506	PROB	n/a	LTP359	ltpFR2	0	n/a	n/a	n/a	1	6	2	3	1
171672	PROB	n/a	LTP359	ltpFR2	0	n/a	n/a	n/a	1	15	5	8	2
173588	PROB	n/a	LTP359	ltpFR2	0	n/a	n/a	n/a	1	16	5	9	2
175471	PROB	n/a	LTP359	ltpFR2	0	n/a	n/a	n/a	1	9	2	6	1
177253	PROB	n/a	LTP359	ltpFR2	0	n/a	n/a	n/a	1	24	9	8	7
180393	STOP	n/a	LTP359	ltpFR2	0	n/a	n/a	n/a	1	n/a	n/a	n/a	n/a
182951	REC_START	n/a	LTP359	ltpFR2	0	1	n/a	n/a	n/a	n/a	0	0	0
191456	REC_WORD_VV	wordpools/wasnorm_wordpool_576.txt	LTP359	ltpFR2	0	1	<>	-1	n/a	n/a	0	0	0
191826	REC_WORD	wordpools/wasnorm_wordpool_576.txt	LTP359	ltpFR2	0	1	CRAB	397	n/a	n/a	0	0	0
192791	REC_WORD	wordpools/wasnorm_wordpool_576.txt	LTP359	ltpFR2	0	1	KNIFE	785	n/a	n/a	0	0	0
194190	REC_WORD	wordpools/wasnorm_wordpool_576.txt	LTP359	ltpFR2	0	1	SCALPEL	1243	n/a	n/a	0	0	0
196113	REC_WORD	wordpools/wasnorm_wordpool_576.txt	LTP359	ltpFR2	0	1	SNAKE	1333	n/a	n/a	0	0	0
196966	REC_WORD	wordpools/wasnorm_wordpool_576.txt	LTP359	ltpFR2	0	1	FOOTBALL	591	n/a	n/a	0	0	0
198310	REC_WORD	wordpools/wasnorm_wordpool_576.txt	LTP359	ltpFR2	0	1	BACON	67	n/a	n/a	0	0	0
201743	REC_WORD	wordpools/wasnorm_wordpool_576.txt	LTP359	ltpFR2	0	1	LUMBER	848	n/a	n/a	0	0	0
203820	REC_WORD	wordpools/wasnorm_wordpool_576.txt	LTP359	ltpFR2	0	1	HIGHWAY	707	n/a	n/a	0	0	0
204770	REC_WORD	wordpools/wasnorm_wordpool_576.txt	LTP359	ltpFR2	0	1	PEBBLE	1035	n/a	n/a	0	0	0
206399	REC_WORD	wordpools/wasnorm_wordpool_576.txt	LTP359	ltpFR2	0	1	SIDEWALK	1303	n/a	n/a	0	0	0
207399	REC_WORD_VV	wordpools/wasnorm_wordpool_576.txt	LTP359	ltpFR2	0	1	<>	-1	n/a	n/a	0	0	0
216373	REC_WORD	wordpools/wasnorm_wordpool_576.txt	LTP359	ltpFR2	0	1	CHEERLEADER	288	n/a	n/a	0	0	0
230148	REC_WORD	wordpools/wasnorm_wordpool_576.txt	LTP359	ltpFR2	0	1	FREEZER	604	n/a	n/a	0	0	0
238649	REC_WORD	wordpools/wasnorm_wordpool_576.txt	LTP359	ltpFR2	0	1	CRAB	397	n/a	n/a	0	0	0
253889	REC_WORD	wordpools/wasnorm_wordpool_576.txt	LTP359	ltpFR2	0	1	STAR	1373	n/a	n/a	0	0	0
312708	DISTRACTOR	n/a	LTP359	ltpFR2	0	2	n/a	n/a	n/a	n/a	0	0	0
312708	START	n/a	LTP359	ltpFR2	0	n/a	n/a	n/a	2	n/a	n/a	n/a	n/a
312724	PROB	n/a	LTP359	ltpFR2	0	n/a	n/a	n/a	2	3	1	1	1
314275	PROB	n/a	LTP359	ltpFR2	0	n/a	n/a	n/a	2	14	6	2	6
316773	PROB	n/a	LTP359	ltpFR2	0	n/a	n/a	n/a	2	15	1	6	8
318506	PROB	n/a	LTP359	ltpFR2	0	n/a	n/a	n/a	2	16	6	7	3
320139	PROB	n/a	LTP359	ltpFR2	0	n/a	n/a	n/a	2	15	4	2	7
321588	PROB	n/a	LTP359	ltpFR2	0	n/a	n/a	n/a	2	19	8	4	7
324852	PROB	n/a	LTP359	ltpFR2	0	n/a	n/a	n/a	2	16	9	2	5
326835	PROB	n/a	LTP359	ltpFR2	0	n/a	n/a	n/a	2	13	6	3	4
328750	PROB	n/a	LTP359	ltpFR2	0	n/a	n/a	n/a	2	13	9	1	3
330666	PROB	n/a	LTP359	ltpFR2	0	n/a	n/a	n/a	2	17	7	1	9
332383	PROB	n/a	LTP359	ltpFR2	0	n/a	n/a	n/a	2	17	7	7	3
336708	STOP	n/a	LTP359	ltpFR2	0	n/a	n/a	n/a	2	n/a	n/a	n/a	n/a
337713	WORD	wordpools/wasnorm_wordpool_576.txt	LTP359	ltpFR2	0	2	BUBBLE	183	n/a	n/a	0	0	0
340213	WORD	wordpools/wasnorm_wordpool_576.txt	LTP359	ltpFR2	0	2	DAISY	435	n/a	n/a	0	0	0
342644	WORD	wordpools/wasnorm_wordpool_576.txt	LTP359	ltpFR2	0	2	PEDAL	1037	n/a	n/a	0	0	0
345261	WORD	wordpools/wasnorm_wordpool_576.txt	LTP359	ltpFR2	0	2	CASHEW	253	n/a	n/a	0	0	0
347925	WORD	wordpools/wasnorm_wordpool_576.txt	LTP359	ltpFR2	0	2	XEROX	1628	n/a	n/a	0	0	0
350392	WORD	wordpools/wasnorm_wordpool_576.txt	LTP359	ltpFR2	0	2	PRIMATE	1123	n/a	n/a	0	0	0
352840	WORD	wordpools/wasnorm_wordpool_576.txt	LTP359	ltpFR2	0	2	DRAWING	494	n/a	n/a	0	0	0
355573	WORD	wordpools/wasnorm_wordpool_576.txt	LTP359	ltpFR2	0	2	RUST	1219	n/a	n/a	0	0	0
358305	WORD	wordpools/wasnorm_wordpool_576.txt	LTP359	ltpFR2	0	2	FLAG	573	n/a	n/a	0	0	0
361004	WORD	wordpools/wasnorm_wordpool_576.txt	LTP359	ltpFR2	0	2	PECAN	1036	n/a	n/a	0	0	0
363785	WORD	wordpools/wasnorm_wordpool_576.txt	LTP359	ltpFR2	0	2	SUPPER	1411	n/a	n/a	0	0	0
366301	WORD	wordpools/wasnorm_wordpool_576.txt	LTP359	ltpFR2	0	2	CATTLE	261	n/a	n/a	0	0	0
368766	WORD	wordpools/wasnorm_wordpool_576.txt	LTP359	ltpFR2	0	2	TREAT	1501	n/a	n/a	0	0	0
371466	WORD	wordpools/wasnorm_wordpool_576.txt	LTP359	ltpFR2	0	2	CANDY	230	n/a	n/a	0	0	0
373897	WORD	wordpools/wasnorm_wordpool_576.txt	LTP359	ltpFR2	0	2	TILE	1468	n/a	n/a	0	0	0
376613	WORD	wordpools/wasnorm_wordpool_576.txt	LTP359	ltpFR2	0	2	DASHBOARD	441	n/a	n/a	0	0	0
379279	WORD	wordpools/wasnorm_wordpool_576.txt	LTP359	ltpFR2	0	2	COUNTY	389	n/a	n/a	0	0	0
381860	WORD	wordpools/wasnorm_wordpool_576.txt	LTP359	ltpFR2	0	2	BLOCKADE	137	n/a	n/a	0	0	0
384360	WORD	wordpools/wasnorm_wordpool_576.txt	LTP359	ltpFR2	0	2	NIGHTGOWN	953	n/a	n/a	0	0	0
386858	WORD	wordpools/wasnorm_wordpool_576.txt	LTP359	ltpFR2	0	2	ASIA	46	n/a	n/a	0	0	0
389324	WORD	wordpools/wasnorm_wordpool_576.txt	LTP359	ltpFR2	0	2	LONDON	843	n/a	n/a	0	0	0
391855	WORD	wordpools/wasnorm_wordpool_576.txt	LTP359	ltpFR2	0	2	JELLY	755	n/a	n/a	0	0	0
394588	WORD	wordpools/wasnorm_wordpool_576.txt	LTP359	ltpFR2	0	2	CITRUS	313	n/a	n/a	0	0	0
397271	WORD	wordpools/wasnorm_wordpool_576.txt	LTP359	ltpFR2	0	2	SCULPTURE	1258	n/a	n/a	0	0	0
398886	START	n/a	LTP359	ltpFR2	0	n/a	n/a	n/a	3	n/a	n/a	n/a	n/a
399982	DISTRACTOR	n/a	LTP359	ltpFR2	0	2	n/a	n/a	n/a	n/a	0	0	0
399986	PROB	n/a	LTP359	ltpFR2	0	n/a	n/a	n/a	3	13	2	9	2
402985	PROB	n/a	LTP359	ltpFR2	0	n/a	n/a	n/a	3	11	1	1	9
404367	PROB	n/a	LTP359	ltpFR2	0	n/a	n/a	n/a	3	14	2	9	3
406450	PROB	n/a	LTP359	ltpFR2	0	n/a	n/a	n/a	3	8	1	6	1
407815	PROB	n/a	LTP359	ltpFR2	0	n/a	n/a	n/a	3	12	6	5	1
409099	PROB	n/a	LTP359	ltpFR2	0	n/a	n/a	n/a	3	15	5	6	4
410847	PROB	n/a	LTP359	ltpFR2	0	n/a	n/a	n/a	3	20	9	8	3
413895	PROB	n/a	LTP359	ltpFR2	0	n/a	n/a	n/a	3	12	2	6	4
415579	PROB	n/a	LTP359	ltpFR2	0	n/a	n/a	n/a	3	16	2	9	5
418910	PROB	n/a	LTP359	ltpFR2	0	n/a	n/a	n/a	3	14	6	5	3
421920	STOP	n/a	LTP359	ltpFR2	0	n/a	n/a	n/a	3	n/a	n/a	n/a	n/a
424707	REC_START	n/a	LTP359	ltpFR2	0	2	n/a	n/a	n/a	n/a	0	0	0
425885	REC_WORD	wordpools/wasnorm_wordpool_576.txt	LTP359	ltpFR2	0	2	BUBBLE	183	n/a	n/a	0	0	0
427408	REC_WORD	wordpools/wasnorm_wordpool_576.txt	LTP359	ltpFR2	0	2	SCULPTURE	1258	n/a	n/a	0	0	0
428874	REC_WORD	wordpools/wasnorm_wordpool_576.txt	LTP359	ltpFR2	0	2	TREAT	1501	n/a	n/a	0	0	0
430033	REC_WORD	wordpools/wasnorm_wordpool_576.txt	LTP359	ltpFR2	0	2	CATTLE	261	n/a	n/a	0	0	0
434600	REC_WORD	wordpools/wasnorm_wordpool_576.txt	LTP359	ltpFR2	0	2	CITRUS	313	n/a	n/a	0	0	0
436247	REC_WORD	wordpools/wasnorm_wordpool_576.txt	LTP359	ltpFR2	0	2	JELLY	755	n/a	n/a	0	0	0
438705	REC_WORD	wordpools/wasnorm_wordpool_576.txt	LTP359	ltpFR2	0	2	ASIA	46	n/a	n/a	0	0	0
439996	REC_WORD	wordpools/wasnorm_wordpool_576.txt	LTP359	ltpFR2	0	2	LONDON	843	n/a	n/a	0	0	0
442890	REC_WORD	wordpools/wasnorm_wordpool_576.txt	LTP359	ltpFR2	0	2	DAISY	435	n/a	n/a	0	0	0
456336	REC_WORD	wordpools/wasnorm_wordpool_576.txt	LTP359	ltpFR2	0	2	HIGHWAY	707	n/a	n/a	0	0	0
458081	REC_WORD	wordpools/wasnorm_wordpool_576.txt	LTP359	ltpFR2	0	2	DRAWING	494	n/a	n/a	0	0	0
459468	REC_WORD	wordpools/wasnorm_wordpool_576.txt	LTP359	ltpFR2	0	2	RUST	1219	n/a	n/a	0	0	0
465536	REC_WORD	wordpools/wasnorm_wordpool_576.txt	LTP359	ltpFR2	0	2	FLAG	573	n/a	n/a	0	0	0
490757	REC_WORD	wordpools/wasnorm_wordpool_576.txt	LTP359	ltpFR2	0	2	XEROX	1628	n/a	n/a	0	0	0
515134	DISTRACTOR	n/a	LTP359	ltpFR2	0	3	n/a	n/a	n/a	n/a	0	0	0
515134	START	n/a	LTP359	ltpFR2	0	n/a	n/a	n/a	4	n/a	n/a	n/a	n/a
515151	PROB	n/a	LTP359	ltpFR2	0	n/a	n/a	n/a	4	22	7	8	7
517932	PROB	n/a	LTP359	ltpFR2	0	n/a	n/a	n/a	4	3	1	1	1
518914	PROB	n/a	LTP359	ltpFR2	0	n/a	n/a	n/a	4	16	3	7	6
520248	PROB	n/a	LTP359	ltpFR2	0	n/a	n/a	n/a	4	22	9	3	9
525778	PROB	n/a	LTP359	ltpFR2	0	n/a	n/a	n/a	4	11	2	5	4
528743	PROB	n/a	LTP359	ltpFR2	0	n/a	n/a	n/a	4	13	5	6	2
530410	PROB	n/a	LTP359	ltpFR2	0	n/a	n/a	n/a	4	18	7	4	7
532642	PROB	n/a	LTP359	ltpFR2	0	n/a	n/a	n/a	4	13	1	6	6
534757	PROB	n/a	LTP359	ltpFR2	0	n/a	n/a	n/a	4	11	5	1	5
536408	PROB	n/a	LTP359	ltpFR2	0	n/a	n/a	n/a	4	17	3	9	5
538477	STOP	n/a	LTP359	ltpFR2	0	n/a	n/a	n/a	4	n/a	n/a	n/a	n/a
540056	WORD	wordpools/wasnorm_wordpool_576.txt	LTP359	ltpFR2	0	3	BURGLAR	200	n/a	n/a	0	0	0
542670	WORD	wordpools/wasnorm_wordpool_576.txt	LTP359	ltpFR2	0	3	BRACES	164	n/a	n/a	0	0	0
545137	WORD	wordpools/wasnorm_wordpool_576.txt	LTP359	ltpFR2	0	3	SHARK	1275	n/a	n/a	0	0	0
547952	WORD	wordpools/wasnorm_wordpool_576.txt	LTP359	ltpFR2	0	3	STREAM	1392	n/a	n/a	0	0	0
550700	WORD	wordpools/wasnorm_wordpool_576.txt	LTP359	ltpFR2	0	3	RACKET	1155	n/a	n/a	0	0	0
553400	WORD	wordpools/wasnorm_wordpool_576.txt	LTP359	ltpFR2	0	3	CANAL	226	n/a	n/a	0	0	0
556082	WORD	wordpools/wasnorm_wordpool_576.txt	LTP359	ltpFR2	0	3	MONEY	908	n/a	n/a	0	0	0
558614	WORD	wordpools/wasnorm_wordpool_576.txt	LTP359	ltpFR2	0	3	MASK	876	n/a	n/a	0	0	0
561196	WORD	wordpools/wasnorm_wordpool_576.txt	LTP359	ltpFR2	0	3	RATTLE	1170	n/a	n/a	0	0	0
563777	WORD	wordpools/wasnorm_wordpool_576.txt	LTP359	ltpFR2	0	3	BUNNY	198	n/a	n/a	0	0	0
566327	WORD	wordpools/wasnorm_wordpool_576.txt	LTP359	ltpFR2	0	3	ELBOW	520	n/a	n/a	0	0	0
569159	WORD	wordpools/wasnorm_wordpool_576.txt	LTP359	ltpFR2	0	3	CHILD	299	n/a	n/a	0	0	0
571674	WORD	wordpools/wasnorm_wordpool_576.txt	LTP359	ltpFR2	0	3	INFANT	737	n/a	n/a	0	0	0
574340	WORD	wordpools/wasnorm_wordpool_576.txt	LTP359	ltpFR2	0	3	CREATURE	403	n/a	n/a	0	0	0
577156	WORD	wordpools/wasnorm_wordpool_576.txt	LTP359	ltpFR2	0	3	PIMPLE	1071	n/a	n/a	0	0	0
579837	WORD	wordpools/wasnorm_wordpool_576.txt	LTP359	ltpFR2	0	3	DONOR	485	n/a	n/a	0	0	0
582420	WORD	wordpools/wasnorm_wordpool_576.txt	LTP359	ltpFR2	0	3	POWDER	1117	n/a	n/a	0	0	0
584901	WORD	wordpools/wasnorm_wordpool_576.txt	LTP359	ltpFR2	0	3	TEMPLE	1448	n/a	n/a	0	0	0
587601	WORD	wordpools/wasnorm_wordpool_576.txt	LTP359	ltpFR2	0	3	SPHINX	1349	n/a	n/a	0	0	0
590283	WORD	wordpools/wasnorm_wordpool_576.txt	LTP359	ltpFR2	0	3	EGYPT	519	n/a	n/a	0	0	0
592781	WORD	wordpools/wasnorm_wordpool_576.txt	LTP359	ltpFR2	0	3	CHEST	295	n/a	n/a	0	0	0
595248	WORD	wordpools/wasnorm_wordpool_576.txt	LTP359	ltpFR2	0	3	NOMAD	955	n/a	n/a	0	0	0
597745	WORD	wordpools/wasnorm_wordpool_576.txt	LTP359	ltpFR2	0	3	SOFTBALL	1343	n/a	n/a	0	0	0
600312	WORD	wordpools/wasnorm_wordpool_576.txt	LTP359	ltpFR2	0	3	RAFT	1159	n/a	n/a	0	0	0
601927	START	n/a	LTP359	ltpFR2	0	n/a	n/a	n/a	5	n/a	n/a	n/a	n/a
603079	DISTRACTOR	n/a	LTP359	ltpFR2	0	3	n/a	n/a	n/a	n/a	0	0	0
603094	PROB	n/a	LTP359	ltpFR2	0	n/a	n/a	n/a	5	10	2	7	1
605076	PROB	n/a	LTP359	ltpFR2	0	n/a	n/a	n/a	5	13	3	9	1
606609	PROB	n/a	LTP359	ltpFR2	0	n/a	n/a	n/a	5	13	1	3	9
608275	PROB	n/a	LTP359	ltpFR2	0	n/a	n/a	n/a	5	8	4	1	3
609873	PROB	n/a	LTP359	ltpFR2	0	n/a	n/a	n/a	5	13	1	7	5
611457	PROB	n/a	LTP359	ltpFR2	0	n/a	n/a	n/a	5	17	6	3	8
612990	PROB	n/a	LTP359	ltpFR2	0	n/a	n/a	n/a	5	18	3	9	6
614671	PROB	n/a	LTP359	ltpFR2	0	n/a	n/a	n/a	5	14	1	6	7
616605	PROB	n/a	LTP359	ltpFR2	0	n/a	n/a	n/a	5	15	6	8	1
618470	PROB	n/a	LTP359	ltpFR2	0	n/a	n/a	n/a	5	10	5	3	2
620036	PROB	n/a	LTP359	ltpFR2	0	n/a	n/a	n/a	5	20	3	8	9
622119	PROB	n/a	LTP359	ltpFR2	0	n/a	n/a	n/a	5	6	2	3	1
623734	PROB	n/a	LTP359	ltpFR2	0	n/a	n/a	n/a	5	27	9	9	9
625503	STOP	n/a	LTP359	ltpFR2	0	n/a	n/a	n/a	5	n/a	n/a	n/a	n/a
627716	REC_START	n/a	LTP359	ltpFR2	0	3	n/a	n/a	n/a	n/a	0	0	0
629193	REC_WORD	wordpools/wasnorm_wordpool_576.txt	LTP359	ltpFR2	0	3	RATTLE	1170	n/a	n/a	0	0	0
632888	REC_WORD	wordpools/wasnorm_wordpool_576.txt	LTP359	ltpFR2	0	3	ELBOW	520	n/a	n/a	0	0	0
634533	REC_WORD	wordpools/wasnorm_wordpool_576.txt	LTP359	ltpFR2	0	3	INFANT	737	n/a	n/a	0	0	0
635937	REC_WORD	wordpools/wasnorm_wordpool_576.txt	LTP359	ltpFR2	0	3	CHILD	299	n/a	n/a	0	0	0
637480	REC_WORD	wordpools/wasnorm_wordpool_576.txt	LTP359	ltpFR2	0	3	CREATURE	403	n/a	n/a	0	0	0
638991	REC_WORD	wordpools/wasnorm_wordpool_576.txt	LTP359	ltpFR2	0	3	PIMPLE	1071	n/a	n/a	0	0	0
640677	REC_WORD	wordpools/wasnorm_wordpool_576.txt	LTP359	ltpFR2	0	3	DONOR	485	n/a	n/a	0	0	0
642012	REC_WORD	wordpools/wasnorm_wordpool_576.txt	LTP359	ltpFR2	0	3	CANAL	226	n/a	n/a	0	0	0
643523	REC_WORD	wordpools/wasnorm_wordpool_576.txt	LTP359	ltpFR2	0	3	MONEY	908	n/a	n/a	0	0	0
644577	REC_WORD	wordpools/wasnorm_wordpool_576.txt	LTP359	ltpFR2	0	3	STREAM	1392	n/a	n/a	0	0	0
646017	REC_WORD	wordpools/wasnorm_wordpool_576.txt	LTP359	ltpFR2	0	3	SHARK	1275	n/a	n/a	0	0	0
647473	REC_WORD	wordpools/wasnorm_wordpool_576.txt	LTP359	ltpFR2	0	3	BRACES	164	n/a	n/a	0	0	0
648473	REC_WORD_VV	wordpools/wasnorm_wordpool_576.txt	LTP359	ltpFR2	0	3	<>	-1	n/a	n/a	0	0	0
671912	REC_WORD	wordpools/wasnorm_wordpool_576.txt	LTP359	ltpFR2	0	3	CHEST	295	n/a	n/a	0	0	0
673612	REC_WORD	wordpools/wasnorm_wordpool_576.txt	LTP359	ltpFR2	0	3	NOMAD	955	n/a	n/a	0	0	0
677504	REC_WORD	wordpools/wasnorm_wordpool_576.txt	LTP359	ltpFR2	0	3	SOFTBALL	1343	n/a	n/a	0	0	0
718159	WORD	wordpools/wasnorm_wordpool_576.txt	LTP359	ltpFR2	0	4	GRAVEL	659	n/a	n/a	0	0	0
720790	WORD	wordpools/wasnorm_wordpool_576.txt	LTP359	ltpFR2	0	4	BREAST	171	n/a	n/a	0	0	0
723523	WORD	wordpools/wasnorm_wordpool_576.txt	LTP359	ltpFR2	0	4	PLAYGROUND	1087	n/a	n/a	0	0	0
726105	WORD	wordpools/wasnorm_wordpool_576.txt	LTP359	ltpFR2	0	4	TRACTOR	1493	n/a	n/a	0	0	0
728869	WORD	wordpools/wasnorm_wordpool_576.txt	LTP359	ltpFR2	0	4	POSTAGE	1113	n/a	n/a	0	0	0
731702	WORD	wordpools/wasnorm_wordpool_576.txt	LTP359	ltpFR2	0	4	CEILING	265	n/a	n/a	0	0	0
734201	WORD	wordpools/wasnorm_wordpool_576.txt	LTP359	ltpFR2	0	4	GROUND	666	n/a	n/a	0	0	0
736666	WORD	wordpools/wasnorm_wordpool_576.txt	LTP359	ltpFR2	0	4	PIANO	1057	n/a	n/a	0	0	0
739099	WORD	wordpools/wasnorm_wordpool_576.txt	LTP359	ltpFR2	0	4	REBEL	1172	n/a	n/a	0	0	0
741814	WORD	wordpools/wasnorm_wordpool_576.txt	LTP359	ltpFR2	0	4	CURTAIN	427	n/a	n/a	0	0	0
744297	WORD	wordpools/wasnorm_wordpool_576.txt	LTP359	ltpFR2	0	4	SALMON	1227	n/a	n/a	0	0	0
746996	WORD	wordpools/wasnorm_wordpool_576.txt	LTP359	ltpFR2	0	4	HOOK	715	n/a	n/a	0	0	0
749710	WORD	wordpools/wasnorm_wordpool_576.txt	LTP359	ltpFR2	0	4	MARS	873	n/a	n/a	0	0	0
752526	WORD	wordpools/wasnorm_wordpool_576.txt	LTP359	ltpFR2	0	4	GIRL	637	n/a	n/a	0	0	0
755275	WORD	wordpools/wasnorm_wordpool_576.txt	LTP359	ltpFR2	0	4	PARENT	1013	n/a	n/a	0	0	0
757974	WORD	wordpools/wasnorm_wordpool_576.txt	LTP359	ltpFR2	0	4	PORK	1108	n/a	n/a	0	0	0
760406	WORD	wordpools/wasnorm_wordpool_576.txt	LTP359	ltpFR2	0	4	GRILL	661	n/a	n/a	0	0	0
763105	WORD	wordpools/wasnorm_wordpool_576.txt	LTP359	ltpFR2	0	4	MONSTER	912	n/a	n/a	0	0	0
765836	WORD	wordpools/wasnorm_wordpool_576.txt	LTP359	ltpFR2	0	4	POCKET	1093	n/a	n/a	0	0	0
768353	WORD	wordpools/wasnorm_wordpool_576.txt	LTP359	ltpFR2	0	4	MAILMAN	858	n/a	n/a	0	0	0
770884	WORD	wordpools/wasnorm_wordpool_576.txt	LTP359	ltpFR2	0	4	TART	1436	n/a	n/a	0	0	0
773584	WORD	wordpools/wasnorm_wordpool_576.txt	LTP359	ltpFR2	0	4	ULCER	1533	n/a	n/a	0	0	0
776399	WORD	wordpools/wasnorm_wordpool_576.txt	LTP359	ltpFR2	0	4	HUSBAND	728	n/a	n/a	0	0	0
779164	WORD	wordpools/wasnorm_wordpool_576.txt	LTP359	ltpFR2	0	4	MISTER	901	n/a	n/a	0	0	0
780779	START	n/a	LTP359	ltpFR2	0	n/a	n/a	n/a	6	n/a	n/a	n/a	n/a
781693	DISTRACTOR	n/a	LTP359	ltpFR2	0	4	n/a	n/a	n/a	n/a	0	0	0
781696	PROB	n/a	LTP359	ltpFR2	0	n/a	n/a	n/a	6	15	4	3	8
784345	PROB	n/a	LTP359	ltpFR2	0	n/a	n/a	n/a	6	8	2	2	4
785512	PROB	n/a	LTP359	ltpFR2	0	n/a	n/a	n/a	6	17	6	4	7
787211	PROB	n/a	LTP359	ltpFR2	0	n/a	n/a	n/a	6	12	2	1	9
788493	PROB	n/a	LTP359	ltpFR2	0	n/a	n/a	n/a	6	12	4	4	4
790109	PROB	n/a	LTP359	ltpFR2	0	n/a	n/a	n/a	6	19	2	9	8
792159	PROB	n/a	LTP359	ltpFR2	0	n/a	n/a	n/a	6	21	4	8	9
794141	PROB	n/a	LTP359	ltpFR2	0	n/a	n/a	n/a	6	12	1	8	3
798189	PROB	n/a	LTP359	ltpFR2	0	n/a	n/a	n/a	6	11	8	2	1
799921	PROB	n/a	LTP359	ltpFR2	0	n/a	n/a	n/a	6	12	9	1	2
802204	PROB	n/a	LTP359	ltpFR2	0	n/a	n/a	n/a	6	10	6	6	2
804117	STOP	n/a	LTP359	ltpFR2	0	n/a	n/a	n/a	6	n/a	n/a	n/a	n/a
806668	REC_START	n/a	LTP359	ltpFR2	0	4	n/a	n/a	n/a	n/a	0	0	0
809834	REC_WORD	wordpools/wasnorm_wordpool_576.txt	LTP359	ltpFR2	0	4	MAILMAN	858	n/a	n/a	0	0	0
811264	REC_WORD	wordpools/wasnorm_wordpool_576.txt	LTP359	ltpFR2	0	4	POSTAGE	1113	n/a	n/a	0	0	0
812264	REC_WORD_VV	wordpools/wasnorm_wordpool_576.txt	LTP359	ltpFR2	0	4	<>	-1	n/a	n/a	0	0	0
813897	REC_WORD	wordpools/wasnorm_wordpool_576.txt	LTP359	ltpFR2	0	4	ULCER	1533	n/a	n/a	0	0	0
814974	REC_WORD	wordpools/wasnorm_wordpool_576.txt	LTP359	ltpFR2	0	4	TART	1436	n/a	n/a	0	0	0
815908	REC_WORD	wordpools/wasnorm_wordpool_576.txt	LTP359	ltpFR2	0	4	HUSBAND	728	n/a	n/a	0	0	0
817175	REC_WORD	wordpools/wasnorm_wordpool_576.txt	LTP359	ltpFR2	0	4	GIRL	637	n/a	n/a	0	0	0
819093	REC_WORD	wordpools/wasnorm_wordpool_576.txt	LTP359	ltpFR2	0	4	PARENT	1013	n/a	n/a	0	0	0
820098	REC_WORD	wordpools/wasnorm_wordpool_576.txt	LTP359	ltpFR2	0	4	PORK	1108	n/a	n/a	0	0	0
821335	REC_WORD	wordpools/wasnorm_wordpool_576.txt	LTP359	ltpFR2	0	4	GRILL	661	n/a	n/a	0	0	0
841929	REC_WORD	wordpools/wasnorm_wordpool_576.txt	LTP359	ltpFR2	0	4	SPHINX	1349	n/a	n/a	0	0	0
843766	REC_WORD	wordpools/wasnorm_wordpool_576.txt	LTP359	ltpFR2	0	4	EGYPT	519	n/a	n/a	0	0	0
847440	REC_WORD	wordpools/wasnorm_wordpool_576.txt	LTP359	ltpFR2	0	4	TEMPLE	1448	n/a	n/a	0	0	0
859666	REC_WORD	wordpools/wasnorm_wordpool_576.txt	LTP359	ltpFR2	0	4	GRAVEL	659	n/a	n/a	0	0	0
869738	REC_WORD	wordpools/wasnorm_wordpool_576.txt	LTP359	ltpFR2	0	4	RATTLE	1170	n/a	n/a	0	0	0
897128	DISTRACTOR	n/a	LTP359	ltpFR2	0	5	n/a	n/a	n/a	n/a	0	0	0
897128	START	n/a	LTP359	ltpFR2	0	n/a	n/a	n/a	7	n/a	n/a	n/a	n/a
897144	PROB	n/a	LTP359	ltpFR2	0	n/a	n/a	n/a	7	18	7	4	7
899659	PROB	n/a	LTP359	ltpFR2	0	n/a	n/a	n/a	7	11	3	7	1
901126	PROB	n/a	LTP359	ltpFR2	0	n/a	n/a	n/a	7	20	7	9	4
903608	PROB	n/a	LTP359	ltpFR2	0	n/a	n/a	n/a	7	18	7	4	7
905607	PROB	n/a	LTP359	ltpFR2	0	n/a	n/a	n/a	7	21	4	9	8
909622	PROB	n/a	LTP359	ltpFR2	0	n/a	n/a	n/a	7	15	4	6	5
912686	PROB	n/a	LTP359	ltpFR2	0	n/a	n/a	n/a	7	11	4	4	3
915020	PROB	n/a	LTP359	ltpFR2	0	n/a	n/a	n/a	7	11	5	3	3
917285	PROB	n/a	LTP359	ltpFR2	0	n/a	n/a	n/a	7	14	5	7	2
918934	PROB	n/a	LTP359	ltpFR2	0	n/a	n/a	n/a	7	8	1	2	5
920337	STOP	n/a	LTP359	ltpFR2	0	n/a	n/a	n/a	7	n/a	n/a	n/a	n/a
922349	WORD	wordpools/wasnorm_wordpool_576.txt	LTP359	ltpFR2	0	5	CELLAR	267	n/a	n/a	0	0	0
924982	WORD	wordpools/wasnorm_wordpool_576.txt	LTP359	ltpFR2	0	5	SURVEY	1414	n/a	n/a	0	0	0
927646	WORD	wordpools/wasnorm_wordpool_576.txt	LTP359	ltpFR2	0	5	ZIPPER	1636	n/a	n/a	0	0	0
930146	WORD	wordpools/wasnorm_wordpool_576.txt	LTP359	ltpFR2	0	5	SHIRT	1287	n/a	n/a	0	0	0
932945	WORD	wordpools/wasnorm_wordpool_576.txt	LTP359	ltpFR2	0	5	BOYFRIEND	162	n/a	n/a	0	0	0
935394	WORD	wordpools/wasnorm_wordpool_576.txt	LTP359	ltpFR2	0	5	CROWN	415	n/a	n/a	0	0	0
938092	WORD	wordpools/wasnorm_wordpool_576.txt	LTP359	ltpFR2	0	5	REPORT	1184	n/a	n/a	0	0	0
940690	WORD	wordpools/wasnorm_wordpool_576.txt	LTP359	ltpFR2	0	5	TUNNEL	1519	n/a	n/a	0	0	0
943323	WORD	wordpools/wasnorm_wordpool_576.txt	LTP359	ltpFR2	0	5	SUBWAY	1400	n/a	n/a	0	0	0
945755	WORD	wordpools/wasnorm_wordpool_576.txt	LTP359	ltpFR2	0	5	PENGUIN	1044	n/a	n/a	0	0	0
948554	WORD	wordpools/wasnorm_wordpool_576.txt	LTP359	ltpFR2	0	5	STOMACH	1384	n/a	n/a	0	0	0
951137	WORD	wordpools/wasnorm_wordpool_576.txt	LTP359	ltpFR2	0	5	ARM	38	n/a	n/a	0	0	0
953818	WORD	wordpools/wasnorm_wordpool_576.txt	LTP359	ltpFR2	0	5	RIVER	1194	n/a	n/a	0	0	0
956518	WORD	wordpools/wasnorm_wordpool_576.txt	LTP359	ltpFR2	0	5	ROD	1203	n/a	n/a	0	0	0
959316	WORD	wordpools/wasnorm_wordpool_576.txt	LTP359	ltpFR2	0	5	THRONE	1461	n/a	n/a	0	0	0
961948	WORD	wordpools/wasnorm_wordpool_576.txt	LTP359	ltpFR2	0	5	SKIRT	1319	n/a	n/a	0	0	0
964679	WORD	wordpools/wasnorm_wordpool_576.txt	LTP359	ltpFR2	0	5	PLAID	1080	n/a	n/a	0	0	0
967279	WORD	wordpools/wasnorm_wordpool_576.txt	LTP359	ltpFR2	0	5	BEAST	108	n/a	n/a	0	0	0
970095	WORD	wordpools/wasnorm_wordpool_576.txt	LTP359	ltpFR2	0	5	HUMAN	726	n/a	n/a	0	0	0
972560	WORD	wordpools/wasnorm_wordpool_576.txt	LTP359	ltpFR2	0	5	TUTU	1524	n/a	n/a	0	0	0
975226	WORD	wordpools/wasnorm_wordpool_576.txt	LTP359	ltpFR2	0	5	WORLD	1622	n/a	n/a	0	0	0
977890	WORD	wordpools/wasnorm_wordpool_576.txt	LTP359	ltpFR2	0	5	PERCH	1048	n/a	n/a	0	0	0
980373	WORD	wordpools/wasnorm_wordpool_576.txt	LTP359	ltpFR2	0	5	FRIEND	606	n/a	n/a	0	0	0
983022	WORD	wordpools/wasnorm_wordpool_576.txt	LTP359	ltpFR2	0	5	CREVICE	405	n/a	n/a	0	0	0
984637	START	n/a	LTP359	ltpFR2	0	n/a	n/a	n/a	8	n/a	n/a	n/a	n/a
985584	DISTRACTOR	n/a	LTP359	ltpFR2	0	5	n/a	n/a	n/a	n/a	0	0	0
985588	PROB	n/a	LTP359	ltpFR2	0	n/a	n/a	n/a	8	19	9	5	5
988136	PROB	n/a	LTP359	ltpFR2	0	n/a	n/a	n/a	8	16	2	8	6
990285	PROB	n/a	LTP359	ltpFR2	0	n/a	n/a	n/a	8	14	3	9	2
992385	PROB	n/a	LTP359	ltpFR2	0	n/a	n/a	n/a	8	13	2	4	7
994732	PROB	n/a	LTP359	ltpFR2	0	n/a	n/a	n/a	8	8	3	2	3
996333	PROB	n/a	LTP359	ltpFR2	0	n/a	n/a	n/a	8	6	4	1	1
997781	PROB	n/a	LTP359	ltpFR2	0	n/a	n/a	n/a	8	14	7	6	1
999465	PROB	n/a	LTP359	ltpFR2	0	n/a	n/a	n/a	8	8	2	4	2
1001064	PROB	n/a	LTP359	ltpFR2	0	n/a	n/a	n/a	8	13	2	6	5
1002895	PROB	n/a	LTP359	ltpFR2	0	n/a	n/a	n/a	8	12	2	2	8
1004362	PROB	n/a	LTP359	ltpFR2	0	n/a	n/a	n/a	8	20	7	9	4
1006777	PROB	n/a	LTP359	ltpFR2	0	n/a	n/a	n/a	8	15	8	6	1
1008515	STOP	n/a	LTP359	ltpFR2	0	n/a	n/a	n/a	8	n/a	n/a	n/a	n/a
1010593	REC_START	n/a	LTP359	ltpFR2	0	5	n/a	n/a	n/a	n/a	0	0	0
1013586	REC_WORD	wordpools/wasnorm_wordpool_576.txt	LTP359	ltpFR2	0	5	SHIRT	1287	n/a	n/a	0	0	0
1014874	REC_WORD	wordpools/wasnorm_wordpool_576.txt	LTP359	ltpFR2	0	5	PLAID	1080	n/a	n/a	0	0	0
1016401	REC_WORD	wordpools/wasnorm_wordpool_576.txt	LTP359	ltpFR2	0	5	BOYFRIEND	162	n/a	n/a	0	0	0
1027290	REC_WORD	wordpools/wasnorm_wordpool_576.txt	LTP359	ltpFR2	0	5	CREVICE	405	n/a	n/a	0	0	0
1028981	REC_WORD	wordpools/wasnorm_wordpool_576.txt	LTP359	ltpFR2	0	5	FRIEND	606	n/a	n/a	0	0	0
1030921	REC_WORD	wordpools/wasnorm_wordpool_576.txt	LTP359	ltpFR2	0	5	STOMACH	1384	n/a	n/a	0	0	0
1032315	REC_WORD	wordpools/wasnorm_wordpool_576.txt	LTP359	ltpFR2	0	5	ARM	38	n/a	n/a	0	0	0
1034177	REC_WORD	wordpools/wasnorm_wordpool_576.txt	LTP359	ltpFR2	0	5	ROD	1203	n/a	n/a	0	0	0
1035288	REC_WORD	wordpools/wasnorm_wordpool_576.txt	LTP359	ltpFR2	0	5	RIVER	1194	n/a	n/a	0	0	0
1037421	REC_WORD	wordpools/wasnorm_wordpool_576.txt	LTP359	ltpFR2	0	5	THRONE	1461	n/a	n/a	0	0	0
1039220	REC_WORD	wordpools/wasnorm_wordpool_576.txt	LTP359	ltpFR2	0	5	CROWN	415	n/a	n/a	0	0	0
1046918	REC_WORD	wordpools/wasnorm_wordpool_576.txt	LTP359	ltpFR2	0	5	SKIRT	1319	n/a	n/a	0	0	0
1059622	REC_WORD	wordpools/wasnorm_wordpool_576.txt	LTP359	ltpFR2	0	5	BEAST	108	n/a	n/a	0	0	0
1062520	REC_WORD	wordpools/wasnorm_wordpool_576.txt	LTP359	ltpFR2	0	5	TUTU	1524	n/a	n/a	0	0	0
1101052	WORD	wordpools/wasnorm_wordpool_576.txt	LTP359	ltpFR2	0	6	LEADER	807	n/a	n/a	0	0	0
1103568	WORD	wordpools/wasnorm_wordpool_576.txt	LTP359	ltpFR2	0	6	WORKER	1621	n/a	n/a	0	0	0
1106200	WORD	wordpools/wasnorm_wordpool_576.txt	LTP359	ltpFR2	0	6	COBRA	336	n/a	n/a	0	0	0
1108664	WORD	wordpools/wasnorm_wordpool_576.txt	LTP359	ltpFR2	0	6	COIN	343	n/a	n/a	0	0	0
1111281	WORD	wordpools/wasnorm_wordpool_576.txt	LTP359	ltpFR2	0	6	TROMBONE	1508	n/a	n/a	0	0	0
1113729	WORD	wordpools/wasnorm_wordpool_576.txt	LTP359	ltpFR2	0	6	CONCERT	360	n/a	n/a	0	0	0
1116262	WORD	wordpools/wasnorm_wordpool_576.txt	LTP359	ltpFR2	0	6	ATLAS	53	n/a	n/a	0	0	0
1119011	WORD	wordpools/wasnorm_wordpool_576.txt	LTP359	ltpFR2	0	6	WASP	1593	n/a	n/a	0	0	0
1121509	WORD	wordpools/wasnorm_wordpool_576.txt	LTP359	ltpFR2	0	6	LETTUCE	814	n/a	n/a	0	0	0
1124275	WORD	wordpools/wasnorm_wordpool_576.txt	LTP359	ltpFR2	0	6	NECKLACE	940	n/a	n/a	0	0	0
1127074	WORD	wordpools/wasnorm_wordpool_576.txt	LTP359	ltpFR2	0	6	PEANUT	1032	n/a	n/a	0	0	0
1129705	WORD	wordpools/wasnorm_wordpool_576.txt	LTP359	ltpFR2	0	6	MUFFIN	929	n/a	n/a	0	0	0
1132271	WORD	wordpools/wasnorm_wordpool_576.txt	LTP359	ltpFR2	0	6	ROBIN	1199	n/a	n/a	0	0	0
1135087	WORD	wordpools/wasnorm_wordpool_576.txt	LTP359	ltpFR2	0	6	GARLIC	624	n/a	n/a	0	0	0
1137569	WORD	wordpools/wasnorm_wordpool_576.txt	LTP359	ltpFR2	0	6	LIPSTICK	829	n/a	n/a	0	0	0
1140068	WORD	wordpools/wasnorm_wordpool_576.txt	LTP359	ltpFR2	0	6	WHISKERS	1605	n/a	n/a	0	0	0
1142715	WORD	wordpools/wasnorm_wordpool_576.txt	LTP359	ltpFR2	0	6	BARLEY	88	n/a	n/a	0	0	0
1145349	WORD	wordpools/wasnorm_wordpool_576.txt	LTP359	ltpFR2	0	6	JEANS	752	n/a	n/a	0	0	0
1147997	WORD	wordpools/wasnorm_wordpool_576.txt	LTP359	ltpFR2	0	6	THIEF	1456	n/a	n/a	0	0	0
1150662	WORD	wordpools/wasnorm_wordpool_576.txt	LTP359	ltpFR2	0	6	LOFT	840	n/a	n/a	0	0	0
1153478	WORD	wordpools/wasnorm_wordpool_576.txt	LTP359	ltpFR2	0	6	RECEIPT	1173	n/a	n/a	0	0	0
1155961	WORD	wordpools/wasnorm_wordpool_576.txt	LTP359	ltpFR2	0	6	HATCHET	691	n/a	n/a	0	0	0
1158409	WORD	wordpools/wasnorm_wordpool_576.txt	LTP359	ltpFR2	0	6	KEEPER	769	n/a	n/a	0	0	0
1161125	WORD	wordpools/wasnorm_wordpool_576.txt	LTP359	ltpFR2	0	6	ROBBER	1197	n/a	n/a	0	0	0
1162740	START	n/a	LTP359	ltpFR2	0	n/a	n/a	n/a	9	n/a	n/a	n/a	n/a
1163796	DISTRACTOR	n/a	LTP359	ltpFR2	0	6	n/a	n/a	n/a	n/a	0	0	0
1163806	PROB	n/a	LTP359	ltpFR2	0	n/a	n/a	n/a	9	21	8	8	5
1165788	PROB	n/a	LTP359	ltpFR2	0	n/a	n/a	n/a	9	13	5	5	3
1167139	PROB	n/a	LTP359	ltpFR2	0	n/a	n/a	n/a	9	13	4	3	6
1170686	PROB	n/a	LTP359	ltpFR2	0	n/a	n/a	n/a	9	5	1	1	3
1171987	PROB	n/a	LTP359	ltpFR2	0	n/a	n/a	n/a	9	4	2	1	1
1173353	PROB	n/a	LTP359	ltpFR2	0	n/a	n/a	n/a	9	17	3	9	5
1175468	PROB	n/a	LTP359	ltpFR2	0	n/a	n/a	n/a	9	6	2	1	3
1177268	PROB	n/a	LTP359	ltpFR2	0	n/a	n/a	n/a	9	13	1	3	9
1179417	PROB	n/a	LTP359	ltpFR2	0	n/a	n/a	n/a	9	19	4	7	8
1182382	PROB	n/a	LTP359	ltpFR2	0	n/a	n/a	n/a	9	18	7	2	9
1184863	PROB	n/a	LTP359	ltpFR2	0	n/a	n/a	n/a	9	11	6	4	1
1186185	STOP	n/a	LTP359	ltpFR2	0	n/a	n/a	n/a	9	n/a	n/a	n/a	n/a
1188530	REC_START	n/a	LTP359	ltpFR2	0	6	n/a	n/a	n/a	n/a	0	0	0
1189465	REC_WORD	wordpools/wasnorm_wordpool_576.txt	LTP359	ltpFR2	0	6	THIEF	1456	n/a	n/a	0	0	0
1190541	REC_WORD	wordpools/wasnorm_wordpool_576.txt	LTP359	ltpFR2	0	6	ROBBER	1197	n/a	n/a	0	0	0
1191547	REC_WORD	wordpools/wasnorm_wordpool_576.txt	LTP359	ltpFR2	0	6	JEANS	752	n/a	n/a	0	0	0
1193259	REC_WORD	wordpools/wasnorm_wordpool_576.txt	LTP359	ltpFR2	0	6	LOFT	840	n/a	n/a	0	0	0
1194151	REC_WORD	wordpools/wasnorm_wordpool_576.txt	LTP359	ltpFR2	0	6	RECEIPT	1173	n/a	n/a	0	0	0
1196400	REC_WORD	wordpools/wasnorm_wordpool_576.txt	LTP359	ltpFR2	0	6	ATLAS	53	n/a	n/a	0	0	0
1200458	REC_WORD	wordpools/wasnorm_wordpool_576.txt	LTP359	ltpFR2	0	6	COIN	343	n/a	n/a	0	0	0
1202067	REC_WORD	wordpools/wasnorm_wordpool_576.txt	LTP359	ltpFR2	0	6	COBRA	336	n/a	n/a	0	0	0
1203866	REC_WORD	wordpools/wasnorm_wordpool_576.txt	LTP359	ltpFR2	0	6	LIPSTICK	829	n/a	n/a	0	0	0
1237324	REC_WORD	wordpools/wasnorm_wordpool_576.txt	LTP359	ltpFR2	0	6	HATCHET	691	n/a	n/a	0	0	0
1262350	REC_WORD	wordpools/wasnorm_wordpool_576.txt	LTP359	ltpFR2	0	6	COIN	343	n/a	n/a	0	0	0
1278988	WORD	wordpools/wasnorm_wordpool_576.txt	LTP359	ltpFR2	0	7	TYPIST	1532	n/a	n/a	0	0	0
1281719	WORD	wordpools/wasnorm_wordpool_576.txt	LTP359	ltpFR2	0	7	WIFE	1609	n/a	n/a	0	0	0
1284519	WORD	wordpools/wasnorm_wordpool_576.txt	LTP359	ltpFR2	0	7	SHELF	1280	n/a	n/a	0	0	0
1287334	WORD	wordpools/wasnorm_wordpool_576.txt	LTP359	ltpFR2	0	7	DENIM	446	n/a	n/a	0	0	0
1289866	WORD	wordpools/wasnorm_wordpool_576.txt	LTP359	ltpFR2	0	7	MAMMAL	861	n/a	n/a	0	0	0
1292432	WORD	wordpools/wasnorm_wordpool_576.txt	LTP359	ltpFR2	0	7	FOREHEAD	592	n/a	n/a	0	0	0
1295214	WORD	wordpools/wasnorm_wordpool_576.txt	LTP359	ltpFR2	0	7	BRAKE	166	n/a	n/a	0	0	0
1297829	WORD	wordpools/wasnorm_wordpool_576.txt	LTP359	ltpFR2	0	7	MESSAGE	888	n/a	n/a	0	0	0
1300612	WORD	wordpools/wasnorm_wordpool_576.txt	LTP359	ltpFR2	0	7	SPOUSE	1358	n/a	n/a	0	0	0
1303244	WORD	wordpools/wasnorm_wordpool_576.txt	LTP359	ltpFR2	0	7	CONTRACT	368	n/a	n/a	0	0	0
1305758	WORD	wordpools/wasnorm_wordpool_576.txt	LTP359	ltpFR2	0	7	TRIBE	1505	n/a	n/a	0	0	0
1308192	WORD	wordpools/wasnorm_wordpool_576.txt	LTP359	ltpFR2	0	7	MISSILE	900	n/a	n/a	0	0	0
1310957	WORD	wordpools/wasnorm_wordpool_576.txt	LTP359	ltpFR2	0	7	DOUGHNUT	490	n/a	n/a	0	0	0
1313423	WORD	wordpools/wasnorm_wordpool_576.txt	LTP359	ltpFR2	0	7	DRESS	495	n/a	n/a	0	0	0
1316038	WORD	wordpools/wasnorm_wordpool_576.txt	LTP359	ltpFR2	0	7	HAMPER	682	n/a	n/a	0	0	0
1318636	WORD	wordpools/wasnorm_wordpool_576.txt	LTP359	ltpFR2	0	7	BUCKET	184	n/a	n/a	0	0	0
1321136	WORD	wordpools/wasnorm_wordpool_576.txt	LTP359	ltpFR2	0	7	BROOK	177	n/a	n/a	0	0	0
1323784	WORD	wordpools/wasnorm_wordpool_576.txt	LTP359	ltpFR2	0	7	KIDNEY	776	n/a	n/a	0	0	0
1326383	WORD	wordpools/wasnorm_wordpool_576.txt	LTP359	ltpFR2	0	7	BODY	145	n/a	n/a	0	0	0
1329149	WORD	wordpools/wasnorm_wordpool_576.txt	LTP359	ltpFR2	0	7	MARROW	872	n/a	n/a	0	0	0
1331598	WORD	wordpools/wasnorm_wordpool_576.txt	LTP359	ltpFR2	0	7	ROCKET	1202	n/a	n/a	0	0	0
1334147	WORD	wordpools/wasnorm_wordpool_576.txt	LTP359	ltpFR2	0	7	CRICKET	408	n/a	n/a	0	0	0
1336928	WORD	wordpools/wasnorm_wordpool_576.txt	LTP359	ltpFR2	0	7	PASTA	1021	n/a	n/a	0	0	0
1339461	WORD	wordpools/wasnorm_wordpool_576.txt	LTP359	ltpFR2	0	7	PAPER	1011	n/a	n/a	0	0	0
1341077	START	n/a	LTP359	ltpFR2	0	n/a	n/a	n/a	10	n/a	n/a	n/a	n/a
1342144	DISTRACTOR	n/a	LTP359	ltpFR2	0	7	n/a	n/a	n/a	n/a	0	0	0
1342160	PROB	n/a	LTP359	ltpFR2	0	n/a	n/a	n/a	10	19	2	9	8
1344941	PROB	n/a	LTP359	ltpFR2	0	n/a	n/a	n/a	10	12	1	5	6
1346491	PROB	n/a	LTP359	ltpFR2	0	n/a	n/a	n/a	10	9	2	1	6
1347756	PROB	n/a	LTP359	ltpFR2	0	n/a	n/a	n/a	10	17	9	6	2
1351339	PROB	n/a	LTP359	ltpFR2	0	n/a	n/a	n/a	10	16	2	7	7
1352904	PROB	n/a	LTP359	ltpFR2	0	n/a	n/a	n/a	10	15	2	8	5
1356370	PROB	n/a	LTP359	ltpFR2	0	n/a	n/a	n/a	10	8	2	1	5
1358718	PROB	n/a	LTP359	ltpFR2	0	n/a	n/a	n/a	10	17	4	7	6
1361534	PROB	n/a	LTP359	ltpFR2	0	n/a	n/a	n/a	10	10	4	2	4
1365077	STOP	n/a	LTP359	ltpFR2	0	n/a	n/a	n/a	10	n/a	n/a	n/a	n/a
1366949	REC_START	n/a	LTP359	ltpFR2	0	7	n/a	n/a	n/a	n/a	0	0	0
1368481	REC_WORD	wordpools/wasnorm_wordpool_576.txt	LTP359	ltpFR2	0	7	CRICKET	408	n/a	n/a	0	0	0
1373366	REC_WORD	wordpools/wasnorm_wordpool_576.txt	LTP359	ltpFR2	0	7	TYPIST	1532	n/a	n/a	0	0	0
1374277	REC_WORD	wordpools/wasnorm_wordpool_576.txt	LTP359	ltpFR2	0	7	WIFE	1609	n/a	n/a	0	0	0
1375984	REC_WORD	wordpools/wasnorm_wordpool_576.txt	LTP359	ltpFR2	0	7	BRAKE	166	n/a	n/a	0	0	0
1376949	REC_WORD	wordpools/wasnorm_wordpool_576.txt	LTP359	ltpFR2	0	7	HAMPER	682	n/a	n/a	0	0	0
1379012	REC_WORD	wordpools/wasnorm_wordpool_576.txt	LTP359	ltpFR2	0	7	BODY	145	n/a	n/a	0	0	0
1379773	REC_WORD	wordpools/wasnorm_wordpool_576.txt	LTP359	ltpFR2	0	7	KIDNEY	776	n/a	n/a	0	0	0
1382485	REC_WORD	wordpools/wasnorm_wordpool_576.txt	LTP359	ltpFR2	0	7	DRESS	495	n/a	n/a	0	0	0
1383894	REC_WORD	wordpools/wasnorm_wordpool_576.txt	LTP359	ltpFR2	0	7	DOUGHNUT	490	n/a	n/a	0	0	0
1385190	REC_WORD	wordpools/wasnorm_wordpool_576.txt	LTP359	ltpFR2	0	7	MARROW	872	n/a	n/a	0	0	0
1386974	REC_WORD	wordpools/wasnorm_wordpool_576.txt	LTP359	ltpFR2	0	7	BROOK	177	n/a	n/a	0	0	0
1388296	REC_WORD	wordpools/wasnorm_wordpool_576.txt	LTP359	ltpFR2	0	7	BUCKET	184	n/a	n/a	0	0	0
1390330	REC_WORD	wordpools/wasnorm_wordpool_576.txt	LTP359	ltpFR2	0	7	ROCKET	1202	n/a	n/a	0	0	0
1391239	REC_WORD	wordpools/wasnorm_wordpool_576.txt	LTP359	ltpFR2	0	7	MISSILE	900	n/a	n/a	0	0	0
1457374	DISTRACTOR	n/a	LTP359	ltpFR2	0	8	n/a	n/a	n/a	n/a	0	0	0
1457374	START	n/a	LTP359	ltpFR2	0	n/a	n/a	n/a	11	n/a	n/a	n/a	n/a
1457391	PROB	n/a	LTP359	ltpFR2	0	n/a	n/a	n/a	11	11	2	2	7
1459922	PROB	n/a	LTP359	ltpFR2	0	n/a	n/a	n/a	11	16	2	8	6
1461406	PROB	n/a	LTP359	ltpFR2	0	n/a	n/a	n/a	11	16	6	8	2
1463754	PROB	n/a	LTP359	ltpFR2	0	n/a	n/a	n/a	11	24	9	6	9
1466353	PROB	n/a	LTP359	ltpFR2	0	n/a	n/a	n/a	11	11	7	2	2
1467953	PROB	n/a	LTP359	ltpFR2	0	n/a	n/a	n/a	11	14	4	9	3
1472317	PROB	n/a	LTP359	ltpFR2	0	n/a	n/a	n/a	11	16	4	3	9
1475216	PROB	n/a	LTP359	ltpFR2	0	n/a	n/a	n/a	11	18	8	7	3
1478581	PROB	n/a	LTP359	ltpFR2	0	n/a	n/a	n/a	11	19	9	8	2
1481194	STOP	n/a	LTP359	ltpFR2	0	n/a	n/a	n/a	11	n/a	n/a	n/a	n/a
1482279	WORD	wordpools/wasnorm_wordpool_576.txt	LTP359	ltpFR2	0	8	KLEENEX	782	n/a	n/a	0	0	0
1484861	WORD	wordpools/wasnorm_wordpool_576.txt	LTP359	ltpFR2	0	8	HANDBAG	684	n/a	n/a	0	0	0
1487444	WORD	wordpools/wasnorm_wordpool_576.txt	LTP359	ltpFR2	0	8	TUBA	1515	n/a	n/a	0	0	0
1490259	WORD	wordpools/wasnorm_wordpool_576.txt	LTP359	ltpFR2	0	8	DIVER	476	n/a	n/a	0	0	0
1492857	WORD	wordpools/wasnorm_wordpool_576.txt	LTP359	ltpFR2	0	8	SALAD	1224	n/a	n/a	0	0	0
1495574	WORD	wordpools/wasnorm_wordpool_576.txt	LTP359	ltpFR2	0	8	ICING	732	n/a	n/a	0	0	0
1498089	WORD	wordpools/wasnorm_wordpool_576.txt	LTP359	ltpFR2	0	8	COOKBOOK	373	n/a	n/a	0	0	0
1500538	WORD	wordpools/wasnorm_wordpool_576.txt	LTP359	ltpFR2	0	8	PARSLEY	1016	n/a	n/a	0	0	0
1503303	WORD	wordpools/wasnorm_wordpool_576.txt	LTP359	ltpFR2	0	8	HEDGE	699	n/a	n/a	0	0	0
1505884	WORD	wordpools/wasnorm_wordpool_576.txt	LTP359	ltpFR2	0	8	STALLION	1369	n/a	n/a	0	0	0
1508434	WORD	wordpools/wasnorm_wordpool_576.txt	LTP359	ltpFR2	0	8	CHIPMUNK	304	n/a	n/a	0	0	0
1511050	WORD	wordpools/wasnorm_wordpool_576.txt	LTP359	ltpFR2	0	8	POSSUM	1112	n/a	n/a	0	0	0
1513864	WORD	wordpools/wasnorm_wordpool_576.txt	LTP359	ltpFR2	0	8	IGLOO	734	n/a	n/a	0	0	0
1516431	WORD	wordpools/wasnorm_wordpool_576.txt	LTP359	ltpFR2	0	8	MAILBOX	857	n/a	n/a	0	0	0
1519230	WORD	wordpools/wasnorm_wordpool_576.txt	LTP359	ltpFR2	0	8	PACKAGE	997	n/a	n/a	0	0	0
1521811	WORD	wordpools/wasnorm_wordpool_576.txt	LTP359	ltpFR2	0	8	COURSE	390	n/a	n/a	0	0	0
1524610	WORD	wordpools/wasnorm_wordpool_576.txt	LTP359	ltpFR2	0	8	AWARD	63	n/a	n/a	0	0	0
1527193	WORD	wordpools/wasnorm_wordpool_576.txt	LTP359	ltpFR2	0	8	WHISTLE	1606	n/a	n/a	0	0	0
1529890	WORD	wordpools/wasnorm_wordpool_576.txt	LTP359	ltpFR2	0	8	MAPLE	866	n/a	n/a	0	0	0
1532423	WORD	wordpools/wasnorm_wordpool_576.txt	LTP359	ltpFR2	0	8	DINER	467	n/a	n/a	0	0	0
1535206	WORD	wordpools/wasnorm_wordpool_576.txt	LTP359	ltpFR2	0	8	SHELTER	1282	n/a	n/a	0	0	0
1537937	WORD	wordpools/wasnorm_wordpool_576.txt	LTP359	ltpFR2	0	8	STUDENT	1395	n/a	n/a	0	0	0
1540503	WORD	wordpools/wasnorm_wordpool_576.txt	LTP359	ltpFR2	0	8	RADISH	1158	n/a	n/a	0	0	0
1543002	WORD	wordpools/wasnorm_wordpool_576.txt	LTP359	ltpFR2	0	8	SLUG	1329	n/a	n/a	0	0	0
1544618	START	n/a	LTP359	ltpFR2	0	n/a	n/a	n/a	12	n/a	n/a	n/a	n/a
1545491	DISTRACTOR	n/a	LTP359	ltpFR2	0	8	n/a	n/a	n/a	n/a	0	0	0
1545501	PROB	n/a	LTP359	ltpFR2	0	n/a	n/a	n/a	12	22	9	4	9
1548066	PROB	n/a	LTP359	ltpFR2	0	n/a	n/a	n/a	12	14	4	9	1
1549898	PROB	n/a	LTP359	ltpFR2	0	n/a	n/a	n/a	12	6	1	2	3
1552431	PROB	n/a	LTP359	ltpFR2	0	n/a	n/a	n/a	12	18	5	4	9
1554380	PROB	n/a	LTP359	ltpFR2	0	n/a	n/a	n/a	12	13	2	5	6
1556878	PROB	n/a	LTP359	ltpFR2	0	n/a	n/a	n/a	12	13	1	6	6
1559195	PROB	n/a	LTP359	ltpFR2	0	n/a	n/a	n/a	12	8	5	1	2
1560810	PROB	n/a	LTP359	ltpFR2	0	n/a	n/a	n/a	12	20	9	5	6
1562825	PROB	n/a	LTP359	ltpFR2	0	n/a	n/a	n/a	12	14	1	4	9
1564924	PROB	n/a	LTP359	ltpFR2	0	n/a	n/a	n/a	12	20	3	9	8
1567301	STOP	n/a	LTP359	ltpFR2	0	n/a	n/a	n/a	12	n/a	n/a	n/a	n/a
1570440	REC_START	n/a	LTP359	ltpFR2	0	8	n/a	n/a	n/a	n/a	0	0	0
1571587	REC_WORD	wordpools/wasnorm_wordpool_576.txt	LTP359	ltpFR2	0	8	SLUG	1329	n/a	n/a	0	0	0
1572768	REC_WORD	wordpools/wasnorm_wordpool_576.txt	LTP359	ltpFR2	0	8	HEDGE	699	n/a	n/a	0	0	0
1579365	REC_WORD	wordpools/wasnorm_wordpool_576.txt	LTP359	ltpFR2	0	8	PARSLEY	1016	n/a	n/a	0	0	0
1580807	REC_WORD	wordpools/wasnorm_wordpool_576.txt	LTP359	ltpFR2	0	8	ICING	732	n/a	n/a	0	0	0
1582121	REC_WORD	wordpools/wasnorm_wordpool_576.txt	LTP359	ltpFR2	0	8	COOKBOOK	373	n/a	n/a	0	0	0
1587525	REC_WORD	wordpools/wasnorm_wordpool_576.txt	LTP359	ltpFR2	0	8	MAILBOX	857	n/a	n/a	0	0	0
1588607	REC_WORD	wordpools/wasnorm_wordpool_576.txt	LTP359	ltpFR2	0	8	IGLOO	734	n/a	n/a	0	0	0
1589600	REC_WORD	wordpools/wasnorm_wordpool_576.txt	LTP359	ltpFR2	0	8	PACKAGE	997	n/a	n/a	0	0	0
1595373	REC_WORD	wordpools/wasnorm_wordpool_576.txt	LTP359	ltpFR2	0	8	HORSE	719	n/a	n/a	0	0	0
1619828	REC_WORD	wordpools/wasnorm_wordpool_576.txt	LTP359	ltpFR2	0	8	STALLION	1369	n/a	n/a	0	0	0
1626196	REC_WORD	wordpools/wasnorm_wordpool_576.txt	LTP359	ltpFR2	0	8	MAPLE	866	n/a	n/a	0	0	0
1628384	REC_WORD	wordpools/wasnorm_wordpool_576.txt	LTP359	ltpFR2	0	8	KLEENEX	782	n/a	n/a	0	0	0
1646972	REST_REWET	n/a	LTP359	ltpFR2	0	8	n/a	n/a	n/a	n/a	0	0	0
1788108	DISTRACTOR	n/a	LTP359	ltpFR2	0	9	n/a	n/a	n/a	n/a	0	0	0
1788108	START	n/a	LTP359	ltpFR2	0	n/a	n/a	n/a	13	n/a	n/a	n/a	n/a
1788124	PROB	n/a	LTP359	ltpFR2	0	n/a	n/a	n/a	13	15	8	2	5
1789990	PROB	n/a	LTP359	ltpFR2	0	n/a	n/a	n/a	13	17	8	1	8
1791556	PROB	n/a	LTP359	ltpFR2	0	n/a	n/a	n/a	13	26	9	7	9
1795770	PROB	n/a	LTP359	ltpFR2	0	n/a	n/a	n/a	13	11	1	5	5
1799685	PROB	n/a	LTP359	ltpFR2	0	n/a	n/a	n/a	13	21	4	8	9
1801801	PROB	n/a	LTP359	ltpFR2	0	n/a	n/a	n/a	13	16	8	1	7
1803766	PROB	n/a	LTP359	ltpFR2	0	n/a	n/a	n/a	13	18	9	6	3
1807116	PROB	n/a	LTP359	ltpFR2	0	n/a	n/a	n/a	13	14	3	8	3
1812107	STOP	n/a	LTP359	ltpFR2	0	n/a	n/a	n/a	13	n/a	n/a	n/a	n/a
1813063	WORD	wordpools/wasnorm_wordpool_576.txt	LTP359	ltpFR2	0	9	RABBIT	1152	n/a	n/a	0	0	0
1815512	WORD	wordpools/wasnorm_wordpool_576.txt	LTP359	ltpFR2	0	9	CARROT	249	n/a	n/a	0	0	0
1818078	WORD	wordpools/wasnorm_wordpool_576.txt	LTP359	ltpFR2	0	9	SISTER	1312	n/a	n/a	0	0	0
1820526	WORD	wordpools/wasnorm_wordpool_576.txt	LTP359	ltpFR2	0	9	ROBOT	1200	n/a	n/a	0	0	0
1823192	WORD	wordpools/wasnorm_wordpool_576.txt	LTP359	ltpFR2	0	9	HEART	697	n/a	n/a	0	0	0
1825957	WORD	wordpools/wasnorm_wordpool_576.txt	LTP359	ltpFR2	0	9	LIVER	833	n/a	n/a	0	0	0
1828738	WORD	wordpools/wasnorm_wordpool_576.txt	LTP359	ltpFR2	0	9	GARBAGE	622	n/a	n/a	0	0	0
1831455	WORD	wordpools/wasnorm_wordpool_576.txt	LTP359	ltpFR2	0	9	EUROPE	541	n/a	n/a	0	0	0
1833919	WORD	wordpools/wasnorm_wordpool_576.txt	LTP359	ltpFR2	0	9	SHORTCAKE	1292	n/a	n/a	0	0	0
1836536	WORD	wordpools/wasnorm_wordpool_576.txt	LTP359	ltpFR2	0	9	LACE	792	n/a	n/a	0	0	0
1839268	WORD	wordpools/wasnorm_wordpool_576.txt	LTP359	ltpFR2	0	9	POET	1095	n/a	n/a	0	0	0
1841950	WORD	wordpools/wasnorm_wordpool_576.txt	LTP359	ltpFR2	0	9	AIRPLANE	12	n/a	n/a	0	0	0
1844432	WORD	wordpools/wasnorm_wordpool_576.txt	LTP359	ltpFR2	0	9	OMELET	976	n/a	n/a	0	0	0
1847181	WORD	wordpools/wasnorm_wordpool_576.txt	LTP359	ltpFR2	0	9	MACHINE	852	n/a	n/a	0	0	0
1849879	WORD	wordpools/wasnorm_wordpool_576.txt	LTP359	ltpFR2	0	9	PISTOL	1075	n/a	n/a	0	0	0
1852462	WORD	wordpools/wasnorm_wordpool_576.txt	LTP359	ltpFR2	0	9	LASER	801	n/a	n/a	0	0	0
1855227	WORD	wordpools/wasnorm_wordpool_576.txt	LTP359	ltpFR2	0	9	ORANGE	980	n/a	n/a	0	0	0
1857858	WORD	wordpools/wasnorm_wordpool_576.txt	LTP359	ltpFR2	0	9	TURNIP	1521	n/a	n/a	0	0	0
1860342	WORD	wordpools/wasnorm_wordpool_576.txt	LTP359	ltpFR2	0	9	WAITER	1580	n/a	n/a	0	0	0
1862856	WORD	wordpools/wasnorm_wordpool_576.txt	LTP359	ltpFR2	0	9	PILOT	1070	n/a	n/a	0	0	0
1865289	WORD	wordpools/wasnorm_wordpool_576.txt	LTP359	ltpFR2	0	9	PUDDING	1139	n/a	n/a	0	0	0
1867787	WORD	wordpools/wasnorm_wordpool_576.txt	LTP359	ltpFR2	0	9	NOVEL	960	n/a	n/a	0	0	0
1870587	WORD	wordpools/wasnorm_wordpool_576.txt	LTP359	ltpFR2	0	9	LION	827	n/a	n/a	0	0	0
1873386	WORD	wordpools/wasnorm_wordpool_576.txt	LTP359	ltpFR2	0	9	IDOL	733	n/a	n/a	0	0	0
1875002	START	n/a	LTP359	ltpFR2	0	n/a	n/a	n/a	14	n/a	n/a	n/a	n/a
1875810	DISTRACTOR	n/a	LTP359	ltpFR2	0	9	n/a	n/a	n/a	n/a	0	0	0
1875817	PROB	n/a	LTP359	ltpFR2	0	n/a	n/a	n/a	14	20	8	3	9
1878682	PROB	n/a	LTP359	ltpFR2	0	n/a	n/a	n/a	14	23	9	6	8
1880982	PROB	n/a	LTP359	ltpFR2	0	n/a	n/a	n/a	14	18	6	8	4
1883481	PROB	n/a	LTP359	ltpFR2	0	n/a	n/a	n/a	14	19	7	8	4
1885414	PROB	n/a	LTP359	ltpFR2	0	n/a	n/a	n/a	14	23	7	8	8
1887413	PROB	n/a	LTP359	ltpFR2	0	n/a	n/a	n/a	14	10	4	1	5
1889095	PROB	n/a	LTP359	ltpFR2	0	n/a	n/a	n/a	14	17	3	5	9
1890877	PROB	n/a	LTP359	ltpFR2	0	n/a	n/a	n/a	14	3	1	1	1
1891910	PROB	n/a	LTP359	ltpFR2	0	n/a	n/a	n/a	14	18	3	7	8
1893410	PROB	n/a	LTP359	ltpFR2	0	n/a	n/a	n/a	14	13	5	2	6
1895509	PROB	n/a	LTP359	ltpFR2	0	n/a	n/a	n/a	14	9	6	1	2
1897458	PROB	n/a	LTP359	ltpFR2	0	n/a	n/a	n/a	14	19	5	7	7
1898959	STOP	n/a	LTP359	ltpFR2	0	n/a	n/a	n/a	14	n/a	n/a	n/a	n/a
1900823	REC_START	n/a	LTP359	ltpFR2	0	9	n/a	n/a	n/a	n/a	0	0	0
1901887	REC_WORD	wordpools/wasnorm_wordpool_576.txt	LTP359	ltpFR2	0	9	RABBIT	1152	n/a	n/a	0	0	0
1902808	REC_WORD	wordpools/wasnorm_wordpool_576.txt	LTP359	ltpFR2	0	9	SISTER	1312	n/a	n/a	0	0	0
1903765	REC_WORD	wordpools/wasnorm_wordpool_576.txt	LTP359	ltpFR2	0	9	CARROT	249	n/a	n/a	0	0	0
1904470	REC_WORD	wordpools/wasnorm_wordpool_576.txt	LTP359	ltpFR2	0	9	SHORTCAKE	1292	n/a	n/a	0	0	0
1905958	REC_WORD	wordpools/wasnorm_wordpool_576.txt	LTP359	ltpFR2	0	9	LACE	792	n/a	n/a	0	0	0
1907031	REC_WORD	wordpools/wasnorm_wordpool_576.txt	LTP359	ltpFR2	0	9	TURNIP	1521	n/a	n/a	0	0	0
1908101	REC_WORD	wordpools/wasnorm_wordpool_576.txt	LTP359	ltpFR2	0	9	WAITER	1580	n/a	n/a	0	0	0
1910801	REC_WORD	wordpools/wasnorm_wordpool_576.txt	LTP359	ltpFR2	0	9	PUDDING	1139	n/a	n/a	0	0	0
1911883	REC_WORD	wordpools/wasnorm_wordpool_576.txt	LTP359	ltpFR2	0	9	PILOT	1070	n/a	n/a	0	0	0
1916243	REC_WORD	wordpools/wasnorm_wordpool_576.txt	LTP359	ltpFR2	0	9	AIRPLANE	12	n/a	n/a	0	0	0
1920454	REC_WORD	wordpools/wasnorm_wordpool_576.txt	LTP359	ltpFR2	0	9	HEART	697	n/a	n/a	0	0	0
1922563	REC_WORD	wordpools/wasnorm_wordpool_576.txt	LTP359	ltpFR2	0	9	ROBOT	1200	n/a	n/a	0	0	0
1923932	REC_WORD	wordpools/wasnorm_wordpool_576.txt	LTP359	ltpFR2	0	9	LIVER	833	n/a	n/a	0	0	0
1945877	REC_WORD	wordpools/wasnorm_wordpool_576.txt	LTP359	ltpFR2	0	9	RABBIT	1152	n/a	n/a	0	0	0
1991266	WORD	wordpools/wasnorm_wordpool_576.txt	LTP359	ltpFR2	0	10	DANDRUFF	439	n/a	n/a	0	0	0
1993830	WORD	wordpools/wasnorm_wordpool_576.txt	LTP359	ltpFR2	0	10	CRUTCH	417	n/a	n/a	0	0	0
1996347	WORD	wordpools/wasnorm_wordpool_576.txt	LTP359	ltpFR2	0	10	ACTOR	5	n/a	n/a	0	0	0
1998928	WORD	wordpools/wasnorm_wordpool_576.txt	LTP359	ltpFR2	0	10	PANTHER	1009	n/a	n/a	0	0	0
2001743	WORD	wordpools/wasnorm_wordpool_576.txt	LTP359	ltpFR2	0	10	FLASHLIGHT	575	n/a	n/a	0	0	0
2004210	WORD	wordpools/wasnorm_wordpool_576.txt	LTP359	ltpFR2	0	10	STONE	1385	n/a	n/a	0	0	0
2006774	WORD	wordpools/wasnorm_wordpool_576.txt	LTP359	ltpFR2	0	10	TEACHER	1440	n/a	n/a	0	0	0
2009524	WORD	wordpools/wasnorm_wordpool_576.txt	LTP359	ltpFR2	0	10	GAVEL	627	n/a	n/a	0	0	0
2012306	WORD	wordpools/wasnorm_wordpool_576.txt	LTP359	ltpFR2	0	10	FLUTE	585	n/a	n/a	0	0	0
2015005	WORD	wordpools/wasnorm_wordpool_576.txt	LTP359	ltpFR2	0	10	CRATER	400	n/a	n/a	0	0	0
2017437	WORD	wordpools/wasnorm_wordpool_576.txt	LTP359	ltpFR2	0	10	CAFE	216	n/a	n/a	0	0	0
2019902	WORD	wordpools/wasnorm_wordpool_576.txt	LTP359	ltpFR2	0	10	TURKEY	1520	n/a	n/a	0	0	0
2022717	WORD	wordpools/wasnorm_wordpool_576.txt	LTP359	ltpFR2	0	10	MARSH	874	n/a	n/a	0	0	0
2025350	WORD	wordpools/wasnorm_wordpool_576.txt	LTP359	ltpFR2	0	10	HORNET	718	n/a	n/a	0	0	0
2028049	WORD	wordpools/wasnorm_wordpool_576.txt	LTP359	ltpFR2	0	10	HONEY	713	n/a	n/a	0	0	0
2030847	WORD	wordpools/wasnorm_wordpool_576.txt	LTP359	ltpFR2	0	10	LEOPARD	812	n/a	n/a	0	0	0
2033313	WORD	wordpools/wasnorm_wordpool_576.txt	LTP359	ltpFR2	0	10	BULLET	194	n/a	n/a	0	0	0
2036012	WORD	wordpools/wasnorm_wordpool_576.txt	LTP359	ltpFR2	0	10	RIFLE	1192	n/a	n/a	0	0	0
2038561	WORD	wordpools/wasnorm_wordpool_576.txt	LTP359	ltpFR2	0	10	CRITIC	410	n/a	n/a	0	0	0
2041043	WORD	wordpools/wasnorm_wordpool_576.txt	LTP359	ltpFR2	0	10	SERVANT	1271	n/a	n/a	0	0	0
2043575	WORD	wordpools/wasnorm_wordpool_576.txt	LTP359	ltpFR2	0	10	COLLEGE	346	n/a	n/a	0	0	0
2046108	WORD	wordpools/wasnorm_wordpool_576.txt	LTP359	ltpFR2	0	10	DRESSER	496	n/a	n/a	0	0	0
2048573	WORD	wordpools/wasnorm_wordpool_576.txt	LTP359	ltpFR2	0	10	OFFICE	972	n/a	n/a	0	0	0
2051055	WORD	wordpools/wasnorm_wordpool_576.txt	LTP359	ltpFR2	0	10	SEAGULL	1261	n/a	n/a	0	0	0
2052670	START	n/a	LTP359	ltpFR2	0	n/a	n/a	n/a	15	n/a	n/a	n/a	n/a
2053704	DISTRACTOR	n/a	LTP359	ltpFR2	0	10	n/a	n/a	n/a	n/a	0	0	0
2053720	PROB	n/a	LTP359	ltpFR2	0	n/a	n/a	n/a	15	12	3	5	4
2055652	PROB	n/a	LTP359	ltpFR2	0	n/a	n/a	n/a	15	14	2	3	9
2057635	PROB	n/a	LTP359	ltpFR2	0	n/a	n/a	n/a	15	11	7	1	3
2059302	PROB	n/a	LTP359	ltpFR2	0	n/a	n/a	n/a	15	18	8	8	2
2061167	PROB	n/a	LTP359	ltpFR2	0	n/a	n/a	n/a	15	14	4	5	5
2062483	PROB	n/a	LTP359	ltpFR2	0	n/a	n/a	n/a	15	16	4	6	6
2064333	PROB	n/a	LTP359	ltpFR2	0	n/a	n/a	n/a	15	11	1	3	7
2066282	PROB	n/a	LTP359	ltpFR2	0	n/a	n/a	n/a	15	20	7	9	4
2070130	PROB	n/a	LTP359	ltpFR2	0	n/a	n/a	n/a	15	10	2	4	4
2072645	PROB	n/a	LTP359	ltpFR2	0	n/a	n/a	n/a	15	20	4	9	7
2075795	STOP	n/a	LTP359	ltpFR2	0	n/a	n/a	n/a	15	n/a	n/a	n/a	n/a
2078443	REC_START	n/a	LTP359	ltpFR2	0	10	n/a	n/a	n/a	n/a	0	0	0
2079129	REC_WORD	wordpools/wasnorm_wordpool_576.txt	LTP359	ltpFR2	0	10	TEACHER	1440	n/a	n/a	0	0	0
2080068	REC_WORD	wordpools/wasnorm_wordpool_576.txt	LTP359	ltpFR2	0	10	GAVEL	627	n/a	n/a	0	0	0
2080952	REC_WORD	wordpools/wasnorm_wordpool_576.txt	LTP359	ltpFR2	0	10	DRESSER	496	n/a	n/a	0	0	0
2081945	REC_WORD	wordpools/wasnorm_wordpool_576.txt	LTP359	ltpFR2	0	10	COLLEGE	346	n/a	n/a	0	0	0
2086682	REC_WORD	wordpools/wasnorm_wordpool_576.txt	LTP359	ltpFR2	0	10	ACTOR	5	n/a	n/a	0	0	0
2089181	REC_WORD	wordpools/wasnorm_wordpool_576.txt	LTP359	ltpFR2	0	10	OFFICE	972	n/a	n/a	0	0	0
2090249	REC_WORD	wordpools/wasnorm_wordpool_576.txt	LTP359	ltpFR2	0	10	SEAGULL	1261	n/a	n/a	0	0	0
2093942	REC_WORD	wordpools/wasnorm_wordpool_576.txt	LTP359	ltpFR2	0	10	FLASHLIGHT	575	n/a	n/a	0	0	0
2095454	REC_WORD	wordpools/wasnorm_wordpool_576.txt	LTP359	ltpFR2	0	10	PANTHER	1009	n/a	n/a	0	0	0
2130003	REC_WORD	wordpools/wasnorm_wordpool_576.txt	LTP359	ltpFR2	0	10	COURSE	390	n/a	n/a	0	0	0
2168884	DISTRACTOR	n/a	LTP359	ltpFR2	0	11	n/a	n/a	n/a	n/a	0	0	0
2168884	START	n/a	LTP359	ltpFR2	0	n/a	n/a	n/a	16	n/a	n/a	n/a	n/a
2168901	PROB	n/a	LTP359	ltpFR2	0	n/a	n/a	n/a	16	21	6	6	9
2172117	PROB	n/a	LTP359	ltpFR2	0	n/a	n/a	n/a	16	8	5	2	1
2174616	PROB	n/a	LTP359	ltpFR2	0	n/a	n/a	n/a	16	12	1	5	6
2176065	PROB	n/a	LTP359	ltpFR2	0	n/a	n/a	n/a	16	18	5	5	8
2177448	PROB	n/a	LTP359	ltpFR2	0	n/a	n/a	n/a	16	22	7	9	6
2180563	PROB	n/a	LTP359	ltpFR2	0	n/a	n/a	n/a	16	13	3	9	3
2182861	PROB	n/a	LTP359	ltpFR2	0	n/a	n/a	n/a	16	11	2	3	6
2186994	PROB	n/a	LTP359	ltpFR2	0	n/a	n/a	n/a	16	17	6	4	7
2188443	PROB	n/a	LTP359	ltpFR2	0	n/a	n/a	n/a	16	9	5	1	3
2190708	PROB	n/a	LTP359	ltpFR2	0	n/a	n/a	n/a	16	18	3	6	9
2192687	STOP	n/a	LTP359	ltpFR2	0	n/a	n/a	n/a	16	n/a	n/a	n/a	n/a
2193740	WORD	wordpools/wasnorm_wordpool_576.txt	LTP359	ltpFR2	0	11	OUTLAW	989	n/a	n/a	0	0	0
2196456	WORD	wordpools/wasnorm_wordpool_576.txt	LTP359	ltpFR2	0	11	NEUTRON	947	n/a	n/a	0	0	0
2199022	WORD	wordpools/wasnorm_wordpool_576.txt	LTP359	ltpFR2	0	11	GARDEN	623	n/a	n/a	0	0	0
2201636	WORD	wordpools/wasnorm_wordpool_576.txt	LTP359	ltpFR2	0	11	VICTIM	1562	n/a	n/a	0	0	0
2204436	WORD	wordpools/wasnorm_wordpool_576.txt	LTP359	ltpFR2	0	11	DIME	466	n/a	n/a	0	0	0
2207201	WORD	wordpools/wasnorm_wordpool_576.txt	LTP359	ltpFR2	0	11	DRILL	497	n/a	n/a	0	0	0
2209633	WORD	wordpools/wasnorm_wordpool_576.txt	LTP359	ltpFR2	0	11	KETCHUP	771	n/a	n/a	0	0	0
2212066	WORD	wordpools/wasnorm_wordpool_576.txt	LTP359	ltpFR2	0	11	SPACE	1345	n/a	n/a	0	0	0
2214548	WORD	wordpools/wasnorm_wordpool_576.txt	LTP359	ltpFR2	0	11	COMET	353	n/a	n/a	0	0	0
2217013	WORD	wordpools/wasnorm_wordpool_576.txt	LTP359	ltpFR2	0	11	GAZELLE	628	n/a	n/a	0	0	0
2219745	WORD	wordpools/wasnorm_wordpool_576.txt	LTP359	ltpFR2	0	11	BANK	83	n/a	n/a	0	0	0
2222494	WORD	wordpools/wasnorm_wordpool_576.txt	LTP359	ltpFR2	0	11	BEEF	113	n/a	n/a	0	0	0
2224976	WORD	wordpools/wasnorm_wordpool_576.txt	LTP359	ltpFR2	0	11	FRANCE	601	n/a	n/a	0	0	0
2227492	WORD	wordpools/wasnorm_wordpool_576.txt	LTP359	ltpFR2	0	11	CAPTIVE	240	n/a	n/a	0	0	0
2230191	WORD	wordpools/wasnorm_wordpool_576.txt	LTP359	ltpFR2	0	11	INMATE	738	n/a	n/a	0	0	0
2232855	WORD	wordpools/wasnorm_wordpool_576.txt	LTP359	ltpFR2	0	11	ICEBERG	731	n/a	n/a	0	0	0
2235654	WORD	wordpools/wasnorm_wordpool_576.txt	LTP359	ltpFR2	0	11	SCARF	1246	n/a	n/a	0	0	0
2238204	WORD	wordpools/wasnorm_wordpool_576.txt	LTP359	ltpFR2	0	11	SUSPECT	1415	n/a	n/a	0	0	0
2240668	WORD	wordpools/wasnorm_wordpool_576.txt	LTP359	ltpFR2	0	11	LIZARD	834	n/a	n/a	0	0	0
2243451	WORD	wordpools/wasnorm_wordpool_576.txt	LTP359	ltpFR2	0	11	PISTON	1076	n/a	n/a	0	0	0
2246217	WORD	wordpools/wasnorm_wordpool_576.txt	LTP359	ltpFR2	0	11	PLUTO	1092	n/a	n/a	0	0	0
2248915	WORD	wordpools/wasnorm_wordpool_576.txt	LTP359	ltpFR2	0	11	PUPPY	1144	n/a	n/a	0	0	0
2251581	WORD	wordpools/wasnorm_wordpool_576.txt	LTP359	ltpFR2	0	11	VELVET	1555	n/a	n/a	0	0	0
2254130	WORD	wordpools/wasnorm_wordpool_576.txt	LTP359	ltpFR2	0	11	OUTFIT	988	n/a	n/a	0	0	0
2255745	START	n/a	LTP359	ltpFR2	0	n/a	n/a	n/a	17	n/a	n/a	n/a	n/a
2256572	DISTRACTOR	n/a	LTP359	ltpFR2	0	11	n/a	n/a	n/a	n/a	0	0	0
2256579	PROB	n/a	LTP359	ltpFR2	0	n/a	n/a	n/a	17	18	7	8	3
2259676	PROB	n/a	LTP359	ltpFR2	0	n/a	n/a	n/a	17	8	1	2	5
2261925	PROB	n/a	LTP359	ltpFR2	0	n/a	n/a	n/a	17	20	7	9	4
2264025	PROB	n/a	LTP359	ltpFR2	0	n/a	n/a	n/a	17	10	4	5	1
2265541	PROB	n/a	LTP359	ltpFR2	0	n/a	n/a	n/a	17	17	1	7	9
2267639	PROB	n/a	LTP359	ltpFR2	0	n/a	n/a	n/a	17	15	2	6	7
2269223	PROB	n/a	LTP359	ltpFR2	0	n/a	n/a	n/a	17	20	9	7	4
2273471	PROB	n/a	LTP359	ltpFR2	0	n/a	n/a	n/a	17	15	5	3	7
2276520	PROB	n/a	LTP359	ltpFR2	0	n/a	n/a	n/a	17	17	5	4	8
2278818	STOP	n/a	LTP359	ltpFR2	0	n/a	n/a	n/a	17	n/a	n/a	n/a	n/a
2281667	REC_START	n/a	LTP359	ltpFR2	0	11	n/a	n/a	n/a	n/a	0	0	0
2282856	REC_WORD	wordpools/wasnorm_wordpool_576.txt	LTP359	ltpFR2	0	11	VELVET	1555	n/a	n/a	0	0	0
2283832	REC_WORD	wordpools/wasnorm_wordpool_576.txt	LTP359	ltpFR2	0	11	PISTON	1076	n/a	n/a	0	0	0
2285203	REC_WORD	wordpools/wasnorm_wordpool_576.txt	LTP359	ltpFR2	0	11	OUTFIT	988	n/a	n/a	0	0	0
2286548	REC_WORD	wordpools/wasnorm_wordpool_576.txt	LTP359	ltpFR2	0	11	GAZELLE	628	n/a	n/a	0	0	0
2289520	REC_WORD	wordpools/wasnorm_wordpool_576.txt	LTP359	ltpFR2	0	11	SUSPECT	1415	n/a	n/a	0	0	0
2290690	REC_WORD	wordpools/wasnorm_wordpool_576.txt	LTP359	ltpFR2	0	11	CAPTIVE	240	n/a	n/a	0	0	0
2291914	REC_WORD	wordpools/wasnorm_wordpool_576.txt	LTP359	ltpFR2	0	11	INMATE	738	n/a	n/a	0	0	0
2292994	REC_WORD	wordpools/wasnorm_wordpool_576.txt	LTP359	ltpFR2	0	11	SPACE	1345	n/a	n/a	0	0	0
2294262	REC_WORD	wordpools/wasnorm_wordpool_576.txt	LTP359	ltpFR2	0	11	COMET	353	n/a	n/a	0	0	0
2317975	REC_WORD	wordpools/wasnorm_wordpool_576.txt	LTP359	ltpFR2	0	11	CATTLE	261	n/a	n/a	0	0	0
2324639	REC_WORD	wordpools/wasnorm_wordpool_576.txt	LTP359	ltpFR2	0	11	PUDDING	1139	n/a	n/a	0	0	0
2372093	DISTRACTOR	n/a	LTP359	ltpFR2	0	12	n/a	n/a	n/a	n/a	0	0	0
2372093	START	n/a	LTP359	ltpFR2	0	n/a	n/a	n/a	18	n/a	n/a	n/a	n/a
2372110	PROB	n/a	LTP359	ltpFR2	0	n/a	n/a	n/a	18	12	3	6	3
2374226	PROB	n/a	LTP359	ltpFR2	0	n/a	n/a	n/a	18	12	3	7	2
2375592	PROB	n/a	LTP359	ltpFR2	0	n/a	n/a	n/a	18	10	1	7	2
2377656	PROB	n/a	LTP359	ltpFR2	0	n/a	n/a	n/a	18	13	2	8	3
2378990	PROB	n/a	LTP359	ltpFR2	0	n/a	n/a	n/a	18	13	6	2	5
2380589	PROB	n/a	LTP359	ltpFR2	0	n/a	n/a	n/a	18	22	9	4	8
2383971	PROB	n/a	LTP359	ltpFR2	0	n/a	n/a	n/a	18	11	5	2	4
2386885	PROB	n/a	LTP359	ltpFR2	0	n/a	n/a	n/a	18	13	5	6	2
2388302	PROB	n/a	LTP359	ltpFR2	0	n/a	n/a	n/a	18	7	4	2	1
2392451	PROB	n/a	LTP359	ltpFR2	0	n/a	n/a	n/a	18	17	5	7	5
2396093	STOP	n/a	LTP359	ltpFR2	0	n/a	n/a	n/a	18	n/a	n/a	n/a	n/a
2397098	WORD	wordpools/wasnorm_wordpool_576.txt	LTP359	ltpFR2	0	12	CYCLONE	431	n/a	n/a	0	0	0
2399863	WORD	wordpools/wasnorm_wordpool_576.txt	LTP359	ltpFR2	0	12	STAKE	1368	n/a	n/a	0	0	0
2402313	WORD	wordpools/wasnorm_wordpool_576.txt	LTP359	ltpFR2	0	12	FIDDLE	561	n/a	n/a	0	0	0
2405045	WORD	wordpools/wasnorm_wordpool_576.txt	LTP359	ltpFR2	0	12	PROTON	1132	n/a	n/a	0	0	0
2407643	WORD	wordpools/wasnorm_wordpool_576.txt	LTP359	ltpFR2	0	12	LEG	809	n/a	n/a	0	0	0
2410376	WORD	wordpools/wasnorm_wordpool_576.txt	LTP359	ltpFR2	0	12	FINGER	567	n/a	n/a	0	0	0
2412991	WORD	wordpools/wasnorm_wordpool_576.txt	LTP359	ltpFR2	0	12	MARINE	869	n/a	n/a	0	0	0
2415473	WORD	wordpools/wasnorm_wordpool_576.txt	LTP359	ltpFR2	0	12	BELLY	119	n/a	n/a	0	0	0
2418222	WORD	wordpools/wasnorm_wordpool_576.txt	LTP359	ltpFR2	0	12	SPOON	1357	n/a	n/a	0	0	0
2420653	WORD	wordpools/wasnorm_wordpool_576.txt	LTP359	ltpFR2	0	12	CONVICT	371	n/a	n/a	0	0	0
2423387	WORD	wordpools/wasnorm_wordpool_576.txt	LTP359	ltpFR2	0	12	SEAL	1262	n/a	n/a	0	0	0
2425934	WORD	wordpools/wasnorm_wordpool_576.txt	LTP359	ltpFR2	0	12	JUGGLER	763	n/a	n/a	0	0	0
2428601	WORD	wordpools/wasnorm_wordpool_576.txt	LTP359	ltpFR2	0	12	EMPIRE	530	n/a	n/a	0	0	0
2431150	WORD	wordpools/wasnorm_wordpool_576.txt	LTP359	ltpFR2	0	12	COUNTRY	388	n/a	n/a	0	0	0
2433582	WORD	wordpools/wasnorm_wordpool_576.txt	LTP359	ltpFR2	0	12	BLADE	134	n/a	n/a	0	0	0
2436114	WORD	wordpools/wasnorm_wordpool_576.txt	LTP359	ltpFR2	0	12	PADDLE	1000	n/a	n/a	0	0	0
2438630	WORD	wordpools/wasnorm_wordpool_576.txt	LTP359	ltpFR2	0	12	SODA	1341	n/a	n/a	0	0	0
2441345	WORD	wordpools/wasnorm_wordpool_576.txt	LTP359	ltpFR2	0	12	HIKER	708	n/a	n/a	0	0	0
2443926	WORD	wordpools/wasnorm_wordpool_576.txt	LTP359	ltpFR2	0	12	CLIMBER	323	n/a	n/a	0	0	0
2446609	WORD	wordpools/wasnorm_wordpool_576.txt	LTP359	ltpFR2	0	12	CATCHER	258	n/a	n/a	0	0	0
2449075	WORD	wordpools/wasnorm_wordpool_576.txt	LTP359	ltpFR2	0	12	HOUND	724	n/a	n/a	0	0	0
2451590	WORD	wordpools/wasnorm_wordpool_576.txt	LTP359	ltpFR2	0	12	BEAVER	109	n/a	n/a	0	0	0
2454306	WORD	wordpools/wasnorm_wordpool_576.txt	LTP359	ltpFR2	0	12	MATTRESS	879	n/a	n/a	0	0	0
2457038	WORD	wordpools/wasnorm_wordpool_576.txt	LTP359	ltpFR2	0	12	PORTRAIT	1111	n/a	n/a	0	0	0
2458653	START	n/a	LTP359	ltpFR2	0	n/a	n/a	n/a	19	n/a	n/a	n/a	n/a
2459558	DISTRACTOR	n/a	LTP359	ltpFR2	0	12	n/a	n/a	n/a	n/a	0	0	0
2459570	PROB	n/a	LTP359	ltpFR2	0	n/a	n/a	n/a	19	18	9	1	8
2461603	PROB	n/a	LTP359	ltpFR2	0	n/a	n/a	n/a	19	19	9	8	2
2463435	PROB	n/a	LTP359	ltpFR2	0	n/a	n/a	n/a	19	19	6	7	6
2465418	PROB	n/a	LTP359	ltpFR2	0	n/a	n/a	n/a	19	10	3	2	5
2466749	PROB	n/a	LTP359	ltpFR2	0	n/a	n/a	n/a	19	18	7	5	6
2469399	PROB	n/a	LTP359	ltpFR2	0	n/a	n/a	n/a	19	13	5	3	5
2471265	PROB	n/a	LTP359	ltpFR2	0	n/a	n/a	n/a	19	22	9	7	6
2473997	PROB	n/a	LTP359	ltpFR2	0	n/a	n/a	n/a	19	11	2	1	8
2475879	PROB	n/a	LTP359	ltpFR2	0	n/a	n/a	n/a	19	17	8	5	4
2477844	PROB	n/a	LTP359	ltpFR2	0	n/a	n/a	n/a	19	23	8	9	6
2480577	PROB	n/a	LTP359	ltpFR2	0	n/a	n/a	n/a	19	7	1	3	3
2482569	STOP	n/a	LTP359	ltpFR2	0	n/a	n/a	n/a	19	n/a	n/a	n/a	n/a
2484426	REC_START	n/a	LTP359	ltpFR2	0	12	n/a	n/a	n/a	n/a	0	0	0
2485708	REC_WORD	wordpools/wasnorm_wordpool_576.txt	LTP359	ltpFR2	0	12	BEAVER	109	n/a	n/a	0	0	0
2487329	REC_WORD	wordpools/wasnorm_wordpool_576.txt	LTP359	ltpFR2	0	12	HOUND	724	n/a	n/a	0	0	0
2495955	REC_WORD	wordpools/wasnorm_wordpool_576.txt	LTP359	ltpFR2	0	12	CYCLONE	431	n/a	n/a	0	0	0
2500323	REC_WORD	wordpools/wasnorm_wordpool_576.txt	LTP359	ltpFR2	0	12	COUNTRY	388	n/a	n/a	0	0	0
2501118	REC_WORD	wordpools/wasnorm_wordpool_576.txt	LTP359	ltpFR2	0	12	EMPIRE	530	n/a	n/a	0	0	0
2501884	REC_WORD	wordpools/wasnorm_wordpool_576.txt	LTP359	ltpFR2	0	12	SODA	1341	n/a	n/a	0	0	0
2502591	REC_WORD	wordpools/wasnorm_wordpool_576.txt	LTP359	ltpFR2	0	12	BELLY	119	n/a	n/a	0	0	0
2506491	REC_WORD	wordpools/wasnorm_wordpool_576.txt	LTP359	ltpFR2	0	12	ELBOW	520	n/a	n/a	0	0	0
2516469	REC_WORD	wordpools/wasnorm_wordpool_576.txt	LTP359	ltpFR2	0	12	JUGGLER	763	n/a	n/a	0	0	0
2525950	REC_WORD	wordpools/wasnorm_wordpool_576.txt	LTP359	ltpFR2	0	12	DIME	466	n/a	n/a	0	0	0
2538867	REC_WORD	wordpools/wasnorm_wordpool_576.txt	LTP359	ltpFR2	0	12	HIKER	708	n/a	n/a	0	0	0
2540004	REC_WORD	wordpools/wasnorm_wordpool_576.txt	LTP359	ltpFR2	0	12	CLIMBER	323	n/a	n/a	0	0	0
2540856	REC_WORD	wordpools/wasnorm_wordpool_576.txt	LTP359	ltpFR2	0	12	CATCHER	258	n/a	n/a	0	0	0
2574884	WORD	wordpools/wasnorm_wordpool_576.txt	LTP359	ltpFR2	0	13	BARREL	91	n/a	n/a	0	0	0
2577467	WORD	wordpools/wasnorm_wordpool_576.txt	LTP359	ltpFR2	0	13	SPONGE	1355	n/a	n/a	0	0	0
2580199	WORD	wordpools/wasnorm_wordpool_576.txt	LTP359	ltpFR2	0	13	APPLE	33	n/a	n/a	0	0	0
2582763	WORD	wordpools/wasnorm_wordpool_576.txt	LTP359	ltpFR2	0	13	FUNGUS	614	n/a	n/a	0	0	0
2585263	WORD	wordpools/wasnorm_wordpool_576.txt	LTP359	ltpFR2	0	13	OX	994	n/a	n/a	0	0	0
2587911	WORD	wordpools/wasnorm_wordpool_576.txt	LTP359	ltpFR2	0	13	GOBLIN	645	n/a	n/a	0	0	0
2590528	WORD	wordpools/wasnorm_wordpool_576.txt	LTP359	ltpFR2	0	13	STICKER	1382	n/a	n/a	0	0	0
2593076	WORD	wordpools/wasnorm_wordpool_576.txt	LTP359	ltpFR2	0	13	LIGHTNING	820	n/a	n/a	0	0	0
2595841	WORD	wordpools/wasnorm_wordpool_576.txt	LTP359	ltpFR2	0	13	MEAT	883	n/a	n/a	0	0	0
2598357	WORD	wordpools/wasnorm_wordpool_576.txt	LTP359	ltpFR2	0	13	CLAM	315	n/a	n/a	0	0	0
2601139	WORD	wordpools/wasnorm_wordpool_576.txt	LTP359	ltpFR2	0	13	COMPASS	358	n/a	n/a	0	0	0
2603687	WORD	wordpools/wasnorm_wordpool_576.txt	LTP359	ltpFR2	0	13	WARDROBE	1587	n/a	n/a	0	0	0
2606454	WORD	wordpools/wasnorm_wordpool_576.txt	LTP359	ltpFR2	0	13	CUPBOARD	425	n/a	n/a	0	0	0
2609136	WORD	wordpools/wasnorm_wordpool_576.txt	LTP359	ltpFR2	0	13	APRON	35	n/a	n/a	0	0	0
2611933	WORD	wordpools/wasnorm_wordpool_576.txt	LTP359	ltpFR2	0	13	DUSTPAN	509	n/a	n/a	0	0	0
2614649	WORD	wordpools/wasnorm_wordpool_576.txt	LTP359	ltpFR2	0	13	GRIZZLY	662	n/a	n/a	0	0	0
2617382	WORD	wordpools/wasnorm_wordpool_576.txt	LTP359	ltpFR2	0	13	YOLK	1633	n/a	n/a	0	0	0
2620114	WORD	wordpools/wasnorm_wordpool_576.txt	LTP359	ltpFR2	0	13	TURTLE	1522	n/a	n/a	0	0	0
2622662	WORD	wordpools/wasnorm_wordpool_576.txt	LTP359	ltpFR2	0	13	WASHER	1592	n/a	n/a	0	0	0
2625478	WORD	wordpools/wasnorm_wordpool_576.txt	LTP359	ltpFR2	0	13	VIRUS	1572	n/a	n/a	0	0	0
2628111	WORD	wordpools/wasnorm_wordpool_576.txt	LTP359	ltpFR2	0	13	BUTCHER	203	n/a	n/a	0	0	0
2630725	WORD	wordpools/wasnorm_wordpool_576.txt	LTP359	ltpFR2	0	13	YACHT	1629	n/a	n/a	0	0	0
2633225	WORD	wordpools/wasnorm_wordpool_576.txt	LTP359	ltpFR2	0	13	VIKING	1565	n/a	n/a	0	0	0
2635773	WORD	wordpools/wasnorm_wordpool_576.txt	LTP359	ltpFR2	0	13	SWORD	1423	n/a	n/a	0	0	0
2637390	START	n/a	LTP359	ltpFR2	0	n/a	n/a	n/a	20	n/a	n/a	n/a	n/a
2638578	DISTRACTOR	n/a	LTP359	ltpFR2	0	13	n/a	n/a	n/a	n/a	0	0	0
2638589	PROB	n/a	LTP359	ltpFR2	0	n/a	n/a	n/a	20	13	7	3	3
2640920	PROB	n/a	LTP359	ltpFR2	0	n/a	n/a	n/a	20	13	2	5	6
2643070	PROB	n/a	LTP359	ltpFR2	0	n/a	n/a	n/a	20	18	1	8	9
2645036	PROB	n/a	LTP359	ltpFR2	0	n/a	n/a	n/a	20	12	3	7	1
2650550	PROB	n/a	LTP359	ltpFR2	0	n/a	n/a	n/a	20	21	8	9	4
2655165	PROB	n/a	LTP359	ltpFR2	0	n/a	n/a	n/a	20	8	1	4	3
2657863	PROB	n/a	LTP359	ltpFR2	0	n/a	n/a	n/a	20	11	1	7	3
2661390	STOP	n/a	LTP359	ltpFR2	0	n/a	n/a	n/a	20	n/a	n/a	n/a	n/a
2663295	REC_START	n/a	LTP359	ltpFR2	0	13	n/a	n/a	n/a	n/a	0	0	0
2664169	REC_WORD	wordpools/wasnorm_wordpool_576.txt	LTP359	ltpFR2	0	13	BUTCHER	203	n/a	n/a	0	0	0
2664969	REC_WORD	wordpools/wasnorm_wordpool_576.txt	LTP359	ltpFR2	0	13	MEAT	883	n/a	n/a	0	0	0
2665884	REC_WORD	wordpools/wasnorm_wordpool_576.txt	LTP359	ltpFR2	0	13	CLAM	315	n/a	n/a	0	0	0
2668767	REC_WORD	wordpools/wasnorm_wordpool_576.txt	LTP359	ltpFR2	0	13	GOBLIN	645	n/a	n/a	0	0	0
2670045	REC_WORD	wordpools/wasnorm_wordpool_576.txt	LTP359	ltpFR2	0	13	COMPASS	358	n/a	n/a	0	0	0
2671045	REC_WORD_VV	wordpools/wasnorm_wordpool_576.txt	LTP359	ltpFR2	0	13	<>	-1	n/a	n/a	0	0	0
2671857	REC_WORD	wordpools/wasnorm_wordpool_576.txt	LTP359	ltpFR2	0	13	WARDROBE	1587	n/a	n/a	0	0	0
2672899	REC_WORD	wordpools/wasnorm_wordpool_576.txt	LTP359	ltpFR2	0	13	CUPBOARD	425	n/a	n/a	0	0	0
2674094	REC_WORD	wordpools/wasnorm_wordpool_576.txt	LTP359	ltpFR2	0	13	APRON	35	n/a	n/a	0	0	0
2675242	REC_WORD	wordpools/wasnorm_wordpool_576.txt	LTP359	ltpFR2	0	13	YOLK	1633	n/a	n/a	0	0	0
2677134	REC_WORD	wordpools/wasnorm_wordpool_576.txt	LTP359	ltpFR2	0	13	DUSTPAN	509	n/a	n/a	0	0	0
2689157	REC_WORD	wordpools/wasnorm_wordpool_576.txt	LTP359	ltpFR2	0	13	OX	994	n/a	n/a	0	0	0
2693706	REC_WORD	wordpools/wasnorm_wordpool_576.txt	LTP359	ltpFR2	0	13	GRIZZLY	662	n/a	n/a	0	0	0
2695499	REC_WORD	wordpools/wasnorm_wordpool_576.txt	LTP359	ltpFR2	0	13	TURTLE	1522	n/a	n/a	0	0	0
2710144	REC_WORD	wordpools/wasnorm_wordpool_576.txt	LTP359	ltpFR2	0	13	YACHT	1629	n/a	n/a	0	0	0
2710905	REC_WORD	wordpools/wasnorm_wordpool_576.txt	LTP359	ltpFR2	0	13	VIKING	1565	n/a	n/a	0	0	0
2712584	REC_WORD	wordpools/wasnorm_wordpool_576.txt	LTP359	ltpFR2	0	13	SWORD	1423	n/a	n/a	0	0	0
2753719	DISTRACTOR	n/a	LTP359	ltpFR2	0	14	n/a	n/a	n/a	n/a	0	0	0
2753719	START	n/a	LTP359	ltpFR2	0	n/a	n/a	n/a	21	n/a	n/a	n/a	n/a
2753736	PROB	n/a	LTP359	ltpFR2	0	n/a	n/a	n/a	21	17	8	7	2
2755852	PROB	n/a	LTP359	ltpFR2	0	n/a	n/a	n/a	21	19	9	5	5
2757667	PROB	n/a	LTP359	ltpFR2	0	n/a	n/a	n/a	21	18	5	8	5
2759135	PROB	n/a	LTP359	ltpFR2	0	n/a	n/a	n/a	21	16	7	8	1
2761217	PROB	n/a	LTP359	ltpFR2	0	n/a	n/a	n/a	21	12	7	4	1
2763033	PROB	n/a	LTP359	ltpFR2	0	n/a	n/a	n/a	21	14	6	3	5
2766713	PROB	n/a	LTP359	ltpFR2	0	n/a	n/a	n/a	21	23	6	9	8
2769513	PROB	n/a	LTP359	ltpFR2	0	n/a	n/a	n/a	21	15	7	7	1
2771129	PROB	n/a	LTP359	ltpFR2	0	n/a	n/a	n/a	21	18	5	6	7
2777718	STOP	n/a	LTP359	ltpFR2	0	n/a	n/a	n/a	21	n/a	n/a	n/a	n/a
2778891	WORD	wordpools/wasnorm_wordpool_576.txt	LTP359	ltpFR2	0	14	SHORTS	1293	n/a	n/a	0	0	0
2781458	WORD	wordpools/wasnorm_wordpool_576.txt	LTP359	ltpFR2	0	14	CIGAR	308	n/a	n/a	0	0	0
2784223	WORD	wordpools/wasnorm_wordpool_576.txt	LTP359	ltpFR2	0	14	MARKER	870	n/a	n/a	0	0	0
2786738	WORD	wordpools/wasnorm_wordpool_576.txt	LTP359	ltpFR2	0	14	PIGMENT	1066	n/a	n/a	0	0	0
2789454	WORD	wordpools/wasnorm_wordpool_576.txt	LTP359	ltpFR2	0	14	CORAL	378	n/a	n/a	0	0	0
2792036	WORD	wordpools/wasnorm_wordpool_576.txt	LTP359	ltpFR2	0	14	DORM	488	n/a	n/a	0	0	0
2794717	WORD	wordpools/wasnorm_wordpool_576.txt	LTP359	ltpFR2	0	14	BIKE	125	n/a	n/a	0	0	0
2797184	WORD	wordpools/wasnorm_wordpool_576.txt	LTP359	ltpFR2	0	14	COOK	372	n/a	n/a	0	0	0
2799898	WORD	wordpools/wasnorm_wordpool_576.txt	LTP359	ltpFR2	0	14	MOTOR	922	n/a	n/a	0	0	0
2802565	WORD	wordpools/wasnorm_wordpool_576.txt	LTP359	ltpFR2	0	14	DANCER	437	n/a	n/a	0	0	0
2805047	WORD	wordpools/wasnorm_wordpool_576.txt	LTP359	ltpFR2	0	14	BRANDY	169	n/a	n/a	0	0	0
2807861	WORD	wordpools/wasnorm_wordpool_576.txt	LTP359	ltpFR2	0	14	SCOTCH	1251	n/a	n/a	0	0	0
2810311	WORD	wordpools/wasnorm_wordpool_576.txt	LTP359	ltpFR2	0	14	PICNIC	1060	n/a	n/a	0	0	0
2813077	WORD	wordpools/wasnorm_wordpool_576.txt	LTP359	ltpFR2	0	14	LODGE	839	n/a	n/a	0	0	0
2815526	WORD	wordpools/wasnorm_wordpool_576.txt	LTP359	ltpFR2	0	14	SLOPE	1328	n/a	n/a	0	0	0
2818158	WORD	wordpools/wasnorm_wordpool_576.txt	LTP359	ltpFR2	0	14	DOLPHIN	483	n/a	n/a	0	0	0
2820672	WORD	wordpools/wasnorm_wordpool_576.txt	LTP359	ltpFR2	0	14	CAMEL	223	n/a	n/a	0	0	0
2823389	WORD	wordpools/wasnorm_wordpool_576.txt	LTP359	ltpFR2	0	14	PASTRY	1022	n/a	n/a	0	0	0
2826104	WORD	wordpools/wasnorm_wordpool_576.txt	LTP359	ltpFR2	0	14	ROOSTER	1209	n/a	n/a	0	0	0
2828620	WORD	wordpools/wasnorm_wordpool_576.txt	LTP359	ltpFR2	0	14	CLOUD	328	n/a	n/a	0	0	0
2831052	WORD	wordpools/wasnorm_wordpool_576.txt	LTP359	ltpFR2	0	14	PATIENT	1024	n/a	n/a	0	0	0
2833833	WORD	wordpools/wasnorm_wordpool_576.txt	LTP359	ltpFR2	0	14	HELMET	702	n/a	n/a	0	0	0
2836366	WORD	wordpools/wasnorm_wordpool_576.txt	LTP359	ltpFR2	0	14	JOURNAL	760	n/a	n/a	0	0	0
2839115	WORD	wordpools/wasnorm_wordpool_576.txt	LTP359	ltpFR2	0	14	BADGE	68	n/a	n/a	0	0	0
2840730	START	n/a	LTP359	ltpFR2	0	n/a	n/a	n/a	22	n/a	n/a	n/a	n/a
2841686	DISTRACTOR	n/a	LTP359	ltpFR2	0	14	n/a	n/a	n/a	n/a	0	0	0
2841696	PROB	n/a	LTP359	ltpFR2	0	n/a	n/a	n/a	22	21	4	9	8
2846045	PROB	n/a	LTP359	ltpFR2	0	n/a	n/a	n/a	22	20	3	9	8
2849776	PROB	n/a	LTP359	ltpFR2	0	n/a	n/a	n/a	22	16	5	6	5
2851808	PROB	n/a	LTP359	ltpFR2	0	n/a	n/a	n/a	22	12	2	9	1
2853292	PROB	n/a	LTP359	ltpFR2	0	n/a	n/a	n/a	22	17	3	9	5
2855690	PROB	n/a	LTP359	ltpFR2	0	n/a	n/a	n/a	22	17	8	1	8
2857855	PROB	n/a	LTP359	ltpFR2	0	n/a	n/a	n/a	22	13	8	3	2
2860422	PROB	n/a	LTP359	ltpFR2	0	n/a	n/a	n/a	22	16	4	5	7
2863868	STOP	n/a	LTP359	ltpFR2	0	n/a	n/a	n/a	22	n/a	n/a	n/a	n/a
2866603	REC_START	n/a	LTP359	ltpFR2	0	14	n/a	n/a	n/a	n/a	0	0	0
2868003	REC_WORD_VV	wordpools/wasnorm_wordpool_576.txt	LTP359	ltpFR2	0	14	<>	-1	n/a	n/a	0	0	0
2873949	REC_WORD	wordpools/wasnorm_wordpool_576.txt	LTP359	ltpFR2	0	14	LODGE	839	n/a	n/a	0	0	0
2875771	REC_WORD	wordpools/wasnorm_wordpool_576.txt	LTP359	ltpFR2	0	14	PICNIC	1060	n/a	n/a	0	0	0
2877192	REC_WORD	wordpools/wasnorm_wordpool_576.txt	LTP359	ltpFR2	0	14	SLOPE	1328	n/a	n/a	0	0	0
2878192	REC_WORD_VV	wordpools/wasnorm_wordpool_576.txt	LTP359	ltpFR2	0	14	<>	-1	n/a	n/a	0	0	0
2879236	REC_WORD	wordpools/wasnorm_wordpool_576.txt	LTP359	ltpFR2	0	14	BRANDY	169	n/a	n/a	0	0	0
2881372	REC_WORD_VV	wordpools/wasnorm_wordpool_576.txt	LTP359	ltpFR2	0	14	<>	-1	n/a	n/a	0	0	0
2881588	REC_WORD	wordpools/wasnorm_wordpool_576.txt	LTP359	ltpFR2	0	14	SLOPE	1328	n/a	n/a	0	0	0
2882304	REC_WORD	wordpools/wasnorm_wordpool_576.txt	LTP359	ltpFR2	0	14	BRANDY	169	n/a	n/a	0	0	0
2883579	REC_WORD	wordpools/wasnorm_wordpool_576.txt	LTP359	ltpFR2	0	14	SCOTCH	1251	n/a	n/a	0	0	0
2884629	REC_WORD	wordpools/wasnorm_wordpool_576.txt	LTP359	ltpFR2	0	14	DANCER	437	n/a	n/a	0	0	0
2885727	REC_WORD	wordpools/wasnorm_wordpool_576.txt	LTP359	ltpFR2	0	14	DORM	488	n/a	n/a	0	0	0
2887115	REC_WORD	wordpools/wasnorm_wordpool_576.txt	LTP359	ltpFR2	0	14	COOK	372	n/a	n/a	0	0	0
2887978	REC_WORD	wordpools/wasnorm_wordpool_576.txt	LTP359	ltpFR2	0	14	BIKE	125	n/a	n/a	0	0	0
2888732	REC_WORD	wordpools/wasnorm_wordpool_576.txt	LTP359	ltpFR2	0	14	ROOSTER	1209	n/a	n/a	0	0	0
2904520	REC_WORD	wordpools/wasnorm_wordpool_576.txt	LTP359	ltpFR2	0	14	CAMEL	223	n/a	n/a	0	0	0
2957028	DISTRACTOR	n/a	LTP359	ltpFR2	0	15	n/a	n/a	n/a	n/a	0	0	0
2957028	START	n/a	LTP359	ltpFR2	0	n/a	n/a	n/a	23	n/a	n/a	n/a	n/a
2957045	PROB	n/a	LTP359	ltpFR2	0	n/a	n/a	n/a	23	18	9	8	1
2959127	PROB	n/a	LTP359	ltpFR2	0	n/a	n/a	n/a	23	12	5	2	5
2960543	PROB	n/a	LTP359	ltpFR2	0	n/a	n/a	n/a	23	13	1	9	3
2962758	PROB	n/a	LTP359	ltpFR2	0	n/a	n/a	n/a	23	15	6	2	7
2964258	PROB	n/a	LTP359	ltpFR2	0	n/a	n/a	n/a	23	17	7	5	5
2965608	PROB	n/a	LTP359	ltpFR2	0	n/a	n/a	n/a	23	20	5	9	6
2967672	PROB	n/a	LTP359	ltpFR2	0	n/a	n/a	n/a	23	8	1	4	3
2969023	PROB	n/a	LTP359	ltpFR2	0	n/a	n/a	n/a	23	16	3	4	9
2971138	PROB	n/a	LTP359	ltpFR2	0	n/a	n/a	n/a	23	20	9	7	4
2973471	PROB	n/a	LTP359	ltpFR2	0	n/a	n/a	n/a	23	17	4	4	9
2975137	PROB	n/a	LTP359	ltpFR2	0	n/a	n/a	n/a	23	20	6	9	3
2981027	STOP	n/a	LTP359	ltpFR2	0	n/a	n/a	n/a	23	n/a	n/a	n/a	n/a
2982000	WORD	wordpools/wasnorm_wordpool_576.txt	LTP359	ltpFR2	0	15	HEADBAND	696	n/a	n/a	0	0	0
2984449	WORD	wordpools/wasnorm_wordpool_576.txt	LTP359	ltpFR2	0	15	SCISSORS	1250	n/a	n/a	0	0	0
2986914	WORD	wordpools/wasnorm_wordpool_576.txt	LTP359	ltpFR2	0	15	KITCHEN	778	n/a	n/a	0	0	0
2989397	WORD	wordpools/wasnorm_wordpool_576.txt	LTP359	ltpFR2	0	15	PICTURE	1061	n/a	n/a	0	0	0
2992179	WORD	wordpools/wasnorm_wordpool_576.txt	LTP359	ltpFR2	0	15	LUGGAGE	847	n/a	n/a	0	0	0
2994710	WORD	wordpools/wasnorm_wordpool_576.txt	LTP359	ltpFR2	0	15	COFFEE	341	n/a	n/a	0	0	0
2997460	WORD	wordpools/wasnorm_wordpool_576.txt	LTP359	ltpFR2	0	15	OYSTER	995	n/a	n/a	0	0	0
2999992	WORD	wordpools/wasnorm_wordpool_576.txt	LTP359	ltpFR2	0	15	SCALLOP	1242	n/a	n/a	0	0	0
3002790	WORD	wordpools/wasnorm_wordpool_576.txt	LTP359	ltpFR2	0	15	QUEEN	1149	n/a	n/a	0	0	0
3005406	WORD	wordpools/wasnorm_wordpool_576.txt	LTP359	ltpFR2	0	15	TWISTER	1530	n/a	n/a	0	0	0
3008005	WORD	wordpools/wasnorm_wordpool_576.txt	LTP359	ltpFR2	0	15	FLEET	578	n/a	n/a	0	0	0
3010621	WORD	wordpools/wasnorm_wordpool_576.txt	LTP359	ltpFR2	0	15	SWITCH	1422	n/a	n/a	0	0	0
3013253	WORD	wordpools/wasnorm_wordpool_576.txt	LTP359	ltpFR2	0	15	OZONE	996	n/a	n/a	0	0	0
3016051	WORD	wordpools/wasnorm_wordpool_576.txt	LTP359	ltpFR2	0	15	PRINCE	1124	n/a	n/a	0	0	0
3018500	WORD	wordpools/wasnorm_wordpool_576.txt	LTP359	ltpFR2	0	15	COCOON	339	n/a	n/a	0	0	0
3021116	WORD	wordpools/wasnorm_wordpool_576.txt	LTP359	ltpFR2	0	15	SERVER	1272	n/a	n/a	0	0	0
3023730	WORD	wordpools/wasnorm_wordpool_576.txt	LTP359	ltpFR2	0	15	MUMMY	932	n/a	n/a	0	0	0
3026197	WORD	wordpools/wasnorm_wordpool_576.txt	LTP359	ltpFR2	0	15	TABLE	1426	n/a	n/a	0	0	0
3028861	WORD	wordpools/wasnorm_wordpool_576.txt	LTP359	ltpFR2	0	15	BUG	187	n/a	n/a	0	0	0
3031578	WORD	wordpools/wasnorm_wordpool_576.txt	LTP359	ltpFR2	0	15	STOVE	1388	n/a	n/a	0	0	0
3034177	WORD	wordpools/wasnorm_wordpool_576.txt	LTP359	ltpFR2	0	15	PUDDLE	1140	n/a	n/a	0	0	0
3036959	WORD	wordpools/wasnorm_wordpool_576.txt	LTP359	ltpFR2	0	15	BATHTUB	100	n/a	n/a	0	0	0
3039640	WORD	wordpools/wasnorm_wordpool_576.txt	LTP359	ltpFR2	0	15	COUCH	386	n/a	n/a	0	0	0
3042356	WORD	wordpools/wasnorm_wordpool_576.txt	LTP359	ltpFR2	0	15	GIFT	635	n/a	n/a	0	0	0
3043972	START	n/a	LTP359	ltpFR2	0	n/a	n/a	n/a	24	n/a	n/a	n/a	n/a
3044809	DISTRACTOR	n/a	LTP359	ltpFR2	0	15	n/a	n/a	n/a	n/a	0	0	0
3044821	PROB	n/a	LTP359	ltpFR2	0	n/a	n/a	n/a	24	15	1	8	6
3046971	PROB	n/a	LTP359	ltpFR2	0	n/a	n/a	n/a	24	6	1	3	2
3048337	PROB	n/a	LTP359	ltpFR2	0	n/a	n/a	n/a	24	10	1	3	6
3049785	PROB	n/a	LTP359	ltpFR2	0	n/a	n/a	n/a	24	15	7	4	4
3052368	PROB	n/a	LTP359	ltpFR2	0	n/a	n/a	n/a	24	19	9	6	4
3054101	PROB	n/a	LTP359	ltpFR2	0	n/a	n/a	n/a	24	13	5	1	7
3056167	PROB	n/a	LTP359	ltpFR2	0	n/a	n/a	n/a	24	11	4	1	6
3058032	PROB	n/a	LTP359	ltpFR2	0	n/a	n/a	n/a	24	20	9	5	6
3061114	PROB	n/a	LTP359	ltpFR2	0	n/a	n/a	n/a	24	10	3	2	5
3062514	PROB	n/a	LTP359	ltpFR2	0	n/a	n/a	n/a	24	1	2	6	5
3067972	STOP	n/a	LTP359	ltpFR2	0	n/a	n/a	n/a	24	n/a	n/a	n/a	n/a
3069895	REC_START	n/a	LTP359	ltpFR2	0	15	n/a	n/a	n/a	n/a	0	0	0
3071151	REC_WORD	wordpools/wasnorm_wordpool_576.txt	LTP359	ltpFR2	0	15	KITCHEN	778	n/a	n/a	0	0	0
3072033	REC_WORD	wordpools/wasnorm_wordpool_576.txt	LTP359	ltpFR2	0	15	SCISSORS	1250	n/a	n/a	0	0	0
3073033	REC_WORD_VV	wordpools/wasnorm_wordpool_576.txt	LTP359	ltpFR2	0	15	<>	-1	n/a	n/a	0	0	0
3073767	REC_WORD	wordpools/wasnorm_wordpool_576.txt	LTP359	ltpFR2	0	15	STOVE	1388	n/a	n/a	0	0	0
3075237	REC_WORD	wordpools/wasnorm_wordpool_576.txt	LTP359	ltpFR2	0	15	COUCH	386	n/a	n/a	0	0	0
3076205	REC_WORD	wordpools/wasnorm_wordpool_576.txt	LTP359	ltpFR2	0	15	GIFT	635	n/a	n/a	0	0	0
3077196	REC_WORD	wordpools/wasnorm_wordpool_576.txt	LTP359	ltpFR2	0	15	BATHROOM	99	n/a	n/a	0	0	0
3079096	REC_WORD	wordpools/wasnorm_wordpool_576.txt	LTP359	ltpFR2	0	15	BATHTUB	100	n/a	n/a	0	0	0
3080791	REC_WORD	wordpools/wasnorm_wordpool_576.txt	LTP359	ltpFR2	0	15	PUDDLE	1140	n/a	n/a	0	0	0
3094209	REC_WORD	wordpools/wasnorm_wordpool_576.txt	LTP359	ltpFR2	0	15	FLEET	578	n/a	n/a	0	0	0
3160319	DISTRACTOR	n/a	LTP359	ltpFR2	0	16	n/a	n/a	n/a	n/a	0	0	0
3160320	START	n/a	LTP359	ltpFR2	0	n/a	n/a	n/a	25	n/a	n/a	n/a	n/a
3160336	PROB	n/a	LTP359	ltpFR2	0	n/a	n/a	n/a	25	10	4	4	2
3162934	PROB	n/a	LTP359	ltpFR2	0	n/a	n/a	n/a	25	9	1	7	1
3164601	PROB	n/a	LTP359	ltpFR2	0	n/a	n/a	n/a	25	7	4	1	2
3166899	PROB	n/a	LTP359	ltpFR2	0	n/a	n/a	n/a	25	18	9	1	8
3168616	PROB	n/a	LTP359	ltpFR2	0	n/a	n/a	n/a	25	25	7	9	9
3171930	PROB	n/a	LTP359	ltpFR2	0	n/a	n/a	n/a	25	24	8	9	7
3177278	PROB	n/a	LTP359	ltpFR2	0	n/a	n/a	n/a	25	15	6	4	5
3178727	PROB	n/a	LTP359	ltpFR2	0	n/a	n/a	n/a	25	13	4	1	8
3182781	STOP	n/a	LTP359	ltpFR2	0	n/a	n/a	n/a	25	n/a	n/a	n/a	n/a
3185441	WORD	wordpools/wasnorm_wordpool_576.txt	LTP359	ltpFR2	0	16	CLOCK	325	n/a	n/a	0	0	0
3188223	WORD	wordpools/wasnorm_wordpool_576.txt	LTP359	ltpFR2	0	16	BANJO	82	n/a	n/a	0	0	0
3191022	WORD	wordpools/wasnorm_wordpool_576.txt	LTP359	ltpFR2	0	16	HARP	689	n/a	n/a	0	0	0
3193720	WORD	wordpools/wasnorm_wordpool_576.txt	LTP359	ltpFR2	0	16	TERMITE	1451	n/a	n/a	0	0	0
3196236	WORD	wordpools/wasnorm_wordpool_576.txt	LTP359	ltpFR2	0	16	FRECKLE	602	n/a	n/a	0	0	0
3198718	WORD	wordpools/wasnorm_wordpool_576.txt	LTP359	ltpFR2	0	16	BOUQUET	157	n/a	n/a	0	0	0
3201367	WORD	wordpools/wasnorm_wordpool_576.txt	LTP359	ltpFR2	0	16	COTTAGE	384	n/a	n/a	0	0	0
3204033	WORD	wordpools/wasnorm_wordpool_576.txt	LTP359	ltpFR2	0	16	CABBAGE	210	n/a	n/a	0	0	0
3206681	WORD	wordpools/wasnorm_wordpool_576.txt	LTP359	ltpFR2	0	16	SHOVEL	1295	n/a	n/a	0	0	0
3209230	WORD	wordpools/wasnorm_wordpool_576.txt	LTP359	ltpFR2	0	16	DONKEY	484	n/a	n/a	0	0	0
3212046	WORD	wordpools/wasnorm_wordpool_576.txt	LTP359	ltpFR2	0	16	PLATE	1086	n/a	n/a	0	0	0
3214660	WORD	wordpools/wasnorm_wordpool_576.txt	LTP359	ltpFR2	0	16	BANQUET	86	n/a	n/a	0	0	0
3217343	WORD	wordpools/wasnorm_wordpool_576.txt	LTP359	ltpFR2	0	16	TORTOISE	1486	n/a	n/a	0	0	0
3220126	WORD	wordpools/wasnorm_wordpool_576.txt	LTP359	ltpFR2	0	16	SPIDER	1351	n/a	n/a	0	0	0
3222823	WORD	wordpools/wasnorm_wordpool_576.txt	LTP359	ltpFR2	0	16	FLIPPER	580	n/a	n/a	0	0	0
3225407	WORD	wordpools/wasnorm_wordpool_576.txt	LTP359	ltpFR2	0	16	NURSE	963	n/a	n/a	0	0	0
3227904	WORD	wordpools/wasnorm_wordpool_576.txt	LTP359	ltpFR2	0	16	RELISH	1183	n/a	n/a	0	0	0
3230354	WORD	wordpools/wasnorm_wordpool_576.txt	LTP359	ltpFR2	0	16	WAITRESS	1581	n/a	n/a	0	0	0
3233036	WORD	wordpools/wasnorm_wordpool_576.txt	LTP359	ltpFR2	0	16	GLASS	639	n/a	n/a	0	0	0
3235784	WORD	wordpools/wasnorm_wordpool_576.txt	LTP359	ltpFR2	0	16	FARMER	553	n/a	n/a	0	0	0
3238517	WORD	wordpools/wasnorm_wordpool_576.txt	LTP359	ltpFR2	0	16	SANDWICH	1232	n/a	n/a	0	0	0
3241033	WORD	wordpools/wasnorm_wordpool_576.txt	LTP359	ltpFR2	0	16	TRANSPLANT	1496	n/a	n/a	0	0	0
3243797	WORD	wordpools/wasnorm_wordpool_576.txt	LTP359	ltpFR2	0	16	OINTMENT	974	n/a	n/a	0	0	0
3246530	WORD	wordpools/wasnorm_wordpool_576.txt	LTP359	ltpFR2	0	16	TABLET	1427	n/a	n/a	0	0	0
3248146	START	n/a	LTP359	ltpFR2	0	n/a	n/a	n/a	26	n/a	n/a	n/a	n/a
3249281	DISTRACTOR	n/a	LTP359	ltpFR2	0	16	n/a	n/a	n/a	n/a	0	0	0
3249296	PROB	n/a	LTP359	ltpFR2	0	n/a	n/a	n/a	26	15	4	5	6
3254343	PROB	n/a	LTP359	ltpFR2	0	n/a	n/a	n/a	26	5	1	2	2
3255576	PROB	n/a	LTP359	ltpFR2	0	n/a	n/a	n/a	26	21	9	3	9
3258991	PROB	n/a	LTP359	ltpFR2	0	n/a	n/a	n/a	26	16	8	6	2
3262107	PROB	n/a	LTP359	ltpFR2	0	n/a	n/a	n/a	26	18	7	2	9
3263623	PROB	n/a	LTP359	ltpFR2	0	n/a	n/a	n/a	26	12	3	2	7
3265455	PROB	n/a	LTP359	ltpFR2	0	n/a	n/a	n/a	26	15	5	9	1
3267038	PROB	n/a	LTP359	ltpFR2	0	n/a	n/a	n/a	26	19	8	7	4
3268953	PROB	n/a	LTP359	ltpFR2	0	n/a	n/a	n/a	26	16	4	7	5
3272146	STOP	n/a	LTP359	ltpFR2	0	n/a	n/a	n/a	26	n/a	n/a	n/a	n/a
3273985	REC_START	n/a	LTP359	ltpFR2	0	16	n/a	n/a	n/a	n/a	0	0	0
3275443	REC_WORD	wordpools/wasnorm_wordpool_576.txt	LTP359	ltpFR2	0	16	TERMITE	1451	n/a	n/a	0	0	0
3276372	REC_WORD	wordpools/wasnorm_wordpool_576.txt	LTP359	ltpFR2	0	16	TABLET	1427	n/a	n/a	0	0	0
3277205	REC_WORD	wordpools/wasnorm_wordpool_576.txt	LTP359	ltpFR2	0	16	TRANSPLANT	1496	n/a	n/a	0	0	0
3278357	REC_WORD	wordpools/wasnorm_wordpool_576.txt	LTP359	ltpFR2	0	16	NURSE	963	n/a	n/a	0	0	0
3280602	REC_WORD	wordpools/wasnorm_wordpool_576.txt	LTP359	ltpFR2	0	16	SANDWICH	1232	n/a	n/a	0	0	0
3281697	REC_WORD	wordpools/wasnorm_wordpool_576.txt	LTP359	ltpFR2	0	16	RELISH	1183	n/a	n/a	0	0	0
3282685	REC_WORD	wordpools/wasnorm_wordpool_576.txt	LTP359	ltpFR2	0	16	FARMER	553	n/a	n/a	0	0	0
3294819	REC_WORD	wordpools/wasnorm_wordpool_576.txt	LTP359	ltpFR2	0	16	BANQUET	86	n/a	n/a	0	0	0
3295496	REC_WORD	wordpools/wasnorm_wordpool_576.txt	LTP359	ltpFR2	0	16	BOUQUET	157	n/a	n/a	0	0	0
3296749	REC_WORD	wordpools/wasnorm_wordpool_576.txt	LTP359	ltpFR2	0	16	GLASS	639	n/a	n/a	0	0	0
3297694	REC_WORD	wordpools/wasnorm_wordpool_576.txt	LTP359	ltpFR2	0	16	WAITRESS	1581	n/a	n/a	0	0	0
3301148	REC_WORD	wordpools/wasnorm_wordpool_576.txt	LTP359	ltpFR2	0	16	CABBAGE	210	n/a	n/a	0	0	0
3302098	REC_WORD	wordpools/wasnorm_wordpool_576.txt	LTP359	ltpFR2	0	16	COTTAGE	384	n/a	n/a	0	0	0
3350516	REST_REWET	n/a	LTP359	ltpFR2	0	16	n/a	n/a	n/a	n/a	0	0	0
3478891	WORD	wordpools/wasnorm_wordpool_576.txt	LTP359	ltpFR2	0	17	FLESH	579	n/a	n/a	0	0	0
3481490	WORD	wordpools/wasnorm_wordpool_576.txt	LTP359	ltpFR2	0	17	MILK	895	n/a	n/a	0	0	0
3484189	WORD	wordpools/wasnorm_wordpool_576.txt	LTP359	ltpFR2	0	17	FIREMAN	569	n/a	n/a	0	0	0
3486637	WORD	wordpools/wasnorm_wordpool_576.txt	LTP359	ltpFR2	0	17	PADDING	999	n/a	n/a	0	0	0
3489237	WORD	wordpools/wasnorm_wordpool_576.txt	LTP359	ltpFR2	0	17	ANTLER	29	n/a	n/a	0	0	0
3491735	WORD	wordpools/wasnorm_wordpool_576.txt	LTP359	ltpFR2	0	17	VAGRANT	1544	n/a	n/a	0	0	0
3494534	WORD	wordpools/wasnorm_wordpool_576.txt	LTP359	ltpFR2	0	17	DUST	508	n/a	n/a	0	0	0
3497283	WORD	wordpools/wasnorm_wordpool_576.txt	LTP359	ltpFR2	0	17	CLAMP	316	n/a	n/a	0	0	0
3499999	WORD	wordpools/wasnorm_wordpool_576.txt	LTP359	ltpFR2	0	17	MATCH	878	n/a	n/a	0	0	0
3502597	WORD	wordpools/wasnorm_wordpool_576.txt	LTP359	ltpFR2	0	17	SILK	1307	n/a	n/a	0	0	0
3505096	WORD	wordpools/wasnorm_wordpool_576.txt	LTP359	ltpFR2	0	17	SLIME	1327	n/a	n/a	0	0	0
3507761	WORD	wordpools/wasnorm_wordpool_576.txt	LTP359	ltpFR2	0	17	MILDEW	893	n/a	n/a	0	0	0
3510261	WORD	wordpools/wasnorm_wordpool_576.txt	LTP359	ltpFR2	0	17	WINDOW	1611	n/a	n/a	0	0	0
3513059	WORD	wordpools/wasnorm_wordpool_576.txt	LTP359	ltpFR2	0	17	WITNESS	1618	n/a	n/a	0	0	0
3515807	WORD	wordpools/wasnorm_wordpool_576.txt	LTP359	ltpFR2	0	17	FOX	598	n/a	n/a	0	0	0
3518240	WORD	wordpools/wasnorm_wordpool_576.txt	LTP359	ltpFR2	0	17	SAUSAGE	1238	n/a	n/a	0	0	0
3521056	WORD	wordpools/wasnorm_wordpool_576.txt	LTP359	ltpFR2	0	17	UMPIRE	1535	n/a	n/a	0	0	0
3523521	WORD	wordpools/wasnorm_wordpool_576.txt	LTP359	ltpFR2	0	17	GALLON	618	n/a	n/a	0	0	0
3526287	WORD	wordpools/wasnorm_wordpool_576.txt	LTP359	ltpFR2	0	17	BOARD	143	n/a	n/a	0	0	0
3528718	WORD	wordpools/wasnorm_wordpool_576.txt	LTP359	ltpFR2	0	17	QUAIL	1147	n/a	n/a	0	0	0
3531151	WORD	wordpools/wasnorm_wordpool_576.txt	LTP359	ltpFR2	0	17	BOX	159	n/a	n/a	0	0	0
3533749	WORD	wordpools/wasnorm_wordpool_576.txt	LTP359	ltpFR2	0	17	BINDER	127	n/a	n/a	0	0	0
3536232	WORD	wordpools/wasnorm_wordpool_576.txt	LTP359	ltpFR2	0	17	FEMALE	559	n/a	n/a	0	0	0
3539031	WORD	wordpools/wasnorm_wordpool_576.txt	LTP359	ltpFR2	0	17	WOMAN	1620	n/a	n/a	0	0	0
3540646	START	n/a	LTP359	ltpFR2	0	n/a	n/a	n/a	27	n/a	n/a	n/a	n/a
3541574	DISTRACTOR	n/a	LTP359	ltpFR2	0	17	n/a	n/a	n/a	n/a	0	0	0
3541580	PROB	n/a	LTP359	ltpFR2	0	n/a	n/a	n/a	27	4	1	1	2
3543546	PROB	n/a	LTP359	ltpFR2	0	n/a	n/a	n/a	27	23	6	9	8
3546161	PROB	n/a	LTP359	ltpFR2	0	n/a	n/a	n/a	27	12	7	1	4
3548627	PROB	n/a	LTP359	ltpFR2	0	n/a	n/a	n/a	27	21	5	7	9
3550143	PROB	n/a	LTP359	ltpFR2	0	n/a	n/a	n/a	27	17	9	1	7
3551707	PROB	n/a	LTP359	ltpFR2	0	n/a	n/a	n/a	27	17	9	6	2
3553558	PROB	n/a	LTP359	ltpFR2	0	n/a	n/a	n/a	27	15	2	5	8
3555224	PROB	n/a	LTP359	ltpFR2	0	n/a	n/a	n/a	27	10	3	1	6
3557439	PROB	n/a	LTP359	ltpFR2	0	n/a	n/a	n/a	27	13	3	2	8
3559255	PROB	n/a	LTP359	ltpFR2	0	n/a	n/a	n/a	27	17	9	6	2
3564646	STOP	n/a	LTP359	ltpFR2	0	n/a	n/a	n/a	27	n/a	n/a	n/a	n/a
3566486	REC_START	n/a	LTP359	ltpFR2	0	17	n/a	n/a	n/a	n/a	0	0	0
3567451	REC_WORD	wordpools/wasnorm_wordpool_576.txt	LTP359	ltpFR2	0	17	FEMALE	559	n/a	n/a	0	0	0
3568573	REC_WORD	wordpools/wasnorm_wordpool_576.txt	LTP359	ltpFR2	0	17	WOMAN	1620	n/a	n/a	0	0	0
3569555	REC_WORD	wordpools/wasnorm_wordpool_576.txt	LTP359	ltpFR2	0	17	VAGRANT	1544	n/a	n/a	0	0	0
3570933	REC_WORD	wordpools/wasnorm_wordpool_576.txt	LTP359	ltpFR2	0	17	DUST	508	n/a	n/a	0	0	0
3572038	REC_WORD	wordpools/wasnorm_wordpool_576.txt	LTP359	ltpFR2	0	17	CLAMP	316	n/a	n/a	0	0	0
3573000	REC_WORD	wordpools/wasnorm_wordpool_576.txt	LTP359	ltpFR2	0	17	MATCH	878	n/a	n/a	0	0	0
3574083	REC_WORD	wordpools/wasnorm_wordpool_576.txt	LTP359	ltpFR2	0	17	FIREMAN	569	n/a	n/a	0	0	0
3575412	REC_WORD	wordpools/wasnorm_wordpool_576.txt	LTP359	ltpFR2	0	17	FLESH	579	n/a	n/a	0	0	0
3578357	REC_WORD	wordpools/wasnorm_wordpool_576.txt	LTP359	ltpFR2	0	17	MILDEW	893	n/a	n/a	0	0	0
3579306	REC_WORD	wordpools/wasnorm_wordpool_576.txt	LTP359	ltpFR2	0	17	WINDOW	1611	n/a	n/a	0	0	0
3580336	REC_WORD	wordpools/wasnorm_wordpool_576.txt	LTP359	ltpFR2	0	17	WITNESS	1618	n/a	n/a	0	0	0
3606928	REC_WORD	wordpools/wasnorm_wordpool_576.txt	LTP359	ltpFR2	0	17	ANTLER	29	n/a	n/a	0	0	0
3609854	REC_WORD	wordpools/wasnorm_wordpool_576.txt	LTP359	ltpFR2	0	17	UMPIRE	1535	n/a	n/a	0	0	0
3611902	REC_WORD	wordpools/wasnorm_wordpool_576.txt	LTP359	ltpFR2	0	17	SAUSAGE	1238	n/a	n/a	0	0	0
3656944	DISTRACTOR	n/a	LTP359	ltpFR2	0	18	n/a	n/a	n/a	n/a	0	0	0
3656944	START	n/a	LTP359	ltpFR2	0	n/a	n/a	n/a	28	n/a	n/a	n/a	n/a
3656961	PROB	n/a	LTP359	ltpFR2	0	n/a	n/a	n/a	28	15	8	4	3
3660808	PROB	n/a	LTP359	ltpFR2	0	n/a	n/a	n/a	28	20	8	9	3
3665274	PROB	n/a	LTP359	ltpFR2	0	n/a	n/a	n/a	28	11	2	7	2
3667722	PROB	n/a	LTP359	ltpFR2	0	n/a	n/a	n/a	28	12	6	4	2
3668921	PROB	n/a	LTP359	ltpFR2	0	n/a	n/a	n/a	28	19	9	3	7
3670455	PROB	n/a	LTP359	ltpFR2	0	n/a	n/a	n/a	28	20	8	8	4
3672287	PROB	n/a	LTP359	ltpFR2	0	n/a	n/a	n/a	28	22	8	6	8
3674619	PROB	n/a	LTP359	ltpFR2	0	n/a	n/a	n/a	28	11	2	7	2
3676169	PROB	n/a	LTP359	ltpFR2	0	n/a	n/a	n/a	28	20	9	9	2
3677618	PROB	n/a	LTP359	ltpFR2	0	n/a	n/a	n/a	28	13	5	5	3
3678917	PROB	n/a	LTP359	ltpFR2	0	n/a	n/a	n/a	28	18	6	9	3
3680917	STOP	n/a	LTP359	ltpFR2	0	n/a	n/a	n/a	28	n/a	n/a	n/a	n/a
3681949	WORD	wordpools/wasnorm_wordpool_576.txt	LTP359	ltpFR2	0	18	MOTEL	919	n/a	n/a	0	0	0
3684398	WORD	wordpools/wasnorm_wordpool_576.txt	LTP359	ltpFR2	0	18	BABY	64	n/a	n/a	0	0	0
3687114	WORD	wordpools/wasnorm_wordpool_576.txt	LTP359	ltpFR2	0	18	BUGGY	188	n/a	n/a	0	0	0
3689629	WORD	wordpools/wasnorm_wordpool_576.txt	LTP359	ltpFR2	0	18	SMOG	1330	n/a	n/a	0	0	0
3692162	WORD	wordpools/wasnorm_wordpool_576.txt	LTP359	ltpFR2	0	18	HAWK	692	n/a	n/a	0	0	0
3694659	WORD	wordpools/wasnorm_wordpool_576.txt	LTP359	ltpFR2	0	18	PREACHER	1119	n/a	n/a	0	0	0
3697259	WORD	wordpools/wasnorm_wordpool_576.txt	LTP359	ltpFR2	0	18	FRIAR	605	n/a	n/a	0	0	0
3699757	WORD	wordpools/wasnorm_wordpool_576.txt	LTP359	ltpFR2	0	18	EAGLE	512	n/a	n/a	0	0	0
3702490	WORD	wordpools/wasnorm_wordpool_576.txt	LTP359	ltpFR2	0	18	SUITCASE	1403	n/a	n/a	0	0	0
3704938	WORD	wordpools/wasnorm_wordpool_576.txt	LTP359	ltpFR2	0	18	TOASTER	1472	n/a	n/a	0	0	0
3707653	WORD	wordpools/wasnorm_wordpool_576.txt	LTP359	ltpFR2	0	18	MARKET	871	n/a	n/a	0	0	0
3710187	WORD	wordpools/wasnorm_wordpool_576.txt	LTP359	ltpFR2	0	18	SNAIL	1332	n/a	n/a	0	0	0
3712651	WORD	wordpools/wasnorm_wordpool_576.txt	LTP359	ltpFR2	0	18	ZEBRA	1635	n/a	n/a	0	0	0
3715468	WORD	wordpools/wasnorm_wordpool_576.txt	LTP359	ltpFR2	0	18	LAVA	804	n/a	n/a	0	0	0
3718216	WORD	wordpools/wasnorm_wordpool_576.txt	LTP359	ltpFR2	0	18	BRIEFCASE	175	n/a	n/a	0	0	0
3720648	WORD	wordpools/wasnorm_wordpool_576.txt	LTP359	ltpFR2	0	18	SHERIFF	1284	n/a	n/a	0	0	0
3723114	WORD	wordpools/wasnorm_wordpool_576.txt	LTP359	ltpFR2	0	18	PLAZA	1088	n/a	n/a	0	0	0
3725878	WORD	wordpools/wasnorm_wordpool_576.txt	LTP359	ltpFR2	0	18	SIBLING	1301	n/a	n/a	0	0	0
3728395	WORD	wordpools/wasnorm_wordpool_576.txt	LTP359	ltpFR2	0	18	LAMP	798	n/a	n/a	0	0	0
3731177	WORD	wordpools/wasnorm_wordpool_576.txt	LTP359	ltpFR2	0	18	PASSAGE	1019	n/a	n/a	0	0	0
3733725	WORD	wordpools/wasnorm_wordpool_576.txt	LTP359	ltpFR2	0	18	FOREST	593	n/a	n/a	0	0	0
3736175	WORD	wordpools/wasnorm_wordpool_576.txt	LTP359	ltpFR2	0	18	WAGON	1578	n/a	n/a	0	0	0
3738923	WORD	wordpools/wasnorm_wordpool_576.txt	LTP359	ltpFR2	0	18	SADDLE	1221	n/a	n/a	0	0	0
3741622	WORD	wordpools/wasnorm_wordpool_576.txt	LTP359	ltpFR2	0	18	HOSTESS	723	n/a	n/a	0	0	0
3743238	START	n/a	LTP359	ltpFR2	0	n/a	n/a	n/a	29	n/a	n/a	n/a	n/a
3744413	DISTRACTOR	n/a	LTP359	ltpFR2	0	18	n/a	n/a	n/a	n/a	0	0	0
3744421	PROB	n/a	LTP359	ltpFR2	0	n/a	n/a	n/a	29	17	7	5	5
3746953	PROB	n/a	LTP359	ltpFR2	0	n/a	n/a	n/a	29	8	2	5	1
3748785	PROB	n/a	LTP359	ltpFR2	0	n/a	n/a	n/a	29	14	4	9	1
3750751	PROB	n/a	LTP359	ltpFR2	0	n/a	n/a	n/a	29	18	9	6	3
3753001	PROB	n/a	LTP359	ltpFR2	0	n/a	n/a	n/a	29	9	4	2	3
3755183	PROB	n/a	LTP359	ltpFR2	0	n/a	n/a	n/a	29	12	1	7	4
3756748	PROB	n/a	LTP359	ltpFR2	0	n/a	n/a	n/a	29	25	7	8	8
3760929	PROB	n/a	LTP359	ltpFR2	0	n/a	n/a	n/a	29	16	9	4	3
3767238	STOP	n/a	LTP359	ltpFR2	0	n/a	n/a	n/a	29	n/a	n/a	n/a	n/a
3769044	REC_START	n/a	LTP359	ltpFR2	0	18	n/a	n/a	n/a	n/a	0	0	0
3773893	REC_WORD	wordpools/wasnorm_wordpool_576.txt	LTP359	ltpFR2	0	18	SNAIL	1332	n/a	n/a	0	0	0
3779815	REC_WORD	wordpools/wasnorm_wordpool_576.txt	LTP359	ltpFR2	0	18	HAWK	692	n/a	n/a	0	0	0
3781020	REC_WORD	wordpools/wasnorm_wordpool_576.txt	LTP359	ltpFR2	0	18	EAGLE	512	n/a	n/a	0	0	0
3782332	REC_WORD	wordpools/wasnorm_wordpool_576.txt	LTP359	ltpFR2	0	18	BABY	64	n/a	n/a	0	0	0
3783475	REC_WORD	wordpools/wasnorm_wordpool_576.txt	LTP359	ltpFR2	0	18	ZEBRA	1635	n/a	n/a	0	0	0
3788256	REC_WORD	wordpools/wasnorm_wordpool_576.txt	LTP359	ltpFR2	0	18	MARKET	871	n/a	n/a	0	0	0
3789291	REC_WORD	wordpools/wasnorm_wordpool_576.txt	LTP359	ltpFR2	0	18	TOASTER	1472	n/a	n/a	0	0	0
3790685	REC_WORD	wordpools/wasnorm_wordpool_576.txt	LTP359	ltpFR2	0	18	PASSAGE	1019	n/a	n/a	0	0	0
3791849	REC_WORD	wordpools/wasnorm_wordpool_576.txt	LTP359	ltpFR2	0	18	FOREST	593	n/a	n/a	0	0	0
3793071	REC_WORD	wordpools/wasnorm_wordpool_576.txt	LTP359	ltpFR2	0	18	WAGON	1578	n/a	n/a	0	0	0
3794306	REC_WORD	wordpools/wasnorm_wordpool_576.txt	LTP359	ltpFR2	0	18	LUGGAGE	847	n/a	n/a	0	0	0
3795306	REC_WORD_VV	wordpools/wasnorm_wordpool_576.txt	LTP359	ltpFR2	0	18	<>	-1	n/a	n/a	0	0	0
3800441	REC_WORD	wordpools/wasnorm_wordpool_576.txt	LTP359	ltpFR2	0	18	SUITCASE	1403	n/a	n/a	0	0	0
3801441	REC_WORD_VV	wordpools/wasnorm_wordpool_576.txt	LTP359	ltpFR2	0	18	<>	-1	n/a	n/a	0	0	0
3824810	REC_WORD	wordpools/wasnorm_wordpool_576.txt	LTP359	ltpFR2	0	18	HOSTESS	723	n/a	n/a	0	0	0
3859486	WORD	wordpools/wasnorm_wordpool_576.txt	LTP359	ltpFR2	0	19	NOTEBOOK	959	n/a	n/a	0	0	0
3862318	WORD	wordpools/wasnorm_wordpool_576.txt	LTP359	ltpFR2	0	19	BASEMENT	94	n/a	n/a	0	0	0
3864766	WORD	wordpools/wasnorm_wordpool_576.txt	LTP359	ltpFR2	0	19	BLUEPRINT	142	n/a	n/a	0	0	0
3867499	WORD	wordpools/wasnorm_wordpool_576.txt	LTP359	ltpFR2	0	19	SEAFOOD	1260	n/a	n/a	0	0	0
3870064	WORD	wordpools/wasnorm_wordpool_576.txt	LTP359	ltpFR2	0	19	JUDGE	761	n/a	n/a	0	0	0
3872563	WORD	wordpools/wasnorm_wordpool_576.txt	LTP359	ltpFR2	0	19	PLASTER	1085	n/a	n/a	0	0	0
3875112	WORD	wordpools/wasnorm_wordpool_576.txt	LTP359	ltpFR2	0	19	AGENT	10	n/a	n/a	0	0	0
3877760	WORD	wordpools/wasnorm_wordpool_576.txt	LTP359	ltpFR2	0	19	STAPLE	1371	n/a	n/a	0	0	0
3880443	WORD	wordpools/wasnorm_wordpool_576.txt	LTP359	ltpFR2	0	19	NAPKIN	937	n/a	n/a	0	0	0
3882992	WORD	wordpools/wasnorm_wordpool_576.txt	LTP359	ltpFR2	0	19	BRICK	172	n/a	n/a	0	0	0
3885673	WORD	wordpools/wasnorm_wordpool_576.txt	LTP359	ltpFR2	0	19	AIRPORT	13	n/a	n/a	0	0	0
3888339	WORD	wordpools/wasnorm_wordpool_576.txt	LTP359	ltpFR2	0	19	EYELASH	546	n/a	n/a	0	0	0
3891088	WORD	wordpools/wasnorm_wordpool_576.txt	LTP359	ltpFR2	0	19	PERMIT	1051	n/a	n/a	0	0	0
3893636	WORD	wordpools/wasnorm_wordpool_576.txt	LTP359	ltpFR2	0	19	JAPAN	749	n/a	n/a	0	0	0
3896219	WORD	wordpools/wasnorm_wordpool_576.txt	LTP359	ltpFR2	0	19	HAND	683	n/a	n/a	0	0	0
3898900	WORD	wordpools/wasnorm_wordpool_576.txt	LTP359	ltpFR2	0	19	SPARROW	1347	n/a	n/a	0	0	0
3901649	WORD	wordpools/wasnorm_wordpool_576.txt	LTP359	ltpFR2	0	19	PIGEON	1065	n/a	n/a	0	0	0
3904082	WORD	wordpools/wasnorm_wordpool_576.txt	LTP359	ltpFR2	0	19	COCKTAIL	338	n/a	n/a	0	0	0
3906614	WORD	wordpools/wasnorm_wordpool_576.txt	LTP359	ltpFR2	0	19	SKETCH	1315	n/a	n/a	0	0	0
3909163	WORD	wordpools/wasnorm_wordpool_576.txt	LTP359	ltpFR2	0	19	DRIVER	499	n/a	n/a	0	0	0
3911828	WORD	wordpools/wasnorm_wordpool_576.txt	LTP359	ltpFR2	0	19	TROUT	1511	n/a	n/a	0	0	0
3914411	WORD	wordpools/wasnorm_wordpool_576.txt	LTP359	ltpFR2	0	19	LAPEL	800	n/a	n/a	0	0	0
3916909	WORD	wordpools/wasnorm_wordpool_576.txt	LTP359	ltpFR2	0	19	GRAPE	654	n/a	n/a	0	0	0
3919475	WORD	wordpools/wasnorm_wordpool_576.txt	LTP359	ltpFR2	0	19	EXPERT	543	n/a	n/a	0	0	0
3921091	START	n/a	LTP359	ltpFR2	0	n/a	n/a	n/a	30	n/a	n/a	n/a	n/a
3922184	DISTRACTOR	n/a	LTP359	ltpFR2	0	19	n/a	n/a	n/a	n/a	0	0	0
3922191	PROB	n/a	LTP359	ltpFR2	0	n/a	n/a	n/a	30	8	3	1	4
3924373	PROB	n/a	LTP359	ltpFR2	0	n/a	n/a	n/a	30	24	9	8	7
3929021	PROB	n/a	LTP359	ltpFR2	0	n/a	n/a	n/a	30	8	1	3	4
3930919	PROB	n/a	LTP359	ltpFR2	0	n/a	n/a	n/a	30	12	2	7	3
3932602	PROB	n/a	LTP359	ltpFR2	0	n/a	n/a	n/a	30	11	1	8	2
3934684	PROB	n/a	LTP359	ltpFR2	0	n/a	n/a	n/a	30	9	3	5	1
3936666	PROB	n/a	LTP359	ltpFR2	0	n/a	n/a	n/a	30	12	4	4	8
3938283	PROB	n/a	LTP359	ltpFR2	0	n/a	n/a	n/a	30	14	4	5	5
3942515	PROB	n/a	LTP359	ltpFR2	0	n/a	n/a	n/a	30	6	2	1	3
3944230	STOP	n/a	LTP359	ltpFR2	0	n/a	n/a	n/a	30	n/a	n/a	n/a	n/a
3946912	REC_START	n/a	LTP359	ltpFR2	0	19	n/a	n/a	n/a	n/a	0	0	0
3947764	REC_WORD	wordpools/wasnorm_wordpool_576.txt	LTP359	ltpFR2	0	19	GRAPE	654	n/a	n/a	0	0	0
3948596	REC_WORD	wordpools/wasnorm_wordpool_576.txt	LTP359	ltpFR2	0	19	EXPERT	543	n/a	n/a	0	0	0
3949466	REC_WORD	wordpools/wasnorm_wordpool_576.txt	LTP359	ltpFR2	0	19	LAPEL	800	n/a	n/a	0	0	0
3951465	REC_WORD	wordpools/wasnorm_wordpool_576.txt	LTP359	ltpFR2	0	19	JUDGE	761	n/a	n/a	0	0	0
3952320	REC_WORD	wordpools/wasnorm_wordpool_576.txt	LTP359	ltpFR2	0	19	COCKTAIL	338	n/a	n/a	0	0	0
3953418	REC_WORD	wordpools/wasnorm_wordpool_576.txt	LTP359	ltpFR2	0	19	NAPKIN	937	n/a	n/a	0	0	0
3954581	REC_WORD	wordpools/wasnorm_wordpool_576.txt	LTP359	ltpFR2	0	19	SKETCH	1315	n/a	n/a	0	0	0
3955947	REC_WORD	wordpools/wasnorm_wordpool_576.txt	LTP359	ltpFR2	0	19	AIRPORT	13	n/a	n/a	0	0	0
3957092	REC_WORD	wordpools/wasnorm_wordpool_576.txt	LTP359	ltpFR2	0	19	BRICK	172	n/a	n/a	0	0	0
3958031	REC_WORD	wordpools/wasnorm_wordpool_576.txt	LTP359	ltpFR2	0	19	EYELASH	546	n/a	n/a	0	0	0
3959115	REC_WORD	wordpools/wasnorm_wordpool_576.txt	LTP359	ltpFR2	0	19	PLASTER	1085	n/a	n/a	0	0	0
3960278	REC_WORD	wordpools/wasnorm_wordpool_576.txt	LTP359	ltpFR2	0	19	AGENT	10	n/a	n/a	0	0	0
3962747	REC_WORD	wordpools/wasnorm_wordpool_576.txt	LTP359	ltpFR2	0	19	SPARROW	1347	n/a	n/a	0	0	0
3966689	REC_WORD	wordpools/wasnorm_wordpool_576.txt	LTP359	ltpFR2	0	19	PIGEON	1065	n/a	n/a	0	0	0
4037355	DISTRACTOR	n/a	LTP359	ltpFR2	0	20	n/a	n/a	n/a	n/a	0	0	0
4037355	START	n/a	LTP359	ltpFR2	0	n/a	n/a	n/a	31	n/a	n/a	n/a	n/a
4037372	PROB	n/a	LTP359	ltpFR2	0	n/a	n/a	n/a	31	8	5	1	2
4039454	PROB	n/a	LTP359	ltpFR2	0	n/a	n/a	n/a	31	15	5	1	9
4041253	PROB	n/a	LTP359	ltpFR2	0	n/a	n/a	n/a	31	20	6	7	7
4043734	PROB	n/a	LTP359	ltpFR2	0	n/a	n/a	n/a	31	12	3	4	5
4045817	PROB	n/a	LTP359	ltpFR2	0	n/a	n/a	n/a	31	21	7	5	9
4048250	PROB	n/a	LTP359	ltpFR2	0	n/a	n/a	n/a	31	12	4	3	5
4049898	PROB	n/a	LTP359	ltpFR2	0	n/a	n/a	n/a	31	17	8	2	7
4051399	PROB	n/a	LTP359	ltpFR2	0	n/a	n/a	n/a	31	14	8	5	1
4053913	PROB	n/a	LTP359	ltpFR2	0	n/a	n/a	n/a	31	12	1	4	7
4055980	PROB	n/a	LTP359	ltpFR2	0	n/a	n/a	n/a	31	11	8	2	1
4057429	PROB	n/a	LTP359	ltpFR2	0	n/a	n/a	n/a	31	24	6	9	9
4061355	STOP	n/a	LTP359	ltpFR2	0	n/a	n/a	n/a	31	n/a	n/a	n/a	n/a
4062360	WORD	wordpools/wasnorm_wordpool_576.txt	LTP359	ltpFR2	0	20	DRUG	501	n/a	n/a	0	0	0
4065042	WORD	wordpools/wasnorm_wordpool_576.txt	LTP359	ltpFR2	0	20	BLENDER	136	n/a	n/a	0	0	0
4067707	WORD	wordpools/wasnorm_wordpool_576.txt	LTP359	ltpFR2	0	20	COWBOY	395	n/a	n/a	0	0	0
4070323	WORD	wordpools/wasnorm_wordpool_576.txt	LTP359	ltpFR2	0	20	WIDOW	1608	n/a	n/a	0	0	0
4073122	WORD	wordpools/wasnorm_wordpool_576.txt	LTP359	ltpFR2	0	20	DRINK	498	n/a	n/a	0	0	0
4075820	WORD	wordpools/wasnorm_wordpool_576.txt	LTP359	ltpFR2	0	20	MEDAL	885	n/a	n/a	0	0	0
4078286	WORD	wordpools/wasnorm_wordpool_576.txt	LTP359	ltpFR2	0	20	CASKET	255	n/a	n/a	0	0	0
4080851	WORD	wordpools/wasnorm_wordpool_576.txt	LTP359	ltpFR2	0	20	POISON	1096	n/a	n/a	0	0	0
4083666	WORD	wordpools/wasnorm_wordpool_576.txt	LTP359	ltpFR2	0	20	SWIMMER	1420	n/a	n/a	0	0	0
4086133	WORD	wordpools/wasnorm_wordpool_576.txt	LTP359	ltpFR2	0	20	CASHIER	254	n/a	n/a	0	0	0
4088914	WORD	wordpools/wasnorm_wordpool_576.txt	LTP359	ltpFR2	0	20	GREASE	660	n/a	n/a	0	0	0
4091430	WORD	wordpools/wasnorm_wordpool_576.txt	LTP359	ltpFR2	0	20	GHETTO	633	n/a	n/a	0	0	0
4094129	WORD	wordpools/wasnorm_wordpool_576.txt	LTP359	ltpFR2	0	20	BUREAU	199	n/a	n/a	0	0	0
4096894	WORD	wordpools/wasnorm_wordpool_576.txt	LTP359	ltpFR2	0	20	PEACH	1031	n/a	n/a	0	0	0
4099360	WORD	wordpools/wasnorm_wordpool_576.txt	LTP359	ltpFR2	0	20	TWIG	1527	n/a	n/a	0	0	0
4101808	WORD	wordpools/wasnorm_wordpool_576.txt	LTP359	ltpFR2	0	20	SHRUB	1299	n/a	n/a	0	0	0
4104591	WORD	wordpools/wasnorm_wordpool_576.txt	LTP359	ltpFR2	0	20	FRAME	600	n/a	n/a	0	0	0
4107107	WORD	wordpools/wasnorm_wordpool_576.txt	LTP359	ltpFR2	0	20	TRUCK	1512	n/a	n/a	0	0	0
4109606	WORD	wordpools/wasnorm_wordpool_576.txt	LTP359	ltpFR2	0	20	SUMMIT	1405	n/a	n/a	0	0	0
4112238	WORD	wordpools/wasnorm_wordpool_576.txt	LTP359	ltpFR2	0	20	HERO	706	n/a	n/a	0	0	0
4114686	WORD	wordpools/wasnorm_wordpool_576.txt	LTP359	ltpFR2	0	20	CARRIAGE	248	n/a	n/a	0	0	0
4117302	WORD	wordpools/wasnorm_wordpool_576.txt	LTP359	ltpFR2	0	20	BANKER	84	n/a	n/a	0	0	0
4120034	WORD	wordpools/wasnorm_wordpool_576.txt	LTP359	ltpFR2	0	20	BLOUSE	139	n/a	n/a	0	0	0
4122799	WORD	wordpools/wasnorm_wordpool_576.txt	LTP359	ltpFR2	0	20	SHOULDER	1294	n/a	n/a	0	0	0
4124416	START	n/a	LTP359	ltpFR2	0	n/a	n/a	n/a	32	n/a	n/a	n/a	n/a
4125411	DISTRACTOR	n/a	LTP359	ltpFR2	0	20	n/a	n/a	n/a	n/a	0	0	0
4125415	PROB	n/a	LTP359	ltpFR2	0	n/a	n/a	n/a	32	15	7	7	1
4127331	PROB	n/a	LTP359	ltpFR2	0	n/a	n/a	n/a	32	13	8	3	2
4129963	PROB	n/a	LTP359	ltpFR2	0	n/a	n/a	n/a	32	12	4	4	4
4131496	PROB	n/a	LTP359	ltpFR2	0	n/a	n/a	n/a	32	17	7	5	5
4132827	PROB	n/a	LTP359	ltpFR2	0	n/a	n/a	n/a	32	14	4	3	7
4134810	PROB	n/a	LTP359	ltpFR2	0	n/a	n/a	n/a	32	13	5	2	6
4137443	PROB	n/a	LTP359	ltpFR2	0	n/a	n/a	n/a	32	20	7	4	9
4139209	PROB	n/a	LTP359	ltpFR2	0	n/a	n/a	n/a	32	20	4	9	7
4142541	PROB	n/a	LTP359	ltpFR2	0	n/a	n/a	n/a	32	14	4	1	9
4144323	PROB	n/a	LTP359	ltpFR2	0	n/a	n/a	n/a	32	14	4	9	1
4147308	STOP	n/a	LTP359	ltpFR2	0	n/a	n/a	n/a	32	n/a	n/a	n/a	n/a
4150338	REC_START	n/a	LTP359	ltpFR2	0	20	n/a	n/a	n/a	n/a	0	0	0
4150969	REC_WORD	wordpools/wasnorm_wordpool_576.txt	LTP359	ltpFR2	0	20	DRUG	501	n/a	n/a	0	0	0
4151782	REC_WORD	wordpools/wasnorm_wordpool_576.txt	LTP359	ltpFR2	0	20	BLENDER	136	n/a	n/a	0	0	0
4152777	REC_WORD	wordpools/wasnorm_wordpool_576.txt	LTP359	ltpFR2	0	20	BLOUSE	139	n/a	n/a	0	0	0
4153748	REC_WORD	wordpools/wasnorm_wordpool_576.txt	LTP359	ltpFR2	0	20	BANKER	84	n/a	n/a	0	0	0
4155804	REC_WORD	wordpools/wasnorm_wordpool_576.txt	LTP359	ltpFR2	0	20	WIDOW	1608	n/a	n/a	0	0	0
4156356	REC_WORD	wordpools/wasnorm_wordpool_576.txt	LTP359	ltpFR2	0	20	HERO	706	n/a	n/a	0	0	0
4157572	REC_WORD	wordpools/wasnorm_wordpool_576.txt	LTP359	ltpFR2	0	20	MEDAL	885	n/a	n/a	0	0	0
4158680	REC_WORD	wordpools/wasnorm_wordpool_576.txt	LTP359	ltpFR2	0	20	CARRIAGE	248	n/a	n/a	0	0	0
4240795	WORD	wordpools/wasnorm_wordpool_576.txt	LTP359	ltpFR2	0	21	CANYON	235	n/a	n/a	0	0	0
4243345	WORD	wordpools/wasnorm_wordpool_576.txt	LTP359	ltpFR2	0	21	STAMP	1370	n/a	n/a	0	0	0
4245826	WORD	wordpools/wasnorm_wordpool_576.txt	LTP359	ltpFR2	0	21	GUARD	667	n/a	n/a	0	0	0
4248359	WORD	wordpools/wasnorm_wordpool_576.txt	LTP359	ltpFR2	0	21	STATUE	1374	n/a	n/a	0	0	0
4251175	WORD	wordpools/wasnorm_wordpool_576.txt	LTP359	ltpFR2	0	21	SUNRISE	1407	n/a	n/a	0	0	0
4253990	WORD	wordpools/wasnorm_wordpool_576.txt	LTP359	ltpFR2	0	21	FLOWER	584	n/a	n/a	0	0	0
4256771	WORD	wordpools/wasnorm_wordpool_576.txt	LTP359	ltpFR2	0	21	DRAGON	492	n/a	n/a	0	0	0
4259471	WORD	wordpools/wasnorm_wordpool_576.txt	LTP359	ltpFR2	0	21	CUSTARD	429	n/a	n/a	0	0	0
4262170	WORD	wordpools/wasnorm_wordpool_576.txt	LTP359	ltpFR2	0	21	PARTNER	1017	n/a	n/a	0	0	0
4264851	WORD	wordpools/wasnorm_wordpool_576.txt	LTP359	ltpFR2	0	21	LOVER	846	n/a	n/a	0	0	0
4267467	WORD	wordpools/wasnorm_wordpool_576.txt	LTP359	ltpFR2	0	21	PERFUME	1049	n/a	n/a	0	0	0
4270116	WORD	wordpools/wasnorm_wordpool_576.txt	LTP359	ltpFR2	0	21	LADDER	793	n/a	n/a	0	0	0
4272831	WORD	wordpools/wasnorm_wordpool_576.txt	LTP359	ltpFR2	0	21	JUNGLE	764	n/a	n/a	0	0	0
4275314	WORD	wordpools/wasnorm_wordpool_576.txt	LTP359	ltpFR2	0	21	BRANCH	168	n/a	n/a	0	0	0
4277862	WORD	wordpools/wasnorm_wordpool_576.txt	LTP359	ltpFR2	0	21	PAIL	1002	n/a	n/a	0	0	0
4280378	WORD	wordpools/wasnorm_wordpool_576.txt	LTP359	ltpFR2	0	21	ANKLE	24	n/a	n/a	0	0	0
4282909	WORD	wordpools/wasnorm_wordpool_576.txt	LTP359	ltpFR2	0	21	PATROL	1027	n/a	n/a	0	0	0
4285542	WORD	wordpools/wasnorm_wordpool_576.txt	LTP359	ltpFR2	0	21	PARROT	1015	n/a	n/a	0	0	0
4288091	WORD	wordpools/wasnorm_wordpool_576.txt	LTP359	ltpFR2	0	21	ISLAND	745	n/a	n/a	0	0	0
4290772	WORD	wordpools/wasnorm_wordpool_576.txt	LTP359	ltpFR2	0	21	FRUIT	610	n/a	n/a	0	0	0
4293472	WORD	wordpools/wasnorm_wordpool_576.txt	LTP359	ltpFR2	0	21	GRAVE	658	n/a	n/a	0	0	0
4296238	WORD	wordpools/wasnorm_wordpool_576.txt	LTP359	ltpFR2	0	21	FRAGRANCE	599	n/a	n/a	0	0	0
4298885	WORD	wordpools/wasnorm_wordpool_576.txt	LTP359	ltpFR2	0	21	PRINCESS	1125	n/a	n/a	0	0	0
4301619	WORD	wordpools/wasnorm_wordpool_576.txt	LTP359	ltpFR2	0	21	PALACE	1006	n/a	n/a	0	0	0
4303235	START	n/a	LTP359	ltpFR2	0	n/a	n/a	n/a	33	n/a	n/a	n/a	n/a
4304229	DISTRACTOR	n/a	LTP359	ltpFR2	0	21	n/a	n/a	n/a	n/a	0	0	0
4304234	PROB	n/a	LTP359	ltpFR2	0	n/a	n/a	n/a	33	12	4	4	4
4306083	PROB	n/a	LTP359	ltpFR2	0	n/a	n/a	n/a	33	20	9	4	7
4309482	PROB	n/a	LTP359	ltpFR2	0	n/a	n/a	n/a	33	14	7	5	2
4311364	PROB	n/a	LTP359	ltpFR2	0	n/a	n/a	n/a	33	10	1	8	1
4312662	PROB	n/a	LTP359	ltpFR2	0	n/a	n/a	n/a	33	13	7	5	1
4314229	PROB	n/a	LTP359	ltpFR2	0	n/a	n/a	n/a	33	12	4	5	3
4315995	PROB	n/a	LTP359	ltpFR2	0	n/a	n/a	n/a	33	13	3	8	2
4317495	PROB	n/a	LTP359	ltpFR2	0	n/a	n/a	n/a	33	17	6	3	8
4319594	PROB	n/a	LTP359	ltpFR2	0	n/a	n/a	n/a	33	14	1	6	7
4321426	PROB	n/a	LTP359	ltpFR2	0	n/a	n/a	n/a	33	13	6	6	1
4323209	PROB	n/a	LTP359	ltpFR2	0	n/a	n/a	n/a	33	12	6	1	5
4327235	STOP	n/a	LTP359	ltpFR2	0	n/a	n/a	n/a	33	n/a	n/a	n/a	n/a
4329107	REC_START	n/a	LTP359	ltpFR2	0	21	n/a	n/a	n/a	n/a	0	0	0
4330585	REC_WORD	wordpools/wasnorm_wordpool_576.txt	LTP359	ltpFR2	0	21	CANYON	235	n/a	n/a	0	0	0
4333842	REC_WORD	wordpools/wasnorm_wordpool_576.txt	LTP359	ltpFR2	0	21	LOVER	846	n/a	n/a	0	0	0
4334832	REC_WORD	wordpools/wasnorm_wordpool_576.txt	LTP359	ltpFR2	0	21	PARTNER	1017	n/a	n/a	0	0	0
4335659	REC_WORD	wordpools/wasnorm_wordpool_576.txt	LTP359	ltpFR2	0	21	FRAGRANCE	599	n/a	n/a	0	0	0
4337501	REC_WORD	wordpools/wasnorm_wordpool_576.txt	LTP359	ltpFR2	0	21	PERFUME	1049	n/a	n/a	0	0	0
4339211	REC_WORD	wordpools/wasnorm_wordpool_576.txt	LTP359	ltpFR2	0	21	PRINCESS	1125	n/a	n/a	0	0	0
4340613	REC_WORD	wordpools/wasnorm_wordpool_576.txt	LTP359	ltpFR2	0	21	PALACE	1006	n/a	n/a	0	0	0
4419582	WORD	wordpools/wasnorm_wordpool_576.txt	LTP359	ltpFR2	0	22	BACKBONE	66	n/a	n/a	0	0	0
4422014	WORD	wordpools/wasnorm_wordpool_576.txt	LTP359	ltpFR2	0	22	BALLOON	75	n/a	n/a	0	0	0
4424695	WORD	wordpools/wasnorm_wordpool_576.txt	LTP359	ltpFR2	0	22	MOP	916	n/a	n/a	0	0	0
4427378	WORD	wordpools/wasnorm_wordpool_576.txt	LTP359	ltpFR2	0	22	COD	340	n/a	n/a	0	0	0
4430094	WORD	wordpools/wasnorm_wordpool_576.txt	LTP359	ltpFR2	0	22	OUTDOORS	987	n/a	n/a	0	0	0
4432791	WORD	wordpools/wasnorm_wordpool_576.txt	LTP359	ltpFR2	0	22	PLIERS	1089	n/a	n/a	0	0	0
4435508	WORD	wordpools/wasnorm_wordpool_576.txt	LTP359	ltpFR2	0	22	VALVE	1546	n/a	n/a	0	0	0
4438140	WORD	wordpools/wasnorm_wordpool_576.txt	LTP359	ltpFR2	0	22	HOOD	714	n/a	n/a	0	0	0
4440771	WORD	wordpools/wasnorm_wordpool_576.txt	LTP359	ltpFR2	0	22	RUG	1215	n/a	n/a	0	0	0
