onset	duration	trial_type	sample	stim_file	subject	experiment	session	trial	item_name	item_num	list	answer	test_x	test_y	test_z
210.3876953125	n/a	SESS_START	430874	n/a	LTP391	ltpFR2	20	n/a	n/a	n/a	n/a	n/a	0	0	0
221.1865234375	n/a	START	452990	n/a	LTP391	ltpFR2	20	n/a	n/a	n/a	-1	n/a	n/a	n/a	n/a
221.20849609375	n/a	PROB	453035	n/a	LTP391	ltpFR2	20	n/a	n/a	n/a	-1	17	6	3	8
223.1474609375	n/a	PROB	457006	n/a	LTP391	ltpFR2	20	n/a	n/a	n/a	-1	16	6	6	4
225.17724609375	n/a	PROB	461163	n/a	LTP391	ltpFR2	20	n/a	n/a	n/a	-1	14	2	5	7
226.64794921875	n/a	PROB	464175	n/a	LTP391	ltpFR2	20	n/a	n/a	n/a	-1	18	8	6	4
227.9521484375	n/a	PROB	466846	n/a	LTP391	ltpFR2	20	n/a	n/a	n/a	-1	18	8	9	1
229.1962890625	n/a	PROB	469394	n/a	LTP391	ltpFR2	20	n/a	n/a	n/a	-1	21	7	6	8
231.26025390625	n/a	PROB	473621	n/a	LTP391	ltpFR2	20	n/a	n/a	n/a	-1	14	1	7	6
232.548828125	n/a	STOP	476260	n/a	LTP391	ltpFR2	20	n/a	n/a	n/a	-1	n/a	n/a	n/a	n/a
262.443359375	n/a	DISTRACTOR	537484	n/a	LTP391	ltpFR2	20	1	n/a	n/a	n/a	n/a	0	0	0
262.443359375	n/a	START	537484	n/a	LTP391	ltpFR2	20	n/a	n/a	n/a	1	n/a	n/a	n/a	n/a
262.4599609375	n/a	PROB	537518	n/a	LTP391	ltpFR2	20	n/a	n/a	n/a	1	14	6	6	2
264.46533203125	n/a	PROB	541625	n/a	LTP391	ltpFR2	20	n/a	n/a	n/a	1	18	4	6	8
265.51806640625	n/a	PROB	543781	n/a	LTP391	ltpFR2	20	n/a	n/a	n/a	1	14	7	4	3
266.85595703125	n/a	PROB	546521	n/a	LTP391	ltpFR2	20	n/a	n/a	n/a	1	21	9	6	6
268.326171875	n/a	PROB	549532	n/a	LTP391	ltpFR2	20	n/a	n/a	n/a	1	16	7	7	2
270.841796875	n/a	PROB	554684	n/a	LTP391	ltpFR2	20	n/a	n/a	n/a	1	18	7	8	3
272.7890625	n/a	PROB	558672	n/a	LTP391	ltpFR2	20	n/a	n/a	n/a	1	6	3	2	1
273.8828125	n/a	PROB	560912	n/a	LTP391	ltpFR2	20	n/a	n/a	n/a	1	17	2	6	9
275.61962890625	n/a	PROB	564469	n/a	LTP391	ltpFR2	20	n/a	n/a	n/a	1	11	9	1	1
276.73193359375	n/a	PROB	566747	n/a	LTP391	ltpFR2	20	n/a	n/a	n/a	1	15	8	3	4
278.0947265625	n/a	PROB	569538	n/a	LTP391	ltpFR2	20	n/a	n/a	n/a	1	10	2	4	4
280.12451171875	n/a	PROB	573695	n/a	LTP391	ltpFR2	20	n/a	n/a	n/a	1	18	7	5	6
282.02978515625	n/a	PROB	577597	n/a	LTP391	ltpFR2	20	n/a	n/a	n/a	1	13	5	7	1
283.53271484375	n/a	PROB	580675	n/a	LTP391	ltpFR2	20	n/a	n/a	n/a	1	16	6	1	9
284.9267578125	n/a	STOP	583530	n/a	LTP391	ltpFR2	20	n/a	n/a	n/a	1	n/a	n/a	n/a	n/a
287.46044921875	n/a	WORD	588719	wordpools/wasnorm_wordpool_576.txt	LTP391	ltpFR2	20	1	SHOULDER	1294	n/a	n/a	0	0	0
289.892578125	n/a	WORD	593700	wordpools/wasnorm_wordpool_576.txt	LTP391	ltpFR2	20	1	TABLET	1427	n/a	n/a	0	0	0
292.46533203125	n/a	WORD	598969	wordpools/wasnorm_wordpool_576.txt	LTP391	ltpFR2	20	1	SLOPE	1328	n/a	n/a	0	0	0
295.25634765625	n/a	WORD	604685	wordpools/wasnorm_wordpool_576.txt	LTP391	ltpFR2	20	1	STAR	1373	n/a	n/a	0	0	0
297.80517578125	n/a	WORD	609905	wordpools/wasnorm_wordpool_576.txt	LTP391	ltpFR2	20	1	BULLET	194	n/a	n/a	0	0	0
300.55322265625	n/a	WORD	615533	wordpools/wasnorm_wordpool_576.txt	LTP391	ltpFR2	20	1	ROBIN	1199	n/a	n/a	0	0	0
303.35205078125	n/a	WORD	621265	wordpools/wasnorm_wordpool_576.txt	LTP391	ltpFR2	20	1	PIGEON	1065	n/a	n/a	0	0	0
306.0439453125	n/a	WORD	626778	wordpools/wasnorm_wordpool_576.txt	LTP391	ltpFR2	20	1	PLUTO	1092	n/a	n/a	0	0	0
308.5498046875	n/a	WORD	631910	wordpools/wasnorm_wordpool_576.txt	LTP391	ltpFR2	20	1	PUPIL	1143	n/a	n/a	0	0	0
310.9658203125	n/a	WORD	636858	wordpools/wasnorm_wordpool_576.txt	LTP391	ltpFR2	20	1	SUMMIT	1405	n/a	n/a	0	0	0
313.39599609375	n/a	WORD	641835	wordpools/wasnorm_wordpool_576.txt	LTP391	ltpFR2	20	1	GLOBE	641	n/a	n/a	0	0	0
315.8369140625	n/a	WORD	646834	wordpools/wasnorm_wordpool_576.txt	LTP391	ltpFR2	20	1	SUNRISE	1407	n/a	n/a	0	0	0
318.48486328125	n/a	WORD	652257	wordpools/wasnorm_wordpool_576.txt	LTP391	ltpFR2	20	1	BUTCHER	203	n/a	n/a	0	0	0
321.00048828125	n/a	WORD	657409	wordpools/wasnorm_wordpool_576.txt	LTP391	ltpFR2	20	1	GLASS	639	n/a	n/a	0	0	0
323.47265625	n/a	WORD	662472	wordpools/wasnorm_wordpool_576.txt	LTP391	ltpFR2	20	1	BUGGY	188	n/a	n/a	0	0	0
326.1142578125	n/a	WORD	667882	wordpools/wasnorm_wordpool_576.txt	LTP391	ltpFR2	20	1	PLAZA	1088	n/a	n/a	0	0	0
328.72021484375	n/a	WORD	673219	wordpools/wasnorm_wordpool_576.txt	LTP391	ltpFR2	20	1	RECEIPT	1173	n/a	n/a	0	0	0
331.1435546875	n/a	WORD	678182	wordpools/wasnorm_wordpool_576.txt	LTP391	ltpFR2	20	1	TEACHER	1440	n/a	n/a	0	0	0
333.650390625	n/a	WORD	683316	wordpools/wasnorm_wordpool_576.txt	LTP391	ltpFR2	20	1	FINGER	567	n/a	n/a	0	0	0
336.4072265625	n/a	WORD	688962	wordpools/wasnorm_wordpool_576.txt	LTP391	ltpFR2	20	1	STALLION	1369	n/a	n/a	0	0	0
339.0400390625	n/a	WORD	694354	wordpools/wasnorm_wordpool_576.txt	LTP391	ltpFR2	20	1	CHILD	299	n/a	n/a	0	0	0
341.4541015625	n/a	WORD	699298	wordpools/wasnorm_wordpool_576.txt	LTP391	ltpFR2	20	1	CRIB	407	n/a	n/a	0	0	0
344.0791015625	n/a	WORD	704674	wordpools/wasnorm_wordpool_576.txt	LTP391	ltpFR2	20	1	HIGHWAY	707	n/a	n/a	0	0	0
346.5927734375	n/a	WORD	709822	wordpools/wasnorm_wordpool_576.txt	LTP391	ltpFR2	20	1	HONEY	713	n/a	n/a	0	0	0
348.19677734375	n/a	START	713107	n/a	LTP391	ltpFR2	20	n/a	n/a	n/a	2	n/a	n/a	n/a	n/a
349.1650390625	n/a	DISTRACTOR	715090	n/a	LTP391	ltpFR2	20	1	n/a	n/a	n/a	n/a	0	0	0
349.1748046875	n/a	PROB	715110	n/a	LTP391	ltpFR2	20	n/a	n/a	n/a	2	16	3	8	5
352.15771484375	n/a	PROB	721219	n/a	LTP391	ltpFR2	20	n/a	n/a	n/a	2	18	3	8	7
353.44482421875	n/a	PROB	723855	n/a	LTP391	ltpFR2	20	n/a	n/a	n/a	2	19	8	2	9
356.5107421875	n/a	PROB	730134	n/a	LTP391	ltpFR2	20	n/a	n/a	n/a	2	12	3	1	8
357.61376953125	n/a	PROB	732393	n/a	LTP391	ltpFR2	20	n/a	n/a	n/a	2	12	2	9	1
358.7333984375	n/a	PROB	734686	n/a	LTP391	ltpFR2	20	n/a	n/a	n/a	2	6	2	2	2
359.87939453125	n/a	PROB	737033	n/a	LTP391	ltpFR2	20	n/a	n/a	n/a	2	20	4	7	9
361.34033203125	n/a	PROB	740025	n/a	LTP391	ltpFR2	20	n/a	n/a	n/a	2	10	3	5	2
362.65234375	n/a	PROB	742712	n/a	LTP391	ltpFR2	20	n/a	n/a	n/a	2	22	6	7	9
363.92333984375	n/a	PROB	745315	n/a	LTP391	ltpFR2	20	n/a	n/a	n/a	2	16	2	5	9
365.392578125	n/a	PROB	748324	n/a	LTP391	ltpFR2	20	n/a	n/a	n/a	2	16	1	6	9
366.5625	n/a	PROB	750720	n/a	LTP391	ltpFR2	20	n/a	n/a	n/a	2	18	4	7	7
369.646484375	n/a	PROB	757036	n/a	LTP391	ltpFR2	20	n/a	n/a	n/a	2	22	6	8	8
371.50244140625	n/a	STOP	760837	n/a	LTP391	ltpFR2	20	n/a	n/a	n/a	2	n/a	n/a	n/a	n/a
373.96826171875	n/a	REC_START	765887	n/a	LTP391	ltpFR2	20	1	n/a	n/a	n/a	n/a	0	0	0
374.4072265625	n/a	REC_WORD	766786	wordpools/wasnorm_wordpool_576.txt	LTP391	ltpFR2	20	1	SHOULDER	1294	n/a	n/a	0	0	0
375.029296875	n/a	REC_WORD	768060	wordpools/wasnorm_wordpool_576.txt	LTP391	ltpFR2	20	1	FINGER	567	n/a	n/a	0	0	0
376.69921875	n/a	REC_WORD	771480	wordpools/wasnorm_wordpool_576.txt	LTP391	ltpFR2	20	1	BUTCHER	203	n/a	n/a	0	0	0
377.22802734375	n/a	REC_WORD	772563	wordpools/wasnorm_wordpool_576.txt	LTP391	ltpFR2	20	1	BULLET	194	n/a	n/a	0	0	0
377.78515625	n/a	REC_WORD	773704	wordpools/wasnorm_wordpool_576.txt	LTP391	ltpFR2	20	1	GLASS	639	n/a	n/a	0	0	0
378.96728515625	n/a	REC_WORD	776125	wordpools/wasnorm_wordpool_576.txt	LTP391	ltpFR2	20	1	SUMMIT	1405	n/a	n/a	0	0	0
379.64990234375	n/a	REC_WORD	777523	wordpools/wasnorm_wordpool_576.txt	LTP391	ltpFR2	20	1	SLOPE	1328	n/a	n/a	0	0	0
380.22705078125	n/a	REC_WORD	778705	wordpools/wasnorm_wordpool_576.txt	LTP391	ltpFR2	20	1	SUNRISE	1407	n/a	n/a	0	0	0
381.18212890625	n/a	REC_WORD	780661	wordpools/wasnorm_wordpool_576.txt	LTP391	ltpFR2	20	1	SUNSET	1408	n/a	n/a	0	0	0
382.47412109375	n/a	REC_WORD	783307	wordpools/wasnorm_wordpool_576.txt	LTP391	ltpFR2	20	1	PIGEON	1065	n/a	n/a	0	0	0
382.89990234375	n/a	REC_WORD	784179	wordpools/wasnorm_wordpool_576.txt	LTP391	ltpFR2	20	1	ROBIN	1199	n/a	n/a	0	0	0
383.923828125	n/a	REC_WORD	786276	wordpools/wasnorm_wordpool_576.txt	LTP391	ltpFR2	20	1	STALLION	1369	n/a	n/a	0	0	0
385.5810546875	n/a	REC_WORD	789670	wordpools/wasnorm_wordpool_576.txt	LTP391	ltpFR2	20	1	TEACHER	1440	n/a	n/a	0	0	0
386.02783203125	n/a	REC_WORD	790585	wordpools/wasnorm_wordpool_576.txt	LTP391	ltpFR2	20	1	PUPIL	1143	n/a	n/a	0	0	0
388.73779296875	n/a	REC_WORD	796135	wordpools/wasnorm_wordpool_576.txt	LTP391	ltpFR2	20	1	CHILD	299	n/a	n/a	0	0	0
389.32763671875	n/a	REC_WORD	797343	wordpools/wasnorm_wordpool_576.txt	LTP391	ltpFR2	20	1	CRIB	407	n/a	n/a	0	0	0
393.0966796875	n/a	REC_WORD	805062	wordpools/wasnorm_wordpool_576.txt	LTP391	ltpFR2	20	1	RECEIPT	1173	n/a	n/a	0	0	0
397.49169921875	n/a	REC_WORD	814063	wordpools/wasnorm_wordpool_576.txt	LTP391	ltpFR2	20	1	TABLET	1427	n/a	n/a	0	0	0
401.2763671875	n/a	REC_WORD	821814	wordpools/wasnorm_wordpool_576.txt	LTP391	ltpFR2	20	1	PLAZA	1088	n/a	n/a	0	0	0
407.853515625	n/a	REC_WORD	835284	wordpools/wasnorm_wordpool_576.txt	LTP391	ltpFR2	20	1	HIGHWAY	707	n/a	n/a	0	0	0
408.7841796875	n/a	REC_WORD	837190	wordpools/wasnorm_wordpool_576.txt	LTP391	ltpFR2	20	1	HONEY	713	n/a	n/a	0	0	0
464.3896484375	n/a	DISTRACTOR	951070	n/a	LTP391	ltpFR2	20	2	n/a	n/a	n/a	n/a	0	0	0
464.390625	n/a	START	951072	n/a	LTP391	ltpFR2	20	n/a	n/a	n/a	3	n/a	n/a	n/a	n/a
464.40673828125	n/a	PROB	951105	n/a	LTP391	ltpFR2	20	n/a	n/a	n/a	3	20	8	8	4
466.41162109375	n/a	PROB	955211	n/a	LTP391	ltpFR2	20	n/a	n/a	n/a	3	21	6	6	9
467.673828125	n/a	PROB	957796	n/a	LTP391	ltpFR2	20	n/a	n/a	n/a	3	13	2	6	5
469.0537109375	n/a	PROB	960622	n/a	LTP391	ltpFR2	20	n/a	n/a	n/a	3	14	3	3	8
470.2978515625	n/a	PROB	963170	n/a	LTP391	ltpFR2	20	n/a	n/a	n/a	3	15	9	4	2
471.8525390625	n/a	PROB	966354	n/a	LTP391	ltpFR2	20	n/a	n/a	n/a	3	9	5	2	2
473.19677734375	n/a	PROB	969107	n/a	LTP391	ltpFR2	20	n/a	n/a	n/a	3	15	5	5	5
474.32470703125	n/a	PROB	971417	n/a	LTP391	ltpFR2	20	n/a	n/a	n/a	3	13	5	3	5
476.857421875	n/a	PROB	976604	n/a	LTP391	ltpFR2	20	n/a	n/a	n/a	3	21	9	7	5
479.33837890625	n/a	PROB	981685	n/a	LTP391	ltpFR2	20	n/a	n/a	n/a	3	13	4	3	6
480.7421875	n/a	PROB	984560	n/a	LTP391	ltpFR2	20	n/a	n/a	n/a	3	22	8	8	6
482.154296875	n/a	PROB	987452	n/a	LTP391	ltpFR2	20	n/a	n/a	n/a	3	13	3	1	9
483.44140625	n/a	PROB	990088	n/a	LTP391	ltpFR2	20	n/a	n/a	n/a	3	13	4	5	3
485.34619140625	n/a	PROB	993989	n/a	LTP391	ltpFR2	20	n/a	n/a	n/a	3	11	4	4	3
488.06298828125	n/a	STOP	999553	n/a	LTP391	ltpFR2	20	n/a	n/a	n/a	3	n/a	n/a	n/a	n/a
489.365234375	n/a	WORD	1002220	wordpools/wasnorm_wordpool_576.txt	LTP391	ltpFR2	20	2	SUNSET	1408	n/a	n/a	0	0	0
491.8388671875	n/a	WORD	1007286	wordpools/wasnorm_wordpool_576.txt	LTP391	ltpFR2	20	2	SUSPECT	1415	n/a	n/a	0	0	0
494.64599609375	n/a	WORD	1013035	wordpools/wasnorm_wordpool_576.txt	LTP391	ltpFR2	20	2	VICTIM	1562	n/a	n/a	0	0	0
497.3779296875	n/a	WORD	1018630	wordpools/wasnorm_wordpool_576.txt	LTP391	ltpFR2	20	2	AUTHOR	61	n/a	n/a	0	0	0
500.1279296875	n/a	WORD	1024262	wordpools/wasnorm_wordpool_576.txt	LTP391	ltpFR2	20	2	MACHINE	852	n/a	n/a	0	0	0
502.69189453125	n/a	WORD	1029513	wordpools/wasnorm_wordpool_576.txt	LTP391	ltpFR2	20	2	OFFICE	972	n/a	n/a	0	0	0
505.29052734375	n/a	WORD	1034835	wordpools/wasnorm_wordpool_576.txt	LTP391	ltpFR2	20	2	CLOUD	328	n/a	n/a	0	0	0
508.04052734375	n/a	WORD	1040467	wordpools/wasnorm_wordpool_576.txt	LTP391	ltpFR2	20	2	ZIPPER	1636	n/a	n/a	0	0	0
510.83154296875	n/a	WORD	1046183	wordpools/wasnorm_wordpool_576.txt	LTP391	ltpFR2	20	2	SHIRT	1287	n/a	n/a	0	0	0
513.42041015625	n/a	WORD	1051485	wordpools/wasnorm_wordpool_576.txt	LTP391	ltpFR2	20	2	SPHINX	1349	n/a	n/a	0	0	0
515.97021484375	n/a	WORD	1056707	wordpools/wasnorm_wordpool_576.txt	LTP391	ltpFR2	20	2	PATIENT	1024	n/a	n/a	0	0	0
518.7353515625	n/a	WORD	1062370	wordpools/wasnorm_wordpool_576.txt	LTP391	ltpFR2	20	2	DIVER	476	n/a	n/a	0	0	0
521.30810546875	n/a	WORD	1067639	wordpools/wasnorm_wordpool_576.txt	LTP391	ltpFR2	20	2	GARLIC	624	n/a	n/a	0	0	0
523.80810546875	n/a	WORD	1072759	wordpools/wasnorm_wordpool_576.txt	LTP391	ltpFR2	20	2	SMOG	1330	n/a	n/a	0	0	0
526.42236328125	n/a	WORD	1078113	wordpools/wasnorm_wordpool_576.txt	LTP391	ltpFR2	20	2	DENIM	446	n/a	n/a	0	0	0
529.080078125	n/a	WORD	1083556	wordpools/wasnorm_wordpool_576.txt	LTP391	ltpFR2	20	2	MILDEW	893	n/a	n/a	0	0	0
531.787109375	n/a	WORD	1089100	wordpools/wasnorm_wordpool_576.txt	LTP391	ltpFR2	20	2	HERO	706	n/a	n/a	0	0	0
534.3681640625	n/a	WORD	1094386	wordpools/wasnorm_wordpool_576.txt	LTP391	ltpFR2	20	2	CRITIC	410	n/a	n/a	0	0	0
536.8427734375	n/a	WORD	1099454	wordpools/wasnorm_wordpool_576.txt	LTP391	ltpFR2	20	2	TROUT	1511	n/a	n/a	0	0	0
539.4990234375	n/a	WORD	1104894	wordpools/wasnorm_wordpool_576.txt	LTP391	ltpFR2	20	2	LASER	801	n/a	n/a	0	0	0
542.0068359375	n/a	WORD	1110030	wordpools/wasnorm_wordpool_576.txt	LTP391	ltpFR2	20	2	FILM	565	n/a	n/a	0	0	0
544.53662109375	n/a	WORD	1115211	wordpools/wasnorm_wordpool_576.txt	LTP391	ltpFR2	20	2	COCOON	339	n/a	n/a	0	0	0
547.16064453125	n/a	WORD	1120585	wordpools/wasnorm_wordpool_576.txt	LTP391	ltpFR2	20	2	CURTAIN	427	n/a	n/a	0	0	0
549.61767578125	n/a	WORD	1125617	wordpools/wasnorm_wordpool_576.txt	LTP391	ltpFR2	20	2	JEANS	752	n/a	n/a	0	0	0
551.2216796875	n/a	START	1128902	n/a	LTP391	ltpFR2	20	n/a	n/a	n/a	4	n/a	n/a	n/a	n/a
552.267578125	n/a	DISTRACTOR	1131044	n/a	LTP391	ltpFR2	20	2	n/a	n/a	n/a	n/a	0	0	0
552.2744140625	n/a	PROB	1131058	n/a	LTP391	ltpFR2	20	n/a	n/a	n/a	4	13	6	4	3
554.01318359375	n/a	PROB	1134619	n/a	LTP391	ltpFR2	20	n/a	n/a	n/a	4	10	4	3	4
556.67822265625	n/a	PROB	1140077	n/a	LTP391	ltpFR2	20	n/a	n/a	n/a	4	11	4	3	4
557.79052734375	n/a	PROB	1142355	n/a	LTP391	ltpFR2	20	n/a	n/a	n/a	4	14	1	9	4
560.92333984375	n/a	PROB	1148771	n/a	LTP391	ltpFR2	20	n/a	n/a	n/a	4	15	6	2	7
564.09814453125	n/a	PROB	1155273	n/a	LTP391	ltpFR2	20	n/a	n/a	n/a	4	18	3	9	6
565.576171875	n/a	PROB	1158300	n/a	LTP391	ltpFR2	20	n/a	n/a	n/a	4	12	5	1	6
566.77197265625	n/a	PROB	1160749	n/a	LTP391	ltpFR2	20	n/a	n/a	n/a	4	21	7	7	7
568.67578125	n/a	PROB	1164648	n/a	LTP391	ltpFR2	20	n/a	n/a	n/a	4	24	9	6	9
570.57275390625	n/a	PROB	1168533	n/a	LTP391	ltpFR2	20	n/a	n/a	n/a	4	14	1	6	7
571.69287109375	n/a	PROB	1170827	n/a	LTP391	ltpFR2	20	n/a	n/a	n/a	4	9	2	3	4
573.32177734375	n/a	PROB	1174163	n/a	LTP391	ltpFR2	20	n/a	n/a	n/a	4	12	4	2	6
574.95166015625	n/a	STOP	1177501	n/a	LTP391	ltpFR2	20	n/a	n/a	n/a	4	n/a	n/a	n/a	n/a
576.966796875	n/a	REC_START	1181628	n/a	LTP391	ltpFR2	20	2	n/a	n/a	n/a	n/a	0	0	0
578.6826171875	n/a	REC_WORD	1185142	wordpools/wasnorm_wordpool_576.txt	LTP391	ltpFR2	20	2	SUNSET	1408	n/a	n/a	0	0	0
579.4326171875	n/a	REC_WORD	1186678	wordpools/wasnorm_wordpool_576.txt	LTP391	ltpFR2	20	2	SUSPECT	1415	n/a	n/a	0	0	0
580.3447265625	n/a	REC_WORD	1188546	wordpools/wasnorm_wordpool_576.txt	LTP391	ltpFR2	20	2	VICTIM	1562	n/a	n/a	0	0	0
581.95751953125	n/a	REC_WORD	1191849	wordpools/wasnorm_wordpool_576.txt	LTP391	ltpFR2	20	2	JEANS	752	n/a	n/a	0	0	0
582.61474609375	n/a	REC_WORD	1193195	wordpools/wasnorm_wordpool_576.txt	LTP391	ltpFR2	20	2	DENIM	446	n/a	n/a	0	0	0
583.064453125	n/a	REC_WORD	1194116	wordpools/wasnorm_wordpool_576.txt	LTP391	ltpFR2	20	2	SHIRT	1287	n/a	n/a	0	0	0
583.83349609375	n/a	REC_WORD	1195691	wordpools/wasnorm_wordpool_576.txt	LTP391	ltpFR2	20	2	ZIPPER	1636	n/a	n/a	0	0	0
585.50634765625	n/a	REC_WORD	1199117	wordpools/wasnorm_wordpool_576.txt	LTP391	ltpFR2	20	2	SMOG	1330	n/a	n/a	0	0	0
587.32373046875	n/a	REC_WORD	1202839	wordpools/wasnorm_wordpool_576.txt	LTP391	ltpFR2	20	2	MILDEW	893	n/a	n/a	0	0	0
667.3984375	n/a	DISTRACTOR	1366832	n/a	LTP391	ltpFR2	20	3	n/a	n/a	n/a	n/a	0	0	0
667.3984375	n/a	START	1366832	n/a	LTP391	ltpFR2	20	n/a	n/a	n/a	5	n/a	n/a	n/a	n/a
667.41455078125	n/a	PROB	1366865	n/a	LTP391	ltpFR2	20	n/a	n/a	n/a	5	18	9	7	2
670.197265625	n/a	PROB	1372564	n/a	LTP391	ltpFR2	20	n/a	n/a	n/a	5	14	5	7	2
672.078125	n/a	PROB	1376416	n/a	LTP391	ltpFR2	20	n/a	n/a	n/a	5	13	1	3	9
673.4970703125	n/a	PROB	1379322	n/a	LTP391	ltpFR2	20	n/a	n/a	n/a	5	14	3	7	4
674.701171875	n/a	PROB	1381788	n/a	LTP391	ltpFR2	20	n/a	n/a	n/a	5	15	8	3	4
675.81298828125	n/a	PROB	1384065	n/a	LTP391	ltpFR2	20	n/a	n/a	n/a	5	18	5	5	8
677.35791015625	n/a	PROB	1387229	n/a	LTP391	ltpFR2	20	n/a	n/a	n/a	5	19	8	5	6
680.47509765625	n/a	PROB	1393613	n/a	LTP391	ltpFR2	20	n/a	n/a	n/a	5	15	5	6	4
682.162109375	n/a	PROB	1397068	n/a	LTP391	ltpFR2	20	n/a	n/a	n/a	5	15	6	1	8
683.56591796875	n/a	PROB	1399943	n/a	LTP391	ltpFR2	20	n/a	n/a	n/a	5	12	4	2	6
684.5771484375	n/a	PROB	1402014	n/a	LTP391	ltpFR2	20	n/a	n/a	n/a	5	20	4	9	7
687.3759765625	n/a	PROB	1407746	n/a	LTP391	ltpFR2	20	n/a	n/a	n/a	5	10	1	4	5
688.61279296875	n/a	PROB	1410279	n/a	LTP391	ltpFR2	20	n/a	n/a	n/a	5	16	3	5	8
689.96875	n/a	STOP	1413056	n/a	LTP391	ltpFR2	20	n/a	n/a	n/a	5	n/a	n/a	n/a	n/a
692.60693359375	n/a	WORD	1418459	wordpools/wasnorm_wordpool_576.txt	LTP391	ltpFR2	20	3	PEACH	1031	n/a	n/a	0	0	0
695.08154296875	n/a	WORD	1423527	wordpools/wasnorm_wordpool_576.txt	LTP391	ltpFR2	20	3	TWIG	1527	n/a	n/a	0	0	0
697.6455078125	n/a	WORD	1428778	wordpools/wasnorm_wordpool_576.txt	LTP391	ltpFR2	20	3	ROD	1203	n/a	n/a	0	0	0
700.3447265625	n/a	WORD	1434306	wordpools/wasnorm_wordpool_576.txt	LTP391	ltpFR2	20	3	POWDER	1117	n/a	n/a	0	0	0
702.7685546875	n/a	WORD	1439270	wordpools/wasnorm_wordpool_576.txt	LTP391	ltpFR2	20	3	FRECKLE	602	n/a	n/a	0	0	0
705.349609375	n/a	WORD	1444556	wordpools/wasnorm_wordpool_576.txt	LTP391	ltpFR2	20	3	CROSS	413	n/a	n/a	0	0	0
707.990234375	n/a	WORD	1449964	wordpools/wasnorm_wordpool_576.txt	LTP391	ltpFR2	20	3	GAZELLE	628	n/a	n/a	0	0	0
710.58837890625	n/a	WORD	1455285	wordpools/wasnorm_wordpool_576.txt	LTP391	ltpFR2	20	3	LIZARD	834	n/a	n/a	0	0	0
713.06201171875	n/a	WORD	1460351	wordpools/wasnorm_wordpool_576.txt	LTP391	ltpFR2	20	3	SEAL	1262	n/a	n/a	0	0	0
715.81103515625	n/a	WORD	1465981	wordpools/wasnorm_wordpool_576.txt	LTP391	ltpFR2	20	3	COUCH	386	n/a	n/a	0	0	0
718.27490234375	n/a	WORD	1471027	wordpools/wasnorm_wordpool_576.txt	LTP391	ltpFR2	20	3	RATTLE	1170	n/a	n/a	0	0	0
720.76611328125	n/a	WORD	1476129	wordpools/wasnorm_wordpool_576.txt	LTP391	ltpFR2	20	3	PAIL	1002	n/a	n/a	0	0	0
723.40576171875	n/a	WORD	1481535	wordpools/wasnorm_wordpool_576.txt	LTP391	ltpFR2	20	3	DASHBOARD	441	n/a	n/a	0	0	0
726.18798828125	n/a	WORD	1487233	wordpools/wasnorm_wordpool_576.txt	LTP391	ltpFR2	20	3	CONCERT	360	n/a	n/a	0	0	0
728.61083984375	n/a	WORD	1492195	wordpools/wasnorm_wordpool_576.txt	LTP391	ltpFR2	20	3	PEPPER	1047	n/a	n/a	0	0	0
731.02685546875	n/a	WORD	1497143	wordpools/wasnorm_wordpool_576.txt	LTP391	ltpFR2	20	3	PUDDING	1139	n/a	n/a	0	0	0
733.5576171875	n/a	WORD	1502326	wordpools/wasnorm_wordpool_576.txt	LTP391	ltpFR2	20	3	ORANGE	980	n/a	n/a	0	0	0
736.015625	n/a	WORD	1507360	wordpools/wasnorm_wordpool_576.txt	LTP391	ltpFR2	20	3	BALLOON	75	n/a	n/a	0	0	0
738.6123046875	n/a	WORD	1512678	wordpools/wasnorm_wordpool_576.txt	LTP391	ltpFR2	20	3	NIGHTGOWN	953	n/a	n/a	0	0	0
741.09521484375	n/a	WORD	1517763	wordpools/wasnorm_wordpool_576.txt	LTP391	ltpFR2	20	3	MATTRESS	879	n/a	n/a	0	0	0
743.50927734375	n/a	WORD	1522707	wordpools/wasnorm_wordpool_576.txt	LTP391	ltpFR2	20	3	LOFT	840	n/a	n/a	0	0	0
746.13330078125	n/a	WORD	1528081	wordpools/wasnorm_wordpool_576.txt	LTP391	ltpFR2	20	3	TABLE	1426	n/a	n/a	0	0	0
748.81640625	n/a	WORD	1533576	wordpools/wasnorm_wordpool_576.txt	LTP391	ltpFR2	20	3	POET	1095	n/a	n/a	0	0	0
751.39697265625	n/a	WORD	1538861	wordpools/wasnorm_wordpool_576.txt	LTP391	ltpFR2	20	3	FLIPPER	580	n/a	n/a	0	0	0
753.001953125	n/a	START	1542148	n/a	LTP391	ltpFR2	20	n/a	n/a	n/a	6	n/a	n/a	n/a	n/a
753.93408203125	n/a	DISTRACTOR	1544057	n/a	LTP391	ltpFR2	20	3	n/a	n/a	n/a	n/a	0	0	0
753.93798828125	n/a	PROB	1544065	n/a	LTP391	ltpFR2	20	n/a	n/a	n/a	6	12	2	8	2
755.416015625	n/a	PROB	1547092	n/a	LTP391	ltpFR2	20	n/a	n/a	n/a	6	15	1	6	8
756.501953125	n/a	PROB	1549316	n/a	LTP391	ltpFR2	20	n/a	n/a	n/a	6	20	4	9	7
757.90673828125	n/a	PROB	1552193	n/a	LTP391	ltpFR2	20	n/a	n/a	n/a	6	6	2	3	1
758.884765625	n/a	PROB	1554196	n/a	LTP391	ltpFR2	20	n/a	n/a	n/a	6	22	6	9	7
760.27099609375	n/a	PROB	1557035	n/a	LTP391	ltpFR2	20	n/a	n/a	n/a	6	17	7	3	7
761.8759765625	n/a	PROB	1560322	n/a	LTP391	ltpFR2	20	n/a	n/a	n/a	6	18	9	3	6
763.23681640625	n/a	PROB	1563109	n/a	LTP391	ltpFR2	20	n/a	n/a	n/a	6	19	5	6	8
765.333984375	n/a	PROB	1567404	n/a	LTP391	ltpFR2	20	n/a	n/a	n/a	6	11	4	3	4
766.84765625	n/a	PROB	1570504	n/a	LTP391	ltpFR2	20	n/a	n/a	n/a	6	16	4	4	8
768.6845703125	n/a	PROB	1574266	n/a	LTP391	ltpFR2	20	n/a	n/a	n/a	6	19	1	9	9
770.3388671875	n/a	PROB	1577654	n/a	LTP391	ltpFR2	20	n/a	n/a	n/a	6	16	7	6	3
772.66162109375	n/a	PROB	1582411	n/a	LTP391	ltpFR2	20	n/a	n/a	n/a	6	15	4	9	2
774.349609375	n/a	PROB	1585868	n/a	LTP391	ltpFR2	20	n/a	n/a	n/a	6	21	9	6	6
775.7275390625	n/a	STOP	1588690	n/a	LTP391	ltpFR2	20	n/a	n/a	n/a	6	n/a	n/a	n/a	n/a
778.93017578125	n/a	REC_START	1595249	n/a	LTP391	ltpFR2	20	3	n/a	n/a	n/a	n/a	0	0	0
780.09326171875	n/a	REC_WORD	1597631	wordpools/wasnorm_wordpool_576.txt	LTP391	ltpFR2	20	3	TWIG	1527	n/a	n/a	0	0	0
782.734375	n/a	REC_WORD	1603040	wordpools/wasnorm_wordpool_576.txt	LTP391	ltpFR2	20	3	ROD	1203	n/a	n/a	0	0	0
785.08642578125	n/a	REC_WORD	1607857	wordpools/wasnorm_wordpool_576.txt	LTP391	ltpFR2	20	3	PEPPER	1047	n/a	n/a	0	0	0
792.44482421875	n/a	REC_WORD	1622927	wordpools/wasnorm_wordpool_576.txt	LTP391	ltpFR2	20	3	DASHBOARD	441	n/a	n/a	0	0	0
794.7529296875	n/a	REC_WORD	1627654	wordpools/wasnorm_wordpool_576.txt	LTP391	ltpFR2	20	3	GAZELLE	628	n/a	n/a	0	0	0
797.86083984375	n/a	REC_WORD	1634019	wordpools/wasnorm_wordpool_576.txt	LTP391	ltpFR2	20	3	SEAL	1262	n/a	n/a	0	0	0
869.3701171875	n/a	WORD	1780470	wordpools/wasnorm_wordpool_576.txt	LTP391	ltpFR2	20	4	HORSE	719	n/a	n/a	0	0	0
871.869140625	n/a	WORD	1785588	wordpools/wasnorm_wordpool_576.txt	LTP391	ltpFR2	20	4	CARRIAGE	248	n/a	n/a	0	0	0
874.466796875	n/a	WORD	1790908	wordpools/wasnorm_wordpool_576.txt	LTP391	ltpFR2	20	4	SCARF	1246	n/a	n/a	0	0	0
877.15673828125	n/a	WORD	1796417	wordpools/wasnorm_wordpool_576.txt	LTP391	ltpFR2	20	4	WITNESS	1618	n/a	n/a	0	0	0
879.73046875	n/a	WORD	1801688	wordpools/wasnorm_wordpool_576.txt	LTP391	ltpFR2	20	4	CRATER	400	n/a	n/a	0	0	0
882.24560546875	n/a	WORD	1806839	wordpools/wasnorm_wordpool_576.txt	LTP391	ltpFR2	20	4	BUNNY	198	n/a	n/a	0	0	0
885.03759765625	n/a	WORD	1812557	wordpools/wasnorm_wordpool_576.txt	LTP391	ltpFR2	20	4	LEG	809	n/a	n/a	0	0	0
887.55126953125	n/a	WORD	1817705	wordpools/wasnorm_wordpool_576.txt	LTP391	ltpFR2	20	4	SPARROW	1347	n/a	n/a	0	0	0
890.08447265625	n/a	WORD	1822893	wordpools/wasnorm_wordpool_576.txt	LTP391	ltpFR2	20	4	COBRA	336	n/a	n/a	0	0	0
892.8251953125	n/a	WORD	1828506	wordpools/wasnorm_wordpool_576.txt	LTP391	ltpFR2	20	4	ACTRESS	6	n/a	n/a	0	0	0
895.2470703125	n/a	WORD	1833466	wordpools/wasnorm_wordpool_576.txt	LTP391	ltpFR2	20	4	MEAT	883	n/a	n/a	0	0	0
897.88818359375	n/a	WORD	1838875	wordpools/wasnorm_wordpool_576.txt	LTP391	ltpFR2	20	4	ELBOW	520	n/a	n/a	0	0	0
900.39404296875	n/a	WORD	1844007	wordpools/wasnorm_wordpool_576.txt	LTP391	ltpFR2	20	4	THREAD	1460	n/a	n/a	0	0	0
903.0771484375	n/a	WORD	1849502	wordpools/wasnorm_wordpool_576.txt	LTP391	ltpFR2	20	4	NOTEBOOK	959	n/a	n/a	0	0	0
905.6162109375	n/a	WORD	1854702	wordpools/wasnorm_wordpool_576.txt	LTP391	ltpFR2	20	4	BLUEPRINT	142	n/a	n/a	0	0	0
908.423828125	n/a	WORD	1860452	wordpools/wasnorm_wordpool_576.txt	LTP391	ltpFR2	20	4	HUMAN	726	n/a	n/a	0	0	0
911.056640625	n/a	WORD	1865844	wordpools/wasnorm_wordpool_576.txt	LTP391	ltpFR2	20	4	SHORTS	1293	n/a	n/a	0	0	0
913.5537109375	n/a	WORD	1870958	wordpools/wasnorm_wordpool_576.txt	LTP391	ltpFR2	20	4	SUITCASE	1403	n/a	n/a	0	0	0
916.2529296875	n/a	WORD	1876486	wordpools/wasnorm_wordpool_576.txt	LTP391	ltpFR2	20	4	TOURIST	1488	n/a	n/a	0	0	0
919.02783203125	n/a	WORD	1882169	wordpools/wasnorm_wordpool_576.txt	LTP391	ltpFR2	20	4	DRAWING	494	n/a	n/a	0	0	0
921.75244140625	n/a	WORD	1887749	wordpools/wasnorm_wordpool_576.txt	LTP391	ltpFR2	20	4	PARROT	1015	n/a	n/a	0	0	0
924.525390625	n/a	WORD	1893428	wordpools/wasnorm_wordpool_576.txt	LTP391	ltpFR2	20	4	FOREST	593	n/a	n/a	0	0	0
927.3154296875	n/a	WORD	1899142	wordpools/wasnorm_wordpool_576.txt	LTP391	ltpFR2	20	4	TORTOISE	1486	n/a	n/a	0	0	0
929.8154296875	n/a	WORD	1904262	wordpools/wasnorm_wordpool_576.txt	LTP391	ltpFR2	20	4	PALACE	1006	n/a	n/a	0	0	0
931.41845703125	n/a	START	1907545	n/a	LTP391	ltpFR2	20	n/a	n/a	n/a	7	n/a	n/a	n/a	n/a
932.25341796875	n/a	DISTRACTOR	1909255	n/a	LTP391	ltpFR2	20	4	n/a	n/a	n/a	n/a	0	0	0
955.41650390625	n/a	STOP	1956693	n/a	LTP391	ltpFR2	20	n/a	n/a	n/a	7	n/a	n/a	n/a	n/a
957.1376953125	n/a	REC_START	1960218	n/a	LTP391	ltpFR2	20	4	n/a	n/a	n/a	n/a	0	0	0
1032.130859375	n/a	REC_WORD_VV	2113804	wordpools/wasnorm_wordpool_576.txt	LTP391	ltpFR2	20	4	<>	-1	n/a	n/a	0	0	0
1047.578125	n/a	WORD	2145440	wordpools/wasnorm_wordpool_576.txt	LTP391	ltpFR2	20	5	PERMIT	1051	n/a	n/a	0	0	0
1050.2099609375	n/a	WORD	2150830	wordpools/wasnorm_wordpool_576.txt	LTP391	ltpFR2	20	5	MARINE	869	n/a	n/a	0	0	0
1052.93505859375	n/a	WORD	2156411	wordpools/wasnorm_wordpool_576.txt	LTP391	ltpFR2	20	5	NOMAD	955	n/a	n/a	0	0	0
1055.44921875	n/a	WORD	2161560	wordpools/wasnorm_wordpool_576.txt	LTP391	ltpFR2	20	5	FREEZER	604	n/a	n/a	0	0	0
1058.22314453125	n/a	WORD	2167241	wordpools/wasnorm_wordpool_576.txt	LTP391	ltpFR2	20	5	SALAD	1224	n/a	n/a	0	0	0
1060.78076171875	n/a	WORD	2172479	wordpools/wasnorm_wordpool_576.txt	LTP391	ltpFR2	20	5	SUBWAY	1400	n/a	n/a	0	0	0
1063.2529296875	n/a	WORD	2177542	wordpools/wasnorm_wordpool_576.txt	LTP391	ltpFR2	20	5	IDOL	733	n/a	n/a	0	0	0
1065.86181640625	n/a	WORD	2182885	wordpools/wasnorm_wordpool_576.txt	LTP391	ltpFR2	20	5	BATHTUB	100	n/a	n/a	0	0	0
1068.32470703125	n/a	WORD	2187929	wordpools/wasnorm_wordpool_576.txt	LTP391	ltpFR2	20	5	CABIN	211	n/a	n/a	0	0	0
1070.95849609375	n/a	WORD	2193323	wordpools/wasnorm_wordpool_576.txt	LTP391	ltpFR2	20	5	STAKE	1368	n/a	n/a	0	0	0
1073.70654296875	n/a	WORD	2198951	wordpools/wasnorm_wordpool_576.txt	LTP391	ltpFR2	20	5	PORTRAIT	1111	n/a	n/a	0	0	0
1076.2294921875	n/a	WORD	2204118	wordpools/wasnorm_wordpool_576.txt	LTP391	ltpFR2	20	5	WAITRESS	1581	n/a	n/a	0	0	0
1078.92138671875	n/a	WORD	2209631	wordpools/wasnorm_wordpool_576.txt	LTP391	ltpFR2	20	5	FIDDLE	561	n/a	n/a	0	0	0
1081.33447265625	n/a	WORD	2214573	wordpools/wasnorm_wordpool_576.txt	LTP391	ltpFR2	20	5	PIANO	1057	n/a	n/a	0	0	0
1084.0263671875	n/a	WORD	2220086	wordpools/wasnorm_wordpool_576.txt	LTP391	ltpFR2	20	5	POCKET	1093	n/a	n/a	0	0	0
1086.498046875	n/a	WORD	2225148	wordpools/wasnorm_wordpool_576.txt	LTP391	ltpFR2	20	5	BUG	187	n/a	n/a	0	0	0
1089.1142578125	n/a	WORD	2230506	wordpools/wasnorm_wordpool_576.txt	LTP391	ltpFR2	20	5	IGLOO	734	n/a	n/a	0	0	0
1091.90625	n/a	WORD	2236224	wordpools/wasnorm_wordpool_576.txt	LTP391	ltpFR2	20	5	OZONE	996	n/a	n/a	0	0	0
1094.51220703125	n/a	WORD	2241561	wordpools/wasnorm_wordpool_576.txt	LTP391	ltpFR2	20	5	PRINCE	1124	n/a	n/a	0	0	0
1097.23583984375	n/a	WORD	2247139	wordpools/wasnorm_wordpool_576.txt	LTP391	ltpFR2	20	5	CLAMP	316	n/a	n/a	0	0	0
1099.68359375	n/a	WORD	2252152	wordpools/wasnorm_wordpool_576.txt	LTP391	ltpFR2	20	5	MISSILE	900	n/a	n/a	0	0	0
1102.19873046875	n/a	WORD	2257303	wordpools/wasnorm_wordpool_576.txt	LTP391	ltpFR2	20	5	WASP	1593	n/a	n/a	0	0	0
1104.62158203125	n/a	WORD	2262265	wordpools/wasnorm_wordpool_576.txt	LTP391	ltpFR2	20	5	LAKE	796	n/a	n/a	0	0	0
1107.3955078125	n/a	WORD	2267946	wordpools/wasnorm_wordpool_576.txt	LTP391	ltpFR2	20	5	BIKE	125	n/a	n/a	0	0	0
1109.00146484375	n/a	START	2271235	n/a	LTP391	ltpFR2	20	n/a	n/a	n/a	8	n/a	n/a	n/a	n/a
1110.00537109375	n/a	DISTRACTOR	2273291	n/a	LTP391	ltpFR2	20	5	n/a	n/a	n/a	n/a	0	0	0
1133.0009765625	n/a	STOP	2320386	n/a	LTP391	ltpFR2	20	n/a	n/a	n/a	8	n/a	n/a	n/a	n/a
1134.81201171875	n/a	REC_START	2324095	n/a	LTP391	ltpFR2	20	5	n/a	n/a	n/a	n/a	0	0	0
1209.8046875	n/a	REC_WORD_VV	2477680	wordpools/wasnorm_wordpool_576.txt	LTP391	ltpFR2	20	5	<>	-1	n/a	n/a	0	0	0
1225.24365234375	n/a	DISTRACTOR	2509299	n/a	LTP391	ltpFR2	20	6	n/a	n/a	n/a	n/a	0	0	0
1225.24462890625	n/a	START	2509301	n/a	LTP391	ltpFR2	20	n/a	n/a	n/a	9	n/a	n/a	n/a	n/a
1249.24365234375	n/a	STOP	2558451	n/a	LTP391	ltpFR2	20	n/a	n/a	n/a	9	n/a	n/a	n/a	n/a
1250.11767578125	n/a	WORD	2560241	wordpools/wasnorm_wordpool_576.txt	LTP391	ltpFR2	20	6	STAMP	1370	n/a	n/a	0	0	0
1252.6748046875	n/a	WORD	2565478	wordpools/wasnorm_wordpool_576.txt	LTP391	ltpFR2	20	6	HEART	697	n/a	n/a	0	0	0
1255.37353515625	n/a	WORD	2571005	wordpools/wasnorm_wordpool_576.txt	LTP391	ltpFR2	20	6	ROBBER	1197	n/a	n/a	0	0	0
1257.78955078125	n/a	WORD	2575953	wordpools/wasnorm_wordpool_576.txt	LTP391	ltpFR2	20	6	LAPEL	800	n/a	n/a	0	0	0
1260.26171875	n/a	WORD	2581016	wordpools/wasnorm_wordpool_576.txt	LTP391	ltpFR2	20	6	PLATE	1086	n/a	n/a	0	0	0
1262.96142578125	n/a	WORD	2586545	wordpools/wasnorm_wordpool_576.txt	LTP391	ltpFR2	20	6	TURKEY	1520	n/a	n/a	0	0	0
1265.408203125	n/a	WORD	2591556	wordpools/wasnorm_wordpool_576.txt	LTP391	ltpFR2	20	6	TART	1436	n/a	n/a	0	0	0
1267.87451171875	n/a	WORD	2596607	wordpools/wasnorm_wordpool_576.txt	LTP391	ltpFR2	20	6	BANK	83	n/a	n/a	0	0	0
1270.47216796875	n/a	WORD	2601927	wordpools/wasnorm_wordpool_576.txt	LTP391	ltpFR2	20	6	AWARD	63	n/a	n/a	0	0	0
1273.17138671875	n/a	WORD	2607455	wordpools/wasnorm_wordpool_576.txt	LTP391	ltpFR2	20	6	TAXI	1438	n/a	n/a	0	0	0
1275.87109375	n/a	WORD	2612984	wordpools/wasnorm_wordpool_576.txt	LTP391	ltpFR2	20	6	COOKBOOK	373	n/a	n/a	0	0	0
1278.43505859375	n/a	WORD	2618235	wordpools/wasnorm_wordpool_576.txt	LTP391	ltpFR2	20	6	ICING	732	n/a	n/a	0	0	0
1281.06005859375	n/a	WORD	2623611	wordpools/wasnorm_wordpool_576.txt	LTP391	ltpFR2	20	6	BLOUSE	139	n/a	n/a	0	0	0
1283.59912109375	n/a	WORD	2628811	wordpools/wasnorm_wordpool_576.txt	LTP391	ltpFR2	20	6	BARREL	91	n/a	n/a	0	0	0
1286.08984375	n/a	WORD	2633912	wordpools/wasnorm_wordpool_576.txt	LTP391	ltpFR2	20	6	COFFEE	341	n/a	n/a	0	0	0
1288.73095703125	n/a	WORD	2639321	wordpools/wasnorm_wordpool_576.txt	LTP391	ltpFR2	20	6	XEROX	1628	n/a	n/a	0	0	0
1291.45361328125	n/a	WORD	2644897	wordpools/wasnorm_wordpool_576.txt	LTP391	ltpFR2	20	6	JAPAN	749	n/a	n/a	0	0	0
1293.95263671875	n/a	WORD	2650015	wordpools/wasnorm_wordpool_576.txt	LTP391	ltpFR2	20	6	ASIA	46	n/a	n/a	0	0	0
1296.6337890625	n/a	WORD	2655506	wordpools/wasnorm_wordpool_576.txt	LTP391	ltpFR2	20	6	ICEBERG	731	n/a	n/a	0	0	0
1299.19873046875	n/a	WORD	2660759	wordpools/wasnorm_wordpool_576.txt	LTP391	ltpFR2	20	6	LABEL	790	n/a	n/a	0	0	0
1301.765625	n/a	WORD	2666016	wordpools/wasnorm_wordpool_576.txt	LTP391	ltpFR2	20	6	POISON	1096	n/a	n/a	0	0	0
1304.3623046875	n/a	WORD	2671334	wordpools/wasnorm_wordpool_576.txt	LTP391	ltpFR2	20	6	LIVER	833	n/a	n/a	0	0	0
1307.08740234375	n/a	WORD	2676915	wordpools/wasnorm_wordpool_576.txt	LTP391	ltpFR2	20	6	WORLD	1622	n/a	n/a	0	0	0
1309.54345703125	n/a	WORD	2681945	wordpools/wasnorm_wordpool_576.txt	LTP391	ltpFR2	20	6	APPLE	33	n/a	n/a	0	0	0
1311.14794921875	n/a	START	2685231	n/a	LTP391	ltpFR2	20	n/a	n/a	n/a	10	n/a	n/a	n/a	n/a
1312.14306640625	n/a	DISTRACTOR	2687269	n/a	LTP391	ltpFR2	20	6	n/a	n/a	n/a	n/a	0	0	0
1335.1474609375	n/a	STOP	2734382	n/a	LTP391	ltpFR2	20	n/a	n/a	n/a	10	n/a	n/a	n/a	n/a
1337.0595703125	n/a	REC_START	2738298	n/a	LTP391	ltpFR2	20	6	n/a	n/a	n/a	n/a	0	0	0
1412.05224609375	n/a	REC_WORD_VV	2891883	wordpools/wasnorm_wordpool_576.txt	LTP391	ltpFR2	20	6	<>	-1	n/a	n/a	0	0	0
1427.4990234375	n/a	WORD	2923518	wordpools/wasnorm_wordpool_576.txt	LTP391	ltpFR2	20	7	SKETCH	1315	n/a	n/a	0	0	0
1430.02392578125	n/a	WORD	2928689	wordpools/wasnorm_wordpool_576.txt	LTP391	ltpFR2	20	7	LADY	794	n/a	n/a	0	0	0
1432.57080078125	n/a	WORD	2933905	wordpools/wasnorm_wordpool_576.txt	LTP391	ltpFR2	20	7	WOMAN	1620	n/a	n/a	0	0	0
1435.2197265625	n/a	WORD	2939330	wordpools/wasnorm_wordpool_576.txt	LTP391	ltpFR2	20	7	COSTUME	383	n/a	n/a	0	0	0
1437.7099609375	n/a	WORD	2944430	wordpools/wasnorm_wordpool_576.txt	LTP391	ltpFR2	20	7	OUTDOORS	987	n/a	n/a	0	0	0
1440.20751953125	n/a	WORD	2949545	wordpools/wasnorm_wordpool_576.txt	LTP391	ltpFR2	20	7	LONDON	843	n/a	n/a	0	0	0
1442.7236328125	n/a	WORD	2954698	wordpools/wasnorm_wordpool_576.txt	LTP391	ltpFR2	20	7	PLASTER	1085	n/a	n/a	0	0	0
1445.3046875	n/a	WORD	2959984	wordpools/wasnorm_wordpool_576.txt	LTP391	ltpFR2	20	7	YARN	1631	n/a	n/a	0	0	0
1448.12939453125	n/a	WORD	2965769	wordpools/wasnorm_wordpool_576.txt	LTP391	ltpFR2	20	7	MAILBOX	857	n/a	n/a	0	0	0
1450.71142578125	n/a	WORD	2971057	wordpools/wasnorm_wordpool_576.txt	LTP391	ltpFR2	20	7	SODA	1341	n/a	n/a	0	0	0
1453.51025390625	n/a	WORD	2976789	wordpools/wasnorm_wordpool_576.txt	LTP391	ltpFR2	20	7	DINER	467	n/a	n/a	0	0	0
1456.0185546875	n/a	WORD	2981926	wordpools/wasnorm_wordpool_576.txt	LTP391	ltpFR2	20	7	BADGE	68	n/a	n/a	0	0	0
1458.482421875	n/a	WORD	2986972	wordpools/wasnorm_wordpool_576.txt	LTP391	ltpFR2	20	7	BUREAU	199	n/a	n/a	0	0	0
1460.9140625	n/a	WORD	2991952	wordpools/wasnorm_wordpool_576.txt	LTP391	ltpFR2	20	7	WIDOW	1608	n/a	n/a	0	0	0
1463.39501953125	n/a	WORD	2997033	wordpools/wasnorm_wordpool_576.txt	LTP391	ltpFR2	20	7	EXPERT	543	n/a	n/a	0	0	0
1465.8271484375	n/a	WORD	3002014	wordpools/wasnorm_wordpool_576.txt	LTP391	ltpFR2	20	7	SCRIBBLE	1256	n/a	n/a	0	0	0
1468.2578125	n/a	WORD	3006992	wordpools/wasnorm_wordpool_576.txt	LTP391	ltpFR2	20	7	PICNIC	1060	n/a	n/a	0	0	0
1470.9658203125	n/a	WORD	3012538	wordpools/wasnorm_wordpool_576.txt	LTP391	ltpFR2	20	7	CHAUFFEUR	283	n/a	n/a	0	0	0
1473.6640625	n/a	WORD	3018064	wordpools/wasnorm_wordpool_576.txt	LTP391	ltpFR2	20	7	SPOOL	1356	n/a	n/a	0	0	0
1476.3046875	n/a	WORD	3023472	wordpools/wasnorm_wordpool_576.txt	LTP391	ltpFR2	20	7	PARTNER	1017	n/a	n/a	0	0	0
1478.87890625	n/a	WORD	3028744	wordpools/wasnorm_wordpool_576.txt	LTP391	ltpFR2	20	7	FEMALE	559	n/a	n/a	0	0	0
1481.35986328125	n/a	WORD	3033825	wordpools/wasnorm_wordpool_576.txt	LTP391	ltpFR2	20	7	LIPSTICK	829	n/a	n/a	0	0	0
1484.025390625	n/a	WORD	3039284	wordpools/wasnorm_wordpool_576.txt	LTP391	ltpFR2	20	7	STICKER	1382	n/a	n/a	0	0	0
1486.67333984375	n/a	WORD	3044707	wordpools/wasnorm_wordpool_576.txt	LTP391	ltpFR2	20	7	PAPER	1011	n/a	n/a	0	0	0
1488.2783203125	n/a	START	3047994	n/a	LTP391	ltpFR2	20	n/a	n/a	n/a	11	n/a	n/a	n/a	n/a
1489.17724609375	n/a	DISTRACTOR	3049835	n/a	LTP391	ltpFR2	20	7	n/a	n/a	n/a	n/a	0	0	0
1489.1806640625	n/a	PROB	3049842	n/a	LTP391	ltpFR2	20	n/a	n/a	n/a	11	13	2	4	7
1492.13037109375	n/a	PROB	3055883	n/a	LTP391	ltpFR2	20	n/a	n/a	n/a	11	17	5	3	9
1493.72607421875	n/a	PROB	3059151	n/a	LTP391	ltpFR2	20	n/a	n/a	n/a	11	13	9	2	2
1496.041015625	n/a	PROB	3063892	n/a	LTP391	ltpFR2	20	n/a	n/a	n/a	11	16	3	9	4
1497.50244140625	n/a	PROB	3066885	n/a	LTP391	ltpFR2	20	n/a	n/a	n/a	11	24	9	8	7
1499.943359375	n/a	PROB	3071884	n/a	LTP391	ltpFR2	20	n/a	n/a	n/a	11	17	7	6	4
1501.43017578125	n/a	PROB	3074929	n/a	LTP391	ltpFR2	20	n/a	n/a	n/a	11	14	5	3	6
1503.44287109375	n/a	PROB	3079051	n/a	LTP391	ltpFR2	20	n/a	n/a	n/a	11	8	2	1	5
1504.69677734375	n/a	PROB	3081619	n/a	LTP391	ltpFR2	20	n/a	n/a	n/a	11	12	2	3	7
1506.2509765625	n/a	PROB	3084802	n/a	LTP391	ltpFR2	20	n/a	n/a	n/a	11	12	3	5	4
1507.8310546875	n/a	PROB	3088038	n/a	LTP391	ltpFR2	20	n/a	n/a	n/a	11	14	4	6	4
1509.40087890625	n/a	PROB	3091253	n/a	LTP391	ltpFR2	20	n/a	n/a	n/a	11	17	4	4	9
1512.27783203125	n/a	STOP	3097145	n/a	LTP391	ltpFR2	20	n/a	n/a	n/a	11	n/a	n/a	n/a	n/a
1514.07275390625	n/a	REC_START	3100821	n/a	LTP391	ltpFR2	20	7	n/a	n/a	n/a	n/a	0	0	0
1514.306640625	n/a	REC_WORD	3101300	wordpools/wasnorm_wordpool_576.txt	LTP391	ltpFR2	20	7	SKETCH	1315	n/a	n/a	0	0	0
1515.0498046875	n/a	REC_WORD	3102822	wordpools/wasnorm_wordpool_576.txt	LTP391	ltpFR2	20	7	LADY	794	n/a	n/a	0	0	0
1515.78076171875	n/a	REC_WORD_VV	3104319	wordpools/wasnorm_wordpool_576.txt	LTP391	ltpFR2	20	7	<>	-1	n/a	n/a	0	0	0
1516.23046875	n/a	REC_WORD	3105240	wordpools/wasnorm_wordpool_576.txt	LTP391	ltpFR2	20	7	PAPER	1011	n/a	n/a	0	0	0
1518.45849609375	n/a	REC_WORD	3109803	wordpools/wasnorm_wordpool_576.txt	LTP391	ltpFR2	20	7	PICNIC	1060	n/a	n/a	0	0	0
1519.16162109375	n/a	REC_WORD	3111243	wordpools/wasnorm_wordpool_576.txt	LTP391	ltpFR2	20	7	CHAUFFEUR	283	n/a	n/a	0	0	0
1520.6083984375	n/a	REC_WORD	3114206	wordpools/wasnorm_wordpool_576.txt	LTP391	ltpFR2	20	7	SPOOL	1356	n/a	n/a	0	0	0
1524.9033203125	n/a	REC_WORD	3123002	wordpools/wasnorm_wordpool_576.txt	LTP391	ltpFR2	20	7	YARN	1631	n/a	n/a	0	0	0
1604.50439453125	n/a	WORD	3286025	wordpools/wasnorm_wordpool_576.txt	LTP391	ltpFR2	20	8	SPONGE	1355	n/a	n/a	0	0	0
1606.978515625	n/a	WORD	3291092	wordpools/wasnorm_wordpool_576.txt	LTP391	ltpFR2	20	8	LIGHTNING	820	n/a	n/a	0	0	0
1609.583984375	n/a	WORD	3296428	wordpools/wasnorm_wordpool_576.txt	LTP391	ltpFR2	20	8	MONSTER	912	n/a	n/a	0	0	0
1612.14990234375	n/a	WORD	3301683	wordpools/wasnorm_wordpool_576.txt	LTP391	ltpFR2	20	8	BEAST	108	n/a	n/a	0	0	0
1614.71484375	n/a	WORD	3306936	wordpools/wasnorm_wordpool_576.txt	LTP391	ltpFR2	20	8	BREAST	171	n/a	n/a	0	0	0
1617.51416015625	n/a	WORD	3312669	wordpools/wasnorm_wordpool_576.txt	LTP391	ltpFR2	20	8	RAZOR	1171	n/a	n/a	0	0	0
1619.98779296875	n/a	WORD	3317735	wordpools/wasnorm_wordpool_576.txt	LTP391	ltpFR2	20	8	HOSTESS	723	n/a	n/a	0	0	0
1622.4267578125	n/a	WORD	3322730	wordpools/wasnorm_wordpool_576.txt	LTP391	ltpFR2	20	8	POSTAGE	1113	n/a	n/a	0	0	0
1625.009765625	n/a	WORD	3328020	wordpools/wasnorm_wordpool_576.txt	LTP391	ltpFR2	20	8	GRAVEL	659	n/a	n/a	0	0	0
1627.716796875	n/a	WORD	3333564	wordpools/wasnorm_wordpool_576.txt	LTP391	ltpFR2	20	8	FOX	598	n/a	n/a	0	0	0
1630.15576171875	n/a	WORD	3338559	wordpools/wasnorm_wordpool_576.txt	LTP391	ltpFR2	20	8	KIDNEY	776	n/a	n/a	0	0	0
1632.62060546875	n/a	WORD	3343607	wordpools/wasnorm_wordpool_576.txt	LTP391	ltpFR2	20	8	HATCHET	691	n/a	n/a	0	0	0
1635.3447265625	n/a	WORD	3349186	wordpools/wasnorm_wordpool_576.txt	LTP391	ltpFR2	20	8	MEDAL	885	n/a	n/a	0	0	0
1638.12744140625	n/a	WORD	3354885	wordpools/wasnorm_wordpool_576.txt	LTP391	ltpFR2	20	8	COUSIN	392	n/a	n/a	0	0	0
1640.76025390625	n/a	WORD	3360277	wordpools/wasnorm_wordpool_576.txt	LTP391	ltpFR2	20	8	FRIEND	606	n/a	n/a	0	0	0
1643.47509765625	n/a	WORD	3365837	wordpools/wasnorm_wordpool_576.txt	LTP391	ltpFR2	20	8	STONE	1385	n/a	n/a	0	0	0
1645.93212890625	n/a	WORD	3370869	wordpools/wasnorm_wordpool_576.txt	LTP391	ltpFR2	20	8	KNIFE	785	n/a	n/a	0	0	0
1648.705078125	n/a	WORD	3376548	wordpools/wasnorm_wordpool_576.txt	LTP391	ltpFR2	20	8	PASTRY	1022	n/a	n/a	0	0	0
1651.2119140625	n/a	WORD	3381682	wordpools/wasnorm_wordpool_576.txt	LTP391	ltpFR2	20	8	DOLPHIN	483	n/a	n/a	0	0	0
1653.63525390625	n/a	WORD	3386645	wordpools/wasnorm_wordpool_576.txt	LTP391	ltpFR2	20	8	SEAGULL	1261	n/a	n/a	0	0	0
1656.326171875	n/a	WORD	3392156	wordpools/wasnorm_wordpool_576.txt	LTP391	ltpFR2	20	8	TREAT	1501	n/a	n/a	0	0	0
1658.95068359375	n/a	WORD	3397531	wordpools/wasnorm_wordpool_576.txt	LTP391	ltpFR2	20	8	CANDY	230	n/a	n/a	0	0	0
1661.4228515625	n/a	WORD	3402594	wordpools/wasnorm_wordpool_576.txt	LTP391	ltpFR2	20	8	RIVER	1194	n/a	n/a	0	0	0
1664.18896484375	n/a	WORD	3408259	wordpools/wasnorm_wordpool_576.txt	LTP391	ltpFR2	20	8	WHISTLE	1606	n/a	n/a	0	0	0
1665.7939453125	n/a	START	3411546	n/a	LTP391	ltpFR2	20	n/a	n/a	n/a	12	n/a	n/a	n/a	n/a
1666.81787109375	n/a	DISTRACTOR	3413643	n/a	LTP391	ltpFR2	20	8	n/a	n/a	n/a	n/a	0	0	0
1689.79296875	n/a	STOP	3460696	n/a	LTP391	ltpFR2	20	n/a	n/a	n/a	12	n/a	n/a	n/a	n/a
1691.52001953125	n/a	REC_START	3464233	n/a	LTP391	ltpFR2	20	8	n/a	n/a	n/a	n/a	0	0	0
1768.041015625	n/a	REST_REWET	3620948	n/a	LTP391	ltpFR2	20	8	n/a	n/a	n/a	n/a	0	0	0
1931.1748046875	n/a	WORD	3955046	wordpools/wasnorm_wordpool_576.txt	LTP391	ltpFR2	20	9	NURSE	963	n/a	n/a	0	0	0
1933.67333984375	n/a	WORD	3960163	wordpools/wasnorm_wordpool_576.txt	LTP391	ltpFR2	20	9	DENTIST	447	n/a	n/a	0	0	0
1936.447265625	n/a	WORD	3965844	wordpools/wasnorm_wordpool_576.txt	LTP391	ltpFR2	20	9	MAMMAL	861	n/a	n/a	0	0	0
1938.9462890625	n/a	WORD	3970962	wordpools/wasnorm_wordpool_576.txt	LTP391	ltpFR2	20	9	BABY	64	n/a	n/a	0	0	0
1941.63623046875	n/a	WORD	3976471	wordpools/wasnorm_wordpool_576.txt	LTP391	ltpFR2	20	9	INFANT	737	n/a	n/a	0	0	0
1944.34326171875	n/a	WORD	3982015	wordpools/wasnorm_wordpool_576.txt	LTP391	ltpFR2	20	9	JELLY	755	n/a	n/a	0	0	0
1947.06005859375	n/a	WORD	3987579	wordpools/wasnorm_wordpool_576.txt	LTP391	ltpFR2	20	9	ROCKET	1202	n/a	n/a	0	0	0
1949.48193359375	n/a	WORD	3992539	wordpools/wasnorm_wordpool_576.txt	LTP391	ltpFR2	20	9	COMET	353	n/a	n/a	0	0	0
1951.97314453125	n/a	WORD	3997641	wordpools/wasnorm_wordpool_576.txt	LTP391	ltpFR2	20	9	SPOUSE	1358	n/a	n/a	0	0	0
1954.52099609375	n/a	WORD	4002859	wordpools/wasnorm_wordpool_576.txt	LTP391	ltpFR2	20	9	BASEMENT	94	n/a	n/a	0	0	0
1957.10302734375	n/a	WORD	4008147	wordpools/wasnorm_wordpool_576.txt	LTP391	ltpFR2	20	9	PLIERS	1089	n/a	n/a	0	0	0
1959.86865234375	n/a	WORD	4013811	wordpools/wasnorm_wordpool_576.txt	LTP391	ltpFR2	20	9	SHOVEL	1295	n/a	n/a	0	0	0
1962.3916015625	n/a	WORD	4018978	wordpools/wasnorm_wordpool_576.txt	LTP391	ltpFR2	20	9	GRAVE	658	n/a	n/a	0	0	0
1965.11572265625	n/a	WORD	4024557	wordpools/wasnorm_wordpool_576.txt	LTP391	ltpFR2	20	9	CELLAR	267	n/a	n/a	0	0	0
1967.53076171875	n/a	WORD	4029503	wordpools/wasnorm_wordpool_576.txt	LTP391	ltpFR2	20	9	MARS	873	n/a	n/a	0	0	0
1970.04638671875	n/a	WORD	4034655	wordpools/wasnorm_wordpool_576.txt	LTP391	ltpFR2	20	9	BRACES	164	n/a	n/a	0	0	0
1972.75341796875	n/a	WORD	4040199	wordpools/wasnorm_wordpool_576.txt	LTP391	ltpFR2	20	9	SNACK	1331	n/a	n/a	0	0	0
1975.25927734375	n/a	WORD	4045331	wordpools/wasnorm_wordpool_576.txt	LTP391	ltpFR2	20	9	BUCKET	184	n/a	n/a	0	0	0
1977.6904296875	n/a	WORD	4050310	wordpools/wasnorm_wordpool_576.txt	LTP391	ltpFR2	20	9	COCKTAIL	338	n/a	n/a	0	0	0
1980.439453125	n/a	WORD	4055940	wordpools/wasnorm_wordpool_576.txt	LTP391	ltpFR2	20	9	SOFTBALL	1343	n/a	n/a	0	0	0
1982.9814453125	n/a	WORD	4061146	wordpools/wasnorm_wordpool_576.txt	LTP391	ltpFR2	20	9	SALMON	1227	n/a	n/a	0	0	0
1985.51123046875	n/a	WORD	4066327	wordpools/wasnorm_wordpool_576.txt	LTP391	ltpFR2	20	9	SPOON	1357	n/a	n/a	0	0	0
1988.0693359375	n/a	WORD	4071566	wordpools/wasnorm_wordpool_576.txt	LTP391	ltpFR2	20	9	COUNTRY	388	n/a	n/a	0	0	0
1990.751953125	n/a	WORD	4077060	wordpools/wasnorm_wordpool_576.txt	LTP391	ltpFR2	20	9	DONKEY	484	n/a	n/a	0	0	0
1992.35498046875	n/a	START	4080343	n/a	LTP391	ltpFR2	20	n/a	n/a	n/a	13	n/a	n/a	n/a	n/a
1993.43017578125	n/a	DISTRACTOR	4082545	n/a	LTP391	ltpFR2	20	9	n/a	n/a	n/a	n/a	0	0	0
1993.43310546875	n/a	PROB	4082551	n/a	LTP391	ltpFR2	20	n/a	n/a	n/a	13	25	8	6	9
1996.90966796875	n/a	PROB	4089671	n/a	LTP391	ltpFR2	20	n/a	n/a	n/a	13	20	3	8	9
1999.248046875	n/a	PROB	4094460	n/a	LTP391	ltpFR2	20	n/a	n/a	n/a	13	16	4	7	5
2001.85595703125	n/a	PROB	4099801	n/a	LTP391	ltpFR2	20	n/a	n/a	n/a	13	14	8	2	6
2003.30859375	n/a	PROB	4102776	n/a	LTP391	ltpFR2	20	n/a	n/a	n/a	13	12	8	1	3
2005.0888671875	n/a	PROB	4106422	n/a	LTP391	ltpFR2	20	n/a	n/a	n/a	13	9	5	1	3
2006.525390625	n/a	PROB	4109364	n/a	LTP391	ltpFR2	20	n/a	n/a	n/a	13	16	5	2	9
2008.33056640625	n/a	PROB	4113061	n/a	LTP391	ltpFR2	20	n/a	n/a	n/a	13	12	7	1	4
2009.935546875	n/a	PROB	4116348	n/a	LTP391	ltpFR2	20	n/a	n/a	n/a	13	13	4	3	6
2011.28857421875	n/a	PROB	4119119	n/a	LTP391	ltpFR2	20	n/a	n/a	n/a	13	13	9	1	3
2012.87744140625	n/a	PROB	4122373	n/a	LTP391	ltpFR2	20	n/a	n/a	n/a	13	15	9	4	2
2014.1044921875	n/a	PROB	4124886	n/a	LTP391	ltpFR2	20	n/a	n/a	n/a	13	16	5	3	8
2015.3251953125	n/a	STOP	4127386	n/a	LTP391	ltpFR2	20	n/a	n/a	n/a	13	n/a	n/a	n/a	n/a
2018.24951171875	n/a	REC_START	4133375	n/a	LTP391	ltpFR2	20	9	n/a	n/a	n/a	n/a	0	0	0
2021.75732421875	n/a	REC_WORD	4140559	wordpools/wasnorm_wordpool_576.txt	LTP391	ltpFR2	20	9	NURSE	963	n/a	n/a	0	0	0
2022.2861328125	n/a	REC_WORD	4141642	wordpools/wasnorm_wordpool_576.txt	LTP391	ltpFR2	20	9	DENTIST	447	n/a	n/a	0	0	0
2022.97412109375	n/a	REC_WORD	4143051	wordpools/wasnorm_wordpool_576.txt	LTP391	ltpFR2	20	9	BRACES	164	n/a	n/a	0	0	0
2023.62109375	n/a	REC_WORD	4144376	wordpools/wasnorm_wordpool_576.txt	LTP391	ltpFR2	20	9	JELLY	755	n/a	n/a	0	0	0
2023.998046875	n/a	REC_WORD	4145148	wordpools/wasnorm_wordpool_576.txt	LTP391	ltpFR2	20	9	SNACK	1331	n/a	n/a	0	0	0
2025.5771484375	n/a	REC_WORD	4148382	wordpools/wasnorm_wordpool_576.txt	LTP391	ltpFR2	20	9	BUCKET	184	n/a	n/a	0	0	0
2026.0703125	n/a	REC_WORD	4149392	wordpools/wasnorm_wordpool_576.txt	LTP391	ltpFR2	20	9	SHOVEL	1295	n/a	n/a	0	0	0
2027.54296875	n/a	REC_WORD	4152408	wordpools/wasnorm_wordpool_576.txt	LTP391	ltpFR2	20	9	PLIERS	1089	n/a	n/a	0	0	0
2028.173828125	n/a	REC_WORD	4153700	wordpools/wasnorm_wordpool_576.txt	LTP391	ltpFR2	20	9	BASEMENT	94	n/a	n/a	0	0	0
2028.60888671875	n/a	REC_WORD	4154591	wordpools/wasnorm_wordpool_576.txt	LTP391	ltpFR2	20	9	CELLAR	267	n/a	n/a	0	0	0
2029.2431640625	n/a	REC_WORD	4155890	wordpools/wasnorm_wordpool_576.txt	LTP391	ltpFR2	20	9	GRAVE	658	n/a	n/a	0	0	0
2030.8388671875	n/a	REC_WORD	4159158	wordpools/wasnorm_wordpool_576.txt	LTP391	ltpFR2	20	9	SOFTBALL	1343	n/a	n/a	0	0	0
2031.5947265625	n/a	REC_WORD	4160706	wordpools/wasnorm_wordpool_576.txt	LTP391	ltpFR2	20	9	COCKTAIL	338	n/a	n/a	0	0	0
2108.68994140625	n/a	WORD	4318597	wordpools/wasnorm_wordpool_576.txt	LTP391	ltpFR2	20	10	BISON	131	n/a	n/a	0	0	0
2111.48876953125	n/a	WORD	4324329	wordpools/wasnorm_wordpool_576.txt	LTP391	ltpFR2	20	10	GALLON	618	n/a	n/a	0	0	0
2113.97998046875	n/a	WORD	4329431	wordpools/wasnorm_wordpool_576.txt	LTP391	ltpFR2	20	10	CANAL	226	n/a	n/a	0	0	0
2116.435546875	n/a	WORD	4334460	wordpools/wasnorm_wordpool_576.txt	LTP391	ltpFR2	20	10	GARBAGE	622	n/a	n/a	0	0	0
2119.1005859375	n/a	WORD	4339918	wordpools/wasnorm_wordpool_576.txt	LTP391	ltpFR2	20	10	RADISH	1158	n/a	n/a	0	0	0
2121.69140625	n/a	WORD	4345224	wordpools/wasnorm_wordpool_576.txt	LTP391	ltpFR2	20	10	SALT	1229	n/a	n/a	0	0	0
2124.24853515625	n/a	WORD	4350461	wordpools/wasnorm_wordpool_576.txt	LTP391	ltpFR2	20	10	BARLEY	88	n/a	n/a	0	0	0
2126.814453125	n/a	WORD	4355716	wordpools/wasnorm_wordpool_576.txt	LTP391	ltpFR2	20	10	VELVET	1555	n/a	n/a	0	0	0
2129.6123046875	n/a	WORD	4361446	wordpools/wasnorm_wordpool_576.txt	LTP391	ltpFR2	20	10	RUST	1219	n/a	n/a	0	0	0
2132.42041015625	n/a	WORD	4367197	wordpools/wasnorm_wordpool_576.txt	LTP391	ltpFR2	20	10	UMPIRE	1535	n/a	n/a	0	0	0
2135.17724609375	n/a	WORD	4372843	wordpools/wasnorm_wordpool_576.txt	LTP391	ltpFR2	20	10	CATCHER	258	n/a	n/a	0	0	0
2137.90234375	n/a	WORD	4378424	wordpools/wasnorm_wordpool_576.txt	LTP391	ltpFR2	20	10	CLOCK	325	n/a	n/a	0	0	0
2140.47509765625	n/a	WORD	4383693	wordpools/wasnorm_wordpool_576.txt	LTP391	ltpFR2	20	10	LION	827	n/a	n/a	0	0	0
2143.2490234375	n/a	WORD	4389374	wordpools/wasnorm_wordpool_576.txt	LTP391	ltpFR2	20	10	TEMPLE	1448	n/a	n/a	0	0	0
2145.7060546875	n/a	WORD	4394406	wordpools/wasnorm_wordpool_576.txt	LTP391	ltpFR2	20	10	HAMPER	682	n/a	n/a	0	0	0
2148.3369140625	n/a	WORD	4399794	wordpools/wasnorm_wordpool_576.txt	LTP391	ltpFR2	20	10	THIEF	1456	n/a	n/a	0	0	0
2150.7529296875	n/a	WORD	4404742	wordpools/wasnorm_wordpool_576.txt	LTP391	ltpFR2	20	10	CAPTIVE	240	n/a	n/a	0	0	0
2153.49267578125	n/a	WORD	4410353	wordpools/wasnorm_wordpool_576.txt	LTP391	ltpFR2	20	10	PICTURE	1061	n/a	n/a	0	0	0
2155.92578125	n/a	WORD	4415336	wordpools/wasnorm_wordpool_576.txt	LTP391	ltpFR2	20	10	TUTU	1524	n/a	n/a	0	0	0
2158.34765625	n/a	WORD	4420296	wordpools/wasnorm_wordpool_576.txt	LTP391	ltpFR2	20	10	MATCH	878	n/a	n/a	0	0	0
2161.12939453125	n/a	WORD	4425993	wordpools/wasnorm_wordpool_576.txt	LTP391	ltpFR2	20	10	CIGAR	308	n/a	n/a	0	0	0
2163.58642578125	n/a	WORD	4431025	wordpools/wasnorm_wordpool_576.txt	LTP391	ltpFR2	20	10	PANTHER	1009	n/a	n/a	0	0	0
2166.12646484375	n/a	WORD	4436227	wordpools/wasnorm_wordpool_576.txt	LTP391	ltpFR2	20	10	OUTLAW	989	n/a	n/a	0	0	0
2168.55810546875	n/a	WORD	4441207	wordpools/wasnorm_wordpool_576.txt	LTP391	ltpFR2	20	10	PADDING	999	n/a	n/a	0	0	0
2170.162109375	n/a	START	4444492	n/a	LTP391	ltpFR2	20	n/a	n/a	n/a	14	n/a	n/a	n/a	n/a
2171.0	n/a	DISTRACTOR	4446208	n/a	LTP391	ltpFR2	20	10	n/a	n/a	n/a	n/a	0	0	0
2171.00732421875	n/a	PROB	4446223	n/a	LTP391	ltpFR2	20	n/a	n/a	n/a	14	15	2	8	5
2175.14208984375	n/a	PROB	4454691	n/a	LTP391	ltpFR2	20	n/a	n/a	n/a	14	18	5	5	8
2176.537109375	n/a	PROB	4457548	n/a	LTP391	ltpFR2	20	n/a	n/a	n/a	14	22	7	9	6
2178.0009765625	n/a	PROB	4460546	n/a	LTP391	ltpFR2	20	n/a	n/a	n/a	14	11	6	4	1
2181.751953125	n/a	PROB	4468228	n/a	LTP391	ltpFR2	20	n/a	n/a	n/a	14	22	7	8	7
2186.19677734375	n/a	PROB	4477331	n/a	LTP391	ltpFR2	20	n/a	n/a	n/a	14	16	2	6	8
2188.3857421875	n/a	PROB	4481814	n/a	LTP391	ltpFR2	20	n/a	n/a	n/a	14	20	4	7	9
2189.78173828125	n/a	PROB	4484673	n/a	LTP391	ltpFR2	20	n/a	n/a	n/a	14	11	1	8	2
2192.20458984375	n/a	PROB	4489635	n/a	LTP391	ltpFR2	20	n/a	n/a	n/a	14	12	9	1	2
2193.20654296875	n/a	STOP	4491687	n/a	LTP391	ltpFR2	20	n/a	n/a	n/a	14	n/a	n/a	n/a	n/a
2195.982421875	n/a	REC_START	4497372	n/a	LTP391	ltpFR2	20	10	n/a	n/a	n/a	n/a	0	0	0
2197.17138671875	n/a	REC_WORD	4499807	wordpools/wasnorm_wordpool_576.txt	LTP391	ltpFR2	20	10	BISON	131	n/a	n/a	0	0	0
2197.6015625	n/a	REC_WORD	4500688	wordpools/wasnorm_wordpool_576.txt	LTP391	ltpFR2	20	10	LION	827	n/a	n/a	0	0	0
2198.095703125	n/a	REC_WORD	4501700	wordpools/wasnorm_wordpool_576.txt	LTP391	ltpFR2	20	10	TEMPLE	1448	n/a	n/a	0	0	0
2203.55517578125	n/a	REC_WORD	4512881	wordpools/wasnorm_wordpool_576.txt	LTP391	ltpFR2	20	10	TUTU	1524	n/a	n/a	0	0	0
2286.4140625	n/a	WORD	4682576	wordpools/wasnorm_wordpool_576.txt	LTP391	ltpFR2	20	11	RACKET	1155	n/a	n/a	0	0	0
2288.87109375	n/a	WORD	4687608	wordpools/wasnorm_wordpool_576.txt	LTP391	ltpFR2	20	11	JUGGLER	763	n/a	n/a	0	0	0
2291.3349609375	n/a	WORD	4692654	wordpools/wasnorm_wordpool_576.txt	LTP391	ltpFR2	20	11	COUNTY	389	n/a	n/a	0	0	0
2293.951171875	n/a	WORD	4698012	wordpools/wasnorm_wordpool_576.txt	LTP391	ltpFR2	20	11	PIGMENT	1066	n/a	n/a	0	0	0
2296.53173828125	n/a	WORD	4703297	wordpools/wasnorm_wordpool_576.txt	LTP391	ltpFR2	20	11	DORM	488	n/a	n/a	0	0	0
2299.306640625	n/a	WORD	4708980	wordpools/wasnorm_wordpool_576.txt	LTP391	ltpFR2	20	11	FIREPLACE	570	n/a	n/a	0	0	0
2301.96484375	n/a	WORD	4714424	wordpools/wasnorm_wordpool_576.txt	LTP391	ltpFR2	20	11	DOUGHNUT	490	n/a	n/a	0	0	0
2304.65380859375	n/a	WORD	4719931	wordpools/wasnorm_wordpool_576.txt	LTP391	ltpFR2	20	11	PLAID	1080	n/a	n/a	0	0	0
2307.2607421875	n/a	WORD	4725270	wordpools/wasnorm_wordpool_576.txt	LTP391	ltpFR2	20	11	TURTLE	1522	n/a	n/a	0	0	0
2309.79345703125	n/a	WORD	4730457	wordpools/wasnorm_wordpool_576.txt	LTP391	ltpFR2	20	11	EUROPE	541	n/a	n/a	0	0	0
2312.42431640625	n/a	WORD	4735845	wordpools/wasnorm_wordpool_576.txt	LTP391	ltpFR2	20	11	ORCHID	982	n/a	n/a	0	0	0
2315.232421875	n/a	WORD	4741596	wordpools/wasnorm_wordpool_576.txt	LTP391	ltpFR2	20	11	GARDEN	623	n/a	n/a	0	0	0
2317.740234375	n/a	WORD	4746732	wordpools/wasnorm_wordpool_576.txt	LTP391	ltpFR2	20	11	CAMEL	223	n/a	n/a	0	0	0
2320.3623046875	n/a	WORD	4752102	wordpools/wasnorm_wordpool_576.txt	LTP391	ltpFR2	20	11	FARMER	553	n/a	n/a	0	0	0
2323.02001953125	n/a	WORD	4757545	wordpools/wasnorm_wordpool_576.txt	LTP391	ltpFR2	20	11	WAGON	1578	n/a	n/a	0	0	0
2325.576171875	n/a	WORD	4762780	wordpools/wasnorm_wordpool_576.txt	LTP391	ltpFR2	20	11	PATROL	1027	n/a	n/a	0	0	0
2328.18310546875	n/a	WORD	4768119	wordpools/wasnorm_wordpool_576.txt	LTP391	ltpFR2	20	11	HORNET	718	n/a	n/a	0	0	0
2330.72509765625	n/a	WORD	4773325	wordpools/wasnorm_wordpool_576.txt	LTP391	ltpFR2	20	11	TOASTER	1472	n/a	n/a	0	0	0
2333.27978515625	n/a	WORD	4778557	wordpools/wasnorm_wordpool_576.txt	LTP391	ltpFR2	20	11	SHRUB	1299	n/a	n/a	0	0	0
2336.02978515625	n/a	WORD	4784189	wordpools/wasnorm_wordpool_576.txt	LTP391	ltpFR2	20	11	VALVE	1546	n/a	n/a	0	0	0
2338.82080078125	n/a	WORD	4789905	wordpools/wasnorm_wordpool_576.txt	LTP391	ltpFR2	20	11	SNAIL	1332	n/a	n/a	0	0	0
2341.40185546875	n/a	WORD	4795191	wordpools/wasnorm_wordpool_576.txt	LTP391	ltpFR2	20	11	FIREMAN	569	n/a	n/a	0	0	0
2344.009765625	n/a	WORD	4800532	wordpools/wasnorm_wordpool_576.txt	LTP391	ltpFR2	20	11	OX	994	n/a	n/a	0	0	0
2346.640625	n/a	WORD	4805920	wordpools/wasnorm_wordpool_576.txt	LTP391	ltpFR2	20	11	APRON	35	n/a	n/a	0	0	0
2348.24560546875	n/a	START	4809207	n/a	LTP391	ltpFR2	20	n/a	n/a	n/a	15	n/a	n/a	n/a	n/a
2349.2275390625	n/a	DISTRACTOR	4811218	n/a	LTP391	ltpFR2	20	11	n/a	n/a	n/a	n/a	0	0	0
2372.24462890625	n/a	STOP	4858357	n/a	LTP391	ltpFR2	20	n/a	n/a	n/a	15	n/a	n/a	n/a	n/a
2373.99072265625	n/a	REC_START	4861933	n/a	LTP391	ltpFR2	20	11	n/a	n/a	n/a	n/a	0	0	0
2448.98388671875	n/a	REC_WORD_VV	5015519	wordpools/wasnorm_wordpool_576.txt	LTP391	ltpFR2	20	11	<>	-1	n/a	n/a	0	0	0
2464.42138671875	n/a	WORD	5047135	wordpools/wasnorm_wordpool_576.txt	LTP391	ltpFR2	20	12	NEUTRON	947	n/a	n/a	0	0	0
2467.0712890625	n/a	WORD	5052562	wordpools/wasnorm_wordpool_576.txt	LTP391	ltpFR2	20	12	BEAKER	104	n/a	n/a	0	0	0
2469.787109375	n/a	WORD	5058124	wordpools/wasnorm_wordpool_576.txt	LTP391	ltpFR2	20	12	KITCHEN	778	n/a	n/a	0	0	0
2472.3671875	n/a	WORD	5063408	wordpools/wasnorm_wordpool_576.txt	LTP391	ltpFR2	20	12	BANJO	82	n/a	n/a	0	0	0
2475.05126953125	n/a	WORD	5068905	wordpools/wasnorm_wordpool_576.txt	LTP391	ltpFR2	20	12	MONEY	908	n/a	n/a	0	0	0
2477.73291015625	n/a	WORD	5074397	wordpools/wasnorm_wordpool_576.txt	LTP391	ltpFR2	20	12	SADDLE	1221	n/a	n/a	0	0	0
2480.3310546875	n/a	WORD	5079718	wordpools/wasnorm_wordpool_576.txt	LTP391	ltpFR2	20	12	STOVE	1388	n/a	n/a	0	0	0
2482.9140625	n/a	WORD	5085008	wordpools/wasnorm_wordpool_576.txt	LTP391	ltpFR2	20	12	DANCER	437	n/a	n/a	0	0	0
2485.65283203125	n/a	WORD	5090617	wordpools/wasnorm_wordpool_576.txt	LTP391	ltpFR2	20	12	LILY	821	n/a	n/a	0	0	0
2488.3935546875	n/a	WORD	5096230	wordpools/wasnorm_wordpool_576.txt	LTP391	ltpFR2	20	12	ROBOT	1200	n/a	n/a	0	0	0
2491.00146484375	n/a	WORD	5101571	wordpools/wasnorm_wordpool_576.txt	LTP391	ltpFR2	20	12	GIFT	635	n/a	n/a	0	0	0
2493.5576171875	n/a	WORD	5106806	wordpools/wasnorm_wordpool_576.txt	LTP391	ltpFR2	20	12	PACKAGE	997	n/a	n/a	0	0	0
2495.99853515625	n/a	WORD	5111805	wordpools/wasnorm_wordpool_576.txt	LTP391	ltpFR2	20	12	LACE	792	n/a	n/a	0	0	0
2498.7724609375	n/a	WORD	5117486	wordpools/wasnorm_wordpool_576.txt	LTP391	ltpFR2	20	12	WASHER	1592	n/a	n/a	0	0	0
2501.29443359375	n/a	WORD	5122651	wordpools/wasnorm_wordpool_576.txt	LTP391	ltpFR2	20	12	TWEEZERS	1526	n/a	n/a	0	0	0
2503.8115234375	n/a	WORD	5127806	wordpools/wasnorm_wordpool_576.txt	LTP391	ltpFR2	20	12	TERMITE	1451	n/a	n/a	0	0	0
2506.5751953125	n/a	WORD	5133466	wordpools/wasnorm_wordpool_576.txt	LTP391	ltpFR2	20	12	AIRPLANE	12	n/a	n/a	0	0	0
2509.00830078125	n/a	WORD	5138449	wordpools/wasnorm_wordpool_576.txt	LTP391	ltpFR2	20	12	SCISSORS	1250	n/a	n/a	0	0	0
2511.5390625	n/a	WORD	5143632	wordpools/wasnorm_wordpool_576.txt	LTP391	ltpFR2	20	12	NAPKIN	937	n/a	n/a	0	0	0
2514.0302734375	n/a	WORD	5148734	wordpools/wasnorm_wordpool_576.txt	LTP391	ltpFR2	20	12	CUPBOARD	425	n/a	n/a	0	0	0
2516.6767578125	n/a	WORD	5154154	wordpools/wasnorm_wordpool_576.txt	LTP391	ltpFR2	20	12	DONOR	485	n/a	n/a	0	0	0
2519.35986328125	n/a	WORD	5159649	wordpools/wasnorm_wordpool_576.txt	LTP391	ltpFR2	20	12	POLICE	1098	n/a	n/a	0	0	0
2521.85888671875	n/a	WORD	5164767	wordpools/wasnorm_wordpool_576.txt	LTP391	ltpFR2	20	12	ROOSTER	1209	n/a	n/a	0	0	0
2524.35595703125	n/a	WORD	5169881	wordpools/wasnorm_wordpool_576.txt	LTP391	ltpFR2	20	12	REPORT	1184	n/a	n/a	0	0	0
2525.9619140625	n/a	START	5173170	n/a	LTP391	ltpFR2	20	n/a	n/a	n/a	16	n/a	n/a	n/a	n/a
2527.0029296875	n/a	DISTRACTOR	5175302	n/a	LTP391	ltpFR2	20	12	n/a	n/a	n/a	n/a	0	0	0
2549.9609375	n/a	STOP	5222320	n/a	LTP391	ltpFR2	20	n/a	n/a	n/a	16	n/a	n/a	n/a	n/a
2551.7138671875	n/a	REC_START	5225910	n/a	LTP391	ltpFR2	20	12	n/a	n/a	n/a	n/a	0	0	0
2626.70703125	n/a	REC_WORD_VV	5379496	wordpools/wasnorm_wordpool_576.txt	LTP391	ltpFR2	20	12	<>	-1	n/a	n/a	0	0	0
2642.13671875	n/a	DISTRACTOR	5411096	n/a	LTP391	ltpFR2	20	13	n/a	n/a	n/a	n/a	0	0	0
2642.13671875	n/a	START	5411096	n/a	LTP391	ltpFR2	20	n/a	n/a	n/a	17	n/a	n/a	n/a	n/a
2666.13623046875	n/a	STOP	5460247	n/a	LTP391	ltpFR2	20	n/a	n/a	n/a	17	n/a	n/a	n/a	n/a
2667.25390625	n/a	WORD	5462536	wordpools/wasnorm_wordpool_576.txt	LTP391	ltpFR2	20	13	HOUND	724	n/a	n/a	0	0	0
2670.06201171875	n/a	WORD	5468287	wordpools/wasnorm_wordpool_576.txt	LTP391	ltpFR2	20	13	FRANCE	601	n/a	n/a	0	0	0
2672.57568359375	n/a	WORD	5473435	wordpools/wasnorm_wordpool_576.txt	LTP391	ltpFR2	20	13	TURNIP	1521	n/a	n/a	0	0	0
2675.0087890625	n/a	WORD	5478418	wordpools/wasnorm_wordpool_576.txt	LTP391	ltpFR2	20	13	OYSTER	995	n/a	n/a	0	0	0
2677.53173828125	n/a	WORD	5483585	wordpools/wasnorm_wordpool_576.txt	LTP391	ltpFR2	20	13	CLAM	315	n/a	n/a	0	0	0
2680.08740234375	n/a	WORD	5488819	wordpools/wasnorm_wordpool_576.txt	LTP391	ltpFR2	20	13	CRICKET	408	n/a	n/a	0	0	0
2682.87158203125	n/a	WORD	5494521	wordpools/wasnorm_wordpool_576.txt	LTP391	ltpFR2	20	13	CORAL	378	n/a	n/a	0	0	0
2685.41845703125	n/a	WORD	5499737	wordpools/wasnorm_wordpool_576.txt	LTP391	ltpFR2	20	13	ULCER	1533	n/a	n/a	0	0	0
2687.9765625	n/a	WORD	5504976	wordpools/wasnorm_wordpool_576.txt	LTP391	ltpFR2	20	13	REBEL	1172	n/a	n/a	0	0	0
2690.5244140625	n/a	WORD	5510194	wordpools/wasnorm_wordpool_576.txt	LTP391	ltpFR2	20	13	CHAMPAGNE	278	n/a	n/a	0	0	0
2693.03125	n/a	WORD	5515328	wordpools/wasnorm_wordpool_576.txt	LTP391	ltpFR2	20	13	GRAPE	654	n/a	n/a	0	0	0
2695.60400390625	n/a	WORD	5520597	wordpools/wasnorm_wordpool_576.txt	LTP391	ltpFR2	20	13	ONION	977	n/a	n/a	0	0	0
2698.17822265625	n/a	WORD	5525869	wordpools/wasnorm_wordpool_576.txt	LTP391	ltpFR2	20	13	KLEENEX	782	n/a	n/a	0	0	0
2700.81884765625	n/a	WORD	5531277	wordpools/wasnorm_wordpool_576.txt	LTP391	ltpFR2	20	13	STOMACH	1384	n/a	n/a	0	0	0
2703.26611328125	n/a	WORD	5536289	wordpools/wasnorm_wordpool_576.txt	LTP391	ltpFR2	20	13	FLASHLIGHT	575	n/a	n/a	0	0	0
2705.7158203125	n/a	WORD	5541306	wordpools/wasnorm_wordpool_576.txt	LTP391	ltpFR2	20	13	VIKING	1565	n/a	n/a	0	0	0
2708.4638671875	n/a	WORD	5546934	wordpools/wasnorm_wordpool_576.txt	LTP391	ltpFR2	20	13	RAFT	1159	n/a	n/a	0	0	0
2710.89599609375	n/a	WORD	5551915	wordpools/wasnorm_wordpool_576.txt	LTP391	ltpFR2	20	13	BROOK	177	n/a	n/a	0	0	0
2713.69482421875	n/a	WORD	5557647	wordpools/wasnorm_wordpool_576.txt	LTP391	ltpFR2	20	13	BURGLAR	200	n/a	n/a	0	0	0
2716.40185546875	n/a	WORD	5563191	wordpools/wasnorm_wordpool_576.txt	LTP391	ltpFR2	20	13	POPCORN	1104	n/a	n/a	0	0	0
2719.091796875	n/a	WORD	5568700	wordpools/wasnorm_wordpool_576.txt	LTP391	ltpFR2	20	13	SWIMMER	1420	n/a	n/a	0	0	0
2721.82568359375	n/a	WORD	5574299	wordpools/wasnorm_wordpool_576.txt	LTP391	ltpFR2	20	13	BRANDY	169	n/a	n/a	0	0	0
2724.47265625	n/a	WORD	5579720	wordpools/wasnorm_wordpool_576.txt	LTP391	ltpFR2	20	13	BOYFRIEND	162	n/a	n/a	0	0	0
2727.16357421875	n/a	WORD	5585231	wordpools/wasnorm_wordpool_576.txt	LTP391	ltpFR2	20	13	ANTLER	29	n/a	n/a	0	0	0
2728.76953125	n/a	START	5588520	n/a	LTP391	ltpFR2	20	n/a	n/a	n/a	18	n/a	n/a	n/a	n/a
2729.89111328125	n/a	DISTRACTOR	5590817	n/a	LTP391	ltpFR2	20	13	n/a	n/a	n/a	n/a	0	0	0
2752.767578125	n/a	STOP	5637668	n/a	LTP391	ltpFR2	20	n/a	n/a	n/a	18	n/a	n/a	n/a	n/a
2754.49560546875	n/a	REC_START	5641207	n/a	LTP391	ltpFR2	20	13	n/a	n/a	n/a	n/a	0	0	0
2829.48876953125	n/a	REC_WORD_VV	5794793	wordpools/wasnorm_wordpool_576.txt	LTP391	ltpFR2	20	13	<>	-1	n/a	n/a	0	0	0
2844.92822265625	n/a	WORD	5826413	wordpools/wasnorm_wordpool_576.txt	LTP391	ltpFR2	20	14	MAPLE	866	n/a	n/a	0	0	0
2847.375	n/a	WORD	5831424	wordpools/wasnorm_wordpool_576.txt	LTP391	ltpFR2	20	14	FLUTE	585	n/a	n/a	0	0	0
2849.9921875	n/a	WORD	5836784	wordpools/wasnorm_wordpool_576.txt	LTP391	ltpFR2	20	14	OMELET	976	n/a	n/a	0	0	0
2852.7578125	n/a	WORD	5842448	wordpools/wasnorm_wordpool_576.txt	LTP391	ltpFR2	20	14	TRUCK	1512	n/a	n/a	0	0	0
2855.2548828125	n/a	WORD	5847562	wordpools/wasnorm_wordpool_576.txt	LTP391	ltpFR2	20	14	PADDLE	1000	n/a	n/a	0	0	0
2857.81298828125	n/a	WORD	5852801	wordpools/wasnorm_wordpool_576.txt	LTP391	ltpFR2	20	14	HAND	683	n/a	n/a	0	0	0
2860.5439453125	n/a	WORD	5858394	wordpools/wasnorm_wordpool_576.txt	LTP391	ltpFR2	20	14	STATUE	1374	n/a	n/a	0	0	0
2863.009765625	n/a	WORD	5863444	wordpools/wasnorm_wordpool_576.txt	LTP391	ltpFR2	20	14	SHELTER	1282	n/a	n/a	0	0	0
2865.81787109375	n/a	WORD	5869195	wordpools/wasnorm_wordpool_576.txt	LTP391	ltpFR2	20	14	GUARD	667	n/a	n/a	0	0	0
2868.36474609375	n/a	WORD	5874411	wordpools/wasnorm_wordpool_576.txt	LTP391	ltpFR2	20	14	ARMY	39	n/a	n/a	0	0	0
2870.92236328125	n/a	WORD	5879649	wordpools/wasnorm_wordpool_576.txt	LTP391	ltpFR2	20	14	CREATURE	403	n/a	n/a	0	0	0
2873.478515625	n/a	WORD	5884884	wordpools/wasnorm_wordpool_576.txt	LTP391	ltpFR2	20	14	DRIVER	499	n/a	n/a	0	0	0
2876.1103515625	n/a	WORD	5890274	wordpools/wasnorm_wordpool_576.txt	LTP391	ltpFR2	20	14	BACON	67	n/a	n/a	0	0	0
2878.87744140625	n/a	WORD	5895941	wordpools/wasnorm_wordpool_576.txt	LTP391	ltpFR2	20	14	BRAKE	166	n/a	n/a	0	0	0
2881.55810546875	n/a	WORD	5901431	wordpools/wasnorm_wordpool_576.txt	LTP391	ltpFR2	20	14	JUNGLE	764	n/a	n/a	0	0	0
2884.26513671875	n/a	WORD	5906975	wordpools/wasnorm_wordpool_576.txt	LTP391	ltpFR2	20	14	SKIRT	1319	n/a	n/a	0	0	0
2886.81494140625	n/a	WORD	5912197	wordpools/wasnorm_wordpool_576.txt	LTP391	ltpFR2	20	14	ISLAND	745	n/a	n/a	0	0	0
2889.31201171875	n/a	WORD	5917311	wordpools/wasnorm_wordpool_576.txt	LTP391	ltpFR2	20	14	PROTON	1132	n/a	n/a	0	0	0
2891.802734375	n/a	WORD	5922412	wordpools/wasnorm_wordpool_576.txt	LTP391	ltpFR2	20	14	ATOM	55	n/a	n/a	0	0	0
2894.5849609375	n/a	WORD	5928110	wordpools/wasnorm_wordpool_576.txt	LTP391	ltpFR2	20	14	GREASE	660	n/a	n/a	0	0	0
2897.03369140625	n/a	WORD	5933125	wordpools/wasnorm_wordpool_576.txt	LTP391	ltpFR2	20	14	BOUQUET	157	n/a	n/a	0	0	0
2899.48095703125	n/a	WORD	5938137	wordpools/wasnorm_wordpool_576.txt	LTP391	ltpFR2	20	14	VAGRANT	1544	n/a	n/a	0	0	0
2902.27978515625	n/a	WORD	5943869	wordpools/wasnorm_wordpool_576.txt	LTP391	ltpFR2	20	14	WRENCH	1625	n/a	n/a	0	0	0
2904.71240234375	n/a	WORD	5948851	wordpools/wasnorm_wordpool_576.txt	LTP391	ltpFR2	20	14	DRILL	497	n/a	n/a	0	0	0
2906.31640625	n/a	START	5952136	n/a	LTP391	ltpFR2	20	n/a	n/a	n/a	19	n/a	n/a	n/a	n/a
2907.15966796875	n/a	DISTRACTOR	5953863	n/a	LTP391	ltpFR2	20	14	n/a	n/a	n/a	n/a	0	0	0
2930.31591796875	n/a	STOP	6001287	n/a	LTP391	ltpFR2	20	n/a	n/a	n/a	19	n/a	n/a	n/a	n/a
2932.1689453125	n/a	REC_START	6005082	n/a	LTP391	ltpFR2	20	14	n/a	n/a	n/a	n/a	0	0	0
3007.162109375	n/a	REC_WORD_VV	6158668	wordpools/wasnorm_wordpool_576.txt	LTP391	ltpFR2	20	14	<>	-1	n/a	n/a	0	0	0
3022.59228515625	n/a	DISTRACTOR	6190269	n/a	LTP391	ltpFR2	20	15	n/a	n/a	n/a	n/a	0	0	0
3022.59228515625	n/a	START	6190269	n/a	LTP391	ltpFR2	20	n/a	n/a	n/a	20	n/a	n/a	n/a	n/a
3046.591796875	n/a	STOP	6239420	n/a	LTP391	ltpFR2	20	n/a	n/a	n/a	20	n/a	n/a	n/a	n/a
3047.53369140625	n/a	WORD	6241349	wordpools/wasnorm_wordpool_576.txt	LTP391	ltpFR2	20	15	SWITCH	1422	n/a	n/a	0	0	0
3050.24072265625	n/a	WORD	6246893	wordpools/wasnorm_wordpool_576.txt	LTP391	ltpFR2	20	15	SERVANT	1271	n/a	n/a	0	0	0
3052.8828125	n/a	WORD	6252304	wordpools/wasnorm_wordpool_576.txt	LTP391	ltpFR2	20	15	CYCLONE	431	n/a	n/a	0	0	0
3055.53857421875	n/a	WORD	6257743	wordpools/wasnorm_wordpool_576.txt	LTP391	ltpFR2	20	15	ANKLE	24	n/a	n/a	0	0	0
3058.1455078125	n/a	WORD	6263082	wordpools/wasnorm_wordpool_576.txt	LTP391	ltpFR2	20	15	STAPLE	1371	n/a	n/a	0	0	0
3060.6025390625	n/a	WORD	6268114	wordpools/wasnorm_wordpool_576.txt	LTP391	ltpFR2	20	15	BOX	159	n/a	n/a	0	0	0
3063.0341796875	n/a	WORD	6273094	wordpools/wasnorm_wordpool_576.txt	LTP391	ltpFR2	20	15	CLOTHES	327	n/a	n/a	0	0	0
3065.54833984375	n/a	WORD	6278243	wordpools/wasnorm_wordpool_576.txt	LTP391	ltpFR2	20	15	WIFE	1609	n/a	n/a	0	0	0
3068.0390625	n/a	WORD	6283344	wordpools/wasnorm_wordpool_576.txt	LTP391	ltpFR2	20	15	CHURCH	307	n/a	n/a	0	0	0
3070.64501953125	n/a	WORD	6288681	wordpools/wasnorm_wordpool_576.txt	LTP391	ltpFR2	20	15	ARM	38	n/a	n/a	0	0	0
3073.38623046875	n/a	WORD	6294295	wordpools/wasnorm_wordpool_576.txt	LTP391	ltpFR2	20	15	WRIST	1626	n/a	n/a	0	0	0
3075.80224609375	n/a	WORD	6299243	wordpools/wasnorm_wordpool_576.txt	LTP391	ltpFR2	20	15	MISTER	901	n/a	n/a	0	0	0
3078.2490234375	n/a	WORD	6304254	wordpools/wasnorm_wordpool_576.txt	LTP391	ltpFR2	20	15	DRESS	495	n/a	n/a	0	0	0
3080.73193359375	n/a	WORD	6309339	wordpools/wasnorm_wordpool_576.txt	LTP391	ltpFR2	20	15	LADDER	793	n/a	n/a	0	0	0
3083.4130859375	n/a	WORD	6314830	wordpools/wasnorm_wordpool_576.txt	LTP391	ltpFR2	20	15	FOOT	590	n/a	n/a	0	0	0
3085.98779296875	n/a	WORD	6320103	wordpools/wasnorm_wordpool_576.txt	LTP391	ltpFR2	20	15	PUDDLE	1140	n/a	n/a	0	0	0
3088.6015625	n/a	WORD	6325456	wordpools/wasnorm_wordpool_576.txt	LTP391	ltpFR2	20	15	CASHIER	254	n/a	n/a	0	0	0
3091.17578125	n/a	WORD	6330728	wordpools/wasnorm_wordpool_576.txt	LTP391	ltpFR2	20	15	KETCHUP	771	n/a	n/a	0	0	0
3093.6064453125	n/a	WORD	6335706	wordpools/wasnorm_wordpool_576.txt	LTP391	ltpFR2	20	15	BELLY	119	n/a	n/a	0	0	0
3096.29736328125	n/a	WORD	6341217	wordpools/wasnorm_wordpool_576.txt	LTP391	ltpFR2	20	15	VENUS	1557	n/a	n/a	0	0	0
3099.0556640625	n/a	WORD	6346866	wordpools/wasnorm_wordpool_576.txt	LTP391	ltpFR2	20	15	CLIMBER	323	n/a	n/a	0	0	0
3101.82958984375	n/a	WORD	6352547	wordpools/wasnorm_wordpool_576.txt	LTP391	ltpFR2	20	15	SCARECROW	1245	n/a	n/a	0	0	0
3104.30224609375	n/a	WORD	6357611	wordpools/wasnorm_wordpool_576.txt	LTP391	ltpFR2	20	15	CABBAGE	210	n/a	n/a	0	0	0
3106.8603515625	n/a	WORD	6362850	wordpools/wasnorm_wordpool_576.txt	LTP391	ltpFR2	20	15	FUNGUS	614	n/a	n/a	0	0	0
3108.47119140625	n/a	START	6366149	n/a	LTP391	ltpFR2	20	n/a	n/a	n/a	21	n/a	n/a	n/a	n/a
3109.666015625	n/a	DISTRACTOR	6368596	n/a	LTP391	ltpFR2	20	15	n/a	n/a	n/a	n/a	0	0	0
3132.4697265625	n/a	STOP	6415298	n/a	LTP391	ltpFR2	20	n/a	n/a	n/a	21	n/a	n/a	n/a	n/a
3134.38330078125	n/a	REC_START	6419217	n/a	LTP391	ltpFR2	20	15	n/a	n/a	n/a	n/a	0	0	0
3209.37646484375	n/a	REC_WORD_VV	6572803	wordpools/wasnorm_wordpool_576.txt	LTP391	ltpFR2	20	15	<>	-1	n/a	n/a	0	0	0
3224.82421875	n/a	DISTRACTOR	6604440	n/a	LTP391	ltpFR2	20	16	n/a	n/a	n/a	n/a	0	0	0
3224.82421875	n/a	START	6604440	n/a	LTP391	ltpFR2	20	n/a	n/a	n/a	22	n/a	n/a	n/a	n/a
3248.8232421875	n/a	STOP	6653590	n/a	LTP391	ltpFR2	20	n/a	n/a	n/a	22	n/a	n/a	n/a	n/a
3249.8076171875	n/a	WORD	6655606	wordpools/wasnorm_wordpool_576.txt	LTP391	ltpFR2	20	16	COWBOY	395	n/a	n/a	0	0	0
3252.41357421875	n/a	WORD	6660943	wordpools/wasnorm_wordpool_576.txt	LTP391	ltpFR2	20	16	PLAYGROUND	1087	n/a	n/a	0	0	0
3254.88720703125	n/a	WORD	6666009	wordpools/wasnorm_wordpool_576.txt	LTP391	ltpFR2	20	16	SILK	1307	n/a	n/a	0	0	0
3257.40234375	n/a	WORD	6671160	wordpools/wasnorm_wordpool_576.txt	LTP391	ltpFR2	20	16	SURVEY	1414	n/a	n/a	0	0	0
3259.833984375	n/a	WORD	6676140	wordpools/wasnorm_wordpool_576.txt	LTP391	ltpFR2	20	16	QUARTER	1148	n/a	n/a	0	0	0
3262.490234375	n/a	WORD	6681580	wordpools/wasnorm_wordpool_576.txt	LTP391	ltpFR2	20	16	BANKER	84	n/a	n/a	0	0	0
3265.0478515625	n/a	WORD	6686818	wordpools/wasnorm_wordpool_576.txt	LTP391	ltpFR2	20	16	CASHEW	253	n/a	n/a	0	0	0
3267.56201171875	n/a	WORD	6691967	wordpools/wasnorm_wordpool_576.txt	LTP391	ltpFR2	20	16	VALLEY	1545	n/a	n/a	0	0	0
3270.044921875	n/a	WORD	6697052	wordpools/wasnorm_wordpool_576.txt	LTP391	ltpFR2	20	16	BEEF	113	n/a	n/a	0	0	0
3272.583984375	n/a	WORD	6702252	wordpools/wasnorm_wordpool_576.txt	LTP391	ltpFR2	20	16	GRILL	661	n/a	n/a	0	0	0
3275.1826171875	n/a	WORD	6707574	wordpools/wasnorm_wordpool_576.txt	LTP391	ltpFR2	20	16	CAFE	216	n/a	n/a	0	0	0
3277.99072265625	n/a	WORD	6713325	wordpools/wasnorm_wordpool_576.txt	LTP391	ltpFR2	20	16	ZEBRA	1635	n/a	n/a	0	0	0
3280.78955078125	n/a	WORD	6719057	wordpools/wasnorm_wordpool_576.txt	LTP391	ltpFR2	20	16	THRONE	1461	n/a	n/a	0	0	0
3283.4462890625	n/a	WORD	6724498	wordpools/wasnorm_wordpool_576.txt	LTP391	ltpFR2	20	16	KEEPER	769	n/a	n/a	0	0	0
3285.8955078125	n/a	WORD	6729514	wordpools/wasnorm_wordpool_576.txt	LTP391	ltpFR2	20	16	BLENDER	136	n/a	n/a	0	0	0
3288.6181640625	n/a	WORD	6735090	wordpools/wasnorm_wordpool_576.txt	LTP391	ltpFR2	20	16	DUSTPAN	509	n/a	n/a	0	0	0
3291.30810546875	n/a	WORD	6740599	wordpools/wasnorm_wordpool_576.txt	LTP391	ltpFR2	20	16	PASTA	1021	n/a	n/a	0	0	0
3293.75830078125	n/a	WORD	6745617	wordpools/wasnorm_wordpool_576.txt	LTP391	ltpFR2	20	16	PARSLEY	1016	n/a	n/a	0	0	0
3296.55615234375	n/a	WORD	6751347	wordpools/wasnorm_wordpool_576.txt	LTP391	ltpFR2	20	16	BRICK	172	n/a	n/a	0	0	0
3299.046875	n/a	WORD	6756448	wordpools/wasnorm_wordpool_576.txt	LTP391	ltpFR2	20	16	PECAN	1036	n/a	n/a	0	0	0
3301.61083984375	n/a	WORD	6761699	wordpools/wasnorm_wordpool_576.txt	LTP391	ltpFR2	20	16	SLIDE	1326	n/a	n/a	0	0	0
3304.05908203125	n/a	WORD	6766713	wordpools/wasnorm_wordpool_576.txt	LTP391	ltpFR2	20	16	BOARD	143	n/a	n/a	0	0	0
3306.76806640625	n/a	WORD	6772261	wordpools/wasnorm_wordpool_576.txt	LTP391	ltpFR2	20	16	SHERIFF	1284	n/a	n/a	0	0	0
3309.515625	n/a	WORD	6777888	wordpools/wasnorm_wordpool_576.txt	LTP391	ltpFR2	20	16	CRUTCH	417	n/a	n/a	0	0	0
3311.11962890625	n/a	START	6781173	n/a	LTP391	ltpFR2	20	n/a	n/a	n/a	23	n/a	n/a	n/a	n/a
3312.27392578125	n/a	DISTRACTOR	6783537	n/a	LTP391	ltpFR2	20	16	n/a	n/a	n/a	n/a	0	0	0
3335.119140625	n/a	STOP	6830324	n/a	LTP391	ltpFR2	20	n/a	n/a	n/a	23	n/a	n/a	n/a	n/a
3336.93994140625	n/a	REC_START	6834053	n/a	LTP391	ltpFR2	20	16	n/a	n/a	n/a	n/a	0	0	0
3411.93310546875	n/a	REC_WORD_VV	6987639	wordpools/wasnorm_wordpool_576.txt	LTP391	ltpFR2	20	16	<>	-1	n/a	n/a	0	0	0
3413.458984375	n/a	REST_REWET	6990764	n/a	LTP391	ltpFR2	20	16	n/a	n/a	n/a	n/a	0	0	0
3904.4677734375	n/a	WORD	7996350	wordpools/wasnorm_wordpool_576.txt	LTP391	ltpFR2	20	17	CARROT	249	n/a	n/a	0	0	0
3907.099609375	n/a	WORD	8001740	wordpools/wasnorm_wordpool_576.txt	LTP391	ltpFR2	20	17	DANDRUFF	439	n/a	n/a	0	0	0
3909.85888671875	n/a	WORD	8007391	wordpools/wasnorm_wordpool_576.txt	LTP391	ltpFR2	20	17	MESSAGE	888	n/a	n/a	0	0	0
3912.3388671875	n/a	WORD	8012470	wordpools/wasnorm_wordpool_576.txt	LTP391	ltpFR2	20	17	HANDBAG	684	n/a	n/a	0	0	0
3914.99658203125	n/a	WORD	8017913	wordpools/wasnorm_wordpool_576.txt	LTP391	ltpFR2	20	17	YACHT	1629	n/a	n/a	0	0	0
3917.4853515625	n/a	WORD	8023010	wordpools/wasnorm_wordpool_576.txt	LTP391	ltpFR2	20	17	COLONEL	348	n/a	n/a	0	0	0
3920.13427734375	n/a	WORD	8028435	wordpools/wasnorm_wordpool_576.txt	LTP391	ltpFR2	20	17	LOVER	846	n/a	n/a	0	0	0
3922.57421875	n/a	WORD	8033432	wordpools/wasnorm_wordpool_576.txt	LTP391	ltpFR2	20	17	GIRL	637	n/a	n/a	0	0	0
3925.240234375	n/a	WORD	8038892	wordpools/wasnorm_wordpool_576.txt	LTP391	ltpFR2	20	17	STREAM	1392	n/a	n/a	0	0	0
3927.8984375	n/a	WORD	8044336	wordpools/wasnorm_wordpool_576.txt	LTP391	ltpFR2	20	17	PISTOL	1075	n/a	n/a	0	0	0
3930.35302734375	n/a	WORD	8049363	wordpools/wasnorm_wordpool_576.txt	LTP391	ltpFR2	20	17	SWORD	1423	n/a	n/a	0	0	0
3932.9609375	n/a	WORD	8054704	wordpools/wasnorm_wordpool_576.txt	LTP391	ltpFR2	20	17	HOOD	714	n/a	n/a	0	0	0
3935.5419921875	n/a	WORD	8059990	wordpools/wasnorm_wordpool_576.txt	LTP391	ltpFR2	20	17	GYMNAST	675	n/a	n/a	0	0	0
3938.2578125	n/a	WORD	8065552	wordpools/wasnorm_wordpool_576.txt	LTP391	ltpFR2	20	17	RABBIT	1152	n/a	n/a	0	0	0
3940.7568359375	n/a	WORD	8070670	wordpools/wasnorm_wordpool_576.txt	LTP391	ltpFR2	20	17	FLAG	573	n/a	n/a	0	0	0
3943.43896484375	n/a	WORD	8076163	wordpools/wasnorm_wordpool_576.txt	LTP391	ltpFR2	20	17	BANQUET	86	n/a	n/a	0	0	0
3946.02197265625	n/a	WORD	8081453	wordpools/wasnorm_wordpool_576.txt	LTP391	ltpFR2	20	17	SANDWICH	1232	n/a	n/a	0	0	0
3948.5439453125	n/a	WORD	8086618	wordpools/wasnorm_wordpool_576.txt	LTP391	ltpFR2	20	17	HEADBAND	696	n/a	n/a	0	0	0
3951.017578125	n/a	WORD	8091684	wordpools/wasnorm_wordpool_576.txt	LTP391	ltpFR2	20	17	BINDER	127	n/a	n/a	0	0	0
3953.5234375	n/a	WORD	8096816	wordpools/wasnorm_wordpool_576.txt	LTP391	ltpFR2	20	17	PERCH	1048	n/a	n/a	0	0	0
3956.0556640625	n/a	WORD	8102002	wordpools/wasnorm_wordpool_576.txt	LTP391	ltpFR2	20	17	TRANSPLANT	1496	n/a	n/a	0	0	0
3958.73046875	n/a	WORD	8107480	wordpools/wasnorm_wordpool_576.txt	LTP391	ltpFR2	20	17	CASKET	255	n/a	n/a	0	0	0
3961.478515625	n/a	WORD	8113108	wordpools/wasnorm_wordpool_576.txt	LTP391	ltpFR2	20	17	TOMBSTONE	1478	n/a	n/a	0	0	0
3964.28515625	n/a	WORD	8118856	wordpools/wasnorm_wordpool_576.txt	LTP391	ltpFR2	20	17	HELMET	702	n/a	n/a	0	0	0
3965.89111328125	n/a	START	8122145	n/a	LTP391	ltpFR2	20	n/a	n/a	n/a	24	n/a	n/a	n/a	n/a
3966.8671875	n/a	DISTRACTOR	8124144	n/a	LTP391	ltpFR2	20	17	n/a	n/a	n/a	n/a	0	0	0
3966.87744140625	n/a	PROB	8124165	n/a	LTP391	ltpFR2	20	n/a	n/a	n/a	24	17	7	9	1
3968.96630859375	n/a	PROB	8128443	n/a	LTP391	ltpFR2	20	n/a	n/a	n/a	24	15	4	5	6
3971.5048828125	n/a	PROB	8133642	n/a	LTP391	ltpFR2	20	n/a	n/a	n/a	24	12	4	2	6
3972.77587890625	n/a	PROB	8136245	n/a	LTP391	ltpFR2	20	n/a	n/a	n/a	24	10	1	4	5
3974.044921875	n/a	PROB	8138844	n/a	LTP391	ltpFR2	20	n/a	n/a	n/a	24	20	8	5	7
3975.90087890625	n/a	PROB	8142645	n/a	LTP391	ltpFR2	20	n/a	n/a	n/a	24	11	1	4	6
3977.1279296875	n/a	PROB	8145158	n/a	LTP391	ltpFR2	20	n/a	n/a	n/a	24	17	7	8	2
3978.7919921875	n/a	PROB	8148566	n/a	LTP391	ltpFR2	20	n/a	n/a	n/a	24	22	9	8	5
3980.77197265625	n/a	PROB	8152621	n/a	LTP391	ltpFR2	20	n/a	n/a	n/a	24	12	4	6	2
3982.224609375	n/a	PROB	8155596	n/a	LTP391	ltpFR2	20	n/a	n/a	n/a	24	15	9	1	5
3983.4619140625	n/a	PROB	8158130	n/a	LTP391	ltpFR2	20	n/a	n/a	n/a	24	14	8	5	1
3984.9248046875	n/a	PROB	8161126	n/a	LTP391	ltpFR2	20	n/a	n/a	n/a	24	18	6	7	5
3986.8466796875	n/a	PROB	8165062	n/a	LTP391	ltpFR2	20	n/a	n/a	n/a	24	13	1	3	9
3988.099609375	n/a	PROB	8167628	n/a	LTP391	ltpFR2	20	n/a	n/a	n/a	24	22	7	9	6
3989.349609375	n/a	STOP	8170188	n/a	LTP391	ltpFR2	20	n/a	n/a	n/a	24	n/a	n/a	n/a	n/a
3991.642578125	n/a	REC_START	8174884	n/a	LTP391	ltpFR2	20	17	n/a	n/a	n/a	n/a	0	0	0
3992.29150390625	n/a	REC_WORD	8176213	wordpools/wasnorm_wordpool_576.txt	LTP391	ltpFR2	20	17	CASKET	255	n/a	n/a	0	0	0
3992.83447265625	n/a	REC_WORD	8177325	wordpools/wasnorm_wordpool_576.txt	LTP391	ltpFR2	20	17	TOMBSTONE	1478	n/a	n/a	0	0	0
3994.3564453125	n/a	REC_WORD	8180442	wordpools/wasnorm_wordpool_576.txt	LTP391	ltpFR2	20	17	CARROT	249	n/a	n/a	0	0	0
3996.2216796875	n/a	REC_WORD	8184262	wordpools/wasnorm_wordpool_576.txt	LTP391	ltpFR2	20	17	YACHT	1629	n/a	n/a	0	0	0
3996.8544921875	n/a	REC_WORD	8185558	wordpools/wasnorm_wordpool_576.txt	LTP391	ltpFR2	20	17	LOVER	846	n/a	n/a	0	0	0
3997.53125	n/a	REC_WORD	8186944	wordpools/wasnorm_wordpool_576.txt	LTP391	ltpFR2	20	17	GIRL	637	n/a	n/a	0	0	0
4000.04931640625	n/a	REC_WORD	8192101	wordpools/wasnorm_wordpool_576.txt	LTP391	ltpFR2	20	17	COLONEL	348	n/a	n/a	0	0	0
4082.06640625	n/a	DISTRACTOR	8360072	n/a	LTP391	ltpFR2	20	18	n/a	n/a	n/a	n/a	0	0	0
4082.06640625	n/a	START	8360072	n/a	LTP391	ltpFR2	20	n/a	n/a	n/a	25	n/a	n/a	n/a	n/a
4082.0830078125	n/a	PROB	8360106	n/a	LTP391	ltpFR2	20	n/a	n/a	n/a	25	16	8	3	5
4083.6630859375	n/a	PROB	8363342	n/a	LTP391	ltpFR2	20	n/a	n/a	n/a	25	17	7	7	3
4086.0849609375	n/a	PROB	8368302	n/a	LTP391	ltpFR2	20	n/a	n/a	n/a	25	15	7	6	2
4088.4248046875	n/a	PROB	8373094	n/a	LTP391	ltpFR2	20	n/a	n/a	n/a	25	16	8	7	1
4090.34716796875	n/a	PROB	8377031	n/a	LTP391	ltpFR2	20	n/a	n/a	n/a	25	21	4	8	9
4091.884765625	n/a	PROB	8380180	n/a	LTP391	ltpFR2	20	n/a	n/a	n/a	25	19	4	7	8
4093.68994140625	n/a	PROB	8383877	n/a	LTP391	ltpFR2	20	n/a	n/a	n/a	25	10	2	1	7
4095.35986328125	n/a	PROB	8387297	n/a	LTP391	ltpFR2	20	n/a	n/a	n/a	25	17	5	3	9
4096.6728515625	n/a	PROB	8389986	n/a	LTP391	ltpFR2	20	n/a	n/a	n/a	25	24	7	8	9
4100.90966796875	n/a	PROB	8398663	n/a	LTP391	ltpFR2	20	n/a	n/a	n/a	25	14	5	3	6
4106.0654296875	n/a	STOP	8409222	n/a	LTP391	ltpFR2	20	n/a	n/a	n/a	25	n/a	n/a	n/a	n/a
4106.93359375	n/a	WORD	8411000	wordpools/wasnorm_wordpool_576.txt	LTP391	ltpFR2	20	18	CHAPEL	280	n/a	n/a	0	0	0
4109.35546875	n/a	WORD	8415960	wordpools/wasnorm_wordpool_576.txt	LTP391	ltpFR2	20	18	CEILING	265	n/a	n/a	0	0	0
4111.97216796875	n/a	WORD	8421319	wordpools/wasnorm_wordpool_576.txt	LTP391	ltpFR2	20	18	PEDAL	1037	n/a	n/a	0	0	0
4114.486328125	n/a	WORD	8426468	wordpools/wasnorm_wordpool_576.txt	LTP391	ltpFR2	20	18	CREVICE	405	n/a	n/a	0	0	0
4117.05908203125	n/a	WORD	8431737	wordpools/wasnorm_wordpool_576.txt	LTP391	ltpFR2	20	18	COTTAGE	384	n/a	n/a	0	0	0
4119.55810546875	n/a	WORD	8436855	wordpools/wasnorm_wordpool_576.txt	LTP391	ltpFR2	20	18	SISTER	1312	n/a	n/a	0	0	0
4122.0390625	n/a	WORD	8441936	wordpools/wasnorm_wordpool_576.txt	LTP391	ltpFR2	20	18	DRUG	501	n/a	n/a	0	0	0
4124.755859375	n/a	WORD	8447500	wordpools/wasnorm_wordpool_576.txt	LTP391	ltpFR2	20	18	MOP	916	n/a	n/a	0	0	0
4127.39599609375	n/a	WORD	8452907	wordpools/wasnorm_wordpool_576.txt	LTP391	ltpFR2	20	18	DUST	508	n/a	n/a	0	0	0
4130.0361328125	n/a	WORD	8458314	wordpools/wasnorm_wordpool_576.txt	LTP391	ltpFR2	20	18	TROMBONE	1508	n/a	n/a	0	0	0
4132.65185546875	n/a	WORD	8463671	wordpools/wasnorm_wordpool_576.txt	LTP391	ltpFR2	20	18	DAISY	435	n/a	n/a	0	0	0
4135.1328125	n/a	WORD	8468752	wordpools/wasnorm_wordpool_576.txt	LTP391	ltpFR2	20	18	FLOWER	584	n/a	n/a	0	0	0
4137.630859375	n/a	WORD	8473868	wordpools/wasnorm_wordpool_576.txt	LTP391	ltpFR2	20	18	BROTHER	179	n/a	n/a	0	0	0
4140.1455078125	n/a	WORD	8479018	wordpools/wasnorm_wordpool_576.txt	LTP391	ltpFR2	20	18	WINDOW	1611	n/a	n/a	0	0	0
4142.845703125	n/a	WORD	8484548	wordpools/wasnorm_wordpool_576.txt	LTP391	ltpFR2	20	18	CROWN	415	n/a	n/a	0	0	0
4145.6103515625	n/a	WORD	8490210	wordpools/wasnorm_wordpool_576.txt	LTP391	ltpFR2	20	18	PRINCESS	1125	n/a	n/a	0	0	0
4148.08447265625	n/a	WORD	8495277	wordpools/wasnorm_wordpool_576.txt	LTP391	ltpFR2	20	18	SIBLING	1301	n/a	n/a	0	0	0
4150.89208984375	n/a	WORD	8501027	wordpools/wasnorm_wordpool_576.txt	LTP391	ltpFR2	20	18	UNCLE	1536	n/a	n/a	0	0	0
4153.5732421875	n/a	WORD	8506518	wordpools/wasnorm_wordpool_576.txt	LTP391	ltpFR2	20	18	PORK	1108	n/a	n/a	0	0	0
4156.14697265625	n/a	WORD	8511789	wordpools/wasnorm_wordpool_576.txt	LTP391	ltpFR2	20	18	OUTFIT	988	n/a	n/a	0	0	0
4158.6708984375	n/a	WORD	8516958	wordpools/wasnorm_wordpool_576.txt	LTP391	ltpFR2	20	18	HOOK	715	n/a	n/a	0	0	0
4161.38623046875	n/a	WORD	8522519	wordpools/wasnorm_wordpool_576.txt	LTP391	ltpFR2	20	18	BRANCH	168	n/a	n/a	0	0	0
4164.06787109375	n/a	WORD	8528011	wordpools/wasnorm_wordpool_576.txt	LTP391	ltpFR2	20	18	RELISH	1183	n/a	n/a	0	0	0
4166.79296875	n/a	WORD	8533592	wordpools/wasnorm_wordpool_576.txt	LTP391	ltpFR2	20	18	GROUND	666	n/a	n/a	0	0	0
4168.39697265625	n/a	START	8536877	n/a	LTP391	ltpFR2	20	n/a	n/a	n/a	26	n/a	n/a	n/a	n/a
4169.44677734375	n/a	DISTRACTOR	8539027	n/a	LTP391	ltpFR2	20	18	n/a	n/a	n/a	n/a	0	0	0
4169.44873046875	n/a	PROB	8539031	n/a	LTP391	ltpFR2	20	n/a	n/a	n/a	26	13	6	3	4
4171.90673828125	n/a	PROB	8544065	n/a	LTP391	ltpFR2	20	n/a	n/a	n/a	26	9	2	4	3
4174.2705078125	n/a	PROB	8548906	n/a	LTP391	ltpFR2	20	n/a	n/a	n/a	26	9	1	4	4
4175.4814453125	n/a	PROB	8551386	n/a	LTP391	ltpFR2	20	n/a	n/a	n/a	26	12	6	2	4
4176.8115234375	n/a	PROB	8554110	n/a	LTP391	ltpFR2	20	n/a	n/a	n/a	26	11	2	1	8
4178.04736328125	n/a	PROB	8556641	n/a	LTP391	ltpFR2	20	n/a	n/a	n/a	26	16	5	2	9
4180.04443359375	n/a	PROB	8560731	n/a	LTP391	ltpFR2	20	n/a	n/a	n/a	26	15	3	9	3
4181.3564453125	n/a	PROB	8563418	n/a	LTP391	ltpFR2	20	n/a	n/a	n/a	26	12	2	4	6
4182.50927734375	n/a	PROB	8565779	n/a	LTP391	ltpFR2	20	n/a	n/a	n/a	26	19	8	6	5
4184.8076171875	n/a	PROB	8570486	n/a	LTP391	ltpFR2	20	n/a	n/a	n/a	26	12	5	3	4
4186.4365234375	n/a	PROB	8573822	n/a	LTP391	ltpFR2	20	n/a	n/a	n/a	26	18	5	4	9
4187.6904296875	n/a	PROB	8576390	n/a	LTP391	ltpFR2	20	n/a	n/a	n/a	26	18	8	6	4
4188.96923828125	n/a	PROB	8579009	n/a	LTP391	ltpFR2	20	n/a	n/a	n/a	26	18	7	7	4
4190.396484375	n/a	PROB	8581932	n/a	LTP391	ltpFR2	20	n/a	n/a	n/a	26	12	4	3	5
4192.03125	n/a	STOP	8585280	n/a	LTP391	ltpFR2	20	n/a	n/a	n/a	26	n/a	n/a	n/a	n/a
4194.32421875	n/a	REC_START	8589976	n/a	LTP391	ltpFR2	20	18	n/a	n/a	n/a	n/a	0	0	0
4196.6240234375	n/a	REC_WORD	8594686	wordpools/wasnorm_wordpool_576.txt	LTP391	ltpFR2	20	18	CHAPEL	280	n/a	n/a	0	0	0
4197.40087890625	n/a	REC_WORD	8596277	wordpools/wasnorm_wordpool_576.txt	LTP391	ltpFR2	20	18	GROUND	666	n/a	n/a	0	0	0
4199.97607421875	n/a	REC_WORD	8601551	wordpools/wasnorm_wordpool_576.txt	LTP391	ltpFR2	20	18	HOOK	715	n/a	n/a	0	0	0
4200.52587890625	n/a	REC_WORD	8602677	wordpools/wasnorm_wordpool_576.txt	LTP391	ltpFR2	20	18	BRANCH	168	n/a	n/a	0	0	0
4217.1884765625	n/a	REC_WORD	8636802	wordpools/wasnorm_wordpool_576.txt	LTP391	ltpFR2	20	18	COTTAGE	384	n/a	n/a	0	0	0
4218.24169921875	n/a	REC_WORD	8638959	wordpools/wasnorm_wordpool_576.txt	LTP391	ltpFR2	20	18	CEILING	265	n/a	n/a	0	0	0
4284.74853515625	n/a	DISTRACTOR	8775165	n/a	LTP391	ltpFR2	20	19	n/a	n/a	n/a	n/a	0	0	0
4284.75	n/a	START	8775168	n/a	LTP391	ltpFR2	20	n/a	n/a	n/a	27	n/a	n/a	n/a	n/a
4284.765625	n/a	PROB	8775200	n/a	LTP391	ltpFR2	20	n/a	n/a	n/a	27	13	3	2	8
4286.1435546875	n/a	PROB	8778022	n/a	LTP391	ltpFR2	20	n/a	n/a	n/a	27	13	5	2	6
4288.84375	n/a	PROB	8783552	n/a	LTP391	ltpFR2	20	n/a	n/a	n/a	27	21	8	6	7
4291.6845703125	n/a	PROB	8789370	n/a	LTP391	ltpFR2	20	n/a	n/a	n/a	27	24	6	9	9
4294.1396484375	n/a	PROB	8794398	n/a	LTP391	ltpFR2	20	n/a	n/a	n/a	27	18	5	6	7
4295.78662109375	n/a	PROB	8797771	n/a	LTP391	ltpFR2	20	n/a	n/a	n/a	27	13	3	3	7
4297.9091796875	n/a	PROB	8802118	n/a	LTP391	ltpFR2	20	n/a	n/a	n/a	27	11	5	4	2
4299.521484375	n/a	PROB	8805420	n/a	LTP391	ltpFR2	20	n/a	n/a	n/a	27	11	2	4	5
4301.275390625	n/a	PROB	8809012	n/a	LTP391	ltpFR2	20	n/a	n/a	n/a	27	12	3	9	1
4302.529296875	n/a	PROB	8811580	n/a	LTP391	ltpFR2	20	n/a	n/a	n/a	27	15	6	4	5
4304.45947265625	n/a	PROB	8815533	n/a	LTP391	ltpFR2	20	n/a	n/a	n/a	27	11	1	8	2
4305.92236328125	n/a	PROB	8818529	n/a	LTP391	ltpFR2	20	n/a	n/a	n/a	27	23	7	8	8
4307.97607421875	n/a	STOP	8822735	n/a	LTP391	ltpFR2	20	n/a	n/a	n/a	27	n/a	n/a	n/a	n/a
4309.7412109375	n/a	WORD	8826350	wordpools/wasnorm_wordpool_576.txt	LTP391	ltpFR2	20	19	CONTRACT	368	n/a	n/a	0	0	0
4312.2880859375	n/a	WORD	8831566	wordpools/wasnorm_wordpool_576.txt	LTP391	ltpFR2	20	19	SERVER	1272	n/a	n/a	0	0	0
4314.8798828125	n/a	WORD	8836874	wordpools/wasnorm_wordpool_576.txt	LTP391	ltpFR2	20	19	DRINK	498	n/a	n/a	0	0	0
4317.36865234375	n/a	WORD	8841971	wordpools/wasnorm_wordpool_576.txt	LTP391	ltpFR2	20	19	MUFFIN	929	n/a	n/a	0	0	0
4319.9599609375	n/a	WORD	8847278	wordpools/wasnorm_wordpool_576.txt	LTP391	ltpFR2	20	19	LAVA	804	n/a	n/a	0	0	0
4322.37353515625	n/a	WORD	8852221	wordpools/wasnorm_wordpool_576.txt	LTP391	ltpFR2	20	19	COD	340	n/a	n/a	0	0	0
4324.85546875	n/a	WORD	8857304	wordpools/wasnorm_wordpool_576.txt	LTP391	ltpFR2	20	19	SNAKE	1333	n/a	n/a	0	0	0
4327.66357421875	n/a	WORD	8863055	wordpools/wasnorm_wordpool_576.txt	LTP391	ltpFR2	20	19	SCALPEL	1243	n/a	n/a	0	0	0
4330.41162109375	n/a	WORD	8868683	wordpools/wasnorm_wordpool_576.txt	LTP391	ltpFR2	20	19	BLADE	134	n/a	n/a	0	0	0
4333.17724609375	n/a	WORD	8874347	wordpools/wasnorm_wordpool_576.txt	LTP391	ltpFR2	20	19	DAUGHTER	442	n/a	n/a	0	0	0
4335.9521484375	n/a	WORD	8880030	wordpools/wasnorm_wordpool_576.txt	LTP391	ltpFR2	20	19	FRUIT	610	n/a	n/a	0	0	0
4338.55029296875	n/a	WORD	8885351	wordpools/wasnorm_wordpool_576.txt	LTP391	ltpFR2	20	19	WAITER	1580	n/a	n/a	0	0	0
4341.107421875	n/a	WORD	8890588	wordpools/wasnorm_wordpool_576.txt	LTP391	ltpFR2	20	19	SPACE	1345	n/a	n/a	0	0	0
4343.56298828125	n/a	WORD	8895617	wordpools/wasnorm_wordpool_576.txt	LTP391	ltpFR2	20	19	CONVICT	371	n/a	n/a	0	0	0
4346.27001953125	n/a	WORD	8901161	wordpools/wasnorm_wordpool_576.txt	LTP391	ltpFR2	20	19	PIZZA	1079	n/a	n/a	0	0	0
4348.912109375	n/a	WORD	8906572	wordpools/wasnorm_wordpool_576.txt	LTP391	ltpFR2	20	19	MARROW	872	n/a	n/a	0	0	0
4351.5849609375	n/a	WORD	8912046	wordpools/wasnorm_wordpool_576.txt	LTP391	ltpFR2	20	19	FLESH	579	n/a	n/a	0	0	0
4354.32470703125	n/a	WORD	8917657	wordpools/wasnorm_wordpool_576.txt	LTP391	ltpFR2	20	19	MAILMAN	858	n/a	n/a	0	0	0
4356.849609375	n/a	WORD	8922828	wordpools/wasnorm_wordpool_576.txt	LTP391	ltpFR2	20	19	FLEET	578	n/a	n/a	0	0	0
4359.4306640625	n/a	WORD	8928114	wordpools/wasnorm_wordpool_576.txt	LTP391	ltpFR2	20	19	YOLK	1633	n/a	n/a	0	0	0
4362.212890625	n/a	WORD	8933812	wordpools/wasnorm_wordpool_576.txt	LTP391	ltpFR2	20	19	SKILLET	1317	n/a	n/a	0	0	0
4364.8544921875	n/a	WORD	8939222	wordpools/wasnorm_wordpool_576.txt	LTP391	ltpFR2	20	19	TUNNEL	1519	n/a	n/a	0	0	0
4367.34375	n/a	WORD	8944320	wordpools/wasnorm_wordpool_576.txt	LTP391	ltpFR2	20	19	ACTOR	5	n/a	n/a	0	0	0
4370.109375	n/a	WORD	8949984	wordpools/wasnorm_wordpool_576.txt	LTP391	ltpFR2	20	19	SCALLOP	1242	n/a	n/a	0	0	0
4371.71435546875	n/a	START	8953271	n/a	LTP391	ltpFR2	20	n/a	n/a	n/a	28	n/a	n/a	n/a	n/a
4372.736328125	n/a	DISTRACTOR	8955364	n/a	LTP391	ltpFR2	20	19	n/a	n/a	n/a	n/a	0	0	0
4372.7421875	n/a	PROB	8955376	n/a	LTP391	ltpFR2	20	n/a	n/a	n/a	28	17	6	8	3
4374.6123046875	n/a	PROB	8959206	n/a	LTP391	ltpFR2	20	n/a	n/a	n/a	28	19	4	7	8
4377.88916015625	n/a	PROB	8965917	n/a	LTP391	ltpFR2	20	n/a	n/a	n/a	28	22	6	7	9
4379.39208984375	n/a	PROB	8968995	n/a	LTP391	ltpFR2	20	n/a	n/a	n/a	28	14	7	1	6
4380.6630859375	n/a	PROB	8971598	n/a	LTP391	ltpFR2	20	n/a	n/a	n/a	28	12	1	5	6
4381.81640625	n/a	PROB	8973960	n/a	LTP391	ltpFR2	20	n/a	n/a	n/a	28	20	6	6	8
4383.60302734375	n/a	PROB	8977619	n/a	LTP391	ltpFR2	20	n/a	n/a	n/a	28	17	8	6	3
4384.908203125	n/a	PROB	8980292	n/a	LTP391	ltpFR2	20	n/a	n/a	n/a	28	9	6	1	2
4386.89599609375	n/a	PROB	8984363	n/a	LTP391	ltpFR2	20	n/a	n/a	n/a	28	11	5	5	1
4388.02392578125	n/a	PROB	8986673	n/a	LTP391	ltpFR2	20	n/a	n/a	n/a	28	14	5	1	8
4389.56103515625	n/a	PROB	8989821	n/a	LTP391	ltpFR2	20	n/a	n/a	n/a	28	12	7	1	4
4390.748046875	n/a	PROB	8992252	n/a	LTP391	ltpFR2	20	n/a	n/a	n/a	28	23	9	5	9
4392.15966796875	n/a	PROB	8995143	n/a	LTP391	ltpFR2	20	n/a	n/a	n/a	28	10	5	4	1
4393.7646484375	n/a	PROB	8998430	n/a	LTP391	ltpFR2	20	n/a	n/a	n/a	28	14	1	4	9
4395.60791015625	n/a	STOP	9002205	n/a	LTP391	ltpFR2	20	n/a	n/a	n/a	28	n/a	n/a	n/a	n/a
4397.44873046875	n/a	REC_START	9005975	n/a	LTP391	ltpFR2	20	19	n/a	n/a	n/a	n/a	0	0	0
4397.78759765625	n/a	REC_WORD	9006669	wordpools/wasnorm_wordpool_576.txt	LTP391	ltpFR2	20	19	SCALLOP	1242	n/a	n/a	0	0	0
4398.60888671875	n/a	REC_WORD	9008351	wordpools/wasnorm_wordpool_576.txt	LTP391	ltpFR2	20	19	COD	340	n/a	n/a	0	0	0
4399.91650390625	n/a	REC_WORD	9011029	wordpools/wasnorm_wordpool_576.txt	LTP391	ltpFR2	20	19	SERVER	1272	n/a	n/a	0	0	0
4400.51171875	n/a	REC_WORD	9012248	wordpools/wasnorm_wordpool_576.txt	LTP391	ltpFR2	20	19	DRINK	498	n/a	n/a	0	0	0
4402.8564453125	n/a	REC_WORD	9017050	wordpools/wasnorm_wordpool_576.txt	LTP391	ltpFR2	20	19	SNAKE	1333	n/a	n/a	0	0	0
4403.552734375	n/a	REC_WORD	9018476	wordpools/wasnorm_wordpool_576.txt	LTP391	ltpFR2	20	19	SCALPEL	1243	n/a	n/a	0	0	0
4408.771484375	n/a	REC_WORD	9029164	wordpools/wasnorm_wordpool_576.txt	LTP391	ltpFR2	20	19	LAVA	804	n/a	n/a	0	0	0
4409.26220703125	n/a	REC_WORD	9030169	wordpools/wasnorm_wordpool_576.txt	LTP391	ltpFR2	20	19	MUFFIN	929	n/a	n/a	0	0	0
4487.89013671875	n/a	DISTRACTOR	9191199	n/a	LTP391	ltpFR2	20	20	n/a	n/a	n/a	n/a	0	0	0
4487.89013671875	n/a	START	9191199	n/a	LTP391	ltpFR2	20	n/a	n/a	n/a	29	n/a	n/a	n/a	n/a
4487.9072265625	n/a	PROB	9191234	n/a	LTP391	ltpFR2	20	n/a	n/a	n/a	29	12	9	2	1
4489.3681640625	n/a	PROB	9194226	n/a	LTP391	ltpFR2	20	n/a	n/a	n/a	29	12	2	1	9
4490.29638671875	n/a	PROB	9196127	n/a	LTP391	ltpFR2	20	n/a	n/a	n/a	29	21	7	8	6
4494.240234375	n/a	PROB	9204204	n/a	LTP391	ltpFR2	20	n/a	n/a	n/a	29	15	3	3	9
4495.60205078125	n/a	PROB	9206993	n/a	LTP391	ltpFR2	20	n/a	n/a	n/a	29	15	8	1	6
4497.0810546875	n/a	PROB	9210022	n/a	LTP391	ltpFR2	20	n/a	n/a	n/a	29	16	7	4	5
4498.97900390625	n/a	PROB	9213909	n/a	LTP391	ltpFR2	20	n/a	n/a	n/a	29	10	2	7	1
4500.490234375	n/a	PROB	9217004	n/a	LTP391	ltpFR2	20	n/a	n/a	n/a	29	17	8	3	6
4501.8701171875	n/a	PROB	9219830	n/a	LTP391	ltpFR2	20	n/a	n/a	n/a	29	15	6	8	1
4503.2890625	n/a	PROB	9222736	n/a	LTP391	ltpFR2	20	n/a	n/a	n/a	29	14	4	4	6
4505.294921875	n/a	PROB	9226844	n/a	LTP391	ltpFR2	20	n/a	n/a	n/a	29	9	3	3	3
4506.640625	n/a	PROB	9229600	n/a	LTP391	ltpFR2	20	n/a	n/a	n/a	29	25	9	7	9
4508.2685546875	n/a	PROB	9232934	n/a	LTP391	ltpFR2	20	n/a	n/a	n/a	29	10	2	4	4
4510.28271484375	n/a	PROB	9237059	n/a	LTP391	ltpFR2	20	n/a	n/a	n/a	29	18	8	8	2
4511.849609375	n/a	STOP	9240268	n/a	LTP391	ltpFR2	20	n/a	n/a	n/a	29	n/a	n/a	n/a	n/a
4512.90771484375	n/a	WORD	9242435	wordpools/wasnorm_wordpool_576.txt	LTP391	ltpFR2	20	20	GRIZZLY	662	n/a	n/a	0	0	0
4515.37158203125	n/a	WORD	9247481	wordpools/wasnorm_wordpool_576.txt	LTP391	ltpFR2	20	20	HIKER	708	n/a	n/a	0	0	0
4517.79541015625	n/a	WORD	9252445	wordpools/wasnorm_wordpool_576.txt	LTP391	ltpFR2	20	20	GOBLIN	645	n/a	n/a	0	0	0
4520.484375	n/a	WORD	9257952	wordpools/wasnorm_wordpool_576.txt	LTP391	ltpFR2	20	20	LEOPARD	812	n/a	n/a	0	0	0
4522.9423828125	n/a	WORD	9262986	wordpools/wasnorm_wordpool_576.txt	LTP391	ltpFR2	20	20	CANYON	235	n/a	n/a	0	0	0
4525.38134765625	n/a	WORD	9267981	wordpools/wasnorm_wordpool_576.txt	LTP391	ltpFR2	20	20	ITEM	746	n/a	n/a	0	0	0
4528.08837890625	n/a	WORD	9273525	wordpools/wasnorm_wordpool_576.txt	LTP391	ltpFR2	20	20	GANGSTER	620	n/a	n/a	0	0	0
4530.68798828125	n/a	WORD	9278849	wordpools/wasnorm_wordpool_576.txt	LTP391	ltpFR2	20	20	MUSTARD	935	n/a	n/a	0	0	0
4533.3779296875	n/a	WORD	9284358	wordpools/wasnorm_wordpool_576.txt	LTP391	ltpFR2	20	20	POSSUM	1112	n/a	n/a	0	0	0
4535.9521484375	n/a	WORD	9289630	wordpools/wasnorm_wordpool_576.txt	LTP391	ltpFR2	20	20	RUG	1215	n/a	n/a	0	0	0
4538.5830078125	n/a	WORD	9295018	wordpools/wasnorm_wordpool_576.txt	LTP391	ltpFR2	20	20	TILE	1468	n/a	n/a	0	0	0
4541.09814453125	n/a	WORD	9300169	wordpools/wasnorm_wordpool_576.txt	LTP391	ltpFR2	20	20	DIME	466	n/a	n/a	0	0	0
4543.7978515625	n/a	WORD	9305698	wordpools/wasnorm_wordpool_576.txt	LTP391	ltpFR2	20	20	PERFUME	1049	n/a	n/a	0	0	0
4546.24560546875	n/a	WORD	9310711	wordpools/wasnorm_wordpool_576.txt	LTP391	ltpFR2	20	20	COIN	343	n/a	n/a	0	0	0
4549.00390625	n/a	WORD	9316360	wordpools/wasnorm_wordpool_576.txt	LTP391	ltpFR2	20	20	TRACTOR	1493	n/a	n/a	0	0	0
4551.57568359375	n/a	WORD	9321627	wordpools/wasnorm_wordpool_576.txt	LTP391	ltpFR2	20	20	SAUSAGE	1238	n/a	n/a	0	0	0
4554.2587890625	n/a	WORD	9327122	wordpools/wasnorm_wordpool_576.txt	LTP391	ltpFR2	20	20	MARKET	871	n/a	n/a	0	0	0
4556.93359375	n/a	WORD	9332600	wordpools/wasnorm_wordpool_576.txt	LTP391	ltpFR2	20	20	CRAB	397	n/a	n/a	0	0	0
4559.38818359375	n/a	WORD	9337627	wordpools/wasnorm_wordpool_576.txt	LTP391	ltpFR2	20	20	CATTLE	261	n/a	n/a	0	0	0
4561.904296875	n/a	WORD	9342780	wordpools/wasnorm_wordpool_576.txt	LTP391	ltpFR2	20	20	MILK	895	n/a	n/a	0	0	0
4564.3603515625	n/a	WORD	9347810	wordpools/wasnorm_wordpool_576.txt	LTP391	ltpFR2	20	20	EAGLE	512	n/a	n/a	0	0	0
4566.826171875	n/a	WORD	9352860	wordpools/wasnorm_wordpool_576.txt	LTP391	ltpFR2	20	20	DRAGON	492	n/a	n/a	0	0	0
4569.52392578125	n/a	WORD	9358385	wordpools/wasnorm_wordpool_576.txt	LTP391	ltpFR2	20	20	BUBBLE	183	n/a	n/a	0	0	0
4572.1982421875	n/a	WORD	9363862	wordpools/wasnorm_wordpool_576.txt	LTP391	ltpFR2	20	20	FOOTBALL	591	n/a	n/a	0	0	0
4573.80322265625	n/a	START	9367149	n/a	LTP391	ltpFR2	20	n/a	n/a	n/a	30	n/a	n/a	n/a	n/a
4574.9072265625	n/a	DISTRACTOR	9369410	n/a	LTP391	ltpFR2	20	20	n/a	n/a	n/a	n/a	0	0	0
4574.9140625	n/a	PROB	9369424	n/a	LTP391	ltpFR2	20	n/a	n/a	n/a	30	15	2	6	7
4579.55908203125	n/a	PROB	9378937	n/a	LTP391	ltpFR2	20	n/a	n/a	n/a	30	21	9	9	3
4580.9140625	n/a	PROB	9381712	n/a	LTP391	ltpFR2	20	n/a	n/a	n/a	30	6	2	3	1
4582.224609375	n/a	PROB	9384396	n/a	LTP391	ltpFR2	20	n/a	n/a	n/a	30	7	1	5	1
4584.69091796875	n/a	PROB	9389447	n/a	LTP391	ltpFR2	20	n/a	n/a	n/a	30	17	4	9	4
4586.1435546875	n/a	PROB	9392422	n/a	LTP391	ltpFR2	20	n/a	n/a	n/a	30	8	4	2	2
4588.03173828125	n/a	PROB	9396289	n/a	LTP391	ltpFR2	20	n/a	n/a	n/a	30	14	3	7	4
4589.24365234375	n/a	PROB	9398771	n/a	LTP391	ltpFR2	20	n/a	n/a	n/a	30	11	1	5	5
4590.4794921875	n/a	PROB	9401302	n/a	LTP391	ltpFR2	20	n/a	n/a	n/a	30	10	2	5	3
4591.80078125	n/a	PROB	9404008	n/a	LTP391	ltpFR2	20	n/a	n/a	n/a	30	13	4	6	3
4593.7314453125	n/a	PROB	9407962	n/a	LTP391	ltpFR2	20	n/a	n/a	n/a	30	21	4	8	9
4597.80224609375	n/a	STOP	9416299	n/a	LTP391	ltpFR2	20	n/a	n/a	n/a	30	n/a	n/a	n/a	n/a
4599.55419921875	n/a	REC_START	9419887	n/a	LTP391	ltpFR2	20	20	n/a	n/a	n/a	n/a	0	0	0
4600.20556640625	n/a	REC_WORD	9421221	wordpools/wasnorm_wordpool_576.txt	LTP391	ltpFR2	20	20	CRAB	397	n/a	n/a	0	0	0
4603.85205078125	n/a	REC_WORD	9428689	wordpools/wasnorm_wordpool_576.txt	LTP391	ltpFR2	20	20	GRIZZLY	662	n/a	n/a	0	0	0
4689.97900390625	n/a	DISTRACTOR	9605077	n/a	LTP391	ltpFR2	20	21	n/a	n/a	n/a	n/a	0	0	0
4689.97998046875	n/a	START	9605079	n/a	LTP391	ltpFR2	20	n/a	n/a	n/a	31	n/a	n/a	n/a	n/a
4689.99609375	n/a	PROB	9605112	n/a	LTP391	ltpFR2	20	n/a	n/a	n/a	31	18	9	3	6
4691.416015625	n/a	PROB	9608020	n/a	LTP391	ltpFR2	20	n/a	n/a	n/a	31	20	9	8	3
4693.8056640625	n/a	PROB	9612914	n/a	LTP391	ltpFR2	20	n/a	n/a	n/a	31	12	2	1	9
4694.77587890625	n/a	PROB	9614901	n/a	LTP391	ltpFR2	20	n/a	n/a	n/a	31	16	1	6	9
4696.31982421875	n/a	PROB	9618063	n/a	LTP391	ltpFR2	20	n/a	n/a	n/a	31	17	8	7	2
4697.99267578125	n/a	PROB	9621489	n/a	LTP391	ltpFR2	20	n/a	n/a	n/a	31	13	4	2	7
4699.57861328125	n/a	PROB	9624737	n/a	LTP391	ltpFR2	20	n/a	n/a	n/a	31	12	3	1	8
4700.7744140625	n/a	PROB	9627186	n/a	LTP391	ltpFR2	20	n/a	n/a	n/a	31	15	6	7	2
4703.263671875	n/a	PROB	9632284	n/a	LTP391	ltpFR2	20	n/a	n/a	n/a	31	11	2	8	1
4704.45068359375	n/a	PROB	9634715	n/a	LTP391	ltpFR2	20	n/a	n/a	n/a	31	7	1	3	3
4706.83251953125	n/a	PROB	9639593	n/a	LTP391	ltpFR2	20	n/a	n/a	n/a	31	11	6	2	3
4708.193359375	n/a	PROB	9642380	n/a	LTP391	ltpFR2	20	n/a	n/a	n/a	31	16	8	7	1
4709.8486328125	n/a	PROB	9645770	n/a	LTP391	ltpFR2	20	n/a	n/a	n/a	31	6	3	1	2
4710.826171875	n/a	PROB	9647772	n/a	LTP391	ltpFR2	20	n/a	n/a	n/a	31	18	5	7	6
4712.51318359375	n/a	STOP	9651227	n/a	LTP391	ltpFR2	20	n/a	n/a	n/a	31	n/a	n/a	n/a	n/a
4714.8291015625	n/a	WORD	9655970	wordpools/wasnorm_wordpool_576.txt	LTP391	ltpFR2	20	21	PENGUIN	1044	n/a	n/a	0	0	0
4717.443359375	n/a	WORD	9661324	wordpools/wasnorm_wordpool_576.txt	LTP391	ltpFR2	20	21	RIFLE	1192	n/a	n/a	0	0	0
4720.033203125	n/a	WORD	9666628	wordpools/wasnorm_wordpool_576.txt	LTP391	ltpFR2	20	21	LUMBER	848	n/a	n/a	0	0	0
4722.6318359375	n/a	WORD	9671950	wordpools/wasnorm_wordpool_576.txt	LTP391	ltpFR2	20	21	MOTEL	919	n/a	n/a	0	0	0
4725.30615234375	n/a	WORD	9677427	wordpools/wasnorm_wordpool_576.txt	LTP391	ltpFR2	20	21	BODY	145	n/a	n/a	0	0	0
4728.080078125	n/a	WORD	9683108	wordpools/wasnorm_wordpool_576.txt	LTP391	ltpFR2	20	21	JELLO	754	n/a	n/a	0	0	0
4730.73779296875	n/a	WORD	9688551	wordpools/wasnorm_wordpool_576.txt	LTP391	ltpFR2	20	21	SHARK	1275	n/a	n/a	0	0	0
4733.32666015625	n/a	WORD	9693853	wordpools/wasnorm_wordpool_576.txt	LTP391	ltpFR2	20	21	SEAFOOD	1260	n/a	n/a	0	0	0
4736.1015625	n/a	WORD	9699536	wordpools/wasnorm_wordpool_576.txt	LTP391	ltpFR2	20	21	LETTUCE	814	n/a	n/a	0	0	0
4738.82666015625	n/a	WORD	9705117	wordpools/wasnorm_wordpool_576.txt	LTP391	ltpFR2	20	21	LAMP	798	n/a	n/a	0	0	0
4741.50732421875	n/a	WORD	9710607	wordpools/wasnorm_wordpool_576.txt	LTP391	ltpFR2	20	21	SUPPER	1411	n/a	n/a	0	0	0
4744.22265625	n/a	WORD	9716168	wordpools/wasnorm_wordpool_576.txt	LTP391	ltpFR2	20	21	LUGGAGE	847	n/a	n/a	0	0	0
4746.96435546875	n/a	WORD	9721783	wordpools/wasnorm_wordpool_576.txt	LTP391	ltpFR2	20	21	PILOT	1070	n/a	n/a	0	0	0
4749.55322265625	n/a	WORD	9727085	wordpools/wasnorm_wordpool_576.txt	LTP391	ltpFR2	20	21	AIRPORT	13	n/a	n/a	0	0	0
4752.16943359375	n/a	WORD	9732443	wordpools/wasnorm_wordpool_576.txt	LTP391	ltpFR2	20	21	SCULPTURE	1258	n/a	n/a	0	0	0
4754.75244140625	n/a	WORD	9737733	wordpools/wasnorm_wordpool_576.txt	LTP391	ltpFR2	20	21	HEDGE	699	n/a	n/a	0	0	0
4757.34912109375	n/a	WORD	9743051	wordpools/wasnorm_wordpool_576.txt	LTP391	ltpFR2	20	21	NOVEL	960	n/a	n/a	0	0	0
4760.10693359375	n/a	WORD	9748699	wordpools/wasnorm_wordpool_576.txt	LTP391	ltpFR2	20	21	VIRUS	1572	n/a	n/a	0	0	0
4762.5380859375	n/a	WORD	9753678	wordpools/wasnorm_wordpool_576.txt	LTP391	ltpFR2	20	21	WHISKERS	1605	n/a	n/a	0	0	0
4765.25390625	n/a	WORD	9759240	wordpools/wasnorm_wordpool_576.txt	LTP391	ltpFR2	20	21	FRAGRANCE	599	n/a	n/a	0	0	0
4767.70263671875	n/a	WORD	9764255	wordpools/wasnorm_wordpool_576.txt	LTP391	ltpFR2	20	21	OINTMENT	974	n/a	n/a	0	0	0
4770.27587890625	n/a	WORD	9769525	wordpools/wasnorm_wordpool_576.txt	LTP391	ltpFR2	20	21	PIMPLE	1071	n/a	n/a	0	0	0
4773.00048828125	n/a	WORD	9775105	wordpools/wasnorm_wordpool_576.txt	LTP391	ltpFR2	20	21	CUSTARD	429	n/a	n/a	0	0	0
4775.74951171875	n/a	WORD	9780735	wordpools/wasnorm_wordpool_576.txt	LTP391	ltpFR2	20	21	FRAME	600	n/a	n/a	0	0	0
4777.3525390625	n/a	START	9784018	n/a	LTP391	ltpFR2	20	n/a	n/a	n/a	32	n/a	n/a	n/a	n/a
4778.24462890625	n/a	DISTRACTOR	9785845	n/a	LTP391	ltpFR2	20	21	n/a	n/a	n/a	n/a	0	0	0
4778.24658203125	n/a	PROB	9785849	n/a	LTP391	ltpFR2	20	n/a	n/a	n/a	32	17	2	6	9
4780.177734375	n/a	PROB	9789804	n/a	LTP391	ltpFR2	20	n/a	n/a	n/a	32	14	8	4	2
4781.94970703125	n/a	PROB	9793433	n/a	LTP391	ltpFR2	20	n/a	n/a	n/a	32	21	8	9	4
4784.30419921875	n/a	PROB	9798255	n/a	LTP391	ltpFR2	20	n/a	n/a	n/a	32	4	2	1	1
4785.91845703125	n/a	PROB	9801561	n/a	LTP391	ltpFR2	20	n/a	n/a	n/a	32	10	2	6	2
4787.3544921875	n/a	PROB	9804502	n/a	LTP391	ltpFR2	20	n/a	n/a	n/a	32	14	7	1	6
4788.64208984375	n/a	PROB	9807139	n/a	LTP391	ltpFR2	20	n/a	n/a	n/a	32	16	9	2	5
4790.18701171875	n/a	PROB	9810303	n/a	LTP391	ltpFR2	20	n/a	n/a	n/a	32	8	3	2	3
4792.10009765625	n/a	PROB	9814221	n/a	LTP391	ltpFR2	20	n/a	n/a	n/a	32	17	9	3	5
4793.51220703125	n/a	PROB	9817113	n/a	LTP391	ltpFR2	20	n/a	n/a	n/a	32	14	2	3	9
4795.125	n/a	PROB	9820416	n/a	LTP391	ltpFR2	20	n/a	n/a	n/a	32	16	5	7	4
4797.080078125	n/a	PROB	9824420	n/a	LTP391	ltpFR2	20	n/a	n/a	n/a	32	11	1	7	3
4798.81103515625	n/a	PROB	9827965	n/a	LTP391	ltpFR2	20	n/a	n/a	n/a	32	17	7	4	6
4801.11376953125	n/a	STOP	9832681	n/a	LTP391	ltpFR2	20	n/a	n/a	n/a	32	n/a	n/a	n/a	n/a
4803.248046875	n/a	REC_START	9837052	n/a	LTP391	ltpFR2	20	21	n/a	n/a	n/a	n/a	0	0	0
4803.82666015625	n/a	REC_WORD	9838237	wordpools/wasnorm_wordpool_576.txt	LTP391	ltpFR2	20	21	OINTMENT	974	n/a	n/a	0	0	0
4804.36669921875	n/a	REC_WORD	9839343	wordpools/wasnorm_wordpool_576.txt	LTP391	ltpFR2	20	21	PIMPLE	1071	n/a	n/a	0	0	0
4812.1025390625	n/a	REC_WORD	9855186	wordpools/wasnorm_wordpool_576.txt	LTP391	ltpFR2	20	21	BODY	145	n/a	n/a	0	0	0
4893.6806640625	n/a	WORD	10022258	wordpools/wasnorm_wordpool_576.txt	LTP391	ltpFR2	20	22	BLOCKADE	137	n/a	n/a	0	0	0
4896.32861328125	n/a	WORD	10027681	wordpools/wasnorm_wordpool_576.txt	LTP391	ltpFR2	20	22	SHORTCAKE	1292	n/a	n/a	0	0	0
4898.869140625	n/a	WORD	10032884	wordpools/wasnorm_wordpool_576.txt	LTP391	ltpFR2	20	22	FRIAR	605	n/a	n/a	0	0	0
4901.47509765625	n/a	WORD	10038221	wordpools/wasnorm_wordpool_576.txt	LTP391	ltpFR2	20	22	STUDENT	1395	n/a	n/a	0	0	0
4903.9912109375	n/a	WORD	10043374	wordpools/wasnorm_wordpool_576.txt	LTP391	ltpFR2	20	22	HUSBAND	728	n/a	n/a	0	0	0
4906.64794921875	n/a	WORD	10048815	wordpools/wasnorm_wordpool_576.txt	LTP391	ltpFR2	20	22	PREACHER	1119	n/a	n/a	0	0	0
4909.330078125	n/a	WORD	10054308	wordpools/wasnorm_wordpool_576.txt	LTP391	ltpFR2	20	22	TUBA	1515	n/a	n/a	0	0	0
4911.92919921875	n/a	WORD	10059631	wordpools/wasnorm_wordpool_576.txt	LTP391	ltpFR2	20	22	RECORD	1176	n/a	n/a	0	0	0
4914.72802734375	n/a	WORD	10065363	wordpools/wasnorm_wordpool_576.txt	LTP391	ltpFR2	20	22	GAVEL	627	n/a	n/a	0	0	0
4917.42578125	n/a	WORD	10070888	wordpools/wasnorm_wordpool_576.txt	LTP391	ltpFR2	20	22	EMPIRE	530	n/a	n/a	0	0	0
4919.94189453125	n/a	WORD	10076041	wordpools/wasnorm_wordpool_576.txt	LTP391	ltpFR2	20	22	TRIBE	1505	n/a	n/a	0	0	0
4922.37255859375	n/a	WORD	10081019	wordpools/wasnorm_wordpool_576.txt	LTP391	ltpFR2	20	22	LODGE	839	n/a	n/a	0	0	0
4925.171875	n/a	WORD	10086752	wordpools/wasnorm_wordpool_576.txt	LTP391	ltpFR2	20	22	WORKER	1621	n/a	n/a	0	0	0
4927.90478515625	n/a	WORD	10092349	wordpools/wasnorm_wordpool_576.txt	LTP391	ltpFR2	20	22	QUEEN	1149	n/a	n/a	0	0	0
4930.3603515625	n/a	WORD	10097378	wordpools/wasnorm_wordpool_576.txt	LTP391	ltpFR2	20	22	PEANUT	1032	n/a	n/a	0	0	0
4932.82666015625	n/a	WORD	10102429	wordpools/wasnorm_wordpool_576.txt	LTP391	ltpFR2	20	22	SPIDER	1351	n/a	n/a	0	0	0
4935.4326171875	n/a	WORD	10107766	wordpools/wasnorm_wordpool_576.txt	LTP391	ltpFR2	20	22	CITRUS	313	n/a	n/a	0	0	0
4938.2314453125	n/a	WORD	10113498	wordpools/wasnorm_wordpool_576.txt	LTP391	ltpFR2	20	22	LEADER	807	n/a	n/a	0	0	0
4940.697265625	n/a	WORD	10118548	wordpools/wasnorm_wordpool_576.txt	LTP391	ltpFR2	20	22	MARSH	874	n/a	n/a	0	0	0
4943.50439453125	n/a	WORD	10124297	wordpools/wasnorm_wordpool_576.txt	LTP391	ltpFR2	20	22	SWAMP	1416	n/a	n/a	0	0	0
4945.97021484375	n/a	WORD	10129347	wordpools/wasnorm_wordpool_576.txt	LTP391	ltpFR2	20	22	PARENT	1013	n/a	n/a	0	0	0
4948.583984375	n/a	WORD	10134700	wordpools/wasnorm_wordpool_576.txt	LTP391	ltpFR2	20	22	BLACKBOARD	133	n/a	n/a	0	0	0
4951.2001953125	n/a	WORD	10140058	wordpools/wasnorm_wordpool_576.txt	LTP391	ltpFR2	20	22	TYPIST	1532	n/a	n/a	0	0	0
4953.673828125	n/a	WORD	10145124	wordpools/wasnorm_wordpool_576.txt	LTP391	ltpFR2	20	22	BRIEFCASE	175	n/a	n/a	0	0	0
4955.27685546875	n/a	START	10148407	n/a	LTP391	ltpFR2	20	n/a	n/a	n/a	33	n/a	n/a	n/a	n/a
4956.35498046875	n/a	DISTRACTOR	10150615	n/a	LTP391	ltpFR2	20	22	n/a	n/a	n/a	n/a	0	0	0
4956.36279296875	n/a	PROB	10150631	n/a	LTP391	ltpFR2	20	n/a	n/a	n/a	33	24	8	9	7
4959.9658203125	n/a	PROB	10158010	n/a	LTP391	ltpFR2	20	n/a	n/a	n/a	33	14	5	2	7
4961.64453125	n/a	PROB	10161448	n/a	LTP391	ltpFR2	20	n/a	n/a	n/a	33	12	5	2	5
4963.4658203125	n/a	PROB	10165178	n/a	LTP391	ltpFR2	20	n/a	n/a	n/a	33	16	2	9	5
4965.5205078125	n/a	PROB	10169386	n/a	LTP391	ltpFR2	20	n/a	n/a	n/a	33	9	2	1	6
4966.892578125	n/a	PROB	10172196	n/a	LTP391	ltpFR2	20	n/a	n/a	n/a	33	14	8	4	2
4968.41259765625	n/a	PROB	10175309	n/a	LTP391	ltpFR2	20	n/a	n/a	n/a	33	13	5	4	4
4970.685546875	n/a	PROB	10179964	n/a	LTP391	ltpFR2	20	n/a	n/a	n/a	33	13	3	2	8
