onset	duration	trial_type	sample	stim_file	subject	experiment	session	trial	task	item_name	item_num	recog_conf	resp	color_b	color_g	color_r	case	font
425.518	n/a	SESS_START	212759	n/a	LTP128	ltpFR	3	n/a	n/a	n/a	n/a	1	n/a	n/a	n/a	n/a	n/a	n/a
576.668	n/a	WORD	288334	wordpools/wasnorm_wordpool.txt	LTP128	ltpFR	3	1	1	NET	946	n/a	0	0	0.5869140625	0.422607421875	upper	../fonts/zerothre.ttf
580.7	n/a	WORD	290350	wordpools/wasnorm_wordpool.txt	LTP128	ltpFR	3	1	1	TUNA	1518	n/a	1	0	0.5869140625	0.422607421875	upper	../fonts/zerothre.ttf
584.742	n/a	WORD	292371	wordpools/wasnorm_wordpool.txt	LTP128	ltpFR	3	1	1	ELM	527	n/a	1	0	0.5869140625	0.422607421875	upper	../fonts/zerothre.ttf
588.706	n/a	WORD	294353	wordpools/wasnorm_wordpool.txt	LTP128	ltpFR	3	1	1	SOCK	1339	n/a	0	0	0.5869140625	0.422607421875	upper	../fonts/zerothre.ttf
592.622	n/a	WORD	296311	wordpools/wasnorm_wordpool.txt	LTP128	ltpFR	3	1	0	ROCKET	1202	n/a	1	1	0.412841796875	0.57763671875	lower	../fonts/amplitud.ttf
596.536	n/a	WORD	298268	wordpools/wasnorm_wordpool.txt	LTP128	ltpFR	3	1	0	COTTON	385	n/a	0	1	0.412841796875	0.57763671875	lower	../fonts/amplitud.ttf
600.368	n/a	WORD	300184	wordpools/wasnorm_wordpool.txt	LTP128	ltpFR	3	1	0	HOSTAGE	722	n/a	1	1	0.412841796875	0.57763671875	lower	../fonts/amplitud.ttf
604.426	n/a	WORD	302213	wordpools/wasnorm_wordpool.txt	LTP128	ltpFR	3	1	0	VEST	1559	n/a	1	1	0.412841796875	0.57763671875	lower	../fonts/amplitud.ttf
608.534	n/a	WORD	304267	wordpools/wasnorm_wordpool.txt	LTP128	ltpFR	3	1	0	TREE	1502	n/a	1	1	0.412841796875	0.57763671875	lower	../fonts/amplitud.ttf
612.656	n/a	WORD	306328	wordpools/wasnorm_wordpool.txt	LTP128	ltpFR	3	1	1	MOB	904	n/a	1	0	0.5869140625	0.422607421875	upper	../fonts/zerothre.ttf
616.756	n/a	WORD	308378	wordpools/wasnorm_wordpool.txt	LTP128	ltpFR	3	1	1	SCARF	1246	n/a	0	0	0.5869140625	0.422607421875	upper	../fonts/zerothre.ttf
620.88	n/a	WORD	310440	wordpools/wasnorm_wordpool.txt	LTP128	ltpFR	3	1	1	WITCH	1617	n/a	1	0	0.5869140625	0.422607421875	upper	../fonts/zerothre.ttf
625.038	n/a	WORD	312519	wordpools/wasnorm_wordpool.txt	LTP128	ltpFR	3	1	1	APPLICATION	34	n/a	0	0	0.5869140625	0.422607421875	upper	../fonts/zerothre.ttf
629.212	n/a	WORD	314606	wordpools/wasnorm_wordpool.txt	LTP128	ltpFR	3	1	0	SUPERVISOR	1410	n/a	1	1	0.412841796875	0.57763671875	lower	../fonts/amplitud.ttf
633.292	n/a	WORD	316646	wordpools/wasnorm_wordpool.txt	LTP128	ltpFR	3	1	0	CUE	422	n/a	0	1	0.412841796875	0.57763671875	lower	../fonts/amplitud.ttf
637.126	n/a	WORD	318563	wordpools/wasnorm_wordpool.txt	LTP128	ltpFR	3	1	0	TAG	1429	n/a	0	1	0.412841796875	0.57763671875	lower	../fonts/amplitud.ttf
643.074	n/a	REC_START	321537	n/a	LTP128	ltpFR	3	1	n/a	n/a	n/a	n/a	n/a	n/a	n/a	n/a	n/a	n/a
644.8	n/a	REC_WORD	322400	wordpools/wasnorm_wordpool.txt	LTP128	ltpFR	3	1	0	CUE	422	n/a	0	n/a	n/a	n/a	n/a	n/a
647.08	n/a	REC_WORD	323540	wordpools/wasnorm_wordpool.txt	LTP128	ltpFR	3	1	0	TAG	1429	n/a	0	n/a	n/a	n/a	n/a	n/a
648.532	n/a	REC_WORD	324266	wordpools/wasnorm_wordpool.txt	LTP128	ltpFR	3	1	0	SUPERVISOR	1410	n/a	1	n/a	n/a	n/a	n/a	n/a
650.548	n/a	REC_WORD	325274	wordpools/wasnorm_wordpool.txt	LTP128	ltpFR	3	1	1	MOB	904	n/a	1	n/a	n/a	n/a	n/a	n/a
653.086	n/a	REC_WORD	326543	wordpools/wasnorm_wordpool.txt	LTP128	ltpFR	3	1	1	APPLICATION	34	n/a	0	n/a	n/a	n/a	n/a	n/a
655.048	n/a	REC_WORD	327524	wordpools/wasnorm_wordpool.txt	LTP128	ltpFR	3	1	1	WITCH	1617	n/a	1	n/a	n/a	n/a	n/a	n/a
657.86	n/a	REC_WORD	328930	wordpools/wasnorm_wordpool.txt	LTP128	ltpFR	3	1	1	NET	946	n/a	0	n/a	n/a	n/a	n/a	n/a
659.896	n/a	REC_WORD	329948	wordpools/wasnorm_wordpool.txt	LTP128	ltpFR	3	1	1	TUNA	1518	n/a	1	n/a	n/a	n/a	n/a	n/a
661.682	n/a	REC_WORD	330841	wordpools/wasnorm_wordpool.txt	LTP128	ltpFR	3	1	1	ELM	527	n/a	1	n/a	n/a	n/a	n/a	n/a
663.194	n/a	REC_WORD	331597	wordpools/wasnorm_wordpool.txt	LTP128	ltpFR	3	1	0	TREE	1502	n/a	1	n/a	n/a	n/a	n/a	n/a
665.24	n/a	REC_WORD	332620	wordpools/wasnorm_wordpool.txt	LTP128	ltpFR	3	1	0	COTTON	385	n/a	0	n/a	n/a	n/a	n/a	n/a
667.934	n/a	REC_WORD	333967	wordpools/wasnorm_wordpool.txt	LTP128	ltpFR	3	1	1	SOCK	1339	n/a	0	n/a	n/a	n/a	n/a	n/a
673.028	n/a	REC_WORD	336514	wordpools/wasnorm_wordpool.txt	LTP128	ltpFR	3	1	0	HOSTAGE	722	n/a	1	n/a	n/a	n/a	n/a	n/a
699.024	n/a	REC_WORD	349512	wordpools/wasnorm_wordpool.txt	LTP128	ltpFR	3	1	1	MOB	904	n/a	1	n/a	n/a	n/a	n/a	n/a
733.37	n/a	WORD	366685	wordpools/wasnorm_wordpool.txt	LTP128	ltpFR	3	2	0	APRON	35	n/a	0	1	0.412841796875	0.57763671875	lower	../fonts/amplitud.ttf
737.544	n/a	WORD	368772	wordpools/wasnorm_wordpool.txt	LTP128	ltpFR	3	2	0	KITTEN	780	n/a	0	1	0.412841796875	0.57763671875	lower	../fonts/amplitud.ttf
741.744	n/a	WORD	370872	wordpools/wasnorm_wordpool.txt	LTP128	ltpFR	3	2	0	NAIL	936	n/a	0	1	0.412841796875	0.57763671875	lower	../fonts/amplitud.ttf
745.934	n/a	WORD	372967	wordpools/wasnorm_wordpool.txt	LTP128	ltpFR	3	2	1	TAPE	1433	n/a	0	0	0.5869140625	0.422607421875	upper	../fonts/zerothre.ttf
749.766	n/a	WORD	374883	wordpools/wasnorm_wordpool.txt	LTP128	ltpFR	3	2	1	DOG	480	n/a	1	0	0.5869140625	0.422607421875	upper	../fonts/zerothre.ttf
753.948	n/a	WORD	376974	wordpools/wasnorm_wordpool.txt	LTP128	ltpFR	3	2	1	COLLEGE	346	n/a	1	0	0.5869140625	0.422607421875	upper	../fonts/zerothre.ttf
758.106	n/a	WORD	379053	wordpools/wasnorm_wordpool.txt	LTP128	ltpFR	3	2	1	DOUGHNUT	490	n/a	0	0	0.5869140625	0.422607421875	upper	../fonts/zerothre.ttf
762.022	n/a	WORD	381011	wordpools/wasnorm_wordpool.txt	LTP128	ltpFR	3	2	0	SKATE	1313	n/a	0	1	0.412841796875	0.57763671875	lower	../fonts/amplitud.ttf
765.92	n/a	WORD	382960	wordpools/wasnorm_wordpool.txt	LTP128	ltpFR	3	2	0	ERASER	538	n/a	0	1	0.412841796875	0.57763671875	lower	../fonts/amplitud.ttf
769.826	n/a	WORD	384913	wordpools/wasnorm_wordpool.txt	LTP128	ltpFR	3	2	0	BUYER	208	n/a	0	1	0.412841796875	0.57763671875	lower	../fonts/amplitud.ttf
773.75	n/a	WORD	386875	wordpools/wasnorm_wordpool.txt	LTP128	ltpFR	3	2	0	VICTIM	1562	n/a	1	1	0.412841796875	0.57763671875	lower	../fonts/amplitud.ttf
777.85	n/a	WORD	388925	wordpools/wasnorm_wordpool.txt	LTP128	ltpFR	3	2	0	WIDOW	1608	n/a	1	1	0.412841796875	0.57763671875	lower	../fonts/amplitud.ttf
781.79	n/a	WORD	390895	wordpools/wasnorm_wordpool.txt	LTP128	ltpFR	3	2	1	TRUMPET	1513	n/a	0	0	0.5869140625	0.422607421875	upper	../fonts/zerothre.ttf
785.764	n/a	WORD	392882	wordpools/wasnorm_wordpool.txt	LTP128	ltpFR	3	2	1	SAXOPHONE	1240	n/a	0	0	0.5869140625	0.422607421875	upper	../fonts/zerothre.ttf
789.594	n/a	WORD	394797	wordpools/wasnorm_wordpool.txt	LTP128	ltpFR	3	2	1	HAMPER	682	n/a	0	0	0.5869140625	0.422607421875	upper	../fonts/zerothre.ttf
793.794	n/a	WORD	396897	wordpools/wasnorm_wordpool.txt	LTP128	ltpFR	3	2	1	STAFF	1365	n/a	1	0	0.5869140625	0.422607421875	upper	../fonts/zerothre.ttf
799.778	n/a	REC_START	399889	n/a	LTP128	ltpFR	3	2	n/a	n/a	n/a	n/a	n/a	n/a	n/a	n/a	n/a	n/a
801.09	n/a	REC_WORD	400545	wordpools/wasnorm_wordpool.txt	LTP128	ltpFR	3	2	1	TRUMPET	1513	n/a	0	n/a	n/a	n/a	n/a	n/a
802.122	n/a	REC_WORD	401061	wordpools/wasnorm_wordpool.txt	LTP128	ltpFR	3	2	1	SAXOPHONE	1240	n/a	0	n/a	n/a	n/a	n/a	n/a
803.578	n/a	REC_WORD	401789	wordpools/wasnorm_wordpool.txt	LTP128	ltpFR	3	2	1	HAMPER	682	n/a	0	n/a	n/a	n/a	n/a	n/a
805.006	n/a	REC_WORD	402503	wordpools/wasnorm_wordpool.txt	LTP128	ltpFR	3	2	1	STAFF	1365	n/a	1	n/a	n/a	n/a	n/a	n/a
807.76	n/a	REC_WORD	403880	wordpools/wasnorm_wordpool.txt	LTP128	ltpFR	3	2	0	BUYER	208	n/a	0	n/a	n/a	n/a	n/a	n/a
809.42	n/a	REC_WORD	404710	wordpools/wasnorm_wordpool.txt	LTP128	ltpFR	3	2	0	VICTIM	1562	n/a	1	n/a	n/a	n/a	n/a	n/a
813.466	n/a	REC_WORD	406733	wordpools/wasnorm_wordpool.txt	LTP128	ltpFR	3	2	0	ERASER	538	n/a	0	n/a	n/a	n/a	n/a	n/a
815.952	n/a	REC_WORD	407976	wordpools/wasnorm_wordpool.txt	LTP128	ltpFR	3	2	1	COLLEGE	346	n/a	1	n/a	n/a	n/a	n/a	n/a
817.972	n/a	REC_WORD	408986	wordpools/wasnorm_wordpool.txt	LTP128	ltpFR	3	2	0	SKATE	1313	n/a	0	n/a	n/a	n/a	n/a	n/a
825.386	n/a	REC_WORD	412693	wordpools/wasnorm_wordpool.txt	LTP128	ltpFR	3	2	1	DOG	480	n/a	1	n/a	n/a	n/a	n/a	n/a
826.866	n/a	REC_WORD	413433	wordpools/wasnorm_wordpool.txt	LTP128	ltpFR	3	2	0	NAIL	936	n/a	0	n/a	n/a	n/a	n/a	n/a
828.254	n/a	REC_WORD	414127	wordpools/wasnorm_wordpool.txt	LTP128	ltpFR	3	2	1	TAPE	1433	n/a	0	n/a	n/a	n/a	n/a	n/a
830.298	n/a	REC_WORD	415149	wordpools/wasnorm_wordpool.txt	LTP128	ltpFR	3	2	0	KITTEN	780	n/a	0	n/a	n/a	n/a	n/a	n/a
832.384	n/a	REC_WORD	416192	wordpools/wasnorm_wordpool.txt	LTP128	ltpFR	3	2	0	APRON	35	n/a	0	n/a	n/a	n/a	n/a	n/a
912.068	n/a	WORD	456034	wordpools/wasnorm_wordpool.txt	LTP128	ltpFR	3	3	1	CABBAGE	210	n/a	0	0	0.5869140625	0.422607421875	upper	../fonts/zerothre.ttf
916.174	n/a	WORD	458087	wordpools/wasnorm_wordpool.txt	LTP128	ltpFR	3	3	1	STRAW	1390	n/a	0	0	0.5869140625	0.422607421875	upper	../fonts/zerothre.ttf
920.106	n/a	WORD	460053	wordpools/wasnorm_wordpool.txt	LTP128	ltpFR	3	3	1	PAW	1029	n/a	0	0	0.5869140625	0.422607421875	upper	../fonts/zerothre.ttf
924.122	n/a	WORD	462061	wordpools/wasnorm_wordpool.txt	LTP128	ltpFR	3	3	1	WALLET	1583	n/a	0	0	0.5869140625	0.422607421875	upper	../fonts/zerothre.ttf
928.278	n/a	WORD	464139	wordpools/wasnorm_wordpool.txt	LTP128	ltpFR	3	3	1	CORPORATION	382	n/a	0	0	0.5869140625	0.422607421875	upper	../fonts/zerothre.ttf
932.318	n/a	WORD	466159	wordpools/wasnorm_wordpool.txt	LTP128	ltpFR	3	3	1	CANVAS	234	n/a	0	0	0.5869140625	0.422607421875	upper	../fonts/zerothre.ttf
936.16	n/a	WORD	468080	wordpools/wasnorm_wordpool.txt	LTP128	ltpFR	3	3	1	SCARECROW	1245	n/a	0	0	0.5869140625	0.422607421875	upper	../fonts/zerothre.ttf
940.018	n/a	WORD	470009	wordpools/wasnorm_wordpool.txt	LTP128	ltpFR	3	3	1	ROOSTER	1209	n/a	1	0	0.5869140625	0.422607421875	upper	../fonts/zerothre.ttf
944.024	n/a	WORD	472012	wordpools/wasnorm_wordpool.txt	LTP128	ltpFR	3	3	1	CHICKEN	297	n/a	1	0	0.5869140625	0.422607421875	upper	../fonts/zerothre.ttf
948.148	n/a	WORD	474074	wordpools/wasnorm_wordpool.txt	LTP128	ltpFR	3	3	1	COLOGNE	347	n/a	0	0	0.5869140625	0.422607421875	upper	../fonts/zerothre.ttf
952.33	n/a	WORD	476165	wordpools/wasnorm_wordpool.txt	LTP128	ltpFR	3	3	1	UNCLE	1536	n/a	1	0	0.5869140625	0.422607421875	upper	../fonts/zerothre.ttf
956.486	n/a	WORD	478243	wordpools/wasnorm_wordpool.txt	LTP128	ltpFR	3	3	1	VEGETABLE	1552	n/a	1	0	0.5869140625	0.422607421875	upper	../fonts/zerothre.ttf
960.518	n/a	WORD	480259	wordpools/wasnorm_wordpool.txt	LTP128	ltpFR	3	3	1	STREET	1393	n/a	0	0	0.5869140625	0.422607421875	upper	../fonts/zerothre.ttf
964.384	n/a	WORD	482192	wordpools/wasnorm_wordpool.txt	LTP128	ltpFR	3	3	1	DRAWING	494	n/a	0	0	0.5869140625	0.422607421875	upper	../fonts/zerothre.ttf
968.492	n/a	WORD	484246	wordpools/wasnorm_wordpool.txt	LTP128	ltpFR	3	3	1	CAMEL	223	n/a	1	0	0.5869140625	0.422607421875	upper	../fonts/zerothre.ttf
972.566	n/a	WORD	486283	wordpools/wasnorm_wordpool.txt	LTP128	ltpFR	3	3	1	NOMAD	955	n/a	1	0	0.5869140625	0.422607421875	upper	../fonts/zerothre.ttf
978.174	n/a	REC_START	489087	n/a	LTP128	ltpFR	3	3	n/a	n/a	n/a	n/a	n/a	n/a	n/a	n/a	n/a	n/a
981.286	n/a	REC_WORD	490643	wordpools/wasnorm_wordpool.txt	LTP128	ltpFR	3	3	1	NOMAD	955	n/a	1	n/a	n/a	n/a	n/a	n/a
984.838	n/a	REC_WORD	492419	wordpools/wasnorm_wordpool.txt	LTP128	ltpFR	3	3	1	CORPORATION	382	n/a	0	n/a	n/a	n/a	n/a	n/a
986.106	n/a	REC_WORD	493053	wordpools/wasnorm_wordpool.txt	LTP128	ltpFR	3	3	1	STRAW	1390	n/a	0	n/a	n/a	n/a	n/a	n/a
987.988	n/a	REC_WORD	493994	wordpools/wasnorm_wordpool.txt	LTP128	ltpFR	3	3	1	DRAWING	494	n/a	0	n/a	n/a	n/a	n/a	n/a
997.226	n/a	REC_WORD	498613	wordpools/wasnorm_wordpool.txt	LTP128	ltpFR	3	3	1	ROOSTER	1209	n/a	1	n/a	n/a	n/a	n/a	n/a
998.518	n/a	REC_WORD	499259	wordpools/wasnorm_wordpool.txt	LTP128	ltpFR	3	3	1	SCARECROW	1245	n/a	0	n/a	n/a	n/a	n/a	n/a
1000.23	n/a	REC_WORD	500115	wordpools/wasnorm_wordpool.txt	LTP128	ltpFR	3	3	1	UNCLE	1536	n/a	1	n/a	n/a	n/a	n/a	n/a
1001.816	n/a	REC_WORD	500908	wordpools/wasnorm_wordpool.txt	LTP128	ltpFR	3	3	1	COLOGNE	347	n/a	0	n/a	n/a	n/a	n/a	n/a
1003.742	n/a	REC_WORD	501871	wordpools/wasnorm_wordpool.txt	LTP128	ltpFR	3	3	1	PAW	1029	n/a	0	n/a	n/a	n/a	n/a	n/a
1006.21	n/a	REC_WORD	503105	wordpools/wasnorm_wordpool.txt	LTP128	ltpFR	3	3	1	STRAW	1390	n/a	0	n/a	n/a	n/a	n/a	n/a
1010.118	n/a	REC_WORD	505059	wordpools/wasnorm_wordpool.txt	LTP128	ltpFR	3	3	1	CABBAGE	210	n/a	0	n/a	n/a	n/a	n/a	n/a
1020.424	n/a	REC_WORD	510212	wordpools/wasnorm_wordpool.txt	LTP128	ltpFR	3	3	1	CANVAS	234	n/a	0	n/a	n/a	n/a	n/a	n/a
1038.51	n/a	REC_WORD	519255	wordpools/wasnorm_wordpool.txt	LTP128	ltpFR	3	3	1	VEGETABLE	1552	n/a	1	n/a	n/a	n/a	n/a	n/a
1084.19	n/a	WORD	542095	wordpools/wasnorm_wordpool.txt	LTP128	ltpFR	3	4	1	STICKER	1382	n/a	0	0	0.5869140625	0.422607421875	upper	../fonts/zerothre.ttf
1088.232	n/a	WORD	544116	wordpools/wasnorm_wordpool.txt	LTP128	ltpFR	3	4	1	LABEL	790	n/a	0	0	0.5869140625	0.422607421875	upper	../fonts/zerothre.ttf
1092.08	n/a	WORD	546040	wordpools/wasnorm_wordpool.txt	LTP128	ltpFR	3	4	1	ICEBERG	731	n/a	1	0	0.5869140625	0.422607421875	upper	../fonts/zerothre.ttf
1096.096	n/a	WORD	548048	wordpools/wasnorm_wordpool.txt	LTP128	ltpFR	3	4	1	CONVICT	371	n/a	1	0	0.5869140625	0.422607421875	upper	../fonts/zerothre.ttf
1100.11	n/a	WORD	550055	wordpools/wasnorm_wordpool.txt	LTP128	ltpFR	3	4	0	RUNNER	1218	n/a	1	1	0.412841796875	0.57763671875	lower	../fonts/amplitud.ttf
1104.16	n/a	WORD	552080	wordpools/wasnorm_wordpool.txt	LTP128	ltpFR	3	4	0	KITE	779	n/a	0	1	0.412841796875	0.57763671875	lower	../fonts/amplitud.ttf
1108.15	n/a	WORD	554075	wordpools/wasnorm_wordpool.txt	LTP128	ltpFR	3	4	0	MOSQUITO	917	n/a	0	1	0.412841796875	0.57763671875	lower	../fonts/amplitud.ttf
1112.174	n/a	WORD	556087	wordpools/wasnorm_wordpool.txt	LTP128	ltpFR	3	4	0	BANDANNA	80	n/a	0	1	0.412841796875	0.57763671875	lower	../fonts/amplitud.ttf
1116.188	n/a	WORD	558094	wordpools/wasnorm_wordpool.txt	LTP128	ltpFR	3	4	0	SKULL	1320	n/a	0	1	0.412841796875	0.57763671875	lower	../fonts/amplitud.ttf
1120.294	n/a	WORD	560147	wordpools/wasnorm_wordpool.txt	LTP128	ltpFR	3	4	0	POISON	1096	n/a	0	1	0.412841796875	0.57763671875	lower	../fonts/amplitud.ttf
1124.486	n/a	WORD	562243	wordpools/wasnorm_wordpool.txt	LTP128	ltpFR	3	4	1	TURTLE	1522	n/a	1	0	0.5869140625	0.422607421875	upper	../fonts/zerothre.ttf
1128.518	n/a	WORD	564259	wordpools/wasnorm_wordpool.txt	LTP128	ltpFR	3	4	1	HAT	690	n/a	0	0	0.5869140625	0.422607421875	upper	../fonts/zerothre.ttf
1132.358	n/a	WORD	566179	wordpools/wasnorm_wordpool.txt	LTP128	ltpFR	3	4	1	CREAM	402	n/a	0	0	0.5869140625	0.422607421875	upper	../fonts/zerothre.ttf
1136.2	n/a	WORD	568100	wordpools/wasnorm_wordpool.txt	LTP128	ltpFR	3	4	1	SOFTBALL	1343	n/a	0	0	0.5869140625	0.422607421875	upper	../fonts/zerothre.ttf
1140.24	n/a	WORD	570120	wordpools/wasnorm_wordpool.txt	LTP128	ltpFR	3	4	0	LIZARD	834	n/a	0	1	0.412841796875	0.57763671875	lower	../fonts/amplitud.ttf
1144.306	n/a	WORD	572153	wordpools/wasnorm_wordpool.txt	LTP128	ltpFR	3	4	0	CRIMINAL	409	n/a	0	1	0.412841796875	0.57763671875	lower	../fonts/amplitud.ttf
1150.012	n/a	REC_START	575006	n/a	LTP128	ltpFR	3	4	n/a	n/a	n/a	n/a	n/a	n/a	n/a	n/a	n/a	n/a
1153.03	n/a	REC_WORD	576515	wordpools/wasnorm_wordpool.txt	LTP128	ltpFR	3	4	0	CRIMINAL	409	n/a	0	n/a	n/a	n/a	n/a	n/a
1154.092	n/a	REC_WORD	577046	wordpools/wasnorm_wordpool.txt	LTP128	ltpFR	3	4	0	LIZARD	834	n/a	0	n/a	n/a	n/a	n/a	n/a
1155.694	n/a	REC_WORD	577847	wordpools/wasnorm_wordpool.txt	LTP128	ltpFR	3	4	1	TURTLE	1522	n/a	1	n/a	n/a	n/a	n/a	n/a
1157.012	n/a	REC_WORD	578506	wordpools/wasnorm_wordpool.txt	LTP128	ltpFR	3	4	1	HAT	690	n/a	0	n/a	n/a	n/a	n/a	n/a
1161.248	n/a	REC_WORD	580624	wordpools/wasnorm_wordpool.txt	LTP128	ltpFR	3	4	1	CREAM	402	n/a	0	n/a	n/a	n/a	n/a	n/a
1162.72	n/a	REC_WORD	581360	wordpools/wasnorm_wordpool.txt	LTP128	ltpFR	3	4	1	SOFTBALL	1343	n/a	0	n/a	n/a	n/a	n/a	n/a
1166.146	n/a	REC_WORD	583073	wordpools/wasnorm_wordpool.txt	LTP128	ltpFR	3	4	1	ICEBERG	731	n/a	1	n/a	n/a	n/a	n/a	n/a
1167.858	n/a	REC_WORD	583929	wordpools/wasnorm_wordpool.txt	LTP128	ltpFR	3	4	0	MOSQUITO	917	n/a	0	n/a	n/a	n/a	n/a	n/a
1169.972	n/a	REC_WORD	584986	wordpools/wasnorm_wordpool.txt	LTP128	ltpFR	3	4	0	BANDANNA	80	n/a	0	n/a	n/a	n/a	n/a	n/a
1193.242	n/a	REC_WORD	596621	wordpools/wasnorm_wordpool.txt	LTP128	ltpFR	3	4	0	KITE	779	n/a	0	n/a	n/a	n/a	n/a	n/a
1195.002	n/a	REC_WORD	597501	wordpools/wasnorm_wordpool.txt	LTP128	ltpFR	3	4	0	RUNNER	1218	n/a	1	n/a	n/a	n/a	n/a	n/a
1209.854	n/a	REC_WORD	604927	wordpools/wasnorm_wordpool.txt	LTP128	ltpFR	3	4	1	CONVICT	371	n/a	1	n/a	n/a	n/a	n/a	n/a
1246.076	n/a	WORD	623038	wordpools/wasnorm_wordpool.txt	LTP128	ltpFR	3	5	-1	BARLEY	88	n/a	-1	1	1.0	1.0	upper	../fonts/Verdana.ttf
1249.998	n/a	WORD	624999	wordpools/wasnorm_wordpool.txt	LTP128	ltpFR	3	5	-1	PISTOL	1075	n/a	-1	1	1.0	1.0	upper	../fonts/Verdana.ttf
1254.014	n/a	WORD	627007	wordpools/wasnorm_wordpool.txt	LTP128	ltpFR	3	5	-1	PRODUCER	1129	n/a	-1	1	1.0	1.0	upper	../fonts/Verdana.ttf
1258.022	n/a	WORD	629011	wordpools/wasnorm_wordpool.txt	LTP128	ltpFR	3	5	-1	RACCOON	1153	n/a	-1	1	1.0	1.0	upper	../fonts/Verdana.ttf
1261.854	n/a	WORD	630927	wordpools/wasnorm_wordpool.txt	LTP128	ltpFR	3	5	-1	NEUTRON	947	n/a	-1	1	1.0	1.0	upper	../fonts/Verdana.ttf
1265.944	n/a	WORD	632972	wordpools/wasnorm_wordpool.txt	LTP128	ltpFR	3	5	-1	NERVE	944	n/a	-1	1	1.0	1.0	upper	../fonts/Verdana.ttf
1269.918	n/a	WORD	634959	wordpools/wasnorm_wordpool.txt	LTP128	ltpFR	3	5	-1	BEAN	105	n/a	-1	1	1.0	1.0	upper	../fonts/Verdana.ttf
1273.774	n/a	WORD	636887	wordpools/wasnorm_wordpool.txt	LTP128	ltpFR	3	5	-1	GRASSHOPPER	656	n/a	-1	1	1.0	1.0	upper	../fonts/Verdana.ttf
1277.832	n/a	WORD	638916	wordpools/wasnorm_wordpool.txt	LTP128	ltpFR	3	5	-1	BUTTERFLY	206	n/a	-1	1	1.0	1.0	upper	../fonts/Verdana.ttf
1281.99	n/a	WORD	640995	wordpools/wasnorm_wordpool.txt	LTP128	ltpFR	3	5	-1	POT	1114	n/a	-1	1	1.0	1.0	upper	../fonts/Verdana.ttf
1286.138	n/a	WORD	643069	wordpools/wasnorm_wordpool.txt	LTP128	ltpFR	3	5	-1	KNIFE	785	n/a	-1	1	1.0	1.0	upper	../fonts/Verdana.ttf
1290.128	n/a	WORD	645064	wordpools/wasnorm_wordpool.txt	LTP128	ltpFR	3	5	-1	CORN	381	n/a	-1	1	1.0	1.0	upper	../fonts/Verdana.ttf
1294.234	n/a	WORD	647117	wordpools/wasnorm_wordpool.txt	LTP128	ltpFR	3	5	-1	MAPLE	866	n/a	-1	1	1.0	1.0	upper	../fonts/Verdana.ttf
1298.176	n/a	WORD	649088	wordpools/wasnorm_wordpool.txt	LTP128	ltpFR	3	5	-1	SYRUP	1425	n/a	-1	1	1.0	1.0	upper	../fonts/Verdana.ttf
1302.358	n/a	WORD	651179	wordpools/wasnorm_wordpool.txt	LTP128	ltpFR	3	5	-1	OLIVE	975	n/a	-1	1	1.0	1.0	upper	../fonts/Verdana.ttf
1306.548	n/a	WORD	653274	wordpools/wasnorm_wordpool.txt	LTP128	ltpFR	3	5	-1	RAZOR	1171	n/a	-1	1	1.0	1.0	upper	../fonts/Verdana.ttf
1312.23	n/a	REC_START	656115	n/a	LTP128	ltpFR	3	5	n/a	n/a	n/a	n/a	n/a	n/a	n/a	n/a	n/a	n/a
1313.702	n/a	REC_WORD	656851	wordpools/wasnorm_wordpool.txt	LTP128	ltpFR	3	5	-1	MAPLE	866	n/a	-1	n/a	n/a	n/a	n/a	n/a
1314.696	n/a	REC_WORD	657348	wordpools/wasnorm_wordpool.txt	LTP128	ltpFR	3	5	-1	SYRUP	1425	n/a	-1	n/a	n/a	n/a	n/a	n/a
1316.052	n/a	REC_WORD	658026	wordpools/wasnorm_wordpool.txt	LTP128	ltpFR	3	5	-1	OLIVE	975	n/a	-1	n/a	n/a	n/a	n/a	n/a
1317.394	n/a	REC_WORD	658697	wordpools/wasnorm_wordpool.txt	LTP128	ltpFR	3	5	-1	RAZOR	1171	n/a	-1	n/a	n/a	n/a	n/a	n/a
1320.736	n/a	REC_WORD	660368	wordpools/wasnorm_wordpool.txt	LTP128	ltpFR	3	5	-1	BUTTERFLY	206	n/a	-1	n/a	n/a	n/a	n/a	n/a
1322.018	n/a	REC_WORD	661009	wordpools/wasnorm_wordpool.txt	LTP128	ltpFR	3	5	-1	GRASSHOPPER	656	n/a	-1	n/a	n/a	n/a	n/a	n/a
1323.656	n/a	REC_WORD	661828	wordpools/wasnorm_wordpool.txt	LTP128	ltpFR	3	5	-1	POT	1114	n/a	-1	n/a	n/a	n/a	n/a	n/a
1326.564	n/a	REC_WORD	663282	wordpools/wasnorm_wordpool.txt	LTP128	ltpFR	3	5	-1	KNIFE	785	n/a	-1	n/a	n/a	n/a	n/a	n/a
1329.862	n/a	REC_WORD	664931	wordpools/wasnorm_wordpool.txt	LTP128	ltpFR	3	5	-1	CORN	381	n/a	-1	n/a	n/a	n/a	n/a	n/a
1333.0	n/a	REC_WORD	666500	wordpools/wasnorm_wordpool.txt	LTP128	ltpFR	3	5	-1	BEAN	105	n/a	-1	n/a	n/a	n/a	n/a	n/a
1336.672	n/a	REC_WORD	668336	wordpools/wasnorm_wordpool.txt	LTP128	ltpFR	3	5	-1	PRODUCER	1129	n/a	-1	n/a	n/a	n/a	n/a	n/a
1338.218	n/a	REC_WORD	669109	wordpools/wasnorm_wordpool.txt	LTP128	ltpFR	3	5	-1	BARLEY	88	n/a	-1	n/a	n/a	n/a	n/a	n/a
1339.924	n/a	REC_WORD	669962	wordpools/wasnorm_wordpool.txt	LTP128	ltpFR	3	5	-1	PISTOL	1075	n/a	-1	n/a	n/a	n/a	n/a	n/a
1342.478	n/a	REC_WORD	671239	wordpools/wasnorm_wordpool.txt	LTP128	ltpFR	3	5	-1	NEUTRON	947	n/a	-1	n/a	n/a	n/a	n/a	n/a
1348.754	n/a	REC_WORD	674377	wordpools/wasnorm_wordpool.txt	LTP128	ltpFR	3	5	-1	NERVE	944	n/a	-1	n/a	n/a	n/a	n/a	n/a
1377.486	n/a	REC_WORD	688743	wordpools/wasnorm_wordpool.txt	LTP128	ltpFR	3	5	-1	RACCOON	1153	n/a	-1	n/a	n/a	n/a	n/a	n/a
1442.548	n/a	WORD	721274	wordpools/wasnorm_wordpool.txt	LTP128	ltpFR	3	6	0	UNIFORM	1539	n/a	0	1	0.412841796875	0.57763671875	lower	../fonts/amplitud.ttf
1446.746	n/a	WORD	723373	wordpools/wasnorm_wordpool.txt	LTP128	ltpFR	3	6	0	PIGEON	1065	n/a	0	1	0.412841796875	0.57763671875	lower	../fonts/amplitud.ttf
1450.822	n/a	WORD	725411	wordpools/wasnorm_wordpool.txt	LTP128	ltpFR	3	6	0	MARSH	874	n/a	1	1	0.412841796875	0.57763671875	lower	../fonts/amplitud.ttf
1454.662	n/a	WORD	727331	wordpools/wasnorm_wordpool.txt	LTP128	ltpFR	3	6	1	TOURIST	1488	n/a	1	0	0.5869140625	0.422607421875	upper	../fonts/zerothre.ttf
1458.484	n/a	WORD	729242	wordpools/wasnorm_wordpool.txt	LTP128	ltpFR	3	6	1	VAULT	1550	n/a	0	0	0.5869140625	0.422607421875	upper	../fonts/zerothre.ttf
1462.55	n/a	WORD	731275	wordpools/wasnorm_wordpool.txt	LTP128	ltpFR	3	6	1	BANK	83	n/a	1	0	0.5869140625	0.422607421875	upper	../fonts/zerothre.ttf
1466.532	n/a	WORD	733266	wordpools/wasnorm_wordpool.txt	LTP128	ltpFR	3	6	1	FLIPPER	580	n/a	1	0	0.5869140625	0.422607421875	upper	../fonts/zerothre.ttf
1470.582	n/a	WORD	735291	wordpools/wasnorm_wordpool.txt	LTP128	ltpFR	3	6	1	SHRIMP	1297	n/a	0	0	0.5869140625	0.422607421875	upper	../fonts/zerothre.ttf
1474.706	n/a	WORD	737353	wordpools/wasnorm_wordpool.txt	LTP128	ltpFR	3	6	1	FEATHER	557	n/a	0	0	0.5869140625	0.422607421875	upper	../fonts/zerothre.ttf
1478.846	n/a	WORD	739423	wordpools/wasnorm_wordpool.txt	LTP128	ltpFR	3	6	0	PHOTO	1055	n/a	0	1	0.412841796875	0.57763671875	lower	../fonts/amplitud.ttf
1482.894	n/a	WORD	741447	wordpools/wasnorm_wordpool.txt	LTP128	ltpFR	3	6	0	BUREAU	199	n/a	1	1	0.412841796875	0.57763671875	lower	../fonts/amplitud.ttf
1486.97	n/a	WORD	743485	wordpools/wasnorm_wordpool.txt	LTP128	ltpFR	3	6	0	SOAP	1337	n/a	0	1	0.412841796875	0.57763671875	lower	../fonts/amplitud.ttf
1491.002	n/a	WORD	745501	wordpools/wasnorm_wordpool.txt	LTP128	ltpFR	3	6	0	MANAGER	863	n/a	1	1	0.412841796875	0.57763671875	lower	../fonts/amplitud.ttf
1495.034	n/a	WORD	747517	wordpools/wasnorm_wordpool.txt	LTP128	ltpFR	3	6	0	BUTLER	204	n/a	1	1	0.412841796875	0.57763671875	lower	../fonts/amplitud.ttf
1498.948	n/a	WORD	749474	wordpools/wasnorm_wordpool.txt	LTP128	ltpFR	3	6	1	GUEST	669	n/a	1	0	0.5869140625	0.422607421875	upper	../fonts/zerothre.ttf
1502.914	n/a	WORD	751457	wordpools/wasnorm_wordpool.txt	LTP128	ltpFR	3	6	1	TOE	1473	n/a	0	0	0.5869140625	0.422607421875	upper	../fonts/zerothre.ttf
1508.596	n/a	REC_START	754298	n/a	LTP128	ltpFR	3	6	n/a	n/a	n/a	n/a	n/a	n/a	n/a	n/a	n/a	n/a
1512.83	n/a	REC_WORD	756415	wordpools/wasnorm_wordpool.txt	LTP128	ltpFR	3	6	1	FEATHER	557	n/a	0	n/a	n/a	n/a	n/a	n/a
1513.828	n/a	REC_WORD	756914	wordpools/wasnorm_wordpool.txt	LTP128	ltpFR	3	6	0	BUREAU	199	n/a	1	n/a	n/a	n/a	n/a	n/a
1514.97	n/a	REC_WORD	757485	wordpools/wasnorm_wordpool.txt	LTP128	ltpFR	3	6	0	MANAGER	863	n/a	1	n/a	n/a	n/a	n/a	n/a
1519.97	n/a	REC_WORD	759985	wordpools/wasnorm_wordpool.txt	LTP128	ltpFR	3	6	n/a	VISITOR	1573	n/a	n/a	n/a	n/a	n/a	n/a	n/a
1522.234	n/a	REC_WORD	761117	wordpools/wasnorm_wordpool.txt	LTP128	ltpFR	3	6	1	TOE	1473	n/a	0	n/a	n/a	n/a	n/a	n/a
1524.874	n/a	REC_WORD	762437	wordpools/wasnorm_wordpool.txt	LTP128	ltpFR	3	6	0	SOAP	1337	n/a	0	n/a	n/a	n/a	n/a	n/a
1533.934	n/a	REC_WORD	766967	wordpools/wasnorm_wordpool.txt	LTP128	ltpFR	3	6	1	SHRIMP	1297	n/a	0	n/a	n/a	n/a	n/a	n/a
1554.702	n/a	REC_WORD	777351	wordpools/wasnorm_wordpool.txt	LTP128	ltpFR	3	6	0	PIGEON	1065	n/a	0	n/a	n/a	n/a	n/a	n/a
1621.462	n/a	WORD	810731	wordpools/wasnorm_wordpool.txt	LTP128	ltpFR	3	7	0	STAPLER	1372	n/a	0	1	0.412841796875	0.57763671875	lower	../fonts/amplitud.ttf
1625.668	n/a	WORD	812834	wordpools/wasnorm_wordpool.txt	LTP128	ltpFR	3	7	0	CARROT	249	n/a	0	1	0.412841796875	0.57763671875	lower	../fonts/amplitud.ttf
1629.724	n/a	WORD	814862	wordpools/wasnorm_wordpool.txt	LTP128	ltpFR	3	7	1	MOTEL	919	n/a	1	0	0.5869140625	0.422607421875	upper	../fonts/zerothre.ttf
1633.748	n/a	WORD	816874	wordpools/wasnorm_wordpool.txt	LTP128	ltpFR	3	7	1	COYOTE	396	n/a	1	0	0.5869140625	0.422607421875	upper	../fonts/zerothre.ttf
1637.698	n/a	WORD	818849	wordpools/wasnorm_wordpool.txt	LTP128	ltpFR	3	7	1	FOX	598	n/a	1	0	0.5869140625	0.422607421875	upper	../fonts/zerothre.ttf
1641.696	n/a	WORD	820848	wordpools/wasnorm_wordpool.txt	LTP128	ltpFR	3	7	1	RUG	1215	n/a	0	0	0.5869140625	0.422607421875	upper	../fonts/zerothre.ttf
1645.896	n/a	WORD	822948	wordpools/wasnorm_wordpool.txt	LTP128	ltpFR	3	7	0	PUPPY	1144	n/a	0	1	0.412841796875	0.57763671875	lower	../fonts/amplitud.ttf
1649.886	n/a	WORD	824943	wordpools/wasnorm_wordpool.txt	LTP128	ltpFR	3	7	0	FAUCET	555	n/a	0	1	0.412841796875	0.57763671875	lower	../fonts/amplitud.ttf
1653.71	n/a	WORD	826855	wordpools/wasnorm_wordpool.txt	LTP128	ltpFR	3	7	0	LAKE	796	n/a	1	1	0.412841796875	0.57763671875	lower	../fonts/amplitud.ttf
1657.574	n/a	WORD	828787	wordpools/wasnorm_wordpool.txt	LTP128	ltpFR	3	7	0	THICKET	1455	n/a	0	1	0.412841796875	0.57763671875	lower	../fonts/amplitud.ttf
1661.54	n/a	WORD	830770	wordpools/wasnorm_wordpool.txt	LTP128	ltpFR	3	7	1	TOOTHPASTE	1483	n/a	0	0	0.5869140625	0.422607421875	upper	../fonts/zerothre.ttf
1665.614	n/a	WORD	832807	wordpools/wasnorm_wordpool.txt	LTP128	ltpFR	3	7	1	LOBBY	836	n/a	0	0	0.5869140625	0.422607421875	upper	../fonts/zerothre.ttf
1669.622	n/a	WORD	834811	wordpools/wasnorm_wordpool.txt	LTP128	ltpFR	3	7	1	NEWSPAPER	948	n/a	0	0	0.5869140625	0.422607421875	upper	../fonts/zerothre.ttf
1673.762	n/a	WORD	836881	wordpools/wasnorm_wordpool.txt	LTP128	ltpFR	3	7	1	BULLET	194	n/a	0	0	0.5869140625	0.422607421875	upper	../fonts/zerothre.ttf
1677.97	n/a	WORD	838985	wordpools/wasnorm_wordpool.txt	LTP128	ltpFR	3	7	0	GANGSTER	620	n/a	1	1	0.412841796875	0.57763671875	lower	../fonts/amplitud.ttf
1682.144	n/a	WORD	841072	wordpools/wasnorm_wordpool.txt	LTP128	ltpFR	3	7	0	WOLF	1619	n/a	1	1	0.412841796875	0.57763671875	lower	../fonts/amplitud.ttf
1687.85	n/a	REC_START	843925	n/a	LTP128	ltpFR	3	7	n/a	n/a	n/a	n/a	n/a	n/a	n/a	n/a	n/a	n/a
1689.712	n/a	REC_WORD	844856	wordpools/wasnorm_wordpool.txt	LTP128	ltpFR	3	7	1	NEWSPAPER	948	n/a	0	n/a	n/a	n/a	n/a	n/a
1690.814	n/a	REC_WORD	845407	wordpools/wasnorm_wordpool.txt	LTP128	ltpFR	3	7	1	BULLET	194	n/a	0	n/a	n/a	n/a	n/a	n/a
1692.11	n/a	REC_WORD	846055	wordpools/wasnorm_wordpool.txt	LTP128	ltpFR	3	7	0	GANGSTER	620	n/a	1	n/a	n/a	n/a	n/a	n/a
1693.656	n/a	REC_WORD	846828	wordpools/wasnorm_wordpool.txt	LTP128	ltpFR	3	7	0	WOLF	1619	n/a	1	n/a	n/a	n/a	n/a	n/a
1695.856	n/a	REC_WORD	847928	wordpools/wasnorm_wordpool.txt	LTP128	ltpFR	3	7	1	MOTEL	919	n/a	1	n/a	n/a	n/a	n/a	n/a
1698.462	n/a	REC_WORD	849231	wordpools/wasnorm_wordpool.txt	LTP128	ltpFR	3	7	0	STAPLER	1372	n/a	0	n/a	n/a	n/a	n/a	n/a
1702.184	n/a	REC_WORD	851092	wordpools/wasnorm_wordpool.txt	LTP128	ltpFR	3	7	0	CARROT	249	n/a	0	n/a	n/a	n/a	n/a	n/a
1705.482	n/a	REC_WORD	852741	wordpools/wasnorm_wordpool.txt	LTP128	ltpFR	3	7	1	COYOTE	396	n/a	1	n/a	n/a	n/a	n/a	n/a
1706.604	n/a	REC_WORD	853302	wordpools/wasnorm_wordpool.txt	LTP128	ltpFR	3	7	1	FOX	598	n/a	1	n/a	n/a	n/a	n/a	n/a
1707.98	n/a	REC_WORD	853990	wordpools/wasnorm_wordpool.txt	LTP128	ltpFR	3	7	0	PUPPY	1144	n/a	0	n/a	n/a	n/a	n/a	n/a
1709.442	n/a	REC_WORD	854721	wordpools/wasnorm_wordpool.txt	LTP128	ltpFR	3	7	0	LAKE	796	n/a	1	n/a	n/a	n/a	n/a	n/a
1710.938	n/a	REC_WORD	855469	wordpools/wasnorm_wordpool.txt	LTP128	ltpFR	3	7	0	FAUCET	555	n/a	0	n/a	n/a	n/a	n/a	n/a
1716.61	n/a	REC_WORD	858305	wordpools/wasnorm_wordpool.txt	LTP128	ltpFR	3	7	1	NEWSPAPER	948	n/a	0	n/a	n/a	n/a	n/a	n/a
1732.816	n/a	REC_WORD	866408	wordpools/wasnorm_wordpool.txt	LTP128	ltpFR	3	7	1	LOBBY	836	n/a	0	n/a	n/a	n/a	n/a	n/a
1812.196	n/a	WORD	906098	wordpools/wasnorm_wordpool.txt	LTP128	ltpFR	3	8	1	WHEEL	1603	n/a	n/a	0	0.5869140625	0.422607421875	upper	../fonts/zerothre.ttf
1815.22	n/a	SLOW_MSG	907610	n/a	LTP128	ltpFR	3	8	n/a	n/a	n/a	n/a	n/a	n/a	n/a	n/a	n/a	n/a
1817.576	n/a	WORD	908788	wordpools/wasnorm_wordpool.txt	LTP128	ltpFR	3	8	1	VAN	1548	n/a	0	0	0.5869140625	0.422607421875	upper	../fonts/zerothre.ttf
1821.492	n/a	WORD	910746	wordpools/wasnorm_wordpool.txt	LTP128	ltpFR	3	8	0	HAND	683	n/a	0	1	0.412841796875	0.57763671875	lower	../fonts/amplitud.ttf
1825.348	n/a	WORD	912674	wordpools/wasnorm_wordpool.txt	LTP128	ltpFR	3	8	0	OTTER	986	n/a	0	1	0.412841796875	0.57763671875	lower	../fonts/amplitud.ttf
1829.174	n/a	WORD	914587	wordpools/wasnorm_wordpool.txt	LTP128	ltpFR	3	8	0	PHYSICIAN	1056	n/a	1	1	0.412841796875	0.57763671875	lower	../fonts/amplitud.ttf
1833.348	n/a	WORD	916674	wordpools/wasnorm_wordpool.txt	LTP128	ltpFR	3	8	0	VAMPIRE	1547	n/a	1	1	0.412841796875	0.57763671875	lower	../fonts/amplitud.ttf
1837.354	n/a	WORD	918677	wordpools/wasnorm_wordpool.txt	LTP128	ltpFR	3	8	1	ANTLER	29	n/a	0	0	0.5869140625	0.422607421875	upper	../fonts/zerothre.ttf
1841.502	n/a	WORD	920751	wordpools/wasnorm_wordpool.txt	LTP128	ltpFR	3	8	1	CAT	257	n/a	0	0	0.5869140625	0.422607421875	upper	../fonts/zerothre.ttf
1845.642	n/a	WORD	922821	wordpools/wasnorm_wordpool.txt	LTP128	ltpFR	3	8	1	BRACELET	163	n/a	0	0	0.5869140625	0.422607421875	upper	../fonts/zerothre.ttf
1849.784	n/a	WORD	924892	wordpools/wasnorm_wordpool.txt	LTP128	ltpFR	3	8	0	ISLAND	745	n/a	1	1	0.412841796875	0.57763671875	lower	../fonts/amplitud.ttf
1853.674	n/a	WORD	926837	wordpools/wasnorm_wordpool.txt	LTP128	ltpFR	3	8	0	SAND	1230	n/a	0	1	0.412841796875	0.57763671875	lower	../fonts/amplitud.ttf
1857.656	n/a	WORD	928828	wordpools/wasnorm_wordpool.txt	LTP128	ltpFR	3	8	0	JEWEL	757	n/a	0	1	0.412841796875	0.57763671875	lower	../fonts/amplitud.ttf
1861.848	n/a	WORD	930924	wordpools/wasnorm_wordpool.txt	LTP128	ltpFR	3	8	0	REFEREE	1178	n/a	1	1	0.412841796875	0.57763671875	lower	../fonts/amplitud.ttf
1866.03	n/a	WORD	933015	wordpools/wasnorm_wordpool.txt	LTP128	ltpFR	3	8	1	PRISONER	1128	n/a	1	0	0.5869140625	0.422607421875	upper	../fonts/zerothre.ttf
1870.17	n/a	WORD	935085	wordpools/wasnorm_wordpool.txt	LTP128	ltpFR	3	8	1	MISSILE	900	n/a	0	0	0.5869140625	0.422607421875	upper	../fonts/zerothre.ttf
1874.07	n/a	WORD	937035	wordpools/wasnorm_wordpool.txt	LTP128	ltpFR	3	8	1	KNUCKLE	789	n/a	0	0	0.5869140625	0.422607421875	upper	../fonts/zerothre.ttf
1879.826	n/a	REC_START	939913	n/a	LTP128	ltpFR	3	8	n/a	n/a	n/a	n/a	n/a	n/a	n/a	n/a	n/a	n/a
1881.91	n/a	REC_WORD	940955	wordpools/wasnorm_wordpool.txt	LTP128	ltpFR	3	8	1	NEWSPAPER	948	n/a	0	n/a	n/a	n/a	n/a	n/a
1883.322	n/a	REC_WORD	941661	wordpools/wasnorm_wordpool.txt	LTP128	ltpFR	3	8	0	ISLAND	745	n/a	1	n/a	n/a	n/a	n/a	n/a
1884.898	n/a	REC_WORD	942449	wordpools/wasnorm_wordpool.txt	LTP128	ltpFR	3	8	1	KNUCKLE	789	n/a	0	n/a	n/a	n/a	n/a	n/a
1887.264	n/a	REC_WORD	943632	wordpools/wasnorm_wordpool.txt	LTP128	ltpFR	3	8	0	REFEREE	1178	n/a	1	n/a	n/a	n/a	n/a	n/a
1892.712	n/a	REC_WORD	946356	wordpools/wasnorm_wordpool.txt	LTP128	ltpFR	3	8	0	PHYSICIAN	1056	n/a	1	n/a	n/a	n/a	n/a	n/a
1893.712	n/a	REC_WORD_VV	946856	wordpools/wasnorm_wordpool.txt	LTP128	ltpFR	3	8	n/a	<>	-1	n/a	n/a	n/a	n/a	n/a	n/a	n/a
1904.41	n/a	REC_WORD	952205	wordpools/wasnorm_wordpool.txt	LTP128	ltpFR	3	8	1	VAN	1548	n/a	0	n/a	n/a	n/a	n/a	n/a
1925.788	n/a	REC_WORD	962894	wordpools/wasnorm_wordpool.txt	LTP128	ltpFR	3	8	0	SAND	1230	n/a	0	n/a	n/a	n/a	n/a	n/a
2051.614	n/a	WORD	1025807	wordpools/wasnorm_wordpool.txt	LTP128	ltpFR	3	9	0	LOVER	846	n/a	1	1	0.412841796875	0.57763671875	lower	../fonts/amplitud.ttf
2055.646	n/a	WORD	1027823	wordpools/wasnorm_wordpool.txt	LTP128	ltpFR	3	9	0	DILL	465	n/a	0	1	0.412841796875	0.57763671875	lower	../fonts/amplitud.ttf
2059.644	n/a	WORD	1029822	wordpools/wasnorm_wordpool.txt	LTP128	ltpFR	3	9	0	CONDUCTOR	362	n/a	1	1	0.412841796875	0.57763671875	lower	../fonts/amplitud.ttf
2063.57	n/a	WORD	1031785	wordpools/wasnorm_wordpool.txt	LTP128	ltpFR	3	9	0	PALACE	1006	n/a	1	1	0.412841796875	0.57763671875	lower	../fonts/amplitud.ttf
2067.71	n/a	WORD	1033855	wordpools/wasnorm_wordpool.txt	LTP128	ltpFR	3	9	0	PRINCE	1124	n/a	1	1	0.412841796875	0.57763671875	lower	../fonts/amplitud.ttf
2071.642	n/a	WORD	1035821	wordpools/wasnorm_wordpool.txt	LTP128	ltpFR	3	9	0	RUBY	1214	n/a	0	1	0.412841796875	0.57763671875	lower	../fonts/amplitud.ttf
2075.69	n/a	WORD	1037845	wordpools/wasnorm_wordpool.txt	LTP128	ltpFR	3	9	0	SAPPHIRE	1234	n/a	0	1	0.412841796875	0.57763671875	lower	../fonts/amplitud.ttf
2079.606	n/a	WORD	1039803	wordpools/wasnorm_wordpool.txt	LTP128	ltpFR	3	9	0	BUSH	202	n/a	0	1	0.412841796875	0.57763671875	lower	../fonts/amplitud.ttf
2083.764	n/a	WORD	1041882	wordpools/wasnorm_wordpool.txt	LTP128	ltpFR	3	9	0	DICTATOR	462	n/a	1	1	0.412841796875	0.57763671875	lower	../fonts/amplitud.ttf
2087.636	n/a	WORD	1043818	wordpools/wasnorm_wordpool.txt	LTP128	ltpFR	3	9	0	PREACHER	1119	n/a	1	1	0.412841796875	0.57763671875	lower	../fonts/amplitud.ttf
2091.452	n/a	WORD	1045726	wordpools/wasnorm_wordpool.txt	LTP128	ltpFR	3	9	0	OFFICER	973	n/a	1	1	0.412841796875	0.57763671875	lower	../fonts/amplitud.ttf
2095.634	n/a	WORD	1047817	wordpools/wasnorm_wordpool.txt	LTP128	ltpFR	3	9	0	SPICE	1350	n/a	0	1	0.412841796875	0.57763671875	lower	../fonts/amplitud.ttf
2099.808	n/a	WORD	1049904	wordpools/wasnorm_wordpool.txt	LTP128	ltpFR	3	9	0	ASSISTANT	48	n/a	1	1	0.412841796875	0.57763671875	lower	../fonts/amplitud.ttf
2104.008	n/a	WORD	1052004	wordpools/wasnorm_wordpool.txt	LTP128	ltpFR	3	9	0	BEET	115	n/a	0	1	0.412841796875	0.57763671875	lower	../fonts/amplitud.ttf
2108.048	n/a	WORD	1054024	wordpools/wasnorm_wordpool.txt	LTP128	ltpFR	3	9	0	CONCERT	360	n/a	1	1	0.412841796875	0.57763671875	lower	../fonts/amplitud.ttf
2111.896	n/a	WORD	1055948	wordpools/wasnorm_wordpool.txt	LTP128	ltpFR	3	9	0	SALT	1229	n/a	0	1	0.412841796875	0.57763671875	lower	../fonts/amplitud.ttf
2117.804	n/a	REC_START	1058902	n/a	LTP128	ltpFR	3	9	n/a	n/a	n/a	n/a	n/a	n/a	n/a	n/a	n/a	n/a
2121.42	n/a	REC_WORD	1060710	wordpools/wasnorm_wordpool.txt	LTP128	ltpFR	3	9	0	SALT	1229	n/a	0	n/a	n/a	n/a	n/a	n/a
2127.144	n/a	REC_WORD	1063572	wordpools/wasnorm_wordpool.txt	LTP128	ltpFR	3	9	0	PALACE	1006	n/a	1	n/a	n/a	n/a	n/a	n/a
2129.632	n/a	REC_WORD	1064816	wordpools/wasnorm_wordpool.txt	LTP128	ltpFR	3	9	0	PRINCE	1124	n/a	1	n/a	n/a	n/a	n/a	n/a
2131.208	n/a	REC_WORD	1065604	wordpools/wasnorm_wordpool.txt	LTP128	ltpFR	3	9	0	CONDUCTOR	362	n/a	1	n/a	n/a	n/a	n/a	n/a
2132.96	n/a	REC_WORD	1066480	wordpools/wasnorm_wordpool.txt	LTP128	ltpFR	3	9	0	PREACHER	1119	n/a	1	n/a	n/a	n/a	n/a	n/a
2134.562	n/a	REC_WORD	1067281	wordpools/wasnorm_wordpool.txt	LTP128	ltpFR	3	9	0	ASSISTANT	48	n/a	1	n/a	n/a	n/a	n/a	n/a
2138.568	n/a	REC_WORD	1069284	wordpools/wasnorm_wordpool.txt	LTP128	ltpFR	3	9	0	SPICE	1350	n/a	0	n/a	n/a	n/a	n/a	n/a
2142.2	n/a	REC_WORD	1071100	wordpools/wasnorm_wordpool.txt	LTP128	ltpFR	3	9	0	LOVER	846	n/a	1	n/a	n/a	n/a	n/a	n/a
2144.1	n/a	REC_WORD	1072050	wordpools/wasnorm_wordpool.txt	LTP128	ltpFR	3	9	0	DILL	465	n/a	0	n/a	n/a	n/a	n/a	n/a
2146.13	n/a	REC_WORD	1073065	wordpools/wasnorm_wordpool.txt	LTP128	ltpFR	3	9	0	SAPPHIRE	1234	n/a	0	n/a	n/a	n/a	n/a	n/a
2147.13	n/a	REC_WORD_VV	1073565	wordpools/wasnorm_wordpool.txt	LTP128	ltpFR	3	9	n/a	<>	-1	n/a	n/a	n/a	n/a	n/a	n/a	n/a
2148.162	n/a	REC_WORD	1074081	wordpools/wasnorm_wordpool.txt	LTP128	ltpFR	3	9	0	RUBY	1214	n/a	0	n/a	n/a	n/a	n/a	n/a
2150.44	n/a	REC_WORD	1075220	wordpools/wasnorm_wordpool.txt	LTP128	ltpFR	3	9	0	BEET	115	n/a	0	n/a	n/a	n/a	n/a	n/a
2178.758	n/a	REC_WORD	1089379	wordpools/wasnorm_wordpool.txt	LTP128	ltpFR	3	9	0	DICTATOR	462	n/a	1	n/a	n/a	n/a	n/a	n/a
2233.802	n/a	WORD	1116901	wordpools/wasnorm_wordpool.txt	LTP128	ltpFR	3	10	-1	CHAMPION	279	n/a	-1	1	1.0	1.0	upper	../fonts/Verdana.ttf
2237.692	n/a	WORD	1118846	wordpools/wasnorm_wordpool.txt	LTP128	ltpFR	3	10	-1	CAKE	219	n/a	-1	1	1.0	1.0	upper	../fonts/Verdana.ttf
2241.8	n/a	WORD	1120900	wordpools/wasnorm_wordpool.txt	LTP128	ltpFR	3	10	-1	CARAVAN	242	n/a	-1	1	1.0	1.0	upper	../fonts/Verdana.ttf
2245.756	n/a	WORD	1122878	wordpools/wasnorm_wordpool.txt	LTP128	ltpFR	3	10	-1	BANANA	77	n/a	-1	1	1.0	1.0	upper	../fonts/Verdana.ttf
2249.846	n/a	WORD	1124923	wordpools/wasnorm_wordpool.txt	LTP128	ltpFR	3	10	-1	SURGEON	1413	n/a	-1	1	1.0	1.0	upper	../fonts/Verdana.ttf
2253.702	n/a	WORD	1126851	wordpools/wasnorm_wordpool.txt	LTP128	ltpFR	3	10	-1	SEASHORE	1263	n/a	-1	1	1.0	1.0	upper	../fonts/Verdana.ttf
2257.828	n/a	WORD	1128914	wordpools/wasnorm_wordpool.txt	LTP128	ltpFR	3	10	-1	THORN	1459	n/a	-1	1	1.0	1.0	upper	../fonts/Verdana.ttf
2261.894	n/a	WORD	1130947	wordpools/wasnorm_wordpool.txt	LTP128	ltpFR	3	10	-1	ORCHID	982	n/a	-1	1	1.0	1.0	upper	../fonts/Verdana.ttf
2266.008	n/a	WORD	1133004	wordpools/wasnorm_wordpool.txt	LTP128	ltpFR	3	10	-1	CAB	209	n/a	-1	1	1.0	1.0	upper	../fonts/Verdana.ttf
2270.04	n/a	WORD	1135020	wordpools/wasnorm_wordpool.txt	LTP128	ltpFR	3	10	-1	MONEY	908	n/a	-1	1	1.0	1.0	upper	../fonts/Verdana.ttf
2274.206	n/a	WORD	1137103	wordpools/wasnorm_wordpool.txt	LTP128	ltpFR	3	10	-1	HEATER	698	n/a	-1	1	1.0	1.0	upper	../fonts/Verdana.ttf
2278.038	n/a	WORD	1139019	wordpools/wasnorm_wordpool.txt	LTP128	ltpFR	3	10	-1	DRAGON	492	n/a	-1	1	1.0	1.0	upper	../fonts/Verdana.ttf
2281.87	n/a	WORD	1140935	wordpools/wasnorm_wordpool.txt	LTP128	ltpFR	3	10	-1	SUPERMARKET	1409	n/a	-1	1	1.0	1.0	upper	../fonts/Verdana.ttf
2285.828	n/a	WORD	1142914	wordpools/wasnorm_wordpool.txt	LTP128	ltpFR	3	10	-1	VINE	1568	n/a	-1	1	1.0	1.0	upper	../fonts/Verdana.ttf
2289.884	n/a	WORD	1144942	wordpools/wasnorm_wordpool.txt	LTP128	ltpFR	3	10	-1	STEREO	1378	n/a	-1	1	1.0	1.0	upper	../fonts/Verdana.ttf
2294.026	n/a	WORD	1147013	wordpools/wasnorm_wordpool.txt	LTP128	ltpFR	3	10	-1	FLUTE	585	n/a	-1	1	1.0	1.0	upper	../fonts/Verdana.ttf
2300.116	n/a	REC_START	1150058	n/a	LTP128	ltpFR	3	10	n/a	n/a	n/a	n/a	n/a	n/a	n/a	n/a	n/a	n/a
2304.626	n/a	REC_WORD	1152313	wordpools/wasnorm_wordpool.txt	LTP128	ltpFR	3	10	-1	STEREO	1378	n/a	-1	n/a	n/a	n/a	n/a	n/a
2306.212	n/a	REC_WORD	1153106	wordpools/wasnorm_wordpool.txt	LTP128	ltpFR	3	10	-1	FLUTE	585	n/a	-1	n/a	n/a	n/a	n/a	n/a
2309.698	n/a	REC_WORD	1154849	wordpools/wasnorm_wordpool.txt	LTP128	ltpFR	3	10	-1	SUPERMARKET	1409	n/a	-1	n/a	n/a	n/a	n/a	n/a
2312.388	n/a	REC_WORD	1156194	wordpools/wasnorm_wordpool.txt	LTP128	ltpFR	3	10	-1	SEASHORE	1263	n/a	-1	n/a	n/a	n/a	n/a	n/a
2314.384	n/a	REC_WORD	1157192	wordpools/wasnorm_wordpool.txt	LTP128	ltpFR	3	10	-1	MONEY	908	n/a	-1	n/a	n/a	n/a	n/a	n/a
2315.886	n/a	REC_WORD	1157943	wordpools/wasnorm_wordpool.txt	LTP128	ltpFR	3	10	-1	CAB	209	n/a	-1	n/a	n/a	n/a	n/a	n/a
2317.372	n/a	REC_WORD	1158686	wordpools/wasnorm_wordpool.txt	LTP128	ltpFR	3	10	-1	DRAGON	492	n/a	-1	n/a	n/a	n/a	n/a	n/a
2319.058	n/a	REC_WORD	1159529	wordpools/wasnorm_wordpool.txt	LTP128	ltpFR	3	10	-1	HEATER	698	n/a	-1	n/a	n/a	n/a	n/a	n/a
2325.768	n/a	REC_WORD	1162884	wordpools/wasnorm_wordpool.txt	LTP128	ltpFR	3	10	-1	CHAMPION	279	n/a	-1	n/a	n/a	n/a	n/a	n/a
2327.21	n/a	REC_WORD	1163605	wordpools/wasnorm_wordpool.txt	LTP128	ltpFR	3	10	-1	CAKE	219	n/a	-1	n/a	n/a	n/a	n/a	n/a
2328.816	n/a	REC_WORD	1164408	wordpools/wasnorm_wordpool.txt	LTP128	ltpFR	3	10	-1	BANANA	77	n/a	-1	n/a	n/a	n/a	n/a	n/a
2330.636	n/a	REC_WORD	1165318	wordpools/wasnorm_wordpool.txt	LTP128	ltpFR	3	10	-1	CARAVAN	242	n/a	-1	n/a	n/a	n/a	n/a	n/a
2332.294	n/a	REC_WORD	1166147	wordpools/wasnorm_wordpool.txt	LTP128	ltpFR	3	10	-1	THORN	1459	n/a	-1	n/a	n/a	n/a	n/a	n/a
2334.32	n/a	REC_WORD	1167160	wordpools/wasnorm_wordpool.txt	LTP128	ltpFR	3	10	-1	ORCHID	982	n/a	-1	n/a	n/a	n/a	n/a	n/a
2374.76	n/a	REC_WORD_VV	1187380	wordpools/wasnorm_wordpool.txt	LTP128	ltpFR	3	10	n/a	<>	-1	n/a	n/a	n/a	n/a	n/a	n/a	n/a
2413.198	n/a	WORD	1206599	wordpools/wasnorm_wordpool.txt	LTP128	ltpFR	3	11	0	BINDER	127	n/a	0	1	0.412841796875	0.57763671875	lower	../fonts/amplitud.ttf
2417.222	n/a	WORD	1208611	wordpools/wasnorm_wordpool.txt	LTP128	ltpFR	3	11	0	FILM	565	n/a	0	1	0.412841796875	0.57763671875	lower	../fonts/amplitud.ttf
2421.278	n/a	WORD	1210639	wordpools/wasnorm_wordpool.txt	LTP128	ltpFR	3	11	0	COB	334	n/a	0	1	0.412841796875	0.57763671875	lower	../fonts/amplitud.ttf
2425.36	n/a	WORD	1212680	wordpools/wasnorm_wordpool.txt	LTP128	ltpFR	3	11	0	EMERALD	528	n/a	0	1	0.412841796875	0.57763671875	lower	../fonts/amplitud.ttf
2429.202	n/a	WORD	1214601	wordpools/wasnorm_wordpool.txt	LTP128	ltpFR	3	11	0	BOULDER	155	n/a	1	1	0.412841796875	0.57763671875	lower	../fonts/amplitud.ttf
2433.382	n/a	WORD	1216691	wordpools/wasnorm_wordpool.txt	LTP128	ltpFR	3	11	0	QUILT	1151	n/a	1	1	0.412841796875	0.57763671875	lower	../fonts/amplitud.ttf
2437.282	n/a	WORD	1218641	wordpools/wasnorm_wordpool.txt	LTP128	ltpFR	3	11	0	KEYBOARD	774	n/a	1	1	0.412841796875	0.57763671875	lower	../fonts/amplitud.ttf
2441.488	n/a	WORD	1220744	wordpools/wasnorm_wordpool.txt	LTP128	ltpFR	3	11	0	PRIEST	1122	n/a	1	1	0.412841796875	0.57763671875	lower	../fonts/amplitud.ttf
2445.504	n/a	WORD	1222752	wordpools/wasnorm_wordpool.txt	LTP128	ltpFR	3	11	0	NOTEBOOK	959	n/a	0	1	0.412841796875	0.57763671875	lower	../fonts/amplitud.ttf
2449.37	n/a	WORD	1224685	wordpools/wasnorm_wordpool.txt	LTP128	ltpFR	3	11	0	COSTUME	383	n/a	1	1	0.412841796875	0.57763671875	lower	../fonts/amplitud.ttf
2453.236	n/a	WORD	1226618	wordpools/wasnorm_wordpool.txt	LTP128	ltpFR	3	11	0	RECORD	1176	n/a	0	1	0.412841796875	0.57763671875	lower	../fonts/amplitud.ttf
2457.384	n/a	WORD	1228692	wordpools/wasnorm_wordpool.txt	LTP128	ltpFR	3	11	0	PONY	1102	n/a	1	1	0.412841796875	0.57763671875	lower	../fonts/amplitud.ttf
2461.258	n/a	WORD	1230629	wordpools/wasnorm_wordpool.txt	LTP128	ltpFR	3	11	0	CART	250	n/a	1	1	0.412841796875	0.57763671875	lower	../fonts/amplitud.ttf
2465.09	n/a	WORD	1232545	wordpools/wasnorm_wordpool.txt	LTP128	ltpFR	3	11	0	YARN	1631	n/a	0	1	0.412841796875	0.57763671875	lower	../fonts/amplitud.ttf
2468.922	n/a	WORD	1234461	wordpools/wasnorm_wordpool.txt	LTP128	ltpFR	3	11	0	BLOUSE	139	n/a	0	1	0.412841796875	0.57763671875	lower	../fonts/amplitud.ttf
2472.762	n/a	WORD	1236381	wordpools/wasnorm_wordpool.txt	LTP128	ltpFR	3	11	0	SKIRT	1319	n/a	0	1	0.412841796875	0.57763671875	lower	../fonts/amplitud.ttf
2478.778	n/a	REC_START	1239389	n/a	LTP128	ltpFR	3	11	n/a	n/a	n/a	n/a	n/a	n/a	n/a	n/a	n/a	n/a
2480.424	n/a	REC_WORD	1240212	wordpools/wasnorm_wordpool.txt	LTP128	ltpFR	3	11	0	CART	250	n/a	1	n/a	n/a	n/a	n/a	n/a
2481.67	n/a	REC_WORD	1240835	wordpools/wasnorm_wordpool.txt	LTP128	ltpFR	3	11	0	YARN	1631	n/a	0	n/a	n/a	n/a	n/a	n/a
2483.436	n/a	REC_WORD	1241718	wordpools/wasnorm_wordpool.txt	LTP128	ltpFR	3	11	0	BLOUSE	139	n/a	0	n/a	n/a	n/a	n/a	n/a
2484.86	n/a	REC_WORD	1242430	wordpools/wasnorm_wordpool.txt	LTP128	ltpFR	3	11	0	SKIRT	1319	n/a	0	n/a	n/a	n/a	n/a	n/a
2486.786	n/a	REC_WORD	1243393	wordpools/wasnorm_wordpool.txt	LTP128	ltpFR	3	11	0	PONY	1102	n/a	1	n/a	n/a	n/a	n/a	n/a
2488.146	n/a	REC_WORD	1244073	wordpools/wasnorm_wordpool.txt	LTP128	ltpFR	3	11	0	NOTEBOOK	959	n/a	0	n/a	n/a	n/a	n/a	n/a
2489.948	n/a	REC_WORD	1244974	wordpools/wasnorm_wordpool.txt	LTP128	ltpFR	3	11	0	COSTUME	383	n/a	1	n/a	n/a	n/a	n/a	n/a
2490.948	n/a	REC_WORD_VV	1245474	wordpools/wasnorm_wordpool.txt	LTP128	ltpFR	3	11	n/a	<>	-1	n/a	n/a	n/a	n/a	n/a	n/a	n/a
2493.256	n/a	REC_WORD	1246628	wordpools/wasnorm_wordpool.txt	LTP128	ltpFR	3	11	0	BOULDER	155	n/a	1	n/a	n/a	n/a	n/a	n/a
2496.128	n/a	REC_WORD	1248064	wordpools/wasnorm_wordpool.txt	LTP128	ltpFR	3	11	0	QUILT	1151	n/a	1	n/a	n/a	n/a	n/a	n/a
2498.488	n/a	REC_WORD	1249244	wordpools/wasnorm_wordpool.txt	LTP128	ltpFR	3	11	0	PRIEST	1122	n/a	1	n/a	n/a	n/a	n/a	n/a
2506.516	n/a	REC_WORD	1253258	wordpools/wasnorm_wordpool.txt	LTP128	ltpFR	3	11	0	BINDER	127	n/a	0	n/a	n/a	n/a	n/a	n/a
2507.824	n/a	REC_WORD	1253912	wordpools/wasnorm_wordpool.txt	LTP128	ltpFR	3	11	0	FILM	565	n/a	0	n/a	n/a	n/a	n/a	n/a
2509.484	n/a	REC_WORD	1254742	wordpools/wasnorm_wordpool.txt	LTP128	ltpFR	3	11	0	COB	334	n/a	0	n/a	n/a	n/a	n/a	n/a
2513.222	n/a	REC_WORD	1256611	wordpools/wasnorm_wordpool.txt	LTP128	ltpFR	3	11	0	EMERALD	528	n/a	0	n/a	n/a	n/a	n/a	n/a
2610.346	n/a	WORD	1305173	wordpools/wasnorm_wordpool.txt	LTP128	ltpFR	3	12	-1	PEBBLE	1035	n/a	-1	1	1.0	1.0	upper	../fonts/Verdana.ttf
2614.204	n/a	WORD	1307102	wordpools/wasnorm_wordpool.txt	LTP128	ltpFR	3	12	-1	STOCKING	1383	n/a	-1	1	1.0	1.0	upper	../fonts/Verdana.ttf
2618.168	n/a	WORD	1309084	wordpools/wasnorm_wordpool.txt	LTP128	ltpFR	3	12	-1	HINGE	709	n/a	-1	1	1.0	1.0	upper	../fonts/Verdana.ttf
2622.31	n/a	WORD	1311155	wordpools/wasnorm_wordpool.txt	LTP128	ltpFR	3	12	-1	MAT	877	n/a	-1	1	1.0	1.0	upper	../fonts/Verdana.ttf
2626.142	n/a	WORD	1313071	wordpools/wasnorm_wordpool.txt	LTP128	ltpFR	3	12	-1	CHAIR	274	n/a	-1	1	1.0	1.0	upper	../fonts/Verdana.ttf
2630.274	n/a	WORD	1315137	wordpools/wasnorm_wordpool.txt	LTP128	ltpFR	3	12	-1	ASPIRIN	47	n/a	-1	1	1.0	1.0	upper	../fonts/Verdana.ttf
2634.106	n/a	WORD	1317053	wordpools/wasnorm_wordpool.txt	LTP128	ltpFR	3	12	-1	KEY	773	n/a	-1	1	1.0	1.0	upper	../fonts/Verdana.ttf
2637.946	n/a	WORD	1318973	wordpools/wasnorm_wordpool.txt	LTP128	ltpFR	3	12	-1	CONTINENT	367	n/a	-1	1	1.0	1.0	upper	../fonts/Verdana.ttf
2641.828	n/a	WORD	1320914	wordpools/wasnorm_wordpool.txt	LTP128	ltpFR	3	12	-1	ANCHOR	21	n/a	-1	1	1.0	1.0	upper	../fonts/Verdana.ttf
2645.986	n/a	WORD	1322993	wordpools/wasnorm_wordpool.txt	LTP128	ltpFR	3	12	-1	RAFT	1159	n/a	-1	1	1.0	1.0	upper	../fonts/Verdana.ttf
2650.002	n/a	WORD	1325001	wordpools/wasnorm_wordpool.txt	LTP128	ltpFR	3	12	-1	PILL	1068	n/a	-1	1	1.0	1.0	upper	../fonts/Verdana.ttf
2654.208	n/a	WORD	1327104	wordpools/wasnorm_wordpool.txt	LTP128	ltpFR	3	12	-1	THIGH	1457	n/a	-1	1	1.0	1.0	upper	../fonts/Verdana.ttf
2658.2	n/a	WORD	1329100	wordpools/wasnorm_wordpool.txt	LTP128	ltpFR	3	12	-1	FURNITURE	616	n/a	-1	1	1.0	1.0	upper	../fonts/Verdana.ttf
2662.338	n/a	WORD	1331169	wordpools/wasnorm_wordpool.txt	LTP128	ltpFR	3	12	-1	LINEN	825	n/a	-1	1	1.0	1.0	upper	../fonts/Verdana.ttf
2666.436	n/a	WORD	1333218	wordpools/wasnorm_wordpool.txt	LTP128	ltpFR	3	12	-1	HAMBURGER	679	n/a	-1	1	1.0	1.0	upper	../fonts/Verdana.ttf
2670.352	n/a	WORD	1335176	wordpools/wasnorm_wordpool.txt	LTP128	ltpFR	3	12	-1	CHECKERS	285	n/a	-1	1	1.0	1.0	upper	../fonts/Verdana.ttf
2676.002	n/a	REC_START	1338001	n/a	LTP128	ltpFR	3	12	n/a	n/a	n/a	n/a	n/a	n/a	n/a	n/a	n/a	n/a
2677.978	n/a	REC_WORD	1338989	wordpools/wasnorm_wordpool.txt	LTP128	ltpFR	3	12	-1	RAFT	1159	n/a	-1	n/a	n/a	n/a	n/a	n/a
2679.36	n/a	REC_WORD	1339680	wordpools/wasnorm_wordpool.txt	LTP128	ltpFR	3	12	-1	PILL	1068	n/a	-1	n/a	n/a	n/a	n/a	n/a
2680.228	n/a	REC_WORD	1340114	wordpools/wasnorm_wordpool.txt	LTP128	ltpFR	3	12	-1	THIGH	1457	n/a	-1	n/a	n/a	n/a	n/a	n/a
2681.41	n/a	REC_WORD	1340705	wordpools/wasnorm_wordpool.txt	LTP128	ltpFR	3	12	-1	FURNITURE	616	n/a	-1	n/a	n/a	n/a	n/a	n/a
2682.972	n/a	REC_WORD	1341486	wordpools/wasnorm_wordpool.txt	LTP128	ltpFR	3	12	-1	LINEN	825	n/a	-1	n/a	n/a	n/a	n/a	n/a
2684.288	n/a	REC_WORD	1342144	wordpools/wasnorm_wordpool.txt	LTP128	ltpFR	3	12	-1	HAMBURGER	679	n/a	-1	n/a	n/a	n/a	n/a	n/a
2689.192	n/a	REC_WORD	1344596	wordpools/wasnorm_wordpool.txt	LTP128	ltpFR	3	12	-1	CHAIR	274	n/a	-1	n/a	n/a	n/a	n/a	n/a
2690.52	n/a	REC_WORD	1345260	wordpools/wasnorm_wordpool.txt	LTP128	ltpFR	3	12	-1	ASPIRIN	47	n/a	-1	n/a	n/a	n/a	n/a	n/a
2695.874	n/a	REC_WORD	1347937	wordpools/wasnorm_wordpool.txt	LTP128	ltpFR	3	12	-1	CONTINENT	367	n/a	-1	n/a	n/a	n/a	n/a	n/a
2703.844	n/a	REC_WORD	1351922	wordpools/wasnorm_wordpool.txt	LTP128	ltpFR	3	12	-1	STOCKING	1383	n/a	-1	n/a	n/a	n/a	n/a	n/a
2704.844	n/a	REC_WORD_VV	1352422	wordpools/wasnorm_wordpool.txt	LTP128	ltpFR	3	12	n/a	<>	-1	n/a	n/a	n/a	n/a	n/a	n/a	n/a
2708.37	n/a	REC_WORD	1354185	wordpools/wasnorm_wordpool.txt	LTP128	ltpFR	3	12	-1	PEBBLE	1035	n/a	-1	n/a	n/a	n/a	n/a	n/a
2710.23	n/a	REC_WORD	1355115	wordpools/wasnorm_wordpool.txt	LTP128	ltpFR	3	12	-1	MAT	877	n/a	-1	n/a	n/a	n/a	n/a	n/a
2711.956	n/a	REC_WORD	1355978	wordpools/wasnorm_wordpool.txt	LTP128	ltpFR	3	12	-1	HINGE	709	n/a	-1	n/a	n/a	n/a	n/a	n/a
2751.594	n/a	REST_REWET	1375797	n/a	LTP128	ltpFR	3	12	n/a	n/a	n/a	n/a	n/a	n/a	n/a	n/a	n/a	n/a
3194.228	n/a	WORD	1597114	wordpools/wasnorm_wordpool.txt	LTP128	ltpFR	3	13	-1	TIE	1466	n/a	-1	1	1.0	1.0	upper	../fonts/Verdana.ttf
3198.12	n/a	WORD	1599060	wordpools/wasnorm_wordpool.txt	LTP128	ltpFR	3	13	-1	SUIT	1402	n/a	-1	1	1.0	1.0	upper	../fonts/Verdana.ttf
3202.31	n/a	WORD	1601155	wordpools/wasnorm_wordpool.txt	LTP128	ltpFR	3	13	-1	BIRD	129	n/a	-1	1	1.0	1.0	upper	../fonts/Verdana.ttf
3206.432	n/a	WORD	1603216	wordpools/wasnorm_wordpool.txt	LTP128	ltpFR	3	13	-1	ROPE	1211	n/a	-1	1	1.0	1.0	upper	../fonts/Verdana.ttf
3210.53	n/a	WORD	1605265	wordpools/wasnorm_wordpool.txt	LTP128	ltpFR	3	13	-1	CAP	236	n/a	-1	1	1.0	1.0	upper	../fonts/Verdana.ttf
3214.472	n/a	WORD	1607236	wordpools/wasnorm_wordpool.txt	LTP128	ltpFR	3	13	-1	COBRA	336	n/a	-1	1	1.0	1.0	upper	../fonts/Verdana.ttf
3218.528	n/a	WORD	1609264	wordpools/wasnorm_wordpool.txt	LTP128	ltpFR	3	13	-1	CELLO	268	n/a	-1	1	1.0	1.0	upper	../fonts/Verdana.ttf
3222.47	n/a	WORD	1611235	wordpools/wasnorm_wordpool.txt	LTP128	ltpFR	3	13	-1	FUNGUS	614	n/a	-1	1	1.0	1.0	upper	../fonts/Verdana.ttf
3226.61	n/a	WORD	1613305	wordpools/wasnorm_wordpool.txt	LTP128	ltpFR	3	13	-1	TOTE	1487	n/a	-1	1	1.0	1.0	upper	../fonts/Verdana.ttf
3230.758	n/a	WORD	1615379	wordpools/wasnorm_wordpool.txt	LTP128	ltpFR	3	13	-1	SWEATER	1419	n/a	-1	1	1.0	1.0	upper	../fonts/Verdana.ttf
3234.616	n/a	WORD	1617308	wordpools/wasnorm_wordpool.txt	LTP128	ltpFR	3	13	-1	GUITAR	670	n/a	-1	1	1.0	1.0	upper	../fonts/Verdana.ttf
3238.656	n/a	WORD	1619328	wordpools/wasnorm_wordpool.txt	LTP128	ltpFR	3	13	-1	BUILDING	191	n/a	-1	1	1.0	1.0	upper	../fonts/Verdana.ttf
3242.662	n/a	WORD	1621331	wordpools/wasnorm_wordpool.txt	LTP128	ltpFR	3	13	-1	CARPENTER	246	n/a	-1	1	1.0	1.0	upper	../fonts/Verdana.ttf
3246.654	n/a	WORD	1623327	wordpools/wasnorm_wordpool.txt	LTP128	ltpFR	3	13	-1	RADISH	1158	n/a	-1	1	1.0	1.0	upper	../fonts/Verdana.ttf
3250.826	n/a	WORD	1625413	wordpools/wasnorm_wordpool.txt	LTP128	ltpFR	3	13	-1	HIKER	708	n/a	-1	1	1.0	1.0	upper	../fonts/Verdana.ttf
3255.036	n/a	WORD	1627518	wordpools/wasnorm_wordpool.txt	LTP128	ltpFR	3	13	-1	CLIFF	322	n/a	-1	1	1.0	1.0	upper	../fonts/Verdana.ttf
3260.86	n/a	REC_START	1630430	n/a	LTP128	ltpFR	3	13	n/a	n/a	n/a	n/a	n/a	n/a	n/a	n/a	n/a	n/a
3264.382	n/a	REC_WORD	1632191	wordpools/wasnorm_wordpool.txt	LTP128	ltpFR	3	13	-1	BUILDING	191	n/a	-1	n/a	n/a	n/a	n/a	n/a
3265.29	n/a	REC_WORD	1632645	wordpools/wasnorm_wordpool.txt	LTP128	ltpFR	3	13	-1	CLIFF	322	n/a	-1	n/a	n/a	n/a	n/a	n/a
3266.996	n/a	REC_WORD	1633498	wordpools/wasnorm_wordpool.txt	LTP128	ltpFR	3	13	-1	CARPENTER	246	n/a	-1	n/a	n/a	n/a	n/a	n/a
3268.292	n/a	REC_WORD	1634146	wordpools/wasnorm_wordpool.txt	LTP128	ltpFR	3	13	-1	HIKER	708	n/a	-1	n/a	n/a	n/a	n/a	n/a
3269.77	n/a	REC_WORD	1634885	wordpools/wasnorm_wordpool.txt	LTP128	ltpFR	3	13	-1	RADISH	1158	n/a	-1	n/a	n/a	n/a	n/a	n/a
3273.676	n/a	REC_WORD	1636838	wordpools/wasnorm_wordpool.txt	LTP128	ltpFR	3	13	-1	TOTE	1487	n/a	-1	n/a	n/a	n/a	n/a	n/a
3277.692	n/a	REC_WORD	1638846	wordpools/wasnorm_wordpool.txt	LTP128	ltpFR	3	13	-1	BIRD	129	n/a	-1	n/a	n/a	n/a	n/a	n/a
3279.278	n/a	REC_WORD	1639639	wordpools/wasnorm_wordpool.txt	LTP128	ltpFR	3	13	-1	SUIT	1402	n/a	-1	n/a	n/a	n/a	n/a	n/a
3280.9	n/a	REC_WORD	1640450	wordpools/wasnorm_wordpool.txt	LTP128	ltpFR	3	13	-1	TIE	1466	n/a	-1	n/a	n/a	n/a	n/a	n/a
3282.67	n/a	REC_WORD	1641335	wordpools/wasnorm_wordpool.txt	LTP128	ltpFR	3	13	-1	CAP	236	n/a	-1	n/a	n/a	n/a	n/a	n/a
3285.534	n/a	REC_WORD	1642767	wordpools/wasnorm_wordpool.txt	LTP128	ltpFR	3	13	-1	ROPE	1211	n/a	-1	n/a	n/a	n/a	n/a	n/a
3292.176	n/a	REC_WORD	1646088	wordpools/wasnorm_wordpool.txt	LTP128	ltpFR	3	13	n/a	SNAKE	1333	n/a	n/a	n/a	n/a	n/a	n/a	n/a
3293.956	n/a	REC_WORD	1646978	wordpools/wasnorm_wordpool.txt	LTP128	ltpFR	3	13	-1	CELLO	268	n/a	-1	n/a	n/a	n/a	n/a	n/a
3295.448	n/a	REC_WORD	1647724	wordpools/wasnorm_wordpool.txt	LTP128	ltpFR	3	13	-1	FUNGUS	614	n/a	-1	n/a	n/a	n/a	n/a	n/a
3297.264	n/a	REC_WORD	1648632	wordpools/wasnorm_wordpool.txt	LTP128	ltpFR	3	13	-1	GUITAR	670	n/a	-1	n/a	n/a	n/a	n/a	n/a
3299.11	n/a	REC_WORD	1649555	wordpools/wasnorm_wordpool.txt	LTP128	ltpFR	3	13	-1	SWEATER	1419	n/a	-1	n/a	n/a	n/a	n/a	n/a
3390.644	n/a	WORD	1695322	wordpools/wasnorm_wordpool.txt	LTP128	ltpFR	3	14	1	MOUNTAIN	924	n/a	0	0	0.5869140625	0.422607421875	upper	../fonts/zerothre.ttf
3394.676	n/a	WORD	1697338	wordpools/wasnorm_wordpool.txt	LTP128	ltpFR	3	14	1	CAULIFLOWER	262	n/a	0	0	0.5869140625	0.422607421875	upper	../fonts/zerothre.ttf
3398.782	n/a	WORD	1699391	wordpools/wasnorm_wordpool.txt	LTP128	ltpFR	3	14	1	RABBIT	1152	n/a	1	0	0.5869140625	0.422607421875	upper	../fonts/zerothre.ttf
3402.63	n/a	WORD	1701315	wordpools/wasnorm_wordpool.txt	LTP128	ltpFR	3	14	1	LIMOUSINE	824	n/a	0	0	0.5869140625	0.422607421875	upper	../fonts/zerothre.ttf
3406.488	n/a	WORD	1703244	wordpools/wasnorm_wordpool.txt	LTP128	ltpFR	3	14	1	SHOELACE	1289	n/a	0	0	0.5869140625	0.422607421875	upper	../fonts/zerothre.ttf
3410.43	n/a	WORD	1705215	wordpools/wasnorm_wordpool.txt	LTP128	ltpFR	3	14	1	CLAW	319	n/a	0	0	0.5869140625	0.422607421875	upper	../fonts/zerothre.ttf
3414.47	n/a	WORD	1707235	wordpools/wasnorm_wordpool.txt	LTP128	ltpFR	3	14	1	FLOWER	584	n/a	0	0	0.5869140625	0.422607421875	upper	../fonts/zerothre.ttf
3418.526	n/a	WORD	1709263	wordpools/wasnorm_wordpool.txt	LTP128	ltpFR	3	14	1	VASE	1549	n/a	0	0	0.5869140625	0.422607421875	upper	../fonts/zerothre.ttf
3422.492	n/a	WORD	1711246	wordpools/wasnorm_wordpool.txt	LTP128	ltpFR	3	14	1	COURT	391	n/a	0	0	0.5869140625	0.422607421875	upper	../fonts/zerothre.ttf
3426.592	n/a	WORD	1713296	wordpools/wasnorm_wordpool.txt	LTP128	ltpFR	3	14	1	GRADUATE	653	n/a	1	0	0.5869140625	0.422607421875	upper	../fonts/zerothre.ttf
3430.514	n/a	WORD	1715257	wordpools/wasnorm_wordpool.txt	LTP128	ltpFR	3	14	1	LACE	792	n/a	0	0	0.5869140625	0.422607421875	upper	../fonts/zerothre.ttf
3434.564	n/a	WORD	1717282	wordpools/wasnorm_wordpool.txt	LTP128	ltpFR	3	14	1	HOUND	724	n/a	1	0	0.5869140625	0.422607421875	upper	../fonts/zerothre.ttf
3438.62	n/a	WORD	1719310	wordpools/wasnorm_wordpool.txt	LTP128	ltpFR	3	14	1	DRIVEWAY	500	n/a	0	0	0.5869140625	0.422607421875	upper	../fonts/zerothre.ttf
3442.786	n/a	WORD	1721393	wordpools/wasnorm_wordpool.txt	LTP128	ltpFR	3	14	1	WAITER	1580	n/a	1	0	0.5869140625	0.422607421875	upper	../fonts/zerothre.ttf
3446.644	n/a	WORD	1723322	wordpools/wasnorm_wordpool.txt	LTP128	ltpFR	3	14	1	MEAL	882	n/a	0	0	0.5869140625	0.422607421875	upper	../fonts/zerothre.ttf
3450.742	n/a	WORD	1725371	wordpools/wasnorm_wordpool.txt	LTP128	ltpFR	3	14	1	FOREHEAD	592	n/a	0	0	0.5869140625	0.422607421875	upper	../fonts/zerothre.ttf
3456.682	n/a	REC_START	1728341	n/a	LTP128	ltpFR	3	14	n/a	n/a	n/a	n/a	n/a	n/a	n/a	n/a	n/a	n/a
3459.106	n/a	REC_WORD	1729553	wordpools/wasnorm_wordpool.txt	LTP128	ltpFR	3	14	1	LACE	792	n/a	0	n/a	n/a	n/a	n/a	n/a
3461.108	n/a	REC_WORD	1730554	wordpools/wasnorm_wordpool.txt	LTP128	ltpFR	3	14	1	GRADUATE	653	n/a	1	n/a	n/a	n/a	n/a	n/a
3462.414	n/a	REC_WORD	1731207	wordpools/wasnorm_wordpool.txt	LTP128	ltpFR	3	14	1	DRIVEWAY	500	n/a	0	n/a	n/a	n/a	n/a	n/a
3464.46	n/a	REC_WORD	1732230	wordpools/wasnorm_wordpool.txt	LTP128	ltpFR	3	14	1	FOREHEAD	592	n/a	0	n/a	n/a	n/a	n/a	n/a
3467.388	n/a	REC_WORD	1733694	wordpools/wasnorm_wordpool.txt	LTP128	ltpFR	3	14	1	MEAL	882	n/a	0	n/a	n/a	n/a	n/a	n/a
3470.836	n/a	REC_WORD	1735418	wordpools/wasnorm_wordpool.txt	LTP128	ltpFR	3	14	1	LIMOUSINE	824	n/a	0	n/a	n/a	n/a	n/a	n/a
3473.45	n/a	REC_WORD	1736725	wordpools/wasnorm_wordpool.txt	LTP128	ltpFR	3	14	1	RABBIT	1152	n/a	1	n/a	n/a	n/a	n/a	n/a
3475.196	n/a	REC_WORD	1737598	wordpools/wasnorm_wordpool.txt	LTP128	ltpFR	3	14	1	CLAW	319	n/a	0	n/a	n/a	n/a	n/a	n/a
3476.712	n/a	REC_WORD	1738356	wordpools/wasnorm_wordpool.txt	LTP128	ltpFR	3	14	1	SHOELACE	1289	n/a	0	n/a	n/a	n/a	n/a	n/a
3478.888	n/a	REC_WORD	1739444	wordpools/wasnorm_wordpool.txt	LTP128	ltpFR	3	14	1	CAULIFLOWER	262	n/a	0	n/a	n/a	n/a	n/a	n/a
3479.888	n/a	REC_WORD_VV	1739944	wordpools/wasnorm_wordpool.txt	LTP128	ltpFR	3	14	n/a	<>	-1	n/a	n/a	n/a	n/a	n/a	n/a	n/a
3482.48	n/a	REC_WORD	1741240	wordpools/wasnorm_wordpool.txt	LTP128	ltpFR	3	14	1	MOUNTAIN	924	n/a	0	n/a	n/a	n/a	n/a	n/a
3608.02	n/a	WORD	1804010	wordpools/wasnorm_wordpool.txt	LTP128	ltpFR	3	15	0	KNEE	784	n/a	0	1	0.412841796875	0.57763671875	lower	../fonts/amplitud.ttf
3612.102	n/a	WORD	1806051	wordpools/wasnorm_wordpool.txt	LTP128	ltpFR	3	15	0	SALESMAN	1225	n/a	1	1	0.412841796875	0.57763671875	lower	../fonts/amplitud.ttf
3616.092	n/a	WORD	1808046	wordpools/wasnorm_wordpool.txt	LTP128	ltpFR	3	15	0	RADIATOR	1156	n/a	0	1	0.412841796875	0.57763671875	lower	../fonts/amplitud.ttf
3620.292	n/a	WORD	1810146	wordpools/wasnorm_wordpool.txt	LTP128	ltpFR	3	15	0	ENVELOPE	537	n/a	0	1	0.412841796875	0.57763671875	lower	../fonts/amplitud.ttf
3624.464	n/a	WORD	1812232	wordpools/wasnorm_wordpool.txt	LTP128	ltpFR	3	15	0	LIME	823	n/a	0	1	0.412841796875	0.57763671875	lower	../fonts/amplitud.ttf
3628.348	n/a	WORD	1814174	wordpools/wasnorm_wordpool.txt	LTP128	ltpFR	3	15	0	ALLEY	15	n/a	1	1	0.412841796875	0.57763671875	lower	../fonts/amplitud.ttf
3632.222	n/a	WORD	1816111	wordpools/wasnorm_wordpool.txt	LTP128	ltpFR	3	15	0	MOUTH	926	n/a	0	1	0.412841796875	0.57763671875	lower	../fonts/amplitud.ttf
3636.394	n/a	WORD	1818197	wordpools/wasnorm_wordpool.txt	LTP128	ltpFR	3	15	0	FACE	547	n/a	0	1	0.412841796875	0.57763671875	lower	../fonts/amplitud.ttf
3640.494	n/a	WORD	1820247	wordpools/wasnorm_wordpool.txt	LTP128	ltpFR	3	15	0	SIDEWALK	1303	n/a	1	1	0.412841796875	0.57763671875	lower	../fonts/amplitud.ttf
3644.384	n/a	WORD	1822192	wordpools/wasnorm_wordpool.txt	LTP128	ltpFR	3	15	0	PLANE	1081	n/a	1	1	0.412841796875	0.57763671875	lower	../fonts/amplitud.ttf
3648.44	n/a	WORD	1824220	wordpools/wasnorm_wordpool.txt	LTP128	ltpFR	3	15	0	COMPANION	357	n/a	1	1	0.412841796875	0.57763671875	lower	../fonts/amplitud.ttf
3652.438	n/a	WORD	1826219	wordpools/wasnorm_wordpool.txt	LTP128	ltpFR	3	15	0	HALL	677	n/a	1	1	0.412841796875	0.57763671875	lower	../fonts/amplitud.ttf
3656.256	n/a	WORD	1828128	wordpools/wasnorm_wordpool.txt	LTP128	ltpFR	3	15	0	STEWARDESS	1381	n/a	1	1	0.412841796875	0.57763671875	lower	../fonts/amplitud.ttf
3660.446	n/a	WORD	1830223	wordpools/wasnorm_wordpool.txt	LTP128	ltpFR	3	15	0	RAISIN	1163	n/a	0	1	0.412841796875	0.57763671875	lower	../fonts/amplitud.ttf
3664.41	n/a	WORD	1832205	wordpools/wasnorm_wordpool.txt	LTP128	ltpFR	3	15	0	PELICAN	1039	n/a	1	1	0.412841796875	0.57763671875	lower	../fonts/amplitud.ttf
3668.36	n/a	WORD	1834180	wordpools/wasnorm_wordpool.txt	LTP128	ltpFR	3	15	0	HAWK	692	n/a	1	1	0.412841796875	0.57763671875	lower	../fonts/amplitud.ttf
3674.276	n/a	REC_START	1837138	n/a	LTP128	ltpFR	3	15	n/a	n/a	n/a	n/a	n/a	n/a	n/a	n/a	n/a	n/a
3676.292	n/a	REC_WORD	1838146	wordpools/wasnorm_wordpool.txt	LTP128	ltpFR	3	15	0	PELICAN	1039	n/a	1	n/a	n/a	n/a	n/a	n/a
3677.32	n/a	REC_WORD	1838660	wordpools/wasnorm_wordpool.txt	LTP128	ltpFR	3	15	0	HAWK	692	n/a	1	n/a	n/a	n/a	n/a	n/a
3678.362	n/a	REC_WORD	1839181	wordpools/wasnorm_wordpool.txt	LTP128	ltpFR	3	15	0	PLANE	1081	n/a	1	n/a	n/a	n/a	n/a	n/a
3679.884	n/a	REC_WORD	1839942	wordpools/wasnorm_wordpool.txt	LTP128	ltpFR	3	15	0	STEWARDESS	1381	n/a	1	n/a	n/a	n/a	n/a	n/a
3681.664	n/a	REC_WORD	1840832	wordpools/wasnorm_wordpool.txt	LTP128	ltpFR	3	15	0	RAISIN	1163	n/a	0	n/a	n/a	n/a	n/a	n/a
3686.644	n/a	REC_WORD	1843322	wordpools/wasnorm_wordpool.txt	LTP128	ltpFR	3	15	0	SALESMAN	1225	n/a	1	n/a	n/a	n/a	n/a	n/a
3688.36	n/a	REC_WORD	1844180	wordpools/wasnorm_wordpool.txt	LTP128	ltpFR	3	15	0	KNEE	784	n/a	0	n/a	n/a	n/a	n/a	n/a
3692.23	n/a	REC_WORD	1846115	wordpools/wasnorm_wordpool.txt	LTP128	ltpFR	3	15	0	RADIATOR	1156	n/a	0	n/a	n/a	n/a	n/a	n/a
3694.89	n/a	REC_WORD	1847445	wordpools/wasnorm_wordpool.txt	LTP128	ltpFR	3	15	0	SIDEWALK	1303	n/a	1	n/a	n/a	n/a	n/a	n/a
3696.986	n/a	REC_WORD	1848493	wordpools/wasnorm_wordpool.txt	LTP128	ltpFR	3	15	0	ALLEY	15	n/a	1	n/a	n/a	n/a	n/a	n/a
3699.006	n/a	REC_WORD	1849503	wordpools/wasnorm_wordpool.txt	LTP128	ltpFR	3	15	0	ENVELOPE	537	n/a	0	n/a	n/a	n/a	n/a	n/a
3701.256	n/a	REC_WORD	1850628	wordpools/wasnorm_wordpool.txt	LTP128	ltpFR	3	15	0	LIME	823	n/a	0	n/a	n/a	n/a	n/a	n/a
3710.534	n/a	REC_WORD	1855267	wordpools/wasnorm_wordpool.txt	LTP128	ltpFR	3	15	0	PELICAN	1039	n/a	1	n/a	n/a	n/a	n/a	n/a
3712.306	n/a	REC_WORD	1856153	wordpools/wasnorm_wordpool.txt	LTP128	ltpFR	3	15	0	HAWK	692	n/a	1	n/a	n/a	n/a	n/a	n/a
3720.902	n/a	REC_WORD	1860451	wordpools/wasnorm_wordpool.txt	LTP128	ltpFR	3	15	0	MOUTH	926	n/a	0	n/a	n/a	n/a	n/a	n/a
3722.004	n/a	REC_WORD	1861002	wordpools/wasnorm_wordpool.txt	LTP128	ltpFR	3	15	0	FACE	547	n/a	0	n/a	n/a	n/a	n/a	n/a
3784.092	n/a	WORD	1892046	wordpools/wasnorm_wordpool.txt	LTP128	ltpFR	3	16	1	PERSON	1052	n/a	3	0	0.5869140625	0.422607421875	upper	../fonts/zerothre.ttf
3785.398	n/a	KEY_MSG	1892699	n/a	LTP128	ltpFR	3	16	n/a	n/a	n/a	n/a	n/a	n/a	n/a	n/a	n/a	n/a
3787.99	n/a	WORD	1893995	wordpools/wasnorm_wordpool.txt	LTP128	ltpFR	3	16	1	FLORIDA	582	n/a	0	0	0.5869140625	0.422607421875	upper	../fonts/zerothre.ttf
3792.098	n/a	WORD	1896049	wordpools/wasnorm_wordpool.txt	LTP128	ltpFR	3	16	1	FUR	615	n/a	0	0	0.5869140625	0.422607421875	upper	../fonts/zerothre.ttf
3796.122	n/a	WORD	1898061	wordpools/wasnorm_wordpool.txt	LTP128	ltpFR	3	16	1	CAPE	237	n/a	0	0	0.5869140625	0.422607421875	upper	../fonts/zerothre.ttf
3800.046	n/a	WORD	1900023	wordpools/wasnorm_wordpool.txt	LTP128	ltpFR	3	16	1	JUPITER	765	n/a	0	0	0.5869140625	0.422607421875	upper	../fonts/zerothre.ttf
3804.21	n/a	WORD	1902105	wordpools/wasnorm_wordpool.txt	LTP128	ltpFR	3	16	1	CROW	414	n/a	1	0	0.5869140625	0.422607421875	upper	../fonts/zerothre.ttf
3808.252	n/a	WORD	1904126	wordpools/wasnorm_wordpool.txt	LTP128	ltpFR	3	16	1	LIMB	822	n/a	0	0	0.5869140625	0.422607421875	upper	../fonts/zerothre.ttf
3812.308	n/a	WORD	1906154	wordpools/wasnorm_wordpool.txt	LTP128	ltpFR	3	16	1	TRUCK	1512	n/a	0	0	0.5869140625	0.422607421875	upper	../fonts/zerothre.ttf
3816.366	n/a	WORD	1908183	wordpools/wasnorm_wordpool.txt	LTP128	ltpFR	3	16	1	BUS	201	n/a	1	0	0.5869140625	0.422607421875	upper	../fonts/zerothre.ttf
3820.206	n/a	WORD	1910103	wordpools/wasnorm_wordpool.txt	LTP128	ltpFR	3	16	1	HELMET	702	n/a	0	0	0.5869140625	0.422607421875	upper	../fonts/zerothre.ttf
3824.396	n/a	WORD	1912198	wordpools/wasnorm_wordpool.txt	LTP128	ltpFR	3	16	1	FIST	572	n/a	0	0	0.5869140625	0.422607421875	upper	../fonts/zerothre.ttf
3828.536	n/a	WORD	1914268	wordpools/wasnorm_wordpool.txt	LTP128	ltpFR	3	16	1	MITTEN	902	n/a	0	0	0.5869140625	0.422607421875	upper	../fonts/zerothre.ttf
3832.61	n/a	WORD	1916305	wordpools/wasnorm_wordpool.txt	LTP128	ltpFR	3	16	1	PUDDLE	1140	n/a	0	0	0.5869140625	0.422607421875	upper	../fonts/zerothre.ttf
3836.8	n/a	WORD	1918400	wordpools/wasnorm_wordpool.txt	LTP128	ltpFR	3	16	1	SURF	1412	n/a	0	0	0.5869140625	0.422607421875	upper	../fonts/zerothre.ttf
3840.908	n/a	WORD	1920454	wordpools/wasnorm_wordpool.txt	LTP128	ltpFR	3	16	1	HUMAN	726	n/a	1	0	0.5869140625	0.422607421875	upper	../fonts/zerothre.ttf
3844.916	n/a	WORD	1922458	wordpools/wasnorm_wordpool.txt	LTP128	ltpFR	3	16	1	SWAN	1417	n/a	1	0	0.5869140625	0.422607421875	upper	../fonts/zerothre.ttf
3850.99	n/a	REC_START	1925495	n/a	LTP128	ltpFR	3	16	n/a	n/a	n/a	n/a	n/a	n/a	n/a	n/a	n/a	n/a
3851.562	n/a	REC_WORD	1925781	wordpools/wasnorm_wordpool.txt	LTP128	ltpFR	3	16	1	FIST	572	n/a	0	n/a	n/a	n/a	n/a	n/a
3852.84	n/a	REC_WORD	1926420	wordpools/wasnorm_wordpool.txt	LTP128	ltpFR	3	16	1	MITTEN	902	n/a	0	n/a	n/a	n/a	n/a	n/a
3853.932	n/a	REC_WORD	1926966	wordpools/wasnorm_wordpool.txt	LTP128	ltpFR	3	16	1	PUDDLE	1140	n/a	0	n/a	n/a	n/a	n/a	n/a
3855.06	n/a	REC_WORD	1927530	wordpools/wasnorm_wordpool.txt	LTP128	ltpFR	3	16	1	SURF	1412	n/a	0	n/a	n/a	n/a	n/a	n/a
3856.272	n/a	REC_WORD	1928136	wordpools/wasnorm_wordpool.txt	LTP128	ltpFR	3	16	1	HUMAN	726	n/a	1	n/a	n/a	n/a	n/a	n/a
3857.56	n/a	REC_WORD	1928780	wordpools/wasnorm_wordpool.txt	LTP128	ltpFR	3	16	1	SWAN	1417	n/a	1	n/a	n/a	n/a	n/a	n/a
3859.41	n/a	REC_WORD	1929705	wordpools/wasnorm_wordpool.txt	LTP128	ltpFR	3	16	1	JUPITER	765	n/a	0	n/a	n/a	n/a	n/a	n/a
3861.246	n/a	REC_WORD	1930623	wordpools/wasnorm_wordpool.txt	LTP128	ltpFR	3	16	1	TRUCK	1512	n/a	0	n/a	n/a	n/a	n/a	n/a
3875.176	n/a	REC_WORD	1937588	wordpools/wasnorm_wordpool.txt	LTP128	ltpFR	3	16	1	CROW	414	n/a	1	n/a	n/a	n/a	n/a	n/a
3881.556	n/a	REC_WORD	1940778	wordpools/wasnorm_wordpool.txt	LTP128	ltpFR	3	16	1	BUS	201	n/a	1	n/a	n/a	n/a	n/a	n/a
3966.23	n/a	REC_START	1983115	n/a	LTP128	ltpFR	3	n/a	n/a	n/a	n/a	n/a	n/a	n/a	n/a	n/a	n/a	n/a
3968.568	n/a	FFR_REC_WORD	1984284	wordpools/wasnorm_wordpool.txt	LTP128	ltpFR	3	n/a	1	FIST	572	n/a	0	n/a	n/a	n/a	n/a	n/a
3969.966	n/a	FFR_REC_WORD	1984983	wordpools/wasnorm_wordpool.txt	LTP128	ltpFR	3	n/a	1	HUMAN	726	n/a	1	n/a	n/a	n/a	n/a	n/a
3971.268	n/a	FFR_REC_WORD	1985634	wordpools/wasnorm_wordpool.txt	LTP128	ltpFR	3	n/a	1	SWAN	1417	n/a	1	n/a	n/a	n/a	n/a	n/a
3972.814	n/a	FFR_REC_WORD	1986407	wordpools/wasnorm_wordpool.txt	LTP128	ltpFR	3	n/a	1	MITTEN	902	n/a	0	n/a	n/a	n/a	n/a	n/a
3974.376	n/a	FFR_REC_WORD	1987188	wordpools/wasnorm_wordpool.txt	LTP128	ltpFR	3	n/a	1	JUPITER	765	n/a	0	n/a	n/a	n/a	n/a	n/a
3975.938	n/a	FFR_REC_WORD	1987969	wordpools/wasnorm_wordpool.txt	LTP128	ltpFR	3	n/a	1	TRUCK	1512	n/a	0	n/a	n/a	n/a	n/a	n/a
3982.074	n/a	FFR_REC_WORD	1991037	wordpools/wasnorm_wordpool.txt	LTP128	ltpFR	3	n/a	1	BUS	201	n/a	1	n/a	n/a	n/a	n/a	n/a
3999.454	n/a	FFR_REC_WORD	1999727	wordpools/wasnorm_wordpool.txt	LTP128	ltpFR	3	n/a	-1	CLIFF	322	n/a	-1	n/a	n/a	n/a	n/a	n/a
4000.902	n/a	FFR_REC_WORD	2000451	wordpools/wasnorm_wordpool.txt	LTP128	ltpFR	3	n/a	-1	BUILDING	191	n/a	-1	n/a	n/a	n/a	n/a	n/a
4005.078	n/a	FFR_REC_WORD	2002539	wordpools/wasnorm_wordpool.txt	LTP128	ltpFR	3	n/a	-1	RADISH	1158	n/a	-1	n/a	n/a	n/a	n/a	n/a
4007.598	n/a	FFR_REC_WORD	2003799	wordpools/wasnorm_wordpool.txt	LTP128	ltpFR	3	n/a	n/a	ARCHITECT	36	n/a	n/a	n/a	n/a	n/a	n/a	n/a
4013.18	n/a	FFR_REC_WORD	2006590	wordpools/wasnorm_wordpool.txt	LTP128	ltpFR	3	n/a	-1	HIKER	708	n/a	-1	n/a	n/a	n/a	n/a	n/a
4019.634	n/a	FFR_REC_WORD	2009817	wordpools/wasnorm_wordpool.txt	LTP128	ltpFR	3	n/a	-1	BIRD	129	n/a	-1	n/a	n/a	n/a	n/a	n/a
4020.674	n/a	FFR_REC_WORD	2010337	wordpools/wasnorm_wordpool.txt	LTP128	ltpFR	3	n/a	-1	SUIT	1402	n/a	-1	n/a	n/a	n/a	n/a	n/a
4021.776	n/a	FFR_REC_WORD	2010888	wordpools/wasnorm_wordpool.txt	LTP128	ltpFR	3	n/a	-1	TIE	1466	n/a	-1	n/a	n/a	n/a	n/a	n/a
4024.04	n/a	FFR_REC_WORD	2012020	wordpools/wasnorm_wordpool.txt	LTP128	ltpFR	3	n/a	-1	CAP	236	n/a	-1	n/a	n/a	n/a	n/a	n/a
4025.966	n/a	FFR_REC_WORD	2012983	wordpools/wasnorm_wordpool.txt	LTP128	ltpFR	3	n/a	-1	ROPE	1211	n/a	-1	n/a	n/a	n/a	n/a	n/a
4027.358	n/a	FFR_REC_WORD	2013679	wordpools/wasnorm_wordpool.txt	LTP128	ltpFR	3	n/a	n/a	SNAKE	1333	n/a	n/a	n/a	n/a	n/a	n/a	n/a
4028.586	n/a	FFR_REC_WORD	2014293	wordpools/wasnorm_wordpool.txt	LTP128	ltpFR	3	n/a	-1	CELLO	268	n/a	-1	n/a	n/a	n/a	n/a	n/a
4029.762	n/a	FFR_REC_WORD	2014881	wordpools/wasnorm_wordpool.txt	LTP128	ltpFR	3	n/a	-1	FUNGUS	614	n/a	-1	n/a	n/a	n/a	n/a	n/a
4031.664	n/a	FFR_REC_WORD	2015832	wordpools/wasnorm_wordpool.txt	LTP128	ltpFR	3	n/a	-1	GUITAR	670	n/a	-1	n/a	n/a	n/a	n/a	n/a
4033.534	n/a	FFR_REC_WORD	2016767	wordpools/wasnorm_wordpool.txt	LTP128	ltpFR	3	n/a	-1	SWEATER	1419	n/a	-1	n/a	n/a	n/a	n/a	n/a
4035.002	n/a	FFR_REC_WORD	2017501	wordpools/wasnorm_wordpool.txt	LTP128	ltpFR	3	n/a	-1	TOTE	1487	n/a	-1	n/a	n/a	n/a	n/a	n/a
4039.706	n/a	FFR_REC_WORD	2019853	wordpools/wasnorm_wordpool.txt	LTP128	ltpFR	3	n/a	-1	DRAGON	492	n/a	-1	n/a	n/a	n/a	n/a	n/a
4041.636	n/a	FFR_REC_WORD	2020818	wordpools/wasnorm_wordpool.txt	LTP128	ltpFR	3	n/a	-1	CAB	209	n/a	-1	n/a	n/a	n/a	n/a	n/a
4042.724	n/a	FFR_REC_WORD	2021362	wordpools/wasnorm_wordpool.txt	LTP128	ltpFR	3	n/a	-1	MONEY	908	n/a	-1	n/a	n/a	n/a	n/a	n/a
4044.28	n/a	FFR_REC_WORD	2022140	wordpools/wasnorm_wordpool.txt	LTP128	ltpFR	3	n/a	-1	HEATER	698	n/a	-1	n/a	n/a	n/a	n/a	n/a
4045.418	n/a	FFR_REC_WORD	2022709	wordpools/wasnorm_wordpool.txt	LTP128	ltpFR	3	n/a	-1	STEREO	1378	n/a	-1	n/a	n/a	n/a	n/a	n/a
4047.588	n/a	FFR_REC_WORD	2023794	wordpools/wasnorm_wordpool.txt	LTP128	ltpFR	3	n/a	-1	SEASHORE	1263	n/a	-1	n/a	n/a	n/a	n/a	n/a
4054.088	n/a	FFR_REC_WORD	2027044	wordpools/wasnorm_wordpool.txt	LTP128	ltpFR	3	n/a	-1	CARAVAN	242	n/a	-1	n/a	n/a	n/a	n/a	n/a
4055.126	n/a	FFR_REC_WORD	2027563	wordpools/wasnorm_wordpool.txt	LTP128	ltpFR	3	n/a	-1	CHAMPION	279	n/a	-1	n/a	n/a	n/a	n/a	n/a
4056.358	n/a	FFR_REC_WORD	2028179	wordpools/wasnorm_wordpool.txt	LTP128	ltpFR	3	n/a	-1	CAKE	219	n/a	-1	n/a	n/a	n/a	n/a	n/a
4057.47	n/a	FFR_REC_WORD	2028735	wordpools/wasnorm_wordpool.txt	LTP128	ltpFR	3	n/a	-1	SURGEON	1413	n/a	-1	n/a	n/a	n/a	n/a	n/a
4059.676	n/a	FFR_REC_WORD	2029838	wordpools/wasnorm_wordpool.txt	LTP128	ltpFR	3	n/a	-1	BANANA	77	n/a	-1	n/a	n/a	n/a	n/a	n/a
4061.044	n/a	FFR_REC_WORD	2030522	wordpools/wasnorm_wordpool.txt	LTP128	ltpFR	3	n/a	-1	THORN	1459	n/a	-1	n/a	n/a	n/a	n/a	n/a
4062.38	n/a	FFR_REC_WORD	2031190	wordpools/wasnorm_wordpool.txt	LTP128	ltpFR	3	n/a	-1	ORCHID	982	n/a	-1	n/a	n/a	n/a	n/a	n/a
4073.112	n/a	FFR_REC_WORD	2036556	wordpools/wasnorm_wordpool.txt	LTP128	ltpFR	3	n/a	0	BOULDER	155	n/a	1	n/a	n/a	n/a	n/a	n/a
4074.164	n/a	FFR_REC_WORD	2037082	wordpools/wasnorm_wordpool.txt	LTP128	ltpFR	3	n/a	0	QUILT	1151	n/a	1	n/a	n/a	n/a	n/a	n/a
4075.126	n/a	FFR_REC_WORD	2037563	wordpools/wasnorm_wordpool.txt	LTP128	ltpFR	3	n/a	0	PRIEST	1122	n/a	1	n/a	n/a	n/a	n/a	n/a
4076.758	n/a	FFR_REC_WORD	2038379	wordpools/wasnorm_wordpool.txt	LTP128	ltpFR	3	n/a	0	PONY	1102	n/a	1	n/a	n/a	n/a	n/a	n/a
4077.682	n/a	FFR_REC_WORD	2038841	wordpools/wasnorm_wordpool.txt	LTP128	ltpFR	3	n/a	0	COSTUME	383	n/a	1	n/a	n/a	n/a	n/a	n/a
4081.868	n/a	FFR_REC_WORD	2040934	wordpools/wasnorm_wordpool.txt	LTP128	ltpFR	3	n/a	0	NOTEBOOK	959	n/a	0	n/a	n/a	n/a	n/a	n/a
4087.66	n/a	FFR_REC_WORD	2043830	wordpools/wasnorm_wordpool.txt	LTP128	ltpFR	3	n/a	0	BINDER	127	n/a	0	n/a	n/a	n/a	n/a	n/a
4088.412	n/a	FFR_REC_WORD	2044206	wordpools/wasnorm_wordpool.txt	LTP128	ltpFR	3	n/a	0	FILM	565	n/a	0	n/a	n/a	n/a	n/a	n/a
4094.718	n/a	FFR_REC_WORD	2047359	wordpools/wasnorm_wordpool.txt	LTP128	ltpFR	3	n/a	0	COB	334	n/a	0	n/a	n/a	n/a	n/a	n/a
4096.858	n/a	FFR_REC_WORD	2048429	wordpools/wasnorm_wordpool.txt	LTP128	ltpFR	3	n/a	0	BANDANNA	80	n/a	0	n/a	n/a	n/a	n/a	n/a
4108.868	n/a	FFR_REC_WORD	2054434	wordpools/wasnorm_wordpool.txt	LTP128	ltpFR	3	n/a	-1	CHAIR	274	n/a	-1	n/a	n/a	n/a	n/a	n/a
4109.93	n/a	FFR_REC_WORD	2054965	wordpools/wasnorm_wordpool.txt	LTP128	ltpFR	3	n/a	-1	CONTINENT	367	n/a	-1	n/a	n/a	n/a	n/a	n/a
4110.858	n/a	FFR_REC_WORD	2055429	wordpools/wasnorm_wordpool.txt	LTP128	ltpFR	3	n/a	-1	ASPIRIN	47	n/a	-1	n/a	n/a	n/a	n/a	n/a
4111.77	n/a	FFR_REC_WORD	2055885	wordpools/wasnorm_wordpool.txt	LTP128	ltpFR	3	n/a	-1	STOCKING	1383	n/a	-1	n/a	n/a	n/a	n/a	n/a
4112.854	n/a	FFR_REC_WORD	2056427	wordpools/wasnorm_wordpool.txt	LTP128	ltpFR	3	n/a	-1	PEBBLE	1035	n/a	-1	n/a	n/a	n/a	n/a	n/a
4115.712	n/a	FFR_REC_WORD	2057856	wordpools/wasnorm_wordpool.txt	LTP128	ltpFR	3	n/a	-1	MAT	877	n/a	-1	n/a	n/a	n/a	n/a	n/a
4119.778	n/a	FFR_REC_WORD	2059889	wordpools/wasnorm_wordpool.txt	LTP128	ltpFR	3	n/a	0	EMERALD	528	n/a	0	n/a	n/a	n/a	n/a	n/a
4120.646	n/a	FFR_REC_WORD	2060323	wordpools/wasnorm_wordpool.txt	LTP128	ltpFR	3	n/a	0	RUBY	1214	n/a	0	n/a	n/a	n/a	n/a	n/a
4122.162	n/a	FFR_REC_WORD	2061081	wordpools/wasnorm_wordpool.txt	LTP128	ltpFR	3	n/a	0	LOVER	846	n/a	1	n/a	n/a	n/a	n/a	n/a
4123.334	n/a	FFR_REC_WORD	2061667	wordpools/wasnorm_wordpool.txt	LTP128	ltpFR	3	n/a	0	DICTATOR	462	n/a	1	n/a	n/a	n/a	n/a	n/a
4124.304	n/a	FFR_REC_WORD	2062152	wordpools/wasnorm_wordpool.txt	LTP128	ltpFR	3	n/a	0	DILL	465	n/a	0	n/a	n/a	n/a	n/a	n/a
4125.226	n/a	FFR_REC_WORD	2062613	wordpools/wasnorm_wordpool.txt	LTP128	ltpFR	3	n/a	0	SPICE	1350	n/a	0	n/a	n/a	n/a	n/a	n/a
4128.474	n/a	FFR_REC_WORD	2064237	wordpools/wasnorm_wordpool.txt	LTP128	ltpFR	3	n/a	0	PRINCE	1124	n/a	1	n/a	n/a	n/a	n/a	n/a
4129.562	n/a	FFR_REC_WORD	2064781	wordpools/wasnorm_wordpool.txt	LTP128	ltpFR	3	n/a	0	PALACE	1006	n/a	1	n/a	n/a	n/a	n/a	n/a
4143.406	n/a	FFR_REC_WORD	2071703	wordpools/wasnorm_wordpool.txt	LTP128	ltpFR	3	n/a	1	GRADUATE	653	n/a	1	n/a	n/a	n/a	n/a	n/a
4209.154	n/a	FFR_REC_WORD	2104577	wordpools/wasnorm_wordpool.txt	LTP128	ltpFR	3	n/a	0	SOAP	1337	n/a	0	n/a	n/a	n/a	n/a	n/a
4210.116	n/a	FFR_REC_WORD	2105058	wordpools/wasnorm_wordpool.txt	LTP128	ltpFR	3	n/a	1	FEATHER	557	n/a	0	n/a	n/a	n/a	n/a	n/a
4211.768	n/a	FFR_REC_WORD	2105884	wordpools/wasnorm_wordpool.txt	LTP128	ltpFR	3	n/a	0	PIGEON	1065	n/a	0	n/a	n/a	n/a	n/a	n/a
4213.176	n/a	FFR_REC_WORD	2106588	wordpools/wasnorm_wordpool.txt	LTP128	ltpFR	3	n/a	0	BUREAU	199	n/a	1	n/a	n/a	n/a	n/a	n/a
4214.548	n/a	FFR_REC_WORD	2107274	wordpools/wasnorm_wordpool.txt	LTP128	ltpFR	3	n/a	0	MANAGER	863	n/a	1	n/a	n/a	n/a	n/a	n/a
4228.416	n/a	FFR_REC_WORD	2114208	wordpools/wasnorm_wordpool.txt	LTP128	ltpFR	3	n/a	-1	MAPLE	866	n/a	-1	n/a	n/a	n/a	n/a	n/a
4229.514	n/a	FFR_REC_WORD	2114757	wordpools/wasnorm_wordpool.txt	LTP128	ltpFR	3	n/a	-1	SYRUP	1425	n/a	-1	n/a	n/a	n/a	n/a	n/a
4233.332	n/a	FFR_REC_WORD	2116666	wordpools/wasnorm_wordpool.txt	LTP128	ltpFR	3	n/a	0	KITE	779	n/a	0	n/a	n/a	n/a	n/a	n/a
4234.398	n/a	FFR_REC_WORD	2117199	wordpools/wasnorm_wordpool.txt	LTP128	ltpFR	3	n/a	0	RUNNER	1218	n/a	1	n/a	n/a	n/a	n/a	n/a
4260.386	n/a	FFR_REC_WORD	2130193	wordpools/wasnorm_wordpool.txt	LTP128	ltpFR	3	n/a	1	COLLEGE	346	n/a	1	n/a	n/a	n/a	n/a	n/a
4263.524	n/a	FFR_REC_WORD	2131762	wordpools/wasnorm_wordpool.txt	LTP128	ltpFR	3	n/a	0	SKATE	1313	n/a	0	n/a	n/a	n/a	n/a	n/a
4298.97	n/a	REC_START	2149485	n/a	LTP128	ltpFR	3	1	n/a	n/a	n/a	n/a	n/a	n/a	n/a	n/a	n/a	n/a
4299.004	n/a	RECOG_TARGET	2149502	n/a	LTP128	ltpFR	3	1	1	NET	946	5	0	n/a	n/a	n/a	n/a	n/a
4301.67	n/a	RECOG_RESP	2150835	n/a	LTP128	ltpFR	3	1	1	NET	946	n/a	0	n/a	n/a	n/a	n/a	n/a
4302.846	n/a	RECOG_CONF	2151423	n/a	LTP128	ltpFR	3	1	1	NET	946	5	0	n/a	n/a	n/a	n/a	n/a
4304.642	n/a	RECOG_LURE	2152321	n/a	LTP128	ltpFR	3	1	n/a	CHEESE	289	2	n/a	n/a	n/a	n/a	n/a	n/a
4309.024	n/a	RECOG_RESP	2154512	n/a	LTP128	ltpFR	3	1	n/a	CHEESE	289	n/a	n/a	n/a	n/a	n/a	n/a	n/a
4310.25	n/a	RECOG_CONF	2155125	n/a	LTP128	ltpFR	3	1	n/a	CHEESE	289	2	n/a	n/a	n/a	n/a	n/a	n/a
4311.942	n/a	RECOG_TARGET	2155971	n/a	LTP128	ltpFR	3	1	0	OTTER	986	5	0	n/a	n/a	n/a	n/a	n/a
4312.89	n/a	RECOG_RESP	2156445	n/a	LTP128	ltpFR	3	1	0	OTTER	986	n/a	0	n/a	n/a	n/a	n/a	n/a
4314.082	n/a	RECOG_CONF	2157041	n/a	LTP128	ltpFR	3	1	0	OTTER	986	5	0	n/a	n/a	n/a	n/a	n/a
4315.74	n/a	RECOG_TARGET	2157870	n/a	LTP128	ltpFR	3	1	0	SAND	1230	5	0	n/a	n/a	n/a	n/a	n/a
4316.476	n/a	RECOG_RESP	2158238	n/a	LTP128	ltpFR	3	1	0	SAND	1230	n/a	0	n/a	n/a	n/a	n/a	n/a
4317.604	n/a	RECOG_CONF	2158802	n/a	LTP128	ltpFR	3	1	0	SAND	1230	5	0	n/a	n/a	n/a	n/a	n/a
4319.248	n/a	RECOG_TARGET	2159624	n/a	LTP128	ltpFR	3	1	1	VAN	1548	1	0	n/a	n/a	n/a	n/a	n/a
4320.642	n/a	RECOG_RESP	2160321	n/a	LTP128	ltpFR	3	1	1	VAN	1548	n/a	0	n/a	n/a	n/a	n/a	n/a
4325.236	n/a	RECOG_CONF	2162618	n/a	LTP128	ltpFR	3	1	1	VAN	1548	1	0	n/a	n/a	n/a	n/a	n/a
4326.886	n/a	RECOG_LURE	2163443	n/a	LTP128	ltpFR	3	1	n/a	FRUIT	610	2	n/a	n/a	n/a	n/a	n/a	n/a
4331.898	n/a	RECOG_RESP	2165949	n/a	LTP128	ltpFR	3	1	n/a	FRUIT	610	n/a	n/a	n/a	n/a	n/a	n/a	n/a
4333.31	n/a	RECOG_CONF	2166655	n/a	LTP128	ltpFR	3	1	n/a	FRUIT	610	2	n/a	n/a	n/a	n/a	n/a	n/a
4334.91	n/a	RECOG_LURE	2167455	n/a	LTP128	ltpFR	3	1	n/a	SLUG	1329	3	n/a	n/a	n/a	n/a	n/a	n/a
4336.482	n/a	RECOG_RESP	2168241	n/a	LTP128	ltpFR	3	1	n/a	SLUG	1329	n/a	n/a	n/a	n/a	n/a	n/a	n/a
4338.498	n/a	RECOG_CONF	2169249	n/a	LTP128	ltpFR	3	1	n/a	SLUG	1329	3	n/a	n/a	n/a	n/a	n/a	n/a
4340.124	n/a	RECOG_LURE	2170062	n/a	LTP128	ltpFR	3	1	n/a	PRESIDENT	1121	3	n/a	n/a	n/a	n/a	n/a	n/a
4341.406	n/a	RECOG_RESP	2170703	n/a	LTP128	ltpFR	3	1	n/a	PRESIDENT	1121	n/a	n/a	n/a	n/a	n/a	n/a	n/a
4342.498	n/a	RECOG_CONF	2171249	n/a	LTP128	ltpFR	3	1	n/a	PRESIDENT	1121	3	n/a	n/a	n/a	n/a	n/a	n/a
4344.122	n/a	RECOG_TARGET	2172061	n/a	LTP128	ltpFR	3	1	1	LACE	792	3	0	n/a	n/a	n/a	n/a	n/a
4345.262	n/a	RECOG_RESP	2172631	n/a	LTP128	ltpFR	3	1	1	LACE	792	n/a	0	n/a	n/a	n/a	n/a	n/a
4346.5	n/a	RECOG_CONF	2173250	n/a	LTP128	ltpFR	3	1	1	LACE	792	3	0	n/a	n/a	n/a	n/a	n/a
4347.98	n/a	RECOG_TARGET	2173990	n/a	LTP128	ltpFR	3	1	1	MISSILE	900	4	0	n/a	n/a	n/a	n/a	n/a
4348.95	n/a	RECOG_RESP	2174475	n/a	LTP128	ltpFR	3	1	1	MISSILE	900	n/a	0	n/a	n/a	n/a	n/a	n/a
4350.112	n/a	RECOG_CONF	2175056	n/a	LTP128	ltpFR	3	1	1	MISSILE	900	4	0	n/a	n/a	n/a	n/a	n/a
4351.778	n/a	RECOG_TARGET	2175889	n/a	LTP128	ltpFR	3	1	0	FACE	547	5	0	n/a	n/a	n/a	n/a	n/a
4353.25	n/a	RECOG_RESP	2176625	n/a	LTP128	ltpFR	3	1	0	FACE	547	n/a	0	n/a	n/a	n/a	n/a	n/a
4355.22	n/a	RECOG_CONF	2177610	n/a	LTP128	ltpFR	3	1	0	FACE	547	5	0	n/a	n/a	n/a	n/a	n/a
4359.31	n/a	RECOG_LURE	2179655	n/a	LTP128	ltpFR	3	1	n/a	PAN	1008	n/a	n/a	n/a	n/a	n/a	n/a	n/a
4362.918	n/a	RECOG_RESP_VV	2181459	n/a	LTP128	ltpFR	3	1	n/a	PAN	1008	n/a	n/a	n/a	n/a	n/a	n/a	n/a
4364.964	n/a	RECOG_RESP	2182482	n/a	LTP128	ltpFR	3	1	n/a	PAN	1008	n/a	n/a	n/a	n/a	n/a	n/a	n/a
4366.616	n/a	RECOG_TARGET	2183308	n/a	LTP128	ltpFR	3	1	0	RECORD	1176	5	0	n/a	n/a	n/a	n/a	n/a
4367.588	n/a	RECOG_RESP	2183794	n/a	LTP128	ltpFR	3	1	0	RECORD	1176	n/a	0	n/a	n/a	n/a	n/a	n/a
4368.632	n/a	RECOG_CONF	2184316	n/a	LTP128	ltpFR	3	1	0	RECORD	1176	5	0	n/a	n/a	n/a	n/a	n/a
4370.216	n/a	RECOG_LURE	2185108	n/a	LTP128	ltpFR	3	1	n/a	THUMB	1462	3	n/a	n/a	n/a	n/a	n/a	n/a
4371.788	n/a	RECOG_RESP	2185894	n/a	LTP128	ltpFR	3	1	n/a	THUMB	1462	n/a	n/a	n/a	n/a	n/a	n/a	n/a
4373.012	n/a	RECOG_CONF	2186506	n/a	LTP128	ltpFR	3	1	n/a	THUMB	1462	3	n/a	n/a	n/a	n/a	n/a	n/a
4374.496	n/a	RECOG_TARGET	2187248	n/a	LTP128	ltpFR	3	1	1	NOMAD	955	3	1	n/a	n/a	n/a	n/a	n/a
4375.854	n/a	RECOG_RESP	2187927	n/a	LTP128	ltpFR	3	1	1	NOMAD	955	n/a	1	n/a	n/a	n/a	n/a	n/a
4376.972	n/a	RECOG_CONF	2188486	n/a	LTP128	ltpFR	3	1	1	NOMAD	955	3	1	n/a	n/a	n/a	n/a	n/a
4378.554	n/a	RECOG_TARGET	2189277	n/a	LTP128	ltpFR	3	1	-1	SYRUP	1425	5	-1	n/a	n/a	n/a	n/a	n/a
4379.676	n/a	RECOG_RESP	2189838	n/a	LTP128	ltpFR	3	1	-1	SYRUP	1425	n/a	-1	n/a	n/a	n/a	n/a	n/a
4380.962	n/a	RECOG_CONF	2190481	n/a	LTP128	ltpFR	3	1	-1	SYRUP	1425	5	-1	n/a	n/a	n/a	n/a	n/a
4382.56	n/a	RECOG_TARGET	2191280	n/a	LTP128	ltpFR	3	1	-1	HEATER	698	5	-1	n/a	n/a	n/a	n/a	n/a
4384.08	n/a	RECOG_RESP	2192040	n/a	LTP128	ltpFR	3	1	-1	HEATER	698	n/a	-1	n/a	n/a	n/a	n/a	n/a
4385.404	n/a	RECOG_CONF	2192702	n/a	LTP128	ltpFR	3	1	-1	HEATER	698	5	-1	n/a	n/a	n/a	n/a	n/a
4387.086	n/a	RECOG_TARGET	2193543	n/a	LTP128	ltpFR	3	1	0	MANAGER	863	5	1	n/a	n/a	n/a	n/a	n/a
4387.838	n/a	RECOG_RESP	2193919	n/a	LTP128	ltpFR	3	1	0	MANAGER	863	n/a	1	n/a	n/a	n/a	n/a	n/a
4388.786	n/a	RECOG_CONF	2194393	n/a	LTP128	ltpFR	3	1	0	MANAGER	863	5	1	n/a	n/a	n/a	n/a	n/a
4390.41	n/a	RECOG_TARGET	2195205	n/a	LTP128	ltpFR	3	1	-1	ASPIRIN	47	5	-1	n/a	n/a	n/a	n/a	n/a
4391.056	n/a	RECOG_RESP	2195528	n/a	LTP128	ltpFR	3	1	-1	ASPIRIN	47	n/a	-1	n/a	n/a	n/a	n/a	n/a
4392.088	n/a	RECOG_CONF	2196044	n/a	LTP128	ltpFR	3	1	-1	ASPIRIN	47	5	-1	n/a	n/a	n/a	n/a	n/a
4393.632	n/a	RECOG_LURE	2196816	n/a	LTP128	ltpFR	3	1	n/a	YACHT	1629	3	n/a	n/a	n/a	n/a	n/a	n/a
4395.126	n/a	RECOG_RESP	2197563	n/a	LTP128	ltpFR	3	1	n/a	YACHT	1629	n/a	n/a	n/a	n/a	n/a	n/a	n/a
4396.818	n/a	RECOG_CONF	2198409	n/a	LTP128	ltpFR	3	1	n/a	YACHT	1629	3	n/a	n/a	n/a	n/a	n/a	n/a
4405.44	n/a	REC_START	2202720	n/a	LTP128	ltpFR	3	2	n/a	n/a	n/a	n/a	n/a	n/a	n/a	n/a	n/a	n/a
4405.47	n/a	RECOG_LURE	2202735	n/a	LTP128	ltpFR	3	2	n/a	PUMP	1141	3	n/a	n/a	n/a	n/a	n/a	n/a
4406.536	n/a	RECOG_RESP	2203268	n/a	LTP128	ltpFR	3	2	n/a	PUMP	1141	n/a	n/a	n/a	n/a	n/a	n/a	n/a
4407.57	n/a	RECOG_CONF	2203785	n/a	LTP128	ltpFR	3	2	n/a	PUMP	1141	3	n/a	n/a	n/a	n/a	n/a	n/a
4409.128	n/a	RECOG_TARGET	2204564	n/a	LTP128	ltpFR	3	2	1	ROOSTER	1209	5	1	n/a	n/a	n/a	n/a	n/a
4409.914	n/a	RECOG_RESP	2204957	n/a	LTP128	ltpFR	3	2	1	ROOSTER	1209	n/a	1	n/a	n/a	n/a	n/a	n/a
4410.972	n/a	RECOG_CONF	2205486	n/a	LTP128	ltpFR	3	2	1	ROOSTER	1209	5	1	n/a	n/a	n/a	n/a	n/a
4412.576	n/a	RECOG_TARGET	2206288	n/a	LTP128	ltpFR	3	2	1	HAT	690	3	0	n/a	n/a	n/a	n/a	n/a
4413.974	n/a	RECOG_RESP	2206987	n/a	LTP128	ltpFR	3	2	1	HAT	690	n/a	0	n/a	n/a	n/a	n/a	n/a
4415.142	n/a	RECOG_CONF	2207571	n/a	LTP128	ltpFR	3	2	1	HAT	690	3	0	n/a	n/a	n/a	n/a	n/a
4416.6	n/a	RECOG_TARGET	2208300	n/a	LTP128	ltpFR	3	2	0	RADIATOR	1156	5	0	n/a	n/a	n/a	n/a	n/a
4417.492	n/a	RECOG_RESP	2208746	n/a	LTP128	ltpFR	3	2	0	RADIATOR	1156	n/a	0	n/a	n/a	n/a	n/a	n/a
4418.534	n/a	RECOG_CONF	2209267	n/a	LTP128	ltpFR	3	2	0	RADIATOR	1156	5	0	n/a	n/a	n/a	n/a	n/a
4420.174	n/a	RECOG_TARGET	2210087	n/a	LTP128	ltpFR	3	2	-1	MAT	877	5	-1	n/a	n/a	n/a	n/a	n/a
4421.284	n/a	RECOG_RESP	2210642	n/a	LTP128	ltpFR	3	2	-1	MAT	877	n/a	-1	n/a	n/a	n/a	n/a	n/a
4422.336	n/a	RECOG_CONF	2211168	n/a	LTP128	ltpFR	3	2	-1	MAT	877	5	-1	n/a	n/a	n/a	n/a	n/a
4423.832	n/a	RECOG_TARGET	2211916	n/a	LTP128	ltpFR	3	2	1	WHEEL	1603	3	n/a	n/a	n/a	n/a	n/a	n/a
4426.648	n/a	RECOG_RESP	2213324	n/a	LTP128	ltpFR	3	2	1	WHEEL	1603	n/a	n/a	n/a	n/a	n/a	n/a	n/a
4428.204	n/a	RECOG_CONF	2214102	n/a	LTP128	ltpFR	3	2	1	WHEEL	1603	3	n/a	n/a	n/a	n/a	n/a	n/a
4429.788	n/a	RECOG_TARGET	2214894	n/a	LTP128	ltpFR	3	2	0	LAKE	796	5	1	n/a	n/a	n/a	n/a	n/a
4432.434	n/a	RECOG_RESP	2216217	n/a	LTP128	ltpFR	3	2	0	LAKE	796	n/a	1	n/a	n/a	n/a	n/a	n/a
4433.412	n/a	RECOG_CONF	2216706	n/a	LTP128	ltpFR	3	2	0	LAKE	796	5	1	n/a	n/a	n/a	n/a	n/a
4435.22	n/a	RECOG_TARGET	2217610	n/a	LTP128	ltpFR	3	2	0	QUILT	1151	5	1	n/a	n/a	n/a	n/a	n/a
4435.996	n/a	RECOG_RESP	2217998	n/a	LTP128	ltpFR	3	2	0	QUILT	1151	n/a	1	n/a	n/a	n/a	n/a	n/a
4437.204	n/a	RECOG_CONF	2218602	n/a	LTP128	ltpFR	3	2	0	QUILT	1151	5	1	n/a	n/a	n/a	n/a	n/a
4438.718	n/a	RECOG_LURE	2219359	n/a	LTP128	ltpFR	3	2	n/a	LITERATURE	831	3	n/a	n/a	n/a	n/a	n/a	n/a
4440.176	n/a	RECOG_RESP	2220088	n/a	LTP128	ltpFR	3	2	n/a	LITERATURE	831	n/a	n/a	n/a	n/a	n/a	n/a	n/a
4441.264	n/a	RECOG_CONF	2220632	n/a	LTP128	ltpFR	3	2	n/a	LITERATURE	831	3	n/a	n/a	n/a	n/a	n/a	n/a
4442.76	n/a	RECOG_TARGET	2221380	n/a	LTP128	ltpFR	3	2	-1	HIKER	708	5	-1	n/a	n/a	n/a	n/a	n/a
4443.614	n/a	RECOG_RESP	2221807	n/a	LTP128	ltpFR	3	2	-1	HIKER	708	n/a	-1	n/a	n/a	n/a	n/a	n/a
4444.688	n/a	RECOG_CONF	2222344	n/a	LTP128	ltpFR	3	2	-1	HIKER	708	5	-1	n/a	n/a	n/a	n/a	n/a
4446.376	n/a	RECOG_TARGET	2223188	n/a	LTP128	ltpFR	3	2	0	UNIFORM	1539	2	0	n/a	n/a	n/a	n/a	n/a
4449.118	n/a	RECOG_RESP	2224559	n/a	LTP128	ltpFR	3	2	0	UNIFORM	1539	n/a	0	n/a	n/a	n/a	n/a	n/a
4450.364	n/a	RECOG_CONF	2225182	n/a	LTP128	ltpFR	3	2	0	UNIFORM	1539	2	0	n/a	n/a	n/a	n/a	n/a
4451.958	n/a	RECOG_LURE	2225979	n/a	LTP128	ltpFR	3	2	n/a	TRICYCLE	1506	3	n/a	n/a	n/a	n/a	n/a	n/a
4454.28	n/a	RECOG_RESP	2227140	n/a	LTP128	ltpFR	3	2	n/a	TRICYCLE	1506	n/a	n/a	n/a	n/a	n/a	n/a	n/a
4455.332	n/a	RECOG_CONF	2227666	n/a	LTP128	ltpFR	3	2	n/a	TRICYCLE	1506	3	n/a	n/a	n/a	n/a	n/a	n/a
4456.938	n/a	RECOG_TARGET	2228469	n/a	LTP128	ltpFR	3	2	1	FLORIDA	582	5	0	n/a	n/a	n/a	n/a	n/a
4457.882	n/a	RECOG_RESP	2228941	n/a	LTP128	ltpFR	3	2	1	FLORIDA	582	n/a	0	n/a	n/a	n/a	n/a	n/a
4458.844	n/a	RECOG_CONF	2229422	n/a	LTP128	ltpFR	3	2	1	FLORIDA	582	5	0	n/a	n/a	n/a	n/a	n/a
4460.38	n/a	RECOG_LURE	2230190	n/a	LTP128	ltpFR	3	2	n/a	BRAKE	166	3	n/a	n/a	n/a	n/a	n/a	n/a
4461.704	n/a	RECOG_RESP	2230852	n/a	LTP128	ltpFR	3	2	n/a	BRAKE	166	n/a	n/a	n/a	n/a	n/a	n/a	n/a
4462.768	n/a	RECOG_CONF	2231384	n/a	LTP128	ltpFR	3	2	n/a	BRAKE	166	3	n/a	n/a	n/a	n/a	n/a	n/a
4464.278	n/a	RECOG_TARGET	2232139	n/a	LTP128	ltpFR	3	2	-1	FUNGUS	614	5	-1	n/a	n/a	n/a	n/a	n/a
4465.142	n/a	RECOG_RESP	2232571	n/a	LTP128	ltpFR	3	2	-1	FUNGUS	614	n/a	-1	n/a	n/a	n/a	n/a	n/a
4466.18	n/a	RECOG_CONF	2233090	n/a	LTP128	ltpFR	3	2	-1	FUNGUS	614	5	-1	n/a	n/a	n/a	n/a	n/a
4467.684	n/a	RECOG_TARGET	2233842	n/a	LTP128	ltpFR	3	2	-1	VINE	1568	5	-1	n/a	n/a	n/a	n/a	n/a
4468.538	n/a	RECOG_RESP	2234269	n/a	LTP128	ltpFR	3	2	-1	VINE	1568	n/a	-1	n/a	n/a	n/a	n/a	n/a
4469.542	n/a	RECOG_CONF	2234771	n/a	LTP128	ltpFR	3	2	-1	VINE	1568	5	-1	n/a	n/a	n/a	n/a	n/a
4471.118	n/a	RECOG_LURE	2235559	n/a	LTP128	ltpFR	3	2	n/a	ASTEROID	50	4	n/a	n/a	n/a	n/a	n/a	n/a
4474.176	n/a	RECOG_RESP	2237088	n/a	LTP128	ltpFR	3	2	n/a	ASTEROID	50	n/a	n/a	n/a	n/a	n/a	n/a	n/a
4475.558	n/a	RECOG_CONF	2237779	n/a	LTP128	ltpFR	3	2	n/a	ASTEROID	50	4	n/a	n/a	n/a	n/a	n/a	n/a
4477.166	n/a	RECOG_TARGET	2238583	n/a	LTP128	ltpFR	3	2	0	ISLAND	745	1	1	n/a	n/a	n/a	n/a	n/a
4483.312	n/a	RECOG_RESP	2241656	n/a	LTP128	ltpFR	3	2	0	ISLAND	745	n/a	1	n/a	n/a	n/a	n/a	n/a
4485.038	n/a	RECOG_CONF	2242519	n/a	LTP128	ltpFR	3	2	0	ISLAND	745	1	1	n/a	n/a	n/a	n/a	n/a
4486.838	n/a	RECOG_TARGET	2243419	n/a	LTP128	ltpFR	3	2	-1	SUIT	1402	5	-1	n/a	n/a	n/a	n/a	n/a
4487.792	n/a	RECOG_RESP	2243896	n/a	LTP128	ltpFR	3	2	-1	SUIT	1402	n/a	-1	n/a	n/a	n/a	n/a	n/a
4488.53	n/a	RECOG_CONF	2244265	n/a	LTP128	ltpFR	3	2	-1	SUIT	1402	5	-1	n/a	n/a	n/a	n/a	n/a
4490.154	n/a	RECOG_LURE	2245077	n/a	LTP128	ltpFR	3	2	n/a	FLAG	573	3	n/a	n/a	n/a	n/a	n/a	n/a
4493.678	n/a	RECOG_RESP	2246839	n/a	LTP128	ltpFR	3	2	n/a	FLAG	573	n/a	n/a	n/a	n/a	n/a	n/a	n/a
4494.706	n/a	RECOG_CONF	2247353	n/a	LTP128	ltpFR	3	2	n/a	FLAG	573	3	n/a	n/a	n/a	n/a	n/a	n/a
4498.428	n/a	REC_START	2249214	n/a	LTP128	ltpFR	3	3	n/a	n/a	n/a	n/a	n/a	n/a	n/a	n/a	n/a	n/a
4498.458	n/a	RECOG_TARGET	2249229	n/a	LTP128	ltpFR	3	3	1	TRUCK	1512	5	0	n/a	n/a	n/a	n/a	n/a
4499.816	n/a	RECOG_RESP	2249908	n/a	LTP128	ltpFR	3	3	1	TRUCK	1512	n/a	0	n/a	n/a	n/a	n/a	n/a
4501.108	n/a	RECOG_CONF	2250554	n/a	LTP128	ltpFR	3	3	1	TRUCK	1512	5	0	n/a	n/a	n/a	n/a	n/a
4502.616	n/a	RECOG_TARGET	2251308	n/a	LTP128	ltpFR	3	3	-1	POT	1114	5	-1	n/a	n/a	n/a	n/a	n/a
4503.314	n/a	RECOG_RESP	2251657	n/a	LTP128	ltpFR	3	3	-1	POT	1114	n/a	-1	n/a	n/a	n/a	n/a	n/a
4504.49	n/a	RECOG_CONF	2252245	n/a	LTP128	ltpFR	3	3	-1	POT	1114	5	-1	n/a	n/a	n/a	n/a	n/a
4506.092	n/a	RECOG_TARGET	2253046	n/a	LTP128	ltpFR	3	3	-1	FURNITURE	616	5	-1	n/a	n/a	n/a	n/a	n/a
4506.886	n/a	RECOG_RESP	2253443	n/a	LTP128	ltpFR	3	3	-1	FURNITURE	616	n/a	-1	n/a	n/a	n/a	n/a	n/a
4507.852	n/a	RECOG_CONF	2253926	n/a	LTP128	ltpFR	3	3	-1	FURNITURE	616	5	-1	n/a	n/a	n/a	n/a	n/a
4509.406	n/a	RECOG_TARGET	2254703	n/a	LTP128	ltpFR	3	3	0	POISON	1096	2	0	n/a	n/a	n/a	n/a	n/a
4514.452	n/a	RECOG_RESP	2257226	n/a	LTP128	ltpFR	3	3	0	POISON	1096	n/a	0	n/a	n/a	n/a	n/a	n/a
4515.646	n/a	RECOG_CONF	2257823	n/a	LTP128	ltpFR	3	3	0	POISON	1096	2	0	n/a	n/a	n/a	n/a	n/a
4517.204	n/a	RECOG_TARGET	2258602	n/a	LTP128	ltpFR	3	3	-1	SWEATER	1419	5	-1	n/a	n/a	n/a	n/a	n/a
4518.554	n/a	RECOG_RESP	2259277	n/a	LTP128	ltpFR	3	3	-1	SWEATER	1419	n/a	-1	n/a	n/a	n/a	n/a	n/a
4519.538	n/a	RECOG_CONF	2259769	n/a	LTP128	ltpFR	3	3	-1	SWEATER	1419	5	-1	n/a	n/a	n/a	n/a	n/a
4521.036	n/a	RECOG_TARGET	2260518	n/a	LTP128	ltpFR	3	3	1	FOX	598	5	1	n/a	n/a	n/a	n/a	n/a
4522.96	n/a	RECOG_RESP	2261480	n/a	LTP128	ltpFR	3	3	1	FOX	598	n/a	1	n/a	n/a	n/a	n/a	n/a
4524.018	n/a	RECOG_CONF	2262009	n/a	LTP128	ltpFR	3	3	1	FOX	598	5	1	n/a	n/a	n/a	n/a	n/a
4525.568	n/a	RECOG_TARGET	2262784	n/a	LTP128	ltpFR	3	3	0	STAPLER	1372	5	0	n/a	n/a	n/a	n/a	n/a
4526.446	n/a	RECOG_RESP	2263223	n/a	LTP128	ltpFR	3	3	0	STAPLER	1372	n/a	0	n/a	n/a	n/a	n/a	n/a
4527.52	n/a	RECOG_CONF	2263760	n/a	LTP128	ltpFR	3	3	0	STAPLER	1372	5	0	n/a	n/a	n/a	n/a	n/a
4529.134	n/a	RECOG_TARGET	2264567	n/a	LTP128	ltpFR	3	3	0	PRINCE	1124	5	1	n/a	n/a	n/a	n/a	n/a
4529.988	n/a	RECOG_RESP	2264994	n/a	LTP128	ltpFR	3	3	0	PRINCE	1124	n/a	1	n/a	n/a	n/a	n/a	n/a
4531.042	n/a	RECOG_CONF	2265521	n/a	LTP128	ltpFR	3	3	0	PRINCE	1124	5	1	n/a	n/a	n/a	n/a	n/a
4532.556	n/a	RECOG_TARGET	2266278	n/a	LTP128	ltpFR	3	3	-1	CHAMPION	279	5	-1	n/a	n/a	n/a	n/a	n/a
4533.302	n/a	RECOG_RESP	2266651	n/a	LTP128	ltpFR	3	3	-1	CHAMPION	279	n/a	-1	n/a	n/a	n/a	n/a	n/a
4534.374	n/a	RECOG_CONF	2267187	n/a	LTP128	ltpFR	3	3	-1	CHAMPION	279	5	-1	n/a	n/a	n/a	n/a	n/a
4535.78	n/a	RECOG_LURE	2267890	n/a	LTP128	ltpFR	3	3	n/a	ZEBRA	1635	3	n/a	n/a	n/a	n/a	n/a	n/a
4536.798	n/a	RECOG_RESP	2268399	n/a	LTP128	ltpFR	3	3	n/a	ZEBRA	1635	n/a	n/a	n/a	n/a	n/a	n/a	n/a
4538.434	n/a	RECOG_CONF	2269217	n/a	LTP128	ltpFR	3	3	n/a	ZEBRA	1635	3	n/a	n/a	n/a	n/a	n/a	n/a
4540.014	n/a	RECOG_TARGET	2270007	n/a	LTP128	ltpFR	3	3	-1	RACCOON	1153	5	-1	n/a	n/a	n/a	n/a	n/a
4540.75	n/a	RECOG_RESP	2270375	n/a	LTP128	ltpFR	3	3	-1	RACCOON	1153	n/a	-1	n/a	n/a	n/a	n/a	n/a
4541.768	n/a	RECOG_CONF	2270884	n/a	LTP128	ltpFR	3	3	-1	RACCOON	1153	5	-1	n/a	n/a	n/a	n/a	n/a
4543.314	n/a	RECOG_TARGET	2271657	n/a	LTP128	ltpFR	3	3	1	STRAW	1390	5	0	n/a	n/a	n/a	n/a	n/a
4544.93	n/a	RECOG_RESP	2272465	n/a	LTP128	ltpFR	3	3	1	STRAW	1390	n/a	0	n/a	n/a	n/a	n/a	n/a
4545.788	n/a	RECOG_CONF	2272894	n/a	LTP128	ltpFR	3	3	1	STRAW	1390	5	0	n/a	n/a	n/a	n/a	n/a
4547.312	n/a	RECOG_TARGET	2273656	n/a	LTP128	ltpFR	3	3	0	NAIL	936	5	0	n/a	n/a	n/a	n/a	n/a
4548.234	n/a	RECOG_RESP	2274117	n/a	LTP128	ltpFR	3	3	0	NAIL	936	n/a	0	n/a	n/a	n/a	n/a	n/a
4549.112	n/a	RECOG_CONF	2274556	n/a	LTP128	ltpFR	3	3	0	NAIL	936	5	0	n/a	n/a	n/a	n/a	n/a
4550.61	n/a	RECOG_TARGET	2275305	n/a	LTP128	ltpFR	3	3	0	SIDEWALK	1303	5	1	n/a	n/a	n/a	n/a	n/a
4553.476	n/a	RECOG_RESP	2276738	n/a	LTP128	ltpFR	3	3	0	SIDEWALK	1303	n/a	1	n/a	n/a	n/a	n/a	n/a
4554.678	n/a	RECOG_CONF	2277339	n/a	LTP128	ltpFR	3	3	0	SIDEWALK	1303	5	1	n/a	n/a	n/a	n/a	n/a
4556.308	n/a	RECOG_LURE	2278154	n/a	LTP128	ltpFR	3	3	n/a	TROUSERS	1510	4	n/a	n/a	n/a	n/a	n/a	n/a
4557.412	n/a	RECOG_RESP	2278706	n/a	LTP128	ltpFR	3	3	n/a	TROUSERS	1510	n/a	n/a	n/a	n/a	n/a	n/a	n/a
4558.54	n/a	RECOG_CONF	2279270	n/a	LTP128	ltpFR	3	3	n/a	TROUSERS	1510	4	n/a	n/a	n/a	n/a	n/a	n/a
4559.95	n/a	RECOG_TARGET	2279975	n/a	LTP128	ltpFR	3	3	1	CAULIFLOWER	262	5	0	n/a	n/a	n/a	n/a	n/a
4560.8	n/a	RECOG_RESP	2280400	n/a	LTP128	ltpFR	3	3	1	CAULIFLOWER	262	n/a	0	n/a	n/a	n/a	n/a	n/a
4561.804	n/a	RECOG_CONF	2280902	n/a	LTP128	ltpFR	3	3	1	CAULIFLOWER	262	5	0	n/a	n/a	n/a	n/a	n/a
4563.374	n/a	RECOG_TARGET	2281687	n/a	LTP128	ltpFR	3	3	0	COMPANION	357	3	1	n/a	n/a	n/a	n/a	n/a
4565.21	n/a	RECOG_RESP	2282605	n/a	LTP128	ltpFR	3	3	0	COMPANION	357	n/a	1	n/a	n/a	n/a	n/a	n/a
4566.332	n/a	RECOG_CONF	2283166	n/a	LTP128	ltpFR	3	3	0	COMPANION	357	3	1	n/a	n/a	n/a	n/a	n/a
4567.638	n/a	RECOG_TARGET	2283819	n/a	LTP128	ltpFR	3	3	1	FOREHEAD	592	5	0	n/a	n/a	n/a	n/a	n/a
4568.438	n/a	RECOG_RESP	2284219	n/a	LTP128	ltpFR	3	3	1	FOREHEAD	592	n/a	0	n/a	n/a	n/a	n/a	n/a
4569.356	n/a	RECOG_CONF	2284678	n/a	LTP128	ltpFR	3	3	1	FOREHEAD	592	5	0	n/a	n/a	n/a	n/a	n/a
4570.746	n/a	RECOG_TARGET	2285373	n/a	LTP128	ltpFR	3	3	0	MARSH	874	5	1	n/a	n/a	n/a	n/a	n/a
4571.73	n/a	RECOG_RESP	2285865	n/a	LTP128	ltpFR	3	3	0	MARSH	874	n/a	1	n/a	n/a	n/a	n/a	n/a
4572.698	n/a	RECOG_CONF	2286349	n/a	LTP128	ltpFR	3	3	0	MARSH	874	5	1	n/a	n/a	n/a	n/a	n/a
4574.094	n/a	RECOG_TARGET	2287047	n/a	LTP128	ltpFR	3	3	1	DRAWING	494	2	0	n/a	n/a	n/a	n/a	n/a
4575.162	n/a	RECOG_RESP	2287581	n/a	LTP128	ltpFR	3	3	1	DRAWING	494	n/a	0	n/a	n/a	n/a	n/a	n/a
4577.488	n/a	RECOG_CONF	2288744	n/a	LTP128	ltpFR	3	3	1	DRAWING	494	2	0	n/a	n/a	n/a	n/a	n/a
4581.692	n/a	REC_START	2290846	n/a	LTP128	ltpFR	3	4	n/a	n/a	n/a	n/a	n/a	n/a	n/a	n/a	n/a	n/a
4581.726	n/a	RECOG_TARGET	2290863	n/a	LTP128	ltpFR	3	4	0	ERASER	538	5	0	n/a	n/a	n/a	n/a	n/a
4582.584	n/a	RECOG_RESP	2291292	n/a	LTP128	ltpFR	3	4	0	ERASER	538	n/a	0	n/a	n/a	n/a	n/a	n/a
4583.652	n/a	RECOG_CONF	2291826	n/a	LTP128	ltpFR	3	4	0	ERASER	538	5	0	n/a	n/a	n/a	n/a	n/a
4585.218	n/a	RECOG_TARGET	2292609	n/a	LTP128	ltpFR	3	4	0	JEWEL	757	2	0	n/a	n/a	n/a	n/a	n/a
4592.94	n/a	RECOG_RESP	2296470	n/a	LTP128	ltpFR	3	4	0	JEWEL	757	n/a	0	n/a	n/a	n/a	n/a	n/a
4594.218	n/a	RECOG_CONF	2297109	n/a	LTP128	ltpFR	3	4	0	JEWEL	757	2	0	n/a	n/a	n/a	n/a	n/a
4595.87	n/a	RECOG_TARGET	2297935	n/a	LTP128	ltpFR	3	4	-1	TIE	1466	5	-1	n/a	n/a	n/a	n/a	n/a
4597.128	n/a	RECOG_RESP	2298564	n/a	LTP128	ltpFR	3	4	-1	TIE	1466	n/a	-1	n/a	n/a	n/a	n/a	n/a
4598.08	n/a	RECOG_CONF	2299040	n/a	LTP128	ltpFR	3	4	-1	TIE	1466	5	-1	n/a	n/a	n/a	n/a	n/a
4599.654	n/a	RECOG_LURE	2299827	n/a	LTP128	ltpFR	3	4	n/a	TREASURE	1500	3	n/a	n/a	n/a	n/a	n/a	n/a
4601.816	n/a	RECOG_RESP	2300908	n/a	LTP128	ltpFR	3	4	n/a	TREASURE	1500	n/a	n/a	n/a	n/a	n/a	n/a	n/a
4603.008	n/a	RECOG_CONF	2301504	n/a	LTP128	ltpFR	3	4	n/a	TREASURE	1500	3	n/a	n/a	n/a	n/a	n/a	n/a
4604.486	n/a	RECOG_TARGET	2302243	n/a	LTP128	ltpFR	3	4	1	CREAM	402	5	0	n/a	n/a	n/a	n/a	n/a
4605.564	n/a	RECOG_RESP	2302782	n/a	LTP128	ltpFR	3	4	1	CREAM	402	n/a	0	n/a	n/a	n/a	n/a	n/a
4606.64	n/a	RECOG_CONF	2303320	n/a	LTP128	ltpFR	3	4	1	CREAM	402	5	0	n/a	n/a	n/a	n/a	n/a
4608.034	n/a	RECOG_LURE	2304017	n/a	LTP128	ltpFR	3	4	n/a	CALF	222	3	n/a	n/a	n/a	n/a	n/a	n/a
4610.426	n/a	RECOG_RESP	2305213	n/a	LTP128	ltpFR	3	4	n/a	CALF	222	n/a	n/a	n/a	n/a	n/a	n/a	n/a
4611.68	n/a	RECOG_CONF	2305840	n/a	LTP128	ltpFR	3	4	n/a	CALF	222	3	n/a	n/a	n/a	n/a	n/a	n/a
4614.008	n/a	RECOG_TARGET	2307004	n/a	LTP128	ltpFR	3	4	0	SKIRT	1319	5	0	n/a	n/a	n/a	n/a	n/a
4614.886	n/a	RECOG_RESP	2307443	n/a	LTP128	ltpFR	3	4	0	SKIRT	1319	n/a	0	n/a	n/a	n/a	n/a	n/a
4615.92	n/a	RECOG_CONF	2307960	n/a	LTP128	ltpFR	3	4	0	SKIRT	1319	5	0	n/a	n/a	n/a	n/a	n/a
4617.266	n/a	RECOG_LURE	2308633	n/a	LTP128	ltpFR	3	4	n/a	LETTER	813	2	n/a	n/a	n/a	n/a	n/a	n/a
4619.362	n/a	RECOG_RESP	2309681	n/a	LTP128	ltpFR	3	4	n/a	LETTER	813	n/a	n/a	n/a	n/a	n/a	n/a	n/a
4621.078	n/a	RECOG_CONF	2310539	n/a	LTP128	ltpFR	3	4	n/a	LETTER	813	2	n/a	n/a	n/a	n/a	n/a	n/a
4622.588	n/a	RECOG_TARGET	2311294	n/a	LTP128	ltpFR	3	4	-1	RAZOR	1171	4	-1	n/a	n/a	n/a	n/a	n/a
4626.502	n/a	RECOG_RESP	2313251	n/a	LTP128	ltpFR	3	4	-1	RAZOR	1171	n/a	-1	n/a	n/a	n/a	n/a	n/a
4627.684	n/a	RECOG_CONF	2313842	n/a	LTP128	ltpFR	3	4	-1	RAZOR	1171	4	-1	n/a	n/a	n/a	n/a	n/a
4629.346	n/a	RECOG_TARGET	2314673	n/a	LTP128	ltpFR	3	4	-1	PRODUCER	1129	5	-1	n/a	n/a	n/a	n/a	n/a
4630.204	n/a	RECOG_RESP	2315102	n/a	LTP128	ltpFR	3	4	-1	PRODUCER	1129	n/a	-1	n/a	n/a	n/a	n/a	n/a
4631.216	n/a	RECOG_CONF	2315608	n/a	LTP128	ltpFR	3	4	-1	PRODUCER	1129	5	-1	n/a	n/a	n/a	n/a	n/a
4632.884	n/a	RECOG_TARGET	2316442	n/a	LTP128	ltpFR	3	4	0	DILL	465	5	0	n/a	n/a	n/a	n/a	n/a
4633.62	n/a	RECOG_RESP	2316810	n/a	LTP128	ltpFR	3	4	0	DILL	465	n/a	0	n/a	n/a	n/a	n/a	n/a
4634.62	n/a	RECOG_CONF	2317310	n/a	LTP128	ltpFR	3	4	0	DILL	465	5	0	n/a	n/a	n/a	n/a	n/a
4636.168	n/a	RECOG_TARGET	2318084	n/a	LTP128	ltpFR	3	4	1	CROW	414	5	1	n/a	n/a	n/a	n/a	n/a
4636.8	n/a	RECOG_RESP	2318400	n/a	LTP128	ltpFR	3	4	1	CROW	414	n/a	1	n/a	n/a	n/a	n/a	n/a
4637.732	n/a	RECOG_CONF	2318866	n/a	LTP128	ltpFR	3	4	1	CROW	414	5	1	n/a	n/a	n/a	n/a	n/a
4639.26	n/a	RECOG_TARGET	2319630	n/a	LTP128	ltpFR	3	4	0	OFFICER	973	2	1	n/a	n/a	n/a	n/a	n/a
4644.96	n/a	RECOG_RESP	2322480	n/a	LTP128	ltpFR	3	4	0	OFFICER	973	n/a	1	n/a	n/a	n/a	n/a	n/a
4649.106	n/a	RECOG_CONF	2324553	n/a	LTP128	ltpFR	3	4	0	OFFICER	973	2	1	n/a	n/a	n/a	n/a	n/a
4650.854	n/a	RECOG_TARGET	2325427	n/a	LTP128	ltpFR	3	4	-1	ANCHOR	21	3	-1	n/a	n/a	n/a	n/a	n/a
4652.318	n/a	RECOG_RESP	2326159	n/a	LTP128	ltpFR	3	4	-1	ANCHOR	21	n/a	-1	n/a	n/a	n/a	n/a	n/a
4653.716	n/a	RECOG_CONF	2326858	n/a	LTP128	ltpFR	3	4	-1	ANCHOR	21	3	-1	n/a	n/a	n/a	n/a	n/a
4655.204	n/a	RECOG_TARGET	2327602	n/a	LTP128	ltpFR	3	4	-1	CELLO	268	5	-1	n/a	n/a	n/a	n/a	n/a
4656.142	n/a	RECOG_RESP	2328071	n/a	LTP128	ltpFR	3	4	-1	CELLO	268	n/a	-1	n/a	n/a	n/a	n/a	n/a
4657.348	n/a	RECOG_CONF	2328674	n/a	LTP128	ltpFR	3	4	-1	CELLO	268	5	-1	n/a	n/a	n/a	n/a	n/a
4658.978	n/a	RECOG_LURE	2329489	n/a	LTP128	ltpFR	3	4	n/a	SENATOR	1268	3	n/a	n/a	n/a	n/a	n/a	n/a
4660.162	n/a	RECOG_RESP	2330081	n/a	LTP128	ltpFR	3	4	n/a	SENATOR	1268	n/a	n/a	n/a	n/a	n/a	n/a	n/a
4661.488	n/a	RECOG_CONF	2330744	n/a	LTP128	ltpFR	3	4	n/a	SENATOR	1268	3	n/a	n/a	n/a	n/a	n/a	n/a
4662.968	n/a	RECOG_LURE	2331484	n/a	LTP128	ltpFR	3	4	n/a	FIGHTER	564	3	n/a	n/a	n/a	n/a	n/a	n/a
4665.844	n/a	RECOG_RESP	2332922	n/a	LTP128	ltpFR	3	4	n/a	FIGHTER	564	n/a	n/a	n/a	n/a	n/a	n/a	n/a
4667.166	n/a	RECOG_CONF	2333583	n/a	LTP128	ltpFR	3	4	n/a	FIGHTER	564	3	n/a	n/a	n/a	n/a	n/a	n/a
4668.748	n/a	RECOG_LURE	2334374	n/a	LTP128	ltpFR	3	4	n/a	MOSS	918	3	n/a	n/a	n/a	n/a	n/a	n/a
4670.204	n/a	RECOG_RESP	2335102	n/a	LTP128	ltpFR	3	4	n/a	MOSS	918	n/a	n/a	n/a	n/a	n/a	n/a	n/a
4671.806	n/a	RECOG_CONF	2335903	n/a	LTP128	ltpFR	3	4	n/a	MOSS	918	3	n/a	n/a	n/a	n/a	n/a	n/a
4673.4	n/a	RECOG_TARGET	2336700	n/a	LTP128	ltpFR	3	4	1	CAMEL	223	1	1	n/a	n/a	n/a	n/a	n/a
4682.832	n/a	RECOG_RESP	2341416	n/a	LTP128	ltpFR	3	4	1	CAMEL	223	n/a	1	n/a	n/a	n/a	n/a	n/a
4683.968	n/a	RECOG_CONF	2341984	n/a	LTP128	ltpFR	3	4	1	CAMEL	223	1	1	n/a	n/a	n/a	n/a	n/a
4685.728	n/a	RECOG_TARGET	2342864	n/a	LTP128	ltpFR	3	4	0	HOSTAGE	722	2	1	n/a	n/a	n/a	n/a	n/a
4689.242	n/a	RECOG_RESP	2344621	n/a	LTP128	ltpFR	3	4	0	HOSTAGE	722	n/a	1	n/a	n/a	n/a	n/a	n/a
4690.234	n/a	RECOG_CONF	2345117	n/a	LTP128	ltpFR	3	4	0	HOSTAGE	722	2	1	n/a	n/a	n/a	n/a	n/a
4704.468	n/a	REC_START	2352234	n/a	LTP128	ltpFR	3	5	n/a	n/a	n/a	n/a	n/a	n/a	n/a	n/a	n/a	n/a
4704.504	n/a	RECOG_LURE	2352252	n/a	LTP128	ltpFR	3	5	n/a	LETTUCE	814	2	n/a	n/a	n/a	n/a	n/a	n/a
4707.586	n/a	RECOG_RESP	2353793	n/a	LTP128	ltpFR	3	5	n/a	LETTUCE	814	n/a	n/a	n/a	n/a	n/a	n/a	n/a
4709.492	n/a	RECOG_CONF	2354746	n/a	LTP128	ltpFR	3	5	n/a	LETTUCE	814	2	n/a	n/a	n/a	n/a	n/a	n/a
4711.178	n/a	RECOG_LURE	2355589	n/a	LTP128	ltpFR	3	5	n/a	ORNAMENT	985	2	n/a	n/a	n/a	n/a	n/a	n/a
4714.856	n/a	RECOG_RESP	2357428	n/a	LTP128	ltpFR	3	5	n/a	ORNAMENT	985	n/a	n/a	n/a	n/a	n/a	n/a	n/a
4716.118	n/a	RECOG_CONF	2358059	n/a	LTP128	ltpFR	3	5	n/a	ORNAMENT	985	2	n/a	n/a	n/a	n/a	n/a	n/a
4717.776	n/a	RECOG_TARGET	2358888	n/a	LTP128	ltpFR	3	5	0	COSTUME	383	5	1	n/a	n/a	n/a	n/a	n/a
4718.582	n/a	RECOG_RESP	2359291	n/a	LTP128	ltpFR	3	5	0	COSTUME	383	n/a	1	n/a	n/a	n/a	n/a	n/a
4719.66	n/a	RECOG_CONF	2359830	n/a	LTP128	ltpFR	3	5	0	COSTUME	383	5	1	n/a	n/a	n/a	n/a	n/a
4721.218	n/a	RECOG_TARGET	2360609	n/a	LTP128	ltpFR	3	5	0	LIZARD	834	5	0	n/a	n/a	n/a	n/a	n/a
4722.14	n/a	RECOG_RESP	2361070	n/a	LTP128	ltpFR	3	5	0	LIZARD	834	n/a	0	n/a	n/a	n/a	n/a	n/a
4723.322	n/a	RECOG_CONF	2361661	n/a	LTP128	ltpFR	3	5	0	LIZARD	834	5	0	n/a	n/a	n/a	n/a	n/a
4724.832	n/a	RECOG_TARGET	2362416	n/a	LTP128	ltpFR	3	5	-1	RADISH	1158	5	-1	n/a	n/a	n/a	n/a	n/a
4725.506	n/a	RECOG_RESP	2362753	n/a	LTP128	ltpFR	3	5	-1	RADISH	1158	n/a	-1	n/a	n/a	n/a	n/a	n/a
4726.584	n/a	RECOG_CONF	2363292	n/a	LTP128	ltpFR	3	5	-1	RADISH	1158	5	-1	n/a	n/a	n/a	n/a	n/a
4728.116	n/a	RECOG_TARGET	2364058	n/a	LTP128	ltpFR	3	5	-1	NEUTRON	947	5	-1	n/a	n/a	n/a	n/a	n/a
4728.75	n/a	RECOG_RESP	2364375	n/a	LTP128	ltpFR	3	5	-1	NEUTRON	947	n/a	-1	n/a	n/a	n/a	n/a	n/a
4729.996	n/a	RECOG_CONF	2364998	n/a	LTP128	ltpFR	3	5	-1	NEUTRON	947	5	-1	n/a	n/a	n/a	n/a	n/a
4731.406	n/a	RECOG_LURE	2365703	n/a	LTP128	ltpFR	3	5	n/a	WORKER	1621	1	n/a	n/a	n/a	n/a	n/a	n/a
4736.462	n/a	RECOG_RESP	2368231	n/a	LTP128	ltpFR	3	5	n/a	WORKER	1621	n/a	n/a	n/a	n/a	n/a	n/a	n/a
4737.42	n/a	RECOG_CONF	2368710	n/a	LTP128	ltpFR	3	5	n/a	WORKER	1621	1	n/a	n/a	n/a	n/a	n/a	n/a
4739.088	n/a	RECOG_TARGET	2369544	n/a	LTP128	ltpFR	3	5	0	SAPPHIRE	1234	4	0	n/a	n/a	n/a	n/a	n/a
4740.084	n/a	RECOG_RESP	2370042	n/a	LTP128	ltpFR	3	5	0	SAPPHIRE	1234	n/a	0	n/a	n/a	n/a	n/a	n/a
4741.012	n/a	RECOG_CONF	2370506	n/a	LTP128	ltpFR	3	5	0	SAPPHIRE	1234	4	0	n/a	n/a	n/a	n/a	n/a
4742.734	n/a	RECOG_TARGET	2371367	n/a	LTP128	ltpFR	3	5	-1	CAKE	219	5	-1	n/a	n/a	n/a	n/a	n/a
4743.526	n/a	RECOG_RESP	2371763	n/a	LTP128	ltpFR	3	5	-1	CAKE	219	n/a	-1	n/a	n/a	n/a	n/a	n/a
4744.424	n/a	RECOG_CONF	2372212	n/a	LTP128	ltpFR	3	5	-1	CAKE	219	5	-1	n/a	n/a	n/a	n/a	n/a
4745.984	n/a	RECOG_TARGET	2372992	n/a	LTP128	ltpFR	3	5	1	CAT	257	2	0	n/a	n/a	n/a	n/a	n/a
4749.712	n/a	RECOG_RESP	2374856	n/a	LTP128	ltpFR	3	5	1	CAT	257	n/a	0	n/a	n/a	n/a	n/a	n/a
4751.03	n/a	RECOG_CONF	2375515	n/a	LTP128	ltpFR	3	5	1	CAT	257	2	0	n/a	n/a	n/a	n/a	n/a
4752.524	n/a	RECOG_TARGET	2376262	n/a	LTP128	ltpFR	3	5	-1	PISTOL	1075	5	-1	n/a	n/a	n/a	n/a	n/a
4753.674	n/a	RECOG_RESP	2376837	n/a	LTP128	ltpFR	3	5	-1	PISTOL	1075	n/a	-1	n/a	n/a	n/a	n/a	n/a
4754.712	n/a	RECOG_CONF	2377356	n/a	LTP128	ltpFR	3	5	-1	PISTOL	1075	5	-1	n/a	n/a	n/a	n/a	n/a
4756.282	n/a	RECOG_TARGET	2378141	n/a	LTP128	ltpFR	3	5	1	HUMAN	726	4	1	n/a	n/a	n/a	n/a	n/a
4756.938	n/a	RECOG_RESP	2378469	n/a	LTP128	ltpFR	3	5	1	HUMAN	726	n/a	1	n/a	n/a	n/a	n/a	n/a
4762.126	n/a	RECOG_CONF	2381063	n/a	LTP128	ltpFR	3	5	1	HUMAN	726	4	1	n/a	n/a	n/a	n/a	n/a
4763.846	n/a	RECOG_LURE	2381923	n/a	LTP128	ltpFR	3	5	n/a	MOTHER	921	3	n/a	n/a	n/a	n/a	n/a	n/a
4766.44	n/a	RECOG_RESP	2383220	n/a	LTP128	ltpFR	3	5	n/a	MOTHER	921	n/a	n/a	n/a	n/a	n/a	n/a	n/a
4767.494	n/a	RECOG_CONF	2383747	n/a	LTP128	ltpFR	3	5	n/a	MOTHER	921	3	n/a	n/a	n/a	n/a	n/a	n/a
4769.104	n/a	RECOG_LURE	2384552	n/a	LTP128	ltpFR	3	5	n/a	COUNTRY	388	3	n/a	n/a	n/a	n/a	n/a	n/a
4770.312	n/a	RECOG_RESP	2385156	n/a	LTP128	ltpFR	3	5	n/a	COUNTRY	388	n/a	n/a	n/a	n/a	n/a	n/a	n/a
4772.462	n/a	RECOG_CONF	2386231	n/a	LTP128	ltpFR	3	5	n/a	COUNTRY	388	3	n/a	n/a	n/a	n/a	n/a	n/a
4773.96	n/a	RECOG_TARGET	2386980	n/a	LTP128	ltpFR	3	5	0	BUYER	208	1	0	n/a	n/a	n/a	n/a	n/a
