onset	duration	trial_type	sample	stim_file	subject	experiment	session	trial	task	item_name	item_num	recog_conf	resp	answer	test_x	test_y	test_z	color_b	color_g	color_r	case	font
242.95	n/a	SESS_START	121475	n/a	LTP122	ltpFR	9	n/a	n/a	n/a	n/a	n/a	n/a	n/a	0	0	0	n/a	n/a	n/a	n/a	n/a
266.286	n/a	START	133143	n/a	LTP122	ltpFR	9	n/a	n/a	n/a	n/a	n/a	n/a	n/a	n/a	n/a	n/a	n/a	n/a	n/a	n/a	n/a
266.312	n/a	PROB	133156	n/a	LTP122	ltpFR	9	n/a	n/a	n/a	n/a	n/a	n/a	7	5	1	2	n/a	n/a	n/a	n/a	n/a
268.286	n/a	PROB	134143	n/a	LTP122	ltpFR	9	n/a	n/a	n/a	n/a	n/a	n/a	7	1	2	4	n/a	n/a	n/a	n/a	n/a
271.11	n/a	PROB	135555	n/a	LTP122	ltpFR	9	n/a	n/a	n/a	n/a	n/a	n/a	16	7	6	3	n/a	n/a	n/a	n/a	n/a
272.866	n/a	PROB	136433	n/a	LTP122	ltpFR	9	n/a	n/a	n/a	n/a	n/a	n/a	22	9	5	8	n/a	n/a	n/a	n/a	n/a
274.834	n/a	PROB	137417	n/a	LTP122	ltpFR	9	n/a	n/a	n/a	n/a	n/a	n/a	14	3	9	2	n/a	n/a	n/a	n/a	n/a
277.866	n/a	PROB	138933	n/a	LTP122	ltpFR	9	n/a	n/a	n/a	n/a	n/a	n/a	17	7	4	6	n/a	n/a	n/a	n/a	n/a
280.208	n/a	PROB	140104	n/a	LTP122	ltpFR	9	n/a	n/a	n/a	n/a	n/a	n/a	12	8	1	3	n/a	n/a	n/a	n/a	n/a
281.79	n/a	PROB	140895	n/a	LTP122	ltpFR	9	n/a	n/a	n/a	n/a	n/a	n/a	12	6	1	5	n/a	n/a	n/a	n/a	n/a
283.564	n/a	PROB	141782	n/a	LTP122	ltpFR	9	n/a	n/a	n/a	n/a	n/a	n/a	16	6	4	6	n/a	n/a	n/a	n/a	n/a
284.994	n/a	STOP	142497	n/a	LTP122	ltpFR	9	n/a	n/a	n/a	n/a	n/a	n/a	n/a	n/a	n/a	n/a	n/a	n/a	n/a	n/a	n/a
313.022	n/a	WORD	156511	wordpools/wasnorm_wordpool.txt	LTP122	ltpFR	9	1	1	RIVER	1194	n/a	0	n/a	0	0	0	0	0.5869140625	0.422607421875	upper	../fonts/amplitud.ttf
317.012	n/a	WORD	158506	wordpools/wasnorm_wordpool.txt	LTP122	ltpFR	9	1	1	DOG	480	n/a	1	n/a	0	0	0	0	0.5869140625	0.422607421875	upper	../fonts/amplitud.ttf
321.062	n/a	WORD	160531	wordpools/wasnorm_wordpool.txt	LTP122	ltpFR	9	1	1	BROCCOLI	176	n/a	0	n/a	0	0	0	0	0.5869140625	0.422607421875	upper	../fonts/amplitud.ttf
325.236	n/a	WORD	162618	wordpools/wasnorm_wordpool.txt	LTP122	ltpFR	9	1	1	SPRINKLE	1359	n/a	0	n/a	0	0	0	0	0.5869140625	0.422607421875	upper	../fonts/amplitud.ttf
329.168	n/a	WORD	164584	wordpools/wasnorm_wordpool.txt	LTP122	ltpFR	9	1	0	WILDERNESS	1610	n/a	1	n/a	0	0	0	1	0.412841796875	0.57763671875	lower	../fonts/zerothre.ttf
333.024	n/a	WORD	166512	wordpools/wasnorm_wordpool.txt	LTP122	ltpFR	9	1	0	MONUMENT	913	n/a	1	n/a	0	0	0	1	0.412841796875	0.57763671875	lower	../fonts/zerothre.ttf
337.056	n/a	WORD	168528	wordpools/wasnorm_wordpool.txt	LTP122	ltpFR	9	1	0	STATUE	1374	n/a	1	n/a	0	0	0	1	0.412841796875	0.57763671875	lower	../fonts/zerothre.ttf
341.064	n/a	WORD	170532	wordpools/wasnorm_wordpool.txt	LTP122	ltpFR	9	1	0	SHELL	1281	n/a	0	n/a	0	0	0	1	0.412841796875	0.57763671875	lower	../fonts/zerothre.ttf
345.062	n/a	WORD	172531	wordpools/wasnorm_wordpool.txt	LTP122	ltpFR	9	1	0	TORTOISE	1486	n/a	1	n/a	0	0	0	1	0.412841796875	0.57763671875	lower	../fonts/zerothre.ttf
348.902	n/a	WORD	174451	wordpools/wasnorm_wordpool.txt	LTP122	ltpFR	9	1	0	TRACTOR	1493	n/a	1	n/a	0	0	0	1	0.412841796875	0.57763671875	lower	../fonts/zerothre.ttf
352.768	n/a	WORD	176384	wordpools/wasnorm_wordpool.txt	LTP122	ltpFR	9	1	1	SPINACH	1352	n/a	0	n/a	0	0	0	0	0.5869140625	0.422607421875	upper	../fonts/amplitud.ttf
356.784	n/a	WORD	178392	wordpools/wasnorm_wordpool.txt	LTP122	ltpFR	9	1	1	OPERATOR	979	n/a	1	n/a	0	0	0	0	0.5869140625	0.422607421875	upper	../fonts/amplitud.ttf
360.824	n/a	WORD	180412	wordpools/wasnorm_wordpool.txt	LTP122	ltpFR	9	1	1	PALACE	1006	n/a	1	n/a	0	0	0	0	0.5869140625	0.422607421875	upper	../fonts/amplitud.ttf
364.93	n/a	WORD	182465	wordpools/wasnorm_wordpool.txt	LTP122	ltpFR	9	1	1	SCRIBBLE	1256	n/a	0	n/a	0	0	0	0	0.5869140625	0.422607421875	upper	../fonts/amplitud.ttf
369.114	n/a	WORD	184557	wordpools/wasnorm_wordpool.txt	LTP122	ltpFR	9	1	0	SIGNATURE	1306	n/a	0	n/a	0	0	0	1	0.412841796875	0.57763671875	lower	../fonts/zerothre.ttf
373.322	n/a	WORD	186661	wordpools/wasnorm_wordpool.txt	LTP122	ltpFR	9	1	0	RAT	1169	n/a	0	n/a	0	0	0	1	0.412841796875	0.57763671875	lower	../fonts/zerothre.ttf
376.328	n/a	START	188164	n/a	LTP122	ltpFR	9	n/a	n/a	n/a	n/a	n/a	n/a	n/a	n/a	n/a	n/a	n/a	n/a	n/a	n/a	n/a
377.286	n/a	PROB	188643	n/a	LTP122	ltpFR	9	n/a	n/a	n/a	n/a	n/a	n/a	16	6	4	8	n/a	n/a	n/a	n/a	n/a
379.286	n/a	PROB	189643	n/a	LTP122	ltpFR	9	n/a	n/a	n/a	n/a	n/a	n/a	14	4	6	4	n/a	n/a	n/a	n/a	n/a
380.692	n/a	PROB	190346	n/a	LTP122	ltpFR	9	n/a	n/a	n/a	n/a	n/a	n/a	6	1	2	3	n/a	n/a	n/a	n/a	n/a
382.084	n/a	PROB	191042	n/a	LTP122	ltpFR	9	n/a	n/a	n/a	n/a	n/a	n/a	12	7	5	1	n/a	n/a	n/a	n/a	n/a
383.694	n/a	STOP	191847	n/a	LTP122	ltpFR	9	n/a	n/a	n/a	n/a	n/a	n/a	n/a	n/a	n/a	n/a	n/a	n/a	n/a	n/a	n/a
386.058	n/a	REC_START	193029	n/a	LTP122	ltpFR	9	1	n/a	n/a	n/a	n/a	n/a	n/a	0	0	0	n/a	n/a	n/a	n/a	n/a
387.584	n/a	REC_WORD	193792	wordpools/wasnorm_wordpool.txt	LTP122	ltpFR	9	1	1	RIVER	1194	n/a	0	n/a	0	0	0	n/a	n/a	n/a	n/a	n/a
388.458	n/a	REC_WORD	194229	wordpools/wasnorm_wordpool.txt	LTP122	ltpFR	9	1	0	WILDERNESS	1610	n/a	1	n/a	0	0	0	n/a	n/a	n/a	n/a	n/a
389.646	n/a	REC_WORD	194823	wordpools/wasnorm_wordpool.txt	LTP122	ltpFR	9	1	1	DOG	480	n/a	1	n/a	0	0	0	n/a	n/a	n/a	n/a	n/a
390.364	n/a	REC_WORD	195182	wordpools/wasnorm_wordpool.txt	LTP122	ltpFR	9	1	1	BROCCOLI	176	n/a	0	n/a	0	0	0	n/a	n/a	n/a	n/a	n/a
390.982	n/a	REC_WORD	195491	wordpools/wasnorm_wordpool.txt	LTP122	ltpFR	9	1	1	SPRINKLE	1359	n/a	0	n/a	0	0	0	n/a	n/a	n/a	n/a	n/a
391.926	n/a	REC_WORD	195963	wordpools/wasnorm_wordpool.txt	LTP122	ltpFR	9	1	1	SPINACH	1352	n/a	0	n/a	0	0	0	n/a	n/a	n/a	n/a	n/a
393.996	n/a	REC_WORD	196998	wordpools/wasnorm_wordpool.txt	LTP122	ltpFR	9	1	1	SCRIBBLE	1256	n/a	0	n/a	0	0	0	n/a	n/a	n/a	n/a	n/a
394.534	n/a	REC_WORD	197267	wordpools/wasnorm_wordpool.txt	LTP122	ltpFR	9	1	0	SIGNATURE	1306	n/a	0	n/a	0	0	0	n/a	n/a	n/a	n/a	n/a
396.002	n/a	REC_WORD	198001	wordpools/wasnorm_wordpool.txt	LTP122	ltpFR	9	1	1	OPERATOR	979	n/a	1	n/a	0	0	0	n/a	n/a	n/a	n/a	n/a
398.038	n/a	REC_WORD	199019	wordpools/wasnorm_wordpool.txt	LTP122	ltpFR	9	1	0	MONUMENT	913	n/a	1	n/a	0	0	0	n/a	n/a	n/a	n/a	n/a
399.258	n/a	REC_WORD	199629	wordpools/wasnorm_wordpool.txt	LTP122	ltpFR	9	1	0	STATUE	1374	n/a	1	n/a	0	0	0	n/a	n/a	n/a	n/a	n/a
404.642	n/a	REC_WORD	202321	wordpools/wasnorm_wordpool.txt	LTP122	ltpFR	9	1	1	PALACE	1006	n/a	1	n/a	0	0	0	n/a	n/a	n/a	n/a	n/a
420.826	n/a	REC_WORD	210413	wordpools/wasnorm_wordpool.txt	LTP122	ltpFR	9	1	0	RAT	1169	n/a	0	n/a	0	0	0	n/a	n/a	n/a	n/a	n/a
436.81	n/a	REC_WORD	218405	wordpools/wasnorm_wordpool.txt	LTP122	ltpFR	9	1	0	TRACTOR	1493	n/a	1	n/a	0	0	0	n/a	n/a	n/a	n/a	n/a
454.472	n/a	REC_WORD	227236	wordpools/wasnorm_wordpool.txt	LTP122	ltpFR	9	1	0	SHELL	1281	n/a	0	n/a	0	0	0	n/a	n/a	n/a	n/a	n/a
463.144	n/a	START	231572	n/a	LTP122	ltpFR	9	n/a	n/a	n/a	n/a	n/a	n/a	n/a	n/a	n/a	n/a	n/a	n/a	n/a	n/a	n/a
464.65	n/a	PROB	232325	n/a	LTP122	ltpFR	9	n/a	n/a	n/a	n/a	n/a	n/a	13	3	4	5	n/a	n/a	n/a	n/a	n/a
467.716	n/a	PROB	233858	n/a	LTP122	ltpFR	9	n/a	n/a	n/a	n/a	n/a	n/a	5	1	1	3	n/a	n/a	n/a	n/a	n/a
469.108	n/a	PROB	234554	n/a	LTP122	ltpFR	9	n/a	n/a	n/a	n/a	n/a	n/a	20	9	4	7	n/a	n/a	n/a	n/a	n/a
471.028	n/a	STOP	235514	n/a	LTP122	ltpFR	9	n/a	n/a	n/a	n/a	n/a	n/a	n/a	n/a	n/a	n/a	n/a	n/a	n/a	n/a	n/a
472.108	n/a	WORD	236054	wordpools/wasnorm_wordpool.txt	LTP122	ltpFR	9	2	0	BUFFALO	186	n/a	1	n/a	0	0	0	1	0.412841796875	0.57763671875	lower	../fonts/zerothre.ttf
475.116	n/a	START	237558	n/a	LTP122	ltpFR	9	n/a	n/a	n/a	n/a	n/a	n/a	n/a	n/a	n/a	n/a	n/a	n/a	n/a	n/a	n/a
476.24	n/a	PROB	238120	n/a	LTP122	ltpFR	9	n/a	n/a	n/a	n/a	n/a	n/a	20	9	7	4	n/a	n/a	n/a	n/a	n/a
478.522	n/a	PROB	239261	n/a	LTP122	ltpFR	9	n/a	n/a	n/a	n/a	n/a	n/a	20	8	3	9	n/a	n/a	n/a	n/a	n/a
482.156	n/a	STOP	241078	n/a	LTP122	ltpFR	9	n/a	n/a	n/a	n/a	n/a	n/a	n/a	n/a	n/a	n/a	n/a	n/a	n/a	n/a	n/a
484.12	n/a	WORD	242060	wordpools/wasnorm_wordpool.txt	LTP122	ltpFR	9	2	0	INDIAN	736	n/a	1	n/a	0	0	0	1	0.412841796875	0.57763671875	lower	../fonts/zerothre.ttf
487.128	n/a	START	243564	n/a	LTP122	ltpFR	9	n/a	n/a	n/a	n/a	n/a	n/a	n/a	n/a	n/a	n/a	n/a	n/a	n/a	n/a	n/a
488.278	n/a	PROB	244139	n/a	LTP122	ltpFR	9	n/a	n/a	n/a	n/a	n/a	n/a	21	9	4	8	n/a	n/a	n/a	n/a	n/a
490.61	n/a	PROB	245305	n/a	LTP122	ltpFR	9	n/a	n/a	n/a	n/a	n/a	n/a	15	6	5	4	n/a	n/a	n/a	n/a	n/a
492.808	n/a	PROB	246404	n/a	LTP122	ltpFR	9	n/a	n/a	n/a	n/a	n/a	n/a	9	3	3	3	n/a	n/a	n/a	n/a	n/a
494.006	n/a	STOP	247003	n/a	LTP122	ltpFR	9	n/a	n/a	n/a	n/a	n/a	n/a	n/a	n/a	n/a	n/a	n/a	n/a	n/a	n/a	n/a
496.242	n/a	WORD	248121	wordpools/wasnorm_wordpool.txt	LTP122	ltpFR	9	2	0	MACARONI	851	n/a	0	n/a	0	0	0	1	0.412841796875	0.57763671875	lower	../fonts/zerothre.ttf
499.25	n/a	START	249625	n/a	LTP122	ltpFR	9	n/a	n/a	n/a	n/a	n/a	n/a	n/a	n/a	n/a	n/a	n/a	n/a	n/a	n/a	n/a
500.366	n/a	PROB	250183	n/a	LTP122	ltpFR	9	n/a	n/a	n/a	n/a	n/a	n/a	16	7	6	3	n/a	n/a	n/a	n/a	n/a
501.998	n/a	PROB	250999	n/a	LTP122	ltpFR	9	n/a	n/a	n/a	n/a	n/a	n/a	14	7	3	4	n/a	n/a	n/a	n/a	n/a
503.29	n/a	PROB	251645	n/a	LTP122	ltpFR	9	n/a	n/a	n/a	n/a	n/a	n/a	6	1	4	1	n/a	n/a	n/a	n/a	n/a
504.672	n/a	PROB	252336	n/a	LTP122	ltpFR	9	n/a	n/a	n/a	n/a	n/a	n/a	13	2	2	9	n/a	n/a	n/a	n/a	n/a
506.206	n/a	STOP	253103	n/a	LTP122	ltpFR	9	n/a	n/a	n/a	n/a	n/a	n/a	n/a	n/a	n/a	n/a	n/a	n/a	n/a	n/a	n/a
508.38	n/a	WORD	254190	wordpools/wasnorm_wordpool.txt	LTP122	ltpFR	9	2	0	TOAST	1471	n/a	0	n/a	0	0	0	1	0.412841796875	0.57763671875	lower	../fonts/zerothre.ttf
511.388	n/a	START	255694	n/a	LTP122	ltpFR	9	n/a	n/a	n/a	n/a	n/a	n/a	n/a	n/a	n/a	n/a	n/a	n/a	n/a	n/a	n/a
512.362	n/a	PROB	256181	n/a	LTP122	ltpFR	9	n/a	n/a	n/a	n/a	n/a	n/a	21	9	6	6	n/a	n/a	n/a	n/a	n/a
514.66	n/a	PROB	257330	n/a	LTP122	ltpFR	9	n/a	n/a	n/a	n/a	n/a	n/a	25	8	8	9	n/a	n/a	n/a	n/a	n/a
517.56	n/a	PROB	258780	n/a	LTP122	ltpFR	9	n/a	n/a	n/a	n/a	n/a	n/a	9	5	1	3	n/a	n/a	n/a	n/a	n/a
518.94	n/a	STOP	259470	n/a	LTP122	ltpFR	9	n/a	n/a	n/a	n/a	n/a	n/a	n/a	n/a	n/a	n/a	n/a	n/a	n/a	n/a	n/a
520.584	n/a	WORD	260292	wordpools/wasnorm_wordpool.txt	LTP122	ltpFR	9	2	0	PAIL	1002	n/a	0	n/a	0	0	0	1	0.412841796875	0.57763671875	lower	../fonts/zerothre.ttf
523.59	n/a	START	261795	n/a	LTP122	ltpFR	9	n/a	n/a	n/a	n/a	n/a	n/a	n/a	n/a	n/a	n/a	n/a	n/a	n/a	n/a	n/a
524.682	n/a	PROB	262341	n/a	LTP122	ltpFR	9	n/a	n/a	n/a	n/a	n/a	n/a	19	8	6	5	n/a	n/a	n/a	n/a	n/a
527.55	n/a	PROB	263775	n/a	LTP122	ltpFR	9	n/a	n/a	n/a	n/a	n/a	n/a	16	2	5	9	n/a	n/a	n/a	n/a	n/a
530.462	n/a	STOP	265231	n/a	LTP122	ltpFR	9	n/a	n/a	n/a	n/a	n/a	n/a	n/a	n/a	n/a	n/a	n/a	n/a	n/a	n/a	n/a
532.54	n/a	WORD	266270	wordpools/wasnorm_wordpool.txt	LTP122	ltpFR	9	2	1	BROOK	177	n/a	0	n/a	0	0	0	0	0.5869140625	0.422607421875	upper	../fonts/amplitud.ttf
535.548	n/a	START	267774	n/a	LTP122	ltpFR	9	n/a	n/a	n/a	n/a	n/a	n/a	n/a	n/a	n/a	n/a	n/a	n/a	n/a	n/a	n/a
536.586	n/a	PROB	268293	n/a	LTP122	ltpFR	9	n/a	n/a	n/a	n/a	n/a	n/a	19	2	9	8	n/a	n/a	n/a	n/a	n/a
538.82	n/a	PROB	269410	n/a	LTP122	ltpFR	9	n/a	n/a	n/a	n/a	n/a	n/a	18	5	9	4	n/a	n/a	n/a	n/a	n/a
540.504	n/a	PROB	270252	n/a	LTP122	ltpFR	9	n/a	n/a	n/a	n/a	n/a	n/a	11	5	5	1	n/a	n/a	n/a	n/a	n/a
543.548	n/a	STOP	271774	n/a	LTP122	ltpFR	9	n/a	n/a	n/a	n/a	n/a	n/a	n/a	n/a	n/a	n/a	n/a	n/a	n/a	n/a	n/a
544.386	n/a	WORD	272193	wordpools/wasnorm_wordpool.txt	LTP122	ltpFR	9	2	1	STAKE	1368	n/a	0	n/a	0	0	0	0	0.5869140625	0.422607421875	upper	../fonts/amplitud.ttf
547.394	n/a	START	273697	n/a	LTP122	ltpFR	9	n/a	n/a	n/a	n/a	n/a	n/a	n/a	n/a	n/a	n/a	n/a	n/a	n/a	n/a	n/a
548.584	n/a	PROB	274292	n/a	LTP122	ltpFR	9	n/a	n/a	n/a	n/a	n/a	n/a	12	1	6	4	n/a	n/a	n/a	n/a	n/a
551.7	n/a	PROB	275850	n/a	LTP122	ltpFR	9	n/a	n/a	n/a	n/a	n/a	n/a	13	6	1	4	n/a	n/a	n/a	n/a	n/a
554.048	n/a	STOP	277024	n/a	LTP122	ltpFR	9	n/a	n/a	n/a	n/a	n/a	n/a	n/a	n/a	n/a	n/a	n/a	n/a	n/a	n/a	n/a
556.306	n/a	WORD	278153	wordpools/wasnorm_wordpool.txt	LTP122	ltpFR	9	2	1	WALLET	1583	n/a	0	n/a	0	0	0	0	0.5869140625	0.422607421875	upper	../fonts/amplitud.ttf
559.314	n/a	START	279657	n/a	LTP122	ltpFR	9	n/a	n/a	n/a	n/a	n/a	n/a	n/a	n/a	n/a	n/a	n/a	n/a	n/a	n/a	n/a
560.348	n/a	PROB	280174	n/a	LTP122	ltpFR	9	n/a	n/a	n/a	n/a	n/a	n/a	12	3	5	4	n/a	n/a	n/a	n/a	n/a
562.072	n/a	PROB	281036	n/a	LTP122	ltpFR	9	n/a	n/a	n/a	n/a	n/a	n/a	11	4	1	5	n/a	n/a	n/a	n/a	n/a
563.662	n/a	PROB	281831	n/a	LTP122	ltpFR	9	n/a	n/a	n/a	n/a	n/a	n/a	11	2	7	2	n/a	n/a	n/a	n/a	n/a
565.736	n/a	PROB	282868	n/a	LTP122	ltpFR	9	n/a	n/a	n/a	n/a	n/a	n/a	14	4	8	2	n/a	n/a	n/a	n/a	n/a
567.296	n/a	STOP	283648	n/a	LTP122	ltpFR	9	n/a	n/a	n/a	n/a	n/a	n/a	n/a	n/a	n/a	n/a	n/a	n/a	n/a	n/a	n/a
568.262	n/a	WORD	284131	wordpools/wasnorm_wordpool.txt	LTP122	ltpFR	9	2	1	CHEST	295	n/a	0	n/a	0	0	0	0	0.5869140625	0.422607421875	upper	../fonts/amplitud.ttf
571.27	n/a	START	285635	n/a	LTP122	ltpFR	9	n/a	n/a	n/a	n/a	n/a	n/a	n/a	n/a	n/a	n/a	n/a	n/a	n/a	n/a	n/a
572.36	n/a	PROB	286180	n/a	LTP122	ltpFR	9	n/a	n/a	n/a	n/a	n/a	n/a	10	5	3	2	n/a	n/a	n/a	n/a	n/a
573.968	n/a	PROB	286984	n/a	LTP122	ltpFR	9	n/a	n/a	n/a	n/a	n/a	n/a	16	9	2	5	n/a	n/a	n/a	n/a	n/a
575.568	n/a	PROB	287784	n/a	LTP122	ltpFR	9	n/a	n/a	n/a	n/a	n/a	n/a	10	5	4	1	n/a	n/a	n/a	n/a	n/a
578.272	n/a	STOP	289136	n/a	LTP122	ltpFR	9	n/a	n/a	n/a	n/a	n/a	n/a	n/a	n/a	n/a	n/a	n/a	n/a	n/a	n/a	n/a
580.116	n/a	WORD	290058	wordpools/wasnorm_wordpool.txt	LTP122	ltpFR	9	2	0	BAKER	71	n/a	1	n/a	0	0	0	1	0.412841796875	0.57763671875	lower	../fonts/zerothre.ttf
583.126	n/a	START	291563	n/a	LTP122	ltpFR	9	n/a	n/a	n/a	n/a	n/a	n/a	n/a	n/a	n/a	n/a	n/a	n/a	n/a	n/a	n/a
584.198	n/a	PROB	292099	n/a	LTP122	ltpFR	9	n/a	n/a	n/a	n/a	n/a	n/a	21	3	9	9	n/a	n/a	n/a	n/a	n/a
586.532	n/a	PROB	293266	n/a	LTP122	ltpFR	9	n/a	n/a	n/a	n/a	n/a	n/a	16	7	7	2	n/a	n/a	n/a	n/a	n/a
588.164	n/a	PROB	294082	n/a	LTP122	ltpFR	9	n/a	n/a	n/a	n/a	n/a	n/a	17	9	3	5	n/a	n/a	n/a	n/a	n/a
590.466	n/a	STOP	295233	n/a	LTP122	ltpFR	9	n/a	n/a	n/a	n/a	n/a	n/a	n/a	n/a	n/a	n/a	n/a	n/a	n/a	n/a	n/a
592.162	n/a	WORD	296081	wordpools/wasnorm_wordpool.txt	LTP122	ltpFR	9	2	0	GRILL	661	n/a	1	n/a	0	0	0	1	0.412841796875	0.57763671875	lower	../fonts/zerothre.ttf
595.17	n/a	START	297585	n/a	LTP122	ltpFR	9	n/a	n/a	n/a	n/a	n/a	n/a	n/a	n/a	n/a	n/a	n/a	n/a	n/a	n/a	n/a
596.312	n/a	PROB	298156	n/a	LTP122	ltpFR	9	n/a	n/a	n/a	n/a	n/a	n/a	20	5	8	7	n/a	n/a	n/a	n/a	n/a
598.352	n/a	PROB	299176	n/a	LTP122	ltpFR	9	n/a	n/a	n/a	n/a	n/a	n/a	18	5	8	5	n/a	n/a	n/a	n/a	n/a
601.352	n/a	PROB	300676	n/a	LTP122	ltpFR	9	n/a	n/a	n/a	n/a	n/a	n/a	16	4	4	8	n/a	n/a	n/a	n/a	n/a
603.042	n/a	STOP	301521	n/a	LTP122	ltpFR	9	n/a	n/a	n/a	n/a	n/a	n/a	n/a	n/a	n/a	n/a	n/a	n/a	n/a	n/a	n/a
604.302	n/a	WORD	302151	wordpools/wasnorm_wordpool.txt	LTP122	ltpFR	9	2	0	REGISTER	1180	n/a	1	n/a	0	0	0	1	0.412841796875	0.57763671875	lower	../fonts/zerothre.ttf
607.308	n/a	START	303654	n/a	LTP122	ltpFR	9	n/a	n/a	n/a	n/a	n/a	n/a	n/a	n/a	n/a	n/a	n/a	n/a	n/a	n/a	n/a
608.158	n/a	PROB	304079	n/a	LTP122	ltpFR	9	n/a	n/a	n/a	n/a	n/a	n/a	15	5	5	5	n/a	n/a	n/a	n/a	n/a
609.482	n/a	PROB	304741	n/a	LTP122	ltpFR	9	n/a	n/a	n/a	n/a	n/a	n/a	21	6	8	7	n/a	n/a	n/a	n/a	n/a
614.106	n/a	STOP	307053	n/a	LTP122	ltpFR	9	n/a	n/a	n/a	n/a	n/a	n/a	n/a	n/a	n/a	n/a	n/a	n/a	n/a	n/a	n/a
616.396	n/a	WORD	308198	wordpools/wasnorm_wordpool.txt	LTP122	ltpFR	9	2	1	PIKE	1067	n/a	0	n/a	0	0	0	0	0.5869140625	0.422607421875	upper	../fonts/amplitud.ttf
619.404	n/a	START	309702	n/a	LTP122	ltpFR	9	n/a	n/a	n/a	n/a	n/a	n/a	n/a	n/a	n/a	n/a	n/a	n/a	n/a	n/a	n/a
620.362	n/a	PROB	310181	n/a	LTP122	ltpFR	9	n/a	n/a	n/a	n/a	n/a	n/a	19	6	8	5	n/a	n/a	n/a	n/a	n/a
622.57	n/a	PROB	311285	n/a	LTP122	ltpFR	9	n/a	n/a	n/a	n/a	n/a	n/a	15	8	1	6	n/a	n/a	n/a	n/a	n/a
624.004	n/a	PROB	312002	n/a	LTP122	ltpFR	9	n/a	n/a	n/a	n/a	n/a	n/a	19	9	1	9	n/a	n/a	n/a	n/a	n/a
625.478	n/a	PROB	312739	n/a	LTP122	ltpFR	9	n/a	n/a	n/a	n/a	n/a	n/a	13	2	2	9	n/a	n/a	n/a	n/a	n/a
627.06	n/a	STOP	313530	n/a	LTP122	ltpFR	9	n/a	n/a	n/a	n/a	n/a	n/a	n/a	n/a	n/a	n/a	n/a	n/a	n/a	n/a	n/a
628.26	n/a	WORD	314130	wordpools/wasnorm_wordpool.txt	LTP122	ltpFR	9	2	1	CRAB	397	n/a	1	n/a	0	0	0	0	0.5869140625	0.422607421875	upper	../fonts/amplitud.ttf
631.268	n/a	START	315634	n/a	LTP122	ltpFR	9	n/a	n/a	n/a	n/a	n/a	n/a	n/a	n/a	n/a	n/a	n/a	n/a	n/a	n/a	n/a
632.218	n/a	PROB	316109	n/a	LTP122	ltpFR	9	n/a	n/a	n/a	n/a	n/a	n/a	8	5	2	1	n/a	n/a	n/a	n/a	n/a
633.708	n/a	PROB	316854	n/a	LTP122	ltpFR	9	n/a	n/a	n/a	n/a	n/a	n/a	13	3	2	7	n/a	n/a	n/a	n/a	n/a
635.674	n/a	PROB	317837	n/a	LTP122	ltpFR	9	n/a	n/a	n/a	n/a	n/a	n/a	21	8	9	4	n/a	n/a	n/a	n/a	n/a
639.044	n/a	STOP	319522	n/a	LTP122	ltpFR	9	n/a	n/a	n/a	n/a	n/a	n/a	n/a	n/a	n/a	n/a	n/a	n/a	n/a	n/a	n/a
640.172	n/a	WORD	320086	wordpools/wasnorm_wordpool.txt	LTP122	ltpFR	9	2	1	SUPERMARKET	1409	n/a	1	n/a	0	0	0	0	0.5869140625	0.422607421875	upper	../fonts/amplitud.ttf
643.182	n/a	START	321591	n/a	LTP122	ltpFR	9	n/a	n/a	n/a	n/a	n/a	n/a	n/a	n/a	n/a	n/a	n/a	n/a	n/a	n/a	n/a
644.38	n/a	PROB	322190	n/a	LTP122	ltpFR	9	n/a	n/a	n/a	n/a	n/a	n/a	19	3	7	9	n/a	n/a	n/a	n/a	n/a
645.954	n/a	PROB	322977	n/a	LTP122	ltpFR	9	n/a	n/a	n/a	n/a	n/a	n/a	21	6	7	8	n/a	n/a	n/a	n/a	n/a
651.18	n/a	STOP	325590	n/a	LTP122	ltpFR	9	n/a	n/a	n/a	n/a	n/a	n/a	n/a	n/a	n/a	n/a	n/a	n/a	n/a	n/a	n/a
652.07	n/a	WORD	326035	wordpools/wasnorm_wordpool.txt	LTP122	ltpFR	9	2	1	NICKEL	950	n/a	0	n/a	0	0	0	0	0.5869140625	0.422607421875	upper	../fonts/amplitud.ttf
655.078	n/a	START	327539	n/a	LTP122	ltpFR	9	n/a	n/a	n/a	n/a	n/a	n/a	n/a	n/a	n/a	n/a	n/a	n/a	n/a	n/a	n/a
656.102	n/a	PROB	328051	n/a	LTP122	ltpFR	9	n/a	n/a	n/a	n/a	n/a	n/a	13	5	3	3	n/a	n/a	n/a	n/a	n/a
657.816	n/a	PROB	328908	n/a	LTP122	ltpFR	9	n/a	n/a	n/a	n/a	n/a	n/a	18	6	9	3	n/a	n/a	n/a	n/a	n/a
659.884	n/a	PROB	329942	n/a	LTP122	ltpFR	9	n/a	n/a	n/a	n/a	n/a	n/a	16	2	6	8	n/a	n/a	n/a	n/a	n/a
663.078	n/a	STOP	331539	n/a	LTP122	ltpFR	9	n/a	n/a	n/a	n/a	n/a	n/a	n/a	n/a	n/a	n/a	n/a	n/a	n/a	n/a	n/a
664.984	n/a	REC_START	332492	n/a	LTP122	ltpFR	9	2	n/a	n/a	n/a	n/a	n/a	n/a	0	0	0	n/a	n/a	n/a	n/a	n/a
667.194	n/a	REC_WORD	333597	wordpools/wasnorm_wordpool.txt	LTP122	ltpFR	9	2	0	BUFFALO	186	n/a	1	n/a	0	0	0	n/a	n/a	n/a	n/a	n/a
668.51	n/a	REC_WORD	334255	wordpools/wasnorm_wordpool.txt	LTP122	ltpFR	9	2	0	INDIAN	736	n/a	1	n/a	0	0	0	n/a	n/a	n/a	n/a	n/a
669.164	n/a	REC_WORD	334582	wordpools/wasnorm_wordpool.txt	LTP122	ltpFR	9	2	0	MACARONI	851	n/a	0	n/a	0	0	0	n/a	n/a	n/a	n/a	n/a
670.556	n/a	REC_WORD	335278	wordpools/wasnorm_wordpool.txt	LTP122	ltpFR	9	2	0	TOAST	1471	n/a	0	n/a	0	0	0	n/a	n/a	n/a	n/a	n/a
673.09	n/a	REC_WORD	336545	wordpools/wasnorm_wordpool.txt	LTP122	ltpFR	9	2	n/a	BUCKET	184	n/a	n/a	n/a	0	0	0	n/a	n/a	n/a	n/a	n/a
676.462	n/a	REC_WORD	338231	wordpools/wasnorm_wordpool.txt	LTP122	ltpFR	9	2	0	BAKER	71	n/a	1	n/a	0	0	0	n/a	n/a	n/a	n/a	n/a
677.26	n/a	REC_WORD	338630	wordpools/wasnorm_wordpool.txt	LTP122	ltpFR	9	2	0	GRILL	661	n/a	1	n/a	0	0	0	n/a	n/a	n/a	n/a	n/a
678.886	n/a	REC_WORD	339443	wordpools/wasnorm_wordpool.txt	LTP122	ltpFR	9	2	1	CRAB	397	n/a	1	n/a	0	0	0	n/a	n/a	n/a	n/a	n/a
680.174	n/a	REC_WORD	340087	wordpools/wasnorm_wordpool.txt	LTP122	ltpFR	9	2	0	REGISTER	1180	n/a	1	n/a	0	0	0	n/a	n/a	n/a	n/a	n/a
681.812	n/a	REC_WORD	340906	wordpools/wasnorm_wordpool.txt	LTP122	ltpFR	9	2	1	NICKEL	950	n/a	0	n/a	0	0	0	n/a	n/a	n/a	n/a	n/a
682.64	n/a	REC_WORD	341320	wordpools/wasnorm_wordpool.txt	LTP122	ltpFR	9	2	1	PIKE	1067	n/a	0	n/a	0	0	0	n/a	n/a	n/a	n/a	n/a
683.232	n/a	REC_WORD	341616	wordpools/wasnorm_wordpool.txt	LTP122	ltpFR	9	2	1	STAKE	1368	n/a	0	n/a	0	0	0	n/a	n/a	n/a	n/a	n/a
684.016	n/a	REC_WORD	342008	wordpools/wasnorm_wordpool.txt	LTP122	ltpFR	9	2	1	SUPERMARKET	1409	n/a	1	n/a	0	0	0	n/a	n/a	n/a	n/a	n/a
694.732	n/a	REC_WORD	347366	wordpools/wasnorm_wordpool.txt	LTP122	ltpFR	9	2	1	CHEST	295	n/a	0	n/a	0	0	0	n/a	n/a	n/a	n/a	n/a
695.44	n/a	REC_WORD	347720	wordpools/wasnorm_wordpool.txt	LTP122	ltpFR	9	2	1	WALLET	1583	n/a	0	n/a	0	0	0	n/a	n/a	n/a	n/a	n/a
742.102	n/a	START	371051	n/a	LTP122	ltpFR	9	n/a	n/a	n/a	n/a	n/a	n/a	n/a	n/a	n/a	n/a	n/a	n/a	n/a	n/a	n/a
743.608	n/a	PROB	371804	n/a	LTP122	ltpFR	9	n/a	n/a	n/a	n/a	n/a	n/a	17	8	1	8	n/a	n/a	n/a	n/a	n/a
745.666	n/a	PROB	372833	n/a	LTP122	ltpFR	9	n/a	n/a	n/a	n/a	n/a	n/a	17	5	8	4	n/a	n/a	n/a	n/a	n/a
747.558	n/a	PROB	373779	n/a	LTP122	ltpFR	9	n/a	n/a	n/a	n/a	n/a	n/a	22	5	9	7	n/a	n/a	n/a	n/a	n/a
749.954	n/a	STOP	374977	n/a	LTP122	ltpFR	9	n/a	n/a	n/a	n/a	n/a	n/a	n/a	n/a	n/a	n/a	n/a	n/a	n/a	n/a	n/a
751.006	n/a	WORD	375503	wordpools/wasnorm_wordpool.txt	LTP122	ltpFR	9	3	0	RUST	1219	n/a	0	n/a	0	0	0	1	0.412841796875	0.57763671875	lower	../fonts/zerothre.ttf
754.014	n/a	START	377007	n/a	LTP122	ltpFR	9	n/a	n/a	n/a	n/a	n/a	n/a	n/a	n/a	n/a	n/a	n/a	n/a	n/a	n/a	n/a
754.92	n/a	PROB	377460	n/a	LTP122	ltpFR	9	n/a	n/a	n/a	n/a	n/a	n/a	13	8	4	1	n/a	n/a	n/a	n/a	n/a
757.088	n/a	PROB	378544	n/a	LTP122	ltpFR	9	n/a	n/a	n/a	n/a	n/a	n/a	11	1	9	1	n/a	n/a	n/a	n/a	n/a
758.238	n/a	PROB	379119	n/a	LTP122	ltpFR	9	n/a	n/a	n/a	n/a	n/a	n/a	16	7	4	3	n/a	n/a	n/a	n/a	n/a
759.87	n/a	PROB	379935	n/a	LTP122	ltpFR	9	n/a	n/a	n/a	n/a	n/a	n/a	18	9	7	2	n/a	n/a	n/a	n/a	n/a
761.564	n/a	STOP	380782	n/a	LTP122	ltpFR	9	n/a	n/a	n/a	n/a	n/a	n/a	n/a	n/a	n/a	n/a	n/a	n/a	n/a	n/a	n/a
763.202	n/a	WORD	381601	wordpools/wasnorm_wordpool.txt	LTP122	ltpFR	9	3	0	MUG	930	n/a	0	n/a	0	0	0	1	0.412841796875	0.57763671875	lower	../fonts/zerothre.ttf
766.21	n/a	START	383105	n/a	LTP122	ltpFR	9	n/a	n/a	n/a	n/a	n/a	n/a	n/a	n/a	n/a	n/a	n/a	n/a	n/a	n/a	n/a
767.194	n/a	PROB	383597	n/a	LTP122	ltpFR	9	n/a	n/a	n/a	n/a	n/a	n/a	15	8	6	1	n/a	n/a	n/a	n/a	n/a
769.118	n/a	PROB	384559	n/a	LTP122	ltpFR	9	n/a	n/a	n/a	n/a	n/a	n/a	14	8	2	4	n/a	n/a	n/a	n/a	n/a
770.658	n/a	PROB	385329	n/a	LTP122	ltpFR	9	n/a	n/a	n/a	n/a	n/a	n/a	17	2	8	7	n/a	n/a	n/a	n/a	n/a
772.124	n/a	PROB	386062	n/a	LTP122	ltpFR	9	n/a	n/a	n/a	n/a	n/a	n/a	18	2	8	8	n/a	n/a	n/a	n/a	n/a
773.452	n/a	STOP	386726	n/a	LTP122	ltpFR	9	n/a	n/a	n/a	n/a	n/a	n/a	n/a	n/a	n/a	n/a	n/a	n/a	n/a	n/a	n/a
775.366	n/a	WORD	387683	wordpools/wasnorm_wordpool.txt	LTP122	ltpFR	9	3	0	STRAW	1390	n/a	0	n/a	0	0	0	1	0.412841796875	0.57763671875	lower	../fonts/zerothre.ttf
778.374	n/a	START	389187	n/a	LTP122	ltpFR	9	n/a	n/a	n/a	n/a	n/a	n/a	n/a	n/a	n/a	n/a	n/a	n/a	n/a	n/a	n/a
779.374	n/a	PROB	389687	n/a	LTP122	ltpFR	9	n/a	n/a	n/a	n/a	n/a	n/a	13	7	1	7	n/a	n/a	n/a	n/a	n/a
781.638	n/a	PROB	390819	n/a	LTP122	ltpFR	9	n/a	n/a	n/a	n/a	n/a	n/a	18	7	9	2	n/a	n/a	n/a	n/a	n/a
783.414	n/a	PROB	391707	n/a	LTP122	ltpFR	9	n/a	n/a	n/a	n/a	n/a	n/a	10	2	5	3	n/a	n/a	n/a	n/a	n/a
785.26	n/a	STOP	392630	n/a	LTP122	ltpFR	9	n/a	n/a	n/a	n/a	n/a	n/a	n/a	n/a	n/a	n/a	n/a	n/a	n/a	n/a	n/a
787.486	n/a	WORD	393743	wordpools/wasnorm_wordpool.txt	LTP122	ltpFR	9	3	0	VEST	1559	n/a	1	n/a	0	0	0	1	0.412841796875	0.57763671875	lower	../fonts/zerothre.ttf
790.494	n/a	START	395247	n/a	LTP122	ltpFR	9	n/a	n/a	n/a	n/a	n/a	n/a	n/a	n/a	n/a	n/a	n/a	n/a	n/a	n/a	n/a
791.602	n/a	PROB	395801	n/a	LTP122	ltpFR	9	n/a	n/a	n/a	n/a	n/a	n/a	7	1	4	2	n/a	n/a	n/a	n/a	n/a
793.658	n/a	PROB	396829	n/a	LTP122	ltpFR	9	n/a	n/a	n/a	n/a	n/a	n/a	21	7	5	8	n/a	n/a	n/a	n/a	n/a
798.496	n/a	STOP	399248	n/a	LTP122	ltpFR	9	n/a	n/a	n/a	n/a	n/a	n/a	n/a	n/a	n/a	n/a	n/a	n/a	n/a	n/a	n/a
799.434	n/a	WORD	399717	wordpools/wasnorm_wordpool.txt	LTP122	ltpFR	9	3	0	PANTS	1010	n/a	1	n/a	0	0	0	1	0.412841796875	0.57763671875	lower	../fonts/zerothre.ttf
802.442	n/a	START	401221	n/a	LTP122	ltpFR	9	n/a	n/a	n/a	n/a	n/a	n/a	n/a	n/a	n/a	n/a	n/a	n/a	n/a	n/a	n/a
803.606	n/a	PROB	401803	n/a	LTP122	ltpFR	9	n/a	n/a	n/a	n/a	n/a	n/a	7	1	3	3	n/a	n/a	n/a	n/a	n/a
805.68	n/a	PROB	402840	n/a	LTP122	ltpFR	9	n/a	n/a	n/a	n/a	n/a	n/a	14	6	2	6	n/a	n/a	n/a	n/a	n/a
808.098	n/a	PROB	404049	n/a	LTP122	ltpFR	9	n/a	n/a	n/a	n/a	n/a	n/a	15	2	8	5	n/a	n/a	n/a	n/a	n/a
809.314	n/a	STOP	404657	n/a	LTP122	ltpFR	9	n/a	n/a	n/a	n/a	n/a	n/a	n/a	n/a	n/a	n/a	n/a	n/a	n/a	n/a	n/a
811.586	n/a	WORD	405793	wordpools/wasnorm_wordpool.txt	LTP122	ltpFR	9	3	0	DRIVEWAY	500	n/a	1	n/a	0	0	0	1	0.412841796875	0.57763671875	lower	../fonts/zerothre.ttf
814.596	n/a	START	407298	n/a	LTP122	ltpFR	9	n/a	n/a	n/a	n/a	n/a	n/a	n/a	n/a	n/a	n/a	n/a	n/a	n/a	n/a	n/a
815.794	n/a	PROB	407897	n/a	LTP122	ltpFR	9	n/a	n/a	n/a	n/a	n/a	n/a	16	7	4	5	n/a	n/a	n/a	n/a	n/a
818.578	n/a	PROB	409289	n/a	LTP122	ltpFR	9	n/a	n/a	n/a	n/a	n/a	n/a	22	8	5	9	n/a	n/a	n/a	n/a	n/a
822.594	n/a	STOP	411297	n/a	LTP122	ltpFR	9	n/a	n/a	n/a	n/a	n/a	n/a	n/a	n/a	n/a	n/a	n/a	n/a	n/a	n/a	n/a
823.46	n/a	WORD	411730	wordpools/wasnorm_wordpool.txt	LTP122	ltpFR	9	3	0	GOVERNOR	651	n/a	1	n/a	0	0	0	1	0.412841796875	0.57763671875	lower	../fonts/zerothre.ttf
826.468	n/a	START	413234	n/a	LTP122	ltpFR	9	n/a	n/a	n/a	n/a	n/a	n/a	n/a	n/a	n/a	n/a	n/a	n/a	n/a	n/a	n/a
827.308	n/a	PROB	413654	n/a	LTP122	ltpFR	9	n/a	n/a	n/a	n/a	n/a	n/a	17	4	6	7	n/a	n/a	n/a	n/a	n/a
828.956	n/a	PROB	414478	n/a	LTP122	ltpFR	9	n/a	n/a	n/a	n/a	n/a	n/a	12	5	5	2	n/a	n/a	n/a	n/a	n/a
831.398	n/a	PROB	415699	n/a	LTP122	ltpFR	9	n/a	n/a	n/a	n/a	n/a	n/a	13	2	5	5	n/a	n/a	n/a	n/a	n/a
833.358	n/a	STOP	416679	n/a	LTP122	ltpFR	9	n/a	n/a	n/a	n/a	n/a	n/a	n/a	n/a	n/a	n/a	n/a	n/a	n/a	n/a	n/a
835.672	n/a	WORD	417836	wordpools/wasnorm_wordpool.txt	LTP122	ltpFR	9	3	0	CHEMICAL	291	n/a	0	n/a	0	0	0	1	0.412841796875	0.57763671875	lower	../fonts/zerothre.ttf
838.68	n/a	START	419340	n/a	LTP122	ltpFR	9	n/a	n/a	n/a	n/a	n/a	n/a	n/a	n/a	n/a	n/a	n/a	n/a	n/a	n/a	n/a
839.662	n/a	PROB	419831	n/a	LTP122	ltpFR	9	n/a	n/a	n/a	n/a	n/a	n/a	18	3	8	7	n/a	n/a	n/a	n/a	n/a
842.262	n/a	PROB	421131	n/a	LTP122	ltpFR	9	n/a	n/a	n/a	n/a	n/a	n/a	10	2	6	2	n/a	n/a	n/a	n/a	n/a
844.354	n/a	PROB	422177	n/a	LTP122	ltpFR	9	n/a	n/a	n/a	n/a	n/a	n/a	13	3	5	5	n/a	n/a	n/a	n/a	n/a
846.504	n/a	STOP	423252	n/a	LTP122	ltpFR	9	n/a	n/a	n/a	n/a	n/a	n/a	n/a	n/a	n/a	n/a	n/a	n/a	n/a	n/a	n/a
847.684	n/a	WORD	423842	wordpools/wasnorm_wordpool.txt	LTP122	ltpFR	9	3	0	ARTICLE	42	n/a	0	n/a	0	0	0	1	0.412841796875	0.57763671875	lower	../fonts/zerothre.ttf
850.692	n/a	START	425346	n/a	LTP122	ltpFR	9	n/a	n/a	n/a	n/a	n/a	n/a	n/a	n/a	n/a	n/a	n/a	n/a	n/a	n/a	n/a
851.824	n/a	PROB	425912	n/a	LTP122	ltpFR	9	n/a	n/a	n/a	n/a	n/a	n/a	16	3	4	9	n/a	n/a	n/a	n/a	n/a
853.576	n/a	PROB	426788	n/a	LTP122	ltpFR	9	n/a	n/a	n/a	n/a	n/a	n/a	12	1	8	3	n/a	n/a	n/a	n/a	n/a
855.284	n/a	PROB	427642	n/a	LTP122	ltpFR	9	n/a	n/a	n/a	n/a	n/a	n/a	16	8	2	6	n/a	n/a	n/a	n/a	n/a
858.694	n/a	STOP	429347	n/a	LTP122	ltpFR	9	n/a	n/a	n/a	n/a	n/a	n/a	n/a	n/a	n/a	n/a	n/a	n/a	n/a	n/a	n/a
859.822	n/a	WORD	429911	wordpools/wasnorm_wordpool.txt	LTP122	ltpFR	9	3	0	RADIATOR	1156	n/a	1	n/a	0	0	0	1	0.412841796875	0.57763671875	lower	../fonts/zerothre.ttf
862.83	n/a	START	431415	n/a	LTP122	ltpFR	9	n/a	n/a	n/a	n/a	n/a	n/a	n/a	n/a	n/a	n/a	n/a	n/a	n/a	n/a	n/a
864.022	n/a	PROB	432011	n/a	LTP122	ltpFR	9	n/a	n/a	n/a	n/a	n/a	n/a	19	1	9	9	n/a	n/a	n/a	n/a	n/a
865.446	n/a	PROB	432723	n/a	LTP122	ltpFR	9	n/a	n/a	n/a	n/a	n/a	n/a	20	5	8	5	n/a	n/a	n/a	n/a	n/a
870.83	n/a	STOP	435415	n/a	LTP122	ltpFR	9	n/a	n/a	n/a	n/a	n/a	n/a	n/a	n/a	n/a	n/a	n/a	n/a	n/a	n/a	n/a
871.752	n/a	WORD	435876	wordpools/wasnorm_wordpool.txt	LTP122	ltpFR	9	3	0	ORCHESTRA	981	n/a	1	n/a	0	0	0	1	0.412841796875	0.57763671875	lower	../fonts/zerothre.ttf
874.76	n/a	START	437380	n/a	LTP122	ltpFR	9	n/a	n/a	n/a	n/a	n/a	n/a	n/a	n/a	n/a	n/a	n/a	n/a	n/a	n/a	n/a
875.726	n/a	PROB	437863	n/a	LTP122	ltpFR	9	n/a	n/a	n/a	n/a	n/a	n/a	12	2	5	5	n/a	n/a	n/a	n/a	n/a
877.544	n/a	PROB	438772	n/a	LTP122	ltpFR	9	n/a	n/a	n/a	n/a	n/a	n/a	19	8	6	5	n/a	n/a	n/a	n/a	n/a
879.542	n/a	PROB	439771	n/a	LTP122	ltpFR	9	n/a	n/a	n/a	n/a	n/a	n/a	16	7	3	6	n/a	n/a	n/a	n/a	n/a
880.666	n/a	PROB	440333	n/a	LTP122	ltpFR	9	n/a	n/a	n/a	n/a	n/a	n/a	11	4	1	6	n/a	n/a	n/a	n/a	n/a
882.098	n/a	STOP	441049	n/a	LTP122	ltpFR	9	n/a	n/a	n/a	n/a	n/a	n/a	n/a	n/a	n/a	n/a	n/a	n/a	n/a	n/a	n/a
883.89	n/a	WORD	441945	wordpools/wasnorm_wordpool.txt	LTP122	ltpFR	9	3	0	FLUTE	585	n/a	0	n/a	0	0	0	1	0.412841796875	0.57763671875	lower	../fonts/zerothre.ttf
886.898	n/a	START	443449	n/a	LTP122	ltpFR	9	n/a	n/a	n/a	n/a	n/a	n/a	n/a	n/a	n/a	n/a	n/a	n/a	n/a	n/a	n/a
888.072	n/a	PROB	444036	n/a	LTP122	ltpFR	9	n/a	n/a	n/a	n/a	n/a	n/a	16	9	5	2	n/a	n/a	n/a	n/a	n/a
890.43	n/a	PROB	445215	n/a	LTP122	ltpFR	9	n/a	n/a	n/a	n/a	n/a	n/a	12	6	7	1	n/a	n/a	n/a	n/a	n/a
892.206	n/a	PROB	446103	n/a	LTP122	ltpFR	9	n/a	n/a	n/a	n/a	n/a	n/a	12	2	2	8	n/a	n/a	n/a	n/a	n/a
893.746	n/a	STOP	446873	n/a	LTP122	ltpFR	9	n/a	n/a	n/a	n/a	n/a	n/a	n/a	n/a	n/a	n/a	n/a	n/a	n/a	n/a	n/a
895.928	n/a	WORD	447964	wordpools/wasnorm_wordpool.txt	LTP122	ltpFR	9	3	0	CARRIAGE	248	n/a	1	n/a	0	0	0	1	0.412841796875	0.57763671875	lower	../fonts/zerothre.ttf
898.936	n/a	START	449468	n/a	LTP122	ltpFR	9	n/a	n/a	n/a	n/a	n/a	n/a	n/a	n/a	n/a	n/a	n/a	n/a	n/a	n/a	n/a
899.936	n/a	PROB	449968	n/a	LTP122	ltpFR	9	n/a	n/a	n/a	n/a	n/a	n/a	16	6	3	7	n/a	n/a	n/a	n/a	n/a
903.068	n/a	PROB	451534	n/a	LTP122	ltpFR	9	n/a	n/a	n/a	n/a	n/a	n/a	20	9	4	7	n/a	n/a	n/a	n/a	n/a
906.936	n/a	STOP	453468	n/a	LTP122	ltpFR	9	n/a	n/a	n/a	n/a	n/a	n/a	n/a	n/a	n/a	n/a	n/a	n/a	n/a	n/a	n/a
908.108	n/a	WORD	454054	wordpools/wasnorm_wordpool.txt	LTP122	ltpFR	9	3	0	NOTEBOOK	959	n/a	0	n/a	0	0	0	1	0.412841796875	0.57763671875	lower	../fonts/zerothre.ttf
911.126	n/a	START	455563	n/a	LTP122	ltpFR	9	n/a	n/a	n/a	n/a	n/a	n/a	n/a	n/a	n/a	n/a	n/a	n/a	n/a	n/a	n/a
912.05	n/a	PROB	456025	n/a	LTP122	ltpFR	9	n/a	n/a	n/a	n/a	n/a	n/a	16	5	5	6	n/a	n/a	n/a	n/a	n/a
913.366	n/a	PROB	456683	n/a	LTP122	ltpFR	9	n/a	n/a	n/a	n/a	n/a	n/a	22	6	7	9	n/a	n/a	n/a	n/a	n/a
915.432	n/a	PROB	457716	n/a	LTP122	ltpFR	9	n/a	n/a	n/a	n/a	n/a	n/a	12	5	1	6	n/a	n/a	n/a	n/a	n/a
917.114	n/a	PROB	458557	n/a	LTP122	ltpFR	9	n/a	n/a	n/a	n/a	n/a	n/a	18	6	9	3	n/a	n/a	n/a	n/a	n/a
918.714	n/a	STOP	459357	n/a	LTP122	ltpFR	9	n/a	n/a	n/a	n/a	n/a	n/a	n/a	n/a	n/a	n/a	n/a	n/a	n/a	n/a	n/a
920.146	n/a	WORD	460073	wordpools/wasnorm_wordpool.txt	LTP122	ltpFR	9	3	0	DRESSER	496	n/a	1	n/a	0	0	0	1	0.412841796875	0.57763671875	lower	../fonts/zerothre.ttf
923.154	n/a	START	461577	n/a	LTP122	ltpFR	9	n/a	n/a	n/a	n/a	n/a	n/a	n/a	n/a	n/a	n/a	n/a	n/a	n/a	n/a	n/a
924.02	n/a	PROB	462010	n/a	LTP122	ltpFR	9	n/a	n/a	n/a	n/a	n/a	n/a	12	4	2	6	n/a	n/a	n/a	n/a	n/a
926.07	n/a	PROB	463035	n/a	LTP122	ltpFR	9	n/a	n/a	n/a	n/a	n/a	n/a	16	6	4	6	n/a	n/a	n/a	n/a	n/a
927.402	n/a	PROB	463701	n/a	LTP122	ltpFR	9	n/a	n/a	n/a	n/a	n/a	n/a	23	6	8	9	n/a	n/a	n/a	n/a	n/a
929.706	n/a	STOP	464853	n/a	LTP122	ltpFR	9	n/a	n/a	n/a	n/a	n/a	n/a	n/a	n/a	n/a	n/a	n/a	n/a	n/a	n/a	n/a
931.976	n/a	WORD	465988	wordpools/wasnorm_wordpool.txt	LTP122	ltpFR	9	3	0	BUGGY	188	n/a	1	n/a	0	0	0	1	0.412841796875	0.57763671875	lower	../fonts/zerothre.ttf
934.984	n/a	START	467492	n/a	LTP122	ltpFR	9	n/a	n/a	n/a	n/a	n/a	n/a	n/a	n/a	n/a	n/a	n/a	n/a	n/a	n/a	n/a
935.8	n/a	PROB	467900	n/a	LTP122	ltpFR	9	n/a	n/a	n/a	n/a	n/a	n/a	14	6	5	3	n/a	n/a	n/a	n/a	n/a
937.442	n/a	PROB	468721	n/a	LTP122	ltpFR	9	n/a	n/a	n/a	n/a	n/a	n/a	12	4	3	5	n/a	n/a	n/a	n/a	n/a
939.282	n/a	PROB	469641	n/a	LTP122	ltpFR	9	n/a	n/a	n/a	n/a	n/a	n/a	20	9	2	9	n/a	n/a	n/a	n/a	n/a
942.524	n/a	STOP	471262	n/a	LTP122	ltpFR	9	n/a	n/a	n/a	n/a	n/a	n/a	n/a	n/a	n/a	n/a	n/a	n/a	n/a	n/a	n/a
944.888	n/a	REC_START	472444	n/a	LTP122	ltpFR	9	3	n/a	n/a	n/a	n/a	n/a	n/a	0	0	0	n/a	n/a	n/a	n/a	n/a
947.158	n/a	REC_WORD	473579	wordpools/wasnorm_wordpool.txt	LTP122	ltpFR	9	3	0	VEST	1559	n/a	1	n/a	0	0	0	n/a	n/a	n/a	n/a	n/a
947.886	n/a	REC_WORD	473943	wordpools/wasnorm_wordpool.txt	LTP122	ltpFR	9	3	0	PANTS	1010	n/a	1	n/a	0	0	0	n/a	n/a	n/a	n/a	n/a
948.894	n/a	REC_WORD	474447	wordpools/wasnorm_wordpool.txt	LTP122	ltpFR	9	3	0	MUG	930	n/a	0	n/a	0	0	0	n/a	n/a	n/a	n/a	n/a
949.504	n/a	REC_WORD	474752	wordpools/wasnorm_wordpool.txt	LTP122	ltpFR	9	3	0	RUST	1219	n/a	0	n/a	0	0	0	n/a	n/a	n/a	n/a	n/a
950.192	n/a	REC_WORD	475096	wordpools/wasnorm_wordpool.txt	LTP122	ltpFR	9	3	0	STRAW	1390	n/a	0	n/a	0	0	0	n/a	n/a	n/a	n/a	n/a
952.058	n/a	REC_WORD	476029	wordpools/wasnorm_wordpool.txt	LTP122	ltpFR	9	3	0	GOVERNOR	651	n/a	1	n/a	0	0	0	n/a	n/a	n/a	n/a	n/a
952.986	n/a	REC_WORD	476493	wordpools/wasnorm_wordpool.txt	LTP122	ltpFR	9	3	0	ARTICLE	42	n/a	0	n/a	0	0	0	n/a	n/a	n/a	n/a	n/a
953.784	n/a	REC_WORD	476892	wordpools/wasnorm_wordpool.txt	LTP122	ltpFR	9	3	0	NOTEBOOK	959	n/a	0	n/a	0	0	0	n/a	n/a	n/a	n/a	n/a
954.582	n/a	REC_WORD	477291	wordpools/wasnorm_wordpool.txt	LTP122	ltpFR	9	3	0	CHEMICAL	291	n/a	0	n/a	0	0	0	n/a	n/a	n/a	n/a	n/a
955.458	n/a	REC_WORD	477729	wordpools/wasnorm_wordpool.txt	LTP122	ltpFR	9	3	0	FLUTE	585	n/a	0	n/a	0	0	0	n/a	n/a	n/a	n/a	n/a
957.586	n/a	REC_WORD	478793	wordpools/wasnorm_wordpool.txt	LTP122	ltpFR	9	3	0	CARRIAGE	248	n/a	1	n/a	0	0	0	n/a	n/a	n/a	n/a	n/a
958.384	n/a	REC_WORD	479192	wordpools/wasnorm_wordpool.txt	LTP122	ltpFR	9	3	0	BUGGY	188	n/a	1	n/a	0	0	0	n/a	n/a	n/a	n/a	n/a
960.03	n/a	REC_WORD	480015	wordpools/wasnorm_wordpool.txt	LTP122	ltpFR	9	3	0	ORCHESTRA	981	n/a	1	n/a	0	0	0	n/a	n/a	n/a	n/a	n/a
961.966	n/a	REC_WORD	480983	wordpools/wasnorm_wordpool.txt	LTP122	ltpFR	9	3	0	DRESSER	496	n/a	1	n/a	0	0	0	n/a	n/a	n/a	n/a	n/a
971.006	n/a	REC_WORD	485503	wordpools/wasnorm_wordpool.txt	LTP122	ltpFR	9	3	0	DRIVEWAY	500	n/a	1	n/a	0	0	0	n/a	n/a	n/a	n/a	n/a
1023.856	n/a	WORD	511928	wordpools/wasnorm_wordpool.txt	LTP122	ltpFR	9	4	1	DONKEY	484	n/a	1	n/a	0	0	0	0	0.5869140625	0.422607421875	upper	../fonts/amplitud.ttf
1028.04	n/a	WORD	514020	wordpools/wasnorm_wordpool.txt	LTP122	ltpFR	9	4	1	POSTAGE	1113	n/a	0	n/a	0	0	0	0	0.5869140625	0.422607421875	upper	../fonts/amplitud.ttf
1031.862	n/a	WORD	515931	wordpools/wasnorm_wordpool.txt	LTP122	ltpFR	9	4	1	SEASHORE	1263	n/a	0	n/a	0	0	0	0	0.5869140625	0.422607421875	upper	../fonts/amplitud.ttf
1035.702	n/a	WORD	517851	wordpools/wasnorm_wordpool.txt	LTP122	ltpFR	9	4	1	CHEMIST	292	n/a	1	n/a	0	0	0	0	0.5869140625	0.422607421875	upper	../fonts/amplitud.ttf
1039.86	n/a	WORD	519930	wordpools/wasnorm_wordpool.txt	LTP122	ltpFR	9	4	1	HOOD	714	n/a	0	n/a	0	0	0	0	0.5869140625	0.422607421875	upper	../fonts/amplitud.ttf
1043.8	n/a	WORD	521900	wordpools/wasnorm_wordpool.txt	LTP122	ltpFR	9	4	1	GRADUATE	653	n/a	1	n/a	0	0	0	0	0.5869140625	0.422607421875	upper	../fonts/amplitud.ttf
1047.65	n/a	WORD	523825	wordpools/wasnorm_wordpool.txt	LTP122	ltpFR	9	4	0	FRAME	600	n/a	0	n/a	0	0	0	1	0.412841796875	0.57763671875	lower	../fonts/zerothre.ttf
1051.814	n/a	WORD	525907	wordpools/wasnorm_wordpool.txt	LTP122	ltpFR	9	4	0	CHART	282	n/a	0	n/a	0	0	0	1	0.412841796875	0.57763671875	lower	../fonts/zerothre.ttf
1055.804	n/a	WORD	527902	wordpools/wasnorm_wordpool.txt	LTP122	ltpFR	9	4	1	NERVE	944	n/a	0	n/a	0	0	0	0	0.5869140625	0.422607421875	upper	../fonts/amplitud.ttf
1059.87	n/a	WORD	529935	wordpools/wasnorm_wordpool.txt	LTP122	ltpFR	9	4	1	TAXI	1438	n/a	1	n/a	0	0	0	0	0.5869140625	0.422607421875	upper	../fonts/amplitud.ttf
1063.868	n/a	WORD	531934	wordpools/wasnorm_wordpool.txt	LTP122	ltpFR	9	4	0	DUNE	506	n/a	1	n/a	0	0	0	1	0.412841796875	0.57763671875	lower	../fonts/zerothre.ttf
1068.02	n/a	WORD	534010	wordpools/wasnorm_wordpool.txt	LTP122	ltpFR	9	4	0	FEAST	556	n/a	1	n/a	0	0	0	1	0.412841796875	0.57763671875	lower	../fonts/zerothre.ttf
1071.984	n/a	WORD	535992	wordpools/wasnorm_wordpool.txt	LTP122	ltpFR	9	4	0	NAPKIN	937	n/a	0	n/a	0	0	0	1	0.412841796875	0.57763671875	lower	../fonts/zerothre.ttf
1075.982	n/a	WORD	537991	wordpools/wasnorm_wordpool.txt	LTP122	ltpFR	9	4	0	SPACE	1345	n/a	1	n/a	0	0	0	1	0.412841796875	0.57763671875	lower	../fonts/zerothre.ttf
1079.83	n/a	WORD	539915	wordpools/wasnorm_wordpool.txt	LTP122	ltpFR	9	4	0	DETECTIVE	454	n/a	1	n/a	0	0	0	1	0.412841796875	0.57763671875	lower	../fonts/zerothre.ttf
1083.962	n/a	WORD	541981	wordpools/wasnorm_wordpool.txt	LTP122	ltpFR	9	4	0	SHERIFF	1284	n/a	1	n/a	0	0	0	1	0.412841796875	0.57763671875	lower	../fonts/zerothre.ttf
1089.812	n/a	REC_START	544906	n/a	LTP122	ltpFR	9	4	n/a	n/a	n/a	n/a	n/a	n/a	0	0	0	n/a	n/a	n/a	n/a	n/a
1091.26	n/a	REC_WORD	545630	wordpools/wasnorm_wordpool.txt	LTP122	ltpFR	9	4	1	DONKEY	484	n/a	1	n/a	0	0	0	n/a	n/a	n/a	n/a	n/a
1091.982	n/a	REC_WORD	545991	wordpools/wasnorm_wordpool.txt	LTP122	ltpFR	9	4	1	POSTAGE	1113	n/a	0	n/a	0	0	0	n/a	n/a	n/a	n/a	n/a
1092.88	n/a	REC_WORD	546440	wordpools/wasnorm_wordpool.txt	LTP122	ltpFR	9	4	1	SEASHORE	1263	n/a	0	n/a	0	0	0	n/a	n/a	n/a	n/a	n/a
1094.158	n/a	REC_WORD	547079	wordpools/wasnorm_wordpool.txt	LTP122	ltpFR	9	4	1	CHEMIST	292	n/a	1	n/a	0	0	0	n/a	n/a	n/a	n/a	n/a
1095.026	n/a	REC_WORD	547513	wordpools/wasnorm_wordpool.txt	LTP122	ltpFR	9	4	1	HOOD	714	n/a	0	n/a	0	0	0	n/a	n/a	n/a	n/a	n/a
1095.774	n/a	REC_WORD	547887	wordpools/wasnorm_wordpool.txt	LTP122	ltpFR	9	4	1	GRADUATE	653	n/a	1	n/a	0	0	0	n/a	n/a	n/a	n/a	n/a
1097.31	n/a	REC_WORD	548655	wordpools/wasnorm_wordpool.txt	LTP122	ltpFR	9	4	0	FRAME	600	n/a	0	n/a	0	0	0	n/a	n/a	n/a	n/a	n/a
1098.208	n/a	REC_WORD	549104	wordpools/wasnorm_wordpool.txt	LTP122	ltpFR	9	4	0	CHART	282	n/a	0	n/a	0	0	0	n/a	n/a	n/a	n/a	n/a
1099.116	n/a	REC_WORD	549558	wordpools/wasnorm_wordpool.txt	LTP122	ltpFR	9	4	1	NERVE	944	n/a	0	n/a	0	0	0	n/a	n/a	n/a	n/a	n/a
1102.968	n/a	REC_WORD	551484	wordpools/wasnorm_wordpool.txt	LTP122	ltpFR	9	4	0	FEAST	556	n/a	1	n/a	0	0	0	n/a	n/a	n/a	n/a	n/a
1103.798	n/a	REC_WORD	551899	wordpools/wasnorm_wordpool.txt	LTP122	ltpFR	9	4	0	SPACE	1345	n/a	1	n/a	0	0	0	n/a	n/a	n/a	n/a	n/a
1104.664	n/a	REC_WORD	552332	wordpools/wasnorm_wordpool.txt	LTP122	ltpFR	9	4	0	NAPKIN	937	n/a	0	n/a	0	0	0	n/a	n/a	n/a	n/a	n/a
1107.966	n/a	REC_WORD	553983	wordpools/wasnorm_wordpool.txt	LTP122	ltpFR	9	4	0	DETECTIVE	454	n/a	1	n/a	0	0	0	n/a	n/a	n/a	n/a	n/a
1108.614	n/a	REC_WORD	554307	wordpools/wasnorm_wordpool.txt	LTP122	ltpFR	9	4	0	SHERIFF	1284	n/a	1	n/a	0	0	0	n/a	n/a	n/a	n/a	n/a
1169.73	n/a	START	584865	n/a	LTP122	ltpFR	9	n/a	n/a	n/a	n/a	n/a	n/a	n/a	n/a	n/a	n/a	n/a	n/a	n/a	n/a	n/a
1171.23	n/a	PROB	585615	n/a	LTP122	ltpFR	9	n/a	n/a	n/a	n/a	n/a	n/a	5	2	2	1	n/a	n/a	n/a	n/a	n/a
1172.636	n/a	PROB	586318	n/a	LTP122	ltpFR	9	n/a	n/a	n/a	n/a	n/a	n/a	16	1	7	8	n/a	n/a	n/a	n/a	n/a
1173.986	n/a	PROB	586993	n/a	LTP122	ltpFR	9	n/a	n/a	n/a	n/a	n/a	n/a	16	9	2	5	n/a	n/a	n/a	n/a	n/a
1176.91	n/a	PROB	588455	n/a	LTP122	ltpFR	9	n/a	n/a	n/a	n/a	n/a	n/a	9	1	5	3	n/a	n/a	n/a	n/a	n/a
1180.81	n/a	PROB	590405	n/a	LTP122	ltpFR	9	n/a	n/a	n/a	n/a	n/a	n/a	8	2	2	4	n/a	n/a	n/a	n/a	n/a
1182.134	n/a	PROB	591067	n/a	LTP122	ltpFR	9	n/a	n/a	n/a	n/a	n/a	n/a	22	8	8	4	n/a	n/a	n/a	n/a	n/a
1185.73	n/a	STOP	592865	n/a	LTP122	ltpFR	9	n/a	n/a	n/a	n/a	n/a	n/a	n/a	n/a	n/a	n/a	n/a	n/a	n/a	n/a	n/a
1186.698	n/a	WORD	593349	wordpools/wasnorm_wordpool.txt	LTP122	ltpFR	9	5	0	CLASS	318	n/a	1	n/a	0	0	0	1	0.412841796875	0.57763671875	lower	../fonts/zerothre.ttf
1189.706	n/a	START	594853	n/a	LTP122	ltpFR	9	n/a	n/a	n/a	n/a	n/a	n/a	n/a	n/a	n/a	n/a	n/a	n/a	n/a	n/a	n/a
1190.772	n/a	PROB	595386	n/a	LTP122	ltpFR	9	n/a	n/a	n/a	n/a	n/a	n/a	21	9	6	6	n/a	n/a	n/a	n/a	n/a
1192.59	n/a	PROB	596295	n/a	LTP122	ltpFR	9	n/a	n/a	n/a	n/a	n/a	n/a	18	1	8	9	n/a	n/a	n/a	n/a	n/a
1194.13	n/a	PROB	597065	n/a	LTP122	ltpFR	9	n/a	n/a	n/a	n/a	n/a	n/a	23	8	9	7	n/a	n/a	n/a	n/a	n/a
1198.212	n/a	PROB	599106	n/a	LTP122	ltpFR	9	n/a	n/a	n/a	n/a	n/a	n/a	18	6	8	4	n/a	n/a	n/a	n/a	n/a
1201.538	n/a	PROB	600769	n/a	LTP122	ltpFR	9	n/a	n/a	n/a	n/a	n/a	n/a	18	8	9	1	n/a	n/a	n/a	n/a	n/a
1203.27	n/a	PROB	601635	n/a	LTP122	ltpFR	9	n/a	n/a	n/a	n/a	n/a	n/a	15	3	3	9	n/a	n/a	n/a	n/a	n/a
1204.866	n/a	STOP	602433	n/a	LTP122	ltpFR	9	n/a	n/a	n/a	n/a	n/a	n/a	n/a	n/a	n/a	n/a	n/a	n/a	n/a	n/a	n/a
1206.81	n/a	WORD	603405	wordpools/wasnorm_wordpool.txt	LTP122	ltpFR	9	5	0	SKIRT	1319	n/a	1	n/a	0	0	0	1	0.412841796875	0.57763671875	lower	../fonts/zerothre.ttf
1209.818	n/a	START	604909	n/a	LTP122	ltpFR	9	n/a	n/a	n/a	n/a	n/a	n/a	n/a	n/a	n/a	n/a	n/a	n/a	n/a	n/a	n/a
1210.75	n/a	PROB	605375	n/a	LTP122	ltpFR	9	n/a	n/a	n/a	n/a	n/a	n/a	7	3	1	3	n/a	n/a	n/a	n/a	n/a
1213.332	n/a	PROB	606666	n/a	LTP122	ltpFR	9	n/a	n/a	n/a	n/a	n/a	n/a	20	7	6	7	n/a	n/a	n/a	n/a	n/a
1216.19	n/a	PROB	608095	n/a	LTP122	ltpFR	9	n/a	n/a	n/a	n/a	n/a	n/a	17	5	9	3	n/a	n/a	n/a	n/a	n/a
1217.964	n/a	PROB	608982	n/a	LTP122	ltpFR	9	n/a	n/a	n/a	n/a	n/a	n/a	24	8	7	9	n/a	n/a	n/a	n/a	n/a
1220.748	n/a	PROB	610374	n/a	LTP122	ltpFR	9	n/a	n/a	n/a	n/a	n/a	n/a	20	3	9	8	n/a	n/a	n/a	n/a	n/a
1223.014	n/a	PROB	611507	n/a	LTP122	ltpFR	9	n/a	n/a	n/a	n/a	n/a	n/a	25	6	7	8	n/a	n/a	n/a	n/a	n/a
1225.532	n/a	STOP	612766	n/a	LTP122	ltpFR	9	n/a	n/a	n/a	n/a	n/a	n/a	n/a	n/a	n/a	n/a	n/a	n/a	n/a	n/a	n/a
1226.662	n/a	WORD	613331	wordpools/wasnorm_wordpool.txt	LTP122	ltpFR	9	5	1	CART	250	n/a	0	n/a	0	0	0	0	0.5869140625	0.422607421875	upper	../fonts/amplitud.ttf
1229.67	n/a	START	614835	n/a	LTP122	ltpFR	9	n/a	n/a	n/a	n/a	n/a	n/a	n/a	n/a	n/a	n/a	n/a	n/a	n/a	n/a	n/a
1230.636	n/a	PROB	615318	n/a	LTP122	ltpFR	9	n/a	n/a	n/a	n/a	n/a	n/a	29	5	7	6	n/a	n/a	n/a	n/a	n/a
1234.318	n/a	PROB	617159	n/a	LTP122	ltpFR	9	n/a	n/a	n/a	n/a	n/a	n/a	19	1	9	9	n/a	n/a	n/a	n/a	n/a
1236.36	n/a	PROB	618180	n/a	LTP122	ltpFR	9	n/a	n/a	n/a	n/a	n/a	n/a	15	2	8	5	n/a	n/a	n/a	n/a	n/a
1237.916	n/a	PROB	618958	n/a	LTP122	ltpFR	9	n/a	n/a	n/a	n/a	n/a	n/a	17	4	8	5	n/a	n/a	n/a	n/a	n/a
1240.284	n/a	PROB	620142	n/a	LTP122	ltpFR	9	n/a	n/a	n/a	n/a	n/a	n/a	13	3	6	4	n/a	n/a	n/a	n/a	n/a
1242.008	n/a	PROB	621004	n/a	LTP122	ltpFR	9	n/a	n/a	n/a	n/a	n/a	n/a	12	1	5	7	n/a	n/a	n/a	n/a	n/a
1244.724	n/a	STOP	622362	n/a	LTP122	ltpFR	9	n/a	n/a	n/a	n/a	n/a	n/a	n/a	n/a	n/a	n/a	n/a	n/a	n/a	n/a	n/a
1246.664	n/a	WORD	623332	wordpools/wasnorm_wordpool.txt	LTP122	ltpFR	9	5	1	WHALE	1601	n/a	1	n/a	0	0	0	0	0.5869140625	0.422607421875	upper	../fonts/amplitud.ttf
1249.672	n/a	START	624836	n/a	LTP122	ltpFR	9	n/a	n/a	n/a	n/a	n/a	n/a	n/a	n/a	n/a	n/a	n/a	n/a	n/a	n/a	n/a
1250.754	n/a	PROB	625377	n/a	LTP122	ltpFR	9	n/a	n/a	n/a	n/a	n/a	n/a	12	3	8	1	n/a	n/a	n/a	n/a	n/a
1253.67	n/a	PROB	626835	n/a	LTP122	ltpFR	9	n/a	n/a	n/a	n/a	n/a	n/a	10	1	3	6	n/a	n/a	n/a	n/a	n/a
1255.212	n/a	PROB	627606	n/a	LTP122	ltpFR	9	n/a	n/a	n/a	n/a	n/a	n/a	9	2	3	4	n/a	n/a	n/a	n/a	n/a
1256.718	n/a	PROB	628359	n/a	LTP122	ltpFR	9	n/a	n/a	n/a	n/a	n/a	n/a	6	1	1	4	n/a	n/a	n/a	n/a	n/a
1258.436	n/a	PROB	629218	n/a	LTP122	ltpFR	9	n/a	n/a	n/a	n/a	n/a	n/a	20	8	3	9	n/a	n/a	n/a	n/a	n/a
1261.544	n/a	PROB	630772	n/a	LTP122	ltpFR	9	n/a	n/a	n/a	n/a	n/a	n/a	21	6	9	6	n/a	n/a	n/a	n/a	n/a
1263.294	n/a	PROB	631647	n/a	LTP122	ltpFR	9	n/a	n/a	n/a	n/a	n/a	n/a	15	9	1	5	n/a	n/a	n/a	n/a	n/a
1265.462	n/a	STOP	632731	n/a	LTP122	ltpFR	9	n/a	n/a	n/a	n/a	n/a	n/a	n/a	n/a	n/a	n/a	n/a	n/a	n/a	n/a	n/a
1266.534	n/a	WORD	633267	wordpools/wasnorm_wordpool.txt	LTP122	ltpFR	9	5	1	SHARK	1275	n/a	1	n/a	0	0	0	0	0.5869140625	0.422607421875	upper	../fonts/amplitud.ttf
1269.542	n/a	START	634771	n/a	LTP122	ltpFR	9	n/a	n/a	n/a	n/a	n/a	n/a	n/a	n/a	n/a	n/a	n/a	n/a	n/a	n/a	n/a
1270.508	n/a	PROB	635254	n/a	LTP122	ltpFR	9	n/a	n/a	n/a	n/a	n/a	n/a	18	8	6	4	n/a	n/a	n/a	n/a	n/a
1272.88	n/a	PROB	636440	n/a	LTP122	ltpFR	9	n/a	n/a	n/a	n/a	n/a	n/a	17	7	7	3	n/a	n/a	n/a	n/a	n/a
1275.646	n/a	PROB	637823	n/a	LTP122	ltpFR	9	n/a	n/a	n/a	n/a	n/a	n/a	13	2	9	2	n/a	n/a	n/a	n/a	n/a
1277.43	n/a	PROB	638715	n/a	LTP122	ltpFR	9	n/a	n/a	n/a	n/a	n/a	n/a	11	2	6	3	n/a	n/a	n/a	n/a	n/a
1279.712	n/a	PROB	639856	n/a	LTP122	ltpFR	9	n/a	n/a	n/a	n/a	n/a	n/a	14	2	8	4	n/a	n/a	n/a	n/a	n/a
1281.588	n/a	PROB	640794	n/a	LTP122	ltpFR	9	n/a	n/a	n/a	n/a	n/a	n/a	14	2	4	8	n/a	n/a	n/a	n/a	n/a
1283.478	n/a	PROB	641739	n/a	LTP122	ltpFR	9	n/a	n/a	n/a	n/a	n/a	n/a	10	2	3	5	n/a	n/a	n/a	n/a	n/a
1285.046	n/a	STOP	642523	n/a	LTP122	ltpFR	9	n/a	n/a	n/a	n/a	n/a	n/a	n/a	n/a	n/a	n/a	n/a	n/a	n/a	n/a	n/a
1286.726	n/a	WORD	643363	wordpools/wasnorm_wordpool.txt	LTP122	ltpFR	9	5	1	BLUEPRINT	142	n/a	0	n/a	0	0	0	0	0.5869140625	0.422607421875	upper	../fonts/amplitud.ttf
1289.734	n/a	START	644867	n/a	LTP122	ltpFR	9	n/a	n/a	n/a	n/a	n/a	n/a	n/a	n/a	n/a	n/a	n/a	n/a	n/a	n/a	n/a
1290.916	n/a	PROB	645458	n/a	LTP122	ltpFR	9	n/a	n/a	n/a	n/a	n/a	n/a	15	5	9	1	n/a	n/a	n/a	n/a	n/a
1292.542	n/a	PROB	646271	n/a	LTP122	ltpFR	9	n/a	n/a	n/a	n/a	n/a	n/a	15	6	7	2	n/a	n/a	n/a	n/a	n/a
1294.2	n/a	PROB	647100	n/a	LTP122	ltpFR	9	n/a	n/a	n/a	n/a	n/a	n/a	12	2	9	1	n/a	n/a	n/a	n/a	n/a
1295.782	n/a	PROB	647891	n/a	LTP122	ltpFR	9	n/a	n/a	n/a	n/a	n/a	n/a	24	7	9	6	n/a	n/a	n/a	n/a	n/a
1299.74	n/a	PROB	649870	n/a	LTP122	ltpFR	9	n/a	n/a	n/a	n/a	n/a	n/a	18	5	9	4	n/a	n/a	n/a	n/a	n/a
1302.348	n/a	PROB	651174	n/a	LTP122	ltpFR	9	n/a	n/a	n/a	n/a	n/a	n/a	11	6	1	4	n/a	n/a	n/a	n/a	n/a
1304.63	n/a	STOP	652315	n/a	LTP122	ltpFR	9	n/a	n/a	n/a	n/a	n/a	n/a	n/a	n/a	n/a	n/a	n/a	n/a	n/a	n/a	n/a
1306.828	n/a	WORD	653414	wordpools/wasnorm_wordpool.txt	LTP122	ltpFR	9	5	1	PENGUIN	1044	n/a	1	n/a	0	0	0	0	0.5869140625	0.422607421875	upper	../fonts/amplitud.ttf
1309.836	n/a	START	654918	n/a	LTP122	ltpFR	9	n/a	n/a	n/a	n/a	n/a	n/a	n/a	n/a	n/a	n/a	n/a	n/a	n/a	n/a	n/a
1310.994	n/a	PROB	655497	n/a	LTP122	ltpFR	9	n/a	n/a	n/a	n/a	n/a	n/a	12	4	3	5	n/a	n/a	n/a	n/a	n/a
1313.942	n/a	PROB	656971	n/a	LTP122	ltpFR	9	n/a	n/a	n/a	n/a	n/a	n/a	10	7	2	1	n/a	n/a	n/a	n/a	n/a
1316.618	n/a	PROB	658309	n/a	LTP122	ltpFR	9	n/a	n/a	n/a	n/a	n/a	n/a	16	7	3	6	n/a	n/a	n/a	n/a	n/a
1318.634	n/a	PROB	659317	n/a	LTP122	ltpFR	9	n/a	n/a	n/a	n/a	n/a	n/a	20	9	3	8	n/a	n/a	n/a	n/a	n/a
1320.418	n/a	PROB	660209	n/a	LTP122	ltpFR	9	n/a	n/a	n/a	n/a	n/a	n/a	15	7	7	1	n/a	n/a	n/a	n/a	n/a
1321.792	n/a	PROB	660896	n/a	LTP122	ltpFR	9	n/a	n/a	n/a	n/a	n/a	n/a	16	7	4	3	n/a	n/a	n/a	n/a	n/a
1325.838	n/a	STOP	662919	n/a	LTP122	ltpFR	9	n/a	n/a	n/a	n/a	n/a	n/a	n/a	n/a	n/a	n/a	n/a	n/a	n/a	n/a	n/a
1326.848	n/a	WORD	663424	wordpools/wasnorm_wordpool.txt	LTP122	ltpFR	9	5	0	SHIRT	1287	n/a	2	n/a	0	0	0	1	0.412841796875	0.57763671875	lower	../fonts/zerothre.ttf
1327.772	n/a	KEY_MSG	663886	n/a	LTP122	ltpFR	9	5	n/a	n/a	n/a	n/a	n/a	n/a	0	0	0	n/a	n/a	n/a	n/a	n/a
1329.856	n/a	START	664928	n/a	LTP122	ltpFR	9	n/a	n/a	n/a	n/a	n/a	n/a	n/a	n/a	n/a	n/a	n/a	n/a	n/a	n/a	n/a
1331.03	n/a	PROB	665515	n/a	LTP122	ltpFR	9	n/a	n/a	n/a	n/a	n/a	n/a	12	1	3	8	n/a	n/a	n/a	n/a	n/a
1334.272	n/a	PROB	667136	n/a	LTP122	ltpFR	9	n/a	n/a	n/a	n/a	n/a	n/a	19	4	7	6	n/a	n/a	n/a	n/a	n/a
1336.054	n/a	PROB	668027	n/a	LTP122	ltpFR	9	n/a	n/a	n/a	n/a	n/a	n/a	8	4	3	1	n/a	n/a	n/a	n/a	n/a
1337.904	n/a	PROB	668952	n/a	LTP122	ltpFR	9	n/a	n/a	n/a	n/a	n/a	n/a	17	9	4	4	n/a	n/a	n/a	n/a	n/a
1339.486	n/a	PROB	669743	n/a	LTP122	ltpFR	9	n/a	n/a	n/a	n/a	n/a	n/a	17	9	5	3	n/a	n/a	n/a	n/a	n/a
1341.612	n/a	PROB	670806	n/a	LTP122	ltpFR	9	n/a	n/a	n/a	n/a	n/a	n/a	14	5	5	4	n/a	n/a	n/a	n/a	n/a
1342.96	n/a	PROB	671480	n/a	LTP122	ltpFR	9	n/a	n/a	n/a	n/a	n/a	n/a	13	2	7	4	n/a	n/a	n/a	n/a	n/a
1344.434	n/a	STOP	672217	n/a	LTP122	ltpFR	9	n/a	n/a	n/a	n/a	n/a	n/a	n/a	n/a	n/a	n/a	n/a	n/a	n/a	n/a	n/a
1346.774	n/a	WORD	673387	wordpools/wasnorm_wordpool.txt	LTP122	ltpFR	9	5	0	STONE	1385	n/a	0	n/a	0	0	0	1	0.412841796875	0.57763671875	lower	../fonts/zerothre.ttf
1349.782	n/a	START	674891	n/a	LTP122	ltpFR	9	n/a	n/a	n/a	n/a	n/a	n/a	n/a	n/a	n/a	n/a	n/a	n/a	n/a	n/a	n/a
1350.974	n/a	PROB	675487	n/a	LTP122	ltpFR	9	n/a	n/a	n/a	n/a	n/a	n/a	16	5	5	6	n/a	n/a	n/a	n/a	n/a
1353.606	n/a	PROB	676803	n/a	LTP122	ltpFR	9	n/a	n/a	n/a	n/a	n/a	n/a	9	5	1	3	n/a	n/a	n/a	n/a	n/a
1355.166	n/a	PROB	677583	n/a	LTP122	ltpFR	9	n/a	n/a	n/a	n/a	n/a	n/a	14	9	4	1	n/a	n/a	n/a	n/a	n/a
1356.714	n/a	PROB	678357	n/a	LTP122	ltpFR	9	n/a	n/a	n/a	n/a	n/a	n/a	15	6	5	4	n/a	n/a	n/a	n/a	n/a
1358.282	n/a	PROB	679141	n/a	LTP122	ltpFR	9	n/a	n/a	n/a	n/a	n/a	n/a	17	9	3	5	n/a	n/a	n/a	n/a	n/a
1359.88	n/a	PROB	679940	n/a	LTP122	ltpFR	9	n/a	n/a	n/a	n/a	n/a	n/a	17	7	7	3	n/a	n/a	n/a	n/a	n/a
1361.92	n/a	PROB	680960	n/a	LTP122	ltpFR	9	n/a	n/a	n/a	n/a	n/a	n/a	10	3	5	2	n/a	n/a	n/a	n/a	n/a
1363.43	n/a	PROB	681715	n/a	LTP122	ltpFR	9	n/a	n/a	n/a	n/a	n/a	n/a	10	1	7	2	n/a	n/a	n/a	n/a	n/a
1365.186	n/a	STOP	682593	n/a	LTP122	ltpFR	9	n/a	n/a	n/a	n/a	n/a	n/a	n/a	n/a	n/a	n/a	n/a	n/a	n/a	n/a	n/a
1366.728	n/a	WORD	683364	wordpools/wasnorm_wordpool.txt	LTP122	ltpFR	9	5	1	HERO	706	n/a	1	n/a	0	0	0	0	0.5869140625	0.422607421875	upper	../fonts/amplitud.ttf
1369.734	n/a	START	684867	n/a	LTP122	ltpFR	9	n/a	n/a	n/a	n/a	n/a	n/a	n/a	n/a	n/a	n/a	n/a	n/a	n/a	n/a	n/a
1370.626	n/a	PROB	685313	n/a	LTP122	ltpFR	9	n/a	n/a	n/a	n/a	n/a	n/a	25	9	7	9	n/a	n/a	n/a	n/a	n/a
1373.176	n/a	PROB	686588	n/a	LTP122	ltpFR	9	n/a	n/a	n/a	n/a	n/a	n/a	4	2	1	1	n/a	n/a	n/a	n/a	n/a
1375.026	n/a	PROB	687513	n/a	LTP122	ltpFR	9	n/a	n/a	n/a	n/a	n/a	n/a	22	9	9	3	n/a	n/a	n/a	n/a	n/a
1376.958	n/a	PROB	688479	n/a	LTP122	ltpFR	9	n/a	n/a	n/a	n/a	n/a	n/a	16	7	2	7	n/a	n/a	n/a	n/a	n/a
1379.092	n/a	PROB	689546	n/a	LTP122	ltpFR	9	n/a	n/a	n/a	n/a	n/a	n/a	15	7	2	6	n/a	n/a	n/a	n/a	n/a
1381.05	n/a	PROB	690525	n/a	LTP122	ltpFR	9	n/a	n/a	n/a	n/a	n/a	n/a	8	1	3	4	n/a	n/a	n/a	n/a	n/a
1382.54	n/a	PROB	691270	n/a	LTP122	ltpFR	9	n/a	n/a	n/a	n/a	n/a	n/a	17	6	9	2	n/a	n/a	n/a	n/a	n/a
1384.3	n/a	STOP	692150	n/a	LTP122	ltpFR	9	n/a	n/a	n/a	n/a	n/a	n/a	n/a	n/a	n/a	n/a	n/a	n/a	n/a	n/a	n/a
1386.838	n/a	WORD	693419	wordpools/wasnorm_wordpool.txt	LTP122	ltpFR	9	5	1	POTATO	1115	n/a	0	n/a	0	0	0	0	0.5869140625	0.422607421875	upper	../fonts/amplitud.ttf
1389.846	n/a	START	694923	n/a	LTP122	ltpFR	9	n/a	n/a	n/a	n/a	n/a	n/a	n/a	n/a	n/a	n/a	n/a	n/a	n/a	n/a	n/a
1390.904	n/a	PROB	695452	n/a	LTP122	ltpFR	9	n/a	n/a	n/a	n/a	n/a	n/a	13	6	6	1	n/a	n/a	n/a	n/a	n/a
1393.546	n/a	PROB	696773	n/a	LTP122	ltpFR	9	n/a	n/a	n/a	n/a	n/a	n/a	8	5	2	1	n/a	n/a	n/a	n/a	n/a
1395.42	n/a	PROB	697710	n/a	LTP122	ltpFR	9	n/a	n/a	n/a	n/a	n/a	n/a	22	9	6	7	n/a	n/a	n/a	n/a	n/a
1398.902	n/a	PROB	699451	n/a	LTP122	ltpFR	9	n/a	n/a	n/a	n/a	n/a	n/a	10	1	4	5	n/a	n/a	n/a	n/a	n/a
1400.61	n/a	PROB	700305	n/a	LTP122	ltpFR	9	n/a	n/a	n/a	n/a	n/a	n/a	22	5	7	9	n/a	n/a	n/a	n/a	n/a
1405.846	n/a	STOP	702923	n/a	LTP122	ltpFR	9	n/a	n/a	n/a	n/a	n/a	n/a	n/a	n/a	n/a	n/a	n/a	n/a	n/a	n/a	n/a
1406.906	n/a	WORD	703453	wordpools/wasnorm_wordpool.txt	LTP122	ltpFR	9	5	1	VEGETABLE	1552	n/a	0	n/a	0	0	0	0	0.5869140625	0.422607421875	upper	../fonts/amplitud.ttf
1409.914	n/a	START	704957	n/a	LTP122	ltpFR	9	n/a	n/a	n/a	n/a	n/a	n/a	n/a	n/a	n/a	n/a	n/a	n/a	n/a	n/a	n/a
1410.796	n/a	PROB	705398	n/a	LTP122	ltpFR	9	n/a	n/a	n/a	n/a	n/a	n/a	12	4	1	7	n/a	n/a	n/a	n/a	n/a
1412.83	n/a	PROB	706415	n/a	LTP122	ltpFR	9	n/a	n/a	n/a	n/a	n/a	n/a	13	7	1	5	n/a	n/a	n/a	n/a	n/a
1415.438	n/a	PROB	707719	n/a	LTP122	ltpFR	9	n/a	n/a	n/a	n/a	n/a	n/a	22	5	8	9	n/a	n/a	n/a	n/a	n/a
1418.588	n/a	PROB	709294	n/a	LTP122	ltpFR	9	n/a	n/a	n/a	n/a	n/a	n/a	13	5	1	7	n/a	n/a	n/a	n/a	n/a
1420.288	n/a	PROB	710144	n/a	LTP122	ltpFR	9	n/a	n/a	n/a	n/a	n/a	n/a	17	9	4	4	n/a	n/a	n/a	n/a	n/a
1422.104	n/a	PROB	711052	n/a	LTP122	ltpFR	9	n/a	n/a	n/a	n/a	n/a	n/a	10	6	2	2	n/a	n/a	n/a	n/a	n/a
1423.868	n/a	PROB	711934	n/a	LTP122	ltpFR	9	n/a	n/a	n/a	n/a	n/a	n/a	10	2	3	5	n/a	n/a	n/a	n/a	n/a
1425.27	n/a	STOP	712635	n/a	LTP122	ltpFR	9	n/a	n/a	n/a	n/a	n/a	n/a	n/a	n/a	n/a	n/a	n/a	n/a	n/a	n/a	n/a
1426.784	n/a	WORD	713392	wordpools/wasnorm_wordpool.txt	LTP122	ltpFR	9	5	0	TERMITE	1451	n/a	0	n/a	0	0	0	1	0.412841796875	0.57763671875	lower	../fonts/zerothre.ttf
1429.792	n/a	START	714896	n/a	LTP122	ltpFR	9	n/a	n/a	n/a	n/a	n/a	n/a	n/a	n/a	n/a	n/a	n/a	n/a	n/a	n/a	n/a
1430.608	n/a	PROB	715304	n/a	LTP122	ltpFR	9	n/a	n/a	n/a	n/a	n/a	n/a	14	7	2	5	n/a	n/a	n/a	n/a	n/a
1432.368	n/a	PROB	716184	n/a	LTP122	ltpFR	9	n/a	n/a	n/a	n/a	n/a	n/a	8	2	1	5	n/a	n/a	n/a	n/a	n/a
1434.824	n/a	PROB	717412	n/a	LTP122	ltpFR	9	n/a	n/a	n/a	n/a	n/a	n/a	14	5	8	1	n/a	n/a	n/a	n/a	n/a
1436.648	n/a	PROB	718324	n/a	LTP122	ltpFR	9	n/a	n/a	n/a	n/a	n/a	n/a	22	5	9	8	n/a	n/a	n/a	n/a	n/a
1442.148	n/a	PROB	721074	n/a	LTP122	ltpFR	9	n/a	n/a	n/a	n/a	n/a	n/a	16	6	6	4	n/a	n/a	n/a	n/a	n/a
1443.846	n/a	PROB	721923	n/a	LTP122	ltpFR	9	n/a	n/a	n/a	n/a	n/a	n/a	12	1	3	8	n/a	n/a	n/a	n/a	n/a
1445.142	n/a	STOP	722571	n/a	LTP122	ltpFR	9	n/a	n/a	n/a	n/a	n/a	n/a	n/a	n/a	n/a	n/a	n/a	n/a	n/a	n/a	n/a
1446.978	n/a	WORD	723489	wordpools/wasnorm_wordpool.txt	LTP122	ltpFR	9	5	0	COCOON	339	n/a	0	n/a	0	0	0	1	0.412841796875	0.57763671875	lower	../fonts/zerothre.ttf
1449.986	n/a	START	724993	n/a	LTP122	ltpFR	9	n/a	n/a	n/a	n/a	n/a	n/a	n/a	n/a	n/a	n/a	n/a	n/a	n/a	n/a	n/a
1450.952	n/a	PROB	725476	n/a	LTP122	ltpFR	9	n/a	n/a	n/a	n/a	n/a	n/a	15	6	7	2	n/a	n/a	n/a	n/a	n/a
1452.668	n/a	PROB	726334	n/a	LTP122	ltpFR	9	n/a	n/a	n/a	n/a	n/a	n/a	17	1	7	9	n/a	n/a	n/a	n/a	n/a
1454.684	n/a	PROB	727342	n/a	LTP122	ltpFR	9	n/a	n/a	n/a	n/a	n/a	n/a	16	5	5	6	n/a	n/a	n/a	n/a	n/a
1456.51	n/a	PROB	728255	n/a	LTP122	ltpFR	9	n/a	n/a	n/a	n/a	n/a	n/a	15	5	9	1	n/a	n/a	n/a	n/a	n/a
1458.084	n/a	PROB	729042	n/a	LTP122	ltpFR	9	n/a	n/a	n/a	n/a	n/a	n/a	22	9	7	6	n/a	n/a	n/a	n/a	n/a
1461.89	n/a	PROB	730945	n/a	LTP122	ltpFR	9	n/a	n/a	n/a	n/a	n/a	n/a	11	5	3	3	n/a	n/a	n/a	n/a	n/a
1465.986	n/a	STOP	732993	n/a	LTP122	ltpFR	9	n/a	n/a	n/a	n/a	n/a	n/a	n/a	n/a	n/a	n/a	n/a	n/a	n/a	n/a	n/a
1467.098	n/a	WORD	733549	wordpools/wasnorm_wordpool.txt	LTP122	ltpFR	9	5	0	SWING	1421	n/a	1	n/a	0	0	0	1	0.412841796875	0.57763671875	lower	../fonts/zerothre.ttf
1470.106	n/a	START	735053	n/a	LTP122	ltpFR	9	n/a	n/a	n/a	n/a	n/a	n/a	n/a	n/a	n/a	n/a	n/a	n/a	n/a	n/a	n/a
1470.954	n/a	PROB	735477	n/a	LTP122	ltpFR	9	n/a	n/a	n/a	n/a	n/a	n/a	16	2	8	6	n/a	n/a	n/a	n/a	n/a
1472.372	n/a	PROB	736186	n/a	LTP122	ltpFR	9	n/a	n/a	n/a	n/a	n/a	n/a	17	8	1	8	n/a	n/a	n/a	n/a	n/a
1473.954	n/a	PROB	736977	n/a	LTP122	ltpFR	9	n/a	n/a	n/a	n/a	n/a	n/a	18	8	6	4	n/a	n/a	n/a	n/a	n/a
1476.17	n/a	PROB	738085	n/a	LTP122	ltpFR	9	n/a	n/a	n/a	n/a	n/a	n/a	11	8	1	2	n/a	n/a	n/a	n/a	n/a
1478.078	n/a	PROB	739039	n/a	LTP122	ltpFR	9	n/a	n/a	n/a	n/a	n/a	n/a	18	4	9	5	n/a	n/a	n/a	n/a	n/a
1480.428	n/a	PROB	740214	n/a	LTP122	ltpFR	9	n/a	n/a	n/a	n/a	n/a	n/a	15	9	4	2	n/a	n/a	n/a	n/a	n/a
1483.31	n/a	PROB	741655	n/a	LTP122	ltpFR	9	n/a	n/a	n/a	n/a	n/a	n/a	9	1	3	5	n/a	n/a	n/a	n/a	n/a
1484.744	n/a	STOP	742372	n/a	LTP122	ltpFR	9	n/a	n/a	n/a	n/a	n/a	n/a	n/a	n/a	n/a	n/a	n/a	n/a	n/a	n/a	n/a
1486.974	n/a	WORD	743487	wordpools/wasnorm_wordpool.txt	LTP122	ltpFR	9	5	0	SHOP	1290	n/a	1	n/a	0	0	0	1	0.412841796875	0.57763671875	lower	../fonts/zerothre.ttf
1489.982	n/a	START	744991	n/a	LTP122	ltpFR	9	n/a	n/a	n/a	n/a	n/a	n/a	n/a	n/a	n/a	n/a	n/a	n/a	n/a	n/a	n/a
1490.832	n/a	PROB	745416	n/a	LTP122	ltpFR	9	n/a	n/a	n/a	n/a	n/a	n/a	22	8	5	9	n/a	n/a	n/a	n/a	n/a
1492.948	n/a	PROB	746474	n/a	LTP122	ltpFR	9	n/a	n/a	n/a	n/a	n/a	n/a	15	3	6	6	n/a	n/a	n/a	n/a	n/a
1494.514	n/a	PROB	747257	n/a	LTP122	ltpFR	9	n/a	n/a	n/a	n/a	n/a	n/a	17	8	1	8	n/a	n/a	n/a	n/a	n/a
1496.064	n/a	PROB	748032	n/a	LTP122	ltpFR	9	n/a	n/a	n/a	n/a	n/a	n/a	9	3	4	2	n/a	n/a	n/a	n/a	n/a
1498.164	n/a	PROB	749082	n/a	LTP122	ltpFR	9	n/a	n/a	n/a	n/a	n/a	n/a	23	9	7	7	n/a	n/a	n/a	n/a	n/a
1505.05	n/a	STOP	752525	n/a	LTP122	ltpFR	9	n/a	n/a	n/a	n/a	n/a	n/a	n/a	n/a	n/a	n/a	n/a	n/a	n/a	n/a	n/a
1507.894	n/a	REC_START	753947	n/a	LTP122	ltpFR	9	5	n/a	n/a	n/a	n/a	n/a	n/a	0	0	0	n/a	n/a	n/a	n/a	n/a
1509.706	n/a	REC_WORD	754853	wordpools/wasnorm_wordpool.txt	LTP122	ltpFR	9	5	0	CLASS	318	n/a	1	n/a	0	0	0	n/a	n/a	n/a	n/a	n/a
1510.434	n/a	REC_WORD	755217	wordpools/wasnorm_wordpool.txt	LTP122	ltpFR	9	5	0	SKIRT	1319	n/a	1	n/a	0	0	0	n/a	n/a	n/a	n/a	n/a
1511.666	n/a	REC_WORD	755833	wordpools/wasnorm_wordpool.txt	LTP122	ltpFR	9	5	1	CART	250	n/a	0	n/a	0	0	0	n/a	n/a	n/a	n/a	n/a
1512.898	n/a	REC_WORD	756449	wordpools/wasnorm_wordpool.txt	LTP122	ltpFR	9	5	1	WHALE	1601	n/a	1	n/a	0	0	0	n/a	n/a	n/a	n/a	n/a
1513.516	n/a	REC_WORD	756758	wordpools/wasnorm_wordpool.txt	LTP122	ltpFR	9	5	1	SHARK	1275	n/a	1	n/a	0	0	0	n/a	n/a	n/a	n/a	n/a
1520.704	n/a	REC_WORD	760352	wordpools/wasnorm_wordpool.txt	LTP122	ltpFR	9	5	1	POTATO	1115	n/a	0	n/a	0	0	0	n/a	n/a	n/a	n/a	n/a
1521.958	n/a	REC_WORD	760979	wordpools/wasnorm_wordpool.txt	LTP122	ltpFR	9	5	0	STONE	1385	n/a	0	n/a	0	0	0	n/a	n/a	n/a	n/a	n/a
1523.094	n/a	REC_WORD	761547	wordpools/wasnorm_wordpool.txt	LTP122	ltpFR	9	5	1	VEGETABLE	1552	n/a	0	n/a	0	0	0	n/a	n/a	n/a	n/a	n/a
1527.854	n/a	REC_WORD	763927	wordpools/wasnorm_wordpool.txt	LTP122	ltpFR	9	5	0	SWING	1421	n/a	1	n/a	0	0	0	n/a	n/a	n/a	n/a	n/a
1531.526	n/a	REC_WORD	765763	wordpools/wasnorm_wordpool.txt	LTP122	ltpFR	9	5	0	COCOON	339	n/a	0	n/a	0	0	0	n/a	n/a	n/a	n/a	n/a
1533.352	n/a	REC_WORD	766676	wordpools/wasnorm_wordpool.txt	LTP122	ltpFR	9	5	0	SHOP	1290	n/a	1	n/a	0	0	0	n/a	n/a	n/a	n/a	n/a
1535.946	n/a	REC_WORD	767973	wordpools/wasnorm_wordpool.txt	LTP122	ltpFR	9	5	1	HERO	706	n/a	1	n/a	0	0	0	n/a	n/a	n/a	n/a	n/a
1564.792	n/a	REC_WORD	782396	wordpools/wasnorm_wordpool.txt	LTP122	ltpFR	9	5	0	PANTS	1010	n/a	1	n/a	0	0	0	n/a	n/a	n/a	n/a	n/a
1586.812	n/a	WORD	793406	wordpools/wasnorm_wordpool.txt	LTP122	ltpFR	9	6	1	DINOSAUR	469	n/a	1	n/a	0	0	0	0	0.5869140625	0.422607421875	upper	../fonts/amplitud.ttf
1590.634	n/a	WORD	795317	wordpools/wasnorm_wordpool.txt	LTP122	ltpFR	9	6	1	KETTLE	772	n/a	0	n/a	0	0	0	0	0.5869140625	0.422607421875	upper	../fonts/amplitud.ttf
1594.8	n/a	WORD	797400	wordpools/wasnorm_wordpool.txt	LTP122	ltpFR	9	6	1	SPATULA	1348	n/a	0	n/a	0	0	0	0	0.5869140625	0.422607421875	upper	../fonts/amplitud.ttf
1598.866	n/a	WORD	799433	wordpools/wasnorm_wordpool.txt	LTP122	ltpFR	9	6	1	FIREPLACE	570	n/a	0	n/a	0	0	0	0	0.5869140625	0.422607421875	upper	../fonts/amplitud.ttf
1603.022	n/a	WORD	801511	wordpools/wasnorm_wordpool.txt	LTP122	ltpFR	9	6	1	TEAPOT	1442	n/a	0	n/a	0	0	0	0	0.5869140625	0.422607421875	upper	../fonts/amplitud.ttf
1607.172	n/a	WORD	803586	wordpools/wasnorm_wordpool.txt	LTP122	ltpFR	9	6	1	CAFE	216	n/a	0	n/a	0	0	0	0	0.5869140625	0.422607421875	upper	../fonts/amplitud.ttf
1611.004	n/a	WORD	805502	wordpools/wasnorm_wordpool.txt	LTP122	ltpFR	9	6	1	STAFF	1365	n/a	1	n/a	0	0	0	0	0.5869140625	0.422607421875	upper	../fonts/amplitud.ttf
1614.936	n/a	WORD	807468	wordpools/wasnorm_wordpool.txt	LTP122	ltpFR	9	6	1	COUSIN	392	n/a	1	n/a	0	0	0	0	0.5869140625	0.422607421875	upper	../fonts/amplitud.ttf
1619.118	n/a	WORD	809559	wordpools/wasnorm_wordpool.txt	LTP122	ltpFR	9	6	1	DISC	473	n/a	0	n/a	0	0	0	0	0.5869140625	0.422607421875	upper	../fonts/amplitud.ttf
1623.008	n/a	WORD	811504	wordpools/wasnorm_wordpool.txt	LTP122	ltpFR	9	6	1	CINNAMON	310	n/a	0	n/a	0	0	0	0	0.5869140625	0.422607421875	upper	../fonts/amplitud.ttf
1626.832	n/a	WORD	813416	wordpools/wasnorm_wordpool.txt	LTP122	ltpFR	9	6	1	PLUMBER	1091	n/a	1	n/a	0	0	0	0	0.5869140625	0.422607421875	upper	../fonts/amplitud.ttf
1630.79	n/a	WORD	815395	wordpools/wasnorm_wordpool.txt	LTP122	ltpFR	9	6	1	WRITER	1627	n/a	1	n/a	0	0	0	0	0.5869140625	0.422607421875	upper	../fonts/amplitud.ttf
1634.938	n/a	WORD	817469	wordpools/wasnorm_wordpool.txt	LTP122	ltpFR	9	6	1	BINDER	127	n/a	0	n/a	0	0	0	0	0.5869140625	0.422607421875	upper	../fonts/amplitud.ttf
1639.112	n/a	WORD	819556	wordpools/wasnorm_wordpool.txt	LTP122	ltpFR	9	6	1	DWARF	510	n/a	1	n/a	0	0	0	0	0.5869140625	0.422607421875	upper	../fonts/amplitud.ttf
1643.01	n/a	WORD	821505	wordpools/wasnorm_wordpool.txt	LTP122	ltpFR	9	6	1	FLOUR	583	n/a	0	n/a	0	0	0	0	0.5869140625	0.422607421875	upper	../fonts/amplitud.ttf
1646.91	n/a	WORD	823455	wordpools/wasnorm_wordpool.txt	LTP122	ltpFR	9	6	1	BATHROOM	99	n/a	0	n/a	0	0	0	0	0.5869140625	0.422607421875	upper	../fonts/amplitud.ttf
1649.918	n/a	START	824959	n/a	LTP122	ltpFR	9	n/a	n/a	n/a	n/a	n/a	n/a	n/a	n/a	n/a	n/a	n/a	n/a	n/a	n/a	n/a
1650.834	n/a	PROB	825417	n/a	LTP122	ltpFR	9	n/a	n/a	n/a	n/a	n/a	n/a	12	5	6	1	n/a	n/a	n/a	n/a	n/a
1652.74	n/a	PROB	826370	n/a	LTP122	ltpFR	9	n/a	n/a	n/a	n/a	n/a	n/a	6	1	4	1	n/a	n/a	n/a	n/a	n/a
1654.308	n/a	PROB	827154	n/a	LTP122	ltpFR	9	n/a	n/a	n/a	n/a	n/a	n/a	12	3	7	2	n/a	n/a	n/a	n/a	n/a
1655.582	n/a	PROB	827791	n/a	LTP122	ltpFR	9	n/a	n/a	n/a	n/a	n/a	n/a	23	5	9	9	n/a	n/a	n/a	n/a	n/a
1657.616	n/a	PROB	828808	n/a	LTP122	ltpFR	9	n/a	n/a	n/a	n/a	n/a	n/a	17	3	5	9	n/a	n/a	n/a	n/a	n/a
1659.706	n/a	PROB	829853	n/a	LTP122	ltpFR	9	n/a	n/a	n/a	n/a	n/a	n/a	20	4	8	8	n/a	n/a	n/a	n/a	n/a
1661.662	n/a	PROB	830831	n/a	LTP122	ltpFR	9	n/a	n/a	n/a	n/a	n/a	n/a	18	8	5	5	n/a	n/a	n/a	n/a	n/a
1665.918	n/a	STOP	832959	n/a	LTP122	ltpFR	9	n/a	n/a	n/a	n/a	n/a	n/a	n/a	n/a	n/a	n/a	n/a	n/a	n/a	n/a	n/a
1667.688	n/a	REC_START	833844	n/a	LTP122	ltpFR	9	6	n/a	n/a	n/a	n/a	n/a	n/a	0	0	0	n/a	n/a	n/a	n/a	n/a
1669.12	n/a	REC_WORD	834560	wordpools/wasnorm_wordpool.txt	LTP122	ltpFR	9	6	1	DINOSAUR	469	n/a	1	n/a	0	0	0	n/a	n/a	n/a	n/a	n/a
1670.69	n/a	REC_WORD	835345	wordpools/wasnorm_wordpool.txt	LTP122	ltpFR	9	6	1	KETTLE	772	n/a	0	n/a	0	0	0	n/a	n/a	n/a	n/a	n/a
1671.154	n/a	REC_WORD	835577	wordpools/wasnorm_wordpool.txt	LTP122	ltpFR	9	6	1	SPATULA	1348	n/a	0	n/a	0	0	0	n/a	n/a	n/a	n/a	n/a
1675.286	n/a	REC_WORD	837643	wordpools/wasnorm_wordpool.txt	LTP122	ltpFR	9	6	1	TEAPOT	1442	n/a	0	n/a	0	0	0	n/a	n/a	n/a	n/a	n/a
1675.944	n/a	REC_WORD	837972	wordpools/wasnorm_wordpool.txt	LTP122	ltpFR	9	6	1	FIREPLACE	570	n/a	0	n/a	0	0	0	n/a	n/a	n/a	n/a	n/a
1677.042	n/a	REC_WORD	838521	wordpools/wasnorm_wordpool.txt	LTP122	ltpFR	9	6	1	CAFE	216	n/a	0	n/a	0	0	0	n/a	n/a	n/a	n/a	n/a
1680.124	n/a	REC_WORD	840062	wordpools/wasnorm_wordpool.txt	LTP122	ltpFR	9	6	1	PLUMBER	1091	n/a	1	n/a	0	0	0	n/a	n/a	n/a	n/a	n/a
1681.112	n/a	REC_WORD	840556	wordpools/wasnorm_wordpool.txt	LTP122	ltpFR	9	6	1	BATHROOM	99	n/a	0	n/a	0	0	0	n/a	n/a	n/a	n/a	n/a
1683.122	n/a	REC_WORD	841561	wordpools/wasnorm_wordpool.txt	LTP122	ltpFR	9	6	1	DWARF	510	n/a	1	n/a	0	0	0	n/a	n/a	n/a	n/a	n/a
1684.286	n/a	REC_WORD	842143	wordpools/wasnorm_wordpool.txt	LTP122	ltpFR	9	6	1	CINNAMON	310	n/a	0	n/a	0	0	0	n/a	n/a	n/a	n/a	n/a
1684.97	n/a	REC_WORD	842485	wordpools/wasnorm_wordpool.txt	LTP122	ltpFR	9	6	1	FLOUR	583	n/a	0	n/a	0	0	0	n/a	n/a	n/a	n/a	n/a
1686.58	n/a	REC_WORD	843290	wordpools/wasnorm_wordpool.txt	LTP122	ltpFR	9	6	1	WRITER	1627	n/a	1	n/a	0	0	0	n/a	n/a	n/a	n/a	n/a
1687.468	n/a	REC_WORD	843734	wordpools/wasnorm_wordpool.txt	LTP122	ltpFR	9	6	1	BINDER	127	n/a	0	n/a	0	0	0	n/a	n/a	n/a	n/a	n/a
1692.616	n/a	REC_WORD	846308	wordpools/wasnorm_wordpool.txt	LTP122	ltpFR	9	6	1	STAFF	1365	n/a	1	n/a	0	0	0	n/a	n/a	n/a	n/a	n/a
1694.054	n/a	REC_WORD	847027	wordpools/wasnorm_wordpool.txt	LTP122	ltpFR	9	6	1	COUSIN	392	n/a	1	n/a	0	0	0	n/a	n/a	n/a	n/a	n/a
1746.048	n/a	WORD	873024	wordpools/wasnorm_wordpool.txt	LTP122	ltpFR	9	7	1	DEPUTY	450	n/a	1	n/a	0	0	0	0	0.5869140625	0.422607421875	upper	../fonts/amplitud.ttf
1750.088	n/a	WORD	875044	wordpools/wasnorm_wordpool.txt	LTP122	ltpFR	9	7	1	VESSEL	1558	n/a	0	n/a	0	0	0	0	0.5869140625	0.422607421875	upper	../fonts/amplitud.ttf
1754.002	n/a	WORD	877001	wordpools/wasnorm_wordpool.txt	LTP122	ltpFR	9	7	1	OX	994	n/a	1	n/a	0	0	0	0	0.5869140625	0.422607421875	upper	../fonts/amplitud.ttf
1758.192	n/a	WORD	879096	wordpools/wasnorm_wordpool.txt	LTP122	ltpFR	9	7	1	INMATE	738	n/a	1	n/a	0	0	0	0	0.5869140625	0.422607421875	upper	../fonts/amplitud.ttf
1762.06	n/a	WORD	881030	wordpools/wasnorm_wordpool.txt	LTP122	ltpFR	9	7	1	DRUG	501	n/a	0	n/a	0	0	0	0	0.5869140625	0.422607421875	upper	../fonts/amplitud.ttf
1765.874	n/a	WORD	882937	wordpools/wasnorm_wordpool.txt	LTP122	ltpFR	9	7	1	ALBUM	14	n/a	0	n/a	0	0	0	0	0.5869140625	0.422607421875	upper	../fonts/amplitud.ttf
1769.98	n/a	WORD	884990	wordpools/wasnorm_wordpool.txt	LTP122	ltpFR	9	7	1	ANTEATER	26	n/a	1	n/a	0	0	0	0	0.5869140625	0.422607421875	upper	../fonts/amplitud.ttf
1773.954	n/a	WORD	886977	wordpools/wasnorm_wordpool.txt	LTP122	ltpFR	9	7	1	BEARD	107	n/a	0	n/a	0	0	0	0	0.5869140625	0.422607421875	upper	../fonts/amplitud.ttf
1777.836	n/a	WORD	888918	wordpools/wasnorm_wordpool.txt	LTP122	ltpFR	9	7	1	SHED	1277	n/a	0	n/a	0	0	0	0	0.5869140625	0.422607421875	upper	../fonts/amplitud.ttf
1781.96	n/a	WORD	890980	wordpools/wasnorm_wordpool.txt	LTP122	ltpFR	9	7	1	OCTOPUS	971	n/a	1	n/a	0	0	0	0	0.5869140625	0.422607421875	upper	../fonts/amplitud.ttf
1785.776	n/a	WORD	892888	wordpools/wasnorm_wordpool.txt	LTP122	ltpFR	9	7	1	BEVERAGE	123	n/a	0	n/a	0	0	0	0	0.5869140625	0.422607421875	upper	../fonts/amplitud.ttf
1789.782	n/a	WORD	894891	wordpools/wasnorm_wordpool.txt	LTP122	ltpFR	9	7	1	TAVERN	1437	n/a	0	n/a	0	0	0	0	0.5869140625	0.422607421875	upper	../fonts/amplitud.ttf
1793.74	n/a	WORD	896870	wordpools/wasnorm_wordpool.txt	LTP122	ltpFR	9	7	1	FUGITIVE	612	n/a	1	n/a	0	0	0	0	0.5869140625	0.422607421875	upper	../fonts/amplitud.ttf
1797.68	n/a	WORD	898840	wordpools/wasnorm_wordpool.txt	LTP122	ltpFR	9	7	1	SALIVA	1226	n/a	0	n/a	0	0	0	0	0.5869140625	0.422607421875	upper	../fonts/amplitud.ttf
1801.606	n/a	WORD	900803	wordpools/wasnorm_wordpool.txt	LTP122	ltpFR	9	7	1	SPIT	1354	n/a	0	n/a	0	0	0	0	0.5869140625	0.422607421875	upper	../fonts/amplitud.ttf
1805.786	n/a	WORD	902893	wordpools/wasnorm_wordpool.txt	LTP122	ltpFR	9	7	1	STEAM	1375	n/a	0	n/a	0	0	0	0	0.5869140625	0.422607421875	upper	../fonts/amplitud.ttf
1808.794	n/a	START	904397	n/a	LTP122	ltpFR	9	n/a	n/a	n/a	n/a	n/a	n/a	n/a	n/a	n/a	n/a	n/a	n/a	n/a	n/a	n/a
1809.868	n/a	PROB	904934	n/a	LTP122	ltpFR	9	n/a	n/a	n/a	n/a	n/a	n/a	13	5	7	1	n/a	n/a	n/a	n/a	n/a
1813.734	n/a	PROB	906867	n/a	LTP122	ltpFR	9	n/a	n/a	n/a	n/a	n/a	n/a	18	3	9	6	n/a	n/a	n/a	n/a	n/a
1815.664	n/a	STOP	907832	n/a	LTP122	ltpFR	9	n/a	n/a	n/a	n/a	n/a	n/a	n/a	n/a	n/a	n/a	n/a	n/a	n/a	n/a	n/a
1818.592	n/a	REC_START	909296	n/a	LTP122	ltpFR	9	7	n/a	n/a	n/a	n/a	n/a	n/a	0	0	0	n/a	n/a	n/a	n/a	n/a
1822.338	n/a	REC_WORD	911169	wordpools/wasnorm_wordpool.txt	LTP122	ltpFR	9	7	1	DEPUTY	450	n/a	1	n/a	0	0	0	n/a	n/a	n/a	n/a	n/a
1824.534	n/a	REC_WORD	912267	wordpools/wasnorm_wordpool.txt	LTP122	ltpFR	9	7	1	VESSEL	1558	n/a	0	n/a	0	0	0	n/a	n/a	n/a	n/a	n/a
1827.228	n/a	REC_WORD	913614	wordpools/wasnorm_wordpool.txt	LTP122	ltpFR	9	7	1	OX	994	n/a	1	n/a	0	0	0	n/a	n/a	n/a	n/a	n/a
1828.884	n/a	REC_WORD	914442	wordpools/wasnorm_wordpool.txt	LTP122	ltpFR	9	7	1	INMATE	738	n/a	1	n/a	0	0	0	n/a	n/a	n/a	n/a	n/a
1830.132	n/a	REC_WORD	915066	wordpools/wasnorm_wordpool.txt	LTP122	ltpFR	9	7	1	DRUG	501	n/a	0	n/a	0	0	0	n/a	n/a	n/a	n/a	n/a
1832.686	n/a	REC_WORD	916343	wordpools/wasnorm_wordpool.txt	LTP122	ltpFR	9	7	1	ANTEATER	26	n/a	1	n/a	0	0	0	n/a	n/a	n/a	n/a	n/a
1833.802	n/a	REC_WORD	916901	wordpools/wasnorm_wordpool.txt	LTP122	ltpFR	9	7	1	BEARD	107	n/a	0	n/a	0	0	0	n/a	n/a	n/a	n/a	n/a
1836.218	n/a	REC_WORD	918109	wordpools/wasnorm_wordpool.txt	LTP122	ltpFR	9	7	n/a	DRINK	498	n/a	n/a	n/a	0	0	0	n/a	n/a	n/a	n/a	n/a
1837.036	n/a	REC_WORD	918518	wordpools/wasnorm_wordpool.txt	LTP122	ltpFR	9	7	1	TAVERN	1437	n/a	0	n/a	0	0	0	n/a	n/a	n/a	n/a	n/a
1844.69	n/a	REC_WORD	922345	wordpools/wasnorm_wordpool.txt	LTP122	ltpFR	9	7	n/a	OUTLAW	989	n/a	n/a	n/a	0	0	0	n/a	n/a	n/a	n/a	n/a
1846.554	n/a	REC_WORD	923277	wordpools/wasnorm_wordpool.txt	LTP122	ltpFR	9	7	1	SALIVA	1226	n/a	0	n/a	0	0	0	n/a	n/a	n/a	n/a	n/a
1847.412	n/a	REC_WORD	923706	wordpools/wasnorm_wordpool.txt	LTP122	ltpFR	9	7	1	SPIT	1354	n/a	0	n/a	0	0	0	n/a	n/a	n/a	n/a	n/a
1851.054	n/a	REC_WORD	925527	wordpools/wasnorm_wordpool.txt	LTP122	ltpFR	9	7	1	SHED	1277	n/a	0	n/a	0	0	0	n/a	n/a	n/a	n/a	n/a
1856.452	n/a	REC_WORD	928226	wordpools/wasnorm_wordpool.txt	LTP122	ltpFR	9	7	1	STEAM	1375	n/a	0	n/a	0	0	0	n/a	n/a	n/a	n/a	n/a
1878.076	n/a	REC_WORD	939038	wordpools/wasnorm_wordpool.txt	LTP122	ltpFR	9	7	n/a	CONVICT	371	n/a	n/a	n/a	0	0	0	n/a	n/a	n/a	n/a	n/a
1896.034	n/a	START	948017	n/a	LTP122	ltpFR	9	n/a	n/a	n/a	n/a	n/a	n/a	n/a	n/a	n/a	n/a	n/a	n/a	n/a	n/a	n/a
1897.544	n/a	PROB	948772	n/a	LTP122	ltpFR	9	n/a	n/a	n/a	n/a	n/a	n/a	7	2	3	2	n/a	n/a	n/a	n/a	n/a
1899.342	n/a	PROB	949671	n/a	LTP122	ltpFR	9	n/a	n/a	n/a	n/a	n/a	n/a	20	7	9	4	n/a	n/a	n/a	n/a	n/a
1902.158	n/a	PROB	951079	n/a	LTP122	ltpFR	9	n/a	n/a	n/a	n/a	n/a	n/a	11	3	3	5	n/a	n/a	n/a	n/a	n/a
1903.966	n/a	STOP	951983	n/a	LTP122	ltpFR	9	n/a	n/a	n/a	n/a	n/a	n/a	n/a	n/a	n/a	n/a	n/a	n/a	n/a	n/a	n/a
1905.066	n/a	WORD	952533	wordpools/wasnorm_wordpool.txt	LTP122	ltpFR	9	8	1	TECHNICIAN	1443	n/a	1	n/a	0	0	0	0	0.5869140625	0.422607421875	upper	../fonts/amplitud.ttf
1908.074	n/a	START	954037	n/a	LTP122	ltpFR	9	n/a	n/a	n/a	n/a	n/a	n/a	n/a	n/a	n/a	n/a	n/a	n/a	n/a	n/a	n/a
1908.914	n/a	PROB	954457	n/a	LTP122	ltpFR	9	n/a	n/a	n/a	n/a	n/a	n/a	25	9	7	9	n/a	n/a	n/a	n/a	n/a
1912.87	n/a	PROB	956435	n/a	LTP122	ltpFR	9	n/a	n/a	n/a	n/a	n/a	n/a	15	3	6	6	n/a	n/a	n/a	n/a	n/a
1914.71	n/a	STOP	957355	n/a	LTP122	ltpFR	9	n/a	n/a	n/a	n/a	n/a	n/a	n/a	n/a	n/a	n/a	n/a	n/a	n/a	n/a	n/a
1917.012	n/a	WORD	958506	wordpools/wasnorm_wordpool.txt	LTP122	ltpFR	9	8	1	POSSUM	1112	n/a	1	n/a	0	0	0	0	0.5869140625	0.422607421875	upper	../fonts/amplitud.ttf
1920.018	n/a	START	960009	n/a	LTP122	ltpFR	9	n/a	n/a	n/a	n/a	n/a	n/a	n/a	n/a	n/a	n/a	n/a	n/a	n/a	n/a	n/a
1921.052	n/a	PROB	960526	n/a	LTP122	ltpFR	9	n/a	n/a	n/a	n/a	n/a	n/a	10	5	1	4	n/a	n/a	n/a	n/a	n/a
1922.818	n/a	PROB	961409	n/a	LTP122	ltpFR	9	n/a	n/a	n/a	n/a	n/a	n/a	19	8	3	8	n/a	n/a	n/a	n/a	n/a
1925.742	n/a	PROB	962871	n/a	LTP122	ltpFR	9	n/a	n/a	n/a	n/a	n/a	n/a	13	5	6	4	n/a	n/a	n/a	n/a	n/a
1927.79	n/a	STOP	963895	n/a	LTP122	ltpFR	9	n/a	n/a	n/a	n/a	n/a	n/a	n/a	n/a	n/a	n/a	n/a	n/a	n/a	n/a	n/a
1929.05	n/a	WORD	964525	wordpools/wasnorm_wordpool.txt	LTP122	ltpFR	9	8	0	MOOSE	915	n/a	1	n/a	0	0	0	1	0.412841796875	0.57763671875	lower	../fonts/zerothre.ttf
1932.058	n/a	START	966029	n/a	LTP122	ltpFR	9	n/a	n/a	n/a	n/a	n/a	n/a	n/a	n/a	n/a	n/a	n/a	n/a	n/a	n/a	n/a
1933.25	n/a	PROB	966625	n/a	LTP122	ltpFR	9	n/a	n/a	n/a	n/a	n/a	n/a	5	3	1	1	n/a	n/a	n/a	n/a	n/a
1934.69	n/a	PROB	967345	n/a	LTP122	ltpFR	9	n/a	n/a	n/a	n/a	n/a	n/a	13	6	4	3	n/a	n/a	n/a	n/a	n/a
1936.09	n/a	PROB	968045	n/a	LTP122	ltpFR	9	n/a	n/a	n/a	n/a	n/a	n/a	8	4	1	2	n/a	n/a	n/a	n/a	n/a
1940.058	n/a	STOP	970029	n/a	LTP122	ltpFR	9	n/a	n/a	n/a	n/a	n/a	n/a	n/a	n/a	n/a	n/a	n/a	n/a	n/a	n/a	n/a
1941.054	n/a	WORD	970527	wordpools/wasnorm_wordpool.txt	LTP122	ltpFR	9	8	0	CREATURE	403	n/a	1	n/a	0	0	0	1	0.412841796875	0.57763671875	lower	../fonts/zerothre.ttf
1944.062	n/a	START	972031	n/a	LTP122	ltpFR	9	n/a	n/a	n/a	n/a	n/a	n/a	n/a	n/a	n/a	n/a	n/a	n/a	n/a	n/a	n/a
1945.212	n/a	PROB	972606	n/a	LTP122	ltpFR	9	n/a	n/a	n/a	n/a	n/a	n/a	14	5	3	6	n/a	n/a	n/a	n/a	n/a
1947.676	n/a	PROB	973838	n/a	LTP122	ltpFR	9	n/a	n/a	n/a	n/a	n/a	n/a	13	2	4	7	n/a	n/a	n/a	n/a	n/a
1952.064	n/a	STOP	976032	n/a	LTP122	ltpFR	9	n/a	n/a	n/a	n/a	n/a	n/a	n/a	n/a	n/a	n/a	n/a	n/a	n/a	n/a	n/a
1953.084	n/a	WORD	976542	wordpools/wasnorm_wordpool.txt	LTP122	ltpFR	9	8	0	STEM	1376	n/a	0	n/a	0	0	0	1	0.412841796875	0.57763671875	lower	../fonts/zerothre.ttf
1956.092	n/a	START	978046	n/a	LTP122	ltpFR	9	n/a	n/a	n/a	n/a	n/a	n/a	n/a	n/a	n/a	n/a	n/a	n/a	n/a	n/a	n/a
1957.224	n/a	PROB	978612	n/a	LTP122	ltpFR	9	n/a	n/a	n/a	n/a	n/a	n/a	13	5	4	4	n/a	n/a	n/a	n/a	n/a
1959.066	n/a	PROB	979533	n/a	LTP122	ltpFR	9	n/a	n/a	n/a	n/a	n/a	n/a	13	4	1	7	n/a	n/a	n/a	n/a	n/a
1961.822	n/a	PROB	980911	n/a	LTP122	ltpFR	9	n/a	n/a	n/a	n/a	n/a	n/a	15	4	1	5	n/a	n/a	n/a	n/a	n/a
1963.586	n/a	STOP	981793	n/a	LTP122	ltpFR	9	n/a	n/a	n/a	n/a	n/a	n/a	n/a	n/a	n/a	n/a	n/a	n/a	n/a	n/a	n/a
1964.988	n/a	WORD	982494	wordpools/wasnorm_wordpool.txt	LTP122	ltpFR	9	8	0	EYELASH	546	n/a	0	n/a	0	0	0	1	0.412841796875	0.57763671875	lower	../fonts/zerothre.ttf
1967.996	n/a	START	983998	n/a	LTP122	ltpFR	9	n/a	n/a	n/a	n/a	n/a	n/a	n/a	n/a	n/a	n/a	n/a	n/a	n/a	n/a	n/a
1968.878	n/a	PROB	984439	n/a	LTP122	ltpFR	9	n/a	n/a	n/a	n/a	n/a	n/a	14	2	8	4	n/a	n/a	n/a	n/a	n/a
1971.094	n/a	PROB	985547	n/a	LTP122	ltpFR	9	n/a	n/a	n/a	n/a	n/a	n/a	15	7	3	5	n/a	n/a	n/a	n/a	n/a
1972.478	n/a	PROB	986239	n/a	LTP122	ltpFR	9	n/a	n/a	n/a	n/a	n/a	n/a	15	9	1	5	n/a	n/a	n/a	n/a	n/a
1975.996	n/a	STOP	987998	n/a	LTP122	ltpFR	9	n/a	n/a	n/a	n/a	n/a	n/a	n/a	n/a	n/a	n/a	n/a	n/a	n/a	n/a	n/a
1977.11	n/a	WORD	988555	wordpools/wasnorm_wordpool.txt	LTP122	ltpFR	9	8	0	PARTY	1018	n/a	1	n/a	0	0	0	1	0.412841796875	0.57763671875	lower	../fonts/zerothre.ttf
1980.118	n/a	START	990059	n/a	LTP122	ltpFR	9	n/a	n/a	n/a	n/a	n/a	n/a	n/a	n/a	n/a	n/a	n/a	n/a	n/a	n/a	n/a
1981.042	n/a	PROB	990521	n/a	LTP122	ltpFR	9	n/a	n/a	n/a	n/a	n/a	n/a	23	9	7	7	n/a	n/a	n/a	n/a	n/a
1984.316	n/a	PROB	992158	n/a	LTP122	ltpFR	9	n/a	n/a	n/a	n/a	n/a	n/a	14	2	4	8	n/a	n/a	n/a	n/a	n/a
1987.178	n/a	STOP	993589	n/a	LTP122	ltpFR	9	n/a	n/a	n/a	n/a	n/a	n/a	n/a	n/a	n/a	n/a	n/a	n/a	n/a	n/a	n/a
1989.082	n/a	WORD	994541	wordpools/wasnorm_wordpool.txt	LTP122	ltpFR	9	8	1	ORCHID	982	n/a	1	n/a	0	0	0	0	0.5869140625	0.422607421875	upper	../fonts/amplitud.ttf
1992.09	n/a	START	996045	n/a	LTP122	ltpFR	9	n/a	n/a	n/a	n/a	n/a	n/a	n/a	n/a	n/a	n/a	n/a	n/a	n/a	n/a	n/a
1993.014	n/a	PROB	996507	n/a	LTP122	ltpFR	9	n/a	n/a	n/a	n/a	n/a	n/a	14	1	7	6	n/a	n/a	n/a	n/a	n/a
1995.58	n/a	PROB	997790	n/a	LTP122	ltpFR	9	n/a	n/a	n/a	n/a	n/a	n/a	18	8	2	8	n/a	n/a	n/a	n/a	n/a
1997.18	n/a	PROB	998590	n/a	LTP122	ltpFR	9	n/a	n/a	n/a	n/a	n/a	n/a	18	4	6	8	n/a	n/a	n/a	n/a	n/a
2000.09	n/a	STOP	1000045	n/a	LTP122	ltpFR	9	n/a	n/a	n/a	n/a	n/a	n/a	n/a	n/a	n/a	n/a	n/a	n/a	n/a	n/a	n/a
2001.094	n/a	WORD	1000547	wordpools/wasnorm_wordpool.txt	LTP122	ltpFR	9	8	1	KIWI	781	n/a	0	n/a	0	0	0	0	0.5869140625	0.422607421875	upper	../fonts/amplitud.ttf
2004.102	n/a	START	1002051	n/a	LTP122	ltpFR	9	n/a	n/a	n/a	n/a	n/a	n/a	n/a	n/a	n/a	n/a	n/a	n/a	n/a	n/a	n/a
2004.968	n/a	PROB	1002484	n/a	LTP122	ltpFR	9	n/a	n/a	n/a	n/a	n/a	n/a	20	8	7	5	n/a	n/a	n/a	n/a	n/a
2008.74	n/a	PROB	1004370	n/a	LTP122	ltpFR	9	n/a	n/a	n/a	n/a	n/a	n/a	14	2	7	5	n/a	n/a	n/a	n/a	n/a
2012.104	n/a	STOP	1006052	n/a	LTP122	ltpFR	9	n/a	n/a	n/a	n/a	n/a	n/a	n/a	n/a	n/a	n/a	n/a	n/a	n/a	n/a	n/a
2013.134	n/a	WORD	1006567	wordpools/wasnorm_wordpool.txt	LTP122	ltpFR	9	8	1	BERRY	122	n/a	0	n/a	0	0	0	0	0.5869140625	0.422607421875	upper	../fonts/amplitud.ttf
2016.14	n/a	START	1008070	n/a	LTP122	ltpFR	9	n/a	n/a	n/a	n/a	n/a	n/a	n/a	n/a	n/a	n/a	n/a	n/a	n/a	n/a	n/a
2017.156	n/a	PROB	1008578	n/a	LTP122	ltpFR	9	n/a	n/a	n/a	n/a	n/a	n/a	23	8	9	6	n/a	n/a	n/a	n/a	n/a
2021.064	n/a	PROB	1010532	n/a	LTP122	ltpFR	9	n/a	n/a	n/a	n/a	n/a	n/a	14	3	4	7	n/a	n/a	n/a	n/a	n/a
2022.554	n/a	PROB	1011277	n/a	LTP122	ltpFR	9	n/a	n/a	n/a	n/a	n/a	n/a	18	6	9	3	n/a	n/a	n/a	n/a	n/a
2024.044	n/a	STOP	1012022	n/a	LTP122	ltpFR	9	n/a	n/a	n/a	n/a	n/a	n/a	n/a	n/a	n/a	n/a	n/a	n/a	n/a	n/a	n/a
2025.036	n/a	WORD	1012518	wordpools/wasnorm_wordpool.txt	LTP122	ltpFR	9	8	0	ROBOT	1200	n/a	1	n/a	0	0	0	1	0.412841796875	0.57763671875	lower	../fonts/zerothre.ttf
2028.044	n/a	START	1014022	n/a	LTP122	ltpFR	9	n/a	n/a	n/a	n/a	n/a	n/a	n/a	n/a	n/a	n/a	n/a	n/a	n/a	n/a	n/a
2028.852	n/a	PROB	1014426	n/a	LTP122	ltpFR	9	n/a	n/a	n/a	n/a	n/a	n/a	18	8	3	7	n/a	n/a	n/a	n/a	n/a
2030.612	n/a	PROB	1015306	n/a	LTP122	ltpFR	9	n/a	n/a	n/a	n/a	n/a	n/a	9	1	2	6	n/a	n/a	n/a	n/a	n/a
2033.418	n/a	PROB	1016709	n/a	LTP122	ltpFR	9	n/a	n/a	n/a	n/a	n/a	n/a	18	4	8	6	n/a	n/a	n/a	n/a	n/a
2035.262	n/a	STOP	1017631	n/a	LTP122	ltpFR	9	n/a	n/a	n/a	n/a	n/a	n/a	n/a	n/a	n/a	n/a	n/a	n/a	n/a	n/a	n/a
2037.15	n/a	WORD	1018575	wordpools/wasnorm_wordpool.txt	LTP122	ltpFR	9	8	0	DIGGER	464	n/a	1	n/a	0	0	0	1	0.412841796875	0.57763671875	lower	../fonts/zerothre.ttf
2040.158	n/a	START	1020079	n/a	LTP122	ltpFR	9	n/a	n/a	n/a	n/a	n/a	n/a	n/a	n/a	n/a	n/a	n/a	n/a	n/a	n/a	n/a
2040.974	n/a	PROB	1020487	n/a	LTP122	ltpFR	9	n/a	n/a	n/a	n/a	n/a	n/a	15	2	9	4	n/a	n/a	n/a	n/a	n/a
2043.348	n/a	PROB	1021674	n/a	LTP122	ltpFR	9	n/a	n/a	n/a	n/a	n/a	n/a	8	4	2	2	n/a	n/a	n/a	n/a	n/a
2044.746	n/a	PROB	1022373	n/a	LTP122	ltpFR	9	n/a	n/a	n/a	n/a	n/a	n/a	13	7	1	5	n/a	n/a	n/a	n/a	n/a
2048.158	n/a	STOP	1024079	n/a	LTP122	ltpFR	9	n/a	n/a	n/a	n/a	n/a	n/a	n/a	n/a	n/a	n/a	n/a	n/a	n/a	n/a	n/a
2049.238	n/a	WORD	1024619	wordpools/wasnorm_wordpool.txt	LTP122	ltpFR	9	8	0	TYPIST	1532	n/a	1	n/a	0	0	0	1	0.412841796875	0.57763671875	lower	../fonts/zerothre.ttf
2052.246	n/a	START	1026123	n/a	LTP122	ltpFR	9	n/a	n/a	n/a	n/a	n/a	n/a	n/a	n/a	n/a	n/a	n/a	n/a	n/a	n/a	n/a
2053.28	n/a	PROB	1026640	n/a	LTP122	ltpFR	9	n/a	n/a	n/a	n/a	n/a	n/a	9	3	2	4	n/a	n/a	n/a	n/a	n/a
2055.052	n/a	PROB	1027526	n/a	LTP122	ltpFR	9	n/a	n/a	n/a	n/a	n/a	n/a	19	9	9	1	n/a	n/a	n/a	n/a	n/a
2056.802	n/a	PROB	1028401	n/a	LTP122	ltpFR	9	n/a	n/a	n/a	n/a	n/a	n/a	15	7	3	5	n/a	n/a	n/a	n/a	n/a
2060.246	n/a	STOP	1030123	n/a	LTP122	ltpFR	9	n/a	n/a	n/a	n/a	n/a	n/a	n/a	n/a	n/a	n/a	n/a	n/a	n/a	n/a	n/a
2061.144	n/a	WORD	1030572	wordpools/wasnorm_wordpool.txt	LTP122	ltpFR	9	8	1	ROSE	1212	n/a	1	n/a	0	0	0	0	0.5869140625	0.422607421875	upper	../fonts/amplitud.ttf
2064.15	n/a	START	1032075	n/a	LTP122	ltpFR	9	n/a	n/a	n/a	n/a	n/a	n/a	n/a	n/a	n/a	n/a	n/a	n/a	n/a	n/a	n/a
2065.092	n/a	PROB	1032546	n/a	LTP122	ltpFR	9	n/a	n/a	n/a	n/a	n/a	n/a	23	8	6	7	n/a	n/a	n/a	n/a	n/a
2069.332	n/a	PROB	1034666	n/a	LTP122	ltpFR	9	n/a	n/a	n/a	n/a	n/a	n/a	10	3	2	5	n/a	n/a	n/a	n/a	n/a
2071.75	n/a	STOP	1035875	n/a	LTP122	ltpFR	9	n/a	n/a	n/a	n/a	n/a	n/a	n/a	n/a	n/a	n/a	n/a	n/a	n/a	n/a	n/a
2073.14	n/a	WORD	1036570	wordpools/wasnorm_wordpool.txt	LTP122	ltpFR	9	8	1	ROBE	1198	n/a	0	n/a	0	0	0	0	0.5869140625	0.422607421875	upper	../fonts/amplitud.ttf
2076.148	n/a	START	1038074	n/a	LTP122	ltpFR	9	n/a	n/a	n/a	n/a	n/a	n/a	n/a	n/a	n/a	n/a	n/a	n/a	n/a	n/a	n/a
2077.306	n/a	PROB	1038653	n/a	LTP122	ltpFR	9	n/a	n/a	n/a	n/a	n/a	n/a	25	6	8	9	n/a	n/a	n/a	n/a	n/a
2082.958	n/a	STOP	1041479	n/a	LTP122	ltpFR	9	n/a	n/a	n/a	n/a	n/a	n/a	n/a	n/a	n/a	n/a	n/a	n/a	n/a	n/a	n/a
2085.252	n/a	WORD	1042626	wordpools/wasnorm_wordpool.txt	LTP122	ltpFR	9	8	1	MATTRESS	879	n/a	0	n/a	0	0	0	0	0.5869140625	0.422607421875	upper	../fonts/amplitud.ttf
2088.26	n/a	START	1044130	n/a	LTP122	ltpFR	9	n/a	n/a	n/a	n/a	n/a	n/a	n/a	n/a	n/a	n/a	n/a	n/a	n/a	n/a	n/a
2089.426	n/a	PROB	1044713	n/a	LTP122	ltpFR	9	n/a	n/a	n/a	n/a	n/a	n/a	12	4	1	6	n/a	n/a	n/a	n/a	n/a
2092.234	n/a	PROB	1046117	n/a	LTP122	ltpFR	9	n/a	n/a	n/a	n/a	n/a	n/a	19	5	5	9	n/a	n/a	n/a	n/a	n/a
2094.266	n/a	PROB	1047133	n/a	LTP122	ltpFR	9	n/a	n/a	n/a	n/a	n/a	n/a	11	7	2	2	n/a	n/a	n/a	n/a	n/a
2095.824	n/a	STOP	1047912	n/a	LTP122	ltpFR	9	n/a	n/a	n/a	n/a	n/a	n/a	n/a	n/a	n/a	n/a	n/a	n/a	n/a	n/a	n/a
2097.99	n/a	REC_START	1048995	n/a	LTP122	ltpFR	9	8	n/a	n/a	n/a	n/a	n/a	n/a	0	0	0	n/a	n/a	n/a	n/a	n/a
2100.32	n/a	REC_WORD	1050160	wordpools/wasnorm_wordpool.txt	LTP122	ltpFR	9	8	1	TECHNICIAN	1443	n/a	1	n/a	0	0	0	n/a	n/a	n/a	n/a	n/a
2101.426	n/a	REC_WORD	1050713	wordpools/wasnorm_wordpool.txt	LTP122	ltpFR	9	8	1	POSSUM	1112	n/a	1	n/a	0	0	0	n/a	n/a	n/a	n/a	n/a
2102.374	n/a	REC_WORD	1051187	wordpools/wasnorm_wordpool.txt	LTP122	ltpFR	9	8	0	MOOSE	915	n/a	1	n/a	0	0	0	n/a	n/a	n/a	n/a	n/a
2103.682	n/a	REC_WORD	1051841	wordpools/wasnorm_wordpool.txt	LTP122	ltpFR	9	8	0	EYELASH	546	n/a	0	n/a	0	0	0	n/a	n/a	n/a	n/a	n/a
2104.778	n/a	REC_WORD	1052389	wordpools/wasnorm_wordpool.txt	LTP122	ltpFR	9	8	0	ROBOT	1200	n/a	1	n/a	0	0	0	n/a	n/a	n/a	n/a	n/a
2105.602	n/a	REC_WORD	1052801	wordpools/wasnorm_wordpool.txt	LTP122	ltpFR	9	8	0	CREATURE	403	n/a	1	n/a	0	0	0	n/a	n/a	n/a	n/a	n/a
2106.866	n/a	REC_WORD	1053433	wordpools/wasnorm_wordpool.txt	LTP122	ltpFR	9	8	0	PARTY	1018	n/a	1	n/a	0	0	0	n/a	n/a	n/a	n/a	n/a
2107.674	n/a	REC_WORD	1053837	wordpools/wasnorm_wordpool.txt	LTP122	ltpFR	9	8	1	KIWI	781	n/a	0	n/a	0	0	0	n/a	n/a	n/a	n/a	n/a
2108.542	n/a	REC_WORD	1054271	wordpools/wasnorm_wordpool.txt	LTP122	ltpFR	9	8	1	BERRY	122	n/a	0	n/a	0	0	0	n/a	n/a	n/a	n/a	n/a
2109.14	n/a	REC_WORD	1054570	wordpools/wasnorm_wordpool.txt	LTP122	ltpFR	9	8	0	STEM	1376	n/a	0	n/a	0	0	0	n/a	n/a	n/a	n/a	n/a
2110.198	n/a	REC_WORD	1055099	wordpools/wasnorm_wordpool.txt	LTP122	ltpFR	9	8	1	ORCHID	982	n/a	1	n/a	0	0	0	n/a	n/a	n/a	n/a	n/a
2110.976	n/a	REC_WORD	1055488	wordpools/wasnorm_wordpool.txt	LTP122	ltpFR	9	8	1	ROSE	1212	n/a	1	n/a	0	0	0	n/a	n/a	n/a	n/a	n/a
2111.754	n/a	REC_WORD	1055877	wordpools/wasnorm_wordpool.txt	LTP122	ltpFR	9	8	1	MATTRESS	879	n/a	0	n/a	0	0	0	n/a	n/a	n/a	n/a	n/a
2112.632	n/a	REC_WORD	1056316	wordpools/wasnorm_wordpool.txt	LTP122	ltpFR	9	8	0	TYPIST	1532	n/a	1	n/a	0	0	0	n/a	n/a	n/a	n/a	n/a
2175.458	n/a	START	1087729	n/a	LTP122	ltpFR	9	n/a	n/a	n/a	n/a	n/a	n/a	n/a	n/a	n/a	n/a	n/a	n/a	n/a	n/a	n/a
2176.966	n/a	PROB	1088483	n/a	LTP122	ltpFR	9	n/a	n/a	n/a	n/a	n/a	n/a	12	6	3	3	n/a	n/a	n/a	n/a	n/a
2178.982	n/a	PROB	1089491	n/a	LTP122	ltpFR	9	n/a	n/a	n/a	n/a	n/a	n/a	9	3	5	1	n/a	n/a	n/a	n/a	n/a
2180.482	n/a	PROB	1090241	n/a	LTP122	ltpFR	9	n/a	n/a	n/a	n/a	n/a	n/a	17	9	3	5	n/a	n/a	n/a	n/a	n/a
2182.148	n/a	PROB	1091074	n/a	LTP122	ltpFR	9	n/a	n/a	n/a	n/a	n/a	n/a	11	3	2	6	n/a	n/a	n/a	n/a	n/a
2183.632	n/a	PROB	1091816	n/a	LTP122	ltpFR	9	n/a	n/a	n/a	n/a	n/a	n/a	15	1	7	7	n/a	n/a	n/a	n/a	n/a
2185.656	n/a	PROB	1092828	n/a	LTP122	ltpFR	9	n/a	n/a	n/a	n/a	n/a	n/a	15	8	4	7	n/a	n/a	n/a	n/a	n/a
2188.878	n/a	PROB	1094439	n/a	LTP122	ltpFR	9	n/a	n/a	n/a	n/a	n/a	n/a	10	5	1	4	n/a	n/a	n/a	n/a	n/a
2191.214	n/a	STOP	1095607	n/a	LTP122	ltpFR	9	n/a	n/a	n/a	n/a	n/a	n/a	n/a	n/a	n/a	n/a	n/a	n/a	n/a	n/a	n/a
2192.32	n/a	WORD	1096160	wordpools/wasnorm_wordpool.txt	LTP122	ltpFR	9	9	0	JUG	762	n/a	0	n/a	0	0	0	1	0.412841796875	0.57763671875	lower	../fonts/zerothre.ttf
2195.328	n/a	START	1097664	n/a	LTP122	ltpFR	9	n/a	n/a	n/a	n/a	n/a	n/a	n/a	n/a	n/a	n/a	n/a	n/a	n/a	n/a	n/a
2196.328	n/a	PROB	1098164	n/a	LTP122	ltpFR	9	n/a	n/a	n/a	n/a	n/a	n/a	18	7	4	7	n/a	n/a	n/a	n/a	n/a
2199.526	n/a	PROB	1099763	n/a	LTP122	ltpFR	9	n/a	n/a	n/a	n/a	n/a	n/a	10	2	2	6	n/a	n/a	n/a	n/a	n/a
2200.958	n/a	PROB	1100479	n/a	LTP122	ltpFR	9	n/a	n/a	n/a	n/a	n/a	n/a	15	4	2	9	n/a	n/a	n/a	n/a	n/a
2202.558	n/a	PROB	1101279	n/a	LTP122	ltpFR	9	n/a	n/a	n/a	n/a	n/a	n/a	12	7	1	4	n/a	n/a	n/a	n/a	n/a
2204.284	n/a	PROB	1102142	n/a	LTP122	ltpFR	9	n/a	n/a	n/a	n/a	n/a	n/a	12	8	2	2	n/a	n/a	n/a	n/a	n/a
2205.816	n/a	PROB	1102908	n/a	LTP122	ltpFR	9	n/a	n/a	n/a	n/a	n/a	n/a	7	2	4	1	n/a	n/a	n/a	n/a	n/a
2207.316	n/a	PROB	1103658	n/a	LTP122	ltpFR	9	n/a	n/a	n/a	n/a	n/a	n/a	15	1	6	9	n/a	n/a	n/a	n/a	n/a
2208.83	n/a	PROB	1104415	n/a	LTP122	ltpFR	9	n/a	n/a	n/a	n/a	n/a	n/a	9	1	2	6	n/a	n/a	n/a	n/a	n/a
2211.03	n/a	STOP	1105515	n/a	LTP122	ltpFR	9	n/a	n/a	n/a	n/a	n/a	n/a	n/a	n/a	n/a	n/a	n/a	n/a	n/a	n/a	n/a
2212.356	n/a	WORD	1106178	wordpools/wasnorm_wordpool.txt	LTP122	ltpFR	9	9	0	COLONEL	348	n/a	1	n/a	0	0	0	1	0.412841796875	0.57763671875	lower	../fonts/zerothre.ttf
2215.364	n/a	START	1107682	n/a	LTP122	ltpFR	9	n/a	n/a	n/a	n/a	n/a	n/a	n/a	n/a	n/a	n/a	n/a	n/a	n/a	n/a	n/a
2216.246	n/a	PROB	1108123	n/a	LTP122	ltpFR	9	n/a	n/a	n/a	n/a	n/a	n/a	11	3	4	4	n/a	n/a	n/a	n/a	n/a
2218.82	n/a	PROB	1109410	n/a	LTP122	ltpFR	9	n/a	n/a	n/a	n/a	n/a	n/a	12	6	2	4	n/a	n/a	n/a	n/a	n/a
2220.552	n/a	PROB	1110276	n/a	LTP122	ltpFR	9	n/a	n/a	n/a	n/a	n/a	n/a	4	2	1	1	n/a	n/a	n/a	n/a	n/a
2222.486	n/a	PROB	1111243	n/a	LTP122	ltpFR	9	n/a	n/a	n/a	n/a	n/a	n/a	14	3	7	4	n/a	n/a	n/a	n/a	n/a
2224.328	n/a	PROB	1112164	n/a	LTP122	ltpFR	9	n/a	n/a	n/a	n/a	n/a	n/a	18	8	7	3	n/a	n/a	n/a	n/a	n/a
2227.484	n/a	PROB	1113742	n/a	LTP122	ltpFR	9	n/a	n/a	n/a	n/a	n/a	n/a	21	9	6	6	n/a	n/a	n/a	n/a	n/a
2231.364	n/a	STOP	1115682	n/a	LTP122	ltpFR	9	n/a	n/a	n/a	n/a	n/a	n/a	n/a	n/a	n/a	n/a	n/a	n/a	n/a	n/a	n/a
2232.308	n/a	WORD	1116154	wordpools/wasnorm_wordpool.txt	LTP122	ltpFR	9	9	0	TUNA	1518	n/a	0	n/a	0	0	0	1	0.412841796875	0.57763671875	lower	../fonts/zerothre.ttf
2235.316	n/a	START	1117658	n/a	LTP122	ltpFR	9	n/a	n/a	n/a	n/a	n/a	n/a	n/a	n/a	n/a	n/a	n/a	n/a	n/a	n/a	n/a
2236.324	n/a	PROB	1118162	n/a	LTP122	ltpFR	9	n/a	n/a	n/a	n/a	n/a	n/a	21	5	8	8	n/a	n/a	n/a	n/a	n/a
2239.122	n/a	PROB	1119561	n/a	LTP122	ltpFR	9	n/a	n/a	n/a	n/a	n/a	n/a	9	6	1	2	n/a	n/a	n/a	n/a	n/a
2241.514	n/a	PROB	1120757	n/a	LTP122	ltpFR	9	n/a	n/a	n/a	n/a	n/a	n/a	17	6	6	5	n/a	n/a	n/a	n/a	n/a
2243.68	n/a	PROB	1121840	n/a	LTP122	ltpFR	9	n/a	n/a	n/a	n/a	n/a	n/a	15	9	1	5	n/a	n/a	n/a	n/a	n/a
2245.238	n/a	PROB	1122619	n/a	LTP122	ltpFR	9	n/a	n/a	n/a	n/a	n/a	n/a	10	2	3	5	n/a	n/a	n/a	n/a	n/a
2246.77	n/a	PROB	1123385	n/a	LTP122	ltpFR	9	n/a	n/a	n/a	n/a	n/a	n/a	27	9	9	9	n/a	n/a	n/a	n/a	n/a
2251.316	n/a	STOP	1125658	n/a	LTP122	ltpFR	9	n/a	n/a	n/a	n/a	n/a	n/a	n/a	n/a	n/a	n/a	n/a	n/a	n/a	n/a	n/a
2252.41	n/a	WORD	1126205	wordpools/wasnorm_wordpool.txt	LTP122	ltpFR	9	9	1	CAPITAL	238	n/a	0	n/a	0	0	0	0	0.5869140625	0.422607421875	upper	../fonts/amplitud.ttf
2255.418	n/a	START	1127709	n/a	LTP122	ltpFR	9	n/a	n/a	n/a	n/a	n/a	n/a	n/a	n/a	n/a	n/a	n/a	n/a	n/a	n/a	n/a
2256.292	n/a	PROB	1128146	n/a	LTP122	ltpFR	9	n/a	n/a	n/a	n/a	n/a	n/a	19	9	4	6	n/a	n/a	n/a	n/a	n/a
2258.724	n/a	PROB	1129362	n/a	LTP122	ltpFR	9	n/a	n/a	n/a	n/a	n/a	n/a	14	6	4	4	n/a	n/a	n/a	n/a	n/a
2260.024	n/a	PROB	1130012	n/a	LTP122	ltpFR	9	n/a	n/a	n/a	n/a	n/a	n/a	13	8	2	3	n/a	n/a	n/a	n/a	n/a
2261.374	n/a	PROB	1130687	n/a	LTP122	ltpFR	9	n/a	n/a	n/a	n/a	n/a	n/a	14	8	1	5	n/a	n/a	n/a	n/a	n/a
2262.974	n/a	PROB	1131487	n/a	LTP122	ltpFR	9	n/a	n/a	n/a	n/a	n/a	n/a	8	4	1	3	n/a	n/a	n/a	n/a	n/a
2265.148	n/a	PROB	1132574	n/a	LTP122	ltpFR	9	n/a	n/a	n/a	n/a	n/a	n/a	17	9	3	5	n/a	n/a	n/a	n/a	n/a
2266.856	n/a	PROB	1133428	n/a	LTP122	ltpFR	9	n/a	n/a	n/a	n/a	n/a	n/a	11	3	6	2	n/a	n/a	n/a	n/a	n/a
2268.746	n/a	PROB	1134373	n/a	LTP122	ltpFR	9	n/a	n/a	n/a	n/a	n/a	n/a	9	5	2	2	n/a	n/a	n/a	n/a	n/a
2270.466	n/a	STOP	1135233	n/a	LTP122	ltpFR	9	n/a	n/a	n/a	n/a	n/a	n/a	n/a	n/a	n/a	n/a	n/a	n/a	n/a	n/a	n/a
2272.48	n/a	WORD	1136240	wordpools/wasnorm_wordpool.txt	LTP122	ltpFR	9	9	1	ELECTRICIAN	521	n/a	1	n/a	0	0	0	0	0.5869140625	0.422607421875	upper	../fonts/amplitud.ttf
2275.486	n/a	START	1137743	n/a	LTP122	ltpFR	9	n/a	n/a	n/a	n/a	n/a	n/a	n/a	n/a	n/a	n/a	n/a	n/a	n/a	n/a	n/a
2276.62	n/a	PROB	1138310	n/a	LTP122	ltpFR	9	n/a	n/a	n/a	n/a	n/a	n/a	18	6	7	5	n/a	n/a	n/a	n/a	n/a
2278.684	n/a	PROB	1139342	n/a	LTP122	ltpFR	9	n/a	n/a	n/a	n/a	n/a	n/a	12	2	6	4	n/a	n/a	n/a	n/a	n/a
2280.378	n/a	PROB	1140189	n/a	LTP122	ltpFR	9	n/a	n/a	n/a	n/a	n/a	n/a	16	5	8	3	n/a	n/a	n/a	n/a	n/a
2282.058	n/a	PROB	1141029	n/a	LTP122	ltpFR	9	n/a	n/a	n/a	n/a	n/a	n/a	20	5	7	8	n/a	n/a	n/a	n/a	n/a
2284.874	n/a	PROB	1142437	n/a	LTP122	ltpFR	9	n/a	n/a	n/a	n/a	n/a	n/a	10	7	1	3	n/a	n/a	n/a	n/a	n/a
2286.84	n/a	PROB	1143420	n/a	LTP122	ltpFR	9	n/a	n/a	n/a	n/a	n/a	n/a	16	8	5	3	n/a	n/a	n/a	n/a	n/a
2291.488	n/a	STOP	1145744	n/a	LTP122	ltpFR	9	n/a	n/a	n/a	n/a	n/a	n/a	n/a	n/a	n/a	n/a	n/a	n/a	n/a	n/a	n/a
2292.548	n/a	WORD	1146274	wordpools/wasnorm_wordpool.txt	LTP122	ltpFR	9	9	1	TREAD	1499	n/a	0	n/a	0	0	0	0	0.5869140625	0.422607421875	upper	../fonts/amplitud.ttf
2295.556	n/a	START	1147778	n/a	LTP122	ltpFR	9	n/a	n/a	n/a	n/a	n/a	n/a	n/a	n/a	n/a	n/a	n/a	n/a	n/a	n/a	n/a
2296.438	n/a	PROB	1148219	n/a	LTP122	ltpFR	9	n/a	n/a	n/a	n/a	n/a	n/a	7	4	2	1	n/a	n/a	n/a	n/a	n/a
2298.312	n/a	PROB	1149156	n/a	LTP122	ltpFR	9	n/a	n/a	n/a	n/a	n/a	n/a	23	6	8	9	n/a	n/a	n/a	n/a	n/a
2302.42	n/a	PROB	1151210	n/a	LTP122	ltpFR	9	n/a	n/a	n/a	n/a	n/a	n/a	12	8	1	3	n/a	n/a	n/a	n/a	n/a
2303.952	n/a	PROB	1151976	n/a	LTP122	ltpFR	9	n/a	n/a	n/a	n/a	n/a	n/a	12	2	6	4	n/a	n/a	n/a	n/a	n/a
2305.56	n/a	PROB	1152780	n/a	LTP122	ltpFR	9	n/a	n/a	n/a	n/a	n/a	n/a	15	4	4	7	n/a	n/a	n/a	n/a	n/a
2307.594	n/a	PROB	1153797	n/a	LTP122	ltpFR	9	n/a	n/a	n/a	n/a	n/a	n/a	19	4	6	9	n/a	n/a	n/a	n/a	n/a
2309.642	n/a	PROB	1154821	n/a	LTP122	ltpFR	9	n/a	n/a	n/a	n/a	n/a	n/a	13	5	1	7	n/a	n/a	n/a	n/a	n/a
2311.38	n/a	STOP	1155690	n/a	LTP122	ltpFR	9	n/a	n/a	n/a	n/a	n/a	n/a	n/a	n/a	n/a	n/a	n/a	n/a	n/a	n/a	n/a
2312.366	n/a	WORD	1156183	wordpools/wasnorm_wordpool.txt	LTP122	ltpFR	9	9	1	SANDWICH	1232	n/a	0	n/a	0	0	0	0	0.5869140625	0.422607421875	upper	../fonts/amplitud.ttf
2315.374	n/a	START	1157687	n/a	LTP122	ltpFR	9	n/a	n/a	n/a	n/a	n/a	n/a	n/a	n/a	n/a	n/a	n/a	n/a	n/a	n/a	n/a
2316.308	n/a	PROB	1158154	n/a	LTP122	ltpFR	9	n/a	n/a	n/a	n/a	n/a	n/a	12	3	1	8	n/a	n/a	n/a	n/a	n/a
2317.864	n/a	PROB	1158932	n/a	LTP122	ltpFR	9	n/a	n/a	n/a	n/a	n/a	n/a	9	1	4	4	n/a	n/a	n/a	n/a	n/a
2319.49	n/a	PROB	1159745	n/a	LTP122	ltpFR	9	n/a	n/a	n/a	n/a	n/a	n/a	20	2	9	9	n/a	n/a	n/a	n/a	n/a
2321.988	n/a	PROB	1160994	n/a	LTP122	ltpFR	9	n/a	n/a	n/a	n/a	n/a	n/a	22	5	7	9	n/a	n/a	n/a	n/a	n/a
2324.364	n/a	PROB	1162182	n/a	LTP122	ltpFR	9	n/a	n/a	n/a	n/a	n/a	n/a	21	9	7	5	n/a	n/a	n/a	n/a	n/a
2327.33	n/a	PROB	1163665	n/a	LTP122	ltpFR	9	n/a	n/a	n/a	n/a	n/a	n/a	15	8	5	2	n/a	n/a	n/a	n/a	n/a
2329.128	n/a	PROB	1164564	n/a	LTP122	ltpFR	9	n/a	n/a	n/a	n/a	n/a	n/a	16	4	8	4	n/a	n/a	n/a	n/a	n/a
2331.012	n/a	STOP	1165506	n/a	LTP122	ltpFR	9	n/a	n/a	n/a	n/a	n/a	n/a	n/a	n/a	n/a	n/a	n/a	n/a	n/a	n/a	n/a
2332.552	n/a	WORD	1166276	wordpools/wasnorm_wordpool.txt	LTP122	ltpFR	9	9	1	MUSTARD	935	n/a	0	n/a	0	0	0	0	0.5869140625	0.422607421875	upper	../fonts/amplitud.ttf
2335.56	n/a	START	1167780	n/a	LTP122	ltpFR	9	n/a	n/a	n/a	n/a	n/a	n/a	n/a	n/a	n/a	n/a	n/a	n/a	n/a	n/a	n/a
2336.51	n/a	PROB	1168255	n/a	LTP122	ltpFR	9	n/a	n/a	n/a	n/a	n/a	n/a	12	6	3	3	n/a	n/a	n/a	n/a	n/a
2338.234	n/a	PROB	1169117	n/a	LTP122	ltpFR	9	n/a	n/a	n/a	n/a	n/a	n/a	13	4	8	1	n/a	n/a	n/a	n/a	n/a
2339.992	n/a	PROB	1169996	n/a	LTP122	ltpFR	9	n/a	n/a	n/a	n/a	n/a	n/a	16	1	6	9	n/a	n/a	n/a	n/a	n/a
2342.15	n/a	PROB	1171075	n/a	LTP122	ltpFR	9	n/a	n/a	n/a	n/a	n/a	n/a	15	7	2	6	n/a	n/a	n/a	n/a	n/a
2343.706	n/a	PROB	1171853	n/a	LTP122	ltpFR	9	n/a	n/a	n/a	n/a	n/a	n/a	15	2	7	6	n/a	n/a	n/a	n/a	n/a
2345.166	n/a	PROB	1172583	n/a	LTP122	ltpFR	9	n/a	n/a	n/a	n/a	n/a	n/a	13	3	5	5	n/a	n/a	n/a	n/a	n/a
2348.114	n/a	PROB	1174057	n/a	LTP122	ltpFR	9	n/a	n/a	n/a	n/a	n/a	n/a	18	8	2	8	n/a	n/a	n/a	n/a	n/a
2350.63	n/a	STOP	1175315	n/a	LTP122	ltpFR	9	n/a	n/a	n/a	n/a	n/a	n/a	n/a	n/a	n/a	n/a	n/a	n/a	n/a	n/a	n/a
2352.388	n/a	WORD	1176194	wordpools/wasnorm_wordpool.txt	LTP122	ltpFR	9	9	1	PHYSICIAN	1056	n/a	1	n/a	0	0	0	0	0.5869140625	0.422607421875	upper	../fonts/amplitud.ttf
2355.396	n/a	START	1177698	n/a	LTP122	ltpFR	9	n/a	n/a	n/a	n/a	n/a	n/a	n/a	n/a	n/a	n/a	n/a	n/a	n/a	n/a	n/a
2356.32	n/a	PROB	1178160	n/a	LTP122	ltpFR	9	n/a	n/a	n/a	n/a	n/a	n/a	13	5	7	1	n/a	n/a	n/a	n/a	n/a
2359.204	n/a	PROB	1179602	n/a	LTP122	ltpFR	9	n/a	n/a	n/a	n/a	n/a	n/a	11	5	4	2	n/a	n/a	n/a	n/a	n/a
2360.876	n/a	PROB	1180438	n/a	LTP122	ltpFR	9	n/a	n/a	n/a	n/a	n/a	n/a	17	9	3	5	n/a	n/a	n/a	n/a	n/a
2362.86	n/a	PROB	1181430	n/a	LTP122	ltpFR	9	n/a	n/a	n/a	n/a	n/a	n/a	16	3	6	7	n/a	n/a	n/a	n/a	n/a
2364.56	n/a	PROB	1182280	n/a	LTP122	ltpFR	9	n/a	n/a	n/a	n/a	n/a	n/a	5	3	1	1	n/a	n/a	n/a	n/a	n/a
2366.1	n/a	PROB	1183050	n/a	LTP122	ltpFR	9	n/a	n/a	n/a	n/a	n/a	n/a	14	1	5	8	n/a	n/a	n/a	n/a	n/a
2367.958	n/a	PROB	1183979	n/a	LTP122	ltpFR	9	n/a	n/a	n/a	n/a	n/a	n/a	9	1	7	1	n/a	n/a	n/a	n/a	n/a
2371.396	n/a	STOP	1185698	n/a	LTP122	ltpFR	9	n/a	n/a	n/a	n/a	n/a	n/a	n/a	n/a	n/a	n/a	n/a	n/a	n/a	n/a	n/a
2372.532	n/a	WORD	1186266	wordpools/wasnorm_wordpool.txt	LTP122	ltpFR	9	9	0	TEENAGER	1444	n/a	1	n/a	0	0	0	1	0.412841796875	0.57763671875	lower	../fonts/zerothre.ttf
2375.54	n/a	START	1187770	n/a	LTP122	ltpFR	9	n/a	n/a	n/a	n/a	n/a	n/a	n/a	n/a	n/a	n/a	n/a	n/a	n/a	n/a	n/a
2376.73	n/a	PROB	1188365	n/a	LTP122	ltpFR	9	n/a	n/a	n/a	n/a	n/a	n/a	16	4	6	6	n/a	n/a	n/a	n/a	n/a
2378.106	n/a	PROB	1189053	n/a	LTP122	ltpFR	9	n/a	n/a	n/a	n/a	n/a	n/a	13	2	9	2	n/a	n/a	n/a	n/a	n/a
2381.63	n/a	PROB	1190815	n/a	LTP122	ltpFR	9	n/a	n/a	n/a	n/a	n/a	n/a	12	3	5	4	n/a	n/a	n/a	n/a	n/a
2384.478	n/a	PROB	1192239	n/a	LTP122	ltpFR	9	n/a	n/a	n/a	n/a	n/a	n/a	12	3	5	4	n/a	n/a	n/a	n/a	n/a
2386.344	n/a	PROB	1193172	n/a	LTP122	ltpFR	9	n/a	n/a	n/a	n/a	n/a	n/a	14	3	8	3	n/a	n/a	n/a	n/a	n/a
2389.576	n/a	PROB	1194788	n/a	LTP122	ltpFR	9	n/a	n/a	n/a	n/a	n/a	n/a	15	9	4	2	n/a	n/a	n/a	n/a	n/a
2391.092	n/a	STOP	1195546	n/a	LTP122	ltpFR	9	n/a	n/a	n/a	n/a	n/a	n/a	n/a	n/a	n/a	n/a	n/a	n/a	n/a	n/a	n/a
2392.626	n/a	WORD	1196313	wordpools/wasnorm_wordpool.txt	LTP122	ltpFR	9	9	0	KID	775	n/a	1	n/a	0	0	0	1	0.412841796875	0.57763671875	lower	../fonts/zerothre.ttf
2395.634	n/a	START	1197817	n/a	LTP122	ltpFR	9	n/a	n/a	n/a	n/a	n/a	n/a	n/a	n/a	n/a	n/a	n/a	n/a	n/a	n/a	n/a
2396.766	n/a	PROB	1198383	n/a	LTP122	ltpFR	9	n/a	n/a	n/a	n/a	n/a	n/a	20	6	7	7	n/a	n/a	n/a	n/a	n/a
2400.2	n/a	PROB	1200100	n/a	LTP122	ltpFR	9	n/a	n/a	n/a	n/a	n/a	n/a	10	6	2	2	n/a	n/a	n/a	n/a	n/a
2401.964	n/a	PROB	1200982	n/a	LTP122	ltpFR	9	n/a	n/a	n/a	n/a	n/a	n/a	12	9	1	2	n/a	n/a	n/a	n/a	n/a
2403.548	n/a	PROB	1201774	n/a	LTP122	ltpFR	9	n/a	n/a	n/a	n/a	n/a	n/a	11	4	5	2	n/a	n/a	n/a	n/a	n/a
2404.922	n/a	PROB	1202461	n/a	LTP122	ltpFR	9	n/a	n/a	n/a	n/a	n/a	n/a	24	7	9	6	n/a	n/a	n/a	n/a	n/a
2407.804	n/a	PROB	1203902	n/a	LTP122	ltpFR	9	n/a	n/a	n/a	n/a	n/a	n/a	17	1	8	8	n/a	n/a	n/a	n/a	n/a
2410.272	n/a	STOP	1205136	n/a	LTP122	ltpFR	9	n/a	n/a	n/a	n/a	n/a	n/a	n/a	n/a	n/a	n/a	n/a	n/a	n/a	n/a	n/a
2412.494	n/a	WORD	1206247	wordpools/wasnorm_wordpool.txt	LTP122	ltpFR	9	9	0	MAYONNAISE	880	n/a	0	n/a	0	0	0	1	0.412841796875	0.57763671875	lower	../fonts/zerothre.ttf
2415.504	n/a	START	1207752	n/a	LTP122	ltpFR	9	n/a	n/a	n/a	n/a	n/a	n/a	n/a	n/a	n/a	n/a	n/a	n/a	n/a	n/a	n/a
2416.544	n/a	PROB	1208272	n/a	LTP122	ltpFR	9	n/a	n/a	n/a	n/a	n/a	n/a	17	4	4	9	n/a	n/a	n/a	n/a	n/a
2418.692	n/a	PROB	1209346	n/a	LTP122	ltpFR	9	n/a	n/a	n/a	n/a	n/a	n/a	23	8	8	7	n/a	n/a	n/a	n/a	n/a
2421.61	n/a	PROB	1210805	n/a	LTP122	ltpFR	9	n/a	n/a	n/a	n/a	n/a	n/a	15	6	2	7	n/a	n/a	n/a	n/a	n/a
2423.974	n/a	PROB	1211987	n/a	LTP122	ltpFR	9	n/a	n/a	n/a	n/a	n/a	n/a	17	5	3	9	n/a	n/a	n/a	n/a	n/a
2425.824	n/a	PROB	1212912	n/a	LTP122	ltpFR	9	n/a	n/a	n/a	n/a	n/a	n/a	12	1	6	5	n/a	n/a	n/a	n/a	n/a
2429.324	n/a	PROB	1214662	n/a	LTP122	ltpFR	9	n/a	n/a	n/a	n/a	n/a	n/a	16	6	7	3	n/a	n/a	n/a	n/a	n/a
2430.96	n/a	STOP	1215480	n/a	LTP122	ltpFR	9	n/a	n/a	n/a	n/a	n/a	n/a	n/a	n/a	n/a	n/a	n/a	n/a	n/a	n/a	n/a
2432.638	n/a	WORD	1216319	wordpools/wasnorm_wordpool.txt	LTP122	ltpFR	9	9	0	KETCHUP	771	n/a	0	n/a	0	0	0	1	0.412841796875	0.57763671875	lower	../fonts/zerothre.ttf
2435.648	n/a	START	1217824	n/a	LTP122	ltpFR	9	n/a	n/a	n/a	n/a	n/a	n/a	n/a	n/a	n/a	n/a	n/a	n/a	n/a	n/a	n/a
2436.762	n/a	PROB	1218381	n/a	LTP122	ltpFR	9	n/a	n/a	n/a	n/a	n/a	n/a	19	8	9	2	n/a	n/a	n/a	n/a	n/a
2438.954	n/a	PROB	1219477	n/a	LTP122	ltpFR	9	n/a	n/a	n/a	n/a	n/a	n/a	19	6	4	9	n/a	n/a	n/a	n/a	n/a
2440.428	n/a	PROB	1220214	n/a	LTP122	ltpFR	9	n/a	n/a	n/a	n/a	n/a	n/a	12	4	2	6	n/a	n/a	n/a	n/a	n/a
2442.06	n/a	PROB	1221030	n/a	LTP122	ltpFR	9	n/a	n/a	n/a	n/a	n/a	n/a	13	3	7	3	n/a	n/a	n/a	n/a	n/a
2444.444	n/a	PROB	1222222	n/a	LTP122	ltpFR	9	n/a	n/a	n/a	n/a	n/a	n/a	19	3	8	8	n/a	n/a	n/a	n/a	n/a
2447.008	n/a	PROB	1223504	n/a	LTP122	ltpFR	9	n/a	n/a	n/a	n/a	n/a	n/a	12	4	6	2	n/a	n/a	n/a	n/a	n/a
2448.234	n/a	PROB	1224117	n/a	LTP122	ltpFR	9	n/a	n/a	n/a	n/a	n/a	n/a	12	2	1	9	n/a	n/a	n/a	n/a	n/a
2451.646	n/a	STOP	1225823	n/a	LTP122	ltpFR	9	n/a	n/a	n/a	n/a	n/a	n/a	n/a	n/a	n/a	n/a	n/a	n/a	n/a	n/a	n/a
2452.748	n/a	WORD	1226374	wordpools/wasnorm_wordpool.txt	LTP122	ltpFR	9	9	0	SILK	1307	n/a	0	n/a	0	0	0	1	0.412841796875	0.57763671875	lower	../fonts/zerothre.ttf
2455.756	n/a	START	1227878	n/a	LTP122	ltpFR	9	n/a	n/a	n/a	n/a	n/a	n/a	n/a	n/a	n/a	n/a	n/a	n/a	n/a	n/a	n/a
2456.822	n/a	PROB	1228411	n/a	LTP122	ltpFR	9	n/a	n/a	n/a	n/a	n/a	n/a	18	9	6	3	n/a	n/a	n/a	n/a	n/a
2460.022	n/a	PROB	1230011	n/a	LTP122	ltpFR	9	n/a	n/a	n/a	n/a	n/a	n/a	9	2	5	2	n/a	n/a	n/a	n/a	n/a
2461.53	n/a	PROB	1230765	n/a	LTP122	ltpFR	9	n/a	n/a	n/a	n/a	n/a	n/a	19	9	4	6	n/a	n/a	n/a	n/a	n/a
2463.114	n/a	PROB	1231557	n/a	LTP122	ltpFR	9	n/a	n/a	n/a	n/a	n/a	n/a	24	8	7	9	n/a	n/a	n/a	n/a	n/a
2466.62	n/a	PROB	1233310	n/a	LTP122	ltpFR	9	n/a	n/a	n/a	n/a	n/a	n/a	15	8	3	4	n/a	n/a	n/a	n/a	n/a
2468.702	n/a	PROB	1234351	n/a	LTP122	ltpFR	9	n/a	n/a	n/a	n/a	n/a	n/a	17	4	8	5	n/a	n/a	n/a	n/a	n/a
2471.492	n/a	STOP	1235746	n/a	LTP122	ltpFR	9	n/a	n/a	n/a	n/a	n/a	n/a	n/a	n/a	n/a	n/a	n/a	n/a	n/a	n/a	n/a
2472.602	n/a	WORD	1236301	wordpools/wasnorm_wordpool.txt	LTP122	ltpFR	9	9	1	COTTON	385	n/a	0	n/a	0	0	0	0	0.5869140625	0.422607421875	upper	../fonts/amplitud.ttf
2475.61	n/a	START	1237805	n/a	LTP122	ltpFR	9	n/a	n/a	n/a	n/a	n/a	n/a	n/a	n/a	n/a	n/a	n/a	n/a	n/a	n/a	n/a
2476.75	n/a	PROB	1238375	n/a	LTP122	ltpFR	9	n/a	n/a	n/a	n/a	n/a	n/a	8	1	3	4	n/a	n/a	n/a	n/a	n/a
2478.592	n/a	PROB	1239296	n/a	LTP122	ltpFR	9	n/a	n/a	n/a	n/a	n/a	n/a	14	2	3	9	n/a	n/a	n/a	n/a	n/a
2480.342	n/a	PROB	1240171	n/a	LTP122	ltpFR	9	n/a	n/a	n/a	n/a	n/a	n/a	21	9	3	9	n/a	n/a	n/a	n/a	n/a
2483.198	n/a	PROB	1241599	n/a	LTP122	ltpFR	9	n/a	n/a	n/a	n/a	n/a	n/a	9	2	1	6	n/a	n/a	n/a	n/a	n/a
2484.78	n/a	PROB	1242390	n/a	LTP122	ltpFR	9	n/a	n/a	n/a	n/a	n/a	n/a	18	8	8	2	n/a	n/a	n/a	n/a	n/a
2486.298	n/a	PROB	1243149	n/a	LTP122	ltpFR	9	n/a	n/a	n/a	n/a	n/a	n/a	17	3	5	9	n/a	n/a	n/a	n/a	n/a
2488.506	n/a	PROB	1244253	n/a	LTP122	ltpFR	9	n/a	n/a	n/a	n/a	n/a	n/a	8	1	3	4	n/a	n/a	n/a	n/a	n/a
2491.61	n/a	STOP	1245805	n/a	LTP122	ltpFR	9	n/a	n/a	n/a	n/a	n/a	n/a	n/a	n/a	n/a	n/a	n/a	n/a	n/a	n/a	n/a
2492.704	n/a	WORD	1246352	wordpools/wasnorm_wordpool.txt	LTP122	ltpFR	9	9	1	MOON	914	n/a	1	n/a	0	0	0	0	0.5869140625	0.422607421875	upper	../fonts/amplitud.ttf
2495.712	n/a	START	1247856	n/a	LTP122	ltpFR	9	n/a	n/a	n/a	n/a	n/a	n/a	n/a	n/a	n/a	n/a	n/a	n/a	n/a	n/a	n/a
2496.702	n/a	PROB	1248351	n/a	LTP122	ltpFR	9	n/a	n/a	n/a	n/a	n/a	n/a	19	8	9	2	n/a	n/a	n/a	n/a	n/a
2498.42	n/a	PROB	1249210	n/a	LTP122	ltpFR	9	n/a	n/a	n/a	n/a	n/a	n/a	19	9	3	7	n/a	n/a	n/a	n/a	n/a
2503.066	n/a	PROB	1251533	n/a	LTP122	ltpFR	9	n/a	n/a	n/a	n/a	n/a	n/a	21	7	5	9	n/a	n/a	n/a	n/a	n/a
2507.082	n/a	PROB	1253541	n/a	LTP122	ltpFR	9	n/a	n/a	n/a	n/a	n/a	n/a	9	3	5	1	n/a	n/a	n/a	n/a	n/a
2508.54	n/a	PROB	1254270	n/a	LTP122	ltpFR	9	n/a	n/a	n/a	n/a	n/a	n/a	12	2	9	1	n/a	n/a	n/a	n/a	n/a
2511.182	n/a	STOP	1255591	n/a	LTP122	ltpFR	9	n/a	n/a	n/a	n/a	n/a	n/a	n/a	n/a	n/a	n/a	n/a	n/a	n/a	n/a	n/a
2513.474	n/a	REC_START	1256737	n/a	LTP122	ltpFR	9	9	n/a	n/a	n/a	n/a	n/a	n/a	0	0	0	n/a	n/a	n/a	n/a	n/a
2517.34	n/a	REC_WORD	1258670	wordpools/wasnorm_wordpool.txt	LTP122	ltpFR	9	9	1	SANDWICH	1232	n/a	0	n/a	0	0	0	n/a	n/a	n/a	n/a	n/a
2518.318	n/a	REC_WORD	1259159	wordpools/wasnorm_wordpool.txt	LTP122	ltpFR	9	9	0	TUNA	1518	n/a	0	n/a	0	0	0	n/a	n/a	n/a	n/a	n/a
2519.764	n/a	REC_WORD	1259882	wordpools/wasnorm_wordpool.txt	LTP122	ltpFR	9	9	0	MAYONNAISE	880	n/a	0	n/a	0	0	0	n/a	n/a	n/a	n/a	n/a
2521.43	n/a	REC_WORD	1260715	wordpools/wasnorm_wordpool.txt	LTP122	ltpFR	9	9	1	MUSTARD	935	n/a	0	n/a	0	0	0	n/a	n/a	n/a	n/a	n/a
2522.228	n/a	REC_WORD	1261114	wordpools/wasnorm_wordpool.txt	LTP122	ltpFR	9	9	0	KETCHUP	771	n/a	0	n/a	0	0	0	n/a	n/a	n/a	n/a	n/a
2524.424	n/a	REC_WORD	1262212	wordpools/wasnorm_wordpool.txt	LTP122	ltpFR	9	9	0	JUG	762	n/a	0	n/a	0	0	0	n/a	n/a	n/a	n/a	n/a
2525.82	n/a	REC_WORD	1262910	wordpools/wasnorm_wordpool.txt	LTP122	ltpFR	9	9	0	COLONEL	348	n/a	1	n/a	0	0	0	n/a	n/a	n/a	n/a	n/a
2527.906	n/a	REC_WORD	1263953	wordpools/wasnorm_wordpool.txt	LTP122	ltpFR	9	9	1	ELECTRICIAN	521	n/a	1	n/a	0	0	0	n/a	n/a	n/a	n/a	n/a
2528.854	n/a	REC_WORD	1264427	wordpools/wasnorm_wordpool.txt	LTP122	ltpFR	9	9	1	TREAD	1499	n/a	0	n/a	0	0	0	n/a	n/a	n/a	n/a	n/a
2530.6	n/a	REC_WORD	1265300	wordpools/wasnorm_wordpool.txt	LTP122	ltpFR	9	9	1	PHYSICIAN	1056	n/a	1	n/a	0	0	0	n/a	n/a	n/a	n/a	n/a
2531.798	n/a	REC_WORD	1265899	wordpools/wasnorm_wordpool.txt	LTP122	ltpFR	9	9	0	SILK	1307	n/a	0	n/a	0	0	0	n/a	n/a	n/a	n/a	n/a
2532.856	n/a	REC_WORD	1266428	wordpools/wasnorm_wordpool.txt	LTP122	ltpFR	9	9	1	COTTON	385	n/a	0	n/a	0	0	0	n/a	n/a	n/a	n/a	n/a
2534.238	n/a	REC_WORD	1267119	wordpools/wasnorm_wordpool.txt	LTP122	ltpFR	9	9	1	CAPITAL	238	n/a	0	n/a	0	0	0	n/a	n/a	n/a	n/a	n/a
2536.626	n/a	REC_WORD	1268313	wordpools/wasnorm_wordpool.txt	LTP122	ltpFR	9	9	0	TEENAGER	1444	n/a	1	n/a	0	0	0	n/a	n/a	n/a	n/a	n/a
2537.544	n/a	REC_WORD	1268772	wordpools/wasnorm_wordpool.txt	LTP122	ltpFR	9	9	0	KID	775	n/a	1	n/a	0	0	0	n/a	n/a	n/a	n/a	n/a
2568.606	n/a	REC_WORD	1284303	wordpools/wasnorm_wordpool.txt	LTP122	ltpFR	9	9	1	MOON	914	n/a	1	n/a	0	0	0	n/a	n/a	n/a	n/a	n/a
2601.912	n/a	WORD	1300956	wordpools/wasnorm_wordpool.txt	LTP122	ltpFR	9	10	0	POPCORN	1104	n/a	0	n/a	0	0	0	1	0.412841796875	0.57763671875	lower	../fonts/zerothre.ttf
2606.052	n/a	WORD	1303026	wordpools/wasnorm_wordpool.txt	LTP122	ltpFR	9	10	0	SUGAR	1401	n/a	0	n/a	0	0	0	1	0.412841796875	0.57763671875	lower	../fonts/zerothre.ttf
2609.926	n/a	WORD	1304963	wordpools/wasnorm_wordpool.txt	LTP122	ltpFR	9	10	0	OREGANO	983	n/a	0	n/a	0	0	0	1	0.412841796875	0.57763671875	lower	../fonts/zerothre.ttf
2614.092	n/a	WORD	1307046	wordpools/wasnorm_wordpool.txt	LTP122	ltpFR	9	10	0	REINDEER	1181	n/a	1	n/a	0	0	0	1	0.412841796875	0.57763671875	lower	../fonts/zerothre.ttf
2617.998	n/a	WORD	1308999	wordpools/wasnorm_wordpool.txt	LTP122	ltpFR	9	10	0	ASSISTANT	48	n/a	1	n/a	0	0	0	1	0.412841796875	0.57763671875	lower	../fonts/zerothre.ttf
2621.822	n/a	WORD	1310911	wordpools/wasnorm_wordpool.txt	LTP122	ltpFR	9	10	0	LACE	792	n/a	0	n/a	0	0	0	1	0.412841796875	0.57763671875	lower	../fonts/zerothre.ttf
2625.704	n/a	WORD	1312852	wordpools/wasnorm_wordpool.txt	LTP122	ltpFR	9	10	0	UNIVERSITY	1541	n/a	1	n/a	0	0	0	1	0.412841796875	0.57763671875	lower	../fonts/zerothre.ttf
2629.58	n/a	WORD	1314790	wordpools/wasnorm_wordpool.txt	LTP122	ltpFR	9	10	0	SKUNK	1321	n/a	1	n/a	0	0	0	1	0.412841796875	0.57763671875	lower	../fonts/zerothre.ttf
2633.578	n/a	WORD	1316789	wordpools/wasnorm_wordpool.txt	LTP122	ltpFR	9	10	0	LEAF	808	n/a	1	n/a	0	0	0	1	0.412841796875	0.57763671875	lower	../fonts/zerothre.ttf
2637.684	n/a	WORD	1318842	wordpools/wasnorm_wordpool.txt	LTP122	ltpFR	9	10	0	TWIG	1527	n/a	0	n/a	0	0	0	1	0.412841796875	0.57763671875	lower	../fonts/zerothre.ttf
2641.882	n/a	WORD	1320941	wordpools/wasnorm_wordpool.txt	LTP122	ltpFR	9	10	0	RESTAURANT	1187	n/a	1	n/a	0	0	0	1	0.412841796875	0.57763671875	lower	../fonts/zerothre.ttf
2645.84	n/a	WORD	1322920	wordpools/wasnorm_wordpool.txt	LTP122	ltpFR	9	10	0	SODA	1341	n/a	0	n/a	0	0	0	1	0.412841796875	0.57763671875	lower	../fonts/zerothre.ttf
2650.014	n/a	WORD	1325007	wordpools/wasnorm_wordpool.txt	LTP122	ltpFR	9	10	0	LID	817	n/a	0	n/a	0	0	0	1	0.412841796875	0.57763671875	lower	../fonts/zerothre.ttf
2653.988	n/a	WORD	1326994	wordpools/wasnorm_wordpool.txt	LTP122	ltpFR	9	10	0	COLOGNE	347	n/a	0	n/a	0	0	0	1	0.412841796875	0.57763671875	lower	../fonts/zerothre.ttf
2658.078	n/a	WORD	1329039	wordpools/wasnorm_wordpool.txt	LTP122	ltpFR	9	10	0	SUN	1406	n/a	1	n/a	0	0	0	1	0.412841796875	0.57763671875	lower	../fonts/zerothre.ttf
2662.22	n/a	WORD	1331110	wordpools/wasnorm_wordpool.txt	LTP122	ltpFR	9	10	0	CONTAINER	366	n/a	0	n/a	0	0	0	1	0.412841796875	0.57763671875	lower	../fonts/zerothre.ttf
2668.26	n/a	REC_START	1334130	n/a	LTP122	ltpFR	9	10	n/a	n/a	n/a	n/a	n/a	n/a	0	0	0	n/a	n/a	n/a	n/a	n/a
2670.5	n/a	REC_WORD	1335250	wordpools/wasnorm_wordpool.txt	LTP122	ltpFR	9	10	0	POPCORN	1104	n/a	0	n/a	0	0	0	n/a	n/a	n/a	n/a	n/a
2671.33	n/a	REC_WORD	1335665	wordpools/wasnorm_wordpool.txt	LTP122	ltpFR	9	10	0	SUGAR	1401	n/a	0	n/a	0	0	0	n/a	n/a	n/a	n/a	n/a
