mstime	trial_type	stim_file	subject	experiment	session	trial	task	item_name	item_num	recog_resp	recog_conf	resp	color_r	color_g	color_b	case	font
0	SESS_START	n/a	LTP196	ltpFR	15	n/a	n/a	n/a	n/a	1	2	n/a	n/a	n/a	n/a	n/a	n/a
82993	WORD	wordpools/wasnorm_wordpool_less_exclusions.txt	LTP196	ltpFR	15	1	0	SACK	1220	0	n/a	0	0.422607421875	0.5869140625	0	lower	zerothre.ttf
87070	WORD	wordpools/wasnorm_wordpool_less_exclusions.txt	LTP196	ltpFR	15	1	0	SIDEWALK	1303	n/a	n/a	1	0.422607421875	0.5869140625	0	lower	zerothre.ttf
91247	WORD	wordpools/wasnorm_wordpool_less_exclusions.txt	LTP196	ltpFR	15	1	0	BOTTLE	153	n/a	n/a	0	0.422607421875	0.5869140625	0	lower	zerothre.ttf
95208	WORD	wordpools/wasnorm_wordpool_less_exclusions.txt	LTP196	ltpFR	15	1	0	BOX	159	n/a	n/a	0	0.422607421875	0.5869140625	0	lower	zerothre.ttf
99235	WORD	wordpools/wasnorm_wordpool_less_exclusions.txt	LTP196	ltpFR	15	1	1	PRIEST	1122	n/a	n/a	1	0.57763671875	0.412841796875	1	upper	amplitud.ttf
103129	WORD	wordpools/wasnorm_wordpool_less_exclusions.txt	LTP196	ltpFR	15	1	1	CHAPEL	280	n/a	n/a	0	0.57763671875	0.412841796875	1	upper	amplitud.ttf
107073	WORD	wordpools/wasnorm_wordpool_less_exclusions.txt	LTP196	ltpFR	15	1	0	LOG	841	n/a	n/a	1	0.422607421875	0.5869140625	0	lower	zerothre.ttf
110901	WORD	wordpools/wasnorm_wordpool_less_exclusions.txt	LTP196	ltpFR	15	1	0	SCOTCH	1251	n/a	n/a	0	0.422607421875	0.5869140625	0	lower	zerothre.ttf
115095	WORD	wordpools/wasnorm_wordpool_less_exclusions.txt	LTP196	ltpFR	15	1	0	WRITER	1627	n/a	n/a	1	0.422607421875	0.5869140625	0	lower	zerothre.ttf
119239	WORD	wordpools/wasnorm_wordpool_less_exclusions.txt	LTP196	ltpFR	15	1	0	WORM	1623	n/a	n/a	0	0.422607421875	0.5869140625	0	lower	zerothre.ttf
123233	WORD	wordpools/wasnorm_wordpool_less_exclusions.txt	LTP196	ltpFR	15	1	1	TIGER	1467	n/a	n/a	1	0.57763671875	0.412841796875	1	upper	amplitud.ttf
127210	WORD	wordpools/wasnorm_wordpool_less_exclusions.txt	LTP196	ltpFR	15	1	1	KITTEN	780	n/a	n/a	1	0.57763671875	0.412841796875	1	upper	amplitud.ttf
131338	WORD	wordpools/wasnorm_wordpool_less_exclusions.txt	LTP196	ltpFR	15	1	1	TWINE	1529	n/a	n/a	0	0.57763671875	0.412841796875	1	upper	amplitud.ttf
135198	WORD	wordpools/wasnorm_wordpool_less_exclusions.txt	LTP196	ltpFR	15	1	1	NICOTINE	951	n/a	n/a	0	0.57763671875	0.412841796875	1	upper	amplitud.ttf
139175	WORD	wordpools/wasnorm_wordpool_less_exclusions.txt	LTP196	ltpFR	15	1	1	EMPIRE	530	n/a	n/a	0	0.57763671875	0.412841796875	1	upper	amplitud.ttf
143253	WORD	wordpools/wasnorm_wordpool_less_exclusions.txt	LTP196	ltpFR	15	1	1	TIE	1466	n/a	n/a	0	0.57763671875	0.412841796875	1	upper	amplitud.ttf
148928	REC_START	n/a	LTP196	ltpFR	15	1	n/a	n/a	n/a	n/a	n/a	n/a	n/a	n/a	n/a	n/a	n/a
152739	REC_WORD	wordpools/wasnorm_wordpool_less_exclusions.txt	LTP196	ltpFR	15	1	1	PRIEST	1122	n/a	n/a	1	n/a	n/a	n/a	n/a	n/a
155333	REC_WORD	wordpools/wasnorm_wordpool_less_exclusions.txt	LTP196	ltpFR	15	1	0	SACK	1220	n/a	n/a	0	n/a	n/a	n/a	n/a	n/a
157254	REC_WORD	wordpools/wasnorm_wordpool_less_exclusions.txt	LTP196	ltpFR	15	1	0	BOTTLE	153	n/a	n/a	0	n/a	n/a	n/a	n/a	n/a
158606	REC_WORD	wordpools/wasnorm_wordpool_less_exclusions.txt	LTP196	ltpFR	15	1	0	BOX	159	n/a	n/a	0	n/a	n/a	n/a	n/a	n/a
164622	REC_WORD	wordpools/wasnorm_wordpool_less_exclusions.txt	LTP196	ltpFR	15	1	0	SIDEWALK	1303	n/a	n/a	1	n/a	n/a	n/a	n/a	n/a
168693	REC_WORD	wordpools/wasnorm_wordpool_less_exclusions.txt	LTP196	ltpFR	15	1	1	CHAPEL	280	n/a	n/a	0	n/a	n/a	n/a	n/a	n/a
172669	REC_WORD	wordpools/wasnorm_wordpool_less_exclusions.txt	LTP196	ltpFR	15	1	1	EMPIRE	530	n/a	n/a	0	n/a	n/a	n/a	n/a	n/a
178835	REC_WORD	wordpools/wasnorm_wordpool_less_exclusions.txt	LTP196	ltpFR	15	1	0	WORM	1623	n/a	n/a	0	n/a	n/a	n/a	n/a	n/a
180546	REC_WORD	wordpools/wasnorm_wordpool_less_exclusions.txt	LTP196	ltpFR	15	1	1	TIGER	1467	n/a	n/a	1	n/a	n/a	n/a	n/a	n/a
187430	REC_WORD	wordpools/wasnorm_wordpool_less_exclusions.txt	LTP196	ltpFR	15	1	1	KITTEN	780	n/a	n/a	1	n/a	n/a	n/a	n/a	n/a
189256	REC_WORD	wordpools/wasnorm_wordpool_less_exclusions.txt	LTP196	ltpFR	15	1	1	TWINE	1529	n/a	n/a	0	n/a	n/a	n/a	n/a	n/a
193955	REC_WORD	wordpools/wasnorm_wordpool_less_exclusions.txt	LTP196	ltpFR	15	1	0	SCOTCH	1251	n/a	n/a	0	n/a	n/a	n/a	n/a	n/a
196983	REC_WORD	wordpools/wasnorm_wordpool_less_exclusions.txt	LTP196	ltpFR	15	1	1	NICOTINE	951	n/a	n/a	0	n/a	n/a	n/a	n/a	n/a
206412	REC_WORD	wordpools/wasnorm_wordpool_less_exclusions.txt	LTP196	ltpFR	15	1	0	LOG	841	n/a	n/a	1	n/a	n/a	n/a	n/a	n/a
212638	REC_WORD	wordpools/wasnorm_wordpool_less_exclusions.txt	LTP196	ltpFR	15	1	0	WRITER	1627	n/a	n/a	1	n/a	n/a	n/a	n/a	n/a
228708	WORD	wordpools/wasnorm_wordpool_less_exclusions.txt	LTP196	ltpFR	15	2	1	CATCHER	258	n/a	n/a	1	0.57763671875	0.412841796875	1	upper	amplitud.ttf
232852	WORD	wordpools/wasnorm_wordpool_less_exclusions.txt	LTP196	ltpFR	15	2	1	DOG	480	n/a	n/a	1	0.57763671875	0.412841796875	1	upper	amplitud.ttf
236946	WORD	wordpools/wasnorm_wordpool_less_exclusions.txt	LTP196	ltpFR	15	2	1	TICK	1463	n/a	n/a	1	0.57763671875	0.412841796875	1	upper	amplitud.ttf
240857	WORD	wordpools/wasnorm_wordpool_less_exclusions.txt	LTP196	ltpFR	15	2	1	DOVE	491	n/a	n/a	1	0.57763671875	0.412841796875	1	upper	amplitud.ttf
245051	WORD	wordpools/wasnorm_wordpool_less_exclusions.txt	LTP196	ltpFR	15	2	0	SNEAKER	1334	n/a	n/a	0	0.422607421875	0.5869140625	0	lower	zerothre.ttf
248928	WORD	wordpools/wasnorm_wordpool_less_exclusions.txt	LTP196	ltpFR	15	2	0	CAFE	216	n/a	n/a	1	0.422607421875	0.5869140625	0	lower	zerothre.ttf
253089	WORD	wordpools/wasnorm_wordpool_less_exclusions.txt	LTP196	ltpFR	15	2	0	PUZZLE	1146	n/a	n/a	0	0.422607421875	0.5869140625	0	lower	zerothre.ttf
257249	WORD	wordpools/wasnorm_wordpool_less_exclusions.txt	LTP196	ltpFR	15	2	0	TOY	1492	n/a	n/a	0	0.422607421875	0.5869140625	0	lower	zerothre.ttf
261344	WORD	wordpools/wasnorm_wordpool_less_exclusions.txt	LTP196	ltpFR	15	2	1	LIVER	833	n/a	n/a	0	0.57763671875	0.412841796875	1	upper	amplitud.ttf
265421	WORD	wordpools/wasnorm_wordpool_less_exclusions.txt	LTP196	ltpFR	15	2	1	FRIES	607	n/a	n/a	0	0.57763671875	0.412841796875	1	upper	amplitud.ttf
269614	WORD	wordpools/wasnorm_wordpool_less_exclusions.txt	LTP196	ltpFR	15	2	1	SHOELACE	1289	n/a	n/a	0	0.57763671875	0.412841796875	1	upper	amplitud.ttf
273526	WORD	wordpools/wasnorm_wordpool_less_exclusions.txt	LTP196	ltpFR	15	2	1	NECK	939	n/a	n/a	0	0.57763671875	0.412841796875	1	upper	amplitud.ttf
277702	WORD	wordpools/wasnorm_wordpool_less_exclusions.txt	LTP196	ltpFR	15	2	0	ELF	525	n/a	n/a	1	0.422607421875	0.5869140625	0	lower	zerothre.ttf
281779	WORD	wordpools/wasnorm_wordpool_less_exclusions.txt	LTP196	ltpFR	15	2	0	SLEIGH	1325	n/a	n/a	1	0.422607421875	0.5869140625	0	lower	zerothre.ttf
285773	WORD	wordpools/wasnorm_wordpool_less_exclusions.txt	LTP196	ltpFR	15	2	0	DART	440	n/a	n/a	0	0.422607421875	0.5869140625	0	lower	zerothre.ttf
289734	WORD	wordpools/wasnorm_wordpool_less_exclusions.txt	LTP196	ltpFR	15	2	0	COLESLAW	344	n/a	n/a	0	0.422607421875	0.5869140625	0	lower	zerothre.ttf
295427	REC_START	n/a	LTP196	ltpFR	15	2	n/a	n/a	n/a	n/a	n/a	n/a	n/a	n/a	n/a	n/a	n/a
299263	REC_WORD	wordpools/wasnorm_wordpool_less_exclusions.txt	LTP196	ltpFR	15	2	1	DOG	480	n/a	n/a	1	n/a	n/a	n/a	n/a	n/a
300231	REC_WORD	wordpools/wasnorm_wordpool_less_exclusions.txt	LTP196	ltpFR	15	2	1	CATCHER	258	n/a	n/a	1	n/a	n/a	n/a	n/a	n/a
304531	REC_WORD	wordpools/wasnorm_wordpool_less_exclusions.txt	LTP196	ltpFR	15	2	1	SHOELACE	1289	n/a	n/a	0	n/a	n/a	n/a	n/a	n/a
305598	REC_WORD	wordpools/wasnorm_wordpool_less_exclusions.txt	LTP196	ltpFR	15	2	0	SNEAKER	1334	n/a	n/a	0	n/a	n/a	n/a	n/a	n/a
309774	REC_WORD	wordpools/wasnorm_wordpool_less_exclusions.txt	LTP196	ltpFR	15	2	0	PUZZLE	1146	n/a	n/a	0	n/a	n/a	n/a	n/a	n/a
310353	REC_WORD	wordpools/wasnorm_wordpool_less_exclusions.txt	LTP196	ltpFR	15	2	0	TOY	1492	n/a	n/a	0	n/a	n/a	n/a	n/a	n/a
313226	REC_WORD	wordpools/wasnorm_wordpool_less_exclusions.txt	LTP196	ltpFR	15	2	0	CAFE	216	n/a	n/a	1	n/a	n/a	n/a	n/a	n/a
325638	REC_WORD	wordpools/wasnorm_wordpool_less_exclusions.txt	LTP196	ltpFR	15	2	1	TICK	1463	n/a	n/a	1	n/a	n/a	n/a	n/a	n/a
329694	REC_WORD	wordpools/wasnorm_wordpool_less_exclusions.txt	LTP196	ltpFR	15	2	1	DOVE	491	n/a	n/a	1	n/a	n/a	n/a	n/a	n/a
340260	REC_WORD	wordpools/wasnorm_wordpool_less_exclusions.txt	LTP196	ltpFR	15	2	0	ELF	525	n/a	n/a	1	n/a	n/a	n/a	n/a	n/a
342000	REC_WORD	wordpools/wasnorm_wordpool_less_exclusions.txt	LTP196	ltpFR	15	2	0	SLEIGH	1325	n/a	n/a	1	n/a	n/a	n/a	n/a	n/a
347783	REC_WORD	wordpools/wasnorm_wordpool_less_exclusions.txt	LTP196	ltpFR	15	2	0	COLESLAW	344	n/a	n/a	0	n/a	n/a	n/a	n/a	n/a
355800	REC_WORD	wordpools/wasnorm_wordpool_less_exclusions.txt	LTP196	ltpFR	15	2	0	DART	440	n/a	n/a	0	n/a	n/a	n/a	n/a	n/a
374158	WORD	wordpools/wasnorm_wordpool_less_exclusions.txt	LTP196	ltpFR	15	3	-1	MAJOR	859	n/a	n/a	-1	1.0	1.0	1	upper	Verdana.ttf
377985	WORD	wordpools/wasnorm_wordpool_less_exclusions.txt	LTP196	ltpFR	15	3	-1	HAYSTACK	694	n/a	n/a	-1	1.0	1.0	1	upper	Verdana.ttf
381880	WORD	wordpools/wasnorm_wordpool_less_exclusions.txt	LTP196	ltpFR	15	3	-1	BUG	187	n/a	n/a	-1	1.0	1.0	1	upper	Verdana.ttf
385840	WORD	wordpools/wasnorm_wordpool_less_exclusions.txt	LTP196	ltpFR	15	3	-1	SEED	1266	n/a	n/a	-1	1.0	1.0	1	upper	Verdana.ttf
389801	WORD	wordpools/wasnorm_wordpool_less_exclusions.txt	LTP196	ltpFR	15	3	-1	TRENCH	1503	n/a	n/a	-1	1.0	1.0	1	upper	Verdana.ttf
393912	WORD	wordpools/wasnorm_wordpool_less_exclusions.txt	LTP196	ltpFR	15	3	-1	ATLAS	53	n/a	n/a	-1	1.0	1.0	1	upper	Verdana.ttf
397889	WORD	wordpools/wasnorm_wordpool_less_exclusions.txt	LTP196	ltpFR	15	3	-1	POWDER	1117	n/a	n/a	-1	1.0	1.0	1	upper	Verdana.ttf
402049	WORD	wordpools/wasnorm_wordpool_less_exclusions.txt	LTP196	ltpFR	15	3	-1	STAKE	1368	n/a	n/a	-1	1.0	1.0	1	upper	Verdana.ttf
406043	WORD	wordpools/wasnorm_wordpool_less_exclusions.txt	LTP196	ltpFR	15	3	-1	SANDPAPER	1231	n/a	n/a	-1	1.0	1.0	1	upper	Verdana.ttf
410121	WORD	wordpools/wasnorm_wordpool_less_exclusions.txt	LTP196	ltpFR	15	3	-1	SHIP	1286	n/a	n/a	-1	1.0	1.0	1	upper	Verdana.ttf
414148	WORD	wordpools/wasnorm_wordpool_less_exclusions.txt	LTP196	ltpFR	15	3	-1	CREW	406	n/a	n/a	-1	1.0	1.0	1	upper	Verdana.ttf
418159	WORD	wordpools/wasnorm_wordpool_less_exclusions.txt	LTP196	ltpFR	15	3	-1	CIGAR	308	n/a	n/a	-1	1.0	1.0	1	upper	Verdana.ttf
422286	WORD	wordpools/wasnorm_wordpool_less_exclusions.txt	LTP196	ltpFR	15	3	-1	WORLD	1622	n/a	n/a	-1	1.0	1.0	1	upper	Verdana.ttf
426414	WORD	wordpools/wasnorm_wordpool_less_exclusions.txt	LTP196	ltpFR	15	3	-1	HAY	693	n/a	n/a	-1	1.0	1.0	1	upper	Verdana.ttf
430358	WORD	wordpools/wasnorm_wordpool_less_exclusions.txt	LTP196	ltpFR	15	3	-1	VILLAGE	1566	n/a	n/a	-1	1.0	1.0	1	upper	Verdana.ttf
434201	WORD	wordpools/wasnorm_wordpool_less_exclusions.txt	LTP196	ltpFR	15	3	-1	BRICK	172	n/a	n/a	-1	1.0	1.0	1	upper	Verdana.ttf
439994	REC_START	n/a	LTP196	ltpFR	15	3	n/a	n/a	n/a	n/a	n/a	n/a	n/a	n/a	n/a	n/a	n/a
442718	REC_WORD	wordpools/wasnorm_wordpool_less_exclusions.txt	LTP196	ltpFR	15	3	-1	HAY	693	n/a	n/a	-1	n/a	n/a	n/a	n/a	n/a
443310	REC_WORD	wordpools/wasnorm_wordpool_less_exclusions.txt	LTP196	ltpFR	15	3	-1	HAYSTACK	694	n/a	n/a	-1	n/a	n/a	n/a	n/a	n/a
446554	REC_WORD	wordpools/wasnorm_wordpool_less_exclusions.txt	LTP196	ltpFR	15	3	-1	BUG	187	n/a	n/a	-1	n/a	n/a	n/a	n/a	n/a
447177	REC_WORD	wordpools/wasnorm_wordpool_less_exclusions.txt	LTP196	ltpFR	15	3	-1	SEED	1266	n/a	n/a	-1	n/a	n/a	n/a	n/a	n/a
450490	REC_WORD	wordpools/wasnorm_wordpool_less_exclusions.txt	LTP196	ltpFR	15	3	-1	SHIP	1286	n/a	n/a	-1	n/a	n/a	n/a	n/a	n/a
451228	REC_WORD	wordpools/wasnorm_wordpool_less_exclusions.txt	LTP196	ltpFR	15	3	-1	CREW	406	n/a	n/a	-1	n/a	n/a	n/a	n/a	n/a
456461	REC_WORD	wordpools/wasnorm_wordpool_less_exclusions.txt	LTP196	ltpFR	15	3	-1	TRENCH	1503	n/a	n/a	-1	n/a	n/a	n/a	n/a	n/a
460392	REC_WORD	wordpools/wasnorm_wordpool_less_exclusions.txt	LTP196	ltpFR	15	3	-1	POWDER	1117	n/a	n/a	-1	n/a	n/a	n/a	n/a	n/a
463755	REC_WORD	wordpools/wasnorm_wordpool_less_exclusions.txt	LTP196	ltpFR	15	3	-1	BRICK	172	n/a	n/a	-1	n/a	n/a	n/a	n/a	n/a
466024	REC_WORD	wordpools/wasnorm_wordpool_less_exclusions.txt	LTP196	ltpFR	15	3	-1	STAKE	1368	n/a	n/a	-1	n/a	n/a	n/a	n/a	n/a
472146	REC_WORD	wordpools/wasnorm_wordpool_less_exclusions.txt	LTP196	ltpFR	15	3	-1	MAJOR	859	n/a	n/a	-1	n/a	n/a	n/a	n/a	n/a
475149	REC_WORD	wordpools/wasnorm_wordpool_less_exclusions.txt	LTP196	ltpFR	15	3	-1	VILLAGE	1566	n/a	n/a	-1	n/a	n/a	n/a	n/a	n/a
520023	WORD	wordpools/wasnorm_wordpool_less_exclusions.txt	LTP196	ltpFR	15	4	1	TEA	1439	n/a	n/a	0	0.57763671875	0.412841796875	1	upper	amplitud.ttf
524184	WORD	wordpools/wasnorm_wordpool_less_exclusions.txt	LTP196	ltpFR	15	4	1	POLYESTER	1100	n/a	n/a	0	0.57763671875	0.412841796875	1	upper	amplitud.ttf
528345	WORD	wordpools/wasnorm_wordpool_less_exclusions.txt	LTP196	ltpFR	15	4	1	SKIRT	1319	n/a	n/a	0	0.57763671875	0.412841796875	1	upper	amplitud.ttf
532456	WORD	wordpools/wasnorm_wordpool_less_exclusions.txt	LTP196	ltpFR	15	4	1	GOAT	644	n/a	n/a	1	0.57763671875	0.412841796875	1	upper	amplitud.ttf
536433	WORD	wordpools/wasnorm_wordpool_less_exclusions.txt	LTP196	ltpFR	15	4	1	ORANGE	980	n/a	n/a	0	0.57763671875	0.412841796875	1	upper	amplitud.ttf
540543	WORD	wordpools/wasnorm_wordpool_less_exclusions.txt	LTP196	ltpFR	15	4	1	CATTLE	261	n/a	n/a	1	0.57763671875	0.412841796875	1	upper	amplitud.ttf
544570	WORD	wordpools/wasnorm_wordpool_less_exclusions.txt	LTP196	ltpFR	15	4	1	THICKET	1455	n/a	n/a	0	0.57763671875	0.412841796875	1	upper	amplitud.ttf
548647	WORD	wordpools/wasnorm_wordpool_less_exclusions.txt	LTP196	ltpFR	15	4	1	HEDGE	699	n/a	n/a	0	0.57763671875	0.412841796875	1	upper	amplitud.ttf
552858	WORD	wordpools/wasnorm_wordpool_less_exclusions.txt	LTP196	ltpFR	15	4	1	HAWK	692	n/a	n/a	1	0.57763671875	0.412841796875	1	upper	amplitud.ttf
557018	WORD	wordpools/wasnorm_wordpool_less_exclusions.txt	LTP196	ltpFR	15	4	1	SAP	1233	n/a	n/a	0	0.57763671875	0.412841796875	1	upper	amplitud.ttf
561112	WORD	wordpools/wasnorm_wordpool_less_exclusions.txt	LTP196	ltpFR	15	4	1	CREAM	402	n/a	n/a	0	0.57763671875	0.412841796875	1	upper	amplitud.ttf
565272	WORD	wordpools/wasnorm_wordpool_less_exclusions.txt	LTP196	ltpFR	15	4	1	BUFFALO	186	n/a	n/a	1	0.57763671875	0.412841796875	1	upper	amplitud.ttf
569150	WORD	wordpools/wasnorm_wordpool_less_exclusions.txt	LTP196	ltpFR	15	4	1	BEAVER	109	n/a	n/a	1	0.57763671875	0.412841796875	1	upper	amplitud.ttf
573260	WORD	wordpools/wasnorm_wordpool_less_exclusions.txt	LTP196	ltpFR	15	4	1	SQUIRREL	1362	n/a	n/a	1	0.57763671875	0.412841796875	1	upper	amplitud.ttf
577472	WORD	wordpools/wasnorm_wordpool_less_exclusions.txt	LTP196	ltpFR	15	4	1	PLUM	1090	n/a	n/a	0	0.57763671875	0.412841796875	1	upper	amplitud.ttf
581631	WORD	wordpools/wasnorm_wordpool_less_exclusions.txt	LTP196	ltpFR	15	4	1	PUDDLE	1140	n/a	n/a	0	0.57763671875	0.412841796875	1	upper	amplitud.ttf
587623	REC_START	n/a	LTP196	ltpFR	15	4	n/a	n/a	n/a	n/a	n/a	n/a	n/a	n/a	n/a	n/a	n/a
591019	REC_WORD	wordpools/wasnorm_wordpool_less_exclusions.txt	LTP196	ltpFR	15	4	1	SQUIRREL	1362	n/a	n/a	1	n/a	n/a	n/a	n/a	n/a
593075	REC_WORD	wordpools/wasnorm_wordpool_less_exclusions.txt	LTP196	ltpFR	15	4	1	PUDDLE	1140	n/a	n/a	0	n/a	n/a	n/a	n/a	n/a
595465	REC_WORD	wordpools/wasnorm_wordpool_less_exclusions.txt	LTP196	ltpFR	15	4	1	BUFFALO	186	n/a	n/a	1	n/a	n/a	n/a	n/a	n/a
597730	REC_WORD	wordpools/wasnorm_wordpool_less_exclusions.txt	LTP196	ltpFR	15	4	1	GOAT	644	n/a	n/a	1	n/a	n/a	n/a	n/a	n/a
598871	REC_WORD	wordpools/wasnorm_wordpool_less_exclusions.txt	LTP196	ltpFR	15	4	1	SKIRT	1319	n/a	n/a	0	n/a	n/a	n/a	n/a	n/a
600099	REC_WORD	wordpools/wasnorm_wordpool_less_exclusions.txt	LTP196	ltpFR	15	4	1	CREAM	402	n/a	n/a	0	n/a	n/a	n/a	n/a	n/a
612212	REC_WORD	wordpools/wasnorm_wordpool_less_exclusions.txt	LTP196	ltpFR	15	4	1	THICKET	1455	n/a	n/a	0	n/a	n/a	n/a	n/a	n/a
614157	REC_WORD	wordpools/wasnorm_wordpool_less_exclusions.txt	LTP196	ltpFR	15	4	1	HEDGE	699	n/a	n/a	0	n/a	n/a	n/a	n/a	n/a
616811	REC_WORD	wordpools/wasnorm_wordpool_less_exclusions.txt	LTP196	ltpFR	15	4	n/a	COW	393	n/a	n/a	n/a	n/a	n/a	n/a	n/a	n/a
678537	WORD	wordpools/wasnorm_wordpool_less_exclusions.txt	LTP196	ltpFR	15	5	1	VITAMIN	1574	n/a	n/a	0	0.57763671875	0.412841796875	1	upper	amplitud.ttf
682515	WORD	wordpools/wasnorm_wordpool_less_exclusions.txt	LTP196	ltpFR	15	5	1	SHAMPOO	1274	n/a	n/a	0	0.57763671875	0.412841796875	1	upper	amplitud.ttf
686459	WORD	wordpools/wasnorm_wordpool_less_exclusions.txt	LTP196	ltpFR	15	5	1	LOAF	835	n/a	n/a	0	0.57763671875	0.412841796875	1	upper	amplitud.ttf
690420	WORD	wordpools/wasnorm_wordpool_less_exclusions.txt	LTP196	ltpFR	15	5	1	MARGARINE	868	n/a	n/a	0	0.57763671875	0.412841796875	1	upper	amplitud.ttf
694414	WORD	wordpools/wasnorm_wordpool_less_exclusions.txt	LTP196	ltpFR	15	5	0	PAINTER	1004	n/a	n/a	1	0.422607421875	0.5869140625	0	lower	zerothre.ttf
698573	WORD	wordpools/wasnorm_wordpool_less_exclusions.txt	LTP196	ltpFR	15	5	0	ARCHITECT	36	n/a	n/a	1	0.422607421875	0.5869140625	0	lower	zerothre.ttf
702684	WORD	wordpools/wasnorm_wordpool_less_exclusions.txt	LTP196	ltpFR	15	5	0	ELK	526	n/a	n/a	1	0.422607421875	0.5869140625	0	lower	zerothre.ttf
706761	WORD	wordpools/wasnorm_wordpool_less_exclusions.txt	LTP196	ltpFR	15	5	0	CAVE	263	n/a	n/a	1	0.422607421875	0.5869140625	0	lower	zerothre.ttf
710738	WORD	wordpools/wasnorm_wordpool_less_exclusions.txt	LTP196	ltpFR	15	5	0	FLESH	579	n/a	n/a	1	0.422607421875	0.5869140625	0	lower	zerothre.ttf
714849	WORD	wordpools/wasnorm_wordpool_less_exclusions.txt	LTP196	ltpFR	15	5	1	PLATE	1086	n/a	n/a	0	0.57763671875	0.412841796875	1	upper	amplitud.ttf
718993	WORD	wordpools/wasnorm_wordpool_less_exclusions.txt	LTP196	ltpFR	15	5	1	MULE	931	n/a	n/a	1	0.57763671875	0.412841796875	1	upper	amplitud.ttf
722987	WORD	wordpools/wasnorm_wordpool_less_exclusions.txt	LTP196	ltpFR	15	5	1	DOUGHNUT	490	n/a	n/a	0	0.57763671875	0.412841796875	1	upper	amplitud.ttf
727147	WORD	wordpools/wasnorm_wordpool_less_exclusions.txt	LTP196	ltpFR	15	5	1	ANTLER	29	n/a	n/a	0	0.57763671875	0.412841796875	1	upper	amplitud.ttf
731309	WORD	wordpools/wasnorm_wordpool_less_exclusions.txt	LTP196	ltpFR	15	5	0	WOMAN	1620	n/a	n/a	1	0.422607421875	0.5869140625	0	lower	zerothre.ttf
735502	WORD	wordpools/wasnorm_wordpool_less_exclusions.txt	LTP196	ltpFR	15	5	0	OZONE	996	n/a	n/a	1	0.422607421875	0.5869140625	0	lower	zerothre.ttf
739679	WORD	wordpools/wasnorm_wordpool_less_exclusions.txt	LTP196	ltpFR	15	5	0	TURKEY	1520	n/a	n/a	1	0.422607421875	0.5869140625	0	lower	zerothre.ttf
745537	REC_START	n/a	LTP196	ltpFR	15	5	n/a	n/a	n/a	n/a	n/a	n/a	n/a	n/a	n/a	n/a	n/a
748725	REC_WORD	wordpools/wasnorm_wordpool_less_exclusions.txt	LTP196	ltpFR	15	5	0	PAINTER	1004	n/a	n/a	1	n/a	n/a	n/a	n/a	n/a
749762	REC_WORD	wordpools/wasnorm_wordpool_less_exclusions.txt	LTP196	ltpFR	15	5	0	ARCHITECT	36	n/a	n/a	1	n/a	n/a	n/a	n/a	n/a
751359	REC_WORD	wordpools/wasnorm_wordpool_less_exclusions.txt	LTP196	ltpFR	15	5	0	WOMAN	1620	n/a	n/a	1	n/a	n/a	n/a	n/a	n/a
755948	REC_WORD	wordpools/wasnorm_wordpool_less_exclusions.txt	LTP196	ltpFR	15	5	0	ELK	526	n/a	n/a	1	n/a	n/a	n/a	n/a	n/a
756791	REC_WORD	wordpools/wasnorm_wordpool_less_exclusions.txt	LTP196	ltpFR	15	5	1	ANTLER	29	n/a	n/a	0	n/a	n/a	n/a	n/a	n/a
759859	REC_WORD	wordpools/wasnorm_wordpool_less_exclusions.txt	LTP196	ltpFR	15	5	0	CAVE	263	n/a	n/a	1	n/a	n/a	n/a	n/a	n/a
769467	REC_WORD	wordpools/wasnorm_wordpool_less_exclusions.txt	LTP196	ltpFR	15	5	0	FLESH	579	n/a	n/a	1	n/a	n/a	n/a	n/a	n/a
770405	REC_WORD	wordpools/wasnorm_wordpool_less_exclusions.txt	LTP196	ltpFR	15	5	1	PLATE	1086	n/a	n/a	0	n/a	n/a	n/a	n/a	n/a
825833	WORD	wordpools/wasnorm_wordpool_less_exclusions.txt	LTP196	ltpFR	15	6	0	BALL	73	n/a	n/a	0	0.422607421875	0.5869140625	0	lower	zerothre.ttf
829694	WORD	wordpools/wasnorm_wordpool_less_exclusions.txt	LTP196	ltpFR	15	6	0	PELT	1040	n/a	n/a	0	0.422607421875	0.5869140625	0	lower	zerothre.ttf
833605	WORD	wordpools/wasnorm_wordpool_less_exclusions.txt	LTP196	ltpFR	15	6	0	NIECE	952	n/a	n/a	1	0.422607421875	0.5869140625	0	lower	zerothre.ttf
837450	WORD	wordpools/wasnorm_wordpool_less_exclusions.txt	LTP196	ltpFR	15	6	0	MAILBOX	857	n/a	n/a	0	0.422607421875	0.5869140625	0	lower	zerothre.ttf
841311	WORD	wordpools/wasnorm_wordpool_less_exclusions.txt	LTP196	ltpFR	15	6	0	PUMPKIN	1142	n/a	n/a	1	0.422607421875	0.5869140625	0	lower	zerothre.ttf
845405	WORD	wordpools/wasnorm_wordpool_less_exclusions.txt	LTP196	ltpFR	15	6	0	ACORN	3	n/a	n/a	0	0.422607421875	0.5869140625	0	lower	zerothre.ttf
849366	WORD	wordpools/wasnorm_wordpool_less_exclusions.txt	LTP196	ltpFR	15	6	0	AIRCRAFT	11	n/a	n/a	1	0.422607421875	0.5869140625	0	lower	zerothre.ttf
853426	WORD	wordpools/wasnorm_wordpool_less_exclusions.txt	LTP196	ltpFR	15	6	0	TERMINAL	1450	n/a	n/a	1	0.422607421875	0.5869140625	0	lower	zerothre.ttf
857454	WORD	wordpools/wasnorm_wordpool_less_exclusions.txt	LTP196	ltpFR	15	6	0	BUGGY	188	n/a	n/a	1	0.422607421875	0.5869140625	0	lower	zerothre.ttf
861563	WORD	wordpools/wasnorm_wordpool_less_exclusions.txt	LTP196	ltpFR	15	6	0	SHORE	1291	n/a	n/a	1	0.422607421875	0.5869140625	0	lower	zerothre.ttf
865475	WORD	wordpools/wasnorm_wordpool_less_exclusions.txt	LTP196	ltpFR	15	6	0	SHELL	1281	n/a	n/a	0	0.422607421875	0.5869140625	0	lower	zerothre.ttf
869386	WORD	wordpools/wasnorm_wordpool_less_exclusions.txt	LTP196	ltpFR	15	6	0	SHRUB	1299	n/a	n/a	1	0.422607421875	0.5869140625	0	lower	zerothre.ttf
873380	WORD	wordpools/wasnorm_wordpool_less_exclusions.txt	LTP196	ltpFR	15	6	0	GREASE	660	n/a	n/a	0	0.422607421875	0.5869140625	0	lower	zerothre.ttf
877539	WORD	wordpools/wasnorm_wordpool_less_exclusions.txt	LTP196	ltpFR	15	6	0	WHALE	1601	n/a	n/a	1	0.422607421875	0.5869140625	0	lower	zerothre.ttf
881750	WORD	wordpools/wasnorm_wordpool_less_exclusions.txt	LTP196	ltpFR	15	6	0	RULER	1216	n/a	n/a	0	0.422607421875	0.5869140625	0	lower	zerothre.ttf
885910	WORD	wordpools/wasnorm_wordpool_less_exclusions.txt	LTP196	ltpFR	15	6	0	SAUCER	1237	n/a	n/a	0	0.422607421875	0.5869140625	0	lower	zerothre.ttf
891719	REC_START	n/a	LTP196	ltpFR	15	6	n/a	n/a	n/a	n/a	n/a	n/a	n/a	n/a	n/a	n/a	n/a
894777	REC_WORD	wordpools/wasnorm_wordpool_less_exclusions.txt	LTP196	ltpFR	15	6	0	NIECE	952	n/a	n/a	1	n/a	n/a	n/a	n/a	n/a
897425	REC_WORD	wordpools/wasnorm_wordpool_less_exclusions.txt	LTP196	ltpFR	15	6	0	BALL	73	n/a	n/a	0	n/a	n/a	n/a	n/a	n/a
900469	REC_WORD	wordpools/wasnorm_wordpool_less_exclusions.txt	LTP196	ltpFR	15	6	0	SHELL	1281	n/a	n/a	0	n/a	n/a	n/a	n/a	n/a
901756	REC_WORD	wordpools/wasnorm_wordpool_less_exclusions.txt	LTP196	ltpFR	15	6	n/a	BEACH	-1	n/a	n/a	n/a	n/a	n/a	n/a	n/a	n/a
905463	REC_WORD	wordpools/wasnorm_wordpool_less_exclusions.txt	LTP196	ltpFR	15	6	0	PELT	1040	n/a	n/a	0	n/a	n/a	n/a	n/a	n/a
908511	REC_WORD	wordpools/wasnorm_wordpool_less_exclusions.txt	LTP196	ltpFR	15	6	0	MAILBOX	857	n/a	n/a	0	n/a	n/a	n/a	n/a	n/a
910032	REC_WORD	wordpools/wasnorm_wordpool_less_exclusions.txt	LTP196	ltpFR	15	6	0	PUMPKIN	1142	n/a	n/a	1	n/a	n/a	n/a	n/a	n/a
938602	REC_WORD	wordpools/wasnorm_wordpool_less_exclusions.txt	LTP196	ltpFR	15	6	0	GREASE	660	n/a	n/a	0	n/a	n/a	n/a	n/a	n/a
1052313	WORD	wordpools/wasnorm_wordpool_less_exclusions.txt	LTP196	ltpFR	15	7	-1	OPERA	978	n/a	n/a	-1	1.0	1.0	1	upper	Verdana.ttf
1056307	WORD	wordpools/wasnorm_wordpool_less_exclusions.txt	LTP196	ltpFR	15	7	-1	SCREEN	1253	n/a	n/a	-1	1.0	1.0	1	upper	Verdana.ttf
1060334	WORD	wordpools/wasnorm_wordpool_less_exclusions.txt	LTP196	ltpFR	15	7	-1	FROST	609	n/a	n/a	-1	1.0	1.0	1	upper	Verdana.ttf
1064428	WORD	wordpools/wasnorm_wordpool_less_exclusions.txt	LTP196	ltpFR	15	7	-1	KLEENEX	782	n/a	n/a	-1	1.0	1.0	1	upper	Verdana.ttf
1068438	WORD	wordpools/wasnorm_wordpool_less_exclusions.txt	LTP196	ltpFR	15	7	-1	LILY	821	n/a	n/a	-1	1.0	1.0	1	upper	Verdana.ttf
1072548	WORD	wordpools/wasnorm_wordpool_less_exclusions.txt	LTP196	ltpFR	15	7	-1	BUTTER	205	n/a	n/a	-1	1.0	1.0	1	upper	Verdana.ttf
1076510	WORD	wordpools/wasnorm_wordpool_less_exclusions.txt	LTP196	ltpFR	15	7	-1	DASHBOARD	441	n/a	n/a	-1	1.0	1.0	1	upper	Verdana.ttf
1080636	WORD	wordpools/wasnorm_wordpool_less_exclusions.txt	LTP196	ltpFR	15	7	-1	STAPLER	1372	n/a	n/a	-1	1.0	1.0	1	upper	Verdana.ttf
1084514	WORD	wordpools/wasnorm_wordpool_less_exclusions.txt	LTP196	ltpFR	15	7	-1	STAPLE	1371	n/a	n/a	-1	1.0	1.0	1	upper	Verdana.ttf
1088525	WORD	wordpools/wasnorm_wordpool_less_exclusions.txt	LTP196	ltpFR	15	7	-1	BAND	78	n/a	n/a	-1	1.0	1.0	1	upper	Verdana.ttf
1092585	WORD	wordpools/wasnorm_wordpool_less_exclusions.txt	LTP196	ltpFR	15	7	-1	MESSAGE	888	n/a	n/a	-1	1.0	1.0	1	upper	Verdana.ttf
1096612	WORD	wordpools/wasnorm_wordpool_less_exclusions.txt	LTP196	ltpFR	15	7	-1	TOOTH	1481	n/a	n/a	-1	1.0	1.0	1	upper	Verdana.ttf
1100739	WORD	wordpools/wasnorm_wordpool_less_exclusions.txt	LTP196	ltpFR	15	7	-1	TURNIP	1521	n/a	n/a	-1	1.0	1.0	1	upper	Verdana.ttf
1104916	WORD	wordpools/wasnorm_wordpool_less_exclusions.txt	LTP196	ltpFR	15	7	-1	CLIPPERS	324	n/a	n/a	-1	1.0	1.0	1	upper	Verdana.ttf
1109143	WORD	wordpools/wasnorm_wordpool_less_exclusions.txt	LTP196	ltpFR	15	7	-1	GIRAFFE	636	n/a	n/a	-1	1.0	1.0	1	upper	Verdana.ttf
1113121	WORD	wordpools/wasnorm_wordpool_less_exclusions.txt	LTP196	ltpFR	15	7	-1	COMPUTER	359	n/a	n/a	-1	1.0	1.0	1	upper	Verdana.ttf
1118763	REC_START	n/a	LTP196	ltpFR	15	7	n/a	n/a	n/a	n/a	n/a	n/a	n/a	n/a	n/a	n/a	n/a
1121377	REC_WORD	wordpools/wasnorm_wordpool_less_exclusions.txt	LTP196	ltpFR	15	7	-1	OPERA	978	n/a	n/a	-1	n/a	n/a	n/a	n/a	n/a
1122689	REC_WORD	wordpools/wasnorm_wordpool_less_exclusions.txt	LTP196	ltpFR	15	7	-1	BAND	78	n/a	n/a	-1	n/a	n/a	n/a	n/a	n/a
1124644	REC_WORD	wordpools/wasnorm_wordpool_less_exclusions.txt	LTP196	ltpFR	15	7	-1	LILY	821	n/a	n/a	-1	n/a	n/a	n/a	n/a	n/a
1127258	REC_WORD	wordpools/wasnorm_wordpool_less_exclusions.txt	LTP196	ltpFR	15	7	n/a	WINDSHIELD	1612	n/a	n/a	n/a	n/a	n/a	n/a	n/a	n/a
1128780	REC_WORD	wordpools/wasnorm_wordpool_less_exclusions.txt	LTP196	ltpFR	15	7	-1	FROST	609	n/a	n/a	-1	n/a	n/a	n/a	n/a	n/a
1132367	REC_WORD	wordpools/wasnorm_wordpool_less_exclusions.txt	LTP196	ltpFR	15	7	-1	BUTTER	205	n/a	n/a	-1	n/a	n/a	n/a	n/a	n/a
1137285	REC_WORD	wordpools/wasnorm_wordpool_less_exclusions.txt	LTP196	ltpFR	15	7	-1	GIRAFFE	636	n/a	n/a	-1	n/a	n/a	n/a	n/a	n/a
1139236	REC_WORD	wordpools/wasnorm_wordpool_less_exclusions.txt	LTP196	ltpFR	15	7	-1	COMPUTER	359	n/a	n/a	-1	n/a	n/a	n/a	n/a	n/a
1139772	REC_WORD	wordpools/wasnorm_wordpool_less_exclusions.txt	LTP196	ltpFR	15	7	-1	SCREEN	1253	n/a	n/a	-1	n/a	n/a	n/a	n/a	n/a
1142963	REC_WORD	wordpools/wasnorm_wordpool_less_exclusions.txt	LTP196	ltpFR	15	7	-1	CLIPPERS	324	n/a	n/a	-1	n/a	n/a	n/a	n/a	n/a
1144255	REC_WORD	wordpools/wasnorm_wordpool_less_exclusions.txt	LTP196	ltpFR	15	7	n/a	NAIL	936	n/a	n/a	n/a	n/a	n/a	n/a	n/a	n/a
1156567	REC_WORD	wordpools/wasnorm_wordpool_less_exclusions.txt	LTP196	ltpFR	15	7	-1	TURNIP	1521	n/a	n/a	-1	n/a	n/a	n/a	n/a	n/a
1175080	REC_WORD	wordpools/wasnorm_wordpool_less_exclusions.txt	LTP196	ltpFR	15	7	-1	BAND	78	n/a	n/a	-1	n/a	n/a	n/a	n/a	n/a
1176985	REC_WORD	wordpools/wasnorm_wordpool_less_exclusions.txt	LTP196	ltpFR	15	7	-1	TOOTH	1481	n/a	n/a	-1	n/a	n/a	n/a	n/a	n/a
1181096	REC_WORD	wordpools/wasnorm_wordpool_less_exclusions.txt	LTP196	ltpFR	15	7	-1	MESSAGE	888	n/a	n/a	-1	n/a	n/a	n/a	n/a	n/a
1202820	WORD	wordpools/wasnorm_wordpool_less_exclusions.txt	LTP196	ltpFR	15	8	-1	CHOCOLATE	306	n/a	n/a	-1	1.0	1.0	1	upper	Verdana.ttf
1206947	WORD	wordpools/wasnorm_wordpool_less_exclusions.txt	LTP196	ltpFR	15	8	-1	CHEESE	289	n/a	n/a	-1	1.0	1.0	1	upper	Verdana.ttf
1211124	WORD	wordpools/wasnorm_wordpool_less_exclusions.txt	LTP196	ltpFR	15	8	-1	APPLICATION	34	n/a	n/a	-1	1.0	1.0	1	upper	Verdana.ttf
1215085	WORD	wordpools/wasnorm_wordpool_less_exclusions.txt	LTP196	ltpFR	15	8	-1	LIMB	822	n/a	n/a	-1	1.0	1.0	1	upper	Verdana.ttf
1218929	WORD	wordpools/wasnorm_wordpool_less_exclusions.txt	LTP196	ltpFR	15	8	-1	PALM	1007	n/a	n/a	-1	1.0	1.0	1	upper	Verdana.ttf
1222957	WORD	wordpools/wasnorm_wordpool_less_exclusions.txt	LTP196	ltpFR	15	8	-1	TULIP	1517	n/a	n/a	-1	1.0	1.0	1	upper	Verdana.ttf
1226951	WORD	wordpools/wasnorm_wordpool_less_exclusions.txt	LTP196	ltpFR	15	8	-1	BATH	98	n/a	n/a	-1	1.0	1.0	1	upper	Verdana.ttf
1230995	WORD	wordpools/wasnorm_wordpool_less_exclusions.txt	LTP196	ltpFR	15	8	-1	WARDROBE	1587	n/a	n/a	-1	1.0	1.0	1	upper	Verdana.ttf
1235138	WORD	wordpools/wasnorm_wordpool_less_exclusions.txt	LTP196	ltpFR	15	8	-1	LUGGAGE	847	n/a	n/a	-1	1.0	1.0	1	upper	Verdana.ttf
1238983	WORD	wordpools/wasnorm_wordpool_less_exclusions.txt	LTP196	ltpFR	15	8	-1	TORNADO	1485	n/a	n/a	-1	1.0	1.0	1	upper	Verdana.ttf
1242960	WORD	wordpools/wasnorm_wordpool_less_exclusions.txt	LTP196	ltpFR	15	8	-1	BASKET	95	n/a	n/a	-1	1.0	1.0	1	upper	Verdana.ttf
1246921	WORD	wordpools/wasnorm_wordpool_less_exclusions.txt	LTP196	ltpFR	15	8	-1	FAUCET	555	n/a	n/a	-1	1.0	1.0	1	upper	Verdana.ttf
1251065	WORD	wordpools/wasnorm_wordpool_less_exclusions.txt	LTP196	ltpFR	15	8	-1	PUDDING	1139	n/a	n/a	-1	1.0	1.0	1	upper	Verdana.ttf
1255159	WORD	wordpools/wasnorm_wordpool_less_exclusions.txt	LTP196	ltpFR	15	8	-1	FRECKLE	602	n/a	n/a	-1	1.0	1.0	1	upper	Verdana.ttf
1259219	WORD	wordpools/wasnorm_wordpool_less_exclusions.txt	LTP196	ltpFR	15	8	-1	FRANCE	601	n/a	n/a	-1	1.0	1.0	1	upper	Verdana.ttf
1263230	WORD	wordpools/wasnorm_wordpool_less_exclusions.txt	LTP196	ltpFR	15	8	-1	EUROPE	541	n/a	n/a	-1	1.0	1.0	1	upper	Verdana.ttf
1268972	REC_START	n/a	LTP196	ltpFR	15	8	n/a	n/a	n/a	n/a	n/a	n/a	n/a	n/a	n/a	n/a	n/a
1272030	REC_WORD	wordpools/wasnorm_wordpool_less_exclusions.txt	LTP196	ltpFR	15	8	-1	EUROPE	541	n/a	n/a	-1	n/a	n/a	n/a	n/a	n/a
1274005	REC_WORD	wordpools/wasnorm_wordpool_less_exclusions.txt	LTP196	ltpFR	15	8	-1	TULIP	1517	n/a	n/a	-1	n/a	n/a	n/a	n/a	n/a
1275332	REC_WORD	wordpools/wasnorm_wordpool_less_exclusions.txt	LTP196	ltpFR	15	8	-1	BATH	98	n/a	n/a	-1	n/a	n/a	n/a	n/a	n/a
1277398	REC_WORD	wordpools/wasnorm_wordpool_less_exclusions.txt	LTP196	ltpFR	15	8	-1	CHEESE	289	n/a	n/a	-1	n/a	n/a	n/a	n/a	n/a
1280012	REC_WORD	wordpools/wasnorm_wordpool_less_exclusions.txt	LTP196	ltpFR	15	8	-1	CHOCOLATE	306	n/a	n/a	-1	n/a	n/a	n/a	n/a	n/a
1280830	REC_WORD	wordpools/wasnorm_wordpool_less_exclusions.txt	LTP196	ltpFR	15	8	-1	PUDDING	1139	n/a	n/a	-1	n/a	n/a	n/a	n/a	n/a
1283349	REC_WORD	wordpools/wasnorm_wordpool_less_exclusions.txt	LTP196	ltpFR	15	8	-1	FAUCET	555	n/a	n/a	-1	n/a	n/a	n/a	n/a	n/a
1288323	REC_WORD	wordpools/wasnorm_wordpool_less_exclusions.txt	LTP196	ltpFR	15	8	-1	WARDROBE	1587	n/a	n/a	-1	n/a	n/a	n/a	n/a	n/a
1290453	REC_WORD	wordpools/wasnorm_wordpool_less_exclusions.txt	LTP196	ltpFR	15	8	-1	BASKET	95	n/a	n/a	-1	n/a	n/a	n/a	n/a	n/a
1292264	REC_WORD	wordpools/wasnorm_wordpool_less_exclusions.txt	LTP196	ltpFR	15	8	-1	LUGGAGE	847	n/a	n/a	-1	n/a	n/a	n/a	n/a	n/a
1293097	REC_WORD	wordpools/wasnorm_wordpool_less_exclusions.txt	LTP196	ltpFR	15	8	-1	TORNADO	1485	n/a	n/a	-1	n/a	n/a	n/a	n/a	n/a
1305718	REC_WORD	wordpools/wasnorm_wordpool_less_exclusions.txt	LTP196	ltpFR	15	8	-1	FRANCE	601	n/a	n/a	-1	n/a	n/a	n/a	n/a	n/a
1308507	REC_WORD	wordpools/wasnorm_wordpool_less_exclusions.txt	LTP196	ltpFR	15	8	-1	FRECKLE	602	n/a	n/a	-1	n/a	n/a	n/a	n/a	n/a
1347372	WORD	wordpools/wasnorm_wordpool_less_exclusions.txt	LTP196	ltpFR	15	9	0	AWARD	63	n/a	n/a	0	0.422607421875	0.5869140625	0	lower	zerothre.ttf
1351198	WORD	wordpools/wasnorm_wordpool_less_exclusions.txt	LTP196	ltpFR	15	9	0	VOLCANO	1575	n/a	n/a	1	0.422607421875	0.5869140625	0	lower	zerothre.ttf
1355360	WORD	wordpools/wasnorm_wordpool_less_exclusions.txt	LTP196	ltpFR	15	9	1	ABDOMEN	1	n/a	n/a	0	0.57763671875	0.412841796875	1	upper	amplitud.ttf
1359203	WORD	wordpools/wasnorm_wordpool_less_exclusions.txt	LTP196	ltpFR	15	9	1	ATTORNEY	58	n/a	n/a	1	0.57763671875	0.412841796875	1	upper	amplitud.ttf
1363047	WORD	wordpools/wasnorm_wordpool_less_exclusions.txt	LTP196	ltpFR	15	9	1	PIGEON	1065	n/a	n/a	1	0.57763671875	0.412841796875	1	upper	amplitud.ttf
1366925	WORD	wordpools/wasnorm_wordpool_less_exclusions.txt	LTP196	ltpFR	15	9	1	ENGINEER	536	n/a	n/a	1	0.57763671875	0.412841796875	1	upper	amplitud.ttf
1370869	WORD	wordpools/wasnorm_wordpool_less_exclusions.txt	LTP196	ltpFR	15	9	1	SLIDE	1326	n/a	n/a	0	0.57763671875	0.412841796875	1	upper	amplitud.ttf
1374813	WORD	wordpools/wasnorm_wordpool_less_exclusions.txt	LTP196	ltpFR	15	9	1	SNORKEL	1336	n/a	n/a	0	0.57763671875	0.412841796875	1	upper	amplitud.ttf
1378857	WORD	wordpools/wasnorm_wordpool_less_exclusions.txt	LTP196	ltpFR	15	9	0	MUFFIN	929	n/a	n/a	0	0.422607421875	0.5869140625	0	lower	zerothre.ttf
1383067	WORD	wordpools/wasnorm_wordpool_less_exclusions.txt	LTP196	ltpFR	15	9	0	SANDWICH	1232	n/a	n/a	0	0.422607421875	0.5869140625	0	lower	zerothre.ttf
1387028	WORD	wordpools/wasnorm_wordpool_less_exclusions.txt	LTP196	ltpFR	15	9	0	SUBWAY	1400	n/a	n/a	1	0.422607421875	0.5869140625	0	lower	zerothre.ttf
1391205	WORD	wordpools/wasnorm_wordpool_less_exclusions.txt	LTP196	ltpFR	15	9	1	CASHIER	254	n/a	n/a	0	0.57763671875	0.412841796875	1	upper	amplitud.ttf
1395183	WORD	wordpools/wasnorm_wordpool_less_exclusions.txt	LTP196	ltpFR	15	9	1	MAID	856	n/a	n/a	0	0.57763671875	0.412841796875	1	upper	amplitud.ttf
1399243	WORD	wordpools/wasnorm_wordpool_less_exclusions.txt	LTP196	ltpFR	15	9	0	PELICAN	1039	n/a	n/a	3	0.422607421875	0.5869140625	0	lower	zerothre.ttf
1400343	KEY_MSG	n/a	LTP196	ltpFR	15	9	n/a	n/a	n/a	n/a	n/a	n/a	n/a	n/a	n/a	n/a	n/a
1403438	WORD	wordpools/wasnorm_wordpool_less_exclusions.txt	LTP196	ltpFR	15	9	0	LUNCH	849	n/a	n/a	0	0.422607421875	0.5869140625	0	lower	zerothre.ttf
1407548	WORD	wordpools/wasnorm_wordpool_less_exclusions.txt	LTP196	ltpFR	15	9	0	CAFETERIA	217	n/a	n/a	1	0.422607421875	0.5869140625	0	lower	zerothre.ttf
1413623	REC_START	n/a	LTP196	ltpFR	15	9	n/a	n/a	n/a	n/a	n/a	n/a	n/a	n/a	n/a	n/a	n/a
1416391	REC_WORD	wordpools/wasnorm_wordpool_less_exclusions.txt	LTP196	ltpFR	15	9	1	ATTORNEY	58	n/a	n/a	1	n/a	n/a	n/a	n/a	n/a
1418457	REC_WORD	wordpools/wasnorm_wordpool_less_exclusions.txt	LTP196	ltpFR	15	9	1	CASHIER	254	n/a	n/a	0	n/a	n/a	n/a	n/a	n/a
1421211	REC_WORD	wordpools/wasnorm_wordpool_less_exclusions.txt	LTP196	ltpFR	15	9	1	ENGINEER	536	n/a	n/a	1	n/a	n/a	n/a	n/a	n/a
1427646	REC_WORD	wordpools/wasnorm_wordpool_less_exclusions.txt	LTP196	ltpFR	15	9	1	SNORKEL	1336	n/a	n/a	0	n/a	n/a	n/a	n/a	n/a
1430759	REC_WORD	wordpools/wasnorm_wordpool_less_exclusions.txt	LTP196	ltpFR	15	9	0	PELICAN	1039	n/a	n/a	3	n/a	n/a	n/a	n/a	n/a
1448768	REC_WORD	wordpools/wasnorm_wordpool_less_exclusions.txt	LTP196	ltpFR	15	9	0	CAFETERIA	217	n/a	n/a	1	n/a	n/a	n/a	n/a	n/a
1458830	REC_WORD	wordpools/wasnorm_wordpool_less_exclusions.txt	LTP196	ltpFR	15	9	n/a	SNAIL	1332	n/a	n/a	n/a	n/a	n/a	n/a	n/a	n/a
1467520	REC_WORD	wordpools/wasnorm_wordpool_less_exclusions.txt	LTP196	ltpFR	15	9	1	PIGEON	1065	n/a	n/a	1	n/a	n/a	n/a	n/a	n/a
1492204	WORD	wordpools/wasnorm_wordpool_less_exclusions.txt	LTP196	ltpFR	15	10	1	SECRETARY	1265	n/a	n/a	1	0.57763671875	0.412841796875	1	upper	amplitud.ttf
1496248	WORD	wordpools/wasnorm_wordpool_less_exclusions.txt	LTP196	ltpFR	15	10	1	FAN	551	n/a	n/a	1	0.57763671875	0.412841796875	1	upper	amplitud.ttf
1500159	WORD	wordpools/wasnorm_wordpool_less_exclusions.txt	LTP196	ltpFR	15	10	1	PEN	1041	n/a	n/a	0	0.57763671875	0.412841796875	1	upper	amplitud.ttf
1504087	WORD	wordpools/wasnorm_wordpool_less_exclusions.txt	LTP196	ltpFR	15	10	1	MARKER	870	n/a	n/a	0	0.57763671875	0.412841796875	1	upper	amplitud.ttf
1508097	WORD	wordpools/wasnorm_wordpool_less_exclusions.txt	LTP196	ltpFR	15	10	1	BEETLE	116	n/a	n/a	1	0.57763671875	0.412841796875	1	upper	amplitud.ttf
1512208	WORD	wordpools/wasnorm_wordpool_less_exclusions.txt	LTP196	ltpFR	15	10	1	SPIDER	1351	n/a	n/a	0	0.57763671875	0.412841796875	1	upper	amplitud.ttf
1516353	WORD	wordpools/wasnorm_wordpool_less_exclusions.txt	LTP196	ltpFR	15	10	1	COCOON	339	n/a	n/a	0	0.57763671875	0.412841796875	1	upper	amplitud.ttf
1520497	WORD	wordpools/wasnorm_wordpool_less_exclusions.txt	LTP196	ltpFR	15	10	1	PEBBLE	1035	n/a	n/a	0	0.57763671875	0.412841796875	1	upper	amplitud.ttf
1524441	WORD	wordpools/wasnorm_wordpool_less_exclusions.txt	LTP196	ltpFR	15	10	1	EMERALD	528	n/a	n/a	0	0.57763671875	0.412841796875	1	upper	amplitud.ttf
1528301	WORD	wordpools/wasnorm_wordpool_less_exclusions.txt	LTP196	ltpFR	15	10	1	VETERAN	1561	n/a	n/a	1	0.57763671875	0.412841796875	1	upper	amplitud.ttf
1532211	WORD	wordpools/wasnorm_wordpool_less_exclusions.txt	LTP196	ltpFR	15	10	1	UTENSIL	1542	n/a	n/a	0	0.57763671875	0.412841796875	1	upper	amplitud.ttf
1536155	WORD	wordpools/wasnorm_wordpool_less_exclusions.txt	LTP196	ltpFR	15	10	1	UNDERWEAR	1537	n/a	n/a	0	0.57763671875	0.412841796875	1	upper	amplitud.ttf
1540334	WORD	wordpools/wasnorm_wordpool_less_exclusions.txt	LTP196	ltpFR	15	10	1	TYPIST	1532	n/a	n/a	1	0.57763671875	0.412841796875	1	upper	amplitud.ttf
1544344	WORD	wordpools/wasnorm_wordpool_less_exclusions.txt	LTP196	ltpFR	15	10	1	DUSTPAN	509	n/a	n/a	0	0.57763671875	0.412841796875	1	upper	amplitud.ttf
1548237	WORD	wordpools/wasnorm_wordpool_less_exclusions.txt	LTP196	ltpFR	15	10	1	HEATER	698	n/a	n/a	0	0.57763671875	0.412841796875	1	upper	amplitud.ttf
1552432	WORD	wordpools/wasnorm_wordpool_less_exclusions.txt	LTP196	ltpFR	15	10	1	DRAWER	493	n/a	n/a	0	0.57763671875	0.412841796875	1	upper	amplitud.ttf
1558207	REC_START	n/a	LTP196	ltpFR	15	10	n/a	n/a	n/a	n/a	n/a	n/a	n/a	n/a	n/a	n/a	n/a
1561524	REC_WORD	wordpools/wasnorm_wordpool_less_exclusions.txt	LTP196	ltpFR	15	10	1	SECRETARY	1265	n/a	n/a	1	n/a	n/a	n/a	n/a	n/a
1563629	REC_WORD	wordpools/wasnorm_wordpool_less_exclusions.txt	LTP196	ltpFR	15	10	1	TYPIST	1532	n/a	n/a	1	n/a	n/a	n/a	n/a	n/a
1566009	REC_WORD	wordpools/wasnorm_wordpool_less_exclusions.txt	LTP196	ltpFR	15	10	1	BEETLE	116	n/a	n/a	1	n/a	n/a	n/a	n/a	n/a
1568104	REC_WORD	wordpools/wasnorm_wordpool_less_exclusions.txt	LTP196	ltpFR	15	10	1	PEN	1041	n/a	n/a	0	n/a	n/a	n/a	n/a	n/a
1568987	REC_WORD	wordpools/wasnorm_wordpool_less_exclusions.txt	LTP196	ltpFR	15	10	1	MARKER	870	n/a	n/a	0	n/a	n/a	n/a	n/a	n/a
1571436	REC_WORD	wordpools/wasnorm_wordpool_less_exclusions.txt	LTP196	ltpFR	15	10	n/a	SIGNATURE	1306	n/a	n/a	n/a	n/a	n/a	n/a	n/a	n/a
1636473	WORD	wordpools/wasnorm_wordpool_less_exclusions.txt	LTP196	ltpFR	15	11	-1	FRAGRANCE	599	n/a	n/a	-1	1.0	1.0	1	upper	Verdana.ttf
1640334	WORD	wordpools/wasnorm_wordpool_less_exclusions.txt	LTP196	ltpFR	15	11	-1	DIVER	476	n/a	n/a	-1	1.0	1.0	1	upper	Verdana.ttf
1644461	WORD	wordpools/wasnorm_wordpool_less_exclusions.txt	LTP196	ltpFR	15	11	-1	PADDLE	1000	n/a	n/a	-1	1.0	1.0	1	upper	Verdana.ttf
1648505	WORD	wordpools/wasnorm_wordpool_less_exclusions.txt	LTP196	ltpFR	15	11	-1	PORT	1110	n/a	n/a	-1	1.0	1.0	1	upper	Verdana.ttf
1652383	WORD	wordpools/wasnorm_wordpool_less_exclusions.txt	LTP196	ltpFR	15	11	-1	DICTATOR	462	n/a	n/a	-1	1.0	1.0	1	upper	Verdana.ttf
1656360	WORD	wordpools/wasnorm_wordpool_less_exclusions.txt	LTP196	ltpFR	15	11	-1	PARCEL	1012	n/a	n/a	-1	1.0	1.0	1	upper	Verdana.ttf
1660536	WORD	wordpools/wasnorm_wordpool_less_exclusions.txt	LTP196	ltpFR	15	11	-1	WRIST	1626	n/a	n/a	-1	1.0	1.0	1	upper	Verdana.ttf
1664498	WORD	wordpools/wasnorm_wordpool_less_exclusions.txt	LTP196	ltpFR	15	11	-1	SPY	1360	n/a	n/a	-1	1.0	1.0	1	upper	Verdana.ttf
1668558	WORD	wordpools/wasnorm_wordpool_less_exclusions.txt	LTP196	ltpFR	15	11	-1	NOSE	957	n/a	n/a	-1	1.0	1.0	1	upper	Verdana.ttf
1672735	WORD	wordpools/wasnorm_wordpool_less_exclusions.txt	LTP196	ltpFR	15	11	-1	CACTUS	215	n/a	n/a	-1	1.0	1.0	1	upper	Verdana.ttf
1676579	WORD	wordpools/wasnorm_wordpool_less_exclusions.txt	LTP196	ltpFR	15	11	-1	DOORBELL	487	n/a	n/a	-1	1.0	1.0	1	upper	Verdana.ttf
1680441	WORD	wordpools/wasnorm_wordpool_less_exclusions.txt	LTP196	ltpFR	15	11	-1	WALRUS	1585	n/a	n/a	-1	1.0	1.0	1	upper	Verdana.ttf
1684501	WORD	wordpools/wasnorm_wordpool_less_exclusions.txt	LTP196	ltpFR	15	11	-1	ALLIGATOR	16	n/a	n/a	-1	1.0	1.0	1	upper	Verdana.ttf
1688462	WORD	wordpools/wasnorm_wordpool_less_exclusions.txt	LTP196	ltpFR	15	11	-1	LADDER	793	n/a	n/a	-1	1.0	1.0	1	upper	Verdana.ttf
1692638	WORD	wordpools/wasnorm_wordpool_less_exclusions.txt	LTP196	ltpFR	15	11	-1	SPONGE	1355	n/a	n/a	-1	1.0	1.0	1	upper	Verdana.ttf
1696699	WORD	wordpools/wasnorm_wordpool_less_exclusions.txt	LTP196	ltpFR	15	11	-1	BARLEY	88	n/a	n/a	-1	1.0	1.0	1	upper	Verdana.ttf
1702691	REC_START	n/a	LTP196	ltpFR	15	11	n/a	n/a	n/a	n/a	n/a	n/a	n/a	n/a	n/a	n/a	n/a
1708957	REC_WORD	wordpools/wasnorm_wordpool_less_exclusions.txt	LTP196	ltpFR	15	11	-1	DIVER	476	n/a	n/a	-1	n/a	n/a	n/a	n/a	n/a
1710283	REC_WORD	wordpools/wasnorm_wordpool_less_exclusions.txt	LTP196	ltpFR	15	11	-1	NOSE	957	n/a	n/a	-1	n/a	n/a	n/a	n/a	n/a
1711905	REC_WORD	wordpools/wasnorm_wordpool_less_exclusions.txt	LTP196	ltpFR	15	11	-1	FRAGRANCE	599	n/a	n/a	-1	n/a	n/a	n/a	n/a	n/a
1714150	REC_WORD	wordpools/wasnorm_wordpool_less_exclusions.txt	LTP196	ltpFR	15	11	-1	PADDLE	1000	n/a	n/a	-1	n/a	n/a	n/a	n/a	n/a
1715576	REC_WORD	wordpools/wasnorm_wordpool_less_exclusions.txt	LTP196	ltpFR	15	11	-1	PORT	1110	n/a	n/a	-1	n/a	n/a	n/a	n/a	n/a
1719133	REC_WORD	wordpools/wasnorm_wordpool_less_exclusions.txt	LTP196	ltpFR	15	11	-1	ALLIGATOR	16	n/a	n/a	-1	n/a	n/a	n/a	n/a	n/a
1720874	REC_WORD	wordpools/wasnorm_wordpool_less_exclusions.txt	LTP196	ltpFR	15	11	-1	WALRUS	1585	n/a	n/a	-1	n/a	n/a	n/a	n/a	n/a
1723114	REC_WORD	wordpools/wasnorm_wordpool_less_exclusions.txt	LTP196	ltpFR	15	11	-1	BARLEY	88	n/a	n/a	-1	n/a	n/a	n/a	n/a	n/a
1725813	REC_WORD	wordpools/wasnorm_wordpool_less_exclusions.txt	LTP196	ltpFR	15	11	-1	LADDER	793	n/a	n/a	-1	n/a	n/a	n/a	n/a	n/a
1783952	WORD	wordpools/wasnorm_wordpool_less_exclusions.txt	LTP196	ltpFR	15	12	0	CARPENTER	246	n/a	n/a	1	0.422607421875	0.5869140625	0	lower	zerothre.ttf
1788062	WORD	wordpools/wasnorm_wordpool_less_exclusions.txt	LTP196	ltpFR	15	12	0	ELM	527	n/a	n/a	0	0.422607421875	0.5869140625	0	lower	zerothre.ttf
1792057	WORD	wordpools/wasnorm_wordpool_less_exclusions.txt	LTP196	ltpFR	15	12	0	KEEPER	769	n/a	n/a	1	0.422607421875	0.5869140625	0	lower	zerothre.ttf
1796167	WORD	wordpools/wasnorm_wordpool_less_exclusions.txt	LTP196	ltpFR	15	12	0	DAD	433	n/a	n/a	1	0.422607421875	0.5869140625	0	lower	zerothre.ttf
1800312	WORD	wordpools/wasnorm_wordpool_less_exclusions.txt	LTP196	ltpFR	15	12	0	DIME	466	n/a	n/a	0	0.422607421875	0.5869140625	0	lower	zerothre.ttf
1804205	WORD	wordpools/wasnorm_wordpool_less_exclusions.txt	LTP196	ltpFR	15	12	1	ASIA	46	n/a	n/a	1	0.57763671875	0.412841796875	1	upper	amplitud.ttf
1808249	WORD	wordpools/wasnorm_wordpool_less_exclusions.txt	LTP196	ltpFR	15	12	1	COUNTRY	388	n/a	n/a	0	0.57763671875	0.412841796875	1	upper	amplitud.ttf
1812327	WORD	wordpools/wasnorm_wordpool_less_exclusions.txt	LTP196	ltpFR	15	12	1	ARTERY	41	n/a	n/a	0	0.57763671875	0.412841796875	1	upper	amplitud.ttf
1816388	WORD	wordpools/wasnorm_wordpool_less_exclusions.txt	LTP196	ltpFR	15	12	1	ICE	730	n/a	n/a	0	0.57763671875	0.412841796875	1	upper	amplitud.ttf
1820597	WORD	wordpools/wasnorm_wordpool_less_exclusions.txt	LTP196	ltpFR	15	12	1	BANKER	84	n/a	n/a	1	0.57763671875	0.412841796875	1	upper	amplitud.ttf
1824774	WORD	wordpools/wasnorm_wordpool_less_exclusions.txt	LTP196	ltpFR	15	12	0	LETTUCE	814	n/a	n/a	0	0.422607421875	0.5869140625	0	lower	zerothre.ttf
1828685	WORD	wordpools/wasnorm_wordpool_less_exclusions.txt	LTP196	ltpFR	15	12	0	NOTEBOOK	959	n/a	n/a	1	0.422607421875	0.5869140625	0	lower	zerothre.ttf
1832563	WORD	wordpools/wasnorm_wordpool_less_exclusions.txt	LTP196	ltpFR	15	12	0	POOL	1103	n/a	n/a	0	0.422607421875	0.5869140625	0	lower	zerothre.ttf
1836657	WORD	wordpools/wasnorm_wordpool_less_exclusions.txt	LTP196	ltpFR	15	12	1	GROCERIES	663	n/a	n/a	0	0.57763671875	0.412841796875	1	upper	amplitud.ttf
1840651	WORD	wordpools/wasnorm_wordpool_less_exclusions.txt	LTP196	ltpFR	15	12	1	MAGAZINE	853	n/a	n/a	0	0.57763671875	0.412841796875	1	upper	amplitud.ttf
1844561	WORD	wordpools/wasnorm_wordpool_less_exclusions.txt	LTP196	ltpFR	15	12	1	SHOVEL	1295	n/a	n/a	0	0.57763671875	0.412841796875	1	upper	amplitud.ttf
1850237	REC_START	n/a	LTP196	ltpFR	15	12	n/a	n/a	n/a	n/a	n/a	n/a	n/a	n/a	n/a	n/a	n/a
1852776	REC_WORD	wordpools/wasnorm_wordpool_less_exclusions.txt	LTP196	ltpFR	15	12	0	DAD	433	n/a	n/a	1	n/a	n/a	n/a	n/a	n/a
1853704	REC_WORD	wordpools/wasnorm_wordpool_less_exclusions.txt	LTP196	ltpFR	15	12	0	CARPENTER	246	n/a	n/a	1	n/a	n/a	n/a	n/a	n/a
1854866	REC_WORD	wordpools/wasnorm_wordpool_less_exclusions.txt	LTP196	ltpFR	15	12	0	ELM	527	n/a	n/a	0	n/a	n/a	n/a	n/a	n/a
1857560	REC_WORD	wordpools/wasnorm_wordpool_less_exclusions.txt	LTP196	ltpFR	15	12	0	KEEPER	769	n/a	n/a	1	n/a	n/a	n/a	n/a	n/a
1861770	REC_WORD	wordpools/wasnorm_wordpool_less_exclusions.txt	LTP196	ltpFR	15	12	n/a	NICKEL	950	n/a	n/a	n/a	n/a	n/a	n/a	n/a	n/a
1864849	REC_WORD	wordpools/wasnorm_wordpool_less_exclusions.txt	LTP196	ltpFR	15	12	0	DIME	466	n/a	n/a	0	n/a	n/a	n/a	n/a	n/a
1867562	REC_WORD	wordpools/wasnorm_wordpool_less_exclusions.txt	LTP196	ltpFR	15	12	1	ASIA	46	n/a	n/a	1	n/a	n/a	n/a	n/a	n/a
1869643	REC_WORD	wordpools/wasnorm_wordpool_less_exclusions.txt	LTP196	ltpFR	15	12	0	NOTEBOOK	959	n/a	n/a	1	n/a	n/a	n/a	n/a	n/a
1872361	REC_WORD	wordpools/wasnorm_wordpool_less_exclusions.txt	LTP196	ltpFR	15	12	1	BANKER	84	n/a	n/a	1	n/a	n/a	n/a	n/a	n/a
1876432	REC_WORD	wordpools/wasnorm_wordpool_less_exclusions.txt	LTP196	ltpFR	15	12	0	LETTUCE	814	n/a	n/a	0	n/a	n/a	n/a	n/a	n/a
1895090	REC_WORD	wordpools/wasnorm_wordpool_less_exclusions.txt	LTP196	ltpFR	15	12	0	POOL	1103	n/a	n/a	0	n/a	n/a	n/a	n/a	n/a
1925857	REST_REWET	n/a	LTP196	ltpFR	15	12	n/a	n/a	n/a	n/a	n/a	n/a	n/a	n/a	n/a	n/a	n/a
2301530	WORD	wordpools/wasnorm_wordpool_less_exclusions.txt	LTP196	ltpFR	15	13	0	PAPER	1011	n/a	n/a	0	0.422607421875	0.5869140625	0	lower	zerothre.ttf
2305756	WORD	wordpools/wasnorm_wordpool_less_exclusions.txt	LTP196	ltpFR	15	13	0	HOOD	714	n/a	n/a	0	0.422607421875	0.5869140625	0	lower	zerothre.ttf
2309650	WORD	wordpools/wasnorm_wordpool_less_exclusions.txt	LTP196	ltpFR	15	13	0	WINDSHIELD	1612	n/a	n/a	1	0.422607421875	0.5869140625	0	lower	zerothre.ttf
2313594	WORD	wordpools/wasnorm_wordpool_less_exclusions.txt	LTP196	ltpFR	15	13	0	SLEEVE	1324	n/a	n/a	0	0.422607421875	0.5869140625	0	lower	zerothre.ttf
2317755	WORD	wordpools/wasnorm_wordpool_less_exclusions.txt	LTP196	ltpFR	15	13	0	BRACELET	163	n/a	n/a	0	0.422607421875	0.5869140625	0	lower	zerothre.ttf
2321965	WORD	wordpools/wasnorm_wordpool_less_exclusions.txt	LTP196	ltpFR	15	13	0	BED	110	n/a	n/a	1	0.422607421875	0.5869140625	0	lower	zerothre.ttf
2326092	WORD	wordpools/wasnorm_wordpool_less_exclusions.txt	LTP196	ltpFR	15	13	0	NAIL	936	n/a	n/a	0	0.422607421875	0.5869140625	0	lower	zerothre.ttf
2329936	WORD	wordpools/wasnorm_wordpool_less_exclusions.txt	LTP196	ltpFR	15	13	0	LASER	801	n/a	n/a	1	0.422607421875	0.5869140625	0	lower	zerothre.ttf
2333831	WORD	wordpools/wasnorm_wordpool_less_exclusions.txt	LTP196	ltpFR	15	13	0	SALAD	1224	n/a	n/a	0	0.422607421875	0.5869140625	0	lower	zerothre.ttf
2337808	WORD	wordpools/wasnorm_wordpool_less_exclusions.txt	LTP196	ltpFR	15	13	0	PASTA	1021	n/a	n/a	0	0.422607421875	0.5869140625	0	lower	zerothre.ttf
2342018	WORD	wordpools/wasnorm_wordpool_less_exclusions.txt	LTP196	ltpFR	15	13	0	ELECTRICIAN	521	n/a	n/a	1	0.422607421875	0.5869140625	0	lower	zerothre.ttf
2345879	WORD	wordpools/wasnorm_wordpool_less_exclusions.txt	LTP196	ltpFR	15	13	0	HOSTESS	723	n/a	n/a	1	0.422607421875	0.5869140625	0	lower	zerothre.ttf
2349840	WORD	wordpools/wasnorm_wordpool_less_exclusions.txt	LTP196	ltpFR	15	13	0	WAITRESS	1581	n/a	n/a	1	0.422607421875	0.5869140625	0	lower	zerothre.ttf
2353967	WORD	wordpools/wasnorm_wordpool_less_exclusions.txt	LTP196	ltpFR	15	13	0	BLUEPRINT	142	n/a	n/a	0	0.422607421875	0.5869140625	0	lower	zerothre.ttf
2357878	WORD	wordpools/wasnorm_wordpool_less_exclusions.txt	LTP196	ltpFR	15	13	0	GUARDIAN	668	n/a	n/a	1	0.422607421875	0.5869140625	0	lower	zerothre.ttf
2361739	WORD	wordpools/wasnorm_wordpool_less_exclusions.txt	LTP196	ltpFR	15	13	0	NIGHTGOWN	953	n/a	n/a	1	0.422607421875	0.5869140625	0	lower	zerothre.ttf
2367614	REC_START	n/a	LTP196	ltpFR	15	13	n/a	n/a	n/a	n/a	n/a	n/a	n/a	n/a	n/a	n/a	n/a
2370333	REC_WORD	wordpools/wasnorm_wordpool_less_exclusions.txt	LTP196	ltpFR	15	13	0	PAPER	1011	n/a	n/a	0	n/a	n/a	n/a	n/a	n/a
2372123	REC_WORD	wordpools/wasnorm_wordpool_less_exclusions.txt	LTP196	ltpFR	15	13	0	BLUEPRINT	142	n/a	n/a	0	n/a	n/a	n/a	n/a	n/a
2374044	REC_WORD	wordpools/wasnorm_wordpool_less_exclusions.txt	LTP196	ltpFR	15	13	0	WINDSHIELD	1612	n/a	n/a	1	n/a	n/a	n/a	n/a	n/a
2379482	REC_WORD	wordpools/wasnorm_wordpool_less_exclusions.txt	LTP196	ltpFR	15	13	0	ELECTRICIAN	521	n/a	n/a	1	n/a	n/a	n/a	n/a	n/a
2381996	REC_WORD	wordpools/wasnorm_wordpool_less_exclusions.txt	LTP196	ltpFR	15	13	0	GUARDIAN	668	n/a	n/a	1	n/a	n/a	n/a	n/a	n/a
2383518	REC_WORD	wordpools/wasnorm_wordpool_less_exclusions.txt	LTP196	ltpFR	15	13	0	NIGHTGOWN	953	n/a	n/a	1	n/a	n/a	n/a	n/a	n/a
2385867	REC_WORD	wordpools/wasnorm_wordpool_less_exclusions.txt	LTP196	ltpFR	15	13	0	WAITRESS	1581	n/a	n/a	1	n/a	n/a	n/a	n/a	n/a
2386949	REC_WORD	wordpools/wasnorm_wordpool_less_exclusions.txt	LTP196	ltpFR	15	13	0	HOSTESS	723	n/a	n/a	1	n/a	n/a	n/a	n/a	n/a
2388379	REC_WORD	wordpools/wasnorm_wordpool_less_exclusions.txt	LTP196	ltpFR	15	13	0	SALAD	1224	n/a	n/a	0	n/a	n/a	n/a	n/a	n/a
2393809	REC_WORD	wordpools/wasnorm_wordpool_less_exclusions.txt	LTP196	ltpFR	15	13	0	HOOD	714	n/a	n/a	0	n/a	n/a	n/a	n/a	n/a
2413031	REC_WORD	wordpools/wasnorm_wordpool_less_exclusions.txt	LTP196	ltpFR	15	13	0	BED	110	n/a	n/a	1	n/a	n/a	n/a	n/a	n/a
2445697	WORD	wordpools/wasnorm_wordpool_less_exclusions.txt	LTP196	ltpFR	15	14	1	ORCHESTRA	981	n/a	n/a	1	0.57763671875	0.412841796875	1	upper	amplitud.ttf
2449758	WORD	wordpools/wasnorm_wordpool_less_exclusions.txt	LTP196	ltpFR	15	14	1	TAPE	1433	n/a	n/a	0	0.57763671875	0.412841796875	1	upper	amplitud.ttf
2453818	WORD	wordpools/wasnorm_wordpool_less_exclusions.txt	LTP196	ltpFR	15	14	0	HARE	688	n/a	n/a	0	0.422607421875	0.5869140625	0	lower	zerothre.ttf
2457762	WORD	wordpools/wasnorm_wordpool_less_exclusions.txt	LTP196	ltpFR	15	14	0	BASKETBALL	96	n/a	n/a	1	0.422607421875	0.5869140625	0	lower	zerothre.ttf
2461623	WORD	wordpools/wasnorm_wordpool_less_exclusions.txt	LTP196	ltpFR	15	14	1	EDITOR	516	n/a	n/a	1	0.57763671875	0.412841796875	1	upper	amplitud.ttf
2465800	WORD	wordpools/wasnorm_wordpool_less_exclusions.txt	LTP196	ltpFR	15	14	1	TANGERINE	1431	n/a	n/a	0	0.57763671875	0.412841796875	1	upper	amplitud.ttf
2469711	WORD	wordpools/wasnorm_wordpool_less_exclusions.txt	LTP196	ltpFR	15	14	1	VAN	1548	n/a	n/a	0	0.57763671875	0.412841796875	1	upper	amplitud.ttf
2473638	WORD	wordpools/wasnorm_wordpool_less_exclusions.txt	LTP196	ltpFR	15	14	0	NUT	965	n/a	n/a	0	0.422607421875	0.5869140625	0	lower	zerothre.ttf
2477549	WORD	wordpools/wasnorm_wordpool_less_exclusions.txt	LTP196	ltpFR	15	14	0	TURTLE	1522	n/a	n/a	0	0.422607421875	0.5869140625	0	lower	zerothre.ttf
2481511	WORD	wordpools/wasnorm_wordpool_less_exclusions.txt	LTP196	ltpFR	15	14	0	DRIVER	499	n/a	n/a	1	0.422607421875	0.5869140625	0	lower	zerothre.ttf
2485737	WORD	wordpools/wasnorm_wordpool_less_exclusions.txt	LTP196	ltpFR	15	14	0	GIRL	637	n/a	n/a	1	0.422607421875	0.5869140625	0	lower	zerothre.ttf
2489848	WORD	wordpools/wasnorm_wordpool_less_exclusions.txt	LTP196	ltpFR	15	14	0	CHART	282	n/a	n/a	0	0.422607421875	0.5869140625	0	lower	zerothre.ttf
2493825	WORD	wordpools/wasnorm_wordpool_less_exclusions.txt	LTP196	ltpFR	15	14	0	SKETCH	1315	n/a	n/a	0	0.422607421875	0.5869140625	0	lower	zerothre.ttf
2497802	WORD	wordpools/wasnorm_wordpool_less_exclusions.txt	LTP196	ltpFR	15	14	1	COMB	351	n/a	n/a	0	0.57763671875	0.412841796875	1	upper	amplitud.ttf
2501930	WORD	wordpools/wasnorm_wordpool_less_exclusions.txt	LTP196	ltpFR	15	14	1	TOOTHPASTE	1483	n/a	n/a	0	0.57763671875	0.412841796875	1	upper	amplitud.ttf
2505790	WORD	wordpools/wasnorm_wordpool_less_exclusions.txt	LTP196	ltpFR	15	14	1	FIG	563	n/a	n/a	0	0.57763671875	0.412841796875	1	upper	amplitud.ttf
2511749	REC_START	n/a	LTP196	ltpFR	15	14	n/a	n/a	n/a	n/a	n/a	n/a	n/a	n/a	n/a	n/a	n/a
2514418	REC_WORD	wordpools/wasnorm_wordpool_less_exclusions.txt	LTP196	ltpFR	15	14	0	GIRL	637	n/a	n/a	1	n/a	n/a	n/a	n/a	n/a
2515585	REC_WORD	wordpools/wasnorm_wordpool_less_exclusions.txt	LTP196	ltpFR	15	14	0	DRIVER	499	n/a	n/a	1	n/a	n/a	n/a	n/a	n/a
2517785	REC_WORD	wordpools/wasnorm_wordpool_less_exclusions.txt	LTP196	ltpFR	15	14	n/a	TRUCK	1512	n/a	n/a	n/a	n/a	n/a	n/a	n/a	n/a
2518937	REC_WORD	wordpools/wasnorm_wordpool_less_exclusions.txt	LTP196	ltpFR	15	14	1	VAN	1548	n/a	n/a	0	n/a	n/a	n/a	n/a	n/a
2521661	REC_WORD	wordpools/wasnorm_wordpool_less_exclusions.txt	LTP196	ltpFR	15	14	0	NUT	965	n/a	n/a	0	n/a	n/a	n/a	n/a	n/a
2522563	REC_WORD	wordpools/wasnorm_wordpool_less_exclusions.txt	LTP196	ltpFR	15	14	1	FIG	563	n/a	n/a	0	n/a	n/a	n/a	n/a	n/a
2524325	REC_WORD	wordpools/wasnorm_wordpool_less_exclusions.txt	LTP196	ltpFR	15	14	1	TANGERINE	1431	n/a	n/a	0	n/a	n/a	n/a	n/a	n/a
2534906	REC_WORD	wordpools/wasnorm_wordpool_less_exclusions.txt	LTP196	ltpFR	15	14	0	SKETCH	1315	n/a	n/a	0	n/a	n/a	n/a	n/a	n/a
2537919	REC_WORD	wordpools/wasnorm_wordpool_less_exclusions.txt	LTP196	ltpFR	15	14	n/a	LIST	830	n/a	n/a	n/a	n/a	n/a	n/a	n/a	n/a
2561471	REC_WORD	wordpools/wasnorm_wordpool_less_exclusions.txt	LTP196	ltpFR	15	14	1	TAPE	1433	n/a	n/a	0	n/a	n/a	n/a	n/a	n/a
2562134	REC_WORD	wordpools/wasnorm_wordpool_less_exclusions.txt	LTP196	ltpFR	15	14	1	ORCHESTRA	981	n/a	n/a	1	n/a	n/a	n/a	n/a	n/a
2590098	WORD	wordpools/wasnorm_wordpool_less_exclusions.txt	LTP196	ltpFR	15	15	0	FLY	586	n/a	n/a	0	0.422607421875	0.5869140625	0	lower	zerothre.ttf
2594092	WORD	wordpools/wasnorm_wordpool_less_exclusions.txt	LTP196	ltpFR	15	15	0	CLOTHES	327	n/a	n/a	0	0.422607421875	0.5869140625	0	lower	zerothre.ttf
2598053	WORD	wordpools/wasnorm_wordpool_less_exclusions.txt	LTP196	ltpFR	15	15	0	DRESSER	496	n/a	n/a	1	0.422607421875	0.5869140625	0	lower	zerothre.ttf
2601997	WORD	wordpools/wasnorm_wordpool_less_exclusions.txt	LTP196	ltpFR	15	15	0	BASEMENT	94	n/a	n/a	1	0.422607421875	0.5869140625	0	lower	zerothre.ttf
2606057	WORD	wordpools/wasnorm_wordpool_less_exclusions.txt	LTP196	ltpFR	15	15	0	CORD	379	n/a	n/a	0	0.422607421875	0.5869140625	0	lower	zerothre.ttf
2610201	WORD	wordpools/wasnorm_wordpool_less_exclusions.txt	LTP196	ltpFR	15	15	0	VOLLEYBALL	1576	n/a	n/a	0	0.422607421875	0.5869140625	0	lower	zerothre.ttf
2614062	WORD	wordpools/wasnorm_wordpool_less_exclusions.txt	LTP196	ltpFR	15	15	0	HOOP	716	n/a	n/a	1	0.422607421875	0.5869140625	0	lower	zerothre.ttf
2617990	WORD	wordpools/wasnorm_wordpool_less_exclusions.txt	LTP196	ltpFR	15	15	0	RACCOON	1153	n/a	n/a	0	0.422607421875	0.5869140625	0	lower	zerothre.ttf
2621900	WORD	wordpools/wasnorm_wordpool_less_exclusions.txt	LTP196	ltpFR	15	15	0	PORCUPINE	1107	n/a	n/a	0	0.422607421875	0.5869140625	0	lower	zerothre.ttf
2625811	WORD	wordpools/wasnorm_wordpool_less_exclusions.txt	LTP196	ltpFR	15	15	0	BIRD	129	n/a	n/a	0	0.422607421875	0.5869140625	0	lower	zerothre.ttf
2629922	WORD	wordpools/wasnorm_wordpool_less_exclusions.txt	LTP196	ltpFR	15	15	0	KITE	779	n/a	n/a	0	0.422607421875	0.5869140625	0	lower	zerothre.ttf
2634049	WORD	wordpools/wasnorm_wordpool_less_exclusions.txt	LTP196	ltpFR	15	15	0	WIRE	1616	n/a	n/a	0	0.422607421875	0.5869140625	0	lower	zerothre.ttf
2638159	WORD	wordpools/wasnorm_wordpool_less_exclusions.txt	LTP196	ltpFR	15	15	0	GUARD	667	n/a	n/a	1	0.422607421875	0.5869140625	0	lower	zerothre.ttf
2642220	WORD	wordpools/wasnorm_wordpool_less_exclusions.txt	LTP196	ltpFR	15	15	0	COURT	391	n/a	n/a	1	0.422607421875	0.5869140625	0	lower	zerothre.ttf
2646131	WORD	wordpools/wasnorm_wordpool_less_exclusions.txt	LTP196	ltpFR	15	15	0	RAKE	1164	n/a	n/a	1	0.422607421875	0.5869140625	0	lower	zerothre.ttf
2650058	WORD	wordpools/wasnorm_wordpool_less_exclusions.txt	LTP196	ltpFR	15	15	0	LOOP	844	n/a	n/a	0	0.422607421875	0.5869140625	0	lower	zerothre.ttf
2655717	REC_START	n/a	LTP196	ltpFR	15	15	n/a	n/a	n/a	n/a	n/a	n/a	n/a	n/a	n/a	n/a	n/a
2660311	REC_WORD	wordpools/wasnorm_wordpool_less_exclusions.txt	LTP196	ltpFR	15	15	0	GUARD	667	n/a	n/a	1	n/a	n/a	n/a	n/a	n/a
2661588	REC_WORD	wordpools/wasnorm_wordpool_less_exclusions.txt	LTP196	ltpFR	15	15	0	DRESSER	496	n/a	n/a	1	n/a	n/a	n/a	n/a	n/a
2663379	REC_WORD	wordpools/wasnorm_wordpool_less_exclusions.txt	LTP196	ltpFR	15	15	-1	WARDROBE	1587	n/a	n/a	-1	n/a	n/a	n/a	n/a	n/a
2665395	REC_WORD	wordpools/wasnorm_wordpool_less_exclusions.txt	LTP196	ltpFR	15	15	0	BASEMENT	94	n/a	n/a	1	n/a	n/a	n/a	n/a	n/a
2668488	REC_WORD	wordpools/wasnorm_wordpool_less_exclusions.txt	LTP196	ltpFR	15	15	0	RACCOON	1153	n/a	n/a	0	n/a	n/a	n/a	n/a	n/a
2670074	REC_WORD	wordpools/wasnorm_wordpool_less_exclusions.txt	LTP196	ltpFR	15	15	0	PORCUPINE	1107	n/a	n/a	0	n/a	n/a	n/a	n/a	n/a
2673197	REC_WORD	wordpools/wasnorm_wordpool_less_exclusions.txt	LTP196	ltpFR	15	15	0	BIRD	129	n/a	n/a	0	n/a	n/a	n/a	n/a	n/a
2676185	REC_WORD	wordpools/wasnorm_wordpool_less_exclusions.txt	LTP196	ltpFR	15	15	0	FLY	586	n/a	n/a	0	n/a	n/a	n/a	n/a	n/a
2678719	REC_WORD	wordpools/wasnorm_wordpool_less_exclusions.txt	LTP196	ltpFR	15	15	0	KITE	779	n/a	n/a	0	n/a	n/a	n/a	n/a	n/a
2680261	REC_WORD	wordpools/wasnorm_wordpool_less_exclusions.txt	LTP196	ltpFR	15	15	0	WIRE	1616	n/a	n/a	0	n/a	n/a	n/a	n/a	n/a
2680890	REC_WORD	wordpools/wasnorm_wordpool_less_exclusions.txt	LTP196	ltpFR	15	15	0	CORD	379	n/a	n/a	0	n/a	n/a	n/a	n/a	n/a
2682930	REC_WORD	wordpools/wasnorm_wordpool_less_exclusions.txt	LTP196	ltpFR	15	15	0	VOLLEYBALL	1576	n/a	n/a	0	n/a	n/a	n/a	n/a	n/a
2684885	REC_WORD	wordpools/wasnorm_wordpool_less_exclusions.txt	LTP196	ltpFR	15	15	0	LOOP	844	n/a	n/a	0	n/a	n/a	n/a	n/a	n/a
2694593	REC_WORD	wordpools/wasnorm_wordpool_less_exclusions.txt	LTP196	ltpFR	15	15	n/a	OVAL	990	n/a	n/a	n/a	n/a	n/a	n/a	n/a	n/a
2697627	REC_WORD	wordpools/wasnorm_wordpool_less_exclusions.txt	LTP196	ltpFR	15	15	0	BASKETBALL	96	n/a	n/a	1	n/a	n/a	n/a	n/a	n/a
2723109	REC_WORD	wordpools/wasnorm_wordpool_less_exclusions.txt	LTP196	ltpFR	15	15	0	GUARD	667	n/a	n/a	1	n/a	n/a	n/a	n/a	n/a
2734033	WORD	wordpools/wasnorm_wordpool_less_exclusions.txt	LTP196	ltpFR	15	16	1	BATHROOM	99	n/a	n/a	0	0.57763671875	0.412841796875	1	upper	amplitud.ttf
2738110	WORD	wordpools/wasnorm_wordpool_less_exclusions.txt	LTP196	ltpFR	15	16	1	CLERK	321	n/a	n/a	1	0.57763671875	0.412841796875	1	upper	amplitud.ttf
2742054	WORD	wordpools/wasnorm_wordpool_less_exclusions.txt	LTP196	ltpFR	15	16	1	CANARY	227	n/a	n/a	1	0.57763671875	0.412841796875	1	upper	amplitud.ttf
2745932	WORD	wordpools/wasnorm_wordpool_less_exclusions.txt	LTP196	ltpFR	15	16	1	ROBIN	1199	n/a	n/a	1	0.57763671875	0.412841796875	1	upper	amplitud.ttf
2749759	WORD	wordpools/wasnorm_wordpool_less_exclusions.txt	LTP196	ltpFR	15	16	1	SIBLING	1301	n/a	n/a	1	0.57763671875	0.412841796875	1	upper	amplitud.ttf
2753670	WORD	wordpools/wasnorm_wordpool_less_exclusions.txt	LTP196	ltpFR	15	16	1	CHIME	300	n/a	n/a	0	0.57763671875	0.412841796875	1	upper	amplitud.ttf
2757831	WORD	wordpools/wasnorm_wordpool_less_exclusions.txt	LTP196	ltpFR	15	16	1	BAIT	70	n/a	n/a	0	0.57763671875	0.412841796875	1	upper	amplitud.ttf
2761758	WORD	wordpools/wasnorm_wordpool_less_exclusions.txt	LTP196	ltpFR	15	16	1	OFFICE	972	n/a	n/a	0	0.57763671875	0.412841796875	1	upper	amplitud.ttf
2765669	WORD	wordpools/wasnorm_wordpool_less_exclusions.txt	LTP196	ltpFR	15	16	1	FEATHER	557	n/a	n/a	0	0.57763671875	0.412841796875	1	upper	amplitud.ttf
2769796	WORD	wordpools/wasnorm_wordpool_less_exclusions.txt	LTP196	ltpFR	15	16	1	PERCH	1048	n/a	n/a	0	0.57763671875	0.412841796875	1	upper	amplitud.ttf
2773907	WORD	wordpools/wasnorm_wordpool_less_exclusions.txt	LTP196	ltpFR	15	16	1	RACK	1154	n/a	n/a	0	0.57763671875	0.412841796875	1	upper	amplitud.ttf
2778084	WORD	wordpools/wasnorm_wordpool_less_exclusions.txt	LTP196	ltpFR	15	16	1	MOTORCYCLE	923	n/a	n/a	0	0.57763671875	0.412841796875	1	upper	amplitud.ttf
2782061	WORD	wordpools/wasnorm_wordpool_less_exclusions.txt	LTP196	ltpFR	15	16	1	TOURIST	1488	n/a	n/a	0	0.57763671875	0.412841796875	1	upper	amplitud.ttf
2786039	WORD	wordpools/wasnorm_wordpool_less_exclusions.txt	LTP196	ltpFR	15	16	1	BONE	148	n/a	n/a	0	0.57763671875	0.412841796875	1	upper	amplitud.ttf
2790016	WORD	wordpools/wasnorm_wordpool_less_exclusions.txt	LTP196	ltpFR	15	16	1	COLLAR	345	n/a	n/a	0	0.57763671875	0.412841796875	1	upper	amplitud.ttf
2793877	WORD	wordpools/wasnorm_wordpool_less_exclusions.txt	LTP196	ltpFR	15	16	1	SWAN	1417	n/a	n/a	1	0.57763671875	0.412841796875	1	upper	amplitud.ttf
2799470	REC_START	n/a	LTP196	ltpFR	15	16	n/a	n/a	n/a	n/a	n/a	n/a	n/a	n/a	n/a	n/a	n/a
2802288	REC_WORD	wordpools/wasnorm_wordpool_less_exclusions.txt	LTP196	ltpFR	15	16	1	CLERK	321	n/a	n/a	1	n/a	n/a	n/a	n/a	n/a
2803546	REC_WORD	wordpools/wasnorm_wordpool_less_exclusions.txt	LTP196	ltpFR	15	16	1	BATHROOM	99	n/a	n/a	0	n/a	n/a	n/a	n/a	n/a
2805970	REC_WORD	wordpools/wasnorm_wordpool_less_exclusions.txt	LTP196	ltpFR	15	16	n/a	PARAKEET	-1	n/a	n/a	n/a	n/a	n/a	n/a	n/a	n/a
2807876	REC_WORD	wordpools/wasnorm_wordpool_less_exclusions.txt	LTP196	ltpFR	15	16	1	DOVE	491	n/a	n/a	1	n/a	n/a	n/a	n/a	n/a
2810500	REC_WORD	wordpools/wasnorm_wordpool_less_exclusions.txt	LTP196	ltpFR	15	16	1	ROBIN	1199	n/a	n/a	1	n/a	n/a	n/a	n/a	n/a
2813024	REC_WORD	wordpools/wasnorm_wordpool_less_exclusions.txt	LTP196	ltpFR	15	16	1	PERCH	1048	n/a	n/a	0	n/a	n/a	n/a	n/a	n/a
2836715	REC_WORD	wordpools/wasnorm_wordpool_less_exclusions.txt	LTP196	ltpFR	15	16	1	SIBLING	1301	n/a	n/a	1	n/a	n/a	n/a	n/a	n/a
2840182	REC_WORD	wordpools/wasnorm_wordpool_less_exclusions.txt	LTP196	ltpFR	15	16	1	TOURIST	1488	n/a	n/a	0	n/a	n/a	n/a	n/a	n/a
2842856	REC_WORD	wordpools/wasnorm_wordpool_less_exclusions.txt	LTP196	ltpFR	15	16	1	MOTORCYCLE	923	n/a	n/a	0	n/a	n/a	n/a	n/a	n/a
2864272	REC_WORD	wordpools/wasnorm_wordpool_less_exclusions.txt	LTP196	ltpFR	15	16	0	HARE	688	n/a	n/a	0	n/a	n/a	n/a	n/a	n/a
2937580	REC_START	n/a	LTP196	ltpFR	15	n/a	n/a	n/a	n/a	n/a	n/a	n/a	n/a	n/a	n/a	n/a	n/a
2939550	FFR_REC_WORD	wordpools/wasnorm_wordpool_less_exclusions.txt	LTP196	ltpFR	15	n/a	-1	ALLIGATOR	16	n/a	n/a	-1	n/a	n/a	n/a	n/a	n/a
2942209	FFR_REC_WORD	wordpools/wasnorm_wordpool_less_exclusions.txt	LTP196	ltpFR	15	n/a	1	DOVE	491	n/a	n/a	1	n/a	n/a	n/a	n/a	n/a
2944649	FFR_REC_WORD	wordpools/wasnorm_wordpool_less_exclusions.txt	LTP196	ltpFR	15	n/a	n/a	PARAKEET	-1	n/a	n/a	n/a	n/a	n/a	n/a	n/a	n/a
2956511	FFR_REC_WORD	wordpools/wasnorm_wordpool_less_exclusions.txt	LTP196	ltpFR	15	n/a	0	FLY	586	n/a	n/a	0	n/a	n/a	n/a	n/a	n/a
2960054	FFR_REC_WORD	wordpools/wasnorm_wordpool_less_exclusions.txt	LTP196	ltpFR	15	n/a	0	WINDSHIELD	1612	n/a	n/a	1	n/a	n/a	n/a	n/a	n/a
2961281	FFR_REC_WORD	wordpools/wasnorm_wordpool_less_exclusions.txt	LTP196	ltpFR	15	n/a	1	VAN	1548	n/a	n/a	0	n/a	n/a	n/a	n/a	n/a
2965077	FFR_REC_WORD	wordpools/wasnorm_wordpool_less_exclusions.txt	LTP196	ltpFR	15	n/a	0	PORCUPINE	1107	n/a	n/a	0	n/a	n/a	n/a	n/a	n/a
2967033	FFR_REC_WORD	wordpools/wasnorm_wordpool_less_exclusions.txt	LTP196	ltpFR	15	n/a	0	RACCOON	1153	n/a	n/a	0	n/a	n/a	n/a	n/a	n/a
2969502	FFR_REC_WORD	wordpools/wasnorm_wordpool_less_exclusions.txt	LTP196	ltpFR	15	n/a	0	BIRD	129	n/a	n/a	0	n/a	n/a	n/a	n/a	n/a
2972081	FFR_REC_WORD	wordpools/wasnorm_wordpool_less_exclusions.txt	LTP196	ltpFR	15	n/a	0	WOMAN	1620	n/a	n/a	1	n/a	n/a	n/a	n/a	n/a
2973678	FFR_REC_WORD	wordpools/wasnorm_wordpool_less_exclusions.txt	LTP196	ltpFR	15	n/a	1	ENGINEER	536	n/a	n/a	1	n/a	n/a	n/a	n/a	n/a
2975070	FFR_REC_WORD	wordpools/wasnorm_wordpool_less_exclusions.txt	LTP196	ltpFR	15	n/a	0	ARCHITECT	36	n/a	n/a	1	n/a	n/a	n/a	n/a	n/a
2982094	FFR_REC_WORD	wordpools/wasnorm_wordpool_less_exclusions.txt	LTP196	ltpFR	15	n/a	0	WAITRESS	1581	n/a	n/a	1	n/a	n/a	n/a	n/a	n/a
2983600	FFR_REC_WORD	wordpools/wasnorm_wordpool_less_exclusions.txt	LTP196	ltpFR	15	n/a	0	HOSTESS	723	n/a	n/a	1	n/a	n/a	n/a	n/a	n/a
2985441	FFR_REC_WORD	wordpools/wasnorm_wordpool_less_exclusions.txt	LTP196	ltpFR	15	n/a	0	SALAD	1224	n/a	n/a	0	n/a	n/a	n/a	n/a	n/a
2989058	FFR_REC_WORD	wordpools/wasnorm_wordpool_less_exclusions.txt	LTP196	ltpFR	15	n/a	-1	HAY	693	n/a	n/a	-1	n/a	n/a	n/a	n/a	n/a
2999429	FFR_REC_WORD	wordpools/wasnorm_wordpool_less_exclusions.txt	LTP196	ltpFR	15	n/a	-1	SEED	1266	n/a	n/a	-1	n/a	n/a	n/a	n/a	n/a
3006967	FFR_REC_WORD	wordpools/wasnorm_wordpool_less_exclusions.txt	LTP196	ltpFR	15	n/a	0	TOY	1492	n/a	n/a	0	n/a	n/a	n/a	n/a	n/a
3007945	FFR_REC_WORD	wordpools/wasnorm_wordpool_less_exclusions.txt	LTP196	ltpFR	15	n/a	0	NIECE	952	n/a	n/a	1	n/a	n/a	n/a	n/a	n/a
3010105	FFR_REC_WORD	wordpools/wasnorm_wordpool_less_exclusions.txt	LTP196	ltpFR	15	n/a	1	SIBLING	1301	n/a	n/a	1	n/a	n/a	n/a	n/a	n/a
3018276	FFR_REC_WORD	wordpools/wasnorm_wordpool_less_exclusions.txt	LTP196	ltpFR	15	n/a	0	POOL	1103	n/a	n/a	0	n/a	n/a	n/a	n/a	n/a
3021439	FFR_REC_WORD	wordpools/wasnorm_wordpool_less_exclusions.txt	LTP196	ltpFR	15	n/a	1	TWINE	1529	n/a	n/a	0	n/a	n/a	n/a	n/a	n/a
3025525	FFR_REC_WORD	wordpools/wasnorm_wordpool_less_exclusions.txt	LTP196	ltpFR	15	n/a	0	CORD	379	n/a	n/a	0	n/a	n/a	n/a	n/a	n/a
3027964	FFR_REC_WORD	wordpools/wasnorm_wordpool_less_exclusions.txt	LTP196	ltpFR	15	n/a	-1	OPERA	978	n/a	n/a	-1	n/a	n/a	n/a	n/a	n/a
3028877	FFR_REC_WORD	wordpools/wasnorm_wordpool_less_exclusions.txt	LTP196	ltpFR	15	n/a	1	ORCHESTRA	981	n/a	n/a	1	n/a	n/a	n/a	n/a	n/a
3031072	FFR_REC_WORD	wordpools/wasnorm_wordpool_less_exclusions.txt	LTP196	ltpFR	15	n/a	-1	FROST	609	n/a	n/a	-1	n/a	n/a	n/a	n/a	n/a
3035762	FFR_REC_WORD	wordpools/wasnorm_wordpool_less_exclusions.txt	LTP196	ltpFR	15	n/a	1	TAPE	1433	n/a	n/a	0	n/a	n/a	n/a	n/a	n/a
3043494	FFR_REC_WORD	wordpools/wasnorm_wordpool_less_exclusions.txt	LTP196	ltpFR	15	n/a	0	BLUEPRINT	142	n/a	n/a	0	n/a	n/a	n/a	n/a	n/a
3044187	FFR_REC_WORD	wordpools/wasnorm_wordpool_less_exclusions.txt	LTP196	ltpFR	15	n/a	0	PAPER	1011	n/a	n/a	0	n/a	n/a	n/a	n/a	n/a
3044736	FFR_REC_WORD	wordpools/wasnorm_wordpool_less_exclusions.txt	LTP196	ltpFR	15	n/a	1	PEN	1041	n/a	n/a	0	n/a	n/a	n/a	n/a	n/a
3045170	FFR_REC_WORD	wordpools/wasnorm_wordpool_less_exclusions.txt	LTP196	ltpFR	15	n/a	1	MARKER	870	n/a	n/a	0	n/a	n/a	n/a	n/a	n/a
3049091	FFR_REC_WORD	wordpools/wasnorm_wordpool_less_exclusions.txt	LTP196	ltpFR	15	n/a	0	PAINTER	1004	n/a	n/a	1	n/a	n/a	n/a	n/a	n/a
3062965	FFR_REC_WORD	wordpools/wasnorm_wordpool_less_exclusions.txt	LTP196	ltpFR	15	n/a	n/a	NICKEL	950	n/a	n/a	n/a	n/a	n/a	n/a	n/a	n/a
3064875	FFR_REC_WORD	wordpools/wasnorm_wordpool_less_exclusions.txt	LTP196	ltpFR	15	n/a	0	ELM	527	n/a	n/a	0	n/a	n/a	n/a	n/a	n/a
3067669	FFR_REC_WORD	wordpools/wasnorm_wordpool_less_exclusions.txt	LTP196	ltpFR	15	n/a	1	ASIA	46	n/a	n/a	1	n/a	n/a	n/a	n/a	n/a
3070767	FFR_REC_WORD	wordpools/wasnorm_wordpool_less_exclusions.txt	LTP196	ltpFR	15	n/a	1	BANKER	84	n/a	n/a	1	n/a	n/a	n/a	n/a	n/a
3076349	FFR_REC_WORD	wordpools/wasnorm_wordpool_less_exclusions.txt	LTP196	ltpFR	15	n/a	1	HEDGE	699	n/a	n/a	0	n/a	n/a	n/a	n/a	n/a
3076947	FFR_REC_WORD	wordpools/wasnorm_wordpool_less_exclusions.txt	LTP196	ltpFR	15	n/a	1	THICKET	1455	n/a	n/a	0	n/a	n/a	n/a	n/a	n/a
3097641	FFR_REC_WORD	wordpools/wasnorm_wordpool_less_exclusions.txt	LTP196	ltpFR	15	n/a	n/a	AIRPLANE	12	n/a	n/a	n/a	n/a	n/a	n/a	n/a	n/a
3106032	FFR_REC_WORD	wordpools/wasnorm_wordpool_less_exclusions.txt	LTP196	ltpFR	15	n/a	-1	WARDROBE	1587	n/a	n/a	-1	n/a	n/a	n/a	n/a	n/a
3108067	FFR_REC_WORD	wordpools/wasnorm_wordpool_less_exclusions.txt	LTP196	ltpFR	15	n/a	0	DRESSER	496	n/a	n/a	1	n/a	n/a	n/a	n/a	n/a
3109155	FFR_REC_WORD	wordpools/wasnorm_wordpool_less_exclusions.txt	LTP196	ltpFR	15	n/a	0	CLOTHES	327	n/a	n/a	0	n/a	n/a	n/a	n/a	n/a
3111434	FFR_REC_WORD	wordpools/wasnorm_wordpool_less_exclusions.txt	LTP196	ltpFR	15	n/a	-1	TORNADO	1485	n/a	n/a	-1	n/a	n/a	n/a	n/a	n/a
3115550	FFR_REC_WORD	wordpools/wasnorm_wordpool_less_exclusions.txt	LTP196	ltpFR	15	n/a	-1	BASKET	95	n/a	n/a	-1	n/a	n/a	n/a	n/a	n/a
3118888	FFR_REC_WORD	wordpools/wasnorm_wordpool_less_exclusions.txt	LTP196	ltpFR	15	n/a	1	TOOTHPASTE	1483	n/a	n/a	0	n/a	n/a	n/a	n/a	n/a
3120015	FFR_REC_WORD	wordpools/wasnorm_wordpool_less_exclusions.txt	LTP196	ltpFR	15	n/a	-1	TOOTH	1481	n/a	n/a	-1	n/a	n/a	n/a	n/a	n/a
3132102	FFR_REC_WORD	wordpools/wasnorm_wordpool_less_exclusions.txt	LTP196	ltpFR	15	n/a	1	CLERK	321	n/a	n/a	1	n/a	n/a	n/a	n/a	n/a
3133075	FFR_REC_WORD	wordpools/wasnorm_wordpool_less_exclusions.txt	LTP196	ltpFR	15	n/a	1	EMPIRE	530	n/a	n/a	0	n/a	n/a	n/a	n/a	n/a
3136642	FFR_REC_WORD	wordpools/wasnorm_wordpool_less_exclusions.txt	LTP196	ltpFR	15	n/a	1	BATHROOM	99	n/a	n/a	0	n/a	n/a	n/a	n/a	n/a
3139481	FFR_REC_WORD	wordpools/wasnorm_wordpool_less_exclusions.txt	LTP196	ltpFR	15	n/a	0	BED	110	n/a	n/a	1	n/a	n/a	n/a	n/a	n/a
3141242	FFR_REC_WORD	wordpools/wasnorm_wordpool_less_exclusions.txt	LTP196	ltpFR	15	n/a	n/a	TUB	1514	n/a	n/a	n/a	n/a	n/a	n/a	n/a	n/a
3142235	FFR_REC_WORD	wordpools/wasnorm_wordpool_less_exclusions.txt	LTP196	ltpFR	15	n/a	n/a	BATHTUB	100	n/a	n/a	n/a	n/a	n/a	n/a	n/a	n/a
3144335	FFR_REC_WORD	wordpools/wasnorm_wordpool_less_exclusions.txt	LTP196	ltpFR	15	n/a	-1	FAUCET	555	n/a	n/a	-1	n/a	n/a	n/a	n/a	n/a
3146365	FFR_REC_WORD	wordpools/wasnorm_wordpool_less_exclusions.txt	LTP196	ltpFR	15	n/a	-1	EUROPE	541	n/a	n/a	-1	n/a	n/a	n/a	n/a	n/a
3146964	FFR_REC_WORD	wordpools/wasnorm_wordpool_less_exclusions.txt	LTP196	ltpFR	15	n/a	-1	FRANCE	601	n/a	n/a	-1	n/a	n/a	n/a	n/a	n/a
3148710	FFR_REC_WORD	wordpools/wasnorm_wordpool_less_exclusions.txt	LTP196	ltpFR	15	n/a	-1	CHEESE	289	n/a	n/a	-1	n/a	n/a	n/a	n/a	n/a
3152047	FFR_REC_WORD	wordpools/wasnorm_wordpool_less_exclusions.txt	LTP196	ltpFR	15	n/a	-1	CHOCOLATE	306	n/a	n/a	-1	n/a	n/a	n/a	n/a	n/a
3178233	FFR_REC_WORD	wordpools/wasnorm_wordpool_less_exclusions.txt	LTP196	ltpFR	15	n/a	-1	TURNIP	1521	n/a	n/a	-1	n/a	n/a	n/a	n/a	n/a
3236820	FFR_REC_WORD	wordpools/wasnorm_wordpool_less_exclusions.txt	LTP196	ltpFR	15	n/a	0	CAFETERIA	217	n/a	n/a	1	n/a	n/a	n/a	n/a	n/a
3264443	REC_START	n/a	LTP196	ltpFR	15	1	n/a	n/a	n/a	n/a	n/a	n/a	n/a	n/a	n/a	n/a	n/a
3264475	RECOG_LURE	n/a	LTP196	ltpFR	15	1	n/a	DUCK	504	1	2	n/a	n/a	n/a	n/a	n/a	n/a
3266841	RECOG_RESP	n/a	LTP196	ltpFR	15	1	n/a	DUCK	504	1	n/a	n/a	n/a	n/a	n/a	n/a	n/a
3268054	RECOG_CONF	n/a	LTP196	ltpFR	15	1	n/a	DUCK	504	n/a	2	n/a	n/a	n/a	n/a	n/a	n/a
3269899	RECOG_LURE	n/a	LTP196	ltpFR	15	1	n/a	PRAIRIE	1118	0	3	n/a	n/a	n/a	n/a	n/a	n/a
3270781	RECOG_RESP	n/a	LTP196	ltpFR	15	1	n/a	PRAIRIE	1118	0	n/a	n/a	n/a	n/a	n/a	n/a	n/a
3271727	RECOG_CONF	n/a	LTP196	ltpFR	15	1	n/a	PRAIRIE	1118	n/a	3	n/a	n/a	n/a	n/a	n/a	n/a
3273194	RECOG_TARGET	n/a	LTP196	ltpFR	15	1	-1	NOSE	957	1	1	-1	n/a	n/a	n/a	n/a	n/a
3274031	RECOG_RESP	n/a	LTP196	ltpFR	15	1	-1	NOSE	957	1	n/a	-1	n/a	n/a	n/a	n/a	n/a
3274724	RECOG_CONF	n/a	LTP196	ltpFR	15	1	-1	NOSE	957	n/a	1	-1	n/a	n/a	n/a	n/a	n/a
3276407	RECOG_TARGET	n/a	LTP196	ltpFR	15	1	0	ELM	527	1	5	0	n/a	n/a	n/a	n/a	n/a
3277184	RECOG_RESP	n/a	LTP196	ltpFR	15	1	0	ELM	527	1	n/a	0	n/a	n/a	n/a	n/a	n/a
3277797	RECOG_CONF	n/a	LTP196	ltpFR	15	1	0	ELM	527	n/a	5	0	n/a	n/a	n/a	n/a	n/a
3279403	RECOG_LURE	n/a	LTP196	ltpFR	15	1	n/a	ALBUM	14	0	4	n/a	n/a	n/a	n/a	n/a	n/a
3280293	RECOG_RESP	n/a	LTP196	ltpFR	15	1	n/a	ALBUM	14	0	n/a	n/a	n/a	n/a	n/a	n/a	n/a
3281080	RECOG_CONF	n/a	LTP196	ltpFR	15	1	n/a	ALBUM	14	n/a	4	n/a	n/a	n/a	n/a	n/a	n/a
3282580	RECOG_TARGET	n/a	LTP196	ltpFR	15	1	-1	TOOTH	1481	1	5	-1	n/a	n/a	n/a	n/a	n/a
3283705	RECOG_RESP	n/a	LTP196	ltpFR	15	1	-1	TOOTH	1481	1	n/a	-1	n/a	n/a	n/a	n/a	n/a
3284379	RECOG_CONF	n/a	LTP196	ltpFR	15	1	-1	TOOTH	1481	n/a	5	-1	n/a	n/a	n/a	n/a	n/a
3286075	RECOG_TARGET	n/a	LTP196	ltpFR	15	1	-1	APPLICATION	34	1	5	-1	n/a	n/a	n/a	n/a	n/a
3287091	RECOG_RESP	n/a	LTP196	ltpFR	15	1	-1	APPLICATION	34	1	n/a	-1	n/a	n/a	n/a	n/a	n/a
3287904	RECOG_CONF	n/a	LTP196	ltpFR	15	1	-1	APPLICATION	34	n/a	5	-1	n/a	n/a	n/a	n/a	n/a
3289553	RECOG_TARGET	n/a	LTP196	ltpFR	15	1	-1	LIMB	822	1	5	-1	n/a	n/a	n/a	n/a	n/a
3290284	RECOG_RESP	n/a	LTP196	ltpFR	15	1	-1	LIMB	822	1	n/a	-1	n/a	n/a	n/a	n/a	n/a
3291217	RECOG_CONF	n/a	LTP196	ltpFR	15	1	-1	LIMB	822	n/a	5	-1	n/a	n/a	n/a	n/a	n/a
3292782	RECOG_TARGET	n/a	LTP196	ltpFR	15	1	0	ACORN	3	0	3	0	n/a	n/a	n/a	n/a	n/a
3294750	RECOG_RESP	n/a	LTP196	ltpFR	15	1	0	ACORN	3	0	n/a	0	n/a	n/a	n/a	n/a	n/a
3295760	RECOG_CONF	n/a	LTP196	ltpFR	15	1	0	ACORN	3	n/a	3	0	n/a	n/a	n/a	n/a	n/a
3297426	RECOG_TARGET	n/a	LTP196	ltpFR	15	1	0	TURKEY	1520	1	2	1	n/a	n/a	n/a	n/a	n/a
3298836	RECOG_RESP	n/a	LTP196	ltpFR	15	1	0	TURKEY	1520	1	n/a	1	n/a	n/a	n/a	n/a	n/a
3299585	RECOG_CONF	n/a	LTP196	ltpFR	15	1	0	TURKEY	1520	n/a	2	1	n/a	n/a	n/a	n/a	n/a
3301169	RECOG_LURE	n/a	LTP196	ltpFR	15	1	n/a	SUNSET	1408	0	4	n/a	n/a	n/a	n/a	n/a	n/a
3302221	RECOG_RESP	n/a	LTP196	ltpFR	15	1	n/a	SUNSET	1408	0	n/a	n/a	n/a	n/a	n/a	n/a	n/a
3303120	RECOG_CONF	n/a	LTP196	ltpFR	15	1	n/a	SUNSET	1408	n/a	4	n/a	n/a	n/a	n/a	n/a	n/a
3304564	RECOG_LURE	n/a	LTP196	ltpFR	15	1	n/a	MICROSCOPE	891	0	4	n/a	n/a	n/a	n/a	n/a	n/a
3305581	RECOG_RESP	n/a	LTP196	ltpFR	15	1	n/a	MICROSCOPE	891	0	n/a	n/a	n/a	n/a	n/a	n/a	n/a
3306209	RECOG_CONF	n/a	LTP196	ltpFR	15	1	n/a	MICROSCOPE	891	n/a	4	n/a	n/a	n/a	n/a	n/a	n/a
3307859	RECOG_TARGET	n/a	LTP196	ltpFR	15	1	-1	BAND	78	0	2	-1	n/a	n/a	n/a	n/a	n/a
3308895	RECOG_RESP	n/a	LTP196	ltpFR	15	1	-1	BAND	78	0	n/a	-1	n/a	n/a	n/a	n/a	n/a
3309623	RECOG_CONF	n/a	LTP196	ltpFR	15	1	-1	BAND	78	n/a	2	-1	n/a	n/a	n/a	n/a	n/a
3311121	RECOG_LURE	n/a	LTP196	ltpFR	15	1	n/a	HANGER	687	0	1	n/a	n/a	n/a	n/a	n/a	n/a
3312267	RECOG_RESP	n/a	LTP196	ltpFR	15	1	n/a	HANGER	687	0	n/a	n/a	n/a	n/a	n/a	n/a	n/a
3312898	RECOG_CONF	n/a	LTP196	ltpFR	15	1	n/a	HANGER	687	n/a	1	n/a	n/a	n/a	n/a	n/a	n/a
3314400	RECOG_LURE	n/a	LTP196	ltpFR	15	1	n/a	QUARTER	1148	0	4	n/a	n/a	n/a	n/a	n/a	n/a
3315336	RECOG_RESP	n/a	LTP196	ltpFR	15	1	n/a	QUARTER	1148	0	n/a	n/a	n/a	n/a	n/a	n/a	n/a
3315910	RECOG_CONF	n/a	LTP196	ltpFR	15	1	n/a	QUARTER	1148	n/a	4	n/a	n/a	n/a	n/a	n/a	n/a
3317595	RECOG_LURE	n/a	LTP196	ltpFR	15	1	n/a	PENNY	1045	n/a	1	n/a	n/a	n/a	n/a	n/a	n/a
3319614	RECOG_CONF	n/a	LTP196	ltpFR	15	1	n/a	PENNY	1045	n/a	1	n/a	n/a	n/a	n/a	n/a	n/a
3321206	RECOG_TARGET	n/a	LTP196	ltpFR	15	1	1	DOUGHNUT	490	1	2	0	n/a	n/a	n/a	n/a	n/a
3322404	RECOG_RESP	n/a	LTP196	ltpFR	15	1	1	DOUGHNUT	490	1	n/a	0	n/a	n/a	n/a	n/a	n/a
3323226	RECOG_CONF	n/a	LTP196	ltpFR	15	1	1	DOUGHNUT	490	n/a	2	0	n/a	n/a	n/a	n/a	n/a
3324834	RECOG_TARGET	n/a	LTP196	ltpFR	15	1	-1	SHIP	1286	1	5	-1	n/a	n/a	n/a	n/a	n/a
3325696	RECOG_RESP	n/a	LTP196	ltpFR	15	1	-1	SHIP	1286	1	n/a	-1	n/a	n/a	n/a	n/a	n/a
3326447	RECOG_CONF	n/a	LTP196	ltpFR	15	1	-1	SHIP	1286	n/a	5	-1	n/a	n/a	n/a	n/a	n/a
3328012	RECOG_TARGET	n/a	LTP196	ltpFR	15	1	-1	OPERA	978	1	5	-1	n/a	n/a	n/a	n/a	n/a
3328945	RECOG_RESP	n/a	LTP196	ltpFR	15	1	-1	OPERA	978	1	n/a	-1	n/a	n/a	n/a	n/a	n/a
3329591	RECOG_CONF	n/a	LTP196	ltpFR	15	1	-1	OPERA	978	n/a	5	-1	n/a	n/a	n/a	n/a	n/a
3331375	RECOG_LURE	n/a	LTP196	ltpFR	15	1	n/a	CUP	424	0	4	n/a	n/a	n/a	n/a	n/a	n/a
3332219	RECOG_RESP	n/a	LTP196	ltpFR	15	1	n/a	CUP	424	0	n/a	n/a	n/a	n/a	n/a	n/a	n/a
3333212	RECOG_CONF	n/a	LTP196	ltpFR	15	1	n/a	CUP	424	n/a	4	n/a	n/a	n/a	n/a	n/a	n/a
3336531	REC_START	n/a	LTP196	ltpFR	15	2	n/a	n/a	n/a	n/a	n/a	n/a	n/a	n/a	n/a	n/a	n/a
3336566	RECOG_TARGET	n/a	LTP196	ltpFR	15	2	-1	GIRAFFE	636	1	5	-1	n/a	n/a	n/a	n/a	n/a
3337390	RECOG_RESP	n/a	LTP196	ltpFR	15	2	-1	GIRAFFE	636	1	n/a	-1	n/a	n/a	n/a	n/a	n/a
3338029	RECOG_CONF	n/a	LTP196	ltpFR	15	2	-1	GIRAFFE	636	n/a	5	-1	n/a	n/a	n/a	n/a	n/a
3339662	RECOG_TARGET	n/a	LTP196	ltpFR	15	2	1	CHIME	300	1	5	0	n/a	n/a	n/a	n/a	n/a
3340761	RECOG_RESP	n/a	LTP196	ltpFR	15	2	1	CHIME	300	1	n/a	0	n/a	n/a	n/a	n/a	n/a
3341425	RECOG_CONF	n/a	LTP196	ltpFR	15	2	1	CHIME	300	n/a	5	0	n/a	n/a	n/a	n/a	n/a
3342923	RECOG_TARGET	n/a	LTP196	ltpFR	15	2	0	PAPER	1011	1	5	0	n/a	n/a	n/a	n/a	n/a
3343627	RECOG_RESP	n/a	LTP196	ltpFR	15	2	0	PAPER	1011	1	n/a	0	n/a	n/a	n/a	n/a	n/a
3344100	RECOG_CONF	n/a	LTP196	ltpFR	15	2	0	PAPER	1011	n/a	5	0	n/a	n/a	n/a	n/a	n/a
3345719	RECOG_TARGET	n/a	LTP196	ltpFR	15	2	1	SECRETARY	1265	1	5	1	n/a	n/a	n/a	n/a	n/a
3346591	RECOG_RESP	n/a	LTP196	ltpFR	15	2	1	SECRETARY	1265	1	n/a	1	n/a	n/a	n/a	n/a	n/a
3347261	RECOG_CONF	n/a	LTP196	ltpFR	15	2	1	SECRETARY	1265	n/a	5	1	n/a	n/a	n/a	n/a	n/a
3348748	RECOG_TARGET	n/a	LTP196	ltpFR	15	2	1	ARTERY	41	1	5	0	n/a	n/a	n/a	n/a	n/a
3349675	RECOG_RESP	n/a	LTP196	ltpFR	15	2	1	ARTERY	41	1	n/a	0	n/a	n/a	n/a	n/a	n/a
3350295	RECOG_CONF	n/a	LTP196	ltpFR	15	2	1	ARTERY	41	n/a	5	0	n/a	n/a	n/a	n/a	n/a
3351794	RECOG_TARGET	n/a	LTP196	ltpFR	15	2	0	CARPENTER	246	1	5	1	n/a	n/a	n/a	n/a	n/a
3352654	RECOG_RESP	n/a	LTP196	ltpFR	15	2	0	CARPENTER	246	1	n/a	1	n/a	n/a	n/a	n/a	n/a
3353288	RECOG_CONF	n/a	LTP196	ltpFR	15	2	0	CARPENTER	246	n/a	5	1	n/a	n/a	n/a	n/a	n/a
3354856	RECOG_LURE	n/a	LTP196	ltpFR	15	2	n/a	TRICYCLE	1506	0	4	n/a	n/a	n/a	n/a	n/a	n/a
3355651	RECOG_RESP	n/a	LTP196	ltpFR	15	2	n/a	TRICYCLE	1506	0	n/a	n/a	n/a	n/a	n/a	n/a	n/a
3356125	RECOG_CONF	n/a	LTP196	ltpFR	15	2	n/a	TRICYCLE	1506	n/a	4	n/a	n/a	n/a	n/a	n/a	n/a
3357685	RECOG_TARGET	n/a	LTP196	ltpFR	15	2	-1	TORNADO	1485	1	5	-1	n/a	n/a	n/a	n/a	n/a
3358458	RECOG_RESP	n/a	LTP196	ltpFR	15	2	-1	TORNADO	1485	1	n/a	-1	n/a	n/a	n/a	n/a	n/a
3359075	RECOG_CONF	n/a	LTP196	ltpFR	15	2	-1	TORNADO	1485	n/a	5	-1	n/a	n/a	n/a	n/a	n/a
3360647	RECOG_LURE	n/a	LTP196	ltpFR	15	2	n/a	SHED	1277	0	2	n/a	n/a	n/a	n/a	n/a	n/a
3362003	RECOG_RESP	n/a	LTP196	ltpFR	15	2	n/a	SHED	1277	0	n/a	n/a	n/a	n/a	n/a	n/a	n/a
3362654	RECOG_CONF	n/a	LTP196	ltpFR	15	2	n/a	SHED	1277	n/a	2	n/a	n/a	n/a	n/a	n/a	n/a
3364275	RECOG_TARGET	n/a	LTP196	ltpFR	15	2	1	SHOELACE	1289	1	5	0	n/a	n/a	n/a	n/a	n/a
3365150	RECOG_RESP	n/a	LTP196	ltpFR	15	2	1	SHOELACE	1289	1	n/a	0	n/a	n/a	n/a	n/a	n/a
3365729	RECOG_CONF	n/a	LTP196	ltpFR	15	2	1	SHOELACE	1289	n/a	5	0	n/a	n/a	n/a	n/a	n/a
3367321	RECOG_TARGET	n/a	LTP196	ltpFR	15	2	1	UTENSIL	1542	1	3	0	n/a	n/a	n/a	n/a	n/a
3368269	RECOG_RESP	n/a	LTP196	ltpFR	15	2	1	UTENSIL	1542	1	n/a	0	n/a	n/a	n/a	n/a	n/a
3368997	RECOG_CONF	n/a	LTP196	ltpFR	15	2	1	UTENSIL	1542	n/a	3	0	n/a	n/a	n/a	n/a	n/a
3370283	RECOG_TARGET	n/a	LTP196	ltpFR	15	2	-1	ALLIGATOR	16	1	4	-1	n/a	n/a	n/a	n/a	n/a
3371122	RECOG_RESP	n/a	LTP196	ltpFR	15	2	-1	ALLIGATOR	16	1	n/a	-1	n/a	n/a	n/a	n/a	n/a
3371696	RECOG_CONF	n/a	LTP196	ltpFR	15	2	-1	ALLIGATOR	16	n/a	4	-1	n/a	n/a	n/a	n/a	n/a
3372979	RECOG_LURE	n/a	LTP196	ltpFR	15	2	n/a	CHAMBER	277	0	3	n/a	n/a	n/a	n/a	n/a	n/a
3374125	RECOG_RESP	n/a	LTP196	ltpFR	15	2	n/a	CHAMBER	277	0	n/a	n/a	n/a	n/a	n/a	n/a	n/a
3374629	RECOG_CONF	n/a	LTP196	ltpFR	15	2	n/a	CHAMBER	277	n/a	3	n/a	n/a	n/a	n/a	n/a	n/a
3375974	RECOG_TARGET	n/a	LTP196	ltpFR	15	2	1	PERCH	1048	1	5	0	n/a	n/a	n/a	n/a	n/a
3376978	RECOG_RESP	n/a	LTP196	ltpFR	15	2	1	PERCH	1048	1	n/a	0	n/a	n/a	n/a	n/a	n/a
3377782	RECOG_CONF	n/a	LTP196	ltpFR	15	2	1	PERCH	1048	n/a	5	0	n/a	n/a	n/a	n/a	n/a
3379487	RECOG_TARGET	n/a	LTP196	ltpFR	15	2	0	SKETCH	1315	1	5	0	n/a	n/a	n/a	n/a	n/a
3380278	RECOG_RESP	n/a	LTP196	ltpFR	15	2	0	SKETCH	1315	1	n/a	0	n/a	n/a	n/a	n/a	n/a
3381144	RECOG_CONF	n/a	LTP196	ltpFR	15	2	0	SKETCH	1315	n/a	5	0	n/a	n/a	n/a	n/a	n/a
3382880	RECOG_LURE	n/a	LTP196	ltpFR	15	2	n/a	GORILLA	650	0	2	n/a	n/a	n/a	n/a	n/a	n/a
3383781	RECOG_RESP	n/a	LTP196	ltpFR	15	2	n/a	GORILLA	650	0	n/a	n/a	n/a	n/a	n/a	n/a	n/a
3384537	RECOG_CONF	n/a	LTP196	ltpFR	15	2	n/a	GORILLA	650	n/a	2	n/a	n/a	n/a	n/a	n/a	n/a
3385926	RECOG_TARGET	n/a	LTP196	ltpFR	15	2	1	VITAMIN	1574	1	5	0	n/a	n/a	n/a	n/a	n/a
3386682	RECOG_RESP	n/a	LTP196	ltpFR	15	2	1	VITAMIN	1574	1	n/a	0	n/a	n/a	n/a	n/a	n/a
3387235	RECOG_CONF	n/a	LTP196	ltpFR	15	2	1	VITAMIN	1574	n/a	5	0	n/a	n/a	n/a	n/a	n/a
3388871	RECOG_LURE	n/a	LTP196	ltpFR	15	2	n/a	WAGON	1578	0	3	n/a	n/a	n/a	n/a	n/a	n/a
3390103	RECOG_RESP	n/a	LTP196	ltpFR	15	2	n/a	WAGON	1578	0	n/a	n/a	n/a	n/a	n/a	n/a	n/a
3390824	RECOG_CONF	n/a	LTP196	ltpFR	15	2	n/a	WAGON	1578	n/a	3	n/a	n/a	n/a	n/a	n/a	n/a
3392266	RECOG_TARGET	n/a	LTP196	ltpFR	15	2	-1	DIVER	476	1	5	-1	n/a	n/a	n/a	n/a	n/a
3393006	RECOG_RESP	n/a	LTP196	ltpFR	15	2	-1	DIVER	476	1	n/a	-1	n/a	n/a	n/a	n/a	n/a
3393686	RECOG_CONF	n/a	LTP196	ltpFR	15	2	-1	DIVER	476	n/a	5	-1	n/a	n/a	n/a	n/a	n/a
3395179	RECOG_TARGET	n/a	LTP196	ltpFR	15	2	1	TWINE	1529	1	4	0	n/a	n/a	n/a	n/a	n/a
3396193	RECOG_RESP	n/a	LTP196	ltpFR	15	2	1	TWINE	1529	1	n/a	0	n/a	n/a	n/a	n/a	n/a
3396879	RECOG_CONF	n/a	LTP196	ltpFR	15	2	1	TWINE	1529	n/a	4	0	n/a	n/a	n/a	n/a	n/a
3400282	REC_START	n/a	LTP196	ltpFR	15	3	n/a	n/a	n/a	n/a	n/a	n/a	n/a	n/a	n/a	n/a	n/a
3400322	RECOG_TARGET	n/a	LTP196	ltpFR	15	3	0	ARCHITECT	36	1	5	1	n/a	n/a	n/a	n/a	n/a
3401114	RECOG_RESP	n/a	LTP196	ltpFR	15	3	0	ARCHITECT	36	1	n/a	1	n/a	n/a	n/a	n/a	n/a
3401753	RECOG_CONF	n/a	LTP196	ltpFR	15	3	0	ARCHITECT	36	n/a	5	1	n/a	n/a	n/a	n/a	n/a
3402984	RECOG_TARGET	n/a	LTP196	ltpFR	15	3	1	VETERAN	1561	1	3	1	n/a	n/a	n/a	n/a	n/a
3403884	RECOG_RESP	n/a	LTP196	ltpFR	15	3	1	VETERAN	1561	1	n/a	1	n/a	n/a	n/a	n/a	n/a
3404537	RECOG_CONF	n/a	LTP196	ltpFR	15	3	1	VETERAN	1561	n/a	3	1	n/a	n/a	n/a	n/a	n/a
3405830	RECOG_TARGET	n/a	LTP196	ltpFR	15	3	0	SUBWAY	1400	1	2	1	n/a	n/a	n/a	n/a	n/a
3406768	RECOG_RESP	n/a	LTP196	ltpFR	15	3	0	SUBWAY	1400	1	n/a	1	n/a	n/a	n/a	n/a	n/a
3407401	RECOG_CONF	n/a	LTP196	ltpFR	15	3	0	SUBWAY	1400	n/a	2	1	n/a	n/a	n/a	n/a	n/a
3408842	RECOG_LURE	n/a	LTP196	ltpFR	15	3	n/a	CAPITAL	238	0	2	n/a	n/a	n/a	n/a	n/a	n/a
3410605	RECOG_RESP	n/a	LTP196	ltpFR	15	3	n/a	CAPITAL	238	0	n/a	n/a	n/a	n/a	n/a	n/a	n/a
3411428	RECOG_CONF	n/a	LTP196	ltpFR	15	3	n/a	CAPITAL	238	n/a	2	n/a	n/a	n/a	n/a	n/a	n/a
3412985	RECOG_TARGET	n/a	LTP196	ltpFR	15	3	0	COURT	391	1	3	1	n/a	n/a	n/a	n/a	n/a
3413861	RECOG_RESP	n/a	LTP196	ltpFR	15	3	0	COURT	391	1	n/a	1	n/a	n/a	n/a	n/a	n/a
3414624	RECOG_CONF	n/a	LTP196	ltpFR	15	3	0	COURT	391	n/a	3	1	n/a	n/a	n/a	n/a	n/a
3416231	RECOG_TARGET	n/a	LTP196	ltpFR	15	3	1	ENGINEER	536	1	5	1	n/a	n/a	n/a	n/a	n/a
3417022	RECOG_RESP	n/a	LTP196	ltpFR	15	3	1	ENGINEER	536	1	n/a	1	n/a	n/a	n/a	n/a	n/a
3417612	RECOG_CONF	n/a	LTP196	ltpFR	15	3	1	ENGINEER	536	n/a	5	1	n/a	n/a	n/a	n/a	n/a
3419176	RECOG_TARGET	n/a	LTP196	ltpFR	15	3	1	VAN	1548	1	5	0	n/a	n/a	n/a	n/a	n/a
3419928	RECOG_RESP	n/a	LTP196	ltpFR	15	3	1	VAN	1548	1	n/a	0	n/a	n/a	n/a	n/a	n/a
3420651	RECOG_CONF	n/a	LTP196	ltpFR	15	3	1	VAN	1548	n/a	5	0	n/a	n/a	n/a	n/a	n/a
3422122	RECOG_TARGET	n/a	LTP196	ltpFR	15	3	-1	DICTATOR	462	1	4	-1	n/a	n/a	n/a	n/a	n/a
3425154	RECOG_RESP	n/a	LTP196	ltpFR	15	3	-1	DICTATOR	462	1	n/a	-1	n/a	n/a	n/a	n/a	n/a
3425929	RECOG_CONF	n/a	LTP196	ltpFR	15	3	-1	DICTATOR	462	n/a	4	-1	n/a	n/a	n/a	n/a	n/a
3427897	RECOG_LURE	n/a	LTP196	ltpFR	15	3	n/a	DISH	474	1	1	n/a	n/a	n/a	n/a	n/a	n/a
3429699	RECOG_RESP	n/a	LTP196	ltpFR	15	3	n/a	DISH	474	1	n/a	n/a	n/a	n/a	n/a	n/a	n/a
3430390	RECOG_CONF	n/a	LTP196	ltpFR	15	3	n/a	DISH	474	n/a	1	n/a	n/a	n/a	n/a	n/a	n/a
3432024	RECOG_TARGET	n/a	LTP196	ltpFR	15	3	-1	DOORBELL	487	0	3	-1	n/a	n/a	n/a	n/a	n/a
3432968	RECOG_RESP	n/a	LTP196	ltpFR	15	3	-1	DOORBELL	487	0	n/a	-1	n/a	n/a	n/a	n/a	n/a
3433618	RECOG_CONF	n/a	LTP196	ltpFR	15	3	-1	DOORBELL	487	n/a	3	-1	n/a	n/a	n/a	n/a	n/a
3435202	RECOG_TARGET	n/a	LTP196	ltpFR	15	3	0	SHRUB	1299	0	2	1	n/a	n/a	n/a	n/a	n/a
3436319	RECOG_RESP	n/a	LTP196	ltpFR	15	3	0	SHRUB	1299	0	n/a	1	n/a	n/a	n/a	n/a	n/a
3436920	RECOG_CONF	n/a	LTP196	ltpFR	15	3	0	SHRUB	1299	n/a	2	1	n/a	n/a	n/a	n/a	n/a
3438498	RECOG_TARGET	n/a	LTP196	ltpFR	15	3	0	HOOD	714	1	5	0	n/a	n/a	n/a	n/a	n/a
3439351	RECOG_RESP	n/a	LTP196	ltpFR	15	3	0	HOOD	714	1	n/a	0	n/a	n/a	n/a	n/a	n/a
3439992	RECOG_CONF	n/a	LTP196	ltpFR	15	3	0	HOOD	714	n/a	5	0	n/a	n/a	n/a	n/a	n/a
3441527	RECOG_TARGET	n/a	LTP196	ltpFR	15	3	0	MUFFIN	929	1	5	0	n/a	n/a	n/a	n/a	n/a
3442371	RECOG_RESP	n/a	LTP196	ltpFR	15	3	0	MUFFIN	929	1	n/a	0	n/a	n/a	n/a	n/a	n/a
3442960	RECOG_CONF	n/a	LTP196	ltpFR	15	3	0	MUFFIN	929	n/a	5	0	n/a	n/a	n/a	n/a	n/a
3444473	RECOG_TARGET	n/a	LTP196	ltpFR	15	3	0	SALAD	1224	1	5	0	n/a	n/a	n/a	n/a	n/a
3445154	RECOG_RESP	n/a	LTP196	ltpFR	15	3	0	SALAD	1224	1	n/a	0	n/a	n/a	n/a	n/a	n/a
3445684	RECOG_CONF	n/a	LTP196	ltpFR	15	3	0	SALAD	1224	n/a	5	0	n/a	n/a	n/a	n/a	n/a
3447268	RECOG_TARGET	n/a	LTP196	ltpFR	15	3	1	TOOTHPASTE	1483	1	5	0	n/a	n/a	n/a	n/a	n/a
3448043	RECOG_RESP	n/a	LTP196	ltpFR	15	3	1	TOOTHPASTE	1483	1	n/a	0	n/a	n/a	n/a	n/a	n/a
3448487	RECOG_CONF	n/a	LTP196	ltpFR	15	3	1	TOOTHPASTE	1483	n/a	5	0	n/a	n/a	n/a	n/a	n/a
3450013	RECOG_TARGET	n/a	LTP196	ltpFR	15	3	1	MARGARINE	868	1	5	0	n/a	n/a	n/a	n/a	n/a
3451155	RECOG_RESP	n/a	LTP196	ltpFR	15	3	1	MARGARINE	868	1	n/a	0	n/a	n/a	n/a	n/a	n/a
3451646	RECOG_CONF	n/a	LTP196	ltpFR	15	3	1	MARGARINE	868	n/a	5	0	n/a	n/a	n/a	n/a	n/a
3453275	RECOG_LURE	n/a	LTP196	ltpFR	15	3	n/a	NOVEL	960	0	4	n/a	n/a	n/a	n/a	n/a	n/a
3454177	RECOG_RESP	n/a	LTP196	ltpFR	15	3	n/a	NOVEL	960	0	n/a	n/a	n/a	n/a	n/a	n/a	n/a
3454833	RECOG_CONF	n/a	LTP196	ltpFR	15	3	n/a	NOVEL	960	n/a	4	n/a	n/a	n/a	n/a	n/a	n/a
3456271	RECOG_TARGET	n/a	LTP196	ltpFR	15	3	0	TURTLE	1522	1	4	0	n/a	n/a	n/a	n/a	n/a
3460146	RECOG_RESP	n/a	LTP196	ltpFR	15	3	0	TURTLE	1522	1	n/a	0	n/a	n/a	n/a	n/a	n/a
3460879	RECOG_CONF	n/a	LTP196	ltpFR	15	3	0	TURTLE	1522	n/a	4	0	n/a	n/a	n/a	n/a	n/a
3462611	RECOG_TARGET	n/a	LTP196	ltpFR	15	3	-1	SPY	1360	1	4	-1	n/a	n/a	n/a	n/a	n/a
3463446	RECOG_RESP	n/a	LTP196	ltpFR	15	3	-1	SPY	1360	1	n/a	-1	n/a	n/a	n/a	n/a	n/a
3464062	RECOG_CONF	n/a	LTP196	ltpFR	15	3	-1	SPY	1360	n/a	4	-1	n/a	n/a	n/a	n/a	n/a
3465707	RECOG_TARGET	n/a	LTP196	ltpFR	15	3	0	CAFE	216	1	4	1	n/a	n/a	n/a	n/a	n/a
3466524	RECOG_RESP	n/a	LTP196	ltpFR	15	3	0	CAFE	216	1	n/a	1	n/a	n/a	n/a	n/a	n/a
3467115	RECOG_CONF	n/a	LTP196	ltpFR	15	3	0	CAFE	216	n/a	4	1	n/a	n/a	n/a	n/a	n/a
3471426	REC_START	n/a	LTP196	ltpFR	15	4	n/a	n/a	n/a	n/a	n/a	n/a	n/a	n/a	n/a	n/a	n/a
3471466	RECOG_TARGET	n/a	LTP196	ltpFR	15	4	0	DRESSER	496	1	4	1	n/a	n/a	n/a	n/a	n/a
3472246	RECOG_RESP	n/a	LTP196	ltpFR	15	4	0	DRESSER	496	1	n/a	1	n/a	n/a	n/a	n/a	n/a
3473059	RECOG_CONF	n/a	LTP196	ltpFR	15	4	0	DRESSER	496	n/a	4	1	n/a	n/a	n/a	n/a	n/a
3474793	RECOG_TARGET	n/a	LTP196	ltpFR	15	4	-1	LUGGAGE	847	1	4	-1	n/a	n/a	n/a	n/a	n/a
3475496	RECOG_RESP	n/a	LTP196	ltpFR	15	4	-1	LUGGAGE	847	1	n/a	-1	n/a	n/a	n/a	n/a	n/a
3476250	RECOG_CONF	n/a	LTP196	ltpFR	15	4	-1	LUGGAGE	847	n/a	4	-1	n/a	n/a	n/a	n/a	n/a
3477839	RECOG_TARGET	n/a	LTP196	ltpFR	15	4	-1	EUROPE	541	1	5	-1	n/a	n/a	n/a	n/a	n/a
3478923	RECOG_RESP	n/a	LTP196	ltpFR	15	4	-1	EUROPE	541	1	n/a	-1	n/a	n/a	n/a	n/a	n/a
3479490	RECOG_CONF	n/a	LTP196	ltpFR	15	4	-1	EUROPE	541	n/a	5	-1	n/a	n/a	n/a	n/a	n/a
3481283	RECOG_TARGET	n/a	LTP196	ltpFR	15	4	0	RAKE	1164	1	3	1	n/a	n/a	n/a	n/a	n/a
3482640	RECOG_RESP	n/a	LTP196	ltpFR	15	4	0	RAKE	1164	1	n/a	1	n/a	n/a	n/a	n/a	n/a
3483510	RECOG_CONF	n/a	LTP196	ltpFR	15	4	0	RAKE	1164	n/a	3	1	n/a	n/a	n/a	n/a	n/a
3485094	RECOG_LURE	n/a	LTP196	ltpFR	15	4	n/a	DUST	508	1	1	n/a	n/a	n/a	n/a	n/a	n/a
3485955	RECOG_RESP	n/a	LTP196	ltpFR	15	4	n/a	DUST	508	1	n/a	n/a	n/a	n/a	n/a	n/a	n/a
3486695	RECOG_CONF	n/a	LTP196	ltpFR	15	4	n/a	DUST	508	n/a	1	n/a	n/a	n/a	n/a	n/a	n/a
3488457	RECOG_TARGET	n/a	LTP196	ltpFR	15	4	1	CHAPEL	280	1	4	0	n/a	n/a	n/a	n/a	n/a
3489474	RECOG_RESP	n/a	LTP196	ltpFR	15	4	1	CHAPEL	280	1	n/a	0	n/a	n/a	n/a	n/a	n/a
3490228	RECOG_CONF	n/a	LTP196	ltpFR	15	4	1	CHAPEL	280	n/a	4	0	n/a	n/a	n/a	n/a	n/a
3491868	RECOG_LURE	n/a	LTP196	ltpFR	15	4	n/a	OYSTER	995	0	2	n/a	n/a	n/a	n/a	n/a	n/a
3493353	RECOG_RESP	n/a	LTP196	ltpFR	15	4	n/a	OYSTER	995	0	n/a	n/a	n/a	n/a	n/a	n/a	n/a
3494071	RECOG_CONF	n/a	LTP196	ltpFR	15	4	n/a	OYSTER	995	n/a	2	n/a	n/a	n/a	n/a	n/a	n/a
3495679	RECOG_LURE	n/a	LTP196	ltpFR	15	4	n/a	ELBOW	520	0	4	n/a	n/a	n/a	n/a	n/a	n/a
3496562	RECOG_RESP	n/a	LTP196	ltpFR	15	4	n/a	ELBOW	520	0	n/a	n/a	n/a	n/a	n/a	n/a	n/a
3497173	RECOG_CONF	n/a	LTP196	ltpFR	15	4	n/a	ELBOW	520	n/a	4	n/a	n/a	n/a	n/a	n/a	n/a
3498940	RECOG_LURE	n/a	LTP196	ltpFR	15	4	n/a	DENIM	446	0	5	n/a	n/a	n/a	n/a	n/a	n/a
3499830	RECOG_RESP	n/a	LTP196	ltpFR	15	4	n/a	DENIM	446	0	n/a	n/a	n/a	n/a	n/a	n/a	n/a
3500694	RECOG_CONF	n/a	LTP196	ltpFR	15	4	n/a	DENIM	446	n/a	5	n/a	n/a	n/a	n/a	n/a	n/a
3502420	RECOG_TARGET	n/a	LTP196	ltpFR	15	4	1	DUSTPAN	509	1	3	0	n/a	n/a	n/a	n/a	n/a
3503185	RECOG_RESP	n/a	LTP196	ltpFR	15	4	1	DUSTPAN	509	1	n/a	0	n/a	n/a	n/a	n/a	n/a
3503899	RECOG_CONF	n/a	LTP196	ltpFR	15	4	1	DUSTPAN	509	n/a	3	0	n/a	n/a	n/a	n/a	n/a
3505597	RECOG_LURE	n/a	LTP196	ltpFR	15	4	n/a	DUNGEON	507	0	2	n/a	n/a	n/a	n/a	n/a	n/a
3506810	RECOG_RESP	n/a	LTP196	ltpFR	15	4	n/a	DUNGEON	507	0	n/a	n/a	n/a	n/a	n/a	n/a	n/a
3507698	RECOG_CONF	n/a	LTP196	ltpFR	15	4	n/a	DUNGEON	507	n/a	2	n/a	n/a	n/a	n/a	n/a	n/a
3509409	RECOG_LURE	n/a	LTP196	ltpFR	15	4	n/a	OREGANO	983	0	4	n/a	n/a	n/a	n/a	n/a	n/a
3510623	RECOG_RESP	n/a	LTP196	ltpFR	15	4	n/a	OREGANO	983	0	n/a	n/a	n/a	n/a	n/a	n/a	n/a
3511403	RECOG_CONF	n/a	LTP196	ltpFR	15	4	n/a	OREGANO	983	n/a	4	n/a	n/a	n/a	n/a	n/a	n/a
3513019	RECOG_TARGET	n/a	LTP196	ltpFR	15	4	-1	PARCEL	1012	0	3	-1	n/a	n/a	n/a	n/a	n/a
3515247	RECOG_RESP	n/a	LTP196	ltpFR	15	4	-1	PARCEL	1012	0	n/a	-1	n/a	n/a	n/a	n/a	n/a
3516059	RECOG_CONF	n/a	LTP196	ltpFR	15	4	-1	PARCEL	1012	n/a	3	-1	n/a	n/a	n/a	n/a	n/a
3517762	RECOG_TARGET	n/a	LTP196	ltpFR	15	4	0	BOTTLE	153	1	1	0	n/a	n/a	n/a	n/a	n/a
3518534	RECOG_RESP	n/a	LTP196	ltpFR	15	4	0	BOTTLE	153	1	n/a	0	n/a	n/a	n/a	n/a	n/a
3519222	RECOG_CONF	n/a	LTP196	ltpFR	15	4	0	BOTTLE	153	n/a	1	0	n/a	n/a	n/a	n/a	n/a
3520824	RECOG_TARGET	n/a	LTP196	ltpFR	15	4	1	ASIA	46	1	5	1	n/a	n/a	n/a	n/a	n/a
3521584	RECOG_RESP	n/a	LTP196	ltpFR	15	4	1	ASIA	46	1	n/a	1	n/a	n/a	n/a	n/a	n/a
3522215	RECOG_CONF	n/a	LTP196	ltpFR	15	4	1	ASIA	46	n/a	5	1	n/a	n/a	n/a	n/a	n/a
3524020	RECOG_LURE	n/a	LTP196	ltpFR	15	4	n/a	OLIVE	975	0	3	n/a	n/a	n/a	n/a	n/a	n/a
3525258	RECOG_RESP	n/a	LTP196	ltpFR	15	4	n/a	OLIVE	975	0	n/a	n/a	n/a	n/a	n/a	n/a	n/a
3526047	RECOG_CONF	n/a	LTP196	ltpFR	15	4	n/a	OLIVE	975	n/a	3	n/a	n/a	n/a	n/a	n/a	n/a
3527564	RECOG_TARGET	n/a	LTP196	ltpFR	15	4	0	POOL	1103	1	5	0	n/a	n/a	n/a	n/a	n/a
3528317	RECOG_RESP	n/a	LTP196	ltpFR	15	4	0	POOL	1103	1	n/a	0	n/a	n/a	n/a	n/a	n/a
3528820	RECOG_CONF	n/a	LTP196	ltpFR	15	4	0	POOL	1103	n/a	5	0	n/a	n/a	n/a	n/a	n/a
3530511	RECOG_TARGET	n/a	LTP196	ltpFR	15	4	-1	CHOCOLATE	306	1	5	-1	n/a	n/a	n/a	n/a	n/a
3531235	RECOG_RESP	n/a	LTP196	ltpFR	15	4	-1	CHOCOLATE	306	1	n/a	-1	n/a	n/a	n/a	n/a	n/a
3531953	RECOG_CONF	n/a	LTP196	ltpFR	15	4	-1	CHOCOLATE	306	n/a	5	-1	n/a	n/a	n/a	n/a	n/a
3533689	RECOG_TARGET	n/a	LTP196	ltpFR	15	4	1	SKIRT	1319	1	4	0	n/a	n/a	n/a	n/a	n/a
3534402	RECOG_RESP	n/a	LTP196	ltpFR	15	4	1	SKIRT	1319	1	n/a	0	n/a	n/a	n/a	n/a	n/a
3535042	RECOG_CONF	n/a	LTP196	ltpFR	15	4	1	SKIRT	1319	n/a	4	0	n/a	n/a	n/a	n/a	n/a
3536667	RECOG_LURE	n/a	LTP196	ltpFR	15	4	n/a	PICNIC	1060	1	1	n/a	n/a	n/a	n/a	n/a	n/a
3537475	RECOG_RESP	n/a	LTP196	ltpFR	15	4	n/a	PICNIC	1060	1	n/a	n/a	n/a	n/a	n/a	n/a	n/a
3538059	RECOG_CONF	n/a	LTP196	ltpFR	15	4	n/a	PICNIC	1060	n/a	1	n/a	n/a	n/a	n/a	n/a	n/a
3541219	REC_START	n/a	LTP196	ltpFR	15	5	n/a	n/a	n/a	n/a	n/a	n/a	n/a	n/a	n/a	n/a	n/a
3541261	RECOG_LURE	n/a	LTP196	ltpFR	15	5	n/a	VAGRANT	1544	0	4	n/a	n/a	n/a	n/a	n/a	n/a
3542901	RECOG_RESP	n/a	LTP196	ltpFR	15	5	n/a	VAGRANT	1544	0	n/a	n/a	n/a	n/a	n/a	n/a	n/a
3543666	RECOG_CONF	n/a	LTP196	ltpFR	15	5	n/a	VAGRANT	1544	n/a	4	n/a	n/a	n/a	n/a	n/a	n/a
3545439	RECOG_TARGET	n/a	LTP196	ltpFR	15	5	-1	MESSAGE	888	1	3	-1	n/a	n/a	n/a	n/a	n/a
3548640	RECOG_RESP	n/a	LTP196	ltpFR	15	5	-1	MESSAGE	888	1	n/a	-1	n/a	n/a	n/a	n/a	n/a
3549432	RECOG_CONF	n/a	LTP196	ltpFR	15	5	-1	MESSAGE	888	n/a	3	-1	n/a	n/a	n/a	n/a	n/a
3551063	RECOG_TARGET	n/a	LTP196	ltpFR	15	5	1	SWAN	1417	0	3	1	n/a	n/a	n/a	n/a	n/a
3552005	RECOG_RESP	n/a	LTP196	ltpFR	15	5	1	SWAN	1417	0	n/a	1	n/a	n/a	n/a	n/a	n/a
3552668	RECOG_CONF	n/a	LTP196	ltpFR	15	5	1	SWAN	1417	n/a	3	1	n/a	n/a	n/a	n/a	n/a
3554241	RECOG_TARGET	n/a	LTP196	ltpFR	15	5	0	SNEAKER	1334	1	4	0	n/a	n/a	n/a	n/a	n/a
3555204	RECOG_RESP	n/a	LTP196	ltpFR	15	5	0	SNEAKER	1334	1	n/a	0	n/a	n/a	n/a	n/a	n/a
3556130	RECOG_CONF	n/a	LTP196	ltpFR	15	5	0	SNEAKER	1334	n/a	4	0	n/a	n/a	n/a	n/a	n/a
3557603	RECOG_TARGET	n/a	LTP196	ltpFR	15	5	-1	SPONGE	1355	0	3	-1	n/a	n/a	n/a	n/a	n/a
3560714	RECOG_RESP	n/a	LTP196	ltpFR	15	5	-1	SPONGE	1355	0	n/a	-1	n/a	n/a	n/a	n/a	n/a
3561548	RECOG_CONF	n/a	LTP196	ltpFR	15	5	-1	SPONGE	1355	n/a	3	-1	n/a	n/a	n/a	n/a	n/a
3564210	RECOG_TARGET	n/a	LTP196	ltpFR	15	5	-1	STAPLER	1372	1	4	-1	n/a	n/a	n/a	n/a	n/a
3565189	RECOG_RESP	n/a	LTP196	ltpFR	15	5	-1	STAPLER	1372	1	n/a	-1	n/a	n/a	n/a	n/a	n/a
3565988	RECOG_CONF	n/a	LTP196	ltpFR	15	5	-1	STAPLER	1372	n/a	4	-1	n/a	n/a	n/a	n/a	n/a
3567439	RECOG_TARGET	n/a	LTP196	ltpFR	15	5	1	TOURIST	1488	1	4	0	n/a	n/a	n/a	n/a	n/a
3568275	RECOG_RESP	n/a	LTP196	ltpFR	15	5	1	TOURIST	1488	1	n/a	0	n/a	n/a	n/a	n/a	n/a
3569180	RECOG_CONF	n/a	LTP196	ltpFR	15	5	1	TOURIST	1488	n/a	4	0	n/a	n/a	n/a	n/a	n/a
3571350	RECOG_LURE	n/a	LTP196	ltpFR	15	5	n/a	WITCH	1617	0	5	n/a	n/a	n/a	n/a	n/a	n/a
3572288	RECOG_RESP	n/a	LTP196	ltpFR	15	5	n/a	WITCH	1617	0	n/a	n/a	n/a	n/a	n/a	n/a	n/a
3573221	RECOG_CONF	n/a	LTP196	ltpFR	15	5	n/a	WITCH	1617	n/a	5	n/a	n/a	n/a	n/a	n/a	n/a
3574528	RECOG_LURE	n/a	LTP196	ltpFR	15	5	n/a	DEPUTY	450	1	4	n/a	n/a	n/a	n/a	n/a	n/a
3575616	RECOG_RESP	n/a	LTP196	ltpFR	15	5	n/a	DEPUTY	450	1	n/a	n/a	n/a	n/a	n/a	n/a	n/a
3576623	RECOG_CONF	n/a	LTP196	ltpFR	15	5	n/a	DEPUTY	450	n/a	4	n/a	n/a	n/a	n/a	n/a	n/a
3578255	RECOG_TARGET	n/a	LTP196	ltpFR	15	5	1	BAIT	70	1	2	0	n/a	n/a	n/a	n/a	n/a
3580456	RECOG_RESP	n/a	LTP196	ltpFR	15	5	1	BAIT	70	1	n/a	0	n/a	n/a	n/a	n/a	n/a
3581274	RECOG_CONF	n/a	LTP196	ltpFR	15	5	1	BAIT	70	n/a	2	0	n/a	n/a	n/a	n/a	n/a
3583098	RECOG_TARGET	n/a	LTP196	ltpFR	15	5	1	ROBIN	1199	1	3	1	n/a	n/a	n/a	n/a	n/a
3583818	RECOG_RESP	n/a	LTP196	ltpFR	15	5	1	ROBIN	1199	1	n/a	1	n/a	n/a	n/a	n/a	n/a
3584515	RECOG_CONF	n/a	LTP196	ltpFR	15	5	1	ROBIN	1199	n/a	3	1	n/a	n/a	n/a	n/a	n/a
3585960	RECOG_TARGET	n/a	LTP196	ltpFR	15	5	1	DOG	480	1	4	1	n/a	n/a	n/a	n/a	n/a
3586683	RECOG_RESP	n/a	LTP196	ltpFR	15	5	1	DOG	480	1	n/a	1	n/a	n/a	n/a	n/a	n/a
3587359	RECOG_CONF	n/a	LTP196	ltpFR	15	5	1	DOG	480	n/a	4	1	n/a	n/a	n/a	n/a	n/a
3588839	RECOG_TARGET	n/a	LTP196	ltpFR	15	5	0	HOOP	716	1	5	1	n/a	n/a	n/a	n/a	n/a
3589515	RECOG_RESP	n/a	LTP196	ltpFR	15	5	0	HOOP	716	1	n/a	1	n/a	n/a	n/a	n/a	n/a
3590452	RECOG_CONF	n/a	LTP196	ltpFR	15	5	0	HOOP	716	n/a	5	1	n/a	n/a	n/a	n/a	n/a
3592234	RECOG_TARGET	n/a	LTP196	ltpFR	15	5	-1	BATH	98	1	5	-1	n/a	n/a	n/a	n/a	n/a
3593031	RECOG_RESP	n/a	LTP196	ltpFR	15	5	-1	BATH	98	1	n/a	-1	n/a	n/a	n/a	n/a	n/a
3593734	RECOG_CONF	n/a	LTP196	ltpFR	15	5	-1	BATH	98	n/a	5	-1	n/a	n/a	n/a	n/a	n/a
3595180	RECOG_TARGET	n/a	LTP196	ltpFR	15	5	1	FIG	563	1	5	0	n/a	n/a	n/a	n/a	n/a
3596013	RECOG_RESP	n/a	LTP196	ltpFR	15	5	1	FIG	563	1	n/a	0	n/a	n/a	n/a	n/a	n/a
3596778	RECOG_CONF	n/a	LTP196	ltpFR	15	5	1	FIG	563	n/a	5	0	n/a	n/a	n/a	n/a	n/a
3598443	RECOG_TARGET	n/a	LTP196	ltpFR	15	5	1	PEN	1041	1	5	0	n/a	n/a	n/a	n/a	n/a
3599129	RECOG_RESP	n/a	LTP196	ltpFR	15	5	1	PEN	1041	1	n/a	0	n/a	n/a	n/a	n/a	n/a
3599871	RECOG_CONF	n/a	LTP196	ltpFR	15	5	1	PEN	1041	n/a	5	0	n/a	n/a	n/a	n/a	n/a
3601438	RECOG_TARGET	n/a	LTP196	ltpFR	15	5	0	RACCOON	1153	1	5	0	n/a	n/a	n/a	n/a	n/a
3602191	RECOG_RESP	n/a	LTP196	ltpFR	15	5	0	RACCOON	1153	1	n/a	0	n/a	n/a	n/a	n/a	n/a
3603182	RECOG_CONF	n/a	LTP196	ltpFR	15	5	0	RACCOON	1153	n/a	5	0	n/a	n/a	n/a	n/a	n/a
3604849	RECOG_TARGET	n/a	LTP196	ltpFR	15	5	0	PELICAN	1039	1	2	3	n/a	n/a	n/a	n/a	n/a
3606007	RECOG_RESP	n/a	LTP196	ltpFR	15	5	0	PELICAN	1039	1	n/a	3	n/a	n/a	n/a	n/a	n/a
3606717	RECOG_CONF	n/a	LTP196	ltpFR	15	5	0	PELICAN	1039	n/a	2	3	n/a	n/a	n/a	n/a	n/a
3608194	RECOG_TARGET	n/a	LTP196	ltpFR	15	5	0	SHORE	1291	1	1	1	n/a	n/a	n/a	n/a	n/a
3609529	RECOG_RESP	n/a	LTP196	ltpFR	15	5	0	SHORE	1291	1	n/a	1	n/a	n/a	n/a	n/a	n/a
3610047	RECOG_CONF	n/a	LTP196	ltpFR	15	5	0	SHORE	1291	n/a	1	1	n/a	n/a	n/a	n/a	n/a
3611589	RECOG_TARGET	n/a	LTP196	ltpFR	15	5	0	AIRCRAFT	11	0	3	1	n/a	n/a	n/a	n/a	n/a
3612879	RECOG_RESP	n/a	LTP196	ltpFR	15	5	0	AIRCRAFT	11	0	n/a	1	n/a	n/a	n/a	n/a	n/a
3613500	RECOG_CONF	n/a	LTP196	ltpFR	15	5	0	AIRCRAFT	11	n/a	3	1	n/a	n/a	n/a	n/a	n/a
3663645	REC_START	n/a	LTP196	ltpFR	15	6	n/a	n/a	n/a	n/a	n/a	n/a	n/a	n/a	n/a	n/a	n/a
3663678	RECOG_LURE	n/a	LTP196	ltpFR	15	6	n/a	FROG	608	1	4	n/a	n/a	n/a	n/a	n/a	n/a
3664737	RECOG_RESP	n/a	LTP196	ltpFR	15	6	n/a	FROG	608	1	n/a	n/a	n/a	n/a	n/a	n/a	n/a
3665486	RECOG_CONF	n/a	LTP196	ltpFR	15	6	n/a	FROG	608	n/a	4	n/a	n/a	n/a	n/a	n/a	n/a
3667089	RECOG_TARGET	n/a	LTP196	ltpFR	15	6	0	BRACELET	163	1	5	0	n/a	n/a	n/a	n/a	n/a
3667835	RECOG_RESP	n/a	LTP196	ltpFR	15	6	0	BRACELET	163	1	n/a	0	n/a	n/a	n/a	n/a	n/a
3668347	RECOG_CONF	n/a	LTP196	ltpFR	15	6	0	BRACELET	163	n/a	5	0	n/a	n/a	n/a	n/a	n/a
3670118	RECOG_TARGET	n/a	LTP196	ltpFR	15	6	0	HARE	688	1	5	0	n/a	n/a	n/a	n/a	n/a
3670796	RECOG_RESP	n/a	LTP196	ltpFR	15	6	0	HARE	688	1	n/a	0	n/a	n/a	n/a	n/a	n/a
3671422	RECOG_CONF	n/a	LTP196	ltpFR	15	6	0	HARE	688	n/a	5	0	n/a	n/a	n/a	n/a	n/a
3672947	RECOG_TARGET	n/a	LTP196	ltpFR	15	6	1	PIGEON	1065	1	3	1	n/a	n/a	n/a	n/a	n/a
3673913	RECOG_RESP	n/a	LTP196	ltpFR	15	6	1	PIGEON	1065	1	n/a	1	n/a	n/a	n/a	n/a	n/a
3674515	RECOG_CONF	n/a	LTP196	ltpFR	15	6	1	PIGEON	1065	n/a	3	1	n/a	n/a	n/a	n/a	n/a
3676159	RECOG_TARGET	n/a	LTP196	ltpFR	15	6	0	BASEMENT	94	1	4	1	n/a	n/a	n/a	n/a	n/a
3676801	RECOG_RESP	n/a	LTP196	ltpFR	15	6	0	BASEMENT	94	1	n/a	1	n/a	n/a	n/a	n/a	n/a
3677369	RECOG_CONF	n/a	LTP196	ltpFR	15	6	0	BASEMENT	94	n/a	4	1	n/a	n/a	n/a	n/a	n/a
3678955	RECOG_LURE	n/a	LTP196	ltpFR	15	6	n/a	MACHINE	852	1	4	n/a	n/a	n/a	n/a	n/a	n/a
3679988	RECOG_RESP	n/a	LTP196	ltpFR	15	6	n/a	MACHINE	852	1	n/a	n/a	n/a	n/a	n/a	n/a	n/a
3680551	RECOG_CONF	n/a	LTP196	ltpFR	15	6	n/a	MACHINE	852	n/a	4	n/a	n/a	n/a	n/a	n/a	n/a
3682067	RECOG_TARGET	n/a	LTP196	ltpFR	15	6	-1	WARDROBE	1587	1	5	-1	n/a	n/a	n/a	n/a	n/a
3682881	RECOG_RESP	n/a	LTP196	ltpFR	15	6	-1	WARDROBE	1587	1	n/a	-1	n/a	n/a	n/a	n/a	n/a
3683425	RECOG_CONF	n/a	LTP196	ltpFR	15	6	-1	WARDROBE	1587	n/a	5	-1	n/a	n/a	n/a	n/a	n/a
3684946	RECOG_TARGET	n/a	LTP196	ltpFR	15	6	0	BASKETBALL	96	1	5	1	n/a	n/a	n/a	n/a	n/a
3685701	RECOG_RESP	n/a	LTP196	ltpFR	15	6	0	BASKETBALL	96	1	n/a	1	n/a	n/a	n/a	n/a	n/a
3686149	RECOG_CONF	n/a	LTP196	ltpFR	15	6	0	BASKETBALL	96	n/a	5	1	n/a	n/a	n/a	n/a	n/a
3687742	RECOG_LURE	n/a	LTP196	ltpFR	15	6	n/a	ROCK	1201	1	1	n/a	n/a	n/a	n/a	n/a	n/a
3689626	RECOG_RESP	n/a	LTP196	ltpFR	15	6	n/a	ROCK	1201	1	n/a	n/a	n/a	n/a	n/a	n/a	n/a
3690150	RECOG_CONF	n/a	LTP196	ltpFR	15	6	n/a	ROCK	1201	n/a	1	n/a	n/a	n/a	n/a	n/a	n/a
3691869	RECOG_TARGET	n/a	LTP196	ltpFR	15	6	1	FEATHER	557	1	4	0	n/a	n/a	n/a	n/a	n/a
3692621	RECOG_RESP	n/a	LTP196	ltpFR	15	6	1	FEATHER	557	1	n/a	0	n/a	n/a	n/a	n/a	n/a
3693243	RECOG_CONF	n/a	LTP196	ltpFR	15	6	1	FEATHER	557	n/a	4	0	n/a	n/a	n/a	n/a	n/a
3694665	RECOG_TARGET	n/a	LTP196	ltpFR	15	6	-1	BUG	187	0	3	-1	n/a	n/a	n/a	n/a	n/a
3695509	RECOG_RESP	n/a	LTP196	ltpFR	15	6	-1	BUG	187	0	n/a	-1	n/a	n/a	n/a	n/a	n/a
3696015	RECOG_CONF	n/a	LTP196	ltpFR	15	6	-1	BUG	187	n/a	3	-1	n/a	n/a	n/a	n/a	n/a
3697544	RECOG_TARGET	n/a	LTP196	ltpFR	15	6	1	MOTORCYCLE	923	1	5	0	n/a	n/a	n/a	n/a	n/a
3698261	RECOG_RESP	n/a	LTP196	ltpFR	15	6	1	MOTORCYCLE	923	1	n/a	0	n/a	n/a	n/a	n/a	n/a
3698738	RECOG_CONF	n/a	LTP196	ltpFR	15	6	1	MOTORCYCLE	923	n/a	5	0	n/a	n/a	n/a	n/a	n/a
3700273	RECOG_TARGET	n/a	LTP196	ltpFR	15	6	1	TEA	1439	1	4	0	n/a	n/a	n/a	n/a	n/a
3701019	RECOG_RESP	n/a	LTP196	ltpFR	15	6	1	TEA	1439	1	n/a	0	n/a	n/a	n/a	n/a	n/a
3701564	RECOG_CONF	n/a	LTP196	ltpFR	15	6	1	TEA	1439	n/a	4	0	n/a	n/a	n/a	n/a	n/a
3702969	RECOG_TARGET	n/a	LTP196	ltpFR	15	6	-1	DASHBOARD	441	1	5	-1	n/a	n/a	n/a	n/a	n/a
3705293	RECOG_RESP	n/a	LTP196	ltpFR	15	6	-1	DASHBOARD	441	1	n/a	-1	n/a	n/a	n/a	n/a	n/a
3705814	RECOG_CONF	n/a	LTP196	ltpFR	15	6	-1	DASHBOARD	441	n/a	5	-1	n/a	n/a	n/a	n/a	n/a
3707430	RECOG_TARGET	n/a	LTP196	ltpFR	15	6	-1	FROST	609	1	4	-1	n/a	n/a	n/a	n/a	n/a
3708233	RECOG_RESP	n/a	LTP196	ltpFR	15	6	-1	FROST	609	1	n/a	-1	n/a	n/a	n/a	n/a	n/a
3708837	RECOG_CONF	n/a	LTP196	ltpFR	15	6	-1	FROST	609	n/a	4	-1	n/a	n/a	n/a	n/a	n/a
3710442	RECOG_LURE	n/a	LTP196	ltpFR	15	6	n/a	HANDCUFFS	685	0	3	n/a	n/a	n/a	n/a	n/a	n/a
3711313	RECOG_RESP	n/a	LTP196	ltpFR	15	6	n/a	HANDCUFFS	685	0	n/a	n/a	n/a	n/a	n/a	n/a	n/a
3711950	RECOG_CONF	n/a	LTP196	ltpFR	15	6	n/a	HANDCUFFS	685	n/a	3	n/a	n/a	n/a	n/a	n/a	n/a
3713521	RECOG_TARGET	n/a	LTP196	ltpFR	15	6	1	TANGERINE	1431	1	5	0	n/a	n/a	n/a	n/a	n/a
3714479	RECOG_RESP	n/a	LTP196	ltpFR	15	6	1	TANGERINE	1431	1	n/a	0	n/a	n/a	n/a	n/a	n/a
3715043	RECOG_CONF	n/a	LTP196	ltpFR	15	6	1	TANGERINE	1431	n/a	5	0	n/a	n/a	n/a	n/a	n/a
3716549	RECOG_LURE	n/a	LTP196	ltpFR	15	6	n/a	SKULL	1320	0	3	n/a	n/a	n/a	n/a	n/a	n/a
3718075	RECOG_RESP	n/a	LTP196	ltpFR	15	6	n/a	SKULL	1320	0	n/a	n/a	n/a	n/a	n/a	n/a	n/a
3718605	RECOG_CONF	n/a	LTP196	ltpFR	15	6	n/a	SKULL	1320	n/a	3	n/a	n/a	n/a	n/a	n/a	n/a
3720276	RECOG_TARGET	n/a	LTP196	ltpFR	15	6	1	SLIDE	1326	1	5	0	n/a	n/a	n/a	n/a	n/a
3721274	RECOG_RESP	n/a	LTP196	ltpFR	15	6	1	SLIDE	1326	1	n/a	0	n/a	n/a	n/a	n/a	n/a
3721790	RECOG_CONF	n/a	LTP196	ltpFR	15	6	1	SLIDE	1326	n/a	5	0	n/a	n/a	n/a	n/a	n/a
3723389	RECOG_TARGET	n/a	LTP196	ltpFR	15	6	1	MARKER	870	1	5	0	n/a	n/a	n/a	n/a	n/a
3724096	RECOG_RESP	n/a	LTP196	ltpFR	15	6	1	MARKER	870	1	n/a	0	n/a	n/a	n/a	n/a	n/a
3724571	RECOG_CONF	n/a	LTP196	ltpFR	15	6	1	MARKER	870	n/a	5	0	n/a	n/a	n/a	n/a	n/a
3727619	REC_START	n/a	LTP196	ltpFR	15	7	n/a	n/a	n/a	n/a	n/a	n/a	n/a	n/a	n/a	n/a	n/a
3727649	RECOG_TARGET	n/a	LTP196	ltpFR	15	7	0	PASTA	1021	0	2	0	n/a	n/a	n/a	n/a	n/a
3728464	RECOG_RESP	n/a	LTP196	ltpFR	15	7	0	PASTA	1021	0	n/a	0	n/a	n/a	n/a	n/a	n/a
3729022	RECOG_CONF	n/a	LTP196	ltpFR	15	7	0	PASTA	1021	n/a	2	0	n/a	n/a	n/a	n/a	n/a
3730429	RECOG_TARGET	n/a	LTP196	ltpFR	15	7	0	CAVE	263	1	4	1	n/a	n/a	n/a	n/a	n/a
