onset	duration	trial_type	sample	stim_file	subject	experiment	session	trial	task	item_name	item_num	recog_resp	recog_conf	resp	color_r	color_g	color_b	case	font
325.068	n/a	SESS_START	162534	n/a	LTP164	ltpFR	0	n/a	n/a	n/a	n/a	0	3	n/a	n/a	n/a	n/a	n/a	n/a
547.306	n/a	WORD	273653	wordpools/wasnorm_wordpool_less_exclusions.txt	LTP164	ltpFR	0	1	-1	TAVERN	1437	1	5	-1	1.0	1.0	1	upper	Verdana.ttf
551.378	n/a	WORD	275689	wordpools/wasnorm_wordpool_less_exclusions.txt	LTP164	ltpFR	0	1	-1	DRINK	498	1	5	-1	1.0	1.0	1	upper	Verdana.ttf
555.378	n/a	WORD	277689	wordpools/wasnorm_wordpool_less_exclusions.txt	LTP164	ltpFR	0	1	-1	MAP	865	1	n/a	-1	1.0	1.0	1	upper	Verdana.ttf
559.542	n/a	WORD	279771	wordpools/wasnorm_wordpool_less_exclusions.txt	LTP164	ltpFR	0	1	-1	CARPET	247	n/a	n/a	-1	1.0	1.0	1	upper	Verdana.ttf
563.542	n/a	WORD	281771	wordpools/wasnorm_wordpool_less_exclusions.txt	LTP164	ltpFR	0	1	-1	CHOCOLATE	306	n/a	n/a	-1	1.0	1.0	1	upper	Verdana.ttf
567.374	n/a	WORD	283687	wordpools/wasnorm_wordpool_less_exclusions.txt	LTP164	ltpFR	0	1	-1	MONK	910	n/a	n/a	-1	1.0	1.0	1	upper	Verdana.ttf
571.264	n/a	WORD	285632	wordpools/wasnorm_wordpool_less_exclusions.txt	LTP164	ltpFR	0	1	-1	MONASTERY	907	n/a	n/a	-1	1.0	1.0	1	upper	Verdana.ttf
575.288	n/a	WORD	287644	wordpools/wasnorm_wordpool_less_exclusions.txt	LTP164	ltpFR	0	1	-1	OAR	966	n/a	n/a	-1	1.0	1.0	1	upper	Verdana.ttf
579.338	n/a	WORD	289669	wordpools/wasnorm_wordpool_less_exclusions.txt	LTP164	ltpFR	0	1	-1	FRANCE	601	n/a	n/a	-1	1.0	1.0	1	upper	Verdana.ttf
583.394	n/a	WORD	291697	wordpools/wasnorm_wordpool_less_exclusions.txt	LTP164	ltpFR	0	1	-1	PUMPKIN	1142	n/a	n/a	-1	1.0	1.0	1	upper	Verdana.ttf
587.418	n/a	WORD	293709	wordpools/wasnorm_wordpool_less_exclusions.txt	LTP164	ltpFR	0	1	-1	CHART	282	n/a	n/a	-1	1.0	1.0	1	upper	Verdana.ttf
591.624	n/a	WORD	295812	wordpools/wasnorm_wordpool_less_exclusions.txt	LTP164	ltpFR	0	1	-1	RAFT	1159	n/a	n/a	-1	1.0	1.0	1	upper	Verdana.ttf
595.606	n/a	WORD	297803	wordpools/wasnorm_wordpool_less_exclusions.txt	LTP164	ltpFR	0	1	-1	HOOP	716	n/a	n/a	-1	1.0	1.0	1	upper	Verdana.ttf
599.788	n/a	WORD	299894	wordpools/wasnorm_wordpool_less_exclusions.txt	LTP164	ltpFR	0	1	-1	BELLY	119	n/a	n/a	-1	1.0	1.0	1	upper	Verdana.ttf
603.92	n/a	WORD	301960	wordpools/wasnorm_wordpool_less_exclusions.txt	LTP164	ltpFR	0	1	-1	RADIO	1157	n/a	n/a	-1	1.0	1.0	1	upper	Verdana.ttf
607.852	n/a	WORD	303926	wordpools/wasnorm_wordpool_less_exclusions.txt	LTP164	ltpFR	0	1	-1	DIRECTOR	471	n/a	n/a	-1	1.0	1.0	1	upper	Verdana.ttf
613.578	n/a	REC_START	306789	n/a	LTP164	ltpFR	0	1	n/a	n/a	n/a	n/a	n/a	n/a	n/a	n/a	n/a	n/a	n/a
616.776	n/a	REC_WORD	308388	wordpools/wasnorm_wordpool_less_exclusions.txt	LTP164	ltpFR	0	1	-1	TAVERN	1437	n/a	n/a	-1	n/a	n/a	n/a	n/a	n/a
618.726	n/a	REC_WORD	309363	wordpools/wasnorm_wordpool_less_exclusions.txt	LTP164	ltpFR	0	1	-1	CHOCOLATE	306	n/a	n/a	-1	n/a	n/a	n/a	n/a	n/a
620.458	n/a	REC_WORD	310229	wordpools/wasnorm_wordpool_less_exclusions.txt	LTP164	ltpFR	0	1	-1	BELLY	119	n/a	n/a	-1	n/a	n/a	n/a	n/a	n/a
622.128	n/a	REC_WORD	311064	wordpools/wasnorm_wordpool_less_exclusions.txt	LTP164	ltpFR	0	1	-1	HOOP	716	n/a	n/a	-1	n/a	n/a	n/a	n/a	n/a
654.822	n/a	REC_WORD	327411	wordpools/wasnorm_wordpool_less_exclusions.txt	LTP164	ltpFR	0	1	-1	MAP	865	n/a	n/a	-1	n/a	n/a	n/a	n/a	n/a
683.782	n/a	REC_WORD	341891	wordpools/wasnorm_wordpool_less_exclusions.txt	LTP164	ltpFR	0	1	-1	MONK	910	n/a	n/a	-1	n/a	n/a	n/a	n/a	n/a
686.59	n/a	REC_WORD	343295	wordpools/wasnorm_wordpool_less_exclusions.txt	LTP164	ltpFR	0	1	-1	MONASTERY	907	n/a	n/a	-1	n/a	n/a	n/a	n/a	n/a
687.59	n/a	REC_WORD_VV	343795	wordpools/wasnorm_wordpool_less_exclusions.txt	LTP164	ltpFR	0	1	n/a	<>	-1	n/a	n/a	n/a	n/a	n/a	n/a	n/a	n/a
695.22	n/a	WORD	347610	wordpools/wasnorm_wordpool_less_exclusions.txt	LTP164	ltpFR	0	2	-1	COCOON	339	n/a	n/a	-1	1.0	1.0	1	upper	Verdana.ttf
699.252	n/a	WORD	349626	wordpools/wasnorm_wordpool_less_exclusions.txt	LTP164	ltpFR	0	2	-1	RACCOON	1153	n/a	n/a	-1	1.0	1.0	1	upper	Verdana.ttf
703.174	n/a	WORD	351587	wordpools/wasnorm_wordpool_less_exclusions.txt	LTP164	ltpFR	0	2	-1	CANOE	233	n/a	n/a	-1	1.0	1.0	1	upper	Verdana.ttf
707.382	n/a	WORD	353691	wordpools/wasnorm_wordpool_less_exclusions.txt	LTP164	ltpFR	0	2	-1	MEADOW	881	n/a	n/a	-1	1.0	1.0	1	upper	Verdana.ttf
711.422	n/a	WORD	355711	wordpools/wasnorm_wordpool_less_exclusions.txt	LTP164	ltpFR	0	2	-1	PUDDLE	1140	n/a	n/a	-1	1.0	1.0	1	upper	Verdana.ttf
715.472	n/a	WORD	357736	wordpools/wasnorm_wordpool_less_exclusions.txt	LTP164	ltpFR	0	2	-1	BUCKET	184	n/a	n/a	-1	1.0	1.0	1	upper	Verdana.ttf
719.644	n/a	WORD	359822	wordpools/wasnorm_wordpool_less_exclusions.txt	LTP164	ltpFR	0	2	-1	SHORTCAKE	1292	n/a	n/a	-1	1.0	1.0	1	upper	Verdana.ttf
723.7	n/a	WORD	361850	wordpools/wasnorm_wordpool_less_exclusions.txt	LTP164	ltpFR	0	2	-1	DECK	443	n/a	n/a	-1	1.0	1.0	1	upper	Verdana.ttf
727.616	n/a	WORD	363808	wordpools/wasnorm_wordpool_less_exclusions.txt	LTP164	ltpFR	0	2	-1	CAB	209	n/a	n/a	-1	1.0	1.0	1	upper	Verdana.ttf
731.774	n/a	WORD	365887	wordpools/wasnorm_wordpool_less_exclusions.txt	LTP164	ltpFR	0	2	-1	MONEY	908	n/a	n/a	-1	1.0	1.0	1	upper	Verdana.ttf
735.764	n/a	WORD	367882	wordpools/wasnorm_wordpool_less_exclusions.txt	LTP164	ltpFR	0	2	-1	PAINTING	1005	n/a	n/a	-1	1.0	1.0	1	upper	Verdana.ttf
739.762	n/a	WORD	369881	wordpools/wasnorm_wordpool_less_exclusions.txt	LTP164	ltpFR	0	2	-1	ENGINE	535	n/a	n/a	-1	1.0	1.0	1	upper	Verdana.ttf
743.862	n/a	WORD	371931	wordpools/wasnorm_wordpool_less_exclusions.txt	LTP164	ltpFR	0	2	-1	WAGON	1578	n/a	n/a	-1	1.0	1.0	1	upper	Verdana.ttf
747.968	n/a	WORD	373984	wordpools/wasnorm_wordpool_less_exclusions.txt	LTP164	ltpFR	0	2	-1	CUSTARD	429	n/a	n/a	-1	1.0	1.0	1	upper	Verdana.ttf
752.05	n/a	WORD	376025	wordpools/wasnorm_wordpool_less_exclusions.txt	LTP164	ltpFR	0	2	-1	MANAGER	863	n/a	n/a	-1	1.0	1.0	1	upper	Verdana.ttf
755.958	n/a	WORD	377979	wordpools/wasnorm_wordpool_less_exclusions.txt	LTP164	ltpFR	0	2	-1	TURNIP	1521	n/a	n/a	-1	1.0	1.0	1	upper	Verdana.ttf
761.632	n/a	REC_START	380816	n/a	LTP164	ltpFR	0	2	n/a	n/a	n/a	n/a	n/a	n/a	n/a	n/a	n/a	n/a	n/a
763.616	n/a	REC_WORD	381808	wordpools/wasnorm_wordpool_less_exclusions.txt	LTP164	ltpFR	0	2	-1	TURNIP	1521	n/a	n/a	-1	n/a	n/a	n/a	n/a	n/a
764.614	n/a	REC_WORD	382307	wordpools/wasnorm_wordpool_less_exclusions.txt	LTP164	ltpFR	0	2	-1	CUSTARD	429	n/a	n/a	-1	n/a	n/a	n/a	n/a	n/a
765.672	n/a	REC_WORD	382836	wordpools/wasnorm_wordpool_less_exclusions.txt	LTP164	ltpFR	0	2	-1	WAGON	1578	n/a	n/a	-1	n/a	n/a	n/a	n/a	n/a
767.004	n/a	REC_WORD	383502	wordpools/wasnorm_wordpool_less_exclusions.txt	LTP164	ltpFR	0	2	-1	MANAGER	863	n/a	n/a	-1	n/a	n/a	n/a	n/a	n/a
768.006	n/a	REC_WORD_VV	384003	wordpools/wasnorm_wordpool_less_exclusions.txt	LTP164	ltpFR	0	2	n/a	<>	-1	n/a	n/a	n/a	n/a	n/a	n/a	n/a	n/a
771.978	n/a	REC_WORD	385989	wordpools/wasnorm_wordpool_less_exclusions.txt	LTP164	ltpFR	0	2	-1	RACCOON	1153	n/a	n/a	-1	n/a	n/a	n/a	n/a	n/a
774.06	n/a	REC_WORD	387030	wordpools/wasnorm_wordpool_less_exclusions.txt	LTP164	ltpFR	0	2	-1	COCOON	339	n/a	n/a	-1	n/a	n/a	n/a	n/a	n/a
775.06	n/a	REC_WORD_VV	387530	wordpools/wasnorm_wordpool_less_exclusions.txt	LTP164	ltpFR	0	2	n/a	<>	-1	n/a	n/a	n/a	n/a	n/a	n/a	n/a	n/a
776.678	n/a	REC_WORD	388339	wordpools/wasnorm_wordpool_less_exclusions.txt	LTP164	ltpFR	0	2	-1	CANOE	233	n/a	n/a	-1	n/a	n/a	n/a	n/a	n/a
777.678	n/a	REC_WORD_VV	388839	wordpools/wasnorm_wordpool_less_exclusions.txt	LTP164	ltpFR	0	2	n/a	<>	-1	n/a	n/a	n/a	n/a	n/a	n/a	n/a	n/a
793.914	n/a	REC_WORD	396957	wordpools/wasnorm_wordpool_less_exclusions.txt	LTP164	ltpFR	0	2	-1	PUDDLE	1140	n/a	n/a	-1	n/a	n/a	n/a	n/a	n/a
795.462	n/a	REC_WORD	397731	wordpools/wasnorm_wordpool_less_exclusions.txt	LTP164	ltpFR	0	2	-1	MEADOW	881	n/a	n/a	-1	n/a	n/a	n/a	n/a	n/a
844.274	n/a	WORD	422137	wordpools/wasnorm_wordpool_less_exclusions.txt	LTP164	ltpFR	0	3	-1	JUGGLER	763	n/a	n/a	-1	1.0	1.0	1	upper	Verdana.ttf
848.272	n/a	WORD	424136	wordpools/wasnorm_wordpool_less_exclusions.txt	LTP164	ltpFR	0	3	-1	PAIL	1002	n/a	n/a	-1	1.0	1.0	1	upper	Verdana.ttf
852.204	n/a	WORD	426102	wordpools/wasnorm_wordpool_less_exclusions.txt	LTP164	ltpFR	0	3	-1	COOK	372	n/a	n/a	-1	1.0	1.0	1	upper	Verdana.ttf
856.02	n/a	WORD	428010	wordpools/wasnorm_wordpool_less_exclusions.txt	LTP164	ltpFR	0	3	-1	BULL	193	n/a	n/a	-1	1.0	1.0	1	upper	Verdana.ttf
860.142	n/a	WORD	430071	wordpools/wasnorm_wordpool_less_exclusions.txt	LTP164	ltpFR	0	3	-1	GYMNAST	675	n/a	n/a	-1	1.0	1.0	1	upper	Verdana.ttf
864.302	n/a	WORD	432151	wordpools/wasnorm_wordpool_less_exclusions.txt	LTP164	ltpFR	0	3	-1	SNACK	1331	n/a	n/a	-1	1.0	1.0	1	upper	Verdana.ttf
868.326	n/a	WORD	434163	wordpools/wasnorm_wordpool_less_exclusions.txt	LTP164	ltpFR	0	3	-1	CREEK	404	n/a	n/a	-1	1.0	1.0	1	upper	Verdana.ttf
872.24	n/a	WORD	436120	wordpools/wasnorm_wordpool_less_exclusions.txt	LTP164	ltpFR	0	3	-1	SEAFOOD	1260	n/a	n/a	-1	1.0	1.0	1	upper	Verdana.ttf
876.122	n/a	WORD	438061	wordpools/wasnorm_wordpool_less_exclusions.txt	LTP164	ltpFR	0	3	-1	LAMB	797	n/a	n/a	-1	1.0	1.0	1	upper	Verdana.ttf
880.28	n/a	WORD	440140	wordpools/wasnorm_wordpool_less_exclusions.txt	LTP164	ltpFR	0	3	-1	COIN	343	n/a	n/a	-1	1.0	1.0	1	upper	Verdana.ttf
884.304	n/a	WORD	442152	wordpools/wasnorm_wordpool_less_exclusions.txt	LTP164	ltpFR	0	3	-1	COBWEB	337	n/a	n/a	-1	1.0	1.0	1	upper	Verdana.ttf
888.118	n/a	WORD	444059	wordpools/wasnorm_wordpool_less_exclusions.txt	LTP164	ltpFR	0	3	-1	ABDOMEN	1	n/a	n/a	-1	1.0	1.0	1	upper	Verdana.ttf
892.242	n/a	WORD	446121	wordpools/wasnorm_wordpool_less_exclusions.txt	LTP164	ltpFR	0	3	-1	QUAIL	1147	n/a	n/a	-1	1.0	1.0	1	upper	Verdana.ttf
896.116	n/a	WORD	448058	wordpools/wasnorm_wordpool_less_exclusions.txt	LTP164	ltpFR	0	3	-1	CROW	414	n/a	n/a	-1	1.0	1.0	1	upper	Verdana.ttf
900.182	n/a	WORD	450091	wordpools/wasnorm_wordpool_less_exclusions.txt	LTP164	ltpFR	0	3	-1	POCKET	1093	n/a	n/a	-1	1.0	1.0	1	upper	Verdana.ttf
903.996	n/a	WORD	451998	wordpools/wasnorm_wordpool_less_exclusions.txt	LTP164	ltpFR	0	3	-1	PANTS	1010	n/a	n/a	-1	1.0	1.0	1	upper	Verdana.ttf
909.896	n/a	REC_START	454948	n/a	LTP164	ltpFR	0	3	n/a	n/a	n/a	n/a	n/a	n/a	n/a	n/a	n/a	n/a	n/a
911.376	n/a	REC_WORD	455688	wordpools/wasnorm_wordpool_less_exclusions.txt	LTP164	ltpFR	0	3	-1	PANTS	1010	n/a	n/a	-1	n/a	n/a	n/a	n/a	n/a
912.994	n/a	REC_WORD	456497	wordpools/wasnorm_wordpool_less_exclusions.txt	LTP164	ltpFR	0	3	-1	QUAIL	1147	n/a	n/a	-1	n/a	n/a	n/a	n/a	n/a
914.504	n/a	REC_WORD	457252	wordpools/wasnorm_wordpool_less_exclusions.txt	LTP164	ltpFR	0	3	-1	CROW	414	n/a	n/a	-1	n/a	n/a	n/a	n/a	n/a
916.44	n/a	REC_WORD	458220	wordpools/wasnorm_wordpool_less_exclusions.txt	LTP164	ltpFR	0	3	-1	POCKET	1093	n/a	n/a	-1	n/a	n/a	n/a	n/a	n/a
1004.318	n/a	WORD	502159	wordpools/wasnorm_wordpool_less_exclusions.txt	LTP164	ltpFR	0	4	-1	DUCK	504	n/a	n/a	-1	1.0	1.0	1	upper	Verdana.ttf
1008.398	n/a	WORD	504199	wordpools/wasnorm_wordpool_less_exclusions.txt	LTP164	ltpFR	0	4	-1	WORM	1623	n/a	n/a	-1	1.0	1.0	1	upper	Verdana.ttf
1012.306	n/a	WORD	506153	wordpools/wasnorm_wordpool_less_exclusions.txt	LTP164	ltpFR	0	4	-1	FIN	566	n/a	n/a	-1	1.0	1.0	1	upper	Verdana.ttf
1016.238	n/a	WORD	508119	wordpools/wasnorm_wordpool_less_exclusions.txt	LTP164	ltpFR	0	4	-1	HOOD	714	n/a	n/a	-1	1.0	1.0	1	upper	Verdana.ttf
1020.204	n/a	WORD	510102	wordpools/wasnorm_wordpool_less_exclusions.txt	LTP164	ltpFR	0	4	-1	ROUGE	1213	n/a	n/a	-1	1.0	1.0	1	upper	Verdana.ttf
1024.152	n/a	WORD	512076	wordpools/wasnorm_wordpool_less_exclusions.txt	LTP164	ltpFR	0	4	-1	OTTER	986	n/a	n/a	-1	1.0	1.0	1	upper	Verdana.ttf
1028.126	n/a	WORD	514063	wordpools/wasnorm_wordpool_less_exclusions.txt	LTP164	ltpFR	0	4	-1	BUGGY	188	n/a	n/a	-1	1.0	1.0	1	upper	Verdana.ttf
1032.166	n/a	WORD	516083	wordpools/wasnorm_wordpool_less_exclusions.txt	LTP164	ltpFR	0	4	-1	SARDINE	1235	n/a	n/a	-1	1.0	1.0	1	upper	Verdana.ttf
1036.148	n/a	WORD	518074	wordpools/wasnorm_wordpool_less_exclusions.txt	LTP164	ltpFR	0	4	-1	PUCK	1138	n/a	n/a	-1	1.0	1.0	1	upper	Verdana.ttf
1040.196	n/a	WORD	520098	wordpools/wasnorm_wordpool_less_exclusions.txt	LTP164	ltpFR	0	4	-1	GLACIER	638	n/a	n/a	-1	1.0	1.0	1	upper	Verdana.ttf
1044.128	n/a	WORD	522064	wordpools/wasnorm_wordpool_less_exclusions.txt	LTP164	ltpFR	0	4	-1	MOB	904	n/a	n/a	-1	1.0	1.0	1	upper	Verdana.ttf
1047.986	n/a	WORD	523993	wordpools/wasnorm_wordpool_less_exclusions.txt	LTP164	ltpFR	0	4	-1	TRUCK	1512	n/a	n/a	-1	1.0	1.0	1	upper	Verdana.ttf
1051.802	n/a	WORD	525901	wordpools/wasnorm_wordpool_less_exclusions.txt	LTP164	ltpFR	0	4	-1	DRIVEWAY	500	n/a	n/a	-1	1.0	1.0	1	upper	Verdana.ttf
1055.718	n/a	WORD	527859	wordpools/wasnorm_wordpool_less_exclusions.txt	LTP164	ltpFR	0	4	-1	SALAD	1224	n/a	n/a	-1	1.0	1.0	1	upper	Verdana.ttf
1059.89	n/a	WORD	529945	wordpools/wasnorm_wordpool_less_exclusions.txt	LTP164	ltpFR	0	4	-1	WOLF	1619	n/a	n/a	-1	1.0	1.0	1	upper	Verdana.ttf
1063.772	n/a	WORD	531886	wordpools/wasnorm_wordpool_less_exclusions.txt	LTP164	ltpFR	0	4	-1	SHRIMP	1297	n/a	n/a	-1	1.0	1.0	1	upper	Verdana.ttf
1069.456	n/a	REC_START	534728	n/a	LTP164	ltpFR	0	4	n/a	n/a	n/a	n/a	n/a	n/a	n/a	n/a	n/a	n/a	n/a
1072.494	n/a	REC_WORD	536247	wordpools/wasnorm_wordpool_less_exclusions.txt	LTP164	ltpFR	0	4	-1	SHRIMP	1297	n/a	n/a	-1	n/a	n/a	n/a	n/a	n/a
1073.652	n/a	REC_WORD	536826	wordpools/wasnorm_wordpool_less_exclusions.txt	LTP164	ltpFR	0	4	-1	WOLF	1619	n/a	n/a	-1	n/a	n/a	n/a	n/a	n/a
1074.514	n/a	REC_WORD	537257	wordpools/wasnorm_wordpool_less_exclusions.txt	LTP164	ltpFR	0	4	-1	SARDINE	1235	n/a	n/a	-1	n/a	n/a	n/a	n/a	n/a
1075.514	n/a	REC_WORD_VV	537757	wordpools/wasnorm_wordpool_less_exclusions.txt	LTP164	ltpFR	0	4	n/a	<>	-1	n/a	n/a	n/a	n/a	n/a	n/a	n/a	n/a
1075.892	n/a	REC_WORD	537946	wordpools/wasnorm_wordpool_less_exclusions.txt	LTP164	ltpFR	0	4	-1	SALAD	1224	n/a	n/a	-1	n/a	n/a	n/a	n/a	n/a
1076.892	n/a	REC_WORD_VV	538446	wordpools/wasnorm_wordpool_less_exclusions.txt	LTP164	ltpFR	0	4	n/a	<>	-1	n/a	n/a	n/a	n/a	n/a	n/a	n/a	n/a
1077.592	n/a	REC_WORD	538796	wordpools/wasnorm_wordpool_less_exclusions.txt	LTP164	ltpFR	0	4	-1	TRUCK	1512	n/a	n/a	-1	n/a	n/a	n/a	n/a	n/a
1095.494	n/a	REC_WORD	547747	wordpools/wasnorm_wordpool_less_exclusions.txt	LTP164	ltpFR	0	4	-1	DUCK	504	n/a	n/a	-1	n/a	n/a	n/a	n/a	n/a
1108.39	n/a	REC_WORD	554195	wordpools/wasnorm_wordpool_less_exclusions.txt	LTP164	ltpFR	0	4	-1	OTTER	986	n/a	n/a	-1	n/a	n/a	n/a	n/a	n/a
1141.48	n/a	REC_WORD	570740	wordpools/wasnorm_wordpool_less_exclusions.txt	LTP164	ltpFR	0	4	-1	SHRIMP	1297	n/a	n/a	-1	n/a	n/a	n/a	n/a	n/a
1619.248	n/a	WORD	809624	wordpools/wasnorm_wordpool_less_exclusions.txt	LTP164	ltpFR	0	5	0	WASHCLOTH	1591	n/a	n/a	n/a	0.422607421875	0.5869140625	0	lower	zerothre.ttf
1622.272	n/a	SLOW_MSG	811136	n/a	LTP164	ltpFR	0	5	n/a	n/a	n/a	n/a	n/a	n/a	n/a	n/a	n/a	n/a	n/a
1624.686	n/a	WORD	812343	wordpools/wasnorm_wordpool_less_exclusions.txt	LTP164	ltpFR	0	5	0	WHEEL	1603	n/a	n/a	n/a	0.422607421875	0.5869140625	0	lower	zerothre.ttf
1627.71	n/a	SLOW_MSG	813855	n/a	LTP164	ltpFR	0	5	n/a	n/a	n/a	n/a	n/a	n/a	n/a	n/a	n/a	n/a	n/a
1630.302	n/a	WORD	815151	wordpools/wasnorm_wordpool_less_exclusions.txt	LTP164	ltpFR	0	5	0	SUPERMARKET	1409	n/a	n/a	1	0.422607421875	0.5869140625	0	lower	zerothre.ttf
1634.176	n/a	WORD	817088	wordpools/wasnorm_wordpool_less_exclusions.txt	LTP164	ltpFR	0	5	0	TRAY	1498	n/a	n/a	1	0.422607421875	0.5869140625	0	lower	zerothre.ttf
1638.1	n/a	WORD	819050	wordpools/wasnorm_wordpool_less_exclusions.txt	LTP164	ltpFR	0	5	0	CHARCOAL	281	n/a	n/a	n/a	0.422607421875	0.5869140625	0	lower	zerothre.ttf
1641.124	n/a	SLOW_MSG	820562	n/a	LTP164	ltpFR	0	5	n/a	n/a	n/a	n/a	n/a	n/a	n/a	n/a	n/a	n/a	n/a
1643.706	n/a	WORD	821853	wordpools/wasnorm_wordpool_less_exclusions.txt	LTP164	ltpFR	0	5	0	CHAIN	273	n/a	n/a	0	0.422607421875	0.5869140625	0	lower	zerothre.ttf
1647.888	n/a	WORD	823944	wordpools/wasnorm_wordpool_less_exclusions.txt	LTP164	ltpFR	0	5	0	DESIGNER	451	n/a	n/a	n/a	0.422607421875	0.5869140625	0	lower	zerothre.ttf
1650.912	n/a	SLOW_MSG	825456	n/a	LTP164	ltpFR	0	5	n/a	n/a	n/a	n/a	n/a	n/a	n/a	n/a	n/a	n/a	n/a
1653.388	n/a	WORD	826694	wordpools/wasnorm_wordpool_less_exclusions.txt	LTP164	ltpFR	0	5	0	RUST	1219	n/a	n/a	n/a	0.422607421875	0.5869140625	0	lower	zerothre.ttf
1656.412	n/a	SLOW_MSG	828206	n/a	LTP164	ltpFR	0	5	n/a	n/a	n/a	n/a	n/a	n/a	n/a	n/a	n/a	n/a	n/a
1659.044	n/a	WORD	829522	wordpools/wasnorm_wordpool_less_exclusions.txt	LTP164	ltpFR	0	5	0	PRESIDENT	1121	n/a	n/a	n/a	0.422607421875	0.5869140625	0	lower	zerothre.ttf
1662.068	n/a	SLOW_MSG	831034	n/a	LTP164	ltpFR	0	5	n/a	n/a	n/a	n/a	n/a	n/a	n/a	n/a	n/a	n/a	n/a
1664.45	n/a	WORD	832225	wordpools/wasnorm_wordpool_less_exclusions.txt	LTP164	ltpFR	0	5	0	CHEERLEADER	288	n/a	n/a	0	0.422607421875	0.5869140625	0	lower	zerothre.ttf
1668.532	n/a	WORD	834266	wordpools/wasnorm_wordpool_less_exclusions.txt	LTP164	ltpFR	0	5	0	COMPUTER	359	n/a	n/a	0	0.422607421875	0.5869140625	0	lower	zerothre.ttf
1672.566	n/a	WORD	836283	wordpools/wasnorm_wordpool_less_exclusions.txt	LTP164	ltpFR	0	5	0	MARKET	871	n/a	n/a	n/a	0.422607421875	0.5869140625	0	lower	zerothre.ttf
1675.59	n/a	SLOW_MSG	837795	n/a	LTP164	ltpFR	0	5	n/a	n/a	n/a	n/a	n/a	n/a	n/a	n/a	n/a	n/a	n/a
1678.13	n/a	WORD	839065	wordpools/wasnorm_wordpool_less_exclusions.txt	LTP164	ltpFR	0	5	0	CARTON	251	n/a	n/a	n/a	0.422607421875	0.5869140625	0	lower	zerothre.ttf
1681.154	n/a	SLOW_MSG	840577	n/a	LTP164	ltpFR	0	5	n/a	n/a	n/a	n/a	n/a	n/a	n/a	n/a	n/a	n/a	n/a
1683.494	n/a	WORD	841747	wordpools/wasnorm_wordpool_less_exclusions.txt	LTP164	ltpFR	0	5	0	CEREAL	272	n/a	n/a	n/a	0.422607421875	0.5869140625	0	lower	zerothre.ttf
1686.518	n/a	SLOW_MSG	843259	n/a	LTP164	ltpFR	0	5	n/a	n/a	n/a	n/a	n/a	n/a	n/a	n/a	n/a	n/a	n/a
1688.95	n/a	WORD	844475	wordpools/wasnorm_wordpool_less_exclusions.txt	LTP164	ltpFR	0	5	0	BANQUET	86	n/a	n/a	n/a	0.422607421875	0.5869140625	0	lower	zerothre.ttf
1691.976	n/a	SLOW_MSG	845988	n/a	LTP164	ltpFR	0	5	n/a	n/a	n/a	n/a	n/a	n/a	n/a	n/a	n/a	n/a	n/a
1694.4	n/a	WORD	847200	wordpools/wasnorm_wordpool_less_exclusions.txt	LTP164	ltpFR	0	5	0	SUPPER	1411	n/a	n/a	n/a	0.422607421875	0.5869140625	0	lower	zerothre.ttf
1697.424	n/a	SLOW_MSG	848712	n/a	LTP164	ltpFR	0	5	n/a	n/a	n/a	n/a	n/a	n/a	n/a	n/a	n/a	n/a	n/a
1701.49	n/a	REC_START	850745	n/a	LTP164	ltpFR	0	5	n/a	n/a	n/a	n/a	n/a	n/a	n/a	n/a	n/a	n/a	n/a
1703.83	n/a	REC_WORD_VV	851915	wordpools/wasnorm_wordpool_less_exclusions.txt	LTP164	ltpFR	0	5	n/a	<>	-1	n/a	n/a	n/a	n/a	n/a	n/a	n/a	n/a
1704.83	n/a	REC_WORD_VV	852415	wordpools/wasnorm_wordpool_less_exclusions.txt	LTP164	ltpFR	0	5	n/a	<>	-1	n/a	n/a	n/a	n/a	n/a	n/a	n/a	n/a
1705.83	n/a	REC_WORD_VV	852915	wordpools/wasnorm_wordpool_less_exclusions.txt	LTP164	ltpFR	0	5	n/a	<>	-1	n/a	n/a	n/a	n/a	n/a	n/a	n/a	n/a
1706.83	n/a	REC_WORD_VV	853415	wordpools/wasnorm_wordpool_less_exclusions.txt	LTP164	ltpFR	0	5	n/a	<>	-1	n/a	n/a	n/a	n/a	n/a	n/a	n/a	n/a
1715.638	n/a	REC_WORD_VV	857819	wordpools/wasnorm_wordpool_less_exclusions.txt	LTP164	ltpFR	0	5	n/a	<>	-1	n/a	n/a	n/a	n/a	n/a	n/a	n/a	n/a
1717.136	n/a	REC_WORD	858568	wordpools/wasnorm_wordpool_less_exclusions.txt	LTP164	ltpFR	0	5	0	SUPERMARKET	1409	n/a	n/a	1	n/a	n/a	n/a	n/a	n/a
1718.136	n/a	REC_WORD_VV	859068	wordpools/wasnorm_wordpool_less_exclusions.txt	LTP164	ltpFR	0	5	n/a	<>	-1	n/a	n/a	n/a	n/a	n/a	n/a	n/a	n/a
1718.522	n/a	REC_WORD_VV	859261	wordpools/wasnorm_wordpool_less_exclusions.txt	LTP164	ltpFR	0	5	n/a	<>	-1	n/a	n/a	n/a	n/a	n/a	n/a	n/a	n/a
1719.522	n/a	REC_WORD_VV	859761	wordpools/wasnorm_wordpool_less_exclusions.txt	LTP164	ltpFR	0	5	n/a	<>	-1	n/a	n/a	n/a	n/a	n/a	n/a	n/a	n/a
1721.636	n/a	REC_WORD_VV	860818	wordpools/wasnorm_wordpool_less_exclusions.txt	LTP164	ltpFR	0	5	n/a	<>	-1	n/a	n/a	n/a	n/a	n/a	n/a	n/a	n/a
1722.636	n/a	REC_WORD_VV	861318	wordpools/wasnorm_wordpool_less_exclusions.txt	LTP164	ltpFR	0	5	n/a	<>	-1	n/a	n/a	n/a	n/a	n/a	n/a	n/a	n/a
1723.636	n/a	REC_WORD_VV	861818	wordpools/wasnorm_wordpool_less_exclusions.txt	LTP164	ltpFR	0	5	n/a	<>	-1	n/a	n/a	n/a	n/a	n/a	n/a	n/a	n/a
1724.21	n/a	REC_WORD	862105	wordpools/wasnorm_wordpool_less_exclusions.txt	LTP164	ltpFR	0	5	0	WASHCLOTH	1591	n/a	n/a	n/a	n/a	n/a	n/a	n/a	n/a
1725.21	n/a	REC_WORD_VV	862605	wordpools/wasnorm_wordpool_less_exclusions.txt	LTP164	ltpFR	0	5	n/a	<>	-1	n/a	n/a	n/a	n/a	n/a	n/a	n/a	n/a
1726.21	n/a	REC_WORD_VV	863105	wordpools/wasnorm_wordpool_less_exclusions.txt	LTP164	ltpFR	0	5	n/a	<>	-1	n/a	n/a	n/a	n/a	n/a	n/a	n/a	n/a
1727.388	n/a	REC_WORD_VV	863694	wordpools/wasnorm_wordpool_less_exclusions.txt	LTP164	ltpFR	0	5	n/a	<>	-1	n/a	n/a	n/a	n/a	n/a	n/a	n/a	n/a
1733.838	n/a	REC_WORD_VV	866919	wordpools/wasnorm_wordpool_less_exclusions.txt	LTP164	ltpFR	0	5	n/a	<>	-1	n/a	n/a	n/a	n/a	n/a	n/a	n/a	n/a
1741.246	n/a	REC_WORD_VV	870623	wordpools/wasnorm_wordpool_less_exclusions.txt	LTP164	ltpFR	0	5	n/a	<>	-1	n/a	n/a	n/a	n/a	n/a	n/a	n/a	n/a
1742.246	n/a	REC_WORD_VV	871123	wordpools/wasnorm_wordpool_less_exclusions.txt	LTP164	ltpFR	0	5	n/a	<>	-1	n/a	n/a	n/a	n/a	n/a	n/a	n/a	n/a
1844.212	n/a	WORD	922106	wordpools/wasnorm_wordpool_less_exclusions.txt	LTP164	ltpFR	0	6	0	NIGHTGOWN	953	n/a	n/a	n/a	0.422607421875	0.5869140625	0	lower	zerothre.ttf
1847.236	n/a	SLOW_MSG	923618	n/a	LTP164	ltpFR	0	6	n/a	n/a	n/a	n/a	n/a	n/a	n/a	n/a	n/a	n/a	n/a
1849.604	n/a	WORD	924802	wordpools/wasnorm_wordpool_less_exclusions.txt	LTP164	ltpFR	0	6	0	RECORD	1176	n/a	n/a	1	0.422607421875	0.5869140625	0	lower	zerothre.ttf
1853.46	n/a	WORD	926730	wordpools/wasnorm_wordpool_less_exclusions.txt	LTP164	ltpFR	0	6	0	DANCER	437	n/a	n/a	1	0.422607421875	0.5869140625	0	lower	zerothre.ttf
1857.542	n/a	WORD	928771	wordpools/wasnorm_wordpool_less_exclusions.txt	LTP164	ltpFR	0	6	0	COOLER	375	n/a	n/a	1	0.422607421875	0.5869140625	0	lower	zerothre.ttf
1861.724	n/a	WORD	930862	wordpools/wasnorm_wordpool_less_exclusions.txt	LTP164	ltpFR	0	6	0	BOOT	150	n/a	n/a	n/a	0.422607421875	0.5869140625	0	lower	zerothre.ttf
1864.748	n/a	SLOW_MSG	932374	n/a	LTP164	ltpFR	0	6	n/a	n/a	n/a	n/a	n/a	n/a	n/a	n/a	n/a	n/a	n/a
1867.096	n/a	WORD	933548	wordpools/wasnorm_wordpool_less_exclusions.txt	LTP164	ltpFR	0	6	0	BRIDGE	174	n/a	n/a	0	0.422607421875	0.5869140625	0	lower	zerothre.ttf
1871.046	n/a	WORD	935523	wordpools/wasnorm_wordpool_less_exclusions.txt	LTP164	ltpFR	0	6	0	DAM	436	n/a	n/a	1	0.422607421875	0.5869140625	0	lower	zerothre.ttf
1874.97	n/a	WORD	937485	wordpools/wasnorm_wordpool_less_exclusions.txt	LTP164	ltpFR	0	6	0	SHEET	1279	n/a	n/a	n/a	0.422607421875	0.5869140625	0	lower	zerothre.ttf
1877.994	n/a	SLOW_MSG	938997	n/a	LTP164	ltpFR	0	6	n/a	n/a	n/a	n/a	n/a	n/a	n/a	n/a	n/a	n/a	n/a
1880.402	n/a	WORD	940201	wordpools/wasnorm_wordpool_less_exclusions.txt	LTP164	ltpFR	0	6	0	BRIEFCASE	175	n/a	n/a	1	0.422607421875	0.5869140625	0	lower	zerothre.ttf
1884.384	n/a	WORD	942192	wordpools/wasnorm_wordpool_less_exclusions.txt	LTP164	ltpFR	0	6	0	CAPE	237	n/a	n/a	1	0.422607421875	0.5869140625	0	lower	zerothre.ttf
1888.492	n/a	WORD	944246	wordpools/wasnorm_wordpool_less_exclusions.txt	LTP164	ltpFR	0	6	0	FEATHER	557	n/a	n/a	0	0.422607421875	0.5869140625	0	lower	zerothre.ttf
1892.54	n/a	WORD	946270	wordpools/wasnorm_wordpool_less_exclusions.txt	LTP164	ltpFR	0	6	0	FOOT	590	n/a	n/a	n/a	0.422607421875	0.5869140625	0	lower	zerothre.ttf
1895.564	n/a	SLOW_MSG	947782	n/a	LTP164	ltpFR	0	6	n/a	n/a	n/a	n/a	n/a	n/a	n/a	n/a	n/a	n/a	n/a
1897.938	n/a	WORD	948969	wordpools/wasnorm_wordpool_less_exclusions.txt	LTP164	ltpFR	0	6	0	RECEIPT	1173	n/a	n/a	0	0.422607421875	0.5869140625	0	lower	zerothre.ttf
1901.936	n/a	WORD	950968	wordpools/wasnorm_wordpool_less_exclusions.txt	LTP164	ltpFR	0	6	0	FROST	609	n/a	n/a	n/a	0.422607421875	0.5869140625	0	lower	zerothre.ttf
1904.96	n/a	SLOW_MSG	952480	n/a	LTP164	ltpFR	0	6	n/a	n/a	n/a	n/a	n/a	n/a	n/a	n/a	n/a	n/a	n/a
1907.536	n/a	WORD	953768	wordpools/wasnorm_wordpool_less_exclusions.txt	LTP164	ltpFR	0	6	0	SHOELACE	1289	n/a	n/a	0	0.422607421875	0.5869140625	0	lower	zerothre.ttf
1911.492	n/a	WORD	955746	wordpools/wasnorm_wordpool_less_exclusions.txt	LTP164	ltpFR	0	6	0	GOWN	652	n/a	n/a	1	0.422607421875	0.5869140625	0	lower	zerothre.ttf
1917.566	n/a	REC_START	958783	n/a	LTP164	ltpFR	0	6	n/a	n/a	n/a	n/a	n/a	n/a	n/a	n/a	n/a	n/a	n/a
1922.62	n/a	REC_WORD	961310	wordpools/wasnorm_wordpool_less_exclusions.txt	LTP164	ltpFR	0	6	0	GOWN	652	n/a	n/a	1	n/a	n/a	n/a	n/a	n/a
1923.698	n/a	REC_WORD	961849	wordpools/wasnorm_wordpool_less_exclusions.txt	LTP164	ltpFR	0	6	0	SHOELACE	1289	n/a	n/a	0	n/a	n/a	n/a	n/a	n/a
1924.698	n/a	REC_WORD_VV	962349	wordpools/wasnorm_wordpool_less_exclusions.txt	LTP164	ltpFR	0	6	n/a	<>	-1	n/a	n/a	n/a	n/a	n/a	n/a	n/a	n/a
1925.318	n/a	REC_WORD	962659	wordpools/wasnorm_wordpool_less_exclusions.txt	LTP164	ltpFR	0	6	0	CAPE	237	n/a	n/a	1	n/a	n/a	n/a	n/a	n/a
1928.846	n/a	REC_WORD	964423	wordpools/wasnorm_wordpool_less_exclusions.txt	LTP164	ltpFR	0	6	0	BOOT	150	n/a	n/a	n/a	n/a	n/a	n/a	n/a	n/a
1932.582	n/a	REC_WORD	966291	wordpools/wasnorm_wordpool_less_exclusions.txt	LTP164	ltpFR	0	6	0	FOOT	590	n/a	n/a	n/a	n/a	n/a	n/a	n/a	n/a
2015.186	n/a	WORD	1007593	wordpools/wasnorm_wordpool_less_exclusions.txt	LTP164	ltpFR	0	7	0	WORLD	1622	n/a	n/a	n/a	0.422607421875	0.5869140625	0	lower	zerothre.ttf
2018.21	n/a	SLOW_MSG	1009105	n/a	LTP164	ltpFR	0	7	n/a	n/a	n/a	n/a	n/a	n/a	n/a	n/a	n/a	n/a	n/a
2020.842	n/a	WORD	1010421	wordpools/wasnorm_wordpool_less_exclusions.txt	LTP164	ltpFR	0	7	0	UNIVERSE	1540	n/a	n/a	0	0.422607421875	0.5869140625	0	lower	zerothre.ttf
2024.948	n/a	WORD	1012474	wordpools/wasnorm_wordpool_less_exclusions.txt	LTP164	ltpFR	0	7	0	LOBSTER	837	n/a	n/a	n/a	0.422607421875	0.5869140625	0	lower	zerothre.ttf
2027.972	n/a	SLOW_MSG	1013986	n/a	LTP164	ltpFR	0	7	n/a	n/a	n/a	n/a	n/a	n/a	n/a	n/a	n/a	n/a	n/a
2030.474	n/a	WORD	1015237	wordpools/wasnorm_wordpool_less_exclusions.txt	LTP164	ltpFR	0	7	0	DIAGRAM	456	n/a	n/a	n/a	0.422607421875	0.5869140625	0	lower	zerothre.ttf
2033.498	n/a	SLOW_MSG	1016749	n/a	LTP164	ltpFR	0	7	n/a	n/a	n/a	n/a	n/a	n/a	n/a	n/a	n/a	n/a	n/a
2036.138	n/a	WORD	1018069	wordpools/wasnorm_wordpool_less_exclusions.txt	LTP164	ltpFR	0	7	0	VISITOR	1573	n/a	n/a	1	0.422607421875	0.5869140625	0	lower	zerothre.ttf
2040.078	n/a	WORD	1020039	wordpools/wasnorm_wordpool_less_exclusions.txt	LTP164	ltpFR	0	7	0	RAKE	1164	n/a	n/a	1	0.422607421875	0.5869140625	0	lower	zerothre.ttf
2044.244	n/a	WORD	1022122	wordpools/wasnorm_wordpool_less_exclusions.txt	LTP164	ltpFR	0	7	0	INSTRUCTOR	741	n/a	n/a	1	0.422607421875	0.5869140625	0	lower	zerothre.ttf
2048.436	n/a	WORD	1024218	wordpools/wasnorm_wordpool_less_exclusions.txt	LTP164	ltpFR	0	7	0	ASSOCIATE	49	n/a	n/a	n/a	0.422607421875	0.5869140625	0	lower	zerothre.ttf
2051.46	n/a	SLOW_MSG	1025730	n/a	LTP164	ltpFR	0	7	n/a	n/a	n/a	n/a	n/a	n/a	n/a	n/a	n/a	n/a	n/a
2054.016	n/a	WORD	1027008	wordpools/wasnorm_wordpool_less_exclusions.txt	LTP164	ltpFR	0	7	0	MECHANIC	884	n/a	n/a	1	0.422607421875	0.5869140625	0	lower	zerothre.ttf
2057.998	n/a	WORD	1028999	wordpools/wasnorm_wordpool_less_exclusions.txt	LTP164	ltpFR	0	7	0	POTATO	1115	n/a	n/a	0	0.422607421875	0.5869140625	0	lower	zerothre.ttf
2061.838	n/a	WORD	1030919	wordpools/wasnorm_wordpool_less_exclusions.txt	LTP164	ltpFR	0	7	0	VOLLEYBALL	1576	n/a	n/a	1	0.422607421875	0.5869140625	0	lower	zerothre.ttf
2065.746	n/a	WORD	1032873	wordpools/wasnorm_wordpool_less_exclusions.txt	LTP164	ltpFR	0	7	0	BAIT	70	n/a	n/a	0	0.422607421875	0.5869140625	0	lower	zerothre.ttf
2069.91	n/a	WORD	1034955	wordpools/wasnorm_wordpool_less_exclusions.txt	LTP164	ltpFR	0	7	0	CONTINENT	367	n/a	n/a	1	0.422607421875	0.5869140625	0	lower	zerothre.ttf
2073.918	n/a	WORD	1036959	wordpools/wasnorm_wordpool_less_exclusions.txt	LTP164	ltpFR	0	7	0	EUROPE	541	n/a	n/a	1	0.422607421875	0.5869140625	0	lower	zerothre.ttf
2077.966	n/a	WORD	1038983	wordpools/wasnorm_wordpool_less_exclusions.txt	LTP164	ltpFR	0	7	0	PICKLE	1059	n/a	n/a	0	0.422607421875	0.5869140625	0	lower	zerothre.ttf
2082.09	n/a	WORD	1041045	wordpools/wasnorm_wordpool_less_exclusions.txt	LTP164	ltpFR	0	7	0	PIKE	1067	n/a	n/a	n/a	0.422607421875	0.5869140625	0	lower	zerothre.ttf
2085.114	n/a	SLOW_MSG	1042557	n/a	LTP164	ltpFR	0	7	n/a	n/a	n/a	n/a	n/a	n/a	n/a	n/a	n/a	n/a	n/a
2089.648	n/a	REC_START	1044824	n/a	LTP164	ltpFR	0	7	n/a	n/a	n/a	n/a	n/a	n/a	n/a	n/a	n/a	n/a	n/a
2092.572	n/a	REC_WORD	1046286	wordpools/wasnorm_wordpool_less_exclusions.txt	LTP164	ltpFR	0	7	0	PIKE	1067	n/a	n/a	n/a	n/a	n/a	n/a	n/a	n/a
2094.072	n/a	REC_WORD	1047036	wordpools/wasnorm_wordpool_less_exclusions.txt	LTP164	ltpFR	0	7	0	PICKLE	1059	n/a	n/a	0	n/a	n/a	n/a	n/a	n/a
2095.544	n/a	REC_WORD	1047772	wordpools/wasnorm_wordpool_less_exclusions.txt	LTP164	ltpFR	0	7	0	EUROPE	541	n/a	n/a	1	n/a	n/a	n/a	n/a	n/a
2097.416	n/a	REC_WORD	1048708	wordpools/wasnorm_wordpool_less_exclusions.txt	LTP164	ltpFR	0	7	0	RAKE	1164	n/a	n/a	1	n/a	n/a	n/a	n/a	n/a
2099.062	n/a	REC_WORD	1049531	wordpools/wasnorm_wordpool_less_exclusions.txt	LTP164	ltpFR	0	7	0	ASSOCIATE	49	n/a	n/a	n/a	n/a	n/a	n/a	n/a	n/a
2100.658	n/a	REC_WORD	1050329	wordpools/wasnorm_wordpool_less_exclusions.txt	LTP164	ltpFR	0	7	0	INSTRUCTOR	741	n/a	n/a	1	n/a	n/a	n/a	n/a	n/a
2101.658	n/a	REC_WORD_VV	1050829	wordpools/wasnorm_wordpool_less_exclusions.txt	LTP164	ltpFR	0	7	n/a	<>	-1	n/a	n/a	n/a	n/a	n/a	n/a	n/a	n/a
2106.79	n/a	REC_WORD	1053395	wordpools/wasnorm_wordpool_less_exclusions.txt	LTP164	ltpFR	0	7	0	CONTINENT	367	n/a	n/a	1	n/a	n/a	n/a	n/a	n/a
2108.132	n/a	REC_WORD	1054066	wordpools/wasnorm_wordpool_less_exclusions.txt	LTP164	ltpFR	0	7	0	EUROPE	541	n/a	n/a	1	n/a	n/a	n/a	n/a	n/a
2128.91	n/a	REC_WORD_VV	1064455	wordpools/wasnorm_wordpool_less_exclusions.txt	LTP164	ltpFR	0	7	n/a	<>	-1	n/a	n/a	n/a	n/a	n/a	n/a	n/a	n/a
2181.136	n/a	WORD	1090568	wordpools/wasnorm_wordpool_less_exclusions.txt	LTP164	ltpFR	0	8	0	SCOTCH	1251	n/a	n/a	n/a	0.422607421875	0.5869140625	0	lower	zerothre.ttf
2184.16	n/a	SLOW_MSG	1092080	n/a	LTP164	ltpFR	0	8	n/a	n/a	n/a	n/a	n/a	n/a	n/a	n/a	n/a	n/a	n/a
2186.51	n/a	WORD	1093255	wordpools/wasnorm_wordpool_less_exclusions.txt	LTP164	ltpFR	0	8	0	DILL	465	n/a	n/a	0	0.422607421875	0.5869140625	0	lower	zerothre.ttf
2190.6	n/a	WORD	1095300	wordpools/wasnorm_wordpool_less_exclusions.txt	LTP164	ltpFR	0	8	0	MEAL	882	n/a	n/a	1	0.422607421875	0.5869140625	0	lower	zerothre.ttf
2194.79	n/a	WORD	1097395	wordpools/wasnorm_wordpool_less_exclusions.txt	LTP164	ltpFR	0	8	0	SIRLOIN	1311	n/a	n/a	0	0.422607421875	0.5869140625	0	lower	zerothre.ttf
2198.698	n/a	WORD	1099349	wordpools/wasnorm_wordpool_less_exclusions.txt	LTP164	ltpFR	0	8	0	REFRIGERATOR	1179	n/a	n/a	1	0.422607421875	0.5869140625	0	lower	zerothre.ttf
2202.688	n/a	WORD	1101344	wordpools/wasnorm_wordpool_less_exclusions.txt	LTP164	ltpFR	0	8	0	TOASTER	1472	n/a	n/a	1	0.422607421875	0.5869140625	0	lower	zerothre.ttf
2206.894	n/a	WORD	1103447	wordpools/wasnorm_wordpool_less_exclusions.txt	LTP164	ltpFR	0	8	0	DIAPER	459	n/a	n/a	0	0.422607421875	0.5869140625	0	lower	zerothre.ttf
2210.976	n/a	WORD	1105488	wordpools/wasnorm_wordpool_less_exclusions.txt	LTP164	ltpFR	0	8	0	ATHLETE	52	n/a	n/a	1	0.422607421875	0.5869140625	0	lower	zerothre.ttf
2215.092	n/a	WORD	1107546	wordpools/wasnorm_wordpool_less_exclusions.txt	LTP164	ltpFR	0	8	0	SIDEWALK	1303	n/a	n/a	1	0.422607421875	0.5869140625	0	lower	zerothre.ttf
2219.074	n/a	WORD	1109537	wordpools/wasnorm_wordpool_less_exclusions.txt	LTP164	ltpFR	0	8	0	PATH	1023	n/a	n/a	1	0.422607421875	0.5869140625	0	lower	zerothre.ttf
2223.098	n/a	WORD	1111549	wordpools/wasnorm_wordpool_less_exclusions.txt	LTP164	ltpFR	0	8	0	SILVERWARE	1308	n/a	n/a	0	0.422607421875	0.5869140625	0	lower	zerothre.ttf
2227.238	n/a	WORD	1113619	wordpools/wasnorm_wordpool_less_exclusions.txt	LTP164	ltpFR	0	8	0	BISCUIT	130	n/a	n/a	0	0.422607421875	0.5869140625	0	lower	zerothre.ttf
2231.078	n/a	WORD	1115539	wordpools/wasnorm_wordpool_less_exclusions.txt	LTP164	ltpFR	0	8	0	EAGLE	512	n/a	n/a	1	0.422607421875	0.5869140625	0	lower	zerothre.ttf
2235.012	n/a	WORD	1117506	wordpools/wasnorm_wordpool_less_exclusions.txt	LTP164	ltpFR	0	8	0	FENCE	560	n/a	n/a	1	0.422607421875	0.5869140625	0	lower	zerothre.ttf
2239.218	n/a	WORD	1119609	wordpools/wasnorm_wordpool_less_exclusions.txt	LTP164	ltpFR	0	8	0	YARD	1630	n/a	n/a	1	0.422607421875	0.5869140625	0	lower	zerothre.ttf
2243.242	n/a	WORD	1121621	wordpools/wasnorm_wordpool_less_exclusions.txt	LTP164	ltpFR	0	8	0	SCREWDRIVER	1255	n/a	n/a	n/a	0.422607421875	0.5869140625	0	lower	zerothre.ttf
2246.266	n/a	SLOW_MSG	1123133	n/a	LTP164	ltpFR	0	8	n/a	n/a	n/a	n/a	n/a	n/a	n/a	n/a	n/a	n/a	n/a
2250.714	n/a	REC_START	1125357	n/a	LTP164	ltpFR	0	8	n/a	n/a	n/a	n/a	n/a	n/a	n/a	n/a	n/a	n/a	n/a
2254.776	n/a	REC_WORD	1127388	wordpools/wasnorm_wordpool_less_exclusions.txt	LTP164	ltpFR	0	8	0	SCREWDRIVER	1255	n/a	n/a	n/a	n/a	n/a	n/a	n/a	n/a
2255.776	n/a	REC_WORD_VV	1127888	wordpools/wasnorm_wordpool_less_exclusions.txt	LTP164	ltpFR	0	8	n/a	<>	-1	n/a	n/a	n/a	n/a	n/a	n/a	n/a	n/a
2257.404	n/a	REC_WORD	1128702	wordpools/wasnorm_wordpool_less_exclusions.txt	LTP164	ltpFR	0	8	0	FENCE	560	n/a	n/a	1	n/a	n/a	n/a	n/a	n/a
2274.024	n/a	REC_WORD_VV	1137012	wordpools/wasnorm_wordpool_less_exclusions.txt	LTP164	ltpFR	0	8	n/a	<>	-1	n/a	n/a	n/a	n/a	n/a	n/a	n/a	n/a
2293.9	n/a	REC_WORD	1146950	wordpools/wasnorm_wordpool_less_exclusions.txt	LTP164	ltpFR	0	8	0	EAGLE	512	n/a	n/a	1	n/a	n/a	n/a	n/a	n/a
2349.834	n/a	WORD	1174917	wordpools/wasnorm_wordpool_less_exclusions.txt	LTP164	ltpFR	0	9	1	CORAL	378	n/a	n/a	n/a	0.57763671875	0.412841796875	1	upper	amplitud.ttf
2352.858	n/a	SLOW_MSG	1176429	n/a	LTP164	ltpFR	0	9	n/a	n/a	n/a	n/a	n/a	n/a	n/a	n/a	n/a	n/a	n/a
2355.266	n/a	WORD	1177633	wordpools/wasnorm_wordpool_less_exclusions.txt	LTP164	ltpFR	0	9	1	SHELL	1281	n/a	n/a	0	0.57763671875	0.412841796875	1	upper	amplitud.ttf
2359.14	n/a	WORD	1179570	wordpools/wasnorm_wordpool_less_exclusions.txt	LTP164	ltpFR	0	9	1	BLOSSOM	138	n/a	n/a	1	0.57763671875	0.412841796875	1	upper	amplitud.ttf
2362.964	n/a	WORD	1181482	wordpools/wasnorm_wordpool_less_exclusions.txt	LTP164	ltpFR	0	9	1	PATIO	1025	n/a	n/a	0	0.57763671875	0.412841796875	1	upper	amplitud.ttf
2367.096	n/a	WORD	1183548	wordpools/wasnorm_wordpool_less_exclusions.txt	LTP164	ltpFR	0	9	1	REPTILE	1185	n/a	n/a	1	0.57763671875	0.412841796875	1	upper	amplitud.ttf
2371.244	n/a	WORD	1185622	wordpools/wasnorm_wordpool_less_exclusions.txt	LTP164	ltpFR	0	9	1	VALLEY	1545	n/a	n/a	0	0.57763671875	0.412841796875	1	upper	amplitud.ttf
2375.152	n/a	WORD	1187576	wordpools/wasnorm_wordpool_less_exclusions.txt	LTP164	ltpFR	0	9	1	SKI	1316	n/a	n/a	0	0.57763671875	0.412841796875	1	upper	amplitud.ttf
2379.158	n/a	WORD	1189579	wordpools/wasnorm_wordpool_less_exclusions.txt	LTP164	ltpFR	0	9	1	SURF	1412	n/a	n/a	0	0.57763671875	0.412841796875	1	upper	amplitud.ttf
2383.224	n/a	WORD	1191612	wordpools/wasnorm_wordpool_less_exclusions.txt	LTP164	ltpFR	0	9	1	KEEPER	769	n/a	n/a	1	0.57763671875	0.412841796875	1	upper	amplitud.ttf
2387.432	n/a	WORD	1193716	wordpools/wasnorm_wordpool_less_exclusions.txt	LTP164	ltpFR	0	9	1	DAISY	435	n/a	n/a	1	0.57763671875	0.412841796875	1	upper	amplitud.ttf
2391.614	n/a	WORD	1195807	wordpools/wasnorm_wordpool_less_exclusions.txt	LTP164	ltpFR	0	9	1	INTESTINE	742	n/a	n/a	1	0.57763671875	0.412841796875	1	upper	amplitud.ttf
2395.664	n/a	WORD	1197832	wordpools/wasnorm_wordpool_less_exclusions.txt	LTP164	ltpFR	0	9	1	CORN	381	n/a	n/a	1	0.57763671875	0.412841796875	1	upper	amplitud.ttf
2399.604	n/a	WORD	1199802	wordpools/wasnorm_wordpool_less_exclusions.txt	LTP164	ltpFR	0	9	1	MOTORCYCLE	923	n/a	n/a	0	0.57763671875	0.412841796875	1	upper	amplitud.ttf
2403.452	n/a	WORD	1201726	wordpools/wasnorm_wordpool_less_exclusions.txt	LTP164	ltpFR	0	9	1	CHEESE	289	n/a	n/a	0	0.57763671875	0.412841796875	1	upper	amplitud.ttf
2407.302	n/a	WORD	1203651	wordpools/wasnorm_wordpool_less_exclusions.txt	LTP164	ltpFR	0	9	1	RODENT	1204	n/a	n/a	1	0.57763671875	0.412841796875	1	upper	amplitud.ttf
2411.376	n/a	WORD	1205688	wordpools/wasnorm_wordpool_less_exclusions.txt	LTP164	ltpFR	0	9	1	MOUSE	925	n/a	n/a	1	0.57763671875	0.412841796875	1	upper	amplitud.ttf
2417.306	n/a	REC_START	1208653	n/a	LTP164	ltpFR	0	9	n/a	n/a	n/a	n/a	n/a	n/a	n/a	n/a	n/a	n/a	n/a
2420.2	n/a	REC_WORD	1210100	wordpools/wasnorm_wordpool_less_exclusions.txt	LTP164	ltpFR	0	9	1	RODENT	1204	n/a	n/a	1	n/a	n/a	n/a	n/a	n/a
2422.106	n/a	REC_WORD	1211053	wordpools/wasnorm_wordpool_less_exclusions.txt	LTP164	ltpFR	0	9	1	MOUSE	925	n/a	n/a	1	n/a	n/a	n/a	n/a	n/a
2423.838	n/a	REC_WORD	1211919	wordpools/wasnorm_wordpool_less_exclusions.txt	LTP164	ltpFR	0	9	1	CORN	381	n/a	n/a	1	n/a	n/a	n/a	n/a	n/a
2425.878	n/a	REC_WORD	1212939	wordpools/wasnorm_wordpool_less_exclusions.txt	LTP164	ltpFR	0	9	1	REPTILE	1185	n/a	n/a	1	n/a	n/a	n/a	n/a	n/a
2426.878	n/a	REC_WORD_VV	1213439	wordpools/wasnorm_wordpool_less_exclusions.txt	LTP164	ltpFR	0	9	n/a	<>	-1	n/a	n/a	n/a	n/a	n/a	n/a	n/a	n/a
2429.994	n/a	REC_WORD	1214997	wordpools/wasnorm_wordpool_less_exclusions.txt	LTP164	ltpFR	0	9	1	KEEPER	769	n/a	n/a	1	n/a	n/a	n/a	n/a	n/a
2433.804	n/a	REC_WORD	1216902	wordpools/wasnorm_wordpool_less_exclusions.txt	LTP164	ltpFR	0	9	1	VALLEY	1545	n/a	n/a	0	n/a	n/a	n/a	n/a	n/a
2435.346	n/a	REC_WORD	1217673	wordpools/wasnorm_wordpool_less_exclusions.txt	LTP164	ltpFR	0	9	1	SURF	1412	n/a	n/a	0	n/a	n/a	n/a	n/a	n/a
2443.2	n/a	REC_WORD	1221600	wordpools/wasnorm_wordpool_less_exclusions.txt	LTP164	ltpFR	0	9	1	CORAL	378	n/a	n/a	n/a	n/a	n/a	n/a	n/a	n/a
2453.7	n/a	REC_WORD	1226850	wordpools/wasnorm_wordpool_less_exclusions.txt	LTP164	ltpFR	0	9	1	INTESTINE	742	n/a	n/a	1	n/a	n/a	n/a	n/a	n/a
2536.278	n/a	WORD	1268139	wordpools/wasnorm_wordpool_less_exclusions.txt	LTP164	ltpFR	0	10	1	TOE	1473	n/a	n/a	3	0.57763671875	0.412841796875	1	upper	amplitud.ttf
2538.286	n/a	KEY_MSG	1269143	n/a	LTP164	ltpFR	0	10	n/a	n/a	n/a	n/a	n/a	n/a	n/a	n/a	n/a	n/a	n/a
2540.96	n/a	WORD	1270480	wordpools/wasnorm_wordpool_less_exclusions.txt	LTP164	ltpFR	0	10	1	ANKLE	24	n/a	n/a	1	0.57763671875	0.412841796875	1	upper	amplitud.ttf
2544.776	n/a	WORD	1272388	wordpools/wasnorm_wordpool_less_exclusions.txt	LTP164	ltpFR	0	10	1	PISTON	1076	n/a	n/a	0	0.57763671875	0.412841796875	1	upper	amplitud.ttf
2548.8	n/a	WORD	1274400	wordpools/wasnorm_wordpool_less_exclusions.txt	LTP164	ltpFR	0	10	1	WINDSHIELD	1612	n/a	n/a	0	0.57763671875	0.412841796875	1	upper	amplitud.ttf
2552.848	n/a	WORD	1276424	wordpools/wasnorm_wordpool_less_exclusions.txt	LTP164	ltpFR	0	10	1	SUGAR	1401	n/a	n/a	0	0.57763671875	0.412841796875	1	upper	amplitud.ttf
2556.756	n/a	WORD	1278378	wordpools/wasnorm_wordpool_less_exclusions.txt	LTP164	ltpFR	0	10	1	STEWARDESS	1381	n/a	n/a	1	0.57763671875	0.412841796875	1	upper	amplitud.ttf
2560.614	n/a	WORD	1280307	wordpools/wasnorm_wordpool_less_exclusions.txt	LTP164	ltpFR	0	10	1	SALESMAN	1225	n/a	n/a	1	0.57763671875	0.412841796875	1	upper	amplitud.ttf
2564.662	n/a	WORD	1282331	wordpools/wasnorm_wordpool_less_exclusions.txt	LTP164	ltpFR	0	10	1	PELICAN	1039	n/a	n/a	1	0.57763671875	0.412841796875	1	upper	amplitud.ttf
2568.478	n/a	WORD	1284239	wordpools/wasnorm_wordpool_less_exclusions.txt	LTP164	ltpFR	0	10	1	BUTTON	207	n/a	n/a	0	0.57763671875	0.412841796875	1	upper	amplitud.ttf
2572.55	n/a	WORD	1286275	wordpools/wasnorm_wordpool_less_exclusions.txt	LTP164	ltpFR	0	10	1	BANK	83	n/a	n/a	0	0.57763671875	0.412841796875	1	upper	amplitud.ttf
2576.508	n/a	WORD	1288254	wordpools/wasnorm_wordpool_less_exclusions.txt	LTP164	ltpFR	0	10	1	WELL	1600	n/a	n/a	n/a	0.57763671875	0.412841796875	1	upper	amplitud.ttf
2579.532	n/a	SLOW_MSG	1289766	n/a	LTP164	ltpFR	0	10	n/a	n/a	n/a	n/a	n/a	n/a	n/a	n/a	n/a	n/a	n/a
2582.03	n/a	WORD	1291015	wordpools/wasnorm_wordpool_less_exclusions.txt	LTP164	ltpFR	0	10	1	STREAM	1392	n/a	n/a	0	0.57763671875	0.412841796875	1	upper	amplitud.ttf
2586.146	n/a	WORD	1293073	wordpools/wasnorm_wordpool_less_exclusions.txt	LTP164	ltpFR	0	10	1	NEST	945	n/a	n/a	0	0.57763671875	0.412841796875	1	upper	amplitud.ttf
2590.044	n/a	WORD	1295022	wordpools/wasnorm_wordpool_less_exclusions.txt	LTP164	ltpFR	0	10	1	CHICK	296	n/a	n/a	0	0.57763671875	0.412841796875	1	upper	amplitud.ttf
2594.102	n/a	WORD	1297051	wordpools/wasnorm_wordpool_less_exclusions.txt	LTP164	ltpFR	0	10	1	WHEAT	1602	n/a	n/a	0	0.57763671875	0.412841796875	1	upper	amplitud.ttf
2598.126	n/a	WORD	1299063	wordpools/wasnorm_wordpool_less_exclusions.txt	LTP164	ltpFR	0	10	1	LIMOUSINE	824	n/a	n/a	0	0.57763671875	0.412841796875	1	upper	amplitud.ttf
2603.958	n/a	REC_START	1301979	n/a	LTP164	ltpFR	0	10	n/a	n/a	n/a	n/a	n/a	n/a	n/a	n/a	n/a	n/a	n/a
2607.286	n/a	REC_WORD	1303643	wordpools/wasnorm_wordpool_less_exclusions.txt	LTP164	ltpFR	0	10	1	LIMOUSINE	824	n/a	n/a	0	n/a	n/a	n/a	n/a	n/a
2608.378	n/a	REC_WORD	1304189	wordpools/wasnorm_wordpool_less_exclusions.txt	LTP164	ltpFR	0	10	1	WHEAT	1602	n/a	n/a	0	n/a	n/a	n/a	n/a	n/a
2610.154	n/a	REC_WORD	1305077	wordpools/wasnorm_wordpool_less_exclusions.txt	LTP164	ltpFR	0	10	1	CHICK	296	n/a	n/a	0	n/a	n/a	n/a	n/a	n/a
2697.812	n/a	WORD	1348906	wordpools/wasnorm_wordpool_less_exclusions.txt	LTP164	ltpFR	0	11	1	SPIDER	1351	n/a	n/a	1	0.57763671875	0.412841796875	1	upper	amplitud.ttf
2701.628	n/a	WORD	1350814	wordpools/wasnorm_wordpool_less_exclusions.txt	LTP164	ltpFR	0	11	1	SAUSAGE	1238	n/a	n/a	0	0.57763671875	0.412841796875	1	upper	amplitud.ttf
2705.704	n/a	WORD	1352852	wordpools/wasnorm_wordpool_less_exclusions.txt	LTP164	ltpFR	0	11	1	CRAB	397	n/a	n/a	1	0.57763671875	0.412841796875	1	upper	amplitud.ttf
2709.636	n/a	WORD	1354818	wordpools/wasnorm_wordpool_less_exclusions.txt	LTP164	ltpFR	0	11	1	HEAD	695	n/a	n/a	0	0.57763671875	0.412841796875	1	upper	amplitud.ttf
2713.716	n/a	WORD	1356858	wordpools/wasnorm_wordpool_less_exclusions.txt	LTP164	ltpFR	0	11	1	CAP	236	n/a	n/a	0	0.57763671875	0.412841796875	1	upper	amplitud.ttf
2717.574	n/a	WORD	1358787	wordpools/wasnorm_wordpool_less_exclusions.txt	LTP164	ltpFR	0	11	1	WALL	1582	n/a	n/a	0	0.57763671875	0.412841796875	1	upper	amplitud.ttf
2721.548	n/a	WORD	1360774	wordpools/wasnorm_wordpool_less_exclusions.txt	LTP164	ltpFR	0	11	1	TILE	1468	n/a	n/a	0	0.57763671875	0.412841796875	1	upper	amplitud.ttf
2725.498	n/a	WORD	1362749	wordpools/wasnorm_wordpool_less_exclusions.txt	LTP164	ltpFR	0	11	1	BUTTERFLY	206	n/a	n/a	1	0.57763671875	0.412841796875	1	upper	amplitud.ttf
2729.662	n/a	WORD	1364831	wordpools/wasnorm_wordpool_less_exclusions.txt	LTP164	ltpFR	0	11	1	BUG	187	n/a	n/a	1	0.57763671875	0.412841796875	1	upper	amplitud.ttf
2733.56	n/a	WORD	1366780	wordpools/wasnorm_wordpool_less_exclusions.txt	LTP164	ltpFR	0	11	1	TUBE	1516	n/a	n/a	0	0.57763671875	0.412841796875	1	upper	amplitud.ttf
2737.708	n/a	WORD	1368854	wordpools/wasnorm_wordpool_less_exclusions.txt	LTP164	ltpFR	0	11	1	LUNCH	849	n/a	n/a	0	0.57763671875	0.412841796875	1	upper	amplitud.ttf
2741.916	n/a	WORD	1370958	wordpools/wasnorm_wordpool_less_exclusions.txt	LTP164	ltpFR	0	11	1	TUXEDO	1525	n/a	n/a	0	0.57763671875	0.412841796875	1	upper	amplitud.ttf
2745.89	n/a	WORD	1372945	wordpools/wasnorm_wordpool_less_exclusions.txt	LTP164	ltpFR	0	11	1	SLEEVE	1324	n/a	n/a	0	0.57763671875	0.412841796875	1	upper	amplitud.ttf
2749.946	n/a	WORD	1374973	wordpools/wasnorm_wordpool_less_exclusions.txt	LTP164	ltpFR	0	11	1	SOCK	1339	n/a	n/a	0	0.57763671875	0.412841796875	1	upper	amplitud.ttf
2754.128	n/a	WORD	1377064	wordpools/wasnorm_wordpool_less_exclusions.txt	LTP164	ltpFR	0	11	1	GLOBE	641	n/a	n/a	0	0.57763671875	0.412841796875	1	upper	amplitud.ttf
2758.094	n/a	WORD	1379047	wordpools/wasnorm_wordpool_less_exclusions.txt	LTP164	ltpFR	0	11	1	PIGEON	1065	n/a	n/a	1	0.57763671875	0.412841796875	1	upper	amplitud.ttf
2764.086	n/a	REC_START	1382043	n/a	LTP164	ltpFR	0	11	n/a	n/a	n/a	n/a	n/a	n/a	n/a	n/a	n/a	n/a	n/a
2766.016	n/a	REC_WORD	1383008	wordpools/wasnorm_wordpool_less_exclusions.txt	LTP164	ltpFR	0	11	1	PIGEON	1065	n/a	n/a	1	n/a	n/a	n/a	n/a	n/a
2767.158	n/a	REC_WORD	1383579	wordpools/wasnorm_wordpool_less_exclusions.txt	LTP164	ltpFR	0	11	1	GLOBE	641	n/a	n/a	0	n/a	n/a	n/a	n/a	n/a
2768.086	n/a	REC_WORD	1384043	wordpools/wasnorm_wordpool_less_exclusions.txt	LTP164	ltpFR	0	11	1	SOCK	1339	n/a	n/a	0	n/a	n/a	n/a	n/a	n/a
2769.438	n/a	REC_WORD	1384719	wordpools/wasnorm_wordpool_less_exclusions.txt	LTP164	ltpFR	0	11	1	SLEEVE	1324	n/a	n/a	0	n/a	n/a	n/a	n/a	n/a
2771.1	n/a	REC_WORD	1385550	wordpools/wasnorm_wordpool_less_exclusions.txt	LTP164	ltpFR	0	11	1	TILE	1468	n/a	n/a	0	n/a	n/a	n/a	n/a	n/a
2772.552	n/a	REC_WORD	1386276	wordpools/wasnorm_wordpool_less_exclusions.txt	LTP164	ltpFR	0	11	1	LUNCH	849	n/a	n/a	0	n/a	n/a	n/a	n/a	n/a
2780.044	n/a	REC_WORD	1390022	wordpools/wasnorm_wordpool_less_exclusions.txt	LTP164	ltpFR	0	11	1	TUXEDO	1525	n/a	n/a	0	n/a	n/a	n/a	n/a	n/a
2788.252	n/a	REC_WORD	1394126	wordpools/wasnorm_wordpool_less_exclusions.txt	LTP164	ltpFR	0	11	1	BUG	187	n/a	n/a	1	n/a	n/a	n/a	n/a	n/a
2790.716	n/a	REC_WORD	1395358	wordpools/wasnorm_wordpool_less_exclusions.txt	LTP164	ltpFR	0	11	1	BUTTERFLY	206	n/a	n/a	1	n/a	n/a	n/a	n/a	n/a
2864.728	n/a	WORD	1432364	wordpools/wasnorm_wordpool_less_exclusions.txt	LTP164	ltpFR	0	12	1	WASHER	1592	n/a	n/a	0	0.57763671875	0.412841796875	1	upper	amplitud.ttf
2868.612	n/a	WORD	1434306	wordpools/wasnorm_wordpool_less_exclusions.txt	LTP164	ltpFR	0	12	1	STUMP	1396	n/a	n/a	0	0.57763671875	0.412841796875	1	upper	amplitud.ttf
2872.486	n/a	WORD	1436243	wordpools/wasnorm_wordpool_less_exclusions.txt	LTP164	ltpFR	0	12	1	CONTRACTOR	369	n/a	n/a	1	0.57763671875	0.412841796875	1	upper	amplitud.ttf
2876.426	n/a	WORD	1438213	wordpools/wasnorm_wordpool_less_exclusions.txt	LTP164	ltpFR	0	12	1	LAWYER	806	n/a	n/a	1	0.57763671875	0.412841796875	1	upper	amplitud.ttf
2880.45	n/a	WORD	1440225	wordpools/wasnorm_wordpool_less_exclusions.txt	LTP164	ltpFR	0	12	1	TOWN	1491	n/a	n/a	0	0.57763671875	0.412841796875	1	upper	amplitud.ttf
2884.658	n/a	WORD	1442329	wordpools/wasnorm_wordpool_less_exclusions.txt	LTP164	ltpFR	0	12	1	COUNTY	389	n/a	n/a	0	0.57763671875	0.412841796875	1	upper	amplitud.ttf
2888.854	n/a	WORD	1444427	wordpools/wasnorm_wordpool_less_exclusions.txt	LTP164	ltpFR	0	12	1	APRON	35	n/a	n/a	0	0.57763671875	0.412841796875	1	upper	amplitud.ttf
2892.72	n/a	WORD	1446360	wordpools/wasnorm_wordpool_less_exclusions.txt	LTP164	ltpFR	0	12	1	SHRUB	1299	n/a	n/a	1	0.57763671875	0.412841796875	1	upper	amplitud.ttf
2896.928	n/a	WORD	1448464	wordpools/wasnorm_wordpool_less_exclusions.txt	LTP164	ltpFR	0	12	1	SOCKET	1340	n/a	n/a	0	0.57763671875	0.412841796875	1	upper	amplitud.ttf
2901.126	n/a	WORD	1450563	wordpools/wasnorm_wordpool_less_exclusions.txt	LTP164	ltpFR	0	12	1	LEAF	808	n/a	n/a	1	0.57763671875	0.412841796875	1	upper	amplitud.ttf
2905.108	n/a	WORD	1452554	wordpools/wasnorm_wordpool_less_exclusions.txt	LTP164	ltpFR	0	12	1	DOVE	491	n/a	n/a	1	0.57763671875	0.412841796875	1	upper	amplitud.ttf
2909.214	n/a	WORD	1454607	wordpools/wasnorm_wordpool_less_exclusions.txt	LTP164	ltpFR	0	12	1	TUSK	1523	n/a	n/a	0	0.57763671875	0.412841796875	1	upper	amplitud.ttf
2913.122	n/a	WORD	1456561	wordpools/wasnorm_wordpool_less_exclusions.txt	LTP164	ltpFR	0	12	1	TOWER	1490	n/a	n/a	0	0.57763671875	0.412841796875	1	upper	amplitud.ttf
2917.064	n/a	WORD	1458532	wordpools/wasnorm_wordpool_less_exclusions.txt	LTP164	ltpFR	0	12	1	COLONEL	348	n/a	n/a	1	0.57763671875	0.412841796875	1	upper	amplitud.ttf
2921.136	n/a	WORD	1460568	wordpools/wasnorm_wordpool_less_exclusions.txt	LTP164	ltpFR	0	12	1	FORT	595	n/a	n/a	0	0.57763671875	0.412841796875	1	upper	amplitud.ttf
2925.236	n/a	WORD	1462618	wordpools/wasnorm_wordpool_less_exclusions.txt	LTP164	ltpFR	0	12	1	COLLEGE	346	n/a	n/a	0	0.57763671875	0.412841796875	1	upper	amplitud.ttf
2930.968	n/a	REC_START	1465484	n/a	LTP164	ltpFR	0	12	n/a	n/a	n/a	n/a	n/a	n/a	n/a	n/a	n/a	n/a	n/a
2933.362	n/a	REC_WORD	1466681	wordpools/wasnorm_wordpool_less_exclusions.txt	LTP164	ltpFR	0	12	1	COLLEGE	346	n/a	n/a	0	n/a	n/a	n/a	n/a	n/a
2934.48	n/a	REC_WORD	1467240	wordpools/wasnorm_wordpool_less_exclusions.txt	LTP164	ltpFR	0	12	1	FORT	595	n/a	n/a	0	n/a	n/a	n/a	n/a	n/a
2936.292	n/a	REC_WORD	1468146	wordpools/wasnorm_wordpool_less_exclusions.txt	LTP164	ltpFR	0	12	1	COLONEL	348	n/a	n/a	1	n/a	n/a	n/a	n/a	n/a
2975.076	n/a	REC_WORD	1487538	wordpools/wasnorm_wordpool_less_exclusions.txt	LTP164	ltpFR	0	12	1	COUNTY	389	n/a	n/a	0	n/a	n/a	n/a	n/a	n/a
2976.772	n/a	REC_WORD	1488386	wordpools/wasnorm_wordpool_less_exclusions.txt	LTP164	ltpFR	0	12	1	TOWN	1491	n/a	n/a	0	n/a	n/a	n/a	n/a	n/a
2988.42	n/a	REC_WORD	1494210	wordpools/wasnorm_wordpool_less_exclusions.txt	LTP164	ltpFR	0	12	n/a	BUSH	202	n/a	n/a	n/a	n/a	n/a	n/a	n/a	n/a
2991.088	n/a	REC_WORD_VV	1495544	wordpools/wasnorm_wordpool_less_exclusions.txt	LTP164	ltpFR	0	12	n/a	<>	-1	n/a	n/a	n/a	n/a	n/a	n/a	n/a	n/a
2991.584	n/a	REC_WORD	1495792	wordpools/wasnorm_wordpool_less_exclusions.txt	LTP164	ltpFR	0	12	1	SHRUB	1299	n/a	n/a	1	n/a	n/a	n/a	n/a	n/a
2996.134	n/a	REC_WORD	1498067	wordpools/wasnorm_wordpool_less_exclusions.txt	LTP164	ltpFR	0	12	1	SHRUB	1299	n/a	n/a	1	n/a	n/a	n/a	n/a	n/a
3001.016	n/a	REC_WORD	1500508	wordpools/wasnorm_wordpool_less_exclusions.txt	LTP164	ltpFR	0	12	1	LEAF	808	n/a	n/a	1	n/a	n/a	n/a	n/a	n/a
3006.554	n/a	REST_REWET	1503277	n/a	LTP164	ltpFR	0	12	n/a	n/a	n/a	n/a	n/a	n/a	n/a	n/a	n/a	n/a	n/a
3328.564	n/a	WORD	1664282	wordpools/wasnorm_wordpool_less_exclusions.txt	LTP164	ltpFR	0	13	0	HEDGE	699	n/a	n/a	n/a	0.422607421875	0.5869140625	0	lower	zerothre.ttf
3331.588	n/a	SLOW_MSG	1665794	n/a	LTP164	ltpFR	0	13	n/a	n/a	n/a	n/a	n/a	n/a	n/a	n/a	n/a	n/a	n/a
3334.188	n/a	WORD	1667094	wordpools/wasnorm_wordpool_less_exclusions.txt	LTP164	ltpFR	0	13	0	PATRIOT	1026	n/a	n/a	0	0.422607421875	0.5869140625	0	lower	zerothre.ttf
3338.028	n/a	WORD	1669014	wordpools/wasnorm_wordpool_less_exclusions.txt	LTP164	ltpFR	0	13	1	CRITIC	410	n/a	n/a	n/a	0.57763671875	0.412841796875	1	upper	amplitud.ttf
3341.052	n/a	SLOW_MSG	1670526	n/a	LTP164	ltpFR	0	13	n/a	n/a	n/a	n/a	n/a	n/a	n/a	n/a	n/a	n/a	n/a
3343.552	n/a	WORD	1671776	wordpools/wasnorm_wordpool_less_exclusions.txt	LTP164	ltpFR	0	13	1	OATMEAL	967	n/a	n/a	0	0.57763671875	0.412841796875	1	upper	amplitud.ttf
3347.684	n/a	WORD	1673842	wordpools/wasnorm_wordpool_less_exclusions.txt	LTP164	ltpFR	0	13	1	LOAF	835	n/a	n/a	0	0.57763671875	0.412841796875	1	upper	amplitud.ttf
3351.658	n/a	WORD	1675829	wordpools/wasnorm_wordpool_less_exclusions.txt	LTP164	ltpFR	0	13	1	LAGOON	795	n/a	n/a	0	0.57763671875	0.412841796875	1	upper	amplitud.ttf
3355.78	n/a	WORD	1677890	wordpools/wasnorm_wordpool_less_exclusions.txt	LTP164	ltpFR	0	13	0	FAUCET	555	n/a	n/a	2	0.422607421875	0.5869140625	0	lower	zerothre.ttf
3357.23	n/a	KEY_MSG	1678615	n/a	LTP164	ltpFR	0	13	n/a	n/a	n/a	n/a	n/a	n/a	n/a	n/a	n/a	n/a	n/a
3359.928	n/a	WORD	1679964	wordpools/wasnorm_wordpool_less_exclusions.txt	LTP164	ltpFR	0	13	0	PROTON	1132	n/a	n/a	n/a	0.422607421875	0.5869140625	0	lower	zerothre.ttf
3362.952	n/a	SLOW_MSG	1681476	n/a	LTP164	ltpFR	0	13	n/a	n/a	n/a	n/a	n/a	n/a	n/a	n/a	n/a	n/a	n/a
3365.362	n/a	WORD	1682681	wordpools/wasnorm_wordpool_less_exclusions.txt	LTP164	ltpFR	0	13	1	CARPENTER	246	n/a	n/a	1	0.57763671875	0.412841796875	1	upper	amplitud.ttf
3369.552	n/a	WORD	1684776	wordpools/wasnorm_wordpool_less_exclusions.txt	LTP164	ltpFR	0	13	1	STAKE	1368	n/a	n/a	0	0.57763671875	0.412841796875	1	upper	amplitud.ttf
3373.726	n/a	WORD	1686863	wordpools/wasnorm_wordpool_less_exclusions.txt	LTP164	ltpFR	0	13	1	LINEN	825	n/a	n/a	0	0.57763671875	0.412841796875	1	upper	amplitud.ttf
3377.55	n/a	WORD	1688775	wordpools/wasnorm_wordpool_less_exclusions.txt	LTP164	ltpFR	0	13	1	FLESH	579	n/a	n/a	1	0.57763671875	0.412841796875	1	upper	amplitud.ttf
3381.548	n/a	WORD	1690774	wordpools/wasnorm_wordpool_less_exclusions.txt	LTP164	ltpFR	0	13	0	ATOM	55	n/a	n/a	n/a	0.422607421875	0.5869140625	0	lower	zerothre.ttf
3384.574	n/a	SLOW_MSG	1692287	n/a	LTP164	ltpFR	0	13	n/a	n/a	n/a	n/a	n/a	n/a	n/a	n/a	n/a	n/a	n/a
3387.212	n/a	WORD	1693606	wordpools/wasnorm_wordpool_less_exclusions.txt	LTP164	ltpFR	0	13	0	DRESS	495	n/a	n/a	0	0.422607421875	0.5869140625	0	lower	zerothre.ttf
3391.312	n/a	WORD	1695656	wordpools/wasnorm_wordpool_less_exclusions.txt	LTP164	ltpFR	0	13	0	SHARK	1275	n/a	n/a	0	0.422607421875	0.5869140625	0	lower	zerothre.ttf
3395.168	n/a	WORD	1697584	wordpools/wasnorm_wordpool_less_exclusions.txt	LTP164	ltpFR	0	13	0	COB	334	n/a	n/a	0	0.422607421875	0.5869140625	0	lower	zerothre.ttf
3401.242	n/a	REC_START	1700621	n/a	LTP164	ltpFR	0	13	n/a	n/a	n/a	n/a	n/a	n/a	n/a	n/a	n/a	n/a	n/a
3404.23	n/a	REC_WORD	1702115	wordpools/wasnorm_wordpool_less_exclusions.txt	LTP164	ltpFR	0	13	0	COB	334	n/a	n/a	0	n/a	n/a	n/a	n/a	n/a
3405.124	n/a	REC_WORD	1702562	wordpools/wasnorm_wordpool_less_exclusions.txt	LTP164	ltpFR	0	13	0	SHARK	1275	n/a	n/a	0	n/a	n/a	n/a	n/a	n/a
3406.684	n/a	REC_WORD	1703342	wordpools/wasnorm_wordpool_less_exclusions.txt	LTP164	ltpFR	0	13	0	DRESS	495	n/a	n/a	0	n/a	n/a	n/a	n/a	n/a
3408.566	n/a	REC_WORD	1704283	wordpools/wasnorm_wordpool_less_exclusions.txt	LTP164	ltpFR	0	13	0	ATOM	55	n/a	n/a	n/a	n/a	n/a	n/a	n/a	n/a
3493.706	n/a	WORD	1746853	wordpools/wasnorm_wordpool_less_exclusions.txt	LTP164	ltpFR	0	14	0	SHORE	1291	n/a	n/a	0	0.422607421875	0.5869140625	0	lower	zerothre.ttf
3497.606	n/a	WORD	1748803	wordpools/wasnorm_wordpool_less_exclusions.txt	LTP164	ltpFR	0	14	0	JUNGLE	764	n/a	n/a	0	0.422607421875	0.5869140625	0	lower	zerothre.ttf
3501.512	n/a	WORD	1750756	wordpools/wasnorm_wordpool_less_exclusions.txt	LTP164	ltpFR	0	14	1	PUMP	1141	n/a	n/a	n/a	0.57763671875	0.412841796875	1	upper	amplitud.ttf
3504.536	n/a	SLOW_MSG	1752268	n/a	LTP164	ltpFR	0	14	n/a	n/a	n/a	n/a	n/a	n/a	n/a	n/a	n/a	n/a	n/a
3507.192	n/a	WORD	1753596	wordpools/wasnorm_wordpool_less_exclusions.txt	LTP164	ltpFR	0	14	1	COYOTE	396	n/a	n/a	1	0.57763671875	0.412841796875	1	upper	amplitud.ttf
3511.258	n/a	WORD	1755629	wordpools/wasnorm_wordpool_less_exclusions.txt	LTP164	ltpFR	0	14	1	SEAL	1262	n/a	n/a	1	0.57763671875	0.412841796875	1	upper	amplitud.ttf
3515.116	n/a	WORD	1757558	wordpools/wasnorm_wordpool_less_exclusions.txt	LTP164	ltpFR	0	14	0	CAMEL	223	n/a	n/a	n/a	0.422607421875	0.5869140625	0	lower	zerothre.ttf
3518.14	n/a	SLOW_MSG	1759070	n/a	LTP164	ltpFR	0	14	n/a	n/a	n/a	n/a	n/a	n/a	n/a	n/a	n/a	n/a	n/a
3520.656	n/a	WORD	1760328	wordpools/wasnorm_wordpool_less_exclusions.txt	LTP164	ltpFR	0	14	0	CHISEL	305	n/a	n/a	0	0.422607421875	0.5869140625	0	lower	zerothre.ttf
3524.506	n/a	WORD	1762253	wordpools/wasnorm_wordpool_less_exclusions.txt	LTP164	ltpFR	0	14	0	BARK	87	n/a	n/a	n/a	0.422607421875	0.5869140625	0	lower	zerothre.ttf
3527.53	n/a	SLOW_MSG	1763765	n/a	LTP164	ltpFR	0	14	n/a	n/a	n/a	n/a	n/a	n/a	n/a	n/a	n/a	n/a	n/a
3529.994	n/a	WORD	1764997	wordpools/wasnorm_wordpool_less_exclusions.txt	LTP164	ltpFR	0	14	0	COW	393	n/a	n/a	0	0.422607421875	0.5869140625	0	lower	zerothre.ttf
3533.928	n/a	WORD	1766964	wordpools/wasnorm_wordpool_less_exclusions.txt	LTP164	ltpFR	0	14	0	BATTERY	101	n/a	n/a	n/a	0.422607421875	0.5869140625	0	lower	zerothre.ttf
3536.952	n/a	SLOW_MSG	1768476	n/a	LTP164	ltpFR	0	14	n/a	n/a	n/a	n/a	n/a	n/a	n/a	n/a	n/a	n/a	n/a
3539.434	n/a	WORD	1769717	wordpools/wasnorm_wordpool_less_exclusions.txt	LTP164	ltpFR	0	14	0	BRAKE	166	n/a	n/a	0	0.422607421875	0.5869140625	0	lower	zerothre.ttf
3543.274	n/a	WORD	1771637	wordpools/wasnorm_wordpool_less_exclusions.txt	LTP164	ltpFR	0	14	1	SWORD	1423	n/a	n/a	0	0.57763671875	0.412841796875	1	upper	amplitud.ttf
3547.248	n/a	WORD	1773624	wordpools/wasnorm_wordpool_less_exclusions.txt	LTP164	ltpFR	0	14	1	FORK	594	n/a	n/a	0	0.57763671875	0.412841796875	1	upper	amplitud.ttf
3551.196	n/a	WORD	1775598	wordpools/wasnorm_wordpool_less_exclusions.txt	LTP164	ltpFR	0	14	1	BATHTUB	100	n/a	n/a	0	0.57763671875	0.412841796875	1	upper	amplitud.ttf
3555.104	n/a	WORD	1777552	wordpools/wasnorm_wordpool_less_exclusions.txt	LTP164	ltpFR	0	14	1	ROCK	1201	n/a	n/a	0	0.57763671875	0.412841796875	1	upper	amplitud.ttf
3559.194	n/a	WORD	1779597	wordpools/wasnorm_wordpool_less_exclusions.txt	LTP164	ltpFR	0	14	1	STUDENT	1395	n/a	n/a	1	0.57763671875	0.412841796875	1	upper	amplitud.ttf
3564.86	n/a	REC_START	1782430	n/a	LTP164	ltpFR	0	14	n/a	n/a	n/a	n/a	n/a	n/a	n/a	n/a	n/a	n/a	n/a
3567.966	n/a	REC_WORD	1783983	wordpools/wasnorm_wordpool_less_exclusions.txt	LTP164	ltpFR	0	14	1	STUDENT	1395	n/a	n/a	1	n/a	n/a	n/a	n/a	n/a
3569.064	n/a	REC_WORD	1784532	wordpools/wasnorm_wordpool_less_exclusions.txt	LTP164	ltpFR	0	14	1	BATHTUB	100	n/a	n/a	0	n/a	n/a	n/a	n/a	n/a
3570.064	n/a	REC_WORD_VV	1785032	wordpools/wasnorm_wordpool_less_exclusions.txt	LTP164	ltpFR	0	14	n/a	<>	-1	n/a	n/a	n/a	n/a	n/a	n/a	n/a	n/a
3570.596	n/a	REC_WORD	1785298	wordpools/wasnorm_wordpool_less_exclusions.txt	LTP164	ltpFR	0	14	1	FORK	594	n/a	n/a	0	n/a	n/a	n/a	n/a	n/a
3572.124	n/a	REC_WORD	1786062	wordpools/wasnorm_wordpool_less_exclusions.txt	LTP164	ltpFR	0	14	0	COW	393	n/a	n/a	0	n/a	n/a	n/a	n/a	n/a
3583.138	n/a	REC_WORD	1791569	wordpools/wasnorm_wordpool_less_exclusions.txt	LTP164	ltpFR	0	14	1	ROCK	1201	n/a	n/a	0	n/a	n/a	n/a	n/a	n/a
3619.1	n/a	REC_WORD	1809550	wordpools/wasnorm_wordpool_less_exclusions.txt	LTP164	ltpFR	0	14	0	SHARK	1275	n/a	n/a	0	n/a	n/a	n/a	n/a	n/a
3655.624	n/a	WORD	1827812	wordpools/wasnorm_wordpool_less_exclusions.txt	LTP164	ltpFR	0	15	1	FIREPLACE	570	n/a	n/a	0	0.57763671875	0.412841796875	1	upper	amplitud.ttf
3659.456	n/a	WORD	1829728	wordpools/wasnorm_wordpool_less_exclusions.txt	LTP164	ltpFR	0	15	1	FIREMAN	569	n/a	n/a	1	0.57763671875	0.412841796875	1	upper	amplitud.ttf
3663.288	n/a	WORD	1831644	wordpools/wasnorm_wordpool_less_exclusions.txt	LTP164	ltpFR	0	15	1	OFFICE	972	n/a	n/a	0	0.57763671875	0.412841796875	1	upper	amplitud.ttf
3667.354	n/a	WORD	1833677	wordpools/wasnorm_wordpool_less_exclusions.txt	LTP164	ltpFR	0	15	1	VESSEL	1558	n/a	n/a	n/a	0.57763671875	0.412841796875	1	upper	amplitud.ttf
3670.378	n/a	SLOW_MSG	1835189	n/a	LTP164	ltpFR	0	15	n/a	n/a	n/a	n/a	n/a	n/a	n/a	n/a	n/a	n/a	n/a
3672.81	n/a	WORD	1836405	wordpools/wasnorm_wordpool_less_exclusions.txt	LTP164	ltpFR	0	15	0	PARSLEY	1016	n/a	n/a	n/a	0.422607421875	0.5869140625	0	lower	zerothre.ttf
3675.834	n/a	SLOW_MSG	1837917	n/a	LTP164	ltpFR	0	15	n/a	n/a	n/a	n/a	n/a	n/a	n/a	n/a	n/a	n/a	n/a
3678.476	n/a	WORD	1839238	wordpools/wasnorm_wordpool_less_exclusions.txt	LTP164	ltpFR	0	15	0	SAILOR	1223	n/a	n/a	1	0.422607421875	0.5869140625	0	lower	zerothre.ttf
3682.566	n/a	WORD	1841283	wordpools/wasnorm_wordpool_less_exclusions.txt	LTP164	ltpFR	0	15	0	MAJOR	859	n/a	n/a	1	0.422607421875	0.5869140625	0	lower	zerothre.ttf
3686.574	n/a	WORD	1843287	wordpools/wasnorm_wordpool_less_exclusions.txt	LTP164	ltpFR	0	15	0	BUILDER	190	n/a	n/a	1	0.422607421875	0.5869140625	0	lower	zerothre.ttf
3690.77	n/a	WORD	1845385	wordpools/wasnorm_wordpool_less_exclusions.txt	LTP164	ltpFR	0	15	0	CORPORATION	382	n/a	n/a	1	0.422607421875	0.5869140625	0	lower	zerothre.ttf
3694.886	n/a	WORD	1847443	wordpools/wasnorm_wordpool_less_exclusions.txt	LTP164	ltpFR	0	15	1	WALLET	1583	n/a	n/a	0	0.57763671875	0.412841796875	1	upper	amplitud.ttf
3698.902	n/a	WORD	1849451	wordpools/wasnorm_wordpool_less_exclusions.txt	LTP164	ltpFR	0	15	1	MARINE	869	n/a	n/a	0	0.57763671875	0.412841796875	1	upper	amplitud.ttf
3703.076	n/a	WORD	1851538	wordpools/wasnorm_wordpool_less_exclusions.txt	LTP164	ltpFR	0	15	1	CELERY	266	n/a	n/a	1	0.57763671875	0.412841796875	1	upper	amplitud.ttf
3707.142	n/a	WORD	1853571	wordpools/wasnorm_wordpool_less_exclusions.txt	LTP164	ltpFR	0	15	1	GLUE	643	n/a	n/a	0	0.57763671875	0.412841796875	1	upper	amplitud.ttf
3711.098	n/a	WORD	1855549	wordpools/wasnorm_wordpool_less_exclusions.txt	LTP164	ltpFR	0	15	0	CAPTAIN	239	n/a	n/a	1	0.422607421875	0.5869140625	0	lower	zerothre.ttf
3714.946	n/a	WORD	1857473	wordpools/wasnorm_wordpool_less_exclusions.txt	LTP164	ltpFR	0	15	0	WAREHOUSE	1588	n/a	n/a	1	0.422607421875	0.5869140625	0	lower	zerothre.ttf
3719.036	n/a	WORD	1859518	wordpools/wasnorm_wordpool_less_exclusions.txt	LTP164	ltpFR	0	15	0	LIZARD	834	n/a	n/a	n/a	0.422607421875	0.5869140625	0	lower	zerothre.ttf
3722.062	n/a	SLOW_MSG	1861031	n/a	LTP164	ltpFR	0	15	n/a	n/a	n/a	n/a	n/a	n/a	n/a	n/a	n/a	n/a	n/a
3726.244	n/a	REC_START	1863122	n/a	LTP164	ltpFR	0	15	n/a	n/a	n/a	n/a	n/a	n/a	n/a	n/a	n/a	n/a	n/a
3729.602	n/a	REC_WORD	1864801	wordpools/wasnorm_wordpool_less_exclusions.txt	LTP164	ltpFR	0	15	0	LIZARD	834	n/a	n/a	n/a	n/a	n/a	n/a	n/a	n/a
3732.29	n/a	REC_WORD	1866145	wordpools/wasnorm_wordpool_less_exclusions.txt	LTP164	ltpFR	0	15	0	CAPTAIN	239	n/a	n/a	1	n/a	n/a	n/a	n/a	n/a
3735.244	n/a	REC_WORD	1867622	wordpools/wasnorm_wordpool_less_exclusions.txt	LTP164	ltpFR	0	15	0	WAREHOUSE	1588	n/a	n/a	1	n/a	n/a	n/a	n/a	n/a
3736.244	n/a	REC_WORD_VV	1868122	wordpools/wasnorm_wordpool_less_exclusions.txt	LTP164	ltpFR	0	15	n/a	<>	-1	n/a	n/a	n/a	n/a	n/a	n/a	n/a	n/a
3823.03	n/a	WORD	1911515	wordpools/wasnorm_wordpool_less_exclusions.txt	LTP164	ltpFR	0	16	1	CARNIVAL	245	n/a	n/a	n/a	0.57763671875	0.412841796875	1	upper	amplitud.ttf
3826.054	n/a	SLOW_MSG	1913027	n/a	LTP164	ltpFR	0	16	n/a	n/a	n/a	n/a	n/a	n/a	n/a	n/a	n/a	n/a	n/a
3828.546	n/a	WORD	1914273	wordpools/wasnorm_wordpool_less_exclusions.txt	LTP164	ltpFR	0	16	1	TAG	1429	n/a	n/a	0	0.57763671875	0.412841796875	1	upper	amplitud.ttf
3832.686	n/a	WORD	1916343	wordpools/wasnorm_wordpool_less_exclusions.txt	LTP164	ltpFR	0	16	1	LENS	811	n/a	n/a	0	0.57763671875	0.412841796875	1	upper	amplitud.ttf
3836.562	n/a	WORD	1918281	wordpools/wasnorm_wordpool_less_exclusions.txt	LTP164	ltpFR	0	16	1	ISLAND	745	n/a	n/a	0	0.57763671875	0.412841796875	1	upper	amplitud.ttf
3840.726	n/a	WORD	1920363	wordpools/wasnorm_wordpool_less_exclusions.txt	LTP164	ltpFR	0	16	0	BAND	78	n/a	n/a	n/a	0.422607421875	0.5869140625	0	lower	zerothre.ttf
3843.75	n/a	SLOW_MSG	1921875	n/a	LTP164	ltpFR	0	16	n/a	n/a	n/a	n/a	n/a	n/a	n/a	n/a	n/a	n/a	n/a
3846.416	n/a	WORD	1923208	wordpools/wasnorm_wordpool_less_exclusions.txt	LTP164	ltpFR	0	16	0	ALBUM	14	n/a	n/a	0	0.422607421875	0.5869140625	0	lower	zerothre.ttf
3850.614	n/a	WORD	1925307	wordpools/wasnorm_wordpool_less_exclusions.txt	LTP164	ltpFR	0	16	0	SHED	1277	n/a	n/a	0	0.422607421875	0.5869140625	0	lower	zerothre.ttf
3854.682	n/a	WORD	1927341	wordpools/wasnorm_wordpool_less_exclusions.txt	LTP164	ltpFR	0	16	1	WATER	1594	n/a	n/a	n/a	0.57763671875	0.412841796875	1	upper	amplitud.ttf
3857.706	n/a	SLOW_MSG	1928853	n/a	LTP164	ltpFR	0	16	n/a	n/a	n/a	n/a	n/a	n/a	n/a	n/a	n/a	n/a	n/a
3860.112	n/a	WORD	1930056	wordpools/wasnorm_wordpool_less_exclusions.txt	LTP164	ltpFR	0	16	1	HAWK	692	n/a	n/a	0	0.57763671875	0.412841796875	1	upper	amplitud.ttf
3864.126	n/a	WORD	1932063	wordpools/wasnorm_wordpool_less_exclusions.txt	LTP164	ltpFR	0	16	0	GODDESS	646	n/a	n/a	0	0.422607421875	0.5869140625	0	lower	zerothre.ttf
3868.116	n/a	WORD	1934058	wordpools/wasnorm_wordpool_less_exclusions.txt	LTP164	ltpFR	0	16	0	CAULIFLOWER	262	n/a	n/a	n/a	0.422607421875	0.5869140625	0	lower	zerothre.ttf
3871.14	n/a	SLOW_MSG	1935570	n/a	LTP164	ltpFR	0	16	n/a	n/a	n/a	n/a	n/a	n/a	n/a	n/a	n/a	n/a	n/a
3873.5	n/a	WORD	1936750	wordpools/wasnorm_wordpool_less_exclusions.txt	LTP164	ltpFR	0	16	0	RIVER	1194	n/a	n/a	3	0.422607421875	0.5869140625	0	lower	zerothre.ttf
3874.998	n/a	KEY_MSG	1937499	n/a	LTP164	ltpFR	0	16	n/a	n/a	n/a	n/a	n/a	n/a	n/a	n/a	n/a	n/a	n/a
3877.566	n/a	WORD	1938783	wordpools/wasnorm_wordpool_less_exclusions.txt	LTP164	ltpFR	0	16	0	CARDINAL	244	n/a	n/a	0	0.422607421875	0.5869140625	0	lower	zerothre.ttf
3881.506	n/a	WORD	1940753	wordpools/wasnorm_wordpool_less_exclusions.txt	LTP164	ltpFR	0	16	0	POSSUM	1112	n/a	n/a	0	0.422607421875	0.5869140625	0	lower	zerothre.ttf
3885.372	n/a	WORD	1942686	wordpools/wasnorm_wordpool_less_exclusions.txt	LTP164	ltpFR	0	16	1	CREATURE	403	n/a	n/a	n/a	0.57763671875	0.412841796875	1	upper	amplitud.ttf
3888.396	n/a	SLOW_MSG	1944198	n/a	LTP164	ltpFR	0	16	n/a	n/a	n/a	n/a	n/a	n/a	n/a	n/a	n/a	n/a	n/a
3890.736	n/a	WORD	1945368	wordpools/wasnorm_wordpool_less_exclusions.txt	LTP164	ltpFR	0	16	1	UNDERWEAR	1537	n/a	n/a	0	0.57763671875	0.412841796875	1	upper	amplitud.ttf
3896.802	n/a	REC_START	1948401	n/a	LTP164	ltpFR	0	16	n/a	n/a	n/a	n/a	n/a	n/a	n/a	n/a	n/a	n/a	n/a
3901.042	n/a	REC_WORD	1950521	wordpools/wasnorm_wordpool_less_exclusions.txt	LTP164	ltpFR	0	16	1	UNDERWEAR	1537	n/a	n/a	0	n/a	n/a	n/a	n/a	n/a
3902.042	n/a	REC_WORD_VV	1951021	wordpools/wasnorm_wordpool_less_exclusions.txt	LTP164	ltpFR	0	16	n/a	<>	-1	n/a	n/a	n/a	n/a	n/a	n/a	n/a	n/a
3907.652	n/a	REC_WORD	1953826	wordpools/wasnorm_wordpool_less_exclusions.txt	LTP164	ltpFR	0	16	0	CARDINAL	244	n/a	n/a	0	n/a	n/a	n/a	n/a	n/a
3909.152	n/a	REC_WORD	1954576	wordpools/wasnorm_wordpool_less_exclusions.txt	LTP164	ltpFR	0	16	0	POSSUM	1112	n/a	n/a	0	n/a	n/a	n/a	n/a	n/a
3921.96	n/a	REC_WORD_VV	1960980	wordpools/wasnorm_wordpool_less_exclusions.txt	LTP164	ltpFR	0	16	n/a	<>	-1	n/a	n/a	n/a	n/a	n/a	n/a	n/a	n/a
3923.446	n/a	REC_WORD_VV	1961723	wordpools/wasnorm_wordpool_less_exclusions.txt	LTP164	ltpFR	0	16	n/a	<>	-1	n/a	n/a	n/a	n/a	n/a	n/a	n/a	n/a
3924.446	n/a	REC_WORD_VV	1962223	wordpools/wasnorm_wordpool_less_exclusions.txt	LTP164	ltpFR	0	16	n/a	<>	-1	n/a	n/a	n/a	n/a	n/a	n/a	n/a	n/a
4054.812	n/a	REC_START	2027406	n/a	LTP164	ltpFR	0	n/a	n/a	n/a	n/a	n/a	n/a	n/a	n/a	n/a	n/a	n/a	n/a
4057.908	n/a	FFR_REC_WORD	2028954	wordpools/wasnorm_wordpool_less_exclusions.txt	LTP164	ltpFR	0	n/a	1	INTESTINE	742	n/a	n/a	1	n/a	n/a	n/a	n/a	n/a
4058.908	n/a	FFR_REC_WORD_VV	2029454	wordpools/wasnorm_wordpool_less_exclusions.txt	LTP164	ltpFR	0	n/a	n/a	<>	-1	n/a	n/a	n/a	n/a	n/a	n/a	n/a	n/a
4062.216	n/a	FFR_REC_WORD	2031108	wordpools/wasnorm_wordpool_less_exclusions.txt	LTP164	ltpFR	0	n/a	-1	ABDOMEN	1	n/a	n/a	-1	n/a	n/a	n/a	n/a	n/a
4068.038	n/a	FFR_REC_WORD	2034019	wordpools/wasnorm_wordpool_less_exclusions.txt	LTP164	ltpFR	0	n/a	1	COLONEL	348	n/a	n/a	1	n/a	n/a	n/a	n/a	n/a
4070.322	n/a	FFR_REC_WORD	2035161	wordpools/wasnorm_wordpool_less_exclusions.txt	LTP164	ltpFR	0	n/a	0	CAPTAIN	239	n/a	n/a	1	n/a	n/a	n/a	n/a	n/a
4073.246	n/a	FFR_REC_WORD	2036623	wordpools/wasnorm_wordpool_less_exclusions.txt	LTP164	ltpFR	0	n/a	-1	SHRIMP	1297	n/a	n/a	-1	n/a	n/a	n/a	n/a	n/a
4076.058	n/a	FFR_REC_WORD	2038029	wordpools/wasnorm_wordpool_less_exclusions.txt	LTP164	ltpFR	0	n/a	-1	SEAFOOD	1260	n/a	n/a	-1	n/a	n/a	n/a	n/a	n/a
4077.058	n/a	FFR_REC_WORD_VV	2038529	wordpools/wasnorm_wordpool_less_exclusions.txt	LTP164	ltpFR	0	n/a	n/a	<>	-1	n/a	n/a	n/a	n/a	n/a	n/a	n/a	n/a
4082.322	n/a	FFR_REC_WORD_VV	2041161	wordpools/wasnorm_wordpool_less_exclusions.txt	LTP164	ltpFR	0	n/a	n/a	<>	-1	n/a	n/a	n/a	n/a	n/a	n/a	n/a	n/a
4084.934	n/a	FFR_REC_WORD	2042467	wordpools/wasnorm_wordpool_less_exclusions.txt	LTP164	ltpFR	0	n/a	1	CRAB	397	n/a	n/a	1	n/a	n/a	n/a	n/a	n/a
4085.934	n/a	FFR_REC_WORD_VV	2042967	wordpools/wasnorm_wordpool_less_exclusions.txt	LTP164	ltpFR	0	n/a	n/a	<>	-1	n/a	n/a	n/a	n/a	n/a	n/a	n/a	n/a
4100.57	n/a	FFR_REC_WORD_VV	2050285	wordpools/wasnorm_wordpool_less_exclusions.txt	LTP164	ltpFR	0	n/a	n/a	<>	-1	n/a	n/a	n/a	n/a	n/a	n/a	n/a	n/a
4102.56	n/a	FFR_REC_WORD	2051280	wordpools/wasnorm_wordpool_less_exclusions.txt	LTP164	ltpFR	0	n/a	0	CONTINENT	367	n/a	n/a	1	n/a	n/a	n/a	n/a	n/a
4104.8	n/a	FFR_REC_WORD	2052400	wordpools/wasnorm_wordpool_less_exclusions.txt	LTP164	ltpFR	0	n/a	0	EUROPE	541	n/a	n/a	1	n/a	n/a	n/a	n/a	n/a
4106.956	n/a	FFR_REC_WORD	2053478	wordpools/wasnorm_wordpool_less_exclusions.txt	LTP164	ltpFR	0	n/a	1	GLOBE	641	n/a	n/a	0	n/a	n/a	n/a	n/a	n/a
4116.23	n/a	FFR_REC_WORD	2058115	wordpools/wasnorm_wordpool_less_exclusions.txt	LTP164	ltpFR	0	n/a	1	SURF	1412	n/a	n/a	0	n/a	n/a	n/a	n/a	n/a
4121.34	n/a	FFR_REC_WORD	2060670	wordpools/wasnorm_wordpool_less_exclusions.txt	LTP164	ltpFR	0	n/a	1	WATER	1594	n/a	n/a	n/a	n/a	n/a	n/a	n/a	n/a
4171.002	n/a	FFR_REC_WORD	2085501	wordpools/wasnorm_wordpool_less_exclusions.txt	LTP164	ltpFR	0	n/a	-1	QUAIL	1147	n/a	n/a	-1	n/a	n/a	n/a	n/a	n/a
4179.24	n/a	FFR_REC_WORD	2089620	wordpools/wasnorm_wordpool_less_exclusions.txt	LTP164	ltpFR	0	n/a	1	RODENT	1204	n/a	n/a	1	n/a	n/a	n/a	n/a	n/a
4191.058	n/a	FFR_REC_WORD	2095529	wordpools/wasnorm_wordpool_less_exclusions.txt	LTP164	ltpFR	0	n/a	1	WHEAT	1602	n/a	n/a	0	n/a	n/a	n/a	n/a	n/a
4220.534	n/a	FFR_REC_WORD	2110267	wordpools/wasnorm_wordpool_less_exclusions.txt	LTP164	ltpFR	0	n/a	1	FIREMAN	569	n/a	n/a	1	n/a	n/a	n/a	n/a	n/a
4248.98	n/a	FFR_REC_WORD	2124490	wordpools/wasnorm_wordpool_less_exclusions.txt	LTP164	ltpFR	0	n/a	1	TUXEDO	1525	n/a	n/a	0	n/a	n/a	n/a	n/a	n/a
4251.456	n/a	FFR_REC_WORD	2125728	wordpools/wasnorm_wordpool_less_exclusions.txt	LTP164	ltpFR	0	n/a	1	LIMOUSINE	824	n/a	n/a	0	n/a	n/a	n/a	n/a	n/a
4258.204	n/a	FFR_REC_WORD	2129102	wordpools/wasnorm_wordpool_less_exclusions.txt	LTP164	ltpFR	0	n/a	1	SLEEVE	1324	n/a	n/a	0	n/a	n/a	n/a	n/a	n/a
4260.69	n/a	FFR_REC_WORD	2130345	wordpools/wasnorm_wordpool_less_exclusions.txt	LTP164	ltpFR	0	n/a	0	CAPE	237	n/a	n/a	1	n/a	n/a	n/a	n/a	n/a
4267.18	n/a	FFR_REC_WORD	2133590	wordpools/wasnorm_wordpool_less_exclusions.txt	LTP164	ltpFR	0	n/a	0	MEAL	882	n/a	n/a	1	n/a	n/a	n/a	n/a	n/a
4277.512	n/a	FFR_REC_WORD	2138756	wordpools/wasnorm_wordpool_less_exclusions.txt	LTP164	ltpFR	0	n/a	-1	DUCK	504	n/a	n/a	-1	n/a	n/a	n/a	n/a	n/a
4347.436	n/a	FFR_REC_WORD	2173718	wordpools/wasnorm_wordpool_less_exclusions.txt	LTP164	ltpFR	0	n/a	0	ATOM	55	n/a	n/a	n/a	n/a	n/a	n/a	n/a	n/a
4348.436	n/a	FFR_REC_WORD_VV	2174218	wordpools/wasnorm_wordpool_less_exclusions.txt	LTP164	ltpFR	0	n/a	n/a	<>	-1	n/a	n/a	n/a	n/a	n/a	n/a	n/a	n/a
4351.544	n/a	FFR_REC_WORD_VV	2175772	wordpools/wasnorm_wordpool_less_exclusions.txt	LTP164	ltpFR	0	n/a	n/a	<>	-1	n/a	n/a	n/a	n/a	n/a	n/a	n/a	n/a
4662.78	n/a	REC_START	2331390	n/a	LTP164	ltpFR	0	1	n/a	n/a	n/a	n/a	n/a	n/a	n/a	n/a	n/a	n/a	n/a
4662.81	n/a	RECOG_TARGET	2331405	n/a	LTP164	ltpFR	0	1	0	DAM	436	0	3	1	n/a	n/a	n/a	n/a	n/a
4667.018	n/a	RECOG_RESP	2333509	n/a	LTP164	ltpFR	0	1	0	DAM	436	0	n/a	1	n/a	n/a	n/a	n/a	n/a
4677.2	n/a	RECOG_CONF	2338600	n/a	LTP164	ltpFR	0	1	0	DAM	436	n/a	3	1	n/a	n/a	n/a	n/a	n/a
4682.73	n/a	RECOG_TARGET	2341365	n/a	LTP164	ltpFR	0	1	1	SOCK	1339	1	5	0	n/a	n/a	n/a	n/a	n/a
4685.682	n/a	RECOG_RESP	2342841	n/a	LTP164	ltpFR	0	1	1	SOCK	1339	1	n/a	0	n/a	n/a	n/a	n/a	n/a
4692.856	n/a	RECOG_CONF	2346428	n/a	LTP164	ltpFR	0	1	1	SOCK	1339	n/a	5	0	n/a	n/a	n/a	n/a	n/a
4697.35	n/a	RECOG_TARGET	2348675	n/a	LTP164	ltpFR	0	1	1	PISTON	1076	0	2	0	n/a	n/a	n/a	n/a	n/a
4700.096	n/a	RECOG_RESP	2350048	n/a	LTP164	ltpFR	0	1	1	PISTON	1076	0	n/a	0	n/a	n/a	n/a	n/a	n/a
4706.624	n/a	RECOG_CONF	2353312	n/a	LTP164	ltpFR	0	1	1	PISTON	1076	n/a	2	0	n/a	n/a	n/a	n/a	n/a
4709.422	n/a	RECOG_LURE	2354711	n/a	LTP164	ltpFR	0	1	n/a	UNICORN	1538	0	4	n/a	n/a	n/a	n/a	n/a	n/a
4714.52	n/a	RECOG_RESP	2357260	n/a	LTP164	ltpFR	0	1	n/a	UNICORN	1538	0	n/a	n/a	n/a	n/a	n/a	n/a	n/a
4722.432	n/a	RECOG_CONF	2361216	n/a	LTP164	ltpFR	0	1	n/a	UNICORN	1538	n/a	4	n/a	n/a	n/a	n/a	n/a	n/a
4725.776	n/a	RECOG_TARGET	2362888	n/a	LTP164	ltpFR	0	1	0	SIRLOIN	1311	1	5	0	n/a	n/a	n/a	n/a	n/a
4728.62	n/a	RECOG_RESP	2364310	n/a	LTP164	ltpFR	0	1	0	SIRLOIN	1311	1	n/a	0	n/a	n/a	n/a	n/a	n/a
4734.438	n/a	RECOG_CONF	2367219	n/a	LTP164	ltpFR	0	1	0	SIRLOIN	1311	n/a	5	0	n/a	n/a	n/a	n/a	n/a
4737.454	n/a	RECOG_LURE	2368727	n/a	LTP164	ltpFR	0	1	n/a	ROOM	1206	1	5	n/a	n/a	n/a	n/a	n/a	n/a
4740.19	n/a	RECOG_RESP	2370095	n/a	LTP164	ltpFR	0	1	n/a	ROOM	1206	1	n/a	n/a	n/a	n/a	n/a	n/a	n/a
4743.53	n/a	RECOG_CONF	2371765	n/a	LTP164	ltpFR	0	1	n/a	ROOM	1206	n/a	5	n/a	n/a	n/a	n/a	n/a	n/a
4746.136	n/a	RECOG_LURE	2373068	n/a	LTP164	ltpFR	0	1	n/a	WALRUS	1585	0	2	n/a	n/a	n/a	n/a	n/a	n/a
4750.418	n/a	RECOG_RESP	2375209	n/a	LTP164	ltpFR	0	1	n/a	WALRUS	1585	0	n/a	n/a	n/a	n/a	n/a	n/a	n/a
4757.05	n/a	RECOG_CONF	2378525	n/a	LTP164	ltpFR	0	1	n/a	WALRUS	1585	n/a	2	n/a	n/a	n/a	n/a	n/a	n/a
4759.466	n/a	RECOG_TARGET	2379733	n/a	LTP164	ltpFR	0	1	1	SHRUB	1299	1	5	1	n/a	n/a	n/a	n/a	n/a
4762.238	n/a	RECOG_RESP	2381119	n/a	LTP164	ltpFR	0	1	1	SHRUB	1299	1	n/a	1	n/a	n/a	n/a	n/a	n/a
4764.942	n/a	RECOG_CONF	2382471	n/a	LTP164	ltpFR	0	1	1	SHRUB	1299	n/a	5	1	n/a	n/a	n/a	n/a	n/a
4767.328	n/a	RECOG_TARGET	2383664	n/a	LTP164	ltpFR	0	1	1	DAISY	435	1	5	1	n/a	n/a	n/a	n/a	n/a
4769.372	n/a	RECOG_RESP	2384686	n/a	LTP164	ltpFR	0	1	1	DAISY	435	1	n/a	1	n/a	n/a	n/a	n/a	n/a
4773.456	n/a	RECOG_CONF	2386728	n/a	LTP164	ltpFR	0	1	1	DAISY	435	n/a	5	1	n/a	n/a	n/a	n/a	n/a
4775.728	n/a	RECOG_LURE	2387864	n/a	LTP164	ltpFR	0	1	n/a	MALL	860	1	4	n/a	n/a	n/a	n/a	n/a	n/a
4779.134	n/a	RECOG_RESP	2389567	n/a	LTP164	ltpFR	0	1	n/a	MALL	860	1	n/a	n/a	n/a	n/a	n/a	n/a	n/a
4782.918	n/a	RECOG_CONF	2391459	n/a	LTP164	ltpFR	0	1	n/a	MALL	860	n/a	4	n/a	n/a	n/a	n/a	n/a	n/a
4785.432	n/a	RECOG_TARGET	2392716	n/a	LTP164	ltpFR	0	1	0	INSTRUCTOR	741	1	5	1	n/a	n/a	n/a	n/a	n/a
4789.268	n/a	RECOG_RESP	2394634	n/a	LTP164	ltpFR	0	1	0	INSTRUCTOR	741	1	n/a	1	n/a	n/a	n/a	n/a	n/a
4792.946	n/a	RECOG_CONF	2396473	n/a	LTP164	ltpFR	0	1	0	INSTRUCTOR	741	n/a	5	1	n/a	n/a	n/a	n/a	n/a
4795.046	n/a	RECOG_TARGET	2397523	n/a	LTP164	ltpFR	0	1	-1	TURNIP	1521	1	5	-1	n/a	n/a	n/a	n/a	n/a
4796.528	n/a	RECOG_RESP	2398264	n/a	LTP164	ltpFR	0	1	-1	TURNIP	1521	1	n/a	-1	n/a	n/a	n/a	n/a	n/a
4799.302	n/a	RECOG_CONF	2399651	n/a	LTP164	ltpFR	0	1	-1	TURNIP	1521	n/a	5	-1	n/a	n/a	n/a	n/a	n/a
4801.586	n/a	RECOG_TARGET	2400793	n/a	LTP164	ltpFR	0	1	0	EUROPE	541	1	5	1	n/a	n/a	n/a	n/a	n/a
4802.566	n/a	RECOG_RESP	2401283	n/a	LTP164	ltpFR	0	1	0	EUROPE	541	1	n/a	1	n/a	n/a	n/a	n/a	n/a
4806.518	n/a	RECOG_CONF	2403259	n/a	LTP164	ltpFR	0	1	0	EUROPE	541	n/a	5	1	n/a	n/a	n/a	n/a	n/a
4808.576	n/a	RECOG_TARGET	2404288	n/a	LTP164	ltpFR	0	1	-1	LAMB	797	1	5	-1	n/a	n/a	n/a	n/a	n/a
4809.974	n/a	RECOG_RESP	2404987	n/a	LTP164	ltpFR	0	1	-1	LAMB	797	1	n/a	-1	n/a	n/a	n/a	n/a	n/a
4812.128	n/a	RECOG_CONF	2406064	n/a	LTP164	ltpFR	0	1	-1	LAMB	797	n/a	5	-1	n/a	n/a	n/a	n/a	n/a
4814.45	n/a	RECOG_TARGET	2407225	n/a	LTP164	ltpFR	0	1	1	MOUSE	925	0	3	1	n/a	n/a	n/a	n/a	n/a
4818.974	n/a	RECOG_RESP	2409487	n/a	LTP164	ltpFR	0	1	1	MOUSE	925	0	n/a	1	n/a	n/a	n/a	n/a	n/a
4822.882	n/a	RECOG_CONF	2411441	n/a	LTP164	ltpFR	0	1	1	MOUSE	925	n/a	3	1	n/a	n/a	n/a	n/a	n/a
4824.836	n/a	RECOG_TARGET	2412418	n/a	LTP164	ltpFR	0	1	1	BUG	187	1	5	1	n/a	n/a	n/a	n/a	n/a
4827.228	n/a	RECOG_RESP	2413614	n/a	LTP164	ltpFR	0	1	1	BUG	187	1	n/a	1	n/a	n/a	n/a	n/a	n/a
4830.274	n/a	RECOG_CONF	2415137	n/a	LTP164	ltpFR	0	1	1	BUG	187	n/a	5	1	n/a	n/a	n/a	n/a	n/a
4831.76	n/a	RECOG_TARGET	2415880	n/a	LTP164	ltpFR	0	1	1	LENS	811	1	5	0	n/a	n/a	n/a	n/a	n/a
4833.566	n/a	RECOG_RESP	2416783	n/a	LTP164	ltpFR	0	1	1	LENS	811	1	n/a	0	n/a	n/a	n/a	n/a	n/a
4836.024	n/a	RECOG_CONF	2418012	n/a	LTP164	ltpFR	0	1	1	LENS	811	n/a	5	0	n/a	n/a	n/a	n/a	n/a
4838.332	n/a	RECOG_TARGET	2419166	n/a	LTP164	ltpFR	0	1	1	INTESTINE	742	1	5	1	n/a	n/a	n/a	n/a	n/a
4839.38	n/a	RECOG_RESP	2419690	n/a	LTP164	ltpFR	0	1	1	INTESTINE	742	1	n/a	1	n/a	n/a	n/a	n/a	n/a
4841.976	n/a	RECOG_CONF	2420988	n/a	LTP164	ltpFR	0	1	1	INTESTINE	742	n/a	5	1	n/a	n/a	n/a	n/a	n/a
4843.306	n/a	RECOG_TARGET	2421653	n/a	LTP164	ltpFR	0	1	-1	GYMNAST	675	0	3	-1	n/a	n/a	n/a	n/a	n/a
4845.632	n/a	RECOG_RESP	2422816	n/a	LTP164	ltpFR	0	1	-1	GYMNAST	675	0	n/a	-1	n/a	n/a	n/a	n/a	n/a
4851.74	n/a	RECOG_CONF	2425870	n/a	LTP164	ltpFR	0	1	-1	GYMNAST	675	n/a	3	-1	n/a	n/a	n/a	n/a	n/a
4853.094	n/a	RECOG_LURE	2426547	n/a	LTP164	ltpFR	0	1	n/a	THRONE	1461	1	4	n/a	n/a	n/a	n/a	n/a	n/a
4855.838	n/a	RECOG_RESP	2427919	n/a	LTP164	ltpFR	0	1	n/a	THRONE	1461	1	n/a	n/a	n/a	n/a	n/a	n/a	n/a
4859.732	n/a	RECOG_CONF	2429866	n/a	LTP164	ltpFR	0	1	n/a	THRONE	1461	n/a	4	n/a	n/a	n/a	n/a	n/a	n/a
4909.246	n/a	REC_START	2454623	n/a	LTP164	ltpFR	0	2	n/a	n/a	n/a	n/a	n/a	n/a	n/a	n/a	n/a	n/a	n/a
4909.278	n/a	RECOG_TARGET	2454639	n/a	LTP164	ltpFR	0	2	1	CHEESE	289	1	5	0	n/a	n/a	n/a	n/a	n/a
4912.988	n/a	RECOG_RESP	2456494	n/a	LTP164	ltpFR	0	2	1	CHEESE	289	1	n/a	0	n/a	n/a	n/a	n/a	n/a
4917.412	n/a	RECOG_CONF	2458706	n/a	LTP164	ltpFR	0	2	1	CHEESE	289	n/a	5	0	n/a	n/a	n/a	n/a	n/a
4919.916	n/a	RECOG_LURE	2459958	n/a	LTP164	ltpFR	0	2	n/a	SAUCER	1237	1	5	n/a	n/a	n/a	n/a	n/a	n/a
4922.588	n/a	RECOG_RESP	2461294	n/a	LTP164	ltpFR	0	2	n/a	SAUCER	1237	1	n/a	n/a	n/a	n/a	n/a	n/a	n/a
4925.576	n/a	RECOG_CONF	2462788	n/a	LTP164	ltpFR	0	2	n/a	SAUCER	1237	n/a	5	n/a	n/a	n/a	n/a	n/a	n/a
4927.93	n/a	RECOG_TARGET	2463965	n/a	LTP164	ltpFR	0	2	1	CELERY	266	1	5	1	n/a	n/a	n/a	n/a	n/a
4929.532	n/a	RECOG_RESP	2464766	n/a	LTP164	ltpFR	0	2	1	CELERY	266	1	n/a	1	n/a	n/a	n/a	n/a	n/a
4933.846	n/a	RECOG_CONF	2466923	n/a	LTP164	ltpFR	0	2	1	CELERY	266	n/a	5	1	n/a	n/a	n/a	n/a	n/a
4936.394	n/a	RECOG_TARGET	2468197	n/a	LTP164	ltpFR	0	2	0	WHEEL	1603	1	5	n/a	n/a	n/a	n/a	n/a	n/a
4938.638	n/a	RECOG_RESP	2469319	n/a	LTP164	ltpFR	0	2	0	WHEEL	1603	1	n/a	n/a	n/a	n/a	n/a	n/a	n/a
4941.788	n/a	RECOG_CONF	2470894	n/a	LTP164	ltpFR	0	2	0	WHEEL	1603	n/a	5	n/a	n/a	n/a	n/a	n/a	n/a
4944.134	n/a	RECOG_TARGET	2472067	n/a	LTP164	ltpFR	0	2	1	RODENT	1204	1	5	1	n/a	n/a	n/a	n/a	n/a
4945.142	n/a	RECOG_RESP	2472571	n/a	LTP164	ltpFR	0	2	1	RODENT	1204	1	n/a	1	n/a	n/a	n/a	n/a	n/a
4949.146	n/a	RECOG_CONF	2474573	n/a	LTP164	ltpFR	0	2	1	RODENT	1204	n/a	5	1	n/a	n/a	n/a	n/a	n/a
4953.614	n/a	RECOG_TARGET	2476807	n/a	LTP164	ltpFR	0	2	-1	CHART	282	1	5	-1	n/a	n/a	n/a	n/a	n/a
4956.086	n/a	RECOG_RESP	2478043	n/a	LTP164	ltpFR	0	2	-1	CHART	282	1	n/a	-1	n/a	n/a	n/a	n/a	n/a
4958.75	n/a	RECOG_CONF	2479375	n/a	LTP164	ltpFR	0	2	-1	CHART	282	n/a	5	-1	n/a	n/a	n/a	n/a	n/a
4961.102	n/a	RECOG_TARGET	2480551	n/a	LTP164	ltpFR	0	2	1	COYOTE	396	1	5	1	n/a	n/a	n/a	n/a	n/a
4962.304	n/a	RECOG_RESP	2481152	n/a	LTP164	ltpFR	0	2	1	COYOTE	396	1	n/a	1	n/a	n/a	n/a	n/a	n/a
4964.644	n/a	RECOG_CONF	2482322	n/a	LTP164	ltpFR	0	2	1	COYOTE	396	n/a	5	1	n/a	n/a	n/a	n/a	n/a
4967.294	n/a	RECOG_TARGET	2483647	n/a	LTP164	ltpFR	0	2	1	SEAL	1262	1	5	1	n/a	n/a	n/a	n/a	n/a
4968.148	n/a	RECOG_RESP	2484074	n/a	LTP164	ltpFR	0	2	1	SEAL	1262	1	n/a	1	n/a	n/a	n/a	n/a	n/a
4973.268	n/a	RECOG_CONF	2486634	n/a	LTP164	ltpFR	0	2	1	SEAL	1262	n/a	5	1	n/a	n/a	n/a	n/a	n/a
4975.398	n/a	RECOG_TARGET	2487699	n/a	LTP164	ltpFR	0	2	1	SWORD	1423	1	5	0	n/a	n/a	n/a	n/a	n/a
4976.158	n/a	RECOG_RESP	2488079	n/a	LTP164	ltpFR	0	2	1	SWORD	1423	1	n/a	0	n/a	n/a	n/a	n/a	n/a
4979.148	n/a	RECOG_CONF	2489574	n/a	LTP164	ltpFR	0	2	1	SWORD	1423	n/a	5	0	n/a	n/a	n/a	n/a	n/a
4981.514	n/a	RECOG_TARGET	2490757	n/a	LTP164	ltpFR	0	2	-1	JUGGLER	763	0	4	-1	n/a	n/a	n/a	n/a	n/a
4983.87	n/a	RECOG_RESP	2491935	n/a	LTP164	ltpFR	0	2	-1	JUGGLER	763	0	n/a	-1	n/a	n/a	n/a	n/a	n/a
4988.306	n/a	RECOG_CONF	2494153	n/a	LTP164	ltpFR	0	2	-1	JUGGLER	763	n/a	4	-1	n/a	n/a	n/a	n/a	n/a
4990.212	n/a	RECOG_TARGET	2495106	n/a	LTP164	ltpFR	0	2	1	WINDSHIELD	1612	1	5	0	n/a	n/a	n/a	n/a	n/a
4991.66	n/a	RECOG_RESP	2495830	n/a	LTP164	ltpFR	0	2	1	WINDSHIELD	1612	1	n/a	0	n/a	n/a	n/a	n/a	n/a
4994.256	n/a	RECOG_CONF	2497128	n/a	LTP164	ltpFR	0	2	1	WINDSHIELD	1612	n/a	5	0	n/a	n/a	n/a	n/a	n/a
4996.4	n/a	RECOG_TARGET	2498200	n/a	LTP164	ltpFR	0	2	1	WELL	1600	1	4	n/a	n/a	n/a	n/a	n/a	n/a
4998.3	n/a	RECOG_RESP	2499150	n/a	LTP164	ltpFR	0	2	1	WELL	1600	1	n/a	n/a	n/a	n/a	n/a	n/a	n/a
5002.036	n/a	RECOG_CONF	2501018	n/a	LTP164	ltpFR	0	2	1	WELL	1600	n/a	4	n/a	n/a	n/a	n/a	n/a	n/a
5003.458	n/a	RECOG_TARGET	2501729	n/a	LTP164	ltpFR	0	2	1	LIMOUSINE	824	1	5	0	n/a	n/a	n/a	n/a	n/a
5004.636	n/a	RECOG_RESP	2502318	n/a	LTP164	ltpFR	0	2	1	LIMOUSINE	824	1	n/a	0	n/a	n/a	n/a	n/a	n/a
5008.52	n/a	RECOG_CONF	2504260	n/a	LTP164	ltpFR	0	2	1	LIMOUSINE	824	n/a	5	0	n/a	n/a	n/a	n/a	n/a
5009.864	n/a	RECOG_TARGET	2504932	n/a	LTP164	ltpFR	0	2	1	CORN	381	1	5	1	n/a	n/a	n/a	n/a	n/a
5012.584	n/a	RECOG_RESP	2506292	n/a	LTP164	ltpFR	0	2	1	CORN	381	1	n/a	1	n/a	n/a	n/a	n/a	n/a
5016.404	n/a	RECOG_CONF	2508202	n/a	LTP164	ltpFR	0	2	1	CORN	381	n/a	5	1	n/a	n/a	n/a	n/a	n/a
5017.662	n/a	RECOG_TARGET	2508831	n/a	LTP164	ltpFR	0	2	1	STREAM	1392	1	5	0	n/a	n/a	n/a	n/a	n/a
5018.888	n/a	RECOG_RESP	2509444	n/a	LTP164	ltpFR	0	2	1	STREAM	1392	1	n/a	0	n/a	n/a	n/a	n/a	n/a
5021.672	n/a	RECOG_CONF	2510836	n/a	LTP164	ltpFR	0	2	1	STREAM	1392	n/a	5	0	n/a	n/a	n/a	n/a	n/a
5022.86	n/a	RECOG_TARGET	2511430	n/a	LTP164	ltpFR	0	2	1	SOCKET	1340	1	5	0	n/a	n/a	n/a	n/a	n/a
5023.904	n/a	RECOG_RESP	2511952	n/a	LTP164	ltpFR	0	2	1	SOCKET	1340	1	n/a	0	n/a	n/a	n/a	n/a	n/a
5026.082	n/a	RECOG_CONF	2513041	n/a	LTP164	ltpFR	0	2	1	SOCKET	1340	n/a	5	0	n/a	n/a	n/a	n/a	n/a
5028.35	n/a	RECOG_TARGET	2514175	n/a	LTP164	ltpFR	0	2	0	CORPORATION	382	1	5	1	n/a	n/a	n/a	n/a	n/a
5029.778	n/a	RECOG_RESP	2514889	n/a	LTP164	ltpFR	0	2	0	CORPORATION	382	1	n/a	1	n/a	n/a	n/a	n/a	n/a
5032.484	n/a	RECOG_CONF	2516242	n/a	LTP164	ltpFR	0	2	0	CORPORATION	382	n/a	5	1	n/a	n/a	n/a	n/a	n/a
5034.574	n/a	RECOG_TARGET	2517287	n/a	LTP164	ltpFR	0	2	0	POTATO	1115	1	4	0	n/a	n/a	n/a	n/a	n/a
5039.674	n/a	RECOG_RESP	2519837	n/a	LTP164	ltpFR	0	2	0	POTATO	1115	1	n/a	0	n/a	n/a	n/a	n/a	n/a
5043.632	n/a	RECOG_CONF	2521816	n/a	LTP164	ltpFR	0	2	0	POTATO	1115	n/a	4	0	n/a	n/a	n/a	n/a	n/a
5045.512	n/a	RECOG_TARGET	2522756	n/a	LTP164	ltpFR	0	2	-1	RADIO	1157	1	2	-1	n/a	n/a	n/a	n/a	n/a
5052.468	n/a	RECOG_RESP	2526234	n/a	LTP164	ltpFR	0	2	-1	RADIO	1157	1	n/a	-1	n/a	n/a	n/a	n/a	n/a
5055.464	n/a	RECOG_CONF	2527732	n/a	LTP164	ltpFR	0	2	-1	RADIO	1157	n/a	2	-1	n/a	n/a	n/a	n/a	n/a
5056.692	n/a	RECOG_TARGET	2528346	n/a	LTP164	ltpFR	0	2	0	PATRIOT	1026	1	3	0	n/a	n/a	n/a	n/a	n/a
5058.854	n/a	RECOG_RESP	2529427	n/a	LTP164	ltpFR	0	2	0	PATRIOT	1026	1	n/a	0	n/a	n/a	n/a	n/a	n/a
5062.002	n/a	RECOG_CONF	2531001	n/a	LTP164	ltpFR	0	2	0	PATRIOT	1026	n/a	3	0	n/a	n/a	n/a	n/a	n/a
5090.442	n/a	REC_START	2545221	n/a	LTP164	ltpFR	0	3	n/a	n/a	n/a	n/a	n/a	n/a	n/a	n/a	n/a	n/a	n/a
5090.474	n/a	RECOG_TARGET	2545237	n/a	LTP164	ltpFR	0	3	-1	HOOP	716	1	5	-1	n/a	n/a	n/a	n/a	n/a
5092.536	n/a	RECOG_RESP	2546268	n/a	LTP164	ltpFR	0	3	-1	HOOP	716	1	n/a	-1	n/a	n/a	n/a	n/a	n/a
5096.264	n/a	RECOG_CONF	2548132	n/a	LTP164	ltpFR	0	3	-1	HOOP	716	n/a	5	-1	n/a	n/a	n/a	n/a	n/a
5098.238	n/a	RECOG_TARGET	2549119	n/a	LTP164	ltpFR	0	3	-1	COBWEB	337	1	5	-1	n/a	n/a	n/a	n/a	n/a
5100.232	n/a	RECOG_RESP	2550116	n/a	LTP164	ltpFR	0	3	-1	COBWEB	337	1	n/a	-1	n/a	n/a	n/a	n/a	n/a
5103.128	n/a	RECOG_CONF	2551564	n/a	LTP164	ltpFR	0	3	-1	COBWEB	337	n/a	5	-1	n/a	n/a	n/a	n/a	n/a
5105.502	n/a	RECOG_TARGET	2552751	n/a	LTP164	ltpFR	0	3	1	OATMEAL	967	0	3	0	n/a	n/a	n/a	n/a	n/a
5107.976	n/a	RECOG_RESP	2553988	n/a	LTP164	ltpFR	0	3	1	OATMEAL	967	0	n/a	0	n/a	n/a	n/a	n/a	n/a
5113.884	n/a	RECOG_CONF	2556942	n/a	LTP164	ltpFR	0	3	1	OATMEAL	967	n/a	3	0	n/a	n/a	n/a	n/a	n/a
5116.056	n/a	RECOG_TARGET	2558028	n/a	LTP164	ltpFR	0	3	-1	WORM	1623	1	5	-1	n/a	n/a	n/a	n/a	n/a
5117.478	n/a	RECOG_RESP	2558739	n/a	LTP164	ltpFR	0	3	-1	WORM	1623	1	n/a	-1	n/a	n/a	n/a	n/a	n/a
5121.378	n/a	RECOG_CONF	2560689	n/a	LTP164	ltpFR	0	3	-1	WORM	1623	n/a	5	-1	n/a	n/a	n/a	n/a	n/a
5123.63	n/a	RECOG_TARGET	2561815	n/a	LTP164	ltpFR	0	3	0	BRIDGE	174	1	5	0	n/a	n/a	n/a	n/a	n/a
5125.854	n/a	RECOG_RESP	2562927	n/a	LTP164	ltpFR	0	3	0	BRIDGE	174	1	n/a	0	n/a	n/a	n/a	n/a	n/a
5128.262	n/a	RECOG_CONF	2564131	n/a	LTP164	ltpFR	0	3	0	BRIDGE	174	n/a	5	0	n/a	n/a	n/a	n/a	n/a
5131.194	n/a	RECOG_LURE	2565597	n/a	LTP164	ltpFR	0	3	n/a	COCKTAIL	338	0	3	n/a	n/a	n/a	n/a	n/a	n/a
5133.144	n/a	RECOG_RESP	2566572	n/a	LTP164	ltpFR	0	3	n/a	COCKTAIL	338	0	n/a	n/a	n/a	n/a	n/a	n/a	n/a
5137.282	n/a	RECOG_CONF	2568641	n/a	LTP164	ltpFR	0	3	n/a	COCKTAIL	338	n/a	3	n/a	n/a	n/a	n/a	n/a	n/a
5139.592	n/a	RECOG_TARGET	2569796	n/a	LTP164	ltpFR	0	3	-1	ABDOMEN	1	1	5	-1	n/a	n/a	n/a	n/a	n/a
5140.854	n/a	RECOG_RESP	2570427	n/a	LTP164	ltpFR	0	3	-1	ABDOMEN	1	1	n/a	-1	n/a	n/a	n/a	n/a	n/a
5145.158	n/a	RECOG_CONF	2572579	n/a	LTP164	ltpFR	0	3	-1	ABDOMEN	1	n/a	5	-1	n/a	n/a	n/a	n/a	n/a
5147.432	n/a	RECOG_TARGET	2573716	n/a	LTP164	ltpFR	0	3	0	LIZARD	834	1	5	n/a	n/a	n/a	n/a	n/a	n/a
5148.912	n/a	RECOG_RESP	2574456	n/a	LTP164	ltpFR	0	3	0	LIZARD	834	1	n/a	n/a	n/a	n/a	n/a	n/a	n/a
5151.526	n/a	RECOG_CONF	2575763	n/a	LTP164	ltpFR	0	3	0	LIZARD	834	n/a	5	n/a	n/a	n/a	n/a	n/a	n/a
5153.87	n/a	RECOG_TARGET	2576935	n/a	LTP164	ltpFR	0	3	-1	SALAD	1224	1	5	-1	n/a	n/a	n/a	n/a	n/a
5155.008	n/a	RECOG_RESP	2577504	n/a	LTP164	ltpFR	0	3	-1	SALAD	1224	1	n/a	-1	n/a	n/a	n/a	n/a	n/a
5157.342	n/a	RECOG_CONF	2578671	n/a	LTP164	ltpFR	0	3	-1	SALAD	1224	n/a	5	-1	n/a	n/a	n/a	n/a	n/a
5159.594	n/a	RECOG_TARGET	2579797	n/a	LTP164	ltpFR	0	3	1	KEEPER	769	1	5	1	n/a	n/a	n/a	n/a	n/a
5161.002	n/a	RECOG_RESP	2580501	n/a	LTP164	ltpFR	0	3	1	KEEPER	769	1	n/a	1	n/a	n/a	n/a	n/a	n/a
5163.594	n/a	RECOG_CONF	2581797	n/a	LTP164	ltpFR	0	3	1	KEEPER	769	n/a	5	1	n/a	n/a	n/a	n/a	n/a
5164.884	n/a	RECOG_LURE	2582442	n/a	LTP164	ltpFR	0	3	n/a	DELINQUENT	445	0	5	n/a	n/a	n/a	n/a	n/a	n/a
5166.494	n/a	RECOG_RESP	2583247	n/a	LTP164	ltpFR	0	3	n/a	DELINQUENT	445	0	n/a	n/a	n/a	n/a	n/a	n/a	n/a
5169.806	n/a	RECOG_CONF	2584903	n/a	LTP164	ltpFR	0	3	n/a	DELINQUENT	445	n/a	5	n/a	n/a	n/a	n/a	n/a	n/a
5171.724	n/a	RECOG_LURE	2585862	n/a	LTP164	ltpFR	0	3	n/a	EMPLOYEE	531	0	5	n/a	n/a	n/a	n/a	n/a	n/a
5173.484	n/a	RECOG_RESP	2586742	n/a	LTP164	ltpFR	0	3	n/a	EMPLOYEE	531	0	n/a	n/a	n/a	n/a	n/a	n/a	n/a
5176.426	n/a	RECOG_CONF	2588213	n/a	LTP164	ltpFR	0	3	n/a	EMPLOYEE	531	n/a	5	n/a	n/a	n/a	n/a	n/a	n/a
5177.672	n/a	RECOG_TARGET	2588836	n/a	LTP164	ltpFR	0	3	0	WAREHOUSE	1588	1	5	1	n/a	n/a	n/a	n/a	n/a
5179.074	n/a	RECOG_RESP	2589537	n/a	LTP164	ltpFR	0	3	0	WAREHOUSE	1588	1	n/a	1	n/a	n/a	n/a	n/a	n/a
5182.302	n/a	RECOG_CONF	2591151	n/a	LTP164	ltpFR	0	3	0	WAREHOUSE	1588	n/a	5	1	n/a	n/a	n/a	n/a	n/a
5184.368	n/a	RECOG_TARGET	2592184	n/a	LTP164	ltpFR	0	3	1	SHELL	1281	1	5	0	n/a	n/a	n/a	n/a	n/a
5185.306	n/a	RECOG_RESP	2592653	n/a	LTP164	ltpFR	0	3	1	SHELL	1281	1	n/a	0	n/a	n/a	n/a	n/a	n/a
5187.82	n/a	RECOG_CONF	2593910	n/a	LTP164	ltpFR	0	3	1	SHELL	1281	n/a	5	0	n/a	n/a	n/a	n/a	n/a
5189.786	n/a	RECOG_LURE	2594893	n/a	LTP164	ltpFR	0	3	n/a	HOOK	715	1	5	n/a	n/a	n/a	n/a	n/a	n/a
5191.05	n/a	RECOG_RESP	2595525	n/a	LTP164	ltpFR	0	3	n/a	HOOK	715	1	n/a	n/a	n/a	n/a	n/a	n/a	n/a
5194.466	n/a	RECOG_CONF	2597233	n/a	LTP164	ltpFR	0	3	n/a	HOOK	715	n/a	5	n/a	n/a	n/a	n/a	n/a	n/a
5195.716	n/a	RECOG_TARGET	2597858	n/a	LTP164	ltpFR	0	3	0	SCREWDRIVER	1255	1	4	n/a	n/a	n/a	n/a	n/a	n/a
5200.03	n/a	RECOG_RESP	2600015	n/a	LTP164	ltpFR	0	3	0	SCREWDRIVER	1255	1	n/a	n/a	n/a	n/a	n/a	n/a	n/a
5203.146	n/a	RECOG_CONF	2601573	n/a	LTP164	ltpFR	0	3	0	SCREWDRIVER	1255	n/a	4	n/a	n/a	n/a	n/a	n/a	n/a
5204.606	n/a	RECOG_TARGET	2602303	n/a	LTP164	ltpFR	0	3	1	CONTRACTOR	369	1	4	1	n/a	n/a	n/a	n/a	n/a
5206.168	n/a	RECOG_RESP	2603084	n/a	LTP164	ltpFR	0	3	1	CONTRACTOR	369	1	n/a	1	n/a	n/a	n/a	n/a	n/a
5209.848	n/a	RECOG_CONF	2604924	n/a	LTP164	ltpFR	0	3	1	CONTRACTOR	369	n/a	4	1	n/a	n/a	n/a	n/a	n/a
5210.812	n/a	RECOG_TARGET	2605406	n/a	LTP164	ltpFR	0	3	1	GLOBE	641	1	5	0	n/a	n/a	n/a	n/a	n/a
5214.672	n/a	RECOG_RESP	2607336	n/a	LTP164	ltpFR	0	3	1	GLOBE	641	1	n/a	0	n/a	n/a	n/a	n/a	n/a
5219.77	n/a	RECOG_CONF	2609885	n/a	LTP164	ltpFR	0	3	1	GLOBE	641	n/a	5	0	n/a	n/a	n/a	n/a	n/a
5221.274	n/a	RECOG_TARGET	2610637	n/a	LTP164	ltpFR	0	3	1	LAWYER	806	1	5	1	n/a	n/a	n/a	n/a	n/a
5222.348	n/a	RECOG_RESP	2611174	n/a	LTP164	ltpFR	0	3	1	LAWYER	806	1	n/a	1	n/a	n/a	n/a	n/a	n/a
5224.458	n/a	RECOG_CONF	2612229	n/a	LTP164	ltpFR	0	3	1	LAWYER	806	n/a	5	1	n/a	n/a	n/a	n/a	n/a
5225.808	n/a	RECOG_LURE	2612904	n/a	LTP164	ltpFR	0	3	n/a	PIER	1063	0	3	n/a	n/a	n/a	n/a	n/a	n/a
5227.218	n/a	RECOG_RESP	2613609	n/a	LTP164	ltpFR	0	3	n/a	PIER	1063	0	n/a	n/a	n/a	n/a	n/a	n/a	n/a
5231.724	n/a	RECOG_CONF	2615862	n/a	LTP164	ltpFR	0	3	n/a	PIER	1063	n/a	3	n/a	n/a	n/a	n/a	n/a	n/a
5242.238	n/a	REC_START	2621119	n/a	LTP164	ltpFR	0	4	n/a	n/a	n/a	n/a	n/a	n/a	n/a	n/a	n/a	n/a	n/a
5242.268	n/a	RECOG_TARGET	2621134	n/a	LTP164	ltpFR	0	4	-1	RAFT	1159	0	3	-1	n/a	n/a	n/a	n/a	n/a
5243.92	n/a	RECOG_RESP	2621960	n/a	LTP164	ltpFR	0	4	-1	RAFT	1159	0	n/a	-1	n/a	n/a	n/a	n/a	n/a
5247.222	n/a	RECOG_CONF	2623611	n/a	LTP164	ltpFR	0	4	-1	RAFT	1159	n/a	3	-1	n/a	n/a	n/a	n/a	n/a
5249.324	n/a	RECOG_TARGET	2624662	n/a	LTP164	ltpFR	0	4	1	HAWK	692	1	5	0	n/a	n/a	n/a	n/a	n/a
5252.05	n/a	RECOG_RESP	2626025	n/a	LTP164	ltpFR	0	4	1	HAWK	692	1	n/a	0	n/a	n/a	n/a	n/a	n/a
5254.954	n/a	RECOG_CONF	2627477	n/a	LTP164	ltpFR	0	4	1	HAWK	692	n/a	5	0	n/a	n/a	n/a	n/a	n/a
5257.122	n/a	RECOG_LURE	2628561	n/a	LTP164	ltpFR	0	4	n/a	SENATE	1267	0	3	n/a	n/a	n/a	n/a	n/a	n/a
5261.482	n/a	RECOG_RESP_VV	2630741	n/a	LTP164	ltpFR	0	4	n/a	SENATE	1267	1	n/a	n/a	n/a	n/a	n/a	n/a	n/a
5263.92	n/a	RECOG_RESP	2631960	n/a	LTP164	ltpFR	0	4	n/a	SENATE	1267	0	n/a	n/a	n/a	n/a	n/a	n/a	n/a
5267.336	n/a	RECOG_CONF	2633668	n/a	LTP164	ltpFR	0	4	n/a	SENATE	1267	n/a	3	n/a	n/a	n/a	n/a	n/a	n/a
5269.512	n/a	RECOG_TARGET	2634756	n/a	LTP164	ltpFR	0	4	-1	SHRIMP	1297	1	5	-1	n/a	n/a	n/a	n/a	n/a
5270.39	n/a	RECOG_RESP	2635195	n/a	LTP164	ltpFR	0	4	-1	SHRIMP	1297	1	n/a	-1	n/a	n/a	n/a	n/a	n/a
5272.954	n/a	RECOG_CONF	2636477	n/a	LTP164	ltpFR	0	4	-1	SHRIMP	1297	n/a	5	-1	n/a	n/a	n/a	n/a	n/a
5275.058	n/a	RECOG_TARGET	2637529	n/a	LTP164	ltpFR	0	4	1	SURF	1412	1	5	0	n/a	n/a	n/a	n/a	n/a
5275.918	n/a	RECOG_RESP	2637959	n/a	LTP164	ltpFR	0	4	1	SURF	1412	1	n/a	0	n/a	n/a	n/a	n/a	n/a
5278.92	n/a	RECOG_CONF	2639460	n/a	LTP164	ltpFR	0	4	1	SURF	1412	n/a	5	0	n/a	n/a	n/a	n/a	n/a
5280.224	n/a	RECOG_LURE	2640112	n/a	LTP164	ltpFR	0	4	n/a	PORCH	1106	0	4	n/a	n/a	n/a	n/a	n/a	n/a
5281.544	n/a	RECOG_RESP	2640772	n/a	LTP164	ltpFR	0	4	n/a	PORCH	1106	0	n/a	n/a	n/a	n/a	n/a	n/a	n/a
5284.928	n/a	RECOG_CONF	2642464	n/a	LTP164	ltpFR	0	4	n/a	PORCH	1106	n/a	4	n/a	n/a	n/a	n/a	n/a	n/a
5286.906	n/a	RECOG_TARGET	2643453	n/a	LTP164	ltpFR	0	4	1	BATHTUB	100	1	5	0	n/a	n/a	n/a	n/a	n/a
5288.554	n/a	RECOG_RESP	2644277	n/a	LTP164	ltpFR	0	4	1	BATHTUB	100	1	n/a	0	n/a	n/a	n/a	n/a	n/a
5291.682	n/a	RECOG_CONF	2645841	n/a	LTP164	ltpFR	0	4	1	BATHTUB	100	n/a	5	0	n/a	n/a	n/a	n/a	n/a
5292.878	n/a	RECOG_TARGET	2646439	n/a	LTP164	ltpFR	0	4	-1	MOB	904	1	5	-1	n/a	n/a	n/a	n/a	n/a
5293.95	n/a	RECOG_RESP	2646975	n/a	LTP164	ltpFR	0	4	-1	MOB	904	1	n/a	-1	n/a	n/a	n/a	n/a	n/a
5296.758	n/a	RECOG_CONF	2648379	n/a	LTP164	ltpFR	0	4	-1	MOB	904	n/a	5	-1	n/a	n/a	n/a	n/a	n/a
5298.002	n/a	RECOG_TARGET	2649001	n/a	LTP164	ltpFR	0	4	1	MARINE	869	0	3	0	n/a	n/a	n/a	n/a	n/a
5300.068	n/a	RECOG_RESP	2650034	n/a	LTP164	ltpFR	0	4	1	MARINE	869	0	n/a	0	n/a	n/a	n/a	n/a	n/a
5307.468	n/a	RECOG_CONF	2653734	n/a	LTP164	ltpFR	0	4	1	MARINE	869	n/a	3	0	n/a	n/a	n/a	n/a	n/a
5309.608	n/a	RECOG_TARGET	2654804	n/a	LTP164	ltpFR	0	4	1	MOTORCYCLE	923	1	5	0	n/a	n/a	n/a	n/a	n/a
5311.342	n/a	RECOG_RESP	2655671	n/a	LTP164	ltpFR	0	4	1	MOTORCYCLE	923	1	n/a	0	n/a	n/a	n/a	n/a	n/a
5314.364	n/a	RECOG_CONF	2657182	n/a	LTP164	ltpFR	0	4	1	MOTORCYCLE	923	n/a	5	0	n/a	n/a	n/a	n/a	n/a
5316.556	n/a	RECOG_TARGET	2658278	n/a	LTP164	ltpFR	0	4	1	VALLEY	1545	1	5	0	n/a	n/a	n/a	n/a	n/a
5317.444	n/a	RECOG_RESP	2658722	n/a	LTP164	ltpFR	0	4	1	VALLEY	1545	1	n/a	0	n/a	n/a	n/a	n/a	n/a
5320.048	n/a	RECOG_CONF	2660024	n/a	LTP164	ltpFR	0	4	1	VALLEY	1545	n/a	5	0	n/a	n/a	n/a	n/a	n/a
5321.454	n/a	RECOG_TARGET	2660727	n/a	LTP164	ltpFR	0	4	0	MAJOR	859	1	5	1	n/a	n/a	n/a	n/a	n/a
5323.03	n/a	RECOG_RESP	2661515	n/a	LTP164	ltpFR	0	4	0	MAJOR	859	1	n/a	1	n/a	n/a	n/a	n/a	n/a
5325.558	n/a	RECOG_CONF	2662779	n/a	LTP164	ltpFR	0	4	0	MAJOR	859	n/a	5	1	n/a	n/a	n/a	n/a	n/a
5326.768	n/a	RECOG_TARGET	2663384	n/a	LTP164	ltpFR	0	4	-1	ROUGE	1213	1	5	-1	n/a	n/a	n/a	n/a	n/a
5327.958	n/a	RECOG_RESP	2663979	n/a	LTP164	ltpFR	0	4	-1	ROUGE	1213	1	n/a	-1	n/a	n/a	n/a	n/a	n/a
5330.626	n/a	RECOG_CONF	2665313	n/a	LTP164	ltpFR	0	4	-1	ROUGE	1213	n/a	5	-1	n/a	n/a	n/a	n/a	n/a
5331.808	n/a	RECOG_TARGET	2665904	n/a	LTP164	ltpFR	0	4	1	TOWN	1491	0	3	0	n/a	n/a	n/a	n/a	n/a
5335.3	n/a	RECOG_RESP	2667650	n/a	LTP164	ltpFR	0	4	1	TOWN	1491	0	n/a	0	n/a	n/a	n/a	n/a	n/a
5338.3	n/a	RECOG_CONF	2669150	n/a	LTP164	ltpFR	0	4	1	TOWN	1491	n/a	3	0	n/a	n/a	n/a	n/a	n/a
5340.598	n/a	RECOG_TARGET	2670299	n/a	LTP164	ltpFR	0	4	-1	ENGINE	535	0	3	-1	n/a	n/a	n/a	n/a	n/a
5346.134	n/a	RECOG_RESP	2673067	n/a	LTP164	ltpFR	0	4	-1	ENGINE	535	0	n/a	-1	n/a	n/a	n/a	n/a	n/a
5349.824	n/a	RECOG_CONF	2674912	n/a	LTP164	ltpFR	0	4	-1	ENGINE	535	n/a	3	-1	n/a	n/a	n/a	n/a	n/a
5350.968	n/a	RECOG_LURE	2675484	n/a	LTP164	ltpFR	0	4	n/a	CITY	314	0	4	n/a	n/a	n/a	n/a	n/a	n/a
5357.29	n/a	RECOG_RESP_VV	2678645	n/a	LTP164	ltpFR	0	4	n/a	CITY	314	1	n/a	n/a	n/a	n/a	n/a	n/a	n/a
5359.766	n/a	RECOG_RESP	2679883	n/a	LTP164	ltpFR	0	4	n/a	CITY	314	0	n/a	n/a	n/a	n/a	n/a	n/a	n/a
5363.596	n/a	RECOG_CONF	2681798	n/a	LTP164	ltpFR	0	4	n/a	CITY	314	n/a	4	n/a	n/a	n/a	n/a	n/a	n/a
5364.956	n/a	RECOG_TARGET	2682478	n/a	LTP164	ltpFR	0	4	0	BATTERY	101	1	5	n/a	n/a	n/a	n/a	n/a	n/a
5366.66	n/a	RECOG_RESP	2683330	n/a	LTP164	ltpFR	0	4	0	BATTERY	101	1	n/a	n/a	n/a	n/a	n/a	n/a	n/a
5370.748	n/a	RECOG_CONF	2685374	n/a	LTP164	ltpFR	0	4	0	BATTERY	101	n/a	5	n/a	n/a	n/a	n/a	n/a	n/a
5372.554	n/a	RECOG_TARGET	2686277	n/a	LTP164	ltpFR	0	4	0	DRESS	495	1	5	0	n/a	n/a	n/a	n/a	n/a
5374.406	n/a	RECOG_RESP	2687203	n/a	LTP164	ltpFR	0	4	0	DRESS	495	1	n/a	0	n/a	n/a	n/a	n/a	n/a
5377.024	n/a	RECOG_CONF	2688512	n/a	LTP164	ltpFR	0	4	0	DRESS	495	n/a	5	0	n/a	n/a	n/a	n/a	n/a
5378.386	n/a	RECOG_TARGET	2689193	n/a	LTP164	ltpFR	0	4	-1	WAGON	1578	1	5	-1	n/a	n/a	n/a	n/a	n/a
5380.77	n/a	RECOG_RESP	2690385	n/a	LTP164	ltpFR	0	4	-1	WAGON	1578	1	n/a	-1	n/a	n/a	n/a	n/a	n/a
5383.324	n/a	RECOG_CONF	2691662	n/a	LTP164	ltpFR	0	4	-1	WAGON	1578	n/a	5	-1	n/a	n/a	n/a	n/a	n/a
5384.544	n/a	RECOG_TARGET	2692272	n/a	LTP164	ltpFR	0	4	1	HEAD	695	1	5	0	n/a	n/a	n/a	n/a	n/a
5385.784	n/a	RECOG_RESP	2692892	n/a	LTP164	ltpFR	0	4	1	HEAD	695	1	n/a	0	n/a	n/a	n/a	n/a	n/a
5388.168	n/a	RECOG_CONF	2694084	n/a	LTP164	ltpFR	0	4	1	HEAD	695	n/a	5	0	n/a	n/a	n/a	n/a	n/a
5457.364	n/a	REC_START	2728682	n/a	LTP164	ltpFR	0	5	n/a	n/a	n/a	n/a	n/a	n/a	n/a	n/a	n/a	n/a	n/a
5457.404	n/a	RECOG_TARGET	2728702	n/a	LTP164	ltpFR	0	5	1	APRON	35	1	5	0	n/a	n/a	n/a	n/a	n/a
5460.766	n/a	RECOG_RESP	2730383	n/a	LTP164	ltpFR	0	5	1	APRON	35	1	n/a	0	n/a	n/a	n/a	n/a	n/a
5463.988	n/a	RECOG_CONF	2731994	n/a	LTP164	ltpFR	0	5	1	APRON	35	n/a	5	0	n/a	n/a	n/a	n/a	n/a
5467.042	n/a	RECOG_LURE	2733521	n/a	LTP164	ltpFR	0	5	n/a	BASEBALL	93	1	3	n/a	n/a	n/a	n/a	n/a	n/a
5470.22	n/a	RECOG_RESP	2735110	n/a	LTP164	ltpFR	0	5	n/a	BASEBALL	93	1	n/a	n/a	n/a	n/a	n/a	n/a	n/a
5473.858	n/a	RECOG_CONF	2736929	n/a	LTP164	ltpFR	0	5	n/a	BASEBALL	93	n/a	3	n/a	n/a	n/a	n/a	n/a	n/a
5476.29	n/a	RECOG_TARGET	2738145	n/a	LTP164	ltpFR	0	5	1	STAKE	1368	0	3	0	n/a	n/a	n/a	n/a	n/a
5479.764	n/a	RECOG_RESP	2739882	n/a	LTP164	ltpFR	0	5	1	STAKE	1368	0	n/a	0	n/a	n/a	n/a	n/a	n/a
5482.818	n/a	RECOG_CONF	2741409	n/a	LTP164	ltpFR	0	5	1	STAKE	1368	n/a	3	0	n/a	n/a	n/a	n/a	n/a
5485.252	n/a	RECOG_LURE	2742626	n/a	LTP164	ltpFR	0	5	n/a	CROOK	412	0	3	n/a	n/a	n/a	n/a	n/a	n/a
5488.676	n/a	RECOG_RESP	2744338	n/a	LTP164	ltpFR	0	5	n/a	CROOK	412	0	n/a	n/a	n/a	n/a	n/a	n/a	n/a
5496.51	n/a	RECOG_CONF	2748255	n/a	LTP164	ltpFR	0	5	n/a	CROOK	412	n/a	3	n/a	n/a	n/a	n/a	n/a	n/a
5498.784	n/a	RECOG_TARGET	2749392	n/a	LTP164	ltpFR	0	5	-1	CREEK	404	1	5	-1	n/a	n/a	n/a	n/a	n/a
5501.916	n/a	RECOG_RESP	2750958	n/a	LTP164	ltpFR	0	5	-1	CREEK	404	1	n/a	-1	n/a	n/a	n/a	n/a	n/a
5505.108	n/a	RECOG_CONF	2752554	n/a	LTP164	ltpFR	0	5	-1	CREEK	404	n/a	5	-1	n/a	n/a	n/a	n/a	n/a
5507.396	n/a	RECOG_LURE	2753698	n/a	LTP164	ltpFR	0	5	n/a	SKETCH	1315	0	2	n/a	n/a	n/a	n/a	n/a	n/a
5508.732	n/a	RECOG_RESP	2754366	n/a	LTP164	ltpFR	0	5	n/a	SKETCH	1315	0	n/a	n/a	n/a	n/a	n/a	n/a	n/a
5513.758	n/a	RECOG_CONF	2756879	n/a	LTP164	ltpFR	0	5	n/a	SKETCH	1315	n/a	2	n/a	n/a	n/a	n/a	n/a	n/a
5515.804	n/a	RECOG_TARGET	2757902	n/a	LTP164	ltpFR	0	5	0	CARTON	251	0	2	n/a	n/a	n/a	n/a	n/a	n/a
5518.808	n/a	RECOG_RESP_VV	2759404	n/a	LTP164	ltpFR	0	5	0	CARTON	251	1	n/a	n/a	n/a	n/a	n/a	n/a	n/a
5521.99	n/a	RECOG_RESP	2760995	n/a	LTP164	ltpFR	0	5	0	CARTON	251	0	n/a	n/a	n/a	n/a	n/a	n/a	n/a
5525.42	n/a	RECOG_CONF	2762710	n/a	LTP164	ltpFR	0	5	0	CARTON	251	n/a	2	n/a	n/a	n/a	n/a	n/a	n/a
5527.582	n/a	RECOG_TARGET	2763791	n/a	LTP164	ltpFR	0	5	0	CAPTAIN	239	1	5	1	n/a	n/a	n/a	n/a	n/a
5531.136	n/a	RECOG_RESP	2765568	n/a	LTP164	ltpFR	0	5	0	CAPTAIN	239	1	n/a	1	n/a	n/a	n/a	n/a	n/a
5533.886	n/a	RECOG_CONF	2766943	n/a	LTP164	ltpFR	0	5	0	CAPTAIN	239	n/a	5	1	n/a	n/a	n/a	n/a	n/a
5536.154	n/a	RECOG_LURE	2768077	n/a	LTP164	ltpFR	0	5	n/a	JAW	751	1	5	n/a	n/a	n/a	n/a	n/a	n/a
5537.298	n/a	RECOG_RESP	2768649	n/a	LTP164	ltpFR	0	5	n/a	JAW	751	1	n/a	n/a	n/a	n/a	n/a	n/a	n/a
5539.936	n/a	RECOG_CONF	2769968	n/a	LTP164	ltpFR	0	5	n/a	JAW	751	n/a	5	n/a	n/a	n/a	n/a	n/a	n/a
5542.302	n/a	RECOG_TARGET	2771151	n/a	LTP164	ltpFR	0	5	0	FENCE	560	1	5	1	n/a	n/a	n/a	n/a	n/a
5543.928	n/a	RECOG_RESP	2771964	n/a	LTP164	ltpFR	0	5	0	FENCE	560	1	n/a	1	n/a	n/a	n/a	n/a	n/a
5546.382	n/a	RECOG_CONF	2773191	n/a	LTP164	ltpFR	0	5	0	FENCE	560	n/a	5	1	n/a	n/a	n/a	n/a	n/a
5548.434	n/a	RECOG_TARGET	2774217	n/a	LTP164	ltpFR	0	5	0	FROST	609	1	5	n/a	n/a	n/a	n/a	n/a	n/a
5549.766	n/a	RECOG_RESP	2774883	n/a	LTP164	ltpFR	0	5	0	FROST	609	1	n/a	n/a	n/a	n/a	n/a	n/a	n/a
5552.176	n/a	RECOG_CONF	2776088	n/a	LTP164	ltpFR	0	5	0	FROST	609	n/a	5	n/a	n/a	n/a	n/a	n/a	n/a
5554.34	n/a	RECOG_TARGET	2777170	n/a	LTP164	ltpFR	0	5	1	SAUSAGE	1238	1	5	0	n/a	n/a	n/a	n/a	n/a
5555.378	n/a	RECOG_RESP	2777689	n/a	LTP164	ltpFR	0	5	1	SAUSAGE	1238	1	n/a	0	n/a	n/a	n/a	n/a	n/a
5557.888	n/a	RECOG_CONF	2778944	n/a	LTP164	ltpFR	0	5	1	SAUSAGE	1238	n/a	5	0	n/a	n/a	n/a	n/a	n/a
5560.148	n/a	RECOG_TARGET	2780074	n/a	LTP164	ltpFR	0	5	-1	DECK	443	1	3	-1	n/a	n/a	n/a	n/a	n/a
5561.586	n/a	RECOG_RESP	2780793	n/a	LTP164	ltpFR	0	5	-1	DECK	443	1	n/a	-1	n/a	n/a	n/a	n/a	n/a
5567.944	n/a	RECOG_CONF	2783972	n/a	LTP164	ltpFR	0	5	-1	DECK	443	n/a	3	-1	n/a	n/a	n/a	n/a	n/a
5569.952	n/a	RECOG_TARGET	2784976	n/a	LTP164	ltpFR	0	5	1	OFFICE	972	0	3	0	n/a	n/a	n/a	n/a	n/a
5571.208	n/a	RECOG_RESP_VV	2785604	n/a	LTP164	ltpFR	0	5	1	OFFICE	972	1	n/a	0	n/a	n/a	n/a	n/a	n/a
5580.146	n/a	RECOG_RESP_VV	2790073	n/a	LTP164	ltpFR	0	5	1	OFFICE	972	0	n/a	0	n/a	n/a	n/a	n/a	n/a
5581.71	n/a	RECOG_RESP	2790855	n/a	LTP164	ltpFR	0	5	1	OFFICE	972	0	n/a	0	n/a	n/a	n/a	n/a	n/a
5585.808	n/a	RECOG_CONF	2792904	n/a	LTP164	ltpFR	0	5	1	OFFICE	972	n/a	3	0	n/a	n/a	n/a	n/a	n/a
5587.94	n/a	RECOG_TARGET	2793970	n/a	LTP164	ltpFR	0	5	1	CORAL	378	1	5	n/a	n/a	n/a	n/a	n/a	n/a
5592.0	n/a	RECOG_RESP	2796000	n/a	LTP164	ltpFR	0	5	1	CORAL	378	1	n/a	n/a	n/a	n/a	n/a	n/a	n/a
5595.05	n/a	RECOG_CONF	2797525	n/a	LTP164	ltpFR	0	5	1	CORAL	378	n/a	5	n/a	n/a	n/a	n/a	n/a	n/a
5597.21	n/a	RECOG_TARGET	2798605	n/a	LTP164	ltpFR	0	5	-1	DRINK	498	1	5	-1	n/a	n/a	n/a	n/a	n/a
5599.746	n/a	RECOG_RESP	2799873	n/a	LTP164	ltpFR	0	5	-1	DRINK	498	1	n/a	-1	n/a	n/a	n/a	n/a	n/a
5601.974	n/a	RECOG_CONF	2800987	n/a	LTP164	ltpFR	0	5	-1	DRINK	498	n/a	5	-1	n/a	n/a	n/a	n/a	n/a
5604.31	n/a	RECOG_TARGET	2802155	n/a	LTP164	ltpFR	0	5	1	TAG	1429	1	5	0	n/a	n/a	n/a	n/a	n/a
5605.17	n/a	RECOG_RESP	2802585	n/a	LTP164	ltpFR	0	5	1	TAG	1429	1	n/a	0	n/a	n/a	n/a	n/a	n/a
5607.56	n/a	RECOG_CONF	2803780	n/a	LTP164	ltpFR	0	5	1	TAG	1429	n/a	5	0	n/a	n/a	n/a	n/a	n/a
5609.684	n/a	RECOG_LURE	2804842	n/a	LTP164	ltpFR	0	5	n/a	VAMPIRE	1547	0	4	n/a	n/a	n/a	n/a	n/a	n/a
5615.862	n/a	RECOG_RESP	2807931	n/a	LTP164	ltpFR	0	5	n/a	VAMPIRE	1547	0	n/a	n/a	n/a	n/a	n/a	n/a	n/a
5618.934	n/a	RECOG_CONF	2809467	n/a	LTP164	ltpFR	0	5	n/a	VAMPIRE	1547	n/a	4	n/a	n/a	n/a	n/a	n/a	n/a
5620.838	n/a	RECOG_TARGET	2810419	n/a	LTP164	ltpFR	0	5	-1	BELLY	119	1	5	-1	n/a	n/a	n/a	n/a	n/a
5622.758	n/a	RECOG_RESP	2811379	n/a	LTP164	ltpFR	0	5	-1	BELLY	119	1	n/a	-1	n/a	n/a	n/a	n/a	n/a
5625.356	n/a	RECOG_CONF	2812678	n/a	LTP164	ltpFR	0	5	-1	BELLY	119	n/a	5	-1	n/a	n/a	n/a	n/a	n/a
5627.194	n/a	RECOG_LURE	2813597	n/a	LTP164	ltpFR	0	5	n/a	RUM	1217	1	5	n/a	n/a	n/a	n/a	n/a	n/a
5629.064	n/a	RECOG_RESP	2814532	n/a	LTP164	ltpFR	0	5	n/a	RUM	1217	1	n/a	n/a	n/a	n/a	n/a	n/a	n/a
5631.014	n/a	RECOG_CONF	2815507	n/a	LTP164	ltpFR	0	5	n/a	RUM	1217	n/a	5	n/a	n/a	n/a	n/a	n/a	n/a
5647.692	n/a	REC_START	2823846	n/a	LTP164	ltpFR	0	6	n/a	n/a	n/a	n/a	n/a	n/a	n/a	n/a	n/a	n/a	n/a
5647.73	n/a	RECOG_TARGET	2823865	n/a	LTP164	ltpFR	0	6	1	WASHER	1592	0	5	0	n/a	n/a	n/a	n/a	n/a
5649.862	n/a	RECOG_RESP	2824931	n/a	LTP164	ltpFR	0	6	1	WASHER	1592	0	n/a	0	n/a	n/a	n/a	n/a	n/a
5652.682	n/a	RECOG_CONF	2826341	n/a	LTP164	ltpFR	0	6	1	WASHER	1592	n/a	5	0	n/a	n/a	n/a	n/a	n/a
5654.444	n/a	RECOG_TARGET	2827222	n/a	LTP164	ltpFR	0	6	1	TOWER	1490	1	5	0	n/a	n/a	n/a	n/a	n/a
5658.332	n/a	RECOG_RESP	2829166	n/a	LTP164	ltpFR	0	6	1	TOWER	1490	1	n/a	0	n/a	n/a	n/a	n/a	n/a
5661.398	n/a	RECOG_CONF	2830699	n/a	LTP164	ltpFR	0	6	1	TOWER	1490	n/a	5	0	n/a	n/a	n/a	n/a	n/a
5663.234	n/a	RECOG_LURE	2831617	n/a	LTP164	ltpFR	0	6	n/a	PUPPY	1144	0	3	n/a	n/a	n/a	n/a	n/a	n/a
5664.796	n/a	RECOG_RESP	2832398	n/a	LTP164	ltpFR	0	6	n/a	PUPPY	1144	0	n/a	n/a	n/a	n/a	n/a	n/a	n/a
5667.648	n/a	RECOG_CONF	2833824	n/a	LTP164	ltpFR	0	6	n/a	PUPPY	1144	n/a	3	n/a	n/a	n/a	n/a	n/a	n/a
5669.706	n/a	RECOG_TARGET	2834853	n/a	LTP164	ltpFR	0	6	0	CARDINAL	244	1	5	0	n/a	n/a	n/a	n/a	n/a
5674.858	n/a	RECOG_RESP	2837429	n/a	LTP164	ltpFR	0	6	0	CARDINAL	244	1	n/a	0	n/a	n/a	n/a	n/a	n/a
5678.116	n/a	RECOG_CONF	2839058	n/a	LTP164	ltpFR	0	6	0	CARDINAL	244	n/a	5	0	n/a	n/a	n/a	n/a	n/a
5680.304	n/a	RECOG_TARGET	2840152	n/a	LTP164	ltpFR	0	6	0	ATOM	55	1	5	n/a	n/a	n/a	n/a	n/a	n/a
5681.214	n/a	RECOG_RESP	2840607	n/a	LTP164	ltpFR	0	6	0	ATOM	55	1	n/a	n/a	n/a	n/a	n/a	n/a	n/a
5683.358	n/a	RECOG_CONF	2841679	n/a	LTP164	ltpFR	0	6	0	ATOM	55	n/a	5	n/a	n/a	n/a	n/a	n/a	n/a
5685.494	n/a	RECOG_LURE	2842747	n/a	LTP164	ltpFR	0	6	n/a	OX	994	0	5	n/a	n/a	n/a	n/a	n/a	n/a
5686.61	n/a	RECOG_RESP	2843305	n/a	LTP164	ltpFR	0	6	n/a	OX	994	0	n/a	n/a	n/a	n/a	n/a	n/a	n/a
5688.508	n/a	RECOG_CONF	2844254	n/a	LTP164	ltpFR	0	6	n/a	OX	994	n/a	5	n/a	n/a	n/a	n/a	n/a	n/a
5690.576	n/a	RECOG_LURE	2845288	n/a	LTP164	ltpFR	0	6	n/a	HUMAN	726	0	3	n/a	n/a	n/a	n/a	n/a	n/a
