mstime	trial_type	stim_file	subject	experiment	session	trial	task	item_name	item_num	recog_conf	resp	answer	test_x	test_y	test_z	color_b	color_g	color_r	case	font
0	SESS_START	n/a	LTP064	ltpFR	13	n/a	n/a	n/a	n/a	n/a	n/a	n/a	0	0	0	n/a	n/a	n/a	n/a	n/a
52122	START	n/a	LTP064	ltpFR	13	n/a	n/a	n/a	n/a	n/a	n/a	n/a	n/a	n/a	n/a	n/a	n/a	n/a	n/a	n/a
52146	PROB	n/a	LTP064	ltpFR	13	n/a	n/a	n/a	n/a	n/a	n/a	12	8	4	4	n/a	n/a	n/a	n/a	n/a
53496	PROB	n/a	LTP064	ltpFR	13	n/a	n/a	n/a	n/a	n/a	n/a	15	5	3	7	n/a	n/a	n/a	n/a	n/a
55093	PROB	n/a	LTP064	ltpFR	13	n/a	n/a	n/a	n/a	n/a	n/a	2	7	5	6	n/a	n/a	n/a	n/a	n/a
56733	PROB	n/a	LTP064	ltpFR	13	n/a	n/a	n/a	n/a	n/a	n/a	11	1	6	4	n/a	n/a	n/a	n/a	n/a
57666	PROB	n/a	LTP064	ltpFR	13	n/a	n/a	n/a	n/a	n/a	n/a	12	2	3	7	n/a	n/a	n/a	n/a	n/a
58880	PROB	n/a	LTP064	ltpFR	13	n/a	n/a	n/a	n/a	n/a	n/a	14	8	4	3	n/a	n/a	n/a	n/a	n/a
61103	PROB	n/a	LTP064	ltpFR	13	n/a	n/a	n/a	n/a	n/a	n/a	10	5	1	4	n/a	n/a	n/a	n/a	n/a
62043	PROB	n/a	LTP064	ltpFR	13	n/a	n/a	n/a	n/a	n/a	n/a	17	5	6	6	n/a	n/a	n/a	n/a	n/a
63617	PROB	n/a	LTP064	ltpFR	13	n/a	n/a	n/a	n/a	n/a	n/a	13	2	2	9	n/a	n/a	n/a	n/a	n/a
64550	PROB	n/a	LTP064	ltpFR	13	n/a	n/a	n/a	n/a	n/a	n/a	18	3	6	9	n/a	n/a	n/a	n/a	n/a
66306	PROB	n/a	LTP064	ltpFR	13	n/a	n/a	n/a	n/a	n/a	n/a	17	3	8	6	n/a	n/a	n/a	n/a	n/a
67762	PROB	n/a	LTP064	ltpFR	13	n/a	n/a	n/a	n/a	n/a	n/a	17	5	3	9	n/a	n/a	n/a	n/a	n/a
69867	PROB	n/a	LTP064	ltpFR	13	n/a	n/a	n/a	n/a	n/a	n/a	13	1	7	3	n/a	n/a	n/a	n/a	n/a
70885	STOP	n/a	LTP064	ltpFR	13	n/a	n/a	n/a	n/a	n/a	n/a	n/a	n/a	n/a	n/a	n/a	n/a	n/a	n/a	n/a
108540	WORD	wordpools/wasnorm_wordpool.txt	LTP064	ltpFR	13	1	1	SINK	1309	n/a	0	n/a	0	0	0	1	0.412841796875	0.57763671875	lower	../fonts/amplitud.ttf
112394	WORD	wordpools/wasnorm_wordpool.txt	LTP064	ltpFR	13	1	1	CREEK	404	n/a	0	n/a	0	0	0	1	0.412841796875	0.57763671875	lower	../fonts/amplitud.ttf
116564	WORD	wordpools/wasnorm_wordpool.txt	LTP064	ltpFR	13	1	1	RAKE	1164	n/a	0	n/a	0	0	0	1	0.412841796875	0.57763671875	lower	../fonts/amplitud.ttf
120676	WORD	wordpools/wasnorm_wordpool.txt	LTP064	ltpFR	13	1	0	TOAD	1470	n/a	0	n/a	0	0	0	0	0.5869140625	0.422607421875	upper	../fonts/zerothre.ttf
124678	WORD	wordpools/wasnorm_wordpool.txt	LTP064	ltpFR	13	1	0	PORK	1108	n/a	1	n/a	0	0	0	0	0.5869140625	0.422607421875	upper	../fonts/zerothre.ttf
128715	WORD	wordpools/wasnorm_wordpool.txt	LTP064	ltpFR	13	1	0	DOCUMENT	479	n/a	1	n/a	0	0	0	0	0.5869140625	0.422607421875	upper	../fonts/zerothre.ttf
132528	WORD	wordpools/wasnorm_wordpool.txt	LTP064	ltpFR	13	1	0	MULE	931	n/a	1	n/a	0	0	0	0	0.5869140625	0.422607421875	upper	../fonts/zerothre.ttf
136549	WORD	wordpools/wasnorm_wordpool.txt	LTP064	ltpFR	13	1	1	SEAL	1262	n/a	1	n/a	0	0	0	1	0.412841796875	0.57763671875	lower	../fonts/amplitud.ttf
140726	WORD	wordpools/wasnorm_wordpool.txt	LTP064	ltpFR	13	1	1	SHEET	1279	n/a	0	n/a	0	0	0	1	0.412841796875	0.57763671875	lower	../fonts/amplitud.ttf
144688	WORD	wordpools/wasnorm_wordpool.txt	LTP064	ltpFR	13	1	1	FIDDLE	561	n/a	0	n/a	0	0	0	1	0.412841796875	0.57763671875	lower	../fonts/amplitud.ttf
148502	WORD	wordpools/wasnorm_wordpool.txt	LTP064	ltpFR	13	1	0	LAWN	805	n/a	1	n/a	0	0	0	0	0.5869140625	0.422607421875	upper	../fonts/zerothre.ttf
152430	WORD	wordpools/wasnorm_wordpool.txt	LTP064	ltpFR	13	1	0	TROMBONE	1508	n/a	1	n/a	0	0	0	0	0.5869140625	0.422607421875	upper	../fonts/zerothre.ttf
156292	WORD	wordpools/wasnorm_wordpool.txt	LTP064	ltpFR	13	1	0	SURF	1412	n/a	1	n/a	0	0	0	0	0.5869140625	0.422607421875	upper	../fonts/zerothre.ttf
160180	WORD	wordpools/wasnorm_wordpool.txt	LTP064	ltpFR	13	1	0	ISLAND	745	n/a	1	n/a	0	0	0	0	0.5869140625	0.422607421875	upper	../fonts/zerothre.ttf
164275	WORD	wordpools/wasnorm_wordpool.txt	LTP064	ltpFR	13	1	1	BIOLOGIST	128	n/a	1	n/a	0	0	0	1	0.412841796875	0.57763671875	lower	../fonts/amplitud.ttf
168094	WORD	wordpools/wasnorm_wordpool.txt	LTP064	ltpFR	13	1	1	GRASS	655	n/a	1	n/a	0	0	0	1	0.412841796875	0.57763671875	lower	../fonts/amplitud.ttf
171099	START	n/a	LTP064	ltpFR	13	n/a	n/a	n/a	n/a	n/a	n/a	n/a	n/a	n/a	n/a	n/a	n/a	n/a	n/a	n/a
172115	PROB	n/a	LTP064	ltpFR	13	n/a	n/a	n/a	n/a	n/a	n/a	13	4	7	3	n/a	n/a	n/a	n/a	n/a
173289	PROB	n/a	LTP064	ltpFR	13	n/a	n/a	n/a	n/a	n/a	n/a	14	6	3	5	n/a	n/a	n/a	n/a	n/a
175028	PROB	n/a	LTP064	ltpFR	13	n/a	n/a	n/a	n/a	n/a	n/a	13	1	5	7	n/a	n/a	n/a	n/a	n/a
176635	PROB	n/a	LTP064	ltpFR	13	n/a	n/a	n/a	n/a	n/a	n/a	13	7	4	2	n/a	n/a	n/a	n/a	n/a
177709	STOP	n/a	LTP064	ltpFR	13	n/a	n/a	n/a	n/a	n/a	n/a	n/a	n/a	n/a	n/a	n/a	n/a	n/a	n/a	n/a
180872	REC_START	n/a	LTP064	ltpFR	13	1	n/a	n/a	n/a	n/a	n/a	n/a	0	0	0	n/a	n/a	n/a	n/a	n/a
181820	REC_WORD	wordpools/wasnorm_wordpool.txt	LTP064	ltpFR	13	1	0	SURF	1412	n/a	1	n/a	0	0	0	n/a	n/a	n/a	n/a	n/a
182362	REC_WORD	wordpools/wasnorm_wordpool.txt	LTP064	ltpFR	13	1	0	ISLAND	745	n/a	1	n/a	0	0	0	n/a	n/a	n/a	n/a	n/a
182802	REC_WORD	wordpools/wasnorm_wordpool.txt	LTP064	ltpFR	13	1	1	BIOLOGIST	128	n/a	1	n/a	0	0	0	n/a	n/a	n/a	n/a	n/a
183675	REC_WORD	wordpools/wasnorm_wordpool.txt	LTP064	ltpFR	13	1	1	GRASS	655	n/a	1	n/a	0	0	0	n/a	n/a	n/a	n/a	n/a
185671	REC_WORD	wordpools/wasnorm_wordpool.txt	LTP064	ltpFR	13	1	0	PORK	1108	n/a	1	n/a	0	0	0	n/a	n/a	n/a	n/a	n/a
186031	REC_WORD	wordpools/wasnorm_wordpool.txt	LTP064	ltpFR	13	1	0	DOCUMENT	479	n/a	1	n/a	0	0	0	n/a	n/a	n/a	n/a	n/a
186632	REC_WORD	wordpools/wasnorm_wordpool.txt	LTP064	ltpFR	13	1	0	MULE	931	n/a	1	n/a	0	0	0	n/a	n/a	n/a	n/a	n/a
186983	REC_WORD	wordpools/wasnorm_wordpool.txt	LTP064	ltpFR	13	1	1	SEAL	1262	n/a	1	n/a	0	0	0	n/a	n/a	n/a	n/a	n/a
190435	REC_WORD	wordpools/wasnorm_wordpool.txt	LTP064	ltpFR	13	1	n/a	PAPER	1011	n/a	n/a	n/a	0	0	0	n/a	n/a	n/a	n/a	n/a
191096	REC_WORD	wordpools/wasnorm_wordpool.txt	LTP064	ltpFR	13	1	1	FIDDLE	561	n/a	0	n/a	0	0	0	n/a	n/a	n/a	n/a	n/a
192625	REC_WORD	wordpools/wasnorm_wordpool.txt	LTP064	ltpFR	13	1	0	LAWN	805	n/a	1	n/a	0	0	0	n/a	n/a	n/a	n/a	n/a
192908	REC_WORD	wordpools/wasnorm_wordpool.txt	LTP064	ltpFR	13	1	0	TROMBONE	1508	n/a	1	n/a	0	0	0	n/a	n/a	n/a	n/a	n/a
206863	REC_WORD	wordpools/wasnorm_wordpool.txt	LTP064	ltpFR	13	1	0	TOAD	1470	n/a	0	n/a	0	0	0	n/a	n/a	n/a	n/a	n/a
207136	REC_WORD	wordpools/wasnorm_wordpool.txt	LTP064	ltpFR	13	1	1	RAKE	1164	n/a	0	n/a	0	0	0	n/a	n/a	n/a	n/a	n/a
207656	REC_WORD	wordpools/wasnorm_wordpool.txt	LTP064	ltpFR	13	1	1	CREEK	404	n/a	0	n/a	0	0	0	n/a	n/a	n/a	n/a	n/a
208069	REC_WORD	wordpools/wasnorm_wordpool.txt	LTP064	ltpFR	13	1	1	SINK	1309	n/a	0	n/a	0	0	0	n/a	n/a	n/a	n/a	n/a
272515	START	n/a	LTP064	ltpFR	13	n/a	n/a	n/a	n/a	n/a	n/a	n/a	n/a	n/a	n/a	n/a	n/a	n/a	n/a	n/a
274021	PROB	n/a	LTP064	ltpFR	13	n/a	n/a	n/a	n/a	n/a	n/a	12	3	8	1	n/a	n/a	n/a	n/a	n/a
275136	PROB	n/a	LTP064	ltpFR	13	n/a	n/a	n/a	n/a	n/a	n/a	21	7	7	7	n/a	n/a	n/a	n/a	n/a
275977	PROB	n/a	LTP064	ltpFR	13	n/a	n/a	n/a	n/a	n/a	n/a	15	5	8	2	n/a	n/a	n/a	n/a	n/a
277268	PROB	n/a	LTP064	ltpFR	13	n/a	n/a	n/a	n/a	n/a	n/a	10	2	4	4	n/a	n/a	n/a	n/a	n/a
278183	PROB	n/a	LTP064	ltpFR	13	n/a	n/a	n/a	n/a	n/a	n/a	79	2	3	4	n/a	n/a	n/a	n/a	n/a
279390	STOP	n/a	LTP064	ltpFR	13	n/a	n/a	n/a	n/a	n/a	n/a	n/a	n/a	n/a	n/a	n/a	n/a	n/a	n/a	n/a
281430	WORD	wordpools/wasnorm_wordpool.txt	LTP064	ltpFR	13	2	0	TWIG	1527	n/a	0	n/a	0	0	0	0	0.5869140625	0.422607421875	upper	../fonts/zerothre.ttf
284435	START	n/a	LTP064	ltpFR	13	n/a	n/a	n/a	n/a	n/a	n/a	n/a	n/a	n/a	n/a	n/a	n/a	n/a	n/a	n/a
285575	PROB	n/a	LTP064	ltpFR	13	n/a	n/a	n/a	n/a	n/a	n/a	16	8	3	5	n/a	n/a	n/a	n/a	n/a
287721	PROB	n/a	LTP064	ltpFR	13	n/a	n/a	n/a	n/a	n/a	n/a	17	9	4	4	n/a	n/a	n/a	n/a	n/a
289237	PROB	n/a	LTP064	ltpFR	13	n/a	n/a	n/a	n/a	n/a	n/a	10	1	8	1	n/a	n/a	n/a	n/a	n/a
290211	PROB	n/a	LTP064	ltpFR	13	n/a	n/a	n/a	n/a	n/a	n/a	8	1	6	1	n/a	n/a	n/a	n/a	n/a
290981	STOP	n/a	LTP064	ltpFR	13	n/a	n/a	n/a	n/a	n/a	n/a	n/a	n/a	n/a	n/a	n/a	n/a	n/a	n/a	n/a
293449	WORD	wordpools/wasnorm_wordpool.txt	LTP064	ltpFR	13	2	0	MAPLE	866	n/a	1	n/a	0	0	0	0	0.5869140625	0.422607421875	upper	../fonts/zerothre.ttf
296454	START	n/a	LTP064	ltpFR	13	n/a	n/a	n/a	n/a	n/a	n/a	n/a	n/a	n/a	n/a	n/a	n/a	n/a	n/a	n/a
297644	PROB	n/a	LTP064	ltpFR	13	n/a	n/a	n/a	n/a	n/a	n/a	11	7	2	2	n/a	n/a	n/a	n/a	n/a
298825	PROB	n/a	LTP064	ltpFR	13	n/a	n/a	n/a	n/a	n/a	n/a	6	3	2	1	n/a	n/a	n/a	n/a	n/a
299707	PROB	n/a	LTP064	ltpFR	13	n/a	n/a	n/a	n/a	n/a	n/a	12	5	2	5	n/a	n/a	n/a	n/a	n/a
300541	PROB	n/a	LTP064	ltpFR	13	n/a	n/a	n/a	n/a	n/a	n/a	12	5	6	1	n/a	n/a	n/a	n/a	n/a
301473	PROB	n/a	LTP064	ltpFR	13	n/a	n/a	n/a	n/a	n/a	n/a	13	4	1	9	n/a	n/a	n/a	n/a	n/a
302613	PROB	n/a	LTP064	ltpFR	13	n/a	n/a	n/a	n/a	n/a	n/a	16	7	7	2	n/a	n/a	n/a	n/a	n/a
303965	STOP	n/a	LTP064	ltpFR	13	n/a	n/a	n/a	n/a	n/a	n/a	n/a	n/a	n/a	n/a	n/a	n/a	n/a	n/a	n/a
305643	WORD	wordpools/wasnorm_wordpool.txt	LTP064	ltpFR	13	2	0	DONKEY	484	n/a	1	n/a	0	0	0	0	0.5869140625	0.422607421875	upper	../fonts/zerothre.ttf
308648	START	n/a	LTP064	ltpFR	13	n/a	n/a	n/a	n/a	n/a	n/a	n/a	n/a	n/a	n/a	n/a	n/a	n/a	n/a	n/a
309679	PROB	n/a	LTP064	ltpFR	13	n/a	n/a	n/a	n/a	n/a	n/a	17	6	5	6	n/a	n/a	n/a	n/a	n/a
310919	PROB	n/a	LTP064	ltpFR	13	n/a	n/a	n/a	n/a	n/a	n/a	6	1	3	2	n/a	n/a	n/a	n/a	n/a
311726	PROB	n/a	LTP064	ltpFR	13	n/a	n/a	n/a	n/a	n/a	n/a	8	1	2	5	n/a	n/a	n/a	n/a	n/a
312643	PROB	n/a	LTP064	ltpFR	13	n/a	n/a	n/a	n/a	n/a	n/a	4	1	2	1	n/a	n/a	n/a	n/a	n/a
313500	PROB	n/a	LTP064	ltpFR	13	n/a	n/a	n/a	n/a	n/a	n/a	17	5	7	5	n/a	n/a	n/a	n/a	n/a
314723	PROB	n/a	LTP064	ltpFR	13	n/a	n/a	n/a	n/a	n/a	n/a	15	3	7	5	n/a	n/a	n/a	n/a	n/a
316125	STOP	n/a	LTP064	ltpFR	13	n/a	n/a	n/a	n/a	n/a	n/a	n/a	n/a	n/a	n/a	n/a	n/a	n/a	n/a	n/a
317462	WORD	wordpools/wasnorm_wordpool.txt	LTP064	ltpFR	13	2	0	WHISTLE	1606	n/a	0	n/a	0	0	0	0	0.5869140625	0.422607421875	upper	../fonts/zerothre.ttf
320468	START	n/a	LTP064	ltpFR	13	n/a	n/a	n/a	n/a	n/a	n/a	n/a	n/a	n/a	n/a	n/a	n/a	n/a	n/a	n/a
321558	PROB	n/a	LTP064	ltpFR	13	n/a	n/a	n/a	n/a	n/a	n/a	20	6	8	6	n/a	n/a	n/a	n/a	n/a
323005	PROB	n/a	LTP064	ltpFR	13	n/a	n/a	n/a	n/a	n/a	n/a	11	4	3	4	n/a	n/a	n/a	n/a	n/a
324154	PROB	n/a	LTP064	ltpFR	13	n/a	n/a	n/a	n/a	n/a	n/a	11	7	3	1	n/a	n/a	n/a	n/a	n/a
325161	PROB	n/a	LTP064	ltpFR	13	n/a	n/a	n/a	n/a	n/a	n/a	18	9	4	5	n/a	n/a	n/a	n/a	n/a
326427	PROB	n/a	LTP064	ltpFR	13	n/a	n/a	n/a	n/a	n/a	n/a	15	8	5	2	n/a	n/a	n/a	n/a	n/a
327949	STOP	n/a	LTP064	ltpFR	13	n/a	n/a	n/a	n/a	n/a	n/a	n/a	n/a	n/a	n/a	n/a	n/a	n/a	n/a	n/a
329382	WORD	wordpools/wasnorm_wordpool.txt	LTP064	ltpFR	13	2	0	GODDESS	646	n/a	1	n/a	0	0	0	0	0.5869140625	0.422607421875	upper	../fonts/zerothre.ttf
332387	START	n/a	LTP064	ltpFR	13	n/a	n/a	n/a	n/a	n/a	n/a	n/a	n/a	n/a	n/a	n/a	n/a	n/a	n/a	n/a
333552	PROB	n/a	LTP064	ltpFR	13	n/a	n/a	n/a	n/a	n/a	n/a	13	4	3	6	n/a	n/a	n/a	n/a	n/a
334642	PROB	n/a	LTP064	ltpFR	13	n/a	n/a	n/a	n/a	n/a	n/a	12	2	2	8	n/a	n/a	n/a	n/a	n/a
335666	PROB	n/a	LTP064	ltpFR	13	n/a	n/a	n/a	n/a	n/a	n/a	20	7	7	6	n/a	n/a	n/a	n/a	n/a
336847	PROB	n/a	LTP064	ltpFR	13	n/a	n/a	n/a	n/a	n/a	n/a	21	9	3	9	n/a	n/a	n/a	n/a	n/a
338238	PROB	n/a	LTP064	ltpFR	13	n/a	n/a	n/a	n/a	n/a	n/a	9	3	3	3	n/a	n/a	n/a	n/a	n/a
339109	STOP	n/a	LTP064	ltpFR	13	n/a	n/a	n/a	n/a	n/a	n/a	n/a	n/a	n/a	n/a	n/a	n/a	n/a	n/a	n/a
341376	WORD	wordpools/wasnorm_wordpool.txt	LTP064	ltpFR	13	2	1	FACE	547	n/a	0	n/a	0	0	0	1	0.412841796875	0.57763671875	lower	../fonts/amplitud.ttf
344381	START	n/a	LTP064	ltpFR	13	n/a	n/a	n/a	n/a	n/a	n/a	n/a	n/a	n/a	n/a	n/a	n/a	n/a	n/a	n/a
345430	PROB	n/a	LTP064	ltpFR	13	n/a	n/a	n/a	n/a	n/a	n/a	13	5	2	6	n/a	n/a	n/a	n/a	n/a
346686	PROB	n/a	LTP064	ltpFR	13	n/a	n/a	n/a	n/a	n/a	n/a	25	8	7	8	n/a	n/a	n/a	n/a	n/a
348526	PROB	n/a	LTP064	ltpFR	13	n/a	n/a	n/a	n/a	n/a	n/a	23	8	7	8	n/a	n/a	n/a	n/a	n/a
349757	PROB	n/a	LTP064	ltpFR	13	n/a	n/a	n/a	n/a	n/a	n/a	14	6	5	3	n/a	n/a	n/a	n/a	n/a
351414	STOP	n/a	LTP064	ltpFR	13	n/a	n/a	n/a	n/a	n/a	n/a	n/a	n/a	n/a	n/a	n/a	n/a	n/a	n/a	n/a
353237	WORD	wordpools/wasnorm_wordpool.txt	LTP064	ltpFR	13	2	1	TEACHER	1440	n/a	1	n/a	0	0	0	1	0.412841796875	0.57763671875	lower	../fonts/amplitud.ttf
356243	START	n/a	LTP064	ltpFR	13	n/a	n/a	n/a	n/a	n/a	n/a	n/a	n/a	n/a	n/a	n/a	n/a	n/a	n/a	n/a
357132	PROB	n/a	LTP064	ltpFR	13	n/a	n/a	n/a	n/a	n/a	n/a	18	5	4	9	n/a	n/a	n/a	n/a	n/a
359239	PROB	n/a	LTP064	ltpFR	13	n/a	n/a	n/a	n/a	n/a	n/a	21	3	9	9	n/a	n/a	n/a	n/a	n/a
360437	PROB	n/a	LTP064	ltpFR	13	n/a	n/a	n/a	n/a	n/a	n/a	18	9	1	8	n/a	n/a	n/a	n/a	n/a
361619	PROB	n/a	LTP064	ltpFR	13	n/a	n/a	n/a	n/a	n/a	n/a	14	8	2	4	n/a	n/a	n/a	n/a	n/a
363214	STOP	n/a	LTP064	ltpFR	13	n/a	n/a	n/a	n/a	n/a	n/a	n/a	n/a	n/a	n/a	n/a	n/a	n/a	n/a	n/a
365139	WORD	wordpools/wasnorm_wordpool.txt	LTP064	ltpFR	13	2	1	JUNGLE	764	n/a	1	n/a	0	0	0	1	0.412841796875	0.57763671875	lower	../fonts/amplitud.ttf
368144	START	n/a	LTP064	ltpFR	13	n/a	n/a	n/a	n/a	n/a	n/a	n/a	n/a	n/a	n/a	n/a	n/a	n/a	n/a	n/a
369244	PROB	n/a	LTP064	ltpFR	13	n/a	n/a	n/a	n/a	n/a	n/a	5	1	3	1	n/a	n/a	n/a	n/a	n/a
369992	PROB	n/a	LTP064	ltpFR	13	n/a	n/a	n/a	n/a	n/a	n/a	20	7	4	9	n/a	n/a	n/a	n/a	n/a
371798	PROB	n/a	LTP064	ltpFR	13	n/a	n/a	n/a	n/a	n/a	n/a	20	9	5	6	n/a	n/a	n/a	n/a	n/a
373472	PROB	n/a	LTP064	ltpFR	13	n/a	n/a	n/a	n/a	n/a	n/a	13	3	1	9	n/a	n/a	n/a	n/a	n/a
376141	STOP	n/a	LTP064	ltpFR	13	n/a	n/a	n/a	n/a	n/a	n/a	n/a	n/a	n/a	n/a	n/a	n/a	n/a	n/a	n/a
377108	WORD	wordpools/wasnorm_wordpool.txt	LTP064	ltpFR	13	2	1	OX	994	n/a	1	n/a	0	0	0	1	0.412841796875	0.57763671875	lower	../fonts/amplitud.ttf
380114	START	n/a	LTP064	ltpFR	13	n/a	n/a	n/a	n/a	n/a	n/a	n/a	n/a	n/a	n/a	n/a	n/a	n/a	n/a	n/a
380937	PROB	n/a	LTP064	ltpFR	13	n/a	n/a	n/a	n/a	n/a	n/a	10	1	1	8	n/a	n/a	n/a	n/a	n/a
382028	PROB	n/a	LTP064	ltpFR	13	n/a	n/a	n/a	n/a	n/a	n/a	17	7	2	8	n/a	n/a	n/a	n/a	n/a
383277	PROB	n/a	LTP064	ltpFR	13	n/a	n/a	n/a	n/a	n/a	n/a	1	4	3	3	n/a	n/a	n/a	n/a	n/a
384075	PROB	n/a	LTP064	ltpFR	13	n/a	n/a	n/a	n/a	n/a	n/a	9	6	1	2	n/a	n/a	n/a	n/a	n/a
385116	PROB	n/a	LTP064	ltpFR	13	n/a	n/a	n/a	n/a	n/a	n/a	10	4	3	3	n/a	n/a	n/a	n/a	n/a
386115	PROB	n/a	LTP064	ltpFR	13	n/a	n/a	n/a	n/a	n/a	n/a	19	4	7	8	n/a	n/a	n/a	n/a	n/a
387358	STOP	n/a	LTP064	ltpFR	13	n/a	n/a	n/a	n/a	n/a	n/a	n/a	n/a	n/a	n/a	n/a	n/a	n/a	n/a	n/a
388970	WORD	wordpools/wasnorm_wordpool.txt	LTP064	ltpFR	13	2	1	PERCH	1048	n/a	0	n/a	0	0	0	1	0.412841796875	0.57763671875	lower	../fonts/amplitud.ttf
391975	START	n/a	LTP064	ltpFR	13	n/a	n/a	n/a	n/a	n/a	n/a	n/a	n/a	n/a	n/a	n/a	n/a	n/a	n/a	n/a
392940	PROB	n/a	LTP064	ltpFR	13	n/a	n/a	n/a	n/a	n/a	n/a	21	6	8	7	n/a	n/a	n/a	n/a	n/a
394356	PROB	n/a	LTP064	ltpFR	13	n/a	n/a	n/a	n/a	n/a	n/a	17	7	9	1	n/a	n/a	n/a	n/a	n/a
395646	PROB	n/a	LTP064	ltpFR	13	n/a	n/a	n/a	n/a	n/a	n/a	10	2	1	7	n/a	n/a	n/a	n/a	n/a
396727	PROB	n/a	LTP064	ltpFR	13	n/a	n/a	n/a	n/a	n/a	n/a	14	5	4	7	n/a	n/a	n/a	n/a	n/a
399974	STOP	n/a	LTP064	ltpFR	13	n/a	n/a	n/a	n/a	n/a	n/a	n/a	n/a	n/a	n/a	n/a	n/a	n/a	n/a	n/a
401014	WORD	wordpools/wasnorm_wordpool.txt	LTP064	ltpFR	13	2	1	GORILLA	650	n/a	1	n/a	0	0	0	1	0.412841796875	0.57763671875	lower	../fonts/amplitud.ttf
404019	START	n/a	LTP064	ltpFR	13	n/a	n/a	n/a	n/a	n/a	n/a	n/a	n/a	n/a	n/a	n/a	n/a	n/a	n/a	n/a
405051	PROB	n/a	LTP064	ltpFR	13	n/a	n/a	n/a	n/a	n/a	n/a	16	6	1	9	n/a	n/a	n/a	n/a	n/a
406392	PROB	n/a	LTP064	ltpFR	13	n/a	n/a	n/a	n/a	n/a	n/a	17	7	4	6	n/a	n/a	n/a	n/a	n/a
408614	PROB	n/a	LTP064	ltpFR	13	n/a	n/a	n/a	n/a	n/a	n/a	12	4	7	1	n/a	n/a	n/a	n/a	n/a
410287	PROB	n/a	LTP064	ltpFR	13	n/a	n/a	n/a	n/a	n/a	n/a	14	1	4	9	n/a	n/a	n/a	n/a	n/a
411717	STOP	n/a	LTP064	ltpFR	13	n/a	n/a	n/a	n/a	n/a	n/a	n/a	n/a	n/a	n/a	n/a	n/a	n/a	n/a	n/a
413201	WORD	wordpools/wasnorm_wordpool.txt	LTP064	ltpFR	13	2	0	FRECKLE	602	n/a	1	n/a	0	0	0	0	0.5869140625	0.422607421875	upper	../fonts/zerothre.ttf
416206	START	n/a	LTP064	ltpFR	13	n/a	n/a	n/a	n/a	n/a	n/a	n/a	n/a	n/a	n/a	n/a	n/a	n/a	n/a	n/a
417262	PROB	n/a	LTP064	ltpFR	13	n/a	n/a	n/a	n/a	n/a	n/a	18	9	1	8	n/a	n/a	n/a	n/a	n/a
418261	PROB	n/a	LTP064	ltpFR	13	n/a	n/a	n/a	n/a	n/a	n/a	174	6	6	5	n/a	n/a	n/a	n/a	n/a
419734	PROB	n/a	LTP064	ltpFR	13	n/a	n/a	n/a	n/a	n/a	n/a	14	8	5	1	n/a	n/a	n/a	n/a	n/a
421249	PROB	n/a	LTP064	ltpFR	13	n/a	n/a	n/a	n/a	n/a	n/a	10	1	1	8	n/a	n/a	n/a	n/a	n/a
422165	PROB	n/a	LTP064	ltpFR	13	n/a	n/a	n/a	n/a	n/a	n/a	17	4	9	4	n/a	n/a	n/a	n/a	n/a
423502	STOP	n/a	LTP064	ltpFR	13	n/a	n/a	n/a	n/a	n/a	n/a	n/a	n/a	n/a	n/a	n/a	n/a	n/a	n/a	n/a
425311	WORD	wordpools/wasnorm_wordpool.txt	LTP064	ltpFR	13	2	0	LOBSTER	837	n/a	0	n/a	0	0	0	0	0.5869140625	0.422607421875	upper	../fonts/zerothre.ttf
428317	START	n/a	LTP064	ltpFR	13	n/a	n/a	n/a	n/a	n/a	n/a	n/a	n/a	n/a	n/a	n/a	n/a	n/a	n/a	n/a
429131	PROB	n/a	LTP064	ltpFR	13	n/a	n/a	n/a	n/a	n/a	n/a	1	7	9	6	n/a	n/a	n/a	n/a	n/a
431479	PROB	n/a	LTP064	ltpFR	13	n/a	n/a	n/a	n/a	n/a	n/a	15	5	6	4	n/a	n/a	n/a	n/a	n/a
432553	PROB	n/a	LTP064	ltpFR	13	n/a	n/a	n/a	n/a	n/a	n/a	16	7	8	1	n/a	n/a	n/a	n/a	n/a
433909	PROB	n/a	LTP064	ltpFR	13	n/a	n/a	n/a	n/a	n/a	n/a	15	2	5	8	n/a	n/a	n/a	n/a	n/a
435101	STOP	n/a	LTP064	ltpFR	13	n/a	n/a	n/a	n/a	n/a	n/a	n/a	n/a	n/a	n/a	n/a	n/a	n/a	n/a	n/a
437431	WORD	wordpools/wasnorm_wordpool.txt	LTP064	ltpFR	13	2	0	CLASS	318	n/a	0	n/a	0	0	0	0	0.5869140625	0.422607421875	upper	../fonts/zerothre.ttf
440436	START	n/a	LTP064	ltpFR	13	n/a	n/a	n/a	n/a	n/a	n/a	n/a	n/a	n/a	n/a	n/a	n/a	n/a	n/a	n/a
441401	PROB	n/a	LTP064	ltpFR	13	n/a	n/a	n/a	n/a	n/a	n/a	11	8	1	2	n/a	n/a	n/a	n/a	n/a
442366	PROB	n/a	LTP064	ltpFR	13	n/a	n/a	n/a	n/a	n/a	n/a	11	3	6	2	n/a	n/a	n/a	n/a	n/a
444138	PROB	n/a	LTP064	ltpFR	13	n/a	n/a	n/a	n/a	n/a	n/a	17	7	2	8	n/a	n/a	n/a	n/a	n/a
445853	PROB	n/a	LTP064	ltpFR	13	n/a	n/a	n/a	n/a	n/a	n/a	13	3	4	6	n/a	n/a	n/a	n/a	n/a
447542	STOP	n/a	LTP064	ltpFR	13	n/a	n/a	n/a	n/a	n/a	n/a	n/a	n/a	n/a	n/a	n/a	n/a	n/a	n/a	n/a
449408	WORD	wordpools/wasnorm_wordpool.txt	LTP064	ltpFR	13	2	1	CITY	314	n/a	0	n/a	0	0	0	1	0.412841796875	0.57763671875	lower	../fonts/amplitud.ttf
452414	START	n/a	LTP064	ltpFR	13	n/a	n/a	n/a	n/a	n/a	n/a	n/a	n/a	n/a	n/a	n/a	n/a	n/a	n/a	n/a
453612	PROB	n/a	LTP064	ltpFR	13	n/a	n/a	n/a	n/a	n/a	n/a	12	3	7	2	n/a	n/a	n/a	n/a	n/a
455866	PROB	n/a	LTP064	ltpFR	13	n/a	n/a	n/a	n/a	n/a	n/a	9	1	5	3	n/a	n/a	n/a	n/a	n/a
456757	PROB	n/a	LTP064	ltpFR	13	n/a	n/a	n/a	n/a	n/a	n/a	13	3	2	8	n/a	n/a	n/a	n/a	n/a
458190	PROB	n/a	LTP064	ltpFR	13	n/a	n/a	n/a	n/a	n/a	n/a	14	6	7	1	n/a	n/a	n/a	n/a	n/a
459438	STOP	n/a	LTP064	ltpFR	13	n/a	n/a	n/a	n/a	n/a	n/a	n/a	n/a	n/a	n/a	n/a	n/a	n/a	n/a	n/a
461527	WORD	wordpools/wasnorm_wordpool.txt	LTP064	ltpFR	13	2	1	VILLAGE	1566	n/a	0	n/a	0	0	0	1	0.412841796875	0.57763671875	lower	../fonts/amplitud.ttf
464532	START	n/a	LTP064	ltpFR	13	n/a	n/a	n/a	n/a	n/a	n/a	n/a	n/a	n/a	n/a	n/a	n/a	n/a	n/a	n/a
465688	PROB	n/a	LTP064	ltpFR	13	n/a	n/a	n/a	n/a	n/a	n/a	17	3	8	6	n/a	n/a	n/a	n/a	n/a
467003	PROB	n/a	LTP064	ltpFR	13	n/a	n/a	n/a	n/a	n/a	n/a	12	3	6	3	n/a	n/a	n/a	n/a	n/a
467961	PROB	n/a	LTP064	ltpFR	13	n/a	n/a	n/a	n/a	n/a	n/a	18	4	6	8	n/a	n/a	n/a	n/a	n/a
469352	PROB	n/a	LTP064	ltpFR	13	n/a	n/a	n/a	n/a	n/a	n/a	5	1	3	1	n/a	n/a	n/a	n/a	n/a
470158	PROB	n/a	LTP064	ltpFR	13	n/a	n/a	n/a	n/a	n/a	n/a	13	1	5	7	n/a	n/a	n/a	n/a	n/a
471238	STOP	n/a	LTP064	ltpFR	13	n/a	n/a	n/a	n/a	n/a	n/a	n/a	n/a	n/a	n/a	n/a	n/a	n/a	n/a	n/a
474371	REC_START	n/a	LTP064	ltpFR	13	2	n/a	n/a	n/a	n/a	n/a	n/a	0	0	0	n/a	n/a	n/a	n/a	n/a
474851	REC_WORD	wordpools/wasnorm_wordpool.txt	LTP064	ltpFR	13	2	0	LOBSTER	837	n/a	0	n/a	0	0	0	n/a	n/a	n/a	n/a	n/a
475400	REC_WORD	wordpools/wasnorm_wordpool.txt	LTP064	ltpFR	13	2	0	CLASS	318	n/a	0	n/a	0	0	0	n/a	n/a	n/a	n/a	n/a
475920	REC_WORD	wordpools/wasnorm_wordpool.txt	LTP064	ltpFR	13	2	1	CITY	314	n/a	0	n/a	0	0	0	n/a	n/a	n/a	n/a	n/a
476198	REC_WORD	wordpools/wasnorm_wordpool.txt	LTP064	ltpFR	13	2	1	VILLAGE	1566	n/a	0	n/a	0	0	0	n/a	n/a	n/a	n/a	n/a
476819	REC_WORD	wordpools/wasnorm_wordpool.txt	LTP064	ltpFR	13	2	0	GODDESS	646	n/a	1	n/a	0	0	0	n/a	n/a	n/a	n/a	n/a
477244	REC_WORD	wordpools/wasnorm_wordpool.txt	LTP064	ltpFR	13	2	1	JUNGLE	764	n/a	1	n/a	0	0	0	n/a	n/a	n/a	n/a	n/a
477807	REC_WORD	wordpools/wasnorm_wordpool.txt	LTP064	ltpFR	13	2	1	FACE	547	n/a	0	n/a	0	0	0	n/a	n/a	n/a	n/a	n/a
478465	REC_WORD	wordpools/wasnorm_wordpool.txt	LTP064	ltpFR	13	2	1	TEACHER	1440	n/a	1	n/a	0	0	0	n/a	n/a	n/a	n/a	n/a
490265	REC_WORD	wordpools/wasnorm_wordpool.txt	LTP064	ltpFR	13	2	1	OX	994	n/a	1	n/a	0	0	0	n/a	n/a	n/a	n/a	n/a
490710	REC_WORD	wordpools/wasnorm_wordpool.txt	LTP064	ltpFR	13	2	1	PERCH	1048	n/a	0	n/a	0	0	0	n/a	n/a	n/a	n/a	n/a
491105	REC_WORD	wordpools/wasnorm_wordpool.txt	LTP064	ltpFR	13	2	1	GORILLA	650	n/a	1	n/a	0	0	0	n/a	n/a	n/a	n/a	n/a
491456	REC_WORD	wordpools/wasnorm_wordpool.txt	LTP064	ltpFR	13	2	0	FRECKLE	602	n/a	1	n/a	0	0	0	n/a	n/a	n/a	n/a	n/a
534858	REC_WORD	wordpools/wasnorm_wordpool.txt	LTP064	ltpFR	13	2	0	MAPLE	866	n/a	1	n/a	0	0	0	n/a	n/a	n/a	n/a	n/a
535281	REC_WORD	wordpools/wasnorm_wordpool.txt	LTP064	ltpFR	13	2	0	TWIG	1527	n/a	0	n/a	0	0	0	n/a	n/a	n/a	n/a	n/a
537013	REC_WORD	wordpools/wasnorm_wordpool.txt	LTP064	ltpFR	13	2	n/a	FROG	608	n/a	n/a	n/a	0	0	0	n/a	n/a	n/a	n/a	n/a
538081	REC_WORD	wordpools/wasnorm_wordpool.txt	LTP064	ltpFR	13	2	0	WHISTLE	1606	n/a	0	n/a	0	0	0	n/a	n/a	n/a	n/a	n/a
562451	WORD	wordpools/wasnorm_wordpool.txt	LTP064	ltpFR	13	3	0	HUT	729	n/a	0	n/a	0	0	0	0	0.5869140625	0.422607421875	upper	../fonts/zerothre.ttf
566646	WORD	wordpools/wasnorm_wordpool.txt	LTP064	ltpFR	13	3	0	VAGRANT	1544	n/a	1	n/a	0	0	0	0	0.5869140625	0.422607421875	upper	../fonts/zerothre.ttf
570592	WORD	wordpools/wasnorm_wordpool.txt	LTP064	ltpFR	13	3	0	CAGE	218	n/a	1	n/a	0	0	0	0	0.5869140625	0.422607421875	upper	../fonts/zerothre.ttf
574595	WORD	wordpools/wasnorm_wordpool.txt	LTP064	ltpFR	13	3	0	AFRICA	9	n/a	1	n/a	0	0	0	0	0.5869140625	0.422607421875	upper	../fonts/zerothre.ttf
578698	WORD	wordpools/wasnorm_wordpool.txt	LTP064	ltpFR	13	3	0	JEANS	752	n/a	1	n/a	0	0	0	0	0.5869140625	0.422607421875	upper	../fonts/zerothre.ttf
582776	WORD	wordpools/wasnorm_wordpool.txt	LTP064	ltpFR	13	3	0	PAINTER	1004	n/a	1	n/a	0	0	0	0	0.5869140625	0.422607421875	upper	../fonts/zerothre.ttf
586755	WORD	wordpools/wasnorm_wordpool.txt	LTP064	ltpFR	13	3	0	PEDAL	1037	n/a	1	n/a	0	0	0	0	0.5869140625	0.422607421875	upper	../fonts/zerothre.ttf
590825	WORD	wordpools/wasnorm_wordpool.txt	LTP064	ltpFR	13	3	0	SKETCH	1315	n/a	1	n/a	0	0	0	0	0.5869140625	0.422607421875	upper	../fonts/zerothre.ttf
594754	WORD	wordpools/wasnorm_wordpool.txt	LTP064	ltpFR	13	3	0	PAINTING	1005	n/a	1	n/a	0	0	0	0	0.5869140625	0.422607421875	upper	../fonts/zerothre.ttf
598941	WORD	wordpools/wasnorm_wordpool.txt	LTP064	ltpFR	13	3	0	TRICYCLE	1506	n/a	1	n/a	0	0	0	0	0.5869140625	0.422607421875	upper	../fonts/zerothre.ttf
602820	WORD	wordpools/wasnorm_wordpool.txt	LTP064	ltpFR	13	3	0	DOCK	477	n/a	1	n/a	0	0	0	0	0.5869140625	0.422607421875	upper	../fonts/zerothre.ttf
606956	WORD	wordpools/wasnorm_wordpool.txt	LTP064	ltpFR	13	3	0	MOAT	903	n/a	1	n/a	0	0	0	0	0.5869140625	0.422607421875	upper	../fonts/zerothre.ttf
610960	WORD	wordpools/wasnorm_wordpool.txt	LTP064	ltpFR	13	3	0	NICOTINE	951	n/a	1	n/a	0	0	0	0	0.5869140625	0.422607421875	upper	../fonts/zerothre.ttf
614781	WORD	wordpools/wasnorm_wordpool.txt	LTP064	ltpFR	13	3	0	BEGGAR	117	n/a	1	n/a	0	0	0	0	0.5869140625	0.422607421875	upper	../fonts/zerothre.ttf
618734	WORD	wordpools/wasnorm_wordpool.txt	LTP064	ltpFR	13	3	0	BLACKBERRY	132	n/a	1	n/a	0	0	0	0	0.5869140625	0.422607421875	upper	../fonts/zerothre.ttf
622672	WORD	wordpools/wasnorm_wordpool.txt	LTP064	ltpFR	13	3	0	WORLD	1622	n/a	1	n/a	0	0	0	0	0.5869140625	0.422607421875	upper	../fonts/zerothre.ttf
628441	REC_START	n/a	LTP064	ltpFR	13	3	n/a	n/a	n/a	n/a	n/a	n/a	0	0	0	n/a	n/a	n/a	n/a	n/a
629090	REC_WORD	wordpools/wasnorm_wordpool.txt	LTP064	ltpFR	13	3	0	NICOTINE	951	n/a	1	n/a	0	0	0	n/a	n/a	n/a	n/a	n/a
629743	REC_WORD	wordpools/wasnorm_wordpool.txt	LTP064	ltpFR	13	3	0	BEGGAR	117	n/a	1	n/a	0	0	0	n/a	n/a	n/a	n/a	n/a
630100	REC_WORD	wordpools/wasnorm_wordpool.txt	LTP064	ltpFR	13	3	0	BLACKBERRY	132	n/a	1	n/a	0	0	0	n/a	n/a	n/a	n/a	n/a
630773	REC_WORD	wordpools/wasnorm_wordpool.txt	LTP064	ltpFR	13	3	0	WORLD	1622	n/a	1	n/a	0	0	0	n/a	n/a	n/a	n/a	n/a
631833	REC_WORD	wordpools/wasnorm_wordpool.txt	LTP064	ltpFR	13	3	0	HUT	729	n/a	0	n/a	0	0	0	n/a	n/a	n/a	n/a	n/a
632118	REC_WORD	wordpools/wasnorm_wordpool.txt	LTP064	ltpFR	13	3	0	VAGRANT	1544	n/a	1	n/a	0	0	0	n/a	n/a	n/a	n/a	n/a
632675	REC_WORD	wordpools/wasnorm_wordpool.txt	LTP064	ltpFR	13	3	0	AFRICA	9	n/a	1	n/a	0	0	0	n/a	n/a	n/a	n/a	n/a
633194	REC_WORD	wordpools/wasnorm_wordpool.txt	LTP064	ltpFR	13	3	0	CAGE	218	n/a	1	n/a	0	0	0	n/a	n/a	n/a	n/a	n/a
641486	REC_WORD	wordpools/wasnorm_wordpool.txt	LTP064	ltpFR	13	3	0	JEANS	752	n/a	1	n/a	0	0	0	n/a	n/a	n/a	n/a	n/a
642504	REC_WORD	wordpools/wasnorm_wordpool.txt	LTP064	ltpFR	13	3	0	PAINTER	1004	n/a	1	n/a	0	0	0	n/a	n/a	n/a	n/a	n/a
644305	REC_WORD	wordpools/wasnorm_wordpool.txt	LTP064	ltpFR	13	3	0	PEDAL	1037	n/a	1	n/a	0	0	0	n/a	n/a	n/a	n/a	n/a
644720	REC_WORD	wordpools/wasnorm_wordpool.txt	LTP064	ltpFR	13	3	0	SKETCH	1315	n/a	1	n/a	0	0	0	n/a	n/a	n/a	n/a	n/a
646385	REC_WORD	wordpools/wasnorm_wordpool.txt	LTP064	ltpFR	13	3	0	PAINTING	1005	n/a	1	n/a	0	0	0	n/a	n/a	n/a	n/a	n/a
712767	START	n/a	LTP064	ltpFR	13	n/a	n/a	n/a	n/a	n/a	n/a	n/a	n/a	n/a	n/a	n/a	n/a	n/a	n/a	n/a
714274	PROB	n/a	LTP064	ltpFR	13	n/a	n/a	n/a	n/a	n/a	n/a	13	8	2	3	n/a	n/a	n/a	n/a	n/a
715863	PROB	n/a	LTP064	ltpFR	13	n/a	n/a	n/a	n/a	n/a	n/a	19	6	9	4	n/a	n/a	n/a	n/a	n/a
717437	PROB	n/a	LTP064	ltpFR	13	n/a	n/a	n/a	n/a	n/a	n/a	17	7	5	5	n/a	n/a	n/a	n/a	n/a
718519	PROB	n/a	LTP064	ltpFR	13	n/a	n/a	n/a	n/a	n/a	n/a	20	8	4	8	n/a	n/a	n/a	n/a	n/a
719693	STOP	n/a	LTP064	ltpFR	13	n/a	n/a	n/a	n/a	n/a	n/a	n/a	n/a	n/a	n/a	n/a	n/a	n/a	n/a	n/a
721831	WORD	wordpools/wasnorm_wordpool.txt	LTP064	ltpFR	13	4	0	FENCE	560	n/a	0	n/a	0	0	0	0	0.5869140625	0.422607421875	upper	../fonts/zerothre.ttf
724836	START	n/a	LTP064	ltpFR	13	n/a	n/a	n/a	n/a	n/a	n/a	n/a	n/a	n/a	n/a	n/a	n/a	n/a	n/a	n/a
725759	PROB	n/a	LTP064	ltpFR	13	n/a	n/a	n/a	n/a	n/a	n/a	17	6	2	9	n/a	n/a	n/a	n/a	n/a
727525	PROB	n/a	LTP064	ltpFR	13	n/a	n/a	n/a	n/a	n/a	n/a	18	4	8	6	n/a	n/a	n/a	n/a	n/a
729506	PROB	n/a	LTP064	ltpFR	13	n/a	n/a	n/a	n/a	n/a	n/a	13	7	1	5	n/a	n/a	n/a	n/a	n/a
731358	STOP	n/a	LTP064	ltpFR	13	n/a	n/a	n/a	n/a	n/a	n/a	n/a	n/a	n/a	n/a	n/a	n/a	n/a	n/a	n/a
733725	WORD	wordpools/wasnorm_wordpool.txt	LTP064	ltpFR	13	4	0	MANAGER	863	n/a	0	n/a	0	0	0	0	0.5869140625	0.422607421875	upper	../fonts/zerothre.ttf
736730	START	n/a	LTP064	ltpFR	13	n/a	n/a	n/a	n/a	n/a	n/a	n/a	n/a	n/a	n/a	n/a	n/a	n/a	n/a	n/a
737887	PROB	n/a	LTP064	ltpFR	13	n/a	n/a	n/a	n/a	n/a	n/a	18	3	6	9	n/a	n/a	n/a	n/a	n/a
739203	PROB	n/a	LTP064	ltpFR	13	n/a	n/a	n/a	n/a	n/a	n/a	12	3	5	4	n/a	n/a	n/a	n/a	n/a
740243	PROB	n/a	LTP064	ltpFR	13	n/a	n/a	n/a	n/a	n/a	n/a	19	3	7	9	n/a	n/a	n/a	n/a	n/a
741517	PROB	n/a	LTP064	ltpFR	13	n/a	n/a	n/a	n/a	n/a	n/a	17	2	7	8	n/a	n/a	n/a	n/a	n/a
742814	PROB	n/a	LTP064	ltpFR	13	n/a	n/a	n/a	n/a	n/a	n/a	14	1	6	7	n/a	n/a	n/a	n/a	n/a
743973	STOP	n/a	LTP064	ltpFR	13	n/a	n/a	n/a	n/a	n/a	n/a	n/a	n/a	n/a	n/a	n/a	n/a	n/a	n/a	n/a
745744	WORD	wordpools/wasnorm_wordpool.txt	LTP064	ltpFR	13	4	1	OWNER	993	n/a	1	n/a	0	0	0	1	0.412841796875	0.57763671875	lower	../fonts/amplitud.ttf
748750	START	n/a	LTP064	ltpFR	13	n/a	n/a	n/a	n/a	n/a	n/a	n/a	n/a	n/a	n/a	n/a	n/a	n/a	n/a	n/a
749889	PROB	n/a	LTP064	ltpFR	13	n/a	n/a	n/a	n/a	n/a	n/a	14	1	6	7	n/a	n/a	n/a	n/a	n/a
751013	PROB	n/a	LTP064	ltpFR	13	n/a	n/a	n/a	n/a	n/a	n/a	14	2	9	3	n/a	n/a	n/a	n/a	n/a
752546	PROB	n/a	LTP064	ltpFR	13	n/a	n/a	n/a	n/a	n/a	n/a	14	7	2	5	n/a	n/a	n/a	n/a	n/a
754043	PROB	n/a	LTP064	ltpFR	13	n/a	n/a	n/a	n/a	n/a	n/a	14	6	2	9	n/a	n/a	n/a	n/a	n/a
755075	PROB	n/a	LTP064	ltpFR	13	n/a	n/a	n/a	n/a	n/a	n/a	8	3	4	1	n/a	n/a	n/a	n/a	n/a
755957	STOP	n/a	LTP064	ltpFR	13	n/a	n/a	n/a	n/a	n/a	n/a	n/a	n/a	n/a	n/a	n/a	n/a	n/a	n/a	n/a
757648	WORD	wordpools/wasnorm_wordpool.txt	LTP064	ltpFR	13	4	1	TERMINAL	1450	n/a	0	n/a	0	0	0	1	0.412841796875	0.57763671875	lower	../fonts/amplitud.ttf
760653	START	n/a	LTP064	ltpFR	13	n/a	n/a	n/a	n/a	n/a	n/a	n/a	n/a	n/a	n/a	n/a	n/a	n/a	n/a	n/a
761817	PROB	n/a	LTP064	ltpFR	13	n/a	n/a	n/a	n/a	n/a	n/a	14	1	8	5	n/a	n/a	n/a	n/a	n/a
763016	PROB	n/a	LTP064	ltpFR	13	n/a	n/a	n/a	n/a	n/a	n/a	13	6	2	5	n/a	n/a	n/a	n/a	n/a
764415	PROB	n/a	LTP064	ltpFR	13	n/a	n/a	n/a	n/a	n/a	n/a	17	3	5	9	n/a	n/a	n/a	n/a	n/a
766446	PROB	n/a	LTP064	ltpFR	13	n/a	n/a	n/a	n/a	n/a	n/a	28	7	6	5	n/a	n/a	n/a	n/a	n/a
768326	STOP	n/a	LTP064	ltpFR	13	n/a	n/a	n/a	n/a	n/a	n/a	n/a	n/a	n/a	n/a	n/a	n/a	n/a	n/a	n/a
769551	WORD	wordpools/wasnorm_wordpool.txt	LTP064	ltpFR	13	4	1	LODGE	839	n/a	0	n/a	0	0	0	1	0.412841796875	0.57763671875	lower	../fonts/amplitud.ttf
772556	START	n/a	LTP064	ltpFR	13	n/a	n/a	n/a	n/a	n/a	n/a	n/a	n/a	n/a	n/a	n/a	n/a	n/a	n/a	n/a
773438	PROB	n/a	LTP064	ltpFR	13	n/a	n/a	n/a	n/a	n/a	n/a	20	9	8	3	n/a	n/a	n/a	n/a	n/a
774719	PROB	n/a	LTP064	ltpFR	13	n/a	n/a	n/a	n/a	n/a	n/a	21	6	7	8	n/a	n/a	n/a	n/a	n/a
775834	PROB	n/a	LTP064	ltpFR	13	n/a	n/a	n/a	n/a	n/a	n/a	22	7	6	9	n/a	n/a	n/a	n/a	n/a
777724	PROB	n/a	LTP064	ltpFR	13	n/a	n/a	n/a	n/a	n/a	n/a	19	5	6	8	n/a	n/a	n/a	n/a	n/a
779446	STOP	n/a	LTP064	ltpFR	13	n/a	n/a	n/a	n/a	n/a	n/a	n/a	n/a	n/a	n/a	n/a	n/a	n/a	n/a	n/a
781387	WORD	wordpools/wasnorm_wordpool.txt	LTP064	ltpFR	13	4	0	CRIMINAL	409	n/a	2	n/a	0	0	0	0	0.5869140625	0.422607421875	upper	../fonts/zerothre.ttf
783001	KEY_MSG	n/a	LTP064	ltpFR	13	4	n/a	n/a	n/a	n/a	n/a	n/a	0	0	0	n/a	n/a	n/a	n/a	n/a
784517	START	n/a	LTP064	ltpFR	13	n/a	n/a	n/a	n/a	n/a	n/a	n/a	n/a	n/a	n/a	n/a	n/a	n/a	n/a	n/a
785649	PROB	n/a	LTP064	ltpFR	13	n/a	n/a	n/a	n/a	n/a	n/a	11	4	3	4	n/a	n/a	n/a	n/a	n/a
786871	PROB	n/a	LTP064	ltpFR	13	n/a	n/a	n/a	n/a	n/a	n/a	25	7	9	9	n/a	n/a	n/a	n/a	n/a
788162	PROB	n/a	LTP064	ltpFR	13	n/a	n/a	n/a	n/a	n/a	n/a	19	6	4	9	n/a	n/a	n/a	n/a	n/a
789511	PROB	n/a	LTP064	ltpFR	13	n/a	n/a	n/a	n/a	n/a	n/a	14	5	4	5	n/a	n/a	n/a	n/a	n/a
790368	PROB	n/a	LTP064	ltpFR	13	n/a	n/a	n/a	n/a	n/a	n/a	17	1	8	8	n/a	n/a	n/a	n/a	n/a
791422	STOP	n/a	LTP064	ltpFR	13	n/a	n/a	n/a	n/a	n/a	n/a	n/a	n/a	n/a	n/a	n/a	n/a	n/a	n/a	n/a
793664	WORD	wordpools/wasnorm_wordpool.txt	LTP064	ltpFR	13	4	0	POPCORN	1104	n/a	0	n/a	0	0	0	0	0.5869140625	0.422607421875	upper	../fonts/zerothre.ttf
796670	START	n/a	LTP064	ltpFR	13	n/a	n/a	n/a	n/a	n/a	n/a	n/a	n/a	n/a	n/a	n/a	n/a	n/a	n/a	n/a
797651	PROB	n/a	LTP064	ltpFR	13	n/a	n/a	n/a	n/a	n/a	n/a	15	7	4	4	n/a	n/a	n/a	n/a	n/a
799107	PROB	n/a	LTP064	ltpFR	13	n/a	n/a	n/a	n/a	n/a	n/a	7	3	1	3	n/a	n/a	n/a	n/a	n/a
799973	PROB	n/a	LTP064	ltpFR	13	n/a	n/a	n/a	n/a	n/a	n/a	15	7	4	4	n/a	n/a	n/a	n/a	n/a
801414	PROB	n/a	LTP064	ltpFR	13	n/a	n/a	n/a	n/a	n/a	n/a	7	3	3	1	n/a	n/a	n/a	n/a	n/a
802263	PROB	n/a	LTP064	ltpFR	13	n/a	n/a	n/a	n/a	n/a	n/a	13	3	2	8	n/a	n/a	n/a	n/a	n/a
804117	STOP	n/a	LTP064	ltpFR	13	n/a	n/a	n/a	n/a	n/a	n/a	n/a	n/a	n/a	n/a	n/a	n/a	n/a	n/a	n/a
805791	WORD	wordpools/wasnorm_wordpool.txt	LTP064	ltpFR	13	4	1	BAY	102	n/a	0	n/a	0	0	0	1	0.412841796875	0.57763671875	lower	../fonts/amplitud.ttf
808796	START	n/a	LTP064	ltpFR	13	n/a	n/a	n/a	n/a	n/a	n/a	n/a	n/a	n/a	n/a	n/a	n/a	n/a	n/a	n/a
809629	PROB	n/a	LTP064	ltpFR	13	n/a	n/a	n/a	n/a	n/a	n/a	15	9	2	4	n/a	n/a	n/a	n/a	n/a
810885	PROB	n/a	LTP064	ltpFR	13	n/a	n/a	n/a	n/a	n/a	n/a	10	3	6	1	n/a	n/a	n/a	n/a	n/a
811917	PROB	n/a	LTP064	ltpFR	13	n/a	n/a	n/a	n/a	n/a	n/a	15	5	1	9	n/a	n/a	n/a	n/a	n/a
813141	PROB	n/a	LTP064	ltpFR	13	n/a	n/a	n/a	n/a	n/a	n/a	18	9	1	8	n/a	n/a	n/a	n/a	n/a
814348	PROB	n/a	LTP064	ltpFR	13	n/a	n/a	n/a	n/a	n/a	n/a	18	7	5	6	n/a	n/a	n/a	n/a	n/a
816077	STOP	n/a	LTP064	ltpFR	13	n/a	n/a	n/a	n/a	n/a	n/a	n/a	n/a	n/a	n/a	n/a	n/a	n/a	n/a	n/a
817653	WORD	wordpools/wasnorm_wordpool.txt	LTP064	ltpFR	13	4	1	LOCK	838	n/a	0	n/a	0	0	0	1	0.412841796875	0.57763671875	lower	../fonts/amplitud.ttf
820658	START	n/a	LTP064	ltpFR	13	n/a	n/a	n/a	n/a	n/a	n/a	n/a	n/a	n/a	n/a	n/a	n/a	n/a	n/a	n/a
821582	PROB	n/a	LTP064	ltpFR	13	n/a	n/a	n/a	n/a	n/a	n/a	18	4	6	8	n/a	n/a	n/a	n/a	n/a
823671	PROB	n/a	LTP064	ltpFR	13	n/a	n/a	n/a	n/a	n/a	n/a	20	7	8	5	n/a	n/a	n/a	n/a	n/a
825102	PROB	n/a	LTP064	ltpFR	13	n/a	n/a	n/a	n/a	n/a	n/a	15	6	3	6	n/a	n/a	n/a	n/a	n/a
826276	PROB	n/a	LTP064	ltpFR	13	n/a	n/a	n/a	n/a	n/a	n/a	1	2	1	6	n/a	n/a	n/a	n/a	n/a
827757	STOP	n/a	LTP064	ltpFR	13	n/a	n/a	n/a	n/a	n/a	n/a	n/a	n/a	n/a	n/a	n/a	n/a	n/a	n/a	n/a
829796	WORD	wordpools/wasnorm_wordpool.txt	LTP064	ltpFR	13	4	1	COOKBOOK	373	n/a	0	n/a	0	0	0	1	0.412841796875	0.57763671875	lower	../fonts/amplitud.ttf
832801	START	n/a	LTP064	ltpFR	13	n/a	n/a	n/a	n/a	n/a	n/a	n/a	n/a	n/a	n/a	n/a	n/a	n/a	n/a	n/a
833925	PROB	n/a	LTP064	ltpFR	13	n/a	n/a	n/a	n/a	n/a	n/a	13	1	7	5	n/a	n/a	n/a	n/a	n/a
835299	PROB	n/a	LTP064	ltpFR	13	n/a	n/a	n/a	n/a	n/a	n/a	16	7	7	2	n/a	n/a	n/a	n/a	n/a
836547	PROB	n/a	LTP064	ltpFR	13	n/a	n/a	n/a	n/a	n/a	n/a	25	7	8	8	n/a	n/a	n/a	n/a	n/a
838412	PROB	n/a	LTP064	ltpFR	13	n/a	n/a	n/a	n/a	n/a	n/a	12	3	5	4	n/a	n/a	n/a	n/a	n/a
839438	STOP	n/a	LTP064	ltpFR	13	n/a	n/a	n/a	n/a	n/a	n/a	n/a	n/a	n/a	n/a	n/a	n/a	n/a	n/a	n/a
841915	WORD	wordpools/wasnorm_wordpool.txt	LTP064	ltpFR	13	4	1	BOOK	149	n/a	0	n/a	0	0	0	1	0.412841796875	0.57763671875	lower	../fonts/amplitud.ttf
844920	START	n/a	LTP064	ltpFR	13	n/a	n/a	n/a	n/a	n/a	n/a	n/a	n/a	n/a	n/a	n/a	n/a	n/a	n/a	n/a
845927	PROB	n/a	LTP064	ltpFR	13	n/a	n/a	n/a	n/a	n/a	n/a	9	3	5	1	n/a	n/a	n/a	n/a	n/a
846901	PROB	n/a	LTP064	ltpFR	13	n/a	n/a	n/a	n/a	n/a	n/a	16	6	8	2	n/a	n/a	n/a	n/a	n/a
848384	PROB	n/a	LTP064	ltpFR	13	n/a	n/a	n/a	n/a	n/a	n/a	19	1	9	9	n/a	n/a	n/a	n/a	n/a
849482	PROB	n/a	LTP064	ltpFR	13	n/a	n/a	n/a	n/a	n/a	n/a	9	7	1	1	n/a	n/a	n/a	n/a	n/a
850406	PROB	n/a	LTP064	ltpFR	13	n/a	n/a	n/a	n/a	n/a	n/a	12	1	2	9	n/a	n/a	n/a	n/a	n/a
851749	STOP	n/a	LTP064	ltpFR	13	n/a	n/a	n/a	n/a	n/a	n/a	n/a	n/a	n/a	n/a	n/a	n/a	n/a	n/a	n/a
854109	WORD	wordpools/wasnorm_wordpool.txt	LTP064	ltpFR	13	4	1	STREAM	1392	n/a	0	n/a	0	0	0	1	0.412841796875	0.57763671875	lower	../fonts/amplitud.ttf
857115	START	n/a	LTP064	ltpFR	13	n/a	n/a	n/a	n/a	n/a	n/a	n/a	n/a	n/a	n/a	n/a	n/a	n/a	n/a	n/a
858197	PROB	n/a	LTP064	ltpFR	13	n/a	n/a	n/a	n/a	n/a	n/a	17	6	9	2	n/a	n/a	n/a	n/a	n/a
859694	PROB	n/a	LTP064	ltpFR	13	n/a	n/a	n/a	n/a	n/a	n/a	16	1	7	8	n/a	n/a	n/a	n/a	n/a
860793	PROB	n/a	LTP064	ltpFR	13	n/a	n/a	n/a	n/a	n/a	n/a	11	2	4	5	n/a	n/a	n/a	n/a	n/a
862609	PROB	n/a	LTP064	ltpFR	13	n/a	n/a	n/a	n/a	n/a	n/a	12	3	5	4	n/a	n/a	n/a	n/a	n/a
865115	STOP	n/a	LTP064	ltpFR	13	n/a	n/a	n/a	n/a	n/a	n/a	n/a	n/a	n/a	n/a	n/a	n/a	n/a	n/a	n/a
866070	WORD	wordpools/wasnorm_wordpool.txt	LTP064	ltpFR	13	4	0	PAW	1029	n/a	1	n/a	0	0	0	0	0.5869140625	0.422607421875	upper	../fonts/zerothre.ttf
869076	START	n/a	LTP064	ltpFR	13	n/a	n/a	n/a	n/a	n/a	n/a	n/a	n/a	n/a	n/a	n/a	n/a	n/a	n/a	n/a
870057	PROB	n/a	LTP064	ltpFR	13	n/a	n/a	n/a	n/a	n/a	n/a	21	9	7	5	n/a	n/a	n/a	n/a	n/a
871398	PROB	n/a	LTP064	ltpFR	13	n/a	n/a	n/a	n/a	n/a	n/a	9	3	5	1	n/a	n/a	n/a	n/a	n/a
872322	PROB	n/a	LTP064	ltpFR	13	n/a	n/a	n/a	n/a	n/a	n/a	17	7	3	7	n/a	n/a	n/a	n/a	n/a
873588	PROB	n/a	LTP064	ltpFR	13	n/a	n/a	n/a	n/a	n/a	n/a	17	4	6	7	n/a	n/a	n/a	n/a	n/a
875227	PROB	n/a	LTP064	ltpFR	13	n/a	n/a	n/a	n/a	n/a	n/a	9	1	1	7	n/a	n/a	n/a	n/a	n/a
876061	STOP	n/a	LTP064	ltpFR	13	n/a	n/a	n/a	n/a	n/a	n/a	n/a	n/a	n/a	n/a	n/a	n/a	n/a	n/a	n/a
878006	WORD	wordpools/wasnorm_wordpool.txt	LTP064	ltpFR	13	4	0	FLEA	577	n/a	0	n/a	0	0	0	0	0.5869140625	0.422607421875	upper	../fonts/zerothre.ttf
881012	START	n/a	LTP064	ltpFR	13	n/a	n/a	n/a	n/a	n/a	n/a	n/a	n/a	n/a	n/a	n/a	n/a	n/a	n/a	n/a
881885	PROB	n/a	LTP064	ltpFR	13	n/a	n/a	n/a	n/a	n/a	n/a	14	4	1	9	n/a	n/a	n/a	n/a	n/a
883293	PROB	n/a	LTP064	ltpFR	13	n/a	n/a	n/a	n/a	n/a	n/a	16	4	8	4	n/a	n/a	n/a	n/a	n/a
884907	PROB	n/a	LTP064	ltpFR	13	n/a	n/a	n/a	n/a	n/a	n/a	1	7	8	7	n/a	n/a	n/a	n/a	n/a
886656	PROB	n/a	LTP064	ltpFR	13	n/a	n/a	n/a	n/a	n/a	n/a	15	2	8	5	n/a	n/a	n/a	n/a	n/a
888093	STOP	n/a	LTP064	ltpFR	13	n/a	n/a	n/a	n/a	n/a	n/a	n/a	n/a	n/a	n/a	n/a	n/a	n/a	n/a	n/a
890067	WORD	wordpools/wasnorm_wordpool.txt	LTP064	ltpFR	13	4	0	CABIN	211	n/a	0	n/a	0	0	0	0	0.5869140625	0.422607421875	upper	../fonts/zerothre.ttf
893073	START	n/a	LTP064	ltpFR	13	n/a	n/a	n/a	n/a	n/a	n/a	n/a	n/a	n/a	n/a	n/a	n/a	n/a	n/a	n/a
894088	PROB	n/a	LTP064	ltpFR	13	n/a	n/a	n/a	n/a	n/a	n/a	16	8	6	2	n/a	n/a	n/a	n/a	n/a
895662	PROB	n/a	LTP064	ltpFR	13	n/a	n/a	n/a	n/a	n/a	n/a	8	1	3	4	n/a	n/a	n/a	n/a	n/a
896577	PROB	n/a	LTP064	ltpFR	13	n/a	n/a	n/a	n/a	n/a	n/a	7	1	4	2	n/a	n/a	n/a	n/a	n/a
897609	PROB	n/a	LTP064	ltpFR	13	n/a	n/a	n/a	n/a	n/a	n/a	12	3	4	8	n/a	n/a	n/a	n/a	n/a
898824	PROB	n/a	LTP064	ltpFR	13	n/a	n/a	n/a	n/a	n/a	n/a	18	8	9	1	n/a	n/a	n/a	n/a	n/a
899965	STOP	n/a	LTP064	ltpFR	13	n/a	n/a	n/a	n/a	n/a	n/a	n/a	n/a	n/a	n/a	n/a	n/a	n/a	n/a	n/a
902012	WORD	wordpools/wasnorm_wordpool.txt	LTP064	ltpFR	13	4	0	DOLL	481	n/a	0	n/a	0	0	0	0	0.5869140625	0.422607421875	upper	../fonts/zerothre.ttf
905017	START	n/a	LTP064	ltpFR	13	n/a	n/a	n/a	n/a	n/a	n/a	n/a	n/a	n/a	n/a	n/a	n/a	n/a	n/a	n/a
905990	PROB	n/a	LTP064	ltpFR	13	n/a	n/a	n/a	n/a	n/a	n/a	21	9	3	9	n/a	n/a	n/a	n/a	n/a
907182	PROB	n/a	LTP064	ltpFR	13	n/a	n/a	n/a	n/a	n/a	n/a	20	9	6	5	n/a	n/a	n/a	n/a	n/a
908737	PROB	n/a	LTP064	ltpFR	13	n/a	n/a	n/a	n/a	n/a	n/a	10	3	4	3	n/a	n/a	n/a	n/a	n/a
909852	PROB	n/a	LTP064	ltpFR	13	n/a	n/a	n/a	n/a	n/a	n/a	19	9	8	2	n/a	n/a	n/a	n/a	n/a
910951	PROB	n/a	LTP064	ltpFR	13	n/a	n/a	n/a	n/a	n/a	n/a	11	7	1	3	n/a	n/a	n/a	n/a	n/a
912398	STOP	n/a	LTP064	ltpFR	13	n/a	n/a	n/a	n/a	n/a	n/a	n/a	n/a	n/a	n/a	n/a	n/a	n/a	n/a	n/a
914831	REC_START	n/a	LTP064	ltpFR	13	4	n/a	n/a	n/a	n/a	n/a	n/a	0	0	0	n/a	n/a	n/a	n/a	n/a
916352	REC_WORD	wordpools/wasnorm_wordpool.txt	LTP064	ltpFR	13	4	0	CABIN	211	n/a	0	n/a	0	0	0	n/a	n/a	n/a	n/a	n/a
916737	REC_WORD	wordpools/wasnorm_wordpool.txt	LTP064	ltpFR	13	4	0	DOLL	481	n/a	0	n/a	0	0	0	n/a	n/a	n/a	n/a	n/a
917095	REC_WORD	wordpools/wasnorm_wordpool.txt	LTP064	ltpFR	13	4	1	LOCK	838	n/a	0	n/a	0	0	0	n/a	n/a	n/a	n/a	n/a
917477	REC_WORD	wordpools/wasnorm_wordpool.txt	LTP064	ltpFR	13	4	1	COOKBOOK	373	n/a	0	n/a	0	0	0	n/a	n/a	n/a	n/a	n/a
917963	REC_WORD	wordpools/wasnorm_wordpool.txt	LTP064	ltpFR	13	4	1	BOOK	149	n/a	0	n/a	0	0	0	n/a	n/a	n/a	n/a	n/a
918243	REC_WORD	wordpools/wasnorm_wordpool.txt	LTP064	ltpFR	13	4	1	STREAM	1392	n/a	0	n/a	0	0	0	n/a	n/a	n/a	n/a	n/a
922114	REC_WORD	wordpools/wasnorm_wordpool.txt	LTP064	ltpFR	13	4	0	POPCORN	1104	n/a	0	n/a	0	0	0	n/a	n/a	n/a	n/a	n/a
922733	REC_WORD	wordpools/wasnorm_wordpool.txt	LTP064	ltpFR	13	4	0	CRIMINAL	409	n/a	2	n/a	0	0	0	n/a	n/a	n/a	n/a	n/a
923167	REC_WORD	wordpools/wasnorm_wordpool.txt	LTP064	ltpFR	13	4	1	BAY	102	n/a	0	n/a	0	0	0	n/a	n/a	n/a	n/a	n/a
942219	REC_WORD	wordpools/wasnorm_wordpool.txt	LTP064	ltpFR	13	4	1	OWNER	993	n/a	1	n/a	0	0	0	n/a	n/a	n/a	n/a	n/a
944848	REC_WORD	wordpools/wasnorm_wordpool.txt	LTP064	ltpFR	13	4	0	MANAGER	863	n/a	0	n/a	0	0	0	n/a	n/a	n/a	n/a	n/a
946943	REC_WORD	wordpools/wasnorm_wordpool.txt	LTP064	ltpFR	13	4	1	TERMINAL	1450	n/a	0	n/a	0	0	0	n/a	n/a	n/a	n/a	n/a
948983	REC_WORD	wordpools/wasnorm_wordpool.txt	LTP064	ltpFR	13	4	0	FENCE	560	n/a	0	n/a	0	0	0	n/a	n/a	n/a	n/a	n/a
1005133	WORD	wordpools/wasnorm_wordpool.txt	LTP064	ltpFR	13	5	0	UNICORN	1538	n/a	1	n/a	0	0	0	0	0.5869140625	0.422607421875	upper	../fonts/zerothre.ttf
1009212	WORD	wordpools/wasnorm_wordpool.txt	LTP064	ltpFR	13	5	0	NIGHTGOWN	953	n/a	0	n/a	0	0	0	0	0.5869140625	0.422607421875	upper	../fonts/zerothre.ttf
1013224	WORD	wordpools/wasnorm_wordpool.txt	LTP064	ltpFR	13	5	0	COOLER	375	n/a	0	n/a	0	0	0	0	0.5869140625	0.422607421875	upper	../fonts/zerothre.ttf
1017102	WORD	wordpools/wasnorm_wordpool.txt	LTP064	ltpFR	13	5	0	MUG	930	n/a	0	n/a	0	0	0	0	0.5869140625	0.422607421875	upper	../fonts/zerothre.ttf
1021298	WORD	wordpools/wasnorm_wordpool.txt	LTP064	ltpFR	13	5	0	SHINGLE	1285	n/a	0	n/a	0	0	0	0	0.5869140625	0.422607421875	upper	../fonts/zerothre.ttf
1025368	WORD	wordpools/wasnorm_wordpool.txt	LTP064	ltpFR	13	5	0	MATTRESS	879	n/a	0	n/a	0	0	0	0	0.5869140625	0.422607421875	upper	../fonts/zerothre.ttf
1029314	WORD	wordpools/wasnorm_wordpool.txt	LTP064	ltpFR	13	5	0	MARROW	872	n/a	0	n/a	0	0	0	0	0.5869140625	0.422607421875	upper	../fonts/zerothre.ttf
1033492	WORD	wordpools/wasnorm_wordpool.txt	LTP064	ltpFR	13	5	0	PRAIRIE	1118	n/a	1	n/a	0	0	0	0	0.5869140625	0.422607421875	upper	../fonts/zerothre.ttf
1037678	WORD	wordpools/wasnorm_wordpool.txt	LTP064	ltpFR	13	5	0	MEAT	883	n/a	0	n/a	0	0	0	0	0.5869140625	0.422607421875	upper	../fonts/zerothre.ttf
1041748	WORD	wordpools/wasnorm_wordpool.txt	LTP064	ltpFR	13	5	0	BEAKER	104	n/a	0	n/a	0	0	0	0	0.5869140625	0.422607421875	upper	../fonts/zerothre.ttf
1045885	WORD	wordpools/wasnorm_wordpool.txt	LTP064	ltpFR	13	5	0	CHEMICAL	291	n/a	0	n/a	0	0	0	0	0.5869140625	0.422607421875	upper	../fonts/zerothre.ttf
1049997	WORD	wordpools/wasnorm_wordpool.txt	LTP064	ltpFR	13	5	0	FARM	552	n/a	1	n/a	0	0	0	0	0.5869140625	0.422607421875	upper	../fonts/zerothre.ttf
1053909	WORD	wordpools/wasnorm_wordpool.txt	LTP064	ltpFR	13	5	0	PRIMATE	1123	n/a	1	n/a	0	0	0	0	0.5869140625	0.422607421875	upper	../fonts/zerothre.ttf
1057755	WORD	wordpools/wasnorm_wordpool.txt	LTP064	ltpFR	13	5	0	WRIST	1626	n/a	0	n/a	0	0	0	0	0.5869140625	0.422607421875	upper	../fonts/zerothre.ttf
1061767	WORD	wordpools/wasnorm_wordpool.txt	LTP064	ltpFR	13	5	0	SWING	1421	n/a	0	n/a	0	0	0	0	0.5869140625	0.422607421875	upper	../fonts/zerothre.ttf
1065621	WORD	wordpools/wasnorm_wordpool.txt	LTP064	ltpFR	13	5	0	PENCIL	1042	n/a	0	n/a	0	0	0	0	0.5869140625	0.422607421875	upper	../fonts/zerothre.ttf
1068626	START	n/a	LTP064	ltpFR	13	n/a	n/a	n/a	n/a	n/a	n/a	n/a	n/a	n/a	n/a	n/a	n/a	n/a	n/a	n/a
1069824	PROB	n/a	LTP064	ltpFR	13	n/a	n/a	n/a	n/a	n/a	n/a	24	8	8	8	n/a	n/a	n/a	n/a	n/a
1071031	PROB	n/a	LTP064	ltpFR	13	n/a	n/a	n/a	n/a	n/a	n/a	16	6	1	9	n/a	n/a	n/a	n/a	n/a
1072088	PROB	n/a	LTP064	ltpFR	13	n/a	n/a	n/a	n/a	n/a	n/a	18	9	6	3	n/a	n/a	n/a	n/a	n/a
1073437	PROB	n/a	LTP064	ltpFR	13	n/a	n/a	n/a	n/a	n/a	n/a	13	1	8	4	n/a	n/a	n/a	n/a	n/a
1074776	PROB	n/a	LTP064	ltpFR	13	n/a	n/a	n/a	n/a	n/a	n/a	2	4	7	7	n/a	n/a	n/a	n/a	n/a
1076467	PROB	n/a	LTP064	ltpFR	13	n/a	n/a	n/a	n/a	n/a	n/a	16	8	1	7	n/a	n/a	n/a	n/a	n/a
1077541	PROB	n/a	LTP064	ltpFR	13	n/a	n/a	n/a	n/a	n/a	n/a	241	7	8	6	n/a	n/a	n/a	n/a	n/a
1078905	PROB	n/a	LTP064	ltpFR	13	n/a	n/a	n/a	n/a	n/a	n/a	16	6	1	9	n/a	n/a	n/a	n/a	n/a
1080221	PROB	n/a	LTP064	ltpFR	13	n/a	n/a	n/a	n/a	n/a	n/a	24	7	8	9	n/a	n/a	n/a	n/a	n/a
1081586	PROB	n/a	LTP064	ltpFR	13	n/a	n/a	n/a	n/a	n/a	n/a	12	7	2	3	n/a	n/a	n/a	n/a	n/a
1083093	STOP	n/a	LTP064	ltpFR	13	n/a	n/a	n/a	n/a	n/a	n/a	n/a	n/a	n/a	n/a	n/a	n/a	n/a	n/a	n/a
1086456	REC_START	n/a	LTP064	ltpFR	13	5	n/a	n/a	n/a	n/a	n/a	n/a	0	0	0	n/a	n/a	n/a	n/a	n/a
1086835	REC_WORD	wordpools/wasnorm_wordpool.txt	LTP064	ltpFR	13	5	0	PRIMATE	1123	n/a	1	n/a	0	0	0	n/a	n/a	n/a	n/a	n/a
1087290	REC_WORD	wordpools/wasnorm_wordpool.txt	LTP064	ltpFR	13	5	0	SWING	1421	n/a	0	n/a	0	0	0	n/a	n/a	n/a	n/a	n/a
1087872	REC_WORD	wordpools/wasnorm_wordpool.txt	LTP064	ltpFR	13	5	0	PENCIL	1042	n/a	0	n/a	0	0	0	n/a	n/a	n/a	n/a	n/a
1088427	REC_WORD	wordpools/wasnorm_wordpool.txt	LTP064	ltpFR	13	5	0	WRIST	1626	n/a	0	n/a	0	0	0	n/a	n/a	n/a	n/a	n/a
1089025	REC_WORD	wordpools/wasnorm_wordpool.txt	LTP064	ltpFR	13	5	0	MEAT	883	n/a	0	n/a	0	0	0	n/a	n/a	n/a	n/a	n/a
1089485	REC_WORD	wordpools/wasnorm_wordpool.txt	LTP064	ltpFR	13	5	0	BEAKER	104	n/a	0	n/a	0	0	0	n/a	n/a	n/a	n/a	n/a
1090247	REC_WORD	wordpools/wasnorm_wordpool.txt	LTP064	ltpFR	13	5	0	CHEMICAL	291	n/a	0	n/a	0	0	0	n/a	n/a	n/a	n/a	n/a
1090663	REC_WORD	wordpools/wasnorm_wordpool.txt	LTP064	ltpFR	13	5	0	FARM	552	n/a	1	n/a	0	0	0	n/a	n/a	n/a	n/a	n/a
1108451	REC_WORD	wordpools/wasnorm_wordpool.txt	LTP064	ltpFR	13	5	0	SHINGLE	1285	n/a	0	n/a	0	0	0	n/a	n/a	n/a	n/a	n/a
1109077	REC_WORD	wordpools/wasnorm_wordpool.txt	LTP064	ltpFR	13	5	0	MATTRESS	879	n/a	0	n/a	0	0	0	n/a	n/a	n/a	n/a	n/a
1109644	REC_WORD	wordpools/wasnorm_wordpool.txt	LTP064	ltpFR	13	5	0	PRAIRIE	1118	n/a	1	n/a	0	0	0	n/a	n/a	n/a	n/a	n/a
1110028	REC_WORD	wordpools/wasnorm_wordpool.txt	LTP064	ltpFR	13	5	0	MARROW	872	n/a	0	n/a	0	0	0	n/a	n/a	n/a	n/a	n/a
1176301	START	n/a	LTP064	ltpFR	13	n/a	n/a	n/a	n/a	n/a	n/a	n/a	n/a	n/a	n/a	n/a	n/a	n/a	n/a	n/a
1177806	PROB	n/a	LTP064	ltpFR	13	n/a	n/a	n/a	n/a	n/a	n/a	13	4	3	6	n/a	n/a	n/a	n/a	n/a
1178838	PROB	n/a	LTP064	ltpFR	13	n/a	n/a	n/a	n/a	n/a	n/a	13	4	4	5	n/a	n/a	n/a	n/a	n/a
1180296	PROB	n/a	LTP064	ltpFR	13	n/a	n/a	n/a	n/a	n/a	n/a	14	5	2	7	n/a	n/a	n/a	n/a	n/a
1182084	PROB	n/a	LTP064	ltpFR	13	n/a	n/a	n/a	n/a	n/a	n/a	16	6	5	5	n/a	n/a	n/a	n/a	n/a
1183167	PROB	n/a	LTP064	ltpFR	13	n/a	n/a	n/a	n/a	n/a	n/a	10	4	2	4	n/a	n/a	n/a	n/a	n/a
1184341	PROB	n/a	LTP064	ltpFR	13	n/a	n/a	n/a	n/a	n/a	n/a	15	8	2	5	n/a	n/a	n/a	n/a	n/a
1185640	PROB	n/a	LTP064	ltpFR	13	n/a	n/a	n/a	n/a	n/a	n/a	12	6	5	1	n/a	n/a	n/a	n/a	n/a
1186597	PROB	n/a	LTP064	ltpFR	13	n/a	n/a	n/a	n/a	n/a	n/a	2	6	5	7	n/a	n/a	n/a	n/a	n/a
1188461	PROB	n/a	LTP064	ltpFR	13	n/a	n/a	n/a	n/a	n/a	n/a	52	6	6	9	n/a	n/a	n/a	n/a	n/a
1190234	PROB	n/a	LTP064	ltpFR	13	n/a	n/a	n/a	n/a	n/a	n/a	6	1	4	1	n/a	n/a	n/a	n/a	n/a
1191157	STOP	n/a	LTP064	ltpFR	13	n/a	n/a	n/a	n/a	n/a	n/a	n/a	n/a	n/a	n/a	n/a	n/a	n/a	n/a	n/a
1193256	WORD	wordpools/wasnorm_wordpool.txt	LTP064	ltpFR	13	6	1	PISTON	1076	n/a	0	n/a	0	0	0	1	0.412841796875	0.57763671875	lower	../fonts/amplitud.ttf
1196261	START	n/a	LTP064	ltpFR	13	n/a	n/a	n/a	n/a	n/a	n/a	n/a	n/a	n/a	n/a	n/a	n/a	n/a	n/a	n/a
1197108	PROB	n/a	LTP064	ltpFR	13	n/a	n/a	n/a	n/a	n/a	n/a	11	1	8	2	n/a	n/a	n/a	n/a	n/a
1198175	PROB	n/a	LTP064	ltpFR	13	n/a	n/a	n/a	n/a	n/a	n/a	20	9	2	9	n/a	n/a	n/a	n/a	n/a
1199382	PROB	n/a	LTP064	ltpFR	13	n/a	n/a	n/a	n/a	n/a	n/a	9	3	1	5	n/a	n/a	n/a	n/a	n/a
1200472	PROB	n/a	LTP064	ltpFR	13	n/a	n/a	n/a	n/a	n/a	n/a	7	2	4	1	n/a	n/a	n/a	n/a	n/a
1201346	PROB	n/a	LTP064	ltpFR	13	n/a	n/a	n/a	n/a	n/a	n/a	17	5	4	8	n/a	n/a	n/a	n/a	n/a
1202843	PROB	n/a	LTP064	ltpFR	13	n/a	n/a	n/a	n/a	n/a	n/a	17	7	7	3	n/a	n/a	n/a	n/a	n/a
1204209	PROB	n/a	LTP064	ltpFR	13	n/a	n/a	n/a	n/a	n/a	n/a	15	7	4	4	n/a	n/a	n/a	n/a	n/a
1205740	PROB	n/a	LTP064	ltpFR	13	n/a	n/a	n/a	n/a	n/a	n/a	9	6	2	1	n/a	n/a	n/a	n/a	n/a
1206747	PROB	n/a	LTP064	ltpFR	13	n/a	n/a	n/a	n/a	n/a	n/a	9	3	3	3	n/a	n/a	n/a	n/a	n/a
1207564	PROB	n/a	LTP064	ltpFR	13	n/a	n/a	n/a	n/a	n/a	n/a	14	1	7	6	n/a	n/a	n/a	n/a	n/a
1208646	PROB	n/a	LTP064	ltpFR	13	n/a	n/a	n/a	n/a	n/a	n/a	16	9	4	3	n/a	n/a	n/a	n/a	n/a
1209919	PROB	n/a	LTP064	ltpFR	13	n/a	n/a	n/a	n/a	n/a	n/a	25	9	9	7	n/a	n/a	n/a	n/a	n/a
1211254	STOP	n/a	LTP064	ltpFR	13	n/a	n/a	n/a	n/a	n/a	n/a	n/a	n/a	n/a	n/a	n/a	n/a	n/a	n/a	n/a
1213182	WORD	wordpools/wasnorm_wordpool.txt	LTP064	ltpFR	13	6	1	LETTUCE	814	n/a	1	n/a	0	0	0	1	0.412841796875	0.57763671875	lower	../fonts/amplitud.ttf
1216188	START	n/a	LTP064	ltpFR	13	n/a	n/a	n/a	n/a	n/a	n/a	n/a	n/a	n/a	n/a	n/a	n/a	n/a	n/a	n/a
1217060	PROB	n/a	LTP064	ltpFR	13	n/a	n/a	n/a	n/a	n/a	n/a	6	4	1	1	n/a	n/a	n/a	n/a	n/a
1218059	PROB	n/a	LTP064	ltpFR	13	n/a	n/a	n/a	n/a	n/a	n/a	14	4	7	3	n/a	n/a	n/a	n/a	n/a
1219492	PROB	n/a	LTP064	ltpFR	13	n/a	n/a	n/a	n/a	n/a	n/a	17	1	8	8	n/a	n/a	n/a	n/a	n/a
1220565	PROB	n/a	LTP064	ltpFR	13	n/a	n/a	n/a	n/a	n/a	n/a	13	2	8	3	n/a	n/a	n/a	n/a	n/a
1222870	PROB	n/a	LTP064	ltpFR	13	n/a	n/a	n/a	n/a	n/a	n/a	13	6	4	2	n/a	n/a	n/a	n/a	n/a
1224203	PROB	n/a	LTP064	ltpFR	13	n/a	n/a	n/a	n/a	n/a	n/a	18	2	8	8	n/a	n/a	n/a	n/a	n/a
1225683	PROB	n/a	LTP064	ltpFR	13	n/a	n/a	n/a	n/a	n/a	n/a	12	5	3	4	n/a	n/a	n/a	n/a	n/a
1227457	PROB	n/a	LTP064	ltpFR	13	n/a	n/a	n/a	n/a	n/a	n/a	17	1	9	7	n/a	n/a	n/a	n/a	n/a
1229214	PROB	n/a	LTP064	ltpFR	13	n/a	n/a	n/a	n/a	n/a	n/a	120	6	9	5	n/a	n/a	n/a	n/a	n/a
1231109	STOP	n/a	LTP064	ltpFR	13	n/a	n/a	n/a	n/a	n/a	n/a	n/a	n/a	n/a	n/a	n/a	n/a	n/a	n/a	n/a
1233251	WORD	wordpools/wasnorm_wordpool.txt	LTP064	ltpFR	13	6	1	DAISY	435	n/a	1	n/a	0	0	0	1	0.412841796875	0.57763671875	lower	../fonts/amplitud.ttf
1236256	START	n/a	LTP064	ltpFR	13	n/a	n/a	n/a	n/a	n/a	n/a	n/a	n/a	n/a	n/a	n/a	n/a	n/a	n/a	n/a
1237254	PROB	n/a	LTP064	ltpFR	13	n/a	n/a	n/a	n/a	n/a	n/a	11	6	3	2	n/a	n/a	n/a	n/a	n/a
1238702	PROB	n/a	LTP064	ltpFR	13	n/a	n/a	n/a	n/a	n/a	n/a	18	4	7	7	n/a	n/a	n/a	n/a	n/a
1239933	PROB	n/a	LTP064	ltpFR	13	n/a	n/a	n/a	n/a	n/a	n/a	13	4	1	8	n/a	n/a	n/a	n/a	n/a
1241591	PROB	n/a	LTP064	ltpFR	13	n/a	n/a	n/a	n/a	n/a	n/a	7	2	1	5	n/a	n/a	n/a	n/a	n/a
1243063	PROB	n/a	LTP064	ltpFR	13	n/a	n/a	n/a	n/a	n/a	n/a	16	1	8	7	n/a	n/a	n/a	n/a	n/a
1244678	PROB	n/a	LTP064	ltpFR	13	n/a	n/a	n/a	n/a	n/a	n/a	16	9	1	6	n/a	n/a	n/a	n/a	n/a
1246109	PROB	n/a	LTP064	ltpFR	13	n/a	n/a	n/a	n/a	n/a	n/a	15	5	2	8	n/a	n/a	n/a	n/a	n/a
1247501	PROB	n/a	LTP064	ltpFR	13	n/a	n/a	n/a	n/a	n/a	n/a	24	7	9	8	n/a	n/a	n/a	n/a	n/a
1248931	PROB	n/a	LTP064	ltpFR	13	n/a	n/a	n/a	n/a	n/a	n/a	1	6	2	6	n/a	n/a	n/a	n/a	n/a
1251462	STOP	n/a	LTP064	ltpFR	13	n/a	n/a	n/a	n/a	n/a	n/a	n/a	n/a	n/a	n/a	n/a	n/a	n/a	n/a	n/a
1253360	WORD	wordpools/wasnorm_wordpool.txt	LTP064	ltpFR	13	6	1	PASSAGE	1019	n/a	0	n/a	0	0	0	1	0.412841796875	0.57763671875	lower	../fonts/amplitud.ttf
1256366	START	n/a	LTP064	ltpFR	13	n/a	n/a	n/a	n/a	n/a	n/a	n/a	n/a	n/a	n/a	n/a	n/a	n/a	n/a	n/a
1257331	PROB	n/a	LTP064	ltpFR	13	n/a	n/a	n/a	n/a	n/a	n/a	7	4	1	2	n/a	n/a	n/a	n/a	n/a
1258521	PROB	n/a	LTP064	ltpFR	13	n/a	n/a	n/a	n/a	n/a	n/a	14	4	2	8	n/a	n/a	n/a	n/a	n/a
1259885	PROB	n/a	LTP064	ltpFR	13	n/a	n/a	n/a	n/a	n/a	n/a	15	4	6	5	n/a	n/a	n/a	n/a	n/a
1262258	PROB	n/a	LTP064	ltpFR	13	n/a	n/a	n/a	n/a	n/a	n/a	13	2	3	8	n/a	n/a	n/a	n/a	n/a
1264022	PROB	n/a	LTP064	ltpFR	13	n/a	n/a	n/a	n/a	n/a	n/a	18	8	4	6	n/a	n/a	n/a	n/a	n/a
1265621	PROB	n/a	LTP064	ltpFR	13	n/a	n/a	n/a	n/a	n/a	n/a	12	7	2	3	n/a	n/a	n/a	n/a	n/a
1267369	PROB	n/a	LTP064	ltpFR	13	n/a	n/a	n/a	n/a	n/a	n/a	14	4	7	3	n/a	n/a	n/a	n/a	n/a
1268459	PROB	n/a	LTP064	ltpFR	13	n/a	n/a	n/a	n/a	n/a	n/a	12	2	9	1	n/a	n/a	n/a	n/a	n/a
1269608	PROB	n/a	LTP064	ltpFR	13	n/a	n/a	n/a	n/a	n/a	n/a	17	3	7	7	n/a	n/a	n/a	n/a	n/a
1271117	STOP	n/a	LTP064	ltpFR	13	n/a	n/a	n/a	n/a	n/a	n/a	n/a	n/a	n/a	n/a	n/a	n/a	n/a	n/a	n/a
1273370	WORD	wordpools/wasnorm_wordpool.txt	LTP064	ltpFR	13	6	1	ROUGE	1213	n/a	1	n/a	0	0	0	1	0.412841796875	0.57763671875	lower	../fonts/amplitud.ttf
1276376	START	n/a	LTP064	ltpFR	13	n/a	n/a	n/a	n/a	n/a	n/a	n/a	n/a	n/a	n/a	n/a	n/a	n/a	n/a	n/a
1277432	PROB	n/a	LTP064	ltpFR	13	n/a	n/a	n/a	n/a	n/a	n/a	20	8	7	5	n/a	n/a	n/a	n/a	n/a
1279463	PROB	n/a	LTP064	ltpFR	13	n/a	n/a	n/a	n/a	n/a	n/a	17	4	5	8	n/a	n/a	n/a	n/a	n/a
1280794	PROB	n/a	LTP064	ltpFR	13	n/a	n/a	n/a	n/a	n/a	n/a	14	2	4	8	n/a	n/a	n/a	n/a	n/a
1281984	PROB	n/a	LTP064	ltpFR	13	n/a	n/a	n/a	n/a	n/a	n/a	20	4	9	7	n/a	n/a	n/a	n/a	n/a
1283558	PROB	n/a	LTP064	ltpFR	13	n/a	n/a	n/a	n/a	n/a	n/a	16	5	5	6	n/a	n/a	n/a	n/a	n/a
1284549	PROB	n/a	LTP064	ltpFR	13	n/a	n/a	n/a	n/a	n/a	n/a	19	8	2	9	n/a	n/a	n/a	n/a	n/a
1285946	PROB	n/a	LTP064	ltpFR	13	n/a	n/a	n/a	n/a	n/a	n/a	15	6	2	7	n/a	n/a	n/a	n/a	n/a
1287396	PROB	n/a	LTP064	ltpFR	13	n/a	n/a	n/a	n/a	n/a	n/a	11	5	5	1	n/a	n/a	n/a	n/a	n/a
1288311	PROB	n/a	LTP064	ltpFR	13	n/a	n/a	n/a	n/a	n/a	n/a	15	7	5	3	n/a	n/a	n/a	n/a	n/a
1289908	PROB	n/a	LTP064	ltpFR	13	n/a	n/a	n/a	n/a	n/a	n/a	7	3	3	1	n/a	n/a	n/a	n/a	n/a
1290869	STOP	n/a	LTP064	ltpFR	13	n/a	n/a	n/a	n/a	n/a	n/a	n/a	n/a	n/a	n/a	n/a	n/a	n/a	n/a	n/a
1293189	WORD	wordpools/wasnorm_wordpool.txt	LTP064	ltpFR	13	6	1	SLIDE	1326	n/a	0	n/a	0	0	0	1	0.412841796875	0.57763671875	lower	../fonts/amplitud.ttf
1296194	START	n/a	LTP064	ltpFR	13	n/a	n/a	n/a	n/a	n/a	n/a	n/a	n/a	n/a	n/a	n/a	n/a	n/a	n/a	n/a
1297042	PROB	n/a	LTP064	ltpFR	13	n/a	n/a	n/a	n/a	n/a	n/a	21	9	3	9	n/a	n/a	n/a	n/a	n/a
1298773	PROB	n/a	LTP064	ltpFR	13	n/a	n/a	n/a	n/a	n/a	n/a	20	8	8	4	n/a	n/a	n/a	n/a	n/a
1300197	PROB	n/a	LTP064	ltpFR	13	n/a	n/a	n/a	n/a	n/a	n/a	20	9	2	9	n/a	n/a	n/a	n/a	n/a
1301429	PROB	n/a	LTP064	ltpFR	13	n/a	n/a	n/a	n/a	n/a	n/a	13	5	2	6	n/a	n/a	n/a	n/a	n/a
1302570	PROB	n/a	LTP064	ltpFR	13	n/a	n/a	n/a	n/a	n/a	n/a	13	3	5	5	n/a	n/a	n/a	n/a	n/a
1303750	PROB	n/a	LTP064	ltpFR	13	n/a	n/a	n/a	n/a	n/a	n/a	15	5	5	5	n/a	n/a	n/a	n/a	n/a
1304699	PROB	n/a	LTP064	ltpFR	13	n/a	n/a	n/a	n/a	n/a	n/a	10	7	1	2	n/a	n/a	n/a	n/a	n/a
1305790	PROB	n/a	LTP064	ltpFR	13	n/a	n/a	n/a	n/a	n/a	n/a	16	4	7	5	n/a	n/a	n/a	n/a	n/a
1307206	PROB	n/a	LTP064	ltpFR	13	n/a	n/a	n/a	n/a	n/a	n/a	13	7	4	2	n/a	n/a	n/a	n/a	n/a
1308621	PROB	n/a	LTP064	ltpFR	13	n/a	n/a	n/a	n/a	n/a	n/a	19	7	9	2	n/a	n/a	n/a	n/a	n/a
1311149	STOP	n/a	LTP064	ltpFR	13	n/a	n/a	n/a	n/a	n/a	n/a	n/a	n/a	n/a	n/a	n/a	n/a	n/a	n/a	n/a
1313382	WORD	wordpools/wasnorm_wordpool.txt	LTP064	ltpFR	13	6	1	STAIRS	1367	n/a	0	n/a	0	0	0	1	0.412841796875	0.57763671875	lower	../fonts/amplitud.ttf
1316387	START	n/a	LTP064	ltpFR	13	n/a	n/a	n/a	n/a	n/a	n/a	n/a	n/a	n/a	n/a	n/a	n/a	n/a	n/a	n/a
1317286	PROB	n/a	LTP064	ltpFR	13	n/a	n/a	n/a	n/a	n/a	n/a	11	5	2	4	n/a	n/a	n/a	n/a	n/a
1318700	PROB	n/a	LTP064	ltpFR	13	n/a	n/a	n/a	n/a	n/a	n/a	19	7	6	6	n/a	n/a	n/a	n/a	n/a
1321147	PROB	n/a	LTP064	ltpFR	13	n/a	n/a	n/a	n/a	n/a	n/a	14	5	2	7	n/a	n/a	n/a	n/a	n/a
1324519	PROB	n/a	LTP064	ltpFR	13	n/a	n/a	n/a	n/a	n/a	n/a	20	9	8	3	n/a	n/a	n/a	n/a	n/a
1325775	PROB	n/a	LTP064	ltpFR	13	n/a	n/a	n/a	n/a	n/a	n/a	15	5	9	1	n/a	n/a	n/a	n/a	n/a
1326898	PROB	n/a	LTP064	ltpFR	13	n/a	n/a	n/a	n/a	n/a	n/a	10	7	1	2	n/a	n/a	n/a	n/a	n/a
1327864	PROB	n/a	LTP064	ltpFR	13	n/a	n/a	n/a	n/a	n/a	n/a	12	4	5	4	n/a	n/a	n/a	n/a	n/a
1329480	PROB	n/a	LTP064	ltpFR	13	n/a	n/a	n/a	n/a	n/a	n/a	13	3	4	8	n/a	n/a	n/a	n/a	n/a
1330933	STOP	n/a	LTP064	ltpFR	13	n/a	n/a	n/a	n/a	n/a	n/a	n/a	n/a	n/a	n/a	n/a	n/a	n/a	n/a	n/a
1333458	WORD	wordpools/wasnorm_wordpool.txt	LTP064	ltpFR	13	6	1	CUB	419	n/a	1	n/a	0	0	0	1	0.412841796875	0.57763671875	lower	../fonts/amplitud.ttf
1336464	START	n/a	LTP064	ltpFR	13	n/a	n/a	n/a	n/a	n/a	n/a	n/a	n/a	n/a	n/a	n/a	n/a	n/a	n/a	n/a
1337312	PROB	n/a	LTP064	ltpFR	13	n/a	n/a	n/a	n/a	n/a	n/a	17	8	6	3	n/a	n/a	n/a	n/a	n/a
1338511	PROB	n/a	LTP064	ltpFR	13	n/a	n/a	n/a	n/a	n/a	n/a	7	4	1	2	n/a	n/a	n/a	n/a	n/a
1339393	PROB	n/a	LTP064	ltpFR	13	n/a	n/a	n/a	n/a	n/a	n/a	14	1	4	9	n/a	n/a	n/a	n/a	n/a
1340675	PROB	n/a	LTP064	ltpFR	13	n/a	n/a	n/a	n/a	n/a	n/a	19	1	9	9	n/a	n/a	n/a	n/a	n/a
1341898	PROB	n/a	LTP064	ltpFR	13	n/a	n/a	n/a	n/a	n/a	n/a	10	4	2	4	n/a	n/a	n/a	n/a	n/a
1343055	PROB	n/a	LTP064	ltpFR	13	n/a	n/a	n/a	n/a	n/a	n/a	18	7	4	7	n/a	n/a	n/a	n/a	n/a
1345178	PROB	n/a	LTP064	ltpFR	13	n/a	n/a	n/a	n/a	n/a	n/a	14	3	6	5	n/a	n/a	n/a	n/a	n/a
1346635	PROB	n/a	LTP064	ltpFR	13	n/a	n/a	n/a	n/a	n/a	n/a	15	4	4	7	n/a	n/a	n/a	n/a	n/a
1348233	PROB	n/a	LTP064	ltpFR	13	n/a	n/a	n/a	n/a	n/a	n/a	1	8	7	7	n/a	n/a	n/a	n/a	n/a
1350472	PROB	n/a	LTP064	ltpFR	13	n/a	n/a	n/a	n/a	n/a	n/a	11	7	1	3	n/a	n/a	n/a	n/a	n/a
1351358	STOP	n/a	LTP064	ltpFR	13	n/a	n/a	n/a	n/a	n/a	n/a	n/a	n/a	n/a	n/a	n/a	n/a	n/a	n/a	n/a
1353502	WORD	wordpools/wasnorm_wordpool.txt	LTP064	ltpFR	13	6	1	WITCH	1617	n/a	0	n/a	0	0	0	1	0.412841796875	0.57763671875	lower	../fonts/amplitud.ttf
1356507	START	n/a	LTP064	ltpFR	13	n/a	n/a	n/a	n/a	n/a	n/a	n/a	n/a	n/a	n/a	n/a	n/a	n/a	n/a	n/a
1357455	PROB	n/a	LTP064	ltpFR	13	n/a	n/a	n/a	n/a	n/a	n/a	15	5	5	5	n/a	n/a	n/a	n/a	n/a
1358346	PROB	n/a	LTP064	ltpFR	13	n/a	n/a	n/a	n/a	n/a	n/a	17	4	5	8	n/a	n/a	n/a	n/a	n/a
1360018	PROB	n/a	LTP064	ltpFR	13	n/a	n/a	n/a	n/a	n/a	n/a	13	2	3	8	n/a	n/a	n/a	n/a	n/a
1361824	PROB	n/a	LTP064	ltpFR	13	n/a	n/a	n/a	n/a	n/a	n/a	78	2	5	1	n/a	n/a	n/a	n/a	n/a
1363290	PROB	n/a	LTP064	ltpFR	13	n/a	n/a	n/a	n/a	n/a	n/a	11	2	7	2	n/a	n/a	n/a	n/a	n/a
1364364	PROB	n/a	LTP064	ltpFR	13	n/a	n/a	n/a	n/a	n/a	n/a	22	6	7	9	n/a	n/a	n/a	n/a	n/a
1366204	PROB	n/a	LTP064	ltpFR	13	n/a	n/a	n/a	n/a	n/a	n/a	13	3	5	5	n/a	n/a	n/a	n/a	n/a
1367302	PROB	n/a	LTP064	ltpFR	13	n/a	n/a	n/a	n/a	n/a	n/a	16	7	3	6	n/a	n/a	n/a	n/a	n/a
1368941	PROB	n/a	LTP064	ltpFR	13	n/a	n/a	n/a	n/a	n/a	n/a	8	2	4	2	n/a	n/a	n/a	n/a	n/a
1370365	PROB	n/a	LTP064	ltpFR	13	n/a	n/a	n/a	n/a	n/a	n/a	124	8	8	8	n/a	n/a	n/a	n/a	n/a
1371701	STOP	n/a	LTP064	ltpFR	13	n/a	n/a	n/a	n/a	n/a	n/a	n/a	n/a	n/a	n/a	n/a	n/a	n/a	n/a	n/a
1373702	WORD	wordpools/wasnorm_wordpool.txt	LTP064	ltpFR	13	6	1	AUTHOR	61	n/a	0	n/a	0	0	0	1	0.412841796875	0.57763671875	lower	../fonts/amplitud.ttf
1376707	START	n/a	LTP064	ltpFR	13	n/a	n/a	n/a	n/a	n/a	n/a	n/a	n/a	n/a	n/a	n/a	n/a	n/a	n/a	n/a
1377756	PROB	n/a	LTP064	ltpFR	13	n/a	n/a	n/a	n/a	n/a	n/a	11	8	1	2	n/a	n/a	n/a	n/a	n/a
1378879	PROB	n/a	LTP064	ltpFR	13	n/a	n/a	n/a	n/a	n/a	n/a	13	5	7	1	n/a	n/a	n/a	n/a	n/a
1380179	PROB	n/a	LTP064	ltpFR	13	n/a	n/a	n/a	n/a	n/a	n/a	11	7	2	2	n/a	n/a	n/a	n/a	n/a
1381386	PROB	n/a	LTP064	ltpFR	13	n/a	n/a	n/a	n/a	n/a	n/a	18	7	2	9	n/a	n/a	n/a	n/a	n/a
1383300	PROB	n/a	LTP064	ltpFR	13	n/a	n/a	n/a	n/a	n/a	n/a	19	9	9	1	n/a	n/a	n/a	n/a	n/a
1384449	PROB	n/a	LTP064	ltpFR	13	n/a	n/a	n/a	n/a	n/a	n/a	20	8	3	9	n/a	n/a	n/a	n/a	n/a
1385863	PROB	n/a	LTP064	ltpFR	13	n/a	n/a	n/a	n/a	n/a	n/a	13	6	4	3	n/a	n/a	n/a	n/a	n/a
1386970	PROB	n/a	LTP064	ltpFR	13	n/a	n/a	n/a	n/a	n/a	n/a	26	9	9	8	n/a	n/a	n/a	n/a	n/a
1388751	PROB	n/a	LTP064	ltpFR	13	n/a	n/a	n/a	n/a	n/a	n/a	16	5	3	8	n/a	n/a	n/a	n/a	n/a
1390284	PROB	n/a	LTP064	ltpFR	13	n/a	n/a	n/a	n/a	n/a	n/a	19	9	5	5	n/a	n/a	n/a	n/a	n/a
1391334	STOP	n/a	LTP064	ltpFR	13	n/a	n/a	n/a	n/a	n/a	n/a	n/a	n/a	n/a	n/a	n/a	n/a	n/a	n/a	n/a
1393679	WORD	wordpools/wasnorm_wordpool.txt	LTP064	ltpFR	13	6	1	SCALLOP	1242	n/a	0	n/a	0	0	0	1	0.412841796875	0.57763671875	lower	../fonts/amplitud.ttf
1396684	START	n/a	LTP064	ltpFR	13	n/a	n/a	n/a	n/a	n/a	n/a	n/a	n/a	n/a	n/a	n/a	n/a	n/a	n/a	n/a
1397608	PROB	n/a	LTP064	ltpFR	13	n/a	n/a	n/a	n/a	n/a	n/a	111	2	2	7	n/a	n/a	n/a	n/a	n/a
1399156	PROB	n/a	LTP064	ltpFR	13	n/a	n/a	n/a	n/a	n/a	n/a	23	7	7	9	n/a	n/a	n/a	n/a	n/a
1401028	PROB	n/a	LTP064	ltpFR	13	n/a	n/a	n/a	n/a	n/a	n/a	10	3	5	2	n/a	n/a	n/a	n/a	n/a
1402868	PROB	n/a	LTP064	ltpFR	13	n/a	n/a	n/a	n/a	n/a	n/a	196	7	7	5	n/a	n/a	n/a	n/a	n/a
1404351	PROB	n/a	LTP064	ltpFR	13	n/a	n/a	n/a	n/a	n/a	n/a	16	3	5	8	n/a	n/a	n/a	n/a	n/a
1406822	PROB	n/a	LTP064	ltpFR	13	n/a	n/a	n/a	n/a	n/a	n/a	15	6	1	8	n/a	n/a	n/a	n/a	n/a
1408496	PROB	n/a	LTP064	ltpFR	13	n/a	n/a	n/a	n/a	n/a	n/a	13	7	3	3	n/a	n/a	n/a	n/a	n/a
1409718	PROB	n/a	LTP064	ltpFR	13	n/a	n/a	n/a	n/a	n/a	n/a	15	4	4	7	n/a	n/a	n/a	n/a	n/a
1411630	STOP	n/a	LTP064	ltpFR	13	n/a	n/a	n/a	n/a	n/a	n/a	n/a	n/a	n/a	n/a	n/a	n/a	n/a	n/a	n/a
1413532	WORD	wordpools/wasnorm_wordpool.txt	LTP064	ltpFR	13	6	1	SEAFOOD	1260	n/a	0	n/a	0	0	0	1	0.412841796875	0.57763671875	lower	../fonts/amplitud.ttf
1416537	START	n/a	LTP064	ltpFR	13	n/a	n/a	n/a	n/a	n/a	n/a	n/a	n/a	n/a	n/a	n/a	n/a	n/a	n/a	n/a
1417402	PROB	n/a	LTP064	ltpFR	13	n/a	n/a	n/a	n/a	n/a	n/a	19	1	9	9	n/a	n/a	n/a	n/a	n/a
1419107	PROB	n/a	LTP064	ltpFR	13	n/a	n/a	n/a	n/a	n/a	n/a	100	3	2	5	n/a	n/a	n/a	n/a	n/a
1420240	PROB	n/a	LTP064	ltpFR	13	n/a	n/a	n/a	n/a	n/a	n/a	15	8	5	2	n/a	n/a	n/a	n/a	n/a
1421962	PROB	n/a	LTP064	ltpFR	13	n/a	n/a	n/a	n/a	n/a	n/a	23	9	8	6	n/a	n/a	n/a	n/a	n/a
1423487	PROB	n/a	LTP064	ltpFR	13	n/a	n/a	n/a	n/a	n/a	n/a	9	3	4	2	n/a	n/a	n/a	n/a	n/a
1424494	PROB	n/a	LTP064	ltpFR	13	n/a	n/a	n/a	n/a	n/a	n/a	17	9	5	3	n/a	n/a	n/a	n/a	n/a
1425941	PROB	n/a	LTP064	ltpFR	13	n/a	n/a	n/a	n/a	n/a	n/a	11	4	4	5	n/a	n/a	n/a	n/a	n/a
1427557	PROB	n/a	LTP064	ltpFR	13	n/a	n/a	n/a	n/a	n/a	n/a	15	2	9	4	n/a	n/a	n/a	n/a	n/a
1428904	PROB	n/a	LTP064	ltpFR	13	n/a	n/a	n/a	n/a	n/a	n/a	11	2	3	6	n/a	n/a	n/a	n/a	n/a
1430245	PROB	n/a	LTP064	ltpFR	13	n/a	n/a	n/a	n/a	n/a	n/a	17	2	9	6	n/a	n/a	n/a	n/a	n/a
1432182	STOP	n/a	LTP064	ltpFR	13	n/a	n/a	n/a	n/a	n/a	n/a	n/a	n/a	n/a	n/a	n/a	n/a	n/a	n/a	n/a
1433491	WORD	wordpools/wasnorm_wordpool.txt	LTP064	ltpFR	13	6	1	DUNGEON	507	n/a	1	n/a	0	0	0	1	0.412841796875	0.57763671875	lower	../fonts/amplitud.ttf
1436497	START	n/a	LTP064	ltpFR	13	n/a	n/a	n/a	n/a	n/a	n/a	n/a	n/a	n/a	n/a	n/a	n/a	n/a	n/a	n/a
1437545	PROB	n/a	LTP064	ltpFR	13	n/a	n/a	n/a	n/a	n/a	n/a	18	8	6	4	n/a	n/a	n/a	n/a	n/a
1439376	PROB	n/a	LTP064	ltpFR	13	n/a	n/a	n/a	n/a	n/a	n/a	16	5	9	4	n/a	n/a	n/a	n/a	n/a
1441706	PROB	n/a	LTP064	ltpFR	13	n/a	n/a	n/a	n/a	n/a	n/a	21	8	9	4	n/a	n/a	n/a	n/a	n/a
1443297	PROB	n/a	LTP064	ltpFR	13	n/a	n/a	n/a	n/a	n/a	n/a	12	4	5	3	n/a	n/a	n/a	n/a	n/a
1444454	PROB	n/a	LTP064	ltpFR	13	n/a	n/a	n/a	n/a	n/a	n/a	9	3	5	1	n/a	n/a	n/a	n/a	n/a
1445494	PROB	n/a	LTP064	ltpFR	13	n/a	n/a	n/a	n/a	n/a	n/a	6	2	2	2	n/a	n/a	n/a	n/a	n/a
1446451	PROB	n/a	LTP064	ltpFR	13	n/a	n/a	n/a	n/a	n/a	n/a	17	8	4	5	n/a	n/a	n/a	n/a	n/a
1448723	PROB	n/a	LTP064	ltpFR	13	n/a	n/a	n/a	n/a	n/a	n/a	14	7	3	4	n/a	n/a	n/a	n/a	n/a
1450030	PROB	n/a	LTP064	ltpFR	13	n/a	n/a	n/a	n/a	n/a	n/a	20	6	6	7	n/a	n/a	n/a	n/a	n/a
1451646	STOP	n/a	LTP064	ltpFR	13	n/a	n/a	n/a	n/a	n/a	n/a	n/a	n/a	n/a	n/a	n/a	n/a	n/a	n/a	n/a
1453418	WORD	wordpools/wasnorm_wordpool.txt	LTP064	ltpFR	13	6	1	FLOWER	584	n/a	0	n/a	0	0	0	1	0.412841796875	0.57763671875	lower	../fonts/amplitud.ttf
1456423	START	n/a	LTP064	ltpFR	13	n/a	n/a	n/a	n/a	n/a	n/a	n/a	n/a	n/a	n/a	n/a	n/a	n/a	n/a	n/a
1457322	PROB	n/a	LTP064	ltpFR	13	n/a	n/a	n/a	n/a	n/a	n/a	23	5	9	9	n/a	n/a	n/a	n/a	n/a
1459127	PROB	n/a	LTP064	ltpFR	13	n/a	n/a	n/a	n/a	n/a	n/a	6	1	1	4	n/a	n/a	n/a	n/a	n/a
1460084	PROB	n/a	LTP064	ltpFR	13	n/a	n/a	n/a	n/a	n/a	n/a	11	4	6	1	n/a	n/a	n/a	n/a	n/a
1461125	PROB	n/a	LTP064	ltpFR	13	n/a	n/a	n/a	n/a	n/a	n/a	14	4	2	8	n/a	n/a	n/a	n/a	n/a
1462416	PROB	n/a	LTP064	ltpFR	13	n/a	n/a	n/a	n/a	n/a	n/a	17	6	1	7	n/a	n/a	n/a	n/a	n/a
1464239	PROB	n/a	LTP064	ltpFR	13	n/a	n/a	n/a	n/a	n/a	n/a	17	7	2	8	n/a	n/a	n/a	n/a	n/a
1465936	PROB	n/a	LTP064	ltpFR	13	n/a	n/a	n/a	n/a	n/a	n/a	23	5	9	9	n/a	n/a	n/a	n/a	n/a
1467452	PROB	n/a	LTP064	ltpFR	13	n/a	n/a	n/a	n/a	n/a	n/a	14	3	9	2	n/a	n/a	n/a	n/a	n/a
1469132	PROB	n/a	LTP064	ltpFR	13	n/a	n/a	n/a	n/a	n/a	n/a	13	5	4	4	n/a	n/a	n/a	n/a	n/a
1472422	STOP	n/a	LTP064	ltpFR	13	n/a	n/a	n/a	n/a	n/a	n/a	n/a	n/a	n/a	n/a	n/a	n/a	n/a	n/a	n/a
1473362	WORD	wordpools/wasnorm_wordpool.txt	LTP064	ltpFR	13	6	1	CART	250	n/a	0	n/a	0	0	0	1	0.412841796875	0.57763671875	lower	../fonts/amplitud.ttf
1476367	START	n/a	LTP064	ltpFR	13	n/a	n/a	n/a	n/a	n/a	n/a	n/a	n/a	n/a	n/a	n/a	n/a	n/a	n/a	n/a
1477490	PROB	n/a	LTP064	ltpFR	13	n/a	n/a	n/a	n/a	n/a	n/a	13	8	2	1	n/a	n/a	n/a	n/a	n/a
1478556	PROB	n/a	LTP064	ltpFR	13	n/a	n/a	n/a	n/a	n/a	n/a	15	2	8	5	n/a	n/a	n/a	n/a	n/a
1480503	PROB	n/a	LTP064	ltpFR	13	n/a	n/a	n/a	n/a	n/a	n/a	6	1	4	1	n/a	n/a	n/a	n/a	n/a
1481377	PROB	n/a	LTP064	ltpFR	13	n/a	n/a	n/a	n/a	n/a	n/a	20	9	5	6	n/a	n/a	n/a	n/a	n/a
1482991	PROB	n/a	LTP064	ltpFR	13	n/a	n/a	n/a	n/a	n/a	n/a	15	2	5	8	n/a	n/a	n/a	n/a	n/a
1484282	PROB	n/a	LTP064	ltpFR	13	n/a	n/a	n/a	n/a	n/a	n/a	20	5	6	9	n/a	n/a	n/a	n/a	n/a
1486928	PROB	n/a	LTP064	ltpFR	13	n/a	n/a	n/a	n/a	n/a	n/a	18	5	7	6	n/a	n/a	n/a	n/a	n/a
1488660	PROB	n/a	LTP064	ltpFR	13	n/a	n/a	n/a	n/a	n/a	n/a	15	5	4	6	n/a	n/a	n/a	n/a	n/a
1490000	PROB	n/a	LTP064	ltpFR	13	n/a	n/a	n/a	n/a	n/a	n/a	15	8	6	1	n/a	n/a	n/a	n/a	n/a
1491310	STOP	n/a	LTP064	ltpFR	13	n/a	n/a	n/a	n/a	n/a	n/a	n/a	n/a	n/a	n/a	n/a	n/a	n/a	n/a	n/a
1493438	WORD	wordpools/wasnorm_wordpool.txt	LTP064	ltpFR	13	6	1	STORE	1387	n/a	0	n/a	0	0	0	1	0.412841796875	0.57763671875	lower	../fonts/amplitud.ttf
1496443	START	n/a	LTP064	ltpFR	13	n/a	n/a	n/a	n/a	n/a	n/a	n/a	n/a	n/a	n/a	n/a	n/a	n/a	n/a	n/a
1497350	PROB	n/a	LTP064	ltpFR	13	n/a	n/a	n/a	n/a	n/a	n/a	11	7	3	1	n/a	n/a	n/a	n/a	n/a
1498681	PROB	n/a	LTP064	ltpFR	13	n/a	n/a	n/a	n/a	n/a	n/a	21	8	7	6	n/a	n/a	n/a	n/a	n/a
1500088	PROB	n/a	LTP064	ltpFR	13	n/a	n/a	n/a	n/a	n/a	n/a	16	2	5	9	n/a	n/a	n/a	n/a	n/a
1501570	PROB	n/a	LTP064	ltpFR	13	n/a	n/a	n/a	n/a	n/a	n/a	15	6	8	1	n/a	n/a	n/a	n/a	n/a
1503310	PROB	n/a	LTP064	ltpFR	13	n/a	n/a	n/a	n/a	n/a	n/a	19	7	6	6	n/a	n/a	n/a	n/a	n/a
1504857	PROB	n/a	LTP064	ltpFR	13	n/a	n/a	n/a	n/a	n/a	n/a	14	5	8	1	n/a	n/a	n/a	n/a	n/a
1506190	PROB	n/a	LTP064	ltpFR	13	n/a	n/a	n/a	n/a	n/a	n/a	10	1	1	8	n/a	n/a	n/a	n/a	n/a
1507129	PROB	n/a	LTP064	ltpFR	13	n/a	n/a	n/a	n/a	n/a	n/a	23	9	5	9	n/a	n/a	n/a	n/a	n/a
1508728	PROB	n/a	LTP064	ltpFR	13	n/a	n/a	n/a	n/a	n/a	n/a	10	2	5	3	n/a	n/a	n/a	n/a	n/a
1509810	PROB	n/a	LTP064	ltpFR	13	n/a	n/a	n/a	n/a	n/a	n/a	15	2	4	9	n/a	n/a	n/a	n/a	n/a
1511574	STOP	n/a	LTP064	ltpFR	13	n/a	n/a	n/a	n/a	n/a	n/a	n/a	n/a	n/a	n/a	n/a	n/a	n/a	n/a	n/a
1514189	REC_START	n/a	LTP064	ltpFR	13	6	n/a	n/a	n/a	n/a	n/a	n/a	0	0	0	n/a	n/a	n/a	n/a	n/a
1515521	REC_WORD	wordpools/wasnorm_wordpool.txt	LTP064	ltpFR	13	6	1	CART	250	n/a	0	n/a	0	0	0	n/a	n/a	n/a	n/a	n/a
1515831	REC_WORD	wordpools/wasnorm_wordpool.txt	LTP064	ltpFR	13	6	1	STORE	1387	n/a	0	n/a	0	0	0	n/a	n/a	n/a	n/a	n/a
1516307	REC_WORD	wordpools/wasnorm_wordpool.txt	LTP064	ltpFR	13	6	1	FLOWER	584	n/a	0	n/a	0	0	0	n/a	n/a	n/a	n/a	n/a
1516837	REC_WORD	wordpools/wasnorm_wordpool.txt	LTP064	ltpFR	13	6	1	DUNGEON	507	n/a	1	n/a	0	0	0	n/a	n/a	n/a	n/a	n/a
1517395	REC_WORD	wordpools/wasnorm_wordpool.txt	LTP064	ltpFR	13	6	1	SCALLOP	1242	n/a	0	n/a	0	0	0	n/a	n/a	n/a	n/a	n/a
1518327	REC_WORD	wordpools/wasnorm_wordpool.txt	LTP064	ltpFR	13	6	1	SEAFOOD	1260	n/a	0	n/a	0	0	0	n/a	n/a	n/a	n/a	n/a
1528032	REC_WORD	wordpools/wasnorm_wordpool.txt	LTP064	ltpFR	13	6	1	PISTON	1076	n/a	0	n/a	0	0	0	n/a	n/a	n/a	n/a	n/a
1528483	REC_WORD	wordpools/wasnorm_wordpool.txt	LTP064	ltpFR	13	6	1	LETTUCE	814	n/a	1	n/a	0	0	0	n/a	n/a	n/a	n/a	n/a
1528962	REC_WORD	wordpools/wasnorm_wordpool.txt	LTP064	ltpFR	13	6	1	DAISY	435	n/a	1	n/a	0	0	0	n/a	n/a	n/a	n/a	n/a
1529370	REC_WORD	wordpools/wasnorm_wordpool.txt	LTP064	ltpFR	13	6	1	PASSAGE	1019	n/a	0	n/a	0	0	0	n/a	n/a	n/a	n/a	n/a
1605183	WORD	wordpools/wasnorm_wordpool.txt	LTP064	ltpFR	13	7	0	RAM	1165	n/a	0	n/a	0	0	0	0	0.5869140625	0.422607421875	upper	../fonts/zerothre.ttf
1609386	WORD	wordpools/wasnorm_wordpool.txt	LTP064	ltpFR	13	7	0	SUPERMARKET	1409	n/a	1	n/a	0	0	0	0	0.5869140625	0.422607421875	upper	../fonts/zerothre.ttf
1613406	WORD	wordpools/wasnorm_wordpool.txt	LTP064	ltpFR	13	7	0	RICE	1190	n/a	0	n/a	0	0	0	0	0.5869140625	0.422607421875	upper	../fonts/zerothre.ttf
1617435	WORD	wordpools/wasnorm_wordpool.txt	LTP064	ltpFR	13	7	0	DUMP	505	n/a	0	n/a	0	0	0	0	0.5869140625	0.422607421875	upper	../fonts/zerothre.ttf
1621414	WORD	wordpools/wasnorm_wordpool.txt	LTP064	ltpFR	13	7	1	LUNCH	849	n/a	0	n/a	0	0	0	1	0.412841796875	0.57763671875	lower	../fonts/amplitud.ttf
1625509	WORD	wordpools/wasnorm_wordpool.txt	LTP064	ltpFR	13	7	1	CHIP	303	n/a	0	n/a	0	0	0	1	0.412841796875	0.57763671875	lower	../fonts/amplitud.ttf
1629587	WORD	wordpools/wasnorm_wordpool.txt	LTP064	ltpFR	13	7	1	STAKE	1368	n/a	0	n/a	0	0	0	1	0.412841796875	0.57763671875	lower	../fonts/amplitud.ttf
1633798	WORD	wordpools/wasnorm_wordpool.txt	LTP064	ltpFR	13	7	1	INSTRUCTOR	741	n/a	1	n/a	0	0	0	1	0.412841796875	0.57763671875	lower	../fonts/amplitud.ttf
1637802	WORD	wordpools/wasnorm_wordpool.txt	LTP064	ltpFR	13	7	1	ALMOND	18	n/a	0	n/a	0	0	0	1	0.412841796875	0.57763671875	lower	../fonts/amplitud.ttf
1641673	WORD	wordpools/wasnorm_wordpool.txt	LTP064	ltpFR	13	7	0	DIRECTOR	471	n/a	1	n/a	0	0	0	0	0.5869140625	0.422607421875	upper	../fonts/zerothre.ttf
1645560	WORD	wordpools/wasnorm_wordpool.txt	LTP064	ltpFR	13	7	0	TRUCK	1512	n/a	1	n/a	0	0	0	0	0.5869140625	0.422607421875	upper	../fonts/zerothre.ttf
1649514	WORD	wordpools/wasnorm_wordpool.txt	LTP064	ltpFR	13	7	0	BATTERY	101	n/a	1	n/a	0	0	0	0	0.5869140625	0.422607421875	upper	../fonts/zerothre.ttf
1653493	WORD	wordpools/wasnorm_wordpool.txt	LTP064	ltpFR	13	7	0	ENGINE	535	n/a	1	n/a	0	0	0	0	0.5869140625	0.422607421875	upper	../fonts/zerothre.ttf
1657663	WORD	wordpools/wasnorm_wordpool.txt	LTP064	ltpFR	13	7	1	ANIMAL	23	n/a	1	n/a	0	0	0	1	0.412841796875	0.57763671875	lower	../fonts/amplitud.ttf
1661824	WORD	wordpools/wasnorm_wordpool.txt	LTP064	ltpFR	13	7	1	ZEBRA	1635	n/a	1	n/a	0	0	0	1	0.412841796875	0.57763671875	lower	../fonts/amplitud.ttf
1665703	WORD	wordpools/wasnorm_wordpool.txt	LTP064	ltpFR	13	7	1	DINNER	468	n/a	1	n/a	0	0	0	1	0.412841796875	0.57763671875	lower	../fonts/amplitud.ttf
1668707	START	n/a	LTP064	ltpFR	13	n/a	n/a	n/a	n/a	n/a	n/a	n/a	n/a	n/a	n/a	n/a	n/a	n/a	n/a	n/a
1669624	PROB	n/a	LTP064	ltpFR	13	n/a	n/a	n/a	n/a	n/a	n/a	15	6	6	3	n/a	n/a	n/a	n/a	n/a
1670623	PROB	n/a	LTP064	ltpFR	13	n/a	n/a	n/a	n/a	n/a	n/a	14	7	5	2	n/a	n/a	n/a	n/a	n/a
1672128	PROB	n/a	LTP064	ltpFR	13	n/a	n/a	n/a	n/a	n/a	n/a	20	7	8	5	n/a	n/a	n/a	n/a	n/a
1673419	PROB	n/a	LTP064	ltpFR	13	n/a	n/a	n/a	n/a	n/a	n/a	11	3	7	1	n/a	n/a	n/a	n/a	n/a
1674377	PROB	n/a	LTP064	ltpFR	13	n/a	n/a	n/a	n/a	n/a	n/a	14	5	3	6	n/a	n/a	n/a	n/a	n/a
1675606	STOP	n/a	LTP064	ltpFR	13	n/a	n/a	n/a	n/a	n/a	n/a	n/a	n/a	n/a	n/a	n/a	n/a	n/a	n/a	n/a
1678614	REC_START	n/a	LTP064	ltpFR	13	7	n/a	n/a	n/a	n/a	n/a	n/a	0	0	0	n/a	n/a	n/a	n/a	n/a
1679856	REC_WORD	wordpools/wasnorm_wordpool.txt	LTP064	ltpFR	13	7	0	ENGINE	535	n/a	1	n/a	0	0	0	n/a	n/a	n/a	n/a	n/a
1680242	REC_WORD	wordpools/wasnorm_wordpool.txt	LTP064	ltpFR	13	7	1	ANIMAL	23	n/a	1	n/a	0	0	0	n/a	n/a	n/a	n/a	n/a
1680691	REC_WORD	wordpools/wasnorm_wordpool.txt	LTP064	ltpFR	13	7	1	ZEBRA	1635	n/a	1	n/a	0	0	0	n/a	n/a	n/a	n/a	n/a
1681203	REC_WORD	wordpools/wasnorm_wordpool.txt	LTP064	ltpFR	13	7	1	DINNER	468	n/a	1	n/a	0	0	0	n/a	n/a	n/a	n/a	n/a
1682994	REC_WORD	wordpools/wasnorm_wordpool.txt	LTP064	ltpFR	13	7	0	SUPERMARKET	1409	n/a	1	n/a	0	0	0	n/a	n/a	n/a	n/a	n/a
1683665	REC_WORD	wordpools/wasnorm_wordpool.txt	LTP064	ltpFR	13	7	0	RAM	1165	n/a	0	n/a	0	0	0	n/a	n/a	n/a	n/a	n/a
1683982	REC_WORD	wordpools/wasnorm_wordpool.txt	LTP064	ltpFR	13	7	0	RICE	1190	n/a	0	n/a	0	0	0	n/a	n/a	n/a	n/a	n/a
1684374	REC_WORD	wordpools/wasnorm_wordpool.txt	LTP064	ltpFR	13	7	0	DUMP	505	n/a	0	n/a	0	0	0	n/a	n/a	n/a	n/a	n/a
1696778	REC_WORD	wordpools/wasnorm_wordpool.txt	LTP064	ltpFR	13	7	0	DIRECTOR	471	n/a	1	n/a	0	0	0	n/a	n/a	n/a	n/a	n/a
1697525	REC_WORD	wordpools/wasnorm_wordpool.txt	LTP064	ltpFR	13	7	0	TRUCK	1512	n/a	1	n/a	0	0	0	n/a	n/a	n/a	n/a	n/a
1697949	REC_WORD	wordpools/wasnorm_wordpool.txt	LTP064	ltpFR	13	7	0	BATTERY	101	n/a	1	n/a	0	0	0	n/a	n/a	n/a	n/a	n/a
1709738	REC_WORD	wordpools/wasnorm_wordpool.txt	LTP064	ltpFR	13	7	1	LUNCH	849	n/a	0	n/a	0	0	0	n/a	n/a	n/a	n/a	n/a
1710251	REC_WORD	wordpools/wasnorm_wordpool.txt	LTP064	ltpFR	13	7	1	CHIP	303	n/a	0	n/a	0	0	0	n/a	n/a	n/a	n/a	n/a
1710521	REC_WORD	wordpools/wasnorm_wordpool.txt	LTP064	ltpFR	13	7	1	STAKE	1368	n/a	0	n/a	0	0	0	n/a	n/a	n/a	n/a	n/a
1714427	REC_WORD	wordpools/wasnorm_wordpool.txt	LTP064	ltpFR	13	7	1	INSTRUCTOR	741	n/a	1	n/a	0	0	0	n/a	n/a	n/a	n/a	n/a
1780369	WORD	wordpools/wasnorm_wordpool.txt	LTP064	ltpFR	13	8	0	SNACK	1331	n/a	0	n/a	0	0	0	0	0.5869140625	0.422607421875	upper	../fonts/zerothre.ttf
1784431	WORD	wordpools/wasnorm_wordpool.txt	LTP064	ltpFR	13	8	0	HAMMER	680	n/a	0	n/a	0	0	0	0	0.5869140625	0.422607421875	upper	../fonts/zerothre.ttf
1788285	WORD	wordpools/wasnorm_wordpool.txt	LTP064	ltpFR	13	8	0	TABLET	1427	n/a	0	n/a	0	0	0	0	0.5869140625	0.422607421875	upper	../fonts/zerothre.ttf
1792364	WORD	wordpools/wasnorm_wordpool.txt	LTP064	ltpFR	13	8	0	BEAR	106	n/a	1	n/a	0	0	0	0	0.5869140625	0.422607421875	upper	../fonts/zerothre.ttf
1796409	WORD	wordpools/wasnorm_wordpool.txt	LTP064	ltpFR	13	8	0	MINK	897	n/a	1	n/a	0	0	0	0	0.5869140625	0.422607421875	upper	../fonts/zerothre.ttf
1800288	WORD	wordpools/wasnorm_wordpool.txt	LTP064	ltpFR	13	8	0	CAPE	237	n/a	1	n/a	0	0	0	0	0.5869140625	0.422607421875	upper	../fonts/zerothre.ttf
1804358	WORD	wordpools/wasnorm_wordpool.txt	LTP064	ltpFR	13	8	0	PAPER	1011	n/a	0	n/a	0	0	0	0	0.5869140625	0.422607421875	upper	../fonts/zerothre.ttf
1808387	WORD	wordpools/wasnorm_wordpool.txt	LTP064	ltpFR	13	8	0	LUMBER	848	n/a	1	n/a	0	0	0	0	0.5869140625	0.422607421875	upper	../fonts/zerothre.ttf
1812266	WORD	wordpools/wasnorm_wordpool.txt	LTP064	ltpFR	13	8	0	CHICKEN	297	n/a	1	n/a	0	0	0	0	0.5869140625	0.422607421875	upper	../fonts/zerothre.ttf
1816419	WORD	wordpools/wasnorm_wordpool.txt	LTP064	ltpFR	13	8	0	SECRETARY	1265	n/a	1	n/a	0	0	0	0	0.5869140625	0.422607421875	upper	../fonts/zerothre.ttf
1820306	WORD	wordpools/wasnorm_wordpool.txt	LTP064	ltpFR	13	8	0	CUPBOARD	425	n/a	1	n/a	0	0	0	0	0.5869140625	0.422607421875	upper	../fonts/zerothre.ttf
1824435	WORD	wordpools/wasnorm_wordpool.txt	LTP064	ltpFR	13	8	0	BUTTERFLY	206	n/a	1	n/a	0	0	0	0	0.5869140625	0.422607421875	upper	../fonts/zerothre.ttf
1828313	WORD	wordpools/wasnorm_wordpool.txt	LTP064	ltpFR	13	8	0	SPIDER	1351	n/a	1	n/a	0	0	0	0	0.5869140625	0.422607421875	upper	../fonts/zerothre.ttf
1832300	WORD	wordpools/wasnorm_wordpool.txt	LTP064	ltpFR	13	8	0	WASHER	1592	n/a	0	n/a	0	0	0	0	0.5869140625	0.422607421875	upper	../fonts/zerothre.ttf
1836137	WORD	wordpools/wasnorm_wordpool.txt	LTP064	ltpFR	13	8	0	VACUUM	1543	n/a	1	n/a	0	0	0	0	0.5869140625	0.422607421875	upper	../fonts/zerothre.ttf
1840032	WORD	wordpools/wasnorm_wordpool.txt	LTP064	ltpFR	13	8	0	BOSS	152	n/a	1	n/a	0	0	0	0	0.5869140625	0.422607421875	upper	../fonts/zerothre.ttf
1843037	START	n/a	LTP064	ltpFR	13	n/a	n/a	n/a	n/a	n/a	n/a	n/a	n/a	n/a	n/a	n/a	n/a	n/a	n/a	n/a
1843919	PROB	n/a	LTP064	ltpFR	13	n/a	n/a	n/a	n/a	n/a	n/a	18	5	8	5	n/a	n/a	n/a	n/a	n/a
1845294	PROB	n/a	LTP064	ltpFR	13	n/a	n/a	n/a	n/a	n/a	n/a	8	3	2	3	n/a	n/a	n/a	n/a	n/a
1846292	PROB	n/a	LTP064	ltpFR	13	n/a	n/a	n/a	n/a	n/a	n/a	13	4	7	2	n/a	n/a	n/a	n/a	n/a
1847358	PROB	n/a	LTP064	ltpFR	13	n/a	n/a	n/a	n/a	n/a	n/a	6	1	3	2	n/a	n/a	n/a	n/a	n/a
1848123	PROB	n/a	LTP064	ltpFR	13	n/a	n/a	n/a	n/a	n/a	n/a	8	1	2	5	n/a	n/a	n/a	n/a	n/a
1849105	PROB	n/a	LTP064	ltpFR	13	n/a	n/a	n/a	n/a	n/a	n/a	110	4	5	1	n/a	n/a	n/a	n/a	n/a
1850222	STOP	n/a	LTP064	ltpFR	13	n/a	n/a	n/a	n/a	n/a	n/a	n/a	n/a	n/a	n/a	n/a	n/a	n/a	n/a	n/a
1852959	REC_START	n/a	LTP064	ltpFR	13	8	n/a	n/a	n/a	n/a	n/a	n/a	0	0	0	n/a	n/a	n/a	n/a	n/a
1853298	REC_WORD	wordpools/wasnorm_wordpool.txt	LTP064	ltpFR	13	8	0	SPIDER	1351	n/a	1	n/a	0	0	0	n/a	n/a	n/a	n/a	n/a
1853832	REC_WORD	wordpools/wasnorm_wordpool.txt	LTP064	ltpFR	13	8	0	WASHER	1592	n/a	0	n/a	0	0	0	n/a	n/a	n/a	n/a	n/a
1854338	REC_WORD	wordpools/wasnorm_wordpool.txt	LTP064	ltpFR	13	8	0	BOSS	152	n/a	1	n/a	0	0	0	n/a	n/a	n/a	n/a	n/a
1854769	REC_WORD	wordpools/wasnorm_wordpool.txt	LTP064	ltpFR	13	8	0	VACUUM	1543	n/a	1	n/a	0	0	0	n/a	n/a	n/a	n/a	n/a
1855224	REC_WORD	wordpools/wasnorm_wordpool.txt	LTP064	ltpFR	13	8	0	CHICKEN	297	n/a	1	n/a	0	0	0	n/a	n/a	n/a	n/a	n/a
1855588	REC_WORD	wordpools/wasnorm_wordpool.txt	LTP064	ltpFR	13	8	0	SECRETARY	1265	n/a	1	n/a	0	0	0	n/a	n/a	n/a	n/a	n/a
1856355	REC_WORD	wordpools/wasnorm_wordpool.txt	LTP064	ltpFR	13	8	0	BUTTERFLY	206	n/a	1	n/a	0	0	0	n/a	n/a	n/a	n/a	n/a
1856972	REC_WORD	wordpools/wasnorm_wordpool.txt	LTP064	ltpFR	13	8	0	CUPBOARD	425	n/a	1	n/a	0	0	0	n/a	n/a	n/a	n/a	n/a
1862872	REC_WORD	wordpools/wasnorm_wordpool.txt	LTP064	ltpFR	13	8	0	MINK	897	n/a	1	n/a	0	0	0	n/a	n/a	n/a	n/a	n/a
1863198	REC_WORD	wordpools/wasnorm_wordpool.txt	LTP064	ltpFR	13	8	0	CAPE	237	n/a	1	n/a	0	0	0	n/a	n/a	n/a	n/a	n/a
1863562	REC_WORD	wordpools/wasnorm_wordpool.txt	LTP064	ltpFR	13	8	0	PAPER	1011	n/a	0	n/a	0	0	0	n/a	n/a	n/a	n/a	n/a
1863963	REC_WORD	wordpools/wasnorm_wordpool.txt	LTP064	ltpFR	13	8	0	LUMBER	848	n/a	1	n/a	0	0	0	n/a	n/a	n/a	n/a	n/a
1942953	WORD	wordpools/wasnorm_wordpool.txt	LTP064	ltpFR	13	9	1	CAVE	263	n/a	0	n/a	0	0	0	1	0.412841796875	0.57763671875	lower	../fonts/amplitud.ttf
1946940	WORD	wordpools/wasnorm_wordpool.txt	LTP064	ltpFR	13	9	1	MOUNTAIN	924	n/a	0	n/a	0	0	0	1	0.412841796875	0.57763671875	lower	../fonts/amplitud.ttf
1950977	WORD	wordpools/wasnorm_wordpool.txt	LTP064	ltpFR	13	9	1	GUEST	669	n/a	1	n/a	0	0	0	1	0.412841796875	0.57763671875	lower	../fonts/amplitud.ttf
1954923	WORD	wordpools/wasnorm_wordpool.txt	LTP064	ltpFR	13	9	1	LEADER	807	n/a	1	n/a	0	0	0	1	0.412841796875	0.57763671875	lower	../fonts/amplitud.ttf
1959068	WORD	wordpools/wasnorm_wordpool.txt	LTP064	ltpFR	13	9	1	GOVERNOR	651	n/a	1	n/a	0	0	0	1	0.412841796875	0.57763671875	lower	../fonts/amplitud.ttf
1962922	WORD	wordpools/wasnorm_wordpool.txt	LTP064	ltpFR	13	9	1	HERO	706	n/a	1	n/a	0	0	0	1	0.412841796875	0.57763671875	lower	../fonts/amplitud.ttf
1967067	WORD	wordpools/wasnorm_wordpool.txt	LTP064	ltpFR	13	9	1	KIWI	781	n/a	0	n/a	0	0	0	1	0.412841796875	0.57763671875	lower	../fonts/amplitud.ttf
1971163	WORD	wordpools/wasnorm_wordpool.txt	LTP064	ltpFR	13	9	1	EYE	545	n/a	1	n/a	0	0	0	1	0.412841796875	0.57763671875	lower	../fonts/amplitud.ttf
1975024	WORD	wordpools/wasnorm_wordpool.txt	LTP064	ltpFR	13	9	1	ASHTRAY	45	n/a	0	n/a	0	0	0	1	0.412841796875	0.57763671875	lower	../fonts/amplitud.ttf
1978861	WORD	wordpools/wasnorm_wordpool.txt	LTP064	ltpFR	13	9	1	CIGARETTE	309	n/a	0	n/a	0	0	0	1	0.412841796875	0.57763671875	lower	../fonts/amplitud.ttf
1982782	WORD	wordpools/wasnorm_wordpool.txt	LTP064	ltpFR	13	9	1	SCOTCH	1251	n/a	0	n/a	0	0	0	1	0.412841796875	0.57763671875	lower	../fonts/amplitud.ttf
1986802	WORD	wordpools/wasnorm_wordpool.txt	LTP064	ltpFR	13	9	1	SWATTER	1418	n/a	0	n/a	0	0	0	1	0.412841796875	0.57763671875	lower	../fonts/amplitud.ttf
1990624	WORD	wordpools/wasnorm_wordpool.txt	LTP064	ltpFR	13	9	1	MERMAID	887	n/a	1	n/a	0	0	0	1	0.412841796875	0.57763671875	lower	../fonts/amplitud.ttf
1994801	WORD	wordpools/wasnorm_wordpool.txt	LTP064	ltpFR	13	9	1	KEG	770	n/a	0	n/a	0	0	0	1	0.412841796875	0.57763671875	lower	../fonts/amplitud.ttf
1998614	WORD	wordpools/wasnorm_wordpool.txt	LTP064	ltpFR	13	9	1	OWL	992	n/a	1	n/a	0	0	0	1	0.412841796875	0.57763671875	lower	../fonts/amplitud.ttf
2002700	WORD	wordpools/wasnorm_wordpool.txt	LTP064	ltpFR	13	9	1	SHARK	1275	n/a	1	n/a	0	0	0	1	0.412841796875	0.57763671875	lower	../fonts/amplitud.ttf
2005705	START	n/a	LTP064	ltpFR	13	n/a	n/a	n/a	n/a	n/a	n/a	n/a	n/a	n/a	n/a	n/a	n/a	n/a	n/a	n/a
2006746	PROB	n/a	LTP064	ltpFR	13	n/a	n/a	n/a	n/a	n/a	n/a	13	2	9	2	n/a	n/a	n/a	n/a	n/a
2008220	PROB	n/a	LTP064	ltpFR	13	n/a	n/a	n/a	n/a	n/a	n/a	24	8	8	8	n/a	n/a	n/a	n/a	n/a
2009310	PROB	n/a	LTP064	ltpFR	13	n/a	n/a	n/a	n/a	n/a	n/a	20	4	8	8	n/a	n/a	n/a	n/a	n/a
2010384	PROB	n/a	LTP064	ltpFR	13	n/a	n/a	n/a	n/a	n/a	n/a	18	8	8	2	n/a	n/a	n/a	n/a	n/a
2011658	PROB	n/a	LTP064	ltpFR	13	n/a	n/a	n/a	n/a	n/a	n/a	11	2	3	6	n/a	n/a	n/a	n/a	n/a
2012631	PROB	n/a	LTP064	ltpFR	13	n/a	n/a	n/a	n/a	n/a	n/a	15	6	7	5	n/a	n/a	n/a	n/a	n/a
2014421	PROB	n/a	LTP064	ltpFR	13	n/a	n/a	n/a	n/a	n/a	n/a	12	6	5	1	n/a	n/a	n/a	n/a	n/a
2015595	PROB	n/a	LTP064	ltpFR	13	n/a	n/a	n/a	n/a	n/a	n/a	23	9	8	5	n/a	n/a	n/a	n/a	n/a
2016900	PROB	n/a	LTP064	ltpFR	13	n/a	n/a	n/a	n/a	n/a	n/a	1	7	2	4	n/a	n/a	n/a	n/a	n/a
2018408	PROB	n/a	LTP064	ltpFR	13	n/a	n/a	n/a	n/a	n/a	n/a	3	9	1	6	n/a	n/a	n/a	n/a	n/a
2018898	PROB	n/a	LTP064	ltpFR	13	n/a	n/a	n/a	n/a	n/a	n/a	n/a	7	4	1	n/a	n/a	n/a	n/a	n/a
2019548	PROB	n/a	LTP064	ltpFR	13	n/a	n/a	n/a	n/a	n/a	n/a	16	5	2	9	n/a	n/a	n/a	n/a	n/a
2021085	STOP	n/a	LTP064	ltpFR	13	n/a	n/a	n/a	n/a	n/a	n/a	n/a	n/a	n/a	n/a	n/a	n/a	n/a	n/a	n/a
2023594	REC_START	n/a	LTP064	ltpFR	13	9	n/a	n/a	n/a	n/a	n/a	n/a	0	0	0	n/a	n/a	n/a	n/a	n/a
2024162	REC_WORD	wordpools/wasnorm_wordpool.txt	LTP064	ltpFR	13	9	1	MERMAID	887	n/a	1	n/a	0	0	0	n/a	n/a	n/a	n/a	n/a
2024704	REC_WORD	wordpools/wasnorm_wordpool.txt	LTP064	ltpFR	13	9	1	KEG	770	n/a	0	n/a	0	0	0	n/a	n/a	n/a	n/a	n/a
2025227	REC_WORD	wordpools/wasnorm_wordpool.txt	LTP064	ltpFR	13	9	1	OWL	992	n/a	1	n/a	0	0	0	n/a	n/a	n/a	n/a	n/a
2025529	REC_WORD	wordpools/wasnorm_wordpool.txt	LTP064	ltpFR	13	9	1	SHARK	1275	n/a	1	n/a	0	0	0	n/a	n/a	n/a	n/a	n/a
2033920	REC_WORD	wordpools/wasnorm_wordpool.txt	LTP064	ltpFR	13	9	1	MOUNTAIN	924	n/a	0	n/a	0	0	0	n/a	n/a	n/a	n/a	n/a
2034288	REC_WORD	wordpools/wasnorm_wordpool.txt	LTP064	ltpFR	13	9	1	CAVE	263	n/a	0	n/a	0	0	0	n/a	n/a	n/a	n/a	n/a
2034788	REC_WORD	wordpools/wasnorm_wordpool.txt	LTP064	ltpFR	13	9	1	GUEST	669	n/a	1	n/a	0	0	0	n/a	n/a	n/a	n/a	n/a
2035230	REC_WORD	wordpools/wasnorm_wordpool.txt	LTP064	ltpFR	13	9	1	LEADER	807	n/a	1	n/a	0	0	0	n/a	n/a	n/a	n/a	n/a
2058390	REC_WORD	wordpools/wasnorm_wordpool.txt	LTP064	ltpFR	13	9	1	GOVERNOR	651	n/a	1	n/a	0	0	0	n/a	n/a	n/a	n/a	n/a
2058830	REC_WORD	wordpools/wasnorm_wordpool.txt	LTP064	ltpFR	13	9	1	KIWI	781	n/a	0	n/a	0	0	0	n/a	n/a	n/a	n/a	n/a
2059252	REC_WORD	wordpools/wasnorm_wordpool.txt	LTP064	ltpFR	13	9	1	HERO	706	n/a	1	n/a	0	0	0	n/a	n/a	n/a	n/a	n/a
2059715	REC_WORD	wordpools/wasnorm_wordpool.txt	LTP064	ltpFR	13	9	1	EYE	545	n/a	1	n/a	0	0	0	n/a	n/a	n/a	n/a	n/a
2107288	START	n/a	LTP064	ltpFR	13	n/a	n/a	n/a	n/a	n/a	n/a	n/a	n/a	n/a	n/a	n/a	n/a	n/a	n/a	n/a
2108793	PROB	n/a	LTP064	ltpFR	13	n/a	n/a	n/a	n/a	n/a	n/a	8	2	3	3	n/a	n/a	n/a	n/a	n/a
2110058	PROB	n/a	LTP064	ltpFR	13	n/a	n/a	n/a	n/a	n/a	n/a	17	5	7	5	n/a	n/a	n/a	n/a	n/a
2111065	PROB	n/a	LTP064	ltpFR	13	n/a	n/a	n/a	n/a	n/a	n/a	16	4	7	5	n/a	n/a	n/a	n/a	n/a
2112232	PROB	n/a	LTP064	ltpFR	13	n/a	n/a	n/a	n/a	n/a	n/a	14	8	3	3	n/a	n/a	n/a	n/a	n/a
2114054	PROB	n/a	LTP064	ltpFR	13	n/a	n/a	n/a	n/a	n/a	n/a	24	7	9	8	n/a	n/a	n/a	n/a	n/a
2115303	PROB	n/a	LTP064	ltpFR	13	n/a	n/a	n/a	n/a	n/a	n/a	18	9	6	3	n/a	n/a	n/a	n/a	n/a
2116892	PROB	n/a	LTP064	ltpFR	13	n/a	n/a	n/a	n/a	n/a	n/a	21	7	5	9	n/a	n/a	n/a	n/a	n/a
2118914	PROB	n/a	LTP064	ltpFR	13	n/a	n/a	n/a	n/a	n/a	n/a	15	1	9	5	n/a	n/a	n/a	n/a	n/a
2119988	PROB	n/a	LTP064	ltpFR	13	n/a	n/a	n/a	n/a	n/a	n/a	10	4	2	4	n/a	n/a	n/a	n/a	n/a
2121004	PROB	n/a	LTP064	ltpFR	13	n/a	n/a	n/a	n/a	n/a	n/a	11	1	2	8	n/a	n/a	n/a	n/a	n/a
2121853	STOP	n/a	LTP064	ltpFR	13	n/a	n/a	n/a	n/a	n/a	n/a	n/a	n/a	n/a	n/a	n/a	n/a	n/a	n/a	n/a
2124476	WORD	wordpools/wasnorm_wordpool.txt	LTP064	ltpFR	13	10	1	HIP	710	n/a	0	n/a	0	0	0	1	0.412841796875	0.57763671875	lower	../fonts/amplitud.ttf
2127481	START	n/a	LTP064	ltpFR	13	n/a	n/a	n/a	n/a	n/a	n/a	n/a	n/a	n/a	n/a	n/a	n/a	n/a	n/a	n/a
2128604	PROB	n/a	LTP064	ltpFR	13	n/a	n/a	n/a	n/a	n/a	n/a	14	4	7	3	n/a	n/a	n/a	n/a	n/a
2129910	PROB	n/a	LTP064	ltpFR	13	n/a	n/a	n/a	n/a	n/a	n/a	7	3	1	3	n/a	n/a	n/a	n/a	n/a
2130892	PROB	n/a	LTP064	ltpFR	13	n/a	n/a	n/a	n/a	n/a	n/a	15	7	3	5	n/a	n/a	n/a	n/a	n/a
2132616	PROB	n/a	LTP064	ltpFR	13	n/a	n/a	n/a	n/a	n/a	n/a	24	6	8	7	n/a	n/a	n/a	n/a	n/a
2134314	PROB	n/a	LTP064	ltpFR	13	n/a	n/a	n/a	n/a	n/a	n/a	16	9	1	6	n/a	n/a	n/a	n/a	n/a
2135711	PROB	n/a	LTP064	ltpFR	13	n/a	n/a	n/a	n/a	n/a	n/a	13	7	1	5	n/a	n/a	n/a	n/a	n/a
2137294	PROB	n/a	LTP064	ltpFR	13	n/a	n/a	n/a	n/a	n/a	n/a	23	8	7	8	n/a	n/a	n/a	n/a	n/a
2139690	PROB	n/a	LTP064	ltpFR	13	n/a	n/a	n/a	n/a	n/a	n/a	120	9	5	7	n/a	n/a	n/a	n/a	n/a
2142981	STOP	n/a	LTP064	ltpFR	13	n/a	n/a	n/a	n/a	n/a	n/a	n/a	n/a	n/a	n/a	n/a	n/a	n/a	n/a	n/a
2144427	WORD	wordpools/wasnorm_wordpool.txt	LTP064	ltpFR	13	10	1	ESSAY	540	n/a	0	n/a	0	0	0	1	0.412841796875	0.57763671875	lower	../fonts/amplitud.ttf
2147433	START	n/a	LTP064	ltpFR	13	n/a	n/a	n/a	n/a	n/a	n/a	n/a	n/a	n/a	n/a	n/a	n/a	n/a	n/a	n/a
2148473	PROB	n/a	LTP064	ltpFR	13	n/a	n/a	n/a	n/a	n/a	n/a	17	7	2	8	n/a	n/a	n/a	n/a	n/a
2149795	PROB	n/a	LTP064	ltpFR	13	n/a	n/a	n/a	n/a	n/a	n/a	19	6	9	4	n/a	n/a	n/a	n/a	n/a
2151527	PROB	n/a	LTP064	ltpFR	13	n/a	n/a	n/a	n/a	n/a	n/a	15	4	3	8	n/a	n/a	n/a	n/a	n/a
2153292	PROB	n/a	LTP064	ltpFR	13	n/a	n/a	n/a	n/a	n/a	n/a	22	6	8	8	n/a	n/a	n/a	n/a	n/a
2154981	PROB	n/a	LTP064	ltpFR	13	n/a	n/a	n/a	n/a	n/a	n/a	10	7	2	1	n/a	n/a	n/a	n/a	n/a
2156146	PROB	n/a	LTP064	ltpFR	13	n/a	n/a	n/a	n/a	n/a	n/a	11	4	5	2	n/a	n/a	n/a	n/a	n/a
2157279	PROB	n/a	LTP064	ltpFR	13	n/a	n/a	n/a	n/a	n/a	n/a	18	6	3	9	n/a	n/a	n/a	n/a	n/a
2159817	PROB	n/a	LTP064	ltpFR	13	n/a	n/a	n/a	n/a	n/a	n/a	16	8	5	3	n/a	n/a	n/a	n/a	n/a
2161082	PROB	n/a	LTP064	ltpFR	13	n/a	n/a	n/a	n/a	n/a	n/a	18	3	7	8	n/a	n/a	n/a	n/a	n/a
2162981	STOP	n/a	LTP064	ltpFR	13	n/a	n/a	n/a	n/a	n/a	n/a	n/a	n/a	n/a	n/a	n/a	n/a	n/a	n/a	n/a
2164620	WORD	wordpools/wasnorm_wordpool.txt	LTP064	ltpFR	13	10	1	SCAPEGOAT	1244	n/a	1	n/a	0	0	0	1	0.412841796875	0.57763671875	lower	../fonts/amplitud.ttf
2167626	START	n/a	LTP064	ltpFR	13	n/a	n/a	n/a	n/a	n/a	n/a	n/a	n/a	n/a	n/a	n/a	n/a	n/a	n/a	n/a
2168649	PROB	n/a	LTP064	ltpFR	13	n/a	n/a	n/a	n/a	n/a	n/a	19	4	7	8	n/a	n/a	n/a	n/a	n/a
2169963	PROB	n/a	LTP064	ltpFR	13	n/a	n/a	n/a	n/a	n/a	n/a	17	9	4	4	n/a	n/a	n/a	n/a	n/a
2171446	PROB	n/a	LTP064	ltpFR	13	n/a	n/a	n/a	n/a	n/a	n/a	19	5	9	5	n/a	n/a	n/a	n/a	n/a
2172835	PROB	n/a	LTP064	ltpFR	13	n/a	n/a	n/a	n/a	n/a	n/a	5	1	1	3	n/a	n/a	n/a	n/a	n/a
2173742	PROB	n/a	LTP064	ltpFR	13	n/a	n/a	n/a	n/a	n/a	n/a	7	2	3	3	n/a	n/a	n/a	n/a	n/a
2174766	PROB	n/a	LTP064	ltpFR	13	n/a	n/a	n/a	n/a	n/a	n/a	13	3	5	5	n/a	n/a	n/a	n/a	n/a
2175998	PROB	n/a	LTP064	ltpFR	13	n/a	n/a	n/a	n/a	n/a	n/a	17	9	7	1	n/a	n/a	n/a	n/a	n/a
2177281	PROB	n/a	LTP064	ltpFR	13	n/a	n/a	n/a	n/a	n/a	n/a	12	6	5	1	n/a	n/a	n/a	n/a	n/a
2178254	PROB	n/a	LTP064	ltpFR	13	n/a	n/a	n/a	n/a	n/a	n/a	15	2	4	9	n/a	n/a	n/a	n/a	n/a
2179951	PROB	n/a	LTP064	ltpFR	13	n/a	n/a	n/a	n/a	n/a	n/a	10	3	6	1	n/a	n/a	n/a	n/a	n/a
2180967	PROB	n/a	LTP064	ltpFR	13	n/a	n/a	n/a	n/a	n/a	n/a	21	8	6	7	n/a	n/a	n/a	n/a	n/a
2182254	STOP	n/a	LTP064	ltpFR	13	n/a	n/a	n/a	n/a	n/a	n/a	n/a	n/a	n/a	n/a	n/a	n/a	n/a	n/a	n/a
2184555	WORD	wordpools/wasnorm_wordpool.txt	LTP064	ltpFR	13	10	1	CANYON	235	n/a	0	n/a	0	0	0	1	0.412841796875	0.57763671875	lower	../fonts/amplitud.ttf
2187561	START	n/a	LTP064	ltpFR	13	n/a	n/a	n/a	n/a	n/a	n/a	n/a	n/a	n/a	n/a	n/a	n/a	n/a	n/a	n/a
2188750	PROB	n/a	LTP064	ltpFR	13	n/a	n/a	n/a	n/a	n/a	n/a	7	1	1	5	n/a	n/a	n/a	n/a	n/a
2189707	PROB	n/a	LTP064	ltpFR	13	n/a	n/a	n/a	n/a	n/a	n/a	10	2	4	4	n/a	n/a	n/a	n/a	n/a
2190955	PROB	n/a	LTP064	ltpFR	13	n/a	n/a	n/a	n/a	n/a	n/a	18	9	5	4	n/a	n/a	n/a	n/a	n/a
2192795	PROB	n/a	LTP064	ltpFR	13	n/a	n/a	n/a	n/a	n/a	n/a	17	2	6	9	n/a	n/a	n/a	n/a	n/a
2194669	PROB	n/a	LTP064	ltpFR	13	n/a	n/a	n/a	n/a	n/a	n/a	15	7	1	7	n/a	n/a	n/a	n/a	n/a
2196367	PROB	n/a	LTP064	ltpFR	13	n/a	n/a	n/a	n/a	n/a	n/a	11	5	5	1	n/a	n/a	n/a	n/a	n/a
2197697	PROB	n/a	LTP064	ltpFR	13	n/a	n/a	n/a	n/a	n/a	n/a	2	7	6	5	n/a	n/a	n/a	n/a	n/a
2199563	PROB	n/a	LTP064	ltpFR	13	n/a	n/a	n/a	n/a	n/a	n/a	11	7	2	2	n/a	n/a	n/a	n/a	n/a
2200628	PROB	n/a	LTP064	ltpFR	13	n/a	n/a	n/a	n/a	n/a	n/a	15	1	6	8	n/a	n/a	n/a	n/a	n/a
2203561	STOP	n/a	LTP064	ltpFR	13	n/a	n/a	n/a	n/a	n/a	n/a	n/a	n/a	n/a	n/a	n/a	n/a	n/a	n/a	n/a
2204698	WORD	wordpools/wasnorm_wordpool.txt	LTP064	ltpFR	13	10	1	SLOPE	1328	n/a	0	n/a	0	0	0	1	0.412841796875	0.57763671875	lower	../fonts/amplitud.ttf
2207703	START	n/a	LTP064	ltpFR	13	n/a	n/a	n/a	n/a	n/a	n/a	n/a	n/a	n/a	n/a	n/a	n/a	n/a	n/a	n/a
2208818	PROB	n/a	LTP064	ltpFR	13	n/a	n/a	n/a	n/a	n/a	n/a	21	5	7	9	n/a	n/a	n/a	n/a	n/a
2210517	PROB	n/a	LTP064	ltpFR	13	n/a	n/a	n/a	n/a	n/a	n/a	12	8	1	3	n/a	n/a	n/a	n/a	n/a
2211582	PROB	n/a	LTP064	ltpFR	13	n/a	n/a	n/a	n/a	n/a	n/a	14	3	9	2	n/a	n/a	n/a	n/a	n/a
2213804	PROB	n/a	LTP064	ltpFR	13	n/a	n/a	n/a	n/a	n/a	n/a	11	1	8	2	n/a	n/a	n/a	n/a	n/a
2215019	PROB	n/a	LTP064	ltpFR	13	n/a	n/a	n/a	n/a	n/a	n/a	11	1	5	5	n/a	n/a	n/a	n/a	n/a
2216034	PROB	n/a	LTP064	ltpFR	13	n/a	n/a	n/a	n/a	n/a	n/a	9	1	6	2	n/a	n/a	n/a	n/a	n/a
2217500	PROB	n/a	LTP064	ltpFR	13	n/a	n/a	n/a	n/a	n/a	n/a	13	3	3	7	n/a	n/a	n/a	n/a	n/a
2219114	PROB	n/a	LTP064	ltpFR	13	n/a	n/a	n/a	n/a	n/a	n/a	17	9	5	3	n/a	n/a	n/a	n/a	n/a
2221429	PROB	n/a	LTP064	ltpFR	13	n/a	n/a	n/a	n/a	n/a	n/a	19	6	6	7	n/a	n/a	n/a	n/a	n/a
2222709	STOP	n/a	LTP064	ltpFR	13	n/a	n/a	n/a	n/a	n/a	n/a	n/a	n/a	n/a	n/a	n/a	n/a	n/a	n/a	n/a
2224567	WORD	wordpools/wasnorm_wordpool.txt	LTP064	ltpFR	13	10	1	GROUND	666	n/a	0	n/a	0	0	0	1	0.412841796875	0.57763671875	lower	../fonts/amplitud.ttf
2227572	START	n/a	LTP064	ltpFR	13	n/a	n/a	n/a	n/a	n/a	n/a	n/a	n/a	n/a	n/a	n/a	n/a	n/a	n/a	n/a
2228446	PROB	n/a	LTP064	ltpFR	13	n/a	n/a	n/a	n/a	n/a	n/a	20	6	8	6	n/a	n/a	n/a	n/a	n/a
2229793	PROB	n/a	LTP064	ltpFR	13	n/a	n/a	n/a	n/a	n/a	n/a	17	7	3	7	n/a	n/a	n/a	n/a	n/a
2231276	PROB	n/a	LTP064	ltpFR	13	n/a	n/a	n/a	n/a	n/a	n/a	19	9	3	7	n/a	n/a	n/a	n/a	n/a
2232666	PROB	n/a	LTP064	ltpFR	13	n/a	n/a	n/a	n/a	n/a	n/a	24	7	8	9	n/a	n/a	n/a	n/a	n/a
2233922	PROB	n/a	LTP064	ltpFR	13	n/a	n/a	n/a	n/a	n/a	n/a	5	2	2	1	n/a	n/a	n/a	n/a	n/a
2234762	PROB	n/a	LTP064	ltpFR	13	n/a	n/a	n/a	n/a	n/a	n/a	13	6	1	6	n/a	n/a	n/a	n/a	n/a
2235819	PROB	n/a	LTP064	ltpFR	13	n/a	n/a	n/a	n/a	n/a	n/a	15	5	6	4	n/a	n/a	n/a	n/a	n/a
2236785	PROB	n/a	LTP064	ltpFR	13	n/a	n/a	n/a	n/a	n/a	n/a	20	8	7	5	n/a	n/a	n/a	n/a	n/a
2238451	PROB	n/a	LTP064	ltpFR	13	n/a	n/a	n/a	n/a	n/a	n/a	1	1	2	8	n/a	n/a	n/a	n/a	n/a
2239416	PROB	n/a	LTP064	ltpFR	13	n/a	n/a	n/a	n/a	n/a	n/a	18	3	7	8	n/a	n/a	n/a	n/a	n/a
2241281	PROB	n/a	LTP064	ltpFR	13	n/a	n/a	n/a	n/a	n/a	n/a	16	3	4	9	n/a	n/a	n/a	n/a	n/a
2242590	STOP	n/a	LTP064	ltpFR	13	n/a	n/a	n/a	n/a	n/a	n/a	n/a	n/a	n/a	n/a	n/a	n/a	n/a	n/a	n/a
2244569	WORD	wordpools/wasnorm_wordpool.txt	LTP064	ltpFR	13	10	1	CLAY	320	n/a	0	n/a	0	0	0	1	0.412841796875	0.57763671875	lower	../fonts/amplitud.ttf
2247574	START	n/a	LTP064	ltpFR	13	n/a	n/a	n/a	n/a	n/a	n/a	n/a	n/a	n/a	n/a	n/a	n/a	n/a	n/a	n/a
2248679	PROB	n/a	LTP064	ltpFR	13	n/a	n/a	n/a	n/a	n/a	n/a	16	3	6	7	n/a	n/a	n/a	n/a	n/a
2250237	PROB	n/a	LTP064	ltpFR	13	n/a	n/a	n/a	n/a	n/a	n/a	12	3	5	4	n/a	n/a	n/a	n/a	n/a
2251801	PROB	n/a	LTP064	ltpFR	13	n/a	n/a	n/a	n/a	n/a	n/a	20	4	7	9	n/a	n/a	n/a	n/a	n/a
2253608	PROB	n/a	LTP064	ltpFR	13	n/a	n/a	n/a	n/a	n/a	n/a	20	8	5	7	n/a	n/a	n/a	n/a	n/a
2255105	PROB	n/a	LTP064	ltpFR	13	n/a	n/a	n/a	n/a	n/a	n/a	18	8	1	9	n/a	n/a	n/a	n/a	n/a
2257204	PROB	n/a	LTP064	ltpFR	13	n/a	n/a	n/a	n/a	n/a	n/a	12	6	4	2	n/a	n/a	n/a	n/a	n/a
2258834	PROB	n/a	LTP064	ltpFR	13	n/a	n/a	n/a	n/a	n/a	n/a	19	6	9	4	n/a	n/a	n/a	n/a	n/a
2260525	PROB	n/a	LTP064	ltpFR	13	n/a	n/a	n/a	n/a	n/a	n/a	18	4	6	8	n/a	n/a	n/a	n/a	n/a
2262039	PROB	n/a	LTP064	ltpFR	13	n/a	n/a	n/a	n/a	n/a	n/a	12	3	6	3	n/a	n/a	n/a	n/a	n/a
2263093	STOP	n/a	LTP064	ltpFR	13	n/a	n/a	n/a	n/a	n/a	n/a	n/a	n/a	n/a	n/a	n/a	n/a	n/a	n/a	n/a
2264445	WORD	wordpools/wasnorm_wordpool.txt	LTP064	ltpFR	13	10	1	LAKE	796	n/a	0	n/a	0	0	0	1	0.412841796875	0.57763671875	lower	../fonts/amplitud.ttf
2267451	START	n/a	LTP064	ltpFR	13	n/a	n/a	n/a	n/a	n/a	n/a	n/a	n/a	n/a	n/a	n/a	n/a	n/a	n/a	n/a
2268582	PROB	n/a	LTP064	ltpFR	13	n/a	n/a	n/a	n/a	n/a	n/a	144	7	6	4	n/a	n/a	n/a	n/a	n/a
2269946	PROB	n/a	LTP064	ltpFR	13	n/a	n/a	n/a	n/a	n/a	n/a	9	1	7	1	n/a	n/a	n/a	n/a	n/a
2271062	PROB	n/a	LTP064	ltpFR	13	n/a	n/a	n/a	n/a	n/a	n/a	13	9	1	3	n/a	n/a	n/a	n/a	n/a
2272851	PROB	n/a	LTP064	ltpFR	13	n/a	n/a	n/a	n/a	n/a	n/a	17	9	1	7	n/a	n/a	n/a	n/a	n/a
2274083	PROB	n/a	LTP064	ltpFR	13	n/a	n/a	n/a	n/a	n/a	n/a	16	6	6	4	n/a	n/a	n/a	n/a	n/a
2275383	PROB	n/a	LTP064	ltpFR	13	n/a	n/a	n/a	n/a	n/a	n/a	7	2	3	2	n/a	n/a	n/a	n/a	n/a
2276448	PROB	n/a	LTP064	ltpFR	13	n/a	n/a	n/a	n/a	n/a	n/a	13	1	9	3	n/a	n/a	n/a	n/a	n/a
2277580	PROB	n/a	LTP064	ltpFR	13	n/a	n/a	n/a	n/a	n/a	n/a	12	8	4	2	n/a	n/a	n/a	n/a	n/a
2278694	PROB	n/a	LTP064	ltpFR	13	n/a	n/a	n/a	n/a	n/a	n/a	15	7	3	5	n/a	n/a	n/a	n/a	n/a
2280260	PROB	n/a	LTP064	ltpFR	13	n/a	n/a	n/a	n/a	n/a	n/a	22	7	9	6	n/a	n/a	n/a	n/a	n/a
2283446	STOP	n/a	LTP064	ltpFR	13	n/a	n/a	n/a	n/a	n/a	n/a	n/a	n/a	n/a	n/a	n/a	n/a	n/a	n/a	n/a
2284547	WORD	wordpools/wasnorm_wordpool.txt	LTP064	ltpFR	13	10	1	SPRINKLE	1359	n/a	0	n/a	0	0	0	1	0.412841796875	0.57763671875	lower	../fonts/amplitud.ttf
2287552	START	n/a	LTP064	ltpFR	13	n/a	n/a	n/a	n/a	n/a	n/a	n/a	n/a	n/a	n/a	n/a	n/a	n/a	n/a	n/a
2288451	PROB	n/a	LTP064	ltpFR	13	n/a	n/a	n/a	n/a	n/a	n/a	7	1	4	2	n/a	n/a	n/a	n/a	n/a
2289566	PROB	n/a	LTP064	ltpFR	13	n/a	n/a	n/a	n/a	n/a	n/a	8	1	5	2	n/a	n/a	n/a	n/a	n/a
2290722	PROB	n/a	LTP064	ltpFR	13	n/a	n/a	n/a	n/a	n/a	n/a	11	1	4	6	n/a	n/a	n/a	n/a	n/a
2291664	PROB	n/a	LTP064	ltpFR	13	n/a	n/a	n/a	n/a	n/a	n/a	20	8	3	9	n/a	n/a	n/a	n/a	n/a
2293412	PROB	n/a	LTP064	ltpFR	13	n/a	n/a	n/a	n/a	n/a	n/a	17	8	7	2	n/a	n/a	n/a	n/a	n/a
2294635	PROB	n/a	LTP064	ltpFR	13	n/a	n/a	n/a	n/a	n/a	n/a	14	9	2	3	n/a	n/a	n/a	n/a	n/a
2296167	PROB	n/a	LTP064	ltpFR	13	n/a	n/a	n/a	n/a	n/a	n/a	15	7	6	2	n/a	n/a	n/a	n/a	n/a
2297457	PROB	n/a	LTP064	ltpFR	13	n/a	n/a	n/a	n/a	n/a	n/a	14	6	5	3	n/a	n/a	n/a	n/a	n/a
2298614	PROB	n/a	LTP064	ltpFR	13	n/a	n/a	n/a	n/a	n/a	n/a	15	8	5	2	n/a	n/a	n/a	n/a	n/a
2299945	PROB	n/a	LTP064	ltpFR	13	n/a	n/a	n/a	n/a	n/a	n/a	8	6	1	1	n/a	n/a	n/a	n/a	n/a
2300835	PROB	n/a	LTP064	ltpFR	13	n/a	n/a	n/a	n/a	n/a	n/a	14	3	3	8	n/a	n/a	n/a	n/a	n/a
2302198	STOP	n/a	LTP064	ltpFR	13	n/a	n/a	n/a	n/a	n/a	n/a	n/a	n/a	n/a	n/a	n/a	n/a	n/a	n/a	n/a
2304407	WORD	wordpools/wasnorm_wordpool.txt	LTP064	ltpFR	13	10	1	SKELETON	1314	n/a	0	n/a	0	0	0	1	0.412841796875	0.57763671875	lower	../fonts/amplitud.ttf
2307412	START	n/a	LTP064	ltpFR	13	n/a	n/a	n/a	n/a	n/a	n/a	n/a	n/a	n/a	n/a	n/a	n/a	n/a	n/a	n/a
2308602	PROB	n/a	LTP064	ltpFR	13	n/a	n/a	n/a	n/a	n/a	n/a	19	3	9	7	n/a	n/a	n/a	n/a	n/a
2310259	PROB	n/a	LTP064	ltpFR	13	n/a	n/a	n/a	n/a	n/a	n/a	15	5	5	5	n/a	n/a	n/a	n/a	n/a
2311224	PROB	n/a	LTP064	ltpFR	13	n/a	n/a	n/a	n/a	n/a	n/a	212	9	7	6	n/a	n/a	n/a	n/a	n/a
2313213	PROB	n/a	LTP064	ltpFR	13	n/a	n/a	n/a	n/a	n/a	n/a	1	5	7	9	n/a	n/a	n/a	n/a	n/a
2315160	PROB	n/a	LTP064	ltpFR	13	n/a	n/a	n/a	n/a	n/a	n/a	13	1	6	6	n/a	n/a	n/a	n/a	n/a
2316285	PROB	n/a	LTP064	ltpFR	13	n/a	n/a	n/a	n/a	n/a	n/a	17	2	7	8	n/a	n/a	n/a	n/a	n/a
2317757	PROB	n/a	LTP064	ltpFR	13	n/a	n/a	n/a	n/a	n/a	n/a	19	2	9	8	n/a	n/a	n/a	n/a	n/a
2319639	PROB	n/a	LTP064	ltpFR	13	n/a	n/a	n/a	n/a	n/a	n/a	13	8	1	4	n/a	n/a	n/a	n/a	n/a
2321694	PROB	n/a	LTP064	ltpFR	13	n/a	n/a	n/a	n/a	n/a	n/a	16	2	8	6	n/a	n/a	n/a	n/a	n/a
2322893	STOP	n/a	LTP064	ltpFR	13	n/a	n/a	n/a	n/a	n/a	n/a	n/a	n/a	n/a	n/a	n/a	n/a	n/a	n/a	n/a
2324250	WORD	wordpools/wasnorm_wordpool.txt	LTP064	ltpFR	13	10	1	HIKER	708	n/a	1	n/a	0	0	0	1	0.412841796875	0.57763671875	lower	../fonts/amplitud.ttf
2327256	START	n/a	LTP064	ltpFR	13	n/a	n/a	n/a	n/a	n/a	n/a	n/a	n/a	n/a	n/a	n/a	n/a	n/a	n/a	n/a
2328354	PROB	n/a	LTP064	ltpFR	13	n/a	n/a	n/a	n/a	n/a	n/a	10	3	5	2	n/a	n/a	n/a	n/a	n/a
2329378	PROB	n/a	LTP064	ltpFR	13	n/a	n/a	n/a	n/a	n/a	n/a	17	4	4	9	n/a	n/a	n/a	n/a	n/a
2330825	PROB	n/a	LTP064	ltpFR	13	n/a	n/a	n/a	n/a	n/a	n/a	12	2	1	8	n/a	n/a	n/a	n/a	n/a
2331899	PROB	n/a	LTP064	ltpFR	13	n/a	n/a	n/a	n/a	n/a	n/a	8	2	1	5	n/a	n/a	n/a	n/a	n/a
2333240	PROB	n/a	LTP064	ltpFR	13	n/a	n/a	n/a	n/a	n/a	n/a	17	5	5	7	n/a	n/a	n/a	n/a	n/a
2334497	PROB	n/a	LTP064	ltpFR	13	n/a	n/a	n/a	n/a	n/a	n/a	13	8	2	3	n/a	n/a	n/a	n/a	n/a
2335853	PROB	n/a	LTP064	ltpFR	13	n/a	n/a	n/a	n/a	n/a	n/a	17	6	4	7	n/a	n/a	n/a	n/a	n/a
2337477	PROB	n/a	LTP064	ltpFR	13	n/a	n/a	n/a	n/a	n/a	n/a	16	9	2	5	n/a	n/a	n/a	n/a	n/a
2339275	PROB	n/a	LTP064	ltpFR	13	n/a	n/a	n/a	n/a	n/a	n/a	10	1	3	6	n/a	n/a	n/a	n/a	n/a
2340805	PROB	n/a	LTP064	ltpFR	13	n/a	n/a	n/a	n/a	n/a	n/a	25	8	9	9	n/a	n/a	n/a	n/a	n/a
2342157	STOP	n/a	LTP064	ltpFR	13	n/a	n/a	n/a	n/a	n/a	n/a	n/a	n/a	n/a	n/a	n/a	n/a	n/a	n/a	n/a
2344227	WORD	wordpools/wasnorm_wordpool.txt	LTP064	ltpFR	13	10	1	RACCOON	1153	n/a	0	n/a	0	0	0	1	0.412841796875	0.57763671875	lower	../fonts/amplitud.ttf
2347232	START	n/a	LTP064	ltpFR	13	n/a	n/a	n/a	n/a	n/a	n/a	n/a	n/a	n/a	n/a	n/a	n/a	n/a	n/a	n/a
2348038	PROB	n/a	LTP064	ltpFR	13	n/a	n/a	n/a	n/a	n/a	n/a	20	8	7	5	n/a	n/a	n/a	n/a	n/a
2350287	PROB	n/a	LTP064	ltpFR	13	n/a	n/a	n/a	n/a	n/a	n/a	13	1	4	8	n/a	n/a	n/a	n/a	n/a
2351427	PROB	n/a	LTP064	ltpFR	13	n/a	n/a	n/a	n/a	n/a	n/a	17	7	4	6	n/a	n/a	n/a	n/a	n/a
2352559	PROB	n/a	LTP064	ltpFR	13	n/a	n/a	n/a	n/a	n/a	n/a	21	5	8	8	n/a	n/a	n/a	n/a	n/a
2354340	PROB	n/a	LTP064	ltpFR	13	n/a	n/a	n/a	n/a	n/a	n/a	13	4	3	6	n/a	n/a	n/a	n/a	n/a
2356621	PROB	n/a	LTP064	ltpFR	13	n/a	n/a	n/a	n/a	n/a	n/a	21	8	8	5	n/a	n/a	n/a	n/a	n/a
2358035	PROB	n/a	LTP064	ltpFR	13	n/a	n/a	n/a	n/a	n/a	n/a	9	3	2	4	n/a	n/a	n/a	n/a	n/a
2358976	PROB	n/a	LTP064	ltpFR	13	n/a	n/a	n/a	n/a	n/a	n/a	96	1	2	6	n/a	n/a	n/a	n/a	n/a
2360008	PROB	n/a	LTP064	ltpFR	13	n/a	n/a	n/a	n/a	n/a	n/a	23	9	6	8	n/a	n/a	n/a	n/a	n/a
2362174	STOP	n/a	LTP064	ltpFR	13	n/a	n/a	n/a	n/a	n/a	n/a	n/a	n/a	n/a	n/a	n/a	n/a	n/a	n/a	n/a
2364254	WORD	wordpools/wasnorm_wordpool.txt	LTP064	ltpFR	13	10	1	CONTINENT	367	n/a	0	n/a	0	0	0	1	0.412841796875	0.57763671875	lower	../fonts/amplitud.ttf
2367259	START	n/a	LTP064	ltpFR	13	n/a	n/a	n/a	n/a	n/a	n/a	n/a	n/a	n/a	n/a	n/a	n/a	n/a	n/a	n/a
2368166	PROB	n/a	LTP064	ltpFR	13	n/a	n/a	n/a	n/a	n/a	n/a	15	5	6	4	n/a	n/a	n/a	n/a	n/a
2369139	PROB	n/a	LTP064	ltpFR	13	n/a	n/a	n/a	n/a	n/a	n/a	17	5	7	5	n/a	n/a	n/a	n/a	n/a
2370213	PROB	n/a	LTP064	ltpFR	13	n/a	n/a	n/a	n/a	n/a	n/a	20	8	9	3	n/a	n/a	n/a	n/a	n/a
2371487	PROB	n/a	LTP064	ltpFR	13	n/a	n/a	n/a	n/a	n/a	n/a	21	4	9	8	n/a	n/a	n/a	n/a	n/a
2372884	PROB	n/a	LTP064	ltpFR	13	n/a	n/a	n/a	n/a	n/a	n/a	12	7	2	3	n/a	n/a	n/a	n/a	n/a
2374116	PROB	n/a	LTP064	ltpFR	13	n/a	n/a	n/a	n/a	n/a	n/a	89	1	1	7	n/a	n/a	n/a	n/a	n/a
2375316	PROB	n/a	LTP064	ltpFR	13	n/a	n/a	n/a	n/a	n/a	n/a	14	2	4	8	n/a	n/a	n/a	n/a	n/a
2376589	PROB	n/a	LTP064	ltpFR	13	n/a	n/a	n/a	n/a	n/a	n/a	7	4	1	2	n/a	n/a	n/a	n/a	n/a
2377488	PROB	n/a	LTP064	ltpFR	13	n/a	n/a	n/a	n/a	n/a	n/a	16	6	4	6	n/a	n/a	n/a	n/a	n/a
2379010	PROB	n/a	LTP064	ltpFR	13	n/a	n/a	n/a	n/a	n/a	n/a	13	1	2	8	n/a	n/a	n/a	n/a	n/a
2379959	PROB	n/a	LTP064	ltpFR	13	n/a	n/a	n/a	n/a	n/a	n/a	17	9	2	6	n/a	n/a	n/a	n/a	n/a
2382157	STOP	n/a	LTP064	ltpFR	13	n/a	n/a	n/a	n/a	n/a	n/a	n/a	n/a	n/a	n/a	n/a	n/a	n/a	n/a	n/a
2384314	WORD	wordpools/wasnorm_wordpool.txt	LTP064	ltpFR	13	10	1	PICNIC	1060	n/a	0	n/a	0	0	0	1	0.412841796875	0.57763671875	lower	../fonts/amplitud.ttf
2387319	START	n/a	LTP064	ltpFR	13	n/a	n/a	n/a	n/a	n/a	n/a	n/a	n/a	n/a	n/a	n/a	n/a	n/a	n/a	n/a
2388209	PROB	n/a	LTP064	ltpFR	13	n/a	n/a	n/a	n/a	n/a	n/a	17	8	4	5	n/a	n/a	n/a	n/a	n/a
2390257	PROB	n/a	LTP064	ltpFR	13	n/a	n/a	n/a	n/a	n/a	n/a	16	2	5	9	n/a	n/a	n/a	n/a	n/a
2391821	PROB	n/a	LTP064	ltpFR	13	n/a	n/a	n/a	n/a	n/a	n/a	13	4	3	6	n/a	n/a	n/a	n/a	n/a
2393228	PROB	n/a	LTP064	ltpFR	13	n/a	n/a	n/a	n/a	n/a	n/a	14	3	4	7	n/a	n/a	n/a	n/a	n/a
2394460	PROB	n/a	LTP064	ltpFR	13	n/a	n/a	n/a	n/a	n/a	n/a	17	7	5	7	n/a	n/a	n/a	n/a	n/a
2395924	PROB	n/a	LTP064	ltpFR	13	n/a	n/a	n/a	n/a	n/a	n/a	7	1	5	1	n/a	n/a	n/a	n/a	n/a
2397448	PROB	n/a	LTP064	ltpFR	13	n/a	n/a	n/a	n/a	n/a	n/a	12	3	6	3	n/a	n/a	n/a	n/a	n/a
2398821	PROB	n/a	LTP064	ltpFR	13	n/a	n/a	n/a	n/a	n/a	n/a	10	1	4	5	n/a	n/a	n/a	n/a	n/a
2399953	PROB	n/a	LTP064	ltpFR	13	n/a	n/a	n/a	n/a	n/a	n/a	10	1	5	4	n/a	n/a	n/a	n/a	n/a
2400993	PROB	n/a	LTP064	ltpFR	13	n/a	n/a	n/a	n/a	n/a	n/a	10	5	1	4	n/a	n/a	n/a	n/a	n/a
2402021	STOP	n/a	LTP064	ltpFR	13	n/a	n/a	n/a	n/a	n/a	n/a	n/a	n/a	n/a	n/a	n/a	n/a	n/a	n/a	n/a
2404507	WORD	wordpools/wasnorm_wordpool.txt	LTP064	ltpFR	13	10	1	PORCUPINE	1107	n/a	0	n/a	0	0	0	1	0.412841796875	0.57763671875	lower	../fonts/amplitud.ttf
2407512	START	n/a	LTP064	ltpFR	13	n/a	n/a	n/a	n/a	n/a	n/a	n/a	n/a	n/a	n/a	n/a	n/a	n/a	n/a	n/a
2408602	PROB	n/a	LTP064	ltpFR	13	n/a	n/a	n/a	n/a	n/a	n/a	15	9	5	1	n/a	n/a	n/a	n/a	n/a
2409708	PROB	n/a	LTP064	ltpFR	13	n/a	n/a	n/a	n/a	n/a	n/a	25	9	8	9	n/a	n/a	n/a	n/a	n/a
2411340	PROB	n/a	LTP064	ltpFR	13	n/a	n/a	n/a	n/a	n/a	n/a	14	4	8	2	n/a	n/a	n/a	n/a	n/a
2413263	PROB	n/a	LTP064	ltpFR	13	n/a	n/a	n/a	n/a	n/a	n/a	17	2	6	9	n/a	n/a	n/a	n/a	n/a
2414794	PROB	n/a	LTP064	ltpFR	13	n/a	n/a	n/a	n/a	n/a	n/a	14	7	1	6	n/a	n/a	n/a	n/a	n/a
2416067	PROB	n/a	LTP064	ltpFR	13	n/a	n/a	n/a	n/a	n/a	n/a	20	7	4	9	n/a	n/a	n/a	n/a	n/a
2417633	PROB	n/a	LTP064	ltpFR	13	n/a	n/a	n/a	n/a	n/a	n/a	20	8	6	6	n/a	n/a	n/a	n/a	n/a
2418955	PROB	n/a	LTP064	ltpFR	13	n/a	n/a	n/a	n/a	n/a	n/a	8	6	1	1	n/a	n/a	n/a	n/a	n/a
2419879	PROB	n/a	LTP064	ltpFR	13	n/a	n/a	n/a	n/a	n/a	n/a	11	9	1	1	n/a	n/a	n/a	n/a	n/a
2420953	PROB	n/a	LTP064	ltpFR	13	n/a	n/a	n/a	n/a	n/a	n/a	21	9	9	3	n/a	n/a	n/a	n/a	n/a
2422085	STOP	n/a	LTP064	ltpFR	13	n/a	n/a	n/a	n/a	n/a	n/a	n/a	n/a	n/a	n/a	n/a	n/a	n/a	n/a	n/a
2424682	WORD	wordpools/wasnorm_wordpool.txt	LTP064	ltpFR	13	10	1	LEOPARD	812	n/a	1	n/a	0	0	0	1	0.412841796875	0.57763671875	lower	../fonts/amplitud.ttf
2427687	START	n/a	LTP064	ltpFR	13	n/a	n/a	n/a	n/a	n/a	n/a	n/a	n/a	n/a	n/a	n/a	n/a	n/a	n/a	n/a
2428794	PROB	n/a	LTP064	ltpFR	13	n/a	n/a	n/a	n/a	n/a	n/a	14	3	8	3	n/a	n/a	n/a	n/a	n/a
2430601	PROB	n/a	LTP064	ltpFR	13	n/a	n/a	n/a	n/a	n/a	n/a	7	1	1	5	n/a	n/a	n/a	n/a	n/a
2431658	PROB	n/a	LTP064	ltpFR	13	n/a	n/a	n/a	n/a	n/a	n/a	144	4	5	5	n/a	n/a	n/a	n/a	n/a
2433198	PROB	n/a	LTP064	ltpFR	13	n/a	n/a	n/a	n/a	n/a	n/a	8	2	1	5	n/a	n/a	n/a	n/a	n/a
2434397	PROB	n/a	LTP064	ltpFR	13	n/a	n/a	n/a	n/a	n/a	n/a	14	9	3	2	n/a	n/a	n/a	n/a	n/a
2436069	PROB	n/a	LTP064	ltpFR	13	n/a	n/a	n/a	n/a	n/a	n/a	10	3	2	5	n/a	n/a	n/a	n/a	n/a
2437202	PROB	n/a	LTP064	ltpFR	13	n/a	n/a	n/a	n/a	n/a	n/a	15	4	4	7	n/a	n/a	n/a	n/a	n/a
2438559	PROB	n/a	LTP064	ltpFR	13	n/a	n/a	n/a	n/a	n/a	n/a	8	2	5	1	n/a	n/a	n/a	n/a	n/a
2439441	PROB	n/a	LTP064	ltpFR	13	n/a	n/a	n/a	n/a	n/a	n/a	85	2	2	4	n/a	n/a	n/a	n/a	n/a
2440515	PROB	n/a	LTP064	ltpFR	13	n/a	n/a	n/a	n/a	n/a	n/a	13	3	4	6	n/a	n/a	n/a	n/a	n/a
2442149	STOP	n/a	LTP064	ltpFR	13	n/a	n/a	n/a	n/a	n/a	n/a	n/a	n/a	n/a	n/a	n/a	n/a	n/a	n/a	n/a
2445476	REC_START	n/a	LTP064	ltpFR	13	10	n/a	n/a	n/a	n/a	n/a	n/a	0	0	0	n/a	n/a	n/a	n/a	n/a
2446823	REC_WORD	wordpools/wasnorm_wordpool.txt	LTP064	ltpFR	13	10	1	PORCUPINE	1107	n/a	0	n/a	0	0	0	n/a	n/a	n/a	n/a	n/a
2447523	REC_WORD	wordpools/wasnorm_wordpool.txt	LTP064	ltpFR	13	10	1	LEOPARD	812	n/a	1	n/a	0	0	0	n/a	n/a	n/a	n/a	n/a
2448214	REC_WORD	wordpools/wasnorm_wordpool.txt	LTP064	ltpFR	13	10	1	CONTINENT	367	n/a	0	n/a	0	0	0	n/a	n/a	n/a	n/a	n/a
2460696	REC_WORD	wordpools/wasnorm_wordpool.txt	LTP064	ltpFR	13	10	1	RACCOON	1153	n/a	0	n/a	0	0	0	n/a	n/a	n/a	n/a	n/a
2536111	START	n/a	LTP064	ltpFR	13	n/a	n/a	n/a	n/a	n/a	n/a	n/a	n/a	n/a	n/a	n/a	n/a	n/a	n/a	n/a
2537618	PROB	n/a	LTP064	ltpFR	13	n/a	n/a	n/a	n/a	n/a	n/a	15	5	4	6	n/a	n/a	n/a	n/a	n/a
2538857	PROB	n/a	LTP064	ltpFR	13	n/a	n/a	n/a	n/a	n/a	n/a	19	8	9	2	n/a	n/a	n/a	n/a	n/a
2540097	PROB	n/a	LTP064	ltpFR	13	n/a	n/a	n/a	n/a	n/a	n/a	16	9	5	2	n/a	n/a	n/a	n/a	n/a
2541920	PROB	n/a	LTP064	ltpFR	13	n/a	n/a	n/a	n/a	n/a	n/a	24	8	8	6	n/a	n/a	n/a	n/a	n/a
2543390	STOP	n/a	LTP064	ltpFR	13	n/a	n/a	n/a	n/a	n/a	n/a	n/a	n/a	n/a	n/a	n/a	n/a	n/a	n/a	n/a
2545091	WORD	wordpools/wasnorm_wordpool.txt	LTP064	ltpFR	13	11	1	FAUCET	555	n/a	0	n/a	0	0	0	1	0.412841796875	0.57763671875	lower	../fonts/amplitud.ttf
2548097	START	n/a	LTP064	ltpFR	13	n/a	n/a	n/a	n/a	n/a	n/a	n/a	n/a	n/a	n/a	n/a	n/a	n/a	n/a	n/a
2549221	PROB	n/a	LTP064	ltpFR	13	n/a	n/a	n/a	n/a	n/a	n/a	17	8	2	7	n/a	n/a	n/a	n/a	n/a
2550511	PROB	n/a	LTP064	ltpFR	13	n/a	n/a	n/a	n/a	n/a	n/a	17	3	5	9	n/a	n/a	n/a	n/a	n/a
2552317	PROB	n/a	LTP064	ltpFR	13	n/a	n/a	n/a	n/a	n/a	n/a	7	4	2	1	n/a	n/a	n/a	n/a	n/a
2553358	PROB	n/a	LTP064	ltpFR	13	n/a	n/a	n/a	n/a	n/a	n/a	12	5	5	2	n/a	n/a	n/a	n/a	n/a
2554265	PROB	n/a	LTP064	ltpFR	13	n/a	n/a	n/a	n/a	n/a	n/a	16	1	7	8	n/a	n/a	n/a	n/a	n/a
2555149	STOP	n/a	LTP064	ltpFR	13	n/a	n/a	n/a	n/a	n/a	n/a	n/a	n/a	n/a	n/a	n/a	n/a	n/a	n/a	n/a
