mstime	trial_type	stim_file	subject	experiment	session	trial	task	item_name	item_num	recog_conf	resp	answer	test_x	test_y	test_z	color_b	color_g	color_r	case	font
0	SESS_START	n/a	LTP273	ltpFR	8	n/a	n/a	n/a	n/a	1	n/a	n/a	0	0	0	n/a	n/a	n/a	n/a	n/a
123637	START	n/a	LTP273	ltpFR	8	n/a	n/a	n/a	n/a	n/a	n/a	n/a	n/a	n/a	n/a	n/a	n/a	n/a	n/a	n/a
123692	PROB	n/a	LTP273	ltpFR	8	n/a	n/a	n/a	n/a	n/a	n/a	13	9	2	2	n/a	n/a	n/a	n/a	n/a
126703	PROB	n/a	LTP273	ltpFR	8	n/a	n/a	n/a	n/a	n/a	n/a	13	5	4	4	n/a	n/a	n/a	n/a	n/a
129442	PROB	n/a	LTP273	ltpFR	8	n/a	n/a	n/a	n/a	n/a	n/a	10	7	2	1	n/a	n/a	n/a	n/a	n/a
131048	PROB	n/a	LTP273	ltpFR	8	n/a	n/a	n/a	n/a	n/a	n/a	11	3	7	1	n/a	n/a	n/a	n/a	n/a
132637	PROB	n/a	LTP273	ltpFR	8	n/a	n/a	n/a	n/a	n/a	n/a	15	2	5	8	n/a	n/a	n/a	n/a	n/a
135180	PROB	n/a	LTP273	ltpFR	8	n/a	n/a	n/a	n/a	n/a	n/a	20	7	9	4	n/a	n/a	n/a	n/a	n/a
138448	PROB	n/a	LTP273	ltpFR	8	n/a	n/a	n/a	n/a	n/a	n/a	17	4	9	4	n/a	n/a	n/a	n/a	n/a
141676	PROB	n/a	LTP273	ltpFR	8	n/a	n/a	n/a	n/a	n/a	n/a	12	6	4	2	n/a	n/a	n/a	n/a	n/a
143174	STOP	n/a	LTP273	ltpFR	8	n/a	n/a	n/a	n/a	n/a	n/a	n/a	n/a	n/a	n/a	n/a	n/a	n/a	n/a	n/a
328916	START	n/a	LTP273	ltpFR	8	n/a	n/a	n/a	n/a	n/a	n/a	n/a	n/a	n/a	n/a	n/a	n/a	n/a	n/a	n/a
330432	PROB	n/a	LTP273	ltpFR	8	n/a	n/a	n/a	n/a	n/a	n/a	19	8	2	9	n/a	n/a	n/a	n/a	n/a
333477	PROB	n/a	LTP273	ltpFR	8	n/a	n/a	n/a	n/a	n/a	n/a	12	5	5	2	n/a	n/a	n/a	n/a	n/a
334682	PROB	n/a	LTP273	ltpFR	8	n/a	n/a	n/a	n/a	n/a	n/a	13	4	3	5	n/a	n/a	n/a	n/a	n/a
336310	STOP	n/a	LTP273	ltpFR	8	n/a	n/a	n/a	n/a	n/a	n/a	n/a	n/a	n/a	n/a	n/a	n/a	n/a	n/a	n/a
337983	WORD	wordpools/wasnorm_wordpool_less_exclusions.txt	LTP273	ltpFR	8	1	1	RAKE	1164	n/a	2	n/a	0	0	0	1	0.412841796875	0.57763671875	lower	../fonts/amplitud.ttf
340024	KEY_MSG	n/a	LTP273	ltpFR	8	1	n/a	n/a	n/a	n/a	n/a	n/a	0	0	0	n/a	n/a	n/a	n/a	n/a
341559	START	n/a	LTP273	ltpFR	8	n/a	n/a	n/a	n/a	n/a	n/a	n/a	n/a	n/a	n/a	n/a	n/a	n/a	n/a	n/a
342461	PROB	n/a	LTP273	ltpFR	8	n/a	n/a	n/a	n/a	n/a	n/a	13	4	8	1	n/a	n/a	n/a	n/a	n/a
344641	PROB	n/a	LTP273	ltpFR	8	n/a	n/a	n/a	n/a	n/a	n/a	13	8	2	3	n/a	n/a	n/a	n/a	n/a
346013	PROB	n/a	LTP273	ltpFR	8	n/a	n/a	n/a	n/a	n/a	n/a	12	3	1	8	n/a	n/a	n/a	n/a	n/a
349559	STOP	n/a	LTP273	ltpFR	8	n/a	n/a	n/a	n/a	n/a	n/a	n/a	n/a	n/a	n/a	n/a	n/a	n/a	n/a	n/a
350513	WORD	wordpools/wasnorm_wordpool_less_exclusions.txt	LTP273	ltpFR	8	1	1	HAY	693	n/a	0	n/a	0	0	0	1	0.412841796875	0.57763671875	lower	../fonts/amplitud.ttf
353526	START	n/a	LTP273	ltpFR	8	n/a	n/a	n/a	n/a	n/a	n/a	n/a	n/a	n/a	n/a	n/a	n/a	n/a	n/a	n/a
354713	PROB	n/a	LTP273	ltpFR	8	n/a	n/a	n/a	n/a	n/a	n/a	15	8	4	3	n/a	n/a	n/a	n/a	n/a
356386	PROB	n/a	LTP273	ltpFR	8	n/a	n/a	n/a	n/a	n/a	n/a	24	9	9	6	n/a	n/a	n/a	n/a	n/a
359291	PROB	n/a	LTP273	ltpFR	8	n/a	n/a	n/a	n/a	n/a	n/a	13	2	6	5	n/a	n/a	n/a	n/a	n/a
360790	STOP	n/a	LTP273	ltpFR	8	n/a	n/a	n/a	n/a	n/a	n/a	n/a	n/a	n/a	n/a	n/a	n/a	n/a	n/a	n/a
362425	WORD	wordpools/wasnorm_wordpool_less_exclusions.txt	LTP273	ltpFR	8	1	1	PENGUIN	1044	n/a	1	n/a	0	0	0	1	0.412841796875	0.57763671875	lower	../fonts/amplitud.ttf
365437	START	n/a	LTP273	ltpFR	8	n/a	n/a	n/a	n/a	n/a	n/a	n/a	n/a	n/a	n/a	n/a	n/a	n/a	n/a	n/a
366607	PROB	n/a	LTP273	ltpFR	8	n/a	n/a	n/a	n/a	n/a	n/a	15	5	7	3	n/a	n/a	n/a	n/a	n/a
368408	PROB	n/a	LTP273	ltpFR	8	n/a	n/a	n/a	n/a	n/a	n/a	13	4	3	6	n/a	n/a	n/a	n/a	n/a
370132	PROB	n/a	LTP273	ltpFR	8	n/a	n/a	n/a	n/a	n/a	n/a	17	6	3	8	n/a	n/a	n/a	n/a	n/a
372190	STOP	n/a	LTP273	ltpFR	8	n/a	n/a	n/a	n/a	n/a	n/a	n/a	n/a	n/a	n/a	n/a	n/a	n/a	n/a	n/a
374565	WORD	wordpools/wasnorm_wordpool_less_exclusions.txt	LTP273	ltpFR	8	1	1	PERCH	1048	n/a	1	n/a	0	0	0	1	0.412841796875	0.57763671875	lower	../fonts/amplitud.ttf
377583	START	n/a	LTP273	ltpFR	8	n/a	n/a	n/a	n/a	n/a	n/a	n/a	n/a	n/a	n/a	n/a	n/a	n/a	n/a	n/a
378480	PROB	n/a	LTP273	ltpFR	8	n/a	n/a	n/a	n/a	n/a	n/a	27	9	9	9	n/a	n/a	n/a	n/a	n/a
382534	PROB	n/a	LTP273	ltpFR	8	n/a	n/a	n/a	n/a	n/a	n/a	19	6	6	7	n/a	n/a	n/a	n/a	n/a
385246	STOP	n/a	LTP273	ltpFR	8	n/a	n/a	n/a	n/a	n/a	n/a	n/a	n/a	n/a	n/a	n/a	n/a	n/a	n/a	n/a
386427	WORD	wordpools/wasnorm_wordpool_less_exclusions.txt	LTP273	ltpFR	8	1	1	ROBIN	1199	n/a	1	n/a	0	0	0	1	0.412841796875	0.57763671875	lower	../fonts/amplitud.ttf
389444	START	n/a	LTP273	ltpFR	8	n/a	n/a	n/a	n/a	n/a	n/a	n/a	n/a	n/a	n/a	n/a	n/a	n/a	n/a	n/a
390297	PROB	n/a	LTP273	ltpFR	8	n/a	n/a	n/a	n/a	n/a	n/a	12	3	1	8	n/a	n/a	n/a	n/a	n/a
391998	PROB	n/a	LTP273	ltpFR	8	n/a	n/a	n/a	n/a	n/a	n/a	12	3	8	1	n/a	n/a	n/a	n/a	n/a
397444	STOP	n/a	LTP273	ltpFR	8	n/a	n/a	n/a	n/a	n/a	n/a	n/a	n/a	n/a	n/a	n/a	n/a	n/a	n/a	n/a
398612	WORD	wordpools/wasnorm_wordpool_less_exclusions.txt	LTP273	ltpFR	8	1	1	SLIDE	1326	n/a	0	n/a	0	0	0	1	0.412841796875	0.57763671875	lower	../fonts/amplitud.ttf
401623	START	n/a	LTP273	ltpFR	8	n/a	n/a	n/a	n/a	n/a	n/a	n/a	n/a	n/a	n/a	n/a	n/a	n/a	n/a	n/a
402638	PROB	n/a	LTP273	ltpFR	8	n/a	n/a	n/a	n/a	n/a	n/a	15	4	3	8	n/a	n/a	n/a	n/a	n/a
404216	PROB	n/a	LTP273	ltpFR	8	n/a	n/a	n/a	n/a	n/a	n/a	17	7	7	3	n/a	n/a	n/a	n/a	n/a
406943	PROB	n/a	LTP273	ltpFR	8	n/a	n/a	n/a	n/a	n/a	n/a	9	3	2	4	n/a	n/a	n/a	n/a	n/a
408582	STOP	n/a	LTP273	ltpFR	8	n/a	n/a	n/a	n/a	n/a	n/a	n/a	n/a	n/a	n/a	n/a	n/a	n/a	n/a	n/a
410506	WORD	wordpools/wasnorm_wordpool_less_exclusions.txt	LTP273	ltpFR	8	1	0	HUT	729	n/a	0	n/a	0	0	0	0	0.5869140625	0.422607421875	upper	../fonts/zerothre.ttf
413518	START	n/a	LTP273	ltpFR	8	n/a	n/a	n/a	n/a	n/a	n/a	n/a	n/a	n/a	n/a	n/a	n/a	n/a	n/a	n/a
414572	PROB	n/a	LTP273	ltpFR	8	n/a	n/a	n/a	n/a	n/a	n/a	16	2	6	8	n/a	n/a	n/a	n/a	n/a
416490	PROB	n/a	LTP273	ltpFR	8	n/a	n/a	n/a	n/a	n/a	n/a	12	1	9	2	n/a	n/a	n/a	n/a	n/a
421518	STOP	n/a	LTP273	ltpFR	8	n/a	n/a	n/a	n/a	n/a	n/a	n/a	n/a	n/a	n/a	n/a	n/a	n/a	n/a	n/a
422702	WORD	wordpools/wasnorm_wordpool_less_exclusions.txt	LTP273	ltpFR	8	1	0	SUIT	1402	n/a	0	n/a	0	0	0	0	0.5869140625	0.422607421875	upper	../fonts/zerothre.ttf
425714	START	n/a	LTP273	ltpFR	8	n/a	n/a	n/a	n/a	n/a	n/a	n/a	n/a	n/a	n/a	n/a	n/a	n/a	n/a	n/a
426600	PROB	n/a	LTP273	ltpFR	8	n/a	n/a	n/a	n/a	n/a	n/a	14	5	2	7	n/a	n/a	n/a	n/a	n/a
429991	PROB	n/a	LTP273	ltpFR	8	n/a	n/a	n/a	n/a	n/a	n/a	21	7	9	6	n/a	n/a	n/a	n/a	n/a
432486	STOP	n/a	LTP273	ltpFR	8	n/a	n/a	n/a	n/a	n/a	n/a	n/a	n/a	n/a	n/a	n/a	n/a	n/a	n/a	n/a
434932	WORD	wordpools/wasnorm_wordpool_less_exclusions.txt	LTP273	ltpFR	8	1	0	WHEAT	1602	n/a	0	n/a	0	0	0	0	0.5869140625	0.422607421875	upper	../fonts/zerothre.ttf
437944	START	n/a	LTP273	ltpFR	8	n/a	n/a	n/a	n/a	n/a	n/a	n/a	n/a	n/a	n/a	n/a	n/a	n/a	n/a	n/a
439008	PROB	n/a	LTP273	ltpFR	8	n/a	n/a	n/a	n/a	n/a	n/a	11	3	2	6	n/a	n/a	n/a	n/a	n/a
440447	PROB	n/a	LTP273	ltpFR	8	n/a	n/a	n/a	n/a	n/a	n/a	10	3	4	4	n/a	n/a	n/a	n/a	n/a
442577	PROB	n/a	LTP273	ltpFR	8	n/a	n/a	n/a	n/a	n/a	n/a	17	8	6	3	n/a	n/a	n/a	n/a	n/a
445118	STOP	n/a	LTP273	ltpFR	8	n/a	n/a	n/a	n/a	n/a	n/a	n/a	n/a	n/a	n/a	n/a	n/a	n/a	n/a	n/a
446776	WORD	wordpools/wasnorm_wordpool_less_exclusions.txt	LTP273	ltpFR	8	1	0	COTTAGE	384	n/a	1	n/a	0	0	0	0	0.5869140625	0.422607421875	upper	../fonts/zerothre.ttf
449788	START	n/a	LTP273	ltpFR	8	n/a	n/a	n/a	n/a	n/a	n/a	n/a	n/a	n/a	n/a	n/a	n/a	n/a	n/a	n/a
450942	PROB	n/a	LTP273	ltpFR	8	n/a	n/a	n/a	n/a	n/a	n/a	15	7	7	1	n/a	n/a	n/a	n/a	n/a
452280	PROB	n/a	LTP273	ltpFR	8	n/a	n/a	n/a	n/a	n/a	n/a	13	2	4	7	n/a	n/a	n/a	n/a	n/a
457788	STOP	n/a	LTP273	ltpFR	8	n/a	n/a	n/a	n/a	n/a	n/a	n/a	n/a	n/a	n/a	n/a	n/a	n/a	n/a	n/a
458933	WORD	wordpools/wasnorm_wordpool_less_exclusions.txt	LTP273	ltpFR	8	1	1	POSTAGE	1113	n/a	0	n/a	0	0	0	1	0.412841796875	0.57763671875	lower	../fonts/amplitud.ttf
461951	START	n/a	LTP273	ltpFR	8	n/a	n/a	n/a	n/a	n/a	n/a	n/a	n/a	n/a	n/a	n/a	n/a	n/a	n/a	n/a
462781	PROB	n/a	LTP273	ltpFR	8	n/a	n/a	n/a	n/a	n/a	n/a	21	5	8	8	n/a	n/a	n/a	n/a	n/a
464990	PROB	n/a	LTP273	ltpFR	8	n/a	n/a	n/a	n/a	n/a	n/a	17	8	2	7	n/a	n/a	n/a	n/a	n/a
466450	PROB	n/a	LTP273	ltpFR	8	n/a	n/a	n/a	n/a	n/a	n/a	5	2	2	1	n/a	n/a	n/a	n/a	n/a
469950	STOP	n/a	LTP273	ltpFR	8	n/a	n/a	n/a	n/a	n/a	n/a	n/a	n/a	n/a	n/a	n/a	n/a	n/a	n/a	n/a
471096	WORD	wordpools/wasnorm_wordpool_less_exclusions.txt	LTP273	ltpFR	8	1	1	COUSIN	392	n/a	1	n/a	0	0	0	1	0.412841796875	0.57763671875	lower	../fonts/amplitud.ttf
474113	START	n/a	LTP273	ltpFR	8	n/a	n/a	n/a	n/a	n/a	n/a	n/a	n/a	n/a	n/a	n/a	n/a	n/a	n/a	n/a
475145	PROB	n/a	LTP273	ltpFR	8	n/a	n/a	n/a	n/a	n/a	n/a	16	3	4	9	n/a	n/a	n/a	n/a	n/a
478078	PROB	n/a	LTP273	ltpFR	8	n/a	n/a	n/a	n/a	n/a	n/a	17	4	5	8	n/a	n/a	n/a	n/a	n/a
479567	PROB	n/a	LTP273	ltpFR	8	n/a	n/a	n/a	n/a	n/a	n/a	10	2	7	1	n/a	n/a	n/a	n/a	n/a
481166	STOP	n/a	LTP273	ltpFR	8	n/a	n/a	n/a	n/a	n/a	n/a	n/a	n/a	n/a	n/a	n/a	n/a	n/a	n/a	n/a
483013	WORD	wordpools/wasnorm_wordpool_less_exclusions.txt	LTP273	ltpFR	8	1	0	PRINCE	1124	n/a	1	n/a	0	0	0	0	0.5869140625	0.422607421875	upper	../fonts/zerothre.ttf
486025	START	n/a	LTP273	ltpFR	8	n/a	n/a	n/a	n/a	n/a	n/a	n/a	n/a	n/a	n/a	n/a	n/a	n/a	n/a	n/a
487229	PROB	n/a	LTP273	ltpFR	8	n/a	n/a	n/a	n/a	n/a	n/a	12	6	3	3	n/a	n/a	n/a	n/a	n/a
489197	PROB	n/a	LTP273	ltpFR	8	n/a	n/a	n/a	n/a	n/a	n/a	10	1	5	4	n/a	n/a	n/a	n/a	n/a
491328	PROB	n/a	LTP273	ltpFR	8	n/a	n/a	n/a	n/a	n/a	n/a	11	2	5	4	n/a	n/a	n/a	n/a	n/a
493006	STOP	n/a	LTP273	ltpFR	8	n/a	n/a	n/a	n/a	n/a	n/a	n/a	n/a	n/a	n/a	n/a	n/a	n/a	n/a	n/a
495175	WORD	wordpools/wasnorm_wordpool_less_exclusions.txt	LTP273	ltpFR	8	1	0	BARLEY	88	n/a	1	n/a	0	0	0	0	0.5869140625	0.422607421875	upper	../fonts/zerothre.ttf
498188	START	n/a	LTP273	ltpFR	8	n/a	n/a	n/a	n/a	n/a	n/a	n/a	n/a	n/a	n/a	n/a	n/a	n/a	n/a	n/a
499258	PROB	n/a	LTP273	ltpFR	8	n/a	n/a	n/a	n/a	n/a	n/a	10	4	1	5	n/a	n/a	n/a	n/a	n/a
500908	PROB	n/a	LTP273	ltpFR	8	n/a	n/a	n/a	n/a	n/a	n/a	16	8	3	5	n/a	n/a	n/a	n/a	n/a
506187	STOP	n/a	LTP273	ltpFR	8	n/a	n/a	n/a	n/a	n/a	n/a	n/a	n/a	n/a	n/a	n/a	n/a	n/a	n/a	n/a
507254	WORD	wordpools/wasnorm_wordpool_less_exclusions.txt	LTP273	ltpFR	8	1	0	UNIFORM	1539	n/a	n/a	n/a	0	0	0	0	0.5869140625	0.422607421875	upper	../fonts/zerothre.ttf
510299	SLOW_MSG	n/a	LTP273	ltpFR	8	1	n/a	n/a	n/a	n/a	n/a	n/a	0	0	0	n/a	n/a	n/a	n/a	n/a
511833	START	n/a	LTP273	ltpFR	8	n/a	n/a	n/a	n/a	n/a	n/a	n/a	n/a	n/a	n/a	n/a	n/a	n/a	n/a	n/a
512842	PROB	n/a	LTP273	ltpFR	8	n/a	n/a	n/a	n/a	n/a	n/a	13	1	6	6	n/a	n/a	n/a	n/a	n/a
514850	PROB	n/a	LTP273	ltpFR	8	n/a	n/a	n/a	n/a	n/a	n/a	13	6	4	3	n/a	n/a	n/a	n/a	n/a
516333	PROB	n/a	LTP273	ltpFR	8	n/a	n/a	n/a	n/a	n/a	n/a	7	1	4	2	n/a	n/a	n/a	n/a	n/a
518286	STOP	n/a	LTP273	ltpFR	8	n/a	n/a	n/a	n/a	n/a	n/a	n/a	n/a	n/a	n/a	n/a	n/a	n/a	n/a	n/a
520772	WORD	wordpools/wasnorm_wordpool_less_exclusions.txt	LTP273	ltpFR	8	1	0	PATROL	1027	n/a	1	n/a	0	0	0	0	0.5869140625	0.422607421875	upper	../fonts/zerothre.ttf
523784	START	n/a	LTP273	ltpFR	8	n/a	n/a	n/a	n/a	n/a	n/a	n/a	n/a	n/a	n/a	n/a	n/a	n/a	n/a	n/a
524798	PROB	n/a	LTP273	ltpFR	8	n/a	n/a	n/a	n/a	n/a	n/a	16	6	4	6	n/a	n/a	n/a	n/a	n/a
527514	PROB	n/a	LTP273	ltpFR	8	n/a	n/a	n/a	n/a	n/a	n/a	17	9	5	3	n/a	n/a	n/a	n/a	n/a
529566	PROB	n/a	LTP273	ltpFR	8	n/a	n/a	n/a	n/a	n/a	n/a	13	3	1	9	n/a	n/a	n/a	n/a	n/a
531382	STOP	n/a	LTP273	ltpFR	8	n/a	n/a	n/a	n/a	n/a	n/a	n/a	n/a	n/a	n/a	n/a	n/a	n/a	n/a	n/a
533699	REC_START	n/a	LTP273	ltpFR	8	1	n/a	n/a	n/a	n/a	n/a	n/a	0	0	0	n/a	n/a	n/a	n/a	n/a
538173	REC_WORD	wordpools/wasnorm_wordpool_less_exclusions.txt	LTP273	ltpFR	8	1	0	WHEAT	1602	n/a	0	n/a	0	0	0	n/a	n/a	n/a	n/a	n/a
539276	REC_WORD	wordpools/wasnorm_wordpool_less_exclusions.txt	LTP273	ltpFR	8	1	0	BARLEY	88	n/a	1	n/a	0	0	0	n/a	n/a	n/a	n/a	n/a
540636	REC_WORD	wordpools/wasnorm_wordpool_less_exclusions.txt	LTP273	ltpFR	8	1	1	PERCH	1048	n/a	1	n/a	0	0	0	n/a	n/a	n/a	n/a	n/a
542400	REC_WORD_VV	wordpools/wasnorm_wordpool_less_exclusions.txt	LTP273	ltpFR	8	1	n/a	<>	-1	n/a	n/a	n/a	0	0	0	n/a	n/a	n/a	n/a	n/a
544503	REC_WORD	wordpools/wasnorm_wordpool_less_exclusions.txt	LTP273	ltpFR	8	1	0	SUIT	1402	n/a	0	n/a	0	0	0	n/a	n/a	n/a	n/a	n/a
549420	REC_WORD	wordpools/wasnorm_wordpool_less_exclusions.txt	LTP273	ltpFR	8	1	0	PRINCE	1124	n/a	1	n/a	0	0	0	n/a	n/a	n/a	n/a	n/a
562276	REC_WORD	wordpools/wasnorm_wordpool_less_exclusions.txt	LTP273	ltpFR	8	1	0	PATROL	1027	n/a	1	n/a	0	0	0	n/a	n/a	n/a	n/a	n/a
620158	WORD	wordpools/wasnorm_wordpool_less_exclusions.txt	LTP273	ltpFR	8	2	1	SWIMMER	1420	n/a	0	n/a	0	0	0	1	0.412841796875	0.57763671875	lower	../fonts/amplitud.ttf
624229	WORD	wordpools/wasnorm_wordpool_less_exclusions.txt	LTP273	ltpFR	8	2	1	WAVE	1596	n/a	0	n/a	0	0	0	1	0.412841796875	0.57763671875	lower	../fonts/amplitud.ttf
628405	WORD	wordpools/wasnorm_wordpool_less_exclusions.txt	LTP273	ltpFR	8	2	0	SENATOR	1268	n/a	1	n/a	0	0	0	0	0.5869140625	0.422607421875	upper	../fonts/zerothre.ttf
632408	WORD	wordpools/wasnorm_wordpool_less_exclusions.txt	LTP273	ltpFR	8	2	0	APRON	35	n/a	0	n/a	0	0	0	0	0.5869140625	0.422607421875	upper	../fonts/zerothre.ttf
636592	WORD	wordpools/wasnorm_wordpool_less_exclusions.txt	LTP273	ltpFR	8	2	0	ANCHOR	21	n/a	1	n/a	0	0	0	0	0.5869140625	0.422607421875	upper	../fonts/zerothre.ttf
640607	WORD	wordpools/wasnorm_wordpool_less_exclusions.txt	LTP273	ltpFR	8	2	0	PORT	1110	n/a	0	n/a	0	0	0	0	0.5869140625	0.422607421875	upper	../fonts/zerothre.ttf
644806	WORD	wordpools/wasnorm_wordpool_less_exclusions.txt	LTP273	ltpFR	8	2	1	KIWI	781	n/a	0	n/a	0	0	0	1	0.412841796875	0.57763671875	lower	../fonts/amplitud.ttf
648665	WORD	wordpools/wasnorm_wordpool_less_exclusions.txt	LTP273	ltpFR	8	2	1	HAWK	692	n/a	1	n/a	0	0	0	1	0.412841796875	0.57763671875	lower	../fonts/amplitud.ttf
652820	WORD	wordpools/wasnorm_wordpool_less_exclusions.txt	LTP273	ltpFR	8	2	1	COOKBOOK	373	n/a	0	n/a	0	0	0	1	0.412841796875	0.57763671875	lower	../fonts/amplitud.ttf
656969	WORD	wordpools/wasnorm_wordpool_less_exclusions.txt	LTP273	ltpFR	8	2	1	NIGHTGOWN	953	n/a	0	n/a	0	0	0	1	0.412841796875	0.57763671875	lower	../fonts/amplitud.ttf
661062	WORD	wordpools/wasnorm_wordpool_less_exclusions.txt	LTP273	ltpFR	8	2	0	VESSEL	1558	n/a	1	n/a	0	0	0	0	0.5869140625	0.422607421875	upper	../fonts/zerothre.ttf
664965	WORD	wordpools/wasnorm_wordpool_less_exclusions.txt	LTP273	ltpFR	8	2	0	GUITAR	670	n/a	1	n/a	0	0	0	0	0.5869140625	0.422607421875	upper	../fonts/zerothre.ttf
668841	WORD	wordpools/wasnorm_wordpool_less_exclusions.txt	LTP273	ltpFR	8	2	0	CONSOLE	364	n/a	1	n/a	0	0	0	0	0.5869140625	0.422607421875	upper	../fonts/zerothre.ttf
673040	WORD	wordpools/wasnorm_wordpool_less_exclusions.txt	LTP273	ltpFR	8	2	0	TURTLE	1522	n/a	0	n/a	0	0	0	0	0.5869140625	0.422607421875	upper	../fonts/zerothre.ttf
676877	WORD	wordpools/wasnorm_wordpool_less_exclusions.txt	LTP273	ltpFR	8	2	1	TORTOISE	1486	n/a	1	n/a	0	0	0	1	0.412841796875	0.57763671875	lower	../fonts/amplitud.ttf
680803	WORD	wordpools/wasnorm_wordpool_less_exclusions.txt	LTP273	ltpFR	8	2	1	TOWN	1491	n/a	0	n/a	0	0	0	1	0.412841796875	0.57763671875	lower	../fonts/amplitud.ttf
683820	START	n/a	LTP273	ltpFR	8	n/a	n/a	n/a	n/a	n/a	n/a	n/a	n/a	n/a	n/a	n/a	n/a	n/a	n/a	n/a
684818	PROB	n/a	LTP273	ltpFR	8	n/a	n/a	n/a	n/a	n/a	n/a	11	7	1	3	n/a	n/a	n/a	n/a	n/a
686831	PROB	n/a	LTP273	ltpFR	8	n/a	n/a	n/a	n/a	n/a	n/a	12	2	9	1	n/a	n/a	n/a	n/a	n/a
688789	PROB	n/a	LTP273	ltpFR	8	n/a	n/a	n/a	n/a	n/a	n/a	19	6	9	4	n/a	n/a	n/a	n/a	n/a
691820	STOP	n/a	LTP273	ltpFR	8	n/a	n/a	n/a	n/a	n/a	n/a	n/a	n/a	n/a	n/a	n/a	n/a	n/a	n/a	n/a
693669	REC_START	n/a	LTP273	ltpFR	8	2	n/a	n/a	n/a	n/a	n/a	n/a	0	0	0	n/a	n/a	n/a	n/a	n/a
694684	REC_WORD_VV	wordpools/wasnorm_wordpool_less_exclusions.txt	LTP273	ltpFR	8	2	n/a	<>	-1	n/a	n/a	n/a	0	0	0	n/a	n/a	n/a	n/a	n/a
695724	REC_WORD	wordpools/wasnorm_wordpool_less_exclusions.txt	LTP273	ltpFR	8	2	0	VESSEL	1558	n/a	1	n/a	0	0	0	n/a	n/a	n/a	n/a	n/a
697073	REC_WORD	wordpools/wasnorm_wordpool_less_exclusions.txt	LTP273	ltpFR	8	2	1	TORTOISE	1486	n/a	1	n/a	0	0	0	n/a	n/a	n/a	n/a	n/a
698089	REC_WORD_VV	wordpools/wasnorm_wordpool_less_exclusions.txt	LTP273	ltpFR	8	2	n/a	<>	-1	n/a	n/a	n/a	0	0	0	n/a	n/a	n/a	n/a	n/a
700151	REC_WORD	wordpools/wasnorm_wordpool_less_exclusions.txt	LTP273	ltpFR	8	2	1	TORTOISE	1486	n/a	1	n/a	0	0	0	n/a	n/a	n/a	n/a	n/a
701484	REC_WORD	wordpools/wasnorm_wordpool_less_exclusions.txt	LTP273	ltpFR	8	2	0	TURTLE	1522	n/a	0	n/a	0	0	0	n/a	n/a	n/a	n/a	n/a
704279	REC_WORD	wordpools/wasnorm_wordpool_less_exclusions.txt	LTP273	ltpFR	8	2	1	SWIMMER	1420	n/a	0	n/a	0	0	0	n/a	n/a	n/a	n/a	n/a
706201	REC_WORD	wordpools/wasnorm_wordpool_less_exclusions.txt	LTP273	ltpFR	8	2	1	WAVE	1596	n/a	0	n/a	0	0	0	n/a	n/a	n/a	n/a	n/a
717171	REC_WORD	wordpools/wasnorm_wordpool_less_exclusions.txt	LTP273	ltpFR	8	2	1	HAWK	692	n/a	1	n/a	0	0	0	n/a	n/a	n/a	n/a	n/a
723622	REC_WORD	wordpools/wasnorm_wordpool_less_exclusions.txt	LTP273	ltpFR	8	2	1	KIWI	781	n/a	0	n/a	0	0	0	n/a	n/a	n/a	n/a	n/a
732731	REC_WORD	wordpools/wasnorm_wordpool_less_exclusions.txt	LTP273	ltpFR	8	2	0	SENATOR	1268	n/a	1	n/a	0	0	0	n/a	n/a	n/a	n/a	n/a
735237	REC_WORD	wordpools/wasnorm_wordpool_less_exclusions.txt	LTP273	ltpFR	8	2	0	APRON	35	n/a	0	n/a	0	0	0	n/a	n/a	n/a	n/a	n/a
798630	WORD	wordpools/wasnorm_wordpool_less_exclusions.txt	LTP273	ltpFR	8	3	0	GANG	619	n/a	1	n/a	0	0	0	0	0.5869140625	0.422607421875	upper	../fonts/zerothre.ttf
802662	WORD	wordpools/wasnorm_wordpool_less_exclusions.txt	LTP273	ltpFR	8	3	0	GEM	629	n/a	0	n/a	0	0	0	0	0.5869140625	0.422607421875	upper	../fonts/zerothre.ttf
806800	WORD	wordpools/wasnorm_wordpool_less_exclusions.txt	LTP273	ltpFR	8	3	0	SENATE	1267	n/a	1	n/a	0	0	0	0	0.5869140625	0.422607421875	upper	../fonts/zerothre.ttf
810659	WORD	wordpools/wasnorm_wordpool_less_exclusions.txt	LTP273	ltpFR	8	3	0	PRAIRIE	1118	n/a	1	n/a	0	0	0	0	0.5869140625	0.422607421875	upper	../fonts/zerothre.ttf
814730	WORD	wordpools/wasnorm_wordpool_less_exclusions.txt	LTP273	ltpFR	8	3	0	CREATURE	403	n/a	1	n/a	0	0	0	0	0.5869140625	0.422607421875	upper	../fonts/zerothre.ttf
818628	WORD	wordpools/wasnorm_wordpool_less_exclusions.txt	LTP273	ltpFR	8	3	0	GALLON	618	n/a	1	n/a	0	0	0	0	0.5869140625	0.422607421875	upper	../fonts/zerothre.ttf
822794	WORD	wordpools/wasnorm_wordpool_less_exclusions.txt	LTP273	ltpFR	8	3	0	CARTON	251	n/a	0	n/a	0	0	0	0	0.5869140625	0.422607421875	upper	../fonts/zerothre.ttf
826893	WORD	wordpools/wasnorm_wordpool_less_exclusions.txt	LTP273	ltpFR	8	3	0	HINGE	709	n/a	0	n/a	0	0	0	0	0.5869140625	0.422607421875	upper	../fonts/zerothre.ttf
830902	WORD	wordpools/wasnorm_wordpool_less_exclusions.txt	LTP273	ltpFR	8	3	0	SIGN	1305	n/a	1	n/a	0	0	0	0	0.5869140625	0.422607421875	upper	../fonts/zerothre.ttf
835090	WORD	wordpools/wasnorm_wordpool_less_exclusions.txt	LTP273	ltpFR	8	3	0	BELL	118	n/a	0	n/a	0	0	0	0	0.5869140625	0.422607421875	upper	../fonts/zerothre.ttf
839038	WORD	wordpools/wasnorm_wordpool_less_exclusions.txt	LTP273	ltpFR	8	3	0	LINT	826	n/a	0	n/a	0	0	0	0	0.5869140625	0.422607421875	upper	../fonts/zerothre.ttf
843070	WORD	wordpools/wasnorm_wordpool_less_exclusions.txt	LTP273	ltpFR	8	3	0	VINE	1568	n/a	0	n/a	0	0	0	0	0.5869140625	0.422607421875	upper	../fonts/zerothre.ttf
846935	WORD	wordpools/wasnorm_wordpool_less_exclusions.txt	LTP273	ltpFR	8	3	0	CORK	380	n/a	0	n/a	0	0	0	0	0.5869140625	0.422607421875	upper	../fonts/zerothre.ttf
850766	WORD	wordpools/wasnorm_wordpool_less_exclusions.txt	LTP273	ltpFR	8	3	0	PARENT	1013	n/a	1	n/a	0	0	0	0	0.5869140625	0.422607421875	upper	../fonts/zerothre.ttf
854731	WORD	wordpools/wasnorm_wordpool_less_exclusions.txt	LTP273	ltpFR	8	3	0	ANIMAL	23	n/a	1	n/a	0	0	0	0	0.5869140625	0.422607421875	upper	../fonts/zerothre.ttf
858863	WORD	wordpools/wasnorm_wordpool_less_exclusions.txt	LTP273	ltpFR	8	3	0	FLANNEL	574	n/a	1	n/a	0	0	0	0	0.5869140625	0.422607421875	upper	../fonts/zerothre.ttf
861875	START	n/a	LTP273	ltpFR	8	n/a	n/a	n/a	n/a	n/a	n/a	n/a	n/a	n/a	n/a	n/a	n/a	n/a	n/a	n/a
862861	PROB	n/a	LTP273	ltpFR	8	n/a	n/a	n/a	n/a	n/a	n/a	10	6	3	1	n/a	n/a	n/a	n/a	n/a
864445	PROB	n/a	LTP273	ltpFR	8	n/a	n/a	n/a	n/a	n/a	n/a	11	1	5	5	n/a	n/a	n/a	n/a	n/a
865505	PROB	n/a	LTP273	ltpFR	8	n/a	n/a	n/a	n/a	n/a	n/a	13	4	9	1	n/a	n/a	n/a	n/a	n/a
869168	PROB	n/a	LTP273	ltpFR	8	n/a	n/a	n/a	n/a	n/a	n/a	20	2	9	9	n/a	n/a	n/a	n/a	n/a
871159	PROB	n/a	LTP273	ltpFR	8	n/a	n/a	n/a	n/a	n/a	n/a	13	7	1	5	n/a	n/a	n/a	n/a	n/a
873429	PROB	n/a	LTP273	ltpFR	8	n/a	n/a	n/a	n/a	n/a	n/a	16	3	9	4	n/a	n/a	n/a	n/a	n/a
875637	PROB	n/a	LTP273	ltpFR	8	n/a	n/a	n/a	n/a	n/a	n/a	17	5	5	7	n/a	n/a	n/a	n/a	n/a
876862	STOP	n/a	LTP273	ltpFR	8	n/a	n/a	n/a	n/a	n/a	n/a	n/a	n/a	n/a	n/a	n/a	n/a	n/a	n/a	n/a
879726	REC_START	n/a	LTP273	ltpFR	8	3	n/a	n/a	n/a	n/a	n/a	n/a	0	0	0	n/a	n/a	n/a	n/a	n/a
883183	REC_WORD	wordpools/wasnorm_wordpool_less_exclusions.txt	LTP273	ltpFR	8	3	0	VINE	1568	n/a	0	n/a	0	0	0	n/a	n/a	n/a	n/a	n/a
884242	REC_WORD	wordpools/wasnorm_wordpool_less_exclusions.txt	LTP273	ltpFR	8	3	0	SENATE	1267	n/a	1	n/a	0	0	0	n/a	n/a	n/a	n/a	n/a
886202	REC_WORD_VV	wordpools/wasnorm_wordpool_less_exclusions.txt	LTP273	ltpFR	8	3	n/a	<>	-1	n/a	n/a	n/a	0	0	0	n/a	n/a	n/a	n/a	n/a
886482	REC_WORD	wordpools/wasnorm_wordpool_less_exclusions.txt	LTP273	ltpFR	8	3	0	SENATE	1267	n/a	1	n/a	0	0	0	n/a	n/a	n/a	n/a	n/a
887629	REC_WORD	wordpools/wasnorm_wordpool_less_exclusions.txt	LTP273	ltpFR	8	3	0	HINGE	709	n/a	0	n/a	0	0	0	n/a	n/a	n/a	n/a	n/a
892261	REC_WORD	wordpools/wasnorm_wordpool_less_exclusions.txt	LTP273	ltpFR	8	3	0	GALLON	618	n/a	1	n/a	0	0	0	n/a	n/a	n/a	n/a	n/a
894008	REC_WORD	wordpools/wasnorm_wordpool_less_exclusions.txt	LTP273	ltpFR	8	3	0	CARTON	251	n/a	0	n/a	0	0	0	n/a	n/a	n/a	n/a	n/a
920565	REC_WORD	wordpools/wasnorm_wordpool_less_exclusions.txt	LTP273	ltpFR	8	3	0	SIGN	1305	n/a	1	n/a	0	0	0	n/a	n/a	n/a	n/a	n/a
988596	WORD	wordpools/wasnorm_wordpool_less_exclusions.txt	LTP273	ltpFR	8	4	1	SPATULA	1348	n/a	0	n/a	0	0	0	1	0.412841796875	0.57763671875	lower	../fonts/amplitud.ttf
992734	WORD	wordpools/wasnorm_wordpool_less_exclusions.txt	LTP273	ltpFR	8	4	1	SILVERWARE	1308	n/a	0	n/a	0	0	0	1	0.412841796875	0.57763671875	lower	../fonts/amplitud.ttf
996632	WORD	wordpools/wasnorm_wordpool_less_exclusions.txt	LTP273	ltpFR	8	4	1	KITCHEN	778	n/a	0	n/a	0	0	0	1	0.412841796875	0.57763671875	lower	../fonts/amplitud.ttf
1000608	WORD	wordpools/wasnorm_wordpool_less_exclusions.txt	LTP273	ltpFR	8	4	1	STORE	1387	n/a	0	n/a	0	0	0	1	0.412841796875	0.57763671875	lower	../fonts/amplitud.ttf
1004478	WORD	wordpools/wasnorm_wordpool_less_exclusions.txt	LTP273	ltpFR	8	4	1	DUCK	504	n/a	0	n/a	0	0	0	1	0.412841796875	0.57763671875	lower	../fonts/amplitud.ttf
1008494	WORD	wordpools/wasnorm_wordpool_less_exclusions.txt	LTP273	ltpFR	8	4	1	CAFE	216	n/a	0	n/a	0	0	0	1	0.412841796875	0.57763671875	lower	../fonts/amplitud.ttf
1012442	WORD	wordpools/wasnorm_wordpool_less_exclusions.txt	LTP273	ltpFR	8	4	1	WHEEL	1603	n/a	0	n/a	0	0	0	1	0.412841796875	0.57763671875	lower	../fonts/amplitud.ttf
1016602	WORD	wordpools/wasnorm_wordpool_less_exclusions.txt	LTP273	ltpFR	8	4	1	CUSTOMER	430	n/a	0	n/a	0	0	0	1	0.412841796875	0.57763671875	lower	../fonts/amplitud.ttf
1020807	WORD	wordpools/wasnorm_wordpool_less_exclusions.txt	LTP273	ltpFR	8	4	1	FROG	608	n/a	1	n/a	0	0	0	1	0.412841796875	0.57763671875	lower	../fonts/amplitud.ttf
1025017	WORD	wordpools/wasnorm_wordpool_less_exclusions.txt	LTP273	ltpFR	8	4	1	DESK	452	n/a	0	n/a	0	0	0	1	0.412841796875	0.57763671875	lower	../fonts/amplitud.ttf
1028965	WORD	wordpools/wasnorm_wordpool_less_exclusions.txt	LTP273	ltpFR	8	4	1	CHAIR	274	n/a	0	n/a	0	0	0	1	0.412841796875	0.57763671875	lower	../fonts/amplitud.ttf
1032802	WORD	wordpools/wasnorm_wordpool_less_exclusions.txt	LTP273	ltpFR	8	4	1	CHICKEN	297	n/a	1	n/a	0	0	0	1	0.412841796875	0.57763671875	lower	../fonts/amplitud.ttf
1036934	WORD	wordpools/wasnorm_wordpool_less_exclusions.txt	LTP273	ltpFR	8	4	1	CASHEW	253	n/a	0	n/a	0	0	0	1	0.412841796875	0.57763671875	lower	../fonts/amplitud.ttf
1040866	WORD	wordpools/wasnorm_wordpool_less_exclusions.txt	LTP273	ltpFR	8	4	1	CHAUFFEUR	283	n/a	1	n/a	0	0	0	1	0.412841796875	0.57763671875	lower	../fonts/amplitud.ttf
1044842	WORD	wordpools/wasnorm_wordpool_less_exclusions.txt	LTP273	ltpFR	8	4	1	KEEPER	769	n/a	0	n/a	0	0	0	1	0.412841796875	0.57763671875	lower	../fonts/amplitud.ttf
1049046	WORD	wordpools/wasnorm_wordpool_less_exclusions.txt	LTP273	ltpFR	8	4	1	CONTAINER	366	n/a	0	n/a	0	0	0	1	0.412841796875	0.57763671875	lower	../fonts/amplitud.ttf
1054881	REC_START	n/a	LTP273	ltpFR	8	4	n/a	n/a	n/a	n/a	n/a	n/a	0	0	0	n/a	n/a	n/a	n/a	n/a
1056719	REC_WORD	wordpools/wasnorm_wordpool_less_exclusions.txt	LTP273	ltpFR	8	4	1	KEEPER	769	n/a	0	n/a	0	0	0	n/a	n/a	n/a	n/a	n/a
1057494	REC_WORD	wordpools/wasnorm_wordpool_less_exclusions.txt	LTP273	ltpFR	8	4	1	CONTAINER	366	n/a	0	n/a	0	0	0	n/a	n/a	n/a	n/a	n/a
1058812	REC_WORD	wordpools/wasnorm_wordpool_less_exclusions.txt	LTP273	ltpFR	8	4	1	CHAUFFEUR	283	n/a	1	n/a	0	0	0	n/a	n/a	n/a	n/a	n/a
1060022	REC_WORD	wordpools/wasnorm_wordpool_less_exclusions.txt	LTP273	ltpFR	8	4	1	SILVERWARE	1308	n/a	0	n/a	0	0	0	n/a	n/a	n/a	n/a	n/a
1064501	REC_WORD	wordpools/wasnorm_wordpool_less_exclusions.txt	LTP273	ltpFR	8	4	1	CUSTOMER	430	n/a	0	n/a	0	0	0	n/a	n/a	n/a	n/a	n/a
1070273	REC_WORD	wordpools/wasnorm_wordpool_less_exclusions.txt	LTP273	ltpFR	8	4	1	CHAUFFEUR	283	n/a	1	n/a	0	0	0	n/a	n/a	n/a	n/a	n/a
1073952	REC_WORD	wordpools/wasnorm_wordpool_less_exclusions.txt	LTP273	ltpFR	8	4	1	DESK	452	n/a	0	n/a	0	0	0	n/a	n/a	n/a	n/a	n/a
1075402	REC_WORD	wordpools/wasnorm_wordpool_less_exclusions.txt	LTP273	ltpFR	8	4	1	KIWI	781	n/a	0	n/a	0	0	0	n/a	n/a	n/a	n/a	n/a
1094872	REC_WORD	wordpools/wasnorm_wordpool_less_exclusions.txt	LTP273	ltpFR	8	4	1	CASHEW	253	n/a	0	n/a	0	0	0	n/a	n/a	n/a	n/a	n/a
1120587	REC_WORD	wordpools/wasnorm_wordpool_less_exclusions.txt	LTP273	ltpFR	8	4	1	WHEEL	1603	n/a	0	n/a	0	0	0	n/a	n/a	n/a	n/a	n/a
1190262	START	n/a	LTP273	ltpFR	8	n/a	n/a	n/a	n/a	n/a	n/a	n/a	n/a	n/a	n/a	n/a	n/a	n/a	n/a	n/a
1191779	PROB	n/a	LTP273	ltpFR	8	n/a	n/a	n/a	n/a	n/a	n/a	13	3	7	3	n/a	n/a	n/a	n/a	n/a
1193206	PROB	n/a	LTP273	ltpFR	8	n/a	n/a	n/a	n/a	n/a	n/a	118	7	7	4	n/a	n/a	n/a	n/a	n/a
1195526	PROB	n/a	LTP273	ltpFR	8	n/a	n/a	n/a	n/a	n/a	n/a	9	2	5	2	n/a	n/a	n/a	n/a	n/a
1197774	STOP	n/a	LTP273	ltpFR	8	n/a	n/a	n/a	n/a	n/a	n/a	n/a	n/a	n/a	n/a	n/a	n/a	n/a	n/a	n/a
1199395	WORD	wordpools/wasnorm_wordpool_less_exclusions.txt	LTP273	ltpFR	8	5	0	SEAFOOD	1260	n/a	2	n/a	0	0	0	0	0.5869140625	0.422607421875	upper	../fonts/zerothre.ttf
1201655	KEY_MSG	n/a	LTP273	ltpFR	8	5	n/a	n/a	n/a	n/a	n/a	n/a	0	0	0	n/a	n/a	n/a	n/a	n/a
1203189	START	n/a	LTP273	ltpFR	8	n/a	n/a	n/a	n/a	n/a	n/a	n/a	n/a	n/a	n/a	n/a	n/a	n/a	n/a	n/a
1204382	PROB	n/a	LTP273	ltpFR	8	n/a	n/a	n/a	n/a	n/a	n/a	10	3	6	1	n/a	n/a	n/a	n/a	n/a
1206518	PROB	n/a	LTP273	ltpFR	8	n/a	n/a	n/a	n/a	n/a	n/a	13	1	7	3	n/a	n/a	n/a	n/a	n/a
1210182	STOP	n/a	LTP273	ltpFR	8	n/a	n/a	n/a	n/a	n/a	n/a	n/a	n/a	n/a	n/a	n/a	n/a	n/a	n/a	n/a
1212139	WORD	wordpools/wasnorm_wordpool_less_exclusions.txt	LTP273	ltpFR	8	5	0	SALAD	1224	n/a	0	n/a	0	0	0	0	0.5869140625	0.422607421875	upper	../fonts/zerothre.ttf
1215157	START	n/a	LTP273	ltpFR	8	n/a	n/a	n/a	n/a	n/a	n/a	n/a	n/a	n/a	n/a	n/a	n/a	n/a	n/a	n/a
1216070	PROB	n/a	LTP273	ltpFR	8	n/a	n/a	n/a	n/a	n/a	n/a	16	4	6	5	n/a	n/a	n/a	n/a	n/a
1217844	PROB	n/a	LTP273	ltpFR	8	n/a	n/a	n/a	n/a	n/a	n/a	5	2	1	2	n/a	n/a	n/a	n/a	n/a
1223157	STOP	n/a	LTP273	ltpFR	8	n/a	n/a	n/a	n/a	n/a	n/a	n/a	n/a	n/a	n/a	n/a	n/a	n/a	n/a	n/a
1224324	WORD	wordpools/wasnorm_wordpool_less_exclusions.txt	LTP273	ltpFR	8	5	0	CAPTAIN	239	n/a	1	n/a	0	0	0	0	0.5869140625	0.422607421875	upper	../fonts/zerothre.ttf
1227336	START	n/a	LTP273	ltpFR	8	n/a	n/a	n/a	n/a	n/a	n/a	n/a	n/a	n/a	n/a	n/a	n/a	n/a	n/a	n/a
1228389	PROB	n/a	LTP273	ltpFR	8	n/a	n/a	n/a	n/a	n/a	n/a	15	5	8	2	n/a	n/a	n/a	n/a	n/a
1230346	PROB	n/a	LTP273	ltpFR	8	n/a	n/a	n/a	n/a	n/a	n/a	12	3	3	8	n/a	n/a	n/a	n/a	n/a
1235336	STOP	n/a	LTP273	ltpFR	8	n/a	n/a	n/a	n/a	n/a	n/a	n/a	n/a	n/a	n/a	n/a	n/a	n/a	n/a	n/a
1236263	WORD	wordpools/wasnorm_wordpool_less_exclusions.txt	LTP273	ltpFR	8	5	1	PIRATE	1074	n/a	0	n/a	0	0	0	1	0.412841796875	0.57763671875	lower	../fonts/amplitud.ttf
1239281	START	n/a	LTP273	ltpFR	8	n/a	n/a	n/a	n/a	n/a	n/a	n/a	n/a	n/a	n/a	n/a	n/a	n/a	n/a	n/a
1240200	PROB	n/a	LTP273	ltpFR	8	n/a	n/a	n/a	n/a	n/a	n/a	9	3	4	2	n/a	n/a	n/a	n/a	n/a
1242392	PROB	n/a	LTP273	ltpFR	8	n/a	n/a	n/a	n/a	n/a	n/a	15	3	9	3	n/a	n/a	n/a	n/a	n/a
1244126	PROB	n/a	LTP273	ltpFR	8	n/a	n/a	n/a	n/a	n/a	n/a	18	8	7	3	n/a	n/a	n/a	n/a	n/a
1246102	STOP	n/a	LTP273	ltpFR	8	n/a	n/a	n/a	n/a	n/a	n/a	n/a	n/a	n/a	n/a	n/a	n/a	n/a	n/a	n/a
1248331	WORD	wordpools/wasnorm_wordpool_less_exclusions.txt	LTP273	ltpFR	8	5	1	MOUTH	926	n/a	0	n/a	0	0	0	1	0.412841796875	0.57763671875	lower	../fonts/amplitud.ttf
1251343	START	n/a	LTP273	ltpFR	8	n/a	n/a	n/a	n/a	n/a	n/a	n/a	n/a	n/a	n/a	n/a	n/a	n/a	n/a	n/a
1252313	PROB	n/a	LTP273	ltpFR	8	n/a	n/a	n/a	n/a	n/a	n/a	17	7	9	1	n/a	n/a	n/a	n/a	n/a
1254750	PROB	n/a	LTP273	ltpFR	8	n/a	n/a	n/a	n/a	n/a	n/a	13	9	2	2	n/a	n/a	n/a	n/a	n/a
1256562	PROB	n/a	LTP273	ltpFR	8	n/a	n/a	n/a	n/a	n/a	n/a	5	1	2	2	n/a	n/a	n/a	n/a	n/a
1257828	PROB	n/a	LTP273	ltpFR	8	n/a	n/a	n/a	n/a	n/a	n/a	19	8	9	2	n/a	n/a	n/a	n/a	n/a
1259174	STOP	n/a	LTP273	ltpFR	8	n/a	n/a	n/a	n/a	n/a	n/a	n/a	n/a	n/a	n/a	n/a	n/a	n/a	n/a	n/a
1260371	WORD	wordpools/wasnorm_wordpool_less_exclusions.txt	LTP273	ltpFR	8	5	1	BONE	148	n/a	0	n/a	0	0	0	1	0.412841796875	0.57763671875	lower	../fonts/amplitud.ttf
1263388	START	n/a	LTP273	ltpFR	8	n/a	n/a	n/a	n/a	n/a	n/a	n/a	n/a	n/a	n/a	n/a	n/a	n/a	n/a	n/a
1264603	PROB	n/a	LTP273	ltpFR	8	n/a	n/a	n/a	n/a	n/a	n/a	17	2	6	9	n/a	n/a	n/a	n/a	n/a
1266728	PROB	n/a	LTP273	ltpFR	8	n/a	n/a	n/a	n/a	n/a	n/a	10	3	2	5	n/a	n/a	n/a	n/a	n/a
1268434	PROB	n/a	LTP273	ltpFR	8	n/a	n/a	n/a	n/a	n/a	n/a	17	9	1	7	n/a	n/a	n/a	n/a	n/a
1269840	PROB	n/a	LTP273	ltpFR	8	n/a	n/a	n/a	n/a	n/a	n/a	13	2	8	3	n/a	n/a	n/a	n/a	n/a
1270950	STOP	n/a	LTP273	ltpFR	8	n/a	n/a	n/a	n/a	n/a	n/a	n/a	n/a	n/a	n/a	n/a	n/a	n/a	n/a	n/a
1272438	WORD	wordpools/wasnorm_wordpool_less_exclusions.txt	LTP273	ltpFR	8	5	1	POCKETBOOK	1094	n/a	0	n/a	0	0	0	1	0.412841796875	0.57763671875	lower	../fonts/amplitud.ttf
1275450	START	n/a	LTP273	ltpFR	8	n/a	n/a	n/a	n/a	n/a	n/a	n/a	n/a	n/a	n/a	n/a	n/a	n/a	n/a	n/a
1276638	PROB	n/a	LTP273	ltpFR	8	n/a	n/a	n/a	n/a	n/a	n/a	15	7	7	1	n/a	n/a	n/a	n/a	n/a
1277904	PROB	n/a	LTP273	ltpFR	8	n/a	n/a	n/a	n/a	n/a	n/a	15	5	7	3	n/a	n/a	n/a	n/a	n/a
1279197	PROB	n/a	LTP273	ltpFR	8	n/a	n/a	n/a	n/a	n/a	n/a	13	7	7	3	n/a	n/a	n/a	n/a	n/a
1283446	STOP	n/a	LTP273	ltpFR	8	n/a	n/a	n/a	n/a	n/a	n/a	n/a	n/a	n/a	n/a	n/a	n/a	n/a	n/a	n/a
1284668	WORD	wordpools/wasnorm_wordpool_less_exclusions.txt	LTP273	ltpFR	8	5	0	MONEY	908	n/a	0	n/a	0	0	0	0	0.5869140625	0.422607421875	upper	../fonts/zerothre.ttf
1287680	START	n/a	LTP273	ltpFR	8	n/a	n/a	n/a	n/a	n/a	n/a	n/a	n/a	n/a	n/a	n/a	n/a	n/a	n/a	n/a
1288700	PROB	n/a	LTP273	ltpFR	8	n/a	n/a	n/a	n/a	n/a	n/a	16	7	8	1	n/a	n/a	n/a	n/a	n/a
1291990	PROB	n/a	LTP273	ltpFR	8	n/a	n/a	n/a	n/a	n/a	n/a	14	3	6	5	n/a	n/a	n/a	n/a	n/a
1294198	STOP	n/a	LTP273	ltpFR	8	n/a	n/a	n/a	n/a	n/a	n/a	n/a	n/a	n/a	n/a	n/a	n/a	n/a	n/a	n/a
1296691	WORD	wordpools/wasnorm_wordpool_less_exclusions.txt	LTP273	ltpFR	8	5	0	SIDEWALK	1303	n/a	2	n/a	0	0	0	0	0.5869140625	0.422607421875	upper	../fonts/zerothre.ttf
1299239	KEY_MSG	n/a	LTP273	ltpFR	8	5	n/a	n/a	n/a	n/a	n/a	n/a	0	0	0	n/a	n/a	n/a	n/a	n/a
1300774	START	n/a	LTP273	ltpFR	8	n/a	n/a	n/a	n/a	n/a	n/a	n/a	n/a	n/a	n/a	n/a	n/a	n/a	n/a	n/a
1301849	PROB	n/a	LTP273	ltpFR	8	n/a	n/a	n/a	n/a	n/a	n/a	21	7	5	9	n/a	n/a	n/a	n/a	n/a
1305491	PROB	n/a	LTP273	ltpFR	8	n/a	n/a	n/a	n/a	n/a	n/a	8	6	1	1	n/a	n/a	n/a	n/a	n/a
1308774	STOP	n/a	LTP273	ltpFR	8	n/a	n/a	n/a	n/a	n/a	n/a	n/a	n/a	n/a	n/a	n/a	n/a	n/a	n/a	n/a
1309863	WORD	wordpools/wasnorm_wordpool_less_exclusions.txt	LTP273	ltpFR	8	5	0	RANCH	1166	n/a	n/a	n/a	0	0	0	0	0.5869140625	0.422607421875	upper	../fonts/zerothre.ttf
1312908	SLOW_MSG	n/a	LTP273	ltpFR	8	5	n/a	n/a	n/a	n/a	n/a	n/a	0	0	0	n/a	n/a	n/a	n/a	n/a
1314442	START	n/a	LTP273	ltpFR	8	n/a	n/a	n/a	n/a	n/a	n/a	n/a	n/a	n/a	n/a	n/a	n/a	n/a	n/a	n/a
1315450	PROB	n/a	LTP273	ltpFR	8	n/a	n/a	n/a	n/a	n/a	n/a	17	2	7	8	n/a	n/a	n/a	n/a	n/a
1318942	PROB	n/a	LTP273	ltpFR	8	n/a	n/a	n/a	n/a	n/a	n/a	20	6	6	7	n/a	n/a	n/a	n/a	n/a
1320902	STOP	n/a	LTP273	ltpFR	8	n/a	n/a	n/a	n/a	n/a	n/a	n/a	n/a	n/a	n/a	n/a	n/a	n/a	n/a	n/a
1323380	WORD	wordpools/wasnorm_wordpool_less_exclusions.txt	LTP273	ltpFR	8	5	0	SALMON	1227	n/a	n/a	n/a	0	0	0	0	0.5869140625	0.422607421875	upper	../fonts/zerothre.ttf
1326425	SLOW_MSG	n/a	LTP273	ltpFR	8	5	n/a	n/a	n/a	n/a	n/a	n/a	0	0	0	n/a	n/a	n/a	n/a	n/a
1327959	START	n/a	LTP273	ltpFR	8	n/a	n/a	n/a	n/a	n/a	n/a	n/a	n/a	n/a	n/a	n/a	n/a	n/a	n/a	n/a
1329152	PROB	n/a	LTP273	ltpFR	8	n/a	n/a	n/a	n/a	n/a	n/a	17	4	7	6	n/a	n/a	n/a	n/a	n/a
1331505	PROB	n/a	LTP273	ltpFR	8	n/a	n/a	n/a	n/a	n/a	n/a	20	5	9	6	n/a	n/a	n/a	n/a	n/a
1333664	PROB	n/a	LTP273	ltpFR	8	n/a	n/a	n/a	n/a	n/a	n/a	8	2	4	2	n/a	n/a	n/a	n/a	n/a
1335294	STOP	n/a	LTP273	ltpFR	8	n/a	n/a	n/a	n/a	n/a	n/a	n/a	n/a	n/a	n/a	n/a	n/a	n/a	n/a	n/a
1336965	WORD	wordpools/wasnorm_wordpool_less_exclusions.txt	LTP273	ltpFR	8	5	0	SCARF	1246	n/a	2	n/a	0	0	0	0	0.5869140625	0.422607421875	upper	../fonts/zerothre.ttf
1338805	KEY_MSG	n/a	LTP273	ltpFR	8	5	n/a	n/a	n/a	n/a	n/a	n/a	0	0	0	n/a	n/a	n/a	n/a	n/a
1340339	START	n/a	LTP273	ltpFR	8	n/a	n/a	n/a	n/a	n/a	n/a	n/a	n/a	n/a	n/a	n/a	n/a	n/a	n/a	n/a
1341393	PROB	n/a	LTP273	ltpFR	8	n/a	n/a	n/a	n/a	n/a	n/a	20	9	3	8	n/a	n/a	n/a	n/a	n/a
1344560	PROB	n/a	LTP273	ltpFR	8	n/a	n/a	n/a	n/a	n/a	n/a	17	8	1	8	n/a	n/a	n/a	n/a	n/a
1347614	STOP	n/a	LTP273	ltpFR	8	n/a	n/a	n/a	n/a	n/a	n/a	n/a	n/a	n/a	n/a	n/a	n/a	n/a	n/a	n/a
1349562	WORD	wordpools/wasnorm_wordpool_less_exclusions.txt	LTP273	ltpFR	8	5	1	TWEEZERS	1526	n/a	0	n/a	0	0	0	1	0.412841796875	0.57763671875	lower	../fonts/amplitud.ttf
1352575	START	n/a	LTP273	ltpFR	8	n/a	n/a	n/a	n/a	n/a	n/a	n/a	n/a	n/a	n/a	n/a	n/a	n/a	n/a	n/a
1353644	PROB	n/a	LTP273	ltpFR	8	n/a	n/a	n/a	n/a	n/a	n/a	9	4	4	1	n/a	n/a	n/a	n/a	n/a
1355234	PROB	n/a	LTP273	ltpFR	8	n/a	n/a	n/a	n/a	n/a	n/a	7	3	1	2	n/a	n/a	n/a	n/a	n/a
1357202	PROB	n/a	LTP273	ltpFR	8	n/a	n/a	n/a	n/a	n/a	n/a	20	9	5	6	n/a	n/a	n/a	n/a	n/a
1359806	STOP	n/a	LTP273	ltpFR	8	n/a	n/a	n/a	n/a	n/a	n/a	n/a	n/a	n/a	n/a	n/a	n/a	n/a	n/a	n/a
1361792	WORD	wordpools/wasnorm_wordpool_less_exclusions.txt	LTP273	ltpFR	8	5	1	MONUMENT	913	n/a	n/a	n/a	0	0	0	1	0.412841796875	0.57763671875	lower	../fonts/amplitud.ttf
1364837	SLOW_MSG	n/a	LTP273	ltpFR	8	5	n/a	n/a	n/a	n/a	n/a	n/a	0	0	0	n/a	n/a	n/a	n/a	n/a
1366371	START	n/a	LTP273	ltpFR	8	n/a	n/a	n/a	n/a	n/a	n/a	n/a	n/a	n/a	n/a	n/a	n/a	n/a	n/a	n/a
1367530	PROB	n/a	LTP273	ltpFR	8	n/a	n/a	n/a	n/a	n/a	n/a	23	7	9	6	n/a	n/a	n/a	n/a	n/a
1371344	PROB	n/a	LTP273	ltpFR	8	n/a	n/a	n/a	n/a	n/a	n/a	10	2	5	8	n/a	n/a	n/a	n/a	n/a
1373814	STOP	n/a	LTP273	ltpFR	8	n/a	n/a	n/a	n/a	n/a	n/a	n/a	n/a	n/a	n/a	n/a	n/a	n/a	n/a	n/a
1375271	WORD	wordpools/wasnorm_wordpool_less_exclusions.txt	LTP273	ltpFR	8	5	1	POLITICIAN	1099	n/a	1	n/a	0	0	0	1	0.412841796875	0.57763671875	lower	../fonts/amplitud.ttf
1378288	START	n/a	LTP273	ltpFR	8	n/a	n/a	n/a	n/a	n/a	n/a	n/a	n/a	n/a	n/a	n/a	n/a	n/a	n/a	n/a
1379135	PROB	n/a	LTP273	ltpFR	8	n/a	n/a	n/a	n/a	n/a	n/a	9	1	4	4	n/a	n/a	n/a	n/a	n/a
1380825	PROB	n/a	LTP273	ltpFR	8	n/a	n/a	n/a	n/a	n/a	n/a	14	8	5	1	n/a	n/a	n/a	n/a	n/a
1382765	PROB	n/a	LTP273	ltpFR	8	n/a	n/a	n/a	n/a	n/a	n/a	14	5	1	8	n/a	n/a	n/a	n/a	n/a
1384438	PROB	n/a	LTP273	ltpFR	8	n/a	n/a	n/a	n/a	n/a	n/a	11	4	1	6	n/a	n/a	n/a	n/a	n/a
1385862	STOP	n/a	LTP273	ltpFR	8	n/a	n/a	n/a	n/a	n/a	n/a	n/a	n/a	n/a	n/a	n/a	n/a	n/a	n/a	n/a
1387455	WORD	wordpools/wasnorm_wordpool_less_exclusions.txt	LTP273	ltpFR	8	5	1	MULE	931	n/a	1	n/a	0	0	0	1	0.412841796875	0.57763671875	lower	../fonts/amplitud.ttf
1390467	START	n/a	LTP273	ltpFR	8	n/a	n/a	n/a	n/a	n/a	n/a	n/a	n/a	n/a	n/a	n/a	n/a	n/a	n/a	n/a
1391370	PROB	n/a	LTP273	ltpFR	8	n/a	n/a	n/a	n/a	n/a	n/a	15	6	1	8	n/a	n/a	n/a	n/a	n/a
1393757	PROB	n/a	LTP273	ltpFR	8	n/a	n/a	n/a	n/a	n/a	n/a	11	6	1	4	n/a	n/a	n/a	n/a	n/a
1395368	PROB	n/a	LTP273	ltpFR	8	n/a	n/a	n/a	n/a	n/a	n/a	17	4	9	4	n/a	n/a	n/a	n/a	n/a
1397182	STOP	n/a	LTP273	ltpFR	8	n/a	n/a	n/a	n/a	n/a	n/a	n/a	n/a	n/a	n/a	n/a	n/a	n/a	n/a	n/a
1400237	REC_START	n/a	LTP273	ltpFR	8	5	n/a	n/a	n/a	n/a	n/a	n/a	0	0	0	n/a	n/a	n/a	n/a	n/a
1407690	REC_WORD_VV	wordpools/wasnorm_wordpool_less_exclusions.txt	LTP273	ltpFR	8	5	n/a	<>	-1	n/a	n/a	n/a	0	0	0	n/a	n/a	n/a	n/a	n/a
1408231	REC_WORD_VV	wordpools/wasnorm_wordpool_less_exclusions.txt	LTP273	ltpFR	8	5	n/a	<>	-1	n/a	n/a	n/a	0	0	0	n/a	n/a	n/a	n/a	n/a
1408852	REC_WORD	wordpools/wasnorm_wordpool_less_exclusions.txt	LTP273	ltpFR	8	5	1	POLITICIAN	1099	n/a	1	n/a	0	0	0	n/a	n/a	n/a	n/a	n/a
1410933	REC_WORD	wordpools/wasnorm_wordpool_less_exclusions.txt	LTP273	ltpFR	8	5	1	TWEEZERS	1526	n/a	0	n/a	0	0	0	n/a	n/a	n/a	n/a	n/a
1499622	WORD	wordpools/wasnorm_wordpool_less_exclusions.txt	LTP273	ltpFR	8	6	0	PIGMENT	1066	n/a	0	n/a	0	0	0	0	0.5869140625	0.422607421875	upper	../fonts/zerothre.ttf
1503476	WORD	wordpools/wasnorm_wordpool_less_exclusions.txt	LTP273	ltpFR	8	6	0	PIKE	1067	n/a	1	n/a	0	0	0	0	0.5869140625	0.422607421875	upper	../fonts/zerothre.ttf
1507374	WORD	wordpools/wasnorm_wordpool_less_exclusions.txt	LTP273	ltpFR	8	6	1	COMMUNITY	356	n/a	1	n/a	0	0	0	1	0.412841796875	0.57763671875	lower	../fonts/amplitud.ttf
1511222	WORD	wordpools/wasnorm_wordpool_less_exclusions.txt	LTP273	ltpFR	8	6	1	GUEST	669	n/a	1	n/a	0	0	0	1	0.412841796875	0.57763671875	lower	../fonts/amplitud.ttf
1515203	WORD	wordpools/wasnorm_wordpool_less_exclusions.txt	LTP273	ltpFR	8	6	1	ICEBERG	731	n/a	0	n/a	0	0	0	1	0.412841796875	0.57763671875	lower	../fonts/amplitud.ttf
1519386	WORD	wordpools/wasnorm_wordpool_less_exclusions.txt	LTP273	ltpFR	8	6	0	NEST	945	n/a	0	n/a	0	0	0	0	0.5869140625	0.422607421875	upper	../fonts/zerothre.ttf
1523329	WORD	wordpools/wasnorm_wordpool_less_exclusions.txt	LTP273	ltpFR	8	6	0	CASHIER	254	n/a	1	n/a	0	0	0	0	0.5869140625	0.422607421875	upper	../fonts/zerothre.ttf
1527449	WORD	wordpools/wasnorm_wordpool_less_exclusions.txt	LTP273	ltpFR	8	6	0	SWEATER	1419	n/a	0	n/a	0	0	0	0	0.5869140625	0.422607421875	upper	../fonts/zerothre.ttf
1531509	WORD	wordpools/wasnorm_wordpool_less_exclusions.txt	LTP273	ltpFR	8	6	1	DEPARTMENT	449	n/a	0	n/a	0	0	0	1	0.412841796875	0.57763671875	lower	../fonts/amplitud.ttf
1535480	WORD	wordpools/wasnorm_wordpool_less_exclusions.txt	LTP273	ltpFR	8	6	1	CLERK	321	n/a	1	n/a	0	0	0	1	0.412841796875	0.57763671875	lower	../fonts/amplitud.ttf
1539679	WORD	wordpools/wasnorm_wordpool_less_exclusions.txt	LTP273	ltpFR	8	6	1	WEED	1599	n/a	0	n/a	0	0	0	1	0.412841796875	0.57763671875	lower	../fonts/amplitud.ttf
1543588	WORD	wordpools/wasnorm_wordpool_less_exclusions.txt	LTP273	ltpFR	8	6	1	BOYFRIEND	162	n/a	0	n/a	0	0	0	1	0.412841796875	0.57763671875	lower	../fonts/amplitud.ttf
1547793	WORD	wordpools/wasnorm_wordpool_less_exclusions.txt	LTP273	ltpFR	8	6	1	SHIP	1286	n/a	1	n/a	0	0	0	1	0.412841796875	0.57763671875	lower	../fonts/amplitud.ttf
1551786	WORD	wordpools/wasnorm_wordpool_less_exclusions.txt	LTP273	ltpFR	8	6	0	DECK	443	n/a	0	n/a	0	0	0	0	0.5869140625	0.422607421875	upper	../fonts/zerothre.ttf
1555739	WORD	wordpools/wasnorm_wordpool_less_exclusions.txt	LTP273	ltpFR	8	6	0	ATTIC	56	n/a	1	n/a	0	0	0	0	0.5869140625	0.422607421875	upper	../fonts/zerothre.ttf
1559905	WORD	wordpools/wasnorm_wordpool_less_exclusions.txt	LTP273	ltpFR	8	6	0	PENNY	1045	n/a	0	n/a	0	0	0	0	0.5869140625	0.422607421875	upper	../fonts/zerothre.ttf
1562917	START	n/a	LTP273	ltpFR	8	n/a	n/a	n/a	n/a	n/a	n/a	n/a	n/a	n/a	n/a	n/a	n/a	n/a	n/a	n/a
1563770	PROB	n/a	LTP273	ltpFR	8	n/a	n/a	n/a	n/a	n/a	n/a	11	1	1	9	n/a	n/a	n/a	n/a	n/a
1566095	PROB	n/a	LTP273	ltpFR	8	n/a	n/a	n/a	n/a	n/a	n/a	13	8	1	4	n/a	n/a	n/a	n/a	n/a
1569982	STOP	n/a	LTP273	ltpFR	8	n/a	n/a	n/a	n/a	n/a	n/a	n/a	n/a	n/a	n/a	n/a	n/a	n/a	n/a	n/a
1572855	REC_START	n/a	LTP273	ltpFR	8	6	n/a	n/a	n/a	n/a	n/a	n/a	0	0	0	n/a	n/a	n/a	n/a	n/a
1574802	REC_WORD	wordpools/wasnorm_wordpool_less_exclusions.txt	LTP273	ltpFR	8	6	0	DECK	443	n/a	0	n/a	0	0	0	n/a	n/a	n/a	n/a	n/a
1589437	REC_WORD	wordpools/wasnorm_wordpool_less_exclusions.txt	LTP273	ltpFR	8	6	1	WEED	1599	n/a	0	n/a	0	0	0	n/a	n/a	n/a	n/a	n/a
1598648	REC_WORD	wordpools/wasnorm_wordpool_less_exclusions.txt	LTP273	ltpFR	8	6	1	SHIP	1286	n/a	1	n/a	0	0	0	n/a	n/a	n/a	n/a	n/a
1648506	REST_REWET	n/a	LTP273	ltpFR	8	6	n/a	n/a	n/a	n/a	n/a	n/a	0	0	0	n/a	n/a	n/a	n/a	n/a
1847088	START	n/a	LTP273	ltpFR	8	n/a	n/a	n/a	n/a	n/a	n/a	n/a	n/a	n/a	n/a	n/a	n/a	n/a	n/a	n/a
1848605	PROB	n/a	LTP273	ltpFR	8	n/a	n/a	n/a	n/a	n/a	n/a	12	3	5	4	n/a	n/a	n/a	n/a	n/a
1850696	PROB	n/a	LTP273	ltpFR	8	n/a	n/a	n/a	n/a	n/a	n/a	13	3	3	7	n/a	n/a	n/a	n/a	n/a
1852703	PROB	n/a	LTP273	ltpFR	8	n/a	n/a	n/a	n/a	n/a	n/a	15	4	9	2	n/a	n/a	n/a	n/a	n/a
1854376	PROB	n/a	LTP273	ltpFR	8	n/a	n/a	n/a	n/a	n/a	n/a	11	6	2	3	n/a	n/a	n/a	n/a	n/a
1857237	PROB	n/a	LTP273	ltpFR	8	n/a	n/a	n/a	n/a	n/a	n/a	8	3	4	1	n/a	n/a	n/a	n/a	n/a
1860103	PROB	n/a	LTP273	ltpFR	8	n/a	n/a	n/a	n/a	n/a	n/a	11	1	3	7	n/a	n/a	n/a	n/a	n/a
1861442	PROB	n/a	LTP273	ltpFR	8	n/a	n/a	n/a	n/a	n/a	n/a	14	6	2	6	n/a	n/a	n/a	n/a	n/a
1863054	STOP	n/a	LTP273	ltpFR	8	n/a	n/a	n/a	n/a	n/a	n/a	n/a	n/a	n/a	n/a	n/a	n/a	n/a	n/a	n/a
1863934	WORD	wordpools/wasnorm_wordpool_less_exclusions.txt	LTP273	ltpFR	8	7	0	CHIPMUNK	304	n/a	0	n/a	0	0	0	0	0.5869140625	0.422607421875	upper	../fonts/zerothre.ttf
1866946	START	n/a	LTP273	ltpFR	8	n/a	n/a	n/a	n/a	n/a	n/a	n/a	n/a	n/a	n/a	n/a	n/a	n/a	n/a	n/a
1868100	PROB	n/a	LTP273	ltpFR	8	n/a	n/a	n/a	n/a	n/a	n/a	12	5	5	2	n/a	n/a	n/a	n/a	n/a
1869416	PROB	n/a	LTP273	ltpFR	8	n/a	n/a	n/a	n/a	n/a	n/a	8	2	4	2	n/a	n/a	n/a	n/a	n/a
1872762	PROB	n/a	LTP273	ltpFR	8	n/a	n/a	n/a	n/a	n/a	n/a	12	9	1	2	n/a	n/a	n/a	n/a	n/a
1874909	PROB	n/a	LTP273	ltpFR	8	n/a	n/a	n/a	n/a	n/a	n/a	14	9	5	3	n/a	n/a	n/a	n/a	n/a
1876582	PROB	n/a	LTP273	ltpFR	8	n/a	n/a	n/a	n/a	n/a	n/a	14	4	6	4	n/a	n/a	n/a	n/a	n/a
1878116	PROB	n/a	LTP273	ltpFR	8	n/a	n/a	n/a	n/a	n/a	n/a	12	3	4	2	n/a	n/a	n/a	n/a	n/a
1882945	STOP	n/a	LTP273	ltpFR	8	n/a	n/a	n/a	n/a	n/a	n/a	n/a	n/a	n/a	n/a	n/a	n/a	n/a	n/a	n/a
1884010	WORD	wordpools/wasnorm_wordpool_less_exclusions.txt	LTP273	ltpFR	8	7	0	COBBLER	335	n/a	0	n/a	0	0	0	0	0.5869140625	0.422607421875	upper	../fonts/zerothre.ttf
1887022	START	n/a	LTP273	ltpFR	8	n/a	n/a	n/a	n/a	n/a	n/a	n/a	n/a	n/a	n/a	n/a	n/a	n/a	n/a	n/a
1887841	PROB	n/a	LTP273	ltpFR	8	n/a	n/a	n/a	n/a	n/a	n/a	8	6	1	1	n/a	n/a	n/a	n/a	n/a
1889442	PROB	n/a	LTP273	ltpFR	8	n/a	n/a	n/a	n/a	n/a	n/a	16	2	5	9	n/a	n/a	n/a	n/a	n/a
1892888	PROB	n/a	LTP273	ltpFR	8	n/a	n/a	n/a	n/a	n/a	n/a	14	3	2	9	n/a	n/a	n/a	n/a	n/a
1894695	PROB	n/a	LTP273	ltpFR	8	n/a	n/a	n/a	n/a	n/a	n/a	19	3	7	9	n/a	n/a	n/a	n/a	n/a
1896306	PROB	n/a	LTP273	ltpFR	8	n/a	n/a	n/a	n/a	n/a	n/a	11	8	1	2	n/a	n/a	n/a	n/a	n/a
1897979	PROB	n/a	LTP273	ltpFR	8	n/a	n/a	n/a	n/a	n/a	n/a	19	8	7	4	n/a	n/a	n/a	n/a	n/a
1900366	PROB	n/a	LTP273	ltpFR	8	n/a	n/a	n/a	n/a	n/a	n/a	15	6	5	4	n/a	n/a	n/a	n/a	n/a
1902510	STOP	n/a	LTP273	ltpFR	8	n/a	n/a	n/a	n/a	n/a	n/a	n/a	n/a	n/a	n/a	n/a	n/a	n/a	n/a	n/a
1904214	WORD	wordpools/wasnorm_wordpool_less_exclusions.txt	LTP273	ltpFR	8	7	0	PEAR	1033	n/a	0	n/a	0	0	0	0	0.5869140625	0.422607421875	upper	../fonts/zerothre.ttf
1907231	START	n/a	LTP273	ltpFR	8	n/a	n/a	n/a	n/a	n/a	n/a	n/a	n/a	n/a	n/a	n/a	n/a	n/a	n/a	n/a
1908212	PROB	n/a	LTP273	ltpFR	8	n/a	n/a	n/a	n/a	n/a	n/a	23	9	5	9	n/a	n/a	n/a	n/a	n/a
1912746	PROB	n/a	LTP273	ltpFR	8	n/a	n/a	n/a	n/a	n/a	n/a	17	9	5	3	n/a	n/a	n/a	n/a	n/a
1915060	PROB	n/a	LTP273	ltpFR	8	n/a	n/a	n/a	n/a	n/a	n/a	19	3	8	8	n/a	n/a	n/a	n/a	n/a
1917587	PROB	n/a	LTP273	ltpFR	8	n/a	n/a	n/a	n/a	n/a	n/a	19	4	9	6	n/a	n/a	n/a	n/a	n/a
1919455	PROB	n/a	LTP273	ltpFR	8	n/a	n/a	n/a	n/a	n/a	n/a	12	5	5	2	n/a	n/a	n/a	n/a	n/a
1920726	PROB	n/a	LTP273	ltpFR	8	n/a	n/a	n/a	n/a	n/a	n/a	10	1	5	4	n/a	n/a	n/a	n/a	n/a
1922686	STOP	n/a	LTP273	ltpFR	8	n/a	n/a	n/a	n/a	n/a	n/a	n/a	n/a	n/a	n/a	n/a	n/a	n/a	n/a	n/a
1924429	WORD	wordpools/wasnorm_wordpool_less_exclusions.txt	LTP273	ltpFR	8	7	0	ENCYCLOPEDIA	533	n/a	1	n/a	0	0	0	0	0.5869140625	0.422607421875	upper	../fonts/zerothre.ttf
1927441	START	n/a	LTP273	ltpFR	8	n/a	n/a	n/a	n/a	n/a	n/a	n/a	n/a	n/a	n/a	n/a	n/a	n/a	n/a	n/a
1928494	PROB	n/a	LTP273	ltpFR	8	n/a	n/a	n/a	n/a	n/a	n/a	11	6	4	1	n/a	n/a	n/a	n/a	n/a
1930553	PROB	n/a	LTP273	ltpFR	8	n/a	n/a	n/a	n/a	n/a	n/a	13	5	1	7	n/a	n/a	n/a	n/a	n/a
1932136	PROB	n/a	LTP273	ltpFR	8	n/a	n/a	n/a	n/a	n/a	n/a	21	9	5	8	n/a	n/a	n/a	n/a	n/a
1935203	PROB	n/a	LTP273	ltpFR	8	n/a	n/a	n/a	n/a	n/a	n/a	9	2	6	1	n/a	n/a	n/a	n/a	n/a
1938783	PROB	n/a	LTP273	ltpFR	8	n/a	n/a	n/a	n/a	n/a	n/a	13	3	6	4	n/a	n/a	n/a	n/a	n/a
1940233	PROB	n/a	LTP273	ltpFR	8	n/a	n/a	n/a	n/a	n/a	n/a	12	1	2	9	n/a	n/a	n/a	n/a	n/a
1941828	PROB	n/a	LTP273	ltpFR	8	n/a	n/a	n/a	n/a	n/a	n/a	16	3	6	7	n/a	n/a	n/a	n/a	n/a
1943294	STOP	n/a	LTP273	ltpFR	8	n/a	n/a	n/a	n/a	n/a	n/a	n/a	n/a	n/a	n/a	n/a	n/a	n/a	n/a	n/a
1944382	WORD	wordpools/wasnorm_wordpool_less_exclusions.txt	LTP273	ltpFR	8	7	0	PECAN	1036	n/a	0	n/a	0	0	0	0	0.5869140625	0.422607421875	upper	../fonts/zerothre.ttf
1947398	START	n/a	LTP273	ltpFR	8	n/a	n/a	n/a	n/a	n/a	n/a	n/a	n/a	n/a	n/a	n/a	n/a	n/a	n/a	n/a
1948286	PROB	n/a	LTP273	ltpFR	8	n/a	n/a	n/a	n/a	n/a	n/a	5	2	1	2	n/a	n/a	n/a	n/a	n/a
1949485	PROB	n/a	LTP273	ltpFR	8	n/a	n/a	n/a	n/a	n/a	n/a	18	5	6	7	n/a	n/a	n/a	n/a	n/a
1953422	PROB	n/a	LTP273	ltpFR	8	n/a	n/a	n/a	n/a	n/a	n/a	16	6	1	9	n/a	n/a	n/a	n/a	n/a
1955742	PROB	n/a	LTP273	ltpFR	8	n/a	n/a	n/a	n/a	n/a	n/a	10	5	4	1	n/a	n/a	n/a	n/a	n/a
1957097	PROB	n/a	LTP273	ltpFR	8	n/a	n/a	n/a	n/a	n/a	n/a	19	6	5	8	n/a	n/a	n/a	n/a	n/a
1959071	PROB	n/a	LTP273	ltpFR	8	n/a	n/a	n/a	n/a	n/a	n/a	12	3	4	5	n/a	n/a	n/a	n/a	n/a
1960794	PROB	n/a	LTP273	ltpFR	8	n/a	n/a	n/a	n/a	n/a	n/a	20	7	5	8	n/a	n/a	n/a	n/a	n/a
1962830	STOP	n/a	LTP273	ltpFR	8	n/a	n/a	n/a	n/a	n/a	n/a	n/a	n/a	n/a	n/a	n/a	n/a	n/a	n/a	n/a
1964525	WORD	wordpools/wasnorm_wordpool_less_exclusions.txt	LTP273	ltpFR	8	7	0	MUSHROOM	934	n/a	0	n/a	0	0	0	0	0.5869140625	0.422607421875	upper	../fonts/zerothre.ttf
1967542	START	n/a	LTP273	ltpFR	8	n/a	n/a	n/a	n/a	n/a	n/a	n/a	n/a	n/a	n/a	n/a	n/a	n/a	n/a	n/a
1968707	PROB	n/a	LTP273	ltpFR	8	n/a	n/a	n/a	n/a	n/a	n/a	9	1	1	7	n/a	n/a	n/a	n/a	n/a
1970436	PROB	n/a	LTP273	ltpFR	8	n/a	n/a	n/a	n/a	n/a	n/a	11	1	9	1	n/a	n/a	n/a	n/a	n/a
1971925	PROB	n/a	LTP273	ltpFR	8	n/a	n/a	n/a	n/a	n/a	n/a	18	8	5	5	n/a	n/a	n/a	n/a	n/a
1974033	PROB	n/a	LTP273	ltpFR	8	n/a	n/a	n/a	n/a	n/a	n/a	13	7	2	4	n/a	n/a	n/a	n/a	n/a
1976743	PROB	n/a	LTP273	ltpFR	8	n/a	n/a	n/a	n/a	n/a	n/a	17	3	8	6	n/a	n/a	n/a	n/a	n/a
1978678	PROB	n/a	LTP273	ltpFR	8	n/a	n/a	n/a	n/a	n/a	n/a	12	2	1	9	n/a	n/a	n/a	n/a	n/a
1980184	PROB	n/a	LTP273	ltpFR	8	n/a	n/a	n/a	n/a	n/a	n/a	7	4	2	1	n/a	n/a	n/a	n/a	n/a
1982566	STOP	n/a	LTP273	ltpFR	8	n/a	n/a	n/a	n/a	n/a	n/a	n/a	n/a	n/a	n/a	n/a	n/a	n/a	n/a	n/a
1984656	WORD	wordpools/wasnorm_wordpool_less_exclusions.txt	LTP273	ltpFR	8	7	0	DINER	467	n/a	1	n/a	0	0	0	0	0.5869140625	0.422607421875	upper	../fonts/zerothre.ttf
1987668	START	n/a	LTP273	ltpFR	8	n/a	n/a	n/a	n/a	n/a	n/a	n/a	n/a	n/a	n/a	n/a	n/a	n/a	n/a	n/a
1988638	PROB	n/a	LTP273	ltpFR	8	n/a	n/a	n/a	n/a	n/a	n/a	13	1	7	5	n/a	n/a	n/a	n/a	n/a
1990790	PROB	n/a	LTP273	ltpFR	8	n/a	n/a	n/a	n/a	n/a	n/a	10	3	6	1	n/a	n/a	n/a	n/a	n/a
1992419	PROB	n/a	LTP273	ltpFR	8	n/a	n/a	n/a	n/a	n/a	n/a	9	1	2	6	n/a	n/a	n/a	n/a	n/a
1993818	PROB	n/a	LTP273	ltpFR	8	n/a	n/a	n/a	n/a	n/a	n/a	10	1	7	2	n/a	n/a	n/a	n/a	n/a
1995407	PROB	n/a	LTP273	ltpFR	8	n/a	n/a	n/a	n/a	n/a	n/a	19	9	6	4	n/a	n/a	n/a	n/a	n/a
1996930	PROB	n/a	LTP273	ltpFR	8	n/a	n/a	n/a	n/a	n/a	n/a	13	3	3	5	n/a	n/a	n/a	n/a	n/a
1998776	PROB	n/a	LTP273	ltpFR	8	n/a	n/a	n/a	n/a	n/a	n/a	12	7	1	4	n/a	n/a	n/a	n/a	n/a
2003302	STOP	n/a	LTP273	ltpFR	8	n/a	n/a	n/a	n/a	n/a	n/a	n/a	n/a	n/a	n/a	n/a	n/a	n/a	n/a	n/a
2004698	WORD	wordpools/wasnorm_wordpool_less_exclusions.txt	LTP273	ltpFR	8	7	0	STOVE	1388	n/a	0	n/a	0	0	0	0	0.5869140625	0.422607421875	upper	../fonts/zerothre.ttf
2007710	START	n/a	LTP273	ltpFR	8	n/a	n/a	n/a	n/a	n/a	n/a	n/a	n/a	n/a	n/a	n/a	n/a	n/a	n/a	n/a
2008858	PROB	n/a	LTP273	ltpFR	8	n/a	n/a	n/a	n/a	n/a	n/a	18	5	5	8	n/a	n/a	n/a	n/a	n/a
2010364	PROB	n/a	LTP273	ltpFR	8	n/a	n/a	n/a	n/a	n/a	n/a	9	5	4	4	n/a	n/a	n/a	n/a	n/a
2012121	PROB	n/a	LTP273	ltpFR	8	n/a	n/a	n/a	n/a	n/a	n/a	9	5	2	2	n/a	n/a	n/a	n/a	n/a
2015807	PROB	n/a	LTP273	ltpFR	8	n/a	n/a	n/a	n/a	n/a	n/a	21	8	6	7	n/a	n/a	n/a	n/a	n/a
2020335	PROB	n/a	LTP273	ltpFR	8	n/a	n/a	n/a	n/a	n/a	n/a	7	1	4	2	n/a	n/a	n/a	n/a	n/a
2022998	STOP	n/a	LTP273	ltpFR	8	n/a	n/a	n/a	n/a	n/a	n/a	n/a	n/a	n/a	n/a	n/a	n/a	n/a	n/a	n/a
2024852	WORD	wordpools/wasnorm_wordpool_less_exclusions.txt	LTP273	ltpFR	8	7	0	VETERAN	1561	n/a	1	n/a	0	0	0	0	0.5869140625	0.422607421875	upper	../fonts/zerothre.ttf
2027870	START	n/a	LTP273	ltpFR	8	n/a	n/a	n/a	n/a	n/a	n/a	n/a	n/a	n/a	n/a	n/a	n/a	n/a	n/a	n/a
2028823	PROB	n/a	LTP273	ltpFR	8	n/a	n/a	n/a	n/a	n/a	n/a	11	1	8	2	n/a	n/a	n/a	n/a	n/a
2030707	PROB	n/a	LTP273	ltpFR	8	n/a	n/a	n/a	n/a	n/a	n/a	14	1	8	5	n/a	n/a	n/a	n/a	n/a
2033301	PROB	n/a	LTP273	ltpFR	8	n/a	n/a	n/a	n/a	n/a	n/a	15	8	1	6	n/a	n/a	n/a	n/a	n/a
2036568	PROB	n/a	LTP273	ltpFR	8	n/a	n/a	n/a	n/a	n/a	n/a	9	5	2	2	n/a	n/a	n/a	n/a	n/a
2038225	PROB	n/a	LTP273	ltpFR	8	n/a	n/a	n/a	n/a	n/a	n/a	16	8	7	1	n/a	n/a	n/a	n/a	n/a
2040511	PROB	n/a	LTP273	ltpFR	8	n/a	n/a	n/a	n/a	n/a	n/a	18	4	6	8	n/a	n/a	n/a	n/a	n/a
2041799	PROB	n/a	LTP273	ltpFR	8	n/a	n/a	n/a	n/a	n/a	n/a	8	2	1	5	n/a	n/a	n/a	n/a	n/a
2043206	STOP	n/a	LTP273	ltpFR	8	n/a	n/a	n/a	n/a	n/a	n/a	n/a	n/a	n/a	n/a	n/a	n/a	n/a	n/a	n/a
2044833	WORD	wordpools/wasnorm_wordpool_less_exclusions.txt	LTP273	ltpFR	8	7	0	ROUGE	1213	n/a	1	n/a	0	0	0	0	0.5869140625	0.422607421875	upper	../fonts/zerothre.ttf
2047845	START	n/a	LTP273	ltpFR	8	n/a	n/a	n/a	n/a	n/a	n/a	n/a	n/a	n/a	n/a	n/a	n/a	n/a	n/a	n/a
2048748	PROB	n/a	LTP273	ltpFR	8	n/a	n/a	n/a	n/a	n/a	n/a	20	4	8	8	n/a	n/a	n/a	n/a	n/a
2051519	PROB	n/a	LTP273	ltpFR	8	n/a	n/a	n/a	n/a	n/a	n/a	8	2	4	2	n/a	n/a	n/a	n/a	n/a
2053912	PROB	n/a	LTP273	ltpFR	8	n/a	n/a	n/a	n/a	n/a	n/a	14	9	2	3	n/a	n/a	n/a	n/a	n/a
2056471	PROB	n/a	LTP273	ltpFR	8	n/a	n/a	n/a	n/a	n/a	n/a	14	3	3	8	n/a	n/a	n/a	n/a	n/a
2058400	PROB	n/a	LTP273	ltpFR	8	n/a	n/a	n/a	n/a	n/a	n/a	15	4	9	2	n/a	n/a	n/a	n/a	n/a
2063845	STOP	n/a	LTP273	ltpFR	8	n/a	n/a	n/a	n/a	n/a	n/a	n/a	n/a	n/a	n/a	n/a	n/a	n/a	n/a	n/a
2065009	WORD	wordpools/wasnorm_wordpool_less_exclusions.txt	LTP273	ltpFR	8	7	0	AUTHOR	61	n/a	1	n/a	0	0	0	0	0.5869140625	0.422607421875	upper	../fonts/zerothre.ttf
2068021	START	n/a	LTP273	ltpFR	8	n/a	n/a	n/a	n/a	n/a	n/a	n/a	n/a	n/a	n/a	n/a	n/a	n/a	n/a	n/a
2068940	PROB	n/a	LTP273	ltpFR	8	n/a	n/a	n/a	n/a	n/a	n/a	2	1	1	1	n/a	n/a	n/a	n/a	n/a
2069994	PROB	n/a	LTP273	ltpFR	8	n/a	n/a	n/a	n/a	n/a	n/a	20	3	9	8	n/a	n/a	n/a	n/a	n/a
2074305	PROB	n/a	LTP273	ltpFR	8	n/a	n/a	n/a	n/a	n/a	n/a	18	7	9	2	n/a	n/a	n/a	n/a	n/a
2077489	PROB	n/a	LTP273	ltpFR	8	n/a	n/a	n/a	n/a	n/a	n/a	11	2	5	4	n/a	n/a	n/a	n/a	n/a
2081047	PROB	n/a	LTP273	ltpFR	8	n/a	n/a	n/a	n/a	n/a	n/a	15	7	3	5	n/a	n/a	n/a	n/a	n/a
2082508	PROB	n/a	LTP273	ltpFR	8	n/a	n/a	n/a	n/a	n/a	n/a	15	5	5	5	n/a	n/a	n/a	n/a	n/a
2083758	STOP	n/a	LTP273	ltpFR	8	n/a	n/a	n/a	n/a	n/a	n/a	n/a	n/a	n/a	n/a	n/a	n/a	n/a	n/a	n/a
2085051	WORD	wordpools/wasnorm_wordpool_less_exclusions.txt	LTP273	ltpFR	8	7	0	WARRIOR	1589	n/a	1	n/a	0	0	0	0	0.5869140625	0.422607421875	upper	../fonts/zerothre.ttf
2088063	START	n/a	LTP273	ltpFR	8	n/a	n/a	n/a	n/a	n/a	n/a	n/a	n/a	n/a	n/a	n/a	n/a	n/a	n/a	n/a
2088932	PROB	n/a	LTP273	ltpFR	8	n/a	n/a	n/a	n/a	n/a	n/a	10	2	4	4	n/a	n/a	n/a	n/a	n/a
2091654	PROB	n/a	LTP273	ltpFR	8	n/a	n/a	n/a	n/a	n/a	n/a	18	4	8	6	n/a	n/a	n/a	n/a	n/a
2093249	PROB	n/a	LTP273	ltpFR	8	n/a	n/a	n/a	n/a	n/a	n/a	24	9	6	9	n/a	n/a	n/a	n/a	n/a
2095909	PROB	n/a	LTP273	ltpFR	8	n/a	n/a	n/a	n/a	n/a	n/a	16	4	8	4	n/a	n/a	n/a	n/a	n/a
2097816	PROB	n/a	LTP273	ltpFR	8	n/a	n/a	n/a	n/a	n/a	n/a	4	1	1	2	n/a	n/a	n/a	n/a	n/a
2099004	PROB	n/a	LTP273	ltpFR	8	n/a	n/a	n/a	n/a	n/a	n/a	9	2	4	3	n/a	n/a	n/a	n/a	n/a
2101073	PROB	n/a	LTP273	ltpFR	8	n/a	n/a	n/a	n/a	n/a	n/a	19	5	9	5	n/a	n/a	n/a	n/a	n/a
2102526	STOP	n/a	LTP273	ltpFR	8	n/a	n/a	n/a	n/a	n/a	n/a	n/a	n/a	n/a	n/a	n/a	n/a	n/a	n/a	n/a
2105171	WORD	wordpools/wasnorm_wordpool_less_exclusions.txt	LTP273	ltpFR	8	7	0	BEET	115	n/a	0	n/a	0	0	0	0	0.5869140625	0.422607421875	upper	../fonts/zerothre.ttf
2108189	START	n/a	LTP273	ltpFR	8	n/a	n/a	n/a	n/a	n/a	n/a	n/a	n/a	n/a	n/a	n/a	n/a	n/a	n/a	n/a
2109209	PROB	n/a	LTP273	ltpFR	8	n/a	n/a	n/a	n/a	n/a	n/a	8	3	3	2	n/a	n/a	n/a	n/a	n/a
2111752	PROB	n/a	LTP273	ltpFR	8	n/a	n/a	n/a	n/a	n/a	n/a	13	8	2	3	n/a	n/a	n/a	n/a	n/a
2113401	PROB	n/a	LTP273	ltpFR	8	n/a	n/a	n/a	n/a	n/a	n/a	16	9	3	4	n/a	n/a	n/a	n/a	n/a
2115711	PROB	n/a	LTP273	ltpFR	8	n/a	n/a	n/a	n/a	n/a	n/a	13	3	5	5	n/a	n/a	n/a	n/a	n/a
2117217	PROB	n/a	LTP273	ltpFR	8	n/a	n/a	n/a	n/a	n/a	n/a	10	2	4	4	n/a	n/a	n/a	n/a	n/a
2119548	PROB	n/a	LTP273	ltpFR	8	n/a	n/a	n/a	n/a	n/a	n/a	16	3	7	5	n/a	n/a	n/a	n/a	n/a
2121288	PROB	n/a	LTP273	ltpFR	8	n/a	n/a	n/a	n/a	n/a	n/a	17	2	8	7	n/a	n/a	n/a	n/a	n/a
2123405	STOP	n/a	LTP273	ltpFR	8	n/a	n/a	n/a	n/a	n/a	n/a	n/a	n/a	n/a	n/a	n/a	n/a	n/a	n/a	n/a
2125147	WORD	wordpools/wasnorm_wordpool_less_exclusions.txt	LTP273	ltpFR	8	7	0	CACTUS	215	n/a	0	n/a	0	0	0	0	0.5869140625	0.422607421875	upper	../fonts/zerothre.ttf
2128164	START	n/a	LTP273	ltpFR	8	n/a	n/a	n/a	n/a	n/a	n/a	n/a	n/a	n/a	n/a	n/a	n/a	n/a	n/a	n/a
2129268	PROB	n/a	LTP273	ltpFR	8	n/a	n/a	n/a	n/a	n/a	n/a	16	3	7	6	n/a	n/a	n/a	n/a	n/a
2130768	PROB	n/a	LTP273	ltpFR	8	n/a	n/a	n/a	n/a	n/a	n/a	5	2	1	2	n/a	n/a	n/a	n/a	n/a
2132424	PROB	n/a	LTP273	ltpFR	8	n/a	n/a	n/a	n/a	n/a	n/a	16	4	5	7	n/a	n/a	n/a	n/a	n/a
2134632	PROB	n/a	LTP273	ltpFR	8	n/a	n/a	n/a	n/a	n/a	n/a	20	5	7	8	n/a	n/a	n/a	n/a	n/a
2139991	PROB	n/a	LTP273	ltpFR	8	n/a	n/a	n/a	n/a	n/a	n/a	10	5	4	1	n/a	n/a	n/a	n/a	n/a
2141213	PROB	n/a	LTP273	ltpFR	8	n/a	n/a	n/a	n/a	n/a	n/a	10	1	3	6	n/a	n/a	n/a	n/a	n/a
2144163	STOP	n/a	LTP273	ltpFR	8	n/a	n/a	n/a	n/a	n/a	n/a	n/a	n/a	n/a	n/a	n/a	n/a	n/a	n/a	n/a
2145228	WORD	wordpools/wasnorm_wordpool_less_exclusions.txt	LTP273	ltpFR	8	7	0	SHRINE	1298	n/a	1	n/a	0	0	0	0	0.5869140625	0.422607421875	upper	../fonts/zerothre.ttf
2148240	START	n/a	LTP273	ltpFR	8	n/a	n/a	n/a	n/a	n/a	n/a	n/a	n/a	n/a	n/a	n/a	n/a	n/a	n/a	n/a
2149092	PROB	n/a	LTP273	ltpFR	8	n/a	n/a	n/a	n/a	n/a	n/a	12	2	3	7	n/a	n/a	n/a	n/a	n/a
2150877	PROB	n/a	LTP273	ltpFR	8	n/a	n/a	n/a	n/a	n/a	n/a	8	2	2	4	n/a	n/a	n/a	n/a	n/a
2152433	PROB	n/a	LTP273	ltpFR	8	n/a	n/a	n/a	n/a	n/a	n/a	15	2	9	4	n/a	n/a	n/a	n/a	n/a
2154424	PROB	n/a	LTP273	ltpFR	8	n/a	n/a	n/a	n/a	n/a	n/a	18	7	8	3	n/a	n/a	n/a	n/a	n/a
2157552	PROB	n/a	LTP273	ltpFR	8	n/a	n/a	n/a	n/a	n/a	n/a	21	6	7	8	n/a	n/a	n/a	n/a	n/a
2160720	PROB	n/a	LTP273	ltpFR	8	n/a	n/a	n/a	n/a	n/a	n/a	12	2	4	6	n/a	n/a	n/a	n/a	n/a
2163510	STOP	n/a	LTP273	ltpFR	8	n/a	n/a	n/a	n/a	n/a	n/a	n/a	n/a	n/a	n/a	n/a	n/a	n/a	n/a	n/a
2165181	WORD	wordpools/wasnorm_wordpool_less_exclusions.txt	LTP273	ltpFR	8	7	0	IDOL	733	n/a	1	n/a	0	0	0	0	0.5869140625	0.422607421875	upper	../fonts/zerothre.ttf
2168198	START	n/a	LTP273	ltpFR	8	n/a	n/a	n/a	n/a	n/a	n/a	n/a	n/a	n/a	n/a	n/a	n/a	n/a	n/a	n/a
2169101	PROB	n/a	LTP273	ltpFR	8	n/a	n/a	n/a	n/a	n/a	n/a	9	1	6	2	n/a	n/a	n/a	n/a	n/a
2171655	PROB	n/a	LTP273	ltpFR	8	n/a	n/a	n/a	n/a	n/a	n/a	12	6	3	3	n/a	n/a	n/a	n/a	n/a
2174823	PROB	n/a	LTP273	ltpFR	8	n/a	n/a	n/a	n/a	n/a	n/a	12	2	3	7	n/a	n/a	n/a	n/a	n/a
2176423	PROB	n/a	LTP273	ltpFR	8	n/a	n/a	n/a	n/a	n/a	n/a	2	9	6	6	n/a	n/a	n/a	n/a	n/a
2178816	PROB	n/a	LTP273	ltpFR	8	n/a	n/a	n/a	n/a	n/a	n/a	20	8	9	3	n/a	n/a	n/a	n/a	n/a
2182635	PROB	n/a	LTP273	ltpFR	8	n/a	n/a	n/a	n/a	n/a	n/a	19	3	7	9	n/a	n/a	n/a	n/a	n/a
2183838	STOP	n/a	LTP273	ltpFR	8	n/a	n/a	n/a	n/a	n/a	n/a	n/a	n/a	n/a	n/a	n/a	n/a	n/a	n/a	n/a
2185949	REC_START	n/a	LTP273	ltpFR	8	7	n/a	n/a	n/a	n/a	n/a	n/a	0	0	0	n/a	n/a	n/a	n/a	n/a
2189188	REC_WORD	wordpools/wasnorm_wordpool_less_exclusions.txt	LTP273	ltpFR	8	7	0	IDOL	733	n/a	1	n/a	0	0	0	n/a	n/a	n/a	n/a	n/a
2189942	REC_WORD_VV	wordpools/wasnorm_wordpool_less_exclusions.txt	LTP273	ltpFR	8	7	n/a	<>	-1	n/a	n/a	n/a	0	0	0	n/a	n/a	n/a	n/a	n/a
2190587	REC_WORD	wordpools/wasnorm_wordpool_less_exclusions.txt	LTP273	ltpFR	8	7	0	SHRINE	1298	n/a	1	n/a	0	0	0	n/a	n/a	n/a	n/a	n/a
2193509	REC_WORD	wordpools/wasnorm_wordpool_less_exclusions.txt	LTP273	ltpFR	8	7	0	BEET	115	n/a	0	n/a	0	0	0	n/a	n/a	n/a	n/a	n/a
2196057	REC_WORD	wordpools/wasnorm_wordpool_less_exclusions.txt	LTP273	ltpFR	8	7	0	CACTUS	215	n/a	0	n/a	0	0	0	n/a	n/a	n/a	n/a	n/a
2359837	WORD	wordpools/wasnorm_wordpool_less_exclusions.txt	LTP273	ltpFR	8	8	1	COCKTAIL	338	n/a	0	n/a	0	0	0	1	0.412841796875	0.57763671875	lower	../fonts/amplitud.ttf
2363802	WORD	wordpools/wasnorm_wordpool_less_exclusions.txt	LTP273	ltpFR	8	8	1	BRANDY	169	n/a	0	n/a	0	0	0	1	0.412841796875	0.57763671875	lower	../fonts/amplitud.ttf
2367649	WORD	wordpools/wasnorm_wordpool_less_exclusions.txt	LTP273	ltpFR	8	8	1	VENT	1556	n/a	0	n/a	0	0	0	1	0.412841796875	0.57763671875	lower	../fonts/amplitud.ttf
2371726	WORD	wordpools/wasnorm_wordpool_less_exclusions.txt	LTP273	ltpFR	8	8	1	PERSON	1052	n/a	1	n/a	0	0	0	1	0.412841796875	0.57763671875	lower	../fonts/amplitud.ttf
2375591	WORD	wordpools/wasnorm_wordpool_less_exclusions.txt	LTP273	ltpFR	8	8	1	MICROWAVE	892	n/a	0	n/a	0	0	0	1	0.412841796875	0.57763671875	lower	../fonts/amplitud.ttf
2379762	WORD	wordpools/wasnorm_wordpool_less_exclusions.txt	LTP273	ltpFR	8	8	1	EMERALD	528	n/a	0	n/a	0	0	0	1	0.412841796875	0.57763671875	lower	../fonts/amplitud.ttf
2383822	WORD	wordpools/wasnorm_wordpool_less_exclusions.txt	LTP273	ltpFR	8	8	1	MECHANIC	884	n/a	1	n/a	0	0	0	1	0.412841796875	0.57763671875	lower	../fonts/amplitud.ttf
2387675	WORD	wordpools/wasnorm_wordpool_less_exclusions.txt	LTP273	ltpFR	8	8	1	FREEZER	604	n/a	0	n/a	0	0	0	1	0.412841796875	0.57763671875	lower	../fonts/amplitud.ttf
2391707	WORD	wordpools/wasnorm_wordpool_less_exclusions.txt	LTP273	ltpFR	8	8	1	BROCCOLI	176	n/a	0	n/a	0	0	0	1	0.412841796875	0.57763671875	lower	../fonts/amplitud.ttf
2395571	WORD	wordpools/wasnorm_wordpool_less_exclusions.txt	LTP273	ltpFR	8	8	1	FARMER	553	n/a	1	n/a	0	0	0	1	0.412841796875	0.57763671875	lower	../fonts/amplitud.ttf
2399436	WORD	wordpools/wasnorm_wordpool_less_exclusions.txt	LTP273	ltpFR	8	8	1	HAYSTACK	694	n/a	0	n/a	0	0	0	1	0.412841796875	0.57763671875	lower	../fonts/amplitud.ttf
2403663	WORD	wordpools/wasnorm_wordpool_less_exclusions.txt	LTP273	ltpFR	8	8	1	ATMOSPHERE	54	n/a	0	n/a	0	0	0	1	0.412841796875	0.57763671875	lower	../fonts/amplitud.ttf
2407600	WORD	wordpools/wasnorm_wordpool_less_exclusions.txt	LTP273	ltpFR	8	8	1	WIRE	1616	n/a	0	n/a	0	0	0	1	0.412841796875	0.57763671875	lower	../fonts/amplitud.ttf
2411509	WORD	wordpools/wasnorm_wordpool_less_exclusions.txt	LTP273	ltpFR	8	8	1	SOCKET	1340	n/a	0	n/a	0	0	0	1	0.412841796875	0.57763671875	lower	../fonts/amplitud.ttf
2415642	WORD	wordpools/wasnorm_wordpool_less_exclusions.txt	LTP273	ltpFR	8	8	1	DRIVER	499	n/a	1	n/a	0	0	0	1	0.412841796875	0.57763671875	lower	../fonts/amplitud.ttf
2419512	WORD	wordpools/wasnorm_wordpool_less_exclusions.txt	LTP273	ltpFR	8	8	1	ELK	526	n/a	1	n/a	0	0	0	1	0.412841796875	0.57763671875	lower	../fonts/amplitud.ttf
2425384	REC_START	n/a	LTP273	ltpFR	8	8	n/a	n/a	n/a	n/a	n/a	n/a	0	0	0	n/a	n/a	n/a	n/a	n/a
2427863	REC_WORD	wordpools/wasnorm_wordpool_less_exclusions.txt	LTP273	ltpFR	8	8	1	EMERALD	528	n/a	0	n/a	0	0	0	n/a	n/a	n/a	n/a	n/a
2428670	REC_WORD	wordpools/wasnorm_wordpool_less_exclusions.txt	LTP273	ltpFR	8	8	1	ELK	526	n/a	1	n/a	0	0	0	n/a	n/a	n/a	n/a	n/a
2429211	REC_WORD	wordpools/wasnorm_wordpool_less_exclusions.txt	LTP273	ltpFR	8	8	1	DRIVER	499	n/a	1	n/a	0	0	0	n/a	n/a	n/a	n/a	n/a
2430629	REC_WORD	wordpools/wasnorm_wordpool_less_exclusions.txt	LTP273	ltpFR	8	8	1	COCKTAIL	338	n/a	0	n/a	0	0	0	n/a	n/a	n/a	n/a	n/a
2431550	REC_WORD	wordpools/wasnorm_wordpool_less_exclusions.txt	LTP273	ltpFR	8	8	1	BRANDY	169	n/a	0	n/a	0	0	0	n/a	n/a	n/a	n/a	n/a
2432331	REC_WORD	wordpools/wasnorm_wordpool_less_exclusions.txt	LTP273	ltpFR	8	8	1	VENT	1556	n/a	0	n/a	0	0	0	n/a	n/a	n/a	n/a	n/a
2434256	REC_WORD	wordpools/wasnorm_wordpool_less_exclusions.txt	LTP273	ltpFR	8	8	1	PERSON	1052	n/a	1	n/a	0	0	0	n/a	n/a	n/a	n/a	n/a
2510081	START	n/a	LTP273	ltpFR	8	n/a	n/a	n/a	n/a	n/a	n/a	n/a	n/a	n/a	n/a	n/a	n/a	n/a	n/a	n/a
2511592	PROB	n/a	LTP273	ltpFR	8	n/a	n/a	n/a	n/a	n/a	n/a	9	1	2	6	n/a	n/a	n/a	n/a	n/a
2513310	PROB	n/a	LTP273	ltpFR	8	n/a	n/a	n/a	n/a	n/a	n/a	13	6	5	2	n/a	n/a	n/a	n/a	n/a
2516806	STOP	n/a	LTP273	ltpFR	8	n/a	n/a	n/a	n/a	n/a	n/a	n/a	n/a	n/a	n/a	n/a	n/a	n/a	n/a	n/a
2518953	WORD	wordpools/wasnorm_wordpool_less_exclusions.txt	LTP273	ltpFR	8	9	0	CABBAGE	210	n/a	0	n/a	0	0	0	0	0.5869140625	0.422607421875	upper	../fonts/zerothre.ttf
2521965	START	n/a	LTP273	ltpFR	8	n/a	n/a	n/a	n/a	n/a	n/a	n/a	n/a	n/a	n/a	n/a	n/a	n/a	n/a	n/a
2522818	PROB	n/a	LTP273	ltpFR	8	n/a	n/a	n/a	n/a	n/a	n/a	12	1	3	8	n/a	n/a	n/a	n/a	n/a
2524954	PROB	n/a	LTP273	ltpFR	8	n/a	n/a	n/a	n/a	n/a	n/a	12	4	7	1	n/a	n/a	n/a	n/a	n/a
2527614	PROB	n/a	LTP273	ltpFR	8	n/a	n/a	n/a	n/a	n/a	n/a	21	5	8	6	n/a	n/a	n/a	n/a	n/a
2529302	STOP	n/a	LTP273	ltpFR	8	n/a	n/a	n/a	n/a	n/a	n/a	n/a	n/a	n/a	n/a	n/a	n/a	n/a	n/a	n/a
2531043	WORD	wordpools/wasnorm_wordpool_less_exclusions.txt	LTP273	ltpFR	8	9	0	DINNER	468	n/a	0	n/a	0	0	0	0	0.5869140625	0.422607421875	upper	../fonts/zerothre.ttf
2534061	START	n/a	LTP273	ltpFR	8	n/a	n/a	n/a	n/a	n/a	n/a	n/a	n/a	n/a	n/a	n/a	n/a	n/a	n/a	n/a
2535181	PROB	n/a	LTP273	ltpFR	8	n/a	n/a	n/a	n/a	n/a	n/a	17	5	8	4	n/a	n/a	n/a	n/a	n/a
2540486	STOP	n/a	LTP273	ltpFR	8	n/a	n/a	n/a	n/a	n/a	n/a	n/a	n/a	n/a	n/a	n/a	n/a	n/a	n/a	n/a
2542977	WORD	wordpools/wasnorm_wordpool_less_exclusions.txt	LTP273	ltpFR	8	9	0	CLIPPERS	324	n/a	0	n/a	0	0	0	0	0.5869140625	0.422607421875	upper	../fonts/zerothre.ttf
2545989	START	n/a	LTP273	ltpFR	8	n/a	n/a	n/a	n/a	n/a	n/a	n/a	n/a	n/a	n/a	n/a	n/a	n/a	n/a	n/a
2547026	PROB	n/a	LTP273	ltpFR	8	n/a	n/a	n/a	n/a	n/a	n/a	11	3	7	1	n/a	n/a	n/a	n/a	n/a
2548481	PROB	n/a	LTP273	ltpFR	8	n/a	n/a	n/a	n/a	n/a	n/a	14	2	4	8	n/a	n/a	n/a	n/a	n/a
2551052	PROB	n/a	LTP273	ltpFR	8	n/a	n/a	n/a	n/a	n/a	n/a	12	3	6	3	n/a	n/a	n/a	n/a	n/a
2552998	STOP	n/a	LTP273	ltpFR	8	n/a	n/a	n/a	n/a	n/a	n/a	n/a	n/a	n/a	n/a	n/a	n/a	n/a	n/a	n/a
2555017	WORD	wordpools/wasnorm_wordpool_less_exclusions.txt	LTP273	ltpFR	8	9	0	COMB	351	n/a	0	n/a	0	0	0	0	0.5869140625	0.422607421875	upper	../fonts/zerothre.ttf
2558034	START	n/a	LTP273	ltpFR	8	n/a	n/a	n/a	n/a	n/a	n/a	n/a	n/a	n/a	n/a	n/a	n/a	n/a	n/a	n/a
2559233	PROB	n/a	LTP273	ltpFR	8	n/a	n/a	n/a	n/a	n/a	n/a	18	3	6	9	n/a	n/a	n/a	n/a	n/a
2560789	PROB	n/a	LTP273	ltpFR	8	n/a	n/a	n/a	n/a	n/a	n/a	14	3	9	2	n/a	n/a	n/a	n/a	n/a
2562484	PROB	n/a	LTP273	ltpFR	8	n/a	n/a	n/a	n/a	n/a	n/a	20	7	4	9	n/a	n/a	n/a	n/a	n/a
2565326	STOP	n/a	LTP273	ltpFR	8	n/a	n/a	n/a	n/a	n/a	n/a	n/a	n/a	n/a	n/a	n/a	n/a	n/a	n/a	n/a
2567079	WORD	wordpools/wasnorm_wordpool_less_exclusions.txt	LTP273	ltpFR	8	9	0	BANDANNA	80	n/a	0	n/a	0	0	0	0	0.5869140625	0.422607421875	upper	../fonts/zerothre.ttf
2570097	START	n/a	LTP273	ltpFR	8	n/a	n/a	n/a	n/a	n/a	n/a	n/a	n/a	n/a	n/a	n/a	n/a	n/a	n/a	n/a
2571300	PROB	n/a	LTP273	ltpFR	8	n/a	n/a	n/a	n/a	n/a	n/a	12	3	3	6	n/a	n/a	n/a	n/a	n/a
2572756	PROB	n/a	LTP273	ltpFR	8	n/a	n/a	n/a	n/a	n/a	n/a	25	9	9	7	n/a	n/a	n/a	n/a	n/a
2575667	PROB	n/a	LTP273	ltpFR	8	n/a	n/a	n/a	n/a	n/a	n/a	7	3	1	3	n/a	n/a	n/a	n/a	n/a
2577726	STOP	n/a	LTP273	ltpFR	8	n/a	n/a	n/a	n/a	n/a	n/a	n/a	n/a	n/a	n/a	n/a	n/a	n/a	n/a	n/a
2578979	WORD	wordpools/wasnorm_wordpool_less_exclusions.txt	LTP273	ltpFR	8	9	0	BEAN	105	n/a	0	n/a	0	0	0	0	0.5869140625	0.422607421875	upper	../fonts/zerothre.ttf
2581991	START	n/a	LTP273	ltpFR	8	n/a	n/a	n/a	n/a	n/a	n/a	n/a	n/a	n/a	n/a	n/a	n/a	n/a	n/a	n/a
2583078	PROB	n/a	LTP273	ltpFR	8	n/a	n/a	n/a	n/a	n/a	n/a	6	3	1	2	n/a	n/a	n/a	n/a	n/a
2585264	PROB	n/a	LTP273	ltpFR	8	n/a	n/a	n/a	n/a	n/a	n/a	13	2	5	6	n/a	n/a	n/a	n/a	n/a
2589990	STOP	n/a	LTP273	ltpFR	8	n/a	n/a	n/a	n/a	n/a	n/a	n/a	n/a	n/a	n/a	n/a	n/a	n/a	n/a	n/a
2591192	WORD	wordpools/wasnorm_wordpool_less_exclusions.txt	LTP273	ltpFR	8	9	0	TURKEY	1520	n/a	1	n/a	0	0	0	0	0.5869140625	0.422607421875	upper	../fonts/zerothre.ttf
2594204	START	n/a	LTP273	ltpFR	8	n/a	n/a	n/a	n/a	n/a	n/a	n/a	n/a	n/a	n/a	n/a	n/a	n/a	n/a	n/a
2595352	PROB	n/a	LTP273	ltpFR	8	n/a	n/a	n/a	n/a	n/a	n/a	7	2	4	1	n/a	n/a	n/a	n/a	n/a
2596914	PROB	n/a	LTP273	ltpFR	8	n/a	n/a	n/a	n/a	n/a	n/a	10	7	1	2	n/a	n/a	n/a	n/a	n/a
2598570	PROB	n/a	LTP273	ltpFR	8	n/a	n/a	n/a	n/a	n/a	n/a	11	1	2	8	n/a	n/a	n/a	n/a	n/a
2600193	PROB	n/a	LTP273	ltpFR	8	n/a	n/a	n/a	n/a	n/a	n/a	18	4	8	6	n/a	n/a	n/a	n/a	n/a
2602142	STOP	n/a	LTP273	ltpFR	8	n/a	n/a	n/a	n/a	n/a	n/a	n/a	n/a	n/a	n/a	n/a	n/a	n/a	n/a	n/a
2603254	WORD	wordpools/wasnorm_wordpool_less_exclusions.txt	LTP273	ltpFR	8	9	0	MARS	873	n/a	1	n/a	0	0	0	0	0.5869140625	0.422607421875	upper	../fonts/zerothre.ttf
2606266	START	n/a	LTP273	ltpFR	8	n/a	n/a	n/a	n/a	n/a	n/a	n/a	n/a	n/a	n/a	n/a	n/a	n/a	n/a	n/a
2607370	PROB	n/a	LTP273	ltpFR	8	n/a	n/a	n/a	n/a	n/a	n/a	14	4	6	4	n/a	n/a	n/a	n/a	n/a
2608808	PROB	n/a	LTP273	ltpFR	8	n/a	n/a	n/a	n/a	n/a	n/a	16	6	1	9	n/a	n/a	n/a	n/a	n/a
2610481	PROB	n/a	LTP273	ltpFR	8	n/a	n/a	n/a	n/a	n/a	n/a	13	4	5	4	n/a	n/a	n/a	n/a	n/a
2613342	STOP	n/a	LTP273	ltpFR	8	n/a	n/a	n/a	n/a	n/a	n/a	n/a	n/a	n/a	n/a	n/a	n/a	n/a	n/a	n/a
2615333	WORD	wordpools/wasnorm_wordpool_less_exclusions.txt	LTP273	ltpFR	8	9	0	BALCONY	72	n/a	1	n/a	0	0	0	0	0.5869140625	0.422607421875	upper	../fonts/zerothre.ttf
2618345	START	n/a	LTP273	ltpFR	8	n/a	n/a	n/a	n/a	n/a	n/a	n/a	n/a	n/a	n/a	n/a	n/a	n/a	n/a	n/a
2619164	PROB	n/a	LTP273	ltpFR	8	n/a	n/a	n/a	n/a	n/a	n/a	14	6	3	5	n/a	n/a	n/a	n/a	n/a
2622326	PROB	n/a	LTP273	ltpFR	8	n/a	n/a	n/a	n/a	n/a	n/a	13	5	6	2	n/a	n/a	n/a	n/a	n/a
2624200	PROB	n/a	LTP273	ltpFR	8	n/a	n/a	n/a	n/a	n/a	n/a	15	2	5	8	n/a	n/a	n/a	n/a	n/a
2625710	STOP	n/a	LTP273	ltpFR	8	n/a	n/a	n/a	n/a	n/a	n/a	n/a	n/a	n/a	n/a	n/a	n/a	n/a	n/a	n/a
2627445	WORD	wordpools/wasnorm_wordpool_less_exclusions.txt	LTP273	ltpFR	8	9	0	COUCH	386	n/a	1	n/a	0	0	0	0	0.5869140625	0.422607421875	upper	../fonts/zerothre.ttf
2630469	START	n/a	LTP273	ltpFR	8	n/a	n/a	n/a	n/a	n/a	n/a	n/a	n/a	n/a	n/a	n/a	n/a	n/a	n/a	n/a
2631622	PROB	n/a	LTP273	ltpFR	8	n/a	n/a	n/a	n/a	n/a	n/a	21	8	5	8	n/a	n/a	n/a	n/a	n/a
2633914	PROB	n/a	LTP273	ltpFR	8	n/a	n/a	n/a	n/a	n/a	n/a	15	2	4	9	n/a	n/a	n/a	n/a	n/a
2636513	PROB	n/a	LTP273	ltpFR	8	n/a	n/a	n/a	n/a	n/a	n/a	9	3	1	5	n/a	n/a	n/a	n/a	n/a
2638046	STOP	n/a	LTP273	ltpFR	8	n/a	n/a	n/a	n/a	n/a	n/a	n/a	n/a	n/a	n/a	n/a	n/a	n/a	n/a	n/a
2639552	WORD	wordpools/wasnorm_wordpool_less_exclusions.txt	LTP273	ltpFR	8	9	0	HEEL	700	n/a	0	n/a	0	0	0	0	0.5869140625	0.422607421875	upper	../fonts/zerothre.ttf
2642570	START	n/a	LTP273	ltpFR	8	n/a	n/a	n/a	n/a	n/a	n/a	n/a	n/a	n/a	n/a	n/a	n/a	n/a	n/a	n/a
2643589	PROB	n/a	LTP273	ltpFR	8	n/a	n/a	n/a	n/a	n/a	n/a	9	2	6	1	n/a	n/a	n/a	n/a	n/a
2646410	PROB	n/a	LTP273	ltpFR	8	n/a	n/a	n/a	n/a	n/a	n/a	11	5	3	3	n/a	n/a	n/a	n/a	n/a
2648335	PROB	n/a	LTP273	ltpFR	8	n/a	n/a	n/a	n/a	n/a	n/a	15	3	5	7	n/a	n/a	n/a	n/a	n/a
2649734	STOP	n/a	LTP273	ltpFR	8	n/a	n/a	n/a	n/a	n/a	n/a	n/a	n/a	n/a	n/a	n/a	n/a	n/a	n/a	n/a
2651436	WORD	wordpools/wasnorm_wordpool_less_exclusions.txt	LTP273	ltpFR	8	9	0	BOXER	160	n/a	1	n/a	0	0	0	0	0.5869140625	0.422607421875	upper	../fonts/zerothre.ttf
2654448	START	n/a	LTP273	ltpFR	8	n/a	n/a	n/a	n/a	n/a	n/a	n/a	n/a	n/a	n/a	n/a	n/a	n/a	n/a	n/a
2655378	PROB	n/a	LTP273	ltpFR	8	n/a	n/a	n/a	n/a	n/a	n/a	14	5	1	8	n/a	n/a	n/a	n/a	n/a
2656985	PROB	n/a	LTP273	ltpFR	8	n/a	n/a	n/a	n/a	n/a	n/a	15	1	7	7	n/a	n/a	n/a	n/a	n/a
2658808	PROB	n/a	LTP273	ltpFR	8	n/a	n/a	n/a	n/a	n/a	n/a	10	8	8	2	n/a	n/a	n/a	n/a	n/a
2662062	STOP	n/a	LTP273	ltpFR	8	n/a	n/a	n/a	n/a	n/a	n/a	n/a	n/a	n/a	n/a	n/a	n/a	n/a	n/a	n/a
2663548	WORD	wordpools/wasnorm_wordpool_less_exclusions.txt	LTP273	ltpFR	8	9	0	MOSQUITO	917	n/a	1	n/a	0	0	0	0	0.5869140625	0.422607421875	upper	../fonts/zerothre.ttf
2666560	START	n/a	LTP273	ltpFR	8	n/a	n/a	n/a	n/a	n/a	n/a	n/a	n/a	n/a	n/a	n/a	n/a	n/a	n/a	n/a
2667714	PROB	n/a	LTP273	ltpFR	8	n/a	n/a	n/a	n/a	n/a	n/a	12	3	3	6	n/a	n/a	n/a	n/a	n/a
2670943	PROB	n/a	LTP273	ltpFR	8	n/a	n/a	n/a	n/a	n/a	n/a	18	7	6	5	n/a	n/a	n/a	n/a	n/a
2673566	STOP	n/a	LTP273	ltpFR	8	n/a	n/a	n/a	n/a	n/a	n/a	n/a	n/a	n/a	n/a	n/a	n/a	n/a	n/a	n/a
2675660	WORD	wordpools/wasnorm_wordpool_less_exclusions.txt	LTP273	ltpFR	8	9	0	MOTH	920	n/a	0	n/a	0	0	0	0	0.5869140625	0.422607421875	upper	../fonts/zerothre.ttf
2678672	START	n/a	LTP273	ltpFR	8	n/a	n/a	n/a	n/a	n/a	n/a	n/a	n/a	n/a	n/a	n/a	n/a	n/a	n/a	n/a
2679692	PROB	n/a	LTP273	ltpFR	8	n/a	n/a	n/a	n/a	n/a	n/a	15	4	8	3	n/a	n/a	n/a	n/a	n/a
2681583	PROB	n/a	LTP273	ltpFR	8	n/a	n/a	n/a	n/a	n/a	n/a	11	1	5	5	n/a	n/a	n/a	n/a	n/a
2682815	PROB	n/a	LTP273	ltpFR	8	n/a	n/a	n/a	n/a	n/a	n/a	8	3	2	3	n/a	n/a	n/a	n/a	n/a
2686672	STOP	n/a	LTP273	ltpFR	8	n/a	n/a	n/a	n/a	n/a	n/a	n/a	n/a	n/a	n/a	n/a	n/a	n/a	n/a	n/a
2687566	WORD	wordpools/wasnorm_wordpool_less_exclusions.txt	LTP273	ltpFR	8	9	0	CAFETERIA	217	n/a	1	n/a	0	0	0	0	0.5869140625	0.422607421875	upper	../fonts/zerothre.ttf
2690584	START	n/a	LTP273	ltpFR	8	n/a	n/a	n/a	n/a	n/a	n/a	n/a	n/a	n/a	n/a	n/a	n/a	n/a	n/a	n/a
2691420	PROB	n/a	LTP273	ltpFR	8	n/a	n/a	n/a	n/a	n/a	n/a	12	1	3	8	n/a	n/a	n/a	n/a	n/a
2693360	PROB	n/a	LTP273	ltpFR	8	n/a	n/a	n/a	n/a	n/a	n/a	6	2	1	3	n/a	n/a	n/a	n/a	n/a
2695446	PROB	n/a	LTP273	ltpFR	8	n/a	n/a	n/a	n/a	n/a	n/a	13	9	3	1	n/a	n/a	n/a	n/a	n/a
2697582	STOP	n/a	LTP273	ltpFR	8	n/a	n/a	n/a	n/a	n/a	n/a	n/a	n/a	n/a	n/a	n/a	n/a	n/a	n/a	n/a
2699679	WORD	wordpools/wasnorm_wordpool_less_exclusions.txt	LTP273	ltpFR	8	9	0	NOSE	957	n/a	1	n/a	0	0	0	0	0.5869140625	0.422607421875	upper	../fonts/zerothre.ttf
2702696	START	n/a	LTP273	ltpFR	8	n/a	n/a	n/a	n/a	n/a	n/a	n/a	n/a	n/a	n/a	n/a	n/a	n/a	n/a	n/a
2703660	PROB	n/a	LTP273	ltpFR	8	n/a	n/a	n/a	n/a	n/a	n/a	23	8	9	6	n/a	n/a	n/a	n/a	n/a
2706521	PROB	n/a	LTP273	ltpFR	8	n/a	n/a	n/a	n/a	n/a	n/a	13	1	4	8	n/a	n/a	n/a	n/a	n/a
2708399	PROB	n/a	LTP273	ltpFR	8	n/a	n/a	n/a	n/a	n/a	n/a	13	3	1	9	n/a	n/a	n/a	n/a	n/a
2710174	STOP	n/a	LTP273	ltpFR	8	n/a	n/a	n/a	n/a	n/a	n/a	n/a	n/a	n/a	n/a	n/a	n/a	n/a	n/a	n/a
2712612	REC_START	n/a	LTP273	ltpFR	8	9	n/a	n/a	n/a	n/a	n/a	n/a	0	0	0	n/a	n/a	n/a	n/a	n/a
2960579	START	n/a	LTP273	ltpFR	8	n/a	n/a	n/a	n/a	n/a	n/a	n/a	n/a	n/a	n/a	n/a	n/a	n/a	n/a	n/a
2962090	PROB	n/a	LTP273	ltpFR	8	n/a	n/a	n/a	n/a	n/a	n/a	13	3	3	7	n/a	n/a	n/a	n/a	n/a
2964092	PROB	n/a	LTP273	ltpFR	8	n/a	n/a	n/a	n/a	n/a	n/a	14	8	6	3	n/a	n/a	n/a	n/a	n/a
2965770	PROB	n/a	LTP273	ltpFR	8	n/a	n/a	n/a	n/a	n/a	n/a	17	7	8	2	n/a	n/a	n/a	n/a	n/a
2968124	PROB	n/a	LTP273	ltpFR	8	n/a	n/a	n/a	n/a	n/a	n/a	16	4	8	4	n/a	n/a	n/a	n/a	n/a
2970488	PROB	n/a	LTP273	ltpFR	8	n/a	n/a	n/a	n/a	n/a	n/a	20	4	9	7	n/a	n/a	n/a	n/a	n/a
2972423	PROB	n/a	LTP273	ltpFR	8	n/a	n/a	n/a	n/a	n/a	n/a	16	1	8	7	n/a	n/a	n/a	n/a	n/a
2976578	STOP	n/a	LTP273	ltpFR	8	n/a	n/a	n/a	n/a	n/a	n/a	n/a	n/a	n/a	n/a	n/a	n/a	n/a	n/a	n/a
2977782	WORD	wordpools/wasnorm_wordpool_less_exclusions.txt	LTP273	ltpFR	8	10	1	WELL	1600	n/a	0	n/a	0	0	0	1	0.412841796875	0.57763671875	lower	../fonts/amplitud.ttf
2980794	START	n/a	LTP273	ltpFR	8	n/a	n/a	n/a	n/a	n/a	n/a	n/a	n/a	n/a	n/a	n/a	n/a	n/a	n/a	n/a
2981881	PROB	n/a	LTP273	ltpFR	8	n/a	n/a	n/a	n/a	n/a	n/a	20	7	5	8	n/a	n/a	n/a	n/a	n/a
2984753	PROB	n/a	LTP273	ltpFR	8	n/a	n/a	n/a	n/a	n/a	n/a	17	1	7	9	n/a	n/a	n/a	n/a	n/a
2989889	PROB	n/a	LTP273	ltpFR	8	n/a	n/a	n/a	n/a	n/a	n/a	13	3	5	5	n/a	n/a	n/a	n/a	n/a
2991512	PROB	n/a	LTP273	ltpFR	8	n/a	n/a	n/a	n/a	n/a	n/a	17	3	6	8	n/a	n/a	n/a	n/a	n/a
2996794	STOP	n/a	LTP273	ltpFR	8	n/a	n/a	n/a	n/a	n/a	n/a	n/a	n/a	n/a	n/a	n/a	n/a	n/a	n/a	n/a
2997752	WORD	wordpools/wasnorm_wordpool_less_exclusions.txt	LTP273	ltpFR	8	10	1	BAY	102	n/a	2	n/a	0	0	0	1	0.412841796875	0.57763671875	lower	../fonts/amplitud.ttf
2999313	KEY_MSG	n/a	LTP273	ltpFR	8	10	n/a	n/a	n/a	n/a	n/a	n/a	0	0	0	n/a	n/a	n/a	n/a	n/a
3000848	START	n/a	LTP273	ltpFR	8	n/a	n/a	n/a	n/a	n/a	n/a	n/a	n/a	n/a	n/a	n/a	n/a	n/a	n/a	n/a
3002057	PROB	n/a	LTP273	ltpFR	8	n/a	n/a	n/a	n/a	n/a	n/a	21	3	9	9	n/a	n/a	n/a	n/a	n/a
3004409	PROB	n/a	LTP273	ltpFR	8	n/a	n/a	n/a	n/a	n/a	n/a	16	5	9	2	n/a	n/a	n/a	n/a	n/a
3007790	PROB	n/a	LTP273	ltpFR	8	n/a	n/a	n/a	n/a	n/a	n/a	11	2	7	2	n/a	n/a	n/a	n/a	n/a
3009167	PROB	n/a	LTP273	ltpFR	8	n/a	n/a	n/a	n/a	n/a	n/a	17	7	6	4	n/a	n/a	n/a	n/a	n/a
3010584	PROB	n/a	LTP273	ltpFR	8	n/a	n/a	n/a	n/a	n/a	n/a	12	9	1	2	n/a	n/a	n/a	n/a	n/a
3011944	PROB	n/a	LTP273	ltpFR	8	n/a	n/a	n/a	n/a	n/a	n/a	12	4	2	6	n/a	n/a	n/a	n/a	n/a
3013712	PROB	n/a	LTP273	ltpFR	8	n/a	n/a	n/a	n/a	n/a	n/a	12	2	4	6	n/a	n/a	n/a	n/a	n/a
3016848	STOP	n/a	LTP273	ltpFR	8	n/a	n/a	n/a	n/a	n/a	n/a	n/a	n/a	n/a	n/a	n/a	n/a	n/a	n/a	n/a
3018000	WORD	wordpools/wasnorm_wordpool_less_exclusions.txt	LTP273	ltpFR	8	10	1	SUGAR	1401	n/a	0	n/a	0	0	0	1	0.412841796875	0.57763671875	lower	../fonts/amplitud.ttf
3021013	START	n/a	LTP273	ltpFR	8	n/a	n/a	n/a	n/a	n/a	n/a	n/a	n/a	n/a	n/a	n/a	n/a	n/a	n/a	n/a
3022211	PROB	n/a	LTP273	ltpFR	8	n/a	n/a	n/a	n/a	n/a	n/a	12	2	6	4	n/a	n/a	n/a	n/a	n/a
3023655	PROB	n/a	LTP273	ltpFR	8	n/a	n/a	n/a	n/a	n/a	n/a	11	3	7	1	n/a	n/a	n/a	n/a	n/a
3025044	PROB	n/a	LTP273	ltpFR	8	n/a	n/a	n/a	n/a	n/a	n/a	8	1	6	1	n/a	n/a	n/a	n/a	n/a
3026600	PROB	n/a	LTP273	ltpFR	8	n/a	n/a	n/a	n/a	n/a	n/a	13	4	7	2	n/a	n/a	n/a	n/a	n/a
3028825	PROB	n/a	LTP273	ltpFR	8	n/a	n/a	n/a	n/a	n/a	n/a	14	7	5	2	n/a	n/a	n/a	n/a	n/a
3031479	PROB	n/a	LTP273	ltpFR	8	n/a	n/a	n/a	n/a	n/a	n/a	10	4	4	2	n/a	n/a	n/a	n/a	n/a
3033509	PROB	n/a	LTP273	ltpFR	8	n/a	n/a	n/a	n/a	n/a	n/a	19	6	9	4	n/a	n/a	n/a	n/a	n/a
3037013	STOP	n/a	LTP273	ltpFR	8	n/a	n/a	n/a	n/a	n/a	n/a	n/a	n/a	n/a	n/a	n/a	n/a	n/a	n/a	n/a
3037836	WORD	wordpools/wasnorm_wordpool_less_exclusions.txt	LTP273	ltpFR	8	10	1	PERSONNEL	1053	n/a	1	n/a	0	0	0	1	0.412841796875	0.57763671875	lower	../fonts/amplitud.ttf
3040849	START	n/a	LTP273	ltpFR	8	n/a	n/a	n/a	n/a	n/a	n/a	n/a	n/a	n/a	n/a	n/a	n/a	n/a	n/a	n/a
3041707	PROB	n/a	LTP273	ltpFR	8	n/a	n/a	n/a	n/a	n/a	n/a	20	6	6	8	n/a	n/a	n/a	n/a	n/a
3044434	PROB	n/a	LTP273	ltpFR	8	n/a	n/a	n/a	n/a	n/a	n/a	21	7	9	5	n/a	n/a	n/a	n/a	n/a
3047489	PROB	n/a	LTP273	ltpFR	8	n/a	n/a	n/a	n/a	n/a	n/a	19	4	8	7	n/a	n/a	n/a	n/a	n/a
3049848	PROB	n/a	LTP273	ltpFR	8	n/a	n/a	n/a	n/a	n/a	n/a	10	2	5	3	n/a	n/a	n/a	n/a	n/a
3052514	PROB	n/a	LTP273	ltpFR	8	n/a	n/a	n/a	n/a	n/a	n/a	9	2	1	6	n/a	n/a	n/a	n/a	n/a
3056734	STOP	n/a	LTP273	ltpFR	8	n/a	n/a	n/a	n/a	n/a	n/a	n/a	n/a	n/a	n/a	n/a	n/a	n/a	n/a	n/a
3057879	WORD	wordpools/wasnorm_wordpool_less_exclusions.txt	LTP273	ltpFR	8	10	1	TEAM	1441	n/a	1	n/a	0	0	0	1	0.412841796875	0.57763671875	lower	../fonts/amplitud.ttf
3060896	START	n/a	LTP273	ltpFR	8	n/a	n/a	n/a	n/a	n/a	n/a	n/a	n/a	n/a	n/a	n/a	n/a	n/a	n/a	n/a
3061782	PROB	n/a	LTP273	ltpFR	8	n/a	n/a	n/a	n/a	n/a	n/a	4	1	3	3	n/a	n/a	n/a	n/a	n/a
3063388	PROB	n/a	LTP273	ltpFR	8	n/a	n/a	n/a	n/a	n/a	n/a	18	5	4	9	n/a	n/a	n/a	n/a	n/a
3069210	PROB	n/a	LTP273	ltpFR	8	n/a	n/a	n/a	n/a	n/a	n/a	16	1	6	9	n/a	n/a	n/a	n/a	n/a
3071497	PROB	n/a	LTP273	ltpFR	8	n/a	n/a	n/a	n/a	n/a	n/a	11	2	3	6	n/a	n/a	n/a	n/a	n/a
3073108	PROB	n/a	LTP273	ltpFR	8	n/a	n/a	n/a	n/a	n/a	n/a	21	8	9	5	n/a	n/a	n/a	n/a	n/a
3076526	STOP	n/a	LTP273	ltpFR	8	n/a	n/a	n/a	n/a	n/a	n/a	n/a	n/a	n/a	n/a	n/a	n/a	n/a	n/a	n/a
3077859	WORD	wordpools/wasnorm_wordpool_less_exclusions.txt	LTP273	ltpFR	8	10	1	PAVEMENT	1028	n/a	0	n/a	0	0	0	1	0.412841796875	0.57763671875	lower	../fonts/amplitud.ttf
3080871	START	n/a	LTP273	ltpFR	8	n/a	n/a	n/a	n/a	n/a	n/a	n/a	n/a	n/a	n/a	n/a	n/a	n/a	n/a	n/a
3081975	PROB	n/a	LTP273	ltpFR	8	n/a	n/a	n/a	n/a	n/a	n/a	20	7	9	4	n/a	n/a	n/a	n/a	n/a
3086224	PROB	n/a	LTP273	ltpFR	8	n/a	n/a	n/a	n/a	n/a	n/a	17	8	5	4	n/a	n/a	n/a	n/a	n/a
3088817	PROB	n/a	LTP273	ltpFR	8	n/a	n/a	n/a	n/a	n/a	n/a	11	2	5	4	n/a	n/a	n/a	n/a	n/a
3096870	STOP	n/a	LTP273	ltpFR	8	n/a	n/a	n/a	n/a	n/a	n/a	n/a	n/a	n/a	n/a	n/a	n/a	n/a	n/a	n/a
3098097	WORD	wordpools/wasnorm_wordpool_less_exclusions.txt	LTP273	ltpFR	8	10	1	PATH	1023	n/a	0	n/a	0	0	0	1	0.412841796875	0.57763671875	lower	../fonts/amplitud.ttf
3101114	START	n/a	LTP273	ltpFR	8	n/a	n/a	n/a	n/a	n/a	n/a	n/a	n/a	n/a	n/a	n/a	n/a	n/a	n/a	n/a
3102062	PROB	n/a	LTP273	ltpFR	8	n/a	n/a	n/a	n/a	n/a	n/a	13	8	2	3	n/a	n/a	n/a	n/a	n/a
3104075	PROB	n/a	LTP273	ltpFR	8	n/a	n/a	n/a	n/a	n/a	n/a	17	9	3	5	n/a	n/a	n/a	n/a	n/a
3105943	PROB	n/a	LTP273	ltpFR	8	n/a	n/a	n/a	n/a	n/a	n/a	10	4	1	5	n/a	n/a	n/a	n/a	n/a
3107839	PROB	n/a	LTP273	ltpFR	8	n/a	n/a	n/a	n/a	n/a	n/a	1	3	5	9	n/a	n/a	n/a	n/a	n/a
3109405	PROB	n/a	LTP273	ltpFR	8	n/a	n/a	n/a	n/a	n/a	n/a	12	2	3	7	n/a	n/a	n/a	n/a	n/a
3112568	PROB	n/a	LTP273	ltpFR	8	n/a	n/a	n/a	n/a	n/a	n/a	20	7	4	9	n/a	n/a	n/a	n/a	n/a
3115998	STOP	n/a	LTP273	ltpFR	8	n/a	n/a	n/a	n/a	n/a	n/a	n/a	n/a	n/a	n/a	n/a	n/a	n/a	n/a	n/a
3118262	WORD	wordpools/wasnorm_wordpool_less_exclusions.txt	LTP273	ltpFR	8	10	1	TICKET	1464	n/a	0	n/a	0	0	0	1	0.412841796875	0.57763671875	lower	../fonts/amplitud.ttf
3121274	START	n/a	LTP273	ltpFR	8	n/a	n/a	n/a	n/a	n/a	n/a	n/a	n/a	n/a	n/a	n/a	n/a	n/a	n/a	n/a
3122478	PROB	n/a	LTP273	ltpFR	8	n/a	n/a	n/a	n/a	n/a	n/a	17	3	7	7	n/a	n/a	n/a	n/a	n/a
3123961	PROB	n/a	LTP273	ltpFR	8	n/a	n/a	n/a	n/a	n/a	n/a	10	1	5	4	n/a	n/a	n/a	n/a	n/a
3128333	PROB	n/a	LTP273	ltpFR	8	n/a	n/a	n/a	n/a	n/a	n/a	15	1	6	9	n/a	n/a	n/a	n/a	n/a
3131194	PROB	n/a	LTP273	ltpFR	8	n/a	n/a	n/a	n/a	n/a	n/a	9	3	1	5	n/a	n/a	n/a	n/a	n/a
3137274	STOP	n/a	LTP273	ltpFR	8	n/a	n/a	n/a	n/a	n/a	n/a	n/a	n/a	n/a	n/a	n/a	n/a	n/a	n/a	n/a
3138137	WORD	wordpools/wasnorm_wordpool_less_exclusions.txt	LTP273	ltpFR	8	10	1	ACTOR	5	n/a	1	n/a	0	0	0	1	0.412841796875	0.57763671875	lower	../fonts/amplitud.ttf
3141149	START	n/a	LTP273	ltpFR	8	n/a	n/a	n/a	n/a	n/a	n/a	n/a	n/a	n/a	n/a	n/a	n/a	n/a	n/a	n/a
3142269	PROB	n/a	LTP273	ltpFR	8	n/a	n/a	n/a	n/a	n/a	n/a	18	4	8	6	n/a	n/a	n/a	n/a	n/a
3145124	PROB	n/a	LTP273	ltpFR	8	n/a	n/a	n/a	n/a	n/a	n/a	21	9	6	6	n/a	n/a	n/a	n/a	n/a
3149256	PROB	n/a	LTP273	ltpFR	8	n/a	n/a	n/a	n/a	n/a	n/a	13	1	3	9	n/a	n/a	n/a	n/a	n/a
3151548	PROB	n/a	LTP273	ltpFR	8	n/a	n/a	n/a	n/a	n/a	n/a	19	5	5	9	n/a	n/a	n/a	n/a	n/a
3153227	PROB	n/a	LTP273	ltpFR	8	n/a	n/a	n/a	n/a	n/a	n/a	23	8	6	9	n/a	n/a	n/a	n/a	n/a
3155926	STOP	n/a	LTP273	ltpFR	8	n/a	n/a	n/a	n/a	n/a	n/a	n/a	n/a	n/a	n/a	n/a	n/a	n/a	n/a	n/a
3158062	WORD	wordpools/wasnorm_wordpool_less_exclusions.txt	LTP273	ltpFR	8	10	1	VIKING	1565	n/a	1	n/a	0	0	0	1	0.412841796875	0.57763671875	lower	../fonts/amplitud.ttf
3161074	START	n/a	LTP273	ltpFR	8	n/a	n/a	n/a	n/a	n/a	n/a	n/a	n/a	n/a	n/a	n/a	n/a	n/a	n/a	n/a
3162194	PROB	n/a	LTP273	ltpFR	8	n/a	n/a	n/a	n/a	n/a	n/a	13	5	1	7	n/a	n/a	n/a	n/a	n/a
3165718	PROB	n/a	LTP273	ltpFR	8	n/a	n/a	n/a	n/a	n/a	n/a	15	4	6	5	n/a	n/a	n/a	n/a	n/a
3167057	PROB	n/a	LTP273	ltpFR	8	n/a	n/a	n/a	n/a	n/a	n/a	17	6	9	2	n/a	n/a	n/a	n/a	n/a
3170626	PROB	n/a	LTP273	ltpFR	8	n/a	n/a	n/a	n/a	n/a	n/a	15	9	2	4	n/a	n/a	n/a	n/a	n/a
3173453	PROB	n/a	LTP273	ltpFR	8	n/a	n/a	n/a	n/a	n/a	n/a	7	3	2	3	n/a	n/a	n/a	n/a	n/a
3177074	STOP	n/a	LTP273	ltpFR	8	n/a	n/a	n/a	n/a	n/a	n/a	n/a	n/a	n/a	n/a	n/a	n/a	n/a	n/a	n/a
3178004	WORD	wordpools/wasnorm_wordpool_less_exclusions.txt	LTP273	ltpFR	8	10	1	CRITIC	410	n/a	1	n/a	0	0	0	1	0.412841796875	0.57763671875	lower	../fonts/amplitud.ttf
3181016	START	n/a	LTP273	ltpFR	8	n/a	n/a	n/a	n/a	n/a	n/a	n/a	n/a	n/a	n/a	n/a	n/a	n/a	n/a	n/a
3181952	PROB	n/a	LTP273	ltpFR	8	n/a	n/a	n/a	n/a	n/a	n/a	16	7	1	8	n/a	n/a	n/a	n/a	n/a
3197015	STOP	n/a	LTP273	ltpFR	8	n/a	n/a	n/a	n/a	n/a	n/a	n/a	n/a	n/a	n/a	n/a	n/a	n/a	n/a	n/a
3198146	WORD	wordpools/wasnorm_wordpool_less_exclusions.txt	LTP273	ltpFR	8	10	1	STAGE	1366	n/a	1	n/a	0	0	0	1	0.412841796875	0.57763671875	lower	../fonts/amplitud.ttf
3201158	START	n/a	LTP273	ltpFR	8	n/a	n/a	n/a	n/a	n/a	n/a	n/a	n/a	n/a	n/a	n/a	n/a	n/a	n/a	n/a
3201994	PROB	n/a	LTP273	ltpFR	8	n/a	n/a	n/a	n/a	n/a	n/a	18	8	4	6	n/a	n/a	n/a	n/a	n/a
3203834	PROB	n/a	LTP273	ltpFR	8	n/a	n/a	n/a	n/a	n/a	n/a	7	3	2	2	n/a	n/a	n/a	n/a	n/a
3206544	PROB	n/a	LTP273	ltpFR	8	n/a	n/a	n/a	n/a	n/a	n/a	11	3	4	4	n/a	n/a	n/a	n/a	n/a
3208569	PROB	n/a	LTP273	ltpFR	8	n/a	n/a	n/a	n/a	n/a	n/a	14	2	3	9	n/a	n/a	n/a	n/a	n/a
3213052	PROB	n/a	LTP273	ltpFR	8	n/a	n/a	n/a	n/a	n/a	n/a	15	2	8	5	n/a	n/a	n/a	n/a	n/a
3214720	PROB	n/a	LTP273	ltpFR	8	n/a	n/a	n/a	n/a	n/a	n/a	18	6	4	8	n/a	n/a	n/a	n/a	n/a
3215942	STOP	n/a	LTP273	ltpFR	8	n/a	n/a	n/a	n/a	n/a	n/a	n/a	n/a	n/a	n/a	n/a	n/a	n/a	n/a	n/a
3217988	WORD	wordpools/wasnorm_wordpool_less_exclusions.txt	LTP273	ltpFR	8	10	1	CATCHER	258	n/a	0	n/a	0	0	0	1	0.412841796875	0.57763671875	lower	../fonts/amplitud.ttf
3221000	START	n/a	LTP273	ltpFR	8	n/a	n/a	n/a	n/a	n/a	n/a	n/a	n/a	n/a	n/a	n/a	n/a	n/a	n/a	n/a
3222131	PROB	n/a	LTP273	ltpFR	8	n/a	n/a	n/a	n/a	n/a	n/a	16	6	4	6	n/a	n/a	n/a	n/a	n/a
3223726	PROB	n/a	LTP273	ltpFR	8	n/a	n/a	n/a	n/a	n/a	n/a	18	7	5	6	n/a	n/a	n/a	n/a	n/a
3226436	PROB	n/a	LTP273	ltpFR	8	n/a	n/a	n/a	n/a	n/a	n/a	7	3	3	1	n/a	n/a	n/a	n/a	n/a
3228338	PROB	n/a	LTP273	ltpFR	8	n/a	n/a	n/a	n/a	n/a	n/a	7	4	2	1	n/a	n/a	n/a	n/a	n/a
3230217	PROB	n/a	LTP273	ltpFR	8	n/a	n/a	n/a	n/a	n/a	n/a	20	4	8	8	n/a	n/a	n/a	n/a	n/a
3237000	STOP	n/a	LTP273	ltpFR	8	n/a	n/a	n/a	n/a	n/a	n/a	n/a	n/a	n/a	n/a	n/a	n/a	n/a	n/a	n/a
3237896	WORD	wordpools/wasnorm_wordpool_less_exclusions.txt	LTP273	ltpFR	8	10	1	PIER	1063	n/a	0	n/a	0	0	0	1	0.412841796875	0.57763671875	lower	../fonts/amplitud.ttf
3240908	START	n/a	LTP273	ltpFR	8	n/a	n/a	n/a	n/a	n/a	n/a	n/a	n/a	n/a	n/a	n/a	n/a	n/a	n/a	n/a
3241827	PROB	n/a	LTP273	ltpFR	8	n/a	n/a	n/a	n/a	n/a	n/a	19	7	3	9	n/a	n/a	n/a	n/a	n/a
3243567	PROB	n/a	LTP273	ltpFR	8	n/a	n/a	n/a	n/a	n/a	n/a	10	1	2	7	n/a	n/a	n/a	n/a	n/a
3245257	PROB	n/a	LTP273	ltpFR	8	n/a	n/a	n/a	n/a	n/a	n/a	20	8	4	8	n/a	n/a	n/a	n/a	n/a
3250956	PROB	n/a	LTP273	ltpFR	8	n/a	n/a	n/a	n/a	n/a	n/a	6	2	1	3	n/a	n/a	n/a	n/a	n/a
3256908	STOP	n/a	LTP273	ltpFR	8	n/a	n/a	n/a	n/a	n/a	n/a	n/a	n/a	n/a	n/a	n/a	n/a	n/a	n/a	n/a
3257754	WORD	wordpools/wasnorm_wordpool_less_exclusions.txt	LTP273	ltpFR	8	10	1	SKI	1316	n/a	0	n/a	0	0	0	1	0.412841796875	0.57763671875	lower	../fonts/amplitud.ttf
3260766	START	n/a	LTP273	ltpFR	8	n/a	n/a	n/a	n/a	n/a	n/a	n/a	n/a	n/a	n/a	n/a	n/a	n/a	n/a	n/a
3261970	PROB	n/a	LTP273	ltpFR	8	n/a	n/a	n/a	n/a	n/a	n/a	14	9	2	3	n/a	n/a	n/a	n/a	n/a
3264257	PROB	n/a	LTP273	ltpFR	8	n/a	n/a	n/a	n/a	n/a	n/a	20	9	3	8	n/a	n/a	n/a	n/a	n/a
3266353	PROB	n/a	LTP273	ltpFR	8	n/a	n/a	n/a	n/a	n/a	n/a	11	2	3	6	n/a	n/a	n/a	n/a	n/a
3268026	PROB	n/a	LTP273	ltpFR	8	n/a	n/a	n/a	n/a	n/a	n/a	9	2	2	5	n/a	n/a	n/a	n/a	n/a
3269828	PROB	n/a	LTP273	ltpFR	8	n/a	n/a	n/a	n/a	n/a	n/a	14	1	9	4	n/a	n/a	n/a	n/a	n/a
3271807	PROB	n/a	LTP273	ltpFR	8	n/a	n/a	n/a	n/a	n/a	n/a	21	9	7	5	n/a	n/a	n/a	n/a	n/a
3274199	PROB	n/a	LTP273	ltpFR	8	n/a	n/a	n/a	n/a	n/a	n/a	12	2	4	6	n/a	n/a	n/a	n/a	n/a
3276094	STOP	n/a	LTP273	ltpFR	8	n/a	n/a	n/a	n/a	n/a	n/a	n/a	n/a	n/a	n/a	n/a	n/a	n/a	n/a	n/a
3277897	WORD	wordpools/wasnorm_wordpool_less_exclusions.txt	LTP273	ltpFR	8	10	1	EYE	545	n/a	1	n/a	0	0	0	1	0.412841796875	0.57763671875	lower	../fonts/amplitud.ttf
3280908	START	n/a	LTP273	ltpFR	8	n/a	n/a	n/a	n/a	n/a	n/a	n/a	n/a	n/a	n/a	n/a	n/a	n/a	n/a	n/a
3281912	PROB	n/a	LTP273	ltpFR	8	n/a	n/a	n/a	n/a	n/a	n/a	10	2	7	1	n/a	n/a	n/a	n/a	n/a
3284617	PROB	n/a	LTP273	ltpFR	8	n/a	n/a	n/a	n/a	n/a	n/a	15	6	4	5	n/a	n/a	n/a	n/a	n/a
3286011	PROB	n/a	LTP273	ltpFR	8	n/a	n/a	n/a	n/a	n/a	n/a	17	7	4	6	n/a	n/a	n/a	n/a	n/a
3288648	PROB	n/a	LTP273	ltpFR	8	n/a	n/a	n/a	n/a	n/a	n/a	15	8	2	5	n/a	n/a	n/a	n/a	n/a
3290929	PROB	n/a	LTP273	ltpFR	8	n/a	n/a	n/a	n/a	n/a	n/a	14	3	5	9	n/a	n/a	n/a	n/a	n/a
3296908	STOP	n/a	LTP273	ltpFR	8	n/a	n/a	n/a	n/a	n/a	n/a	n/a	n/a	n/a	n/a	n/a	n/a	n/a	n/a	n/a
3298659	REC_START	n/a	LTP273	ltpFR	8	10	n/a	n/a	n/a	n/a	n/a	n/a	0	0	0	n/a	n/a	n/a	n/a	n/a
3302639	REC_WORD	wordpools/wasnorm_wordpool_less_exclusions.txt	LTP273	ltpFR	8	10	1	PERSONNEL	1053	n/a	1	n/a	0	0	0	n/a	n/a	n/a	n/a	n/a
3304438	REC_WORD	wordpools/wasnorm_wordpool_less_exclusions.txt	LTP273	ltpFR	8	10	1	TEAM	1441	n/a	1	n/a	0	0	0	n/a	n/a	n/a	n/a	n/a
3306121	REC_WORD	wordpools/wasnorm_wordpool_less_exclusions.txt	LTP273	ltpFR	8	10	1	PATH	1023	n/a	0	n/a	0	0	0	n/a	n/a	n/a	n/a	n/a
3464896	WORD	wordpools/wasnorm_wordpool_less_exclusions.txt	LTP273	ltpFR	8	11	1	STAFF	1365	n/a	0	n/a	0	0	0	1	0.412841796875	0.57763671875	lower	../fonts/amplitud.ttf
3469078	WORD	wordpools/wasnorm_wordpool_less_exclusions.txt	LTP273	ltpFR	8	11	1	INSTRUCTOR	741	n/a	1	n/a	0	0	0	1	0.412841796875	0.57763671875	lower	../fonts/amplitud.ttf
3473015	WORD	wordpools/wasnorm_wordpool_less_exclusions.txt	LTP273	ltpFR	8	11	1	NERVE	944	n/a	1	n/a	0	0	0	1	0.412841796875	0.57763671875	lower	../fonts/amplitud.ttf
3476980	WORD	wordpools/wasnorm_wordpool_less_exclusions.txt	LTP273	ltpFR	8	11	0	CHEEK	287	n/a	0	n/a	0	0	0	0	0.5869140625	0.422607421875	upper	../fonts/zerothre.ttf
3481096	WORD	wordpools/wasnorm_wordpool_less_exclusions.txt	LTP273	ltpFR	8	11	0	BROOK	177	n/a	1	n/a	0	0	0	0	0.5869140625	0.422607421875	upper	../fonts/zerothre.ttf
3485027	WORD	wordpools/wasnorm_wordpool_less_exclusions.txt	LTP273	ltpFR	8	11	0	MATCH	878	n/a	0	n/a	0	0	0	0	0.5869140625	0.422607421875	upper	../fonts/zerothre.ttf
3489093	WORD	wordpools/wasnorm_wordpool_less_exclusions.txt	LTP273	ltpFR	8	11	0	VINEGAR	1569	n/a	0	n/a	0	0	0	0	0.5869140625	0.422607421875	upper	../fonts/zerothre.ttf
3493303	WORD	wordpools/wasnorm_wordpool_less_exclusions.txt	LTP273	ltpFR	8	11	0	PLUTO	1092	n/a	1	n/a	0	0	0	0	0.5869140625	0.422607421875	upper	../fonts/zerothre.ttf
3497318	WORD	wordpools/wasnorm_wordpool_less_exclusions.txt	LTP273	ltpFR	8	11	1	INFANT	737	n/a	1	n/a	0	0	0	1	0.412841796875	0.57763671875	lower	../fonts/amplitud.ttf
3501339	WORD	wordpools/wasnorm_wordpool_less_exclusions.txt	LTP273	ltpFR	8	11	1	POWDER	1117	n/a	0	n/a	0	0	0	1	0.412841796875	0.57763671875	lower	../fonts/amplitud.ttf
3505365	WORD	wordpools/wasnorm_wordpool_less_exclusions.txt	LTP273	ltpFR	8	11	0	DUST	508	n/a	0	n/a	0	0	0	0	0.5869140625	0.422607421875	upper	../fonts/zerothre.ttf
3509481	WORD	wordpools/wasnorm_wordpool_less_exclusions.txt	LTP273	ltpFR	8	11	0	BEAST	108	n/a	1	n/a	0	0	0	0	0.5869140625	0.422607421875	upper	../fonts/zerothre.ttf
3513496	WORD	wordpools/wasnorm_wordpool_less_exclusions.txt	LTP273	ltpFR	8	11	0	FOOTBALL	591	n/a	1	n/a	0	0	0	0	0.5869140625	0.422607421875	upper	../fonts/zerothre.ttf
3517600	WORD	wordpools/wasnorm_wordpool_less_exclusions.txt	LTP273	ltpFR	8	11	1	ACROBAT	4	n/a	0	n/a	0	0	0	1	0.412841796875	0.57763671875	lower	../fonts/amplitud.ttf
3521615	WORD	wordpools/wasnorm_wordpool_less_exclusions.txt	LTP273	ltpFR	8	11	1	PAIL	1002	n/a	0	n/a	0	0	0	1	0.412841796875	0.57763671875	lower	../fonts/amplitud.ttf
3525664	WORD	wordpools/wasnorm_wordpool_less_exclusions.txt	LTP273	ltpFR	8	11	1	ONION	977	n/a	0	n/a	0	0	0	1	0.412841796875	0.57763671875	lower	../fonts/amplitud.ttf
3528676	START	n/a	LTP273	ltpFR	8	n/a	n/a	n/a	n/a	n/a	n/a	n/a	n/a	n/a	n/a	n/a	n/a	n/a	n/a	n/a
3529562	PROB	n/a	LTP273	ltpFR	8	n/a	n/a	n/a	n/a	n/a	n/a	23	9	7	8	n/a	n/a	n/a	n/a	n/a
3534458	PROB	n/a	LTP273	ltpFR	8	n/a	n/a	n/a	n/a	n/a	n/a	15	6	5	4	n/a	n/a	n/a	n/a	n/a
3538139	PROB	n/a	LTP273	ltpFR	8	n/a	n/a	n/a	n/a	n/a	n/a	20	9	3	8	n/a	n/a	n/a	n/a	n/a
3540531	PROB	n/a	LTP273	ltpFR	8	n/a	n/a	n/a	n/a	n/a	n/a	21	8	6	7	n/a	n/a	n/a	n/a	n/a
3544676	STOP	n/a	LTP273	ltpFR	8	n/a	n/a	n/a	n/a	n/a	n/a	n/a	n/a	n/a	n/a	n/a	n/a	n/a	n/a	n/a
3546510	REC_START	n/a	LTP273	ltpFR	8	11	n/a	n/a	n/a	n/a	n/a	n/a	0	0	0	n/a	n/a	n/a	n/a	n/a
3554040	REC_WORD	wordpools/wasnorm_wordpool_less_exclusions.txt	LTP273	ltpFR	8	11	1	PAIL	1002	n/a	0	n/a	0	0	0	n/a	n/a	n/a	n/a	n/a
3648990	WORD	wordpools/wasnorm_wordpool_less_exclusions.txt	LTP273	ltpFR	8	12	0	BAG	69	n/a	0	n/a	0	0	0	0	0.5869140625	0.422607421875	upper	../fonts/zerothre.ttf
3653077	WORD	wordpools/wasnorm_wordpool_less_exclusions.txt	LTP273	ltpFR	8	12	0	GUARD	667	n/a	1	n/a	0	0	0	0	0.5869140625	0.422607421875	upper	../fonts/zerothre.ttf
3656942	WORD	wordpools/wasnorm_wordpool_less_exclusions.txt	LTP273	ltpFR	8	12	0	VIOLA	1570	n/a	1	n/a	0	0	0	0	0.5869140625	0.422607421875	upper	../fonts/zerothre.ttf
3660823	WORD	wordpools/wasnorm_wordpool_less_exclusions.txt	LTP273	ltpFR	8	12	1	PICNIC	1060	n/a	0	n/a	0	0	0	1	0.412841796875	0.57763671875	lower	../fonts/amplitud.ttf
3664889	WORD	wordpools/wasnorm_wordpool_less_exclusions.txt	LTP273	ltpFR	8	12	1	SERVER	1272	n/a	1	n/a	0	0	0	1	0.412841796875	0.57763671875	lower	../fonts/amplitud.ttf
3668870	WORD	wordpools/wasnorm_wordpool_less_exclusions.txt	LTP273	ltpFR	8	12	1	SQUID	1361	n/a	1	n/a	0	0	0	1	0.412841796875	0.57763671875	lower	../fonts/amplitud.ttf
3672885	WORD	wordpools/wasnorm_wordpool_less_exclusions.txt	LTP273	ltpFR	8	12	1	FISH	571	n/a	1	n/a	0	0	0	1	0.412841796875	0.57763671875	lower	../fonts/amplitud.ttf
3676834	WORD	wordpools/wasnorm_wordpool_less_exclusions.txt	LTP273	ltpFR	8	12	0	DRESS	495	n/a	0	n/a	0	0	0	0	0.5869140625	0.422607421875	upper	../fonts/zerothre.ttf
3680832	WORD	wordpools/wasnorm_wordpool_less_exclusions.txt	LTP273	ltpFR	8	12	0	OBOE	969	n/a	0	n/a	0	0	0	0	0.5869140625	0.422607421875	upper	../fonts/zerothre.ttf
3684825	WORD	wordpools/wasnorm_wordpool_less_exclusions.txt	LTP273	ltpFR	8	12	1	CARPENTER	246	n/a	1	n/a	0	0	0	1	0.412841796875	0.57763671875	lower	../fonts/amplitud.ttf
3688812	WORD	wordpools/wasnorm_wordpool_less_exclusions.txt	LTP273	ltpFR	8	12	1	SHORTS	1293	n/a	0	n/a	0	0	0	1	0.412841796875	0.57763671875	lower	../fonts/amplitud.ttf
3692710	WORD	wordpools/wasnorm_wordpool_less_exclusions.txt	LTP273	ltpFR	8	12	1	BIBLE	124	n/a	1	n/a	0	0	0	1	0.412841796875	0.57763671875	lower	../fonts/amplitud.ttf
3696809	WORD	wordpools/wasnorm_wordpool_less_exclusions.txt	LTP273	ltpFR	8	12	1	OPERA	978	n/a	1	n/a	0	0	0	1	0.412841796875	0.57763671875	lower	../fonts/amplitud.ttf
3700807	WORD	wordpools/wasnorm_wordpool_less_exclusions.txt	LTP273	ltpFR	8	12	0	BULLY	196	n/a	0	n/a	0	0	0	0	0.5869140625	0.422607421875	upper	../fonts/zerothre.ttf
3704901	WORD	wordpools/wasnorm_wordpool_less_exclusions.txt	LTP273	ltpFR	8	12	0	PAWN	1030	n/a	0	n/a	0	0	0	0	0.5869140625	0.422607421875	upper	../fonts/zerothre.ttf
3708748	WORD	wordpools/wasnorm_wordpool_less_exclusions.txt	LTP273	ltpFR	8	12	0	LITTER	832	n/a	0	n/a	0	0	0	0	0.5869140625	0.422607421875	upper	../fonts/zerothre.ttf
3711766	START	n/a	LTP273	ltpFR	8	n/a	n/a	n/a	n/a	n/a	n/a	n/a	n/a	n/a	n/a	n/a	n/a	n/a	n/a	n/a
3712618	PROB	n/a	LTP273	ltpFR	8	n/a	n/a	n/a	n/a	n/a	n/a	13	7	3	3	n/a	n/a	n/a	n/a	n/a
3714420	PROB	n/a	LTP273	ltpFR	8	n/a	n/a	n/a	n/a	n/a	n/a	6	1	2	3	n/a	n/a	n/a	n/a	n/a
3716210	PROB	n/a	LTP273	ltpFR	8	n/a	n/a	n/a	n/a	n/a	n/a	10	3	3	4	n/a	n/a	n/a	n/a	n/a
3718822	STOP	n/a	LTP273	ltpFR	8	n/a	n/a	n/a	n/a	n/a	n/a	n/a	n/a	n/a	n/a	n/a	n/a	n/a	n/a	n/a
3721598	REC_START	n/a	LTP273	ltpFR	8	12	n/a	n/a	n/a	n/a	n/a	n/a	0	0	0	n/a	n/a	n/a	n/a	n/a
3722736	REC_WORD	wordpools/wasnorm_wordpool_less_exclusions.txt	LTP273	ltpFR	8	12	0	BULLY	196	n/a	0	n/a	0	0	0	n/a	n/a	n/a	n/a	n/a
3724762	REC_WORD	wordpools/wasnorm_wordpool_less_exclusions.txt	LTP273	ltpFR	8	12	1	OPERA	978	n/a	1	n/a	0	0	0	n/a	n/a	n/a	n/a	n/a
3732370	REC_WORD	wordpools/wasnorm_wordpool_less_exclusions.txt	LTP273	ltpFR	8	12	1	SQUID	1361	n/a	1	n/a	0	0	0	n/a	n/a	n/a	n/a	n/a
3733738	REC_WORD_VV	wordpools/wasnorm_wordpool_less_exclusions.txt	LTP273	ltpFR	8	12	n/a	<>	-1	n/a	n/a	n/a	0	0	0	n/a	n/a	n/a	n/a	n/a
3734846	REC_WORD	wordpools/wasnorm_wordpool_less_exclusions.txt	LTP273	ltpFR	8	12	1	FISH	571	n/a	1	n/a	0	0	0	n/a	n/a	n/a	n/a	n/a
3736293	REC_WORD	wordpools/wasnorm_wordpool_less_exclusions.txt	LTP273	ltpFR	8	12	1	PICNIC	1060	n/a	0	n/a	0	0	0	n/a	n/a	n/a	n/a	n/a
3737480	REC_WORD	wordpools/wasnorm_wordpool_less_exclusions.txt	LTP273	ltpFR	8	12	0	GUARD	667	n/a	1	n/a	0	0	0	n/a	n/a	n/a	n/a	n/a
3738607	REC_WORD	wordpools/wasnorm_wordpool_less_exclusions.txt	LTP273	ltpFR	8	12	0	VIOLA	1570	n/a	1	n/a	0	0	0	n/a	n/a	n/a	n/a	n/a
3739998	REC_WORD	wordpools/wasnorm_wordpool_less_exclusions.txt	LTP273	ltpFR	8	12	0	BAG	69	n/a	0	n/a	0	0	0	n/a	n/a	n/a	n/a	n/a
3741421	REC_WORD	wordpools/wasnorm_wordpool_less_exclusions.txt	LTP273	ltpFR	8	12	0	OBOE	969	n/a	0	n/a	0	0	0	n/a	n/a	n/a	n/a	n/a
3981595	REC_START	n/a	LTP273	ltpFR	8	1	n/a	n/a	n/a	n/a	n/a	n/a	0	0	0	n/a	n/a	n/a	n/a	n/a
3981649	RECOG_TARGET	n/a	LTP273	ltpFR	8	1	0	HINGE	709	5	0	n/a	0	0	0	n/a	n/a	n/a	n/a	n/a
3983670	RECOG_RESP	n/a	LTP273	ltpFR	8	1	0	HINGE	709	n/a	0	n/a	0	0	0	n/a	n/a	n/a	n/a	n/a
3984685	RECOG_CONF	n/a	LTP273	ltpFR	8	1	0	HINGE	709	5	0	n/a	0	0	0	n/a	n/a	n/a	n/a	n/a
3986663	RECOG_TARGET	n/a	LTP273	ltpFR	8	1	1	SLIDE	1326	4	0	n/a	0	0	0	n/a	n/a	n/a	n/a	n/a
3987355	RECOG_RESP	n/a	LTP273	ltpFR	8	1	1	SLIDE	1326	n/a	0	n/a	0	0	0	n/a	n/a	n/a	n/a	n/a
3987935	RECOG_CONF	n/a	LTP273	ltpFR	8	1	1	SLIDE	1326	4	0	n/a	0	0	0	n/a	n/a	n/a	n/a	n/a
3989574	RECOG_LURE	n/a	LTP273	ltpFR	8	1	n/a	DENTIST	447	2	n/a	n/a	0	0	0	n/a	n/a	n/a	n/a	n/a
3991770	RECOG_RESP	n/a	LTP273	ltpFR	8	1	n/a	DENTIST	447	n/a	n/a	n/a	0	0	0	n/a	n/a	n/a	n/a	n/a
3992435	RECOG_CONF	n/a	LTP273	ltpFR	8	1	n/a	DENTIST	447	2	n/a	n/a	0	0	0	n/a	n/a	n/a	n/a	n/a
3994046	RECOG_TARGET	n/a	LTP273	ltpFR	8	1	0	MOSQUITO	917	3	1	n/a	0	0	0	n/a	n/a	n/a	n/a	n/a
3994680	RECOG_RESP	n/a	LTP273	ltpFR	8	1	0	MOSQUITO	917	n/a	1	n/a	0	0	0	n/a	n/a	n/a	n/a	n/a
3995295	RECOG_CONF	n/a	LTP273	ltpFR	8	1	0	MOSQUITO	917	3	1	n/a	0	0	0	n/a	n/a	n/a	n/a	n/a
3996973	RECOG_LURE	n/a	LTP273	ltpFR	8	1	n/a	BEVERAGE	123	2	n/a	n/a	0	0	0	n/a	n/a	n/a	n/a	n/a
3998125	RECOG_RESP	n/a	LTP273	ltpFR	8	1	n/a	BEVERAGE	123	n/a	n/a	n/a	0	0	0	n/a	n/a	n/a	n/a	n/a
3998765	RECOG_CONF	n/a	LTP273	ltpFR	8	1	n/a	BEVERAGE	123	2	n/a	n/a	0	0	0	n/a	n/a	n/a	n/a	n/a
4000520	RECOG_TARGET	n/a	LTP273	ltpFR	8	1	0	SIGN	1305	4	1	n/a	0	0	0	n/a	n/a	n/a	n/a	n/a
4000970	RECOG_RESP	n/a	LTP273	ltpFR	8	1	0	SIGN	1305	n/a	1	n/a	0	0	0	n/a	n/a	n/a	n/a	n/a
4001435	RECOG_CONF	n/a	LTP273	ltpFR	8	1	0	SIGN	1305	4	1	n/a	0	0	0	n/a	n/a	n/a	n/a	n/a
4003214	RECOG_TARGET	n/a	LTP273	ltpFR	8	1	1	POLITICIAN	1099	3	1	n/a	0	0	0	n/a	n/a	n/a	n/a	n/a
4003720	RECOG_RESP	n/a	LTP273	ltpFR	8	1	1	POLITICIAN	1099	n/a	1	n/a	0	0	0	n/a	n/a	n/a	n/a	n/a
4004295	RECOG_CONF	n/a	LTP273	ltpFR	8	1	1	POLITICIAN	1099	3	1	n/a	0	0	0	n/a	n/a	n/a	n/a	n/a
4005907	RECOG_LURE	n/a	LTP273	ltpFR	8	1	n/a	STREAM	1392	4	n/a	n/a	0	0	0	n/a	n/a	n/a	n/a	n/a
4006340	RECOG_RESP	n/a	LTP273	ltpFR	8	1	n/a	STREAM	1392	n/a	n/a	n/a	0	0	0	n/a	n/a	n/a	n/a	n/a
4006925	RECOG_CONF	n/a	LTP273	ltpFR	8	1	n/a	STREAM	1392	4	n/a	n/a	0	0	0	n/a	n/a	n/a	n/a	n/a
4008545	RECOG_LURE	n/a	LTP273	ltpFR	8	1	n/a	HOUND	724	2	n/a	n/a	0	0	0	n/a	n/a	n/a	n/a	n/a
4009185	RECOG_RESP	n/a	LTP273	ltpFR	8	1	n/a	HOUND	724	n/a	n/a	n/a	0	0	0	n/a	n/a	n/a	n/a	n/a
4009795	RECOG_CONF	n/a	LTP273	ltpFR	8	1	n/a	HOUND	724	2	n/a	n/a	0	0	0	n/a	n/a	n/a	n/a	n/a
4011461	RECOG_TARGET	n/a	LTP273	ltpFR	8	1	0	CASHIER	254	5	1	n/a	0	0	0	n/a	n/a	n/a	n/a	n/a
4012095	RECOG_RESP	n/a	LTP273	ltpFR	8	1	0	CASHIER	254	n/a	1	n/a	0	0	0	n/a	n/a	n/a	n/a	n/a
4012625	RECOG_CONF	n/a	LTP273	ltpFR	8	1	0	CASHIER	254	5	1	n/a	0	0	0	n/a	n/a	n/a	n/a	n/a
4014384	RECOG_TARGET	n/a	LTP273	ltpFR	8	1	1	WHEEL	1603	3	0	n/a	0	0	0	n/a	n/a	n/a	n/a	n/a
4015015	RECOG_RESP	n/a	LTP273	ltpFR	8	1	1	WHEEL	1603	n/a	0	n/a	0	0	0	n/a	n/a	n/a	n/a	n/a
4015555	RECOG_CONF	n/a	LTP273	ltpFR	8	1	1	WHEEL	1603	3	0	n/a	0	0	0	n/a	n/a	n/a	n/a	n/a
4017267	RECOG_LURE	n/a	LTP273	ltpFR	8	1	n/a	ULCER	1533	4	n/a	n/a	0	0	0	n/a	n/a	n/a	n/a	n/a
4017880	RECOG_RESP	n/a	LTP273	ltpFR	8	1	n/a	ULCER	1533	n/a	n/a	n/a	0	0	0	n/a	n/a	n/a	n/a	n/a
4018405	RECOG_CONF	n/a	LTP273	ltpFR	8	1	n/a	ULCER	1533	4	n/a	n/a	0	0	0	n/a	n/a	n/a	n/a	n/a
4020077	RECOG_TARGET	n/a	LTP273	ltpFR	8	1	1	PENGUIN	1044	1	1	n/a	0	0	0	n/a	n/a	n/a	n/a	n/a
4020555	RECOG_RESP	n/a	LTP273	ltpFR	8	1	1	PENGUIN	1044	n/a	1	n/a	0	0	0	n/a	n/a	n/a	n/a	n/a
4021055	RECOG_CONF	n/a	LTP273	ltpFR	8	1	1	PENGUIN	1044	1	1	n/a	0	0	0	n/a	n/a	n/a	n/a	n/a
4022765	RECOG_TARGET	n/a	LTP273	ltpFR	8	1	0	SWEATER	1419	2	0	n/a	0	0	0	n/a	n/a	n/a	n/a	n/a
4023090	RECOG_RESP	n/a	LTP273	ltpFR	8	1	0	SWEATER	1419	n/a	0	n/a	0	0	0	n/a	n/a	n/a	n/a	n/a
4023685	RECOG_CONF	n/a	LTP273	ltpFR	8	1	0	SWEATER	1419	2	0	n/a	0	0	0	n/a	n/a	n/a	n/a	n/a
4025247	RECOG_TARGET	n/a	LTP273	ltpFR	8	1	0	CARTON	251	1	0	n/a	0	0	0	n/a	n/a	n/a	n/a	n/a
4025675	RECOG_RESP	n/a	LTP273	ltpFR	8	1	0	CARTON	251	n/a	0	n/a	0	0	0	n/a	n/a	n/a	n/a	n/a
4026285	RECOG_CONF	n/a	LTP273	ltpFR	8	1	0	CARTON	251	1	0	n/a	0	0	0	n/a	n/a	n/a	n/a	n/a
4027907	RECOG_TARGET	n/a	LTP273	ltpFR	8	1	0	CAPTAIN	239	3	1	n/a	0	0	0	n/a	n/a	n/a	n/a	n/a
4028330	RECOG_RESP	n/a	LTP273	ltpFR	8	1	0	CAPTAIN	239	n/a	1	n/a	0	0	0	n/a	n/a	n/a	n/a	n/a
4028925	RECOG_CONF	n/a	LTP273	ltpFR	8	1	0	CAPTAIN	239	3	1	n/a	0	0	0	n/a	n/a	n/a	n/a	n/a
4030611	RECOG_TARGET	n/a	LTP273	ltpFR	8	1	0	COUCH	386	2	1	n/a	0	0	0	n/a	n/a	n/a	n/a	n/a
4031030	RECOG_RESP	n/a	LTP273	ltpFR	8	1	0	COUCH	386	n/a	1	n/a	0	0	0	n/a	n/a	n/a	n/a	n/a
4031645	RECOG_CONF	n/a	LTP273	ltpFR	8	1	0	COUCH	386	2	1	n/a	0	0	0	n/a	n/a	n/a	n/a	n/a
4033272	RECOG_TARGET	n/a	LTP273	ltpFR	8	1	1	INFANT	737	1	1	n/a	0	0	0	n/a	n/a	n/a	n/a	n/a
4033625	RECOG_RESP	n/a	LTP273	ltpFR	8	1	1	INFANT	737	n/a	1	n/a	0	0	0	n/a	n/a	n/a	n/a	n/a
4034235	RECOG_CONF	n/a	LTP273	ltpFR	8	1	1	INFANT	737	1	1	n/a	0	0	0	n/a	n/a	n/a	n/a	n/a
4035736	RECOG_TARGET	n/a	LTP273	ltpFR	8	1	0	BROOK	177	4	1	n/a	0	0	0	n/a	n/a	n/a	n/a	n/a
4036115	RECOG_RESP	n/a	LTP273	ltpFR	8	1	0	BROOK	177	n/a	1	n/a	0	0	0	n/a	n/a	n/a	n/a	n/a
4036695	RECOG_CONF	n/a	LTP273	ltpFR	8	1	0	BROOK	177	4	1	n/a	0	0	0	n/a	n/a	n/a	n/a	n/a
4038374	RECOG_TARGET	n/a	LTP273	ltpFR	8	1	1	CARPENTER	246	3	1	n/a	0	0	0	n/a	n/a	n/a	n/a	n/a
4038625	RECOG_RESP	n/a	LTP273	ltpFR	8	1	1	CARPENTER	246	n/a	1	n/a	0	0	0	n/a	n/a	n/a	n/a	n/a
4039235	RECOG_CONF	n/a	LTP273	ltpFR	8	1	1	CARPENTER	246	3	1	n/a	0	0	0	n/a	n/a	n/a	n/a	n/a
4043003	REC_START	n/a	LTP273	ltpFR	8	2	n/a	n/a	n/a	n/a	n/a	n/a	0	0	0	n/a	n/a	n/a	n/a	n/a
4043064	RECOG_LURE	n/a	LTP273	ltpFR	8	2	n/a	RECORD	1176	3	n/a	n/a	0	0	0	n/a	n/a	n/a	n/a	n/a
4043798	RECOG_RESP	n/a	LTP273	ltpFR	8	2	n/a	RECORD	1176	n/a	n/a	n/a	0	0	0	n/a	n/a	n/a	n/a	n/a
4044353	RECOG_CONF	n/a	LTP273	ltpFR	8	2	n/a	RECORD	1176	3	n/a	n/a	0	0	0	n/a	n/a	n/a	n/a	n/a
4045852	RECOG_TARGET	n/a	LTP273	ltpFR	8	2	0	SEAFOOD	1260	4	2	n/a	0	0	0	n/a	n/a	n/a	n/a	n/a
4046468	RECOG_RESP	n/a	LTP273	ltpFR	8	2	0	SEAFOOD	1260	n/a	2	n/a	0	0	0	n/a	n/a	n/a	n/a	n/a
4047023	RECOG_CONF	n/a	LTP273	ltpFR	8	2	0	SEAFOOD	1260	4	2	n/a	0	0	0	n/a	n/a	n/a	n/a	n/a
4048646	RECOG_TARGET	n/a	LTP273	ltpFR	8	2	0	ANIMAL	23	5	1	n/a	0	0	0	n/a	n/a	n/a	n/a	n/a
4049108	RECOG_RESP	n/a	LTP273	ltpFR	8	2	0	ANIMAL	23	n/a	1	n/a	0	0	0	n/a	n/a	n/a	n/a	n/a
4049563	RECOG_CONF	n/a	LTP273	ltpFR	8	2	0	ANIMAL	23	5	1	n/a	0	0	0	n/a	n/a	n/a	n/a	n/a
4051178	RECOG_LURE	n/a	LTP273	ltpFR	8	2	n/a	RASPBERRY	1168	2	n/a	n/a	0	0	0	n/a	n/a	n/a	n/a	n/a
4051553	RECOG_RESP_VV	n/a	LTP273	ltpFR	8	2	n/a	RASPBERRY	1168	n/a	n/a	n/a	0	0	0	n/a	n/a	n/a	n/a	n/a
4052603	RECOG_RESP	n/a	LTP273	ltpFR	8	2	n/a	RASPBERRY	1168	n/a	n/a	n/a	0	0	0	n/a	n/a	n/a	n/a	n/a
4054163	RECOG_CONF	n/a	LTP273	ltpFR	8	2	n/a	RASPBERRY	1168	2	n/a	n/a	0	0	0	n/a	n/a	n/a	n/a	n/a
4055912	RECOG_LURE	n/a	LTP273	ltpFR	8	2	n/a	BOSS	152	3	n/a	n/a	0	0	0	n/a	n/a	n/a	n/a	n/a
4056963	RECOG_RESP	n/a	LTP273	ltpFR	8	2	n/a	BOSS	152	n/a	n/a	n/a	0	0	0	n/a	n/a	n/a	n/a	n/a
4057543	RECOG_CONF	n/a	LTP273	ltpFR	8	2	n/a	BOSS	152	3	n/a	n/a	0	0	0	n/a	n/a	n/a	n/a	n/a
4059203	RECOG_TARGET	n/a	LTP273	ltpFR	8	2	0	UNIFORM	1539	3	n/a	n/a	0	0	0	n/a	n/a	n/a	n/a	n/a
4059583	RECOG_RESP	n/a	LTP273	ltpFR	8	2	0	UNIFORM	1539	n/a	n/a	n/a	0	0	0	n/a	n/a	n/a	n/a	n/a
4060183	RECOG_CONF	n/a	LTP273	ltpFR	8	2	0	UNIFORM	1539	3	n/a	n/a	0	0	0	n/a	n/a	n/a	n/a	n/a
4061796	RECOG_LURE	n/a	LTP273	ltpFR	8	2	n/a	RELATIVE	1182	2	n/a	n/a	0	0	0	n/a	n/a	n/a	n/a	n/a
4062468	RECOG_RESP	n/a	LTP273	ltpFR	8	2	n/a	RELATIVE	1182	n/a	n/a	n/a	0	0	0	n/a	n/a	n/a	n/a	n/a
4062933	RECOG_CONF	n/a	LTP273	ltpFR	8	2	n/a	RELATIVE	1182	2	n/a	n/a	0	0	0	n/a	n/a	n/a	n/a	n/a
4064562	RECOG_TARGET	n/a	LTP273	ltpFR	8	2	1	POCKETBOOK	1094	4	0	n/a	0	0	0	n/a	n/a	n/a	n/a	n/a
4065133	RECOG_RESP	n/a	LTP273	ltpFR	8	2	1	POCKETBOOK	1094	n/a	0	n/a	0	0	0	n/a	n/a	n/a	n/a	n/a
4065613	RECOG_CONF	n/a	LTP273	ltpFR	8	2	1	POCKETBOOK	1094	4	0	n/a	0	0	0	n/a	n/a	n/a	n/a	n/a
4067289	RECOG_TARGET	n/a	LTP273	ltpFR	8	2	0	VETERAN	1561	3	1	n/a	0	0	0	n/a	n/a	n/a	n/a	n/a
4067608	RECOG_RESP	n/a	LTP273	ltpFR	8	2	0	VETERAN	1561	n/a	1	n/a	0	0	0	n/a	n/a	n/a	n/a	n/a
4069313	RECOG_CONF	n/a	LTP273	ltpFR	8	2	0	VETERAN	1561	3	1	n/a	0	0	0	n/a	n/a	n/a	n/a	n/a
4071482	RECOG_TARGET	n/a	LTP273	ltpFR	8	2	1	SHIP	1286	1	1	n/a	0	0	0	n/a	n/a	n/a	n/a	n/a
4072878	RECOG_RESP	n/a	LTP273	ltpFR	8	2	1	SHIP	1286	n/a	1	n/a	0	0	0	n/a	n/a	n/a	n/a	n/a
4073493	RECOG_CONF	n/a	LTP273	ltpFR	8	2	1	SHIP	1286	1	1	n/a	0	0	0	n/a	n/a	n/a	n/a	n/a
4075085	RECOG_LURE	n/a	LTP273	ltpFR	8	2	n/a	CUSHION	428	2	n/a	n/a	0	0	0	n/a	n/a	n/a	n/a	n/a
4075463	RECOG_RESP	n/a	LTP273	ltpFR	8	2	n/a	CUSHION	428	n/a	n/a	n/a	0	0	0	n/a	n/a	n/a	n/a	n/a
4075893	RECOG_CONF	n/a	LTP273	ltpFR	8	2	n/a	CUSHION	428	2	n/a	n/a	0	0	0	n/a	n/a	n/a	n/a	n/a
4077561	RECOG_LURE	n/a	LTP273	ltpFR	8	2	n/a	CRUTCH	417	2	n/a	n/a	0	0	0	n/a	n/a	n/a	n/a	n/a
4078258	RECOG_RESP	n/a	LTP273	ltpFR	8	2	n/a	CRUTCH	417	n/a	n/a	n/a	0	0	0	n/a	n/a	n/a	n/a	n/a
4078893	RECOG_CONF	n/a	LTP273	ltpFR	8	2	n/a	CRUTCH	417	2	n/a	n/a	0	0	0	n/a	n/a	n/a	n/a	n/a
4080472	RECOG_TARGET	n/a	LTP273	ltpFR	8	2	1	SOCKET	1340	3	0	n/a	0	0	0	n/a	n/a	n/a	n/a	n/a
4081833	RECOG_RESP	n/a	LTP273	ltpFR	8	2	1	SOCKET	1340	n/a	0	n/a	0	0	0	n/a	n/a	n/a	n/a	n/a
4082413	RECOG_CONF	n/a	LTP273	ltpFR	8	2	1	SOCKET	1340	3	0	n/a	0	0	0	n/a	n/a	n/a	n/a	n/a
4084135	RECOG_TARGET	n/a	LTP273	ltpFR	8	2	0	HUT	729	1	0	n/a	0	0	0	n/a	n/a	n/a	n/a	n/a
4085058	RECOG_RESP	n/a	LTP273	ltpFR	8	2	0	HUT	729	n/a	0	n/a	0	0	0	n/a	n/a	n/a	n/a	n/a
4085533	RECOG_CONF	n/a	LTP273	ltpFR	8	2	0	HUT	729	1	0	n/a	0	0	0	n/a	n/a	n/a	n/a	n/a
4087214	RECOG_TARGET	n/a	LTP273	ltpFR	8	2	0	WHEAT	1602	2	0	n/a	0	0	0	n/a	n/a	n/a	n/a	n/a
4087783	RECOG_RESP	n/a	LTP273	ltpFR	8	2	0	WHEAT	1602	n/a	0	n/a	0	0	0	n/a	n/a	n/a	n/a	n/a
4088243	RECOG_CONF	n/a	LTP273	ltpFR	8	2	0	WHEAT	1602	2	0	n/a	0	0	0	n/a	n/a	n/a	n/a	n/a
4090074	RECOG_TARGET	n/a	LTP273	ltpFR	8	2	0	IDOL	733	4	1	n/a	0	0	0	n/a	n/a	n/a	n/a	n/a
