mstime	trial_type	stim_file	subject	experiment	session	trial	task	item_name	item_num	recog_conf	resp	color_b	color_g	color_r	case	font
0	SESS_START	n/a	LTP093	ltpFR	2	n/a	n/a	n/a	n/a	3	n/a	n/a	n/a	n/a	n/a	n/a
79806	WORD	wordpools/wasnorm_wordpool.txt	LTP093	ltpFR	2	1	1	CHIPMUNK	304	n/a	1	1	0.412841796875	0.57763671875	upper	../fonts/zerothre.ttf
83616	WORD	wordpools/wasnorm_wordpool.txt	LTP093	ltpFR	2	1	1	HEDGE	699	n/a	1	1	0.412841796875	0.57763671875	upper	../fonts/zerothre.ttf
87773	WORD	wordpools/wasnorm_wordpool.txt	LTP093	ltpFR	2	1	1	CHIME	300	n/a	0	1	0.412841796875	0.57763671875	upper	../fonts/zerothre.ttf
91673	WORD	wordpools/wasnorm_wordpool.txt	LTP093	ltpFR	2	1	1	SEAL	1262	n/a	1	1	0.412841796875	0.57763671875	upper	../fonts/zerothre.ttf
95548	WORD	wordpools/wasnorm_wordpool.txt	LTP093	ltpFR	2	1	0	BRANCH	168	n/a	0	0	0.5869140625	0.422607421875	lower	../fonts/amplitud.ttf
99538	WORD	wordpools/wasnorm_wordpool.txt	LTP093	ltpFR	2	1	0	GLACIER	638	n/a	1	0	0.5869140625	0.422607421875	lower	../fonts/amplitud.ttf
103714	WORD	wordpools/wasnorm_wordpool.txt	LTP093	ltpFR	2	1	0	TEA	1439	n/a	0	0	0.5869140625	0.422607421875	lower	../fonts/amplitud.ttf
107813	WORD	wordpools/wasnorm_wordpool.txt	LTP093	ltpFR	2	1	0	ZEBRA	1635	n/a	0	0	0.5869140625	0.422607421875	lower	../fonts/amplitud.ttf
111754	WORD	wordpools/wasnorm_wordpool.txt	LTP093	ltpFR	2	1	0	RACCOON	1153	n/a	0	0	0.5869140625	0.422607421875	lower	../fonts/amplitud.ttf
115738	WORD	wordpools/wasnorm_wordpool.txt	LTP093	ltpFR	2	1	0	BRACELET	163	n/a	0	0	0.5869140625	0.422607421875	lower	../fonts/amplitud.ttf
119629	WORD	wordpools/wasnorm_wordpool.txt	LTP093	ltpFR	2	1	1	BEAD	103	n/a	0	1	0.412841796875	0.57763671875	upper	../fonts/zerothre.ttf
123520	WORD	wordpools/wasnorm_wordpool.txt	LTP093	ltpFR	2	1	1	HOOP	716	n/a	0	1	0.412841796875	0.57763671875	upper	../fonts/zerothre.ttf
127604	WORD	wordpools/wasnorm_wordpool.txt	LTP093	ltpFR	2	1	1	FRANCE	601	n/a	0	1	0.412841796875	0.57763671875	upper	../fonts/zerothre.ttf
131737	WORD	wordpools/wasnorm_wordpool.txt	LTP093	ltpFR	2	1	1	NOTEBOOK	959	n/a	0	1	0.412841796875	0.57763671875	upper	../fonts/zerothre.ttf
135877	WORD	wordpools/wasnorm_wordpool.txt	LTP093	ltpFR	2	1	0	BURGLAR	200	n/a	0	0	0.5869140625	0.422607421875	lower	../fonts/amplitud.ttf
139910	WORD	wordpools/wasnorm_wordpool.txt	LTP093	ltpFR	2	1	0	BAY	102	n/a	1	0	0.5869140625	0.422607421875	lower	../fonts/amplitud.ttf
145894	REC_START	n/a	LTP093	ltpFR	2	1	n/a	n/a	n/a	n/a	n/a	n/a	n/a	n/a	n/a	n/a
146832	REC_WORD	wordpools/wasnorm_wordpool.txt	LTP093	ltpFR	2	1	0	BAY	102	n/a	1	n/a	n/a	n/a	n/a	n/a
147600	REC_WORD	wordpools/wasnorm_wordpool.txt	LTP093	ltpFR	2	1	0	BURGLAR	200	n/a	0	n/a	n/a	n/a	n/a	n/a
149141	REC_WORD	wordpools/wasnorm_wordpool.txt	LTP093	ltpFR	2	1	0	ZEBRA	1635	n/a	0	n/a	n/a	n/a	n/a	n/a
150972	REC_WORD	wordpools/wasnorm_wordpool.txt	LTP093	ltpFR	2	1	1	CHIME	300	n/a	0	n/a	n/a	n/a	n/a	n/a
152643	REC_WORD	wordpools/wasnorm_wordpool.txt	LTP093	ltpFR	2	1	1	HEDGE	699	n/a	1	n/a	n/a	n/a	n/a	n/a
154908	REC_WORD	wordpools/wasnorm_wordpool.txt	LTP093	ltpFR	2	1	1	CHIPMUNK	304	n/a	1	n/a	n/a	n/a	n/a	n/a
170413	REC_WORD	wordpools/wasnorm_wordpool.txt	LTP093	ltpFR	2	1	1	FRANCE	601	n/a	0	n/a	n/a	n/a	n/a	n/a
187719	REC_WORD	wordpools/wasnorm_wordpool.txt	LTP093	ltpFR	2	1	0	BAY	102	n/a	1	n/a	n/a	n/a	n/a	n/a
237562	WORD	wordpools/wasnorm_wordpool.txt	LTP093	ltpFR	2	2	0	ATTORNEY	58	n/a	0	0	0.5869140625	0.422607421875	lower	../fonts/amplitud.ttf
241453	WORD	wordpools/wasnorm_wordpool.txt	LTP093	ltpFR	2	2	0	LEAF	808	n/a	0	0	0.5869140625	0.422607421875	lower	../fonts/amplitud.ttf
245377	WORD	wordpools/wasnorm_wordpool.txt	LTP093	ltpFR	2	2	0	BRIDGE	174	n/a	1	0	0.5869140625	0.422607421875	lower	../fonts/amplitud.ttf
249485	WORD	wordpools/wasnorm_wordpool.txt	LTP093	ltpFR	2	2	0	REFRIGERATOR	1179	n/a	0	0	0.5869140625	0.422607421875	lower	../fonts/amplitud.ttf
253310	WORD	wordpools/wasnorm_wordpool.txt	LTP093	ltpFR	2	2	1	COOKBOOK	373	n/a	0	1	0.412841796875	0.57763671875	upper	../fonts/zerothre.ttf
257126	WORD	wordpools/wasnorm_wordpool.txt	LTP093	ltpFR	2	2	1	FOE	587	n/a	1	1	0.412841796875	0.57763671875	upper	../fonts/zerothre.ttf
261051	WORD	wordpools/wasnorm_wordpool.txt	LTP093	ltpFR	2	2	1	MOB	904	n/a	1	1	0.412841796875	0.57763671875	upper	../fonts/zerothre.ttf
265142	WORD	wordpools/wasnorm_wordpool.txt	LTP093	ltpFR	2	2	0	LIMB	822	n/a	0	0	0.5869140625	0.422607421875	lower	../fonts/amplitud.ttf
269017	WORD	wordpools/wasnorm_wordpool.txt	LTP093	ltpFR	2	2	0	BOUQUET	157	n/a	0	0	0.5869140625	0.422607421875	lower	../fonts/amplitud.ttf
273217	WORD	wordpools/wasnorm_wordpool.txt	LTP093	ltpFR	2	2	0	BEET	115	n/a	0	0	0.5869140625	0.422607421875	lower	../fonts/amplitud.ttf
277208	WORD	wordpools/wasnorm_wordpool.txt	LTP093	ltpFR	2	2	0	FELLOW	558	n/a	0	0	0.5869140625	0.422607421875	lower	../fonts/amplitud.ttf
281125	WORD	wordpools/wasnorm_wordpool.txt	LTP093	ltpFR	2	2	1	MICROPHONE	890	n/a	0	1	0.412841796875	0.57763671875	upper	../fonts/zerothre.ttf
285141	WORD	wordpools/wasnorm_wordpool.txt	LTP093	ltpFR	2	2	1	STEREO	1378	n/a	0	1	0.412841796875	0.57763671875	upper	../fonts/zerothre.ttf
288966	WORD	wordpools/wasnorm_wordpool.txt	LTP093	ltpFR	2	2	1	ATTIRE	57	n/a	0	1	0.412841796875	0.57763671875	upper	../fonts/zerothre.ttf
292932	WORD	wordpools/wasnorm_wordpool.txt	LTP093	ltpFR	2	2	1	MISTER	901	n/a	1	1	0.412841796875	0.57763671875	upper	../fonts/zerothre.ttf
296765	WORD	wordpools/wasnorm_wordpool.txt	LTP093	ltpFR	2	2	1	FLASK	576	n/a	0	1	0.412841796875	0.57763671875	upper	../fonts/zerothre.ttf
302641	REC_START	n/a	LTP093	ltpFR	2	2	n/a	n/a	n/a	n/a	n/a	n/a	n/a	n/a	n/a	n/a
303244	REC_WORD	wordpools/wasnorm_wordpool.txt	LTP093	ltpFR	2	2	1	FLASK	576	n/a	0	n/a	n/a	n/a	n/a	n/a
304392	REC_WORD	wordpools/wasnorm_wordpool.txt	LTP093	ltpFR	2	2	1	MISTER	901	n/a	1	n/a	n/a	n/a	n/a	n/a
305574	REC_WORD	wordpools/wasnorm_wordpool.txt	LTP093	ltpFR	2	2	1	COOKBOOK	373	n/a	0	n/a	n/a	n/a	n/a	n/a
311057	REC_WORD_VV	wordpools/wasnorm_wordpool.txt	LTP093	ltpFR	2	2	n/a	<>	-1	n/a	n/a	n/a	n/a	n/a	n/a	n/a
352637	REC_WORD	wordpools/wasnorm_wordpool.txt	LTP093	ltpFR	2	2	1	ATTIRE	57	n/a	0	n/a	n/a	n/a	n/a	n/a
364775	REC_WORD	wordpools/wasnorm_wordpool.txt	LTP093	ltpFR	2	2	1	MICROPHONE	890	n/a	0	n/a	n/a	n/a	n/a	n/a
365712	REC_WORD	wordpools/wasnorm_wordpool.txt	LTP093	ltpFR	2	2	1	STEREO	1378	n/a	0	n/a	n/a	n/a	n/a	n/a
407507	WORD	wordpools/wasnorm_wordpool.txt	LTP093	ltpFR	2	3	0	MESSAGE	888	n/a	0	0	0.5869140625	0.422607421875	lower	../fonts/amplitud.ttf
411390	WORD	wordpools/wasnorm_wordpool.txt	LTP093	ltpFR	2	3	0	WINE	1613	n/a	0	0	0.5869140625	0.422607421875	lower	../fonts/amplitud.ttf
415549	WORD	wordpools/wasnorm_wordpool.txt	LTP093	ltpFR	2	3	0	CHAMPAGNE	278	n/a	0	0	0.5869140625	0.422607421875	lower	../fonts/amplitud.ttf
419682	WORD	wordpools/wasnorm_wordpool.txt	LTP093	ltpFR	2	3	0	CARDINAL	244	n/a	0	0	0.5869140625	0.422607421875	lower	../fonts/amplitud.ttf
423805	WORD	wordpools/wasnorm_wordpool.txt	LTP093	ltpFR	2	3	1	SWAN	1417	n/a	1	1	0.412841796875	0.57763671875	upper	../fonts/zerothre.ttf
427980	WORD	wordpools/wasnorm_wordpool.txt	LTP093	ltpFR	2	3	1	ACTOR	5	n/a	1	1	0.412841796875	0.57763671875	upper	../fonts/zerothre.ttf
431813	WORD	wordpools/wasnorm_wordpool.txt	LTP093	ltpFR	2	3	1	ACTRESS	6	n/a	1	1	0.412841796875	0.57763671875	upper	../fonts/zerothre.ttf
435879	WORD	wordpools/wasnorm_wordpool.txt	LTP093	ltpFR	2	3	1	JACKET	747	n/a	0	1	0.412841796875	0.57763671875	upper	../fonts/zerothre.ttf
439837	WORD	wordpools/wasnorm_wordpool.txt	LTP093	ltpFR	2	3	1	MOSQUITO	917	n/a	1	1	0.412841796875	0.57763671875	upper	../fonts/zerothre.ttf
444004	WORD	wordpools/wasnorm_wordpool.txt	LTP093	ltpFR	2	3	1	SWATTER	1418	n/a	0	1	0.412841796875	0.57763671875	upper	../fonts/zerothre.ttf
447904	WORD	wordpools/wasnorm_wordpool.txt	LTP093	ltpFR	2	3	0	OPERATOR	979	n/a	n/a	0	0.5869140625	0.422607421875	lower	../fonts/amplitud.ttf
450928	SLOW_MSG	n/a	LTP093	ltpFR	2	3	n/a	n/a	n/a	n/a	n/a	n/a	n/a	n/a	n/a	n/a
453353	WORD	wordpools/wasnorm_wordpool.txt	LTP093	ltpFR	2	3	0	MOP	916	n/a	0	0	0.5869140625	0.422607421875	lower	../fonts/amplitud.ttf
457536	WORD	wordpools/wasnorm_wordpool.txt	LTP093	ltpFR	2	3	1	FEATHER	557	n/a	0	1	0.412841796875	0.57763671875	upper	../fonts/zerothre.ttf
461436	WORD	wordpools/wasnorm_wordpool.txt	LTP093	ltpFR	2	3	1	CAP	236	n/a	0	1	0.412841796875	0.57763671875	upper	../fonts/zerothre.ttf
465302	WORD	wordpools/wasnorm_wordpool.txt	LTP093	ltpFR	2	3	0	STADIUM	1364	n/a	1	0	0.5869140625	0.422607421875	lower	../fonts/amplitud.ttf
469344	WORD	wordpools/wasnorm_wordpool.txt	LTP093	ltpFR	2	3	0	DINNER	468	n/a	1	0	0.5869140625	0.422607421875	lower	../fonts/amplitud.ttf
475069	REC_START	n/a	LTP093	ltpFR	2	3	n/a	n/a	n/a	n/a	n/a	n/a	n/a	n/a	n/a	n/a
475902	REC_WORD	wordpools/wasnorm_wordpool.txt	LTP093	ltpFR	2	3	0	DINNER	468	n/a	1	n/a	n/a	n/a	n/a	n/a
476580	REC_WORD	wordpools/wasnorm_wordpool.txt	LTP093	ltpFR	2	3	0	STADIUM	1364	n/a	1	n/a	n/a	n/a	n/a	n/a
477867	REC_WORD	wordpools/wasnorm_wordpool.txt	LTP093	ltpFR	2	3	1	CAP	236	n/a	0	n/a	n/a	n/a	n/a	n/a
482911	REC_WORD	wordpools/wasnorm_wordpool.txt	LTP093	ltpFR	2	3	1	ACTOR	5	n/a	1	n/a	n/a	n/a	n/a	n/a
483834	REC_WORD	wordpools/wasnorm_wordpool.txt	LTP093	ltpFR	2	3	1	ACTRESS	6	n/a	1	n/a	n/a	n/a	n/a	n/a
488598	REC_WORD	wordpools/wasnorm_wordpool.txt	LTP093	ltpFR	2	3	1	FEATHER	557	n/a	0	n/a	n/a	n/a	n/a	n/a
492315	REC_WORD	wordpools/wasnorm_wordpool.txt	LTP093	ltpFR	2	3	0	OPERATOR	979	n/a	n/a	n/a	n/a	n/a	n/a	n/a
513666	REC_WORD	wordpools/wasnorm_wordpool.txt	LTP093	ltpFR	2	3	0	MOP	916	n/a	0	n/a	n/a	n/a	n/a	n/a
522007	REC_WORD	wordpools/wasnorm_wordpool.txt	LTP093	ltpFR	2	3	0	MESSAGE	888	n/a	0	n/a	n/a	n/a	n/a	n/a
579827	WORD	wordpools/wasnorm_wordpool.txt	LTP093	ltpFR	2	4	-1	SOLDIER	1344	n/a	-1	1	1.0	1.0	upper	../fonts/Verdana.ttf
583694	WORD	wordpools/wasnorm_wordpool.txt	LTP093	ltpFR	2	4	-1	BULB	192	n/a	-1	1	1.0	1.0	upper	../fonts/Verdana.ttf
587677	WORD	wordpools/wasnorm_wordpool.txt	LTP093	ltpFR	2	4	-1	HEAD	695	n/a	-1	1	1.0	1.0	upper	../fonts/Verdana.ttf
591660	WORD	wordpools/wasnorm_wordpool.txt	LTP093	ltpFR	2	4	-1	CAB	209	n/a	-1	1	1.0	1.0	upper	../fonts/Verdana.ttf
595809	WORD	wordpools/wasnorm_wordpool.txt	LTP093	ltpFR	2	4	-1	CART	250	n/a	-1	1	1.0	1.0	upper	../fonts/Verdana.ttf
599668	WORD	wordpools/wasnorm_wordpool.txt	LTP093	ltpFR	2	4	-1	SLEEVE	1324	n/a	-1	1	1.0	1.0	upper	../fonts/Verdana.ttf
603701	WORD	wordpools/wasnorm_wordpool.txt	LTP093	ltpFR	2	4	-1	BANDANNA	80	n/a	-1	1	1.0	1.0	upper	../fonts/Verdana.ttf
607791	WORD	wordpools/wasnorm_wordpool.txt	LTP093	ltpFR	2	4	-1	BATHTUB	100	n/a	-1	1	1.0	1.0	upper	../fonts/Verdana.ttf
611924	WORD	wordpools/wasnorm_wordpool.txt	LTP093	ltpFR	2	4	-1	HOSE	720	n/a	-1	1	1.0	1.0	upper	../fonts/Verdana.ttf
615766	WORD	wordpools/wasnorm_wordpool.txt	LTP093	ltpFR	2	4	-1	CAPTIVE	240	n/a	-1	1	1.0	1.0	upper	../fonts/Verdana.ttf
619899	WORD	wordpools/wasnorm_wordpool.txt	LTP093	ltpFR	2	4	-1	INDIAN	736	n/a	-1	1	1.0	1.0	upper	../fonts/Verdana.ttf
623932	WORD	wordpools/wasnorm_wordpool.txt	LTP093	ltpFR	2	4	-1	SCULPTURE	1258	n/a	-1	1	1.0	1.0	upper	../fonts/Verdana.ttf
628073	WORD	wordpools/wasnorm_wordpool.txt	LTP093	ltpFR	2	4	-1	DRAWING	494	n/a	-1	1	1.0	1.0	upper	../fonts/Verdana.ttf
631981	WORD	wordpools/wasnorm_wordpool.txt	LTP093	ltpFR	2	4	-1	CRAYON	401	n/a	-1	1	1.0	1.0	upper	../fonts/Verdana.ttf
636106	WORD	wordpools/wasnorm_wordpool.txt	LTP093	ltpFR	2	4	-1	PREACHER	1119	n/a	-1	1	1.0	1.0	upper	../fonts/Verdana.ttf
640247	WORD	wordpools/wasnorm_wordpool.txt	LTP093	ltpFR	2	4	-1	SHOULDER	1294	n/a	-1	1	1.0	1.0	upper	../fonts/Verdana.ttf
646097	REC_START	n/a	LTP093	ltpFR	2	4	n/a	n/a	n/a	n/a	n/a	n/a	n/a	n/a	n/a	n/a
646960	REC_WORD	wordpools/wasnorm_wordpool.txt	LTP093	ltpFR	2	4	-1	SHOULDER	1294	n/a	-1	n/a	n/a	n/a	n/a	n/a
648556	REC_WORD	wordpools/wasnorm_wordpool.txt	LTP093	ltpFR	2	4	-1	SOLDIER	1344	n/a	-1	n/a	n/a	n/a	n/a	n/a
650043	REC_WORD	wordpools/wasnorm_wordpool.txt	LTP093	ltpFR	2	4	-1	PREACHER	1119	n/a	-1	n/a	n/a	n/a	n/a	n/a
651400	REC_WORD	wordpools/wasnorm_wordpool.txt	LTP093	ltpFR	2	4	-1	HEAD	695	n/a	-1	n/a	n/a	n/a	n/a	n/a
653485	REC_WORD	wordpools/wasnorm_wordpool.txt	LTP093	ltpFR	2	4	-1	BULB	192	n/a	-1	n/a	n/a	n/a	n/a	n/a
657326	REC_WORD	wordpools/wasnorm_wordpool.txt	LTP093	ltpFR	2	4	-1	CAPTIVE	240	n/a	-1	n/a	n/a	n/a	n/a	n/a
658429	REC_WORD	wordpools/wasnorm_wordpool.txt	LTP093	ltpFR	2	4	-1	INDIAN	736	n/a	-1	n/a	n/a	n/a	n/a	n/a
746632	WORD	wordpools/wasnorm_wordpool.txt	LTP093	ltpFR	2	5	1	PANTS	1010	n/a	0	1	0.412841796875	0.57763671875	upper	../fonts/zerothre.ttf
750764	WORD	wordpools/wasnorm_wordpool.txt	LTP093	ltpFR	2	5	1	PEDESTRIAN	1038	n/a	1	1	0.412841796875	0.57763671875	upper	../fonts/zerothre.ttf
754889	WORD	wordpools/wasnorm_wordpool.txt	LTP093	ltpFR	2	5	1	COLT	349	n/a	1	1	0.412841796875	0.57763671875	upper	../fonts/zerothre.ttf
759097	WORD	wordpools/wasnorm_wordpool.txt	LTP093	ltpFR	2	5	1	WAGON	1578	n/a	0	1	0.412841796875	0.57763671875	upper	../fonts/zerothre.ttf
763246	WORD	wordpools/wasnorm_wordpool.txt	LTP093	ltpFR	2	5	1	MARROW	872	n/a	1	1	0.412841796875	0.57763671875	upper	../fonts/zerothre.ttf
767196	WORD	wordpools/wasnorm_wordpool.txt	LTP093	ltpFR	2	5	1	ANKLE	24	n/a	1	1	0.412841796875	0.57763671875	upper	../fonts/zerothre.ttf
771171	WORD	wordpools/wasnorm_wordpool.txt	LTP093	ltpFR	2	5	0	PERCH	1048	n/a	0	0	0.5869140625	0.422607421875	lower	../fonts/amplitud.ttf
775120	WORD	wordpools/wasnorm_wordpool.txt	LTP093	ltpFR	2	5	0	EAGLE	512	n/a	1	0	0.5869140625	0.422607421875	lower	../fonts/amplitud.ttf
779287	WORD	wordpools/wasnorm_wordpool.txt	LTP093	ltpFR	2	5	0	POTATO	1115	n/a	0	0	0.5869140625	0.422607421875	lower	../fonts/amplitud.ttf
783295	WORD	wordpools/wasnorm_wordpool.txt	LTP093	ltpFR	2	5	1	COLLAR	345	n/a	0	1	0.412841796875	0.57763671875	upper	../fonts/zerothre.ttf
787328	WORD	wordpools/wasnorm_wordpool.txt	LTP093	ltpFR	2	5	1	WHALE	1601	n/a	1	1	0.412841796875	0.57763671875	upper	../fonts/zerothre.ttf
791394	WORD	wordpools/wasnorm_wordpool.txt	LTP093	ltpFR	2	5	0	CALENDAR	221	n/a	0	0	0.5869140625	0.422607421875	lower	../fonts/amplitud.ttf
795595	WORD	wordpools/wasnorm_wordpool.txt	LTP093	ltpFR	2	5	0	BOULEVARD	156	n/a	1	0	0.5869140625	0.422607421875	lower	../fonts/amplitud.ttf
799719	WORD	wordpools/wasnorm_wordpool.txt	LTP093	ltpFR	2	5	0	SHORTS	1293	n/a	0	0	0.5869140625	0.422607421875	lower	../fonts/amplitud.ttf
803686	WORD	wordpools/wasnorm_wordpool.txt	LTP093	ltpFR	2	5	0	HORSE	719	n/a	1	0	0.5869140625	0.422607421875	lower	../fonts/amplitud.ttf
807760	WORD	wordpools/wasnorm_wordpool.txt	LTP093	ltpFR	2	5	0	HAMBURGER	679	n/a	0	0	0.5869140625	0.422607421875	lower	../fonts/amplitud.ttf
813468	REC_START	n/a	LTP093	ltpFR	2	5	n/a	n/a	n/a	n/a	n/a	n/a	n/a	n/a	n/a	n/a
814421	REC_WORD	wordpools/wasnorm_wordpool.txt	LTP093	ltpFR	2	5	0	HAMBURGER	679	n/a	0	n/a	n/a	n/a	n/a	n/a
815473	REC_WORD	wordpools/wasnorm_wordpool.txt	LTP093	ltpFR	2	5	1	COLT	349	n/a	1	n/a	n/a	n/a	n/a	n/a
816426	REC_WORD	wordpools/wasnorm_wordpool.txt	LTP093	ltpFR	2	5	0	HORSE	719	n/a	1	n/a	n/a	n/a	n/a	n/a
818631	REC_WORD	wordpools/wasnorm_wordpool.txt	LTP093	ltpFR	2	5	0	EAGLE	512	n/a	1	n/a	n/a	n/a	n/a	n/a
826832	REC_WORD	wordpools/wasnorm_wordpool.txt	LTP093	ltpFR	2	5	1	WAGON	1578	n/a	0	n/a	n/a	n/a	n/a	n/a
833363	REC_WORD	wordpools/wasnorm_wordpool.txt	LTP093	ltpFR	2	5	1	PEDESTRIAN	1038	n/a	1	n/a	n/a	n/a	n/a	n/a
919409	WORD	wordpools/wasnorm_wordpool.txt	LTP093	ltpFR	2	6	0	SHRINE	1298	n/a	0	0	0.5869140625	0.422607421875	lower	../fonts/amplitud.ttf
923459	WORD	wordpools/wasnorm_wordpool.txt	LTP093	ltpFR	2	6	0	CLARINET	317	n/a	0	0	0.5869140625	0.422607421875	lower	../fonts/amplitud.ttf
927543	WORD	wordpools/wasnorm_wordpool.txt	LTP093	ltpFR	2	6	0	ALLIGATOR	16	n/a	1	0	0.5869140625	0.422607421875	lower	../fonts/amplitud.ttf
931367	WORD	wordpools/wasnorm_wordpool.txt	LTP093	ltpFR	2	6	0	SEED	1266	n/a	0	0	0.5869140625	0.422607421875	lower	../fonts/amplitud.ttf
935392	WORD	wordpools/wasnorm_wordpool.txt	LTP093	ltpFR	2	6	0	LILY	821	n/a	0	0	0.5869140625	0.422607421875	lower	../fonts/amplitud.ttf
939433	WORD	wordpools/wasnorm_wordpool.txt	LTP093	ltpFR	2	6	1	LIZARD	834	n/a	1	1	0.412841796875	0.57763671875	upper	../fonts/zerothre.ttf
943391	WORD	wordpools/wasnorm_wordpool.txt	LTP093	ltpFR	2	6	1	BAKER	71	n/a	1	1	0.412841796875	0.57763671875	upper	../fonts/zerothre.ttf
947207	WORD	wordpools/wasnorm_wordpool.txt	LTP093	ltpFR	2	6	1	COLESLAW	344	n/a	0	1	0.412841796875	0.57763671875	upper	../fonts/zerothre.ttf
951032	WORD	wordpools/wasnorm_wordpool.txt	LTP093	ltpFR	2	6	0	KETCHUP	771	n/a	0	0	0.5869140625	0.422607421875	lower	../fonts/amplitud.ttf
954873	WORD	wordpools/wasnorm_wordpool.txt	LTP093	ltpFR	2	6	0	WORKER	1621	n/a	0	0	0.5869140625	0.422607421875	lower	../fonts/amplitud.ttf
958856	WORD	wordpools/wasnorm_wordpool.txt	LTP093	ltpFR	2	6	0	TYPIST	1532	n/a	0	0	0.5869140625	0.422607421875	lower	../fonts/amplitud.ttf
962814	WORD	wordpools/wasnorm_wordpool.txt	LTP093	ltpFR	2	6	1	INVENTOR	743	n/a	1	1	0.412841796875	0.57763671875	upper	../fonts/zerothre.ttf
966723	WORD	wordpools/wasnorm_wordpool.txt	LTP093	ltpFR	2	6	1	HARP	689	n/a	0	1	0.412841796875	0.57763671875	upper	../fonts/zerothre.ttf
970914	WORD	wordpools/wasnorm_wordpool.txt	LTP093	ltpFR	2	6	1	TICK	1463	n/a	1	1	0.412841796875	0.57763671875	upper	../fonts/zerothre.ttf
975122	WORD	wordpools/wasnorm_wordpool.txt	LTP093	ltpFR	2	6	1	SIBLING	1301	n/a	1	1	0.412841796875	0.57763671875	upper	../fonts/zerothre.ttf
979255	WORD	wordpools/wasnorm_wordpool.txt	LTP093	ltpFR	2	6	1	QUILT	1151	n/a	0	1	0.412841796875	0.57763671875	upper	../fonts/zerothre.ttf
985122	REC_START	n/a	LTP093	ltpFR	2	6	n/a	n/a	n/a	n/a	n/a	n/a	n/a	n/a	n/a	n/a
985880	REC_WORD	wordpools/wasnorm_wordpool.txt	LTP093	ltpFR	2	6	1	QUILT	1151	n/a	0	n/a	n/a	n/a	n/a	n/a
986923	REC_WORD	wordpools/wasnorm_wordpool.txt	LTP093	ltpFR	2	6	1	SIBLING	1301	n/a	1	n/a	n/a	n/a	n/a	n/a
988180	REC_WORD	wordpools/wasnorm_wordpool.txt	LTP093	ltpFR	2	6	1	BAKER	71	n/a	1	n/a	n/a	n/a	n/a	n/a
989158	REC_WORD	wordpools/wasnorm_wordpool.txt	LTP093	ltpFR	2	6	1	LIZARD	834	n/a	1	n/a	n/a	n/a	n/a	n/a
998417	REC_WORD	wordpools/wasnorm_wordpool.txt	LTP093	ltpFR	2	6	1	INVENTOR	743	n/a	1	n/a	n/a	n/a	n/a	n/a
1001699	REC_WORD	wordpools/wasnorm_wordpool.txt	LTP093	ltpFR	2	6	0	WORKER	1621	n/a	0	n/a	n/a	n/a	n/a	n/a
1006997	REC_WORD	wordpools/wasnorm_wordpool.txt	LTP093	ltpFR	2	6	0	TYPIST	1532	n/a	0	n/a	n/a	n/a	n/a	n/a
1026468	REC_WORD	wordpools/wasnorm_wordpool.txt	LTP093	ltpFR	2	6	1	COLESLAW	344	n/a	0	n/a	n/a	n/a	n/a	n/a
1113470	WORD	wordpools/wasnorm_wordpool.txt	LTP093	ltpFR	2	7	-1	BODY	145	n/a	-1	1	1.0	1.0	upper	../fonts/Verdana.ttf
1117328	WORD	wordpools/wasnorm_wordpool.txt	LTP093	ltpFR	2	7	-1	SKELETON	1314	n/a	-1	1	1.0	1.0	upper	../fonts/Verdana.ttf
1121494	WORD	wordpools/wasnorm_wordpool.txt	LTP093	ltpFR	2	7	-1	RAM	1165	n/a	-1	1	1.0	1.0	upper	../fonts/Verdana.ttf
1125335	WORD	wordpools/wasnorm_wordpool.txt	LTP093	ltpFR	2	7	-1	SALOON	1228	n/a	-1	1	1.0	1.0	upper	../fonts/Verdana.ttf
1129260	WORD	wordpools/wasnorm_wordpool.txt	LTP093	ltpFR	2	7	-1	TREE	1502	n/a	-1	1	1.0	1.0	upper	../fonts/Verdana.ttf
1133151	WORD	wordpools/wasnorm_wordpool.txt	LTP093	ltpFR	2	7	-1	ROOST	1208	n/a	-1	1	1.0	1.0	upper	../fonts/Verdana.ttf
1137243	WORD	wordpools/wasnorm_wordpool.txt	LTP093	ltpFR	2	7	-1	HERD	705	n/a	-1	1	1.0	1.0	upper	../fonts/Verdana.ttf
1141334	WORD	wordpools/wasnorm_wordpool.txt	LTP093	ltpFR	2	7	-1	YOLK	1633	n/a	-1	1	1.0	1.0	upper	../fonts/Verdana.ttf
1145167	WORD	wordpools/wasnorm_wordpool.txt	LTP093	ltpFR	2	7	-1	HEN	703	n/a	-1	1	1.0	1.0	upper	../fonts/Verdana.ttf
1149050	WORD	wordpools/wasnorm_wordpool.txt	LTP093	ltpFR	2	7	-1	BELLY	119	n/a	-1	1	1.0	1.0	upper	../fonts/Verdana.ttf
1152967	WORD	wordpools/wasnorm_wordpool.txt	LTP093	ltpFR	2	7	-1	FOOT	590	n/a	-1	1	1.0	1.0	upper	../fonts/Verdana.ttf
1156975	WORD	wordpools/wasnorm_wordpool.txt	LTP093	ltpFR	2	7	-1	SHOELACE	1289	n/a	-1	1	1.0	1.0	upper	../fonts/Verdana.ttf
1161174	WORD	wordpools/wasnorm_wordpool.txt	LTP093	ltpFR	2	7	-1	DISHWASHER	475	n/a	-1	1	1.0	1.0	upper	../fonts/Verdana.ttf
1165124	WORD	wordpools/wasnorm_wordpool.txt	LTP093	ltpFR	2	7	-1	CHEF	290	n/a	-1	1	1.0	1.0	upper	../fonts/Verdana.ttf
1168990	WORD	wordpools/wasnorm_wordpool.txt	LTP093	ltpFR	2	7	-1	CABOOSE	214	n/a	-1	1	1.0	1.0	upper	../fonts/Verdana.ttf
1172998	WORD	wordpools/wasnorm_wordpool.txt	LTP093	ltpFR	2	7	-1	CUCUMBER	421	n/a	-1	1	1.0	1.0	upper	../fonts/Verdana.ttf
1179099	REC_START	n/a	LTP093	ltpFR	2	7	n/a	n/a	n/a	n/a	n/a	n/a	n/a	n/a	n/a	n/a
1180042	REC_WORD	wordpools/wasnorm_wordpool.txt	LTP093	ltpFR	2	7	-1	CUCUMBER	421	n/a	-1	n/a	n/a	n/a	n/a	n/a
1181029	REC_WORD	wordpools/wasnorm_wordpool.txt	LTP093	ltpFR	2	7	-1	CHEF	290	n/a	-1	n/a	n/a	n/a	n/a	n/a
1182092	REC_WORD	wordpools/wasnorm_wordpool.txt	LTP093	ltpFR	2	7	-1	DISHWASHER	475	n/a	-1	n/a	n/a	n/a	n/a	n/a
1183614	REC_WORD	wordpools/wasnorm_wordpool.txt	LTP093	ltpFR	2	7	-1	BODY	145	n/a	-1	n/a	n/a	n/a	n/a	n/a
1184332	REC_WORD	wordpools/wasnorm_wordpool.txt	LTP093	ltpFR	2	7	-1	SKELETON	1314	n/a	-1	n/a	n/a	n/a	n/a	n/a
1185858	REC_WORD	wordpools/wasnorm_wordpool.txt	LTP093	ltpFR	2	7	-1	HEN	703	n/a	-1	n/a	n/a	n/a	n/a	n/a
1186896	REC_WORD	wordpools/wasnorm_wordpool.txt	LTP093	ltpFR	2	7	-1	YOLK	1633	n/a	-1	n/a	n/a	n/a	n/a	n/a
1188552	REC_WORD	wordpools/wasnorm_wordpool.txt	LTP093	ltpFR	2	7	-1	TREE	1502	n/a	-1	n/a	n/a	n/a	n/a	n/a
1191710	REC_WORD	wordpools/wasnorm_wordpool.txt	LTP093	ltpFR	2	7	-1	ROOST	1208	n/a	-1	n/a	n/a	n/a	n/a	n/a
1328470	WORD	wordpools/wasnorm_wordpool.txt	LTP093	ltpFR	2	8	1	SINK	1309	n/a	0	1	0.412841796875	0.57763671875	upper	../fonts/zerothre.ttf
1332461	WORD	wordpools/wasnorm_wordpool.txt	LTP093	ltpFR	2	8	1	BARRACUDA	90	n/a	1	1	0.412841796875	0.57763671875	upper	../fonts/zerothre.ttf
1336478	WORD	wordpools/wasnorm_wordpool.txt	LTP093	ltpFR	2	8	1	TONGUE	1479	n/a	1	1	0.412841796875	0.57763671875	upper	../fonts/zerothre.ttf
1340502	WORD	wordpools/wasnorm_wordpool.txt	LTP093	ltpFR	2	8	1	MOUTH	926	n/a	1	1	0.412841796875	0.57763671875	upper	../fonts/zerothre.ttf
1344578	WORD	wordpools/wasnorm_wordpool.txt	LTP093	ltpFR	2	8	1	DRUM	502	n/a	0	1	0.412841796875	0.57763671875	upper	../fonts/zerothre.ttf
1348544	WORD	wordpools/wasnorm_wordpool.txt	LTP093	ltpFR	2	8	1	STREAM	1392	n/a	0	1	0.412841796875	0.57763671875	upper	../fonts/zerothre.ttf
1352460	WORD	wordpools/wasnorm_wordpool.txt	LTP093	ltpFR	2	8	1	RIVER	1194	n/a	0	1	0.412841796875	0.57763671875	upper	../fonts/zerothre.ttf
1356435	WORD	wordpools/wasnorm_wordpool.txt	LTP093	ltpFR	2	8	1	COMMANDER	354	n/a	1	1	0.412841796875	0.57763671875	upper	../fonts/zerothre.ttf
1360376	WORD	wordpools/wasnorm_wordpool.txt	LTP093	ltpFR	2	8	1	ARMY	39	n/a	1	1	0.412841796875	0.57763671875	upper	../fonts/zerothre.ttf
1364284	WORD	wordpools/wasnorm_wordpool.txt	LTP093	ltpFR	2	8	1	TROMBONE	1508	n/a	0	1	0.412841796875	0.57763671875	upper	../fonts/zerothre.ttf
1368117	WORD	wordpools/wasnorm_wordpool.txt	LTP093	ltpFR	2	8	1	REPTILE	1185	n/a	1	1	0.412841796875	0.57763671875	upper	../fonts/zerothre.ttf
1372108	WORD	wordpools/wasnorm_wordpool.txt	LTP093	ltpFR	2	8	1	POSSUM	1112	n/a	1	1	0.412841796875	0.57763671875	upper	../fonts/zerothre.ttf
1375975	WORD	wordpools/wasnorm_wordpool.txt	LTP093	ltpFR	2	8	1	DINOSAUR	469	n/a	1	1	0.412841796875	0.57763671875	upper	../fonts/zerothre.ttf
1380133	WORD	wordpools/wasnorm_wordpool.txt	LTP093	ltpFR	2	8	1	WARRIOR	1589	n/a	1	1	0.412841796875	0.57763671875	upper	../fonts/zerothre.ttf
1384174	WORD	wordpools/wasnorm_wordpool.txt	LTP093	ltpFR	2	8	1	ANCHOR	21	n/a	0	1	0.412841796875	0.57763671875	upper	../fonts/zerothre.ttf
1388099	WORD	wordpools/wasnorm_wordpool.txt	LTP093	ltpFR	2	8	1	CANOE	233	n/a	0	1	0.412841796875	0.57763671875	upper	../fonts/zerothre.ttf
1394007	REC_START	n/a	LTP093	ltpFR	2	8	n/a	n/a	n/a	n/a	n/a	n/a	n/a	n/a	n/a	n/a
1394645	REC_WORD	wordpools/wasnorm_wordpool.txt	LTP093	ltpFR	2	8	1	DINOSAUR	469	n/a	1	n/a	n/a	n/a	n/a	n/a
1395683	REC_WORD	wordpools/wasnorm_wordpool.txt	LTP093	ltpFR	2	8	1	CANOE	233	n/a	0	n/a	n/a	n/a	n/a	n/a
1396661	REC_WORD	wordpools/wasnorm_wordpool.txt	LTP093	ltpFR	2	8	1	REPTILE	1185	n/a	1	n/a	n/a	n/a	n/a	n/a
1411043	REC_WORD	wordpools/wasnorm_wordpool.txt	LTP093	ltpFR	2	8	1	STREAM	1392	n/a	0	n/a	n/a	n/a	n/a	n/a
1412155	REC_WORD	wordpools/wasnorm_wordpool.txt	LTP093	ltpFR	2	8	1	RIVER	1194	n/a	0	n/a	n/a	n/a	n/a	n/a
1432449	REC_WORD	wordpools/wasnorm_wordpool.txt	LTP093	ltpFR	2	8	1	COMMANDER	354	n/a	1	n/a	n/a	n/a	n/a	n/a
1433477	REC_WORD	wordpools/wasnorm_wordpool.txt	LTP093	ltpFR	2	8	1	ARMY	39	n/a	1	n/a	n/a	n/a	n/a	n/a
1445989	REC_WORD	wordpools/wasnorm_wordpool.txt	LTP093	ltpFR	2	8	1	MOUTH	926	n/a	1	n/a	n/a	n/a	n/a	n/a
1447036	REC_WORD	wordpools/wasnorm_wordpool.txt	LTP093	ltpFR	2	8	1	TONGUE	1479	n/a	1	n/a	n/a	n/a	n/a	n/a
1528155	WORD	wordpools/wasnorm_wordpool.txt	LTP093	ltpFR	2	9	1	ROBE	1198	n/a	0	1	0.412841796875	0.57763671875	upper	../fonts/zerothre.ttf
1532188	WORD	wordpools/wasnorm_wordpool.txt	LTP093	ltpFR	2	9	1	RIB	1188	n/a	1	1	0.412841796875	0.57763671875	upper	../fonts/zerothre.ttf
1536337	WORD	wordpools/wasnorm_wordpool.txt	LTP093	ltpFR	2	9	0	REEF	1177	n/a	1	0	0.5869140625	0.422607421875	lower	../fonts/amplitud.ttf
1540271	WORD	wordpools/wasnorm_wordpool.txt	LTP093	ltpFR	2	9	0	GOWN	652	n/a	0	0	0.5869140625	0.422607421875	lower	../fonts/amplitud.ttf
1544420	WORD	wordpools/wasnorm_wordpool.txt	LTP093	ltpFR	2	9	0	DRYER	503	n/a	0	0	0.5869140625	0.422607421875	lower	../fonts/amplitud.ttf
1548579	WORD	wordpools/wasnorm_wordpool.txt	LTP093	ltpFR	2	9	1	DESIGNER	451	n/a	1	1	0.412841796875	0.57763671875	upper	../fonts/zerothre.ttf
1552445	WORD	wordpools/wasnorm_wordpool.txt	LTP093	ltpFR	2	9	1	COP	376	n/a	1	1	0.412841796875	0.57763671875	upper	../fonts/zerothre.ttf
1556453	WORD	wordpools/wasnorm_wordpool.txt	LTP093	ltpFR	2	9	1	MARS	873	n/a	0	1	0.412841796875	0.57763671875	upper	../fonts/zerothre.ttf
1560603	WORD	wordpools/wasnorm_wordpool.txt	LTP093	ltpFR	2	9	1	SODA	1341	n/a	0	1	0.412841796875	0.57763671875	upper	../fonts/zerothre.ttf
1564535	WORD	wordpools/wasnorm_wordpool.txt	LTP093	ltpFR	2	9	0	BADGE	68	n/a	0	0	0.5869140625	0.422607421875	lower	../fonts/amplitud.ttf
1568510	WORD	wordpools/wasnorm_wordpool.txt	LTP093	ltpFR	2	9	0	WAITRESS	1581	n/a	0	0	0.5869140625	0.422607421875	lower	../fonts/amplitud.ttf
1572493	WORD	wordpools/wasnorm_wordpool.txt	LTP093	ltpFR	2	9	0	ELECTRICIAN	521	n/a	0	0	0.5869140625	0.422607421875	lower	../fonts/amplitud.ttf
1576644	WORD	wordpools/wasnorm_wordpool.txt	LTP093	ltpFR	2	9	0	BAG	69	n/a	0	0	0.5869140625	0.422607421875	lower	../fonts/amplitud.ttf
1580577	WORD	wordpools/wasnorm_wordpool.txt	LTP093	ltpFR	2	9	0	PAGE	1001	n/a	0	0	0.5869140625	0.422607421875	lower	../fonts/amplitud.ttf
1584543	WORD	wordpools/wasnorm_wordpool.txt	LTP093	ltpFR	2	9	1	GOOSE	649	n/a	1	1	0.412841796875	0.57763671875	upper	../fonts/zerothre.ttf
1588560	WORD	wordpools/wasnorm_wordpool.txt	LTP093	ltpFR	2	9	1	POND	1101	n/a	0	1	0.412841796875	0.57763671875	upper	../fonts/zerothre.ttf
1594200	REC_START	n/a	LTP093	ltpFR	2	9	n/a	n/a	n/a	n/a	n/a	n/a	n/a	n/a	n/a	n/a
1594923	REC_WORD	wordpools/wasnorm_wordpool.txt	LTP093	ltpFR	2	9	1	GOOSE	649	n/a	1	n/a	n/a	n/a	n/a	n/a
1595811	REC_WORD	wordpools/wasnorm_wordpool.txt	LTP093	ltpFR	2	9	1	POND	1101	n/a	0	n/a	n/a	n/a	n/a	n/a
1596779	REC_WORD	wordpools/wasnorm_wordpool.txt	LTP093	ltpFR	2	9	1	MARS	873	n/a	0	n/a	n/a	n/a	n/a	n/a
1598305	REC_WORD	wordpools/wasnorm_wordpool.txt	LTP093	ltpFR	2	9	0	WAITRESS	1581	n/a	0	n/a	n/a	n/a	n/a	n/a
1608183	REC_WORD	wordpools/wasnorm_wordpool.txt	LTP093	ltpFR	2	9	1	DESIGNER	451	n/a	1	n/a	n/a	n/a	n/a	n/a
1609475	REC_WORD	wordpools/wasnorm_wordpool.txt	LTP093	ltpFR	2	9	1	ROBE	1198	n/a	0	n/a	n/a	n/a	n/a	n/a
1614643	REC_WORD	wordpools/wasnorm_wordpool.txt	LTP093	ltpFR	2	9	n/a	DRESS	495	n/a	n/a	n/a	n/a	n/a	n/a	n/a
1621932	REC_WORD	wordpools/wasnorm_wordpool.txt	LTP093	ltpFR	2	9	0	DRYER	503	n/a	0	n/a	n/a	n/a	n/a	n/a
1713182	WORD	wordpools/wasnorm_wordpool.txt	LTP093	ltpFR	2	10	1	FIREPLACE	570	n/a	0	1	0.412841796875	0.57763671875	upper	../fonts/zerothre.ttf
1717357	WORD	wordpools/wasnorm_wordpool.txt	LTP093	ltpFR	2	10	1	GLOBE	641	n/a	0	1	0.412841796875	0.57763671875	upper	../fonts/zerothre.ttf
1721223	WORD	wordpools/wasnorm_wordpool.txt	LTP093	ltpFR	2	10	1	TIGER	1467	n/a	1	1	0.412841796875	0.57763671875	upper	../fonts/zerothre.ttf
1725048	WORD	wordpools/wasnorm_wordpool.txt	LTP093	ltpFR	2	10	1	CHOCOLATE	306	n/a	0	1	0.412841796875	0.57763671875	upper	../fonts/zerothre.ttf
1729089	WORD	wordpools/wasnorm_wordpool.txt	LTP093	ltpFR	2	10	1	GIRL	637	n/a	1	1	0.412841796875	0.57763671875	upper	../fonts/zerothre.ttf
1733072	WORD	wordpools/wasnorm_wordpool.txt	LTP093	ltpFR	2	10	1	PASTRY	1022	n/a	0	1	0.412841796875	0.57763671875	upper	../fonts/zerothre.ttf
1737247	WORD	wordpools/wasnorm_wordpool.txt	LTP093	ltpFR	2	10	1	CANE	231	n/a	0	1	0.412841796875	0.57763671875	upper	../fonts/zerothre.ttf
1741072	WORD	wordpools/wasnorm_wordpool.txt	LTP093	ltpFR	2	10	1	WRITER	1627	n/a	1	1	0.412841796875	0.57763671875	upper	../fonts/zerothre.ttf
1744930	WORD	wordpools/wasnorm_wordpool.txt	LTP093	ltpFR	2	10	1	DICTIONARY	463	n/a	0	1	0.412841796875	0.57763671875	upper	../fonts/zerothre.ttf
1749096	WORD	wordpools/wasnorm_wordpool.txt	LTP093	ltpFR	2	10	1	WICK	1607	n/a	0	1	0.412841796875	0.57763671875	upper	../fonts/zerothre.ttf
1753204	WORD	wordpools/wasnorm_wordpool.txt	LTP093	ltpFR	2	10	1	BISON	131	n/a	1	1	0.412841796875	0.57763671875	upper	../fonts/zerothre.ttf
1757396	WORD	wordpools/wasnorm_wordpool.txt	LTP093	ltpFR	2	10	1	PREDATOR	1120	n/a	1	1	0.412841796875	0.57763671875	upper	../fonts/zerothre.ttf
1761462	WORD	wordpools/wasnorm_wordpool.txt	LTP093	ltpFR	2	10	1	PANTHER	1009	n/a	1	1	0.412841796875	0.57763671875	upper	../fonts/zerothre.ttf
1765487	WORD	wordpools/wasnorm_wordpool.txt	LTP093	ltpFR	2	10	1	CREEK	404	n/a	0	1	0.412841796875	0.57763671875	upper	../fonts/zerothre.ttf
1769554	WORD	wordpools/wasnorm_wordpool.txt	LTP093	ltpFR	2	10	1	DIVER	476	n/a	1	1	0.412841796875	0.57763671875	upper	../fonts/zerothre.ttf
1773629	WORD	wordpools/wasnorm_wordpool.txt	LTP093	ltpFR	2	10	1	DESSERT	453	n/a	0	1	0.412841796875	0.57763671875	upper	../fonts/zerothre.ttf
1779554	REC_START	n/a	LTP093	ltpFR	2	10	n/a	n/a	n/a	n/a	n/a	n/a	n/a	n/a	n/a	n/a
1780307	REC_WORD	wordpools/wasnorm_wordpool.txt	LTP093	ltpFR	2	10	1	DESSERT	453	n/a	0	n/a	n/a	n/a	n/a	n/a
1781504	REC_WORD	wordpools/wasnorm_wordpool.txt	LTP093	ltpFR	2	10	1	DIVER	476	n/a	1	n/a	n/a	n/a	n/a	n/a
1786289	REC_WORD	wordpools/wasnorm_wordpool.txt	LTP093	ltpFR	2	10	1	CREEK	404	n/a	0	n/a	n/a	n/a	n/a	n/a
1791103	REC_WORD	wordpools/wasnorm_wordpool.txt	LTP093	ltpFR	2	10	1	FIREPLACE	570	n/a	0	n/a	n/a	n/a	n/a	n/a
1795617	REC_WORD	wordpools/wasnorm_wordpool.txt	LTP093	ltpFR	2	10	1	GLOBE	641	n/a	0	n/a	n/a	n/a	n/a	n/a
1809241	REC_WORD	wordpools/wasnorm_wordpool.txt	LTP093	ltpFR	2	10	1	TIGER	1467	n/a	1	n/a	n/a	n/a	n/a	n/a
1817393	REC_WORD	wordpools/wasnorm_wordpool.txt	LTP093	ltpFR	2	10	1	DIVER	476	n/a	1	n/a	n/a	n/a	n/a	n/a
1920867	WORD	wordpools/wasnorm_wordpool.txt	LTP093	ltpFR	2	11	0	SAPPHIRE	1234	n/a	0	0	0.5869140625	0.422607421875	lower	../fonts/amplitud.ttf
1925033	WORD	wordpools/wasnorm_wordpool.txt	LTP093	ltpFR	2	11	0	VINEGAR	1569	n/a	0	0	0.5869140625	0.422607421875	lower	../fonts/amplitud.ttf
1928974	WORD	wordpools/wasnorm_wordpool.txt	LTP093	ltpFR	2	11	0	FRAGRANCE	599	n/a	0	0	0.5869140625	0.422607421875	lower	../fonts/amplitud.ttf
1932807	WORD	wordpools/wasnorm_wordpool.txt	LTP093	ltpFR	2	11	0	TART	1436	n/a	0	0	0.5869140625	0.422607421875	lower	../fonts/amplitud.ttf
1936700	WORD	wordpools/wasnorm_wordpool.txt	LTP093	ltpFR	2	11	0	INSECT	740	n/a	0	0	0.5869140625	0.422607421875	lower	../fonts/amplitud.ttf
1940790	WORD	wordpools/wasnorm_wordpool.txt	LTP093	ltpFR	2	11	0	IRON	744	n/a	0	0	0.5869140625	0.422607421875	lower	../fonts/amplitud.ttf
1944840	WORD	wordpools/wasnorm_wordpool.txt	LTP093	ltpFR	2	11	0	PATROL	1027	n/a	0	0	0.5869140625	0.422607421875	lower	../fonts/amplitud.ttf
1948806	WORD	wordpools/wasnorm_wordpool.txt	LTP093	ltpFR	2	11	0	SIREN	1310	n/a	0	0	0.5869140625	0.422607421875	lower	../fonts/amplitud.ttf
1952864	WORD	wordpools/wasnorm_wordpool.txt	LTP093	ltpFR	2	11	0	KNOT	788	n/a	0	0	0.5869140625	0.422607421875	lower	../fonts/amplitud.ttf
1956814	WORD	wordpools/wasnorm_wordpool.txt	LTP093	ltpFR	2	11	0	LACE	792	n/a	0	0	0.5869140625	0.422607421875	lower	../fonts/amplitud.ttf
1960731	WORD	wordpools/wasnorm_wordpool.txt	LTP093	ltpFR	2	11	0	HAMPER	682	n/a	0	0	0.5869140625	0.422607421875	lower	../fonts/amplitud.ttf
1964606	WORD	wordpools/wasnorm_wordpool.txt	LTP093	ltpFR	2	11	0	SEA	1259	n/a	1	0	0.5869140625	0.422607421875	lower	../fonts/amplitud.ttf
1968614	WORD	wordpools/wasnorm_wordpool.txt	LTP093	ltpFR	2	11	0	JAPAN	749	n/a	0	0	0.5869140625	0.422607421875	lower	../fonts/amplitud.ttf
1972605	WORD	wordpools/wasnorm_wordpool.txt	LTP093	ltpFR	2	11	0	POT	1114	n/a	0	0	0.5869140625	0.422607421875	lower	../fonts/amplitud.ttf
1976796	WORD	wordpools/wasnorm_wordpool.txt	LTP093	ltpFR	2	11	0	BUREAU	199	n/a	1	0	0.5869140625	0.422607421875	lower	../fonts/amplitud.ttf
1980995	WORD	wordpools/wasnorm_wordpool.txt	LTP093	ltpFR	2	11	0	COUNTRY	388	n/a	1	0	0.5869140625	0.422607421875	lower	../fonts/amplitud.ttf
1986738	REC_START	n/a	LTP093	ltpFR	2	11	n/a	n/a	n/a	n/a	n/a	n/a	n/a	n/a	n/a	n/a
1987506	REC_WORD	wordpools/wasnorm_wordpool.txt	LTP093	ltpFR	2	11	0	POT	1114	n/a	0	n/a	n/a	n/a	n/a	n/a
1988419	REC_WORD	wordpools/wasnorm_wordpool.txt	LTP093	ltpFR	2	11	0	BUREAU	199	n/a	1	n/a	n/a	n/a	n/a	n/a
1989377	REC_WORD	wordpools/wasnorm_wordpool.txt	LTP093	ltpFR	2	11	0	COUNTRY	388	n/a	1	n/a	n/a	n/a	n/a	n/a
1990305	REC_WORD	wordpools/wasnorm_wordpool.txt	LTP093	ltpFR	2	11	0	JAPAN	749	n/a	0	n/a	n/a	n/a	n/a	n/a
1991342	REC_WORD	wordpools/wasnorm_wordpool.txt	LTP093	ltpFR	2	11	0	SEA	1259	n/a	1	n/a	n/a	n/a	n/a	n/a
1999085	REC_WORD	wordpools/wasnorm_wordpool.txt	LTP093	ltpFR	2	11	0	HAMPER	682	n/a	0	n/a	n/a	n/a	n/a	n/a
2014320	REC_WORD	wordpools/wasnorm_wordpool.txt	LTP093	ltpFR	2	11	0	INSECT	740	n/a	0	n/a	n/a	n/a	n/a	n/a
2019169	REC_WORD	wordpools/wasnorm_wordpool.txt	LTP093	ltpFR	2	11	0	FRAGRANCE	599	n/a	0	n/a	n/a	n/a	n/a	n/a
2101919	WORD	wordpools/wasnorm_wordpool.txt	LTP093	ltpFR	2	12	-1	BUTCHER	203	n/a	-1	1	1.0	1.0	upper	../fonts/Verdana.ttf
2106094	WORD	wordpools/wasnorm_wordpool.txt	LTP093	ltpFR	2	12	-1	STEW	1380	n/a	-1	1	1.0	1.0	upper	../fonts/Verdana.ttf
2110027	WORD	wordpools/wasnorm_wordpool.txt	LTP093	ltpFR	2	12	-1	JAW	751	n/a	-1	1	1.0	1.0	upper	../fonts/Verdana.ttf
2113902	WORD	wordpools/wasnorm_wordpool.txt	LTP093	ltpFR	2	12	-1	BRACES	164	n/a	-1	1	1.0	1.0	upper	../fonts/Verdana.ttf
2117901	WORD	wordpools/wasnorm_wordpool.txt	LTP093	ltpFR	2	12	-1	PRINCESS	1125	n/a	-1	1	1.0	1.0	upper	../fonts/Verdana.ttf
2121976	WORD	wordpools/wasnorm_wordpool.txt	LTP093	ltpFR	2	12	-1	CONVENT	370	n/a	-1	1	1.0	1.0	upper	../fonts/Verdana.ttf
2125793	WORD	wordpools/wasnorm_wordpool.txt	LTP093	ltpFR	2	12	-1	NECK	939	n/a	-1	1	1.0	1.0	upper	../fonts/Verdana.ttf
2129677	WORD	wordpools/wasnorm_wordpool.txt	LTP093	ltpFR	2	12	-1	CUFF	423	n/a	-1	1	1.0	1.0	upper	../fonts/Verdana.ttf
2133568	WORD	wordpools/wasnorm_wordpool.txt	LTP093	ltpFR	2	12	-1	CARPET	247	n/a	-1	1	1.0	1.0	upper	../fonts/Verdana.ttf
2137758	WORD	wordpools/wasnorm_wordpool.txt	LTP093	ltpFR	2	12	-1	SILVERWARE	1308	n/a	-1	1	1.0	1.0	upper	../fonts/Verdana.ttf
2141891	WORD	wordpools/wasnorm_wordpool.txt	LTP093	ltpFR	2	12	-1	CHIMNEY	301	n/a	-1	1	1.0	1.0	upper	../fonts/Verdana.ttf
2145899	WORD	wordpools/wasnorm_wordpool.txt	LTP093	ltpFR	2	12	-1	POPE	1105	n/a	-1	1	1.0	1.0	upper	../fonts/Verdana.ttf
2149733	WORD	wordpools/wasnorm_wordpool.txt	LTP093	ltpFR	2	12	-1	BLANKET	135	n/a	-1	1	1.0	1.0	upper	../fonts/Verdana.ttf
2153625	WORD	wordpools/wasnorm_wordpool.txt	LTP093	ltpFR	2	12	-1	CIGAR	308	n/a	-1	1	1.0	1.0	upper	../fonts/Verdana.ttf
2157641	WORD	wordpools/wasnorm_wordpool.txt	LTP093	ltpFR	2	12	-1	ORCHID	982	n/a	-1	1	1.0	1.0	upper	../fonts/Verdana.ttf
2161848	WORD	wordpools/wasnorm_wordpool.txt	LTP093	ltpFR	2	12	-1	SHEET	1279	n/a	-1	1	1.0	1.0	upper	../fonts/Verdana.ttf
2167782	REC_START	n/a	LTP093	ltpFR	2	12	n/a	n/a	n/a	n/a	n/a	n/a	n/a	n/a	n/a	n/a
2168535	REC_WORD	wordpools/wasnorm_wordpool.txt	LTP093	ltpFR	2	12	-1	SHEET	1279	n/a	-1	n/a	n/a	n/a	n/a	n/a
2169697	REC_WORD	wordpools/wasnorm_wordpool.txt	LTP093	ltpFR	2	12	-1	POPE	1105	n/a	-1	n/a	n/a	n/a	n/a	n/a
2170895	REC_WORD	wordpools/wasnorm_wordpool.txt	LTP093	ltpFR	2	12	-1	CHIMNEY	301	n/a	-1	n/a	n/a	n/a	n/a	n/a
2175090	REC_WORD	wordpools/wasnorm_wordpool.txt	LTP093	ltpFR	2	12	-1	BUTCHER	203	n/a	-1	n/a	n/a	n/a	n/a	n/a
2182094	REC_WORD	wordpools/wasnorm_wordpool.txt	LTP093	ltpFR	2	12	-1	STEW	1380	n/a	-1	n/a	n/a	n/a	n/a	n/a
2243384	REST_REWET	n/a	LTP093	ltpFR	2	12	n/a	n/a	n/a	n/a	n/a	n/a	n/a	n/a	n/a	n/a
2749604	WORD	wordpools/wasnorm_wordpool.txt	LTP093	ltpFR	2	13	0	DECK	443	n/a	0	0	0.5869140625	0.422607421875	lower	../fonts/amplitud.ttf
2753637	WORD	wordpools/wasnorm_wordpool.txt	LTP093	ltpFR	2	13	0	ROCKET	1202	n/a	1	0	0.5869140625	0.422607421875	lower	../fonts/amplitud.ttf
2757620	WORD	wordpools/wasnorm_wordpool.txt	LTP093	ltpFR	2	13	0	BRUSH	182	n/a	0	0	0.5869140625	0.422607421875	lower	../fonts/amplitud.ttf
2761604	WORD	wordpools/wasnorm_wordpool.txt	LTP093	ltpFR	2	13	0	PAINT	1003	n/a	0	0	0.5869140625	0.422607421875	lower	../fonts/amplitud.ttf
2765477	WORD	wordpools/wasnorm_wordpool.txt	LTP093	ltpFR	2	13	0	CORPORATION	382	n/a	1	0	0.5869140625	0.422607421875	lower	../fonts/amplitud.ttf
2769535	WORD	wordpools/wasnorm_wordpool.txt	LTP093	ltpFR	2	13	0	FLOOR	581	n/a	1	0	0.5869140625	0.422607421875	lower	../fonts/amplitud.ttf
2773410	WORD	wordpools/wasnorm_wordpool.txt	LTP093	ltpFR	2	13	0	JET	756	n/a	1	0	0.5869140625	0.422607421875	lower	../fonts/amplitud.ttf
2777268	WORD	wordpools/wasnorm_wordpool.txt	LTP093	ltpFR	2	13	0	DEPARTMENT	449	n/a	1	0	0.5869140625	0.422607421875	lower	../fonts/amplitud.ttf
2781159	WORD	wordpools/wasnorm_wordpool.txt	LTP093	ltpFR	2	13	0	THIMBLE	1458	n/a	0	0	0.5869140625	0.422607421875	lower	../fonts/amplitud.ttf
2785276	WORD	wordpools/wasnorm_wordpool.txt	LTP093	ltpFR	2	13	0	DENTIST	447	n/a	0	0	0.5869140625	0.422607421875	lower	../fonts/amplitud.ttf
2789409	WORD	wordpools/wasnorm_wordpool.txt	LTP093	ltpFR	2	13	0	WALL	1582	n/a	0	0	0.5869140625	0.422607421875	lower	../fonts/amplitud.ttf
2793425	WORD	wordpools/wasnorm_wordpool.txt	LTP093	ltpFR	2	13	0	YARN	1631	n/a	0	0	0.5869140625	0.422607421875	lower	../fonts/amplitud.ttf
2797634	WORD	wordpools/wasnorm_wordpool.txt	LTP093	ltpFR	2	13	0	SAND	1230	n/a	0	0	0.5869140625	0.422607421875	lower	../fonts/amplitud.ttf
2801725	WORD	wordpools/wasnorm_wordpool.txt	LTP093	ltpFR	2	13	0	CARD	243	n/a	0	0	0.5869140625	0.422607421875	lower	../fonts/amplitud.ttf
2805799	WORD	wordpools/wasnorm_wordpool.txt	LTP093	ltpFR	2	13	0	RICE	1190	n/a	0	0	0.5869140625	0.422607421875	lower	../fonts/amplitud.ttf
2809799	WORD	wordpools/wasnorm_wordpool.txt	LTP093	ltpFR	2	13	0	CORN	381	n/a	0	0	0.5869140625	0.422607421875	lower	../fonts/amplitud.ttf
2815742	REC_START	n/a	LTP093	ltpFR	2	13	n/a	n/a	n/a	n/a	n/a	n/a	n/a	n/a	n/a	n/a
2816485	REC_WORD	wordpools/wasnorm_wordpool.txt	LTP093	ltpFR	2	13	0	CORN	381	n/a	0	n/a	n/a	n/a	n/a	n/a
2817373	REC_WORD	wordpools/wasnorm_wordpool.txt	LTP093	ltpFR	2	13	0	RICE	1190	n/a	0	n/a	n/a	n/a	n/a	n/a
2818436	REC_WORD	wordpools/wasnorm_wordpool.txt	LTP093	ltpFR	2	13	0	CARD	243	n/a	0	n/a	n/a	n/a	n/a	n/a
2819548	REC_WORD	wordpools/wasnorm_wordpool.txt	LTP093	ltpFR	2	13	0	DECK	443	n/a	0	n/a	n/a	n/a	n/a	n/a
2820581	REC_WORD	wordpools/wasnorm_wordpool.txt	LTP093	ltpFR	2	13	0	ROCKET	1202	n/a	1	n/a	n/a	n/a	n/a	n/a
2830468	REC_WORD	wordpools/wasnorm_wordpool.txt	LTP093	ltpFR	2	13	0	CORPORATION	382	n/a	1	n/a	n/a	n/a	n/a	n/a
2831915	REC_WORD	wordpools/wasnorm_wordpool.txt	LTP093	ltpFR	2	13	0	DEPARTMENT	449	n/a	1	n/a	n/a	n/a	n/a	n/a
2903383	WORD	wordpools/wasnorm_wordpool.txt	LTP093	ltpFR	2	14	0	CROWN	415	n/a	0	0	0.5869140625	0.422607421875	lower	../fonts/amplitud.ttf
2907576	WORD	wordpools/wasnorm_wordpool.txt	LTP093	ltpFR	2	14	0	GARAGE	621	n/a	1	0	0.5869140625	0.422607421875	lower	../fonts/amplitud.ttf
2911684	WORD	wordpools/wasnorm_wordpool.txt	LTP093	ltpFR	2	14	0	TRANSPLANT	1496	n/a	0	0	0.5869140625	0.422607421875	lower	../fonts/amplitud.ttf
2915832	WORD	wordpools/wasnorm_wordpool.txt	LTP093	ltpFR	2	14	0	DAGGER	434	n/a	0	0	0.5869140625	0.422607421875	lower	../fonts/amplitud.ttf
2919774	WORD	wordpools/wasnorm_wordpool.txt	LTP093	ltpFR	2	14	0	SPOON	1357	n/a	0	0	0.5869140625	0.422607421875	lower	../fonts/amplitud.ttf
2923807	WORD	wordpools/wasnorm_wordpool.txt	LTP093	ltpFR	2	14	0	JELLO	754	n/a	0	0	0.5869140625	0.422607421875	lower	../fonts/amplitud.ttf
2927749	WORD	wordpools/wasnorm_wordpool.txt	LTP093	ltpFR	2	14	0	BUGGY	188	n/a	0	0	0.5869140625	0.422607421875	lower	../fonts/amplitud.ttf
2931582	WORD	wordpools/wasnorm_wordpool.txt	LTP093	ltpFR	2	14	0	WOUND	1624	n/a	0	0	0.5869140625	0.422607421875	lower	../fonts/amplitud.ttf
2935423	WORD	wordpools/wasnorm_wordpool.txt	LTP093	ltpFR	2	14	0	GREASE	660	n/a	0	0	0.5869140625	0.422607421875	lower	../fonts/amplitud.ttf
2939389	WORD	wordpools/wasnorm_wordpool.txt	LTP093	ltpFR	2	14	0	PROFESSIONAL	1130	n/a	0	0	0.5869140625	0.422607421875	lower	../fonts/amplitud.ttf
2943581	WORD	wordpools/wasnorm_wordpool.txt	LTP093	ltpFR	2	14	0	GLOVE	642	n/a	0	0	0.5869140625	0.422607421875	lower	../fonts/amplitud.ttf
2947530	WORD	wordpools/wasnorm_wordpool.txt	LTP093	ltpFR	2	14	0	CAFE	216	n/a	0	0	0.5869140625	0.422607421875	lower	../fonts/amplitud.ttf
2951581	WORD	wordpools/wasnorm_wordpool.txt	LTP093	ltpFR	2	14	0	TURKEY	1520	n/a	1	0	0.5869140625	0.422607421875	lower	../fonts/amplitud.ttf
2955779	WORD	wordpools/wasnorm_wordpool.txt	LTP093	ltpFR	2	14	0	PRINTER	1126	n/a	0	0	0.5869140625	0.422607421875	lower	../fonts/amplitud.ttf
2959846	WORD	wordpools/wasnorm_wordpool.txt	LTP093	ltpFR	2	14	0	NAPKIN	937	n/a	0	0	0.5869140625	0.422607421875	lower	../fonts/amplitud.ttf
2964012	WORD	wordpools/wasnorm_wordpool.txt	LTP093	ltpFR	2	14	0	MITTEN	902	n/a	0	0	0.5869140625	0.422607421875	lower	../fonts/amplitud.ttf
2969722	REC_START	n/a	LTP093	ltpFR	2	14	n/a	n/a	n/a	n/a	n/a	n/a	n/a	n/a	n/a	n/a
2970475	REC_WORD	wordpools/wasnorm_wordpool.txt	LTP093	ltpFR	2	14	0	MITTEN	902	n/a	0	n/a	n/a	n/a	n/a	n/a
2971448	REC_WORD	wordpools/wasnorm_wordpool.txt	LTP093	ltpFR	2	14	0	GLOVE	642	n/a	0	n/a	n/a	n/a	n/a	n/a
2972540	REC_WORD	wordpools/wasnorm_wordpool.txt	LTP093	ltpFR	2	14	0	TURKEY	1520	n/a	1	n/a	n/a	n/a	n/a	n/a
2979684	REC_WORD	wordpools/wasnorm_wordpool.txt	LTP093	ltpFR	2	14	0	TRANSPLANT	1496	n/a	0	n/a	n/a	n/a	n/a	n/a
2992744	REC_WORD	wordpools/wasnorm_wordpool.txt	LTP093	ltpFR	2	14	0	PRINTER	1126	n/a	0	n/a	n/a	n/a	n/a	n/a
3061055	WORD	wordpools/wasnorm_wordpool.txt	LTP093	ltpFR	2	15	1	COMMUNITY	356	n/a	0	1	0.412841796875	0.57763671875	upper	../fonts/zerothre.ttf
3064954	WORD	wordpools/wasnorm_wordpool.txt	LTP093	ltpFR	2	15	1	TABLE	1426	n/a	0	1	0.412841796875	0.57763671875	upper	../fonts/zerothre.ttf
3069146	WORD	wordpools/wasnorm_wordpool.txt	LTP093	ltpFR	2	15	1	SOFA	1342	n/a	0	1	0.412841796875	0.57763671875	upper	../fonts/zerothre.ttf
3072995	WORD	wordpools/wasnorm_wordpool.txt	LTP093	ltpFR	2	15	1	NEPTUNE	943	n/a	0	1	0.412841796875	0.57763671875	upper	../fonts/zerothre.ttf
3077120	WORD	wordpools/wasnorm_wordpool.txt	LTP093	ltpFR	2	15	1	WORLD	1622	n/a	0	1	0.412841796875	0.57763671875	upper	../fonts/zerothre.ttf
3081262	WORD	wordpools/wasnorm_wordpool.txt	LTP093	ltpFR	2	15	1	SIDING	1304	n/a	0	1	0.412841796875	0.57763671875	upper	../fonts/zerothre.ttf
3085286	WORD	wordpools/wasnorm_wordpool.txt	LTP093	ltpFR	2	15	1	MONGOOSE	909	n/a	1	1	0.412841796875	0.57763671875	upper	../fonts/zerothre.ttf
3089203	WORD	wordpools/wasnorm_wordpool.txt	LTP093	ltpFR	2	15	1	DRIVER	499	n/a	1	1	0.412841796875	0.57763671875	upper	../fonts/zerothre.ttf
3093277	WORD	wordpools/wasnorm_wordpool.txt	LTP093	ltpFR	2	15	1	THIGH	1457	n/a	1	1	0.412841796875	0.57763671875	upper	../fonts/zerothre.ttf
3097169	WORD	wordpools/wasnorm_wordpool.txt	LTP093	ltpFR	2	15	1	PORCUPINE	1107	n/a	1	1	0.412841796875	0.57763671875	upper	../fonts/zerothre.ttf
3101135	WORD	wordpools/wasnorm_wordpool.txt	LTP093	ltpFR	2	15	1	TOWN	1491	n/a	0	1	0.412841796875	0.57763671875	upper	../fonts/zerothre.ttf
3105293	WORD	wordpools/wasnorm_wordpool.txt	LTP093	ltpFR	2	15	1	DRINK	498	n/a	0	1	0.412841796875	0.57763671875	upper	../fonts/zerothre.ttf
3109468	WORD	wordpools/wasnorm_wordpool.txt	LTP093	ltpFR	2	15	1	COOLER	375	n/a	0	1	0.412841796875	0.57763671875	upper	../fonts/zerothre.ttf
3113517	WORD	wordpools/wasnorm_wordpool.txt	LTP093	ltpFR	2	15	1	RADIATOR	1156	n/a	0	1	0.412841796875	0.57763671875	upper	../fonts/zerothre.ttf
3117551	WORD	wordpools/wasnorm_wordpool.txt	LTP093	ltpFR	2	15	1	MAJOR	859	n/a	1	1	0.412841796875	0.57763671875	upper	../fonts/zerothre.ttf
3121709	WORD	wordpools/wasnorm_wordpool.txt	LTP093	ltpFR	2	15	1	EWE	542	n/a	1	1	0.412841796875	0.57763671875	upper	../fonts/zerothre.ttf
3127676	REC_START	n/a	LTP093	ltpFR	2	15	n/a	n/a	n/a	n/a	n/a	n/a	n/a	n/a	n/a	n/a
3128349	REC_WORD	wordpools/wasnorm_wordpool.txt	LTP093	ltpFR	2	15	1	EWE	542	n/a	1	n/a	n/a	n/a	n/a	n/a
3129297	REC_WORD	wordpools/wasnorm_wordpool.txt	LTP093	ltpFR	2	15	1	MAJOR	859	n/a	1	n/a	n/a	n/a	n/a	n/a
3131193	REC_WORD	wordpools/wasnorm_wordpool.txt	LTP093	ltpFR	2	15	1	PORCUPINE	1107	n/a	1	n/a	n/a	n/a	n/a	n/a
3136680	REC_WORD	wordpools/wasnorm_wordpool.txt	LTP093	ltpFR	2	15	1	DRIVER	499	n/a	1	n/a	n/a	n/a	n/a	n/a
3137987	REC_WORD	wordpools/wasnorm_wordpool.txt	LTP093	ltpFR	2	15	1	DRINK	498	n/a	0	n/a	n/a	n/a	n/a	n/a
3148563	REC_WORD	wordpools/wasnorm_wordpool.txt	LTP093	ltpFR	2	15	1	NEPTUNE	943	n/a	0	n/a	n/a	n/a	n/a	n/a
3156086	REC_WORD	wordpools/wasnorm_wordpool.txt	LTP093	ltpFR	2	15	1	SIDING	1304	n/a	0	n/a	n/a	n/a	n/a	n/a
3166233	REC_WORD	wordpools/wasnorm_wordpool.txt	LTP093	ltpFR	2	15	1	RADIATOR	1156	n/a	0	n/a	n/a	n/a	n/a	n/a
3167460	REC_WORD	wordpools/wasnorm_wordpool.txt	LTP093	ltpFR	2	15	1	COOLER	375	n/a	0	n/a	n/a	n/a	n/a	n/a
3215185	WORD	wordpools/wasnorm_wordpool.txt	LTP093	ltpFR	2	16	-1	HERO	706	n/a	-1	1	1.0	1.0	upper	../fonts/Verdana.ttf
3219101	WORD	wordpools/wasnorm_wordpool.txt	LTP093	ltpFR	2	16	-1	PILL	1068	n/a	-1	1	1.0	1.0	upper	../fonts/Verdana.ttf
3222934	WORD	wordpools/wasnorm_wordpool.txt	LTP093	ltpFR	2	16	-1	ORCHESTRA	981	n/a	-1	1	1.0	1.0	upper	../fonts/Verdana.ttf
3226925	WORD	wordpools/wasnorm_wordpool.txt	LTP093	ltpFR	2	16	-1	VIOLA	1570	n/a	-1	1	1.0	1.0	upper	../fonts/Verdana.ttf
3231033	WORD	wordpools/wasnorm_wordpool.txt	LTP093	ltpFR	2	16	-1	QUILL	1150	n/a	-1	1	1.0	1.0	upper	../fonts/Verdana.ttf
3235083	WORD	wordpools/wasnorm_wordpool.txt	LTP093	ltpFR	2	16	-1	RAIL	1161	n/a	-1	1	1.0	1.0	upper	../fonts/Verdana.ttf
3238908	WORD	wordpools/wasnorm_wordpool.txt	LTP093	ltpFR	2	16	-1	MUG	930	n/a	-1	1	1.0	1.0	upper	../fonts/Verdana.ttf
3242983	WORD	wordpools/wasnorm_wordpool.txt	LTP093	ltpFR	2	16	-1	JUG	762	n/a	-1	1	1.0	1.0	upper	../fonts/Verdana.ttf
3246899	WORD	wordpools/wasnorm_wordpool.txt	LTP093	ltpFR	2	16	-1	FREEWAY	603	n/a	-1	1	1.0	1.0	upper	../fonts/Verdana.ttf
3250832	WORD	wordpools/wasnorm_wordpool.txt	LTP093	ltpFR	2	16	-1	PEN	1041	n/a	-1	1	1.0	1.0	upper	../fonts/Verdana.ttf
3254691	WORD	wordpools/wasnorm_wordpool.txt	LTP093	ltpFR	2	16	-1	TENT	1449	n/a	-1	1	1.0	1.0	upper	../fonts/Verdana.ttf
3258806	WORD	wordpools/wasnorm_wordpool.txt	LTP093	ltpFR	2	16	-1	HONEY	713	n/a	-1	1	1.0	1.0	upper	../fonts/Verdana.ttf
3262964	WORD	wordpools/wasnorm_wordpool.txt	LTP093	ltpFR	2	16	-1	PADDLE	1000	n/a	-1	1	1.0	1.0	upper	../fonts/Verdana.ttf
3267006	WORD	wordpools/wasnorm_wordpool.txt	LTP093	ltpFR	2	16	-1	PATH	1023	n/a	-1	1	1.0	1.0	upper	../fonts/Verdana.ttf
3270822	WORD	wordpools/wasnorm_wordpool.txt	LTP093	ltpFR	2	16	-1	OUTDOORS	987	n/a	-1	1	1.0	1.0	upper	../fonts/Verdana.ttf
3274922	WORD	wordpools/wasnorm_wordpool.txt	LTP093	ltpFR	2	16	-1	MANSION	864	n/a	-1	1	1.0	1.0	upper	../fonts/Verdana.ttf
3280497	REC_START	n/a	LTP093	ltpFR	2	16	n/a	n/a	n/a	n/a	n/a	n/a	n/a	n/a	n/a	n/a
3281060	REC_WORD	wordpools/wasnorm_wordpool.txt	LTP093	ltpFR	2	16	-1	MANSION	864	n/a	-1	n/a	n/a	n/a	n/a	n/a
3282128	REC_WORD	wordpools/wasnorm_wordpool.txt	LTP093	ltpFR	2	16	-1	OUTDOORS	987	n/a	-1	n/a	n/a	n/a	n/a	n/a
3283405	REC_WORD	wordpools/wasnorm_wordpool.txt	LTP093	ltpFR	2	16	-1	TENT	1449	n/a	-1	n/a	n/a	n/a	n/a	n/a
3284433	REC_WORD	wordpools/wasnorm_wordpool.txt	LTP093	ltpFR	2	16	-1	HONEY	713	n/a	-1	n/a	n/a	n/a	n/a	n/a
3285490	REC_WORD	wordpools/wasnorm_wordpool.txt	LTP093	ltpFR	2	16	-1	PADDLE	1000	n/a	-1	n/a	n/a	n/a	n/a	n/a
3286433	REC_WORD	wordpools/wasnorm_wordpool.txt	LTP093	ltpFR	2	16	-1	FREEWAY	603	n/a	-1	n/a	n/a	n/a	n/a	n/a
3287935	REC_WORD	wordpools/wasnorm_wordpool.txt	LTP093	ltpFR	2	16	-1	HERO	706	n/a	-1	n/a	n/a	n/a	n/a	n/a
3296246	REC_WORD	wordpools/wasnorm_wordpool.txt	LTP093	ltpFR	2	16	-1	MANSION	864	n/a	-1	n/a	n/a	n/a	n/a	n/a
3307865	REC_WORD	wordpools/wasnorm_wordpool.txt	LTP093	ltpFR	2	16	-1	QUILL	1150	n/a	-1	n/a	n/a	n/a	n/a	n/a
3309032	REC_WORD	wordpools/wasnorm_wordpool.txt	LTP093	ltpFR	2	16	-1	PEN	1041	n/a	-1	n/a	n/a	n/a	n/a	n/a
3385006	REC_START	n/a	LTP093	ltpFR	2	n/a	n/a	n/a	n/a	n/a	n/a	n/a	n/a	n/a	n/a	n/a
3385859	FFR_REC_WORD	wordpools/wasnorm_wordpool.txt	LTP093	ltpFR	2	n/a	0	WALL	1582	n/a	0	n/a	n/a	n/a	n/a	n/a
3386797	FFR_REC_WORD	wordpools/wasnorm_wordpool.txt	LTP093	ltpFR	2	n/a	0	FLOOR	581	n/a	1	n/a	n/a	n/a	n/a	n/a
3388258	FFR_REC_WORD	wordpools/wasnorm_wordpool.txt	LTP093	ltpFR	2	n/a	1	DINOSAUR	469	n/a	1	n/a	n/a	n/a	n/a	n/a
3389511	FFR_REC_WORD	wordpools/wasnorm_wordpool.txt	LTP093	ltpFR	2	n/a	1	LIZARD	834	n/a	1	n/a	n/a	n/a	n/a	n/a
3390778	FFR_REC_WORD	wordpools/wasnorm_wordpool.txt	LTP093	ltpFR	2	n/a	1	REPTILE	1185	n/a	1	n/a	n/a	n/a	n/a	n/a
3392219	FFR_REC_WORD	wordpools/wasnorm_wordpool.txt	LTP093	ltpFR	2	n/a	-1	MANSION	864	n/a	-1	n/a	n/a	n/a	n/a	n/a
3393631	FFR_REC_WORD	wordpools/wasnorm_wordpool.txt	LTP093	ltpFR	2	n/a	-1	OUTDOORS	987	n/a	-1	n/a	n/a	n/a	n/a	n/a
3395208	FFR_REC_WORD	wordpools/wasnorm_wordpool.txt	LTP093	ltpFR	2	n/a	-1	TENT	1449	n/a	-1	n/a	n/a	n/a	n/a	n/a
3396395	FFR_REC_WORD	wordpools/wasnorm_wordpool.txt	LTP093	ltpFR	2	n/a	-1	HONEY	713	n/a	-1	n/a	n/a	n/a	n/a	n/a
3398211	FFR_REC_WORD	wordpools/wasnorm_wordpool.txt	LTP093	ltpFR	2	n/a	1	STREAM	1392	n/a	0	n/a	n/a	n/a	n/a	n/a
3399677	FFR_REC_WORD	wordpools/wasnorm_wordpool.txt	LTP093	ltpFR	2	n/a	1	CREEK	404	n/a	0	n/a	n/a	n/a	n/a	n/a
3401034	FFR_REC_WORD	wordpools/wasnorm_wordpool.txt	LTP093	ltpFR	2	n/a	1	RIVER	1194	n/a	0	n/a	n/a	n/a	n/a	n/a
3406981	FFR_REC_WORD	wordpools/wasnorm_wordpool.txt	LTP093	ltpFR	2	n/a	0	CARDINAL	244	n/a	0	n/a	n/a	n/a	n/a	n/a
3408587	FFR_REC_WORD	wordpools/wasnorm_wordpool.txt	LTP093	ltpFR	2	n/a	1	COOLER	375	n/a	0	n/a	n/a	n/a	n/a	n/a
3409749	FFR_REC_WORD	wordpools/wasnorm_wordpool.txt	LTP093	ltpFR	2	n/a	1	RADIATOR	1156	n/a	0	n/a	n/a	n/a	n/a	n/a
3412099	FFR_REC_WORD	wordpools/wasnorm_wordpool.txt	LTP093	ltpFR	2	n/a	1	WORLD	1622	n/a	0	n/a	n/a	n/a	n/a	n/a
3413296	FFR_REC_WORD	wordpools/wasnorm_wordpool.txt	LTP093	ltpFR	2	n/a	1	NEPTUNE	943	n/a	0	n/a	n/a	n/a	n/a	n/a
3414773	FFR_REC_WORD	wordpools/wasnorm_wordpool.txt	LTP093	ltpFR	2	n/a	1	MARS	873	n/a	0	n/a	n/a	n/a	n/a	n/a
3419028	FFR_REC_WORD	wordpools/wasnorm_wordpool.txt	LTP093	ltpFR	2	n/a	-1	FREEWAY	603	n/a	-1	n/a	n/a	n/a	n/a	n/a
3420550	FFR_REC_WORD	wordpools/wasnorm_wordpool.txt	LTP093	ltpFR	2	n/a	1	DRIVER	499	n/a	1	n/a	n/a	n/a	n/a	n/a
3422126	FFR_REC_WORD	wordpools/wasnorm_wordpool.txt	LTP093	ltpFR	2	n/a	1	DRINK	498	n/a	0	n/a	n/a	n/a	n/a	n/a
3423653	FFR_REC_WORD	wordpools/wasnorm_wordpool.txt	LTP093	ltpFR	2	n/a	0	POT	1114	n/a	0	n/a	n/a	n/a	n/a	n/a
3425404	FFR_REC_WORD	wordpools/wasnorm_wordpool.txt	LTP093	ltpFR	2	n/a	1	WHALE	1601	n/a	1	n/a	n/a	n/a	n/a	n/a
3431934	FFR_REC_WORD	wordpools/wasnorm_wordpool.txt	LTP093	ltpFR	2	n/a	0	EAGLE	512	n/a	1	n/a	n/a	n/a	n/a	n/a
3435601	FFR_REC_WORD	wordpools/wasnorm_wordpool.txt	LTP093	ltpFR	2	n/a	1	DESIGNER	451	n/a	1	n/a	n/a	n/a	n/a	n/a
3438070	FFR_REC_WORD	wordpools/wasnorm_wordpool.txt	LTP093	ltpFR	2	n/a	1	INVENTOR	743	n/a	1	n/a	n/a	n/a	n/a	n/a
3448980	FFR_REC_WORD	wordpools/wasnorm_wordpool.txt	LTP093	ltpFR	2	n/a	0	INSECT	740	n/a	0	n/a	n/a	n/a	n/a	n/a
3458923	FFR_REC_WORD	wordpools/wasnorm_wordpool.txt	LTP093	ltpFR	2	n/a	0	CORPORATION	382	n/a	1	n/a	n/a	n/a	n/a	n/a
3460938	FFR_REC_WORD	wordpools/wasnorm_wordpool.txt	LTP093	ltpFR	2	n/a	0	DEPARTMENT	449	n/a	1	n/a	n/a	n/a	n/a	n/a
3468631	FFR_REC_WORD	wordpools/wasnorm_wordpool.txt	LTP093	ltpFR	2	n/a	1	BISON	131	n/a	1	n/a	n/a	n/a	n/a	n/a
3498702	FFR_REC_WORD	wordpools/wasnorm_wordpool.txt	LTP093	ltpFR	2	n/a	-1	HERO	706	n/a	-1	n/a	n/a	n/a	n/a	n/a
3509827	FFR_REC_WORD	wordpools/wasnorm_wordpool.txt	LTP093	ltpFR	2	n/a	-1	CAPTIVE	240	n/a	-1	n/a	n/a	n/a	n/a	n/a
3511024	FFR_REC_WORD	wordpools/wasnorm_wordpool.txt	LTP093	ltpFR	2	n/a	-1	INDIAN	736	n/a	-1	n/a	n/a	n/a	n/a	n/a
3527836	FFR_REC_WORD	wordpools/wasnorm_wordpool.txt	LTP093	ltpFR	2	n/a	0	ZEBRA	1635	n/a	0	n/a	n/a	n/a	n/a	n/a
3529083	FFR_REC_WORD	wordpools/wasnorm_wordpool.txt	LTP093	ltpFR	2	n/a	0	HORSE	719	n/a	1	n/a	n/a	n/a	n/a	n/a
3534741	FFR_REC_WORD	wordpools/wasnorm_wordpool.txt	LTP093	ltpFR	2	n/a	1	CHIPMUNK	304	n/a	1	n/a	n/a	n/a	n/a	n/a
3549891	FFR_REC_WORD	wordpools/wasnorm_wordpool.txt	LTP093	ltpFR	2	n/a	1	TABLE	1426	n/a	0	n/a	n/a	n/a	n/a	n/a
3567855	FFR_REC_WORD	wordpools/wasnorm_wordpool.txt	LTP093	ltpFR	2	n/a	1	WARRIOR	1589	n/a	1	n/a	n/a	n/a	n/a	n/a
3575318	FFR_REC_WORD	wordpools/wasnorm_wordpool.txt	LTP093	ltpFR	2	n/a	1	BAKER	71	n/a	1	n/a	n/a	n/a	n/a	n/a
3579933	FFR_REC_WORD	wordpools/wasnorm_wordpool.txt	LTP093	ltpFR	2	n/a	-1	STEW	1380	n/a	-1	n/a	n/a	n/a	n/a	n/a
3581205	FFR_REC_WORD	wordpools/wasnorm_wordpool.txt	LTP093	ltpFR	2	n/a	-1	BUTCHER	203	n/a	-1	n/a	n/a	n/a	n/a	n/a
3602911	FFR_REC_WORD	wordpools/wasnorm_wordpool.txt	LTP093	ltpFR	2	n/a	1	ATTIRE	57	n/a	0	n/a	n/a	n/a	n/a	n/a
3604223	FFR_REC_WORD	wordpools/wasnorm_wordpool.txt	LTP093	ltpFR	2	n/a	n/a	DRESS	495	n/a	n/a	n/a	n/a	n/a	n/a	n/a
3615302	FFR_REC_WORD	wordpools/wasnorm_wordpool.txt	LTP093	ltpFR	2	n/a	0	PRINTER	1126	n/a	0	n/a	n/a	n/a	n/a	n/a
3616799	FFR_REC_WORD	wordpools/wasnorm_wordpool.txt	LTP093	ltpFR	2	n/a	0	TYPIST	1532	n/a	0	n/a	n/a	n/a	n/a	n/a
3672896	FFR_REC_WORD	wordpools/wasnorm_wordpool.txt	LTP093	ltpFR	2	n/a	0	LILY	821	n/a	0	n/a	n/a	n/a	n/a	n/a
3703173	REC_START	n/a	LTP093	ltpFR	2	1	n/a	n/a	n/a	n/a	n/a	n/a	n/a	n/a	n/a	n/a
3703206	RECOG_TARGET	n/a	LTP093	ltpFR	2	1	1	WRITER	1627	5	1	n/a	n/a	n/a	n/a	n/a
3704639	RECOG_RESP	n/a	LTP093	ltpFR	2	1	1	WRITER	1627	n/a	1	n/a	n/a	n/a	n/a	n/a
3706181	RECOG_CONF	n/a	LTP093	ltpFR	2	1	1	WRITER	1627	5	1	n/a	n/a	n/a	n/a	n/a
3707855	RECOG_LURE	n/a	LTP093	ltpFR	2	1	n/a	VAGRANT	1544	5	n/a	n/a	n/a	n/a	n/a	n/a
3708810	RECOG_RESP	n/a	LTP093	ltpFR	2	1	n/a	VAGRANT	1544	n/a	n/a	n/a	n/a	n/a	n/a	n/a
3709893	RECOG_CONF	n/a	LTP093	ltpFR	2	1	n/a	VAGRANT	1544	5	n/a	n/a	n/a	n/a	n/a	n/a
3711422	RECOG_LURE	n/a	LTP093	ltpFR	2	1	n/a	SHOVEL	1295	4	n/a	n/a	n/a	n/a	n/a	n/a
3712307	RECOG_RESP	n/a	LTP093	ltpFR	2	1	n/a	SHOVEL	1295	n/a	n/a	n/a	n/a	n/a	n/a	n/a
3713295	RECOG_CONF	n/a	LTP093	ltpFR	2	1	n/a	SHOVEL	1295	4	n/a	n/a	n/a	n/a	n/a	n/a
3714723	RECOG_TARGET	n/a	LTP093	ltpFR	2	1	1	COLESLAW	344	5	0	n/a	n/a	n/a	n/a	n/a
3715525	RECOG_RESP	n/a	LTP093	ltpFR	2	1	1	COLESLAW	344	n/a	0	n/a	n/a	n/a	n/a	n/a
3716597	RECOG_CONF	n/a	LTP093	ltpFR	2	1	1	COLESLAW	344	5	0	n/a	n/a	n/a	n/a	n/a
3718021	RECOG_LURE	n/a	LTP093	ltpFR	2	1	n/a	MAYONNAISE	880	4	n/a	n/a	n/a	n/a	n/a	n/a
3718842	RECOG_RESP	n/a	LTP093	ltpFR	2	1	n/a	MAYONNAISE	880	n/a	n/a	n/a	n/a	n/a	n/a	n/a
3719890	RECOG_CONF	n/a	LTP093	ltpFR	2	1	n/a	MAYONNAISE	880	4	n/a	n/a	n/a	n/a	n/a	n/a
3721271	RECOG_LURE	n/a	LTP093	ltpFR	2	1	n/a	STOVE	1388	3	n/a	n/a	n/a	n/a	n/a	n/a
3722229	RECOG_RESP	n/a	LTP093	ltpFR	2	1	n/a	STOVE	1388	n/a	n/a	n/a	n/a	n/a	n/a	n/a
3723232	RECOG_CONF	n/a	LTP093	ltpFR	2	1	n/a	STOVE	1388	3	n/a	n/a	n/a	n/a	n/a	n/a
3724647	RECOG_TARGET	n/a	LTP093	ltpFR	2	1	0	CORN	381	5	0	n/a	n/a	n/a	n/a	n/a
3725422	RECOG_RESP	n/a	LTP093	ltpFR	2	1	0	CORN	381	n/a	0	n/a	n/a	n/a	n/a	n/a
3726445	RECOG_CONF	n/a	LTP093	ltpFR	2	1	0	CORN	381	5	0	n/a	n/a	n/a	n/a	n/a
3727854	RECOG_LURE	n/a	LTP093	ltpFR	2	1	n/a	NEWSSTAND	949	4	n/a	n/a	n/a	n/a	n/a	n/a
3728665	RECOG_RESP	n/a	LTP093	ltpFR	2	1	n/a	NEWSSTAND	949	n/a	n/a	n/a	n/a	n/a	n/a	n/a
3729717	RECOG_CONF	n/a	LTP093	ltpFR	2	1	n/a	NEWSSTAND	949	4	n/a	n/a	n/a	n/a	n/a	n/a
3731212	RECOG_TARGET	n/a	LTP093	ltpFR	2	1	0	BEET	115	2	0	n/a	n/a	n/a	n/a	n/a
3732436	RECOG_RESP	n/a	LTP093	ltpFR	2	1	0	BEET	115	n/a	0	n/a	n/a	n/a	n/a	n/a
3733589	RECOG_CONF	n/a	LTP093	ltpFR	2	1	0	BEET	115	2	0	n/a	n/a	n/a	n/a	n/a
3735037	RECOG_LURE	n/a	LTP093	ltpFR	2	1	n/a	HEADBAND	696	3	n/a	n/a	n/a	n/a	n/a	n/a
3736412	RECOG_RESP	n/a	LTP093	ltpFR	2	1	n/a	HEADBAND	696	n/a	n/a	n/a	n/a	n/a	n/a	n/a
3737440	RECOG_CONF	n/a	LTP093	ltpFR	2	1	n/a	HEADBAND	696	3	n/a	n/a	n/a	n/a	n/a	n/a
3738953	RECOG_LURE	n/a	LTP093	ltpFR	2	1	n/a	MAN	862	3	n/a	n/a	n/a	n/a	n/a	n/a
3740907	RECOG_RESP	n/a	LTP093	ltpFR	2	1	n/a	MAN	862	n/a	n/a	n/a	n/a	n/a	n/a	n/a
3742189	RECOG_CONF	n/a	LTP093	ltpFR	2	1	n/a	MAN	862	3	n/a	n/a	n/a	n/a	n/a	n/a
3743695	RECOG_LURE	n/a	LTP093	ltpFR	2	1	n/a	COWARD	394	4	n/a	n/a	n/a	n/a	n/a	n/a
3744564	RECOG_RESP	n/a	LTP093	ltpFR	2	1	n/a	COWARD	394	n/a	n/a	n/a	n/a	n/a	n/a	n/a
3745492	RECOG_CONF	n/a	LTP093	ltpFR	2	1	n/a	COWARD	394	4	n/a	n/a	n/a	n/a	n/a	n/a
3746852	RECOG_TARGET	n/a	LTP093	ltpFR	2	1	0	LIMB	822	5	0	n/a	n/a	n/a	n/a	n/a
3747672	RECOG_RESP	n/a	LTP093	ltpFR	2	1	0	LIMB	822	n/a	0	n/a	n/a	n/a	n/a	n/a
3748625	RECOG_CONF	n/a	LTP093	ltpFR	2	1	0	LIMB	822	5	0	n/a	n/a	n/a	n/a	n/a
3749886	RECOG_TARGET	n/a	LTP093	ltpFR	2	1	-1	POPE	1105	5	-1	n/a	n/a	n/a	n/a	n/a
3750555	RECOG_RESP	n/a	LTP093	ltpFR	2	1	-1	POPE	1105	n/a	-1	n/a	n/a	n/a	n/a	n/a
3751528	RECOG_CONF	n/a	LTP093	ltpFR	2	1	-1	POPE	1105	5	-1	n/a	n/a	n/a	n/a	n/a
3752852	RECOG_TARGET	n/a	LTP093	ltpFR	2	1	-1	RAM	1165	5	-1	n/a	n/a	n/a	n/a	n/a
3753518	RECOG_RESP	n/a	LTP093	ltpFR	2	1	-1	RAM	1165	n/a	-1	n/a	n/a	n/a	n/a	n/a
3754421	RECOG_CONF	n/a	LTP093	ltpFR	2	1	-1	RAM	1165	5	-1	n/a	n/a	n/a	n/a	n/a
3755802	RECOG_TARGET	n/a	LTP093	ltpFR	2	1	1	SINK	1309	5	0	n/a	n/a	n/a	n/a	n/a
3756521	RECOG_RESP	n/a	LTP093	ltpFR	2	1	1	SINK	1309	n/a	0	n/a	n/a	n/a	n/a	n/a
3757584	RECOG_CONF	n/a	LTP093	ltpFR	2	1	1	SINK	1309	5	0	n/a	n/a	n/a	n/a	n/a
3758993	RECOG_TARGET	n/a	LTP093	ltpFR	2	1	0	TYPIST	1532	5	0	n/a	n/a	n/a	n/a	n/a
3759679	RECOG_RESP	n/a	LTP093	ltpFR	2	1	0	TYPIST	1532	n/a	0	n/a	n/a	n/a	n/a	n/a
3760707	RECOG_CONF	n/a	LTP093	ltpFR	2	1	0	TYPIST	1532	5	0	n/a	n/a	n/a	n/a	n/a
3762060	RECOG_TARGET	n/a	LTP093	ltpFR	2	1	-1	DRAWING	494	2	-1	n/a	n/a	n/a	n/a	n/a
3765366	RECOG_RESP	n/a	LTP093	ltpFR	2	1	-1	DRAWING	494	n/a	-1	n/a	n/a	n/a	n/a	n/a
3766344	RECOG_CONF	n/a	LTP093	ltpFR	2	1	-1	DRAWING	494	2	-1	n/a	n/a	n/a	n/a	n/a
3767784	RECOG_LURE	n/a	LTP093	ltpFR	2	1	n/a	ASSISTANT	48	4	n/a	n/a	n/a	n/a	n/a	n/a
3768739	RECOG_RESP	n/a	LTP093	ltpFR	2	1	n/a	ASSISTANT	48	n/a	n/a	n/a	n/a	n/a	n/a	n/a
3769637	RECOG_CONF	n/a	LTP093	ltpFR	2	1	n/a	ASSISTANT	48	4	n/a	n/a	n/a	n/a	n/a	n/a
3770959	RECOG_TARGET	n/a	LTP093	ltpFR	2	1	1	PANTS	1010	3	0	n/a	n/a	n/a	n/a	n/a
3772056	RECOG_RESP	n/a	LTP093	ltpFR	2	1	1	PANTS	1010	n/a	0	n/a	n/a	n/a	n/a	n/a
3773229	RECOG_CONF	n/a	LTP093	ltpFR	2	1	1	PANTS	1010	3	0	n/a	n/a	n/a	n/a	n/a
3803179	REC_START	n/a	LTP093	ltpFR	2	2	n/a	n/a	n/a	n/a	n/a	n/a	n/a	n/a	n/a	n/a
3803215	RECOG_TARGET	n/a	LTP093	ltpFR	2	2	0	REEF	1177	5	1	n/a	n/a	n/a	n/a	n/a
3804406	RECOG_RESP	n/a	LTP093	ltpFR	2	2	0	REEF	1177	n/a	1	n/a	n/a	n/a	n/a	n/a
3805519	RECOG_CONF	n/a	LTP093	ltpFR	2	2	0	REEF	1177	5	1	n/a	n/a	n/a	n/a	n/a
3806956	RECOG_TARGET	n/a	LTP093	ltpFR	2	2	1	BISON	131	5	1	n/a	n/a	n/a	n/a	n/a
3807624	RECOG_RESP	n/a	LTP093	ltpFR	2	2	1	BISON	131	n/a	1	n/a	n/a	n/a	n/a	n/a
3808522	RECOG_CONF	n/a	LTP093	ltpFR	2	2	1	BISON	131	5	1	n/a	n/a	n/a	n/a	n/a
3809998	RECOG_TARGET	n/a	LTP093	ltpFR	2	2	0	MESSAGE	888	4	0	n/a	n/a	n/a	n/a	n/a
3810886	RECOG_RESP	n/a	LTP093	ltpFR	2	2	0	MESSAGE	888	n/a	0	n/a	n/a	n/a	n/a	n/a
3811774	RECOG_CONF	n/a	LTP093	ltpFR	2	2	0	MESSAGE	888	4	0	n/a	n/a	n/a	n/a	n/a
3813239	RECOG_LURE	n/a	LTP093	ltpFR	2	2	n/a	FAUCET	555	4	n/a	n/a	n/a	n/a	n/a	n/a
3814004	RECOG_RESP	n/a	LTP093	ltpFR	2	2	n/a	FAUCET	555	n/a	n/a	n/a	n/a	n/a	n/a	n/a
3814947	RECOG_CONF	n/a	LTP093	ltpFR	2	2	n/a	FAUCET	555	4	n/a	n/a	n/a	n/a	n/a	n/a
3816455	RECOG_TARGET	n/a	LTP093	ltpFR	2	2	1	BEAD	103	5	0	n/a	n/a	n/a	n/a	n/a
3817107	RECOG_RESP	n/a	LTP093	ltpFR	2	2	1	BEAD	103	n/a	0	n/a	n/a	n/a	n/a	n/a
3818060	RECOG_CONF	n/a	LTP093	ltpFR	2	2	1	BEAD	103	5	0	n/a	n/a	n/a	n/a	n/a
3819405	RECOG_TARGET	n/a	LTP093	ltpFR	2	2	1	RADIATOR	1156	5	0	n/a	n/a	n/a	n/a	n/a
3820011	RECOG_RESP	n/a	LTP093	ltpFR	2	2	1	RADIATOR	1156	n/a	0	n/a	n/a	n/a	n/a	n/a
3820814	RECOG_CONF	n/a	LTP093	ltpFR	2	2	1	RADIATOR	1156	5	0	n/a	n/a	n/a	n/a	n/a
3822238	RECOG_LURE	n/a	LTP093	ltpFR	2	2	n/a	ATLAS	53	4	n/a	n/a	n/a	n/a	n/a	n/a
3822999	RECOG_RESP	n/a	LTP093	ltpFR	2	2	n/a	ATLAS	53	n/a	n/a	n/a	n/a	n/a	n/a	n/a
3823817	RECOG_CONF	n/a	LTP093	ltpFR	2	2	n/a	ATLAS	53	4	n/a	n/a	n/a	n/a	n/a	n/a
3825247	RECOG_LURE	n/a	LTP093	ltpFR	2	2	n/a	PATRIOT	1026	4	n/a	n/a	n/a	n/a	n/a	n/a
3826142	RECOG_RESP	n/a	LTP093	ltpFR	2	2	n/a	PATRIOT	1026	n/a	n/a	n/a	n/a	n/a	n/a	n/a
3827000	RECOG_CONF	n/a	LTP093	ltpFR	2	2	n/a	PATRIOT	1026	4	n/a	n/a	n/a	n/a	n/a	n/a
3828446	RECOG_TARGET	n/a	LTP093	ltpFR	2	2	0	TEA	1439	5	0	n/a	n/a	n/a	n/a	n/a
3829225	RECOG_RESP	n/a	LTP093	ltpFR	2	2	0	TEA	1439	n/a	0	n/a	n/a	n/a	n/a	n/a
3829993	RECOG_CONF	n/a	LTP093	ltpFR	2	2	0	TEA	1439	5	0	n/a	n/a	n/a	n/a	n/a
3831454	RECOG_TARGET	n/a	LTP093	ltpFR	2	2	1	ANCHOR	21	5	0	n/a	n/a	n/a	n/a	n/a
3832382	RECOG_RESP	n/a	LTP093	ltpFR	2	2	1	ANCHOR	21	n/a	0	n/a	n/a	n/a	n/a	n/a
3833156	RECOG_CONF	n/a	LTP093	ltpFR	2	2	1	ANCHOR	21	5	0	n/a	n/a	n/a	n/a	n/a
3834622	RECOG_LURE	n/a	LTP093	ltpFR	2	2	n/a	VEGETABLE	1552	4	n/a	n/a	n/a	n/a	n/a	n/a
3835401	RECOG_RESP	n/a	LTP093	ltpFR	2	2	n/a	VEGETABLE	1552	n/a	n/a	n/a	n/a	n/a	n/a	n/a
3836269	RECOG_CONF	n/a	LTP093	ltpFR	2	2	n/a	VEGETABLE	1552	4	n/a	n/a	n/a	n/a	n/a	n/a
3837555	RECOG_LURE	n/a	LTP093	ltpFR	2	2	n/a	VENT	1556	4	n/a	n/a	n/a	n/a	n/a	n/a
3838299	RECOG_RESP	n/a	LTP093	ltpFR	2	2	n/a	VENT	1556	n/a	n/a	n/a	n/a	n/a	n/a	n/a
3839132	RECOG_CONF	n/a	LTP093	ltpFR	2	2	n/a	VENT	1556	4	n/a	n/a	n/a	n/a	n/a	n/a
3840580	RECOG_TARGET	n/a	LTP093	ltpFR	2	2	0	TART	1436	5	0	n/a	n/a	n/a	n/a	n/a
3841407	RECOG_RESP	n/a	LTP093	ltpFR	2	2	0	TART	1436	n/a	0	n/a	n/a	n/a	n/a	n/a
3842265	RECOG_CONF	n/a	LTP093	ltpFR	2	2	0	TART	1436	5	0	n/a	n/a	n/a	n/a	n/a
3843762	RECOG_LURE	n/a	LTP093	ltpFR	2	2	n/a	BUG	187	3	n/a	n/a	n/a	n/a	n/a	n/a
3845238	RECOG_RESP	n/a	LTP093	ltpFR	2	2	n/a	BUG	187	n/a	n/a	n/a	n/a	n/a	n/a	n/a
3846545	RECOG_CONF	n/a	LTP093	ltpFR	2	2	n/a	BUG	187	3	n/a	n/a	n/a	n/a	n/a	n/a
3848153	RECOG_LURE	n/a	LTP093	ltpFR	2	2	n/a	LETTER	813	3	n/a	n/a	n/a	n/a	n/a	n/a
3849089	RECOG_RESP	n/a	LTP093	ltpFR	2	2	n/a	LETTER	813	n/a	n/a	n/a	n/a	n/a	n/a	n/a
3850037	RECOG_CONF	n/a	LTP093	ltpFR	2	2	n/a	LETTER	813	3	n/a	n/a	n/a	n/a	n/a	n/a
3851478	RECOG_LURE	n/a	LTP093	ltpFR	2	2	n/a	FRIES	607	4	n/a	n/a	n/a	n/a	n/a	n/a
3852347	RECOG_RESP	n/a	LTP093	ltpFR	2	2	n/a	FRIES	607	n/a	n/a	n/a	n/a	n/a	n/a	n/a
3853180	RECOG_CONF	n/a	LTP093	ltpFR	2	2	n/a	FRIES	607	4	n/a	n/a	n/a	n/a	n/a	n/a
3854794	RECOG_TARGET	n/a	LTP093	ltpFR	2	2	1	DRIVER	499	5	1	n/a	n/a	n/a	n/a	n/a
3855555	RECOG_RESP	n/a	LTP093	ltpFR	2	2	1	DRIVER	499	n/a	1	n/a	n/a	n/a	n/a	n/a
3856453	RECOG_CONF	n/a	LTP093	ltpFR	2	2	1	DRIVER	499	5	1	n/a	n/a	n/a	n/a	n/a
3857844	RECOG_TARGET	n/a	LTP093	ltpFR	2	2	0	BRUSH	182	5	0	n/a	n/a	n/a	n/a	n/a
3858658	RECOG_RESP	n/a	LTP093	ltpFR	2	2	0	BRUSH	182	n/a	0	n/a	n/a	n/a	n/a	n/a
3860344	RECOG_CONF	n/a	LTP093	ltpFR	2	2	0	BRUSH	182	5	0	n/a	n/a	n/a	n/a	n/a
3862327	RECOG_LURE	n/a	LTP093	ltpFR	2	2	n/a	CAT	257	2	n/a	n/a	n/a	n/a	n/a	n/a
3863083	RECOG_RESP	n/a	LTP093	ltpFR	2	2	n/a	CAT	257	n/a	n/a	n/a	n/a	n/a	n/a	n/a
3864145	RECOG_CONF	n/a	LTP093	ltpFR	2	2	n/a	CAT	257	2	n/a	n/a	n/a	n/a	n/a	n/a
3865553	RECOG_TARGET	n/a	LTP093	ltpFR	2	2	0	TRANSPLANT	1496	5	0	n/a	n/a	n/a	n/a	n/a
3866355	RECOG_RESP	n/a	LTP093	ltpFR	2	2	0	TRANSPLANT	1496	n/a	0	n/a	n/a	n/a	n/a	n/a
3867208	RECOG_CONF	n/a	LTP093	ltpFR	2	2	0	TRANSPLANT	1496	5	0	n/a	n/a	n/a	n/a	n/a
3882172	REC_START	n/a	LTP093	ltpFR	2	3	n/a	n/a	n/a	n/a	n/a	n/a	n/a	n/a	n/a	n/a
3882200	RECOG_LURE	n/a	LTP093	ltpFR	2	3	n/a	TUTU	1524	4	n/a	n/a	n/a	n/a	n/a	n/a
3883150	RECOG_RESP	n/a	LTP093	ltpFR	2	3	n/a	TUTU	1524	n/a	n/a	n/a	n/a	n/a	n/a	n/a
3884372	RECOG_CONF	n/a	LTP093	ltpFR	2	3	n/a	TUTU	1524	4	n/a	n/a	n/a	n/a	n/a	n/a
3885834	RECOG_LURE	n/a	LTP093	ltpFR	2	3	n/a	ROUGE	1213	4	n/a	n/a	n/a	n/a	n/a	n/a
3886886	RECOG_RESP	n/a	LTP093	ltpFR	2	3	n/a	ROUGE	1213	n/a	n/a	n/a	n/a	n/a	n/a	n/a
3887954	RECOG_CONF	n/a	LTP093	ltpFR	2	3	n/a	ROUGE	1213	4	n/a	n/a	n/a	n/a	n/a	n/a
3889267	RECOG_LURE	n/a	LTP093	ltpFR	2	3	n/a	ENEMY	534	4	n/a	n/a	n/a	n/a	n/a	n/a
3890173	RECOG_RESP	n/a	LTP093	ltpFR	2	3	n/a	ENEMY	534	n/a	n/a	n/a	n/a	n/a	n/a	n/a
3891216	RECOG_CONF	n/a	LTP093	ltpFR	2	3	n/a	ENEMY	534	4	n/a	n/a	n/a	n/a	n/a	n/a
3892601	RECOG_TARGET	n/a	LTP093	ltpFR	2	3	0	WAITRESS	1581	5	0	n/a	n/a	n/a	n/a	n/a
3893471	RECOG_RESP	n/a	LTP093	ltpFR	2	3	0	WAITRESS	1581	n/a	0	n/a	n/a	n/a	n/a	n/a
3894429	RECOG_CONF	n/a	LTP093	ltpFR	2	3	0	WAITRESS	1581	5	0	n/a	n/a	n/a	n/a	n/a
3895791	RECOG_LURE	n/a	LTP093	ltpFR	2	3	n/a	MULE	931	4	n/a	n/a	n/a	n/a	n/a	n/a
3896539	RECOG_RESP	n/a	LTP093	ltpFR	2	3	n/a	MULE	931	n/a	n/a	n/a	n/a	n/a	n/a	n/a
3897452	RECOG_CONF	n/a	LTP093	ltpFR	2	3	n/a	MULE	931	4	n/a	n/a	n/a	n/a	n/a	n/a
3898742	RECOG_LURE	n/a	LTP093	ltpFR	2	3	n/a	TOWER	1490	4	n/a	n/a	n/a	n/a	n/a	n/a
3899622	RECOG_RESP	n/a	LTP093	ltpFR	2	3	n/a	TOWER	1490	n/a	n/a	n/a	n/a	n/a	n/a	n/a
3900615	RECOG_CONF	n/a	LTP093	ltpFR	2	3	n/a	TOWER	1490	4	n/a	n/a	n/a	n/a	n/a	n/a
3901924	RECOG_TARGET	n/a	LTP093	ltpFR	2	3	1	WAGON	1578	5	0	n/a	n/a	n/a	n/a	n/a
3902715	RECOG_RESP	n/a	LTP093	ltpFR	2	3	1	WAGON	1578	n/a	0	n/a	n/a	n/a	n/a	n/a
3903708	RECOG_CONF	n/a	LTP093	ltpFR	2	3	1	WAGON	1578	5	0	n/a	n/a	n/a	n/a	n/a
3904999	RECOG_TARGET	n/a	LTP093	ltpFR	2	3	-1	HONEY	713	5	-1	n/a	n/a	n/a	n/a	n/a
3905848	RECOG_RESP	n/a	LTP093	ltpFR	2	3	-1	HONEY	713	n/a	-1	n/a	n/a	n/a	n/a	n/a
3906821	RECOG_CONF	n/a	LTP093	ltpFR	2	3	-1	HONEY	713	5	-1	n/a	n/a	n/a	n/a	n/a
3908157	RECOG_TARGET	n/a	LTP093	ltpFR	2	3	1	BARRACUDA	90	5	1	n/a	n/a	n/a	n/a	n/a
3908806	RECOG_RESP	n/a	LTP093	ltpFR	2	3	1	BARRACUDA	90	n/a	1	n/a	n/a	n/a	n/a	n/a
3909694	RECOG_CONF	n/a	LTP093	ltpFR	2	3	1	BARRACUDA	90	5	1	n/a	n/a	n/a	n/a	n/a
3911073	RECOG_TARGET	n/a	LTP093	ltpFR	2	3	-1	CARPET	247	4	-1	n/a	n/a	n/a	n/a	n/a
3912014	RECOG_RESP	n/a	LTP093	ltpFR	2	3	-1	CARPET	247	n/a	-1	n/a	n/a	n/a	n/a	n/a
3912897	RECOG_CONF	n/a	LTP093	ltpFR	2	3	-1	CARPET	247	4	-1	n/a	n/a	n/a	n/a	n/a
3914198	RECOG_TARGET	n/a	LTP093	ltpFR	2	3	1	ATTIRE	57	5	0	n/a	n/a	n/a	n/a	n/a
3914902	RECOG_RESP	n/a	LTP093	ltpFR	2	3	1	ATTIRE	57	n/a	0	n/a	n/a	n/a	n/a	n/a
3915770	RECOG_CONF	n/a	LTP093	ltpFR	2	3	1	ATTIRE	57	5	0	n/a	n/a	n/a	n/a	n/a
3917098	RECOG_TARGET	n/a	LTP093	ltpFR	2	3	-1	SHOULDER	1294	5	-1	n/a	n/a	n/a	n/a	n/a
3917676	RECOG_RESP	n/a	LTP093	ltpFR	2	3	-1	SHOULDER	1294	n/a	-1	n/a	n/a	n/a	n/a	n/a
3918594	RECOG_CONF	n/a	LTP093	ltpFR	2	3	-1	SHOULDER	1294	5	-1	n/a	n/a	n/a	n/a	n/a
3919906	RECOG_LURE	n/a	LTP093	ltpFR	2	3	n/a	WATERFALL	1595	3	n/a	n/a	n/a	n/a	n/a	n/a
3920794	RECOG_RESP	n/a	LTP093	ltpFR	2	3	n/a	WATERFALL	1595	n/a	n/a	n/a	n/a	n/a	n/a	n/a
3921916	RECOG_CONF	n/a	LTP093	ltpFR	2	3	n/a	WATERFALL	1595	3	n/a	n/a	n/a	n/a	n/a	n/a
3923297	RECOG_TARGET	n/a	LTP093	ltpFR	2	3	1	PANTHER	1009	5	1	n/a	n/a	n/a	n/a	n/a
3923927	RECOG_RESP	n/a	LTP093	ltpFR	2	3	1	PANTHER	1009	n/a	1	n/a	n/a	n/a	n/a	n/a
3924890	RECOG_CONF	n/a	LTP093	ltpFR	2	3	1	PANTHER	1009	5	1	n/a	n/a	n/a	n/a	n/a
3926089	RECOG_TARGET	n/a	LTP093	ltpFR	2	3	0	RACCOON	1153	5	0	n/a	n/a	n/a	n/a	n/a
3926770	RECOG_RESP	n/a	LTP093	ltpFR	2	3	0	RACCOON	1153	n/a	0	n/a	n/a	n/a	n/a	n/a
3927673	RECOG_CONF	n/a	LTP093	ltpFR	2	3	0	RACCOON	1153	5	0	n/a	n/a	n/a	n/a	n/a
3929005	RECOG_TARGET	n/a	LTP093	ltpFR	2	3	-1	CAB	209	3	-1	n/a	n/a	n/a	n/a	n/a
3930332	RECOG_RESP	n/a	LTP093	ltpFR	2	3	-1	CAB	209	n/a	-1	n/a	n/a	n/a	n/a	n/a
3931305	RECOG_CONF	n/a	LTP093	ltpFR	2	3	-1	CAB	209	3	-1	n/a	n/a	n/a	n/a	n/a
3932673	RECOG_TARGET	n/a	LTP093	ltpFR	2	3	1	STEREO	1378	5	0	n/a	n/a	n/a	n/a	n/a
3933670	RECOG_RESP	n/a	LTP093	ltpFR	2	3	1	STEREO	1378	n/a	0	n/a	n/a	n/a	n/a	n/a
3934558	RECOG_CONF	n/a	LTP093	ltpFR	2	3	1	STEREO	1378	5	0	n/a	n/a	n/a	n/a	n/a
3935796	RECOG_TARGET	n/a	LTP093	ltpFR	2	3	0	FLOOR	581	5	1	n/a	n/a	n/a	n/a	n/a
3936478	RECOG_RESP	n/a	LTP093	ltpFR	2	3	0	FLOOR	581	n/a	1	n/a	n/a	n/a	n/a	n/a
3937351	RECOG_CONF	n/a	LTP093	ltpFR	2	3	0	FLOOR	581	5	1	n/a	n/a	n/a	n/a	n/a
3938697	RECOG_LURE	n/a	LTP093	ltpFR	2	3	n/a	CARNIVAL	245	3	n/a	n/a	n/a	n/a	n/a	n/a
3940684	RECOG_RESP	n/a	LTP093	ltpFR	2	3	n/a	CARNIVAL	245	n/a	n/a	n/a	n/a	n/a	n/a	n/a
3941751	RECOG_CONF	n/a	LTP093	ltpFR	2	3	n/a	CARNIVAL	245	3	n/a	n/a	n/a	n/a	n/a	n/a
3943079	RECOG_LURE	n/a	LTP093	ltpFR	2	3	n/a	COLLEGE	346	4	n/a	n/a	n/a	n/a	n/a	n/a
3943897	RECOG_RESP	n/a	LTP093	ltpFR	2	3	n/a	COLLEGE	346	n/a	n/a	n/a	n/a	n/a	n/a	n/a
3944785	RECOG_CONF	n/a	LTP093	ltpFR	2	3	n/a	COLLEGE	346	4	n/a	n/a	n/a	n/a	n/a	n/a
3951294	REC_START	n/a	LTP093	ltpFR	2	4	n/a	n/a	n/a	n/a	n/a	n/a	n/a	n/a	n/a	n/a
3951329	RECOG_LURE	n/a	LTP093	ltpFR	2	4	n/a	CENT	270	4	n/a	n/a	n/a	n/a	n/a	n/a
3952107	RECOG_RESP	n/a	LTP093	ltpFR	2	4	n/a	CENT	270	n/a	n/a	n/a	n/a	n/a	n/a	n/a
3953025	RECOG_CONF	n/a	LTP093	ltpFR	2	4	n/a	CENT	270	4	n/a	n/a	n/a	n/a	n/a	n/a
3954387	RECOG_LURE	n/a	LTP093	ltpFR	2	4	n/a	NEEDLE	941	4	n/a	n/a	n/a	n/a	n/a	n/a
3955060	RECOG_RESP	n/a	LTP093	ltpFR	2	4	n/a	NEEDLE	941	n/a	n/a	n/a	n/a	n/a	n/a	n/a
3956098	RECOG_CONF	n/a	LTP093	ltpFR	2	4	n/a	NEEDLE	941	4	n/a	n/a	n/a	n/a	n/a	n/a
3957911	RECOG_TARGET	n/a	LTP093	ltpFR	2	4	0	POTATO	1115	n/a	0	n/a	n/a	n/a	n/a	n/a
3958547	RECOG_RESP_VV	n/a	LTP093	ltpFR	2	4	0	POTATO	1115	n/a	0	n/a	n/a	n/a	n/a	n/a
3961261	RECOG_RESP_VV	n/a	LTP093	ltpFR	2	4	0	POTATO	1115	n/a	0	n/a	n/a	n/a	n/a	n/a
3962498	RECOG_RESP	n/a	LTP093	ltpFR	2	4	0	POTATO	1115	n/a	0	n/a	n/a	n/a	n/a	n/a
3964036	RECOG_LURE	n/a	LTP093	ltpFR	2	4	n/a	HANDCUFFS	685	2	n/a	n/a	n/a	n/a	n/a	n/a
3964998	RECOG_RESP	n/a	LTP093	ltpFR	2	4	n/a	HANDCUFFS	685	n/a	n/a	n/a	n/a	n/a	n/a	n/a
3965896	RECOG_CONF	n/a	LTP093	ltpFR	2	4	n/a	HANDCUFFS	685	2	n/a	n/a	n/a	n/a	n/a	n/a
3967227	RECOG_LURE	n/a	LTP093	ltpFR	2	4	n/a	DYNAMITE	511	4	n/a	n/a	n/a	n/a	n/a	n/a
3968136	RECOG_RESP	n/a	LTP093	ltpFR	2	4	n/a	DYNAMITE	511	n/a	n/a	n/a	n/a	n/a	n/a	n/a
3969088	RECOG_CONF	n/a	LTP093	ltpFR	2	4	n/a	DYNAMITE	511	4	n/a	n/a	n/a	n/a	n/a	n/a
3970477	RECOG_TARGET	n/a	LTP093	ltpFR	2	4	-1	MUG	930	5	-1	n/a	n/a	n/a	n/a	n/a
3971154	RECOG_RESP	n/a	LTP093	ltpFR	2	4	-1	MUG	930	n/a	-1	n/a	n/a	n/a	n/a	n/a
3971982	RECOG_CONF	n/a	LTP093	ltpFR	2	4	-1	MUG	930	5	-1	n/a	n/a	n/a	n/a	n/a
3973418	RECOG_TARGET	n/a	LTP093	ltpFR	2	4	1	CREEK	404	5	0	n/a	n/a	n/a	n/a	n/a
3974212	RECOG_RESP	n/a	LTP093	ltpFR	2	4	1	CREEK	404	n/a	0	n/a	n/a	n/a	n/a	n/a
3974995	RECOG_CONF	n/a	LTP093	ltpFR	2	4	1	CREEK	404	5	0	n/a	n/a	n/a	n/a	n/a
3976485	RECOG_TARGET	n/a	LTP093	ltpFR	2	4	1	WICK	1607	5	0	n/a	n/a	n/a	n/a	n/a
3977210	RECOG_RESP	n/a	LTP093	ltpFR	2	4	1	WICK	1607	n/a	0	n/a	n/a	n/a	n/a	n/a
3978188	RECOG_CONF	n/a	LTP093	ltpFR	2	4	1	WICK	1607	5	0	n/a	n/a	n/a	n/a	n/a
3979535	RECOG_TARGET	n/a	LTP093	ltpFR	2	4	1	MISTER	901	5	1	n/a	n/a	n/a	n/a	n/a
3980158	RECOG_RESP	n/a	LTP093	ltpFR	2	4	1	MISTER	901	n/a	1	n/a	n/a	n/a	n/a	n/a
3981141	RECOG_CONF	n/a	LTP093	ltpFR	2	4	1	MISTER	901	5	1	n/a	n/a	n/a	n/a	n/a
3982426	RECOG_TARGET	n/a	LTP093	ltpFR	2	4	0	COUNTRY	388	5	1	n/a	n/a	n/a	n/a	n/a
3983087	RECOG_RESP	n/a	LTP093	ltpFR	2	4	0	COUNTRY	388	n/a	1	n/a	n/a	n/a	n/a	n/a
3983975	RECOG_CONF	n/a	LTP093	ltpFR	2	4	0	COUNTRY	388	5	1	n/a	n/a	n/a	n/a	n/a
3985243	RECOG_TARGET	n/a	LTP093	ltpFR	2	4	-1	CONVENT	370	4	-1	n/a	n/a	n/a	n/a	n/a
3986160	RECOG_RESP	n/a	LTP093	ltpFR	2	4	-1	CONVENT	370	n/a	-1	n/a	n/a	n/a	n/a	n/a
3987357	RECOG_CONF	n/a	LTP093	ltpFR	2	4	-1	CONVENT	370	4	-1	n/a	n/a	n/a	n/a	n/a
3988743	RECOG_TARGET	n/a	LTP093	ltpFR	2	4	1	COOLER	375	5	0	n/a	n/a	n/a	n/a	n/a
3989582	RECOG_RESP	n/a	LTP093	ltpFR	2	4	1	COOLER	375	n/a	0	n/a	n/a	n/a	n/a	n/a
3990520	RECOG_CONF	n/a	LTP093	ltpFR	2	4	1	COOLER	375	5	0	n/a	n/a	n/a	n/a	n/a
3991842	RECOG_TARGET	n/a	LTP093	ltpFR	2	4	0	BUREAU	199	5	1	n/a	n/a	n/a	n/a	n/a
3992600	RECOG_RESP	n/a	LTP093	ltpFR	2	4	0	BUREAU	199	n/a	1	n/a	n/a	n/a	n/a	n/a
3993443	RECOG_CONF	n/a	LTP093	ltpFR	2	4	0	BUREAU	199	5	1	n/a	n/a	n/a	n/a	n/a
3994767	RECOG_TARGET	n/a	LTP093	ltpFR	2	4	0	GARAGE	621	5	1	n/a	n/a	n/a	n/a	n/a
3995433	RECOG_RESP	n/a	LTP093	ltpFR	2	4	0	GARAGE	621	n/a	1	n/a	n/a	n/a	n/a	n/a
3996356	RECOG_CONF	n/a	LTP093	ltpFR	2	4	0	GARAGE	621	5	1	n/a	n/a	n/a	n/a	n/a
3997693	RECOG_LURE	n/a	LTP093	ltpFR	2	4	n/a	INTESTINE	742	4	n/a	n/a	n/a	n/a	n/a	n/a
3998516	RECOG_RESP	n/a	LTP093	ltpFR	2	4	n/a	INTESTINE	742	n/a	n/a	n/a	n/a	n/a	n/a	n/a
3999270	RECOG_CONF	n/a	LTP093	ltpFR	2	4	n/a	INTESTINE	742	4	n/a	n/a	n/a	n/a	n/a	n/a
4000692	RECOG_TARGET	n/a	LTP093	ltpFR	2	4	1	CANOE	233	5	0	n/a	n/a	n/a	n/a	n/a
4001340	RECOG_RESP	n/a	LTP093	ltpFR	2	4	1	CANOE	233	n/a	0	n/a	n/a	n/a	n/a	n/a
4002233	RECOG_CONF	n/a	LTP093	ltpFR	2	4	1	CANOE	233	5	0	n/a	n/a	n/a	n/a	n/a
4003508	RECOG_TARGET	n/a	LTP093	ltpFR	2	4	0	PAINT	1003	5	0	n/a	n/a	n/a	n/a	n/a
4004129	RECOG_RESP	n/a	LTP093	ltpFR	2	4	0	PAINT	1003	n/a	0	n/a	n/a	n/a	n/a	n/a
4005087	RECOG_CONF	n/a	LTP093	ltpFR	2	4	0	PAINT	1003	5	0	n/a	n/a	n/a	n/a	n/a
4006349	RECOG_TARGET	n/a	LTP093	ltpFR	2	4	0	CROWN	415	5	0	n/a	n/a	n/a	n/a	n/a
4007002	RECOG_RESP	n/a	LTP093	ltpFR	2	4	0	CROWN	415	n/a	0	n/a	n/a	n/a	n/a	n/a
4007980	RECOG_CONF	n/a	LTP093	ltpFR	2	4	0	CROWN	415	5	0	n/a	n/a	n/a	n/a	n/a
4009274	RECOG_TARGET	n/a	LTP093	ltpFR	2	4	-1	SHOELACE	1289	n/a	-1	n/a	n/a	n/a	n/a	n/a
4009970	RECOG_RESP_VV	n/a	LTP093	ltpFR	2	4	-1	SHOELACE	1289	n/a	-1	n/a	n/a	n/a	n/a	n/a
4011118	RECOG_RESP_VV	n/a	LTP093	ltpFR	2	4	-1	SHOELACE	1289	n/a	-1	n/a	n/a	n/a	n/a	n/a
4012355	RECOG_RESP	n/a	LTP093	ltpFR	2	4	-1	SHOELACE	1289	n/a	-1	n/a	n/a	n/a	n/a	n/a
4013733	RECOG_TARGET	n/a	LTP093	ltpFR	2	4	0	MOP	916	3	0	n/a	n/a	n/a	n/a	n/a
4015453	RECOG_RESP	n/a	LTP093	ltpFR	2	4	0	MOP	916	n/a	0	n/a	n/a	n/a	n/a	n/a
4016640	RECOG_CONF	n/a	LTP093	ltpFR	2	4	0	MOP	916	3	0	n/a	n/a	n/a	n/a	n/a
4026659	REC_START	n/a	LTP093	ltpFR	2	5	n/a	n/a	n/a	n/a	n/a	n/a	n/a	n/a	n/a	n/a
4026690	RECOG_LURE	n/a	LTP093	ltpFR	2	5	n/a	LITTER	832	4	n/a	n/a	n/a	n/a	n/a	n/a
4027637	RECOG_RESP	n/a	LTP093	ltpFR	2	5	n/a	LITTER	832	n/a	n/a	n/a	n/a	n/a	n/a	n/a
4028629	RECOG_CONF	n/a	LTP093	ltpFR	2	5	n/a	LITTER	832	4	n/a	n/a	n/a	n/a	n/a	n/a
4030106	RECOG_TARGET	n/a	LTP093	ltpFR	2	5	0	PROFESSIONAL	1130	4	0	n/a	n/a	n/a	n/a	n/a
4031842	RECOG_RESP	n/a	LTP093	ltpFR	2	5	0	PROFESSIONAL	1130	n/a	0	n/a	n/a	n/a	n/a	n/a
4032750	RECOG_CONF	n/a	LTP093	ltpFR	2	5	0	PROFESSIONAL	1130	4	0	n/a	n/a	n/a	n/a	n/a
4034197	RECOG_LURE	n/a	LTP093	ltpFR	2	5	n/a	LADY	794	4	n/a	n/a	n/a	n/a	n/a	n/a
4034945	RECOG_RESP	n/a	LTP093	ltpFR	2	5	n/a	LADY	794	n/a	n/a	n/a	n/a	n/a	n/a	n/a
4035793	RECOG_CONF	n/a	LTP093	ltpFR	2	5	n/a	LADY	794	4	n/a	n/a	n/a	n/a	n/a	n/a
4037172	RECOG_LURE	n/a	LTP093	ltpFR	2	5	n/a	JOKER	759	4	n/a	n/a	n/a	n/a	n/a	n/a
4037838	RECOG_RESP	n/a	LTP093	ltpFR	2	5	n/a	JOKER	759	n/a	n/a	n/a	n/a	n/a	n/a	n/a
4038547	RECOG_CONF	n/a	LTP093	ltpFR	2	5	n/a	JOKER	759	4	n/a	n/a	n/a	n/a	n/a	n/a
4040038	RECOG_TARGET	n/a	LTP093	ltpFR	2	5	-1	BULB	192	5	-1	n/a	n/a	n/a	n/a	n/a
4040707	RECOG_RESP	n/a	LTP093	ltpFR	2	5	-1	BULB	192	n/a	-1	n/a	n/a	n/a	n/a	n/a
4041680	RECOG_CONF	n/a	LTP093	ltpFR	2	5	-1	BULB	192	5	-1	n/a	n/a	n/a	n/a	n/a
4043005	RECOG_LURE	n/a	LTP093	ltpFR	2	5	n/a	COAT	333	4	n/a	n/a	n/a	n/a	n/a	n/a
4043730	RECOG_RESP	n/a	LTP093	ltpFR	2	5	n/a	COAT	333	n/a	n/a	n/a	n/a	n/a	n/a	n/a
4045172	RECOG_CONF	n/a	LTP093	ltpFR	2	5	n/a	COAT	333	4	n/a	n/a	n/a	n/a	n/a	n/a
4046480	RECOG_TARGET	n/a	LTP093	ltpFR	2	5	0	BADGE	68	5	0	n/a	n/a	n/a	n/a	n/a
4047072	RECOG_RESP	n/a	LTP093	ltpFR	2	5	0	BADGE	68	n/a	0	n/a	n/a	n/a	n/a	n/a
4048085	RECOG_CONF	n/a	LTP093	ltpFR	2	5	0	BADGE	68	5	0	n/a	n/a	n/a	n/a	n/a
4049329	RECOG_TARGET	n/a	LTP093	ltpFR	2	5	0	WALL	1582	5	0	n/a	n/a	n/a	n/a	n/a
4049936	RECOG_RESP	n/a	LTP093	ltpFR	2	5	0	WALL	1582	n/a	0	n/a	n/a	n/a	n/a	n/a
4050819	RECOG_CONF	n/a	LTP093	ltpFR	2	5	0	WALL	1582	5	0	n/a	n/a	n/a	n/a	n/a
4052096	RECOG_LURE	n/a	LTP093	ltpFR	2	5	n/a	NOSE	957	4	n/a	n/a	n/a	n/a	n/a	n/a
4052695	RECOG_RESP	n/a	LTP093	ltpFR	2	5	n/a	NOSE	957	n/a	n/a	n/a	n/a	n/a	n/a	n/a
4053543	RECOG_CONF	n/a	LTP093	ltpFR	2	5	n/a	NOSE	957	4	n/a	n/a	n/a	n/a	n/a	n/a
4054787	RECOG_LURE	n/a	LTP093	ltpFR	2	5	n/a	GYMNAST	675	4	n/a	n/a	n/a	n/a	n/a	n/a
4055568	RECOG_RESP	n/a	LTP093	ltpFR	2	5	n/a	GYMNAST	675	n/a	n/a	n/a	n/a	n/a	n/a	n/a
4056466	RECOG_CONF	n/a	LTP093	ltpFR	2	5	n/a	GYMNAST	675	4	n/a	n/a	n/a	n/a	n/a	n/a
4057705	RECOG_TARGET	n/a	LTP093	ltpFR	2	5	0	GOWN	652	1	0	n/a	n/a	n/a	n/a	n/a
4058372	RECOG_RESP	n/a	LTP093	ltpFR	2	5	0	GOWN	652	n/a	0	n/a	n/a	n/a	n/a	n/a
4061455	RECOG_CONF	n/a	LTP093	ltpFR	2	5	0	GOWN	652	1	0	n/a	n/a	n/a	n/a	n/a
4062812	RECOG_TARGET	n/a	LTP093	ltpFR	2	5	-1	PREACHER	1119	3	-1	n/a	n/a	n/a	n/a	n/a
4064902	RECOG_RESP_VV	n/a	LTP093	ltpFR	2	5	-1	PREACHER	1119	n/a	-1	n/a	n/a	n/a	n/a	n/a
4065855	RECOG_RESP	n/a	LTP093	ltpFR	2	5	-1	PREACHER	1119	n/a	-1	n/a	n/a	n/a	n/a	n/a
4066912	RECOG_CONF	n/a	LTP093	ltpFR	2	5	-1	PREACHER	1119	3	-1	n/a	n/a	n/a	n/a	n/a
4068378	RECOG_TARGET	n/a	LTP093	ltpFR	2	5	0	SAPPHIRE	1234	5	0	n/a	n/a	n/a	n/a	n/a
4069112	RECOG_RESP	n/a	LTP093	ltpFR	2	5	0	SAPPHIRE	1234	n/a	0	n/a	n/a	n/a	n/a	n/a
4069925	RECOG_CONF	n/a	LTP093	ltpFR	2	5	0	SAPPHIRE	1234	5	0	n/a	n/a	n/a	n/a	n/a
4071294	RECOG_LURE	n/a	LTP093	ltpFR	2	5	n/a	LIPSTICK	829	4	n/a	n/a	n/a	n/a	n/a	n/a
4072051	RECOG_RESP	n/a	LTP093	ltpFR	2	5	n/a	LIPSTICK	829	n/a	n/a	n/a	n/a	n/a	n/a	n/a
4072689	RECOG_CONF	n/a	LTP093	ltpFR	2	5	n/a	LIPSTICK	829	4	n/a	n/a	n/a	n/a	n/a	n/a
4074111	RECOG_TARGET	n/a	LTP093	ltpFR	2	5	0	VINEGAR	1569	5	0	n/a	n/a	n/a	n/a	n/a
4074814	RECOG_RESP	n/a	LTP093	ltpFR	2	5	0	VINEGAR	1569	n/a	0	n/a	n/a	n/a	n/a	n/a
4075623	RECOG_CONF	n/a	LTP093	ltpFR	2	5	0	VINEGAR	1569	5	0	n/a	n/a	n/a	n/a	n/a
4077061	RECOG_TARGET	n/a	LTP093	ltpFR	2	5	0	ELECTRICIAN	521	4	0	n/a	n/a	n/a	n/a	n/a
4077778	RECOG_RESP	n/a	LTP093	ltpFR	2	5	0	ELECTRICIAN	521	n/a	0	n/a	n/a	n/a	n/a	n/a
4078716	RECOG_CONF	n/a	LTP093	ltpFR	2	5	0	ELECTRICIAN	521	4	0	n/a	n/a	n/a	n/a	n/a
4080035	RECOG_TARGET	n/a	LTP093	ltpFR	2	5	1	PORCUPINE	1107	5	1	n/a	n/a	n/a	n/a	n/a
4080731	RECOG_RESP	n/a	LTP093	ltpFR	2	5	1	PORCUPINE	1107	n/a	1	n/a	n/a	n/a	n/a	n/a
4081699	RECOG_CONF	n/a	LTP093	ltpFR	2	5	1	PORCUPINE	1107	5	1	n/a	n/a	n/a	n/a	n/a
4082994	RECOG_TARGET	n/a	LTP093	ltpFR	2	5	-1	NECK	939	2	-1	n/a	n/a	n/a	n/a	n/a
4089855	RECOG_RESP	n/a	LTP093	ltpFR	2	5	-1	NECK	939	n/a	-1	n/a	n/a	n/a	n/a	n/a
4090668	RECOG_CONF	n/a	LTP093	ltpFR	2	5	-1	NECK	939	2	-1	n/a	n/a	n/a	n/a	n/a
4092093	RECOG_TARGET	n/a	LTP093	ltpFR	2	5	0	CARDINAL	244	5	0	n/a	n/a	n/a	n/a	n/a
4092833	RECOG_RESP	n/a	LTP093	ltpFR	2	5	0	CARDINAL	244	n/a	0	n/a	n/a	n/a	n/a	n/a
4093691	RECOG_CONF	n/a	LTP093	ltpFR	2	5	0	CARDINAL	244	5	0	n/a	n/a	n/a	n/a	n/a
4094934	RECOG_TARGET	n/a	LTP093	ltpFR	2	5	0	STADIUM	1364	5	1	n/a	n/a	n/a	n/a	n/a
4095662	RECOG_RESP	n/a	LTP093	ltpFR	2	5	0	STADIUM	1364	n/a	1	n/a	n/a	n/a	n/a	n/a
4096475	RECOG_CONF	n/a	LTP093	ltpFR	2	5	0	STADIUM	1364	5	1	n/a	n/a	n/a	n/a	n/a
4108777	REC_START	n/a	LTP093	ltpFR	2	6	n/a	n/a	n/a	n/a	n/a	n/a	n/a	n/a	n/a	n/a
4108808	RECOG_LURE	n/a	LTP093	ltpFR	2	6	n/a	FENCE	560	3	n/a	n/a	n/a	n/a	n/a	n/a
4109869	RECOG_RESP	n/a	LTP093	ltpFR	2	6	n/a	FENCE	560	n/a	n/a	n/a	n/a	n/a	n/a	n/a
4111007	RECOG_CONF	n/a	LTP093	ltpFR	2	6	n/a	FENCE	560	3	n/a	n/a	n/a	n/a	n/a	n/a
4112416	RECOG_TARGET	n/a	LTP093	ltpFR	2	6	0	HORSE	719	5	1	n/a	n/a	n/a	n/a	n/a
4113132	RECOG_RESP	n/a	LTP093	ltpFR	2	6	0	HORSE	719	n/a	1	n/a	n/a	n/a	n/a	n/a
4113980	RECOG_CONF	n/a	LTP093	ltpFR	2	6	0	HORSE	719	5	1	n/a	n/a	n/a	n/a	n/a
4115283	RECOG_TARGET	n/a	LTP093	ltpFR	2	6	1	DINOSAUR	469	5	1	n/a	n/a	n/a	n/a	n/a
4115836	RECOG_RESP	n/a	LTP093	ltpFR	2	6	1	DINOSAUR	469	n/a	1	n/a	n/a	n/a	n/a	n/a
4116624	RECOG_CONF	n/a	LTP093	ltpFR	2	6	1	DINOSAUR	469	5	1	n/a	n/a	n/a	n/a	n/a
4117891	RECOG_TARGET	n/a	LTP093	ltpFR	2	6	0	YARN	1631	5	0	n/a	n/a	n/a	n/a	n/a
4118485	RECOG_RESP	n/a	LTP093	ltpFR	2	6	0	YARN	1631	n/a	0	n/a	n/a	n/a	n/a	n/a
4119288	RECOG_CONF	n/a	LTP093	ltpFR	2	6	0	YARN	1631	5	0	n/a	n/a	n/a	n/a	n/a
4120550	RECOG_TARGET	n/a	LTP093	ltpFR	2	6	0	OPERATOR	979	5	n/a	n/a	n/a	n/a	n/a	n/a
4121293	RECOG_RESP	n/a	LTP093	ltpFR	2	6	0	OPERATOR	979	n/a	n/a	n/a	n/a	n/a	n/a	n/a
4122092	RECOG_CONF	n/a	LTP093	ltpFR	2	6	0	OPERATOR	979	5	n/a	n/a	n/a	n/a	n/a	n/a
4123332	RECOG_LURE	n/a	LTP093	ltpFR	2	6	n/a	EGYPT	519	5	n/a	n/a	n/a	n/a	n/a	n/a
4123982	RECOG_RESP	n/a	LTP093	ltpFR	2	6	n/a	EGYPT	519	n/a	n/a	n/a	n/a	n/a	n/a	n/a
4124736	RECOG_CONF	n/a	LTP093	ltpFR	2	6	n/a	EGYPT	519	5	n/a	n/a	n/a	n/a	n/a	n/a
4126040	RECOG_TARGET	n/a	LTP093	ltpFR	2	6	-1	CUCUMBER	421	5	-1	n/a	n/a	n/a	n/a	n/a
4126716	RECOG_RESP	n/a	LTP093	ltpFR	2	6	-1	CUCUMBER	421	n/a	-1	n/a	n/a	n/a	n/a	n/a
4127479	RECOG_CONF	n/a	LTP093	ltpFR	2	6	-1	CUCUMBER	421	5	-1	n/a	n/a	n/a	n/a	n/a
4128832	RECOG_LURE	n/a	LTP093	ltpFR	2	6	n/a	CATCHER	258	2	n/a	n/a	n/a	n/a	n/a	n/a
4131061	RECOG_RESP	n/a	LTP093	ltpFR	2	6	n/a	CATCHER	258	n/a	n/a	n/a	n/a	n/a	n/a	n/a
4132169	RECOG_CONF	n/a	LTP093	ltpFR	2	6	n/a	CATCHER	258	2	n/a	n/a	n/a	n/a	n/a	n/a
4133574	RECOG_TARGET	n/a	LTP093	ltpFR	2	6	1	COP	376	5	1	n/a	n/a	n/a	n/a	n/a
4134254	RECOG_RESP	n/a	LTP093	ltpFR	2	6	1	COP	376	n/a	1	n/a	n/a	n/a	n/a	n/a
4135002	RECOG_CONF	n/a	LTP093	ltpFR	2	6	1	COP	376	5	1	n/a	n/a	n/a	n/a	n/a
4136331	RECOG_LURE	n/a	LTP093	ltpFR	2	6	n/a	NOMAD	955	5	n/a	n/a	n/a	n/a	n/a	n/a
4137068	RECOG_RESP	n/a	LTP093	ltpFR	2	6	n/a	NOMAD	955	n/a	n/a	n/a	n/a	n/a	n/a	n/a
4138055	RECOG_CONF	n/a	LTP093	ltpFR	2	6	n/a	NOMAD	955	5	n/a	n/a	n/a	n/a	n/a	n/a
4139323	RECOG_TARGET	n/a	LTP093	ltpFR	2	6	1	DESSERT	453	5	0	n/a	n/a	n/a	n/a	n/a
4140031	RECOG_RESP	n/a	LTP093	ltpFR	2	6	1	DESSERT	453	n/a	0	n/a	n/a	n/a	n/a	n/a
4140899	RECOG_CONF	n/a	LTP093	ltpFR	2	6	1	DESSERT	453	5	0	n/a	n/a	n/a	n/a	n/a
4142206	RECOG_TARGET	n/a	LTP093	ltpFR	2	6	-1	HOSE	720	4	-1	n/a	n/a	n/a	n/a	n/a
4143318	RECOG_RESP	n/a	LTP093	ltpFR	2	6	-1	HOSE	720	n/a	-1	n/a	n/a	n/a	n/a	n/a
4144161	RECOG_CONF	n/a	LTP093	ltpFR	2	6	-1	HOSE	720	4	-1	n/a	n/a	n/a	n/a	n/a
4145505	RECOG_TARGET	n/a	LTP093	ltpFR	2	6	1	CHIPMUNK	304	5	1	n/a	n/a	n/a	n/a	n/a
4146077	RECOG_RESP	n/a	LTP093	ltpFR	2	6	1	CHIPMUNK	304	n/a	1	n/a	n/a	n/a	n/a	n/a
4146895	RECOG_CONF	n/a	LTP093	ltpFR	2	6	1	CHIPMUNK	304	5	1	n/a	n/a	n/a	n/a	n/a
4148105	RECOG_TARGET	n/a	LTP093	ltpFR	2	6	1	GIRL	637	5	1	n/a	n/a	n/a	n/a	n/a
4148816	RECOG_RESP	n/a	LTP093	ltpFR	2	6	1	GIRL	637	n/a	1	n/a	n/a	n/a	n/a	n/a
4149669	RECOG_CONF	n/a	LTP093	ltpFR	2	6	1	GIRL	637	5	1	n/a	n/a	n/a	n/a	n/a
4150863	RECOG_TARGET	n/a	LTP093	ltpFR	2	6	1	TABLE	1426	5	0	n/a	n/a	n/a	n/a	n/a
4151535	RECOG_RESP	n/a	LTP093	ltpFR	2	6	1	TABLE	1426	n/a	0	n/a	n/a	n/a	n/a	n/a
4152453	RECOG_CONF	n/a	LTP093	ltpFR	2	6	1	TABLE	1426	5	0	n/a	n/a	n/a	n/a	n/a
4153689	RECOG_TARGET	n/a	LTP093	ltpFR	2	6	0	JET	756	5	1	n/a	n/a	n/a	n/a	n/a
4154283	RECOG_RESP	n/a	LTP093	ltpFR	2	6	0	JET	756	n/a	1	n/a	n/a	n/a	n/a	n/a
4155186	RECOG_CONF	n/a	LTP093	ltpFR	2	6	0	JET	756	5	1	n/a	n/a	n/a	n/a	n/a
4156438	RECOG_TARGET	n/a	LTP093	ltpFR	2	6	1	POND	1101	5	0	n/a	n/a	n/a	n/a	n/a
4157127	RECOG_RESP	n/a	LTP093	ltpFR	2	6	1	POND	1101	n/a	0	n/a	n/a	n/a	n/a	n/a
4158020	RECOG_CONF	n/a	LTP093	ltpFR	2	6	1	POND	1101	5	0	n/a	n/a	n/a	n/a	n/a
4159496	RECOG_LURE	n/a	LTP093	ltpFR	2	6	n/a	CURB	426	2	n/a	n/a	n/a	n/a	n/a	n/a
4160290	RECOG_RESP	n/a	LTP093	ltpFR	2	6	n/a	CURB	426	n/a	n/a	n/a	n/a	n/a	n/a	n/a
4161193	RECOG_CONF	n/a	LTP093	ltpFR	2	6	n/a	CURB	426	2	n/a	n/a	n/a	n/a	n/a	n/a
4162537	RECOG_LURE	n/a	LTP093	ltpFR	2	6	n/a	SANDWICH	1232	3	n/a	n/a	n/a	n/a	n/a	n/a
4163522	RECOG_RESP	n/a	LTP093	ltpFR	2	6	n/a	SANDWICH	1232	n/a	n/a	n/a	n/a	n/a	n/a	n/a
4164505	RECOG_CONF	n/a	LTP093	ltpFR	2	6	n/a	SANDWICH	1232	3	n/a	n/a	n/a	n/a	n/a	n/a
4165762	RECOG_LURE	n/a	LTP093	ltpFR	2	6	n/a	FLANNEL	574	4	n/a	n/a	n/a	n/a	n/a	n/a
4166655	RECOG_RESP	n/a	LTP093	ltpFR	2	6	n/a	FLANNEL	574	n/a	n/a	n/a	n/a	n/a	n/a	n/a
4167498	RECOG_CONF	n/a	LTP093	ltpFR	2	6	n/a	FLANNEL	574	4	n/a	n/a	n/a	n/a	n/a	n/a
4174214	REC_START	n/a	LTP093	ltpFR	2	7	n/a	n/a	n/a	n/a	n/a	n/a	n/a	n/a	n/a	n/a
4174253	RECOG_TARGET	n/a	LTP093	ltpFR	2	7	-1	BANDANNA	80	5	-1	n/a	n/a	n/a	n/a	n/a
4174977	RECOG_RESP	n/a	LTP093	ltpFR	2	7	-1	BANDANNA	80	n/a	-1	n/a	n/a	n/a	n/a	n/a
4175915	RECOG_CONF	n/a	LTP093	ltpFR	2	7	-1	BANDANNA	80	5	-1	n/a	n/a	n/a	n/a	n/a
4177245	RECOG_TARGET	n/a	LTP093	ltpFR	2	7	1	FOE	587	5	1	n/a	n/a	n/a	n/a	n/a
4178010	RECOG_RESP	n/a	LTP093	ltpFR	2	7	1	FOE	587	n/a	1	n/a	n/a	n/a	n/a	n/a
4178898	RECOG_CONF	n/a	LTP093	ltpFR	2	7	1	FOE	587	5	1	n/a	n/a	n/a	n/a	n/a
4180094	RECOG_TARGET	n/a	LTP093	ltpFR	2	7	-1	BELLY	119	3	-1	n/a	n/a	n/a	n/a	n/a
4180749	RECOG_RESP	n/a	LTP093	ltpFR	2	7	-1	BELLY	119	n/a	-1	n/a	n/a	n/a	n/a	n/a
4181662	RECOG_CONF	n/a	LTP093	ltpFR	2	7	-1	BELLY	119	3	-1	n/a	n/a	n/a	n/a	n/a
4182911	RECOG_TARGET	n/a	LTP093	ltpFR	2	7	-1	BUTCHER	203	5	-1	n/a	n/a	n/a	n/a	n/a
4183473	RECOG_RESP	n/a	LTP093	ltpFR	2	7	-1	BUTCHER	203	n/a	-1	n/a	n/a	n/a	n/a	n/a
4184186	RECOG_CONF	n/a	LTP093	ltpFR	2	7	-1	BUTCHER	203	5	-1	n/a	n/a	n/a	n/a	n/a
4185545	RECOG_TARGET	n/a	LTP093	ltpFR	2	7	1	TOWN	1491	5	0	n/a	n/a	n/a	n/a	n/a
4186187	RECOG_RESP	n/a	LTP093	ltpFR	2	7	1	TOWN	1491	n/a	0	n/a	n/a	n/a	n/a	n/a
4187020	RECOG_CONF	n/a	LTP093	ltpFR	2	7	1	TOWN	1491	5	0	n/a	n/a	n/a	n/a	n/a
4188227	RECOG_TARGET	n/a	LTP093	ltpFR	2	7	0	SAND	1230	5	0	n/a	n/a	n/a	n/a	n/a
4188781	RECOG_RESP	n/a	LTP093	ltpFR	2	7	0	SAND	1230	n/a	0	n/a	n/a	n/a	n/a	n/a
4189664	RECOG_CONF	n/a	LTP093	ltpFR	2	7	0	SAND	1230	5	0	n/a	n/a	n/a	n/a	n/a
4190969	RECOG_TARGET	n/a	LTP093	ltpFR	2	7	1	ACTRESS	6	5	1	n/a	n/a	n/a	n/a	n/a
4191509	RECOG_RESP	n/a	LTP093	ltpFR	2	7	1	ACTRESS	6	n/a	1	n/a	n/a	n/a	n/a	n/a
4192388	RECOG_CONF	n/a	LTP093	ltpFR	2	7	1	ACTRESS	6	5	1	n/a	n/a	n/a	n/a	n/a
4193686	RECOG_TARGET	n/a	LTP093	ltpFR	2	7	0	DECK	443	5	0	n/a	n/a	n/a	n/a	n/a
4194258	RECOG_RESP	n/a	LTP093	ltpFR	2	7	0	DECK	443	n/a	0	n/a	n/a	n/a	n/a	n/a
4195131	RECOG_CONF	n/a	LTP093	ltpFR	2	7	0	DECK	443	5	0	n/a	n/a	n/a	n/a	n/a
4196393	RECOG_TARGET	n/a	LTP093	ltpFR	2	7	-1	RAIL	1161	5	-1	n/a	n/a	n/a	n/a	n/a
4197007	RECOG_RESP	n/a	LTP093	ltpFR	2	7	-1	RAIL	1161	n/a	-1	n/a	n/a	n/a	n/a	n/a
4197965	RECOG_CONF	n/a	LTP093	ltpFR	2	7	-1	RAIL	1161	5	-1	n/a	n/a	n/a	n/a	n/a
4199235	RECOG_TARGET	n/a	LTP093	ltpFR	2	7	1	ANKLE	24	5	1	n/a	n/a	n/a	n/a	n/a
4199836	RECOG_RESP	n/a	LTP093	ltpFR	2	7	1	ANKLE	24	n/a	1	n/a	n/a	n/a	n/a	n/a
4200749	RECOG_CONF	n/a	LTP093	ltpFR	2	7	1	ANKLE	24	5	1	n/a	n/a	n/a	n/a	n/a
4201959	RECOG_LURE	n/a	LTP093	ltpFR	2	7	n/a	PERISCOPE	1050	5	n/a	n/a	n/a	n/a	n/a	n/a
4202809	RECOG_RESP	n/a	LTP093	ltpFR	2	7	n/a	PERISCOPE	1050	n/a	n/a	n/a	n/a	n/a	n/a	n/a
4203802	RECOG_CONF	n/a	LTP093	ltpFR	2	7	n/a	PERISCOPE	1050	5	n/a	n/a	n/a	n/a	n/a	n/a
4205084	RECOG_LURE	n/a	LTP093	ltpFR	2	7	n/a	UMPIRE	1535	5	n/a	n/a	n/a	n/a	n/a	n/a
4205862	RECOG_RESP	n/a	LTP093	ltpFR	2	7	n/a	UMPIRE	1535	n/a	n/a	n/a	n/a	n/a	n/a	n/a
4206745	RECOG_CONF	n/a	LTP093	ltpFR	2	7	n/a	UMPIRE	1535	5	n/a	n/a	n/a	n/a	n/a	n/a
4208034	RECOG_TARGET	n/a	LTP093	ltpFR	2	7	-1	ORCHESTRA	981	5	-1	n/a	n/a	n/a	n/a	n/a
4208815	RECOG_RESP	n/a	LTP093	ltpFR	2	7	-1	ORCHESTRA	981	n/a	-1	n/a	n/a	n/a	n/a	n/a
4209778	RECOG_CONF	n/a	LTP093	ltpFR	2	7	-1	ORCHESTRA	981	5	-1	n/a	n/a	n/a	n/a	n/a
4211042	RECOG_TARGET	n/a	LTP093	ltpFR	2	7	0	PRINTER	1126	5	0	n/a	n/a	n/a	n/a	n/a
4211619	RECOG_RESP	n/a	LTP093	ltpFR	2	7	0	PRINTER	1126	n/a	0	n/a	n/a	n/a	n/a	n/a
4212612	RECOG_CONF	n/a	LTP093	ltpFR	2	7	0	PRINTER	1126	5	0	n/a	n/a	n/a	n/a	n/a
4213825	RECOG_LURE	n/a	LTP093	ltpFR	2	7	n/a	GUITAR	670	5	n/a	n/a	n/a	n/a	n/a	n/a
4214562	RECOG_RESP	n/a	LTP093	ltpFR	2	7	n/a	GUITAR	670	n/a	n/a	n/a	n/a	n/a	n/a	n/a
4215385	RECOG_CONF	n/a	LTP093	ltpFR	2	7	n/a	GUITAR	670	5	n/a	n/a	n/a	n/a	n/a	n/a
4216726	RECOG_TARGET	n/a	LTP093	ltpFR	2	7	1	WARRIOR	1589	5	1	n/a	n/a	n/a	n/a	n/a
4217306	RECOG_RESP	n/a	LTP093	ltpFR	2	7	1	WARRIOR	1589	n/a	1	n/a	n/a	n/a	n/a	n/a
4218279	RECOG_CONF	n/a	LTP093	ltpFR	2	7	1	WARRIOR	1589	5	1	n/a	n/a	n/a	n/a	n/a
4219609	RECOG_TARGET	n/a	LTP093	ltpFR	2	7	-1	CUFF	423	3	-1	n/a	n/a	n/a	n/a	n/a
4221975	RECOG_RESP	n/a	LTP093	ltpFR	2	7	-1	CUFF	423	n/a	-1	n/a	n/a	n/a	n/a	n/a
4223048	RECOG_CONF	n/a	LTP093	ltpFR	2	7	-1	CUFF	423	3	-1	n/a	n/a	n/a	n/a	n/a
4224383	RECOG_TARGET	n/a	LTP093	ltpFR	2	7	1	SEAL	1262	5	1	n/a	n/a	n/a	n/a	n/a
4225901	RECOG_RESP	n/a	LTP093	ltpFR	2	7	1	SEAL	1262	n/a	1	n/a	n/a	n/a	n/a	n/a
4226789	RECOG_CONF	n/a	LTP093	ltpFR	2	7	1	SEAL	1262	5	1	n/a	n/a	n/a	n/a	n/a
4228116	RECOG_TARGET	n/a	LTP093	ltpFR	2	7	-1	BRACES	164	5	-1	n/a	n/a	n/a	n/a	n/a
4228735	RECOG_RESP	n/a	LTP093	ltpFR	2	7	-1	BRACES	164	n/a	-1	n/a	n/a	n/a	n/a	n/a
4229663	RECOG_CONF	n/a	LTP093	ltpFR	2	7	-1	BRACES	164	5	-1	n/a	n/a	n/a	n/a	n/a
4230857	RECOG_TARGET	n/a	LTP093	ltpFR	2	7	0	DAGGER	434	5	0	n/a	n/a	n/a	n/a	n/a
4231499	RECOG_RESP	n/a	LTP093	ltpFR	2	7	0	DAGGER	434	n/a	0	n/a	n/a	n/a	n/a	n/a
4232397	RECOG_CONF	n/a	LTP093	ltpFR	2	7	0	DAGGER	434	5	0	n/a	n/a	n/a	n/a	n/a
4247293	REC_START	n/a	LTP093	ltpFR	2	8	n/a	n/a	n/a	n/a	n/a	n/a	n/a	n/a	n/a	n/a
4247323	RECOG_TARGET	n/a	LTP093	ltpFR	2	8	1	MOB	904	5	1	n/a	n/a	n/a	n/a	n/a
4248121	RECOG_RESP	n/a	LTP093	ltpFR	2	8	1	MOB	904	n/a	1	n/a	n/a	n/a	n/a	n/a
4249004	RECOG_CONF	n/a	LTP093	ltpFR	2	8	1	MOB	904	5	1	n/a	n/a	n/a	n/a	n/a
4250256	RECOG_TARGET	n/a	LTP093	ltpFR	2	8	0	ZEBRA	1635	5	0	n/a	n/a	n/a	n/a	n/a
4250835	RECOG_RESP	n/a	LTP093	ltpFR	2	8	0	ZEBRA	1635	n/a	0	n/a	n/a	n/a	n/a	n/a
4251638	RECOG_CONF	n/a	LTP093	ltpFR	2	8	0	ZEBRA	1635	5	0	n/a	n/a	n/a	n/a	n/a
4252939	RECOG_LURE	n/a	LTP093	ltpFR	2	8	n/a	SKUNK	1321	4	n/a	n/a	n/a	n/a	n/a	n/a
4253698	RECOG_RESP	n/a	LTP093	ltpFR	2	8	n/a	SKUNK	1321	n/a	n/a	n/a	n/a	n/a	n/a	n/a
4254601	RECOG_CONF	n/a	LTP093	ltpFR	2	8	n/a	SKUNK	1321	4	n/a	n/a	n/a	n/a	n/a	n/a
4255830	RECOG_TARGET	n/a	LTP093	ltpFR	2	8	-1	PILL	1068	3	-1	n/a	n/a	n/a	n/a	n/a
4256522	RECOG_RESP	n/a	LTP093	ltpFR	2	8	-1	PILL	1068	n/a	-1	n/a	n/a	n/a	n/a	n/a
4257295	RECOG_CONF	n/a	LTP093	ltpFR	2	8	-1	PILL	1068	3	-1	n/a	n/a	n/a	n/a	n/a
4258656	RECOG_TARGET	n/a	LTP093	ltpFR	2	8	0	HAMBURGER	679	5	0	n/a	n/a	n/a	n/a	n/a
4259300	RECOG_RESP	n/a	LTP093	ltpFR	2	8	0	HAMBURGER	679	n/a	0	n/a	n/a	n/a	n/a	n/a
4260518	RECOG_CONF	n/a	LTP093	ltpFR	2	8	0	HAMBURGER	679	5	0	n/a	n/a	n/a	n/a	n/a
4261822	RECOG_LURE	n/a	LTP093	ltpFR	2	8	n/a	ANGEL	22	4	n/a	n/a	n/a	n/a	n/a	n/a
4262847	RECOG_RESP	n/a	LTP093	ltpFR	2	8	n/a	ANGEL	22	n/a	n/a	n/a	n/a	n/a	n/a	n/a
4263631	RECOG_CONF	n/a	LTP093	ltpFR	2	8	n/a	ANGEL	22	4	n/a	n/a	n/a	n/a	n/a	n/a
4265030	RECOG_TARGET	n/a	LTP093	ltpFR	2	8	-1	INDIAN	736	5	-1	n/a	n/a	n/a	n/a	n/a
4265636	RECOG_RESP	n/a	LTP093	ltpFR	2	8	-1	INDIAN	736	n/a	-1	n/a	n/a	n/a	n/a	n/a
4266534	RECOG_CONF	n/a	LTP093	ltpFR	2	8	-1	INDIAN	736	5	-1	n/a	n/a	n/a	n/a	n/a
4268163	RECOG_TARGET	n/a	LTP093	ltpFR	2	8	-1	BATHTUB	100	5	-1	n/a	n/a	n/a	n/a	n/a
4271642	RECOG_RESP	n/a	LTP093	ltpFR	2	8	-1	BATHTUB	100	n/a	-1	n/a	n/a	n/a	n/a	n/a
4272401	RECOG_CONF	n/a	LTP093	ltpFR	2	8	-1	BATHTUB	100	5	-1	n/a	n/a	n/a	n/a	n/a
4273722	RECOG_TARGET	n/a	LTP093	ltpFR	2	8	1	DESIGNER	451	5	1	n/a	n/a	n/a	n/a	n/a
4274446	RECOG_RESP	n/a	LTP093	ltpFR	2	8	1	DESIGNER	451	n/a	1	n/a	n/a	n/a	n/a	n/a
4275224	RECOG_CONF	n/a	LTP093	ltpFR	2	8	1	DESIGNER	451	5	1	n/a	n/a	n/a	n/a	n/a
4276479	RECOG_TARGET	n/a	LTP093	ltpFR	2	8	0	CAFE	216	5	0	n/a	n/a	n/a	n/a	n/a
4277010	RECOG_RESP	n/a	LTP093	ltpFR	2	8	0	CAFE	216	n/a	0	n/a	n/a	n/a	n/a	n/a
4277888	RECOG_CONF	n/a	LTP093	ltpFR	2	8	0	CAFE	216	5	0	n/a	n/a	n/a	n/a	n/a
4279187	RECOG_TARGET	n/a	LTP093	ltpFR	2	8	0	BAG	69	3	0	n/a	n/a	n/a	n/a	n/a
4281076	RECOG_RESP	n/a	LTP093	ltpFR	2	8	0	BAG	69	n/a	0	n/a	n/a	n/a	n/a	n/a
4282019	RECOG_CONF	n/a	LTP093	ltpFR	2	8	0	BAG	69	3	0	n/a	n/a	n/a	n/a	n/a
4283228	RECOG_TARGET	n/a	LTP093	ltpFR	2	8	-1	BODY	145	2	-1	n/a	n/a	n/a	n/a	n/a
4284119	RECOG_RESP	n/a	LTP093	ltpFR	2	8	-1	BODY	145	n/a	-1	n/a	n/a	n/a	n/a	n/a
4284882	RECOG_CONF	n/a	LTP093	ltpFR	2	8	-1	BODY	145	2	-1	n/a	n/a	n/a	n/a	n/a
4286236	RECOG_TARGET	n/a	LTP093	ltpFR	2	8	0	CALENDAR	221	3	0	n/a	n/a	n/a	n/a	n/a
4287651	RECOG_RESP	n/a	LTP093	ltpFR	2	8	0	CALENDAR	221	n/a	0	n/a	n/a	n/a	n/a	n/a
4288873	RECOG_CONF	n/a	LTP093	ltpFR	2	8	0	CALENDAR	221	3	0	n/a	n/a	n/a	n/a	n/a
4290369	RECOG_LURE	n/a	LTP093	ltpFR	2	8	n/a	OX	994	4	n/a	n/a	n/a	n/a	n/a	n/a
4291143	RECOG_RESP	n/a	LTP093	ltpFR	2	8	n/a	OX	994	n/a	n/a	n/a	n/a	n/a	n/a	n/a
4292006	RECOG_CONF	n/a	LTP093	ltpFR	2	8	n/a	OX	994	4	n/a	n/a	n/a	n/a	n/a	n/a
4293277	RECOG_LURE	n/a	LTP093	ltpFR	2	8	n/a	CABBAGE	210	4	n/a	n/a	n/a	n/a	n/a	n/a
4294106	RECOG_RESP	n/a	LTP093	ltpFR	2	8	n/a	CABBAGE	210	n/a	n/a	n/a	n/a	n/a	n/a	n/a
4295069	RECOG_CONF	n/a	LTP093	ltpFR	2	8	n/a	CABBAGE	210	4	n/a	n/a	n/a	n/a	n/a	n/a
4296327	RECOG_TARGET	n/a	LTP093	ltpFR	2	8	-1	SHEET	1279	3	-1	n/a	n/a	n/a	n/a	n/a
4297204	RECOG_RESP	n/a	LTP093	ltpFR	2	8	-1	SHEET	1279	n/a	-1	n/a	n/a	n/a	n/a	n/a
4298192	RECOG_CONF	n/a	LTP093	ltpFR	2	8	-1	SHEET	1279	3	-1	n/a	n/a	n/a	n/a	n/a
4299485	RECOG_TARGET	n/a	LTP093	ltpFR	2	8	-1	QUILL	1150	5	-1	n/a	n/a	n/a	n/a	n/a
4300158	RECOG_RESP	n/a	LTP093	ltpFR	2	8	-1	QUILL	1150	n/a	-1	n/a	n/a	n/a	n/a	n/a
4300936	RECOG_CONF	n/a	LTP093	ltpFR	2	8	-1	QUILL	1150	5	-1	n/a	n/a	n/a	n/a	n/a
4302227	RECOG_LURE	n/a	LTP093	ltpFR	2	8	n/a	CALF	222	4	n/a	n/a	n/a	n/a	n/a	n/a
4303146	RECOG_RESP	n/a	LTP093	ltpFR	2	8	n/a	CALF	222	n/a	n/a	n/a	n/a	n/a	n/a	n/a
4303999	RECOG_CONF	n/a	LTP093	ltpFR	2	8	n/a	CALF	222	4	n/a	n/a	n/a	n/a	n/a	n/a
4305293	RECOG_TARGET	n/a	LTP093	ltpFR	2	8	-1	STEW	1380	5	-1	n/a	n/a	n/a	n/a	n/a
4305964	RECOG_RESP	n/a	LTP093	ltpFR	2	8	-1	STEW	1380	n/a	-1	n/a	n/a	n/a	n/a	n/a
4306793	RECOG_CONF	n/a	LTP093	ltpFR	2	8	-1	STEW	1380	5	-1	n/a	n/a	n/a	n/a	n/a
4308060	RECOG_TARGET	n/a	LTP093	ltpFR	2	8	1	STREAM	1392	5	0	n/a	n/a	n/a	n/a	n/a
4308748	RECOG_RESP	n/a	LTP093	ltpFR	2	8	1	STREAM	1392	n/a	0	n/a	n/a	n/a	n/a	n/a
4309576	RECOG_CONF	n/a	LTP093	ltpFR	2	8	1	STREAM	1392	5	0	n/a	n/a	n/a	n/a	n/a
4317536	REC_START	n/a	LTP093	ltpFR	2	9	n/a	n/a	n/a	n/a	n/a	n/a	n/a	n/a	n/a	n/a
4317577	RECOG_TARGET	n/a	LTP093	ltpFR	2	9	0	CORPORATION	382	5	1	n/a	n/a	n/a	n/a	n/a
4318339	RECOG_RESP	n/a	LTP093	ltpFR	2	9	0	CORPORATION	382	n/a	1	n/a	n/a	n/a	n/a	n/a
4319237	RECOG_CONF	n/a	LTP093	ltpFR	2	9	0	CORPORATION	382	5	1	n/a	n/a	n/a	n/a	n/a
4320543	RECOG_LURE	n/a	LTP093	ltpFR	2	9	n/a	SHOWER	1296	4	n/a	n/a	n/a	n/a	n/a	n/a
4321367	RECOG_RESP	n/a	LTP093	ltpFR	2	9	n/a	SHOWER	1296	n/a	n/a	n/a	n/a	n/a	n/a	n/a
4322100	RECOG_CONF	n/a	LTP093	ltpFR	2	9	n/a	SHOWER	1296	4	n/a	n/a	n/a	n/a	n/a	n/a
4323400	RECOG_TARGET	n/a	LTP093	ltpFR	2	9	1	BAKER	71	5	1	n/a	n/a	n/a	n/a	n/a
4323961	RECOG_RESP	n/a	LTP093	ltpFR	2	9	1	BAKER	71	n/a	1	n/a	n/a	n/a	n/a	n/a
4324884	RECOG_CONF	n/a	LTP093	ltpFR	2	9	1	BAKER	71	5	1	n/a	n/a	n/a	n/a	n/a
4326175	RECOG_LURE	n/a	LTP093	ltpFR	2	9	n/a	MAT	877	2	n/a	n/a	n/a	n/a	n/a	n/a
4328551	RECOG_RESP	n/a	LTP093	ltpFR	2	9	n/a	MAT	877	n/a	n/a	n/a	n/a	n/a	n/a	n/a
4329484	RECOG_CONF	n/a	LTP093	ltpFR	2	9	n/a	MAT	877	2	n/a	n/a	n/a	n/a	n/a	n/a
4330775	RECOG_TARGET	n/a	LTP093	ltpFR	2	9	0	NAPKIN	937	5	0	n/a	n/a	n/a	n/a	n/a
4331449	RECOG_RESP	n/a	LTP093	ltpFR	2	9	0	NAPKIN	937	n/a	0	n/a	n/a	n/a	n/a	n/a
4332237	RECOG_CONF	n/a	LTP093	ltpFR	2	9	0	NAPKIN	937	5	0	n/a	n/a	n/a	n/a	n/a
4333466	RECOG_TARGET	n/a	LTP093	ltpFR	2	9	1	FRANCE	601	5	0	n/a	n/a	n/a	n/a	n/a
4334253	RECOG_RESP	n/a	LTP093	ltpFR	2	9	1	FRANCE	601	n/a	0	n/a	n/a	n/a	n/a	n/a
4335101	RECOG_CONF	n/a	LTP093	ltpFR	2	9	1	FRANCE	601	5	0	n/a	n/a	n/a	n/a	n/a
4336449	RECOG_TARGET	n/a	LTP093	ltpFR	2	9	0	SHORTS	1293	5	0	n/a	n/a	n/a	n/a	n/a
4337136	RECOG_RESP	n/a	LTP093	ltpFR	2	9	0	SHORTS	1293	n/a	0	n/a	n/a	n/a	n/a	n/a
4337875	RECOG_CONF	n/a	LTP093	ltpFR	2	9	0	SHORTS	1293	5	0	n/a	n/a	n/a	n/a	n/a
4339357	RECOG_TARGET	n/a	LTP093	ltpFR	2	9	1	NOTEBOOK	959	5	0	n/a	n/a	n/a	n/a	n/a
4340159	RECOG_RESP	n/a	LTP093	ltpFR	2	9	1	NOTEBOOK	959	n/a	0	n/a	n/a	n/a	n/a	n/a
4340908	RECOG_CONF	n/a	LTP093	ltpFR	2	9	1	NOTEBOOK	959	5	0	n/a	n/a	n/a	n/a	n/a
4342165	RECOG_TARGET	n/a	LTP093	ltpFR	2	9	1	CHIME	300	2	0	n/a	n/a	n/a	n/a	n/a
4343382	RECOG_RESP	n/a	LTP093	ltpFR	2	9	1	CHIME	300	n/a	0	n/a	n/a	n/a	n/a	n/a
4344649	RECOG_CONF	n/a	LTP093	ltpFR	2	9	1	CHIME	300	2	0	n/a	n/a	n/a	n/a	n/a
4346032	RECOG_LURE	n/a	LTP093	ltpFR	2	9	n/a	CAPE	237	3	n/a	n/a	n/a	n/a	n/a	n/a
4347637	RECOG_RESP	n/a	LTP093	ltpFR	2	9	n/a	CAPE	237	n/a	n/a	n/a	n/a	n/a	n/a	n/a
4348550	RECOG_CONF	n/a	LTP093	ltpFR	2	9	n/a	CAPE	237	3	n/a	n/a	n/a	n/a	n/a	n/a
4349881	RECOG_TARGET	n/a	LTP093	ltpFR	2	9	0	BUGGY	188	5	0	n/a	n/a	n/a	n/a	n/a
4350611	RECOG_RESP	n/a	LTP093	ltpFR	2	9	0	BUGGY	188	n/a	0	n/a	n/a	n/a	n/a	n/a
4351314	RECOG_CONF	n/a	LTP093	ltpFR	2	9	0	BUGGY	188	5	0	n/a	n/a	n/a	n/a	n/a
4352607	RECOG_LURE	n/a	LTP093	ltpFR	2	9	n/a	EGG	518	4	n/a	n/a	n/a	n/a	n/a	n/a
4353255	RECOG_RESP	n/a	LTP093	ltpFR	2	9	n/a	EGG	518	n/a	n/a	n/a	n/a	n/a	n/a	n/a
4354008	RECOG_CONF	n/a	LTP093	ltpFR	2	9	n/a	EGG	518	4	n/a	n/a	n/a	n/a	n/a	n/a
4355289	RECOG_LURE	n/a	LTP093	ltpFR	2	9	n/a	PICTURE	1061	3	n/a	n/a	n/a	n/a	n/a	n/a
4356083	RECOG_RESP	n/a	LTP093	ltpFR	2	9	n/a	PICTURE	1061	n/a	n/a	n/a	n/a	n/a	n/a	n/a
4356881	RECOG_CONF	n/a	LTP093	ltpFR	2	9	n/a	PICTURE	1061	3	n/a	n/a	n/a	n/a	n/a	n/a
4358206	RECOG_LURE	n/a	LTP093	ltpFR	2	9	n/a	MUSTARD	935	4	n/a	n/a	n/a	n/a	n/a	n/a
4358887	RECOG_RESP	n/a	LTP093	ltpFR	2	9	n/a	MUSTARD	935	n/a	n/a	n/a	n/a	n/a	n/a	n/a
4359795	RECOG_CONF	n/a	LTP093	ltpFR	2	9	n/a	MUSTARD	935	4	n/a	n/a	n/a	n/a	n/a	n/a
4361089	RECOG_TARGET	n/a	LTP093	ltpFR	2	9	-1	SILVERWARE	1308	5	-1	n/a	n/a	n/a	n/a	n/a
4361835	RECOG_RESP	n/a	LTP093	ltpFR	2	9	-1	SILVERWARE	1308	n/a	-1	n/a	n/a	n/a	n/a	n/a
4362748	RECOG_CONF	n/a	LTP093	ltpFR	2	9	-1	SILVERWARE	1308	5	-1	n/a	n/a	n/a	n/a	n/a
4364022	RECOG_LURE	n/a	LTP093	ltpFR	2	9	n/a	TOASTER	1472	4	n/a	n/a	n/a	n/a	n/a	n/a
4364843	RECOG_RESP	n/a	LTP093	ltpFR	2	9	n/a	TOASTER	1472	n/a	n/a	n/a	n/a	n/a	n/a	n/a
4365761	RECOG_CONF	n/a	LTP093	ltpFR	2	9	n/a	TOASTER	1472	4	n/a	n/a	n/a	n/a	n/a	n/a
4367030	RECOG_TARGET	n/a	LTP093	ltpFR	2	9	0	LEAF	808	5	0	n/a	n/a	n/a	n/a	n/a
4367822	RECOG_RESP	n/a	LTP093	ltpFR	2	9	0	LEAF	808	n/a	0	n/a	n/a	n/a	n/a	n/a
4368754	RECOG_CONF	n/a	LTP093	ltpFR	2	9	0	LEAF	808	5	0	n/a	n/a	n/a	n/a	n/a
4370197	RECOG_LURE	n/a	LTP093	ltpFR	2	9	n/a	TUNA	1518	4	n/a	n/a	n/a	n/a	n/a	n/a
4370900	RECOG_RESP	n/a	LTP093	ltpFR	2	9	n/a	TUNA	1518	n/a	n/a	n/a	n/a	n/a	n/a	n/a
4371668	RECOG_CONF	n/a	LTP093	ltpFR	2	9	n/a	TUNA	1518	4	n/a	n/a	n/a	n/a	n/a	n/a
4372921	RECOG_TARGET	n/a	LTP093	ltpFR	2	9	1	GLOBE	641	5	0	n/a	n/a	n/a	n/a	n/a
4373763	RECOG_RESP	n/a	LTP093	ltpFR	2	9	1	GLOBE	641	n/a	0	n/a	n/a	n/a	n/a	n/a
4374771	RECOG_CONF	n/a	LTP093	ltpFR	2	9	1	GLOBE	641	5	0	n/a	n/a	n/a	n/a	n/a
4376046	RECOG_LURE	n/a	LTP093	ltpFR	2	9	n/a	RELATIVE	1182	4	n/a	n/a	n/a	n/a	n/a	n/a
4376776	RECOG_RESP	n/a	LTP093	ltpFR	2	9	n/a	RELATIVE	1182	n/a	n/a	n/a	n/a	n/a	n/a	n/a
4377624	RECOG_CONF	n/a	LTP093	ltpFR	2	9	n/a	RELATIVE	1182	4	n/a	n/a	n/a	n/a	n/a	n/a
4381586	REC_START	n/a	LTP093	ltpFR	2	10	n/a	n/a	n/a	n/a	n/a	n/a	n/a	n/a	n/a	n/a
4381622	RECOG_LURE	n/a	LTP093	ltpFR	2	10	n/a	ENGINEER	536	3	n/a	n/a	n/a	n/a	n/a	n/a
4382908	RECOG_RESP	n/a	LTP093	ltpFR	2	10	n/a	ENGINEER	536	n/a	n/a	n/a	n/a	n/a	n/a	n/a
4384015	RECOG_CONF	n/a	LTP093	ltpFR	2	10	n/a	ENGINEER	536	3	n/a	n/a	n/a	n/a	n/a	n/a
4385354	RECOG_LURE	n/a	LTP093	ltpFR	2	10	n/a	PLUTO	1092	5	n/a	n/a	n/a	n/a	n/a	n/a
4386315	RECOG_RESP	n/a	LTP093	ltpFR	2	10	n/a	PLUTO	1092	n/a	n/a	n/a	n/a	n/a	n/a	n/a
4387178	RECOG_CONF	n/a	LTP093	ltpFR	2	10	n/a	PLUTO	1092	5	n/a	n/a	n/a	n/a	n/a	n/a
4388454	RECOG_TARGET	n/a	LTP093	ltpFR	2	10	1	ACTOR	5	5	1	n/a	n/a	n/a	n/a	n/a
4389243	RECOG_RESP	n/a	LTP093	ltpFR	2	10	1	ACTOR	5	n/a	1	n/a	n/a	n/a	n/a	n/a
4390161	RECOG_CONF	n/a	LTP093	ltpFR	2	10	1	ACTOR	5	5	1	n/a	n/a	n/a	n/a	n/a
4391495	RECOG_TARGET	n/a	LTP093	ltpFR	2	10	1	REPTILE	1185	5	1	n/a	n/a	n/a	n/a	n/a
4392157	RECOG_RESP	n/a	LTP093	ltpFR	2	10	1	REPTILE	1185	n/a	1	n/a	n/a	n/a	n/a	n/a
4392945	RECOG_CONF	n/a	LTP093	ltpFR	2	10	1	REPTILE	1185	5	1	n/a	n/a	n/a	n/a	n/a
4394203	RECOG_TARGET	n/a	LTP093	ltpFR	2	10	0	SEA	1259	5	1	n/a	n/a	n/a	n/a	n/a
4394831	RECOG_RESP	n/a	LTP093	ltpFR	2	10	0	SEA	1259	n/a	1	n/a	n/a	n/a	n/a	n/a
4395709	RECOG_CONF	n/a	LTP093	ltpFR	2	10	0	SEA	1259	5	1	n/a	n/a	n/a	n/a	n/a
4396978	RECOG_TARGET	n/a	LTP093	ltpFR	2	10	1	INVENTOR	743	5	1	n/a	n/a	n/a	n/a	n/a
4397624	RECOG_RESP	n/a	LTP093	ltpFR	2	10	1	INVENTOR	743	n/a	1	n/a	n/a	n/a	n/a	n/a
4398472	RECOG_CONF	n/a	LTP093	ltpFR	2	10	1	INVENTOR	743	5	1	n/a	n/a	n/a	n/a	n/a
4399654	RECOG_LURE	n/a	LTP093	ltpFR	2	10	n/a	PASSAGE	1019	4	n/a	n/a	n/a	n/a	n/a	n/a
4400563	RECOG_RESP	n/a	LTP093	ltpFR	2	10	n/a	PASSAGE	1019	n/a	n/a	n/a	n/a	n/a	n/a	n/a
4402044	RECOG_CONF	n/a	LTP093	ltpFR	2	10	n/a	PASSAGE	1019	4	n/a	n/a	n/a	n/a	n/a	n/a
4403553	RECOG_LURE	n/a	LTP093	ltpFR	2	10	n/a	TABLET	1427	4	n/a	n/a	n/a	n/a	n/a	n/a
4404379	RECOG_RESP	n/a	LTP093	ltpFR	2	10	n/a	TABLET	1427	n/a	n/a	n/a	n/a	n/a	n/a	n/a
