mstime	trial_type	stim_file	subject	experiment	session	trial	item_name	item_num	list	answer	test_x	test_y	test_z
0	SESS_START	n/a	LTP300	ltpFR2	5	n/a	n/a	n/a	n/a	n/a	0	0	0
12495	START	n/a	LTP300	ltpFR2	5	n/a	n/a	n/a	-1	n/a	n/a	n/a	n/a
12515	PROB	n/a	LTP300	ltpFR2	5	n/a	n/a	n/a	-1	6	1	3	2
14043	PROB	n/a	LTP300	ltpFR2	5	n/a	n/a	n/a	-1	14	5	3	6
16095	PROB	n/a	LTP300	ltpFR2	5	n/a	n/a	n/a	-1	21	7	7	7
18514	PROB	n/a	LTP300	ltpFR2	5	n/a	n/a	n/a	-1	16	8	1	7
20081	PROB	n/a	LTP300	ltpFR2	5	n/a	n/a	n/a	-1	18	8	6	4
21449	PROB	n/a	LTP300	ltpFR2	5	n/a	n/a	n/a	-1	21	3	9	9
23009	STOP	n/a	LTP300	ltpFR2	5	n/a	n/a	n/a	-1	n/a	n/a	n/a	n/a
53983	DISTRACTOR	n/a	LTP300	ltpFR2	5	1	n/a	n/a	n/a	n/a	0	0	0
53983	START	n/a	LTP300	ltpFR2	5	n/a	n/a	n/a	1	n/a	n/a	n/a	n/a
53998	PROB	n/a	LTP300	ltpFR2	5	n/a	n/a	n/a	1	8	2	1	5
55542	PROB	n/a	LTP300	ltpFR2	5	n/a	n/a	n/a	1	16	5	9	2
59027	PROB	n/a	LTP300	ltpFR2	5	n/a	n/a	n/a	1	20	8	3	9
60679	PROB	n/a	LTP300	ltpFR2	5	n/a	n/a	n/a	1	20	9	5	6
62498	PROB	n/a	LTP300	ltpFR2	5	n/a	n/a	n/a	1	24	9	6	9
64533	PROB	n/a	LTP300	ltpFR2	5	n/a	n/a	n/a	1	10	2	1	7
65683	PROB	n/a	LTP300	ltpFR2	5	n/a	n/a	n/a	1	18	8	5	5
66884	PROB	n/a	LTP300	ltpFR2	5	n/a	n/a	n/a	1	20	9	6	5
68703	PROB	n/a	LTP300	ltpFR2	5	n/a	n/a	n/a	1	17	6	3	8
70387	PROB	n/a	LTP300	ltpFR2	5	n/a	n/a	n/a	1	26	9	9	8
73656	PROB	n/a	LTP300	ltpFR2	5	n/a	n/a	n/a	1	16	5	7	4
76123	PROB	n/a	LTP300	ltpFR2	5	n/a	n/a	n/a	1	15	8	1	6
77514	STOP	n/a	LTP300	ltpFR2	5	n/a	n/a	n/a	1	n/a	n/a	n/a	n/a
78837	WORD	wordpools/wasnorm_wordpool_576.txt	LTP300	ltpFR2	5	1	COFFEE	341	n/a	n/a	0	0	0
81355	WORD	wordpools/wasnorm_wordpool_576.txt	LTP300	ltpFR2	5	1	FLIPPER	580	n/a	n/a	0	0	0
84041	WORD	wordpools/wasnorm_wordpool_576.txt	LTP300	ltpFR2	5	1	MAMMAL	861	n/a	n/a	0	0	0
86833	WORD	wordpools/wasnorm_wordpool_576.txt	LTP300	ltpFR2	5	1	STAR	1373	n/a	n/a	0	0	0
89286	WORD	wordpools/wasnorm_wordpool_576.txt	LTP300	ltpFR2	5	1	PAIL	1002	n/a	n/a	0	0	0
91715	WORD	wordpools/wasnorm_wordpool_576.txt	LTP300	ltpFR2	5	1	SLIDE	1326	n/a	n/a	0	0	0
94289	WORD	wordpools/wasnorm_wordpool_576.txt	LTP300	ltpFR2	5	1	CARROT	249	n/a	n/a	0	0	0
97107	WORD	wordpools/wasnorm_wordpool_576.txt	LTP300	ltpFR2	5	1	CRATER	400	n/a	n/a	0	0	0
99727	WORD	wordpools/wasnorm_wordpool_576.txt	LTP300	ltpFR2	5	1	CHAMPAGNE	278	n/a	n/a	0	0	0
102312	WORD	wordpools/wasnorm_wordpool_576.txt	LTP300	ltpFR2	5	1	BUBBLE	183	n/a	n/a	0	0	0
104825	WORD	wordpools/wasnorm_wordpool_576.txt	LTP300	ltpFR2	5	1	LASER	801	n/a	n/a	0	0	0
107444	WORD	wordpools/wasnorm_wordpool_576.txt	LTP300	ltpFR2	5	1	MOTEL	919	n/a	n/a	0	0	0
110101	WORD	wordpools/wasnorm_wordpool_576.txt	LTP300	ltpFR2	5	1	DRUG	501	n/a	n/a	0	0	0
112819	WORD	wordpools/wasnorm_wordpool_576.txt	LTP300	ltpFR2	5	1	FLOWER	584	n/a	n/a	0	0	0
115556	WORD	wordpools/wasnorm_wordpool_576.txt	LTP300	ltpFR2	5	1	BUNNY	198	n/a	n/a	0	0	0
118069	WORD	wordpools/wasnorm_wordpool_576.txt	LTP300	ltpFR2	5	1	UMPIRE	1535	n/a	n/a	0	0	0
120822	WORD	wordpools/wasnorm_wordpool_576.txt	LTP300	ltpFR2	5	1	HOOD	714	n/a	n/a	0	0	0
123491	WORD	wordpools/wasnorm_wordpool_576.txt	LTP300	ltpFR2	5	1	GRIZZLY	662	n/a	n/a	0	0	0
125929	WORD	wordpools/wasnorm_wordpool_576.txt	LTP300	ltpFR2	5	1	FLEET	578	n/a	n/a	0	0	0
128512	WORD	wordpools/wasnorm_wordpool_576.txt	LTP300	ltpFR2	5	1	CANAL	226	n/a	n/a	0	0	0
131063	WORD	wordpools/wasnorm_wordpool_576.txt	LTP300	ltpFR2	5	1	OINTMENT	974	n/a	n/a	0	0	0
133849	WORD	wordpools/wasnorm_wordpool_576.txt	LTP300	ltpFR2	5	1	HORSE	719	n/a	n/a	0	0	0
136385	WORD	wordpools/wasnorm_wordpool_576.txt	LTP300	ltpFR2	5	1	CRIB	407	n/a	n/a	0	0	0
139020	WORD	wordpools/wasnorm_wordpool_576.txt	LTP300	ltpFR2	5	1	GUARD	667	n/a	n/a	0	0	0
140625	START	n/a	LTP300	ltpFR2	5	n/a	n/a	n/a	2	n/a	n/a	n/a	n/a
141454	DISTRACTOR	n/a	LTP300	ltpFR2	5	1	n/a	n/a	n/a	n/a	0	0	0
141459	PROB	n/a	LTP300	ltpFR2	5	n/a	n/a	n/a	2	15	7	7	1
142841	PROB	n/a	LTP300	ltpFR2	5	n/a	n/a	n/a	2	13	1	4	8
144708	PROB	n/a	LTP300	ltpFR2	5	n/a	n/a	n/a	2	12	1	4	7
146627	PROB	n/a	LTP300	ltpFR2	5	n/a	n/a	n/a	2	10	1	6	2
148161	PROB	n/a	LTP300	ltpFR2	5	n/a	n/a	n/a	2	23	8	6	9
150230	PROB	n/a	LTP300	ltpFR2	5	n/a	n/a	n/a	2	21	6	8	7
154334	PROB	n/a	LTP300	ltpFR2	5	n/a	n/a	n/a	2	20	4	7	9
155770	PROB	n/a	LTP300	ltpFR2	5	n/a	n/a	n/a	2	13	6	3	4
157452	PROB	n/a	LTP300	ltpFR2	5	n/a	n/a	n/a	2	19	3	8	8
158970	PROB	n/a	LTP300	ltpFR2	5	n/a	n/a	n/a	2	10	3	3	4
161355	PROB	n/a	LTP300	ltpFR2	5	n/a	n/a	n/a	2	21	6	9	6
164625	STOP	n/a	LTP300	ltpFR2	5	n/a	n/a	n/a	2	n/a	n/a	n/a	n/a
166412	REC_START	n/a	LTP300	ltpFR2	5	1	n/a	n/a	n/a	n/a	0	0	0
167577	REC_WORD	wordpools/wasnorm_wordpool_576.txt	LTP300	ltpFR2	5	1	COFFEE	341	n/a	n/a	0	0	0
169255	REC_WORD	wordpools/wasnorm_wordpool_576.txt	LTP300	ltpFR2	5	1	FLIPPER	580	n/a	n/a	0	0	0
171145	REC_WORD	wordpools/wasnorm_wordpool_576.txt	LTP300	ltpFR2	5	1	MAMMAL	861	n/a	n/a	0	0	0
173435	REC_WORD	wordpools/wasnorm_wordpool_576.txt	LTP300	ltpFR2	5	1	CRIB	407	n/a	n/a	0	0	0
175476	REC_WORD	wordpools/wasnorm_wordpool_576.txt	LTP300	ltpFR2	5	1	GUARD	667	n/a	n/a	0	0	0
177381	REC_WORD	wordpools/wasnorm_wordpool_576.txt	LTP300	ltpFR2	5	1	OINTMENT	974	n/a	n/a	0	0	0
179319	REC_WORD	wordpools/wasnorm_wordpool_576.txt	LTP300	ltpFR2	5	1	CRATER	400	n/a	n/a	0	0	0
182285	REC_WORD	wordpools/wasnorm_wordpool_576.txt	LTP300	ltpFR2	5	1	FLOWER	584	n/a	n/a	0	0	0
189457	REC_WORD	wordpools/wasnorm_wordpool_576.txt	LTP300	ltpFR2	5	1	BUNNY	198	n/a	n/a	0	0	0
191296	REC_WORD	wordpools/wasnorm_wordpool_576.txt	LTP300	ltpFR2	5	1	UMPIRE	1535	n/a	n/a	0	0	0
193165	REC_WORD	wordpools/wasnorm_wordpool_576.txt	LTP300	ltpFR2	5	1	STAR	1373	n/a	n/a	0	0	0
195370	REC_WORD	wordpools/wasnorm_wordpool_576.txt	LTP300	ltpFR2	5	1	PAIL	1002	n/a	n/a	0	0	0
256829	DISTRACTOR	n/a	LTP300	ltpFR2	5	2	n/a	n/a	n/a	n/a	0	0	0
256829	START	n/a	LTP300	ltpFR2	5	n/a	n/a	n/a	3	n/a	n/a	n/a	n/a
256844	PROB	n/a	LTP300	ltpFR2	5	n/a	n/a	n/a	3	17	1	8	8
259364	PROB	n/a	LTP300	ltpFR2	5	n/a	n/a	n/a	3	13	3	3	7
260781	PROB	n/a	LTP300	ltpFR2	5	n/a	n/a	n/a	3	11	7	2	2
262065	PROB	n/a	LTP300	ltpFR2	5	n/a	n/a	n/a	3	16	5	7	4
263817	PROB	n/a	LTP300	ltpFR2	5	n/a	n/a	n/a	3	17	8	1	8
265653	PROB	n/a	LTP300	ltpFR2	5	n/a	n/a	n/a	3	18	4	6	8
266952	PROB	n/a	LTP300	ltpFR2	5	n/a	n/a	n/a	3	10	2	5	3
268820	PROB	n/a	LTP300	ltpFR2	5	n/a	n/a	n/a	3	6	1	1	4
270222	PROB	n/a	LTP300	ltpFR2	5	n/a	n/a	n/a	3	15	5	8	2
271807	PROB	n/a	LTP300	ltpFR2	5	n/a	n/a	n/a	3	17	6	2	9
274107	PROB	n/a	LTP300	ltpFR2	5	n/a	n/a	n/a	3	15	3	4	8
275545	PROB	n/a	LTP300	ltpFR2	5	n/a	n/a	n/a	3	14	6	1	7
277044	PROB	n/a	LTP300	ltpFR2	5	n/a	n/a	n/a	3	11	4	2	5
278713	PROB	n/a	LTP300	ltpFR2	5	n/a	n/a	n/a	3	16	6	5	5
279969	STOP	n/a	LTP300	ltpFR2	5	n/a	n/a	n/a	3	n/a	n/a	n/a	n/a
281981	WORD	wordpools/wasnorm_wordpool_576.txt	LTP300	ltpFR2	5	2	GIFT	635	n/a	n/a	0	0	0
284476	WORD	wordpools/wasnorm_wordpool_576.txt	LTP300	ltpFR2	5	2	GRAVE	658	n/a	n/a	0	0	0
287060	WORD	wordpools/wasnorm_wordpool_576.txt	LTP300	ltpFR2	5	2	BROTHER	179	n/a	n/a	0	0	0
289496	WORD	wordpools/wasnorm_wordpool_576.txt	LTP300	ltpFR2	5	2	UNCLE	1536	n/a	n/a	0	0	0
292299	WORD	wordpools/wasnorm_wordpool_576.txt	LTP300	ltpFR2	5	2	POISON	1096	n/a	n/a	0	0	0
294792	WORD	wordpools/wasnorm_wordpool_576.txt	LTP300	ltpFR2	5	2	CAPTIVE	240	n/a	n/a	0	0	0
297218	WORD	wordpools/wasnorm_wordpool_576.txt	LTP300	ltpFR2	5	2	DRAGON	492	n/a	n/a	0	0	0
299671	WORD	wordpools/wasnorm_wordpool_576.txt	LTP300	ltpFR2	5	2	SUBWAY	1400	n/a	n/a	0	0	0
302290	WORD	wordpools/wasnorm_wordpool_576.txt	LTP300	ltpFR2	5	2	CYCLONE	431	n/a	n/a	0	0	0
304825	WORD	wordpools/wasnorm_wordpool_576.txt	LTP300	ltpFR2	5	2	HAWK	692	n/a	n/a	0	0	0
307294	WORD	wordpools/wasnorm_wordpool_576.txt	LTP300	ltpFR2	5	2	CATCHER	258	n/a	n/a	0	0	0
309780	WORD	wordpools/wasnorm_wordpool_576.txt	LTP300	ltpFR2	5	2	LAGOON	795	n/a	n/a	0	0	0
312472	WORD	wordpools/wasnorm_wordpool_576.txt	LTP300	ltpFR2	5	2	SIBLING	1301	n/a	n/a	0	0	0
314933	WORD	wordpools/wasnorm_wordpool_576.txt	LTP300	ltpFR2	5	2	OFFICE	972	n/a	n/a	0	0	0
317670	WORD	wordpools/wasnorm_wordpool_576.txt	LTP300	ltpFR2	5	2	LIZARD	834	n/a	n/a	0	0	0
320171	WORD	wordpools/wasnorm_wordpool_576.txt	LTP300	ltpFR2	5	2	BACON	67	n/a	n/a	0	0	0
322973	WORD	wordpools/wasnorm_wordpool_576.txt	LTP300	ltpFR2	5	2	OUTLAW	989	n/a	n/a	0	0	0
325626	WORD	wordpools/wasnorm_wordpool_576.txt	LTP300	ltpFR2	5	2	THIEF	1456	n/a	n/a	0	0	0
328262	WORD	wordpools/wasnorm_wordpool_576.txt	LTP300	ltpFR2	5	2	FIREMAN	569	n/a	n/a	0	0	0
331013	WORD	wordpools/wasnorm_wordpool_576.txt	LTP300	ltpFR2	5	2	CASHIER	254	n/a	n/a	0	0	0
333472	WORD	wordpools/wasnorm_wordpool_576.txt	LTP300	ltpFR2	5	2	MONSTER	912	n/a	n/a	0	0	0
335939	WORD	wordpools/wasnorm_wordpool_576.txt	LTP300	ltpFR2	5	2	SODA	1341	n/a	n/a	0	0	0
338754	WORD	wordpools/wasnorm_wordpool_576.txt	LTP300	ltpFR2	5	2	BADGE	68	n/a	n/a	0	0	0
341323	WORD	wordpools/wasnorm_wordpool_576.txt	LTP300	ltpFR2	5	2	AGENT	10	n/a	n/a	0	0	0
342929	START	n/a	LTP300	ltpFR2	5	n/a	n/a	n/a	4	n/a	n/a	n/a	n/a
343957	DISTRACTOR	n/a	LTP300	ltpFR2	5	2	n/a	n/a	n/a	n/a	0	0	0
343962	PROB	n/a	LTP300	ltpFR2	5	n/a	n/a	n/a	4	156	6	3	6
345458	PROB	n/a	LTP300	ltpFR2	5	n/a	n/a	n/a	4	22	8	5	9
348281	PROB	n/a	LTP300	ltpFR2	5	n/a	n/a	n/a	4	9	4	2	3
350718	PROB	n/a	LTP300	ltpFR2	5	n/a	n/a	n/a	4	8	1	2	5
351951	PROB	n/a	LTP300	ltpFR2	5	n/a	n/a	n/a	4	10	1	7	2
353570	PROB	n/a	LTP300	ltpFR2	5	n/a	n/a	n/a	4	12	4	4	4
354835	PROB	n/a	LTP300	ltpFR2	5	n/a	n/a	n/a	4	6	2	3	1
355921	PROB	n/a	LTP300	ltpFR2	5	n/a	n/a	n/a	4	18	9	2	7
358156	PROB	n/a	LTP300	ltpFR2	5	n/a	n/a	n/a	4	22	8	6	8
359936	PROB	n/a	LTP300	ltpFR2	5	n/a	n/a	n/a	4	13	8	3	2
361394	PROB	n/a	LTP300	ltpFR2	5	n/a	n/a	n/a	4	24	9	8	7
363862	PROB	n/a	LTP300	ltpFR2	5	n/a	n/a	n/a	4	13	3	1	9
365229	PROB	n/a	LTP300	ltpFR2	5	n/a	n/a	n/a	4	15	3	4	8
366642	STOP	n/a	LTP300	ltpFR2	5	n/a	n/a	n/a	4	n/a	n/a	n/a	n/a
368850	REC_START	n/a	LTP300	ltpFR2	5	2	n/a	n/a	n/a	n/a	0	0	0
370425	REC_WORD	wordpools/wasnorm_wordpool_576.txt	LTP300	ltpFR2	5	2	GIFT	635	n/a	n/a	0	0	0
372116	REC_WORD	wordpools/wasnorm_wordpool_576.txt	LTP300	ltpFR2	5	2	GRAVE	658	n/a	n/a	0	0	0
373834	REC_WORD	wordpools/wasnorm_wordpool_576.txt	LTP300	ltpFR2	5	2	CASHIER	254	n/a	n/a	0	0	0
376138	REC_WORD	wordpools/wasnorm_wordpool_576.txt	LTP300	ltpFR2	5	2	MONSTER	912	n/a	n/a	0	0	0
377958	REC_WORD	wordpools/wasnorm_wordpool_576.txt	LTP300	ltpFR2	5	2	DRAGON	492	n/a	n/a	0	0	0
380011	REC_WORD	wordpools/wasnorm_wordpool_576.txt	LTP300	ltpFR2	5	2	HAWK	692	n/a	n/a	0	0	0
384857	REC_WORD	wordpools/wasnorm_wordpool_576.txt	LTP300	ltpFR2	5	2	OUTLAW	989	n/a	n/a	0	0	0
386436	REC_WORD	wordpools/wasnorm_wordpool_576.txt	LTP300	ltpFR2	5	2	THIEF	1456	n/a	n/a	0	0	0
389539	REC_WORD	wordpools/wasnorm_wordpool_576.txt	LTP300	ltpFR2	5	2	BADGE	68	n/a	n/a	0	0	0
391235	REC_WORD	wordpools/wasnorm_wordpool_576.txt	LTP300	ltpFR2	5	2	SODA	1341	n/a	n/a	0	0	0
393359	REC_WORD	wordpools/wasnorm_wordpool_576.txt	LTP300	ltpFR2	5	2	AGENT	10	n/a	n/a	0	0	0
397307	REC_WORD	wordpools/wasnorm_wordpool_576.txt	LTP300	ltpFR2	5	2	CATCHER	258	n/a	n/a	0	0	0
399010	REC_WORD	wordpools/wasnorm_wordpool_576.txt	LTP300	ltpFR2	5	2	LAGOON	795	n/a	n/a	0	0	0
406259	REC_WORD_VV	wordpools/wasnorm_wordpool_576.txt	LTP300	ltpFR2	5	2	<>	-1	n/a	n/a	0	0	0
459317	WORD	wordpools/wasnorm_wordpool_576.txt	LTP300	ltpFR2	5	3	WARDROBE	1587	n/a	n/a	0	0	0
461985	WORD	wordpools/wasnorm_wordpool_576.txt	LTP300	ltpFR2	5	3	ICING	732	n/a	n/a	0	0	0
464739	WORD	wordpools/wasnorm_wordpool_576.txt	LTP300	ltpFR2	5	3	MEDAL	885	n/a	n/a	0	0	0
467424	WORD	wordpools/wasnorm_wordpool_576.txt	LTP300	ltpFR2	5	3	GARLIC	624	n/a	n/a	0	0	0
470158	WORD	wordpools/wasnorm_wordpool_576.txt	LTP300	ltpFR2	5	3	GLASS	639	n/a	n/a	0	0	0
472611	WORD	wordpools/wasnorm_wordpool_576.txt	LTP300	ltpFR2	5	3	PERFUME	1049	n/a	n/a	0	0	0
475195	WORD	wordpools/wasnorm_wordpool_576.txt	LTP300	ltpFR2	5	3	KNAPSACK	783	n/a	n/a	0	0	0
477931	WORD	wordpools/wasnorm_wordpool_576.txt	LTP300	ltpFR2	5	3	POSSUM	1112	n/a	n/a	0	0	0
480651	WORD	wordpools/wasnorm_wordpool_576.txt	LTP300	ltpFR2	5	3	RAFT	1159	n/a	n/a	0	0	0
483324	WORD	wordpools/wasnorm_wordpool_576.txt	LTP300	ltpFR2	5	3	NAPKIN	937	n/a	n/a	0	0	0
486025	WORD	wordpools/wasnorm_wordpool_576.txt	LTP300	ltpFR2	5	3	RIVER	1194	n/a	n/a	0	0	0
488745	WORD	wordpools/wasnorm_wordpool_576.txt	LTP300	ltpFR2	5	3	SHELTER	1282	n/a	n/a	0	0	0
491525	WORD	wordpools/wasnorm_wordpool_576.txt	LTP300	ltpFR2	5	3	COCKTAIL	338	n/a	n/a	0	0	0
494093	WORD	wordpools/wasnorm_wordpool_576.txt	LTP300	ltpFR2	5	3	FLASK	576	n/a	n/a	0	0	0
496879	WORD	wordpools/wasnorm_wordpool_576.txt	LTP300	ltpFR2	5	3	JUDGE	761	n/a	n/a	0	0	0
499404	WORD	wordpools/wasnorm_wordpool_576.txt	LTP300	ltpFR2	5	3	SAUSAGE	1238	n/a	n/a	0	0	0
502021	WORD	wordpools/wasnorm_wordpool_576.txt	LTP300	ltpFR2	5	3	CAFE	216	n/a	n/a	0	0	0
504702	WORD	wordpools/wasnorm_wordpool_576.txt	LTP300	ltpFR2	5	3	FLESH	579	n/a	n/a	0	0	0
507304	WORD	wordpools/wasnorm_wordpool_576.txt	LTP300	ltpFR2	5	3	LUGGAGE	847	n/a	n/a	0	0	0
510079	WORD	wordpools/wasnorm_wordpool_576.txt	LTP300	ltpFR2	5	3	CRUTCH	417	n/a	n/a	0	0	0
512592	WORD	wordpools/wasnorm_wordpool_576.txt	LTP300	ltpFR2	5	3	LEG	809	n/a	n/a	0	0	0
515143	WORD	wordpools/wasnorm_wordpool_576.txt	LTP300	ltpFR2	5	3	BEAST	108	n/a	n/a	0	0	0
517679	WORD	wordpools/wasnorm_wordpool_576.txt	LTP300	ltpFR2	5	3	EAGLE	512	n/a	n/a	0	0	0
520197	WORD	wordpools/wasnorm_wordpool_576.txt	LTP300	ltpFR2	5	3	BUREAU	199	n/a	n/a	0	0	0
521807	START	n/a	LTP300	ltpFR2	5	n/a	n/a	n/a	5	n/a	n/a	n/a	n/a
522911	DISTRACTOR	n/a	LTP300	ltpFR2	5	3	n/a	n/a	n/a	n/a	0	0	0
522923	PROB	n/a	LTP300	ltpFR2	5	n/a	n/a	n/a	5	11	3	2	6
524566	PROB	n/a	LTP300	ltpFR2	5	n/a	n/a	n/a	5	19	9	8	2
526618	PROB	n/a	LTP300	ltpFR2	5	n/a	n/a	n/a	5	19	5	6	8
528520	PROB	n/a	LTP300	ltpFR2	5	n/a	n/a	n/a	5	12	3	3	6
530119	PROB	n/a	LTP300	ltpFR2	5	n/a	n/a	n/a	5	19	8	8	3
531589	PROB	n/a	LTP300	ltpFR2	5	n/a	n/a	n/a	5	15	7	3	5
532871	PROB	n/a	LTP300	ltpFR2	5	n/a	n/a	n/a	5	16	3	5	8
534342	PROB	n/a	LTP300	ltpFR2	5	n/a	n/a	n/a	5	16	9	1	6
535691	PROB	n/a	LTP300	ltpFR2	5	n/a	n/a	n/a	5	15	8	1	6
537426	PROB	n/a	LTP300	ltpFR2	5	n/a	n/a	n/a	5	13	3	9	1
538761	PROB	n/a	LTP300	ltpFR2	5	n/a	n/a	n/a	5	9	4	2	3
541331	PROB	n/a	LTP300	ltpFR2	5	n/a	n/a	n/a	5	26	9	8	9
545807	STOP	n/a	LTP300	ltpFR2	5	n/a	n/a	n/a	5	n/a	n/a	n/a	n/a
547736	REC_START	n/a	LTP300	ltpFR2	5	3	n/a	n/a	n/a	n/a	0	0	0
548654	REC_WORD	wordpools/wasnorm_wordpool_576.txt	LTP300	ltpFR2	5	3	WARDROBE	1587	n/a	n/a	0	0	0
550843	REC_WORD	wordpools/wasnorm_wordpool_576.txt	LTP300	ltpFR2	5	3	ICING	732	n/a	n/a	0	0	0
554844	REC_WORD	wordpools/wasnorm_wordpool_576.txt	LTP300	ltpFR2	5	3	NAPKIN	937	n/a	n/a	0	0	0
556599	REC_WORD	wordpools/wasnorm_wordpool_576.txt	LTP300	ltpFR2	5	3	RAFT	1159	n/a	n/a	0	0	0
558694	REC_WORD	wordpools/wasnorm_wordpool_576.txt	LTP300	ltpFR2	5	3	RIVER	1194	n/a	n/a	0	0	0
561583	REC_WORD	wordpools/wasnorm_wordpool_576.txt	LTP300	ltpFR2	5	3	COCKTAIL	338	n/a	n/a	0	0	0
563403	REC_WORD	wordpools/wasnorm_wordpool_576.txt	LTP300	ltpFR2	5	3	FLASK	576	n/a	n/a	0	0	0
565541	REC_WORD	wordpools/wasnorm_wordpool_576.txt	LTP300	ltpFR2	5	3	FLESH	579	n/a	n/a	0	0	0
568585	REC_WORD	wordpools/wasnorm_wordpool_576.txt	LTP300	ltpFR2	5	3	SAUSAGE	1238	n/a	n/a	0	0	0
571592	REC_WORD	wordpools/wasnorm_wordpool_576.txt	LTP300	ltpFR2	5	3	CAFE	216	n/a	n/a	0	0	0
573670	REC_WORD	wordpools/wasnorm_wordpool_576.txt	LTP300	ltpFR2	5	3	CRUTCH	417	n/a	n/a	0	0	0
576736	REC_WORD	wordpools/wasnorm_wordpool_576.txt	LTP300	ltpFR2	5	3	LEG	809	n/a	n/a	0	0	0
580034	REC_WORD	wordpools/wasnorm_wordpool_576.txt	LTP300	ltpFR2	5	3	LUGGAGE	847	n/a	n/a	0	0	0
582717	REC_WORD	wordpools/wasnorm_wordpool_576.txt	LTP300	ltpFR2	5	3	PERFUME	1049	n/a	n/a	0	0	0
584986	REC_WORD	wordpools/wasnorm_wordpool_576.txt	LTP300	ltpFR2	5	3	KNAPSACK	783	n/a	n/a	0	0	0
587771	REC_WORD	wordpools/wasnorm_wordpool_576.txt	LTP300	ltpFR2	5	3	JUDGE	761	n/a	n/a	0	0	0
591736	REC_WORD	wordpools/wasnorm_wordpool_576.txt	LTP300	ltpFR2	5	3	POSSUM	1112	n/a	n/a	0	0	0
602940	REC_WORD_VV	wordpools/wasnorm_wordpool_576.txt	LTP300	ltpFR2	5	3	<>	-1	n/a	n/a	0	0	0
638203	WORD	wordpools/wasnorm_wordpool_576.txt	LTP300	ltpFR2	5	4	SILK	1307	n/a	n/a	0	0	0
640821	WORD	wordpools/wasnorm_wordpool_576.txt	LTP300	ltpFR2	5	4	DENIM	446	n/a	n/a	0	0	0
643524	WORD	wordpools/wasnorm_wordpool_576.txt	LTP300	ltpFR2	5	4	CLOCK	325	n/a	n/a	0	0	0
645975	WORD	wordpools/wasnorm_wordpool_576.txt	LTP300	ltpFR2	5	4	YARN	1631	n/a	n/a	0	0	0
648495	WORD	wordpools/wasnorm_wordpool_576.txt	LTP300	ltpFR2	5	4	THREAD	1460	n/a	n/a	0	0	0
651330	WORD	wordpools/wasnorm_wordpool_576.txt	LTP300	ltpFR2	5	4	BOYFRIEND	162	n/a	n/a	0	0	0
654015	WORD	wordpools/wasnorm_wordpool_576.txt	LTP300	ltpFR2	5	4	OUTFIT	988	n/a	n/a	0	0	0
656551	WORD	wordpools/wasnorm_wordpool_576.txt	LTP300	ltpFR2	5	4	JAPAN	749	n/a	n/a	0	0	0
659069	WORD	wordpools/wasnorm_wordpool_576.txt	LTP300	ltpFR2	5	4	BELLY	119	n/a	n/a	0	0	0
661805	WORD	wordpools/wasnorm_wordpool_576.txt	LTP300	ltpFR2	5	4	BUG	187	n/a	n/a	0	0	0
664274	WORD	wordpools/wasnorm_wordpool_576.txt	LTP300	ltpFR2	5	4	COCOON	339	n/a	n/a	0	0	0
666925	WORD	wordpools/wasnorm_wordpool_576.txt	LTP300	ltpFR2	5	4	DUST	508	n/a	n/a	0	0	0
669612	WORD	wordpools/wasnorm_wordpool_576.txt	LTP300	ltpFR2	5	4	BRACES	164	n/a	n/a	0	0	0
672164	WORD	wordpools/wasnorm_wordpool_576.txt	LTP300	ltpFR2	5	4	TRACTOR	1493	n/a	n/a	0	0	0
674749	WORD	wordpools/wasnorm_wordpool_576.txt	LTP300	ltpFR2	5	4	TUNNEL	1519	n/a	n/a	0	0	0
677351	WORD	wordpools/wasnorm_wordpool_576.txt	LTP300	ltpFR2	5	4	FRUIT	610	n/a	n/a	0	0	0
679902	WORD	wordpools/wasnorm_wordpool_576.txt	LTP300	ltpFR2	5	4	HUMAN	726	n/a	n/a	0	0	0
682455	WORD	wordpools/wasnorm_wordpool_576.txt	LTP300	ltpFR2	5	4	MARKER	870	n/a	n/a	0	0	0
685138	WORD	wordpools/wasnorm_wordpool_576.txt	LTP300	ltpFR2	5	4	SWORD	1423	n/a	n/a	0	0	0
687759	WORD	wordpools/wasnorm_wordpool_576.txt	LTP300	ltpFR2	5	4	POCKET	1093	n/a	n/a	0	0	0
690327	WORD	wordpools/wasnorm_wordpool_576.txt	LTP300	ltpFR2	5	4	FLASHLIGHT	575	n/a	n/a	0	0	0
693028	WORD	wordpools/wasnorm_wordpool_576.txt	LTP300	ltpFR2	5	4	SPOON	1357	n/a	n/a	0	0	0
695681	WORD	wordpools/wasnorm_wordpool_576.txt	LTP300	ltpFR2	5	4	YACHT	1629	n/a	n/a	0	0	0
698165	WORD	wordpools/wasnorm_wordpool_576.txt	LTP300	ltpFR2	5	4	STOMACH	1384	n/a	n/a	0	0	0
699772	START	n/a	LTP300	ltpFR2	5	n/a	n/a	n/a	6	n/a	n/a	n/a	n/a
700762	DISTRACTOR	n/a	LTP300	ltpFR2	5	4	n/a	n/a	n/a	n/a	0	0	0
700768	PROB	n/a	LTP300	ltpFR2	5	n/a	n/a	n/a	6	13	3	7	3
702901	PROB	n/a	LTP300	ltpFR2	5	n/a	n/a	n/a	6	14	8	3	3
705186	PROB	n/a	LTP300	ltpFR2	5	n/a	n/a	n/a	6	15	7	2	6
706922	PROB	n/a	LTP300	ltpFR2	5	n/a	n/a	n/a	6	16	2	9	4
708523	PROB	n/a	LTP300	ltpFR2	5	n/a	n/a	n/a	6	22	9	5	8
711009	PROB	n/a	LTP300	ltpFR2	5	n/a	n/a	n/a	6	19	4	6	9
713909	PROB	n/a	LTP300	ltpFR2	5	n/a	n/a	n/a	6	18	3	7	8
715261	PROB	n/a	LTP300	ltpFR2	5	n/a	n/a	n/a	6	12	8	2	2
716463	PROB	n/a	LTP300	ltpFR2	5	n/a	n/a	n/a	6	13	8	2	3
717996	PROB	n/a	LTP300	ltpFR2	5	n/a	n/a	n/a	6	11	7	2	2
719231	PROB	n/a	LTP300	ltpFR2	5	n/a	n/a	n/a	6	5	1	1	3
720332	PROB	n/a	LTP300	ltpFR2	5	n/a	n/a	n/a	6	20	5	8	7
723772	STOP	n/a	LTP300	ltpFR2	5	n/a	n/a	n/a	6	n/a	n/a	n/a	n/a
725520	REC_START	n/a	LTP300	ltpFR2	5	4	n/a	n/a	n/a	n/a	0	0	0
726200	REC_WORD	wordpools/wasnorm_wordpool_576.txt	LTP300	ltpFR2	5	4	SILK	1307	n/a	n/a	0	0	0
729397	REC_WORD	wordpools/wasnorm_wordpool_576.txt	LTP300	ltpFR2	5	4	BELLY	119	n/a	n/a	0	0	0
730672	REC_WORD	wordpools/wasnorm_wordpool_576.txt	LTP300	ltpFR2	5	4	STOMACH	1384	n/a	n/a	0	0	0
732399	REC_WORD	wordpools/wasnorm_wordpool_576.txt	LTP300	ltpFR2	5	4	BUG	187	n/a	n/a	0	0	0
733731	REC_WORD	wordpools/wasnorm_wordpool_576.txt	LTP300	ltpFR2	5	4	COCOON	339	n/a	n/a	0	0	0
738423	REC_WORD	wordpools/wasnorm_wordpool_576.txt	LTP300	ltpFR2	5	4	DUST	508	n/a	n/a	0	0	0
739990	REC_WORD	wordpools/wasnorm_wordpool_576.txt	LTP300	ltpFR2	5	4	BRACES	164	n/a	n/a	0	0	0
744026	REC_WORD	wordpools/wasnorm_wordpool_576.txt	LTP300	ltpFR2	5	4	YACHT	1629	n/a	n/a	0	0	0
745922	REC_WORD	wordpools/wasnorm_wordpool_576.txt	LTP300	ltpFR2	5	4	FLASHLIGHT	575	n/a	n/a	0	0	0
748056	REC_WORD	wordpools/wasnorm_wordpool_576.txt	LTP300	ltpFR2	5	4	SPOON	1357	n/a	n/a	0	0	0
768643	REC_WORD	wordpools/wasnorm_wordpool_576.txt	LTP300	ltpFR2	5	4	DENIM	446	n/a	n/a	0	0	0
815939	DISTRACTOR	n/a	LTP300	ltpFR2	5	5	n/a	n/a	n/a	n/a	0	0	0
815939	START	n/a	LTP300	ltpFR2	5	n/a	n/a	n/a	7	n/a	n/a	n/a	n/a
815954	PROB	n/a	LTP300	ltpFR2	5	n/a	n/a	n/a	7	11	2	1	8
817525	PROB	n/a	LTP300	ltpFR2	5	n/a	n/a	n/a	7	21	7	9	5
820140	PROB	n/a	LTP300	ltpFR2	5	n/a	n/a	n/a	7	10	1	5	4
821410	PROB	n/a	LTP300	ltpFR2	5	n/a	n/a	n/a	7	18	8	3	7
822661	PROB	n/a	LTP300	ltpFR2	5	n/a	n/a	n/a	7	16	6	5	5
823794	PROB	n/a	LTP300	ltpFR2	5	n/a	n/a	n/a	7	19	7	3	9
825027	PROB	n/a	LTP300	ltpFR2	5	n/a	n/a	n/a	7	9	1	1	7
826096	PROB	n/a	LTP300	ltpFR2	5	n/a	n/a	n/a	7	13	2	8	3
827431	PROB	n/a	LTP300	ltpFR2	5	n/a	n/a	n/a	7	12	8	2	2
828565	PROB	n/a	LTP300	ltpFR2	5	n/a	n/a	n/a	7	19	7	9	3
830666	PROB	n/a	LTP300	ltpFR2	5	n/a	n/a	n/a	7	16	8	4	4
832317	PROB	n/a	LTP300	ltpFR2	5	n/a	n/a	n/a	7	11	4	3	4
834536	PROB	n/a	LTP300	ltpFR2	5	n/a	n/a	n/a	7	13	1	4	8
835787	PROB	n/a	LTP300	ltpFR2	5	n/a	n/a	n/a	7	17	5	9	3
837889	PROB	n/a	LTP300	ltpFR2	5	n/a	n/a	n/a	7	13	2	3	8
839242	STOP	n/a	LTP300	ltpFR2	5	n/a	n/a	n/a	7	n/a	n/a	n/a	n/a
840858	WORD	wordpools/wasnorm_wordpool_576.txt	LTP300	ltpFR2	5	5	LUNCH	849	n/a	n/a	0	0	0
843324	WORD	wordpools/wasnorm_wordpool_576.txt	LTP300	ltpFR2	5	5	KITCHEN	778	n/a	n/a	0	0	0
845858	WORD	wordpools/wasnorm_wordpool_576.txt	LTP300	ltpFR2	5	5	CAMEL	223	n/a	n/a	0	0	0
848678	WORD	wordpools/wasnorm_wordpool_576.txt	LTP300	ltpFR2	5	5	RELISH	1183	n/a	n/a	0	0	0
851280	WORD	wordpools/wasnorm_wordpool_576.txt	LTP300	ltpFR2	5	5	SUNSET	1408	n/a	n/a	0	0	0
853732	WORD	wordpools/wasnorm_wordpool_576.txt	LTP300	ltpFR2	5	5	SPARROW	1347	n/a	n/a	0	0	0
856270	WORD	wordpools/wasnorm_wordpool_576.txt	LTP300	ltpFR2	5	5	NOVEL	960	n/a	n/a	0	0	0
858786	WORD	wordpools/wasnorm_wordpool_576.txt	LTP300	ltpFR2	5	5	PAPER	1011	n/a	n/a	0	0	0
861425	WORD	wordpools/wasnorm_wordpool_576.txt	LTP300	ltpFR2	5	5	OUTDOORS	987	n/a	n/a	0	0	0
864023	WORD	wordpools/wasnorm_wordpool_576.txt	LTP300	ltpFR2	5	5	KNIFE	785	n/a	n/a	0	0	0
866828	WORD	wordpools/wasnorm_wordpool_576.txt	LTP300	ltpFR2	5	5	MARS	873	n/a	n/a	0	0	0
869379	WORD	wordpools/wasnorm_wordpool_576.txt	LTP300	ltpFR2	5	5	WIFE	1609	n/a	n/a	0	0	0
871996	WORD	wordpools/wasnorm_wordpool_576.txt	LTP300	ltpFR2	5	5	LOVER	846	n/a	n/a	0	0	0
874650	WORD	wordpools/wasnorm_wordpool_576.txt	LTP300	ltpFR2	5	5	SANDWICH	1232	n/a	n/a	0	0	0
877084	WORD	wordpools/wasnorm_wordpool_576.txt	LTP300	ltpFR2	5	5	PECAN	1036	n/a	n/a	0	0	0
879869	WORD	wordpools/wasnorm_wordpool_576.txt	LTP300	ltpFR2	5	5	CITRUS	313	n/a	n/a	0	0	0
882322	WORD	wordpools/wasnorm_wordpool_576.txt	LTP300	ltpFR2	5	5	TERMITE	1451	n/a	n/a	0	0	0
884907	WORD	wordpools/wasnorm_wordpool_576.txt	LTP300	ltpFR2	5	5	MARINE	869	n/a	n/a	0	0	0
887677	WORD	wordpools/wasnorm_wordpool_576.txt	LTP300	ltpFR2	5	5	VAGRANT	1544	n/a	n/a	0	0	0
890446	WORD	wordpools/wasnorm_wordpool_576.txt	LTP300	ltpFR2	5	5	SCOTCH	1251	n/a	n/a	0	0	0
893048	WORD	wordpools/wasnorm_wordpool_576.txt	LTP300	ltpFR2	5	5	DRINK	498	n/a	n/a	0	0	0
895533	WORD	wordpools/wasnorm_wordpool_576.txt	LTP300	ltpFR2	5	5	QUEEN	1149	n/a	n/a	0	0	0
898001	WORD	wordpools/wasnorm_wordpool_576.txt	LTP300	ltpFR2	5	5	CASHEW	253	n/a	n/a	0	0	0
900571	WORD	wordpools/wasnorm_wordpool_576.txt	LTP300	ltpFR2	5	5	ANTLER	29	n/a	n/a	0	0	0
902188	START	n/a	LTP300	ltpFR2	5	n/a	n/a	n/a	8	n/a	n/a	n/a	n/a
903095	DISTRACTOR	n/a	LTP300	ltpFR2	5	5	n/a	n/a	n/a	n/a	0	0	0
903105	PROB	n/a	LTP300	ltpFR2	5	n/a	n/a	n/a	8	17	8	3	6
905457	PROB	n/a	LTP300	ltpFR2	5	n/a	n/a	n/a	8	13	2	4	7
907191	PROB	n/a	LTP300	ltpFR2	5	n/a	n/a	n/a	8	18	9	7	2
909108	PROB	n/a	LTP300	ltpFR2	5	n/a	n/a	n/a	8	8	1	3	4
910377	PROB	n/a	LTP300	ltpFR2	5	n/a	n/a	n/a	8	13	2	4	7
911977	PROB	n/a	LTP300	ltpFR2	5	n/a	n/a	n/a	8	17	8	5	4
913646	PROB	n/a	LTP300	ltpFR2	5	n/a	n/a	n/a	8	22	9	7	6
916265	PROB	n/a	LTP300	ltpFR2	5	n/a	n/a	n/a	8	11	1	8	2
918099	PROB	n/a	LTP300	ltpFR2	5	n/a	n/a	n/a	8	17	7	4	6
921001	PROB	n/a	LTP300	ltpFR2	5	n/a	n/a	n/a	8	11	8	2	1
922386	PROB	n/a	LTP300	ltpFR2	5	n/a	n/a	n/a	8	18	5	4	9
923953	PROB	n/a	LTP300	ltpFR2	5	n/a	n/a	n/a	8	15	2	4	9
925706	STOP	n/a	LTP300	ltpFR2	5	n/a	n/a	n/a	8	n/a	n/a	n/a	n/a
928141	REC_START	n/a	LTP300	ltpFR2	5	5	n/a	n/a	n/a	n/a	0	0	0
928971	REC_WORD	wordpools/wasnorm_wordpool_576.txt	LTP300	ltpFR2	5	5	LUNCH	849	n/a	n/a	0	0	0
930691	REC_WORD	wordpools/wasnorm_wordpool_576.txt	LTP300	ltpFR2	5	5	KITCHEN	778	n/a	n/a	0	0	0
933371	REC_WORD	wordpools/wasnorm_wordpool_576.txt	LTP300	ltpFR2	5	5	SANDWICH	1232	n/a	n/a	0	0	0
934995	REC_WORD	wordpools/wasnorm_wordpool_576.txt	LTP300	ltpFR2	5	5	CAMEL	223	n/a	n/a	0	0	0
936541	REC_WORD	wordpools/wasnorm_wordpool_576.txt	LTP300	ltpFR2	5	5	RELISH	1183	n/a	n/a	0	0	0
939316	REC_WORD	wordpools/wasnorm_wordpool_576.txt	LTP300	ltpFR2	5	5	MARINE	869	n/a	n/a	0	0	0
942432	REC_WORD	wordpools/wasnorm_wordpool_576.txt	LTP300	ltpFR2	5	5	ANTLER	29	n/a	n/a	0	0	0
944684	REC_WORD	wordpools/wasnorm_wordpool_576.txt	LTP300	ltpFR2	5	5	QUEEN	1149	n/a	n/a	0	0	0
947008	REC_WORD	wordpools/wasnorm_wordpool_576.txt	LTP300	ltpFR2	5	5	TERMITE	1451	n/a	n/a	0	0	0
948723	REC_WORD	wordpools/wasnorm_wordpool_576.txt	LTP300	ltpFR2	5	5	VAGRANT	1544	n/a	n/a	0	0	0
950312	REC_WORD	wordpools/wasnorm_wordpool_576.txt	LTP300	ltpFR2	5	5	SCOTCH	1251	n/a	n/a	0	0	0
952171	REC_WORD	wordpools/wasnorm_wordpool_576.txt	LTP300	ltpFR2	5	5	DRINK	498	n/a	n/a	0	0	0
954892	REC_WORD	wordpools/wasnorm_wordpool_576.txt	LTP300	ltpFR2	5	5	PECAN	1036	n/a	n/a	0	0	0
1018578	WORD	wordpools/wasnorm_wordpool_576.txt	LTP300	ltpFR2	5	6	PIZZA	1079	n/a	n/a	0	0	0
1021388	WORD	wordpools/wasnorm_wordpool_576.txt	LTP300	ltpFR2	5	6	COOKBOOK	373	n/a	n/a	0	0	0
1024114	WORD	wordpools/wasnorm_wordpool_576.txt	LTP300	ltpFR2	5	6	TOURIST	1488	n/a	n/a	0	0	0
1026875	WORD	wordpools/wasnorm_wordpool_576.txt	LTP300	ltpFR2	5	6	STREAM	1392	n/a	n/a	0	0	0
1029636	WORD	wordpools/wasnorm_wordpool_576.txt	LTP300	ltpFR2	5	6	APPLE	33	n/a	n/a	0	0	0
1032288	WORD	wordpools/wasnorm_wordpool_576.txt	LTP300	ltpFR2	5	6	GYMNAST	675	n/a	n/a	0	0	0
1035015	WORD	wordpools/wasnorm_wordpool_576.txt	LTP300	ltpFR2	5	6	LILY	821	n/a	n/a	0	0	0
1037718	WORD	wordpools/wasnorm_wordpool_576.txt	LTP300	ltpFR2	5	6	CRITIC	410	n/a	n/a	0	0	0
1040354	WORD	wordpools/wasnorm_wordpool_576.txt	LTP300	ltpFR2	5	6	SLOPE	1328	n/a	n/a	0	0	0
1042928	WORD	wordpools/wasnorm_wordpool_576.txt	LTP300	ltpFR2	5	6	SUMMIT	1405	n/a	n/a	0	0	0
1045425	WORD	wordpools/wasnorm_wordpool_576.txt	LTP300	ltpFR2	5	6	TILE	1468	n/a	n/a	0	0	0
1047892	WORD	wordpools/wasnorm_wordpool_576.txt	LTP300	ltpFR2	5	6	BRANDY	169	n/a	n/a	0	0	0
1050678	WORD	wordpools/wasnorm_wordpool_576.txt	LTP300	ltpFR2	5	6	COURSE	390	n/a	n/a	0	0	0
1053180	WORD	wordpools/wasnorm_wordpool_576.txt	LTP300	ltpFR2	5	6	MAPLE	866	n/a	n/a	0	0	0
1055617	WORD	wordpools/wasnorm_wordpool_576.txt	LTP300	ltpFR2	5	6	PERMIT	1051	n/a	n/a	0	0	0
1058252	WORD	wordpools/wasnorm_wordpool_576.txt	LTP300	ltpFR2	5	6	MOP	916	n/a	n/a	0	0	0
1060771	WORD	wordpools/wasnorm_wordpool_576.txt	LTP300	ltpFR2	5	6	BRAKE	166	n/a	n/a	0	0	0
1063579	WORD	wordpools/wasnorm_wordpool_576.txt	LTP300	ltpFR2	5	6	BLUEPRINT	142	n/a	n/a	0	0	0
1066376	WORD	wordpools/wasnorm_wordpool_576.txt	LTP300	ltpFR2	5	6	ASIA	46	n/a	n/a	0	0	0
1068927	WORD	wordpools/wasnorm_wordpool_576.txt	LTP300	ltpFR2	5	6	NECKLACE	940	n/a	n/a	0	0	0
1071480	WORD	wordpools/wasnorm_wordpool_576.txt	LTP300	ltpFR2	5	6	SLIME	1327	n/a	n/a	0	0	0
1074214	WORD	wordpools/wasnorm_wordpool_576.txt	LTP300	ltpFR2	5	6	TURNIP	1521	n/a	n/a	0	0	0
1076701	WORD	wordpools/wasnorm_wordpool_576.txt	LTP300	ltpFR2	5	6	CHIPMUNK	304	n/a	n/a	0	0	0
1079386	WORD	wordpools/wasnorm_wordpool_576.txt	LTP300	ltpFR2	5	6	CREATURE	403	n/a	n/a	0	0	0
1080992	START	n/a	LTP300	ltpFR2	5	n/a	n/a	n/a	9	n/a	n/a	n/a	n/a
1081923	DISTRACTOR	n/a	LTP300	ltpFR2	5	6	n/a	n/a	n/a	n/a	0	0	0
1081938	PROB	n/a	LTP300	ltpFR2	5	n/a	n/a	n/a	9	19	8	3	8
1083728	PROB	n/a	LTP300	ltpFR2	5	n/a	n/a	n/a	9	7	4	1	2
1085711	PROB	n/a	LTP300	ltpFR2	5	n/a	n/a	n/a	9	17	7	9	1
1087174	PROB	n/a	LTP300	ltpFR2	5	n/a	n/a	n/a	9	15	6	6	3
1088592	PROB	n/a	LTP300	ltpFR2	5	n/a	n/a	n/a	9	13	7	4	2
1090042	PROB	n/a	LTP300	ltpFR2	5	n/a	n/a	n/a	9	22	6	8	8
1091534	PROB	n/a	LTP300	ltpFR2	5	n/a	n/a	n/a	9	13	6	1	6
1093134	PROB	n/a	LTP300	ltpFR2	5	n/a	n/a	n/a	9	26	9	8	9
1095148	PROB	n/a	LTP300	ltpFR2	5	n/a	n/a	n/a	9	17	1	8	8
1096700	PROB	n/a	LTP300	ltpFR2	5	n/a	n/a	n/a	9	21	9	3	9
1098387	PROB	n/a	LTP300	ltpFR2	5	n/a	n/a	n/a	9	17	3	9	5
1101186	PROB	n/a	LTP300	ltpFR2	5	n/a	n/a	n/a	9	13	1	7	5
1102654	PROB	n/a	LTP300	ltpFR2	5	n/a	n/a	n/a	9	12	4	3	5
1104113	STOP	n/a	LTP300	ltpFR2	5	n/a	n/a	n/a	9	n/a	n/a	n/a	n/a
1106911	REC_START	n/a	LTP300	ltpFR2	5	6	n/a	n/a	n/a	n/a	0	0	0
1107608	REC_WORD	wordpools/wasnorm_wordpool_576.txt	LTP300	ltpFR2	5	6	PIZZA	1079	n/a	n/a	0	0	0
1109310	REC_WORD	wordpools/wasnorm_wordpool_576.txt	LTP300	ltpFR2	5	6	COOKBOOK	373	n/a	n/a	0	0	0
1112223	REC_WORD	wordpools/wasnorm_wordpool_576.txt	LTP300	ltpFR2	5	6	CHIPMUNK	304	n/a	n/a	0	0	0
1114072	REC_WORD	wordpools/wasnorm_wordpool_576.txt	LTP300	ltpFR2	5	6	CREATURE	403	n/a	n/a	0	0	0
1116081	REC_WORD	wordpools/wasnorm_wordpool_576.txt	LTP300	ltpFR2	5	6	TURNIP	1521	n/a	n/a	0	0	0
1121811	REC_WORD	wordpools/wasnorm_wordpool_576.txt	LTP300	ltpFR2	5	6	TILE	1468	n/a	n/a	0	0	0
1123364	REC_WORD	wordpools/wasnorm_wordpool_576.txt	LTP300	ltpFR2	5	6	MAPLE	866	n/a	n/a	0	0	0
1125100	REC_WORD	wordpools/wasnorm_wordpool_576.txt	LTP300	ltpFR2	5	6	PERMIT	1051	n/a	n/a	0	0	0
1128703	REC_WORD	wordpools/wasnorm_wordpool_576.txt	LTP300	ltpFR2	5	6	MOP	916	n/a	n/a	0	0	0
1130930	REC_WORD	wordpools/wasnorm_wordpool_576.txt	LTP300	ltpFR2	5	6	BRAKE	166	n/a	n/a	0	0	0
1197364	WORD	wordpools/wasnorm_wordpool_576.txt	LTP300	ltpFR2	5	7	FRAME	600	n/a	n/a	0	0	0
1200082	WORD	wordpools/wasnorm_wordpool_576.txt	LTP300	ltpFR2	5	7	DRAWING	494	n/a	n/a	0	0	0
1202785	WORD	wordpools/wasnorm_wordpool_576.txt	LTP300	ltpFR2	5	7	JOURNAL	760	n/a	n/a	0	0	0
1205537	WORD	wordpools/wasnorm_wordpool_576.txt	LTP300	ltpFR2	5	7	NOTEBOOK	959	n/a	n/a	0	0	0
1208054	WORD	wordpools/wasnorm_wordpool_576.txt	LTP300	ltpFR2	5	7	MARKET	871	n/a	n/a	0	0	0
1210624	WORD	wordpools/wasnorm_wordpool_576.txt	LTP300	ltpFR2	5	7	TYPIST	1532	n/a	n/a	0	0	0
1213130	WORD	wordpools/wasnorm_wordpool_576.txt	LTP300	ltpFR2	5	7	BANK	83	n/a	n/a	0	0	0
1215594	WORD	wordpools/wasnorm_wordpool_576.txt	LTP300	ltpFR2	5	7	OMELET	976	n/a	n/a	0	0	0
1218195	WORD	wordpools/wasnorm_wordpool_576.txt	LTP300	ltpFR2	5	7	SNAKE	1333	n/a	n/a	0	0	0
1220721	WORD	wordpools/wasnorm_wordpool_576.txt	LTP300	ltpFR2	5	7	RADISH	1158	n/a	n/a	0	0	0
1223172	WORD	wordpools/wasnorm_wordpool_576.txt	LTP300	ltpFR2	5	7	MARROW	872	n/a	n/a	0	0	0
1225951	WORD	wordpools/wasnorm_wordpool_576.txt	LTP300	ltpFR2	5	7	MEAT	883	n/a	n/a	0	0	0
1228561	WORD	wordpools/wasnorm_wordpool_576.txt	LTP300	ltpFR2	5	7	BUTCHER	203	n/a	n/a	0	0	0
1231189	WORD	wordpools/wasnorm_wordpool_576.txt	LTP300	ltpFR2	5	7	REPORT	1184	n/a	n/a	0	0	0
1233675	WORD	wordpools/wasnorm_wordpool_576.txt	LTP300	ltpFR2	5	7	PLAZA	1088	n/a	n/a	0	0	0
1236233	WORD	wordpools/wasnorm_wordpool_576.txt	LTP300	ltpFR2	5	7	CURTAIN	427	n/a	n/a	0	0	0
1239027	WORD	wordpools/wasnorm_wordpool_576.txt	LTP300	ltpFR2	5	7	GARBAGE	622	n/a	n/a	0	0	0
1241805	WORD	wordpools/wasnorm_wordpool_576.txt	LTP300	ltpFR2	5	7	SISTER	1312	n/a	n/a	0	0	0
1244483	WORD	wordpools/wasnorm_wordpool_576.txt	LTP300	ltpFR2	5	7	PRINCESS	1125	n/a	n/a	0	0	0
1247218	WORD	wordpools/wasnorm_wordpool_576.txt	LTP300	ltpFR2	5	7	TUBA	1515	n/a	n/a	0	0	0
1249894	WORD	wordpools/wasnorm_wordpool_576.txt	LTP300	ltpFR2	5	7	LAKE	796	n/a	n/a	0	0	0
1252330	WORD	wordpools/wasnorm_wordpool_576.txt	LTP300	ltpFR2	5	7	SHARK	1275	n/a	n/a	0	0	0
1255098	WORD	wordpools/wasnorm_wordpool_576.txt	LTP300	ltpFR2	5	7	RIFLE	1192	n/a	n/a	0	0	0
1257585	WORD	wordpools/wasnorm_wordpool_576.txt	LTP300	ltpFR2	5	7	ROBBER	1197	n/a	n/a	0	0	0
1259194	START	n/a	LTP300	ltpFR2	5	n/a	n/a	n/a	10	n/a	n/a	n/a	n/a
1260229	DISTRACTOR	n/a	LTP300	ltpFR2	5	7	n/a	n/a	n/a	n/a	0	0	0
1260236	PROB	n/a	LTP300	ltpFR2	5	n/a	n/a	n/a	10	15	2	9	4
1262112	PROB	n/a	LTP300	ltpFR2	5	n/a	n/a	n/a	10	16	5	2	9
1263714	PROB	n/a	LTP300	ltpFR2	5	n/a	n/a	n/a	10	17	3	5	9
1265499	PROB	n/a	LTP300	ltpFR2	5	n/a	n/a	n/a	10	21	8	4	9
1267231	PROB	n/a	LTP300	ltpFR2	5	n/a	n/a	n/a	10	16	7	7	2
1269017	PROB	n/a	LTP300	ltpFR2	5	n/a	n/a	n/a	10	14	4	7	3
1270968	PROB	n/a	LTP300	ltpFR2	5	n/a	n/a	n/a	10	19	9	1	9
1272520	PROB	n/a	LTP300	ltpFR2	5	n/a	n/a	n/a	10	18	3	9	6
1274288	PROB	n/a	LTP300	ltpFR2	5	n/a	n/a	n/a	10	13	3	9	1
1275622	PROB	n/a	LTP300	ltpFR2	5	n/a	n/a	n/a	10	12	3	6	3
1277274	PROB	n/a	LTP300	ltpFR2	5	n/a	n/a	n/a	10	19	7	8	4
1278775	PROB	n/a	LTP300	ltpFR2	5	n/a	n/a	n/a	10	17	7	4	6
1280576	PROB	n/a	LTP300	ltpFR2	5	n/a	n/a	n/a	10	1	2	8	1
1281706	STOP	n/a	LTP300	ltpFR2	5	n/a	n/a	n/a	10	n/a	n/a	n/a	n/a
1285129	REC_START	n/a	LTP300	ltpFR2	5	7	n/a	n/a	n/a	n/a	0	0	0
1286972	REC_WORD	wordpools/wasnorm_wordpool_576.txt	LTP300	ltpFR2	5	7	FRAME	600	n/a	n/a	0	0	0
1288728	REC_WORD	wordpools/wasnorm_wordpool_576.txt	LTP300	ltpFR2	5	7	DRAWING	494	n/a	n/a	0	0	0
1290401	REC_WORD	wordpools/wasnorm_wordpool_576.txt	LTP300	ltpFR2	5	7	NOTEBOOK	959	n/a	n/a	0	0	0
1292292	REC_WORD	wordpools/wasnorm_wordpool_576.txt	LTP300	ltpFR2	5	7	JOURNAL	760	n/a	n/a	0	0	0
1293940	REC_WORD	wordpools/wasnorm_wordpool_576.txt	LTP300	ltpFR2	5	7	REPORT	1184	n/a	n/a	0	0	0
1295954	REC_WORD	wordpools/wasnorm_wordpool_576.txt	LTP300	ltpFR2	5	7	TYPIST	1532	n/a	n/a	0	0	0
1301369	REC_WORD	wordpools/wasnorm_wordpool_576.txt	LTP300	ltpFR2	5	7	MARKET	871	n/a	n/a	0	0	0
1303150	REC_WORD	wordpools/wasnorm_wordpool_576.txt	LTP300	ltpFR2	5	7	PLAZA	1088	n/a	n/a	0	0	0
1306107	REC_WORD	wordpools/wasnorm_wordpool_576.txt	LTP300	ltpFR2	5	7	SISTER	1312	n/a	n/a	0	0	0
1307852	REC_WORD	wordpools/wasnorm_wordpool_576.txt	LTP300	ltpFR2	5	7	PRINCESS	1125	n/a	n/a	0	0	0
1314298	REC_WORD	wordpools/wasnorm_wordpool_576.txt	LTP300	ltpFR2	5	7	LAKE	796	n/a	n/a	0	0	0
1316026	REC_WORD	wordpools/wasnorm_wordpool_576.txt	LTP300	ltpFR2	5	7	SHARK	1275	n/a	n/a	0	0	0
1317963	REC_WORD	wordpools/wasnorm_wordpool_576.txt	LTP300	ltpFR2	5	7	RIFLE	1192	n/a	n/a	0	0	0
1375584	DISTRACTOR	n/a	LTP300	ltpFR2	5	8	n/a	n/a	n/a	n/a	0	0	0
1375584	START	n/a	LTP300	ltpFR2	5	n/a	n/a	n/a	11	n/a	n/a	n/a	n/a
1375599	PROB	n/a	LTP300	ltpFR2	5	n/a	n/a	n/a	11	13	3	5	5
1376865	PROB	n/a	LTP300	ltpFR2	5	n/a	n/a	n/a	11	16	5	3	8
1378400	PROB	n/a	LTP300	ltpFR2	5	n/a	n/a	n/a	11	12	3	5	4
1379968	PROB	n/a	LTP300	ltpFR2	5	n/a	n/a	n/a	11	18	1	9	8
1381353	PROB	n/a	LTP300	ltpFR2	5	n/a	n/a	n/a	11	22	8	9	5
1383321	PROB	n/a	LTP300	ltpFR2	5	n/a	n/a	n/a	11	20	9	7	4
1386089	PROB	n/a	LTP300	ltpFR2	5	n/a	n/a	n/a	11	11	2	1	9
1387474	PROB	n/a	LTP300	ltpFR2	5	n/a	n/a	n/a	11	14	5	3	6
1389442	PROB	n/a	LTP300	ltpFR2	5	n/a	n/a	n/a	11	15	2	5	8
1390776	PROB	n/a	LTP300	ltpFR2	5	n/a	n/a	n/a	11	4	1	1	2
1391944	PROB	n/a	LTP300	ltpFR2	5	n/a	n/a	n/a	11	16	9	6	1
1393311	PROB	n/a	LTP300	ltpFR2	5	n/a	n/a	n/a	11	18	5	6	7
1395397	PROB	n/a	LTP300	ltpFR2	5	n/a	n/a	n/a	11	10	4	2	4
1397131	PROB	n/a	LTP300	ltpFR2	5	n/a	n/a	n/a	11	7	1	5	1
1398554	STOP	n/a	LTP300	ltpFR2	5	n/a	n/a	n/a	11	n/a	n/a	n/a	n/a
1400669	WORD	wordpools/wasnorm_wordpool_576.txt	LTP300	ltpFR2	5	8	SHIRT	1287	n/a	n/a	0	0	0
1403153	WORD	wordpools/wasnorm_wordpool_576.txt	LTP300	ltpFR2	5	8	LACE	792	n/a	n/a	0	0	0
1405623	WORD	wordpools/wasnorm_wordpool_576.txt	LTP300	ltpFR2	5	8	PEBBLE	1035	n/a	n/a	0	0	0
1408090	WORD	wordpools/wasnorm_wordpool_576.txt	LTP300	ltpFR2	5	8	NURSE	963	n/a	n/a	0	0	0
1410760	WORD	wordpools/wasnorm_wordpool_576.txt	LTP300	ltpFR2	5	8	BATHTUB	100	n/a	n/a	0	0	0
1413194	WORD	wordpools/wasnorm_wordpool_576.txt	LTP300	ltpFR2	5	8	SPONGE	1355	n/a	n/a	0	0	0
1415996	WORD	wordpools/wasnorm_wordpool_576.txt	LTP300	ltpFR2	5	8	FOREST	593	n/a	n/a	0	0	0
1418502	WORD	wordpools/wasnorm_wordpool_576.txt	LTP300	ltpFR2	5	8	ACTOR	5	n/a	n/a	0	0	0
1421000	WORD	wordpools/wasnorm_wordpool_576.txt	LTP300	ltpFR2	5	8	EUROPE	541	n/a	n/a	0	0	0
1423570	WORD	wordpools/wasnorm_wordpool_576.txt	LTP300	ltpFR2	5	8	PUDDLE	1140	n/a	n/a	0	0	0
1426305	WORD	wordpools/wasnorm_wordpool_576.txt	LTP300	ltpFR2	5	8	BLOUSE	139	n/a	n/a	0	0	0
1428943	WORD	wordpools/wasnorm_wordpool_576.txt	LTP300	ltpFR2	5	8	STAMP	1370	n/a	n/a	0	0	0
1431459	WORD	wordpools/wasnorm_wordpool_576.txt	LTP300	ltpFR2	5	8	LABEL	790	n/a	n/a	0	0	0
1434093	WORD	wordpools/wasnorm_wordpool_576.txt	LTP300	ltpFR2	5	8	REBEL	1172	n/a	n/a	0	0	0
1436617	WORD	wordpools/wasnorm_wordpool_576.txt	LTP300	ltpFR2	5	8	GAZELLE	628	n/a	n/a	0	0	0
1439097	WORD	wordpools/wasnorm_wordpool_576.txt	LTP300	ltpFR2	5	8	DOUGHNUT	490	n/a	n/a	0	0	0
1441915	WORD	wordpools/wasnorm_wordpool_576.txt	LTP300	ltpFR2	5	8	PASTRY	1022	n/a	n/a	0	0	0
1444652	WORD	wordpools/wasnorm_wordpool_576.txt	LTP300	ltpFR2	5	8	ZIPPER	1636	n/a	n/a	0	0	0
1447091	WORD	wordpools/wasnorm_wordpool_576.txt	LTP300	ltpFR2	5	8	ITEM	746	n/a	n/a	0	0	0
1449893	WORD	wordpools/wasnorm_wordpool_576.txt	LTP300	ltpFR2	5	8	GIRL	637	n/a	n/a	0	0	0
1452375	WORD	wordpools/wasnorm_wordpool_576.txt	LTP300	ltpFR2	5	8	STONE	1385	n/a	n/a	0	0	0
1455098	WORD	wordpools/wasnorm_wordpool_576.txt	LTP300	ltpFR2	5	8	BINDER	127	n/a	n/a	0	0	0
1457713	WORD	wordpools/wasnorm_wordpool_576.txt	LTP300	ltpFR2	5	8	PISTON	1076	n/a	n/a	0	0	0
1460219	WORD	wordpools/wasnorm_wordpool_576.txt	LTP300	ltpFR2	5	8	PATIENT	1024	n/a	n/a	0	0	0
1461832	START	n/a	LTP300	ltpFR2	5	n/a	n/a	n/a	12	n/a	n/a	n/a	n/a
1462836	DISTRACTOR	n/a	LTP300	ltpFR2	5	8	n/a	n/a	n/a	n/a	0	0	0
1462848	PROB	n/a	LTP300	ltpFR2	5	n/a	n/a	n/a	12	15	7	4	4
1465802	PROB	n/a	LTP300	ltpFR2	5	n/a	n/a	n/a	12	15	4	8	3
1467252	PROB	n/a	LTP300	ltpFR2	5	n/a	n/a	n/a	12	18	9	2	7
1469219	PROB	n/a	LTP300	ltpFR2	5	n/a	n/a	n/a	12	19	9	4	6
1470671	PROB	n/a	LTP300	ltpFR2	5	n/a	n/a	n/a	12	15	1	6	8
1471923	PROB	n/a	LTP300	ltpFR2	5	n/a	n/a	n/a	12	13	8	2	3
1473856	PROB	n/a	LTP300	ltpFR2	5	n/a	n/a	n/a	12	16	4	8	4
1475475	PROB	n/a	LTP300	ltpFR2	5	n/a	n/a	n/a	12	20	7	9	4
1478560	PROB	n/a	LTP300	ltpFR2	5	n/a	n/a	n/a	12	11	3	2	6
1479912	PROB	n/a	LTP300	ltpFR2	5	n/a	n/a	n/a	12	18	8	8	2
1481597	PROB	n/a	LTP300	ltpFR2	5	n/a	n/a	n/a	12	12	4	6	2
1482797	PROB	n/a	LTP300	ltpFR2	5	n/a	n/a	n/a	12	15	2	5	8
1484231	PROB	n/a	LTP300	ltpFR2	5	n/a	n/a	n/a	12	11	2	2	7
1485466	STOP	n/a	LTP300	ltpFR2	5	n/a	n/a	n/a	12	n/a	n/a	n/a	n/a
1487652	REC_START	n/a	LTP300	ltpFR2	5	8	n/a	n/a	n/a	n/a	0	0	0
1490194	REC_WORD	wordpools/wasnorm_wordpool_576.txt	LTP300	ltpFR2	5	8	SHIRT	1287	n/a	n/a	0	0	0
1493009	REC_WORD	wordpools/wasnorm_wordpool_576.txt	LTP300	ltpFR2	5	8	BLOUSE	139	n/a	n/a	0	0	0
1494662	REC_WORD	wordpools/wasnorm_wordpool_576.txt	LTP300	ltpFR2	5	8	ZIPPER	1636	n/a	n/a	0	0	0
1497790	REC_WORD	wordpools/wasnorm_wordpool_576.txt	LTP300	ltpFR2	5	8	ITEM	746	n/a	n/a	0	0	0
1499780	REC_WORD	wordpools/wasnorm_wordpool_576.txt	LTP300	ltpFR2	5	8	GIRL	637	n/a	n/a	0	0	0
1504065	REC_WORD	wordpools/wasnorm_wordpool_576.txt	LTP300	ltpFR2	5	8	EUROPE	541	n/a	n/a	0	0	0
1505924	REC_WORD	wordpools/wasnorm_wordpool_576.txt	LTP300	ltpFR2	5	8	PUDDLE	1140	n/a	n/a	0	0	0
1510452	REC_WORD	wordpools/wasnorm_wordpool_576.txt	LTP300	ltpFR2	5	8	PASTRY	1022	n/a	n/a	0	0	0
1512238	REC_WORD	wordpools/wasnorm_wordpool_576.txt	LTP300	ltpFR2	5	8	DOUGHNUT	490	n/a	n/a	0	0	0
1513927	REC_WORD	wordpools/wasnorm_wordpool_576.txt	LTP300	ltpFR2	5	8	GAZELLE	628	n/a	n/a	0	0	0
1517154	REC_WORD	wordpools/wasnorm_wordpool_576.txt	LTP300	ltpFR2	5	8	REBEL	1172	n/a	n/a	0	0	0
1519080	REC_WORD	wordpools/wasnorm_wordpool_576.txt	LTP300	ltpFR2	5	8	LABEL	790	n/a	n/a	0	0	0
1520846	REC_WORD	wordpools/wasnorm_wordpool_576.txt	LTP300	ltpFR2	5	8	STAMP	1370	n/a	n/a	0	0	0
1525193	REC_WORD	wordpools/wasnorm_wordpool_576.txt	LTP300	ltpFR2	5	8	STONE	1385	n/a	n/a	0	0	0
1527289	REC_WORD	wordpools/wasnorm_wordpool_576.txt	LTP300	ltpFR2	5	8	BINDER	127	n/a	n/a	0	0	0
1529060	REC_WORD	wordpools/wasnorm_wordpool_576.txt	LTP300	ltpFR2	5	8	PISTON	1076	n/a	n/a	0	0	0
1532480	REC_WORD	wordpools/wasnorm_wordpool_576.txt	LTP300	ltpFR2	5	8	PATIENT	1024	n/a	n/a	0	0	0
1564189	REST_REWET	n/a	LTP300	ltpFR2	5	8	n/a	n/a	n/a	n/a	0	0	0
1745230	WORD	wordpools/wasnorm_wordpool_576.txt	LTP300	ltpFR2	5	9	RUG	1215	n/a	n/a	0	0	0
1747933	WORD	wordpools/wasnorm_wordpool_576.txt	LTP300	ltpFR2	5	9	PLIERS	1089	n/a	n/a	0	0	0
1750635	WORD	wordpools/wasnorm_wordpool_576.txt	LTP300	ltpFR2	5	9	PARROT	1015	n/a	n/a	0	0	0
1753264	WORD	wordpools/wasnorm_wordpool_576.txt	LTP300	ltpFR2	5	9	SPIDER	1351	n/a	n/a	0	0	0
1755898	WORD	wordpools/wasnorm_wordpool_576.txt	LTP300	ltpFR2	5	9	BALLOON	75	n/a	n/a	0	0	0
1758408	WORD	wordpools/wasnorm_wordpool_576.txt	LTP300	ltpFR2	5	9	SHOULDER	1294	n/a	n/a	0	0	0
1761202	WORD	wordpools/wasnorm_wordpool_576.txt	LTP300	ltpFR2	5	9	PADDING	999	n/a	n/a	0	0	0
1763878	WORD	wordpools/wasnorm_wordpool_576.txt	LTP300	ltpFR2	5	9	CHAUFFEUR	283	n/a	n/a	0	0	0
1766598	WORD	wordpools/wasnorm_wordpool_576.txt	LTP300	ltpFR2	5	9	SNAIL	1332	n/a	n/a	0	0	0
1769232	WORD	wordpools/wasnorm_wordpool_576.txt	LTP300	ltpFR2	5	9	BABY	64	n/a	n/a	0	0	0
1771894	WORD	wordpools/wasnorm_wordpool_576.txt	LTP300	ltpFR2	5	9	OZONE	996	n/a	n/a	0	0	0
1774387	WORD	wordpools/wasnorm_wordpool_576.txt	LTP300	ltpFR2	5	9	DENTIST	447	n/a	n/a	0	0	0
1776982	WORD	wordpools/wasnorm_wordpool_576.txt	LTP300	ltpFR2	5	9	TURTLE	1522	n/a	n/a	0	0	0
1779568	WORD	wordpools/wasnorm_wordpool_576.txt	LTP300	ltpFR2	5	9	DOLPHIN	483	n/a	n/a	0	0	0
1782326	WORD	wordpools/wasnorm_wordpool_576.txt	LTP300	ltpFR2	5	9	XEROX	1628	n/a	n/a	0	0	0
1785138	WORD	wordpools/wasnorm_wordpool_576.txt	LTP300	ltpFR2	5	9	PIGMENT	1066	n/a	n/a	0	0	0
1787891	WORD	wordpools/wasnorm_wordpool_576.txt	LTP300	ltpFR2	5	9	CRAYON	401	n/a	n/a	0	0	0
1790628	WORD	wordpools/wasnorm_wordpool_576.txt	LTP300	ltpFR2	5	9	COUSIN	392	n/a	n/a	0	0	0
1793430	WORD	wordpools/wasnorm_wordpool_576.txt	LTP300	ltpFR2	5	9	SEAL	1262	n/a	n/a	0	0	0
1796181	WORD	wordpools/wasnorm_wordpool_576.txt	LTP300	ltpFR2	5	9	CONCERT	360	n/a	n/a	0	0	0
1798850	WORD	wordpools/wasnorm_wordpool_576.txt	LTP300	ltpFR2	5	9	GARDEN	623	n/a	n/a	0	0	0
1801470	WORD	wordpools/wasnorm_wordpool_576.txt	LTP300	ltpFR2	5	9	SHORTCAKE	1292	n/a	n/a	0	0	0
1803988	WORD	wordpools/wasnorm_wordpool_576.txt	LTP300	ltpFR2	5	9	ORANGE	980	n/a	n/a	0	0	0
1806508	WORD	wordpools/wasnorm_wordpool_576.txt	LTP300	ltpFR2	5	9	GHETTO	633	n/a	n/a	0	0	0
1808126	START	n/a	LTP300	ltpFR2	5	n/a	n/a	n/a	13	n/a	n/a	n/a	n/a
1809078	DISTRACTOR	n/a	LTP300	ltpFR2	5	9	n/a	n/a	n/a	n/a	0	0	0
1809092	PROB	n/a	LTP300	ltpFR2	5	n/a	n/a	n/a	13	7	2	4	1
1810898	PROB	n/a	LTP300	ltpFR2	5	n/a	n/a	n/a	13	18	8	6	4
1812551	PROB	n/a	LTP300	ltpFR2	5	n/a	n/a	n/a	13	19	4	8	7
1814144	PROB	n/a	LTP300	ltpFR2	5	n/a	n/a	n/a	13	17	4	4	9
1815668	PROB	n/a	LTP300	ltpFR2	5	n/a	n/a	n/a	13	16	3	6	7
1817250	PROB	n/a	LTP300	ltpFR2	5	n/a	n/a	n/a	13	8	3	4	1
1818717	PROB	n/a	LTP300	ltpFR2	5	n/a	n/a	n/a	13	11	2	1	8
1820066	PROB	n/a	LTP300	ltpFR2	5	n/a	n/a	n/a	13	7	1	1	5
1821351	PROB	n/a	LTP300	ltpFR2	5	n/a	n/a	n/a	13	13	1	3	9
1822737	PROB	n/a	LTP300	ltpFR2	5	n/a	n/a	n/a	13	16	9	1	6
1824019	PROB	n/a	LTP300	ltpFR2	5	n/a	n/a	n/a	13	21	9	5	7
1826104	PROB	n/a	LTP300	ltpFR2	5	n/a	n/a	n/a	13	22	8	9	5
1827939	PROB	n/a	LTP300	ltpFR2	5	n/a	n/a	n/a	13	25	9	7	9
1832126	STOP	n/a	LTP300	ltpFR2	5	n/a	n/a	n/a	13	n/a	n/a	n/a	n/a
1833983	REC_START	n/a	LTP300	ltpFR2	5	9	n/a	n/a	n/a	n/a	0	0	0
1834486	REC_WORD	wordpools/wasnorm_wordpool_576.txt	LTP300	ltpFR2	5	9	RUG	1215	n/a	n/a	0	0	0
1836656	REC_WORD	wordpools/wasnorm_wordpool_576.txt	LTP300	ltpFR2	5	9	PLIERS	1089	n/a	n/a	0	0	0
1844439	REC_WORD	wordpools/wasnorm_wordpool_576.txt	LTP300	ltpFR2	5	9	SEAL	1262	n/a	n/a	0	0	0
1849886	REC_WORD	wordpools/wasnorm_wordpool_576.txt	LTP300	ltpFR2	5	9	ORANGE	980	n/a	n/a	0	0	0
1851350	REC_WORD	wordpools/wasnorm_wordpool_576.txt	LTP300	ltpFR2	5	9	GHETTO	633	n/a	n/a	0	0	0
1853941	REC_WORD	wordpools/wasnorm_wordpool_576.txt	LTP300	ltpFR2	5	9	SHORTCAKE	1292	n/a	n/a	0	0	0
1870474	REC_WORD	wordpools/wasnorm_wordpool_576.txt	LTP300	ltpFR2	5	9	TURTLE	1522	n/a	n/a	0	0	0
1872069	REC_WORD	wordpools/wasnorm_wordpool_576.txt	LTP300	ltpFR2	5	9	PIGMENT	1066	n/a	n/a	0	0	0
1873759	REC_WORD	wordpools/wasnorm_wordpool_576.txt	LTP300	ltpFR2	5	9	DOLPHIN	483	n/a	n/a	0	0	0
1875387	REC_WORD	wordpools/wasnorm_wordpool_576.txt	LTP300	ltpFR2	5	9	XEROX	1628	n/a	n/a	0	0	0
1880013	REC_WORD	wordpools/wasnorm_wordpool_576.txt	LTP300	ltpFR2	5	9	CRAYON	401	n/a	n/a	0	0	0
1881780	REC_WORD	wordpools/wasnorm_wordpool_576.txt	LTP300	ltpFR2	5	9	COUSIN	392	n/a	n/a	0	0	0
1924418	DISTRACTOR	n/a	LTP300	ltpFR2	5	10	n/a	n/a	n/a	n/a	0	0	0
1924419	START	n/a	LTP300	ltpFR2	5	n/a	n/a	n/a	14	n/a	n/a	n/a	n/a
1924433	PROB	n/a	LTP300	ltpFR2	5	n/a	n/a	n/a	14	17	2	7	8
1926402	PROB	n/a	LTP300	ltpFR2	5	n/a	n/a	n/a	14	11	2	2	7
1927653	PROB	n/a	LTP300	ltpFR2	5	n/a	n/a	n/a	14	21	9	9	3
1929020	PROB	n/a	LTP300	ltpFR2	5	n/a	n/a	n/a	14	20	9	2	9
1931156	PROB	n/a	LTP300	ltpFR2	5	n/a	n/a	n/a	14	15	2	8	5
1932491	PROB	n/a	LTP300	ltpFR2	5	n/a	n/a	n/a	14	18	7	6	5
1934674	PROB	n/a	LTP300	ltpFR2	5	n/a	n/a	n/a	14	21	3	9	9
1936276	PROB	n/a	LTP300	ltpFR2	5	n/a	n/a	n/a	14	11	5	5	1
1937360	PROB	n/a	LTP300	ltpFR2	5	n/a	n/a	n/a	14	12	8	2	2
1938494	PROB	n/a	LTP300	ltpFR2	5	n/a	n/a	n/a	14	14	5	7	2
1940613	PROB	n/a	LTP300	ltpFR2	5	n/a	n/a	n/a	14	24	9	6	9
1942614	PROB	n/a	LTP300	ltpFR2	5	n/a	n/a	n/a	14	11	3	6	2
1944615	PROB	n/a	LTP300	ltpFR2	5	n/a	n/a	n/a	14	12	3	2	7
1946016	PROB	n/a	LTP300	ltpFR2	5	n/a	n/a	n/a	14	11	6	3	2
1947233	STOP	n/a	LTP300	ltpFR2	5	n/a	n/a	n/a	14	n/a	n/a	n/a	n/a
1949588	WORD	wordpools/wasnorm_wordpool_576.txt	LTP300	ltpFR2	5	10	RECORD	1176	n/a	n/a	0	0	0
1952145	WORD	wordpools/wasnorm_wordpool_576.txt	LTP300	ltpFR2	5	10	KETCHUP	771	n/a	n/a	0	0	0
1954598	WORD	wordpools/wasnorm_wordpool_576.txt	LTP300	ltpFR2	5	10	SURVEY	1414	n/a	n/a	0	0	0
1957400	WORD	wordpools/wasnorm_wordpool_576.txt	LTP300	ltpFR2	5	10	FOOT	590	n/a	n/a	0	0	0
1960111	WORD	wordpools/wasnorm_wordpool_576.txt	LTP300	ltpFR2	5	10	TRUCK	1512	n/a	n/a	0	0	0
1962671	WORD	wordpools/wasnorm_wordpool_576.txt	LTP300	ltpFR2	5	10	HONEY	713	n/a	n/a	0	0	0
1965299	WORD	wordpools/wasnorm_wordpool_576.txt	LTP300	ltpFR2	5	10	WORKER	1621	n/a	n/a	0	0	0
1967784	WORD	wordpools/wasnorm_wordpool_576.txt	LTP300	ltpFR2	5	10	MONEY	908	n/a	n/a	0	0	0
1970461	WORD	wordpools/wasnorm_wordpool_576.txt	LTP300	ltpFR2	5	10	RECEIPT	1173	n/a	n/a	0	0	0
1973162	WORD	wordpools/wasnorm_wordpool_576.txt	LTP300	ltpFR2	5	10	MESSAGE	888	n/a	n/a	0	0	0
1975748	WORD	wordpools/wasnorm_wordpool_576.txt	LTP300	ltpFR2	5	10	CANYON	235	n/a	n/a	0	0	0
1978543	WORD	wordpools/wasnorm_wordpool_576.txt	LTP300	ltpFR2	5	10	DORM	488	n/a	n/a	0	0	0
1981035	WORD	wordpools/wasnorm_wordpool_576.txt	LTP300	ltpFR2	5	10	BUCKET	184	n/a	n/a	0	0	0
1983805	WORD	wordpools/wasnorm_wordpool_576.txt	LTP300	ltpFR2	5	10	MOTOR	922	n/a	n/a	0	0	0
1986615	WORD	wordpools/wasnorm_wordpool_576.txt	LTP300	ltpFR2	5	10	BROOK	177	n/a	n/a	0	0	0
1989117	WORD	wordpools/wasnorm_wordpool_576.txt	LTP300	ltpFR2	5	10	MAILMAN	858	n/a	n/a	0	0	0
1991928	WORD	wordpools/wasnorm_wordpool_576.txt	LTP300	ltpFR2	5	10	LAMP	798	n/a	n/a	0	0	0
1994422	WORD	wordpools/wasnorm_wordpool_576.txt	LTP300	ltpFR2	5	10	CREVICE	405	n/a	n/a	0	0	0
1997132	WORD	wordpools/wasnorm_wordpool_576.txt	LTP300	ltpFR2	5	10	CUPBOARD	425	n/a	n/a	0	0	0
1999759	WORD	wordpools/wasnorm_wordpool_576.txt	LTP300	ltpFR2	5	10	CONVICT	371	n/a	n/a	0	0	0
2002461	WORD	wordpools/wasnorm_wordpool_576.txt	LTP300	ltpFR2	5	10	LETTUCE	814	n/a	n/a	0	0	0
2004905	WORD	wordpools/wasnorm_wordpool_576.txt	LTP300	ltpFR2	5	10	STAKE	1368	n/a	n/a	0	0	0
2007425	WORD	wordpools/wasnorm_wordpool_576.txt	LTP300	ltpFR2	5	10	LUMBER	848	n/a	n/a	0	0	0
2009999	WORD	wordpools/wasnorm_wordpool_576.txt	LTP300	ltpFR2	5	10	DRIVER	499	n/a	n/a	0	0	0
2011613	START	n/a	LTP300	ltpFR2	5	n/a	n/a	n/a	15	n/a	n/a	n/a	n/a
2012540	DISTRACTOR	n/a	LTP300	ltpFR2	5	10	n/a	n/a	n/a	n/a	0	0	0
2012546	PROB	n/a	LTP300	ltpFR2	5	n/a	n/a	n/a	15	7	3	1	3
2014236	PROB	n/a	LTP300	ltpFR2	5	n/a	n/a	n/a	15	17	9	4	4
2015854	PROB	n/a	LTP300	ltpFR2	5	n/a	n/a	n/a	15	13	3	8	2
2017439	PROB	n/a	LTP300	ltpFR2	5	n/a	n/a	n/a	15	14	2	5	7
2019290	PROB	n/a	LTP300	ltpFR2	5	n/a	n/a	n/a	15	16	5	4	7
2021024	PROB	n/a	LTP300	ltpFR2	5	n/a	n/a	n/a	15	24	7	9	8
2024494	PROB	n/a	LTP300	ltpFR2	5	n/a	n/a	n/a	15	16	4	3	9
2026044	PROB	n/a	LTP300	ltpFR2	5	n/a	n/a	n/a	15	20	5	9	6
2028397	PROB	n/a	LTP300	ltpFR2	5	n/a	n/a	n/a	15	19	6	8	5
2029812	PROB	n/a	LTP300	ltpFR2	5	n/a	n/a	n/a	15	10	2	4	4
2030881	PROB	n/a	LTP300	ltpFR2	5	n/a	n/a	n/a	15	19	7	5	7
2032249	PROB	n/a	LTP300	ltpFR2	5	n/a	n/a	n/a	15	17	7	6	4
2033666	PROB	n/a	LTP300	ltpFR2	5	n/a	n/a	n/a	15	14	2	3	9
2035041	STOP	n/a	LTP300	ltpFR2	5	n/a	n/a	n/a	15	n/a	n/a	n/a	n/a
2037539	REC_START	n/a	LTP300	ltpFR2	5	10	n/a	n/a	n/a	n/a	0	0	0
2041014	REC_WORD	wordpools/wasnorm_wordpool_576.txt	LTP300	ltpFR2	5	10	LUMBER	848	n/a	n/a	0	0	0
2042469	REC_WORD	wordpools/wasnorm_wordpool_576.txt	LTP300	ltpFR2	5	10	DRIVER	499	n/a	n/a	0	0	0
2043938	REC_WORD	wordpools/wasnorm_wordpool_576.txt	LTP300	ltpFR2	5	10	STAKE	1368	n/a	n/a	0	0	0
2047929	REC_WORD	wordpools/wasnorm_wordpool_576.txt	LTP300	ltpFR2	5	10	CUPBOARD	425	n/a	n/a	0	0	0
2049618	REC_WORD	wordpools/wasnorm_wordpool_576.txt	LTP300	ltpFR2	5	10	CREVICE	405	n/a	n/a	0	0	0
2051115	REC_WORD	wordpools/wasnorm_wordpool_576.txt	LTP300	ltpFR2	5	10	CONVICT	371	n/a	n/a	0	0	0
2052755	REC_WORD	wordpools/wasnorm_wordpool_576.txt	LTP300	ltpFR2	5	10	MONEY	908	n/a	n/a	0	0	0
2055508	REC_WORD	wordpools/wasnorm_wordpool_576.txt	LTP300	ltpFR2	5	10	HONEY	713	n/a	n/a	0	0	0
2056837	REC_WORD	wordpools/wasnorm_wordpool_576.txt	LTP300	ltpFR2	5	10	WORKER	1621	n/a	n/a	0	0	0
2061486	REC_WORD	wordpools/wasnorm_wordpool_576.txt	LTP300	ltpFR2	5	10	FOOT	590	n/a	n/a	0	0	0
2063001	REC_WORD	wordpools/wasnorm_wordpool_576.txt	LTP300	ltpFR2	5	10	TRUCK	1512	n/a	n/a	0	0	0
2065603	REC_WORD	wordpools/wasnorm_wordpool_576.txt	LTP300	ltpFR2	5	10	KETCHUP	771	n/a	n/a	0	0	0
2068779	REC_WORD	wordpools/wasnorm_wordpool_576.txt	LTP300	ltpFR2	5	10	RECORD	1176	n/a	n/a	0	0	0
2070224	REC_WORD	wordpools/wasnorm_wordpool_576.txt	LTP300	ltpFR2	5	10	SURVEY	1414	n/a	n/a	0	0	0
2086662	REC_WORD_VV	wordpools/wasnorm_wordpool_576.txt	LTP300	ltpFR2	5	10	<>	-1	n/a	n/a	0	0	0
2128022	WORD	wordpools/wasnorm_wordpool_576.txt	LTP300	ltpFR2	5	11	TWIG	1527	n/a	n/a	0	0	0
2130592	WORD	wordpools/wasnorm_wordpool_576.txt	LTP300	ltpFR2	5	11	DRILL	497	n/a	n/a	0	0	0
2133176	WORD	wordpools/wasnorm_wordpool_576.txt	LTP300	ltpFR2	5	11	LIVER	833	n/a	n/a	0	0	0
2135595	WORD	wordpools/wasnorm_wordpool_576.txt	LTP300	ltpFR2	5	11	KIDNEY	776	n/a	n/a	0	0	0
2138315	WORD	wordpools/wasnorm_wordpool_576.txt	LTP300	ltpFR2	5	11	SHOVEL	1295	n/a	n/a	0	0	0
2140783	WORD	wordpools/wasnorm_wordpool_576.txt	LTP300	ltpFR2	5	11	WRIST	1626	n/a	n/a	0	0	0
2143335	WORD	wordpools/wasnorm_wordpool_576.txt	LTP300	ltpFR2	5	11	ROBOT	1200	n/a	n/a	0	0	0
2146053	WORD	wordpools/wasnorm_wordpool_576.txt	LTP300	ltpFR2	5	11	SMOG	1330	n/a	n/a	0	0	0
2148806	WORD	wordpools/wasnorm_wordpool_576.txt	LTP300	ltpFR2	5	11	SCULPTURE	1258	n/a	n/a	0	0	0
2151461	WORD	wordpools/wasnorm_wordpool_576.txt	LTP300	ltpFR2	5	11	CASKET	255	n/a	n/a	0	0	0
2154192	WORD	wordpools/wasnorm_wordpool_576.txt	LTP300	ltpFR2	5	11	VICTIM	1562	n/a	n/a	0	0	0
2156762	WORD	wordpools/wasnorm_wordpool_576.txt	LTP300	ltpFR2	5	11	LION	827	n/a	n/a	0	0	0
2159397	WORD	wordpools/wasnorm_wordpool_576.txt	LTP300	ltpFR2	5	11	RAZOR	1171	n/a	n/a	0	0	0
2162182	WORD	wordpools/wasnorm_wordpool_576.txt	LTP300	ltpFR2	5	11	TROMBONE	1508	n/a	n/a	0	0	0
2164701	WORD	wordpools/wasnorm_wordpool_576.txt	LTP300	ltpFR2	5	11	BRANCH	168	n/a	n/a	0	0	0
2167119	WORD	wordpools/wasnorm_wordpool_576.txt	LTP300	ltpFR2	5	11	COMET	353	n/a	n/a	0	0	0
2169875	WORD	wordpools/wasnorm_wordpool_576.txt	LTP300	ltpFR2	5	11	ROCKET	1202	n/a	n/a	0	0	0
2172545	WORD	wordpools/wasnorm_wordpool_576.txt	LTP300	ltpFR2	5	11	OX	994	n/a	n/a	0	0	0
2175113	WORD	wordpools/wasnorm_wordpool_576.txt	LTP300	ltpFR2	5	11	PUPIL	1143	n/a	n/a	0	0	0
2177666	WORD	wordpools/wasnorm_wordpool_576.txt	LTP300	ltpFR2	5	11	HERO	706	n/a	n/a	0	0	0
2180352	WORD	wordpools/wasnorm_wordpool_576.txt	LTP300	ltpFR2	5	11	PISTOL	1075	n/a	n/a	0	0	0
2183003	WORD	wordpools/wasnorm_wordpool_576.txt	LTP300	ltpFR2	5	11	CLOUD	328	n/a	n/a	0	0	0
2185740	WORD	wordpools/wasnorm_wordpool_576.txt	LTP300	ltpFR2	5	11	TRENCH	1503	n/a	n/a	0	0	0
2188202	WORD	wordpools/wasnorm_wordpool_576.txt	LTP300	ltpFR2	5	11	VALVE	1546	n/a	n/a	0	0	0
2189809	START	n/a	LTP300	ltpFR2	5	n/a	n/a	n/a	16	n/a	n/a	n/a	n/a
2190927	DISTRACTOR	n/a	LTP300	ltpFR2	5	11	n/a	n/a	n/a	n/a	0	0	0
2190937	PROB	n/a	LTP300	ltpFR2	5	n/a	n/a	n/a	16	13	1	8	4
2192771	PROB	n/a	LTP300	ltpFR2	5	n/a	n/a	n/a	16	12	4	6	2
2194204	PROB	n/a	LTP300	ltpFR2	5	n/a	n/a	n/a	16	20	7	8	5
2198157	PROB	n/a	LTP300	ltpFR2	5	n/a	n/a	n/a	16	14	3	4	7
2199760	PROB	n/a	LTP300	ltpFR2	5	n/a	n/a	n/a	16	11	2	7	2
2201144	PROB	n/a	LTP300	ltpFR2	5	n/a	n/a	n/a	16	16	8	1	7
2202845	PROB	n/a	LTP300	ltpFR2	5	n/a	n/a	n/a	16	18	6	9	3
2204547	PROB	n/a	LTP300	ltpFR2	5	n/a	n/a	n/a	16	16	1	9	6
2205783	PROB	n/a	LTP300	ltpFR2	5	n/a	n/a	n/a	16	10	2	5	3
2207583	PROB	n/a	LTP300	ltpFR2	5	n/a	n/a	n/a	16	19	5	7	7
2209050	PROB	n/a	LTP300	ltpFR2	5	n/a	n/a	n/a	16	7	4	1	2
2211085	PROB	n/a	LTP300	ltpFR2	5	n/a	n/a	n/a	16	22	4	9	9
2213386	STOP	n/a	LTP300	ltpFR2	5	n/a	n/a	n/a	16	n/a	n/a	n/a	n/a
2215557	REC_START	n/a	LTP300	ltpFR2	5	11	n/a	n/a	n/a	n/a	0	0	0
2216903	REC_WORD	wordpools/wasnorm_wordpool_576.txt	LTP300	ltpFR2	5	11	TWIG	1527	n/a	n/a	0	0	0
2218663	REC_WORD	wordpools/wasnorm_wordpool_576.txt	LTP300	ltpFR2	5	11	BRANCH	168	n/a	n/a	0	0	0
2220335	REC_WORD	wordpools/wasnorm_wordpool_576.txt	LTP300	ltpFR2	5	11	ROCKET	1202	n/a	n/a	0	0	0
2222103	REC_WORD	wordpools/wasnorm_wordpool_576.txt	LTP300	ltpFR2	5	11	CLOUD	328	n/a	n/a	0	0	0
2223888	REC_WORD	wordpools/wasnorm_wordpool_576.txt	LTP300	ltpFR2	5	11	TRENCH	1503	n/a	n/a	0	0	0
2225844	REC_WORD	wordpools/wasnorm_wordpool_576.txt	LTP300	ltpFR2	5	11	PUPIL	1143	n/a	n/a	0	0	0
2227890	REC_WORD	wordpools/wasnorm_wordpool_576.txt	LTP300	ltpFR2	5	11	PISTOL	1075	n/a	n/a	0	0	0
2229942	REC_WORD	wordpools/wasnorm_wordpool_576.txt	LTP300	ltpFR2	5	11	OX	994	n/a	n/a	0	0	0
2231670	REC_WORD	wordpools/wasnorm_wordpool_576.txt	LTP300	ltpFR2	5	11	HERO	706	n/a	n/a	0	0	0
2306008	WORD	wordpools/wasnorm_wordpool_576.txt	LTP300	ltpFR2	5	12	INMATE	738	n/a	n/a	0	0	0
2308492	WORD	wordpools/wasnorm_wordpool_576.txt	LTP300	ltpFR2	5	12	FILM	565	n/a	n/a	0	0	0
2311160	WORD	wordpools/wasnorm_wordpool_576.txt	LTP300	ltpFR2	5	12	WINDOW	1611	n/a	n/a	0	0	0
2313613	WORD	wordpools/wasnorm_wordpool_576.txt	LTP300	ltpFR2	5	12	HOOK	715	n/a	n/a	0	0	0
2316348	WORD	wordpools/wasnorm_wordpool_576.txt	LTP300	ltpFR2	5	12	TROUT	1511	n/a	n/a	0	0	0
2319033	WORD	wordpools/wasnorm_wordpool_576.txt	LTP300	ltpFR2	5	12	COUNTY	389	n/a	n/a	0	0	0
2321786	WORD	wordpools/wasnorm_wordpool_576.txt	LTP300	ltpFR2	5	12	DINER	467	n/a	n/a	0	0	0
2324572	WORD	wordpools/wasnorm_wordpool_576.txt	LTP300	ltpFR2	5	12	SCARF	1246	n/a	n/a	0	0	0
2327274	WORD	wordpools/wasnorm_wordpool_576.txt	LTP300	ltpFR2	5	12	PADDLE	1000	n/a	n/a	0	0	0
2329942	WORD	wordpools/wasnorm_wordpool_576.txt	LTP300	ltpFR2	5	12	CHEMIST	292	n/a	n/a	0	0	0
2332612	WORD	wordpools/wasnorm_wordpool_576.txt	LTP300	ltpFR2	5	12	SPHINX	1349	n/a	n/a	0	0	0
2335230	WORD	wordpools/wasnorm_wordpool_576.txt	LTP300	ltpFR2	5	12	TEMPLE	1448	n/a	n/a	0	0	0
2337949	WORD	wordpools/wasnorm_wordpool_576.txt	LTP300	ltpFR2	5	12	VIKING	1565	n/a	n/a	0	0	0
2340735	WORD	wordpools/wasnorm_wordpool_576.txt	LTP300	ltpFR2	5	12	SHELF	1280	n/a	n/a	0	0	0
2343288	WORD	wordpools/wasnorm_wordpool_576.txt	LTP300	ltpFR2	5	12	COMPASS	358	n/a	n/a	0	0	0
2345773	WORD	wordpools/wasnorm_wordpool_576.txt	LTP300	ltpFR2	5	12	SHERIFF	1284	n/a	n/a	0	0	0
2348592	WORD	wordpools/wasnorm_wordpool_576.txt	LTP300	ltpFR2	5	12	MUSTARD	935	n/a	n/a	0	0	0
2351175	WORD	wordpools/wasnorm_wordpool_576.txt	LTP300	ltpFR2	5	12	PICNIC	1060	n/a	n/a	0	0	0
2353978	WORD	wordpools/wasnorm_wordpool_576.txt	LTP300	ltpFR2	5	12	PANTHER	1009	n/a	n/a	0	0	0
2356697	WORD	wordpools/wasnorm_wordpool_576.txt	LTP300	ltpFR2	5	12	PORK	1108	n/a	n/a	0	0	0
2359215	WORD	wordpools/wasnorm_wordpool_576.txt	LTP300	ltpFR2	5	12	SHORTS	1293	n/a	n/a	0	0	0
2361769	WORD	wordpools/wasnorm_wordpool_576.txt	LTP300	ltpFR2	5	12	ICEBERG	731	n/a	n/a	0	0	0
2364235	WORD	wordpools/wasnorm_wordpool_576.txt	LTP300	ltpFR2	5	12	FREEZER	604	n/a	n/a	0	0	0
2366738	WORD	wordpools/wasnorm_wordpool_576.txt	LTP300	ltpFR2	5	12	HEART	697	n/a	n/a	0	0	0
2368358	START	n/a	LTP300	ltpFR2	5	n/a	n/a	n/a	17	n/a	n/a	n/a	n/a
2369236	DISTRACTOR	n/a	LTP300	ltpFR2	5	12	n/a	n/a	n/a	n/a	0	0	0
2369242	PROB	n/a	LTP300	ltpFR2	5	n/a	n/a	n/a	17	18	3	7	8
2371157	PROB	n/a	LTP300	ltpFR2	5	n/a	n/a	n/a	17	22	7	7	8
2374410	PROB	n/a	LTP300	ltpFR2	5	n/a	n/a	n/a	17	20	4	8	8
2376328	PROB	n/a	LTP300	ltpFR2	5	n/a	n/a	n/a	17	7	2	1	4
2377945	PROB	n/a	LTP300	ltpFR2	5	n/a	n/a	n/a	17	8	2	1	5
2379932	PROB	n/a	LTP300	ltpFR2	5	n/a	n/a	n/a	17	17	4	8	5
2381632	PROB	n/a	LTP300	ltpFR2	5	n/a	n/a	n/a	17	17	4	6	7
2383783	PROB	n/a	LTP300	ltpFR2	5	n/a	n/a	n/a	17	11	4	3	4
2386352	PROB	n/a	LTP300	ltpFR2	5	n/a	n/a	n/a	17	12	1	2	9
2387970	PROB	n/a	LTP300	ltpFR2	5	n/a	n/a	n/a	17	16	3	6	7
2389738	PROB	n/a	LTP300	ltpFR2	5	n/a	n/a	n/a	17	16	5	3	8
2391258	STOP	n/a	LTP300	ltpFR2	5	n/a	n/a	n/a	17	n/a	n/a	n/a	n/a
2394210	REC_START	n/a	LTP300	ltpFR2	5	12	n/a	n/a	n/a	n/a	0	0	0
2395083	REC_WORD	wordpools/wasnorm_wordpool_576.txt	LTP300	ltpFR2	5	12	PICNIC	1060	n/a	n/a	0	0	0
2396803	REC_WORD	wordpools/wasnorm_wordpool_576.txt	LTP300	ltpFR2	5	12	MUSTARD	935	n/a	n/a	0	0	0
2419585	REC_WORD	wordpools/wasnorm_wordpool_576.txt	LTP300	ltpFR2	5	12	HEART	697	n/a	n/a	0	0	0
2484640	DISTRACTOR	n/a	LTP300	ltpFR2	5	13	n/a	n/a	n/a	n/a	0	0	0
2484640	START	n/a	LTP300	ltpFR2	5	n/a	n/a	n/a	18	n/a	n/a	n/a	n/a
2484654	PROB	n/a	LTP300	ltpFR2	5	n/a	n/a	n/a	18	22	4	9	9
2486629	PROB	n/a	LTP300	ltpFR2	5	n/a	n/a	n/a	18	13	1	3	9
2487978	PROB	n/a	LTP300	ltpFR2	5	n/a	n/a	n/a	18	17	9	2	6
2489733	PROB	n/a	LTP300	ltpFR2	5	n/a	n/a	n/a	18	12	5	1	6
2491232	PROB	n/a	LTP300	ltpFR2	5	n/a	n/a	n/a	18	11	7	1	3
2492634	PROB	n/a	LTP300	ltpFR2	5	n/a	n/a	n/a	18	9	2	6	1
2493952	PROB	n/a	LTP300	ltpFR2	5	n/a	n/a	n/a	18	13	7	2	4
2496722	PROB	n/a	LTP300	ltpFR2	5	n/a	n/a	n/a	18	14	8	3	3
2498204	PROB	n/a	LTP300	ltpFR2	5	n/a	n/a	n/a	18	20	4	8	6
2500872	PROB	n/a	LTP300	ltpFR2	5	n/a	n/a	n/a	18	16	5	8	3
2503359	PROB	n/a	LTP300	ltpFR2	5	n/a	n/a	n/a	18	15	8	5	2
2504761	PROB	n/a	LTP300	ltpFR2	5	n/a	n/a	n/a	18	11	3	4	4
2506478	PROB	n/a	LTP300	ltpFR2	5	n/a	n/a	n/a	18	10	2	4	4
2507650	STOP	n/a	LTP300	ltpFR2	5	n/a	n/a	n/a	18	n/a	n/a	n/a	n/a
2509648	WORD	wordpools/wasnorm_wordpool_576.txt	LTP300	ltpFR2	5	13	VALLEY	1545	n/a	n/a	0	0	0
2512227	WORD	wordpools/wasnorm_wordpool_576.txt	LTP300	ltpFR2	5	13	HEADBAND	696	n/a	n/a	0	0	0
2514780	WORD	wordpools/wasnorm_wordpool_576.txt	LTP300	ltpFR2	5	13	DONOR	485	n/a	n/a	0	0	0
2517532	WORD	wordpools/wasnorm_wordpool_576.txt	LTP300	ltpFR2	5	13	PATROL	1027	n/a	n/a	0	0	0
2520121	WORD	wordpools/wasnorm_wordpool_576.txt	LTP300	ltpFR2	5	13	BEEF	113	n/a	n/a	0	0	0
2522720	WORD	wordpools/wasnorm_wordpool_576.txt	LTP300	ltpFR2	5	13	TRANSPLANT	1496	n/a	n/a	0	0	0
2525289	WORD	wordpools/wasnorm_wordpool_576.txt	LTP300	ltpFR2	5	13	APRON	35	n/a	n/a	0	0	0
2527844	WORD	wordpools/wasnorm_wordpool_576.txt	LTP300	ltpFR2	5	13	GRAPE	654	n/a	n/a	0	0	0
2530526	WORD	wordpools/wasnorm_wordpool_576.txt	LTP300	ltpFR2	5	13	EYELASH	546	n/a	n/a	0	0	0
2533328	WORD	wordpools/wasnorm_wordpool_576.txt	LTP300	ltpFR2	5	13	STUDENT	1395	n/a	n/a	0	0	0
2535781	WORD	wordpools/wasnorm_wordpool_576.txt	LTP300	ltpFR2	5	13	DRESSER	496	n/a	n/a	0	0	0
2538450	WORD	wordpools/wasnorm_wordpool_576.txt	LTP300	ltpFR2	5	13	CHEST	295	n/a	n/a	0	0	0
2540934	WORD	wordpools/wasnorm_wordpool_576.txt	LTP300	ltpFR2	5	13	CIGAR	308	n/a	n/a	0	0	0
2543720	WORD	wordpools/wasnorm_wordpool_576.txt	LTP300	ltpFR2	5	13	SKETCH	1315	n/a	n/a	0	0	0
2546473	WORD	wordpools/wasnorm_wordpool_576.txt	LTP300	ltpFR2	5	13	BLOCKADE	137	n/a	n/a	0	0	0
2549259	WORD	wordpools/wasnorm_wordpool_576.txt	LTP300	ltpFR2	5	13	LODGE	839	n/a	n/a	0	0	0
2551879	WORD	wordpools/wasnorm_wordpool_576.txt	LTP300	ltpFR2	5	13	DIVER	476	n/a	n/a	0	0	0
2554597	WORD	wordpools/wasnorm_wordpool_576.txt	LTP300	ltpFR2	5	13	STATUE	1374	n/a	n/a	0	0	0
2557081	WORD	wordpools/wasnorm_wordpool_576.txt	LTP300	ltpFR2	5	13	MILK	895	n/a	n/a	0	0	0
2559784	WORD	wordpools/wasnorm_wordpool_576.txt	LTP300	ltpFR2	5	13	FLUTE	585	n/a	n/a	0	0	0
2562486	WORD	wordpools/wasnorm_wordpool_576.txt	LTP300	ltpFR2	5	13	EGYPT	519	n/a	n/a	0	0	0
2564970	WORD	wordpools/wasnorm_wordpool_576.txt	LTP300	ltpFR2	5	13	DANDRUFF	439	n/a	n/a	0	0	0
2567573	WORD	wordpools/wasnorm_wordpool_576.txt	LTP300	ltpFR2	5	13	POSTAGE	1113	n/a	n/a	0	0	0
2570326	WORD	wordpools/wasnorm_wordpool_576.txt	LTP300	ltpFR2	5	13	MAILBOX	857	n/a	n/a	0	0	0
2571943	START	n/a	LTP300	ltpFR2	5	n/a	n/a	n/a	19	n/a	n/a	n/a	n/a
2572938	DISTRACTOR	n/a	LTP300	ltpFR2	5	13	n/a	n/a	n/a	n/a	0	0	0
2572944	PROB	n/a	LTP300	ltpFR2	5	n/a	n/a	n/a	19	16	6	6	4
2574445	PROB	n/a	LTP300	ltpFR2	5	n/a	n/a	n/a	19	21	6	8	7
2576197	PROB	n/a	LTP300	ltpFR2	5	n/a	n/a	n/a	19	10	1	4	5
2577414	PROB	n/a	LTP300	ltpFR2	5	n/a	n/a	n/a	19	9	1	3	5
2579150	PROB	n/a	LTP300	ltpFR2	5	n/a	n/a	n/a	19	12	7	3	2
2580634	PROB	n/a	LTP300	ltpFR2	5	n/a	n/a	n/a	19	5	2	2	1
2581635	PROB	n/a	LTP300	ltpFR2	5	n/a	n/a	n/a	19	26	9	8	9
2584119	PROB	n/a	LTP300	ltpFR2	5	n/a	n/a	n/a	19	10	2	5	3
2585755	PROB	n/a	LTP300	ltpFR2	5	n/a	n/a	n/a	19	13	6	3	4
2587205	PROB	n/a	LTP300	ltpFR2	5	n/a	n/a	n/a	19	8	5	2	1
2588540	PROB	n/a	LTP300	ltpFR2	5	n/a	n/a	n/a	19	17	4	8	5
2589941	PROB	n/a	LTP300	ltpFR2	5	n/a	n/a	n/a	19	14	6	2	6
2591542	PROB	n/a	LTP300	ltpFR2	5	n/a	n/a	n/a	19	15	2	8	5
2592842	PROB	n/a	LTP300	ltpFR2	5	n/a	n/a	n/a	19	18	7	5	6
2594522	STOP	n/a	LTP300	ltpFR2	5	n/a	n/a	n/a	19	n/a	n/a	n/a	n/a
2597813	REC_START	n/a	LTP300	ltpFR2	5	13	n/a	n/a	n/a	n/a	0	0	0
2598397	REC_WORD	wordpools/wasnorm_wordpool_576.txt	LTP300	ltpFR2	5	13	VALLEY	1545	n/a	n/a	0	0	0
2601901	REC_WORD	wordpools/wasnorm_wordpool_576.txt	LTP300	ltpFR2	5	13	BLOCKADE	137	n/a	n/a	0	0	0
2603754	REC_WORD	wordpools/wasnorm_wordpool_576.txt	LTP300	ltpFR2	5	13	LODGE	839	n/a	n/a	0	0	0
2605401	REC_WORD	wordpools/wasnorm_wordpool_576.txt	LTP300	ltpFR2	5	13	CIGAR	308	n/a	n/a	0	0	0
2637439	REC_WORD	wordpools/wasnorm_wordpool_576.txt	LTP300	ltpFR2	5	13	HEADBAND	696	n/a	n/a	0	0	0
2639288	REC_WORD	wordpools/wasnorm_wordpool_576.txt	LTP300	ltpFR2	5	13	DONOR	485	n/a	n/a	0	0	0
2688233	DISTRACTOR	n/a	LTP300	ltpFR2	5	14	n/a	n/a	n/a	n/a	0	0	0
2688233	START	n/a	LTP300	ltpFR2	5	n/a	n/a	n/a	20	n/a	n/a	n/a	n/a
2688250	PROB	n/a	LTP300	ltpFR2	5	n/a	n/a	n/a	20	12	6	2	4
2689667	PROB	n/a	LTP300	ltpFR2	5	n/a	n/a	n/a	20	15	5	9	1
2690918	PROB	n/a	LTP300	ltpFR2	5	n/a	n/a	n/a	20	18	8	1	9
2692469	PROB	n/a	LTP300	ltpFR2	5	n/a	n/a	n/a	20	27	9	9	9
2693886	PROB	n/a	LTP300	ltpFR2	5	n/a	n/a	n/a	20	13	2	7	4
2695271	PROB	n/a	LTP300	ltpFR2	5	n/a	n/a	n/a	20	5	2	1	2
2696256	PROB	n/a	LTP300	ltpFR2	5	n/a	n/a	n/a	20	10	2	4	4
2697691	PROB	n/a	LTP300	ltpFR2	5	n/a	n/a	n/a	20	12	2	4	6
2699123	PROB	n/a	LTP300	ltpFR2	5	n/a	n/a	n/a	20	20	6	5	9
2701108	PROB	n/a	LTP300	ltpFR2	5	n/a	n/a	n/a	20	11	7	1	3
2702225	PROB	n/a	LTP300	ltpFR2	5	n/a	n/a	n/a	20	22	8	6	6
2704043	PROB	n/a	LTP300	ltpFR2	5	n/a	n/a	n/a	20	23	8	7	8
2705762	PROB	n/a	LTP300	ltpFR2	5	n/a	n/a	n/a	20	8	1	2	5
2707062	PROB	n/a	LTP300	ltpFR2	5	n/a	n/a	n/a	20	14	4	6	4
2708651	PROB	n/a	LTP300	ltpFR2	5	n/a	n/a	n/a	20	11	1	8	2
2710199	PROB	n/a	LTP300	ltpFR2	5	n/a	n/a	n/a	20	16	6	6	4
2711698	STOP	n/a	LTP300	ltpFR2	5	n/a	n/a	n/a	20	n/a	n/a	n/a	n/a
2713069	WORD	wordpools/wasnorm_wordpool_576.txt	LTP300	ltpFR2	5	14	BARREL	91	n/a	n/a	0	0	0
2715588	WORD	wordpools/wasnorm_wordpool_576.txt	LTP300	ltpFR2	5	14	BOUQUET	157	n/a	n/a	0	0	0
2718048	WORD	wordpools/wasnorm_wordpool_576.txt	LTP300	ltpFR2	5	14	SCISSORS	1250	n/a	n/a	0	0	0
2720518	WORD	wordpools/wasnorm_wordpool_576.txt	LTP300	ltpFR2	5	14	PARTNER	1017	n/a	n/a	0	0	0
2723143	WORD	wordpools/wasnorm_wordpool_576.txt	LTP300	ltpFR2	5	14	WRENCH	1625	n/a	n/a	0	0	0
2725722	WORD	wordpools/wasnorm_wordpool_576.txt	LTP300	ltpFR2	5	14	TWEEZERS	1526	n/a	n/a	0	0	0
2728525	WORD	wordpools/wasnorm_wordpool_576.txt	LTP300	ltpFR2	5	14	TOASTER	1472	n/a	n/a	0	0	0
2730958	WORD	wordpools/wasnorm_wordpool_576.txt	LTP300	ltpFR2	5	14	PASTA	1021	n/a	n/a	0	0	0
2733678	WORD	wordpools/wasnorm_wordpool_576.txt	LTP300	ltpFR2	5	14	IDOL	733	n/a	n/a	0	0	0
2736398	WORD	wordpools/wasnorm_wordpool_576.txt	LTP300	ltpFR2	5	14	PREACHER	1119	n/a	n/a	0	0	0
2739055	WORD	wordpools/wasnorm_wordpool_576.txt	LTP300	ltpFR2	5	14	HATCHET	691	n/a	n/a	0	0	0
2741840	WORD	wordpools/wasnorm_wordpool_576.txt	LTP300	ltpFR2	5	14	CROSS	413	n/a	n/a	0	0	0
2744544	WORD	wordpools/wasnorm_wordpool_576.txt	LTP300	ltpFR2	5	14	CHAPEL	280	n/a	n/a	0	0	0
2747239	WORD	wordpools/wasnorm_wordpool_576.txt	LTP300	ltpFR2	5	14	SPOUSE	1358	n/a	n/a	0	0	0
2749924	WORD	wordpools/wasnorm_wordpool_576.txt	LTP300	ltpFR2	5	14	CATTLE	261	n/a	n/a	0	0	0
2752411	WORD	wordpools/wasnorm_wordpool_576.txt	LTP300	ltpFR2	5	14	FARMER	553	n/a	n/a	0	0	0
2754867	WORD	wordpools/wasnorm_wordpool_576.txt	LTP300	ltpFR2	5	14	BRICK	172	n/a	n/a	0	0	0
2757399	WORD	wordpools/wasnorm_wordpool_576.txt	LTP300	ltpFR2	5	14	CHILD	299	n/a	n/a	0	0	0
2760038	WORD	wordpools/wasnorm_wordpool_576.txt	LTP300	ltpFR2	5	14	WASHER	1592	n/a	n/a	0	0	0
2762770	WORD	wordpools/wasnorm_wordpool_576.txt	LTP300	ltpFR2	5	14	LEOPARD	812	n/a	n/a	0	0	0
2765322	WORD	wordpools/wasnorm_wordpool_576.txt	LTP300	ltpFR2	5	14	KLEENEX	782	n/a	n/a	0	0	0
2767840	WORD	wordpools/wasnorm_wordpool_576.txt	LTP300	ltpFR2	5	14	GLOVE	642	n/a	n/a	0	0	0
2770280	WORD	wordpools/wasnorm_wordpool_576.txt	LTP300	ltpFR2	5	14	CORAL	378	n/a	n/a	0	0	0
2773097	WORD	wordpools/wasnorm_wordpool_576.txt	LTP300	ltpFR2	5	14	COTTAGE	384	n/a	n/a	0	0	0
2774714	START	n/a	LTP300	ltpFR2	5	n/a	n/a	n/a	21	n/a	n/a	n/a	n/a
2775789	DISTRACTOR	n/a	LTP300	ltpFR2	5	14	n/a	n/a	n/a	n/a	0	0	0
2775797	PROB	n/a	LTP300	ltpFR2	5	n/a	n/a	n/a	21	17	4	5	8
2778230	PROB	n/a	LTP300	ltpFR2	5	n/a	n/a	n/a	21	21	6	6	9
2779700	PROB	n/a	LTP300	ltpFR2	5	n/a	n/a	n/a	21	8	5	2	1
2780854	PROB	n/a	LTP300	ltpFR2	5	n/a	n/a	n/a	21	23	6	9	8
2783339	PROB	n/a	LTP300	ltpFR2	5	n/a	n/a	n/a	21	12	4	4	4
2784520	PROB	n/a	LTP300	ltpFR2	5	n/a	n/a	n/a	21	12	7	1	4
2785855	PROB	n/a	LTP300	ltpFR2	5	n/a	n/a	n/a	21	12	1	7	4
2787438	PROB	n/a	LTP300	ltpFR2	5	n/a	n/a	n/a	21	20	5	7	8
2789427	PROB	n/a	LTP300	ltpFR2	5	n/a	n/a	n/a	21	13	2	5	6
2791291	PROB	n/a	LTP300	ltpFR2	5	n/a	n/a	n/a	21	14	4	7	3
2792860	PROB	n/a	LTP300	ltpFR2	5	n/a	n/a	n/a	21	17	1	8	8
2794245	PROB	n/a	LTP300	ltpFR2	5	n/a	n/a	n/a	21	16	7	7	2
2795578	PROB	n/a	LTP300	ltpFR2	5	n/a	n/a	n/a	21	11	3	4	4
2797690	STOP	n/a	LTP300	ltpFR2	5	n/a	n/a	n/a	21	n/a	n/a	n/a	n/a
2800537	REC_START	n/a	LTP300	ltpFR2	5	14	n/a	n/a	n/a	n/a	0	0	0
2804196	REC_WORD	wordpools/wasnorm_wordpool_576.txt	LTP300	ltpFR2	5	14	PREACHER	1119	n/a	n/a	0	0	0
2805791	REC_WORD	wordpools/wasnorm_wordpool_576.txt	LTP300	ltpFR2	5	14	IDOL	733	n/a	n/a	0	0	0
2807262	REC_WORD	wordpools/wasnorm_wordpool_576.txt	LTP300	ltpFR2	5	14	WRENCH	1625	n/a	n/a	0	0	0
2808722	REC_WORD	wordpools/wasnorm_wordpool_576.txt	LTP300	ltpFR2	5	14	SCISSORS	1250	n/a	n/a	0	0	0
2815122	REC_WORD	wordpools/wasnorm_wordpool_576.txt	LTP300	ltpFR2	5	14	HATCHET	691	n/a	n/a	0	0	0
2821217	REC_WORD	wordpools/wasnorm_wordpool_576.txt	LTP300	ltpFR2	5	14	BARREL	91	n/a	n/a	0	0	0
2826513	REC_WORD	wordpools/wasnorm_wordpool_576.txt	LTP300	ltpFR2	5	14	CROSS	413	n/a	n/a	0	0	0
2838921	REC_WORD	wordpools/wasnorm_wordpool_576.txt	LTP300	ltpFR2	5	14	GLOVE	642	n/a	n/a	0	0	0
2840435	REC_WORD	wordpools/wasnorm_wordpool_576.txt	LTP300	ltpFR2	5	14	KLEENEX	782	n/a	n/a	0	0	0
2890971	DISTRACTOR	n/a	LTP300	ltpFR2	5	15	n/a	n/a	n/a	n/a	0	0	0
2890971	START	n/a	LTP300	ltpFR2	5	n/a	n/a	n/a	22	n/a	n/a	n/a	n/a
2890987	PROB	n/a	LTP300	ltpFR2	5	n/a	n/a	n/a	22	16	6	8	2
2892622	PROB	n/a	LTP300	ltpFR2	5	n/a	n/a	n/a	22	19	4	9	6
2894239	PROB	n/a	LTP300	ltpFR2	5	n/a	n/a	n/a	22	9	4	4	1
2895474	PROB	n/a	LTP300	ltpFR2	5	n/a	n/a	n/a	22	22	9	9	4
2896874	PROB	n/a	LTP300	ltpFR2	5	n/a	n/a	n/a	22	22	8	8	6
2898726	PROB	n/a	LTP300	ltpFR2	5	n/a	n/a	n/a	22	18	4	8	6
2900628	PROB	n/a	LTP300	ltpFR2	5	n/a	n/a	n/a	22	14	2	6	6
2902246	PROB	n/a	LTP300	ltpFR2	5	n/a	n/a	n/a	22	14	6	5	3
2903980	PROB	n/a	LTP300	ltpFR2	5	n/a	n/a	n/a	22	17	8	1	8
2905765	PROB	n/a	LTP300	ltpFR2	5	n/a	n/a	n/a	22	10	8	1	1
2906881	PROB	n/a	LTP300	ltpFR2	5	n/a	n/a	n/a	22	11	6	2	3
2908835	PROB	n/a	LTP300	ltpFR2	5	n/a	n/a	n/a	22	16	6	8	2
2910669	PROB	n/a	LTP300	ltpFR2	5	n/a	n/a	n/a	22	3	1	1	1
2911553	PROB	n/a	LTP300	ltpFR2	5	n/a	n/a	n/a	22	16	9	2	5
2913020	PROB	n/a	LTP300	ltpFR2	5	n/a	n/a	n/a	22	18	4	8	6
2914634	STOP	n/a	LTP300	ltpFR2	5	n/a	n/a	n/a	22	n/a	n/a	n/a	n/a
2916107	WORD	wordpools/wasnorm_wordpool_576.txt	LTP300	ltpFR2	5	15	LOFT	840	n/a	n/a	0	0	0
2918760	WORD	wordpools/wasnorm_wordpool_576.txt	LTP300	ltpFR2	5	15	TWISTER	1530	n/a	n/a	0	0	0
2921385	WORD	wordpools/wasnorm_wordpool_576.txt	LTP300	ltpFR2	5	15	CHURCH	307	n/a	n/a	0	0	0
2923886	WORD	wordpools/wasnorm_wordpool_576.txt	LTP300	ltpFR2	5	15	FRIAR	605	n/a	n/a	0	0	0
2926439	WORD	wordpools/wasnorm_wordpool_576.txt	LTP300	ltpFR2	5	15	MILDEW	893	n/a	n/a	0	0	0
2929117	WORD	wordpools/wasnorm_wordpool_576.txt	LTP300	ltpFR2	5	15	JEANS	752	n/a	n/a	0	0	0
2931753	WORD	wordpools/wasnorm_wordpool_576.txt	LTP300	ltpFR2	5	15	PLAYGROUND	1087	n/a	n/a	0	0	0
2934296	WORD	wordpools/wasnorm_wordpool_576.txt	LTP300	ltpFR2	5	15	TAXI	1438	n/a	n/a	0	0	0
2937047	WORD	wordpools/wasnorm_wordpool_576.txt	LTP300	ltpFR2	5	15	HAMPER	682	n/a	n/a	0	0	0
2939726	WORD	wordpools/wasnorm_wordpool_576.txt	LTP300	ltpFR2	5	15	COSTUME	383	n/a	n/a	0	0	0
2942286	WORD	wordpools/wasnorm_wordpool_576.txt	LTP300	ltpFR2	5	15	BEAVER	109	n/a	n/a	0	0	0
2944746	WORD	wordpools/wasnorm_wordpool_576.txt	LTP300	ltpFR2	5	15	HARP	689	n/a	n/a	0	0	0
2947298	WORD	wordpools/wasnorm_wordpool_576.txt	LTP300	ltpFR2	5	15	DANCER	437	n/a	n/a	0	0	0
2949891	WORD	wordpools/wasnorm_wordpool_576.txt	LTP300	ltpFR2	5	15	BLACKBOARD	133	n/a	n/a	0	0	0
2952528	WORD	wordpools/wasnorm_wordpool_576.txt	LTP300	ltpFR2	5	15	PROTON	1132	n/a	n/a	0	0	0
2955337	WORD	wordpools/wasnorm_wordpool_576.txt	LTP300	ltpFR2	5	15	PACKAGE	997	n/a	n/a	0	0	0
2957914	WORD	wordpools/wasnorm_wordpool_576.txt	LTP300	ltpFR2	5	15	COWBOY	395	n/a	n/a	0	0	0
2960684	WORD	wordpools/wasnorm_wordpool_576.txt	LTP300	ltpFR2	5	15	BISON	131	n/a	n/a	0	0	0
2963260	WORD	wordpools/wasnorm_wordpool_576.txt	LTP300	ltpFR2	5	15	HOSTESS	723	n/a	n/a	0	0	0
2965854	WORD	wordpools/wasnorm_wordpool_576.txt	LTP300	ltpFR2	5	15	SEAGULL	1261	n/a	n/a	0	0	0
2968357	WORD	wordpools/wasnorm_wordpool_576.txt	LTP300	ltpFR2	5	15	BOARD	143	n/a	n/a	0	0	0
2971049	WORD	wordpools/wasnorm_wordpool_576.txt	LTP300	ltpFR2	5	15	PLASTER	1085	n/a	n/a	0	0	0
2973768	WORD	wordpools/wasnorm_wordpool_576.txt	LTP300	ltpFR2	5	15	RUST	1219	n/a	n/a	0	0	0
2976447	WORD	wordpools/wasnorm_wordpool_576.txt	LTP300	ltpFR2	5	15	BEAKER	104	n/a	n/a	0	0	0
2978055	START	n/a	LTP300	ltpFR2	5	n/a	n/a	n/a	23	n/a	n/a	n/a	n/a
2979215	DISTRACTOR	n/a	LTP300	ltpFR2	5	15	n/a	n/a	n/a	n/a	0	0	0
2979221	PROB	n/a	LTP300	ltpFR2	5	n/a	n/a	n/a	23	17	3	5	9
2981723	PROB	n/a	LTP300	ltpFR2	5	n/a	n/a	n/a	23	16	9	2	5
2982973	PROB	n/a	LTP300	ltpFR2	5	n/a	n/a	n/a	23	20	5	6	9
2984510	PROB	n/a	LTP300	ltpFR2	5	n/a	n/a	n/a	23	21	8	9	4
2986694	PROB	n/a	LTP300	ltpFR2	5	n/a	n/a	n/a	23	5	2	1	2
2987661	PROB	n/a	LTP300	ltpFR2	5	n/a	n/a	n/a	23	8	1	1	6
2988762	PROB	n/a	LTP300	ltpFR2	5	n/a	n/a	n/a	23	20	5	8	7
2990280	PROB	n/a	LTP300	ltpFR2	5	n/a	n/a	n/a	23	9	2	1	6
2991398	PROB	n/a	LTP300	ltpFR2	5	n/a	n/a	n/a	23	18	4	5	9
2992782	PROB	n/a	LTP300	ltpFR2	5	n/a	n/a	n/a	23	14	2	4	8
2994583	PROB	n/a	LTP300	ltpFR2	5	n/a	n/a	n/a	23	24	6	8	9
2998753	PROB	n/a	LTP300	ltpFR2	5	n/a	n/a	n/a	23	11	1	3	7
2999820	PROB	n/a	LTP300	ltpFR2	5	n/a	n/a	n/a	23	13	4	2	7
3001602	STOP	n/a	LTP300	ltpFR2	5	n/a	n/a	n/a	23	n/a	n/a	n/a	n/a
3003851	REC_START	n/a	LTP300	ltpFR2	5	15	n/a	n/a	n/a	n/a	0	0	0
3006751	REC_WORD	wordpools/wasnorm_wordpool_576.txt	LTP300	ltpFR2	5	15	PLAYGROUND	1087	n/a	n/a	0	0	0
3008413	REC_WORD	wordpools/wasnorm_wordpool_576.txt	LTP300	ltpFR2	5	15	TAXI	1438	n/a	n/a	0	0	0
3009972	REC_WORD	wordpools/wasnorm_wordpool_576.txt	LTP300	ltpFR2	5	15	SEAGULL	1261	n/a	n/a	0	0	0
3011651	REC_WORD	wordpools/wasnorm_wordpool_576.txt	LTP300	ltpFR2	5	15	HOSTESS	723	n/a	n/a	0	0	0
3013287	REC_WORD	wordpools/wasnorm_wordpool_576.txt	LTP300	ltpFR2	5	15	BOARD	143	n/a	n/a	0	0	0
3016518	REC_WORD	wordpools/wasnorm_wordpool_576.txt	LTP300	ltpFR2	5	15	COWBOY	395	n/a	n/a	0	0	0
3018158	REC_WORD	wordpools/wasnorm_wordpool_576.txt	LTP300	ltpFR2	5	15	BEAKER	104	n/a	n/a	0	0	0
3023743	REC_WORD	wordpools/wasnorm_wordpool_576.txt	LTP300	ltpFR2	5	15	HARP	689	n/a	n/a	0	0	0
3026139	REC_WORD	wordpools/wasnorm_wordpool_576.txt	LTP300	ltpFR2	5	15	DANCER	437	n/a	n/a	0	0	0
3027984	REC_WORD	wordpools/wasnorm_wordpool_576.txt	LTP300	ltpFR2	5	15	BLACKBOARD	133	n/a	n/a	0	0	0
3030750	REC_WORD	wordpools/wasnorm_wordpool_576.txt	LTP300	ltpFR2	5	15	BEAVER	109	n/a	n/a	0	0	0
3032513	REC_WORD	wordpools/wasnorm_wordpool_576.txt	LTP300	ltpFR2	5	15	COSTUME	383	n/a	n/a	0	0	0
3034347	REC_WORD	wordpools/wasnorm_wordpool_576.txt	LTP300	ltpFR2	5	15	HAMPER	682	n/a	n/a	0	0	0
3039513	REC_WORD	wordpools/wasnorm_wordpool_576.txt	LTP300	ltpFR2	5	15	PROTON	1132	n/a	n/a	0	0	0
3044303	REC_WORD	wordpools/wasnorm_wordpool_576.txt	LTP300	ltpFR2	5	15	CHURCH	307	n/a	n/a	0	0	0
3047024	REC_WORD	wordpools/wasnorm_wordpool_576.txt	LTP300	ltpFR2	5	15	FRIAR	605	n/a	n/a	0	0	0
3094325	WORD	wordpools/wasnorm_wordpool_576.txt	LTP300	ltpFR2	5	16	SHRUB	1299	n/a	n/a	0	0	0
3096828	WORD	wordpools/wasnorm_wordpool_576.txt	LTP300	ltpFR2	5	16	HEDGE	699	n/a	n/a	0	0	0
3099447	WORD	wordpools/wasnorm_wordpool_576.txt	LTP300	ltpFR2	5	16	SPOOL	1356	n/a	n/a	0	0	0
3102165	WORD	wordpools/wasnorm_wordpool_576.txt	LTP300	ltpFR2	5	16	WAGON	1578	n/a	n/a	0	0	0
3104967	WORD	wordpools/wasnorm_wordpool_576.txt	LTP300	ltpFR2	5	16	WAITRESS	1581	n/a	n/a	0	0	0
3107737	WORD	wordpools/wasnorm_wordpool_576.txt	LTP300	ltpFR2	5	16	ROD	1203	n/a	n/a	0	0	0
3110339	WORD	wordpools/wasnorm_wordpool_576.txt	LTP300	ltpFR2	5	16	THRONE	1461	n/a	n/a	0	0	0
3113140	WORD	wordpools/wasnorm_wordpool_576.txt	LTP300	ltpFR2	5	16	PALACE	1006	n/a	n/a	0	0	0
3115610	WORD	wordpools/wasnorm_wordpool_576.txt	LTP300	ltpFR2	5	16	LAVA	804	n/a	n/a	0	0	0
3118194	WORD	wordpools/wasnorm_wordpool_576.txt	LTP300	ltpFR2	5	16	PASSAGE	1019	n/a	n/a	0	0	0
3120780	WORD	wordpools/wasnorm_wordpool_576.txt	LTP300	ltpFR2	5	16	ULCER	1533	n/a	n/a	0	0	0
3123332	WORD	wordpools/wasnorm_wordpool_576.txt	LTP300	ltpFR2	5	16	TABLET	1427	n/a	n/a	0	0	0
3126000	WORD	wordpools/wasnorm_wordpool_576.txt	LTP300	ltpFR2	5	16	STALLION	1369	n/a	n/a	0	0	0
3128803	WORD	wordpools/wasnorm_wordpool_576.txt	LTP300	ltpFR2	5	16	SWITCH	1422	n/a	n/a	0	0	0
3131388	WORD	wordpools/wasnorm_wordpool_576.txt	LTP300	ltpFR2	5	16	GLOBE	641	n/a	n/a	0	0	0
3134056	WORD	wordpools/wasnorm_wordpool_576.txt	LTP300	ltpFR2	5	16	ZEBRA	1635	n/a	n/a	0	0	0
3136647	WORD	wordpools/wasnorm_wordpool_576.txt	LTP300	ltpFR2	5	16	SERVANT	1271	n/a	n/a	0	0	0
3139283	WORD	wordpools/wasnorm_wordpool_576.txt	LTP300	ltpFR2	5	16	KEEPER	769	n/a	n/a	0	0	0
3142062	WORD	wordpools/wasnorm_wordpool_576.txt	LTP300	ltpFR2	5	16	PARENT	1013	n/a	n/a	0	0	0
3144787	WORD	wordpools/wasnorm_wordpool_576.txt	LTP300	ltpFR2	5	16	CLOTHES	327	n/a	n/a	0	0	0
3147356	WORD	wordpools/wasnorm_wordpool_576.txt	LTP300	ltpFR2	5	16	PEPPER	1047	n/a	n/a	0	0	0
3150008	WORD	wordpools/wasnorm_wordpool_576.txt	LTP300	ltpFR2	5	16	YOLK	1633	n/a	n/a	0	0	0
3152538	WORD	wordpools/wasnorm_wordpool_576.txt	LTP300	ltpFR2	5	16	PLUTO	1092	n/a	n/a	0	0	0
3155273	WORD	wordpools/wasnorm_wordpool_576.txt	LTP300	ltpFR2	5	16	GUITAR	670	n/a	n/a	0	0	0
3156881	START	n/a	LTP300	ltpFR2	5	n/a	n/a	n/a	24	n/a	n/a	n/a	n/a
3157880	DISTRACTOR	n/a	LTP300	ltpFR2	5	16	n/a	n/a	n/a	n/a	0	0	0
3157891	PROB	n/a	LTP300	ltpFR2	5	n/a	n/a	n/a	24	7	1	2	4
3159475	PROB	n/a	LTP300	ltpFR2	5	n/a	n/a	n/a	24	13	3	9	1
3160709	PROB	n/a	LTP300	ltpFR2	5	n/a	n/a	n/a	24	11	1	6	4
3161876	PROB	n/a	LTP300	ltpFR2	5	n/a	n/a	n/a	24	23	6	9	8
3164446	PROB	n/a	LTP300	ltpFR2	5	n/a	n/a	n/a	24	17	4	9	4
3166196	PROB	n/a	LTP300	ltpFR2	5	n/a	n/a	n/a	24	19	6	9	4
3168282	PROB	n/a	LTP300	ltpFR2	5	n/a	n/a	n/a	24	10	5	3	2
3169651	PROB	n/a	LTP300	ltpFR2	5	n/a	n/a	n/a	24	10	2	4	3
3172185	PROB	n/a	LTP300	ltpFR2	5	n/a	n/a	n/a	24	12	5	5	2
3173620	PROB	n/a	LTP300	ltpFR2	5	n/a	n/a	n/a	24	14	4	1	9
3175371	PROB	n/a	LTP300	ltpFR2	5	n/a	n/a	n/a	24	22	9	4	9
3176971	PROB	n/a	LTP300	ltpFR2	5	n/a	n/a	n/a	24	11	6	3	2
3178525	PROB	n/a	LTP300	ltpFR2	5	n/a	n/a	n/a	24	19	7	9	3
3180730	STOP	n/a	LTP300	ltpFR2	5	n/a	n/a	n/a	24	n/a	n/a	n/a	n/a
3182679	REC_START	n/a	LTP300	ltpFR2	5	16	n/a	n/a	n/a	n/a	0	0	0
3187168	REC_WORD	wordpools/wasnorm_wordpool_576.txt	LTP300	ltpFR2	5	16	GLOBE	641	n/a	n/a	0	0	0
3188442	REC_WORD	wordpools/wasnorm_wordpool_576.txt	LTP300	ltpFR2	5	16	GUITAR	670	n/a	n/a	0	0	0
3190230	REC_WORD	wordpools/wasnorm_wordpool_576.txt	LTP300	ltpFR2	5	16	PLUTO	1092	n/a	n/a	0	0	0
3193573	REC_WORD	wordpools/wasnorm_wordpool_576.txt	LTP300	ltpFR2	5	16	SERVANT	1271	n/a	n/a	0	0	0
3196570	REC_WORD	wordpools/wasnorm_wordpool_576.txt	LTP300	ltpFR2	5	16	WAITRESS	1581	n/a	n/a	0	0	0
3197898	REC_WORD	wordpools/wasnorm_wordpool_576.txt	LTP300	ltpFR2	5	16	WAGON	1578	n/a	n/a	0	0	0
3199497	REC_WORD	wordpools/wasnorm_wordpool_576.txt	LTP300	ltpFR2	5	16	ROD	1203	n/a	n/a	0	0	0
3202528	REC_WORD	wordpools/wasnorm_wordpool_576.txt	LTP300	ltpFR2	5	16	PALACE	1006	n/a	n/a	0	0	0
3203748	REC_WORD	wordpools/wasnorm_wordpool_576.txt	LTP300	ltpFR2	5	16	THRONE	1461	n/a	n/a	0	0	0
3212790	REC_WORD	wordpools/wasnorm_wordpool_576.txt	LTP300	ltpFR2	5	16	KEEPER	769	n/a	n/a	0	0	0
3214337	REC_WORD	wordpools/wasnorm_wordpool_576.txt	LTP300	ltpFR2	5	16	PARENT	1013	n/a	n/a	0	0	0
3215564	REC_WORD	wordpools/wasnorm_wordpool_576.txt	LTP300	ltpFR2	5	16	CLOTHES	327	n/a	n/a	0	0	0
3259215	REST_REWET	n/a	LTP300	ltpFR2	5	16	n/a	n/a	n/a	n/a	0	0	0
3466528	DISTRACTOR	n/a	LTP300	ltpFR2	5	17	n/a	n/a	n/a	n/a	0	0	0
3466528	START	n/a	LTP300	ltpFR2	5	n/a	n/a	n/a	25	n/a	n/a	n/a	n/a
3466543	PROB	n/a	LTP300	ltpFR2	5	n/a	n/a	n/a	25	22	9	4	9
3468277	PROB	n/a	LTP300	ltpFR2	5	n/a	n/a	n/a	25	24	9	8	7
3470128	PROB	n/a	LTP300	ltpFR2	5	n/a	n/a	n/a	25	14	8	5	1
3472063	PROB	n/a	LTP300	ltpFR2	5	n/a	n/a	n/a	25	20	9	3	8
3474500	PROB	n/a	LTP300	ltpFR2	5	n/a	n/a	n/a	25	8	2	3	3
3476519	PROB	n/a	LTP300	ltpFR2	5	n/a	n/a	n/a	25	27	9	9	9
3478235	PROB	n/a	LTP300	ltpFR2	5	n/a	n/a	n/a	25	8	2	3	3
3479985	PROB	n/a	LTP300	ltpFR2	5	n/a	n/a	n/a	25	16	5	5	6
3481002	PROB	n/a	LTP300	ltpFR2	5	n/a	n/a	n/a	25	13	1	9	3
3482406	PROB	n/a	LTP300	ltpFR2	5	n/a	n/a	n/a	25	17	7	6	4
3483690	PROB	n/a	LTP300	ltpFR2	5	n/a	n/a	n/a	25	15	6	3	6
3485274	PROB	n/a	LTP300	ltpFR2	5	n/a	n/a	n/a	25	15	9	2	4
3486959	PROB	n/a	LTP300	ltpFR2	5	n/a	n/a	n/a	25	11	7	1	3
3488175	PROB	n/a	LTP300	ltpFR2	5	n/a	n/a	n/a	25	11	5	5	1
3489121	STOP	n/a	LTP300	ltpFR2	5	n/a	n/a	n/a	25	n/a	n/a	n/a	n/a
3491747	WORD	wordpools/wasnorm_wordpool_576.txt	LTP300	ltpFR2	5	17	CABIN	211	n/a	n/a	0	0	0
3494378	WORD	wordpools/wasnorm_wordpool_576.txt	LTP300	ltpFR2	5	17	BLENDER	136	n/a	n/a	0	0	0
3496929	WORD	wordpools/wasnorm_wordpool_576.txt	LTP300	ltpFR2	5	17	WHISTLE	1606	n/a	n/a	0	0	0
3499715	WORD	wordpools/wasnorm_wordpool_576.txt	LTP300	ltpFR2	5	17	MUFFIN	929	n/a	n/a	0	0	0
3502251	WORD	wordpools/wasnorm_wordpool_576.txt	LTP300	ltpFR2	5	17	SCARECROW	1245	n/a	n/a	0	0	0
3504853	WORD	wordpools/wasnorm_wordpool_576.txt	LTP300	ltpFR2	5	17	DIME	466	n/a	n/a	0	0	0
3507572	WORD	wordpools/wasnorm_wordpool_576.txt	LTP300	ltpFR2	5	17	WAITER	1580	n/a	n/a	0	0	0
3510375	WORD	wordpools/wasnorm_wordpool_576.txt	LTP300	ltpFR2	5	17	SNACK	1331	n/a	n/a	0	0	0
3512876	WORD	wordpools/wasnorm_wordpool_576.txt	LTP300	ltpFR2	5	17	PIANO	1057	n/a	n/a	0	0	0
3515562	WORD	wordpools/wasnorm_wordpool_576.txt	LTP300	ltpFR2	5	17	MACHINE	852	n/a	n/a	0	0	0
3518014	WORD	wordpools/wasnorm_wordpool_576.txt	LTP300	ltpFR2	5	17	JURY	766	n/a	n/a	0	0	0
3520519	WORD	wordpools/wasnorm_wordpool_576.txt	LTP300	ltpFR2	5	17	GAVEL	627	n/a	n/a	0	0	0
3523352	WORD	wordpools/wasnorm_wordpool_576.txt	LTP300	ltpFR2	5	17	ATOM	55	n/a	n/a	0	0	0
3526172	WORD	wordpools/wasnorm_wordpool_576.txt	LTP300	ltpFR2	5	17	SALMON	1227	n/a	n/a	0	0	0
3528623	WORD	wordpools/wasnorm_wordpool_576.txt	LTP300	ltpFR2	5	17	POLICE	1098	n/a	n/a	0	0	0
3531359	WORD	wordpools/wasnorm_wordpool_576.txt	LTP300	ltpFR2	5	17	NEUTRON	947	n/a	n/a	0	0	0
3533876	WORD	wordpools/wasnorm_wordpool_576.txt	LTP300	ltpFR2	5	17	BANJO	82	n/a	n/a	0	0	0
3536463	WORD	wordpools/wasnorm_wordpool_576.txt	LTP300	ltpFR2	5	17	RABBIT	1152	n/a	n/a	0	0	0
3538931	WORD	wordpools/wasnorm_wordpool_576.txt	LTP300	ltpFR2	5	17	VELVET	1555	n/a	n/a	0	0	0
3541417	WORD	wordpools/wasnorm_wordpool_576.txt	LTP300	ltpFR2	5	17	COBRA	336	n/a	n/a	0	0	0
3544118	WORD	wordpools/wasnorm_wordpool_576.txt	LTP300	ltpFR2	5	17	TORTOISE	1486	n/a	n/a	0	0	0
3546688	WORD	wordpools/wasnorm_wordpool_576.txt	LTP300	ltpFR2	5	17	GREASE	660	n/a	n/a	0	0	0
3549491	WORD	wordpools/wasnorm_wordpool_576.txt	LTP300	ltpFR2	5	17	TOMBSTONE	1478	n/a	n/a	0	0	0
3552008	WORD	wordpools/wasnorm_wordpool_576.txt	LTP300	ltpFR2	5	17	WIDOW	1608	n/a	n/a	0	0	0
3553629	START	n/a	LTP300	ltpFR2	5	n/a	n/a	n/a	26	n/a	n/a	n/a	n/a
3554492	DISTRACTOR	n/a	LTP300	ltpFR2	5	17	n/a	n/a	n/a	n/a	0	0	0
3554511	PROB	n/a	LTP300	ltpFR2	5	n/a	n/a	n/a	26	21	8	5	8
3556244	PROB	n/a	LTP300	ltpFR2	5	n/a	n/a	n/a	26	11	1	3	7
3557278	PROB	n/a	LTP300	ltpFR2	5	n/a	n/a	n/a	26	12	8	2	2
3558412	PROB	n/a	LTP300	ltpFR2	5	n/a	n/a	n/a	26	14	6	7	1
3560113	PROB	n/a	LTP300	ltpFR2	5	n/a	n/a	n/a	26	14	5	3	6
3561831	PROB	n/a	LTP300	ltpFR2	5	n/a	n/a	n/a	26	13	7	4	2
3563100	PROB	n/a	LTP300	ltpFR2	5	n/a	n/a	n/a	26	14	3	7	4
3564350	PROB	n/a	LTP300	ltpFR2	5	n/a	n/a	n/a	26	17	1	9	7
3565685	PROB	n/a	LTP300	ltpFR2	5	n/a	n/a	n/a	26	12	1	5	6
3566819	PROB	n/a	LTP300	ltpFR2	5	n/a	n/a	n/a	26	18	3	8	7
3568471	PROB	n/a	LTP300	ltpFR2	5	n/a	n/a	n/a	26	16	5	5	6
3569538	PROB	n/a	LTP300	ltpFR2	5	n/a	n/a	n/a	26	19	7	7	5
3570988	PROB	n/a	LTP300	ltpFR2	5	n/a	n/a	n/a	26	19	9	8	2
3572557	PROB	n/a	LTP300	ltpFR2	5	n/a	n/a	n/a	26	13	8	1	4
3573807	PROB	n/a	LTP300	ltpFR2	5	n/a	n/a	n/a	26	1	5	2	8
3574941	PROB	n/a	LTP300	ltpFR2	5	n/a	n/a	n/a	26	15	1	6	8
3576450	STOP	n/a	LTP300	ltpFR2	5	n/a	n/a	n/a	26	n/a	n/a	n/a	n/a
3579581	REC_START	n/a	LTP300	ltpFR2	5	17	n/a	n/a	n/a	n/a	0	0	0
3582051	REC_WORD	wordpools/wasnorm_wordpool_576.txt	LTP300	ltpFR2	5	17	BANJO	82	n/a	n/a	0	0	0
3583969	REC_WORD	wordpools/wasnorm_wordpool_576.txt	LTP300	ltpFR2	5	17	ATOM	55	n/a	n/a	0	0	0
3585213	REC_WORD	wordpools/wasnorm_wordpool_576.txt	LTP300	ltpFR2	5	17	SALMON	1227	n/a	n/a	0	0	0
3587154	REC_WORD	wordpools/wasnorm_wordpool_576.txt	LTP300	ltpFR2	5	17	NEUTRON	947	n/a	n/a	0	0	0
3593533	REC_WORD	wordpools/wasnorm_wordpool_576.txt	LTP300	ltpFR2	5	17	SCARECROW	1245	n/a	n/a	0	0	0
3604938	REC_WORD	wordpools/wasnorm_wordpool_576.txt	LTP300	ltpFR2	5	17	TORTOISE	1486	n/a	n/a	0	0	0
3606709	REC_WORD	wordpools/wasnorm_wordpool_576.txt	LTP300	ltpFR2	5	17	TOMBSTONE	1478	n/a	n/a	0	0	0
3612758	REC_WORD	wordpools/wasnorm_wordpool_576.txt	LTP300	ltpFR2	5	17	GAVEL	627	n/a	n/a	0	0	0
3670006	DISTRACTOR	n/a	LTP300	ltpFR2	5	18	n/a	n/a	n/a	n/a	0	0	0
3670007	START	n/a	LTP300	ltpFR2	5	n/a	n/a	n/a	27	n/a	n/a	n/a	n/a
3670022	PROB	n/a	LTP300	ltpFR2	5	n/a	n/a	n/a	27	16	4	7	5
3671482	PROB	n/a	LTP300	ltpFR2	5	n/a	n/a	n/a	27	17	6	2	9
3673452	PROB	n/a	LTP300	ltpFR2	5	n/a	n/a	n/a	27	10	1	3	6
3674801	PROB	n/a	LTP300	ltpFR2	5	n/a	n/a	n/a	27	11	3	5	3
3676370	PROB	n/a	LTP300	ltpFR2	5	n/a	n/a	n/a	27	12	7	1	4
3677737	PROB	n/a	LTP300	ltpFR2	5	n/a	n/a	n/a	27	14	3	9	2
3679621	PROB	n/a	LTP300	ltpFR2	5	n/a	n/a	n/a	27	14	6	6	2
3680906	PROB	n/a	LTP300	ltpFR2	5	n/a	n/a	n/a	27	7	2	2	3
3683358	PROB	n/a	LTP300	ltpFR2	5	n/a	n/a	n/a	27	17	7	5	5
3684826	PROB	n/a	LTP300	ltpFR2	5	n/a	n/a	n/a	27	11	2	3	6
3686076	PROB	n/a	LTP300	ltpFR2	5	n/a	n/a	n/a	27	14	8	3	3
3687477	PROB	n/a	LTP300	ltpFR2	5	n/a	n/a	n/a	27	15	7	2	6
3689129	PROB	n/a	LTP300	ltpFR2	5	n/a	n/a	n/a	27	14	8	1	5
3690862	PROB	n/a	LTP300	ltpFR2	5	n/a	n/a	n/a	27	15	7	4	4
3692522	STOP	n/a	LTP300	ltpFR2	5	n/a	n/a	n/a	27	n/a	n/a	n/a	n/a
3694977	WORD	wordpools/wasnorm_wordpool_576.txt	LTP300	ltpFR2	5	18	CRICKET	408	n/a	n/a	0	0	0
3697713	WORD	wordpools/wasnorm_wordpool_576.txt	LTP300	ltpFR2	5	18	VENUS	1557	n/a	n/a	0	0	0
3700272	WORD	wordpools/wasnorm_wordpool_576.txt	LTP300	ltpFR2	5	18	MUMMY	932	n/a	n/a	0	0	0
3702752	WORD	wordpools/wasnorm_wordpool_576.txt	LTP300	ltpFR2	5	18	QUARTER	1148	n/a	n/a	0	0	0
3705320	WORD	wordpools/wasnorm_wordpool_576.txt	LTP300	ltpFR2	5	18	JELLO	754	n/a	n/a	0	0	0
3707938	WORD	wordpools/wasnorm_wordpool_576.txt	LTP300	ltpFR2	5	18	LONDON	843	n/a	n/a	0	0	0
3710747	WORD	wordpools/wasnorm_wordpool_576.txt	LTP300	ltpFR2	5	18	NOMAD	955	n/a	n/a	0	0	0
3713293	WORD	wordpools/wasnorm_wordpool_576.txt	LTP300	ltpFR2	5	18	SWAMP	1416	n/a	n/a	0	0	0
3715801	WORD	wordpools/wasnorm_wordpool_576.txt	LTP300	ltpFR2	5	18	TREAT	1501	n/a	n/a	0	0	0
3718514	WORD	wordpools/wasnorm_wordpool_576.txt	LTP300	ltpFR2	5	18	FOX	598	n/a	n/a	0	0	0
3721032	WORD	wordpools/wasnorm_wordpool_576.txt	LTP300	ltpFR2	5	18	BLADE	134	n/a	n/a	0	0	0
3723457	WORD	wordpools/wasnorm_wordpool_576.txt	LTP300	ltpFR2	5	18	SERVER	1272	n/a	n/a	0	0	0
3725903	WORD	wordpools/wasnorm_wordpool_576.txt	LTP300	ltpFR2	5	18	ROBIN	1199	n/a	n/a	0	0	0
3728540	WORD	wordpools/wasnorm_wordpool_576.txt	LTP300	ltpFR2	5	18	DASHBOARD	441	n/a	n/a	0	0	0
3731157	WORD	wordpools/wasnorm_wordpool_576.txt	LTP300	ltpFR2	5	18	BUGGY	188	n/a	n/a	0	0	0
3733880	WORD	wordpools/wasnorm_wordpool_576.txt	LTP300	ltpFR2	5	18	WASP	1593	n/a	n/a	0	0	0
3736313	WORD	wordpools/wasnorm_wordpool_576.txt	LTP300	ltpFR2	5	18	HORNET	718	n/a	n/a	0	0	0
3739017	WORD	wordpools/wasnorm_wordpool_576.txt	LTP300	ltpFR2	5	18	COUNTRY	388	n/a	n/a	0	0	0
3741467	WORD	wordpools/wasnorm_wordpool_576.txt	LTP300	ltpFR2	5	18	BRIEFCASE	175	n/a	n/a	0	0	0
3744201	WORD	wordpools/wasnorm_wordpool_576.txt	LTP300	ltpFR2	5	18	PRINCE	1124	n/a	n/a	0	0	0
3746806	WORD	wordpools/wasnorm_wordpool_576.txt	LTP300	ltpFR2	5	18	BANKER	84	n/a	n/a	0	0	0
3749257	WORD	wordpools/wasnorm_wordpool_576.txt	LTP300	ltpFR2	5	18	NIGHTGOWN	953	n/a	n/a	0	0	0
3751858	WORD	wordpools/wasnorm_wordpool_576.txt	LTP300	ltpFR2	5	18	SPACE	1345	n/a	n/a	0	0	0
3754511	WORD	wordpools/wasnorm_wordpool_576.txt	LTP300	ltpFR2	5	18	GROUND	666	n/a	n/a	0	0	0
3756129	START	n/a	LTP300	ltpFR2	5	n/a	n/a	n/a	28	n/a	n/a	n/a	n/a
3757185	DISTRACTOR	n/a	LTP300	ltpFR2	5	18	n/a	n/a	n/a	n/a	0	0	0
3757196	PROB	n/a	LTP300	ltpFR2	5	n/a	n/a	n/a	28	14	1	6	7
3758679	PROB	n/a	LTP300	ltpFR2	5	n/a	n/a	n/a	28	8	5	2	1
3759731	PROB	n/a	LTP300	ltpFR2	5	n/a	n/a	n/a	28	23	7	8	8
3761300	PROB	n/a	LTP300	ltpFR2	5	n/a	n/a	n/a	28	14	5	3	6
3762898	PROB	n/a	LTP300	ltpFR2	5	n/a	n/a	n/a	28	17	3	7	7
3764469	PROB	n/a	LTP300	ltpFR2	5	n/a	n/a	n/a	28	23	5	9	9
3766556	PROB	n/a	LTP300	ltpFR2	5	n/a	n/a	n/a	28	11	7	3	1
3767723	PROB	n/a	LTP300	ltpFR2	5	n/a	n/a	n/a	28	7	2	1	4
3768939	PROB	n/a	LTP300	ltpFR2	5	n/a	n/a	n/a	28	18	4	6	8
3770458	PROB	n/a	LTP300	ltpFR2	5	n/a	n/a	n/a	28	18	6	7	5
3772175	PROB	n/a	LTP300	ltpFR2	5	n/a	n/a	n/a	28	22	9	9	4
3773778	PROB	n/a	LTP300	ltpFR2	5	n/a	n/a	n/a	28	18	9	5	4
3776563	PROB	n/a	LTP300	ltpFR2	5	n/a	n/a	n/a	28	17	8	8	1
3777929	PROB	n/a	LTP300	ltpFR2	5	n/a	n/a	n/a	28	19	3	9	7
3779362	STOP	n/a	LTP300	ltpFR2	5	n/a	n/a	n/a	28	n/a	n/a	n/a	n/a
3781899	REC_START	n/a	LTP300	ltpFR2	5	18	n/a	n/a	n/a	n/a	0	0	0
3784123	REC_WORD	wordpools/wasnorm_wordpool_576.txt	LTP300	ltpFR2	5	18	BRIEFCASE	175	n/a	n/a	0	0	0
3787127	REC_WORD	wordpools/wasnorm_wordpool_576.txt	LTP300	ltpFR2	5	18	DASHBOARD	441	n/a	n/a	0	0	0
3789379	REC_WORD	wordpools/wasnorm_wordpool_576.txt	LTP300	ltpFR2	5	18	PRINCE	1124	n/a	n/a	0	0	0
3791506	REC_WORD	wordpools/wasnorm_wordpool_576.txt	LTP300	ltpFR2	5	18	BANKER	84	n/a	n/a	0	0	0
3808449	REC_WORD	wordpools/wasnorm_wordpool_576.txt	LTP300	ltpFR2	5	18	BUGGY	188	n/a	n/a	0	0	0
3810112	REC_WORD	wordpools/wasnorm_wordpool_576.txt	LTP300	ltpFR2	5	18	HORNET	718	n/a	n/a	0	0	0
3812199	REC_WORD	wordpools/wasnorm_wordpool_576.txt	LTP300	ltpFR2	5	18	WASP	1593	n/a	n/a	0	0	0
3821063	REC_WORD	wordpools/wasnorm_wordpool_576.txt	LTP300	ltpFR2	5	18	CRICKET	408	n/a	n/a	0	0	0
3872337	WORD	wordpools/wasnorm_wordpool_576.txt	LTP300	ltpFR2	5	19	MASK	876	n/a	n/a	0	0	0
3874887	WORD	wordpools/wasnorm_wordpool_576.txt	LTP300	ltpFR2	5	19	BURGLAR	200	n/a	n/a	0	0	0
3877624	WORD	wordpools/wasnorm_wordpool_576.txt	LTP300	ltpFR2	5	19	PERCH	1048	n/a	n/a	0	0	0
3880208	WORD	wordpools/wasnorm_wordpool_576.txt	LTP300	ltpFR2	5	19	MATTRESS	879	n/a	n/a	0	0	0
3882751	WORD	wordpools/wasnorm_wordpool_576.txt	LTP300	ltpFR2	5	19	CLAM	315	n/a	n/a	0	0	0
3885202	WORD	wordpools/wasnorm_wordpool_576.txt	LTP300	ltpFR2	5	19	PILOT	1070	n/a	n/a	0	0	0
3887765	WORD	wordpools/wasnorm_wordpool_576.txt	LTP300	ltpFR2	5	19	LADY	794	n/a	n/a	0	0	0
3890451	WORD	wordpools/wasnorm_wordpool_576.txt	LTP300	ltpFR2	5	19	MISTER	901	n/a	n/a	0	0	0
3893243	WORD	wordpools/wasnorm_wordpool_576.txt	LTP300	ltpFR2	5	19	SIDEWALK	1303	n/a	n/a	0	0	0
3895788	WORD	wordpools/wasnorm_wordpool_576.txt	LTP300	ltpFR2	5	19	COD	340	n/a	n/a	0	0	0
3898314	WORD	wordpools/wasnorm_wordpool_576.txt	LTP300	ltpFR2	5	19	AIRPLANE	12	n/a	n/a	0	0	0
3900841	WORD	wordpools/wasnorm_wordpool_576.txt	LTP300	ltpFR2	5	19	SUSPECT	1415	n/a	n/a	0	0	0
3903344	WORD	wordpools/wasnorm_wordpool_576.txt	LTP300	ltpFR2	5	19	ATLAS	53	n/a	n/a	0	0	0
3905995	WORD	wordpools/wasnorm_wordpool_576.txt	LTP300	ltpFR2	5	19	AWARD	63	n/a	n/a	0	0	0
3908631	WORD	wordpools/wasnorm_wordpool_576.txt	LTP300	ltpFR2	5	19	LEADER	807	n/a	n/a	0	0	0
3911182	WORD	wordpools/wasnorm_wordpool_576.txt	LTP300	ltpFR2	5	19	WORLD	1622	n/a	n/a	0	0	0
3913743	WORD	wordpools/wasnorm_wordpool_576.txt	LTP300	ltpFR2	5	19	COLLEGE	346	n/a	n/a	0	0	0
3916169	WORD	wordpools/wasnorm_wordpool_576.txt	LTP300	ltpFR2	5	19	FEMALE	559	n/a	n/a	0	0	0
3918648	WORD	wordpools/wasnorm_wordpool_576.txt	LTP300	ltpFR2	5	19	WOMAN	1620	n/a	n/a	0	0	0
3921441	WORD	wordpools/wasnorm_wordpool_576.txt	LTP300	ltpFR2	5	19	PEACH	1031	n/a	n/a	0	0	0
3924118	WORD	wordpools/wasnorm_wordpool_576.txt	LTP300	ltpFR2	5	19	BASEMENT	94	n/a	n/a	0	0	0
3926804	WORD	wordpools/wasnorm_wordpool_576.txt	LTP300	ltpFR2	5	19	CELLAR	267	n/a	n/a	0	0	0
3929390	WORD	wordpools/wasnorm_wordpool_576.txt	LTP300	ltpFR2	5	19	FLAG	573	n/a	n/a	0	0	0
3932098	WORD	wordpools/wasnorm_wordpool_576.txt	LTP300	ltpFR2	5	19	MISSILE	900	n/a	n/a	0	0	0
3933711	START	n/a	LTP300	ltpFR2	5	n/a	n/a	n/a	29	n/a	n/a	n/a	n/a
3934679	DISTRACTOR	n/a	LTP300	ltpFR2	5	19	n/a	n/a	n/a	n/a	0	0	0
3934684	PROB	n/a	LTP300	ltpFR2	5	n/a	n/a	n/a	29	14	9	1	4
3936200	PROB	n/a	LTP300	ltpFR2	5	n/a	n/a	n/a	29	16	6	9	1
3937452	PROB	n/a	LTP300	ltpFR2	5	n/a	n/a	n/a	29	17	8	5	4
3939219	PROB	n/a	LTP300	ltpFR2	5	n/a	n/a	n/a	29	16	5	7	4
3940622	PROB	n/a	LTP300	ltpFR2	5	n/a	n/a	n/a	29	12	5	2	5
3942289	PROB	n/a	LTP300	ltpFR2	5	n/a	n/a	n/a	29	24	9	7	8
3945407	PROB	n/a	LTP300	ltpFR2	5	n/a	n/a	n/a	29	23	9	5	9
3947259	PROB	n/a	LTP300	ltpFR2	5	n/a	n/a	n/a	29	13	9	3	1
3948644	PROB	n/a	LTP300	ltpFR2	5	n/a	n/a	n/a	29	10	2	1	7
3949827	PROB	n/a	LTP300	ltpFR2	5	n/a	n/a	n/a	29	15	2	6	7
3951479	PROB	n/a	LTP300	ltpFR2	5	n/a	n/a	n/a	29	163	8	2	3
3952862	PROB	n/a	LTP300	ltpFR2	5	n/a	n/a	n/a	29	12	3	4	5
3957698	STOP	n/a	LTP300	ltpFR2	5	n/a	n/a	n/a	29	n/a	n/a	n/a	n/a
3959604	REC_START	n/a	LTP300	ltpFR2	5	19	n/a	n/a	n/a	n/a	0	0	0
3960711	REC_WORD	wordpools/wasnorm_wordpool_576.txt	LTP300	ltpFR2	5	19	PERCH	1048	n/a	n/a	0	0	0
3962485	REC_WORD	wordpools/wasnorm_wordpool_576.txt	LTP300	ltpFR2	5	19	BURGLAR	200	n/a	n/a	0	0	0
3964568	REC_WORD	wordpools/wasnorm_wordpool_576.txt	LTP300	ltpFR2	5	19	MATTRESS	879	n/a	n/a	0	0	0
3966425	REC_WORD	wordpools/wasnorm_wordpool_576.txt	LTP300	ltpFR2	5	19	COD	340	n/a	n/a	0	0	0
3968206	REC_WORD	wordpools/wasnorm_wordpool_576.txt	LTP300	ltpFR2	5	19	CLAM	315	n/a	n/a	0	0	0
3970180	REC_WORD	wordpools/wasnorm_wordpool_576.txt	LTP300	ltpFR2	5	19	FEMALE	559	n/a	n/a	0	0	0
3972265	REC_WORD	wordpools/wasnorm_wordpool_576.txt	LTP300	ltpFR2	5	19	WOMAN	1620	n/a	n/a	0	0	0
3974239	REC_WORD	wordpools/wasnorm_wordpool_576.txt	LTP300	ltpFR2	5	19	AWARD	63	n/a	n/a	0	0	0
3976302	REC_WORD	wordpools/wasnorm_wordpool_576.txt	LTP300	ltpFR2	5	19	ATLAS	53	n/a	n/a	0	0	0
3986130	REC_WORD	wordpools/wasnorm_wordpool_576.txt	LTP300	ltpFR2	5	19	WORLD	1622	n/a	n/a	0	0	0
3987801	REC_WORD	wordpools/wasnorm_wordpool_576.txt	LTP300	ltpFR2	5	19	COLLEGE	346	n/a	n/a	0	0	0
3990128	REC_WORD	wordpools/wasnorm_wordpool_576.txt	LTP300	ltpFR2	5	19	BASEMENT	94	n/a	n/a	0	0	0
3991730	REC_WORD	wordpools/wasnorm_wordpool_576.txt	LTP300	ltpFR2	5	19	CELLAR	267	n/a	n/a	0	0	0
3994512	REC_WORD	wordpools/wasnorm_wordpool_576.txt	LTP300	ltpFR2	5	19	PEACH	1031	n/a	n/a	0	0	0
3996421	REC_WORD	wordpools/wasnorm_wordpool_576.txt	LTP300	ltpFR2	5	19	MISSILE	900	n/a	n/a	0	0	0
3998311	REC_WORD	wordpools/wasnorm_wordpool_576.txt	LTP300	ltpFR2	5	19	FLAG	573	n/a	n/a	0	0	0
4050070	WORD	wordpools/wasnorm_wordpool_576.txt	LTP300	ltpFR2	5	20	SWIMMER	1420	n/a	n/a	0	0	0
4052840	WORD	wordpools/wasnorm_wordpool_576.txt	LTP300	ltpFR2	5	20	ISLAND	745	n/a	n/a	0	0	0
4055426	WORD	wordpools/wasnorm_wordpool_576.txt	LTP300	ltpFR2	5	20	COOK	372	n/a	n/a	0	0	0
4058230	WORD	wordpools/wasnorm_wordpool_576.txt	LTP300	ltpFR2	5	20	SCALPEL	1243	n/a	n/a	0	0	0
4060813	WORD	wordpools/wasnorm_wordpool_576.txt	LTP300	ltpFR2	5	20	TEACHER	1440	n/a	n/a	0	0	0
4063349	WORD	wordpools/wasnorm_wordpool_576.txt	LTP300	ltpFR2	5	20	EMPIRE	530	n/a	n/a	0	0	0
4065801	WORD	wordpools/wasnorm_wordpool_576.txt	LTP300	ltpFR2	5	20	EXPERT	543	n/a	n/a	0	0	0
4068637	WORD	wordpools/wasnorm_wordpool_576.txt	LTP300	ltpFR2	5	20	STAPLE	1371	n/a	n/a	0	0	0
4071087	WORD	wordpools/wasnorm_wordpool_576.txt	LTP300	ltpFR2	5	20	CROWN	415	n/a	n/a	0	0	0
4073574	WORD	wordpools/wasnorm_wordpool_576.txt	LTP300	ltpFR2	5	20	ROOSTER	1209	n/a	n/a	0	0	0
4076376	WORD	wordpools/wasnorm_wordpool_576.txt	LTP300	ltpFR2	5	20	STOVE	1388	n/a	n/a	0	0	0
4078977	WORD	wordpools/wasnorm_wordpool_576.txt	LTP300	ltpFR2	5	20	CEILING	265	n/a	n/a	0	0	0
4081546	WORD	wordpools/wasnorm_wordpool_576.txt	LTP300	ltpFR2	5	20	SLUG	1329	n/a	n/a	0	0	0
4084168	WORD	wordpools/wasnorm_wordpool_576.txt	LTP300	ltpFR2	5	20	POPCORN	1104	n/a	n/a	0	0	0
4086721	WORD	wordpools/wasnorm_wordpool_576.txt	LTP300	ltpFR2	5	20	BANQUET	86	n/a	n/a	0	0	0
4089436	WORD	wordpools/wasnorm_wordpool_576.txt	LTP300	ltpFR2	5	20	SUPPER	1411	n/a	n/a	0	0	0
4091907	WORD	wordpools/wasnorm_wordpool_576.txt	LTP300	ltpFR2	5	20	PIMPLE	1071	n/a	n/a	0	0	0
4094727	WORD	wordpools/wasnorm_wordpool_576.txt	LTP300	ltpFR2	5	20	ARMY	39	n/a	n/a	0	0	0
4097546	WORD	wordpools/wasnorm_wordpool_576.txt	LTP300	ltpFR2	5	20	PARSLEY	1016	n/a	n/a	0	0	0
4100126	WORD	wordpools/wasnorm_wordpool_576.txt	LTP300	ltpFR2	5	20	ONION	977	n/a	n/a	0	0	0
4102801	WORD	wordpools/wasnorm_wordpool_576.txt	LTP300	ltpFR2	5	20	PEANUT	1032	n/a	n/a	0	0	0
4105319	WORD	wordpools/wasnorm_wordpool_576.txt	LTP300	ltpFR2	5	20	DAISY	435	n/a	n/a	0	0	0
4108016	WORD	wordpools/wasnorm_wordpool_576.txt	LTP300	ltpFR2	5	20	GRILL	661	n/a	n/a	0	0	0
4110490	WORD	wordpools/wasnorm_wordpool_576.txt	LTP300	ltpFR2	5	20	FOOTBALL	591	n/a	n/a	0	0	0
4112104	START	n/a	LTP300	ltpFR2	5	n/a	n/a	n/a	30	n/a	n/a	n/a	n/a
4112989	DISTRACTOR	n/a	LTP300	ltpFR2	5	20	n/a	n/a	n/a	n/a	0	0	0
4113003	PROB	n/a	LTP300	ltpFR2	5	n/a	n/a	n/a	30	9	7	1	1
4114320	PROB	n/a	LTP300	ltpFR2	5	n/a	n/a	n/a	30	7	1	1	5
4115521	PROB	n/a	LTP300	ltpFR2	5	n/a	n/a	n/a	30	14	3	4	7
4116955	PROB	n/a	LTP300	ltpFR2	5	n/a	n/a	n/a	30	12	4	3	5
4118840	PROB	n/a	LTP300	ltpFR2	5	n/a	n/a	n/a	30	10	3	6	1
4120542	PROB	n/a	LTP300	ltpFR2	5	n/a	n/a	n/a	30	24	9	7	8
4123209	PROB	n/a	LTP300	ltpFR2	5	n/a	n/a	n/a	30	16	1	6	9
4124877	PROB	n/a	LTP300	ltpFR2	5	n/a	n/a	n/a	30	11	4	3	4
4126448	PROB	n/a	LTP300	ltpFR2	5	n/a	n/a	n/a	30	14	7	3	4
4127980	PROB	n/a	LTP300	ltpFR2	5	n/a	n/a	n/a	30	12	3	7	2
4129097	PROB	n/a	LTP300	ltpFR2	5	n/a	n/a	n/a	30	19	8	7	4
4130699	PROB	n/a	LTP300	ltpFR2	5	n/a	n/a	n/a	30	19	2	8	9
4131867	PROB	n/a	LTP300	ltpFR2	5	n/a	n/a	n/a	30	20	9	7	4
4134118	PROB	n/a	LTP300	ltpFR2	5	n/a	n/a	n/a	30	11	5	1	5
4135298	STOP	n/a	LTP300	ltpFR2	5	n/a	n/a	n/a	30	n/a	n/a	n/a	n/a
4137904	REC_START	n/a	LTP300	ltpFR2	5	20	n/a	n/a	n/a	n/a	0	0	0
4139766	REC_WORD	wordpools/wasnorm_wordpool_576.txt	LTP300	ltpFR2	5	20	FOOTBALL	591	n/a	n/a	0	0	0
4141397	REC_WORD	wordpools/wasnorm_wordpool_576.txt	LTP300	ltpFR2	5	20	STOVE	1388	n/a	n/a	0	0	0
4143078	REC_WORD	wordpools/wasnorm_wordpool_576.txt	LTP300	ltpFR2	5	20	GRILL	661	n/a	n/a	0	0	0
4144607	REC_WORD	wordpools/wasnorm_wordpool_576.txt	LTP300	ltpFR2	5	20	ONION	977	n/a	n/a	0	0	0
4145892	REC_WORD	wordpools/wasnorm_wordpool_576.txt	LTP300	ltpFR2	5	20	PARSLEY	1016	n/a	n/a	0	0	0
4147303	REC_WORD	wordpools/wasnorm_wordpool_576.txt	LTP300	ltpFR2	5	20	PEANUT	1032	n/a	n/a	0	0	0
4148796	REC_WORD	wordpools/wasnorm_wordpool_576.txt	LTP300	ltpFR2	5	20	DAISY	435	n/a	n/a	0	0	0
4153194	REC_WORD	wordpools/wasnorm_wordpool_576.txt	LTP300	ltpFR2	5	20	CEILING	265	n/a	n/a	0	0	0
4154891	REC_WORD	wordpools/wasnorm_wordpool_576.txt	LTP300	ltpFR2	5	20	SLUG	1329	n/a	n/a	0	0	0
4159442	REC_WORD	wordpools/wasnorm_wordpool_576.txt	LTP300	ltpFR2	5	20	EMPIRE	530	n/a	n/a	0	0	0
4160967	REC_WORD	wordpools/wasnorm_wordpool_576.txt	LTP300	ltpFR2	5	20	CROWN	415	n/a	n/a	0	0	0
4163059	REC_WORD	wordpools/wasnorm_wordpool_576.txt	LTP300	ltpFR2	5	20	EXPERT	543	n/a	n/a	0	0	0
4164840	REC_WORD	wordpools/wasnorm_wordpool_576.txt	LTP300	ltpFR2	5	20	SWIMMER	1420	n/a	n/a	0	0	0
4166557	REC_WORD	wordpools/wasnorm_wordpool_576.txt	LTP300	ltpFR2	5	20	ISLAND	745	n/a	n/a	0	0	0
4168171	REC_WORD	wordpools/wasnorm_wordpool_576.txt	LTP300	ltpFR2	5	20	COOK	372	n/a	n/a	0	0	0
4179771	REC_WORD	wordpools/wasnorm_wordpool_576.txt	LTP300	ltpFR2	5	20	ROOSTER	1209	n/a	n/a	0	0	0
4183587	REC_WORD	wordpools/wasnorm_wordpool_576.txt	LTP300	ltpFR2	5	20	POPCORN	1104	n/a	n/a	0	0	0
4184941	REC_WORD	wordpools/wasnorm_wordpool_576.txt	LTP300	ltpFR2	5	20	BANQUET	86	n/a	n/a	0	0	0
4228343	DISTRACTOR	n/a	LTP300	ltpFR2	5	21	n/a	n/a	n/a	n/a	0	0	0
4228343	START	n/a	LTP300	ltpFR2	5	n/a	n/a	n/a	31	n/a	n/a	n/a	n/a
4228371	PROB	n/a	LTP300	ltpFR2	5	n/a	n/a	n/a	31	17	9	7	1
4230338	PROB	n/a	LTP300	ltpFR2	5	n/a	n/a	n/a	31	13	1	8	4
4232089	PROB	n/a	LTP300	ltpFR2	5	n/a	n/a	n/a	31	17	9	3	5
4233741	PROB	n/a	LTP300	ltpFR2	5	n/a	n/a	n/a	31	12	2	8	2
4234874	PROB	n/a	LTP300	ltpFR2	5	n/a	n/a	n/a	31	21	5	9	7
4238713	PROB	n/a	LTP300	ltpFR2	5	n/a	n/a	n/a	31	21	8	7	6
4240146	PROB	n/a	LTP300	ltpFR2	5	n/a	n/a	n/a	31	17	7	6	4
4242333	PROB	n/a	LTP300	ltpFR2	5	n/a	n/a	n/a	31	12	2	9	1
4243516	PROB	n/a	LTP300	ltpFR2	5	n/a	n/a	n/a	31	21	6	8	7
4245933	PROB	n/a	LTP300	ltpFR2	5	n/a	n/a	n/a	31	12	6	1	5
4247740	PROB	n/a	LTP300	ltpFR2	5	n/a	n/a	n/a	31	15	4	2	9
4249355	PROB	n/a	LTP300	ltpFR2	5	n/a	n/a	n/a	31	12	2	6	4
4250849	STOP	n/a	LTP300	ltpFR2	5	n/a	n/a	n/a	31	n/a	n/a	n/a	n/a
4253526	WORD	wordpools/wasnorm_wordpool_576.txt	LTP300	ltpFR2	5	21	DONKEY	484	n/a	n/a	0	0	0
4256227	WORD	wordpools/wasnorm_wordpool_576.txt	LTP300	ltpFR2	5	21	PRIMATE	1123	n/a	n/a	0	0	0
4258896	WORD	wordpools/wasnorm_wordpool_576.txt	LTP300	ltpFR2	5	21	PENGUIN	1044	n/a	n/a	0	0	0
4261716	WORD	wordpools/wasnorm_wordpool_576.txt	LTP300	ltpFR2	5	21	DRESS	495	n/a	n/a	0	0	0
4264519	WORD	wordpools/wasnorm_wordpool_576.txt	LTP300	ltpFR2	5	21	BULLET	194	n/a	n/a	0	0	0
4267338	WORD	wordpools/wasnorm_wordpool_576.txt	LTP300	ltpFR2	5	21	ELBOW	520	n/a	n/a	0	0	0
4269956	WORD	wordpools/wasnorm_wordpool_576.txt	LTP300	ltpFR2	5	21	SKILLET	1317	n/a	n/a	0	0	0
4272492	WORD	wordpools/wasnorm_wordpool_576.txt	LTP300	ltpFR2	5	21	SADDLE	1221	n/a	n/a	0	0	0
4275111	WORD	wordpools/wasnorm_wordpool_576.txt	LTP300	ltpFR2	5	21	SKIRT	1319	n/a	n/a	0	0	0
4277680	WORD	wordpools/wasnorm_wordpool_576.txt	LTP300	ltpFR2	5	21	JUNGLE	764	n/a	n/a	0	0	0
4280281	WORD	wordpools/wasnorm_wordpool_576.txt	LTP300	ltpFR2	5	21	CABBAGE	210	n/a	n/a	0	0	0
4282716	WORD	wordpools/wasnorm_wordpool_576.txt	LTP300	ltpFR2	5	21	SALAD	1224	n/a	n/a	0	0	0
4285353	WORD	wordpools/wasnorm_wordpool_576.txt	LTP300	ltpFR2	5	21	ANKLE	24	n/a	n/a	0	0	0
4288003	WORD	wordpools/wasnorm_wordpool_576.txt	LTP300	ltpFR2	5	21	ARM	38	n/a	n/a	0	0	0
4290556	WORD	wordpools/wasnorm_wordpool_576.txt	LTP300	ltpFR2	5	21	BACKBONE	66	n/a	n/a	0	0	0
4293140	WORD	wordpools/wasnorm_wordpool_576.txt	LTP300	ltpFR2	5	21	LIGHTNING	820	n/a	n/a	0	0	0
4295809	WORD	wordpools/wasnorm_wordpool_576.txt	LTP300	ltpFR2	5	21	JELLY	755	n/a	n/a	0	0	0
4298564	WORD	wordpools/wasnorm_wordpool_576.txt	LTP300	ltpFR2	5	21	QUAIL	1147	n/a	n/a	0	0	0
4301249	WORD	wordpools/wasnorm_wordpool_576.txt	LTP300	ltpFR2	5	21	HUSBAND	728	n/a	n/a	0	0	0
4304065	WORD	wordpools/wasnorm_wordpool_576.txt	LTP300	ltpFR2	5	21	SUNRISE	1407	n/a	n/a	0	0	0
4306768	WORD	wordpools/wasnorm_wordpool_576.txt	LTP300	ltpFR2	5	21	BREAST	171	n/a	n/a	0	0	0
4309219	WORD	wordpools/wasnorm_wordpool_576.txt	LTP300	ltpFR2	5	21	HELMET	702	n/a	n/a	0	0	0
4311658	WORD	wordpools/wasnorm_wordpool_576.txt	LTP300	ltpFR2	5	21	BODY	145	n/a	n/a	0	0	0
