onset	duration	trial_type	sample	stim_file	subject	experiment	session	trial	item_name	item_num	list	answer	test_x	test_y	test_z
238.5283203125	n/a	SESS_START	488506	n/a	LTP354	ltpFR2	20	n/a	n/a	n/a	n/a	n/a	0	0	0
251.94091796875	n/a	START	515975	n/a	LTP354	ltpFR2	20	n/a	n/a	n/a	-1	n/a	n/a	n/a	n/a
263.939453125	n/a	STOP	540548	n/a	LTP354	ltpFR2	20	n/a	n/a	n/a	-1	n/a	n/a	n/a	n/a
299.1826171875	n/a	DISTRACTOR	612726	n/a	LTP354	ltpFR2	20	1	n/a	n/a	n/a	n/a	0	0	0
299.1826171875	n/a	START	612726	n/a	LTP354	ltpFR2	20	n/a	n/a	n/a	1	n/a	n/a	n/a	n/a
299.20068359375	n/a	PROB	612763	n/a	LTP354	ltpFR2	20	n/a	n/a	n/a	1	19	7	6	6
300.9814453125	n/a	PROB	616410	n/a	LTP354	ltpFR2	20	n/a	n/a	n/a	1	15	4	2	9
303.1806640625	n/a	PROB	620914	n/a	LTP354	ltpFR2	20	n/a	n/a	n/a	1	14	6	7	1
304.197265625	n/a	PROB	622996	n/a	LTP354	ltpFR2	20	n/a	n/a	n/a	1	24	7	9	8
305.24755859375	n/a	PROB	625147	n/a	LTP354	ltpFR2	20	n/a	n/a	n/a	1	12	1	5	6
306.1962890625	n/a	PROB	627090	n/a	LTP354	ltpFR2	20	n/a	n/a	n/a	1	13	1	9	3
307.3134765625	n/a	PROB	629378	n/a	LTP354	ltpFR2	20	n/a	n/a	n/a	1	18	6	8	4
308.9443359375	n/a	PROB	632718	n/a	LTP354	ltpFR2	20	n/a	n/a	n/a	1	23	9	5	9
310.12744140625	n/a	PROB	635141	n/a	LTP354	ltpFR2	20	n/a	n/a	n/a	1	15	7	6	2
313.64208984375	n/a	PROB	642339	n/a	LTP354	ltpFR2	20	n/a	n/a	n/a	1	11	4	1	6
314.658203125	n/a	PROB	644420	n/a	LTP354	ltpFR2	20	n/a	n/a	n/a	1	16	5	5	6
315.82421875	n/a	PROB	646808	n/a	LTP354	ltpFR2	20	n/a	n/a	n/a	1	9	4	2	3
317.1572265625	n/a	PROB	649538	n/a	LTP354	ltpFR2	20	n/a	n/a	n/a	1	13	6	2	5
318.35693359375	n/a	PROB	651995	n/a	LTP354	ltpFR2	20	n/a	n/a	n/a	1	9	2	2	5
319.43896484375	n/a	PROB	654211	n/a	LTP354	ltpFR2	20	n/a	n/a	n/a	1	14	1	8	5
320.888671875	n/a	PROB	657180	n/a	LTP354	ltpFR2	20	n/a	n/a	n/a	1	10	4	4	2
321.90869140625	n/a	STOP	659269	n/a	LTP354	ltpFR2	20	n/a	n/a	n/a	1	n/a	n/a	n/a	n/a
324.0869140625	n/a	WORD	663730	wordpools/wasnorm_wordpool_576.txt	LTP354	ltpFR2	20	1	OUTLAW	989	n/a	n/a	0	0	0
326.552734375	n/a	WORD	668780	wordpools/wasnorm_wordpool_576.txt	LTP354	ltpFR2	20	1	SHOULDER	1294	n/a	n/a	0	0	0
329.16748046875	n/a	WORD	674135	wordpools/wasnorm_wordpool_576.txt	LTP354	ltpFR2	20	1	GROUND	666	n/a	n/a	0	0	0
331.7666015625	n/a	WORD	679458	wordpools/wasnorm_wordpool_576.txt	LTP354	ltpFR2	20	1	RUG	1215	n/a	n/a	0	0	0
334.3486328125	n/a	WORD	684746	wordpools/wasnorm_wordpool_576.txt	LTP354	ltpFR2	20	1	PLIERS	1089	n/a	n/a	0	0	0
336.814453125	n/a	WORD	689796	wordpools/wasnorm_wordpool_576.txt	LTP354	ltpFR2	20	1	PISTON	1076	n/a	n/a	0	0	0
339.49609375	n/a	WORD	695288	wordpools/wasnorm_wordpool_576.txt	LTP354	ltpFR2	20	1	ICING	732	n/a	n/a	0	0	0
341.92822265625	n/a	WORD	700269	wordpools/wasnorm_wordpool_576.txt	LTP354	ltpFR2	20	1	KNAPSACK	783	n/a	n/a	0	0	0
344.64404296875	n/a	WORD	705831	wordpools/wasnorm_wordpool_576.txt	LTP354	ltpFR2	20	1	PATROL	1027	n/a	n/a	0	0	0
347.244140625	n/a	WORD	711156	wordpools/wasnorm_wordpool_576.txt	LTP354	ltpFR2	20	1	IDOL	733	n/a	n/a	0	0	0
350.02490234375	n/a	WORD	716851	wordpools/wasnorm_wordpool_576.txt	LTP354	ltpFR2	20	1	SNAKE	1333	n/a	n/a	0	0	0
352.57275390625	n/a	WORD	722069	wordpools/wasnorm_wordpool_576.txt	LTP354	ltpFR2	20	1	SLIDE	1326	n/a	n/a	0	0	0
355.2900390625	n/a	WORD	727634	wordpools/wasnorm_wordpool_576.txt	LTP354	ltpFR2	20	1	MUMMY	932	n/a	n/a	0	0	0
357.82080078125	n/a	WORD	732817	wordpools/wasnorm_wordpool_576.txt	LTP354	ltpFR2	20	1	TURTLE	1522	n/a	n/a	0	0	0
360.4697265625	n/a	WORD	738242	wordpools/wasnorm_wordpool_576.txt	LTP354	ltpFR2	20	1	PASTA	1021	n/a	n/a	0	0	0
363.25244140625	n/a	WORD	743941	wordpools/wasnorm_wordpool_576.txt	LTP354	ltpFR2	20	1	MATCH	878	n/a	n/a	0	0	0
365.75048828125	n/a	WORD	749057	wordpools/wasnorm_wordpool_576.txt	LTP354	ltpFR2	20	1	MACHINE	852	n/a	n/a	0	0	0
368.28369140625	n/a	WORD	754245	wordpools/wasnorm_wordpool_576.txt	LTP354	ltpFR2	20	1	LEG	809	n/a	n/a	0	0	0
370.814453125	n/a	WORD	759428	wordpools/wasnorm_wordpool_576.txt	LTP354	ltpFR2	20	1	SLOPE	1328	n/a	n/a	0	0	0
373.580078125	n/a	WORD	765092	wordpools/wasnorm_wordpool_576.txt	LTP354	ltpFR2	20	1	AGENT	10	n/a	n/a	0	0	0
376.31298828125	n/a	WORD	770689	wordpools/wasnorm_wordpool_576.txt	LTP354	ltpFR2	20	1	BOYFRIEND	162	n/a	n/a	0	0	0
378.8271484375	n/a	WORD	775838	wordpools/wasnorm_wordpool_576.txt	LTP354	ltpFR2	20	1	CRAB	397	n/a	n/a	0	0	0
381.60888671875	n/a	WORD	781535	wordpools/wasnorm_wordpool_576.txt	LTP354	ltpFR2	20	1	PARTNER	1017	n/a	n/a	0	0	0
384.27587890625	n/a	WORD	786997	wordpools/wasnorm_wordpool_576.txt	LTP354	ltpFR2	20	1	FRIEND	606	n/a	n/a	0	0	0
385.89111328125	n/a	START	790305	n/a	LTP354	ltpFR2	20	n/a	n/a	n/a	2	n/a	n/a	n/a	n/a
386.85498046875	n/a	DISTRACTOR	792279	n/a	LTP354	ltpFR2	20	1	n/a	n/a	n/a	n/a	0	0	0
386.85693359375	n/a	PROB	792283	n/a	LTP354	ltpFR2	20	n/a	n/a	n/a	2	9	3	4	2
388.73876953125	n/a	PROB	796137	n/a	LTP354	ltpFR2	20	n/a	n/a	n/a	2	18	4	9	5
391.6044921875	n/a	PROB	802006	n/a	LTP354	ltpFR2	20	n/a	n/a	n/a	2	13	3	7	3
392.70361328125	n/a	PROB	804257	n/a	LTP354	ltpFR2	20	n/a	n/a	n/a	2	14	3	7	4
393.78662109375	n/a	PROB	806475	n/a	LTP354	ltpFR2	20	n/a	n/a	n/a	2	18	8	9	1
395.435546875	n/a	PROB	809852	n/a	LTP354	ltpFR2	20	n/a	n/a	n/a	2	19	5	5	9
396.935546875	n/a	PROB	812924	n/a	LTP354	ltpFR2	20	n/a	n/a	n/a	2	18	7	3	8
397.95166015625	n/a	PROB	815005	n/a	LTP354	ltpFR2	20	n/a	n/a	n/a	2	24	9	6	9
399.25146484375	n/a	PROB	817667	n/a	LTP354	ltpFR2	20	n/a	n/a	n/a	2	19	9	7	3
400.2685546875	n/a	PROB	819750	n/a	LTP354	ltpFR2	20	n/a	n/a	n/a	2	19	1	9	9
402.18359375	n/a	PROB	823672	n/a	LTP354	ltpFR2	20	n/a	n/a	n/a	2	20	3	8	9
403.71533203125	n/a	PROB	826809	n/a	LTP354	ltpFR2	20	n/a	n/a	n/a	2	11	4	4	3
405.1484375	n/a	PROB	829744	n/a	LTP354	ltpFR2	20	n/a	n/a	n/a	2	18	4	9	5
406.48046875	n/a	PROB	832472	n/a	LTP354	ltpFR2	20	n/a	n/a	n/a	2	16	9	4	3
408.357421875	n/a	STOP	836316	n/a	LTP354	ltpFR2	20	n/a	n/a	n/a	2	n/a	n/a	n/a	n/a
411.81201171875	n/a	REC_START	843391	n/a	LTP354	ltpFR2	20	1	n/a	n/a	n/a	n/a	0	0	0
413.92822265625	n/a	REC_WORD	847725	wordpools/wasnorm_wordpool_576.txt	LTP354	ltpFR2	20	1	OUTLAW	989	n/a	n/a	0	0	0
414.833984375	n/a	REC_WORD	849580	wordpools/wasnorm_wordpool_576.txt	LTP354	ltpFR2	20	1	SHOULDER	1294	n/a	n/a	0	0	0
415.91015625	n/a	REC_WORD	851784	wordpools/wasnorm_wordpool_576.txt	LTP354	ltpFR2	20	1	PARTNER	1017	n/a	n/a	0	0	0
417.2998046875	n/a	REC_WORD	854630	wordpools/wasnorm_wordpool_576.txt	LTP354	ltpFR2	20	1	CRAB	397	n/a	n/a	0	0	0
418.06103515625	n/a	REC_WORD	856189	wordpools/wasnorm_wordpool_576.txt	LTP354	ltpFR2	20	1	IDOL	733	n/a	n/a	0	0	0
419.4228515625	n/a	REC_WORD	858978	wordpools/wasnorm_wordpool_576.txt	LTP354	ltpFR2	20	1	ICEBERG	731	n/a	n/a	0	0	0
421.2998046875	n/a	REC_WORD	862822	wordpools/wasnorm_wordpool_576.txt	LTP354	ltpFR2	20	1	FRIEND	606	n/a	n/a	0	0	0
422.517578125	n/a	REC_WORD	865316	wordpools/wasnorm_wordpool_576.txt	LTP354	ltpFR2	20	1	BOYFRIEND	162	n/a	n/a	0	0	0
441.4970703125	n/a	REC_WORD	904186	wordpools/wasnorm_wordpool_576.txt	LTP354	ltpFR2	20	1	KNAPSACK	783	n/a	n/a	0	0	0
450.63916015625	n/a	REC_WORD	922909	wordpools/wasnorm_wordpool_576.txt	LTP354	ltpFR2	20	1	ROD	1203	n/a	n/a	0	0	0
480.11279296875	n/a	REC_WORD	983271	wordpools/wasnorm_wordpool_576.txt	LTP354	ltpFR2	20	1	PISTOL	1075	n/a	n/a	0	0	0
481.6240234375	n/a	REC_WORD	986366	wordpools/wasnorm_wordpool_576.txt	LTP354	ltpFR2	20	1	FOX	598	n/a	n/a	0	0	0
502.2353515625	n/a	DISTRACTOR	1028578	n/a	LTP354	ltpFR2	20	2	n/a	n/a	n/a	n/a	0	0	0
502.2353515625	n/a	START	1028578	n/a	LTP354	ltpFR2	20	n/a	n/a	n/a	3	n/a	n/a	n/a	n/a
502.25244140625	n/a	PROB	1028613	n/a	LTP354	ltpFR2	20	n/a	n/a	n/a	3	12	1	9	2
503.66748046875	n/a	PROB	1031511	n/a	LTP354	ltpFR2	20	n/a	n/a	n/a	3	15	6	8	1
506.3662109375	n/a	PROB	1037038	n/a	LTP354	ltpFR2	20	n/a	n/a	n/a	3	16	8	7	1
507.38232421875	n/a	PROB	1039119	n/a	LTP354	ltpFR2	20	n/a	n/a	n/a	3	20	8	6	6
508.79833984375	n/a	PROB	1042019	n/a	LTP354	ltpFR2	20	n/a	n/a	n/a	3	8	1	3	4
509.76416015625	n/a	PROB	1043997	n/a	LTP354	ltpFR2	20	n/a	n/a	n/a	3	21	8	5	8
510.89697265625	n/a	PROB	1046317	n/a	LTP354	ltpFR2	20	n/a	n/a	n/a	3	17	1	8	8
511.86328125	n/a	PROB	1048296	n/a	LTP354	ltpFR2	20	n/a	n/a	n/a	3	18	7	6	5
513.36181640625	n/a	PROB	1051365	n/a	LTP354	ltpFR2	20	n/a	n/a	n/a	3	19	9	2	8
515.61083984375	n/a	PROB	1055971	n/a	LTP354	ltpFR2	20	n/a	n/a	n/a	3	12	2	4	6
516.494140625	n/a	PROB	1057780	n/a	LTP354	ltpFR2	20	n/a	n/a	n/a	3	21	7	5	9
518.44287109375	n/a	PROB	1061771	n/a	LTP354	ltpFR2	20	n/a	n/a	n/a	3	10	2	1	7
519.708984375	n/a	PROB	1064364	n/a	LTP354	ltpFR2	20	n/a	n/a	n/a	3	17	4	6	7
520.94189453125	n/a	PROB	1066889	n/a	LTP354	ltpFR2	20	n/a	n/a	n/a	3	23	6	9	8
523.54052734375	n/a	PROB	1072211	n/a	LTP354	ltpFR2	20	n/a	n/a	n/a	3	14	6	1	7
524.57373046875	n/a	PROB	1074327	n/a	LTP354	ltpFR2	20	n/a	n/a	n/a	3	11	1	9	1
525.44580078125	n/a	STOP	1076113	n/a	LTP354	ltpFR2	20	n/a	n/a	n/a	3	n/a	n/a	n/a	n/a
527.37255859375	n/a	WORD	1080059	wordpools/wasnorm_wordpool_576.txt	LTP354	ltpFR2	20	2	CRITIC	410	n/a	n/a	0	0	0
530.1884765625	n/a	WORD	1085826	wordpools/wasnorm_wordpool_576.txt	LTP354	ltpFR2	20	2	BLOUSE	139	n/a	n/a	0	0	0
532.63623046875	n/a	WORD	1090839	wordpools/wasnorm_wordpool_576.txt	LTP354	ltpFR2	20	2	BLACKBOARD	133	n/a	n/a	0	0	0
535.3681640625	n/a	WORD	1096434	wordpools/wasnorm_wordpool_576.txt	LTP354	ltpFR2	20	2	CELLAR	267	n/a	n/a	0	0	0
537.88427734375	n/a	WORD	1101587	wordpools/wasnorm_wordpool_576.txt	LTP354	ltpFR2	20	2	ANKLE	24	n/a	n/a	0	0	0
540.43212890625	n/a	WORD	1106805	wordpools/wasnorm_wordpool_576.txt	LTP354	ltpFR2	20	2	BLADE	134	n/a	n/a	0	0	0
543.130859375	n/a	WORD	1112332	wordpools/wasnorm_wordpool_576.txt	LTP354	ltpFR2	20	2	COD	340	n/a	n/a	0	0	0
545.61279296875	n/a	WORD	1117415	wordpools/wasnorm_wordpool_576.txt	LTP354	ltpFR2	20	2	BRACES	164	n/a	n/a	0	0	0
548.11181640625	n/a	WORD	1122533	wordpools/wasnorm_wordpool_576.txt	LTP354	ltpFR2	20	2	PROTON	1132	n/a	n/a	0	0	0
550.677734375	n/a	WORD	1127788	wordpools/wasnorm_wordpool_576.txt	LTP354	ltpFR2	20	2	TOMBSTONE	1478	n/a	n/a	0	0	0
553.392578125	n/a	WORD	1133348	wordpools/wasnorm_wordpool_576.txt	LTP354	ltpFR2	20	2	CAMEL	223	n/a	n/a	0	0	0
556.19287109375	n/a	WORD	1139083	wordpools/wasnorm_wordpool_576.txt	LTP354	ltpFR2	20	2	TILE	1468	n/a	n/a	0	0	0
558.99072265625	n/a	WORD	1144813	wordpools/wasnorm_wordpool_576.txt	LTP354	ltpFR2	20	2	FOX	598	n/a	n/a	0	0	0
561.57275390625	n/a	WORD	1150101	wordpools/wasnorm_wordpool_576.txt	LTP354	ltpFR2	20	2	COMPASS	358	n/a	n/a	0	0	0
564.1884765625	n/a	WORD	1155458	wordpools/wasnorm_wordpool_576.txt	LTP354	ltpFR2	20	2	HAWK	692	n/a	n/a	0	0	0
566.8193359375	n/a	WORD	1160846	wordpools/wasnorm_wordpool_576.txt	LTP354	ltpFR2	20	2	ROBIN	1199	n/a	n/a	0	0	0
569.50244140625	n/a	WORD	1166341	wordpools/wasnorm_wordpool_576.txt	LTP354	ltpFR2	20	2	HEADBAND	696	n/a	n/a	0	0	0
572.21826171875	n/a	WORD	1171903	wordpools/wasnorm_wordpool_576.txt	LTP354	ltpFR2	20	2	PIANO	1057	n/a	n/a	0	0	0
574.89892578125	n/a	WORD	1177393	wordpools/wasnorm_wordpool_576.txt	LTP354	ltpFR2	20	2	CIGAR	308	n/a	n/a	0	0	0
577.56494140625	n/a	WORD	1182853	wordpools/wasnorm_wordpool_576.txt	LTP354	ltpFR2	20	2	ACTRESS	6	n/a	n/a	0	0	0
580.14697265625	n/a	WORD	1188141	wordpools/wasnorm_wordpool_576.txt	LTP354	ltpFR2	20	2	DENTIST	447	n/a	n/a	0	0	0
582.87890625	n/a	WORD	1193736	wordpools/wasnorm_wordpool_576.txt	LTP354	ltpFR2	20	2	SHARK	1275	n/a	n/a	0	0	0
585.5107421875	n/a	WORD	1199126	wordpools/wasnorm_wordpool_576.txt	LTP354	ltpFR2	20	2	COWBOY	395	n/a	n/a	0	0	0
588.126953125	n/a	WORD	1204484	wordpools/wasnorm_wordpool_576.txt	LTP354	ltpFR2	20	2	TRIBE	1505	n/a	n/a	0	0	0
589.74267578125	n/a	START	1207793	n/a	LTP354	ltpFR2	20	n/a	n/a	n/a	4	n/a	n/a	n/a	n/a
590.94140625	n/a	DISTRACTOR	1210248	n/a	LTP354	ltpFR2	20	2	n/a	n/a	n/a	n/a	0	0	0
590.95849609375	n/a	PROB	1210283	n/a	LTP354	ltpFR2	20	n/a	n/a	n/a	4	18	7	8	3
592.67333984375	n/a	PROB	1213795	n/a	LTP354	ltpFR2	20	n/a	n/a	n/a	4	25	8	7	8
594.32373046875	n/a	PROB	1217175	n/a	LTP354	ltpFR2	20	n/a	n/a	n/a	4	11	7	3	1
595.6396484375	n/a	PROB	1219870	n/a	LTP354	ltpFR2	20	n/a	n/a	n/a	4	18	7	3	8
596.638671875	n/a	PROB	1221916	n/a	LTP354	ltpFR2	20	n/a	n/a	n/a	4	10	1	5	4
597.73828125	n/a	PROB	1224168	n/a	LTP354	ltpFR2	20	n/a	n/a	n/a	4	8	4	1	3
598.67138671875	n/a	PROB	1226079	n/a	LTP354	ltpFR2	20	n/a	n/a	n/a	4	15	3	9	3
600.25439453125	n/a	PROB	1229321	n/a	LTP354	ltpFR2	20	n/a	n/a	n/a	4	8	2	5	1
601.486328125	n/a	PROB	1231844	n/a	LTP354	ltpFR2	20	n/a	n/a	n/a	4	9	6	1	2
602.51904296875	n/a	PROB	1233959	n/a	LTP354	ltpFR2	20	n/a	n/a	n/a	4	25	8	9	8
604.30322265625	n/a	PROB	1237613	n/a	LTP354	ltpFR2	20	n/a	n/a	n/a	4	20	8	9	3
605.984375	n/a	PROB	1241056	n/a	LTP354	ltpFR2	20	n/a	n/a	n/a	4	12	9	1	2
607.1669921875	n/a	PROB	1243478	n/a	LTP354	ltpFR2	20	n/a	n/a	n/a	4	10	3	1	6
608.35009765625	n/a	PROB	1245901	n/a	LTP354	ltpFR2	20	n/a	n/a	n/a	4	20	4	9	7
609.58203125	n/a	PROB	1248424	n/a	LTP354	ltpFR2	20	n/a	n/a	n/a	4	13	6	5	2
610.93212890625	n/a	PROB	1251189	n/a	LTP354	ltpFR2	20	n/a	n/a	n/a	4	16	1	8	7
611.94775390625	n/a	PROB	1253269	n/a	LTP354	ltpFR2	20	n/a	n/a	n/a	4	12	6	3	3
613.40576171875	n/a	STOP	1256255	n/a	LTP354	ltpFR2	20	n/a	n/a	n/a	4	n/a	n/a	n/a	n/a
615.546875	n/a	REC_START	1260640	n/a	LTP354	ltpFR2	20	2	n/a	n/a	n/a	n/a	0	0	0
618.0908203125	n/a	REC_WORD	1265850	wordpools/wasnorm_wordpool_576.txt	LTP354	ltpFR2	20	2	ACTRESS	6	n/a	n/a	0	0	0
619.2548828125	n/a	REC_WORD	1268234	wordpools/wasnorm_wordpool_576.txt	LTP354	ltpFR2	20	2	TRIBE	1505	n/a	n/a	0	0	0
622.16748046875	n/a	REC_WORD	1274199	wordpools/wasnorm_wordpool_576.txt	LTP354	ltpFR2	20	2	BLACKBOARD	133	n/a	n/a	0	0	0
622.8544921875	n/a	REC_WORD	1275606	wordpools/wasnorm_wordpool_576.txt	LTP354	ltpFR2	20	2	HEADBAND	696	n/a	n/a	0	0	0
629.70947265625	n/a	REC_WORD	1289645	wordpools/wasnorm_wordpool_576.txt	LTP354	ltpFR2	20	2	FOX	598	n/a	n/a	0	0	0
631.9453125	n/a	REC_WORD	1294224	wordpools/wasnorm_wordpool_576.txt	LTP354	ltpFR2	20	2	ROBIN	1199	n/a	n/a	0	0	0
635.8154296875	n/a	REC_WORD	1302150	wordpools/wasnorm_wordpool_576.txt	LTP354	ltpFR2	20	2	OUTLAW	989	n/a	n/a	0	0	0
648.5966796875	n/a	REC_WORD	1328326	wordpools/wasnorm_wordpool_576.txt	LTP354	ltpFR2	20	2	TILE	1468	n/a	n/a	0	0	0
658.275390625	n/a	REC_WORD	1348148	wordpools/wasnorm_wordpool_576.txt	LTP354	ltpFR2	20	2	CELLAR	267	n/a	n/a	0	0	0
661.16943359375	n/a	REC_WORD	1354075	wordpools/wasnorm_wordpool_576.txt	LTP354	ltpFR2	20	2	BASEMENT	94	n/a	n/a	0	0	0
705.96923828125	n/a	DISTRACTOR	1445825	n/a	LTP354	ltpFR2	20	3	n/a	n/a	n/a	n/a	0	0	0
705.96923828125	n/a	START	1445825	n/a	LTP354	ltpFR2	20	n/a	n/a	n/a	5	n/a	n/a	n/a	n/a
705.986328125	n/a	PROB	1445860	n/a	LTP354	ltpFR2	20	n/a	n/a	n/a	5	21	5	7	9
707.96826171875	n/a	PROB	1449919	n/a	LTP354	ltpFR2	20	n/a	n/a	n/a	5	16	6	9	1
709.05078125	n/a	PROB	1452136	n/a	LTP354	ltpFR2	20	n/a	n/a	n/a	5	14	1	5	8
710.1669921875	n/a	PROB	1454422	n/a	LTP354	ltpFR2	20	n/a	n/a	n/a	5	8	2	3	3
711.51708984375	n/a	PROB	1457187	n/a	LTP354	ltpFR2	20	n/a	n/a	n/a	5	14	2	9	3
713.048828125	n/a	PROB	1460324	n/a	LTP354	ltpFR2	20	n/a	n/a	n/a	5	17	6	7	4
715.498046875	n/a	PROB	1465340	n/a	LTP354	ltpFR2	20	n/a	n/a	n/a	5	9	1	1	7
716.48095703125	n/a	PROB	1467353	n/a	LTP354	ltpFR2	20	n/a	n/a	n/a	5	18	3	9	6
718.02978515625	n/a	PROB	1470525	n/a	LTP354	ltpFR2	20	n/a	n/a	n/a	5	11	2	1	8
719.263671875	n/a	PROB	1473052	n/a	LTP354	ltpFR2	20	n/a	n/a	n/a	5	23	9	5	9
720.69580078125	n/a	PROB	1475985	n/a	LTP354	ltpFR2	20	n/a	n/a	n/a	5	15	5	5	5
721.69482421875	n/a	PROB	1478031	n/a	LTP354	ltpFR2	20	n/a	n/a	n/a	5	15	9	5	1
722.66162109375	n/a	PROB	1480011	n/a	LTP354	ltpFR2	20	n/a	n/a	n/a	5	6	1	1	4
723.87744140625	n/a	PROB	1482501	n/a	LTP354	ltpFR2	20	n/a	n/a	n/a	5	12	3	1	8
725.29443359375	n/a	PROB	1485403	n/a	LTP354	ltpFR2	20	n/a	n/a	n/a	5	12	7	2	3
726.42626953125	n/a	PROB	1487721	n/a	LTP354	ltpFR2	20	n/a	n/a	n/a	5	23	8	9	6
728.2763671875	n/a	PROB	1491510	n/a	LTP354	ltpFR2	20	n/a	n/a	n/a	5	10	5	3	2
729.76513671875	n/a	STOP	1494559	n/a	LTP354	ltpFR2	20	n/a	n/a	n/a	5	n/a	n/a	n/a	n/a
730.82421875	n/a	WORD	1496728	wordpools/wasnorm_wordpool_576.txt	LTP354	ltpFR2	20	3	GRAVE	658	n/a	n/a	0	0	0
733.38916015625	n/a	WORD	1501981	wordpools/wasnorm_wordpool_576.txt	LTP354	ltpFR2	20	3	HORNET	718	n/a	n/a	0	0	0
736.154296875	n/a	WORD	1507644	wordpools/wasnorm_wordpool_576.txt	LTP354	ltpFR2	20	3	COSTUME	383	n/a	n/a	0	0	0
738.953125	n/a	WORD	1513376	wordpools/wasnorm_wordpool_576.txt	LTP354	ltpFR2	20	3	CABBAGE	210	n/a	n/a	0	0	0
741.501953125	n/a	WORD	1518596	wordpools/wasnorm_wordpool_576.txt	LTP354	ltpFR2	20	3	MILDEW	893	n/a	n/a	0	0	0
744.16796875	n/a	WORD	1524056	wordpools/wasnorm_wordpool_576.txt	LTP354	ltpFR2	20	3	PRINCE	1124	n/a	n/a	0	0	0
746.9326171875	n/a	WORD	1529718	wordpools/wasnorm_wordpool_576.txt	LTP354	ltpFR2	20	3	CITRUS	313	n/a	n/a	0	0	0
749.46484375	n/a	WORD	1534904	wordpools/wasnorm_wordpool_576.txt	LTP354	ltpFR2	20	3	RAZOR	1171	n/a	n/a	0	0	0
752.19775390625	n/a	WORD	1540501	wordpools/wasnorm_wordpool_576.txt	LTP354	ltpFR2	20	3	SOFTBALL	1343	n/a	n/a	0	0	0
754.69580078125	n/a	WORD	1545617	wordpools/wasnorm_wordpool_576.txt	LTP354	ltpFR2	20	3	PIMPLE	1071	n/a	n/a	0	0	0
757.1787109375	n/a	WORD	1550702	wordpools/wasnorm_wordpool_576.txt	LTP354	ltpFR2	20	3	BREAST	171	n/a	n/a	0	0	0
759.87646484375	n/a	WORD	1556227	wordpools/wasnorm_wordpool_576.txt	LTP354	ltpFR2	20	3	YACHT	1629	n/a	n/a	0	0	0
762.50830078125	n/a	WORD	1561617	wordpools/wasnorm_wordpool_576.txt	LTP354	ltpFR2	20	3	SHORTS	1293	n/a	n/a	0	0	0
765.14013671875	n/a	WORD	1567007	wordpools/wasnorm_wordpool_576.txt	LTP354	ltpFR2	20	3	POLICE	1098	n/a	n/a	0	0	0
767.80615234375	n/a	WORD	1572467	wordpools/wasnorm_wordpool_576.txt	LTP354	ltpFR2	20	3	BADGE	68	n/a	n/a	0	0	0
770.337890625	n/a	WORD	1577652	wordpools/wasnorm_wordpool_576.txt	LTP354	ltpFR2	20	3	FLIPPER	580	n/a	n/a	0	0	0
773.1201171875	n/a	WORD	1583350	wordpools/wasnorm_wordpool_576.txt	LTP354	ltpFR2	20	3	TWISTER	1530	n/a	n/a	0	0	0
775.60205078125	n/a	WORD	1588433	wordpools/wasnorm_wordpool_576.txt	LTP354	ltpFR2	20	3	LIZARD	834	n/a	n/a	0	0	0
778.18505859375	n/a	WORD	1593723	wordpools/wasnorm_wordpool_576.txt	LTP354	ltpFR2	20	3	CROWN	415	n/a	n/a	0	0	0
780.81689453125	n/a	WORD	1599113	wordpools/wasnorm_wordpool_576.txt	LTP354	ltpFR2	20	3	PLAID	1080	n/a	n/a	0	0	0
783.28271484375	n/a	WORD	1604163	wordpools/wasnorm_wordpool_576.txt	LTP354	ltpFR2	20	3	NIGHTGOWN	953	n/a	n/a	0	0	0
785.7138671875	n/a	WORD	1609142	wordpools/wasnorm_wordpool_576.txt	LTP354	ltpFR2	20	3	COBRA	336	n/a	n/a	0	0	0
788.16259765625	n/a	WORD	1614157	wordpools/wasnorm_wordpool_576.txt	LTP354	ltpFR2	20	3	FRECKLE	602	n/a	n/a	0	0	0
790.611328125	n/a	WORD	1619172	wordpools/wasnorm_wordpool_576.txt	LTP354	ltpFR2	20	3	EGYPT	519	n/a	n/a	0	0	0
792.228515625	n/a	START	1622484	n/a	LTP354	ltpFR2	20	n/a	n/a	n/a	6	n/a	n/a	n/a	n/a
793.392578125	n/a	DISTRACTOR	1624868	n/a	LTP354	ltpFR2	20	3	n/a	n/a	n/a	n/a	0	0	0
793.41064453125	n/a	PROB	1624905	n/a	LTP354	ltpFR2	20	n/a	n/a	n/a	6	22	8	7	7
795.34228515625	n/a	PROB	1628861	n/a	LTP354	ltpFR2	20	n/a	n/a	n/a	6	19	9	6	4
796.45849609375	n/a	PROB	1631147	n/a	LTP354	ltpFR2	20	n/a	n/a	n/a	6	23	6	8	9
797.80810546875	n/a	PROB	1633911	n/a	LTP354	ltpFR2	20	n/a	n/a	n/a	6	16	7	6	3
798.8740234375	n/a	PROB	1636094	n/a	LTP354	ltpFR2	20	n/a	n/a	n/a	6	9	1	4	4
800.857421875	n/a	PROB	1640156	n/a	LTP354	ltpFR2	20	n/a	n/a	n/a	6	13	2	7	4
803.572265625	n/a	PROB	1645716	n/a	LTP354	ltpFR2	20	n/a	n/a	n/a	6	12	1	5	6
804.55517578125	n/a	PROB	1647729	n/a	LTP354	ltpFR2	20	n/a	n/a	n/a	6	10	1	3	6
805.587890625	n/a	PROB	1649844	n/a	LTP354	ltpFR2	20	n/a	n/a	n/a	6	18	8	2	6
807.1708984375	n/a	PROB	1653086	n/a	LTP354	ltpFR2	20	n/a	n/a	n/a	6	21	7	8	6
811.0517578125	n/a	PROB	1661034	n/a	LTP354	ltpFR2	20	n/a	n/a	n/a	6	12	2	5	5
812.11767578125	n/a	PROB	1663217	n/a	LTP354	ltpFR2	20	n/a	n/a	n/a	6	8	1	5	2
813.28466796875	n/a	PROB	1665607	n/a	LTP354	ltpFR2	20	n/a	n/a	n/a	6	24	9	7	8
814.36669921875	n/a	PROB	1667823	n/a	LTP354	ltpFR2	20	n/a	n/a	n/a	6	13	6	6	1
815.21484375	n/a	STOP	1669560	n/a	LTP354	ltpFR2	20	n/a	n/a	n/a	6	n/a	n/a	n/a	n/a
818.03271484375	n/a	REC_START	1675331	n/a	LTP354	ltpFR2	20	3	n/a	n/a	n/a	n/a	0	0	0
819.3154296875	n/a	REC_WORD	1677958	wordpools/wasnorm_wordpool_576.txt	LTP354	ltpFR2	20	3	CITRUS	313	n/a	n/a	0	0	0
820.3154296875	n/a	REC_WORD_VV	1680006	wordpools/wasnorm_wordpool_576.txt	LTP354	ltpFR2	20	3	<>	-1	n/a	n/a	0	0	0
822.45166015625	n/a	REC_WORD	1684381	wordpools/wasnorm_wordpool_576.txt	LTP354	ltpFR2	20	3	LIZARD	834	n/a	n/a	0	0	0
823.24462890625	n/a	REC_WORD	1686005	wordpools/wasnorm_wordpool_576.txt	LTP354	ltpFR2	20	3	EGYPT	519	n/a	n/a	0	0	0
824.1875	n/a	REC_WORD	1687936	wordpools/wasnorm_wordpool_576.txt	LTP354	ltpFR2	20	3	PRINCE	1124	n/a	n/a	0	0	0
828.2412109375	n/a	REC_WORD	1696238	wordpools/wasnorm_wordpool_576.txt	LTP354	ltpFR2	20	3	CROWN	415	n/a	n/a	0	0	0
831.8271484375	n/a	REC_WORD	1703582	wordpools/wasnorm_wordpool_576.txt	LTP354	ltpFR2	20	3	HORNET	718	n/a	n/a	0	0	0
832.84326171875	n/a	REC_WORD	1705663	wordpools/wasnorm_wordpool_576.txt	LTP354	ltpFR2	20	3	GRAVE	658	n/a	n/a	0	0	0
861.1884765625	n/a	REC_WORD	1763714	wordpools/wasnorm_wordpool_576.txt	LTP354	ltpFR2	20	3	CABBAGE	210	n/a	n/a	0	0	0
862.26513671875	n/a	REC_WORD	1765919	wordpools/wasnorm_wordpool_576.txt	LTP354	ltpFR2	20	3	COSTUME	383	n/a	n/a	0	0	0
863.37109375	n/a	REC_WORD	1768184	wordpools/wasnorm_wordpool_576.txt	LTP354	ltpFR2	20	3	MILDEW	893	n/a	n/a	0	0	0
866.56396484375	n/a	REC_WORD	1774723	wordpools/wasnorm_wordpool_576.txt	LTP354	ltpFR2	20	3	PRINCE	1124	n/a	n/a	0	0	0
889.7705078125	n/a	REC_WORD	1822250	wordpools/wasnorm_wordpool_576.txt	LTP354	ltpFR2	20	3	COWBOY	395	n/a	n/a	0	0	0
908.455078125	n/a	DISTRACTOR	1860516	n/a	LTP354	ltpFR2	20	4	n/a	n/a	n/a	n/a	0	0	0
908.455078125	n/a	START	1860516	n/a	LTP354	ltpFR2	20	n/a	n/a	n/a	7	n/a	n/a	n/a	n/a
908.470703125	n/a	PROB	1860548	n/a	LTP354	ltpFR2	20	n/a	n/a	n/a	7	12	1	5	6
910.23779296875	n/a	PROB	1864167	n/a	LTP354	ltpFR2	20	n/a	n/a	n/a	7	21	9	8	4
911.65283203125	n/a	PROB	1867065	n/a	LTP354	ltpFR2	20	n/a	n/a	n/a	7	12	1	4	7
912.685546875	n/a	PROB	1869180	n/a	LTP354	ltpFR2	20	n/a	n/a	n/a	7	19	9	8	2
913.95166015625	n/a	PROB	1871773	n/a	LTP354	ltpFR2	20	n/a	n/a	n/a	7	10	5	4	1
914.98486328125	n/a	PROB	1873889	n/a	LTP354	ltpFR2	20	n/a	n/a	n/a	7	21	7	9	5
916.53369140625	n/a	PROB	1877061	n/a	LTP354	ltpFR2	20	n/a	n/a	n/a	7	15	5	8	2
917.966796875	n/a	PROB	1879996	n/a	LTP354	ltpFR2	20	n/a	n/a	n/a	7	15	8	5	2
919.25048828125	n/a	PROB	1882625	n/a	LTP354	ltpFR2	20	n/a	n/a	n/a	7	14	3	3	8
920.54833984375	n/a	PROB	1885283	n/a	LTP354	ltpFR2	20	n/a	n/a	n/a	7	9	3	4	2
922.54736328125	n/a	PROB	1889377	n/a	LTP354	ltpFR2	20	n/a	n/a	n/a	7	14	9	2	3
923.96337890625	n/a	PROB	1892277	n/a	LTP354	ltpFR2	20	n/a	n/a	n/a	7	20	7	6	7
926.37939453125	n/a	PROB	1897225	n/a	LTP354	ltpFR2	20	n/a	n/a	n/a	7	14	3	3	8
927.54541015625	n/a	PROB	1899613	n/a	LTP354	ltpFR2	20	n/a	n/a	n/a	7	16	6	7	3
928.59521484375	n/a	PROB	1901763	n/a	LTP354	ltpFR2	20	n/a	n/a	n/a	7	18	8	3	7
929.62841796875	n/a	PROB	1903879	n/a	LTP354	ltpFR2	20	n/a	n/a	n/a	7	18	7	7	4
930.71044921875	n/a	PROB	1906095	n/a	LTP354	ltpFR2	20	n/a	n/a	n/a	7	18	8	6	4
931.62109375	n/a	STOP	1907960	n/a	LTP354	ltpFR2	20	n/a	n/a	n/a	7	n/a	n/a	n/a	n/a
933.39208984375	n/a	WORD	1911587	wordpools/wasnorm_wordpool_576.txt	LTP354	ltpFR2	20	4	APRON	35	n/a	n/a	0	0	0
935.89111328125	n/a	WORD	1916705	wordpools/wasnorm_wordpool_576.txt	LTP354	ltpFR2	20	4	HATCHET	691	n/a	n/a	0	0	0
938.6728515625	n/a	WORD	1922402	wordpools/wasnorm_wordpool_576.txt	LTP354	ltpFR2	20	4	EXPERT	543	n/a	n/a	0	0	0
941.40576171875	n/a	WORD	1927999	wordpools/wasnorm_wordpool_576.txt	LTP354	ltpFR2	20	4	SLIME	1327	n/a	n/a	0	0	0
944.23876953125	n/a	WORD	1933801	wordpools/wasnorm_wordpool_576.txt	LTP354	ltpFR2	20	4	SCALLOP	1242	n/a	n/a	0	0	0
946.8857421875	n/a	WORD	1939222	wordpools/wasnorm_wordpool_576.txt	LTP354	ltpFR2	20	4	TABLE	1426	n/a	n/a	0	0	0
949.5185546875	n/a	WORD	1944614	wordpools/wasnorm_wordpool_576.txt	LTP354	ltpFR2	20	4	POSSUM	1112	n/a	n/a	0	0	0
952.1005859375	n/a	WORD	1949902	wordpools/wasnorm_wordpool_576.txt	LTP354	ltpFR2	20	4	JAPAN	749	n/a	n/a	0	0	0
954.79833984375	n/a	WORD	1955427	wordpools/wasnorm_wordpool_576.txt	LTP354	ltpFR2	20	4	ITEM	746	n/a	n/a	0	0	0
957.2822265625	n/a	WORD	1960514	wordpools/wasnorm_wordpool_576.txt	LTP354	ltpFR2	20	4	SHELF	1280	n/a	n/a	0	0	0
959.73046875	n/a	WORD	1965528	wordpools/wasnorm_wordpool_576.txt	LTP354	ltpFR2	20	4	FILM	565	n/a	n/a	0	0	0
962.54541015625	n/a	WORD	1971293	wordpools/wasnorm_wordpool_576.txt	LTP354	ltpFR2	20	4	LAMP	798	n/a	n/a	0	0	0
965.1953125	n/a	WORD	1976720	wordpools/wasnorm_wordpool_576.txt	LTP354	ltpFR2	20	4	MASK	876	n/a	n/a	0	0	0
967.64306640625	n/a	WORD	1981733	wordpools/wasnorm_wordpool_576.txt	LTP354	ltpFR2	20	4	KITCHEN	778	n/a	n/a	0	0	0
970.408203125	n/a	WORD	1987396	wordpools/wasnorm_wordpool_576.txt	LTP354	ltpFR2	20	4	FLASHLIGHT	575	n/a	n/a	0	0	0
973.05712890625	n/a	WORD	1992821	wordpools/wasnorm_wordpool_576.txt	LTP354	ltpFR2	20	4	DOLPHIN	483	n/a	n/a	0	0	0
975.8056640625	n/a	WORD	1998450	wordpools/wasnorm_wordpool_576.txt	LTP354	ltpFR2	20	4	BROTHER	179	n/a	n/a	0	0	0
978.32080078125	n/a	WORD	2003601	wordpools/wasnorm_wordpool_576.txt	LTP354	ltpFR2	20	4	SISTER	1312	n/a	n/a	0	0	0
980.7529296875	n/a	WORD	2008582	wordpools/wasnorm_wordpool_576.txt	LTP354	ltpFR2	20	4	GOBLIN	645	n/a	n/a	0	0	0
983.302734375	n/a	WORD	2013804	wordpools/wasnorm_wordpool_576.txt	LTP354	ltpFR2	20	4	QUARTER	1148	n/a	n/a	0	0	0
985.80029296875	n/a	WORD	2018919	wordpools/wasnorm_wordpool_576.txt	LTP354	ltpFR2	20	4	COCOON	339	n/a	n/a	0	0	0
988.33251953125	n/a	WORD	2024105	wordpools/wasnorm_wordpool_576.txt	LTP354	ltpFR2	20	4	CHAUFFEUR	283	n/a	n/a	0	0	0
990.9814453125	n/a	WORD	2029530	wordpools/wasnorm_wordpool_576.txt	LTP354	ltpFR2	20	4	BUGGY	188	n/a	n/a	0	0	0
993.79736328125	n/a	WORD	2035297	wordpools/wasnorm_wordpool_576.txt	LTP354	ltpFR2	20	4	SUBWAY	1400	n/a	n/a	0	0	0
995.4130859375	n/a	START	2038606	n/a	LTP354	ltpFR2	20	n/a	n/a	n/a	8	n/a	n/a	n/a	n/a
996.4111328125	n/a	DISTRACTOR	2040650	n/a	LTP354	ltpFR2	20	4	n/a	n/a	n/a	n/a	0	0	0
996.42919921875	n/a	PROB	2040687	n/a	LTP354	ltpFR2	20	n/a	n/a	n/a	8	19	4	8	7
998.9443359375	n/a	PROB	2045838	n/a	LTP354	ltpFR2	20	n/a	n/a	n/a	8	13	2	3	8
999.97705078125	n/a	PROB	2047953	n/a	LTP354	ltpFR2	20	n/a	n/a	n/a	8	16	2	7	7
1000.9931640625	n/a	PROB	2050034	n/a	LTP354	ltpFR2	20	n/a	n/a	n/a	8	17	7	7	3
1002.3759765625	n/a	PROB	2052866	n/a	LTP354	ltpFR2	20	n/a	n/a	n/a	8	24	8	7	9
1003.5751953125	n/a	PROB	2055322	n/a	LTP354	ltpFR2	20	n/a	n/a	n/a	8	19	9	3	7
1004.6748046875	n/a	PROB	2057574	n/a	LTP354	ltpFR2	20	n/a	n/a	n/a	8	16	7	3	6
1005.7080078125	n/a	PROB	2059690	n/a	LTP354	ltpFR2	20	n/a	n/a	n/a	8	26	9	8	9
1007.95703125	n/a	PROB	2064296	n/a	LTP354	ltpFR2	20	n/a	n/a	n/a	8	21	8	9	4
1010.43896484375	n/a	PROB	2069379	n/a	LTP354	ltpFR2	20	n/a	n/a	n/a	8	14	1	6	7
1011.45458984375	n/a	PROB	2071459	n/a	LTP354	ltpFR2	20	n/a	n/a	n/a	8	11	7	2	2
1012.5205078125	n/a	PROB	2073642	n/a	LTP354	ltpFR2	20	n/a	n/a	n/a	8	22	4	9	9
1013.88671875	n/a	PROB	2076440	n/a	LTP354	ltpFR2	20	n/a	n/a	n/a	8	21	9	9	3
1015.45263671875	n/a	PROB	2079647	n/a	LTP354	ltpFR2	20	n/a	n/a	n/a	8	20	6	5	9
1017.03564453125	n/a	PROB	2082889	n/a	LTP354	ltpFR2	20	n/a	n/a	n/a	8	18	7	3	8
1018.03759765625	n/a	STOP	2084941	n/a	LTP354	ltpFR2	20	n/a	n/a	n/a	8	n/a	n/a	n/a	n/a
1021.25146484375	n/a	REC_START	2091523	n/a	LTP354	ltpFR2	20	4	n/a	n/a	n/a	n/a	0	0	0
1023.21240234375	n/a	REC_WORD	2095539	wordpools/wasnorm_wordpool_576.txt	LTP354	ltpFR2	20	4	CHAUFFEUR	283	n/a	n/a	0	0	0
1026.51416015625	n/a	REC_WORD	2102301	wordpools/wasnorm_wordpool_576.txt	LTP354	ltpFR2	20	4	BROTHER	179	n/a	n/a	0	0	0
1027.05810546875	n/a	REC_WORD	2103415	wordpools/wasnorm_wordpool_576.txt	LTP354	ltpFR2	20	4	SISTER	1312	n/a	n/a	0	0	0
1028.05810546875	n/a	REC_WORD_VV	2105463	wordpools/wasnorm_wordpool_576.txt	LTP354	ltpFR2	20	4	<>	-1	n/a	n/a	0	0	0
1028.9130859375	n/a	REC_WORD	2107214	wordpools/wasnorm_wordpool_576.txt	LTP354	ltpFR2	20	4	GOBLIN	645	n/a	n/a	0	0	0
1036.45703125	n/a	REC_WORD	2122664	wordpools/wasnorm_wordpool_576.txt	LTP354	ltpFR2	20	4	CHAUFFEUR	283	n/a	n/a	0	0	0
1038.08984375	n/a	REC_WORD	2126008	wordpools/wasnorm_wordpool_576.txt	LTP354	ltpFR2	20	4	YACHT	1629	n/a	n/a	0	0	0
1043.20458984375	n/a	REC_WORD	2136483	wordpools/wasnorm_wordpool_576.txt	LTP354	ltpFR2	20	4	BREAST	171	n/a	n/a	0	0	0
1044.6005859375	n/a	REC_WORD	2139342	wordpools/wasnorm_wordpool_576.txt	LTP354	ltpFR2	20	4	LIZARD	834	n/a	n/a	0	0	0
1094.38330078125	n/a	REC_WORD	2241297	wordpools/wasnorm_wordpool_576.txt	LTP354	ltpFR2	20	4	PLIERS	1089	n/a	n/a	0	0	0
1111.6728515625	n/a	DISTRACTOR	2276706	n/a	LTP354	ltpFR2	20	5	n/a	n/a	n/a	n/a	0	0	0
1111.673828125	n/a	START	2276708	n/a	LTP354	ltpFR2	20	n/a	n/a	n/a	9	n/a	n/a	n/a	n/a
1111.689453125	n/a	PROB	2276740	n/a	LTP354	ltpFR2	20	n/a	n/a	n/a	9	11	3	2	6
1113.5556640625	n/a	PROB	2280562	n/a	LTP354	ltpFR2	20	n/a	n/a	n/a	9	16	6	5	5
1114.8544921875	n/a	PROB	2283222	n/a	LTP354	ltpFR2	20	n/a	n/a	n/a	9	19	9	6	4
1115.8544921875	n/a	PROB	2285270	n/a	LTP354	ltpFR2	20	n/a	n/a	n/a	9	15	3	4	8
1118.103515625	n/a	PROB	2289876	n/a	LTP354	ltpFR2	20	n/a	n/a	n/a	9	10	8	1	1
1119.25341796875	n/a	PROB	2292231	n/a	LTP354	ltpFR2	20	n/a	n/a	n/a	9	10	4	4	2
1120.33544921875	n/a	PROB	2294447	n/a	LTP354	ltpFR2	20	n/a	n/a	n/a	9	17	6	9	2
1122.46826171875	n/a	PROB	2298815	n/a	LTP354	ltpFR2	20	n/a	n/a	n/a	9	15	8	1	6
1124.201171875	n/a	PROB	2302364	n/a	LTP354	ltpFR2	20	n/a	n/a	n/a	9	15	7	4	4
1128.0322265625	n/a	PROB	2310210	n/a	LTP354	ltpFR2	20	n/a	n/a	n/a	9	12	8	1	3
1129.23193359375	n/a	PROB	2312667	n/a	LTP354	ltpFR2	20	n/a	n/a	n/a	9	16	4	8	4
1130.447265625	n/a	PROB	2315156	n/a	LTP354	ltpFR2	20	n/a	n/a	n/a	9	18	4	5	9
1131.712890625	n/a	PROB	2317748	n/a	LTP354	ltpFR2	20	n/a	n/a	n/a	9	23	9	5	9
1133.22998046875	n/a	PROB	2320855	n/a	LTP354	ltpFR2	20	n/a	n/a	n/a	9	17	5	8	4
1134.85302734375	n/a	STOP	2324179	n/a	LTP354	ltpFR2	20	n/a	n/a	n/a	9	n/a	n/a	n/a	n/a
1136.578125	n/a	WORD	2327712	wordpools/wasnorm_wordpool_576.txt	LTP354	ltpFR2	20	5	GRAPE	654	n/a	n/a	0	0	0
1139.2939453125	n/a	WORD	2333274	wordpools/wasnorm_wordpool_576.txt	LTP354	ltpFR2	20	5	PARSLEY	1016	n/a	n/a	0	0	0
1142.05859375	n/a	WORD	2338936	wordpools/wasnorm_wordpool_576.txt	LTP354	ltpFR2	20	5	CANDY	230	n/a	n/a	0	0	0
1144.8408203125	n/a	WORD	2344634	wordpools/wasnorm_wordpool_576.txt	LTP354	ltpFR2	20	5	CHURCH	307	n/a	n/a	0	0	0
1147.57275390625	n/a	WORD	2350229	wordpools/wasnorm_wordpool_576.txt	LTP354	ltpFR2	20	5	CHILD	299	n/a	n/a	0	0	0
1150.23828125	n/a	WORD	2355688	wordpools/wasnorm_wordpool_576.txt	LTP354	ltpFR2	20	5	CASKET	255	n/a	n/a	0	0	0
1153.05322265625	n/a	WORD	2361453	wordpools/wasnorm_wordpool_576.txt	LTP354	ltpFR2	20	5	CHAPEL	280	n/a	n/a	0	0	0
1155.78515625	n/a	WORD	2367048	wordpools/wasnorm_wordpool_576.txt	LTP354	ltpFR2	20	5	CANYON	235	n/a	n/a	0	0	0
1158.2353515625	n/a	WORD	2372066	wordpools/wasnorm_wordpool_576.txt	LTP354	ltpFR2	20	5	PERMIT	1051	n/a	n/a	0	0	0
1160.69921875	n/a	WORD	2377112	wordpools/wasnorm_wordpool_576.txt	LTP354	ltpFR2	20	5	ATLAS	53	n/a	n/a	0	0	0
1163.34814453125	n/a	WORD	2382537	wordpools/wasnorm_wordpool_576.txt	LTP354	ltpFR2	20	5	AWARD	63	n/a	n/a	0	0	0
1165.8642578125	n/a	WORD	2387690	wordpools/wasnorm_wordpool_576.txt	LTP354	ltpFR2	20	5	HAND	683	n/a	n/a	0	0	0
1168.56201171875	n/a	WORD	2393215	wordpools/wasnorm_wordpool_576.txt	LTP354	ltpFR2	20	5	ROOSTER	1209	n/a	n/a	0	0	0
1171.09375	n/a	WORD	2398400	wordpools/wasnorm_wordpool_576.txt	LTP354	ltpFR2	20	5	VICTIM	1562	n/a	n/a	0	0	0
1173.69287109375	n/a	WORD	2403723	wordpools/wasnorm_wordpool_576.txt	LTP354	ltpFR2	20	5	MARROW	872	n/a	n/a	0	0	0
1176.1416015625	n/a	WORD	2408738	wordpools/wasnorm_wordpool_576.txt	LTP354	ltpFR2	20	5	BODY	145	n/a	n/a	0	0	0
1178.890625	n/a	WORD	2414368	wordpools/wasnorm_wordpool_576.txt	LTP354	ltpFR2	20	5	VAGRANT	1544	n/a	n/a	0	0	0
1181.47265625	n/a	WORD	2419656	wordpools/wasnorm_wordpool_576.txt	LTP354	ltpFR2	20	5	COIN	343	n/a	n/a	0	0	0
1183.92138671875	n/a	WORD	2424671	wordpools/wasnorm_wordpool_576.txt	LTP354	ltpFR2	20	5	BANK	83	n/a	n/a	0	0	0
1186.45361328125	n/a	WORD	2429857	wordpools/wasnorm_wordpool_576.txt	LTP354	ltpFR2	20	5	LUGGAGE	847	n/a	n/a	0	0	0
1189.08544921875	n/a	WORD	2435247	wordpools/wasnorm_wordpool_576.txt	LTP354	ltpFR2	20	5	BEAVER	109	n/a	n/a	0	0	0
1191.55126953125	n/a	WORD	2440297	wordpools/wasnorm_wordpool_576.txt	LTP354	ltpFR2	20	5	SUMMIT	1405	n/a	n/a	0	0	0
1194.150390625	n/a	WORD	2445620	wordpools/wasnorm_wordpool_576.txt	LTP354	ltpFR2	20	5	MOTEL	919	n/a	n/a	0	0	0
1196.58203125	n/a	WORD	2450600	wordpools/wasnorm_wordpool_576.txt	LTP354	ltpFR2	20	5	CUPBOARD	425	n/a	n/a	0	0	0
1198.19921875	n/a	START	2453912	n/a	LTP354	ltpFR2	20	n/a	n/a	n/a	10	n/a	n/a	n/a	n/a
1199.3349609375	n/a	DISTRACTOR	2456238	n/a	LTP354	ltpFR2	20	5	n/a	n/a	n/a	n/a	0	0	0
1199.34716796875	n/a	PROB	2456263	n/a	LTP354	ltpFR2	20	n/a	n/a	n/a	10	18	8	6	4
1201.4296875	n/a	PROB	2460528	n/a	LTP354	ltpFR2	20	n/a	n/a	n/a	10	15	6	6	3
1202.49609375	n/a	PROB	2462712	n/a	LTP354	ltpFR2	20	n/a	n/a	n/a	10	18	6	3	9
1205.4609375	n/a	PROB	2468784	n/a	LTP354	ltpFR2	20	n/a	n/a	n/a	10	9	6	2	1
1206.876953125	n/a	PROB	2471684	n/a	LTP354	ltpFR2	20	n/a	n/a	n/a	10	25	7	9	9
1209.24365234375	n/a	PROB	2476531	n/a	LTP354	ltpFR2	20	n/a	n/a	n/a	10	16	2	6	6
1211.259765625	n/a	PROB	2480660	n/a	LTP354	ltpFR2	20	n/a	n/a	n/a	10	8	3	4	1
1212.390625	n/a	PROB	2482976	n/a	LTP354	ltpFR2	20	n/a	n/a	n/a	10	6	2	3	1
1213.34033203125	n/a	PROB	2484921	n/a	LTP354	ltpFR2	20	n/a	n/a	n/a	10	18	6	7	5
1215.75634765625	n/a	PROB	2489869	n/a	LTP354	ltpFR2	20	n/a	n/a	n/a	10	13	3	4	6
1217.10546875	n/a	PROB	2492632	n/a	LTP354	ltpFR2	20	n/a	n/a	n/a	10	11	3	5	3
1219.404296875	n/a	PROB	2497340	n/a	LTP354	ltpFR2	20	n/a	n/a	n/a	10	17	3	7	7
1220.84521484375	n/a	STOP	2500291	n/a	LTP354	ltpFR2	20	n/a	n/a	n/a	10	n/a	n/a	n/a	n/a
1224.00244140625	n/a	REC_START	2506757	n/a	LTP354	ltpFR2	20	5	n/a	n/a	n/a	n/a	0	0	0
1226.01416015625	n/a	REC_WORD	2510877	wordpools/wasnorm_wordpool_576.txt	LTP354	ltpFR2	20	5	SUMMIT	1405	n/a	n/a	0	0	0
1266.64306640625	n/a	REC_WORD	2594085	wordpools/wasnorm_wordpool_576.txt	LTP354	ltpFR2	20	5	GRAPE	654	n/a	n/a	0	0	0
1268.9306640625	n/a	REC_WORD	2598770	wordpools/wasnorm_wordpool_576.txt	LTP354	ltpFR2	20	5	CANDY	230	n/a	n/a	0	0	0
1271.0439453125	n/a	REC_WORD	2603098	wordpools/wasnorm_wordpool_576.txt	LTP354	ltpFR2	20	5	CHILD	299	n/a	n/a	0	0	0
1273.390625	n/a	REC_WORD	2607904	wordpools/wasnorm_wordpool_576.txt	LTP354	ltpFR2	20	5	VICTIM	1562	n/a	n/a	0	0	0
1275.81884765625	n/a	REC_WORD	2612877	wordpools/wasnorm_wordpool_576.txt	LTP354	ltpFR2	20	5	CHURCH	307	n/a	n/a	0	0	0
1276.630859375	n/a	REC_WORD	2614540	wordpools/wasnorm_wordpool_576.txt	LTP354	ltpFR2	20	5	CHAPEL	280	n/a	n/a	0	0	0
1284.41748046875	n/a	REC_WORD	2630487	wordpools/wasnorm_wordpool_576.txt	LTP354	ltpFR2	20	5	PARSLEY	1016	n/a	n/a	0	0	0
1314.44140625	n/a	WORD	2691976	wordpools/wasnorm_wordpool_576.txt	LTP354	ltpFR2	20	6	CONCERT	360	n/a	n/a	0	0	0
1316.97314453125	n/a	WORD	2697161	wordpools/wasnorm_wordpool_576.txt	LTP354	ltpFR2	20	6	MARINE	869	n/a	n/a	0	0	0
1319.47216796875	n/a	WORD	2702279	wordpools/wasnorm_wordpool_576.txt	LTP354	ltpFR2	20	6	WAITRESS	1581	n/a	n/a	0	0	0
1322.2890625	n/a	WORD	2708048	wordpools/wasnorm_wordpool_576.txt	LTP354	ltpFR2	20	6	CAFE	216	n/a	n/a	0	0	0
1324.72021484375	n/a	WORD	2713027	wordpools/wasnorm_wordpool_576.txt	LTP354	ltpFR2	20	6	BARLEY	88	n/a	n/a	0	0	0
1327.55224609375	n/a	WORD	2718827	wordpools/wasnorm_wordpool_576.txt	LTP354	ltpFR2	20	6	HOUND	724	n/a	n/a	0	0	0
1330.06689453125	n/a	WORD	2723977	wordpools/wasnorm_wordpool_576.txt	LTP354	ltpFR2	20	6	TUTU	1524	n/a	n/a	0	0	0
1332.60009765625	n/a	WORD	2729165	wordpools/wasnorm_wordpool_576.txt	LTP354	ltpFR2	20	6	SPOON	1357	n/a	n/a	0	0	0
1335.11474609375	n/a	WORD	2734315	wordpools/wasnorm_wordpool_576.txt	LTP354	ltpFR2	20	6	BOX	159	n/a	n/a	0	0	0
1337.880859375	n/a	WORD	2739980	wordpools/wasnorm_wordpool_576.txt	LTP354	ltpFR2	20	6	MONEY	908	n/a	n/a	0	0	0
1340.595703125	n/a	WORD	2745540	wordpools/wasnorm_wordpool_576.txt	LTP354	ltpFR2	20	6	FLAG	573	n/a	n/a	0	0	0
1343.07763671875	n/a	WORD	2750623	wordpools/wasnorm_wordpool_576.txt	LTP354	ltpFR2	20	6	PREACHER	1119	n/a	n/a	0	0	0
1345.7265625	n/a	WORD	2756048	wordpools/wasnorm_wordpool_576.txt	LTP354	ltpFR2	20	6	ONION	977	n/a	n/a	0	0	0
1348.392578125	n/a	WORD	2761508	wordpools/wasnorm_wordpool_576.txt	LTP354	ltpFR2	20	6	STALLION	1369	n/a	n/a	0	0	0
1351.17529296875	n/a	WORD	2767207	wordpools/wasnorm_wordpool_576.txt	LTP354	ltpFR2	20	6	HORSE	719	n/a	n/a	0	0	0
1353.88916015625	n/a	WORD	2772765	wordpools/wasnorm_wordpool_576.txt	LTP354	ltpFR2	20	6	SHOVEL	1295	n/a	n/a	0	0	0
1356.48828125	n/a	WORD	2778088	wordpools/wasnorm_wordpool_576.txt	LTP354	ltpFR2	20	6	CREVICE	405	n/a	n/a	0	0	0
1359.154296875	n/a	WORD	2783548	wordpools/wasnorm_wordpool_576.txt	LTP354	ltpFR2	20	6	LABEL	790	n/a	n/a	0	0	0
1361.6689453125	n/a	WORD	2788698	wordpools/wasnorm_wordpool_576.txt	LTP354	ltpFR2	20	6	GRILL	661	n/a	n/a	0	0	0
1364.1337890625	n/a	WORD	2793746	wordpools/wasnorm_wordpool_576.txt	LTP354	ltpFR2	20	6	RAFT	1159	n/a	n/a	0	0	0
1366.73291015625	n/a	WORD	2799069	wordpools/wasnorm_wordpool_576.txt	LTP354	ltpFR2	20	6	CROSS	413	n/a	n/a	0	0	0
1369.5146484375	n/a	WORD	2804766	wordpools/wasnorm_wordpool_576.txt	LTP354	ltpFR2	20	6	UNCLE	1536	n/a	n/a	0	0	0
1372.146484375	n/a	WORD	2810156	wordpools/wasnorm_wordpool_576.txt	LTP354	ltpFR2	20	6	SNACK	1331	n/a	n/a	0	0	0
1374.7626953125	n/a	WORD	2815514	wordpools/wasnorm_wordpool_576.txt	LTP354	ltpFR2	20	6	JUNGLE	764	n/a	n/a	0	0	0
1376.37841796875	n/a	START	2818823	n/a	LTP354	ltpFR2	20	n/a	n/a	n/a	11	n/a	n/a	n/a	n/a
1377.32666015625	n/a	DISTRACTOR	2820765	n/a	LTP354	ltpFR2	20	6	n/a	n/a	n/a	n/a	0	0	0
1377.32861328125	n/a	PROB	2820769	n/a	LTP354	ltpFR2	20	n/a	n/a	n/a	11	14	1	4	9
1379.310546875	n/a	PROB	2824828	n/a	LTP354	ltpFR2	20	n/a	n/a	n/a	11	16	5	3	8
1380.62646484375	n/a	PROB	2827523	n/a	LTP354	ltpFR2	20	n/a	n/a	n/a	11	8	1	5	2
1381.6591796875	n/a	PROB	2829638	n/a	LTP354	ltpFR2	20	n/a	n/a	n/a	11	16	7	4	5
1383.20947265625	n/a	PROB	2832813	n/a	LTP354	ltpFR2	20	n/a	n/a	n/a	11	9	4	4	1
1384.1591796875	n/a	PROB	2834758	n/a	LTP354	ltpFR2	20	n/a	n/a	n/a	11	12	1	2	9
1385.42431640625	n/a	PROB	2837349	n/a	LTP354	ltpFR2	20	n/a	n/a	n/a	11	8	2	3	3
1386.791015625	n/a	PROB	2840148	n/a	LTP354	ltpFR2	20	n/a	n/a	n/a	11	22	7	9	6
1390.02197265625	n/a	PROB	2846765	n/a	LTP354	ltpFR2	20	n/a	n/a	n/a	11	16	6	3	7
1391.05517578125	n/a	PROB	2848881	n/a	LTP354	ltpFR2	20	n/a	n/a	n/a	11	15	4	3	8
1392.63720703125	n/a	PROB	2852121	n/a	LTP354	ltpFR2	20	n/a	n/a	n/a	11	14	6	5	3
1394.287109375	n/a	PROB	2855500	n/a	LTP354	ltpFR2	20	n/a	n/a	n/a	11	19	7	3	9
1395.6689453125	n/a	PROB	2858330	n/a	LTP354	ltpFR2	20	n/a	n/a	n/a	11	5	1	1	3
1396.73486328125	n/a	PROB	2860513	n/a	LTP354	ltpFR2	20	n/a	n/a	n/a	11	13	3	1	9
1397.884765625	n/a	PROB	2862868	n/a	LTP354	ltpFR2	20	n/a	n/a	n/a	11	18	7	8	3
1399.82177734375	n/a	STOP	2866835	n/a	LTP354	ltpFR2	20	n/a	n/a	n/a	11	n/a	n/a	n/a	n/a
1402.2509765625	n/a	REC_START	2871810	n/a	LTP354	ltpFR2	20	6	n/a	n/a	n/a	n/a	0	0	0
1403.716796875	n/a	REC_WORD	2874812	wordpools/wasnorm_wordpool_576.txt	LTP354	ltpFR2	20	6	SNACK	1331	n/a	n/a	0	0	0
1406.052734375	n/a	REC_WORD	2879596	wordpools/wasnorm_wordpool_576.txt	LTP354	ltpFR2	20	6	PREACHER	1119	n/a	n/a	0	0	0
1408.94140625	n/a	REC_WORD	2885512	wordpools/wasnorm_wordpool_576.txt	LTP354	ltpFR2	20	6	HORSE	719	n/a	n/a	0	0	0
1409.82373046875	n/a	REC_WORD	2887319	wordpools/wasnorm_wordpool_576.txt	LTP354	ltpFR2	20	6	STALLION	1369	n/a	n/a	0	0	0
1418.732421875	n/a	REC_WORD	2905564	wordpools/wasnorm_wordpool_576.txt	LTP354	ltpFR2	20	6	RAFT	1159	n/a	n/a	0	0	0
1437.6396484375	n/a	REC_WORD	2944286	wordpools/wasnorm_wordpool_576.txt	LTP354	ltpFR2	20	6	BALLOON	75	n/a	n/a	0	0	0
1451.72216796875	n/a	REC_WORD	2973127	wordpools/wasnorm_wordpool_576.txt	LTP354	ltpFR2	20	6	SHOVEL	1295	n/a	n/a	0	0	0
1452.47509765625	n/a	REC_WORD	2974669	wordpools/wasnorm_wordpool_576.txt	LTP354	ltpFR2	20	6	CREVICE	405	n/a	n/a	0	0	0
1492.68896484375	n/a	WORD	3057027	wordpools/wasnorm_wordpool_576.txt	LTP354	ltpFR2	20	7	DRAWING	494	n/a	n/a	0	0	0
1495.37109375	n/a	WORD	3062520	wordpools/wasnorm_wordpool_576.txt	LTP354	ltpFR2	20	7	PORTRAIT	1111	n/a	n/a	0	0	0
1498.0029296875	n/a	WORD	3067910	wordpools/wasnorm_wordpool_576.txt	LTP354	ltpFR2	20	7	BOARD	143	n/a	n/a	0	0	0
1500.70166015625	n/a	WORD	3073437	wordpools/wasnorm_wordpool_576.txt	LTP354	ltpFR2	20	7	TUBA	1515	n/a	n/a	0	0	0
1503.5166015625	n/a	WORD	3079202	wordpools/wasnorm_wordpool_576.txt	LTP354	ltpFR2	20	7	SUNSET	1408	n/a	n/a	0	0	0
1506.28369140625	n/a	WORD	3084869	wordpools/wasnorm_wordpool_576.txt	LTP354	ltpFR2	20	7	SUPPER	1411	n/a	n/a	0	0	0
1508.96435546875	n/a	WORD	3090359	wordpools/wasnorm_wordpool_576.txt	LTP354	ltpFR2	20	7	WAITER	1580	n/a	n/a	0	0	0
1511.5634765625	n/a	WORD	3095682	wordpools/wasnorm_wordpool_576.txt	LTP354	ltpFR2	20	7	PRIMATE	1123	n/a	n/a	0	0	0
1514.279296875	n/a	WORD	3101244	wordpools/wasnorm_wordpool_576.txt	LTP354	ltpFR2	20	7	CRATER	400	n/a	n/a	0	0	0
1516.76025390625	n/a	WORD	3106325	wordpools/wasnorm_wordpool_576.txt	LTP354	ltpFR2	20	7	SUNRISE	1407	n/a	n/a	0	0	0
1519.47607421875	n/a	WORD	3111887	wordpools/wasnorm_wordpool_576.txt	LTP354	ltpFR2	20	7	HOOK	715	n/a	n/a	0	0	0
1522.19189453125	n/a	WORD	3117449	wordpools/wasnorm_wordpool_576.txt	LTP354	ltpFR2	20	7	BUREAU	199	n/a	n/a	0	0	0
1524.85693359375	n/a	WORD	3122907	wordpools/wasnorm_wordpool_576.txt	LTP354	ltpFR2	20	7	SERVANT	1271	n/a	n/a	0	0	0
1527.63916015625	n/a	WORD	3128605	wordpools/wasnorm_wordpool_576.txt	LTP354	ltpFR2	20	7	CLOUD	328	n/a	n/a	0	0	0
1530.171875	n/a	WORD	3133792	wordpools/wasnorm_wordpool_576.txt	LTP354	ltpFR2	20	7	DONKEY	484	n/a	n/a	0	0	0
1532.9697265625	n/a	WORD	3139522	wordpools/wasnorm_wordpool_576.txt	LTP354	ltpFR2	20	7	LONDON	843	n/a	n/a	0	0	0
1535.6015625	n/a	WORD	3144912	wordpools/wasnorm_wordpool_576.txt	LTP354	ltpFR2	20	7	ASIA	46	n/a	n/a	0	0	0
1538.28466796875	n/a	WORD	3150407	wordpools/wasnorm_wordpool_576.txt	LTP354	ltpFR2	20	7	BEAST	108	n/a	n/a	0	0	0
1540.8984375	n/a	WORD	3155760	wordpools/wasnorm_wordpool_576.txt	LTP354	ltpFR2	20	7	AIRPORT	13	n/a	n/a	0	0	0
1543.33154296875	n/a	WORD	3160743	wordpools/wasnorm_wordpool_576.txt	LTP354	ltpFR2	20	7	TOURIST	1488	n/a	n/a	0	0	0
1546.146484375	n/a	WORD	3166508	wordpools/wasnorm_wordpool_576.txt	LTP354	ltpFR2	20	7	DORM	488	n/a	n/a	0	0	0
1548.87841796875	n/a	WORD	3172103	wordpools/wasnorm_wordpool_576.txt	LTP354	ltpFR2	20	7	SMOG	1330	n/a	n/a	0	0	0
1551.66015625	n/a	WORD	3177800	wordpools/wasnorm_wordpool_576.txt	LTP354	ltpFR2	20	7	CASHIER	254	n/a	n/a	0	0	0
1554.22705078125	n/a	WORD	3183057	wordpools/wasnorm_wordpool_576.txt	LTP354	ltpFR2	20	7	FUNGUS	614	n/a	n/a	0	0	0
1555.84228515625	n/a	START	3186365	n/a	LTP354	ltpFR2	20	n/a	n/a	n/a	12	n/a	n/a	n/a	n/a
1556.9580078125	n/a	DISTRACTOR	3188650	n/a	LTP354	ltpFR2	20	7	n/a	n/a	n/a	n/a	0	0	0
1556.97412109375	n/a	PROB	3188683	n/a	LTP354	ltpFR2	20	n/a	n/a	n/a	12	16	1	6	9
1559.123046875	n/a	PROB	3193084	n/a	LTP354	ltpFR2	20	n/a	n/a	n/a	12	8	3	5	1
1560.2568359375	n/a	PROB	3195406	n/a	LTP354	ltpFR2	20	n/a	n/a	n/a	12	9	1	1	7
1561.638671875	n/a	PROB	3198236	n/a	LTP354	ltpFR2	20	n/a	n/a	n/a	12	21	4	8	9
1562.85498046875	n/a	PROB	3200727	n/a	LTP354	ltpFR2	20	n/a	n/a	n/a	12	17	2	6	9
1565.90380859375	n/a	PROB	3206971	n/a	LTP354	ltpFR2	20	n/a	n/a	n/a	12	16	6	7	3
1567.1357421875	n/a	PROB	3209494	n/a	LTP354	ltpFR2	20	n/a	n/a	n/a	12	8	4	2	2
1568.73583984375	n/a	PROB	3212771	n/a	LTP354	ltpFR2	20	n/a	n/a	n/a	12	21	8	7	6
1571.1005859375	n/a	PROB	3217614	n/a	LTP354	ltpFR2	20	n/a	n/a	n/a	12	13	4	2	7
1572.466796875	n/a	PROB	3220412	n/a	LTP354	ltpFR2	20	n/a	n/a	n/a	12	14	2	9	3
1574.74951171875	n/a	PROB	3225087	n/a	LTP354	ltpFR2	20	n/a	n/a	n/a	12	12	8	2	2
1575.732421875	n/a	PROB	3227100	n/a	LTP354	ltpFR2	20	n/a	n/a	n/a	12	15	5	6	4
1576.7314453125	n/a	PROB	3229146	n/a	LTP354	ltpFR2	20	n/a	n/a	n/a	12	17	7	6	4
1577.814453125	n/a	PROB	3231364	n/a	LTP354	ltpFR2	20	n/a	n/a	n/a	12	18	8	5	5
1578.7255859375	n/a	STOP	3233230	n/a	LTP354	ltpFR2	20	n/a	n/a	n/a	12	n/a	n/a	n/a	n/a
1581.7294921875	n/a	REC_START	3239382	n/a	LTP354	ltpFR2	20	7	n/a	n/a	n/a	n/a	0	0	0
1586.97021484375	n/a	REC_WORD	3250115	wordpools/wasnorm_wordpool_576.txt	LTP354	ltpFR2	20	7	DONKEY	484	n/a	n/a	0	0	0
1588.22021484375	n/a	REC_WORD	3252675	wordpools/wasnorm_wordpool_576.txt	LTP354	ltpFR2	20	7	BEAST	108	n/a	n/a	0	0	0
1595.70068359375	n/a	REC_WORD	3267995	wordpools/wasnorm_wordpool_576.txt	LTP354	ltpFR2	20	7	LONDON	843	n/a	n/a	0	0	0
1596.3349609375	n/a	REC_WORD	3269294	wordpools/wasnorm_wordpool_576.txt	LTP354	ltpFR2	20	7	ASIA	46	n/a	n/a	0	0	0
1597.12890625	n/a	REC_WORD	3270920	wordpools/wasnorm_wordpool_576.txt	LTP354	ltpFR2	20	7	TOURIST	1488	n/a	n/a	0	0	0
1601.4267578125	n/a	REC_WORD	3279722	wordpools/wasnorm_wordpool_576.txt	LTP354	ltpFR2	20	7	SPHINX	1349	n/a	n/a	0	0	0
1613.201171875	n/a	REC_WORD	3303836	wordpools/wasnorm_wordpool_576.txt	LTP354	ltpFR2	20	7	DRAWING	494	n/a	n/a	0	0	0
1616.9423828125	n/a	REC_WORD	3311498	wordpools/wasnorm_wordpool_576.txt	LTP354	ltpFR2	20	7	PAINTING	1005	n/a	n/a	0	0	0
1618.0361328125	n/a	REC_WORD	3313738	wordpools/wasnorm_wordpool_576.txt	LTP354	ltpFR2	20	7	PORTRAIT	1111	n/a	n/a	0	0	0
1619.5400390625	n/a	REC_WORD	3316818	wordpools/wasnorm_wordpool_576.txt	LTP354	ltpFR2	20	7	SUNRISE	1407	n/a	n/a	0	0	0
1620.47705078125	n/a	REC_WORD	3318737	wordpools/wasnorm_wordpool_576.txt	LTP354	ltpFR2	20	7	SUNSET	1408	n/a	n/a	0	0	0
1622.6689453125	n/a	REC_WORD	3323226	wordpools/wasnorm_wordpool_576.txt	LTP354	ltpFR2	20	7	SNAKE	1333	n/a	n/a	0	0	0
1628.73486328125	n/a	REC_WORD	3335649	wordpools/wasnorm_wordpool_576.txt	LTP354	ltpFR2	20	7	PUDDING	1139	n/a	n/a	0	0	0
1672.16943359375	n/a	WORD	3424603	wordpools/wasnorm_wordpool_576.txt	LTP354	ltpFR2	20	8	SNAIL	1332	n/a	n/a	0	0	0
1674.984375	n/a	WORD	3430368	wordpools/wasnorm_wordpool_576.txt	LTP354	ltpFR2	20	8	PRINCESS	1125	n/a	n/a	0	0	0
1677.66650390625	n/a	WORD	3435861	wordpools/wasnorm_wordpool_576.txt	LTP354	ltpFR2	20	8	PISTOL	1075	n/a	n/a	0	0	0
1680.365234375	n/a	WORD	3441388	wordpools/wasnorm_wordpool_576.txt	LTP354	ltpFR2	20	8	ORANGE	980	n/a	n/a	0	0	0
1683.09716796875	n/a	WORD	3446983	wordpools/wasnorm_wordpool_576.txt	LTP354	ltpFR2	20	8	LIPSTICK	829	n/a	n/a	0	0	0
1685.912109375	n/a	WORD	3452748	wordpools/wasnorm_wordpool_576.txt	LTP354	ltpFR2	20	8	MEAT	883	n/a	n/a	0	0	0
1688.42822265625	n/a	WORD	3457901	wordpools/wasnorm_wordpool_576.txt	LTP354	ltpFR2	20	8	SAUSAGE	1238	n/a	n/a	0	0	0
1691.14404296875	n/a	WORD	3463463	wordpools/wasnorm_wordpool_576.txt	LTP354	ltpFR2	20	8	FRIAR	605	n/a	n/a	0	0	0
1693.7578125	n/a	WORD	3468816	wordpools/wasnorm_wordpool_576.txt	LTP354	ltpFR2	20	8	CHIPMUNK	304	n/a	n/a	0	0	0
1696.556640625	n/a	WORD	3474548	wordpools/wasnorm_wordpool_576.txt	LTP354	ltpFR2	20	8	DUSTPAN	509	n/a	n/a	0	0	0
1699.0888671875	n/a	WORD	3479734	wordpools/wasnorm_wordpool_576.txt	LTP354	ltpFR2	20	8	TORTOISE	1486	n/a	n/a	0	0	0
1701.83740234375	n/a	WORD	3485363	wordpools/wasnorm_wordpool_576.txt	LTP354	ltpFR2	20	8	PIGMENT	1066	n/a	n/a	0	0	0
1704.3193359375	n/a	WORD	3490446	wordpools/wasnorm_wordpool_576.txt	LTP354	ltpFR2	20	8	CABIN	211	n/a	n/a	0	0	0
1707.03564453125	n/a	WORD	3496009	wordpools/wasnorm_wordpool_576.txt	LTP354	ltpFR2	20	8	AIRPLANE	12	n/a	n/a	0	0	0
1709.8173828125	n/a	WORD	3501706	wordpools/wasnorm_wordpool_576.txt	LTP354	ltpFR2	20	8	JELLY	755	n/a	n/a	0	0	0
1712.482421875	n/a	WORD	3507164	wordpools/wasnorm_wordpool_576.txt	LTP354	ltpFR2	20	8	MONSTER	912	n/a	n/a	0	0	0
1715.29833984375	n/a	WORD	3512931	wordpools/wasnorm_wordpool_576.txt	LTP354	ltpFR2	20	8	WASHER	1592	n/a	n/a	0	0	0
1717.962890625	n/a	WORD	3518388	wordpools/wasnorm_wordpool_576.txt	LTP354	ltpFR2	20	8	TEMPLE	1448	n/a	n/a	0	0	0
1720.62890625	n/a	WORD	3523848	wordpools/wasnorm_wordpool_576.txt	LTP354	ltpFR2	20	8	LASER	801	n/a	n/a	0	0	0
1723.22802734375	n/a	WORD	3529171	wordpools/wasnorm_wordpool_576.txt	LTP354	ltpFR2	20	8	BULLET	194	n/a	n/a	0	0	0
1726.009765625	n/a	WORD	3534868	wordpools/wasnorm_wordpool_576.txt	LTP354	ltpFR2	20	8	PADDLE	1000	n/a	n/a	0	0	0
1728.82470703125	n/a	WORD	3540633	wordpools/wasnorm_wordpool_576.txt	LTP354	ltpFR2	20	8	GANGSTER	620	n/a	n/a	0	0	0
1731.423828125	n/a	WORD	3545956	wordpools/wasnorm_wordpool_576.txt	LTP354	ltpFR2	20	8	SHRUB	1299	n/a	n/a	0	0	0
1734.12158203125	n/a	WORD	3551481	wordpools/wasnorm_wordpool_576.txt	LTP354	ltpFR2	20	8	HEDGE	699	n/a	n/a	0	0	0
1735.73876953125	n/a	START	3554793	n/a	LTP354	ltpFR2	20	n/a	n/a	n/a	13	n/a	n/a	n/a	n/a
1736.91259765625	n/a	DISTRACTOR	3557197	n/a	LTP354	ltpFR2	20	8	n/a	n/a	n/a	n/a	0	0	0
1736.92041015625	n/a	PROB	3557213	n/a	LTP354	ltpFR2	20	n/a	n/a	n/a	13	11	3	6	2
1738.70361328125	n/a	PROB	3560865	n/a	LTP354	ltpFR2	20	n/a	n/a	n/a	13	14	4	2	8
1740.0693359375	n/a	PROB	3563662	n/a	LTP354	ltpFR2	20	n/a	n/a	n/a	13	18	9	3	6
1741.1025390625	n/a	PROB	3565778	n/a	LTP354	ltpFR2	20	n/a	n/a	n/a	13	10	2	2	6
1742.26953125	n/a	PROB	3568168	n/a	LTP354	ltpFR2	20	n/a	n/a	n/a	13	20	7	6	7
1743.58447265625	n/a	PROB	3570861	n/a	LTP354	ltpFR2	20	n/a	n/a	n/a	13	18	7	3	8
1744.85009765625	n/a	PROB	3573453	n/a	LTP354	ltpFR2	20	n/a	n/a	n/a	13	15	7	7	1
1745.80029296875	n/a	PROB	3575399	n/a	LTP354	ltpFR2	20	n/a	n/a	n/a	13	9	1	1	7
1748.33203125	n/a	PROB	3580584	n/a	LTP354	ltpFR2	20	n/a	n/a	n/a	13	15	6	2	7
1749.78125	n/a	PROB	3583552	n/a	LTP354	ltpFR2	20	n/a	n/a	n/a	13	22	6	7	9
1752.2138671875	n/a	PROB	3588534	n/a	LTP354	ltpFR2	20	n/a	n/a	n/a	13	15	2	7	6
1753.81298828125	n/a	PROB	3591809	n/a	LTP354	ltpFR2	20	n/a	n/a	n/a	13	17	5	8	4
1755.47900390625	n/a	PROB	3595221	n/a	LTP354	ltpFR2	20	n/a	n/a	n/a	13	15	5	8	2
1756.5947265625	n/a	PROB	3597506	n/a	LTP354	ltpFR2	20	n/a	n/a	n/a	13	19	7	4	8
1758.28564453125	n/a	STOP	3600969	n/a	LTP354	ltpFR2	20	n/a	n/a	n/a	13	n/a	n/a	n/a	n/a
1761.5439453125	n/a	REC_START	3607642	n/a	LTP354	ltpFR2	20	8	n/a	n/a	n/a	n/a	0	0	0
1764.04345703125	n/a	REC_WORD	3612761	wordpools/wasnorm_wordpool_576.txt	LTP354	ltpFR2	20	8	JELLY	755	n/a	n/a	0	0	0
1764.7177734375	n/a	REC_WORD	3614142	wordpools/wasnorm_wordpool_576.txt	LTP354	ltpFR2	20	8	MONSTER	912	n/a	n/a	0	0	0
1779.49609375	n/a	REC_WORD	3644408	wordpools/wasnorm_wordpool_576.txt	LTP354	ltpFR2	20	8	HEDGE	699	n/a	n/a	0	0	0
1832.2607421875	n/a	REC_WORD	3752470	wordpools/wasnorm_wordpool_576.txt	LTP354	ltpFR2	20	8	CEILING	265	n/a	n/a	0	0	0
1838.0712890625	n/a	REST_REWET	3764370	n/a	LTP354	ltpFR2	20	8	n/a	n/a	n/a	n/a	0	0	0
1965.12744140625	n/a	DISTRACTOR	4024581	n/a	LTP354	ltpFR2	20	9	n/a	n/a	n/a	n/a	0	0	0
1965.12744140625	n/a	START	4024581	n/a	LTP354	ltpFR2	20	n/a	n/a	n/a	14	n/a	n/a	n/a	n/a
1965.14453125	n/a	PROB	4024616	n/a	LTP354	ltpFR2	20	n/a	n/a	n/a	14	14	9	4	1
1966.65966796875	n/a	PROB	4027719	n/a	LTP354	ltpFR2	20	n/a	n/a	n/a	14	10	4	1	5
1968.70849609375	n/a	PROB	4031915	n/a	LTP354	ltpFR2	20	n/a	n/a	n/a	14	14	4	3	7
1969.7255859375	n/a	PROB	4033998	n/a	LTP354	ltpFR2	20	n/a	n/a	n/a	14	20	8	3	9
1971.22509765625	n/a	PROB	4037069	n/a	LTP354	ltpFR2	20	n/a	n/a	n/a	14	15	5	5	5
1972.09033203125	n/a	PROB	4038841	n/a	LTP354	ltpFR2	20	n/a	n/a	n/a	14	18	2	8	8
1973.3564453125	n/a	PROB	4041434	n/a	LTP354	ltpFR2	20	n/a	n/a	n/a	14	13	8	3	2
1974.42236328125	n/a	PROB	4043617	n/a	LTP354	ltpFR2	20	n/a	n/a	n/a	14	7	3	3	1
1975.455078125	n/a	PROB	4045732	n/a	LTP354	ltpFR2	20	n/a	n/a	n/a	14	12	3	4	5
1976.92138671875	n/a	PROB	4048735	n/a	LTP354	ltpFR2	20	n/a	n/a	n/a	14	17	6	3	8
1979.43701171875	n/a	PROB	4053887	n/a	LTP354	ltpFR2	20	n/a	n/a	n/a	14	7	1	2	4
1980.669921875	n/a	PROB	4056412	n/a	LTP354	ltpFR2	20	n/a	n/a	n/a	14	15	3	6	6
1981.751953125	n/a	PROB	4058628	n/a	LTP354	ltpFR2	20	n/a	n/a	n/a	14	18	6	6	6
1982.7021484375	n/a	PROB	4060574	n/a	LTP354	ltpFR2	20	n/a	n/a	n/a	14	10	6	2	2
1983.701171875	n/a	PROB	4062620	n/a	LTP354	ltpFR2	20	n/a	n/a	n/a	14	15	5	3	7
1984.6337890625	n/a	PROB	4064530	n/a	LTP354	ltpFR2	20	n/a	n/a	n/a	14	15	4	4	7
1987.23388671875	n/a	PROB	4069855	n/a	LTP354	ltpFR2	20	n/a	n/a	n/a	14	17	1	7	9
1988.14306640625	n/a	STOP	4071717	n/a	LTP354	ltpFR2	20	n/a	n/a	n/a	14	n/a	n/a	n/a	n/a
1990.1826171875	n/a	WORD	4075894	wordpools/wasnorm_wordpool_576.txt	LTP354	ltpFR2	20	9	OFFICE	972	n/a	n/a	0	0	0
1992.98046875	n/a	WORD	4081624	wordpools/wasnorm_wordpool_576.txt	LTP354	ltpFR2	20	9	PASTRY	1022	n/a	n/a	0	0	0
1995.728515625	n/a	WORD	4087252	wordpools/wasnorm_wordpool_576.txt	LTP354	ltpFR2	20	9	BRANDY	169	n/a	n/a	0	0	0
1998.41162109375	n/a	WORD	4092747	wordpools/wasnorm_wordpool_576.txt	LTP354	ltpFR2	20	9	XEROX	1628	n/a	n/a	0	0	0
2000.92626953125	n/a	WORD	4097897	wordpools/wasnorm_wordpool_576.txt	LTP354	ltpFR2	20	9	TURKEY	1520	n/a	n/a	0	0	0
2003.392578125	n/a	WORD	4102948	wordpools/wasnorm_wordpool_576.txt	LTP354	ltpFR2	20	9	DRIVER	499	n/a	n/a	0	0	0
2005.84033203125	n/a	WORD	4107961	wordpools/wasnorm_wordpool_576.txt	LTP354	ltpFR2	20	9	DONOR	485	n/a	n/a	0	0	0
2008.38916015625	n/a	WORD	4113181	wordpools/wasnorm_wordpool_576.txt	LTP354	ltpFR2	20	9	NURSE	963	n/a	n/a	0	0	0
2010.955078125	n/a	WORD	4118436	wordpools/wasnorm_wordpool_576.txt	LTP354	ltpFR2	20	9	KIDNEY	776	n/a	n/a	0	0	0
2013.55419921875	n/a	WORD	4123759	wordpools/wasnorm_wordpool_576.txt	LTP354	ltpFR2	20	9	LION	827	n/a	n/a	0	0	0
2016.06884765625	n/a	WORD	4128909	wordpools/wasnorm_wordpool_576.txt	LTP354	ltpFR2	20	9	STREAM	1392	n/a	n/a	0	0	0
2018.80078125	n/a	WORD	4134504	wordpools/wasnorm_wordpool_576.txt	LTP354	ltpFR2	20	9	ARM	38	n/a	n/a	0	0	0
2021.349609375	n/a	WORD	4139724	wordpools/wasnorm_wordpool_576.txt	LTP354	ltpFR2	20	9	GLOVE	642	n/a	n/a	0	0	0
2024.03173828125	n/a	WORD	4145217	wordpools/wasnorm_wordpool_576.txt	LTP354	ltpFR2	20	9	ISLAND	745	n/a	n/a	0	0	0
2026.6806640625	n/a	WORD	4150642	wordpools/wasnorm_wordpool_576.txt	LTP354	ltpFR2	20	9	PANTHER	1009	n/a	n/a	0	0	0
2029.263671875	n/a	WORD	4155932	wordpools/wasnorm_wordpool_576.txt	LTP354	ltpFR2	20	9	TWEEZERS	1526	n/a	n/a	0	0	0
2032.0615234375	n/a	WORD	4161662	wordpools/wasnorm_wordpool_576.txt	LTP354	ltpFR2	20	9	FOREHEAD	592	n/a	n/a	0	0	0
2034.693359375	n/a	WORD	4167052	wordpools/wasnorm_wordpool_576.txt	LTP354	ltpFR2	20	9	BATHTUB	100	n/a	n/a	0	0	0
2037.275390625	n/a	WORD	4172340	wordpools/wasnorm_wordpool_576.txt	LTP354	ltpFR2	20	9	TROUT	1511	n/a	n/a	0	0	0
2039.7412109375	n/a	WORD	4177390	wordpools/wasnorm_wordpool_576.txt	LTP354	ltpFR2	20	9	JELLO	754	n/a	n/a	0	0	0
2042.25732421875	n/a	WORD	4182543	wordpools/wasnorm_wordpool_576.txt	LTP354	ltpFR2	20	9	BUTCHER	203	n/a	n/a	0	0	0
2044.9052734375	n/a	WORD	4187966	wordpools/wasnorm_wordpool_576.txt	LTP354	ltpFR2	20	9	BELLY	119	n/a	n/a	0	0	0
2047.4541015625	n/a	WORD	4193186	wordpools/wasnorm_wordpool_576.txt	LTP354	ltpFR2	20	9	STOMACH	1384	n/a	n/a	0	0	0
2050.18701171875	n/a	WORD	4198783	wordpools/wasnorm_wordpool_576.txt	LTP354	ltpFR2	20	9	MOTOR	922	n/a	n/a	0	0	0
2051.8017578125	n/a	START	4202090	n/a	LTP354	ltpFR2	20	n/a	n/a	n/a	15	n/a	n/a	n/a	n/a
2052.64208984375	n/a	DISTRACTOR	4203811	n/a	LTP354	ltpFR2	20	9	n/a	n/a	n/a	n/a	0	0	0
2052.65185546875	n/a	PROB	4203831	n/a	LTP354	ltpFR2	20	n/a	n/a	n/a	15	18	8	4	6
2054.30078125	n/a	PROB	4207208	n/a	LTP354	ltpFR2	20	n/a	n/a	n/a	15	21	8	8	5
2056.33251953125	n/a	PROB	4211369	n/a	LTP354	ltpFR2	20	n/a	n/a	n/a	15	16	4	3	9
2058.1328125	n/a	PROB	4215056	n/a	LTP354	ltpFR2	20	n/a	n/a	n/a	15	21	4	9	8
2059.5146484375	n/a	PROB	4217886	n/a	LTP354	ltpFR2	20	n/a	n/a	n/a	15	8	1	6	1
2060.38037109375	n/a	PROB	4219659	n/a	LTP354	ltpFR2	20	n/a	n/a	n/a	15	17	3	8	6
2062.16455078125	n/a	PROB	4223313	n/a	LTP354	ltpFR2	20	n/a	n/a	n/a	15	11	3	2	6
2065.095703125	n/a	PROB	4229316	n/a	LTP354	ltpFR2	20	n/a	n/a	n/a	15	17	3	9	5
2066.5283203125	n/a	PROB	4232250	n/a	LTP354	ltpFR2	20	n/a	n/a	n/a	15	19	4	8	7
2068.29345703125	n/a	PROB	4235865	n/a	LTP354	ltpFR2	20	n/a	n/a	n/a	15	19	6	7	6
2069.84326171875	n/a	PROB	4239039	n/a	LTP354	ltpFR2	20	n/a	n/a	n/a	15	20	7	7	6
2071.22607421875	n/a	PROB	4241871	n/a	LTP354	ltpFR2	20	n/a	n/a	n/a	15	13	1	6	6
2072.8583984375	n/a	PROB	4245214	n/a	LTP354	ltpFR2	20	n/a	n/a	n/a	15	18	6	6	6
2073.75830078125	n/a	PROB	4247057	n/a	LTP354	ltpFR2	20	n/a	n/a	n/a	15	9	2	3	4
2075.14208984375	n/a	STOP	4249891	n/a	LTP354	ltpFR2	20	n/a	n/a	n/a	15	n/a	n/a	n/a	n/a
2077.60595703125	n/a	REC_START	4254937	n/a	LTP354	ltpFR2	20	9	n/a	n/a	n/a	n/a	0	0	0
2078.6962890625	n/a	REC_WORD	4257170	wordpools/wasnorm_wordpool_576.txt	LTP354	ltpFR2	20	9	BELLY	119	n/a	n/a	0	0	0
2079.7431640625	n/a	REC_WORD	4259314	wordpools/wasnorm_wordpool_576.txt	LTP354	ltpFR2	20	9	STOMACH	1384	n/a	n/a	0	0	0
2080.9931640625	n/a	REC_WORD	4261874	wordpools/wasnorm_wordpool_576.txt	LTP354	ltpFR2	20	9	MOTOR	922	n/a	n/a	0	0	0
2082.93701171875	n/a	REC_WORD	4265855	wordpools/wasnorm_wordpool_576.txt	LTP354	ltpFR2	20	9	OFFICE	972	n/a	n/a	0	0	0
2084.75	n/a	REC_WORD	4269568	wordpools/wasnorm_wordpool_576.txt	LTP354	ltpFR2	20	9	XEROX	1628	n/a	n/a	0	0	0
2085.75	n/a	REC_WORD_VV	4271616	wordpools/wasnorm_wordpool_576.txt	LTP354	ltpFR2	20	9	<>	-1	n/a	n/a	0	0	0
2090.03955078125	n/a	REC_WORD	4280401	wordpools/wasnorm_wordpool_576.txt	LTP354	ltpFR2	20	9	BUTCHER	203	n/a	n/a	0	0	0
2092.0595703125	n/a	REC_WORD	4284538	wordpools/wasnorm_wordpool_576.txt	LTP354	ltpFR2	20	9	TROUT	1511	n/a	n/a	0	0	0
2095.82666015625	n/a	REC_WORD	4292253	wordpools/wasnorm_wordpool_576.txt	LTP354	ltpFR2	20	9	GLOVE	642	n/a	n/a	0	0	0
2096.79345703125	n/a	REC_WORD	4294233	wordpools/wasnorm_wordpool_576.txt	LTP354	ltpFR2	20	9	ARM	38	n/a	n/a	0	0	0
2098.1962890625	n/a	REC_WORD	4297106	wordpools/wasnorm_wordpool_576.txt	LTP354	ltpFR2	20	9	KIDNEY	776	n/a	n/a	0	0	0
2098.84326171875	n/a	REC_WORD	4298431	wordpools/wasnorm_wordpool_576.txt	LTP354	ltpFR2	20	9	NURSE	963	n/a	n/a	0	0	0
2103.111328125	n/a	REC_WORD	4307172	wordpools/wasnorm_wordpool_576.txt	LTP354	ltpFR2	20	9	LION	827	n/a	n/a	0	0	0
2103.6611328125	n/a	REC_WORD	4308298	wordpools/wasnorm_wordpool_576.txt	LTP354	ltpFR2	20	9	STREAM	1392	n/a	n/a	0	0	0
2105.6962890625	n/a	REC_WORD	4312466	wordpools/wasnorm_wordpool_576.txt	LTP354	ltpFR2	20	9	PANTHER	1009	n/a	n/a	0	0	0
2168.029296875	n/a	DISTRACTOR	4440124	n/a	LTP354	ltpFR2	20	10	n/a	n/a	n/a	n/a	0	0	0
2168.029296875	n/a	START	4440124	n/a	LTP354	ltpFR2	20	n/a	n/a	n/a	16	n/a	n/a	n/a	n/a
2168.04541015625	n/a	PROB	4440157	n/a	LTP354	ltpFR2	20	n/a	n/a	n/a	16	18	8	3	7
2169.578125	n/a	PROB	4443296	n/a	LTP354	ltpFR2	20	n/a	n/a	n/a	16	13	2	5	6
2171.0771484375	n/a	PROB	4446366	n/a	LTP354	ltpFR2	20	n/a	n/a	n/a	16	16	9	3	4
2172.47705078125	n/a	PROB	4449233	n/a	LTP354	ltpFR2	20	n/a	n/a	n/a	16	13	6	2	5
2173.84326171875	n/a	PROB	4452031	n/a	LTP354	ltpFR2	20	n/a	n/a	n/a	16	10	4	1	5
2174.89208984375	n/a	PROB	4454179	n/a	LTP354	ltpFR2	20	n/a	n/a	n/a	16	12	2	9	1
2175.84228515625	n/a	PROB	4456125	n/a	LTP354	ltpFR2	20	n/a	n/a	n/a	16	14	7	6	1
2176.8251953125	n/a	PROB	4458138	n/a	LTP354	ltpFR2	20	n/a	n/a	n/a	16	14	6	4	4
2178.27392578125	n/a	PROB	4461105	n/a	LTP354	ltpFR2	20	n/a	n/a	n/a	16	9	5	3	1
2180.05615234375	n/a	PROB	4464755	n/a	LTP354	ltpFR2	20	n/a	n/a	n/a	16	11	3	6	2
2181.3388671875	n/a	PROB	4467382	n/a	LTP354	ltpFR2	20	n/a	n/a	n/a	16	15	9	4	2
2183.22265625	n/a	PROB	4471240	n/a	LTP354	ltpFR2	20	n/a	n/a	n/a	16	15	4	5	6
2184.337890625	n/a	PROB	4473524	n/a	LTP354	ltpFR2	20	n/a	n/a	n/a	16	20	8	8	4
2185.82080078125	n/a	PROB	4476561	n/a	LTP354	ltpFR2	20	n/a	n/a	n/a	16	13	7	5	1
2186.802734375	n/a	PROB	4478572	n/a	LTP354	ltpFR2	20	n/a	n/a	n/a	16	9	1	4	4
2187.8857421875	n/a	PROB	4480790	n/a	LTP354	ltpFR2	20	n/a	n/a	n/a	16	8	1	4	3
2189.0517578125	n/a	PROB	4483178	n/a	LTP354	ltpFR2	20	n/a	n/a	n/a	16	13	4	6	3
2190.28466796875	n/a	PROB	4485703	n/a	LTP354	ltpFR2	20	n/a	n/a	n/a	16	22	8	7	7
2191.74951171875	n/a	STOP	4488703	n/a	LTP354	ltpFR2	20	n/a	n/a	n/a	16	n/a	n/a	n/a	n/a
2193.05078125	n/a	WORD	4491368	wordpools/wasnorm_wordpool_576.txt	LTP354	ltpFR2	20	10	MISSILE	900	n/a	n/a	0	0	0
2195.63232421875	n/a	WORD	4496655	wordpools/wasnorm_wordpool_576.txt	LTP354	ltpFR2	20	10	SCISSORS	1250	n/a	n/a	0	0	0
2198.24853515625	n/a	WORD	4502013	wordpools/wasnorm_wordpool_576.txt	LTP354	ltpFR2	20	10	WASP	1593	n/a	n/a	0	0	0
2200.9462890625	n/a	WORD	4507538	wordpools/wasnorm_wordpool_576.txt	LTP354	ltpFR2	20	10	ROCKET	1202	n/a	n/a	0	0	0
2203.42822265625	n/a	WORD	4512621	wordpools/wasnorm_wordpool_576.txt	LTP354	ltpFR2	20	10	DANDRUFF	439	n/a	n/a	0	0	0
2205.92724609375	n/a	WORD	4517739	wordpools/wasnorm_wordpool_576.txt	LTP354	ltpFR2	20	10	SCARF	1246	n/a	n/a	0	0	0
2208.708984375	n/a	WORD	4523436	wordpools/wasnorm_wordpool_576.txt	LTP354	ltpFR2	20	10	PEACH	1031	n/a	n/a	0	0	0
2211.39111328125	n/a	WORD	4528929	wordpools/wasnorm_wordpool_576.txt	LTP354	ltpFR2	20	10	CEILING	265	n/a	n/a	0	0	0
2213.9228515625	n/a	WORD	4534114	wordpools/wasnorm_wordpool_576.txt	LTP354	ltpFR2	20	10	SLUG	1329	n/a	n/a	0	0	0
2216.35595703125	n/a	WORD	4539097	wordpools/wasnorm_wordpool_576.txt	LTP354	ltpFR2	20	10	GUITAR	670	n/a	n/a	0	0	0
2219.103515625	n/a	WORD	4544724	wordpools/wasnorm_wordpool_576.txt	LTP354	ltpFR2	20	10	GAZELLE	628	n/a	n/a	0	0	0
2221.53662109375	n/a	WORD	4549707	wordpools/wasnorm_wordpool_576.txt	LTP354	ltpFR2	20	10	COMET	353	n/a	n/a	0	0	0
2224.28466796875	n/a	WORD	4555335	wordpools/wasnorm_wordpool_576.txt	LTP354	ltpFR2	20	10	FLOWER	584	n/a	n/a	0	0	0
2227.08349609375	n/a	WORD	4561067	wordpools/wasnorm_wordpool_576.txt	LTP354	ltpFR2	20	10	DAISY	435	n/a	n/a	0	0	0
2229.515625	n/a	WORD	4566048	wordpools/wasnorm_wordpool_576.txt	LTP354	ltpFR2	20	10	CRICKET	408	n/a	n/a	0	0	0
2232.29736328125	n/a	WORD	4571745	wordpools/wasnorm_wordpool_576.txt	LTP354	ltpFR2	20	10	ANTLER	29	n/a	n/a	0	0	0
2235.04638671875	n/a	WORD	4577375	wordpools/wasnorm_wordpool_576.txt	LTP354	ltpFR2	20	10	STONE	1385	n/a	n/a	0	0	0
2237.54541015625	n/a	WORD	4582493	wordpools/wasnorm_wordpool_576.txt	LTP354	ltpFR2	20	10	FIDDLE	561	n/a	n/a	0	0	0
2240.06103515625	n/a	WORD	4587645	wordpools/wasnorm_wordpool_576.txt	LTP354	ltpFR2	20	10	PORK	1108	n/a	n/a	0	0	0
2242.80908203125	n/a	WORD	4593273	wordpools/wasnorm_wordpool_576.txt	LTP354	ltpFR2	20	10	ZIPPER	1636	n/a	n/a	0	0	0
2245.49072265625	n/a	WORD	4598765	wordpools/wasnorm_wordpool_576.txt	LTP354	ltpFR2	20	10	STATUE	1374	n/a	n/a	0	0	0
2248.08984375	n/a	WORD	4604088	wordpools/wasnorm_wordpool_576.txt	LTP354	ltpFR2	20	10	SCULPTURE	1258	n/a	n/a	0	0	0
2250.73876953125	n/a	WORD	4609513	wordpools/wasnorm_wordpool_576.txt	LTP354	ltpFR2	20	10	THIEF	1456	n/a	n/a	0	0	0
2253.255859375	n/a	WORD	4614668	wordpools/wasnorm_wordpool_576.txt	LTP354	ltpFR2	20	10	PIZZA	1079	n/a	n/a	0	0	0
2254.87060546875	n/a	START	4617975	n/a	LTP354	ltpFR2	20	n/a	n/a	n/a	17	n/a	n/a	n/a	n/a
2255.71484375	n/a	DISTRACTOR	4619704	n/a	LTP354	ltpFR2	20	10	n/a	n/a	n/a	n/a	0	0	0
2255.7197265625	n/a	PROB	4619714	n/a	LTP354	ltpFR2	20	n/a	n/a	n/a	17	22	6	7	9
2258.3017578125	n/a	PROB	4625002	n/a	LTP354	ltpFR2	20	n/a	n/a	n/a	17	17	4	6	7
2259.46875	n/a	PROB	4627392	n/a	LTP354	ltpFR2	20	n/a	n/a	n/a	17	15	8	5	2
2261.8505859375	n/a	PROB	4632270	n/a	LTP354	ltpFR2	20	n/a	n/a	n/a	17	14	3	5	6
2263.849609375	n/a	PROB	4636364	n/a	LTP354	ltpFR2	20	n/a	n/a	n/a	17	15	7	7	1
2264.91552734375	n/a	PROB	4638547	n/a	LTP354	ltpFR2	20	n/a	n/a	n/a	17	16	5	7	4
2266.4814453125	n/a	PROB	4641754	n/a	LTP354	ltpFR2	20	n/a	n/a	n/a	17	13	5	6	2
2267.7802734375	n/a	PROB	4644414	n/a	LTP354	ltpFR2	20	n/a	n/a	n/a	17	17	7	8	2
2269.9462890625	n/a	PROB	4648850	n/a	LTP354	ltpFR2	20	n/a	n/a	n/a	17	24	8	7	9
2271.3623046875	n/a	PROB	4651750	n/a	LTP354	ltpFR2	20	n/a	n/a	n/a	17	12	5	6	1
2272.31201171875	n/a	PROB	4653695	n/a	LTP354	ltpFR2	20	n/a	n/a	n/a	17	19	5	5	9
2273.42822265625	n/a	PROB	4655981	n/a	LTP354	ltpFR2	20	n/a	n/a	n/a	17	12	2	8	2
2276.4599609375	n/a	PROB	4662190	n/a	LTP354	ltpFR2	20	n/a	n/a	n/a	17	16	5	5	6
2277.38916015625	n/a	STOP	4664093	n/a	LTP354	ltpFR2	20	n/a	n/a	n/a	17	n/a	n/a	n/a	n/a
2280.77490234375	n/a	REC_START	4671027	n/a	LTP354	ltpFR2	20	10	n/a	n/a	n/a	n/a	0	0	0
2282.0068359375	n/a	REC_WORD	4673550	wordpools/wasnorm_wordpool_576.txt	LTP354	ltpFR2	20	10	SCULPTURE	1258	n/a	n/a	0	0	0
2283.0068359375	n/a	REC_WORD_VV	4675598	wordpools/wasnorm_wordpool_576.txt	LTP354	ltpFR2	20	10	<>	-1	n/a	n/a	0	0	0
2283.65087890625	n/a	REC_WORD	4676917	wordpools/wasnorm_wordpool_576.txt	LTP354	ltpFR2	20	10	THIEF	1456	n/a	n/a	0	0	0
2284.927734375	n/a	REC_WORD	4679532	wordpools/wasnorm_wordpool_576.txt	LTP354	ltpFR2	20	10	PIZZA	1079	n/a	n/a	0	0	0
2287.6845703125	n/a	REC_WORD	4685178	wordpools/wasnorm_wordpool_576.txt	LTP354	ltpFR2	20	10	GUITAR	670	n/a	n/a	0	0	0
2301.76806640625	n/a	REC_WORD	4714021	wordpools/wasnorm_wordpool_576.txt	LTP354	ltpFR2	20	10	FIDDLE	561	n/a	n/a	0	0	0
2371.21484375	n/a	WORD	4856248	wordpools/wasnorm_wordpool_576.txt	LTP354	ltpFR2	20	11	BURGLAR	200	n/a	n/a	0	0	0
2373.77880859375	n/a	WORD	4861499	wordpools/wasnorm_wordpool_576.txt	LTP354	ltpFR2	20	11	GALLON	618	n/a	n/a	0	0	0
2376.4951171875	n/a	WORD	4867062	wordpools/wasnorm_wordpool_576.txt	LTP354	ltpFR2	20	11	MILK	895	n/a	n/a	0	0	0
2379.24462890625	n/a	WORD	4872693	wordpools/wasnorm_wordpool_576.txt	LTP354	ltpFR2	20	11	TRUCK	1512	n/a	n/a	0	0	0
2381.7919921875	n/a	WORD	4877910	wordpools/wasnorm_wordpool_576.txt	LTP354	ltpFR2	20	11	TRACTOR	1493	n/a	n/a	0	0	0
2384.390625	n/a	WORD	4883232	wordpools/wasnorm_wordpool_576.txt	LTP354	ltpFR2	20	11	MARSH	874	n/a	n/a	0	0	0
2386.87255859375	n/a	WORD	4888315	wordpools/wasnorm_wordpool_576.txt	LTP354	ltpFR2	20	11	GREASE	660	n/a	n/a	0	0	0
2389.35546875	n/a	WORD	4893400	wordpools/wasnorm_wordpool_576.txt	LTP354	ltpFR2	20	11	EUROPE	541	n/a	n/a	0	0	0
2392.05322265625	n/a	WORD	4898925	wordpools/wasnorm_wordpool_576.txt	LTP354	ltpFR2	20	11	SUSPECT	1415	n/a	n/a	0	0	0
2394.63623046875	n/a	WORD	4904215	wordpools/wasnorm_wordpool_576.txt	LTP354	ltpFR2	20	11	CRUTCH	417	n/a	n/a	0	0	0
2397.25244140625	n/a	WORD	4909573	wordpools/wasnorm_wordpool_576.txt	LTP354	ltpFR2	20	11	POSTAGE	1113	n/a	n/a	0	0	0
2399.7333984375	n/a	WORD	4914654	wordpools/wasnorm_wordpool_576.txt	LTP354	ltpFR2	20	11	BACKBONE	66	n/a	n/a	0	0	0
2402.39892578125	n/a	WORD	4920113	wordpools/wasnorm_wordpool_576.txt	LTP354	ltpFR2	20	11	DANCER	437	n/a	n/a	0	0	0
2405.09814453125	n/a	WORD	4925641	wordpools/wasnorm_wordpool_576.txt	LTP354	ltpFR2	20	11	FARMER	553	n/a	n/a	0	0	0
2407.6298828125	n/a	WORD	4930826	wordpools/wasnorm_wordpool_576.txt	LTP354	ltpFR2	20	11	BANQUET	86	n/a	n/a	0	0	0
2410.212890625	n/a	WORD	4936116	wordpools/wasnorm_wordpool_576.txt	LTP354	ltpFR2	20	11	FRANCE	601	n/a	n/a	0	0	0
2412.7109375	n/a	WORD	4941232	wordpools/wasnorm_wordpool_576.txt	LTP354	ltpFR2	20	11	RABBIT	1152	n/a	n/a	0	0	0
2415.40869140625	n/a	WORD	4946757	wordpools/wasnorm_wordpool_576.txt	LTP354	ltpFR2	20	11	REBEL	1172	n/a	n/a	0	0	0
2418.07470703125	n/a	WORD	4952217	wordpools/wasnorm_wordpool_576.txt	LTP354	ltpFR2	20	11	FLEET	578	n/a	n/a	0	0	0
2420.87353515625	n/a	WORD	4957949	wordpools/wasnorm_wordpool_576.txt	LTP354	ltpFR2	20	11	WOMAN	1620	n/a	n/a	0	0	0
2423.5556640625	n/a	WORD	4963442	wordpools/wasnorm_wordpool_576.txt	LTP354	ltpFR2	20	11	CHEST	295	n/a	n/a	0	0	0
2426.1044921875	n/a	WORD	4968662	wordpools/wasnorm_wordpool_576.txt	LTP354	ltpFR2	20	11	RECEIPT	1173	n/a	n/a	0	0	0
2428.7861328125	n/a	WORD	4974154	wordpools/wasnorm_wordpool_576.txt	LTP354	ltpFR2	20	11	DOUGHNUT	490	n/a	n/a	0	0	0
2431.33544921875	n/a	WORD	4979375	wordpools/wasnorm_wordpool_576.txt	LTP354	ltpFR2	20	11	TRENCH	1503	n/a	n/a	0	0	0
2432.951171875	n/a	START	4982684	n/a	LTP354	ltpFR2	20	n/a	n/a	n/a	18	n/a	n/a	n/a	n/a
2434.00732421875	n/a	DISTRACTOR	4984847	n/a	LTP354	ltpFR2	20	11	n/a	n/a	n/a	n/a	0	0	0
2434.01708984375	n/a	PROB	4984867	n/a	LTP354	ltpFR2	20	n/a	n/a	n/a	18	8	2	2	4
2436.73193359375	n/a	PROB	4990427	n/a	LTP354	ltpFR2	20	n/a	n/a	n/a	18	18	9	8	1
2438.7978515625	n/a	PROB	4994658	n/a	LTP354	ltpFR2	20	n/a	n/a	n/a	18	18	3	6	9
2440.1650390625	n/a	PROB	4997458	n/a	LTP354	ltpFR2	20	n/a	n/a	n/a	18	18	6	8	4
2441.6630859375	n/a	PROB	5000526	n/a	LTP354	ltpFR2	20	n/a	n/a	n/a	18	9	4	1	4
2442.77880859375	n/a	PROB	5002811	n/a	LTP354	ltpFR2	20	n/a	n/a	n/a	18	16	6	7	3
2443.77880859375	n/a	PROB	5004859	n/a	LTP354	ltpFR2	20	n/a	n/a	n/a	18	16	6	1	9
2444.89501953125	n/a	PROB	5007145	n/a	LTP354	ltpFR2	20	n/a	n/a	n/a	18	11	2	5	4
2446.7607421875	n/a	PROB	5010966	n/a	LTP354	ltpFR2	20	n/a	n/a	n/a	18	11	3	4	4
2448.10986328125	n/a	PROB	5013729	n/a	LTP354	ltpFR2	20	n/a	n/a	n/a	18	11	1	9	1
2449.04248046875	n/a	PROB	5015639	n/a	LTP354	ltpFR2	20	n/a	n/a	n/a	18	15	3	4	8
2450.1435546875	n/a	PROB	5017894	n/a	LTP354	ltpFR2	20	n/a	n/a	n/a	18	14	6	4	4
2451.19287109375	n/a	PROB	5020043	n/a	LTP354	ltpFR2	20	n/a	n/a	n/a	18	18	7	7	4
2452.40771484375	n/a	PROB	5022531	n/a	LTP354	ltpFR2	20	n/a	n/a	n/a	18	19	6	7	6
2453.75732421875	n/a	PROB	5025295	n/a	LTP354	ltpFR2	20	n/a	n/a	n/a	18	20	6	6	8
2455.439453125	n/a	PROB	5028740	n/a	LTP354	ltpFR2	20	n/a	n/a	n/a	18	15	2	8	5
2456.82958984375	n/a	STOP	5031587	n/a	LTP354	ltpFR2	20	n/a	n/a	n/a	18	n/a	n/a	n/a	n/a
2458.822265625	n/a	REC_START	5035668	n/a	LTP354	ltpFR2	20	11	n/a	n/a	n/a	n/a	0	0	0
2462.275390625	n/a	REC_WORD	5042740	wordpools/wasnorm_wordpool_576.txt	LTP354	ltpFR2	20	11	TRUCK	1512	n/a	n/a	0	0	0
2463.3154296875	n/a	REC_WORD	5044870	wordpools/wasnorm_wordpool_576.txt	LTP354	ltpFR2	20	11	TRACTOR	1493	n/a	n/a	0	0	0
2465.05810546875	n/a	REC_WORD	5048439	wordpools/wasnorm_wordpool_576.txt	LTP354	ltpFR2	20	11	EUROPE	541	n/a	n/a	0	0	0
2480.71484375	n/a	REC_WORD	5080504	wordpools/wasnorm_wordpool_576.txt	LTP354	ltpFR2	20	11	MILK	895	n/a	n/a	0	0	0
2481.69189453125	n/a	REC_WORD	5082505	wordpools/wasnorm_wordpool_576.txt	LTP354	ltpFR2	20	11	GALLON	618	n/a	n/a	0	0	0
2486.53076171875	n/a	REC_WORD	5092415	wordpools/wasnorm_wordpool_576.txt	LTP354	ltpFR2	20	11	BANDIT	81	n/a	n/a	0	0	0
2487.57275390625	n/a	REC_WORD	5094549	wordpools/wasnorm_wordpool_576.txt	LTP354	ltpFR2	20	11	BURGLAR	200	n/a	n/a	0	0	0
2549.2607421875	n/a	DISTRACTOR	5220886	n/a	LTP354	ltpFR2	20	12	n/a	n/a	n/a	n/a	0	0	0
2549.26171875	n/a	START	5220888	n/a	LTP354	ltpFR2	20	n/a	n/a	n/a	19	n/a	n/a	n/a	n/a
2549.27783203125	n/a	PROB	5220921	n/a	LTP354	ltpFR2	20	n/a	n/a	n/a	19	17	6	9	2
2551.359375	n/a	PROB	5225184	n/a	LTP354	ltpFR2	20	n/a	n/a	n/a	19	19	8	5	6
2552.92529296875	n/a	PROB	5228391	n/a	LTP354	ltpFR2	20	n/a	n/a	n/a	19	17	6	7	4
2555.54150390625	n/a	PROB	5233749	n/a	LTP354	ltpFR2	20	n/a	n/a	n/a	19	17	5	7	5
2557.0244140625	n/a	PROB	5236786	n/a	LTP354	ltpFR2	20	n/a	n/a	n/a	19	23	8	7	8
2558.5732421875	n/a	PROB	5239958	n/a	LTP354	ltpFR2	20	n/a	n/a	n/a	19	15	5	1	9
2559.50634765625	n/a	PROB	5241869	n/a	LTP354	ltpFR2	20	n/a	n/a	n/a	19	20	3	8	9
2560.9052734375	n/a	PROB	5244734	n/a	LTP354	ltpFR2	20	n/a	n/a	n/a	19	9	4	1	4
2561.7880859375	n/a	PROB	5246542	n/a	LTP354	ltpFR2	20	n/a	n/a	n/a	19	15	6	5	4
2564.38720703125	n/a	PROB	5251865	n/a	LTP354	ltpFR2	20	n/a	n/a	n/a	19	22	7	8	7
2565.77001953125	n/a	PROB	5254697	n/a	LTP354	ltpFR2	20	n/a	n/a	n/a	19	11	2	9	2
2567.369140625	n/a	PROB	5257972	n/a	LTP354	ltpFR2	20	n/a	n/a	n/a	19	14	1	9	4
2569.40087890625	n/a	PROB	5262133	n/a	LTP354	ltpFR2	20	n/a	n/a	n/a	19	16	3	5	8
2570.951171875	n/a	PROB	5265308	n/a	LTP354	ltpFR2	20	n/a	n/a	n/a	19	16	9	3	4
2572.10888671875	n/a	STOP	5267679	n/a	LTP354	ltpFR2	20	n/a	n/a	n/a	19	n/a	n/a	n/a	n/a
2574.1337890625	n/a	WORD	5271826	wordpools/wasnorm_wordpool_576.txt	LTP354	ltpFR2	20	12	PIGEON	1065	n/a	n/a	0	0	0
2576.84765625	n/a	WORD	5277384	wordpools/wasnorm_wordpool_576.txt	LTP354	ltpFR2	20	12	SWORD	1423	n/a	n/a	0	0	0
2579.5126953125	n/a	WORD	5282842	wordpools/wasnorm_wordpool_576.txt	LTP354	ltpFR2	20	12	BUNNY	198	n/a	n/a	0	0	0
2581.99560546875	n/a	WORD	5287927	wordpools/wasnorm_wordpool_576.txt	LTP354	ltpFR2	20	12	PADDING	999	n/a	n/a	0	0	0
2584.677734375	n/a	WORD	5293420	wordpools/wasnorm_wordpool_576.txt	LTP354	ltpFR2	20	12	POCKET	1093	n/a	n/a	0	0	0
2587.1435546875	n/a	WORD	5298470	wordpools/wasnorm_wordpool_576.txt	LTP354	ltpFR2	20	12	TERMITE	1451	n/a	n/a	0	0	0
2589.92431640625	n/a	WORD	5304165	wordpools/wasnorm_wordpool_576.txt	LTP354	ltpFR2	20	12	PLUTO	1092	n/a	n/a	0	0	0
2592.65625	n/a	WORD	5309760	wordpools/wasnorm_wordpool_576.txt	LTP354	ltpFR2	20	12	SCARECROW	1245	n/a	n/a	0	0	0
2595.455078125	n/a	WORD	5315492	wordpools/wasnorm_wordpool_576.txt	LTP354	ltpFR2	20	12	GUARD	667	n/a	n/a	0	0	0
2598.1220703125	n/a	WORD	5320954	wordpools/wasnorm_wordpool_576.txt	LTP354	ltpFR2	20	12	VENUS	1557	n/a	n/a	0	0	0
2600.9189453125	n/a	WORD	5326682	wordpools/wasnorm_wordpool_576.txt	LTP354	ltpFR2	20	12	HONEY	713	n/a	n/a	0	0	0
2603.701171875	n/a	WORD	5332380	wordpools/wasnorm_wordpool_576.txt	LTP354	ltpFR2	20	12	WORKER	1621	n/a	n/a	0	0	0
2606.16796875	n/a	WORD	5337432	wordpools/wasnorm_wordpool_576.txt	LTP354	ltpFR2	20	12	TAXI	1438	n/a	n/a	0	0	0
2608.89892578125	n/a	WORD	5343025	wordpools/wasnorm_wordpool_576.txt	LTP354	ltpFR2	20	12	BRAKE	166	n/a	n/a	0	0	0
2611.53076171875	n/a	WORD	5348415	wordpools/wasnorm_wordpool_576.txt	LTP354	ltpFR2	20	12	HANDBAG	684	n/a	n/a	0	0	0
2614.19775390625	n/a	WORD	5353877	wordpools/wasnorm_wordpool_576.txt	LTP354	ltpFR2	20	12	BANKER	84	n/a	n/a	0	0	0
2616.728515625	n/a	WORD	5359060	wordpools/wasnorm_wordpool_576.txt	LTP354	ltpFR2	20	12	PUPPY	1144	n/a	n/a	0	0	0
2619.4775390625	n/a	WORD	5364690	wordpools/wasnorm_wordpool_576.txt	LTP354	ltpFR2	20	12	ROD	1203	n/a	n/a	0	0	0
2622.25927734375	n/a	WORD	5370387	wordpools/wasnorm_wordpool_576.txt	LTP354	ltpFR2	20	12	CYCLONE	431	n/a	n/a	0	0	0
2624.75830078125	n/a	WORD	5375505	wordpools/wasnorm_wordpool_576.txt	LTP354	ltpFR2	20	12	THREAD	1460	n/a	n/a	0	0	0
2627.5400390625	n/a	WORD	5381202	wordpools/wasnorm_wordpool_576.txt	LTP354	ltpFR2	20	12	CUSTARD	429	n/a	n/a	0	0	0
2630.0390625	n/a	WORD	5386320	wordpools/wasnorm_wordpool_576.txt	LTP354	ltpFR2	20	12	PUDDING	1139	n/a	n/a	0	0	0
2632.787109375	n/a	WORD	5391948	wordpools/wasnorm_wordpool_576.txt	LTP354	ltpFR2	20	12	MARS	873	n/a	n/a	0	0	0
2635.51904296875	n/a	WORD	5397543	wordpools/wasnorm_wordpool_576.txt	LTP354	ltpFR2	20	12	CREATURE	403	n/a	n/a	0	0	0
2637.1357421875	n/a	START	5400854	n/a	LTP354	ltpFR2	20	n/a	n/a	n/a	20	n/a	n/a	n/a	n/a
2638.005859375	n/a	DISTRACTOR	5402636	n/a	LTP354	ltpFR2	20	12	n/a	n/a	n/a	n/a	0	0	0
2638.01806640625	n/a	PROB	5402661	n/a	LTP354	ltpFR2	20	n/a	n/a	n/a	20	16	3	6	7
2639.53369140625	n/a	PROB	5405765	n/a	LTP354	ltpFR2	20	n/a	n/a	n/a	20	19	6	7	6
2640.8837890625	n/a	PROB	5408530	n/a	LTP354	ltpFR2	20	n/a	n/a	n/a	20	17	9	4	4
2642.61572265625	n/a	PROB	5412077	n/a	LTP354	ltpFR2	20	n/a	n/a	n/a	20	12	3	4	5
2644.19970703125	n/a	PROB	5415321	n/a	LTP354	ltpFR2	20	n/a	n/a	n/a	20	12	9	2	1
2645.2158203125	n/a	PROB	5417402	n/a	LTP354	ltpFR2	20	n/a	n/a	n/a	20	22	5	8	9
2646.61376953125	n/a	PROB	5420265	n/a	LTP354	ltpFR2	20	n/a	n/a	n/a	20	17	3	5	9
2648.4794921875	n/a	PROB	5424086	n/a	LTP354	ltpFR2	20	n/a	n/a	n/a	20	14	1	5	8
2649.4794921875	n/a	PROB	5426134	n/a	LTP354	ltpFR2	20	n/a	n/a	n/a	20	16	1	6	9
2650.5126953125	n/a	PROB	5428250	n/a	LTP354	ltpFR2	20	n/a	n/a	n/a	20	13	3	7	3
2651.3955078125	n/a	PROB	5430058	n/a	LTP354	ltpFR2	20	n/a	n/a	n/a	20	12	2	2	8
2652.3115234375	n/a	PROB	5431934	n/a	LTP354	ltpFR2	20	n/a	n/a	n/a	20	15	2	6	7
2654.24462890625	n/a	PROB	5435893	n/a	LTP354	ltpFR2	20	n/a	n/a	n/a	20	14	5	1	8
2655.3095703125	n/a	PROB	5438074	n/a	LTP354	ltpFR2	20	n/a	n/a	n/a	20	20	9	9	2
2656.609375	n/a	PROB	5440736	n/a	LTP354	ltpFR2	20	n/a	n/a	n/a	20	19	4	9	6
2657.8251953125	n/a	PROB	5443226	n/a	LTP354	ltpFR2	20	n/a	n/a	n/a	20	18	5	6	7
2661.0771484375	n/a	STOP	5449886	n/a	LTP354	ltpFR2	20	n/a	n/a	n/a	20	n/a	n/a	n/a	n/a
2662.93994140625	n/a	REC_START	5453701	n/a	LTP354	ltpFR2	20	12	n/a	n/a	n/a	n/a	0	0	0
2665.35595703125	n/a	REC_WORD	5458649	wordpools/wasnorm_wordpool_576.txt	LTP354	ltpFR2	20	12	PIGEON	1065	n/a	n/a	0	0	0
2666.47802734375	n/a	REC_WORD	5460947	wordpools/wasnorm_wordpool_576.txt	LTP354	ltpFR2	20	12	BUNNY	198	n/a	n/a	0	0	0
2669.06005859375	n/a	REC_WORD	5466235	wordpools/wasnorm_wordpool_576.txt	LTP354	ltpFR2	20	12	PUPPY	1144	n/a	n/a	0	0	0
2670.06982421875	n/a	REC_WORD	5468303	wordpools/wasnorm_wordpool_576.txt	LTP354	ltpFR2	20	12	SWORD	1423	n/a	n/a	0	0	0
2671.82470703125	n/a	REC_WORD	5471897	wordpools/wasnorm_wordpool_576.txt	LTP354	ltpFR2	20	12	GUARD	667	n/a	n/a	0	0	0
2672.73193359375	n/a	REC_WORD	5473755	wordpools/wasnorm_wordpool_576.txt	LTP354	ltpFR2	20	12	POCKET	1093	n/a	n/a	0	0	0
2675.4228515625	n/a	REC_WORD	5479266	wordpools/wasnorm_wordpool_576.txt	LTP354	ltpFR2	20	12	TERMITE	1451	n/a	n/a	0	0	0
2677.57080078125	n/a	REC_WORD	5483665	wordpools/wasnorm_wordpool_576.txt	LTP354	ltpFR2	20	12	SCARECROW	1245	n/a	n/a	0	0	0
2680.04345703125	n/a	REC_WORD	5488729	wordpools/wasnorm_wordpool_576.txt	LTP354	ltpFR2	20	12	PLUTO	1092	n/a	n/a	0	0	0
2681.33349609375	n/a	REC_WORD	5491371	wordpools/wasnorm_wordpool_576.txt	LTP354	ltpFR2	20	12	MARS	873	n/a	n/a	0	0	0
2682.49853515625	n/a	REC_WORD	5493757	wordpools/wasnorm_wordpool_576.txt	LTP354	ltpFR2	20	12	VENUS	1557	n/a	n/a	0	0	0
2683.96728515625	n/a	REC_WORD	5496765	wordpools/wasnorm_wordpool_576.txt	LTP354	ltpFR2	20	12	CREATURE	403	n/a	n/a	0	0	0
2687.69140625	n/a	REC_WORD	5504392	wordpools/wasnorm_wordpool_576.txt	LTP354	ltpFR2	20	12	ROD	1203	n/a	n/a	0	0	0
2753.37939453125	n/a	WORD	5638921	wordpools/wasnorm_wordpool_576.txt	LTP354	ltpFR2	20	13	SALT	1229	n/a	n/a	0	0	0
2756.0771484375	n/a	WORD	5644446	wordpools/wasnorm_wordpool_576.txt	LTP354	ltpFR2	20	13	BEEF	113	n/a	n/a	0	0	0
2758.56005859375	n/a	WORD	5649531	wordpools/wasnorm_wordpool_576.txt	LTP354	ltpFR2	20	13	SPHINX	1349	n/a	n/a	0	0	0
2761.1259765625	n/a	WORD	5654786	wordpools/wasnorm_wordpool_576.txt	LTP354	ltpFR2	20	13	SEAFOOD	1260	n/a	n/a	0	0	0
2763.60693359375	n/a	WORD	5659867	wordpools/wasnorm_wordpool_576.txt	LTP354	ltpFR2	20	13	BEAKER	104	n/a	n/a	0	0	0
2766.27294921875	n/a	WORD	5665327	wordpools/wasnorm_wordpool_576.txt	LTP354	ltpFR2	20	13	FLASK	576	n/a	n/a	0	0	0
2768.921875	n/a	WORD	5670752	wordpools/wasnorm_wordpool_576.txt	LTP354	ltpFR2	20	13	SCOTCH	1251	n/a	n/a	0	0	0
2771.68701171875	n/a	WORD	5676415	wordpools/wasnorm_wordpool_576.txt	LTP354	ltpFR2	20	13	WHISKERS	1605	n/a	n/a	0	0	0
2774.11962890625	n/a	WORD	5681397	wordpools/wasnorm_wordpool_576.txt	LTP354	ltpFR2	20	13	CONVICT	371	n/a	n/a	0	0	0
2776.78466796875	n/a	WORD	5686855	wordpools/wasnorm_wordpool_576.txt	LTP354	ltpFR2	20	13	WITNESS	1618	n/a	n/a	0	0	0
2779.28369140625	n/a	WORD	5691973	wordpools/wasnorm_wordpool_576.txt	LTP354	ltpFR2	20	13	NOMAD	955	n/a	n/a	0	0	0
2782.08154296875	n/a	WORD	5697703	wordpools/wasnorm_wordpool_576.txt	LTP354	ltpFR2	20	13	EAGLE	512	n/a	n/a	0	0	0
2784.73046875	n/a	WORD	5703128	wordpools/wasnorm_wordpool_576.txt	LTP354	ltpFR2	20	13	PATIENT	1024	n/a	n/a	0	0	0
2787.29638671875	n/a	WORD	5708383	wordpools/wasnorm_wordpool_576.txt	LTP354	ltpFR2	20	13	SCALPEL	1243	n/a	n/a	0	0	0
2789.96142578125	n/a	WORD	5713841	wordpools/wasnorm_wordpool_576.txt	LTP354	ltpFR2	20	13	LAKE	796	n/a	n/a	0	0	0
2792.54296875	n/a	WORD	5719128	wordpools/wasnorm_wordpool_576.txt	LTP354	ltpFR2	20	13	PARENT	1013	n/a	n/a	0	0	0
2795.02490234375	n/a	WORD	5724211	wordpools/wasnorm_wordpool_576.txt	LTP354	ltpFR2	20	13	BIKE	125	n/a	n/a	0	0	0
2797.5078125	n/a	WORD	5729296	wordpools/wasnorm_wordpool_576.txt	LTP354	ltpFR2	20	13	SPONGE	1355	n/a	n/a	0	0	0
2800.10595703125	n/a	WORD	5734617	wordpools/wasnorm_wordpool_576.txt	LTP354	ltpFR2	20	13	COLLEGE	346	n/a	n/a	0	0	0
2802.5546875	n/a	WORD	5739632	wordpools/wasnorm_wordpool_576.txt	LTP354	ltpFR2	20	13	CRIB	407	n/a	n/a	0	0	0
2805.0537109375	n/a	WORD	5744750	wordpools/wasnorm_wordpool_576.txt	LTP354	ltpFR2	20	13	ROBBER	1197	n/a	n/a	0	0	0
2807.7197265625	n/a	WORD	5750210	wordpools/wasnorm_wordpool_576.txt	LTP354	ltpFR2	20	13	ATOM	55	n/a	n/a	0	0	0
2810.16943359375	n/a	WORD	5755227	wordpools/wasnorm_wordpool_576.txt	LTP354	ltpFR2	20	13	COUSIN	392	n/a	n/a	0	0	0
2812.6337890625	n/a	WORD	5760274	wordpools/wasnorm_wordpool_576.txt	LTP354	ltpFR2	20	13	PARROT	1015	n/a	n/a	0	0	0
2814.25048828125	n/a	START	5763585	n/a	LTP354	ltpFR2	20	n/a	n/a	n/a	21	n/a	n/a	n/a	n/a
2815.37353515625	n/a	DISTRACTOR	5765885	n/a	LTP354	ltpFR2	20	13	n/a	n/a	n/a	n/a	0	0	0
2815.38232421875	n/a	PROB	5765903	n/a	LTP354	ltpFR2	20	n/a	n/a	n/a	21	17	6	9	2
2818.01416015625	n/a	PROB	5771293	n/a	LTP354	ltpFR2	20	n/a	n/a	n/a	21	10	2	3	5
2819.26318359375	n/a	PROB	5773851	n/a	LTP354	ltpFR2	20	n/a	n/a	n/a	21	17	5	6	6
2820.7294921875	n/a	PROB	5776854	n/a	LTP354	ltpFR2	20	n/a	n/a	n/a	21	7	2	3	2
2822.71240234375	n/a	PROB	5780915	n/a	LTP354	ltpFR2	20	n/a	n/a	n/a	21	7	2	1	4
2823.96142578125	n/a	PROB	5783473	n/a	LTP354	ltpFR2	20	n/a	n/a	n/a	21	13	4	8	1
2825.09423828125	n/a	PROB	5785793	n/a	LTP354	ltpFR2	20	n/a	n/a	n/a	21	22	8	6	8
2826.9599609375	n/a	PROB	5789614	n/a	LTP354	ltpFR2	20	n/a	n/a	n/a	21	14	5	5	4
2828.04296875	n/a	PROB	5791832	n/a	LTP354	ltpFR2	20	n/a	n/a	n/a	21	12	7	3	2
2829.14306640625	n/a	PROB	5794085	n/a	LTP354	ltpFR2	20	n/a	n/a	n/a	21	22	9	6	7
2830.94091796875	n/a	PROB	5797767	n/a	LTP354	ltpFR2	20	n/a	n/a	n/a	21	13	2	2	9
2832.27392578125	n/a	PROB	5800497	n/a	LTP354	ltpFR2	20	n/a	n/a	n/a	21	19	8	3	8
2833.70703125	n/a	PROB	5803432	n/a	LTP354	ltpFR2	20	n/a	n/a	n/a	21	23	9	6	8
2837.18994140625	n/a	STOP	5810565	n/a	LTP354	ltpFR2	20	n/a	n/a	n/a	21	n/a	n/a	n/a	n/a
2840.0048828125	n/a	REC_START	5816330	n/a	LTP354	ltpFR2	20	13	n/a	n/a	n/a	n/a	0	0	0
2841.35986328125	n/a	REC_WORD	5819105	wordpools/wasnorm_wordpool_576.txt	LTP354	ltpFR2	20	13	CRIB	407	n/a	n/a	0	0	0
2842.61962890625	n/a	REC_WORD	5821685	wordpools/wasnorm_wordpool_576.txt	LTP354	ltpFR2	20	13	ROBBER	1197	n/a	n/a	0	0	0
2845.08154296875	n/a	REC_WORD	5826727	wordpools/wasnorm_wordpool_576.txt	LTP354	ltpFR2	20	13	THIEF	1456	n/a	n/a	0	0	0
2848.3056640625	n/a	REC_WORD	5833330	wordpools/wasnorm_wordpool_576.txt	LTP354	ltpFR2	20	13	SPHINX	1349	n/a	n/a	0	0	0
2850.2802734375	n/a	REC_WORD	5837374	wordpools/wasnorm_wordpool_576.txt	LTP354	ltpFR2	20	13	COLLEGE	346	n/a	n/a	0	0	0
2851.13232421875	n/a	REC_WORD	5839119	wordpools/wasnorm_wordpool_576.txt	LTP354	ltpFR2	20	13	PARENT	1013	n/a	n/a	0	0	0
2852.5224609375	n/a	REC_WORD	5841966	wordpools/wasnorm_wordpool_576.txt	LTP354	ltpFR2	20	13	LAKE	796	n/a	n/a	0	0	0
2853.396484375	n/a	REC_WORD	5843756	wordpools/wasnorm_wordpool_576.txt	LTP354	ltpFR2	20	13	BIKE	125	n/a	n/a	0	0	0
2854.63916015625	n/a	REC_WORD	5846301	wordpools/wasnorm_wordpool_576.txt	LTP354	ltpFR2	20	13	CONVICT	371	n/a	n/a	0	0	0
2855.97607421875	n/a	REC_WORD	5849039	wordpools/wasnorm_wordpool_576.txt	LTP354	ltpFR2	20	13	PATIENT	1024	n/a	n/a	0	0	0
2856.93701171875	n/a	REC_WORD	5851007	wordpools/wasnorm_wordpool_576.txt	LTP354	ltpFR2	20	13	SCALPEL	1243	n/a	n/a	0	0	0
2859.1611328125	n/a	REC_WORD	5855562	wordpools/wasnorm_wordpool_576.txt	LTP354	ltpFR2	20	13	WHISKERS	1605	n/a	n/a	0	0	0
2863.3671875	n/a	REC_WORD	5864176	wordpools/wasnorm_wordpool_576.txt	LTP354	ltpFR2	20	13	SALT	1229	n/a	n/a	0	0	0
2864.18115234375	n/a	REC_WORD	5865843	wordpools/wasnorm_wordpool_576.txt	LTP354	ltpFR2	20	13	BEEF	113	n/a	n/a	0	0	0
2887.4794921875	n/a	REC_WORD	5913558	wordpools/wasnorm_wordpool_576.txt	LTP354	ltpFR2	20	13	FLASK	576	n/a	n/a	0	0	0
2888.09033203125	n/a	REC_WORD	5914809	wordpools/wasnorm_wordpool_576.txt	LTP354	ltpFR2	20	13	SCOTCH	1251	n/a	n/a	0	0	0
2889.79736328125	n/a	REC_WORD	5918305	wordpools/wasnorm_wordpool_576.txt	LTP354	ltpFR2	20	13	BEAKER	104	n/a	n/a	0	0	0
2893.7021484375	n/a	REC_WORD	5926302	wordpools/wasnorm_wordpool_576.txt	LTP354	ltpFR2	20	13	WHISKEY	-1	n/a	n/a	0	0	0
2899.34814453125	n/a	REC_WORD	5937865	wordpools/wasnorm_wordpool_576.txt	LTP354	ltpFR2	20	13	SCISSORS	1250	n/a	n/a	0	0	0
2930.44287109375	n/a	WORD	6001547	wordpools/wasnorm_wordpool_576.txt	LTP354	ltpFR2	20	14	WORLD	1622	n/a	n/a	0	0	0
2933.15966796875	n/a	WORD	6007111	wordpools/wasnorm_wordpool_576.txt	LTP354	ltpFR2	20	14	STOVE	1388	n/a	n/a	0	0	0
2935.791015625	n/a	WORD	6012500	wordpools/wasnorm_wordpool_576.txt	LTP354	ltpFR2	20	14	HUSBAND	728	n/a	n/a	0	0	0
2938.32275390625	n/a	WORD	6017685	wordpools/wasnorm_wordpool_576.txt	LTP354	ltpFR2	20	14	MUFFIN	929	n/a	n/a	0	0	0
2940.8046875	n/a	WORD	6022768	wordpools/wasnorm_wordpool_576.txt	LTP354	ltpFR2	20	14	BRIEFCASE	175	n/a	n/a	0	0	0
2943.25341796875	n/a	WORD	6027783	wordpools/wasnorm_wordpool_576.txt	LTP354	ltpFR2	20	14	TUNNEL	1519	n/a	n/a	0	0	0
2945.76953125	n/a	WORD	6032936	wordpools/wasnorm_wordpool_576.txt	LTP354	ltpFR2	20	14	CASHEW	253	n/a	n/a	0	0	0
2948.20263671875	n/a	WORD	6037919	wordpools/wasnorm_wordpool_576.txt	LTP354	ltpFR2	20	14	COLONEL	348	n/a	n/a	0	0	0
2950.68310546875	n/a	WORD	6042999	wordpools/wasnorm_wordpool_576.txt	LTP354	ltpFR2	20	14	VIRUS	1572	n/a	n/a	0	0	0
2953.2822265625	n/a	WORD	6048322	wordpools/wasnorm_wordpool_576.txt	LTP354	ltpFR2	20	14	VELVET	1555	n/a	n/a	0	0	0
2956.06396484375	n/a	WORD	6054019	wordpools/wasnorm_wordpool_576.txt	LTP354	ltpFR2	20	14	MATTRESS	879	n/a	n/a	0	0	0
2958.712890625	n/a	WORD	6059444	wordpools/wasnorm_wordpool_576.txt	LTP354	ltpFR2	20	14	BISON	131	n/a	n/a	0	0	0
2961.17919921875	n/a	WORD	6064495	wordpools/wasnorm_wordpool_576.txt	LTP354	ltpFR2	20	14	GYMNAST	675	n/a	n/a	0	0	0
2963.994140625	n/a	WORD	6070260	wordpools/wasnorm_wordpool_576.txt	LTP354	ltpFR2	20	14	GHETTO	633	n/a	n/a	0	0	0
2966.7587890625	n/a	WORD	6075922	wordpools/wasnorm_wordpool_576.txt	LTP354	ltpFR2	20	14	SPACE	1345	n/a	n/a	0	0	0
2969.474609375	n/a	WORD	6081484	wordpools/wasnorm_wordpool_576.txt	LTP354	ltpFR2	20	14	LAVA	804	n/a	n/a	0	0	0
2972.03955078125	n/a	WORD	6086737	wordpools/wasnorm_wordpool_576.txt	LTP354	ltpFR2	20	14	FOOTBALL	591	n/a	n/a	0	0	0
2974.82177734375	n/a	WORD	6092435	wordpools/wasnorm_wordpool_576.txt	LTP354	ltpFR2	20	14	UMPIRE	1535	n/a	n/a	0	0	0
2977.4375	n/a	WORD	6097792	wordpools/wasnorm_wordpool_576.txt	LTP354	ltpFR2	20	14	TOASTER	1472	n/a	n/a	0	0	0
2980.1865234375	n/a	WORD	6103422	wordpools/wasnorm_wordpool_576.txt	LTP354	ltpFR2	20	14	LADDER	793	n/a	n/a	0	0	0
2982.7841796875	n/a	WORD	6108742	wordpools/wasnorm_wordpool_576.txt	LTP354	ltpFR2	20	14	GARLIC	624	n/a	n/a	0	0	0
2985.400390625	n/a	WORD	6114100	wordpools/wasnorm_wordpool_576.txt	LTP354	ltpFR2	20	14	STUDENT	1395	n/a	n/a	0	0	0
2987.865234375	n/a	WORD	6119148	wordpools/wasnorm_wordpool_576.txt	LTP354	ltpFR2	20	14	PUPIL	1143	n/a	n/a	0	0	0
2990.5810546875	n/a	WORD	6124710	wordpools/wasnorm_wordpool_576.txt	LTP354	ltpFR2	20	14	BACON	67	n/a	n/a	0	0	0
2992.1982421875	n/a	START	6128022	n/a	LTP354	ltpFR2	20	n/a	n/a	n/a	22	n/a	n/a	n/a	n/a
2993.31396484375	n/a	DISTRACTOR	6130307	n/a	LTP354	ltpFR2	20	14	n/a	n/a	n/a	n/a	0	0	0
2993.330078125	n/a	PROB	6130340	n/a	LTP354	ltpFR2	20	n/a	n/a	n/a	22	17	5	9	6
2997.14599609375	n/a	PROB	6138155	n/a	LTP354	ltpFR2	20	n/a	n/a	n/a	22	17	6	2	9
2999.7099609375	n/a	PROB	6143406	n/a	LTP354	ltpFR2	20	n/a	n/a	n/a	22	19	5	7	7
3001.77587890625	n/a	PROB	6147637	n/a	LTP354	ltpFR2	20	n/a	n/a	n/a	22	14	5	5	4
3002.85888671875	n/a	PROB	6149855	n/a	LTP354	ltpFR2	20	n/a	n/a	n/a	22	20	8	7	5
3004.82373046875	n/a	PROB	6153879	n/a	LTP354	ltpFR2	20	n/a	n/a	n/a	22	18	6	6	6
3005.7568359375	n/a	PROB	6155790	n/a	LTP354	ltpFR2	20	n/a	n/a	n/a	22	6	2	1	3
3006.7568359375	n/a	PROB	6157838	n/a	LTP354	ltpFR2	20	n/a	n/a	n/a	22	14	5	2	7
3008.03955078125	n/a	PROB	6160465	n/a	LTP354	ltpFR2	20	n/a	n/a	n/a	22	13	2	8	3
3009.189453125	n/a	PROB	6162820	n/a	LTP354	ltpFR2	20	n/a	n/a	n/a	22	22	9	7	6
3011.853515625	n/a	PROB	6168276	n/a	LTP354	ltpFR2	20	n/a	n/a	n/a	22	16	2	9	5
3013.13720703125	n/a	PROB	6170905	n/a	LTP354	ltpFR2	20	n/a	n/a	n/a	22	19	1	9	9
3014.25244140625	n/a	PROB	6173189	n/a	LTP354	ltpFR2	20	n/a	n/a	n/a	22	15	5	1	9
3015.22216796875	n/a	STOP	6175175	n/a	LTP354	ltpFR2	20	n/a	n/a	n/a	22	n/a	n/a	n/a	n/a
3018.0693359375	n/a	REC_START	6181006	n/a	LTP354	ltpFR2	20	14	n/a	n/a	n/a	n/a	0	0	0
3026.30078125	n/a	REC_WORD	6197864	wordpools/wasnorm_wordpool_576.txt	LTP354	ltpFR2	20	14	STUDENT	1395	n/a	n/a	0	0	0
3027.55712890625	n/a	REC_WORD	6200437	wordpools/wasnorm_wordpool_576.txt	LTP354	ltpFR2	20	14	PUPIL	1143	n/a	n/a	0	0	0
3032.52978515625	n/a	REC_WORD	6210621	wordpools/wasnorm_wordpool_576.txt	LTP354	ltpFR2	20	14	BAKER	71	n/a	n/a	0	0	0
3049.6865234375	n/a	REC_WORD	6245758	wordpools/wasnorm_wordpool_576.txt	LTP354	ltpFR2	20	14	FOOTBALL	591	n/a	n/a	0	0	0
3065.3359375	n/a	REC_WORD	6277808	wordpools/wasnorm_wordpool_576.txt	LTP354	ltpFR2	20	14	WORLD	1622	n/a	n/a	0	0	0
3074.36474609375	n/a	REC_WORD	6296299	wordpools/wasnorm_wordpool_576.txt	LTP354	ltpFR2	20	14	EAGLE	512	n/a	n/a	0	0	0
3077.6953125	n/a	REC_WORD	6303120	wordpools/wasnorm_wordpool_576.txt	LTP354	ltpFR2	20	14	BANKER	84	n/a	n/a	0	0	0
3108.49072265625	n/a	DISTRACTOR	6366189	n/a	LTP354	ltpFR2	20	15	n/a	n/a	n/a	n/a	0	0	0
3108.49072265625	n/a	START	6366189	n/a	LTP354	ltpFR2	20	n/a	n/a	n/a	23	n/a	n/a	n/a	n/a
3108.50732421875	n/a	PROB	6366223	n/a	LTP354	ltpFR2	20	n/a	n/a	n/a	23	18	9	7	4
3110.62255859375	n/a	PROB	6370555	n/a	LTP354	ltpFR2	20	n/a	n/a	n/a	23	16	7	7	2
3112.189453125	n/a	PROB	6373764	n/a	LTP354	ltpFR2	20	n/a	n/a	n/a	23	9	1	3	5
3113.25537109375	n/a	PROB	6375947	n/a	LTP354	ltpFR2	20	n/a	n/a	n/a	23	18	8	8	2
3114.5712890625	n/a	PROB	6378642	n/a	LTP354	ltpFR2	20	n/a	n/a	n/a	23	12	5	2	5
3115.6533203125	n/a	PROB	6380858	n/a	LTP354	ltpFR2	20	n/a	n/a	n/a	23	12	1	2	9
3116.67041015625	n/a	PROB	6382941	n/a	LTP354	ltpFR2	20	n/a	n/a	n/a	23	16	2	7	7
3117.703125	n/a	PROB	6385056	n/a	LTP354	ltpFR2	20	n/a	n/a	n/a	23	11	2	6	3
3119.251953125	n/a	PROB	6388228	n/a	LTP354	ltpFR2	20	n/a	n/a	n/a	23	9	4	4	1
3120.18603515625	n/a	PROB	6390141	n/a	LTP354	ltpFR2	20	n/a	n/a	n/a	23	19	9	5	5
3121.13525390625	n/a	PROB	6392085	n/a	LTP354	ltpFR2	20	n/a	n/a	n/a	23	26	8	9	9
3122.7001953125	n/a	PROB	6395290	n/a	LTP354	ltpFR2	20	n/a	n/a	n/a	23	13	8	4	1
3125.2001953125	n/a	PROB	6400410	n/a	LTP354	ltpFR2	20	n/a	n/a	n/a	23	21	3	9	9
3126.59912109375	n/a	PROB	6403275	n/a	LTP354	ltpFR2	20	n/a	n/a	n/a	23	22	5	9	8
3128.763671875	n/a	PROB	6407708	n/a	LTP354	ltpFR2	20	n/a	n/a	n/a	23	18	8	1	9
3130.02978515625	n/a	PROB	6410301	n/a	LTP354	ltpFR2	20	n/a	n/a	n/a	23	19	9	1	9
3131.5966796875	n/a	STOP	6413510	n/a	LTP354	ltpFR2	20	n/a	n/a	n/a	23	n/a	n/a	n/a	n/a
3133.49462890625	n/a	WORD	6417397	wordpools/wasnorm_wordpool_576.txt	LTP354	ltpFR2	20	15	GAVEL	627	n/a	n/a	0	0	0
3136.16162109375	n/a	WORD	6422859	wordpools/wasnorm_wordpool_576.txt	LTP354	ltpFR2	20	15	DRINK	498	n/a	n/a	0	0	0
3138.65966796875	n/a	WORD	6427975	wordpools/wasnorm_wordpool_576.txt	LTP354	ltpFR2	20	15	CARROT	249	n/a	n/a	0	0	0
3141.44140625	n/a	WORD	6433672	wordpools/wasnorm_wordpool_576.txt	LTP354	ltpFR2	20	15	GARBAGE	622	n/a	n/a	0	0	0
3143.95654296875	n/a	WORD	6438823	wordpools/wasnorm_wordpool_576.txt	LTP354	ltpFR2	20	15	POISON	1096	n/a	n/a	0	0	0
3146.72216796875	n/a	WORD	6444487	wordpools/wasnorm_wordpool_576.txt	LTP354	ltpFR2	20	15	LUNCH	849	n/a	n/a	0	0	0
3149.17236328125	n/a	WORD	6449505	wordpools/wasnorm_wordpool_576.txt	LTP354	ltpFR2	20	15	HIGHWAY	707	n/a	n/a	0	0	0
3151.8359375	n/a	WORD	6454960	wordpools/wasnorm_wordpool_576.txt	LTP354	ltpFR2	20	15	JUDGE	761	n/a	n/a	0	0	0
3154.60205078125	n/a	WORD	6460625	wordpools/wasnorm_wordpool_576.txt	LTP354	ltpFR2	20	15	ZEBRA	1635	n/a	n/a	0	0	0
3157.3837890625	n/a	WORD	6466322	wordpools/wasnorm_wordpool_576.txt	LTP354	ltpFR2	20	15	AUTHOR	61	n/a	n/a	0	0	0
3160.10009765625	n/a	WORD	6471885	wordpools/wasnorm_wordpool_576.txt	LTP354	ltpFR2	20	15	KEEPER	769	n/a	n/a	0	0	0
3162.59765625	n/a	WORD	6477000	wordpools/wasnorm_wordpool_576.txt	LTP354	ltpFR2	20	15	COUNTY	389	n/a	n/a	0	0	0
3165.36279296875	n/a	WORD	6482663	wordpools/wasnorm_wordpool_576.txt	LTP354	ltpFR2	20	15	COUNTRY	388	n/a	n/a	0	0	0
3167.978515625	n/a	WORD	6488020	wordpools/wasnorm_wordpool_576.txt	LTP354	ltpFR2	20	15	KETCHUP	771	n/a	n/a	0	0	0
3170.693359375	n/a	WORD	6493580	wordpools/wasnorm_wordpool_576.txt	LTP354	ltpFR2	20	15	WRENCH	1625	n/a	n/a	0	0	0
3173.12646484375	n/a	WORD	6498563	wordpools/wasnorm_wordpool_576.txt	LTP354	ltpFR2	20	15	FRUIT	610	n/a	n/a	0	0	0
3175.70849609375	n/a	WORD	6503851	wordpools/wasnorm_wordpool_576.txt	LTP354	ltpFR2	20	15	BUG	187	n/a	n/a	0	0	0
3178.39013671875	n/a	WORD	6509343	wordpools/wasnorm_wordpool_576.txt	LTP354	ltpFR2	20	15	BARREL	91	n/a	n/a	0	0	0
3180.92236328125	n/a	WORD	6514529	wordpools/wasnorm_wordpool_576.txt	LTP354	ltpFR2	20	15	FOOT	590	n/a	n/a	0	0	0
3183.72119140625	n/a	WORD	6520261	wordpools/wasnorm_wordpool_576.txt	LTP354	ltpFR2	20	15	JEANS	752	n/a	n/a	0	0	0
3186.1708984375	n/a	WORD	6525278	wordpools/wasnorm_wordpool_576.txt	LTP354	ltpFR2	20	15	MESSAGE	888	n/a	n/a	0	0	0
3188.81787109375	n/a	WORD	6530699	wordpools/wasnorm_wordpool_576.txt	LTP354	ltpFR2	20	15	PECAN	1036	n/a	n/a	0	0	0
3191.3671875	n/a	WORD	6535920	wordpools/wasnorm_wordpool_576.txt	LTP354	ltpFR2	20	15	PEANUT	1032	n/a	n/a	0	0	0
3194.14990234375	n/a	WORD	6541619	wordpools/wasnorm_wordpool_576.txt	LTP354	ltpFR2	20	15	TYPIST	1532	n/a	n/a	0	0	0
3195.7646484375	n/a	START	6544926	n/a	LTP354	ltpFR2	20	n/a	n/a	n/a	24	n/a	n/a	n/a	n/a
3196.69482421875	n/a	DISTRACTOR	6546831	n/a	LTP354	ltpFR2	20	15	n/a	n/a	n/a	n/a	0	0	0
3196.69775390625	n/a	PROB	6546837	n/a	LTP354	ltpFR2	20	n/a	n/a	n/a	24	20	3	9	8
3200.27978515625	n/a	PROB	6554173	n/a	LTP354	ltpFR2	20	n/a	n/a	n/a	24	11	1	6	4
3201.27880859375	n/a	PROB	6556219	n/a	LTP354	ltpFR2	20	n/a	n/a	n/a	24	22	5	8	9
3203.0947265625	n/a	PROB	6559938	n/a	LTP354	ltpFR2	20	n/a	n/a	n/a	24	15	8	4	3
3204.32763671875	n/a	PROB	6562463	n/a	LTP354	ltpFR2	20	n/a	n/a	n/a	24	6	2	1	3
3206.62646484375	n/a	PROB	6567171	n/a	LTP354	ltpFR2	20	n/a	n/a	n/a	24	14	6	4	4
3208.45849609375	n/a	PROB	6570923	n/a	LTP354	ltpFR2	20	n/a	n/a	n/a	24	11	1	5	5
3209.42529296875	n/a	PROB	6572903	n/a	LTP354	ltpFR2	20	n/a	n/a	n/a	24	15	5	4	6
3210.32421875	n/a	PROB	6574744	n/a	LTP354	ltpFR2	20	n/a	n/a	n/a	24	18	4	8	6
3211.67431640625	n/a	PROB	6577509	n/a	LTP354	ltpFR2	20	n/a	n/a	n/a	24	8	2	4	2
3212.75634765625	n/a	PROB	6579725	n/a	LTP354	ltpFR2	20	n/a	n/a	n/a	24	24	6	8	8
3214.63916015625	n/a	PROB	6583581	n/a	LTP354	ltpFR2	20	n/a	n/a	n/a	24	20	5	7	8
3217.0380859375	n/a	PROB	6588494	n/a	LTP354	ltpFR2	20	n/a	n/a	n/a	24	14	2	9	3
3218.876953125	n/a	STOP	6592260	n/a	LTP354	ltpFR2	20	n/a	n/a	n/a	24	n/a	n/a	n/a	n/a
3221.68603515625	n/a	REC_START	6598013	n/a	LTP354	ltpFR2	20	15	n/a	n/a	n/a	n/a	0	0	0
3222.365234375	n/a	REC_WORD	6599404	wordpools/wasnorm_wordpool_576.txt	LTP354	ltpFR2	20	15	PECAN	1036	n/a	n/a	0	0	0
3223.28173828125	n/a	REC_WORD	6601281	wordpools/wasnorm_wordpool_576.txt	LTP354	ltpFR2	20	15	PEANUT	1032	n/a	n/a	0	0	0
3224.05908203125	n/a	REC_WORD	6602873	wordpools/wasnorm_wordpool_576.txt	LTP354	ltpFR2	20	15	CASHEW	253	n/a	n/a	0	0	0
3226.04296875	n/a	REC_WORD	6606936	wordpools/wasnorm_wordpool_576.txt	LTP354	ltpFR2	20	15	TYPIST	1532	n/a	n/a	0	0	0
3248.93212890625	n/a	REC_WORD	6653813	wordpools/wasnorm_wordpool_576.txt	LTP354	ltpFR2	20	15	POISON	1096	n/a	n/a	0	0	0
3249.736328125	n/a	REC_WORD	6655460	wordpools/wasnorm_wordpool_576.txt	LTP354	ltpFR2	20	15	GARBAGE	622	n/a	n/a	0	0	0
3252.2421875	n/a	REC_WORD	6660592	wordpools/wasnorm_wordpool_576.txt	LTP354	ltpFR2	20	15	DRINK	498	n/a	n/a	0	0	0
3268.0224609375	n/a	REC_WORD	6692910	wordpools/wasnorm_wordpool_576.txt	LTP354	ltpFR2	20	15	JUDGE	761	n/a	n/a	0	0	0
3268.74658203125	n/a	REC_WORD	6694393	wordpools/wasnorm_wordpool_576.txt	LTP354	ltpFR2	20	15	GAVEL	627	n/a	n/a	0	0	0
3277.7021484375	n/a	REC_WORD	6712734	wordpools/wasnorm_wordpool_576.txt	LTP354	ltpFR2	20	15	BUG	187	n/a	n/a	0	0	0
3312.109375	n/a	DISTRACTOR	6783200	n/a	LTP354	ltpFR2	20	16	n/a	n/a	n/a	n/a	0	0	0
3312.1103515625	n/a	START	6783202	n/a	LTP354	ltpFR2	20	n/a	n/a	n/a	25	n/a	n/a	n/a	n/a
3312.12646484375	n/a	PROB	6783235	n/a	LTP354	ltpFR2	20	n/a	n/a	n/a	25	11	1	9	1
3313.94140625	n/a	PROB	6786952	n/a	LTP354	ltpFR2	20	n/a	n/a	n/a	25	16	4	5	7
3317.35595703125	n/a	PROB	6793945	n/a	LTP354	ltpFR2	20	n/a	n/a	n/a	25	16	3	4	9
3319.0888671875	n/a	PROB	6797494	n/a	LTP354	ltpFR2	20	n/a	n/a	n/a	25	15	4	4	7
3320.85400390625	n/a	PROB	6801109	n/a	LTP354	ltpFR2	20	n/a	n/a	n/a	25	19	5	7	7
3322.07080078125	n/a	PROB	6803601	n/a	LTP354	ltpFR2	20	n/a	n/a	n/a	25	21	7	5	9
3323.302734375	n/a	PROB	6806124	n/a	LTP354	ltpFR2	20	n/a	n/a	n/a	25	15	9	2	4
3324.70263671875	n/a	PROB	6808991	n/a	LTP354	ltpFR2	20	n/a	n/a	n/a	25	17	6	8	3
3326.60205078125	n/a	PROB	6812881	n/a	LTP354	ltpFR2	20	n/a	n/a	n/a	25	19	9	3	7
3327.7177734375	n/a	PROB	6815166	n/a	LTP354	ltpFR2	20	n/a	n/a	n/a	25	16	1	8	7
3329.0166015625	n/a	PROB	6817826	n/a	LTP354	ltpFR2	20	n/a	n/a	n/a	25	15	5	7	3
3329.93359375	n/a	PROB	6819704	n/a	LTP354	ltpFR2	20	n/a	n/a	n/a	25	14	4	3	7
3331.15087890625	n/a	PROB	6822197	n/a	LTP354	ltpFR2	20	n/a	n/a	n/a	25	14	4	6	4
3332.16650390625	n/a	PROB	6824277	n/a	LTP354	ltpFR2	20	n/a	n/a	n/a	25	15	3	6	6
3333.28173828125	n/a	PROB	6826561	n/a	LTP354	ltpFR2	20	n/a	n/a	n/a	25	19	3	9	7
3334.66064453125	n/a	STOP	6829385	n/a	LTP354	ltpFR2	20	n/a	n/a	n/a	25	n/a	n/a	n/a	n/a
3337.0634765625	n/a	WORD	6834306	wordpools/wasnorm_wordpool_576.txt	LTP354	ltpFR2	20	16	ELBOW	520	n/a	n/a	0	0	0
3339.5625	n/a	WORD	6839424	wordpools/wasnorm_wordpool_576.txt	LTP354	ltpFR2	20	16	DIVER	476	n/a	n/a	0	0	0
3342.29443359375	n/a	WORD	6845019	wordpools/wasnorm_wordpool_576.txt	LTP354	ltpFR2	20	16	WRIST	1626	n/a	n/a	0	0	0
3344.97607421875	n/a	WORD	6850511	wordpools/wasnorm_wordpool_576.txt	LTP354	ltpFR2	20	16	SADDLE	1221	n/a	n/a	0	0	0
3347.50830078125	n/a	WORD	6855697	wordpools/wasnorm_wordpool_576.txt	LTP354	ltpFR2	20	16	CARRIAGE	248	n/a	n/a	0	0	0
3349.93994140625	n/a	WORD	6860677	wordpools/wasnorm_wordpool_576.txt	LTP354	ltpFR2	20	16	TWIG	1527	n/a	n/a	0	0	0
3352.55615234375	n/a	WORD	6866035	wordpools/wasnorm_wordpool_576.txt	LTP354	ltpFR2	20	16	SPIDER	1351	n/a	n/a	0	0	0
3355.23779296875	n/a	WORD	6871527	wordpools/wasnorm_wordpool_576.txt	LTP354	ltpFR2	20	16	VALLEY	1545	n/a	n/a	0	0	0
3357.73681640625	n/a	WORD	6876645	wordpools/wasnorm_wordpool_576.txt	LTP354	ltpFR2	20	16	DAUGHTER	442	n/a	n/a	0	0	0
3360.48583984375	n/a	WORD	6882275	wordpools/wasnorm_wordpool_576.txt	LTP354	ltpFR2	20	16	JURY	766	n/a	n/a	0	0	0
3363.06787109375	n/a	WORD	6887563	wordpools/wasnorm_wordpool_576.txt	LTP354	ltpFR2	20	16	MISTER	901	n/a	n/a	0	0	0
3365.56640625	n/a	WORD	6892680	wordpools/wasnorm_wordpool_576.txt	LTP354	ltpFR2	20	16	RACKET	1155	n/a	n/a	0	0	0
3368.13232421875	n/a	WORD	6897935	wordpools/wasnorm_wordpool_576.txt	LTP354	ltpFR2	20	16	TREAT	1501	n/a	n/a	0	0	0
3370.6806640625	n/a	WORD	6903154	wordpools/wasnorm_wordpool_576.txt	LTP354	ltpFR2	20	16	BANJO	82	n/a	n/a	0	0	0
3373.16357421875	n/a	WORD	6908239	wordpools/wasnorm_wordpool_576.txt	LTP354	ltpFR2	20	16	RECORD	1176	n/a	n/a	0	0	0
3375.76123046875	n/a	WORD	6913559	wordpools/wasnorm_wordpool_576.txt	LTP354	ltpFR2	20	16	LODGE	839	n/a	n/a	0	0	0
3378.326171875	n/a	WORD	6918812	wordpools/wasnorm_wordpool_576.txt	LTP354	ltpFR2	20	16	COTTAGE	384	n/a	n/a	0	0	0
3380.9921875	n/a	WORD	6924272	wordpools/wasnorm_wordpool_576.txt	LTP354	ltpFR2	20	16	PEBBLE	1035	n/a	n/a	0	0	0
3383.70703125	n/a	WORD	6929832	wordpools/wasnorm_wordpool_576.txt	LTP354	ltpFR2	20	16	HERO	706	n/a	n/a	0	0	0
3386.38916015625	n/a	WORD	6935325	wordpools/wasnorm_wordpool_576.txt	LTP354	ltpFR2	20	16	HIKER	708	n/a	n/a	0	0	0
3389.123046875	n/a	WORD	6940924	wordpools/wasnorm_wordpool_576.txt	LTP354	ltpFR2	20	16	MAPLE	866	n/a	n/a	0	0	0
3391.56982421875	n/a	WORD	6945935	wordpools/wasnorm_wordpool_576.txt	LTP354	ltpFR2	20	16	OINTMENT	974	n/a	n/a	0	0	0
3394.11962890625	n/a	WORD	6951157	wordpools/wasnorm_wordpool_576.txt	LTP354	ltpFR2	20	16	LILY	821	n/a	n/a	0	0	0
3396.65087890625	n/a	WORD	6956341	wordpools/wasnorm_wordpool_576.txt	LTP354	ltpFR2	20	16	STAR	1373	n/a	n/a	0	0	0
3398.267578125	n/a	START	6959652	n/a	LTP354	ltpFR2	20	n/a	n/a	n/a	26	n/a	n/a	n/a	n/a
3399.32763671875	n/a	DISTRACTOR	6961823	n/a	LTP354	ltpFR2	20	16	n/a	n/a	n/a	n/a	0	0	0
3399.33349609375	n/a	PROB	6961835	n/a	LTP354	ltpFR2	20	n/a	n/a	n/a	26	10	2	5	3
3401.015625	n/a	PROB	6965280	n/a	LTP354	ltpFR2	20	n/a	n/a	n/a	26	15	1	6	8
3403.7314453125	n/a	PROB	6970842	n/a	LTP354	ltpFR2	20	n/a	n/a	n/a	26	17	8	2	7
3404.86328125	n/a	PROB	6973160	n/a	LTP354	ltpFR2	20	n/a	n/a	n/a	26	12	4	1	7
3405.98046875	n/a	PROB	6975448	n/a	LTP354	ltpFR2	20	n/a	n/a	n/a	26	8	1	6	1
3406.86328125	n/a	PROB	6977256	n/a	LTP354	ltpFR2	20	n/a	n/a	n/a	26	5	2	1	2
3407.7294921875	n/a	PROB	6979030	n/a	LTP354	ltpFR2	20	n/a	n/a	n/a	26	13	8	2	3
3408.67822265625	n/a	PROB	6980973	n/a	LTP354	ltpFR2	20	n/a	n/a	n/a	26	11	2	3	6
3410.12939453125	n/a	PROB	6983945	n/a	LTP354	ltpFR2	20	n/a	n/a	n/a	26	12	6	4	2
3411.01123046875	n/a	PROB	6985751	n/a	LTP354	ltpFR2	20	n/a	n/a	n/a	26	7	2	3	2
3412.376953125	n/a	PROB	6988548	n/a	LTP354	ltpFR2	20	n/a	n/a	n/a	26	16	8	2	6
3413.443359375	n/a	PROB	6990732	n/a	LTP354	ltpFR2	20	n/a	n/a	n/a	26	24	9	6	9
3414.69189453125	n/a	PROB	6993289	n/a	LTP354	ltpFR2	20	n/a	n/a	n/a	26	12	5	1	6
3415.658203125	n/a	PROB	6995268	n/a	LTP354	ltpFR2	20	n/a	n/a	n/a	26	20	4	9	7
3417.1591796875	n/a	PROB	6998342	n/a	LTP354	ltpFR2	20	n/a	n/a	n/a	26	9	2	2	5
3418.2412109375	n/a	PROB	7000558	n/a	LTP354	ltpFR2	20	n/a	n/a	n/a	26	15	2	5	8
3419.47314453125	n/a	PROB	7003081	n/a	LTP354	ltpFR2	20	n/a	n/a	n/a	26	7	3	2	2
3420.72509765625	n/a	STOP	7005645	n/a	LTP354	ltpFR2	20	n/a	n/a	n/a	26	n/a	n/a	n/a	n/a
3424.087890625	n/a	REC_START	7012532	n/a	LTP354	ltpFR2	20	16	n/a	n/a	n/a	n/a	0	0	0
3424.74072265625	n/a	REC_WORD	7013869	wordpools/wasnorm_wordpool_576.txt	LTP354	ltpFR2	20	16	LILY	821	n/a	n/a	0	0	0
3425.791015625	n/a	REC_WORD	7016020	wordpools/wasnorm_wordpool_576.txt	LTP354	ltpFR2	20	16	STAR	1373	n/a	n/a	0	0	0
