onset	duration	trial_type	sample	stim_file	subject	experiment	session	trial	task	item_name	item_num	recog_conf	resp	color_b	color_g	color_r	case	font
253.624	n/a	SESS_START	126812	n/a	LTP117	ltpFR	3	n/a	n/a	n/a	n/a	4	n/a	n/a	n/a	n/a	n/a	n/a
288.45	n/a	WORD	144225	wordpools/wasnorm_wordpool.txt	LTP117	ltpFR	3	1	0	TUBE	1516	n/a	1	1	0.412841796875	0.57763671875	upper	../fonts/zerothre.ttf
292.53	n/a	WORD	146265	wordpools/wasnorm_wordpool.txt	LTP117	ltpFR	3	1	0	CARPENTER	246	n/a	1	1	0.412841796875	0.57763671875	upper	../fonts/zerothre.ttf
296.568	n/a	WORD	148284	wordpools/wasnorm_wordpool.txt	LTP117	ltpFR	3	1	1	CRIMINAL	409	n/a	0	0	0.5869140625	0.422607421875	lower	../fonts/amplitud.ttf
300.53	n/a	WORD	150265	wordpools/wasnorm_wordpool.txt	LTP117	ltpFR	3	1	1	ACORN	3	n/a	0	0	0.5869140625	0.422607421875	lower	../fonts/amplitud.ttf
304.434	n/a	WORD	152217	wordpools/wasnorm_wordpool.txt	LTP117	ltpFR	3	1	1	STREAM	1392	n/a	0	0	0.5869140625	0.422607421875	lower	../fonts/amplitud.ttf
308.27	n/a	WORD	154135	wordpools/wasnorm_wordpool.txt	LTP117	ltpFR	3	1	1	SPONGE	1355	n/a	0	0	0.5869140625	0.422607421875	lower	../fonts/amplitud.ttf
312.424	n/a	WORD	156212	wordpools/wasnorm_wordpool.txt	LTP117	ltpFR	3	1	1	ANT	25	n/a	1	0	0.5869140625	0.422607421875	lower	../fonts/amplitud.ttf
316.302	n/a	WORD	158151	wordpools/wasnorm_wordpool.txt	LTP117	ltpFR	3	1	1	CLIMBER	323	n/a	1	0	0.5869140625	0.422607421875	lower	../fonts/amplitud.ttf
320.23	n/a	WORD	160115	wordpools/wasnorm_wordpool.txt	LTP117	ltpFR	3	1	0	DRAGON	492	n/a	1	1	0.412841796875	0.57763671875	upper	../fonts/zerothre.ttf
324.276	n/a	WORD	162138	wordpools/wasnorm_wordpool.txt	LTP117	ltpFR	3	1	0	CHAMBER	277	n/a	0	1	0.412841796875	0.57763671875	upper	../fonts/zerothre.ttf
328.256	n/a	WORD	164128	wordpools/wasnorm_wordpool.txt	LTP117	ltpFR	3	1	0	GIRAFFE	636	n/a	1	1	0.412841796875	0.57763671875	upper	../fonts/zerothre.ttf
332.284	n/a	WORD	166142	wordpools/wasnorm_wordpool.txt	LTP117	ltpFR	3	1	0	PEBBLE	1035	n/a	0	1	0.412841796875	0.57763671875	upper	../fonts/zerothre.ttf
336.43	n/a	WORD	168215	wordpools/wasnorm_wordpool.txt	LTP117	ltpFR	3	1	0	FOUNTAIN	597	n/a	1	1	0.412841796875	0.57763671875	upper	../fonts/zerothre.ttf
340.382	n/a	WORD	170191	wordpools/wasnorm_wordpool.txt	LTP117	ltpFR	3	1	0	ELM	527	n/a	1	1	0.412841796875	0.57763671875	upper	../fonts/zerothre.ttf
344.202	n/a	WORD	172101	wordpools/wasnorm_wordpool.txt	LTP117	ltpFR	3	1	1	KANGAROO	768	n/a	1	0	0.5869140625	0.422607421875	lower	../fonts/amplitud.ttf
348.14	n/a	WORD	174070	wordpools/wasnorm_wordpool.txt	LTP117	ltpFR	3	1	1	FRIEND	606	n/a	1	0	0.5869140625	0.422607421875	lower	../fonts/amplitud.ttf
354.084	n/a	REC_START	177042	n/a	LTP117	ltpFR	3	1	n/a	n/a	n/a	n/a	n/a	n/a	n/a	n/a	n/a	n/a
354.676	n/a	REC_WORD	177338	wordpools/wasnorm_wordpool.txt	LTP117	ltpFR	3	1	1	KANGAROO	768	n/a	1	n/a	n/a	n/a	n/a	n/a
355.534	n/a	REC_WORD	177767	wordpools/wasnorm_wordpool.txt	LTP117	ltpFR	3	1	1	FRIEND	606	n/a	1	n/a	n/a	n/a	n/a	n/a
356.588	n/a	REC_WORD	178294	wordpools/wasnorm_wordpool.txt	LTP117	ltpFR	3	1	1	ANT	25	n/a	1	n/a	n/a	n/a	n/a	n/a
357.32	n/a	REC_WORD	178660	wordpools/wasnorm_wordpool.txt	LTP117	ltpFR	3	1	1	CLIMBER	323	n/a	1	n/a	n/a	n/a	n/a	n/a
358.308	n/a	REC_WORD	179154	wordpools/wasnorm_wordpool.txt	LTP117	ltpFR	3	1	n/a	PASSENGER	1020	n/a	n/a	n/a	n/a	n/a	n/a	n/a
359.426	n/a	REC_WORD	179713	wordpools/wasnorm_wordpool.txt	LTP117	ltpFR	3	1	0	PEBBLE	1035	n/a	0	n/a	n/a	n/a	n/a	n/a
360.31	n/a	REC_WORD	180155	wordpools/wasnorm_wordpool.txt	LTP117	ltpFR	3	1	0	FOUNTAIN	597	n/a	1	n/a	n/a	n/a	n/a	n/a
366.604	n/a	REC_WORD	183302	wordpools/wasnorm_wordpool.txt	LTP117	ltpFR	3	1	1	ACORN	3	n/a	0	n/a	n/a	n/a	n/a	n/a
368.954	n/a	REC_WORD	184477	wordpools/wasnorm_wordpool.txt	LTP117	ltpFR	3	1	1	STREAM	1392	n/a	0	n/a	n/a	n/a	n/a	n/a
373.764	n/a	REC_WORD	186882	wordpools/wasnorm_wordpool.txt	LTP117	ltpFR	3	1	0	GIRAFFE	636	n/a	1	n/a	n/a	n/a	n/a	n/a
376.604	n/a	REC_WORD	188302	wordpools/wasnorm_wordpool.txt	LTP117	ltpFR	3	1	1	ANT	25	n/a	1	n/a	n/a	n/a	n/a	n/a
376.988	n/a	REC_WORD	188494	wordpools/wasnorm_wordpool.txt	LTP117	ltpFR	3	1	1	CLIMBER	323	n/a	1	n/a	n/a	n/a	n/a	n/a
378.354	n/a	REC_WORD	189177	wordpools/wasnorm_wordpool.txt	LTP117	ltpFR	3	1	1	ANT	25	n/a	1	n/a	n/a	n/a	n/a	n/a
383.996	n/a	REC_WORD	191998	wordpools/wasnorm_wordpool.txt	LTP117	ltpFR	3	1	0	FOUNTAIN	597	n/a	1	n/a	n/a	n/a	n/a	n/a
387.174	n/a	REC_WORD	193587	wordpools/wasnorm_wordpool.txt	LTP117	ltpFR	3	1	n/a	COMPARTMENT	-1	n/a	n/a	n/a	n/a	n/a	n/a	n/a
388.174	n/a	REC_WORD_VV	194087	wordpools/wasnorm_wordpool.txt	LTP117	ltpFR	3	1	n/a	<>	-1	n/a	n/a	n/a	n/a	n/a	n/a	n/a
432.576	n/a	WORD	216288	wordpools/wasnorm_wordpool.txt	LTP117	ltpFR	3	2	1	DONKEY	484	n/a	1	0	0.5869140625	0.422607421875	lower	../fonts/amplitud.ttf
436.672	n/a	WORD	218336	wordpools/wasnorm_wordpool.txt	LTP117	ltpFR	3	2	1	VILLAIN	1567	n/a	1	0	0.5869140625	0.422607421875	lower	../fonts/amplitud.ttf
440.542	n/a	WORD	220271	wordpools/wasnorm_wordpool.txt	LTP117	ltpFR	3	2	0	HERO	706	n/a	1	1	0.412841796875	0.57763671875	upper	../fonts/zerothre.ttf
444.638	n/a	WORD	222319	wordpools/wasnorm_wordpool.txt	LTP117	ltpFR	3	2	0	BASEBALL	93	n/a	1	1	0.412841796875	0.57763671875	upper	../fonts/zerothre.ttf
448.558	n/a	WORD	224279	wordpools/wasnorm_wordpool.txt	LTP117	ltpFR	3	2	0	FRECKLE	602	n/a	0	1	0.412841796875	0.57763671875	upper	../fonts/zerothre.ttf
452.578	n/a	WORD	226289	wordpools/wasnorm_wordpool.txt	LTP117	ltpFR	3	2	0	YOUTH	1634	n/a	1	1	0.412841796875	0.57763671875	upper	../fonts/zerothre.ttf
456.5	n/a	WORD	228250	wordpools/wasnorm_wordpool.txt	LTP117	ltpFR	3	2	0	JUVENILE	767	n/a	1	1	0.412841796875	0.57763671875	upper	../fonts/zerothre.ttf
460.488	n/a	WORD	230244	wordpools/wasnorm_wordpool.txt	LTP117	ltpFR	3	2	0	SUBWAY	1400	n/a	0	1	0.412841796875	0.57763671875	upper	../fonts/zerothre.ttf
464.624	n/a	WORD	232312	wordpools/wasnorm_wordpool.txt	LTP117	ltpFR	3	2	1	MANSION	864	n/a	0	0	0.5869140625	0.422607421875	lower	../fonts/amplitud.ttf
468.778	n/a	WORD	234389	wordpools/wasnorm_wordpool.txt	LTP117	ltpFR	3	2	1	XEROX	1628	n/a	0	0	0.5869140625	0.422607421875	lower	../fonts/amplitud.ttf
472.872	n/a	WORD	236436	wordpools/wasnorm_wordpool.txt	LTP117	ltpFR	3	2	1	CARD	243	n/a	0	0	0.5869140625	0.422607421875	lower	../fonts/amplitud.ttf
476.95	n/a	WORD	238475	wordpools/wasnorm_wordpool.txt	LTP117	ltpFR	3	2	1	CABOOSE	214	n/a	0	0	0.5869140625	0.422607421875	lower	../fonts/amplitud.ttf
480.764	n/a	WORD	240382	wordpools/wasnorm_wordpool.txt	LTP117	ltpFR	3	2	1	PIT	1077	n/a	0	0	0.5869140625	0.422607421875	lower	../fonts/amplitud.ttf
484.974	n/a	WORD	242487	wordpools/wasnorm_wordpool.txt	LTP117	ltpFR	3	2	1	DECK	443	n/a	0	0	0.5869140625	0.422607421875	lower	../fonts/amplitud.ttf
489.054	n/a	WORD	244527	wordpools/wasnorm_wordpool.txt	LTP117	ltpFR	3	2	0	GARAGE	621	n/a	1	1	0.412841796875	0.57763671875	upper	../fonts/zerothre.ttf
492.998	n/a	WORD	246499	wordpools/wasnorm_wordpool.txt	LTP117	ltpFR	3	2	0	RUST	1219	n/a	0	1	0.412841796875	0.57763671875	upper	../fonts/zerothre.ttf
498.918	n/a	REC_START	249459	n/a	LTP117	ltpFR	3	2	n/a	n/a	n/a	n/a	n/a	n/a	n/a	n/a	n/a	n/a
499.476	n/a	REC_WORD	249738	wordpools/wasnorm_wordpool.txt	LTP117	ltpFR	3	2	0	GARAGE	621	n/a	1	n/a	n/a	n/a	n/a	n/a
503.782	n/a	REC_WORD	251891	wordpools/wasnorm_wordpool.txt	LTP117	ltpFR	3	2	0	FRECKLE	602	n/a	0	n/a	n/a	n/a	n/a	n/a
510.62	n/a	REC_WORD	255310	wordpools/wasnorm_wordpool.txt	LTP117	ltpFR	3	2	1	VILLAIN	1567	n/a	1	n/a	n/a	n/a	n/a	n/a
511.668	n/a	REC_WORD	255834	wordpools/wasnorm_wordpool.txt	LTP117	ltpFR	3	2	1	CARD	243	n/a	0	n/a	n/a	n/a	n/a	n/a
512.84	n/a	REC_WORD	256420	wordpools/wasnorm_wordpool.txt	LTP117	ltpFR	3	2	1	DECK	443	n/a	0	n/a	n/a	n/a	n/a	n/a
514.072	n/a	REC_WORD	257036	wordpools/wasnorm_wordpool.txt	LTP117	ltpFR	3	2	0	HERO	706	n/a	1	n/a	n/a	n/a	n/a	n/a
527.726	n/a	REC_WORD	263863	wordpools/wasnorm_wordpool.txt	LTP117	ltpFR	3	2	0	GIRAFFE	636	n/a	1	n/a	n/a	n/a	n/a	n/a
531.508	n/a	REC_WORD	265754	wordpools/wasnorm_wordpool.txt	LTP117	ltpFR	3	2	0	GARAGE	621	n/a	1	n/a	n/a	n/a	n/a	n/a
540.752	n/a	REC_WORD	270376	wordpools/wasnorm_wordpool.txt	LTP117	ltpFR	3	2	1	VILLAIN	1567	n/a	1	n/a	n/a	n/a	n/a	n/a
541.308	n/a	REC_WORD	270654	wordpools/wasnorm_wordpool.txt	LTP117	ltpFR	3	2	0	HERO	706	n/a	1	n/a	n/a	n/a	n/a	n/a
577.168	n/a	WORD	288584	wordpools/wasnorm_wordpool.txt	LTP117	ltpFR	3	3	0	SURGEON	1413	n/a	1	1	0.412841796875	0.57763671875	upper	../fonts/zerothre.ttf
581.038	n/a	WORD	290519	wordpools/wasnorm_wordpool.txt	LTP117	ltpFR	3	3	0	EYELASH	546	n/a	0	1	0.412841796875	0.57763671875	upper	../fonts/zerothre.ttf
584.894	n/a	WORD	292447	wordpools/wasnorm_wordpool.txt	LTP117	ltpFR	3	3	0	ACTOR	5	n/a	1	1	0.412841796875	0.57763671875	upper	../fonts/zerothre.ttf
588.772	n/a	WORD	294386	wordpools/wasnorm_wordpool.txt	LTP117	ltpFR	3	3	0	COOK	372	n/a	1	1	0.412841796875	0.57763671875	upper	../fonts/zerothre.ttf
592.892	n/a	WORD	296446	wordpools/wasnorm_wordpool.txt	LTP117	ltpFR	3	3	0	NECKLACE	940	n/a	0	1	0.412841796875	0.57763671875	upper	../fonts/zerothre.ttf
596.996	n/a	WORD	298498	wordpools/wasnorm_wordpool.txt	LTP117	ltpFR	3	3	1	MINER	896	n/a	0	0	0.5869140625	0.422607421875	lower	../fonts/amplitud.ttf
601.09	n/a	WORD	300545	wordpools/wasnorm_wordpool.txt	LTP117	ltpFR	3	3	1	SIREN	1310	n/a	0	0	0.5869140625	0.422607421875	lower	../fonts/amplitud.ttf
604.912	n/a	WORD	302456	wordpools/wasnorm_wordpool.txt	LTP117	ltpFR	3	3	1	OUTLAW	989	n/a	1	0	0.5869140625	0.422607421875	lower	../fonts/amplitud.ttf
608.982	n/a	WORD	304491	wordpools/wasnorm_wordpool.txt	LTP117	ltpFR	3	3	1	PHYSICIAN	1056	n/a	1	0	0.5869140625	0.422607421875	lower	../fonts/amplitud.ttf
613.052	n/a	WORD	306526	wordpools/wasnorm_wordpool.txt	LTP117	ltpFR	3	3	0	CYLINDER	432	n/a	0	1	0.412841796875	0.57763671875	upper	../fonts/zerothre.ttf
616.866	n/a	WORD	308433	wordpools/wasnorm_wordpool.txt	LTP117	ltpFR	3	3	0	TYPIST	1532	n/a	1	1	0.412841796875	0.57763671875	upper	../fonts/zerothre.ttf
621.06	n/a	WORD	310530	wordpools/wasnorm_wordpool.txt	LTP117	ltpFR	3	3	0	SECRETARY	1265	n/a	1	1	0.412841796875	0.57763671875	upper	../fonts/zerothre.ttf
625.08	n/a	WORD	312540	wordpools/wasnorm_wordpool.txt	LTP117	ltpFR	3	3	1	DAUGHTER	442	n/a	1	0	0.5869140625	0.422607421875	lower	../fonts/amplitud.ttf
629.01	n/a	WORD	314505	wordpools/wasnorm_wordpool.txt	LTP117	ltpFR	3	3	1	DRIVEWAY	500	n/a	0	0	0.5869140625	0.422607421875	lower	../fonts/amplitud.ttf
632.856	n/a	WORD	316428	wordpools/wasnorm_wordpool.txt	LTP117	ltpFR	3	3	1	LENS	811	n/a	0	0	0.5869140625	0.422607421875	lower	../fonts/amplitud.ttf
636.768	n/a	WORD	318384	wordpools/wasnorm_wordpool.txt	LTP117	ltpFR	3	3	1	FAN	551	n/a	0	0	0.5869140625	0.422607421875	lower	../fonts/amplitud.ttf
642.32	n/a	REC_START	321160	n/a	LTP117	ltpFR	3	3	n/a	n/a	n/a	n/a	n/a	n/a	n/a	n/a	n/a	n/a
643.034	n/a	REC_WORD	321517	wordpools/wasnorm_wordpool.txt	LTP117	ltpFR	3	3	1	OUTLAW	989	n/a	1	n/a	n/a	n/a	n/a	n/a
643.792	n/a	REC_WORD	321896	wordpools/wasnorm_wordpool.txt	LTP117	ltpFR	3	3	0	TYPIST	1532	n/a	1	n/a	n/a	n/a	n/a	n/a
644.684	n/a	REC_WORD	322342	wordpools/wasnorm_wordpool.txt	LTP117	ltpFR	3	3	0	SECRETARY	1265	n/a	1	n/a	n/a	n/a	n/a	n/a
645.712	n/a	REC_WORD	322856	wordpools/wasnorm_wordpool.txt	LTP117	ltpFR	3	3	1	PHYSICIAN	1056	n/a	1	n/a	n/a	n/a	n/a	n/a
646.86	n/a	REC_WORD	323430	wordpools/wasnorm_wordpool.txt	LTP117	ltpFR	3	3	1	LENS	811	n/a	0	n/a	n/a	n/a	n/a	n/a
647.872	n/a	REC_WORD	323936	wordpools/wasnorm_wordpool.txt	LTP117	ltpFR	3	3	1	DRIVEWAY	500	n/a	0	n/a	n/a	n/a	n/a	n/a
649.574	n/a	REC_WORD	324787	wordpools/wasnorm_wordpool.txt	LTP117	ltpFR	3	3	0	COOK	372	n/a	1	n/a	n/a	n/a	n/a	n/a
652.308	n/a	REC_WORD	326154	wordpools/wasnorm_wordpool.txt	LTP117	ltpFR	3	3	0	EYELASH	546	n/a	0	n/a	n/a	n/a	n/a	n/a
654.992	n/a	REC_WORD	327496	wordpools/wasnorm_wordpool.txt	LTP117	ltpFR	3	3	1	OUTLAW	989	n/a	1	n/a	n/a	n/a	n/a	n/a
658.644	n/a	REC_WORD	329322	wordpools/wasnorm_wordpool.txt	LTP117	ltpFR	3	3	0	CYLINDER	432	n/a	0	n/a	n/a	n/a	n/a	n/a
679.116	n/a	REC_WORD	339558	wordpools/wasnorm_wordpool.txt	LTP117	ltpFR	3	3	0	SURGEON	1413	n/a	1	n/a	n/a	n/a	n/a	n/a
682.084	n/a	REC_WORD	341042	wordpools/wasnorm_wordpool.txt	LTP117	ltpFR	3	3	0	ACTOR	5	n/a	1	n/a	n/a	n/a	n/a	n/a
688.904	n/a	REC_WORD	344452	wordpools/wasnorm_wordpool.txt	LTP117	ltpFR	3	3	0	SURGEON	1413	n/a	1	n/a	n/a	n/a	n/a	n/a
689.852	n/a	REC_WORD	344926	wordpools/wasnorm_wordpool.txt	LTP117	ltpFR	3	3	0	ACTOR	5	n/a	1	n/a	n/a	n/a	n/a	n/a
691.608	n/a	REC_WORD	345804	wordpools/wasnorm_wordpool.txt	LTP117	ltpFR	3	3	1	PHYSICIAN	1056	n/a	1	n/a	n/a	n/a	n/a	n/a
693.554	n/a	REC_WORD_VV	346777	wordpools/wasnorm_wordpool.txt	LTP117	ltpFR	3	3	n/a	<>	-1	n/a	n/a	n/a	n/a	n/a	n/a	n/a
727.756	n/a	WORD	363878	wordpools/wasnorm_wordpool.txt	LTP117	ltpFR	3	4	-1	TIDE	1465	n/a	-1	1	1.0	1.0	upper	../fonts/Verdana.ttf
731.932	n/a	WORD	365966	wordpools/wasnorm_wordpool.txt	LTP117	ltpFR	3	4	-1	GOOSE	649	n/a	-1	1	1.0	1.0	upper	../fonts/Verdana.ttf
735.986	n/a	WORD	367993	wordpools/wasnorm_wordpool.txt	LTP117	ltpFR	3	4	-1	HANGER	687	n/a	-1	1	1.0	1.0	upper	../fonts/Verdana.ttf
740.148	n/a	WORD	370074	wordpools/wasnorm_wordpool.txt	LTP117	ltpFR	3	4	-1	ROBIN	1199	n/a	-1	1	1.0	1.0	upper	../fonts/Verdana.ttf
744.068	n/a	WORD	372034	wordpools/wasnorm_wordpool.txt	LTP117	ltpFR	3	4	-1	GULL	671	n/a	-1	1	1.0	1.0	upper	../fonts/Verdana.ttf
748.248	n/a	WORD	374124	wordpools/wasnorm_wordpool.txt	LTP117	ltpFR	3	4	-1	DICE	461	n/a	-1	1	1.0	1.0	upper	../fonts/Verdana.ttf
752.31	n/a	WORD	376155	wordpools/wasnorm_wordpool.txt	LTP117	ltpFR	3	4	-1	BATH	98	n/a	-1	1	1.0	1.0	upper	../fonts/Verdana.ttf
756.372	n/a	WORD	378186	wordpools/wasnorm_wordpool.txt	LTP117	ltpFR	3	4	-1	METEOR	889	n/a	-1	1	1.0	1.0	upper	../fonts/Verdana.ttf
760.292	n/a	WORD	380146	wordpools/wasnorm_wordpool.txt	LTP117	ltpFR	3	4	-1	NAIL	936	n/a	-1	1	1.0	1.0	upper	../fonts/Verdana.ttf
764.37	n/a	WORD	382185	wordpools/wasnorm_wordpool.txt	LTP117	ltpFR	3	4	-1	STAKE	1368	n/a	-1	1	1.0	1.0	upper	../fonts/Verdana.ttf
768.432	n/a	WORD	384216	wordpools/wasnorm_wordpool.txt	LTP117	ltpFR	3	4	-1	DESIGNER	451	n/a	-1	1	1.0	1.0	upper	../fonts/Verdana.ttf
772.344	n/a	WORD	386172	wordpools/wasnorm_wordpool.txt	LTP117	ltpFR	3	4	-1	ATMOSPHERE	54	n/a	-1	1	1.0	1.0	upper	../fonts/Verdana.ttf
776.274	n/a	WORD	388137	wordpools/wasnorm_wordpool.txt	LTP117	ltpFR	3	4	-1	GENERAL	630	n/a	-1	1	1.0	1.0	upper	../fonts/Verdana.ttf
780.378	n/a	WORD	390189	wordpools/wasnorm_wordpool.txt	LTP117	ltpFR	3	4	-1	CRAYON	401	n/a	-1	1	1.0	1.0	upper	../fonts/Verdana.ttf
784.406	n/a	WORD	392203	wordpools/wasnorm_wordpool.txt	LTP117	ltpFR	3	4	-1	CRATER	400	n/a	-1	1	1.0	1.0	upper	../fonts/Verdana.ttf
788.402	n/a	WORD	394201	wordpools/wasnorm_wordpool.txt	LTP117	ltpFR	3	4	-1	DOUGHNUT	490	n/a	-1	1	1.0	1.0	upper	../fonts/Verdana.ttf
793.996	n/a	REC_START	396998	n/a	LTP117	ltpFR	3	4	n/a	n/a	n/a	n/a	n/a	n/a	n/a	n/a	n/a	n/a
794.644	n/a	REC_WORD	397322	wordpools/wasnorm_wordpool.txt	LTP117	ltpFR	3	4	-1	DESIGNER	451	n/a	-1	n/a	n/a	n/a	n/a	n/a
795.406	n/a	REC_WORD	397703	wordpools/wasnorm_wordpool.txt	LTP117	ltpFR	3	4	-1	STAKE	1368	n/a	-1	n/a	n/a	n/a	n/a	n/a
796.44	n/a	REC_WORD	398220	wordpools/wasnorm_wordpool.txt	LTP117	ltpFR	3	4	-1	GENERAL	630	n/a	-1	n/a	n/a	n/a	n/a	n/a
797.292	n/a	REC_WORD	398646	wordpools/wasnorm_wordpool.txt	LTP117	ltpFR	3	4	-1	ATMOSPHERE	54	n/a	-1	n/a	n/a	n/a	n/a	n/a
798.36	n/a	REC_WORD	399180	wordpools/wasnorm_wordpool.txt	LTP117	ltpFR	3	4	-1	DOUGHNUT	490	n/a	-1	n/a	n/a	n/a	n/a	n/a
802.336	n/a	REC_WORD	401168	wordpools/wasnorm_wordpool.txt	LTP117	ltpFR	3	4	-1	GULL	671	n/a	-1	n/a	n/a	n/a	n/a	n/a
803.544	n/a	REC_WORD	401772	wordpools/wasnorm_wordpool.txt	LTP117	ltpFR	3	4	-1	METEOR	889	n/a	-1	n/a	n/a	n/a	n/a	n/a
804.396	n/a	REC_WORD	402198	wordpools/wasnorm_wordpool.txt	LTP117	ltpFR	3	4	-1	CRATER	400	n/a	-1	n/a	n/a	n/a	n/a	n/a
807.824	n/a	REC_WORD	403912	wordpools/wasnorm_wordpool.txt	LTP117	ltpFR	3	4	-1	TIDE	1465	n/a	-1	n/a	n/a	n/a	n/a	n/a
810.718	n/a	REC_WORD	405359	wordpools/wasnorm_wordpool.txt	LTP117	ltpFR	3	4	-1	BATH	98	n/a	-1	n/a	n/a	n/a	n/a	n/a
813.342	n/a	REC_WORD	406671	wordpools/wasnorm_wordpool.txt	LTP117	ltpFR	3	4	-1	ROBIN	1199	n/a	-1	n/a	n/a	n/a	n/a	n/a
822.446	n/a	REC_WORD	411223	wordpools/wasnorm_wordpool.txt	LTP117	ltpFR	3	4	-1	TIDE	1465	n/a	-1	n/a	n/a	n/a	n/a	n/a
846.466	n/a	REC_WORD	423233	wordpools/wasnorm_wordpool.txt	LTP117	ltpFR	3	4	-1	ATMOSPHERE	54	n/a	-1	n/a	n/a	n/a	n/a	n/a
850.576	n/a	REC_WORD	425288	wordpools/wasnorm_wordpool.txt	LTP117	ltpFR	3	4	-1	CRAYON	401	n/a	-1	n/a	n/a	n/a	n/a	n/a
872.504	n/a	WORD	436252	wordpools/wasnorm_wordpool.txt	LTP117	ltpFR	3	5	0	WAREHOUSE	1588	n/a	1	1	0.412841796875	0.57763671875	upper	../fonts/zerothre.ttf
876.36	n/a	WORD	438180	wordpools/wasnorm_wordpool.txt	LTP117	ltpFR	3	5	0	DESSERT	453	n/a	0	1	0.412841796875	0.57763671875	upper	../fonts/zerothre.ttf
880.364	n/a	WORD	440182	wordpools/wasnorm_wordpool.txt	LTP117	ltpFR	3	5	0	CRAB	397	n/a	0	1	0.412841796875	0.57763671875	upper	../fonts/zerothre.ttf
884.35	n/a	WORD	442175	wordpools/wasnorm_wordpool.txt	LTP117	ltpFR	3	5	0	LOLLIPOP	842	n/a	0	1	0.412841796875	0.57763671875	upper	../fonts/zerothre.ttf
888.254	n/a	WORD	444127	wordpools/wasnorm_wordpool.txt	LTP117	ltpFR	3	5	0	MINT	898	n/a	0	1	0.412841796875	0.57763671875	upper	../fonts/zerothre.ttf
892.198	n/a	WORD	446099	wordpools/wasnorm_wordpool.txt	LTP117	ltpFR	3	5	0	FRUIT	610	n/a	0	1	0.412841796875	0.57763671875	upper	../fonts/zerothre.ttf
896.152	n/a	WORD	448076	wordpools/wasnorm_wordpool.txt	LTP117	ltpFR	3	5	0	PEARL	1034	n/a	0	1	0.412841796875	0.57763671875	upper	../fonts/zerothre.ttf
900.056	n/a	WORD	450028	wordpools/wasnorm_wordpool.txt	LTP117	ltpFR	3	5	0	HOOP	716	n/a	1	1	0.412841796875	0.57763671875	upper	../fonts/zerothre.ttf
903.878	n/a	WORD	451939	wordpools/wasnorm_wordpool.txt	LTP117	ltpFR	3	5	0	EAGLE	512	n/a	1	1	0.412841796875	0.57763671875	upper	../fonts/zerothre.ttf
907.964	n/a	WORD	453982	wordpools/wasnorm_wordpool.txt	LTP117	ltpFR	3	5	0	MONK	910	n/a	1	1	0.412841796875	0.57763671875	upper	../fonts/zerothre.ttf
912.058	n/a	WORD	456029	wordpools/wasnorm_wordpool.txt	LTP117	ltpFR	3	5	0	OYSTER	995	n/a	0	1	0.412841796875	0.57763671875	upper	../fonts/zerothre.ttf
915.888	n/a	WORD	457944	wordpools/wasnorm_wordpool.txt	LTP117	ltpFR	3	5	0	CUSTARD	429	n/a	1	1	0.412841796875	0.57763671875	upper	../fonts/zerothre.ttf
920.032	n/a	WORD	460016	wordpools/wasnorm_wordpool.txt	LTP117	ltpFR	3	5	0	LEG	809	n/a	1	1	0.412841796875	0.57763671875	upper	../fonts/zerothre.ttf
924.212	n/a	WORD	462106	wordpools/wasnorm_wordpool.txt	LTP117	ltpFR	3	5	0	PACKAGE	997	n/a	1	1	0.412841796875	0.57763671875	upper	../fonts/zerothre.ttf
928.358	n/a	WORD	464179	wordpools/wasnorm_wordpool.txt	LTP117	ltpFR	3	5	0	EGG	518	n/a	0	1	0.412841796875	0.57763671875	upper	../fonts/zerothre.ttf
932.436	n/a	WORD	466218	wordpools/wasnorm_wordpool.txt	LTP117	ltpFR	3	5	0	ROOST	1208	n/a	0	1	0.412841796875	0.57763671875	upper	../fonts/zerothre.ttf
938.22	n/a	REC_START	469110	n/a	LTP117	ltpFR	3	5	n/a	n/a	n/a	n/a	n/a	n/a	n/a	n/a	n/a	n/a
938.744	n/a	REC_WORD	469372	wordpools/wasnorm_wordpool.txt	LTP117	ltpFR	3	5	0	EAGLE	512	n/a	1	n/a	n/a	n/a	n/a	n/a
939.378	n/a	REC_WORD	469689	wordpools/wasnorm_wordpool.txt	LTP117	ltpFR	3	5	0	MONK	910	n/a	1	n/a	n/a	n/a	n/a	n/a
940.226	n/a	REC_WORD	470113	wordpools/wasnorm_wordpool.txt	LTP117	ltpFR	3	5	0	CUSTARD	429	n/a	1	n/a	n/a	n/a	n/a	n/a
941.144	n/a	REC_WORD	470572	wordpools/wasnorm_wordpool.txt	LTP117	ltpFR	3	5	0	PEARL	1034	n/a	0	n/a	n/a	n/a	n/a	n/a
942.052	n/a	REC_WORD	471026	wordpools/wasnorm_wordpool.txt	LTP117	ltpFR	3	5	0	MINT	898	n/a	0	n/a	n/a	n/a	n/a	n/a
942.78	n/a	REC_WORD	471390	wordpools/wasnorm_wordpool.txt	LTP117	ltpFR	3	5	0	FRUIT	610	n/a	0	n/a	n/a	n/a	n/a	n/a
943.812	n/a	REC_WORD	471906	wordpools/wasnorm_wordpool.txt	LTP117	ltpFR	3	5	0	PACKAGE	997	n/a	1	n/a	n/a	n/a	n/a	n/a
945.214	n/a	REC_WORD	472607	wordpools/wasnorm_wordpool.txt	LTP117	ltpFR	3	5	0	HOOP	716	n/a	1	n/a	n/a	n/a	n/a	n/a
946.586	n/a	REC_WORD	473293	wordpools/wasnorm_wordpool.txt	LTP117	ltpFR	3	5	0	LEG	809	n/a	1	n/a	n/a	n/a	n/a	n/a
949.156	n/a	REC_WORD	474578	wordpools/wasnorm_wordpool.txt	LTP117	ltpFR	3	5	0	WAREHOUSE	1588	n/a	1	n/a	n/a	n/a	n/a	n/a
957.76	n/a	REC_WORD	478880	wordpools/wasnorm_wordpool.txt	LTP117	ltpFR	3	5	0	PACKAGE	997	n/a	1	n/a	n/a	n/a	n/a	n/a
958.358	n/a	REC_WORD	479179	wordpools/wasnorm_wordpool.txt	LTP117	ltpFR	3	5	0	FRUIT	610	n/a	0	n/a	n/a	n/a	n/a	n/a
958.674	n/a	REC_WORD	479337	wordpools/wasnorm_wordpool.txt	LTP117	ltpFR	3	5	0	MINT	898	n/a	0	n/a	n/a	n/a	n/a	n/a
973.106	n/a	REC_WORD	486553	wordpools/wasnorm_wordpool.txt	LTP117	ltpFR	3	5	0	HOOP	716	n/a	1	n/a	n/a	n/a	n/a	n/a
999.362	n/a	REC_WORD	499681	wordpools/wasnorm_wordpool.txt	LTP117	ltpFR	3	5	0	EAGLE	512	n/a	1	n/a	n/a	n/a	n/a	n/a
999.952	n/a	REC_WORD	499976	wordpools/wasnorm_wordpool.txt	LTP117	ltpFR	3	5	0	MONK	910	n/a	1	n/a	n/a	n/a	n/a	n/a
1016.34	n/a	WORD	508170	wordpools/wasnorm_wordpool.txt	LTP117	ltpFR	3	6	-1	ARMY	39	n/a	-1	1	1.0	1.0	upper	../fonts/Verdana.ttf
1020.41	n/a	WORD	510205	wordpools/wasnorm_wordpool.txt	LTP117	ltpFR	3	6	-1	CASHEW	253	n/a	-1	1	1.0	1.0	upper	../fonts/Verdana.ttf
1024.48	n/a	WORD	512240	wordpools/wasnorm_wordpool.txt	LTP117	ltpFR	3	6	-1	SQUID	1361	n/a	-1	1	1.0	1.0	upper	../fonts/Verdana.ttf
1028.558	n/a	WORD	514279	wordpools/wasnorm_wordpool.txt	LTP117	ltpFR	3	6	-1	MILITARY	894	n/a	-1	1	1.0	1.0	upper	../fonts/Verdana.ttf
1032.388	n/a	WORD	516194	wordpools/wasnorm_wordpool.txt	LTP117	ltpFR	3	6	-1	LIMB	822	n/a	-1	1	1.0	1.0	upper	../fonts/Verdana.ttf
1036.292	n/a	WORD	518146	wordpools/wasnorm_wordpool.txt	LTP117	ltpFR	3	6	-1	JOURNAL	760	n/a	-1	1	1.0	1.0	upper	../fonts/Verdana.ttf
1040.112	n/a	WORD	520056	wordpools/wasnorm_wordpool.txt	LTP117	ltpFR	3	6	-1	TYPEWRITER	1531	n/a	-1	1	1.0	1.0	upper	../fonts/Verdana.ttf
1043.94	n/a	WORD	521970	wordpools/wasnorm_wordpool.txt	LTP117	ltpFR	3	6	-1	STEAM	1375	n/a	-1	1	1.0	1.0	upper	../fonts/Verdana.ttf
1047.952	n/a	WORD	523976	wordpools/wasnorm_wordpool.txt	LTP117	ltpFR	3	6	-1	MUG	930	n/a	-1	1	1.0	1.0	upper	../fonts/Verdana.ttf
1051.892	n/a	WORD	525946	wordpools/wasnorm_wordpool.txt	LTP117	ltpFR	3	6	-1	SHINGLE	1285	n/a	-1	1	1.0	1.0	upper	../fonts/Verdana.ttf
1056.01	n/a	WORD	528005	wordpools/wasnorm_wordpool.txt	LTP117	ltpFR	3	6	-1	RAT	1169	n/a	-1	1	1.0	1.0	upper	../fonts/Verdana.ttf
1060.088	n/a	WORD	530044	wordpools/wasnorm_wordpool.txt	LTP117	ltpFR	3	6	-1	MOUSE	925	n/a	-1	1	1.0	1.0	upper	../fonts/Verdana.ttf
1064.026	n/a	WORD	532013	wordpools/wasnorm_wordpool.txt	LTP117	ltpFR	3	6	-1	SHRUB	1299	n/a	-1	1	1.0	1.0	upper	../fonts/Verdana.ttf
1068.088	n/a	WORD	534044	wordpools/wasnorm_wordpool.txt	LTP117	ltpFR	3	6	-1	WAVE	1596	n/a	-1	1	1.0	1.0	upper	../fonts/Verdana.ttf
1072.158	n/a	WORD	536079	wordpools/wasnorm_wordpool.txt	LTP117	ltpFR	3	6	-1	PIMPLE	1071	n/a	-1	1	1.0	1.0	upper	../fonts/Verdana.ttf
1076.186	n/a	WORD	538093	wordpools/wasnorm_wordpool.txt	LTP117	ltpFR	3	6	-1	SOCKET	1340	n/a	-1	1	1.0	1.0	upper	../fonts/Verdana.ttf
1081.798	n/a	REC_START	540899	n/a	LTP117	ltpFR	3	6	n/a	n/a	n/a	n/a	n/a	n/a	n/a	n/a	n/a	n/a
1082.258	n/a	REC_WORD	541129	wordpools/wasnorm_wordpool.txt	LTP117	ltpFR	3	6	-1	MOUSE	925	n/a	-1	n/a	n/a	n/a	n/a	n/a
1083.046	n/a	REC_WORD	541523	wordpools/wasnorm_wordpool.txt	LTP117	ltpFR	3	6	-1	RAT	1169	n/a	-1	n/a	n/a	n/a	n/a	n/a
1083.884	n/a	REC_WORD	541942	wordpools/wasnorm_wordpool.txt	LTP117	ltpFR	3	6	-1	WAVE	1596	n/a	-1	n/a	n/a	n/a	n/a	n/a
1084.682	n/a	REC_WORD	542341	wordpools/wasnorm_wordpool.txt	LTP117	ltpFR	3	6	-1	PIMPLE	1071	n/a	-1	n/a	n/a	n/a	n/a	n/a
1085.54	n/a	REC_WORD	542770	wordpools/wasnorm_wordpool.txt	LTP117	ltpFR	3	6	-1	SOCKET	1340	n/a	-1	n/a	n/a	n/a	n/a	n/a
1088.044	n/a	REC_WORD	544022	wordpools/wasnorm_wordpool.txt	LTP117	ltpFR	3	6	-1	SHINGLE	1285	n/a	-1	n/a	n/a	n/a	n/a	n/a
1090.408	n/a	REC_WORD	545204	wordpools/wasnorm_wordpool.txt	LTP117	ltpFR	3	6	-1	SHRUB	1299	n/a	-1	n/a	n/a	n/a	n/a	n/a
1091.408	n/a	REC_WORD_VV	545704	wordpools/wasnorm_wordpool.txt	LTP117	ltpFR	3	6	n/a	<>	-1	n/a	n/a	n/a	n/a	n/a	n/a	n/a
1093.062	n/a	REC_WORD	546531	wordpools/wasnorm_wordpool.txt	LTP117	ltpFR	3	6	-1	TYPEWRITER	1531	n/a	-1	n/a	n/a	n/a	n/a	n/a
1099.418	n/a	REC_WORD	549709	wordpools/wasnorm_wordpool.txt	LTP117	ltpFR	3	6	-1	ARMY	39	n/a	-1	n/a	n/a	n/a	n/a	n/a
1100.056	n/a	REC_WORD	550028	wordpools/wasnorm_wordpool.txt	LTP117	ltpFR	3	6	-1	MILITARY	894	n/a	-1	n/a	n/a	n/a	n/a	n/a
1100.898	n/a	REC_WORD	550449	wordpools/wasnorm_wordpool.txt	LTP117	ltpFR	3	6	-1	SQUID	1361	n/a	-1	n/a	n/a	n/a	n/a	n/a
1101.938	n/a	REC_WORD	550969	wordpools/wasnorm_wordpool.txt	LTP117	ltpFR	3	6	-1	CASHEW	253	n/a	-1	n/a	n/a	n/a	n/a	n/a
1106.526	n/a	REC_WORD	553263	wordpools/wasnorm_wordpool.txt	LTP117	ltpFR	3	6	-1	ARMY	39	n/a	-1	n/a	n/a	n/a	n/a	n/a
1106.95	n/a	REC_WORD	553475	wordpools/wasnorm_wordpool.txt	LTP117	ltpFR	3	6	-1	MILITARY	894	n/a	-1	n/a	n/a	n/a	n/a	n/a
1107.564	n/a	REC_WORD	553782	wordpools/wasnorm_wordpool.txt	LTP117	ltpFR	3	6	-1	SQUID	1361	n/a	-1	n/a	n/a	n/a	n/a	n/a
1107.934	n/a	REC_WORD	553967	wordpools/wasnorm_wordpool.txt	LTP117	ltpFR	3	6	-1	CASHEW	253	n/a	-1	n/a	n/a	n/a	n/a	n/a
1110.512	n/a	REC_WORD_VV	555256	wordpools/wasnorm_wordpool.txt	LTP117	ltpFR	3	6	n/a	<>	-1	n/a	n/a	n/a	n/a	n/a	n/a	n/a
1111.512	n/a	REC_WORD_VV	555756	wordpools/wasnorm_wordpool.txt	LTP117	ltpFR	3	6	n/a	<>	-1	n/a	n/a	n/a	n/a	n/a	n/a	n/a
1114.758	n/a	REC_WORD	557379	wordpools/wasnorm_wordpool.txt	LTP117	ltpFR	3	6	-1	LIMB	822	n/a	-1	n/a	n/a	n/a	n/a	n/a
1119.134	n/a	REC_WORD	559567	wordpools/wasnorm_wordpool.txt	LTP117	ltpFR	3	6	-1	LIMB	822	n/a	-1	n/a	n/a	n/a	n/a	n/a
1125.25	n/a	REC_WORD	562625	wordpools/wasnorm_wordpool.txt	LTP117	ltpFR	3	6	-1	WAVE	1596	n/a	-1	n/a	n/a	n/a	n/a	n/a
1126.972	n/a	REC_WORD_VV	563486	wordpools/wasnorm_wordpool.txt	LTP117	ltpFR	3	6	n/a	<>	-1	n/a	n/a	n/a	n/a	n/a	n/a	n/a
1161.798	n/a	WORD	580899	wordpools/wasnorm_wordpool.txt	LTP117	ltpFR	3	7	1	CARNIVAL	245	n/a	1	0	0.5869140625	0.422607421875	lower	../fonts/amplitud.ttf
1165.818	n/a	WORD	582909	wordpools/wasnorm_wordpool.txt	LTP117	ltpFR	3	7	1	WICK	1607	n/a	0	0	0.5869140625	0.422607421875	lower	../fonts/amplitud.ttf
1169.92	n/a	WORD	584960	wordpools/wasnorm_wordpool.txt	LTP117	ltpFR	3	7	1	CROW	414	n/a	1	0	0.5869140625	0.422607421875	lower	../fonts/amplitud.ttf
1174.032	n/a	WORD	587016	wordpools/wasnorm_wordpool.txt	LTP117	ltpFR	3	7	1	POSSUM	1112	n/a	1	0	0.5869140625	0.422607421875	lower	../fonts/amplitud.ttf
1178.012	n/a	WORD	589006	wordpools/wasnorm_wordpool.txt	LTP117	ltpFR	3	7	1	MONGOOSE	909	n/a	1	0	0.5869140625	0.422607421875	lower	../fonts/amplitud.ttf
1181.892	n/a	WORD	590946	wordpools/wasnorm_wordpool.txt	LTP117	ltpFR	3	7	1	TRANSPLANT	1496	n/a	0	0	0.5869140625	0.422607421875	lower	../fonts/amplitud.ttf
1186.076	n/a	WORD	593038	wordpools/wasnorm_wordpool.txt	LTP117	ltpFR	3	7	1	ARTERY	41	n/a	0	0	0.5869140625	0.422607421875	lower	../fonts/amplitud.ttf
1189.956	n/a	WORD	594978	wordpools/wasnorm_wordpool.txt	LTP117	ltpFR	3	7	1	MESSAGE	888	n/a	0	0	0.5869140625	0.422607421875	lower	../fonts/amplitud.ttf
1193.868	n/a	WORD	596934	wordpools/wasnorm_wordpool.txt	LTP117	ltpFR	3	7	1	HEADBAND	696	n/a	0	0	0.5869140625	0.422607421875	lower	../fonts/amplitud.ttf
1197.698	n/a	WORD	598849	wordpools/wasnorm_wordpool.txt	LTP117	ltpFR	3	7	1	GRAVE	658	n/a	0	0	0.5869140625	0.422607421875	lower	../fonts/amplitud.ttf
1201.61	n/a	WORD	600805	wordpools/wasnorm_wordpool.txt	LTP117	ltpFR	3	7	1	PIGEON	1065	n/a	1	0	0.5869140625	0.422607421875	lower	../fonts/amplitud.ttf
1205.738	n/a	WORD	602869	wordpools/wasnorm_wordpool.txt	LTP117	ltpFR	3	7	1	BASKETBALL	96	n/a	0	0	0.5869140625	0.422607421875	lower	../fonts/amplitud.ttf
1209.66	n/a	WORD	604830	wordpools/wasnorm_wordpool.txt	LTP117	ltpFR	3	7	1	CORD	379	n/a	0	0	0.5869140625	0.422607421875	lower	../fonts/amplitud.ttf
1213.596	n/a	WORD	606798	wordpools/wasnorm_wordpool.txt	LTP117	ltpFR	3	7	1	STRAW	1390	n/a	0	0	0.5869140625	0.422607421875	lower	../fonts/amplitud.ttf
1217.668	n/a	WORD	608834	wordpools/wasnorm_wordpool.txt	LTP117	ltpFR	3	7	1	ZEBRA	1635	n/a	1	0	0.5869140625	0.422607421875	lower	../fonts/amplitud.ttf
1221.512	n/a	WORD	610756	wordpools/wasnorm_wordpool.txt	LTP117	ltpFR	3	7	1	ORCHID	982	n/a	1	0	0.5869140625	0.422607421875	lower	../fonts/amplitud.ttf
1227.54	n/a	REC_START	613770	n/a	LTP117	ltpFR	3	7	n/a	n/a	n/a	n/a	n/a	n/a	n/a	n/a	n/a	n/a
1227.998	n/a	REC_WORD	613999	wordpools/wasnorm_wordpool.txt	LTP117	ltpFR	3	7	1	PIGEON	1065	n/a	1	n/a	n/a	n/a	n/a	n/a
1228.626	n/a	REC_WORD	614313	wordpools/wasnorm_wordpool.txt	LTP117	ltpFR	3	7	1	MONGOOSE	909	n/a	1	n/a	n/a	n/a	n/a	n/a
1229.52	n/a	REC_WORD	614760	wordpools/wasnorm_wordpool.txt	LTP117	ltpFR	3	7	1	BASKETBALL	96	n/a	0	n/a	n/a	n/a	n/a	n/a
1230.29	n/a	REC_WORD	615145	wordpools/wasnorm_wordpool.txt	LTP117	ltpFR	3	7	1	ZEBRA	1635	n/a	1	n/a	n/a	n/a	n/a	n/a
1234.768	n/a	REC_WORD	617384	wordpools/wasnorm_wordpool.txt	LTP117	ltpFR	3	7	1	ORCHID	982	n/a	1	n/a	n/a	n/a	n/a	n/a
1243.982	n/a	REC_WORD	621991	wordpools/wasnorm_wordpool.txt	LTP117	ltpFR	3	7	1	GRAVE	658	n/a	0	n/a	n/a	n/a	n/a	n/a
1245.738	n/a	REC_WORD	622869	wordpools/wasnorm_wordpool.txt	LTP117	ltpFR	3	7	1	HEADBAND	696	n/a	0	n/a	n/a	n/a	n/a	n/a
1250.058	n/a	REC_WORD	625029	wordpools/wasnorm_wordpool.txt	LTP117	ltpFR	3	7	n/a	TRANSPORT	-1	n/a	n/a	n/a	n/a	n/a	n/a	n/a
1251.29	n/a	REC_WORD	625645	wordpools/wasnorm_wordpool.txt	LTP117	ltpFR	3	7	1	TRANSPLANT	1496	n/a	0	n/a	n/a	n/a	n/a	n/a
1252.702	n/a	REC_WORD	626351	wordpools/wasnorm_wordpool.txt	LTP117	ltpFR	3	7	1	ARTERY	41	n/a	0	n/a	n/a	n/a	n/a	n/a
1253.596	n/a	REC_WORD	626798	wordpools/wasnorm_wordpool.txt	LTP117	ltpFR	3	7	1	MESSAGE	888	n/a	0	n/a	n/a	n/a	n/a	n/a
1306.024	n/a	WORD	653012	wordpools/wasnorm_wordpool.txt	LTP117	ltpFR	3	8	1	MARROW	872	n/a	0	0	0.5869140625	0.422607421875	lower	../fonts/amplitud.ttf
1309.96	n/a	WORD	654980	wordpools/wasnorm_wordpool.txt	LTP117	ltpFR	3	8	1	CAT	257	n/a	1	0	0.5869140625	0.422607421875	lower	../fonts/amplitud.ttf
1314.122	n/a	WORD	657061	wordpools/wasnorm_wordpool.txt	LTP117	ltpFR	3	8	1	TAIL	1430	n/a	0	0	0.5869140625	0.422607421875	lower	../fonts/amplitud.ttf
1318.158	n/a	WORD	659079	wordpools/wasnorm_wordpool.txt	LTP117	ltpFR	3	8	0	SHARK	1275	n/a	1	1	0.412841796875	0.57763671875	upper	../fonts/zerothre.ttf
1321.988	n/a	WORD	660994	wordpools/wasnorm_wordpool.txt	LTP117	ltpFR	3	8	0	THERMOMETER	1453	n/a	0	1	0.412841796875	0.57763671875	upper	../fonts/zerothre.ttf
1326.108	n/a	WORD	663054	wordpools/wasnorm_wordpool.txt	LTP117	ltpFR	3	8	0	CHIPMUNK	304	n/a	1	1	0.412841796875	0.57763671875	upper	../fonts/zerothre.ttf
1330.054	n/a	WORD	665027	wordpools/wasnorm_wordpool.txt	LTP117	ltpFR	3	8	0	PASTRY	1022	n/a	0	1	0.412841796875	0.57763671875	upper	../fonts/zerothre.ttf
1333.958	n/a	WORD	666979	wordpools/wasnorm_wordpool.txt	LTP117	ltpFR	3	8	1	TABLE	1426	n/a	0	0	0.5869140625	0.422607421875	lower	../fonts/amplitud.ttf
1337.862	n/a	WORD	668931	wordpools/wasnorm_wordpool.txt	LTP117	ltpFR	3	8	1	PORCH	1106	n/a	0	0	0.5869140625	0.422607421875	lower	../fonts/amplitud.ttf
1341.932	n/a	WORD	670966	wordpools/wasnorm_wordpool.txt	LTP117	ltpFR	3	8	0	SHEARS	1276	n/a	1	1	0.412841796875	0.57763671875	upper	../fonts/zerothre.ttf
1346.118	n/a	WORD	673059	wordpools/wasnorm_wordpool.txt	LTP117	ltpFR	3	8	0	WOLF	1619	n/a	1	1	0.412841796875	0.57763671875	upper	../fonts/zerothre.ttf
1350.014	n/a	WORD	675007	wordpools/wasnorm_wordpool.txt	LTP117	ltpFR	3	8	0	ZOO	1637	n/a	1	1	0.412841796875	0.57763671875	upper	../fonts/zerothre.ttf
1354.008	n/a	WORD	677004	wordpools/wasnorm_wordpool.txt	LTP117	ltpFR	3	8	0	STOVE	1388	n/a	0	1	0.412841796875	0.57763671875	upper	../fonts/zerothre.ttf
1358.03	n/a	WORD	679015	wordpools/wasnorm_wordpool.txt	LTP117	ltpFR	3	8	1	FISH	571	n/a	1	0	0.5869140625	0.422607421875	lower	../fonts/amplitud.ttf
1362.166	n/a	WORD	681083	wordpools/wasnorm_wordpool.txt	LTP117	ltpFR	3	8	1	PILOT	1070	n/a	1	0	0.5869140625	0.422607421875	lower	../fonts/amplitud.ttf
1365.986	n/a	WORD	682993	wordpools/wasnorm_wordpool.txt	LTP117	ltpFR	3	8	1	INTESTINE	742	n/a	0	0	0.5869140625	0.422607421875	lower	../fonts/amplitud.ttf
1371.656	n/a	REC_START	685828	n/a	LTP117	ltpFR	3	8	n/a	n/a	n/a	n/a	n/a	n/a	n/a	n/a	n/a	n/a
1372.056	n/a	REC_WORD	686028	wordpools/wasnorm_wordpool.txt	LTP117	ltpFR	3	8	1	TABLE	1426	n/a	0	n/a	n/a	n/a	n/a	n/a
1373.034	n/a	REC_WORD	686517	wordpools/wasnorm_wordpool.txt	LTP117	ltpFR	3	8	0	SHEARS	1276	n/a	1	n/a	n/a	n/a	n/a	n/a
1374.15	n/a	REC_WORD	687075	wordpools/wasnorm_wordpool.txt	LTP117	ltpFR	3	8	0	SHEARS	1276	n/a	1	n/a	n/a	n/a	n/a	n/a
1375.608	n/a	REC_WORD	687804	wordpools/wasnorm_wordpool.txt	LTP117	ltpFR	3	8	0	WOLF	1619	n/a	1	n/a	n/a	n/a	n/a	n/a
1376.502	n/a	REC_WORD	688251	wordpools/wasnorm_wordpool.txt	LTP117	ltpFR	3	8	0	ZOO	1637	n/a	1	n/a	n/a	n/a	n/a	n/a
1389.406	n/a	REC_WORD	694703	wordpools/wasnorm_wordpool.txt	LTP117	ltpFR	3	8	0	SHARK	1275	n/a	1	n/a	n/a	n/a	n/a	n/a
1409.836	n/a	REC_WORD	704918	wordpools/wasnorm_wordpool.txt	LTP117	ltpFR	3	8	1	CAT	257	n/a	1	n/a	n/a	n/a	n/a	n/a
1410.394	n/a	REC_WORD_VV	705197	wordpools/wasnorm_wordpool.txt	LTP117	ltpFR	3	8	n/a	<>	-1	n/a	n/a	n/a	n/a	n/a	n/a	n/a
1411.222	n/a	REC_WORD	705611	wordpools/wasnorm_wordpool.txt	LTP117	ltpFR	3	8	1	CAT	257	n/a	1	n/a	n/a	n/a	n/a	n/a
1412.046	n/a	REC_WORD	706023	wordpools/wasnorm_wordpool.txt	LTP117	ltpFR	3	8	1	TAIL	1430	n/a	0	n/a	n/a	n/a	n/a	n/a
1450.056	n/a	WORD	725028	wordpools/wasnorm_wordpool.txt	LTP117	ltpFR	3	9	-1	CLAMP	316	n/a	-1	1	1.0	1.0	upper	../fonts/Verdana.ttf
1454.218	n/a	WORD	727109	wordpools/wasnorm_wordpool.txt	LTP117	ltpFR	3	9	-1	ENGINE	535	n/a	-1	1	1.0	1.0	upper	../fonts/Verdana.ttf
1458.222	n/a	WORD	729111	wordpools/wasnorm_wordpool.txt	LTP117	ltpFR	3	9	-1	BELLY	119	n/a	-1	1	1.0	1.0	upper	../fonts/Verdana.ttf
1462.378	n/a	WORD	731189	wordpools/wasnorm_wordpool.txt	LTP117	ltpFR	3	9	-1	MAYONNAISE	880	n/a	-1	1	1.0	1.0	upper	../fonts/Verdana.ttf
1466.198	n/a	WORD	733099	wordpools/wasnorm_wordpool.txt	LTP117	ltpFR	3	9	-1	PAW	1029	n/a	-1	1	1.0	1.0	upper	../fonts/Verdana.ttf
1470.068	n/a	WORD	735034	wordpools/wasnorm_wordpool.txt	LTP117	ltpFR	3	9	-1	COLESLAW	344	n/a	-1	1	1.0	1.0	upper	../fonts/Verdana.ttf
1474.138	n/a	WORD	737069	wordpools/wasnorm_wordpool.txt	LTP117	ltpFR	3	9	-1	RELISH	1183	n/a	-1	1	1.0	1.0	upper	../fonts/Verdana.ttf
1478.284	n/a	WORD	739142	wordpools/wasnorm_wordpool.txt	LTP117	ltpFR	3	9	-1	CHART	282	n/a	-1	1	1.0	1.0	upper	../fonts/Verdana.ttf
1482.422	n/a	WORD	741211	wordpools/wasnorm_wordpool.txt	LTP117	ltpFR	3	9	-1	MEDAL	885	n/a	-1	1	1.0	1.0	upper	../fonts/Verdana.ttf
1486.358	n/a	WORD	743179	wordpools/wasnorm_wordpool.txt	LTP117	ltpFR	3	9	-1	PIZZA	1079	n/a	-1	1	1.0	1.0	upper	../fonts/Verdana.ttf
1490.404	n/a	WORD	745202	wordpools/wasnorm_wordpool.txt	LTP117	ltpFR	3	9	-1	TOMBSTONE	1478	n/a	-1	1	1.0	1.0	upper	../fonts/Verdana.ttf
1494.3	n/a	WORD	747150	wordpools/wasnorm_wordpool.txt	LTP117	ltpFR	3	9	-1	COIN	343	n/a	-1	1	1.0	1.0	upper	../fonts/Verdana.ttf
1498.202	n/a	WORD	749101	wordpools/wasnorm_wordpool.txt	LTP117	ltpFR	3	9	-1	TREASURE	1500	n/a	-1	1	1.0	1.0	upper	../fonts/Verdana.ttf
1502.398	n/a	WORD	751199	wordpools/wasnorm_wordpool.txt	LTP117	ltpFR	3	9	-1	CEMETERY	269	n/a	-1	1	1.0	1.0	upper	../fonts/Verdana.ttf
1506.534	n/a	WORD	753267	wordpools/wasnorm_wordpool.txt	LTP117	ltpFR	3	9	-1	CASKET	255	n/a	-1	1	1.0	1.0	upper	../fonts/Verdana.ttf
1510.438	n/a	WORD	755219	wordpools/wasnorm_wordpool.txt	LTP117	ltpFR	3	9	-1	TECHNICIAN	1443	n/a	-1	1	1.0	1.0	upper	../fonts/Verdana.ttf
1516.248	n/a	REC_START	758124	n/a	LTP117	ltpFR	3	9	n/a	n/a	n/a	n/a	n/a	n/a	n/a	n/a	n/a	n/a
1516.856	n/a	REC_WORD	758428	wordpools/wasnorm_wordpool.txt	LTP117	ltpFR	3	9	-1	TOMBSTONE	1478	n/a	-1	n/a	n/a	n/a	n/a	n/a
1517.672	n/a	REC_WORD	758836	wordpools/wasnorm_wordpool.txt	LTP117	ltpFR	3	9	-1	CEMETERY	269	n/a	-1	n/a	n/a	n/a	n/a	n/a
1518.722	n/a	REC_WORD	759361	wordpools/wasnorm_wordpool.txt	LTP117	ltpFR	3	9	-1	TECHNICIAN	1443	n/a	-1	n/a	n/a	n/a	n/a	n/a
1519.92	n/a	REC_WORD	759960	wordpools/wasnorm_wordpool.txt	LTP117	ltpFR	3	9	-1	PIZZA	1079	n/a	-1	n/a	n/a	n/a	n/a	n/a
1520.902	n/a	REC_WORD	760451	wordpools/wasnorm_wordpool.txt	LTP117	ltpFR	3	9	-1	MEDAL	885	n/a	-1	n/a	n/a	n/a	n/a	n/a
1521.78	n/a	REC_WORD	760890	wordpools/wasnorm_wordpool.txt	LTP117	ltpFR	3	9	-1	CLAMP	316	n/a	-1	n/a	n/a	n/a	n/a	n/a
1522.704	n/a	REC_WORD	761352	wordpools/wasnorm_wordpool.txt	LTP117	ltpFR	3	9	-1	BELLY	119	n/a	-1	n/a	n/a	n/a	n/a	n/a
1523.592	n/a	REC_WORD	761796	wordpools/wasnorm_wordpool.txt	LTP117	ltpFR	3	9	-1	ENGINE	535	n/a	-1	n/a	n/a	n/a	n/a	n/a
1524.494	n/a	REC_WORD	762247	wordpools/wasnorm_wordpool.txt	LTP117	ltpFR	3	9	-1	MAYONNAISE	880	n/a	-1	n/a	n/a	n/a	n/a	n/a
1525.442	n/a	REC_WORD	762721	wordpools/wasnorm_wordpool.txt	LTP117	ltpFR	3	9	-1	COLESLAW	344	n/a	-1	n/a	n/a	n/a	n/a	n/a
1526.654	n/a	REC_WORD	763327	wordpools/wasnorm_wordpool.txt	LTP117	ltpFR	3	9	-1	RELISH	1183	n/a	-1	n/a	n/a	n/a	n/a	n/a
1535.938	n/a	REC_WORD	767969	wordpools/wasnorm_wordpool.txt	LTP117	ltpFR	3	9	-1	CLAMP	316	n/a	-1	n/a	n/a	n/a	n/a	n/a
1536.498	n/a	REC_WORD	768249	wordpools/wasnorm_wordpool.txt	LTP117	ltpFR	3	9	-1	BELLY	119	n/a	-1	n/a	n/a	n/a	n/a	n/a
1537.1	n/a	REC_WORD	768550	wordpools/wasnorm_wordpool.txt	LTP117	ltpFR	3	9	-1	MAYONNAISE	880	n/a	-1	n/a	n/a	n/a	n/a	n/a
1537.764	n/a	REC_WORD	768882	wordpools/wasnorm_wordpool.txt	LTP117	ltpFR	3	9	-1	ENGINE	535	n/a	-1	n/a	n/a	n/a	n/a	n/a
1538.422	n/a	REC_WORD	769211	wordpools/wasnorm_wordpool.txt	LTP117	ltpFR	3	9	-1	TOMBSTONE	1478	n/a	-1	n/a	n/a	n/a	n/a	n/a
1542.648	n/a	REC_WORD	771324	wordpools/wasnorm_wordpool.txt	LTP117	ltpFR	3	9	-1	CEMETERY	269	n/a	-1	n/a	n/a	n/a	n/a	n/a
1543.622	n/a	REC_WORD	771811	wordpools/wasnorm_wordpool.txt	LTP117	ltpFR	3	9	n/a	GRAVEYARD	-1	n/a	n/a	n/a	n/a	n/a	n/a	n/a
1546.636	n/a	REC_WORD	773318	wordpools/wasnorm_wordpool.txt	LTP117	ltpFR	3	9	-1	MAYONNAISE	880	n/a	-1	n/a	n/a	n/a	n/a	n/a
1553.276	n/a	REC_WORD	776638	wordpools/wasnorm_wordpool.txt	LTP117	ltpFR	3	9	-1	PIZZA	1079	n/a	-1	n/a	n/a	n/a	n/a	n/a
1553.802	n/a	REC_WORD	776901	wordpools/wasnorm_wordpool.txt	LTP117	ltpFR	3	9	-1	MEDAL	885	n/a	-1	n/a	n/a	n/a	n/a	n/a
1554.462	n/a	REC_WORD	777231	wordpools/wasnorm_wordpool.txt	LTP117	ltpFR	3	9	-1	TOMBSTONE	1478	n/a	-1	n/a	n/a	n/a	n/a	n/a
1579.072	n/a	REC_WORD	789536	wordpools/wasnorm_wordpool.txt	LTP117	ltpFR	3	9	-1	CASKET	255	n/a	-1	n/a	n/a	n/a	n/a	n/a
1595.206	n/a	WORD	797603	wordpools/wasnorm_wordpool.txt	LTP117	ltpFR	3	10	-1	CELLAR	267	n/a	-1	1	1.0	1.0	upper	../fonts/Verdana.ttf
1599.218	n/a	WORD	799609	wordpools/wasnorm_wordpool.txt	LTP117	ltpFR	3	10	-1	WINE	1613	n/a	-1	1	1.0	1.0	upper	../fonts/Verdana.ttf
1603.072	n/a	WORD	801536	wordpools/wasnorm_wordpool.txt	LTP117	ltpFR	3	10	-1	CUFF	423	n/a	-1	1	1.0	1.0	upper	../fonts/Verdana.ttf
1607.192	n/a	WORD	803596	wordpools/wasnorm_wordpool.txt	LTP117	ltpFR	3	10	-1	SPOUSE	1358	n/a	-1	1	1.0	1.0	upper	../fonts/Verdana.ttf
1611.056	n/a	WORD	805528	wordpools/wasnorm_wordpool.txt	LTP117	ltpFR	3	10	-1	SCARECROW	1245	n/a	-1	1	1.0	1.0	upper	../fonts/Verdana.ttf
1614.886	n/a	WORD	807443	wordpools/wasnorm_wordpool.txt	LTP117	ltpFR	3	10	-1	COW	393	n/a	-1	1	1.0	1.0	upper	../fonts/Verdana.ttf
1618.97	n/a	WORD	809485	wordpools/wasnorm_wordpool.txt	LTP117	ltpFR	3	10	-1	TIMBER	1469	n/a	-1	1	1.0	1.0	upper	../fonts/Verdana.ttf
1623.1	n/a	WORD	811550	wordpools/wasnorm_wordpool.txt	LTP117	ltpFR	3	10	-1	TREE	1502	n/a	-1	1	1.0	1.0	upper	../fonts/Verdana.ttf
1627.18	n/a	WORD	813590	wordpools/wasnorm_wordpool.txt	LTP117	ltpFR	3	10	-1	CHEESE	289	n/a	-1	1	1.0	1.0	upper	../fonts/Verdana.ttf
1631.108	n/a	WORD	815554	wordpools/wasnorm_wordpool.txt	LTP117	ltpFR	3	10	-1	CRACKER	398	n/a	-1	1	1.0	1.0	upper	../fonts/Verdana.ttf
1635.262	n/a	WORD	817631	wordpools/wasnorm_wordpool.txt	LTP117	ltpFR	3	10	-1	WIFE	1609	n/a	-1	1	1.0	1.0	upper	../fonts/Verdana.ttf
1639.166	n/a	WORD	819583	wordpools/wasnorm_wordpool.txt	LTP117	ltpFR	3	10	-1	DRESS	495	n/a	-1	1	1.0	1.0	upper	../fonts/Verdana.ttf
1643.294	n/a	WORD	821647	wordpools/wasnorm_wordpool.txt	LTP117	ltpFR	3	10	-1	CHEMIST	292	n/a	-1	1	1.0	1.0	upper	../fonts/Verdana.ttf
1647.156	n/a	WORD	823578	wordpools/wasnorm_wordpool.txt	LTP117	ltpFR	3	10	-1	PENGUIN	1044	n/a	-1	1	1.0	1.0	upper	../fonts/Verdana.ttf
1650.976	n/a	WORD	825488	wordpools/wasnorm_wordpool.txt	LTP117	ltpFR	3	10	-1	STUDENT	1395	n/a	-1	1	1.0	1.0	upper	../fonts/Verdana.ttf
1655.096	n/a	WORD	827548	wordpools/wasnorm_wordpool.txt	LTP117	ltpFR	3	10	-1	FREEWAY	603	n/a	-1	1	1.0	1.0	upper	../fonts/Verdana.ttf
1660.784	n/a	REC_START	830392	n/a	LTP117	ltpFR	3	10	n/a	n/a	n/a	n/a	n/a	n/a	n/a	n/a	n/a	n/a
1661.198	n/a	REC_WORD	830599	wordpools/wasnorm_wordpool.txt	LTP117	ltpFR	3	10	-1	STUDENT	1395	n/a	-1	n/a	n/a	n/a	n/a	n/a
1662.146	n/a	REC_WORD	831073	wordpools/wasnorm_wordpool.txt	LTP117	ltpFR	3	10	-1	CHEMIST	292	n/a	-1	n/a	n/a	n/a	n/a	n/a
1662.808	n/a	REC_WORD	831404	wordpools/wasnorm_wordpool.txt	LTP117	ltpFR	3	10	-1	FREEWAY	603	n/a	-1	n/a	n/a	n/a	n/a	n/a
1663.952	n/a	REC_WORD	831976	wordpools/wasnorm_wordpool.txt	LTP117	ltpFR	3	10	-1	WIFE	1609	n/a	-1	n/a	n/a	n/a	n/a	n/a
1664.704	n/a	REC_WORD	832352	wordpools/wasnorm_wordpool.txt	LTP117	ltpFR	3	10	-1	DRESS	495	n/a	-1	n/a	n/a	n/a	n/a	n/a
1665.392	n/a	REC_WORD	832696	wordpools/wasnorm_wordpool.txt	LTP117	ltpFR	3	10	-1	SPOUSE	1358	n/a	-1	n/a	n/a	n/a	n/a	n/a
1666.31	n/a	REC_WORD	833155	wordpools/wasnorm_wordpool.txt	LTP117	ltpFR	3	10	-1	WINE	1613	n/a	-1	n/a	n/a	n/a	n/a	n/a
1667.098	n/a	REC_WORD	833549	wordpools/wasnorm_wordpool.txt	LTP117	ltpFR	3	10	-1	CELLAR	267	n/a	-1	n/a	n/a	n/a	n/a	n/a
1668.106	n/a	REC_WORD	834053	wordpools/wasnorm_wordpool.txt	LTP117	ltpFR	3	10	-1	COW	393	n/a	-1	n/a	n/a	n/a	n/a	n/a
1669.16	n/a	REC_WORD	834580	wordpools/wasnorm_wordpool.txt	LTP117	ltpFR	3	10	-1	CHEESE	289	n/a	-1	n/a	n/a	n/a	n/a	n/a
1670.078	n/a	REC_WORD	835039	wordpools/wasnorm_wordpool.txt	LTP117	ltpFR	3	10	-1	CRACKER	398	n/a	-1	n/a	n/a	n/a	n/a	n/a
1670.95	n/a	REC_WORD	835475	wordpools/wasnorm_wordpool.txt	LTP117	ltpFR	3	10	-1	CRACKER	398	n/a	-1	n/a	n/a	n/a	n/a	n/a
1678.288	n/a	REC_WORD	839144	wordpools/wasnorm_wordpool.txt	LTP117	ltpFR	3	10	-1	CUFF	423	n/a	-1	n/a	n/a	n/a	n/a	n/a
1679.904	n/a	REC_WORD	839952	wordpools/wasnorm_wordpool.txt	LTP117	ltpFR	3	10	-1	WIFE	1609	n/a	-1	n/a	n/a	n/a	n/a	n/a
1680.424	n/a	REC_WORD	840212	wordpools/wasnorm_wordpool.txt	LTP117	ltpFR	3	10	-1	SPOUSE	1358	n/a	-1	n/a	n/a	n/a	n/a	n/a
1687.388	n/a	REC_WORD	843694	wordpools/wasnorm_wordpool.txt	LTP117	ltpFR	3	10	-1	FREEWAY	603	n/a	-1	n/a	n/a	n/a	n/a	n/a
1694.836	n/a	REC_WORD	847418	wordpools/wasnorm_wordpool.txt	LTP117	ltpFR	3	10	-1	CHEMIST	292	n/a	-1	n/a	n/a	n/a	n/a	n/a
1695.664	n/a	REC_WORD	847832	wordpools/wasnorm_wordpool.txt	LTP117	ltpFR	3	10	-1	STUDENT	1395	n/a	-1	n/a	n/a	n/a	n/a	n/a
1698.398	n/a	REC_WORD	849199	wordpools/wasnorm_wordpool.txt	LTP117	ltpFR	3	10	-1	DRESS	495	n/a	-1	n/a	n/a	n/a	n/a	n/a
1739.192	n/a	WORD	869596	wordpools/wasnorm_wordpool.txt	LTP117	ltpFR	3	11	0	BEAST	108	n/a	1	1	0.412841796875	0.57763671875	upper	../fonts/zerothre.ttf
1743.304	n/a	WORD	871652	wordpools/wasnorm_wordpool.txt	LTP117	ltpFR	3	11	0	GAZELLE	628	n/a	1	1	0.412841796875	0.57763671875	upper	../fonts/zerothre.ttf
1747.116	n/a	WORD	873558	wordpools/wasnorm_wordpool.txt	LTP117	ltpFR	3	11	0	BLADE	134	n/a	0	1	0.412841796875	0.57763671875	upper	../fonts/zerothre.ttf
1751.028	n/a	WORD	875514	wordpools/wasnorm_wordpool.txt	LTP117	ltpFR	3	11	1	FIDDLE	561	n/a	0	0	0.5869140625	0.422607421875	lower	../fonts/amplitud.ttf
1755.04	n/a	WORD	877520	wordpools/wasnorm_wordpool.txt	LTP117	ltpFR	3	11	1	ADOLESCENT	7	n/a	1	0	0.5869140625	0.422607421875	lower	../fonts/amplitud.ttf
1759.044	n/a	WORD	879522	wordpools/wasnorm_wordpool.txt	LTP117	ltpFR	3	11	0	NEWSSTAND	949	n/a	0	1	0.412841796875	0.57763671875	upper	../fonts/zerothre.ttf
1762.98	n/a	WORD	881490	wordpools/wasnorm_wordpool.txt	LTP117	ltpFR	3	11	0	PASSENGER	1020	n/a	1	1	0.412841796875	0.57763671875	upper	../fonts/zerothre.ttf
1766.952	n/a	WORD	883476	wordpools/wasnorm_wordpool.txt	LTP117	ltpFR	3	11	0	DIAPER	459	n/a	0	1	0.412841796875	0.57763671875	upper	../fonts/zerothre.ttf
1770.906	n/a	WORD	885453	wordpools/wasnorm_wordpool.txt	LTP117	ltpFR	3	11	1	OWNER	993	n/a	1	0	0.5869140625	0.422607421875	lower	../fonts/amplitud.ttf
1774.95	n/a	WORD	887475	wordpools/wasnorm_wordpool.txt	LTP117	ltpFR	3	11	1	TICKET	1464	n/a	0	0	0.5869140625	0.422607421875	lower	../fonts/amplitud.ttf
1778.788	n/a	WORD	889394	wordpools/wasnorm_wordpool.txt	LTP117	ltpFR	3	11	1	QUAIL	1147	n/a	1	0	0.5869140625	0.422607421875	lower	../fonts/amplitud.ttf
1782.668	n/a	WORD	891334	wordpools/wasnorm_wordpool.txt	LTP117	ltpFR	3	11	1	WINGS	1614	n/a	1	0	0.5869140625	0.422607421875	lower	../fonts/amplitud.ttf
1786.838	n/a	WORD	893419	wordpools/wasnorm_wordpool.txt	LTP117	ltpFR	3	11	1	UTENSIL	1542	n/a	1	0	0.5869140625	0.422607421875	lower	../fonts/amplitud.ttf
1790.766	n/a	WORD	895383	wordpools/wasnorm_wordpool.txt	LTP117	ltpFR	3	11	1	SUPPER	1411	n/a	1	0	0.5869140625	0.422607421875	lower	../fonts/amplitud.ttf
1794.712	n/a	WORD	897356	wordpools/wasnorm_wordpool.txt	LTP117	ltpFR	3	11	0	TUBA	1515	n/a	0	1	0.412841796875	0.57763671875	upper	../fonts/zerothre.ttf
1798.892	n/a	WORD	899446	wordpools/wasnorm_wordpool.txt	LTP117	ltpFR	3	11	0	BOY	161	n/a	1	1	0.412841796875	0.57763671875	upper	../fonts/zerothre.ttf
1804.444	n/a	REC_START	902222	n/a	LTP117	ltpFR	3	11	n/a	n/a	n/a	n/a	n/a	n/a	n/a	n/a	n/a	n/a
1805.082	n/a	REC_WORD	902541	wordpools/wasnorm_wordpool.txt	LTP117	ltpFR	3	11	1	ADOLESCENT	7	n/a	1	n/a	n/a	n/a	n/a	n/a
1805.904	n/a	REC_WORD	902952	wordpools/wasnorm_wordpool.txt	LTP117	ltpFR	3	11	0	BOY	161	n/a	1	n/a	n/a	n/a	n/a	n/a
1806.822	n/a	REC_WORD	903411	wordpools/wasnorm_wordpool.txt	LTP117	ltpFR	3	11	0	TUBA	1515	n/a	0	n/a	n/a	n/a	n/a	n/a
1807.81	n/a	REC_WORD	903905	wordpools/wasnorm_wordpool.txt	LTP117	ltpFR	3	11	1	OWNER	993	n/a	1	n/a	n/a	n/a	n/a	n/a
1808.578	n/a	REC_WORD	904289	wordpools/wasnorm_wordpool.txt	LTP117	ltpFR	3	11	1	TICKET	1464	n/a	0	n/a	n/a	n/a	n/a	n/a
1809.332	n/a	REC_WORD	904666	wordpools/wasnorm_wordpool.txt	LTP117	ltpFR	3	11	1	QUAIL	1147	n/a	1	n/a	n/a	n/a	n/a	n/a
1810.256	n/a	REC_WORD	905128	wordpools/wasnorm_wordpool.txt	LTP117	ltpFR	3	11	1	WINGS	1614	n/a	1	n/a	n/a	n/a	n/a	n/a
1811.048	n/a	REC_WORD	905524	wordpools/wasnorm_wordpool.txt	LTP117	ltpFR	3	11	1	SUPPER	1411	n/a	1	n/a	n/a	n/a	n/a	n/a
1812.13	n/a	REC_WORD	906065	wordpools/wasnorm_wordpool.txt	LTP117	ltpFR	3	11	1	WINGS	1614	n/a	1	n/a	n/a	n/a	n/a	n/a
1813.014	n/a	REC_WORD	906507	wordpools/wasnorm_wordpool.txt	LTP117	ltpFR	3	11	1	UTENSIL	1542	n/a	1	n/a	n/a	n/a	n/a	n/a
1814.53	n/a	REC_WORD	907265	wordpools/wasnorm_wordpool.txt	LTP117	ltpFR	3	11	0	BEAST	108	n/a	1	n/a	n/a	n/a	n/a	n/a
1816.58	n/a	REC_WORD	908290	wordpools/wasnorm_wordpool.txt	LTP117	ltpFR	3	11	1	OWNER	993	n/a	1	n/a	n/a	n/a	n/a	n/a
1820.486	n/a	REC_WORD	910243	wordpools/wasnorm_wordpool.txt	LTP117	ltpFR	3	11	0	NEWSSTAND	949	n/a	0	n/a	n/a	n/a	n/a	n/a
1826.524	n/a	REC_WORD	913262	wordpools/wasnorm_wordpool.txt	LTP117	ltpFR	3	11	0	PASSENGER	1020	n/a	1	n/a	n/a	n/a	n/a	n/a
1827.87	n/a	REC_WORD	913935	wordpools/wasnorm_wordpool.txt	LTP117	ltpFR	3	11	0	BOY	161	n/a	1	n/a	n/a	n/a	n/a	n/a
1828.384	n/a	REC_WORD	914192	wordpools/wasnorm_wordpool.txt	LTP117	ltpFR	3	11	1	ADOLESCENT	7	n/a	1	n/a	n/a	n/a	n/a	n/a
1882.844	n/a	WORD	941422	wordpools/wasnorm_wordpool.txt	LTP117	ltpFR	3	12	0	EDITORIAL	517	n/a	0	1	0.412841796875	0.57763671875	upper	../fonts/zerothre.ttf
1886.724	n/a	WORD	943362	wordpools/wasnorm_wordpool.txt	LTP117	ltpFR	3	12	0	BILL	126	n/a	0	1	0.412841796875	0.57763671875	upper	../fonts/zerothre.ttf
1890.818	n/a	WORD	945409	wordpools/wasnorm_wordpool.txt	LTP117	ltpFR	3	12	0	CHAUFFEUR	283	n/a	1	1	0.412841796875	0.57763671875	upper	../fonts/zerothre.ttf
1894.664	n/a	WORD	947332	wordpools/wasnorm_wordpool.txt	LTP117	ltpFR	3	12	0	ALLEY	15	n/a	1	1	0.412841796875	0.57763671875	upper	../fonts/zerothre.ttf
1898.792	n/a	WORD	949396	wordpools/wasnorm_wordpool.txt	LTP117	ltpFR	3	12	0	HIGHWAY	707	n/a	1	1	0.412841796875	0.57763671875	upper	../fonts/zerothre.ttf
1902.704	n/a	WORD	951352	wordpools/wasnorm_wordpool.txt	LTP117	ltpFR	3	12	0	BUREAU	199	n/a	0	1	0.412841796875	0.57763671875	upper	../fonts/zerothre.ttf
1906.65	n/a	WORD	953325	wordpools/wasnorm_wordpool.txt	LTP117	ltpFR	3	12	0	UNDERWEAR	1537	n/a	0	1	0.412841796875	0.57763671875	upper	../fonts/zerothre.ttf
1910.862	n/a	WORD	955431	wordpools/wasnorm_wordpool.txt	LTP117	ltpFR	3	12	0	QUARTER	1148	n/a	0	1	0.412841796875	0.57763671875	upper	../fonts/zerothre.ttf
1914.732	n/a	WORD	957366	wordpools/wasnorm_wordpool.txt	LTP117	ltpFR	3	12	0	GROUND	666	n/a	0	1	0.412841796875	0.57763671875	upper	../fonts/zerothre.ttf
1918.828	n/a	WORD	959414	wordpools/wasnorm_wordpool.txt	LTP117	ltpFR	3	12	0	MICROWAVE	892	n/a	1	1	0.412841796875	0.57763671875	upper	../fonts/zerothre.ttf
1922.79	n/a	WORD	961395	wordpools/wasnorm_wordpool.txt	LTP117	ltpFR	3	12	0	LILY	821	n/a	1	1	0.412841796875	0.57763671875	upper	../fonts/zerothre.ttf
1926.836	n/a	WORD	963418	wordpools/wasnorm_wordpool.txt	LTP117	ltpFR	3	12	0	MOUTH	926	n/a	0	1	0.412841796875	0.57763671875	upper	../fonts/zerothre.ttf
1930.93	n/a	WORD	965465	wordpools/wasnorm_wordpool.txt	LTP117	ltpFR	3	12	0	GLOBE	641	n/a	1	1	0.412841796875	0.57763671875	upper	../fonts/zerothre.ttf
1934.884	n/a	WORD	967442	wordpools/wasnorm_wordpool.txt	LTP117	ltpFR	3	12	0	SALESMAN	1225	n/a	1	1	0.412841796875	0.57763671875	upper	../fonts/zerothre.ttf
1938.738	n/a	WORD	969369	wordpools/wasnorm_wordpool.txt	LTP117	ltpFR	3	12	0	BANNER	85	n/a	1	1	0.412841796875	0.57763671875	upper	../fonts/zerothre.ttf
1942.808	n/a	WORD	971404	wordpools/wasnorm_wordpool.txt	LTP117	ltpFR	3	12	0	COUNTRY	388	n/a	1	1	0.412841796875	0.57763671875	upper	../fonts/zerothre.ttf
1948.41	n/a	REC_START	974205	n/a	LTP117	ltpFR	3	12	n/a	n/a	n/a	n/a	n/a	n/a	n/a	n/a	n/a	n/a
1948.83	n/a	REC_WORD	974415	wordpools/wasnorm_wordpool.txt	LTP117	ltpFR	3	12	0	GLOBE	641	n/a	1	n/a	n/a	n/a	n/a	n/a
1949.512	n/a	REC_WORD	974756	wordpools/wasnorm_wordpool.txt	LTP117	ltpFR	3	12	0	SALESMAN	1225	n/a	1	n/a	n/a	n/a	n/a	n/a
1950.526	n/a	REC_WORD	975263	wordpools/wasnorm_wordpool.txt	LTP117	ltpFR	3	12	0	BANNER	85	n/a	1	n/a	n/a	n/a	n/a	n/a
1951.284	n/a	REC_WORD	975642	wordpools/wasnorm_wordpool.txt	LTP117	ltpFR	3	12	0	COUNTRY	388	n/a	1	n/a	n/a	n/a	n/a	n/a
1952.232	n/a	REC_WORD	976116	wordpools/wasnorm_wordpool.txt	LTP117	ltpFR	3	12	0	LILY	821	n/a	1	n/a	n/a	n/a	n/a	n/a
1953.13	n/a	REC_WORD	976565	wordpools/wasnorm_wordpool.txt	LTP117	ltpFR	3	12	0	MOUTH	926	n/a	0	n/a	n/a	n/a	n/a	n/a
1956.96	n/a	REC_WORD	978480	wordpools/wasnorm_wordpool.txt	LTP117	ltpFR	3	12	0	EDITORIAL	517	n/a	0	n/a	n/a	n/a	n/a	n/a
1960.494	n/a	REC_WORD	980247	wordpools/wasnorm_wordpool.txt	LTP117	ltpFR	3	12	0	SALESMAN	1225	n/a	1	n/a	n/a	n/a	n/a	n/a
1968.366	n/a	REC_WORD	984183	wordpools/wasnorm_wordpool.txt	LTP117	ltpFR	3	12	0	ALLEY	15	n/a	1	n/a	n/a	n/a	n/a	n/a
1969.604	n/a	REC_WORD	984802	wordpools/wasnorm_wordpool.txt	LTP117	ltpFR	3	12	0	CHAUFFEUR	283	n/a	1	n/a	n/a	n/a	n/a	n/a
1971.064	n/a	REC_WORD	985532	wordpools/wasnorm_wordpool.txt	LTP117	ltpFR	3	12	0	HIGHWAY	707	n/a	1	n/a	n/a	n/a	n/a	n/a
1972.346	n/a	REC_WORD	986173	wordpools/wasnorm_wordpool.txt	LTP117	ltpFR	3	12	0	BUREAU	199	n/a	0	n/a	n/a	n/a	n/a	n/a
1973.524	n/a	REC_WORD	986762	wordpools/wasnorm_wordpool.txt	LTP117	ltpFR	3	12	0	UNDERWEAR	1537	n/a	0	n/a	n/a	n/a	n/a	n/a
1984.6	n/a	REC_WORD	992300	wordpools/wasnorm_wordpool.txt	LTP117	ltpFR	3	12	0	CHAUFFEUR	283	n/a	1	n/a	n/a	n/a	n/a	n/a
1988.216	n/a	REC_WORD	994108	wordpools/wasnorm_wordpool.txt	LTP117	ltpFR	3	12	0	ALLEY	15	n/a	1	n/a	n/a	n/a	n/a	n/a
1988.712	n/a	REC_WORD	994356	wordpools/wasnorm_wordpool.txt	LTP117	ltpFR	3	12	0	HIGHWAY	707	n/a	1	n/a	n/a	n/a	n/a	n/a
1990.84	n/a	REC_WORD	995420	wordpools/wasnorm_wordpool.txt	LTP117	ltpFR	3	12	0	BUREAU	199	n/a	0	n/a	n/a	n/a	n/a	n/a
1991.364	n/a	REC_WORD	995682	wordpools/wasnorm_wordpool.txt	LTP117	ltpFR	3	12	0	UNDERWEAR	1537	n/a	0	n/a	n/a	n/a	n/a	n/a
1996.472	n/a	REC_WORD	998236	wordpools/wasnorm_wordpool.txt	LTP117	ltpFR	3	12	0	LILY	821	n/a	1	n/a	n/a	n/a	n/a	n/a
1997.29	n/a	REC_WORD	998645	wordpools/wasnorm_wordpool.txt	LTP117	ltpFR	3	12	0	MOUTH	926	n/a	0	n/a	n/a	n/a	n/a	n/a
2024.006	n/a	REST_REWET	1012003	n/a	LTP117	ltpFR	3	12	n/a	n/a	n/a	n/a	n/a	n/a	n/a	n/a	n/a	n/a
2471.402	n/a	WORD	1235701	wordpools/wasnorm_wordpool.txt	LTP117	ltpFR	3	13	0	ROCKET	1202	n/a	1	1	0.412841796875	0.57763671875	upper	../fonts/zerothre.ttf
2475.456	n/a	WORD	1237728	wordpools/wasnorm_wordpool.txt	LTP117	ltpFR	3	13	0	RAFT	1159	n/a	1	1	0.412841796875	0.57763671875	upper	../fonts/zerothre.ttf
2479.36	n/a	WORD	1239680	wordpools/wasnorm_wordpool.txt	LTP117	ltpFR	3	13	0	BUNNY	198	n/a	1	1	0.412841796875	0.57763671875	upper	../fonts/zerothre.ttf
2483.53	n/a	WORD	1241765	wordpools/wasnorm_wordpool.txt	LTP117	ltpFR	3	13	0	GREASE	660	n/a	0	1	0.412841796875	0.57763671875	upper	../fonts/zerothre.ttf
2487.582	n/a	WORD	1243791	wordpools/wasnorm_wordpool.txt	LTP117	ltpFR	3	13	0	VEAL	1551	n/a	1	1	0.412841796875	0.57763671875	upper	../fonts/zerothre.ttf
2491.562	n/a	WORD	1245781	wordpools/wasnorm_wordpool.txt	LTP117	ltpFR	3	13	0	WIRE	1616	n/a	1	1	0.412841796875	0.57763671875	upper	../fonts/zerothre.ttf
2495.598	n/a	WORD	1247799	wordpools/wasnorm_wordpool.txt	LTP117	ltpFR	3	13	0	FOX	598	n/a	1	1	0.412841796875	0.57763671875	upper	../fonts/zerothre.ttf
2499.594	n/a	WORD	1249797	wordpools/wasnorm_wordpool.txt	LTP117	ltpFR	3	13	0	VEHICLE	1553	n/a	1	1	0.412841796875	0.57763671875	upper	../fonts/zerothre.ttf
2503.748	n/a	WORD	1251874	wordpools/wasnorm_wordpool.txt	LTP117	ltpFR	3	13	0	SOAP	1337	n/a	1	1	0.412841796875	0.57763671875	upper	../fonts/zerothre.ttf
2507.918	n/a	WORD	1253959	wordpools/wasnorm_wordpool.txt	LTP117	ltpFR	3	13	0	GRASS	655	n/a	0	1	0.412841796875	0.57763671875	upper	../fonts/zerothre.ttf
2512.012	n/a	WORD	1256006	wordpools/wasnorm_wordpool.txt	LTP117	ltpFR	3	13	0	RAKE	1164	n/a	0	1	0.412841796875	0.57763671875	upper	../fonts/zerothre.ttf
2515.974	n/a	WORD	1257987	wordpools/wasnorm_wordpool.txt	LTP117	ltpFR	3	13	0	STALLION	1369	n/a	1	1	0.412841796875	0.57763671875	upper	../fonts/zerothre.ttf
2519.994	n/a	WORD	1259997	wordpools/wasnorm_wordpool.txt	LTP117	ltpFR	3	13	0	HORSE	719	n/a	1	1	0.412841796875	0.57763671875	upper	../fonts/zerothre.ttf
2524.022	n/a	WORD	1262011	wordpools/wasnorm_wordpool.txt	LTP117	ltpFR	3	13	0	OPERATOR	979	n/a	1	1	0.412841796875	0.57763671875	upper	../fonts/zerothre.ttf
2527.836	n/a	WORD	1263918	wordpools/wasnorm_wordpool.txt	LTP117	ltpFR	3	13	0	PARTNER	1017	n/a	1	1	0.412841796875	0.57763671875	upper	../fonts/zerothre.ttf
2531.906	n/a	WORD	1265953	wordpools/wasnorm_wordpool.txt	LTP117	ltpFR	3	13	0	OCTOPUS	971	n/a	1	1	0.412841796875	0.57763671875	upper	../fonts/zerothre.ttf
2537.534	n/a	REC_START	1268767	n/a	LTP117	ltpFR	3	13	n/a	n/a	n/a	n/a	n/a	n/a	n/a	n/a	n/a	n/a
2537.882	n/a	REC_WORD	1268941	wordpools/wasnorm_wordpool.txt	LTP117	ltpFR	3	13	0	GRASS	655	n/a	0	n/a	n/a	n/a	n/a	n/a
2538.51	n/a	REC_WORD	1269255	wordpools/wasnorm_wordpool.txt	LTP117	ltpFR	3	13	0	RAKE	1164	n/a	0	n/a	n/a	n/a	n/a	n/a
2539.134	n/a	REC_WORD	1269567	wordpools/wasnorm_wordpool.txt	LTP117	ltpFR	3	13	0	STALLION	1369	n/a	1	n/a	n/a	n/a	n/a	n/a
2539.948	n/a	REC_WORD	1269974	wordpools/wasnorm_wordpool.txt	LTP117	ltpFR	3	13	0	HORSE	719	n/a	1	n/a	n/a	n/a	n/a	n/a
2540.726	n/a	REC_WORD	1270363	wordpools/wasnorm_wordpool.txt	LTP117	ltpFR	3	13	0	PARTNER	1017	n/a	1	n/a	n/a	n/a	n/a	n/a
2541.424	n/a	REC_WORD	1270712	wordpools/wasnorm_wordpool.txt	LTP117	ltpFR	3	13	0	OCTOPUS	971	n/a	1	n/a	n/a	n/a	n/a	n/a
2542.112	n/a	REC_WORD	1271056	wordpools/wasnorm_wordpool.txt	LTP117	ltpFR	3	13	0	FOX	598	n/a	1	n/a	n/a	n/a	n/a	n/a
2542.866	n/a	REC_WORD	1271433	wordpools/wasnorm_wordpool.txt	LTP117	ltpFR	3	13	0	GRASS	655	n/a	0	n/a	n/a	n/a	n/a	n/a
2544.654	n/a	REC_WORD	1272327	wordpools/wasnorm_wordpool.txt	LTP117	ltpFR	3	13	0	WIRE	1616	n/a	1	n/a	n/a	n/a	n/a	n/a
2550.096	n/a	REC_WORD	1275048	wordpools/wasnorm_wordpool.txt	LTP117	ltpFR	3	13	0	VEHICLE	1553	n/a	1	n/a	n/a	n/a	n/a	n/a
2560.238	n/a	REC_WORD	1280119	wordpools/wasnorm_wordpool.txt	LTP117	ltpFR	3	13	0	OCTOPUS	971	n/a	1	n/a	n/a	n/a	n/a	n/a
2562.114	n/a	REC_WORD	1281057	wordpools/wasnorm_wordpool.txt	LTP117	ltpFR	3	13	0	FOX	598	n/a	1	n/a	n/a	n/a	n/a	n/a
2563.684	n/a	REC_WORD	1281842	wordpools/wasnorm_wordpool.txt	LTP117	ltpFR	3	13	0	WIRE	1616	n/a	1	n/a	n/a	n/a	n/a	n/a
2565.924	n/a	REC_WORD	1282962	wordpools/wasnorm_wordpool.txt	LTP117	ltpFR	3	13	0	VEHICLE	1553	n/a	1	n/a	n/a	n/a	n/a	n/a
2569.148	n/a	REC_WORD	1284574	wordpools/wasnorm_wordpool.txt	LTP117	ltpFR	3	13	0	GRASS	655	n/a	0	n/a	n/a	n/a	n/a	n/a
2589.72	n/a	REC_WORD	1294860	wordpools/wasnorm_wordpool.txt	LTP117	ltpFR	3	13	0	ROCKET	1202	n/a	1	n/a	n/a	n/a	n/a	n/a
2615.36	n/a	WORD	1307680	wordpools/wasnorm_wordpool.txt	LTP117	ltpFR	3	14	1	FLEA	577	n/a	1	0	0.5869140625	0.422607421875	lower	../fonts/amplitud.ttf
2619.472	n/a	WORD	1309736	wordpools/wasnorm_wordpool.txt	LTP117	ltpFR	3	14	1	BONE	148	n/a	0	0	0.5869140625	0.422607421875	lower	../fonts/amplitud.ttf
2623.484	n/a	WORD	1311742	wordpools/wasnorm_wordpool.txt	LTP117	ltpFR	3	14	1	HEN	703	n/a	1	0	0.5869140625	0.422607421875	lower	../fonts/amplitud.ttf
2627.338	n/a	WORD	1313669	wordpools/wasnorm_wordpool.txt	LTP117	ltpFR	3	14	1	CAVITY	264	n/a	0	0	0.5869140625	0.422607421875	lower	../fonts/amplitud.ttf
2631.392	n/a	WORD	1315696	wordpools/wasnorm_wordpool.txt	LTP117	ltpFR	3	14	1	HELMET	702	n/a	1	0	0.5869140625	0.422607421875	lower	../fonts/amplitud.ttf
2635.572	n/a	WORD	1317786	wordpools/wasnorm_wordpool.txt	LTP117	ltpFR	3	14	1	PASSAGE	1019	n/a	0	0	0.5869140625	0.422607421875	lower	../fonts/amplitud.ttf
2639.608	n/a	WORD	1319804	wordpools/wasnorm_wordpool.txt	LTP117	ltpFR	3	14	1	STOMACH	1384	n/a	1	0	0.5869140625	0.422607421875	lower	../fonts/amplitud.ttf
2643.746	n/a	WORD	1321873	wordpools/wasnorm_wordpool.txt	LTP117	ltpFR	3	14	1	LION	827	n/a	1	0	0.5869140625	0.422607421875	lower	../fonts/amplitud.ttf
2647.708	n/a	WORD	1323854	wordpools/wasnorm_wordpool.txt	LTP117	ltpFR	3	14	1	DOCK	477	n/a	0	0	0.5869140625	0.422607421875	lower	../fonts/amplitud.ttf
2651.528	n/a	WORD	1325764	wordpools/wasnorm_wordpool.txt	LTP117	ltpFR	3	14	1	CANE	231	n/a	0	0	0.5869140625	0.422607421875	lower	../fonts/amplitud.ttf
2655.348	n/a	WORD	1327674	wordpools/wasnorm_wordpool.txt	LTP117	ltpFR	3	14	1	STOCKING	1383	n/a	1	0	0.5869140625	0.422607421875	lower	../fonts/amplitud.ttf
2659.234	n/a	WORD	1329617	wordpools/wasnorm_wordpool.txt	LTP117	ltpFR	3	14	1	REINDEER	1181	n/a	1	0	0.5869140625	0.422607421875	lower	../fonts/amplitud.ttf
2663.306	n/a	WORD	1331653	wordpools/wasnorm_wordpool.txt	LTP117	ltpFR	3	14	1	DOOR	486	n/a	1	0	0.5869140625	0.422607421875	lower	../fonts/amplitud.ttf
2667.176	n/a	WORD	1333588	wordpools/wasnorm_wordpool.txt	LTP117	ltpFR	3	14	1	CREATURE	403	n/a	0	0	0.5869140625	0.422607421875	lower	../fonts/amplitud.ttf
2671.112	n/a	WORD	1335556	wordpools/wasnorm_wordpool.txt	LTP117	ltpFR	3	14	1	LIZARD	834	n/a	1	0	0.5869140625	0.422607421875	lower	../fonts/amplitud.ttf
2675.292	n/a	WORD	1337646	wordpools/wasnorm_wordpool.txt	LTP117	ltpFR	3	14	1	CHICKEN	297	n/a	1	0	0.5869140625	0.422607421875	lower	../fonts/amplitud.ttf
2681.31	n/a	REC_START	1340655	n/a	LTP117	ltpFR	3	14	n/a	n/a	n/a	n/a	n/a	n/a	n/a	n/a	n/a	n/a
2681.79	n/a	REC_WORD	1340895	wordpools/wasnorm_wordpool.txt	LTP117	ltpFR	3	14	1	LIZARD	834	n/a	1	n/a	n/a	n/a	n/a	n/a
2682.538	n/a	REC_WORD	1341269	wordpools/wasnorm_wordpool.txt	LTP117	ltpFR	3	14	1	CHICKEN	297	n/a	1	n/a	n/a	n/a	n/a	n/a
2683.238	n/a	REC_WORD	1341619	wordpools/wasnorm_wordpool.txt	LTP117	ltpFR	3	14	1	HEN	703	n/a	1	n/a	n/a	n/a	n/a	n/a
2684.034	n/a	REC_WORD	1342017	wordpools/wasnorm_wordpool.txt	LTP117	ltpFR	3	14	1	REINDEER	1181	n/a	1	n/a	n/a	n/a	n/a	n/a
2685.056	n/a	REC_WORD	1342528	wordpools/wasnorm_wordpool.txt	LTP117	ltpFR	3	14	1	CREATURE	403	n/a	0	n/a	n/a	n/a	n/a	n/a
2686.0	n/a	REC_WORD	1343000	wordpools/wasnorm_wordpool.txt	LTP117	ltpFR	3	14	1	DOOR	486	n/a	1	n/a	n/a	n/a	n/a	n/a
2687.232	n/a	REC_WORD	1343616	wordpools/wasnorm_wordpool.txt	LTP117	ltpFR	3	14	1	STOCKING	1383	n/a	1	n/a	n/a	n/a	n/a	n/a
2689.77	n/a	REC_WORD	1344885	wordpools/wasnorm_wordpool.txt	LTP117	ltpFR	3	14	1	HEN	703	n/a	1	n/a	n/a	n/a	n/a	n/a
2692.31	n/a	REC_WORD	1346155	wordpools/wasnorm_wordpool.txt	LTP117	ltpFR	3	14	1	FLEA	577	n/a	1	n/a	n/a	n/a	n/a	n/a
2697.344	n/a	REC_WORD	1348672	wordpools/wasnorm_wordpool.txt	LTP117	ltpFR	3	14	1	HELMET	702	n/a	1	n/a	n/a	n/a	n/a	n/a
2698.936	n/a	REC_WORD	1349468	wordpools/wasnorm_wordpool.txt	LTP117	ltpFR	3	14	1	PASSAGE	1019	n/a	0	n/a	n/a	n/a	n/a	n/a
2729.916	n/a	REC_WORD_VV	1364958	wordpools/wasnorm_wordpool.txt	LTP117	ltpFR	3	14	n/a	<>	-1	n/a	n/a	n/a	n/a	n/a	n/a	n/a
2760.568	n/a	WORD	1380284	wordpools/wasnorm_wordpool.txt	LTP117	ltpFR	3	15	1	LAGOON	795	n/a	0	0	0.5869140625	0.422607421875	lower	../fonts/amplitud.ttf
2764.722	n/a	WORD	1382361	wordpools/wasnorm_wordpool.txt	LTP117	ltpFR	3	15	1	TEAPOT	1442	n/a	0	0	0.5869140625	0.422607421875	lower	../fonts/amplitud.ttf
2768.634	n/a	WORD	1384317	wordpools/wasnorm_wordpool.txt	LTP117	ltpFR	3	15	1	BROOK	177	n/a	0	0	0.5869140625	0.422607421875	lower	../fonts/amplitud.ttf
2772.538	n/a	WORD	1386269	wordpools/wasnorm_wordpool.txt	LTP117	ltpFR	3	15	1	GYMNAST	675	n/a	1	0	0.5869140625	0.422607421875	lower	../fonts/amplitud.ttf
2776.358	n/a	WORD	1388179	wordpools/wasnorm_wordpool.txt	LTP117	ltpFR	3	15	1	SKIRT	1319	n/a	0	0	0.5869140625	0.422607421875	lower	../fonts/amplitud.ttf
2780.412	n/a	WORD	1390206	wordpools/wasnorm_wordpool.txt	LTP117	ltpFR	3	15	0	TROUT	1511	n/a	1	1	0.412841796875	0.57763671875	upper	../fonts/zerothre.ttf
2784.24	n/a	WORD	1392120	wordpools/wasnorm_wordpool.txt	LTP117	ltpFR	3	15	0	BLUEJAY	141	n/a	1	1	0.412841796875	0.57763671875	upper	../fonts/zerothre.ttf
2788.42	n/a	WORD	1394210	wordpools/wasnorm_wordpool.txt	LTP117	ltpFR	3	15	0	PERCH	1048	n/a	1	1	0.412841796875	0.57763671875	upper	../fonts/zerothre.ttf
2792.456	n/a	WORD	1396228	wordpools/wasnorm_wordpool.txt	LTP117	ltpFR	3	15	0	SHOVEL	1295	n/a	0	1	0.412841796875	0.57763671875	upper	../fonts/zerothre.ttf
2796.594	n/a	WORD	1398297	wordpools/wasnorm_wordpool.txt	LTP117	ltpFR	3	15	1	GRAVEL	659	n/a	0	0	0.5869140625	0.422607421875	lower	../fonts/amplitud.ttf
2800.69	n/a	WORD	1400345	wordpools/wasnorm_wordpool.txt	LTP117	ltpFR	3	15	1	WASHER	1592	n/a	0	0	0.5869140625	0.422607421875	lower	../fonts/amplitud.ttf
2804.71	n/a	WORD	1402355	wordpools/wasnorm_wordpool.txt	LTP117	ltpFR	3	15	1	SARDINE	1235	n/a	1	0	0.5869140625	0.422607421875	lower	../fonts/amplitud.ttf
2808.54	n/a	WORD	1404270	wordpools/wasnorm_wordpool.txt	LTP117	ltpFR	3	15	0	TROMBONE	1508	n/a	1	1	0.412841796875	0.57763671875	upper	../fonts/zerothre.ttf
2812.702	n/a	WORD	1406351	wordpools/wasnorm_wordpool.txt	LTP117	ltpFR	3	15	0	PUCK	1138	n/a	0	1	0.412841796875	0.57763671875	upper	../fonts/zerothre.ttf
2816.596	n/a	WORD	1408298	wordpools/wasnorm_wordpool.txt	LTP117	ltpFR	3	15	0	PELICAN	1039	n/a	1	1	0.412841796875	0.57763671875	upper	../fonts/zerothre.ttf
2820.534	n/a	WORD	1410267	wordpools/wasnorm_wordpool.txt	LTP117	ltpFR	3	15	0	SEA	1259	n/a	0	1	0.412841796875	0.57763671875	upper	../fonts/zerothre.ttf
2826.428	n/a	REC_START	1413214	n/a	LTP117	ltpFR	3	15	n/a	n/a	n/a	n/a	n/a	n/a	n/a	n/a	n/a	n/a
2826.876	n/a	REC_WORD	1413438	wordpools/wasnorm_wordpool.txt	LTP117	ltpFR	3	15	0	TROUT	1511	n/a	1	n/a	n/a	n/a	n/a	n/a
2827.504	n/a	REC_WORD	1413752	wordpools/wasnorm_wordpool.txt	LTP117	ltpFR	3	15	1	SARDINE	1235	n/a	1	n/a	n/a	n/a	n/a	n/a
2828.632	n/a	REC_WORD	1414316	wordpools/wasnorm_wordpool.txt	LTP117	ltpFR	3	15	0	SEA	1259	n/a	0	n/a	n/a	n/a	n/a	n/a
2829.794	n/a	REC_WORD	1414897	wordpools/wasnorm_wordpool.txt	LTP117	ltpFR	3	15	0	PELICAN	1039	n/a	1	n/a	n/a	n/a	n/a	n/a
2840.226	n/a	REC_WORD	1420113	wordpools/wasnorm_wordpool.txt	LTP117	ltpFR	3	15	0	TROMBONE	1508	n/a	1	n/a	n/a	n/a	n/a	n/a
2860.1	n/a	REC_WORD	1430050	wordpools/wasnorm_wordpool.txt	LTP117	ltpFR	3	15	1	GYMNAST	675	n/a	1	n/a	n/a	n/a	n/a	n/a
2905.91	n/a	WORD	1452955	wordpools/wasnorm_wordpool.txt	LTP117	ltpFR	3	16	1	MUSEUM	933	n/a	0	0	0.5869140625	0.422607421875	lower	../fonts/amplitud.ttf
2909.798	n/a	WORD	1454899	wordpools/wasnorm_wordpool.txt	LTP117	ltpFR	3	16	1	TIE	1466	n/a	0	0	0.5869140625	0.422607421875	lower	../fonts/amplitud.ttf
2913.852	n/a	WORD	1456926	wordpools/wasnorm_wordpool.txt	LTP117	ltpFR	3	16	1	UNCLE	1536	n/a	1	0	0.5869140625	0.422607421875	lower	../fonts/amplitud.ttf
2917.672	n/a	WORD	1458836	wordpools/wasnorm_wordpool.txt	LTP117	ltpFR	3	16	1	RELATIVE	1182	n/a	1	0	0.5869140625	0.422607421875	lower	../fonts/amplitud.ttf
2921.842	n/a	WORD	1460921	wordpools/wasnorm_wordpool.txt	LTP117	ltpFR	3	16	1	RIVER	1194	n/a	0	0	0.5869140625	0.422607421875	lower	../fonts/amplitud.ttf
2925.928	n/a	WORD	1462964	wordpools/wasnorm_wordpool.txt	LTP117	ltpFR	3	16	1	JOINT	758	n/a	0	0	0.5869140625	0.422607421875	lower	../fonts/amplitud.ttf
2930.056	n/a	WORD	1465028	wordpools/wasnorm_wordpool.txt	LTP117	ltpFR	3	16	1	SANDWICH	1232	n/a	1	0	0.5869140625	0.422607421875	lower	../fonts/amplitud.ttf
2934.234	n/a	WORD	1467117	wordpools/wasnorm_wordpool.txt	LTP117	ltpFR	3	16	1	THUMB	1462	n/a	1	0	0.5869140625	0.422607421875	lower	../fonts/amplitud.ttf
2938.18	n/a	WORD	1469090	wordpools/wasnorm_wordpool.txt	LTP117	ltpFR	3	16	1	FAMILY	550	n/a	1	0	0.5869140625	0.422607421875	lower	../fonts/amplitud.ttf
2942.018	n/a	WORD	1471009	wordpools/wasnorm_wordpool.txt	LTP117	ltpFR	3	16	1	TUNNEL	1519	n/a	0	0	0.5869140625	0.422607421875	lower	../fonts/amplitud.ttf
2946.204	n/a	WORD	1473102	wordpools/wasnorm_wordpool.txt	LTP117	ltpFR	3	16	1	LIVER	833	n/a	0	0	0.5869140625	0.422607421875	lower	../fonts/amplitud.ttf
2950.408	n/a	WORD	1475204	wordpools/wasnorm_wordpool.txt	LTP117	ltpFR	3	16	1	ROACH	1195	n/a	1	0	0.5869140625	0.422607421875	lower	../fonts/amplitud.ttf
2954.296	n/a	WORD	1477148	wordpools/wasnorm_wordpool.txt	LTP117	ltpFR	3	16	1	COCOON	339	n/a	0	0	0.5869140625	0.422607421875	lower	../fonts/amplitud.ttf
2958.316	n/a	WORD	1479158	wordpools/wasnorm_wordpool.txt	LTP117	ltpFR	3	16	1	WALL	1582	n/a	1	0	0.5869140625	0.422607421875	lower	../fonts/amplitud.ttf
2962.43	n/a	WORD	1481215	wordpools/wasnorm_wordpool.txt	LTP117	ltpFR	3	16	1	CAFETERIA	217	n/a	0	0	0.5869140625	0.422607421875	lower	../fonts/amplitud.ttf
2966.342	n/a	WORD	1483171	wordpools/wasnorm_wordpool.txt	LTP117	ltpFR	3	16	1	FINGER	567	n/a	1	0	0.5869140625	0.422607421875	lower	../fonts/amplitud.ttf
2972.092	n/a	REC_START	1486046	n/a	LTP117	ltpFR	3	16	n/a	n/a	n/a	n/a	n/a	n/a	n/a	n/a	n/a	n/a
2972.482	n/a	REC_WORD	1486241	wordpools/wasnorm_wordpool.txt	LTP117	ltpFR	3	16	1	WALL	1582	n/a	1	n/a	n/a	n/a	n/a	n/a
2972.99	n/a	REC_WORD	1486495	wordpools/wasnorm_wordpool.txt	LTP117	ltpFR	3	16	1	CAFETERIA	217	n/a	0	n/a	n/a	n/a	n/a	n/a
2973.964	n/a	REC_WORD	1486982	wordpools/wasnorm_wordpool.txt	LTP117	ltpFR	3	16	1	FINGER	567	n/a	1	n/a	n/a	n/a	n/a	n/a
2974.662	n/a	REC_WORD	1487331	wordpools/wasnorm_wordpool.txt	LTP117	ltpFR	3	16	1	THUMB	1462	n/a	1	n/a	n/a	n/a	n/a	n/a
2975.614	n/a	REC_WORD	1487807	wordpools/wasnorm_wordpool.txt	LTP117	ltpFR	3	16	1	ROACH	1195	n/a	1	n/a	n/a	n/a	n/a	n/a
2976.338	n/a	REC_WORD	1488169	wordpools/wasnorm_wordpool.txt	LTP117	ltpFR	3	16	1	JOINT	758	n/a	0	n/a	n/a	n/a	n/a	n/a
2977.21	n/a	REC_WORD	1488605	wordpools/wasnorm_wordpool.txt	LTP117	ltpFR	3	16	1	UNCLE	1536	n/a	1	n/a	n/a	n/a	n/a	n/a
2977.928	n/a	REC_WORD	1488964	wordpools/wasnorm_wordpool.txt	LTP117	ltpFR	3	16	1	RELATIVE	1182	n/a	1	n/a	n/a	n/a	n/a	n/a
2979.366	n/a	REC_WORD	1489683	wordpools/wasnorm_wordpool.txt	LTP117	ltpFR	3	16	1	RIVER	1194	n/a	0	n/a	n/a	n/a	n/a	n/a
2980.05	n/a	REC_WORD	1490025	wordpools/wasnorm_wordpool.txt	LTP117	ltpFR	3	16	1	MUSEUM	933	n/a	0	n/a	n/a	n/a	n/a	n/a
2993.778	n/a	REC_WORD	1496889	wordpools/wasnorm_wordpool.txt	LTP117	ltpFR	3	16	1	RIVER	1194	n/a	0	n/a	n/a	n/a	n/a	n/a
2995.47	n/a	REC_WORD	1497735	wordpools/wasnorm_wordpool.txt	LTP117	ltpFR	3	16	1	SANDWICH	1232	n/a	1	n/a	n/a	n/a	n/a	n/a
2997.49	n/a	REC_WORD	1498745	wordpools/wasnorm_wordpool.txt	LTP117	ltpFR	3	16	1	JOINT	758	n/a	0	n/a	n/a	n/a	n/a	n/a
2999.824	n/a	REC_WORD	1499912	wordpools/wasnorm_wordpool.txt	LTP117	ltpFR	3	16	1	THUMB	1462	n/a	1	n/a	n/a	n/a	n/a	n/a
3001.122	n/a	REC_WORD	1500561	wordpools/wasnorm_wordpool.txt	LTP117	ltpFR	3	16	1	FINGER	567	n/a	1	n/a	n/a	n/a	n/a	n/a
3002.214	n/a	REC_WORD	1501107	wordpools/wasnorm_wordpool.txt	LTP117	ltpFR	3	16	1	ROACH	1195	n/a	1	n/a	n/a	n/a	n/a	n/a
3003.246	n/a	REC_WORD	1501623	wordpools/wasnorm_wordpool.txt	LTP117	ltpFR	3	16	1	COCOON	339	n/a	0	n/a	n/a	n/a	n/a	n/a
3026.744	n/a	REC_WORD	1513372	wordpools/wasnorm_wordpool.txt	LTP117	ltpFR	3	16	n/a	WALLPAPER	-1	n/a	n/a	n/a	n/a	n/a	n/a	n/a
3078.962	n/a	REC_START	1539481	n/a	LTP117	ltpFR	3	1	n/a	n/a	n/a	n/a	n/a	n/a	n/a	n/a	n/a	n/a
3078.986	n/a	RECOG_LURE	1539493	n/a	LTP117	ltpFR	3	1	n/a	LIME	823	4	n/a	n/a	n/a	n/a	n/a	n/a
3080.564	n/a	RECOG_RESP	1540282	n/a	LTP117	ltpFR	3	1	n/a	LIME	823	n/a	n/a	n/a	n/a	n/a	n/a	n/a
3081.83	n/a	RECOG_CONF	1540915	n/a	LTP117	ltpFR	3	1	n/a	LIME	823	4	n/a	n/a	n/a	n/a	n/a	n/a
3083.556	n/a	RECOG_TARGET	1541778	n/a	LTP117	ltpFR	3	1	1	ROACH	1195	5	1	n/a	n/a	n/a	n/a	n/a
3084.226	n/a	RECOG_RESP	1542113	n/a	LTP117	ltpFR	3	1	1	ROACH	1195	n/a	1	n/a	n/a	n/a	n/a	n/a
3084.964	n/a	RECOG_CONF	1542482	n/a	LTP117	ltpFR	3	1	1	ROACH	1195	5	1	n/a	n/a	n/a	n/a	n/a
3086.478	n/a	RECOG_TARGET	1543239	n/a	LTP117	ltpFR	3	1	1	STOMACH	1384	5	1	n/a	n/a	n/a	n/a	n/a
3087.608	n/a	RECOG_RESP	1543804	n/a	LTP117	ltpFR	3	1	1	STOMACH	1384	n/a	1	n/a	n/a	n/a	n/a	n/a
3088.316	n/a	RECOG_CONF	1544158	n/a	LTP117	ltpFR	3	1	1	STOMACH	1384	5	1	n/a	n/a	n/a	n/a	n/a
3089.808	n/a	RECOG_TARGET	1544904	n/a	LTP117	ltpFR	3	1	0	BUNNY	198	3	1	n/a	n/a	n/a	n/a	n/a
3090.796	n/a	RECOG_RESP	1545398	n/a	LTP117	ltpFR	3	1	0	BUNNY	198	n/a	1	n/a	n/a	n/a	n/a	n/a
3091.508	n/a	RECOG_CONF	1545754	n/a	LTP117	ltpFR	3	1	0	BUNNY	198	3	1	n/a	n/a	n/a	n/a	n/a
3092.994	n/a	RECOG_TARGET	1546497	n/a	LTP117	ltpFR	3	1	0	SEA	1259	5	0	n/a	n/a	n/a	n/a	n/a
3093.584	n/a	RECOG_RESP	1546792	n/a	LTP117	ltpFR	3	1	0	SEA	1259	n/a	0	n/a	n/a	n/a	n/a	n/a
3094.272	n/a	RECOG_CONF	1547136	n/a	LTP117	ltpFR	3	1	0	SEA	1259	5	0	n/a	n/a	n/a	n/a	n/a
3095.734	n/a	RECOG_TARGET	1547867	n/a	LTP117	ltpFR	3	1	1	PIT	1077	5	0	n/a	n/a	n/a	n/a	n/a
3096.552	n/a	RECOG_RESP	1548276	n/a	LTP117	ltpFR	3	1	1	PIT	1077	n/a	0	n/a	n/a	n/a	n/a	n/a
3097.186	n/a	RECOG_CONF	1548593	n/a	LTP117	ltpFR	3	1	1	PIT	1077	5	0	n/a	n/a	n/a	n/a	n/a
3098.656	n/a	RECOG_TARGET	1549328	n/a	LTP117	ltpFR	3	1	-1	STAKE	1368	5	-1	n/a	n/a	n/a	n/a	n/a
3099.34	n/a	RECOG_RESP	1549670	n/a	LTP117	ltpFR	3	1	-1	STAKE	1368	n/a	-1	n/a	n/a	n/a	n/a	n/a
3100.01	n/a	RECOG_CONF	1550005	n/a	LTP117	ltpFR	3	1	-1	STAKE	1368	5	-1	n/a	n/a	n/a	n/a	n/a
3101.494	n/a	RECOG_TARGET	1550747	n/a	LTP117	ltpFR	3	1	1	STOCKING	1383	5	1	n/a	n/a	n/a	n/a	n/a
3102.054	n/a	RECOG_RESP	1551027	n/a	LTP117	ltpFR	3	1	1	STOCKING	1383	n/a	1	n/a	n/a	n/a	n/a	n/a
3102.704	n/a	RECOG_CONF	1551352	n/a	LTP117	ltpFR	3	1	1	STOCKING	1383	5	1	n/a	n/a	n/a	n/a	n/a
3104.132	n/a	RECOG_TARGET	1552066	n/a	LTP117	ltpFR	3	1	-1	COLESLAW	344	5	-1	n/a	n/a	n/a	n/a	n/a
3104.724	n/a	RECOG_RESP	1552362	n/a	LTP117	ltpFR	3	1	-1	COLESLAW	344	n/a	-1	n/a	n/a	n/a	n/a	n/a
3105.408	n/a	RECOG_CONF	1552704	n/a	LTP117	ltpFR	3	1	-1	COLESLAW	344	5	-1	n/a	n/a	n/a	n/a	n/a
3106.904	n/a	RECOG_TARGET	1553452	n/a	LTP117	ltpFR	3	1	0	ROOST	1208	5	0	n/a	n/a	n/a	n/a	n/a
3109.274	n/a	RECOG_RESP	1554637	n/a	LTP117	ltpFR	3	1	0	ROOST	1208	n/a	0	n/a	n/a	n/a	n/a	n/a
3109.956	n/a	RECOG_CONF	1554978	n/a	LTP117	ltpFR	3	1	0	ROOST	1208	5	0	n/a	n/a	n/a	n/a	n/a
3111.508	n/a	RECOG_TARGET	1555754	n/a	LTP117	ltpFR	3	1	-1	DOUGHNUT	490	5	-1	n/a	n/a	n/a	n/a	n/a
3112.042	n/a	RECOG_RESP	1556021	n/a	LTP117	ltpFR	3	1	-1	DOUGHNUT	490	n/a	-1	n/a	n/a	n/a	n/a	n/a
3112.7	n/a	RECOG_CONF	1556350	n/a	LTP117	ltpFR	3	1	-1	DOUGHNUT	490	5	-1	n/a	n/a	n/a	n/a	n/a
3114.128	n/a	RECOG_LURE	1557064	n/a	LTP117	ltpFR	3	1	n/a	HINGE	709	3	n/a	n/a	n/a	n/a	n/a	n/a
3116.712	n/a	RECOG_RESP	1558356	n/a	LTP117	ltpFR	3	1	n/a	HINGE	709	n/a	n/a	n/a	n/a	n/a	n/a	n/a
3117.55	n/a	RECOG_CONF	1558775	n/a	LTP117	ltpFR	3	1	n/a	HINGE	709	3	n/a	n/a	n/a	n/a	n/a	n/a
3119.122	n/a	RECOG_LURE	1559561	n/a	LTP117	ltpFR	3	1	n/a	BALLOON	75	3	n/a	n/a	n/a	n/a	n/a	n/a
3120.692	n/a	RECOG_RESP	1560346	n/a	LTP117	ltpFR	3	1	n/a	BALLOON	75	n/a	n/a	n/a	n/a	n/a	n/a	n/a
3121.42	n/a	RECOG_CONF	1560710	n/a	LTP117	ltpFR	3	1	n/a	BALLOON	75	3	n/a	n/a	n/a	n/a	n/a	n/a
3122.928	n/a	RECOG_TARGET	1561464	n/a	LTP117	ltpFR	3	1	0	GLOBE	641	5	1	n/a	n/a	n/a	n/a	n/a
3123.556	n/a	RECOG_RESP	1561778	n/a	LTP117	ltpFR	3	1	0	GLOBE	641	n/a	1	n/a	n/a	n/a	n/a	n/a
3124.184	n/a	RECOG_CONF	1562092	n/a	LTP117	ltpFR	3	1	0	GLOBE	641	5	1	n/a	n/a	n/a	n/a	n/a
3125.658	n/a	RECOG_TARGET	1562829	n/a	LTP117	ltpFR	3	1	1	FISH	571	3	1	n/a	n/a	n/a	n/a	n/a
3127.228	n/a	RECOG_RESP	1563614	n/a	LTP117	ltpFR	3	1	1	FISH	571	n/a	1	n/a	n/a	n/a	n/a	n/a
3127.976	n/a	RECOG_CONF	1563988	n/a	LTP117	ltpFR	3	1	1	FISH	571	3	1	n/a	n/a	n/a	n/a	n/a
3129.454	n/a	RECOG_LURE	1564727	n/a	LTP117	ltpFR	3	1	n/a	CHIME	300	4	n/a	n/a	n/a	n/a	n/a	n/a
3130.212	n/a	RECOG_RESP	1565106	n/a	LTP117	ltpFR	3	1	n/a	CHIME	300	n/a	n/a	n/a	n/a	n/a	n/a	n/a
3130.92	n/a	RECOG_CONF	1565460	n/a	LTP117	ltpFR	3	1	n/a	CHIME	300	4	n/a	n/a	n/a	n/a	n/a	n/a
3132.3	n/a	RECOG_TARGET	1566150	n/a	LTP117	ltpFR	3	1	0	MICROWAVE	892	5	1	n/a	n/a	n/a	n/a	n/a
3132.82	n/a	RECOG_RESP	1566410	n/a	LTP117	ltpFR	3	1	0	MICROWAVE	892	n/a	1	n/a	n/a	n/a	n/a	n/a
3133.434	n/a	RECOG_CONF	1566717	n/a	LTP117	ltpFR	3	1	0	MICROWAVE	892	5	1	n/a	n/a	n/a	n/a	n/a
3134.84	n/a	RECOG_TARGET	1567420	n/a	LTP117	ltpFR	3	1	0	CHAUFFEUR	283	5	1	n/a	n/a	n/a	n/a	n/a
3135.48	n/a	RECOG_RESP	1567740	n/a	LTP117	ltpFR	3	1	0	CHAUFFEUR	283	n/a	1	n/a	n/a	n/a	n/a	n/a
3136.118	n/a	RECOG_CONF	1568059	n/a	LTP117	ltpFR	3	1	0	CHAUFFEUR	283	5	1	n/a	n/a	n/a	n/a	n/a
3137.57	n/a	RECOG_TARGET	1568785	n/a	LTP117	ltpFR	3	1	1	SPONGE	1355	4	0	n/a	n/a	n/a	n/a	n/a
3139.062	n/a	RECOG_RESP	1569531	n/a	LTP117	ltpFR	3	1	1	SPONGE	1355	n/a	0	n/a	n/a	n/a	n/a	n/a
3139.81	n/a	RECOG_CONF	1569905	n/a	LTP117	ltpFR	3	1	1	SPONGE	1355	4	0	n/a	n/a	n/a	n/a	n/a
3141.24	n/a	RECOG_TARGET	1570620	n/a	LTP117	ltpFR	3	1	1	CLIMBER	323	3	1	n/a	n/a	n/a	n/a	n/a
3141.78	n/a	RECOG_RESP_VV	1570890	n/a	LTP117	ltpFR	3	1	1	CLIMBER	323	n/a	1	n/a	n/a	n/a	n/a	n/a
3142.29	n/a	RECOG_RESP	1571145	n/a	LTP117	ltpFR	3	1	1	CLIMBER	323	n/a	1	n/a	n/a	n/a	n/a	n/a
3143.042	n/a	RECOG_CONF	1571521	n/a	LTP117	ltpFR	3	1	1	CLIMBER	323	3	1	n/a	n/a	n/a	n/a	n/a
3146.208	n/a	REC_START	1573104	n/a	LTP117	ltpFR	3	2	n/a	n/a	n/a	n/a	n/a	n/a	n/a	n/a	n/a	n/a
3146.234	n/a	RECOG_TARGET	1573117	n/a	LTP117	ltpFR	3	2	1	DOOR	486	3	1	n/a	n/a	n/a	n/a	n/a
3147.58	n/a	RECOG_RESP	1573790	n/a	LTP117	ltpFR	3	2	1	DOOR	486	n/a	1	n/a	n/a	n/a	n/a	n/a
3148.178	n/a	RECOG_CONF	1574089	n/a	LTP117	ltpFR	3	2	1	DOOR	486	3	1	n/a	n/a	n/a	n/a	n/a
3149.572	n/a	RECOG_TARGET	1574786	n/a	LTP117	ltpFR	3	2	0	RAKE	1164	5	0	n/a	n/a	n/a	n/a	n/a
3150.372	n/a	RECOG_RESP	1575186	n/a	LTP117	ltpFR	3	2	0	RAKE	1164	n/a	0	n/a	n/a	n/a	n/a	n/a
3150.972	n/a	RECOG_CONF	1575486	n/a	LTP117	ltpFR	3	2	0	RAKE	1164	5	0	n/a	n/a	n/a	n/a	n/a
3152.36	n/a	RECOG_TARGET	1576180	n/a	LTP117	ltpFR	3	2	1	XEROX	1628	5	0	n/a	n/a	n/a	n/a	n/a
3152.928	n/a	RECOG_RESP	1576464	n/a	LTP117	ltpFR	3	2	1	XEROX	1628	n/a	0	n/a	n/a	n/a	n/a	n/a
3153.496	n/a	RECOG_CONF	1576748	n/a	LTP117	ltpFR	3	2	1	XEROX	1628	5	0	n/a	n/a	n/a	n/a	n/a
3154.908	n/a	RECOG_TARGET	1577454	n/a	LTP117	ltpFR	3	2	1	FAN	551	4	0	n/a	n/a	n/a	n/a	n/a
3155.77	n/a	RECOG_RESP_VV	1577885	n/a	LTP117	ltpFR	3	2	1	FAN	551	n/a	0	n/a	n/a	n/a	n/a	n/a
3156.618	n/a	RECOG_RESP	1578309	n/a	LTP117	ltpFR	3	2	1	FAN	551	n/a	0	n/a	n/a	n/a	n/a	n/a
3157.376	n/a	RECOG_CONF	1578688	n/a	LTP117	ltpFR	3	2	1	FAN	551	4	0	n/a	n/a	n/a	n/a	n/a
3158.886	n/a	RECOG_TARGET	1579443	n/a	LTP117	ltpFR	3	2	0	EAGLE	512	5	1	n/a	n/a	n/a	n/a	n/a
3159.372	n/a	RECOG_RESP	1579686	n/a	LTP117	ltpFR	3	2	0	EAGLE	512	n/a	1	n/a	n/a	n/a	n/a	n/a
3159.982	n/a	RECOG_CONF	1579991	n/a	LTP117	ltpFR	3	2	0	EAGLE	512	5	1	n/a	n/a	n/a	n/a	n/a
3161.376	n/a	RECOG_TARGET	1580688	n/a	LTP117	ltpFR	3	2	-1	METEOR	889	5	-1	n/a	n/a	n/a	n/a	n/a
3161.892	n/a	RECOG_RESP	1580946	n/a	LTP117	ltpFR	3	2	-1	METEOR	889	n/a	-1	n/a	n/a	n/a	n/a	n/a
3162.506	n/a	RECOG_CONF	1581253	n/a	LTP117	ltpFR	3	2	-1	METEOR	889	5	-1	n/a	n/a	n/a	n/a	n/a
3163.898	n/a	RECOG_LURE	1581949	n/a	LTP117	ltpFR	3	2	n/a	PUDDING	1139	3	n/a	n/a	n/a	n/a	n/a	n/a
3164.74	n/a	RECOG_RESP	1582370	n/a	LTP117	ltpFR	3	2	n/a	PUDDING	1139	n/a	n/a	n/a	n/a	n/a	n/a	n/a
3165.328	n/a	RECOG_CONF	1582664	n/a	LTP117	ltpFR	3	2	n/a	PUDDING	1139	3	n/a	n/a	n/a	n/a	n/a	n/a
3166.736	n/a	RECOG_TARGET	1583368	n/a	LTP117	ltpFR	3	2	0	SURGEON	1413	5	1	n/a	n/a	n/a	n/a	n/a
3167.354	n/a	RECOG_RESP	1583677	n/a	LTP117	ltpFR	3	2	0	SURGEON	1413	n/a	1	n/a	n/a	n/a	n/a	n/a
3167.942	n/a	RECOG_CONF	1583971	n/a	LTP117	ltpFR	3	2	0	SURGEON	1413	5	1	n/a	n/a	n/a	n/a	n/a
3169.342	n/a	RECOG_LURE	1584671	n/a	LTP117	ltpFR	3	2	n/a	SLACKS	1323	4	n/a	n/a	n/a	n/a	n/a	n/a
3170.178	n/a	RECOG_RESP	1585089	n/a	LTP117	ltpFR	3	2	n/a	SLACKS	1323	n/a	n/a	n/a	n/a	n/a	n/a	n/a
3170.776	n/a	RECOG_CONF	1585388	n/a	LTP117	ltpFR	3	2	n/a	SLACKS	1323	4	n/a	n/a	n/a	n/a	n/a	n/a
3172.212	n/a	RECOG_TARGET	1586106	n/a	LTP117	ltpFR	3	2	0	MINT	898	5	0	n/a	n/a	n/a	n/a	n/a
3172.742	n/a	RECOG_RESP	1586371	n/a	LTP117	ltpFR	3	2	0	MINT	898	n/a	0	n/a	n/a	n/a	n/a	n/a
3173.37	n/a	RECOG_CONF	1586685	n/a	LTP117	ltpFR	3	2	0	MINT	898	5	0	n/a	n/a	n/a	n/a	n/a
3174.734	n/a	RECOG_TARGET	1587367	n/a	LTP117	ltpFR	3	2	1	PILOT	1070	4	1	n/a	n/a	n/a	n/a	n/a
3175.232	n/a	RECOG_RESP	1587616	n/a	LTP117	ltpFR	3	2	1	PILOT	1070	n/a	1	n/a	n/a	n/a	n/a	n/a
3175.844	n/a	RECOG_CONF	1587922	n/a	LTP117	ltpFR	3	2	1	PILOT	1070	4	1	n/a	n/a	n/a	n/a	n/a
3177.298	n/a	RECOG_LURE	1588649	n/a	LTP117	ltpFR	3	2	n/a	COBWEB	337	5	n/a	n/a	n/a	n/a	n/a	n/a
3177.906	n/a	RECOG_RESP	1588953	n/a	LTP117	ltpFR	3	2	n/a	COBWEB	337	n/a	n/a	n/a	n/a	n/a	n/a	n/a
3178.45	n/a	RECOG_CONF	1589225	n/a	LTP117	ltpFR	3	2	n/a	COBWEB	337	5	n/a	n/a	n/a	n/a	n/a	n/a
3179.962	n/a	RECOG_TARGET	1589981	n/a	LTP117	ltpFR	3	2	-1	RELISH	1183	5	-1	n/a	n/a	n/a	n/a	n/a
3180.53	n/a	RECOG_RESP	1590265	n/a	LTP117	ltpFR	3	2	-1	RELISH	1183	n/a	-1	n/a	n/a	n/a	n/a	n/a
3181.122	n/a	RECOG_CONF	1590561	n/a	LTP117	ltpFR	3	2	-1	RELISH	1183	5	-1	n/a	n/a	n/a	n/a	n/a
3182.576	n/a	RECOG_TARGET	1591288	n/a	LTP117	ltpFR	3	2	0	FOX	598	5	1	n/a	n/a	n/a	n/a	n/a
3183.084	n/a	RECOG_RESP	1591542	n/a	LTP117	ltpFR	3	2	0	FOX	598	n/a	1	n/a	n/a	n/a	n/a	n/a
3183.698	n/a	RECOG_CONF	1591849	n/a	LTP117	ltpFR	3	2	0	FOX	598	5	1	n/a	n/a	n/a	n/a	n/a
3185.164	n/a	RECOG_TARGET	1592582	n/a	LTP117	ltpFR	3	2	0	FOUNTAIN	597	5	1	n/a	n/a	n/a	n/a	n/a
3185.552	n/a	RECOG_RESP	1592776	n/a	LTP117	ltpFR	3	2	0	FOUNTAIN	597	n/a	1	n/a	n/a	n/a	n/a	n/a
3186.172	n/a	RECOG_CONF	1593086	n/a	LTP117	ltpFR	3	2	0	FOUNTAIN	597	5	1	n/a	n/a	n/a	n/a	n/a
3187.678	n/a	RECOG_TARGET	1593839	n/a	LTP117	ltpFR	3	2	1	CARNIVAL	245	4	1	n/a	n/a	n/a	n/a	n/a
3188.352	n/a	RECOG_RESP	1594176	n/a	LTP117	ltpFR	3	2	1	CARNIVAL	245	n/a	1	n/a	n/a	n/a	n/a	n/a
3188.936	n/a	RECOG_CONF	1594468	n/a	LTP117	ltpFR	3	2	1	CARNIVAL	245	4	1	n/a	n/a	n/a	n/a	n/a
3190.416	n/a	RECOG_TARGET	1595208	n/a	LTP117	ltpFR	3	2	1	LAGOON	795	5	0	n/a	n/a	n/a	n/a	n/a
3191.294	n/a	RECOG_RESP	1595647	n/a	LTP117	ltpFR	3	2	1	LAGOON	795	n/a	0	n/a	n/a	n/a	n/a	n/a
3191.958	n/a	RECOG_CONF	1595979	n/a	LTP117	ltpFR	3	2	1	LAGOON	795	5	0	n/a	n/a	n/a	n/a	n/a
3193.446	n/a	RECOG_TARGET	1596723	n/a	LTP117	ltpFR	3	2	1	MANSION	864	4	0	n/a	n/a	n/a	n/a	n/a
3193.948	n/a	RECOG_RESP	1596974	n/a	LTP117	ltpFR	3	2	1	MANSION	864	n/a	0	n/a	n/a	n/a	n/a	n/a
3194.592	n/a	RECOG_CONF	1597296	n/a	LTP117	ltpFR	3	2	1	MANSION	864	4	0	n/a	n/a	n/a	n/a	n/a
3196.06	n/a	RECOG_LURE	1598030	n/a	LTP117	ltpFR	3	2	n/a	DIPLOMA	470	5	n/a	n/a	n/a	n/a	n/a	n/a
3196.692	n/a	RECOG_RESP	1598346	n/a	LTP117	ltpFR	3	2	n/a	DIPLOMA	470	n/a	n/a	n/a	n/a	n/a	n/a	n/a
3197.256	n/a	RECOG_CONF	1598628	n/a	LTP117	ltpFR	3	2	n/a	DIPLOMA	470	5	n/a	n/a	n/a	n/a	n/a	n/a
3198.674	n/a	RECOG_LURE	1599337	n/a	LTP117	ltpFR	3	2	n/a	MUSHROOM	934	5	n/a	n/a	n/a	n/a	n/a	n/a
3199.502	n/a	RECOG_RESP	1599751	n/a	LTP117	ltpFR	3	2	n/a	MUSHROOM	934	n/a	n/a	n/a	n/a	n/a	n/a	n/a
3200.12	n/a	RECOG_CONF	1600060	n/a	LTP117	ltpFR	3	2	n/a	MUSHROOM	934	5	n/a	n/a	n/a	n/a	n/a	n/a
3203.544	n/a	REC_START	1601772	n/a	LTP117	ltpFR	3	3	n/a	n/a	n/a	n/a	n/a	n/a	n/a	n/a	n/a	n/a
3203.568	n/a	RECOG_TARGET	1601784	n/a	LTP117	ltpFR	3	3	1	TIE	1466	5	0	n/a	n/a	n/a	n/a	n/a
3204.516	n/a	RECOG_RESP	1602258	n/a	LTP117	ltpFR	3	3	1	TIE	1466	n/a	0	n/a	n/a	n/a	n/a	n/a
3205.154	n/a	RECOG_CONF	1602577	n/a	LTP117	ltpFR	3	3	1	TIE	1466	5	0	n/a	n/a	n/a	n/a	n/a
3206.582	n/a	RECOG_TARGET	1603291	n/a	LTP117	ltpFR	3	3	1	STRAW	1390	5	0	n/a	n/a	n/a	n/a	n/a
3207.3	n/a	RECOG_RESP	1603650	n/a	LTP117	ltpFR	3	3	1	STRAW	1390	n/a	0	n/a	n/a	n/a	n/a	n/a
3207.888	n/a	RECOG_CONF	1603944	n/a	LTP117	ltpFR	3	3	1	STRAW	1390	5	0	n/a	n/a	n/a	n/a	n/a
3209.304	n/a	RECOG_TARGET	1604652	n/a	LTP117	ltpFR	3	3	1	RIVER	1194	5	0	n/a	n/a	n/a	n/a	n/a
3209.954	n/a	RECOG_RESP_VV	1604977	n/a	LTP117	ltpFR	3	3	1	RIVER	1194	n/a	0	n/a	n/a	n/a	n/a	n/a
3212.46	n/a	RECOG_RESP	1606230	n/a	LTP117	ltpFR	3	3	1	RIVER	1194	n/a	0	n/a	n/a	n/a	n/a	n/a
3213.288	n/a	RECOG_CONF	1606644	n/a	LTP117	ltpFR	3	3	1	RIVER	1194	5	0	n/a	n/a	n/a	n/a	n/a
3214.848	n/a	RECOG_TARGET	1607424	n/a	LTP117	ltpFR	3	3	-1	COIN	343	4	-1	n/a	n/a	n/a	n/a	n/a
3215.482	n/a	RECOG_RESP	1607741	n/a	LTP117	ltpFR	3	3	-1	COIN	343	n/a	-1	n/a	n/a	n/a	n/a	n/a
3216.17	n/a	RECOG_CONF	1608085	n/a	LTP117	ltpFR	3	3	-1	COIN	343	4	-1	n/a	n/a	n/a	n/a	n/a
3217.62	n/a	RECOG_TARGET	1608810	n/a	LTP117	ltpFR	3	3	1	UNCLE	1536	5	1	n/a	n/a	n/a	n/a	n/a
3218.142	n/a	RECOG_RESP	1609071	n/a	LTP117	ltpFR	3	3	1	UNCLE	1536	n/a	1	n/a	n/a	n/a	n/a	n/a
3218.784	n/a	RECOG_CONF	1609392	n/a	LTP117	ltpFR	3	3	1	UNCLE	1536	5	1	n/a	n/a	n/a	n/a	n/a
3220.19	n/a	RECOG_TARGET	1610095	n/a	LTP117	ltpFR	3	3	-1	SHRUB	1299	5	-1	n/a	n/a	n/a	n/a	n/a
3220.76	n/a	RECOG_RESP	1610380	n/a	LTP117	ltpFR	3	3	-1	SHRUB	1299	n/a	-1	n/a	n/a	n/a	n/a	n/a
3221.368	n/a	RECOG_CONF	1610684	n/a	LTP117	ltpFR	3	3	-1	SHRUB	1299	5	-1	n/a	n/a	n/a	n/a	n/a
3222.846	n/a	RECOG_TARGET	1611423	n/a	LTP117	ltpFR	3	3	1	QUAIL	1147	5	1	n/a	n/a	n/a	n/a	n/a
3223.588	n/a	RECOG_RESP	1611794	n/a	LTP117	ltpFR	3	3	1	QUAIL	1147	n/a	1	n/a	n/a	n/a	n/a	n/a
3224.272	n/a	RECOG_CONF	1612136	n/a	LTP117	ltpFR	3	3	1	QUAIL	1147	5	1	n/a	n/a	n/a	n/a	n/a
3225.71	n/a	RECOG_TARGET	1612855	n/a	LTP117	ltpFR	3	3	0	OPERATOR	979	5	1	n/a	n/a	n/a	n/a	n/a
3226.438	n/a	RECOG_RESP	1613219	n/a	LTP117	ltpFR	3	3	0	OPERATOR	979	n/a	1	n/a	n/a	n/a	n/a	n/a
3227.066	n/a	RECOG_CONF	1613533	n/a	LTP117	ltpFR	3	3	0	OPERATOR	979	5	1	n/a	n/a	n/a	n/a	n/a
3228.506	n/a	RECOG_TARGET	1614253	n/a	LTP117	ltpFR	3	3	-1	MAYONNAISE	880	5	-1	n/a	n/a	n/a	n/a	n/a
3229.072	n/a	RECOG_RESP	1614536	n/a	LTP117	ltpFR	3	3	-1	MAYONNAISE	880	n/a	-1	n/a	n/a	n/a	n/a	n/a
3229.68	n/a	RECOG_CONF	1614840	n/a	LTP117	ltpFR	3	3	-1	MAYONNAISE	880	5	-1	n/a	n/a	n/a	n/a	n/a
3231.17	n/a	RECOG_TARGET	1615585	n/a	LTP117	ltpFR	3	3	-1	GOOSE	649	4	-1	n/a	n/a	n/a	n/a	n/a
3231.69	n/a	RECOG_RESP_VV	1615845	n/a	LTP117	ltpFR	3	3	-1	GOOSE	649	n/a	-1	n/a	n/a	n/a	n/a	n/a
3232.578	n/a	RECOG_RESP	1616289	n/a	LTP117	ltpFR	3	3	-1	GOOSE	649	n/a	-1	n/a	n/a	n/a	n/a	n/a
3233.472	n/a	RECOG_CONF	1616736	n/a	LTP117	ltpFR	3	3	-1	GOOSE	649	4	-1	n/a	n/a	n/a	n/a	n/a
3234.956	n/a	RECOG_LURE	1617478	n/a	LTP117	ltpFR	3	3	n/a	COLLAR	345	3	n/a	n/a	n/a	n/a	n/a	n/a
3236.076	n/a	RECOG_RESP	1618038	n/a	LTP117	ltpFR	3	3	n/a	COLLAR	345	n/a	n/a	n/a	n/a	n/a	n/a	n/a
3236.714	n/a	RECOG_CONF	1618357	n/a	LTP117	ltpFR	3	3	n/a	COLLAR	345	3	n/a	n/a	n/a	n/a	n/a	n/a
3238.244	n/a	RECOG_TARGET	1619122	n/a	LTP117	ltpFR	3	3	0	THERMOMETER	1453	5	0	n/a	n/a	n/a	n/a	n/a
3238.944	n/a	RECOG_RESP	1619472	n/a	LTP117	ltpFR	3	3	0	THERMOMETER	1453	n/a	0	n/a	n/a	n/a	n/a	n/a
3239.618	n/a	RECOG_CONF	1619809	n/a	LTP117	ltpFR	3	3	0	THERMOMETER	1453	5	0	n/a	n/a	n/a	n/a	n/a
3241.166	n/a	RECOG_TARGET	1620583	n/a	LTP117	ltpFR	3	3	0	MONK	910	5	1	n/a	n/a	n/a	n/a	n/a
3241.818	n/a	RECOG_RESP	1620909	n/a	LTP117	ltpFR	3	3	0	MONK	910	n/a	1	n/a	n/a	n/a	n/a	n/a
3242.46	n/a	RECOG_CONF	1621230	n/a	LTP117	ltpFR	3	3	0	MONK	910	5	1	n/a	n/a	n/a	n/a	n/a
3243.872	n/a	RECOG_TARGET	1621936	n/a	LTP117	ltpFR	3	3	1	CAFETERIA	217	4	0	n/a	n/a	n/a	n/a	n/a
3244.446	n/a	RECOG_RESP	1622223	n/a	LTP117	ltpFR	3	3	1	CAFETERIA	217	n/a	0	n/a	n/a	n/a	n/a	n/a
3245.094	n/a	RECOG_CONF	1622547	n/a	LTP117	ltpFR	3	3	1	CAFETERIA	217	4	0	n/a	n/a	n/a	n/a	n/a
3246.51	n/a	RECOG_TARGET	1623255	n/a	LTP117	ltpFR	3	3	0	VEHICLE	1553	5	1	n/a	n/a	n/a	n/a	n/a
3247.04	n/a	RECOG_RESP	1623520	n/a	LTP117	ltpFR	3	3	0	VEHICLE	1553	n/a	1	n/a	n/a	n/a	n/a	n/a
3247.688	n/a	RECOG_CONF	1623844	n/a	LTP117	ltpFR	3	3	0	VEHICLE	1553	5	1	n/a	n/a	n/a	n/a	n/a
3249.14	n/a	RECOG_TARGET	1624570	n/a	LTP117	ltpFR	3	3	-1	ROBIN	1199	5	-1	n/a	n/a	n/a	n/a	n/a
3249.75	n/a	RECOG_RESP	1624875	n/a	LTP117	ltpFR	3	3	-1	ROBIN	1199	n/a	-1	n/a	n/a	n/a	n/a	n/a
3250.392	n/a	RECOG_CONF	1625196	n/a	LTP117	ltpFR	3	3	-1	ROBIN	1199	5	-1	n/a	n/a	n/a	n/a	n/a
3251.872	n/a	RECOG_TARGET	1625936	n/a	LTP117	ltpFR	3	3	-1	CELLAR	267	5	-1	n/a	n/a	n/a	n/a	n/a
3252.438	n/a	RECOG_RESP	1626219	n/a	LTP117	ltpFR	3	3	-1	CELLAR	267	n/a	-1	n/a	n/a	n/a	n/a	n/a
3253.706	n/a	RECOG_CONF	1626853	n/a	LTP117	ltpFR	3	3	-1	CELLAR	267	5	-1	n/a	n/a	n/a	n/a	n/a
3255.25	n/a	RECOG_TARGET	1627625	n/a	LTP117	ltpFR	3	3	-1	CRATER	400	5	-1	n/a	n/a	n/a	n/a	n/a
3256.08	n/a	RECOG_RESP	1628040	n/a	LTP117	ltpFR	3	3	-1	CRATER	400	n/a	-1	n/a	n/a	n/a	n/a	n/a
3256.738	n/a	RECOG_CONF	1628369	n/a	LTP117	ltpFR	3	3	-1	CRATER	400	5	-1	n/a	n/a	n/a	n/a	n/a
3258.196	n/a	RECOG_TARGET	1629098	n/a	LTP117	ltpFR	3	3	1	TICKET	1464	5	0	n/a	n/a	n/a	n/a	n/a
3258.824	n/a	RECOG_RESP	1629412	n/a	LTP117	ltpFR	3	3	1	TICKET	1464	n/a	0	n/a	n/a	n/a	n/a	n/a
3259.472	n/a	RECOG_CONF	1629736	n/a	LTP117	ltpFR	3	3	1	TICKET	1464	5	0	n/a	n/a	n/a	n/a	n/a
3260.886	n/a	RECOG_TARGET	1630443	n/a	LTP117	ltpFR	3	3	1	FRIEND	606	4	1	n/a	n/a	n/a	n/a	n/a
3261.648	n/a	RECOG_RESP	1630824	n/a	LTP117	ltpFR	3	3	1	FRIEND	606	n/a	1	n/a	n/a	n/a	n/a	n/a
3262.266	n/a	RECOG_CONF	1631133	n/a	LTP117	ltpFR	3	3	1	FRIEND	606	4	1	n/a	n/a	n/a	n/a	n/a
3265.76	n/a	REC_START	1632880	n/a	LTP117	ltpFR	3	4	n/a	n/a	n/a	n/a	n/a	n/a	n/a	n/a	n/a	n/a
3265.788	n/a	RECOG_TARGET	1632894	n/a	LTP117	ltpFR	3	4	0	BLUEJAY	141	4	1	n/a	n/a	n/a	n/a	n/a
3267.056	n/a	RECOG_RESP	1633528	n/a	LTP117	ltpFR	3	4	0	BLUEJAY	141	n/a	1	n/a	n/a	n/a	n/a	n/a
3267.67	n/a	RECOG_CONF	1633835	n/a	LTP117	ltpFR	3	4	0	BLUEJAY	141	4	1	n/a	n/a	n/a	n/a	n/a
3269.176	n/a	RECOG_TARGET	1634588	n/a	LTP117	ltpFR	3	4	1	UTENSIL	1542	5	1	n/a	n/a	n/a	n/a	n/a
3269.8	n/a	RECOG_RESP	1634900	n/a	LTP117	ltpFR	3	4	1	UTENSIL	1542	n/a	1	n/a	n/a	n/a	n/a	n/a
3270.414	n/a	RECOG_CONF	1635207	n/a	LTP117	ltpFR	3	4	1	UTENSIL	1542	5	1	n/a	n/a	n/a	n/a	n/a
3271.832	n/a	RECOG_TARGET	1635916	n/a	LTP117	ltpFR	3	4	-1	JOURNAL	760	4	-1	n/a	n/a	n/a	n/a	n/a
3272.624	n/a	RECOG_RESP	1636312	n/a	LTP117	ltpFR	3	4	-1	JOURNAL	760	n/a	-1	n/a	n/a	n/a	n/a	n/a
3273.248	n/a	RECOG_CONF	1636624	n/a	LTP117	ltpFR	3	4	-1	JOURNAL	760	4	-1	n/a	n/a	n/a	n/a	n/a
3274.612	n/a	RECOG_TARGET	1637306	n/a	LTP117	ltpFR	3	4	1	ADOLESCENT	7	5	1	n/a	n/a	n/a	n/a	n/a
3275.188	n/a	RECOG_RESP	1637594	n/a	LTP117	ltpFR	3	4	1	ADOLESCENT	7	n/a	1	n/a	n/a	n/a	n/a	n/a
3275.802	n/a	RECOG_CONF	1637901	n/a	LTP117	ltpFR	3	4	1	ADOLESCENT	7	5	1	n/a	n/a	n/a	n/a	n/a
3277.182	n/a	RECOG_TARGET	1638591	n/a	LTP117	ltpFR	3	4	0	LEG	809	5	1	n/a	n/a	n/a	n/a	n/a
3277.698	n/a	RECOG_RESP	1638849	n/a	LTP117	ltpFR	3	4	0	LEG	809	n/a	1	n/a	n/a	n/a	n/a	n/a
3278.336	n/a	RECOG_CONF	1639168	n/a	LTP117	ltpFR	3	4	0	LEG	809	5	1	n/a	n/a	n/a	n/a	n/a
3279.748	n/a	RECOG_TARGET	1639874	n/a	LTP117	ltpFR	3	4	-1	CRACKER	398	5	-1	n/a	n/a	n/a	n/a	n/a
3280.406	n/a	RECOG_RESP	1640203	n/a	LTP117	ltpFR	3	4	-1	CRACKER	398	n/a	-1	n/a	n/a	n/a	n/a	n/a
3281.03	n/a	RECOG_CONF	1640515	n/a	LTP117	ltpFR	3	4	-1	CRACKER	398	5	-1	n/a	n/a	n/a	n/a	n/a
3282.494	n/a	RECOG_LURE	1641247	n/a	LTP117	ltpFR	3	4	n/a	BATHTUB	100	4	n/a	n/a	n/a	n/a	n/a	n/a
3282.996	n/a	RECOG_RESP	1641498	n/a	LTP117	ltpFR	3	4	n/a	BATHTUB	100	n/a	n/a	n/a	n/a	n/a	n/a	n/a
3283.624	n/a	RECOG_CONF	1641812	n/a	LTP117	ltpFR	3	4	n/a	BATHTUB	100	4	n/a	n/a	n/a	n/a	n/a	n/a
3285.04	n/a	RECOG_TARGET	1642520	n/a	LTP117	ltpFR	3	4	0	BLADE	134	5	0	n/a	n/a	n/a	n/a	n/a
3285.67	n/a	RECOG_RESP	1642835	n/a	LTP117	ltpFR	3	4	0	BLADE	134	n/a	0	n/a	n/a	n/a	n/a	n/a
3286.318	n/a	RECOG_CONF	1643159	n/a	LTP117	ltpFR	3	4	0	BLADE	134	5	0	n/a	n/a	n/a	n/a	n/a
3287.73	n/a	RECOG_TARGET	1643865	n/a	LTP117	ltpFR	3	4	1	TUNNEL	1519	5	0	n/a	n/a	n/a	n/a	n/a
3289.136	n/a	RECOG_RESP	1644568	n/a	LTP117	ltpFR	3	4	1	TUNNEL	1519	n/a	0	n/a	n/a	n/a	n/a	n/a
3289.79	n/a	RECOG_CONF	1644895	n/a	LTP117	ltpFR	3	4	1	TUNNEL	1519	5	0	n/a	n/a	n/a	n/a	n/a
3291.266	n/a	RECOG_TARGET	1645633	n/a	LTP117	ltpFR	3	4	1	TABLE	1426	4	0	n/a	n/a	n/a	n/a	n/a
3292.004	n/a	RECOG_RESP	1646002	n/a	LTP117	ltpFR	3	4	1	TABLE	1426	n/a	0	n/a	n/a	n/a	n/a	n/a
3292.644	n/a	RECOG_CONF	1646322	n/a	LTP117	ltpFR	3	4	1	TABLE	1426	4	0	n/a	n/a	n/a	n/a	n/a
3294.112	n/a	RECOG_LURE	1647056	n/a	LTP117	ltpFR	3	4	n/a	HAT	690	4	n/a	n/a	n/a	n/a	n/a	n/a
3294.638	n/a	RECOG_RESP	1647319	n/a	LTP117	ltpFR	3	4	n/a	HAT	690	n/a	n/a	n/a	n/a	n/a	n/a	n/a
3295.288	n/a	RECOG_CONF	1647644	n/a	LTP117	ltpFR	3	4	n/a	HAT	690	4	n/a	n/a	n/a	n/a	n/a	n/a
3296.786	n/a	RECOG_TARGET	1648393	n/a	LTP117	ltpFR	3	4	-1	SPOUSE	1358	5	-1	n/a	n/a	n/a	n/a	n/a
3297.284	n/a	RECOG_RESP	1648642	n/a	LTP117	ltpFR	3	4	-1	SPOUSE	1358	n/a	-1	n/a	n/a	n/a	n/a	n/a
3297.902	n/a	RECOG_CONF	1648951	n/a	LTP117	ltpFR	3	4	-1	SPOUSE	1358	5	-1	n/a	n/a	n/a	n/a	n/a
3299.566	n/a	RECOG_TARGET	1649783	n/a	LTP117	ltpFR	3	4	1	PHYSICIAN	1056	5	1	n/a	n/a	n/a	n/a	n/a
3300.038	n/a	RECOG_RESP	1650019	n/a	LTP117	ltpFR	3	4	1	PHYSICIAN	1056	n/a	1	n/a	n/a	n/a	n/a	n/a
3300.666	n/a	RECOG_CONF	1650333	n/a	LTP117	ltpFR	3	4	1	PHYSICIAN	1056	5	1	n/a	n/a	n/a	n/a	n/a
3302.072	n/a	RECOG_TARGET	1651036	n/a	LTP117	ltpFR	3	4	0	PEBBLE	1035	3	0	n/a	n/a	n/a	n/a	n/a
3302.92	n/a	RECOG_RESP_VV	1651460	n/a	LTP117	ltpFR	3	4	0	PEBBLE	1035	n/a	0	n/a	n/a	n/a	n/a	n/a
3304.646	n/a	RECOG_RESP	1652323	n/a	LTP117	ltpFR	3	4	0	PEBBLE	1035	n/a	0	n/a	n/a	n/a	n/a	n/a
3305.426	n/a	RECOG_CONF	1652713	n/a	LTP117	ltpFR	3	4	0	PEBBLE	1035	3	0	n/a	n/a	n/a	n/a	n/a
3307.008	n/a	RECOG_TARGET	1653504	n/a	LTP117	ltpFR	3	4	1	POSSUM	1112	5	1	n/a	n/a	n/a	n/a	n/a
3308.12	n/a	RECOG_RESP	1654060	n/a	LTP117	ltpFR	3	4	1	POSSUM	1112	n/a	1	n/a	n/a	n/a	n/a	n/a
3308.828	n/a	RECOG_CONF	1654414	n/a	LTP117	ltpFR	3	4	1	POSSUM	1112	5	1	n/a	n/a	n/a	n/a	n/a
3310.362	n/a	RECOG_TARGET	1655181	n/a	LTP117	ltpFR	3	4	1	ARTERY	41	5	0	n/a	n/a	n/a	n/a	n/a
3311.012	n/a	RECOG_RESP	1655506	n/a	LTP117	ltpFR	3	4	1	ARTERY	41	n/a	0	n/a	n/a	n/a	n/a	n/a
3311.612	n/a	RECOG_CONF	1655806	n/a	LTP117	ltpFR	3	4	1	ARTERY	41	5	0	n/a	n/a	n/a	n/a	n/a
3313.108	n/a	RECOG_TARGET	1656554	n/a	LTP117	ltpFR	3	4	1	WINGS	1614	5	1	n/a	n/a	n/a	n/a	n/a
3313.572	n/a	RECOG_RESP	1656786	n/a	LTP117	ltpFR	3	4	1	WINGS	1614	n/a	1	n/a	n/a	n/a	n/a	n/a
3314.156	n/a	RECOG_CONF	1657078	n/a	LTP117	ltpFR	3	4	1	WINGS	1614	5	1	n/a	n/a	n/a	n/a	n/a
3315.574	n/a	RECOG_TARGET	1657787	n/a	LTP117	ltpFR	3	4	-1	CEMETERY	269	5	-1	n/a	n/a	n/a	n/a	n/a
3316.17	n/a	RECOG_RESP	1658085	n/a	LTP117	ltpFR	3	4	-1	CEMETERY	269	n/a	-1	n/a	n/a	n/a	n/a	n/a
3316.83	n/a	RECOG_CONF	1658415	n/a	LTP117	ltpFR	3	4	-1	CEMETERY	269	5	-1	n/a	n/a	n/a	n/a	n/a
3318.252	n/a	RECOG_TARGET	1659126	n/a	LTP117	ltpFR	3	4	0	GARAGE	621	3	1	n/a	n/a	n/a	n/a	n/a
3318.964	n/a	RECOG_RESP	1659482	n/a	LTP117	ltpFR	3	4	0	GARAGE	621	n/a	1	n/a	n/a	n/a	n/a	n/a
3319.592	n/a	RECOG_CONF	1659796	n/a	LTP117	ltpFR	3	4	0	GARAGE	621	3	1	n/a	n/a	n/a	n/a	n/a
3321.024	n/a	RECOG_LURE	1660512	n/a	LTP117	ltpFR	3	4	n/a	NIGHTGOWN	953	4	n/a	n/a	n/a	n/a	n/a	n/a
3321.718	n/a	RECOG_RESP	1660859	n/a	LTP117	ltpFR	3	4	n/a	NIGHTGOWN	953	n/a	n/a	n/a	n/a	n/a	n/a	n/a
3322.336	n/a	RECOG_CONF	1661168	n/a	LTP117	ltpFR	3	4	n/a	NIGHTGOWN	953	4	n/a	n/a	n/a	n/a	n/a	n/a
3325.388	n/a	REC_START	1662694	n/a	LTP117	ltpFR	3	5	n/a	n/a	n/a	n/a	n/a	n/a	n/a	n/a	n/a	n/a
3325.412	n/a	RECOG_TARGET	1662706	n/a	LTP117	ltpFR	3	5	-1	ENGINE	535	3	-1	n/a	n/a	n/a	n/a	n/a
3325.99	n/a	RECOG_RESP_VV	1662995	n/a	LTP117	ltpFR	3	5	-1	ENGINE	535	n/a	-1	n/a	n/a	n/a	n/a	n/a
3327.322	n/a	RECOG_RESP	1663661	n/a	LTP117	ltpFR	3	5	-1	ENGINE	535	n/a	-1	n/a	n/a	n/a	n/a	n/a
3328.286	n/a	RECOG_CONF	1664143	n/a	LTP117	ltpFR	3	5	-1	ENGINE	535	3	-1	n/a	n/a	n/a	n/a	n/a
3329.724	n/a	RECOG_TARGET	1664862	n/a	LTP117	ltpFR	3	5	-1	CHART	282	5	-1	n/a	n/a	n/a	n/a	n/a
3332.008	n/a	RECOG_RESP	1666004	n/a	LTP117	ltpFR	3	5	-1	CHART	282	n/a	-1	n/a	n/a	n/a	n/a	n/a
3332.626	n/a	RECOG_CONF	1666313	n/a	LTP117	ltpFR	3	5	-1	CHART	282	5	-1	n/a	n/a	n/a	n/a	n/a
3334.068	n/a	RECOG_TARGET	1667034	n/a	LTP117	ltpFR	3	5	-1	TIMBER	1469	5	-1	n/a	n/a	n/a	n/a	n/a
3334.85	n/a	RECOG_RESP	1667425	n/a	LTP117	ltpFR	3	5	-1	TIMBER	1469	n/a	-1	n/a	n/a	n/a	n/a	n/a
3335.48	n/a	RECOG_CONF	1667740	n/a	LTP117	ltpFR	3	5	-1	TIMBER	1469	5	-1	n/a	n/a	n/a	n/a	n/a
3336.89	n/a	RECOG_LURE	1668445	n/a	LTP117	ltpFR	3	5	n/a	ENCYCLOPEDIA	533	4	n/a	n/a	n/a	n/a	n/a	n/a
3337.64	n/a	RECOG_RESP	1668820	n/a	LTP117	ltpFR	3	5	n/a	ENCYCLOPEDIA	533	n/a	n/a	n/a	n/a	n/a	n/a	n/a
3338.224	n/a	RECOG_CONF	1669112	n/a	LTP117	ltpFR	3	5	n/a	ENCYCLOPEDIA	533	4	n/a	n/a	n/a	n/a	n/a	n/a
3339.612	n/a	RECOG_TARGET	1669806	n/a	LTP117	ltpFR	3	5	1	INTESTINE	742	4	0	n/a	n/a	n/a	n/a	n/a
3340.168	n/a	RECOG_RESP	1670084	n/a	LTP117	ltpFR	3	5	1	INTESTINE	742	n/a	0	n/a	n/a	n/a	n/a	n/a
3340.848	n/a	RECOG_CONF	1670424	n/a	LTP117	ltpFR	3	5	1	INTESTINE	742	4	0	n/a	n/a	n/a	n/a	n/a
3342.242	n/a	RECOG_TARGET	1671121	n/a	LTP117	ltpFR	3	5	-1	DRESS	495	5	-1	n/a	n/a	n/a	n/a	n/a
3342.802	n/a	RECOG_RESP	1671401	n/a	LTP117	ltpFR	3	5	-1	DRESS	495	n/a	-1	n/a	n/a	n/a	n/a	n/a
3343.392	n/a	RECOG_CONF	1671696	n/a	LTP117	ltpFR	3	5	-1	DRESS	495	5	-1	n/a	n/a	n/a	n/a	n/a
3344.798	n/a	RECOG_TARGET	1672399	n/a	LTP117	ltpFR	3	5	-1	GULL	671	5	-1	n/a	n/a	n/a	n/a	n/a
3345.372	n/a	RECOG_RESP	1672686	n/a	LTP117	ltpFR	3	5	-1	GULL	671	n/a	-1	n/a	n/a	n/a	n/a	n/a
3345.966	n/a	RECOG_CONF	1672983	n/a	LTP117	ltpFR	3	5	-1	GULL	671	5	-1	n/a	n/a	n/a	n/a	n/a
3347.42	n/a	RECOG_TARGET	1673710	n/a	LTP117	ltpFR	3	5	0	DRAGON	492	5	1	n/a	n/a	n/a	n/a	n/a
3347.922	n/a	RECOG_RESP	1673961	n/a	LTP117	ltpFR	3	5	0	DRAGON	492	n/a	1	n/a	n/a	n/a	n/a	n/a
3348.858	n/a	RECOG_CONF	1674429	n/a	LTP117	ltpFR	3	5	0	DRAGON	492	5	1	n/a	n/a	n/a	n/a	n/a
3350.274	n/a	RECOG_TARGET	1675137	n/a	LTP117	ltpFR	3	5	1	COCOON	339	5	0	n/a	n/a	n/a	n/a	n/a
3350.784	n/a	RECOG_RESP	1675392	n/a	LTP117	ltpFR	3	5	1	COCOON	339	n/a	0	n/a	n/a	n/a	n/a	n/a
3351.384	n/a	RECOG_CONF	1675692	n/a	LTP117	ltpFR	3	5	1	COCOON	339	5	0	n/a	n/a	n/a	n/a	n/a
3352.78	n/a	RECOG_TARGET	1676390	n/a	LTP117	ltpFR	3	5	-1	CASKET	255	5	-1	n/a	n/a	n/a	n/a	n/a
3353.298	n/a	RECOG_RESP	1676649	n/a	LTP117	ltpFR	3	5	-1	CASKET	255	n/a	-1	n/a	n/a	n/a	n/a	n/a
3353.898	n/a	RECOG_CONF	1676949	n/a	LTP117	ltpFR	3	5	-1	CASKET	255	5	-1	n/a	n/a	n/a	n/a	n/a
3355.286	n/a	RECOG_LURE	1677643	n/a	LTP117	ltpFR	3	5	n/a	LOBBY	836	2	n/a	n/a	n/a	n/a	n/a	n/a
3356.642	n/a	RECOG_RESP	1678321	n/a	LTP117	ltpFR	3	5	n/a	LOBBY	836	n/a	n/a	n/a	n/a	n/a	n/a	n/a
3357.48	n/a	RECOG_CONF	1678740	n/a	LTP117	ltpFR	3	5	n/a	LOBBY	836	2	n/a	n/a	n/a	n/a	n/a	n/a
3358.972	n/a	RECOG_TARGET	1679486	n/a	LTP117	ltpFR	3	5	0	SOAP	1337	5	1	n/a	n/a	n/a	n/a	n/a
3359.998	n/a	RECOG_RESP	1679999	n/a	LTP117	ltpFR	3	5	0	SOAP	1337	n/a	1	n/a	n/a	n/a	n/a	n/a
3360.662	n/a	RECOG_CONF	1680331	n/a	LTP117	ltpFR	3	5	0	SOAP	1337	5	1	n/a	n/a	n/a	n/a	n/a
3362.126	n/a	RECOG_LURE	1681063	n/a	LTP117	ltpFR	3	5	n/a	GARDEN	623	4	n/a	n/a	n/a	n/a	n/a	n/a
3362.742	n/a	RECOG_RESP	1681371	n/a	LTP117	ltpFR	3	5	n/a	GARDEN	623	n/a	n/a	n/a	n/a	n/a	n/a	n/a
3363.396	n/a	RECOG_CONF	1681698	n/a	LTP117	ltpFR	3	5	n/a	GARDEN	623	4	n/a	n/a	n/a	n/a	n/a	n/a
3364.824	n/a	RECOG_TARGET	1682412	n/a	LTP117	ltpFR	3	5	-1	BELLY	119	3	-1	n/a	n/a	n/a	n/a	n/a
3367.132	n/a	RECOG_RESP	1683566	n/a	LTP117	ltpFR	3	5	-1	BELLY	119	n/a	-1	n/a	n/a	n/a	n/a	n/a
3367.886	n/a	RECOG_CONF	1683943	n/a	LTP117	ltpFR	3	5	-1	BELLY	119	3	-1	n/a	n/a	n/a	n/a	n/a
3369.336	n/a	RECOG_TARGET	1684668	n/a	LTP117	ltpFR	3	5	0	SHOVEL	1295	4	0	n/a	n/a	n/a	n/a	n/a
3370.08	n/a	RECOG_RESP	1685040	n/a	LTP117	ltpFR	3	5	0	SHOVEL	1295	n/a	0	n/a	n/a	n/a	n/a	n/a
3370.77	n/a	RECOG_CONF	1685385	n/a	LTP117	ltpFR	3	5	0	SHOVEL	1295	4	0	n/a	n/a	n/a	n/a	n/a
3372.124	n/a	RECOG_LURE	1686062	n/a	LTP117	ltpFR	3	5	n/a	MAILBOX	857	4	n/a	n/a	n/a	n/a	n/a	n/a
3372.694	n/a	RECOG_RESP	1686347	n/a	LTP117	ltpFR	3	5	n/a	MAILBOX	857	n/a	n/a	n/a	n/a	n/a	n/a	n/a
3373.374	n/a	RECOG_CONF	1686687	n/a	LTP117	ltpFR	3	5	n/a	MAILBOX	857	4	n/a	n/a	n/a	n/a	n/a	n/a
3374.854	n/a	RECOG_TARGET	1687427	n/a	LTP117	ltpFR	3	5	-1	PAW	1029	5	-1	n/a	n/a	n/a	n/a	n/a
3375.668	n/a	RECOG_RESP	1687834	n/a	LTP117	ltpFR	3	5	-1	PAW	1029	n/a	-1	n/a	n/a	n/a	n/a	n/a
3376.346	n/a	RECOG_CONF	1688173	n/a	LTP117	ltpFR	3	5	-1	PAW	1029	5	-1	n/a	n/a	n/a	n/a	n/a
3377.792	n/a	RECOG_LURE	1688896	n/a	LTP117	ltpFR	3	5	n/a	BRIDE	173	2	n/a	n/a	n/a	n/a	n/a	n/a
3378.264	n/a	RECOG_RESP_VV	1689132	n/a	LTP117	ltpFR	3	5	n/a	BRIDE	173	n/a	n/a	n/a	n/a	n/a	n/a	n/a
3379.286	n/a	RECOG_RESP	1689643	n/a	LTP117	ltpFR	3	5	n/a	BRIDE	173	n/a	n/a	n/a	n/a	n/a	n/a	n/a
3380.104	n/a	RECOG_CONF	1690052	n/a	LTP117	ltpFR	3	5	n/a	BRIDE	173	2	n/a	n/a	n/a	n/a	n/a	n/a
3381.63	n/a	RECOG_LURE	1690815	n/a	LTP117	ltpFR	3	5	n/a	SILVERWARE	1308	4	n/a	n/a	n/a	n/a	n/a	n/a
3382.424	n/a	RECOG_RESP	1691212	n/a	LTP117	ltpFR	3	5	n/a	SILVERWARE	1308	n/a	n/a	n/a	n/a	n/a	n/a	n/a
3383.042	n/a	RECOG_CONF	1691521	n/a	LTP117	ltpFR	3	5	n/a	SILVERWARE	1308	4	n/a	n/a	n/a	n/a	n/a	n/a
3384.52	n/a	RECOG_TARGET	1692260	n/a	LTP117	ltpFR	3	5	0	RAFT	1159	5	1	n/a	n/a	n/a	n/a	n/a
3385.382	n/a	RECOG_RESP	1692691	n/a	LTP117	ltpFR	3	5	0	RAFT	1159	n/a	1	n/a	n/a	n/a	n/a	n/a
3386.096	n/a	RECOG_CONF	1693048	n/a	LTP117	ltpFR	3	5	0	RAFT	1159	5	1	n/a	n/a	n/a	n/a	n/a
3389.468	n/a	REC_START	1694734	n/a	LTP117	ltpFR	3	6	n/a	n/a	n/a	n/a	n/a	n/a	n/a	n/a	n/a	n/a
3389.496	n/a	RECOG_TARGET	1694748	n/a	LTP117	ltpFR	3	6	0	GAZELLE	628	4	1	n/a	n/a	n/a	n/a	n/a
3390.146	n/a	RECOG_RESP	1695073	n/a	LTP117	ltpFR	3	6	0	GAZELLE	628	n/a	1	n/a	n/a	n/a	n/a	n/a
3390.81	n/a	RECOG_CONF	1695405	n/a	LTP117	ltpFR	3	6	0	GAZELLE	628	4	1	n/a	n/a	n/a	n/a	n/a
3392.31	n/a	RECOG_TARGET	1696155	n/a	LTP117	ltpFR	3	6	0	UNDERWEAR	1537	5	0	n/a	n/a	n/a	n/a	n/a
3392.956	n/a	RECOG_RESP	1696478	n/a	LTP117	ltpFR	3	6	0	UNDERWEAR	1537	n/a	0	n/a	n/a	n/a	n/a	n/a
3393.544	n/a	RECOG_CONF	1696772	n/a	LTP117	ltpFR	3	6	0	UNDERWEAR	1537	5	0	n/a	n/a	n/a	n/a	n/a
3395.048	n/a	RECOG_LURE	1697524	n/a	LTP117	ltpFR	3	6	n/a	DRUM	502	4	n/a	n/a	n/a	n/a	n/a	n/a
3395.72	n/a	RECOG_RESP	1697860	n/a	LTP117	ltpFR	3	6	n/a	DRUM	502	n/a	n/a	n/a	n/a	n/a	n/a	n/a
3396.368	n/a	RECOG_CONF	1698184	n/a	LTP117	ltpFR	3	6	n/a	DRUM	502	4	n/a	n/a	n/a	n/a	n/a	n/a
3397.728	n/a	RECOG_TARGET	1698864	n/a	LTP117	ltpFR	3	6	0	YOUTH	1634	4	1	n/a	n/a	n/a	n/a	n/a
3398.254	n/a	RECOG_RESP	1699127	n/a	LTP117	ltpFR	3	6	0	YOUTH	1634	n/a	1	n/a	n/a	n/a	n/a	n/a
3399.002	n/a	RECOG_CONF	1699501	n/a	LTP117	ltpFR	3	6	0	YOUTH	1634	4	1	n/a	n/a	n/a	n/a	n/a
3400.46	n/a	RECOG_TARGET	1700230	n/a	LTP117	ltpFR	3	6	-1	DESIGNER	451	5	-1	n/a	n/a	n/a	n/a	n/a
3401.282	n/a	RECOG_RESP	1700641	n/a	LTP117	ltpFR	3	6	-1	DESIGNER	451	n/a	-1	n/a	n/a	n/a	n/a	n/a
3401.954	n/a	RECOG_CONF	1700977	n/a	LTP117	ltpFR	3	6	-1	DESIGNER	451	5	-1	n/a	n/a	n/a	n/a	n/a
3403.34	n/a	RECOG_TARGET	1701670	n/a	LTP117	ltpFR	3	6	0	STOVE	1388	3	0	n/a	n/a	n/a	n/a	n/a
3404.364	n/a	RECOG_RESP	1702182	n/a	LTP117	ltpFR	3	6	0	STOVE	1388	n/a	0	n/a	n/a	n/a	n/a	n/a
3405.038	n/a	RECOG_CONF	1702519	n/a	LTP117	ltpFR	3	6	0	STOVE	1388	3	0	n/a	n/a	n/a	n/a	n/a
3406.46	n/a	RECOG_TARGET	1703230	n/a	LTP117	ltpFR	3	6	-1	FREEWAY	603	5	-1	n/a	n/a	n/a	n/a	n/a
3407.084	n/a	RECOG_RESP	1703542	n/a	LTP117	ltpFR	3	6	-1	FREEWAY	603	n/a	-1	n/a	n/a	n/a	n/a	n/a
3407.722	n/a	RECOG_CONF	1703861	n/a	LTP117	ltpFR	3	6	-1	FREEWAY	603	5	-1	n/a	n/a	n/a	n/a	n/a
3409.114	n/a	RECOG_TARGET	1704557	n/a	LTP117	ltpFR	3	6	1	DECK	443	5	0	n/a	n/a	n/a	n/a	n/a
3409.638	n/a	RECOG_RESP	1704819	n/a	LTP117	ltpFR	3	6	1	DECK	443	n/a	0	n/a	n/a	n/a	n/a	n/a
3410.236	n/a	RECOG_CONF	1705118	n/a	LTP117	ltpFR	3	6	1	DECK	443	5	0	n/a	n/a	n/a	n/a	n/a
3411.712	n/a	RECOG_TARGET	1705856	n/a	LTP117	ltpFR	3	6	1	OWNER	993	5	1	n/a	n/a	n/a	n/a	n/a
3412.136	n/a	RECOG_RESP	1706068	n/a	LTP117	ltpFR	3	6	1	OWNER	993	n/a	1	n/a	n/a	n/a	n/a	n/a
3412.77	n/a	RECOG_CONF	1706385	n/a	LTP117	ltpFR	3	6	1	OWNER	993	5	1	n/a	n/a	n/a	n/a	n/a
3414.2	n/a	RECOG_LURE	1707100	n/a	LTP117	ltpFR	3	6	n/a	HONEY	713	2	n/a	n/a	n/a	n/a	n/a	n/a
3417.22	n/a	RECOG_RESP	1708610	n/a	LTP117	ltpFR	3	6	n/a	HONEY	713	n/a	n/a	n/a	n/a	n/a	n/a	n/a
3417.938	n/a	RECOG_CONF	1708969	n/a	LTP117	ltpFR	3	6	n/a	HONEY	713	2	n/a	n/a	n/a	n/a	n/a	n/a
3419.454	n/a	RECOG_LURE	1709727	n/a	LTP117	ltpFR	3	6	n/a	BUILDING	191	2	n/a	n/a	n/a	n/a	n/a	n/a
3420.402	n/a	RECOG_RESP	1710201	n/a	LTP117	ltpFR	3	6	n/a	BUILDING	191	n/a	n/a	n/a	n/a	n/a	n/a	n/a
