mstime	trial_type	stim_file	subject	experiment	session	trial	task	item_name	item_num	recog_resp	recog_conf	resp	color_r	color_g	color_b	case	font
0	SESS_START	n/a	LTP197	ltpFR	1	n/a	n/a	n/a	n/a	1	5	n/a	n/a	n/a	n/a	n/a	n/a
77659	WORD	wordpools/wasnorm_wordpool_less_exclusions.txt	LTP197	ltpFR	1	1	1	COUCH	386	0	n/a	0	0.57763671875	0.412841796875	1	lower	zerothre.ttf
81740	WORD	wordpools/wasnorm_wordpool_less_exclusions.txt	LTP197	ltpFR	1	1	1	SLEIGH	1325	0	n/a	0	0.57763671875	0.412841796875	1	lower	zerothre.ttf
85620	WORD	wordpools/wasnorm_wordpool_less_exclusions.txt	LTP197	ltpFR	1	1	1	DESSERT	453	n/a	n/a	0	0.57763671875	0.412841796875	1	lower	zerothre.ttf
89452	WORD	wordpools/wasnorm_wordpool_less_exclusions.txt	LTP197	ltpFR	1	1	1	SHINGLE	1285	n/a	n/a	0	0.57763671875	0.412841796875	1	lower	zerothre.ttf
93467	WORD	wordpools/wasnorm_wordpool_less_exclusions.txt	LTP197	ltpFR	1	1	1	DOG	480	n/a	n/a	1	0.57763671875	0.412841796875	1	lower	zerothre.ttf
97298	WORD	wordpools/wasnorm_wordpool_less_exclusions.txt	LTP197	ltpFR	1	1	0	MAILMAN	858	n/a	n/a	1	0.422607421875	0.5869140625	0	upper	amplitud.ttf
101413	WORD	wordpools/wasnorm_wordpool_less_exclusions.txt	LTP197	ltpFR	1	1	0	FRAME	600	n/a	n/a	0	0.422607421875	0.5869140625	0	upper	amplitud.ttf
105495	WORD	wordpools/wasnorm_wordpool_less_exclusions.txt	LTP197	ltpFR	1	1	0	CAMERA	224	n/a	n/a	0	0.422607421875	0.5869140625	0	upper	amplitud.ttf
109662	WORD	wordpools/wasnorm_wordpool_less_exclusions.txt	LTP197	ltpFR	1	1	0	CAKE	219	n/a	n/a	1	0.422607421875	0.5869140625	0	upper	amplitud.ttf
113526	WORD	wordpools/wasnorm_wordpool_less_exclusions.txt	LTP197	ltpFR	1	1	1	GROOM	665	n/a	n/a	1	0.57763671875	0.412841796875	1	lower	zerothre.ttf
117460	WORD	wordpools/wasnorm_wordpool_less_exclusions.txt	LTP197	ltpFR	1	1	1	CATTLE	261	n/a	n/a	1	0.57763671875	0.412841796875	1	lower	zerothre.ttf
121422	WORD	wordpools/wasnorm_wordpool_less_exclusions.txt	LTP197	ltpFR	1	1	1	NEWSSTAND	949	n/a	n/a	0	0.57763671875	0.412841796875	1	lower	zerothre.ttf
125642	WORD	wordpools/wasnorm_wordpool_less_exclusions.txt	LTP197	ltpFR	1	1	0	NEWSPAPER	948	n/a	n/a	1	0.422607421875	0.5869140625	0	upper	amplitud.ttf
129687	WORD	wordpools/wasnorm_wordpool_less_exclusions.txt	LTP197	ltpFR	1	1	0	TREE	1502	n/a	n/a	1	0.422607421875	0.5869140625	0	upper	amplitud.ttf
133820	WORD	wordpools/wasnorm_wordpool_less_exclusions.txt	LTP197	ltpFR	1	1	0	BLUEJAY	141	n/a	n/a	0	0.422607421875	0.5869140625	0	upper	amplitud.ttf
137868	WORD	wordpools/wasnorm_wordpool_less_exclusions.txt	LTP197	ltpFR	1	1	0	LOUNGE	845	n/a	n/a	1	0.422607421875	0.5869140625	0	upper	amplitud.ttf
143573	REC_START	n/a	LTP197	ltpFR	1	1	n/a	n/a	n/a	n/a	n/a	n/a	n/a	n/a	n/a	n/a	n/a
144969	REC_WORD	wordpools/wasnorm_wordpool_less_exclusions.txt	LTP197	ltpFR	1	1	1	COUCH	386	n/a	n/a	0	n/a	n/a	n/a	n/a	n/a
146002	REC_WORD	wordpools/wasnorm_wordpool_less_exclusions.txt	LTP197	ltpFR	1	1	0	LOUNGE	845	n/a	n/a	1	n/a	n/a	n/a	n/a	n/a
147468	REC_WORD	wordpools/wasnorm_wordpool_less_exclusions.txt	LTP197	ltpFR	1	1	1	SLEIGH	1325	n/a	n/a	0	n/a	n/a	n/a	n/a	n/a
149250	REC_WORD	wordpools/wasnorm_wordpool_less_exclusions.txt	LTP197	ltpFR	1	1	n/a	COW	393	n/a	n/a	n/a	n/a	n/a	n/a	n/a	n/a
150342	REC_WORD	wordpools/wasnorm_wordpool_less_exclusions.txt	LTP197	ltpFR	1	1	1	GROOM	665	n/a	n/a	1	n/a	n/a	n/a	n/a	n/a
152208	REC_WORD	wordpools/wasnorm_wordpool_less_exclusions.txt	LTP197	ltpFR	1	1	0	NEWSPAPER	948	n/a	n/a	1	n/a	n/a	n/a	n/a	n/a
153240	REC_WORD	wordpools/wasnorm_wordpool_less_exclusions.txt	LTP197	ltpFR	1	1	1	NEWSSTAND	949	n/a	n/a	0	n/a	n/a	n/a	n/a	n/a
154240	REC_WORD_VV	wordpools/wasnorm_wordpool_less_exclusions.txt	LTP197	ltpFR	1	1	n/a	<>	-1	n/a	n/a	n/a	n/a	n/a	n/a	n/a	n/a
158165	REC_WORD	wordpools/wasnorm_wordpool_less_exclusions.txt	LTP197	ltpFR	1	1	1	DOG	480	n/a	n/a	1	n/a	n/a	n/a	n/a	n/a
159432	REC_WORD	wordpools/wasnorm_wordpool_less_exclusions.txt	LTP197	ltpFR	1	1	1	DESSERT	453	n/a	n/a	0	n/a	n/a	n/a	n/a	n/a
161322	REC_WORD	wordpools/wasnorm_wordpool_less_exclusions.txt	LTP197	ltpFR	1	1	0	FRAME	600	n/a	n/a	0	n/a	n/a	n/a	n/a	n/a
164006	REC_WORD	wordpools/wasnorm_wordpool_less_exclusions.txt	LTP197	ltpFR	1	1	0	CAMERA	224	n/a	n/a	0	n/a	n/a	n/a	n/a	n/a
170347	REC_WORD	wordpools/wasnorm_wordpool_less_exclusions.txt	LTP197	ltpFR	1	1	0	MAILMAN	858	n/a	n/a	1	n/a	n/a	n/a	n/a	n/a
223692	WORD	wordpools/wasnorm_wordpool_less_exclusions.txt	LTP197	ltpFR	1	2	0	PARROT	1015	n/a	n/a	1	0.422607421875	0.5869140625	0	upper	amplitud.ttf
227572	WORD	wordpools/wasnorm_wordpool_less_exclusions.txt	LTP197	ltpFR	1	2	0	KNOT	788	n/a	n/a	0	0.422607421875	0.5869140625	0	upper	amplitud.ttf
231637	WORD	wordpools/wasnorm_wordpool_less_exclusions.txt	LTP197	ltpFR	1	2	1	SEAGULL	1261	n/a	n/a	1	0.57763671875	0.412841796875	1	lower	zerothre.ttf
235754	WORD	wordpools/wasnorm_wordpool_less_exclusions.txt	LTP197	ltpFR	1	2	1	HAND	683	n/a	n/a	1	0.57763671875	0.412841796875	1	lower	zerothre.ttf
239669	WORD	wordpools/wasnorm_wordpool_less_exclusions.txt	LTP197	ltpFR	1	2	1	VET	1560	n/a	n/a	1	0.57763671875	0.412841796875	1	lower	zerothre.ttf
243633	WORD	wordpools/wasnorm_wordpool_less_exclusions.txt	LTP197	ltpFR	1	2	1	ANTEATER	26	n/a	n/a	1	0.57763671875	0.412841796875	1	lower	zerothre.ttf
247732	WORD	wordpools/wasnorm_wordpool_less_exclusions.txt	LTP197	ltpFR	1	2	1	TWISTER	1530	n/a	n/a	0	0.57763671875	0.412841796875	1	lower	zerothre.ttf
251666	WORD	wordpools/wasnorm_wordpool_less_exclusions.txt	LTP197	ltpFR	1	2	0	LOOP	844	n/a	n/a	0	0.422607421875	0.5869140625	0	upper	amplitud.ttf
255729	WORD	wordpools/wasnorm_wordpool_less_exclusions.txt	LTP197	ltpFR	1	2	0	PERCH	1048	n/a	n/a	1	0.422607421875	0.5869140625	0	upper	amplitud.ttf
259848	WORD	wordpools/wasnorm_wordpool_less_exclusions.txt	LTP197	ltpFR	1	2	0	CHAMPAGNE	278	n/a	n/a	0	0.422607421875	0.5869140625	0	upper	amplitud.ttf
263726	WORD	wordpools/wasnorm_wordpool_less_exclusions.txt	LTP197	ltpFR	1	2	0	BOTTLE	153	n/a	n/a	0	0.422607421875	0.5869140625	0	upper	amplitud.ttf
267623	WORD	wordpools/wasnorm_wordpool_less_exclusions.txt	LTP197	ltpFR	1	2	1	CREATURE	403	n/a	n/a	1	0.57763671875	0.412841796875	1	lower	zerothre.ttf
271571	WORD	wordpools/wasnorm_wordpool_less_exclusions.txt	LTP197	ltpFR	1	2	1	DRAWING	494	n/a	n/a	0	0.57763671875	0.412841796875	1	lower	zerothre.ttf
275755	WORD	wordpools/wasnorm_wordpool_less_exclusions.txt	LTP197	ltpFR	1	2	1	GIRAFFE	636	n/a	n/a	1	0.57763671875	0.412841796875	1	lower	zerothre.ttf
279720	WORD	wordpools/wasnorm_wordpool_less_exclusions.txt	LTP197	ltpFR	1	2	0	APE	31	n/a	n/a	1	0.422607421875	0.5869140625	0	upper	amplitud.ttf
283751	WORD	wordpools/wasnorm_wordpool_less_exclusions.txt	LTP197	ltpFR	1	2	0	CHIME	300	n/a	n/a	0	0.422607421875	0.5869140625	0	upper	amplitud.ttf
289708	REC_START	n/a	LTP197	ltpFR	1	2	n/a	n/a	n/a	n/a	n/a	n/a	n/a	n/a	n/a	n/a	n/a
291065	REC_WORD	wordpools/wasnorm_wordpool_less_exclusions.txt	LTP197	ltpFR	1	2	0	APE	31	n/a	n/a	1	n/a	n/a	n/a	n/a	n/a
292327	REC_WORD	wordpools/wasnorm_wordpool_less_exclusions.txt	LTP197	ltpFR	1	2	0	CHIME	300	n/a	n/a	0	n/a	n/a	n/a	n/a	n/a
294671	REC_WORD	wordpools/wasnorm_wordpool_less_exclusions.txt	LTP197	ltpFR	1	2	0	CHAMPAGNE	278	n/a	n/a	0	n/a	n/a	n/a	n/a	n/a
296038	REC_WORD	wordpools/wasnorm_wordpool_less_exclusions.txt	LTP197	ltpFR	1	2	0	BOTTLE	153	n/a	n/a	0	n/a	n/a	n/a	n/a	n/a
298598	REC_WORD	wordpools/wasnorm_wordpool_less_exclusions.txt	LTP197	ltpFR	1	2	0	KNOT	788	n/a	n/a	0	n/a	n/a	n/a	n/a	n/a
301072	REC_WORD	wordpools/wasnorm_wordpool_less_exclusions.txt	LTP197	ltpFR	1	2	1	HAND	683	n/a	n/a	1	n/a	n/a	n/a	n/a	n/a
314850	REC_WORD	wordpools/wasnorm_wordpool_less_exclusions.txt	LTP197	ltpFR	1	2	1	SEAGULL	1261	n/a	n/a	1	n/a	n/a	n/a	n/a	n/a
319579	REC_WORD	wordpools/wasnorm_wordpool_less_exclusions.txt	LTP197	ltpFR	1	2	n/a	TOUCAN	-1	n/a	n/a	n/a	n/a	n/a	n/a	n/a	n/a
327407	REC_WORD	wordpools/wasnorm_wordpool_less_exclusions.txt	LTP197	ltpFR	1	2	0	PERCH	1048	n/a	n/a	1	n/a	n/a	n/a	n/a	n/a
350599	REC_WORD	wordpools/wasnorm_wordpool_less_exclusions.txt	LTP197	ltpFR	1	2	1	ANTEATER	26	n/a	n/a	1	n/a	n/a	n/a	n/a	n/a
381218	WORD	wordpools/wasnorm_wordpool_less_exclusions.txt	LTP197	ltpFR	1	3	0	CANYON	235	n/a	n/a	1	0.422607421875	0.5869140625	0	upper	amplitud.ttf
385166	WORD	wordpools/wasnorm_wordpool_less_exclusions.txt	LTP197	ltpFR	1	3	0	CLIMBER	323	n/a	n/a	1	0.422607421875	0.5869140625	0	upper	amplitud.ttf
389116	WORD	wordpools/wasnorm_wordpool_less_exclusions.txt	LTP197	ltpFR	1	3	0	ESSAY	540	n/a	n/a	0	0.422607421875	0.5869140625	0	upper	amplitud.ttf
393069	WORD	wordpools/wasnorm_wordpool_less_exclusions.txt	LTP197	ltpFR	1	3	0	WRITER	1627	n/a	n/a	1	0.422607421875	0.5869140625	0	upper	amplitud.ttf
397098	WORD	wordpools/wasnorm_wordpool_less_exclusions.txt	LTP197	ltpFR	1	3	0	BIRD	129	n/a	n/a	0	0.422607421875	0.5869140625	0	upper	amplitud.ttf
401193	WORD	wordpools/wasnorm_wordpool_less_exclusions.txt	LTP197	ltpFR	1	3	0	CRICKET	408	n/a	n/a	0	0.422607421875	0.5869140625	0	upper	amplitud.ttf
405225	WORD	wordpools/wasnorm_wordpool_less_exclusions.txt	LTP197	ltpFR	1	3	0	RICE	1190	n/a	n/a	0	0.422607421875	0.5869140625	0	upper	amplitud.ttf
409424	WORD	wordpools/wasnorm_wordpool_less_exclusions.txt	LTP197	ltpFR	1	3	0	FOUNTAIN	597	n/a	n/a	1	0.422607421875	0.5869140625	0	upper	amplitud.ttf
413456	WORD	wordpools/wasnorm_wordpool_less_exclusions.txt	LTP197	ltpFR	1	3	0	SLIDE	1326	n/a	n/a	1	0.422607421875	0.5869140625	0	upper	amplitud.ttf
417623	WORD	wordpools/wasnorm_wordpool_less_exclusions.txt	LTP197	ltpFR	1	3	0	CROCODILE	411	n/a	n/a	1	0.422607421875	0.5869140625	0	upper	amplitud.ttf
421777	WORD	wordpools/wasnorm_wordpool_less_exclusions.txt	LTP197	ltpFR	1	3	0	HEART	697	n/a	n/a	0	0.422607421875	0.5869140625	0	upper	amplitud.ttf
425618	WORD	wordpools/wasnorm_wordpool_less_exclusions.txt	LTP197	ltpFR	1	3	0	WINE	1613	n/a	n/a	0	0.422607421875	0.5869140625	0	upper	amplitud.ttf
429583	WORD	wordpools/wasnorm_wordpool_less_exclusions.txt	LTP197	ltpFR	1	3	0	BEETLE	116	n/a	n/a	0	0.422607421875	0.5869140625	0	upper	amplitud.ttf
433615	WORD	wordpools/wasnorm_wordpool_less_exclusions.txt	LTP197	ltpFR	1	3	0	BOUQUET	157	n/a	n/a	1	0.422607421875	0.5869140625	0	upper	amplitud.ttf
437466	WORD	wordpools/wasnorm_wordpool_less_exclusions.txt	LTP197	ltpFR	1	3	0	CHICK	296	n/a	n/a	0	0.422607421875	0.5869140625	0	upper	amplitud.ttf
441461	WORD	wordpools/wasnorm_wordpool_less_exclusions.txt	LTP197	ltpFR	1	3	0	KEG	770	n/a	n/a	1	0.422607421875	0.5869140625	0	upper	amplitud.ttf
447401	REC_START	n/a	LTP197	ltpFR	1	3	n/a	n/a	n/a	n/a	n/a	n/a	n/a	n/a	n/a	n/a	n/a
448194	REC_WORD	wordpools/wasnorm_wordpool_less_exclusions.txt	LTP197	ltpFR	1	3	0	CANYON	235	n/a	n/a	1	n/a	n/a	n/a	n/a	n/a
449236	REC_WORD	wordpools/wasnorm_wordpool_less_exclusions.txt	LTP197	ltpFR	1	3	0	CLIMBER	323	n/a	n/a	1	n/a	n/a	n/a	n/a	n/a
451247	REC_WORD	wordpools/wasnorm_wordpool_less_exclusions.txt	LTP197	ltpFR	1	3	0	WRITER	1627	n/a	n/a	1	n/a	n/a	n/a	n/a	n/a
452115	REC_WORD	wordpools/wasnorm_wordpool_less_exclusions.txt	LTP197	ltpFR	1	3	0	ESSAY	540	n/a	n/a	0	n/a	n/a	n/a	n/a	n/a
454474	REC_WORD	wordpools/wasnorm_wordpool_less_exclusions.txt	LTP197	ltpFR	1	3	0	FOUNTAIN	597	n/a	n/a	1	n/a	n/a	n/a	n/a	n/a
455474	REC_WORD_VV	wordpools/wasnorm_wordpool_less_exclusions.txt	LTP197	ltpFR	1	3	n/a	<>	-1	n/a	n/a	n/a	n/a	n/a	n/a	n/a	n/a
458221	REC_WORD	wordpools/wasnorm_wordpool_less_exclusions.txt	LTP197	ltpFR	1	3	0	RICE	1190	n/a	n/a	0	n/a	n/a	n/a	n/a	n/a
463290	REC_WORD	wordpools/wasnorm_wordpool_less_exclusions.txt	LTP197	ltpFR	1	3	0	BEETLE	116	n/a	n/a	0	n/a	n/a	n/a	n/a	n/a
465939	REC_WORD	wordpools/wasnorm_wordpool_less_exclusions.txt	LTP197	ltpFR	1	3	0	CRICKET	408	n/a	n/a	0	n/a	n/a	n/a	n/a	n/a
466577	REC_WORD	wordpools/wasnorm_wordpool_less_exclusions.txt	LTP197	ltpFR	1	3	0	SLIDE	1326	n/a	n/a	1	n/a	n/a	n/a	n/a	n/a
472638	REC_WORD	wordpools/wasnorm_wordpool_less_exclusions.txt	LTP197	ltpFR	1	3	n/a	ALLIGATOR	16	n/a	n/a	n/a	n/a	n/a	n/a	n/a	n/a
476779	REC_WORD	wordpools/wasnorm_wordpool_less_exclusions.txt	LTP197	ltpFR	1	3	0	HEART	697	n/a	n/a	0	n/a	n/a	n/a	n/a	n/a
480620	REC_WORD	wordpools/wasnorm_wordpool_less_exclusions.txt	LTP197	ltpFR	1	3	0	KEG	770	n/a	n/a	1	n/a	n/a	n/a	n/a	n/a
529996	WORD	wordpools/wasnorm_wordpool_less_exclusions.txt	LTP197	ltpFR	1	4	-1	SUPPER	1411	n/a	n/a	-1	1.0	1.0	1	upper	Verdana.ttf
534094	WORD	wordpools/wasnorm_wordpool_less_exclusions.txt	LTP197	ltpFR	1	4	-1	STOMACH	1384	n/a	n/a	-1	1.0	1.0	1	upper	Verdana.ttf
538076	WORD	wordpools/wasnorm_wordpool_less_exclusions.txt	LTP197	ltpFR	1	4	-1	FARM	552	n/a	n/a	-1	1.0	1.0	1	upper	Verdana.ttf
542241	WORD	wordpools/wasnorm_wordpool_less_exclusions.txt	LTP197	ltpFR	1	4	-1	MANAGER	863	n/a	n/a	-1	1.0	1.0	1	upper	Verdana.ttf
546206	WORD	wordpools/wasnorm_wordpool_less_exclusions.txt	LTP197	ltpFR	1	4	-1	GANG	619	n/a	n/a	-1	1.0	1.0	1	upper	Verdana.ttf
550238	WORD	wordpools/wasnorm_wordpool_less_exclusions.txt	LTP197	ltpFR	1	4	-1	STEREO	1378	n/a	n/a	-1	1.0	1.0	1	upper	Verdana.ttf
554203	WORD	wordpools/wasnorm_wordpool_less_exclusions.txt	LTP197	ltpFR	1	4	-1	PENCIL	1042	n/a	n/a	-1	1.0	1.0	1	upper	Verdana.ttf
558087	WORD	wordpools/wasnorm_wordpool_less_exclusions.txt	LTP197	ltpFR	1	4	-1	FILM	565	n/a	n/a	-1	1.0	1.0	1	upper	Verdana.ttf
562083	WORD	wordpools/wasnorm_wordpool_less_exclusions.txt	LTP197	ltpFR	1	4	-1	STRING	1394	n/a	n/a	-1	1.0	1.0	1	upper	Verdana.ttf
566098	WORD	wordpools/wasnorm_wordpool_less_exclusions.txt	LTP197	ltpFR	1	4	-1	PERSON	1052	n/a	n/a	-1	1.0	1.0	1	upper	Verdana.ttf
570314	WORD	wordpools/wasnorm_wordpool_less_exclusions.txt	LTP197	ltpFR	1	4	-1	HUMAN	726	n/a	n/a	-1	1.0	1.0	1	upper	Verdana.ttf
574412	WORD	wordpools/wasnorm_wordpool_less_exclusions.txt	LTP197	ltpFR	1	4	-1	AUDIENCE	59	n/a	n/a	-1	1.0	1.0	1	upper	Verdana.ttf
578277	WORD	wordpools/wasnorm_wordpool_less_exclusions.txt	LTP197	ltpFR	1	4	-1	BULL	193	n/a	n/a	-1	1.0	1.0	1	upper	Verdana.ttf
582433	WORD	wordpools/wasnorm_wordpool_less_exclusions.txt	LTP197	ltpFR	1	4	-1	CAPE	237	n/a	n/a	-1	1.0	1.0	1	upper	Verdana.ttf
586475	WORD	wordpools/wasnorm_wordpool_less_exclusions.txt	LTP197	ltpFR	1	4	-1	FIELD	562	n/a	n/a	-1	1.0	1.0	1	upper	Verdana.ttf
590607	WORD	wordpools/wasnorm_wordpool_less_exclusions.txt	LTP197	ltpFR	1	4	-1	ARENA	37	n/a	n/a	-1	1.0	1.0	1	upper	Verdana.ttf
596379	REC_START	n/a	LTP197	ltpFR	1	4	n/a	n/a	n/a	n/a	n/a	n/a	n/a	n/a	n/a	n/a	n/a
597406	REC_WORD	wordpools/wasnorm_wordpool_less_exclusions.txt	LTP197	ltpFR	1	4	-1	BULL	193	n/a	n/a	-1	n/a	n/a	n/a	n/a	n/a
598035	REC_WORD	wordpools/wasnorm_wordpool_less_exclusions.txt	LTP197	ltpFR	1	4	-1	CAPE	237	n/a	n/a	-1	n/a	n/a	n/a	n/a	n/a
598893	REC_WORD	wordpools/wasnorm_wordpool_less_exclusions.txt	LTP197	ltpFR	1	4	-1	FIELD	562	n/a	n/a	-1	n/a	n/a	n/a	n/a	n/a
599597	REC_WORD	wordpools/wasnorm_wordpool_less_exclusions.txt	LTP197	ltpFR	1	4	-1	ARENA	37	n/a	n/a	-1	n/a	n/a	n/a	n/a	n/a
600869	REC_WORD	wordpools/wasnorm_wordpool_less_exclusions.txt	LTP197	ltpFR	1	4	-1	AUDIENCE	59	n/a	n/a	-1	n/a	n/a	n/a	n/a	n/a
602225	REC_WORD	wordpools/wasnorm_wordpool_less_exclusions.txt	LTP197	ltpFR	1	4	-1	PERSON	1052	n/a	n/a	-1	n/a	n/a	n/a	n/a	n/a
602924	REC_WORD	wordpools/wasnorm_wordpool_less_exclusions.txt	LTP197	ltpFR	1	4	-1	HUMAN	726	n/a	n/a	-1	n/a	n/a	n/a	n/a	n/a
604865	REC_WORD	wordpools/wasnorm_wordpool_less_exclusions.txt	LTP197	ltpFR	1	4	-1	GANG	619	n/a	n/a	-1	n/a	n/a	n/a	n/a	n/a
605458	REC_WORD	wordpools/wasnorm_wordpool_less_exclusions.txt	LTP197	ltpFR	1	4	-1	STEREO	1378	n/a	n/a	-1	n/a	n/a	n/a	n/a	n/a
606980	REC_WORD	wordpools/wasnorm_wordpool_less_exclusions.txt	LTP197	ltpFR	1	4	-1	STRING	1394	n/a	n/a	-1	n/a	n/a	n/a	n/a	n/a
608551	REC_WORD	wordpools/wasnorm_wordpool_less_exclusions.txt	LTP197	ltpFR	1	4	-1	PENCIL	1042	n/a	n/a	-1	n/a	n/a	n/a	n/a	n/a
609569	REC_WORD	wordpools/wasnorm_wordpool_less_exclusions.txt	LTP197	ltpFR	1	4	-1	MANAGER	863	n/a	n/a	-1	n/a	n/a	n/a	n/a	n/a
611669	REC_WORD	wordpools/wasnorm_wordpool_less_exclusions.txt	LTP197	ltpFR	1	4	-1	FARM	552	n/a	n/a	-1	n/a	n/a	n/a	n/a	n/a
612930	REC_WORD	wordpools/wasnorm_wordpool_less_exclusions.txt	LTP197	ltpFR	1	4	-1	SUPPER	1411	n/a	n/a	-1	n/a	n/a	n/a	n/a	n/a
618777	REC_WORD	wordpools/wasnorm_wordpool_less_exclusions.txt	LTP197	ltpFR	1	4	-1	STOMACH	1384	n/a	n/a	-1	n/a	n/a	n/a	n/a	n/a
679458	WORD	wordpools/wasnorm_wordpool_less_exclusions.txt	LTP197	ltpFR	1	5	-1	CORPORATION	382	n/a	n/a	-1	1.0	1.0	1	upper	Verdana.ttf
683557	WORD	wordpools/wasnorm_wordpool_less_exclusions.txt	LTP197	ltpFR	1	5	-1	BUILDER	190	n/a	n/a	-1	1.0	1.0	1	upper	Verdana.ttf
687572	WORD	wordpools/wasnorm_wordpool_less_exclusions.txt	LTP197	ltpFR	1	5	-1	COB	334	n/a	n/a	-1	1.0	1.0	1	upper	Verdana.ttf
691604	WORD	wordpools/wasnorm_wordpool_less_exclusions.txt	LTP197	ltpFR	1	5	-1	TOAST	1471	n/a	n/a	-1	1.0	1.0	1	upper	Verdana.ttf
695704	WORD	wordpools/wasnorm_wordpool_less_exclusions.txt	LTP197	ltpFR	1	5	-1	LONDON	843	n/a	n/a	-1	1.0	1.0	1	upper	Verdana.ttf
699702	WORD	wordpools/wasnorm_wordpool_less_exclusions.txt	LTP197	ltpFR	1	5	-1	CHURCH	307	n/a	n/a	-1	1.0	1.0	1	upper	Verdana.ttf
703901	WORD	wordpools/wasnorm_wordpool_less_exclusions.txt	LTP197	ltpFR	1	5	-1	MONASTERY	907	n/a	n/a	-1	1.0	1.0	1	upper	Verdana.ttf
707966	WORD	wordpools/wasnorm_wordpool_less_exclusions.txt	LTP197	ltpFR	1	5	-1	OATMEAL	967	n/a	n/a	-1	1.0	1.0	1	upper	Verdana.ttf
712182	WORD	wordpools/wasnorm_wordpool_less_exclusions.txt	LTP197	ltpFR	1	5	-1	WALNUT	1584	n/a	n/a	-1	1.0	1.0	1	upper	Verdana.ttf
716230	WORD	wordpools/wasnorm_wordpool_less_exclusions.txt	LTP197	ltpFR	1	5	-1	ELM	527	n/a	n/a	-1	1.0	1.0	1	upper	Verdana.ttf
720162	WORD	wordpools/wasnorm_wordpool_less_exclusions.txt	LTP197	ltpFR	1	5	-1	BLACKBERRY	132	n/a	n/a	-1	1.0	1.0	1	upper	Verdana.ttf
723993	WORD	wordpools/wasnorm_wordpool_less_exclusions.txt	LTP197	ltpFR	1	5	-1	CLIFF	322	n/a	n/a	-1	1.0	1.0	1	upper	Verdana.ttf
727875	WORD	wordpools/wasnorm_wordpool_less_exclusions.txt	LTP197	ltpFR	1	5	-1	DWARF	510	n/a	n/a	-1	1.0	1.0	1	upper	Verdana.ttf
731912	WORD	wordpools/wasnorm_wordpool_less_exclusions.txt	LTP197	ltpFR	1	5	-1	BLOSSOM	138	n/a	n/a	-1	1.0	1.0	1	upper	Verdana.ttf
736089	WORD	wordpools/wasnorm_wordpool_less_exclusions.txt	LTP197	ltpFR	1	5	-1	CANVAS	234	n/a	n/a	-1	1.0	1.0	1	upper	Verdana.ttf
740304	WORD	wordpools/wasnorm_wordpool_less_exclusions.txt	LTP197	ltpFR	1	5	-1	PARIS	1014	n/a	n/a	-1	1.0	1.0	1	upper	Verdana.ttf
746211	REC_START	n/a	LTP197	ltpFR	1	5	n/a	n/a	n/a	n/a	n/a	n/a	n/a	n/a	n/a	n/a	n/a
747418	REC_WORD	wordpools/wasnorm_wordpool_less_exclusions.txt	LTP197	ltpFR	1	5	-1	PARIS	1014	n/a	n/a	-1	n/a	n/a	n/a	n/a	n/a
748226	REC_WORD	wordpools/wasnorm_wordpool_less_exclusions.txt	LTP197	ltpFR	1	5	-1	LONDON	843	n/a	n/a	-1	n/a	n/a	n/a	n/a	n/a
749404	REC_WORD	wordpools/wasnorm_wordpool_less_exclusions.txt	LTP197	ltpFR	1	5	-1	CANVAS	234	n/a	n/a	-1	n/a	n/a	n/a	n/a	n/a
750910	REC_WORD	wordpools/wasnorm_wordpool_less_exclusions.txt	LTP197	ltpFR	1	5	-1	WALNUT	1584	n/a	n/a	-1	n/a	n/a	n/a	n/a	n/a
754482	REC_WORD	wordpools/wasnorm_wordpool_less_exclusions.txt	LTP197	ltpFR	1	5	-1	ELM	527	n/a	n/a	-1	n/a	n/a	n/a	n/a	n/a
755609	REC_WORD	wordpools/wasnorm_wordpool_less_exclusions.txt	LTP197	ltpFR	1	5	-1	OATMEAL	967	n/a	n/a	-1	n/a	n/a	n/a	n/a	n/a
758144	REC_WORD	wordpools/wasnorm_wordpool_less_exclusions.txt	LTP197	ltpFR	1	5	-1	MONASTERY	907	n/a	n/a	-1	n/a	n/a	n/a	n/a	n/a
759087	REC_WORD	wordpools/wasnorm_wordpool_less_exclusions.txt	LTP197	ltpFR	1	5	-1	CHURCH	307	n/a	n/a	-1	n/a	n/a	n/a	n/a	n/a
760508	REC_WORD	wordpools/wasnorm_wordpool_less_exclusions.txt	LTP197	ltpFR	1	5	-1	DWARF	510	n/a	n/a	-1	n/a	n/a	n/a	n/a	n/a
762628	REC_WORD	wordpools/wasnorm_wordpool_less_exclusions.txt	LTP197	ltpFR	1	5	-1	CORPORATION	382	n/a	n/a	-1	n/a	n/a	n/a	n/a	n/a
763626	REC_WORD	wordpools/wasnorm_wordpool_less_exclusions.txt	LTP197	ltpFR	1	5	-1	BUILDER	190	n/a	n/a	-1	n/a	n/a	n/a	n/a	n/a
767482	REC_WORD	wordpools/wasnorm_wordpool_less_exclusions.txt	LTP197	ltpFR	1	5	-1	COB	334	n/a	n/a	-1	n/a	n/a	n/a	n/a	n/a
769508	REC_WORD	wordpools/wasnorm_wordpool_less_exclusions.txt	LTP197	ltpFR	1	5	-1	TOAST	1471	n/a	n/a	-1	n/a	n/a	n/a	n/a	n/a
775694	REC_WORD	wordpools/wasnorm_wordpool_less_exclusions.txt	LTP197	ltpFR	1	5	-1	BLACKBERRY	132	n/a	n/a	-1	n/a	n/a	n/a	n/a	n/a
777919	REC_WORD	wordpools/wasnorm_wordpool_less_exclusions.txt	LTP197	ltpFR	1	5	-1	BLOSSOM	138	n/a	n/a	-1	n/a	n/a	n/a	n/a	n/a
797110	REC_WORD	wordpools/wasnorm_wordpool_less_exclusions.txt	LTP197	ltpFR	1	5	-1	CANVAS	234	n/a	n/a	-1	n/a	n/a	n/a	n/a	n/a
829860	WORD	wordpools/wasnorm_wordpool_less_exclusions.txt	LTP197	ltpFR	1	6	1	FIST	572	n/a	n/a	0	0.57763671875	0.412841796875	1	lower	zerothre.ttf
834007	WORD	wordpools/wasnorm_wordpool_less_exclusions.txt	LTP197	ltpFR	1	6	1	CORAL	378	n/a	n/a	1	0.57763671875	0.412841796875	1	lower	zerothre.ttf
837859	WORD	wordpools/wasnorm_wordpool_less_exclusions.txt	LTP197	ltpFR	1	6	1	LAMP	798	n/a	n/a	0	0.57763671875	0.412841796875	1	lower	zerothre.ttf
842071	WORD	wordpools/wasnorm_wordpool_less_exclusions.txt	LTP197	ltpFR	1	6	1	BEEF	113	n/a	n/a	1	0.57763671875	0.412841796875	1	lower	zerothre.ttf
846139	WORD	wordpools/wasnorm_wordpool_less_exclusions.txt	LTP197	ltpFR	1	6	1	BREAST	171	n/a	n/a	1	0.57763671875	0.412841796875	1	lower	zerothre.ttf
850018	WORD	wordpools/wasnorm_wordpool_less_exclusions.txt	LTP197	ltpFR	1	6	1	POSSUM	1112	n/a	n/a	1	0.57763671875	0.412841796875	1	lower	zerothre.ttf
853883	WORD	wordpools/wasnorm_wordpool_less_exclusions.txt	LTP197	ltpFR	1	6	1	FLASHLIGHT	575	n/a	n/a	0	0.57763671875	0.412841796875	1	lower	zerothre.ttf
857785	WORD	wordpools/wasnorm_wordpool_less_exclusions.txt	LTP197	ltpFR	1	6	1	FREEWAY	603	n/a	n/a	0	0.57763671875	0.412841796875	1	lower	zerothre.ttf
861880	WORD	wordpools/wasnorm_wordpool_less_exclusions.txt	LTP197	ltpFR	1	6	1	STALLION	1369	n/a	n/a	1	0.57763671875	0.412841796875	1	lower	zerothre.ttf
865795	WORD	wordpools/wasnorm_wordpool_less_exclusions.txt	LTP197	ltpFR	1	6	1	NERVE	944	n/a	n/a	1	0.57763671875	0.412841796875	1	lower	zerothre.ttf
869829	WORD	wordpools/wasnorm_wordpool_less_exclusions.txt	LTP197	ltpFR	1	6	1	NUCLEUS	961	n/a	n/a	0	0.57763671875	0.412841796875	1	lower	zerothre.ttf
873708	WORD	wordpools/wasnorm_wordpool_less_exclusions.txt	LTP197	ltpFR	1	6	1	FARMER	553	n/a	n/a	1	0.57763671875	0.412841796875	1	lower	zerothre.ttf
877694	WORD	wordpools/wasnorm_wordpool_less_exclusions.txt	LTP197	ltpFR	1	6	1	BANDIT	81	n/a	n/a	1	0.57763671875	0.412841796875	1	lower	zerothre.ttf
881772	WORD	wordpools/wasnorm_wordpool_less_exclusions.txt	LTP197	ltpFR	1	6	1	SALESMAN	1225	n/a	n/a	1	0.57763671875	0.412841796875	1	lower	zerothre.ttf
885854	WORD	wordpools/wasnorm_wordpool_less_exclusions.txt	LTP197	ltpFR	1	6	1	BRIDGE	174	n/a	n/a	0	0.57763671875	0.412841796875	1	lower	zerothre.ttf
889852	WORD	wordpools/wasnorm_wordpool_less_exclusions.txt	LTP197	ltpFR	1	6	1	RIVER	1194	n/a	n/a	0	0.57763671875	0.412841796875	1	lower	zerothre.ttf
895775	REC_START	n/a	LTP197	ltpFR	1	6	n/a	n/a	n/a	n/a	n/a	n/a	n/a	n/a	n/a	n/a	n/a
897551	REC_WORD	wordpools/wasnorm_wordpool_less_exclusions.txt	LTP197	ltpFR	1	6	1	RIVER	1194	n/a	n/a	0	n/a	n/a	n/a	n/a	n/a
898543	REC_WORD	wordpools/wasnorm_wordpool_less_exclusions.txt	LTP197	ltpFR	1	6	1	BRIDGE	174	n/a	n/a	0	n/a	n/a	n/a	n/a	n/a
901372	REC_WORD	wordpools/wasnorm_wordpool_less_exclusions.txt	LTP197	ltpFR	1	6	1	FREEWAY	603	n/a	n/a	0	n/a	n/a	n/a	n/a	n/a
902254	REC_WORD	wordpools/wasnorm_wordpool_less_exclusions.txt	LTP197	ltpFR	1	6	1	STALLION	1369	n/a	n/a	1	n/a	n/a	n/a	n/a	n/a
903497	REC_WORD	wordpools/wasnorm_wordpool_less_exclusions.txt	LTP197	ltpFR	1	6	1	NERVE	944	n/a	n/a	1	n/a	n/a	n/a	n/a	n/a
904994	REC_WORD	wordpools/wasnorm_wordpool_less_exclusions.txt	LTP197	ltpFR	1	6	1	FARMER	553	n/a	n/a	1	n/a	n/a	n/a	n/a	n/a
907034	REC_WORD	wordpools/wasnorm_wordpool_less_exclusions.txt	LTP197	ltpFR	1	6	1	CORAL	378	n/a	n/a	1	n/a	n/a	n/a	n/a	n/a
907743	REC_WORD	wordpools/wasnorm_wordpool_less_exclusions.txt	LTP197	ltpFR	1	6	1	FIST	572	n/a	n/a	0	n/a	n/a	n/a	n/a	n/a
909499	REC_WORD	wordpools/wasnorm_wordpool_less_exclusions.txt	LTP197	ltpFR	1	6	1	POSSUM	1112	n/a	n/a	1	n/a	n/a	n/a	n/a	n/a
911534	REC_WORD	wordpools/wasnorm_wordpool_less_exclusions.txt	LTP197	ltpFR	1	6	1	BEEF	113	n/a	n/a	1	n/a	n/a	n/a	n/a	n/a
913679	REC_WORD	wordpools/wasnorm_wordpool_less_exclusions.txt	LTP197	ltpFR	1	6	1	BREAST	171	n/a	n/a	1	n/a	n/a	n/a	n/a	n/a
925472	REC_WORD	wordpools/wasnorm_wordpool_less_exclusions.txt	LTP197	ltpFR	1	6	1	SALESMAN	1225	n/a	n/a	1	n/a	n/a	n/a	n/a	n/a
976277	WORD	wordpools/wasnorm_wordpool_less_exclusions.txt	LTP197	ltpFR	1	7	0	HEDGE	699	n/a	n/a	1	0.422607421875	0.5869140625	0	upper	amplitud.ttf
980461	WORD	wordpools/wasnorm_wordpool_less_exclusions.txt	LTP197	ltpFR	1	7	0	BARLEY	88	n/a	n/a	0	0.422607421875	0.5869140625	0	upper	amplitud.ttf
984374	WORD	wordpools/wasnorm_wordpool_less_exclusions.txt	LTP197	ltpFR	1	7	0	CONSOLE	364	n/a	n/a	0	0.422607421875	0.5869140625	0	upper	amplitud.ttf
988356	WORD	wordpools/wasnorm_wordpool_less_exclusions.txt	LTP197	ltpFR	1	7	0	SPARROW	1347	n/a	n/a	0	0.422607421875	0.5869140625	0	upper	amplitud.ttf
992222	WORD	wordpools/wasnorm_wordpool_less_exclusions.txt	LTP197	ltpFR	1	7	1	CHAIRPERSON	275	n/a	n/a	1	0.57763671875	0.412841796875	1	lower	zerothre.ttf
996085	WORD	wordpools/wasnorm_wordpool_less_exclusions.txt	LTP197	ltpFR	1	7	1	MONK	910	n/a	n/a	1	0.57763671875	0.412841796875	1	lower	zerothre.ttf
1000020	WORD	wordpools/wasnorm_wordpool_less_exclusions.txt	LTP197	ltpFR	1	7	1	POT	1114	n/a	n/a	0	0.57763671875	0.412841796875	1	lower	zerothre.ttf
1003882	WORD	wordpools/wasnorm_wordpool_less_exclusions.txt	LTP197	ltpFR	1	7	1	EAGLE	512	n/a	n/a	1	0.57763671875	0.412841796875	1	lower	zerothre.ttf
1008097	WORD	wordpools/wasnorm_wordpool_less_exclusions.txt	LTP197	ltpFR	1	7	0	SYRUP	1425	n/a	n/a	0	0.422607421875	0.5869140625	0	upper	amplitud.ttf
1012114	WORD	wordpools/wasnorm_wordpool_less_exclusions.txt	LTP197	ltpFR	1	7	0	MAPLE	866	n/a	n/a	0	0.422607421875	0.5869140625	0	upper	amplitud.ttf
1016127	WORD	wordpools/wasnorm_wordpool_less_exclusions.txt	LTP197	ltpFR	1	7	0	BATTERY	101	n/a	n/a	0	0.422607421875	0.5869140625	0	upper	amplitud.ttf
1020126	WORD	wordpools/wasnorm_wordpool_less_exclusions.txt	LTP197	ltpFR	1	7	0	DESK	452	n/a	n/a	1	0.422607421875	0.5869140625	0	upper	amplitud.ttf
1024191	WORD	wordpools/wasnorm_wordpool_less_exclusions.txt	LTP197	ltpFR	1	7	1	PROTRACTOR	1133	n/a	n/a	0	0.57763671875	0.412841796875	1	lower	zerothre.ttf
1028323	WORD	wordpools/wasnorm_wordpool_less_exclusions.txt	LTP197	ltpFR	1	7	1	LAGOON	795	n/a	n/a	0	0.57763671875	0.412841796875	1	lower	zerothre.ttf
1032523	WORD	wordpools/wasnorm_wordpool_less_exclusions.txt	LTP197	ltpFR	1	7	1	PIER	1063	n/a	n/a	0	0.57763671875	0.412841796875	1	lower	zerothre.ttf
1036454	WORD	wordpools/wasnorm_wordpool_less_exclusions.txt	LTP197	ltpFR	1	7	1	TYPEWRITER	1531	n/a	n/a	0	0.57763671875	0.412841796875	1	lower	zerothre.ttf
1042143	REC_START	n/a	LTP197	ltpFR	1	7	n/a	n/a	n/a	n/a	n/a	n/a	n/a	n/a	n/a	n/a	n/a
1043225	REC_WORD	wordpools/wasnorm_wordpool_less_exclusions.txt	LTP197	ltpFR	1	7	1	CHAIRPERSON	275	n/a	n/a	1	n/a	n/a	n/a	n/a	n/a
1044248	REC_WORD	wordpools/wasnorm_wordpool_less_exclusions.txt	LTP197	ltpFR	1	7	1	MONK	910	n/a	n/a	1	n/a	n/a	n/a	n/a	n/a
1045545	REC_WORD	wordpools/wasnorm_wordpool_less_exclusions.txt	LTP197	ltpFR	1	7	1	TYPEWRITER	1531	n/a	n/a	0	n/a	n/a	n/a	n/a	n/a
1048129	REC_WORD	wordpools/wasnorm_wordpool_less_exclusions.txt	LTP197	ltpFR	1	7	1	LAGOON	795	n/a	n/a	0	n/a	n/a	n/a	n/a	n/a
1051317	REC_WORD	wordpools/wasnorm_wordpool_less_exclusions.txt	LTP197	ltpFR	1	7	0	HEDGE	699	n/a	n/a	1	n/a	n/a	n/a	n/a	n/a
1052375	REC_WORD	wordpools/wasnorm_wordpool_less_exclusions.txt	LTP197	ltpFR	1	7	0	BARLEY	88	n/a	n/a	0	n/a	n/a	n/a	n/a	n/a
1053198	REC_WORD	wordpools/wasnorm_wordpool_less_exclusions.txt	LTP197	ltpFR	1	7	1	POT	1114	n/a	n/a	0	n/a	n/a	n/a	n/a	n/a
1054994	REC_WORD	wordpools/wasnorm_wordpool_less_exclusions.txt	LTP197	ltpFR	1	7	1	PROTRACTOR	1133	n/a	n/a	0	n/a	n/a	n/a	n/a	n/a
1056241	REC_WORD	wordpools/wasnorm_wordpool_less_exclusions.txt	LTP197	ltpFR	1	7	0	SPARROW	1347	n/a	n/a	0	n/a	n/a	n/a	n/a	n/a
1057443	REC_WORD	wordpools/wasnorm_wordpool_less_exclusions.txt	LTP197	ltpFR	1	7	1	EAGLE	512	n/a	n/a	1	n/a	n/a	n/a	n/a	n/a
1078715	REC_WORD	wordpools/wasnorm_wordpool_less_exclusions.txt	LTP197	ltpFR	1	7	0	CONSOLE	364	n/a	n/a	0	n/a	n/a	n/a	n/a	n/a
1129489	WORD	wordpools/wasnorm_wordpool_less_exclusions.txt	LTP197	ltpFR	1	8	1	BEE	112	n/a	n/a	n/a	0.57763671875	0.412841796875	1	lower	zerothre.ttf
1132533	SLOW_MSG	n/a	LTP197	ltpFR	1	8	n/a	n/a	n/a	n/a	n/a	n/a	n/a	n/a	n/a	n/a	n/a
1134892	WORD	wordpools/wasnorm_wordpool_less_exclusions.txt	LTP197	ltpFR	1	8	1	HUT	729	n/a	n/a	0	0.57763671875	0.412841796875	1	lower	zerothre.ttf
1138796	WORD	wordpools/wasnorm_wordpool_less_exclusions.txt	LTP197	ltpFR	1	8	1	TRACTOR	1493	n/a	n/a	0	0.57763671875	0.412841796875	1	lower	zerothre.ttf
1142906	WORD	wordpools/wasnorm_wordpool_less_exclusions.txt	LTP197	ltpFR	1	8	0	BUFFALO	186	n/a	n/a	1	0.422607421875	0.5869140625	0	upper	amplitud.ttf
1146888	WORD	wordpools/wasnorm_wordpool_less_exclusions.txt	LTP197	ltpFR	1	8	0	BOWL	158	n/a	n/a	0	0.422607421875	0.5869140625	0	upper	amplitud.ttf
1150819	WORD	wordpools/wasnorm_wordpool_less_exclusions.txt	LTP197	ltpFR	1	8	0	WASP	1593	n/a	n/a	0	0.422607421875	0.5869140625	0	upper	amplitud.ttf
1154684	WORD	wordpools/wasnorm_wordpool_less_exclusions.txt	LTP197	ltpFR	1	8	0	PRAIRIE	1118	n/a	n/a	1	0.422607421875	0.5869140625	0	upper	amplitud.ttf
1158665	WORD	wordpools/wasnorm_wordpool_less_exclusions.txt	LTP197	ltpFR	1	8	0	GOOSE	649	n/a	n/a	0	0.422607421875	0.5869140625	0	upper	amplitud.ttf
1162764	WORD	wordpools/wasnorm_wordpool_less_exclusions.txt	LTP197	ltpFR	1	8	0	POND	1101	n/a	n/a	1	0.422607421875	0.5869140625	0	upper	amplitud.ttf
1166746	WORD	wordpools/wasnorm_wordpool_less_exclusions.txt	LTP197	ltpFR	1	8	1	BONE	148	n/a	n/a	0	0.57763671875	0.412841796875	1	lower	zerothre.ttf
1170782	WORD	wordpools/wasnorm_wordpool_less_exclusions.txt	LTP197	ltpFR	1	8	1	JOINT	758	n/a	n/a	0	0.57763671875	0.412841796875	1	lower	zerothre.ttf
1174811	WORD	wordpools/wasnorm_wordpool_less_exclusions.txt	LTP197	ltpFR	1	8	1	ANTENNA	28	n/a	n/a	1	0.57763671875	0.412841796875	1	lower	zerothre.ttf
1178974	WORD	wordpools/wasnorm_wordpool_less_exclusions.txt	LTP197	ltpFR	1	8	0	OPERA	978	n/a	n/a	1	0.422607421875	0.5869140625	0	upper	amplitud.ttf
1182873	WORD	wordpools/wasnorm_wordpool_less_exclusions.txt	LTP197	ltpFR	1	8	0	PLAZA	1088	n/a	n/a	1	0.422607421875	0.5869140625	0	upper	amplitud.ttf
1186995	WORD	wordpools/wasnorm_wordpool_less_exclusions.txt	LTP197	ltpFR	1	8	1	ANTELOPE	27	n/a	n/a	1	0.57763671875	0.412841796875	1	lower	zerothre.ttf
1191120	WORD	wordpools/wasnorm_wordpool_less_exclusions.txt	LTP197	ltpFR	1	8	1	ACTRESS	6	n/a	n/a	1	0.57763671875	0.412841796875	1	lower	zerothre.ttf
1196860	REC_START	n/a	LTP197	ltpFR	1	8	n/a	n/a	n/a	n/a	n/a	n/a	n/a	n/a	n/a	n/a	n/a
1197872	REC_WORD	wordpools/wasnorm_wordpool_less_exclusions.txt	LTP197	ltpFR	1	8	1	ANTELOPE	27	n/a	n/a	1	n/a	n/a	n/a	n/a	n/a
1199035	REC_WORD	wordpools/wasnorm_wordpool_less_exclusions.txt	LTP197	ltpFR	1	8	0	BUFFALO	186	n/a	n/a	1	n/a	n/a	n/a	n/a	n/a
1200058	REC_WORD	wordpools/wasnorm_wordpool_less_exclusions.txt	LTP197	ltpFR	1	8	1	ACTRESS	6	n/a	n/a	1	n/a	n/a	n/a	n/a	n/a
1201798	REC_WORD	wordpools/wasnorm_wordpool_less_exclusions.txt	LTP197	ltpFR	1	8	0	PLAZA	1088	n/a	n/a	1	n/a	n/a	n/a	n/a	n/a
1202881	REC_WORD	wordpools/wasnorm_wordpool_less_exclusions.txt	LTP197	ltpFR	1	8	0	PRAIRIE	1118	n/a	n/a	1	n/a	n/a	n/a	n/a	n/a
1203914	REC_WORD	wordpools/wasnorm_wordpool_less_exclusions.txt	LTP197	ltpFR	1	8	1	TRACTOR	1493	n/a	n/a	0	n/a	n/a	n/a	n/a	n/a
1205844	REC_WORD	wordpools/wasnorm_wordpool_less_exclusions.txt	LTP197	ltpFR	1	8	1	HUT	729	n/a	n/a	0	n/a	n/a	n/a	n/a	n/a
1207526	REC_WORD	wordpools/wasnorm_wordpool_less_exclusions.txt	LTP197	ltpFR	1	8	0	BOWL	158	n/a	n/a	0	n/a	n/a	n/a	n/a	n/a
1208708	REC_WORD	wordpools/wasnorm_wordpool_less_exclusions.txt	LTP197	ltpFR	1	8	0	WASP	1593	n/a	n/a	0	n/a	n/a	n/a	n/a	n/a
1209736	REC_WORD	wordpools/wasnorm_wordpool_less_exclusions.txt	LTP197	ltpFR	1	8	1	BEE	112	n/a	n/a	n/a	n/a	n/a	n/a	n/a	n/a
1218575	REC_WORD	wordpools/wasnorm_wordpool_less_exclusions.txt	LTP197	ltpFR	1	8	1	BONE	148	n/a	n/a	0	n/a	n/a	n/a	n/a	n/a
1219947	REC_WORD	wordpools/wasnorm_wordpool_less_exclusions.txt	LTP197	ltpFR	1	8	1	JOINT	758	n/a	n/a	0	n/a	n/a	n/a	n/a	n/a
1285609	WORD	wordpools/wasnorm_wordpool_less_exclusions.txt	LTP197	ltpFR	1	9	0	GEM	629	n/a	n/a	0	0.422607421875	0.5869140625	0	upper	amplitud.ttf
1289664	WORD	wordpools/wasnorm_wordpool_less_exclusions.txt	LTP197	ltpFR	1	9	0	ROD	1203	n/a	n/a	1	0.422607421875	0.5869140625	0	upper	amplitud.ttf
1293808	WORD	wordpools/wasnorm_wordpool_less_exclusions.txt	LTP197	ltpFR	1	9	0	PADDLE	1000	n/a	n/a	1	0.422607421875	0.5869140625	0	upper	amplitud.ttf
1297712	WORD	wordpools/wasnorm_wordpool_less_exclusions.txt	LTP197	ltpFR	1	9	0	DOCK	477	n/a	n/a	1	0.422607421875	0.5869140625	0	upper	amplitud.ttf
1301755	WORD	wordpools/wasnorm_wordpool_less_exclusions.txt	LTP197	ltpFR	1	9	0	SHRINE	1298	n/a	n/a	1	0.422607421875	0.5869140625	0	upper	amplitud.ttf
1305878	WORD	wordpools/wasnorm_wordpool_less_exclusions.txt	LTP197	ltpFR	1	9	0	HORSE	719	n/a	n/a	1	0.422607421875	0.5869140625	0	upper	amplitud.ttf
1309768	WORD	wordpools/wasnorm_wordpool_less_exclusions.txt	LTP197	ltpFR	1	9	0	BIOLOGIST	128	n/a	n/a	1	0.422607421875	0.5869140625	0	upper	amplitud.ttf
1313718	WORD	wordpools/wasnorm_wordpool_less_exclusions.txt	LTP197	ltpFR	1	9	0	SCALLOP	1242	n/a	n/a	0	0.422607421875	0.5869140625	0	upper	amplitud.ttf
1317755	WORD	wordpools/wasnorm_wordpool_less_exclusions.txt	LTP197	ltpFR	1	9	0	COLT	349	n/a	n/a	1	0.422607421875	0.5869140625	0	upper	amplitud.ttf
1321713	WORD	wordpools/wasnorm_wordpool_less_exclusions.txt	LTP197	ltpFR	1	9	0	TELESCOPE	1446	n/a	n/a	1	0.422607421875	0.5869140625	0	upper	amplitud.ttf
1325879	WORD	wordpools/wasnorm_wordpool_less_exclusions.txt	LTP197	ltpFR	1	9	0	BOMB	147	n/a	n/a	1	0.422607421875	0.5869140625	0	upper	amplitud.ttf
1329977	WORD	wordpools/wasnorm_wordpool_less_exclusions.txt	LTP197	ltpFR	1	9	0	ATLAS	53	n/a	n/a	1	0.422607421875	0.5869140625	0	upper	amplitud.ttf
1333909	WORD	wordpools/wasnorm_wordpool_less_exclusions.txt	LTP197	ltpFR	1	9	0	THESAURUS	1454	n/a	n/a	1	0.422607421875	0.5869140625	0	upper	amplitud.ttf
1338107	WORD	wordpools/wasnorm_wordpool_less_exclusions.txt	LTP197	ltpFR	1	9	0	LINEN	825	n/a	n/a	1	0.422607421875	0.5869140625	0	upper	amplitud.ttf
1342056	WORD	wordpools/wasnorm_wordpool_less_exclusions.txt	LTP197	ltpFR	1	9	0	HAMMOCK	681	n/a	n/a	1	0.422607421875	0.5869140625	0	upper	amplitud.ttf
1346021	WORD	wordpools/wasnorm_wordpool_less_exclusions.txt	LTP197	ltpFR	1	9	0	SEA	1259	n/a	n/a	1	0.422607421875	0.5869140625	0	upper	amplitud.ttf
1351744	REC_START	n/a	LTP197	ltpFR	1	9	n/a	n/a	n/a	n/a	n/a	n/a	n/a	n/a	n/a	n/a	n/a
1354687	REC_WORD	wordpools/wasnorm_wordpool_less_exclusions.txt	LTP197	ltpFR	1	9	0	GEM	629	n/a	n/a	0	n/a	n/a	n/a	n/a	n/a
1355849	REC_WORD	wordpools/wasnorm_wordpool_less_exclusions.txt	LTP197	ltpFR	1	9	0	DOCK	477	n/a	n/a	1	n/a	n/a	n/a	n/a	n/a
1357012	REC_WORD	wordpools/wasnorm_wordpool_less_exclusions.txt	LTP197	ltpFR	1	9	0	ROD	1203	n/a	n/a	1	n/a	n/a	n/a	n/a	n/a
1358029	REC_WORD	wordpools/wasnorm_wordpool_less_exclusions.txt	LTP197	ltpFR	1	9	0	PADDLE	1000	n/a	n/a	1	n/a	n/a	n/a	n/a	n/a
1359641	REC_WORD	wordpools/wasnorm_wordpool_less_exclusions.txt	LTP197	ltpFR	1	9	0	SEA	1259	n/a	n/a	1	n/a	n/a	n/a	n/a	n/a
1361436	REC_WORD	wordpools/wasnorm_wordpool_less_exclusions.txt	LTP197	ltpFR	1	9	1	STALLION	1369	n/a	n/a	1	n/a	n/a	n/a	n/a	n/a
1362759	REC_WORD	wordpools/wasnorm_wordpool_less_exclusions.txt	LTP197	ltpFR	1	9	0	COLT	349	n/a	n/a	1	n/a	n/a	n/a	n/a	n/a
1364969	REC_WORD	wordpools/wasnorm_wordpool_less_exclusions.txt	LTP197	ltpFR	1	9	0	BIOLOGIST	128	n/a	n/a	1	n/a	n/a	n/a	n/a	n/a
1365969	REC_WORD_VV	wordpools/wasnorm_wordpool_less_exclusions.txt	LTP197	ltpFR	1	9	n/a	<>	-1	n/a	n/a	n/a	n/a	n/a	n/a	n/a	n/a
1366260	REC_WORD	wordpools/wasnorm_wordpool_less_exclusions.txt	LTP197	ltpFR	1	9	0	SCALLOP	1242	n/a	n/a	0	n/a	n/a	n/a	n/a	n/a
1367463	REC_WORD	wordpools/wasnorm_wordpool_less_exclusions.txt	LTP197	ltpFR	1	9	0	TELESCOPE	1446	n/a	n/a	1	n/a	n/a	n/a	n/a	n/a
1368875	REC_WORD	wordpools/wasnorm_wordpool_less_exclusions.txt	LTP197	ltpFR	1	9	0	LINEN	825	n/a	n/a	1	n/a	n/a	n/a	n/a	n/a
1370187	REC_WORD	wordpools/wasnorm_wordpool_less_exclusions.txt	LTP197	ltpFR	1	9	0	HAMMOCK	681	n/a	n/a	1	n/a	n/a	n/a	n/a	n/a
1374791	REC_WORD	wordpools/wasnorm_wordpool_less_exclusions.txt	LTP197	ltpFR	1	9	0	BOMB	147	n/a	n/a	1	n/a	n/a	n/a	n/a	n/a
1436411	WORD	wordpools/wasnorm_wordpool_less_exclusions.txt	LTP197	ltpFR	1	10	1	ARM	38	n/a	n/a	1	0.57763671875	0.412841796875	1	lower	zerothre.ttf
1440393	WORD	wordpools/wasnorm_wordpool_less_exclusions.txt	LTP197	ltpFR	1	10	1	BRACELET	163	n/a	n/a	0	0.57763671875	0.412841796875	1	lower	zerothre.ttf
1444443	WORD	wordpools/wasnorm_wordpool_less_exclusions.txt	LTP197	ltpFR	1	10	1	TOTE	1487	n/a	n/a	0	0.57763671875	0.412841796875	1	lower	zerothre.ttf
1448658	WORD	wordpools/wasnorm_wordpool_less_exclusions.txt	LTP197	ltpFR	1	10	1	BEDROOM	111	n/a	n/a	0	0.57763671875	0.412841796875	1	lower	zerothre.ttf
1452572	WORD	wordpools/wasnorm_wordpool_less_exclusions.txt	LTP197	ltpFR	1	10	1	COMMUNITY	356	n/a	n/a	0	0.57763671875	0.412841796875	1	lower	zerothre.ttf
1456705	WORD	wordpools/wasnorm_wordpool_less_exclusions.txt	LTP197	ltpFR	1	10	1	DUST	508	n/a	n/a	0	0.57763671875	0.412841796875	1	lower	zerothre.ttf
1460569	WORD	wordpools/wasnorm_wordpool_less_exclusions.txt	LTP197	ltpFR	1	10	1	TAIL	1430	n/a	n/a	1	0.57763671875	0.412841796875	1	lower	zerothre.ttf
1464669	WORD	wordpools/wasnorm_wordpool_less_exclusions.txt	LTP197	ltpFR	1	10	1	COYOTE	396	n/a	n/a	1	0.57763671875	0.412841796875	1	lower	zerothre.ttf
1468851	WORD	wordpools/wasnorm_wordpool_less_exclusions.txt	LTP197	ltpFR	1	10	1	FINGERNAIL	568	n/a	n/a	1	0.57763671875	0.412841796875	1	lower	zerothre.ttf
1472835	WORD	wordpools/wasnorm_wordpool_less_exclusions.txt	LTP197	ltpFR	1	10	1	GLOVE	642	n/a	n/a	0	0.57763671875	0.412841796875	1	lower	zerothre.ttf
1476838	WORD	wordpools/wasnorm_wordpool_less_exclusions.txt	LTP197	ltpFR	1	10	1	PILLOW	1069	n/a	n/a	0	0.57763671875	0.412841796875	1	lower	zerothre.ttf
1480866	WORD	wordpools/wasnorm_wordpool_less_exclusions.txt	LTP197	ltpFR	1	10	1	OCTOPUS	971	n/a	n/a	1	0.57763671875	0.412841796875	1	lower	zerothre.ttf
1484978	WORD	wordpools/wasnorm_wordpool_less_exclusions.txt	LTP197	ltpFR	1	10	1	SHELTER	1282	n/a	n/a	0	0.57763671875	0.412841796875	1	lower	zerothre.ttf
1488927	WORD	wordpools/wasnorm_wordpool_less_exclusions.txt	LTP197	ltpFR	1	10	1	HERO	706	n/a	n/a	1	0.57763671875	0.412841796875	1	lower	zerothre.ttf
1492974	WORD	wordpools/wasnorm_wordpool_less_exclusions.txt	LTP197	ltpFR	1	10	1	BAY	102	n/a	n/a	0	0.57763671875	0.412841796875	1	lower	zerothre.ttf
1496989	WORD	wordpools/wasnorm_wordpool_less_exclusions.txt	LTP197	ltpFR	1	10	1	MAID	856	n/a	n/a	1	0.57763671875	0.412841796875	1	lower	zerothre.ttf
1502746	REC_START	n/a	LTP197	ltpFR	1	10	n/a	n/a	n/a	n/a	n/a	n/a	n/a	n/a	n/a	n/a	n/a
1503669	REC_WORD	wordpools/wasnorm_wordpool_less_exclusions.txt	LTP197	ltpFR	1	10	1	COMMUNITY	356	n/a	n/a	0	n/a	n/a	n/a	n/a	n/a
1504746	REC_WORD	wordpools/wasnorm_wordpool_less_exclusions.txt	LTP197	ltpFR	1	10	1	DUST	508	n/a	n/a	0	n/a	n/a	n/a	n/a	n/a
1505604	REC_WORD	wordpools/wasnorm_wordpool_less_exclusions.txt	LTP197	ltpFR	1	10	1	MAID	856	n/a	n/a	1	n/a	n/a	n/a	n/a	n/a
1507710	REC_WORD	wordpools/wasnorm_wordpool_less_exclusions.txt	LTP197	ltpFR	1	10	1	OCTOPUS	971	n/a	n/a	1	n/a	n/a	n/a	n/a	n/a
1508787	REC_WORD	wordpools/wasnorm_wordpool_less_exclusions.txt	LTP197	ltpFR	1	10	1	TAIL	1430	n/a	n/a	1	n/a	n/a	n/a	n/a	n/a
1509431	REC_WORD	wordpools/wasnorm_wordpool_less_exclusions.txt	LTP197	ltpFR	1	10	1	COYOTE	396	n/a	n/a	1	n/a	n/a	n/a	n/a	n/a
1511865	REC_WORD	wordpools/wasnorm_wordpool_less_exclusions.txt	LTP197	ltpFR	1	10	1	SHELTER	1282	n/a	n/a	0	n/a	n/a	n/a	n/a	n/a
1514175	REC_WORD	wordpools/wasnorm_wordpool_less_exclusions.txt	LTP197	ltpFR	1	10	n/a	HOME	712	n/a	n/a	n/a	n/a	n/a	n/a	n/a	n/a
1516285	REC_WORD	wordpools/wasnorm_wordpool_less_exclusions.txt	LTP197	ltpFR	1	10	1	BEDROOM	111	n/a	n/a	0	n/a	n/a	n/a	n/a	n/a
1518869	REC_WORD	wordpools/wasnorm_wordpool_less_exclusions.txt	LTP197	ltpFR	1	10	1	TOTE	1487	n/a	n/a	0	n/a	n/a	n/a	n/a	n/a
1520201	REC_WORD	wordpools/wasnorm_wordpool_less_exclusions.txt	LTP197	ltpFR	1	10	1	GLOVE	642	n/a	n/a	0	n/a	n/a	n/a	n/a	n/a
1520850	REC_WORD	wordpools/wasnorm_wordpool_less_exclusions.txt	LTP197	ltpFR	1	10	1	ARM	38	n/a	n/a	1	n/a	n/a	n/a	n/a	n/a
1521952	REC_WORD	wordpools/wasnorm_wordpool_less_exclusions.txt	LTP197	ltpFR	1	10	1	BRACELET	163	n/a	n/a	0	n/a	n/a	n/a	n/a	n/a
1528597	REC_WORD	wordpools/wasnorm_wordpool_less_exclusions.txt	LTP197	ltpFR	1	10	1	BAY	102	n/a	n/a	0	n/a	n/a	n/a	n/a	n/a
1583064	WORD	wordpools/wasnorm_wordpool_less_exclusions.txt	LTP197	ltpFR	1	11	0	SNAKE	1333	n/a	n/a	0	0.422607421875	0.5869140625	0	upper	amplitud.ttf
1587163	WORD	wordpools/wasnorm_wordpool_less_exclusions.txt	LTP197	ltpFR	1	11	0	DRILL	497	n/a	n/a	0	0.422607421875	0.5869140625	0	upper	amplitud.ttf
1591144	WORD	wordpools/wasnorm_wordpool_less_exclusions.txt	LTP197	ltpFR	1	11	1	BLUEBERRY	140	n/a	n/a	1	0.57763671875	0.412841796875	1	lower	zerothre.ttf
1595243	WORD	wordpools/wasnorm_wordpool_less_exclusions.txt	LTP197	ltpFR	1	11	1	MONGOOSE	909	n/a	n/a	1	0.57763671875	0.412841796875	1	lower	zerothre.ttf
1599108	WORD	wordpools/wasnorm_wordpool_less_exclusions.txt	LTP197	ltpFR	1	11	1	DIARY	460	n/a	n/a	0	0.57763671875	0.412841796875	1	lower	zerothre.ttf
1603139	WORD	wordpools/wasnorm_wordpool_less_exclusions.txt	LTP197	ltpFR	1	11	1	SHELF	1280	n/a	n/a	0	0.57763671875	0.412841796875	1	lower	zerothre.ttf
1607005	WORD	wordpools/wasnorm_wordpool_less_exclusions.txt	LTP197	ltpFR	1	11	1	BUCKET	184	n/a	n/a	0	0.57763671875	0.412841796875	1	lower	zerothre.ttf
1610886	WORD	wordpools/wasnorm_wordpool_less_exclusions.txt	LTP197	ltpFR	1	11	1	SWIMMER	1420	n/a	n/a	1	0.57763671875	0.412841796875	1	lower	zerothre.ttf
1615068	WORD	wordpools/wasnorm_wordpool_less_exclusions.txt	LTP197	ltpFR	1	11	0	BLENDER	136	n/a	n/a	1	0.422607421875	0.5869140625	0	upper	amplitud.ttf
1619200	WORD	wordpools/wasnorm_wordpool_less_exclusions.txt	LTP197	ltpFR	1	11	0	SAW	1239	n/a	n/a	0	0.422607421875	0.5869140625	0	upper	amplitud.ttf
1623182	WORD	wordpools/wasnorm_wordpool_less_exclusions.txt	LTP197	ltpFR	1	11	0	SCREW	1254	n/a	n/a	0	0.422607421875	0.5869140625	0	upper	amplitud.ttf
1627147	WORD	wordpools/wasnorm_wordpool_less_exclusions.txt	LTP197	ltpFR	1	11	0	COLLAR	345	n/a	n/a	0	0.422607421875	0.5869140625	0	upper	amplitud.ttf
1631195	WORD	wordpools/wasnorm_wordpool_less_exclusions.txt	LTP197	ltpFR	1	11	1	SQUIRREL	1362	n/a	n/a	1	0.57763671875	0.412841796875	1	lower	zerothre.ttf
1635146	WORD	wordpools/wasnorm_wordpool_less_exclusions.txt	LTP197	ltpFR	1	11	1	MINK	897	n/a	n/a	1	0.57763671875	0.412841796875	1	lower	zerothre.ttf
1639192	WORD	wordpools/wasnorm_wordpool_less_exclusions.txt	LTP197	ltpFR	1	11	0	MOOSE	915	n/a	n/a	1	0.422607421875	0.5869140625	0	upper	amplitud.ttf
1643040	WORD	wordpools/wasnorm_wordpool_less_exclusions.txt	LTP197	ltpFR	1	11	0	PLATE	1086	n/a	n/a	0	0.422607421875	0.5869140625	0	upper	amplitud.ttf
1649046	REC_START	n/a	LTP197	ltpFR	1	11	n/a	n/a	n/a	n/a	n/a	n/a	n/a	n/a	n/a	n/a	n/a
1650288	REC_WORD	wordpools/wasnorm_wordpool_less_exclusions.txt	LTP197	ltpFR	1	11	0	PLATE	1086	n/a	n/a	0	n/a	n/a	n/a	n/a	n/a
1651535	REC_WORD	wordpools/wasnorm_wordpool_less_exclusions.txt	LTP197	ltpFR	1	11	1	BUCKET	184	n/a	n/a	0	n/a	n/a	n/a	n/a	n/a
1652368	REC_WORD	wordpools/wasnorm_wordpool_less_exclusions.txt	LTP197	ltpFR	1	11	0	COLLAR	345	n/a	n/a	0	n/a	n/a	n/a	n/a	n/a
1653411	REC_WORD	wordpools/wasnorm_wordpool_less_exclusions.txt	LTP197	ltpFR	1	11	1	SHELF	1280	n/a	n/a	0	n/a	n/a	n/a	n/a	n/a
1655061	REC_WORD	wordpools/wasnorm_wordpool_less_exclusions.txt	LTP197	ltpFR	1	11	0	SNAKE	1333	n/a	n/a	0	n/a	n/a	n/a	n/a	n/a
1656718	REC_WORD	wordpools/wasnorm_wordpool_less_exclusions.txt	LTP197	ltpFR	1	11	1	MONGOOSE	909	n/a	n/a	1	n/a	n/a	n/a	n/a	n/a
1657856	REC_WORD	wordpools/wasnorm_wordpool_less_exclusions.txt	LTP197	ltpFR	1	11	1	MINK	897	n/a	n/a	1	n/a	n/a	n/a	n/a	n/a
1660624	REC_WORD	wordpools/wasnorm_wordpool_less_exclusions.txt	LTP197	ltpFR	1	11	0	DRILL	497	n/a	n/a	0	n/a	n/a	n/a	n/a	n/a
1668831	REC_WORD	wordpools/wasnorm_wordpool_less_exclusions.txt	LTP197	ltpFR	1	11	n/a	NAIL	936	n/a	n/a	n/a	n/a	n/a	n/a	n/a	n/a
1672981	REC_WORD	wordpools/wasnorm_wordpool_less_exclusions.txt	LTP197	ltpFR	1	11	0	SAW	1239	n/a	n/a	0	n/a	n/a	n/a	n/a	n/a
1679826	REC_WORD	wordpools/wasnorm_wordpool_less_exclusions.txt	LTP197	ltpFR	1	11	0	BLENDER	136	n/a	n/a	1	n/a	n/a	n/a	n/a	n/a
1689389	REC_WORD	wordpools/wasnorm_wordpool_less_exclusions.txt	LTP197	ltpFR	1	11	0	MOOSE	915	n/a	n/a	1	n/a	n/a	n/a	n/a	n/a
1730589	WORD	wordpools/wasnorm_wordpool_less_exclusions.txt	LTP197	ltpFR	1	12	0	BEVERAGE	123	n/a	n/a	0	0.422607421875	0.5869140625	0	upper	amplitud.ttf
1734451	WORD	wordpools/wasnorm_wordpool_less_exclusions.txt	LTP197	ltpFR	1	12	0	BISCUIT	130	n/a	n/a	0	0.422607421875	0.5869140625	0	upper	amplitud.ttf
1738617	WORD	wordpools/wasnorm_wordpool_less_exclusions.txt	LTP197	ltpFR	1	12	0	STRAW	1390	n/a	n/a	0	0.422607421875	0.5869140625	0	upper	amplitud.ttf
1742600	WORD	wordpools/wasnorm_wordpool_less_exclusions.txt	LTP197	ltpFR	1	12	0	COCKTAIL	338	n/a	n/a	0	0.422607421875	0.5869140625	0	upper	amplitud.ttf
1746614	WORD	wordpools/wasnorm_wordpool_less_exclusions.txt	LTP197	ltpFR	1	12	0	BRANDY	169	n/a	n/a	0	0.422607421875	0.5869140625	0	upper	amplitud.ttf
1750747	WORD	wordpools/wasnorm_wordpool_less_exclusions.txt	LTP197	ltpFR	1	12	0	PICNIC	1060	n/a	n/a	1	0.422607421875	0.5869140625	0	upper	amplitud.ttf
1754962	WORD	wordpools/wasnorm_wordpool_less_exclusions.txt	LTP197	ltpFR	1	12	0	RAIL	1161	n/a	n/a	1	0.422607421875	0.5869140625	0	upper	amplitud.ttf
1759060	WORD	wordpools/wasnorm_wordpool_less_exclusions.txt	LTP197	ltpFR	1	12	0	VILLAGE	1566	n/a	n/a	1	0.422607421875	0.5869140625	0	upper	amplitud.ttf
1762975	WORD	wordpools/wasnorm_wordpool_less_exclusions.txt	LTP197	ltpFR	1	12	0	COLESLAW	344	n/a	n/a	0	0.422607421875	0.5869140625	0	upper	amplitud.ttf
1767091	WORD	wordpools/wasnorm_wordpool_less_exclusions.txt	LTP197	ltpFR	1	12	0	RESTAURANT	1187	n/a	n/a	1	0.422607421875	0.5869140625	0	upper	amplitud.ttf
1771089	WORD	wordpools/wasnorm_wordpool_less_exclusions.txt	LTP197	ltpFR	1	12	0	WIRE	1616	n/a	n/a	0	0.422607421875	0.5869140625	0	upper	amplitud.ttf
1775154	WORD	wordpools/wasnorm_wordpool_less_exclusions.txt	LTP197	ltpFR	1	12	0	BEARD	107	n/a	n/a	0	0.422607421875	0.5869140625	0	upper	amplitud.ttf
1779170	WORD	wordpools/wasnorm_wordpool_less_exclusions.txt	LTP197	ltpFR	1	12	0	SIDEWALK	1303	n/a	n/a	1	0.422607421875	0.5869140625	0	upper	amplitud.ttf
1783385	WORD	wordpools/wasnorm_wordpool_less_exclusions.txt	LTP197	ltpFR	1	12	0	FOOTBALL	591	n/a	n/a	0	0.422607421875	0.5869140625	0	upper	amplitud.ttf
1787484	WORD	wordpools/wasnorm_wordpool_less_exclusions.txt	LTP197	ltpFR	1	12	0	EARTH	515	n/a	n/a	1	0.422607421875	0.5869140625	0	upper	amplitud.ttf
1791701	WORD	wordpools/wasnorm_wordpool_less_exclusions.txt	LTP197	ltpFR	1	12	0	GROUND	666	n/a	n/a	1	0.422607421875	0.5869140625	0	upper	amplitud.ttf
1797675	REC_START	n/a	LTP197	ltpFR	1	12	n/a	n/a	n/a	n/a	n/a	n/a	n/a	n/a	n/a	n/a	n/a
1798533	REC_WORD	wordpools/wasnorm_wordpool_less_exclusions.txt	LTP197	ltpFR	1	12	0	GROUND	666	n/a	n/a	1	n/a	n/a	n/a	n/a	n/a
1799376	REC_WORD	wordpools/wasnorm_wordpool_less_exclusions.txt	LTP197	ltpFR	1	12	0	SIDEWALK	1303	n/a	n/a	1	n/a	n/a	n/a	n/a	n/a
1800376	REC_WORD_VV	wordpools/wasnorm_wordpool_less_exclusions.txt	LTP197	ltpFR	1	12	n/a	<>	-1	n/a	n/a	n/a	n/a	n/a	n/a	n/a	n/a
1801556	REC_WORD	wordpools/wasnorm_wordpool_less_exclusions.txt	LTP197	ltpFR	1	12	0	VILLAGE	1566	n/a	n/a	1	n/a	n/a	n/a	n/a	n/a
1802668	REC_WORD	wordpools/wasnorm_wordpool_less_exclusions.txt	LTP197	ltpFR	1	12	0	RAIL	1161	n/a	n/a	1	n/a	n/a	n/a	n/a	n/a
1803551	REC_WORD	wordpools/wasnorm_wordpool_less_exclusions.txt	LTP197	ltpFR	1	12	0	WIRE	1616	n/a	n/a	0	n/a	n/a	n/a	n/a	n/a
1806200	REC_WORD	wordpools/wasnorm_wordpool_less_exclusions.txt	LTP197	ltpFR	1	12	0	PICNIC	1060	n/a	n/a	1	n/a	n/a	n/a	n/a	n/a
1808740	REC_WORD	wordpools/wasnorm_wordpool_less_exclusions.txt	LTP197	ltpFR	1	12	0	BISCUIT	130	n/a	n/a	0	n/a	n/a	n/a	n/a	n/a
1814277	REC_WORD	wordpools/wasnorm_wordpool_less_exclusions.txt	LTP197	ltpFR	1	12	0	COCKTAIL	338	n/a	n/a	0	n/a	n/a	n/a	n/a	n/a
1815150	REC_WORD	wordpools/wasnorm_wordpool_less_exclusions.txt	LTP197	ltpFR	1	12	0	BRANDY	169	n/a	n/a	0	n/a	n/a	n/a	n/a	n/a
1816702	REC_WORD	wordpools/wasnorm_wordpool_less_exclusions.txt	LTP197	ltpFR	1	12	0	STRAW	1390	n/a	n/a	0	n/a	n/a	n/a	n/a	n/a
1818203	REC_WORD	wordpools/wasnorm_wordpool_less_exclusions.txt	LTP197	ltpFR	1	12	0	BEVERAGE	123	n/a	n/a	0	n/a	n/a	n/a	n/a	n/a
1824459	REC_WORD	wordpools/wasnorm_wordpool_less_exclusions.txt	LTP197	ltpFR	1	12	0	COLESLAW	344	n/a	n/a	0	n/a	n/a	n/a	n/a	n/a
1825581	REC_WORD	wordpools/wasnorm_wordpool_less_exclusions.txt	LTP197	ltpFR	1	12	0	BEARD	107	n/a	n/a	0	n/a	n/a	n/a	n/a	n/a
1833154	REC_WORD	wordpools/wasnorm_wordpool_less_exclusions.txt	LTP197	ltpFR	1	12	0	EARTH	515	n/a	n/a	1	n/a	n/a	n/a	n/a	n/a
1834087	REC_WORD	wordpools/wasnorm_wordpool_less_exclusions.txt	LTP197	ltpFR	1	12	0	GROUND	666	n/a	n/a	1	n/a	n/a	n/a	n/a	n/a
1873292	REST_REWET	n/a	LTP197	ltpFR	1	12	n/a	n/a	n/a	n/a	n/a	n/a	n/a	n/a	n/a	n/a	n/a
2204576	WORD	wordpools/wasnorm_wordpool_less_exclusions.txt	LTP197	ltpFR	1	13	-1	RING	1193	n/a	n/a	-1	1.0	1.0	1	upper	Verdana.ttf
2208739	WORD	wordpools/wasnorm_wordpool_less_exclusions.txt	LTP197	ltpFR	1	13	-1	FRIAR	605	n/a	n/a	-1	1.0	1.0	1	upper	Verdana.ttf
2212805	WORD	wordpools/wasnorm_wordpool_less_exclusions.txt	LTP197	ltpFR	1	13	-1	PHILOSOPHER	1054	n/a	n/a	-1	1.0	1.0	1	upper	Verdana.ttf
2216754	WORD	wordpools/wasnorm_wordpool_less_exclusions.txt	LTP197	ltpFR	1	13	-1	DETECTIVE	454	n/a	n/a	-1	1.0	1.0	1	upper	Verdana.ttf
2220685	WORD	wordpools/wasnorm_wordpool_less_exclusions.txt	LTP197	ltpFR	1	13	-1	RACK	1154	n/a	n/a	-1	1.0	1.0	1	upper	Verdana.ttf
2224535	WORD	wordpools/wasnorm_wordpool_less_exclusions.txt	LTP197	ltpFR	1	13	-1	GOLD	647	n/a	n/a	-1	1.0	1.0	1	upper	Verdana.ttf
2228414	WORD	wordpools/wasnorm_wordpool_less_exclusions.txt	LTP197	ltpFR	1	13	-1	VEAL	1551	n/a	n/a	-1	1.0	1.0	1	upper	Verdana.ttf
2232260	WORD	wordpools/wasnorm_wordpool_less_exclusions.txt	LTP197	ltpFR	1	13	-1	SILVERWARE	1308	n/a	n/a	-1	1.0	1.0	1	upper	Verdana.ttf
2236342	WORD	wordpools/wasnorm_wordpool_less_exclusions.txt	LTP197	ltpFR	1	13	-1	TWEEZERS	1526	n/a	n/a	-1	1.0	1.0	1	upper	Verdana.ttf
2240508	WORD	wordpools/wasnorm_wordpool_less_exclusions.txt	LTP197	ltpFR	1	13	-1	LEVER	815	n/a	n/a	-1	1.0	1.0	1	upper	Verdana.ttf
2244373	WORD	wordpools/wasnorm_wordpool_less_exclusions.txt	LTP197	ltpFR	1	13	-1	ROOST	1208	n/a	n/a	-1	1.0	1.0	1	upper	Verdana.ttf
2248237	WORD	wordpools/wasnorm_wordpool_less_exclusions.txt	LTP197	ltpFR	1	13	-1	CLOTHES	327	n/a	n/a	-1	1.0	1.0	1	upper	Verdana.ttf
2252202	WORD	wordpools/wasnorm_wordpool_less_exclusions.txt	LTP197	ltpFR	1	13	-1	PATROL	1027	n/a	n/a	-1	1.0	1.0	1	upper	Verdana.ttf
2256022	WORD	wordpools/wasnorm_wordpool_less_exclusions.txt	LTP197	ltpFR	1	13	-1	TILE	1468	n/a	n/a	-1	1.0	1.0	1	upper	Verdana.ttf
2259865	WORD	wordpools/wasnorm_wordpool_less_exclusions.txt	LTP197	ltpFR	1	13	-1	ATOM	55	n/a	n/a	-1	1.0	1.0	1	upper	Verdana.ttf
2263764	WORD	wordpools/wasnorm_wordpool_less_exclusions.txt	LTP197	ltpFR	1	13	-1	ELECTRON	522	n/a	n/a	-1	1.0	1.0	1	upper	Verdana.ttf
2269535	REC_START	n/a	LTP197	ltpFR	1	13	n/a	n/a	n/a	n/a	n/a	n/a	n/a	n/a	n/a	n/a	n/a
2270667	REC_WORD	wordpools/wasnorm_wordpool_less_exclusions.txt	LTP197	ltpFR	1	13	-1	ATOM	55	n/a	n/a	-1	n/a	n/a	n/a	n/a	n/a
2271376	REC_WORD	wordpools/wasnorm_wordpool_less_exclusions.txt	LTP197	ltpFR	1	13	-1	ELECTRON	522	n/a	n/a	-1	n/a	n/a	n/a	n/a	n/a
2272488	REC_WORD	wordpools/wasnorm_wordpool_less_exclusions.txt	LTP197	ltpFR	1	13	-1	TILE	1468	n/a	n/a	-1	n/a	n/a	n/a	n/a	n/a
2273785	REC_WORD	wordpools/wasnorm_wordpool_less_exclusions.txt	LTP197	ltpFR	1	13	-1	RACK	1154	n/a	n/a	-1	n/a	n/a	n/a	n/a	n/a
2274813	REC_WORD	wordpools/wasnorm_wordpool_less_exclusions.txt	LTP197	ltpFR	1	13	-1	GOLD	647	n/a	n/a	-1	n/a	n/a	n/a	n/a	n/a
2276379	REC_WORD	wordpools/wasnorm_wordpool_less_exclusions.txt	LTP197	ltpFR	1	13	-1	LEVER	815	n/a	n/a	-1	n/a	n/a	n/a	n/a	n/a
2277502	REC_WORD	wordpools/wasnorm_wordpool_less_exclusions.txt	LTP197	ltpFR	1	13	-1	ROOST	1208	n/a	n/a	-1	n/a	n/a	n/a	n/a	n/a
2279662	REC_WORD	wordpools/wasnorm_wordpool_less_exclusions.txt	LTP197	ltpFR	1	13	-1	VEAL	1551	n/a	n/a	-1	n/a	n/a	n/a	n/a	n/a
2282515	REC_WORD	wordpools/wasnorm_wordpool_less_exclusions.txt	LTP197	ltpFR	1	13	-1	SILVERWARE	1308	n/a	n/a	-1	n/a	n/a	n/a	n/a	n/a
2284216	REC_WORD	wordpools/wasnorm_wordpool_less_exclusions.txt	LTP197	ltpFR	1	13	-1	TWEEZERS	1526	n/a	n/a	-1	n/a	n/a	n/a	n/a	n/a
2286945	REC_WORD	wordpools/wasnorm_wordpool_less_exclusions.txt	LTP197	ltpFR	1	13	-1	FRIAR	605	n/a	n/a	-1	n/a	n/a	n/a	n/a	n/a
2287748	REC_WORD	wordpools/wasnorm_wordpool_less_exclusions.txt	LTP197	ltpFR	1	13	-1	RING	1193	n/a	n/a	-1	n/a	n/a	n/a	n/a	n/a
2289903	REC_WORD	wordpools/wasnorm_wordpool_less_exclusions.txt	LTP197	ltpFR	1	13	-1	PHILOSOPHER	1054	n/a	n/a	-1	n/a	n/a	n/a	n/a	n/a
2290903	REC_WORD_VV	wordpools/wasnorm_wordpool_less_exclusions.txt	LTP197	ltpFR	1	13	n/a	<>	-1	n/a	n/a	n/a	n/a	n/a	n/a	n/a	n/a
2292722	REC_WORD	wordpools/wasnorm_wordpool_less_exclusions.txt	LTP197	ltpFR	1	13	-1	DETECTIVE	454	n/a	n/a	-1	n/a	n/a	n/a	n/a	n/a
2352298	WORD	wordpools/wasnorm_wordpool_less_exclusions.txt	LTP197	ltpFR	1	14	-1	TOY	1492	n/a	n/a	-1	1.0	1.0	1	upper	Verdana.ttf
2356412	WORD	wordpools/wasnorm_wordpool_less_exclusions.txt	LTP197	ltpFR	1	14	-1	RACKET	1155	n/a	n/a	-1	1.0	1.0	1	upper	Verdana.ttf
2360313	WORD	wordpools/wasnorm_wordpool_less_exclusions.txt	LTP197	ltpFR	1	14	-1	DEPUTY	450	n/a	n/a	-1	1.0	1.0	1	upper	Verdana.ttf
2364442	WORD	wordpools/wasnorm_wordpool_less_exclusions.txt	LTP197	ltpFR	1	14	-1	ANIMAL	23	n/a	n/a	-1	1.0	1.0	1	upper	Verdana.ttf
2368340	WORD	wordpools/wasnorm_wordpool_less_exclusions.txt	LTP197	ltpFR	1	14	-1	CHECK	284	n/a	n/a	-1	1.0	1.0	1	upper	Verdana.ttf
2372473	WORD	wordpools/wasnorm_wordpool_less_exclusions.txt	LTP197	ltpFR	1	14	-1	CONTRACT	368	n/a	n/a	-1	1.0	1.0	1	upper	Verdana.ttf
2376487	WORD	wordpools/wasnorm_wordpool_less_exclusions.txt	LTP197	ltpFR	1	14	-1	OFFICER	973	n/a	n/a	-1	1.0	1.0	1	upper	Verdana.ttf
2380519	WORD	wordpools/wasnorm_wordpool_less_exclusions.txt	LTP197	ltpFR	1	14	-1	BROCCOLI	176	n/a	n/a	-1	1.0	1.0	1	upper	Verdana.ttf
2384551	WORD	wordpools/wasnorm_wordpool_less_exclusions.txt	LTP197	ltpFR	1	14	-1	CHEESE	289	n/a	n/a	-1	1.0	1.0	1	upper	Verdana.ttf
2388633	WORD	wordpools/wasnorm_wordpool_less_exclusions.txt	LTP197	ltpFR	1	14	-1	MOUTH	926	n/a	n/a	-1	1.0	1.0	1	upper	Verdana.ttf
2392833	WORD	wordpools/wasnorm_wordpool_less_exclusions.txt	LTP197	ltpFR	1	14	-1	JAW	751	n/a	n/a	-1	1.0	1.0	1	upper	Verdana.ttf
2396952	WORD	wordpools/wasnorm_wordpool_less_exclusions.txt	LTP197	ltpFR	1	14	-1	FOX	598	n/a	n/a	-1	1.0	1.0	1	upper	Verdana.ttf
2400997	WORD	wordpools/wasnorm_wordpool_less_exclusions.txt	LTP197	ltpFR	1	14	-1	SOCKET	1340	n/a	n/a	-1	1.0	1.0	1	upper	Verdana.ttf
2404978	WORD	wordpools/wasnorm_wordpool_less_exclusions.txt	LTP197	ltpFR	1	14	-1	PAPER	1011	n/a	n/a	-1	1.0	1.0	1	upper	Verdana.ttf
2409043	WORD	wordpools/wasnorm_wordpool_less_exclusions.txt	LTP197	ltpFR	1	14	-1	WAREHOUSE	1588	n/a	n/a	-1	1.0	1.0	1	upper	Verdana.ttf
2413125	WORD	wordpools/wasnorm_wordpool_less_exclusions.txt	LTP197	ltpFR	1	14	-1	CUP	424	n/a	n/a	-1	1.0	1.0	1	upper	Verdana.ttf
2418815	REC_START	n/a	LTP197	ltpFR	1	14	n/a	n/a	n/a	n/a	n/a	n/a	n/a	n/a	n/a	n/a	n/a
2419638	REC_WORD	wordpools/wasnorm_wordpool_less_exclusions.txt	LTP197	ltpFR	1	14	-1	WAREHOUSE	1588	n/a	n/a	-1	n/a	n/a	n/a	n/a	n/a
2420638	REC_WORD_VV	wordpools/wasnorm_wordpool_less_exclusions.txt	LTP197	ltpFR	1	14	n/a	<>	-1	n/a	n/a	n/a	n/a	n/a	n/a	n/a	n/a
2421439	REC_WORD	wordpools/wasnorm_wordpool_less_exclusions.txt	LTP197	ltpFR	1	14	-1	CUP	424	n/a	n/a	-1	n/a	n/a	n/a	n/a	n/a
2422157	REC_WORD	wordpools/wasnorm_wordpool_less_exclusions.txt	LTP197	ltpFR	1	14	-1	SOCKET	1340	n/a	n/a	-1	n/a	n/a	n/a	n/a	n/a
2423769	REC_WORD	wordpools/wasnorm_wordpool_less_exclusions.txt	LTP197	ltpFR	1	14	-1	JAW	751	n/a	n/a	-1	n/a	n/a	n/a	n/a	n/a
2424420	REC_WORD	wordpools/wasnorm_wordpool_less_exclusions.txt	LTP197	ltpFR	1	14	-1	MOUTH	926	n/a	n/a	-1	n/a	n/a	n/a	n/a	n/a
2425370	REC_WORD	wordpools/wasnorm_wordpool_less_exclusions.txt	LTP197	ltpFR	1	14	-1	BROCCOLI	176	n/a	n/a	-1	n/a	n/a	n/a	n/a	n/a
2426068	REC_WORD	wordpools/wasnorm_wordpool_less_exclusions.txt	LTP197	ltpFR	1	14	-1	CHEESE	289	n/a	n/a	-1	n/a	n/a	n/a	n/a	n/a
2427615	REC_WORD	wordpools/wasnorm_wordpool_less_exclusions.txt	LTP197	ltpFR	1	14	-1	FOX	598	n/a	n/a	-1	n/a	n/a	n/a	n/a	n/a
2429171	REC_WORD	wordpools/wasnorm_wordpool_less_exclusions.txt	LTP197	ltpFR	1	14	-1	PAPER	1011	n/a	n/a	-1	n/a	n/a	n/a	n/a	n/a
2430852	REC_WORD	wordpools/wasnorm_wordpool_less_exclusions.txt	LTP197	ltpFR	1	14	-1	DEPUTY	450	n/a	n/a	-1	n/a	n/a	n/a	n/a	n/a
2431626	REC_WORD	wordpools/wasnorm_wordpool_less_exclusions.txt	LTP197	ltpFR	1	14	-1	OFFICER	973	n/a	n/a	-1	n/a	n/a	n/a	n/a	n/a
2432718	REC_WORD	wordpools/wasnorm_wordpool_less_exclusions.txt	LTP197	ltpFR	1	14	-1	CHECK	284	n/a	n/a	-1	n/a	n/a	n/a	n/a	n/a
2435123	REC_WORD	wordpools/wasnorm_wordpool_less_exclusions.txt	LTP197	ltpFR	1	14	-1	CONTRACT	368	n/a	n/a	-1	n/a	n/a	n/a	n/a	n/a
2437318	REC_WORD	wordpools/wasnorm_wordpool_less_exclusions.txt	LTP197	ltpFR	1	14	-1	RACKET	1155	n/a	n/a	-1	n/a	n/a	n/a	n/a	n/a
2438301	REC_WORD	wordpools/wasnorm_wordpool_less_exclusions.txt	LTP197	ltpFR	1	14	-1	TOY	1492	n/a	n/a	-1	n/a	n/a	n/a	n/a	n/a
2439518	REC_WORD	wordpools/wasnorm_wordpool_less_exclusions.txt	LTP197	ltpFR	1	14	-1	ANIMAL	23	n/a	n/a	-1	n/a	n/a	n/a	n/a	n/a
2502781	WORD	wordpools/wasnorm_wordpool_less_exclusions.txt	LTP197	ltpFR	1	15	1	COUGAR	387	n/a	n/a	1	0.57763671875	0.412841796875	1	lower	zerothre.ttf
2506830	WORD	wordpools/wasnorm_wordpool_less_exclusions.txt	LTP197	ltpFR	1	15	1	WHISKERS	1605	n/a	n/a	0	0.57763671875	0.412841796875	1	lower	zerothre.ttf
2510778	WORD	wordpools/wasnorm_wordpool_less_exclusions.txt	LTP197	ltpFR	1	15	1	ASTRONAUT	51	n/a	n/a	1	0.57763671875	0.412841796875	1	lower	zerothre.ttf
2514877	WORD	wordpools/wasnorm_wordpool_less_exclusions.txt	LTP197	ltpFR	1	15	1	ROCKET	1202	n/a	n/a	0	0.57763671875	0.412841796875	1	lower	zerothre.ttf
2518991	WORD	wordpools/wasnorm_wordpool_less_exclusions.txt	LTP197	ltpFR	1	15	1	PAINT	1003	n/a	n/a	0	0.57763671875	0.412841796875	1	lower	zerothre.ttf
2522843	WORD	wordpools/wasnorm_wordpool_less_exclusions.txt	LTP197	ltpFR	1	15	1	BRUNETTE	181	n/a	n/a	0	0.57763671875	0.412841796875	1	lower	zerothre.ttf
2526954	WORD	wordpools/wasnorm_wordpool_less_exclusions.txt	LTP197	ltpFR	1	15	1	BALL	73	n/a	n/a	0	0.57763671875	0.412841796875	1	lower	zerothre.ttf
2530920	WORD	wordpools/wasnorm_wordpool_less_exclusions.txt	LTP197	ltpFR	1	15	1	SAP	1233	n/a	n/a	0	0.57763671875	0.412841796875	1	lower	zerothre.ttf
2534920	WORD	wordpools/wasnorm_wordpool_less_exclusions.txt	LTP197	ltpFR	1	15	1	ATMOSPHERE	54	n/a	n/a	0	0.57763671875	0.412841796875	1	lower	zerothre.ttf
2539033	WORD	wordpools/wasnorm_wordpool_less_exclusions.txt	LTP197	ltpFR	1	15	1	SOFTBALL	1343	n/a	n/a	0	0.57763671875	0.412841796875	1	lower	zerothre.ttf
2542916	WORD	wordpools/wasnorm_wordpool_less_exclusions.txt	LTP197	ltpFR	1	15	1	SENATE	1267	n/a	n/a	0	0.57763671875	0.412841796875	1	lower	zerothre.ttf
2547047	WORD	wordpools/wasnorm_wordpool_less_exclusions.txt	LTP197	ltpFR	1	15	1	LAWYER	806	n/a	n/a	1	0.57763671875	0.412841796875	1	lower	zerothre.ttf
2551162	WORD	wordpools/wasnorm_wordpool_less_exclusions.txt	LTP197	ltpFR	1	15	1	CLOUD	328	n/a	n/a	0	0.57763671875	0.412841796875	1	lower	zerothre.ttf
2555345	WORD	wordpools/wasnorm_wordpool_less_exclusions.txt	LTP197	ltpFR	1	15	1	BULLY	196	n/a	n/a	1	0.57763671875	0.412841796875	1	lower	zerothre.ttf
2559393	WORD	wordpools/wasnorm_wordpool_less_exclusions.txt	LTP197	ltpFR	1	15	1	CAPITAL	238	n/a	n/a	0	0.57763671875	0.412841796875	1	lower	zerothre.ttf
2563410	WORD	wordpools/wasnorm_wordpool_less_exclusions.txt	LTP197	ltpFR	1	15	1	JURY	766	n/a	n/a	1	0.57763671875	0.412841796875	1	lower	zerothre.ttf
2569315	REC_START	n/a	LTP197	ltpFR	1	15	n/a	n/a	n/a	n/a	n/a	n/a	n/a	n/a	n/a	n/a	n/a
2569888	REC_WORD	wordpools/wasnorm_wordpool_less_exclusions.txt	LTP197	ltpFR	1	15	n/a	SENATOR	1268	n/a	n/a	n/a	n/a	n/a	n/a	n/a	n/a
2570901	REC_WORD	wordpools/wasnorm_wordpool_less_exclusions.txt	LTP197	ltpFR	1	15	1	CAPITAL	238	n/a	n/a	0	n/a	n/a	n/a	n/a	n/a
2571849	REC_WORD	wordpools/wasnorm_wordpool_less_exclusions.txt	LTP197	ltpFR	1	15	1	JURY	766	n/a	n/a	1	n/a	n/a	n/a	n/a	n/a
2573560	REC_WORD	wordpools/wasnorm_wordpool_less_exclusions.txt	LTP197	ltpFR	1	15	1	LAWYER	806	n/a	n/a	1	n/a	n/a	n/a	n/a	n/a
2574987	REC_WORD	wordpools/wasnorm_wordpool_less_exclusions.txt	LTP197	ltpFR	1	15	1	BULLY	196	n/a	n/a	1	n/a	n/a	n/a	n/a	n/a
2577297	REC_WORD	wordpools/wasnorm_wordpool_less_exclusions.txt	LTP197	ltpFR	1	15	-1	RACKET	1155	n/a	n/a	-1	n/a	n/a	n/a	n/a	n/a
2578858	REC_WORD	wordpools/wasnorm_wordpool_less_exclusions.txt	LTP197	ltpFR	1	15	1	ATMOSPHERE	54	n/a	n/a	0	n/a	n/a	n/a	n/a	n/a
2580001	REC_WORD	wordpools/wasnorm_wordpool_less_exclusions.txt	LTP197	ltpFR	1	15	1	CLOUD	328	n/a	n/a	0	n/a	n/a	n/a	n/a	n/a
2583183	REC_WORD	wordpools/wasnorm_wordpool_less_exclusions.txt	LTP197	ltpFR	1	15	1	ASTRONAUT	51	n/a	n/a	1	n/a	n/a	n/a	n/a	n/a
2584271	REC_WORD	wordpools/wasnorm_wordpool_less_exclusions.txt	LTP197	ltpFR	1	15	1	PAINT	1003	n/a	n/a	0	n/a	n/a	n/a	n/a	n/a
2585388	REC_WORD	wordpools/wasnorm_wordpool_less_exclusions.txt	LTP197	ltpFR	1	15	1	BRUNETTE	181	n/a	n/a	0	n/a	n/a	n/a	n/a	n/a
2587199	REC_WORD	wordpools/wasnorm_wordpool_less_exclusions.txt	LTP197	ltpFR	1	15	1	COUGAR	387	n/a	n/a	1	n/a	n/a	n/a	n/a	n/a
2588287	REC_WORD	wordpools/wasnorm_wordpool_less_exclusions.txt	LTP197	ltpFR	1	15	1	WHISKERS	1605	n/a	n/a	0	n/a	n/a	n/a	n/a	n/a
2649885	WORD	wordpools/wasnorm_wordpool_less_exclusions.txt	LTP197	ltpFR	1	16	1	VETERAN	1561	n/a	n/a	1	0.57763671875	0.412841796875	1	lower	zerothre.ttf
2653735	WORD	wordpools/wasnorm_wordpool_less_exclusions.txt	LTP197	ltpFR	1	16	1	ROOM	1206	n/a	n/a	0	0.57763671875	0.412841796875	1	lower	zerothre.ttf
2657597	WORD	wordpools/wasnorm_wordpool_less_exclusions.txt	LTP197	ltpFR	1	16	0	KITE	779	n/a	n/a	0	0.422607421875	0.5869140625	0	upper	amplitud.ttf
2661495	WORD	wordpools/wasnorm_wordpool_less_exclusions.txt	LTP197	ltpFR	1	16	0	FOLDER	588	n/a	n/a	0	0.422607421875	0.5869140625	0	upper	amplitud.ttf
2665527	WORD	wordpools/wasnorm_wordpool_less_exclusions.txt	LTP197	ltpFR	1	16	0	LIST	830	n/a	n/a	0	0.422607421875	0.5869140625	0	upper	amplitud.ttf
2669458	WORD	wordpools/wasnorm_wordpool_less_exclusions.txt	LTP197	ltpFR	1	16	0	MOTH	920	n/a	n/a	0	0.422607421875	0.5869140625	0	upper	amplitud.ttf
2673306	WORD	wordpools/wasnorm_wordpool_less_exclusions.txt	LTP197	ltpFR	1	16	0	BUILDING	191	n/a	n/a	1	0.422607421875	0.5869140625	0	upper	amplitud.ttf
2677137	WORD	wordpools/wasnorm_wordpool_less_exclusions.txt	LTP197	ltpFR	1	16	0	GAZELLE	628	n/a	n/a	1	0.422607421875	0.5869140625	0	upper	amplitud.ttf
2681202	WORD	wordpools/wasnorm_wordpool_less_exclusions.txt	LTP197	ltpFR	1	16	1	FLIPPER	580	n/a	n/a	0	0.57763671875	0.412841796875	1	lower	zerothre.ttf
2685188	WORD	wordpools/wasnorm_wordpool_less_exclusions.txt	LTP197	ltpFR	1	16	1	BROTHER	179	n/a	n/a	1	0.57763671875	0.412841796875	1	lower	zerothre.ttf
2689333	WORD	wordpools/wasnorm_wordpool_less_exclusions.txt	LTP197	ltpFR	1	16	1	RAFT	1159	n/a	n/a	0	0.57763671875	0.412841796875	1	lower	zerothre.ttf
2693164	WORD	wordpools/wasnorm_wordpool_less_exclusions.txt	LTP197	ltpFR	1	16	1	PORT	1110	n/a	n/a	0	0.57763671875	0.412841796875	1	lower	zerothre.ttf
2697280	WORD	wordpools/wasnorm_wordpool_less_exclusions.txt	LTP197	ltpFR	1	16	1	TWIN	1528	n/a	n/a	1	0.57763671875	0.412841796875	1	lower	zerothre.ttf
2701385	WORD	wordpools/wasnorm_wordpool_less_exclusions.txt	LTP197	ltpFR	1	16	1	LEOPARD	812	n/a	n/a	1	0.57763671875	0.412841796875	1	lower	zerothre.ttf
2705460	WORD	wordpools/wasnorm_wordpool_less_exclusions.txt	LTP197	ltpFR	1	16	0	RAG	1160	n/a	n/a	0	0.422607421875	0.5869140625	0	upper	amplitud.ttf
2709543	WORD	wordpools/wasnorm_wordpool_less_exclusions.txt	LTP197	ltpFR	1	16	0	VACUUM	1543	n/a	n/a	1	0.422607421875	0.5869140625	0	upper	amplitud.ttf
2715332	REC_START	n/a	LTP197	ltpFR	1	16	n/a	n/a	n/a	n/a	n/a	n/a	n/a	n/a	n/a	n/a	n/a
2716334	REC_WORD	wordpools/wasnorm_wordpool_less_exclusions.txt	LTP197	ltpFR	1	16	0	VACUUM	1543	n/a	n/a	1	n/a	n/a	n/a	n/a	n/a
2717377	REC_WORD	wordpools/wasnorm_wordpool_less_exclusions.txt	LTP197	ltpFR	1	16	1	ROOM	1206	n/a	n/a	0	n/a	n/a	n/a	n/a	n/a
2718215	REC_WORD	wordpools/wasnorm_wordpool_less_exclusions.txt	LTP197	ltpFR	1	16	n/a	HOUSE	725	n/a	n/a	n/a	n/a	n/a	n/a	n/a	n/a
2719687	REC_WORD	wordpools/wasnorm_wordpool_less_exclusions.txt	LTP197	ltpFR	1	16	1	VETERAN	1561	n/a	n/a	1	n/a	n/a	n/a	n/a	n/a
2723109	REC_WORD	wordpools/wasnorm_wordpool_less_exclusions.txt	LTP197	ltpFR	1	16	0	RAG	1160	n/a	n/a	0	n/a	n/a	n/a	n/a	n/a
2724710	REC_WORD	wordpools/wasnorm_wordpool_less_exclusions.txt	LTP197	ltpFR	1	16	0	MOTH	920	n/a	n/a	0	n/a	n/a	n/a	n/a	n/a
2726621	REC_WORD	wordpools/wasnorm_wordpool_less_exclusions.txt	LTP197	ltpFR	1	16	0	FOLDER	588	n/a	n/a	0	n/a	n/a	n/a	n/a	n/a
2728237	REC_WORD	wordpools/wasnorm_wordpool_less_exclusions.txt	LTP197	ltpFR	1	16	0	LIST	830	n/a	n/a	0	n/a	n/a	n/a	n/a	n/a
2732947	REC_WORD	wordpools/wasnorm_wordpool_less_exclusions.txt	LTP197	ltpFR	1	16	0	GAZELLE	628	n/a	n/a	1	n/a	n/a	n/a	n/a	n/a
2734861	REC_WORD	wordpools/wasnorm_wordpool_less_exclusions.txt	LTP197	ltpFR	1	16	1	FLIPPER	580	n/a	n/a	0	n/a	n/a	n/a	n/a	n/a
2738978	REC_WORD	wordpools/wasnorm_wordpool_less_exclusions.txt	LTP197	ltpFR	1	16	1	RAFT	1159	n/a	n/a	0	n/a	n/a	n/a	n/a	n/a
2753355	REC_WORD	wordpools/wasnorm_wordpool_less_exclusions.txt	LTP197	ltpFR	1	16	1	TWIN	1528	n/a	n/a	1	n/a	n/a	n/a	n/a	n/a
2757491	REC_WORD	wordpools/wasnorm_wordpool_less_exclusions.txt	LTP197	ltpFR	1	16	1	COUGAR	387	n/a	n/a	1	n/a	n/a	n/a	n/a	n/a
2844034	REC_START	n/a	LTP197	ltpFR	1	n/a	n/a	n/a	n/a	n/a	n/a	n/a	n/a	n/a	n/a	n/a	n/a
2845151	FFR_REC_WORD	wordpools/wasnorm_wordpool_less_exclusions.txt	LTP197	ltpFR	1	n/a	1	VETERAN	1561	n/a	n/a	1	n/a	n/a	n/a	n/a	n/a
2846099	FFR_REC_WORD	wordpools/wasnorm_wordpool_less_exclusions.txt	LTP197	ltpFR	1	n/a	1	TWIN	1528	n/a	n/a	1	n/a	n/a	n/a	n/a	n/a
2846922	FFR_REC_WORD	wordpools/wasnorm_wordpool_less_exclusions.txt	LTP197	ltpFR	1	n/a	1	BROTHER	179	n/a	n/a	1	n/a	n/a	n/a	n/a	n/a
2847860	FFR_REC_WORD	wordpools/wasnorm_wordpool_less_exclusions.txt	LTP197	ltpFR	1	n/a	0	GAZELLE	628	n/a	n/a	1	n/a	n/a	n/a	n/a	n/a
2848510	FFR_REC_WORD	wordpools/wasnorm_wordpool_less_exclusions.txt	LTP197	ltpFR	1	n/a	1	FLIPPER	580	n/a	n/a	0	n/a	n/a	n/a	n/a	n/a
2849267	FFR_REC_WORD	wordpools/wasnorm_wordpool_less_exclusions.txt	LTP197	ltpFR	1	n/a	1	RAFT	1159	n/a	n/a	0	n/a	n/a	n/a	n/a	n/a
2851267	FFR_REC_WORD	wordpools/wasnorm_wordpool_less_exclusions.txt	LTP197	ltpFR	1	n/a	1	COUGAR	387	n/a	n/a	1	n/a	n/a	n/a	n/a	n/a
2854984	FFR_REC_WORD	wordpools/wasnorm_wordpool_less_exclusions.txt	LTP197	ltpFR	1	n/a	n/a	HOUSE	725	n/a	n/a	n/a	n/a	n/a	n/a	n/a	n/a
2856695	FFR_REC_WORD	wordpools/wasnorm_wordpool_less_exclusions.txt	LTP197	ltpFR	1	n/a	1	ROOM	1206	n/a	n/a	0	n/a	n/a	n/a	n/a	n/a
2857558	FFR_REC_WORD	wordpools/wasnorm_wordpool_less_exclusions.txt	LTP197	ltpFR	1	n/a	0	VACUUM	1543	n/a	n/a	1	n/a	n/a	n/a	n/a	n/a
2860017	FFR_REC_WORD	wordpools/wasnorm_wordpool_less_exclusions.txt	LTP197	ltpFR	1	n/a	-1	WAREHOUSE	1588	n/a	n/a	-1	n/a	n/a	n/a	n/a	n/a
2861017	FFR_REC_WORD_VV	wordpools/wasnorm_wordpool_less_exclusions.txt	LTP197	ltpFR	1	n/a	n/a	<>	-1	n/a	n/a	n/a	n/a	n/a	n/a	n/a	n/a
2864338	FFR_REC_WORD	wordpools/wasnorm_wordpool_less_exclusions.txt	LTP197	ltpFR	1	n/a	-1	BROCCOLI	176	n/a	n/a	-1	n/a	n/a	n/a	n/a	n/a
2865365	FFR_REC_WORD	wordpools/wasnorm_wordpool_less_exclusions.txt	LTP197	ltpFR	1	n/a	-1	CHEESE	289	n/a	n/a	-1	n/a	n/a	n/a	n/a	n/a
2866154	FFR_REC_WORD	wordpools/wasnorm_wordpool_less_exclusions.txt	LTP197	ltpFR	1	n/a	-1	CUP	424	n/a	n/a	-1	n/a	n/a	n/a	n/a	n/a
2868169	FFR_REC_WORD	wordpools/wasnorm_wordpool_less_exclusions.txt	LTP197	ltpFR	1	n/a	-1	MOUTH	926	n/a	n/a	-1	n/a	n/a	n/a	n/a	n/a
2868783	FFR_REC_WORD	wordpools/wasnorm_wordpool_less_exclusions.txt	LTP197	ltpFR	1	n/a	-1	JAW	751	n/a	n/a	-1	n/a	n/a	n/a	n/a	n/a
2869272	FFR_REC_WORD	wordpools/wasnorm_wordpool_less_exclusions.txt	LTP197	ltpFR	1	n/a	-1	SOCKET	1340	n/a	n/a	-1	n/a	n/a	n/a	n/a	n/a
2873990	FFR_REC_WORD	wordpools/wasnorm_wordpool_less_exclusions.txt	LTP197	ltpFR	1	n/a	-1	FOX	598	n/a	n/a	-1	n/a	n/a	n/a	n/a	n/a
2875677	FFR_REC_WORD	wordpools/wasnorm_wordpool_less_exclusions.txt	LTP197	ltpFR	1	n/a	-1	DEPUTY	450	n/a	n/a	-1	n/a	n/a	n/a	n/a	n/a
2876201	FFR_REC_WORD	wordpools/wasnorm_wordpool_less_exclusions.txt	LTP197	ltpFR	1	n/a	-1	OFFICER	973	n/a	n/a	-1	n/a	n/a	n/a	n/a	n/a
2877637	FFR_REC_WORD	wordpools/wasnorm_wordpool_less_exclusions.txt	LTP197	ltpFR	1	n/a	-1	CHECK	284	n/a	n/a	-1	n/a	n/a	n/a	n/a	n/a
2878361	FFR_REC_WORD	wordpools/wasnorm_wordpool_less_exclusions.txt	LTP197	ltpFR	1	n/a	-1	CONTRACT	368	n/a	n/a	-1	n/a	n/a	n/a	n/a	n/a
2879361	FFR_REC_WORD_VV	wordpools/wasnorm_wordpool_less_exclusions.txt	LTP197	ltpFR	1	n/a	n/a	<>	-1	n/a	n/a	n/a	n/a	n/a	n/a	n/a	n/a
2880461	FFR_REC_WORD	wordpools/wasnorm_wordpool_less_exclusions.txt	LTP197	ltpFR	1	n/a	-1	TOY	1492	n/a	n/a	-1	n/a	n/a	n/a	n/a	n/a
2880999	FFR_REC_WORD	wordpools/wasnorm_wordpool_less_exclusions.txt	LTP197	ltpFR	1	n/a	-1	RACKET	1155	n/a	n/a	-1	n/a	n/a	n/a	n/a	n/a
2885335	FFR_REC_WORD	wordpools/wasnorm_wordpool_less_exclusions.txt	LTP197	ltpFR	1	n/a	0	PRAIRIE	1118	n/a	n/a	1	n/a	n/a	n/a	n/a	n/a
2890713	FFR_REC_WORD	wordpools/wasnorm_wordpool_less_exclusions.txt	LTP197	ltpFR	1	n/a	0	PICNIC	1060	n/a	n/a	1	n/a	n/a	n/a	n/a	n/a
2891656	FFR_REC_WORD	wordpools/wasnorm_wordpool_less_exclusions.txt	LTP197	ltpFR	1	n/a	0	COLESLAW	344	n/a	n/a	0	n/a	n/a	n/a	n/a	n/a
2892444	FFR_REC_WORD	wordpools/wasnorm_wordpool_less_exclusions.txt	LTP197	ltpFR	1	n/a	0	BEARD	107	n/a	n/a	0	n/a	n/a	n/a	n/a	n/a
2893920	FFR_REC_WORD	wordpools/wasnorm_wordpool_less_exclusions.txt	LTP197	ltpFR	1	n/a	0	BISCUIT	130	n/a	n/a	0	n/a	n/a	n/a	n/a	n/a
2895412	FFR_REC_WORD	wordpools/wasnorm_wordpool_less_exclusions.txt	LTP197	ltpFR	1	n/a	0	COCKTAIL	338	n/a	n/a	0	n/a	n/a	n/a	n/a	n/a
2896455	FFR_REC_WORD	wordpools/wasnorm_wordpool_less_exclusions.txt	LTP197	ltpFR	1	n/a	0	BEVERAGE	123	n/a	n/a	0	n/a	n/a	n/a	n/a	n/a
2897242	FFR_REC_WORD	wordpools/wasnorm_wordpool_less_exclusions.txt	LTP197	ltpFR	1	n/a	0	STRAW	1390	n/a	n/a	0	n/a	n/a	n/a	n/a	n/a
2899947	FFR_REC_WORD	wordpools/wasnorm_wordpool_less_exclusions.txt	LTP197	ltpFR	1	n/a	0	BRANDY	169	n/a	n/a	0	n/a	n/a	n/a	n/a	n/a
2901603	FFR_REC_WORD	wordpools/wasnorm_wordpool_less_exclusions.txt	LTP197	ltpFR	1	n/a	0	WIRE	1616	n/a	n/a	0	n/a	n/a	n/a	n/a	n/a
2903189	FFR_REC_WORD	wordpools/wasnorm_wordpool_less_exclusions.txt	LTP197	ltpFR	1	n/a	n/a	FENCE	560	n/a	n/a	n/a	n/a	n/a	n/a	n/a	n/a
2903883	FFR_REC_WORD	wordpools/wasnorm_wordpool_less_exclusions.txt	LTP197	ltpFR	1	n/a	0	SIDEWALK	1303	n/a	n/a	1	n/a	n/a	n/a	n/a	n/a
2904900	FFR_REC_WORD	wordpools/wasnorm_wordpool_less_exclusions.txt	LTP197	ltpFR	1	n/a	0	GROUND	666	n/a	n/a	1	n/a	n/a	n/a	n/a	n/a
2906836	FFR_REC_WORD	wordpools/wasnorm_wordpool_less_exclusions.txt	LTP197	ltpFR	1	n/a	0	EARTH	515	n/a	n/a	1	n/a	n/a	n/a	n/a	n/a
2907958	FFR_REC_WORD	wordpools/wasnorm_wordpool_less_exclusions.txt	LTP197	ltpFR	1	n/a	0	VILLAGE	1566	n/a	n/a	1	n/a	n/a	n/a	n/a	n/a
2908792	FFR_REC_WORD	wordpools/wasnorm_wordpool_less_exclusions.txt	LTP197	ltpFR	1	n/a	0	RESTAURANT	1187	n/a	n/a	1	n/a	n/a	n/a	n/a	n/a
2911171	FFR_REC_WORD	wordpools/wasnorm_wordpool_less_exclusions.txt	LTP197	ltpFR	1	n/a	1	ASTRONAUT	51	n/a	n/a	1	n/a	n/a	n/a	n/a	n/a
2911895	FFR_REC_WORD	wordpools/wasnorm_wordpool_less_exclusions.txt	LTP197	ltpFR	1	n/a	1	ROCKET	1202	n/a	n/a	0	n/a	n/a	n/a	n/a	n/a
2912643	FFR_REC_WORD	wordpools/wasnorm_wordpool_less_exclusions.txt	LTP197	ltpFR	1	n/a	1	ATMOSPHERE	54	n/a	n/a	0	n/a	n/a	n/a	n/a	n/a
2913825	FFR_REC_WORD	wordpools/wasnorm_wordpool_less_exclusions.txt	LTP197	ltpFR	1	n/a	n/a	MOLECULE	905	n/a	n/a	n/a	n/a	n/a	n/a	n/a	n/a
2914583	FFR_REC_WORD	wordpools/wasnorm_wordpool_less_exclusions.txt	LTP197	ltpFR	1	n/a	1	NUCLEUS	961	n/a	n/a	0	n/a	n/a	n/a	n/a	n/a
2919343	FFR_REC_WORD	wordpools/wasnorm_wordpool_less_exclusions.txt	LTP197	ltpFR	1	n/a	1	PAINT	1003	n/a	n/a	0	n/a	n/a	n/a	n/a	n/a
2919956	FFR_REC_WORD	wordpools/wasnorm_wordpool_less_exclusions.txt	LTP197	ltpFR	1	n/a	1	BRUNETTE	181	n/a	n/a	0	n/a	n/a	n/a	n/a	n/a
2924725	FFR_REC_WORD	wordpools/wasnorm_wordpool_less_exclusions.txt	LTP197	ltpFR	1	n/a	1	WHISKERS	1605	n/a	n/a	0	n/a	n/a	n/a	n/a	n/a
2925725	FFR_REC_WORD_VV	wordpools/wasnorm_wordpool_less_exclusions.txt	LTP197	ltpFR	1	n/a	n/a	<>	-1	n/a	n/a	n/a	n/a	n/a	n/a	n/a	n/a
2933356	FFR_REC_WORD	wordpools/wasnorm_wordpool_less_exclusions.txt	LTP197	ltpFR	1	n/a	-1	RACK	1154	n/a	n/a	-1	n/a	n/a	n/a	n/a	n/a
2934124	FFR_REC_WORD	wordpools/wasnorm_wordpool_less_exclusions.txt	LTP197	ltpFR	1	n/a	-1	GOLD	647	n/a	n/a	-1	n/a	n/a	n/a	n/a	n/a
2935750	FFR_REC_WORD	wordpools/wasnorm_wordpool_less_exclusions.txt	LTP197	ltpFR	1	n/a	-1	LEVER	815	n/a	n/a	-1	n/a	n/a	n/a	n/a	n/a
2937476	FFR_REC_WORD	wordpools/wasnorm_wordpool_less_exclusions.txt	LTP197	ltpFR	1	n/a	0	PLATE	1086	n/a	n/a	0	n/a	n/a	n/a	n/a	n/a
2938414	FFR_REC_WORD	wordpools/wasnorm_wordpool_less_exclusions.txt	LTP197	ltpFR	1	n/a	-1	VEAL	1551	n/a	n/a	-1	n/a	n/a	n/a	n/a	n/a
2939656	FFR_REC_WORD	wordpools/wasnorm_wordpool_less_exclusions.txt	LTP197	ltpFR	1	n/a	-1	SILVERWARE	1308	n/a	n/a	-1	n/a	n/a	n/a	n/a	n/a
2942171	FFR_REC_WORD	wordpools/wasnorm_wordpool_less_exclusions.txt	LTP197	ltpFR	1	n/a	-1	ROOST	1208	n/a	n/a	-1	n/a	n/a	n/a	n/a	n/a
2945239	FFR_REC_WORD	wordpools/wasnorm_wordpool_less_exclusions.txt	LTP197	ltpFR	1	n/a	0	KNOT	788	n/a	n/a	0	n/a	n/a	n/a	n/a	n/a
2945773	FFR_REC_WORD	wordpools/wasnorm_wordpool_less_exclusions.txt	LTP197	ltpFR	1	n/a	1	HAND	683	n/a	n/a	1	n/a	n/a	n/a	n/a	n/a
2950627	FFR_REC_WORD	wordpools/wasnorm_wordpool_less_exclusions.txt	LTP197	ltpFR	1	n/a	1	BRACELET	163	n/a	n/a	0	n/a	n/a	n/a	n/a	n/a
2951425	FFR_REC_WORD	wordpools/wasnorm_wordpool_less_exclusions.txt	LTP197	ltpFR	1	n/a	1	ARM	38	n/a	n/a	1	n/a	n/a	n/a	n/a	n/a
2952358	FFR_REC_WORD	wordpools/wasnorm_wordpool_less_exclusions.txt	LTP197	ltpFR	1	n/a	1	GLOVE	642	n/a	n/a	0	n/a	n/a	n/a	n/a	n/a
2953081	FFR_REC_WORD	wordpools/wasnorm_wordpool_less_exclusions.txt	LTP197	ltpFR	1	n/a	1	TOTE	1487	n/a	n/a	0	n/a	n/a	n/a	n/a	n/a
2954368	FFR_REC_WORD	wordpools/wasnorm_wordpool_less_exclusions.txt	LTP197	ltpFR	1	n/a	1	BEDROOM	111	n/a	n/a	0	n/a	n/a	n/a	n/a	n/a
2955615	FFR_REC_WORD	wordpools/wasnorm_wordpool_less_exclusions.txt	LTP197	ltpFR	1	n/a	1	DUST	508	n/a	n/a	0	n/a	n/a	n/a	n/a	n/a
2957426	FFR_REC_WORD	wordpools/wasnorm_wordpool_less_exclusions.txt	LTP197	ltpFR	1	n/a	1	MAID	856	n/a	n/a	1	n/a	n/a	n/a	n/a	n/a
2960933	FFR_REC_WORD	wordpools/wasnorm_wordpool_less_exclusions.txt	LTP197	ltpFR	1	n/a	1	TAIL	1430	n/a	n/a	1	n/a	n/a	n/a	n/a	n/a
2961452	FFR_REC_WORD	wordpools/wasnorm_wordpool_less_exclusions.txt	LTP197	ltpFR	1	n/a	1	COYOTE	396	n/a	n/a	1	n/a	n/a	n/a	n/a	n/a
2962524	FFR_REC_WORD	wordpools/wasnorm_wordpool_less_exclusions.txt	LTP197	ltpFR	1	n/a	1	OCTOPUS	971	n/a	n/a	1	n/a	n/a	n/a	n/a	n/a
2968072	FFR_REC_WORD	wordpools/wasnorm_wordpool_less_exclusions.txt	LTP197	ltpFR	1	n/a	0	BIOLOGIST	128	n/a	n/a	1	n/a	n/a	n/a	n/a	n/a
2969299	FFR_REC_WORD	wordpools/wasnorm_wordpool_less_exclusions.txt	LTP197	ltpFR	1	n/a	0	BOMB	147	n/a	n/a	1	n/a	n/a	n/a	n/a	n/a
2970271	FFR_REC_WORD	wordpools/wasnorm_wordpool_less_exclusions.txt	LTP197	ltpFR	1	n/a	0	SCALLOP	1242	n/a	n/a	0	n/a	n/a	n/a	n/a	n/a
2972088	FFR_REC_WORD	wordpools/wasnorm_wordpool_less_exclusions.txt	LTP197	ltpFR	1	n/a	0	TELESCOPE	1446	n/a	n/a	1	n/a	n/a	n/a	n/a	n/a
2974053	FFR_REC_WORD	wordpools/wasnorm_wordpool_less_exclusions.txt	LTP197	ltpFR	1	n/a	0	GEM	629	n/a	n/a	0	n/a	n/a	n/a	n/a	n/a
2976273	FFR_REC_WORD	wordpools/wasnorm_wordpool_less_exclusions.txt	LTP197	ltpFR	1	n/a	0	PADDLE	1000	n/a	n/a	1	n/a	n/a	n/a	n/a	n/a
2977273	FFR_REC_WORD_VV	wordpools/wasnorm_wordpool_less_exclusions.txt	LTP197	ltpFR	1	n/a	n/a	<>	-1	n/a	n/a	n/a	n/a	n/a	n/a	n/a	n/a
2979780	FFR_REC_WORD	wordpools/wasnorm_wordpool_less_exclusions.txt	LTP197	ltpFR	1	n/a	0	DOCK	477	n/a	n/a	1	n/a	n/a	n/a	n/a	n/a
2989174	FFR_REC_WORD	wordpools/wasnorm_wordpool_less_exclusions.txt	LTP197	ltpFR	1	n/a	0	SAW	1239	n/a	n/a	0	n/a	n/a	n/a	n/a	n/a
2992387	FFR_REC_WORD	wordpools/wasnorm_wordpool_less_exclusions.txt	LTP197	ltpFR	1	n/a	0	GOOSE	649	n/a	n/a	0	n/a	n/a	n/a	n/a	n/a
2993150	FFR_REC_WORD	wordpools/wasnorm_wordpool_less_exclusions.txt	LTP197	ltpFR	1	n/a	1	MINK	897	n/a	n/a	1	n/a	n/a	n/a	n/a	n/a
2995011	FFR_REC_WORD	wordpools/wasnorm_wordpool_less_exclusions.txt	LTP197	ltpFR	1	n/a	1	MONGOOSE	909	n/a	n/a	1	n/a	n/a	n/a	n/a	n/a
2996901	FFR_REC_WORD	wordpools/wasnorm_wordpool_less_exclusions.txt	LTP197	ltpFR	1	n/a	0	SNAKE	1333	n/a	n/a	0	n/a	n/a	n/a	n/a	n/a
2999530	FFR_REC_WORD	wordpools/wasnorm_wordpool_less_exclusions.txt	LTP197	ltpFR	1	n/a	0	BLENDER	136	n/a	n/a	1	n/a	n/a	n/a	n/a	n/a
3004105	FFR_REC_WORD	wordpools/wasnorm_wordpool_less_exclusions.txt	LTP197	ltpFR	1	n/a	0	DRILL	497	n/a	n/a	0	n/a	n/a	n/a	n/a	n/a
3008425	FFR_REC_WORD	wordpools/wasnorm_wordpool_less_exclusions.txt	LTP197	ltpFR	1	n/a	1	BEEF	113	n/a	n/a	1	n/a	n/a	n/a	n/a	n/a
3009109	FFR_REC_WORD	wordpools/wasnorm_wordpool_less_exclusions.txt	LTP197	ltpFR	1	n/a	1	BREAST	171	n/a	n/a	1	n/a	n/a	n/a	n/a	n/a
3010685	FFR_REC_WORD	wordpools/wasnorm_wordpool_less_exclusions.txt	LTP197	ltpFR	1	n/a	1	CORAL	378	n/a	n/a	1	n/a	n/a	n/a	n/a	n/a
3011256	FFR_REC_WORD	wordpools/wasnorm_wordpool_less_exclusions.txt	LTP197	ltpFR	1	n/a	1	FIST	572	n/a	n/a	0	n/a	n/a	n/a	n/a	n/a
3019400	FFR_REC_WORD	wordpools/wasnorm_wordpool_less_exclusions.txt	LTP197	ltpFR	1	n/a	1	BRIDGE	174	n/a	n/a	0	n/a	n/a	n/a	n/a	n/a
3020762	FFR_REC_WORD	wordpools/wasnorm_wordpool_less_exclusions.txt	LTP197	ltpFR	1	n/a	1	STALLION	1369	n/a	n/a	1	n/a	n/a	n/a	n/a	n/a
3021762	FFR_REC_WORD_VV	wordpools/wasnorm_wordpool_less_exclusions.txt	LTP197	ltpFR	1	n/a	n/a	<>	-1	n/a	n/a	n/a	n/a	n/a	n/a	n/a	n/a
3022423	FFR_REC_WORD	wordpools/wasnorm_wordpool_less_exclusions.txt	LTP197	ltpFR	1	n/a	0	COLT	349	n/a	n/a	1	n/a	n/a	n/a	n/a	n/a
3023176	FFR_REC_WORD	wordpools/wasnorm_wordpool_less_exclusions.txt	LTP197	ltpFR	1	n/a	1	SALESMAN	1225	n/a	n/a	1	n/a	n/a	n/a	n/a	n/a
3026384	FFR_REC_WORD	wordpools/wasnorm_wordpool_less_exclusions.txt	LTP197	ltpFR	1	n/a	1	NERVE	944	n/a	n/a	1	n/a	n/a	n/a	n/a	n/a
3030360	FFR_REC_WORD	wordpools/wasnorm_wordpool_less_exclusions.txt	LTP197	ltpFR	1	n/a	1	FREEWAY	603	n/a	n/a	0	n/a	n/a	n/a	n/a	n/a
3040422	FFR_REC_WORD	wordpools/wasnorm_wordpool_less_exclusions.txt	LTP197	ltpFR	1	n/a	1	EAGLE	512	n/a	n/a	1	n/a	n/a	n/a	n/a	n/a
3044448	FFR_REC_WORD	wordpools/wasnorm_wordpool_less_exclusions.txt	LTP197	ltpFR	1	n/a	-1	LONDON	843	n/a	n/a	-1	n/a	n/a	n/a	n/a	n/a
3044992	FFR_REC_WORD	wordpools/wasnorm_wordpool_less_exclusions.txt	LTP197	ltpFR	1	n/a	-1	PARIS	1014	n/a	n/a	-1	n/a	n/a	n/a	n/a	n/a
3045666	FFR_REC_WORD	wordpools/wasnorm_wordpool_less_exclusions.txt	LTP197	ltpFR	1	n/a	-1	CANVAS	234	n/a	n/a	-1	n/a	n/a	n/a	n/a	n/a
3049247	FFR_REC_WORD	wordpools/wasnorm_wordpool_less_exclusions.txt	LTP197	ltpFR	1	n/a	1	MONK	910	n/a	n/a	1	n/a	n/a	n/a	n/a	n/a
3049786	FFR_REC_WORD	wordpools/wasnorm_wordpool_less_exclusions.txt	LTP197	ltpFR	1	n/a	-1	MONASTERY	907	n/a	n/a	-1	n/a	n/a	n/a	n/a	n/a
3050699	FFR_REC_WORD	wordpools/wasnorm_wordpool_less_exclusions.txt	LTP197	ltpFR	1	n/a	-1	OATMEAL	967	n/a	n/a	-1	n/a	n/a	n/a	n/a	n/a
3051457	FFR_REC_WORD	wordpools/wasnorm_wordpool_less_exclusions.txt	LTP197	ltpFR	1	n/a	-1	WALNUT	1584	n/a	n/a	-1	n/a	n/a	n/a	n/a	n/a
3052136	FFR_REC_WORD	wordpools/wasnorm_wordpool_less_exclusions.txt	LTP197	ltpFR	1	n/a	-1	ELM	527	n/a	n/a	-1	n/a	n/a	n/a	n/a	n/a
3052819	FFR_REC_WORD	wordpools/wasnorm_wordpool_less_exclusions.txt	LTP197	ltpFR	1	n/a	-1	BLOSSOM	138	n/a	n/a	-1	n/a	n/a	n/a	n/a	n/a
3055443	FFR_REC_WORD	wordpools/wasnorm_wordpool_less_exclusions.txt	LTP197	ltpFR	1	n/a	n/a	RASPBERRY	1168	n/a	n/a	n/a	n/a	n/a	n/a	n/a	n/a
3056443	FFR_REC_WORD_VV	wordpools/wasnorm_wordpool_less_exclusions.txt	LTP197	ltpFR	1	n/a	n/a	<>	-1	n/a	n/a	n/a	n/a	n/a	n/a	n/a	n/a
3060695	FFR_REC_WORD	wordpools/wasnorm_wordpool_less_exclusions.txt	LTP197	ltpFR	1	n/a	-1	PHILOSOPHER	1054	n/a	n/a	-1	n/a	n/a	n/a	n/a	n/a
3061695	FFR_REC_WORD_VV	wordpools/wasnorm_wordpool_less_exclusions.txt	LTP197	ltpFR	1	n/a	n/a	<>	-1	n/a	n/a	n/a	n/a	n/a	n/a	n/a	n/a
3062996	FFR_REC_WORD	wordpools/wasnorm_wordpool_less_exclusions.txt	LTP197	ltpFR	1	n/a	-1	DETECTIVE	454	n/a	n/a	-1	n/a	n/a	n/a	n/a	n/a
3065231	FFR_REC_WORD	wordpools/wasnorm_wordpool_less_exclusions.txt	LTP197	ltpFR	1	n/a	-1	CLOTHES	327	n/a	n/a	-1	n/a	n/a	n/a	n/a	n/a
3072789	FFR_REC_WORD	wordpools/wasnorm_wordpool_less_exclusions.txt	LTP197	ltpFR	1	n/a	-1	DWARF	510	n/a	n/a	-1	n/a	n/a	n/a	n/a	n/a
3088134	FFR_REC_WORD	wordpools/wasnorm_wordpool_less_exclusions.txt	LTP197	ltpFR	1	n/a	-1	ARENA	37	n/a	n/a	-1	n/a	n/a	n/a	n/a	n/a
3089316	FFR_REC_WORD	wordpools/wasnorm_wordpool_less_exclusions.txt	LTP197	ltpFR	1	n/a	-1	CAPE	237	n/a	n/a	-1	n/a	n/a	n/a	n/a	n/a
3090154	FFR_REC_WORD	wordpools/wasnorm_wordpool_less_exclusions.txt	LTP197	ltpFR	1	n/a	-1	BULL	193	n/a	n/a	-1	n/a	n/a	n/a	n/a	n/a
3092749	FFR_REC_WORD	wordpools/wasnorm_wordpool_less_exclusions.txt	LTP197	ltpFR	1	n/a	-1	MANAGER	863	n/a	n/a	-1	n/a	n/a	n/a	n/a	n/a
3093751	FFR_REC_WORD	wordpools/wasnorm_wordpool_less_exclusions.txt	LTP197	ltpFR	1	n/a	-1	PENCIL	1042	n/a	n/a	-1	n/a	n/a	n/a	n/a	n/a
3095398	FFR_REC_WORD	wordpools/wasnorm_wordpool_less_exclusions.txt	LTP197	ltpFR	1	n/a	-1	GANG	619	n/a	n/a	-1	n/a	n/a	n/a	n/a	n/a
3095856	FFR_REC_WORD	wordpools/wasnorm_wordpool_less_exclusions.txt	LTP197	ltpFR	1	n/a	-1	STEREO	1378	n/a	n/a	-1	n/a	n/a	n/a	n/a	n/a
3096599	FFR_REC_WORD	wordpools/wasnorm_wordpool_less_exclusions.txt	LTP197	ltpFR	1	n/a	-1	STRING	1394	n/a	n/a	-1	n/a	n/a	n/a	n/a	n/a
3098465	FFR_REC_WORD	wordpools/wasnorm_wordpool_less_exclusions.txt	LTP197	ltpFR	1	n/a	-1	PERSON	1052	n/a	n/a	-1	n/a	n/a	n/a	n/a	n/a
3099057	FFR_REC_WORD	wordpools/wasnorm_wordpool_less_exclusions.txt	LTP197	ltpFR	1	n/a	-1	HUMAN	726	n/a	n/a	-1	n/a	n/a	n/a	n/a	n/a
3099872	FFR_REC_WORD	wordpools/wasnorm_wordpool_less_exclusions.txt	LTP197	ltpFR	1	n/a	-1	AUDIENCE	59	n/a	n/a	-1	n/a	n/a	n/a	n/a	n/a
3104262	FFR_REC_WORD	wordpools/wasnorm_wordpool_less_exclusions.txt	LTP197	ltpFR	1	n/a	-1	SUPPER	1411	n/a	n/a	-1	n/a	n/a	n/a	n/a	n/a
3104958	FFR_REC_WORD	wordpools/wasnorm_wordpool_less_exclusions.txt	LTP197	ltpFR	1	n/a	-1	STOMACH	1384	n/a	n/a	-1	n/a	n/a	n/a	n/a	n/a
3114659	FFR_REC_WORD	wordpools/wasnorm_wordpool_less_exclusions.txt	LTP197	ltpFR	1	n/a	0	GROUND	666	n/a	n/a	1	n/a	n/a	n/a	n/a	n/a
3118086	FFR_REC_WORD	wordpools/wasnorm_wordpool_less_exclusions.txt	LTP197	ltpFR	1	n/a	n/a	NOTE	958	n/a	n/a	n/a	n/a	n/a	n/a	n/a	n/a
3125150	FFR_REC_WORD	wordpools/wasnorm_wordpool_less_exclusions.txt	LTP197	ltpFR	1	n/a	0	CANYON	235	n/a	n/a	1	n/a	n/a	n/a	n/a	n/a
3125998	FFR_REC_WORD	wordpools/wasnorm_wordpool_less_exclusions.txt	LTP197	ltpFR	1	n/a	0	CLIMBER	323	n/a	n/a	1	n/a	n/a	n/a	n/a	n/a
3126741	FFR_REC_WORD	wordpools/wasnorm_wordpool_less_exclusions.txt	LTP197	ltpFR	1	n/a	0	FOUNTAIN	597	n/a	n/a	1	n/a	n/a	n/a	n/a	n/a
3127444	FFR_REC_WORD	wordpools/wasnorm_wordpool_less_exclusions.txt	LTP197	ltpFR	1	n/a	0	SLIDE	1326	n/a	n/a	1	n/a	n/a	n/a	n/a	n/a
3129201	FFR_REC_WORD	wordpools/wasnorm_wordpool_less_exclusions.txt	LTP197	ltpFR	1	n/a	n/a	ALLIGATOR	16	n/a	n/a	n/a	n/a	n/a	n/a	n/a	n/a
3130443	FFR_REC_WORD	wordpools/wasnorm_wordpool_less_exclusions.txt	LTP197	ltpFR	1	n/a	0	HEART	697	n/a	n/a	0	n/a	n/a	n/a	n/a	n/a
3133676	FFR_REC_WORD	wordpools/wasnorm_wordpool_less_exclusions.txt	LTP197	ltpFR	1	n/a	0	MOTH	920	n/a	n/a	0	n/a	n/a	n/a	n/a	n/a
3134244	FFR_REC_WORD	wordpools/wasnorm_wordpool_less_exclusions.txt	LTP197	ltpFR	1	n/a	0	RAG	1160	n/a	n/a	0	n/a	n/a	n/a	n/a	n/a
3136808	FFR_REC_WORD	wordpools/wasnorm_wordpool_less_exclusions.txt	LTP197	ltpFR	1	n/a	0	CRICKET	408	n/a	n/a	0	n/a	n/a	n/a	n/a	n/a
3139732	FFR_REC_WORD	wordpools/wasnorm_wordpool_less_exclusions.txt	LTP197	ltpFR	1	n/a	0	BEETLE	116	n/a	n/a	0	n/a	n/a	n/a	n/a	n/a
3195642	REC_START	n/a	LTP197	ltpFR	1	1	n/a	n/a	n/a	n/a	n/a	n/a	n/a	n/a	n/a	n/a	n/a
3195692	RECOG_LURE	n/a	LTP197	ltpFR	1	1	n/a	CONTINENT	367	0	3	n/a	n/a	n/a	n/a	n/a	n/a
3197641	RECOG_RESP	n/a	LTP197	ltpFR	1	1	n/a	CONTINENT	367	0	n/a	n/a	n/a	n/a	n/a	n/a	n/a
3199648	RECOG_CONF	n/a	LTP197	ltpFR	1	1	n/a	CONTINENT	367	n/a	3	n/a	n/a	n/a	n/a	n/a	n/a
3201547	RECOG_LURE	n/a	LTP197	ltpFR	1	1	n/a	STUMP	1396	0	4	n/a	n/a	n/a	n/a	n/a	n/a
3202891	RECOG_RESP	n/a	LTP197	ltpFR	1	1	n/a	STUMP	1396	0	n/a	n/a	n/a	n/a	n/a	n/a	n/a
3204417	RECOG_CONF	n/a	LTP197	ltpFR	1	1	n/a	STUMP	1396	n/a	4	n/a	n/a	n/a	n/a	n/a	n/a
3206147	RECOG_LURE	n/a	LTP197	ltpFR	1	1	n/a	CRIB	407	0	3	n/a	n/a	n/a	n/a	n/a	n/a
3207150	RECOG_RESP	n/a	LTP197	ltpFR	1	1	n/a	CRIB	407	0	n/a	n/a	n/a	n/a	n/a	n/a	n/a
3208413	RECOG_CONF	n/a	LTP197	ltpFR	1	1	n/a	CRIB	407	n/a	3	n/a	n/a	n/a	n/a	n/a	n/a
3210013	RECOG_TARGET	n/a	LTP197	ltpFR	1	1	0	COLESLAW	344	1	5	0	n/a	n/a	n/a	n/a	n/a
3210825	RECOG_RESP	n/a	LTP197	ltpFR	1	1	0	COLESLAW	344	1	n/a	0	n/a	n/a	n/a	n/a	n/a
3212144	RECOG_CONF	n/a	LTP197	ltpFR	1	1	0	COLESLAW	344	n/a	5	0	n/a	n/a	n/a	n/a	n/a
3214044	RECOG_TARGET	n/a	LTP197	ltpFR	1	1	0	BOUQUET	157	1	5	1	n/a	n/a	n/a	n/a	n/a
3215347	RECOG_RESP	n/a	LTP197	ltpFR	1	1	0	BOUQUET	157	1	n/a	1	n/a	n/a	n/a	n/a	n/a
3216579	RECOG_CONF	n/a	LTP197	ltpFR	1	1	0	BOUQUET	157	n/a	5	1	n/a	n/a	n/a	n/a	n/a
3218395	RECOG_LURE	n/a	LTP197	ltpFR	1	1	n/a	CLARINET	317	0	4	n/a	n/a	n/a	n/a	n/a	n/a
3219369	RECOG_RESP	n/a	LTP197	ltpFR	1	1	n/a	CLARINET	317	0	n/a	n/a	n/a	n/a	n/a	n/a	n/a
3221052	RECOG_CONF	n/a	LTP197	ltpFR	1	1	n/a	CLARINET	317	n/a	4	n/a	n/a	n/a	n/a	n/a	n/a
3223028	RECOG_LURE	n/a	LTP197	ltpFR	1	1	n/a	FLESH	579	0	3	n/a	n/a	n/a	n/a	n/a	n/a
3224047	RECOG_RESP	n/a	LTP197	ltpFR	1	1	n/a	FLESH	579	0	n/a	n/a	n/a	n/a	n/a	n/a	n/a
3226201	RECOG_CONF	n/a	LTP197	ltpFR	1	1	n/a	FLESH	579	n/a	3	n/a	n/a	n/a	n/a	n/a	n/a
3228047	RECOG_LURE	n/a	LTP197	ltpFR	1	1	n/a	KID	775	0	3	n/a	n/a	n/a	n/a	n/a	n/a
3228883	RECOG_RESP	n/a	LTP197	ltpFR	1	1	n/a	KID	775	0	n/a	n/a	n/a	n/a	n/a	n/a	n/a
3230396	RECOG_CONF	n/a	LTP197	ltpFR	1	1	n/a	KID	775	n/a	3	n/a	n/a	n/a	n/a	n/a	n/a
3232346	RECOG_LURE	n/a	LTP197	ltpFR	1	1	n/a	WOUND	1624	0	2	n/a	n/a	n/a	n/a	n/a	n/a
3234336	RECOG_RESP	n/a	LTP197	ltpFR	1	1	n/a	WOUND	1624	0	n/a	n/a	n/a	n/a	n/a	n/a	n/a
3235742	RECOG_CONF	n/a	LTP197	ltpFR	1	1	n/a	WOUND	1624	n/a	2	n/a	n/a	n/a	n/a	n/a	n/a
3237482	RECOG_LURE	n/a	LTP197	ltpFR	1	1	n/a	CELLAR	267	0	3	n/a	n/a	n/a	n/a	n/a	n/a
3238549	RECOG_RESP	n/a	LTP197	ltpFR	1	1	n/a	CELLAR	267	0	n/a	n/a	n/a	n/a	n/a	n/a	n/a
3239853	RECOG_CONF	n/a	LTP197	ltpFR	1	1	n/a	CELLAR	267	n/a	3	n/a	n/a	n/a	n/a	n/a	n/a
3241517	RECOG_LURE	n/a	LTP197	ltpFR	1	1	n/a	COP	376	0	2	n/a	n/a	n/a	n/a	n/a	n/a
3243163	RECOG_RESP	n/a	LTP197	ltpFR	1	1	n/a	COP	376	0	n/a	n/a	n/a	n/a	n/a	n/a	n/a
3244347	RECOG_CONF	n/a	LTP197	ltpFR	1	1	n/a	COP	376	n/a	2	n/a	n/a	n/a	n/a	n/a	n/a
3246120	RECOG_LURE	n/a	LTP197	ltpFR	1	1	n/a	FUDGE	611	0	3	n/a	n/a	n/a	n/a	n/a	n/a
3247150	RECOG_RESP	n/a	LTP197	ltpFR	1	1	n/a	FUDGE	611	0	n/a	n/a	n/a	n/a	n/a	n/a	n/a
3248527	RECOG_CONF	n/a	LTP197	ltpFR	1	1	n/a	FUDGE	611	n/a	3	n/a	n/a	n/a	n/a	n/a	n/a
3250231	RECOG_LURE	n/a	LTP197	ltpFR	1	1	n/a	CUE	422	0	3	n/a	n/a	n/a	n/a	n/a	n/a
3251166	RECOG_RESP	n/a	LTP197	ltpFR	1	1	n/a	CUE	422	0	n/a	n/a	n/a	n/a	n/a	n/a	n/a
3252650	RECOG_CONF	n/a	LTP197	ltpFR	1	1	n/a	CUE	422	n/a	3	n/a	n/a	n/a	n/a	n/a	n/a
3254329	RECOG_TARGET	n/a	LTP197	ltpFR	1	1	0	SNAKE	1333	1	5	0	n/a	n/a	n/a	n/a	n/a
3255314	RECOG_RESP	n/a	LTP197	ltpFR	1	1	0	SNAKE	1333	1	n/a	0	n/a	n/a	n/a	n/a	n/a
3256647	RECOG_CONF	n/a	LTP197	ltpFR	1	1	0	SNAKE	1333	n/a	5	0	n/a	n/a	n/a	n/a	n/a
3258629	RECOG_LURE	n/a	LTP197	ltpFR	1	1	n/a	COOLER	375	0	3	n/a	n/a	n/a	n/a	n/a	n/a
3259978	RECOG_RESP	n/a	LTP197	ltpFR	1	1	n/a	COOLER	375	0	n/a	n/a	n/a	n/a	n/a	n/a	n/a
3261348	RECOG_CONF	n/a	LTP197	ltpFR	1	1	n/a	COOLER	375	n/a	3	n/a	n/a	n/a	n/a	n/a	n/a
3263229	RECOG_TARGET	n/a	LTP197	ltpFR	1	1	0	FOUNTAIN	597	1	5	1	n/a	n/a	n/a	n/a	n/a
3264126	RECOG_RESP	n/a	LTP197	ltpFR	1	1	0	FOUNTAIN	597	1	n/a	1	n/a	n/a	n/a	n/a	n/a
3265302	RECOG_CONF	n/a	LTP197	ltpFR	1	1	0	FOUNTAIN	597	n/a	5	1	n/a	n/a	n/a	n/a	n/a
3267261	RECOG_LURE	n/a	LTP197	ltpFR	1	1	n/a	DICTATOR	462	0	4	n/a	n/a	n/a	n/a	n/a	n/a
3268741	RECOG_RESP	n/a	LTP197	ltpFR	1	1	n/a	DICTATOR	462	0	n/a	n/a	n/a	n/a	n/a	n/a	n/a
3271445	RECOG_CONF	n/a	LTP197	ltpFR	1	1	n/a	DICTATOR	462	n/a	4	n/a	n/a	n/a	n/a	n/a	n/a
3273100	RECOG_TARGET	n/a	LTP197	ltpFR	1	1	-1	FRIAR	605	n/a	4	-1	n/a	n/a	n/a	n/a	n/a
3276723	RECOG_CONF	n/a	LTP197	ltpFR	1	1	-1	FRIAR	605	n/a	4	-1	n/a	n/a	n/a	n/a	n/a
3278572	RECOG_TARGET	n/a	LTP197	ltpFR	1	1	0	BARLEY	88	1	4	0	n/a	n/a	n/a	n/a	n/a
3279619	RECOG_RESP	n/a	LTP197	ltpFR	1	1	0	BARLEY	88	1	n/a	0	n/a	n/a	n/a	n/a	n/a
3281432	RECOG_CONF	n/a	LTP197	ltpFR	1	1	0	BARLEY	88	n/a	4	0	n/a	n/a	n/a	n/a	n/a
3283188	RECOG_TARGET	n/a	LTP197	ltpFR	1	1	1	BEEF	113	1	5	1	n/a	n/a	n/a	n/a	n/a
3284443	RECOG_RESP	n/a	LTP197	ltpFR	1	1	1	BEEF	113	1	n/a	1	n/a	n/a	n/a	n/a	n/a
3285712	RECOG_CONF	n/a	LTP197	ltpFR	1	1	1	BEEF	113	n/a	5	1	n/a	n/a	n/a	n/a	n/a
3291394	REC_START	n/a	LTP197	ltpFR	1	2	n/a	n/a	n/a	n/a	n/a	n/a	n/a	n/a	n/a	n/a	n/a
3291436	RECOG_LURE	n/a	LTP197	ltpFR	1	2	n/a	OVEN	991	0	4	n/a	n/a	n/a	n/a	n/a	n/a
3292436	RECOG_RESP	n/a	LTP197	ltpFR	1	2	n/a	OVEN	991	0	n/a	n/a	n/a	n/a	n/a	n/a	n/a
3293804	RECOG_CONF	n/a	LTP197	ltpFR	1	2	n/a	OVEN	991	n/a	4	n/a	n/a	n/a	n/a	n/a	n/a
3295601	RECOG_TARGET	n/a	LTP197	ltpFR	1	2	1	MAID	856	1	5	1	n/a	n/a	n/a	n/a	n/a
3296427	RECOG_RESP	n/a	LTP197	ltpFR	1	2	1	MAID	856	1	n/a	1	n/a	n/a	n/a	n/a	n/a
3297608	RECOG_CONF	n/a	LTP197	ltpFR	1	2	1	MAID	856	n/a	5	1	n/a	n/a	n/a	n/a	n/a
3299332	RECOG_LURE	n/a	LTP197	ltpFR	1	2	n/a	HAMMER	680	1	4	n/a	n/a	n/a	n/a	n/a	n/a
3300200	RECOG_RESP	n/a	LTP197	ltpFR	1	2	n/a	HAMMER	680	1	n/a	n/a	n/a	n/a	n/a	n/a	n/a
3301615	RECOG_CONF	n/a	LTP197	ltpFR	1	2	n/a	HAMMER	680	n/a	4	n/a	n/a	n/a	n/a	n/a	n/a
3303401	RECOG_LURE	n/a	LTP197	ltpFR	1	2	n/a	WINNER	1615	0	5	n/a	n/a	n/a	n/a	n/a	n/a
3304435	RECOG_RESP	n/a	LTP197	ltpFR	1	2	n/a	WINNER	1615	0	n/a	n/a	n/a	n/a	n/a	n/a	n/a
3305749	RECOG_CONF	n/a	LTP197	ltpFR	1	2	n/a	WINNER	1615	n/a	5	n/a	n/a	n/a	n/a	n/a	n/a
3307463	RECOG_TARGET	n/a	LTP197	ltpFR	1	2	-1	PARIS	1014	1	5	-1	n/a	n/a	n/a	n/a	n/a
3308488	RECOG_RESP	n/a	LTP197	ltpFR	1	2	-1	PARIS	1014	1	n/a	-1	n/a	n/a	n/a	n/a	n/a
3309694	RECOG_CONF	n/a	LTP197	ltpFR	1	2	-1	PARIS	1014	n/a	5	-1	n/a	n/a	n/a	n/a	n/a
3311663	RECOG_TARGET	n/a	LTP197	ltpFR	1	2	-1	OFFICER	973	1	5	-1	n/a	n/a	n/a	n/a	n/a
3312604	RECOG_RESP	n/a	LTP197	ltpFR	1	2	-1	OFFICER	973	1	n/a	-1	n/a	n/a	n/a	n/a	n/a
3313833	RECOG_CONF	n/a	LTP197	ltpFR	1	2	-1	OFFICER	973	n/a	5	-1	n/a	n/a	n/a	n/a	n/a
3316782	RECOG_LURE	n/a	LTP197	ltpFR	1	2	n/a	SARDINE	1235	0	2	n/a	n/a	n/a	n/a	n/a	n/a
3317812	RECOG_RESP	n/a	LTP197	ltpFR	1	2	n/a	SARDINE	1235	0	n/a	n/a	n/a	n/a	n/a	n/a	n/a
3319425	RECOG_CONF	n/a	LTP197	ltpFR	1	2	n/a	SARDINE	1235	n/a	2	n/a	n/a	n/a	n/a	n/a	n/a
3321131	RECOG_TARGET	n/a	LTP197	ltpFR	1	2	0	BOMB	147	1	5	1	n/a	n/a	n/a	n/a	n/a
3321971	RECOG_RESP	n/a	LTP197	ltpFR	1	2	0	BOMB	147	1	n/a	1	n/a	n/a	n/a	n/a	n/a
3323226	RECOG_CONF	n/a	LTP197	ltpFR	1	2	0	BOMB	147	n/a	5	1	n/a	n/a	n/a	n/a	n/a
3325012	RECOG_TARGET	n/a	LTP197	ltpFR	1	2	-1	JAW	751	1	5	-1	n/a	n/a	n/a	n/a	n/a
3325793	RECOG_RESP	n/a	LTP197	ltpFR	1	2	-1	JAW	751	1	n/a	-1	n/a	n/a	n/a	n/a	n/a
3326866	RECOG_CONF	n/a	LTP197	ltpFR	1	2	-1	JAW	751	n/a	5	-1	n/a	n/a	n/a	n/a	n/a
3328763	RECOG_TARGET	n/a	LTP197	ltpFR	1	2	0	CROCODILE	411	0	2	1	n/a	n/a	n/a	n/a	n/a
3330537	RECOG_RESP	n/a	LTP197	ltpFR	1	2	0	CROCODILE	411	0	n/a	1	n/a	n/a	n/a	n/a	n/a
3332183	RECOG_CONF	n/a	LTP197	ltpFR	1	2	0	CROCODILE	411	n/a	2	1	n/a	n/a	n/a	n/a	n/a
3333979	RECOG_TARGET	n/a	LTP197	ltpFR	1	2	1	BROTHER	179	n/a	5	1	n/a	n/a	n/a	n/a	n/a
3336074	RECOG_CONF	n/a	LTP197	ltpFR	1	2	1	BROTHER	179	n/a	5	1	n/a	n/a	n/a	n/a	n/a
3337895	RECOG_LURE	n/a	LTP197	ltpFR	1	2	n/a	LADY	794	0	3	n/a	n/a	n/a	n/a	n/a	n/a
3338909	RECOG_RESP	n/a	LTP197	ltpFR	1	2	n/a	LADY	794	0	n/a	n/a	n/a	n/a	n/a	n/a	n/a
3340277	RECOG_CONF	n/a	LTP197	ltpFR	1	2	n/a	LADY	794	n/a	3	n/a	n/a	n/a	n/a	n/a	n/a
3341946	RECOG_TARGET	n/a	LTP197	ltpFR	1	2	0	TREE	1502	1	2	1	n/a	n/a	n/a	n/a	n/a
3344126	RECOG_RESP	n/a	LTP197	ltpFR	1	2	0	TREE	1502	1	n/a	1	n/a	n/a	n/a	n/a	n/a
3345169	RECOG_CONF	n/a	LTP197	ltpFR	1	2	0	TREE	1502	n/a	2	1	n/a	n/a	n/a	n/a	n/a
3346965	RECOG_TARGET	n/a	LTP197	ltpFR	1	2	1	SOFTBALL	1343	1	5	0	n/a	n/a	n/a	n/a	n/a
3348668	RECOG_RESP	n/a	LTP197	ltpFR	1	2	1	SOFTBALL	1343	1	n/a	0	n/a	n/a	n/a	n/a	n/a
3349884	RECOG_CONF	n/a	LTP197	ltpFR	1	2	1	SOFTBALL	1343	n/a	5	0	n/a	n/a	n/a	n/a	n/a
3351730	RECOG_TARGET	n/a	LTP197	ltpFR	1	2	0	MAILMAN	858	1	4	1	n/a	n/a	n/a	n/a	n/a
3352879	RECOG_RESP	n/a	LTP197	ltpFR	1	2	0	MAILMAN	858	1	n/a	1	n/a	n/a	n/a	n/a	n/a
3354051	RECOG_CONF	n/a	LTP197	ltpFR	1	2	0	MAILMAN	858	n/a	4	1	n/a	n/a	n/a	n/a	n/a
3355880	RECOG_LURE	n/a	LTP197	ltpFR	1	2	n/a	OFFICE	972	0	2	n/a	n/a	n/a	n/a	n/a	n/a
3357976	RECOG_RESP	n/a	LTP197	ltpFR	1	2	n/a	OFFICE	972	0	n/a	n/a	n/a	n/a	n/a	n/a	n/a
3359800	RECOG_CONF	n/a	LTP197	ltpFR	1	2	n/a	OFFICE	972	n/a	2	n/a	n/a	n/a	n/a	n/a	n/a
3361533	RECOG_TARGET	n/a	LTP197	ltpFR	1	2	-1	TILE	1468	1	5	-1	n/a	n/a	n/a	n/a	n/a
3362415	RECOG_RESP	n/a	LTP197	ltpFR	1	2	-1	TILE	1468	1	n/a	-1	n/a	n/a	n/a	n/a	n/a
3363774	RECOG_CONF	n/a	LTP197	ltpFR	1	2	-1	TILE	1468	n/a	5	-1	n/a	n/a	n/a	n/a	n/a
3365565	RECOG_LURE	n/a	LTP197	ltpFR	1	2	n/a	JELLY	755	0	3	n/a	n/a	n/a	n/a	n/a	n/a
3366475	RECOG_RESP	n/a	LTP197	ltpFR	1	2	n/a	JELLY	755	0	n/a	n/a	n/a	n/a	n/a	n/a	n/a
3368599	RECOG_CONF	n/a	LTP197	ltpFR	1	2	n/a	JELLY	755	n/a	3	n/a	n/a	n/a	n/a	n/a	n/a
3370283	RECOG_LURE	n/a	LTP197	ltpFR	1	2	n/a	PIPE	1073	0	2	n/a	n/a	n/a	n/a	n/a	n/a
3371638	RECOG_RESP	n/a	LTP197	ltpFR	1	2	n/a	PIPE	1073	0	n/a	n/a	n/a	n/a	n/a	n/a	n/a
3372949	RECOG_CONF	n/a	LTP197	ltpFR	1	2	n/a	PIPE	1073	n/a	2	n/a	n/a	n/a	n/a	n/a	n/a
3374532	RECOG_TARGET	n/a	LTP197	ltpFR	1	2	0	APE	31	1	5	1	n/a	n/a	n/a	n/a	n/a
3376306	RECOG_RESP	n/a	LTP197	ltpFR	1	2	0	APE	31	1	n/a	1	n/a	n/a	n/a	n/a	n/a
3377822	RECOG_CONF	n/a	LTP197	ltpFR	1	2	0	APE	31	n/a	5	1	n/a	n/a	n/a	n/a	n/a
3381885	REC_START	n/a	LTP197	ltpFR	1	3	n/a	n/a	n/a	n/a	n/a	n/a	n/a	n/a	n/a	n/a	n/a
3381932	RECOG_LURE	n/a	LTP197	ltpFR	1	3	n/a	MUSHROOM	934	0	4	n/a	n/a	n/a	n/a	n/a	n/a
3382877	RECOG_RESP	n/a	LTP197	ltpFR	1	3	n/a	MUSHROOM	934	0	n/a	n/a	n/a	n/a	n/a	n/a	n/a
3384045	RECOG_CONF	n/a	LTP197	ltpFR	1	3	n/a	MUSHROOM	934	n/a	4	n/a	n/a	n/a	n/a	n/a	n/a
3385658	RECOG_LURE	n/a	LTP197	ltpFR	1	3	n/a	TOILET	1475	0	4	n/a	n/a	n/a	n/a	n/a	n/a
3386525	RECOG_RESP	n/a	LTP197	ltpFR	1	3	n/a	TOILET	1475	0	n/a	n/a	n/a	n/a	n/a	n/a	n/a
3388475	RECOG_CONF	n/a	LTP197	ltpFR	1	3	n/a	TOILET	1475	n/a	4	n/a	n/a	n/a	n/a	n/a	n/a
3390024	RECOG_TARGET	n/a	LTP197	ltpFR	1	3	1	TAIL	1430	1	5	1	n/a	n/a	n/a	n/a	n/a
3390932	RECOG_RESP	n/a	LTP197	ltpFR	1	3	1	TAIL	1430	1	n/a	1	n/a	n/a	n/a	n/a	n/a
3392135	RECOG_CONF	n/a	LTP197	ltpFR	1	3	1	TAIL	1430	n/a	5	1	n/a	n/a	n/a	n/a	n/a
3393955	RECOG_LURE	n/a	LTP197	ltpFR	1	3	n/a	MILK	895	0	2	n/a	n/a	n/a	n/a	n/a	n/a
3395245	RECOG_RESP	n/a	LTP197	ltpFR	1	3	n/a	MILK	895	0	n/a	n/a	n/a	n/a	n/a	n/a	n/a
3396424	RECOG_CONF	n/a	LTP197	ltpFR	1	3	n/a	MILK	895	n/a	2	n/a	n/a	n/a	n/a	n/a	n/a
3398054	RECOG_LURE	n/a	LTP197	ltpFR	1	3	n/a	STAKE	1368	0	3	n/a	n/a	n/a	n/a	n/a	n/a
3399976	RECOG_RESP	n/a	LTP197	ltpFR	1	3	n/a	STAKE	1368	0	n/a	n/a	n/a	n/a	n/a	n/a	n/a
3402154	RECOG_CONF	n/a	LTP197	ltpFR	1	3	n/a	STAKE	1368	n/a	3	n/a	n/a	n/a	n/a	n/a	n/a
3403793	RECOG_TARGET	n/a	LTP197	ltpFR	1	3	0	PRAIRIE	1118	1	5	1	n/a	n/a	n/a	n/a	n/a
3404823	RECOG_RESP	n/a	LTP197	ltpFR	1	3	0	PRAIRIE	1118	1	n/a	1	n/a	n/a	n/a	n/a	n/a
3406155	RECOG_CONF	n/a	LTP197	ltpFR	1	3	0	PRAIRIE	1118	n/a	5	1	n/a	n/a	n/a	n/a	n/a
3407792	RECOG_LURE	n/a	LTP197	ltpFR	1	3	n/a	APARTMENT	30	0	4	n/a	n/a	n/a	n/a	n/a	n/a
3408785	RECOG_RESP	n/a	LTP197	ltpFR	1	3	n/a	APARTMENT	30	0	n/a	n/a	n/a	n/a	n/a	n/a	n/a
3411165	RECOG_CONF	n/a	LTP197	ltpFR	1	3	n/a	APARTMENT	30	n/a	4	n/a	n/a	n/a	n/a	n/a	n/a
3412928	RECOG_TARGET	n/a	LTP197	ltpFR	1	3	1	COUCH	386	1	2	0	n/a	n/a	n/a	n/a	n/a
3414431	RECOG_RESP	n/a	LTP197	ltpFR	1	3	1	COUCH	386	1	n/a	0	n/a	n/a	n/a	n/a	n/a
3415979	RECOG_CONF	n/a	LTP197	ltpFR	1	3	1	COUCH	386	n/a	2	0	n/a	n/a	n/a	n/a	n/a
3417664	RECOG_LURE	n/a	LTP197	ltpFR	1	3	n/a	MEDICINE	886	0	4	n/a	n/a	n/a	n/a	n/a	n/a
3418703	RECOG_RESP	n/a	LTP197	ltpFR	1	3	n/a	MEDICINE	886	0	n/a	n/a	n/a	n/a	n/a	n/a	n/a
3420193	RECOG_CONF	n/a	LTP197	ltpFR	1	3	n/a	MEDICINE	886	n/a	4	n/a	n/a	n/a	n/a	n/a	n/a
3421794	RECOG_TARGET	n/a	LTP197	ltpFR	1	3	1	FLASHLIGHT	575	1	5	0	n/a	n/a	n/a	n/a	n/a
3422692	RECOG_RESP	n/a	LTP197	ltpFR	1	3	1	FLASHLIGHT	575	1	n/a	0	n/a	n/a	n/a	n/a	n/a
3424795	RECOG_CONF	n/a	LTP197	ltpFR	1	3	1	FLASHLIGHT	575	n/a	5	0	n/a	n/a	n/a	n/a	n/a
3426495	RECOG_LURE	n/a	LTP197	ltpFR	1	3	n/a	BANKER	84	0	4	n/a	n/a	n/a	n/a	n/a	n/a
3427341	RECOG_RESP	n/a	LTP197	ltpFR	1	3	n/a	BANKER	84	0	n/a	n/a	n/a	n/a	n/a	n/a	n/a
3428508	RECOG_CONF	n/a	LTP197	ltpFR	1	3	n/a	BANKER	84	n/a	4	n/a	n/a	n/a	n/a	n/a	n/a
3430276	RECOG_LURE	n/a	LTP197	ltpFR	1	3	n/a	ASH	44	0	3	n/a	n/a	n/a	n/a	n/a	n/a
3431248	RECOG_RESP	n/a	LTP197	ltpFR	1	3	n/a	ASH	44	0	n/a	n/a	n/a	n/a	n/a	n/a	n/a
3432395	RECOG_CONF	n/a	LTP197	ltpFR	1	3	n/a	ASH	44	n/a	3	n/a	n/a	n/a	n/a	n/a	n/a
3433907	RECOG_TARGET	n/a	LTP197	ltpFR	1	3	1	VETERAN	1561	1	5	1	n/a	n/a	n/a	n/a	n/a
3434740	RECOG_RESP	n/a	LTP197	ltpFR	1	3	1	VETERAN	1561	1	n/a	1	n/a	n/a	n/a	n/a	n/a
3435774	RECOG_CONF	n/a	LTP197	ltpFR	1	3	1	VETERAN	1561	n/a	5	1	n/a	n/a	n/a	n/a	n/a
3437553	RECOG_LURE	n/a	LTP197	ltpFR	1	3	n/a	JAM	748	0	4	n/a	n/a	n/a	n/a	n/a	n/a
3438544	RECOG_RESP	n/a	LTP197	ltpFR	1	3	n/a	JAM	748	0	n/a	n/a	n/a	n/a	n/a	n/a	n/a
3440359	RECOG_CONF	n/a	LTP197	ltpFR	1	3	n/a	JAM	748	n/a	4	n/a	n/a	n/a	n/a	n/a	n/a
3442204	RECOG_LURE	n/a	LTP197	ltpFR	1	3	n/a	ICE	730	0	4	n/a	n/a	n/a	n/a	n/a	n/a
3443038	RECOG_RESP	n/a	LTP197	ltpFR	1	3	n/a	ICE	730	0	n/a	n/a	n/a	n/a	n/a	n/a	n/a
3443964	RECOG_CONF	n/a	LTP197	ltpFR	1	3	n/a	ICE	730	n/a	4	n/a	n/a	n/a	n/a	n/a	n/a
3445583	RECOG_TARGET	n/a	LTP197	ltpFR	1	3	1	EAGLE	512	1	5	1	n/a	n/a	n/a	n/a	n/a
3446346	RECOG_RESP	n/a	LTP197	ltpFR	1	3	1	EAGLE	512	1	n/a	1	n/a	n/a	n/a	n/a	n/a
3447498	RECOG_CONF	n/a	LTP197	ltpFR	1	3	1	EAGLE	512	n/a	5	1	n/a	n/a	n/a	n/a	n/a
3449264	RECOG_LURE	n/a	LTP197	ltpFR	1	3	n/a	GODDESS	646	0	5	n/a	n/a	n/a	n/a	n/a	n/a
3450219	RECOG_RESP	n/a	LTP197	ltpFR	1	3	n/a	GODDESS	646	0	n/a	n/a	n/a	n/a	n/a	n/a	n/a
3451282	RECOG_CONF	n/a	LTP197	ltpFR	1	3	n/a	GODDESS	646	n/a	5	n/a	n/a	n/a	n/a	n/a	n/a
3453095	RECOG_LURE	n/a	LTP197	ltpFR	1	3	n/a	WOLF	1619	0	4	n/a	n/a	n/a	n/a	n/a	n/a
3454002	RECOG_RESP	n/a	LTP197	ltpFR	1	3	n/a	WOLF	1619	0	n/a	n/a	n/a	n/a	n/a	n/a	n/a
3454983	RECOG_CONF	n/a	LTP197	ltpFR	1	3	n/a	WOLF	1619	n/a	4	n/a	n/a	n/a	n/a	n/a	n/a
3456776	RECOG_TARGET	n/a	LTP197	ltpFR	1	3	0	SYRUP	1425	1	5	0	n/a	n/a	n/a	n/a	n/a
3457688	RECOG_RESP	n/a	LTP197	ltpFR	1	3	0	SYRUP	1425	1	n/a	0	n/a	n/a	n/a	n/a	n/a
3459025	RECOG_CONF	n/a	LTP197	ltpFR	1	3	0	SYRUP	1425	n/a	5	0	n/a	n/a	n/a	n/a	n/a
3460775	RECOG_TARGET	n/a	LTP197	ltpFR	1	3	0	LOUNGE	845	1	2	1	n/a	n/a	n/a	n/a	n/a
3462271	RECOG_RESP	n/a	LTP197	ltpFR	1	3	0	LOUNGE	845	1	n/a	1	n/a	n/a	n/a	n/a	n/a
3463865	RECOG_CONF	n/a	LTP197	ltpFR	1	3	0	LOUNGE	845	n/a	2	1	n/a	n/a	n/a	n/a	n/a
3467902	REC_START	n/a	LTP197	ltpFR	1	4	n/a	n/a	n/a	n/a	n/a	n/a	n/a	n/a	n/a	n/a	n/a
3467951	RECOG_LURE	n/a	LTP197	ltpFR	1	4	n/a	AIRPLANE	12	0	3	n/a	n/a	n/a	n/a	n/a	n/a
3469264	RECOG_RESP	n/a	LTP197	ltpFR	1	4	n/a	AIRPLANE	12	0	n/a	n/a	n/a	n/a	n/a	n/a	n/a
3470493	RECOG_CONF	n/a	LTP197	ltpFR	1	4	n/a	AIRPLANE	12	n/a	3	n/a	n/a	n/a	n/a	n/a	n/a
3471983	RECOG_LURE	n/a	LTP197	ltpFR	1	4	n/a	DONOR	485	0	3	n/a	n/a	n/a	n/a	n/a	n/a
3473248	RECOG_RESP	n/a	LTP197	ltpFR	1	4	n/a	DONOR	485	0	n/a	n/a	n/a	n/a	n/a	n/a	n/a
3474409	RECOG_CONF	n/a	LTP197	ltpFR	1	4	n/a	DONOR	485	n/a	3	n/a	n/a	n/a	n/a	n/a	n/a
3475964	RECOG_TARGET	n/a	LTP197	ltpFR	1	4	0	GROUND	666	1	5	1	n/a	n/a	n/a	n/a	n/a
3476908	RECOG_RESP	n/a	LTP197	ltpFR	1	4	0	GROUND	666	1	n/a	1	n/a	n/a	n/a	n/a	n/a
3477910	RECOG_CONF	n/a	LTP197	ltpFR	1	4	0	GROUND	666	n/a	5	1	n/a	n/a	n/a	n/a	n/a
3479596	RECOG_LURE	n/a	LTP197	ltpFR	1	4	n/a	CUFF	423	0	2	n/a	n/a	n/a	n/a	n/a	n/a
3481039	RECOG_RESP	n/a	LTP197	ltpFR	1	4	n/a	CUFF	423	0	n/a	n/a	n/a	n/a	n/a	n/a	n/a
