mstime	trial_type	stim_file	subject	experiment	session	trial	task	item_name	item_num	recog_resp	recog_conf	resp	answer	test_x	test_y	test_z	color_r	color_g	color_b	case	font
0	SESS_START	n/a	LTP289	ltpFR	13	n/a	n/a	n/a	n/a	0	n/a	n/a	n/a	0	0	0	n/a	n/a	n/a	n/a	n/a
43453	START	n/a	LTP289	ltpFR	13	n/a	n/a	n/a	n/a	n/a	n/a	n/a	n/a	n/a	n/a	n/a	n/a	n/a	n/a	n/a	n/a
43485	PROB	n/a	LTP289	ltpFR	13	n/a	n/a	n/a	n/a	n/a	n/a	n/a	12	1	6	5	n/a	n/a	n/a	n/a	n/a
45233	PROB	n/a	LTP289	ltpFR	13	n/a	n/a	n/a	n/a	n/a	n/a	n/a	16	7	2	7	n/a	n/a	n/a	n/a	n/a
47196	PROB	n/a	LTP289	ltpFR	13	n/a	n/a	n/a	n/a	n/a	n/a	n/a	14	7	3	4	n/a	n/a	n/a	n/a	n/a
48561	PROB	n/a	LTP289	ltpFR	13	n/a	n/a	n/a	n/a	n/a	n/a	n/a	14	9	3	2	n/a	n/a	n/a	n/a	n/a
51240	PROB	n/a	LTP289	ltpFR	13	n/a	n/a	n/a	n/a	n/a	n/a	n/a	15	3	4	8	n/a	n/a	n/a	n/a	n/a
53537	PROB	n/a	LTP289	ltpFR	13	n/a	n/a	n/a	n/a	n/a	n/a	n/a	8	1	2	5	n/a	n/a	n/a	n/a	n/a
55184	PROB	n/a	LTP289	ltpFR	13	n/a	n/a	n/a	n/a	n/a	n/a	n/a	18	5	6	7	n/a	n/a	n/a	n/a	n/a
62268	STOP	n/a	LTP289	ltpFR	13	n/a	n/a	n/a	n/a	n/a	n/a	n/a	n/a	n/a	n/a	n/a	n/a	n/a	n/a	n/a	n/a
140840	WORD	wordpools/wasnorm_wordpool_less_exclusions.txt	LTP289	ltpFR	13	1	1	FOOTBALL	591	n/a	n/a	0	n/a	0	0	0	0.57763671875	0.412841796875	1	upper	zerothre.ttf
144717	WORD	wordpools/wasnorm_wordpool_less_exclusions.txt	LTP289	ltpFR	13	1	1	TEAM	1441	n/a	n/a	1	n/a	0	0	0	0.57763671875	0.412841796875	1	upper	zerothre.ttf
148895	WORD	wordpools/wasnorm_wordpool_less_exclusions.txt	LTP289	ltpFR	13	1	1	BADGE	68	n/a	n/a	0	n/a	0	0	0	0.57763671875	0.412841796875	1	upper	zerothre.ttf
153005	WORD	wordpools/wasnorm_wordpool_less_exclusions.txt	LTP289	ltpFR	13	1	1	PUDDING	1139	n/a	n/a	0	n/a	0	0	0	0.57763671875	0.412841796875	1	upper	zerothre.ttf
156866	WORD	wordpools/wasnorm_wordpool_less_exclusions.txt	LTP289	ltpFR	13	1	1	CORN	381	n/a	n/a	0	n/a	0	0	0	0.57763671875	0.412841796875	1	upper	zerothre.ttf
161060	WORD	wordpools/wasnorm_wordpool_less_exclusions.txt	LTP289	ltpFR	13	1	1	ANIMAL	23	n/a	n/a	1	n/a	0	0	0	0.57763671875	0.412841796875	1	upper	zerothre.ttf
165104	WORD	wordpools/wasnorm_wordpool_less_exclusions.txt	LTP289	ltpFR	13	1	1	CAFETERIA	217	n/a	n/a	0	n/a	0	0	0	0.57763671875	0.412841796875	1	upper	zerothre.ttf
169098	WORD	wordpools/wasnorm_wordpool_less_exclusions.txt	LTP289	ltpFR	13	1	1	CELERY	266	n/a	n/a	0	n/a	0	0	0	0.57763671875	0.412841796875	1	upper	zerothre.ttf
173108	WORD	wordpools/wasnorm_wordpool_less_exclusions.txt	LTP289	ltpFR	13	1	1	MARBLE	867	n/a	n/a	0	n/a	0	0	0	0.57763671875	0.412841796875	1	upper	zerothre.ttf
177003	WORD	wordpools/wasnorm_wordpool_less_exclusions.txt	LTP289	ltpFR	13	1	1	STONE	1385	n/a	n/a	0	n/a	0	0	0	0.57763671875	0.412841796875	1	upper	zerothre.ttf
181063	WORD	wordpools/wasnorm_wordpool_less_exclusions.txt	LTP289	ltpFR	13	1	1	PUPPY	1144	n/a	n/a	1	n/a	0	0	0	0.57763671875	0.412841796875	1	upper	zerothre.ttf
185157	WORD	wordpools/wasnorm_wordpool_less_exclusions.txt	LTP289	ltpFR	13	1	1	FACTORY	548	n/a	n/a	0	n/a	0	0	0	0.57763671875	0.412841796875	1	upper	zerothre.ttf
189234	WORD	wordpools/wasnorm_wordpool_less_exclusions.txt	LTP289	ltpFR	13	1	1	CROCODILE	411	n/a	n/a	1	n/a	0	0	0	0.57763671875	0.412841796875	1	upper	zerothre.ttf
193445	WORD	wordpools/wasnorm_wordpool_less_exclusions.txt	LTP289	ltpFR	13	1	1	ZUCCHINI	1638	n/a	n/a	0	n/a	0	0	0	0.57763671875	0.412841796875	1	upper	zerothre.ttf
197372	WORD	wordpools/wasnorm_wordpool_less_exclusions.txt	LTP289	ltpFR	13	1	1	MONSTER	912	n/a	n/a	0	n/a	0	0	0	0.57763671875	0.412841796875	1	upper	zerothre.ttf
201533	WORD	wordpools/wasnorm_wordpool_less_exclusions.txt	LTP289	ltpFR	13	1	1	DEPUTY	450	n/a	n/a	1	n/a	0	0	0	0.57763671875	0.412841796875	1	upper	zerothre.ttf
204545	START	n/a	LTP289	ltpFR	13	n/a	n/a	n/a	n/a	n/a	n/a	n/a	n/a	n/a	n/a	n/a	n/a	n/a	n/a	n/a	n/a
205543	PROB	n/a	LTP289	ltpFR	13	n/a	n/a	n/a	n/a	n/a	n/a	n/a	20	5	8	7	n/a	n/a	n/a	n/a	n/a
208256	PROB	n/a	LTP289	ltpFR	13	n/a	n/a	n/a	n/a	n/a	n/a	n/a	16	4	5	7	n/a	n/a	n/a	n/a	n/a
209920	PROB	n/a	LTP289	ltpFR	13	n/a	n/a	n/a	n/a	n/a	n/a	n/a	14	6	5	3	n/a	n/a	n/a	n/a	n/a
212356	STOP	n/a	LTP289	ltpFR	13	n/a	n/a	n/a	n/a	n/a	n/a	n/a	n/a	n/a	n/a	n/a	n/a	n/a	n/a	n/a	n/a
214314	REC_START	n/a	LTP289	ltpFR	13	1	n/a	n/a	n/a	n/a	n/a	n/a	n/a	0	0	0	n/a	n/a	n/a	n/a	n/a
216453	REC_WORD	wordpools/wasnorm_wordpool_less_exclusions.txt	LTP289	ltpFR	13	1	1	PUPPY	1144	n/a	n/a	1	n/a	0	0	0	n/a	n/a	n/a	n/a	n/a
217977	REC_WORD	wordpools/wasnorm_wordpool_less_exclusions.txt	LTP289	ltpFR	13	1	1	FACTORY	548	n/a	n/a	0	n/a	0	0	0	n/a	n/a	n/a	n/a	n/a
222564	REC_WORD	wordpools/wasnorm_wordpool_less_exclusions.txt	LTP289	ltpFR	13	1	1	FOOTBALL	591	n/a	n/a	0	n/a	0	0	0	n/a	n/a	n/a	n/a	n/a
224014	REC_WORD	wordpools/wasnorm_wordpool_less_exclusions.txt	LTP289	ltpFR	13	1	1	TEAM	1441	n/a	n/a	1	n/a	0	0	0	n/a	n/a	n/a	n/a	n/a
226143	REC_WORD	wordpools/wasnorm_wordpool_less_exclusions.txt	LTP289	ltpFR	13	1	1	BADGE	68	n/a	n/a	0	n/a	0	0	0	n/a	n/a	n/a	n/a	n/a
227393	REC_WORD	wordpools/wasnorm_wordpool_less_exclusions.txt	LTP289	ltpFR	13	1	1	PUDDING	1139	n/a	n/a	0	n/a	0	0	0	n/a	n/a	n/a	n/a	n/a
228718	REC_WORD	wordpools/wasnorm_wordpool_less_exclusions.txt	LTP289	ltpFR	13	1	1	CORN	381	n/a	n/a	0	n/a	0	0	0	n/a	n/a	n/a	n/a	n/a
232069	REC_WORD	wordpools/wasnorm_wordpool_less_exclusions.txt	LTP289	ltpFR	13	1	1	CAFETERIA	217	n/a	n/a	0	n/a	0	0	0	n/a	n/a	n/a	n/a	n/a
235027	REC_WORD	wordpools/wasnorm_wordpool_less_exclusions.txt	LTP289	ltpFR	13	1	1	MARBLE	867	n/a	n/a	0	n/a	0	0	0	n/a	n/a	n/a	n/a	n/a
239416	REC_WORD	wordpools/wasnorm_wordpool_less_exclusions.txt	LTP289	ltpFR	13	1	1	STONE	1385	n/a	n/a	0	n/a	0	0	0	n/a	n/a	n/a	n/a	n/a
243564	REC_WORD	wordpools/wasnorm_wordpool_less_exclusions.txt	LTP289	ltpFR	13	1	1	CROCODILE	411	n/a	n/a	1	n/a	0	0	0	n/a	n/a	n/a	n/a	n/a
246052	REC_WORD	wordpools/wasnorm_wordpool_less_exclusions.txt	LTP289	ltpFR	13	1	1	DEPUTY	450	n/a	n/a	1	n/a	0	0	0	n/a	n/a	n/a	n/a	n/a
309587	START	n/a	LTP289	ltpFR	13	n/a	n/a	n/a	n/a	n/a	n/a	n/a	n/a	n/a	n/a	n/a	n/a	n/a	n/a	n/a	n/a
311102	PROB	n/a	LTP289	ltpFR	13	n/a	n/a	n/a	n/a	n/a	n/a	n/a	15	6	6	3	n/a	n/a	n/a	n/a	n/a
312933	PROB	n/a	LTP289	ltpFR	13	n/a	n/a	n/a	n/a	n/a	n/a	n/a	9	3	3	3	n/a	n/a	n/a	n/a	n/a
314414	PROB	n/a	LTP289	ltpFR	13	n/a	n/a	n/a	n/a	n/a	n/a	n/a	12	6	4	2	n/a	n/a	n/a	n/a	n/a
316036	STOP	n/a	LTP289	ltpFR	13	n/a	n/a	n/a	n/a	n/a	n/a	n/a	n/a	n/a	n/a	n/a	n/a	n/a	n/a	n/a	n/a
318774	WORD	wordpools/wasnorm_wordpool_less_exclusions.txt	LTP289	ltpFR	13	2	0	RAM	1165	n/a	n/a	1	n/a	0	0	0	0.422607421875	0.5869140625	0	lower	amplitud.ttf
321787	START	n/a	LTP289	ltpFR	13	n/a	n/a	n/a	n/a	n/a	n/a	n/a	n/a	n/a	n/a	n/a	n/a	n/a	n/a	n/a	n/a
322802	PROB	n/a	LTP289	ltpFR	13	n/a	n/a	n/a	n/a	n/a	n/a	n/a	15	4	2	7	n/a	n/a	n/a	n/a	n/a
325032	PROB	n/a	LTP289	ltpFR	13	n/a	n/a	n/a	n/a	n/a	n/a	n/a	15	5	2	8	n/a	n/a	n/a	n/a	n/a
328556	STOP	n/a	LTP289	ltpFR	13	n/a	n/a	n/a	n/a	n/a	n/a	n/a	n/a	n/a	n/a	n/a	n/a	n/a	n/a	n/a	n/a
330756	WORD	wordpools/wasnorm_wordpool_less_exclusions.txt	LTP289	ltpFR	13	2	0	OINTMENT	974	n/a	n/a	0	n/a	0	0	0	0.422607421875	0.5869140625	0	lower	amplitud.ttf
333769	START	n/a	LTP289	ltpFR	13	n/a	n/a	n/a	n/a	n/a	n/a	n/a	n/a	n/a	n/a	n/a	n/a	n/a	n/a	n/a	n/a
334650	PROB	n/a	LTP289	ltpFR	13	n/a	n/a	n/a	n/a	n/a	n/a	n/a	19	9	5	5	n/a	n/a	n/a	n/a	n/a
336165	PROB	n/a	LTP289	ltpFR	13	n/a	n/a	n/a	n/a	n/a	n/a	n/a	18	8	3	7	n/a	n/a	n/a	n/a	n/a
337962	PROB	n/a	LTP289	ltpFR	13	n/a	n/a	n/a	n/a	n/a	n/a	n/a	13	5	3	5	n/a	n/a	n/a	n/a	n/a
339294	PROB	n/a	LTP289	ltpFR	13	n/a	n/a	n/a	n/a	n/a	n/a	n/a	13	3	7	7	n/a	n/a	n/a	n/a	n/a
340748	STOP	n/a	LTP289	ltpFR	13	n/a	n/a	n/a	n/a	n/a	n/a	n/a	n/a	n/a	n/a	n/a	n/a	n/a	n/a	n/a	n/a
342838	WORD	wordpools/wasnorm_wordpool_less_exclusions.txt	LTP289	ltpFR	13	2	0	SHEARS	1276	n/a	n/a	0	n/a	0	0	0	0.422607421875	0.5869140625	0	lower	amplitud.ttf
345851	START	n/a	LTP289	ltpFR	13	n/a	n/a	n/a	n/a	n/a	n/a	n/a	n/a	n/a	n/a	n/a	n/a	n/a	n/a	n/a	n/a
346733	PROB	n/a	LTP289	ltpFR	13	n/a	n/a	n/a	n/a	n/a	n/a	n/a	16	4	7	5	n/a	n/a	n/a	n/a	n/a
350227	PROB	n/a	LTP289	ltpFR	13	n/a	n/a	n/a	n/a	n/a	n/a	n/a	16	8	2	6	n/a	n/a	n/a	n/a	n/a
353851	STOP	n/a	LTP289	ltpFR	13	n/a	n/a	n/a	n/a	n/a	n/a	n/a	n/a	n/a	n/a	n/a	n/a	n/a	n/a	n/a	n/a
354703	WORD	wordpools/wasnorm_wordpool_less_exclusions.txt	LTP289	ltpFR	13	2	0	ORCHID	982	n/a	n/a	0	n/a	0	0	0	0.422607421875	0.5869140625	0	lower	amplitud.ttf
357717	START	n/a	LTP289	ltpFR	13	n/a	n/a	n/a	n/a	n/a	n/a	n/a	n/a	n/a	n/a	n/a	n/a	n/a	n/a	n/a	n/a
358581	PROB	n/a	LTP289	ltpFR	13	n/a	n/a	n/a	n/a	n/a	n/a	n/a	19	5	7	7	n/a	n/a	n/a	n/a	n/a
360795	PROB	n/a	LTP289	ltpFR	13	n/a	n/a	n/a	n/a	n/a	n/a	n/a	13	5	1	7	n/a	n/a	n/a	n/a	n/a
363424	PROB	n/a	LTP289	ltpFR	13	n/a	n/a	n/a	n/a	n/a	n/a	n/a	15	4	9	2	n/a	n/a	n/a	n/a	n/a
365332	STOP	n/a	LTP289	ltpFR	13	n/a	n/a	n/a	n/a	n/a	n/a	n/a	n/a	n/a	n/a	n/a	n/a	n/a	n/a	n/a	n/a
366536	WORD	wordpools/wasnorm_wordpool_less_exclusions.txt	LTP289	ltpFR	13	2	1	OX	994	n/a	n/a	1	n/a	0	0	0	0.57763671875	0.412841796875	1	upper	zerothre.ttf
369549	START	n/a	LTP289	ltpFR	13	n/a	n/a	n/a	n/a	n/a	n/a	n/a	n/a	n/a	n/a	n/a	n/a	n/a	n/a	n/a	n/a
370629	PROB	n/a	LTP289	ltpFR	13	n/a	n/a	n/a	n/a	n/a	n/a	n/a	20	7	9	4	n/a	n/a	n/a	n/a	n/a
373875	PROB	n/a	LTP289	ltpFR	13	n/a	n/a	n/a	n/a	n/a	n/a	n/a	17	7	5	5	n/a	n/a	n/a	n/a	n/a
375173	PROB	n/a	LTP289	ltpFR	13	n/a	n/a	n/a	n/a	n/a	n/a	n/a	20	9	4	7	n/a	n/a	n/a	n/a	n/a
377380	STOP	n/a	LTP289	ltpFR	13	n/a	n/a	n/a	n/a	n/a	n/a	n/a	n/a	n/a	n/a	n/a	n/a	n/a	n/a	n/a	n/a
378735	WORD	wordpools/wasnorm_wordpool_less_exclusions.txt	LTP289	ltpFR	13	2	1	PORPOISE	1109	n/a	n/a	1	n/a	0	0	0	0.57763671875	0.412841796875	1	upper	zerothre.ttf
381747	START	n/a	LTP289	ltpFR	13	n/a	n/a	n/a	n/a	n/a	n/a	n/a	n/a	n/a	n/a	n/a	n/a	n/a	n/a	n/a	n/a
382912	PROB	n/a	LTP289	ltpFR	13	n/a	n/a	n/a	n/a	n/a	n/a	n/a	14	4	1	9	n/a	n/a	n/a	n/a	n/a
384426	PROB	n/a	LTP289	ltpFR	13	n/a	n/a	n/a	n/a	n/a	n/a	n/a	14	5	6	3	n/a	n/a	n/a	n/a	n/a
389747	STOP	n/a	LTP289	ltpFR	13	n/a	n/a	n/a	n/a	n/a	n/a	n/a	n/a	n/a	n/a	n/a	n/a	n/a	n/a	n/a	n/a
390950	WORD	wordpools/wasnorm_wordpool_less_exclusions.txt	LTP289	ltpFR	13	2	1	TURNIP	1521	n/a	n/a	0	n/a	0	0	0	0.57763671875	0.412841796875	1	upper	zerothre.ttf
393962	START	n/a	LTP289	ltpFR	13	n/a	n/a	n/a	n/a	n/a	n/a	n/a	n/a	n/a	n/a	n/a	n/a	n/a	n/a	n/a	n/a
394961	PROB	n/a	LTP289	ltpFR	13	n/a	n/a	n/a	n/a	n/a	n/a	n/a	15	1	5	9	n/a	n/a	n/a	n/a	n/a
396342	PROB	n/a	LTP289	ltpFR	13	n/a	n/a	n/a	n/a	n/a	n/a	n/a	16	7	3	6	n/a	n/a	n/a	n/a	n/a
397939	PROB	n/a	LTP289	ltpFR	13	n/a	n/a	n/a	n/a	n/a	n/a	n/a	16	8	3	5	n/a	n/a	n/a	n/a	n/a
400579	STOP	n/a	LTP289	ltpFR	13	n/a	n/a	n/a	n/a	n/a	n/a	n/a	n/a	n/a	n/a	n/a	n/a	n/a	n/a	n/a	n/a
403115	WORD	wordpools/wasnorm_wordpool_less_exclusions.txt	LTP289	ltpFR	13	2	1	FISH	571	n/a	n/a	1	n/a	0	0	0	0.57763671875	0.412841796875	1	upper	zerothre.ttf
406128	START	n/a	LTP289	ltpFR	13	n/a	n/a	n/a	n/a	n/a	n/a	n/a	n/a	n/a	n/a	n/a	n/a	n/a	n/a	n/a	n/a
406993	PROB	n/a	LTP289	ltpFR	13	n/a	n/a	n/a	n/a	n/a	n/a	n/a	9	3	4	2	n/a	n/a	n/a	n/a	n/a
408940	PROB	n/a	LTP289	ltpFR	13	n/a	n/a	n/a	n/a	n/a	n/a	n/a	16	7	6	3	n/a	n/a	n/a	n/a	n/a
410171	PROB	n/a	LTP289	ltpFR	13	n/a	n/a	n/a	n/a	n/a	n/a	n/a	16	3	8	5	n/a	n/a	n/a	n/a	n/a
414128	STOP	n/a	LTP289	ltpFR	13	n/a	n/a	n/a	n/a	n/a	n/a	n/a	n/a	n/a	n/a	n/a	n/a	n/a	n/a	n/a	n/a
415097	WORD	wordpools/wasnorm_wordpool_less_exclusions.txt	LTP289	ltpFR	13	2	1	ATHLETE	52	n/a	n/a	1	n/a	0	0	0	0.57763671875	0.412841796875	1	upper	zerothre.ttf
418110	START	n/a	LTP289	ltpFR	13	n/a	n/a	n/a	n/a	n/a	n/a	n/a	n/a	n/a	n/a	n/a	n/a	n/a	n/a	n/a	n/a
419074	PROB	n/a	LTP289	ltpFR	13	n/a	n/a	n/a	n/a	n/a	n/a	n/a	19	7	3	9	n/a	n/a	n/a	n/a	n/a
420506	PROB	n/a	LTP289	ltpFR	13	n/a	n/a	n/a	n/a	n/a	n/a	n/a	14	4	4	6	n/a	n/a	n/a	n/a	n/a
422137	PROB	n/a	LTP289	ltpFR	13	n/a	n/a	n/a	n/a	n/a	n/a	n/a	9	3	2	4	n/a	n/a	n/a	n/a	n/a
424708	STOP	n/a	LTP289	ltpFR	13	n/a	n/a	n/a	n/a	n/a	n/a	n/a	n/a	n/a	n/a	n/a	n/a	n/a	n/a	n/a	n/a
426996	WORD	wordpools/wasnorm_wordpool_less_exclusions.txt	LTP289	ltpFR	13	2	0	BASEBALL	93	n/a	n/a	0	n/a	0	0	0	0.422607421875	0.5869140625	0	lower	amplitud.ttf
430009	START	n/a	LTP289	ltpFR	13	n/a	n/a	n/a	n/a	n/a	n/a	n/a	n/a	n/a	n/a	n/a	n/a	n/a	n/a	n/a	n/a
430874	PROB	n/a	LTP289	ltpFR	13	n/a	n/a	n/a	n/a	n/a	n/a	n/a	14	1	7	6	n/a	n/a	n/a	n/a	n/a
433020	PROB	n/a	LTP289	ltpFR	13	n/a	n/a	n/a	n/a	n/a	n/a	n/a	16	6	2	8	n/a	n/a	n/a	n/a	n/a
434818	PROB	n/a	LTP289	ltpFR	13	n/a	n/a	n/a	n/a	n/a	n/a	n/a	14	5	1	8	n/a	n/a	n/a	n/a	n/a
436804	STOP	n/a	LTP289	ltpFR	13	n/a	n/a	n/a	n/a	n/a	n/a	n/a	n/a	n/a	n/a	n/a	n/a	n/a	n/a	n/a	n/a
439178	WORD	wordpools/wasnorm_wordpool_less_exclusions.txt	LTP289	ltpFR	13	2	0	PATIO	1025	n/a	n/a	1	n/a	0	0	0	0.422607421875	0.5869140625	0	lower	amplitud.ttf
442190	START	n/a	LTP289	ltpFR	13	n/a	n/a	n/a	n/a	n/a	n/a	n/a	n/a	n/a	n/a	n/a	n/a	n/a	n/a	n/a	n/a
443055	PROB	n/a	LTP289	ltpFR	13	n/a	n/a	n/a	n/a	n/a	n/a	n/a	21	8	8	5	n/a	n/a	n/a	n/a	n/a
444969	PROB	n/a	LTP289	ltpFR	13	n/a	n/a	n/a	n/a	n/a	n/a	n/a	13	4	6	3	n/a	n/a	n/a	n/a	n/a
446567	PROB	n/a	LTP289	ltpFR	13	n/a	n/a	n/a	n/a	n/a	n/a	n/a	15	6	6	3	n/a	n/a	n/a	n/a	n/a
450190	STOP	n/a	LTP289	ltpFR	13	n/a	n/a	n/a	n/a	n/a	n/a	n/a	n/a	n/a	n/a	n/a	n/a	n/a	n/a	n/a	n/a
451110	WORD	wordpools/wasnorm_wordpool_less_exclusions.txt	LTP289	ltpFR	13	2	0	COWBOY	395	n/a	n/a	1	n/a	0	0	0	0.422607421875	0.5869140625	0	lower	amplitud.ttf
454123	START	n/a	LTP289	ltpFR	13	n/a	n/a	n/a	n/a	n/a	n/a	n/a	n/a	n/a	n/a	n/a	n/a	n/a	n/a	n/a	n/a
455038	PROB	n/a	LTP289	ltpFR	13	n/a	n/a	n/a	n/a	n/a	n/a	n/a	16	5	3	8	n/a	n/a	n/a	n/a	n/a
456617	PROB	n/a	LTP289	ltpFR	13	n/a	n/a	n/a	n/a	n/a	n/a	n/a	17	9	1	7	n/a	n/a	n/a	n/a	n/a
458016	PROB	n/a	LTP289	ltpFR	13	n/a	n/a	n/a	n/a	n/a	n/a	n/a	15	9	4	2	n/a	n/a	n/a	n/a	n/a
459680	PROB	n/a	LTP289	ltpFR	13	n/a	n/a	n/a	n/a	n/a	n/a	n/a	14	1	6	7	n/a	n/a	n/a	n/a	n/a
461532	STOP	n/a	LTP289	ltpFR	13	n/a	n/a	n/a	n/a	n/a	n/a	n/a	n/a	n/a	n/a	n/a	n/a	n/a	n/a	n/a	n/a
463175	WORD	wordpools/wasnorm_wordpool_less_exclusions.txt	LTP289	ltpFR	13	2	0	BAY	102	n/a	n/a	1	n/a	0	0	0	0.422607421875	0.5869140625	0	lower	amplitud.ttf
466188	START	n/a	LTP289	ltpFR	13	n/a	n/a	n/a	n/a	n/a	n/a	n/a	n/a	n/a	n/a	n/a	n/a	n/a	n/a	n/a	n/a
467003	PROB	n/a	LTP289	ltpFR	13	n/a	n/a	n/a	n/a	n/a	n/a	n/a	20	5	9	6	n/a	n/a	n/a	n/a	n/a
469449	PROB	n/a	LTP289	ltpFR	13	n/a	n/a	n/a	n/a	n/a	n/a	n/a	19	8	2	9	n/a	n/a	n/a	n/a	n/a
470797	PROB	n/a	LTP289	ltpFR	13	n/a	n/a	n/a	n/a	n/a	n/a	n/a	20	9	3	8	n/a	n/a	n/a	n/a	n/a
473651	STOP	n/a	LTP289	ltpFR	13	n/a	n/a	n/a	n/a	n/a	n/a	n/a	n/a	n/a	n/a	n/a	n/a	n/a	n/a	n/a	n/a
475191	WORD	wordpools/wasnorm_wordpool_less_exclusions.txt	LTP289	ltpFR	13	2	1	BOOT	150	n/a	n/a	0	n/a	0	0	0	0.57763671875	0.412841796875	1	upper	zerothre.ttf
478203	START	n/a	LTP289	ltpFR	13	n/a	n/a	n/a	n/a	n/a	n/a	n/a	n/a	n/a	n/a	n/a	n/a	n/a	n/a	n/a	n/a
479301	PROB	n/a	LTP289	ltpFR	13	n/a	n/a	n/a	n/a	n/a	n/a	n/a	14	1	8	5	n/a	n/a	n/a	n/a	n/a
481315	PROB	n/a	LTP289	ltpFR	13	n/a	n/a	n/a	n/a	n/a	n/a	n/a	20	9	5	6	n/a	n/a	n/a	n/a	n/a
483512	PROB	n/a	LTP289	ltpFR	13	n/a	n/a	n/a	n/a	n/a	n/a	n/a	11	5	4	2	n/a	n/a	n/a	n/a	n/a
485508	STOP	n/a	LTP289	ltpFR	13	n/a	n/a	n/a	n/a	n/a	n/a	n/a	n/a	n/a	n/a	n/a	n/a	n/a	n/a	n/a	n/a
487389	WORD	wordpools/wasnorm_wordpool_less_exclusions.txt	LTP289	ltpFR	13	2	1	PUMPKIN	1142	n/a	n/a	0	n/a	0	0	0	0.57763671875	0.412841796875	1	upper	zerothre.ttf
490402	START	n/a	LTP289	ltpFR	13	n/a	n/a	n/a	n/a	n/a	n/a	n/a	n/a	n/a	n/a	n/a	n/a	n/a	n/a	n/a	n/a
491433	PROB	n/a	LTP289	ltpFR	13	n/a	n/a	n/a	n/a	n/a	n/a	n/a	12	3	7	2	n/a	n/a	n/a	n/a	n/a
492697	PROB	n/a	LTP289	ltpFR	13	n/a	n/a	n/a	n/a	n/a	n/a	n/a	5	2	1	2	n/a	n/a	n/a	n/a	n/a
494196	PROB	n/a	LTP289	ltpFR	13	n/a	n/a	n/a	n/a	n/a	n/a	n/a	19	2	9	8	n/a	n/a	n/a	n/a	n/a
498402	STOP	n/a	LTP289	ltpFR	13	n/a	n/a	n/a	n/a	n/a	n/a	n/a	n/a	n/a	n/a	n/a	n/a	n/a	n/a	n/a	n/a
499587	WORD	wordpools/wasnorm_wordpool_less_exclusions.txt	LTP289	ltpFR	13	2	1	RASPBERRY	1168	n/a	n/a	0	n/a	0	0	0	0.57763671875	0.412841796875	1	upper	zerothre.ttf
502599	START	n/a	LTP289	ltpFR	13	n/a	n/a	n/a	n/a	n/a	n/a	n/a	n/a	n/a	n/a	n/a	n/a	n/a	n/a	n/a	n/a
503499	PROB	n/a	LTP289	ltpFR	13	n/a	n/a	n/a	n/a	n/a	n/a	n/a	15	2	7	6	n/a	n/a	n/a	n/a	n/a
505412	PROB	n/a	LTP289	ltpFR	13	n/a	n/a	n/a	n/a	n/a	n/a	n/a	10	1	1	8	n/a	n/a	n/a	n/a	n/a
506893	PROB	n/a	LTP289	ltpFR	13	n/a	n/a	n/a	n/a	n/a	n/a	n/a	17	4	6	7	n/a	n/a	n/a	n/a	n/a
510598	STOP	n/a	LTP289	ltpFR	13	n/a	n/a	n/a	n/a	n/a	n/a	n/a	n/a	n/a	n/a	n/a	n/a	n/a	n/a	n/a	n/a
512402	REC_START	n/a	LTP289	ltpFR	13	2	n/a	n/a	n/a	n/a	n/a	n/a	n/a	0	0	0	n/a	n/a	n/a	n/a	n/a
513825	REC_WORD	wordpools/wasnorm_wordpool_less_exclusions.txt	LTP289	ltpFR	13	2	1	PUMPKIN	1142	n/a	n/a	0	n/a	0	0	0	n/a	n/a	n/a	n/a	n/a
514896	REC_WORD	wordpools/wasnorm_wordpool_less_exclusions.txt	LTP289	ltpFR	13	2	1	RASPBERRY	1168	n/a	n/a	0	n/a	0	0	0	n/a	n/a	n/a	n/a	n/a
518518	REC_WORD	wordpools/wasnorm_wordpool_less_exclusions.txt	LTP289	ltpFR	13	2	1	FISH	571	n/a	n/a	1	n/a	0	0	0	n/a	n/a	n/a	n/a	n/a
520418	REC_WORD	wordpools/wasnorm_wordpool_less_exclusions.txt	LTP289	ltpFR	13	2	1	PORPOISE	1109	n/a	n/a	1	n/a	0	0	0	n/a	n/a	n/a	n/a	n/a
523015	REC_WORD	wordpools/wasnorm_wordpool_less_exclusions.txt	LTP289	ltpFR	13	2	1	ATHLETE	52	n/a	n/a	1	n/a	0	0	0	n/a	n/a	n/a	n/a	n/a
524186	REC_WORD	wordpools/wasnorm_wordpool_less_exclusions.txt	LTP289	ltpFR	13	2	0	PATIO	1025	n/a	n/a	1	n/a	0	0	0	n/a	n/a	n/a	n/a	n/a
527642	REC_WORD	wordpools/wasnorm_wordpool_less_exclusions.txt	LTP289	ltpFR	13	2	0	OINTMENT	974	n/a	n/a	0	n/a	0	0	0	n/a	n/a	n/a	n/a	n/a
528732	REC_WORD	wordpools/wasnorm_wordpool_less_exclusions.txt	LTP289	ltpFR	13	2	0	ORCHID	982	n/a	n/a	0	n/a	0	0	0	n/a	n/a	n/a	n/a	n/a
530092	REC_WORD	wordpools/wasnorm_wordpool_less_exclusions.txt	LTP289	ltpFR	13	2	0	RAM	1165	n/a	n/a	1	n/a	0	0	0	n/a	n/a	n/a	n/a	n/a
531213	REC_WORD	wordpools/wasnorm_wordpool_less_exclusions.txt	LTP289	ltpFR	13	2	0	SHEARS	1276	n/a	n/a	0	n/a	0	0	0	n/a	n/a	n/a	n/a	n/a
540317	REC_WORD	wordpools/wasnorm_wordpool_less_exclusions.txt	LTP289	ltpFR	13	2	1	TURNIP	1521	n/a	n/a	0	n/a	0	0	0	n/a	n/a	n/a	n/a	n/a
563058	REC_WORD	wordpools/wasnorm_wordpool_less_exclusions.txt	LTP289	ltpFR	13	2	1	OX	994	n/a	n/a	1	n/a	0	0	0	n/a	n/a	n/a	n/a	n/a
624035	WORD	wordpools/wasnorm_wordpool_less_exclusions.txt	LTP289	ltpFR	13	3	0	ROD	1203	n/a	n/a	0	n/a	0	0	0	0.422607421875	0.5869140625	0	lower	amplitud.ttf
628212	WORD	wordpools/wasnorm_wordpool_less_exclusions.txt	LTP289	ltpFR	13	3	0	CAPITAL	238	n/a	n/a	1	n/a	0	0	0	0.422607421875	0.5869140625	0	lower	amplitud.ttf
632306	WORD	wordpools/wasnorm_wordpool_less_exclusions.txt	LTP289	ltpFR	13	3	0	CHESS	294	n/a	n/a	0	n/a	0	0	0	0.422607421875	0.5869140625	0	lower	amplitud.ttf
636284	WORD	wordpools/wasnorm_wordpool_less_exclusions.txt	LTP289	ltpFR	13	3	0	FLASK	576	n/a	n/a	0	n/a	0	0	0	0.422607421875	0.5869140625	0	lower	amplitud.ttf
640494	WORD	wordpools/wasnorm_wordpool_less_exclusions.txt	LTP289	ltpFR	13	3	0	KEEPER	769	n/a	n/a	1	n/a	0	0	0	0.422607421875	0.5869140625	0	lower	amplitud.ttf
644521	WORD	wordpools/wasnorm_wordpool_less_exclusions.txt	LTP289	ltpFR	13	3	0	DRINK	498	n/a	n/a	0	n/a	0	0	0	0.422607421875	0.5869140625	0	lower	amplitud.ttf
648581	WORD	wordpools/wasnorm_wordpool_less_exclusions.txt	LTP289	ltpFR	13	3	0	CHAMPAGNE	278	n/a	n/a	0	n/a	0	0	0	0.422607421875	0.5869140625	0	lower	amplitud.ttf
652410	WORD	wordpools/wasnorm_wordpool_less_exclusions.txt	LTP289	ltpFR	13	3	0	PRINCE	1124	n/a	n/a	1	n/a	0	0	0	0.422607421875	0.5869140625	0	lower	amplitud.ttf
656437	WORD	wordpools/wasnorm_wordpool_less_exclusions.txt	LTP289	ltpFR	13	3	0	SKYSCRAPER	1322	n/a	n/a	1	n/a	0	0	0	0.422607421875	0.5869140625	0	lower	amplitud.ttf
660298	WORD	wordpools/wasnorm_wordpool_less_exclusions.txt	LTP289	ltpFR	13	3	0	VOLLEYBALL	1576	n/a	n/a	1	n/a	0	0	0	0.422607421875	0.5869140625	0	lower	amplitud.ttf
664508	WORD	wordpools/wasnorm_wordpool_less_exclusions.txt	LTP289	ltpFR	13	3	0	WORLD	1622	n/a	n/a	1	n/a	0	0	0	0.422607421875	0.5869140625	0	lower	amplitud.ttf
668436	WORD	wordpools/wasnorm_wordpool_less_exclusions.txt	LTP289	ltpFR	13	3	0	ONION	977	n/a	n/a	0	n/a	0	0	0	0.422607421875	0.5869140625	0	lower	amplitud.ttf
672280	WORD	wordpools/wasnorm_wordpool_less_exclusions.txt	LTP289	ltpFR	13	3	0	PERFUME	1049	n/a	n/a	0	n/a	0	0	0	0.422607421875	0.5869140625	0	lower	amplitud.ttf
676290	WORD	wordpools/wasnorm_wordpool_less_exclusions.txt	LTP289	ltpFR	13	3	0	ATLAS	53	n/a	n/a	1	n/a	0	0	0	0.422607421875	0.5869140625	0	lower	amplitud.ttf
680434	WORD	wordpools/wasnorm_wordpool_less_exclusions.txt	LTP289	ltpFR	13	3	0	MOOSE	915	n/a	n/a	1	n/a	0	0	0	0.422607421875	0.5869140625	0	lower	amplitud.ttf
684412	WORD	wordpools/wasnorm_wordpool_less_exclusions.txt	LTP289	ltpFR	13	3	0	TUSK	1523	n/a	n/a	0	n/a	0	0	0	0.422607421875	0.5869140625	0	lower	amplitud.ttf
690087	REC_START	n/a	LTP289	ltpFR	13	3	n/a	n/a	n/a	n/a	n/a	n/a	n/a	0	0	0	n/a	n/a	n/a	n/a	n/a
692149	REC_WORD	wordpools/wasnorm_wordpool_less_exclusions.txt	LTP289	ltpFR	13	3	0	ROD	1203	n/a	n/a	0	n/a	0	0	0	n/a	n/a	n/a	n/a	n/a
693444	REC_WORD	wordpools/wasnorm_wordpool_less_exclusions.txt	LTP289	ltpFR	13	3	0	FLASK	576	n/a	n/a	0	n/a	0	0	0	n/a	n/a	n/a	n/a	n/a
694569	REC_WORD	wordpools/wasnorm_wordpool_less_exclusions.txt	LTP289	ltpFR	13	3	0	CHAMPAGNE	278	n/a	n/a	0	n/a	0	0	0	n/a	n/a	n/a	n/a	n/a
696367	REC_WORD	wordpools/wasnorm_wordpool_less_exclusions.txt	LTP289	ltpFR	13	3	0	KEEPER	769	n/a	n/a	1	n/a	0	0	0	n/a	n/a	n/a	n/a	n/a
698554	REC_WORD	wordpools/wasnorm_wordpool_less_exclusions.txt	LTP289	ltpFR	13	3	0	TUSK	1523	n/a	n/a	0	n/a	0	0	0	n/a	n/a	n/a	n/a	n/a
699670	REC_WORD	wordpools/wasnorm_wordpool_less_exclusions.txt	LTP289	ltpFR	13	3	0	ATLAS	53	n/a	n/a	1	n/a	0	0	0	n/a	n/a	n/a	n/a	n/a
700935	REC_WORD	wordpools/wasnorm_wordpool_less_exclusions.txt	LTP289	ltpFR	13	3	0	WORLD	1622	n/a	n/a	1	n/a	0	0	0	n/a	n/a	n/a	n/a	n/a
732057	REC_WORD	wordpools/wasnorm_wordpool_less_exclusions.txt	LTP289	ltpFR	13	3	0	VOLLEYBALL	1576	n/a	n/a	1	n/a	0	0	0	n/a	n/a	n/a	n/a	n/a
793681	WORD	wordpools/wasnorm_wordpool_less_exclusions.txt	LTP289	ltpFR	13	4	1	BEAD	103	n/a	n/a	0	n/a	0	0	0	0.57763671875	0.412841796875	1	upper	zerothre.ttf
797809	WORD	wordpools/wasnorm_wordpool_less_exclusions.txt	LTP289	ltpFR	13	4	1	BOX	159	n/a	n/a	0	n/a	0	0	0	0.57763671875	0.412841796875	1	upper	zerothre.ttf
801853	WORD	wordpools/wasnorm_wordpool_less_exclusions.txt	LTP289	ltpFR	13	4	0	MOSS	918	n/a	n/a	0	n/a	0	0	0	0.422607421875	0.5869140625	0	lower	amplitud.ttf
805814	WORD	wordpools/wasnorm_wordpool_less_exclusions.txt	LTP289	ltpFR	13	4	0	BUSH	202	n/a	n/a	1	n/a	0	0	0	0.422607421875	0.5869140625	0	lower	amplitud.ttf
809958	WORD	wordpools/wasnorm_wordpool_less_exclusions.txt	LTP289	ltpFR	13	4	0	HOUSE	725	n/a	n/a	1	n/a	0	0	0	0.422607421875	0.5869140625	0	lower	amplitud.ttf
813835	WORD	wordpools/wasnorm_wordpool_less_exclusions.txt	LTP289	ltpFR	13	4	1	SNACK	1331	n/a	n/a	0	n/a	0	0	0	0.57763671875	0.412841796875	1	upper	zerothre.ttf
817713	WORD	wordpools/wasnorm_wordpool_less_exclusions.txt	LTP289	ltpFR	13	4	1	DESSERT	453	n/a	n/a	0	n/a	0	0	0	0.57763671875	0.412841796875	1	upper	zerothre.ttf
821639	WORD	wordpools/wasnorm_wordpool_less_exclusions.txt	LTP289	ltpFR	13	4	1	PICTURE	1061	n/a	n/a	0	n/a	0	0	0	0.57763671875	0.412841796875	1	upper	zerothre.ttf
825534	WORD	wordpools/wasnorm_wordpool_less_exclusions.txt	LTP289	ltpFR	13	4	1	SPARROW	1347	n/a	n/a	1	n/a	0	0	0	0.57763671875	0.412841796875	1	upper	zerothre.ttf
829362	WORD	wordpools/wasnorm_wordpool_less_exclusions.txt	LTP289	ltpFR	13	4	1	GOOSE	649	n/a	n/a	1	n/a	0	0	0	0.57763671875	0.412841796875	1	upper	zerothre.ttf
833571	WORD	wordpools/wasnorm_wordpool_less_exclusions.txt	LTP289	ltpFR	13	4	1	CANVAS	234	n/a	n/a	0	n/a	0	0	0	0.57763671875	0.412841796875	1	upper	zerothre.ttf
837733	WORD	wordpools/wasnorm_wordpool_less_exclusions.txt	LTP289	ltpFR	13	4	0	PENGUIN	1044	n/a	n/a	1	n/a	0	0	0	0.422607421875	0.5869140625	0	lower	amplitud.ttf
841743	WORD	wordpools/wasnorm_wordpool_less_exclusions.txt	LTP289	ltpFR	13	4	0	TENT	1449	n/a	n/a	1	n/a	0	0	0	0.422607421875	0.5869140625	0	lower	amplitud.ttf
845921	WORD	wordpools/wasnorm_wordpool_less_exclusions.txt	LTP289	ltpFR	13	4	0	FUGITIVE	612	n/a	n/a	1	n/a	0	0	0	0.422607421875	0.5869140625	0	lower	amplitud.ttf
849865	WORD	wordpools/wasnorm_wordpool_less_exclusions.txt	LTP289	ltpFR	13	4	0	BISON	131	n/a	n/a	1	n/a	0	0	0	0.422607421875	0.5869140625	0	lower	amplitud.ttf
853942	WORD	wordpools/wasnorm_wordpool_less_exclusions.txt	LTP289	ltpFR	13	4	0	FIELD	562	n/a	n/a	1	n/a	0	0	0	0.422607421875	0.5869140625	0	lower	amplitud.ttf
856954	START	n/a	LTP289	ltpFR	13	n/a	n/a	n/a	n/a	n/a	n/a	n/a	n/a	n/a	n/a	n/a	n/a	n/a	n/a	n/a	n/a
857819	PROB	n/a	LTP289	ltpFR	13	n/a	n/a	n/a	n/a	n/a	n/a	n/a	15	3	4	8	n/a	n/a	n/a	n/a	n/a
859866	PROB	n/a	LTP289	ltpFR	13	n/a	n/a	n/a	n/a	n/a	n/a	n/a	15	6	6	3	n/a	n/a	n/a	n/a	n/a
861397	PROB	n/a	LTP289	ltpFR	13	n/a	n/a	n/a	n/a	n/a	n/a	n/a	20	4	7	9	n/a	n/a	n/a	n/a	n/a
863540	STOP	n/a	LTP289	ltpFR	13	n/a	n/a	n/a	n/a	n/a	n/a	n/a	n/a	n/a	n/a	n/a	n/a	n/a	n/a	n/a	n/a
866890	REC_START	n/a	LTP289	ltpFR	13	4	n/a	n/a	n/a	n/a	n/a	n/a	n/a	0	0	0	n/a	n/a	n/a	n/a	n/a
868305	REC_WORD	wordpools/wasnorm_wordpool_less_exclusions.txt	LTP289	ltpFR	13	4	0	FUGITIVE	612	n/a	n/a	1	n/a	0	0	0	n/a	n/a	n/a	n/a	n/a
869478	REC_WORD	wordpools/wasnorm_wordpool_less_exclusions.txt	LTP289	ltpFR	13	4	0	BISON	131	n/a	n/a	1	n/a	0	0	0	n/a	n/a	n/a	n/a	n/a
870570	REC_WORD	wordpools/wasnorm_wordpool_less_exclusions.txt	LTP289	ltpFR	13	4	0	PENGUIN	1044	n/a	n/a	1	n/a	0	0	0	n/a	n/a	n/a	n/a	n/a
872039	REC_WORD	wordpools/wasnorm_wordpool_less_exclusions.txt	LTP289	ltpFR	13	4	1	CANVAS	234	n/a	n/a	0	n/a	0	0	0	n/a	n/a	n/a	n/a	n/a
874442	REC_WORD	wordpools/wasnorm_wordpool_less_exclusions.txt	LTP289	ltpFR	13	4	0	TENT	1449	n/a	n/a	1	n/a	0	0	0	n/a	n/a	n/a	n/a	n/a
879274	REC_WORD	wordpools/wasnorm_wordpool_less_exclusions.txt	LTP289	ltpFR	13	4	1	DESSERT	453	n/a	n/a	0	n/a	0	0	0	n/a	n/a	n/a	n/a	n/a
880203	REC_WORD	wordpools/wasnorm_wordpool_less_exclusions.txt	LTP289	ltpFR	13	4	1	SNACK	1331	n/a	n/a	0	n/a	0	0	0	n/a	n/a	n/a	n/a	n/a
882898	REC_WORD	wordpools/wasnorm_wordpool_less_exclusions.txt	LTP289	ltpFR	13	4	1	PICTURE	1061	n/a	n/a	0	n/a	0	0	0	n/a	n/a	n/a	n/a	n/a
884197	REC_WORD	wordpools/wasnorm_wordpool_less_exclusions.txt	LTP289	ltpFR	13	4	1	BEAD	103	n/a	n/a	0	n/a	0	0	0	n/a	n/a	n/a	n/a	n/a
885330	REC_WORD	wordpools/wasnorm_wordpool_less_exclusions.txt	LTP289	ltpFR	13	4	1	BOX	159	n/a	n/a	0	n/a	0	0	0	n/a	n/a	n/a	n/a	n/a
886542	REC_WORD	wordpools/wasnorm_wordpool_less_exclusions.txt	LTP289	ltpFR	13	4	0	BUSH	202	n/a	n/a	1	n/a	0	0	0	n/a	n/a	n/a	n/a	n/a
887839	REC_WORD	wordpools/wasnorm_wordpool_less_exclusions.txt	LTP289	ltpFR	13	4	0	HOUSE	725	n/a	n/a	1	n/a	0	0	0	n/a	n/a	n/a	n/a	n/a
979155	WORD	wordpools/wasnorm_wordpool_less_exclusions.txt	LTP289	ltpFR	13	5	0	FOLLOWER	589	n/a	n/a	1	n/a	0	0	0	0.422607421875	0.5869140625	0	lower	amplitud.ttf
983166	WORD	wordpools/wasnorm_wordpool_less_exclusions.txt	LTP289	ltpFR	13	5	0	BRIDGE	174	n/a	n/a	1	n/a	0	0	0	0.422607421875	0.5869140625	0	lower	amplitud.ttf
987326	WORD	wordpools/wasnorm_wordpool_less_exclusions.txt	LTP289	ltpFR	13	5	0	BEETLE	116	n/a	n/a	0	n/a	0	0	0	0.422607421875	0.5869140625	0	lower	amplitud.ttf
991254	WORD	wordpools/wasnorm_wordpool_less_exclusions.txt	LTP289	ltpFR	13	5	0	GRILL	661	n/a	n/a	1	n/a	0	0	0	0.422607421875	0.5869140625	0	lower	amplitud.ttf
995214	WORD	wordpools/wasnorm_wordpool_less_exclusions.txt	LTP289	ltpFR	13	5	1	CAP	236	n/a	n/a	0	n/a	0	0	0	0.57763671875	0.412841796875	1	upper	zerothre.ttf
999291	WORD	wordpools/wasnorm_wordpool_less_exclusions.txt	LTP289	ltpFR	13	5	1	BRIDE	173	n/a	n/a	1	n/a	0	0	0	0.57763671875	0.412841796875	1	upper	zerothre.ttf
1003402	WORD	wordpools/wasnorm_wordpool_less_exclusions.txt	LTP289	ltpFR	13	5	1	CHIEF	298	n/a	n/a	1	n/a	0	0	0	0.57763671875	0.412841796875	1	upper	zerothre.ttf
1007346	WORD	wordpools/wasnorm_wordpool_less_exclusions.txt	LTP289	ltpFR	13	5	0	DICTATOR	462	n/a	n/a	1	n/a	0	0	0	0.422607421875	0.5869140625	0	lower	amplitud.ttf
1011557	WORD	wordpools/wasnorm_wordpool_less_exclusions.txt	LTP289	ltpFR	13	5	0	GRASSHOPPER	656	n/a	n/a	0	n/a	0	0	0	0.422607421875	0.5869140625	0	lower	amplitud.ttf
1015467	WORD	wordpools/wasnorm_wordpool_less_exclusions.txt	LTP289	ltpFR	13	5	1	CATTLE	261	n/a	n/a	1	n/a	0	0	0	0.57763671875	0.412841796875	1	upper	zerothre.ttf
1019610	WORD	wordpools/wasnorm_wordpool_less_exclusions.txt	LTP289	ltpFR	13	5	1	FARMER	553	n/a	n/a	1	n/a	0	0	0	0.57763671875	0.412841796875	1	upper	zerothre.ttf
1023604	WORD	wordpools/wasnorm_wordpool_less_exclusions.txt	LTP289	ltpFR	13	5	1	PLATE	1086	n/a	n/a	0	n/a	0	0	0	0.57763671875	0.412841796875	1	upper	zerothre.ttf
1027582	WORD	wordpools/wasnorm_wordpool_less_exclusions.txt	LTP289	ltpFR	13	5	1	MARS	873	n/a	n/a	0	n/a	0	0	0	0.57763671875	0.412841796875	1	upper	zerothre.ttf
1031692	WORD	wordpools/wasnorm_wordpool_less_exclusions.txt	LTP289	ltpFR	13	5	1	HAMBURGER	679	n/a	n/a	0	n/a	0	0	0	0.57763671875	0.412841796875	1	upper	zerothre.ttf
1035554	WORD	wordpools/wasnorm_wordpool_less_exclusions.txt	LTP289	ltpFR	13	5	0	JUG	762	n/a	n/a	0	n/a	0	0	0	0.422607421875	0.5869140625	0	lower	amplitud.ttf
1039597	WORD	wordpools/wasnorm_wordpool_less_exclusions.txt	LTP289	ltpFR	13	5	0	WATER	1594	n/a	n/a	0	n/a	0	0	0	0.422607421875	0.5869140625	0	lower	amplitud.ttf
1042609	START	n/a	LTP289	ltpFR	13	n/a	n/a	n/a	n/a	n/a	n/a	n/a	n/a	n/a	n/a	n/a	n/a	n/a	n/a	n/a	n/a
1043825	PROB	n/a	LTP289	ltpFR	13	n/a	n/a	n/a	n/a	n/a	n/a	n/a	16	4	3	9	n/a	n/a	n/a	n/a	n/a
1045889	PROB	n/a	LTP289	ltpFR	13	n/a	n/a	n/a	n/a	n/a	n/a	n/a	10	1	4	5	n/a	n/a	n/a	n/a	n/a
1047403	PROB	n/a	LTP289	ltpFR	13	n/a	n/a	n/a	n/a	n/a	n/a	n/a	8	1	4	3	n/a	n/a	n/a	n/a	n/a
1049615	PROB	n/a	LTP289	ltpFR	13	n/a	n/a	n/a	n/a	n/a	n/a	n/a	23	9	7	8	n/a	n/a	n/a	n/a	n/a
1051913	PROB	n/a	LTP289	ltpFR	13	n/a	n/a	n/a	n/a	n/a	n/a	n/a	14	1	2	9	n/a	n/a	n/a	n/a	n/a
1057500	STOP	n/a	LTP289	ltpFR	13	n/a	n/a	n/a	n/a	n/a	n/a	n/a	n/a	n/a	n/a	n/a	n/a	n/a	n/a	n/a	n/a
1060451	REC_START	n/a	LTP289	ltpFR	13	5	n/a	n/a	n/a	n/a	n/a	n/a	n/a	0	0	0	n/a	n/a	n/a	n/a	n/a
1064279	REC_WORD	wordpools/wasnorm_wordpool_less_exclusions.txt	LTP289	ltpFR	13	5	1	FARMER	553	n/a	n/a	1	n/a	0	0	0	n/a	n/a	n/a	n/a	n/a
1065306	REC_WORD	wordpools/wasnorm_wordpool_less_exclusions.txt	LTP289	ltpFR	13	5	1	CATTLE	261	n/a	n/a	1	n/a	0	0	0	n/a	n/a	n/a	n/a	n/a
1066577	REC_WORD	wordpools/wasnorm_wordpool_less_exclusions.txt	LTP289	ltpFR	13	5	1	HAMBURGER	679	n/a	n/a	0	n/a	0	0	0	n/a	n/a	n/a	n/a	n/a
1067912	REC_WORD	wordpools/wasnorm_wordpool_less_exclusions.txt	LTP289	ltpFR	13	5	1	PLATE	1086	n/a	n/a	0	n/a	0	0	0	n/a	n/a	n/a	n/a	n/a
1069183	REC_WORD	wordpools/wasnorm_wordpool_less_exclusions.txt	LTP289	ltpFR	13	5	1	CAP	236	n/a	n/a	0	n/a	0	0	0	n/a	n/a	n/a	n/a	n/a
1070358	REC_WORD	wordpools/wasnorm_wordpool_less_exclusions.txt	LTP289	ltpFR	13	5	1	BRIDE	173	n/a	n/a	1	n/a	0	0	0	n/a	n/a	n/a	n/a	n/a
1072113	REC_WORD	wordpools/wasnorm_wordpool_less_exclusions.txt	LTP289	ltpFR	13	5	0	BEETLE	116	n/a	n/a	0	n/a	0	0	0	n/a	n/a	n/a	n/a	n/a
1073175	REC_WORD	wordpools/wasnorm_wordpool_less_exclusions.txt	LTP289	ltpFR	13	5	0	GRILL	661	n/a	n/a	1	n/a	0	0	0	n/a	n/a	n/a	n/a	n/a
1074429	REC_WORD	wordpools/wasnorm_wordpool_less_exclusions.txt	LTP289	ltpFR	13	5	0	BRIDGE	174	n/a	n/a	1	n/a	0	0	0	n/a	n/a	n/a	n/a	n/a
1084498	REC_WORD	wordpools/wasnorm_wordpool_less_exclusions.txt	LTP289	ltpFR	13	5	0	WATER	1594	n/a	n/a	0	n/a	0	0	0	n/a	n/a	n/a	n/a	n/a
1085568	REC_WORD	wordpools/wasnorm_wordpool_less_exclusions.txt	LTP289	ltpFR	13	5	0	JUG	762	n/a	n/a	0	n/a	0	0	0	n/a	n/a	n/a	n/a	n/a
1097684	REC_WORD	wordpools/wasnorm_wordpool_less_exclusions.txt	LTP289	ltpFR	13	5	0	GRASSHOPPER	656	n/a	n/a	0	n/a	0	0	0	n/a	n/a	n/a	n/a	n/a
1199077	START	n/a	LTP289	ltpFR	13	n/a	n/a	n/a	n/a	n/a	n/a	n/a	n/a	n/a	n/a	n/a	n/a	n/a	n/a	n/a	n/a
1200590	PROB	n/a	LTP289	ltpFR	13	n/a	n/a	n/a	n/a	n/a	n/a	n/a	14	4	1	9	n/a	n/a	n/a	n/a	n/a
1202937	PROB	n/a	LTP289	ltpFR	13	n/a	n/a	n/a	n/a	n/a	n/a	n/a	27	9	9	9	n/a	n/a	n/a	n/a	n/a
1206340	STOP	n/a	LTP289	ltpFR	13	n/a	n/a	n/a	n/a	n/a	n/a	n/a	n/a	n/a	n/a	n/a	n/a	n/a	n/a	n/a	n/a
1208030	WORD	wordpools/wasnorm_wordpool_less_exclusions.txt	LTP289	ltpFR	13	6	0	CORAL	378	n/a	n/a	0	n/a	0	0	0	0.422607421875	0.5869140625	0	lower	amplitud.ttf
1211042	START	n/a	LTP289	ltpFR	13	n/a	n/a	n/a	n/a	n/a	n/a	n/a	n/a	n/a	n/a	n/a	n/a	n/a	n/a	n/a	n/a
1212124	PROB	n/a	LTP289	ltpFR	13	n/a	n/a	n/a	n/a	n/a	n/a	n/a	11	3	2	6	n/a	n/a	n/a	n/a	n/a
1213472	PROB	n/a	LTP289	ltpFR	13	n/a	n/a	n/a	n/a	n/a	n/a	n/a	11	1	5	5	n/a	n/a	n/a	n/a	n/a
1214652	PROB	n/a	LTP289	ltpFR	13	n/a	n/a	n/a	n/a	n/a	n/a	n/a	9	3	3	3	n/a	n/a	n/a	n/a	n/a
1216201	PROB	n/a	LTP289	ltpFR	13	n/a	n/a	n/a	n/a	n/a	n/a	n/a	15	3	6	6	n/a	n/a	n/a	n/a	n/a
1218667	STOP	n/a	LTP289	ltpFR	13	n/a	n/a	n/a	n/a	n/a	n/a	n/a	n/a	n/a	n/a	n/a	n/a	n/a	n/a	n/a	n/a
1220228	WORD	wordpools/wasnorm_wordpool_less_exclusions.txt	LTP289	ltpFR	13	6	0	CHEF	290	n/a	n/a	1	n/a	0	0	0	0.422607421875	0.5869140625	0	lower	amplitud.ttf
1223241	START	n/a	LTP289	ltpFR	13	n/a	n/a	n/a	n/a	n/a	n/a	n/a	n/a	n/a	n/a	n/a	n/a	n/a	n/a	n/a	n/a
1224122	PROB	n/a	LTP289	ltpFR	13	n/a	n/a	n/a	n/a	n/a	n/a	n/a	16	5	6	5	n/a	n/a	n/a	n/a	n/a
1225636	PROB	n/a	LTP289	ltpFR	13	n/a	n/a	n/a	n/a	n/a	n/a	n/a	13	7	4	2	n/a	n/a	n/a	n/a	n/a
1227784	PROB	n/a	LTP289	ltpFR	13	n/a	n/a	n/a	n/a	n/a	n/a	n/a	13	4	3	6	n/a	n/a	n/a	n/a	n/a
1229828	STOP	n/a	LTP289	ltpFR	13	n/a	n/a	n/a	n/a	n/a	n/a	n/a	n/a	n/a	n/a	n/a	n/a	n/a	n/a	n/a	n/a
1232377	WORD	wordpools/wasnorm_wordpool_less_exclusions.txt	LTP289	ltpFR	13	6	0	SALMON	1227	n/a	n/a	0	n/a	0	0	0	0.422607421875	0.5869140625	0	lower	amplitud.ttf
1235389	START	n/a	LTP289	ltpFR	13	n/a	n/a	n/a	n/a	n/a	n/a	n/a	n/a	n/a	n/a	n/a	n/a	n/a	n/a	n/a	n/a
1236221	PROB	n/a	LTP289	ltpFR	13	n/a	n/a	n/a	n/a	n/a	n/a	n/a	17	2	6	9	n/a	n/a	n/a	n/a	n/a
1239832	PROB	n/a	LTP289	ltpFR	13	n/a	n/a	n/a	n/a	n/a	n/a	n/a	15	6	5	4	n/a	n/a	n/a	n/a	n/a
1242372	STOP	n/a	LTP289	ltpFR	13	n/a	n/a	n/a	n/a	n/a	n/a	n/a	n/a	n/a	n/a	n/a	n/a	n/a	n/a	n/a	n/a
1244226	WORD	wordpools/wasnorm_wordpool_less_exclusions.txt	LTP289	ltpFR	13	6	0	ROOT	1210	n/a	n/a	0	n/a	0	0	0	0.422607421875	0.5869140625	0	lower	amplitud.ttf
1247239	START	n/a	LTP289	ltpFR	13	n/a	n/a	n/a	n/a	n/a	n/a	n/a	n/a	n/a	n/a	n/a	n/a	n/a	n/a	n/a	n/a
1248436	PROB	n/a	LTP289	ltpFR	13	n/a	n/a	n/a	n/a	n/a	n/a	n/a	19	6	7	6	n/a	n/a	n/a	n/a	n/a
1250450	PROB	n/a	LTP289	ltpFR	13	n/a	n/a	n/a	n/a	n/a	n/a	n/a	18	9	2	7	n/a	n/a	n/a	n/a	n/a
1253716	STOP	n/a	LTP289	ltpFR	13	n/a	n/a	n/a	n/a	n/a	n/a	n/a	n/a	n/a	n/a	n/a	n/a	n/a	n/a	n/a	n/a
1256408	WORD	wordpools/wasnorm_wordpool_less_exclusions.txt	LTP289	ltpFR	13	6	1	BEAN	105	n/a	n/a	0	n/a	0	0	0	0.57763671875	0.412841796875	1	upper	zerothre.ttf
1259420	START	n/a	LTP289	ltpFR	13	n/a	n/a	n/a	n/a	n/a	n/a	n/a	n/a	n/a	n/a	n/a	n/a	n/a	n/a	n/a	n/a
1260302	PROB	n/a	LTP289	ltpFR	13	n/a	n/a	n/a	n/a	n/a	n/a	n/a	16	9	3	4	n/a	n/a	n/a	n/a	n/a
1262614	PROB	n/a	LTP289	ltpFR	13	n/a	n/a	n/a	n/a	n/a	n/a	n/a	17	8	8	1	n/a	n/a	n/a	n/a	n/a
1264479	PROB	n/a	LTP289	ltpFR	13	n/a	n/a	n/a	n/a	n/a	n/a	n/a	6	1	1	4	n/a	n/a	n/a	n/a	n/a
1266732	STOP	n/a	LTP289	ltpFR	13	n/a	n/a	n/a	n/a	n/a	n/a	n/a	n/a	n/a	n/a	n/a	n/a	n/a	n/a	n/a	n/a
1268523	WORD	wordpools/wasnorm_wordpool_less_exclusions.txt	LTP289	ltpFR	13	6	1	SPONGE	1355	n/a	n/a	0	n/a	0	0	0	0.57763671875	0.412841796875	1	upper	zerothre.ttf
1271535	START	n/a	LTP289	ltpFR	13	n/a	n/a	n/a	n/a	n/a	n/a	n/a	n/a	n/a	n/a	n/a	n/a	n/a	n/a	n/a	n/a
1272467	PROB	n/a	LTP289	ltpFR	13	n/a	n/a	n/a	n/a	n/a	n/a	n/a	19	8	2	9	n/a	n/a	n/a	n/a	n/a
1274679	PROB	n/a	LTP289	ltpFR	13	n/a	n/a	n/a	n/a	n/a	n/a	n/a	21	8	5	8	n/a	n/a	n/a	n/a	n/a
1276428	PROB	n/a	LTP289	ltpFR	13	n/a	n/a	n/a	n/a	n/a	n/a	n/a	12	1	3	8	n/a	n/a	n/a	n/a	n/a
1278772	STOP	n/a	LTP289	ltpFR	13	n/a	n/a	n/a	n/a	n/a	n/a	n/a	n/a	n/a	n/a	n/a	n/a	n/a	n/a	n/a	n/a
1280571	WORD	wordpools/wasnorm_wordpool_less_exclusions.txt	LTP289	ltpFR	13	6	1	WASHCLOTH	1591	n/a	n/a	0	n/a	0	0	0	0.57763671875	0.412841796875	1	upper	zerothre.ttf
1283583	START	n/a	LTP289	ltpFR	13	n/a	n/a	n/a	n/a	n/a	n/a	n/a	n/a	n/a	n/a	n/a	n/a	n/a	n/a	n/a	n/a
1284532	PROB	n/a	LTP289	ltpFR	13	n/a	n/a	n/a	n/a	n/a	n/a	n/a	19	8	9	2	n/a	n/a	n/a	n/a	n/a
1286263	PROB	n/a	LTP289	ltpFR	13	n/a	n/a	n/a	n/a	n/a	n/a	n/a	19	9	2	8	n/a	n/a	n/a	n/a	n/a
1287944	PROB	n/a	LTP289	ltpFR	13	n/a	n/a	n/a	n/a	n/a	n/a	n/a	15	4	6	5	n/a	n/a	n/a	n/a	n/a
1290748	STOP	n/a	LTP289	ltpFR	13	n/a	n/a	n/a	n/a	n/a	n/a	n/a	n/a	n/a	n/a	n/a	n/a	n/a	n/a	n/a	n/a
1292569	WORD	wordpools/wasnorm_wordpool_less_exclusions.txt	LTP289	ltpFR	13	6	1	PREACHER	1119	n/a	n/a	1	n/a	0	0	0	0.57763671875	0.412841796875	1	upper	zerothre.ttf
1295582	START	n/a	LTP289	ltpFR	13	n/a	n/a	n/a	n/a	n/a	n/a	n/a	n/a	n/a	n/a	n/a	n/a	n/a	n/a	n/a	n/a
1296415	PROB	n/a	LTP289	ltpFR	13	n/a	n/a	n/a	n/a	n/a	n/a	n/a	8	4	1	3	n/a	n/a	n/a	n/a	n/a
1299609	PROB	n/a	LTP289	ltpFR	13	n/a	n/a	n/a	n/a	n/a	n/a	n/a	10	2	6	2	n/a	n/a	n/a	n/a	n/a
1302188	STOP	n/a	LTP289	ltpFR	13	n/a	n/a	n/a	n/a	n/a	n/a	n/a	n/a	n/a	n/a	n/a	n/a	n/a	n/a	n/a	n/a
1304635	WORD	wordpools/wasnorm_wordpool_less_exclusions.txt	LTP289	ltpFR	13	6	0	CHAPEL	280	n/a	n/a	1	n/a	0	0	0	0.422607421875	0.5869140625	0	lower	amplitud.ttf
1307647	START	n/a	LTP289	ltpFR	13	n/a	n/a	n/a	n/a	n/a	n/a	n/a	n/a	n/a	n/a	n/a	n/a	n/a	n/a	n/a	n/a
1308813	PROB	n/a	LTP289	ltpFR	13	n/a	n/a	n/a	n/a	n/a	n/a	n/a	14	9	4	1	n/a	n/a	n/a	n/a	n/a
1310427	PROB	n/a	LTP289	ltpFR	13	n/a	n/a	n/a	n/a	n/a	n/a	n/a	15	3	5	7	n/a	n/a	n/a	n/a	n/a
1312890	PROB	n/a	LTP289	ltpFR	13	n/a	n/a	n/a	n/a	n/a	n/a	n/a	10	6	2	2	n/a	n/a	n/a	n/a	n/a
1315468	STOP	n/a	LTP289	ltpFR	13	n/a	n/a	n/a	n/a	n/a	n/a	n/a	n/a	n/a	n/a	n/a	n/a	n/a	n/a	n/a	n/a
1316784	WORD	wordpools/wasnorm_wordpool_less_exclusions.txt	LTP289	ltpFR	13	6	0	TEAPOT	1442	n/a	n/a	0	n/a	0	0	0	0.422607421875	0.5869140625	0	lower	amplitud.ttf
1319797	START	n/a	LTP289	ltpFR	13	n/a	n/a	n/a	n/a	n/a	n/a	n/a	n/a	n/a	n/a	n/a	n/a	n/a	n/a	n/a	n/a
1320978	PROB	n/a	LTP289	ltpFR	13	n/a	n/a	n/a	n/a	n/a	n/a	n/a	8	6	1	1	n/a	n/a	n/a	n/a	n/a
1322326	PROB	n/a	LTP289	ltpFR	13	n/a	n/a	n/a	n/a	n/a	n/a	n/a	14	3	2	9	n/a	n/a	n/a	n/a	n/a
1324356	PROB	n/a	LTP289	ltpFR	13	n/a	n/a	n/a	n/a	n/a	n/a	n/a	21	9	3	9	n/a	n/a	n/a	n/a	n/a
1326388	STOP	n/a	LTP289	ltpFR	13	n/a	n/a	n/a	n/a	n/a	n/a	n/a	n/a	n/a	n/a	n/a	n/a	n/a	n/a	n/a	n/a
1328682	WORD	wordpools/wasnorm_wordpool_less_exclusions.txt	LTP289	ltpFR	13	6	1	CRITIC	410	n/a	n/a	1	n/a	0	0	0	0.57763671875	0.412841796875	1	upper	zerothre.ttf
1331695	START	n/a	LTP289	ltpFR	13	n/a	n/a	n/a	n/a	n/a	n/a	n/a	n/a	n/a	n/a	n/a	n/a	n/a	n/a	n/a	n/a
1332794	PROB	n/a	LTP289	ltpFR	13	n/a	n/a	n/a	n/a	n/a	n/a	n/a	26	9	9	8	n/a	n/a	n/a	n/a	n/a
1338388	STOP	n/a	LTP289	ltpFR	13	n/a	n/a	n/a	n/a	n/a	n/a	n/a	n/a	n/a	n/a	n/a	n/a	n/a	n/a	n/a	n/a
1340815	WORD	wordpools/wasnorm_wordpool_less_exclusions.txt	LTP289	ltpFR	13	6	1	PARTY	1018	n/a	n/a	0	n/a	0	0	0	0.57763671875	0.412841796875	1	upper	zerothre.ttf
1343828	START	n/a	LTP289	ltpFR	13	n/a	n/a	n/a	n/a	n/a	n/a	n/a	n/a	n/a	n/a	n/a	n/a	n/a	n/a	n/a	n/a
1344642	PROB	n/a	LTP289	ltpFR	13	n/a	n/a	n/a	n/a	n/a	n/a	n/a	12	4	4	4	n/a	n/a	n/a	n/a	n/a
1348121	PROB	n/a	LTP289	ltpFR	13	n/a	n/a	n/a	n/a	n/a	n/a	n/a	16	4	4	8	n/a	n/a	n/a	n/a	n/a
1350168	PROB	n/a	LTP289	ltpFR	13	n/a	n/a	n/a	n/a	n/a	n/a	n/a	15	2	8	5	n/a	n/a	n/a	n/a	n/a
1351627	STOP	n/a	LTP289	ltpFR	13	n/a	n/a	n/a	n/a	n/a	n/a	n/a	n/a	n/a	n/a	n/a	n/a	n/a	n/a	n/a	n/a
1352747	WORD	wordpools/wasnorm_wordpool_less_exclusions.txt	LTP289	ltpFR	13	6	1	RIBBON	1189	n/a	n/a	0	n/a	0	0	0	0.57763671875	0.412841796875	1	upper	zerothre.ttf
1355760	START	n/a	LTP289	ltpFR	13	n/a	n/a	n/a	n/a	n/a	n/a	n/a	n/a	n/a	n/a	n/a	n/a	n/a	n/a	n/a	n/a
1356758	PROB	n/a	LTP289	ltpFR	13	n/a	n/a	n/a	n/a	n/a	n/a	n/a	20	2	9	9	n/a	n/a	n/a	n/a	n/a
1359287	PROB	n/a	LTP289	ltpFR	13	n/a	n/a	n/a	n/a	n/a	n/a	n/a	17	5	9	3	n/a	n/a	n/a	n/a	n/a
1362436	STOP	n/a	LTP289	ltpFR	13	n/a	n/a	n/a	n/a	n/a	n/a	n/a	n/a	n/a	n/a	n/a	n/a	n/a	n/a	n/a	n/a
1364678	WORD	wordpools/wasnorm_wordpool_less_exclusions.txt	LTP289	ltpFR	13	6	1	SHRIMP	1297	n/a	n/a	1	n/a	0	0	0	0.57763671875	0.412841796875	1	upper	zerothre.ttf
1367691	START	n/a	LTP289	ltpFR	13	n/a	n/a	n/a	n/a	n/a	n/a	n/a	n/a	n/a	n/a	n/a	n/a	n/a	n/a	n/a	n/a
1375690	STOP	n/a	LTP289	ltpFR	13	n/a	n/a	n/a	n/a	n/a	n/a	n/a	n/a	n/a	n/a	n/a	n/a	n/a	n/a	n/a	n/a
1376545	WORD	wordpools/wasnorm_wordpool_less_exclusions.txt	LTP289	ltpFR	13	6	0	TEMPLE	1448	n/a	n/a	1	n/a	0	0	0	0.422607421875	0.5869140625	0	lower	amplitud.ttf
1379557	START	n/a	LTP289	ltpFR	13	n/a	n/a	n/a	n/a	n/a	n/a	n/a	n/a	n/a	n/a	n/a	n/a	n/a	n/a	n/a	n/a
1380522	PROB	n/a	LTP289	ltpFR	13	n/a	n/a	n/a	n/a	n/a	n/a	n/a	26	7	5	4	n/a	n/a	n/a	n/a	n/a
1387557	STOP	n/a	LTP289	ltpFR	13	n/a	n/a	n/a	n/a	n/a	n/a	n/a	n/a	n/a	n/a	n/a	n/a	n/a	n/a	n/a	n/a
1388477	WORD	wordpools/wasnorm_wordpool_less_exclusions.txt	LTP289	ltpFR	13	6	0	BOULDER	155	n/a	n/a	1	n/a	0	0	0	0.422607421875	0.5869140625	0	lower	amplitud.ttf
1391489	START	n/a	LTP289	ltpFR	13	n/a	n/a	n/a	n/a	n/a	n/a	n/a	n/a	n/a	n/a	n/a	n/a	n/a	n/a	n/a	n/a
1392504	PROB	n/a	LTP289	ltpFR	13	n/a	n/a	n/a	n/a	n/a	n/a	n/a	16	2	6	8	n/a	n/a	n/a	n/a	n/a
1394169	PROB	n/a	LTP289	ltpFR	13	n/a	n/a	n/a	n/a	n/a	n/a	n/a	14	8	4	2	n/a	n/a	n/a	n/a	n/a
1395983	PROB	n/a	LTP289	ltpFR	13	n/a	n/a	n/a	n/a	n/a	n/a	n/a	21	9	3	9	n/a	n/a	n/a	n/a	n/a
1399489	STOP	n/a	LTP289	ltpFR	13	n/a	n/a	n/a	n/a	n/a	n/a	n/a	n/a	n/a	n/a	n/a	n/a	n/a	n/a	n/a	n/a
1401242	REC_START	n/a	LTP289	ltpFR	13	6	n/a	n/a	n/a	n/a	n/a	n/a	n/a	0	0	0	n/a	n/a	n/a	n/a	n/a
1402749	REC_WORD	wordpools/wasnorm_wordpool_less_exclusions.txt	LTP289	ltpFR	13	6	0	BOULDER	155	n/a	n/a	1	n/a	0	0	0	n/a	n/a	n/a	n/a	n/a
1404038	REC_WORD	wordpools/wasnorm_wordpool_less_exclusions.txt	LTP289	ltpFR	13	6	0	SALMON	1227	n/a	n/a	0	n/a	0	0	0	n/a	n/a	n/a	n/a	n/a
1405262	REC_WORD	wordpools/wasnorm_wordpool_less_exclusions.txt	LTP289	ltpFR	13	6	0	CORAL	378	n/a	n/a	0	n/a	0	0	0	n/a	n/a	n/a	n/a	n/a
1406226	REC_WORD	wordpools/wasnorm_wordpool_less_exclusions.txt	LTP289	ltpFR	13	6	1	SHRIMP	1297	n/a	n/a	1	n/a	0	0	0	n/a	n/a	n/a	n/a	n/a
1407458	REC_WORD	wordpools/wasnorm_wordpool_less_exclusions.txt	LTP289	ltpFR	13	6	1	SPONGE	1355	n/a	n/a	0	n/a	0	0	0	n/a	n/a	n/a	n/a	n/a
1408965	REC_WORD	wordpools/wasnorm_wordpool_less_exclusions.txt	LTP289	ltpFR	13	6	1	WASHCLOTH	1591	n/a	n/a	0	n/a	0	0	0	n/a	n/a	n/a	n/a	n/a
1417514	REC_WORD	wordpools/wasnorm_wordpool_less_exclusions.txt	LTP289	ltpFR	13	6	0	TEAPOT	1442	n/a	n/a	0	n/a	0	0	0	n/a	n/a	n/a	n/a	n/a
1431904	REC_WORD	wordpools/wasnorm_wordpool_less_exclusions.txt	LTP289	ltpFR	13	6	1	RIBBON	1189	n/a	n/a	0	n/a	0	0	0	n/a	n/a	n/a	n/a	n/a
1439240	REC_WORD	wordpools/wasnorm_wordpool_less_exclusions.txt	LTP289	ltpFR	13	6	1	CRITIC	410	n/a	n/a	1	n/a	0	0	0	n/a	n/a	n/a	n/a	n/a
1476845	REST_REWET	n/a	LTP289	ltpFR	13	6	n/a	n/a	n/a	n/a	n/a	n/a	n/a	0	0	0	n/a	n/a	n/a	n/a	n/a
1840585	START	n/a	LTP289	ltpFR	13	n/a	n/a	n/a	n/a	n/a	n/a	n/a	n/a	n/a	n/a	n/a	n/a	n/a	n/a	n/a	n/a
1842100	PROB	n/a	LTP289	ltpFR	13	n/a	n/a	n/a	n/a	n/a	n/a	n/a	12	5	4	3	n/a	n/a	n/a	n/a	n/a
1843864	PROB	n/a	LTP289	ltpFR	13	n/a	n/a	n/a	n/a	n/a	n/a	n/a	19	9	2	8	n/a	n/a	n/a	n/a	n/a
1845794	PROB	n/a	LTP289	ltpFR	13	n/a	n/a	n/a	n/a	n/a	n/a	n/a	17	7	7	3	n/a	n/a	n/a	n/a	n/a
1847858	PROB	n/a	LTP289	ltpFR	13	n/a	n/a	n/a	n/a	n/a	n/a	n/a	10	5	3	2	n/a	n/a	n/a	n/a	n/a
1849637	PROB	n/a	LTP289	ltpFR	13	n/a	n/a	n/a	n/a	n/a	n/a	n/a	17	5	3	9	n/a	n/a	n/a	n/a	n/a
1851552	PROB	n/a	LTP289	ltpFR	13	n/a	n/a	n/a	n/a	n/a	n/a	n/a	9	7	1	1	n/a	n/a	n/a	n/a	n/a
1853333	PROB	n/a	LTP289	ltpFR	13	n/a	n/a	n/a	n/a	n/a	n/a	n/a	26	9	8	9	n/a	n/a	n/a	n/a	n/a
1855635	STOP	n/a	LTP289	ltpFR	13	n/a	n/a	n/a	n/a	n/a	n/a	n/a	n/a	n/a	n/a	n/a	n/a	n/a	n/a	n/a	n/a
1857592	WORD	wordpools/wasnorm_wordpool_less_exclusions.txt	LTP289	ltpFR	13	7	0	AUTHOR	61	n/a	n/a	1	n/a	0	0	0	0.422607421875	0.5869140625	0	lower	amplitud.ttf
1860605	START	n/a	LTP289	ltpFR	13	n/a	n/a	n/a	n/a	n/a	n/a	n/a	n/a	n/a	n/a	n/a	n/a	n/a	n/a	n/a	n/a
1861437	PROB	n/a	LTP289	ltpFR	13	n/a	n/a	n/a	n/a	n/a	n/a	n/a	20	8	9	3	n/a	n/a	n/a	n/a	n/a
1863318	PROB	n/a	LTP289	ltpFR	13	n/a	n/a	n/a	n/a	n/a	n/a	n/a	21	7	6	8	n/a	n/a	n/a	n/a	n/a
1865531	PROB	n/a	LTP289	ltpFR	13	n/a	n/a	n/a	n/a	n/a	n/a	n/a	10	4	5	1	n/a	n/a	n/a	n/a	n/a
1867412	PROB	n/a	LTP289	ltpFR	13	n/a	n/a	n/a	n/a	n/a	n/a	n/a	10	2	7	1	n/a	n/a	n/a	n/a	n/a
1869143	PROB	n/a	LTP289	ltpFR	13	n/a	n/a	n/a	n/a	n/a	n/a	n/a	21	7	6	8	n/a	n/a	n/a	n/a	n/a
1871506	PROB	n/a	LTP289	ltpFR	13	n/a	n/a	n/a	n/a	n/a	n/a	n/a	19	3	7	9	n/a	n/a	n/a	n/a	n/a
1873336	PROB	n/a	LTP289	ltpFR	13	n/a	n/a	n/a	n/a	n/a	n/a	n/a	10	4	2	4	n/a	n/a	n/a	n/a	n/a
1876595	STOP	n/a	LTP289	ltpFR	13	n/a	n/a	n/a	n/a	n/a	n/a	n/a	n/a	n/a	n/a	n/a	n/a	n/a	n/a	n/a	n/a
1877730	WORD	wordpools/wasnorm_wordpool_less_exclusions.txt	LTP289	ltpFR	13	7	0	AUTOMOBILE	62	n/a	n/a	1	n/a	0	0	0	0.422607421875	0.5869140625	0	lower	amplitud.ttf
1880742	START	n/a	LTP289	ltpFR	13	n/a	n/a	n/a	n/a	n/a	n/a	n/a	n/a	n/a	n/a	n/a	n/a	n/a	n/a	n/a	n/a
1881557	PROB	n/a	LTP289	ltpFR	13	n/a	n/a	n/a	n/a	n/a	n/a	n/a	12	4	6	2	n/a	n/a	n/a	n/a	n/a
1884120	PROB	n/a	LTP289	ltpFR	13	n/a	n/a	n/a	n/a	n/a	n/a	n/a	11	1	2	8	n/a	n/a	n/a	n/a	n/a
1885584	PROB	n/a	LTP289	ltpFR	13	n/a	n/a	n/a	n/a	n/a	n/a	n/a	17	3	6	8	n/a	n/a	n/a	n/a	n/a
1888530	PROB	n/a	LTP289	ltpFR	13	n/a	n/a	n/a	n/a	n/a	n/a	n/a	23	9	9	5	n/a	n/a	n/a	n/a	n/a
1890693	PROB	n/a	LTP289	ltpFR	13	n/a	n/a	n/a	n/a	n/a	n/a	n/a	13	3	7	3	n/a	n/a	n/a	n/a	n/a
1892441	PROB	n/a	LTP289	ltpFR	13	n/a	n/a	n/a	n/a	n/a	n/a	n/a	23	9	8	6	n/a	n/a	n/a	n/a	n/a
1895828	STOP	n/a	LTP289	ltpFR	13	n/a	n/a	n/a	n/a	n/a	n/a	n/a	n/a	n/a	n/a	n/a	n/a	n/a	n/a	n/a	n/a
1897933	WORD	wordpools/wasnorm_wordpool_less_exclusions.txt	LTP289	ltpFR	13	7	0	LEADER	807	n/a	n/a	1	n/a	0	0	0	0.422607421875	0.5869140625	0	lower	amplitud.ttf
1900946	START	n/a	LTP289	ltpFR	13	n/a	n/a	n/a	n/a	n/a	n/a	n/a	n/a	n/a	n/a	n/a	n/a	n/a	n/a	n/a	n/a
1902077	PROB	n/a	LTP289	ltpFR	13	n/a	n/a	n/a	n/a	n/a	n/a	n/a	18	9	8	1	n/a	n/a	n/a	n/a	n/a
1904789	PROB	n/a	LTP289	ltpFR	13	n/a	n/a	n/a	n/a	n/a	n/a	n/a	10	1	4	5	n/a	n/a	n/a	n/a	n/a
1906354	PROB	n/a	LTP289	ltpFR	13	n/a	n/a	n/a	n/a	n/a	n/a	n/a	19	8	5	6	n/a	n/a	n/a	n/a	n/a
1908917	PROB	n/a	LTP289	ltpFR	13	n/a	n/a	n/a	n/a	n/a	n/a	n/a	17	2	7	8	n/a	n/a	n/a	n/a	n/a
1911463	PROB	n/a	LTP289	ltpFR	13	n/a	n/a	n/a	n/a	n/a	n/a	n/a	13	7	5	1	n/a	n/a	n/a	n/a	n/a
1916946	STOP	n/a	LTP289	ltpFR	13	n/a	n/a	n/a	n/a	n/a	n/a	n/a	n/a	n/a	n/a	n/a	n/a	n/a	n/a	n/a	n/a
1918103	WORD	wordpools/wasnorm_wordpool_less_exclusions.txt	LTP289	ltpFR	13	7	0	CREATURE	403	n/a	n/a	1	n/a	0	0	0	0.422607421875	0.5869140625	0	lower	amplitud.ttf
1921116	START	n/a	LTP289	ltpFR	13	n/a	n/a	n/a	n/a	n/a	n/a	n/a	n/a	n/a	n/a	n/a	n/a	n/a	n/a	n/a	n/a
1922014	PROB	n/a	LTP289	ltpFR	13	n/a	n/a	n/a	n/a	n/a	n/a	n/a	14	3	3	8	n/a	n/a	n/a	n/a	n/a
1924377	PROB	n/a	LTP289	ltpFR	13	n/a	n/a	n/a	n/a	n/a	n/a	n/a	20	6	9	5	n/a	n/a	n/a	n/a	n/a
1928404	PROB	n/a	LTP289	ltpFR	13	n/a	n/a	n/a	n/a	n/a	n/a	n/a	10	1	3	6	n/a	n/a	n/a	n/a	n/a
1931350	PROB	n/a	LTP289	ltpFR	13	n/a	n/a	n/a	n/a	n/a	n/a	n/a	13	3	1	9	n/a	n/a	n/a	n/a	n/a
1932764	PROB	n/a	LTP289	ltpFR	13	n/a	n/a	n/a	n/a	n/a	n/a	n/a	13	3	5	5	n/a	n/a	n/a	n/a	n/a
1934179	PROB	n/a	LTP289	ltpFR	13	n/a	n/a	n/a	n/a	n/a	n/a	n/a	17	6	7	4	n/a	n/a	n/a	n/a	n/a
1935908	STOP	n/a	LTP289	ltpFR	13	n/a	n/a	n/a	n/a	n/a	n/a	n/a	n/a	n/a	n/a	n/a	n/a	n/a	n/a	n/a	n/a
1938056	WORD	wordpools/wasnorm_wordpool_less_exclusions.txt	LTP289	ltpFR	13	7	0	HINGE	709	n/a	n/a	0	n/a	0	0	0	0.422607421875	0.5869140625	0	lower	amplitud.ttf
1941069	START	n/a	LTP289	ltpFR	13	n/a	n/a	n/a	n/a	n/a	n/a	n/a	n/a	n/a	n/a	n/a	n/a	n/a	n/a	n/a	n/a
1942184	PROB	n/a	LTP289	ltpFR	13	n/a	n/a	n/a	n/a	n/a	n/a	n/a	14	8	5	1	n/a	n/a	n/a	n/a	n/a
1944397	PROB	n/a	LTP289	ltpFR	13	n/a	n/a	n/a	n/a	n/a	n/a	n/a	17	7	1	9	n/a	n/a	n/a	n/a	n/a
1945795	PROB	n/a	LTP289	ltpFR	13	n/a	n/a	n/a	n/a	n/a	n/a	n/a	14	3	9	2	n/a	n/a	n/a	n/a	n/a
1947775	PROB	n/a	LTP289	ltpFR	13	n/a	n/a	n/a	n/a	n/a	n/a	n/a	16	3	9	4	n/a	n/a	n/a	n/a	n/a
1950620	PROB	n/a	LTP289	ltpFR	13	n/a	n/a	n/a	n/a	n/a	n/a	n/a	15	5	8	2	n/a	n/a	n/a	n/a	n/a
1953084	PROB	n/a	LTP289	ltpFR	13	n/a	n/a	n/a	n/a	n/a	n/a	n/a	14	6	3	5	n/a	n/a	n/a	n/a	n/a
1955131	PROB	n/a	LTP289	ltpFR	13	n/a	n/a	n/a	n/a	n/a	n/a	n/a	21	9	3	9	n/a	n/a	n/a	n/a	n/a
1956964	STOP	n/a	LTP289	ltpFR	13	n/a	n/a	n/a	n/a	n/a	n/a	n/a	n/a	n/a	n/a	n/a	n/a	n/a	n/a	n/a	n/a
1957910	WORD	wordpools/wasnorm_wordpool_less_exclusions.txt	LTP289	ltpFR	13	7	0	WRITER	1627	n/a	n/a	1	n/a	0	0	0	0.422607421875	0.5869140625	0	lower	amplitud.ttf
1960923	START	n/a	LTP289	ltpFR	13	n/a	n/a	n/a	n/a	n/a	n/a	n/a	n/a	n/a	n/a	n/a	n/a	n/a	n/a	n/a	n/a
1961754	PROB	n/a	LTP289	ltpFR	13	n/a	n/a	n/a	n/a	n/a	n/a	n/a	11	7	3	1	n/a	n/a	n/a	n/a	n/a
1964417	PROB	n/a	LTP289	ltpFR	13	n/a	n/a	n/a	n/a	n/a	n/a	n/a	16	9	3	4	n/a	n/a	n/a	n/a	n/a
1967063	PROB	n/a	LTP289	ltpFR	13	n/a	n/a	n/a	n/a	n/a	n/a	n/a	14	4	5	5	n/a	n/a	n/a	n/a	n/a
1968361	PROB	n/a	LTP289	ltpFR	13	n/a	n/a	n/a	n/a	n/a	n/a	n/a	15	1	6	8	n/a	n/a	n/a	n/a	n/a
1970640	PROB	n/a	LTP289	ltpFR	13	n/a	n/a	n/a	n/a	n/a	n/a	n/a	13	3	4	6	n/a	n/a	n/a	n/a	n/a
1973320	PROB	n/a	LTP289	ltpFR	13	n/a	n/a	n/a	n/a	n/a	n/a	n/a	12	5	1	6	n/a	n/a	n/a	n/a	n/a
1976923	STOP	n/a	LTP289	ltpFR	13	n/a	n/a	n/a	n/a	n/a	n/a	n/a	n/a	n/a	n/a	n/a	n/a	n/a	n/a	n/a	n/a
1978063	WORD	wordpools/wasnorm_wordpool_less_exclusions.txt	LTP289	ltpFR	13	7	0	CONSOLE	364	n/a	n/a	1	n/a	0	0	0	0.422607421875	0.5869140625	0	lower	amplitud.ttf
1981076	START	n/a	LTP289	ltpFR	13	n/a	n/a	n/a	n/a	n/a	n/a	n/a	n/a	n/a	n/a	n/a	n/a	n/a	n/a	n/a	n/a
1982124	PROB	n/a	LTP289	ltpFR	13	n/a	n/a	n/a	n/a	n/a	n/a	n/a	11	3	7	1	n/a	n/a	n/a	n/a	n/a
1984321	PROB	n/a	LTP289	ltpFR	13	n/a	n/a	n/a	n/a	n/a	n/a	n/a	10	3	5	2	n/a	n/a	n/a	n/a	n/a
1986318	PROB	n/a	LTP289	ltpFR	13	n/a	n/a	n/a	n/a	n/a	n/a	n/a	18	6	6	6	n/a	n/a	n/a	n/a	n/a
1988548	PROB	n/a	LTP289	ltpFR	13	n/a	n/a	n/a	n/a	n/a	n/a	n/a	17	8	8	1	n/a	n/a	n/a	n/a	n/a
1990495	PROB	n/a	LTP289	ltpFR	13	n/a	n/a	n/a	n/a	n/a	n/a	n/a	17	8	3	6	n/a	n/a	n/a	n/a	n/a
1992841	PROB	n/a	LTP289	ltpFR	13	n/a	n/a	n/a	n/a	n/a	n/a	n/a	22	8	5	9	n/a	n/a	n/a	n/a	n/a
1996084	STOP	n/a	LTP289	ltpFR	13	n/a	n/a	n/a	n/a	n/a	n/a	n/a	n/a	n/a	n/a	n/a	n/a	n/a	n/a	n/a	n/a
1998233	WORD	wordpools/wasnorm_wordpool_less_exclusions.txt	LTP289	ltpFR	13	7	0	DRILL	497	n/a	n/a	0	n/a	0	0	0	0.422607421875	0.5869140625	0	lower	amplitud.ttf
2001246	START	n/a	LTP289	ltpFR	13	n/a	n/a	n/a	n/a	n/a	n/a	n/a	n/a	n/a	n/a	n/a	n/a	n/a	n/a	n/a	n/a
2002360	PROB	n/a	LTP289	ltpFR	13	n/a	n/a	n/a	n/a	n/a	n/a	n/a	13	2	7	4	n/a	n/a	n/a	n/a	n/a
2005073	PROB	n/a	LTP289	ltpFR	13	n/a	n/a	n/a	n/a	n/a	n/a	n/a	12	3	8	1	n/a	n/a	n/a	n/a	n/a
2007187	PROB	n/a	LTP289	ltpFR	13	n/a	n/a	n/a	n/a	n/a	n/a	n/a	8	5	2	1	n/a	n/a	n/a	n/a	n/a
2009599	PROB	n/a	LTP289	ltpFR	13	n/a	n/a	n/a	n/a	n/a	n/a	n/a	15	7	6	2	n/a	n/a	n/a	n/a	n/a
2012179	PROB	n/a	LTP289	ltpFR	13	n/a	n/a	n/a	n/a	n/a	n/a	n/a	14	7	5	2	n/a	n/a	n/a	n/a	n/a
2013960	PROB	n/a	LTP289	ltpFR	13	n/a	n/a	n/a	n/a	n/a	n/a	n/a	8	4	1	3	n/a	n/a	n/a	n/a	n/a
2016659	STOP	n/a	LTP289	ltpFR	13	n/a	n/a	n/a	n/a	n/a	n/a	n/a	n/a	n/a	n/a	n/a	n/a	n/a	n/a	n/a	n/a
2018187	WORD	wordpools/wasnorm_wordpool_less_exclusions.txt	LTP289	ltpFR	13	7	0	KIWI	781	n/a	n/a	0	n/a	0	0	0	0.422607421875	0.5869140625	0	lower	amplitud.ttf
2021199	START	n/a	LTP289	ltpFR	13	n/a	n/a	n/a	n/a	n/a	n/a	n/a	n/a	n/a	n/a	n/a	n/a	n/a	n/a	n/a	n/a
2022114	PROB	n/a	LTP289	ltpFR	13	n/a	n/a	n/a	n/a	n/a	n/a	n/a	14	1	4	9	n/a	n/a	n/a	n/a	n/a
2024727	PROB	n/a	LTP289	ltpFR	13	n/a	n/a	n/a	n/a	n/a	n/a	n/a	20	8	3	9	n/a	n/a	n/a	n/a	n/a
2027007	PROB	n/a	LTP289	ltpFR	13	n/a	n/a	n/a	n/a	n/a	n/a	n/a	19	6	8	5	n/a	n/a	n/a	n/a	n/a
2029071	PROB	n/a	LTP289	ltpFR	13	n/a	n/a	n/a	n/a	n/a	n/a	n/a	13	7	2	4	n/a	n/a	n/a	n/a	n/a
2031334	PROB	n/a	LTP289	ltpFR	13	n/a	n/a	n/a	n/a	n/a	n/a	n/a	12	5	2	5	n/a	n/a	n/a	n/a	n/a
2033098	PROB	n/a	LTP289	ltpFR	13	n/a	n/a	n/a	n/a	n/a	n/a	n/a	14	3	5	6	n/a	n/a	n/a	n/a	n/a
2037199	STOP	n/a	LTP289	ltpFR	13	n/a	n/a	n/a	n/a	n/a	n/a	n/a	n/a	n/a	n/a	n/a	n/a	n/a	n/a	n/a	n/a
2038090	WORD	wordpools/wasnorm_wordpool_less_exclusions.txt	LTP289	ltpFR	13	7	0	DEODORANT	448	n/a	n/a	0	n/a	0	0	0	0.422607421875	0.5869140625	0	lower	amplitud.ttf
2041103	START	n/a	LTP289	ltpFR	13	n/a	n/a	n/a	n/a	n/a	n/a	n/a	n/a	n/a	n/a	n/a	n/a	n/a	n/a	n/a	n/a
2042118	PROB	n/a	LTP289	ltpFR	13	n/a	n/a	n/a	n/a	n/a	n/a	n/a	11	8	1	2	n/a	n/a	n/a	n/a	n/a
2044414	PROB	n/a	LTP289	ltpFR	13	n/a	n/a	n/a	n/a	n/a	n/a	n/a	15	4	5	6	n/a	n/a	n/a	n/a	n/a
2047543	PROB	n/a	LTP289	ltpFR	13	n/a	n/a	n/a	n/a	n/a	n/a	n/a	18	7	6	5	n/a	n/a	n/a	n/a	n/a
2049889	PROB	n/a	LTP289	ltpFR	13	n/a	n/a	n/a	n/a	n/a	n/a	n/a	20	8	7	5	n/a	n/a	n/a	n/a	n/a
2052336	PROB	n/a	LTP289	ltpFR	13	n/a	n/a	n/a	n/a	n/a	n/a	n/a	12	4	6	2	n/a	n/a	n/a	n/a	n/a
2053950	PROB	n/a	LTP289	ltpFR	13	n/a	n/a	n/a	n/a	n/a	n/a	n/a	15	5	4	6	n/a	n/a	n/a	n/a	n/a
2055876	STOP	n/a	LTP289	ltpFR	13	n/a	n/a	n/a	n/a	n/a	n/a	n/a	n/a	n/a	n/a	n/a	n/a	n/a	n/a	n/a	n/a
2058011	WORD	wordpools/wasnorm_wordpool_less_exclusions.txt	LTP289	ltpFR	13	7	0	INCENSE	735	n/a	n/a	0	n/a	0	0	0	0.422607421875	0.5869140625	0	lower	amplitud.ttf
2061023	START	n/a	LTP289	ltpFR	13	n/a	n/a	n/a	n/a	n/a	n/a	n/a	n/a	n/a	n/a	n/a	n/a	n/a	n/a	n/a	n/a
2062171	PROB	n/a	LTP289	ltpFR	13	n/a	n/a	n/a	n/a	n/a	n/a	n/a	14	6	7	1	n/a	n/a	n/a	n/a	n/a
2064035	PROB	n/a	LTP289	ltpFR	13	n/a	n/a	n/a	n/a	n/a	n/a	n/a	9	3	3	3	n/a	n/a	n/a	n/a	n/a
2065665	PROB	n/a	LTP289	ltpFR	13	n/a	n/a	n/a	n/a	n/a	n/a	n/a	21	9	6	6	n/a	n/a	n/a	n/a	n/a
2067729	PROB	n/a	LTP289	ltpFR	13	n/a	n/a	n/a	n/a	n/a	n/a	n/a	12	4	2	6	n/a	n/a	n/a	n/a	n/a
2069642	PROB	n/a	LTP289	ltpFR	13	n/a	n/a	n/a	n/a	n/a	n/a	n/a	13	1	4	8	n/a	n/a	n/a	n/a	n/a
2071623	PROB	n/a	LTP289	ltpFR	13	n/a	n/a	n/a	n/a	n/a	n/a	n/a	13	6	5	2	n/a	n/a	n/a	n/a	n/a
2073288	PROB	n/a	LTP289	ltpFR	13	n/a	n/a	n/a	n/a	n/a	n/a	n/a	17	6	3	8	n/a	n/a	n/a	n/a	n/a
2075796	STOP	n/a	LTP289	ltpFR	13	n/a	n/a	n/a	n/a	n/a	n/a	n/a	n/a	n/a	n/a	n/a	n/a	n/a	n/a	n/a	n/a
2078114	WORD	wordpools/wasnorm_wordpool_less_exclusions.txt	LTP289	ltpFR	13	7	0	FEATHER	557	n/a	n/a	0	n/a	0	0	0	0.422607421875	0.5869140625	0	lower	amplitud.ttf
2081127	START	n/a	LTP289	ltpFR	13	n/a	n/a	n/a	n/a	n/a	n/a	n/a	n/a	n/a	n/a	n/a	n/a	n/a	n/a	n/a	n/a
2082158	PROB	n/a	LTP289	ltpFR	13	n/a	n/a	n/a	n/a	n/a	n/a	n/a	20	4	9	7	n/a	n/a	n/a	n/a	n/a
2085786	PROB	n/a	LTP289	ltpFR	13	n/a	n/a	n/a	n/a	n/a	n/a	n/a	11	1	9	1	n/a	n/a	n/a	n/a	n/a
2087699	PROB	n/a	LTP289	ltpFR	13	n/a	n/a	n/a	n/a	n/a	n/a	n/a	20	2	9	9	n/a	n/a	n/a	n/a	n/a
2089514	PROB	n/a	LTP289	ltpFR	13	n/a	n/a	n/a	n/a	n/a	n/a	n/a	17	8	5	4	n/a	n/a	n/a	n/a	n/a
2091461	PROB	n/a	LTP289	ltpFR	13	n/a	n/a	n/a	n/a	n/a	n/a	n/a	4	1	2	1	n/a	n/a	n/a	n/a	n/a
2092975	PROB	n/a	LTP289	ltpFR	13	n/a	n/a	n/a	n/a	n/a	n/a	n/a	10	5	3	2	n/a	n/a	n/a	n/a	n/a
2095039	PROB	n/a	LTP289	ltpFR	13	n/a	n/a	n/a	n/a	n/a	n/a	n/a	13	6	5	2	n/a	n/a	n/a	n/a	n/a
2096468	STOP	n/a	LTP289	ltpFR	13	n/a	n/a	n/a	n/a	n/a	n/a	n/a	n/a	n/a	n/a	n/a	n/a	n/a	n/a	n/a	n/a
2098034	WORD	wordpools/wasnorm_wordpool_less_exclusions.txt	LTP289	ltpFR	13	7	0	MARINE	869	n/a	n/a	1	n/a	0	0	0	0.422607421875	0.5869140625	0	lower	amplitud.ttf
2101047	START	n/a	LTP289	ltpFR	13	n/a	n/a	n/a	n/a	n/a	n/a	n/a	n/a	n/a	n/a	n/a	n/a	n/a	n/a	n/a	n/a
2102211	PROB	n/a	LTP289	ltpFR	13	n/a	n/a	n/a	n/a	n/a	n/a	n/a	18	4	7	7	n/a	n/a	n/a	n/a	n/a
2104125	PROB	n/a	LTP289	ltpFR	13	n/a	n/a	n/a	n/a	n/a	n/a	n/a	17	5	6	6	n/a	n/a	n/a	n/a	n/a
2108385	PROB	n/a	LTP289	ltpFR	13	n/a	n/a	n/a	n/a	n/a	n/a	n/a	18	2	8	8	n/a	n/a	n/a	n/a	n/a
2110083	PROB	n/a	LTP289	ltpFR	13	n/a	n/a	n/a	n/a	n/a	n/a	n/a	13	3	1	9	n/a	n/a	n/a	n/a	n/a
2111847	PROB	n/a	LTP289	ltpFR	13	n/a	n/a	n/a	n/a	n/a	n/a	n/a	25	9	8	8	n/a	n/a	n/a	n/a	n/a
2113844	PROB	n/a	LTP289	ltpFR	13	n/a	n/a	n/a	n/a	n/a	n/a	n/a	9	1	7	1	n/a	n/a	n/a	n/a	n/a
2115408	PROB	n/a	LTP289	ltpFR	13	n/a	n/a	n/a	n/a	n/a	n/a	n/a	10	8	1	1	n/a	n/a	n/a	n/a	n/a
2116667	STOP	n/a	LTP289	ltpFR	13	n/a	n/a	n/a	n/a	n/a	n/a	n/a	n/a	n/a	n/a	n/a	n/a	n/a	n/a	n/a	n/a
2117971	WORD	wordpools/wasnorm_wordpool_less_exclusions.txt	LTP289	ltpFR	13	7	0	TIDE	1465	n/a	n/a	1	n/a	0	0	0	0.422607421875	0.5869140625	0	lower	amplitud.ttf
2120984	START	n/a	LTP289	ltpFR	13	n/a	n/a	n/a	n/a	n/a	n/a	n/a	n/a	n/a	n/a	n/a	n/a	n/a	n/a	n/a	n/a
2122032	PROB	n/a	LTP289	ltpFR	13	n/a	n/a	n/a	n/a	n/a	n/a	n/a	14	6	1	7	n/a	n/a	n/a	n/a	n/a
2123846	PROB	n/a	LTP289	ltpFR	13	n/a	n/a	n/a	n/a	n/a	n/a	n/a	10	1	6	3	n/a	n/a	n/a	n/a	n/a
2125859	PROB	n/a	LTP289	ltpFR	13	n/a	n/a	n/a	n/a	n/a	n/a	n/a	19	4	6	9	n/a	n/a	n/a	n/a	n/a
2127973	PROB	n/a	LTP289	ltpFR	13	n/a	n/a	n/a	n/a	n/a	n/a	n/a	16	2	5	9	n/a	n/a	n/a	n/a	n/a
2130086	PROB	n/a	LTP289	ltpFR	13	n/a	n/a	n/a	n/a	n/a	n/a	n/a	9	2	5	2	n/a	n/a	n/a	n/a	n/a
2132250	PROB	n/a	LTP289	ltpFR	13	n/a	n/a	n/a	n/a	n/a	n/a	n/a	17	6	7	4	n/a	n/a	n/a	n/a	n/a
2134180	PROB	n/a	LTP289	ltpFR	13	n/a	n/a	n/a	n/a	n/a	n/a	n/a	16	4	4	8	n/a	n/a	n/a	n/a	n/a
2136380	STOP	n/a	LTP289	ltpFR	13	n/a	n/a	n/a	n/a	n/a	n/a	n/a	n/a	n/a	n/a	n/a	n/a	n/a	n/a	n/a	n/a
2138008	WORD	wordpools/wasnorm_wordpool_less_exclusions.txt	LTP289	ltpFR	13	7	0	CRAB	397	n/a	n/a	0	n/a	0	0	0	0.422607421875	0.5869140625	0	lower	amplitud.ttf
2141020	START	n/a	LTP289	ltpFR	13	n/a	n/a	n/a	n/a	n/a	n/a	n/a	n/a	n/a	n/a	n/a	n/a	n/a	n/a	n/a	n/a
2142118	PROB	n/a	LTP289	ltpFR	13	n/a	n/a	n/a	n/a	n/a	n/a	n/a	13	1	7	5	n/a	n/a	n/a	n/a	n/a
2145463	PROB	n/a	LTP289	ltpFR	13	n/a	n/a	n/a	n/a	n/a	n/a	n/a	13	3	2	8	n/a	n/a	n/a	n/a	n/a
2147161	PROB	n/a	LTP289	ltpFR	13	n/a	n/a	n/a	n/a	n/a	n/a	n/a	17	4	4	9	n/a	n/a	n/a	n/a	n/a
2149606	PROB	n/a	LTP289	ltpFR	13	n/a	n/a	n/a	n/a	n/a	n/a	n/a	20	7	4	9	n/a	n/a	n/a	n/a	n/a
2151388	PROB	n/a	LTP289	ltpFR	13	n/a	n/a	n/a	n/a	n/a	n/a	n/a	17	7	2	8	n/a	n/a	n/a	n/a	n/a
2153119	PROB	n/a	LTP289	ltpFR	13	n/a	n/a	n/a	n/a	n/a	n/a	n/a	16	8	7	1	n/a	n/a	n/a	n/a	n/a
2157019	STOP	n/a	LTP289	ltpFR	13	n/a	n/a	n/a	n/a	n/a	n/a	n/a	n/a	n/a	n/a	n/a	n/a	n/a	n/a	n/a	n/a
2158011	WORD	wordpools/wasnorm_wordpool_less_exclusions.txt	LTP289	ltpFR	13	7	0	SHORE	1291	n/a	n/a	1	n/a	0	0	0	0.422607421875	0.5869140625	0	lower	amplitud.ttf
2161024	START	n/a	LTP289	ltpFR	13	n/a	n/a	n/a	n/a	n/a	n/a	n/a	n/a	n/a	n/a	n/a	n/a	n/a	n/a	n/a	n/a
2162055	PROB	n/a	LTP289	ltpFR	13	n/a	n/a	n/a	n/a	n/a	n/a	n/a	16	3	6	7	n/a	n/a	n/a	n/a	n/a
2163769	PROB	n/a	LTP289	ltpFR	13	n/a	n/a	n/a	n/a	n/a	n/a	n/a	10	2	7	1	n/a	n/a	n/a	n/a	n/a
2166199	PROB	n/a	LTP289	ltpFR	13	n/a	n/a	n/a	n/a	n/a	n/a	n/a	18	8	4	6	n/a	n/a	n/a	n/a	n/a
2167780	PROB	n/a	LTP289	ltpFR	13	n/a	n/a	n/a	n/a	n/a	n/a	n/a	12	1	6	5	n/a	n/a	n/a	n/a	n/a
2170859	PROB	n/a	LTP289	ltpFR	13	n/a	n/a	n/a	n/a	n/a	n/a	n/a	9	2	4	3	n/a	n/a	n/a	n/a	n/a
2173305	PROB	n/a	LTP289	ltpFR	13	n/a	n/a	n/a	n/a	n/a	n/a	n/a	16	4	4	8	n/a	n/a	n/a	n/a	n/a
2177024	STOP	n/a	LTP289	ltpFR	13	n/a	n/a	n/a	n/a	n/a	n/a	n/a	n/a	n/a	n/a	n/a	n/a	n/a	n/a	n/a	n/a
2178864	REC_START	n/a	LTP289	ltpFR	13	7	n/a	n/a	n/a	n/a	n/a	n/a	n/a	0	0	0	n/a	n/a	n/a	n/a	n/a
2180352	REC_WORD	wordpools/wasnorm_wordpool_less_exclusions.txt	LTP289	ltpFR	13	7	0	CRAB	397	n/a	n/a	0	n/a	0	0	0	n/a	n/a	n/a	n/a	n/a
2181329	REC_WORD	wordpools/wasnorm_wordpool_less_exclusions.txt	LTP289	ltpFR	13	7	0	TIDE	1465	n/a	n/a	1	n/a	0	0	0	n/a	n/a	n/a	n/a	n/a
2182140	REC_WORD	wordpools/wasnorm_wordpool_less_exclusions.txt	LTP289	ltpFR	13	7	0	SHORE	1291	n/a	n/a	1	n/a	0	0	0	n/a	n/a	n/a	n/a	n/a
2183276	REC_WORD	wordpools/wasnorm_wordpool_less_exclusions.txt	LTP289	ltpFR	13	7	0	INCENSE	735	n/a	n/a	0	n/a	0	0	0	n/a	n/a	n/a	n/a	n/a
2184311	REC_WORD	wordpools/wasnorm_wordpool_less_exclusions.txt	LTP289	ltpFR	13	7	0	DEODORANT	448	n/a	n/a	0	n/a	0	0	0	n/a	n/a	n/a	n/a	n/a
2185552	REC_WORD	wordpools/wasnorm_wordpool_less_exclusions.txt	LTP289	ltpFR	13	7	0	AUTHOR	61	n/a	n/a	1	n/a	0	0	0	n/a	n/a	n/a	n/a	n/a
2186658	REC_WORD	wordpools/wasnorm_wordpool_less_exclusions.txt	LTP289	ltpFR	13	7	0	WRITER	1627	n/a	n/a	1	n/a	0	0	0	n/a	n/a	n/a	n/a	n/a
2187842	REC_WORD	wordpools/wasnorm_wordpool_less_exclusions.txt	LTP289	ltpFR	13	7	0	AUTOMOBILE	62	n/a	n/a	1	n/a	0	0	0	n/a	n/a	n/a	n/a	n/a
2189447	REC_WORD	wordpools/wasnorm_wordpool_less_exclusions.txt	LTP289	ltpFR	13	7	0	CREATURE	403	n/a	n/a	1	n/a	0	0	0	n/a	n/a	n/a	n/a	n/a
2190633	REC_WORD	wordpools/wasnorm_wordpool_less_exclusions.txt	LTP289	ltpFR	13	7	0	LEADER	807	n/a	n/a	1	n/a	0	0	0	n/a	n/a	n/a	n/a	n/a
2191813	REC_WORD	wordpools/wasnorm_wordpool_less_exclusions.txt	LTP289	ltpFR	13	7	0	HINGE	709	n/a	n/a	0	n/a	0	0	0	n/a	n/a	n/a	n/a	n/a
2198477	REC_WORD	wordpools/wasnorm_wordpool_less_exclusions.txt	LTP289	ltpFR	13	7	0	KIWI	781	n/a	n/a	0	n/a	0	0	0	n/a	n/a	n/a	n/a	n/a
2202085	REC_WORD	wordpools/wasnorm_wordpool_less_exclusions.txt	LTP289	ltpFR	13	7	0	CONSOLE	364	n/a	n/a	1	n/a	0	0	0	n/a	n/a	n/a	n/a	n/a
2283341	WORD	wordpools/wasnorm_wordpool_less_exclusions.txt	LTP289	ltpFR	13	8	0	TWIG	1527	n/a	n/a	0	n/a	0	0	0	0.422607421875	0.5869140625	0	lower	amplitud.ttf
2287468	WORD	wordpools/wasnorm_wordpool_less_exclusions.txt	LTP289	ltpFR	13	8	0	DINER	467	n/a	n/a	0	n/a	0	0	0	0.422607421875	0.5869140625	0	lower	amplitud.ttf
2291594	WORD	wordpools/wasnorm_wordpool_less_exclusions.txt	LTP289	ltpFR	13	8	0	LUGGAGE	847	n/a	n/a	0	n/a	0	0	0	0.422607421875	0.5869140625	0	lower	amplitud.ttf
2295772	WORD	wordpools/wasnorm_wordpool_less_exclusions.txt	LTP289	ltpFR	13	8	0	RECEIPT	1173	n/a	n/a	0	n/a	0	0	0	0.422607421875	0.5869140625	0	lower	amplitud.ttf
2299699	WORD	wordpools/wasnorm_wordpool_less_exclusions.txt	LTP289	ltpFR	13	8	0	CONTAINER	366	n/a	n/a	1	n/a	0	0	0	0.422607421875	0.5869140625	0	lower	amplitud.ttf
2303626	WORD	wordpools/wasnorm_wordpool_less_exclusions.txt	LTP289	ltpFR	13	8	0	SHIRT	1287	n/a	n/a	0	n/a	0	0	0	0.422607421875	0.5869140625	0	lower	amplitud.ttf
2307754	WORD	wordpools/wasnorm_wordpool_less_exclusions.txt	LTP289	ltpFR	13	8	0	LACE	792	n/a	n/a	1	n/a	0	0	0	0.422607421875	0.5869140625	0	lower	amplitud.ttf
2311981	WORD	wordpools/wasnorm_wordpool_less_exclusions.txt	LTP289	ltpFR	13	8	0	WATERFALL	1595	n/a	n/a	1	n/a	0	0	0	0.422607421875	0.5869140625	0	lower	amplitud.ttf
2315892	WORD	wordpools/wasnorm_wordpool_less_exclusions.txt	LTP289	ltpFR	13	8	0	BROOK	177	n/a	n/a	1	n/a	0	0	0	0.422607421875	0.5869140625	0	lower	amplitud.ttf
2319953	WORD	wordpools/wasnorm_wordpool_less_exclusions.txt	LTP289	ltpFR	13	8	0	TAPIOCA	1434	n/a	n/a	0	n/a	0	0	0	0.422607421875	0.5869140625	0	lower	amplitud.ttf
2323814	WORD	wordpools/wasnorm_wordpool_less_exclusions.txt	LTP289	ltpFR	13	8	0	TOURIST	1488	n/a	n/a	1	n/a	0	0	0	0.422607421875	0.5869140625	0	lower	amplitud.ttf
2327941	WORD	wordpools/wasnorm_wordpool_less_exclusions.txt	LTP289	ltpFR	13	8	0	PUDDLE	1140	n/a	n/a	0	n/a	0	0	0	0.422607421875	0.5869140625	0	lower	amplitud.ttf
2332002	WORD	wordpools/wasnorm_wordpool_less_exclusions.txt	LTP289	ltpFR	13	8	0	PEARL	1034	n/a	n/a	0	n/a	0	0	0	0.422607421875	0.5869140625	0	lower	amplitud.ttf
2336179	WORD	wordpools/wasnorm_wordpool_less_exclusions.txt	LTP289	ltpFR	13	8	0	CABOOSE	214	n/a	n/a	1	n/a	0	0	0	0.422607421875	0.5869140625	0	lower	amplitud.ttf
2340339	WORD	wordpools/wasnorm_wordpool_less_exclusions.txt	LTP289	ltpFR	13	8	0	WAGON	1578	n/a	n/a	1	n/a	0	0	0	0.422607421875	0.5869140625	0	lower	amplitud.ttf
2344200	WORD	wordpools/wasnorm_wordpool_less_exclusions.txt	LTP289	ltpFR	13	8	0	SHRUB	1299	n/a	n/a	1	n/a	0	0	0	0.422607421875	0.5869140625	0	lower	amplitud.ttf
2347212	START	n/a	LTP289	ltpFR	13	n/a	n/a	n/a	n/a	n/a	n/a	n/a	n/a	n/a	n/a	n/a	n/a	n/a	n/a	n/a	n/a
2348177	PROB	n/a	LTP289	ltpFR	13	n/a	n/a	n/a	n/a	n/a	n/a	n/a	15	6	2	7	n/a	n/a	n/a	n/a	n/a
2350474	PROB	n/a	LTP289	ltpFR	13	n/a	n/a	n/a	n/a	n/a	n/a	n/a	13	1	3	9	n/a	n/a	n/a	n/a	n/a
2351922	PROB	n/a	LTP289	ltpFR	13	n/a	n/a	n/a	n/a	n/a	n/a	n/a	17	4	7	6	n/a	n/a	n/a	n/a	n/a
2353553	PROB	n/a	LTP289	ltpFR	13	n/a	n/a	n/a	n/a	n/a	n/a	n/a	19	8	2	9	n/a	n/a	n/a	n/a	n/a
2355092	STOP	n/a	LTP289	ltpFR	13	n/a	n/a	n/a	n/a	n/a	n/a	n/a	n/a	n/a	n/a	n/a	n/a	n/a	n/a	n/a	n/a
2357115	REC_START	n/a	LTP289	ltpFR	13	8	n/a	n/a	n/a	n/a	n/a	n/a	n/a	0	0	0	n/a	n/a	n/a	n/a	n/a
2358031	REC_WORD	wordpools/wasnorm_wordpool_less_exclusions.txt	LTP289	ltpFR	13	8	0	CABOOSE	214	n/a	n/a	1	n/a	0	0	0	n/a	n/a	n/a	n/a	n/a
2359968	REC_WORD	wordpools/wasnorm_wordpool_less_exclusions.txt	LTP289	ltpFR	13	8	0	LUGGAGE	847	n/a	n/a	0	n/a	0	0	0	n/a	n/a	n/a	n/a	n/a
2360784	REC_WORD	wordpools/wasnorm_wordpool_less_exclusions.txt	LTP289	ltpFR	13	8	0	CONTAINER	366	n/a	n/a	1	n/a	0	0	0	n/a	n/a	n/a	n/a	n/a
2361982	REC_WORD	wordpools/wasnorm_wordpool_less_exclusions.txt	LTP289	ltpFR	13	8	0	RECEIPT	1173	n/a	n/a	0	n/a	0	0	0	n/a	n/a	n/a	n/a	n/a
2363104	REC_WORD	wordpools/wasnorm_wordpool_less_exclusions.txt	LTP289	ltpFR	13	8	0	TWIG	1527	n/a	n/a	0	n/a	0	0	0	n/a	n/a	n/a	n/a	n/a
2364244	REC_WORD	wordpools/wasnorm_wordpool_less_exclusions.txt	LTP289	ltpFR	13	8	0	DINER	467	n/a	n/a	0	n/a	0	0	0	n/a	n/a	n/a	n/a	n/a
2366099	REC_WORD	wordpools/wasnorm_wordpool_less_exclusions.txt	LTP289	ltpFR	13	8	0	BROOK	177	n/a	n/a	1	n/a	0	0	0	n/a	n/a	n/a	n/a	n/a
2367093	REC_WORD	wordpools/wasnorm_wordpool_less_exclusions.txt	LTP289	ltpFR	13	8	0	WATERFALL	1595	n/a	n/a	1	n/a	0	0	0	n/a	n/a	n/a	n/a	n/a
2368208	REC_WORD	wordpools/wasnorm_wordpool_less_exclusions.txt	LTP289	ltpFR	13	8	0	TAPIOCA	1434	n/a	n/a	0	n/a	0	0	0	n/a	n/a	n/a	n/a	n/a
2381101	REC_WORD	wordpools/wasnorm_wordpool_less_exclusions.txt	LTP289	ltpFR	13	8	0	WAGON	1578	n/a	n/a	1	n/a	0	0	0	n/a	n/a	n/a	n/a	n/a
2384501	REC_WORD	wordpools/wasnorm_wordpool_less_exclusions.txt	LTP289	ltpFR	13	8	0	SHRUB	1299	n/a	n/a	1	n/a	0	0	0	n/a	n/a	n/a	n/a	n/a
2486022	START	n/a	LTP289	ltpFR	13	n/a	n/a	n/a	n/a	n/a	n/a	n/a	n/a	n/a	n/a	n/a	n/a	n/a	n/a	n/a	n/a
2487536	PROB	n/a	LTP289	ltpFR	13	n/a	n/a	n/a	n/a	n/a	n/a	n/a	11	4	4	3	n/a	n/a	n/a	n/a	n/a
2489350	PROB	n/a	LTP289	ltpFR	13	n/a	n/a	n/a	n/a	n/a	n/a	n/a	14	6	7	1	n/a	n/a	n/a	n/a	n/a
2491297	PROB	n/a	LTP289	ltpFR	13	n/a	n/a	n/a	n/a	n/a	n/a	n/a	14	2	8	4	n/a	n/a	n/a	n/a	n/a
2492811	PROB	n/a	LTP289	ltpFR	13	n/a	n/a	n/a	n/a	n/a	n/a	n/a	21	3	9	9	n/a	n/a	n/a	n/a	n/a
2494825	PROB	n/a	LTP289	ltpFR	13	n/a	n/a	n/a	n/a	n/a	n/a	n/a	21	8	4	9	n/a	n/a	n/a	n/a	n/a
2496671	PROB	n/a	LTP289	ltpFR	13	n/a	n/a	n/a	n/a	n/a	n/a	n/a	18	9	7	2	n/a	n/a	n/a	n/a	n/a
2498685	PROB	n/a	LTP289	ltpFR	13	n/a	n/a	n/a	n/a	n/a	n/a	n/a	11	2	8	1	n/a	n/a	n/a	n/a	n/a
2502022	STOP	n/a	LTP289	ltpFR	13	n/a	n/a	n/a	n/a	n/a	n/a	n/a	n/a	n/a	n/a	n/a	n/a	n/a	n/a	n/a	n/a
2502963	WORD	wordpools/wasnorm_wordpool_less_exclusions.txt	LTP289	ltpFR	13	9	1	CHEMICAL	291	n/a	n/a	0	n/a	0	0	0	0.57763671875	0.412841796875	1	upper	zerothre.ttf
2505976	START	n/a	LTP289	ltpFR	13	n/a	n/a	n/a	n/a	n/a	n/a	n/a	n/a	n/a	n/a	n/a	n/a	n/a	n/a	n/a	n/a
2506874	PROB	n/a	LTP289	ltpFR	13	n/a	n/a	n/a	n/a	n/a	n/a	n/a	18	9	1	8	n/a	n/a	n/a	n/a	n/a
2508272	PROB	n/a	LTP289	ltpFR	13	n/a	n/a	n/a	n/a	n/a	n/a	n/a	14	7	5	2	n/a	n/a	n/a	n/a	n/a
2510418	PROB	n/a	LTP289	ltpFR	13	n/a	n/a	n/a	n/a	n/a	n/a	n/a	12	3	3	6	n/a	n/a	n/a	n/a	n/a
2513714	PROB	n/a	LTP289	ltpFR	13	n/a	n/a	n/a	n/a	n/a	n/a	n/a	11	8	1	2	n/a	n/a	n/a	n/a	n/a
2514845	PROB	n/a	LTP289	ltpFR	13	n/a	n/a	n/a	n/a	n/a	n/a	n/a	14	7	2	5	n/a	n/a	n/a	n/a	n/a
2516942	PROB	n/a	LTP289	ltpFR	13	n/a	n/a	n/a	n/a	n/a	n/a	n/a	21	3	9	9	n/a	n/a	n/a	n/a	n/a
2518906	PROB	n/a	LTP289	ltpFR	13	n/a	n/a	n/a	n/a	n/a	n/a	n/a	9	2	3	4	n/a	n/a	n/a	n/a	n/a
2520643	STOP	n/a	LTP289	ltpFR	13	n/a	n/a	n/a	n/a	n/a	n/a	n/a	n/a	n/a	n/a	n/a	n/a	n/a	n/a	n/a	n/a
2523100	WORD	wordpools/wasnorm_wordpool_less_exclusions.txt	LTP289	ltpFR	13	9	1	BIOLOGIST	128	n/a	n/a	1	n/a	0	0	0	0.57763671875	0.412841796875	1	upper	zerothre.ttf
2526112	START	n/a	LTP289	ltpFR	13	n/a	n/a	n/a	n/a	n/a	n/a	n/a	n/a	n/a	n/a	n/a	n/a	n/a	n/a	n/a	n/a
2527027	PROB	n/a	LTP289	ltpFR	13	n/a	n/a	n/a	n/a	n/a	n/a	n/a	8	2	2	4	n/a	n/a	n/a	n/a	n/a
2529157	PROB	n/a	LTP289	ltpFR	13	n/a	n/a	n/a	n/a	n/a	n/a	n/a	15	3	5	7	n/a	n/a	n/a	n/a	n/a
2531221	PROB	n/a	LTP289	ltpFR	13	n/a	n/a	n/a	n/a	n/a	n/a	n/a	7	2	2	3	n/a	n/a	n/a	n/a	n/a
2534483	PROB	n/a	LTP289	ltpFR	13	n/a	n/a	n/a	n/a	n/a	n/a	n/a	7	3	1	3	n/a	n/a	n/a	n/a	n/a
2537012	PROB	n/a	LTP289	ltpFR	13	n/a	n/a	n/a	n/a	n/a	n/a	n/a	10	5	4	1	n/a	n/a	n/a	n/a	n/a
2538609	PROB	n/a	LTP289	ltpFR	13	n/a	n/a	n/a	n/a	n/a	n/a	n/a	14	2	7	5	n/a	n/a	n/a	n/a	n/a
2541068	STOP	n/a	LTP289	ltpFR	13	n/a	n/a	n/a	n/a	n/a	n/a	n/a	n/a	n/a	n/a	n/a	n/a	n/a	n/a	n/a	n/a
2543070	WORD	wordpools/wasnorm_wordpool_less_exclusions.txt	LTP289	ltpFR	13	9	0	FATHER	554	n/a	n/a	1	n/a	0	0	0	0.422607421875	0.5869140625	0	lower	amplitud.ttf
2546082	START	n/a	LTP289	ltpFR	13	n/a	n/a	n/a	n/a	n/a	n/a	n/a	n/a	n/a	n/a	n/a	n/a	n/a	n/a	n/a	n/a
2546897	PROB	n/a	LTP289	ltpFR	13	n/a	n/a	n/a	n/a	n/a	n/a	n/a	10	6	3	1	n/a	n/a	n/a	n/a	n/a
2549327	PROB	n/a	LTP289	ltpFR	13	n/a	n/a	n/a	n/a	n/a	n/a	n/a	17	7	9	1	n/a	n/a	n/a	n/a	n/a
2551074	PROB	n/a	LTP289	ltpFR	13	n/a	n/a	n/a	n/a	n/a	n/a	n/a	8	1	1	6	n/a	n/a	n/a	n/a	n/a
2552439	PROB	n/a	LTP289	ltpFR	13	n/a	n/a	n/a	n/a	n/a	n/a	n/a	17	5	8	4	n/a	n/a	n/a	n/a	n/a
2556000	PROB	n/a	LTP289	ltpFR	13	n/a	n/a	n/a	n/a	n/a	n/a	n/a	12	7	4	1	n/a	n/a	n/a	n/a	n/a
2558081	PROB	n/a	LTP289	ltpFR	13	n/a	n/a	n/a	n/a	n/a	n/a	n/a	15	6	3	6	n/a	n/a	n/a	n/a	n/a
2560996	STOP	n/a	LTP289	ltpFR	13	n/a	n/a	n/a	n/a	n/a	n/a	n/a	n/a	n/a	n/a	n/a	n/a	n/a	n/a	n/a	n/a
2562923	WORD	wordpools/wasnorm_wordpool_less_exclusions.txt	LTP289	ltpFR	13	9	0	PEN	1041	n/a	n/a	0	n/a	0	0	0	0.422607421875	0.5869140625	0	lower	amplitud.ttf
2565936	START	n/a	LTP289	ltpFR	13	n/a	n/a	n/a	n/a	n/a	n/a	n/a	n/a	n/a	n/a	n/a	n/a	n/a	n/a	n/a	n/a
2566917	PROB	n/a	LTP289	ltpFR	13	n/a	n/a	n/a	n/a	n/a	n/a	n/a	14	8	1	5	n/a	n/a	n/a	n/a	n/a
2570995	PROB	n/a	LTP289	ltpFR	13	n/a	n/a	n/a	n/a	n/a	n/a	n/a	13	8	4	1	n/a	n/a	n/a	n/a	n/a
2573175	PROB	n/a	LTP289	ltpFR	13	n/a	n/a	n/a	n/a	n/a	n/a	n/a	18	6	4	8	n/a	n/a	n/a	n/a	n/a
2575172	PROB	n/a	LTP289	ltpFR	13	n/a	n/a	n/a	n/a	n/a	n/a	n/a	19	9	2	8	n/a	n/a	n/a	n/a	n/a
2578450	PROB	n/a	LTP289	ltpFR	13	n/a	n/a	n/a	n/a	n/a	n/a	n/a	8	2	1	5	n/a	n/a	n/a	n/a	n/a
2580048	PROB	n/a	LTP289	ltpFR	13	n/a	n/a	n/a	n/a	n/a	n/a	n/a	12	6	2	4	n/a	n/a	n/a	n/a	n/a
2581564	STOP	n/a	LTP289	ltpFR	13	n/a	n/a	n/a	n/a	n/a	n/a	n/a	n/a	n/a	n/a	n/a	n/a	n/a	n/a	n/a	n/a
2582993	WORD	wordpools/wasnorm_wordpool_less_exclusions.txt	LTP289	ltpFR	13	9	0	COMMUNITY	356	n/a	n/a	1	n/a	0	0	0	0.422607421875	0.5869140625	0	lower	amplitud.ttf
2586006	START	n/a	LTP289	ltpFR	13	n/a	n/a	n/a	n/a	n/a	n/a	n/a	n/a	n/a	n/a	n/a	n/a	n/a	n/a	n/a	n/a
2586971	PROB	n/a	LTP289	ltpFR	13	n/a	n/a	n/a	n/a	n/a	n/a	n/a	10	1	3	6	n/a	n/a	n/a	n/a	n/a
2589517	PROB	n/a	LTP289	ltpFR	13	n/a	n/a	n/a	n/a	n/a	n/a	n/a	22	9	7	6	n/a	n/a	n/a	n/a	n/a
2593195	PROB	n/a	LTP289	ltpFR	13	n/a	n/a	n/a	n/a	n/a	n/a	n/a	17	2	8	7	n/a	n/a	n/a	n/a	n/a
2594608	PROB	n/a	LTP289	ltpFR	13	n/a	n/a	n/a	n/a	n/a	n/a	n/a	13	5	4	4	n/a	n/a	n/a	n/a	n/a
2596906	PROB	n/a	LTP289	ltpFR	13	n/a	n/a	n/a	n/a	n/a	n/a	n/a	19	3	7	9	n/a	n/a	n/a	n/a	n/a
2602006	STOP	n/a	LTP289	ltpFR	13	n/a	n/a	n/a	n/a	n/a	n/a	n/a	n/a	n/a	n/a	n/a	n/a	n/a	n/a	n/a	n/a
2602864	WORD	wordpools/wasnorm_wordpool_less_exclusions.txt	LTP289	ltpFR	13	9	0	PASSAGE	1019	n/a	n/a	1	n/a	0	0	0	0.422607421875	0.5869140625	0	lower	amplitud.ttf
2605876	START	n/a	LTP289	ltpFR	13	n/a	n/a	n/a	n/a	n/a	n/a	n/a	n/a	n/a	n/a	n/a	n/a	n/a	n/a	n/a	n/a
2607057	PROB	n/a	LTP289	ltpFR	13	n/a	n/a	n/a	n/a	n/a	n/a	n/a	19	5	6	8	n/a	n/a	n/a	n/a	n/a
2609104	PROB	n/a	LTP289	ltpFR	13	n/a	n/a	n/a	n/a	n/a	n/a	n/a	14	3	6	5	n/a	n/a	n/a	n/a	n/a
2611268	PROB	n/a	LTP289	ltpFR	13	n/a	n/a	n/a	n/a	n/a	n/a	n/a	22	9	5	8	n/a	n/a	n/a	n/a	n/a
2614047	PROB	n/a	LTP289	ltpFR	13	n/a	n/a	n/a	n/a	n/a	n/a	n/a	21	6	7	8	n/a	n/a	n/a	n/a	n/a
2616993	PROB	n/a	LTP289	ltpFR	13	n/a	n/a	n/a	n/a	n/a	n/a	n/a	9	2	2	5	n/a	n/a	n/a	n/a	n/a
2619489	PROB	n/a	LTP289	ltpFR	13	n/a	n/a	n/a	n/a	n/a	n/a	n/a	16	6	6	4	n/a	n/a	n/a	n/a	n/a
2621061	STOP	n/a	LTP289	ltpFR	13	n/a	n/a	n/a	n/a	n/a	n/a	n/a	n/a	n/a	n/a	n/a	n/a	n/a	n/a	n/a	n/a
2623017	WORD	wordpools/wasnorm_wordpool_less_exclusions.txt	LTP289	ltpFR	13	9	0	PAGE	1001	n/a	n/a	0	n/a	0	0	0	0.422607421875	0.5869140625	0	lower	amplitud.ttf
2626030	START	n/a	LTP289	ltpFR	13	n/a	n/a	n/a	n/a	n/a	n/a	n/a	n/a	n/a	n/a	n/a	n/a	n/a	n/a	n/a	n/a
2627194	PROB	n/a	LTP289	ltpFR	13	n/a	n/a	n/a	n/a	n/a	n/a	n/a	18	7	9	2	n/a	n/a	n/a	n/a	n/a
2629008	PROB	n/a	LTP289	ltpFR	13	n/a	n/a	n/a	n/a	n/a	n/a	n/a	17	3	6	8	n/a	n/a	n/a	n/a	n/a
2633019	PROB	n/a	LTP289	ltpFR	13	n/a	n/a	n/a	n/a	n/a	n/a	n/a	12	3	3	6	n/a	n/a	n/a	n/a	n/a
2635265	PROB	n/a	LTP289	ltpFR	13	n/a	n/a	n/a	n/a	n/a	n/a	n/a	13	6	1	6	n/a	n/a	n/a	n/a	n/a
2638278	PROB	n/a	LTP289	ltpFR	13	n/a	n/a	n/a	n/a	n/a	n/a	n/a	24	8	8	6	n/a	n/a	n/a	n/a	n/a
2640861	STOP	n/a	LTP289	ltpFR	13	n/a	n/a	n/a	n/a	n/a	n/a	n/a	n/a	n/a	n/a	n/a	n/a	n/a	n/a	n/a	n/a
2642971	WORD	wordpools/wasnorm_wordpool_less_exclusions.txt	LTP289	ltpFR	13	9	0	INTESTINE	742	n/a	n/a	1	n/a	0	0	0	0.422607421875	0.5869140625	0	lower	amplitud.ttf
2645983	START	n/a	LTP289	ltpFR	13	n/a	n/a	n/a	n/a	n/a	n/a	n/a	n/a	n/a	n/a	n/a	n/a	n/a	n/a	n/a	n/a
2646798	PROB	n/a	LTP289	ltpFR	13	n/a	n/a	n/a	n/a	n/a	n/a	n/a	14	1	5	8	n/a	n/a	n/a	n/a	n/a
2649378	PROB	n/a	LTP289	ltpFR	13	n/a	n/a	n/a	n/a	n/a	n/a	n/a	6	1	4	1	n/a	n/a	n/a	n/a	n/a
2651208	PROB	n/a	LTP289	ltpFR	13	n/a	n/a	n/a	n/a	n/a	n/a	n/a	14	5	6	3	n/a	n/a	n/a	n/a	n/a
2652823	PROB	n/a	LTP289	ltpFR	13	n/a	n/a	n/a	n/a	n/a	n/a	n/a	14	7	6	1	n/a	n/a	n/a	n/a	n/a
2654453	PROB	n/a	LTP289	ltpFR	13	n/a	n/a	n/a	n/a	n/a	n/a	n/a	15	5	4	6	n/a	n/a	n/a	n/a	n/a
2656583	PROB	n/a	LTP289	ltpFR	13	n/a	n/a	n/a	n/a	n/a	n/a	n/a	11	6	1	4	n/a	n/a	n/a	n/a	n/a
2657998	PROB	n/a	LTP289	ltpFR	13	n/a	n/a	n/a	n/a	n/a	n/a	n/a	12	4	7	1	n/a	n/a	n/a	n/a	n/a
2661983	STOP	n/a	LTP289	ltpFR	13	n/a	n/a	n/a	n/a	n/a	n/a	n/a	n/a	n/a	n/a	n/a	n/a	n/a	n/a	n/a	n/a
2663140	WORD	wordpools/wasnorm_wordpool_less_exclusions.txt	LTP289	ltpFR	13	9	1	CUP	424	n/a	n/a	0	n/a	0	0	0	0.57763671875	0.412841796875	1	upper	zerothre.ttf
2666153	START	n/a	LTP289	ltpFR	13	n/a	n/a	n/a	n/a	n/a	n/a	n/a	n/a	n/a	n/a	n/a	n/a	n/a	n/a	n/a	n/a
2667201	PROB	n/a	LTP289	ltpFR	13	n/a	n/a	n/a	n/a	n/a	n/a	n/a	11	2	1	8	n/a	n/a	n/a	n/a	n/a
2668482	PROB	n/a	LTP289	ltpFR	13	n/a	n/a	n/a	n/a	n/a	n/a	n/a	13	4	4	5	n/a	n/a	n/a	n/a	n/a
2670479	PROB	n/a	LTP289	ltpFR	13	n/a	n/a	n/a	n/a	n/a	n/a	n/a	16	5	8	3	n/a	n/a	n/a	n/a	n/a
2672443	PROB	n/a	LTP289	ltpFR	13	n/a	n/a	n/a	n/a	n/a	n/a	n/a	16	4	7	5	n/a	n/a	n/a	n/a	n/a
2674407	PROB	n/a	LTP289	ltpFR	13	n/a	n/a	n/a	n/a	n/a	n/a	n/a	19	7	6	6	n/a	n/a	n/a	n/a	n/a
2676337	PROB	n/a	LTP289	ltpFR	13	n/a	n/a	n/a	n/a	n/a	n/a	n/a	22	7	9	6	n/a	n/a	n/a	n/a	n/a
2678351	PROB	n/a	LTP289	ltpFR	13	n/a	n/a	n/a	n/a	n/a	n/a	n/a	18	8	8	2	n/a	n/a	n/a	n/a	n/a
2679799	PROB	n/a	LTP289	ltpFR	13	n/a	n/a	n/a	n/a	n/a	n/a	n/a	16	8	3	5	n/a	n/a	n/a	n/a	n/a
2681341	STOP	n/a	LTP289	ltpFR	13	n/a	n/a	n/a	n/a	n/a	n/a	n/a	n/a	n/a	n/a	n/a	n/a	n/a	n/a	n/a	n/a
2683227	WORD	wordpools/wasnorm_wordpool_less_exclusions.txt	LTP289	ltpFR	13	9	1	MANSION	864	n/a	n/a	0	n/a	0	0	0	0.57763671875	0.412841796875	1	upper	zerothre.ttf
2686240	START	n/a	LTP289	ltpFR	13	n/a	n/a	n/a	n/a	n/a	n/a	n/a	n/a	n/a	n/a	n/a	n/a	n/a	n/a	n/a	n/a
2687321	PROB	n/a	LTP289	ltpFR	13	n/a	n/a	n/a	n/a	n/a	n/a	n/a	12	9	1	2	n/a	n/a	n/a	n/a	n/a
2689285	PROB	n/a	LTP289	ltpFR	13	n/a	n/a	n/a	n/a	n/a	n/a	n/a	21	8	5	8	n/a	n/a	n/a	n/a	n/a
2691298	PROB	n/a	LTP289	ltpFR	13	n/a	n/a	n/a	n/a	n/a	n/a	n/a	13	5	2	6	n/a	n/a	n/a	n/a	n/a
2694527	PROB	n/a	LTP289	ltpFR	13	n/a	n/a	n/a	n/a	n/a	n/a	n/a	8	4	3	1	n/a	n/a	n/a	n/a	n/a
2696308	PROB	n/a	LTP289	ltpFR	13	n/a	n/a	n/a	n/a	n/a	n/a	n/a	13	4	5	4	n/a	n/a	n/a	n/a	n/a
2698255	PROB	n/a	LTP289	ltpFR	13	n/a	n/a	n/a	n/a	n/a	n/a	n/a	11	4	2	5	n/a	n/a	n/a	n/a	n/a
2700667	PROB	n/a	LTP289	ltpFR	13	n/a	n/a	n/a	n/a	n/a	n/a	n/a	11	1	5	5	n/a	n/a	n/a	n/a	n/a
2701644	STOP	n/a	LTP289	ltpFR	13	n/a	n/a	n/a	n/a	n/a	n/a	n/a	n/a	n/a	n/a	n/a	n/a	n/a	n/a	n/a	n/a
2703081	WORD	wordpools/wasnorm_wordpool_less_exclusions.txt	LTP289	ltpFR	13	9	1	VILLAGE	1566	n/a	n/a	0	n/a	0	0	0	0.57763671875	0.412841796875	1	upper	zerothre.ttf
2706093	START	n/a	LTP289	ltpFR	13	n/a	n/a	n/a	n/a	n/a	n/a	n/a	n/a	n/a	n/a	n/a	n/a	n/a	n/a	n/a	n/a
2707191	PROB	n/a	LTP289	ltpFR	13	n/a	n/a	n/a	n/a	n/a	n/a	n/a	8	4	1	3	n/a	n/a	n/a	n/a	n/a
2709222	PROB	n/a	LTP289	ltpFR	13	n/a	n/a	n/a	n/a	n/a	n/a	n/a	23	9	9	5	n/a	n/a	n/a	n/a	n/a
2711584	PROB	n/a	LTP289	ltpFR	13	n/a	n/a	n/a	n/a	n/a	n/a	n/a	18	7	2	9	n/a	n/a	n/a	n/a	n/a
2713399	PROB	n/a	LTP289	ltpFR	13	n/a	n/a	n/a	n/a	n/a	n/a	n/a	14	1	8	5	n/a	n/a	n/a	n/a	n/a
2715246	PROB	n/a	LTP289	ltpFR	13	n/a	n/a	n/a	n/a	n/a	n/a	n/a	16	7	5	4	n/a	n/a	n/a	n/a	n/a
2718341	PROB	n/a	LTP289	ltpFR	13	n/a	n/a	n/a	n/a	n/a	n/a	n/a	22	4	9	9	n/a	n/a	n/a	n/a	n/a
2722093	STOP	n/a	LTP289	ltpFR	13	n/a	n/a	n/a	n/a	n/a	n/a	n/a	n/a	n/a	n/a	n/a	n/a	n/a	n/a	n/a	n/a
2723184	WORD	wordpools/wasnorm_wordpool_less_exclusions.txt	LTP289	ltpFR	13	9	0	FINGERNAIL	568	n/a	n/a	0	n/a	0	0	0	0.422607421875	0.5869140625	0	lower	amplitud.ttf
2726197	START	n/a	LTP289	ltpFR	13	n/a	n/a	n/a	n/a	n/a	n/a	n/a	n/a	n/a	n/a	n/a	n/a	n/a	n/a	n/a	n/a
2727062	PROB	n/a	LTP289	ltpFR	13	n/a	n/a	n/a	n/a	n/a	n/a	n/a	19	3	9	7	n/a	n/a	n/a	n/a	n/a
2729541	PROB	n/a	LTP289	ltpFR	13	n/a	n/a	n/a	n/a	n/a	n/a	n/a	22	7	8	7	n/a	n/a	n/a	n/a	n/a
2733785	PROB	n/a	LTP289	ltpFR	13	n/a	n/a	n/a	n/a	n/a	n/a	n/a	13	4	6	3	n/a	n/a	n/a	n/a	n/a
2735965	PROB	n/a	LTP289	ltpFR	13	n/a	n/a	n/a	n/a	n/a	n/a	n/a	11	5	1	5	n/a	n/a	n/a	n/a	n/a
2737197	PROB	n/a	LTP289	ltpFR	13	n/a	n/a	n/a	n/a	n/a	n/a	n/a	26	9	9	8	n/a	n/a	n/a	n/a	n/a
2739227	PROB	n/a	LTP289	ltpFR	13	n/a	n/a	n/a	n/a	n/a	n/a	n/a	18	1	8	9	n/a	n/a	n/a	n/a	n/a
2740845	STOP	n/a	LTP289	ltpFR	13	n/a	n/a	n/a	n/a	n/a	n/a	n/a	n/a	n/a	n/a	n/a	n/a	n/a	n/a	n/a	n/a
2743021	WORD	wordpools/wasnorm_wordpool_less_exclusions.txt	LTP289	ltpFR	13	9	0	CUFF	423	n/a	n/a	0	n/a	0	0	0	0.422607421875	0.5869140625	0	lower	amplitud.ttf
2746034	START	n/a	LTP289	ltpFR	13	n/a	n/a	n/a	n/a	n/a	n/a	n/a	n/a	n/a	n/a	n/a	n/a	n/a	n/a	n/a	n/a
2746849	PROB	n/a	LTP289	ltpFR	13	n/a	n/a	n/a	n/a	n/a	n/a	n/a	14	5	8	1	n/a	n/a	n/a	n/a	n/a
2748678	PROB	n/a	LTP289	ltpFR	13	n/a	n/a	n/a	n/a	n/a	n/a	n/a	17	6	8	3	n/a	n/a	n/a	n/a	n/a
2751624	PROB	n/a	LTP289	ltpFR	13	n/a	n/a	n/a	n/a	n/a	n/a	n/a	17	7	8	2	n/a	n/a	n/a	n/a	n/a
2753223	PROB	n/a	LTP289	ltpFR	13	n/a	n/a	n/a	n/a	n/a	n/a	n/a	18	4	9	5	n/a	n/a	n/a	n/a	n/a
2755136	PROB	n/a	LTP289	ltpFR	13	n/a	n/a	n/a	n/a	n/a	n/a	n/a	18	7	5	6	n/a	n/a	n/a	n/a	n/a
2757366	PROB	n/a	LTP289	ltpFR	13	n/a	n/a	n/a	n/a	n/a	n/a	n/a	10	2	7	1	n/a	n/a	n/a	n/a	n/a
2759180	PROB	n/a	LTP289	ltpFR	13	n/a	n/a	n/a	n/a	n/a	n/a	n/a	14	6	3	5	n/a	n/a	n/a	n/a	n/a
2761269	STOP	n/a	LTP289	ltpFR	13	n/a	n/a	n/a	n/a	n/a	n/a	n/a	n/a	n/a	n/a	n/a	n/a	n/a	n/a	n/a	n/a
2762991	WORD	wordpools/wasnorm_wordpool_less_exclusions.txt	LTP289	ltpFR	13	9	1	PARROT	1015	n/a	n/a	1	n/a	0	0	0	0.57763671875	0.412841796875	1	upper	zerothre.ttf
2766004	START	n/a	LTP289	ltpFR	13	n/a	n/a	n/a	n/a	n/a	n/a	n/a	n/a	n/a	n/a	n/a	n/a	n/a	n/a	n/a	n/a
2767202	PROB	n/a	LTP289	ltpFR	13	n/a	n/a	n/a	n/a	n/a	n/a	n/a	5	1	3	1	n/a	n/a	n/a	n/a	n/a
2768516	PROB	n/a	LTP289	ltpFR	13	n/a	n/a	n/a	n/a	n/a	n/a	n/a	17	1	7	9	n/a	n/a	n/a	n/a	n/a
2770147	PROB	n/a	LTP289	ltpFR	13	n/a	n/a	n/a	n/a	n/a	n/a	n/a	8	5	1	2	n/a	n/a	n/a	n/a	n/a
2771594	PROB	n/a	LTP289	ltpFR	13	n/a	n/a	n/a	n/a	n/a	n/a	n/a	19	6	5	8	n/a	n/a	n/a	n/a	n/a
2773259	PROB	n/a	LTP289	ltpFR	13	n/a	n/a	n/a	n/a	n/a	n/a	n/a	12	1	3	8	n/a	n/a	n/a	n/a	n/a
2775206	PROB	n/a	LTP289	ltpFR	13	n/a	n/a	n/a	n/a	n/a	n/a	n/a	19	8	6	5	n/a	n/a	n/a	n/a	n/a
2777852	PROB	n/a	LTP289	ltpFR	13	n/a	n/a	n/a	n/a	n/a	n/a	n/a	21	9	5	7	n/a	n/a	n/a	n/a	n/a
2780676	STOP	n/a	LTP289	ltpFR	13	n/a	n/a	n/a	n/a	n/a	n/a	n/a	n/a	n/a	n/a	n/a	n/a	n/a	n/a	n/a	n/a
2782945	WORD	wordpools/wasnorm_wordpool_less_exclusions.txt	LTP289	ltpFR	13	9	1	WORKER	1621	n/a	n/a	1	n/a	0	0	0	0.57763671875	0.412841796875	1	upper	zerothre.ttf
2785958	START	n/a	LTP289	ltpFR	13	n/a	n/a	n/a	n/a	n/a	n/a	n/a	n/a	n/a	n/a	n/a	n/a	n/a	n/a	n/a	n/a
2786856	PROB	n/a	LTP289	ltpFR	13	n/a	n/a	n/a	n/a	n/a	n/a	n/a	15	6	5	4	n/a	n/a	n/a	n/a	n/a
2789634	PROB	n/a	LTP289	ltpFR	13	n/a	n/a	n/a	n/a	n/a	n/a	n/a	13	8	2	3	n/a	n/a	n/a	n/a	n/a
2790833	PROB	n/a	LTP289	ltpFR	13	n/a	n/a	n/a	n/a	n/a	n/a	n/a	14	4	5	5	n/a	n/a	n/a	n/a	n/a
2792580	PROB	n/a	LTP289	ltpFR	13	n/a	n/a	n/a	n/a	n/a	n/a	n/a	16	7	3	6	n/a	n/a	n/a	n/a	n/a
2794145	PROB	n/a	LTP289	ltpFR	13	n/a	n/a	n/a	n/a	n/a	n/a	n/a	17	6	3	8	n/a	n/a	n/a	n/a	n/a
2796974	PROB	n/a	LTP289	ltpFR	13	n/a	n/a	n/a	n/a	n/a	n/a	n/a	13	2	6	5	n/a	n/a	n/a	n/a	n/a
2801949	STOP	n/a	LTP289	ltpFR	13	n/a	n/a	n/a	n/a	n/a	n/a	n/a	n/a	n/a	n/a	n/a	n/a	n/a	n/a	n/a	n/a
2803148	WORD	wordpools/wasnorm_wordpool_less_exclusions.txt	LTP289	ltpFR	13	9	1	LIVER	833	n/a	n/a	0	n/a	0	0	0	0.57763671875	0.412841796875	1	upper	zerothre.ttf
2806160	START	n/a	LTP289	ltpFR	13	n/a	n/a	n/a	n/a	n/a	n/a	n/a	n/a	n/a	n/a	n/a	n/a	n/a	n/a	n/a	n/a
2807342	PROB	n/a	LTP289	ltpFR	13	n/a	n/a	n/a	n/a	n/a	n/a	n/a	20	9	5	6	n/a	n/a	n/a	n/a	n/a
2809439	PROB	n/a	LTP289	ltpFR	13	n/a	n/a	n/a	n/a	n/a	n/a	n/a	16	8	5	3	n/a	n/a	n/a	n/a	n/a
2811985	PROB	n/a	LTP289	ltpFR	13	n/a	n/a	n/a	n/a	n/a	n/a	n/a	14	1	7	6	n/a	n/a	n/a	n/a	n/a
2813681	PROB	n/a	LTP289	ltpFR	13	n/a	n/a	n/a	n/a	n/a	n/a	n/a	6	2	3	1	n/a	n/a	n/a	n/a	n/a
2815578	PROB	n/a	LTP289	ltpFR	13	n/a	n/a	n/a	n/a	n/a	n/a	n/a	15	9	2	4	n/a	n/a	n/a	n/a	n/a
2818624	PROB	n/a	LTP289	ltpFR	13	n/a	n/a	n/a	n/a	n/a	n/a	n/a	9	6	2	1	n/a	n/a	n/a	n/a	n/a
2821437	STOP	n/a	LTP289	ltpFR	13	n/a	n/a	n/a	n/a	n/a	n/a	n/a	n/a	n/a	n/a	n/a	n/a	n/a	n/a	n/a	n/a
2823967	REC_START	n/a	LTP289	ltpFR	13	9	n/a	n/a	n/a	n/a	n/a	n/a	n/a	0	0	0	n/a	n/a	n/a	n/a	n/a
2825164	REC_WORD	wordpools/wasnorm_wordpool_less_exclusions.txt	LTP289	ltpFR	13	9	1	BIOLOGIST	128	n/a	n/a	1	n/a	0	0	0	n/a	n/a	n/a	n/a	n/a
2826396	REC_WORD	wordpools/wasnorm_wordpool_less_exclusions.txt	LTP289	ltpFR	13	9	1	CHEMICAL	291	n/a	n/a	0	n/a	0	0	0	n/a	n/a	n/a	n/a	n/a
2827305	REC_WORD	wordpools/wasnorm_wordpool_less_exclusions.txt	LTP289	ltpFR	13	9	0	PEN	1041	n/a	n/a	0	n/a	0	0	0	n/a	n/a	n/a	n/a	n/a
2828065	REC_WORD	wordpools/wasnorm_wordpool_less_exclusions.txt	LTP289	ltpFR	13	9	0	FATHER	554	n/a	n/a	1	n/a	0	0	0	n/a	n/a	n/a	n/a	n/a
2829828	REC_WORD	wordpools/wasnorm_wordpool_less_exclusions.txt	LTP289	ltpFR	13	9	0	COMMUNITY	356	n/a	n/a	1	n/a	0	0	0	n/a	n/a	n/a	n/a	n/a
2831012	REC_WORD	wordpools/wasnorm_wordpool_less_exclusions.txt	LTP289	ltpFR	13	9	1	VILLAGE	1566	n/a	n/a	0	n/a	0	0	0	n/a	n/a	n/a	n/a	n/a
2833163	REC_WORD	wordpools/wasnorm_wordpool_less_exclusions.txt	LTP289	ltpFR	13	9	1	MANSION	864	n/a	n/a	0	n/a	0	0	0	n/a	n/a	n/a	n/a	n/a
2834467	REC_WORD	wordpools/wasnorm_wordpool_less_exclusions.txt	LTP289	ltpFR	13	9	1	CUP	424	n/a	n/a	0	n/a	0	0	0	n/a	n/a	n/a	n/a	n/a
2835746	REC_WORD	wordpools/wasnorm_wordpool_less_exclusions.txt	LTP289	ltpFR	13	9	0	FINGERNAIL	568	n/a	n/a	0	n/a	0	0	0	n/a	n/a	n/a	n/a	n/a
2842019	REC_WORD	wordpools/wasnorm_wordpool_less_exclusions.txt	LTP289	ltpFR	13	9	1	WORKER	1621	n/a	n/a	1	n/a	0	0	0	n/a	n/a	n/a	n/a	n/a
2861936	REC_WORD	wordpools/wasnorm_wordpool_less_exclusions.txt	LTP289	ltpFR	13	9	0	SHIRT	1287	n/a	n/a	0	n/a	0	0	0	n/a	n/a	n/a	n/a	n/a
2880458	REC_WORD	wordpools/wasnorm_wordpool_less_exclusions.txt	LTP289	ltpFR	13	9	0	PAGE	1001	n/a	n/a	0	n/a	0	0	0	n/a	n/a	n/a	n/a	n/a
2881580	REC_WORD	wordpools/wasnorm_wordpool_less_exclusions.txt	LTP289	ltpFR	13	9	0	PASSAGE	1019	n/a	n/a	1	n/a	0	0	0	n/a	n/a	n/a	n/a	n/a
2996859	WORD	wordpools/wasnorm_wordpool_less_exclusions.txt	LTP289	ltpFR	13	10	1	CITRUS	313	n/a	n/a	0	n/a	0	0	0	0.57763671875	0.412841796875	1	upper	zerothre.ttf
3001069	WORD	wordpools/wasnorm_wordpool_less_exclusions.txt	LTP289	ltpFR	13	10	1	BANNER	85	n/a	n/a	0	n/a	0	0	0	0.57763671875	0.412841796875	1	upper	zerothre.ttf
3005263	WORD	wordpools/wasnorm_wordpool_less_exclusions.txt	LTP289	ltpFR	13	10	0	CARTON	251	n/a	n/a	0	n/a	0	0	0	0.422607421875	0.5869140625	0	lower	amplitud.ttf
3009473	WORD	wordpools/wasnorm_wordpool_less_exclusions.txt	LTP289	ltpFR	13	10	0	VASE	1549	n/a	n/a	0	n/a	0	0	0	0.422607421875	0.5869140625	0	lower	amplitud.ttf
3013534	WORD	wordpools/wasnorm_wordpool_less_exclusions.txt	LTP289	ltpFR	13	10	0	MATCH	878	n/a	n/a	0	n/a	0	0	0	0.422607421875	0.5869140625	0	lower	amplitud.ttf
3017577	WORD	wordpools/wasnorm_wordpool_less_exclusions.txt	LTP289	ltpFR	13	10	0	GYMNAST	675	n/a	n/a	1	n/a	0	0	0	0.422607421875	0.5869140625	0	lower	amplitud.ttf
3021439	WORD	wordpools/wasnorm_wordpool_less_exclusions.txt	LTP289	ltpFR	13	10	0	TULIP	1517	n/a	n/a	0	n/a	0	0	0	0.422607421875	0.5869140625	0	lower	amplitud.ttf
3025615	WORD	wordpools/wasnorm_wordpool_less_exclusions.txt	LTP289	ltpFR	13	10	1	MAN	862	n/a	n/a	1	n/a	0	0	0	0.57763671875	0.412841796875	1	upper	zerothre.ttf
3029477	WORD	wordpools/wasnorm_wordpool_less_exclusions.txt	LTP289	ltpFR	13	10	1	OFFICE	972	n/a	n/a	0	n/a	0	0	0	0.57763671875	0.412841796875	1	upper	zerothre.ttf
3033338	WORD	wordpools/wasnorm_wordpool_less_exclusions.txt	LTP289	ltpFR	13	10	1	FLASHLIGHT	575	n/a	n/a	0	n/a	0	0	0	0.57763671875	0.412841796875	1	upper	zerothre.ttf
3037481	WORD	wordpools/wasnorm_wordpool_less_exclusions.txt	LTP289	ltpFR	13	10	1	TUNA	1518	n/a	n/a	1	n/a	0	0	0	0.57763671875	0.412841796875	1	upper	zerothre.ttf
3041691	WORD	wordpools/wasnorm_wordpool_less_exclusions.txt	LTP289	ltpFR	13	10	1	TROUT	1511	n/a	n/a	1	n/a	0	0	0	0.57763671875	0.412841796875	1	upper	zerothre.ttf
3045802	WORD	wordpools/wasnorm_wordpool_less_exclusions.txt	LTP289	ltpFR	13	10	1	BACON	67	n/a	n/a	0	n/a	0	0	0	0.57763671875	0.412841796875	1	upper	zerothre.ttf
3049730	WORD	wordpools/wasnorm_wordpool_less_exclusions.txt	LTP289	ltpFR	13	10	0	SAUSAGE	1238	n/a	n/a	0	n/a	0	0	0	0.422607421875	0.5869140625	0	lower	amplitud.ttf
3053957	WORD	wordpools/wasnorm_wordpool_less_exclusions.txt	LTP289	ltpFR	13	10	0	CHEERLEADER	288	n/a	n/a	1	n/a	0	0	0	0.422607421875	0.5869140625	0	lower	amplitud.ttf
3057801	WORD	wordpools/wasnorm_wordpool_less_exclusions.txt	LTP289	ltpFR	13	10	0	FINGER	567	n/a	n/a	0	n/a	0	0	0	0.422607421875	0.5869140625	0	lower	amplitud.ttf
3060814	START	n/a	LTP289	ltpFR	13	n/a	n/a	n/a	n/a	n/a	n/a	n/a	n/a	n/a	n/a	n/a	n/a	n/a	n/a	n/a	n/a
3061862	PROB	n/a	LTP289	ltpFR	13	n/a	n/a	n/a	n/a	n/a	n/a	n/a	19	7	9	3	n/a	n/a	n/a	n/a	n/a
3064724	PROB	n/a	LTP289	ltpFR	13	n/a	n/a	n/a	n/a	n/a	n/a	n/a	10	8	1	1	n/a	n/a	n/a	n/a	n/a
3066122	PROB	n/a	LTP289	ltpFR	13	n/a	n/a	n/a	n/a	n/a	n/a	n/a	13	3	2	8	n/a	n/a	n/a	n/a	n/a
3067820	PROB	n/a	LTP289	ltpFR	13	n/a	n/a	n/a	n/a	n/a	n/a	n/a	11	2	7	2	n/a	n/a	n/a	n/a	n/a
3069599	PROB	n/a	LTP289	ltpFR	13	n/a	n/a	n/a	n/a	n/a	n/a	n/a	7	5	1	1	n/a	n/a	n/a	n/a	n/a
3071281	PROB	n/a	LTP289	ltpFR	13	n/a	n/a	n/a	n/a	n/a	n/a	n/a	20	7	8	5	n/a	n/a	n/a	n/a	n/a
3073461	PROB	n/a	LTP289	ltpFR	13	n/a	n/a	n/a	n/a	n/a	n/a	n/a	8	3	4	1	n/a	n/a	n/a	n/a	n/a
3075258	PROB	n/a	LTP289	ltpFR	13	n/a	n/a	n/a	n/a	n/a	n/a	n/a	13	3	5	5	n/a	n/a	n/a	n/a	n/a
3076429	STOP	n/a	LTP289	ltpFR	13	n/a	n/a	n/a	n/a	n/a	n/a	n/a	n/a	n/a	n/a	n/a	n/a	n/a	n/a	n/a	n/a
3078754	REC_START	n/a	LTP289	ltpFR	13	10	n/a	n/a	n/a	n/a	n/a	n/a	n/a	0	0	0	n/a	n/a	n/a	n/a	n/a
3079781	REC_WORD	wordpools/wasnorm_wordpool_less_exclusions.txt	LTP289	ltpFR	13	10	1	CITRUS	313	n/a	n/a	0	n/a	0	0	0	n/a	n/a	n/a	n/a	n/a
3081027	REC_WORD	wordpools/wasnorm_wordpool_less_exclusions.txt	LTP289	ltpFR	13	10	1	BANNER	85	n/a	n/a	0	n/a	0	0	0	n/a	n/a	n/a	n/a	n/a
3082359	REC_WORD	wordpools/wasnorm_wordpool_less_exclusions.txt	LTP289	ltpFR	13	10	0	CARTON	251	n/a	n/a	0	n/a	0	0	0	n/a	n/a	n/a	n/a	n/a
3083389	REC_WORD	wordpools/wasnorm_wordpool_less_exclusions.txt	LTP289	ltpFR	13	10	0	VASE	1549	n/a	n/a	0	n/a	0	0	0	n/a	n/a	n/a	n/a	n/a
3086108	REC_WORD	wordpools/wasnorm_wordpool_less_exclusions.txt	LTP289	ltpFR	13	10	0	FINGER	567	n/a	n/a	0	n/a	0	0	0	n/a	n/a	n/a	n/a	n/a
3087467	REC_WORD	wordpools/wasnorm_wordpool_less_exclusions.txt	LTP289	ltpFR	13	10	0	GYMNAST	675	n/a	n/a	1	n/a	0	0	0	n/a	n/a	n/a	n/a	n/a
3088881	REC_WORD	wordpools/wasnorm_wordpool_less_exclusions.txt	LTP289	ltpFR	13	10	1	MAN	862	n/a	n/a	1	n/a	0	0	0	n/a	n/a	n/a	n/a	n/a
3089968	REC_WORD	wordpools/wasnorm_wordpool_less_exclusions.txt	LTP289	ltpFR	13	10	1	OFFICE	972	n/a	n/a	0	n/a	0	0	0	n/a	n/a	n/a	n/a	n/a
3091004	REC_WORD	wordpools/wasnorm_wordpool_less_exclusions.txt	LTP289	ltpFR	13	10	1	FLASHLIGHT	575	n/a	n/a	0	n/a	0	0	0	n/a	n/a	n/a	n/a	n/a
3092516	REC_WORD	wordpools/wasnorm_wordpool_less_exclusions.txt	LTP289	ltpFR	13	10	0	CHEERLEADER	288	n/a	n/a	1	n/a	0	0	0	n/a	n/a	n/a	n/a	n/a
3122050	REC_WORD	wordpools/wasnorm_wordpool_less_exclusions.txt	LTP289	ltpFR	13	10	1	TUNA	1518	n/a	n/a	1	n/a	0	0	0	n/a	n/a	n/a	n/a	n/a
3122973	REC_WORD	wordpools/wasnorm_wordpool_less_exclusions.txt	LTP289	ltpFR	13	10	1	BACON	67	n/a	n/a	0	n/a	0	0	0	n/a	n/a	n/a	n/a	n/a
3123761	REC_WORD	wordpools/wasnorm_wordpool_less_exclusions.txt	LTP289	ltpFR	13	10	0	SAUSAGE	1238	n/a	n/a	0	n/a	0	0	0	n/a	n/a	n/a	n/a	n/a
3183963	START	n/a	LTP289	ltpFR	13	n/a	n/a	n/a	n/a	n/a	n/a	n/a	n/a	n/a	n/a	n/a	n/a	n/a	n/a	n/a	n/a
3185477	PROB	n/a	LTP289	ltpFR	13	n/a	n/a	n/a	n/a	n/a	n/a	n/a	19	8	8	3	n/a	n/a	n/a	n/a	n/a
3187324	PROB	n/a	LTP289	ltpFR	13	n/a	n/a	n/a	n/a	n/a	n/a	n/a	13	6	6	1	n/a	n/a	n/a	n/a	n/a
3188806	PROB	n/a	LTP289	ltpFR	13	n/a	n/a	n/a	n/a	n/a	n/a	n/a	19	9	9	1	n/a	n/a	n/a	n/a	n/a
3190120	PROB	n/a	LTP289	ltpFR	13	n/a	n/a	n/a	n/a	n/a	n/a	n/a	10	4	4	2	n/a	n/a	n/a	n/a	n/a
3191757	STOP	n/a	LTP289	ltpFR	13	n/a	n/a	n/a	n/a	n/a	n/a	n/a	n/a	n/a	n/a	n/a	n/a	n/a	n/a	n/a	n/a
3192800	WORD	wordpools/wasnorm_wordpool_less_exclusions.txt	LTP289	ltpFR	13	11	1	SPIDER	1351	n/a	n/a	1	n/a	0	0	0	0.57763671875	0.412841796875	1	upper	zerothre.ttf
3195812	START	n/a	LTP289	ltpFR	13	n/a	n/a	n/a	n/a	n/a	n/a	n/a	n/a	n/a	n/a	n/a	n/a	n/a	n/a	n/a	n/a
3197010	PROB	n/a	LTP289	ltpFR	13	n/a	n/a	n/a	n/a	n/a	n/a	n/a	15	3	5	7	n/a	n/a	n/a	n/a	n/a
3199190	PROB	n/a	LTP289	ltpFR	13	n/a	n/a	n/a	n/a	n/a	n/a	n/a	14	8	2	4	n/a	n/a	n/a	n/a	n/a
3200521	PROB	n/a	LTP289	ltpFR	13	n/a	n/a	n/a	n/a	n/a	n/a	n/a	12	3	8	1	n/a	n/a	n/a	n/a	n/a
3202749	STOP	n/a	LTP289	ltpFR	13	n/a	n/a	n/a	n/a	n/a	n/a	n/a	n/a	n/a	n/a	n/a	n/a	n/a	n/a	n/a	n/a
3204631	WORD	wordpools/wasnorm_wordpool_less_exclusions.txt	LTP289	ltpFR	13	11	1	CLOTHES	327	n/a	n/a	0	n/a	0	0	0	0.57763671875	0.412841796875	1	upper	zerothre.ttf
3207644	START	n/a	LTP289	ltpFR	13	n/a	n/a	n/a	n/a	n/a	n/a	n/a	n/a	n/a	n/a	n/a	n/a	n/a	n/a	n/a	n/a
3208526	PROB	n/a	LTP289	ltpFR	13	n/a	n/a	n/a	n/a	n/a	n/a	n/a	14	4	2	8	n/a	n/a	n/a	n/a	n/a
3211006	PROB	n/a	LTP289	ltpFR	13	n/a	n/a	n/a	n/a	n/a	n/a	n/a	6	3	1	2	n/a	n/a	n/a	n/a	n/a
3213651	PROB	n/a	LTP289	ltpFR	13	n/a	n/a	n/a	n/a	n/a	n/a	n/a	12	2	6	4	n/a	n/a	n/a	n/a	n/a
3214981	STOP	n/a	LTP289	ltpFR	13	n/a	n/a	n/a	n/a	n/a	n/a	n/a	n/a	n/a	n/a	n/a	n/a	n/a	n/a	n/a	n/a
3216596	WORD	wordpools/wasnorm_wordpool_less_exclusions.txt	LTP289	ltpFR	13	11	1	FOREHEAD	592	n/a	n/a	0	n/a	0	0	0	0.57763671875	0.412841796875	1	upper	zerothre.ttf
3219609	START	n/a	LTP289	ltpFR	13	n/a	n/a	n/a	n/a	n/a	n/a	n/a	n/a	n/a	n/a	n/a	n/a	n/a	n/a	n/a	n/a
3220442	PROB	n/a	LTP289	ltpFR	13	n/a	n/a	n/a	n/a	n/a	n/a	n/a	20	8	4	8	n/a	n/a	n/a	n/a	n/a
3222587	PROB	n/a	LTP289	ltpFR	13	n/a	n/a	n/a	n/a	n/a	n/a	n/a	13	1	8	4	n/a	n/a	n/a	n/a	n/a
3227609	STOP	n/a	LTP289	ltpFR	13	n/a	n/a	n/a	n/a	n/a	n/a	n/a	n/a	n/a	n/a	n/a	n/a	n/a	n/a	n/a	n/a
3228546	WORD	wordpools/wasnorm_wordpool_less_exclusions.txt	LTP289	ltpFR	13	11	1	STOMACH	1384	n/a	n/a	0	n/a	0	0	0	0.57763671875	0.412841796875	1	upper	zerothre.ttf
3231559	START	n/a	LTP289	ltpFR	13	n/a	n/a	n/a	n/a	n/a	n/a	n/a	n/a	n/a	n/a	n/a	n/a	n/a	n/a	n/a	n/a
3232457	PROB	n/a	LTP289	ltpFR	13	n/a	n/a	n/a	n/a	n/a	n/a	n/a	16	5	3	8	n/a	n/a	n/a	n/a	n/a
3234521	PROB	n/a	LTP289	ltpFR	13	n/a	n/a	n/a	n/a	n/a	n/a	n/a	15	9	5	1	n/a	n/a	n/a	n/a	n/a
3235835	PROB	n/a	LTP289	ltpFR	13	n/a	n/a	n/a	n/a	n/a	n/a	n/a	13	1	4	8	n/a	n/a	n/a	n/a	n/a
3239559	STOP	n/a	LTP289	ltpFR	13	n/a	n/a	n/a	n/a	n/a	n/a	n/a	n/a	n/a	n/a	n/a	n/a	n/a	n/a	n/a	n/a
3240611	WORD	wordpools/wasnorm_wordpool_less_exclusions.txt	LTP289	ltpFR	13	11	1	STAR	1373	n/a	n/a	0	n/a	0	0	0	0.57763671875	0.412841796875	1	upper	zerothre.ttf
3243623	START	n/a	LTP289	ltpFR	13	n/a	n/a	n/a	n/a	n/a	n/a	n/a	n/a	n/a	n/a	n/a	n/a	n/a	n/a	n/a	n/a
3244789	PROB	n/a	LTP289	ltpFR	13	n/a	n/a	n/a	n/a	n/a	n/a	n/a	12	7	4	1	n/a	n/a	n/a	n/a	n/a
3251623	STOP	n/a	LTP289	ltpFR	13	n/a	n/a	n/a	n/a	n/a	n/a	n/a	n/a	n/a	n/a	n/a	n/a	n/a	n/a	n/a	n/a
3252692	WORD	wordpools/wasnorm_wordpool_less_exclusions.txt	LTP289	ltpFR	13	11	1	SPATULA	1348	n/a	n/a	0	n/a	0	0	0	0.57763671875	0.412841796875	1	upper	zerothre.ttf
3255705	START	n/a	LTP289	ltpFR	13	n/a	n/a	n/a	n/a	n/a	n/a	n/a	n/a	n/a	n/a	n/a	n/a	n/a	n/a	n/a	n/a
3256721	PROB	n/a	LTP289	ltpFR	13	n/a	n/a	n/a	n/a	n/a	n/a	n/a	15	1	9	5	n/a	n/a	n/a	n/a	n/a
3257919	PROB	n/a	LTP289	ltpFR	13	n/a	n/a	n/a	n/a	n/a	n/a	n/a	22	8	9	5	n/a	n/a	n/a	n/a	n/a
3260132	PROB	n/a	LTP289	ltpFR	13	n/a	n/a	n/a	n/a	n/a	n/a	n/a	6	2	3	1	n/a	n/a	n/a	n/a	n/a
3261662	PROB	n/a	LTP289	ltpFR	13	n/a	n/a	n/a	n/a	n/a	n/a	n/a	8	2	3	3	n/a	n/a	n/a	n/a	n/a
3263357	STOP	n/a	LTP289	ltpFR	13	n/a	n/a	n/a	n/a	n/a	n/a	n/a	n/a	n/a	n/a	n/a	n/a	n/a	n/a	n/a	n/a
3264625	WORD	wordpools/wasnorm_wordpool_less_exclusions.txt	LTP289	ltpFR	13	11	1	SKILLET	1317	n/a	n/a	0	n/a	0	0	0	0.57763671875	0.412841796875	1	upper	zerothre.ttf
3267637	START	n/a	LTP289	ltpFR	13	n/a	n/a	n/a	n/a	n/a	n/a	n/a	n/a	n/a	n/a	n/a	n/a	n/a	n/a	n/a	n/a
3268520	PROB	n/a	LTP289	ltpFR	13	n/a	n/a	n/a	n/a	n/a	n/a	n/a	13	1	7	5	n/a	n/a	n/a	n/a	n/a
3270300	PROB	n/a	LTP289	ltpFR	13	n/a	n/a	n/a	n/a	n/a	n/a	n/a	20	9	9	2	n/a	n/a	n/a	n/a	n/a
3271881	PROB	n/a	LTP289	ltpFR	13	n/a	n/a	n/a	n/a	n/a	n/a	n/a	18	9	6	3	n/a	n/a	n/a	n/a	n/a
3275637	STOP	n/a	LTP289	ltpFR	13	n/a	n/a	n/a	n/a	n/a	n/a	n/a	n/a	n/a	n/a	n/a	n/a	n/a	n/a	n/a	n/a
3276475	WORD	wordpools/wasnorm_wordpool_less_exclusions.txt	LTP289	ltpFR	13	11	1	HIKER	708	n/a	n/a	1	n/a	0	0	0	0.57763671875	0.412841796875	1	upper	zerothre.ttf
3279487	START	n/a	LTP289	ltpFR	13	n/a	n/a	n/a	n/a	n/a	n/a	n/a	n/a	n/a	n/a	n/a	n/a	n/a	n/a	n/a	n/a
3280519	PROB	n/a	LTP289	ltpFR	13	n/a	n/a	n/a	n/a	n/a	n/a	n/a	13	4	4	5	n/a	n/a	n/a	n/a	n/a
3282648	PROB	n/a	LTP289	ltpFR	13	n/a	n/a	n/a	n/a	n/a	n/a	n/a	19	8	6	5	n/a	n/a	n/a	n/a	n/a
3285794	PROB	n/a	LTP289	ltpFR	13	n/a	n/a	n/a	n/a	n/a	n/a	n/a	17	1	8	8	n/a	n/a	n/a	n/a	n/a
3287445	STOP	n/a	LTP289	ltpFR	13	n/a	n/a	n/a	n/a	n/a	n/a	n/a	n/a	n/a	n/a	n/a	n/a	n/a	n/a	n/a	n/a
3288589	WORD	wordpools/wasnorm_wordpool_less_exclusions.txt	LTP289	ltpFR	13	11	1	GARAGE	621	n/a	n/a	0	n/a	0	0	0	0.57763671875	0.412841796875	1	upper	zerothre.ttf
3291601	START	n/a	LTP289	ltpFR	13	n/a	n/a	n/a	n/a	n/a	n/a	n/a	n/a	n/a	n/a	n/a	n/a	n/a	n/a	n/a	n/a
3292784	PROB	n/a	LTP289	ltpFR	13	n/a	n/a	n/a	n/a	n/a	n/a	n/a	19	2	8	9	n/a	n/a	n/a	n/a	n/a
3294215	PROB	n/a	LTP289	ltpFR	13	n/a	n/a	n/a	n/a	n/a	n/a	n/a	27	9	9	9	n/a	n/a	n/a	n/a	n/a
3295946	PROB	n/a	LTP289	ltpFR	13	n/a	n/a	n/a	n/a	n/a	n/a	n/a	17	6	7	4	n/a	n/a	n/a	n/a	n/a
3299601	STOP	n/a	LTP289	ltpFR	13	n/a	n/a	n/a	n/a	n/a	n/a	n/a	n/a	n/a	n/a	n/a	n/a	n/a	n/a	n/a	n/a
3300772	WORD	wordpools/wasnorm_wordpool_less_exclusions.txt	LTP289	ltpFR	13	11	1	MOTOR	922	n/a	n/a	0	n/a	0	0	0	0.57763671875	0.412841796875	1	upper	zerothre.ttf
3303784	START	n/a	LTP289	ltpFR	13	n/a	n/a	n/a	n/a	n/a	n/a	n/a	n/a	n/a	n/a	n/a	n/a	n/a	n/a	n/a	n/a
3304716	PROB	n/a	LTP289	ltpFR	13	n/a	n/a	n/a	n/a	n/a	n/a	n/a	10	3	1	6	n/a	n/a	n/a	n/a	n/a
3306347	PROB	n/a	LTP289	ltpFR	13	n/a	n/a	n/a	n/a	n/a	n/a	n/a	17	7	2	8	n/a	n/a	n/a	n/a	n/a
3308044	PROB	n/a	LTP289	ltpFR	13	n/a	n/a	n/a	n/a	n/a	n/a	n/a	13	3	2	8	n/a	n/a	n/a	n/a	n/a
3309542	PROB	n/a	LTP289	ltpFR	13	n/a	n/a	n/a	n/a	n/a	n/a	n/a	20	9	6	5	n/a	n/a	n/a	n/a	n/a
3311061	STOP	n/a	LTP289	ltpFR	13	n/a	n/a	n/a	n/a	n/a	n/a	n/a	n/a	n/a	n/a	n/a	n/a	n/a	n/a	n/a	n/a
3312787	WORD	wordpools/wasnorm_wordpool_less_exclusions.txt	LTP289	ltpFR	13	11	1	WRENCH	1625	n/a	n/a	0	n/a	0	0	0	0.57763671875	0.412841796875	1	upper	zerothre.ttf
3315800	START	n/a	LTP289	ltpFR	13	n/a	n/a	n/a	n/a	n/a	n/a	n/a	n/a	n/a	n/a	n/a	n/a	n/a	n/a	n/a	n/a
3316931	PROB	n/a	LTP289	ltpFR	13	n/a	n/a	n/a	n/a	n/a	n/a	n/a	17	4	4	9	n/a	n/a	n/a	n/a	n/a
3320825	PROB	n/a	LTP289	ltpFR	13	n/a	n/a	n/a	n/a	n/a	n/a	n/a	18	8	7	3	n/a	n/a	n/a	n/a	n/a
3322477	STOP	n/a	LTP289	ltpFR	13	n/a	n/a	n/a	n/a	n/a	n/a	n/a	n/a	n/a	n/a	n/a	n/a	n/a	n/a	n/a	n/a
3324852	WORD	wordpools/wasnorm_wordpool_less_exclusions.txt	LTP289	ltpFR	13	11	1	ANTEATER	26	n/a	n/a	1	n/a	0	0	0	0.57763671875	0.412841796875	1	upper	zerothre.ttf
3327865	START	n/a	LTP289	ltpFR	13	n/a	n/a	n/a	n/a	n/a	n/a	n/a	n/a	n/a	n/a	n/a	n/a	n/a	n/a	n/a	n/a
3328747	PROB	n/a	LTP289	ltpFR	13	n/a	n/a	n/a	n/a	n/a	n/a	n/a	13	2	9	2	n/a	n/a	n/a	n/a	n/a
3331393	PROB	n/a	LTP289	ltpFR	13	n/a	n/a	n/a	n/a	n/a	n/a	n/a	12	5	6	1	n/a	n/a	n/a	n/a	n/a
3333173	PROB	n/a	LTP289	ltpFR	13	n/a	n/a	n/a	n/a	n/a	n/a	n/a	17	5	4	8	n/a	n/a	n/a	n/a	n/a
3335045	STOP	n/a	LTP289	ltpFR	13	n/a	n/a	n/a	n/a	n/a	n/a	n/a	n/a	n/a	n/a	n/a	n/a	n/a	n/a	n/a	n/a
3337018	WORD	wordpools/wasnorm_wordpool_less_exclusions.txt	LTP289	ltpFR	13	11	1	NIGHTGOWN	953	n/a	n/a	0	n/a	0	0	0	0.57763671875	0.412841796875	1	upper	zerothre.ttf
3340030	START	n/a	LTP289	ltpFR	13	n/a	n/a	n/a	n/a	n/a	n/a	n/a	n/a	n/a	n/a	n/a	n/a	n/a	n/a	n/a	n/a
3340978	PROB	n/a	LTP289	ltpFR	13	n/a	n/a	n/a	n/a	n/a	n/a	n/a	14	2	7	5	n/a	n/a	n/a	n/a	n/a
3342942	PROB	n/a	LTP289	ltpFR	13	n/a	n/a	n/a	n/a	n/a	n/a	n/a	10	1	8	1	n/a	n/a	n/a	n/a	n/a
3344406	PROB	n/a	LTP289	ltpFR	13	n/a	n/a	n/a	n/a	n/a	n/a	n/a	17	3	9	5	n/a	n/a	n/a	n/a	n/a
3346700	STOP	n/a	LTP289	ltpFR	13	n/a	n/a	n/a	n/a	n/a	n/a	n/a	n/a	n/a	n/a	n/a	n/a	n/a	n/a	n/a	n/a
3349066	WORD	wordpools/wasnorm_wordpool_less_exclusions.txt	LTP289	ltpFR	13	11	1	CARROT	249	n/a	n/a	0	n/a	0	0	0	0.57763671875	0.412841796875	1	upper	zerothre.ttf
3352079	START	n/a	LTP289	ltpFR	13	n/a	n/a	n/a	n/a	n/a	n/a	n/a	n/a	n/a	n/a	n/a	n/a	n/a	n/a	n/a	n/a
3353143	PROB	n/a	LTP289	ltpFR	13	n/a	n/a	n/a	n/a	n/a	n/a	n/a	11	2	8	1	n/a	n/a	n/a	n/a	n/a
3354590	PROB	n/a	LTP289	ltpFR	13	n/a	n/a	n/a	n/a	n/a	n/a	n/a	8	5	2	1	n/a	n/a	n/a	n/a	n/a
3356389	PROB	n/a	LTP289	ltpFR	13	n/a	n/a	n/a	n/a	n/a	n/a	n/a	18	8	4	6	n/a	n/a	n/a	n/a	n/a
3358765	STOP	n/a	LTP289	ltpFR	13	n/a	n/a	n/a	n/a	n/a	n/a	n/a	n/a	n/a	n/a	n/a	n/a	n/a	n/a	n/a	n/a
3361082	WORD	wordpools/wasnorm_wordpool_less_exclusions.txt	LTP289	ltpFR	13	11	1	RABBIT	1152	n/a	n/a	1	n/a	0	0	0	0.57763671875	0.412841796875	1	upper	zerothre.ttf
3364094	START	n/a	LTP289	ltpFR	13	n/a	n/a	n/a	n/a	n/a	n/a	n/a	n/a	n/a	n/a	n/a	n/a	n/a	n/a	n/a	n/a
3365076	PROB	n/a	LTP289	ltpFR	13	n/a	n/a	n/a	n/a	n/a	n/a	n/a	18	2	7	9	n/a	n/a	n/a	n/a	n/a
3367356	PROB	n/a	LTP289	ltpFR	13	n/a	n/a	n/a	n/a	n/a	n/a	n/a	10	4	3	3	n/a	n/a	n/a	n/a	n/a
3369319	PROB	n/a	LTP289	ltpFR	13	n/a	n/a	n/a	n/a	n/a	n/a	n/a	9	2	2	5	n/a	n/a	n/a	n/a	n/a
3371229	STOP	n/a	LTP289	ltpFR	13	n/a	n/a	n/a	n/a	n/a	n/a	n/a	n/a	n/a	n/a	n/a	n/a	n/a	n/a	n/a	n/a
3373247	WORD	wordpools/wasnorm_wordpool_less_exclusions.txt	LTP289	ltpFR	13	11	1	CAR	241	n/a	n/a	0	n/a	0	0	0	0.57763671875	0.412841796875	1	upper	zerothre.ttf
3376259	START	n/a	LTP289	ltpFR	13	n/a	n/a	n/a	n/a	n/a	n/a	n/a	n/a	n/a	n/a	n/a	n/a	n/a	n/a	n/a	n/a
3377191	PROB	n/a	LTP289	ltpFR	13	n/a	n/a	n/a	n/a	n/a	n/a	n/a	10	3	2	5	n/a	n/a	n/a	n/a	n/a
3378822	PROB	n/a	LTP289	ltpFR	13	n/a	n/a	n/a	n/a	n/a	n/a	n/a	11	3	7	1	n/a	n/a	n/a	n/a	n/a
3380153	PROB	n/a	LTP289	ltpFR	13	n/a	n/a	n/a	n/a	n/a	n/a	n/a	12	2	4	6	n/a	n/a	n/a	n/a	n/a
3381451	PROB	n/a	LTP289	ltpFR	13	n/a	n/a	n/a	n/a	n/a	n/a	n/a	18	2	7	9	n/a	n/a	n/a	n/a	n/a
3383293	STOP	n/a	LTP289	ltpFR	13	n/a	n/a	n/a	n/a	n/a	n/a	n/a	n/a	n/a	n/a	n/a	n/a	n/a	n/a	n/a	n/a
3386145	REC_START	n/a	LTP289	ltpFR	13	11	n/a	n/a	n/a	n/a	n/a	n/a	n/a	0	0	0	n/a	n/a	n/a	n/a	n/a
3387996	REC_WORD	wordpools/wasnorm_wordpool_less_exclusions.txt	LTP289	ltpFR	13	11	1	ANTEATER	26	n/a	n/a	1	n/a	0	0	0	n/a	n/a	n/a	n/a	n/a
3389048	REC_WORD	wordpools/wasnorm_wordpool_less_exclusions.txt	LTP289	ltpFR	13	11	1	HIKER	708	n/a	n/a	1	n/a	0	0	0	n/a	n/a	n/a	n/a	n/a
3456408	REC_WORD	wordpools/wasnorm_wordpool_less_exclusions.txt	LTP289	ltpFR	13	11	1	SKILLET	1317	n/a	n/a	0	n/a	0	0	0	n/a	n/a	n/a	n/a	n/a
3457257	REC_WORD	wordpools/wasnorm_wordpool_less_exclusions.txt	LTP289	ltpFR	13	11	1	SPATULA	1348	n/a	n/a	0	n/a	0	0	0	n/a	n/a	n/a	n/a	n/a
3504235	WORD	wordpools/wasnorm_wordpool_less_exclusions.txt	LTP289	ltpFR	13	12	1	LIME	823	n/a	n/a	0	n/a	0	0	0	0.57763671875	0.412841796875	1	upper	zerothre.ttf
3508062	WORD	wordpools/wasnorm_wordpool_less_exclusions.txt	LTP289	ltpFR	13	12	1	DUST	508	n/a	n/a	0	n/a	0	0	0	0.57763671875	0.412841796875	1	upper	zerothre.ttf
3512173	WORD	wordpools/wasnorm_wordpool_less_exclusions.txt	LTP289	ltpFR	13	12	1	COTTON	385	n/a	n/a	0	n/a	0	0	0	0.57763671875	0.412841796875	1	upper	zerothre.ttf
3516333	WORD	wordpools/wasnorm_wordpool_less_exclusions.txt	LTP289	ltpFR	13	12	1	LEMON	810	n/a	n/a	0	n/a	0	0	0	0.57763671875	0.412841796875	1	upper	zerothre.ttf
3520344	WORD	wordpools/wasnorm_wordpool_less_exclusions.txt	LTP289	ltpFR	13	12	1	CITIZEN	312	n/a	n/a	1	n/a	0	0	0	0.57763671875	0.412841796875	1	upper	zerothre.ttf
3524488	WORD	wordpools/wasnorm_wordpool_less_exclusions.txt	LTP289	ltpFR	13	12	1	PUMP	1141	n/a	n/a	0	n/a	0	0	0	0.57763671875	0.412841796875	1	upper	zerothre.ttf
3528415	WORD	wordpools/wasnorm_wordpool_less_exclusions.txt	LTP289	ltpFR	13	12	1	CREEK	404	n/a	n/a	0	n/a	0	0	0	0.57763671875	0.412841796875	1	upper	zerothre.ttf
3532608	WORD	wordpools/wasnorm_wordpool_less_exclusions.txt	LTP289	ltpFR	13	12	1	MONK	910	n/a	n/a	1	n/a	0	0	0	0.57763671875	0.412841796875	1	upper	zerothre.ttf
3536803	WORD	wordpools/wasnorm_wordpool_less_exclusions.txt	LTP289	ltpFR	13	12	1	CROSS	413	n/a	n/a	0	n/a	0	0	0	0.57763671875	0.412841796875	1	upper	zerothre.ttf
3540629	WORD	wordpools/wasnorm_wordpool_less_exclusions.txt	LTP289	ltpFR	13	12	1	BURGLAR	200	n/a	n/a	1	n/a	0	0	0	0.57763671875	0.412841796875	1	upper	zerothre.ttf
3544757	WORD	wordpools/wasnorm_wordpool_less_exclusions.txt	LTP289	ltpFR	13	12	1	BANDIT	81	n/a	n/a	1	n/a	0	0	0	0.57763671875	0.412841796875	1	upper	zerothre.ttf
