onset	duration	trial_type	sample	stim_file	subject	experiment	session	trial	item_name	item_num	list	answer	test_x	test_y	test_z
209.54	n/a	SESS_START	104770	n/a	LTP325	ltpFR2	18	n/a	n/a	n/a	n/a	n/a	0	0	0
221.652	n/a	START	110826	n/a	LTP325	ltpFR2	18	n/a	n/a	n/a	-1	n/a	n/a	n/a	n/a
221.668	n/a	PROB	110834	n/a	LTP325	ltpFR2	18	n/a	n/a	n/a	-1	24	6	9	9
224.33	n/a	PROB	112165	n/a	LTP325	ltpFR2	18	n/a	n/a	n/a	-1	25	8	9	8
226.49	n/a	PROB	113245	n/a	LTP325	ltpFR2	18	n/a	n/a	n/a	-1	11	7	3	1
227.574	n/a	PROB	113787	n/a	LTP325	ltpFR2	18	n/a	n/a	n/a	-1	8	1	5	2
229.224	n/a	PROB	114612	n/a	LTP325	ltpFR2	18	n/a	n/a	n/a	-1	9	5	2	2
233.652	n/a	STOP	116826	n/a	LTP325	ltpFR2	18	n/a	n/a	n/a	-1	n/a	n/a	n/a	n/a
252.398	n/a	DISTRACTOR	126199	n/a	LTP325	ltpFR2	18	1	n/a	n/a	n/a	n/a	0	0	0
252.398	n/a	START	126199	n/a	LTP325	ltpFR2	18	n/a	n/a	n/a	1	n/a	n/a	n/a	n/a
252.41	n/a	PROB	126205	n/a	LTP325	ltpFR2	18	n/a	n/a	n/a	1	19	5	5	9
253.878	n/a	PROB	126939	n/a	LTP325	ltpFR2	18	n/a	n/a	n/a	1	10	6	3	1
255.246	n/a	PROB	127623	n/a	LTP325	ltpFR2	18	n/a	n/a	n/a	1	18	8	1	9
256.848	n/a	PROB	128424	n/a	LTP325	ltpFR2	18	n/a	n/a	n/a	1	18	8	3	7
258.266	n/a	PROB	129133	n/a	LTP325	ltpFR2	18	n/a	n/a	n/a	1	16	8	7	1
260.882	n/a	PROB	130441	n/a	LTP325	ltpFR2	18	n/a	n/a	n/a	1	18	5	8	5
262.234	n/a	PROB	131117	n/a	LTP325	ltpFR2	18	n/a	n/a	n/a	1	13	4	3	6
263.902	n/a	PROB	131951	n/a	LTP325	ltpFR2	18	n/a	n/a	n/a	1	19	8	8	3
266.306	n/a	PROB	133153	n/a	LTP325	ltpFR2	18	n/a	n/a	n/a	1	19	9	5	5
267.606	n/a	PROB	133803	n/a	LTP325	ltpFR2	18	n/a	n/a	n/a	1	9	6	2	1
269.194	n/a	PROB	134597	n/a	LTP325	ltpFR2	18	n/a	n/a	n/a	1	16	8	4	4
271.294	n/a	PROB	135647	n/a	LTP325	ltpFR2	18	n/a	n/a	n/a	1	23	9	9	5
276.398	n/a	STOP	138199	n/a	LTP325	ltpFR2	18	n/a	n/a	n/a	1	n/a	n/a	n/a	n/a
277.434	n/a	WORD	138717	wordpools/wasnorm_wordpool_576.txt	LTP325	ltpFR2	18	1	PILOT	1070	n/a	n/a	0	0	0
280.062	n/a	WORD	140031	wordpools/wasnorm_wordpool_576.txt	LTP325	ltpFR2	18	1	PEANUT	1032	n/a	n/a	0	0	0
282.814	n/a	WORD	141407	wordpools/wasnorm_wordpool_576.txt	LTP325	ltpFR2	18	1	MUFFIN	929	n/a	n/a	0	0	0
285.392	n/a	WORD	142696	wordpools/wasnorm_wordpool_576.txt	LTP325	ltpFR2	18	1	TOASTER	1472	n/a	n/a	0	0	0
288.018	n/a	WORD	144009	wordpools/wasnorm_wordpool_576.txt	LTP325	ltpFR2	18	1	COTTAGE	384	n/a	n/a	0	0	0
290.528	n/a	WORD	145264	wordpools/wasnorm_wordpool_576.txt	LTP325	ltpFR2	18	1	POSSUM	1112	n/a	n/a	0	0	0
293.214	n/a	WORD	146607	wordpools/wasnorm_wordpool_576.txt	LTP325	ltpFR2	18	1	CEILING	265	n/a	n/a	0	0	0
295.856	n/a	WORD	147928	wordpools/wasnorm_wordpool_576.txt	LTP325	ltpFR2	18	1	RABBIT	1152	n/a	n/a	0	0	0
298.66	n/a	WORD	149330	wordpools/wasnorm_wordpool_576.txt	LTP325	ltpFR2	18	1	STAKE	1368	n/a	n/a	0	0	0
301.278	n/a	WORD	150639	wordpools/wasnorm_wordpool_576.txt	LTP325	ltpFR2	18	1	COUCH	386	n/a	n/a	0	0	0
303.814	n/a	WORD	151907	wordpools/wasnorm_wordpool_576.txt	LTP325	ltpFR2	18	1	CHEST	295	n/a	n/a	0	0	0
306.276	n/a	WORD	153138	wordpools/wasnorm_wordpool_576.txt	LTP325	ltpFR2	18	1	COSTUME	383	n/a	n/a	0	0	0
308.946	n/a	WORD	154473	wordpools/wasnorm_wordpool_576.txt	LTP325	ltpFR2	18	1	TABLE	1426	n/a	n/a	0	0	0
311.586	n/a	WORD	155793	wordpools/wasnorm_wordpool_576.txt	LTP325	ltpFR2	18	1	TORTOISE	1486	n/a	n/a	0	0	0
314.382	n/a	WORD	157191	wordpools/wasnorm_wordpool_576.txt	LTP325	ltpFR2	18	1	SUPPER	1411	n/a	n/a	0	0	0
316.968	n/a	WORD	158484	wordpools/wasnorm_wordpool_576.txt	LTP325	ltpFR2	18	1	JEANS	752	n/a	n/a	0	0	0
319.72	n/a	WORD	159860	wordpools/wasnorm_wordpool_576.txt	LTP325	ltpFR2	18	1	SWIMMER	1420	n/a	n/a	0	0	0
322.396	n/a	WORD	161198	wordpools/wasnorm_wordpool_576.txt	LTP325	ltpFR2	18	1	SNAIL	1332	n/a	n/a	0	0	0
325.158	n/a	WORD	162579	wordpools/wasnorm_wordpool_576.txt	LTP325	ltpFR2	18	1	TURTLE	1522	n/a	n/a	0	0	0
327.66	n/a	WORD	163830	wordpools/wasnorm_wordpool_576.txt	LTP325	ltpFR2	18	1	FLEET	578	n/a	n/a	0	0	0
330.464	n/a	WORD	165232	wordpools/wasnorm_wordpool_576.txt	LTP325	ltpFR2	18	1	OUTLAW	989	n/a	n/a	0	0	0
333.034	n/a	WORD	166517	wordpools/wasnorm_wordpool_576.txt	LTP325	ltpFR2	18	1	PUPIL	1143	n/a	n/a	0	0	0
335.618	n/a	WORD	167809	wordpools/wasnorm_wordpool_576.txt	LTP325	ltpFR2	18	1	GUITAR	670	n/a	n/a	0	0	0
338.142	n/a	WORD	169071	wordpools/wasnorm_wordpool_576.txt	LTP325	ltpFR2	18	1	NIGHTGOWN	953	n/a	n/a	0	0	0
339.756	n/a	START	169878	n/a	LTP325	ltpFR2	18	n/a	n/a	n/a	2	n/a	n/a	n/a	n/a
340.67	n/a	DISTRACTOR	170335	n/a	LTP325	ltpFR2	18	1	n/a	n/a	n/a	n/a	0	0	0
340.676	n/a	PROB	170338	n/a	LTP325	ltpFR2	18	n/a	n/a	n/a	2	15	1	7	7
342.072	n/a	PROB	171036	n/a	LTP325	ltpFR2	18	n/a	n/a	n/a	2	21	9	7	5
346.492	n/a	PROB	173246	n/a	LTP325	ltpFR2	18	n/a	n/a	n/a	2	16	7	2	7
347.89	n/a	PROB	173945	n/a	LTP325	ltpFR2	18	n/a	n/a	n/a	2	23	8	9	6
352.012	n/a	PROB	176006	n/a	LTP325	ltpFR2	18	n/a	n/a	n/a	2	12	2	9	1
353.232	n/a	PROB	176616	n/a	LTP325	ltpFR2	18	n/a	n/a	n/a	2	10	2	2	6
354.782	n/a	PROB	177391	n/a	LTP325	ltpFR2	18	n/a	n/a	n/a	2	28	9	9	9
356.666	n/a	PROB	178333	n/a	LTP325	ltpFR2	18	n/a	n/a	n/a	2	13	1	3	9
358.468	n/a	PROB	179234	n/a	LTP325	ltpFR2	18	n/a	n/a	n/a	2	18	3	9	6
361.204	n/a	PROB	180602	n/a	LTP325	ltpFR2	18	n/a	n/a	n/a	2	15	3	7	5
362.536	n/a	STOP	181268	n/a	LTP325	ltpFR2	18	n/a	n/a	n/a	2	n/a	n/a	n/a	n/a
365.61	n/a	REC_START	182805	n/a	LTP325	ltpFR2	18	1	n/a	n/a	n/a	n/a	0	0	0
367.14	n/a	REC_WORD_VV	183570	wordpools/wasnorm_wordpool_576.txt	LTP325	ltpFR2	18	1	<>	-1	n/a	n/a	0	0	0
367.14	n/a	REC_WORD_VV	183570	wordpools/wasnorm_wordpool_576.txt	LTP325	ltpFR2	18	1	<>	-1	n/a	n/a	0	0	0
367.992	n/a	REC_WORD	183996	wordpools/wasnorm_wordpool_576.txt	LTP325	ltpFR2	18	1	PILOT	1070	n/a	n/a	0	0	0
367.992	n/a	REC_WORD	183996	wordpools/wasnorm_wordpool_576.txt	LTP325	ltpFR2	18	1	PILOT	1070	n/a	n/a	0	0	0
369.668	n/a	REC_WORD	184834	wordpools/wasnorm_wordpool_576.txt	LTP325	ltpFR2	18	1	PEANUT	1032	n/a	n/a	0	0	0
369.674	n/a	REC_WORD	184837	wordpools/wasnorm_wordpool_576.txt	LTP325	ltpFR2	18	1	PEANUT	1032	n/a	n/a	0	0	0
372.398	n/a	REC_WORD	186199	wordpools/wasnorm_wordpool_576.txt	LTP325	ltpFR2	18	1	MUFFIN	929	n/a	n/a	0	0	0
372.402	n/a	REC_WORD	186201	wordpools/wasnorm_wordpool_576.txt	LTP325	ltpFR2	18	1	MUFFIN	929	n/a	n/a	0	0	0
374.34	n/a	REC_WORD	187170	wordpools/wasnorm_wordpool_576.txt	LTP325	ltpFR2	18	1	TORTOISE	1486	n/a	n/a	0	0	0
374.342	n/a	REC_WORD	187171	wordpools/wasnorm_wordpool_576.txt	LTP325	ltpFR2	18	1	TORTOISE	1486	n/a	n/a	0	0	0
379.72	n/a	REC_WORD	189860	wordpools/wasnorm_wordpool_576.txt	LTP325	ltpFR2	18	1	SUPPER	1411	n/a	n/a	0	0	0
379.722	n/a	REC_WORD	189861	wordpools/wasnorm_wordpool_576.txt	LTP325	ltpFR2	18	1	SUPPER	1411	n/a	n/a	0	0	0
383.962	n/a	REC_WORD	191981	wordpools/wasnorm_wordpool_576.txt	LTP325	ltpFR2	18	1	TABLE	1426	n/a	n/a	0	0	0
383.966	n/a	REC_WORD	191983	wordpools/wasnorm_wordpool_576.txt	LTP325	ltpFR2	18	1	TABLE	1426	n/a	n/a	0	0	0
388.22	n/a	REC_WORD	194110	wordpools/wasnorm_wordpool_576.txt	LTP325	ltpFR2	18	1	TURTLE	1522	n/a	n/a	0	0	0
388.224	n/a	REC_WORD	194112	wordpools/wasnorm_wordpool_576.txt	LTP325	ltpFR2	18	1	TURTLE	1522	n/a	n/a	0	0	0
389.676	n/a	REC_WORD	194838	wordpools/wasnorm_wordpool_576.txt	LTP325	ltpFR2	18	1	FLEET	578	n/a	n/a	0	0	0
389.682	n/a	REC_WORD	194841	wordpools/wasnorm_wordpool_576.txt	LTP325	ltpFR2	18	1	FLEET	578	n/a	n/a	0	0	0
402.958	n/a	REC_WORD	201479	wordpools/wasnorm_wordpool_576.txt	LTP325	ltpFR2	18	1	COUCH	386	n/a	n/a	0	0	0
402.958	n/a	REC_WORD	201479	wordpools/wasnorm_wordpool_576.txt	LTP325	ltpFR2	18	1	COUCH	386	n/a	n/a	0	0	0
404.41	n/a	REC_WORD	202205	wordpools/wasnorm_wordpool_576.txt	LTP325	ltpFR2	18	1	CHEST	295	n/a	n/a	0	0	0
404.41	n/a	REC_WORD	202205	wordpools/wasnorm_wordpool_576.txt	LTP325	ltpFR2	18	1	CHEST	295	n/a	n/a	0	0	0
407.28	n/a	REC_WORD	203640	wordpools/wasnorm_wordpool_576.txt	LTP325	ltpFR2	18	1	COSTUME	383	n/a	n/a	0	0	0
407.28	n/a	REC_WORD	203640	wordpools/wasnorm_wordpool_576.txt	LTP325	ltpFR2	18	1	COSTUME	383	n/a	n/a	0	0	0
409.562	n/a	REC_WORD	204781	wordpools/wasnorm_wordpool_576.txt	LTP325	ltpFR2	18	1	COTTAGE	384	n/a	n/a	0	0	0
409.562	n/a	REC_WORD	204781	wordpools/wasnorm_wordpool_576.txt	LTP325	ltpFR2	18	1	COTTAGE	384	n/a	n/a	0	0	0
411.36	n/a	REC_WORD	205680	wordpools/wasnorm_wordpool_576.txt	LTP325	ltpFR2	18	1	TOASTER	1472	n/a	n/a	0	0	0
411.362	n/a	REC_WORD	205681	wordpools/wasnorm_wordpool_576.txt	LTP325	ltpFR2	18	1	TOASTER	1472	n/a	n/a	0	0	0
413.288	n/a	REC_WORD	206644	wordpools/wasnorm_wordpool_576.txt	LTP325	ltpFR2	18	1	POSSUM	1112	n/a	n/a	0	0	0
413.288	n/a	REC_WORD	206644	wordpools/wasnorm_wordpool_576.txt	LTP325	ltpFR2	18	1	POSSUM	1112	n/a	n/a	0	0	0
415.59	n/a	REC_WORD	207795	wordpools/wasnorm_wordpool_576.txt	LTP325	ltpFR2	18	1	JEANS	752	n/a	n/a	0	0	0
415.59	n/a	REC_WORD	207795	wordpools/wasnorm_wordpool_576.txt	LTP325	ltpFR2	18	1	JEANS	752	n/a	n/a	0	0	0
417.052	n/a	REC_WORD	208526	wordpools/wasnorm_wordpool_576.txt	LTP325	ltpFR2	18	1	SWIMMER	1420	n/a	n/a	0	0	0
417.056	n/a	REC_WORD	208528	wordpools/wasnorm_wordpool_576.txt	LTP325	ltpFR2	18	1	SWIMMER	1420	n/a	n/a	0	0	0
418.666	n/a	REC_WORD	209333	wordpools/wasnorm_wordpool_576.txt	LTP325	ltpFR2	18	1	SNAIL	1332	n/a	n/a	0	0	0
418.666	n/a	REC_WORD	209333	wordpools/wasnorm_wordpool_576.txt	LTP325	ltpFR2	18	1	SNAIL	1332	n/a	n/a	0	0	0
421.284	n/a	REC_WORD	210642	wordpools/wasnorm_wordpool_576.txt	LTP325	ltpFR2	18	1	OUTLAW	989	n/a	n/a	0	0	0
421.284	n/a	REC_WORD	210642	wordpools/wasnorm_wordpool_576.txt	LTP325	ltpFR2	18	1	OUTLAW	989	n/a	n/a	0	0	0
456.082	n/a	WORD	228041	wordpools/wasnorm_wordpool_576.txt	LTP325	ltpFR2	18	2	SLIDE	1326	n/a	n/a	0	0	0
458.902	n/a	WORD	229451	wordpools/wasnorm_wordpool_576.txt	LTP325	ltpFR2	18	2	CORAL	378	n/a	n/a	0	0	0
461.444	n/a	WORD	230722	wordpools/wasnorm_wordpool_576.txt	LTP325	ltpFR2	18	2	PASTRY	1022	n/a	n/a	0	0	0
464.108	n/a	WORD	232054	wordpools/wasnorm_wordpool_576.txt	LTP325	ltpFR2	18	2	SPOON	1357	n/a	n/a	0	0	0
466.844	n/a	WORD	233422	wordpools/wasnorm_wordpool_576.txt	LTP325	ltpFR2	18	2	JELLO	754	n/a	n/a	0	0	0
469.284	n/a	WORD	234642	wordpools/wasnorm_wordpool_576.txt	LTP325	ltpFR2	18	2	SNACK	1331	n/a	n/a	0	0	0
471.846	n/a	WORD	235923	wordpools/wasnorm_wordpool_576.txt	LTP325	ltpFR2	18	2	PORK	1108	n/a	n/a	0	0	0
474.5	n/a	WORD	237250	wordpools/wasnorm_wordpool_576.txt	LTP325	ltpFR2	18	2	BRIEFCASE	175	n/a	n/a	0	0	0
477.0	n/a	WORD	238500	wordpools/wasnorm_wordpool_576.txt	LTP325	ltpFR2	18	2	BARREL	91	n/a	n/a	0	0	0
479.786	n/a	WORD	239893	wordpools/wasnorm_wordpool_576.txt	LTP325	ltpFR2	18	2	EGYPT	519	n/a	n/a	0	0	0
482.32	n/a	WORD	241160	wordpools/wasnorm_wordpool_576.txt	LTP325	ltpFR2	18	2	COIN	343	n/a	n/a	0	0	0
484.972	n/a	WORD	242486	wordpools/wasnorm_wordpool_576.txt	LTP325	ltpFR2	18	2	WASP	1593	n/a	n/a	0	0	0
487.448	n/a	WORD	243724	wordpools/wasnorm_wordpool_576.txt	LTP325	ltpFR2	18	2	IGLOO	734	n/a	n/a	0	0	0
489.984	n/a	WORD	244992	wordpools/wasnorm_wordpool_576.txt	LTP325	ltpFR2	18	2	JURY	766	n/a	n/a	0	0	0
492.564	n/a	WORD	246282	wordpools/wasnorm_wordpool_576.txt	LTP325	ltpFR2	18	2	JUDGE	761	n/a	n/a	0	0	0
494.998	n/a	WORD	247499	wordpools/wasnorm_wordpool_576.txt	LTP325	ltpFR2	18	2	CHAMPAGNE	278	n/a	n/a	0	0	0
497.534	n/a	WORD	248767	wordpools/wasnorm_wordpool_576.txt	LTP325	ltpFR2	18	2	SLOPE	1328	n/a	n/a	0	0	0
500.018	n/a	WORD	250009	wordpools/wasnorm_wordpool_576.txt	LTP325	ltpFR2	18	2	BANKER	84	n/a	n/a	0	0	0
502.488	n/a	WORD	251244	wordpools/wasnorm_wordpool_576.txt	LTP325	ltpFR2	18	2	DASHBOARD	441	n/a	n/a	0	0	0
504.99	n/a	WORD	252495	wordpools/wasnorm_wordpool_576.txt	LTP325	ltpFR2	18	2	BUGGY	188	n/a	n/a	0	0	0
507.55	n/a	WORD	253775	wordpools/wasnorm_wordpool_576.txt	LTP325	ltpFR2	18	2	MARSH	874	n/a	n/a	0	0	0
510.178	n/a	WORD	255089	wordpools/wasnorm_wordpool_576.txt	LTP325	ltpFR2	18	2	GARLIC	624	n/a	n/a	0	0	0
512.91	n/a	WORD	256455	wordpools/wasnorm_wordpool_576.txt	LTP325	ltpFR2	18	2	BRICK	172	n/a	n/a	0	0	0
515.464	n/a	WORD	257732	wordpools/wasnorm_wordpool_576.txt	LTP325	ltpFR2	18	2	IDOL	733	n/a	n/a	0	0	0
517.076	n/a	START	258538	n/a	LTP325	ltpFR2	18	n/a	n/a	n/a	3	n/a	n/a	n/a	n/a
518.264	n/a	DISTRACTOR	259132	n/a	LTP325	ltpFR2	18	2	n/a	n/a	n/a	n/a	0	0	0
518.276	n/a	PROB	259138	n/a	LTP325	ltpFR2	18	n/a	n/a	n/a	3	19	8	7	4
520.624	n/a	PROB	260312	n/a	LTP325	ltpFR2	18	n/a	n/a	n/a	3	6	3	1	2
522.292	n/a	PROB	261146	n/a	LTP325	ltpFR2	18	n/a	n/a	n/a	3	12	7	1	4
523.71	n/a	PROB	261855	n/a	LTP325	ltpFR2	18	n/a	n/a	n/a	3	17	5	6	6
525.33	n/a	PROB	262665	n/a	LTP325	ltpFR2	18	n/a	n/a	n/a	3	12	1	4	7
528.332	n/a	PROB	264166	n/a	LTP325	ltpFR2	18	n/a	n/a	n/a	3	1	5	4	6
530.134	n/a	PROB	265067	n/a	LTP325	ltpFR2	18	n/a	n/a	n/a	3	9	6	2	1
531.652	n/a	PROB	265826	n/a	LTP325	ltpFR2	18	n/a	n/a	n/a	3	23	8	6	9
537.356	n/a	PROB	268678	n/a	LTP325	ltpFR2	18	n/a	n/a	n/a	3	17	8	5	4
541.076	n/a	STOP	270538	n/a	LTP325	ltpFR2	18	n/a	n/a	n/a	3	n/a	n/a	n/a	n/a
542.96	n/a	REC_START	271480	n/a	LTP325	ltpFR2	18	2	n/a	n/a	n/a	n/a	0	0	0
544.588	n/a	REC_WORD	272294	wordpools/wasnorm_wordpool_576.txt	LTP325	ltpFR2	18	2	DASHBOARD	441	n/a	n/a	0	0	0
545.588	n/a	REC_WORD_VV	272794	wordpools/wasnorm_wordpool_576.txt	LTP325	ltpFR2	18	2	<>	-1	n/a	n/a	0	0	0
546.608	n/a	REC_WORD	273304	wordpools/wasnorm_wordpool_576.txt	LTP325	ltpFR2	18	2	BUGGY	188	n/a	n/a	0	0	0
548.308	n/a	REC_WORD	274154	wordpools/wasnorm_wordpool_576.txt	LTP325	ltpFR2	18	2	MARSH	874	n/a	n/a	0	0	0
570.208	n/a	REC_WORD	285104	wordpools/wasnorm_wordpool_576.txt	LTP325	ltpFR2	18	2	SLIDE	1326	n/a	n/a	0	0	0
571.862	n/a	REC_WORD	285931	wordpools/wasnorm_wordpool_576.txt	LTP325	ltpFR2	18	2	CORAL	378	n/a	n/a	0	0	0
574.182	n/a	REC_WORD	287091	wordpools/wasnorm_wordpool_576.txt	LTP325	ltpFR2	18	2	PASTRY	1022	n/a	n/a	0	0	0
576.378	n/a	REC_WORD	288189	wordpools/wasnorm_wordpool_576.txt	LTP325	ltpFR2	18	2	SPOON	1357	n/a	n/a	0	0	0
578.312	n/a	REC_WORD	289156	wordpools/wasnorm_wordpool_576.txt	LTP325	ltpFR2	18	2	JELLO	754	n/a	n/a	0	0	0
579.902	n/a	REC_WORD	289951	wordpools/wasnorm_wordpool_576.txt	LTP325	ltpFR2	18	2	SNACK	1331	n/a	n/a	0	0	0
585.974	n/a	REC_WORD	292987	wordpools/wasnorm_wordpool_576.txt	LTP325	ltpFR2	18	2	IDOL	733	n/a	n/a	0	0	0
609.796	n/a	REC_WORD	304898	wordpools/wasnorm_wordpool_576.txt	LTP325	ltpFR2	18	2	BANKER	84	n/a	n/a	0	0	0
611.028	n/a	REC_WORD	305514	wordpools/wasnorm_wordpool_576.txt	LTP325	ltpFR2	18	2	SLOPE	1328	n/a	n/a	0	0	0
612.304	n/a	REC_WORD	306152	wordpools/wasnorm_wordpool_576.txt	LTP325	ltpFR2	18	2	CHAMPAGNE	278	n/a	n/a	0	0	0
633.424	n/a	DISTRACTOR	316712	n/a	LTP325	ltpFR2	18	3	n/a	n/a	n/a	n/a	0	0	0
633.426	n/a	START	316713	n/a	LTP325	ltpFR2	18	n/a	n/a	n/a	4	n/a	n/a	n/a	n/a
633.442	n/a	PROB	316721	n/a	LTP325	ltpFR2	18	n/a	n/a	n/a	4	8	3	1	4
635.21	n/a	PROB	317605	n/a	LTP325	ltpFR2	18	n/a	n/a	n/a	4	12	7	3	2
636.342	n/a	PROB	318171	n/a	LTP325	ltpFR2	18	n/a	n/a	n/a	4	9	5	1	3
637.862	n/a	PROB	318931	n/a	LTP325	ltpFR2	18	n/a	n/a	n/a	4	17	9	5	3
640.044	n/a	PROB	320022	n/a	LTP325	ltpFR2	18	n/a	n/a	n/a	4	17	6	5	6
641.862	n/a	PROB	320931	n/a	LTP325	ltpFR2	18	n/a	n/a	n/a	4	17	2	8	7
643.414	n/a	PROB	321707	n/a	LTP325	ltpFR2	18	n/a	n/a	n/a	4	21	6	6	9
645.202	n/a	PROB	322601	n/a	LTP325	ltpFR2	18	n/a	n/a	n/a	4	16	1	8	7
646.966	n/a	PROB	323483	n/a	LTP325	ltpFR2	18	n/a	n/a	n/a	4	21	9	6	6
648.672	n/a	PROB	324336	n/a	LTP325	ltpFR2	18	n/a	n/a	n/a	4	18	2	8	8
650.136	n/a	PROB	325068	n/a	LTP325	ltpFR2	18	n/a	n/a	n/a	4	27	9	9	7
653.64	n/a	PROB	326820	n/a	LTP325	ltpFR2	18	n/a	n/a	n/a	4	15	1	6	8
657.426	n/a	STOP	328713	n/a	LTP325	ltpFR2	18	n/a	n/a	n/a	4	n/a	n/a	n/a	n/a
658.344	n/a	WORD	329172	wordpools/wasnorm_wordpool_576.txt	LTP325	ltpFR2	18	3	EAGLE	512	n/a	n/a	0	0	0
660.798	n/a	WORD	330399	wordpools/wasnorm_wordpool_576.txt	LTP325	ltpFR2	18	3	HEDGE	699	n/a	n/a	0	0	0
663.414	n/a	WORD	331707	wordpools/wasnorm_wordpool_576.txt	LTP325	ltpFR2	18	3	POLICE	1098	n/a	n/a	0	0	0
665.882	n/a	WORD	332941	wordpools/wasnorm_wordpool_576.txt	LTP325	ltpFR2	18	3	SHERIFF	1284	n/a	n/a	0	0	0
668.418	n/a	WORD	334209	wordpools/wasnorm_wordpool_576.txt	LTP325	ltpFR2	18	3	LONDON	843	n/a	n/a	0	0	0
671.042	n/a	WORD	335521	wordpools/wasnorm_wordpool_576.txt	LTP325	ltpFR2	18	3	COURSE	390	n/a	n/a	0	0	0
673.806	n/a	WORD	336903	wordpools/wasnorm_wordpool_576.txt	LTP325	ltpFR2	18	3	CRICKET	408	n/a	n/a	0	0	0
676.308	n/a	WORD	338154	wordpools/wasnorm_wordpool_576.txt	LTP325	ltpFR2	18	3	FRANCE	601	n/a	n/a	0	0	0
678.778	n/a	WORD	339389	wordpools/wasnorm_wordpool_576.txt	LTP325	ltpFR2	18	3	VICTIM	1562	n/a	n/a	0	0	0
681.366	n/a	WORD	340683	wordpools/wasnorm_wordpool_576.txt	LTP325	ltpFR2	18	3	ACTRESS	6	n/a	n/a	0	0	0
683.832	n/a	WORD	341916	wordpools/wasnorm_wordpool_576.txt	LTP325	ltpFR2	18	3	BOUQUET	157	n/a	n/a	0	0	0
686.35	n/a	WORD	343175	wordpools/wasnorm_wordpool_576.txt	LTP325	ltpFR2	18	3	HORNET	718	n/a	n/a	0	0	0
689.136	n/a	WORD	344568	wordpools/wasnorm_wordpool_576.txt	LTP325	ltpFR2	18	3	LABEL	790	n/a	n/a	0	0	0
691.772	n/a	WORD	345886	wordpools/wasnorm_wordpool_576.txt	LTP325	ltpFR2	18	3	CELLAR	267	n/a	n/a	0	0	0
694.244	n/a	WORD	347122	wordpools/wasnorm_wordpool_576.txt	LTP325	ltpFR2	18	3	PACKAGE	997	n/a	n/a	0	0	0
697.008	n/a	WORD	348504	wordpools/wasnorm_wordpool_576.txt	LTP325	ltpFR2	18	3	OFFICE	972	n/a	n/a	0	0	0
699.66	n/a	WORD	349830	wordpools/wasnorm_wordpool_576.txt	LTP325	ltpFR2	18	3	FRIEND	606	n/a	n/a	0	0	0
702.334	n/a	WORD	351167	wordpools/wasnorm_wordpool_576.txt	LTP325	ltpFR2	18	3	FARMER	553	n/a	n/a	0	0	0
705.07	n/a	WORD	352535	wordpools/wasnorm_wordpool_576.txt	LTP325	ltpFR2	18	3	NURSE	963	n/a	n/a	0	0	0
707.8	n/a	WORD	353900	wordpools/wasnorm_wordpool_576.txt	LTP325	ltpFR2	18	3	OMELET	976	n/a	n/a	0	0	0
710.37	n/a	WORD	355185	wordpools/wasnorm_wordpool_576.txt	LTP325	ltpFR2	18	3	PADDING	999	n/a	n/a	0	0	0
712.826	n/a	WORD	356413	wordpools/wasnorm_wordpool_576.txt	LTP325	ltpFR2	18	3	LOFT	840	n/a	n/a	0	0	0
715.274	n/a	WORD	357637	wordpools/wasnorm_wordpool_576.txt	LTP325	ltpFR2	18	3	COCKTAIL	338	n/a	n/a	0	0	0
717.932	n/a	WORD	358966	wordpools/wasnorm_wordpool_576.txt	LTP325	ltpFR2	18	3	CRITIC	410	n/a	n/a	0	0	0
719.544	n/a	START	359772	n/a	LTP325	ltpFR2	18	n/a	n/a	n/a	5	n/a	n/a	n/a	n/a
720.428	n/a	DISTRACTOR	360214	n/a	LTP325	ltpFR2	18	3	n/a	n/a	n/a	n/a	0	0	0
720.434	n/a	PROB	360217	n/a	LTP325	ltpFR2	18	n/a	n/a	n/a	5	19	6	6	7
725.652	n/a	PROB	362826	n/a	LTP325	ltpFR2	18	n/a	n/a	n/a	5	21	4	9	8
728.338	n/a	PROB	364169	n/a	LTP325	ltpFR2	18	n/a	n/a	n/a	5	14	8	2	4
729.59	n/a	PROB	364795	n/a	LTP325	ltpFR2	18	n/a	n/a	n/a	5	15	5	8	2
730.922	n/a	PROB	365461	n/a	LTP325	ltpFR2	18	n/a	n/a	n/a	5	18	8	2	8
732.292	n/a	PROB	366146	n/a	LTP325	ltpFR2	18	n/a	n/a	n/a	5	21	5	7	9
735.86	n/a	PROB	367930	n/a	LTP325	ltpFR2	18	n/a	n/a	n/a	5	16	8	7	1
737.444	n/a	PROB	368722	n/a	LTP325	ltpFR2	18	n/a	n/a	n/a	5	16	5	6	5
738.88	n/a	PROB	369440	n/a	LTP325	ltpFR2	18	n/a	n/a	n/a	5	17	1	9	7
740.264	n/a	PROB	370132	n/a	LTP325	ltpFR2	18	n/a	n/a	n/a	5	10	3	5	2
742.386	n/a	STOP	371193	n/a	LTP325	ltpFR2	18	n/a	n/a	n/a	5	n/a	n/a	n/a	n/a
745.452	n/a	REC_START	372726	n/a	LTP325	ltpFR2	18	3	n/a	n/a	n/a	n/a	0	0	0
748.164	n/a	REC_WORD	374082	wordpools/wasnorm_wordpool_576.txt	LTP325	ltpFR2	18	3	ACTRESS	6	n/a	n/a	0	0	0
749.8	n/a	REC_WORD	374900	wordpools/wasnorm_wordpool_576.txt	LTP325	ltpFR2	18	3	BOUQUET	157	n/a	n/a	0	0	0
751.212	n/a	REC_WORD	375606	wordpools/wasnorm_wordpool_576.txt	LTP325	ltpFR2	18	3	HORNET	718	n/a	n/a	0	0	0
755.082	n/a	REC_WORD	377541	wordpools/wasnorm_wordpool_576.txt	LTP325	ltpFR2	18	3	OFFICE	972	n/a	n/a	0	0	0
756.564	n/a	REC_WORD	378282	wordpools/wasnorm_wordpool_576.txt	LTP325	ltpFR2	18	3	FRIEND	606	n/a	n/a	0	0	0
759.228	n/a	REC_WORD	379614	wordpools/wasnorm_wordpool_576.txt	LTP325	ltpFR2	18	3	FARMER	553	n/a	n/a	0	0	0
762.082	n/a	REC_WORD	381041	wordpools/wasnorm_wordpool_576.txt	LTP325	ltpFR2	18	3	NURSE	963	n/a	n/a	0	0	0
771.018	n/a	REC_WORD	385509	wordpools/wasnorm_wordpool_576.txt	LTP325	ltpFR2	18	3	PADDING	999	n/a	n/a	0	0	0
795.106	n/a	REC_WORD	397553	wordpools/wasnorm_wordpool_576.txt	LTP325	ltpFR2	18	3	EAGLE	512	n/a	n/a	0	0	0
796.422	n/a	REC_WORD	398211	wordpools/wasnorm_wordpool_576.txt	LTP325	ltpFR2	18	3	HEDGE	699	n/a	n/a	0	0	0
798.188	n/a	REC_WORD	399094	wordpools/wasnorm_wordpool_576.txt	LTP325	ltpFR2	18	3	POLICE	1098	n/a	n/a	0	0	0
800.09	n/a	REC_WORD	400045	wordpools/wasnorm_wordpool_576.txt	LTP325	ltpFR2	18	3	SHERIFF	1284	n/a	n/a	0	0	0
801.854	n/a	REC_WORD	400927	wordpools/wasnorm_wordpool_576.txt	LTP325	ltpFR2	18	3	LONDON	843	n/a	n/a	0	0	0
803.964	n/a	REC_WORD	401982	wordpools/wasnorm_wordpool_576.txt	LTP325	ltpFR2	18	3	FRANCE	601	n/a	n/a	0	0	0
805.924	n/a	REC_WORD	402962	wordpools/wasnorm_wordpool_576.txt	LTP325	ltpFR2	18	3	CRICKET	408	n/a	n/a	0	0	0
807.716	n/a	REC_WORD	403858	wordpools/wasnorm_wordpool_576.txt	LTP325	ltpFR2	18	3	VICTIM	1562	n/a	n/a	0	0	0
835.916	n/a	DISTRACTOR	417958	n/a	LTP325	ltpFR2	18	4	n/a	n/a	n/a	n/a	0	0	0
835.916	n/a	START	417958	n/a	LTP325	ltpFR2	18	n/a	n/a	n/a	6	n/a	n/a	n/a	n/a
835.93	n/a	PROB	417965	n/a	LTP325	ltpFR2	18	n/a	n/a	n/a	6	20	6	8	6
838.166	n/a	PROB	419083	n/a	LTP325	ltpFR2	18	n/a	n/a	n/a	6	9	1	2	6
840.1	n/a	PROB	420050	n/a	LTP325	ltpFR2	18	n/a	n/a	n/a	6	12	3	7	2
841.25	n/a	PROB	420625	n/a	LTP325	ltpFR2	18	n/a	n/a	n/a	6	14	5	1	8
842.904	n/a	PROB	421452	n/a	LTP325	ltpFR2	18	n/a	n/a	n/a	6	12	9	1	2
844.086	n/a	PROB	422043	n/a	LTP325	ltpFR2	18	n/a	n/a	n/a	6	14	3	3	8
845.856	n/a	PROB	422928	n/a	LTP325	ltpFR2	18	n/a	n/a	n/a	6	11	2	6	3
848.242	n/a	PROB	424121	n/a	LTP325	ltpFR2	18	n/a	n/a	n/a	6	24	8	9	7
850.626	n/a	PROB	425313	n/a	LTP325	ltpFR2	18	n/a	n/a	n/a	6	23	9	6	8
853.928	n/a	PROB	426964	n/a	LTP325	ltpFR2	18	n/a	n/a	n/a	6	16	5	3	8
856.03	n/a	PROB	428015	n/a	LTP325	ltpFR2	18	n/a	n/a	n/a	6	14	2	4	8
857.316	n/a	PROB	428658	n/a	LTP325	ltpFR2	18	n/a	n/a	n/a	6	15	1	7	7
858.654	n/a	STOP	429327	n/a	LTP325	ltpFR2	18	n/a	n/a	n/a	6	n/a	n/a	n/a	n/a
860.806	n/a	WORD	430403	wordpools/wasnorm_wordpool_576.txt	LTP325	ltpFR2	18	4	COWBOY	395	n/a	n/a	0	0	0
863.474	n/a	WORD	431737	wordpools/wasnorm_wordpool_576.txt	LTP325	ltpFR2	18	4	AWARD	63	n/a	n/a	0	0	0
866.06	n/a	WORD	433030	wordpools/wasnorm_wordpool_576.txt	LTP325	ltpFR2	18	4	FRAME	600	n/a	n/a	0	0	0
868.66	n/a	WORD	434330	wordpools/wasnorm_wordpool_576.txt	LTP325	ltpFR2	18	4	KNAPSACK	783	n/a	n/a	0	0	0
871.446	n/a	WORD	435723	wordpools/wasnorm_wordpool_576.txt	LTP325	ltpFR2	18	4	BOYFRIEND	162	n/a	n/a	0	0	0
873.898	n/a	WORD	436949	wordpools/wasnorm_wordpool_576.txt	LTP325	ltpFR2	18	4	MASK	876	n/a	n/a	0	0	0
876.618	n/a	WORD	438309	wordpools/wasnorm_wordpool_576.txt	LTP325	ltpFR2	18	4	TREAT	1501	n/a	n/a	0	0	0
879.22	n/a	WORD	439610	wordpools/wasnorm_wordpool_576.txt	LTP325	ltpFR2	18	4	BLOCKADE	137	n/a	n/a	0	0	0
881.988	n/a	WORD	440994	wordpools/wasnorm_wordpool_576.txt	LTP325	ltpFR2	18	4	CARRIAGE	248	n/a	n/a	0	0	0
884.558	n/a	WORD	442279	wordpools/wasnorm_wordpool_576.txt	LTP325	ltpFR2	18	4	FOOT	590	n/a	n/a	0	0	0
887.36	n/a	WORD	443680	wordpools/wasnorm_wordpool_576.txt	LTP325	ltpFR2	18	4	BREAST	171	n/a	n/a	0	0	0
890.078	n/a	WORD	445039	wordpools/wasnorm_wordpool_576.txt	LTP325	ltpFR2	18	4	STAPLE	1371	n/a	n/a	0	0	0
892.782	n/a	WORD	446391	wordpools/wasnorm_wordpool_576.txt	LTP325	ltpFR2	18	4	PAPER	1011	n/a	n/a	0	0	0
895.382	n/a	WORD	447691	wordpools/wasnorm_wordpool_576.txt	LTP325	ltpFR2	18	4	CLOUD	328	n/a	n/a	0	0	0
898.168	n/a	WORD	449084	wordpools/wasnorm_wordpool_576.txt	LTP325	ltpFR2	18	4	SMOG	1330	n/a	n/a	0	0	0
900.902	n/a	WORD	450451	wordpools/wasnorm_wordpool_576.txt	LTP325	ltpFR2	18	4	COUNTRY	388	n/a	n/a	0	0	0
903.422	n/a	WORD	451711	wordpools/wasnorm_wordpool_576.txt	LTP325	ltpFR2	18	4	LAKE	796	n/a	n/a	0	0	0
906.058	n/a	WORD	453029	wordpools/wasnorm_wordpool_576.txt	LTP325	ltpFR2	18	4	TILE	1468	n/a	n/a	0	0	0
908.61	n/a	WORD	454305	wordpools/wasnorm_wordpool_576.txt	LTP325	ltpFR2	18	4	ROD	1203	n/a	n/a	0	0	0
911.3	n/a	WORD	455650	wordpools/wasnorm_wordpool_576.txt	LTP325	ltpFR2	18	4	OZONE	996	n/a	n/a	0	0	0
913.732	n/a	WORD	456866	wordpools/wasnorm_wordpool_576.txt	LTP325	ltpFR2	18	4	NOMAD	955	n/a	n/a	0	0	0
916.4	n/a	WORD	458200	wordpools/wasnorm_wordpool_576.txt	LTP325	ltpFR2	18	4	COUNTY	389	n/a	n/a	0	0	0
919.184	n/a	WORD	459592	wordpools/wasnorm_wordpool_576.txt	LTP325	ltpFR2	18	4	ANKLE	24	n/a	n/a	0	0	0
921.64	n/a	WORD	460820	wordpools/wasnorm_wordpool_576.txt	LTP325	ltpFR2	18	4	OX	994	n/a	n/a	0	0	0
923.256	n/a	START	461628	n/a	LTP325	ltpFR2	18	n/a	n/a	n/a	7	n/a	n/a	n/a	n/a
924.11	n/a	DISTRACTOR	462055	n/a	LTP325	ltpFR2	18	4	n/a	n/a	n/a	n/a	0	0	0
924.122	n/a	PROB	462061	n/a	LTP325	ltpFR2	18	n/a	n/a	n/a	7	11	5	1	5
925.354	n/a	PROB	462677	n/a	LTP325	ltpFR2	18	n/a	n/a	n/a	7	20	9	9	2
929.044	n/a	PROB	464522	n/a	LTP325	ltpFR2	18	n/a	n/a	n/a	7	11	2	7	2
930.914	n/a	PROB	465457	n/a	LTP325	ltpFR2	18	n/a	n/a	n/a	7	13	2	6	5
932.692	n/a	PROB	466346	n/a	LTP325	ltpFR2	18	n/a	n/a	n/a	7	12	1	5	6
934.048	n/a	PROB	467024	n/a	LTP325	ltpFR2	18	n/a	n/a	n/a	7	16	5	3	8
935.878	n/a	PROB	467939	n/a	LTP325	ltpFR2	18	n/a	n/a	n/a	7	11	6	2	3
937.912	n/a	PROB	468956	n/a	LTP325	ltpFR2	18	n/a	n/a	n/a	7	14	6	7	1
940.002	n/a	PROB	470001	n/a	LTP325	ltpFR2	18	n/a	n/a	n/a	7	12	2	2	8
941.272	n/a	PROB	470636	n/a	LTP325	ltpFR2	18	n/a	n/a	n/a	7	20	7	9	4
943.674	n/a	PROB	471837	n/a	LTP325	ltpFR2	18	n/a	n/a	n/a	7	15	5	8	2
944.908	n/a	PROB	472454	n/a	LTP325	ltpFR2	18	n/a	n/a	n/a	7	14	4	7	3
946.25	n/a	STOP	473125	n/a	LTP325	ltpFR2	18	n/a	n/a	n/a	7	n/a	n/a	n/a	n/a
949.064	n/a	REC_START	474532	n/a	LTP325	ltpFR2	18	4	n/a	n/a	n/a	n/a	0	0	0
953.458	n/a	REC_WORD	476729	wordpools/wasnorm_wordpool_576.txt	LTP325	ltpFR2	18	4	ANKLE	24	n/a	n/a	0	0	0
955.04	n/a	REC_WORD	477520	wordpools/wasnorm_wordpool_576.txt	LTP325	ltpFR2	18	4	OX	994	n/a	n/a	0	0	0
956.816	n/a	REC_WORD	478408	wordpools/wasnorm_wordpool_576.txt	LTP325	ltpFR2	18	4	FOOT	590	n/a	n/a	0	0	0
959.028	n/a	REC_WORD	479514	wordpools/wasnorm_wordpool_576.txt	LTP325	ltpFR2	18	4	BREAST	171	n/a	n/a	0	0	0
962.818	n/a	REC_WORD	481409	wordpools/wasnorm_wordpool_576.txt	LTP325	ltpFR2	18	4	PAPER	1011	n/a	n/a	0	0	0
964.058	n/a	REC_WORD	482029	wordpools/wasnorm_wordpool_576.txt	LTP325	ltpFR2	18	4	STAPLE	1371	n/a	n/a	0	0	0
968.832	n/a	REC_WORD	484416	wordpools/wasnorm_wordpool_576.txt	LTP325	ltpFR2	18	4	CLOUD	328	n/a	n/a	0	0	0
970.188	n/a	REC_WORD	485094	wordpools/wasnorm_wordpool_576.txt	LTP325	ltpFR2	18	4	SMOG	1330	n/a	n/a	0	0	0
998.158	n/a	REC_WORD	499079	wordpools/wasnorm_wordpool_576.txt	LTP325	ltpFR2	18	4	COUNTRY	388	n/a	n/a	0	0	0
1000.032	n/a	REC_WORD	500016	wordpools/wasnorm_wordpool_576.txt	LTP325	ltpFR2	18	4	LAKE	796	n/a	n/a	0	0	0
1001.666	n/a	REC_WORD	500833	wordpools/wasnorm_wordpool_576.txt	LTP325	ltpFR2	18	4	TILE	1468	n/a	n/a	0	0	0
1003.314	n/a	REC_WORD	501657	wordpools/wasnorm_wordpool_576.txt	LTP325	ltpFR2	18	4	COUNTY	389	n/a	n/a	0	0	0
1056.12	n/a	WORD	528060	wordpools/wasnorm_wordpool_576.txt	LTP325	ltpFR2	18	5	CANAL	226	n/a	n/a	0	0	0
1058.846	n/a	WORD	529423	wordpools/wasnorm_wordpool_576.txt	LTP325	ltpFR2	18	5	GREASE	660	n/a	n/a	0	0	0
1061.394	n/a	WORD	530697	wordpools/wasnorm_wordpool_576.txt	LTP325	ltpFR2	18	5	MATTRESS	879	n/a	n/a	0	0	0
1063.846	n/a	WORD	531923	wordpools/wasnorm_wordpool_576.txt	LTP325	ltpFR2	18	5	CLAMP	316	n/a	n/a	0	0	0
1066.616	n/a	WORD	533308	wordpools/wasnorm_wordpool_576.txt	LTP325	ltpFR2	18	5	ISLAND	745	n/a	n/a	0	0	0
1069.168	n/a	WORD	534584	wordpools/wasnorm_wordpool_576.txt	LTP325	ltpFR2	18	5	DIVER	476	n/a	n/a	0	0	0
1071.636	n/a	WORD	535818	wordpools/wasnorm_wordpool_576.txt	LTP325	ltpFR2	18	5	HELMET	702	n/a	n/a	0	0	0
1074.288	n/a	WORD	537144	wordpools/wasnorm_wordpool_576.txt	LTP325	ltpFR2	18	5	SEAFOOD	1260	n/a	n/a	0	0	0
1077.074	n/a	WORD	538537	wordpools/wasnorm_wordpool_576.txt	LTP325	ltpFR2	18	5	BELLY	119	n/a	n/a	0	0	0
1079.846	n/a	WORD	539923	wordpools/wasnorm_wordpool_576.txt	LTP325	ltpFR2	18	5	SKILLET	1317	n/a	n/a	0	0	0
1082.514	n/a	WORD	541257	wordpools/wasnorm_wordpool_576.txt	LTP325	ltpFR2	18	5	TAXI	1438	n/a	n/a	0	0	0
1085.166	n/a	WORD	542583	wordpools/wasnorm_wordpool_576.txt	LTP325	ltpFR2	18	5	RUST	1219	n/a	n/a	0	0	0
1087.8	n/a	WORD	543900	wordpools/wasnorm_wordpool_576.txt	LTP325	ltpFR2	18	5	STAR	1373	n/a	n/a	0	0	0
1090.452	n/a	WORD	545226	wordpools/wasnorm_wordpool_576.txt	LTP325	ltpFR2	18	5	GALLON	618	n/a	n/a	0	0	0
1093.072	n/a	WORD	546536	wordpools/wasnorm_wordpool_576.txt	LTP325	ltpFR2	18	5	DRAWING	494	n/a	n/a	0	0	0
1095.54	n/a	WORD	547770	wordpools/wasnorm_wordpool_576.txt	LTP325	ltpFR2	18	5	PIGMENT	1066	n/a	n/a	0	0	0
1098.31	n/a	WORD	549155	wordpools/wasnorm_wordpool_576.txt	LTP325	ltpFR2	18	5	BRAKE	166	n/a	n/a	0	0	0
1100.796	n/a	WORD	550398	wordpools/wasnorm_wordpool_576.txt	LTP325	ltpFR2	18	5	YOLK	1633	n/a	n/a	0	0	0
1103.498	n/a	WORD	551749	wordpools/wasnorm_wordpool_576.txt	LTP325	ltpFR2	18	5	SHARK	1275	n/a	n/a	0	0	0
1106.1	n/a	WORD	553050	wordpools/wasnorm_wordpool_576.txt	LTP325	ltpFR2	18	5	PERFUME	1049	n/a	n/a	0	0	0
1108.818	n/a	WORD	554409	wordpools/wasnorm_wordpool_576.txt	LTP325	ltpFR2	18	5	TEMPLE	1448	n/a	n/a	0	0	0
1111.404	n/a	WORD	555702	wordpools/wasnorm_wordpool_576.txt	LTP325	ltpFR2	18	5	LUGGAGE	847	n/a	n/a	0	0	0
1114.056	n/a	WORD	557028	wordpools/wasnorm_wordpool_576.txt	LTP325	ltpFR2	18	5	KETCHUP	771	n/a	n/a	0	0	0
1116.592	n/a	WORD	558296	wordpools/wasnorm_wordpool_576.txt	LTP325	ltpFR2	18	5	MUSTARD	935	n/a	n/a	0	0	0
1118.21	n/a	START	559105	n/a	LTP325	ltpFR2	18	n/a	n/a	n/a	8	n/a	n/a	n/a	n/a
1119.01	n/a	DISTRACTOR	559505	n/a	LTP325	ltpFR2	18	5	n/a	n/a	n/a	n/a	0	0	0
1119.026	n/a	PROB	559513	n/a	LTP325	ltpFR2	18	n/a	n/a	n/a	8	17	1	8	8
1120.842	n/a	PROB	560421	n/a	LTP325	ltpFR2	18	n/a	n/a	n/a	8	6	1	2	3
1122.376	n/a	PROB	561188	n/a	LTP325	ltpFR2	18	n/a	n/a	n/a	8	19	6	6	7
1125.816	n/a	PROB	562908	n/a	LTP325	ltpFR2	18	n/a	n/a	n/a	8	23	9	8	6
1128.598	n/a	PROB	564299	n/a	LTP325	ltpFR2	18	n/a	n/a	n/a	8	18	5	9	4
1130.738	n/a	PROB	565369	n/a	LTP325	ltpFR2	18	n/a	n/a	n/a	8	17	2	8	7
1132.12	n/a	PROB	566060	n/a	LTP325	ltpFR2	18	n/a	n/a	n/a	8	18	9	7	2
1135.706	n/a	PROB	567853	n/a	LTP325	ltpFR2	18	n/a	n/a	n/a	8	16	6	4	6
1137.058	n/a	PROB	568529	n/a	LTP325	ltpFR2	18	n/a	n/a	n/a	8	12	5	2	5
1138.358	n/a	PROB	569179	n/a	LTP325	ltpFR2	18	n/a	n/a	n/a	8	17	8	5	4
1140.23	n/a	PROB	570115	n/a	LTP325	ltpFR2	18	n/a	n/a	n/a	8	8	2	4	4
1141.768	n/a	STOP	570884	n/a	LTP325	ltpFR2	18	n/a	n/a	n/a	8	n/a	n/a	n/a	n/a
1144.116	n/a	REC_START	572058	n/a	LTP325	ltpFR2	18	5	n/a	n/a	n/a	n/a	0	0	0
1148.454	n/a	REC_WORD	574227	wordpools/wasnorm_wordpool_576.txt	LTP325	ltpFR2	18	5	SHARK	1275	n/a	n/a	0	0	0
1150.068	n/a	REC_WORD	575034	wordpools/wasnorm_wordpool_576.txt	LTP325	ltpFR2	18	5	PERFUME	1049	n/a	n/a	0	0	0
1151.93	n/a	REC_WORD	575965	wordpools/wasnorm_wordpool_576.txt	LTP325	ltpFR2	18	5	TEMPLE	1448	n/a	n/a	0	0	0
1206.938	n/a	REC_WORD	603469	wordpools/wasnorm_wordpool_576.txt	LTP325	ltpFR2	18	5	COWBOY	395	n/a	n/a	0	0	0
1215.266	n/a	REC_WORD	607633	wordpools/wasnorm_wordpool_576.txt	LTP325	ltpFR2	18	5	AWARD	63	n/a	n/a	0	0	0
1218.554	n/a	REC_WORD	609277	wordpools/wasnorm_wordpool_576.txt	LTP325	ltpFR2	18	5	FRAME	600	n/a	n/a	0	0	0
1234.56	n/a	DISTRACTOR	617280	n/a	LTP325	ltpFR2	18	6	n/a	n/a	n/a	n/a	0	0	0
1234.562	n/a	START	617281	n/a	LTP325	ltpFR2	18	n/a	n/a	n/a	9	n/a	n/a	n/a	n/a
1234.574	n/a	PROB	617287	n/a	LTP325	ltpFR2	18	n/a	n/a	n/a	9	12	6	3	3
1237.494	n/a	PROB	618747	n/a	LTP325	ltpFR2	18	n/a	n/a	n/a	9	13	5	5	3
1238.662	n/a	PROB	619331	n/a	LTP325	ltpFR2	18	n/a	n/a	n/a	9	22	7	8	7
1240.496	n/a	PROB	620248	n/a	LTP325	ltpFR2	18	n/a	n/a	n/a	9	16	4	4	8
1244.082	n/a	PROB	622041	n/a	LTP325	ltpFR2	18	n/a	n/a	n/a	9	9	5	3	1
1246.484	n/a	PROB	623242	n/a	LTP325	ltpFR2	18	n/a	n/a	n/a	9	14	2	7	5
1248.152	n/a	PROB	624076	n/a	LTP325	ltpFR2	18	n/a	n/a	n/a	9	13	3	3	7
1249.42	n/a	PROB	624710	n/a	LTP325	ltpFR2	18	n/a	n/a	n/a	9	18	9	1	8
1250.822	n/a	PROB	625411	n/a	LTP325	ltpFR2	18	n/a	n/a	n/a	9	17	6	7	4
1252.508	n/a	PROB	626254	n/a	LTP325	ltpFR2	18	n/a	n/a	n/a	9	10	1	1	8
1254.074	n/a	PROB	627037	n/a	LTP325	ltpFR2	18	n/a	n/a	n/a	9	8	6	1	1
1255.558	n/a	PROB	627779	n/a	LTP325	ltpFR2	18	n/a	n/a	n/a	9	11	4	4	3
1257.402	n/a	STOP	628701	n/a	LTP325	ltpFR2	18	n/a	n/a	n/a	9	n/a	n/a	n/a	n/a
1259.682	n/a	WORD	629841	wordpools/wasnorm_wordpool_576.txt	LTP325	ltpFR2	18	6	UNCLE	1536	n/a	n/a	0	0	0
1262.14	n/a	WORD	631070	wordpools/wasnorm_wordpool_576.txt	LTP325	ltpFR2	18	6	KITCHEN	778	n/a	n/a	0	0	0
1264.71	n/a	WORD	632355	wordpools/wasnorm_wordpool_576.txt	LTP325	ltpFR2	18	6	PORTRAIT	1111	n/a	n/a	0	0	0
1267.172	n/a	WORD	633586	wordpools/wasnorm_wordpool_576.txt	LTP325	ltpFR2	18	6	RECORD	1176	n/a	n/a	0	0	0
1269.646	n/a	WORD	634823	wordpools/wasnorm_wordpool_576.txt	LTP325	ltpFR2	18	6	SEAGULL	1261	n/a	n/a	0	0	0
1272.26	n/a	WORD	636130	wordpools/wasnorm_wordpool_576.txt	LTP325	ltpFR2	18	6	BLADE	134	n/a	n/a	0	0	0
1274.882	n/a	WORD	637441	wordpools/wasnorm_wordpool_576.txt	LTP325	ltpFR2	18	6	PIGEON	1065	n/a	n/a	0	0	0
1277.398	n/a	WORD	638699	wordpools/wasnorm_wordpool_576.txt	LTP325	ltpFR2	18	6	CYCLONE	431	n/a	n/a	0	0	0
1279.866	n/a	WORD	639933	wordpools/wasnorm_wordpool_576.txt	LTP325	ltpFR2	18	6	GAZELLE	628	n/a	n/a	0	0	0
1282.402	n/a	WORD	641201	wordpools/wasnorm_wordpool_576.txt	LTP325	ltpFR2	18	6	FLAG	573	n/a	n/a	0	0	0
1284.974	n/a	WORD	642487	wordpools/wasnorm_wordpool_576.txt	LTP325	ltpFR2	18	6	VALVE	1546	n/a	n/a	0	0	0
1287.54	n/a	WORD	643770	wordpools/wasnorm_wordpool_576.txt	LTP325	ltpFR2	18	6	NAPKIN	937	n/a	n/a	0	0	0
1290.208	n/a	WORD	645104	wordpools/wasnorm_wordpool_576.txt	LTP325	ltpFR2	18	6	SPARROW	1347	n/a	n/a	0	0	0
1292.976	n/a	WORD	646488	wordpools/wasnorm_wordpool_576.txt	LTP325	ltpFR2	18	6	ROCKET	1202	n/a	n/a	0	0	0
1295.696	n/a	WORD	647848	wordpools/wasnorm_wordpool_576.txt	LTP325	ltpFR2	18	6	RAFT	1159	n/a	n/a	0	0	0
1298.386	n/a	WORD	649193	wordpools/wasnorm_wordpool_576.txt	LTP325	ltpFR2	18	6	ORCHID	982	n/a	n/a	0	0	0
1301.072	n/a	WORD	650536	wordpools/wasnorm_wordpool_576.txt	LTP325	ltpFR2	18	6	SURVEY	1414	n/a	n/a	0	0	0
1303.608	n/a	WORD	651804	wordpools/wasnorm_wordpool_576.txt	LTP325	ltpFR2	18	6	COBRA	336	n/a	n/a	0	0	0
1306.256	n/a	WORD	653128	wordpools/wasnorm_wordpool_576.txt	LTP325	ltpFR2	18	6	POISON	1096	n/a	n/a	0	0	0
1308.808	n/a	WORD	654404	wordpools/wasnorm_wordpool_576.txt	LTP325	ltpFR2	18	6	OUTDOORS	987	n/a	n/a	0	0	0
1311.26	n/a	WORD	655630	wordpools/wasnorm_wordpool_576.txt	LTP325	ltpFR2	18	6	JUGGLER	763	n/a	n/a	0	0	0
1313.944	n/a	WORD	656972	wordpools/wasnorm_wordpool_576.txt	LTP325	ltpFR2	18	6	GYMNAST	675	n/a	n/a	0	0	0
1316.732	n/a	WORD	658366	wordpools/wasnorm_wordpool_576.txt	LTP325	ltpFR2	18	6	WORKER	1621	n/a	n/a	0	0	0
1319.366	n/a	WORD	659683	wordpools/wasnorm_wordpool_576.txt	LTP325	ltpFR2	18	6	LIZARD	834	n/a	n/a	0	0	0
1320.986	n/a	START	660493	n/a	LTP325	ltpFR2	18	n/a	n/a	n/a	10	n/a	n/a	n/a	n/a
1321.802	n/a	DISTRACTOR	660901	n/a	LTP325	ltpFR2	18	6	n/a	n/a	n/a	n/a	0	0	0
1321.818	n/a	PROB	660909	n/a	LTP325	ltpFR2	18	n/a	n/a	n/a	10	14	1	8	5
1323.77	n/a	PROB	661885	n/a	LTP325	ltpFR2	18	n/a	n/a	n/a	10	12	5	6	1
1325.32	n/a	PROB	662660	n/a	LTP325	ltpFR2	18	n/a	n/a	n/a	10	11	1	5	5
1326.386	n/a	PROB	663193	n/a	LTP325	ltpFR2	18	n/a	n/a	n/a	10	12	4	6	2
1327.638	n/a	PROB	663819	n/a	LTP325	ltpFR2	18	n/a	n/a	n/a	10	17	9	7	1
1329.19	n/a	PROB	664595	n/a	LTP325	ltpFR2	18	n/a	n/a	n/a	10	22	8	8	6
1332.874	n/a	PROB	666437	n/a	LTP325	ltpFR2	18	n/a	n/a	n/a	10	14	4	9	1
1334.694	n/a	PROB	667347	n/a	LTP325	ltpFR2	18	n/a	n/a	n/a	10	22	8	9	5
1337.798	n/a	PROB	668899	n/a	LTP325	ltpFR2	18	n/a	n/a	n/a	10	15	7	5	3
1339.198	n/a	PROB	669599	n/a	LTP325	ltpFR2	18	n/a	n/a	n/a	10	15	9	1	5
1340.368	n/a	PROB	670184	n/a	LTP325	ltpFR2	18	n/a	n/a	n/a	10	13	6	2	5
1344.986	n/a	STOP	672493	n/a	LTP325	ltpFR2	18	n/a	n/a	n/a	10	n/a	n/a	n/a	n/a
1346.824	n/a	REC_START	673412	n/a	LTP325	ltpFR2	18	6	n/a	n/a	n/a	n/a	0	0	0
1357.068	n/a	REC_WORD	678534	wordpools/wasnorm_wordpool_576.txt	LTP325	ltpFR2	18	6	ORCHID	982	n/a	n/a	0	0	0
1358.168	n/a	REC_WORD	679084	wordpools/wasnorm_wordpool_576.txt	LTP325	ltpFR2	18	6	SURVEY	1414	n/a	n/a	0	0	0
1359.828	n/a	REC_WORD	679914	wordpools/wasnorm_wordpool_576.txt	LTP325	ltpFR2	18	6	COBRA	336	n/a	n/a	0	0	0
1361.396	n/a	REC_WORD	680698	wordpools/wasnorm_wordpool_576.txt	LTP325	ltpFR2	18	6	POISON	1096	n/a	n/a	0	0	0
1362.898	n/a	REC_WORD	681449	wordpools/wasnorm_wordpool_576.txt	LTP325	ltpFR2	18	6	OUTDOORS	987	n/a	n/a	0	0	0
1363.898	n/a	REC_WORD_VV	681949	wordpools/wasnorm_wordpool_576.txt	LTP325	ltpFR2	18	6	<>	-1	n/a	n/a	0	0	0
1364.594	n/a	REC_WORD	682297	wordpools/wasnorm_wordpool_576.txt	LTP325	ltpFR2	18	6	JUGGLER	763	n/a	n/a	0	0	0
1375.832	n/a	REC_WORD	687916	wordpools/wasnorm_wordpool_576.txt	LTP325	ltpFR2	18	6	PIGEON	1065	n/a	n/a	0	0	0
1377.058	n/a	REC_WORD	688529	wordpools/wasnorm_wordpool_576.txt	LTP325	ltpFR2	18	6	GAZELLE	628	n/a	n/a	0	0	0
1378.522	n/a	REC_WORD	689261	wordpools/wasnorm_wordpool_576.txt	LTP325	ltpFR2	18	6	CYCLONE	431	n/a	n/a	0	0	0
1381.66	n/a	REC_WORD	690830	wordpools/wasnorm_wordpool_576.txt	LTP325	ltpFR2	18	6	RECORD	1176	n/a	n/a	0	0	0
1382.774	n/a	REC_WORD	691387	wordpools/wasnorm_wordpool_576.txt	LTP325	ltpFR2	18	6	SEAGULL	1261	n/a	n/a	0	0	0
1384.598	n/a	REC_WORD	692299	wordpools/wasnorm_wordpool_576.txt	LTP325	ltpFR2	18	6	BLADE	134	n/a	n/a	0	0	0
1402.582	n/a	REC_WORD	701291	wordpools/wasnorm_wordpool_576.txt	LTP325	ltpFR2	18	6	RAFT	1159	n/a	n/a	0	0	0
1403.774	n/a	REC_WORD	701887	wordpools/wasnorm_wordpool_576.txt	LTP325	ltpFR2	18	6	ROCKET	1202	n/a	n/a	0	0	0
1405.128	n/a	REC_WORD	702564	wordpools/wasnorm_wordpool_576.txt	LTP325	ltpFR2	18	6	SPARROW	1347	n/a	n/a	0	0	0
1416.368	n/a	REC_WORD	708184	wordpools/wasnorm_wordpool_576.txt	LTP325	ltpFR2	18	6	VALVE	1546	n/a	n/a	0	0	0
1417.65	n/a	REC_WORD	708825	wordpools/wasnorm_wordpool_576.txt	LTP325	ltpFR2	18	6	NAPKIN	937	n/a	n/a	0	0	0
1419.084	n/a	REC_WORD	709542	wordpools/wasnorm_wordpool_576.txt	LTP325	ltpFR2	18	6	FLAG	573	n/a	n/a	0	0	0
1437.278	n/a	WORD	718639	wordpools/wasnorm_wordpool_576.txt	LTP325	ltpFR2	18	7	PERCH	1048	n/a	n/a	0	0	0
1439.88	n/a	WORD	719940	wordpools/wasnorm_wordpool_576.txt	LTP325	ltpFR2	18	7	ULCER	1533	n/a	n/a	0	0	0
1442.49	n/a	WORD	721245	wordpools/wasnorm_wordpool_576.txt	LTP325	ltpFR2	18	7	TOMBSTONE	1478	n/a	n/a	0	0	0
1445.202	n/a	WORD	722601	wordpools/wasnorm_wordpool_576.txt	LTP325	ltpFR2	18	7	PIMPLE	1071	n/a	n/a	0	0	0
1447.886	n/a	WORD	723943	wordpools/wasnorm_wordpool_576.txt	LTP325	ltpFR2	18	7	SALMON	1227	n/a	n/a	0	0	0
1450.446	n/a	WORD	725223	wordpools/wasnorm_wordpool_576.txt	LTP325	ltpFR2	18	7	TRENCH	1503	n/a	n/a	0	0	0
1453.258	n/a	WORD	726629	wordpools/wasnorm_wordpool_576.txt	LTP325	ltpFR2	18	7	BLACKBOARD	133	n/a	n/a	0	0	0
1456.076	n/a	WORD	728038	wordpools/wasnorm_wordpool_576.txt	LTP325	ltpFR2	18	7	BOARD	143	n/a	n/a	0	0	0
1458.87	n/a	WORD	729435	wordpools/wasnorm_wordpool_576.txt	LTP325	ltpFR2	18	7	CABIN	211	n/a	n/a	0	0	0
1461.616	n/a	WORD	730808	wordpools/wasnorm_wordpool_576.txt	LTP325	ltpFR2	18	7	BANQUET	86	n/a	n/a	0	0	0
1464.052	n/a	WORD	732026	wordpools/wasnorm_wordpool_576.txt	LTP325	ltpFR2	18	7	BASEMENT	94	n/a	n/a	0	0	0
1466.476	n/a	WORD	733238	wordpools/wasnorm_wordpool_576.txt	LTP325	ltpFR2	18	7	DRESS	495	n/a	n/a	0	0	0
1468.944	n/a	WORD	734472	wordpools/wasnorm_wordpool_576.txt	LTP325	ltpFR2	18	7	DENIM	446	n/a	n/a	0	0	0
1471.432	n/a	WORD	735716	wordpools/wasnorm_wordpool_576.txt	LTP325	ltpFR2	18	7	FRIAR	605	n/a	n/a	0	0	0
1474.2	n/a	WORD	737100	wordpools/wasnorm_wordpool_576.txt	LTP325	ltpFR2	18	7	BINDER	127	n/a	n/a	0	0	0
1476.694	n/a	WORD	738347	wordpools/wasnorm_wordpool_576.txt	LTP325	ltpFR2	18	7	PUPPY	1144	n/a	n/a	0	0	0
1479.322	n/a	WORD	739661	wordpools/wasnorm_wordpool_576.txt	LTP325	ltpFR2	18	7	PLAZA	1088	n/a	n/a	0	0	0
1481.99	n/a	WORD	740995	wordpools/wasnorm_wordpool_576.txt	LTP325	ltpFR2	18	7	SNAKE	1333	n/a	n/a	0	0	0
1484.626	n/a	WORD	742313	wordpools/wasnorm_wordpool_576.txt	LTP325	ltpFR2	18	7	CAPTIVE	240	n/a	n/a	0	0	0
1487.246	n/a	WORD	743623	wordpools/wasnorm_wordpool_576.txt	LTP325	ltpFR2	18	7	MISSILE	900	n/a	n/a	0	0	0
1489.996	n/a	WORD	744998	wordpools/wasnorm_wordpool_576.txt	LTP325	ltpFR2	18	7	POET	1095	n/a	n/a	0	0	0
1492.606	n/a	WORD	746303	wordpools/wasnorm_wordpool_576.txt	LTP325	ltpFR2	18	7	LAPEL	800	n/a	n/a	0	0	0
1495.086	n/a	WORD	747543	wordpools/wasnorm_wordpool_576.txt	LTP325	ltpFR2	18	7	HOUND	724	n/a	n/a	0	0	0
1497.554	n/a	WORD	748777	wordpools/wasnorm_wordpool_576.txt	LTP325	ltpFR2	18	7	PASSAGE	1019	n/a	n/a	0	0	0
1499.162	n/a	START	749581	n/a	LTP325	ltpFR2	18	n/a	n/a	n/a	11	n/a	n/a	n/a	n/a
1500.084	n/a	DISTRACTOR	750042	n/a	LTP325	ltpFR2	18	7	n/a	n/a	n/a	n/a	0	0	0
1500.09	n/a	PROB	750045	n/a	LTP325	ltpFR2	18	n/a	n/a	n/a	11	13	2	6	5
1502.456	n/a	PROB	751228	n/a	LTP325	ltpFR2	18	n/a	n/a	n/a	11	18	5	5	8
1503.842	n/a	PROB	751921	n/a	LTP325	ltpFR2	18	n/a	n/a	n/a	11	15	8	5	2
1505.126	n/a	PROB	752563	n/a	LTP325	ltpFR2	18	n/a	n/a	n/a	11	25	7	9	9
1511.63	n/a	PROB	755815	n/a	LTP325	ltpFR2	18	n/a	n/a	n/a	11	4	1	2	1
1513.064	n/a	PROB	756532	n/a	LTP325	ltpFR2	18	n/a	n/a	n/a	11	11	4	3	4
1515.032	n/a	PROB	757516	n/a	LTP325	ltpFR2	18	n/a	n/a	n/a	11	15	3	3	9
1517.454	n/a	PROB	758727	n/a	LTP325	ltpFR2	18	n/a	n/a	n/a	11	14	6	3	5
1519.102	n/a	PROB	759551	n/a	LTP325	ltpFR2	18	n/a	n/a	n/a	11	19	8	6	5
1521.02	n/a	PROB	760510	n/a	LTP325	ltpFR2	18	n/a	n/a	n/a	11	19	9	7	3
1522.668	n/a	STOP	761334	n/a	LTP325	ltpFR2	18	n/a	n/a	n/a	11	n/a	n/a	n/a	n/a
1524.926	n/a	REC_START	762463	n/a	LTP325	ltpFR2	18	7	n/a	n/a	n/a	n/a	0	0	0
1527.414	n/a	REC_WORD	763707	wordpools/wasnorm_wordpool_576.txt	LTP325	ltpFR2	18	7	LAPEL	800	n/a	n/a	0	0	0
1530.596	n/a	REC_WORD	765298	wordpools/wasnorm_wordpool_576.txt	LTP325	ltpFR2	18	7	PUPPY	1144	n/a	n/a	0	0	0
1533.156	n/a	REC_WORD	766578	wordpools/wasnorm_wordpool_576.txt	LTP325	ltpFR2	18	7	BINDER	127	n/a	n/a	0	0	0
1535.314	n/a	REC_WORD	767657	wordpools/wasnorm_wordpool_576.txt	LTP325	ltpFR2	18	7	SNAKE	1333	n/a	n/a	0	0	0
1536.986	n/a	REC_WORD	768493	wordpools/wasnorm_wordpool_576.txt	LTP325	ltpFR2	18	7	PLAZA	1088	n/a	n/a	0	0	0
1539.078	n/a	REC_WORD	769539	wordpools/wasnorm_wordpool_576.txt	LTP325	ltpFR2	18	7	CAPTIVE	240	n/a	n/a	0	0	0
1547.324	n/a	REC_WORD	773662	wordpools/wasnorm_wordpool_576.txt	LTP325	ltpFR2	18	7	DENIM	446	n/a	n/a	0	0	0
1552.718	n/a	REC_WORD	776359	wordpools/wasnorm_wordpool_576.txt	LTP325	ltpFR2	18	7	POET	1095	n/a	n/a	0	0	0
1656.738	n/a	DISTRACTOR	828369	n/a	LTP325	ltpFR2	18	8	n/a	n/a	n/a	n/a	0	0	0
1656.738	n/a	START	828369	n/a	LTP325	ltpFR2	18	n/a	n/a	n/a	12	n/a	n/a	n/a	n/a
1656.75	n/a	PROB	828375	n/a	LTP325	ltpFR2	18	n/a	n/a	n/a	12	18	8	7	3
1658.668	n/a	PROB	829334	n/a	LTP325	ltpFR2	18	n/a	n/a	n/a	12	17	3	6	8
1660.774	n/a	PROB	830387	n/a	LTP325	ltpFR2	18	n/a	n/a	n/a	12	21	7	5	9
1663.43	n/a	PROB	831715	n/a	LTP325	ltpFR2	18	n/a	n/a	n/a	12	16	9	3	4
1666.8	n/a	PROB	833400	n/a	LTP325	ltpFR2	18	n/a	n/a	n/a	12	24	8	9	7
1669.214	n/a	PROB	834607	n/a	LTP325	ltpFR2	18	n/a	n/a	n/a	12	11	1	3	7
1670.446	n/a	PROB	835223	n/a	LTP325	ltpFR2	18	n/a	n/a	n/a	12	13	5	1	7
1673.504	n/a	PROB	836752	n/a	LTP325	ltpFR2	18	n/a	n/a	n/a	12	11	3	4	4
1675.42	n/a	PROB	837710	n/a	LTP325	ltpFR2	18	n/a	n/a	n/a	12	11	7	2	2
1677.406	n/a	PROB	838703	n/a	LTP325	ltpFR2	18	n/a	n/a	n/a	12	8	3	2	3
1679.384	n/a	STOP	839692	n/a	LTP325	ltpFR2	18	n/a	n/a	n/a	12	n/a	n/a	n/a	n/a
1681.79	n/a	WORD	840895	wordpools/wasnorm_wordpool_576.txt	LTP325	ltpFR2	18	8	VIRUS	1572	n/a	n/a	0	0	0
1684.348	n/a	WORD	842174	wordpools/wasnorm_wordpool_576.txt	LTP325	ltpFR2	18	8	CONVICT	371	n/a	n/a	0	0	0
1687.034	n/a	WORD	843517	wordpools/wasnorm_wordpool_576.txt	LTP325	ltpFR2	18	8	HIKER	708	n/a	n/a	0	0	0
1689.738	n/a	WORD	844869	wordpools/wasnorm_wordpool_576.txt	LTP325	ltpFR2	18	8	SUMMIT	1405	n/a	n/a	0	0	0
1692.366	n/a	WORD	846183	wordpools/wasnorm_wordpool_576.txt	LTP325	ltpFR2	18	8	ANTLER	29	n/a	n/a	0	0	0
1694.89	n/a	WORD	847445	wordpools/wasnorm_wordpool_576.txt	LTP325	ltpFR2	18	8	RIFLE	1192	n/a	n/a	0	0	0
1697.352	n/a	WORD	848676	wordpools/wasnorm_wordpool_576.txt	LTP325	ltpFR2	18	8	GUARD	667	n/a	n/a	0	0	0
1699.91	n/a	WORD	849955	wordpools/wasnorm_wordpool_576.txt	LTP325	ltpFR2	18	8	GROUND	666	n/a	n/a	0	0	0
1702.524	n/a	WORD	851262	wordpools/wasnorm_wordpool_576.txt	LTP325	ltpFR2	18	8	CUPBOARD	425	n/a	n/a	0	0	0
1705.166	n/a	WORD	852583	wordpools/wasnorm_wordpool_576.txt	LTP325	ltpFR2	18	8	ZIPPER	1636	n/a	n/a	0	0	0
1707.626	n/a	WORD	853813	wordpools/wasnorm_wordpool_576.txt	LTP325	ltpFR2	18	8	DONOR	485	n/a	n/a	0	0	0
1710.33	n/a	WORD	855165	wordpools/wasnorm_wordpool_576.txt	LTP325	ltpFR2	18	8	SKIRT	1319	n/a	n/a	0	0	0
1713.056	n/a	WORD	856528	wordpools/wasnorm_wordpool_576.txt	LTP325	ltpFR2	18	8	BATHTUB	100	n/a	n/a	0	0	0
1715.618	n/a	WORD	857809	wordpools/wasnorm_wordpool_576.txt	LTP325	ltpFR2	18	8	CREATURE	403	n/a	n/a	0	0	0
1718.078	n/a	WORD	859039	wordpools/wasnorm_wordpool_576.txt	LTP325	ltpFR2	18	8	BLENDER	136	n/a	n/a	0	0	0
1720.646	n/a	WORD	860323	wordpools/wasnorm_wordpool_576.txt	LTP325	ltpFR2	18	8	BRACES	164	n/a	n/a	0	0	0
1723.366	n/a	WORD	861683	wordpools/wasnorm_wordpool_576.txt	LTP325	ltpFR2	18	8	TUBA	1515	n/a	n/a	0	0	0
1726.058	n/a	WORD	863029	wordpools/wasnorm_wordpool_576.txt	LTP325	ltpFR2	18	8	TWEEZERS	1526	n/a	n/a	0	0	0
1728.704	n/a	WORD	864352	wordpools/wasnorm_wordpool_576.txt	LTP325	ltpFR2	18	8	LION	827	n/a	n/a	0	0	0
1731.222	n/a	WORD	865611	wordpools/wasnorm_wordpool_576.txt	LTP325	ltpFR2	18	8	TRANSPLANT	1496	n/a	n/a	0	0	0
1733.956	n/a	WORD	866978	wordpools/wasnorm_wordpool_576.txt	LTP325	ltpFR2	18	8	PADDLE	1000	n/a	n/a	0	0	0
1736.41	n/a	WORD	868205	wordpools/wasnorm_wordpool_576.txt	LTP325	ltpFR2	18	8	BLOUSE	139	n/a	n/a	0	0	0
1738.918	n/a	WORD	869459	wordpools/wasnorm_wordpool_576.txt	LTP325	ltpFR2	18	8	SPONGE	1355	n/a	n/a	0	0	0
1741.348	n/a	WORD	870674	wordpools/wasnorm_wordpool_576.txt	LTP325	ltpFR2	18	8	PAIL	1002	n/a	n/a	0	0	0
1742.954	n/a	START	871477	n/a	LTP325	ltpFR2	18	n/a	n/a	n/a	13	n/a	n/a	n/a	n/a
1743.984	n/a	DISTRACTOR	871992	n/a	LTP325	ltpFR2	18	8	n/a	n/a	n/a	n/a	0	0	0
1743.998	n/a	PROB	871999	n/a	LTP325	ltpFR2	18	n/a	n/a	n/a	13	10	2	6	2
1745.782	n/a	PROB	872891	n/a	LTP325	ltpFR2	18	n/a	n/a	n/a	13	10	2	1	7
1747.15	n/a	PROB	873575	n/a	LTP325	ltpFR2	18	n/a	n/a	n/a	13	23	8	7	8
1752.238	n/a	PROB	876119	n/a	LTP325	ltpFR2	18	n/a	n/a	n/a	13	15	8	6	1
1754.79	n/a	PROB	877395	n/a	LTP325	ltpFR2	18	n/a	n/a	n/a	13	15	8	4	3
1757.024	n/a	PROB	878512	n/a	LTP325	ltpFR2	18	n/a	n/a	n/a	13	17	9	7	1
1759.044	n/a	PROB	879522	n/a	LTP325	ltpFR2	18	n/a	n/a	n/a	13	18	7	3	8
1760.428	n/a	PROB	880214	n/a	LTP325	ltpFR2	18	n/a	n/a	n/a	13	23	9	6	8
1764.168	n/a	PROB	882084	n/a	LTP325	ltpFR2	18	n/a	n/a	n/a	13	4	1	1	2
1765.818	n/a	STOP	882909	n/a	LTP325	ltpFR2	18	n/a	n/a	n/a	13	n/a	n/a	n/a	n/a
1768.884	n/a	REC_START	884442	n/a	LTP325	ltpFR2	18	8	n/a	n/a	n/a	n/a	0	0	0
1774.098	n/a	REC_WORD	887049	wordpools/wasnorm_wordpool_576.txt	LTP325	ltpFR2	18	8	VIRUS	1572	n/a	n/a	0	0	0
1775.098	n/a	REC_WORD_VV	887549	wordpools/wasnorm_wordpool_576.txt	LTP325	ltpFR2	18	8	<>	-1	n/a	n/a	0	0	0
1776.804	n/a	REC_WORD	888402	wordpools/wasnorm_wordpool_576.txt	LTP325	ltpFR2	18	8	CONVICT	371	n/a	n/a	0	0	0
1778.81	n/a	REC_WORD	889405	wordpools/wasnorm_wordpool_576.txt	LTP325	ltpFR2	18	8	HIKER	708	n/a	n/a	0	0	0
1780.482	n/a	REC_WORD	890241	wordpools/wasnorm_wordpool_576.txt	LTP325	ltpFR2	18	8	SUMMIT	1405	n/a	n/a	0	0	0
1782.826	n/a	REC_WORD	891413	wordpools/wasnorm_wordpool_576.txt	LTP325	ltpFR2	18	8	ANTLER	29	n/a	n/a	0	0	0
1784.478	n/a	REC_WORD	892239	wordpools/wasnorm_wordpool_576.txt	LTP325	ltpFR2	18	8	RIFLE	1192	n/a	n/a	0	0	0
1786.26	n/a	REC_WORD	893130	wordpools/wasnorm_wordpool_576.txt	LTP325	ltpFR2	18	8	GUARD	667	n/a	n/a	0	0	0
1791.758	n/a	REC_WORD	895879	wordpools/wasnorm_wordpool_576.txt	LTP325	ltpFR2	18	8	CUPBOARD	425	n/a	n/a	0	0	0
1794.63	n/a	REC_WORD	897315	wordpools/wasnorm_wordpool_576.txt	LTP325	ltpFR2	18	8	GROUND	666	n/a	n/a	0	0	0
1795.868	n/a	REC_WORD	897934	wordpools/wasnorm_wordpool_576.txt	LTP325	ltpFR2	18	8	ZIPPER	1636	n/a	n/a	0	0	0
1801.644	n/a	REC_WORD	900822	wordpools/wasnorm_wordpool_576.txt	LTP325	ltpFR2	18	8	PADDLE	1000	n/a	n/a	0	0	0
1803.112	n/a	REC_WORD	901556	wordpools/wasnorm_wordpool_576.txt	LTP325	ltpFR2	18	8	BLOUSE	139	n/a	n/a	0	0	0
1804.444	n/a	REC_WORD	902222	wordpools/wasnorm_wordpool_576.txt	LTP325	ltpFR2	18	8	SPONGE	1355	n/a	n/a	0	0	0
1806.266	n/a	REC_WORD	903133	wordpools/wasnorm_wordpool_576.txt	LTP325	ltpFR2	18	8	PAIL	1002	n/a	n/a	0	0	0
1811.594	n/a	REC_WORD	905797	wordpools/wasnorm_wordpool_576.txt	LTP325	ltpFR2	18	8	DONOR	485	n/a	n/a	0	0	0
1813.028	n/a	REC_WORD	906514	wordpools/wasnorm_wordpool_576.txt	LTP325	ltpFR2	18	8	TRANSPLANT	1496	n/a	n/a	0	0	0
1814.028	n/a	REC_WORD_VV	907014	wordpools/wasnorm_wordpool_576.txt	LTP325	ltpFR2	18	8	<>	-1	n/a	n/a	0	0	0
1814.732	n/a	REC_WORD	907366	wordpools/wasnorm_wordpool_576.txt	LTP325	ltpFR2	18	8	SKIRT	1319	n/a	n/a	0	0	0
1845.42	n/a	REST_REWET	922710	n/a	LTP325	ltpFR2	18	8	n/a	n/a	n/a	n/a	0	0	0
1976.398	n/a	WORD	988199	wordpools/wasnorm_wordpool_576.txt	LTP325	ltpFR2	18	9	CRIB	407	n/a	n/a	0	0	0
1978.976	n/a	WORD	989488	wordpools/wasnorm_wordpool_576.txt	LTP325	ltpFR2	18	9	WAITER	1580	n/a	n/a	0	0	0
1981.422	n/a	WORD	990711	wordpools/wasnorm_wordpool_576.txt	LTP325	ltpFR2	18	9	LADY	794	n/a	n/a	0	0	0
1984.164	n/a	WORD	992082	wordpools/wasnorm_wordpool_576.txt	LTP325	ltpFR2	18	9	HUMAN	726	n/a	n/a	0	0	0
1986.842	n/a	WORD	993421	wordpools/wasnorm_wordpool_576.txt	LTP325	ltpFR2	18	9	TRIBE	1505	n/a	n/a	0	0	0
1989.318	n/a	WORD	994659	wordpools/wasnorm_wordpool_576.txt	LTP325	ltpFR2	18	9	ZEBRA	1635	n/a	n/a	0	0	0
1991.848	n/a	WORD	995924	wordpools/wasnorm_wordpool_576.txt	LTP325	ltpFR2	18	9	STOMACH	1384	n/a	n/a	0	0	0
1994.632	n/a	WORD	997316	wordpools/wasnorm_wordpool_576.txt	LTP325	ltpFR2	18	9	BODY	145	n/a	n/a	0	0	0
1997.302	n/a	WORD	998651	wordpools/wasnorm_wordpool_576.txt	LTP325	ltpFR2	18	9	DRIVER	499	n/a	n/a	0	0	0
1999.842	n/a	WORD	999921	wordpools/wasnorm_wordpool_576.txt	LTP325	ltpFR2	18	9	INFANT	737	n/a	n/a	0	0	0
2002.306	n/a	WORD	1001153	wordpools/wasnorm_wordpool_576.txt	LTP325	ltpFR2	18	9	TROMBONE	1508	n/a	n/a	0	0	0
2005.048	n/a	WORD	1002524	wordpools/wasnorm_wordpool_576.txt	LTP325	ltpFR2	18	9	MARKET	871	n/a	n/a	0	0	0
2007.578	n/a	WORD	1003789	wordpools/wasnorm_wordpool_576.txt	LTP325	ltpFR2	18	9	TURNIP	1521	n/a	n/a	0	0	0
2010.314	n/a	WORD	1005157	wordpools/wasnorm_wordpool_576.txt	LTP325	ltpFR2	18	9	FLOWER	584	n/a	n/a	0	0	0
2012.998	n/a	WORD	1006499	wordpools/wasnorm_wordpool_576.txt	LTP325	ltpFR2	18	9	LIPSTICK	829	n/a	n/a	0	0	0
2015.734	n/a	WORD	1007867	wordpools/wasnorm_wordpool_576.txt	LTP325	ltpFR2	18	9	BEAST	108	n/a	n/a	0	0	0
2018.502	n/a	WORD	1009251	wordpools/wasnorm_wordpool_576.txt	LTP325	ltpFR2	18	9	DOLPHIN	483	n/a	n/a	0	0	0
2021.156	n/a	WORD	1010578	wordpools/wasnorm_wordpool_576.txt	LTP325	ltpFR2	18	9	FRAGRANCE	599	n/a	n/a	0	0	0
2023.628	n/a	WORD	1011814	wordpools/wasnorm_wordpool_576.txt	LTP325	ltpFR2	18	9	PARROT	1015	n/a	n/a	0	0	0
2026.076	n/a	WORD	1013038	wordpools/wasnorm_wordpool_576.txt	LTP325	ltpFR2	18	9	LADDER	793	n/a	n/a	0	0	0
2028.678	n/a	WORD	1014339	wordpools/wasnorm_wordpool_576.txt	LTP325	ltpFR2	18	9	SHELTER	1282	n/a	n/a	0	0	0
2031.132	n/a	WORD	1015566	wordpools/wasnorm_wordpool_576.txt	LTP325	ltpFR2	18	9	TYPIST	1532	n/a	n/a	0	0	0
2033.684	n/a	WORD	1016842	wordpools/wasnorm_wordpool_576.txt	LTP325	ltpFR2	18	9	BABY	64	n/a	n/a	0	0	0
2036.402	n/a	WORD	1018201	wordpools/wasnorm_wordpool_576.txt	LTP325	ltpFR2	18	9	WHISKERS	1605	n/a	n/a	0	0	0
2038.02	n/a	START	1019010	n/a	LTP325	ltpFR2	18	n/a	n/a	n/a	14	n/a	n/a	n/a	n/a
2039.026	n/a	DISTRACTOR	1019513	n/a	LTP325	ltpFR2	18	9	n/a	n/a	n/a	n/a	0	0	0
2039.038	n/a	PROB	1019519	n/a	LTP325	ltpFR2	18	n/a	n/a	n/a	14	14	5	1	8
2042.038	n/a	PROB	1021019	n/a	LTP325	ltpFR2	18	n/a	n/a	n/a	14	18	6	5	7
2043.89	n/a	PROB	1021945	n/a	LTP325	ltpFR2	18	n/a	n/a	n/a	14	16	9	6	1
2045.174	n/a	PROB	1022587	n/a	LTP325	ltpFR2	18	n/a	n/a	n/a	14	10	5	1	4
2046.828	n/a	PROB	1023414	n/a	LTP325	ltpFR2	18	n/a	n/a	n/a	14	8	3	1	4
2048.776	n/a	PROB	1024388	n/a	LTP325	ltpFR2	18	n/a	n/a	n/a	14	15	2	6	7
2051.628	n/a	PROB	1025814	n/a	LTP325	ltpFR2	18	n/a	n/a	n/a	14	17	6	8	3
2053.964	n/a	PROB	1026982	n/a	LTP325	ltpFR2	18	n/a	n/a	n/a	14	11	1	7	3
2055.116	n/a	PROB	1027558	n/a	LTP325	ltpFR2	18	n/a	n/a	n/a	14	15	6	3	6
2056.834	n/a	PROB	1028417	n/a	LTP325	ltpFR2	18	n/a	n/a	n/a	14	23	9	9	5
2062.002	n/a	STOP	1031001	n/a	LTP325	ltpFR2	18	n/a	n/a	n/a	14	n/a	n/a	n/a	n/a
2063.84	n/a	REC_START	1031920	n/a	LTP325	ltpFR2	18	9	n/a	n/a	n/a	n/a	0	0	0
2067.212	n/a	REC_WORD	1033606	wordpools/wasnorm_wordpool_576.txt	LTP325	ltpFR2	18	9	CRIB	407	n/a	n/a	0	0	0
2068.706	n/a	REC_WORD	1034353	wordpools/wasnorm_wordpool_576.txt	LTP325	ltpFR2	18	9	WAITER	1580	n/a	n/a	0	0	0
2070.38	n/a	REC_WORD	1035190	wordpools/wasnorm_wordpool_576.txt	LTP325	ltpFR2	18	9	LADY	794	n/a	n/a	0	0	0
2072.2	n/a	REC_WORD	1036100	wordpools/wasnorm_wordpool_576.txt	LTP325	ltpFR2	18	9	HUMAN	726	n/a	n/a	0	0	0
2074.032	n/a	REC_WORD	1037016	wordpools/wasnorm_wordpool_576.txt	LTP325	ltpFR2	18	9	TRIBE	1505	n/a	n/a	0	0	0
2075.84	n/a	REC_WORD	1037920	wordpools/wasnorm_wordpool_576.txt	LTP325	ltpFR2	18	9	ZEBRA	1635	n/a	n/a	0	0	0
2079.084	n/a	REC_WORD	1039542	wordpools/wasnorm_wordpool_576.txt	LTP325	ltpFR2	18	9	STOMACH	1384	n/a	n/a	0	0	0
2081.596	n/a	REC_WORD	1040798	wordpools/wasnorm_wordpool_576.txt	LTP325	ltpFR2	18	9	BODY	145	n/a	n/a	0	0	0
2083.462	n/a	REC_WORD	1041731	wordpools/wasnorm_wordpool_576.txt	LTP325	ltpFR2	18	9	DRIVER	499	n/a	n/a	0	0	0
2085.448	n/a	REC_WORD	1042724	wordpools/wasnorm_wordpool_576.txt	LTP325	ltpFR2	18	9	INFANT	737	n/a	n/a	0	0	0
2169.614	n/a	WORD	1084807	wordpools/wasnorm_wordpool_576.txt	LTP325	ltpFR2	18	10	JUNGLE	764	n/a	n/a	0	0	0
2172.068	n/a	WORD	1086034	wordpools/wasnorm_wordpool_576.txt	LTP325	ltpFR2	18	10	WAITRESS	1581	n/a	n/a	0	0	0
2174.656	n/a	WORD	1087328	wordpools/wasnorm_wordpool_576.txt	LTP325	ltpFR2	18	10	SHOULDER	1294	n/a	n/a	0	0	0
2177.466	n/a	WORD	1088733	wordpools/wasnorm_wordpool_576.txt	LTP325	ltpFR2	18	10	FEMALE	559	n/a	n/a	0	0	0
2179.908	n/a	WORD	1089954	wordpools/wasnorm_wordpool_576.txt	LTP325	ltpFR2	18	10	DRUG	501	n/a	n/a	0	0	0
2182.47	n/a	WORD	1091235	wordpools/wasnorm_wordpool_576.txt	LTP325	ltpFR2	18	10	WOMAN	1620	n/a	n/a	0	0	0
2184.988	n/a	WORD	1092494	wordpools/wasnorm_wordpool_576.txt	LTP325	ltpFR2	18	10	BEEF	113	n/a	n/a	0	0	0
2187.476	n/a	WORD	1093738	wordpools/wasnorm_wordpool_576.txt	LTP325	ltpFR2	18	10	MARROW	872	n/a	n/a	0	0	0
2190.21	n/a	WORD	1095105	wordpools/wasnorm_wordpool_576.txt	LTP325	ltpFR2	18	10	TART	1436	n/a	n/a	0	0	0
2192.91	n/a	WORD	1096455	wordpools/wasnorm_wordpool_576.txt	LTP325	ltpFR2	18	10	COOK	372	n/a	n/a	0	0	0
2195.698	n/a	WORD	1097849	wordpools/wasnorm_wordpool_576.txt	LTP325	ltpFR2	18	10	COOKBOOK	373	n/a	n/a	0	0	0
2198.192	n/a	WORD	1099096	wordpools/wasnorm_wordpool_576.txt	LTP325	ltpFR2	18	10	VALLEY	1545	n/a	n/a	0	0	0
2200.836	n/a	WORD	1100418	wordpools/wasnorm_wordpool_576.txt	LTP325	ltpFR2	18	10	CASKET	255	n/a	n/a	0	0	0
2203.288	n/a	WORD	1101644	wordpools/wasnorm_wordpool_576.txt	LTP325	ltpFR2	18	10	PRINCESS	1125	n/a	n/a	0	0	0
2205.816	n/a	WORD	1102908	wordpools/wasnorm_wordpool_576.txt	LTP325	ltpFR2	18	10	THRONE	1461	n/a	n/a	0	0	0
2208.426	n/a	WORD	1104213	wordpools/wasnorm_wordpool_576.txt	LTP325	ltpFR2	18	10	PRIMATE	1123	n/a	n/a	0	0	0
2211.236	n/a	WORD	1105618	wordpools/wasnorm_wordpool_576.txt	LTP325	ltpFR2	18	10	BISON	131	n/a	n/a	0	0	0
2213.678	n/a	WORD	1106839	wordpools/wasnorm_wordpool_576.txt	LTP325	ltpFR2	18	10	PISTOL	1075	n/a	n/a	0	0	0
2216.364	n/a	WORD	1108182	wordpools/wasnorm_wordpool_576.txt	LTP325	ltpFR2	18	10	LOVER	846	n/a	n/a	0	0	0
2219.084	n/a	WORD	1109542	wordpools/wasnorm_wordpool_576.txt	LTP325	ltpFR2	18	10	LIVER	833	n/a	n/a	0	0	0
2221.778	n/a	WORD	1110889	wordpools/wasnorm_wordpool_576.txt	LTP325	ltpFR2	18	10	BARLEY	88	n/a	n/a	0	0	0
2224.33	n/a	WORD	1112165	wordpools/wasnorm_wordpool_576.txt	LTP325	ltpFR2	18	10	CRUTCH	417	n/a	n/a	0	0	0
2227.014	n/a	WORD	1113507	wordpools/wasnorm_wordpool_576.txt	LTP325	ltpFR2	18	10	FRUIT	610	n/a	n/a	0	0	0
2229.736	n/a	WORD	1114868	wordpools/wasnorm_wordpool_576.txt	LTP325	ltpFR2	18	10	SCOTCH	1251	n/a	n/a	0	0	0
2231.344	n/a	START	1115672	n/a	LTP325	ltpFR2	18	n/a	n/a	n/a	15	n/a	n/a	n/a	n/a
2232.172	n/a	DISTRACTOR	1116086	n/a	LTP325	ltpFR2	18	10	n/a	n/a	n/a	n/a	0	0	0
2232.188	n/a	PROB	1116094	n/a	LTP325	ltpFR2	18	n/a	n/a	n/a	15	19	9	7	3
2234.572	n/a	PROB	1117286	n/a	LTP325	ltpFR2	18	n/a	n/a	n/a	15	9	3	2	4
2237.41	n/a	PROB	1118705	n/a	LTP325	ltpFR2	18	n/a	n/a	n/a	15	5	1	3	1
2239.022	n/a	PROB	1119511	n/a	LTP325	ltpFR2	18	n/a	n/a	n/a	15	12	7	2	3
2240.594	n/a	PROB	1120297	n/a	LTP325	ltpFR2	18	n/a	n/a	n/a	15	13	5	3	5
2241.842	n/a	PROB	1120921	n/a	LTP325	ltpFR2	18	n/a	n/a	n/a	15	16	3	7	6
2243.344	n/a	PROB	1121672	n/a	LTP325	ltpFR2	18	n/a	n/a	n/a	15	11	1	2	8
2244.68	n/a	PROB	1122340	n/a	LTP325	ltpFR2	18	n/a	n/a	n/a	15	16	3	6	7
2246.164	n/a	PROB	1123082	n/a	LTP325	ltpFR2	18	n/a	n/a	n/a	15	16	6	2	8
2247.664	n/a	PROB	1123832	n/a	LTP325	ltpFR2	18	n/a	n/a	n/a	15	13	7	2	4
2249.534	n/a	PROB	1124767	n/a	LTP325	ltpFR2	18	n/a	n/a	n/a	15	14	4	4	6
2251.016	n/a	PROB	1125508	n/a	LTP325	ltpFR2	18	n/a	n/a	n/a	15	19	7	3	9
2252.486	n/a	PROB	1126243	n/a	LTP325	ltpFR2	18	n/a	n/a	n/a	15	12	4	3	5
2254.794	n/a	STOP	1127397	n/a	LTP325	ltpFR2	18	n/a	n/a	n/a	15	n/a	n/a	n/a	n/a
2257.306	n/a	REC_START	1128653	n/a	LTP325	ltpFR2	18	10	n/a	n/a	n/a	n/a	0	0	0
2260.148	n/a	REC_WORD	1130074	wordpools/wasnorm_wordpool_576.txt	LTP325	ltpFR2	18	10	BARLEY	88	n/a	n/a	0	0	0
2261.796	n/a	REC_WORD	1130898	wordpools/wasnorm_wordpool_576.txt	LTP325	ltpFR2	18	10	CRUTCH	417	n/a	n/a	0	0	0
2263.79	n/a	REC_WORD	1131895	wordpools/wasnorm_wordpool_576.txt	LTP325	ltpFR2	18	10	FRUIT	610	n/a	n/a	0	0	0
2265.246	n/a	REC_WORD	1132623	wordpools/wasnorm_wordpool_576.txt	LTP325	ltpFR2	18	10	SCOTCH	1251	n/a	n/a	0	0	0
2273.064	n/a	REC_WORD	1136532	wordpools/wasnorm_wordpool_576.txt	LTP325	ltpFR2	18	10	COOK	372	n/a	n/a	0	0	0
2274.344	n/a	REC_WORD	1137172	wordpools/wasnorm_wordpool_576.txt	LTP325	ltpFR2	18	10	COOKBOOK	373	n/a	n/a	0	0	0
2276.528	n/a	REC_WORD	1138264	wordpools/wasnorm_wordpool_576.txt	LTP325	ltpFR2	18	10	BISON	131	n/a	n/a	0	0	0
2278.794	n/a	REC_WORD	1139397	wordpools/wasnorm_wordpool_576.txt	LTP325	ltpFR2	18	10	PRIMATE	1123	n/a	n/a	0	0	0
2280.25	n/a	REC_WORD	1140125	wordpools/wasnorm_wordpool_576.txt	LTP325	ltpFR2	18	10	THRONE	1461	n/a	n/a	0	0	0
2281.832	n/a	REC_WORD	1140916	wordpools/wasnorm_wordpool_576.txt	LTP325	ltpFR2	18	10	PRINCESS	1125	n/a	n/a	0	0	0
2282.832	n/a	REC_WORD_VV	1141416	wordpools/wasnorm_wordpool_576.txt	LTP325	ltpFR2	18	10	<>	-1	n/a	n/a	0	0	0
2283.65	n/a	REC_WORD	1141825	wordpools/wasnorm_wordpool_576.txt	LTP325	ltpFR2	18	10	CASKET	255	n/a	n/a	0	0	0
2285.392	n/a	REC_WORD	1142696	wordpools/wasnorm_wordpool_576.txt	LTP325	ltpFR2	18	10	VALLEY	1545	n/a	n/a	0	0	0
2290.53	n/a	REC_WORD	1145265	wordpools/wasnorm_wordpool_576.txt	LTP325	ltpFR2	18	10	JUNGLE	764	n/a	n/a	0	0	0
2292.042	n/a	REC_WORD	1146021	wordpools/wasnorm_wordpool_576.txt	LTP325	ltpFR2	18	10	WAITRESS	1581	n/a	n/a	0	0	0
2293.042	n/a	REC_WORD_VV	1146521	wordpools/wasnorm_wordpool_576.txt	LTP325	ltpFR2	18	10	<>	-1	n/a	n/a	0	0	0
2295.024	n/a	REC_WORD	1147512	wordpools/wasnorm_wordpool_576.txt	LTP325	ltpFR2	18	10	FEMALE	559	n/a	n/a	0	0	0
2301.04	n/a	REC_WORD	1150520	wordpools/wasnorm_wordpool_576.txt	LTP325	ltpFR2	18	10	DRUG	501	n/a	n/a	0	0	0
2302.192	n/a	REC_WORD	1151096	wordpools/wasnorm_wordpool_576.txt	LTP325	ltpFR2	18	10	WOMAN	1620	n/a	n/a	0	0	0
2304.91	n/a	REC_WORD	1152455	wordpools/wasnorm_wordpool_576.txt	LTP325	ltpFR2	18	10	BEEF	113	n/a	n/a	0	0	0
2325.91	n/a	REC_WORD	1162955	wordpools/wasnorm_wordpool_576.txt	LTP325	ltpFR2	18	10	SHOULDER	1294	n/a	n/a	0	0	0
2347.786	n/a	WORD	1173893	wordpools/wasnorm_wordpool_576.txt	LTP325	ltpFR2	18	11	HUSBAND	728	n/a	n/a	0	0	0
2350.504	n/a	WORD	1175252	wordpools/wasnorm_wordpool_576.txt	LTP325	ltpFR2	18	11	UMPIRE	1535	n/a	n/a	0	0	0
2353.02	n/a	WORD	1176510	wordpools/wasnorm_wordpool_576.txt	LTP325	ltpFR2	18	11	TOURIST	1488	n/a	n/a	0	0	0
2355.844	n/a	WORD	1177922	wordpools/wasnorm_wordpool_576.txt	LTP325	ltpFR2	18	11	DONKEY	484	n/a	n/a	0	0	0
2358.326	n/a	WORD	1179163	wordpools/wasnorm_wordpool_576.txt	LTP325	ltpFR2	18	11	MEAT	883	n/a	n/a	0	0	0
2360.912	n/a	WORD	1180456	wordpools/wasnorm_wordpool_576.txt	LTP325	ltpFR2	18	11	CREVICE	405	n/a	n/a	0	0	0
2363.348	n/a	WORD	1181674	wordpools/wasnorm_wordpool_576.txt	LTP325	ltpFR2	18	11	SOFTBALL	1343	n/a	n/a	0	0	0
2366.15	n/a	WORD	1183075	wordpools/wasnorm_wordpool_576.txt	LTP325	ltpFR2	18	11	CATCHER	258	n/a	n/a	0	0	0
2368.822	n/a	WORD	1184411	wordpools/wasnorm_wordpool_576.txt	LTP325	ltpFR2	18	11	MARS	873	n/a	n/a	0	0	0
2371.554	n/a	WORD	1185777	wordpools/wasnorm_wordpool_576.txt	LTP325	ltpFR2	18	11	GOBLIN	645	n/a	n/a	0	0	0
2374.106	n/a	WORD	1187053	wordpools/wasnorm_wordpool_576.txt	LTP325	ltpFR2	18	11	HORSE	719	n/a	n/a	0	0	0
2376.924	n/a	WORD	1188462	wordpools/wasnorm_wordpool_576.txt	LTP325	ltpFR2	18	11	SWORD	1423	n/a	n/a	0	0	0
2379.378	n/a	WORD	1189689	wordpools/wasnorm_wordpool_576.txt	LTP325	ltpFR2	18	11	MILK	895	n/a	n/a	0	0	0
2381.862	n/a	WORD	1190931	wordpools/wasnorm_wordpool_576.txt	LTP325	ltpFR2	18	11	PLAYGROUND	1087	n/a	n/a	0	0	0
2384.514	n/a	WORD	1192257	wordpools/wasnorm_wordpool_576.txt	LTP325	ltpFR2	18	11	OINTMENT	974	n/a	n/a	0	0	0
2387.2	n/a	WORD	1193600	wordpools/wasnorm_wordpool_576.txt	LTP325	ltpFR2	18	11	SUITCASE	1403	n/a	n/a	0	0	0
2389.668	n/a	WORD	1194834	wordpools/wasnorm_wordpool_576.txt	LTP325	ltpFR2	18	11	BADGE	68	n/a	n/a	0	0	0
2392.376	n/a	WORD	1196188	wordpools/wasnorm_wordpool_576.txt	LTP325	ltpFR2	18	11	DOUGHNUT	490	n/a	n/a	0	0	0
2395.056	n/a	WORD	1197528	wordpools/wasnorm_wordpool_576.txt	LTP325	ltpFR2	18	11	SPOUSE	1358	n/a	n/a	0	0	0
2397.576	n/a	WORD	1198788	wordpools/wasnorm_wordpool_576.txt	LTP325	ltpFR2	18	11	FREEZER	604	n/a	n/a	0	0	0
2400.35	n/a	WORD	1200175	wordpools/wasnorm_wordpool_576.txt	LTP325	ltpFR2	18	11	CASHIER	254	n/a	n/a	0	0	0
2403.146	n/a	WORD	1201573	wordpools/wasnorm_wordpool_576.txt	LTP325	ltpFR2	18	11	DAUGHTER	442	n/a	n/a	0	0	0
2405.838	n/a	WORD	1202919	wordpools/wasnorm_wordpool_576.txt	LTP325	ltpFR2	18	11	SIDEWALK	1303	n/a	n/a	0	0	0
2408.35	n/a	WORD	1204175	wordpools/wasnorm_wordpool_576.txt	LTP325	ltpFR2	18	11	GRAVEL	659	n/a	n/a	0	0	0
2409.958	n/a	START	1204979	n/a	LTP325	ltpFR2	18	n/a	n/a	n/a	16	n/a	n/a	n/a	n/a
2411.112	n/a	DISTRACTOR	1205556	n/a	LTP325	ltpFR2	18	11	n/a	n/a	n/a	n/a	0	0	0
2411.12	n/a	PROB	1205560	n/a	LTP325	ltpFR2	18	n/a	n/a	n/a	16	15	7	6	2
2413.056	n/a	PROB	1206528	n/a	LTP325	ltpFR2	18	n/a	n/a	n/a	16	18	5	4	9
2415.078	n/a	PROB	1207539	n/a	LTP325	ltpFR2	18	n/a	n/a	n/a	16	13	1	8	4
2416.812	n/a	PROB	1208406	n/a	LTP325	ltpFR2	18	n/a	n/a	n/a	16	20	4	7	9
2418.63	n/a	PROB	1209315	n/a	LTP325	ltpFR2	18	n/a	n/a	n/a	16	17	8	6	3
2420.764	n/a	PROB	1210382	n/a	LTP325	ltpFR2	18	n/a	n/a	n/a	16	18	9	7	2
2424.05	n/a	PROB	1212025	n/a	LTP325	ltpFR2	18	n/a	n/a	n/a	16	17	1	9	7
2425.402	n/a	PROB	1212701	n/a	LTP325	ltpFR2	18	n/a	n/a	n/a	16	18	1	9	8
2426.822	n/a	PROB	1213411	n/a	LTP325	ltpFR2	18	n/a	n/a	n/a	16	24	8	7	7
2430.122	n/a	PROB	1215061	n/a	LTP325	ltpFR2	18	n/a	n/a	n/a	16	15	3	8	4
2432.942	n/a	STOP	1216471	n/a	LTP325	ltpFR2	18	n/a	n/a	n/a	16	n/a	n/a	n/a	n/a
2435.744	n/a	REC_START	1217872	n/a	LTP325	ltpFR2	18	11	n/a	n/a	n/a	n/a	0	0	0
2447.704	n/a	REC_WORD	1223852	wordpools/wasnorm_wordpool_576.txt	LTP325	ltpFR2	18	11	CATCHER	258	n/a	n/a	0	0	0
2449.36	n/a	REC_WORD	1224680	wordpools/wasnorm_wordpool_576.txt	LTP325	ltpFR2	18	11	UMPIRE	1535	n/a	n/a	0	0	0
2451.084	n/a	REC_WORD	1225542	wordpools/wasnorm_wordpool_576.txt	LTP325	ltpFR2	18	11	SOFTBALL	1343	n/a	n/a	0	0	0
2453.08	n/a	REC_WORD	1226540	wordpools/wasnorm_wordpool_576.txt	LTP325	ltpFR2	18	11	WOMAN	1620	n/a	n/a	0	0	0
2454.978	n/a	REC_WORD	1227489	wordpools/wasnorm_wordpool_576.txt	LTP325	ltpFR2	18	11	SPOUSE	1358	n/a	n/a	0	0	0
2456.78	n/a	REC_WORD	1228390	wordpools/wasnorm_wordpool_576.txt	LTP325	ltpFR2	18	11	FREEZER	604	n/a	n/a	0	0	0
2458.704	n/a	REC_WORD	1229352	wordpools/wasnorm_wordpool_576.txt	LTP325	ltpFR2	18	11	HUSBAND	728	n/a	n/a	0	0	0
2461.9	n/a	REC_WORD	1230950	wordpools/wasnorm_wordpool_576.txt	LTP325	ltpFR2	18	11	TOURIST	1488	n/a	n/a	0	0	0
2467.494	n/a	REC_WORD	1233747	wordpools/wasnorm_wordpool_576.txt	LTP325	ltpFR2	18	11	GOBLIN	645	n/a	n/a	0	0	0
2469.182	n/a	REC_WORD	1234591	wordpools/wasnorm_wordpool_576.txt	LTP325	ltpFR2	18	11	HORSE	719	n/a	n/a	0	0	0
2470.918	n/a	REC_WORD	1235459	wordpools/wasnorm_wordpool_576.txt	LTP325	ltpFR2	18	11	SWORD	1423	n/a	n/a	0	0	0
2500.084	n/a	REC_WORD	1250042	wordpools/wasnorm_wordpool_576.txt	LTP325	ltpFR2	18	11	MARS	873	n/a	n/a	0	0	0
2526.192	n/a	DISTRACTOR	1263096	n/a	LTP325	ltpFR2	18	12	n/a	n/a	n/a	n/a	0	0	0
2526.192	n/a	START	1263096	n/a	LTP325	ltpFR2	18	n/a	n/a	n/a	17	n/a	n/a	n/a	n/a
2526.206	n/a	PROB	1263103	n/a	LTP325	ltpFR2	18	n/a	n/a	n/a	17	21	9	4	8
2529.228	n/a	PROB	1264614	n/a	LTP325	ltpFR2	18	n/a	n/a	n/a	17	19	7	8	3
2531.626	n/a	PROB	1265813	n/a	LTP325	ltpFR2	18	n/a	n/a	n/a	17	12	8	3	1
2533.696	n/a	PROB	1266848	n/a	LTP325	ltpFR2	18	n/a	n/a	n/a	17	6	1	3	2
2535.178	n/a	PROB	1267589	n/a	LTP325	ltpFR2	18	n/a	n/a	n/a	17	13	3	1	9
2536.582	n/a	PROB	1268291	n/a	LTP325	ltpFR2	18	n/a	n/a	n/a	17	8	3	1	4
2538.598	n/a	PROB	1269299	n/a	LTP325	ltpFR2	18	n/a	n/a	n/a	17	8	1	3	4
2540.266	n/a	PROB	1270133	n/a	LTP325	ltpFR2	18	n/a	n/a	n/a	17	13	1	9	3
2541.584	n/a	PROB	1270792	n/a	LTP325	ltpFR2	18	n/a	n/a	n/a	17	15	1	5	9
2543.002	n/a	PROB	1271501	n/a	LTP325	ltpFR2	18	n/a	n/a	n/a	17	11	2	4	5
2544.854	n/a	PROB	1272427	n/a	LTP325	ltpFR2	18	n/a	n/a	n/a	17	15	9	1	5
2546.04	n/a	PROB	1273020	n/a	LTP325	ltpFR2	18	n/a	n/a	n/a	17	13	5	1	7
2548.544	n/a	PROB	1274272	n/a	LTP325	ltpFR2	18	n/a	n/a	n/a	17	11	5	3	3
2550.074	n/a	STOP	1275037	n/a	LTP325	ltpFR2	18	n/a	n/a	n/a	17	n/a	n/a	n/a	n/a
2551.28	n/a	WORD	1275640	wordpools/wasnorm_wordpool_576.txt	LTP325	ltpFR2	18	12	BANK	83	n/a	n/a	0	0	0
2553.914	n/a	WORD	1276957	wordpools/wasnorm_wordpool_576.txt	LTP325	ltpFR2	18	12	QUAIL	1147	n/a	n/a	0	0	0
2556.518	n/a	WORD	1278259	wordpools/wasnorm_wordpool_576.txt	LTP325	ltpFR2	18	12	WINDOW	1611	n/a	n/a	0	0	0
2559.336	n/a	WORD	1279668	wordpools/wasnorm_wordpool_576.txt	LTP325	ltpFR2	18	12	COFFEE	341	n/a	n/a	0	0	0
2561.788	n/a	WORD	1280894	wordpools/wasnorm_wordpool_576.txt	LTP325	ltpFR2	18	12	DINER	467	n/a	n/a	0	0	0
2564.608	n/a	WORD	1282304	wordpools/wasnorm_wordpool_576.txt	LTP325	ltpFR2	18	12	LETTUCE	814	n/a	n/a	0	0	0
2567.226	n/a	WORD	1283613	wordpools/wasnorm_wordpool_576.txt	LTP325	ltpFR2	18	12	MATCH	878	n/a	n/a	0	0	0
2569.944	n/a	WORD	1284972	wordpools/wasnorm_wordpool_576.txt	LTP325	ltpFR2	18	12	FIREMAN	569	n/a	n/a	0	0	0
2572.73	n/a	WORD	1286365	wordpools/wasnorm_wordpool_576.txt	LTP325	ltpFR2	18	12	CURTAIN	427	n/a	n/a	0	0	0
2575.266	n/a	WORD	1287633	wordpools/wasnorm_wordpool_576.txt	LTP325	ltpFR2	18	12	LUMBER	848	n/a	n/a	0	0	0
2577.718	n/a	WORD	1288859	wordpools/wasnorm_wordpool_576.txt	LTP325	ltpFR2	18	12	ROBIN	1199	n/a	n/a	0	0	0
2580.286	n/a	WORD	1290143	wordpools/wasnorm_wordpool_576.txt	LTP325	ltpFR2	18	12	STREAM	1392	n/a	n/a	0	0	0
2582.872	n/a	WORD	1291436	wordpools/wasnorm_wordpool_576.txt	LTP325	ltpFR2	18	12	CAFE	216	n/a	n/a	0	0	0
2585.574	n/a	WORD	1292787	wordpools/wasnorm_wordpool_576.txt	LTP325	ltpFR2	18	12	ORANGE	980	n/a	n/a	0	0	0
2588.394	n/a	WORD	1294197	wordpools/wasnorm_wordpool_576.txt	LTP325	ltpFR2	18	12	GRAPE	654	n/a	n/a	0	0	0
2591.178	n/a	WORD	1295589	wordpools/wasnorm_wordpool_576.txt	LTP325	ltpFR2	18	12	TEACHER	1440	n/a	n/a	0	0	0
2593.63	n/a	WORD	1296815	wordpools/wasnorm_wordpool_576.txt	LTP325	ltpFR2	18	12	TROUT	1511	n/a	n/a	0	0	0
2596.216	n/a	WORD	1298108	wordpools/wasnorm_wordpool_576.txt	LTP325	ltpFR2	18	12	PENGUIN	1044	n/a	n/a	0	0	0
2598.95	n/a	WORD	1299475	wordpools/wasnorm_wordpool_576.txt	LTP325	ltpFR2	18	12	APPLE	33	n/a	n/a	0	0	0
2601.686	n/a	WORD	1300843	wordpools/wasnorm_wordpool_576.txt	LTP325	ltpFR2	18	12	SHIRT	1287	n/a	n/a	0	0	0
2604.322	n/a	WORD	1302161	wordpools/wasnorm_wordpool_576.txt	LTP325	ltpFR2	18	12	BURGLAR	200	n/a	n/a	0	0	0
2606.972	n/a	WORD	1303486	wordpools/wasnorm_wordpool_576.txt	LTP325	ltpFR2	18	12	CRATER	400	n/a	n/a	0	0	0
2609.41	n/a	WORD	1304705	wordpools/wasnorm_wordpool_576.txt	LTP325	ltpFR2	18	12	ONION	977	n/a	n/a	0	0	0
2612.112	n/a	WORD	1306056	wordpools/wasnorm_wordpool_576.txt	LTP325	ltpFR2	18	12	PATIENT	1024	n/a	n/a	0	0	0
2613.73	n/a	START	1306865	n/a	LTP325	ltpFR2	18	n/a	n/a	n/a	18	n/a	n/a	n/a	n/a
2614.63	n/a	DISTRACTOR	1307315	n/a	LTP325	ltpFR2	18	12	n/a	n/a	n/a	n/a	0	0	0
2614.646	n/a	PROB	1307323	n/a	LTP325	ltpFR2	18	n/a	n/a	n/a	18	11	1	5	5
2615.878	n/a	PROB	1307939	n/a	LTP325	ltpFR2	18	n/a	n/a	n/a	18	15	4	5	6
2618.768	n/a	PROB	1309384	n/a	LTP325	ltpFR2	18	n/a	n/a	n/a	18	7	5	1	1
2620.064	n/a	PROB	1310032	n/a	LTP325	ltpFR2	18	n/a	n/a	n/a	18	19	9	6	4
2621.654	n/a	PROB	1310827	n/a	LTP325	ltpFR2	18	n/a	n/a	n/a	18	20	5	9	6
2623.806	n/a	PROB	1311903	n/a	LTP325	ltpFR2	18	n/a	n/a	n/a	18	21	8	5	8
2626.106	n/a	PROB	1313053	n/a	LTP325	ltpFR2	18	n/a	n/a	n/a	18	14	8	1	5
2628.92	n/a	PROB	1314460	n/a	LTP325	ltpFR2	18	n/a	n/a	n/a	18	10	1	6	3
2630.456	n/a	PROB	1315228	n/a	LTP325	ltpFR2	18	n/a	n/a	n/a	18	11	3	3	5
2632.262	n/a	PROB	1316131	n/a	LTP325	ltpFR2	18	n/a	n/a	n/a	18	20	8	7	5
2634.802	n/a	PROB	1317401	n/a	LTP325	ltpFR2	18	n/a	n/a	n/a	18	14	7	1	6
2637.518	n/a	STOP	1318759	n/a	LTP325	ltpFR2	18	n/a	n/a	n/a	18	n/a	n/a	n/a	n/a
2639.622	n/a	REC_START	1319811	n/a	LTP325	ltpFR2	18	12	n/a	n/a	n/a	n/a	0	0	0
2641.284	n/a	REC_WORD	1320642	wordpools/wasnorm_wordpool_576.txt	LTP325	ltpFR2	18	12	CRATER	400	n/a	n/a	0	0	0
2642.988	n/a	REC_WORD	1321494	wordpools/wasnorm_wordpool_576.txt	LTP325	ltpFR2	18	12	ONION	977	n/a	n/a	0	0	0
2644.434	n/a	REC_WORD	1322217	wordpools/wasnorm_wordpool_576.txt	LTP325	ltpFR2	18	12	PATIENT	1024	n/a	n/a	0	0	0
2654.744	n/a	REC_WORD	1327372	wordpools/wasnorm_wordpool_576.txt	LTP325	ltpFR2	18	12	FIREMAN	569	n/a	n/a	0	0	0
2656.152	n/a	REC_WORD	1328076	wordpools/wasnorm_wordpool_576.txt	LTP325	ltpFR2	18	12	MATCH	878	n/a	n/a	0	0	0
2657.552	n/a	REC_WORD	1328776	wordpools/wasnorm_wordpool_576.txt	LTP325	ltpFR2	18	12	CURTAIN	427	n/a	n/a	0	0	0
2688.402	n/a	REC_WORD	1344201	wordpools/wasnorm_wordpool_576.txt	LTP325	ltpFR2	18	12	QUAIL	1147	n/a	n/a	0	0	0
2689.908	n/a	REC_WORD	1344954	wordpools/wasnorm_wordpool_576.txt	LTP325	ltpFR2	18	12	BANK	83	n/a	n/a	0	0	0
2691.01	n/a	REC_WORD	1345505	wordpools/wasnorm_wordpool_576.txt	LTP325	ltpFR2	18	12	WINDOW	1611	n/a	n/a	0	0	0
2730.068	n/a	DISTRACTOR	1365034	n/a	LTP325	ltpFR2	18	13	n/a	n/a	n/a	n/a	0	0	0
2730.068	n/a	START	1365034	n/a	LTP325	ltpFR2	18	n/a	n/a	n/a	19	n/a	n/a	n/a	n/a
2730.082	n/a	PROB	1365041	n/a	LTP325	ltpFR2	18	n/a	n/a	n/a	19	20	8	8	4
2732.4	n/a	PROB	1366200	n/a	LTP325	ltpFR2	18	n/a	n/a	n/a	19	21	6	7	8
2735.052	n/a	PROB	1367526	n/a	LTP325	ltpFR2	18	n/a	n/a	n/a	19	9	2	1	6
2736.752	n/a	PROB	1368376	n/a	LTP325	ltpFR2	18	n/a	n/a	n/a	19	21	6	7	8
2739.072	n/a	PROB	1369536	n/a	LTP325	ltpFR2	18	n/a	n/a	n/a	19	17	5	6	6
2740.806	n/a	PROB	1370403	n/a	LTP325	ltpFR2	18	n/a	n/a	n/a	19	22	9	9	4
2742.592	n/a	PROB	1371296	n/a	LTP325	ltpFR2	18	n/a	n/a	n/a	19	17	5	3	9
2745.546	n/a	PROB	1372773	n/a	LTP325	ltpFR2	18	n/a	n/a	n/a	19	17	8	6	3
2748.096	n/a	PROB	1374048	n/a	LTP325	ltpFR2	18	n/a	n/a	n/a	19	11	4	4	3
2751.1	n/a	PROB	1375550	n/a	LTP325	ltpFR2	18	n/a	n/a	n/a	19	15	2	9	4
2752.968	n/a	STOP	1376484	n/a	LTP325	ltpFR2	18	n/a	n/a	n/a	19	n/a	n/a	n/a	n/a
2755.124	n/a	WORD	1377562	wordpools/wasnorm_wordpool_576.txt	LTP325	ltpFR2	18	13	MONSTER	912	n/a	n/a	0	0	0
2757.874	n/a	WORD	1378937	wordpools/wasnorm_wordpool_576.txt	LTP325	ltpFR2	18	13	SHRUB	1299	n/a	n/a	0	0	0
2760.594	n/a	WORD	1380297	wordpools/wasnorm_wordpool_576.txt	LTP325	ltpFR2	18	13	EYELASH	546	n/a	n/a	0	0	0
2763.28	n/a	WORD	1381640	wordpools/wasnorm_wordpool_576.txt	LTP325	ltpFR2	18	13	GARBAGE	622	n/a	n/a	0	0	0
2765.882	n/a	WORD	1382941	wordpools/wasnorm_wordpool_576.txt	LTP325	ltpFR2	18	13	PUDDLE	1140	n/a	n/a	0	0	0
2768.4	n/a	WORD	1384200	wordpools/wasnorm_wordpool_576.txt	LTP325	ltpFR2	18	13	MILDEW	893	n/a	n/a	0	0	0
2770.902	n/a	WORD	1385451	wordpools/wasnorm_wordpool_576.txt	LTP325	ltpFR2	18	13	CIGAR	308	n/a	n/a	0	0	0
2773.738	n/a	WORD	1386869	wordpools/wasnorm_wordpool_576.txt	LTP325	ltpFR2	18	13	SEAL	1262	n/a	n/a	0	0	0
2776.49	n/a	WORD	1388245	wordpools/wasnorm_wordpool_576.txt	LTP325	ltpFR2	18	13	HIGHWAY	707	n/a	n/a	0	0	0
2779.144	n/a	WORD	1389572	wordpools/wasnorm_wordpool_576.txt	LTP325	ltpFR2	18	13	SWITCH	1422	n/a	n/a	0	0	0
2781.846	n/a	WORD	1390923	wordpools/wasnorm_wordpool_576.txt	LTP325	ltpFR2	18	13	LAMP	798	n/a	n/a	0	0	0
2784.616	n/a	WORD	1392308	wordpools/wasnorm_wordpool_576.txt	LTP325	ltpFR2	18	13	CHAUFFEUR	283	n/a	n/a	0	0	0
2787.118	n/a	WORD	1393559	wordpools/wasnorm_wordpool_576.txt	LTP325	ltpFR2	18	13	STICKER	1382	n/a	n/a	0	0	0
2789.818	n/a	WORD	1394909	wordpools/wasnorm_wordpool_576.txt	LTP325	ltpFR2	18	13	GANGSTER	620	n/a	n/a	0	0	0
2792.588	n/a	WORD	1396294	wordpools/wasnorm_wordpool_576.txt	LTP325	ltpFR2	18	13	CARROT	249	n/a	n/a	0	0	0
2795.274	n/a	WORD	1397637	wordpools/wasnorm_wordpool_576.txt	LTP325	ltpFR2	18	13	BUNNY	198	n/a	n/a	0	0	0
2798.008	n/a	WORD	1399004	wordpools/wasnorm_wordpool_576.txt	LTP325	ltpFR2	18	13	CLOTHES	327	n/a	n/a	0	0	0
2800.794	n/a	WORD	1400397	wordpools/wasnorm_wordpool_576.txt	LTP325	ltpFR2	18	13	TABLET	1427	n/a	n/a	0	0	0
2803.596	n/a	WORD	1401798	wordpools/wasnorm_wordpool_576.txt	LTP325	ltpFR2	18	13	BULLET	194	n/a	n/a	0	0	0
2806.25	n/a	WORD	1403125	wordpools/wasnorm_wordpool_576.txt	LTP325	ltpFR2	18	13	LEG	809	n/a	n/a	0	0	0
2808.784	n/a	WORD	1404392	wordpools/wasnorm_wordpool_576.txt	LTP325	ltpFR2	18	13	OYSTER	995	n/a	n/a	0	0	0
2811.404	n/a	WORD	1405702	wordpools/wasnorm_wordpool_576.txt	LTP325	ltpFR2	18	13	NECKLACE	940	n/a	n/a	0	0	0
2813.872	n/a	WORD	1406936	wordpools/wasnorm_wordpool_576.txt	LTP325	ltpFR2	18	13	PARSLEY	1016	n/a	n/a	0	0	0
2816.574	n/a	WORD	1408287	wordpools/wasnorm_wordpool_576.txt	LTP325	ltpFR2	18	13	ELBOW	520	n/a	n/a	0	0	0
2818.192	n/a	START	1409096	n/a	LTP325	ltpFR2	18	n/a	n/a	n/a	20	n/a	n/a	n/a	n/a
2819.296	n/a	DISTRACTOR	1409648	n/a	LTP325	ltpFR2	18	13	n/a	n/a	n/a	n/a	0	0	0
2819.31	n/a	PROB	1409655	n/a	LTP325	ltpFR2	18	n/a	n/a	n/a	20	14	6	1	7
2820.912	n/a	PROB	1410456	n/a	LTP325	ltpFR2	18	n/a	n/a	n/a	20	14	5	3	6
2825.116	n/a	PROB	1412558	n/a	LTP325	ltpFR2	18	n/a	n/a	n/a	20	18	4	5	9
2826.832	n/a	PROB	1413416	n/a	LTP325	ltpFR2	18	n/a	n/a	n/a	20	18	9	8	1
2828.346	n/a	PROB	1414173	n/a	LTP325	ltpFR2	18	n/a	n/a	n/a	20	8	1	6	1
2829.736	n/a	PROB	1414868	n/a	LTP325	ltpFR2	18	n/a	n/a	n/a	20	14	4	5	5
2830.936	n/a	PROB	1415468	n/a	LTP325	ltpFR2	18	n/a	n/a	n/a	20	16	5	7	4
2833.254	n/a	PROB	1416627	n/a	LTP325	ltpFR2	18	n/a	n/a	n/a	20	18	9	1	8
2834.602	n/a	PROB	1417301	n/a	LTP325	ltpFR2	18	n/a	n/a	n/a	20	11	3	5	3
2836.44	n/a	PROB	1418220	n/a	LTP325	ltpFR2	18	n/a	n/a	n/a	20	21	4	8	9
2838.988	n/a	PROB	1419494	n/a	LTP325	ltpFR2	18	n/a	n/a	n/a	20	8	4	2	4
2840.994	n/a	STOP	1420497	n/a	LTP325	ltpFR2	18	n/a	n/a	n/a	20	n/a	n/a	n/a	n/a
2844.11	n/a	REC_START	1422055	n/a	LTP325	ltpFR2	18	13	n/a	n/a	n/a	n/a	0	0	0
2845.03	n/a	REC_WORD	1422515	wordpools/wasnorm_wordpool_576.txt	LTP325	ltpFR2	18	13	PARSLEY	1016	n/a	n/a	0	0	0
2846.782	n/a	REC_WORD	1423391	wordpools/wasnorm_wordpool_576.txt	LTP325	ltpFR2	18	13	ELBOW	520	n/a	n/a	0	0	0
2905.11	n/a	REC_WORD	1452555	wordpools/wasnorm_wordpool_576.txt	LTP325	ltpFR2	18	13	SWITCH	1422	n/a	n/a	0	0	0
2906.506	n/a	REC_WORD	1453253	wordpools/wasnorm_wordpool_576.txt	LTP325	ltpFR2	18	13	LAMP	798	n/a	n/a	0	0	0
2907.782	n/a	REC_WORD	1453891	wordpools/wasnorm_wordpool_576.txt	LTP325	ltpFR2	18	13	CHAUFFEUR	283	n/a	n/a	0	0	0
2909.41	n/a	REC_WORD	1454705	wordpools/wasnorm_wordpool_576.txt	LTP325	ltpFR2	18	13	SEAL	1262	n/a	n/a	0	0	0
2910.876	n/a	REC_WORD	1455438	wordpools/wasnorm_wordpool_576.txt	LTP325	ltpFR2	18	13	HIGHWAY	707	n/a	n/a	0	0	0
2912.078	n/a	REC_WORD	1456039	wordpools/wasnorm_wordpool_576.txt	LTP325	ltpFR2	18	13	CIGAR	308	n/a	n/a	0	0	0
2934.544	n/a	DISTRACTOR	1467272	n/a	LTP325	ltpFR2	18	14	n/a	n/a	n/a	n/a	0	0	0
2934.544	n/a	START	1467272	n/a	LTP325	ltpFR2	18	n/a	n/a	n/a	21	n/a	n/a	n/a	n/a
2934.558	n/a	PROB	1467279	n/a	LTP325	ltpFR2	18	n/a	n/a	n/a	21	20	9	2	9
2936.192	n/a	PROB	1468096	n/a	LTP325	ltpFR2	18	n/a	n/a	n/a	21	14	6	6	2
2937.644	n/a	PROB	1468822	n/a	LTP325	ltpFR2	18	n/a	n/a	n/a	21	13	3	3	7
2938.844	n/a	PROB	1469422	n/a	LTP325	ltpFR2	18	n/a	n/a	n/a	21	8	2	1	5
2940.612	n/a	PROB	1470306	n/a	LTP325	ltpFR2	18	n/a	n/a	n/a	21	12	8	2	2
2941.898	n/a	PROB	1470949	n/a	LTP325	ltpFR2	18	n/a	n/a	n/a	21	11	2	4	5
2943.798	n/a	PROB	1471899	n/a	LTP325	ltpFR2	18	n/a	n/a	n/a	21	8	1	4	3
2945.952	n/a	PROB	1472976	n/a	LTP325	ltpFR2	18	n/a	n/a	n/a	21	11	4	3	4
2947.652	n/a	PROB	1473826	n/a	LTP325	ltpFR2	18	n/a	n/a	n/a	21	22	7	6	9
2949.97	n/a	PROB	1474985	n/a	LTP325	ltpFR2	18	n/a	n/a	n/a	21	20	5	8	7
2952.406	n/a	PROB	1476203	n/a	LTP325	ltpFR2	18	n/a	n/a	n/a	21	18	4	6	8
2954.022	n/a	PROB	1477011	n/a	LTP325	ltpFR2	18	n/a	n/a	n/a	21	15	3	3	9
2956.176	n/a	PROB	1478088	n/a	LTP325	ltpFR2	18	n/a	n/a	n/a	21	13	9	3	1
2958.112	n/a	STOP	1479056	n/a	LTP325	ltpFR2	18	n/a	n/a	n/a	21	n/a	n/a	n/a	n/a
2959.366	n/a	WORD	1479683	wordpools/wasnorm_wordpool_576.txt	LTP325	ltpFR2	18	14	SLIME	1327	n/a	n/a	0	0	0
2961.954	n/a	WORD	1480977	wordpools/wasnorm_wordpool_576.txt	LTP325	ltpFR2	18	14	PARTNER	1017	n/a	n/a	0	0	0
2964.47	n/a	WORD	1482235	wordpools/wasnorm_wordpool_576.txt	LTP325	ltpFR2	18	14	STAMP	1370	n/a	n/a	0	0	0
2967.244	n/a	WORD	1483622	wordpools/wasnorm_wordpool_576.txt	LTP325	ltpFR2	18	14	MESSAGE	888	n/a	n/a	0	0	0
2969.806	n/a	WORD	1484903	wordpools/wasnorm_wordpool_576.txt	LTP325	ltpFR2	18	14	CABBAGE	210	n/a	n/a	0	0	0
2972.526	n/a	WORD	1486263	wordpools/wasnorm_wordpool_576.txt	LTP325	ltpFR2	18	14	WIFE	1609	n/a	n/a	0	0	0
2975.262	n/a	WORD	1487631	wordpools/wasnorm_wordpool_576.txt	LTP325	ltpFR2	18	14	LASER	801	n/a	n/a	0	0	0
2977.868	n/a	WORD	1488934	wordpools/wasnorm_wordpool_576.txt	LTP325	ltpFR2	18	14	CATTLE	261	n/a	n/a	0	0	0
2980.338	n/a	WORD	1490169	wordpools/wasnorm_wordpool_576.txt	LTP325	ltpFR2	18	14	BUTCHER	203	n/a	n/a	0	0	0
2982.768	n/a	WORD	1491384	wordpools/wasnorm_wordpool_576.txt	LTP325	ltpFR2	18	14	STONE	1385	n/a	n/a	0	0	0
2985.338	n/a	WORD	1492669	wordpools/wasnorm_wordpool_576.txt	LTP325	ltpFR2	18	14	SCRIBBLE	1256	n/a	n/a	0	0	0
2987.976	n/a	WORD	1493988	wordpools/wasnorm_wordpool_576.txt	LTP325	ltpFR2	18	14	FOOTBALL	591	n/a	n/a	0	0	0
2990.574	n/a	WORD	1495287	wordpools/wasnorm_wordpool_576.txt	LTP325	ltpFR2	18	14	TRUCK	1512	n/a	n/a	0	0	0
2993.16	n/a	WORD	1496580	wordpools/wasnorm_wordpool_576.txt	LTP325	ltpFR2	18	14	GLOBE	641	n/a	n/a	0	0	0
2995.596	n/a	WORD	1497798	wordpools/wasnorm_wordpool_576.txt	LTP325	ltpFR2	18	14	WORLD	1622	n/a	n/a	0	0	0
2998.384	n/a	WORD	1499192	wordpools/wasnorm_wordpool_576.txt	LTP325	ltpFR2	18	14	JOURNAL	760	n/a	n/a	0	0	0
3000.82	n/a	WORD	1500410	wordpools/wasnorm_wordpool_576.txt	LTP325	ltpFR2	18	14	CHILD	299	n/a	n/a	0	0	0
3003.304	n/a	WORD	1501652	wordpools/wasnorm_wordpool_576.txt	LTP325	ltpFR2	18	14	PERMIT	1051	n/a	n/a	0	0	0
3005.772	n/a	WORD	1502886	wordpools/wasnorm_wordpool_576.txt	LTP325	ltpFR2	18	14	NOVEL	960	n/a	n/a	0	0	0
3008.392	n/a	WORD	1504196	wordpools/wasnorm_wordpool_576.txt	LTP325	ltpFR2	18	14	SUBWAY	1400	n/a	n/a	0	0	0
3011.026	n/a	WORD	1505513	wordpools/wasnorm_wordpool_576.txt	LTP325	ltpFR2	18	14	CONCERT	360	n/a	n/a	0	0	0
3013.544	n/a	WORD	1506772	wordpools/wasnorm_wordpool_576.txt	LTP325	ltpFR2	18	14	XEROX	1628	n/a	n/a	0	0	0
3016.214	n/a	WORD	1508107	wordpools/wasnorm_wordpool_576.txt	LTP325	ltpFR2	18	14	WASHER	1592	n/a	n/a	0	0	0
3018.75	n/a	WORD	1509375	wordpools/wasnorm_wordpool_576.txt	LTP325	ltpFR2	18	14	MOTEL	919	n/a	n/a	0	0	0
3020.368	n/a	START	1510184	n/a	LTP325	ltpFR2	18	n/a	n/a	n/a	22	n/a	n/a	n/a	n/a
3021.202	n/a	DISTRACTOR	1510601	n/a	LTP325	ltpFR2	18	14	n/a	n/a	n/a	n/a	0	0	0
3021.218	n/a	PROB	1510609	n/a	LTP325	ltpFR2	18	n/a	n/a	n/a	22	21	4	9	8
3024.418	n/a	PROB	1512209	n/a	LTP325	ltpFR2	18	n/a	n/a	n/a	22	9	5	3	1
3026.506	n/a	PROB	1513253	n/a	LTP325	ltpFR2	18	n/a	n/a	n/a	22	12	4	5	3
3028.054	n/a	PROB	1514027	n/a	LTP325	ltpFR2	18	n/a	n/a	n/a	22	18	8	7	3
3029.588	n/a	PROB	1514794	n/a	LTP325	ltpFR2	18	n/a	n/a	n/a	22	6	1	1	4
3031.006	n/a	PROB	1515503	n/a	LTP325	ltpFR2	18	n/a	n/a	n/a	22	26	9	8	9
3033.408	n/a	PROB	1516704	n/a	LTP325	ltpFR2	18	n/a	n/a	n/a	22	22	8	6	8
3035.664	n/a	PROB	1517832	n/a	LTP325	ltpFR2	18	n/a	n/a	n/a	22	18	9	8	1
3037.264	n/a	PROB	1518632	n/a	LTP325	ltpFR2	18	n/a	n/a	n/a	22	14	8	2	4
3038.6	n/a	PROB	1519300	n/a	LTP325	ltpFR2	18	n/a	n/a	n/a	22	14	4	5	5
3039.832	n/a	PROB	1519916	n/a	LTP325	ltpFR2	18	n/a	n/a	n/a	22	16	1	8	7
3041.55	n/a	PROB	1520775	n/a	LTP325	ltpFR2	18	n/a	n/a	n/a	22	14	7	5	2
3043.626	n/a	STOP	1521813	n/a	LTP325	ltpFR2	18	n/a	n/a	n/a	22	n/a	n/a	n/a	n/a
3046.24	n/a	REC_START	1523120	n/a	LTP325	ltpFR2	18	14	n/a	n/a	n/a	n/a	0	0	0
3047.992	n/a	REC_WORD	1523996	wordpools/wasnorm_wordpool_576.txt	LTP325	ltpFR2	18	14	WASHER	1592	n/a	n/a	0	0	0
3049.562	n/a	REC_WORD	1524781	wordpools/wasnorm_wordpool_576.txt	LTP325	ltpFR2	18	14	MOTEL	919	n/a	n/a	0	0	0
3051.204	n/a	REC_WORD	1525602	wordpools/wasnorm_wordpool_576.txt	LTP325	ltpFR2	18	14	CONCERT	360	n/a	n/a	0	0	0
3052.706	n/a	REC_WORD	1526353	wordpools/wasnorm_wordpool_576.txt	LTP325	ltpFR2	18	14	SUBWAY	1400	n/a	n/a	0	0	0
3054.658	n/a	REC_WORD	1527329	wordpools/wasnorm_wordpool_576.txt	LTP325	ltpFR2	18	14	PERMIT	1051	n/a	n/a	0	0	0
3056.134	n/a	REC_WORD	1528067	wordpools/wasnorm_wordpool_576.txt	LTP325	ltpFR2	18	14	NOVEL	960	n/a	n/a	0	0	0
3057.864	n/a	REC_WORD	1528932	wordpools/wasnorm_wordpool_576.txt	LTP325	ltpFR2	18	14	JOURNAL	760	n/a	n/a	0	0	0
3059.44	n/a	REC_WORD	1529720	wordpools/wasnorm_wordpool_576.txt	LTP325	ltpFR2	18	14	CHILD	299	n/a	n/a	0	0	0
3074.188	n/a	REC_WORD	1537094	wordpools/wasnorm_wordpool_576.txt	LTP325	ltpFR2	18	14	XEROX	1628	n/a	n/a	0	0	0
3075.188	n/a	REC_WORD_VV	1537594	wordpools/wasnorm_wordpool_576.txt	LTP325	ltpFR2	18	14	<>	-1	n/a	n/a	0	0	0
3090.386	n/a	REC_WORD	1545193	wordpools/wasnorm_wordpool_576.txt	LTP325	ltpFR2	18	14	WIFE	1609	n/a	n/a	0	0	0
3091.862	n/a	REC_WORD	1545931	wordpools/wasnorm_wordpool_576.txt	LTP325	ltpFR2	18	14	CABBAGE	210	n/a	n/a	0	0	0
3093.58	n/a	REC_WORD	1546790	wordpools/wasnorm_wordpool_576.txt	LTP325	ltpFR2	18	14	LASER	801	n/a	n/a	0	0	0
3095.482	n/a	REC_WORD	1547741	wordpools/wasnorm_wordpool_576.txt	LTP325	ltpFR2	18	14	CATTLE	261	n/a	n/a	0	0	0
3096.998	n/a	REC_WORD	1548499	wordpools/wasnorm_wordpool_576.txt	LTP325	ltpFR2	18	14	BUTCHER	203	n/a	n/a	0	0	0
3136.698	n/a	WORD	1568349	wordpools/wasnorm_wordpool_576.txt	LTP325	ltpFR2	18	15	SALAD	1224	n/a	n/a	0	0	0
3139.23	n/a	WORD	1569615	wordpools/wasnorm_wordpool_576.txt	LTP325	ltpFR2	18	15	FUNGUS	614	n/a	n/a	0	0	0
3141.922	n/a	WORD	1570961	wordpools/wasnorm_wordpool_576.txt	LTP325	ltpFR2	18	15	CLIMBER	323	n/a	n/a	0	0	0
3144.434	n/a	WORD	1572217	wordpools/wasnorm_wordpool_576.txt	LTP325	ltpFR2	18	15	BEAKER	104	n/a	n/a	0	0	0
3146.958	n/a	WORD	1573479	wordpools/wasnorm_wordpool_576.txt	LTP325	ltpFR2	18	15	CHEMIST	292	n/a	n/a	0	0	0
3149.756	n/a	WORD	1574878	wordpools/wasnorm_wordpool_576.txt	LTP325	ltpFR2	18	15	DUST	508	n/a	n/a	0	0	0
3152.348	n/a	WORD	1576174	wordpools/wasnorm_wordpool_576.txt	LTP325	ltpFR2	18	15	CHIPMUNK	304	n/a	n/a	0	0	0
3154.784	n/a	WORD	1577392	wordpools/wasnorm_wordpool_576.txt	LTP325	ltpFR2	18	15	SAUSAGE	1238	n/a	n/a	0	0	0
3157.386	n/a	WORD	1578693	wordpools/wasnorm_wordpool_576.txt	LTP325	ltpFR2	18	15	SILK	1307	n/a	n/a	0	0	0
3159.888	n/a	WORD	1579944	wordpools/wasnorm_wordpool_576.txt	LTP325	ltpFR2	18	15	EUROPE	541	n/a	n/a	0	0	0
3162.44	n/a	WORD	1581220	wordpools/wasnorm_wordpool_576.txt	LTP325	ltpFR2	18	15	FRECKLE	602	n/a	n/a	0	0	0
3164.966	n/a	WORD	1582483	wordpools/wasnorm_wordpool_576.txt	LTP325	ltpFR2	18	15	REBEL	1172	n/a	n/a	0	0	0
3167.728	n/a	WORD	1583864	wordpools/wasnorm_wordpool_576.txt	LTP325	ltpFR2	18	15	RADISH	1158	n/a	n/a	0	0	0
3170.296	n/a	WORD	1585148	wordpools/wasnorm_wordpool_576.txt	LTP325	ltpFR2	18	15	DRESSER	496	n/a	n/a	0	0	0
3172.964	n/a	WORD	1586482	wordpools/wasnorm_wordpool_576.txt	LTP325	ltpFR2	18	15	SWAMP	1416	n/a	n/a	0	0	0
3175.402	n/a	WORD	1587701	wordpools/wasnorm_wordpool_576.txt	LTP325	ltpFR2	18	15	LAVA	804	n/a	n/a	0	0	0
3178.12	n/a	WORD	1589060	wordpools/wasnorm_wordpool_576.txt	LTP325	ltpFR2	18	15	PEBBLE	1035	n/a	n/a	0	0	0
3180.862	n/a	WORD	1590431	wordpools/wasnorm_wordpool_576.txt	LTP325	ltpFR2	18	15	MISTER	901	n/a	n/a	0	0	0
3183.374	n/a	WORD	1591687	wordpools/wasnorm_wordpool_576.txt	LTP325	ltpFR2	18	15	VENUS	1557	n/a	n/a	0	0	0
3185.948	n/a	WORD	1592974	wordpools/wasnorm_wordpool_576.txt	LTP325	ltpFR2	18	15	CHAPEL	280	n/a	n/a	0	0	0
3188.636	n/a	WORD	1594318	wordpools/wasnorm_wordpool_576.txt	LTP325	ltpFR2	18	15	ASIA	46	n/a	n/a	0	0	0
3191.198	n/a	WORD	1595599	wordpools/wasnorm_wordpool_576.txt	LTP325	ltpFR2	18	15	COMPASS	358	n/a	n/a	0	0	0
3193.74	n/a	WORD	1596870	wordpools/wasnorm_wordpool_576.txt	LTP325	ltpFR2	18	15	COMET	353	n/a	n/a	0	0	0
3196.42	n/a	WORD	1598210	wordpools/wasnorm_wordpool_576.txt	LTP325	ltpFR2	18	15	SCARF	1246	n/a	n/a	0	0	0
3198.028	n/a	START	1599014	n/a	LTP325	ltpFR2	18	n/a	n/a	n/a	23	n/a	n/a	n/a	n/a
3199.102	n/a	DISTRACTOR	1599551	n/a	LTP325	ltpFR2	18	15	n/a	n/a	n/a	n/a	0	0	0
3199.112	n/a	PROB	1599556	n/a	LTP325	ltpFR2	18	n/a	n/a	n/a	23	22	6	9	7
3202.988	n/a	PROB	1601494	n/a	LTP325	ltpFR2	18	n/a	n/a	n/a	23	14	4	9	1
3204.206	n/a	PROB	1602103	n/a	LTP325	ltpFR2	18	n/a	n/a	n/a	23	14	1	6	7
3205.792	n/a	PROB	1602896	n/a	LTP325	ltpFR2	18	n/a	n/a	n/a	23	8	5	2	1
3207.76	n/a	PROB	1603880	n/a	LTP325	ltpFR2	18	n/a	n/a	n/a	23	13	2	8	3
3209.278	n/a	PROB	1604639	n/a	LTP325	ltpFR2	18	n/a	n/a	n/a	23	16	5	4	7
3211.162	n/a	PROB	1605581	n/a	LTP325	ltpFR2	18	n/a	n/a	n/a	23	12	8	1	3
3213.098	n/a	PROB	1606549	n/a	LTP325	ltpFR2	18	n/a	n/a	n/a	23	9	1	3	5
3215.132	n/a	PROB	1607566	n/a	LTP325	ltpFR2	18	n/a	n/a	n/a	23	10	4	4	2
3217.3	n/a	PROB	1608650	n/a	LTP325	ltpFR2	18	n/a	n/a	n/a	23	16	6	1	9
3222.028	n/a	STOP	1611014	n/a	LTP325	ltpFR2	18	n/a	n/a	n/a	23	n/a	n/a	n/a	n/a
3223.824	n/a	REC_START	1611912	n/a	LTP325	ltpFR2	18	15	n/a	n/a	n/a	n/a	0	0	0
3225.802	n/a	REC_WORD	1612901	wordpools/wasnorm_wordpool_576.txt	LTP325	ltpFR2	18	15	VENUS	1557	n/a	n/a	0	0	0
3227.564	n/a	REC_WORD	1613782	wordpools/wasnorm_wordpool_576.txt	LTP325	ltpFR2	18	15	CHAPEL	280	n/a	n/a	0	0	0
3236.236	n/a	REC_WORD	1618118	wordpools/wasnorm_wordpool_576.txt	LTP325	ltpFR2	18	15	SCARF	1246	n/a	n/a	0	0	0
3238.198	n/a	REC_WORD	1619099	wordpools/wasnorm_wordpool_576.txt	LTP325	ltpFR2	18	15	COMPASS	358	n/a	n/a	0	0	0
3239.99	n/a	REC_WORD	1619995	wordpools/wasnorm_wordpool_576.txt	LTP325	ltpFR2	18	15	COMET	353	n/a	n/a	0	0	0
3297.022	n/a	REC_WORD	1648511	wordpools/wasnorm_wordpool_576.txt	LTP325	ltpFR2	18	15	SALAD	1224	n/a	n/a	0	0	0
3298.362	n/a	REC_WORD_VV	1649181	wordpools/wasnorm_wordpool_576.txt	LTP325	ltpFR2	18	15	<>	-1	n/a	n/a	0	0	0
3325.592	n/a	WORD	1662796	wordpools/wasnorm_wordpool_576.txt	LTP325	ltpFR2	18	16	TUTU	1524	n/a	n/a	0	0	0
3328.114	n/a	WORD	1664057	wordpools/wasnorm_wordpool_576.txt	LTP325	ltpFR2	18	16	PLUTO	1092	n/a	n/a	0	0	0
3330.632	n/a	WORD	1665316	wordpools/wasnorm_wordpool_576.txt	LTP325	ltpFR2	18	16	CANDY	230	n/a	n/a	0	0	0
3333.184	n/a	WORD	1666592	wordpools/wasnorm_wordpool_576.txt	LTP325	ltpFR2	18	16	EXPERT	543	n/a	n/a	0	0	0
3335.786	n/a	WORD	1667893	wordpools/wasnorm_wordpool_576.txt	LTP325	ltpFR2	18	16	ARMY	39	n/a	n/a	0	0	0
3338.238	n/a	WORD	1669119	wordpools/wasnorm_wordpool_576.txt	LTP325	ltpFR2	18	16	STUDENT	1395	n/a	n/a	0	0	0
3340.91	n/a	WORD	1670455	wordpools/wasnorm_wordpool_576.txt	LTP325	ltpFR2	18	16	COLLEGE	346	n/a	n/a	0	0	0
3343.458	n/a	WORD	1671729	wordpools/wasnorm_wordpool_576.txt	LTP325	ltpFR2	18	16	CROWN	415	n/a	n/a	0	0	0
3345.932	n/a	WORD	1672966	wordpools/wasnorm_wordpool_576.txt	LTP325	ltpFR2	18	16	LEADER	807	n/a	n/a	0	0	0
3348.596	n/a	WORD	1674298	wordpools/wasnorm_wordpool_576.txt	LTP325	ltpFR2	18	16	GARDEN	623	n/a	n/a	0	0	0
3351.03	n/a	WORD	1675515	wordpools/wasnorm_wordpool_576.txt	LTP325	ltpFR2	18	16	MEDAL	885	n/a	n/a	0	0	0
3353.816	n/a	WORD	1676908	wordpools/wasnorm_wordpool_576.txt	LTP325	ltpFR2	18	16	KNIFE	785	n/a	n/a	0	0	0
3356.358	n/a	WORD	1678179	wordpools/wasnorm_wordpool_576.txt	LTP325	ltpFR2	18	16	HONEY	713	n/a	n/a	0	0	0
3359.154	n/a	WORD	1679577	wordpools/wasnorm_wordpool_576.txt	LTP325	ltpFR2	18	16	SPOOL	1356	n/a	n/a	0	0	0
3361.812	n/a	WORD	1680906	wordpools/wasnorm_wordpool_576.txt	LTP325	ltpFR2	18	16	PEPPER	1047	n/a	n/a	0	0	0
3364.464	n/a	WORD	1682232	wordpools/wasnorm_wordpool_576.txt	LTP325	ltpFR2	18	16	QUARTER	1148	n/a	n/a	0	0	0
3367.278	n/a	WORD	1683639	wordpools/wasnorm_wordpool_576.txt	LTP325	ltpFR2	18	16	DIME	466	n/a	n/a	0	0	0
3369.886	n/a	WORD	1684943	wordpools/wasnorm_wordpool_576.txt	LTP325	ltpFR2	18	16	MARINE	869	n/a	n/a	0	0	0
3372.588	n/a	WORD	1686294	wordpools/wasnorm_wordpool_576.txt	LTP325	ltpFR2	18	16	CROSS	413	n/a	n/a	0	0	0
3375.184	n/a	WORD	1687592	wordpools/wasnorm_wordpool_576.txt	LTP325	ltpFR2	18	16	PIZZA	1079	n/a	n/a	0	0	0
3377.676	n/a	WORD	1688838	wordpools/wasnorm_wordpool_576.txt	LTP325	ltpFR2	18	16	COLONEL	348	n/a	n/a	0	0	0
3380.16	n/a	WORD	1690080	wordpools/wasnorm_wordpool_576.txt	LTP325	ltpFR2	18	16	DANCER	437	n/a	n/a	0	0	0
3382.69	n/a	WORD	1691345	wordpools/wasnorm_wordpool_576.txt	LTP325	ltpFR2	18	16	LILY	821	n/a	n/a	0	0	0
3385.458	n/a	WORD	1692729	wordpools/wasnorm_wordpool_576.txt	LTP325	ltpFR2	18	16	PEDAL	1037	n/a	n/a	0	0	0
3387.068	n/a	START	1693534	n/a	LTP325	ltpFR2	18	n/a	n/a	n/a	24	n/a	n/a	n/a	n/a
3387.996	n/a	DISTRACTOR	1693998	n/a	LTP325	ltpFR2	18	16	n/a	n/a	n/a	n/a	0	0	0
3388.008	n/a	PROB	1694004	n/a	LTP325	ltpFR2	18	n/a	n/a	n/a	24	16	2	7	7
3389.784	n/a	PROB	1694892	n/a	LTP325	ltpFR2	18	n/a	n/a	n/a	24	11	1	5	5
3390.852	n/a	PROB	1695426	n/a	LTP325	ltpFR2	18	n/a	n/a	n/a	24	20	7	8	5
3395.122	n/a	PROB	1697561	n/a	LTP325	ltpFR2	18	n/a	n/a	n/a	24	13	7	4	2
3396.906	n/a	PROB	1698453	n/a	LTP325	ltpFR2	18	n/a	n/a	n/a	24	16	4	5	7
3398.608	n/a	PROB	1699304	n/a	LTP325	ltpFR2	18	n/a	n/a	n/a	24	14	2	7	5
3403.362	n/a	PROB	1701681	n/a	LTP325	ltpFR2	18	n/a	n/a	n/a	24	17	8	4	5
3405.264	n/a	PROB	1702632	n/a	LTP325	ltpFR2	18	n/a	n/a	n/a	24	11	2	3	6
3407.866	n/a	PROB	1703933	n/a	LTP325	ltpFR2	18	n/a	n/a	n/a	24	14	1	5	8
3410.02	n/a	STOP	1705010	n/a	LTP325	ltpFR2	18	n/a	n/a	n/a	24	n/a	n/a	n/a	n/a
3412.938	n/a	REC_START	1706469	n/a	LTP325	ltpFR2	18	16	n/a	n/a	n/a	n/a	0	0	0
3415.384	n/a	REC_WORD	1707692	wordpools/wasnorm_wordpool_576.txt	LTP325	ltpFR2	18	16	DANCER	437	n/a	n/a	0	0	0
3420.788	n/a	REC_WORD	1710394	wordpools/wasnorm_wordpool_576.txt	LTP325	ltpFR2	18	16	HONEY	713	n/a	n/a	0	0	0
3422.728	n/a	REC_WORD	1711364	wordpools/wasnorm_wordpool_576.txt	LTP325	ltpFR2	18	16	SPOOL	1356	n/a	n/a	0	0	0
3424.43	n/a	REC_WORD	1712215	wordpools/wasnorm_wordpool_576.txt	LTP325	ltpFR2	18	16	KNIFE	785	n/a	n/a	0	0	0
3426.502	n/a	REC_WORD	1713251	wordpools/wasnorm_wordpool_576.txt	LTP325	ltpFR2	18	16	TUTU	1524	n/a	n/a	0	0	0
3427.962	n/a	REC_WORD	1713981	wordpools/wasnorm_wordpool_576.txt	LTP325	ltpFR2	18	16	PLUTO	1092	n/a	n/a	0	0	0
3429.592	n/a	REC_WORD	1714796	wordpools/wasnorm_wordpool_576.txt	LTP325	ltpFR2	18	16	CANDY	230	n/a	n/a	0	0	0
3452.234	n/a	REC_WORD	1726117	wordpools/wasnorm_wordpool_576.txt	LTP325	ltpFR2	18	16	COLONEL	348	n/a	n/a	0	0	0
3454.122	n/a	REC_WORD	1727061	wordpools/wasnorm_wordpool_576.txt	LTP325	ltpFR2	18	16	CROSS	413	n/a	n/a	0	0	0
3455.898	n/a	REC_WORD	1727949	wordpools/wasnorm_wordpool_576.txt	LTP325	ltpFR2	18	16	MEDAL	885	n/a	n/a	0	0	0
3457.572	n/a	REC_WORD	1728786	wordpools/wasnorm_wordpool_576.txt	LTP325	ltpFR2	18	16	GARDEN	623	n/a	n/a	0	0	0
3459.076	n/a	REC_WORD	1729538	wordpools/wasnorm_wordpool_576.txt	LTP325	ltpFR2	18	16	LEADER	807	n/a	n/a	0	0	0
3489.49	n/a	REST_REWET	1744745	n/a	LTP325	ltpFR2	18	16	n/a	n/a	n/a	n/a	0	0	0
3755.1	n/a	WORD	1877550	wordpools/wasnorm_wordpool_576.txt	LTP325	ltpFR2	18	17	SUSPECT	1415	n/a	n/a	0	0	0
3757.654	n/a	WORD	1878827	wordpools/wasnorm_wordpool_576.txt	LTP325	ltpFR2	18	17	GRAVE	658	n/a	n/a	0	0	0
3760.338	n/a	WORD	1880169	wordpools/wasnorm_wordpool_576.txt	LTP325	ltpFR2	18	17	WIDOW	1608	n/a	n/a	0	0	0
3763.124	n/a	WORD	1881562	wordpools/wasnorm_wordpool_576.txt	LTP325	ltpFR2	18	17	RAZOR	1171	n/a	n/a	0	0	0
3765.958	n/a	WORD	1882979	wordpools/wasnorm_wordpool_576.txt	LTP325	ltpFR2	18	17	HAND	683	n/a	n/a	0	0	0
3768.762	n/a	WORD	1884381	wordpools/wasnorm_wordpool_576.txt	LTP325	ltpFR2	18	17	LACE	792	n/a	n/a	0	0	0
3771.43	n/a	WORD	1885715	wordpools/wasnorm_wordpool_576.txt	LTP325	ltpFR2	18	17	SUNSET	1408	n/a	n/a	0	0	0
3774.032	n/a	WORD	1887016	wordpools/wasnorm_wordpool_576.txt	LTP325	ltpFR2	18	17	VAGRANT	1544	n/a	n/a	0	0	0
3776.736	n/a	WORD	1888368	wordpools/wasnorm_wordpool_576.txt	LTP325	ltpFR2	18	17	CLAM	315	n/a	n/a	0	0	0
3779.306	n/a	WORD	1889653	wordpools/wasnorm_wordpool_576.txt	LTP325	ltpFR2	18	17	SLUG	1329	n/a	n/a	0	0	0
3781.874	n/a	WORD	1890937	wordpools/wasnorm_wordpool_576.txt	LTP325	ltpFR2	18	17	STOVE	1388	n/a	n/a	0	0	0
3784.342	n/a	WORD	1892171	wordpools/wasnorm_wordpool_576.txt	LTP325	ltpFR2	18	17	APRON	35	n/a	n/a	0	0	0
3787.046	n/a	WORD	1893523	wordpools/wasnorm_wordpool_576.txt	LTP325	ltpFR2	18	17	FIREPLACE	570	n/a	n/a	0	0	0
3789.796	n/a	WORD	1894898	wordpools/wasnorm_wordpool_576.txt	LTP325	ltpFR2	18	17	SALT	1229	n/a	n/a	0	0	0
3792.6	n/a	WORD	1896300	wordpools/wasnorm_wordpool_576.txt	LTP325	ltpFR2	18	17	HEADBAND	696	n/a	n/a	0	0	0
3795.234	n/a	WORD	1897617	wordpools/wasnorm_wordpool_576.txt	LTP325	ltpFR2	18	17	THIEF	1456	n/a	n/a	0	0	0
3797.802	n/a	WORD	1898901	wordpools/wasnorm_wordpool_576.txt	LTP325	ltpFR2	18	17	FLASK	576	n/a	n/a	0	0	0
3800.604	n/a	WORD	1900302	wordpools/wasnorm_wordpool_576.txt	LTP325	ltpFR2	18	17	WHISTLE	1606	n/a	n/a	0	0	0
3803.276	n/a	WORD	1901638	wordpools/wasnorm_wordpool_576.txt	LTP325	ltpFR2	18	17	PROTON	1132	n/a	n/a	0	0	0
3805.858	n/a	WORD	1902929	wordpools/wasnorm_wordpool_576.txt	LTP325	ltpFR2	18	17	SUNRISE	1407	n/a	n/a	0	0	0
3808.478	n/a	WORD	1904239	wordpools/wasnorm_wordpool_576.txt	LTP325	ltpFR2	18	17	ROBBER	1197	n/a	n/a	0	0	0
3810.948	n/a	WORD	1905474	wordpools/wasnorm_wordpool_576.txt	LTP325	ltpFR2	18	17	FLUTE	585	n/a	n/a	0	0	0
3813.502	n/a	WORD	1906751	wordpools/wasnorm_wordpool_576.txt	LTP325	ltpFR2	18	17	BACON	67	n/a	n/a	0	0	0
3816.066	n/a	WORD	1908033	wordpools/wasnorm_wordpool_576.txt	LTP325	ltpFR2	18	17	BROOK	177	n/a	n/a	0	0	0
3817.672	n/a	START	1908836	n/a	LTP325	ltpFR2	18	n/a	n/a	n/a	25	n/a	n/a	n/a	n/a
3818.68	n/a	DISTRACTOR	1909340	n/a	LTP325	ltpFR2	18	17	n/a	n/a	n/a	n/a	0	0	0
3818.69	n/a	PROB	1909345	n/a	LTP325	ltpFR2	18	n/a	n/a	n/a	25	16	6	6	4
3820.47	n/a	PROB	1910235	n/a	LTP325	ltpFR2	18	n/a	n/a	n/a	25	17	6	8	3
3824.154	n/a	PROB	1912077	n/a	LTP325	ltpFR2	18	n/a	n/a	n/a	25	15	1	6	8
3826.054	n/a	PROB	1913027	n/a	LTP325	ltpFR2	18	n/a	n/a	n/a	25	13	9	3	1
3827.322	n/a	PROB	1913661	n/a	LTP325	ltpFR2	18	n/a	n/a	n/a	25	17	7	8	2
3829.09	n/a	PROB	1914545	n/a	LTP325	ltpFR2	18	n/a	n/a	n/a	25	15	4	9	2
3832.932	n/a	PROB	1916466	n/a	LTP325	ltpFR2	18	n/a	n/a	n/a	25	13	6	6	1
3834.394	n/a	PROB	1917197	n/a	LTP325	ltpFR2	18	n/a	n/a	n/a	25	23	7	9	7
3836.362	n/a	PROB	1918181	n/a	LTP325	ltpFR2	18	n/a	n/a	n/a	25	16	4	6	6
3841.674	n/a	STOP	1920837	n/a	LTP325	ltpFR2	18	n/a	n/a	n/a	25	n/a	n/a	n/a	n/a
3843.478	n/a	REC_START	1921739	n/a	LTP325	ltpFR2	18	17	n/a	n/a	n/a	n/a	0	0	0
3845.696	n/a	REC_WORD	1922848	wordpools/wasnorm_wordpool_576.txt	LTP325	ltpFR2	18	17	BACON	67	n/a	n/a	0	0	0
3855.666	n/a	REC_WORD	1927833	wordpools/wasnorm_wordpool_576.txt	LTP325	ltpFR2	18	17	RAZOR	1171	n/a	n/a	0	0	0
3857.084	n/a	REC_WORD	1928542	wordpools/wasnorm_wordpool_576.txt	LTP325	ltpFR2	18	17	HAND	683	n/a	n/a	0	0	0
3858.608	n/a	REC_WORD	1929304	wordpools/wasnorm_wordpool_576.txt	LTP325	ltpFR2	18	17	LACE	792	n/a	n/a	0	0	0
3861.598	n/a	REC_WORD	1930799	wordpools/wasnorm_wordpool_576.txt	LTP325	ltpFR2	18	17	SLUG	1329	n/a	n/a	0	0	0
3863.028	n/a	REC_WORD	1931514	wordpools/wasnorm_wordpool_576.txt	LTP325	ltpFR2	18	17	STOVE	1388	n/a	n/a	0	0	0
3864.028	n/a	REC_WORD_VV	1932014	wordpools/wasnorm_wordpool_576.txt	LTP325	ltpFR2	18	17	<>	-1	n/a	n/a	0	0	0
3865.756	n/a	REC_WORD	1932878	wordpools/wasnorm_wordpool_576.txt	LTP325	ltpFR2	18	17	SALT	1229	n/a	n/a	0	0	0
3866.868	n/a	REC_WORD	1933434	wordpools/wasnorm_wordpool_576.txt	LTP325	ltpFR2	18	17	FIREPLACE	570	n/a	n/a	0	0	0
3867.868	n/a	REC_WORD_VV	1933934	wordpools/wasnorm_wordpool_576.txt	LTP325	ltpFR2	18	17	<>	-1	n/a	n/a	0	0	0
3868.748	n/a	REC_WORD	1934374	wordpools/wasnorm_wordpool_576.txt	LTP325	ltpFR2	18	17	HEADBAND	696	n/a	n/a	0	0	0
3870.434	n/a	REC_WORD	1935217	wordpools/wasnorm_wordpool_576.txt	LTP325	ltpFR2	18	17	APRON	35	n/a	n/a	0	0	0
3876.354	n/a	REC_WORD	1938177	wordpools/wasnorm_wordpool_576.txt	LTP325	ltpFR2	18	17	VAGRANT	1544	n/a	n/a	0	0	0
3877.634	n/a	REC_WORD	1938817	wordpools/wasnorm_wordpool_576.txt	LTP325	ltpFR2	18	17	SUNRISE	1407	n/a	n/a	0	0	0
3878.634	n/a	REC_WORD_VV	1939317	wordpools/wasnorm_wordpool_576.txt	LTP325	ltpFR2	18	17	<>	-1	n/a	n/a	0	0	0
3879.946	n/a	REC_WORD	1939973	wordpools/wasnorm_wordpool_576.txt	LTP325	ltpFR2	18	17	SUNRISE	1407	n/a	n/a	0	0	0
3880.946	n/a	REC_WORD_VV	1940473	wordpools/wasnorm_wordpool_576.txt	LTP325	ltpFR2	18	17	<>	-1	n/a	n/a	0	0	0
3888.6	n/a	REC_WORD	1944300	wordpools/wasnorm_wordpool_576.txt	LTP325	ltpFR2	18	17	SUSPECT	1415	n/a	n/a	0	0	0
3890.052	n/a	REC_WORD	1945026	wordpools/wasnorm_wordpool_576.txt	LTP325	ltpFR2	18	17	GRAVE	658	n/a	n/a	0	0	0
3891.468	n/a	REC_WORD	1945734	wordpools/wasnorm_wordpool_576.txt	LTP325	ltpFR2	18	17	WIDOW	1608	n/a	n/a	0	0	0
3893.428	n/a	REC_WORD	1946714	wordpools/wasnorm_wordpool_576.txt	LTP325	ltpFR2	18	17	THIEF	1456	n/a	n/a	0	0	0
3894.91	n/a	REC_WORD	1947455	wordpools/wasnorm_wordpool_576.txt	LTP325	ltpFR2	18	17	WHISTLE	1606	n/a	n/a	0	0	0
3896.996	n/a	REC_WORD	1948498	wordpools/wasnorm_wordpool_576.txt	LTP325	ltpFR2	18	17	BURGLAR	200	n/a	n/a	0	0	0
3902.87	n/a	REC_WORD	1951435	wordpools/wasnorm_wordpool_576.txt	LTP325	ltpFR2	18	17	SNAIL	1332	n/a	n/a	0	0	0
3909.34	n/a	REC_WORD	1954670	wordpools/wasnorm_wordpool_576.txt	LTP325	ltpFR2	18	17	CLAM	315	n/a	n/a	0	0	0
3933.91	n/a	DISTRACTOR	1966955	n/a	LTP325	ltpFR2	18	18	n/a	n/a	n/a	n/a	0	0	0
3933.91	n/a	START	1966955	n/a	LTP325	ltpFR2	18	n/a	n/a	n/a	26	n/a	n/a	n/a	n/a
3933.924	n/a	PROB	1966962	n/a	LTP325	ltpFR2	18	n/a	n/a	n/a	26	13	6	4	3
3935.27	n/a	PROB	1967635	n/a	LTP325	ltpFR2	18	n/a	n/a	n/a	26	15	9	4	2
3937.372	n/a	PROB	1968686	n/a	LTP325	ltpFR2	18	n/a	n/a	n/a	26	24	7	9	8
3940.876	n/a	PROB	1970438	n/a	LTP325	ltpFR2	18	n/a	n/a	n/a	26	13	1	8	4
3942.51	n/a	PROB	1971255	n/a	LTP325	ltpFR2	18	n/a	n/a	n/a	26	13	6	1	6
3943.812	n/a	PROB	1971906	n/a	LTP325	ltpFR2	18	n/a	n/a	n/a	26	10	4	5	1
3945.3	n/a	PROB	1972650	n/a	LTP325	ltpFR2	18	n/a	n/a	n/a	26	16	6	8	2
3946.564	n/a	PROB	1973282	n/a	LTP325	ltpFR2	18	n/a	n/a	n/a	26	16	9	1	6
3947.764	n/a	PROB	1973882	n/a	LTP325	ltpFR2	18	n/a	n/a	n/a	26	18	5	6	7
3949.5	n/a	PROB	1974750	n/a	LTP325	ltpFR2	18	n/a	n/a	n/a	26	9	2	5	2
3951.702	n/a	PROB	1975851	n/a	LTP325	ltpFR2	18	n/a	n/a	n/a	26	15	5	7	3
3953.152	n/a	PROB	1976576	n/a	LTP325	ltpFR2	18	n/a	n/a	n/a	26	19	4	9	6
3954.788	n/a	PROB	1977394	n/a	LTP325	ltpFR2	18	n/a	n/a	n/a	26	13	6	5	2
3957.454	n/a	STOP	1978727	n/a	LTP325	ltpFR2	18	n/a	n/a	n/a	26	n/a	n/a	n/a	n/a
3959.01	n/a	WORD	1979505	wordpools/wasnorm_wordpool_576.txt	LTP325	ltpFR2	18	18	KEEPER	769	n/a	n/a	0	0	0
3961.55	n/a	WORD	1980775	wordpools/wasnorm_wordpool_576.txt	LTP325	ltpFR2	18	18	VIKING	1565	n/a	n/a	0	0	0
3964.05	n/a	WORD	1982025	wordpools/wasnorm_wordpool_576.txt	LTP325	ltpFR2	18	18	MOTOR	922	n/a	n/a	0	0	0
3966.85	n/a	WORD	1983425	wordpools/wasnorm_wordpool_576.txt	LTP325	ltpFR2	18	18	GIRL	637	n/a	n/a	0	0	0
3969.42	n/a	WORD	1984710	wordpools/wasnorm_wordpool_576.txt	LTP325	ltpFR2	18	18	MAILBOX	857	n/a	n/a	0	0	0
3972.072	n/a	WORD	1986036	wordpools/wasnorm_wordpool_576.txt	LTP325	ltpFR2	18	18	MAILMAN	858	n/a	n/a	0	0	0
3974.858	n/a	WORD	1987429	wordpools/wasnorm_wordpool_576.txt	LTP325	ltpFR2	18	18	LEOPARD	812	n/a	n/a	0	0	0
3977.494	n/a	WORD	1988747	wordpools/wasnorm_wordpool_576.txt	LTP325	ltpFR2	18	18	TRACTOR	1493	n/a	n/a	0	0	0
3979.962	n/a	WORD	1989981	wordpools/wasnorm_wordpool_576.txt	LTP325	ltpFR2	18	18	LUNCH	849	n/a	n/a	0	0	0
3982.466	n/a	WORD	1991233	wordpools/wasnorm_wordpool_576.txt	LTP325	ltpFR2	18	18	SERVANT	1271	n/a	n/a	0	0	0
3984.916	n/a	WORD	1992458	wordpools/wasnorm_wordpool_576.txt	LTP325	ltpFR2	18	18	TWISTER	1530	n/a	n/a	0	0	0
3987.736	n/a	WORD	1993868	wordpools/wasnorm_wordpool_576.txt	LTP325	ltpFR2	18	18	SCALPEL	1243	n/a	n/a	0	0	0
3990.304	n/a	WORD	1995152	wordpools/wasnorm_wordpool_576.txt	LTP325	ltpFR2	18	18	HARP	689	n/a	n/a	0	0	0
3993.072	n/a	WORD	1996536	wordpools/wasnorm_wordpool_576.txt	LTP325	ltpFR2	18	18	PISTON	1076	n/a	n/a	0	0	0
3995.776	n/a	WORD	1997888	wordpools/wasnorm_wordpool_576.txt	LTP325	ltpFR2	18	18	WAGON	1578	n/a	n/a	0	0	0
3998.428	n/a	WORD	1999214	wordpools/wasnorm_wordpool_576.txt	LTP325	ltpFR2	18	18	DENTIST	447	n/a	n/a	0	0	0
4001.198	n/a	WORD	2000599	wordpools/wasnorm_wordpool_576.txt	LTP325	ltpFR2	18	18	DORM	488	n/a	n/a	0	0	0
4003.816	n/a	WORD	2001908	wordpools/wasnorm_wordpool_576.txt	LTP325	ltpFR2	18	18	RACKET	1155	n/a	n/a	0	0	0
4006.418	n/a	WORD	2003209	wordpools/wasnorm_wordpool_576.txt	LTP325	ltpFR2	18	18	YACHT	1629	n/a	n/a	0	0	0
4009.154	n/a	WORD	2004577	wordpools/wasnorm_wordpool_576.txt	LTP325	ltpFR2	18	18	CANYON	235	n/a	n/a	0	0	0
