onset	duration	trial_type	sample	stim_file	subject	experiment	session	trial	task	item_name	item_num	recog_resp	recog_conf	resp	answer	test_x	test_y	test_z	color_r	color_g	color_b	case	font
263.754	n/a	SESS_START	131877	n/a	LTP188	ltpFR	8	n/a	n/a	n/a	n/a	1	5	n/a	n/a	0	0	0	n/a	n/a	n/a	n/a	n/a
313.894	n/a	START	156947	n/a	LTP188	ltpFR	8	n/a	n/a	n/a	n/a	n/a	n/a	n/a	n/a	n/a	n/a	n/a	n/a	n/a	n/a	n/a	n/a
313.928	n/a	PROB	156964	n/a	LTP188	ltpFR	8	n/a	n/a	n/a	n/a	n/a	n/a	n/a	14	1	4	9	n/a	n/a	n/a	n/a	n/a
315.874	n/a	PROB	157937	n/a	LTP188	ltpFR	8	n/a	n/a	n/a	n/a	n/a	n/a	n/a	13	6	5	2	n/a	n/a	n/a	n/a	n/a
318.122	n/a	PROB	159061	n/a	LTP188	ltpFR	8	n/a	n/a	n/a	n/a	n/a	n/a	n/a	18	9	8	1	n/a	n/a	n/a	n/a	n/a
319.936	n/a	PROB	159968	n/a	LTP188	ltpFR	8	n/a	n/a	n/a	n/a	n/a	n/a	n/a	12	1	4	7	n/a	n/a	n/a	n/a	n/a
322.3	n/a	PROB	161150	n/a	LTP188	ltpFR	8	n/a	n/a	n/a	n/a	n/a	n/a	n/a	17	7	1	9	n/a	n/a	n/a	n/a	n/a
323.946	n/a	PROB	161973	n/a	LTP188	ltpFR	8	n/a	n/a	n/a	n/a	n/a	n/a	n/a	14	4	2	8	n/a	n/a	n/a	n/a	n/a
325.262	n/a	PROB	162631	n/a	LTP188	ltpFR	8	n/a	n/a	n/a	n/a	n/a	n/a	n/a	13	4	2	7	n/a	n/a	n/a	n/a	n/a
328.04	n/a	PROB	164020	n/a	LTP188	ltpFR	8	n/a	n/a	n/a	n/a	n/a	n/a	n/a	23	9	8	5	n/a	n/a	n/a	n/a	n/a
333.364	n/a	STOP	166682	n/a	LTP188	ltpFR	8	n/a	n/a	n/a	n/a	n/a	n/a	n/a	n/a	n/a	n/a	n/a	n/a	n/a	n/a	n/a	n/a
405.608	n/a	START	202804	n/a	LTP188	ltpFR	8	n/a	n/a	n/a	n/a	n/a	n/a	n/a	n/a	n/a	n/a	n/a	n/a	n/a	n/a	n/a	n/a
407.124	n/a	PROB	203562	n/a	LTP188	ltpFR	8	n/a	n/a	n/a	n/a	n/a	n/a	n/a	13	5	4	3	n/a	n/a	n/a	n/a	n/a
410.768	n/a	PROB	205384	n/a	LTP188	ltpFR	8	n/a	n/a	n/a	n/a	n/a	n/a	n/a	14	6	2	6	n/a	n/a	n/a	n/a	n/a
412.46	n/a	STOP	206230	n/a	LTP188	ltpFR	8	n/a	n/a	n/a	n/a	n/a	n/a	n/a	n/a	n/a	n/a	n/a	n/a	n/a	n/a	n/a	n/a
414.53	n/a	WORD	207265	wordpools/wasnorm_wordpool_less_exclusions.txt	LTP188	ltpFR	8	1	1	CUBE	420	0	n/a	0	n/a	0	0	0	0.57763671875	0.412841796875	1	lower	amplitud.ttf
417.542	n/a	START	208771	n/a	LTP188	ltpFR	8	n/a	n/a	n/a	n/a	n/a	n/a	n/a	n/a	n/a	n/a	n/a	n/a	n/a	n/a	n/a	n/a
418.656	n/a	PROB	209328	n/a	LTP188	ltpFR	8	n/a	n/a	n/a	n/a	n/a	n/a	n/a	20	7	4	9	n/a	n/a	n/a	n/a	n/a
425.542	n/a	STOP	212771	n/a	LTP188	ltpFR	8	n/a	n/a	n/a	n/a	n/a	n/a	n/a	n/a	n/a	n/a	n/a	n/a	n/a	n/a	n/a	n/a
426.728	n/a	WORD	213364	wordpools/wasnorm_wordpool_less_exclusions.txt	LTP188	ltpFR	8	1	1	BANKER	84	n/a	n/a	0	n/a	0	0	0	0.57763671875	0.412841796875	1	lower	amplitud.ttf
429.74	n/a	START	214870	n/a	LTP188	ltpFR	8	n/a	n/a	n/a	n/a	n/a	n/a	n/a	n/a	n/a	n/a	n/a	n/a	n/a	n/a	n/a	n/a
430.722	n/a	PROB	215361	n/a	LTP188	ltpFR	8	n/a	n/a	n/a	n/a	n/a	n/a	n/a	14	5	2	7	n/a	n/a	n/a	n/a	n/a
433.12	n/a	PROB	216560	n/a	LTP188	ltpFR	8	n/a	n/a	n/a	n/a	n/a	n/a	n/a	16	6	8	2	n/a	n/a	n/a	n/a	n/a
434.682	n/a	PROB	217341	n/a	LTP188	ltpFR	8	n/a	n/a	n/a	n/a	n/a	n/a	n/a	16	6	3	7	n/a	n/a	n/a	n/a	n/a
437.74	n/a	STOP	218870	n/a	LTP188	ltpFR	8	n/a	n/a	n/a	n/a	n/a	n/a	n/a	n/a	n/a	n/a	n/a	n/a	n/a	n/a	n/a	n/a
438.792	n/a	WORD	219396	wordpools/wasnorm_wordpool_less_exclusions.txt	LTP188	ltpFR	8	1	1	DECK	443	n/a	n/a	0	n/a	0	0	0	0.57763671875	0.412841796875	1	lower	amplitud.ttf
441.806	n/a	START	220903	n/a	LTP188	ltpFR	8	n/a	n/a	n/a	n/a	n/a	n/a	n/a	n/a	n/a	n/a	n/a	n/a	n/a	n/a	n/a	n/a
442.77	n/a	PROB	221385	n/a	LTP188	ltpFR	8	n/a	n/a	n/a	n/a	n/a	n/a	n/a	13	2	6	5	n/a	n/a	n/a	n/a	n/a
445.084	n/a	PROB	222542	n/a	LTP188	ltpFR	8	n/a	n/a	n/a	n/a	n/a	n/a	n/a	9	5	2	2	n/a	n/a	n/a	n/a	n/a
447.148	n/a	PROB	223574	n/a	LTP188	ltpFR	8	n/a	n/a	n/a	n/a	n/a	n/a	n/a	6	4	1	1	n/a	n/a	n/a	n/a	n/a
448.518	n/a	STOP	224259	n/a	LTP188	ltpFR	8	n/a	n/a	n/a	n/a	n/a	n/a	n/a	n/a	n/a	n/a	n/a	n/a	n/a	n/a	n/a	n/a
450.992	n/a	WORD	225496	wordpools/wasnorm_wordpool_less_exclusions.txt	LTP188	ltpFR	8	1	0	PASTRY	1022	n/a	n/a	0	n/a	0	0	0	0.422607421875	0.5869140625	0	upper	zerothre.ttf
454.006	n/a	START	227003	n/a	LTP188	ltpFR	8	n/a	n/a	n/a	n/a	n/a	n/a	n/a	n/a	n/a	n/a	n/a	n/a	n/a	n/a	n/a	n/a
454.87	n/a	PROB	227435	n/a	LTP188	ltpFR	8	n/a	n/a	n/a	n/a	n/a	n/a	n/a	25	9	9	7	n/a	n/a	n/a	n/a	n/a
458.082	n/a	PROB	229041	n/a	LTP188	ltpFR	8	n/a	n/a	n/a	n/a	n/a	n/a	n/a	17	1	7	9	n/a	n/a	n/a	n/a	n/a
459.828	n/a	PROB	229914	n/a	LTP188	ltpFR	8	n/a	n/a	n/a	n/a	n/a	n/a	n/a	16	6	7	3	n/a	n/a	n/a	n/a	n/a
461.35	n/a	STOP	230675	n/a	LTP188	ltpFR	8	n/a	n/a	n/a	n/a	n/a	n/a	n/a	n/a	n/a	n/a	n/a	n/a	n/a	n/a	n/a	n/a
462.89	n/a	WORD	231445	wordpools/wasnorm_wordpool_less_exclusions.txt	LTP188	ltpFR	8	1	0	CYLINDER	432	n/a	n/a	0	n/a	0	0	0	0.422607421875	0.5869140625	0	upper	zerothre.ttf
465.902	n/a	START	232951	n/a	LTP188	ltpFR	8	n/a	n/a	n/a	n/a	n/a	n/a	n/a	n/a	n/a	n/a	n/a	n/a	n/a	n/a	n/a	n/a
466.818	n/a	PROB	233409	n/a	LTP188	ltpFR	8	n/a	n/a	n/a	n/a	n/a	n/a	n/a	13	8	3	2	n/a	n/a	n/a	n/a	n/a
470.098	n/a	PROB	235049	n/a	LTP188	ltpFR	8	n/a	n/a	n/a	n/a	n/a	n/a	n/a	20	4	8	9	n/a	n/a	n/a	n/a	n/a
472.588	n/a	STOP	236294	n/a	LTP188	ltpFR	8	n/a	n/a	n/a	n/a	n/a	n/a	n/a	n/a	n/a	n/a	n/a	n/a	n/a	n/a	n/a	n/a
474.74	n/a	WORD	237370	wordpools/wasnorm_wordpool_less_exclusions.txt	LTP188	ltpFR	8	1	0	ANTEATER	26	n/a	n/a	0	n/a	0	0	0	0.422607421875	0.5869140625	0	upper	zerothre.ttf
477.752	n/a	START	238876	n/a	LTP188	ltpFR	8	n/a	n/a	n/a	n/a	n/a	n/a	n/a	n/a	n/a	n/a	n/a	n/a	n/a	n/a	n/a	n/a
478.7	n/a	PROB	239350	n/a	LTP188	ltpFR	8	n/a	n/a	n/a	n/a	n/a	n/a	n/a	22	7	7	8	n/a	n/a	n/a	n/a	n/a
481.812	n/a	PROB	240906	n/a	LTP188	ltpFR	8	n/a	n/a	n/a	n/a	n/a	n/a	n/a	21	7	6	9	n/a	n/a	n/a	n/a	n/a
484.95	n/a	STOP	242475	n/a	LTP188	ltpFR	8	n/a	n/a	n/a	n/a	n/a	n/a	n/a	n/a	n/a	n/a	n/a	n/a	n/a	n/a	n/a	n/a
486.872	n/a	WORD	243436	wordpools/wasnorm_wordpool_less_exclusions.txt	LTP188	ltpFR	8	1	0	BISON	131	n/a	n/a	0	n/a	0	0	0	0.422607421875	0.5869140625	0	upper	zerothre.ttf
489.884	n/a	START	244942	n/a	LTP188	ltpFR	8	n/a	n/a	n/a	n/a	n/a	n/a	n/a	n/a	n/a	n/a	n/a	n/a	n/a	n/a	n/a	n/a
490.832	n/a	PROB	245416	n/a	LTP188	ltpFR	8	n/a	n/a	n/a	n/a	n/a	n/a	n/a	20	7	5	8	n/a	n/a	n/a	n/a	n/a
493.43	n/a	PROB	246715	n/a	LTP188	ltpFR	8	n/a	n/a	n/a	n/a	n/a	n/a	n/a	13	9	3	1	n/a	n/a	n/a	n/a	n/a
494.976	n/a	PROB	247488	n/a	LTP188	ltpFR	8	n/a	n/a	n/a	n/a	n/a	n/a	n/a	21	7	9	5	n/a	n/a	n/a	n/a	n/a
497.27	n/a	STOP	248635	n/a	LTP188	ltpFR	8	n/a	n/a	n/a	n/a	n/a	n/a	n/a	n/a	n/a	n/a	n/a	n/a	n/a	n/a	n/a	n/a
498.956	n/a	WORD	249478	wordpools/wasnorm_wordpool_less_exclusions.txt	LTP188	ltpFR	8	1	0	RECEIPT	1173	n/a	n/a	0	n/a	0	0	0	0.422607421875	0.5869140625	0	upper	zerothre.ttf
501.968	n/a	START	250984	n/a	LTP188	ltpFR	8	n/a	n/a	n/a	n/a	n/a	n/a	n/a	n/a	n/a	n/a	n/a	n/a	n/a	n/a	n/a	n/a
503.082	n/a	PROB	251541	n/a	LTP188	ltpFR	8	n/a	n/a	n/a	n/a	n/a	n/a	n/a	12	4	3	5	n/a	n/a	n/a	n/a	n/a
506.776	n/a	PROB	253388	n/a	LTP188	ltpFR	8	n/a	n/a	n/a	n/a	n/a	n/a	n/a	9	4	2	3	n/a	n/a	n/a	n/a	n/a
509.968	n/a	STOP	254984	n/a	LTP188	ltpFR	8	n/a	n/a	n/a	n/a	n/a	n/a	n/a	n/a	n/a	n/a	n/a	n/a	n/a	n/a	n/a	n/a
510.786	n/a	WORD	255393	wordpools/wasnorm_wordpool_less_exclusions.txt	LTP188	ltpFR	8	1	1	SUPPER	1411	n/a	n/a	1	n/a	0	0	0	0.57763671875	0.412841796875	1	lower	amplitud.ttf
513.8	n/a	START	256900	n/a	LTP188	ltpFR	8	n/a	n/a	n/a	n/a	n/a	n/a	n/a	n/a	n/a	n/a	n/a	n/a	n/a	n/a	n/a	n/a
514.982	n/a	PROB	257491	n/a	LTP188	ltpFR	8	n/a	n/a	n/a	n/a	n/a	n/a	n/a	13	6	3	4	n/a	n/a	n/a	n/a	n/a
517.81	n/a	PROB	258905	n/a	LTP188	ltpFR	8	n/a	n/a	n/a	n/a	n/a	n/a	n/a	13	2	7	4	n/a	n/a	n/a	n/a	n/a
521.8	n/a	STOP	260900	n/a	LTP188	ltpFR	8	n/a	n/a	n/a	n/a	n/a	n/a	n/a	n/a	n/a	n/a	n/a	n/a	n/a	n/a	n/a	n/a
522.818	n/a	WORD	261409	wordpools/wasnorm_wordpool_less_exclusions.txt	LTP188	ltpFR	8	1	1	MECHANIC	884	n/a	n/a	0	n/a	0	0	0	0.57763671875	0.412841796875	1	lower	amplitud.ttf
525.832	n/a	START	262916	n/a	LTP188	ltpFR	8	n/a	n/a	n/a	n/a	n/a	n/a	n/a	n/a	n/a	n/a	n/a	n/a	n/a	n/a	n/a	n/a
526.746	n/a	PROB	263373	n/a	LTP188	ltpFR	8	n/a	n/a	n/a	n/a	n/a	n/a	n/a	18	3	6	9	n/a	n/a	n/a	n/a	n/a
529.326	n/a	PROB	264663	n/a	LTP188	ltpFR	8	n/a	n/a	n/a	n/a	n/a	n/a	n/a	23	5	9	8	n/a	n/a	n/a	n/a	n/a
531.904	n/a	PROB	265952	n/a	LTP188	ltpFR	8	n/a	n/a	n/a	n/a	n/a	n/a	n/a	16	3	6	7	n/a	n/a	n/a	n/a	n/a
533.39	n/a	STOP	266695	n/a	LTP188	ltpFR	8	n/a	n/a	n/a	n/a	n/a	n/a	n/a	n/a	n/a	n/a	n/a	n/a	n/a	n/a	n/a	n/a
534.668	n/a	WORD	267334	wordpools/wasnorm_wordpool_less_exclusions.txt	LTP188	ltpFR	8	1	0	VAN	1548	n/a	n/a	1	n/a	0	0	0	0.422607421875	0.5869140625	0	upper	zerothre.ttf
537.68	n/a	START	268840	n/a	LTP188	ltpFR	8	n/a	n/a	n/a	n/a	n/a	n/a	n/a	n/a	n/a	n/a	n/a	n/a	n/a	n/a	n/a	n/a
538.594	n/a	PROB	269297	n/a	LTP188	ltpFR	8	n/a	n/a	n/a	n/a	n/a	n/a	n/a	12	6	2	4	n/a	n/a	n/a	n/a	n/a
540.344	n/a	PROB	270172	n/a	LTP188	ltpFR	8	n/a	n/a	n/a	n/a	n/a	n/a	n/a	19	7	3	9	n/a	n/a	n/a	n/a	n/a
541.69	n/a	PROB	270845	n/a	LTP188	ltpFR	8	n/a	n/a	n/a	n/a	n/a	n/a	n/a	9	3	4	2	n/a	n/a	n/a	n/a	n/a
543.938	n/a	PROB	271969	n/a	LTP188	ltpFR	8	n/a	n/a	n/a	n/a	n/a	n/a	n/a	16	6	8	2	n/a	n/a	n/a	n/a	n/a
545.23	n/a	STOP	272615	n/a	LTP188	ltpFR	8	n/a	n/a	n/a	n/a	n/a	n/a	n/a	n/a	n/a	n/a	n/a	n/a	n/a	n/a	n/a	n/a
546.8	n/a	WORD	273400	wordpools/wasnorm_wordpool_less_exclusions.txt	LTP188	ltpFR	8	1	0	TEAM	1441	n/a	n/a	1	n/a	0	0	0	0.422607421875	0.5869140625	0	upper	zerothre.ttf
549.812	n/a	START	274906	n/a	LTP188	ltpFR	8	n/a	n/a	n/a	n/a	n/a	n/a	n/a	n/a	n/a	n/a	n/a	n/a	n/a	n/a	n/a	n/a
550.876	n/a	PROB	275438	n/a	LTP188	ltpFR	8	n/a	n/a	n/a	n/a	n/a	n/a	n/a	11	2	3	4	n/a	n/a	n/a	n/a	n/a
553.424	n/a	PROB	276712	n/a	LTP188	ltpFR	8	n/a	n/a	n/a	n/a	n/a	n/a	n/a	19	4	8	7	n/a	n/a	n/a	n/a	n/a
556.286	n/a	STOP	278143	n/a	LTP188	ltpFR	8	n/a	n/a	n/a	n/a	n/a	n/a	n/a	n/a	n/a	n/a	n/a	n/a	n/a	n/a	n/a	n/a
558.814	n/a	WORD	279407	wordpools/wasnorm_wordpool_less_exclusions.txt	LTP188	ltpFR	8	1	0	BARRACUDA	90	n/a	n/a	1	n/a	0	0	0	0.422607421875	0.5869140625	0	upper	zerothre.ttf
561.828	n/a	START	280914	n/a	LTP188	ltpFR	8	n/a	n/a	n/a	n/a	n/a	n/a	n/a	n/a	n/a	n/a	n/a	n/a	n/a	n/a	n/a	n/a
562.826	n/a	PROB	281413	n/a	LTP188	ltpFR	8	n/a	n/a	n/a	n/a	n/a	n/a	n/a	16	8	4	4	n/a	n/a	n/a	n/a	n/a
565.688	n/a	PROB	282844	n/a	LTP188	ltpFR	8	n/a	n/a	n/a	n/a	n/a	n/a	n/a	9	1	1	7	n/a	n/a	n/a	n/a	n/a
567.186	n/a	PROB	283593	n/a	LTP188	ltpFR	8	n/a	n/a	n/a	n/a	n/a	n/a	n/a	10	4	5	1	n/a	n/a	n/a	n/a	n/a
569.056	n/a	STOP	284528	n/a	LTP188	ltpFR	8	n/a	n/a	n/a	n/a	n/a	n/a	n/a	n/a	n/a	n/a	n/a	n/a	n/a	n/a	n/a	n/a
570.882	n/a	WORD	285441	wordpools/wasnorm_wordpool_less_exclusions.txt	LTP188	ltpFR	8	1	1	PEANUT	1032	n/a	n/a	0	n/a	0	0	0	0.57763671875	0.412841796875	1	lower	amplitud.ttf
573.894	n/a	START	286947	n/a	LTP188	ltpFR	8	n/a	n/a	n/a	n/a	n/a	n/a	n/a	n/a	n/a	n/a	n/a	n/a	n/a	n/a	n/a	n/a
574.942	n/a	PROB	287471	n/a	LTP188	ltpFR	8	n/a	n/a	n/a	n/a	n/a	n/a	n/a	16	7	2	7	n/a	n/a	n/a	n/a	n/a
576.806	n/a	PROB	288403	n/a	LTP188	ltpFR	8	n/a	n/a	n/a	n/a	n/a	n/a	n/a	22	7	8	4	n/a	n/a	n/a	n/a	n/a
578.902	n/a	PROB	289451	n/a	LTP188	ltpFR	8	n/a	n/a	n/a	n/a	n/a	n/a	n/a	19	2	8	9	n/a	n/a	n/a	n/a	n/a
581.256	n/a	STOP	290628	n/a	LTP188	ltpFR	8	n/a	n/a	n/a	n/a	n/a	n/a	n/a	n/a	n/a	n/a	n/a	n/a	n/a	n/a	n/a	n/a
582.864	n/a	WORD	291432	wordpools/wasnorm_wordpool_less_exclusions.txt	LTP188	ltpFR	8	1	1	PRODUCER	1129	n/a	n/a	1	n/a	0	0	0	0.57763671875	0.412841796875	1	lower	amplitud.ttf
585.876	n/a	START	292938	n/a	LTP188	ltpFR	8	n/a	n/a	n/a	n/a	n/a	n/a	n/a	n/a	n/a	n/a	n/a	n/a	n/a	n/a	n/a	n/a
587.058	n/a	PROB	293529	n/a	LTP188	ltpFR	8	n/a	n/a	n/a	n/a	n/a	n/a	n/a	21	6	9	6	n/a	n/a	n/a	n/a	n/a
590.834	n/a	PROB	295417	n/a	LTP188	ltpFR	8	n/a	n/a	n/a	n/a	n/a	n/a	n/a	14	2	5	7	n/a	n/a	n/a	n/a	n/a
592.984	n/a	STOP	296492	n/a	LTP188	ltpFR	8	n/a	n/a	n/a	n/a	n/a	n/a	n/a	n/a	n/a	n/a	n/a	n/a	n/a	n/a	n/a	n/a
594.912	n/a	WORD	297456	wordpools/wasnorm_wordpool_less_exclusions.txt	LTP188	ltpFR	8	1	1	CONSOLE	364	n/a	n/a	0	n/a	0	0	0	0.57763671875	0.412841796875	1	lower	amplitud.ttf
597.926	n/a	START	298963	n/a	LTP188	ltpFR	8	n/a	n/a	n/a	n/a	n/a	n/a	n/a	n/a	n/a	n/a	n/a	n/a	n/a	n/a	n/a	n/a
598.756	n/a	PROB	299378	n/a	LTP188	ltpFR	8	n/a	n/a	n/a	n/a	n/a	n/a	n/a	19	8	8	3	n/a	n/a	n/a	n/a	n/a
600.67	n/a	PROB	300335	n/a	LTP188	ltpFR	8	n/a	n/a	n/a	n/a	n/a	n/a	n/a	17	6	8	3	n/a	n/a	n/a	n/a	n/a
603.832	n/a	PROB	301916	n/a	LTP188	ltpFR	8	n/a	n/a	n/a	n/a	n/a	n/a	n/a	15	2	5	8	n/a	n/a	n/a	n/a	n/a
605.702	n/a	STOP	302851	n/a	LTP188	ltpFR	8	n/a	n/a	n/a	n/a	n/a	n/a	n/a	n/a	n/a	n/a	n/a	n/a	n/a	n/a	n/a	n/a
607.86	n/a	REC_START	303930	n/a	LTP188	ltpFR	8	1	n/a	n/a	n/a	n/a	n/a	n/a	n/a	0	0	0	n/a	n/a	n/a	n/a	n/a
608.952	n/a	REC_WORD	304476	wordpools/wasnorm_wordpool_less_exclusions.txt	LTP188	ltpFR	8	1	1	CONSOLE	364	n/a	n/a	0	n/a	0	0	0	n/a	n/a	n/a	n/a	n/a
610.024	n/a	REC_WORD	305012	wordpools/wasnorm_wordpool_less_exclusions.txt	LTP188	ltpFR	8	1	0	BISON	131	n/a	n/a	0	n/a	0	0	0	n/a	n/a	n/a	n/a	n/a
610.838	n/a	REC_WORD	305419	wordpools/wasnorm_wordpool_less_exclusions.txt	LTP188	ltpFR	8	1	1	PRODUCER	1129	n/a	n/a	1	n/a	0	0	0	n/a	n/a	n/a	n/a	n/a
611.838	n/a	REC_WORD_VV	305919	wordpools/wasnorm_wordpool_less_exclusions.txt	LTP188	ltpFR	8	1	n/a	<>	-1	n/a	n/a	n/a	n/a	0	0	0	n/a	n/a	n/a	n/a	n/a
643.38	n/a	REC_WORD	321690	wordpools/wasnorm_wordpool_less_exclusions.txt	LTP188	ltpFR	8	1	0	BARRACUDA	90	n/a	n/a	1	n/a	0	0	0	n/a	n/a	n/a	n/a	n/a
644.38	n/a	REC_WORD_VV	322190	wordpools/wasnorm_wordpool_less_exclusions.txt	LTP188	ltpFR	8	1	n/a	<>	-1	n/a	n/a	n/a	n/a	0	0	0	n/a	n/a	n/a	n/a	n/a
678.858	n/a	REC_WORD	339429	wordpools/wasnorm_wordpool_less_exclusions.txt	LTP188	ltpFR	8	1	1	PRODUCER	1129	n/a	n/a	1	n/a	0	0	0	n/a	n/a	n/a	n/a	n/a
716.034	n/a	WORD	358017	wordpools/wasnorm_wordpool_less_exclusions.txt	LTP188	ltpFR	8	2	1	PIG	1064	n/a	n/a	1	n/a	0	0	0	0.57763671875	0.412841796875	1	lower	amplitud.ttf
720.194	n/a	WORD	360097	wordpools/wasnorm_wordpool_less_exclusions.txt	LTP188	ltpFR	8	2	1	BOTTLE	153	n/a	n/a	0	n/a	0	0	0	0.57763671875	0.412841796875	1	lower	amplitud.ttf
724.156	n/a	WORD	362078	wordpools/wasnorm_wordpool_less_exclusions.txt	LTP188	ltpFR	8	2	1	DUCK	504	n/a	n/a	1	n/a	0	0	0	0.57763671875	0.412841796875	1	lower	amplitud.ttf
728.382	n/a	WORD	364191	wordpools/wasnorm_wordpool_less_exclusions.txt	LTP188	ltpFR	8	2	1	GOOSE	649	n/a	n/a	1	n/a	0	0	0	0.57763671875	0.412841796875	1	lower	amplitud.ttf
732.41	n/a	WORD	366205	wordpools/wasnorm_wordpool_less_exclusions.txt	LTP188	ltpFR	8	2	1	WASHCLOTH	1591	n/a	n/a	0	n/a	0	0	0	0.57763671875	0.412841796875	1	lower	amplitud.ttf
736.238	n/a	WORD	368119	wordpools/wasnorm_wordpool_less_exclusions.txt	LTP188	ltpFR	8	2	0	BARLEY	88	n/a	n/a	0	n/a	0	0	0	0.422607421875	0.5869140625	0	upper	zerothre.ttf
740.38	n/a	WORD	370190	wordpools/wasnorm_wordpool_less_exclusions.txt	LTP188	ltpFR	8	2	0	DRILL	497	n/a	n/a	0	n/a	0	0	0	0.422607421875	0.5869140625	0	upper	zerothre.ttf
744.524	n/a	WORD	372262	wordpools/wasnorm_wordpool_less_exclusions.txt	LTP188	ltpFR	8	2	0	MATCH	878	n/a	n/a	0	n/a	0	0	0	0.422607421875	0.5869140625	0	upper	zerothre.ttf
748.402	n/a	WORD	374201	wordpools/wasnorm_wordpool_less_exclusions.txt	LTP188	ltpFR	8	2	0	COW	393	n/a	n/a	1	n/a	0	0	0	0.422607421875	0.5869140625	0	upper	zerothre.ttf
752.512	n/a	WORD	376256	wordpools/wasnorm_wordpool_less_exclusions.txt	LTP188	ltpFR	8	2	0	CINNAMON	310	n/a	n/a	0	n/a	0	0	0	0.422607421875	0.5869140625	0	upper	zerothre.ttf
756.656	n/a	WORD	378328	wordpools/wasnorm_wordpool_less_exclusions.txt	LTP188	ltpFR	8	2	0	FOOT	590	n/a	n/a	0	n/a	0	0	0	0.422607421875	0.5869140625	0	upper	zerothre.ttf
760.616	n/a	WORD	380308	wordpools/wasnorm_wordpool_less_exclusions.txt	LTP188	ltpFR	8	2	1	DAM	436	n/a	n/a	0	n/a	0	0	0	0.57763671875	0.412841796875	1	lower	amplitud.ttf
764.444	n/a	WORD	382222	wordpools/wasnorm_wordpool_less_exclusions.txt	LTP188	ltpFR	8	2	1	MILK	895	n/a	n/a	0	n/a	0	0	0	0.57763671875	0.412841796875	1	lower	amplitud.ttf
768.372	n/a	WORD	384186	wordpools/wasnorm_wordpool_less_exclusions.txt	LTP188	ltpFR	8	2	1	ARENA	37	n/a	n/a	0	n/a	0	0	0	0.57763671875	0.412841796875	1	lower	amplitud.ttf
772.4	n/a	WORD	386200	wordpools/wasnorm_wordpool_less_exclusions.txt	LTP188	ltpFR	8	2	0	FIG	563	n/a	n/a	0	n/a	0	0	0	0.422607421875	0.5869140625	0	upper	zerothre.ttf
776.294	n/a	WORD	388147	wordpools/wasnorm_wordpool_less_exclusions.txt	LTP188	ltpFR	8	2	0	CHEMIST	292	n/a	n/a	1	n/a	0	0	0	0.422607421875	0.5869140625	0	upper	zerothre.ttf
779.306	n/a	START	389653	n/a	LTP188	ltpFR	8	n/a	n/a	n/a	n/a	n/a	n/a	n/a	n/a	n/a	n/a	n/a	n/a	n/a	n/a	n/a	n/a
780.422	n/a	PROB	390211	n/a	LTP188	ltpFR	8	n/a	n/a	n/a	n/a	n/a	n/a	n/a	17	8	6	3	n/a	n/a	n/a	n/a	n/a
783.268	n/a	PROB	391634	n/a	LTP188	ltpFR	8	n/a	n/a	n/a	n/a	n/a	n/a	n/a	10	2	2	6	n/a	n/a	n/a	n/a	n/a
785.282	n/a	PROB	392641	n/a	LTP188	ltpFR	8	n/a	n/a	n/a	n/a	n/a	n/a	n/a	14	2	8	4	n/a	n/a	n/a	n/a	n/a
786.794	n/a	STOP	393397	n/a	LTP188	ltpFR	8	n/a	n/a	n/a	n/a	n/a	n/a	n/a	n/a	n/a	n/a	n/a	n/a	n/a	n/a	n/a	n/a
789.11	n/a	REC_START	394555	n/a	LTP188	ltpFR	8	2	n/a	n/a	n/a	n/a	n/a	n/a	n/a	0	0	0	n/a	n/a	n/a	n/a	n/a
791.948	n/a	REC_WORD	395974	wordpools/wasnorm_wordpool_less_exclusions.txt	LTP188	ltpFR	8	2	0	CHEMIST	292	n/a	n/a	1	n/a	0	0	0	n/a	n/a	n/a	n/a	n/a
793.898	n/a	REC_WORD	396949	wordpools/wasnorm_wordpool_less_exclusions.txt	LTP188	ltpFR	8	2	0	CINNAMON	310	n/a	n/a	0	n/a	0	0	0	n/a	n/a	n/a	n/a	n/a
795.364	n/a	REC_WORD	397682	wordpools/wasnorm_wordpool_less_exclusions.txt	LTP188	ltpFR	8	2	0	FIG	563	n/a	n/a	0	n/a	0	0	0	n/a	n/a	n/a	n/a	n/a
805.108	n/a	REC_WORD	402554	wordpools/wasnorm_wordpool_less_exclusions.txt	LTP188	ltpFR	8	2	1	GOOSE	649	n/a	n/a	1	n/a	0	0	0	n/a	n/a	n/a	n/a	n/a
806.286	n/a	REC_WORD	403143	wordpools/wasnorm_wordpool_less_exclusions.txt	LTP188	ltpFR	8	2	1	DUCK	504	n/a	n/a	1	n/a	0	0	0	n/a	n/a	n/a	n/a	n/a
813.534	n/a	REC_WORD	406767	wordpools/wasnorm_wordpool_less_exclusions.txt	LTP188	ltpFR	8	2	1	ARENA	37	n/a	n/a	0	n/a	0	0	0	n/a	n/a	n/a	n/a	n/a
846.314	n/a	REC_WORD	423157	wordpools/wasnorm_wordpool_less_exclusions.txt	LTP188	ltpFR	8	2	0	FOOT	590	n/a	n/a	0	n/a	0	0	0	n/a	n/a	n/a	n/a	n/a
881.19	n/a	START	440595	n/a	LTP188	ltpFR	8	n/a	n/a	n/a	n/a	n/a	n/a	n/a	n/a	n/a	n/a	n/a	n/a	n/a	n/a	n/a	n/a
882.702	n/a	PROB	441351	n/a	LTP188	ltpFR	8	n/a	n/a	n/a	n/a	n/a	n/a	n/a	9	2	3	4	n/a	n/a	n/a	n/a	n/a
885.184	n/a	PROB	442592	n/a	LTP188	ltpFR	8	n/a	n/a	n/a	n/a	n/a	n/a	n/a	19	6	6	7	n/a	n/a	n/a	n/a	n/a
887.214	n/a	PROB	443607	n/a	LTP188	ltpFR	8	n/a	n/a	n/a	n/a	n/a	n/a	n/a	18	3	8	7	n/a	n/a	n/a	n/a	n/a
889.094	n/a	PROB	444547	n/a	LTP188	ltpFR	8	n/a	n/a	n/a	n/a	n/a	n/a	n/a	24	8	8	6	n/a	n/a	n/a	n/a	n/a
891.556	n/a	PROB	445778	n/a	LTP188	ltpFR	8	n/a	n/a	n/a	n/a	n/a	n/a	n/a	14	6	6	2	n/a	n/a	n/a	n/a	n/a
893.82	n/a	PROB	446910	n/a	LTP188	ltpFR	8	n/a	n/a	n/a	n/a	n/a	n/a	n/a	15	1	7	6	n/a	n/a	n/a	n/a	n/a
895.616	n/a	PROB	447808	n/a	LTP188	ltpFR	8	n/a	n/a	n/a	n/a	n/a	n/a	n/a	18	8	3	7	n/a	n/a	n/a	n/a	n/a
897.036	n/a	STOP	448518	n/a	LTP188	ltpFR	8	n/a	n/a	n/a	n/a	n/a	n/a	n/a	n/a	n/a	n/a	n/a	n/a	n/a	n/a	n/a	n/a
898.314	n/a	WORD	449157	wordpools/wasnorm_wordpool_less_exclusions.txt	LTP188	ltpFR	8	3	0	HIKER	708	n/a	n/a	1	n/a	0	0	0	0.422607421875	0.5869140625	0	upper	zerothre.ttf
901.326	n/a	START	450663	n/a	LTP188	ltpFR	8	n/a	n/a	n/a	n/a	n/a	n/a	n/a	n/a	n/a	n/a	n/a	n/a	n/a	n/a	n/a	n/a
902.208	n/a	PROB	451104	n/a	LTP188	ltpFR	8	n/a	n/a	n/a	n/a	n/a	n/a	n/a	9	5	1	3	n/a	n/a	n/a	n/a	n/a
904.254	n/a	PROB	452127	n/a	LTP188	ltpFR	8	n/a	n/a	n/a	n/a	n/a	n/a	n/a	23	7	9	7	n/a	n/a	n/a	n/a	n/a
907.184	n/a	PROB	453592	n/a	LTP188	ltpFR	8	n/a	n/a	n/a	n/a	n/a	n/a	n/a	14	1	9	4	n/a	n/a	n/a	n/a	n/a
908.814	n/a	PROB	454407	n/a	LTP188	ltpFR	8	n/a	n/a	n/a	n/a	n/a	n/a	n/a	16	6	1	9	n/a	n/a	n/a	n/a	n/a
910.046	n/a	PROB	455023	n/a	LTP188	ltpFR	8	n/a	n/a	n/a	n/a	n/a	n/a	n/a	10	1	8	1	n/a	n/a	n/a	n/a	n/a
911.56	n/a	PROB	455780	n/a	LTP188	ltpFR	8	n/a	n/a	n/a	n/a	n/a	n/a	n/a	24	6	8	8	n/a	n/a	n/a	n/a	n/a
913.724	n/a	PROB	456862	n/a	LTP188	ltpFR	8	n/a	n/a	n/a	n/a	n/a	n/a	n/a	14	7	3	4	n/a	n/a	n/a	n/a	n/a
917.326	n/a	STOP	458663	n/a	LTP188	ltpFR	8	n/a	n/a	n/a	n/a	n/a	n/a	n/a	n/a	n/a	n/a	n/a	n/a	n/a	n/a	n/a	n/a
918.334	n/a	WORD	459167	wordpools/wasnorm_wordpool_less_exclusions.txt	LTP188	ltpFR	8	3	0	DIRT	472	n/a	n/a	1	n/a	0	0	0	0.422607421875	0.5869140625	0	upper	zerothre.ttf
921.346	n/a	START	460673	n/a	LTP188	ltpFR	8	n/a	n/a	n/a	n/a	n/a	n/a	n/a	n/a	n/a	n/a	n/a	n/a	n/a	n/a	n/a	n/a
922.478	n/a	PROB	461239	n/a	LTP188	ltpFR	8	n/a	n/a	n/a	n/a	n/a	n/a	n/a	20	7	9	4	n/a	n/a	n/a	n/a	n/a
925.574	n/a	PROB	462787	n/a	LTP188	ltpFR	8	n/a	n/a	n/a	n/a	n/a	n/a	n/a	13	3	8	2	n/a	n/a	n/a	n/a	n/a
927.138	n/a	PROB	463569	n/a	LTP188	ltpFR	8	n/a	n/a	n/a	n/a	n/a	n/a	n/a	13	2	3	8	n/a	n/a	n/a	n/a	n/a
929.386	n/a	PROB	464693	n/a	LTP188	ltpFR	8	n/a	n/a	n/a	n/a	n/a	n/a	n/a	18	9	2	7	n/a	n/a	n/a	n/a	n/a
932.314	n/a	PROB	466157	n/a	LTP188	ltpFR	8	n/a	n/a	n/a	n/a	n/a	n/a	n/a	14	8	3	3	n/a	n/a	n/a	n/a	n/a
937.348	n/a	STOP	468674	n/a	LTP188	ltpFR	8	n/a	n/a	n/a	n/a	n/a	n/a	n/a	n/a	n/a	n/a	n/a	n/a	n/a	n/a	n/a	n/a
938.304	n/a	WORD	469152	wordpools/wasnorm_wordpool_less_exclusions.txt	LTP188	ltpFR	8	3	0	FLOWER	584	n/a	n/a	0	n/a	0	0	0	0.422607421875	0.5869140625	0	upper	zerothre.ttf
941.318	n/a	START	470659	n/a	LTP188	ltpFR	8	n/a	n/a	n/a	n/a	n/a	n/a	n/a	n/a	n/a	n/a	n/a	n/a	n/a	n/a	n/a	n/a
942.132	n/a	PROB	471066	n/a	LTP188	ltpFR	8	n/a	n/a	n/a	n/a	n/a	n/a	n/a	13	5	5	3	n/a	n/a	n/a	n/a	n/a
944.08	n/a	PROB	472040	n/a	LTP188	ltpFR	8	n/a	n/a	n/a	n/a	n/a	n/a	n/a	15	2	8	5	n/a	n/a	n/a	n/a	n/a
945.494	n/a	PROB	472747	n/a	LTP188	ltpFR	8	n/a	n/a	n/a	n/a	n/a	n/a	n/a	22	9	6	7	n/a	n/a	n/a	n/a	n/a
949.804	n/a	PROB	474902	n/a	LTP188	ltpFR	8	n/a	n/a	n/a	n/a	n/a	n/a	n/a	13	3	5	5	n/a	n/a	n/a	n/a	n/a
951.186	n/a	PROB	475593	n/a	LTP188	ltpFR	8	n/a	n/a	n/a	n/a	n/a	n/a	n/a	15	1	8	6	n/a	n/a	n/a	n/a	n/a
952.766	n/a	PROB	476383	n/a	LTP188	ltpFR	8	n/a	n/a	n/a	n/a	n/a	n/a	n/a	16	7	5	4	n/a	n/a	n/a	n/a	n/a
957.318	n/a	STOP	478659	n/a	LTP188	ltpFR	8	n/a	n/a	n/a	n/a	n/a	n/a	n/a	n/a	n/a	n/a	n/a	n/a	n/a	n/a	n/a	n/a
958.292	n/a	WORD	479146	wordpools/wasnorm_wordpool_less_exclusions.txt	LTP188	ltpFR	8	3	0	LILY	821	n/a	n/a	1	n/a	0	0	0	0.422607421875	0.5869140625	0	upper	zerothre.ttf
961.304	n/a	START	480652	n/a	LTP188	ltpFR	8	n/a	n/a	n/a	n/a	n/a	n/a	n/a	n/a	n/a	n/a	n/a	n/a	n/a	n/a	n/a	n/a
962.27	n/a	PROB	481135	n/a	LTP188	ltpFR	8	n/a	n/a	n/a	n/a	n/a	n/a	n/a	10	2	1	7	n/a	n/a	n/a	n/a	n/a
964.532	n/a	PROB	482266	n/a	LTP188	ltpFR	8	n/a	n/a	n/a	n/a	n/a	n/a	n/a	10	2	5	3	n/a	n/a	n/a	n/a	n/a
966.928	n/a	PROB	483464	n/a	LTP188	ltpFR	8	n/a	n/a	n/a	n/a	n/a	n/a	n/a	12	1	8	3	n/a	n/a	n/a	n/a	n/a
969.226	n/a	PROB	484613	n/a	LTP188	ltpFR	8	n/a	n/a	n/a	n/a	n/a	n/a	n/a	10	1	5	4	n/a	n/a	n/a	n/a	n/a
972.138	n/a	PROB	486069	n/a	LTP188	ltpFR	8	n/a	n/a	n/a	n/a	n/a	n/a	n/a	12	6	2	4	n/a	n/a	n/a	n/a	n/a
977.304	n/a	STOP	488652	n/a	LTP188	ltpFR	8	n/a	n/a	n/a	n/a	n/a	n/a	n/a	n/a	n/a	n/a	n/a	n/a	n/a	n/a	n/a	n/a
978.428	n/a	WORD	489214	wordpools/wasnorm_wordpool_less_exclusions.txt	LTP188	ltpFR	8	3	0	TRUCK	1512	n/a	n/a	1	n/a	0	0	0	0.422607421875	0.5869140625	0	upper	zerothre.ttf
981.442	n/a	START	490721	n/a	LTP188	ltpFR	8	n/a	n/a	n/a	n/a	n/a	n/a	n/a	n/a	n/a	n/a	n/a	n/a	n/a	n/a	n/a	n/a
982.588	n/a	PROB	491294	n/a	LTP188	ltpFR	8	n/a	n/a	n/a	n/a	n/a	n/a	n/a	10	1	8	1	n/a	n/a	n/a	n/a	n/a
983.852	n/a	PROB	491926	n/a	LTP188	ltpFR	8	n/a	n/a	n/a	n/a	n/a	n/a	n/a	23	8	7	8	n/a	n/a	n/a	n/a	n/a
987.564	n/a	PROB	493782	n/a	LTP188	ltpFR	8	n/a	n/a	n/a	n/a	n/a	n/a	n/a	15	1	5	9	n/a	n/a	n/a	n/a	n/a
988.996	n/a	PROB	494498	n/a	LTP188	ltpFR	8	n/a	n/a	n/a	n/a	n/a	n/a	n/a	19	3	8	8	n/a	n/a	n/a	n/a	n/a
990.592	n/a	PROB	495296	n/a	LTP188	ltpFR	8	n/a	n/a	n/a	n/a	n/a	n/a	n/a	13	7	2	4	n/a	n/a	n/a	n/a	n/a
992.94	n/a	PROB	496470	n/a	LTP188	ltpFR	8	n/a	n/a	n/a	n/a	n/a	n/a	n/a	6	1	2	3	n/a	n/a	n/a	n/a	n/a
997.442	n/a	STOP	498721	n/a	LTP188	ltpFR	8	n/a	n/a	n/a	n/a	n/a	n/a	n/a	n/a	n/a	n/a	n/a	n/a	n/a	n/a	n/a	n/a
998.5	n/a	WORD	499250	wordpools/wasnorm_wordpool_less_exclusions.txt	LTP188	ltpFR	8	3	0	DASHBOARD	441	n/a	n/a	n/a	n/a	0	0	0	0.422607421875	0.5869140625	0	upper	zerothre.ttf
1001.528	n/a	SLOW_MSG	500764	n/a	LTP188	ltpFR	8	3	n/a	n/a	n/a	n/a	n/a	n/a	n/a	0	0	0	n/a	n/a	n/a	n/a	n/a
1003.06	n/a	START	501530	n/a	LTP188	ltpFR	8	n/a	n/a	n/a	n/a	n/a	n/a	n/a	n/a	n/a	n/a	n/a	n/a	n/a	n/a	n/a	n/a
1004.124	n/a	PROB	502062	n/a	LTP188	ltpFR	8	n/a	n/a	n/a	n/a	n/a	n/a	n/a	20	9	6	5	n/a	n/a	n/a	n/a	n/a
1006.82	n/a	PROB	503410	n/a	LTP188	ltpFR	8	n/a	n/a	n/a	n/a	n/a	n/a	n/a	11	2	8	1	n/a	n/a	n/a	n/a	n/a
1008.352	n/a	PROB	504176	n/a	LTP188	ltpFR	8	n/a	n/a	n/a	n/a	n/a	n/a	n/a	17	9	5	3	n/a	n/a	n/a	n/a	n/a
1011.364	n/a	PROB	505682	n/a	LTP188	ltpFR	8	n/a	n/a	n/a	n/a	n/a	n/a	n/a	8	1	3	4	n/a	n/a	n/a	n/a	n/a
1013.244	n/a	PROB	506622	n/a	LTP188	ltpFR	8	n/a	n/a	n/a	n/a	n/a	n/a	n/a	20	5	9	6	n/a	n/a	n/a	n/a	n/a
1016.372	n/a	PROB	508186	n/a	LTP188	ltpFR	8	n/a	n/a	n/a	n/a	n/a	n/a	n/a	19	7	8	3	n/a	n/a	n/a	n/a	n/a
1018.95	n/a	STOP	509475	n/a	LTP188	ltpFR	8	n/a	n/a	n/a	n/a	n/a	n/a	n/a	n/a	n/a	n/a	n/a	n/a	n/a	n/a	n/a	n/a
1019.95	n/a	WORD	509975	wordpools/wasnorm_wordpool_less_exclusions.txt	LTP188	ltpFR	8	3	0	FENCE	560	n/a	n/a	1	n/a	0	0	0	0.422607421875	0.5869140625	0	upper	zerothre.ttf
1022.964	n/a	START	511482	n/a	LTP188	ltpFR	8	n/a	n/a	n/a	n/a	n/a	n/a	n/a	n/a	n/a	n/a	n/a	n/a	n/a	n/a	n/a	n/a
1023.844	n/a	PROB	511922	n/a	LTP188	ltpFR	8	n/a	n/a	n/a	n/a	n/a	n/a	n/a	17	9	3	5	n/a	n/a	n/a	n/a	n/a
1026.524	n/a	PROB	513262	n/a	LTP188	ltpFR	8	n/a	n/a	n/a	n/a	n/a	n/a	n/a	19	8	3	8	n/a	n/a	n/a	n/a	n/a
1028.786	n/a	PROB	514393	n/a	LTP188	ltpFR	8	n/a	n/a	n/a	n/a	n/a	n/a	n/a	8	1	4	3	n/a	n/a	n/a	n/a	n/a
1030.7	n/a	PROB	515350	n/a	LTP188	ltpFR	8	n/a	n/a	n/a	n/a	n/a	n/a	n/a	8	2	2	4	n/a	n/a	n/a	n/a	n/a
1032.998	n/a	PROB	516499	n/a	LTP188	ltpFR	8	n/a	n/a	n/a	n/a	n/a	n/a	n/a	18	6	9	3	n/a	n/a	n/a	n/a	n/a
1035.826	n/a	PROB	517913	n/a	LTP188	ltpFR	8	n/a	n/a	n/a	n/a	n/a	n/a	n/a	12	4	2	6	n/a	n/a	n/a	n/a	n/a
1037.534	n/a	STOP	518767	n/a	LTP188	ltpFR	8	n/a	n/a	n/a	n/a	n/a	n/a	n/a	n/a	n/a	n/a	n/a	n/a	n/a	n/a	n/a	n/a
1039.988	n/a	WORD	519994	wordpools/wasnorm_wordpool_less_exclusions.txt	LTP188	ltpFR	8	3	0	DRYER	503	n/a	n/a	1	n/a	0	0	0	0.422607421875	0.5869140625	0	upper	zerothre.ttf
1043.0	n/a	START	521500	n/a	LTP188	ltpFR	8	n/a	n/a	n/a	n/a	n/a	n/a	n/a	n/a	n/a	n/a	n/a	n/a	n/a	n/a	n/a	n/a
1043.898	n/a	PROB	521949	n/a	LTP188	ltpFR	8	n/a	n/a	n/a	n/a	n/a	n/a	n/a	17	3	5	9	n/a	n/a	n/a	n/a	n/a
1046.462	n/a	PROB	523231	n/a	LTP188	ltpFR	8	n/a	n/a	n/a	n/a	n/a	n/a	n/a	8	6	1	1	n/a	n/a	n/a	n/a	n/a
1047.758	n/a	PROB	523879	n/a	LTP188	ltpFR	8	n/a	n/a	n/a	n/a	n/a	n/a	n/a	20	6	6	8	n/a	n/a	n/a	n/a	n/a
1050.09	n/a	PROB	525045	n/a	LTP188	ltpFR	8	n/a	n/a	n/a	n/a	n/a	n/a	n/a	15	6	1	8	n/a	n/a	n/a	n/a	n/a
1051.952	n/a	PROB	525976	n/a	LTP188	ltpFR	8	n/a	n/a	n/a	n/a	n/a	n/a	n/a	12	6	2	4	n/a	n/a	n/a	n/a	n/a
1053.384	n/a	PROB	526692	n/a	LTP188	ltpFR	8	n/a	n/a	n/a	n/a	n/a	n/a	n/a	21	6	8	7	n/a	n/a	n/a	n/a	n/a
1056.03	n/a	PROB	528015	n/a	LTP188	ltpFR	8	n/a	n/a	n/a	n/a	n/a	n/a	n/a	13	3	2	8	n/a	n/a	n/a	n/a	n/a
1057.462	n/a	PROB	528731	n/a	LTP188	ltpFR	8	n/a	n/a	n/a	n/a	n/a	n/a	n/a	11	7	3	1	n/a	n/a	n/a	n/a	n/a
1058.644	n/a	STOP	529322	n/a	LTP188	ltpFR	8	n/a	n/a	n/a	n/a	n/a	n/a	n/a	n/a	n/a	n/a	n/a	n/a	n/a	n/a	n/a	n/a
1059.856	n/a	WORD	529928	wordpools/wasnorm_wordpool_less_exclusions.txt	LTP188	ltpFR	8	3	0	KITCHEN	778	n/a	n/a	1	n/a	0	0	0	0.422607421875	0.5869140625	0	upper	zerothre.ttf
1062.87	n/a	START	531435	n/a	LTP188	ltpFR	8	n/a	n/a	n/a	n/a	n/a	n/a	n/a	n/a	n/a	n/a	n/a	n/a	n/a	n/a	n/a	n/a
1063.834	n/a	PROB	531917	n/a	LTP188	ltpFR	8	n/a	n/a	n/a	n/a	n/a	n/a	n/a	18	6	8	4	n/a	n/a	n/a	n/a	n/a
1065.3	n/a	PROB	532650	n/a	LTP188	ltpFR	8	n/a	n/a	n/a	n/a	n/a	n/a	n/a	13	5	5	3	n/a	n/a	n/a	n/a	n/a
1066.646	n/a	PROB	533323	n/a	LTP188	ltpFR	8	n/a	n/a	n/a	n/a	n/a	n/a	n/a	19	4	9	7	n/a	n/a	n/a	n/a	n/a
1069.794	n/a	PROB	534897	n/a	LTP188	ltpFR	8	n/a	n/a	n/a	n/a	n/a	n/a	n/a	17	7	7	3	n/a	n/a	n/a	n/a	n/a
1073.638	n/a	PROB	536819	n/a	LTP188	ltpFR	8	n/a	n/a	n/a	n/a	n/a	n/a	n/a	19	8	8	3	n/a	n/a	n/a	n/a	n/a
1075.252	n/a	PROB	537626	n/a	LTP188	ltpFR	8	n/a	n/a	n/a	n/a	n/a	n/a	n/a	19	8	5	6	n/a	n/a	n/a	n/a	n/a
1078.142	n/a	STOP	539071	n/a	LTP188	ltpFR	8	n/a	n/a	n/a	n/a	n/a	n/a	n/a	n/a	n/a	n/a	n/a	n/a	n/a	n/a	n/a	n/a
1080.012	n/a	WORD	540006	wordpools/wasnorm_wordpool_less_exclusions.txt	LTP188	ltpFR	8	3	0	CARAVAN	242	n/a	n/a	1	n/a	0	0	0	0.422607421875	0.5869140625	0	upper	zerothre.ttf
1083.024	n/a	START	541512	n/a	LTP188	ltpFR	8	n/a	n/a	n/a	n/a	n/a	n/a	n/a	n/a	n/a	n/a	n/a	n/a	n/a	n/a	n/a	n/a
1083.838	n/a	PROB	541919	n/a	LTP188	ltpFR	8	n/a	n/a	n/a	n/a	n/a	n/a	n/a	24	8	8	8	n/a	n/a	n/a	n/a	n/a
1086.102	n/a	PROB	543051	n/a	LTP188	ltpFR	8	n/a	n/a	n/a	n/a	n/a	n/a	n/a	23	8	9	6	n/a	n/a	n/a	n/a	n/a
1092.992	n/a	PROB	546496	n/a	LTP188	ltpFR	8	n/a	n/a	n/a	n/a	n/a	n/a	n/a	14	6	2	6	n/a	n/a	n/a	n/a	n/a
1094.69	n/a	PROB	547345	n/a	LTP188	ltpFR	8	n/a	n/a	n/a	n/a	n/a	n/a	n/a	10	8	1	1	n/a	n/a	n/a	n/a	n/a
1096.004	n/a	PROB	548002	n/a	LTP188	ltpFR	8	n/a	n/a	n/a	n/a	n/a	n/a	n/a	9	3	2	4	n/a	n/a	n/a	n/a	n/a
1098.006	n/a	STOP	549003	n/a	LTP188	ltpFR	8	n/a	n/a	n/a	n/a	n/a	n/a	n/a	n/a	n/a	n/a	n/a	n/a	n/a	n/a	n/a	n/a
1099.966	n/a	WORD	549983	wordpools/wasnorm_wordpool_less_exclusions.txt	LTP188	ltpFR	8	3	0	CLAW	319	n/a	n/a	0	n/a	0	0	0	0.422607421875	0.5869140625	0	upper	zerothre.ttf
1102.978	n/a	START	551489	n/a	LTP188	ltpFR	8	n/a	n/a	n/a	n/a	n/a	n/a	n/a	n/a	n/a	n/a	n/a	n/a	n/a	n/a	n/a	n/a
1103.876	n/a	PROB	551938	n/a	LTP188	ltpFR	8	n/a	n/a	n/a	n/a	n/a	n/a	n/a	12	8	1	3	n/a	n/a	n/a	n/a	n/a
1105.79	n/a	PROB	552895	n/a	LTP188	ltpFR	8	n/a	n/a	n/a	n/a	n/a	n/a	n/a	22	8	6	8	n/a	n/a	n/a	n/a	n/a
1108.918	n/a	PROB	554459	n/a	LTP188	ltpFR	8	n/a	n/a	n/a	n/a	n/a	n/a	n/a	7	1	1	5	n/a	n/a	n/a	n/a	n/a
1110.366	n/a	PROB	555183	n/a	LTP188	ltpFR	8	n/a	n/a	n/a	n/a	n/a	n/a	n/a	21	9	4	8	n/a	n/a	n/a	n/a	n/a
1113.18	n/a	PROB	556590	n/a	LTP188	ltpFR	8	n/a	n/a	n/a	n/a	n/a	n/a	n/a	22	9	8	5	n/a	n/a	n/a	n/a	n/a
1118.978	n/a	STOP	559489	n/a	LTP188	ltpFR	8	n/a	n/a	n/a	n/a	n/a	n/a	n/a	n/a	n/a	n/a	n/a	n/a	n/a	n/a	n/a	n/a
1120.152	n/a	WORD	560076	wordpools/wasnorm_wordpool_less_exclusions.txt	LTP188	ltpFR	8	3	0	SERGEANT	1269	n/a	n/a	1	n/a	0	0	0	0.422607421875	0.5869140625	0	upper	zerothre.ttf
1123.164	n/a	START	561582	n/a	LTP188	ltpFR	8	n/a	n/a	n/a	n/a	n/a	n/a	n/a	n/a	n/a	n/a	n/a	n/a	n/a	n/a	n/a	n/a
1124.046	n/a	PROB	562023	n/a	LTP188	ltpFR	8	n/a	n/a	n/a	n/a	n/a	n/a	n/a	9	6	1	2	n/a	n/a	n/a	n/a	n/a
1126.792	n/a	PROB	563396	n/a	LTP188	ltpFR	8	n/a	n/a	n/a	n/a	n/a	n/a	n/a	13	6	5	2	n/a	n/a	n/a	n/a	n/a
1128.972	n/a	PROB	564486	n/a	LTP188	ltpFR	8	n/a	n/a	n/a	n/a	n/a	n/a	n/a	18	6	4	6	n/a	n/a	n/a	n/a	n/a
1132.184	n/a	PROB	566092	n/a	LTP188	ltpFR	8	n/a	n/a	n/a	n/a	n/a	n/a	n/a	22	5	9	8	n/a	n/a	n/a	n/a	n/a
1134.812	n/a	PROB	567406	n/a	LTP188	ltpFR	8	n/a	n/a	n/a	n/a	n/a	n/a	n/a	17	6	5	6	n/a	n/a	n/a	n/a	n/a
1138.982	n/a	STOP	569491	n/a	LTP188	ltpFR	8	n/a	n/a	n/a	n/a	n/a	n/a	n/a	n/a	n/a	n/a	n/a	n/a	n/a	n/a	n/a	n/a
1140.09	n/a	WORD	570045	wordpools/wasnorm_wordpool_less_exclusions.txt	LTP188	ltpFR	8	3	0	NOSE	957	n/a	n/a	0	n/a	0	0	0	0.422607421875	0.5869140625	0	upper	zerothre.ttf
1143.102	n/a	START	571551	n/a	LTP188	ltpFR	8	n/a	n/a	n/a	n/a	n/a	n/a	n/a	n/a	n/a	n/a	n/a	n/a	n/a	n/a	n/a	n/a
1144.018	n/a	PROB	572009	n/a	LTP188	ltpFR	8	n/a	n/a	n/a	n/a	n/a	n/a	n/a	17	3	8	6	n/a	n/a	n/a	n/a	n/a
1146.364	n/a	PROB	573182	n/a	LTP188	ltpFR	8	n/a	n/a	n/a	n/a	n/a	n/a	n/a	16	4	9	3	n/a	n/a	n/a	n/a	n/a
1150.026	n/a	PROB	575013	n/a	LTP188	ltpFR	8	n/a	n/a	n/a	n/a	n/a	n/a	n/a	24	8	8	8	n/a	n/a	n/a	n/a	n/a
1151.838	n/a	PROB	575919	n/a	LTP188	ltpFR	8	n/a	n/a	n/a	n/a	n/a	n/a	n/a	15	9	2	4	n/a	n/a	n/a	n/a	n/a
1153.618	n/a	PROB	576809	n/a	LTP188	ltpFR	8	n/a	n/a	n/a	n/a	n/a	n/a	n/a	16	6	1	9	n/a	n/a	n/a	n/a	n/a
1155.018	n/a	PROB	577509	n/a	LTP188	ltpFR	8	n/a	n/a	n/a	n/a	n/a	n/a	n/a	13	5	3	5	n/a	n/a	n/a	n/a	n/a
1159.102	n/a	STOP	579551	n/a	LTP188	ltpFR	8	n/a	n/a	n/a	n/a	n/a	n/a	n/a	n/a	n/a	n/a	n/a	n/a	n/a	n/a	n/a	n/a
1159.976	n/a	WORD	579988	wordpools/wasnorm_wordpool_less_exclusions.txt	LTP188	ltpFR	8	3	0	EYELASH	546	n/a	n/a	0	n/a	0	0	0	0.422607421875	0.5869140625	0	upper	zerothre.ttf
1162.99	n/a	START	581495	n/a	LTP188	ltpFR	8	n/a	n/a	n/a	n/a	n/a	n/a	n/a	n/a	n/a	n/a	n/a	n/a	n/a	n/a	n/a	n/a
1164.038	n/a	PROB	582019	n/a	LTP188	ltpFR	8	n/a	n/a	n/a	n/a	n/a	n/a	n/a	22	8	5	9	n/a	n/a	n/a	n/a	n/a
1167.0	n/a	PROB	583500	n/a	LTP188	ltpFR	8	n/a	n/a	n/a	n/a	n/a	n/a	n/a	12	8	1	3	n/a	n/a	n/a	n/a	n/a
1168.896	n/a	PROB	584448	n/a	LTP188	ltpFR	8	n/a	n/a	n/a	n/a	n/a	n/a	n/a	15	4	9	2	n/a	n/a	n/a	n/a	n/a
1171.226	n/a	PROB	585613	n/a	LTP188	ltpFR	8	n/a	n/a	n/a	n/a	n/a	n/a	n/a	16	8	1	7	n/a	n/a	n/a	n/a	n/a
1173.008	n/a	PROB	586504	n/a	LTP188	ltpFR	8	n/a	n/a	n/a	n/a	n/a	n/a	n/a	15	5	7	3	n/a	n/a	n/a	n/a	n/a
1174.588	n/a	PROB	587294	n/a	LTP188	ltpFR	8	n/a	n/a	n/a	n/a	n/a	n/a	n/a	1	5	5	4	n/a	n/a	n/a	n/a	n/a
1178.99	n/a	STOP	589495	n/a	LTP188	ltpFR	8	n/a	n/a	n/a	n/a	n/a	n/a	n/a	n/a	n/a	n/a	n/a	n/a	n/a	n/a	n/a	n/a
1180.13	n/a	WORD	590065	wordpools/wasnorm_wordpool_less_exclusions.txt	LTP188	ltpFR	8	3	0	CARRIAGE	248	n/a	n/a	1	n/a	0	0	0	0.422607421875	0.5869140625	0	upper	zerothre.ttf
1183.142	n/a	START	591571	n/a	LTP188	ltpFR	8	n/a	n/a	n/a	n/a	n/a	n/a	n/a	n/a	n/a	n/a	n/a	n/a	n/a	n/a	n/a	n/a
1184.158	n/a	PROB	592079	n/a	LTP188	ltpFR	8	n/a	n/a	n/a	n/a	n/a	n/a	n/a	16	3	9	4	n/a	n/a	n/a	n/a	n/a
1186.652	n/a	PROB	593326	n/a	LTP188	ltpFR	8	n/a	n/a	n/a	n/a	n/a	n/a	n/a	15	8	5	2	n/a	n/a	n/a	n/a	n/a
1188.766	n/a	PROB	594383	n/a	LTP188	ltpFR	8	n/a	n/a	n/a	n/a	n/a	n/a	n/a	12	7	2	3	n/a	n/a	n/a	n/a	n/a
1190.198	n/a	PROB	595099	n/a	LTP188	ltpFR	8	n/a	n/a	n/a	n/a	n/a	n/a	n/a	20	4	7	9	n/a	n/a	n/a	n/a	n/a
1192.994	n/a	PROB	596497	n/a	LTP188	ltpFR	8	n/a	n/a	n/a	n/a	n/a	n/a	n/a	4	1	1	2	n/a	n/a	n/a	n/a	n/a
1195.622	n/a	PROB	597811	n/a	LTP188	ltpFR	8	n/a	n/a	n/a	n/a	n/a	n/a	n/a	12	5	5	2	n/a	n/a	n/a	n/a	n/a
1199.142	n/a	STOP	599571	n/a	LTP188	ltpFR	8	n/a	n/a	n/a	n/a	n/a	n/a	n/a	n/a	n/a	n/a	n/a	n/a	n/a	n/a	n/a	n/a
1200.234	n/a	WORD	600117	wordpools/wasnorm_wordpool_less_exclusions.txt	LTP188	ltpFR	8	3	0	YARD	1630	n/a	n/a	1	n/a	0	0	0	0.422607421875	0.5869140625	0	upper	zerothre.ttf
1203.246	n/a	START	601623	n/a	LTP188	ltpFR	8	n/a	n/a	n/a	n/a	n/a	n/a	n/a	n/a	n/a	n/a	n/a	n/a	n/a	n/a	n/a	n/a
1204.178	n/a	PROB	602089	n/a	LTP188	ltpFR	8	n/a	n/a	n/a	n/a	n/a	n/a	n/a	9	3	5	1	n/a	n/a	n/a	n/a	n/a
1205.774	n/a	PROB	602887	n/a	LTP188	ltpFR	8	n/a	n/a	n/a	n/a	n/a	n/a	n/a	18	8	6	4	n/a	n/a	n/a	n/a	n/a
1207.174	n/a	PROB	603587	n/a	LTP188	ltpFR	8	n/a	n/a	n/a	n/a	n/a	n/a	n/a	25	9	7	9	n/a	n/a	n/a	n/a	n/a
1210.552	n/a	PROB	605276	n/a	LTP188	ltpFR	8	n/a	n/a	n/a	n/a	n/a	n/a	n/a	20	5	8	7	n/a	n/a	n/a	n/a	n/a
1213.216	n/a	PROB	606608	n/a	LTP188	ltpFR	8	n/a	n/a	n/a	n/a	n/a	n/a	n/a	22	7	6	9	n/a	n/a	n/a	n/a	n/a
1219.246	n/a	STOP	609623	n/a	LTP188	ltpFR	8	n/a	n/a	n/a	n/a	n/a	n/a	n/a	n/a	n/a	n/a	n/a	n/a	n/a	n/a	n/a	n/a
1221.188	n/a	REC_START	610594	n/a	LTP188	ltpFR	8	3	n/a	n/a	n/a	n/a	n/a	n/a	n/a	0	0	0	n/a	n/a	n/a	n/a	n/a
1222.564	n/a	REC_WORD	611282	wordpools/wasnorm_wordpool_less_exclusions.txt	LTP188	ltpFR	8	3	0	CARAVAN	242	n/a	n/a	1	n/a	0	0	0	n/a	n/a	n/a	n/a	n/a
1223.672	n/a	REC_WORD	611836	wordpools/wasnorm_wordpool_less_exclusions.txt	LTP188	ltpFR	8	3	0	SERGEANT	1269	n/a	n/a	1	n/a	0	0	0	n/a	n/a	n/a	n/a	n/a
1224.672	n/a	REC_WORD_VV	612336	wordpools/wasnorm_wordpool_less_exclusions.txt	LTP188	ltpFR	8	3	n/a	<>	-1	n/a	n/a	n/a	n/a	0	0	0	n/a	n/a	n/a	n/a	n/a
1328.094	n/a	WORD	664047	wordpools/wasnorm_wordpool_less_exclusions.txt	LTP188	ltpFR	8	4	0	TART	1436	n/a	n/a	0	n/a	0	0	0	0.422607421875	0.5869140625	0	upper	zerothre.ttf
1331.956	n/a	WORD	665978	wordpools/wasnorm_wordpool_less_exclusions.txt	LTP188	ltpFR	8	4	0	RAISIN	1163	n/a	n/a	0	n/a	0	0	0	0.422607421875	0.5869140625	0	upper	zerothre.ttf
1335.816	n/a	WORD	667908	wordpools/wasnorm_wordpool_less_exclusions.txt	LTP188	ltpFR	8	4	0	SHOELACE	1289	n/a	n/a	0	n/a	0	0	0	0.422607421875	0.5869140625	0	upper	zerothre.ttf
1339.726	n/a	WORD	669863	wordpools/wasnorm_wordpool_less_exclusions.txt	LTP188	ltpFR	8	4	0	HELMET	702	n/a	n/a	1	n/a	0	0	0	0.422607421875	0.5869140625	0	upper	zerothre.ttf
1343.804	n/a	WORD	671902	wordpools/wasnorm_wordpool_less_exclusions.txt	LTP188	ltpFR	8	4	0	SCROLL	1257	n/a	n/a	1	n/a	0	0	0	0.422607421875	0.5869140625	0	upper	zerothre.ttf
1347.714	n/a	WORD	673857	wordpools/wasnorm_wordpool_less_exclusions.txt	LTP188	ltpFR	8	4	0	BELT	120	n/a	n/a	0	n/a	0	0	0	0.422607421875	0.5869140625	0	upper	zerothre.ttf
1351.742	n/a	WORD	675871	wordpools/wasnorm_wordpool_less_exclusions.txt	LTP188	ltpFR	8	4	0	GUEST	669	n/a	n/a	1	n/a	0	0	0	0.422607421875	0.5869140625	0	upper	zerothre.ttf
1355.686	n/a	WORD	677843	wordpools/wasnorm_wordpool_less_exclusions.txt	LTP188	ltpFR	8	4	0	BALCONY	72	n/a	n/a	1	n/a	0	0	0	0.422607421875	0.5869140625	0	upper	zerothre.ttf
1359.58	n/a	WORD	679790	wordpools/wasnorm_wordpool_less_exclusions.txt	LTP188	ltpFR	8	4	0	ATTIC	56	n/a	n/a	1	n/a	0	0	0	0.422607421875	0.5869140625	0	upper	zerothre.ttf
1363.692	n/a	WORD	681846	wordpools/wasnorm_wordpool_less_exclusions.txt	LTP188	ltpFR	8	4	0	QUARTER	1148	n/a	n/a	0	n/a	0	0	0	0.422607421875	0.5869140625	0	upper	zerothre.ttf
1367.818	n/a	WORD	683909	wordpools/wasnorm_wordpool_less_exclusions.txt	LTP188	ltpFR	8	4	0	COLESLAW	344	n/a	n/a	1	n/a	0	0	0	0.422607421875	0.5869140625	0	upper	zerothre.ttf
1371.762	n/a	WORD	685881	wordpools/wasnorm_wordpool_less_exclusions.txt	LTP188	ltpFR	8	4	0	KITTEN	780	n/a	n/a	1	n/a	0	0	0	0.422607421875	0.5869140625	0	upper	zerothre.ttf
1375.74	n/a	WORD	687870	wordpools/wasnorm_wordpool_less_exclusions.txt	LTP188	ltpFR	8	4	0	PANTHER	1009	n/a	n/a	1	n/a	0	0	0	0.422607421875	0.5869140625	0	upper	zerothre.ttf
1379.85	n/a	WORD	689925	wordpools/wasnorm_wordpool_less_exclusions.txt	LTP188	ltpFR	8	4	0	FOE	587	n/a	n/a	1	n/a	0	0	0	0.422607421875	0.5869140625	0	upper	zerothre.ttf
1383.912	n/a	WORD	691956	wordpools/wasnorm_wordpool_less_exclusions.txt	LTP188	ltpFR	8	4	0	ENEMY	534	n/a	n/a	1	n/a	0	0	0	0.422607421875	0.5869140625	0	upper	zerothre.ttf
1387.956	n/a	WORD	693978	wordpools/wasnorm_wordpool_less_exclusions.txt	LTP188	ltpFR	8	4	0	COPIER	377	n/a	n/a	1	n/a	0	0	0	0.422607421875	0.5869140625	0	upper	zerothre.ttf
1393.846	n/a	REC_START	696923	n/a	LTP188	ltpFR	8	4	n/a	n/a	n/a	n/a	n/a	n/a	n/a	0	0	0	n/a	n/a	n/a	n/a	n/a
1394.334	n/a	REC_WORD	697167	wordpools/wasnorm_wordpool_less_exclusions.txt	LTP188	ltpFR	8	4	0	FOE	587	n/a	n/a	1	n/a	0	0	0	n/a	n/a	n/a	n/a	n/a
1395.312	n/a	REC_WORD	697656	wordpools/wasnorm_wordpool_less_exclusions.txt	LTP188	ltpFR	8	4	0	ENEMY	534	n/a	n/a	1	n/a	0	0	0	n/a	n/a	n/a	n/a	n/a
1396.086	n/a	REC_WORD	698043	wordpools/wasnorm_wordpool_less_exclusions.txt	LTP188	ltpFR	8	4	0	COPIER	377	n/a	n/a	1	n/a	0	0	0	n/a	n/a	n/a	n/a	n/a
1398.904	n/a	REC_WORD	699452	wordpools/wasnorm_wordpool_less_exclusions.txt	LTP188	ltpFR	8	4	0	SHOELACE	1289	n/a	n/a	0	n/a	0	0	0	n/a	n/a	n/a	n/a	n/a
1399.904	n/a	REC_WORD_VV	699952	wordpools/wasnorm_wordpool_less_exclusions.txt	LTP188	ltpFR	8	4	n/a	<>	-1	n/a	n/a	n/a	n/a	0	0	0	n/a	n/a	n/a	n/a	n/a
1400.396	n/a	REC_WORD	700198	wordpools/wasnorm_wordpool_less_exclusions.txt	LTP188	ltpFR	8	4	0	KITTEN	780	n/a	n/a	1	n/a	0	0	0	n/a	n/a	n/a	n/a	n/a
1502.354	n/a	START	751177	n/a	LTP188	ltpFR	8	n/a	n/a	n/a	n/a	n/a	n/a	n/a	n/a	n/a	n/a	n/a	n/a	n/a	n/a	n/a	n/a
1503.868	n/a	PROB	751934	n/a	LTP188	ltpFR	8	n/a	n/a	n/a	n/a	n/a	n/a	n/a	19	5	8	6	n/a	n/a	n/a	n/a	n/a
1507.296	n/a	PROB	753648	n/a	LTP188	ltpFR	8	n/a	n/a	n/a	n/a	n/a	n/a	n/a	16	6	8	2	n/a	n/a	n/a	n/a	n/a
1508.744	n/a	PROB	754372	n/a	LTP188	ltpFR	8	n/a	n/a	n/a	n/a	n/a	n/a	n/a	16	2	8	6	n/a	n/a	n/a	n/a	n/a
1509.98	n/a	STOP	754990	n/a	LTP188	ltpFR	8	n/a	n/a	n/a	n/a	n/a	n/a	n/a	n/a	n/a	n/a	n/a	n/a	n/a	n/a	n/a	n/a
1511.174	n/a	WORD	755587	wordpools/wasnorm_wordpool_less_exclusions.txt	LTP188	ltpFR	8	5	0	RAM	1165	n/a	n/a	1	n/a	0	0	0	0.422607421875	0.5869140625	0	upper	zerothre.ttf
1514.186	n/a	START	757093	n/a	LTP188	ltpFR	8	n/a	n/a	n/a	n/a	n/a	n/a	n/a	n/a	n/a	n/a	n/a	n/a	n/a	n/a	n/a	n/a
1515.184	n/a	PROB	757592	n/a	LTP188	ltpFR	8	n/a	n/a	n/a	n/a	n/a	n/a	n/a	16	4	7	5	n/a	n/a	n/a	n/a	n/a
1517.182	n/a	PROB	758591	n/a	LTP188	ltpFR	8	n/a	n/a	n/a	n/a	n/a	n/a	n/a	14	3	5	6	n/a	n/a	n/a	n/a	n/a
1519.212	n/a	PROB	759606	n/a	LTP188	ltpFR	8	n/a	n/a	n/a	n/a	n/a	n/a	n/a	10	2	4	4	n/a	n/a	n/a	n/a	n/a
1520.788	n/a	STOP	760394	n/a	LTP188	ltpFR	8	n/a	n/a	n/a	n/a	n/a	n/a	n/a	n/a	n/a	n/a	n/a	n/a	n/a	n/a	n/a	n/a
1523.29	n/a	WORD	761645	wordpools/wasnorm_wordpool_less_exclusions.txt	LTP188	ltpFR	8	5	0	POND	1101	n/a	n/a	1	n/a	0	0	0	0.422607421875	0.5869140625	0	upper	zerothre.ttf
1526.302	n/a	START	763151	n/a	LTP188	ltpFR	8	n/a	n/a	n/a	n/a	n/a	n/a	n/a	n/a	n/a	n/a	n/a	n/a	n/a	n/a	n/a	n/a
1527.266	n/a	PROB	763633	n/a	LTP188	ltpFR	8	n/a	n/a	n/a	n/a	n/a	n/a	n/a	14	4	6	4	n/a	n/a	n/a	n/a	n/a
1528.796	n/a	PROB	764398	n/a	LTP188	ltpFR	8	n/a	n/a	n/a	n/a	n/a	n/a	n/a	22	7	9	6	n/a	n/a	n/a	n/a	n/a
1532.192	n/a	PROB	766096	n/a	LTP188	ltpFR	8	n/a	n/a	n/a	n/a	n/a	n/a	n/a	19	5	5	9	n/a	n/a	n/a	n/a	n/a
1533.628	n/a	STOP	766814	n/a	LTP188	ltpFR	8	n/a	n/a	n/a	n/a	n/a	n/a	n/a	n/a	n/a	n/a	n/a	n/a	n/a	n/a	n/a	n/a
1535.272	n/a	WORD	767636	wordpools/wasnorm_wordpool_less_exclusions.txt	LTP188	ltpFR	8	5	0	COLT	349	n/a	n/a	1	n/a	0	0	0	0.422607421875	0.5869140625	0	upper	zerothre.ttf
1538.284	n/a	START	769142	n/a	LTP188	ltpFR	8	n/a	n/a	n/a	n/a	n/a	n/a	n/a	n/a	n/a	n/a	n/a	n/a	n/a	n/a	n/a	n/a
1539.366	n/a	PROB	769683	n/a	LTP188	ltpFR	8	n/a	n/a	n/a	n/a	n/a	n/a	n/a	11	5	2	4	n/a	n/a	n/a	n/a	n/a
1542.094	n/a	PROB	771047	n/a	LTP188	ltpFR	8	n/a	n/a	n/a	n/a	n/a	n/a	n/a	9	5	3	1	n/a	n/a	n/a	n/a	n/a
1543.742	n/a	PROB	771871	n/a	LTP188	ltpFR	8	n/a	n/a	n/a	n/a	n/a	n/a	n/a	12	2	6	4	n/a	n/a	n/a	n/a	n/a
1544.924	n/a	STOP	772462	n/a	LTP188	ltpFR	8	n/a	n/a	n/a	n/a	n/a	n/a	n/a	n/a	n/a	n/a	n/a	n/a	n/a	n/a	n/a	n/a
1547.27	n/a	WORD	773635	wordpools/wasnorm_wordpool_less_exclusions.txt	LTP188	ltpFR	8	5	0	LIME	823	n/a	n/a	0	n/a	0	0	0	0.422607421875	0.5869140625	0	upper	zerothre.ttf
1550.282	n/a	START	775141	n/a	LTP188	ltpFR	8	n/a	n/a	n/a	n/a	n/a	n/a	n/a	n/a	n/a	n/a	n/a	n/a	n/a	n/a	n/a	n/a
1551.182	n/a	PROB	775591	n/a	LTP188	ltpFR	8	n/a	n/a	n/a	n/a	n/a	n/a	n/a	25	9	8	8	n/a	n/a	n/a	n/a	n/a
1555.906	n/a	PROB	777953	n/a	LTP188	ltpFR	8	n/a	n/a	n/a	n/a	n/a	n/a	n/a	16	8	1	7	n/a	n/a	n/a	n/a	n/a
1557.86	n/a	STOP	778930	n/a	LTP188	ltpFR	8	n/a	n/a	n/a	n/a	n/a	n/a	n/a	n/a	n/a	n/a	n/a	n/a	n/a	n/a	n/a	n/a
1559.236	n/a	WORD	779618	wordpools/wasnorm_wordpool_less_exclusions.txt	LTP188	ltpFR	8	5	0	CHEF	290	n/a	n/a	1	n/a	0	0	0	0.422607421875	0.5869140625	0	upper	zerothre.ttf
1562.248	n/a	START	781124	n/a	LTP188	ltpFR	8	n/a	n/a	n/a	n/a	n/a	n/a	n/a	n/a	n/a	n/a	n/a	n/a	n/a	n/a	n/a	n/a
1563.146	n/a	PROB	781573	n/a	LTP188	ltpFR	8	n/a	n/a	n/a	n/a	n/a	n/a	n/a	20	9	8	3	n/a	n/a	n/a	n/a	n/a
1565.576	n/a	PROB	782788	n/a	LTP188	ltpFR	8	n/a	n/a	n/a	n/a	n/a	n/a	n/a	24	8	7	9	n/a	n/a	n/a	n/a	n/a
1569.39	n/a	STOP	784695	n/a	LTP188	ltpFR	8	n/a	n/a	n/a	n/a	n/a	n/a	n/a	n/a	n/a	n/a	n/a	n/a	n/a	n/a	n/a	n/a
1571.318	n/a	WORD	785659	wordpools/wasnorm_wordpool_less_exclusions.txt	LTP188	ltpFR	8	5	0	BLANKET	135	n/a	n/a	0	n/a	0	0	0	0.422607421875	0.5869140625	0	upper	zerothre.ttf
1574.332	n/a	START	787166	n/a	LTP188	ltpFR	8	n/a	n/a	n/a	n/a	n/a	n/a	n/a	n/a	n/a	n/a	n/a	n/a	n/a	n/a	n/a	n/a
1575.146	n/a	PROB	787573	n/a	LTP188	ltpFR	8	n/a	n/a	n/a	n/a	n/a	n/a	n/a	14	2	5	7	n/a	n/a	n/a	n/a	n/a
1578.308	n/a	PROB	789154	n/a	LTP188	ltpFR	8	n/a	n/a	n/a	n/a	n/a	n/a	n/a	13	8	2	3	n/a	n/a	n/a	n/a	n/a
1582.332	n/a	STOP	791166	n/a	LTP188	ltpFR	8	n/a	n/a	n/a	n/a	n/a	n/a	n/a	n/a	n/a	n/a	n/a	n/a	n/a	n/a	n/a	n/a
1583.15	n/a	WORD	791575	wordpools/wasnorm_wordpool_less_exclusions.txt	LTP188	ltpFR	8	5	1	BUCKLE	185	n/a	n/a	n/a	n/a	0	0	0	0.57763671875	0.412841796875	1	lower	amplitud.ttf
1586.18	n/a	SLOW_MSG	793090	n/a	LTP188	ltpFR	8	5	n/a	n/a	n/a	n/a	n/a	n/a	n/a	0	0	0	n/a	n/a	n/a	n/a	n/a
1587.71	n/a	START	793855	n/a	LTP188	ltpFR	8	n/a	n/a	n/a	n/a	n/a	n/a	n/a	n/a	n/a	n/a	n/a	n/a	n/a	n/a	n/a	n/a
1588.824	n/a	PROB	794412	n/a	LTP188	ltpFR	8	n/a	n/a	n/a	n/a	n/a	n/a	n/a	21	5	8	9	n/a	n/a	n/a	n/a	n/a
1591.288	n/a	PROB	795644	n/a	LTP188	ltpFR	8	n/a	n/a	n/a	n/a	n/a	n/a	n/a	11	5	3	3	n/a	n/a	n/a	n/a	n/a
1594.374	n/a	STOP	797187	n/a	LTP188	ltpFR	8	n/a	n/a	n/a	n/a	n/a	n/a	n/a	n/a	n/a	n/a	n/a	n/a	n/a	n/a	n/a	n/a
1596.58	n/a	WORD	798290	wordpools/wasnorm_wordpool_less_exclusions.txt	LTP188	ltpFR	8	5	1	SUIT	1402	n/a	n/a	0	n/a	0	0	0	0.57763671875	0.412841796875	1	lower	amplitud.ttf
1599.592	n/a	START	799796	n/a	LTP188	ltpFR	8	n/a	n/a	n/a	n/a	n/a	n/a	n/a	n/a	n/a	n/a	n/a	n/a	n/a	n/a	n/a	n/a
1600.756	n/a	PROB	800378	n/a	LTP188	ltpFR	8	n/a	n/a	n/a	n/a	n/a	n/a	n/a	16	7	7	2	n/a	n/a	n/a	n/a	n/a
1602.506	n/a	PROB	801253	n/a	LTP188	ltpFR	8	n/a	n/a	n/a	n/a	n/a	n/a	n/a	11	7	1	3	n/a	n/a	n/a	n/a	n/a
1603.702	n/a	PROB	801851	n/a	LTP188	ltpFR	8	n/a	n/a	n/a	n/a	n/a	n/a	n/a	21	9	5	8	n/a	n/a	n/a	n/a	n/a
1606.23	n/a	STOP	803115	n/a	LTP188	ltpFR	8	n/a	n/a	n/a	n/a	n/a	n/a	n/a	n/a	n/a	n/a	n/a	n/a	n/a	n/a	n/a	n/a
1608.762	n/a	WORD	804381	wordpools/wasnorm_wordpool_less_exclusions.txt	LTP188	ltpFR	8	5	1	ZEBRA	1635	n/a	n/a	1	n/a	0	0	0	0.57763671875	0.412841796875	1	lower	amplitud.ttf
1611.774	n/a	START	805887	n/a	LTP188	ltpFR	8	n/a	n/a	n/a	n/a	n/a	n/a	n/a	n/a	n/a	n/a	n/a	n/a	n/a	n/a	n/a	n/a
1612.856	n/a	PROB	806428	n/a	LTP188	ltpFR	8	n/a	n/a	n/a	n/a	n/a	n/a	n/a	8	5	1	2	n/a	n/a	n/a	n/a	n/a
1614.702	n/a	PROB	807351	n/a	LTP188	ltpFR	8	n/a	n/a	n/a	n/a	n/a	n/a	n/a	16	3	9	4	n/a	n/a	n/a	n/a	n/a
1617.3	n/a	PROB	808650	n/a	LTP188	ltpFR	8	n/a	n/a	n/a	n/a	n/a	n/a	n/a	8	3	3	2	n/a	n/a	n/a	n/a	n/a
1619.454	n/a	STOP	809727	n/a	LTP188	ltpFR	8	n/a	n/a	n/a	n/a	n/a	n/a	n/a	n/a	n/a	n/a	n/a	n/a	n/a	n/a	n/a	n/a
1620.844	n/a	WORD	810422	wordpools/wasnorm_wordpool_less_exclusions.txt	LTP188	ltpFR	8	5	1	BUGGY	188	n/a	n/a	0	n/a	0	0	0	0.57763671875	0.412841796875	1	lower	amplitud.ttf
1623.856	n/a	START	811928	n/a	LTP188	ltpFR	8	n/a	n/a	n/a	n/a	n/a	n/a	n/a	n/a	n/a	n/a	n/a	n/a	n/a	n/a	n/a	n/a
1624.956	n/a	PROB	812478	n/a	LTP188	ltpFR	8	n/a	n/a	n/a	n/a	n/a	n/a	n/a	17	7	8	2	n/a	n/a	n/a	n/a	n/a
1626.834	n/a	PROB	813417	n/a	LTP188	ltpFR	8	n/a	n/a	n/a	n/a	n/a	n/a	n/a	13	5	7	1	n/a	n/a	n/a	n/a	n/a
1629.066	n/a	PROB	814533	n/a	LTP188	ltpFR	8	n/a	n/a	n/a	n/a	n/a	n/a	n/a	17	7	2	8	n/a	n/a	n/a	n/a	n/a
1630.684	n/a	STOP	815342	n/a	LTP188	ltpFR	8	n/a	n/a	n/a	n/a	n/a	n/a	n/a	n/a	n/a	n/a	n/a	n/a	n/a	n/a	n/a	n/a
1633.06	n/a	WORD	816530	wordpools/wasnorm_wordpool_less_exclusions.txt	LTP188	ltpFR	8	5	1	SARDINE	1235	n/a	n/a	1	n/a	0	0	0	0.57763671875	0.412841796875	1	lower	amplitud.ttf
1636.072	n/a	START	818036	n/a	LTP188	ltpFR	8	n/a	n/a	n/a	n/a	n/a	n/a	n/a	n/a	n/a	n/a	n/a	n/a	n/a	n/a	n/a	n/a
1637.186	n/a	PROB	818593	n/a	LTP188	ltpFR	8	n/a	n/a	n/a	n/a	n/a	n/a	n/a	18	3	7	8	n/a	n/a	n/a	n/a	n/a
1639.784	n/a	PROB	819892	n/a	LTP188	ltpFR	8	n/a	n/a	n/a	n/a	n/a	n/a	n/a	10	4	1	5	n/a	n/a	n/a	n/a	n/a
1641.282	n/a	PROB	820641	n/a	LTP188	ltpFR	8	n/a	n/a	n/a	n/a	n/a	n/a	n/a	12	8	1	3	n/a	n/a	n/a	n/a	n/a
1642.774	n/a	STOP	821387	n/a	LTP188	ltpFR	8	n/a	n/a	n/a	n/a	n/a	n/a	n/a	n/a	n/a	n/a	n/a	n/a	n/a	n/a	n/a	n/a
1645.126	n/a	WORD	822563	wordpools/wasnorm_wordpool_less_exclusions.txt	LTP188	ltpFR	8	5	1	FLASK	576	n/a	n/a	0	n/a	0	0	0	0.57763671875	0.412841796875	1	lower	amplitud.ttf
1648.138	n/a	START	824069	n/a	LTP188	ltpFR	8	n/a	n/a	n/a	n/a	n/a	n/a	n/a	n/a	n/a	n/a	n/a	n/a	n/a	n/a	n/a	n/a
1649.236	n/a	PROB	824618	n/a	LTP188	ltpFR	8	n/a	n/a	n/a	n/a	n/a	n/a	n/a	13	5	5	3	n/a	n/a	n/a	n/a	n/a
1650.95	n/a	PROB	825475	n/a	LTP188	ltpFR	8	n/a	n/a	n/a	n/a	n/a	n/a	n/a	19	8	8	3	n/a	n/a	n/a	n/a	n/a
1652.698	n/a	PROB	826349	n/a	LTP188	ltpFR	8	n/a	n/a	n/a	n/a	n/a	n/a	n/a	12	2	2	8	n/a	n/a	n/a	n/a	n/a
1656.138	n/a	STOP	828069	n/a	LTP188	ltpFR	8	n/a	n/a	n/a	n/a	n/a	n/a	n/a	n/a	n/a	n/a	n/a	n/a	n/a	n/a	n/a	n/a
1657.292	n/a	WORD	828646	wordpools/wasnorm_wordpool_less_exclusions.txt	LTP188	ltpFR	8	5	0	ORCHESTRA	981	n/a	n/a	1	n/a	0	0	0	0.422607421875	0.5869140625	0	upper	zerothre.ttf
1660.304	n/a	START	830152	n/a	LTP188	ltpFR	8	n/a	n/a	n/a	n/a	n/a	n/a	n/a	n/a	n/a	n/a	n/a	n/a	n/a	n/a	n/a	n/a
1661.452	n/a	PROB	830726	n/a	LTP188	ltpFR	8	n/a	n/a	n/a	n/a	n/a	n/a	n/a	13	7	2	4	n/a	n/a	n/a	n/a	n/a
1663.73	n/a	PROB	831865	n/a	LTP188	ltpFR	8	n/a	n/a	n/a	n/a	n/a	n/a	n/a	10	2	6	2	n/a	n/a	n/a	n/a	n/a
1668.304	n/a	STOP	834152	n/a	LTP188	ltpFR	8	n/a	n/a	n/a	n/a	n/a	n/a	n/a	n/a	n/a	n/a	n/a	n/a	n/a	n/a	n/a	n/a
1669.34	n/a	WORD	834670	wordpools/wasnorm_wordpool_less_exclusions.txt	LTP188	ltpFR	8	5	0	PIANO	1057	n/a	n/a	1	n/a	0	0	0	0.422607421875	0.5869140625	0	upper	zerothre.ttf
1672.352	n/a	START	836176	n/a	LTP188	ltpFR	8	n/a	n/a	n/a	n/a	n/a	n/a	n/a	n/a	n/a	n/a	n/a	n/a	n/a	n/a	n/a	n/a
1673.334	n/a	PROB	836667	n/a	LTP188	ltpFR	8	n/a	n/a	n/a	n/a	n/a	n/a	n/a	18	2	9	7	n/a	n/a	n/a	n/a	n/a
1675.662	n/a	PROB	837831	n/a	LTP188	ltpFR	8	n/a	n/a	n/a	n/a	n/a	n/a	n/a	16	7	3	4	n/a	n/a	n/a	n/a	n/a
1680.352	n/a	STOP	840176	n/a	LTP188	ltpFR	8	n/a	n/a	n/a	n/a	n/a	n/a	n/a	n/a	n/a	n/a	n/a	n/a	n/a	n/a	n/a	n/a
1681.422	n/a	WORD	840711	wordpools/wasnorm_wordpool_less_exclusions.txt	LTP188	ltpFR	8	5	1	STALLION	1369	n/a	n/a	1	n/a	0	0	0	0.57763671875	0.412841796875	1	lower	amplitud.ttf
1684.434	n/a	START	842217	n/a	LTP188	ltpFR	8	n/a	n/a	n/a	n/a	n/a	n/a	n/a	n/a	n/a	n/a	n/a	n/a	n/a	n/a	n/a	n/a
1685.566	n/a	PROB	842783	n/a	LTP188	ltpFR	8	n/a	n/a	n/a	n/a	n/a	n/a	n/a	13	5	7	1	n/a	n/a	n/a	n/a	n/a
1687.762	n/a	PROB	843881	n/a	LTP188	ltpFR	8	n/a	n/a	n/a	n/a	n/a	n/a	n/a	17	1	9	7	n/a	n/a	n/a	n/a	n/a
1689.41	n/a	PROB	844705	n/a	LTP188	ltpFR	8	n/a	n/a	n/a	n/a	n/a	n/a	n/a	20	4	8	8	n/a	n/a	n/a	n/a	n/a
1691.094	n/a	STOP	845547	n/a	LTP188	ltpFR	8	n/a	n/a	n/a	n/a	n/a	n/a	n/a	n/a	n/a	n/a	n/a	n/a	n/a	n/a	n/a	n/a
1693.42	n/a	WORD	846710	wordpools/wasnorm_wordpool_less_exclusions.txt	LTP188	ltpFR	8	5	1	CANDY	230	n/a	n/a	0	n/a	0	0	0	0.57763671875	0.412841796875	1	lower	amplitud.ttf
1696.434	n/a	START	848217	n/a	LTP188	ltpFR	8	n/a	n/a	n/a	n/a	n/a	n/a	n/a	n/a	n/a	n/a	n/a	n/a	n/a	n/a	n/a	n/a
1697.482	n/a	PROB	848741	n/a	LTP188	ltpFR	8	n/a	n/a	n/a	n/a	n/a	n/a	n/a	18	8	8	2	n/a	n/a	n/a	n/a	n/a
1700.11	n/a	PROB	850055	n/a	LTP188	ltpFR	8	n/a	n/a	n/a	n/a	n/a	n/a	n/a	12	1	9	2	n/a	n/a	n/a	n/a	n/a
1701.476	n/a	PROB	850738	n/a	LTP188	ltpFR	8	n/a	n/a	n/a	n/a	n/a	n/a	n/a	17	9	4	4	n/a	n/a	n/a	n/a	n/a
1704.262	n/a	STOP	852131	n/a	LTP188	ltpFR	8	n/a	n/a	n/a	n/a	n/a	n/a	n/a	n/a	n/a	n/a	n/a	n/a	n/a	n/a	n/a	n/a
1706.286	n/a	REC_START	853143	n/a	LTP188	ltpFR	8	5	n/a	n/a	n/a	n/a	n/a	n/a	n/a	0	0	0	n/a	n/a	n/a	n/a	n/a
1707.132	n/a	REC_WORD	853566	wordpools/wasnorm_wordpool_less_exclusions.txt	LTP188	ltpFR	8	5	1	STALLION	1369	n/a	n/a	1	n/a	0	0	0	n/a	n/a	n/a	n/a	n/a
1708.132	n/a	REC_WORD_VV	854066	wordpools/wasnorm_wordpool_less_exclusions.txt	LTP188	ltpFR	8	5	n/a	<>	-1	n/a	n/a	n/a	n/a	0	0	0	n/a	n/a	n/a	n/a	n/a
1714.826	n/a	REC_WORD	857413	wordpools/wasnorm_wordpool_less_exclusions.txt	LTP188	ltpFR	8	5	0	ORCHESTRA	981	n/a	n/a	1	n/a	0	0	0	n/a	n/a	n/a	n/a	n/a
1791.426	n/a	WORD	895713	wordpools/wasnorm_wordpool_less_exclusions.txt	LTP188	ltpFR	8	6	1	MEAT	883	n/a	n/a	0	n/a	0	0	0	0.57763671875	0.412841796875	1	lower	amplitud.ttf
1795.454	n/a	WORD	897727	wordpools/wasnorm_wordpool_less_exclusions.txt	LTP188	ltpFR	8	6	1	YOLK	1633	n/a	n/a	0	n/a	0	0	0	0.57763671875	0.412841796875	1	lower	amplitud.ttf
1799.614	n/a	WORD	899807	wordpools/wasnorm_wordpool_less_exclusions.txt	LTP188	ltpFR	8	6	1	SACK	1220	n/a	n/a	0	n/a	0	0	0	0.57763671875	0.412841796875	1	lower	amplitud.ttf
1803.824	n/a	WORD	901912	wordpools/wasnorm_wordpool_less_exclusions.txt	LTP188	ltpFR	8	6	1	CHIPMUNK	304	n/a	n/a	1	n/a	0	0	0	0.57763671875	0.412841796875	1	lower	amplitud.ttf
1808.034	n/a	WORD	904017	wordpools/wasnorm_wordpool_less_exclusions.txt	LTP188	ltpFR	8	6	1	DETECTIVE	454	n/a	n/a	1	n/a	0	0	0	0.57763671875	0.412841796875	1	lower	amplitud.ttf
1811.894	n/a	WORD	905947	wordpools/wasnorm_wordpool_less_exclusions.txt	LTP188	ltpFR	8	6	1	ARMY	39	n/a	n/a	1	n/a	0	0	0	0.57763671875	0.412841796875	1	lower	amplitud.ttf
1815.806	n/a	WORD	907903	wordpools/wasnorm_wordpool_less_exclusions.txt	LTP188	ltpFR	8	6	1	CHEEK	287	n/a	n/a	1	n/a	0	0	0	0.57763671875	0.412841796875	1	lower	amplitud.ttf
1819.782	n/a	WORD	909891	wordpools/wasnorm_wordpool_less_exclusions.txt	LTP188	ltpFR	8	6	1	POTATO	1115	n/a	n/a	0	n/a	0	0	0	0.57763671875	0.412841796875	1	lower	amplitud.ttf
1823.994	n/a	WORD	911997	wordpools/wasnorm_wordpool_less_exclusions.txt	LTP188	ltpFR	8	6	1	SCAPEGOAT	1244	n/a	n/a	0	n/a	0	0	0	0.57763671875	0.412841796875	1	lower	amplitud.ttf
1827.838	n/a	WORD	913919	wordpools/wasnorm_wordpool_less_exclusions.txt	LTP188	ltpFR	8	6	1	VISITOR	1573	n/a	n/a	1	n/a	0	0	0	0.57763671875	0.412841796875	1	lower	amplitud.ttf
1831.898	n/a	WORD	915949	wordpools/wasnorm_wordpool_less_exclusions.txt	LTP188	ltpFR	8	6	1	ROOMMATE	1207	n/a	n/a	1	n/a	0	0	0	0.57763671875	0.412841796875	1	lower	amplitud.ttf
1836.01	n/a	WORD	918005	wordpools/wasnorm_wordpool_less_exclusions.txt	LTP188	ltpFR	8	6	1	ROOSTER	1209	n/a	n/a	1	n/a	0	0	0	0.57763671875	0.412841796875	1	lower	amplitud.ttf
1840.154	n/a	WORD	920077	wordpools/wasnorm_wordpool_less_exclusions.txt	LTP188	ltpFR	8	6	1	MUG	930	n/a	n/a	0	n/a	0	0	0	0.57763671875	0.412841796875	1	lower	amplitud.ttf
1844.314	n/a	WORD	922157	wordpools/wasnorm_wordpool_less_exclusions.txt	LTP188	ltpFR	8	6	1	KEG	770	n/a	n/a	0	n/a	0	0	0	0.57763671875	0.412841796875	1	lower	amplitud.ttf
1848.292	n/a	WORD	924146	wordpools/wasnorm_wordpool_less_exclusions.txt	LTP188	ltpFR	8	6	1	BEEF	113	n/a	n/a	0	n/a	0	0	0	0.57763671875	0.412841796875	1	lower	amplitud.ttf
1852.452	n/a	WORD	926226	wordpools/wasnorm_wordpool_less_exclusions.txt	LTP188	ltpFR	8	6	1	ORCHID	982	n/a	n/a	1	n/a	0	0	0	0.57763671875	0.412841796875	1	lower	amplitud.ttf
1855.466	n/a	START	927733	n/a	LTP188	ltpFR	8	n/a	n/a	n/a	n/a	n/a	n/a	n/a	n/a	n/a	n/a	n/a	n/a	n/a	n/a	n/a	n/a
1856.48	n/a	PROB	928240	n/a	LTP188	ltpFR	8	n/a	n/a	n/a	n/a	n/a	n/a	n/a	18	9	8	1	n/a	n/a	n/a	n/a	n/a
1860.024	n/a	PROB	930012	n/a	LTP188	ltpFR	8	n/a	n/a	n/a	n/a	n/a	n/a	n/a	13	6	3	4	n/a	n/a	n/a	n/a	n/a
1861.936	n/a	STOP	930968	n/a	LTP188	ltpFR	8	n/a	n/a	n/a	n/a	n/a	n/a	n/a	n/a	n/a	n/a	n/a	n/a	n/a	n/a	n/a	n/a
1865.4	n/a	REC_START	932700	n/a	LTP188	ltpFR	8	6	n/a	n/a	n/a	n/a	n/a	n/a	n/a	0	0	0	n/a	n/a	n/a	n/a	n/a
1866.034	n/a	REC_WORD	933017	wordpools/wasnorm_wordpool_less_exclusions.txt	LTP188	ltpFR	8	6	1	SCAPEGOAT	1244	n/a	n/a	0	n/a	0	0	0	n/a	n/a	n/a	n/a	n/a
1867.034	n/a	REC_WORD_VV	933517	wordpools/wasnorm_wordpool_less_exclusions.txt	LTP188	ltpFR	8	6	n/a	<>	-1	n/a	n/a	n/a	n/a	0	0	0	n/a	n/a	n/a	n/a	n/a
1874.106	n/a	REC_WORD	937053	wordpools/wasnorm_wordpool_less_exclusions.txt	LTP188	ltpFR	8	6	1	POTATO	1115	n/a	n/a	0	n/a	0	0	0	n/a	n/a	n/a	n/a	n/a
1877.114	n/a	REC_WORD	938557	wordpools/wasnorm_wordpool_less_exclusions.txt	LTP188	ltpFR	8	6	1	VISITOR	1573	n/a	n/a	1	n/a	0	0	0	n/a	n/a	n/a	n/a	n/a
1878.026	n/a	REC_WORD	939013	wordpools/wasnorm_wordpool_less_exclusions.txt	LTP188	ltpFR	8	6	1	ROOMMATE	1207	n/a	n/a	1	n/a	0	0	0	n/a	n/a	n/a	n/a	n/a
1974.67	n/a	WORD	987335	wordpools/wasnorm_wordpool_less_exclusions.txt	LTP188	ltpFR	8	7	0	MAPLE	866	n/a	n/a	0	n/a	0	0	0	0.422607421875	0.5869140625	0	upper	zerothre.ttf
1978.698	n/a	WORD	989349	wordpools/wasnorm_wordpool_less_exclusions.txt	LTP188	ltpFR	8	7	0	TREE	1502	n/a	n/a	1	n/a	0	0	0	0.422607421875	0.5869140625	0	upper	zerothre.ttf
1982.742	n/a	WORD	991371	wordpools/wasnorm_wordpool_less_exclusions.txt	LTP188	ltpFR	8	7	0	DILL	465	n/a	n/a	0	n/a	0	0	0	0.422607421875	0.5869140625	0	upper	zerothre.ttf
1986.818	n/a	WORD	993409	wordpools/wasnorm_wordpool_less_exclusions.txt	LTP188	ltpFR	8	7	0	GRILL	661	n/a	n/a	1	n/a	0	0	0	0.422607421875	0.5869140625	0	upper	zerothre.ttf
1990.93	n/a	WORD	995465	wordpools/wasnorm_wordpool_less_exclusions.txt	LTP188	ltpFR	8	7	0	ANGEL	22	n/a	n/a	1	n/a	0	0	0	0.422607421875	0.5869140625	0	upper	zerothre.ttf
1995.026	n/a	WORD	997513	wordpools/wasnorm_wordpool_less_exclusions.txt	LTP188	ltpFR	8	7	0	DESSERT	453	n/a	n/a	0	n/a	0	0	0	0.422607421875	0.5869140625	0	upper	zerothre.ttf
1999.186	n/a	WORD	999593	wordpools/wasnorm_wordpool_less_exclusions.txt	LTP188	ltpFR	8	7	0	FRIES	607	n/a	n/a	0	n/a	0	0	0	0.422607421875	0.5869140625	0	upper	zerothre.ttf
2003.312	n/a	WORD	1001656	wordpools/wasnorm_wordpool_less_exclusions.txt	LTP188	ltpFR	8	7	0	HAIL	676	n/a	n/a	0	n/a	0	0	0	0.422607421875	0.5869140625	0	upper	zerothre.ttf
2007.324	n/a	WORD	1003662	wordpools/wasnorm_wordpool_less_exclusions.txt	LTP188	ltpFR	8	7	0	REINDEER	1181	n/a	n/a	1	n/a	0	0	0	0.422607421875	0.5869140625	0	upper	zerothre.ttf
2011.534	n/a	WORD	1005767	wordpools/wasnorm_wordpool_less_exclusions.txt	LTP188	ltpFR	8	7	0	ELK	526	n/a	n/a	1	n/a	0	0	0	0.422607421875	0.5869140625	0	upper	zerothre.ttf
2015.428	n/a	WORD	1007714	wordpools/wasnorm_wordpool_less_exclusions.txt	LTP188	ltpFR	8	7	0	PICNIC	1060	n/a	n/a	0	n/a	0	0	0	0.422607421875	0.5869140625	0	upper	zerothre.ttf
2019.406	n/a	WORD	1009703	wordpools/wasnorm_wordpool_less_exclusions.txt	LTP188	ltpFR	8	7	0	RECIPE	1175	n/a	n/a	0	n/a	0	0	0	0.422607421875	0.5869140625	0	upper	zerothre.ttf
2023.598	n/a	WORD	1011799	wordpools/wasnorm_wordpool_less_exclusions.txt	LTP188	ltpFR	8	7	0	DINNER	468	n/a	n/a	0	n/a	0	0	0	0.422607421875	0.5869140625	0	upper	zerothre.ttf
2027.56	n/a	WORD	1013780	wordpools/wasnorm_wordpool_less_exclusions.txt	LTP188	ltpFR	8	7	0	DIME	466	n/a	n/a	0	n/a	0	0	0	0.422607421875	0.5869140625	0	upper	zerothre.ttf
2031.554	n/a	WORD	1015777	wordpools/wasnorm_wordpool_less_exclusions.txt	LTP188	ltpFR	8	7	0	TOENAIL	1474	n/a	n/a	0	n/a	0	0	0	0.422607421875	0.5869140625	0	upper	zerothre.ttf
2035.764	n/a	WORD	1017882	wordpools/wasnorm_wordpool_less_exclusions.txt	LTP188	ltpFR	8	7	0	REFRIGERATOR	1179	n/a	n/a	1	n/a	0	0	0	0.422607421875	0.5869140625	0	upper	zerothre.ttf
2038.776	n/a	START	1019388	n/a	LTP188	ltpFR	8	n/a	n/a	n/a	n/a	n/a	n/a	n/a	n/a	n/a	n/a	n/a	n/a	n/a	n/a	n/a	n/a
2039.974	n/a	PROB	1019987	n/a	LTP188	ltpFR	8	n/a	n/a	n/a	n/a	n/a	n/a	n/a	16	6	1	9	n/a	n/a	n/a	n/a	n/a
2043.22	n/a	PROB	1021610	n/a	LTP188	ltpFR	8	n/a	n/a	n/a	n/a	n/a	n/a	n/a	17	7	1	9	n/a	n/a	n/a	n/a	n/a
2044.716	n/a	PROB	1022358	n/a	LTP188	ltpFR	8	n/a	n/a	n/a	n/a	n/a	n/a	n/a	13	1	3	9	n/a	n/a	n/a	n/a	n/a
2046.366	n/a	PROB	1023183	n/a	LTP188	ltpFR	8	n/a	n/a	n/a	n/a	n/a	n/a	n/a	14	9	1	4	n/a	n/a	n/a	n/a	n/a
2047.58	n/a	PROB	1023790	n/a	LTP188	ltpFR	8	n/a	n/a	n/a	n/a	n/a	n/a	n/a	21	9	9	3	n/a	n/a	n/a	n/a	n/a
2049.31	n/a	PROB	1024655	n/a	LTP188	ltpFR	8	n/a	n/a	n/a	n/a	n/a	n/a	n/a	7	1	1	5	n/a	n/a	n/a	n/a	n/a
2050.908	n/a	PROB	1025454	n/a	LTP188	ltpFR	8	n/a	n/a	n/a	n/a	n/a	n/a	n/a	17	5	5	7	n/a	n/a	n/a	n/a	n/a
2052.24	n/a	PROB	1026120	n/a	LTP188	ltpFR	8	n/a	n/a	n/a	n/a	n/a	n/a	n/a	16	5	1	8	n/a	n/a	n/a	n/a	n/a
2053.948	n/a	STOP	1026974	n/a	LTP188	ltpFR	8	n/a	n/a	n/a	n/a	n/a	n/a	n/a	n/a	n/a	n/a	n/a	n/a	n/a	n/a	n/a	n/a
2056.582	n/a	REC_START	1028291	n/a	LTP188	ltpFR	8	7	n/a	n/a	n/a	n/a	n/a	n/a	n/a	0	0	0	n/a	n/a	n/a	n/a	n/a
2063.818	n/a	REC_WORD_VV	1031909	wordpools/wasnorm_wordpool_less_exclusions.txt	LTP188	ltpFR	8	7	n/a	<>	-1	n/a	n/a	n/a	n/a	0	0	0	n/a	n/a	n/a	n/a	n/a
2077.79	n/a	REC_WORD	1038895	wordpools/wasnorm_wordpool_less_exclusions.txt	LTP188	ltpFR	8	7	0	MAPLE	866	n/a	n/a	0	n/a	0	0	0	n/a	n/a	n/a	n/a	n/a
2078.654	n/a	REC_WORD	1039327	wordpools/wasnorm_wordpool_less_exclusions.txt	LTP188	ltpFR	8	7	0	TREE	1502	n/a	n/a	1	n/a	0	0	0	n/a	n/a	n/a	n/a	n/a
2079.62	n/a	REC_WORD	1039810	wordpools/wasnorm_wordpool_less_exclusions.txt	LTP188	ltpFR	8	7	0	DILL	465	n/a	n/a	0	n/a	0	0	0	n/a	n/a	n/a	n/a	n/a
2080.374	n/a	REC_WORD	1040187	wordpools/wasnorm_wordpool_less_exclusions.txt	LTP188	ltpFR	8	7	0	GRILL	661	n/a	n/a	1	n/a	0	0	0	n/a	n/a	n/a	n/a	n/a
2096.884	n/a	REC_WORD	1048442	wordpools/wasnorm_wordpool_less_exclusions.txt	LTP188	ltpFR	8	7	0	ELK	526	n/a	n/a	1	n/a	0	0	0	n/a	n/a	n/a	n/a	n/a
2098.348	n/a	REC_WORD	1049174	wordpools/wasnorm_wordpool_less_exclusions.txt	LTP188	ltpFR	8	7	0	REINDEER	1181	n/a	n/a	1	n/a	0	0	0	n/a	n/a	n/a	n/a	n/a
2148.048	n/a	WORD	1074024	wordpools/wasnorm_wordpool_less_exclusions.txt	LTP188	ltpFR	8	8	1	VEAL	1551	n/a	n/a	0	n/a	0	0	0	0.57763671875	0.412841796875	1	lower	amplitud.ttf
2152.042	n/a	WORD	1076021	wordpools/wasnorm_wordpool_less_exclusions.txt	LTP188	ltpFR	8	8	1	BLENDER	136	n/a	n/a	0	n/a	0	0	0	0.57763671875	0.412841796875	1	lower	amplitud.ttf
2156.07	n/a	WORD	1078035	wordpools/wasnorm_wordpool_less_exclusions.txt	LTP188	ltpFR	8	8	1	LEOPARD	812	n/a	n/a	1	n/a	0	0	0	0.57763671875	0.412841796875	1	lower	amplitud.ttf
2159.998	n/a	WORD	1079999	wordpools/wasnorm_wordpool_less_exclusions.txt	LTP188	ltpFR	8	8	1	COYOTE	396	n/a	n/a	1	n/a	0	0	0	0.57763671875	0.412841796875	1	lower	amplitud.ttf
2163.958	n/a	WORD	1081979	wordpools/wasnorm_wordpool_less_exclusions.txt	LTP188	ltpFR	8	8	1	BAND	78	n/a	n/a	0	n/a	0	0	0	0.57763671875	0.412841796875	1	lower	amplitud.ttf
2167.818	n/a	WORD	1083909	wordpools/wasnorm_wordpool_less_exclusions.txt	LTP188	ltpFR	8	8	1	ALBUM	14	n/a	n/a	0	n/a	0	0	0	0.57763671875	0.412841796875	1	lower	amplitud.ttf
2171.996	n/a	WORD	1085998	wordpools/wasnorm_wordpool_less_exclusions.txt	LTP188	ltpFR	8	8	1	SPATULA	1348	n/a	n/a	0	n/a	0	0	0	0.57763671875	0.412841796875	1	lower	amplitud.ttf
2176.156	n/a	WORD	1088078	wordpools/wasnorm_wordpool_less_exclusions.txt	LTP188	ltpFR	8	8	1	CRICKET	408	n/a	n/a	1	n/a	0	0	0	0.57763671875	0.412841796875	1	lower	amplitud.ttf
2180.0	n/a	WORD	1090000	wordpools/wasnorm_wordpool_less_exclusions.txt	LTP188	ltpFR	8	8	1	GRASSHOPPER	656	n/a	n/a	1	n/a	0	0	0	0.57763671875	0.412841796875	1	lower	amplitud.ttf
2183.946	n/a	WORD	1091973	wordpools/wasnorm_wordpool_less_exclusions.txt	LTP188	ltpFR	8	8	1	CROSS	413	n/a	n/a	0	n/a	0	0	0	0.57763671875	0.412841796875	1	lower	amplitud.ttf
2187.99	n/a	WORD	1093995	wordpools/wasnorm_wordpool_less_exclusions.txt	LTP188	ltpFR	8	8	1	RICE	1190	n/a	n/a	0	n/a	0	0	0	0.57763671875	0.412841796875	1	lower	amplitud.ttf
2192.034	n/a	WORD	1096017	wordpools/wasnorm_wordpool_less_exclusions.txt	LTP188	ltpFR	8	8	1	SIRLOIN	1311	n/a	n/a	0	n/a	0	0	0	0.57763671875	0.412841796875	1	lower	amplitud.ttf
2196.144	n/a	WORD	1098072	wordpools/wasnorm_wordpool_less_exclusions.txt	LTP188	ltpFR	8	8	1	BOYFRIEND	162	n/a	n/a	1	n/a	0	0	0	0.57763671875	0.412841796875	1	lower	amplitud.ttf
2200.138	n/a	WORD	1100069	wordpools/wasnorm_wordpool_less_exclusions.txt	LTP188	ltpFR	8	8	1	BRAN	167	n/a	n/a	0	n/a	0	0	0	0.57763671875	0.412841796875	1	lower	amplitud.ttf
2203.982	n/a	WORD	1101991	wordpools/wasnorm_wordpool_less_exclusions.txt	LTP188	ltpFR	8	8	1	PENNY	1045	n/a	n/a	0	n/a	0	0	0	0.57763671875	0.412841796875	1	lower	amplitud.ttf
2208.076	n/a	WORD	1104038	wordpools/wasnorm_wordpool_less_exclusions.txt	LTP188	ltpFR	8	8	1	OCTOPUS	971	n/a	n/a	1	n/a	0	0	0	0.57763671875	0.412841796875	1	lower	amplitud.ttf
2214.002	n/a	REC_START	1107001	n/a	LTP188	ltpFR	8	8	n/a	n/a	n/a	n/a	n/a	n/a	n/a	0	0	0	n/a	n/a	n/a	n/a	n/a
2215.054	n/a	REC_WORD	1107527	wordpools/wasnorm_wordpool_less_exclusions.txt	LTP188	ltpFR	8	8	1	OCTOPUS	971	n/a	n/a	1	n/a	0	0	0	n/a	n/a	n/a	n/a	n/a
2216.216	n/a	REC_WORD	1108108	wordpools/wasnorm_wordpool_less_exclusions.txt	LTP188	ltpFR	8	8	1	BRAN	167	n/a	n/a	0	n/a	0	0	0	n/a	n/a	n/a	n/a	n/a
2217.742	n/a	REC_WORD	1108871	wordpools/wasnorm_wordpool_less_exclusions.txt	LTP188	ltpFR	8	8	1	BOYFRIEND	162	n/a	n/a	1	n/a	0	0	0	n/a	n/a	n/a	n/a	n/a
2218.89	n/a	REC_WORD	1109445	wordpools/wasnorm_wordpool_less_exclusions.txt	LTP188	ltpFR	8	8	1	VEAL	1551	n/a	n/a	0	n/a	0	0	0	n/a	n/a	n/a	n/a	n/a
2221.04	n/a	REC_WORD	1110520	wordpools/wasnorm_wordpool_less_exclusions.txt	LTP188	ltpFR	8	8	1	SIRLOIN	1311	n/a	n/a	0	n/a	0	0	0	n/a	n/a	n/a	n/a	n/a
2222.04	n/a	REC_WORD_VV	1111020	wordpools/wasnorm_wordpool_less_exclusions.txt	LTP188	ltpFR	8	8	n/a	<>	-1	n/a	n/a	n/a	n/a	0	0	0	n/a	n/a	n/a	n/a	n/a
2227.37	n/a	REC_WORD	1113685	wordpools/wasnorm_wordpool_less_exclusions.txt	LTP188	ltpFR	8	8	1	GRASSHOPPER	656	n/a	n/a	1	n/a	0	0	0	n/a	n/a	n/a	n/a	n/a
2228.508	n/a	REC_WORD	1114254	wordpools/wasnorm_wordpool_less_exclusions.txt	LTP188	ltpFR	8	8	1	CROSS	413	n/a	n/a	0	n/a	0	0	0	n/a	n/a	n/a	n/a	n/a
2245.554	n/a	REC_WORD	1122777	wordpools/wasnorm_wordpool_less_exclusions.txt	LTP188	ltpFR	8	8	1	CRICKET	408	n/a	n/a	1	n/a	0	0	0	n/a	n/a	n/a	n/a	n/a
2262.106	n/a	REC_WORD	1131053	wordpools/wasnorm_wordpool_less_exclusions.txt	LTP188	ltpFR	8	8	n/a	ORCHARD	-1	n/a	n/a	n/a	n/a	0	0	0	n/a	n/a	n/a	n/a	n/a
2329.014	n/a	START	1164507	n/a	LTP188	ltpFR	8	n/a	n/a	n/a	n/a	n/a	n/a	n/a	n/a	n/a	n/a	n/a	n/a	n/a	n/a	n/a	n/a
2330.528	n/a	PROB	1165264	n/a	LTP188	ltpFR	8	n/a	n/a	n/a	n/a	n/a	n/a	n/a	13	3	4	6	n/a	n/a	n/a	n/a	n/a
2332.492	n/a	PROB	1166246	n/a	LTP188	ltpFR	8	n/a	n/a	n/a	n/a	n/a	n/a	n/a	11	2	2	7	n/a	n/a	n/a	n/a	n/a
2337.014	n/a	STOP	1168507	n/a	LTP188	ltpFR	8	n/a	n/a	n/a	n/a	n/a	n/a	n/a	n/a	n/a	n/a	n/a	n/a	n/a	n/a	n/a	n/a
2337.832	n/a	WORD	1168916	wordpools/wasnorm_wordpool_less_exclusions.txt	LTP188	ltpFR	8	9	0	TYPIST	1532	n/a	n/a	1	n/a	0	0	0	0.422607421875	0.5869140625	0	upper	zerothre.ttf
2340.846	n/a	START	1170423	n/a	LTP188	ltpFR	8	n/a	n/a	n/a	n/a	n/a	n/a	n/a	n/a	n/a	n/a	n/a	n/a	n/a	n/a	n/a	n/a
2341.962	n/a	PROB	1170981	n/a	LTP188	ltpFR	8	n/a	n/a	n/a	n/a	n/a	n/a	n/a	28	5	7	6	n/a	n/a	n/a	n/a	n/a
2345.256	n/a	PROB	1172628	n/a	LTP188	ltpFR	8	n/a	n/a	n/a	n/a	n/a	n/a	n/a	18	9	7	2	n/a	n/a	n/a	n/a	n/a
2348.846	n/a	STOP	1174423	n/a	LTP188	ltpFR	8	n/a	n/a	n/a	n/a	n/a	n/a	n/a	n/a	n/a	n/a	n/a	n/a	n/a	n/a	n/a	n/a
2349.666	n/a	WORD	1174833	wordpools/wasnorm_wordpool_less_exclusions.txt	LTP188	ltpFR	8	9	0	BLOUSE	139	n/a	n/a	0	n/a	0	0	0	0.422607421875	0.5869140625	0	upper	zerothre.ttf
2352.678	n/a	START	1176339	n/a	LTP188	ltpFR	8	n/a	n/a	n/a	n/a	n/a	n/a	n/a	n/a	n/a	n/a	n/a	n/a	n/a	n/a	n/a	n/a
2353.562	n/a	PROB	1176781	n/a	LTP188	ltpFR	8	n/a	n/a	n/a	n/a	n/a	n/a	n/a	19	8	7	3	n/a	n/a	n/a	n/a	n/a
2356.408	n/a	PROB	1178204	n/a	LTP188	ltpFR	8	n/a	n/a	n/a	n/a	n/a	n/a	n/a	21	8	7	6	n/a	n/a	n/a	n/a	n/a
2359.48	n/a	STOP	1179740	n/a	LTP188	ltpFR	8	n/a	n/a	n/a	n/a	n/a	n/a	n/a	n/a	n/a	n/a	n/a	n/a	n/a	n/a	n/a	n/a
2361.632	n/a	WORD	1180816	wordpools/wasnorm_wordpool_less_exclusions.txt	LTP188	ltpFR	8	9	1	PANTS	1010	n/a	n/a	0	n/a	0	0	0	0.57763671875	0.412841796875	1	lower	amplitud.ttf
2364.644	n/a	START	1182322	n/a	LTP188	ltpFR	8	n/a	n/a	n/a	n/a	n/a	n/a	n/a	n/a	n/a	n/a	n/a	n/a	n/a	n/a	n/a	n/a
2365.626	n/a	PROB	1182813	n/a	LTP188	ltpFR	8	n/a	n/a	n/a	n/a	n/a	n/a	n/a	18	1	9	8	n/a	n/a	n/a	n/a	n/a
2367.374	n/a	PROB	1183687	n/a	LTP188	ltpFR	8	n/a	n/a	n/a	n/a	n/a	n/a	n/a	24	9	9	6	n/a	n/a	n/a	n/a	n/a
2369.238	n/a	PROB	1184619	n/a	LTP188	ltpFR	8	n/a	n/a	n/a	n/a	n/a	n/a	n/a	22	8	7	7	n/a	n/a	n/a	n/a	n/a
2371.944	n/a	STOP	1185972	n/a	LTP188	ltpFR	8	n/a	n/a	n/a	n/a	n/a	n/a	n/a	n/a	n/a	n/a	n/a	n/a	n/a	n/a	n/a	n/a
2373.482	n/a	WORD	1186741	wordpools/wasnorm_wordpool_less_exclusions.txt	LTP188	ltpFR	8	9	1	BUNNY	198	n/a	n/a	1	n/a	0	0	0	0.57763671875	0.412841796875	1	lower	amplitud.ttf
2376.494	n/a	START	1188247	n/a	LTP188	ltpFR	8	n/a	n/a	n/a	n/a	n/a	n/a	n/a	n/a	n/a	n/a	n/a	n/a	n/a	n/a	n/a	n/a
2377.658	n/a	PROB	1188829	n/a	LTP188	ltpFR	8	n/a	n/a	n/a	n/a	n/a	n/a	n/a	13	3	8	2	n/a	n/a	n/a	n/a	n/a
2379.04	n/a	PROB	1189520	n/a	LTP188	ltpFR	8	n/a	n/a	n/a	n/a	n/a	n/a	n/a	16	5	4	7	n/a	n/a	n/a	n/a	n/a
2381.004	n/a	PROB	1190502	n/a	LTP188	ltpFR	8	n/a	n/a	n/a	n/a	n/a	n/a	n/a	14	5	1	8	n/a	n/a	n/a	n/a	n/a
2383.4	n/a	STOP	1191700	n/a	LTP188	ltpFR	8	n/a	n/a	n/a	n/a	n/a	n/a	n/a	n/a	n/a	n/a	n/a	n/a	n/a	n/a	n/a	n/a
2385.68	n/a	WORD	1192840	wordpools/wasnorm_wordpool_less_exclusions.txt	LTP188	ltpFR	8	9	1	BUYER	208	n/a	n/a	1	n/a	0	0	0	0.57763671875	0.412841796875	1	lower	amplitud.ttf
2388.692	n/a	START	1194346	n/a	LTP188	ltpFR	8	n/a	n/a	n/a	n/a	n/a	n/a	n/a	n/a	n/a	n/a	n/a	n/a	n/a	n/a	n/a	n/a
2389.558	n/a	PROB	1194779	n/a	LTP188	ltpFR	8	n/a	n/a	n/a	n/a	n/a	n/a	n/a	19	2	8	9	n/a	n/a	n/a	n/a	n/a
2391.122	n/a	PROB	1195561	n/a	LTP188	ltpFR	8	n/a	n/a	n/a	n/a	n/a	n/a	n/a	16	8	2	6	n/a	n/a	n/a	n/a	n/a
2392.336	n/a	PROB	1196168	n/a	LTP188	ltpFR	8	n/a	n/a	n/a	n/a	n/a	n/a	n/a	16	3	8	5	n/a	n/a	n/a	n/a	n/a
2394.334	n/a	PROB	1197167	n/a	LTP188	ltpFR	8	n/a	n/a	n/a	n/a	n/a	n/a	n/a	10	3	1	6	n/a	n/a	n/a	n/a	n/a
2396.648	n/a	STOP	1198324	n/a	LTP188	ltpFR	8	n/a	n/a	n/a	n/a	n/a	n/a	n/a	n/a	n/a	n/a	n/a	n/a	n/a	n/a	n/a	n/a
2397.878	n/a	WORD	1198939	wordpools/wasnorm_wordpool_less_exclusions.txt	LTP188	ltpFR	8	9	1	DOORBELL	487	n/a	n/a	0	n/a	0	0	0	0.57763671875	0.412841796875	1	lower	amplitud.ttf
2400.89	n/a	START	1200445	n/a	LTP188	ltpFR	8	n/a	n/a	n/a	n/a	n/a	n/a	n/a	n/a	n/a	n/a	n/a	n/a	n/a	n/a	n/a	n/a
2402.022	n/a	PROB	1201011	n/a	LTP188	ltpFR	8	n/a	n/a	n/a	n/a	n/a	n/a	n/a	13	2	2	9	n/a	n/a	n/a	n/a	n/a
2404.12	n/a	PROB	1202060	n/a	LTP188	ltpFR	8	n/a	n/a	n/a	n/a	n/a	n/a	n/a	26	8	9	9	n/a	n/a	n/a	n/a	n/a
2408.89	n/a	STOP	1204445	n/a	LTP188	ltpFR	8	n/a	n/a	n/a	n/a	n/a	n/a	n/a	n/a	n/a	n/a	n/a	n/a	n/a	n/a	n/a	n/a
2409.942	n/a	WORD	1204971	wordpools/wasnorm_wordpool_less_exclusions.txt	LTP188	ltpFR	8	9	0	PICTURE	1061	n/a	n/a	1	n/a	0	0	0	0.422607421875	0.5869140625	0	upper	zerothre.ttf
2412.956	n/a	START	1206478	n/a	LTP188	ltpFR	8	n/a	n/a	n/a	n/a	n/a	n/a	n/a	n/a	n/a	n/a	n/a	n/a	n/a	n/a	n/a	n/a
2413.788	n/a	PROB	1206894	n/a	LTP188	ltpFR	8	n/a	n/a	n/a	n/a	n/a	n/a	n/a	18	5	8	5	n/a	n/a	n/a	n/a	n/a
2416.018	n/a	PROB	1208009	n/a	LTP188	ltpFR	8	n/a	n/a	n/a	n/a	n/a	n/a	n/a	10	2	3	5	n/a	n/a	n/a	n/a	n/a
2419.214	n/a	PROB	1209607	n/a	LTP188	ltpFR	8	n/a	n/a	n/a	n/a	n/a	n/a	n/a	10	4	1	5	n/a	n/a	n/a	n/a	n/a
2420.92	n/a	STOP	1210460	n/a	LTP188	ltpFR	8	n/a	n/a	n/a	n/a	n/a	n/a	n/a	n/a	n/a	n/a	n/a	n/a	n/a	n/a	n/a	n/a
2421.826	n/a	WORD	1210913	wordpools/wasnorm_wordpool_less_exclusions.txt	LTP188	ltpFR	8	9	0	EMPLOYER	532	n/a	n/a	1	n/a	0	0	0	0.422607421875	0.5869140625	0	upper	zerothre.ttf
2424.838	n/a	START	1212419	n/a	LTP188	ltpFR	8	n/a	n/a	n/a	n/a	n/a	n/a	n/a	n/a	n/a	n/a	n/a	n/a	n/a	n/a	n/a	n/a
2425.654	n/a	PROB	1212827	n/a	LTP188	ltpFR	8	n/a	n/a	n/a	n/a	n/a	n/a	n/a	8	5	6	7	n/a	n/a	n/a	n/a	n/a
2429.366	n/a	PROB	1214683	n/a	LTP188	ltpFR	8	n/a	n/a	n/a	n/a	n/a	n/a	n/a	15	1	6	8	n/a	n/a	n/a	n/a	n/a
2431.312	n/a	PROB	1215656	n/a	LTP188	ltpFR	8	n/a	n/a	n/a	n/a	n/a	n/a	n/a	13	2	3	8	n/a	n/a	n/a	n/a	n/a
2432.656	n/a	STOP	1216328	n/a	LTP188	ltpFR	8	n/a	n/a	n/a	n/a	n/a	n/a	n/a	n/a	n/a	n/a	n/a	n/a	n/a	n/a	n/a	n/a
2433.758	n/a	WORD	1216879	wordpools/wasnorm_wordpool_less_exclusions.txt	LTP188	ltpFR	8	9	0	SCARF	1246	n/a	n/a	0	n/a	0	0	0	0.422607421875	0.5869140625	0	upper	zerothre.ttf
2436.77	n/a	START	1218385	n/a	LTP188	ltpFR	8	n/a	n/a	n/a	n/a	n/a	n/a	n/a	n/a	n/a	n/a	n/a	n/a	n/a	n/a	n/a	n/a
2437.818	n/a	PROB	1218909	n/a	LTP188	ltpFR	8	n/a	n/a	n/a	n/a	n/a	n/a	n/a	12	3	2	7	n/a	n/a	n/a	n/a	n/a
2439.518	n/a	PROB	1219759	n/a	LTP188	ltpFR	8	n/a	n/a	n/a	n/a	n/a	n/a	n/a	19	7	6	6	n/a	n/a	n/a	n/a	n/a
2441.382	n/a	PROB	1220691	n/a	LTP188	ltpFR	8	n/a	n/a	n/a	n/a	n/a	n/a	n/a	17	5	5	7	n/a	n/a	n/a	n/a	n/a
2442.794	n/a	PROB	1221397	n/a	LTP188	ltpFR	8	n/a	n/a	n/a	n/a	n/a	n/a	n/a	11	1	7	3	n/a	n/a	n/a	n/a	n/a
2444.002	n/a	STOP	1222001	n/a	LTP188	ltpFR	8	n/a	n/a	n/a	n/a	n/a	n/a	n/a	n/a	n/a	n/a	n/a	n/a	n/a	n/a	n/a	n/a
2445.958	n/a	WORD	1222979	wordpools/wasnorm_wordpool_less_exclusions.txt	LTP188	ltpFR	8	9	0	NECK	939	n/a	n/a	0	n/a	0	0	0	0.422607421875	0.5869140625	0	upper	zerothre.ttf
2448.97	n/a	START	1224485	n/a	LTP188	ltpFR	8	n/a	n/a	n/a	n/a	n/a	n/a	n/a	n/a	n/a	n/a	n/a	n/a	n/a	n/a	n/a	n/a
2449.802	n/a	PROB	1224901	n/a	LTP188	ltpFR	8	n/a	n/a	n/a	n/a	n/a	n/a	n/a	18	8	1	9	n/a	n/a	n/a	n/a	n/a
2451.284	n/a	PROB	1225642	n/a	LTP188	ltpFR	8	n/a	n/a	n/a	n/a	n/a	n/a	n/a	12	7	3	2	n/a	n/a	n/a	n/a	n/a
2452.482	n/a	PROB	1226241	n/a	LTP188	ltpFR	8	n/a	n/a	n/a	n/a	n/a	n/a	n/a	17	9	1	7	n/a	n/a	n/a	n/a	n/a
2454.894	n/a	PROB	1227447	n/a	LTP188	ltpFR	8	n/a	n/a	n/a	n/a	n/a	n/a	n/a	13	1	9	3	n/a	n/a	n/a	n/a	n/a
2456.466	n/a	STOP	1228233	n/a	LTP188	ltpFR	8	n/a	n/a	n/a	n/a	n/a	n/a	n/a	n/a	n/a	n/a	n/a	n/a	n/a	n/a	n/a	n/a
2458.056	n/a	WORD	1229028	wordpools/wasnorm_wordpool_less_exclusions.txt	LTP188	ltpFR	8	9	0	BISCUIT	130	n/a	n/a	0	n/a	0	0	0	0.422607421875	0.5869140625	0	upper	zerothre.ttf
2461.068	n/a	START	1230534	n/a	LTP188	ltpFR	8	n/a	n/a	n/a	n/a	n/a	n/a	n/a	n/a	n/a	n/a	n/a	n/a	n/a	n/a	n/a	n/a
2461.884	n/a	PROB	1230942	n/a	LTP188	ltpFR	8	n/a	n/a	n/a	n/a	n/a	n/a	n/a	9	1	3	5	n/a	n/a	n/a	n/a	n/a
2463.382	n/a	PROB	1231691	n/a	LTP188	ltpFR	8	n/a	n/a	n/a	n/a	n/a	n/a	n/a	17	9	6	2	n/a	n/a	n/a	n/a	n/a
2465.462	n/a	PROB	1232731	n/a	LTP188	ltpFR	8	n/a	n/a	n/a	n/a	n/a	n/a	n/a	13	2	2	9	n/a	n/a	n/a	n/a	n/a
2467.092	n/a	PROB	1233546	n/a	LTP188	ltpFR	8	n/a	n/a	n/a	n/a	n/a	n/a	n/a	15	7	7	1	n/a	n/a	n/a	n/a	n/a
2468.53	n/a	STOP	1234265	n/a	LTP188	ltpFR	8	n/a	n/a	n/a	n/a	n/a	n/a	n/a	n/a	n/a	n/a	n/a	n/a	n/a	n/a	n/a	n/a
2470.204	n/a	WORD	1235102	wordpools/wasnorm_wordpool_less_exclusions.txt	LTP188	ltpFR	8	9	0	LOBSTER	837	n/a	n/a	0	n/a	0	0	0	0.422607421875	0.5869140625	0	upper	zerothre.ttf
2473.218	n/a	START	1236609	n/a	LTP188	ltpFR	8	n/a	n/a	n/a	n/a	n/a	n/a	n/a	n/a	n/a	n/a	n/a	n/a	n/a	n/a	n/a	n/a
2474.082	n/a	PROB	1237041	n/a	LTP188	ltpFR	8	n/a	n/a	n/a	n/a	n/a	n/a	n/a	12	6	4	2	n/a	n/a	n/a	n/a	n/a
2475.53	n/a	PROB	1237765	n/a	LTP188	ltpFR	8	n/a	n/a	n/a	n/a	n/a	n/a	n/a	19	9	3	7	n/a	n/a	n/a	n/a	n/a
2476.86	n/a	PROB	1238430	n/a	LTP188	ltpFR	8	n/a	n/a	n/a	n/a	n/a	n/a	n/a	18	9	4	5	n/a	n/a	n/a	n/a	n/a
2478.708	n/a	PROB	1239354	n/a	LTP188	ltpFR	8	n/a	n/a	n/a	n/a	n/a	n/a	n/a	16	2	7	7	n/a	n/a	n/a	n/a	n/a
2480.41	n/a	STOP	1240205	n/a	LTP188	ltpFR	8	n/a	n/a	n/a	n/a	n/a	n/a	n/a	n/a	n/a	n/a	n/a	n/a	n/a	n/a	n/a	n/a
2482.138	n/a	WORD	1241069	wordpools/wasnorm_wordpool_less_exclusions.txt	LTP188	ltpFR	8	9	1	COOKIE	374	n/a	n/a	0	n/a	0	0	0	0.57763671875	0.412841796875	1	lower	amplitud.ttf
2485.15	n/a	START	1242575	n/a	LTP188	ltpFR	8	n/a	n/a	n/a	n/a	n/a	n/a	n/a	n/a	n/a	n/a	n/a	n/a	n/a	n/a	n/a	n/a
2486.132	n/a	PROB	1243066	n/a	LTP188	ltpFR	8	n/a	n/a	n/a	n/a	n/a	n/a	n/a	21	9	7	5	n/a	n/a	n/a	n/a	n/a
2489.31	n/a	PROB	1244655	n/a	LTP188	ltpFR	8	n/a	n/a	n/a	n/a	n/a	n/a	n/a	25	7	9	9	n/a	n/a	n/a	n/a	n/a
2493.15	n/a	STOP	1246575	n/a	LTP188	ltpFR	8	n/a	n/a	n/a	n/a	n/a	n/a	n/a	n/a	n/a	n/a	n/a	n/a	n/a	n/a	n/a	n/a
2494.054	n/a	WORD	1247027	wordpools/wasnorm_wordpool_less_exclusions.txt	LTP188	ltpFR	8	9	1	ISLAND	745	n/a	n/a	0	n/a	0	0	0	0.57763671875	0.412841796875	1	lower	amplitud.ttf
2497.066	n/a	START	1248533	n/a	LTP188	ltpFR	8	n/a	n/a	n/a	n/a	n/a	n/a	n/a	n/a	n/a	n/a	n/a	n/a	n/a	n/a	n/a	n/a
2498.164	n/a	PROB	1249082	n/a	LTP188	ltpFR	8	n/a	n/a	n/a	n/a	n/a	n/a	n/a	9	1	7	1	n/a	n/a	n/a	n/a	n/a
2499.66	n/a	PROB	1249830	n/a	LTP188	ltpFR	8	n/a	n/a	n/a	n/a	n/a	n/a	n/a	13	5	7	1	n/a	n/a	n/a	n/a	n/a
2501.51	n/a	PROB	1250755	n/a	LTP188	ltpFR	8	n/a	n/a	n/a	n/a	n/a	n/a	n/a	5	1	2	2	n/a	n/a	n/a	n/a	n/a
2503.834	n/a	STOP	1251917	n/a	LTP188	ltpFR	8	n/a	n/a	n/a	n/a	n/a	n/a	n/a	n/a	n/a	n/a	n/a	n/a	n/a	n/a	n/a	n/a
2506.052	n/a	WORD	1253026	wordpools/wasnorm_wordpool_less_exclusions.txt	LTP188	ltpFR	8	9	1	PAINTING	1005	n/a	n/a	0	n/a	0	0	0	0.57763671875	0.412841796875	1	lower	amplitud.ttf
2509.066	n/a	START	1254533	n/a	LTP188	ltpFR	8	n/a	n/a	n/a	n/a	n/a	n/a	n/a	n/a	n/a	n/a	n/a	n/a	n/a	n/a	n/a	n/a
2510.23	n/a	PROB	1255115	n/a	LTP188	ltpFR	8	n/a	n/a	n/a	n/a	n/a	n/a	n/a	7	1	5	1	n/a	n/a	n/a	n/a	n/a
2511.942	n/a	PROB	1255971	n/a	LTP188	ltpFR	8	n/a	n/a	n/a	n/a	n/a	n/a	n/a	10	6	2	2	n/a	n/a	n/a	n/a	n/a
2513.958	n/a	PROB	1256979	n/a	LTP188	ltpFR	8	n/a	n/a	n/a	n/a	n/a	n/a	n/a	20	6	6	8	n/a	n/a	n/a	n/a	n/a
2516.114	n/a	STOP	1258057	n/a	LTP188	ltpFR	8	n/a	n/a	n/a	n/a	n/a	n/a	n/a	n/a	n/a	n/a	n/a	n/a	n/a	n/a	n/a	n/a
2518.102	n/a	WORD	1259051	wordpools/wasnorm_wordpool_less_exclusions.txt	LTP188	ltpFR	8	9	1	FEAST	556	n/a	n/a	0	n/a	0	0	0	0.57763671875	0.412841796875	1	lower	amplitud.ttf
2521.114	n/a	START	1260557	n/a	LTP188	ltpFR	8	n/a	n/a	n/a	n/a	n/a	n/a	n/a	n/a	n/a	n/a	n/a	n/a	n/a	n/a	n/a	n/a
2522.128	n/a	PROB	1261064	n/a	LTP188	ltpFR	8	n/a	n/a	n/a	n/a	n/a	n/a	n/a	12	3	2	7	n/a	n/a	n/a	n/a	n/a
2523.708	n/a	PROB	1261854	n/a	LTP188	ltpFR	8	n/a	n/a	n/a	n/a	n/a	n/a	n/a	7	2	2	3	n/a	n/a	n/a	n/a	n/a
2529.114	n/a	STOP	1264557	n/a	LTP188	ltpFR	8	n/a	n/a	n/a	n/a	n/a	n/a	n/a	n/a	n/a	n/a	n/a	n/a	n/a	n/a	n/a	n/a
2530.982	n/a	REC_START	1265491	n/a	LTP188	ltpFR	8	9	n/a	n/a	n/a	n/a	n/a	n/a	n/a	0	0	0	n/a	n/a	n/a	n/a	n/a
2533.836	n/a	REC_WORD	1266918	wordpools/wasnorm_wordpool_less_exclusions.txt	LTP188	ltpFR	8	9	1	ISLAND	745	n/a	n/a	0	n/a	0	0	0	n/a	n/a	n/a	n/a	n/a
2535.602	n/a	REC_WORD	1267801	wordpools/wasnorm_wordpool_less_exclusions.txt	LTP188	ltpFR	8	9	1	FEAST	556	n/a	n/a	0	n/a	0	0	0	n/a	n/a	n/a	n/a	n/a
2555.646	n/a	REC_WORD	1277823	wordpools/wasnorm_wordpool_less_exclusions.txt	LTP188	ltpFR	8	9	0	BISCUIT	130	n/a	n/a	0	n/a	0	0	0	n/a	n/a	n/a	n/a	n/a
2574.15	n/a	REC_WORD	1287075	wordpools/wasnorm_wordpool_less_exclusions.txt	LTP188	ltpFR	8	9	0	PICNIC	1060	n/a	n/a	0	n/a	0	0	0	n/a	n/a	n/a	n/a	n/a
2616.67	n/a	WORD	1308335	wordpools/wasnorm_wordpool_less_exclusions.txt	LTP188	ltpFR	8	10	0	MONEY	908	n/a	n/a	0	n/a	0	0	0	0.422607421875	0.5869140625	0	upper	zerothre.ttf
2620.748	n/a	WORD	1310374	wordpools/wasnorm_wordpool_less_exclusions.txt	LTP188	ltpFR	8	10	0	CALCULATOR	220	n/a	n/a	0	n/a	0	0	0	0.422607421875	0.5869140625	0	upper	zerothre.ttf
2624.658	n/a	WORD	1312329	wordpools/wasnorm_wordpool_less_exclusions.txt	LTP188	ltpFR	8	10	0	CROWN	415	n/a	n/a	0	n/a	0	0	0	0.422607421875	0.5869140625	0	upper	zerothre.ttf
2628.82	n/a	WORD	1314410	wordpools/wasnorm_wordpool_less_exclusions.txt	LTP188	ltpFR	8	10	1	MESSAGE	888	n/a	n/a	0	n/a	0	0	0	0.57763671875	0.412841796875	1	lower	amplitud.ttf
2632.83	n/a	WORD	1316415	wordpools/wasnorm_wordpool_less_exclusions.txt	LTP188	ltpFR	8	10	1	SANDPAPER	1231	n/a	n/a	0	n/a	0	0	0	0.57763671875	0.412841796875	1	lower	amplitud.ttf
2636.758	n/a	WORD	1318379	wordpools/wasnorm_wordpool_less_exclusions.txt	LTP188	ltpFR	8	10	1	PILLOW	1069	n/a	n/a	0	n/a	0	0	0	0.57763671875	0.412841796875	1	lower	amplitud.ttf
2640.686	n/a	WORD	1320343	wordpools/wasnorm_wordpool_less_exclusions.txt	LTP188	ltpFR	8	10	1	SHRIMP	1297	n/a	n/a	1	n/a	0	0	0	0.57763671875	0.412841796875	1	lower	amplitud.ttf
2644.746	n/a	WORD	1322373	wordpools/wasnorm_wordpool_less_exclusions.txt	LTP188	ltpFR	8	10	1	BUILDER	190	n/a	n/a	1	n/a	0	0	0	0.57763671875	0.412841796875	1	lower	amplitud.ttf
2648.874	n/a	WORD	1324437	wordpools/wasnorm_wordpool_less_exclusions.txt	LTP188	ltpFR	8	10	1	BLUEPRINT	142	n/a	n/a	0	n/a	0	0	0	0.57763671875	0.412841796875	1	lower	amplitud.ttf
2652.918	n/a	WORD	1326459	wordpools/wasnorm_wordpool_less_exclusions.txt	LTP188	ltpFR	8	10	0	SHOE	1288	n/a	n/a	0	n/a	0	0	0	0.422607421875	0.5869140625	0	upper	zerothre.ttf
2656.762	n/a	WORD	1328381	wordpools/wasnorm_wordpool_less_exclusions.txt	LTP188	ltpFR	8	10	0	TABLE	1426	n/a	n/a	1	n/a	0	0	0	0.422607421875	0.5869140625	0	upper	zerothre.ttf
2660.722	n/a	WORD	1330361	wordpools/wasnorm_wordpool_less_exclusions.txt	LTP188	ltpFR	8	10	1	STOOL	1386	n/a	n/a	0	n/a	0	0	0	0.57763671875	0.412841796875	1	lower	amplitud.ttf
2664.882	n/a	WORD	1332441	wordpools/wasnorm_wordpool_less_exclusions.txt	LTP188	ltpFR	8	10	1	QUEEN	1149	n/a	n/a	1	n/a	0	0	0	0.57763671875	0.412841796875	1	lower	amplitud.ttf
2669.044	n/a	WORD	1334522	wordpools/wasnorm_wordpool_less_exclusions.txt	LTP188	ltpFR	8	10	0	SEAL	1262	n/a	n/a	1	n/a	0	0	0	0.422607421875	0.5869140625	0	upper	zerothre.ttf
2673.122	n/a	WORD	1336561	wordpools/wasnorm_wordpool_less_exclusions.txt	LTP188	ltpFR	8	10	0	CHICKEN	297	n/a	n/a	0	n/a	0	0	0	0.422607421875	0.5869140625	0	upper	zerothre.ttf
2677.016	n/a	WORD	1338508	wordpools/wasnorm_wordpool_less_exclusions.txt	LTP188	ltpFR	8	10	0	COBBLER	335	n/a	n/a	1	n/a	0	0	0	0.422607421875	0.5869140625	0	upper	zerothre.ttf
2680.028	n/a	START	1340014	n/a	LTP188	ltpFR	8	n/a	n/a	n/a	n/a	n/a	n/a	n/a	n/a	n/a	n/a	n/a	n/a	n/a	n/a	n/a	n/a
2681.11	n/a	PROB	1340555	n/a	LTP188	ltpFR	8	n/a	n/a	n/a	n/a	n/a	n/a	n/a	26	9	8	9	n/a	n/a	n/a	n/a	n/a
2685.236	n/a	PROB	1342618	n/a	LTP188	ltpFR	8	n/a	n/a	n/a	n/a	n/a	n/a	n/a	21	4	8	9	n/a	n/a	n/a	n/a	n/a
2687.732	n/a	PROB	1343866	n/a	LTP188	ltpFR	8	n/a	n/a	n/a	n/a	n/a	n/a	n/a	16	3	4	9	n/a	n/a	n/a	n/a	n/a
2690.894	n/a	PROB	1345447	n/a	LTP188	ltpFR	8	n/a	n/a	n/a	n/a	n/a	n/a	n/a	15	1	5	8	n/a	n/a	n/a	n/a	n/a
2693.174	n/a	PROB	1346587	n/a	LTP188	ltpFR	8	n/a	n/a	n/a	n/a	n/a	n/a	n/a	19	5	7	7	n/a	n/a	n/a	n/a	n/a
2695.492	n/a	STOP	1347746	n/a	LTP188	ltpFR	8	n/a	n/a	n/a	n/a	n/a	n/a	n/a	n/a	n/a	n/a	n/a	n/a	n/a	n/a	n/a	n/a
2697.918	n/a	REC_START	1348959	n/a	LTP188	ltpFR	8	10	n/a	n/a	n/a	n/a	n/a	n/a	n/a	0	0	0	n/a	n/a	n/a	n/a	n/a
2699.694	n/a	REC_WORD	1349847	wordpools/wasnorm_wordpool_less_exclusions.txt	LTP188	ltpFR	8	10	1	BUILDER	190	n/a	n/a	1	n/a	0	0	0	n/a	n/a	n/a	n/a	n/a
2700.372	n/a	REC_WORD	1350186	wordpools/wasnorm_wordpool_less_exclusions.txt	LTP188	ltpFR	8	10	1	QUEEN	1149	n/a	n/a	1	n/a	0	0	0	n/a	n/a	n/a	n/a	n/a
2703.5	n/a	REC_WORD	1351750	wordpools/wasnorm_wordpool_less_exclusions.txt	LTP188	ltpFR	8	10	0	COBBLER	335	n/a	n/a	1	n/a	0	0	0	n/a	n/a	n/a	n/a	n/a
2765.2	n/a	REC_WORD	1382600	wordpools/wasnorm_wordpool_less_exclusions.txt	LTP188	ltpFR	8	10	1	PILLOW	1069	n/a	n/a	0	n/a	0	0	0	n/a	n/a	n/a	n/a	n/a
2773.506	n/a	REST_REWET	1386753	n/a	LTP188	ltpFR	8	10	n/a	n/a	n/a	n/a	n/a	n/a	n/a	0	0	0	n/a	n/a	n/a	n/a	n/a
3390.544	n/a	WORD	1695272	wordpools/wasnorm_wordpool_less_exclusions.txt	LTP188	ltpFR	8	11	1	BOX	159	n/a	n/a	0	n/a	0	0	0	0.57763671875	0.412841796875	1	lower	amplitud.ttf
3394.652	n/a	WORD	1697326	wordpools/wasnorm_wordpool_less_exclusions.txt	LTP188	ltpFR	8	11	1	POSTAGE	1113	n/a	n/a	0	n/a	0	0	0	0.57763671875	0.412841796875	1	lower	amplitud.ttf
3398.582	n/a	WORD	1699291	wordpools/wasnorm_wordpool_less_exclusions.txt	LTP188	ltpFR	8	11	0	TORTOISE	1486	n/a	n/a	0	n/a	0	0	0	0.422607421875	0.5869140625	0	upper	zerothre.ttf
3402.624	n/a	WORD	1701312	wordpools/wasnorm_wordpool_less_exclusions.txt	LTP188	ltpFR	8	11	0	SICKLE	1302	n/a	n/a	1	n/a	0	0	0	0.422607421875	0.5869140625	0	upper	zerothre.ttf
3406.618	n/a	WORD	1703309	wordpools/wasnorm_wordpool_less_exclusions.txt	LTP188	ltpFR	8	11	1	TUSK	1523	n/a	n/a	0	n/a	0	0	0	0.57763671875	0.412841796875	1	lower	amplitud.ttf
3410.48	n/a	WORD	1705240	wordpools/wasnorm_wordpool_less_exclusions.txt	LTP188	ltpFR	8	11	1	LAPEL	800	n/a	n/a	0	n/a	0	0	0	0.57763671875	0.412841796875	1	lower	amplitud.ttf
3414.392	n/a	WORD	1707196	wordpools/wasnorm_wordpool_less_exclusions.txt	LTP188	ltpFR	8	11	1	ATOM	55	n/a	n/a	0	n/a	0	0	0	0.57763671875	0.412841796875	1	lower	amplitud.ttf
3418.468	n/a	WORD	1709234	wordpools/wasnorm_wordpool_less_exclusions.txt	LTP188	ltpFR	8	11	1	SERVANT	1271	n/a	n/a	1	n/a	0	0	0	0.57763671875	0.412841796875	1	lower	amplitud.ttf
3422.33	n/a	WORD	1711165	wordpools/wasnorm_wordpool_less_exclusions.txt	LTP188	ltpFR	8	11	1	ASTEROID	50	n/a	n/a	0	n/a	0	0	0	0.57763671875	0.412841796875	1	lower	amplitud.ttf
3426.174	n/a	WORD	1713087	wordpools/wasnorm_wordpool_less_exclusions.txt	LTP188	ltpFR	8	11	1	ELECTRON	522	n/a	n/a	0	n/a	0	0	0	0.57763671875	0.412841796875	1	lower	amplitud.ttf
3430.218	n/a	WORD	1715109	wordpools/wasnorm_wordpool_less_exclusions.txt	LTP188	ltpFR	8	11	0	ACORN	3	n/a	n/a	0	n/a	0	0	0	0.422607421875	0.5869140625	0	upper	zerothre.ttf
3434.396	n/a	WORD	1717198	wordpools/wasnorm_wordpool_less_exclusions.txt	LTP188	ltpFR	8	11	0	MOSS	918	n/a	n/a	0	n/a	0	0	0	0.422607421875	0.5869140625	0	upper	zerothre.ttf
3438.59	n/a	WORD	1719295	wordpools/wasnorm_wordpool_less_exclusions.txt	LTP188	ltpFR	8	11	0	SHELL	1281	n/a	n/a	0	n/a	0	0	0	0.422607421875	0.5869140625	0	upper	zerothre.ttf
3442.434	n/a	WORD	1721217	wordpools/wasnorm_wordpool_less_exclusions.txt	LTP188	ltpFR	8	11	0	HERO	706	n/a	n/a	1	n/a	0	0	0	0.422607421875	0.5869140625	0	upper	zerothre.ttf
3446.378	n/a	WORD	1723189	wordpools/wasnorm_wordpool_less_exclusions.txt	LTP188	ltpFR	8	11	0	EARTH	515	n/a	n/a	1	n/a	0	0	0	0.422607421875	0.5869140625	0	upper	zerothre.ttf
3450.372	n/a	WORD	1725186	wordpools/wasnorm_wordpool_less_exclusions.txt	LTP188	ltpFR	8	11	0	WORLD	1622	n/a	n/a	1	n/a	0	0	0	0.422607421875	0.5869140625	0	upper	zerothre.ttf
3453.384	n/a	START	1726692	n/a	LTP188	ltpFR	8	n/a	n/a	n/a	n/a	n/a	n/a	n/a	n/a	n/a	n/a	n/a	n/a	n/a	n/a	n/a	n/a
3454.566	n/a	PROB	1727283	n/a	LTP188	ltpFR	8	n/a	n/a	n/a	n/a	n/a	n/a	n/a	23	7	8	8	n/a	n/a	n/a	n/a	n/a
3458.726	n/a	PROB	1729363	n/a	LTP188	ltpFR	8	n/a	n/a	n/a	n/a	n/a	n/a	n/a	21	8	8	5	n/a	n/a	n/a	n/a	n/a
3461.216	n/a	STOP	1730608	n/a	LTP188	ltpFR	8	n/a	n/a	n/a	n/a	n/a	n/a	n/a	n/a	n/a	n/a	n/a	n/a	n/a	n/a	n/a	n/a
3463.154	n/a	REC_START	1731577	n/a	LTP188	ltpFR	8	11	n/a	n/a	n/a	n/a	n/a	n/a	n/a	0	0	0	n/a	n/a	n/a	n/a	n/a
3464.78	n/a	REC_WORD	1732390	wordpools/wasnorm_wordpool_less_exclusions.txt	LTP188	ltpFR	8	11	0	EARTH	515	n/a	n/a	1	n/a	0	0	0	n/a	n/a	n/a	n/a	n/a
3465.532	n/a	REC_WORD	1732766	wordpools/wasnorm_wordpool_less_exclusions.txt	LTP188	ltpFR	8	11	0	WORLD	1622	n/a	n/a	1	n/a	0	0	0	n/a	n/a	n/a	n/a	n/a
3466.556	n/a	REC_WORD	1733278	wordpools/wasnorm_wordpool_less_exclusions.txt	LTP188	ltpFR	8	11	1	ASTEROID	50	n/a	n/a	0	n/a	0	0	0	n/a	n/a	n/a	n/a	n/a
3467.438	n/a	REC_WORD	1733719	wordpools/wasnorm_wordpool_less_exclusions.txt	LTP188	ltpFR	8	11	0	SHELL	1281	n/a	n/a	0	n/a	0	0	0	n/a	n/a	n/a	n/a	n/a
3498.26	n/a	REC_WORD	1749130	wordpools/wasnorm_wordpool_less_exclusions.txt	LTP188	ltpFR	8	11	1	ELECTRON	522	n/a	n/a	0	n/a	0	0	0	n/a	n/a	n/a	n/a	n/a
3499.392	n/a	REC_WORD	1749696	wordpools/wasnorm_wordpool_less_exclusions.txt	LTP188	ltpFR	8	11	1	ATOM	55	n/a	n/a	0	n/a	0	0	0	n/a	n/a	n/a	n/a	n/a
3566.302	n/a	START	1783151	n/a	LTP188	ltpFR	8	n/a	n/a	n/a	n/a	n/a	n/a	n/a	n/a	n/a	n/a	n/a	n/a	n/a	n/a	n/a	n/a
3567.814	n/a	PROB	1783907	n/a	LTP188	ltpFR	8	n/a	n/a	n/a	n/a	n/a	n/a	n/a	21	8	5	8	n/a	n/a	n/a	n/a	n/a
3570.094	n/a	PROB	1785047	n/a	LTP188	ltpFR	8	n/a	n/a	n/a	n/a	n/a	n/a	n/a	15	4	5	6	n/a	n/a	n/a	n/a	n/a
3571.36	n/a	PROB	1785680	n/a	LTP188	ltpFR	8	n/a	n/a	n/a	n/a	n/a	n/a	n/a	16	8	1	7	n/a	n/a	n/a	n/a	n/a
3573.058	n/a	PROB	1786529	n/a	LTP188	ltpFR	8	n/a	n/a	n/a	n/a	n/a	n/a	n/a	16	3	9	4	n/a	n/a	n/a	n/a	n/a
3575.154	n/a	PROB	1787577	n/a	LTP188	ltpFR	8	n/a	n/a	n/a	n/a	n/a	n/a	n/a	7	2	1	4	n/a	n/a	n/a	n/a	n/a
3577.268	n/a	PROB	1788634	n/a	LTP188	ltpFR	8	n/a	n/a	n/a	n/a	n/a	n/a	n/a	11	2	1	8	n/a	n/a	n/a	n/a	n/a
3578.83	n/a	PROB	1789415	n/a	LTP188	ltpFR	8	n/a	n/a	n/a	n/a	n/a	n/a	n/a	15	7	7	1	n/a	n/a	n/a	n/a	n/a
3580.38	n/a	PROB	1790190	n/a	LTP188	ltpFR	8	n/a	n/a	n/a	n/a	n/a	n/a	n/a	13	7	4	1	n/a	n/a	n/a	n/a	n/a
3582.13	n/a	STOP	1791065	n/a	LTP188	ltpFR	8	n/a	n/a	n/a	n/a	n/a	n/a	n/a	n/a	n/a	n/a	n/a	n/a	n/a	n/a	n/a	n/a
3583.192	n/a	WORD	1791596	wordpools/wasnorm_wordpool_less_exclusions.txt	LTP188	ltpFR	8	12	1	SEAFOOD	1260	n/a	n/a	0	n/a	0	0	0	0.57763671875	0.412841796875	1	lower	amplitud.ttf
3586.204	n/a	START	1793102	n/a	LTP188	ltpFR	8	n/a	n/a	n/a	n/a	n/a	n/a	n/a	n/a	n/a	n/a	n/a	n/a	n/a	n/a	n/a	n/a
3587.102	n/a	PROB	1793551	n/a	LTP188	ltpFR	8	n/a	n/a	n/a	n/a	n/a	n/a	n/a	27	9	9	9	n/a	n/a	n/a	n/a	n/a
3591.762	n/a	PROB	1795881	n/a	LTP188	ltpFR	8	n/a	n/a	n/a	n/a	n/a	n/a	n/a	13	3	2	8	n/a	n/a	n/a	n/a	n/a
3593.344	n/a	PROB	1796672	n/a	LTP188	ltpFR	8	n/a	n/a	n/a	n/a	n/a	n/a	n/a	15	3	5	7	n/a	n/a	n/a	n/a	n/a
3596.322	n/a	PROB	1798161	n/a	LTP188	ltpFR	8	n/a	n/a	n/a	n/a	n/a	n/a	n/a	16	5	8	3	n/a	n/a	n/a	n/a	n/a
3598.618	n/a	PROB	1799309	n/a	LTP188	ltpFR	8	n/a	n/a	n/a	n/a	n/a	n/a	n/a	14	5	3	6	n/a	n/a	n/a	n/a	n/a
3602.204	n/a	STOP	1801102	n/a	LTP188	ltpFR	8	n/a	n/a	n/a	n/a	n/a	n/a	n/a	n/a	n/a	n/a	n/a	n/a	n/a	n/a	n/a	n/a
3603.278	n/a	WORD	1801639	wordpools/wasnorm_wordpool_less_exclusions.txt	LTP188	ltpFR	8	12	1	LODGE	839	n/a	n/a	0	n/a	0	0	0	0.57763671875	0.412841796875	1	lower	amplitud.ttf
3606.292	n/a	START	1803146	n/a	LTP188	ltpFR	8	n/a	n/a	n/a	n/a	n/a	n/a	n/a	n/a	n/a	n/a	n/a	n/a	n/a	n/a	n/a	n/a
3607.422	n/a	PROB	1803711	n/a	LTP188	ltpFR	8	n/a	n/a	n/a	n/a	n/a	n/a	n/a	9	5	3	1	n/a	n/a	n/a	n/a	n/a
3608.87	n/a	PROB	1804435	n/a	LTP188	ltpFR	8	n/a	n/a	n/a	n/a	n/a	n/a	n/a	15	6	5	4	n/a	n/a	n/a	n/a	n/a
3610.318	n/a	PROB	1805159	n/a	LTP188	ltpFR	8	n/a	n/a	n/a	n/a	n/a	n/a	n/a	118	8	1	9	n/a	n/a	n/a	n/a	n/a
3612.0	n/a	PROB	1806000	n/a	LTP188	ltpFR	8	n/a	n/a	n/a	n/a	n/a	n/a	n/a	5	1	1	3	n/a	n/a	n/a	n/a	n/a
3613.912	n/a	PROB	1806956	n/a	LTP188	ltpFR	8	n/a	n/a	n/a	n/a	n/a	n/a	n/a	18	7	2	9	n/a	n/a	n/a	n/a	n/a
3616.41	n/a	PROB	1808205	n/a	LTP188	ltpFR	8	n/a	n/a	n/a	n/a	n/a	n/a	n/a	17	8	2	7	n/a	n/a	n/a	n/a	n/a
3617.89	n/a	PROB	1808945	n/a	LTP188	ltpFR	8	n/a	n/a	n/a	n/a	n/a	n/a	n/a	16	8	6	2	n/a	n/a	n/a	n/a	n/a
3620.32	n/a	PROB	1810160	n/a	LTP188	ltpFR	8	n/a	n/a	n/a	n/a	n/a	n/a	n/a	16	7	6	3	n/a	n/a	n/a	n/a	n/a
3622.138	n/a	STOP	1811069	n/a	LTP188	ltpFR	8	n/a	n/a	n/a	n/a	n/a	n/a	n/a	n/a	n/a	n/a	n/a	n/a	n/a	n/a	n/a	n/a
3623.366	n/a	WORD	1811683	wordpools/wasnorm_wordpool_less_exclusions.txt	LTP188	ltpFR	8	12	1	LEADER	807	n/a	n/a	1	n/a	0	0	0	0.57763671875	0.412841796875	1	lower	amplitud.ttf
3626.378	n/a	START	1813189	n/a	LTP188	ltpFR	8	n/a	n/a	n/a	n/a	n/a	n/a	n/a	n/a	n/a	n/a	n/a	n/a	n/a	n/a	n/a	n/a
3627.51	n/a	PROB	1813755	n/a	LTP188	ltpFR	8	n/a	n/a	n/a	n/a	n/a	n/a	n/a	13	3	5	5	n/a	n/a	n/a	n/a	n/a
3628.906	n/a	PROB	1814453	n/a	LTP188	ltpFR	8	n/a	n/a	n/a	n/a	n/a	n/a	n/a	11	2	1	8	n/a	n/a	n/a	n/a	n/a
3630.222	n/a	PROB	1815111	n/a	LTP188	ltpFR	8	n/a	n/a	n/a	n/a	n/a	n/a	n/a	18	8	8	2	n/a	n/a	n/a	n/a	n/a
3632.318	n/a	PROB	1816159	n/a	LTP188	ltpFR	8	n/a	n/a	n/a	n/a	n/a	n/a	n/a	21	5	7	7	n/a	n/a	n/a	n/a	n/a
3634.798	n/a	PROB	1817399	n/a	LTP188	ltpFR	8	n/a	n/a	n/a	n/a	n/a	n/a	n/a	15	4	8	3	n/a	n/a	n/a	n/a	n/a
3637.994	n/a	PROB	1818997	n/a	LTP188	ltpFR	8	n/a	n/a	n/a	n/a	n/a	n/a	n/a	16	4	3	9	n/a	n/a	n/a	n/a	n/a
3642.38	n/a	STOP	1821190	n/a	LTP188	ltpFR	8	n/a	n/a	n/a	n/a	n/a	n/a	n/a	n/a	n/a	n/a	n/a	n/a	n/a	n/a	n/a	n/a
3643.47	n/a	WORD	1821735	wordpools/wasnorm_wordpool_less_exclusions.txt	LTP188	ltpFR	8	12	1	TROUT	1511	n/a	n/a	0	n/a	0	0	0	0.57763671875	0.412841796875	1	lower	amplitud.ttf
3646.482	n/a	START	1823241	n/a	LTP188	ltpFR	8	n/a	n/a	n/a	n/a	n/a	n/a	n/a	n/a	n/a	n/a	n/a	n/a	n/a	n/a	n/a	n/a
3647.448	n/a	PROB	1823724	n/a	LTP188	ltpFR	8	n/a	n/a	n/a	n/a	n/a	n/a	n/a	19	9	8	3	n/a	n/a	n/a	n/a	n/a
3651.69	n/a	PROB	1825845	n/a	LTP188	ltpFR	8	n/a	n/a	n/a	n/a	n/a	n/a	n/a	9	3	5	1	n/a	n/a	n/a	n/a	n/a
3653.87	n/a	PROB	1826935	n/a	LTP188	ltpFR	8	n/a	n/a	n/a	n/a	n/a	n/a	n/a	21	5	8	8	n/a	n/a	n/a	n/a	n/a
3656.018	n/a	PROB	1828009	n/a	LTP188	ltpFR	8	n/a	n/a	n/a	n/a	n/a	n/a	n/a	18	1	9	8	n/a	n/a	n/a	n/a	n/a
3657.382	n/a	PROB	1828691	n/a	LTP188	ltpFR	8	n/a	n/a	n/a	n/a	n/a	n/a	n/a	19	8	2	9	n/a	n/a	n/a	n/a	n/a
3659.114	n/a	PROB	1829557	n/a	LTP188	ltpFR	8	n/a	n/a	n/a	n/a	n/a	n/a	n/a	10	3	6	1	n/a	n/a	n/a	n/a	n/a
3661.21	n/a	STOP	1830605	n/a	LTP188	ltpFR	8	n/a	n/a	n/a	n/a	n/a	n/a	n/a	n/a	n/a	n/a	n/a	n/a	n/a	n/a	n/a	n/a
3663.356	n/a	WORD	1831678	wordpools/wasnorm_wordpool_less_exclusions.txt	LTP188	ltpFR	8	12	1	TWINE	1529	n/a	n/a	0	n/a	0	0	0	0.57763671875	0.412841796875	1	lower	amplitud.ttf
3666.37	n/a	START	1833185	n/a	LTP188	ltpFR	8	n/a	n/a	n/a	n/a	n/a	n/a	n/a	n/a	n/a	n/a	n/a	n/a	n/a	n/a	n/a	n/a
3667.568	n/a	PROB	1833784	n/a	LTP188	ltpFR	8	n/a	n/a	n/a	n/a	n/a	n/a	n/a	9	5	3	1	n/a	n/a	n/a	n/a	n/a
3668.948	n/a	PROB	1834474	n/a	LTP188	ltpFR	8	n/a	n/a	n/a	n/a	n/a	n/a	n/a	16	7	8	1	n/a	n/a	n/a	n/a	n/a
3670.712	n/a	PROB	1835356	n/a	LTP188	ltpFR	8	n/a	n/a	n/a	n/a	n/a	n/a	n/a	9	1	1	7	n/a	n/a	n/a	n/a	n/a
3672.01	n/a	PROB	1836005	n/a	LTP188	ltpFR	8	n/a	n/a	n/a	n/a	n/a	n/a	n/a	22	6	8	8	n/a	n/a	n/a	n/a	n/a
3674.124	n/a	PROB	1837062	n/a	LTP188	ltpFR	8	n/a	n/a	n/a	n/a	n/a	n/a	n/a	13	3	9	1	n/a	n/a	n/a	n/a	n/a
3675.522	n/a	PROB	1837761	n/a	LTP188	ltpFR	8	n/a	n/a	n/a	n/a	n/a	n/a	n/a	6	1	1	4	n/a	n/a	n/a	n/a	n/a
3676.736	n/a	PROB	1838368	n/a	LTP188	ltpFR	8	n/a	n/a	n/a	n/a	n/a	n/a	n/a	18	6	5	7	n/a	n/a	n/a	n/a	n/a
3679.05	n/a	PROB	1839525	n/a	LTP188	ltpFR	8	n/a	n/a	n/a	n/a	n/a	n/a	n/a	16	8	5	3	n/a	n/a	n/a	n/a	n/a
3681.114	n/a	STOP	1840557	n/a	LTP188	ltpFR	8	n/a	n/a	n/a	n/a	n/a	n/a	n/a	n/a	n/a	n/a	n/a	n/a	n/a	n/a	n/a	n/a
3683.36	n/a	WORD	1841680	wordpools/wasnorm_wordpool_less_exclusions.txt	LTP188	ltpFR	8	12	1	VAGRANT	1544	n/a	n/a	0	n/a	0	0	0	0.57763671875	0.412841796875	1	lower	amplitud.ttf
3686.372	n/a	START	1843186	n/a	LTP188	ltpFR	8	n/a	n/a	n/a	n/a	n/a	n/a	n/a	n/a	n/a	n/a	n/a	n/a	n/a	n/a	n/a	n/a
3687.42	n/a	PROB	1843710	n/a	LTP188	ltpFR	8	n/a	n/a	n/a	n/a	n/a	n/a	n/a	24	6	8	8	n/a	n/a	n/a	n/a	n/a
3689.384	n/a	PROB	1844692	n/a	LTP188	ltpFR	8	n/a	n/a	n/a	n/a	n/a	n/a	n/a	23	5	9	8	n/a	n/a	n/a	n/a	n/a
3692.996	n/a	PROB	1846498	n/a	LTP188	ltpFR	8	n/a	n/a	n/a	n/a	n/a	n/a	n/a	17	7	4	6	n/a	n/a	n/a	n/a	n/a
3694.444	n/a	PROB	1847222	n/a	LTP188	ltpFR	8	n/a	n/a	n/a	n/a	n/a	n/a	n/a	18	6	5	7	n/a	n/a	n/a	n/a	n/a
3696.258	n/a	PROB	1848129	n/a	LTP188	ltpFR	8	n/a	n/a	n/a	n/a	n/a	n/a	n/a	16	1	9	6	n/a	n/a	n/a	n/a	n/a
3697.538	n/a	PROB	1848769	n/a	LTP188	ltpFR	8	n/a	n/a	n/a	n/a	n/a	n/a	n/a	13	2	3	8	n/a	n/a	n/a	n/a	n/a
3698.786	n/a	PROB	1849393	n/a	LTP188	ltpFR	8	n/a	n/a	n/a	n/a	n/a	n/a	n/a	13	4	3	5	n/a	n/a	n/a	n/a	n/a
3702.034	n/a	STOP	1851017	n/a	LTP188	ltpFR	8	n/a	n/a	n/a	n/a	n/a	n/a	n/a	n/a	n/a	n/a	n/a	n/a	n/a	n/a	n/a	n/a
3703.28	n/a	WORD	1851640	wordpools/wasnorm_wordpool_less_exclusions.txt	LTP188	ltpFR	8	12	1	HIGHWAY	707	n/a	n/a	0	n/a	0	0	0	0.57763671875	0.412841796875	1	lower	amplitud.ttf
3706.294	n/a	START	1853147	n/a	LTP188	ltpFR	8	n/a	n/a	n/a	n/a	n/a	n/a	n/a	n/a	n/a	n/a	n/a	n/a	n/a	n/a	n/a	n/a
3707.226	n/a	PROB	1853613	n/a	LTP188	ltpFR	8	n/a	n/a	n/a	n/a	n/a	n/a	n/a	23	8	9	6	n/a	n/a	n/a	n/a	n/a
3712.7	n/a	PROB	1856350	n/a	LTP188	ltpFR	8	n/a	n/a	n/a	n/a	n/a	n/a	n/a	13	5	5	3	n/a	n/a	n/a	n/a	n/a
3714.448	n/a	PROB	1857224	n/a	LTP188	ltpFR	8	n/a	n/a	n/a	n/a	n/a	n/a	n/a	15	9	6	5	n/a	n/a	n/a	n/a	n/a
3717.394	n/a	PROB	1858697	n/a	LTP188	ltpFR	8	n/a	n/a	n/a	n/a	n/a	n/a	n/a	8	4	2	2	n/a	n/a	n/a	n/a	n/a
3719.656	n/a	PROB	1859828	n/a	LTP188	ltpFR	8	n/a	n/a	n/a	n/a	n/a	n/a	n/a	7	1	5	1	n/a	n/a	n/a	n/a	n/a
3721.06	n/a	STOP	1860530	n/a	LTP188	ltpFR	8	n/a	n/a	n/a	n/a	n/a	n/a	n/a	n/a	n/a	n/a	n/a	n/a	n/a	n/a	n/a	n/a
3723.384	n/a	WORD	1861692	wordpools/wasnorm_wordpool_less_exclusions.txt	LTP188	ltpFR	8	12	1	RADIATOR	1156	n/a	n/a	0	n/a	0	0	0	0.57763671875	0.412841796875	1	lower	amplitud.ttf
3726.398	n/a	START	1863199	n/a	LTP188	ltpFR	8	n/a	n/a	n/a	n/a	n/a	n/a	n/a	n/a	n/a	n/a	n/a	n/a	n/a	n/a	n/a	n/a
3727.312	n/a	PROB	1863656	n/a	LTP188	ltpFR	8	n/a	n/a	n/a	n/a	n/a	n/a	n/a	19	6	6	7	n/a	n/a	n/a	n/a	n/a
3729.442	n/a	PROB	1864721	n/a	LTP188	ltpFR	8	n/a	n/a	n/a	n/a	n/a	n/a	n/a	21	6	7	8	n/a	n/a	n/a	n/a	n/a
3731.954	n/a	PROB	1865977	n/a	LTP188	ltpFR	8	n/a	n/a	n/a	n/a	n/a	n/a	n/a	18	9	7	2	n/a	n/a	n/a	n/a	n/a
3733.968	n/a	PROB	1866984	n/a	LTP188	ltpFR	8	n/a	n/a	n/a	n/a	n/a	n/a	n/a	16	1	9	6	n/a	n/a	n/a	n/a	n/a
3735.2	n/a	PROB	1867600	n/a	LTP188	ltpFR	8	n/a	n/a	n/a	n/a	n/a	n/a	n/a	12	1	9	2	n/a	n/a	n/a	n/a	n/a
3736.664	n/a	PROB	1868332	n/a	LTP188	ltpFR	8	n/a	n/a	n/a	n/a	n/a	n/a	n/a	12	5	1	6	n/a	n/a	n/a	n/a	n/a
3738.446	n/a	PROB	1869223	n/a	LTP188	ltpFR	8	n/a	n/a	n/a	n/a	n/a	n/a	n/a	11	1	9	1	n/a	n/a	n/a	n/a	n/a
3739.61	n/a	PROB	1869805	n/a	LTP188	ltpFR	8	n/a	n/a	n/a	n/a	n/a	n/a	n/a	15	6	1	8	n/a	n/a	n/a	n/a	n/a
3741.132	n/a	STOP	1870566	n/a	LTP188	ltpFR	8	n/a	n/a	n/a	n/a	n/a	n/a	n/a	n/a	n/a	n/a	n/a	n/a	n/a	n/a	n/a	n/a
3743.404	n/a	WORD	1871702	wordpools/wasnorm_wordpool_less_exclusions.txt	LTP188	ltpFR	8	12	1	DRAGON	492	n/a	n/a	1	n/a	0	0	0	0.57763671875	0.412841796875	1	lower	amplitud.ttf
3746.418	n/a	START	1873209	n/a	LTP188	ltpFR	8	n/a	n/a	n/a	n/a	n/a	n/a	n/a	n/a	n/a	n/a	n/a	n/a	n/a	n/a	n/a	n/a
3747.232	n/a	PROB	1873616	n/a	LTP188	ltpFR	8	n/a	n/a	n/a	n/a	n/a	n/a	n/a	18	1	9	8	n/a	n/a	n/a	n/a	n/a
3748.78	n/a	PROB	1874390	n/a	LTP188	ltpFR	8	n/a	n/a	n/a	n/a	n/a	n/a	n/a	15	8	1	6	n/a	n/a	n/a	n/a	n/a
3750.976	n/a	PROB	1875488	n/a	LTP188	ltpFR	8	n/a	n/a	n/a	n/a	n/a	n/a	n/a	13	1	7	5	n/a	n/a	n/a	n/a	n/a
3753.456	n/a	PROB	1876728	n/a	LTP188	ltpFR	8	n/a	n/a	n/a	n/a	n/a	n/a	n/a	11	9	1	1	n/a	n/a	n/a	n/a	n/a
3754.688	n/a	PROB	1877344	n/a	LTP188	ltpFR	8	n/a	n/a	n/a	n/a	n/a	n/a	n/a	20	8	4	8	n/a	n/a	n/a	n/a	n/a
3756.9	n/a	PROB	1878450	n/a	LTP188	ltpFR	8	n/a	n/a	n/a	n/a	n/a	n/a	n/a	18	8	7	3	n/a	n/a	n/a	n/a	n/a
3758.282	n/a	PROB	1879141	n/a	LTP188	ltpFR	8	n/a	n/a	n/a	n/a	n/a	n/a	n/a	20	8	9	3	n/a	n/a	n/a	n/a	n/a
3760.728	n/a	PROB	1880364	n/a	LTP188	ltpFR	8	n/a	n/a	n/a	n/a	n/a	n/a	n/a	16	7	2	7	n/a	n/a	n/a	n/a	n/a
3762.26	n/a	STOP	1881130	n/a	LTP188	ltpFR	8	n/a	n/a	n/a	n/a	n/a	n/a	n/a	n/a	n/a	n/a	n/a	n/a	n/a	n/a	n/a	n/a
3763.558	n/a	WORD	1881779	wordpools/wasnorm_wordpool_less_exclusions.txt	LTP188	ltpFR	8	12	1	MAP	865	n/a	n/a	1	n/a	0	0	0	0.57763671875	0.412841796875	1	lower	amplitud.ttf
3766.57	n/a	START	1883285	n/a	LTP188	ltpFR	8	n/a	n/a	n/a	n/a	n/a	n/a	n/a	n/a	n/a	n/a	n/a	n/a	n/a	n/a	n/a	n/a
3767.502	n/a	PROB	1883751	n/a	LTP188	ltpFR	8	n/a	n/a	n/a	n/a	n/a	n/a	n/a	12	2	7	3	n/a	n/a	n/a	n/a	n/a
3769.232	n/a	PROB	1884616	n/a	LTP188	ltpFR	8	n/a	n/a	n/a	n/a	n/a	n/a	n/a	19	6	4	9	n/a	n/a	n/a	n/a	n/a
3770.714	n/a	PROB	1885357	n/a	LTP188	ltpFR	8	n/a	n/a	n/a	n/a	n/a	n/a	n/a	12	9	1	2	n/a	n/a	n/a	n/a	n/a
3772.212	n/a	PROB	1886106	n/a	LTP188	ltpFR	8	n/a	n/a	n/a	n/a	n/a	n/a	n/a	23	7	9	7	n/a	n/a	n/a	n/a	n/a
3774.806	n/a	PROB	1887403	n/a	LTP188	ltpFR	8	n/a	n/a	n/a	n/a	n/a	n/a	n/a	15	1	7	7	n/a	n/a	n/a	n/a	n/a
3776.506	n/a	PROB	1888253	n/a	LTP188	ltpFR	8	n/a	n/a	n/a	n/a	n/a	n/a	n/a	18	8	7	3	n/a	n/a	n/a	n/a	n/a
3777.936	n/a	PROB	1888968	n/a	LTP188	ltpFR	8	n/a	n/a	n/a	n/a	n/a	n/a	n/a	17	1	7	9	n/a	n/a	n/a	n/a	n/a
3782.572	n/a	STOP	1891286	n/a	LTP188	ltpFR	8	n/a	n/a	n/a	n/a	n/a	n/a	n/a	n/a	n/a	n/a	n/a	n/a	n/a	n/a	n/a	n/a
3783.612	n/a	WORD	1891806	wordpools/wasnorm_wordpool_less_exclusions.txt	LTP188	ltpFR	8	12	1	ROOF	1205	n/a	n/a	0	n/a	0	0	0	0.57763671875	0.412841796875	1	lower	amplitud.ttf
3786.624	n/a	START	1893312	n/a	LTP188	ltpFR	8	n/a	n/a	n/a	n/a	n/a	n/a	n/a	n/a	n/a	n/a	n/a	n/a	n/a	n/a	n/a	n/a
3787.49	n/a	PROB	1893745	n/a	LTP188	ltpFR	8	n/a	n/a	n/a	n/a	n/a	n/a	n/a	13	2	4	7	n/a	n/a	n/a	n/a	n/a
3789.952	n/a	PROB	1894976	n/a	LTP188	ltpFR	8	n/a	n/a	n/a	n/a	n/a	n/a	n/a	20	9	8	3	n/a	n/a	n/a	n/a	n/a
3793.348	n/a	PROB	1896674	n/a	LTP188	ltpFR	8	n/a	n/a	n/a	n/a	n/a	n/a	n/a	14	1	5	8	n/a	n/a	n/a	n/a	n/a
3796.044	n/a	PROB	1898022	n/a	LTP188	ltpFR	8	n/a	n/a	n/a	n/a	n/a	n/a	n/a	10	3	1	6	n/a	n/a	n/a	n/a	n/a
3797.69	n/a	PROB	1898845	n/a	LTP188	ltpFR	8	n/a	n/a	n/a	n/a	n/a	n/a	n/a	22	8	8	6	n/a	n/a	n/a	n/a	n/a
3800.354	n/a	PROB	1900177	n/a	LTP188	ltpFR	8	n/a	n/a	n/a	n/a	n/a	n/a	n/a	17	3	7	7	n/a	n/a	n/a	n/a	n/a
3802.196	n/a	STOP	1901098	n/a	LTP188	ltpFR	8	n/a	n/a	n/a	n/a	n/a	n/a	n/a	n/a	n/a	n/a	n/a	n/a	n/a	n/a	n/a	n/a
3803.566	n/a	WORD	1901783	wordpools/wasnorm_wordpool_less_exclusions.txt	LTP188	ltpFR	8	12	1	SHINGLE	1285	n/a	n/a	0	n/a	0	0	0	0.57763671875	0.412841796875	1	lower	amplitud.ttf
3806.578	n/a	START	1903289	n/a	LTP188	ltpFR	8	n/a	n/a	n/a	n/a	n/a	n/a	n/a	n/a	n/a	n/a	n/a	n/a	n/a	n/a	n/a	n/a
3807.51	n/a	PROB	1903755	n/a	LTP188	ltpFR	8	n/a	n/a	n/a	n/a	n/a	n/a	n/a	10	3	3	4	n/a	n/a	n/a	n/a	n/a
3809.772	n/a	PROB	1904886	n/a	LTP188	ltpFR	8	n/a	n/a	n/a	n/a	n/a	n/a	n/a	8	4	4	2	n/a	n/a	n/a	n/a	n/a
3811.538	n/a	PROB	1905769	n/a	LTP188	ltpFR	8	n/a	n/a	n/a	n/a	n/a	n/a	n/a	15	8	4	3	n/a	n/a	n/a	n/a	n/a
3813.784	n/a	PROB	1906892	n/a	LTP188	ltpFR	8	n/a	n/a	n/a	n/a	n/a	n/a	n/a	19	8	7	4	n/a	n/a	n/a	n/a	n/a
3816.514	n/a	PROB	1908257	n/a	LTP188	ltpFR	8	n/a	n/a	n/a	n/a	n/a	n/a	n/a	22	6	8	8	n/a	n/a	n/a	n/a	n/a
3818.428	n/a	PROB	1909214	n/a	LTP188	ltpFR	8	n/a	n/a	n/a	n/a	n/a	n/a	n/a	15	4	4	7	n/a	n/a	n/a	n/a	n/a
3822.578	n/a	STOP	1911289	n/a	LTP188	ltpFR	8	n/a	n/a	n/a	n/a	n/a	n/a	n/a	n/a	n/a	n/a	n/a	n/a	n/a	n/a	n/a	n/a
3823.486	n/a	WORD	1911743	wordpools/wasnorm_wordpool_less_exclusions.txt	LTP188	ltpFR	8	12	1	CHIEF	298	n/a	n/a	1	n/a	0	0	0	0.57763671875	0.412841796875	1	lower	amplitud.ttf
3826.498	n/a	START	1913249	n/a	LTP188	ltpFR	8	n/a	n/a	n/a	n/a	n/a	n/a	n/a	n/a	n/a	n/a	n/a	n/a	n/a	n/a	n/a	n/a
3827.314	n/a	PROB	1913657	n/a	LTP188	ltpFR	8	n/a	n/a	n/a	n/a	n/a	n/a	n/a	16	6	7	3	n/a	n/a	n/a	n/a	n/a
3828.678	n/a	PROB	1914339	n/a	LTP188	ltpFR	8	n/a	n/a	n/a	n/a	n/a	n/a	n/a	13	5	2	6	n/a	n/a	n/a	n/a	n/a
3831.442	n/a	PROB	1915721	n/a	LTP188	ltpFR	8	n/a	n/a	n/a	n/a	n/a	n/a	n/a	22	9	9	4	n/a	n/a	n/a	n/a	n/a
3833.138	n/a	PROB	1916569	n/a	LTP188	ltpFR	8	n/a	n/a	n/a	n/a	n/a	n/a	n/a	7	1	4	2	n/a	n/a	n/a	n/a	n/a
3835.716	n/a	PROB	1917858	n/a	LTP188	ltpFR	8	n/a	n/a	n/a	n/a	n/a	n/a	n/a	15	7	5	3	n/a	n/a	n/a	n/a	n/a
3837.898	n/a	PROB	1918949	n/a	LTP188	ltpFR	8	n/a	n/a	n/a	n/a	n/a	n/a	n/a	16	4	4	8	n/a	n/a	n/a	n/a	n/a
3839.86	n/a	PROB	1919930	n/a	LTP188	ltpFR	8	n/a	n/a	n/a	n/a	n/a	n/a	n/a	20	9	6	5	n/a	n/a	n/a	n/a	n/a
3841.684	n/a	STOP	1920842	n/a	LTP188	ltpFR	8	n/a	n/a	n/a	n/a	n/a	n/a	n/a	n/a	n/a	n/a	n/a	n/a	n/a	n/a	n/a	n/a
3843.656	n/a	WORD	1921828	wordpools/wasnorm_wordpool_less_exclusions.txt	LTP188	ltpFR	8	12	1	NOMAD	955	n/a	n/a	1	n/a	0	0	0	0.57763671875	0.412841796875	1	lower	amplitud.ttf
3846.668	n/a	START	1923334	n/a	LTP188	ltpFR	8	n/a	n/a	n/a	n/a	n/a	n/a	n/a	n/a	n/a	n/a	n/a	n/a	n/a	n/a	n/a	n/a
3847.616	n/a	PROB	1923808	n/a	LTP188	ltpFR	8	n/a	n/a	n/a	n/a	n/a	n/a	n/a	23	7	6	9	n/a	n/a	n/a	n/a	n/a
3851.412	n/a	PROB	1925706	n/a	LTP188	ltpFR	8	n/a	n/a	n/a	n/a	n/a	n/a	n/a	22	6	8	8	n/a	n/a	n/a	n/a	n/a
3853.542	n/a	PROB	1926771	n/a	LTP188	ltpFR	8	n/a	n/a	n/a	n/a	n/a	n/a	n/a	22	9	7	5	n/a	n/a	n/a	n/a	n/a
3857.304	n/a	PROB	1928652	n/a	LTP188	ltpFR	8	n/a	n/a	n/a	n/a	n/a	n/a	n/a	16	4	7	5	n/a	n/a	n/a	n/a	n/a
3861.182	n/a	STOP	1930591	n/a	LTP188	ltpFR	8	n/a	n/a	n/a	n/a	n/a	n/a	n/a	n/a	n/a	n/a	n/a	n/a	n/a	n/a	n/a	n/a
3863.56	n/a	WORD	1931780	wordpools/wasnorm_wordpool_less_exclusions.txt	LTP188	ltpFR	8	12	1	ELEVATOR	524	n/a	n/a	0	n/a	0	0	0	0.57763671875	0.412841796875	1	lower	amplitud.ttf
3866.574	n/a	START	1933287	n/a	LTP188	ltpFR	8	n/a	n/a	n/a	n/a	n/a	n/a	n/a	n/a	n/a	n/a	n/a	n/a	n/a	n/a	n/a	n/a
