mstime	trial_type	stim_file	subject	experiment	session	trial	item_name	item_num	list	answer	test_x	test_y	test_z
0	SESS_START	n/a	LTP323	ltpFR2	21	n/a	n/a	n/a	n/a	n/a	0	0	0
12932	START	n/a	LTP323	ltpFR2	21	n/a	n/a	n/a	-1	n/a	n/a	n/a	n/a
12960	PROB	n/a	LTP323	ltpFR2	21	n/a	n/a	n/a	-1	20	9	5	6
14491	PROB	n/a	LTP323	ltpFR2	21	n/a	n/a	n/a	-1	11	4	4	3
16062	PROB	n/a	LTP323	ltpFR2	21	n/a	n/a	n/a	-1	13	1	6	6
17633	PROB	n/a	LTP323	ltpFR2	21	n/a	n/a	n/a	-1	15	4	4	7
19183	PROB	n/a	LTP323	ltpFR2	21	n/a	n/a	n/a	-1	17	7	7	3
20854	PROB	n/a	LTP323	ltpFR2	21	n/a	n/a	n/a	-1	20	5	7	8
22469	PROB	n/a	LTP323	ltpFR2	21	n/a	n/a	n/a	-1	19	5	5	9
23862	STOP	n/a	LTP323	ltpFR2	21	n/a	n/a	n/a	-1	n/a	n/a	n/a	n/a
56447	WORD	wordpools/wasnorm_wordpool_576.txt	LTP323	ltpFR2	21	1	GRAPE	654	n/a	n/a	0	0	0
59137	WORD	wordpools/wasnorm_wordpool_576.txt	LTP323	ltpFR2	21	1	FINGER	567	n/a	n/a	0	0	0
61730	WORD	wordpools/wasnorm_wordpool_576.txt	LTP323	ltpFR2	21	1	GLOVE	642	n/a	n/a	0	0	0
64366	WORD	wordpools/wasnorm_wordpool_576.txt	LTP323	ltpFR2	21	1	SCALPEL	1243	n/a	n/a	0	0	0
67185	WORD	wordpools/wasnorm_wordpool_576.txt	LTP323	ltpFR2	21	1	JAPAN	749	n/a	n/a	0	0	0
69762	WORD	wordpools/wasnorm_wordpool_576.txt	LTP323	ltpFR2	21	1	EUROPE	541	n/a	n/a	0	0	0
72555	WORD	wordpools/wasnorm_wordpool_576.txt	LTP323	ltpFR2	21	1	MAPLE	866	n/a	n/a	0	0	0
75091	WORD	wordpools/wasnorm_wordpool_576.txt	LTP323	ltpFR2	21	1	BRIEFCASE	175	n/a	n/a	0	0	0
77878	WORD	wordpools/wasnorm_wordpool_576.txt	LTP323	ltpFR2	21	1	CHIPMUNK	304	n/a	n/a	0	0	0
80495	WORD	wordpools/wasnorm_wordpool_576.txt	LTP323	ltpFR2	21	1	WAGON	1578	n/a	n/a	0	0	0
83247	WORD	wordpools/wasnorm_wordpool_576.txt	LTP323	ltpFR2	21	1	SHOULDER	1294	n/a	n/a	0	0	0
85900	WORD	wordpools/wasnorm_wordpool_576.txt	LTP323	ltpFR2	21	1	KNIFE	785	n/a	n/a	0	0	0
88560	WORD	wordpools/wasnorm_wordpool_576.txt	LTP323	ltpFR2	21	1	WOMAN	1620	n/a	n/a	0	0	0
91129	WORD	wordpools/wasnorm_wordpool_576.txt	LTP323	ltpFR2	21	1	SPIDER	1351	n/a	n/a	0	0	0
93755	WORD	wordpools/wasnorm_wordpool_576.txt	LTP323	ltpFR2	21	1	HOUND	724	n/a	n/a	0	0	0
96484	WORD	wordpools/wasnorm_wordpool_576.txt	LTP323	ltpFR2	21	1	DUSTPAN	509	n/a	n/a	0	0	0
99052	WORD	wordpools/wasnorm_wordpool_576.txt	LTP323	ltpFR2	21	1	PERMIT	1051	n/a	n/a	0	0	0
101571	WORD	wordpools/wasnorm_wordpool_576.txt	LTP323	ltpFR2	21	1	SUBWAY	1400	n/a	n/a	0	0	0
104291	WORD	wordpools/wasnorm_wordpool_576.txt	LTP323	ltpFR2	21	1	MOP	916	n/a	n/a	0	0	0
106844	WORD	wordpools/wasnorm_wordpool_576.txt	LTP323	ltpFR2	21	1	JUDGE	761	n/a	n/a	0	0	0
109616	WORD	wordpools/wasnorm_wordpool_576.txt	LTP323	ltpFR2	21	1	AGENT	10	n/a	n/a	0	0	0
112035	WORD	wordpools/wasnorm_wordpool_576.txt	LTP323	ltpFR2	21	1	PORK	1108	n/a	n/a	0	0	0
114571	WORD	wordpools/wasnorm_wordpool_576.txt	LTP323	ltpFR2	21	1	RAFT	1159	n/a	n/a	0	0	0
117001	WORD	wordpools/wasnorm_wordpool_576.txt	LTP323	ltpFR2	21	1	GRILL	661	n/a	n/a	0	0	0
118608	START	n/a	LTP323	ltpFR2	21	n/a	n/a	n/a	1	n/a	n/a	n/a	n/a
119449	DISTRACTOR	n/a	LTP323	ltpFR2	21	1	n/a	n/a	n/a	n/a	0	0	0
119458	PROB	n/a	LTP323	ltpFR2	21	n/a	n/a	n/a	1	19	8	2	9
121418	PROB	n/a	LTP323	ltpFR2	21	n/a	n/a	n/a	1	14	3	8	3
123370	PROB	n/a	LTP323	ltpFR2	21	n/a	n/a	n/a	1	9	3	2	4
124855	PROB	n/a	LTP323	ltpFR2	21	n/a	n/a	n/a	1	12	1	9	2
126088	PROB	n/a	LTP323	ltpFR2	21	n/a	n/a	n/a	1	8	3	4	1
127623	PROB	n/a	LTP323	ltpFR2	21	n/a	n/a	n/a	1	18	8	4	6
128975	PROB	n/a	LTP323	ltpFR2	21	n/a	n/a	n/a	1	11	5	2	4
130475	PROB	n/a	LTP323	ltpFR2	21	n/a	n/a	n/a	1	11	7	2	2
131810	PROB	n/a	LTP323	ltpFR2	21	n/a	n/a	n/a	1	12	2	7	3
133028	PROB	n/a	LTP323	ltpFR2	21	n/a	n/a	n/a	1	8	2	1	5
134897	PROB	n/a	LTP323	ltpFR2	21	n/a	n/a	n/a	1	14	4	5	5
136164	PROB	n/a	LTP323	ltpFR2	21	n/a	n/a	n/a	1	15	6	7	2
138482	PROB	n/a	LTP323	ltpFR2	21	n/a	n/a	n/a	1	15	5	9	1
139584	PROB	n/a	LTP323	ltpFR2	21	n/a	n/a	n/a	1	12	2	4	6
141084	PROB	n/a	LTP323	ltpFR2	21	n/a	n/a	n/a	1	16	6	6	4
142261	STOP	n/a	LTP323	ltpFR2	21	n/a	n/a	n/a	1	n/a	n/a	n/a	n/a
144537	REC_START	n/a	LTP323	ltpFR2	21	1	n/a	n/a	n/a	n/a	0	0	0
147582	REC_WORD	wordpools/wasnorm_wordpool_576.txt	LTP323	ltpFR2	21	1	GRAPE	654	n/a	n/a	0	0	0
148221	REC_WORD	wordpools/wasnorm_wordpool_576.txt	LTP323	ltpFR2	21	1	FINGER	567	n/a	n/a	0	0	0
149315	REC_WORD	wordpools/wasnorm_wordpool_576.txt	LTP323	ltpFR2	21	1	SCALPEL	1243	n/a	n/a	0	0	0
153116	REC_WORD	wordpools/wasnorm_wordpool_576.txt	LTP323	ltpFR2	21	1	JAPAN	749	n/a	n/a	0	0	0
153757	REC_WORD	wordpools/wasnorm_wordpool_576.txt	LTP323	ltpFR2	21	1	MAPLE	866	n/a	n/a	0	0	0
154497	REC_WORD	wordpools/wasnorm_wordpool_576.txt	LTP323	ltpFR2	21	1	EUROPE	541	n/a	n/a	0	0	0
155543	REC_WORD	wordpools/wasnorm_wordpool_576.txt	LTP323	ltpFR2	21	1	BRIEFCASE	175	n/a	n/a	0	0	0
157060	REC_WORD_VV	wordpools/wasnorm_wordpool_576.txt	LTP323	ltpFR2	21	1	<>	-1	n/a	n/a	0	0	0
157718	REC_WORD	wordpools/wasnorm_wordpool_576.txt	LTP323	ltpFR2	21	1	CHIPMUNK	304	n/a	n/a	0	0	0
159819	REC_WORD	wordpools/wasnorm_wordpool_576.txt	LTP323	ltpFR2	21	1	KNIFE	785	n/a	n/a	0	0	0
161171	REC_WORD	wordpools/wasnorm_wordpool_576.txt	LTP323	ltpFR2	21	1	WOMAN	1620	n/a	n/a	0	0	0
162497	REC_WORD	wordpools/wasnorm_wordpool_576.txt	LTP323	ltpFR2	21	1	SPIDER	1351	n/a	n/a	0	0	0
163342	REC_WORD	wordpools/wasnorm_wordpool_576.txt	LTP323	ltpFR2	21	1	DUSTPAN	509	n/a	n/a	0	0	0
165267	REC_WORD	wordpools/wasnorm_wordpool_576.txt	LTP323	ltpFR2	21	1	HOUND	724	n/a	n/a	0	0	0
167087	REC_WORD	wordpools/wasnorm_wordpool_576.txt	LTP323	ltpFR2	21	1	PERMIT	1051	n/a	n/a	0	0	0
168914	REC_WORD	wordpools/wasnorm_wordpool_576.txt	LTP323	ltpFR2	21	1	JUDGE	761	n/a	n/a	0	0	0
169848	REC_WORD	wordpools/wasnorm_wordpool_576.txt	LTP323	ltpFR2	21	1	MOP	916	n/a	n/a	0	0	0
170834	REC_WORD	wordpools/wasnorm_wordpool_576.txt	LTP323	ltpFR2	21	1	SUBWAY	1400	n/a	n/a	0	0	0
171834	REC_WORD	wordpools/wasnorm_wordpool_576.txt	LTP323	ltpFR2	21	1	GRILL	661	n/a	n/a	0	0	0
172528	REC_WORD	wordpools/wasnorm_wordpool_576.txt	LTP323	ltpFR2	21	1	PORK	1108	n/a	n/a	0	0	0
173761	REC_WORD	wordpools/wasnorm_wordpool_576.txt	LTP323	ltpFR2	21	1	AGENT	10	n/a	n/a	0	0	0
175154	REC_WORD_VV	wordpools/wasnorm_wordpool_576.txt	LTP323	ltpFR2	21	1	<>	-1	n/a	n/a	0	0	0
200645	REC_WORD	wordpools/wasnorm_wordpool_576.txt	LTP323	ltpFR2	21	1	PERMIT	1051	n/a	n/a	0	0	0
201373	REC_WORD	wordpools/wasnorm_wordpool_576.txt	LTP323	ltpFR2	21	1	SUBWAY	1400	n/a	n/a	0	0	0
209839	REC_WORD	wordpools/wasnorm_wordpool_576.txt	LTP323	ltpFR2	21	1	BRIEFCASE	175	n/a	n/a	0	0	0
212023	REC_WORD	wordpools/wasnorm_wordpool_576.txt	LTP323	ltpFR2	21	1	WAGON	1578	n/a	n/a	0	0	0
235009	WORD	wordpools/wasnorm_wordpool_576.txt	LTP323	ltpFR2	21	2	BEAST	108	n/a	n/a	0	0	0
237498	WORD	wordpools/wasnorm_wordpool_576.txt	LTP323	ltpFR2	21	2	GAZELLE	628	n/a	n/a	0	0	0
240233	WORD	wordpools/wasnorm_wordpool_576.txt	LTP323	ltpFR2	21	2	COSTUME	383	n/a	n/a	0	0	0
242836	WORD	wordpools/wasnorm_wordpool_576.txt	LTP323	ltpFR2	21	2	PANTHER	1009	n/a	n/a	0	0	0
245303	WORD	wordpools/wasnorm_wordpool_576.txt	LTP323	ltpFR2	21	2	LADY	794	n/a	n/a	0	0	0
247978	WORD	wordpools/wasnorm_wordpool_576.txt	LTP323	ltpFR2	21	2	LODGE	839	n/a	n/a	0	0	0
250411	WORD	wordpools/wasnorm_wordpool_576.txt	LTP323	ltpFR2	21	2	CLIMBER	323	n/a	n/a	0	0	0
252960	WORD	wordpools/wasnorm_wordpool_576.txt	LTP323	ltpFR2	21	2	PRIMATE	1123	n/a	n/a	0	0	0
255428	WORD	wordpools/wasnorm_wordpool_576.txt	LTP323	ltpFR2	21	2	POET	1095	n/a	n/a	0	0	0
258030	WORD	wordpools/wasnorm_wordpool_576.txt	LTP323	ltpFR2	21	2	MAMMAL	861	n/a	n/a	0	0	0
260798	WORD	wordpools/wasnorm_wordpool_576.txt	LTP323	ltpFR2	21	2	BINDER	127	n/a	n/a	0	0	0
263290	WORD	wordpools/wasnorm_wordpool_576.txt	LTP323	ltpFR2	21	2	DANCER	437	n/a	n/a	0	0	0
266092	WORD	wordpools/wasnorm_wordpool_576.txt	LTP323	ltpFR2	21	2	DAUGHTER	442	n/a	n/a	0	0	0
268805	WORD	wordpools/wasnorm_wordpool_576.txt	LTP323	ltpFR2	21	2	ANKLE	24	n/a	n/a	0	0	0
271240	WORD	wordpools/wasnorm_wordpool_576.txt	LTP323	ltpFR2	21	2	GAVEL	627	n/a	n/a	0	0	0
273943	WORD	wordpools/wasnorm_wordpool_576.txt	LTP323	ltpFR2	21	2	KETCHUP	771	n/a	n/a	0	0	0
276417	WORD	wordpools/wasnorm_wordpool_576.txt	LTP323	ltpFR2	21	2	RELISH	1183	n/a	n/a	0	0	0
279169	WORD	wordpools/wasnorm_wordpool_576.txt	LTP323	ltpFR2	21	2	POPCORN	1104	n/a	n/a	0	0	0
281665	WORD	wordpools/wasnorm_wordpool_576.txt	LTP323	ltpFR2	21	2	TERMITE	1451	n/a	n/a	0	0	0
284167	WORD	wordpools/wasnorm_wordpool_576.txt	LTP323	ltpFR2	21	2	AUTHOR	61	n/a	n/a	0	0	0
286702	WORD	wordpools/wasnorm_wordpool_576.txt	LTP323	ltpFR2	21	2	BISON	131	n/a	n/a	0	0	0
289136	WORD	wordpools/wasnorm_wordpool_576.txt	LTP323	ltpFR2	21	2	PACKAGE	997	n/a	n/a	0	0	0
291913	WORD	wordpools/wasnorm_wordpool_576.txt	LTP323	ltpFR2	21	2	JEANS	752	n/a	n/a	0	0	0
294524	WORD	wordpools/wasnorm_wordpool_576.txt	LTP323	ltpFR2	21	2	HOSTESS	723	n/a	n/a	0	0	0
296133	START	n/a	LTP323	ltpFR2	21	n/a	n/a	n/a	2	n/a	n/a	n/a	n/a
297325	DISTRACTOR	n/a	LTP323	ltpFR2	21	2	n/a	n/a	n/a	n/a	0	0	0
297333	PROB	n/a	LTP323	ltpFR2	21	n/a	n/a	n/a	2	16	6	3	7
299033	PROB	n/a	LTP323	ltpFR2	21	n/a	n/a	n/a	2	18	9	1	8
300367	PROB	n/a	LTP323	ltpFR2	21	n/a	n/a	n/a	2	7	2	4	1
302170	PROB	n/a	LTP323	ltpFR2	21	n/a	n/a	n/a	2	21	9	7	5
304521	PROB	n/a	LTP323	ltpFR2	21	n/a	n/a	n/a	2	18	5	4	9
305957	PROB	n/a	LTP323	ltpFR2	21	n/a	n/a	n/a	2	9	4	4	1
307256	PROB	n/a	LTP323	ltpFR2	21	n/a	n/a	n/a	2	16	9	1	6
308725	PROB	n/a	LTP323	ltpFR2	21	n/a	n/a	n/a	2	11	1	6	4
309909	PROB	n/a	LTP323	ltpFR2	21	n/a	n/a	n/a	2	12	1	4	7
311309	PROB	n/a	LTP323	ltpFR2	21	n/a	n/a	n/a	2	12	5	2	5
312694	PROB	n/a	LTP323	ltpFR2	21	n/a	n/a	n/a	2	11	5	1	5
313847	PROB	n/a	LTP323	ltpFR2	21	n/a	n/a	n/a	2	14	8	5	1
315431	PROB	n/a	LTP323	ltpFR2	21	n/a	n/a	n/a	2	15	3	6	6
317448	PROB	n/a	LTP323	ltpFR2	21	n/a	n/a	n/a	2	22	9	5	8
319629	STOP	n/a	LTP323	ltpFR2	21	n/a	n/a	n/a	2	n/a	n/a	n/a	n/a
322053	REC_START	n/a	LTP323	ltpFR2	21	2	n/a	n/a	n/a	n/a	0	0	0
325034	REC_WORD	wordpools/wasnorm_wordpool_576.txt	LTP323	ltpFR2	21	2	BEAST	108	n/a	n/a	0	0	0
325905	REC_WORD	wordpools/wasnorm_wordpool_576.txt	LTP323	ltpFR2	21	2	GAZELLE	628	n/a	n/a	0	0	0
328072	REC_WORD	wordpools/wasnorm_wordpool_576.txt	LTP323	ltpFR2	21	2	COSTUME	383	n/a	n/a	0	0	0
328901	REC_WORD	wordpools/wasnorm_wordpool_576.txt	LTP323	ltpFR2	21	2	LADY	794	n/a	n/a	0	0	0
330557	REC_WORD	wordpools/wasnorm_wordpool_576.txt	LTP323	ltpFR2	21	2	PANTHER	1009	n/a	n/a	0	0	0
331621	REC_WORD	wordpools/wasnorm_wordpool_576.txt	LTP323	ltpFR2	21	2	CLIMBER	323	n/a	n/a	0	0	0
332351	REC_WORD	wordpools/wasnorm_wordpool_576.txt	LTP323	ltpFR2	21	2	LODGE	839	n/a	n/a	0	0	0
334460	REC_WORD	wordpools/wasnorm_wordpool_576.txt	LTP323	ltpFR2	21	2	POET	1095	n/a	n/a	0	0	0
334904	REC_WORD	wordpools/wasnorm_wordpool_576.txt	LTP323	ltpFR2	21	2	AUTHOR	61	n/a	n/a	0	0	0
336344	REC_WORD	wordpools/wasnorm_wordpool_576.txt	LTP323	ltpFR2	21	2	BINDER	127	n/a	n/a	0	0	0
338455	REC_WORD	wordpools/wasnorm_wordpool_576.txt	LTP323	ltpFR2	21	2	BISON	131	n/a	n/a	0	0	0
339137	REC_WORD	wordpools/wasnorm_wordpool_576.txt	LTP323	ltpFR2	21	2	JEANS	752	n/a	n/a	0	0	0
340243	REC_WORD	wordpools/wasnorm_wordpool_576.txt	LTP323	ltpFR2	21	2	DAUGHTER	442	n/a	n/a	0	0	0
340910	REC_WORD	wordpools/wasnorm_wordpool_576.txt	LTP323	ltpFR2	21	2	KETCHUP	771	n/a	n/a	0	0	0
341533	REC_WORD	wordpools/wasnorm_wordpool_576.txt	LTP323	ltpFR2	21	2	RELISH	1183	n/a	n/a	0	0	0
342370	REC_WORD	wordpools/wasnorm_wordpool_576.txt	LTP323	ltpFR2	21	2	POPCORN	1104	n/a	n/a	0	0	0
344148	REC_WORD	wordpools/wasnorm_wordpool_576.txt	LTP323	ltpFR2	21	2	TERMITE	1451	n/a	n/a	0	0	0
345470	REC_WORD	wordpools/wasnorm_wordpool_576.txt	LTP323	ltpFR2	21	2	HOSTESS	723	n/a	n/a	0	0	0
348376	REC_WORD	wordpools/wasnorm_wordpool_576.txt	LTP323	ltpFR2	21	2	PACKAGE	997	n/a	n/a	0	0	0
352833	REC_WORD	wordpools/wasnorm_wordpool_576.txt	LTP323	ltpFR2	21	2	DANCER	437	n/a	n/a	0	0	0
354591	REC_WORD	wordpools/wasnorm_wordpool_576.txt	LTP323	ltpFR2	21	2	ANKLE	24	n/a	n/a	0	0	0
360535	REC_WORD	wordpools/wasnorm_wordpool_576.txt	LTP323	ltpFR2	21	2	AUTHOR	61	n/a	n/a	0	0	0
381832	REC_WORD	wordpools/wasnorm_wordpool_576.txt	LTP323	ltpFR2	21	2	LEOPARD	812	n/a	n/a	0	0	0
412514	DISTRACTOR	n/a	LTP323	ltpFR2	21	3	n/a	n/a	n/a	n/a	0	0	0
412514	START	n/a	LTP323	ltpFR2	21	n/a	n/a	n/a	3	n/a	n/a	n/a	n/a
412528	PROB	n/a	LTP323	ltpFR2	21	n/a	n/a	n/a	3	17	8	2	7
414312	PROB	n/a	LTP323	ltpFR2	21	n/a	n/a	n/a	3	18	9	5	4
415679	PROB	n/a	LTP323	ltpFR2	21	n/a	n/a	n/a	3	12	6	5	1
417549	PROB	n/a	LTP323	ltpFR2	21	n/a	n/a	n/a	3	18	8	1	9
418785	PROB	n/a	LTP323	ltpFR2	21	n/a	n/a	n/a	3	8	4	3	1
420501	PROB	n/a	LTP323	ltpFR2	21	n/a	n/a	n/a	3	16	6	6	4
421903	PROB	n/a	LTP323	ltpFR2	21	n/a	n/a	n/a	3	7	1	5	1
423169	PROB	n/a	LTP323	ltpFR2	21	n/a	n/a	n/a	3	14	3	2	9
424787	PROB	n/a	LTP323	ltpFR2	21	n/a	n/a	n/a	3	22	7	7	8
427540	PROB	n/a	LTP323	ltpFR2	21	n/a	n/a	n/a	3	10	5	4	1
428823	PROB	n/a	LTP323	ltpFR2	21	n/a	n/a	n/a	3	15	3	4	8
430278	PROB	n/a	LTP323	ltpFR2	21	n/a	n/a	n/a	3	13	9	1	3
431676	PROB	n/a	LTP323	ltpFR2	21	n/a	n/a	n/a	3	16	8	1	7
433661	PROB	n/a	LTP323	ltpFR2	21	n/a	n/a	n/a	3	14	4	3	7
436514	STOP	n/a	LTP323	ltpFR2	21	n/a	n/a	n/a	3	n/a	n/a	n/a	n/a
437550	WORD	wordpools/wasnorm_wordpool_576.txt	LTP323	ltpFR2	21	3	LAVA	804	n/a	n/a	0	0	0
440069	WORD	wordpools/wasnorm_wordpool_576.txt	LTP323	ltpFR2	21	3	BANQUET	86	n/a	n/a	0	0	0
442788	WORD	wordpools/wasnorm_wordpool_576.txt	LTP323	ltpFR2	21	3	LADDER	793	n/a	n/a	0	0	0
445406	WORD	wordpools/wasnorm_wordpool_576.txt	LTP323	ltpFR2	21	3	VALLEY	1545	n/a	n/a	0	0	0
448058	WORD	wordpools/wasnorm_wordpool_576.txt	LTP323	ltpFR2	21	3	PICNIC	1060	n/a	n/a	0	0	0
450526	WORD	wordpools/wasnorm_wordpool_576.txt	LTP323	ltpFR2	21	3	DIME	466	n/a	n/a	0	0	0
453112	WORD	wordpools/wasnorm_wordpool_576.txt	LTP323	ltpFR2	21	3	CREVICE	405	n/a	n/a	0	0	0
455697	WORD	wordpools/wasnorm_wordpool_576.txt	LTP323	ltpFR2	21	3	VICTIM	1562	n/a	n/a	0	0	0
458516	WORD	wordpools/wasnorm_wordpool_576.txt	LTP323	ltpFR2	21	3	SIBLING	1301	n/a	n/a	0	0	0
461051	WORD	wordpools/wasnorm_wordpool_576.txt	LTP323	ltpFR2	21	3	DRUG	501	n/a	n/a	0	0	0
463622	WORD	wordpools/wasnorm_wordpool_576.txt	LTP323	ltpFR2	21	3	DONKEY	484	n/a	n/a	0	0	0
466122	WORD	wordpools/wasnorm_wordpool_576.txt	LTP323	ltpFR2	21	3	CARRIAGE	248	n/a	n/a	0	0	0
468624	WORD	wordpools/wasnorm_wordpool_576.txt	LTP323	ltpFR2	21	3	DINER	467	n/a	n/a	0	0	0
471142	WORD	wordpools/wasnorm_wordpool_576.txt	LTP323	ltpFR2	21	3	PEDAL	1037	n/a	n/a	0	0	0
473811	WORD	wordpools/wasnorm_wordpool_576.txt	LTP323	ltpFR2	21	3	LAPEL	800	n/a	n/a	0	0	0
476363	WORD	wordpools/wasnorm_wordpool_576.txt	LTP323	ltpFR2	21	3	HARP	689	n/a	n/a	0	0	0
478933	WORD	wordpools/wasnorm_wordpool_576.txt	LTP323	ltpFR2	21	3	BUNNY	198	n/a	n/a	0	0	0
481671	WORD	wordpools/wasnorm_wordpool_576.txt	LTP323	ltpFR2	21	3	VIRUS	1572	n/a	n/a	0	0	0
484335	WORD	wordpools/wasnorm_wordpool_576.txt	LTP323	ltpFR2	21	3	FLESH	579	n/a	n/a	0	0	0
487021	WORD	wordpools/wasnorm_wordpool_576.txt	LTP323	ltpFR2	21	3	DAISY	435	n/a	n/a	0	0	0
489461	WORD	wordpools/wasnorm_wordpool_576.txt	LTP323	ltpFR2	21	3	TOASTER	1472	n/a	n/a	0	0	0
492175	WORD	wordpools/wasnorm_wordpool_576.txt	LTP323	ltpFR2	21	3	REPORT	1184	n/a	n/a	0	0	0
494862	WORD	wordpools/wasnorm_wordpool_576.txt	LTP323	ltpFR2	21	3	PAPER	1011	n/a	n/a	0	0	0
497513	WORD	wordpools/wasnorm_wordpool_576.txt	LTP323	ltpFR2	21	3	BACON	67	n/a	n/a	0	0	0
499131	START	n/a	LTP323	ltpFR2	21	n/a	n/a	n/a	4	n/a	n/a	n/a	n/a
499980	DISTRACTOR	n/a	LTP323	ltpFR2	21	3	n/a	n/a	n/a	n/a	0	0	0
499987	PROB	n/a	LTP323	ltpFR2	21	n/a	n/a	n/a	4	20	9	9	2
502613	PROB	n/a	LTP323	ltpFR2	21	n/a	n/a	n/a	4	14	8	5	1
504321	PROB	n/a	LTP323	ltpFR2	21	n/a	n/a	n/a	4	19	7	3	9
505624	PROB	n/a	LTP323	ltpFR2	21	n/a	n/a	n/a	4	21	8	7	6
509209	PROB	n/a	LTP323	ltpFR2	21	n/a	n/a	n/a	4	14	6	1	7
510575	PROB	n/a	LTP323	ltpFR2	21	n/a	n/a	n/a	4	17	6	8	3
512645	PROB	n/a	LTP323	ltpFR2	21	n/a	n/a	n/a	4	14	8	4	2
514113	PROB	n/a	LTP323	ltpFR2	21	n/a	n/a	n/a	4	10	2	3	5
515447	PROB	n/a	LTP323	ltpFR2	21	n/a	n/a	n/a	4	19	9	7	3
516697	PROB	n/a	LTP323	ltpFR2	21	n/a	n/a	n/a	4	13	9	1	3
517950	PROB	n/a	LTP323	ltpFR2	21	n/a	n/a	n/a	4	16	2	8	6
519399	PROB	n/a	LTP323	ltpFR2	21	n/a	n/a	n/a	4	8	1	6	1
520650	PROB	n/a	LTP323	ltpFR2	21	n/a	n/a	n/a	4	18	6	3	9
522173	STOP	n/a	LTP323	ltpFR2	21	n/a	n/a	n/a	4	n/a	n/a	n/a	n/a
524988	REC_START	n/a	LTP323	ltpFR2	21	3	n/a	n/a	n/a	n/a	0	0	0
527858	REC_WORD_VV	wordpools/wasnorm_wordpool_576.txt	LTP323	ltpFR2	21	3	<>	-1	n/a	n/a	0	0	0
531527	REC_WORD	wordpools/wasnorm_wordpool_576.txt	LTP323	ltpFR2	21	3	LAVA	804	n/a	n/a	0	0	0
532144	REC_WORD	wordpools/wasnorm_wordpool_576.txt	LTP323	ltpFR2	21	3	BANQUET	86	n/a	n/a	0	0	0
532718	REC_WORD	wordpools/wasnorm_wordpool_576.txt	LTP323	ltpFR2	21	3	LADDER	793	n/a	n/a	0	0	0
533323	REC_WORD	wordpools/wasnorm_wordpool_576.txt	LTP323	ltpFR2	21	3	VALLEY	1545	n/a	n/a	0	0	0
534319	REC_WORD	wordpools/wasnorm_wordpool_576.txt	LTP323	ltpFR2	21	3	PICNIC	1060	n/a	n/a	0	0	0
537117	REC_WORD	wordpools/wasnorm_wordpool_576.txt	LTP323	ltpFR2	21	3	PEDAL	1037	n/a	n/a	0	0	0
538158	REC_WORD	wordpools/wasnorm_wordpool_576.txt	LTP323	ltpFR2	21	3	CARRIAGE	248	n/a	n/a	0	0	0
538815	REC_WORD	wordpools/wasnorm_wordpool_576.txt	LTP323	ltpFR2	21	3	DONKEY	484	n/a	n/a	0	0	0
540266	REC_WORD	wordpools/wasnorm_wordpool_576.txt	LTP323	ltpFR2	21	3	DINER	467	n/a	n/a	0	0	0
543070	REC_WORD	wordpools/wasnorm_wordpool_576.txt	LTP323	ltpFR2	21	3	DIME	466	n/a	n/a	0	0	0
544650	REC_WORD	wordpools/wasnorm_wordpool_576.txt	LTP323	ltpFR2	21	3	DRUG	501	n/a	n/a	0	0	0
545086	REC_WORD	wordpools/wasnorm_wordpool_576.txt	LTP323	ltpFR2	21	3	VICTIM	1562	n/a	n/a	0	0	0
545708	REC_WORD	wordpools/wasnorm_wordpool_576.txt	LTP323	ltpFR2	21	3	SIBLING	1301	n/a	n/a	0	0	0
546812	REC_WORD	wordpools/wasnorm_wordpool_576.txt	LTP323	ltpFR2	21	3	DAISY	435	n/a	n/a	0	0	0
547791	REC_WORD	wordpools/wasnorm_wordpool_576.txt	LTP323	ltpFR2	21	3	VIRUS	1572	n/a	n/a	0	0	0
548577	REC_WORD	wordpools/wasnorm_wordpool_576.txt	LTP323	ltpFR2	21	3	FLESH	579	n/a	n/a	0	0	0
551882	REC_WORD	wordpools/wasnorm_wordpool_576.txt	LTP323	ltpFR2	21	3	BUNNY	198	n/a	n/a	0	0	0
552996	REC_WORD	wordpools/wasnorm_wordpool_576.txt	LTP323	ltpFR2	21	3	PAPER	1011	n/a	n/a	0	0	0
554165	REC_WORD	wordpools/wasnorm_wordpool_576.txt	LTP323	ltpFR2	21	3	REPORT	1184	n/a	n/a	0	0	0
554911	REC_WORD	wordpools/wasnorm_wordpool_576.txt	LTP323	ltpFR2	21	3	TOASTER	1472	n/a	n/a	0	0	0
555731	REC_WORD	wordpools/wasnorm_wordpool_576.txt	LTP323	ltpFR2	21	3	BACON	67	n/a	n/a	0	0	0
565940	REC_WORD	wordpools/wasnorm_wordpool_576.txt	LTP323	ltpFR2	21	3	HARP	689	n/a	n/a	0	0	0
566985	REC_WORD	wordpools/wasnorm_wordpool_576.txt	LTP323	ltpFR2	21	3	LAPEL	800	n/a	n/a	0	0	0
570764	REC_WORD	wordpools/wasnorm_wordpool_576.txt	LTP323	ltpFR2	21	3	CARRIAGE	248	n/a	n/a	0	0	0
615433	DISTRACTOR	n/a	LTP323	ltpFR2	21	4	n/a	n/a	n/a	n/a	0	0	0
615433	START	n/a	LTP323	ltpFR2	21	n/a	n/a	n/a	5	n/a	n/a	n/a	n/a
615446	PROB	n/a	LTP323	ltpFR2	21	n/a	n/a	n/a	5	15	1	7	7
616948	PROB	n/a	LTP323	ltpFR2	21	n/a	n/a	n/a	5	16	7	7	2
618700	PROB	n/a	LTP323	ltpFR2	21	n/a	n/a	n/a	5	6	1	1	4
620383	PROB	n/a	LTP323	ltpFR2	21	n/a	n/a	n/a	5	20	8	7	5
621885	PROB	n/a	LTP323	ltpFR2	21	n/a	n/a	n/a	5	9	3	2	4
623719	PROB	n/a	LTP323	ltpFR2	21	n/a	n/a	n/a	5	16	7	1	8
625471	PROB	n/a	LTP323	ltpFR2	21	n/a	n/a	n/a	5	221	9	5	7
627256	PROB	n/a	LTP323	ltpFR2	21	n/a	n/a	n/a	5	12	6	4	2
628859	PROB	n/a	LTP323	ltpFR2	21	n/a	n/a	n/a	5	14	3	2	9
630910	PROB	n/a	LTP323	ltpFR2	21	n/a	n/a	n/a	5	17	9	6	2
632861	PROB	n/a	LTP323	ltpFR2	21	n/a	n/a	n/a	5	19	9	8	2
634415	PROB	n/a	LTP323	ltpFR2	21	n/a	n/a	n/a	5	17	7	4	6
635997	PROB	n/a	LTP323	ltpFR2	21	n/a	n/a	n/a	5	17	7	3	7
637247	PROB	n/a	LTP323	ltpFR2	21	n/a	n/a	n/a	5	14	9	4	1
638918	STOP	n/a	LTP323	ltpFR2	21	n/a	n/a	n/a	5	n/a	n/a	n/a	n/a
640270	WORD	wordpools/wasnorm_wordpool_576.txt	LTP323	ltpFR2	21	4	PEBBLE	1035	n/a	n/a	0	0	0
642789	WORD	wordpools/wasnorm_wordpool_576.txt	LTP323	ltpFR2	21	4	FOREHEAD	592	n/a	n/a	0	0	0
645591	WORD	wordpools/wasnorm_wordpool_576.txt	LTP323	ltpFR2	21	4	SPHINX	1349	n/a	n/a	0	0	0
648159	WORD	wordpools/wasnorm_wordpool_576.txt	LTP323	ltpFR2	21	4	KIDNEY	776	n/a	n/a	0	0	0
650879	WORD	wordpools/wasnorm_wordpool_576.txt	LTP323	ltpFR2	21	4	SMOG	1330	n/a	n/a	0	0	0
653597	WORD	wordpools/wasnorm_wordpool_576.txt	LTP323	ltpFR2	21	4	CLOUD	328	n/a	n/a	0	0	0
656199	WORD	wordpools/wasnorm_wordpool_576.txt	LTP323	ltpFR2	21	4	BRANDY	169	n/a	n/a	0	0	0
658769	WORD	wordpools/wasnorm_wordpool_576.txt	LTP323	ltpFR2	21	4	LACE	792	n/a	n/a	0	0	0
661588	WORD	wordpools/wasnorm_wordpool_576.txt	LTP323	ltpFR2	21	4	SEAGULL	1261	n/a	n/a	0	0	0
664089	WORD	wordpools/wasnorm_wordpool_576.txt	LTP323	ltpFR2	21	4	PILOT	1070	n/a	n/a	0	0	0
666792	WORD	wordpools/wasnorm_wordpool_576.txt	LTP323	ltpFR2	21	4	CATTLE	261	n/a	n/a	0	0	0
669393	WORD	wordpools/wasnorm_wordpool_576.txt	LTP323	ltpFR2	21	4	FUNGUS	614	n/a	n/a	0	0	0
672012	WORD	wordpools/wasnorm_wordpool_576.txt	LTP323	ltpFR2	21	4	GANGSTER	620	n/a	n/a	0	0	0
674515	WORD	wordpools/wasnorm_wordpool_576.txt	LTP323	ltpFR2	21	4	PIANO	1057	n/a	n/a	0	0	0
677133	WORD	wordpools/wasnorm_wordpool_576.txt	LTP323	ltpFR2	21	4	PLAYGROUND	1087	n/a	n/a	0	0	0
679735	WORD	wordpools/wasnorm_wordpool_576.txt	LTP323	ltpFR2	21	4	SHRUB	1299	n/a	n/a	0	0	0
682537	WORD	wordpools/wasnorm_wordpool_576.txt	LTP323	ltpFR2	21	4	STUDENT	1395	n/a	n/a	0	0	0
685122	WORD	wordpools/wasnorm_wordpool_576.txt	LTP323	ltpFR2	21	4	SCALLOP	1242	n/a	n/a	0	0	0
687909	WORD	wordpools/wasnorm_wordpool_576.txt	LTP323	ltpFR2	21	4	FLIPPER	580	n/a	n/a	0	0	0
690543	WORD	wordpools/wasnorm_wordpool_576.txt	LTP323	ltpFR2	21	4	DOLPHIN	483	n/a	n/a	0	0	0
693095	WORD	wordpools/wasnorm_wordpool_576.txt	LTP323	ltpFR2	21	4	GRAVE	658	n/a	n/a	0	0	0
695797	WORD	wordpools/wasnorm_wordpool_576.txt	LTP323	ltpFR2	21	4	PUPIL	1143	n/a	n/a	0	0	0
698249	WORD	wordpools/wasnorm_wordpool_576.txt	LTP323	ltpFR2	21	4	SKIRT	1319	n/a	n/a	0	0	0
701068	WORD	wordpools/wasnorm_wordpool_576.txt	LTP323	ltpFR2	21	4	FRAME	600	n/a	n/a	0	0	0
702686	START	n/a	LTP323	ltpFR2	21	n/a	n/a	n/a	6	n/a	n/a	n/a	n/a
703489	DISTRACTOR	n/a	LTP323	ltpFR2	21	4	n/a	n/a	n/a	n/a	0	0	0
703503	PROB	n/a	LTP323	ltpFR2	21	n/a	n/a	n/a	6	7	3	3	1
705237	PROB	n/a	LTP323	ltpFR2	21	n/a	n/a	n/a	6	14	7	3	4
706602	PROB	n/a	LTP323	ltpFR2	21	n/a	n/a	n/a	6	9	4	3	2
708520	PROB	n/a	LTP323	ltpFR2	21	n/a	n/a	n/a	6	19	7	8	4
710472	PROB	n/a	LTP323	ltpFR2	21	n/a	n/a	n/a	6	8	1	3	4
712109	PROB	n/a	LTP323	ltpFR2	21	n/a	n/a	n/a	6	12	1	5	6
713879	PROB	n/a	LTP323	ltpFR2	21	n/a	n/a	n/a	6	15	2	8	5
715162	PROB	n/a	LTP323	ltpFR2	21	n/a	n/a	n/a	6	12	1	4	7
716549	PROB	n/a	LTP323	ltpFR2	21	n/a	n/a	n/a	6	16	2	8	6
717797	PROB	n/a	LTP323	ltpFR2	21	n/a	n/a	n/a	6	10	4	4	2
719412	PROB	n/a	LTP323	ltpFR2	21	n/a	n/a	n/a	6	14	2	4	8
720848	PROB	n/a	LTP323	ltpFR2	21	n/a	n/a	n/a	6	24	8	7	9
723231	PROB	n/a	LTP323	ltpFR2	21	n/a	n/a	n/a	6	16	8	3	5
726686	STOP	n/a	LTP323	ltpFR2	21	n/a	n/a	n/a	6	n/a	n/a	n/a	n/a
728502	REC_START	n/a	LTP323	ltpFR2	21	4	n/a	n/a	n/a	n/a	0	0	0
729604	REC_WORD_VV	wordpools/wasnorm_wordpool_576.txt	LTP323	ltpFR2	21	4	<>	-1	n/a	n/a	0	0	0
730467	REC_WORD_VV	wordpools/wasnorm_wordpool_576.txt	LTP323	ltpFR2	21	4	<>	-1	n/a	n/a	0	0	0
731441	REC_WORD	wordpools/wasnorm_wordpool_576.txt	LTP323	ltpFR2	21	4	PEBBLE	1035	n/a	n/a	0	0	0
731932	REC_WORD	wordpools/wasnorm_wordpool_576.txt	LTP323	ltpFR2	21	4	FOREHEAD	592	n/a	n/a	0	0	0
732736	REC_WORD	wordpools/wasnorm_wordpool_576.txt	LTP323	ltpFR2	21	4	SPHINX	1349	n/a	n/a	0	0	0
735342	REC_WORD	wordpools/wasnorm_wordpool_576.txt	LTP323	ltpFR2	21	4	KIDNEY	776	n/a	n/a	0	0	0
737249	REC_WORD	wordpools/wasnorm_wordpool_576.txt	LTP323	ltpFR2	21	4	SMOG	1330	n/a	n/a	0	0	0
737862	REC_WORD	wordpools/wasnorm_wordpool_576.txt	LTP323	ltpFR2	21	4	CLOUD	328	n/a	n/a	0	0	0
738521	REC_WORD	wordpools/wasnorm_wordpool_576.txt	LTP323	ltpFR2	21	4	BRANDY	169	n/a	n/a	0	0	0
742309	REC_WORD	wordpools/wasnorm_wordpool_576.txt	LTP323	ltpFR2	21	4	PILOT	1070	n/a	n/a	0	0	0
743075	REC_WORD	wordpools/wasnorm_wordpool_576.txt	LTP323	ltpFR2	21	4	CATTLE	261	n/a	n/a	0	0	0
745435	REC_WORD	wordpools/wasnorm_wordpool_576.txt	LTP323	ltpFR2	21	4	SEAGULL	1261	n/a	n/a	0	0	0
748123	REC_WORD	wordpools/wasnorm_wordpool_576.txt	LTP323	ltpFR2	21	4	SCALLOP	1242	n/a	n/a	0	0	0
748777	REC_WORD	wordpools/wasnorm_wordpool_576.txt	LTP323	ltpFR2	21	4	FLIPPER	580	n/a	n/a	0	0	0
749768	REC_WORD	wordpools/wasnorm_wordpool_576.txt	LTP323	ltpFR2	21	4	DOLPHIN	483	n/a	n/a	0	0	0
750691	REC_WORD	wordpools/wasnorm_wordpool_576.txt	LTP323	ltpFR2	21	4	GRAVE	658	n/a	n/a	0	0	0
752185	REC_WORD	wordpools/wasnorm_wordpool_576.txt	LTP323	ltpFR2	21	4	STUDENT	1395	n/a	n/a	0	0	0
758690	REC_WORD	wordpools/wasnorm_wordpool_576.txt	LTP323	ltpFR2	21	4	PUPIL	1143	n/a	n/a	0	0	0
759222	REC_WORD	wordpools/wasnorm_wordpool_576.txt	LTP323	ltpFR2	21	4	SKIRT	1319	n/a	n/a	0	0	0
784156	REC_WORD	wordpools/wasnorm_wordpool_576.txt	LTP323	ltpFR2	21	4	SHRUB	1299	n/a	n/a	0	0	0
794655	REC_WORD	wordpools/wasnorm_wordpool_576.txt	LTP323	ltpFR2	21	4	FLIPPER	580	n/a	n/a	0	0	0
795270	REC_WORD	wordpools/wasnorm_wordpool_576.txt	LTP323	ltpFR2	21	4	DOLPHIN	483	n/a	n/a	0	0	0
818950	WORD	wordpools/wasnorm_wordpool_576.txt	LTP323	ltpFR2	21	5	BREAST	171	n/a	n/a	0	0	0
821710	WORD	wordpools/wasnorm_wordpool_576.txt	LTP323	ltpFR2	21	5	THRONE	1461	n/a	n/a	0	0	0
824278	WORD	wordpools/wasnorm_wordpool_576.txt	LTP323	ltpFR2	21	5	MACHINE	852	n/a	n/a	0	0	0
826725	WORD	wordpools/wasnorm_wordpool_576.txt	LTP323	ltpFR2	21	5	SHORTCAKE	1292	n/a	n/a	0	0	0
829432	WORD	wordpools/wasnorm_wordpool_576.txt	LTP323	ltpFR2	21	5	TRENCH	1503	n/a	n/a	0	0	0
832196	WORD	wordpools/wasnorm_wordpool_576.txt	LTP323	ltpFR2	21	5	FIREMAN	569	n/a	n/a	0	0	0
834730	WORD	wordpools/wasnorm_wordpool_576.txt	LTP323	ltpFR2	21	5	DRILL	497	n/a	n/a	0	0	0
837166	WORD	wordpools/wasnorm_wordpool_576.txt	LTP323	ltpFR2	21	5	JOURNAL	760	n/a	n/a	0	0	0
839651	WORD	wordpools/wasnorm_wordpool_576.txt	LTP323	ltpFR2	21	5	CONTRACT	368	n/a	n/a	0	0	0
842276	WORD	wordpools/wasnorm_wordpool_576.txt	LTP323	ltpFR2	21	5	NOTEBOOK	959	n/a	n/a	0	0	0
845072	WORD	wordpools/wasnorm_wordpool_576.txt	LTP323	ltpFR2	21	5	ACTOR	5	n/a	n/a	0	0	0
847509	WORD	wordpools/wasnorm_wordpool_576.txt	LTP323	ltpFR2	21	5	ACTRESS	6	n/a	n/a	0	0	0
850277	WORD	wordpools/wasnorm_wordpool_576.txt	LTP323	ltpFR2	21	5	UNCLE	1536	n/a	n/a	0	0	0
852763	WORD	wordpools/wasnorm_wordpool_576.txt	LTP323	ltpFR2	21	5	WASHER	1592	n/a	n/a	0	0	0
855298	WORD	wordpools/wasnorm_wordpool_576.txt	LTP323	ltpFR2	21	5	SLIDE	1326	n/a	n/a	0	0	0
857801	WORD	wordpools/wasnorm_wordpool_576.txt	LTP323	ltpFR2	21	5	WORKER	1621	n/a	n/a	0	0	0
860270	WORD	wordpools/wasnorm_wordpool_576.txt	LTP323	ltpFR2	21	5	QUEEN	1149	n/a	n/a	0	0	0
862938	WORD	wordpools/wasnorm_wordpool_576.txt	LTP323	ltpFR2	21	5	LABEL	790	n/a	n/a	0	0	0
865593	WORD	wordpools/wasnorm_wordpool_576.txt	LTP323	ltpFR2	21	5	HEART	697	n/a	n/a	0	0	0
868293	WORD	wordpools/wasnorm_wordpool_576.txt	LTP323	ltpFR2	21	5	DONOR	485	n/a	n/a	0	0	0
870949	WORD	wordpools/wasnorm_wordpool_576.txt	LTP323	ltpFR2	21	5	CROWN	415	n/a	n/a	0	0	0
873496	WORD	wordpools/wasnorm_wordpool_576.txt	LTP323	ltpFR2	21	5	COD	340	n/a	n/a	0	0	0
876299	WORD	wordpools/wasnorm_wordpool_576.txt	LTP323	ltpFR2	21	5	PLAID	1080	n/a	n/a	0	0	0
879021	WORD	wordpools/wasnorm_wordpool_576.txt	LTP323	ltpFR2	21	5	WHISKERS	1605	n/a	n/a	0	0	0
880637	START	n/a	LTP323	ltpFR2	21	n/a	n/a	n/a	7	n/a	n/a	n/a	n/a
881708	DISTRACTOR	n/a	LTP323	ltpFR2	21	5	n/a	n/a	n/a	n/a	0	0	0
881720	PROB	n/a	LTP323	ltpFR2	21	n/a	n/a	n/a	7	12	2	3	7
883436	PROB	n/a	LTP323	ltpFR2	21	n/a	n/a	n/a	7	17	7	8	2
884870	PROB	n/a	LTP323	ltpFR2	21	n/a	n/a	n/a	7	19	4	7	8
887755	PROB	n/a	LTP323	ltpFR2	21	n/a	n/a	n/a	7	16	3	7	6
889040	PROB	n/a	LTP323	ltpFR2	21	n/a	n/a	n/a	7	19	4	9	6
890324	PROB	n/a	LTP323	ltpFR2	21	n/a	n/a	n/a	7	17	6	9	2
892192	PROB	n/a	LTP323	ltpFR2	21	n/a	n/a	n/a	7	4	1	1	2
893527	PROB	n/a	LTP323	ltpFR2	21	n/a	n/a	n/a	7	16	8	7	1
894980	PROB	n/a	LTP323	ltpFR2	21	n/a	n/a	n/a	7	12	2	5	5
896149	PROB	n/a	LTP323	ltpFR2	21	n/a	n/a	n/a	7	20	6	9	9
898447	PROB	n/a	LTP323	ltpFR2	21	n/a	n/a	n/a	7	20	8	3	9
901855	PROB	n/a	LTP323	ltpFR2	21	n/a	n/a	n/a	7	15	7	3	5
903109	STOP	n/a	LTP323	ltpFR2	21	n/a	n/a	n/a	7	n/a	n/a	n/a	n/a
906455	REC_START	n/a	LTP323	ltpFR2	21	5	n/a	n/a	n/a	n/a	0	0	0
909951	REC_WORD	wordpools/wasnorm_wordpool_576.txt	LTP323	ltpFR2	21	5	BREAST	171	n/a	n/a	0	0	0
910307	REC_WORD	wordpools/wasnorm_wordpool_576.txt	LTP323	ltpFR2	21	5	UNCLE	1536	n/a	n/a	0	0	0
910780	REC_WORD	wordpools/wasnorm_wordpool_576.txt	LTP323	ltpFR2	21	5	SLIDE	1326	n/a	n/a	0	0	0
911456	REC_WORD	wordpools/wasnorm_wordpool_576.txt	LTP323	ltpFR2	21	5	WORKER	1621	n/a	n/a	0	0	0
913112	REC_WORD	wordpools/wasnorm_wordpool_576.txt	LTP323	ltpFR2	21	5	QUEEN	1149	n/a	n/a	0	0	0
914108	REC_WORD	wordpools/wasnorm_wordpool_576.txt	LTP323	ltpFR2	21	5	LABEL	790	n/a	n/a	0	0	0
915278	REC_WORD	wordpools/wasnorm_wordpool_576.txt	LTP323	ltpFR2	21	5	THRONE	1461	n/a	n/a	0	0	0
917063	REC_WORD	wordpools/wasnorm_wordpool_576.txt	LTP323	ltpFR2	21	5	PLAID	1080	n/a	n/a	0	0	0
918535	REC_WORD	wordpools/wasnorm_wordpool_576.txt	LTP323	ltpFR2	21	5	CROWN	415	n/a	n/a	0	0	0
933803	REC_WORD	wordpools/wasnorm_wordpool_576.txt	LTP323	ltpFR2	21	5	TRENCH	1503	n/a	n/a	0	0	0
941470	REC_WORD	wordpools/wasnorm_wordpool_576.txt	LTP323	ltpFR2	21	5	DONOR	485	n/a	n/a	0	0	0
942004	REC_WORD	wordpools/wasnorm_wordpool_576.txt	LTP323	ltpFR2	21	5	HEART	697	n/a	n/a	0	0	0
964683	REC_WORD	wordpools/wasnorm_wordpool_576.txt	LTP323	ltpFR2	21	5	SLIDE	1326	n/a	n/a	0	0	0
965355	REC_WORD	wordpools/wasnorm_wordpool_576.txt	LTP323	ltpFR2	21	5	WORKER	1621	n/a	n/a	0	0	0
972136	REC_WORD	wordpools/wasnorm_wordpool_576.txt	LTP323	ltpFR2	21	5	LABEL	790	n/a	n/a	0	0	0
972698	REC_WORD	wordpools/wasnorm_wordpool_576.txt	LTP323	ltpFR2	21	5	UNCLE	1536	n/a	n/a	0	0	0
974076	REC_WORD	wordpools/wasnorm_wordpool_576.txt	LTP323	ltpFR2	21	5	QUEEN	1149	n/a	n/a	0	0	0
996891	WORD	wordpools/wasnorm_wordpool_576.txt	LTP323	ltpFR2	21	6	APRON	35	n/a	n/a	0	0	0
999385	WORD	wordpools/wasnorm_wordpool_576.txt	LTP323	ltpFR2	21	6	SUPPER	1411	n/a	n/a	0	0	0
1001954	WORD	wordpools/wasnorm_wordpool_576.txt	LTP323	ltpFR2	21	6	PECAN	1036	n/a	n/a	0	0	0
1004406	WORD	wordpools/wasnorm_wordpool_576.txt	LTP323	ltpFR2	21	6	SCARECROW	1245	n/a	n/a	0	0	0
1006868	WORD	wordpools/wasnorm_wordpool_576.txt	LTP323	ltpFR2	21	6	NOVEL	960	n/a	n/a	0	0	0
1009310	WORD	wordpools/wasnorm_wordpool_576.txt	LTP323	ltpFR2	21	6	EXPERT	543	n/a	n/a	0	0	0
1012122	WORD	wordpools/wasnorm_wordpool_576.txt	LTP323	ltpFR2	21	6	STALLION	1369	n/a	n/a	0	0	0
1014797	WORD	wordpools/wasnorm_wordpool_576.txt	LTP323	ltpFR2	21	6	HORSE	719	n/a	n/a	0	0	0
1017433	WORD	wordpools/wasnorm_wordpool_576.txt	LTP323	ltpFR2	21	6	WIDOW	1608	n/a	n/a	0	0	0
1020001	WORD	wordpools/wasnorm_wordpool_576.txt	LTP323	ltpFR2	21	6	BUG	187	n/a	n/a	0	0	0
1022537	WORD	wordpools/wasnorm_wordpool_576.txt	LTP323	ltpFR2	21	6	HORNET	718	n/a	n/a	0	0	0
1025222	WORD	wordpools/wasnorm_wordpool_576.txt	LTP323	ltpFR2	21	6	SPOOL	1356	n/a	n/a	0	0	0
1027876	WORD	wordpools/wasnorm_wordpool_576.txt	LTP323	ltpFR2	21	6	SPARROW	1347	n/a	n/a	0	0	0
1030610	WORD	wordpools/wasnorm_wordpool_576.txt	LTP323	ltpFR2	21	6	TOMBSTONE	1478	n/a	n/a	0	0	0
1033421	WORD	wordpools/wasnorm_wordpool_576.txt	LTP323	ltpFR2	21	6	PIZZA	1079	n/a	n/a	0	0	0
1036099	WORD	wordpools/wasnorm_wordpool_576.txt	LTP323	ltpFR2	21	6	HONEY	713	n/a	n/a	0	0	0
1038625	WORD	wordpools/wasnorm_wordpool_576.txt	LTP323	ltpFR2	21	6	BABY	64	n/a	n/a	0	0	0
1041377	WORD	wordpools/wasnorm_wordpool_576.txt	LTP323	ltpFR2	21	6	JUNGLE	764	n/a	n/a	0	0	0
1044172	WORD	wordpools/wasnorm_wordpool_576.txt	LTP323	ltpFR2	21	6	COOKBOOK	373	n/a	n/a	0	0	0
1046674	WORD	wordpools/wasnorm_wordpool_576.txt	LTP323	ltpFR2	21	6	RATTLE	1170	n/a	n/a	0	0	0
1049410	WORD	wordpools/wasnorm_wordpool_576.txt	LTP323	ltpFR2	21	6	ARM	38	n/a	n/a	0	0	0
1052212	WORD	wordpools/wasnorm_wordpool_576.txt	LTP323	ltpFR2	21	6	VAGRANT	1544	n/a	n/a	0	0	0
1054754	WORD	wordpools/wasnorm_wordpool_576.txt	LTP323	ltpFR2	21	6	TEACHER	1440	n/a	n/a	0	0	0
1057417	WORD	wordpools/wasnorm_wordpool_576.txt	LTP323	ltpFR2	21	6	MARROW	872	n/a	n/a	0	0	0
1059024	START	n/a	LTP323	ltpFR2	21	n/a	n/a	n/a	8	n/a	n/a	n/a	n/a
1059945	DISTRACTOR	n/a	LTP323	ltpFR2	21	6	n/a	n/a	n/a	n/a	0	0	0
1059953	PROB	n/a	LTP323	ltpFR2	21	n/a	n/a	n/a	8	1	8	3	1
1062084	PROB	n/a	LTP323	ltpFR2	21	n/a	n/a	n/a	8	19	9	6	4
1063486	PROB	n/a	LTP323	ltpFR2	21	n/a	n/a	n/a	8	13	3	1	9
1064837	PROB	n/a	LTP323	ltpFR2	21	n/a	n/a	n/a	8	14	5	7	2
1066988	PROB	n/a	LTP323	ltpFR2	21	n/a	n/a	n/a	8	18	9	1	8
1068373	PROB	n/a	LTP323	ltpFR2	21	n/a	n/a	n/a	8	10	4	4	2
1070993	PROB	n/a	LTP323	ltpFR2	21	n/a	n/a	n/a	8	18	9	5	4
1073043	PROB	n/a	LTP323	ltpFR2	21	n/a	n/a	n/a	8	21	6	8	7
1075345	PROB	n/a	LTP323	ltpFR2	21	n/a	n/a	n/a	8	10	6	1	3
1076695	PROB	n/a	LTP323	ltpFR2	21	n/a	n/a	n/a	8	18	8	9	1
1078048	PROB	n/a	LTP323	ltpFR2	21	n/a	n/a	n/a	8	22	5	8	9
1080199	PROB	n/a	LTP323	ltpFR2	21	n/a	n/a	n/a	8	15	7	3	5
1083024	STOP	n/a	LTP323	ltpFR2	21	n/a	n/a	n/a	8	n/a	n/a	n/a	n/a
1084819	REC_START	n/a	LTP323	ltpFR2	21	6	n/a	n/a	n/a	n/a	0	0	0
1085254	REC_WORD_VV	wordpools/wasnorm_wordpool_576.txt	LTP323	ltpFR2	21	6	<>	-1	n/a	n/a	0	0	0
1088318	REC_WORD	wordpools/wasnorm_wordpool_576.txt	LTP323	ltpFR2	21	6	STALLION	1369	n/a	n/a	0	0	0
1089970	REC_WORD	wordpools/wasnorm_wordpool_576.txt	LTP323	ltpFR2	21	6	HORSE	719	n/a	n/a	0	0	0
1092989	REC_WORD	wordpools/wasnorm_wordpool_576.txt	LTP323	ltpFR2	21	6	WIDOW	1608	n/a	n/a	0	0	0
1094410	REC_WORD_VV	wordpools/wasnorm_wordpool_576.txt	LTP323	ltpFR2	21	6	<>	-1	n/a	n/a	0	0	0
1096827	REC_WORD	wordpools/wasnorm_wordpool_576.txt	LTP323	ltpFR2	21	6	ARM	38	n/a	n/a	0	0	0
1103260	REC_WORD	wordpools/wasnorm_wordpool_576.txt	LTP323	ltpFR2	21	6	TOMBSTONE	1478	n/a	n/a	0	0	0
1104417	REC_WORD	wordpools/wasnorm_wordpool_576.txt	LTP323	ltpFR2	21	6	BABY	64	n/a	n/a	0	0	0
1105294	REC_WORD	wordpools/wasnorm_wordpool_576.txt	LTP323	ltpFR2	21	6	SPARROW	1347	n/a	n/a	0	0	0
1107789	REC_WORD_VV	wordpools/wasnorm_wordpool_576.txt	LTP323	ltpFR2	21	6	<>	-1	n/a	n/a	0	0	0
1110926	REC_WORD	wordpools/wasnorm_wordpool_576.txt	LTP323	ltpFR2	21	6	PIZZA	1079	n/a	n/a	0	0	0
1113115	REC_WORD	wordpools/wasnorm_wordpool_576.txt	LTP323	ltpFR2	21	6	RATTLE	1170	n/a	n/a	0	0	0
1120588	REC_WORD	wordpools/wasnorm_wordpool_576.txt	LTP323	ltpFR2	21	6	BUG	187	n/a	n/a	0	0	0
1121104	REC_WORD	wordpools/wasnorm_wordpool_576.txt	LTP323	ltpFR2	21	6	HORNET	718	n/a	n/a	0	0	0
1128207	REC_WORD	wordpools/wasnorm_wordpool_576.txt	LTP323	ltpFR2	21	6	SPOOL	1356	n/a	n/a	0	0	0
1129278	REC_WORD	wordpools/wasnorm_wordpool_576.txt	LTP323	ltpFR2	21	6	THREAD	1460	n/a	n/a	0	0	0
1140246	REC_WORD	wordpools/wasnorm_wordpool_576.txt	LTP323	ltpFR2	21	6	EXPERT	543	n/a	n/a	0	0	0
1175280	DISTRACTOR	n/a	LTP323	ltpFR2	21	7	n/a	n/a	n/a	n/a	0	0	0
1175280	START	n/a	LTP323	ltpFR2	21	n/a	n/a	n/a	9	n/a	n/a	n/a	n/a
1175297	PROB	n/a	LTP323	ltpFR2	21	n/a	n/a	n/a	9	17	7	4	6
1177228	PROB	n/a	LTP323	ltpFR2	21	n/a	n/a	n/a	9	15	1	8	6
1179051	PROB	n/a	LTP323	ltpFR2	21	n/a	n/a	n/a	9	21	3	9	9
1181816	PROB	n/a	LTP323	ltpFR2	21	n/a	n/a	n/a	9	21	8	4	9
1184669	PROB	n/a	LTP323	ltpFR2	21	n/a	n/a	n/a	9	16	2	9	5
1187086	PROB	n/a	LTP323	ltpFR2	21	n/a	n/a	n/a	9	25	8	8	9
1189226	PROB	n/a	LTP323	ltpFR2	21	n/a	n/a	n/a	9	18	7	8	3
1190939	PROB	n/a	LTP323	ltpFR2	21	n/a	n/a	n/a	9	18	7	8	3
1192106	PROB	n/a	LTP323	ltpFR2	21	n/a	n/a	n/a	9	11	6	2	3
1194274	PROB	n/a	LTP323	ltpFR2	21	n/a	n/a	n/a	9	12	5	6	1
1195825	PROB	n/a	LTP323	ltpFR2	21	n/a	n/a	n/a	9	13	5	2	6
1199280	STOP	n/a	LTP323	ltpFR2	21	n/a	n/a	n/a	9	n/a	n/a	n/a	n/a
1200315	WORD	wordpools/wasnorm_wordpool_576.txt	LTP323	ltpFR2	21	7	MASK	876	n/a	n/a	0	0	0
1202834	WORD	wordpools/wasnorm_wordpool_576.txt	LTP323	ltpFR2	21	7	SLUG	1329	n/a	n/a	0	0	0
1205302	WORD	wordpools/wasnorm_wordpool_576.txt	LTP323	ltpFR2	21	7	IDOL	733	n/a	n/a	0	0	0
1208021	WORD	wordpools/wasnorm_wordpool_576.txt	LTP323	ltpFR2	21	7	BUTCHER	203	n/a	n/a	0	0	0
1210811	WORD	wordpools/wasnorm_wordpool_576.txt	LTP323	ltpFR2	21	7	OUTFIT	988	n/a	n/a	0	0	0
1213308	WORD	wordpools/wasnorm_wordpool_576.txt	LTP323	ltpFR2	21	7	NAPKIN	937	n/a	n/a	0	0	0
1215798	WORD	wordpools/wasnorm_wordpool_576.txt	LTP323	ltpFR2	21	7	VALVE	1546	n/a	n/a	0	0	0
1218596	WORD	wordpools/wasnorm_wordpool_576.txt	LTP323	ltpFR2	21	7	CLOTHES	327	n/a	n/a	0	0	0
1221081	WORD	wordpools/wasnorm_wordpool_576.txt	LTP323	ltpFR2	21	7	OUTLAW	989	n/a	n/a	0	0	0
1223834	WORD	wordpools/wasnorm_wordpool_576.txt	LTP323	ltpFR2	21	7	SODA	1341	n/a	n/a	0	0	0
1226473	WORD	wordpools/wasnorm_wordpool_576.txt	LTP323	ltpFR2	21	7	SERVER	1272	n/a	n/a	0	0	0
1229254	WORD	wordpools/wasnorm_wordpool_576.txt	LTP323	ltpFR2	21	7	CUPBOARD	425	n/a	n/a	0	0	0
1231840	WORD	wordpools/wasnorm_wordpool_576.txt	LTP323	ltpFR2	21	7	GLOBE	641	n/a	n/a	0	0	0
1234508	WORD	wordpools/wasnorm_wordpool_576.txt	LTP323	ltpFR2	21	7	PUDDING	1139	n/a	n/a	0	0	0
1237215	WORD	wordpools/wasnorm_wordpool_576.txt	LTP323	ltpFR2	21	7	CASKET	255	n/a	n/a	0	0	0
1239903	WORD	wordpools/wasnorm_wordpool_576.txt	LTP323	ltpFR2	21	7	POISON	1096	n/a	n/a	0	0	0
1242481	WORD	wordpools/wasnorm_wordpool_576.txt	LTP323	ltpFR2	21	7	SPOUSE	1358	n/a	n/a	0	0	0
1244984	WORD	wordpools/wasnorm_wordpool_576.txt	LTP323	ltpFR2	21	7	WIFE	1609	n/a	n/a	0	0	0
1247491	WORD	wordpools/wasnorm_wordpool_576.txt	LTP323	ltpFR2	21	7	SIDEWALK	1303	n/a	n/a	0	0	0
1250137	WORD	wordpools/wasnorm_wordpool_576.txt	LTP323	ltpFR2	21	7	ROCKET	1202	n/a	n/a	0	0	0
1252930	WORD	wordpools/wasnorm_wordpool_576.txt	LTP323	ltpFR2	21	7	LAMP	798	n/a	n/a	0	0	0
1255664	WORD	wordpools/wasnorm_wordpool_576.txt	LTP323	ltpFR2	21	7	THREAD	1460	n/a	n/a	0	0	0
1258476	WORD	wordpools/wasnorm_wordpool_576.txt	LTP323	ltpFR2	21	7	GRAVEL	659	n/a	n/a	0	0	0
1261212	WORD	wordpools/wasnorm_wordpool_576.txt	LTP323	ltpFR2	21	7	YARN	1631	n/a	n/a	0	0	0
1262822	START	n/a	LTP323	ltpFR2	21	n/a	n/a	n/a	10	n/a	n/a	n/a	n/a
1263634	DISTRACTOR	n/a	LTP323	ltpFR2	21	7	n/a	n/a	n/a	n/a	0	0	0
1263646	PROB	n/a	LTP323	ltpFR2	21	n/a	n/a	n/a	10	8	4	3	1
1265486	PROB	n/a	LTP323	ltpFR2	21	n/a	n/a	n/a	10	13	8	3	2
1267238	PROB	n/a	LTP323	ltpFR2	21	n/a	n/a	n/a	10	18	4	7	7
1269607	PROB	n/a	LTP323	ltpFR2	21	n/a	n/a	n/a	10	17	8	4	5
1271459	PROB	n/a	LTP323	ltpFR2	21	n/a	n/a	n/a	10	14	5	7	2
1274077	PROB	n/a	LTP323	ltpFR2	21	n/a	n/a	n/a	10	13	5	4	4
1276228	PROB	n/a	LTP323	ltpFR2	21	n/a	n/a	n/a	10	15	6	5	4
1277613	PROB	n/a	LTP323	ltpFR2	21	n/a	n/a	n/a	10	15	7	4	4
1279482	PROB	n/a	LTP323	ltpFR2	21	n/a	n/a	n/a	10	22	6	9	7
1283352	PROB	n/a	LTP323	ltpFR2	21	n/a	n/a	n/a	10	19	5	9	5
1284822	PROB	n/a	LTP323	ltpFR2	21	n/a	n/a	n/a	10	18	5	6	7
1286357	STOP	n/a	LTP323	ltpFR2	21	n/a	n/a	n/a	10	n/a	n/a	n/a	n/a
1288722	REC_START	n/a	LTP323	ltpFR2	21	7	n/a	n/a	n/a	n/a	0	0	0
1291278	REC_WORD	wordpools/wasnorm_wordpool_576.txt	LTP323	ltpFR2	21	7	SLUG	1329	n/a	n/a	0	0	0
1292373	REC_WORD	wordpools/wasnorm_wordpool_576.txt	LTP323	ltpFR2	21	7	MASK	876	n/a	n/a	0	0	0
1293581	REC_WORD	wordpools/wasnorm_wordpool_576.txt	LTP323	ltpFR2	21	7	BUTCHER	203	n/a	n/a	0	0	0
1295162	REC_WORD_VV	wordpools/wasnorm_wordpool_576.txt	LTP323	ltpFR2	21	7	<>	-1	n/a	n/a	0	0	0
1295791	REC_WORD	wordpools/wasnorm_wordpool_576.txt	LTP323	ltpFR2	21	7	NAPKIN	937	n/a	n/a	0	0	0
1296623	REC_WORD	wordpools/wasnorm_wordpool_576.txt	LTP323	ltpFR2	21	7	VALVE	1546	n/a	n/a	0	0	0
1299022	REC_WORD	wordpools/wasnorm_wordpool_576.txt	LTP323	ltpFR2	21	7	ROCKET	1202	n/a	n/a	0	0	0
1299643	REC_WORD	wordpools/wasnorm_wordpool_576.txt	LTP323	ltpFR2	21	7	LAMP	798	n/a	n/a	0	0	0
1303705	REC_WORD	wordpools/wasnorm_wordpool_576.txt	LTP323	ltpFR2	21	7	GRAVEL	659	n/a	n/a	0	0	0
1304724	REC_WORD	wordpools/wasnorm_wordpool_576.txt	LTP323	ltpFR2	21	7	SIDEWALK	1303	n/a	n/a	0	0	0
1306139	REC_WORD	wordpools/wasnorm_wordpool_576.txt	LTP323	ltpFR2	21	7	THREAD	1460	n/a	n/a	0	0	0
1306672	REC_WORD	wordpools/wasnorm_wordpool_576.txt	LTP323	ltpFR2	21	7	YARN	1631	n/a	n/a	0	0	0
1308172	REC_WORD	wordpools/wasnorm_wordpool_576.txt	LTP323	ltpFR2	21	7	CASKET	255	n/a	n/a	0	0	0
1309004	REC_WORD	wordpools/wasnorm_wordpool_576.txt	LTP323	ltpFR2	21	7	SPOUSE	1358	n/a	n/a	0	0	0
1309978	REC_WORD	wordpools/wasnorm_wordpool_576.txt	LTP323	ltpFR2	21	7	WIFE	1609	n/a	n/a	0	0	0
1310765	REC_WORD	wordpools/wasnorm_wordpool_576.txt	LTP323	ltpFR2	21	7	POISON	1096	n/a	n/a	0	0	0
1313804	REC_WORD	wordpools/wasnorm_wordpool_576.txt	LTP323	ltpFR2	21	7	CUPBOARD	425	n/a	n/a	0	0	0
1314750	REC_WORD	wordpools/wasnorm_wordpool_576.txt	LTP323	ltpFR2	21	7	SODA	1341	n/a	n/a	0	0	0
1315894	REC_WORD	wordpools/wasnorm_wordpool_576.txt	LTP323	ltpFR2	21	7	SERVER	1272	n/a	n/a	0	0	0
1318105	REC_WORD	wordpools/wasnorm_wordpool_576.txt	LTP323	ltpFR2	21	7	GLOBE	641	n/a	n/a	0	0	0
1318708	REC_WORD	wordpools/wasnorm_wordpool_576.txt	LTP323	ltpFR2	21	7	PUDDING	1139	n/a	n/a	0	0	0
1326804	REC_WORD	wordpools/wasnorm_wordpool_576.txt	LTP323	ltpFR2	21	7	CLOTHES	327	n/a	n/a	0	0	0
1328766	REC_WORD	wordpools/wasnorm_wordpool_576.txt	LTP323	ltpFR2	21	7	OUTLAW	989	n/a	n/a	0	0	0
1379181	WORD	wordpools/wasnorm_wordpool_576.txt	LTP323	ltpFR2	21	8	VIKING	1565	n/a	n/a	0	0	0
1381702	WORD	wordpools/wasnorm_wordpool_576.txt	LTP323	ltpFR2	21	8	EYELASH	546	n/a	n/a	0	0	0
1384238	WORD	wordpools/wasnorm_wordpool_576.txt	LTP323	ltpFR2	21	8	STAPLE	1371	n/a	n/a	0	0	0
1386757	WORD	wordpools/wasnorm_wordpool_576.txt	LTP323	ltpFR2	21	8	OFFICE	972	n/a	n/a	0	0	0
1389526	WORD	wordpools/wasnorm_wordpool_576.txt	LTP323	ltpFR2	21	8	TUNNEL	1519	n/a	n/a	0	0	0
1392028	WORD	wordpools/wasnorm_wordpool_576.txt	LTP323	ltpFR2	21	8	CORAL	378	n/a	n/a	0	0	0
1394797	WORD	wordpools/wasnorm_wordpool_576.txt	LTP323	ltpFR2	21	8	LAKE	796	n/a	n/a	0	0	0
1397565	WORD	wordpools/wasnorm_wordpool_576.txt	LTP323	ltpFR2	21	8	BUGGY	188	n/a	n/a	0	0	0
1400000	WORD	wordpools/wasnorm_wordpool_576.txt	LTP323	ltpFR2	21	8	PORTRAIT	1111	n/a	n/a	0	0	0
1402769	WORD	wordpools/wasnorm_wordpool_576.txt	LTP323	ltpFR2	21	8	CEILING	265	n/a	n/a	0	0	0
1405405	WORD	wordpools/wasnorm_wordpool_576.txt	LTP323	ltpFR2	21	8	RUG	1215	n/a	n/a	0	0	0
1408224	WORD	wordpools/wasnorm_wordpool_576.txt	LTP323	ltpFR2	21	8	WORLD	1622	n/a	n/a	0	0	0
1410843	WORD	wordpools/wasnorm_wordpool_576.txt	LTP323	ltpFR2	21	8	FLASHLIGHT	575	n/a	n/a	0	0	0
1413344	WORD	wordpools/wasnorm_wordpool_576.txt	LTP323	ltpFR2	21	8	PEANUT	1032	n/a	n/a	0	0	0
1416130	WORD	wordpools/wasnorm_wordpool_576.txt	LTP323	ltpFR2	21	8	SISTER	1312	n/a	n/a	0	0	0
1418782	WORD	wordpools/wasnorm_wordpool_576.txt	LTP323	ltpFR2	21	8	GROUND	666	n/a	n/a	0	0	0
1421317	WORD	wordpools/wasnorm_wordpool_576.txt	LTP323	ltpFR2	21	8	STONE	1385	n/a	n/a	0	0	0
1423804	WORD	wordpools/wasnorm_wordpool_576.txt	LTP323	ltpFR2	21	8	PISTOL	1075	n/a	n/a	0	0	0
1426371	WORD	wordpools/wasnorm_wordpool_576.txt	LTP323	ltpFR2	21	8	BROTHER	179	n/a	n/a	0	0	0
1429139	WORD	wordpools/wasnorm_wordpool_576.txt	LTP323	ltpFR2	21	8	SEAL	1262	n/a	n/a	0	0	0
1431775	WORD	wordpools/wasnorm_wordpool_576.txt	LTP323	ltpFR2	21	8	SALAD	1224	n/a	n/a	0	0	0
1434544	WORD	wordpools/wasnorm_wordpool_576.txt	LTP323	ltpFR2	21	8	SHERIFF	1284	n/a	n/a	0	0	0
1437262	WORD	wordpools/wasnorm_wordpool_576.txt	LTP323	ltpFR2	21	8	DRINK	498	n/a	n/a	0	0	0
1440014	WORD	wordpools/wasnorm_wordpool_576.txt	LTP323	ltpFR2	21	8	COCKTAIL	338	n/a	n/a	0	0	0
1441633	START	n/a	LTP323	ltpFR2	21	n/a	n/a	n/a	11	n/a	n/a	n/a	n/a
1442758	DISTRACTOR	n/a	LTP323	ltpFR2	21	8	n/a	n/a	n/a	n/a	0	0	0
1442767	PROB	n/a	LTP323	ltpFR2	21	n/a	n/a	n/a	11	12	1	9	2
1445783	PROB	n/a	LTP323	ltpFR2	21	n/a	n/a	n/a	11	15	1	7	7
1447250	PROB	n/a	LTP323	ltpFR2	21	n/a	n/a	n/a	11	20	8	8	4
1449085	PROB	n/a	LTP323	ltpFR2	21	n/a	n/a	n/a	11	7	4	2	1
1450904	PROB	n/a	LTP323	ltpFR2	21	n/a	n/a	n/a	11	17	4	8	5
1453258	PROB	n/a	LTP323	ltpFR2	21	n/a	n/a	n/a	11	18	8	7	3
1454522	PROB	n/a	LTP323	ltpFR2	21	n/a	n/a	n/a	11	11	4	4	3
1456078	PROB	n/a	LTP323	ltpFR2	21	n/a	n/a	n/a	11	19	3	8	8
1458463	PROB	n/a	LTP323	ltpFR2	21	n/a	n/a	n/a	11	21	7	5	9
1460978	PROB	n/a	LTP323	ltpFR2	21	n/a	n/a	n/a	11	12	8	2	2
1462478	PROB	n/a	LTP323	ltpFR2	21	n/a	n/a	n/a	11	10	6	3	1
1465445	STOP	n/a	LTP323	ltpFR2	21	n/a	n/a	n/a	11	n/a	n/a	n/a	n/a
1467386	REC_START	n/a	LTP323	ltpFR2	21	8	n/a	n/a	n/a	n/a	0	0	0
1471942	REC_WORD	wordpools/wasnorm_wordpool_576.txt	LTP323	ltpFR2	21	8	TUNNEL	1519	n/a	n/a	0	0	0
1472505	REC_WORD	wordpools/wasnorm_wordpool_576.txt	LTP323	ltpFR2	21	8	LAKE	796	n/a	n/a	0	0	0
1473534	REC_WORD_VV	wordpools/wasnorm_wordpool_576.txt	LTP323	ltpFR2	21	8	<>	-1	n/a	n/a	0	0	0
1474232	REC_WORD	wordpools/wasnorm_wordpool_576.txt	LTP323	ltpFR2	21	8	CORAL	378	n/a	n/a	0	0	0
1475681	REC_WORD	wordpools/wasnorm_wordpool_576.txt	LTP323	ltpFR2	21	8	WORLD	1622	n/a	n/a	0	0	0
1476294	REC_WORD	wordpools/wasnorm_wordpool_576.txt	LTP323	ltpFR2	21	8	BUGGY	188	n/a	n/a	0	0	0
1476860	REC_WORD	wordpools/wasnorm_wordpool_576.txt	LTP323	ltpFR2	21	8	PORTRAIT	1111	n/a	n/a	0	0	0
1479536	REC_WORD	wordpools/wasnorm_wordpool_576.txt	LTP323	ltpFR2	21	8	CEILING	265	n/a	n/a	0	0	0
1480492	REC_WORD	wordpools/wasnorm_wordpool_576.txt	LTP323	ltpFR2	21	8	RUG	1215	n/a	n/a	0	0	0
1481023	REC_WORD	wordpools/wasnorm_wordpool_576.txt	LTP323	ltpFR2	21	8	GROUND	666	n/a	n/a	0	0	0
1481630	REC_WORD	wordpools/wasnorm_wordpool_576.txt	LTP323	ltpFR2	21	8	STONE	1385	n/a	n/a	0	0	0
1483421	REC_WORD	wordpools/wasnorm_wordpool_576.txt	LTP323	ltpFR2	21	8	SIBLING	1301	n/a	n/a	0	0	0
1484922	REC_WORD	wordpools/wasnorm_wordpool_576.txt	LTP323	ltpFR2	21	8	SISTER	1312	n/a	n/a	0	0	0
1486040	REC_WORD	wordpools/wasnorm_wordpool_576.txt	LTP323	ltpFR2	21	8	BROTHER	179	n/a	n/a	0	0	0
1487164	REC_WORD	wordpools/wasnorm_wordpool_576.txt	LTP323	ltpFR2	21	8	PEANUT	1032	n/a	n/a	0	0	0
1488331	REC_WORD	wordpools/wasnorm_wordpool_576.txt	LTP323	ltpFR2	21	8	FLASHLIGHT	575	n/a	n/a	0	0	0
1490258	REC_WORD	wordpools/wasnorm_wordpool_576.txt	LTP323	ltpFR2	21	8	PISTOL	1075	n/a	n/a	0	0	0
1491469	REC_WORD	wordpools/wasnorm_wordpool_576.txt	LTP323	ltpFR2	21	8	SEAL	1262	n/a	n/a	0	0	0
1493432	REC_WORD	wordpools/wasnorm_wordpool_576.txt	LTP323	ltpFR2	21	8	SHERIFF	1284	n/a	n/a	0	0	0
1495124	REC_WORD	wordpools/wasnorm_wordpool_576.txt	LTP323	ltpFR2	21	8	DRINK	498	n/a	n/a	0	0	0
1496345	REC_WORD	wordpools/wasnorm_wordpool_576.txt	LTP323	ltpFR2	21	8	COCKTAIL	338	n/a	n/a	0	0	0
1543912	REST_REWET	n/a	LTP323	ltpFR2	21	8	n/a	n/a	n/a	n/a	0	0	0
1833860	WORD	wordpools/wasnorm_wordpool_576.txt	LTP323	ltpFR2	21	9	MISTER	901	n/a	n/a	0	0	0
1836665	WORD	wordpools/wasnorm_wordpool_576.txt	LTP323	ltpFR2	21	9	LION	827	n/a	n/a	0	0	0
1839453	WORD	wordpools/wasnorm_wordpool_576.txt	LTP323	ltpFR2	21	9	TRACTOR	1493	n/a	n/a	0	0	0
1842219	WORD	wordpools/wasnorm_wordpool_576.txt	LTP323	ltpFR2	21	9	WITNESS	1618	n/a	n/a	0	0	0
1844654	WORD	wordpools/wasnorm_wordpool_576.txt	LTP323	ltpFR2	21	9	CLOCK	325	n/a	n/a	0	0	0
1847256	WORD	wordpools/wasnorm_wordpool_576.txt	LTP323	ltpFR2	21	9	MILK	895	n/a	n/a	0	0	0
1850025	WORD	wordpools/wasnorm_wordpool_576.txt	LTP323	ltpFR2	21	9	WRIST	1626	n/a	n/a	0	0	0
1852628	WORD	wordpools/wasnorm_wordpool_576.txt	LTP323	ltpFR2	21	9	PISTON	1076	n/a	n/a	0	0	0
1855213	WORD	wordpools/wasnorm_wordpool_576.txt	LTP323	ltpFR2	21	9	KLEENEX	782	n/a	n/a	0	0	0
1857815	WORD	wordpools/wasnorm_wordpool_576.txt	LTP323	ltpFR2	21	9	TROUT	1511	n/a	n/a	0	0	0
1860284	WORD	wordpools/wasnorm_wordpool_576.txt	LTP323	ltpFR2	21	9	GLASS	639	n/a	n/a	0	0	0
1862736	WORD	wordpools/wasnorm_wordpool_576.txt	LTP323	ltpFR2	21	9	MUMMY	932	n/a	n/a	0	0	0
1865238	WORD	wordpools/wasnorm_wordpool_576.txt	LTP323	ltpFR2	21	9	TABLET	1427	n/a	n/a	0	0	0
1867823	WORD	wordpools/wasnorm_wordpool_576.txt	LTP323	ltpFR2	21	9	MARKET	871	n/a	n/a	0	0	0
1870492	WORD	wordpools/wasnorm_wordpool_576.txt	LTP323	ltpFR2	21	9	CAFE	216	n/a	n/a	0	0	0
1872945	WORD	wordpools/wasnorm_wordpool_576.txt	LTP323	ltpFR2	21	9	MEAT	883	n/a	n/a	0	0	0
1875597	WORD	wordpools/wasnorm_wordpool_576.txt	LTP323	ltpFR2	21	9	HANDBAG	684	n/a	n/a	0	0	0
1878098	WORD	wordpools/wasnorm_wordpool_576.txt	LTP323	ltpFR2	21	9	SHELF	1280	n/a	n/a	0	0	0
1880634	WORD	wordpools/wasnorm_wordpool_576.txt	LTP323	ltpFR2	21	9	PARTNER	1017	n/a	n/a	0	0	0
1883436	WORD	wordpools/wasnorm_wordpool_576.txt	LTP323	ltpFR2	21	9	FRIEND	606	n/a	n/a	0	0	0
1885906	WORD	wordpools/wasnorm_wordpool_576.txt	LTP323	ltpFR2	21	9	CHAUFFEUR	283	n/a	n/a	0	0	0
1888389	WORD	wordpools/wasnorm_wordpool_576.txt	LTP323	ltpFR2	21	9	ASIA	46	n/a	n/a	0	0	0
1891025	WORD	wordpools/wasnorm_wordpool_576.txt	LTP323	ltpFR2	21	9	JURY	766	n/a	n/a	0	0	0
1893593	WORD	wordpools/wasnorm_wordpool_576.txt	LTP323	ltpFR2	21	9	HOOD	714	n/a	n/a	0	0	0
1895212	START	n/a	LTP323	ltpFR2	21	n/a	n/a	n/a	12	n/a	n/a	n/a	n/a
1896344	DISTRACTOR	n/a	LTP323	ltpFR2	21	9	n/a	n/a	n/a	n/a	0	0	0
1896362	PROB	n/a	LTP323	ltpFR2	21	n/a	n/a	n/a	12	16	3	8	5
1899598	PROB	n/a	LTP323	ltpFR2	21	n/a	n/a	n/a	12	14	5	6	3
1901598	PROB	n/a	LTP323	ltpFR2	21	n/a	n/a	n/a	12	13	2	2	9
1903336	PROB	n/a	LTP323	ltpFR2	21	n/a	n/a	n/a	12	14	2	8	4
1905368	PROB	n/a	LTP323	ltpFR2	21	n/a	n/a	n/a	12	15	1	5	9
1906838	PROB	n/a	LTP323	ltpFR2	21	n/a	n/a	n/a	12	9	3	2	4
1908704	PROB	n/a	LTP323	ltpFR2	21	n/a	n/a	n/a	12	13	4	3	6
1910171	PROB	n/a	LTP323	ltpFR2	21	n/a	n/a	n/a	12	16	4	6	6
1911574	PROB	n/a	LTP323	ltpFR2	21	n/a	n/a	n/a	12	13	3	6	4
1912962	PROB	n/a	LTP323	ltpFR2	21	n/a	n/a	n/a	12	21	7	8	6
1915558	PROB	n/a	LTP323	ltpFR2	21	n/a	n/a	n/a	12	15	1	8	6
1919211	STOP	n/a	LTP323	ltpFR2	21	n/a	n/a	n/a	12	n/a	n/a	n/a	n/a
1921001	REC_START	n/a	LTP323	ltpFR2	21	9	n/a	n/a	n/a	n/a	0	0	0
1922424	REC_WORD	wordpools/wasnorm_wordpool_576.txt	LTP323	ltpFR2	21	9	MISTER	901	n/a	n/a	0	0	0
1923093	REC_WORD	wordpools/wasnorm_wordpool_576.txt	LTP323	ltpFR2	21	9	LION	827	n/a	n/a	0	0	0
1925586	REC_WORD	wordpools/wasnorm_wordpool_576.txt	LTP323	ltpFR2	21	9	WRIST	1626	n/a	n/a	0	0	0
1926122	REC_WORD	wordpools/wasnorm_wordpool_576.txt	LTP323	ltpFR2	21	9	PISTON	1076	n/a	n/a	0	0	0
1926834	REC_WORD	wordpools/wasnorm_wordpool_576.txt	LTP323	ltpFR2	21	9	KLEENEX	782	n/a	n/a	0	0	0
1928388	REC_WORD_VV	wordpools/wasnorm_wordpool_576.txt	LTP323	ltpFR2	21	9	<>	-1	n/a	n/a	0	0	0
1930420	REC_WORD	wordpools/wasnorm_wordpool_576.txt	LTP323	ltpFR2	21	9	ASIA	46	n/a	n/a	0	0	0
1931223	REC_WORD	wordpools/wasnorm_wordpool_576.txt	LTP323	ltpFR2	21	9	MEAT	883	n/a	n/a	0	0	0
1931656	REC_WORD	wordpools/wasnorm_wordpool_576.txt	LTP323	ltpFR2	21	9	MARKET	871	n/a	n/a	0	0	0
1933472	REC_WORD	wordpools/wasnorm_wordpool_576.txt	LTP323	ltpFR2	21	9	CLOCK	325	n/a	n/a	0	0	0
1934202	REC_WORD	wordpools/wasnorm_wordpool_576.txt	LTP323	ltpFR2	21	9	CAFE	216	n/a	n/a	0	0	0
1934999	REC_WORD	wordpools/wasnorm_wordpool_576.txt	LTP323	ltpFR2	21	9	TROUT	1511	n/a	n/a	0	0	0
1936774	REC_WORD	wordpools/wasnorm_wordpool_576.txt	LTP323	ltpFR2	21	9	CHAUFFEUR	283	n/a	n/a	0	0	0
1940290	REC_WORD	wordpools/wasnorm_wordpool_576.txt	LTP323	ltpFR2	21	9	PARTNER	1017	n/a	n/a	0	0	0
1940837	REC_WORD	wordpools/wasnorm_wordpool_576.txt	LTP323	ltpFR2	21	9	FRIEND	606	n/a	n/a	0	0	0
1942274	REC_WORD	wordpools/wasnorm_wordpool_576.txt	LTP323	ltpFR2	21	9	HANDBAG	684	n/a	n/a	0	0	0
1943111	REC_WORD	wordpools/wasnorm_wordpool_576.txt	LTP323	ltpFR2	21	9	SHELF	1280	n/a	n/a	0	0	0
1954755	REC_WORD	wordpools/wasnorm_wordpool_576.txt	LTP323	ltpFR2	21	9	JURY	766	n/a	n/a	0	0	0
1959034	REC_WORD	wordpools/wasnorm_wordpool_576.txt	LTP323	ltpFR2	21	9	WITNESS	1618	n/a	n/a	0	0	0
2011426	DISTRACTOR	n/a	LTP323	ltpFR2	21	10	n/a	n/a	n/a	n/a	0	0	0
2011426	START	n/a	LTP323	ltpFR2	21	n/a	n/a	n/a	13	n/a	n/a	n/a	n/a
2011440	PROB	n/a	LTP323	ltpFR2	21	n/a	n/a	n/a	13	18	1	8	9
2013191	PROB	n/a	LTP323	ltpFR2	21	n/a	n/a	n/a	13	14	4	5	5
2014411	PROB	n/a	LTP323	ltpFR2	21	n/a	n/a	n/a	13	12	8	3	1
2016513	PROB	n/a	LTP323	ltpFR2	21	n/a	n/a	n/a	13	12	6	1	5
2018097	PROB	n/a	LTP323	ltpFR2	21	n/a	n/a	n/a	13	10	1	8	1
2019480	PROB	n/a	LTP323	ltpFR2	21	n/a	n/a	n/a	13	19	8	4	7
2022016	PROB	n/a	LTP323	ltpFR2	21	n/a	n/a	n/a	13	16	3	9	4
2025052	PROB	n/a	LTP323	ltpFR2	21	n/a	n/a	n/a	13	23	6	8	9
2027253	PROB	n/a	LTP323	ltpFR2	21	n/a	n/a	n/a	13	18	6	5	7
2030005	PROB	n/a	LTP323	ltpFR2	21	n/a	n/a	n/a	13	23	8	8	7
2035426	STOP	n/a	LTP323	ltpFR2	21	n/a	n/a	n/a	13	n/a	n/a	n/a	n/a
2036281	WORD	wordpools/wasnorm_wordpool_576.txt	LTP323	ltpFR2	21	10	CUSTARD	429	n/a	n/a	0	0	0
2038883	WORD	wordpools/wasnorm_wordpool_576.txt	LTP323	ltpFR2	21	10	CAMEL	223	n/a	n/a	0	0	0
2041551	WORD	wordpools/wasnorm_wordpool_576.txt	LTP323	ltpFR2	21	10	PUPPY	1144	n/a	n/a	0	0	0
2044121	WORD	wordpools/wasnorm_wordpool_576.txt	LTP323	ltpFR2	21	10	BASEMENT	94	n/a	n/a	0	0	0
2046722	WORD	wordpools/wasnorm_wordpool_576.txt	LTP323	ltpFR2	21	10	CELLAR	267	n/a	n/a	0	0	0
2049291	WORD	wordpools/wasnorm_wordpool_576.txt	LTP323	ltpFR2	21	10	CRUTCH	417	n/a	n/a	0	0	0
2051765	WORD	wordpools/wasnorm_wordpool_576.txt	LTP323	ltpFR2	21	10	SOFTBALL	1343	n/a	n/a	0	0	0
2054346	WORD	wordpools/wasnorm_wordpool_576.txt	LTP323	ltpFR2	21	10	CATCHER	258	n/a	n/a	0	0	0
2057081	WORD	wordpools/wasnorm_wordpool_576.txt	LTP323	ltpFR2	21	10	SADDLE	1221	n/a	n/a	0	0	0
2059583	WORD	wordpools/wasnorm_wordpool_576.txt	LTP323	ltpFR2	21	10	OX	994	n/a	n/a	0	0	0
2062189	WORD	wordpools/wasnorm_wordpool_576.txt	LTP323	ltpFR2	21	10	GARBAGE	622	n/a	n/a	0	0	0
2064959	WORD	wordpools/wasnorm_wordpool_576.txt	LTP323	ltpFR2	21	10	PLASTER	1085	n/a	n/a	0	0	0
2067756	WORD	wordpools/wasnorm_wordpool_576.txt	LTP323	ltpFR2	21	10	ISLAND	745	n/a	n/a	0	0	0
2070492	WORD	wordpools/wasnorm_wordpool_576.txt	LTP323	ltpFR2	21	10	LUGGAGE	847	n/a	n/a	0	0	0
2073028	WORD	wordpools/wasnorm_wordpool_576.txt	LTP323	ltpFR2	21	10	MATTRESS	879	n/a	n/a	0	0	0
2075663	WORD	wordpools/wasnorm_wordpool_576.txt	LTP323	ltpFR2	21	10	COMPASS	358	n/a	n/a	0	0	0
2078399	WORD	wordpools/wasnorm_wordpool_576.txt	LTP323	ltpFR2	21	10	BIKE	125	n/a	n/a	0	0	0
2081068	WORD	wordpools/wasnorm_wordpool_576.txt	LTP323	ltpFR2	21	10	JELLO	754	n/a	n/a	0	0	0
2083888	WORD	wordpools/wasnorm_wordpool_576.txt	LTP323	ltpFR2	21	10	GALLON	618	n/a	n/a	0	0	0
2086656	WORD	wordpools/wasnorm_wordpool_576.txt	LTP323	ltpFR2	21	10	PICTURE	1061	n/a	n/a	0	0	0
2089258	WORD	wordpools/wasnorm_wordpool_576.txt	LTP323	ltpFR2	21	10	COUSIN	392	n/a	n/a	0	0	0
2092077	WORD	wordpools/wasnorm_wordpool_576.txt	LTP323	ltpFR2	21	10	TOURIST	1488	n/a	n/a	0	0	0
2094696	WORD	wordpools/wasnorm_wordpool_576.txt	LTP323	ltpFR2	21	10	BELLY	119	n/a	n/a	0	0	0
2097414	WORD	wordpools/wasnorm_wordpool_576.txt	LTP323	ltpFR2	21	10	MUFFIN	929	n/a	n/a	0	0	0
2099034	START	n/a	LTP323	ltpFR2	21	n/a	n/a	n/a	14	n/a	n/a	n/a	n/a
2100056	DISTRACTOR	n/a	LTP323	ltpFR2	21	10	n/a	n/a	n/a	n/a	0	0	0
2100067	PROB	n/a	LTP323	ltpFR2	21	n/a	n/a	n/a	14	14	5	8	1
2102549	PROB	n/a	LTP323	ltpFR2	21	n/a	n/a	n/a	14	12	1	8	3
2103951	PROB	n/a	LTP323	ltpFR2	21	n/a	n/a	n/a	14	25	9	7	9
2106670	PROB	n/a	LTP323	ltpFR2	21	n/a	n/a	n/a	14	12	1	7	4
2108137	PROB	n/a	LTP323	ltpFR2	21	n/a	n/a	n/a	14	8	1	5	2
2109689	PROB	n/a	LTP323	ltpFR2	21	n/a	n/a	n/a	14	16	5	5	6
2110924	PROB	n/a	LTP323	ltpFR2	21	n/a	n/a	n/a	14	17	8	2	7
2112325	PROB	n/a	LTP323	ltpFR2	21	n/a	n/a	n/a	14	14	4	9	1
2113678	PROB	n/a	LTP323	ltpFR2	21	n/a	n/a	n/a	14	13	1	6	6
2116762	PROB	n/a	LTP323	ltpFR2	21	n/a	n/a	n/a	14	24	6	9	9
2118582	PROB	n/a	LTP323	ltpFR2	21	n/a	n/a	n/a	14	14	6	5	3
2120297	PROB	n/a	LTP323	ltpFR2	21	n/a	n/a	n/a	14	19	6	8	5
2122637	STOP	n/a	LTP323	ltpFR2	21	n/a	n/a	n/a	14	n/a	n/a	n/a	n/a
2124856	REC_START	n/a	LTP323	ltpFR2	21	10	n/a	n/a	n/a	n/a	0	0	0
2126443	REC_WORD_VV	wordpools/wasnorm_wordpool_576.txt	LTP323	ltpFR2	21	10	<>	-1	n/a	n/a	0	0	0
2132061	REC_WORD	wordpools/wasnorm_wordpool_576.txt	LTP323	ltpFR2	21	10	CAMEL	223	n/a	n/a	0	0	0
2133667	REC_WORD	wordpools/wasnorm_wordpool_576.txt	LTP323	ltpFR2	21	10	BASEMENT	94	n/a	n/a	0	0	0
2134624	REC_WORD	wordpools/wasnorm_wordpool_576.txt	LTP323	ltpFR2	21	10	CELLAR	267	n/a	n/a	0	0	0
2136082	REC_WORD	wordpools/wasnorm_wordpool_576.txt	LTP323	ltpFR2	21	10	PUPPY	1144	n/a	n/a	0	0	0
2139973	REC_WORD	wordpools/wasnorm_wordpool_576.txt	LTP323	ltpFR2	21	10	BIKE	125	n/a	n/a	0	0	0
2141554	REC_WORD	wordpools/wasnorm_wordpool_576.txt	LTP323	ltpFR2	21	10	GALLON	618	n/a	n/a	0	0	0
2142115	REC_WORD	wordpools/wasnorm_wordpool_576.txt	LTP323	ltpFR2	21	10	JELLO	754	n/a	n/a	0	0	0
2145989	REC_WORD	wordpools/wasnorm_wordpool_576.txt	LTP323	ltpFR2	21	10	PICTURE	1061	n/a	n/a	0	0	0
2146708	REC_WORD	wordpools/wasnorm_wordpool_576.txt	LTP323	ltpFR2	21	10	COUSIN	392	n/a	n/a	0	0	0
2148360	REC_WORD	wordpools/wasnorm_wordpool_576.txt	LTP323	ltpFR2	21	10	BELLY	119	n/a	n/a	0	0	0
2166662	REC_WORD	wordpools/wasnorm_wordpool_576.txt	LTP323	ltpFR2	21	10	MATTRESS	879	n/a	n/a	0	0	0
2169019	REC_WORD	wordpools/wasnorm_wordpool_576.txt	LTP323	ltpFR2	21	10	TOURIST	1488	n/a	n/a	0	0	0
2169876	REC_WORD	wordpools/wasnorm_wordpool_576.txt	LTP323	ltpFR2	21	10	LUGGAGE	847	n/a	n/a	0	0	0
2170975	REC_WORD	wordpools/wasnorm_wordpool_576.txt	LTP323	ltpFR2	21	10	ISLAND	745	n/a	n/a	0	0	0
2177445	REC_WORD	wordpools/wasnorm_wordpool_576.txt	LTP323	ltpFR2	21	10	PLASTER	1085	n/a	n/a	0	0	0
2182987	REC_WORD	wordpools/wasnorm_wordpool_576.txt	LTP323	ltpFR2	21	10	GARBAGE	622	n/a	n/a	0	0	0
2215279	DISTRACTOR	n/a	LTP323	ltpFR2	21	11	n/a	n/a	n/a	n/a	0	0	0
2215279	START	n/a	LTP323	ltpFR2	21	n/a	n/a	n/a	15	n/a	n/a	n/a	n/a
2215293	PROB	n/a	LTP323	ltpFR2	21	n/a	n/a	n/a	15	20	9	8	3
2217211	PROB	n/a	LTP323	ltpFR2	21	n/a	n/a	n/a	15	14	3	4	7
2218913	PROB	n/a	LTP323	ltpFR2	21	n/a	n/a	n/a	15	10	1	5	4
2220316	PROB	n/a	LTP323	ltpFR2	21	n/a	n/a	n/a	15	18	9	4	5
2221832	PROB	n/a	LTP323	ltpFR2	21	n/a	n/a	n/a	15	14	9	4	1
2223783	PROB	n/a	LTP323	ltpFR2	21	n/a	n/a	n/a	15	12	2	2	8
2225268	PROB	n/a	LTP323	ltpFR2	21	n/a	n/a	n/a	15	9	2	4	3
2226954	PROB	n/a	LTP323	ltpFR2	21	n/a	n/a	n/a	15	16	4	6	6
2228405	PROB	n/a	LTP323	ltpFR2	21	n/a	n/a	n/a	15	13	3	2	8
2230038	PROB	n/a	LTP323	ltpFR2	21	n/a	n/a	n/a	15	8	4	1	3
2232959	PROB	n/a	LTP323	ltpFR2	21	n/a	n/a	n/a	15	14	4	5	5
2234258	PROB	n/a	LTP323	ltpFR2	21	n/a	n/a	n/a	15	6	2	3	1
2235897	PROB	n/a	LTP323	ltpFR2	21	n/a	n/a	n/a	15	16	6	1	9
2237345	PROB	n/a	LTP323	ltpFR2	21	n/a	n/a	n/a	15	19	4	7	8
2239229	STOP	n/a	LTP323	ltpFR2	21	n/a	n/a	n/a	15	n/a	n/a	n/a	n/a
2240250	WORD	wordpools/wasnorm_wordpool_576.txt	LTP323	ltpFR2	21	11	BATHTUB	100	n/a	n/a	0	0	0
2242702	WORD	wordpools/wasnorm_wordpool_576.txt	LTP323	ltpFR2	21	11	QUARTER	1148	n/a	n/a	0	0	0
2245204	WORD	wordpools/wasnorm_wordpool_576.txt	LTP323	ltpFR2	21	11	BOARD	143	n/a	n/a	0	0	0
2247673	WORD	wordpools/wasnorm_wordpool_576.txt	LTP323	ltpFR2	21	11	WASP	1593	n/a	n/a	0	0	0
2250249	WORD	wordpools/wasnorm_wordpool_576.txt	LTP323	ltpFR2	21	11	JUGGLER	763	n/a	n/a	0	0	0
2252869	WORD	wordpools/wasnorm_wordpool_576.txt	LTP323	ltpFR2	21	11	PLAZA	1088	n/a	n/a	0	0	0
2255663	WORD	wordpools/wasnorm_wordpool_576.txt	LTP323	ltpFR2	21	11	STAKE	1368	n/a	n/a	0	0	0
2258364	WORD	wordpools/wasnorm_wordpool_576.txt	LTP323	ltpFR2	21	11	DRESSER	496	n/a	n/a	0	0	0
2261101	WORD	wordpools/wasnorm_wordpool_576.txt	LTP323	ltpFR2	21	11	FLASK	576	n/a	n/a	0	0	0
2263686	WORD	wordpools/wasnorm_wordpool_576.txt	LTP323	ltpFR2	21	11	WHISTLE	1606	n/a	n/a	0	0	0
2266428	WORD	wordpools/wasnorm_wordpool_576.txt	LTP323	ltpFR2	21	11	POWDER	1117	n/a	n/a	0	0	0
2268908	WORD	wordpools/wasnorm_wordpool_576.txt	LTP323	ltpFR2	21	11	CHEST	295	n/a	n/a	0	0	0
2271449	WORD	wordpools/wasnorm_wordpool_576.txt	LTP323	ltpFR2	21	11	CRICKET	408	n/a	n/a	0	0	0
2274095	WORD	wordpools/wasnorm_wordpool_576.txt	LTP323	ltpFR2	21	11	COCOON	339	n/a	n/a	0	0	0
2276814	WORD	wordpools/wasnorm_wordpool_576.txt	LTP323	ltpFR2	21	11	SPONGE	1355	n/a	n/a	0	0	0
2279583	WORD	wordpools/wasnorm_wordpool_576.txt	LTP323	ltpFR2	21	11	VELVET	1555	n/a	n/a	0	0	0
2282235	WORD	wordpools/wasnorm_wordpool_576.txt	LTP323	ltpFR2	21	11	FREEZER	604	n/a	n/a	0	0	0
2285004	WORD	wordpools/wasnorm_wordpool_576.txt	LTP323	ltpFR2	21	11	BANJO	82	n/a	n/a	0	0	0
2287472	WORD	wordpools/wasnorm_wordpool_576.txt	LTP323	ltpFR2	21	11	CONCERT	360	n/a	n/a	0	0	0
2290096	WORD	wordpools/wasnorm_wordpool_576.txt	LTP323	ltpFR2	21	11	MOTOR	922	n/a	n/a	0	0	0
2292548	WORD	wordpools/wasnorm_wordpool_576.txt	LTP323	ltpFR2	21	11	PADDLE	1000	n/a	n/a	0	0	0
2295346	WORD	wordpools/wasnorm_wordpool_576.txt	LTP323	ltpFR2	21	11	YOLK	1633	n/a	n/a	0	0	0
2297987	WORD	wordpools/wasnorm_wordpool_576.txt	LTP323	ltpFR2	21	11	SUSPECT	1415	n/a	n/a	0	0	0
2300416	WORD	wordpools/wasnorm_wordpool_576.txt	LTP323	ltpFR2	21	11	COBRA	336	n/a	n/a	0	0	0
2302035	START	n/a	LTP323	ltpFR2	21	n/a	n/a	n/a	16	n/a	n/a	n/a	n/a
2302869	DISTRACTOR	n/a	LTP323	ltpFR2	21	11	n/a	n/a	n/a	n/a	0	0	0
2302887	PROB	n/a	LTP323	ltpFR2	21	n/a	n/a	n/a	16	16	5	8	3
2304837	PROB	n/a	LTP323	ltpFR2	21	n/a	n/a	n/a	16	17	5	6	6
2308687	PROB	n/a	LTP323	ltpFR2	21	n/a	n/a	n/a	16	18	4	8	6
2310038	PROB	n/a	LTP323	ltpFR2	21	n/a	n/a	n/a	16	11	1	9	1
2311289	PROB	n/a	LTP323	ltpFR2	21	n/a	n/a	n/a	16	21	9	7	5
2312891	PROB	n/a	LTP323	ltpFR2	21	n/a	n/a	n/a	16	9	2	3	4
2314826	PROB	n/a	LTP323	ltpFR2	21	n/a	n/a	n/a	16	14	3	3	8
2316344	PROB	n/a	LTP323	ltpFR2	21	n/a	n/a	n/a	16	18	8	9	1
2318148	PROB	n/a	LTP323	ltpFR2	21	n/a	n/a	n/a	16	10	3	2	5
2320450	PROB	n/a	LTP323	ltpFR2	21	n/a	n/a	n/a	16	20	8	6	6
2323852	PROB	n/a	LTP323	ltpFR2	21	n/a	n/a	n/a	16	11	2	2	7
2325213	STOP	n/a	LTP323	ltpFR2	21	n/a	n/a	n/a	16	n/a	n/a	n/a	n/a
2327975	REC_START	n/a	LTP323	ltpFR2	21	11	n/a	n/a	n/a	n/a	0	0	0
2329082	REC_WORD_VV	wordpools/wasnorm_wordpool_576.txt	LTP323	ltpFR2	21	11	<>	-1	n/a	n/a	0	0	0
2332481	REC_WORD	wordpools/wasnorm_wordpool_576.txt	LTP323	ltpFR2	21	11	BATHTUB	100	n/a	n/a	0	0	0
2333777	REC_WORD	wordpools/wasnorm_wordpool_576.txt	LTP323	ltpFR2	21	11	BOARD	143	n/a	n/a	0	0	0
2335346	REC_WORD	wordpools/wasnorm_wordpool_576.txt	LTP323	ltpFR2	21	11	PLAZA	1088	n/a	n/a	0	0	0
2335877	REC_WORD	wordpools/wasnorm_wordpool_576.txt	LTP323	ltpFR2	21	11	JUGGLER	763	n/a	n/a	0	0	0
2337068	REC_WORD	wordpools/wasnorm_wordpool_576.txt	LTP323	ltpFR2	21	11	STAKE	1368	n/a	n/a	0	0	0
2337687	REC_WORD	wordpools/wasnorm_wordpool_576.txt	LTP323	ltpFR2	21	11	DRESSER	496	n/a	n/a	0	0	0
2338750	REC_WORD	wordpools/wasnorm_wordpool_576.txt	LTP323	ltpFR2	21	11	FLASK	576	n/a	n/a	0	0	0
2339743	REC_WORD	wordpools/wasnorm_wordpool_576.txt	LTP323	ltpFR2	21	11	CONCERT	360	n/a	n/a	0	0	0
2340818	REC_WORD	wordpools/wasnorm_wordpool_576.txt	LTP323	ltpFR2	21	11	BANJO	82	n/a	n/a	0	0	0
2343221	REC_WORD	wordpools/wasnorm_wordpool_576.txt	LTP323	ltpFR2	21	11	VELVET	1555	n/a	n/a	0	0	0
2344907	REC_WORD	wordpools/wasnorm_wordpool_576.txt	LTP323	ltpFR2	21	11	CHEST	295	n/a	n/a	0	0	0
2345616	REC_WORD	wordpools/wasnorm_wordpool_576.txt	LTP323	ltpFR2	21	11	POWDER	1117	n/a	n/a	0	0	0
2346289	REC_WORD	wordpools/wasnorm_wordpool_576.txt	LTP323	ltpFR2	21	11	SPONGE	1355	n/a	n/a	0	0	0
2348840	REC_WORD	wordpools/wasnorm_wordpool_576.txt	LTP323	ltpFR2	21	11	WHISTLE	1606	n/a	n/a	0	0	0
2354687	REC_WORD	wordpools/wasnorm_wordpool_576.txt	LTP323	ltpFR2	21	11	COCOON	339	n/a	n/a	0	0	0
2385803	REC_WORD	wordpools/wasnorm_wordpool_576.txt	LTP323	ltpFR2	21	11	WASP	1593	n/a	n/a	0	0	0
2397275	REC_WORD	wordpools/wasnorm_wordpool_576.txt	LTP323	ltpFR2	21	11	CATCHER	258	n/a	n/a	0	0	0
2399093	REC_WORD	wordpools/wasnorm_wordpool_576.txt	LTP323	ltpFR2	21	11	SOFTBALL	1343	n/a	n/a	0	0	0
2418428	DISTRACTOR	n/a	LTP323	ltpFR2	21	12	n/a	n/a	n/a	n/a	0	0	0
2418428	START	n/a	LTP323	ltpFR2	21	n/a	n/a	n/a	17	n/a	n/a	n/a	n/a
2418442	PROB	n/a	LTP323	ltpFR2	21	n/a	n/a	n/a	17	18	8	1	9
2420459	PROB	n/a	LTP323	ltpFR2	21	n/a	n/a	n/a	17	13	4	1	8
2423379	PROB	n/a	LTP323	ltpFR2	21	n/a	n/a	n/a	17	1	1	8	7
2425162	PROB	n/a	LTP323	ltpFR2	21	n/a	n/a	n/a	17	18	6	5	7
2429215	PROB	n/a	LTP323	ltpFR2	21	n/a	n/a	n/a	17	22	9	7	6
2432585	PROB	n/a	LTP323	ltpFR2	21	n/a	n/a	n/a	17	22	5	7	9
2434941	PROB	n/a	LTP323	ltpFR2	21	n/a	n/a	n/a	17	13	6	2	5
2437395	PROB	n/a	LTP323	ltpFR2	21	n/a	n/a	n/a	17	6	1	1	4
2438812	PROB	n/a	LTP323	ltpFR2	21	n/a	n/a	n/a	17	18	8	1	9
2440233	PROB	n/a	LTP323	ltpFR2	21	n/a	n/a	n/a	17	13	1	6	6
2441621	STOP	n/a	LTP323	ltpFR2	21	n/a	n/a	n/a	17	n/a	n/a	n/a	n/a
2443246	WORD	wordpools/wasnorm_wordpool_576.txt	LTP323	ltpFR2	21	12	ROBIN	1199	n/a	n/a	0	0	0
2445872	WORD	wordpools/wasnorm_wordpool_576.txt	LTP323	ltpFR2	21	12	NOMAD	955	n/a	n/a	0	0	0
2448317	WORD	wordpools/wasnorm_wordpool_576.txt	LTP323	ltpFR2	21	12	SLOPE	1328	n/a	n/a	0	0	0
2451052	WORD	wordpools/wasnorm_wordpool_576.txt	LTP323	ltpFR2	21	12	LOFT	840	n/a	n/a	0	0	0
2453855	WORD	wordpools/wasnorm_wordpool_576.txt	LTP323	ltpFR2	21	12	APPLE	33	n/a	n/a	0	0	0
2456412	WORD	wordpools/wasnorm_wordpool_576.txt	LTP323	ltpFR2	21	12	FRUIT	610	n/a	n/a	0	0	0
2458967	WORD	wordpools/wasnorm_wordpool_576.txt	LTP323	ltpFR2	21	12	HIKER	708	n/a	n/a	0	0	0
2461476	WORD	wordpools/wasnorm_wordpool_576.txt	LTP323	ltpFR2	21	12	AWARD	63	n/a	n/a	0	0	0
2463913	WORD	wordpools/wasnorm_wordpool_576.txt	LTP323	ltpFR2	21	12	TRIBE	1505	n/a	n/a	0	0	0
2466531	WORD	wordpools/wasnorm_wordpool_576.txt	LTP323	ltpFR2	21	12	TROMBONE	1508	n/a	n/a	0	0	0
2469040	WORD	wordpools/wasnorm_wordpool_576.txt	LTP323	ltpFR2	21	12	ITEM	746	n/a	n/a	0	0	0
2471836	WORD	wordpools/wasnorm_wordpool_576.txt	LTP323	ltpFR2	21	12	MARINE	869	n/a	n/a	0	0	0
2474629	WORD	wordpools/wasnorm_wordpool_576.txt	LTP323	ltpFR2	21	12	TURKEY	1520	n/a	n/a	0	0	0
2477072	WORD	wordpools/wasnorm_wordpool_576.txt	LTP323	ltpFR2	21	12	PENGUIN	1044	n/a	n/a	0	0	0
2479716	WORD	wordpools/wasnorm_wordpool_576.txt	LTP323	ltpFR2	21	12	MARS	873	n/a	n/a	0	0	0
2482209	WORD	wordpools/wasnorm_wordpool_576.txt	LTP323	ltpFR2	21	12	PREACHER	1119	n/a	n/a	0	0	0
2484777	WORD	wordpools/wasnorm_wordpool_576.txt	LTP323	ltpFR2	21	12	TAXI	1438	n/a	n/a	0	0	0
2487564	WORD	wordpools/wasnorm_wordpool_576.txt	LTP323	ltpFR2	21	12	BRAKE	166	n/a	n/a	0	0	0
2490316	WORD	wordpools/wasnorm_wordpool_576.txt	LTP323	ltpFR2	21	12	ZIPPER	1636	n/a	n/a	0	0	0
2493035	WORD	wordpools/wasnorm_wordpool_576.txt	LTP323	ltpFR2	21	12	AIRPLANE	12	n/a	n/a	0	0	0
2495662	WORD	wordpools/wasnorm_wordpool_576.txt	LTP323	ltpFR2	21	12	SWAMP	1416	n/a	n/a	0	0	0
2498081	WORD	wordpools/wasnorm_wordpool_576.txt	LTP323	ltpFR2	21	12	CRITIC	410	n/a	n/a	0	0	0
2500823	WORD	wordpools/wasnorm_wordpool_576.txt	LTP323	ltpFR2	21	12	HEADBAND	696	n/a	n/a	0	0	0
2503485	WORD	wordpools/wasnorm_wordpool_576.txt	LTP323	ltpFR2	21	12	STAR	1373	n/a	n/a	0	0	0
2505093	START	n/a	LTP323	ltpFR2	21	n/a	n/a	n/a	18	n/a	n/a	n/a	n/a
2505962	DISTRACTOR	n/a	LTP323	ltpFR2	21	12	n/a	n/a	n/a	n/a	0	0	0
2505972	PROB	n/a	LTP323	ltpFR2	21	n/a	n/a	n/a	18	20	9	3	8
2508770	PROB	n/a	LTP323	ltpFR2	21	n/a	n/a	n/a	18	16	6	8	2
2510171	PROB	n/a	LTP323	ltpFR2	21	n/a	n/a	n/a	18	18	5	9	4
2511974	PROB	n/a	LTP323	ltpFR2	21	n/a	n/a	n/a	18	18	4	8	6
2513976	PROB	n/a	LTP323	ltpFR2	21	n/a	n/a	n/a	18	8	1	5	2
2515709	PROB	n/a	LTP323	ltpFR2	21	n/a	n/a	n/a	18	14	7	5	2
2517428	PROB	n/a	LTP323	ltpFR2	21	n/a	n/a	n/a	18	14	5	3	6
2519296	PROB	n/a	LTP323	ltpFR2	21	n/a	n/a	n/a	18	15	6	1	8
2521167	PROB	n/a	LTP323	ltpFR2	21	n/a	n/a	n/a	18	17	7	7	3
2522584	PROB	n/a	LTP323	ltpFR2	21	n/a	n/a	n/a	18	16	7	3	6
2523834	PROB	n/a	LTP323	ltpFR2	21	n/a	n/a	n/a	18	16	9	3	4
2525604	PROB	n/a	LTP323	ltpFR2	21	n/a	n/a	n/a	18	20	9	6	5
2527202	PROB	n/a	LTP323	ltpFR2	21	n/a	n/a	n/a	18	16	9	4	3
2528613	STOP	n/a	LTP323	ltpFR2	21	n/a	n/a	n/a	18	n/a	n/a	n/a	n/a
2531042	REC_START	n/a	LTP323	ltpFR2	21	12	n/a	n/a	n/a	n/a	0	0	0
2534673	REC_WORD	wordpools/wasnorm_wordpool_576.txt	LTP323	ltpFR2	21	12	ROBIN	1199	n/a	n/a	0	0	0
2535509	REC_WORD	wordpools/wasnorm_wordpool_576.txt	LTP323	ltpFR2	21	12	SLOPE	1328	n/a	n/a	0	0	0
2536420	REC_WORD	wordpools/wasnorm_wordpool_576.txt	LTP323	ltpFR2	21	12	NOMAD	955	n/a	n/a	0	0	0
2537681	REC_WORD	wordpools/wasnorm_wordpool_576.txt	LTP323	ltpFR2	21	12	LOFT	840	n/a	n/a	0	0	0
2538673	REC_WORD	wordpools/wasnorm_wordpool_576.txt	LTP323	ltpFR2	21	12	APPLE	33	n/a	n/a	0	0	0
2539307	REC_WORD	wordpools/wasnorm_wordpool_576.txt	LTP323	ltpFR2	21	12	FRUIT	610	n/a	n/a	0	0	0
2541341	REC_WORD_VV	wordpools/wasnorm_wordpool_576.txt	LTP323	ltpFR2	21	12	<>	-1	n/a	n/a	0	0	0
2542378	REC_WORD_VV	wordpools/wasnorm_wordpool_576.txt	LTP323	ltpFR2	21	12	<>	-1	n/a	n/a	0	0	0
2543736	REC_WORD	wordpools/wasnorm_wordpool_576.txt	LTP323	ltpFR2	21	12	HIKER	708	n/a	n/a	0	0	0
2546800	REC_WORD	wordpools/wasnorm_wordpool_576.txt	LTP323	ltpFR2	21	12	TURKEY	1520	n/a	n/a	0	0	0
2548519	REC_WORD	wordpools/wasnorm_wordpool_576.txt	LTP323	ltpFR2	21	12	MARINE	869	n/a	n/a	0	0	0
2549460	REC_WORD	wordpools/wasnorm_wordpool_576.txt	LTP323	ltpFR2	21	12	TRIBE	1505	n/a	n/a	0	0	0
2550161	REC_WORD	wordpools/wasnorm_wordpool_576.txt	LTP323	ltpFR2	21	12	AWARD	63	n/a	n/a	0	0	0
2550982	REC_WORD	wordpools/wasnorm_wordpool_576.txt	LTP323	ltpFR2	21	12	TROMBONE	1508	n/a	n/a	0	0	0
2551697	REC_WORD	wordpools/wasnorm_wordpool_576.txt	LTP323	ltpFR2	21	12	ITEM	746	n/a	n/a	0	0	0
2554662	REC_WORD	wordpools/wasnorm_wordpool_576.txt	LTP323	ltpFR2	21	12	PENGUIN	1044	n/a	n/a	0	0	0
2556389	REC_WORD	wordpools/wasnorm_wordpool_576.txt	LTP323	ltpFR2	21	12	MARS	873	n/a	n/a	0	0	0
2558227	REC_WORD	wordpools/wasnorm_wordpool_576.txt	LTP323	ltpFR2	21	12	STAR	1373	n/a	n/a	0	0	0
2560124	REC_WORD	wordpools/wasnorm_wordpool_576.txt	LTP323	ltpFR2	21	12	HEADBAND	696	n/a	n/a	0	0	0
2560936	REC_WORD	wordpools/wasnorm_wordpool_576.txt	LTP323	ltpFR2	21	12	CRITIC	410	n/a	n/a	0	0	0
2561381	REC_WORD	wordpools/wasnorm_wordpool_576.txt	LTP323	ltpFR2	21	12	SWAMP	1416	n/a	n/a	0	0	0
2562346	REC_WORD	wordpools/wasnorm_wordpool_576.txt	LTP323	ltpFR2	21	12	PREACHER	1119	n/a	n/a	0	0	0
2566075	REC_WORD	wordpools/wasnorm_wordpool_576.txt	LTP323	ltpFR2	21	12	TAXI	1438	n/a	n/a	0	0	0
2566926	REC_WORD	wordpools/wasnorm_wordpool_576.txt	LTP323	ltpFR2	21	12	BRAKE	166	n/a	n/a	0	0	0
2573658	REC_WORD	wordpools/wasnorm_wordpool_576.txt	LTP323	ltpFR2	21	12	ZIPPER	1636	n/a	n/a	0	0	0
2584615	REC_WORD	wordpools/wasnorm_wordpool_576.txt	LTP323	ltpFR2	21	12	NOMAD	955	n/a	n/a	0	0	0
2600636	REC_WORD	wordpools/wasnorm_wordpool_576.txt	LTP323	ltpFR2	21	12	MARINE	869	n/a	n/a	0	0	0
2621517	WORD	wordpools/wasnorm_wordpool_576.txt	LTP323	ltpFR2	21	13	STOMACH	1384	n/a	n/a	0	0	0
2624001	WORD	wordpools/wasnorm_wordpool_576.txt	LTP323	ltpFR2	21	13	FRAGRANCE	599	n/a	n/a	0	0	0
2626786	WORD	wordpools/wasnorm_wordpool_576.txt	LTP323	ltpFR2	21	13	CIGAR	308	n/a	n/a	0	0	0
2629288	WORD	wordpools/wasnorm_wordpool_576.txt	LTP323	ltpFR2	21	13	SHOVEL	1295	n/a	n/a	0	0	0
2632024	WORD	wordpools/wasnorm_wordpool_576.txt	LTP323	ltpFR2	21	13	SLIME	1327	n/a	n/a	0	0	0
2634779	WORD	wordpools/wasnorm_wordpool_576.txt	LTP323	ltpFR2	21	13	OINTMENT	974	n/a	n/a	0	0	0
2637244	WORD	wordpools/wasnorm_wordpool_576.txt	LTP323	ltpFR2	21	13	SKETCH	1315	n/a	n/a	0	0	0
2639914	WORD	wordpools/wasnorm_wordpool_576.txt	LTP323	ltpFR2	21	13	GIRL	637	n/a	n/a	0	0	0
2642665	WORD	wordpools/wasnorm_wordpool_576.txt	LTP323	ltpFR2	21	13	OMELET	976	n/a	n/a	0	0	0
2645434	WORD	wordpools/wasnorm_wordpool_576.txt	LTP323	ltpFR2	21	13	LOVER	846	n/a	n/a	0	0	0
2648152	WORD	wordpools/wasnorm_wordpool_576.txt	LTP323	ltpFR2	21	13	FEMALE	559	n/a	n/a	0	0	0
2650843	WORD	wordpools/wasnorm_wordpool_576.txt	LTP323	ltpFR2	21	13	SUNRISE	1407	n/a	n/a	0	0	0
2653456	WORD	wordpools/wasnorm_wordpool_576.txt	LTP323	ltpFR2	21	13	SCULPTURE	1258	n/a	n/a	0	0	0
2655993	WORD	wordpools/wasnorm_wordpool_576.txt	LTP323	ltpFR2	21	13	TEMPLE	1448	n/a	n/a	0	0	0
2658560	WORD	wordpools/wasnorm_wordpool_576.txt	LTP323	ltpFR2	21	13	GHETTO	633	n/a	n/a	0	0	0
2661078	WORD	wordpools/wasnorm_wordpool_576.txt	LTP323	ltpFR2	21	13	COLLEGE	346	n/a	n/a	0	0	0
2663498	WORD	wordpools/wasnorm_wordpool_576.txt	LTP323	ltpFR2	21	13	FIDDLE	561	n/a	n/a	0	0	0
2666233	WORD	wordpools/wasnorm_wordpool_576.txt	LTP323	ltpFR2	21	13	CRAYON	401	n/a	n/a	0	0	0
2668891	WORD	wordpools/wasnorm_wordpool_576.txt	LTP323	ltpFR2	21	13	CHURCH	307	n/a	n/a	0	0	0
2671604	WORD	wordpools/wasnorm_wordpool_576.txt	LTP323	ltpFR2	21	13	FOREST	593	n/a	n/a	0	0	0
2674211	WORD	wordpools/wasnorm_wordpool_576.txt	LTP323	ltpFR2	21	13	QUAIL	1147	n/a	n/a	0	0	0
2676708	WORD	wordpools/wasnorm_wordpool_576.txt	LTP323	ltpFR2	21	13	CANAL	226	n/a	n/a	0	0	0
2679443	WORD	wordpools/wasnorm_wordpool_576.txt	LTP323	ltpFR2	21	13	BROOK	177	n/a	n/a	0	0	0
2682235	WORD	wordpools/wasnorm_wordpool_576.txt	LTP323	ltpFR2	21	13	HATCHET	691	n/a	n/a	0	0	0
2683848	START	n/a	LTP323	ltpFR2	21	n/a	n/a	n/a	19	n/a	n/a	n/a	n/a
2684696	DISTRACTOR	n/a	LTP323	ltpFR2	21	13	n/a	n/a	n/a	n/a	0	0	0
2684702	PROB	n/a	LTP323	ltpFR2	21	n/a	n/a	n/a	19	13	5	1	7
2686685	PROB	n/a	LTP323	ltpFR2	21	n/a	n/a	n/a	19	6	4	1	1
2688036	PROB	n/a	LTP323	ltpFR2	21	n/a	n/a	n/a	19	18	5	7	6
2690825	PROB	n/a	LTP323	ltpFR2	21	n/a	n/a	n/a	19	14	3	8	3
2692640	PROB	n/a	LTP323	ltpFR2	21	n/a	n/a	n/a	19	17	7	8	2
2694742	PROB	n/a	LTP323	ltpFR2	21	n/a	n/a	n/a	19	16	4	3	9
2696176	PROB	n/a	LTP323	ltpFR2	21	n/a	n/a	n/a	19	19	7	7	5
2698729	PROB	n/a	LTP323	ltpFR2	21	n/a	n/a	n/a	19	21	6	6	9
2700730	PROB	n/a	LTP323	ltpFR2	21	n/a	n/a	n/a	19	7	3	1	3
2702201	PROB	n/a	LTP323	ltpFR2	21	n/a	n/a	n/a	19	8	1	5	2
2703515	PROB	n/a	LTP323	ltpFR2	21	n/a	n/a	n/a	19	12	5	2	5
2705183	PROB	n/a	LTP323	ltpFR2	21	n/a	n/a	n/a	19	17	3	8	6
2707101	STOP	n/a	LTP323	ltpFR2	21	n/a	n/a	n/a	19	n/a	n/a	n/a	n/a
2709738	REC_START	n/a	LTP323	ltpFR2	21	13	n/a	n/a	n/a	n/a	0	0	0
2715842	REC_WORD	wordpools/wasnorm_wordpool_576.txt	LTP323	ltpFR2	21	13	GIRL	637	n/a	n/a	0	0	0
2716451	REC_WORD	wordpools/wasnorm_wordpool_576.txt	LTP323	ltpFR2	21	13	SKETCH	1315	n/a	n/a	0	0	0
2718819	REC_WORD	wordpools/wasnorm_wordpool_576.txt	LTP323	ltpFR2	21	13	FIDDLE	561	n/a	n/a	0	0	0
2719791	REC_WORD	wordpools/wasnorm_wordpool_576.txt	LTP323	ltpFR2	21	13	CRAYON	401	n/a	n/a	0	0	0
2723182	REC_WORD	wordpools/wasnorm_wordpool_576.txt	LTP323	ltpFR2	21	13	CHURCH	307	n/a	n/a	0	0	0
2729490	REC_WORD	wordpools/wasnorm_wordpool_576.txt	LTP323	ltpFR2	21	13	GHETTO	633	n/a	n/a	0	0	0
2729896	REC_WORD	wordpools/wasnorm_wordpool_576.txt	LTP323	ltpFR2	21	13	COLLEGE	346	n/a	n/a	0	0	0
2730570	REC_WORD	wordpools/wasnorm_wordpool_576.txt	LTP323	ltpFR2	21	13	FOREST	593	n/a	n/a	0	0	0
2731314	REC_WORD	wordpools/wasnorm_wordpool_576.txt	LTP323	ltpFR2	21	13	QUAIL	1147	n/a	n/a	0	0	0
2731930	REC_WORD	wordpools/wasnorm_wordpool_576.txt	LTP323	ltpFR2	21	13	HATCHET	691	n/a	n/a	0	0	0
2758272	REC_WORD	wordpools/wasnorm_wordpool_576.txt	LTP323	ltpFR2	21	13	SHOVEL	1295	n/a	n/a	0	0	0
2758910	REC_WORD	wordpools/wasnorm_wordpool_576.txt	LTP323	ltpFR2	21	13	SLIME	1327	n/a	n/a	0	0	0
2800196	WORD	wordpools/wasnorm_wordpool_576.txt	LTP323	ltpFR2	21	14	PLIERS	1089	n/a	n/a	0	0	0
2802903	WORD	wordpools/wasnorm_wordpool_576.txt	LTP323	ltpFR2	21	14	PIMPLE	1071	n/a	n/a	0	0	0
2805623	WORD	wordpools/wasnorm_wordpool_576.txt	LTP323	ltpFR2	21	14	ICEBERG	731	n/a	n/a	0	0	0
2808439	WORD	wordpools/wasnorm_wordpool_576.txt	LTP323	ltpFR2	21	14	MOTEL	919	n/a	n/a	0	0	0
2811242	WORD	wordpools/wasnorm_wordpool_576.txt	LTP323	ltpFR2	21	14	TWISTER	1530	n/a	n/a	0	0	0
2813744	WORD	wordpools/wasnorm_wordpool_576.txt	LTP323	ltpFR2	21	14	HUSBAND	728	n/a	n/a	0	0	0
2816413	WORD	wordpools/wasnorm_wordpool_576.txt	LTP323	ltpFR2	21	14	IGLOO	734	n/a	n/a	0	0	0
2818916	WORD	wordpools/wasnorm_wordpool_576.txt	LTP323	ltpFR2	21	14	FOX	598	n/a	n/a	0	0	0
2821566	WORD	wordpools/wasnorm_wordpool_576.txt	LTP323	ltpFR2	21	14	SANDWICH	1232	n/a	n/a	0	0	0
2824235	WORD	wordpools/wasnorm_wordpool_576.txt	LTP323	ltpFR2	21	14	POLICE	1098	n/a	n/a	0	0	0
2826754	WORD	wordpools/wasnorm_wordpool_576.txt	LTP323	ltpFR2	21	14	BUREAU	199	n/a	n/a	0	0	0
2829306	WORD	wordpools/wasnorm_wordpool_576.txt	LTP323	ltpFR2	21	14	FRECKLE	602	n/a	n/a	0	0	0
2831843	WORD	wordpools/wasnorm_wordpool_576.txt	LTP323	ltpFR2	21	14	LIPSTICK	829	n/a	n/a	0	0	0
2834360	WORD	wordpools/wasnorm_wordpool_576.txt	LTP323	ltpFR2	21	14	CLAM	315	n/a	n/a	0	0	0
2837080	WORD	wordpools/wasnorm_wordpool_576.txt	LTP323	ltpFR2	21	14	OYSTER	995	n/a	n/a	0	0	0
2839582	WORD	wordpools/wasnorm_wordpool_576.txt	LTP323	ltpFR2	21	14	SWIMMER	1420	n/a	n/a	0	0	0
2842101	WORD	wordpools/wasnorm_wordpool_576.txt	LTP323	ltpFR2	21	14	CLAMP	316	n/a	n/a	0	0	0
2844786	WORD	wordpools/wasnorm_wordpool_576.txt	LTP323	ltpFR2	21	14	JELLY	755	n/a	n/a	0	0	0
2847221	WORD	wordpools/wasnorm_wordpool_576.txt	LTP323	ltpFR2	21	14	CANDY	230	n/a	n/a	0	0	0
2849890	WORD	wordpools/wasnorm_wordpool_576.txt	LTP323	ltpFR2	21	14	SEAFOOD	1260	n/a	n/a	0	0	0
2852642	WORD	wordpools/wasnorm_wordpool_576.txt	LTP323	ltpFR2	21	14	PIGEON	1065	n/a	n/a	0	0	0
2855094	WORD	wordpools/wasnorm_wordpool_576.txt	LTP323	ltpFR2	21	14	LASER	801	n/a	n/a	0	0	0
2857712	WORD	wordpools/wasnorm_wordpool_576.txt	LTP323	ltpFR2	21	14	MATCH	878	n/a	n/a	0	0	0
2860464	WORD	wordpools/wasnorm_wordpool_576.txt	LTP323	ltpFR2	21	14	SILK	1307	n/a	n/a	0	0	0
2862082	START	n/a	LTP323	ltpFR2	21	n/a	n/a	n/a	20	n/a	n/a	n/a	n/a
2863009	DISTRACTOR	n/a	LTP323	ltpFR2	21	14	n/a	n/a	n/a	n/a	0	0	0
2863016	PROB	n/a	LTP323	ltpFR2	21	n/a	n/a	n/a	20	12	7	1	4
2865337	PROB	n/a	LTP323	ltpFR2	21	n/a	n/a	n/a	20	10	3	6	1
2868550	PROB	n/a	LTP323	ltpFR2	21	n/a	n/a	n/a	20	20	9	9	2
2872006	PROB	n/a	LTP323	ltpFR2	21	n/a	n/a	n/a	20	6	1	4	1
2873456	PROB	n/a	LTP323	ltpFR2	21	n/a	n/a	n/a	20	21	4	8	9
2879843	PROB	n/a	LTP323	ltpFR2	21	n/a	n/a	n/a	20	9	1	2	6
2881177	PROB	n/a	LTP323	ltpFR2	21	n/a	n/a	n/a	20	12	6	2	4
2882294	PROB	n/a	LTP323	ltpFR2	21	n/a	n/a	n/a	20	15	4	7	4
2886081	STOP	n/a	LTP323	ltpFR2	21	n/a	n/a	n/a	20	n/a	n/a	n/a	n/a
2887903	REC_START	n/a	LTP323	ltpFR2	21	14	n/a	n/a	n/a	n/a	0	0	0
2890596	REC_WORD	wordpools/wasnorm_wordpool_576.txt	LTP323	ltpFR2	21	14	MOTEL	919	n/a	n/a	0	0	0
2891220	REC_WORD	wordpools/wasnorm_wordpool_576.txt	LTP323	ltpFR2	21	14	TWISTER	1530	n/a	n/a	0	0	0
2892715	REC_WORD	wordpools/wasnorm_wordpool_576.txt	LTP323	ltpFR2	21	14	ICEBERG	731	n/a	n/a	0	0	0
2893350	REC_WORD	wordpools/wasnorm_wordpool_576.txt	LTP323	ltpFR2	21	14	IGLOO	734	n/a	n/a	0	0	0
2895161	REC_WORD	wordpools/wasnorm_wordpool_576.txt	LTP323	ltpFR2	21	14	SILK	1307	n/a	n/a	0	0	0
2896654	REC_WORD_VV	wordpools/wasnorm_wordpool_576.txt	LTP323	ltpFR2	21	14	<>	-1	n/a	n/a	0	0	0
2897442	REC_WORD	wordpools/wasnorm_wordpool_576.txt	LTP323	ltpFR2	21	14	BUREAU	199	n/a	n/a	0	0	0
2899031	REC_WORD	wordpools/wasnorm_wordpool_576.txt	LTP323	ltpFR2	21	14	CLAMP	316	n/a	n/a	0	0	0
2899819	REC_WORD	wordpools/wasnorm_wordpool_576.txt	LTP323	ltpFR2	21	14	POLICE	1098	n/a	n/a	0	0	0
2903006	REC_WORD	wordpools/wasnorm_wordpool_576.txt	LTP323	ltpFR2	21	14	OYSTER	995	n/a	n/a	0	0	0
2903895	REC_WORD	wordpools/wasnorm_wordpool_576.txt	LTP323	ltpFR2	21	14	CLAM	315	n/a	n/a	0	0	0
2904717	REC_WORD	wordpools/wasnorm_wordpool_576.txt	LTP323	ltpFR2	21	14	SEAFOOD	1260	n/a	n/a	0	0	0
2906425	REC_WORD	wordpools/wasnorm_wordpool_576.txt	LTP323	ltpFR2	21	14	JELLY	755	n/a	n/a	0	0	0
2907139	REC_WORD	wordpools/wasnorm_wordpool_576.txt	LTP323	ltpFR2	21	14	PIGEON	1065	n/a	n/a	0	0	0
2908193	REC_WORD	wordpools/wasnorm_wordpool_576.txt	LTP323	ltpFR2	21	14	LASER	801	n/a	n/a	0	0	0
2910573	REC_WORD	wordpools/wasnorm_wordpool_576.txt	LTP323	ltpFR2	21	14	MATCH	878	n/a	n/a	0	0	0
2914282	REC_WORD	wordpools/wasnorm_wordpool_576.txt	LTP323	ltpFR2	21	14	SANDWICH	1232	n/a	n/a	0	0	0
2978343	WORD	wordpools/wasnorm_wordpool_576.txt	LTP323	ltpFR2	21	15	SKILLET	1317	n/a	n/a	0	0	0
2981116	WORD	wordpools/wasnorm_wordpool_576.txt	LTP323	ltpFR2	21	15	RECORD	1176	n/a	n/a	0	0	0
2983751	WORD	wordpools/wasnorm_wordpool_576.txt	LTP323	ltpFR2	21	15	DIVER	476	n/a	n/a	0	0	0
2986270	WORD	wordpools/wasnorm_wordpool_576.txt	LTP323	ltpFR2	21	15	PUDDLE	1140	n/a	n/a	0	0	0
2988723	WORD	wordpools/wasnorm_wordpool_576.txt	LTP323	ltpFR2	21	15	DENIM	446	n/a	n/a	0	0	0
2991425	WORD	wordpools/wasnorm_wordpool_576.txt	LTP323	ltpFR2	21	15	DUST	508	n/a	n/a	0	0	0
2994093	WORD	wordpools/wasnorm_wordpool_576.txt	LTP323	ltpFR2	21	15	PAIL	1002	n/a	n/a	0	0	0
2996751	WORD	wordpools/wasnorm_wordpool_576.txt	LTP323	ltpFR2	21	15	LONDON	843	n/a	n/a	0	0	0
2999365	WORD	wordpools/wasnorm_wordpool_576.txt	LTP323	ltpFR2	21	15	PARSLEY	1016	n/a	n/a	0	0	0
3001816	WORD	wordpools/wasnorm_wordpool_576.txt	LTP323	ltpFR2	21	15	PADDING	999	n/a	n/a	0	0	0
3004425	WORD	wordpools/wasnorm_wordpool_576.txt	LTP323	ltpFR2	21	15	BLUEPRINT	142	n/a	n/a	0	0	0
3007054	WORD	wordpools/wasnorm_wordpool_576.txt	LTP323	ltpFR2	21	15	RADISH	1158	n/a	n/a	0	0	0
3009557	WORD	wordpools/wasnorm_wordpool_576.txt	LTP323	ltpFR2	21	15	FLUTE	585	n/a	n/a	0	0	0
3012097	WORD	wordpools/wasnorm_wordpool_576.txt	LTP323	ltpFR2	21	15	SHELTER	1282	n/a	n/a	0	0	0
3014544	WORD	wordpools/wasnorm_wordpool_576.txt	LTP323	ltpFR2	21	15	WARDROBE	1587	n/a	n/a	0	0	0
3017017	WORD	wordpools/wasnorm_wordpool_576.txt	LTP323	ltpFR2	21	15	PARENT	1013	n/a	n/a	0	0	0
3019648	WORD	wordpools/wasnorm_wordpool_576.txt	LTP323	ltpFR2	21	15	KEEPER	769	n/a	n/a	0	0	0
3022421	WORD	wordpools/wasnorm_wordpool_576.txt	LTP323	ltpFR2	21	15	RIFLE	1192	n/a	n/a	0	0	0
3024937	WORD	wordpools/wasnorm_wordpool_576.txt	LTP323	ltpFR2	21	15	BRANCH	168	n/a	n/a	0	0	0
3027621	WORD	wordpools/wasnorm_wordpool_576.txt	LTP323	ltpFR2	21	15	HIGHWAY	707	n/a	n/a	0	0	0
3030207	WORD	wordpools/wasnorm_wordpool_576.txt	LTP323	ltpFR2	21	15	TREAT	1501	n/a	n/a	0	0	0
3032792	WORD	wordpools/wasnorm_wordpool_576.txt	LTP323	ltpFR2	21	15	BURGLAR	200	n/a	n/a	0	0	0
3035311	WORD	wordpools/wasnorm_wordpool_576.txt	LTP323	ltpFR2	21	15	FILM	565	n/a	n/a	0	0	0
3038050	WORD	wordpools/wasnorm_wordpool_576.txt	LTP323	ltpFR2	21	15	MAILBOX	857	n/a	n/a	0	0	0
3039666	START	n/a	LTP323	ltpFR2	21	n/a	n/a	n/a	21	n/a	n/a	n/a	n/a
3040525	DISTRACTOR	n/a	LTP323	ltpFR2	21	15	n/a	n/a	n/a	n/a	0	0	0
3040532	PROB	n/a	LTP323	ltpFR2	21	n/a	n/a	n/a	21	11	4	1	6
3042532	PROB	n/a	LTP323	ltpFR2	21	n/a	n/a	n/a	21	7	3	3	1
3044182	PROB	n/a	LTP323	ltpFR2	21	n/a	n/a	n/a	21	14	8	5	1
3045684	PROB	n/a	LTP323	ltpFR2	21	n/a	n/a	n/a	21	8	1	1	6
3046852	PROB	n/a	LTP323	ltpFR2	21	n/a	n/a	n/a	21	23	8	9	6
3049954	PROB	n/a	LTP323	ltpFR2	21	n/a	n/a	n/a	21	12	1	9	2
3051923	PROB	n/a	LTP323	ltpFR2	21	n/a	n/a	n/a	21	15	2	8	5
3053457	PROB	n/a	LTP323	ltpFR2	21	n/a	n/a	n/a	21	22	9	6	7
3055475	PROB	n/a	LTP323	ltpFR2	21	n/a	n/a	n/a	21	12	9	2	1
3056944	PROB	n/a	LTP323	ltpFR2	21	n/a	n/a	n/a	21	18	7	8	3
3058478	PROB	n/a	LTP323	ltpFR2	21	n/a	n/a	n/a	21	5	3	1	1
3059762	PROB	n/a	LTP323	ltpFR2	21	n/a	n/a	n/a	21	8	2	1	5
3063665	STOP	n/a	LTP323	ltpFR2	21	n/a	n/a	n/a	21	n/a	n/a	n/a	n/a
3065584	REC_START	n/a	LTP323	ltpFR2	21	15	n/a	n/a	n/a	n/a	0	0	0
3070161	REC_WORD	wordpools/wasnorm_wordpool_576.txt	LTP323	ltpFR2	21	15	SKILLET	1317	n/a	n/a	0	0	0
3070839	REC_WORD	wordpools/wasnorm_wordpool_576.txt	LTP323	ltpFR2	21	15	RECORD	1176	n/a	n/a	0	0	0
3071503	REC_WORD	wordpools/wasnorm_wordpool_576.txt	LTP323	ltpFR2	21	15	DIVER	476	n/a	n/a	0	0	0
3072239	REC_WORD	wordpools/wasnorm_wordpool_576.txt	LTP323	ltpFR2	21	15	PUDDLE	1140	n/a	n/a	0	0	0
3073970	REC_WORD	wordpools/wasnorm_wordpool_576.txt	LTP323	ltpFR2	21	15	PAIL	1002	n/a	n/a	0	0	0
3075965	REC_WORD	wordpools/wasnorm_wordpool_576.txt	LTP323	ltpFR2	21	15	DUST	508	n/a	n/a	0	0	0
3077227	REC_WORD	wordpools/wasnorm_wordpool_576.txt	LTP323	ltpFR2	21	15	DENIM	446	n/a	n/a	0	0	0
3079970	REC_WORD	wordpools/wasnorm_wordpool_576.txt	LTP323	ltpFR2	21	15	LONDON	843	n/a	n/a	0	0	0
3080598	REC_WORD	wordpools/wasnorm_wordpool_576.txt	LTP323	ltpFR2	21	15	PADDING	999	n/a	n/a	0	0	0
3081143	REC_WORD	wordpools/wasnorm_wordpool_576.txt	LTP323	ltpFR2	21	15	BLUEPRINT	142	n/a	n/a	0	0	0
3082101	REC_WORD_VV	wordpools/wasnorm_wordpool_576.txt	LTP323	ltpFR2	21	15	<>	-1	n/a	n/a	0	0	0
3082573	REC_WORD	wordpools/wasnorm_wordpool_576.txt	LTP323	ltpFR2	21	15	PARSLEY	1016	n/a	n/a	0	0	0
3083275	REC_WORD	wordpools/wasnorm_wordpool_576.txt	LTP323	ltpFR2	21	15	RADISH	1158	n/a	n/a	0	0	0
3086938	REC_WORD	wordpools/wasnorm_wordpool_576.txt	LTP323	ltpFR2	21	15	SHELTER	1282	n/a	n/a	0	0	0
3088687	REC_WORD	wordpools/wasnorm_wordpool_576.txt	LTP323	ltpFR2	21	15	FILM	565	n/a	n/a	0	0	0
3090205	REC_WORD	wordpools/wasnorm_wordpool_576.txt	LTP323	ltpFR2	21	15	MAILBOX	857	n/a	n/a	0	0	0
3092179	REC_WORD	wordpools/wasnorm_wordpool_576.txt	LTP323	ltpFR2	21	15	WARDROBE	1587	n/a	n/a	0	0	0
3094739	REC_WORD	wordpools/wasnorm_wordpool_576.txt	LTP323	ltpFR2	21	15	KEEPER	769	n/a	n/a	0	0	0
3096878	REC_WORD	wordpools/wasnorm_wordpool_576.txt	LTP323	ltpFR2	21	15	HIGHWAY	707	n/a	n/a	0	0	0
3097708	REC_WORD	wordpools/wasnorm_wordpool_576.txt	LTP323	ltpFR2	21	15	BRANCH	168	n/a	n/a	0	0	0
3099605	REC_WORD	wordpools/wasnorm_wordpool_576.txt	LTP323	ltpFR2	21	15	RIFLE	1192	n/a	n/a	0	0	0
3100634	REC_WORD	wordpools/wasnorm_wordpool_576.txt	LTP323	ltpFR2	21	15	BURGLAR	200	n/a	n/a	0	0	0
3104212	REC_WORD	wordpools/wasnorm_wordpool_576.txt	LTP323	ltpFR2	21	15	TREAT	1501	n/a	n/a	0	0	0
3156029	DISTRACTOR	n/a	LTP323	ltpFR2	21	16	n/a	n/a	n/a	n/a	0	0	0
3156029	START	n/a	LTP323	ltpFR2	21	n/a	n/a	n/a	22	n/a	n/a	n/a	n/a
3156042	PROB	n/a	LTP323	ltpFR2	21	n/a	n/a	n/a	22	9	1	3	5
3158056	PROB	n/a	LTP323	ltpFR2	21	n/a	n/a	n/a	22	15	7	1	7
3159640	PROB	n/a	LTP323	ltpFR2	21	n/a	n/a	n/a	22	15	7	1	7
3160663	PROB	n/a	LTP323	ltpFR2	21	n/a	n/a	n/a	22	21	7	9	5
3162959	PROB	n/a	LTP323	ltpFR2	21	n/a	n/a	n/a	22	20	2	9	9
3164815	PROB	n/a	LTP323	ltpFR2	21	n/a	n/a	n/a	22	19	9	3	7
3166800	PROB	n/a	LTP323	ltpFR2	21	n/a	n/a	n/a	22	14	4	7	3
3168086	PROB	n/a	LTP323	ltpFR2	21	n/a	n/a	n/a	22	6	1	4	1
3169421	PROB	n/a	LTP323	ltpFR2	21	n/a	n/a	n/a	22	20	8	3	9
3170973	PROB	n/a	LTP323	ltpFR2	21	n/a	n/a	n/a	22	15	4	9	2
3172523	PROB	n/a	LTP323	ltpFR2	21	n/a	n/a	n/a	22	16	5	2	9
3174157	PROB	n/a	LTP323	ltpFR2	21	n/a	n/a	n/a	22	5	3	1	1
3175392	PROB	n/a	LTP323	ltpFR2	21	n/a	n/a	n/a	22	14	4	4	6
3176894	PROB	n/a	LTP323	ltpFR2	21	n/a	n/a	n/a	22	11	3	7	1
3178077	PROB	n/a	LTP323	ltpFR2	21	n/a	n/a	n/a	22	19	5	9	5
3179381	STOP	n/a	LTP323	ltpFR2	21	n/a	n/a	n/a	22	n/a	n/a	n/a	n/a
3181226	WORD	wordpools/wasnorm_wordpool_576.txt	LTP323	ltpFR2	21	16	SHORTS	1293	n/a	n/a	0	0	0
3183837	WORD	wordpools/wasnorm_wordpool_576.txt	LTP323	ltpFR2	21	16	ELBOW	520	n/a	n/a	0	0	0
3186470	WORD	wordpools/wasnorm_wordpool_576.txt	LTP323	ltpFR2	21	16	LEADER	807	n/a	n/a	0	0	0
3189189	WORD	wordpools/wasnorm_wordpool_576.txt	LTP323	ltpFR2	21	16	EMPIRE	530	n/a	n/a	0	0	0
3191683	WORD	wordpools/wasnorm_wordpool_576.txt	LTP323	ltpFR2	21	16	GYMNAST	675	n/a	n/a	0	0	0
3194419	WORD	wordpools/wasnorm_wordpool_576.txt	LTP323	ltpFR2	21	16	BLOCKADE	137	n/a	n/a	0	0	0
3197196	WORD	wordpools/wasnorm_wordpool_576.txt	LTP323	ltpFR2	21	16	LAGOON	795	n/a	n/a	0	0	0
3199815	WORD	wordpools/wasnorm_wordpool_576.txt	LTP323	ltpFR2	21	16	DRESS	495	n/a	n/a	0	0	0
3202367	WORD	wordpools/wasnorm_wordpool_576.txt	LTP323	ltpFR2	21	16	WINDOW	1611	n/a	n/a	0	0	0
3204845	WORD	wordpools/wasnorm_wordpool_576.txt	LTP323	ltpFR2	21	16	CURTAIN	427	n/a	n/a	0	0	0
3207562	WORD	wordpools/wasnorm_wordpool_576.txt	LTP323	ltpFR2	21	16	BADGE	68	n/a	n/a	0	0	0
3210323	WORD	wordpools/wasnorm_wordpool_576.txt	LTP323	ltpFR2	21	16	GUITAR	670	n/a	n/a	0	0	0
3213126	WORD	wordpools/wasnorm_wordpool_576.txt	LTP323	ltpFR2	21	16	RAZOR	1171	n/a	n/a	0	0	0
3215685	WORD	wordpools/wasnorm_wordpool_576.txt	LTP323	ltpFR2	21	16	SPOON	1357	n/a	n/a	0	0	0
3218179	WORD	wordpools/wasnorm_wordpool_576.txt	LTP323	ltpFR2	21	16	DENTIST	447	n/a	n/a	0	0	0
3220689	WORD	wordpools/wasnorm_wordpool_576.txt	LTP323	ltpFR2	21	16	KNAPSACK	783	n/a	n/a	0	0	0
3223351	WORD	wordpools/wasnorm_wordpool_576.txt	LTP323	ltpFR2	21	16	FRANCE	601	n/a	n/a	0	0	0
3225786	WORD	wordpools/wasnorm_wordpool_576.txt	LTP323	ltpFR2	21	16	COUNTRY	388	n/a	n/a	0	0	0
3228555	WORD	wordpools/wasnorm_wordpool_576.txt	LTP323	ltpFR2	21	16	SUITCASE	1403	n/a	n/a	0	0	0
3231107	WORD	wordpools/wasnorm_wordpool_576.txt	LTP323	ltpFR2	21	16	SALT	1229	n/a	n/a	0	0	0
3233575	WORD	wordpools/wasnorm_wordpool_576.txt	LTP323	ltpFR2	21	16	TUBA	1515	n/a	n/a	0	0	0
3236144	WORD	wordpools/wasnorm_wordpool_576.txt	LTP323	ltpFR2	21	16	SWORD	1423	n/a	n/a	0	0	0
3238899	WORD	wordpools/wasnorm_wordpool_576.txt	LTP323	ltpFR2	21	16	TART	1436	n/a	n/a	0	0	0
3241717	WORD	wordpools/wasnorm_wordpool_576.txt	LTP323	ltpFR2	21	16	RECEIPT	1173	n/a	n/a	0	0	0
3243335	START	n/a	LTP323	ltpFR2	21	n/a	n/a	n/a	23	n/a	n/a	n/a	n/a
3244159	DISTRACTOR	n/a	LTP323	ltpFR2	21	16	n/a	n/a	n/a	n/a	0	0	0
3244168	PROB	n/a	LTP323	ltpFR2	21	n/a	n/a	n/a	23	12	2	2	8
3246183	PROB	n/a	LTP323	ltpFR2	21	n/a	n/a	n/a	23	15	7	5	3
3247751	PROB	n/a	LTP323	ltpFR2	21	n/a	n/a	n/a	23	12	8	3	1
3249320	PROB	n/a	LTP323	ltpFR2	21	n/a	n/a	n/a	23	14	5	8	1
3251388	PROB	n/a	LTP323	ltpFR2	21	n/a	n/a	n/a	23	13	8	1	4
3252806	PROB	n/a	LTP323	ltpFR2	21	n/a	n/a	n/a	23	12	5	6	1
3254424	PROB	n/a	LTP323	ltpFR2	21	n/a	n/a	n/a	23	18	9	6	3
3255975	PROB	n/a	LTP323	ltpFR2	21	n/a	n/a	n/a	23	14	2	4	8
3257359	PROB	n/a	LTP323	ltpFR2	21	n/a	n/a	n/a	23	13	3	7	3
3258795	PROB	n/a	LTP323	ltpFR2	21	n/a	n/a	n/a	23	9	2	3	4
3260795	PROB	n/a	LTP323	ltpFR2	21	n/a	n/a	n/a	23	15	5	6	4
3262781	PROB	n/a	LTP323	ltpFR2	21	n/a	n/a	n/a	23	1	9	4	5
3264035	PROB	n/a	LTP323	ltpFR2	21	n/a	n/a	n/a	23	8	8	9	2
3264248	PROB	n/a	LTP323	ltpFR2	21	n/a	n/a	n/a	23	15	7	7	1
3266213	STOP	n/a	LTP323	ltpFR2	21	n/a	n/a	n/a	23	n/a	n/a	n/a	n/a
3269290	REC_START	n/a	LTP323	ltpFR2	21	16	n/a	n/a	n/a	n/a	0	0	0
3273773	REC_WORD	wordpools/wasnorm_wordpool_576.txt	LTP323	ltpFR2	21	16	LEADER	807	n/a	n/a	0	0	0
3274228	REC_WORD	wordpools/wasnorm_wordpool_576.txt	LTP323	ltpFR2	21	16	EMPIRE	530	n/a	n/a	0	0	0
3275913	REC_WORD	wordpools/wasnorm_wordpool_576.txt	LTP323	ltpFR2	21	16	ELBOW	520	n/a	n/a	0	0	0
3278131	REC_WORD	wordpools/wasnorm_wordpool_576.txt	LTP323	ltpFR2	21	16	GYMNAST	675	n/a	n/a	0	0	0
3280365	REC_WORD	wordpools/wasnorm_wordpool_576.txt	LTP323	ltpFR2	21	16	DRESS	495	n/a	n/a	0	0	0
3281236	REC_WORD	wordpools/wasnorm_wordpool_576.txt	LTP323	ltpFR2	21	16	SHORTS	1293	n/a	n/a	0	0	0
3282164	REC_WORD	wordpools/wasnorm_wordpool_576.txt	LTP323	ltpFR2	21	16	BLOCKADE	137	n/a	n/a	0	0	0
3284237	REC_WORD	wordpools/wasnorm_wordpool_576.txt	LTP323	ltpFR2	21	16	LAGOON	795	n/a	n/a	0	0	0
3286218	REC_WORD	wordpools/wasnorm_wordpool_576.txt	LTP323	ltpFR2	21	16	BADGE	68	n/a	n/a	0	0	0
3286821	REC_WORD	wordpools/wasnorm_wordpool_576.txt	LTP323	ltpFR2	21	16	SPOON	1357	n/a	n/a	0	0	0
3287377	REC_WORD	wordpools/wasnorm_wordpool_576.txt	LTP323	ltpFR2	21	16	RAZOR	1171	n/a	n/a	0	0	0
3287921	REC_WORD	wordpools/wasnorm_wordpool_576.txt	LTP323	ltpFR2	21	16	DENTIST	447	n/a	n/a	0	0	0
3288747	REC_WORD	wordpools/wasnorm_wordpool_576.txt	LTP323	ltpFR2	21	16	KNAPSACK	783	n/a	n/a	0	0	0
3289599	REC_WORD	wordpools/wasnorm_wordpool_576.txt	LTP323	ltpFR2	21	16	FRANCE	601	n/a	n/a	0	0	0
3290886	REC_WORD	wordpools/wasnorm_wordpool_576.txt	LTP323	ltpFR2	21	16	SALT	1229	n/a	n/a	0	0	0
3291939	REC_WORD	wordpools/wasnorm_wordpool_576.txt	LTP323	ltpFR2	21	16	COUNTRY	388	n/a	n/a	0	0	0
3294783	REC_WORD	wordpools/wasnorm_wordpool_576.txt	LTP323	ltpFR2	21	16	TUBA	1515	n/a	n/a	0	0	0
3301108	REC_WORD	wordpools/wasnorm_wordpool_576.txt	LTP323	ltpFR2	21	16	RECEIPT	1173	n/a	n/a	0	0	0
3345835	REST_REWET	n/a	LTP323	ltpFR2	21	16	n/a	n/a	n/a	n/a	0	0	0
3759014	DISTRACTOR	n/a	LTP323	ltpFR2	21	17	n/a	n/a	n/a	n/a	0	0	0
3759014	START	n/a	LTP323	ltpFR2	21	n/a	n/a	n/a	24	n/a	n/a	n/a	n/a
3759027	PROB	n/a	LTP323	ltpFR2	21	n/a	n/a	n/a	24	12	9	2	1
3760594	PROB	n/a	LTP323	ltpFR2	21	n/a	n/a	n/a	24	4	2	1	1
3761947	PROB	n/a	LTP323	ltpFR2	21	n/a	n/a	n/a	24	14	3	5	6
3764314	PROB	n/a	LTP323	ltpFR2	21	n/a	n/a	n/a	24	11	1	7	3
3765431	PROB	n/a	LTP323	ltpFR2	21	n/a	n/a	n/a	24	16	7	7	2
3767120	PROB	n/a	LTP323	ltpFR2	21	n/a	n/a	n/a	24	4	1	2	1
3768418	PROB	n/a	LTP323	ltpFR2	21	n/a	n/a	n/a	24	6	4	1	1
3769689	PROB	n/a	LTP323	ltpFR2	21	n/a	n/a	n/a	24	22	7	7	8
3771971	PROB	n/a	LTP323	ltpFR2	21	n/a	n/a	n/a	24	14	2	3	9
3773722	PROB	n/a	LTP323	ltpFR2	21	n/a	n/a	n/a	24	19	6	8	5
3776041	PROB	n/a	LTP323	ltpFR2	21	n/a	n/a	n/a	24	18	9	7	2
3777476	PROB	n/a	LTP323	ltpFR2	21	n/a	n/a	n/a	24	20	7	8	5
3783014	STOP	n/a	LTP323	ltpFR2	21	n/a	n/a	n/a	24	n/a	n/a	n/a	n/a
3783868	WORD	wordpools/wasnorm_wordpool_576.txt	LTP323	ltpFR2	21	17	ROBBER	1197	n/a	n/a	0	0	0
3786652	WORD	wordpools/wasnorm_wordpool_576.txt	LTP323	ltpFR2	21	17	GUARD	667	n/a	n/a	0	0	0
3789305	WORD	wordpools/wasnorm_wordpool_576.txt	LTP323	ltpFR2	21	17	ULCER	1533	n/a	n/a	0	0	0
3791974	WORD	wordpools/wasnorm_wordpool_576.txt	LTP323	ltpFR2	21	17	MUSTARD	935	n/a	n/a	0	0	0
3794442	WORD	wordpools/wasnorm_wordpool_576.txt	LTP323	ltpFR2	21	17	FIREPLACE	570	n/a	n/a	0	0	0
3797178	WORD	wordpools/wasnorm_wordpool_576.txt	LTP323	ltpFR2	21	17	HEDGE	699	n/a	n/a	0	0	0
3799965	WORD	wordpools/wasnorm_wordpool_576.txt	LTP323	ltpFR2	21	17	LUMBER	848	n/a	n/a	0	0	0
3802733	WORD	wordpools/wasnorm_wordpool_576.txt	LTP323	ltpFR2	21	17	CABBAGE	210	n/a	n/a	0	0	0
3805351	WORD	wordpools/wasnorm_wordpool_576.txt	LTP323	ltpFR2	21	17	LETTUCE	814	n/a	n/a	0	0	0
3807820	WORD	wordpools/wasnorm_wordpool_576.txt	LTP323	ltpFR2	21	17	CABIN	211	n/a	n/a	0	0	0
3810605	WORD	wordpools/wasnorm_wordpool_576.txt	LTP323	ltpFR2	21	17	LEG	809	n/a	n/a	0	0	0
3813408	WORD	wordpools/wasnorm_wordpool_576.txt	LTP323	ltpFR2	21	17	STAMP	1370	n/a	n/a	0	0	0
3816043	WORD	wordpools/wasnorm_wordpool_576.txt	LTP323	ltpFR2	21	17	COLONEL	348	n/a	n/a	0	0	0
3818578	WORD	wordpools/wasnorm_wordpool_576.txt	LTP323	ltpFR2	21	17	NURSE	963	n/a	n/a	0	0	0
3821097	WORD	wordpools/wasnorm_wordpool_576.txt	LTP323	ltpFR2	21	17	BULLET	194	n/a	n/a	0	0	0
3823832	WORD	wordpools/wasnorm_wordpool_576.txt	LTP323	ltpFR2	21	17	PEACH	1031	n/a	n/a	0	0	0
3826284	WORD	wordpools/wasnorm_wordpool_576.txt	LTP323	ltpFR2	21	17	PLUTO	1092	n/a	n/a	0	0	0
3828904	WORD	wordpools/wasnorm_wordpool_576.txt	LTP323	ltpFR2	21	17	COMET	353	n/a	n/a	0	0	0
3831471	WORD	wordpools/wasnorm_wordpool_576.txt	LTP323	ltpFR2	21	17	HAND	683	n/a	n/a	0	0	0
3833924	WORD	wordpools/wasnorm_wordpool_576.txt	LTP323	ltpFR2	21	17	PRINCE	1124	n/a	n/a	0	0	0
3836526	WORD	wordpools/wasnorm_wordpool_576.txt	LTP323	ltpFR2	21	17	THIEF	1456	n/a	n/a	0	0	0
3839029	WORD	wordpools/wasnorm_wordpool_576.txt	LTP323	ltpFR2	21	17	PRINCESS	1125	n/a	n/a	0	0	0
3841716	WORD	wordpools/wasnorm_wordpool_576.txt	LTP323	ltpFR2	21	17	CRATER	400	n/a	n/a	0	0	0
3844201	WORD	wordpools/wasnorm_wordpool_576.txt	LTP323	ltpFR2	21	17	PALACE	1006	n/a	n/a	0	0	0
3845816	START	n/a	LTP323	ltpFR2	21	n/a	n/a	n/a	25	n/a	n/a	n/a	n/a
3846836	DISTRACTOR	n/a	LTP323	ltpFR2	21	17	n/a	n/a	n/a	n/a	0	0	0
3846850	PROB	n/a	LTP323	ltpFR2	21	n/a	n/a	n/a	25	19	8	7	4
3848952	PROB	n/a	LTP323	ltpFR2	21	n/a	n/a	n/a	25	15	7	3	5
3850102	PROB	n/a	LTP323	ltpFR2	21	n/a	n/a	n/a	25	15	5	5	5
3851184	PROB	n/a	LTP323	ltpFR2	21	n/a	n/a	n/a	25	16	3	9	4
3853335	PROB	n/a	LTP323	ltpFR2	21	n/a	n/a	n/a	25	17	7	1	9
3854826	PROB	n/a	LTP323	ltpFR2	21	n/a	n/a	n/a	25	16	9	6	1
3856304	PROB	n/a	LTP323	ltpFR2	21	n/a	n/a	n/a	25	8	1	2	5
3857738	PROB	n/a	LTP323	ltpFR2	21	n/a	n/a	n/a	25	12	4	6	2
3860207	PROB	n/a	LTP323	ltpFR2	21	n/a	n/a	n/a	25	23	6	8	9
3863396	PROB	n/a	LTP323	ltpFR2	21	n/a	n/a	n/a	25	12	5	4	3
3865444	PROB	n/a	LTP323	ltpFR2	21	n/a	n/a	n/a	25	16	8	6	2
3867213	PROB	n/a	LTP323	ltpFR2	21	n/a	n/a	n/a	25	19	5	9	5
3868653	STOP	n/a	LTP323	ltpFR2	21	n/a	n/a	n/a	25	n/a	n/a	n/a	n/a
3871600	REC_START	n/a	LTP323	ltpFR2	21	17	n/a	n/a	n/a	n/a	0	0	0
3876121	REC_WORD	wordpools/wasnorm_wordpool_576.txt	LTP323	ltpFR2	21	17	ROBBER	1197	n/a	n/a	0	0	0
3876756	REC_WORD	wordpools/wasnorm_wordpool_576.txt	LTP323	ltpFR2	21	17	GUARD	667	n/a	n/a	0	0	0
3877844	REC_WORD_VV	wordpools/wasnorm_wordpool_576.txt	LTP323	ltpFR2	21	17	<>	-1	n/a	n/a	0	0	0
3878814	REC_WORD	wordpools/wasnorm_wordpool_576.txt	LTP323	ltpFR2	21	17	ULCER	1533	n/a	n/a	0	0	0
3880773	REC_WORD	wordpools/wasnorm_wordpool_576.txt	LTP323	ltpFR2	21	17	FIREPLACE	570	n/a	n/a	0	0	0
3881675	REC_WORD	wordpools/wasnorm_wordpool_576.txt	LTP323	ltpFR2	21	17	CABIN	211	n/a	n/a	0	0	0
3883161	REC_WORD	wordpools/wasnorm_wordpool_576.txt	LTP323	ltpFR2	21	17	THIEF	1456	n/a	n/a	0	0	0
3885148	REC_WORD	wordpools/wasnorm_wordpool_576.txt	LTP323	ltpFR2	21	17	CABBAGE	210	n/a	n/a	0	0	0
3885921	REC_WORD	wordpools/wasnorm_wordpool_576.txt	LTP323	ltpFR2	21	17	LETTUCE	814	n/a	n/a	0	0	0
3888139	REC_WORD	wordpools/wasnorm_wordpool_576.txt	LTP323	ltpFR2	21	17	NURSE	963	n/a	n/a	0	0	0
3888905	REC_WORD	wordpools/wasnorm_wordpool_576.txt	LTP323	ltpFR2	21	17	COLONEL	348	n/a	n/a	0	0	0
3890340	REC_WORD	wordpools/wasnorm_wordpool_576.txt	LTP323	ltpFR2	21	17	BULLET	194	n/a	n/a	0	0	0
3891735	REC_WORD	wordpools/wasnorm_wordpool_576.txt	LTP323	ltpFR2	21	17	LEG	809	n/a	n/a	0	0	0
3893737	REC_WORD	wordpools/wasnorm_wordpool_576.txt	LTP323	ltpFR2	21	17	SEAL	1262	n/a	n/a	0	0	0
3895597	REC_WORD	wordpools/wasnorm_wordpool_576.txt	LTP323	ltpFR2	21	17	COMET	353	n/a	n/a	0	0	0
3898312	REC_WORD	wordpools/wasnorm_wordpool_576.txt	LTP323	ltpFR2	21	17	PRINCE	1124	n/a	n/a	0	0	0
3899423	REC_WORD	wordpools/wasnorm_wordpool_576.txt	LTP323	ltpFR2	21	17	PRINCESS	1125	n/a	n/a	0	0	0
3900500	REC_WORD	wordpools/wasnorm_wordpool_576.txt	LTP323	ltpFR2	21	17	HAND	683	n/a	n/a	0	0	0
3901273	REC_WORD	wordpools/wasnorm_wordpool_576.txt	LTP323	ltpFR2	21	17	PALACE	1006	n/a	n/a	0	0	0
3915116	REC_WORD	wordpools/wasnorm_wordpool_576.txt	LTP323	ltpFR2	21	17	PEACH	1031	n/a	n/a	0	0	0
3915660	REC_WORD	wordpools/wasnorm_wordpool_576.txt	LTP323	ltpFR2	21	17	PLUTO	1092	n/a	n/a	0	0	0
3925057	REC_WORD	wordpools/wasnorm_wordpool_576.txt	LTP323	ltpFR2	21	17	HEDGE	699	n/a	n/a	0	0	0
3933607	REC_WORD	wordpools/wasnorm_wordpool_576.txt	LTP323	ltpFR2	21	17	STREAM	1392	n/a	n/a	0	0	0
3942031	REC_WORD	wordpools/wasnorm_wordpool_576.txt	LTP323	ltpFR2	21	17	ULCER	1533	n/a	n/a	0	0	0
3944003	REC_WORD	wordpools/wasnorm_wordpool_576.txt	LTP323	ltpFR2	21	17	GUARD	667	n/a	n/a	0	0	0
3962029	WORD	wordpools/wasnorm_wordpool_576.txt	LTP323	ltpFR2	21	18	STATUE	1374	n/a	n/a	0	0	0
3964817	WORD	wordpools/wasnorm_wordpool_576.txt	LTP323	ltpFR2	21	18	CRIB	407	n/a	n/a	0	0	0
3967536	WORD	wordpools/wasnorm_wordpool_576.txt	LTP323	ltpFR2	21	18	LEOPARD	812	n/a	n/a	0	0	0
3970122	WORD	wordpools/wasnorm_wordpool_576.txt	LTP323	ltpFR2	21	18	HELMET	702	n/a	n/a	0	0	0
3972858	WORD	wordpools/wasnorm_wordpool_576.txt	LTP323	ltpFR2	21	18	BALLOON	75	n/a	n/a	0	0	0
3975326	WORD	wordpools/wasnorm_wordpool_576.txt	LTP323	ltpFR2	21	18	CRAB	397	n/a	n/a	0	0	0
3978017	WORD	wordpools/wasnorm_wordpool_576.txt	LTP323	ltpFR2	21	18	DRIVER	499	n/a	n/a	0	0	0
3980681	WORD	wordpools/wasnorm_wordpool_576.txt	LTP323	ltpFR2	21	18	CHAPEL	280	n/a	n/a	0	0	0
3983371	WORD	wordpools/wasnorm_wordpool_576.txt	LTP323	ltpFR2	21	18	TRUCK	1512	n/a	n/a	0	0	0
3985936	WORD	wordpools/wasnorm_wordpool_576.txt	LTP323	ltpFR2	21	18	DOUGHNUT	490	n/a	n/a	0	0	0
3988675	WORD	wordpools/wasnorm_wordpool_576.txt	LTP323	ltpFR2	21	18	SNAKE	1333	n/a	n/a	0	0	0
3991374	WORD	wordpools/wasnorm_wordpool_576.txt	LTP323	ltpFR2	21	18	CREATURE	403	n/a	n/a	0	0	0
3994008	WORD	wordpools/wasnorm_wordpool_576.txt	LTP323	ltpFR2	21	18	FARMER	553	n/a	n/a	0	0	0
3996693	WORD	wordpools/wasnorm_wordpool_576.txt	LTP323	ltpFR2	21	18	ROD	1203	n/a	n/a	0	0	0
3999296	WORD	wordpools/wasnorm_wordpool_576.txt	LTP323	ltpFR2	21	18	MESSAGE	888	n/a	n/a	0	0	0
4001764	WORD	wordpools/wasnorm_wordpool_576.txt	LTP323	ltpFR2	21	18	TYPIST	1532	n/a	n/a	0	0	0
4004269	WORD	wordpools/wasnorm_wordpool_576.txt	LTP323	ltpFR2	21	18	DANDRUFF	439	n/a	n/a	0	0	0
4007069	WORD	wordpools/wasnorm_wordpool_576.txt	LTP323	ltpFR2	21	18	OZONE	996	n/a	n/a	0	0	0
4009739	WORD	wordpools/wasnorm_wordpool_576.txt	LTP323	ltpFR2	21	18	CANYON	235	n/a	n/a	0	0	0
4012291	WORD	wordpools/wasnorm_wordpool_576.txt	LTP323	ltpFR2	21	18	SUMMIT	1405	n/a	n/a	0	0	0
4015009	WORD	wordpools/wasnorm_wordpool_576.txt	LTP323	ltpFR2	21	18	BLENDER	136	n/a	n/a	0	0	0
4017745	WORD	wordpools/wasnorm_wordpool_576.txt	LTP323	ltpFR2	21	18	INFANT	737	n/a	n/a	0	0	0
4020280	WORD	wordpools/wasnorm_wordpool_576.txt	LTP323	ltpFR2	21	18	CITRUS	313	n/a	n/a	0	0	0
4022919	WORD	wordpools/wasnorm_wordpool_576.txt	LTP323	ltpFR2	21	18	ORANGE	980	n/a	n/a	0	0	0
4024535	START	n/a	LTP323	ltpFR2	21	n/a	n/a	n/a	26	n/a	n/a	n/a	n/a
4025547	DISTRACTOR	n/a	LTP323	ltpFR2	21	18	n/a	n/a	n/a	n/a	0	0	0
4025568	PROB	n/a	LTP323	ltpFR2	21	n/a	n/a	n/a	26	17	9	5	2
4028922	PROB	n/a	LTP323	ltpFR2	21	n/a	n/a	n/a	26	15	2	6	7
4033208	PROB	n/a	LTP323	ltpFR2	21	n/a	n/a	n/a	26	13	8	4	1
4034877	PROB	n/a	LTP323	ltpFR2	21	n/a	n/a	n/a	26	17	2	7	8
4036624	PROB	n/a	LTP323	ltpFR2	21	n/a	n/a	n/a	26	10	1	5	4
4037963	PROB	n/a	LTP323	ltpFR2	21	n/a	n/a	n/a	26	13	5	5	3
4039296	PROB	n/a	LTP323	ltpFR2	21	n/a	n/a	n/a	26	20	9	9	2
4041081	PROB	n/a	LTP323	ltpFR2	21	n/a	n/a	n/a	26	13	1	4	8
4042679	PROB	n/a	LTP323	ltpFR2	21	n/a	n/a	n/a	26	13	7	4	2
4044363	PROB	n/a	LTP323	ltpFR2	21	n/a	n/a	n/a	26	8	1	5	2
4045903	PROB	n/a	LTP323	ltpFR2	21	n/a	n/a	n/a	26	16	6	2	8
4047197	STOP	n/a	LTP323	ltpFR2	21	n/a	n/a	n/a	26	n/a	n/a	n/a	n/a
4050319	REC_START	n/a	LTP323	ltpFR2	21	18	n/a	n/a	n/a	n/a	0	0	0
4052737	REC_WORD	wordpools/wasnorm_wordpool_576.txt	LTP323	ltpFR2	21	18	BLENDER	136	n/a	n/a	0	0	0
4053077	REC_WORD	wordpools/wasnorm_wordpool_576.txt	LTP323	ltpFR2	21	18	CITRUS	313	n/a	n/a	0	0	0
4053786	REC_WORD	wordpools/wasnorm_wordpool_576.txt	LTP323	ltpFR2	21	18	ORANGE	980	n/a	n/a	0	0	0
4054680	REC_WORD	wordpools/wasnorm_wordpool_576.txt	LTP323	ltpFR2	21	18	INFANT	737	n/a	n/a	0	0	0
4055228	REC_WORD	wordpools/wasnorm_wordpool_576.txt	LTP323	ltpFR2	21	18	CRIB	407	n/a	n/a	0	0	0
4055971	REC_WORD	wordpools/wasnorm_wordpool_576.txt	LTP323	ltpFR2	21	18	STATUE	1374	n/a	n/a	0	0	0
4057458	REC_WORD	wordpools/wasnorm_wordpool_576.txt	LTP323	ltpFR2	21	18	LEOPARD	812	n/a	n/a	0	0	0
4059438	REC_WORD	wordpools/wasnorm_wordpool_576.txt	LTP323	ltpFR2	21	18	HELMET	702	n/a	n/a	0	0	0
4060110	REC_WORD	wordpools/wasnorm_wordpool_576.txt	LTP323	ltpFR2	21	18	BALLOON	75	n/a	n/a	0	0	0
4064155	REC_WORD	wordpools/wasnorm_wordpool_576.txt	LTP323	ltpFR2	21	18	SNAKE	1333	n/a	n/a	0	0	0
4064763	REC_WORD	wordpools/wasnorm_wordpool_576.txt	LTP323	ltpFR2	21	18	CREATURE	403	n/a	n/a	0	0	0
4067276	REC_WORD	wordpools/wasnorm_wordpool_576.txt	LTP323	ltpFR2	21	18	FARMER	553	n/a	n/a	0	0	0
