onset	duration	trial_type	sample	stim_file	subject	experiment	session	trial	task	item_name	item_num	recog_conf	resp	color_b	color_g	color_r	case	font
291.664	n/a	SESS_START	145832	n/a	LTP199	ltpFR	3	n/a	n/a	n/a	n/a	1	n/a	n/a	n/a	n/a	n/a	n/a
403.74	n/a	WORD	201870	wordpools/wasnorm_wordpool_less_exclusions.txt	LTP199	ltpFR	3	1	1	SNACK	1331	n/a	0	0	0.5869140625	0.422607421875	lower	../fonts/zerothre.ttf
407.672	n/a	WORD	203836	wordpools/wasnorm_wordpool_less_exclusions.txt	LTP199	ltpFR	3	1	1	DASHBOARD	441	n/a	0	0	0.5869140625	0.422607421875	lower	../fonts/zerothre.ttf
411.536	n/a	WORD	205768	wordpools/wasnorm_wordpool_less_exclusions.txt	LTP199	ltpFR	3	1	0	FREEWAY	603	n/a	1	1	0.412841796875	0.57763671875	upper	../fonts/amplitud.ttf
415.452	n/a	WORD	207726	wordpools/wasnorm_wordpool_less_exclusions.txt	LTP199	ltpFR	3	1	0	MATCH	878	n/a	0	1	0.412841796875	0.57763671875	upper	../fonts/amplitud.ttf
419.4	n/a	WORD	209700	wordpools/wasnorm_wordpool_less_exclusions.txt	LTP199	ltpFR	3	1	1	PRESIDENT	1121	n/a	1	0	0.5869140625	0.422607421875	lower	../fonts/zerothre.ttf
423.382	n/a	WORD	211691	wordpools/wasnorm_wordpool_less_exclusions.txt	LTP199	ltpFR	3	1	1	APRON	35	n/a	0	0	0.5869140625	0.422607421875	lower	../fonts/zerothre.ttf
427.434	n/a	WORD	213717	wordpools/wasnorm_wordpool_less_exclusions.txt	LTP199	ltpFR	3	1	1	BAKER	71	n/a	1	0	0.5869140625	0.422607421875	lower	../fonts/zerothre.ttf
431.614	n/a	WORD	215807	wordpools/wasnorm_wordpool_less_exclusions.txt	LTP199	ltpFR	3	1	1	LASER	801	n/a	0	0	0.5869140625	0.422607421875	lower	../fonts/zerothre.ttf
435.78	n/a	WORD	217890	wordpools/wasnorm_wordpool_less_exclusions.txt	LTP199	ltpFR	3	1	0	RABBIT	1152	n/a	0	1	0.412841796875	0.57763671875	upper	../fonts/amplitud.ttf
439.778	n/a	WORD	219889	wordpools/wasnorm_wordpool_less_exclusions.txt	LTP199	ltpFR	3	1	0	HONEY	713	n/a	0	1	0.412841796875	0.57763671875	upper	../fonts/amplitud.ttf
443.794	n/a	WORD	221897	wordpools/wasnorm_wordpool_less_exclusions.txt	LTP199	ltpFR	3	1	0	POPE	1105	n/a	1	1	0.412841796875	0.57763671875	upper	../fonts/amplitud.ttf
447.826	n/a	WORD	223913	wordpools/wasnorm_wordpool_less_exclusions.txt	LTP199	ltpFR	3	1	0	STABLE	1363	n/a	1	1	0.412841796875	0.57763671875	upper	../fonts/amplitud.ttf
452.008	n/a	WORD	226004	wordpools/wasnorm_wordpool_less_exclusions.txt	LTP199	ltpFR	3	1	0	TICK	1463	n/a	0	1	0.412841796875	0.57763671875	upper	../fonts/amplitud.ttf
455.926	n/a	WORD	227963	wordpools/wasnorm_wordpool_less_exclusions.txt	LTP199	ltpFR	3	1	0	CATERPILLAR	259	n/a	0	1	0.412841796875	0.57763671875	upper	../fonts/amplitud.ttf
459.956	n/a	WORD	229978	wordpools/wasnorm_wordpool_less_exclusions.txt	LTP199	ltpFR	3	1	1	POLITICIAN	1099	n/a	1	0	0.5869140625	0.422607421875	lower	../fonts/zerothre.ttf
463.926	n/a	WORD	231963	wordpools/wasnorm_wordpool_less_exclusions.txt	LTP199	ltpFR	3	1	1	LOFT	840	n/a	0	0	0.5869140625	0.422607421875	lower	../fonts/zerothre.ttf
469.81	n/a	REC_START	234905	n/a	LTP199	ltpFR	3	1	n/a	n/a	n/a	n/a	n/a	n/a	n/a	n/a	n/a	n/a
471.322	n/a	REC_WORD	235661	wordpools/wasnorm_wordpool_less_exclusions.txt	LTP199	ltpFR	3	1	1	SNACK	1331	n/a	0	n/a	n/a	n/a	n/a	n/a
472.434	n/a	REC_WORD	236217	wordpools/wasnorm_wordpool_less_exclusions.txt	LTP199	ltpFR	3	1	1	DASHBOARD	441	n/a	0	n/a	n/a	n/a	n/a	n/a
473.996	n/a	REC_WORD	236998	wordpools/wasnorm_wordpool_less_exclusions.txt	LTP199	ltpFR	3	1	0	FREEWAY	603	n/a	1	n/a	n/a	n/a	n/a	n/a
475.13	n/a	REC_WORD	237565	wordpools/wasnorm_wordpool_less_exclusions.txt	LTP199	ltpFR	3	1	0	POPE	1105	n/a	1	n/a	n/a	n/a	n/a	n/a
476.456	n/a	REC_WORD	238228	wordpools/wasnorm_wordpool_less_exclusions.txt	LTP199	ltpFR	3	1	1	POLITICIAN	1099	n/a	1	n/a	n/a	n/a	n/a	n/a
478.332	n/a	REC_WORD	239166	wordpools/wasnorm_wordpool_less_exclusions.txt	LTP199	ltpFR	3	1	0	CATERPILLAR	259	n/a	0	n/a	n/a	n/a	n/a	n/a
480.506	n/a	REC_WORD	240253	wordpools/wasnorm_wordpool_less_exclusions.txt	LTP199	ltpFR	3	1	0	MATCH	878	n/a	0	n/a	n/a	n/a	n/a	n/a
481.604	n/a	REC_WORD	240802	wordpools/wasnorm_wordpool_less_exclusions.txt	LTP199	ltpFR	3	1	0	TICK	1463	n/a	0	n/a	n/a	n/a	n/a	n/a
483.072	n/a	REC_WORD	241536	wordpools/wasnorm_wordpool_less_exclusions.txt	LTP199	ltpFR	3	1	1	LOFT	840	n/a	0	n/a	n/a	n/a	n/a	n/a
495.42	n/a	REC_WORD	247710	wordpools/wasnorm_wordpool_less_exclusions.txt	LTP199	ltpFR	3	1	0	RABBIT	1152	n/a	0	n/a	n/a	n/a	n/a	n/a
559.268	n/a	WORD	279634	wordpools/wasnorm_wordpool_less_exclusions.txt	LTP199	ltpFR	3	2	0	MARINE	869	n/a	1	1	0.412841796875	0.57763671875	upper	../fonts/amplitud.ttf
563.25	n/a	WORD	281625	wordpools/wasnorm_wordpool_less_exclusions.txt	LTP199	ltpFR	3	2	0	BEE	112	n/a	0	1	0.412841796875	0.57763671875	upper	../fonts/amplitud.ttf
567.148	n/a	WORD	283574	wordpools/wasnorm_wordpool_less_exclusions.txt	LTP199	ltpFR	3	2	0	WASP	1593	n/a	0	1	0.412841796875	0.57763671875	upper	../fonts/amplitud.ttf
571.248	n/a	WORD	285624	wordpools/wasnorm_wordpool_less_exclusions.txt	LTP199	ltpFR	3	2	0	SNOB	1335	n/a	1	1	0.412841796875	0.57763671875	upper	../fonts/amplitud.ttf
575.078	n/a	WORD	287539	wordpools/wasnorm_wordpool_less_exclusions.txt	LTP199	ltpFR	3	2	0	BULLY	196	n/a	1	1	0.412841796875	0.57763671875	upper	../fonts/amplitud.ttf
579.026	n/a	WORD	289513	wordpools/wasnorm_wordpool_less_exclusions.txt	LTP199	ltpFR	3	2	0	PAWN	1030	n/a	1	1	0.412841796875	0.57763671875	upper	../fonts/amplitud.ttf
583.242	n/a	WORD	291621	wordpools/wasnorm_wordpool_less_exclusions.txt	LTP199	ltpFR	3	2	1	ASSISTANT	48	n/a	1	0	0.5869140625	0.422607421875	lower	../fonts/zerothre.ttf
587.326	n/a	WORD	293663	wordpools/wasnorm_wordpool_less_exclusions.txt	LTP199	ltpFR	3	2	1	CONTRACTOR	369	n/a	1	0	0.5869140625	0.422607421875	lower	../fonts/zerothre.ttf
591.24	n/a	WORD	295620	wordpools/wasnorm_wordpool_less_exclusions.txt	LTP199	ltpFR	3	2	1	DIME	466	n/a	0	0	0.5869140625	0.422607421875	lower	../fonts/zerothre.ttf
595.174	n/a	WORD	297587	wordpools/wasnorm_wordpool_less_exclusions.txt	LTP199	ltpFR	3	2	1	BULL	193	n/a	1	0	0.5869140625	0.422607421875	lower	../fonts/zerothre.ttf
599.036	n/a	WORD	299518	wordpools/wasnorm_wordpool_less_exclusions.txt	LTP199	ltpFR	3	2	0	BISON	131	n/a	1	1	0.412841796875	0.57763671875	upper	../fonts/amplitud.ttf
602.884	n/a	WORD	301442	wordpools/wasnorm_wordpool_less_exclusions.txt	LTP199	ltpFR	3	2	0	NOTEBOOK	959	n/a	0	1	0.412841796875	0.57763671875	upper	../fonts/amplitud.ttf
607.034	n/a	WORD	303517	wordpools/wasnorm_wordpool_less_exclusions.txt	LTP199	ltpFR	3	2	1	VEST	1559	n/a	0	0	0.5869140625	0.422607421875	lower	../fonts/zerothre.ttf
611.222	n/a	WORD	305611	wordpools/wasnorm_wordpool_less_exclusions.txt	LTP199	ltpFR	3	2	1	EMPLOYEE	531	n/a	1	0	0.5869140625	0.422607421875	lower	../fonts/zerothre.ttf
615.316	n/a	WORD	307658	wordpools/wasnorm_wordpool_less_exclusions.txt	LTP199	ltpFR	3	2	1	MACARONI	851	n/a	0	0	0.5869140625	0.422607421875	lower	../fonts/zerothre.ttf
619.23	n/a	WORD	309615	wordpools/wasnorm_wordpool_less_exclusions.txt	LTP199	ltpFR	3	2	1	FOUNTAIN	597	n/a	0	0	0.5869140625	0.422607421875	lower	../fonts/zerothre.ttf
625.054	n/a	REC_START	312527	n/a	LTP199	ltpFR	3	2	n/a	n/a	n/a	n/a	n/a	n/a	n/a	n/a	n/a	n/a
627.358	n/a	REC_WORD	313679	wordpools/wasnorm_wordpool_less_exclusions.txt	LTP199	ltpFR	3	2	1	FOUNTAIN	597	n/a	0	n/a	n/a	n/a	n/a	n/a
628.81	n/a	REC_WORD	314405	wordpools/wasnorm_wordpool_less_exclusions.txt	LTP199	ltpFR	3	2	0	WASP	1593	n/a	0	n/a	n/a	n/a	n/a	n/a
629.814	n/a	REC_WORD	314907	wordpools/wasnorm_wordpool_less_exclusions.txt	LTP199	ltpFR	3	2	0	BEE	112	n/a	0	n/a	n/a	n/a	n/a	n/a
631.514	n/a	REC_WORD	315757	wordpools/wasnorm_wordpool_less_exclusions.txt	LTP199	ltpFR	3	2	1	BULL	193	n/a	1	n/a	n/a	n/a	n/a	n/a
632.468	n/a	REC_WORD	316234	wordpools/wasnorm_wordpool_less_exclusions.txt	LTP199	ltpFR	3	2	0	BISON	131	n/a	1	n/a	n/a	n/a	n/a	n/a
635.38	n/a	REC_WORD	317690	wordpools/wasnorm_wordpool_less_exclusions.txt	LTP199	ltpFR	3	2	0	NOTEBOOK	959	n/a	0	n/a	n/a	n/a	n/a	n/a
638.888	n/a	REC_WORD	319444	wordpools/wasnorm_wordpool_less_exclusions.txt	LTP199	ltpFR	3	2	0	MARINE	869	n/a	1	n/a	n/a	n/a	n/a	n/a
642.39	n/a	REC_WORD	321195	wordpools/wasnorm_wordpool_less_exclusions.txt	LTP199	ltpFR	3	2	0	SNOB	1335	n/a	1	n/a	n/a	n/a	n/a	n/a
646.322	n/a	REC_WORD	323161	wordpools/wasnorm_wordpool_less_exclusions.txt	LTP199	ltpFR	3	2	1	VEST	1559	n/a	0	n/a	n/a	n/a	n/a	n/a
677.98	n/a	REC_WORD	338990	wordpools/wasnorm_wordpool_less_exclusions.txt	LTP199	ltpFR	3	2	1	FOUNTAIN	597	n/a	0	n/a	n/a	n/a	n/a	n/a
684.746	n/a	REC_WORD	342373	wordpools/wasnorm_wordpool_less_exclusions.txt	LTP199	ltpFR	3	2	1	DIME	466	n/a	0	n/a	n/a	n/a	n/a	n/a
691.336	n/a	REC_WORD	345668	wordpools/wasnorm_wordpool_less_exclusions.txt	LTP199	ltpFR	3	2	1	CONTRACTOR	369	n/a	1	n/a	n/a	n/a	n/a	n/a
720.954	n/a	WORD	360477	wordpools/wasnorm_wordpool_less_exclusions.txt	LTP199	ltpFR	3	3	1	JEWEL	757	n/a	0	0	0.5869140625	0.422607421875	lower	../fonts/zerothre.ttf
725.14	n/a	WORD	362570	wordpools/wasnorm_wordpool_less_exclusions.txt	LTP199	ltpFR	3	3	1	GEM	629	n/a	0	0	0.5869140625	0.422607421875	lower	../fonts/zerothre.ttf
728.984	n/a	WORD	364492	wordpools/wasnorm_wordpool_less_exclusions.txt	LTP199	ltpFR	3	3	1	CHAUFFEUR	283	n/a	1	0	0.5869140625	0.422607421875	lower	../fonts/zerothre.ttf
732.848	n/a	WORD	366424	wordpools/wasnorm_wordpool_less_exclusions.txt	LTP199	ltpFR	3	3	1	NET	946	n/a	0	0	0.5869140625	0.422607421875	lower	../fonts/zerothre.ttf
736.796	n/a	WORD	368398	wordpools/wasnorm_wordpool_less_exclusions.txt	LTP199	ltpFR	3	3	1	COAT	333	n/a	0	0	0.5869140625	0.422607421875	lower	../fonts/zerothre.ttf
740.782	n/a	WORD	370391	wordpools/wasnorm_wordpool_less_exclusions.txt	LTP199	ltpFR	3	3	1	SWAN	1417	n/a	1	0	0.5869140625	0.422607421875	lower	../fonts/zerothre.ttf
744.994	n/a	WORD	372497	wordpools/wasnorm_wordpool_less_exclusions.txt	LTP199	ltpFR	3	3	1	NEST	945	n/a	0	0	0.5869140625	0.422607421875	lower	../fonts/zerothre.ttf
749.096	n/a	WORD	374548	wordpools/wasnorm_wordpool_less_exclusions.txt	LTP199	ltpFR	3	3	1	CLIFF	322	n/a	0	0	0.5869140625	0.422607421875	lower	../fonts/zerothre.ttf
753.058	n/a	WORD	376529	wordpools/wasnorm_wordpool_less_exclusions.txt	LTP199	ltpFR	3	3	1	SHARK	1275	n/a	1	0	0.5869140625	0.422607421875	lower	../fonts/zerothre.ttf
756.924	n/a	WORD	378462	wordpools/wasnorm_wordpool_less_exclusions.txt	LTP199	ltpFR	3	3	1	SIDING	1304	n/a	0	0	0.5869140625	0.422607421875	lower	../fonts/zerothre.ttf
761.14	n/a	WORD	380570	wordpools/wasnorm_wordpool_less_exclusions.txt	LTP199	ltpFR	3	3	1	CANAL	226	n/a	0	0	0.5869140625	0.422607421875	lower	../fonts/zerothre.ttf
765.272	n/a	WORD	382636	wordpools/wasnorm_wordpool_less_exclusions.txt	LTP199	ltpFR	3	3	1	STAFF	1365	n/a	1	0	0.5869140625	0.422607421875	lower	../fonts/zerothre.ttf
769.288	n/a	WORD	384644	wordpools/wasnorm_wordpool_less_exclusions.txt	LTP199	ltpFR	3	3	1	ASSOCIATE	49	n/a	1	0	0.5869140625	0.422607421875	lower	../fonts/zerothre.ttf
773.452	n/a	WORD	386726	wordpools/wasnorm_wordpool_less_exclusions.txt	LTP199	ltpFR	3	3	1	BUGGY	188	n/a	0	0	0.5869140625	0.422607421875	lower	../fonts/zerothre.ttf
777.506	n/a	WORD	388753	wordpools/wasnorm_wordpool_less_exclusions.txt	LTP199	ltpFR	3	3	1	PLUTO	1092	n/a	0	0	0.5869140625	0.422607421875	lower	../fonts/zerothre.ttf
781.434	n/a	WORD	390717	wordpools/wasnorm_wordpool_less_exclusions.txt	LTP199	ltpFR	3	3	1	OTTER	986	n/a	1	0	0.5869140625	0.422607421875	lower	../fonts/zerothre.ttf
787.174	n/a	REC_START	393587	n/a	LTP199	ltpFR	3	3	n/a	n/a	n/a	n/a	n/a	n/a	n/a	n/a	n/a	n/a
789.04	n/a	REC_WORD	394520	wordpools/wasnorm_wordpool_less_exclusions.txt	LTP199	ltpFR	3	3	1	OTTER	986	n/a	1	n/a	n/a	n/a	n/a	n/a
789.726	n/a	REC_WORD	394863	wordpools/wasnorm_wordpool_less_exclusions.txt	LTP199	ltpFR	3	3	1	SWAN	1417	n/a	1	n/a	n/a	n/a	n/a	n/a
792.332	n/a	REC_WORD	396166	wordpools/wasnorm_wordpool_less_exclusions.txt	LTP199	ltpFR	3	3	1	ASSOCIATE	49	n/a	1	n/a	n/a	n/a	n/a	n/a
794.038	n/a	REC_WORD	397019	wordpools/wasnorm_wordpool_less_exclusions.txt	LTP199	ltpFR	3	3	1	STAFF	1365	n/a	1	n/a	n/a	n/a	n/a	n/a
816.538	n/a	REC_WORD	408269	wordpools/wasnorm_wordpool_less_exclusions.txt	LTP199	ltpFR	3	3	1	PLUTO	1092	n/a	0	n/a	n/a	n/a	n/a	n/a
854.066	n/a	REC_WORD	427033	wordpools/wasnorm_wordpool_less_exclusions.txt	LTP199	ltpFR	3	3	1	BUGGY	188	n/a	0	n/a	n/a	n/a	n/a	n/a
890.87	n/a	WORD	445435	wordpools/wasnorm_wordpool_less_exclusions.txt	LTP199	ltpFR	3	4	0	HERD	705	n/a	1	1	0.412841796875	0.57763671875	upper	../fonts/amplitud.ttf
894.804	n/a	WORD	447402	wordpools/wasnorm_wordpool_less_exclusions.txt	LTP199	ltpFR	3	4	0	POCKETBOOK	1094	n/a	0	1	0.412841796875	0.57763671875	upper	../fonts/amplitud.ttf
898.916	n/a	WORD	449458	wordpools/wasnorm_wordpool_less_exclusions.txt	LTP199	ltpFR	3	4	0	BAG	69	n/a	0	1	0.412841796875	0.57763671875	upper	../fonts/amplitud.ttf
902.814	n/a	WORD	451407	wordpools/wasnorm_wordpool_less_exclusions.txt	LTP199	ltpFR	3	4	0	DORM	488	n/a	1	1	0.412841796875	0.57763671875	upper	../fonts/amplitud.ttf
906.93	n/a	WORD	453465	wordpools/wasnorm_wordpool_less_exclusions.txt	LTP199	ltpFR	3	4	0	WART	1590	n/a	0	1	0.412841796875	0.57763671875	upper	../fonts/amplitud.ttf
910.862	n/a	WORD	455431	wordpools/wasnorm_wordpool_less_exclusions.txt	LTP199	ltpFR	3	4	0	CALF	222	n/a	1	1	0.412841796875	0.57763671875	upper	../fonts/amplitud.ttf
915.01	n/a	WORD	457505	wordpools/wasnorm_wordpool_less_exclusions.txt	LTP199	ltpFR	3	4	0	SHACK	1273	n/a	1	1	0.412841796875	0.57763671875	upper	../fonts/amplitud.ttf
919.126	n/a	WORD	459563	wordpools/wasnorm_wordpool_less_exclusions.txt	LTP199	ltpFR	3	4	0	WAITER	1580	n/a	1	1	0.412841796875	0.57763671875	upper	../fonts/amplitud.ttf
922.974	n/a	WORD	461487	wordpools/wasnorm_wordpool_less_exclusions.txt	LTP199	ltpFR	3	4	0	LUNCH	849	n/a	0	1	0.412841796875	0.57763671875	upper	../fonts/amplitud.ttf
927.074	n/a	WORD	463537	wordpools/wasnorm_wordpool_less_exclusions.txt	LTP199	ltpFR	3	4	0	ICING	732	n/a	0	1	0.412841796875	0.57763671875	upper	../fonts/amplitud.ttf
931.178	n/a	WORD	465589	wordpools/wasnorm_wordpool_less_exclusions.txt	LTP199	ltpFR	3	4	0	BUN	197	n/a	0	1	0.412841796875	0.57763671875	upper	../fonts/amplitud.ttf
935.074	n/a	WORD	467537	wordpools/wasnorm_wordpool_less_exclusions.txt	LTP199	ltpFR	3	4	0	BUCKET	184	n/a	1	1	0.412841796875	0.57763671875	upper	../fonts/amplitud.ttf
939.254	n/a	WORD	469627	wordpools/wasnorm_wordpool_less_exclusions.txt	LTP199	ltpFR	3	4	0	ANKLE	24	n/a	0	1	0.412841796875	0.57763671875	upper	../fonts/amplitud.ttf
943.118	n/a	WORD	471559	wordpools/wasnorm_wordpool_less_exclusions.txt	LTP199	ltpFR	3	4	0	SEAGULL	1261	n/a	1	1	0.412841796875	0.57763671875	upper	../fonts/amplitud.ttf
947.184	n/a	WORD	473592	wordpools/wasnorm_wordpool_less_exclusions.txt	LTP199	ltpFR	3	4	0	WINGS	1614	n/a	1	1	0.412841796875	0.57763671875	upper	../fonts/amplitud.ttf
951.334	n/a	WORD	475667	wordpools/wasnorm_wordpool_less_exclusions.txt	LTP199	ltpFR	3	4	0	SHORTCAKE	1292	n/a	1	1	0.412841796875	0.57763671875	upper	../fonts/amplitud.ttf
957.224	n/a	REC_START	478612	n/a	LTP199	ltpFR	3	4	n/a	n/a	n/a	n/a	n/a	n/a	n/a	n/a	n/a	n/a
958.32	n/a	REC_WORD	479160	wordpools/wasnorm_wordpool_less_exclusions.txt	LTP199	ltpFR	3	4	0	SEAGULL	1261	n/a	1	n/a	n/a	n/a	n/a	n/a
959.278	n/a	REC_WORD	479639	wordpools/wasnorm_wordpool_less_exclusions.txt	LTP199	ltpFR	3	4	0	WINGS	1614	n/a	1	n/a	n/a	n/a	n/a	n/a
959.996	n/a	REC_WORD	479998	wordpools/wasnorm_wordpool_less_exclusions.txt	LTP199	ltpFR	3	4	0	SHORTCAKE	1292	n/a	1	n/a	n/a	n/a	n/a	n/a
961.998	n/a	REC_WORD	480999	wordpools/wasnorm_wordpool_less_exclusions.txt	LTP199	ltpFR	3	4	0	POCKETBOOK	1094	n/a	0	n/a	n/a	n/a	n/a	n/a
963.588	n/a	REC_WORD	481794	wordpools/wasnorm_wordpool_less_exclusions.txt	LTP199	ltpFR	3	4	0	BAG	69	n/a	0	n/a	n/a	n/a	n/a	n/a
974.974	n/a	REC_WORD	487487	wordpools/wasnorm_wordpool_less_exclusions.txt	LTP199	ltpFR	3	4	n/a	EAGLE	512	n/a	n/a	n/a	n/a	n/a	n/a	n/a
994.086	n/a	REC_WORD	497043	wordpools/wasnorm_wordpool_less_exclusions.txt	LTP199	ltpFR	3	4	0	DORM	488	n/a	1	n/a	n/a	n/a	n/a	n/a
1046.146	n/a	WORD	523073	wordpools/wasnorm_wordpool_less_exclusions.txt	LTP199	ltpFR	3	5	0	EARRING	514	n/a	0	1	0.412841796875	0.57763671875	upper	../fonts/amplitud.ttf
1050.316	n/a	WORD	525158	wordpools/wasnorm_wordpool_less_exclusions.txt	LTP199	ltpFR	3	5	0	MOSS	918	n/a	0	1	0.412841796875	0.57763671875	upper	../fonts/amplitud.ttf
1054.294	n/a	WORD	527147	wordpools/wasnorm_wordpool_less_exclusions.txt	LTP199	ltpFR	3	5	0	REGISTER	1180	n/a	1	1	0.412841796875	0.57763671875	upper	../fonts/amplitud.ttf
1058.292	n/a	WORD	529146	wordpools/wasnorm_wordpool_less_exclusions.txt	LTP199	ltpFR	3	5	1	PIER	1063	n/a	0	0	0.5869140625	0.422607421875	lower	../fonts/zerothre.ttf
1062.308	n/a	WORD	531154	wordpools/wasnorm_wordpool_less_exclusions.txt	LTP199	ltpFR	3	5	1	DAM	436	n/a	0	0	0.5869140625	0.422607421875	lower	../fonts/zerothre.ttf
1066.34	n/a	WORD	533170	wordpools/wasnorm_wordpool_less_exclusions.txt	LTP199	ltpFR	3	5	1	FRAME	600	n/a	0	0	0.5869140625	0.422607421875	lower	../fonts/zerothre.ttf
1070.288	n/a	WORD	535144	wordpools/wasnorm_wordpool_less_exclusions.txt	LTP199	ltpFR	3	5	1	BAY	102	n/a	0	0	0.5869140625	0.422607421875	lower	../fonts/zerothre.ttf
1074.118	n/a	WORD	537059	wordpools/wasnorm_wordpool_less_exclusions.txt	LTP199	ltpFR	3	5	1	WALRUS	1585	n/a	1	0	0.5869140625	0.422607421875	lower	../fonts/zerothre.ttf
1078.234	n/a	WORD	539117	wordpools/wasnorm_wordpool_less_exclusions.txt	LTP199	ltpFR	3	5	0	BUILDER	190	n/a	1	1	0.412841796875	0.57763671875	upper	../fonts/amplitud.ttf
1082.318	n/a	WORD	541159	wordpools/wasnorm_wordpool_less_exclusions.txt	LTP199	ltpFR	3	5	0	ARTIST	43	n/a	1	1	0.412841796875	0.57763671875	upper	../fonts/amplitud.ttf
1086.216	n/a	WORD	543108	wordpools/wasnorm_wordpool_less_exclusions.txt	LTP199	ltpFR	3	5	1	HOOK	715	n/a	0	0	0.5869140625	0.422607421875	lower	../fonts/zerothre.ttf
1090.298	n/a	WORD	545149	wordpools/wasnorm_wordpool_less_exclusions.txt	LTP199	ltpFR	3	5	1	CASHIER	254	n/a	1	0	0.5869140625	0.422607421875	lower	../fonts/zerothre.ttf
1094.196	n/a	WORD	547098	wordpools/wasnorm_wordpool_less_exclusions.txt	LTP199	ltpFR	3	5	1	BOWL	158	n/a	0	0	0.5869140625	0.422607421875	lower	../fonts/zerothre.ttf
1098.21	n/a	WORD	549105	wordpools/wasnorm_wordpool_less_exclusions.txt	LTP199	ltpFR	3	5	0	DISH	474	n/a	0	1	0.412841796875	0.57763671875	upper	../fonts/amplitud.ttf
1102.226	n/a	WORD	551113	wordpools/wasnorm_wordpool_less_exclusions.txt	LTP199	ltpFR	3	5	0	SKYSCRAPER	1322	n/a	1	1	0.412841796875	0.57763671875	upper	../fonts/amplitud.ttf
1106.392	n/a	WORD	553196	wordpools/wasnorm_wordpool_less_exclusions.txt	LTP199	ltpFR	3	5	0	INCENSE	735	n/a	0	1	0.412841796875	0.57763671875	upper	../fonts/amplitud.ttf
1112.45	n/a	REC_START	556225	n/a	LTP199	ltpFR	3	5	n/a	n/a	n/a	n/a	n/a	n/a	n/a	n/a	n/a	n/a
1113.532	n/a	REC_WORD	556766	wordpools/wasnorm_wordpool_less_exclusions.txt	LTP199	ltpFR	3	5	0	SKYSCRAPER	1322	n/a	1	n/a	n/a	n/a	n/a	n/a
1114.532	n/a	REC_WORD_VV	557266	wordpools/wasnorm_wordpool_less_exclusions.txt	LTP199	ltpFR	3	5	n/a	<>	-1	n/a	n/a	n/a	n/a	n/a	n/a	n/a
1114.988	n/a	REC_WORD	557494	wordpools/wasnorm_wordpool_less_exclusions.txt	LTP199	ltpFR	3	5	0	INCENSE	735	n/a	0	n/a	n/a	n/a	n/a	n/a
1116.904	n/a	REC_WORD	558452	wordpools/wasnorm_wordpool_less_exclusions.txt	LTP199	ltpFR	3	5	1	WALRUS	1585	n/a	1	n/a	n/a	n/a	n/a	n/a
1118.022	n/a	REC_WORD	559011	wordpools/wasnorm_wordpool_less_exclusions.txt	LTP199	ltpFR	3	5	1	HOOK	715	n/a	0	n/a	n/a	n/a	n/a	n/a
1120.038	n/a	REC_WORD	560019	wordpools/wasnorm_wordpool_less_exclusions.txt	LTP199	ltpFR	3	5	1	BAY	102	n/a	0	n/a	n/a	n/a	n/a	n/a
1121.026	n/a	REC_WORD	560513	wordpools/wasnorm_wordpool_less_exclusions.txt	LTP199	ltpFR	3	5	1	DAM	436	n/a	0	n/a	n/a	n/a	n/a	n/a
1121.868	n/a	REC_WORD	560934	wordpools/wasnorm_wordpool_less_exclusions.txt	LTP199	ltpFR	3	5	1	PIER	1063	n/a	0	n/a	n/a	n/a	n/a	n/a
1124.174	n/a	REC_WORD	562087	wordpools/wasnorm_wordpool_less_exclusions.txt	LTP199	ltpFR	3	5	0	REGISTER	1180	n/a	1	n/a	n/a	n/a	n/a	n/a
1126.184	n/a	REC_WORD	563092	wordpools/wasnorm_wordpool_less_exclusions.txt	LTP199	ltpFR	3	5	1	CASHIER	254	n/a	1	n/a	n/a	n/a	n/a	n/a
1127.626	n/a	REC_WORD	563813	wordpools/wasnorm_wordpool_less_exclusions.txt	LTP199	ltpFR	3	5	0	EARRING	514	n/a	0	n/a	n/a	n/a	n/a	n/a
1129.268	n/a	REC_WORD	564634	wordpools/wasnorm_wordpool_less_exclusions.txt	LTP199	ltpFR	3	5	0	MOSS	918	n/a	0	n/a	n/a	n/a	n/a	n/a
1130.948	n/a	REC_WORD	565474	wordpools/wasnorm_wordpool_less_exclusions.txt	LTP199	ltpFR	3	5	1	BOWL	158	n/a	0	n/a	n/a	n/a	n/a	n/a
1132.366	n/a	REC_WORD	566183	wordpools/wasnorm_wordpool_less_exclusions.txt	LTP199	ltpFR	3	5	0	DISH	474	n/a	0	n/a	n/a	n/a	n/a	n/a
1140.302	n/a	REC_WORD	570151	wordpools/wasnorm_wordpool_less_exclusions.txt	LTP199	ltpFR	3	5	1	FRAME	600	n/a	0	n/a	n/a	n/a	n/a	n/a
1174.786	n/a	REC_WORD	587393	wordpools/wasnorm_wordpool_less_exclusions.txt	LTP199	ltpFR	3	5	0	ARTIST	43	n/a	1	n/a	n/a	n/a	n/a	n/a
1180.952	n/a	REC_WORD	590476	wordpools/wasnorm_wordpool_less_exclusions.txt	LTP199	ltpFR	3	5	0	BUILDER	190	n/a	1	n/a	n/a	n/a	n/a	n/a
1199.18	n/a	WORD	599590	wordpools/wasnorm_wordpool_less_exclusions.txt	LTP199	ltpFR	3	6	0	KITCHEN	778	n/a	1	1	0.412841796875	0.57763671875	upper	../fonts/amplitud.ttf
1203.014	n/a	WORD	601507	wordpools/wasnorm_wordpool_less_exclusions.txt	LTP199	ltpFR	3	6	0	PALM	1007	n/a	0	1	0.412841796875	0.57763671875	upper	../fonts/amplitud.ttf
1207.026	n/a	WORD	603513	wordpools/wasnorm_wordpool_less_exclusions.txt	LTP199	ltpFR	3	6	0	KETCHUP	771	n/a	0	1	0.412841796875	0.57763671875	upper	../fonts/amplitud.ttf
1211.226	n/a	WORD	605613	wordpools/wasnorm_wordpool_less_exclusions.txt	LTP199	ltpFR	3	6	0	SPINACH	1352	n/a	0	1	0.412841796875	0.57763671875	upper	../fonts/amplitud.ttf
1215.092	n/a	WORD	607546	wordpools/wasnorm_wordpool_less_exclusions.txt	LTP199	ltpFR	3	6	0	CACTUS	215	n/a	1	1	0.412841796875	0.57763671875	upper	../fonts/amplitud.ttf
1219.206	n/a	WORD	609603	wordpools/wasnorm_wordpool_less_exclusions.txt	LTP199	ltpFR	3	6	0	SHEPHERD	1283	n/a	1	1	0.412841796875	0.57763671875	upper	../fonts/amplitud.ttf
1223.038	n/a	WORD	611519	wordpools/wasnorm_wordpool_less_exclusions.txt	LTP199	ltpFR	3	6	0	WELL	1600	n/a	0	1	0.412841796875	0.57763671875	upper	../fonts/amplitud.ttf
1226.936	n/a	WORD	613468	wordpools/wasnorm_wordpool_less_exclusions.txt	LTP199	ltpFR	3	6	0	BALLOON	75	n/a	0	1	0.412841796875	0.57763671875	upper	../fonts/amplitud.ttf
1230.9	n/a	WORD	615450	wordpools/wasnorm_wordpool_less_exclusions.txt	LTP199	ltpFR	3	6	0	CAPITAL	238	n/a	1	1	0.412841796875	0.57763671875	upper	../fonts/amplitud.ttf
1234.85	n/a	WORD	617425	wordpools/wasnorm_wordpool_less_exclusions.txt	LTP199	ltpFR	3	6	0	TOWN	1491	n/a	1	1	0.412841796875	0.57763671875	upper	../fonts/amplitud.ttf
1238.714	n/a	WORD	619357	wordpools/wasnorm_wordpool_less_exclusions.txt	LTP199	ltpFR	3	6	0	BATHROOM	99	n/a	1	1	0.412841796875	0.57763671875	upper	../fonts/amplitud.ttf
1242.596	n/a	WORD	621298	wordpools/wasnorm_wordpool_less_exclusions.txt	LTP199	ltpFR	3	6	0	FINGER	567	n/a	0	1	0.412841796875	0.57763671875	upper	../fonts/amplitud.ttf
1246.796	n/a	WORD	623398	wordpools/wasnorm_wordpool_less_exclusions.txt	LTP199	ltpFR	3	6	0	CHOCOLATE	306	n/a	0	1	0.412841796875	0.57763671875	upper	../fonts/amplitud.ttf
1250.726	n/a	WORD	625363	wordpools/wasnorm_wordpool_less_exclusions.txt	LTP199	ltpFR	3	6	0	TREAT	1501	n/a	0	1	0.412841796875	0.57763671875	upper	../fonts/amplitud.ttf
1254.664	n/a	WORD	627332	wordpools/wasnorm_wordpool_less_exclusions.txt	LTP199	ltpFR	3	6	0	POTATO	1115	n/a	0	1	0.412841796875	0.57763671875	upper	../fonts/amplitud.ttf
1258.624	n/a	WORD	629312	wordpools/wasnorm_wordpool_less_exclusions.txt	LTP199	ltpFR	3	6	0	SAXOPHONE	1240	n/a	1	1	0.412841796875	0.57763671875	upper	../fonts/amplitud.ttf
1264.196	n/a	REC_START	632098	n/a	LTP199	ltpFR	3	6	n/a	n/a	n/a	n/a	n/a	n/a	n/a	n/a	n/a	n/a
1265.826	n/a	REC_WORD	632913	wordpools/wasnorm_wordpool_less_exclusions.txt	LTP199	ltpFR	3	6	0	SAXOPHONE	1240	n/a	1	n/a	n/a	n/a	n/a	n/a
1267.304	n/a	REC_WORD	633652	wordpools/wasnorm_wordpool_less_exclusions.txt	LTP199	ltpFR	3	6	0	TREAT	1501	n/a	0	n/a	n/a	n/a	n/a	n/a
1268.974	n/a	REC_WORD	634487	wordpools/wasnorm_wordpool_less_exclusions.txt	LTP199	ltpFR	3	6	0	CHOCOLATE	306	n/a	0	n/a	n/a	n/a	n/a	n/a
1270.272	n/a	REC_WORD	635136	wordpools/wasnorm_wordpool_less_exclusions.txt	LTP199	ltpFR	3	6	0	POTATO	1115	n/a	0	n/a	n/a	n/a	n/a	n/a
1273.634	n/a	REC_WORD	636817	wordpools/wasnorm_wordpool_less_exclusions.txt	LTP199	ltpFR	3	6	0	SHEPHERD	1283	n/a	1	n/a	n/a	n/a	n/a	n/a
1274.722	n/a	REC_WORD	637361	wordpools/wasnorm_wordpool_less_exclusions.txt	LTP199	ltpFR	3	6	0	WELL	1600	n/a	0	n/a	n/a	n/a	n/a	n/a
1302.82	n/a	REC_WORD	651410	wordpools/wasnorm_wordpool_less_exclusions.txt	LTP199	ltpFR	3	6	0	CAPITAL	238	n/a	1	n/a	n/a	n/a	n/a	n/a
1303.962	n/a	REC_WORD	651981	wordpools/wasnorm_wordpool_less_exclusions.txt	LTP199	ltpFR	3	6	0	TOWN	1491	n/a	1	n/a	n/a	n/a	n/a	n/a
1306.61	n/a	REC_WORD	653305	wordpools/wasnorm_wordpool_less_exclusions.txt	LTP199	ltpFR	3	6	0	PALM	1007	n/a	0	n/a	n/a	n/a	n/a	n/a
1313.784	n/a	REC_WORD	656892	wordpools/wasnorm_wordpool_less_exclusions.txt	LTP199	ltpFR	3	6	0	SPINACH	1352	n/a	0	n/a	n/a	n/a	n/a	n/a
1314.748	n/a	REC_WORD	657374	wordpools/wasnorm_wordpool_less_exclusions.txt	LTP199	ltpFR	3	6	0	KITCHEN	778	n/a	1	n/a	n/a	n/a	n/a	n/a
1319.402	n/a	REC_WORD	659701	wordpools/wasnorm_wordpool_less_exclusions.txt	LTP199	ltpFR	3	6	0	CACTUS	215	n/a	1	n/a	n/a	n/a	n/a	n/a
1347.048	n/a	WORD	673524	wordpools/wasnorm_wordpool_less_exclusions.txt	LTP199	ltpFR	3	7	1	TYPIST	1532	n/a	1	0	0.5869140625	0.422607421875	lower	../fonts/zerothre.ttf
1351.262	n/a	WORD	675631	wordpools/wasnorm_wordpool_less_exclusions.txt	LTP199	ltpFR	3	7	1	SCRIBBLE	1256	n/a	0	0	0.5869140625	0.422607421875	lower	../fonts/zerothre.ttf
1355.16	n/a	WORD	677580	wordpools/wasnorm_wordpool_less_exclusions.txt	LTP199	ltpFR	3	7	1	GRATE	657	n/a	0	0	0.5869140625	0.422607421875	lower	../fonts/zerothre.ttf
1359.192	n/a	WORD	679596	wordpools/wasnorm_wordpool_less_exclusions.txt	LTP199	ltpFR	3	7	1	SPIDER	1351	n/a	1	0	0.5869140625	0.422607421875	lower	../fonts/zerothre.ttf
1363.24	n/a	WORD	681620	wordpools/wasnorm_wordpool_less_exclusions.txt	LTP199	ltpFR	3	7	1	GROCERIES	663	n/a	0	0	0.5869140625	0.422607421875	lower	../fonts/zerothre.ttf
1367.206	n/a	WORD	683603	wordpools/wasnorm_wordpool_less_exclusions.txt	LTP199	ltpFR	3	7	1	CONTRACT	368	n/a	0	0	0.5869140625	0.422607421875	lower	../fonts/zerothre.ttf
1371.154	n/a	WORD	685577	wordpools/wasnorm_wordpool_less_exclusions.txt	LTP199	ltpFR	3	7	1	UNIFORM	1539	n/a	0	0	0.5869140625	0.422607421875	lower	../fonts/zerothre.ttf
1375.17	n/a	WORD	687585	wordpools/wasnorm_wordpool_less_exclusions.txt	LTP199	ltpFR	3	7	1	BEAN	105	n/a	0	0	0.5869140625	0.422607421875	lower	../fonts/zerothre.ttf
1379.134	n/a	WORD	689567	wordpools/wasnorm_wordpool_less_exclusions.txt	LTP199	ltpFR	3	7	1	FIG	563	n/a	0	0	0.5869140625	0.422607421875	lower	../fonts/zerothre.ttf
1383.284	n/a	WORD	691642	wordpools/wasnorm_wordpool_less_exclusions.txt	LTP199	ltpFR	3	7	1	CHERRY	293	n/a	0	0	0.5869140625	0.422607421875	lower	../fonts/zerothre.ttf
1387.316	n/a	WORD	693658	wordpools/wasnorm_wordpool_less_exclusions.txt	LTP199	ltpFR	3	7	1	BUTLER	204	n/a	1	0	0.5869140625	0.422607421875	lower	../fonts/zerothre.ttf
1391.348	n/a	WORD	695674	wordpools/wasnorm_wordpool_less_exclusions.txt	LTP199	ltpFR	3	7	1	PIZZA	1079	n/a	0	0	0.5869140625	0.422607421875	lower	../fonts/zerothre.ttf
1395.28	n/a	WORD	697640	wordpools/wasnorm_wordpool_less_exclusions.txt	LTP199	ltpFR	3	7	1	WALLET	1583	n/a	0	0	0.5869140625	0.422607421875	lower	../fonts/zerothre.ttf
1399.38	n/a	WORD	699690	wordpools/wasnorm_wordpool_less_exclusions.txt	LTP199	ltpFR	3	7	1	OX	994	n/a	1	0	0.5869140625	0.422607421875	lower	../fonts/zerothre.ttf
1403.578	n/a	WORD	701789	wordpools/wasnorm_wordpool_less_exclusions.txt	LTP199	ltpFR	3	7	1	CATTLE	261	n/a	1	0	0.5869140625	0.422607421875	lower	../fonts/zerothre.ttf
1407.794	n/a	WORD	703897	wordpools/wasnorm_wordpool_less_exclusions.txt	LTP199	ltpFR	3	7	1	MOTH	920	n/a	1	0	0.5869140625	0.422607421875	lower	../fonts/zerothre.ttf
1413.868	n/a	REC_START	706934	n/a	LTP199	ltpFR	3	7	n/a	n/a	n/a	n/a	n/a	n/a	n/a	n/a	n/a	n/a
1415.3	n/a	REC_WORD	707650	wordpools/wasnorm_wordpool_less_exclusions.txt	LTP199	ltpFR	3	7	1	OX	994	n/a	1	n/a	n/a	n/a	n/a	n/a
1416.188	n/a	REC_WORD	708094	wordpools/wasnorm_wordpool_less_exclusions.txt	LTP199	ltpFR	3	7	1	CATTLE	261	n/a	1	n/a	n/a	n/a	n/a	n/a
1417.124	n/a	REC_WORD	708562	wordpools/wasnorm_wordpool_less_exclusions.txt	LTP199	ltpFR	3	7	1	MOTH	920	n/a	1	n/a	n/a	n/a	n/a	n/a
1423.716	n/a	REC_WORD	711858	wordpools/wasnorm_wordpool_less_exclusions.txt	LTP199	ltpFR	3	7	1	TYPIST	1532	n/a	1	n/a	n/a	n/a	n/a	n/a
1424.724	n/a	REC_WORD	712362	wordpools/wasnorm_wordpool_less_exclusions.txt	LTP199	ltpFR	3	7	1	SCRIBBLE	1256	n/a	0	n/a	n/a	n/a	n/a	n/a
1427.184	n/a	REC_WORD	713592	wordpools/wasnorm_wordpool_less_exclusions.txt	LTP199	ltpFR	3	7	1	GROCERIES	663	n/a	0	n/a	n/a	n/a	n/a	n/a
1548.566	n/a	WORD	774283	wordpools/wasnorm_wordpool_less_exclusions.txt	LTP199	ltpFR	3	8	-1	SNORKEL	1336	n/a	-1	1	1.0	1.0	upper	../fonts/Verdana.ttf
1552.446	n/a	WORD	776223	wordpools/wasnorm_wordpool_less_exclusions.txt	LTP199	ltpFR	3	8	-1	STEM	1376	n/a	-1	1	1.0	1.0	upper	../fonts/Verdana.ttf
1556.532	n/a	WORD	778266	wordpools/wasnorm_wordpool_less_exclusions.txt	LTP199	ltpFR	3	8	-1	TWIG	1527	n/a	-1	1	1.0	1.0	upper	../fonts/Verdana.ttf
1560.562	n/a	WORD	780281	wordpools/wasnorm_wordpool_less_exclusions.txt	LTP199	ltpFR	3	8	-1	COACH	331	n/a	-1	1	1.0	1.0	upper	../fonts/Verdana.ttf
1564.476	n/a	WORD	782238	wordpools/wasnorm_wordpool_less_exclusions.txt	LTP199	ltpFR	3	8	-1	SOCKET	1340	n/a	-1	1	1.0	1.0	upper	../fonts/Verdana.ttf
1568.408	n/a	WORD	784204	wordpools/wasnorm_wordpool_less_exclusions.txt	LTP199	ltpFR	3	8	-1	SNAKE	1333	n/a	-1	1	1.0	1.0	upper	../fonts/Verdana.ttf
1572.456	n/a	WORD	786228	wordpools/wasnorm_wordpool_less_exclusions.txt	LTP199	ltpFR	3	8	-1	SEED	1266	n/a	-1	1	1.0	1.0	upper	../fonts/Verdana.ttf
1576.556	n/a	WORD	788278	wordpools/wasnorm_wordpool_less_exclusions.txt	LTP199	ltpFR	3	8	-1	PLANT	1083	n/a	-1	1	1.0	1.0	upper	../fonts/Verdana.ttf
1580.686	n/a	WORD	790343	wordpools/wasnorm_wordpool_less_exclusions.txt	LTP199	ltpFR	3	8	-1	SERPENT	1270	n/a	-1	1	1.0	1.0	upper	../fonts/Verdana.ttf
1584.62	n/a	WORD	792310	wordpools/wasnorm_wordpool_less_exclusions.txt	LTP199	ltpFR	3	8	-1	SINK	1309	n/a	-1	1	1.0	1.0	upper	../fonts/Verdana.ttf
1588.518	n/a	WORD	794259	wordpools/wasnorm_wordpool_less_exclusions.txt	LTP199	ltpFR	3	8	-1	MOVIE	927	n/a	-1	1	1.0	1.0	upper	../fonts/Verdana.ttf
1592.398	n/a	WORD	796199	wordpools/wasnorm_wordpool_less_exclusions.txt	LTP199	ltpFR	3	8	-1	ANTENNA	28	n/a	-1	1	1.0	1.0	upper	../fonts/Verdana.ttf
1596.332	n/a	WORD	798166	wordpools/wasnorm_wordpool_less_exclusions.txt	LTP199	ltpFR	3	8	-1	TOAST	1471	n/a	-1	1	1.0	1.0	upper	../fonts/Verdana.ttf
1600.196	n/a	WORD	800098	wordpools/wasnorm_wordpool_less_exclusions.txt	LTP199	ltpFR	3	8	-1	PISTON	1076	n/a	-1	1	1.0	1.0	upper	../fonts/Verdana.ttf
1604.378	n/a	WORD	802189	wordpools/wasnorm_wordpool_less_exclusions.txt	LTP199	ltpFR	3	8	-1	PUMP	1141	n/a	-1	1	1.0	1.0	upper	../fonts/Verdana.ttf
1608.26	n/a	WORD	804130	wordpools/wasnorm_wordpool_less_exclusions.txt	LTP199	ltpFR	3	8	-1	STREAM	1392	n/a	-1	1	1.0	1.0	upper	../fonts/Verdana.ttf
1614.116	n/a	REC_START	807058	n/a	LTP199	ltpFR	3	8	n/a	n/a	n/a	n/a	n/a	n/a	n/a	n/a	n/a	n/a
1616.786	n/a	REC_WORD	808393	wordpools/wasnorm_wordpool_less_exclusions.txt	LTP199	ltpFR	3	8	-1	STREAM	1392	n/a	-1	n/a	n/a	n/a	n/a	n/a
1627.296	n/a	REC_WORD	813648	wordpools/wasnorm_wordpool_less_exclusions.txt	LTP199	ltpFR	3	8	-1	SERPENT	1270	n/a	-1	n/a	n/a	n/a	n/a	n/a
1628.514	n/a	REC_WORD	814257	wordpools/wasnorm_wordpool_less_exclusions.txt	LTP199	ltpFR	3	8	-1	SNAKE	1333	n/a	-1	n/a	n/a	n/a	n/a	n/a
1629.522	n/a	REC_WORD	814761	wordpools/wasnorm_wordpool_less_exclusions.txt	LTP199	ltpFR	3	8	-1	ANTENNA	28	n/a	-1	n/a	n/a	n/a	n/a	n/a
1631.522	n/a	REC_WORD	815761	wordpools/wasnorm_wordpool_less_exclusions.txt	LTP199	ltpFR	3	8	-1	SINK	1309	n/a	-1	n/a	n/a	n/a	n/a	n/a
1635.852	n/a	REC_WORD	817926	wordpools/wasnorm_wordpool_less_exclusions.txt	LTP199	ltpFR	3	8	-1	SEED	1266	n/a	-1	n/a	n/a	n/a	n/a	n/a
1636.8	n/a	REC_WORD	818400	wordpools/wasnorm_wordpool_less_exclusions.txt	LTP199	ltpFR	3	8	-1	PLANT	1083	n/a	-1	n/a	n/a	n/a	n/a	n/a
1640.342	n/a	REC_WORD	820171	wordpools/wasnorm_wordpool_less_exclusions.txt	LTP199	ltpFR	3	8	-1	SNORKEL	1336	n/a	-1	n/a	n/a	n/a	n/a	n/a
1642.084	n/a	REC_WORD	821042	wordpools/wasnorm_wordpool_less_exclusions.txt	LTP199	ltpFR	3	8	-1	TWIG	1527	n/a	-1	n/a	n/a	n/a	n/a	n/a
1643.456	n/a	REC_WORD	821728	wordpools/wasnorm_wordpool_less_exclusions.txt	LTP199	ltpFR	3	8	-1	COACH	331	n/a	-1	n/a	n/a	n/a	n/a	n/a
1668.424	n/a	REC_WORD	834212	wordpools/wasnorm_wordpool_less_exclusions.txt	LTP199	ltpFR	3	8	n/a	PISTOL	1075	n/a	n/a	n/a	n/a	n/a	n/a	n/a
1723.516	n/a	WORD	861758	wordpools/wasnorm_wordpool_less_exclusions.txt	LTP199	ltpFR	3	9	1	STOMACH	1384	n/a	1	0	0.5869140625	0.422607421875	lower	../fonts/zerothre.ttf
1727.402	n/a	WORD	863701	wordpools/wasnorm_wordpool_less_exclusions.txt	LTP199	ltpFR	3	9	1	ELEPHANT	523	n/a	1	0	0.5869140625	0.422607421875	lower	../fonts/zerothre.ttf
1731.514	n/a	WORD	865757	wordpools/wasnorm_wordpool_less_exclusions.txt	LTP199	ltpFR	3	9	0	PEANUT	1032	n/a	0	1	0.412841796875	0.57763671875	upper	../fonts/amplitud.ttf
1735.646	n/a	WORD	867823	wordpools/wasnorm_wordpool_less_exclusions.txt	LTP199	ltpFR	3	9	0	SAUSAGE	1238	n/a	0	1	0.412841796875	0.57763671875	upper	../fonts/amplitud.ttf
1739.662	n/a	WORD	869831	wordpools/wasnorm_wordpool_less_exclusions.txt	LTP199	ltpFR	3	9	1	AIRPORT	13	n/a	0	0	0.5869140625	0.422607421875	lower	../fonts/zerothre.ttf
1743.878	n/a	WORD	871939	wordpools/wasnorm_wordpool_less_exclusions.txt	LTP199	ltpFR	3	9	1	PILOT	1070	n/a	1	0	0.5869140625	0.422607421875	lower	../fonts/zerothre.ttf
1747.878	n/a	WORD	873939	wordpools/wasnorm_wordpool_less_exclusions.txt	LTP199	ltpFR	3	9	1	TUBE	1516	n/a	0	0	0.5869140625	0.422607421875	lower	../fonts/zerothre.ttf
1751.892	n/a	WORD	875946	wordpools/wasnorm_wordpool_less_exclusions.txt	LTP199	ltpFR	3	9	0	TELEVISION	1447	n/a	1	1	0.412841796875	0.57763671875	upper	../fonts/amplitud.ttf
1755.858	n/a	WORD	877929	wordpools/wasnorm_wordpool_less_exclusions.txt	LTP199	ltpFR	3	9	0	KANGAROO	768	n/a	1	1	0.412841796875	0.57763671875	upper	../fonts/amplitud.ttf
1759.77	n/a	WORD	879885	wordpools/wasnorm_wordpool_less_exclusions.txt	LTP199	ltpFR	3	9	0	BEETLE	116	n/a	0	1	0.412841796875	0.57763671875	upper	../fonts/amplitud.ttf
1763.636	n/a	WORD	881818	wordpools/wasnorm_wordpool_less_exclusions.txt	LTP199	ltpFR	3	9	0	OVEN	991	n/a	1	1	0.412841796875	0.57763671875	upper	../fonts/amplitud.ttf
1767.486	n/a	WORD	883743	wordpools/wasnorm_wordpool_less_exclusions.txt	LTP199	ltpFR	3	9	0	SIGN	1305	n/a	0	1	0.412841796875	0.57763671875	upper	../fonts/amplitud.ttf
1771.416	n/a	WORD	885708	wordpools/wasnorm_wordpool_less_exclusions.txt	LTP199	ltpFR	3	9	0	FEAST	556	n/a	1	1	0.412841796875	0.57763671875	upper	../fonts/amplitud.ttf
1775.338	n/a	WORD	887669	wordpools/wasnorm_wordpool_less_exclusions.txt	LTP199	ltpFR	3	9	1	CHEF	290	n/a	1	0	0.5869140625	0.422607421875	lower	../fonts/zerothre.ttf
1779.296	n/a	WORD	889648	wordpools/wasnorm_wordpool_less_exclusions.txt	LTP199	ltpFR	3	9	1	ZUCCHINI	1638	n/a	0	0	0.5869140625	0.422607421875	lower	../fonts/zerothre.ttf
1783.43	n/a	WORD	891715	wordpools/wasnorm_wordpool_less_exclusions.txt	LTP199	ltpFR	3	9	1	ASIA	46	n/a	0	0	0.5869140625	0.422607421875	lower	../fonts/zerothre.ttf
1789.186	n/a	REC_START	894593	n/a	LTP199	ltpFR	3	9	n/a	n/a	n/a	n/a	n/a	n/a	n/a	n/a	n/a	n/a
1791.146	n/a	REC_WORD	895573	wordpools/wasnorm_wordpool_less_exclusions.txt	LTP199	ltpFR	3	9	1	ASIA	46	n/a	0	n/a	n/a	n/a	n/a	n/a
1791.974	n/a	REC_WORD	895987	wordpools/wasnorm_wordpool_less_exclusions.txt	LTP199	ltpFR	3	9	1	CHEF	290	n/a	1	n/a	n/a	n/a	n/a	n/a
1793.546	n/a	REC_WORD	896773	wordpools/wasnorm_wordpool_less_exclusions.txt	LTP199	ltpFR	3	9	1	ZUCCHINI	1638	n/a	0	n/a	n/a	n/a	n/a	n/a
1800.854	n/a	REC_WORD	900427	wordpools/wasnorm_wordpool_less_exclusions.txt	LTP199	ltpFR	3	9	1	ELEPHANT	523	n/a	1	n/a	n/a	n/a	n/a	n/a
1802.906	n/a	REC_WORD	901453	wordpools/wasnorm_wordpool_less_exclusions.txt	LTP199	ltpFR	3	9	0	PEANUT	1032	n/a	0	n/a	n/a	n/a	n/a	n/a
1804.062	n/a	REC_WORD	902031	wordpools/wasnorm_wordpool_less_exclusions.txt	LTP199	ltpFR	3	9	0	KANGAROO	768	n/a	1	n/a	n/a	n/a	n/a	n/a
1806.666	n/a	REC_WORD	903333	wordpools/wasnorm_wordpool_less_exclusions.txt	LTP199	ltpFR	3	9	1	PILOT	1070	n/a	1	n/a	n/a	n/a	n/a	n/a
1810.058	n/a	REC_WORD	905029	wordpools/wasnorm_wordpool_less_exclusions.txt	LTP199	ltpFR	3	9	n/a	PLANE	1081	n/a	n/a	n/a	n/a	n/a	n/a	n/a
1814.208	n/a	REC_WORD	907104	wordpools/wasnorm_wordpool_less_exclusions.txt	LTP199	ltpFR	3	9	1	STOMACH	1384	n/a	1	n/a	n/a	n/a	n/a	n/a
1910.382	n/a	WORD	955191	wordpools/wasnorm_wordpool_less_exclusions.txt	LTP199	ltpFR	3	10	0	THORN	1459	n/a	0	1	0.412841796875	0.57763671875	upper	../fonts/amplitud.ttf
1914.568	n/a	WORD	957284	wordpools/wasnorm_wordpool_less_exclusions.txt	LTP199	ltpFR	3	10	0	MULE	931	n/a	1	1	0.412841796875	0.57763671875	upper	../fonts/amplitud.ttf
1918.746	n/a	WORD	959373	wordpools/wasnorm_wordpool_less_exclusions.txt	LTP199	ltpFR	3	10	0	CANYON	235	n/a	1	1	0.412841796875	0.57763671875	upper	../fonts/amplitud.ttf
1922.76	n/a	WORD	961380	wordpools/wasnorm_wordpool_less_exclusions.txt	LTP199	ltpFR	3	10	0	ORCHID	982	n/a	1	1	0.412841796875	0.57763671875	upper	../fonts/amplitud.ttf
1926.646	n/a	WORD	963323	wordpools/wasnorm_wordpool_less_exclusions.txt	LTP199	ltpFR	3	10	1	DOVE	491	n/a	1	0	0.5869140625	0.422607421875	lower	../fonts/zerothre.ttf
1930.758	n/a	WORD	965379	wordpools/wasnorm_wordpool_less_exclusions.txt	LTP199	ltpFR	3	10	1	BLUEJAY	141	n/a	1	0	0.5869140625	0.422607421875	lower	../fonts/zerothre.ttf
1934.976	n/a	WORD	967488	wordpools/wasnorm_wordpool_less_exclusions.txt	LTP199	ltpFR	3	10	1	FRECKLE	602	n/a	0	0	0.5869140625	0.422607421875	lower	../fonts/zerothre.ttf
1939.058	n/a	WORD	969529	wordpools/wasnorm_wordpool_less_exclusions.txt	LTP199	ltpFR	3	10	1	CELLAR	267	n/a	0	0	0.5869140625	0.422607421875	lower	../fonts/zerothre.ttf
1943.072	n/a	WORD	971536	wordpools/wasnorm_wordpool_less_exclusions.txt	LTP199	ltpFR	3	10	0	BLADE	134	n/a	0	1	0.412841796875	0.57763671875	upper	../fonts/amplitud.ttf
1947.02	n/a	WORD	973510	wordpools/wasnorm_wordpool_less_exclusions.txt	LTP199	ltpFR	3	10	0	WHIP	1604	n/a	0	1	0.412841796875	0.57763671875	upper	../fonts/amplitud.ttf
1951.154	n/a	WORD	975577	wordpools/wasnorm_wordpool_less_exclusions.txt	LTP199	ltpFR	3	10	0	CHAIN	273	n/a	0	1	0.412841796875	0.57763671875	upper	../fonts/amplitud.ttf
1955.27	n/a	WORD	977635	wordpools/wasnorm_wordpool_less_exclusions.txt	LTP199	ltpFR	3	10	0	OATS	968	n/a	0	1	0.412841796875	0.57763671875	upper	../fonts/amplitud.ttf
1959.118	n/a	WORD	979559	wordpools/wasnorm_wordpool_less_exclusions.txt	LTP199	ltpFR	3	10	1	BEDROOM	111	n/a	0	0	0.5869140625	0.422607421875	lower	../fonts/zerothre.ttf
1963.082	n/a	WORD	981541	wordpools/wasnorm_wordpool_less_exclusions.txt	LTP199	ltpFR	3	10	1	MOTEL	919	n/a	0	0	0.5869140625	0.422607421875	lower	../fonts/zerothre.ttf
1967.064	n/a	WORD	983532	wordpools/wasnorm_wordpool_less_exclusions.txt	LTP199	ltpFR	3	10	1	MEADOW	881	n/a	0	0	0.5869140625	0.422607421875	lower	../fonts/zerothre.ttf
1971.08	n/a	WORD	985540	wordpools/wasnorm_wordpool_less_exclusions.txt	LTP199	ltpFR	3	10	1	DANDELION	438	n/a	0	0	0.5869140625	0.422607421875	lower	../fonts/zerothre.ttf
1976.784	n/a	REC_START	988392	n/a	LTP199	ltpFR	3	10	n/a	n/a	n/a	n/a	n/a	n/a	n/a	n/a	n/a	n/a
1979.178	n/a	REC_WORD	989589	wordpools/wasnorm_wordpool_less_exclusions.txt	LTP199	ltpFR	3	10	0	MULE	931	n/a	1	n/a	n/a	n/a	n/a	n/a
1980.066	n/a	REC_WORD	990033	wordpools/wasnorm_wordpool_less_exclusions.txt	LTP199	ltpFR	3	10	0	CANYON	235	n/a	1	n/a	n/a	n/a	n/a	n/a
2012.57	n/a	REC_WORD	1006285	wordpools/wasnorm_wordpool_less_exclusions.txt	LTP199	ltpFR	3	10	1	DOVE	491	n/a	1	n/a	n/a	n/a	n/a	n/a
2013.438	n/a	REC_WORD	1006719	wordpools/wasnorm_wordpool_less_exclusions.txt	LTP199	ltpFR	3	10	1	BLUEJAY	141	n/a	1	n/a	n/a	n/a	n/a	n/a
2085.332	n/a	WORD	1042666	wordpools/wasnorm_wordpool_less_exclusions.txt	LTP199	ltpFR	3	11	-1	EYE	545	n/a	-1	1	1.0	1.0	upper	../fonts/Verdana.ttf
2089.182	n/a	WORD	1044591	wordpools/wasnorm_wordpool_less_exclusions.txt	LTP199	ltpFR	3	11	-1	REFRIGERATOR	1179	n/a	-1	1	1.0	1.0	upper	../fonts/Verdana.ttf
2093.23	n/a	WORD	1046615	wordpools/wasnorm_wordpool_less_exclusions.txt	LTP199	ltpFR	3	11	-1	FROST	609	n/a	-1	1	1.0	1.0	upper	../fonts/Verdana.ttf
2097.262	n/a	WORD	1048631	wordpools/wasnorm_wordpool_less_exclusions.txt	LTP199	ltpFR	3	11	-1	SWIMMER	1420	n/a	-1	1	1.0	1.0	upper	../fonts/Verdana.ttf
2101.178	n/a	WORD	1050589	wordpools/wasnorm_wordpool_less_exclusions.txt	LTP199	ltpFR	3	11	-1	CANNON	232	n/a	-1	1	1.0	1.0	upper	../fonts/Verdana.ttf
2105.292	n/a	WORD	1052646	wordpools/wasnorm_wordpool_less_exclusions.txt	LTP199	ltpFR	3	11	-1	PARROT	1015	n/a	-1	1	1.0	1.0	upper	../fonts/Verdana.ttf
2109.124	n/a	WORD	1054562	wordpools/wasnorm_wordpool_less_exclusions.txt	LTP199	ltpFR	3	11	-1	QUAIL	1147	n/a	-1	1	1.0	1.0	upper	../fonts/Verdana.ttf
2113.156	n/a	WORD	1056578	wordpools/wasnorm_wordpool_less_exclusions.txt	LTP199	ltpFR	3	11	-1	SHEEP	1278	n/a	-1	1	1.0	1.0	upper	../fonts/Verdana.ttf
2117.054	n/a	WORD	1058527	wordpools/wasnorm_wordpool_less_exclusions.txt	LTP199	ltpFR	3	11	-1	HOUND	724	n/a	-1	1	1.0	1.0	upper	../fonts/Verdana.ttf
2121.086	n/a	WORD	1060543	wordpools/wasnorm_wordpool_less_exclusions.txt	LTP199	ltpFR	3	11	-1	BANDIT	81	n/a	-1	1	1.0	1.0	upper	../fonts/Verdana.ttf
2125.002	n/a	WORD	1062501	wordpools/wasnorm_wordpool_less_exclusions.txt	LTP199	ltpFR	3	11	-1	KLEENEX	782	n/a	-1	1	1.0	1.0	upper	../fonts/Verdana.ttf
2129.122	n/a	WORD	1064561	wordpools/wasnorm_wordpool_less_exclusions.txt	LTP199	ltpFR	3	11	-1	SUITE	1404	n/a	-1	1	1.0	1.0	upper	../fonts/Verdana.ttf
2132.948	n/a	WORD	1066474	wordpools/wasnorm_wordpool_less_exclusions.txt	LTP199	ltpFR	3	11	-1	SLIDE	1326	n/a	-1	1	1.0	1.0	upper	../fonts/Verdana.ttf
2137.03	n/a	WORD	1068515	wordpools/wasnorm_wordpool_less_exclusions.txt	LTP199	ltpFR	3	11	-1	BASEBALL	93	n/a	-1	1	1.0	1.0	upper	../fonts/Verdana.ttf
2141.112	n/a	WORD	1070556	wordpools/wasnorm_wordpool_less_exclusions.txt	LTP199	ltpFR	3	11	-1	COOLER	375	n/a	-1	1	1.0	1.0	upper	../fonts/Verdana.ttf
2145.246	n/a	WORD	1072623	wordpools/wasnorm_wordpool_less_exclusions.txt	LTP199	ltpFR	3	11	-1	ROOM	1206	n/a	-1	1	1.0	1.0	upper	../fonts/Verdana.ttf
2151.252	n/a	REC_START	1075626	n/a	LTP199	ltpFR	3	11	n/a	n/a	n/a	n/a	n/a	n/a	n/a	n/a	n/a	n/a
2153.636	n/a	REC_WORD	1076818	wordpools/wasnorm_wordpool_less_exclusions.txt	LTP199	ltpFR	3	11	-1	EYE	545	n/a	-1	n/a	n/a	n/a	n/a	n/a
2154.286	n/a	REC_WORD	1077143	wordpools/wasnorm_wordpool_less_exclusions.txt	LTP199	ltpFR	3	11	-1	REFRIGERATOR	1179	n/a	-1	n/a	n/a	n/a	n/a	n/a
2155.298	n/a	REC_WORD	1077649	wordpools/wasnorm_wordpool_less_exclusions.txt	LTP199	ltpFR	3	11	-1	COOLER	375	n/a	-1	n/a	n/a	n/a	n/a	n/a
2156.854	n/a	REC_WORD	1078427	wordpools/wasnorm_wordpool_less_exclusions.txt	LTP199	ltpFR	3	11	-1	FROST	609	n/a	-1	n/a	n/a	n/a	n/a	n/a
2159.03	n/a	REC_WORD	1079515	wordpools/wasnorm_wordpool_less_exclusions.txt	LTP199	ltpFR	3	11	-1	SWIMMER	1420	n/a	-1	n/a	n/a	n/a	n/a	n/a
2167.826	n/a	REC_WORD	1083913	wordpools/wasnorm_wordpool_less_exclusions.txt	LTP199	ltpFR	3	11	-1	BASEBALL	93	n/a	-1	n/a	n/a	n/a	n/a	n/a
2298.012	n/a	WORD	1149006	wordpools/wasnorm_wordpool_less_exclusions.txt	LTP199	ltpFR	3	12	0	CLIMBER	323	n/a	1	1	0.412841796875	0.57763671875	upper	../fonts/amplitud.ttf
2302.162	n/a	WORD	1151081	wordpools/wasnorm_wordpool_less_exclusions.txt	LTP199	ltpFR	3	12	0	SUMMIT	1405	n/a	1	1	0.412841796875	0.57763671875	upper	../fonts/amplitud.ttf
2306.01	n/a	WORD	1153005	wordpools/wasnorm_wordpool_less_exclusions.txt	LTP199	ltpFR	3	12	0	BANKER	84	n/a	1	1	0.412841796875	0.57763671875	upper	../fonts/amplitud.ttf
2310.212	n/a	WORD	1155106	wordpools/wasnorm_wordpool_less_exclusions.txt	LTP199	ltpFR	3	12	0	DEER	444	n/a	1	1	0.412841796875	0.57763671875	upper	../fonts/amplitud.ttf
2314.074	n/a	WORD	1157037	wordpools/wasnorm_wordpool_less_exclusions.txt	LTP199	ltpFR	3	12	0	BUTTER	205	n/a	0	1	0.412841796875	0.57763671875	upper	../fonts/amplitud.ttf
2318.178	n/a	WORD	1159089	wordpools/wasnorm_wordpool_less_exclusions.txt	LTP199	ltpFR	3	12	0	RUST	1219	n/a	0	1	0.412841796875	0.57763671875	upper	../fonts/amplitud.ttf
2322.204	n/a	WORD	1161102	wordpools/wasnorm_wordpool_less_exclusions.txt	LTP199	ltpFR	3	12	0	SCREW	1254	n/a	0	1	0.412841796875	0.57763671875	upper	../fonts/amplitud.ttf
2326.036	n/a	WORD	1163018	wordpools/wasnorm_wordpool_less_exclusions.txt	LTP199	ltpFR	3	12	0	CRUMB	416	n/a	0	1	0.412841796875	0.57763671875	upper	../fonts/amplitud.ttf
2330.1	n/a	WORD	1165050	wordpools/wasnorm_wordpool_less_exclusions.txt	LTP199	ltpFR	3	12	0	STORE	1387	n/a	1	1	0.412841796875	0.57763671875	upper	../fonts/amplitud.ttf
2333.95	n/a	WORD	1166975	wordpools/wasnorm_wordpool_less_exclusions.txt	LTP199	ltpFR	3	12	0	NERVE	944	n/a	0	1	0.412841796875	0.57763671875	upper	../fonts/amplitud.ttf
2338.048	n/a	WORD	1169024	wordpools/wasnorm_wordpool_less_exclusions.txt	LTP199	ltpFR	3	12	0	TANK	1432	n/a	1	1	0.412841796875	0.57763671875	upper	../fonts/amplitud.ttf
2341.93	n/a	WORD	1170965	wordpools/wasnorm_wordpool_less_exclusions.txt	LTP199	ltpFR	3	12	0	BRAKE	166	n/a	0	1	0.412841796875	0.57763671875	upper	../fonts/amplitud.ttf
2345.928	n/a	WORD	1172964	wordpools/wasnorm_wordpool_less_exclusions.txt	LTP199	ltpFR	3	12	0	LAUNDRY	803	n/a	1	1	0.412841796875	0.57763671875	upper	../fonts/amplitud.ttf
2349.776	n/a	WORD	1174888	wordpools/wasnorm_wordpool_less_exclusions.txt	LTP199	ltpFR	3	12	0	CLOSET	326	n/a	1	1	0.412841796875	0.57763671875	upper	../fonts/amplitud.ttf
2353.846	n/a	WORD	1176923	wordpools/wasnorm_wordpool_less_exclusions.txt	LTP199	ltpFR	3	12	0	MARKET	871	n/a	1	1	0.412841796875	0.57763671875	upper	../fonts/amplitud.ttf
2357.908	n/a	WORD	1178954	wordpools/wasnorm_wordpool_less_exclusions.txt	LTP199	ltpFR	3	12	0	SALESMAN	1225	n/a	1	1	0.412841796875	0.57763671875	upper	../fonts/amplitud.ttf
2363.864	n/a	REC_START	1181932	n/a	LTP199	ltpFR	3	12	n/a	n/a	n/a	n/a	n/a	n/a	n/a	n/a	n/a	n/a
2366.05	n/a	REC_WORD	1183025	wordpools/wasnorm_wordpool_less_exclusions.txt	LTP199	ltpFR	3	12	0	MARKET	871	n/a	1	n/a	n/a	n/a	n/a	n/a
2366.932	n/a	REC_WORD	1183466	wordpools/wasnorm_wordpool_less_exclusions.txt	LTP199	ltpFR	3	12	0	SALESMAN	1225	n/a	1	n/a	n/a	n/a	n/a	n/a
2406.32	n/a	REC_WORD	1203160	wordpools/wasnorm_wordpool_less_exclusions.txt	LTP199	ltpFR	3	12	0	CLIMBER	323	n/a	1	n/a	n/a	n/a	n/a	n/a
2407.048	n/a	REC_WORD	1203524	wordpools/wasnorm_wordpool_less_exclusions.txt	LTP199	ltpFR	3	12	0	SUMMIT	1405	n/a	1	n/a	n/a	n/a	n/a	n/a
2415.32	n/a	REC_WORD	1207660	wordpools/wasnorm_wordpool_less_exclusions.txt	LTP199	ltpFR	3	12	0	BANKER	84	n/a	1	n/a	n/a	n/a	n/a	n/a
2439.488	n/a	REST_REWET	1219744	n/a	LTP199	ltpFR	3	12	n/a	n/a	n/a	n/a	n/a	n/a	n/a	n/a	n/a	n/a
2839.186	n/a	WORD	1419593	wordpools/wasnorm_wordpool_less_exclusions.txt	LTP199	ltpFR	3	13	-1	DART	440	n/a	-1	1	1.0	1.0	upper	../fonts/Verdana.ttf
2843.396	n/a	WORD	1421698	wordpools/wasnorm_wordpool_less_exclusions.txt	LTP199	ltpFR	3	13	-1	LOOP	844	n/a	-1	1	1.0	1.0	upper	../fonts/Verdana.ttf
2847.478	n/a	WORD	1423739	wordpools/wasnorm_wordpool_less_exclusions.txt	LTP199	ltpFR	3	13	-1	SALT	1229	n/a	-1	1	1.0	1.0	upper	../fonts/Verdana.ttf
2851.36	n/a	WORD	1425680	wordpools/wasnorm_wordpool_less_exclusions.txt	LTP199	ltpFR	3	13	-1	BIBLE	124	n/a	-1	1	1.0	1.0	upper	../fonts/Verdana.ttf
2855.258	n/a	WORD	1427629	wordpools/wasnorm_wordpool_less_exclusions.txt	LTP199	ltpFR	3	13	-1	PLIERS	1089	n/a	-1	1	1.0	1.0	upper	../fonts/Verdana.ttf
2859.408	n/a	WORD	1429704	wordpools/wasnorm_wordpool_less_exclusions.txt	LTP199	ltpFR	3	13	-1	BOX	159	n/a	-1	1	1.0	1.0	upper	../fonts/Verdana.ttf
2863.372	n/a	WORD	1431686	wordpools/wasnorm_wordpool_less_exclusions.txt	LTP199	ltpFR	3	13	-1	GARAGE	621	n/a	-1	1	1.0	1.0	upper	../fonts/Verdana.ttf
2867.538	n/a	WORD	1433769	wordpools/wasnorm_wordpool_less_exclusions.txt	LTP199	ltpFR	3	13	-1	BATHTUB	100	n/a	-1	1	1.0	1.0	upper	../fonts/Verdana.ttf
2871.52	n/a	WORD	1435760	wordpools/wasnorm_wordpool_less_exclusions.txt	LTP199	ltpFR	3	13	-1	SPONGE	1355	n/a	-1	1	1.0	1.0	upper	../fonts/Verdana.ttf
2875.62	n/a	WORD	1437810	wordpools/wasnorm_wordpool_less_exclusions.txt	LTP199	ltpFR	3	13	-1	INSECT	740	n/a	-1	1	1.0	1.0	upper	../fonts/Verdana.ttf
2879.734	n/a	WORD	1439867	wordpools/wasnorm_wordpool_less_exclusions.txt	LTP199	ltpFR	3	13	-1	CONVENT	370	n/a	-1	1	1.0	1.0	upper	../fonts/Verdana.ttf
2883.582	n/a	WORD	1441791	wordpools/wasnorm_wordpool_less_exclusions.txt	LTP199	ltpFR	3	13	-1	CHEMIST	292	n/a	-1	1	1.0	1.0	upper	../fonts/Verdana.ttf
2887.616	n/a	WORD	1443808	wordpools/wasnorm_wordpool_less_exclusions.txt	LTP199	ltpFR	3	13	-1	MOLECULE	905	n/a	-1	1	1.0	1.0	upper	../fonts/Verdana.ttf
2891.514	n/a	WORD	1445757	wordpools/wasnorm_wordpool_less_exclusions.txt	LTP199	ltpFR	3	13	-1	WAGON	1578	n/a	-1	1	1.0	1.0	upper	../fonts/Verdana.ttf
2895.496	n/a	WORD	1447748	wordpools/wasnorm_wordpool_less_exclusions.txt	LTP199	ltpFR	3	13	-1	FEMALE	559	n/a	-1	1	1.0	1.0	upper	../fonts/Verdana.ttf
2899.444	n/a	WORD	1449722	wordpools/wasnorm_wordpool_less_exclusions.txt	LTP199	ltpFR	3	13	-1	BULLETIN	195	n/a	-1	1	1.0	1.0	upper	../fonts/Verdana.ttf
2905.284	n/a	REC_START	1452642	n/a	LTP199	ltpFR	3	13	n/a	n/a	n/a	n/a	n/a	n/a	n/a	n/a	n/a	n/a
2906.764	n/a	REC_WORD	1453382	wordpools/wasnorm_wordpool_less_exclusions.txt	LTP199	ltpFR	3	13	-1	DART	440	n/a	-1	n/a	n/a	n/a	n/a	n/a
2907.948	n/a	REC_WORD	1453974	wordpools/wasnorm_wordpool_less_exclusions.txt	LTP199	ltpFR	3	13	-1	LOOP	844	n/a	-1	n/a	n/a	n/a	n/a	n/a
2908.98	n/a	REC_WORD	1454490	wordpools/wasnorm_wordpool_less_exclusions.txt	LTP199	ltpFR	3	13	-1	BULLETIN	195	n/a	-1	n/a	n/a	n/a	n/a	n/a
2910.666	n/a	REC_WORD	1455333	wordpools/wasnorm_wordpool_less_exclusions.txt	LTP199	ltpFR	3	13	-1	SALT	1229	n/a	-1	n/a	n/a	n/a	n/a	n/a
2911.994	n/a	REC_WORD	1455997	wordpools/wasnorm_wordpool_less_exclusions.txt	LTP199	ltpFR	3	13	-1	BIBLE	124	n/a	-1	n/a	n/a	n/a	n/a	n/a
2922.72	n/a	REC_WORD	1461360	wordpools/wasnorm_wordpool_less_exclusions.txt	LTP199	ltpFR	3	13	-1	CHEMIST	292	n/a	-1	n/a	n/a	n/a	n/a	n/a
2923.748	n/a	REC_WORD	1461874	wordpools/wasnorm_wordpool_less_exclusions.txt	LTP199	ltpFR	3	13	-1	MOLECULE	905	n/a	-1	n/a	n/a	n/a	n/a	n/a
2940.464	n/a	REC_WORD	1470232	wordpools/wasnorm_wordpool_less_exclusions.txt	LTP199	ltpFR	3	13	-1	WAGON	1578	n/a	-1	n/a	n/a	n/a	n/a	n/a
2941.708	n/a	REC_WORD	1470854	wordpools/wasnorm_wordpool_less_exclusions.txt	LTP199	ltpFR	3	13	-1	PLIERS	1089	n/a	-1	n/a	n/a	n/a	n/a	n/a
2974.094	n/a	REC_WORD	1487047	wordpools/wasnorm_wordpool_less_exclusions.txt	LTP199	ltpFR	3	13	-1	GARAGE	621	n/a	-1	n/a	n/a	n/a	n/a	n/a
2990.012	n/a	WORD	1495006	wordpools/wasnorm_wordpool_less_exclusions.txt	LTP199	ltpFR	3	14	1	KEYBOARD	774	n/a	0	0	0.5869140625	0.422607421875	lower	../fonts/zerothre.ttf
2994.206	n/a	WORD	1497103	wordpools/wasnorm_wordpool_less_exclusions.txt	LTP199	ltpFR	3	14	1	VIOLIN	1571	n/a	0	0	0.5869140625	0.422607421875	lower	../fonts/zerothre.ttf
2998.194	n/a	WORD	1499097	wordpools/wasnorm_wordpool_less_exclusions.txt	LTP199	ltpFR	3	14	1	VEHICLE	1553	n/a	0	0	0.5869140625	0.422607421875	lower	../fonts/zerothre.ttf
3002.222	n/a	WORD	1501111	wordpools/wasnorm_wordpool_less_exclusions.txt	LTP199	ltpFR	3	14	1	JEEP	753	n/a	0	0	0.5869140625	0.422607421875	lower	../fonts/zerothre.ttf
3006.302	n/a	WORD	1503151	wordpools/wasnorm_wordpool_less_exclusions.txt	LTP199	ltpFR	3	14	0	PONY	1102	n/a	1	1	0.412841796875	0.57763671875	upper	../fonts/amplitud.ttf
3010.4	n/a	WORD	1505200	wordpools/wasnorm_wordpool_less_exclusions.txt	LTP199	ltpFR	3	14	0	OYSTER	995	n/a	0	1	0.412841796875	0.57763671875	upper	../fonts/amplitud.ttf
3014.45	n/a	WORD	1507225	wordpools/wasnorm_wordpool_less_exclusions.txt	LTP199	ltpFR	3	14	1	GOO	648	n/a	0	0	0.5869140625	0.422607421875	lower	../fonts/zerothre.ttf
3018.632	n/a	WORD	1509316	wordpools/wasnorm_wordpool_less_exclusions.txt	LTP199	ltpFR	3	14	1	RELATIVE	1182	n/a	1	0	0.5869140625	0.422607421875	lower	../fonts/zerothre.ttf
3022.566	n/a	WORD	1511283	wordpools/wasnorm_wordpool_less_exclusions.txt	LTP199	ltpFR	3	14	1	MACHINE	852	n/a	0	0	0.5869140625	0.422607421875	lower	../fonts/zerothre.ttf
3026.446	n/a	WORD	1513223	wordpools/wasnorm_wordpool_less_exclusions.txt	LTP199	ltpFR	3	14	1	SKIRT	1319	n/a	0	0	0.5869140625	0.422607421875	lower	../fonts/zerothre.ttf
3030.578	n/a	WORD	1515289	wordpools/wasnorm_wordpool_less_exclusions.txt	LTP199	ltpFR	3	14	0	TACK	1428	n/a	0	1	0.412841796875	0.57763671875	upper	../fonts/amplitud.ttf
3034.642	n/a	WORD	1517321	wordpools/wasnorm_wordpool_less_exclusions.txt	LTP199	ltpFR	3	14	0	LOG	841	n/a	1	1	0.412841796875	0.57763671875	upper	../fonts/amplitud.ttf
3038.826	n/a	WORD	1519413	wordpools/wasnorm_wordpool_less_exclusions.txt	LTP199	ltpFR	3	14	0	LACE	792	n/a	0	1	0.412841796875	0.57763671875	upper	../fonts/amplitud.ttf
3043.008	n/a	WORD	1521504	wordpools/wasnorm_wordpool_less_exclusions.txt	LTP199	ltpFR	3	14	0	FARMER	553	n/a	1	1	0.412841796875	0.57763671875	upper	../fonts/amplitud.ttf
3047.128	n/a	WORD	1523564	wordpools/wasnorm_wordpool_less_exclusions.txt	LTP199	ltpFR	3	14	0	GIRAFFE	636	n/a	1	1	0.412841796875	0.57763671875	upper	../fonts/amplitud.ttf
3051.206	n/a	WORD	1525603	wordpools/wasnorm_wordpool_less_exclusions.txt	LTP199	ltpFR	3	14	0	ROBOT	1200	n/a	1	1	0.412841796875	0.57763671875	upper	../fonts/amplitud.ttf
3056.996	n/a	REC_START	1528498	n/a	LTP199	ltpFR	3	14	n/a	n/a	n/a	n/a	n/a	n/a	n/a	n/a	n/a	n/a
3058.916	n/a	REC_WORD	1529458	wordpools/wasnorm_wordpool_less_exclusions.txt	LTP199	ltpFR	3	14	0	PONY	1102	n/a	1	n/a	n/a	n/a	n/a	n/a
3060.05	n/a	REC_WORD	1530025	wordpools/wasnorm_wordpool_less_exclusions.txt	LTP199	ltpFR	3	14	0	GIRAFFE	636	n/a	1	n/a	n/a	n/a	n/a	n/a
3061.586	n/a	REC_WORD	1530793	wordpools/wasnorm_wordpool_less_exclusions.txt	LTP199	ltpFR	3	14	0	ROBOT	1200	n/a	1	n/a	n/a	n/a	n/a	n/a
3062.618	n/a	REC_WORD	1531309	wordpools/wasnorm_wordpool_less_exclusions.txt	LTP199	ltpFR	3	14	1	MACHINE	852	n/a	0	n/a	n/a	n/a	n/a	n/a
3067.648	n/a	REC_WORD	1533824	wordpools/wasnorm_wordpool_less_exclusions.txt	LTP199	ltpFR	3	14	0	TACK	1428	n/a	0	n/a	n/a	n/a	n/a	n/a
3068.516	n/a	REC_WORD	1534258	wordpools/wasnorm_wordpool_less_exclusions.txt	LTP199	ltpFR	3	14	0	OYSTER	995	n/a	0	n/a	n/a	n/a	n/a	n/a
3077.784	n/a	REC_WORD	1538892	wordpools/wasnorm_wordpool_less_exclusions.txt	LTP199	ltpFR	3	14	0	FARMER	553	n/a	1	n/a	n/a	n/a	n/a	n/a
3085.678	n/a	REC_WORD	1542839	wordpools/wasnorm_wordpool_less_exclusions.txt	LTP199	ltpFR	3	14	1	JEEP	753	n/a	0	n/a	n/a	n/a	n/a	n/a
3141.47	n/a	WORD	1570735	wordpools/wasnorm_wordpool_less_exclusions.txt	LTP199	ltpFR	3	15	1	ANGEL	22	n/a	1	0	0.5869140625	0.422607421875	lower	../fonts/zerothre.ttf
3145.574	n/a	WORD	1572787	wordpools/wasnorm_wordpool_less_exclusions.txt	LTP199	ltpFR	3	15	1	GLOVE	642	n/a	0	0	0.5869140625	0.422607421875	lower	../fonts/zerothre.ttf
3149.436	n/a	WORD	1574718	wordpools/wasnorm_wordpool_less_exclusions.txt	LTP199	ltpFR	3	15	1	SCALPEL	1243	n/a	0	0	0.5869140625	0.422607421875	lower	../fonts/zerothre.ttf
3153.532	n/a	WORD	1576766	wordpools/wasnorm_wordpool_less_exclusions.txt	LTP199	ltpFR	3	15	1	SWORD	1423	n/a	0	0	0.5869140625	0.422607421875	lower	../fonts/zerothre.ttf
3157.446	n/a	WORD	1578723	wordpools/wasnorm_wordpool_less_exclusions.txt	LTP199	ltpFR	3	15	1	DIVER	476	n/a	1	0	0.5869140625	0.422607421875	lower	../fonts/zerothre.ttf
3161.378	n/a	WORD	1580689	wordpools/wasnorm_wordpool_less_exclusions.txt	LTP199	ltpFR	3	15	1	BROOK	177	n/a	0	0	0.5869140625	0.422607421875	lower	../fonts/zerothre.ttf
3165.476	n/a	WORD	1582738	wordpools/wasnorm_wordpool_less_exclusions.txt	LTP199	ltpFR	3	15	1	UMPIRE	1535	n/a	1	0	0.5869140625	0.422607421875	lower	../fonts/zerothre.ttf
3169.358	n/a	WORD	1584679	wordpools/wasnorm_wordpool_less_exclusions.txt	LTP199	ltpFR	3	15	1	OFFICE	972	n/a	0	0	0.5869140625	0.422607421875	lower	../fonts/zerothre.ttf
3173.49	n/a	WORD	1586745	wordpools/wasnorm_wordpool_less_exclusions.txt	LTP199	ltpFR	3	15	1	BELL	118	n/a	0	0	0.5869140625	0.422607421875	lower	../fonts/zerothre.ttf
3177.54	n/a	WORD	1588770	wordpools/wasnorm_wordpool_less_exclusions.txt	LTP199	ltpFR	3	15	1	MAGAZINE	853	n/a	0	0	0.5869140625	0.422607421875	lower	../fonts/zerothre.ttf
3181.738	n/a	WORD	1590869	wordpools/wasnorm_wordpool_less_exclusions.txt	LTP199	ltpFR	3	15	1	CREEK	404	n/a	0	0	0.5869140625	0.422607421875	lower	../fonts/zerothre.ttf
3185.944	n/a	WORD	1592972	wordpools/wasnorm_wordpool_less_exclusions.txt	LTP199	ltpFR	3	15	1	SLEIGH	1325	n/a	0	0	0.5869140625	0.422607421875	lower	../fonts/zerothre.ttf
3189.988	n/a	WORD	1594994	wordpools/wasnorm_wordpool_less_exclusions.txt	LTP199	ltpFR	3	15	1	IGLOO	734	n/a	0	0	0.5869140625	0.422607421875	lower	../fonts/zerothre.ttf
3193.952	n/a	WORD	1596976	wordpools/wasnorm_wordpool_less_exclusions.txt	LTP199	ltpFR	3	15	1	GIRL	637	n/a	1	0	0.5869140625	0.422607421875	lower	../fonts/zerothre.ttf
3198.072	n/a	WORD	1599036	wordpools/wasnorm_wordpool_less_exclusions.txt	LTP199	ltpFR	3	15	1	TIDE	1465	n/a	0	0	0.5869140625	0.422607421875	lower	../fonts/zerothre.ttf
3201.932	n/a	WORD	1600966	wordpools/wasnorm_wordpool_less_exclusions.txt	LTP199	ltpFR	3	15	1	AUTHOR	61	n/a	1	0	0.5869140625	0.422607421875	lower	../fonts/zerothre.ttf
3207.74	n/a	REC_START	1603870	n/a	LTP199	ltpFR	3	15	n/a	n/a	n/a	n/a	n/a	n/a	n/a	n/a	n/a	n/a
3209.934	n/a	REC_WORD	1604967	wordpools/wasnorm_wordpool_less_exclusions.txt	LTP199	ltpFR	3	15	1	GIRL	637	n/a	1	n/a	n/a	n/a	n/a	n/a
3210.956	n/a	REC_WORD	1605478	wordpools/wasnorm_wordpool_less_exclusions.txt	LTP199	ltpFR	3	15	1	AUTHOR	61	n/a	1	n/a	n/a	n/a	n/a	n/a
3212.08	n/a	REC_WORD	1606040	wordpools/wasnorm_wordpool_less_exclusions.txt	LTP199	ltpFR	3	15	1	TIDE	1465	n/a	0	n/a	n/a	n/a	n/a	n/a
3213.366	n/a	REC_WORD	1606683	wordpools/wasnorm_wordpool_less_exclusions.txt	LTP199	ltpFR	3	15	1	CREEK	404	n/a	0	n/a	n/a	n/a	n/a	n/a
3214.46	n/a	REC_WORD	1607230	wordpools/wasnorm_wordpool_less_exclusions.txt	LTP199	ltpFR	3	15	1	BROOK	177	n/a	0	n/a	n/a	n/a	n/a	n/a
3222.79	n/a	REC_WORD	1611395	wordpools/wasnorm_wordpool_less_exclusions.txt	LTP199	ltpFR	3	15	1	DIVER	476	n/a	1	n/a	n/a	n/a	n/a	n/a
3224.476	n/a	REC_WORD	1612238	wordpools/wasnorm_wordpool_less_exclusions.txt	LTP199	ltpFR	3	15	1	SCALPEL	1243	n/a	0	n/a	n/a	n/a	n/a	n/a
3225.918	n/a	REC_WORD	1612959	wordpools/wasnorm_wordpool_less_exclusions.txt	LTP199	ltpFR	3	15	1	SWORD	1423	n/a	0	n/a	n/a	n/a	n/a	n/a
3227.266	n/a	REC_WORD	1613633	wordpools/wasnorm_wordpool_less_exclusions.txt	LTP199	ltpFR	3	15	1	UMPIRE	1535	n/a	1	n/a	n/a	n/a	n/a	n/a
3232.504	n/a	REC_WORD	1616252	wordpools/wasnorm_wordpool_less_exclusions.txt	LTP199	ltpFR	3	15	1	ANGEL	22	n/a	1	n/a	n/a	n/a	n/a	n/a
3233.542	n/a	REC_WORD	1616771	wordpools/wasnorm_wordpool_less_exclusions.txt	LTP199	ltpFR	3	15	1	GLOVE	642	n/a	0	n/a	n/a	n/a	n/a	n/a
3301.784	n/a	WORD	1650892	wordpools/wasnorm_wordpool_less_exclusions.txt	LTP199	ltpFR	3	16	-1	KNAPSACK	783	n/a	-1	1	1.0	1.0	upper	../fonts/Verdana.ttf
3305.846	n/a	WORD	1652923	wordpools/wasnorm_wordpool_less_exclusions.txt	LTP199	ltpFR	3	16	-1	SAW	1239	n/a	-1	1	1.0	1.0	upper	../fonts/Verdana.ttf
3309.668	n/a	WORD	1654834	wordpools/wasnorm_wordpool_less_exclusions.txt	LTP199	ltpFR	3	16	-1	TEMPLE	1448	n/a	-1	1	1.0	1.0	upper	../fonts/Verdana.ttf
3313.692	n/a	WORD	1656846	wordpools/wasnorm_wordpool_less_exclusions.txt	LTP199	ltpFR	3	16	-1	COLLEGE	346	n/a	-1	1	1.0	1.0	upper	../fonts/Verdana.ttf
3317.524	n/a	WORD	1658762	wordpools/wasnorm_wordpool_less_exclusions.txt	LTP199	ltpFR	3	16	-1	PIG	1064	n/a	-1	1	1.0	1.0	upper	../fonts/Verdana.ttf
3321.422	n/a	WORD	1660711	wordpools/wasnorm_wordpool_less_exclusions.txt	LTP199	ltpFR	3	16	-1	CORN	381	n/a	-1	1	1.0	1.0	upper	../fonts/Verdana.ttf
3325.572	n/a	WORD	1662786	wordpools/wasnorm_wordpool_less_exclusions.txt	LTP199	ltpFR	3	16	-1	BUG	187	n/a	-1	1	1.0	1.0	upper	../fonts/Verdana.ttf
3329.578	n/a	WORD	1664789	wordpools/wasnorm_wordpool_less_exclusions.txt	LTP199	ltpFR	3	16	-1	TRAY	1498	n/a	-1	1	1.0	1.0	upper	../fonts/Verdana.ttf
3333.486	n/a	WORD	1666743	wordpools/wasnorm_wordpool_less_exclusions.txt	LTP199	ltpFR	3	16	-1	STAKE	1368	n/a	-1	1	1.0	1.0	upper	../fonts/Verdana.ttf
3337.466	n/a	WORD	1668733	wordpools/wasnorm_wordpool_less_exclusions.txt	LTP199	ltpFR	3	16	-1	MUSHROOM	934	n/a	-1	1	1.0	1.0	upper	../fonts/Verdana.ttf
3341.566	n/a	WORD	1670783	wordpools/wasnorm_wordpool_less_exclusions.txt	LTP199	ltpFR	3	16	-1	BROCCOLI	176	n/a	-1	1	1.0	1.0	upper	../fonts/Verdana.ttf
3345.464	n/a	WORD	1672732	wordpools/wasnorm_wordpool_less_exclusions.txt	LTP199	ltpFR	3	16	-1	WRENCH	1625	n/a	-1	1	1.0	1.0	upper	../fonts/Verdana.ttf
3349.648	n/a	WORD	1674824	wordpools/wasnorm_wordpool_less_exclusions.txt	LTP199	ltpFR	3	16	-1	LIPSTICK	829	n/a	-1	1	1.0	1.0	upper	../fonts/Verdana.ttf
3353.816	n/a	WORD	1676908	wordpools/wasnorm_wordpool_less_exclusions.txt	LTP199	ltpFR	3	16	-1	MOSQUITO	917	n/a	-1	1	1.0	1.0	upper	../fonts/Verdana.ttf
3357.996	n/a	WORD	1678998	wordpools/wasnorm_wordpool_less_exclusions.txt	LTP199	ltpFR	3	16	-1	SADDLE	1221	n/a	-1	1	1.0	1.0	upper	../fonts/Verdana.ttf
3362.128	n/a	WORD	1681064	wordpools/wasnorm_wordpool_less_exclusions.txt	LTP199	ltpFR	3	16	-1	HORSE	719	n/a	-1	1	1.0	1.0	upper	../fonts/Verdana.ttf
3368.018	n/a	REC_START	1684009	n/a	LTP199	ltpFR	3	16	n/a	n/a	n/a	n/a	n/a	n/a	n/a	n/a	n/a	n/a
3369.594	n/a	REC_WORD	1684797	wordpools/wasnorm_wordpool_less_exclusions.txt	LTP199	ltpFR	3	16	-1	KNAPSACK	783	n/a	-1	n/a	n/a	n/a	n/a	n/a
3370.752	n/a	REC_WORD	1685376	wordpools/wasnorm_wordpool_less_exclusions.txt	LTP199	ltpFR	3	16	-1	WRENCH	1625	n/a	-1	n/a	n/a	n/a	n/a	n/a
3371.914	n/a	REC_WORD	1685957	wordpools/wasnorm_wordpool_less_exclusions.txt	LTP199	ltpFR	3	16	-1	SAW	1239	n/a	-1	n/a	n/a	n/a	n/a	n/a
3373.242	n/a	REC_WORD	1686621	wordpools/wasnorm_wordpool_less_exclusions.txt	LTP199	ltpFR	3	16	-1	TEMPLE	1448	n/a	-1	n/a	n/a	n/a	n/a	n/a
3374.564	n/a	REC_WORD	1687282	wordpools/wasnorm_wordpool_less_exclusions.txt	LTP199	ltpFR	3	16	-1	COLLEGE	346	n/a	-1	n/a	n/a	n/a	n/a	n/a
3376.18	n/a	REC_WORD	1688090	wordpools/wasnorm_wordpool_less_exclusions.txt	LTP199	ltpFR	3	16	-1	PIG	1064	n/a	-1	n/a	n/a	n/a	n/a	n/a
3377.212	n/a	REC_WORD	1688606	wordpools/wasnorm_wordpool_less_exclusions.txt	LTP199	ltpFR	3	16	-1	CORN	381	n/a	-1	n/a	n/a	n/a	n/a	n/a
3378.646	n/a	REC_WORD	1689323	wordpools/wasnorm_wordpool_less_exclusions.txt	LTP199	ltpFR	3	16	-1	MUSHROOM	934	n/a	-1	n/a	n/a	n/a	n/a	n/a
3382.592	n/a	REC_WORD	1691296	wordpools/wasnorm_wordpool_less_exclusions.txt	LTP199	ltpFR	3	16	-1	BUG	187	n/a	-1	n/a	n/a	n/a	n/a	n/a
3385.684	n/a	REC_WORD	1692842	wordpools/wasnorm_wordpool_less_exclusions.txt	LTP199	ltpFR	3	16	-1	MOSQUITO	917	n/a	-1	n/a	n/a	n/a	n/a	n/a
3388.274	n/a	REC_WORD	1694137	wordpools/wasnorm_wordpool_less_exclusions.txt	LTP199	ltpFR	3	16	-1	SADDLE	1221	n/a	-1	n/a	n/a	n/a	n/a	n/a
3389.232	n/a	REC_WORD	1694616	wordpools/wasnorm_wordpool_less_exclusions.txt	LTP199	ltpFR	3	16	-1	HORSE	719	n/a	-1	n/a	n/a	n/a	n/a	n/a
3394.878	n/a	REC_WORD	1697439	wordpools/wasnorm_wordpool_less_exclusions.txt	LTP199	ltpFR	3	16	-1	TRAY	1498	n/a	-1	n/a	n/a	n/a	n/a	n/a
3406.408	n/a	REC_WORD	1703204	wordpools/wasnorm_wordpool_less_exclusions.txt	LTP199	ltpFR	3	16	-1	LIPSTICK	829	n/a	-1	n/a	n/a	n/a	n/a	n/a
3427.89	n/a	REC_WORD	1713945	wordpools/wasnorm_wordpool_less_exclusions.txt	LTP199	ltpFR	3	16	-1	STAKE	1368	n/a	-1	n/a	n/a	n/a	n/a	n/a
3428.868	n/a	REC_WORD	1714434	wordpools/wasnorm_wordpool_less_exclusions.txt	LTP199	ltpFR	3	16	-1	BROCCOLI	176	n/a	-1	n/a	n/a	n/a	n/a	n/a
3537.382	n/a	REC_START	1768691	n/a	LTP199	ltpFR	3	1	n/a	n/a	n/a	n/a	n/a	n/a	n/a	n/a	n/a	n/a
3537.432	n/a	RECOG_TARGET	1768716	n/a	LTP199	ltpFR	3	1	-1	SNORKEL	1336	4	-1	n/a	n/a	n/a	n/a	n/a
3543.114	n/a	RECOG_RESP	1771557	n/a	LTP199	ltpFR	3	1	-1	SNORKEL	1336	n/a	-1	n/a	n/a	n/a	n/a	n/a
3546.398	n/a	RECOG_CONF	1773199	n/a	LTP199	ltpFR	3	1	-1	SNORKEL	1336	4	-1	n/a	n/a	n/a	n/a	n/a
3548.642	n/a	RECOG_LURE	1774321	n/a	LTP199	ltpFR	3	1	n/a	GOOSE	649	1	n/a	n/a	n/a	n/a	n/a	n/a
3552.078	n/a	RECOG_RESP	1776039	n/a	LTP199	ltpFR	3	1	n/a	GOOSE	649	n/a	n/a	n/a	n/a	n/a	n/a	n/a
3554.496	n/a	RECOG_CONF	1777248	n/a	LTP199	ltpFR	3	1	n/a	GOOSE	649	1	n/a	n/a	n/a	n/a	n/a	n/a
3556.588	n/a	RECOG_LURE	1778294	n/a	LTP199	ltpFR	3	1	n/a	TOENAIL	1474	3	n/a	n/a	n/a	n/a	n/a	n/a
3558.21	n/a	RECOG_RESP	1779105	n/a	LTP199	ltpFR	3	1	n/a	TOENAIL	1474	n/a	n/a	n/a	n/a	n/a	n/a	n/a
3560.69	n/a	RECOG_CONF	1780345	n/a	LTP199	ltpFR	3	1	n/a	TOENAIL	1474	3	n/a	n/a	n/a	n/a	n/a	n/a
3562.728	n/a	RECOG_TARGET	1781364	n/a	LTP199	ltpFR	3	1	1	SHARK	1275	5	1	n/a	n/a	n/a	n/a	n/a
3563.972	n/a	RECOG_RESP	1781986	n/a	LTP199	ltpFR	3	1	1	SHARK	1275	n/a	1	n/a	n/a	n/a	n/a	n/a
3565.954	n/a	RECOG_CONF	1782977	n/a	LTP199	ltpFR	3	1	1	SHARK	1275	5	1	n/a	n/a	n/a	n/a	n/a
3568.216	n/a	RECOG_LURE	1784108	n/a	LTP199	ltpFR	3	1	n/a	STRING	1394	2	n/a	n/a	n/a	n/a	n/a	n/a
3570.638	n/a	RECOG_RESP	1785319	n/a	LTP199	ltpFR	3	1	n/a	STRING	1394	n/a	n/a	n/a	n/a	n/a	n/a	n/a
3573.59	n/a	RECOG_CONF	1786795	n/a	LTP199	ltpFR	3	1	n/a	STRING	1394	2	n/a	n/a	n/a	n/a	n/a	n/a
3575.56	n/a	RECOG_TARGET	1787780	n/a	LTP199	ltpFR	3	1	1	RELATIVE	1182	5	1	n/a	n/a	n/a	n/a	n/a
3576.676	n/a	RECOG_RESP	1788338	n/a	LTP199	ltpFR	3	1	1	RELATIVE	1182	n/a	1	n/a	n/a	n/a	n/a	n/a
3578.808	n/a	RECOG_CONF	1789404	n/a	LTP199	ltpFR	3	1	1	RELATIVE	1182	5	1	n/a	n/a	n/a	n/a	n/a
3580.98	n/a	RECOG_LURE	1790490	n/a	LTP199	ltpFR	3	1	n/a	DUCK	504	1	n/a	n/a	n/a	n/a	n/a	n/a
3584.404	n/a	RECOG_RESP	1792202	n/a	LTP199	ltpFR	3	1	n/a	DUCK	504	n/a	n/a	n/a	n/a	n/a	n/a	n/a
3587.144	n/a	RECOG_CONF	1793572	n/a	LTP199	ltpFR	3	1	n/a	DUCK	504	1	n/a	n/a	n/a	n/a	n/a	n/a
3589.514	n/a	RECOG_TARGET	1794757	n/a	LTP199	ltpFR	3	1	1	CONTRACTOR	369	3	1	n/a	n/a	n/a	n/a	n/a
3591.61	n/a	RECOG_RESP	1795805	n/a	LTP199	ltpFR	3	1	1	CONTRACTOR	369	n/a	1	n/a	n/a	n/a	n/a	n/a
3594.374	n/a	RECOG_CONF	1797187	n/a	LTP199	ltpFR	3	1	1	CONTRACTOR	369	3	1	n/a	n/a	n/a	n/a	n/a
3596.356	n/a	RECOG_TARGET	1798178	n/a	LTP199	ltpFR	3	1	1	TUBE	1516	1	0	n/a	n/a	n/a	n/a	n/a
3601.962	n/a	RECOG_RESP	1800981	n/a	LTP199	ltpFR	3	1	1	TUBE	1516	n/a	0	n/a	n/a	n/a	n/a	n/a
3604.518	n/a	RECOG_CONF	1802259	n/a	LTP199	ltpFR	3	1	1	TUBE	1516	1	0	n/a	n/a	n/a	n/a	n/a
3606.58	n/a	RECOG_LURE	1803290	n/a	LTP199	ltpFR	3	1	n/a	ARMY	39	4	n/a	n/a	n/a	n/a	n/a	n/a
3607.718	n/a	RECOG_RESP	1803859	n/a	LTP199	ltpFR	3	1	n/a	ARMY	39	n/a	n/a	n/a	n/a	n/a	n/a	n/a
3609.762	n/a	RECOG_CONF	1804881	n/a	LTP199	ltpFR	3	1	n/a	ARMY	39	4	n/a	n/a	n/a	n/a	n/a	n/a
3611.882	n/a	RECOG_TARGET	1805941	n/a	LTP199	ltpFR	3	1	-1	KNAPSACK	783	5	-1	n/a	n/a	n/a	n/a	n/a
3613.238	n/a	RECOG_RESP	1806619	n/a	LTP199	ltpFR	3	1	-1	KNAPSACK	783	n/a	-1	n/a	n/a	n/a	n/a	n/a
3615.364	n/a	RECOG_CONF	1807682	n/a	LTP199	ltpFR	3	1	-1	KNAPSACK	783	5	-1	n/a	n/a	n/a	n/a	n/a
3617.504	n/a	RECOG_TARGET	1808752	n/a	LTP199	ltpFR	3	1	1	FRAME	600	5	0	n/a	n/a	n/a	n/a	n/a
3618.554	n/a	RECOG_RESP	1809277	n/a	LTP199	ltpFR	3	1	1	FRAME	600	n/a	0	n/a	n/a	n/a	n/a	n/a
3620.47	n/a	RECOG_CONF	1810235	n/a	LTP199	ltpFR	3	1	1	FRAME	600	5	0	n/a	n/a	n/a	n/a	n/a
3622.506	n/a	RECOG_TARGET	1811253	n/a	LTP199	ltpFR	3	1	-1	SINK	1309	5	-1	n/a	n/a	n/a	n/a	n/a
3623.64	n/a	RECOG_RESP	1811820	n/a	LTP199	ltpFR	3	1	-1	SINK	1309	n/a	-1	n/a	n/a	n/a	n/a	n/a
3625.942	n/a	RECOG_CONF	1812971	n/a	LTP199	ltpFR	3	1	-1	SINK	1309	5	-1	n/a	n/a	n/a	n/a	n/a
3627.876	n/a	RECOG_TARGET	1813938	n/a	LTP199	ltpFR	3	1	-1	LOOP	844	5	-1	n/a	n/a	n/a	n/a	n/a
3628.78	n/a	RECOG_RESP	1814390	n/a	LTP199	ltpFR	3	1	-1	LOOP	844	n/a	-1	n/a	n/a	n/a	n/a	n/a
3630.724	n/a	RECOG_CONF	1815362	n/a	LTP199	ltpFR	3	1	-1	LOOP	844	5	-1	n/a	n/a	n/a	n/a	n/a
3632.912	n/a	RECOG_TARGET	1816456	n/a	LTP199	ltpFR	3	1	1	MACHINE	852	5	0	n/a	n/a	n/a	n/a	n/a
3633.78	n/a	RECOG_RESP	1816890	n/a	LTP199	ltpFR	3	1	1	MACHINE	852	n/a	0	n/a	n/a	n/a	n/a	n/a
3635.954	n/a	RECOG_CONF	1817977	n/a	LTP199	ltpFR	3	1	1	MACHINE	852	5	0	n/a	n/a	n/a	n/a	n/a
3637.782	n/a	RECOG_TARGET	1818891	n/a	LTP199	ltpFR	3	1	1	VEHICLE	1553	1	0	n/a	n/a	n/a	n/a	n/a
3644.276	n/a	RECOG_RESP	1822138	n/a	LTP199	ltpFR	3	1	1	VEHICLE	1553	n/a	0	n/a	n/a	n/a	n/a	n/a
3646.668	n/a	RECOG_CONF	1823334	n/a	LTP199	ltpFR	3	1	1	VEHICLE	1553	1	0	n/a	n/a	n/a	n/a	n/a
3648.64	n/a	RECOG_LURE	1824320	n/a	LTP199	ltpFR	3	1	n/a	SIGNATURE	1306	1	n/a	n/a	n/a	n/a	n/a	n/a
3650.216	n/a	RECOG_RESP	1825108	n/a	LTP199	ltpFR	3	1	n/a	SIGNATURE	1306	n/a	n/a	n/a	n/a	n/a	n/a	n/a
3654.864	n/a	RECOG_CONF	1827432	n/a	LTP199	ltpFR	3	1	n/a	SIGNATURE	1306	1	n/a	n/a	n/a	n/a	n/a	n/a
3656.87	n/a	RECOG_TARGET	1828435	n/a	LTP199	ltpFR	3	1	-1	PISTON	1076	3	-1	n/a	n/a	n/a	n/a	n/a
3660.466	n/a	RECOG_RESP	1830233	n/a	LTP199	ltpFR	3	1	-1	PISTON	1076	n/a	-1	n/a	n/a	n/a	n/a	n/a
3662.78	n/a	RECOG_CONF	1831390	n/a	LTP199	ltpFR	3	1	-1	PISTON	1076	3	-1	n/a	n/a	n/a	n/a	n/a
3664.668	n/a	RECOG_TARGET	1832334	n/a	LTP199	ltpFR	3	1	0	TICK	1463	5	0	n/a	n/a	n/a	n/a	n/a
3665.794	n/a	RECOG_RESP	1832897	n/a	LTP199	ltpFR	3	1	0	TICK	1463	n/a	0	n/a	n/a	n/a	n/a	n/a
3667.596	n/a	RECOG_CONF	1833798	n/a	LTP199	ltpFR	3	1	0	TICK	1463	5	0	n/a	n/a	n/a	n/a	n/a
3669.62	n/a	RECOG_LURE	1834810	n/a	LTP199	ltpFR	3	1	n/a	BANJO	82	2	n/a	n/a	n/a	n/a	n/a	n/a
3671.414	n/a	RECOG_RESP	1835707	n/a	LTP199	ltpFR	3	1	n/a	BANJO	82	n/a	n/a	n/a	n/a	n/a	n/a	n/a
3673.476	n/a	RECOG_CONF	1836738	n/a	LTP199	ltpFR	3	1	n/a	BANJO	82	2	n/a	n/a	n/a	n/a	n/a	n/a
3684.284	n/a	REC_START	1842142	n/a	LTP199	ltpFR	3	2	n/a	n/a	n/a	n/a	n/a	n/a	n/a	n/a	n/a	n/a
3684.328	n/a	RECOG_LURE	1842164	n/a	LTP199	ltpFR	3	2	n/a	OVAL	990	3	n/a	n/a	n/a	n/a	n/a	n/a
3685.95	n/a	RECOG_RESP	1842975	n/a	LTP199	ltpFR	3	2	n/a	OVAL	990	n/a	n/a	n/a	n/a	n/a	n/a	n/a
3688.432	n/a	RECOG_CONF	1844216	n/a	LTP199	ltpFR	3	2	n/a	OVAL	990	3	n/a	n/a	n/a	n/a	n/a	n/a
3690.282	n/a	RECOG_TARGET	1845141	n/a	LTP199	ltpFR	3	2	-1	TWIG	1527	5	-1	n/a	n/a	n/a	n/a	n/a
3691.384	n/a	RECOG_RESP	1845692	n/a	LTP199	ltpFR	3	2	-1	TWIG	1527	n/a	-1	n/a	n/a	n/a	n/a	n/a
3693.708	n/a	RECOG_CONF	1846854	n/a	LTP199	ltpFR	3	2	-1	TWIG	1527	5	-1	n/a	n/a	n/a	n/a	n/a
3695.602	n/a	RECOG_TARGET	1847801	n/a	LTP199	ltpFR	3	2	-1	SWIMMER	1420	5	-1	n/a	n/a	n/a	n/a	n/a
3696.95	n/a	RECOG_RESP	1848475	n/a	LTP199	ltpFR	3	2	-1	SWIMMER	1420	n/a	-1	n/a	n/a	n/a	n/a	n/a
3698.592	n/a	RECOG_CONF	1849296	n/a	LTP199	ltpFR	3	2	-1	SWIMMER	1420	5	-1	n/a	n/a	n/a	n/a	n/a
3700.42	n/a	RECOG_TARGET	1850210	n/a	LTP199	ltpFR	3	2	0	ORCHID	982	5	1	n/a	n/a	n/a	n/a	n/a
3701.282	n/a	RECOG_RESP	1850641	n/a	LTP199	ltpFR	3	2	0	ORCHID	982	n/a	1	n/a	n/a	n/a	n/a	n/a
3703.004	n/a	RECOG_CONF	1851502	n/a	LTP199	ltpFR	3	2	0	ORCHID	982	5	1	n/a	n/a	n/a	n/a	n/a
3705.078	n/a	RECOG_TARGET	1852539	n/a	LTP199	ltpFR	3	2	0	SALESMAN	1225	1	1	n/a	n/a	n/a	n/a	n/a
3708.23	n/a	RECOG_RESP	1854115	n/a	LTP199	ltpFR	3	2	0	SALESMAN	1225	n/a	1	n/a	n/a	n/a	n/a	n/a
3710.568	n/a	RECOG_CONF	1855284	n/a	LTP199	ltpFR	3	2	0	SALESMAN	1225	1	1	n/a	n/a	n/a	n/a	n/a
3712.216	n/a	RECOG_LURE	1856108	n/a	LTP199	ltpFR	3	2	n/a	STICKER	1382	2	n/a	n/a	n/a	n/a	n/a	n/a
3714.644	n/a	RECOG_RESP	1857322	n/a	LTP199	ltpFR	3	2	n/a	STICKER	1382	n/a	n/a	n/a	n/a	n/a	n/a	n/a
3716.912	n/a	RECOG_CONF	1858456	n/a	LTP199	ltpFR	3	2	n/a	STICKER	1382	2	n/a	n/a	n/a	n/a	n/a	n/a
3718.822	n/a	RECOG_TARGET	1859411	n/a	LTP199	ltpFR	3	2	-1	BIBLE	124	5	-1	n/a	n/a	n/a	n/a	n/a
3719.91	n/a	RECOG_RESP	1859955	n/a	LTP199	ltpFR	3	2	-1	BIBLE	124	n/a	-1	n/a	n/a	n/a	n/a	n/a
3721.746	n/a	RECOG_CONF	1860873	n/a	LTP199	ltpFR	3	2	-1	BIBLE	124	5	-1	n/a	n/a	n/a	n/a	n/a
3723.826	n/a	RECOG_TARGET	1861913	n/a	LTP199	ltpFR	3	2	-1	LIPSTICK	829	5	-1	n/a	n/a	n/a	n/a	n/a
3724.604	n/a	RECOG_RESP	1862302	n/a	LTP199	ltpFR	3	2	-1	LIPSTICK	829	n/a	-1	n/a	n/a	n/a	n/a	n/a
3726.286	n/a	RECOG_CONF	1863143	n/a	LTP199	ltpFR	3	2	-1	LIPSTICK	829	5	-1	n/a	n/a	n/a	n/a	n/a
3728.176	n/a	RECOG_LURE	1864088	n/a	LTP199	ltpFR	3	2	n/a	COOKIE	374	3	n/a	n/a	n/a	n/a	n/a	n/a
3729.442	n/a	RECOG_RESP	1864721	n/a	LTP199	ltpFR	3	2	n/a	COOKIE	374	n/a	n/a	n/a	n/a	n/a	n/a	n/a
3732.548	n/a	RECOG_CONF	1866274	n/a	LTP199	ltpFR	3	2	n/a	COOKIE	374	3	n/a	n/a	n/a	n/a	n/a	n/a
3734.366	n/a	RECOG_TARGET	1867183	n/a	LTP199	ltpFR	3	2	-1	SPONGE	1355	4	-1	n/a	n/a	n/a	n/a	n/a
3735.406	n/a	RECOG_RESP	1867703	n/a	LTP199	ltpFR	3	2	-1	SPONGE	1355	n/a	-1	n/a	n/a	n/a	n/a	n/a
3737.226	n/a	RECOG_CONF	1868613	n/a	LTP199	ltpFR	3	2	-1	SPONGE	1355	4	-1	n/a	n/a	n/a	n/a	n/a
3738.986	n/a	RECOG_LURE	1869493	n/a	LTP199	ltpFR	3	2	n/a	GAVEL	627	2	n/a	n/a	n/a	n/a	n/a	n/a
3741.054	n/a	RECOG_RESP	1870527	n/a	LTP199	ltpFR	3	2	n/a	GAVEL	627	n/a	n/a	n/a	n/a	n/a	n/a	n/a
3743.444	n/a	RECOG_CONF	1871722	n/a	LTP199	ltpFR	3	2	n/a	GAVEL	627	2	n/a	n/a	n/a	n/a	n/a	n/a
3745.426	n/a	RECOG_LURE	1872713	n/a	LTP199	ltpFR	3	2	n/a	MAYONNAISE	880	4	n/a	n/a	n/a	n/a	n/a	n/a
3747.48	n/a	RECOG_RESP	1873740	n/a	LTP199	ltpFR	3	2	n/a	MAYONNAISE	880	n/a	n/a	n/a	n/a	n/a	n/a	n/a
3750.022	n/a	RECOG_CONF	1875011	n/a	LTP199	ltpFR	3	2	n/a	MAYONNAISE	880	4	n/a	n/a	n/a	n/a	n/a	n/a
3751.918	n/a	RECOG_TARGET	1875959	n/a	LTP199	ltpFR	3	2	1	DANDELION	438	4	0	n/a	n/a	n/a	n/a	n/a
3753.314	n/a	RECOG_RESP	1876657	n/a	LTP199	ltpFR	3	2	1	DANDELION	438	n/a	0	n/a	n/a	n/a	n/a	n/a
3757.696	n/a	RECOG_CONF	1878848	n/a	LTP199	ltpFR	3	2	1	DANDELION	438	4	0	n/a	n/a	n/a	n/a	n/a
3759.582	n/a	RECOG_TARGET	1879791	n/a	LTP199	ltpFR	3	2	0	STORE	1387	2	1	n/a	n/a	n/a	n/a	n/a
3763.59	n/a	RECOG_RESP	1881795	n/a	LTP199	ltpFR	3	2	0	STORE	1387	n/a	1	n/a	n/a	n/a	n/a	n/a
3765.606	n/a	RECOG_CONF	1882803	n/a	LTP199	ltpFR	3	2	0	STORE	1387	2	1	n/a	n/a	n/a	n/a	n/a
3767.61	n/a	RECOG_TARGET	1883805	n/a	LTP199	ltpFR	3	2	-1	HORSE	719	5	-1	n/a	n/a	n/a	n/a	n/a
3768.524	n/a	RECOG_RESP	1884262	n/a	LTP199	ltpFR	3	2	-1	HORSE	719	n/a	-1	n/a	n/a	n/a	n/a	n/a
3770.558	n/a	RECOG_CONF	1885279	n/a	LTP199	ltpFR	3	2	-1	HORSE	719	5	-1	n/a	n/a	n/a	n/a	n/a
3772.396	n/a	RECOG_LURE	1886198	n/a	LTP199	ltpFR	3	2	n/a	ATOM	55	3	n/a	n/a	n/a	n/a	n/a	n/a
3775.504	n/a	RECOG_RESP	1887752	n/a	LTP199	ltpFR	3	2	n/a	ATOM	55	n/a	n/a	n/a	n/a	n/a	n/a	n/a
3777.514	n/a	RECOG_CONF	1888757	n/a	LTP199	ltpFR	3	2	n/a	ATOM	55	3	n/a	n/a	n/a	n/a	n/a	n/a
3779.226	n/a	RECOG_LURE	1889613	n/a	LTP199	ltpFR	3	2	n/a	ZOO	1637	3	n/a	n/a	n/a	n/a	n/a	n/a
3781.8	n/a	RECOG_RESP	1890900	n/a	LTP199	ltpFR	3	2	n/a	ZOO	1637	n/a	n/a	n/a	n/a	n/a	n/a	n/a
3786.072	n/a	RECOG_CONF	1893036	n/a	LTP199	ltpFR	3	2	n/a	ZOO	1637	3	n/a	n/a	n/a	n/a	n/a	n/a
3788.038	n/a	RECOG_LURE	1894019	n/a	LTP199	ltpFR	3	2	n/a	DENTIST	447	4	n/a	n/a	n/a	n/a	n/a	n/a
3789.304	n/a	RECOG_RESP	1894652	n/a	LTP199	ltpFR	3	2	n/a	DENTIST	447	n/a	n/a	n/a	n/a	n/a	n/a	n/a
3793.204	n/a	RECOG_CONF	1896602	n/a	LTP199	ltpFR	3	2	n/a	DENTIST	447	4	n/a	n/a	n/a	n/a	n/a	n/a
3795.2	n/a	RECOG_TARGET	1897600	n/a	LTP199	ltpFR	3	2	0	TACK	1428	5	0	n/a	n/a	n/a	n/a	n/a
3797.552	n/a	RECOG_RESP	1898776	n/a	LTP199	ltpFR	3	2	0	TACK	1428	n/a	0	n/a	n/a	n/a	n/a	n/a
3799.592	n/a	RECOG_CONF	1899796	n/a	LTP199	ltpFR	3	2	0	TACK	1428	5	0	n/a	n/a	n/a	n/a	n/a
3801.542	n/a	RECOG_LURE	1900771	n/a	LTP199	ltpFR	3	2	n/a	JELLO	754	4	n/a	n/a	n/a	n/a	n/a	n/a
3802.776	n/a	RECOG_RESP	1901388	n/a	LTP199	ltpFR	3	2	n/a	JELLO	754	n/a	n/a	n/a	n/a	n/a	n/a	n/a
3804.422	n/a	RECOG_CONF	1902211	n/a	LTP199	ltpFR	3	2	n/a	JELLO	754	4	n/a	n/a	n/a	n/a	n/a	n/a
3813.03	n/a	REC_START	1906515	n/a	LTP199	ltpFR	3	3	n/a	n/a	n/a	n/a	n/a	n/a	n/a	n/a	n/a	n/a
3813.07	n/a	RECOG_LURE	1906535	n/a	LTP199	ltpFR	3	3	n/a	LABEL	790	2	n/a	n/a	n/a	n/a	n/a	n/a
3815.038	n/a	RECOG_RESP	1907519	n/a	LTP199	ltpFR	3	3	n/a	LABEL	790	n/a	n/a	n/a	n/a	n/a	n/a	n/a
3817.096	n/a	RECOG_CONF	1908548	n/a	LTP199	ltpFR	3	3	n/a	LABEL	790	2	n/a	n/a	n/a	n/a	n/a	n/a
3819.04	n/a	RECOG_LURE	1909520	n/a	LTP199	ltpFR	3	3	n/a	HANDKERCHIEF	686	4	n/a	n/a	n/a	n/a	n/a	n/a
3820.264	n/a	RECOG_RESP	1910132	n/a	LTP199	ltpFR	3	3	n/a	HANDKERCHIEF	686	n/a	n/a	n/a	n/a	n/a	n/a	n/a
3822.862	n/a	RECOG_CONF	1911431	n/a	LTP199	ltpFR	3	3	n/a	HANDKERCHIEF	686	4	n/a	n/a	n/a	n/a	n/a	n/a
3824.698	n/a	RECOG_LURE	1912349	n/a	LTP199	ltpFR	3	3	n/a	STUDENT	1395	3	n/a	n/a	n/a	n/a	n/a	n/a
3826.356	n/a	RECOG_RESP	1913178	n/a	LTP199	ltpFR	3	3	n/a	STUDENT	1395	n/a	n/a	n/a	n/a	n/a	n/a	n/a
3828.654	n/a	RECOG_CONF	1914327	n/a	LTP199	ltpFR	3	3	n/a	STUDENT	1395	3	n/a	n/a	n/a	n/a	n/a	n/a
3830.652	n/a	RECOG_LURE	1915326	n/a	LTP199	ltpFR	3	3	n/a	OUTDOORS	987	5	n/a	n/a	n/a	n/a	n/a	n/a
3831.82	n/a	RECOG_RESP	1915910	n/a	LTP199	ltpFR	3	3	n/a	OUTDOORS	987	n/a	n/a	n/a	n/a	n/a	n/a	n/a
3833.614	n/a	RECOG_CONF	1916807	n/a	LTP199	ltpFR	3	3	n/a	OUTDOORS	987	5	n/a	n/a	n/a	n/a	n/a	n/a
3835.704	n/a	RECOG_TARGET	1917852	n/a	LTP199	ltpFR	3	3	1	OFFICE	972	3	0	n/a	n/a	n/a	n/a	n/a
3838.634	n/a	RECOG_RESP	1919317	n/a	LTP199	ltpFR	3	3	1	OFFICE	972	n/a	0	n/a	n/a	n/a	n/a	n/a
3840.482	n/a	RECOG_CONF	1920241	n/a	LTP199	ltpFR	3	3	1	OFFICE	972	3	0	n/a	n/a	n/a	n/a	n/a
3842.364	n/a	RECOG_TARGET	1921182	n/a	LTP199	ltpFR	3	3	-1	SUITE	1404	2	-1	n/a	n/a	n/a	n/a	n/a
3845.886	n/a	RECOG_RESP	1922943	n/a	LTP199	ltpFR	3	3	-1	SUITE	1404	n/a	-1	n/a	n/a	n/a	n/a	n/a
3848.086	n/a	RECOG_CONF	1924043	n/a	LTP199	ltpFR	3	3	-1	SUITE	1404	2	-1	n/a	n/a	n/a	n/a	n/a
3849.924	n/a	RECOG_TARGET	1924962	n/a	LTP199	ltpFR	3	3	1	BUGGY	188	5	0	n/a	n/a	n/a	n/a	n/a
3851.192	n/a	RECOG_RESP	1925596	n/a	LTP199	ltpFR	3	3	1	BUGGY	188	n/a	0	n/a	n/a	n/a	n/a	n/a
3853.032	n/a	RECOG_CONF	1926516	n/a	LTP199	ltpFR	3	3	1	BUGGY	188	5	0	n/a	n/a	n/a	n/a	n/a
3854.898	n/a	RECOG_LURE	1927449	n/a	LTP199	ltpFR	3	3	n/a	SPOON	1357	1	n/a	n/a	n/a	n/a	n/a	n/a
3858.926	n/a	RECOG_RESP	1929463	n/a	LTP199	ltpFR	3	3	n/a	SPOON	1357	n/a	n/a	n/a	n/a	n/a	n/a	n/a
3860.752	n/a	RECOG_CONF	1930376	n/a	LTP199	ltpFR	3	3	n/a	SPOON	1357	1	n/a	n/a	n/a	n/a	n/a	n/a
3862.758	n/a	RECOG_LURE	1931379	n/a	LTP199	ltpFR	3	3	n/a	BEGGAR	117	4	n/a	n/a	n/a	n/a	n/a	n/a
3863.788	n/a	RECOG_RESP	1931894	n/a	LTP199	ltpFR	3	3	n/a	BEGGAR	117	n/a	n/a	n/a	n/a	n/a	n/a	n/a
3865.74	n/a	RECOG_CONF	1932870	n/a	LTP199	ltpFR	3	3	n/a	BEGGAR	117	4	n/a	n/a	n/a	n/a	n/a	n/a
3867.56	n/a	RECOG_LURE	1933780	n/a	LTP199	ltpFR	3	3	n/a	VIDEO	1564	2	n/a	n/a	n/a	n/a	n/a	n/a
3871.132	n/a	RECOG_RESP	1935566	n/a	LTP199	ltpFR	3	3	n/a	VIDEO	1564	n/a	n/a	n/a	n/a	n/a	n/a	n/a
3873.14	n/a	RECOG_CONF	1936570	n/a	LTP199	ltpFR	3	3	n/a	VIDEO	1564	2	n/a	n/a	n/a	n/a	n/a	n/a
3874.904	n/a	RECOG_TARGET	1937452	n/a	LTP199	ltpFR	3	3	0	HONEY	713	5	0	n/a	n/a	n/a	n/a	n/a
3875.994	n/a	RECOG_RESP	1937997	n/a	LTP199	ltpFR	3	3	0	HONEY	713	n/a	0	n/a	n/a	n/a	n/a	n/a
3877.784	n/a	RECOG_CONF	1938892	n/a	LTP199	ltpFR	3	3	0	HONEY	713	5	0	n/a	n/a	n/a	n/a	n/a
3879.572	n/a	RECOG_TARGET	1939786	n/a	LTP199	ltpFR	3	3	1	BEAN	105	5	0	n/a	n/a	n/a	n/a	n/a
3880.398	n/a	RECOG_RESP	1940199	n/a	LTP199	ltpFR	3	3	1	BEAN	105	n/a	0	n/a	n/a	n/a	n/a	n/a
3882.36	n/a	RECOG_CONF	1941180	n/a	LTP199	ltpFR	3	3	1	BEAN	105	5	0	n/a	n/a	n/a	n/a	n/a
3884.09	n/a	RECOG_LURE	1942045	n/a	LTP199	ltpFR	3	3	n/a	WAIST	1579	3	n/a	n/a	n/a	n/a	n/a	n/a
3885.69	n/a	RECOG_RESP	1942845	n/a	LTP199	ltpFR	3	3	n/a	WAIST	1579	n/a	n/a	n/a	n/a	n/a	n/a	n/a
3887.798	n/a	RECOG_CONF	1943899	n/a	LTP199	ltpFR	3	3	n/a	WAIST	1579	3	n/a	n/a	n/a	n/a	n/a	n/a
3889.626	n/a	RECOG_TARGET	1944813	n/a	LTP199	ltpFR	3	3	1	JEEP	753	5	0	n/a	n/a	n/a	n/a	n/a
3890.504	n/a	RECOG_RESP	1945252	n/a	LTP199	ltpFR	3	3	1	JEEP	753	n/a	0	n/a	n/a	n/a	n/a	n/a
3892.868	n/a	RECOG_CONF	1946434	n/a	LTP199	ltpFR	3	3	1	JEEP	753	5	0	n/a	n/a	n/a	n/a	n/a
3894.512	n/a	RECOG_LURE	1947256	n/a	LTP199	ltpFR	3	3	n/a	FRIAR	605	5	n/a	n/a	n/a	n/a	n/a	n/a
3896.07	n/a	RECOG_RESP	1948035	n/a	LTP199	ltpFR	3	3	n/a	FRIAR	605	n/a	n/a	n/a	n/a	n/a	n/a	n/a
3898.086	n/a	RECOG_CONF	1949043	n/a	LTP199	ltpFR	3	3	n/a	FRIAR	605	5	n/a	n/a	n/a	n/a	n/a	n/a
3900.05	n/a	RECOG_LURE	1950025	n/a	LTP199	ltpFR	3	3	n/a	GUARDIAN	668	3	n/a	n/a	n/a	n/a	n/a	n/a
3902.552	n/a	RECOG_RESP	1951276	n/a	LTP199	ltpFR	3	3	n/a	GUARDIAN	668	n/a	n/a	n/a	n/a	n/a	n/a	n/a
3904.604	n/a	RECOG_CONF	1952302	n/a	LTP199	ltpFR	3	3	n/a	GUARDIAN	668	3	n/a	n/a	n/a	n/a	n/a	n/a
3906.374	n/a	RECOG_TARGET	1953187	n/a	LTP199	ltpFR	3	3	0	BRAKE	166	4	0	n/a	n/a	n/a	n/a	n/a
3908.208	n/a	RECOG_RESP	1954104	n/a	LTP199	ltpFR	3	3	0	BRAKE	166	n/a	0	n/a	n/a	n/a	n/a	n/a
3909.684	n/a	RECOG_CONF	1954842	n/a	LTP199	ltpFR	3	3	0	BRAKE	166	4	0	n/a	n/a	n/a	n/a	n/a
3911.644	n/a	RECOG_TARGET	1955822	n/a	LTP199	ltpFR	3	3	-1	BANDIT	81	2	-1	n/a	n/a	n/a	n/a	n/a
3913.754	n/a	RECOG_RESP	1956877	n/a	LTP199	ltpFR	3	3	-1	BANDIT	81	n/a	-1	n/a	n/a	n/a	n/a	n/a
3915.9	n/a	RECOG_CONF	1957950	n/a	LTP199	ltpFR	3	3	-1	BANDIT	81	2	-1	n/a	n/a	n/a	n/a	n/a
3917.734	n/a	RECOG_TARGET	1958867	n/a	LTP199	ltpFR	3	3	1	BEDROOM	111	3	0	n/a	n/a	n/a	n/a	n/a
3921.326	n/a	RECOG_RESP	1960663	n/a	LTP199	ltpFR	3	3	1	BEDROOM	111	n/a	0	n/a	n/a	n/a	n/a	n/a
3923.378	n/a	RECOG_CONF	1961689	n/a	LTP199	ltpFR	3	3	1	BEDROOM	111	3	0	n/a	n/a	n/a	n/a	n/a
3925.196	n/a	RECOG_LURE	1962598	n/a	LTP199	ltpFR	3	3	n/a	CONDUCTOR	362	1	n/a	n/a	n/a	n/a	n/a	n/a
3929.512	n/a	RECOG_RESP	1964756	n/a	LTP199	ltpFR	3	3	n/a	CONDUCTOR	362	n/a	n/a	n/a	n/a	n/a	n/a	n/a
3931.482	n/a	RECOG_CONF	1965741	n/a	LTP199	ltpFR	3	3	n/a	CONDUCTOR	362	1	n/a	n/a	n/a	n/a	n/a	n/a
3940.596	n/a	REC_START	1970298	n/a	LTP199	ltpFR	3	4	n/a	n/a	n/a	n/a	n/a	n/a	n/a	n/a	n/a	n/a
3940.64	n/a	RECOG_TARGET	1970320	n/a	LTP199	ltpFR	3	4	-1	PLANT	1083	5	-1	n/a	n/a	n/a	n/a	n/a
3942.23	n/a	RECOG_RESP	1971115	n/a	LTP199	ltpFR	3	4	-1	PLANT	1083	n/a	-1	n/a	n/a	n/a	n/a	n/a
3944.1	n/a	RECOG_CONF	1972050	n/a	LTP199	ltpFR	3	4	-1	PLANT	1083	5	-1	n/a	n/a	n/a	n/a	n/a
3946.026	n/a	RECOG_TARGET	1973013	n/a	LTP199	ltpFR	3	4	1	HOOK	715	5	0	n/a	n/a	n/a	n/a	n/a
3946.954	n/a	RECOG_RESP	1973477	n/a	LTP199	ltpFR	3	4	1	HOOK	715	n/a	0	n/a	n/a	n/a	n/a	n/a
3948.684	n/a	RECOG_CONF	1974342	n/a	LTP199	ltpFR	3	4	1	HOOK	715	5	0	n/a	n/a	n/a	n/a	n/a
3950.528	n/a	RECOG_TARGET	1975264	n/a	LTP199	ltpFR	3	4	1	WALRUS	1585	5	1	n/a	n/a	n/a	n/a	n/a
3951.406	n/a	RECOG_RESP	1975703	n/a	LTP199	ltpFR	3	4	1	WALRUS	1585	n/a	1	n/a	n/a	n/a	n/a	n/a
3952.968	n/a	RECOG_CONF	1976484	n/a	LTP199	ltpFR	3	4	1	WALRUS	1585	5	1	n/a	n/a	n/a	n/a	n/a
3954.858	n/a	RECOG_TARGET	1977429	n/a	LTP199	ltpFR	3	4	-1	CANNON	232	5	-1	n/a	n/a	n/a	n/a	n/a
3955.644	n/a	RECOG_RESP	1977822	n/a	LTP199	ltpFR	3	4	-1	CANNON	232	n/a	-1	n/a	n/a	n/a	n/a	n/a
3957.564	n/a	RECOG_CONF	1978782	n/a	LTP199	ltpFR	3	4	-1	CANNON	232	5	-1	n/a	n/a	n/a	n/a	n/a
3959.344	n/a	RECOG_TARGET	1979672	n/a	LTP199	ltpFR	3	4	1	ASSISTANT	48	3	1	n/a	n/a	n/a	n/a	n/a
3961.42	n/a	RECOG_RESP	1980710	n/a	LTP199	ltpFR	3	4	1	ASSISTANT	48	n/a	1	n/a	n/a	n/a	n/a	n/a
3963.344	n/a	RECOG_CONF	1981672	n/a	LTP199	ltpFR	3	4	1	ASSISTANT	48	3	1	n/a	n/a	n/a	n/a	n/a
3965.014	n/a	RECOG_LURE	1982507	n/a	LTP199	ltpFR	3	4	n/a	FINGERNAIL	568	2	n/a	n/a	n/a	n/a	n/a	n/a
3969.09	n/a	RECOG_RESP	1984545	n/a	LTP199	ltpFR	3	4	n/a	FINGERNAIL	568	n/a	n/a	n/a	n/a	n/a	n/a	n/a
3971.252	n/a	RECOG_CONF	1985626	n/a	LTP199	ltpFR	3	4	n/a	FINGERNAIL	568	2	n/a	n/a	n/a	n/a	n/a	n/a
3973.214	n/a	RECOG_TARGET	1986607	n/a	LTP199	ltpFR	3	4	-1	SERPENT	1270	5	-1	n/a	n/a	n/a	n/a	n/a
3974.266	n/a	RECOG_RESP	1987133	n/a	LTP199	ltpFR	3	4	-1	SERPENT	1270	n/a	-1	n/a	n/a	n/a	n/a	n/a
3975.914	n/a	RECOG_CONF	1987957	n/a	LTP199	ltpFR	3	4	-1	SERPENT	1270	5	-1	n/a	n/a	n/a	n/a	n/a
3977.68	n/a	RECOG_TARGET	1988840	n/a	LTP199	ltpFR	3	4	1	CREEK	404	5	0	n/a	n/a	n/a	n/a	n/a
3978.49	n/a	RECOG_RESP	1989245	n/a	LTP199	ltpFR	3	4	1	CREEK	404	n/a	0	n/a	n/a	n/a	n/a	n/a
3980.442	n/a	RECOG_CONF	1990221	n/a	LTP199	ltpFR	3	4	1	CREEK	404	5	0	n/a	n/a	n/a	n/a	n/a
3982.134	n/a	RECOG_TARGET	1991067	n/a	LTP199	ltpFR	3	4	1	SCRIBBLE	1256	5	0	n/a	n/a	n/a	n/a	n/a
3983.136	n/a	RECOG_RESP	1991568	n/a	LTP199	ltpFR	3	4	1	SCRIBBLE	1256	n/a	0	n/a	n/a	n/a	n/a	n/a
3984.91	n/a	RECOG_CONF	1992455	n/a	LTP199	ltpFR	3	4	1	SCRIBBLE	1256	5	0	n/a	n/a	n/a	n/a	n/a
3986.716	n/a	RECOG_TARGET	1993358	n/a	LTP199	ltpFR	3	4	1	JEWEL	757	5	0	n/a	n/a	n/a	n/a	n/a
3987.732	n/a	RECOG_RESP	1993866	n/a	LTP199	ltpFR	3	4	1	JEWEL	757	n/a	0	n/a	n/a	n/a	n/a	n/a
3989.754	n/a	RECOG_CONF	1994877	n/a	LTP199	ltpFR	3	4	1	JEWEL	757	5	0	n/a	n/a	n/a	n/a	n/a
3991.516	n/a	RECOG_LURE	1995758	n/a	LTP199	ltpFR	3	4	n/a	DUNE	506	4	n/a	n/a	n/a	n/a	n/a	n/a
3993.214	n/a	RECOG_RESP	1996607	n/a	LTP199	ltpFR	3	4	n/a	DUNE	506	n/a	n/a	n/a	n/a	n/a	n/a	n/a
3995.296	n/a	RECOG_CONF	1997648	n/a	LTP199	ltpFR	3	4	n/a	DUNE	506	4	n/a	n/a	n/a	n/a	n/a	n/a
3997.108	n/a	RECOG_TARGET	1998554	n/a	LTP199	ltpFR	3	4	0	FREEWAY	603	5	1	n/a	n/a	n/a	n/a	n/a
3998.106	n/a	RECOG_RESP	1999053	n/a	LTP199	ltpFR	3	4	0	FREEWAY	603	n/a	1	n/a	n/a	n/a	n/a	n/a
4000.014	n/a	RECOG_CONF	2000007	n/a	LTP199	ltpFR	3	4	0	FREEWAY	603	5	1	n/a	n/a	n/a	n/a	n/a
4001.976	n/a	RECOG_LURE	2000988	n/a	LTP199	ltpFR	3	4	n/a	FIDDLE	561	2	n/a	n/a	n/a	n/a	n/a	n/a
4003.832	n/a	RECOG_RESP	2001916	n/a	LTP199	ltpFR	3	4	n/a	FIDDLE	561	n/a	n/a	n/a	n/a	n/a	n/a	n/a
4005.94	n/a	RECOG_CONF	2002970	n/a	LTP199	ltpFR	3	4	n/a	FIDDLE	561	2	n/a	n/a	n/a	n/a	n/a	n/a
4007.696	n/a	RECOG_TARGET	2003848	n/a	LTP199	ltpFR	3	4	0	FARMER	553	5	1	n/a	n/a	n/a	n/a	n/a
4008.622	n/a	RECOG_RESP	2004311	n/a	LTP199	ltpFR	3	4	0	FARMER	553	n/a	1	n/a	n/a	n/a	n/a	n/a
4010.262	n/a	RECOG_CONF	2005131	n/a	LTP199	ltpFR	3	4	0	FARMER	553	5	1	n/a	n/a	n/a	n/a	n/a
4011.994	n/a	RECOG_TARGET	2005997	n/a	LTP199	ltpFR	3	4	1	LOFT	840	5	0	n/a	n/a	n/a	n/a	n/a
4012.824	n/a	RECOG_RESP	2006412	n/a	LTP199	ltpFR	3	4	1	LOFT	840	n/a	0	n/a	n/a	n/a	n/a	n/a
4014.52	n/a	RECOG_CONF	2007260	n/a	LTP199	ltpFR	3	4	1	LOFT	840	5	0	n/a	n/a	n/a	n/a	n/a
4016.536	n/a	RECOG_TARGET	2008268	n/a	LTP199	ltpFR	3	4	-1	SAW	1239	5	-1	n/a	n/a	n/a	n/a	n/a
4017.602	n/a	RECOG_RESP	2008801	n/a	LTP199	ltpFR	3	4	-1	SAW	1239	n/a	-1	n/a	n/a	n/a	n/a	n/a
4019.364	n/a	RECOG_CONF	2009682	n/a	LTP199	ltpFR	3	4	-1	SAW	1239	5	-1	n/a	n/a	n/a	n/a	n/a
4021.314	n/a	RECOG_TARGET	2010657	n/a	LTP199	ltpFR	3	4	0	BALLOON	75	5	0	n/a	n/a	n/a	n/a	n/a
4022.252	n/a	RECOG_RESP	2011126	n/a	LTP199	ltpFR	3	4	0	BALLOON	75	n/a	0	n/a	n/a	n/a	n/a	n/a
4024.746	n/a	RECOG_CONF	2012373	n/a	LTP199	ltpFR	3	4	0	BALLOON	75	5	0	n/a	n/a	n/a	n/a	n/a
4026.35	n/a	RECOG_TARGET	2013175	n/a	LTP199	ltpFR	3	4	1	CHAUFFEUR	283	1	1	n/a	n/a	n/a	n/a	n/a
4029.898	n/a	RECOG_RESP	2014949	n/a	LTP199	ltpFR	3	4	1	CHAUFFEUR	283	n/a	1	n/a	n/a	n/a	n/a	n/a
4031.946	n/a	RECOG_CONF	2015973	n/a	LTP199	ltpFR	3	4	1	CHAUFFEUR	283	1	1	n/a	n/a	n/a	n/a	n/a
4033.894	n/a	RECOG_TARGET	2016947	n/a	LTP199	ltpFR	3	4	1	APRON	35	1	0	n/a	n/a	n/a	n/a	n/a
4035.616	n/a	RECOG_RESP	2017808	n/a	LTP199	ltpFR	3	4	1	APRON	35	n/a	0	n/a	n/a	n/a	n/a	n/a
4037.868	n/a	RECOG_CONF	2018934	n/a	LTP199	ltpFR	3	4	1	APRON	35	1	0	n/a	n/a	n/a	n/a	n/a
4039.65	n/a	RECOG_TARGET	2019825	n/a	LTP199	ltpFR	3	4	1	SWAN	1417	5	1	n/a	n/a	n/a	n/a	n/a
4040.766	n/a	RECOG_RESP	2020383	n/a	LTP199	ltpFR	3	4	1	SWAN	1417	n/a	1	n/a	n/a	n/a	n/a	n/a
4042.456	n/a	RECOG_CONF	2021228	n/a	LTP199	ltpFR	3	4	1	SWAN	1417	5	1	n/a	n/a	n/a	n/a	n/a
4052.224	n/a	REC_START	2026112	n/a	LTP199	ltpFR	3	5	n/a	n/a	n/a	n/a	n/a	n/a	n/a	n/a	n/a	n/a
4052.27	n/a	RECOG_TARGET	2026135	n/a	LTP199	ltpFR	3	5	1	BUTLER	204	3	1	n/a	n/a	n/a	n/a	n/a
4053.852	n/a	RECOG_RESP	2026926	n/a	LTP199	ltpFR	3	5	1	BUTLER	204	n/a	1	n/a	n/a	n/a	n/a	n/a
4055.84	n/a	RECOG_CONF	2027920	n/a	LTP199	ltpFR	3	5	1	BUTLER	204	3	1	n/a	n/a	n/a	n/a	n/a
4057.552	n/a	RECOG_LURE	2028776	n/a	LTP199	ltpFR	3	5	n/a	ADULT	8	1	n/a	n/a	n/a	n/a	n/a	n/a
4061.51	n/a	RECOG_RESP	2030755	n/a	LTP199	ltpFR	3	5	n/a	ADULT	8	n/a	n/a	n/a	n/a	n/a	n/a	n/a
4063.322	n/a	RECOG_CONF	2031661	n/a	LTP199	ltpFR	3	5	n/a	ADULT	8	1	n/a	n/a	n/a	n/a	n/a	n/a
4065.064	n/a	RECOG_LURE	2032532	n/a	LTP199	ltpFR	3	5	n/a	CROW	414	2	n/a	n/a	n/a	n/a	n/a	n/a
4067.432	n/a	RECOG_RESP	2033716	n/a	LTP199	ltpFR	3	5	n/a	CROW	414	n/a	n/a	n/a	n/a	n/a	n/a	n/a
4069.77	n/a	RECOG_CONF	2034885	n/a	LTP199	ltpFR	3	5	n/a	CROW	414	2	n/a	n/a	n/a	n/a	n/a	n/a
4071.656	n/a	RECOG_TARGET	2035828	n/a	LTP199	ltpFR	3	5	1	GROCERIES	663	5	0	n/a	n/a	n/a	n/a	n/a
4072.704	n/a	RECOG_RESP	2036352	n/a	LTP199	ltpFR	3	5	1	GROCERIES	663	n/a	0	n/a	n/a	n/a	n/a	n/a
4074.592	n/a	RECOG_CONF	2037296	n/a	LTP199	ltpFR	3	5	1	GROCERIES	663	5	0	n/a	n/a	n/a	n/a	n/a
4076.592	n/a	RECOG_LURE	2038296	n/a	LTP199	ltpFR	3	5	n/a	WAND	1586	3	n/a	n/a	n/a	n/a	n/a	n/a
4078.65	n/a	RECOG_RESP	2039325	n/a	LTP199	ltpFR	3	5	n/a	WAND	1586	n/a	n/a	n/a	n/a	n/a	n/a	n/a
4080.52	n/a	RECOG_CONF	2040260	n/a	LTP199	ltpFR	3	5	n/a	WAND	1586	3	n/a	n/a	n/a	n/a	n/a	n/a
4082.196	n/a	RECOG_TARGET	2041098	n/a	LTP199	ltpFR	3	5	0	DEER	444	5	1	n/a	n/a	n/a	n/a	n/a
4083.232	n/a	RECOG_RESP	2041616	n/a	LTP199	ltpFR	3	5	0	DEER	444	n/a	1	n/a	n/a	n/a	n/a	n/a
4085.092	n/a	RECOG_CONF	2042546	n/a	LTP199	ltpFR	3	5	0	DEER	444	5	1	n/a	n/a	n/a	n/a	n/a
4086.864	n/a	RECOG_LURE	2043432	n/a	LTP199	ltpFR	3	5	n/a	GROCERY	664	2	n/a	n/a	n/a	n/a	n/a	n/a
4090.316	n/a	RECOG_RESP	2045158	n/a	LTP199	ltpFR	3	5	n/a	GROCERY	664	n/a	n/a	n/a	n/a	n/a	n/a	n/a
4092.198	n/a	RECOG_CONF	2046099	n/a	LTP199	ltpFR	3	5	n/a	GROCERY	664	2	n/a	n/a	n/a	n/a	n/a	n/a
4094.108	n/a	RECOG_TARGET	2047054	n/a	LTP199	ltpFR	3	5	-1	BASEBALL	93	5	-1	n/a	n/a	n/a	n/a	n/a
4095.178	n/a	RECOG_RESP	2047589	n/a	LTP199	ltpFR	3	5	-1	BASEBALL	93	n/a	-1	n/a	n/a	n/a	n/a	n/a
4096.988	n/a	RECOG_CONF	2048494	n/a	LTP199	ltpFR	3	5	-1	BASEBALL	93	5	-1	n/a	n/a	n/a	n/a	n/a
4099.01	n/a	RECOG_LURE	2049505	n/a	LTP199	ltpFR	3	5	n/a	CITY	314	3	n/a	n/a	n/a	n/a	n/a	n/a
4100.616	n/a	RECOG_RESP	2050308	n/a	LTP199	ltpFR	3	5	n/a	CITY	314	n/a	n/a	n/a	n/a	n/a	n/a	n/a
4103.784	n/a	RECOG_CONF	2051892	n/a	LTP199	ltpFR	3	5	n/a	CITY	314	3	n/a	n/a	n/a	n/a	n/a	n/a
4105.502	n/a	RECOG_LURE	2052751	n/a	LTP199	ltpFR	3	5	n/a	BLOSSOM	138	5	n/a	n/a	n/a	n/a	n/a	n/a
4106.974	n/a	RECOG_RESP	2053487	n/a	LTP199	ltpFR	3	5	n/a	BLOSSOM	138	n/a	n/a	n/a	n/a	n/a	n/a	n/a
4109.612	n/a	RECOG_CONF	2054806	n/a	LTP199	ltpFR	3	5	n/a	BLOSSOM	138	5	n/a	n/a	n/a	n/a	n/a	n/a
4111.26	n/a	RECOG_LURE	2055630	n/a	LTP199	ltpFR	3	5	n/a	LEADER	807	3	n/a	n/a	n/a	n/a	n/a	n/a
4113.52	n/a	RECOG_RESP	2056760	n/a	LTP199	ltpFR	3	5	n/a	LEADER	807	n/a	n/a	n/a	n/a	n/a	n/a	n/a
4115.76	n/a	RECOG_CONF	2057880	n/a	LTP199	ltpFR	3	5	n/a	LEADER	807	3	n/a	n/a	n/a	n/a	n/a	n/a
4117.732	n/a	RECOG_LURE	2058866	n/a	LTP199	ltpFR	3	5	n/a	BALLOT	76	4	n/a	n/a	n/a	n/a	n/a	n/a
4118.928	n/a	RECOG_RESP	2059464	n/a	LTP199	ltpFR	3	5	n/a	BALLOT	76	n/a	n/a	n/a	n/a	n/a	n/a	n/a
4120.696	n/a	RECOG_CONF	2060348	n/a	LTP199	ltpFR	3	5	n/a	BALLOT	76	4	n/a	n/a	n/a	n/a	n/a	n/a
4122.584	n/a	RECOG_LURE	2061292	n/a	LTP199	ltpFR	3	5	n/a	SLUG	1329	5	n/a	n/a	n/a	n/a	n/a	n/a
4123.882	n/a	RECOG_RESP	2061941	n/a	LTP199	ltpFR	3	5	n/a	SLUG	1329	n/a	n/a	n/a	n/a	n/a	n/a	n/a
4125.41	n/a	RECOG_CONF	2062705	n/a	LTP199	ltpFR	3	5	n/a	SLUG	1329	5	n/a	n/a	n/a	n/a	n/a	n/a
4127.57	n/a	RECOG_LURE	2063785	n/a	LTP199	ltpFR	3	5	n/a	CAPTIVE	240	4	n/a	n/a	n/a	n/a	n/a	n/a
4129.226	n/a	RECOG_RESP	2064613	n/a	LTP199	ltpFR	3	5	n/a	CAPTIVE	240	n/a	n/a	n/a	n/a	n/a	n/a	n/a
4131.518	n/a	RECOG_CONF	2065759	n/a	LTP199	ltpFR	3	5	n/a	CAPTIVE	240	4	n/a	n/a	n/a	n/a	n/a	n/a
4133.408	n/a	RECOG_LURE	2066704	n/a	LTP199	ltpFR	3	5	n/a	SLACKS	1323	4	n/a	n/a	n/a	n/a	n/a	n/a
4135.158	n/a	RECOG_RESP	2067579	n/a	LTP199	ltpFR	3	5	n/a	SLACKS	1323	n/a	n/a	n/a	n/a	n/a	n/a	n/a
4136.714	n/a	RECOG_CONF	2068357	n/a	LTP199	ltpFR	3	5	n/a	SLACKS	1323	4	n/a	n/a	n/a	n/a	n/a	n/a
4138.712	n/a	RECOG_TARGET	2069356	n/a	LTP199	ltpFR	3	5	-1	STEM	1376	3	-1	n/a	n/a	n/a	n/a	n/a
4142.21	n/a	RECOG_RESP	2071105	n/a	LTP199	ltpFR	3	5	-1	STEM	1376	n/a	-1	n/a	n/a	n/a	n/a	n/a
4144.112	n/a	RECOG_CONF	2072056	n/a	LTP199	ltpFR	3	5	-1	STEM	1376	3	-1	n/a	n/a	n/a	n/a	n/a
4145.928	n/a	RECOG_TARGET	2072964	n/a	LTP199	ltpFR	3	5	0	OYSTER	995	5	0	n/a	n/a	n/a	n/a	n/a
4147.49	n/a	RECOG_RESP	2073745	n/a	LTP199	ltpFR	3	5	0	OYSTER	995	n/a	0	n/a	n/a	n/a	n/a	n/a
4149.152	n/a	RECOG_CONF	2074576	n/a	LTP199	ltpFR	3	5	0	OYSTER	995	5	0	n/a	n/a	n/a	n/a	n/a
4150.958	n/a	RECOG_TARGET	2075479	n/a	LTP199	ltpFR	3	5	1	GEM	629	2	0	n/a	n/a	n/a	n/a	n/a
4153.184	n/a	RECOG_RESP	2076592	n/a	LTP199	ltpFR	3	5	1	GEM	629	n/a	0	n/a	n/a	n/a	n/a	n/a
4155.294	n/a	RECOG_CONF	2077647	n/a	LTP199	ltpFR	3	5	1	GEM	629	2	0	n/a	n/a	n/a	n/a	n/a
4156.882	n/a	RECOG_TARGET	2078441	n/a	LTP199	ltpFR	3	5	1	CANAL	226	1	0	n/a	n/a	n/a	n/a	n/a
4159.702	n/a	RECOG_RESP	2079851	n/a	LTP199	ltpFR	3	5	1	CANAL	226	n/a	0	n/a	n/a	n/a	n/a	n/a
4161.868	n/a	RECOG_CONF	2080934	n/a	LTP199	ltpFR	3	5	1	CANAL	226	1	0	n/a	n/a	n/a	n/a	n/a
4163.692	n/a	RECOG_TARGET	2081846	n/a	LTP199	ltpFR	3	5	1	IGLOO	734	5	0	n/a	n/a	n/a	n/a	n/a
4164.574	n/a	RECOG_RESP	2082287	n/a	LTP199	ltpFR	3	5	1	IGLOO	734	n/a	0	n/a	n/a	n/a	n/a	n/a
4166.156	n/a	RECOG_CONF	2083078	n/a	LTP199	ltpFR	3	5	1	IGLOO	734	5	0	n/a	n/a	n/a	n/a	n/a
4175.756	n/a	REC_START	2087878	n/a	LTP199	ltpFR	3	6	n/a	n/a	n/a	n/a	n/a	n/a	n/a	n/a	n/a	n/a
4175.804	n/a	RECOG_TARGET	2087902	n/a	LTP199	ltpFR	3	6	1	GLOVE	642	5	0	n/a	n/a	n/a	n/a	n/a
4176.732	n/a	RECOG_RESP	2088366	n/a	LTP199	ltpFR	3	6	1	GLOVE	642	n/a	0	n/a	n/a	n/a	n/a	n/a
4178.304	n/a	RECOG_CONF	2089152	n/a	LTP199	ltpFR	3	6	1	GLOVE	642	5	0	n/a	n/a	n/a	n/a	n/a
4180.17	n/a	RECOG_TARGET	2090085	n/a	LTP199	ltpFR	3	6	1	CELLAR	267	1	0	n/a	n/a	n/a	n/a	n/a
4185.31	n/a	RECOG_RESP	2092655	n/a	LTP199	ltpFR	3	6	1	CELLAR	267	n/a	0	n/a	n/a	n/a	n/a	n/a
4186.826	n/a	RECOG_CONF	2093413	n/a	LTP199	ltpFR	3	6	1	CELLAR	267	1	0	n/a	n/a	n/a	n/a	n/a
4188.886	n/a	RECOG_TARGET	2094443	n/a	LTP199	ltpFR	3	6	0	WART	1590	5	0	n/a	n/a	n/a	n/a	n/a
4189.722	n/a	RECOG_RESP	2094861	n/a	LTP199	ltpFR	3	6	0	WART	1590	n/a	0	n/a	n/a	n/a	n/a	n/a
4191.26	n/a	RECOG_CONF	2095630	n/a	LTP199	ltpFR	3	6	0	WART	1590	5	0	n/a	n/a	n/a	n/a	n/a
4193.02	n/a	RECOG_LURE	2096510	n/a	LTP199	ltpFR	3	6	n/a	ERASER	538	3	n/a	n/a	n/a	n/a	n/a	n/a
4194.1	n/a	RECOG_RESP	2097050	n/a	LTP199	ltpFR	3	6	n/a	ERASER	538	n/a	n/a	n/a	n/a	n/a	n/a	n/a
4195.734	n/a	RECOG_CONF	2097867	n/a	LTP199	ltpFR	3	6	n/a	ERASER	538	3	n/a	n/a	n/a	n/a	n/a	n/a
4197.454	n/a	RECOG_TARGET	2098727	n/a	LTP199	ltpFR	3	6	0	MULE	931	5	1	n/a	n/a	n/a	n/a	n/a
4198.276	n/a	RECOG_RESP	2099138	n/a	LTP199	ltpFR	3	6	0	MULE	931	n/a	1	n/a	n/a	n/a	n/a	n/a
4199.836	n/a	RECOG_CONF	2099918	n/a	LTP199	ltpFR	3	6	0	MULE	931	5	1	n/a	n/a	n/a	n/a	n/a
4201.636	n/a	RECOG_TARGET	2100818	n/a	LTP199	ltpFR	3	6	0	SIGN	1305	5	0	n/a	n/a	n/a	n/a	n/a
4202.9	n/a	RECOG_RESP	2101450	n/a	LTP199	ltpFR	3	6	0	SIGN	1305	n/a	0	n/a	n/a	n/a	n/a	n/a
4204.766	n/a	RECOG_CONF	2102383	n/a	LTP199	ltpFR	3	6	0	SIGN	1305	5	0	n/a	n/a	n/a	n/a	n/a
4206.574	n/a	RECOG_TARGET	2103287	n/a	LTP199	ltpFR	3	6	0	SUMMIT	1405	5	1	n/a	n/a	n/a	n/a	n/a
4207.414	n/a	RECOG_RESP	2103707	n/a	LTP199	ltpFR	3	6	0	SUMMIT	1405	n/a	1	n/a	n/a	n/a	n/a	n/a
4209.336	n/a	RECOG_CONF	2104668	n/a	LTP199	ltpFR	3	6	0	SUMMIT	1405	5	1	n/a	n/a	n/a	n/a	n/a
4211.106	n/a	RECOG_LURE	2105553	n/a	LTP199	ltpFR	3	6	n/a	PARTNER	1017	2	n/a	n/a	n/a	n/a	n/a	n/a
4213.284	n/a	RECOG_RESP	2106642	n/a	LTP199	ltpFR	3	6	n/a	PARTNER	1017	n/a	n/a	n/a	n/a	n/a	n/a	n/a
4215.152	n/a	RECOG_CONF	2107576	n/a	LTP199	ltpFR	3	6	n/a	PARTNER	1017	2	n/a	n/a	n/a	n/a	n/a	n/a
4216.912	n/a	RECOG_TARGET	2108456	n/a	LTP199	ltpFR	3	6	0	FEAST	556	5	1	n/a	n/a	n/a	n/a	n/a
4217.956	n/a	RECOG_RESP	2108978	n/a	LTP199	ltpFR	3	6	0	FEAST	556	n/a	1	n/a	n/a	n/a	n/a	n/a
4219.732	n/a	RECOG_CONF	2109866	n/a	LTP199	ltpFR	3	6	0	FEAST	556	5	1	n/a	n/a	n/a	n/a	n/a
4221.416	n/a	RECOG_TARGET	2110708	n/a	LTP199	ltpFR	3	6	-1	REFRIGERATOR	1179	5	-1	n/a	n/a	n/a	n/a	n/a
4222.354	n/a	RECOG_RESP	2111177	n/a	LTP199	ltpFR	3	6	-1	REFRIGERATOR	1179	n/a	-1	n/a	n/a	n/a	n/a	n/a
4224.222	n/a	RECOG_CONF	2112111	n/a	LTP199	ltpFR	3	6	-1	REFRIGERATOR	1179	5	-1	n/a	n/a	n/a	n/a	n/a
4226.102	n/a	RECOG_LURE	2113051	n/a	LTP199	ltpFR	3	6	n/a	FACE	547	4	n/a	n/a	n/a	n/a	n/a	n/a
4227.632	n/a	RECOG_RESP	2113816	n/a	LTP199	ltpFR	3	6	n/a	FACE	547	n/a	n/a	n/a	n/a	n/a	n/a	n/a
4230.656	n/a	RECOG_CONF	2115328	n/a	LTP199	ltpFR	3	6	n/a	FACE	547	4	n/a	n/a	n/a	n/a	n/a	n/a
4232.588	n/a	RECOG_LURE	2116294	n/a	LTP199	ltpFR	3	6	n/a	ROBE	1198	2	n/a	n/a	n/a	n/a	n/a	n/a
4234.278	n/a	RECOG_RESP	2117139	n/a	LTP199	ltpFR	3	6	n/a	ROBE	1198	n/a	n/a	n/a	n/a	n/a	n/a	n/a
4237.476	n/a	RECOG_CONF	2118738	n/a	LTP199	ltpFR	3	6	n/a	ROBE	1198	2	n/a	n/a	n/a	n/a	n/a	n/a
4239.346	n/a	RECOG_TARGET	2119673	n/a	LTP199	ltpFR	3	6	1	UNIFORM	1539	1	0	n/a	n/a	n/a	n/a	n/a
4244.45	n/a	RECOG_RESP	2122225	n/a	LTP199	ltpFR	3	6	1	UNIFORM	1539	n/a	0	n/a	n/a	n/a	n/a	n/a
4246.058	n/a	RECOG_CONF	2123029	n/a	LTP199	ltpFR	3	6	1	UNIFORM	1539	1	0	n/a	n/a	n/a	n/a	n/a
4247.894	n/a	RECOG_TARGET	2123947	n/a	LTP199	ltpFR	3	6	1	SIDING	1304	5	0	n/a	n/a	n/a	n/a	n/a
4248.898	n/a	RECOG_RESP	2124449	n/a	LTP199	ltpFR	3	6	1	SIDING	1304	n/a	0	n/a	n/a	n/a	n/a	n/a
4250.506	n/a	RECOG_CONF	2125253	n/a	LTP199	ltpFR	3	6	1	SIDING	1304	5	0	n/a	n/a	n/a	n/a	n/a
4252.348	n/a	RECOG_TARGET	2126174	n/a	LTP199	ltpFR	3	6	0	BUTTER	205	5	0	n/a	n/a	n/a	n/a	n/a
4253.26	n/a	RECOG_RESP	2126630	n/a	LTP199	ltpFR	3	6	0	BUTTER	205	n/a	0	n/a	n/a	n/a	n/a	n/a
4255.244	n/a	RECOG_CONF	2127622	n/a	LTP199	ltpFR	3	6	0	BUTTER	205	5	0	n/a	n/a	n/a	n/a	n/a
4256.95	n/a	RECOG_TARGET	2128475	n/a	LTP199	ltpFR	3	6	-1	BROCCOLI	176	5	-1	n/a	n/a	n/a	n/a	n/a
4258.036	n/a	RECOG_RESP	2129018	n/a	LTP199	ltpFR	3	6	-1	BROCCOLI	176	n/a	-1	n/a	n/a	n/a	n/a	n/a
4259.488	n/a	RECOG_CONF	2129744	n/a	LTP199	ltpFR	3	6	-1	BROCCOLI	176	5	-1	n/a	n/a	n/a	n/a	n/a
4261.482	n/a	RECOG_TARGET	2130741	n/a	LTP199	ltpFR	3	6	1	POLITICIAN	1099	3	1	n/a	n/a	n/a	n/a	n/a
4264.976	n/a	RECOG_RESP	2132488	n/a	LTP199	ltpFR	3	6	1	POLITICIAN	1099	n/a	1	n/a	n/a	n/a	n/a	n/a
4267.67	n/a	RECOG_CONF	2133835	n/a	LTP199	ltpFR	3	6	1	POLITICIAN	1099	3	1	n/a	n/a	n/a	n/a	n/a
4269.412	n/a	RECOG_LURE	2134706	n/a	LTP199	ltpFR	3	6	n/a	MUSTARD	935	4	n/a	n/a	n/a	n/a	n/a	n/a
4270.948	n/a	RECOG_RESP	2135474	n/a	LTP199	ltpFR	3	6	n/a	MUSTARD	935	n/a	n/a	n/a	n/a	n/a	n/a	n/a
4272.864	n/a	RECOG_CONF	2136432	n/a	LTP199	ltpFR	3	6	n/a	MUSTARD	935	4	n/a	n/a	n/a	n/a	n/a	n/a
4274.532	n/a	RECOG_TARGET	2137266	n/a	LTP199	ltpFR	3	6	1	MOTEL	919	2	0	n/a	n/a	n/a	n/a	n/a
4276.586	n/a	RECOG_RESP	2138293	n/a	LTP199	ltpFR	3	6	1	MOTEL	919	n/a	0	n/a	n/a	n/a	n/a	n/a
4278.53	n/a	RECOG_CONF	2139265	n/a	LTP199	ltpFR	3	6	1	MOTEL	919	2	0	n/a	n/a	n/a	n/a	n/a
4280.454	n/a	RECOG_TARGET	2140227	n/a	LTP199	ltpFR	3	6	0	POCKETBOOK	1094	5	0	n/a	n/a	n/a	n/a	n/a
4282.158	n/a	RECOG_RESP	2141079	n/a	LTP199	ltpFR	3	6	0	POCKETBOOK	1094	n/a	0	n/a	n/a	n/a	n/a	n/a
4284.268	n/a	RECOG_CONF	2142134	n/a	LTP199	ltpFR	3	6	0	POCKETBOOK	1094	5	0	n/a	n/a	n/a	n/a	n/a
4295.482	n/a	REC_START	2147741	n/a	LTP199	ltpFR	3	7	n/a	n/a	n/a	n/a	n/a	n/a	n/a	n/a	n/a	n/a
4295.528	n/a	RECOG_LURE	2147764	n/a	LTP199	ltpFR	3	7	n/a	DESK	452	3	n/a	n/a	n/a	n/a	n/a	n/a
4297.138	n/a	RECOG_RESP	2148569	n/a	LTP199	ltpFR	3	7	n/a	DESK	452	n/a	n/a	n/a	n/a	n/a	n/a	n/a
4299.352	n/a	RECOG_CONF	2149676	n/a	LTP199	ltpFR	3	7	n/a	DESK	452	3	n/a	n/a	n/a	n/a	n/a	n/a
4300.932	n/a	RECOG_LURE	2150466	n/a	LTP199	ltpFR	3	7	n/a	CHART	282	2	n/a	n/a	n/a	n/a	n/a	n/a
4302.49	n/a	RECOG_RESP	2151245	n/a	LTP199	ltpFR	3	7	n/a	CHART	282	n/a	n/a	n/a	n/a	n/a	n/a	n/a
4304.474	n/a	RECOG_CONF	2152237	n/a	LTP199	ltpFR	3	7	n/a	CHART	282	2	n/a	n/a	n/a	n/a	n/a	n/a
4306.218	n/a	RECOG_TARGET	2153109	n/a	LTP199	ltpFR	3	7	-1	SEED	1266	5	-1	n/a	n/a	n/a	n/a	n/a
4307.114	n/a	RECOG_RESP	2153557	n/a	LTP199	ltpFR	3	7	-1	SEED	1266	n/a	-1	n/a	n/a	n/a	n/a	n/a
4309.05	n/a	RECOG_CONF	2154525	n/a	LTP199	ltpFR	3	7	-1	SEED	1266	5	-1	n/a	n/a	n/a	n/a	n/a
4310.736	n/a	RECOG_LURE	2155368	n/a	LTP199	ltpFR	3	7	n/a	XEROX	1628	4	n/a	n/a	n/a	n/a	n/a	n/a
4311.958	n/a	RECOG_RESP_VV	2155979	n/a	LTP199	ltpFR	3	7	n/a	XEROX	1628	n/a	n/a	n/a	n/a	n/a	n/a	n/a
4313.65	n/a	RECOG_RESP	2156825	n/a	LTP199	ltpFR	3	7	n/a	XEROX	1628	n/a	n/a	n/a	n/a	n/a	n/a	n/a
4315.88	n/a	RECOG_CONF	2157940	n/a	LTP199	ltpFR	3	7	n/a	XEROX	1628	4	n/a	n/a	n/a	n/a	n/a	n/a
4317.68	n/a	RECOG_TARGET	2158840	n/a	LTP199	ltpFR	3	7	0	SEAGULL	1261	5	1	n/a	n/a	n/a	n/a	n/a
4318.82	n/a	RECOG_RESP	2159410	n/a	LTP199	ltpFR	3	7	0	SEAGULL	1261	n/a	1	n/a	n/a	n/a	n/a	n/a
4320.642	n/a	RECOG_CONF	2160321	n/a	LTP199	ltpFR	3	7	0	SEAGULL	1261	5	1	n/a	n/a	n/a	n/a	n/a
4322.548	n/a	RECOG_TARGET	2161274	n/a	LTP199	ltpFR	3	7	0	BAG	69	5	0	n/a	n/a	n/a	n/a	n/a
4323.364	n/a	RECOG_RESP	2161682	n/a	LTP199	ltpFR	3	7	0	BAG	69	n/a	0	n/a	n/a	n/a	n/a	n/a
4325.16	n/a	RECOG_CONF	2162580	n/a	LTP199	ltpFR	3	7	0	BAG	69	5	0	n/a	n/a	n/a	n/a	n/a
4327.066	n/a	RECOG_LURE	2163533	n/a	LTP199	ltpFR	3	7	n/a	MAILBOX	857	5	n/a	n/a	n/a	n/a	n/a	n/a
4328.674	n/a	RECOG_RESP	2164337	n/a	LTP199	ltpFR	3	7	n/a	MAILBOX	857	n/a	n/a	n/a	n/a	n/a	n/a	n/a
4330.64	n/a	RECOG_CONF	2165320	n/a	LTP199	ltpFR	3	7	n/a	MAILBOX	857	5	n/a	n/a	n/a	n/a	n/a	n/a
4332.586	n/a	RECOG_LURE	2166293	n/a	LTP199	ltpFR	3	7	n/a	SCIENTIST	1249	3	n/a	n/a	n/a	n/a	n/a	n/a
4333.76	n/a	RECOG_RESP	2166880	n/a	LTP199	ltpFR	3	7	n/a	SCIENTIST	1249	n/a	n/a	n/a	n/a	n/a	n/a	n/a
4335.706	n/a	RECOG_CONF	2167853	n/a	LTP199	ltpFR	3	7	n/a	SCIENTIST	1249	3	n/a	n/a	n/a	n/a	n/a	n/a
4337.656	n/a	RECOG_TARGET	2168828	n/a	LTP199	ltpFR	3	7	0	CRUMB	416	5	0	n/a	n/a	n/a	n/a	n/a
4338.492	n/a	RECOG_RESP	2169246	n/a	LTP199	ltpFR	3	7	0	CRUMB	416	n/a	0	n/a	n/a	n/a	n/a	n/a
4340.272	n/a	RECOG_CONF	2170136	n/a	LTP199	ltpFR	3	7	0	CRUMB	416	5	0	n/a	n/a	n/a	n/a	n/a
