mstime	trial_type	stim_file	subject	experiment	session	trial	task	item_name	item_num	recog_resp	recog_conf	resp	color_r	color_g	color_b	case	font
0	SESS_START	n/a	LTP263	ltpFR	1	n/a	n/a	n/a	n/a	1	n/a	n/a	n/a	n/a	n/a	n/a	n/a
87549	WORD	wordpools/wasnorm_wordpool_less_exclusions.txt	LTP263	ltpFR	1	1	1	CHAMBER	277	n/a	n/a	0	0.57763671875	0.412841796875	1	upper	zerothre.ttf
91743	WORD	wordpools/wasnorm_wordpool_less_exclusions.txt	LTP263	ltpFR	1	1	1	OBOE	969	n/a	n/a	0	0.57763671875	0.412841796875	1	upper	zerothre.ttf
95820	WORD	wordpools/wasnorm_wordpool_less_exclusions.txt	LTP263	ltpFR	1	1	1	CANNON	232	n/a	n/a	0	0.57763671875	0.412841796875	1	upper	zerothre.ttf
99964	WORD	wordpools/wasnorm_wordpool_less_exclusions.txt	LTP263	ltpFR	1	1	0	PONY	1102	n/a	n/a	3	0.422607421875	0.5869140625	0	lower	amplitud.ttf
100846	KEY_MSG	n/a	LTP263	ltpFR	1	1	n/a	n/a	n/a	n/a	n/a	n/a	n/a	n/a	n/a	n/a	n/a
103809	WORD	wordpools/wasnorm_wordpool_less_exclusions.txt	LTP263	ltpFR	1	1	0	OATS	968	n/a	n/a	0	0.422607421875	0.5869140625	0	lower	amplitud.ttf
107936	WORD	wordpools/wasnorm_wordpool_less_exclusions.txt	LTP263	ltpFR	1	1	0	PRINCESS	1125	n/a	n/a	1	0.422607421875	0.5869140625	0	lower	amplitud.ttf
111863	WORD	wordpools/wasnorm_wordpool_less_exclusions.txt	LTP263	ltpFR	1	1	1	MONARCH	906	n/a	n/a	0	0.57763671875	0.412841796875	1	upper	zerothre.ttf
115907	WORD	wordpools/wasnorm_wordpool_less_exclusions.txt	LTP263	ltpFR	1	1	1	MARINE	869	n/a	n/a	1	0.57763671875	0.412841796875	1	upper	zerothre.ttf
119818	WORD	wordpools/wasnorm_wordpool_less_exclusions.txt	LTP263	ltpFR	1	1	1	TROMBONE	1508	n/a	n/a	0	0.57763671875	0.412841796875	1	upper	zerothre.ttf
123962	WORD	wordpools/wasnorm_wordpool_less_exclusions.txt	LTP263	ltpFR	1	1	0	STEW	1380	n/a	n/a	0	0.422607421875	0.5869140625	0	lower	amplitud.ttf
128022	WORD	wordpools/wasnorm_wordpool_less_exclusions.txt	LTP263	ltpFR	1	1	0	PASTRY	1022	n/a	n/a	0	0.422607421875	0.5869140625	0	lower	amplitud.ttf
132101	WORD	wordpools/wasnorm_wordpool_less_exclusions.txt	LTP263	ltpFR	1	1	0	TOE	1473	n/a	n/a	0	0.422607421875	0.5869140625	0	lower	amplitud.ttf
135927	WORD	wordpools/wasnorm_wordpool_less_exclusions.txt	LTP263	ltpFR	1	1	0	CINNAMON	310	n/a	n/a	0	0.422607421875	0.5869140625	0	lower	amplitud.ttf
139821	WORD	wordpools/wasnorm_wordpool_less_exclusions.txt	LTP263	ltpFR	1	1	0	PLUMBER	1091	n/a	n/a	0	0.422607421875	0.5869140625	0	lower	amplitud.ttf
144015	WORD	wordpools/wasnorm_wordpool_less_exclusions.txt	LTP263	ltpFR	1	1	1	CHICKEN	297	n/a	n/a	1	0.57763671875	0.412841796875	1	upper	zerothre.ttf
148009	WORD	wordpools/wasnorm_wordpool_less_exclusions.txt	LTP263	ltpFR	1	1	1	FIDDLE	561	n/a	n/a	0	0.57763671875	0.412841796875	1	upper	zerothre.ttf
153618	REC_START	n/a	LTP263	ltpFR	1	1	n/a	n/a	n/a	n/a	n/a	n/a	n/a	n/a	n/a	n/a	n/a
154960	REC_WORD	wordpools/wasnorm_wordpool_less_exclusions.txt	LTP263	ltpFR	1	1	1	FIDDLE	561	n/a	n/a	0	n/a	n/a	n/a	n/a	n/a
156190	REC_WORD	wordpools/wasnorm_wordpool_less_exclusions.txt	LTP263	ltpFR	1	1	0	PONY	1102	n/a	n/a	3	n/a	n/a	n/a	n/a	n/a
157405	REC_WORD	wordpools/wasnorm_wordpool_less_exclusions.txt	LTP263	ltpFR	1	1	1	TROMBONE	1508	n/a	n/a	0	n/a	n/a	n/a	n/a	n/a
159910	REC_WORD	wordpools/wasnorm_wordpool_less_exclusions.txt	LTP263	ltpFR	1	1	0	TOE	1473	n/a	n/a	0	n/a	n/a	n/a	n/a	n/a
161238	REC_WORD	wordpools/wasnorm_wordpool_less_exclusions.txt	LTP263	ltpFR	1	1	0	CINNAMON	310	n/a	n/a	0	n/a	n/a	n/a	n/a	n/a
168948	REC_WORD	wordpools/wasnorm_wordpool_less_exclusions.txt	LTP263	ltpFR	1	1	1	MONARCH	906	n/a	n/a	0	n/a	n/a	n/a	n/a	n/a
174036	REC_WORD	wordpools/wasnorm_wordpool_less_exclusions.txt	LTP263	ltpFR	1	1	1	OBOE	969	n/a	n/a	0	n/a	n/a	n/a	n/a	n/a
179141	REC_WORD_VV	wordpools/wasnorm_wordpool_less_exclusions.txt	LTP263	ltpFR	1	1	n/a	<>	-1	n/a	n/a	n/a	n/a	n/a	n/a	n/a	n/a
232600	WORD	wordpools/wasnorm_wordpool_less_exclusions.txt	LTP263	ltpFR	1	2	0	ORCHID	982	n/a	n/a	0	0.422607421875	0.5869140625	0	lower	amplitud.ttf
236627	WORD	wordpools/wasnorm_wordpool_less_exclusions.txt	LTP263	ltpFR	1	2	0	OPERATOR	979	n/a	n/a	1	0.422607421875	0.5869140625	0	lower	amplitud.ttf
240571	WORD	wordpools/wasnorm_wordpool_less_exclusions.txt	LTP263	ltpFR	1	2	0	CELLO	268	n/a	n/a	0	0.422607421875	0.5869140625	0	lower	amplitud.ttf
244416	WORD	wordpools/wasnorm_wordpool_less_exclusions.txt	LTP263	ltpFR	1	2	1	CLAM	315	n/a	n/a	0	0.57763671875	0.412841796875	1	upper	zerothre.ttf
248377	WORD	wordpools/wasnorm_wordpool_less_exclusions.txt	LTP263	ltpFR	1	2	1	CLIPPERS	324	n/a	n/a	0	0.57763671875	0.412841796875	1	upper	zerothre.ttf
252421	WORD	wordpools/wasnorm_wordpool_less_exclusions.txt	LTP263	ltpFR	1	2	1	CORD	379	n/a	n/a	0	0.57763671875	0.412841796875	1	upper	zerothre.ttf
256332	WORD	wordpools/wasnorm_wordpool_less_exclusions.txt	LTP263	ltpFR	1	2	0	BEAR	106	n/a	n/a	1	0.422607421875	0.5869140625	0	lower	amplitud.ttf
260492	WORD	wordpools/wasnorm_wordpool_less_exclusions.txt	LTP263	ltpFR	1	2	0	ANTEATER	26	n/a	n/a	1	0.422607421875	0.5869140625	0	lower	amplitud.ttf
264602	WORD	wordpools/wasnorm_wordpool_less_exclusions.txt	LTP263	ltpFR	1	2	0	TABLE	1426	n/a	n/a	0	0.422607421875	0.5869140625	0	lower	amplitud.ttf
268696	WORD	wordpools/wasnorm_wordpool_less_exclusions.txt	LTP263	ltpFR	1	2	1	LOUNGE	845	n/a	n/a	0	0.57763671875	0.412841796875	1	upper	zerothre.ttf
272856	WORD	wordpools/wasnorm_wordpool_less_exclusions.txt	LTP263	ltpFR	1	2	1	EMERALD	528	n/a	n/a	0	0.57763671875	0.412841796875	1	upper	zerothre.ttf
276750	WORD	wordpools/wasnorm_wordpool_less_exclusions.txt	LTP263	ltpFR	1	2	1	WINGS	1614	n/a	n/a	0	0.57763671875	0.412841796875	1	upper	zerothre.ttf
280944	WORD	wordpools/wasnorm_wordpool_less_exclusions.txt	LTP263	ltpFR	1	2	1	RADIO	1157	n/a	n/a	0	0.57763671875	0.412841796875	1	upper	zerothre.ttf
285105	WORD	wordpools/wasnorm_wordpool_less_exclusions.txt	LTP263	ltpFR	1	2	1	FLASK	576	n/a	n/a	0	0.57763671875	0.412841796875	1	upper	zerothre.ttf
289299	WORD	wordpools/wasnorm_wordpool_less_exclusions.txt	LTP263	ltpFR	1	2	0	COOLER	375	n/a	n/a	0	0.422607421875	0.5869140625	0	lower	amplitud.ttf
293293	WORD	wordpools/wasnorm_wordpool_less_exclusions.txt	LTP263	ltpFR	1	2	0	JET	756	n/a	n/a	1	0.422607421875	0.5869140625	0	lower	amplitud.ttf
299102	REC_START	n/a	LTP263	ltpFR	1	2	n/a	n/a	n/a	n/a	n/a	n/a	n/a	n/a	n/a	n/a	n/a
300121	REC_WORD	wordpools/wasnorm_wordpool_less_exclusions.txt	LTP263	ltpFR	1	2	0	JET	756	n/a	n/a	1	n/a	n/a	n/a	n/a	n/a
301170	REC_WORD	wordpools/wasnorm_wordpool_less_exclusions.txt	LTP263	ltpFR	1	2	0	COOLER	375	n/a	n/a	0	n/a	n/a	n/a	n/a	n/a
305292	REC_WORD	wordpools/wasnorm_wordpool_less_exclusions.txt	LTP263	ltpFR	1	2	0	CELLO	268	n/a	n/a	0	n/a	n/a	n/a	n/a	n/a
371257	REC_WORD	wordpools/wasnorm_wordpool_less_exclusions.txt	LTP263	ltpFR	1	2	0	ORCHID	982	n/a	n/a	0	n/a	n/a	n/a	n/a	n/a
373423	REC_WORD	wordpools/wasnorm_wordpool_less_exclusions.txt	LTP263	ltpFR	1	2	0	OPERATOR	979	n/a	n/a	1	n/a	n/a	n/a	n/a	n/a
379464	WORD	wordpools/wasnorm_wordpool_less_exclusions.txt	LTP263	ltpFR	1	3	-1	TULIP	1517	n/a	n/a	-1	1.0	1.0	1	upper	Verdana.ttf
383442	WORD	wordpools/wasnorm_wordpool_less_exclusions.txt	LTP263	ltpFR	1	3	-1	LILY	821	n/a	n/a	-1	1.0	1.0	1	upper	Verdana.ttf
387286	WORD	wordpools/wasnorm_wordpool_less_exclusions.txt	LTP263	ltpFR	1	3	-1	COBRA	336	n/a	n/a	-1	1.0	1.0	1	upper	Verdana.ttf
391480	WORD	wordpools/wasnorm_wordpool_less_exclusions.txt	LTP263	ltpFR	1	3	-1	LOLLIPOP	842	n/a	n/a	-1	1.0	1.0	1	upper	Verdana.ttf
395606	WORD	wordpools/wasnorm_wordpool_less_exclusions.txt	LTP263	ltpFR	1	3	-1	MARKER	870	n/a	n/a	-1	1.0	1.0	1	upper	Verdana.ttf
399567	WORD	wordpools/wasnorm_wordpool_less_exclusions.txt	LTP263	ltpFR	1	3	-1	SWAMP	1416	n/a	n/a	-1	1.0	1.0	1	upper	Verdana.ttf
403794	WORD	wordpools/wasnorm_wordpool_less_exclusions.txt	LTP263	ltpFR	1	3	-1	FOUNTAIN	597	n/a	n/a	-1	1.0	1.0	1	upper	Verdana.ttf
407921	WORD	wordpools/wasnorm_wordpool_less_exclusions.txt	LTP263	ltpFR	1	3	-1	LIP	828	n/a	n/a	-1	1.0	1.0	1	upper	Verdana.ttf
412049	WORD	wordpools/wasnorm_wordpool_less_exclusions.txt	LTP263	ltpFR	1	3	-1	CHEF	290	n/a	n/a	-1	1.0	1.0	1	upper	Verdana.ttf
415976	WORD	wordpools/wasnorm_wordpool_less_exclusions.txt	LTP263	ltpFR	1	3	-1	PEN	1041	n/a	n/a	-1	1.0	1.0	1	upper	Verdana.ttf
419886	WORD	wordpools/wasnorm_wordpool_less_exclusions.txt	LTP263	ltpFR	1	3	-1	CURB	426	n/a	n/a	-1	1.0	1.0	1	upper	Verdana.ttf
423864	WORD	wordpools/wasnorm_wordpool_less_exclusions.txt	LTP263	ltpFR	1	3	-1	HOUSE	725	n/a	n/a	-1	1.0	1.0	1	upper	Verdana.ttf
428024	WORD	wordpools/wasnorm_wordpool_less_exclusions.txt	LTP263	ltpFR	1	3	-1	BEDROOM	111	n/a	n/a	-1	1.0	1.0	1	upper	Verdana.ttf
431852	WORD	wordpools/wasnorm_wordpool_less_exclusions.txt	LTP263	ltpFR	1	3	-1	MOON	914	n/a	n/a	-1	1.0	1.0	1	upper	Verdana.ttf
436029	WORD	wordpools/wasnorm_wordpool_less_exclusions.txt	LTP263	ltpFR	1	3	-1	LAGOON	795	n/a	n/a	-1	1.0	1.0	1	upper	Verdana.ttf
440240	WORD	wordpools/wasnorm_wordpool_less_exclusions.txt	LTP263	ltpFR	1	3	-1	COOK	372	n/a	n/a	-1	1.0	1.0	1	upper	Verdana.ttf
445998	REC_START	n/a	LTP263	ltpFR	1	3	n/a	n/a	n/a	n/a	n/a	n/a	n/a	n/a	n/a	n/a	n/a
447062	REC_WORD	wordpools/wasnorm_wordpool_less_exclusions.txt	LTP263	ltpFR	1	3	-1	CHEF	290	n/a	n/a	-1	n/a	n/a	n/a	n/a	n/a
448221	REC_WORD	wordpools/wasnorm_wordpool_less_exclusions.txt	LTP263	ltpFR	1	3	-1	PEN	1041	n/a	n/a	-1	n/a	n/a	n/a	n/a	n/a
449700	REC_WORD	wordpools/wasnorm_wordpool_less_exclusions.txt	LTP263	ltpFR	1	3	-1	CURB	426	n/a	n/a	-1	n/a	n/a	n/a	n/a	n/a
450490	REC_WORD	wordpools/wasnorm_wordpool_less_exclusions.txt	LTP263	ltpFR	1	3	-1	HOUSE	725	n/a	n/a	-1	n/a	n/a	n/a	n/a	n/a
451830	REC_WORD	wordpools/wasnorm_wordpool_less_exclusions.txt	LTP263	ltpFR	1	3	-1	BEDROOM	111	n/a	n/a	-1	n/a	n/a	n/a	n/a	n/a
452983	REC_WORD	wordpools/wasnorm_wordpool_less_exclusions.txt	LTP263	ltpFR	1	3	-1	MOON	914	n/a	n/a	-1	n/a	n/a	n/a	n/a	n/a
454295	REC_WORD	wordpools/wasnorm_wordpool_less_exclusions.txt	LTP263	ltpFR	1	3	-1	LAGOON	795	n/a	n/a	-1	n/a	n/a	n/a	n/a	n/a
455820	REC_WORD	wordpools/wasnorm_wordpool_less_exclusions.txt	LTP263	ltpFR	1	3	n/a	SNAKE	1333	n/a	n/a	n/a	n/a	n/a	n/a	n/a	n/a
457366	REC_WORD	wordpools/wasnorm_wordpool_less_exclusions.txt	LTP263	ltpFR	1	3	-1	TULIP	1517	n/a	n/a	-1	n/a	n/a	n/a	n/a	n/a
458675	REC_WORD	wordpools/wasnorm_wordpool_less_exclusions.txt	LTP263	ltpFR	1	3	-1	LILY	821	n/a	n/a	-1	n/a	n/a	n/a	n/a	n/a
460629	REC_WORD	wordpools/wasnorm_wordpool_less_exclusions.txt	LTP263	ltpFR	1	3	-1	LOLLIPOP	842	n/a	n/a	-1	n/a	n/a	n/a	n/a	n/a
462429	REC_WORD	wordpools/wasnorm_wordpool_less_exclusions.txt	LTP263	ltpFR	1	3	-1	FOUNTAIN	597	n/a	n/a	-1	n/a	n/a	n/a	n/a	n/a
499048	REC_WORD	wordpools/wasnorm_wordpool_less_exclusions.txt	LTP263	ltpFR	1	3	-1	COBRA	336	n/a	n/a	-1	n/a	n/a	n/a	n/a	n/a
526977	WORD	wordpools/wasnorm_wordpool_less_exclusions.txt	LTP263	ltpFR	1	4	0	SILK	1307	n/a	n/a	0	0.422607421875	0.5869140625	0	lower	amplitud.ttf
530887	WORD	wordpools/wasnorm_wordpool_less_exclusions.txt	LTP263	ltpFR	1	4	0	ELF	525	n/a	n/a	1	0.422607421875	0.5869140625	0	lower	amplitud.ttf
534881	WORD	wordpools/wasnorm_wordpool_less_exclusions.txt	LTP263	ltpFR	1	4	0	TOMATO	1476	n/a	n/a	0	0.422607421875	0.5869140625	0	lower	amplitud.ttf
538875	WORD	wordpools/wasnorm_wordpool_less_exclusions.txt	LTP263	ltpFR	1	4	0	GRILL	661	n/a	n/a	0	0.422607421875	0.5869140625	0	lower	amplitud.ttf
542936	WORD	wordpools/wasnorm_wordpool_less_exclusions.txt	LTP263	ltpFR	1	4	0	COTTON	385	n/a	n/a	0	0.422607421875	0.5869140625	0	lower	amplitud.ttf
547064	WORD	wordpools/wasnorm_wordpool_less_exclusions.txt	LTP263	ltpFR	1	4	0	MOB	904	n/a	n/a	1	0.422607421875	0.5869140625	0	lower	amplitud.ttf
550957	WORD	wordpools/wasnorm_wordpool_less_exclusions.txt	LTP263	ltpFR	1	4	0	QUILT	1151	n/a	n/a	1	0.422607421875	0.5869140625	0	lower	amplitud.ttf
555069	WORD	wordpools/wasnorm_wordpool_less_exclusions.txt	LTP263	ltpFR	1	4	0	SHEPHERD	1283	n/a	n/a	1	0.422607421875	0.5869140625	0	lower	amplitud.ttf
559163	WORD	wordpools/wasnorm_wordpool_less_exclusions.txt	LTP263	ltpFR	1	4	0	LOFT	840	n/a	n/a	1	0.422607421875	0.5869140625	0	lower	amplitud.ttf
563057	WORD	wordpools/wasnorm_wordpool_less_exclusions.txt	LTP263	ltpFR	1	4	0	RADISH	1158	n/a	n/a	0	0.422607421875	0.5869140625	0	lower	amplitud.ttf
567267	WORD	wordpools/wasnorm_wordpool_less_exclusions.txt	LTP263	ltpFR	1	4	0	BRANCH	168	n/a	n/a	0	0.422607421875	0.5869140625	0	lower	amplitud.ttf
571361	WORD	wordpools/wasnorm_wordpool_less_exclusions.txt	LTP263	ltpFR	1	4	0	PALM	1007	n/a	n/a	0	0.422607421875	0.5869140625	0	lower	amplitud.ttf
575472	WORD	wordpools/wasnorm_wordpool_less_exclusions.txt	LTP263	ltpFR	1	4	0	ROOSTER	1209	n/a	n/a	1	0.422607421875	0.5869140625	0	lower	amplitud.ttf
579433	WORD	wordpools/wasnorm_wordpool_less_exclusions.txt	LTP263	ltpFR	1	4	0	SERPENT	1270	n/a	n/a	1	0.422607421875	0.5869140625	0	lower	amplitud.ttf
583293	WORD	wordpools/wasnorm_wordpool_less_exclusions.txt	LTP263	ltpFR	1	4	0	ARTICLE	42	n/a	n/a	0	0.422607421875	0.5869140625	0	lower	amplitud.ttf
587188	WORD	wordpools/wasnorm_wordpool_less_exclusions.txt	LTP263	ltpFR	1	4	0	COLUMN	350	n/a	n/a	0	0.422607421875	0.5869140625	0	lower	amplitud.ttf
592929	REC_START	n/a	LTP263	ltpFR	1	4	n/a	n/a	n/a	n/a	n/a	n/a	n/a	n/a	n/a	n/a	n/a
594102	REC_WORD	wordpools/wasnorm_wordpool_less_exclusions.txt	LTP263	ltpFR	1	4	0	COLUMN	350	n/a	n/a	0	n/a	n/a	n/a	n/a	n/a
595343	REC_WORD	wordpools/wasnorm_wordpool_less_exclusions.txt	LTP263	ltpFR	1	4	0	ROOSTER	1209	n/a	n/a	1	n/a	n/a	n/a	n/a	n/a
596650	REC_WORD	wordpools/wasnorm_wordpool_less_exclusions.txt	LTP263	ltpFR	1	4	0	ELF	525	n/a	n/a	1	n/a	n/a	n/a	n/a	n/a
599894	REC_WORD	wordpools/wasnorm_wordpool_less_exclusions.txt	LTP263	ltpFR	1	4	0	SERPENT	1270	n/a	n/a	1	n/a	n/a	n/a	n/a	n/a
613097	REC_WORD	wordpools/wasnorm_wordpool_less_exclusions.txt	LTP263	ltpFR	1	4	0	ARTICLE	42	n/a	n/a	0	n/a	n/a	n/a	n/a	n/a
614853	REC_WORD	wordpools/wasnorm_wordpool_less_exclusions.txt	LTP263	ltpFR	1	4	0	RADISH	1158	n/a	n/a	0	n/a	n/a	n/a	n/a	n/a
617275	REC_WORD	wordpools/wasnorm_wordpool_less_exclusions.txt	LTP263	ltpFR	1	4	n/a	HAND	683	n/a	n/a	n/a	n/a	n/a	n/a	n/a	n/a
618222	REC_WORD	wordpools/wasnorm_wordpool_less_exclusions.txt	LTP263	ltpFR	1	4	0	PALM	1007	n/a	n/a	0	n/a	n/a	n/a	n/a	n/a
623670	REC_WORD	wordpools/wasnorm_wordpool_less_exclusions.txt	LTP263	ltpFR	1	4	0	SHEPHERD	1283	n/a	n/a	1	n/a	n/a	n/a	n/a	n/a
672925	WORD	wordpools/wasnorm_wordpool_less_exclusions.txt	LTP263	ltpFR	1	5	1	WALRUS	1585	n/a	n/a	1	0.57763671875	0.412841796875	1	upper	zerothre.ttf
676986	WORD	wordpools/wasnorm_wordpool_less_exclusions.txt	LTP263	ltpFR	1	5	1	GAZELLE	628	n/a	n/a	1	0.57763671875	0.412841796875	1	upper	zerothre.ttf
680980	WORD	wordpools/wasnorm_wordpool_less_exclusions.txt	LTP263	ltpFR	1	5	1	FUR	615	n/a	n/a	0	0.57763671875	0.412841796875	1	upper	zerothre.ttf
684941	WORD	wordpools/wasnorm_wordpool_less_exclusions.txt	LTP263	ltpFR	1	5	0	PRINCE	1124	n/a	n/a	1	0.422607421875	0.5869140625	0	lower	amplitud.ttf
688868	WORD	wordpools/wasnorm_wordpool_less_exclusions.txt	LTP263	ltpFR	1	5	0	ELEVATOR	524	n/a	n/a	1	0.422607421875	0.5869140625	0	lower	amplitud.ttf
693029	WORD	wordpools/wasnorm_wordpool_less_exclusions.txt	LTP263	ltpFR	1	5	1	STEP	1377	n/a	n/a	0	0.57763671875	0.412841796875	1	upper	zerothre.ttf
696956	WORD	wordpools/wasnorm_wordpool_less_exclusions.txt	LTP263	ltpFR	1	5	1	NOTE	958	n/a	n/a	0	0.57763671875	0.412841796875	1	upper	zerothre.ttf
700917	WORD	wordpools/wasnorm_wordpool_less_exclusions.txt	LTP263	ltpFR	1	5	0	ALLEY	15	n/a	n/a	1	0.422607421875	0.5869140625	0	lower	amplitud.ttf
705128	WORD	wordpools/wasnorm_wordpool_less_exclusions.txt	LTP263	ltpFR	1	5	0	CHIP	303	n/a	n/a	0	0.422607421875	0.5869140625	0	lower	amplitud.ttf
708988	WORD	wordpools/wasnorm_wordpool_less_exclusions.txt	LTP263	ltpFR	1	5	0	REBEL	1172	n/a	n/a	1	0.422607421875	0.5869140625	0	lower	amplitud.ttf
712832	WORD	wordpools/wasnorm_wordpool_less_exclusions.txt	LTP263	ltpFR	1	5	0	RELISH	1183	n/a	n/a	0	0.422607421875	0.5869140625	0	lower	amplitud.ttf
716743	WORD	wordpools/wasnorm_wordpool_less_exclusions.txt	LTP263	ltpFR	1	5	0	SIDEWALK	1303	n/a	n/a	1	0.422607421875	0.5869140625	0	lower	amplitud.ttf
720920	WORD	wordpools/wasnorm_wordpool_less_exclusions.txt	LTP263	ltpFR	1	5	0	KING	777	n/a	n/a	1	0.422607421875	0.5869140625	0	lower	amplitud.ttf
724898	WORD	wordpools/wasnorm_wordpool_less_exclusions.txt	LTP263	ltpFR	1	5	1	CAGE	218	n/a	n/a	0	0.57763671875	0.412841796875	1	upper	zerothre.ttf
729008	WORD	wordpools/wasnorm_wordpool_less_exclusions.txt	LTP263	ltpFR	1	5	1	COUGAR	387	n/a	n/a	1	0.57763671875	0.412841796875	1	upper	zerothre.ttf
732952	WORD	wordpools/wasnorm_wordpool_less_exclusions.txt	LTP263	ltpFR	1	5	1	GREASE	660	n/a	n/a	0	0.57763671875	0.412841796875	1	upper	zerothre.ttf
738844	REC_START	n/a	LTP263	ltpFR	1	5	n/a	n/a	n/a	n/a	n/a	n/a	n/a	n/a	n/a	n/a	n/a
739646	REC_WORD	wordpools/wasnorm_wordpool_less_exclusions.txt	LTP263	ltpFR	1	5	1	GREASE	660	n/a	n/a	0	n/a	n/a	n/a	n/a	n/a
740445	REC_WORD	wordpools/wasnorm_wordpool_less_exclusions.txt	LTP263	ltpFR	1	5	1	CAGE	218	n/a	n/a	0	n/a	n/a	n/a	n/a	n/a
741518	REC_WORD	wordpools/wasnorm_wordpool_less_exclusions.txt	LTP263	ltpFR	1	5	1	COUGAR	387	n/a	n/a	1	n/a	n/a	n/a	n/a	n/a
742822	REC_WORD	wordpools/wasnorm_wordpool_less_exclusions.txt	LTP263	ltpFR	1	5	1	WALRUS	1585	n/a	n/a	1	n/a	n/a	n/a	n/a	n/a
763852	REC_WORD	wordpools/wasnorm_wordpool_less_exclusions.txt	LTP263	ltpFR	1	5	0	ALLEY	15	n/a	n/a	1	n/a	n/a	n/a	n/a	n/a
796659	REC_WORD	wordpools/wasnorm_wordpool_less_exclusions.txt	LTP263	ltpFR	1	5	0	CINNAMON	310	n/a	n/a	0	n/a	n/a	n/a	n/a	n/a
817194	WORD	wordpools/wasnorm_wordpool_less_exclusions.txt	LTP263	ltpFR	1	6	0	REFEREE	1178	n/a	n/a	1	0.422607421875	0.5869140625	0	lower	amplitud.ttf
821072	WORD	wordpools/wasnorm_wordpool_less_exclusions.txt	LTP263	ltpFR	1	6	0	UNDERWEAR	1537	n/a	n/a	0	0.422607421875	0.5869140625	0	lower	amplitud.ttf
824981	WORD	wordpools/wasnorm_wordpool_less_exclusions.txt	LTP263	ltpFR	1	6	1	SHORTS	1293	n/a	n/a	0	0.57763671875	0.412841796875	1	upper	zerothre.ttf
829060	WORD	wordpools/wasnorm_wordpool_less_exclusions.txt	LTP263	ltpFR	1	6	1	CONSUMER	365	n/a	n/a	1	0.57763671875	0.412841796875	1	upper	zerothre.ttf
832903	WORD	wordpools/wasnorm_wordpool_less_exclusions.txt	LTP263	ltpFR	1	6	1	COMMANDER	354	n/a	n/a	1	0.57763671875	0.412841796875	1	upper	zerothre.ttf
836947	WORD	wordpools/wasnorm_wordpool_less_exclusions.txt	LTP263	ltpFR	1	6	1	BABY	64	n/a	n/a	1	0.57763671875	0.412841796875	1	upper	zerothre.ttf
840924	WORD	wordpools/wasnorm_wordpool_less_exclusions.txt	LTP263	ltpFR	1	6	1	SWIMMER	1420	n/a	n/a	1	0.57763671875	0.412841796875	1	upper	zerothre.ttf
844752	WORD	wordpools/wasnorm_wordpool_less_exclusions.txt	LTP263	ltpFR	1	6	1	PLAZA	1088	n/a	n/a	0	0.57763671875	0.412841796875	1	upper	zerothre.ttf
848613	WORD	wordpools/wasnorm_wordpool_less_exclusions.txt	LTP263	ltpFR	1	6	0	COACH	331	n/a	n/a	1	0.422607421875	0.5869140625	0	lower	amplitud.ttf
852657	WORD	wordpools/wasnorm_wordpool_less_exclusions.txt	LTP263	ltpFR	1	6	0	DICTATOR	462	n/a	n/a	1	0.422607421875	0.5869140625	0	lower	amplitud.ttf
856834	WORD	wordpools/wasnorm_wordpool_less_exclusions.txt	LTP263	ltpFR	1	6	0	SUPPER	1411	n/a	n/a	1	0.422607421875	0.5869140625	0	lower	amplitud.ttf
860895	WORD	wordpools/wasnorm_wordpool_less_exclusions.txt	LTP263	ltpFR	1	6	0	OATMEAL	967	n/a	n/a	0	0.422607421875	0.5869140625	0	lower	amplitud.ttf
864822	WORD	wordpools/wasnorm_wordpool_less_exclusions.txt	LTP263	ltpFR	1	6	1	SLIDE	1326	n/a	n/a	0	0.57763671875	0.412841796875	1	upper	zerothre.ttf
868816	WORD	wordpools/wasnorm_wordpool_less_exclusions.txt	LTP263	ltpFR	1	6	1	THORN	1459	n/a	n/a	0	0.57763671875	0.412841796875	1	upper	zerothre.ttf
872860	WORD	wordpools/wasnorm_wordpool_less_exclusions.txt	LTP263	ltpFR	1	6	0	DEPUTY	450	n/a	n/a	1	0.422607421875	0.5869140625	0	lower	amplitud.ttf
877071	WORD	wordpools/wasnorm_wordpool_less_exclusions.txt	LTP263	ltpFR	1	6	0	DETECTIVE	454	n/a	n/a	1	0.422607421875	0.5869140625	0	lower	amplitud.ttf
882763	REC_START	n/a	LTP263	ltpFR	1	6	n/a	n/a	n/a	n/a	n/a	n/a	n/a	n/a	n/a	n/a	n/a
883806	REC_WORD	wordpools/wasnorm_wordpool_less_exclusions.txt	LTP263	ltpFR	1	6	0	DEPUTY	450	n/a	n/a	1	n/a	n/a	n/a	n/a	n/a
884704	REC_WORD	wordpools/wasnorm_wordpool_less_exclusions.txt	LTP263	ltpFR	1	6	0	DETECTIVE	454	n/a	n/a	1	n/a	n/a	n/a	n/a	n/a
885722	REC_WORD	wordpools/wasnorm_wordpool_less_exclusions.txt	LTP263	ltpFR	1	6	1	SLIDE	1326	n/a	n/a	0	n/a	n/a	n/a	n/a	n/a
886651	REC_WORD	wordpools/wasnorm_wordpool_less_exclusions.txt	LTP263	ltpFR	1	6	1	THORN	1459	n/a	n/a	0	n/a	n/a	n/a	n/a	n/a
888202	REC_WORD	wordpools/wasnorm_wordpool_less_exclusions.txt	LTP263	ltpFR	1	6	1	BABY	64	n/a	n/a	1	n/a	n/a	n/a	n/a	n/a
889167	REC_WORD	wordpools/wasnorm_wordpool_less_exclusions.txt	LTP263	ltpFR	1	6	0	REFEREE	1178	n/a	n/a	1	n/a	n/a	n/a	n/a	n/a
890180	REC_WORD	wordpools/wasnorm_wordpool_less_exclusions.txt	LTP263	ltpFR	1	6	0	UNDERWEAR	1537	n/a	n/a	0	n/a	n/a	n/a	n/a	n/a
891057	REC_WORD	wordpools/wasnorm_wordpool_less_exclusions.txt	LTP263	ltpFR	1	6	1	SHORTS	1293	n/a	n/a	0	n/a	n/a	n/a	n/a	n/a
893555	REC_WORD	wordpools/wasnorm_wordpool_less_exclusions.txt	LTP263	ltpFR	1	6	1	CONSUMER	365	n/a	n/a	1	n/a	n/a	n/a	n/a	n/a
896787	REC_WORD	wordpools/wasnorm_wordpool_less_exclusions.txt	LTP263	ltpFR	1	6	1	PLAZA	1088	n/a	n/a	0	n/a	n/a	n/a	n/a	n/a
898460	REC_WORD	wordpools/wasnorm_wordpool_less_exclusions.txt	LTP263	ltpFR	1	6	0	DETECTIVE	454	n/a	n/a	1	n/a	n/a	n/a	n/a	n/a
902815	REC_WORD	wordpools/wasnorm_wordpool_less_exclusions.txt	LTP263	ltpFR	1	6	1	COMMANDER	354	n/a	n/a	1	n/a	n/a	n/a	n/a	n/a
924538	REC_WORD	wordpools/wasnorm_wordpool_less_exclusions.txt	LTP263	ltpFR	1	6	0	COACH	331	n/a	n/a	1	n/a	n/a	n/a	n/a	n/a
961744	WORD	wordpools/wasnorm_wordpool_less_exclusions.txt	LTP263	ltpFR	1	7	-1	KNUCKLE	789	n/a	n/a	-1	1.0	1.0	1	upper	Verdana.ttf
965938	WORD	wordpools/wasnorm_wordpool_less_exclusions.txt	LTP263	ltpFR	1	7	-1	ELM	527	n/a	n/a	-1	1.0	1.0	1	upper	Verdana.ttf
969882	WORD	wordpools/wasnorm_wordpool_less_exclusions.txt	LTP263	ltpFR	1	7	-1	FIG	563	n/a	n/a	-1	1.0	1.0	1	upper	Verdana.ttf
973926	WORD	wordpools/wasnorm_wordpool_less_exclusions.txt	LTP263	ltpFR	1	7	-1	CATCHER	258	n/a	n/a	-1	1.0	1.0	1	upper	Verdana.ttf
977953	WORD	wordpools/wasnorm_wordpool_less_exclusions.txt	LTP263	ltpFR	1	7	-1	RICE	1190	n/a	n/a	-1	1.0	1.0	1	upper	Verdana.ttf
981980	WORD	wordpools/wasnorm_wordpool_less_exclusions.txt	LTP263	ltpFR	1	7	-1	SHARK	1275	n/a	n/a	-1	1.0	1.0	1	upper	Verdana.ttf
985825	WORD	wordpools/wasnorm_wordpool_less_exclusions.txt	LTP263	ltpFR	1	7	-1	SCALLOP	1242	n/a	n/a	-1	1.0	1.0	1	upper	Verdana.ttf
989719	WORD	wordpools/wasnorm_wordpool_less_exclusions.txt	LTP263	ltpFR	1	7	-1	BASEBALL	93	n/a	n/a	-1	1.0	1.0	1	upper	Verdana.ttf
993563	WORD	wordpools/wasnorm_wordpool_less_exclusions.txt	LTP263	ltpFR	1	7	-1	VINE	1568	n/a	n/a	-1	1.0	1.0	1	upper	Verdana.ttf
997442	WORD	wordpools/wasnorm_wordpool_less_exclusions.txt	LTP263	ltpFR	1	7	-1	WRIST	1626	n/a	n/a	-1	1.0	1.0	1	upper	Verdana.ttf
1001601	WORD	wordpools/wasnorm_wordpool_less_exclusions.txt	LTP263	ltpFR	1	7	-1	BEET	115	n/a	n/a	-1	1.0	1.0	1	upper	Verdana.ttf
1005762	WORD	wordpools/wasnorm_wordpool_less_exclusions.txt	LTP263	ltpFR	1	7	-1	FACE	547	n/a	n/a	-1	1.0	1.0	1	upper	Verdana.ttf
1009672	WORD	wordpools/wasnorm_wordpool_less_exclusions.txt	LTP263	ltpFR	1	7	-1	VENT	1556	n/a	n/a	-1	1.0	1.0	1	upper	Verdana.ttf
1013883	WORD	wordpools/wasnorm_wordpool_less_exclusions.txt	LTP263	ltpFR	1	7	-1	TREE	1502	n/a	n/a	-1	1.0	1.0	1	upper	Verdana.ttf
1017927	WORD	wordpools/wasnorm_wordpool_less_exclusions.txt	LTP263	ltpFR	1	7	-1	MECHANIC	884	n/a	n/a	-1	1.0	1.0	1	upper	Verdana.ttf
1021987	WORD	wordpools/wasnorm_wordpool_less_exclusions.txt	LTP263	ltpFR	1	7	-1	SODA	1341	n/a	n/a	-1	1.0	1.0	1	upper	Verdana.ttf
1028080	REC_START	n/a	LTP263	ltpFR	1	7	n/a	n/a	n/a	n/a	n/a	n/a	n/a	n/a	n/a	n/a	n/a
1028701	REC_WORD	wordpools/wasnorm_wordpool_less_exclusions.txt	LTP263	ltpFR	1	7	-1	SODA	1341	n/a	n/a	-1	n/a	n/a	n/a	n/a	n/a
1029711	REC_WORD	wordpools/wasnorm_wordpool_less_exclusions.txt	LTP263	ltpFR	1	7	-1	MECHANIC	884	n/a	n/a	-1	n/a	n/a	n/a	n/a	n/a
1030837	REC_WORD	wordpools/wasnorm_wordpool_less_exclusions.txt	LTP263	ltpFR	1	7	-1	CATCHER	258	n/a	n/a	-1	n/a	n/a	n/a	n/a	n/a
1032270	REC_WORD	wordpools/wasnorm_wordpool_less_exclusions.txt	LTP263	ltpFR	1	7	-1	KNUCKLE	789	n/a	n/a	-1	n/a	n/a	n/a	n/a	n/a
1034786	REC_WORD	wordpools/wasnorm_wordpool_less_exclusions.txt	LTP263	ltpFR	1	7	-1	TREE	1502	n/a	n/a	-1	n/a	n/a	n/a	n/a	n/a
1035745	REC_WORD	wordpools/wasnorm_wordpool_less_exclusions.txt	LTP263	ltpFR	1	7	-1	ELM	527	n/a	n/a	-1	n/a	n/a	n/a	n/a	n/a
1036586	REC_WORD	wordpools/wasnorm_wordpool_less_exclusions.txt	LTP263	ltpFR	1	7	-1	SHARK	1275	n/a	n/a	-1	n/a	n/a	n/a	n/a	n/a
1038061	REC_WORD	wordpools/wasnorm_wordpool_less_exclusions.txt	LTP263	ltpFR	1	7	-1	SCALLOP	1242	n/a	n/a	-1	n/a	n/a	n/a	n/a	n/a
1039250	REC_WORD	wordpools/wasnorm_wordpool_less_exclusions.txt	LTP263	ltpFR	1	7	-1	VINE	1568	n/a	n/a	-1	n/a	n/a	n/a	n/a	n/a
1040217	REC_WORD	wordpools/wasnorm_wordpool_less_exclusions.txt	LTP263	ltpFR	1	7	-1	FIG	563	n/a	n/a	-1	n/a	n/a	n/a	n/a	n/a
1041348	REC_WORD	wordpools/wasnorm_wordpool_less_exclusions.txt	LTP263	ltpFR	1	7	-1	RICE	1190	n/a	n/a	-1	n/a	n/a	n/a	n/a	n/a
1042381	REC_WORD	wordpools/wasnorm_wordpool_less_exclusions.txt	LTP263	ltpFR	1	7	-1	BEET	115	n/a	n/a	-1	n/a	n/a	n/a	n/a	n/a
1074395	REC_WORD	wordpools/wasnorm_wordpool_less_exclusions.txt	LTP263	ltpFR	1	7	-1	FACE	547	n/a	n/a	-1	n/a	n/a	n/a	n/a	n/a
1107228	WORD	wordpools/wasnorm_wordpool_less_exclusions.txt	LTP263	ltpFR	1	8	-1	SUBURB	1399	n/a	n/a	-1	1.0	1.0	1	upper	Verdana.ttf
1111238	WORD	wordpools/wasnorm_wordpool_less_exclusions.txt	LTP263	ltpFR	1	8	-1	KITCHEN	778	n/a	n/a	-1	1.0	1.0	1	upper	Verdana.ttf
1115133	WORD	wordpools/wasnorm_wordpool_less_exclusions.txt	LTP263	ltpFR	1	8	-1	ENVELOPE	537	n/a	n/a	-1	1.0	1.0	1	upper	Verdana.ttf
1119210	WORD	wordpools/wasnorm_wordpool_less_exclusions.txt	LTP263	ltpFR	1	8	-1	SHELTER	1282	n/a	n/a	-1	1.0	1.0	1	upper	Verdana.ttf
1123220	WORD	wordpools/wasnorm_wordpool_less_exclusions.txt	LTP263	ltpFR	1	8	-1	BUG	187	n/a	n/a	-1	1.0	1.0	1	upper	Verdana.ttf
1127181	WORD	wordpools/wasnorm_wordpool_less_exclusions.txt	LTP263	ltpFR	1	8	-1	CAB	209	n/a	n/a	-1	1.0	1.0	1	upper	Verdana.ttf
1131375	WORD	wordpools/wasnorm_wordpool_less_exclusions.txt	LTP263	ltpFR	1	8	-1	BATHROOM	99	n/a	n/a	-1	1.0	1.0	1	upper	Verdana.ttf
1135435	WORD	wordpools/wasnorm_wordpool_less_exclusions.txt	LTP263	ltpFR	1	8	-1	COMPANION	357	n/a	n/a	-1	1.0	1.0	1	upper	Verdana.ttf
1139528	WORD	wordpools/wasnorm_wordpool_less_exclusions.txt	LTP263	ltpFR	1	8	-1	NERVE	944	n/a	n/a	-1	1.0	1.0	1	upper	Verdana.ttf
1143639	WORD	wordpools/wasnorm_wordpool_less_exclusions.txt	LTP263	ltpFR	1	8	-1	BLUEPRINT	142	n/a	n/a	-1	1.0	1.0	1	upper	Verdana.ttf
1147716	WORD	wordpools/wasnorm_wordpool_less_exclusions.txt	LTP263	ltpFR	1	8	-1	LODGE	839	n/a	n/a	-1	1.0	1.0	1	upper	Verdana.ttf
1151577	WORD	wordpools/wasnorm_wordpool_less_exclusions.txt	LTP263	ltpFR	1	8	-1	DOCUMENT	479	n/a	n/a	-1	1.0	1.0	1	upper	Verdana.ttf
1155555	WORD	wordpools/wasnorm_wordpool_less_exclusions.txt	LTP263	ltpFR	1	8	-1	FOLDER	588	n/a	n/a	-1	1.0	1.0	1	upper	Verdana.ttf
1159682	WORD	wordpools/wasnorm_wordpool_less_exclusions.txt	LTP263	ltpFR	1	8	-1	LINEN	825	n/a	n/a	-1	1.0	1.0	1	upper	Verdana.ttf
1163875	WORD	wordpools/wasnorm_wordpool_less_exclusions.txt	LTP263	ltpFR	1	8	-1	PILLOW	1069	n/a	n/a	-1	1.0	1.0	1	upper	Verdana.ttf
1167936	WORD	wordpools/wasnorm_wordpool_less_exclusions.txt	LTP263	ltpFR	1	8	-1	BEETLE	116	n/a	n/a	-1	1.0	1.0	1	upper	Verdana.ttf
1173778	REC_START	n/a	LTP263	ltpFR	1	8	n/a	n/a	n/a	n/a	n/a	n/a	n/a	n/a	n/a	n/a	n/a
1175424	REC_WORD	wordpools/wasnorm_wordpool_less_exclusions.txt	LTP263	ltpFR	1	8	-1	BEETLE	116	n/a	n/a	-1	n/a	n/a	n/a	n/a	n/a
1176377	REC_WORD	wordpools/wasnorm_wordpool_less_exclusions.txt	LTP263	ltpFR	1	8	-1	BUG	187	n/a	n/a	-1	n/a	n/a	n/a	n/a	n/a
1177407	REC_WORD	wordpools/wasnorm_wordpool_less_exclusions.txt	LTP263	ltpFR	1	8	-1	ENVELOPE	537	n/a	n/a	-1	n/a	n/a	n/a	n/a	n/a
1178528	REC_WORD	wordpools/wasnorm_wordpool_less_exclusions.txt	LTP263	ltpFR	1	8	-1	DOCUMENT	479	n/a	n/a	-1	n/a	n/a	n/a	n/a	n/a
1180430	REC_WORD	wordpools/wasnorm_wordpool_less_exclusions.txt	LTP263	ltpFR	1	8	-1	FOLDER	588	n/a	n/a	-1	n/a	n/a	n/a	n/a	n/a
1181853	REC_WORD	wordpools/wasnorm_wordpool_less_exclusions.txt	LTP263	ltpFR	1	8	n/a	FILE	-1	n/a	n/a	n/a	n/a	n/a	n/a	n/a	n/a
1183553	REC_WORD	wordpools/wasnorm_wordpool_less_exclusions.txt	LTP263	ltpFR	1	8	-1	BLUEPRINT	142	n/a	n/a	-1	n/a	n/a	n/a	n/a	n/a
1185856	REC_WORD	wordpools/wasnorm_wordpool_less_exclusions.txt	LTP263	ltpFR	1	8	-1	COMPANION	357	n/a	n/a	-1	n/a	n/a	n/a	n/a	n/a
1187082	REC_WORD	wordpools/wasnorm_wordpool_less_exclusions.txt	LTP263	ltpFR	1	8	-1	KITCHEN	778	n/a	n/a	-1	n/a	n/a	n/a	n/a	n/a
1188228	REC_WORD	wordpools/wasnorm_wordpool_less_exclusions.txt	LTP263	ltpFR	1	8	-1	SUBURB	1399	n/a	n/a	-1	n/a	n/a	n/a	n/a	n/a
1189534	REC_WORD	wordpools/wasnorm_wordpool_less_exclusions.txt	LTP263	ltpFR	1	8	-1	BATHROOM	99	n/a	n/a	-1	n/a	n/a	n/a	n/a	n/a
1190826	REC_WORD	wordpools/wasnorm_wordpool_less_exclusions.txt	LTP263	ltpFR	1	8	-1	NERVE	944	n/a	n/a	-1	n/a	n/a	n/a	n/a	n/a
1192112	REC_WORD	wordpools/wasnorm_wordpool_less_exclusions.txt	LTP263	ltpFR	1	8	-1	CAB	209	n/a	n/a	-1	n/a	n/a	n/a	n/a	n/a
1193943	REC_WORD	wordpools/wasnorm_wordpool_less_exclusions.txt	LTP263	ltpFR	1	8	-1	LODGE	839	n/a	n/a	-1	n/a	n/a	n/a	n/a	n/a
1195205	REC_WORD	wordpools/wasnorm_wordpool_less_exclusions.txt	LTP263	ltpFR	1	8	-1	SHELTER	1282	n/a	n/a	-1	n/a	n/a	n/a	n/a	n/a
1198532	REC_WORD	wordpools/wasnorm_wordpool_less_exclusions.txt	LTP263	ltpFR	1	8	-1	LINEN	825	n/a	n/a	-1	n/a	n/a	n/a	n/a	n/a
1199644	REC_WORD	wordpools/wasnorm_wordpool_less_exclusions.txt	LTP263	ltpFR	1	8	-1	PILLOW	1069	n/a	n/a	-1	n/a	n/a	n/a	n/a	n/a
1254308	WORD	wordpools/wasnorm_wordpool_less_exclusions.txt	LTP263	ltpFR	1	9	1	PORK	1108	n/a	n/a	1	0.57763671875	0.412841796875	1	upper	zerothre.ttf
1258485	WORD	wordpools/wasnorm_wordpool_less_exclusions.txt	LTP263	ltpFR	1	9	1	SERVER	1272	n/a	n/a	1	0.57763671875	0.412841796875	1	upper	zerothre.ttf
1262496	WORD	wordpools/wasnorm_wordpool_less_exclusions.txt	LTP263	ltpFR	1	9	1	BEAVER	109	n/a	n/a	1	0.57763671875	0.412841796875	1	upper	zerothre.ttf
1266672	WORD	wordpools/wasnorm_wordpool_less_exclusions.txt	LTP263	ltpFR	1	9	1	LUNCH	849	n/a	n/a	1	0.57763671875	0.412841796875	1	upper	zerothre.ttf
1270832	WORD	wordpools/wasnorm_wordpool_less_exclusions.txt	LTP263	ltpFR	1	9	1	EARRING	514	n/a	n/a	1	0.57763671875	0.412841796875	1	upper	zerothre.ttf
1275009	WORD	wordpools/wasnorm_wordpool_less_exclusions.txt	LTP263	ltpFR	1	9	1	BRACELET	163	n/a	n/a	0	0.57763671875	0.412841796875	1	upper	zerothre.ttf
1278854	WORD	wordpools/wasnorm_wordpool_less_exclusions.txt	LTP263	ltpFR	1	9	1	MEAL	882	n/a	n/a	1	0.57763671875	0.412841796875	1	upper	zerothre.ttf
1282914	WORD	wordpools/wasnorm_wordpool_less_exclusions.txt	LTP263	ltpFR	1	9	1	SIGNATURE	1306	n/a	n/a	0	0.57763671875	0.412841796875	1	upper	zerothre.ttf
1286842	WORD	wordpools/wasnorm_wordpool_less_exclusions.txt	LTP263	ltpFR	1	9	1	LEOPARD	812	n/a	n/a	1	0.57763671875	0.412841796875	1	upper	zerothre.ttf
1290819	WORD	wordpools/wasnorm_wordpool_less_exclusions.txt	LTP263	ltpFR	1	9	1	FARMER	553	n/a	n/a	1	0.57763671875	0.412841796875	1	upper	zerothre.ttf
1294747	WORD	wordpools/wasnorm_wordpool_less_exclusions.txt	LTP263	ltpFR	1	9	1	VAULT	1550	n/a	n/a	0	0.57763671875	0.412841796875	1	upper	zerothre.ttf
1298924	WORD	wordpools/wasnorm_wordpool_less_exclusions.txt	LTP263	ltpFR	1	9	1	KANGAROO	768	n/a	n/a	1	0.57763671875	0.412841796875	1	upper	zerothre.ttf
1302984	WORD	wordpools/wasnorm_wordpool_less_exclusions.txt	LTP263	ltpFR	1	9	1	PATROL	1027	n/a	n/a	1	0.57763671875	0.412841796875	1	upper	zerothre.ttf
1306829	WORD	wordpools/wasnorm_wordpool_less_exclusions.txt	LTP263	ltpFR	1	9	1	OFFICER	973	n/a	n/a	1	0.57763671875	0.412841796875	1	upper	zerothre.ttf
1310789	WORD	wordpools/wasnorm_wordpool_less_exclusions.txt	LTP263	ltpFR	1	9	1	TIMBER	1469	n/a	n/a	0	0.57763671875	0.412841796875	1	upper	zerothre.ttf
1314717	WORD	wordpools/wasnorm_wordpool_less_exclusions.txt	LTP263	ltpFR	1	9	1	RABBIT	1152	n/a	n/a	1	0.57763671875	0.412841796875	1	upper	zerothre.ttf
1320659	REC_START	n/a	LTP263	ltpFR	1	9	n/a	n/a	n/a	n/a	n/a	n/a	n/a	n/a	n/a	n/a	n/a
1322138	REC_WORD	wordpools/wasnorm_wordpool_less_exclusions.txt	LTP263	ltpFR	1	9	1	RABBIT	1152	n/a	n/a	1	n/a	n/a	n/a	n/a	n/a
1323052	REC_WORD	wordpools/wasnorm_wordpool_less_exclusions.txt	LTP263	ltpFR	1	9	1	PATROL	1027	n/a	n/a	1	n/a	n/a	n/a	n/a	n/a
1323977	REC_WORD	wordpools/wasnorm_wordpool_less_exclusions.txt	LTP263	ltpFR	1	9	1	FARMER	553	n/a	n/a	1	n/a	n/a	n/a	n/a	n/a
1325083	REC_WORD	wordpools/wasnorm_wordpool_less_exclusions.txt	LTP263	ltpFR	1	9	1	LEOPARD	812	n/a	n/a	1	n/a	n/a	n/a	n/a	n/a
1325938	REC_WORD	wordpools/wasnorm_wordpool_less_exclusions.txt	LTP263	ltpFR	1	9	1	SERVER	1272	n/a	n/a	1	n/a	n/a	n/a	n/a	n/a
1327640	REC_WORD	wordpools/wasnorm_wordpool_less_exclusions.txt	LTP263	ltpFR	1	9	1	EARRING	514	n/a	n/a	1	n/a	n/a	n/a	n/a	n/a
1328721	REC_WORD	wordpools/wasnorm_wordpool_less_exclusions.txt	LTP263	ltpFR	1	9	1	BRACELET	163	n/a	n/a	0	n/a	n/a	n/a	n/a	n/a
1329861	REC_WORD	wordpools/wasnorm_wordpool_less_exclusions.txt	LTP263	ltpFR	1	9	1	PORK	1108	n/a	n/a	1	n/a	n/a	n/a	n/a	n/a
1331752	REC_WORD	wordpools/wasnorm_wordpool_less_exclusions.txt	LTP263	ltpFR	1	9	1	KANGAROO	768	n/a	n/a	1	n/a	n/a	n/a	n/a	n/a
1335983	REC_WORD	wordpools/wasnorm_wordpool_less_exclusions.txt	LTP263	ltpFR	1	9	1	BEAVER	109	n/a	n/a	1	n/a	n/a	n/a	n/a	n/a
1341073	REC_WORD	wordpools/wasnorm_wordpool_less_exclusions.txt	LTP263	ltpFR	1	9	1	SIGNATURE	1306	n/a	n/a	0	n/a	n/a	n/a	n/a	n/a
1342928	REC_WORD	wordpools/wasnorm_wordpool_less_exclusions.txt	LTP263	ltpFR	1	9	1	VAULT	1550	n/a	n/a	0	n/a	n/a	n/a	n/a	n/a
1350024	REC_WORD	wordpools/wasnorm_wordpool_less_exclusions.txt	LTP263	ltpFR	1	9	1	PATROL	1027	n/a	n/a	1	n/a	n/a	n/a	n/a	n/a
1402104	WORD	wordpools/wasnorm_wordpool_less_exclusions.txt	LTP263	ltpFR	1	10	-1	SUPERMARKET	1409	n/a	n/a	-1	1.0	1.0	1	upper	Verdana.ttf
1406148	WORD	wordpools/wasnorm_wordpool_less_exclusions.txt	LTP263	ltpFR	1	10	-1	GROCERIES	663	n/a	n/a	-1	1.0	1.0	1	upper	Verdana.ttf
1409991	WORD	wordpools/wasnorm_wordpool_less_exclusions.txt	LTP263	ltpFR	1	10	-1	TAXI	1438	n/a	n/a	-1	1.0	1.0	1	upper	Verdana.ttf
1413835	WORD	wordpools/wasnorm_wordpool_less_exclusions.txt	LTP263	ltpFR	1	10	-1	RUST	1219	n/a	n/a	-1	1.0	1.0	1	upper	Verdana.ttf
1417913	WORD	wordpools/wasnorm_wordpool_less_exclusions.txt	LTP263	ltpFR	1	10	-1	RATTLE	1170	n/a	n/a	-1	1.0	1.0	1	upper	Verdana.ttf
1421873	WORD	wordpools/wasnorm_wordpool_less_exclusions.txt	LTP263	ltpFR	1	10	-1	BRUNETTE	181	n/a	n/a	-1	1.0	1.0	1	upper	Verdana.ttf
1425934	WORD	wordpools/wasnorm_wordpool_less_exclusions.txt	LTP263	ltpFR	1	10	-1	INFANT	737	n/a	n/a	-1	1.0	1.0	1	upper	Verdana.ttf
1429878	WORD	wordpools/wasnorm_wordpool_less_exclusions.txt	LTP263	ltpFR	1	10	-1	LETTUCE	814	n/a	n/a	-1	1.0	1.0	1	upper	Verdana.ttf
1434056	WORD	wordpools/wasnorm_wordpool_less_exclusions.txt	LTP263	ltpFR	1	10	-1	CAR	241	n/a	n/a	-1	1.0	1.0	1	upper	Verdana.ttf
1438200	WORD	wordpools/wasnorm_wordpool_less_exclusions.txt	LTP263	ltpFR	1	10	-1	DETERGENT	455	n/a	n/a	-1	1.0	1.0	1	upper	Verdana.ttf
1442061	WORD	wordpools/wasnorm_wordpool_less_exclusions.txt	LTP263	ltpFR	1	10	-1	ESSAY	540	n/a	n/a	-1	1.0	1.0	1	upper	Verdana.ttf
1446105	WORD	wordpools/wasnorm_wordpool_less_exclusions.txt	LTP263	ltpFR	1	10	-1	GARAGE	621	n/a	n/a	-1	1.0	1.0	1	upper	Verdana.ttf
1450282	WORD	wordpools/wasnorm_wordpool_less_exclusions.txt	LTP263	ltpFR	1	10	-1	TOWEL	1489	n/a	n/a	-1	1.0	1.0	1	upper	Verdana.ttf
1454409	WORD	wordpools/wasnorm_wordpool_less_exclusions.txt	LTP263	ltpFR	1	10	-1	MAILBOX	857	n/a	n/a	-1	1.0	1.0	1	upper	Verdana.ttf
1458287	WORD	wordpools/wasnorm_wordpool_less_exclusions.txt	LTP263	ltpFR	1	10	-1	JUNGLE	764	n/a	n/a	-1	1.0	1.0	1	upper	Verdana.ttf
1462364	WORD	wordpools/wasnorm_wordpool_less_exclusions.txt	LTP263	ltpFR	1	10	-1	BARREL	91	n/a	n/a	-1	1.0	1.0	1	upper	Verdana.ttf
1468156	REC_START	n/a	LTP263	ltpFR	1	10	n/a	n/a	n/a	n/a	n/a	n/a	n/a	n/a	n/a	n/a	n/a
1469612	REC_WORD	wordpools/wasnorm_wordpool_less_exclusions.txt	LTP263	ltpFR	1	10	-1	JUNGLE	764	n/a	n/a	-1	n/a	n/a	n/a	n/a	n/a
1470643	REC_WORD	wordpools/wasnorm_wordpool_less_exclusions.txt	LTP263	ltpFR	1	10	-1	BARREL	91	n/a	n/a	-1	n/a	n/a	n/a	n/a	n/a
1471418	REC_WORD	wordpools/wasnorm_wordpool_less_exclusions.txt	LTP263	ltpFR	1	10	-1	TAXI	1438	n/a	n/a	-1	n/a	n/a	n/a	n/a	n/a
1472435	REC_WORD	wordpools/wasnorm_wordpool_less_exclusions.txt	LTP263	ltpFR	1	10	-1	CAR	241	n/a	n/a	-1	n/a	n/a	n/a	n/a	n/a
1473527	REC_WORD	wordpools/wasnorm_wordpool_less_exclusions.txt	LTP263	ltpFR	1	10	-1	BRUNETTE	181	n/a	n/a	-1	n/a	n/a	n/a	n/a	n/a
1475614	REC_WORD	wordpools/wasnorm_wordpool_less_exclusions.txt	LTP263	ltpFR	1	10	1	BABY	64	n/a	n/a	1	n/a	n/a	n/a	n/a	n/a
1477200	REC_WORD	wordpools/wasnorm_wordpool_less_exclusions.txt	LTP263	ltpFR	1	10	-1	INFANT	737	n/a	n/a	-1	n/a	n/a	n/a	n/a	n/a
1480033	REC_WORD	wordpools/wasnorm_wordpool_less_exclusions.txt	LTP263	ltpFR	1	10	-1	SUPERMARKET	1409	n/a	n/a	-1	n/a	n/a	n/a	n/a	n/a
1481113	REC_WORD	wordpools/wasnorm_wordpool_less_exclusions.txt	LTP263	ltpFR	1	10	-1	GROCERIES	663	n/a	n/a	-1	n/a	n/a	n/a	n/a	n/a
1481992	REC_WORD	wordpools/wasnorm_wordpool_less_exclusions.txt	LTP263	ltpFR	1	10	-1	DETERGENT	455	n/a	n/a	-1	n/a	n/a	n/a	n/a	n/a
1483504	REC_WORD	wordpools/wasnorm_wordpool_less_exclusions.txt	LTP263	ltpFR	1	10	-1	ESSAY	540	n/a	n/a	-1	n/a	n/a	n/a	n/a	n/a
1485260	REC_WORD	wordpools/wasnorm_wordpool_less_exclusions.txt	LTP263	ltpFR	1	10	n/a	GARBAGE	622	n/a	n/a	n/a	n/a	n/a	n/a	n/a	n/a
1488417	REC_WORD	wordpools/wasnorm_wordpool_less_exclusions.txt	LTP263	ltpFR	1	10	-1	RUST	1219	n/a	n/a	-1	n/a	n/a	n/a	n/a	n/a
1489412	REC_WORD	wordpools/wasnorm_wordpool_less_exclusions.txt	LTP263	ltpFR	1	10	-1	RATTLE	1170	n/a	n/a	-1	n/a	n/a	n/a	n/a	n/a
1490632	REC_WORD	wordpools/wasnorm_wordpool_less_exclusions.txt	LTP263	ltpFR	1	10	-1	JUNGLE	764	n/a	n/a	-1	n/a	n/a	n/a	n/a	n/a
1491781	REC_WORD	wordpools/wasnorm_wordpool_less_exclusions.txt	LTP263	ltpFR	1	10	-1	MAILBOX	857	n/a	n/a	-1	n/a	n/a	n/a	n/a	n/a
1498001	REC_WORD	wordpools/wasnorm_wordpool_less_exclusions.txt	LTP263	ltpFR	1	10	-1	LETTUCE	814	n/a	n/a	-1	n/a	n/a	n/a	n/a	n/a
1513267	REC_WORD	wordpools/wasnorm_wordpool_less_exclusions.txt	LTP263	ltpFR	1	10	-1	BRUNETTE	181	n/a	n/a	-1	n/a	n/a	n/a	n/a	n/a
1546521	WORD	wordpools/wasnorm_wordpool_less_exclusions.txt	LTP263	ltpFR	1	11	0	RIB	1188	n/a	n/a	0	0.422607421875	0.5869140625	0	lower	amplitud.ttf
1550664	WORD	wordpools/wasnorm_wordpool_less_exclusions.txt	LTP263	ltpFR	1	11	0	SPACE	1345	n/a	n/a	1	0.422607421875	0.5869140625	0	lower	amplitud.ttf
1554841	WORD	wordpools/wasnorm_wordpool_less_exclusions.txt	LTP263	ltpFR	1	11	0	PAVEMENT	1028	n/a	n/a	1	0.422607421875	0.5869140625	0	lower	amplitud.ttf
1558669	WORD	wordpools/wasnorm_wordpool_less_exclusions.txt	LTP263	ltpFR	1	11	1	CABINET	212	n/a	n/a	0	0.57763671875	0.412841796875	1	upper	zerothre.ttf
1562630	WORD	wordpools/wasnorm_wordpool_less_exclusions.txt	LTP263	ltpFR	1	11	1	CHISEL	305	n/a	n/a	0	0.57763671875	0.412841796875	1	upper	zerothre.ttf
1566607	WORD	wordpools/wasnorm_wordpool_less_exclusions.txt	LTP263	ltpFR	1	11	1	CALF	222	n/a	n/a	1	0.57763671875	0.412841796875	1	upper	zerothre.ttf
1570768	WORD	wordpools/wasnorm_wordpool_less_exclusions.txt	LTP263	ltpFR	1	11	0	BEEF	113	n/a	n/a	0	0.422607421875	0.5869140625	0	lower	amplitud.ttf
1574828	WORD	wordpools/wasnorm_wordpool_less_exclusions.txt	LTP263	ltpFR	1	11	0	DANDRUFF	439	n/a	n/a	0	0.422607421875	0.5869140625	0	lower	amplitud.ttf
1578706	WORD	wordpools/wasnorm_wordpool_less_exclusions.txt	LTP263	ltpFR	1	11	0	VESSEL	1558	n/a	n/a	0	0.422607421875	0.5869140625	0	lower	amplitud.ttf
1582866	WORD	wordpools/wasnorm_wordpool_less_exclusions.txt	LTP263	ltpFR	1	11	0	INSECT	740	n/a	n/a	0	0.422607421875	0.5869140625	0	lower	amplitud.ttf
1586761	WORD	wordpools/wasnorm_wordpool_less_exclusions.txt	LTP263	ltpFR	1	11	0	SKIN	1318	n/a	n/a	0	0.422607421875	0.5869140625	0	lower	amplitud.ttf
1590888	WORD	wordpools/wasnorm_wordpool_less_exclusions.txt	LTP263	ltpFR	1	11	1	DINNER	468	n/a	n/a	0	0.57763671875	0.412841796875	1	upper	zerothre.ttf
1594798	WORD	wordpools/wasnorm_wordpool_less_exclusions.txt	LTP263	ltpFR	1	11	1	ANT	25	n/a	n/a	1	0.57763671875	0.412841796875	1	upper	zerothre.ttf
1598909	WORD	wordpools/wasnorm_wordpool_less_exclusions.txt	LTP263	ltpFR	1	11	1	FLEA	577	n/a	n/a	1	0.57763671875	0.412841796875	1	upper	zerothre.ttf
1602787	WORD	wordpools/wasnorm_wordpool_less_exclusions.txt	LTP263	ltpFR	1	11	1	NUN	962	n/a	n/a	1	0.57763671875	0.412841796875	1	upper	zerothre.ttf
1606964	WORD	wordpools/wasnorm_wordpool_less_exclusions.txt	LTP263	ltpFR	1	11	1	MONK	910	n/a	n/a	1	0.57763671875	0.412841796875	1	upper	zerothre.ttf
1612905	REC_START	n/a	LTP263	ltpFR	1	11	n/a	n/a	n/a	n/a	n/a	n/a	n/a	n/a	n/a	n/a	n/a
1614203	REC_WORD	wordpools/wasnorm_wordpool_less_exclusions.txt	LTP263	ltpFR	1	11	1	NUN	962	n/a	n/a	1	n/a	n/a	n/a	n/a	n/a
1615218	REC_WORD	wordpools/wasnorm_wordpool_less_exclusions.txt	LTP263	ltpFR	1	11	1	MONK	910	n/a	n/a	1	n/a	n/a	n/a	n/a	n/a
1616078	REC_WORD	wordpools/wasnorm_wordpool_less_exclusions.txt	LTP263	ltpFR	1	11	1	FLEA	577	n/a	n/a	1	n/a	n/a	n/a	n/a	n/a
1617322	REC_WORD	wordpools/wasnorm_wordpool_less_exclusions.txt	LTP263	ltpFR	1	11	1	ANT	25	n/a	n/a	1	n/a	n/a	n/a	n/a	n/a
1618451	REC_WORD	wordpools/wasnorm_wordpool_less_exclusions.txt	LTP263	ltpFR	1	11	0	PAVEMENT	1028	n/a	n/a	1	n/a	n/a	n/a	n/a	n/a
1619805	REC_WORD	wordpools/wasnorm_wordpool_less_exclusions.txt	LTP263	ltpFR	1	11	0	RIB	1188	n/a	n/a	0	n/a	n/a	n/a	n/a	n/a
1620697	REC_WORD	wordpools/wasnorm_wordpool_less_exclusions.txt	LTP263	ltpFR	1	11	0	SPACE	1345	n/a	n/a	1	n/a	n/a	n/a	n/a	n/a
1622015	REC_WORD	wordpools/wasnorm_wordpool_less_exclusions.txt	LTP263	ltpFR	1	11	1	CABINET	212	n/a	n/a	0	n/a	n/a	n/a	n/a	n/a
1623191	REC_WORD	wordpools/wasnorm_wordpool_less_exclusions.txt	LTP263	ltpFR	1	11	1	CHISEL	305	n/a	n/a	0	n/a	n/a	n/a	n/a	n/a
1624398	REC_WORD	wordpools/wasnorm_wordpool_less_exclusions.txt	LTP263	ltpFR	1	11	0	BEEF	113	n/a	n/a	0	n/a	n/a	n/a	n/a	n/a
1625492	REC_WORD	wordpools/wasnorm_wordpool_less_exclusions.txt	LTP263	ltpFR	1	11	0	INSECT	740	n/a	n/a	0	n/a	n/a	n/a	n/a	n/a
1627476	REC_WORD	wordpools/wasnorm_wordpool_less_exclusions.txt	LTP263	ltpFR	1	11	0	DANDRUFF	439	n/a	n/a	0	n/a	n/a	n/a	n/a	n/a
1692487	WORD	wordpools/wasnorm_wordpool_less_exclusions.txt	LTP263	ltpFR	1	12	1	BUS	201	n/a	n/a	0	0.57763671875	0.412841796875	1	upper	zerothre.ttf
1696364	WORD	wordpools/wasnorm_wordpool_less_exclusions.txt	LTP263	ltpFR	1	12	1	EAGLE	512	n/a	n/a	1	0.57763671875	0.412841796875	1	upper	zerothre.ttf
1700375	WORD	wordpools/wasnorm_wordpool_less_exclusions.txt	LTP263	ltpFR	1	12	1	CONTRACTOR	369	n/a	n/a	1	0.57763671875	0.412841796875	1	upper	zerothre.ttf
1704236	WORD	wordpools/wasnorm_wordpool_less_exclusions.txt	LTP263	ltpFR	1	12	1	FATHER	554	n/a	n/a	1	0.57763671875	0.412841796875	1	upper	zerothre.ttf
1708213	WORD	wordpools/wasnorm_wordpool_less_exclusions.txt	LTP263	ltpFR	1	12	0	GUARDIAN	668	n/a	n/a	1	0.422607421875	0.5869140625	0	lower	amplitud.ttf
1712407	WORD	wordpools/wasnorm_wordpool_less_exclusions.txt	LTP263	ltpFR	1	12	0	BAG	69	n/a	n/a	0	0.422607421875	0.5869140625	0	lower	amplitud.ttf
1716301	WORD	wordpools/wasnorm_wordpool_less_exclusions.txt	LTP263	ltpFR	1	12	0	KNAPSACK	783	n/a	n/a	0	0.422607421875	0.5869140625	0	lower	amplitud.ttf
1720445	WORD	wordpools/wasnorm_wordpool_less_exclusions.txt	LTP263	ltpFR	1	12	0	STEWARDESS	1381	n/a	n/a	1	0.422607421875	0.5869140625	0	lower	amplitud.ttf
1724373	WORD	wordpools/wasnorm_wordpool_less_exclusions.txt	LTP263	ltpFR	1	12	0	PICTURE	1061	n/a	n/a	0	0.422607421875	0.5869140625	0	lower	amplitud.ttf
1728383	WORD	wordpools/wasnorm_wordpool_less_exclusions.txt	LTP263	ltpFR	1	12	1	MAJOR	859	n/a	n/a	0	0.57763671875	0.412841796875	1	upper	zerothre.ttf
1732278	WORD	wordpools/wasnorm_wordpool_less_exclusions.txt	LTP263	ltpFR	1	12	1	GLACIER	638	n/a	n/a	1	0.57763671875	0.412841796875	1	upper	zerothre.ttf
1736471	WORD	wordpools/wasnorm_wordpool_less_exclusions.txt	LTP263	ltpFR	1	12	1	SALESMAN	1225	n/a	n/a	1	0.57763671875	0.412841796875	1	upper	zerothre.ttf
1740499	WORD	wordpools/wasnorm_wordpool_less_exclusions.txt	LTP263	ltpFR	1	12	1	BOULDER	155	n/a	n/a	0	0.57763671875	0.412841796875	1	upper	zerothre.ttf
1744708	WORD	wordpools/wasnorm_wordpool_less_exclusions.txt	LTP263	ltpFR	1	12	0	SAPPHIRE	1234	n/a	n/a	0	0.422607421875	0.5869140625	0	lower	amplitud.ttf
1748552	WORD	wordpools/wasnorm_wordpool_less_exclusions.txt	LTP263	ltpFR	1	12	0	FRAME	600	n/a	n/a	0	0.422607421875	0.5869140625	0	lower	amplitud.ttf
1752663	WORD	wordpools/wasnorm_wordpool_less_exclusions.txt	LTP263	ltpFR	1	12	0	CLOCK	325	n/a	n/a	0	0.422607421875	0.5869140625	0	lower	amplitud.ttf
1758538	REC_START	n/a	LTP263	ltpFR	1	12	n/a	n/a	n/a	n/a	n/a	n/a	n/a	n/a	n/a	n/a	n/a
1759826	REC_WORD	wordpools/wasnorm_wordpool_less_exclusions.txt	LTP263	ltpFR	1	12	0	SAPPHIRE	1234	n/a	n/a	0	n/a	n/a	n/a	n/a	n/a
1760834	REC_WORD	wordpools/wasnorm_wordpool_less_exclusions.txt	LTP263	ltpFR	1	12	0	FRAME	600	n/a	n/a	0	n/a	n/a	n/a	n/a	n/a
1761633	REC_WORD	wordpools/wasnorm_wordpool_less_exclusions.txt	LTP263	ltpFR	1	12	0	CLOCK	325	n/a	n/a	0	n/a	n/a	n/a	n/a	n/a
1762581	REC_WORD	wordpools/wasnorm_wordpool_less_exclusions.txt	LTP263	ltpFR	1	12	0	STEWARDESS	1381	n/a	n/a	1	n/a	n/a	n/a	n/a	n/a
1764127	REC_WORD	wordpools/wasnorm_wordpool_less_exclusions.txt	LTP263	ltpFR	1	12	1	FATHER	554	n/a	n/a	1	n/a	n/a	n/a	n/a	n/a
1765069	REC_WORD	wordpools/wasnorm_wordpool_less_exclusions.txt	LTP263	ltpFR	1	12	1	CONTRACTOR	369	n/a	n/a	1	n/a	n/a	n/a	n/a	n/a
1766405	REC_WORD	wordpools/wasnorm_wordpool_less_exclusions.txt	LTP263	ltpFR	1	12	1	BUS	201	n/a	n/a	0	n/a	n/a	n/a	n/a	n/a
1767473	REC_WORD	wordpools/wasnorm_wordpool_less_exclusions.txt	LTP263	ltpFR	1	12	1	EAGLE	512	n/a	n/a	1	n/a	n/a	n/a	n/a	n/a
1769772	REC_WORD	wordpools/wasnorm_wordpool_less_exclusions.txt	LTP263	ltpFR	1	12	n/a	MIRROR	899	n/a	n/a	n/a	n/a	n/a	n/a	n/a	n/a
1770721	REC_WORD	wordpools/wasnorm_wordpool_less_exclusions.txt	LTP263	ltpFR	1	12	1	GLACIER	638	n/a	n/a	1	n/a	n/a	n/a	n/a	n/a
1776173	REC_WORD	wordpools/wasnorm_wordpool_less_exclusions.txt	LTP263	ltpFR	1	12	0	BAG	69	n/a	n/a	0	n/a	n/a	n/a	n/a	n/a
1777002	REC_WORD	wordpools/wasnorm_wordpool_less_exclusions.txt	LTP263	ltpFR	1	12	0	KNAPSACK	783	n/a	n/a	0	n/a	n/a	n/a	n/a	n/a
1786567	REC_WORD	wordpools/wasnorm_wordpool_less_exclusions.txt	LTP263	ltpFR	1	12	1	BOULDER	155	n/a	n/a	0	n/a	n/a	n/a	n/a	n/a
1834142	REST_REWET	n/a	LTP263	ltpFR	1	12	n/a	n/a	n/a	n/a	n/a	n/a	n/a	n/a	n/a	n/a	n/a
1852747	WORD	wordpools/wasnorm_wordpool_less_exclusions.txt	LTP263	ltpFR	1	13	1	VILLAGE	1566	n/a	n/a	3	0.57763671875	0.412841796875	1	upper	zerothre.ttf
1854312	KEY_MSG	n/a	LTP263	ltpFR	1	13	n/a	n/a	n/a	n/a	n/a	n/a	n/a	n/a	n/a	n/a	n/a
1856807	WORD	wordpools/wasnorm_wordpool_less_exclusions.txt	LTP263	ltpFR	1	13	1	ARCHITECT	36	n/a	n/a	1	0.57763671875	0.412841796875	1	upper	zerothre.ttf
1861001	WORD	wordpools/wasnorm_wordpool_less_exclusions.txt	LTP263	ltpFR	1	13	1	BAY	102	n/a	n/a	0	0.57763671875	0.412841796875	1	upper	zerothre.ttf
1865179	WORD	wordpools/wasnorm_wordpool_less_exclusions.txt	LTP263	ltpFR	1	13	1	CORAL	378	n/a	n/a	0	0.57763671875	0.412841796875	1	upper	zerothre.ttf
1869057	WORD	wordpools/wasnorm_wordpool_less_exclusions.txt	LTP263	ltpFR	1	13	1	MONEY	908	n/a	n/a	0	0.57763671875	0.412841796875	1	upper	zerothre.ttf
1873101	WORD	wordpools/wasnorm_wordpool_less_exclusions.txt	LTP263	ltpFR	1	13	1	EDITORIAL	517	n/a	n/a	1	0.57763671875	0.412841796875	1	upper	zerothre.ttf
1877045	WORD	wordpools/wasnorm_wordpool_less_exclusions.txt	LTP263	ltpFR	1	13	1	OCTOPUS	971	n/a	n/a	1	0.57763671875	0.412841796875	1	upper	zerothre.ttf
1881122	WORD	wordpools/wasnorm_wordpool_less_exclusions.txt	LTP263	ltpFR	1	13	1	CHALK	276	n/a	n/a	0	0.57763671875	0.412841796875	1	upper	zerothre.ttf
1885133	WORD	wordpools/wasnorm_wordpool_less_exclusions.txt	LTP263	ltpFR	1	13	1	PELICAN	1039	n/a	n/a	1	0.57763671875	0.412841796875	1	upper	zerothre.ttf
1889009	WORD	wordpools/wasnorm_wordpool_less_exclusions.txt	LTP263	ltpFR	1	13	1	BOARD	143	n/a	n/a	0	0.57763671875	0.412841796875	1	upper	zerothre.ttf
1893137	WORD	wordpools/wasnorm_wordpool_less_exclusions.txt	LTP263	ltpFR	1	13	1	PERISCOPE	1050	n/a	n/a	0	0.57763671875	0.412841796875	1	upper	zerothre.ttf
1897264	WORD	wordpools/wasnorm_wordpool_less_exclusions.txt	LTP263	ltpFR	1	13	1	ITEM	746	n/a	n/a	0	0.57763671875	0.412841796875	1	upper	zerothre.ttf
1901408	WORD	wordpools/wasnorm_wordpool_less_exclusions.txt	LTP263	ltpFR	1	13	1	CANARY	227	n/a	n/a	1	0.57763671875	0.412841796875	1	upper	zerothre.ttf
1905601	WORD	wordpools/wasnorm_wordpool_less_exclusions.txt	LTP263	ltpFR	1	13	1	CIGARETTE	309	n/a	n/a	0	0.57763671875	0.412841796875	1	upper	zerothre.ttf
1909678	WORD	wordpools/wasnorm_wordpool_less_exclusions.txt	LTP263	ltpFR	1	13	1	CAMEL	223	n/a	n/a	1	0.57763671875	0.412841796875	1	upper	zerothre.ttf
1913889	WORD	wordpools/wasnorm_wordpool_less_exclusions.txt	LTP263	ltpFR	1	13	1	MERMAID	887	n/a	n/a	1	0.57763671875	0.412841796875	1	upper	zerothre.ttf
1919963	REC_START	n/a	LTP263	ltpFR	1	13	n/a	n/a	n/a	n/a	n/a	n/a	n/a	n/a	n/a	n/a	n/a
1921398	REC_WORD	wordpools/wasnorm_wordpool_less_exclusions.txt	LTP263	ltpFR	1	13	1	CAMEL	223	n/a	n/a	1	n/a	n/a	n/a	n/a	n/a
1922359	REC_WORD	wordpools/wasnorm_wordpool_less_exclusions.txt	LTP263	ltpFR	1	13	1	MERMAID	887	n/a	n/a	1	n/a	n/a	n/a	n/a	n/a
1923326	REC_WORD	wordpools/wasnorm_wordpool_less_exclusions.txt	LTP263	ltpFR	1	13	1	CANARY	227	n/a	n/a	1	n/a	n/a	n/a	n/a	n/a
1924120	REC_WORD	wordpools/wasnorm_wordpool_less_exclusions.txt	LTP263	ltpFR	1	13	1	CIGARETTE	309	n/a	n/a	0	n/a	n/a	n/a	n/a	n/a
1925571	REC_WORD	wordpools/wasnorm_wordpool_less_exclusions.txt	LTP263	ltpFR	1	13	1	PELICAN	1039	n/a	n/a	1	n/a	n/a	n/a	n/a	n/a
1926734	REC_WORD	wordpools/wasnorm_wordpool_less_exclusions.txt	LTP263	ltpFR	1	13	1	PERISCOPE	1050	n/a	n/a	0	n/a	n/a	n/a	n/a	n/a
1928471	REC_WORD	wordpools/wasnorm_wordpool_less_exclusions.txt	LTP263	ltpFR	1	13	1	ARCHITECT	36	n/a	n/a	1	n/a	n/a	n/a	n/a	n/a
1929723	REC_WORD	wordpools/wasnorm_wordpool_less_exclusions.txt	LTP263	ltpFR	1	13	1	CORAL	378	n/a	n/a	0	n/a	n/a	n/a	n/a	n/a
1930974	REC_WORD	wordpools/wasnorm_wordpool_less_exclusions.txt	LTP263	ltpFR	1	13	1	BAY	102	n/a	n/a	0	n/a	n/a	n/a	n/a	n/a
1942584	REC_WORD	wordpools/wasnorm_wordpool_less_exclusions.txt	LTP263	ltpFR	1	13	1	VILLAGE	1566	n/a	n/a	3	n/a	n/a	n/a	n/a	n/a
1997763	WORD	wordpools/wasnorm_wordpool_less_exclusions.txt	LTP263	ltpFR	1	14	1	COLT	349	n/a	n/a	1	0.57763671875	0.412841796875	1	upper	zerothre.ttf
2001708	WORD	wordpools/wasnorm_wordpool_less_exclusions.txt	LTP263	ltpFR	1	14	1	PRESIDENT	1121	n/a	n/a	1	0.57763671875	0.412841796875	1	upper	zerothre.ttf
2005552	WORD	wordpools/wasnorm_wordpool_less_exclusions.txt	LTP263	ltpFR	1	14	1	FEMALE	559	n/a	n/a	1	0.57763671875	0.412841796875	1	upper	zerothre.ttf
2009497	WORD	wordpools/wasnorm_wordpool_less_exclusions.txt	LTP263	ltpFR	1	14	1	BULLY	196	n/a	n/a	1	0.57763671875	0.412841796875	1	upper	zerothre.ttf
2013374	WORD	wordpools/wasnorm_wordpool_less_exclusions.txt	LTP263	ltpFR	1	14	1	SLOPE	1328	n/a	n/a	0	0.57763671875	0.412841796875	1	upper	zerothre.ttf
2017269	WORD	wordpools/wasnorm_wordpool_less_exclusions.txt	LTP263	ltpFR	1	14	1	CABIN	211	n/a	n/a	0	0.57763671875	0.412841796875	1	upper	zerothre.ttf
2021163	WORD	wordpools/wasnorm_wordpool_less_exclusions.txt	LTP263	ltpFR	1	14	1	SICKLE	1302	n/a	n/a	0	0.57763671875	0.412841796875	1	upper	zerothre.ttf
2025074	WORD	wordpools/wasnorm_wordpool_less_exclusions.txt	LTP263	ltpFR	1	14	1	PASSAGE	1019	n/a	n/a	0	0.57763671875	0.412841796875	1	upper	zerothre.ttf
2029084	WORD	wordpools/wasnorm_wordpool_less_exclusions.txt	LTP263	ltpFR	1	14	1	KEY	773	n/a	n/a	0	0.57763671875	0.412841796875	1	upper	zerothre.ttf
2033245	WORD	wordpools/wasnorm_wordpool_less_exclusions.txt	LTP263	ltpFR	1	14	1	LOCK	838	n/a	n/a	0	0.57763671875	0.412841796875	1	upper	zerothre.ttf
2037405	WORD	wordpools/wasnorm_wordpool_less_exclusions.txt	LTP263	ltpFR	1	14	1	CAKE	219	n/a	n/a	0	0.57763671875	0.412841796875	1	upper	zerothre.ttf
2041531	WORD	wordpools/wasnorm_wordpool_less_exclusions.txt	LTP263	ltpFR	1	14	1	CRUMB	416	n/a	n/a	0	0.57763671875	0.412841796875	1	upper	zerothre.ttf
2045393	WORD	wordpools/wasnorm_wordpool_less_exclusions.txt	LTP263	ltpFR	1	14	1	SCOUT	1252	n/a	n/a	1	0.57763671875	0.412841796875	1	upper	zerothre.ttf
2049238	WORD	wordpools/wasnorm_wordpool_less_exclusions.txt	LTP263	ltpFR	1	14	1	DISH	474	n/a	n/a	0	0.57763671875	0.412841796875	1	upper	zerothre.ttf
2053098	WORD	wordpools/wasnorm_wordpool_less_exclusions.txt	LTP263	ltpFR	1	14	1	MAN	862	n/a	n/a	1	0.57763671875	0.412841796875	1	upper	zerothre.ttf
2057226	WORD	wordpools/wasnorm_wordpool_less_exclusions.txt	LTP263	ltpFR	1	14	1	HALL	677	n/a	n/a	0	0.57763671875	0.412841796875	1	upper	zerothre.ttf
2063184	REC_START	n/a	LTP263	ltpFR	1	14	n/a	n/a	n/a	n/a	n/a	n/a	n/a	n/a	n/a	n/a	n/a
2064366	REC_WORD	wordpools/wasnorm_wordpool_less_exclusions.txt	LTP263	ltpFR	1	14	1	MAN	862	n/a	n/a	1	n/a	n/a	n/a	n/a	n/a
2065325	REC_WORD	wordpools/wasnorm_wordpool_less_exclusions.txt	LTP263	ltpFR	1	14	1	HALL	677	n/a	n/a	0	n/a	n/a	n/a	n/a	n/a
2066385	REC_WORD	wordpools/wasnorm_wordpool_less_exclusions.txt	LTP263	ltpFR	1	14	1	CABIN	211	n/a	n/a	0	n/a	n/a	n/a	n/a	n/a
2067533	REC_WORD	wordpools/wasnorm_wordpool_less_exclusions.txt	LTP263	ltpFR	1	14	1	KEY	773	n/a	n/a	0	n/a	n/a	n/a	n/a	n/a
2068713	REC_WORD	wordpools/wasnorm_wordpool_less_exclusions.txt	LTP263	ltpFR	1	14	1	LOCK	838	n/a	n/a	0	n/a	n/a	n/a	n/a	n/a
2069750	REC_WORD	wordpools/wasnorm_wordpool_less_exclusions.txt	LTP263	ltpFR	1	14	1	COLT	349	n/a	n/a	1	n/a	n/a	n/a	n/a	n/a
2070725	REC_WORD	wordpools/wasnorm_wordpool_less_exclusions.txt	LTP263	ltpFR	1	14	1	PRESIDENT	1121	n/a	n/a	1	n/a	n/a	n/a	n/a	n/a
2071732	REC_WORD	wordpools/wasnorm_wordpool_less_exclusions.txt	LTP263	ltpFR	1	14	1	FEMALE	559	n/a	n/a	1	n/a	n/a	n/a	n/a	n/a
2072933	REC_WORD	wordpools/wasnorm_wordpool_less_exclusions.txt	LTP263	ltpFR	1	14	1	BULLY	196	n/a	n/a	1	n/a	n/a	n/a	n/a	n/a
2075243	REC_WORD	wordpools/wasnorm_wordpool_less_exclusions.txt	LTP263	ltpFR	1	14	n/a	PIE	1062	n/a	n/a	n/a	n/a	n/a	n/a	n/a	n/a
2076394	REC_WORD	wordpools/wasnorm_wordpool_less_exclusions.txt	LTP263	ltpFR	1	14	1	DISH	474	n/a	n/a	0	n/a	n/a	n/a	n/a	n/a
2077576	REC_WORD	wordpools/wasnorm_wordpool_less_exclusions.txt	LTP263	ltpFR	1	14	1	SCOUT	1252	n/a	n/a	1	n/a	n/a	n/a	n/a	n/a
2081414	REC_WORD	wordpools/wasnorm_wordpool_less_exclusions.txt	LTP263	ltpFR	1	14	1	CHISEL	305	n/a	n/a	0	n/a	n/a	n/a	n/a	n/a
2085570	REC_WORD	wordpools/wasnorm_wordpool_less_exclusions.txt	LTP263	ltpFR	1	14	1	SLOPE	1328	n/a	n/a	0	n/a	n/a	n/a	n/a	n/a
2086720	REC_WORD	wordpools/wasnorm_wordpool_less_exclusions.txt	LTP263	ltpFR	1	14	1	PASSAGE	1019	n/a	n/a	0	n/a	n/a	n/a	n/a	n/a
2140833	WORD	wordpools/wasnorm_wordpool_less_exclusions.txt	LTP263	ltpFR	1	15	0	ACTRESS	6	n/a	n/a	1	0.422607421875	0.5869140625	0	lower	amplitud.ttf
2144711	WORD	wordpools/wasnorm_wordpool_less_exclusions.txt	LTP263	ltpFR	1	15	0	PAN	1008	n/a	n/a	0	0.422607421875	0.5869140625	0	lower	amplitud.ttf
2148638	WORD	wordpools/wasnorm_wordpool_less_exclusions.txt	LTP263	ltpFR	1	15	0	DECK	443	n/a	n/a	1	0.422607421875	0.5869140625	0	lower	amplitud.ttf
2152832	WORD	wordpools/wasnorm_wordpool_less_exclusions.txt	LTP263	ltpFR	1	15	0	DOCK	477	n/a	n/a	1	0.422607421875	0.5869140625	0	lower	amplitud.ttf
2156992	WORD	wordpools/wasnorm_wordpool_less_exclusions.txt	LTP263	ltpFR	1	15	0	DILL	465	n/a	n/a	0	0.422607421875	0.5869140625	0	lower	amplitud.ttf
2161120	WORD	wordpools/wasnorm_wordpool_less_exclusions.txt	LTP263	ltpFR	1	15	0	PENCIL	1042	n/a	n/a	0	0.422607421875	0.5869140625	0	lower	amplitud.ttf
2165214	WORD	wordpools/wasnorm_wordpool_less_exclusions.txt	LTP263	ltpFR	1	15	0	NUCLEUS	961	n/a	n/a	0	0.422607421875	0.5869140625	0	lower	amplitud.ttf
2169408	WORD	wordpools/wasnorm_wordpool_less_exclusions.txt	LTP263	ltpFR	1	15	0	FOOT	590	n/a	n/a	0	0.422607421875	0.5869140625	0	lower	amplitud.ttf
2173452	WORD	wordpools/wasnorm_wordpool_less_exclusions.txt	LTP263	ltpFR	1	15	0	TACK	1428	n/a	n/a	0	0.422607421875	0.5869140625	0	lower	amplitud.ttf
2177661	WORD	wordpools/wasnorm_wordpool_less_exclusions.txt	LTP263	ltpFR	1	15	0	TWEEZERS	1526	n/a	n/a	0	0.422607421875	0.5869140625	0	lower	amplitud.ttf
2181705	WORD	wordpools/wasnorm_wordpool_less_exclusions.txt	LTP263	ltpFR	1	15	0	WAGON	1578	n/a	n/a	1	0.422607421875	0.5869140625	0	lower	amplitud.ttf
2185916	WORD	wordpools/wasnorm_wordpool_less_exclusions.txt	LTP263	ltpFR	1	15	0	PISTON	1076	n/a	n/a	0	0.422607421875	0.5869140625	0	lower	amplitud.ttf
2189993	WORD	wordpools/wasnorm_wordpool_less_exclusions.txt	LTP263	ltpFR	1	15	0	CLASS	318	n/a	n/a	1	0.422607421875	0.5869140625	0	lower	amplitud.ttf
2193837	WORD	wordpools/wasnorm_wordpool_less_exclusions.txt	LTP263	ltpFR	1	15	0	SPOON	1357	n/a	n/a	0	0.422607421875	0.5869140625	0	lower	amplitud.ttf
2197981	WORD	wordpools/wasnorm_wordpool_less_exclusions.txt	LTP263	ltpFR	1	15	0	BOMB	147	n/a	n/a	0	0.422607421875	0.5869140625	0	lower	amplitud.ttf
2201908	WORD	wordpools/wasnorm_wordpool_less_exclusions.txt	LTP263	ltpFR	1	15	0	GRADUATE	653	n/a	n/a	0	0.422607421875	0.5869140625	0	lower	amplitud.ttf
2207817	REC_START	n/a	LTP263	ltpFR	1	15	n/a	n/a	n/a	n/a	n/a	n/a	n/a	n/a	n/a	n/a	n/a
2209049	REC_WORD	wordpools/wasnorm_wordpool_less_exclusions.txt	LTP263	ltpFR	1	15	0	GRADUATE	653	n/a	n/a	0	n/a	n/a	n/a	n/a	n/a
2211399	REC_WORD	wordpools/wasnorm_wordpool_less_exclusions.txt	LTP263	ltpFR	1	15	0	CLASS	318	n/a	n/a	1	n/a	n/a	n/a	n/a	n/a
2212464	REC_WORD	wordpools/wasnorm_wordpool_less_exclusions.txt	LTP263	ltpFR	1	15	0	WAGON	1578	n/a	n/a	1	n/a	n/a	n/a	n/a	n/a
2213473	REC_WORD	wordpools/wasnorm_wordpool_less_exclusions.txt	LTP263	ltpFR	1	15	0	PISTON	1076	n/a	n/a	0	n/a	n/a	n/a	n/a	n/a
2214781	REC_WORD	wordpools/wasnorm_wordpool_less_exclusions.txt	LTP263	ltpFR	1	15	0	SPOON	1357	n/a	n/a	0	n/a	n/a	n/a	n/a	n/a
2216041	REC_WORD	wordpools/wasnorm_wordpool_less_exclusions.txt	LTP263	ltpFR	1	15	0	BOMB	147	n/a	n/a	0	n/a	n/a	n/a	n/a	n/a
2217019	REC_WORD	wordpools/wasnorm_wordpool_less_exclusions.txt	LTP263	ltpFR	1	15	0	ACTRESS	6	n/a	n/a	1	n/a	n/a	n/a	n/a	n/a
2219142	REC_WORD	wordpools/wasnorm_wordpool_less_exclusions.txt	LTP263	ltpFR	1	15	0	DECK	443	n/a	n/a	1	n/a	n/a	n/a	n/a	n/a
2221549	REC_WORD	wordpools/wasnorm_wordpool_less_exclusions.txt	LTP263	ltpFR	1	15	0	DOCK	477	n/a	n/a	1	n/a	n/a	n/a	n/a	n/a
2228154	REC_WORD	wordpools/wasnorm_wordpool_less_exclusions.txt	LTP263	ltpFR	1	15	0	PENCIL	1042	n/a	n/a	0	n/a	n/a	n/a	n/a	n/a
2232507	REC_WORD	wordpools/wasnorm_wordpool_less_exclusions.txt	LTP263	ltpFR	1	15	1	DISH	474	n/a	n/a	0	n/a	n/a	n/a	n/a	n/a
2242828	REC_WORD	wordpools/wasnorm_wordpool_less_exclusions.txt	LTP263	ltpFR	1	15	0	PISTON	1076	n/a	n/a	0	n/a	n/a	n/a	n/a	n/a
2285468	WORD	wordpools/wasnorm_wordpool_less_exclusions.txt	LTP263	ltpFR	1	16	0	AGENT	10	n/a	n/a	1	0.422607421875	0.5869140625	0	lower	amplitud.ttf
2289362	WORD	wordpools/wasnorm_wordpool_less_exclusions.txt	LTP263	ltpFR	1	16	0	BADGE	68	n/a	n/a	0	0.422607421875	0.5869140625	0	lower	amplitud.ttf
2293456	WORD	wordpools/wasnorm_wordpool_less_exclusions.txt	LTP263	ltpFR	1	16	0	KEYBOARD	774	n/a	n/a	0	0.422607421875	0.5869140625	0	lower	amplitud.ttf
2297516	WORD	wordpools/wasnorm_wordpool_less_exclusions.txt	LTP263	ltpFR	1	16	0	COMPUTER	359	n/a	n/a	0	0.422607421875	0.5869140625	0	lower	amplitud.ttf
2301709	WORD	wordpools/wasnorm_wordpool_less_exclusions.txt	LTP263	ltpFR	1	16	0	SNORKEL	1336	n/a	n/a	0	0.422607421875	0.5869140625	0	lower	amplitud.ttf
2305837	WORD	wordpools/wasnorm_wordpool_less_exclusions.txt	LTP263	ltpFR	1	16	0	BUBBLE	183	n/a	n/a	0	0.422607421875	0.5869140625	0	lower	amplitud.ttf
2309781	WORD	wordpools/wasnorm_wordpool_less_exclusions.txt	LTP263	ltpFR	1	16	0	CARDINAL	244	n/a	n/a	0	0.422607421875	0.5869140625	0	lower	amplitud.ttf
2313725	WORD	wordpools/wasnorm_wordpool_less_exclusions.txt	LTP263	ltpFR	1	16	0	GROUND	666	n/a	n/a	1	0.422607421875	0.5869140625	0	lower	amplitud.ttf
2317735	WORD	wordpools/wasnorm_wordpool_less_exclusions.txt	LTP263	ltpFR	1	16	0	CAFETERIA	217	n/a	n/a	1	0.422607421875	0.5869140625	0	lower	amplitud.ttf
2321696	WORD	wordpools/wasnorm_wordpool_less_exclusions.txt	LTP263	ltpFR	1	16	0	DRAWING	494	n/a	n/a	0	0.422607421875	0.5869140625	0	lower	amplitud.ttf
2325557	WORD	wordpools/wasnorm_wordpool_less_exclusions.txt	LTP263	ltpFR	1	16	0	MAT	877	n/a	n/a	0	0.422607421875	0.5869140625	0	lower	amplitud.ttf
2329568	WORD	wordpools/wasnorm_wordpool_less_exclusions.txt	LTP263	ltpFR	1	16	0	MONGOOSE	909	n/a	n/a	0	0.422607421875	0.5869140625	0	lower	amplitud.ttf
2333463	WORD	wordpools/wasnorm_wordpool_less_exclusions.txt	LTP263	ltpFR	1	16	0	PEOPLE	1046	n/a	n/a	1	0.422607421875	0.5869140625	0	lower	amplitud.ttf
2337573	WORD	wordpools/wasnorm_wordpool_less_exclusions.txt	LTP263	ltpFR	1	16	0	WAITRESS	1581	n/a	n/a	1	0.422607421875	0.5869140625	0	lower	amplitud.ttf
2341567	WORD	wordpools/wasnorm_wordpool_less_exclusions.txt	LTP263	ltpFR	1	16	0	TRACTOR	1493	n/a	n/a	1	0.422607421875	0.5869140625	0	lower	amplitud.ttf
2345445	WORD	wordpools/wasnorm_wordpool_less_exclusions.txt	LTP263	ltpFR	1	16	0	LIZARD	834	n/a	n/a	0	0.422607421875	0.5869140625	0	lower	amplitud.ttf
2351187	REC_START	n/a	LTP263	ltpFR	1	16	n/a	n/a	n/a	n/a	n/a	n/a	n/a	n/a	n/a	n/a	n/a
2352541	REC_WORD	wordpools/wasnorm_wordpool_less_exclusions.txt	LTP263	ltpFR	1	16	0	LIZARD	834	n/a	n/a	0	n/a	n/a	n/a	n/a	n/a
2353358	REC_WORD	wordpools/wasnorm_wordpool_less_exclusions.txt	LTP263	ltpFR	1	16	0	TRACTOR	1493	n/a	n/a	1	n/a	n/a	n/a	n/a	n/a
2354411	REC_WORD	wordpools/wasnorm_wordpool_less_exclusions.txt	LTP263	ltpFR	1	16	0	WAITRESS	1581	n/a	n/a	1	n/a	n/a	n/a	n/a	n/a
2355324	REC_WORD	wordpools/wasnorm_wordpool_less_exclusions.txt	LTP263	ltpFR	1	16	0	CAFETERIA	217	n/a	n/a	1	n/a	n/a	n/a	n/a	n/a
2356591	REC_WORD	wordpools/wasnorm_wordpool_less_exclusions.txt	LTP263	ltpFR	1	16	0	PEOPLE	1046	n/a	n/a	1	n/a	n/a	n/a	n/a	n/a
2358016	REC_WORD	wordpools/wasnorm_wordpool_less_exclusions.txt	LTP263	ltpFR	1	16	0	AGENT	10	n/a	n/a	1	n/a	n/a	n/a	n/a	n/a
2359210	REC_WORD	wordpools/wasnorm_wordpool_less_exclusions.txt	LTP263	ltpFR	1	16	0	BADGE	68	n/a	n/a	0	n/a	n/a	n/a	n/a	n/a
2360859	REC_WORD	wordpools/wasnorm_wordpool_less_exclusions.txt	LTP263	ltpFR	1	16	0	KEYBOARD	774	n/a	n/a	0	n/a	n/a	n/a	n/a	n/a
2362014	REC_WORD	wordpools/wasnorm_wordpool_less_exclusions.txt	LTP263	ltpFR	1	16	0	COMPUTER	359	n/a	n/a	0	n/a	n/a	n/a	n/a	n/a
2363663	REC_WORD	wordpools/wasnorm_wordpool_less_exclusions.txt	LTP263	ltpFR	1	16	0	GROUND	666	n/a	n/a	1	n/a	n/a	n/a	n/a	n/a
2465666	REC_START	n/a	LTP263	ltpFR	1	1	n/a	n/a	n/a	n/a	n/a	n/a	n/a	n/a	n/a	n/a	n/a
2465698	RECOG_TARGET	n/a	LTP263	ltpFR	1	1	1	COLT	349	1	5	1	n/a	n/a	n/a	n/a	n/a
2467362	RECOG_RESP	n/a	LTP263	ltpFR	1	1	1	COLT	349	1	n/a	1	n/a	n/a	n/a	n/a	n/a
2470640	RECOG_CONF	n/a	LTP263	ltpFR	1	1	1	COLT	349	n/a	5	1	n/a	n/a	n/a	n/a	n/a
2472687	RECOG_TARGET	n/a	LTP263	ltpFR	1	1	0	DRAWING	494	1	5	0	n/a	n/a	n/a	n/a	n/a
2473992	RECOG_RESP	n/a	LTP263	ltpFR	1	1	0	DRAWING	494	1	n/a	0	n/a	n/a	n/a	n/a	n/a
2475668	RECOG_CONF	n/a	LTP263	ltpFR	1	1	0	DRAWING	494	n/a	5	0	n/a	n/a	n/a	n/a	n/a
2477613	RECOG_TARGET	n/a	LTP263	ltpFR	1	1	-1	LOLLIPOP	842	1	5	-1	n/a	n/a	n/a	n/a	n/a
2478482	RECOG_RESP	n/a	LTP263	ltpFR	1	1	-1	LOLLIPOP	842	1	n/a	-1	n/a	n/a	n/a	n/a	n/a
2480068	RECOG_CONF	n/a	LTP263	ltpFR	1	1	-1	LOLLIPOP	842	n/a	5	-1	n/a	n/a	n/a	n/a	n/a
2482191	RECOG_TARGET	n/a	LTP263	ltpFR	1	1	1	FEMALE	559	1	5	1	n/a	n/a	n/a	n/a	n/a
2483091	RECOG_RESP	n/a	LTP263	ltpFR	1	1	1	FEMALE	559	1	n/a	1	n/a	n/a	n/a	n/a	n/a
2484448	RECOG_CONF	n/a	LTP263	ltpFR	1	1	1	FEMALE	559	n/a	5	1	n/a	n/a	n/a	n/a	n/a
2486351	RECOG_TARGET	n/a	LTP263	ltpFR	1	1	1	MONARCH	906	1	5	0	n/a	n/a	n/a	n/a	n/a
2487471	RECOG_RESP	n/a	LTP263	ltpFR	1	1	1	MONARCH	906	1	n/a	0	n/a	n/a	n/a	n/a	n/a
2489127	RECOG_CONF	n/a	LTP263	ltpFR	1	1	1	MONARCH	906	n/a	5	0	n/a	n/a	n/a	n/a	n/a
2490860	RECOG_LURE	n/a	LTP263	ltpFR	1	1	n/a	POT	1114	0	2	n/a	n/a	n/a	n/a	n/a	n/a
2492550	RECOG_RESP	n/a	LTP263	ltpFR	1	1	n/a	POT	1114	0	n/a	n/a	n/a	n/a	n/a	n/a	n/a
2494156	RECOG_CONF	n/a	LTP263	ltpFR	1	1	n/a	POT	1114	n/a	2	n/a	n/a	n/a	n/a	n/a	n/a
2496336	RECOG_LURE	n/a	LTP263	ltpFR	1	1	n/a	LIMOUSINE	824	0	3	n/a	n/a	n/a	n/a	n/a	n/a
2497638	RECOG_RESP	n/a	LTP263	ltpFR	1	1	n/a	LIMOUSINE	824	0	n/a	n/a	n/a	n/a	n/a	n/a	n/a
2498875	RECOG_CONF	n/a	LTP263	ltpFR	1	1	n/a	LIMOUSINE	824	n/a	3	n/a	n/a	n/a	n/a	n/a	n/a
2500829	RECOG_TARGET	n/a	LTP263	ltpFR	1	1	1	RADIO	1157	0	1	0	n/a	n/a	n/a	n/a	n/a
2503794	RECOG_RESP	n/a	LTP263	ltpFR	1	1	1	RADIO	1157	0	n/a	0	n/a	n/a	n/a	n/a	n/a
2505919	RECOG_CONF	n/a	LTP263	ltpFR	1	1	1	RADIO	1157	n/a	1	0	n/a	n/a	n/a	n/a	n/a
2507918	RECOG_TARGET	n/a	LTP263	ltpFR	1	1	0	ANTEATER	26	1	4	1	n/a	n/a	n/a	n/a	n/a
2509022	RECOG_RESP	n/a	LTP263	ltpFR	1	1	0	ANTEATER	26	1	n/a	1	n/a	n/a	n/a	n/a	n/a
2510649	RECOG_CONF	n/a	LTP263	ltpFR	1	1	0	ANTEATER	26	n/a	4	1	n/a	n/a	n/a	n/a	n/a
2512329	RECOG_TARGET	n/a	LTP263	ltpFR	1	1	1	GAZELLE	628	1	5	1	n/a	n/a	n/a	n/a	n/a
2513203	RECOG_RESP	n/a	LTP263	ltpFR	1	1	1	GAZELLE	628	1	n/a	1	n/a	n/a	n/a	n/a	n/a
2514570	RECOG_CONF	n/a	LTP263	ltpFR	1	1	1	GAZELLE	628	n/a	5	1	n/a	n/a	n/a	n/a	n/a
2516190	RECOG_TARGET	n/a	LTP263	ltpFR	1	1	1	CLAM	315	1	4	0	n/a	n/a	n/a	n/a	n/a
2517214	RECOG_RESP	n/a	LTP263	ltpFR	1	1	1	CLAM	315	1	n/a	0	n/a	n/a	n/a	n/a	n/a
2519259	RECOG_CONF	n/a	LTP263	ltpFR	1	1	1	CLAM	315	n/a	4	0	n/a	n/a	n/a	n/a	n/a
2520782	RECOG_TARGET	n/a	LTP263	ltpFR	1	1	-1	KNUCKLE	789	1	5	-1	n/a	n/a	n/a	n/a	n/a
2522137	RECOG_RESP	n/a	LTP263	ltpFR	1	1	-1	KNUCKLE	789	1	n/a	-1	n/a	n/a	n/a	n/a	n/a
2523639	RECOG_CONF	n/a	LTP263	ltpFR	1	1	-1	KNUCKLE	789	n/a	5	-1	n/a	n/a	n/a	n/a	n/a
2525393	RECOG_TARGET	n/a	LTP263	ltpFR	1	1	-1	COBRA	336	1	5	-1	n/a	n/a	n/a	n/a	n/a
2526213	RECOG_RESP	n/a	LTP263	ltpFR	1	1	-1	COBRA	336	1	n/a	-1	n/a	n/a	n/a	n/a	n/a
2527560	RECOG_CONF	n/a	LTP263	ltpFR	1	1	-1	COBRA	336	n/a	5	-1	n/a	n/a	n/a	n/a	n/a
2529271	RECOG_LURE	n/a	LTP263	ltpFR	1	1	n/a	TROUSERS	1510	0	2	n/a	n/a	n/a	n/a	n/a	n/a
2530189	RECOG_RESP	n/a	LTP263	ltpFR	1	1	n/a	TROUSERS	1510	0	n/a	n/a	n/a	n/a	n/a	n/a	n/a
2531451	RECOG_CONF	n/a	LTP263	ltpFR	1	1	n/a	TROUSERS	1510	n/a	2	n/a	n/a	n/a	n/a	n/a	n/a
2533165	RECOG_TARGET	n/a	LTP263	ltpFR	1	1	0	ROOSTER	1209	1	5	1	n/a	n/a	n/a	n/a	n/a
2534075	RECOG_RESP	n/a	LTP263	ltpFR	1	1	0	ROOSTER	1209	1	n/a	1	n/a	n/a	n/a	n/a	n/a
2535352	RECOG_CONF	n/a	LTP263	ltpFR	1	1	0	ROOSTER	1209	n/a	5	1	n/a	n/a	n/a	n/a	n/a
2537092	RECOG_LURE	n/a	LTP263	ltpFR	1	1	n/a	ARMY	39	0	1	n/a	n/a	n/a	n/a	n/a	n/a
2538186	RECOG_RESP	n/a	LTP263	ltpFR	1	1	n/a	ARMY	39	0	n/a	n/a	n/a	n/a	n/a	n/a	n/a
2539992	RECOG_CONF	n/a	LTP263	ltpFR	1	1	n/a	ARMY	39	n/a	1	n/a	n/a	n/a	n/a	n/a	n/a
2541684	RECOG_TARGET	n/a	LTP263	ltpFR	1	1	1	BABY	64	1	5	1	n/a	n/a	n/a	n/a	n/a
2542416	RECOG_RESP	n/a	LTP263	ltpFR	1	1	1	BABY	64	1	n/a	1	n/a	n/a	n/a	n/a	n/a
2543624	RECOG_CONF	n/a	LTP263	ltpFR	1	1	1	BABY	64	n/a	5	1	n/a	n/a	n/a	n/a	n/a
2545263	RECOG_TARGET	n/a	LTP263	ltpFR	1	1	1	KEY	773	1	5	0	n/a	n/a	n/a	n/a	n/a
2546836	RECOG_RESP	n/a	LTP263	ltpFR	1	1	1	KEY	773	1	n/a	0	n/a	n/a	n/a	n/a	n/a
2548014	RECOG_CONF	n/a	LTP263	ltpFR	1	1	1	KEY	773	n/a	5	0	n/a	n/a	n/a	n/a	n/a
2549739	RECOG_TARGET	n/a	LTP263	ltpFR	1	1	0	REFEREE	1178	1	5	1	n/a	n/a	n/a	n/a	n/a
2550568	RECOG_RESP	n/a	LTP263	ltpFR	1	1	0	REFEREE	1178	1	n/a	1	n/a	n/a	n/a	n/a	n/a
2551795	RECOG_CONF	n/a	LTP263	ltpFR	1	1	0	REFEREE	1178	n/a	5	1	n/a	n/a	n/a	n/a	n/a
2553418	RECOG_TARGET	n/a	LTP263	ltpFR	1	1	0	DICTATOR	462	1	5	1	n/a	n/a	n/a	n/a	n/a
2554289	RECOG_RESP	n/a	LTP263	ltpFR	1	1	0	DICTATOR	462	1	n/a	1	n/a	n/a	n/a	n/a	n/a
2555537	RECOG_CONF	n/a	LTP263	ltpFR	1	1	0	DICTATOR	462	n/a	5	1	n/a	n/a	n/a	n/a	n/a
2567493	REC_START	n/a	LTP263	ltpFR	1	2	n/a	n/a	n/a	n/a	n/a	n/a	n/a	n/a	n/a	n/a	n/a
2567529	RECOG_TARGET	n/a	LTP263	ltpFR	1	2	-1	LAGOON	795	0	1	-1	n/a	n/a	n/a	n/a	n/a
2578887	RECOG_RESP	n/a	LTP263	ltpFR	1	2	-1	LAGOON	795	0	n/a	-1	n/a	n/a	n/a	n/a	n/a
2580668	RECOG_CONF	n/a	LTP263	ltpFR	1	2	-1	LAGOON	795	n/a	1	-1	n/a	n/a	n/a	n/a	n/a
2582790	RECOG_TARGET	n/a	LTP263	ltpFR	1	2	0	BRANCH	168	1	2	0	n/a	n/a	n/a	n/a	n/a
2584160	RECOG_RESP	n/a	LTP263	ltpFR	1	2	0	BRANCH	168	1	n/a	0	n/a	n/a	n/a	n/a	n/a
2585387	RECOG_CONF	n/a	LTP263	ltpFR	1	2	0	BRANCH	168	n/a	2	0	n/a	n/a	n/a	n/a	n/a
2587118	RECOG_TARGET	n/a	LTP263	ltpFR	1	2	1	FIDDLE	561	1	3	0	n/a	n/a	n/a	n/a	n/a
2588335	RECOG_RESP	n/a	LTP263	ltpFR	1	2	1	FIDDLE	561	1	n/a	0	n/a	n/a	n/a	n/a	n/a
2589408	RECOG_CONF	n/a	LTP263	ltpFR	1	2	1	FIDDLE	561	n/a	3	0	n/a	n/a	n/a	n/a	n/a
2591112	RECOG_TARGET	n/a	LTP263	ltpFR	1	2	0	CHIP	303	0	1	0	n/a	n/a	n/a	n/a	n/a
2593638	RECOG_RESP	n/a	LTP263	ltpFR	1	2	0	CHIP	303	0	n/a	0	n/a	n/a	n/a	n/a	n/a
2595005	RECOG_CONF	n/a	LTP263	ltpFR	1	2	0	CHIP	303	n/a	1	0	n/a	n/a	n/a	n/a	n/a
2596785	RECOG_TARGET	n/a	LTP263	ltpFR	1	2	0	GRILL	661	1	2	0	n/a	n/a	n/a	n/a	n/a
2598757	RECOG_RESP	n/a	LTP263	ltpFR	1	2	0	GRILL	661	1	n/a	0	n/a	n/a	n/a	n/a	n/a
2599974	RECOG_CONF	n/a	LTP263	ltpFR	1	2	0	GRILL	661	n/a	2	0	n/a	n/a	n/a	n/a	n/a
2601711	RECOG_TARGET	n/a	LTP263	ltpFR	1	2	0	SUPPER	1411	1	5	1	n/a	n/a	n/a	n/a	n/a
2603022	RECOG_RESP	n/a	LTP263	ltpFR	1	2	0	SUPPER	1411	1	n/a	1	n/a	n/a	n/a	n/a	n/a
2604105	RECOG_CONF	n/a	LTP263	ltpFR	1	2	0	SUPPER	1411	n/a	5	1	n/a	n/a	n/a	n/a	n/a
2605755	RECOG_TARGET	n/a	LTP263	ltpFR	1	2	-1	FOLDER	588	1	5	-1	n/a	n/a	n/a	n/a	n/a
2606614	RECOG_RESP	n/a	LTP263	ltpFR	1	2	-1	FOLDER	588	1	n/a	-1	n/a	n/a	n/a	n/a	n/a
2607686	RECOG_CONF	n/a	LTP263	ltpFR	1	2	-1	FOLDER	588	n/a	5	-1	n/a	n/a	n/a	n/a	n/a
2609168	RECOG_TARGET	n/a	LTP263	ltpFR	1	2	0	BADGE	68	1	5	0	n/a	n/a	n/a	n/a	n/a
2610600	RECOG_RESP	n/a	LTP263	ltpFR	1	2	0	BADGE	68	1	n/a	0	n/a	n/a	n/a	n/a	n/a
2611907	RECOG_CONF	n/a	LTP263	ltpFR	1	2	0	BADGE	68	n/a	5	0	n/a	n/a	n/a	n/a	n/a
2613510	RECOG_TARGET	n/a	LTP263	ltpFR	1	2	0	TACK	1428	1	5	0	n/a	n/a	n/a	n/a	n/a
2614476	RECOG_RESP	n/a	LTP263	ltpFR	1	2	0	TACK	1428	1	n/a	0	n/a	n/a	n/a	n/a	n/a
2615618	RECOG_CONF	n/a	LTP263	ltpFR	1	2	0	TACK	1428	n/a	5	0	n/a	n/a	n/a	n/a	n/a
2617289	RECOG_TARGET	n/a	LTP263	ltpFR	1	2	0	CELLO	268	1	3	0	n/a	n/a	n/a	n/a	n/a
2618607	RECOG_RESP	n/a	LTP263	ltpFR	1	2	0	CELLO	268	1	n/a	0	n/a	n/a	n/a	n/a	n/a
2619829	RECOG_CONF	n/a	LTP263	ltpFR	1	2	0	CELLO	268	n/a	3	0	n/a	n/a	n/a	n/a	n/a
2621515	RECOG_LURE	n/a	LTP263	ltpFR	1	2	n/a	BROCCOLI	176	1	3	n/a	n/a	n/a	n/a	n/a	n/a
2622613	RECOG_RESP	n/a	LTP263	ltpFR	1	2	n/a	BROCCOLI	176	1	n/a	n/a	n/a	n/a	n/a	n/a	n/a
2623940	RECOG_CONF	n/a	LTP263	ltpFR	1	2	n/a	BROCCOLI	176	n/a	3	n/a	n/a	n/a	n/a	n/a	n/a
2625592	RECOG_TARGET	n/a	LTP263	ltpFR	1	2	0	SIDEWALK	1303	1	3	1	n/a	n/a	n/a	n/a	n/a
2626823	RECOG_RESP	n/a	LTP263	ltpFR	1	2	0	SIDEWALK	1303	1	n/a	1	n/a	n/a	n/a	n/a	n/a
2627930	RECOG_CONF	n/a	LTP263	ltpFR	1	2	0	SIDEWALK	1303	n/a	3	1	n/a	n/a	n/a	n/a	n/a
2629686	RECOG_LURE	n/a	LTP263	ltpFR	1	2	n/a	BUN	197	0	1	n/a	n/a	n/a	n/a	n/a	n/a
2631138	RECOG_RESP	n/a	LTP263	ltpFR	1	2	n/a	BUN	197	0	n/a	n/a	n/a	n/a	n/a	n/a	n/a
2632291	RECOG_CONF	n/a	LTP263	ltpFR	1	2	n/a	BUN	197	n/a	1	n/a	n/a	n/a	n/a	n/a	n/a
2633930	RECOG_TARGET	n/a	LTP263	ltpFR	1	2	0	PASTRY	1022	0	1	0	n/a	n/a	n/a	n/a	n/a
2634805	RECOG_RESP	n/a	LTP263	ltpFR	1	2	0	PASTRY	1022	0	n/a	0	n/a	n/a	n/a	n/a	n/a
2636082	RECOG_CONF	n/a	LTP263	ltpFR	1	2	0	PASTRY	1022	n/a	1	0	n/a	n/a	n/a	n/a	n/a
2637841	RECOG_TARGET	n/a	LTP263	ltpFR	1	2	-1	LODGE	839	1	5	-1	n/a	n/a	n/a	n/a	n/a
2639045	RECOG_RESP	n/a	LTP263	ltpFR	1	2	-1	LODGE	839	1	n/a	-1	n/a	n/a	n/a	n/a	n/a
2640213	RECOG_CONF	n/a	LTP263	ltpFR	1	2	-1	LODGE	839	n/a	5	-1	n/a	n/a	n/a	n/a	n/a
2642052	RECOG_TARGET	n/a	LTP263	ltpFR	1	2	0	DECK	443	1	5	1	n/a	n/a	n/a	n/a	n/a
2643036	RECOG_RESP	n/a	LTP263	ltpFR	1	2	0	DECK	443	1	n/a	1	n/a	n/a	n/a	n/a	n/a
2644184	RECOG_CONF	n/a	LTP263	ltpFR	1	2	0	DECK	443	n/a	5	1	n/a	n/a	n/a	n/a	n/a
2645829	RECOG_TARGET	n/a	LTP263	ltpFR	1	2	-1	BRUNETTE	181	1	5	-1	n/a	n/a	n/a	n/a	n/a
2646668	RECOG_RESP	n/a	LTP263	ltpFR	1	2	-1	BRUNETTE	181	1	n/a	-1	n/a	n/a	n/a	n/a	n/a
2647755	RECOG_CONF	n/a	LTP263	ltpFR	1	2	-1	BRUNETTE	181	n/a	5	-1	n/a	n/a	n/a	n/a	n/a
2649358	RECOG_TARGET	n/a	LTP263	ltpFR	1	2	1	PORK	1108	1	5	1	n/a	n/a	n/a	n/a	n/a
2650080	RECOG_RESP	n/a	LTP263	ltpFR	1	2	1	PORK	1108	1	n/a	1	n/a	n/a	n/a	n/a	n/a
2651108	RECOG_CONF	n/a	LTP263	ltpFR	1	2	1	PORK	1108	n/a	5	1	n/a	n/a	n/a	n/a	n/a
2652735	RECOG_TARGET	n/a	LTP263	ltpFR	1	2	-1	RUST	1219	1	5	-1	n/a	n/a	n/a	n/a	n/a
2653517	RECOG_RESP	n/a	LTP263	ltpFR	1	2	-1	RUST	1219	1	n/a	-1	n/a	n/a	n/a	n/a	n/a
2654590	RECOG_CONF	n/a	LTP263	ltpFR	1	2	-1	RUST	1219	n/a	5	-1	n/a	n/a	n/a	n/a	n/a
2656281	RECOG_TARGET	n/a	LTP263	ltpFR	1	2	1	VAULT	1550	1	3	0	n/a	n/a	n/a	n/a	n/a
2657738	RECOG_RESP	n/a	LTP263	ltpFR	1	2	1	VAULT	1550	1	n/a	0	n/a	n/a	n/a	n/a	n/a
2659389	RECOG_CONF	n/a	LTP263	ltpFR	1	2	1	VAULT	1550	n/a	3	0	n/a	n/a	n/a	n/a	n/a
2663193	REC_START	n/a	LTP263	ltpFR	1	3	n/a	n/a	n/a	n/a	n/a	n/a	n/a	n/a	n/a	n/a	n/a
2663221	RECOG_TARGET	n/a	LTP263	ltpFR	1	3	0	PISTON	1076	1	5	0	n/a	n/a	n/a	n/a	n/a
2664255	RECOG_RESP	n/a	LTP263	ltpFR	1	3	0	PISTON	1076	1	n/a	0	n/a	n/a	n/a	n/a	n/a
2665243	RECOG_CONF	n/a	LTP263	ltpFR	1	3	0	PISTON	1076	n/a	5	0	n/a	n/a	n/a	n/a	n/a
2666831	RECOG_TARGET	n/a	LTP263	ltpFR	1	3	0	ALLEY	15	1	3	1	n/a	n/a	n/a	n/a	n/a
2668286	RECOG_RESP	n/a	LTP263	ltpFR	1	3	0	ALLEY	15	1	n/a	1	n/a	n/a	n/a	n/a	n/a
2669464	RECOG_CONF	n/a	LTP263	ltpFR	1	3	0	ALLEY	15	n/a	3	1	n/a	n/a	n/a	n/a	n/a
2671008	RECOG_LURE	n/a	LTP263	ltpFR	1	3	n/a	DUSTPAN	509	0	1	n/a	n/a	n/a	n/a	n/a	n/a
2672177	RECOG_RESP	n/a	LTP263	ltpFR	1	3	n/a	DUSTPAN	509	0	n/a	n/a	n/a	n/a	n/a	n/a	n/a
2673305	RECOG_CONF	n/a	LTP263	ltpFR	1	3	n/a	DUSTPAN	509	n/a	1	n/a	n/a	n/a	n/a	n/a	n/a
2674919	RECOG_TARGET	n/a	LTP263	ltpFR	1	3	1	SIGNATURE	1306	1	5	0	n/a	n/a	n/a	n/a	n/a
2675749	RECOG_RESP	n/a	LTP263	ltpFR	1	3	1	SIGNATURE	1306	1	n/a	0	n/a	n/a	n/a	n/a	n/a
2676837	RECOG_CONF	n/a	LTP263	ltpFR	1	3	1	SIGNATURE	1306	n/a	5	0	n/a	n/a	n/a	n/a	n/a
2678481	RECOG_TARGET	n/a	LTP263	ltpFR	1	3	0	VESSEL	1558	0	1	0	n/a	n/a	n/a	n/a	n/a
2679750	RECOG_RESP	n/a	LTP263	ltpFR	1	3	0	VESSEL	1558	0	n/a	0	n/a	n/a	n/a	n/a	n/a
2681127	RECOG_CONF	n/a	LTP263	ltpFR	1	3	0	VESSEL	1558	n/a	1	0	n/a	n/a	n/a	n/a	n/a
2682973	RECOG_TARGET	n/a	LTP263	ltpFR	1	3	0	STEWARDESS	1381	1	5	1	n/a	n/a	n/a	n/a	n/a
2683931	RECOG_RESP	n/a	LTP263	ltpFR	1	3	0	STEWARDESS	1381	1	n/a	1	n/a	n/a	n/a	n/a	n/a
2685128	RECOG_CONF	n/a	LTP263	ltpFR	1	3	0	STEWARDESS	1381	n/a	5	1	n/a	n/a	n/a	n/a	n/a
2687085	RECOG_TARGET	n/a	LTP263	ltpFR	1	3	-1	ESSAY	540	1	5	-1	n/a	n/a	n/a	n/a	n/a
2688750	RECOG_RESP	n/a	LTP263	ltpFR	1	3	-1	ESSAY	540	1	n/a	-1	n/a	n/a	n/a	n/a	n/a
2689807	RECOG_CONF	n/a	LTP263	ltpFR	1	3	-1	ESSAY	540	n/a	5	-1	n/a	n/a	n/a	n/a	n/a
2691544	RECOG_TARGET	n/a	LTP263	ltpFR	1	3	1	CAKE	219	0	1	0	n/a	n/a	n/a	n/a	n/a
2695345	RECOG_RESP	n/a	LTP263	ltpFR	1	3	1	CAKE	219	0	n/a	0	n/a	n/a	n/a	n/a	n/a
2696781	RECOG_CONF	n/a	LTP263	ltpFR	1	3	1	CAKE	219	n/a	1	0	n/a	n/a	n/a	n/a	n/a
2698534	RECOG_TARGET	n/a	LTP263	ltpFR	1	3	1	EAGLE	512	1	5	1	n/a	n/a	n/a	n/a	n/a
2699670	RECOG_RESP	n/a	LTP263	ltpFR	1	3	1	EAGLE	512	1	n/a	1	n/a	n/a	n/a	n/a	n/a
2700902	RECOG_CONF	n/a	LTP263	ltpFR	1	3	1	EAGLE	512	n/a	5	1	n/a	n/a	n/a	n/a	n/a
2702462	RECOG_TARGET	n/a	LTP263	ltpFR	1	3	1	LUNCH	849	0	2	1	n/a	n/a	n/a	n/a	n/a
2703371	RECOG_RESP	n/a	LTP263	ltpFR	1	3	1	LUNCH	849	0	n/a	1	n/a	n/a	n/a	n/a	n/a
2704454	RECOG_CONF	n/a	LTP263	ltpFR	1	3	1	LUNCH	849	n/a	2	1	n/a	n/a	n/a	n/a	n/a
2706173	RECOG_TARGET	n/a	LTP263	ltpFR	1	3	0	PENCIL	1042	1	5	0	n/a	n/a	n/a	n/a	n/a
2707113	RECOG_RESP	n/a	LTP263	ltpFR	1	3	0	PENCIL	1042	1	n/a	0	n/a	n/a	n/a	n/a	n/a
2708186	RECOG_CONF	n/a	LTP263	ltpFR	1	3	0	PENCIL	1042	n/a	5	0	n/a	n/a	n/a	n/a	n/a
2709850	RECOG_TARGET	n/a	LTP263	ltpFR	1	3	-1	ENVELOPE	537	1	5	-1	n/a	n/a	n/a	n/a	n/a
2710849	RECOG_RESP	n/a	LTP263	ltpFR	1	3	-1	ENVELOPE	537	1	n/a	-1	n/a	n/a	n/a	n/a	n/a
2711927	RECOG_CONF	n/a	LTP263	ltpFR	1	3	-1	ENVELOPE	537	n/a	5	-1	n/a	n/a	n/a	n/a	n/a
2713412	RECOG_TARGET	n/a	LTP263	ltpFR	1	3	-1	CAB	209	0	1	-1	n/a	n/a	n/a	n/a	n/a
2715713	RECOG_RESP	n/a	LTP263	ltpFR	1	3	-1	CAB	209	0	n/a	-1	n/a	n/a	n/a	n/a	n/a
2716856	RECOG_CONF	n/a	LTP263	ltpFR	1	3	-1	CAB	209	n/a	1	-1	n/a	n/a	n/a	n/a	n/a
2718604	RECOG_LURE	n/a	LTP263	ltpFR	1	3	n/a	COMEDIAN	352	1	4	n/a	n/a	n/a	n/a	n/a	n/a
2720403	RECOG_RESP	n/a	LTP263	ltpFR	1	3	n/a	COMEDIAN	352	1	n/a	n/a	n/a	n/a	n/a	n/a	n/a
2721515	RECOG_CONF	n/a	LTP263	ltpFR	1	3	n/a	COMEDIAN	352	n/a	4	n/a	n/a	n/a	n/a	n/a	n/a
2723264	RECOG_TARGET	n/a	LTP263	ltpFR	1	3	-1	SUPERMARKET	1409	1	5	-1	n/a	n/a	n/a	n/a	n/a
2724339	RECOG_RESP	n/a	LTP263	ltpFR	1	3	-1	SUPERMARKET	1409	1	n/a	-1	n/a	n/a	n/a	n/a	n/a
2725456	RECOG_CONF	n/a	LTP263	ltpFR	1	3	-1	SUPERMARKET	1409	n/a	5	-1	n/a	n/a	n/a	n/a	n/a
2727192	RECOG_TARGET	n/a	LTP263	ltpFR	1	3	0	COLUMN	350	0	1	0	n/a	n/a	n/a	n/a	n/a
2728589	RECOG_RESP	n/a	LTP263	ltpFR	1	3	0	COLUMN	350	0	n/a	0	n/a	n/a	n/a	n/a	n/a
2730106	RECOG_CONF	n/a	LTP263	ltpFR	1	3	0	COLUMN	350	n/a	1	0	n/a	n/a	n/a	n/a	n/a
2731751	RECOG_TARGET	n/a	LTP263	ltpFR	1	3	0	AGENT	10	1	5	1	n/a	n/a	n/a	n/a	n/a
2732615	RECOG_RESP	n/a	LTP263	ltpFR	1	3	0	AGENT	10	1	n/a	1	n/a	n/a	n/a	n/a	n/a
2733797	RECOG_CONF	n/a	LTP263	ltpFR	1	3	0	AGENT	10	n/a	5	1	n/a	n/a	n/a	n/a	n/a
2735595	RECOG_LURE	n/a	LTP263	ltpFR	1	3	n/a	ARENA	37	0	2	n/a	n/a	n/a	n/a	n/a	n/a
2736900	RECOG_RESP	n/a	LTP263	ltpFR	1	3	n/a	ARENA	37	0	n/a	n/a	n/a	n/a	n/a	n/a	n/a
2737978	RECOG_CONF	n/a	LTP263	ltpFR	1	3	n/a	ARENA	37	n/a	2	n/a	n/a	n/a	n/a	n/a	n/a
2739589	RECOG_TARGET	n/a	LTP263	ltpFR	1	3	1	BULLY	196	1	5	1	n/a	n/a	n/a	n/a	n/a
2740547	RECOG_RESP	n/a	LTP263	ltpFR	1	3	1	BULLY	196	1	n/a	1	n/a	n/a	n/a	n/a	n/a
2741669	RECOG_CONF	n/a	LTP263	ltpFR	1	3	1	BULLY	196	n/a	5	1	n/a	n/a	n/a	n/a	n/a
2743284	RECOG_LURE	n/a	LTP263	ltpFR	1	3	n/a	TICK	1463	0	1	n/a	n/a	n/a	n/a	n/a	n/a
2745441	RECOG_RESP	n/a	LTP263	ltpFR	1	3	n/a	TICK	1463	0	n/a	n/a	n/a	n/a	n/a	n/a	n/a
2747177	RECOG_CONF	n/a	LTP263	ltpFR	1	3	n/a	TICK	1463	n/a	1	n/a	n/a	n/a	n/a	n/a	n/a
2751020	REC_START	n/a	LTP263	ltpFR	1	4	n/a	n/a	n/a	n/a	n/a	n/a	n/a	n/a	n/a	n/a	n/a
2751056	RECOG_LURE	n/a	LTP263	ltpFR	1	4	n/a	APPLE	33	0	1	n/a	n/a	n/a	n/a	n/a	n/a
2752287	RECOG_RESP	n/a	LTP263	ltpFR	1	4	n/a	APPLE	33	0	n/a	n/a	n/a	n/a	n/a	n/a	n/a
2753459	RECOG_CONF	n/a	LTP263	ltpFR	1	4	n/a	APPLE	33	n/a	1	n/a	n/a	n/a	n/a	n/a	n/a
2755067	RECOG_TARGET	n/a	LTP263	ltpFR	1	4	1	LOUNGE	845	0	1	0	n/a	n/a	n/a	n/a	n/a
2757026	RECOG_RESP	n/a	LTP263	ltpFR	1	4	1	LOUNGE	845	0	n/a	0	n/a	n/a	n/a	n/a	n/a
2758199	RECOG_CONF	n/a	LTP263	ltpFR	1	4	1	LOUNGE	845	n/a	1	0	n/a	n/a	n/a	n/a	n/a
2759875	RECOG_TARGET	n/a	LTP263	ltpFR	1	4	0	MONGOOSE	909	1	5	0	n/a	n/a	n/a	n/a	n/a
2761127	RECOG_RESP	n/a	LTP263	ltpFR	1	4	0	MONGOOSE	909	1	n/a	0	n/a	n/a	n/a	n/a	n/a
2762339	RECOG_CONF	n/a	LTP263	ltpFR	1	4	0	MONGOOSE	909	n/a	5	0	n/a	n/a	n/a	n/a	n/a
2763903	RECOG_TARGET	n/a	LTP263	ltpFR	1	4	1	CLIPPERS	324	0	1	0	n/a	n/a	n/a	n/a	n/a
2764833	RECOG_RESP	n/a	LTP263	ltpFR	1	4	1	CLIPPERS	324	0	n/a	0	n/a	n/a	n/a	n/a	n/a
2765901	RECOG_CONF	n/a	LTP263	ltpFR	1	4	1	CLIPPERS	324	n/a	1	0	n/a	n/a	n/a	n/a	n/a
2767664	RECOG_TARGET	n/a	LTP263	ltpFR	1	4	1	OBOE	969	1	5	0	n/a	n/a	n/a	n/a	n/a
2768540	RECOG_RESP	n/a	LTP263	ltpFR	1	4	1	OBOE	969	1	n/a	0	n/a	n/a	n/a	n/a	n/a
2769722	RECOG_CONF	n/a	LTP263	ltpFR	1	4	1	OBOE	969	n/a	5	0	n/a	n/a	n/a	n/a	n/a
2771209	RECOG_TARGET	n/a	LTP263	ltpFR	1	4	-1	INFANT	737	1	5	-1	n/a	n/a	n/a	n/a	n/a
2772022	RECOG_RESP	n/a	LTP263	ltpFR	1	4	-1	INFANT	737	1	n/a	-1	n/a	n/a	n/a	n/a	n/a
2773055	RECOG_CONF	n/a	LTP263	ltpFR	1	4	-1	INFANT	737	n/a	5	-1	n/a	n/a	n/a	n/a	n/a
2774504	RECOG_LURE	n/a	LTP263	ltpFR	1	4	n/a	CALENDAR	221	0	1	n/a	n/a	n/a	n/a	n/a	n/a
2775534	RECOG_RESP	n/a	LTP263	ltpFR	1	4	n/a	CALENDAR	221	0	n/a	n/a	n/a	n/a	n/a	n/a	n/a
2776627	RECOG_CONF	n/a	LTP263	ltpFR	1	4	n/a	CALENDAR	221	n/a	1	n/a	n/a	n/a	n/a	n/a	n/a
2778216	RECOG_TARGET	n/a	LTP263	ltpFR	1	4	1	BUS	201	1	5	0	n/a	n/a	n/a	n/a	n/a
2780897	RECOG_RESP	n/a	LTP263	ltpFR	1	4	1	BUS	201	1	n/a	0	n/a	n/a	n/a	n/a	n/a
2782124	RECOG_CONF	n/a	LTP263	ltpFR	1	4	1	BUS	201	n/a	5	0	n/a	n/a	n/a	n/a	n/a
2783806	RECOG_TARGET	n/a	LTP263	ltpFR	1	4	1	CONSUMER	365	1	5	1	n/a	n/a	n/a	n/a	n/a
2784633	RECOG_RESP	n/a	LTP263	ltpFR	1	4	1	CONSUMER	365	1	n/a	1	n/a	n/a	n/a	n/a	n/a
2785566	RECOG_CONF	n/a	LTP263	ltpFR	1	4	1	CONSUMER	365	n/a	5	1	n/a	n/a	n/a	n/a	n/a
2787302	RECOG_TARGET	n/a	LTP263	ltpFR	1	4	-1	BARREL	91	1	3	-1	n/a	n/a	n/a	n/a	n/a
2788904	RECOG_RESP	n/a	LTP263	ltpFR	1	4	-1	BARREL	91	1	n/a	-1	n/a	n/a	n/a	n/a	n/a
2790126	RECOG_CONF	n/a	LTP263	ltpFR	1	4	-1	BARREL	91	n/a	3	-1	n/a	n/a	n/a	n/a	n/a
2791977	RECOG_TARGET	n/a	LTP263	ltpFR	1	4	-1	LIP	828	0	2	-1	n/a	n/a	n/a	n/a	n/a
2792885	RECOG_RESP	n/a	LTP263	ltpFR	1	4	-1	LIP	828	0	n/a	-1	n/a	n/a	n/a	n/a	n/a
2794007	RECOG_CONF	n/a	LTP263	ltpFR	1	4	-1	LIP	828	n/a	2	-1	n/a	n/a	n/a	n/a	n/a
2795605	RECOG_TARGET	n/a	LTP263	ltpFR	1	4	-1	RATTLE	1170	0	1	-1	n/a	n/a	n/a	n/a	n/a
2799964	RECOG_RESP	n/a	LTP263	ltpFR	1	4	-1	RATTLE	1170	0	n/a	-1	n/a	n/a	n/a	n/a	n/a
2801251	RECOG_CONF	n/a	LTP263	ltpFR	1	4	-1	RATTLE	1170	n/a	1	-1	n/a	n/a	n/a	n/a	n/a
2803062	RECOG_LURE	n/a	LTP263	ltpFR	1	4	n/a	PORT	1110	0	1	n/a	n/a	n/a	n/a	n/a	n/a
2805271	RECOG_RESP	n/a	LTP263	ltpFR	1	4	n/a	PORT	1110	0	n/a	n/a	n/a	n/a	n/a	n/a	n/a
2806299	RECOG_CONF	n/a	LTP263	ltpFR	1	4	n/a	PORT	1110	n/a	1	n/a	n/a	n/a	n/a	n/a	n/a
2808171	RECOG_LURE	n/a	LTP263	ltpFR	1	4	n/a	FLOOR	581	0	1	n/a	n/a	n/a	n/a	n/a	n/a
2810046	RECOG_RESP	n/a	LTP263	ltpFR	1	4	n/a	FLOOR	581	0	n/a	n/a	n/a	n/a	n/a	n/a	n/a
2811228	RECOG_CONF	n/a	LTP263	ltpFR	1	4	n/a	FLOOR	581	n/a	1	n/a	n/a	n/a	n/a	n/a	n/a
2812963	RECOG_TARGET	n/a	LTP263	ltpFR	1	4	1	CAMEL	223	1	5	1	n/a	n/a	n/a	n/a	n/a
2813717	RECOG_RESP	n/a	LTP263	ltpFR	1	4	1	CAMEL	223	1	n/a	1	n/a	n/a	n/a	n/a	n/a
2814730	RECOG_CONF	n/a	LTP263	ltpFR	1	4	1	CAMEL	223	n/a	5	1	n/a	n/a	n/a	n/a	n/a
2816409	RECOG_TARGET	n/a	LTP263	ltpFR	1	4	-1	TAXI	1438	1	5	-1	n/a	n/a	n/a	n/a	n/a
2818696	RECOG_RESP	n/a	LTP263	ltpFR	1	4	-1	TAXI	1438	1	n/a	-1	n/a	n/a	n/a	n/a	n/a
2819749	RECOG_CONF	n/a	LTP263	ltpFR	1	4	-1	TAXI	1438	n/a	5	-1	n/a	n/a	n/a	n/a	n/a
2821418	RECOG_TARGET	n/a	LTP263	ltpFR	1	4	0	ARTICLE	42	1	3	0	n/a	n/a	n/a	n/a	n/a
2822986	RECOG_RESP	n/a	LTP263	ltpFR	1	4	0	ARTICLE	42	1	n/a	0	n/a	n/a	n/a	n/a	n/a
2824099	RECOG_CONF	n/a	LTP263	ltpFR	1	4	0	ARTICLE	42	n/a	3	0	n/a	n/a	n/a	n/a	n/a
2825660	RECOG_TARGET	n/a	LTP263	ltpFR	1	4	1	EARRING	514	1	5	1	n/a	n/a	n/a	n/a	n/a
2826678	RECOG_RESP	n/a	LTP263	ltpFR	1	4	1	EARRING	514	1	n/a	1	n/a	n/a	n/a	n/a	n/a
2827835	RECOG_CONF	n/a	LTP263	ltpFR	1	4	1	EARRING	514	n/a	5	1	n/a	n/a	n/a	n/a	n/a
2829638	RECOG_LURE	n/a	LTP263	ltpFR	1	4	n/a	SKULL	1320	0	1	n/a	n/a	n/a	n/a	n/a	n/a
2830903	RECOG_RESP	n/a	LTP263	ltpFR	1	4	n/a	SKULL	1320	0	n/a	n/a	n/a	n/a	n/a	n/a	n/a
2831941	RECOG_CONF	n/a	LTP263	ltpFR	1	4	n/a	SKULL	1320	n/a	1	n/a	n/a	n/a	n/a	n/a	n/a
2833715	RECOG_LURE	n/a	LTP263	ltpFR	1	4	n/a	ZUCCHINI	1638	0	1	n/a	n/a	n/a	n/a	n/a	n/a
2834640	RECOG_RESP	n/a	LTP263	ltpFR	1	4	n/a	ZUCCHINI	1638	0	n/a	n/a	n/a	n/a	n/a	n/a	n/a
2835762	RECOG_CONF	n/a	LTP263	ltpFR	1	4	n/a	ZUCCHINI	1638	n/a	1	n/a	n/a	n/a	n/a	n/a	n/a
2838981	REC_START	n/a	LTP263	ltpFR	1	5	n/a	n/a	n/a	n/a	n/a	n/a	n/a	n/a	n/a	n/a	n/a
2839007	RECOG_LURE	n/a	LTP263	ltpFR	1	5	n/a	NOMAD	955	0	1	n/a	n/a	n/a	n/a	n/a	n/a
2840318	RECOG_RESP	n/a	LTP263	ltpFR	1	5	n/a	NOMAD	955	0	n/a	n/a	n/a	n/a	n/a	n/a	n/a
2841829	RECOG_CONF	n/a	LTP263	ltpFR	1	5	n/a	NOMAD	955	n/a	1	n/a	n/a	n/a	n/a	n/a	n/a
2843683	RECOG_TARGET	n/a	LTP263	ltpFR	1	5	1	CORAL	378	1	5	0	n/a	n/a	n/a	n/a	n/a
2844493	RECOG_RESP	n/a	LTP263	ltpFR	1	5	1	CORAL	378	1	n/a	0	n/a	n/a	n/a	n/a	n/a
2845830	RECOG_CONF	n/a	LTP263	ltpFR	1	5	1	CORAL	378	n/a	5	0	n/a	n/a	n/a	n/a	n/a
2847594	RECOG_TARGET	n/a	LTP263	ltpFR	1	5	-1	LINEN	825	1	5	-1	n/a	n/a	n/a	n/a	n/a
2848509	RECOG_RESP	n/a	LTP263	ltpFR	1	5	-1	LINEN	825	1	n/a	-1	n/a	n/a	n/a	n/a	n/a
2849632	RECOG_CONF	n/a	LTP263	ltpFR	1	5	-1	LINEN	825	n/a	5	-1	n/a	n/a	n/a	n/a	n/a
2851373	RECOG_TARGET	n/a	LTP263	ltpFR	1	5	1	CHISEL	305	1	5	0	n/a	n/a	n/a	n/a	n/a
2852405	RECOG_RESP	n/a	LTP263	ltpFR	1	5	1	CHISEL	305	1	n/a	0	n/a	n/a	n/a	n/a	n/a
2853473	RECOG_CONF	n/a	LTP263	ltpFR	1	5	1	CHISEL	305	n/a	5	0	n/a	n/a	n/a	n/a	n/a
2855067	RECOG_LURE	n/a	LTP263	ltpFR	1	5	n/a	PRIEST	1122	0	1	n/a	n/a	n/a	n/a	n/a	n/a
2857833	RECOG_RESP	n/a	LTP263	ltpFR	1	5	n/a	PRIEST	1122	0	n/a	n/a	n/a	n/a	n/a	n/a	n/a
2859180	RECOG_CONF	n/a	LTP263	ltpFR	1	5	n/a	PRIEST	1122	n/a	1	n/a	n/a	n/a	n/a	n/a	n/a
2860924	RECOG_LURE	n/a	LTP263	ltpFR	1	5	n/a	CABBAGE	210	0	1	n/a	n/a	n/a	n/a	n/a	n/a
2862118	RECOG_RESP	n/a	LTP263	ltpFR	1	5	n/a	CABBAGE	210	0	n/a	n/a	n/a	n/a	n/a	n/a	n/a
2863131	RECOG_CONF	n/a	LTP263	ltpFR	1	5	n/a	CABBAGE	210	n/a	1	n/a	n/a	n/a	n/a	n/a	n/a
2864868	RECOG_TARGET	n/a	LTP263	ltpFR	1	5	1	VILLAGE	1566	0	1	3	n/a	n/a	n/a	n/a	n/a
2867092	RECOG_RESP	n/a	LTP263	ltpFR	1	5	1	VILLAGE	1566	0	n/a	3	n/a	n/a	n/a	n/a	n/a
2869596	RECOG_CONF	n/a	LTP263	ltpFR	1	5	1	VILLAGE	1566	n/a	1	3	n/a	n/a	n/a	n/a	n/a
2871493	RECOG_TARGET	n/a	LTP263	ltpFR	1	5	1	CALF	222	1	1	1	n/a	n/a	n/a	n/a	n/a
2874490	RECOG_RESP	n/a	LTP263	ltpFR	1	5	1	CALF	222	1	n/a	1	n/a	n/a	n/a	n/a	n/a
2875652	RECOG_CONF	n/a	LTP263	ltpFR	1	5	1	CALF	222	n/a	1	1	n/a	n/a	n/a	n/a	n/a
2877334	RECOG_TARGET	n/a	LTP263	ltpFR	1	5	-1	SHARK	1275	1	5	-1	n/a	n/a	n/a	n/a	n/a
2878486	RECOG_RESP	n/a	LTP263	ltpFR	1	5	-1	SHARK	1275	1	n/a	-1	n/a	n/a	n/a	n/a	n/a
2880761	RECOG_CONF	n/a	LTP263	ltpFR	1	5	-1	SHARK	1275	n/a	5	-1	n/a	n/a	n/a	n/a	n/a
2882559	RECOG_TARGET	n/a	LTP263	ltpFR	1	5	0	NUCLEUS	961	1	5	0	n/a	n/a	n/a	n/a	n/a
2883694	RECOG_RESP	n/a	LTP263	ltpFR	1	5	0	NUCLEUS	961	1	n/a	0	n/a	n/a	n/a	n/a	n/a
2884802	RECOG_CONF	n/a	LTP263	ltpFR	1	5	0	NUCLEUS	961	n/a	5	0	n/a	n/a	n/a	n/a	n/a
2886437	RECOG_LURE	n/a	LTP263	ltpFR	1	5	n/a	TIDE	1465	0	1	n/a	n/a	n/a	n/a	n/a	n/a
2887246	RECOG_RESP	n/a	LTP263	ltpFR	1	5	n/a	TIDE	1465	0	n/a	n/a	n/a	n/a	n/a	n/a	n/a
2888443	RECOG_CONF	n/a	LTP263	ltpFR	1	5	n/a	TIDE	1465	n/a	1	n/a	n/a	n/a	n/a	n/a	n/a
2890232	RECOG_TARGET	n/a	LTP263	ltpFR	1	5	0	KING	777	0	1	1	n/a	n/a	n/a	n/a	n/a
2891751	RECOG_RESP	n/a	LTP263	ltpFR	1	5	0	KING	777	0	n/a	1	n/a	n/a	n/a	n/a	n/a
2892993	RECOG_CONF	n/a	LTP263	ltpFR	1	5	0	KING	777	n/a	1	1	n/a	n/a	n/a	n/a	n/a
2894641	RECOG_TARGET	n/a	LTP263	ltpFR	1	5	1	DINNER	468	1	5	0	n/a	n/a	n/a	n/a	n/a
2895662	RECOG_RESP	n/a	LTP263	ltpFR	1	5	1	DINNER	468	1	n/a	0	n/a	n/a	n/a	n/a	n/a
2896715	RECOG_CONF	n/a	LTP263	ltpFR	1	5	1	DINNER	468	n/a	5	0	n/a	n/a	n/a	n/a	n/a
2898253	RECOG_TARGET	n/a	LTP263	ltpFR	1	5	0	RIB	1188	1	5	0	n/a	n/a	n/a	n/a	n/a
2899079	RECOG_RESP	n/a	LTP263	ltpFR	1	5	0	RIB	1188	1	n/a	0	n/a	n/a	n/a	n/a	n/a
2900147	RECOG_CONF	n/a	LTP263	ltpFR	1	5	0	RIB	1188	n/a	5	0	n/a	n/a	n/a	n/a	n/a
2901913	RECOG_TARGET	n/a	LTP263	ltpFR	1	5	0	OATS	968	1	3	0	n/a	n/a	n/a	n/a	n/a
2907745	RECOG_RESP	n/a	LTP263	ltpFR	1	5	0	OATS	968	1	n/a	0	n/a	n/a	n/a	n/a	n/a
2908807	RECOG_CONF	n/a	LTP263	ltpFR	1	5	0	OATS	968	n/a	3	0	n/a	n/a	n/a	n/a	n/a
2910650	RECOG_TARGET	n/a	LTP263	ltpFR	1	5	0	CARDINAL	244	1	5	0	n/a	n/a	n/a	n/a	n/a
2911760	RECOG_RESP	n/a	LTP263	ltpFR	1	5	0	CARDINAL	244	1	n/a	0	n/a	n/a	n/a	n/a	n/a
2912948	RECOG_CONF	n/a	LTP263	ltpFR	1	5	0	CARDINAL	244	n/a	5	0	n/a	n/a	n/a	n/a	n/a
2914594	RECOG_TARGET	n/a	LTP263	ltpFR	1	5	-1	WRIST	1626	1	3	-1	n/a	n/a	n/a	n/a	n/a
2916046	RECOG_RESP	n/a	LTP263	ltpFR	1	5	-1	WRIST	1626	1	n/a	-1	n/a	n/a	n/a	n/a	n/a
2917118	RECOG_CONF	n/a	LTP263	ltpFR	1	5	-1	WRIST	1626	n/a	3	-1	n/a	n/a	n/a	n/a	n/a
2918638	RECOG_TARGET	n/a	LTP263	ltpFR	1	5	1	FLEA	577	1	5	1	n/a	n/a	n/a	n/a	n/a
2920047	RECOG_RESP	n/a	LTP263	ltpFR	1	5	1	FLEA	577	1	n/a	1	n/a	n/a	n/a	n/a	n/a
2921239	RECOG_CONF	n/a	LTP263	ltpFR	1	5	1	FLEA	577	n/a	5	1	n/a	n/a	n/a	n/a	n/a
2922799	RECOG_LURE	n/a	LTP263	ltpFR	1	5	n/a	BASSINET	97	0	4	n/a	n/a	n/a	n/a	n/a	n/a
2924157	RECOG_RESP	n/a	LTP263	ltpFR	1	5	n/a	BASSINET	97	0	n/a	n/a	n/a	n/a	n/a	n/a	n/a
2925250	RECOG_CONF	n/a	LTP263	ltpFR	1	5	n/a	BASSINET	97	n/a	4	n/a	n/a	n/a	n/a	n/a	n/a
2926892	RECOG_TARGET	n/a	LTP263	ltpFR	1	5	-1	DETERGENT	455	1	5	-1	n/a	n/a	n/a	n/a	n/a
2927993	RECOG_RESP	n/a	LTP263	ltpFR	1	5	-1	DETERGENT	455	1	n/a	-1	n/a	n/a	n/a	n/a	n/a
2929051	RECOG_CONF	n/a	LTP263	ltpFR	1	5	-1	DETERGENT	455	n/a	5	-1	n/a	n/a	n/a	n/a	n/a
2932449	REC_START	n/a	LTP263	ltpFR	1	6	n/a	n/a	n/a	n/a	n/a	n/a	n/a	n/a	n/a	n/a	n/a
2932485	RECOG_TARGET	n/a	LTP263	ltpFR	1	6	0	COTTON	385	0	1	0	n/a	n/a	n/a	n/a	n/a
2938784	RECOG_RESP	n/a	LTP263	ltpFR	1	6	0	COTTON	385	0	n/a	0	n/a	n/a	n/a	n/a	n/a
2940735	RECOG_CONF	n/a	LTP263	ltpFR	1	6	0	COTTON	385	n/a	1	0	n/a	n/a	n/a	n/a	n/a
2942869	RECOG_TARGET	n/a	LTP263	ltpFR	1	6	-1	MOON	914	1	5	-1	n/a	n/a	n/a	n/a	n/a
2943549	RECOG_RESP	n/a	LTP263	ltpFR	1	6	-1	MOON	914	1	n/a	-1	n/a	n/a	n/a	n/a	n/a
2944816	RECOG_CONF	n/a	LTP263	ltpFR	1	6	-1	MOON	914	n/a	5	-1	n/a	n/a	n/a	n/a	n/a
2946481	RECOG_TARGET	n/a	LTP263	ltpFR	1	6	0	CLASS	318	1	5	1	n/a	n/a	n/a	n/a	n/a
2947819	RECOG_RESP	n/a	LTP263	ltpFR	1	6	0	CLASS	318	1	n/a	1	n/a	n/a	n/a	n/a	n/a
2949136	RECOG_CONF	n/a	LTP263	ltpFR	1	6	0	CLASS	318	n/a	5	1	n/a	n/a	n/a	n/a	n/a
2950923	RECOG_TARGET	n/a	LTP263	ltpFR	1	6	1	NOTE	958	0	1	0	n/a	n/a	n/a	n/a	n/a
2952219	RECOG_RESP	n/a	LTP263	ltpFR	1	6	1	NOTE	958	0	n/a	0	n/a	n/a	n/a	n/a	n/a
2953446	RECOG_CONF	n/a	LTP263	ltpFR	1	6	1	NOTE	958	n/a	1	0	n/a	n/a	n/a	n/a	n/a
2955418	RECOG_TARGET	n/a	LTP263	ltpFR	1	6	-1	FIG	563	1	5	-1	n/a	n/a	n/a	n/a	n/a
2956090	RECOG_RESP	n/a	LTP263	ltpFR	1	6	-1	FIG	563	1	n/a	-1	n/a	n/a	n/a	n/a	n/a
2957277	RECOG_CONF	n/a	LTP263	ltpFR	1	6	-1	FIG	563	n/a	5	-1	n/a	n/a	n/a	n/a	n/a
2958861	RECOG_TARGET	n/a	LTP263	ltpFR	1	6	1	BAY	102	1	5	0	n/a	n/a	n/a	n/a	n/a
2959742	RECOG_RESP	n/a	LTP263	ltpFR	1	6	1	BAY	102	1	n/a	0	n/a	n/a	n/a	n/a	n/a
2960889	RECOG_CONF	n/a	LTP263	ltpFR	1	6	1	BAY	102	n/a	5	0	n/a	n/a	n/a	n/a	n/a
2962457	RECOG_TARGET	n/a	LTP263	ltpFR	1	6	0	BOMB	147	1	5	0	n/a	n/a	n/a	n/a	n/a
2963503	RECOG_RESP	n/a	LTP263	ltpFR	1	6	0	BOMB	147	1	n/a	0	n/a	n/a	n/a	n/a	n/a
2964581	RECOG_CONF	n/a	LTP263	ltpFR	1	6	0	BOMB	147	n/a	5	0	n/a	n/a	n/a	n/a	n/a
2966318	RECOG_TARGET	n/a	LTP263	ltpFR	1	6	0	PEOPLE	1046	1	4	1	n/a	n/a	n/a	n/a	n/a
2967494	RECOG_RESP	n/a	LTP263	ltpFR	1	6	0	PEOPLE	1046	1	n/a	1	n/a	n/a	n/a	n/a	n/a
2968691	RECOG_CONF	n/a	LTP263	ltpFR	1	6	0	PEOPLE	1046	n/a	4	1	n/a	n/a	n/a	n/a	n/a
2970229	RECOG_TARGET	n/a	LTP263	ltpFR	1	6	1	CANNON	232	0	1	0	n/a	n/a	n/a	n/a	n/a
2971221	RECOG_RESP	n/a	LTP263	ltpFR	1	6	1	CANNON	232	0	n/a	0	n/a	n/a	n/a	n/a	n/a
2972213	RECOG_CONF	n/a	LTP263	ltpFR	1	6	1	CANNON	232	n/a	1	0	n/a	n/a	n/a	n/a	n/a
2973756	RECOG_TARGET	n/a	LTP263	ltpFR	1	6	0	TABLE	1426	0	1	0	n/a	n/a	n/a	n/a	n/a
2975087	RECOG_RESP	n/a	LTP263	ltpFR	1	6	0	TABLE	1426	0	n/a	0	n/a	n/a	n/a	n/a	n/a
2976164	RECOG_CONF	n/a	LTP263	ltpFR	1	6	0	TABLE	1426	n/a	1	0	n/a	n/a	n/a	n/a	n/a
2977783	RECOG_TARGET	n/a	LTP263	ltpFR	1	6	-1	GARAGE	621	0	2	-1	n/a	n/a	n/a	n/a	n/a
2978898	RECOG_RESP	n/a	LTP263	ltpFR	1	6	-1	GARAGE	621	0	n/a	-1	n/a	n/a	n/a	n/a	n/a
2980026	RECOG_CONF	n/a	LTP263	ltpFR	1	6	-1	GARAGE	621	n/a	2	-1	n/a	n/a	n/a	n/a	n/a
2981811	RECOG_TARGET	n/a	LTP263	ltpFR	1	6	1	CABINET	212	1	5	0	n/a	n/a	n/a	n/a	n/a
2983054	RECOG_RESP	n/a	LTP263	ltpFR	1	6	1	CABINET	212	1	n/a	0	n/a	n/a	n/a	n/a	n/a
2984047	RECOG_CONF	n/a	LTP263	ltpFR	1	6	1	CABINET	212	n/a	5	0	n/a	n/a	n/a	n/a	n/a
2985621	RECOG_TARGET	n/a	LTP263	ltpFR	1	6	0	TOMATO	1476	0	1	0	n/a	n/a	n/a	n/a	n/a
2986551	RECOG_RESP	n/a	LTP263	ltpFR	1	6	0	TOMATO	1476	0	n/a	0	n/a	n/a	n/a	n/a	n/a
2987598	RECOG_CONF	n/a	LTP263	ltpFR	1	6	0	TOMATO	1476	n/a	1	0	n/a	n/a	n/a	n/a	n/a
2989284	RECOG_TARGET	n/a	LTP263	ltpFR	1	6	0	DETECTIVE	454	1	5	1	n/a	n/a	n/a	n/a	n/a
2990227	RECOG_RESP	n/a	LTP263	ltpFR	1	6	0	DETECTIVE	454	1	n/a	1	n/a	n/a	n/a	n/a	n/a
2991220	RECOG_CONF	n/a	LTP263	ltpFR	1	6	0	DETECTIVE	454	n/a	5	1	n/a	n/a	n/a	n/a	n/a
2992811	RECOG_TARGET	n/a	LTP263	ltpFR	1	6	0	ELEVATOR	524	0	1	1	n/a	n/a	n/a	n/a	n/a
2994583	RECOG_RESP	n/a	LTP263	ltpFR	1	6	0	ELEVATOR	524	0	n/a	1	n/a	n/a	n/a	n/a	n/a
2995710	RECOG_CONF	n/a	LTP263	ltpFR	1	6	0	ELEVATOR	524	n/a	1	1	n/a	n/a	n/a	n/a	n/a
2997505	RECOG_TARGET	n/a	LTP263	ltpFR	1	6	-1	BEDROOM	111	1	4	-1	n/a	n/a	n/a	n/a	n/a
2999776	RECOG_RESP	n/a	LTP263	ltpFR	1	6	-1	BEDROOM	111	1	n/a	-1	n/a	n/a	n/a	n/a	n/a
3001178	RECOG_CONF	n/a	LTP263	ltpFR	1	6	-1	BEDROOM	111	n/a	4	-1	n/a	n/a	n/a	n/a	n/a
3002812	RECOG_TARGET	n/a	LTP263	ltpFR	1	6	1	STEP	1377	0	1	0	n/a	n/a	n/a	n/a	n/a
3003732	RECOG_RESP	n/a	LTP263	ltpFR	1	6	1	STEP	1377	0	n/a	0	n/a	n/a	n/a	n/a	n/a
3004829	RECOG_CONF	n/a	LTP263	ltpFR	1	6	1	STEP	1377	n/a	1	0	n/a	n/a	n/a	n/a	n/a
3006491	RECOG_LURE	n/a	LTP263	ltpFR	1	6	n/a	CERAMICS	271	0	1	n/a	n/a	n/a	n/a	n/a	n/a
3008326	RECOG_RESP	n/a	LTP263	ltpFR	1	6	n/a	CERAMICS	271	0	n/a	n/a	n/a	n/a	n/a	n/a	n/a
3009628	RECOG_CONF	n/a	LTP263	ltpFR	1	6	n/a	CERAMICS	271	n/a	1	n/a	n/a	n/a	n/a	n/a	n/a
3011401	RECOG_TARGET	n/a	LTP263	ltpFR	1	6	1	GLACIER	638	1	5	1	n/a	n/a	n/a	n/a	n/a
3012652	RECOG_RESP	n/a	LTP263	ltpFR	1	6	1	GLACIER	638	1	n/a	1	n/a	n/a	n/a	n/a	n/a
3014018	RECOG_CONF	n/a	LTP263	ltpFR	1	6	1	GLACIER	638	n/a	5	1	n/a	n/a	n/a	n/a	n/a
3015593	RECOG_LURE	n/a	LTP263	ltpFR	1	6	n/a	CARNIVAL	245	0	2	n/a	n/a	n/a	n/a	n/a	n/a
3017491	RECOG_RESP	n/a	LTP263	ltpFR	1	6	n/a	CARNIVAL	245	0	n/a	n/a	n/a	n/a	n/a	n/a	n/a
3020145	RECOG_CONF	n/a	LTP263	ltpFR	1	6	n/a	CARNIVAL	245	n/a	2	n/a	n/a	n/a	n/a	n/a	n/a
3454507	REC_START	n/a	LTP263	ltpFR	1	7	n/a	n/a	n/a	n/a	n/a	n/a	n/a	n/a	n/a	n/a	n/a
3454538	RECOG_LURE	n/a	LTP263	ltpFR	1	7	n/a	ATLAS	53	0	1	n/a	n/a	n/a	n/a	n/a	n/a
3455599	RECOG_RESP	n/a	LTP263	ltpFR	1	7	n/a	ATLAS	53	0	n/a	n/a	n/a	n/a	n/a	n/a	n/a
3457315	RECOG_CONF	n/a	LTP263	ltpFR	1	7	n/a	ATLAS	53	n/a	1	n/a	n/a	n/a	n/a	n/a	n/a
3459082	RECOG_TARGET	n/a	LTP263	ltpFR	1	7	1	COUGAR	387	1	3	1	n/a	n/a	n/a	n/a	n/a
3460254	RECOG_RESP	n/a	LTP263	ltpFR	1	7	1	COUGAR	387	1	n/a	1	n/a	n/a	n/a	n/a	n/a
3461755	RECOG_CONF	n/a	LTP263	ltpFR	1	7	1	COUGAR	387	n/a	3	1	n/a	n/a	n/a	n/a	n/a
3463376	RECOG_TARGET	n/a	LTP263	ltpFR	1	7	0	MAT	877	0	1	0	n/a	n/a	n/a	n/a	n/a
3464309	RECOG_RESP	n/a	LTP263	ltpFR	1	7	0	MAT	877	0	n/a	0	n/a	n/a	n/a	n/a	n/a
3465507	RECOG_CONF	n/a	LTP263	ltpFR	1	7	0	MAT	877	n/a	1	0	n/a	n/a	n/a	n/a	n/a
3467701	RECOG_TARGET	n/a	LTP263	ltpFR	1	7	-1	BUG	187	1	4	-1	n/a	n/a	n/a	n/a	n/a
3468560	RECOG_RESP	n/a	LTP263	ltpFR	1	7	-1	BUG	187	1	n/a	-1	n/a	n/a	n/a	n/a	n/a
3469588	RECOG_CONF	n/a	LTP263	ltpFR	1	7	-1	BUG	187	n/a	4	-1	n/a	n/a	n/a	n/a	n/a
3471164	RECOG_TARGET	n/a	LTP263	ltpFR	1	7	1	DISH	474	1	4	0	n/a	n/a	n/a	n/a	n/a
3472316	RECOG_RESP	n/a	LTP263	ltpFR	1	7	1	DISH	474	1	n/a	0	n/a	n/a	n/a	n/a	n/a
3473479	RECOG_CONF	n/a	LTP263	ltpFR	1	7	1	DISH	474	n/a	4	0	n/a	n/a	n/a	n/a	n/a
3475391	RECOG_TARGET	n/a	LTP263	ltpFR	1	7	0	DOCK	477	1	5	1	n/a	n/a	n/a	n/a	n/a
3476666	RECOG_RESP	n/a	LTP263	ltpFR	1	7	0	DOCK	477	1	n/a	1	n/a	n/a	n/a	n/a	n/a
3477809	RECOG_CONF	n/a	LTP263	ltpFR	1	7	0	DOCK	477	n/a	5	1	n/a	n/a	n/a	n/a	n/a
3479485	RECOG_TARGET	n/a	LTP263	ltpFR	1	7	-1	JUNGLE	764	1	5	-1	n/a	n/a	n/a	n/a	n/a
3480243	RECOG_RESP	n/a	LTP263	ltpFR	1	7	-1	JUNGLE	764	1	n/a	-1	n/a	n/a	n/a	n/a	n/a
3481211	RECOG_CONF	n/a	LTP263	ltpFR	1	7	-1	JUNGLE	764	n/a	5	-1	n/a	n/a	n/a	n/a	n/a
3482846	RECOG_LURE	n/a	LTP263	ltpFR	1	7	n/a	JAPAN	749	0	3	n/a	n/a	n/a	n/a	n/a	n/a
3483715	RECOG_RESP	n/a	LTP263	ltpFR	1	7	n/a	JAPAN	749	0	n/a	n/a	n/a	n/a	n/a	n/a	n/a
3484893	RECOG_CONF	n/a	LTP263	ltpFR	1	7	n/a	JAPAN	749	n/a	3	n/a	n/a	n/a	n/a	n/a	n/a
3486523	RECOG_TARGET	n/a	LTP263	ltpFR	1	7	1	ARCHITECT	36	1	5	1	n/a	n/a	n/a	n/a	n/a
3487247	RECOG_RESP	n/a	LTP263	ltpFR	1	7	1	ARCHITECT	36	1	n/a	1	n/a	n/a	n/a	n/a	n/a
3488175	RECOG_CONF	n/a	LTP263	ltpFR	1	7	1	ARCHITECT	36	n/a	5	1	n/a	n/a	n/a	n/a	n/a
3489685	RECOG_LURE	n/a	LTP263	ltpFR	1	7	n/a	SQUIRREL	1362	0	1	n/a	n/a	n/a	n/a	n/a	n/a
3491024	RECOG_RESP	n/a	LTP263	ltpFR	1	7	n/a	SQUIRREL	1362	0	n/a	n/a	n/a	n/a	n/a	n/a	n/a
3492206	RECOG_CONF	n/a	LTP263	ltpFR	1	7	n/a	SQUIRREL	1362	n/a	1	n/a	n/a	n/a	n/a	n/a	n/a
3493846	RECOG_TARGET	n/a	LTP263	ltpFR	1	7	0	LOFT	840	0	1	1	n/a	n/a	n/a	n/a	n/a
3497434	RECOG_RESP	n/a	LTP263	ltpFR	1	7	0	LOFT	840	0	n/a	1	n/a	n/a	n/a	n/a	n/a
3498482	RECOG_CONF	n/a	LTP263	ltpFR	1	7	0	LOFT	840	n/a	1	1	n/a	n/a	n/a	n/a	n/a
3500237	RECOG_TARGET	n/a	LTP263	ltpFR	1	7	1	TIMBER	1469	1	3	0	n/a	n/a	n/a	n/a	n/a
3503620	RECOG_RESP	n/a	LTP263	ltpFR	1	7	1	TIMBER	1469	1	n/a	0	n/a	n/a	n/a	n/a	n/a
3504638	RECOG_CONF	n/a	LTP263	ltpFR	1	7	1	TIMBER	1469	n/a	3	0	n/a	n/a	n/a	n/a	n/a
3506228	RECOG_TARGET	n/a	LTP263	ltpFR	1	7	-1	BEET	115	1	5	-1	n/a	n/a	n/a	n/a	n/a
3507122	RECOG_RESP	n/a	LTP263	ltpFR	1	7	-1	BEET	115	1	n/a	-1	n/a	n/a	n/a	n/a	n/a
3508230	RECOG_CONF	n/a	LTP263	ltpFR	1	7	-1	BEET	115	n/a	5	-1	n/a	n/a	n/a	n/a	n/a
3509889	RECOG_TARGET	n/a	LTP263	ltpFR	1	7	-1	SWAMP	1416	1	3	-1	n/a	n/a	n/a	n/a	n/a
3511333	RECOG_RESP	n/a	LTP263	ltpFR	1	7	-1	SWAMP	1416	1	n/a	-1	n/a	n/a	n/a	n/a	n/a
3512380	RECOG_CONF	n/a	LTP263	ltpFR	1	7	-1	SWAMP	1416	n/a	3	-1	n/a	n/a	n/a	n/a	n/a
3514216	RECOG_TARGET	n/a	LTP263	ltpFR	1	7	1	PASSAGE	1019	1	5	0	n/a	n/a	n/a	n/a	n/a
3515284	RECOG_RESP	n/a	LTP263	ltpFR	1	7	1	PASSAGE	1019	1	n/a	0	n/a	n/a	n/a	n/a	n/a
3516251	RECOG_CONF	n/a	LTP263	ltpFR	1	7	1	PASSAGE	1019	n/a	5	0	n/a	n/a	n/a	n/a	n/a
3518077	RECOG_TARGET	n/a	LTP263	ltpFR	1	7	1	MAJOR	859	1	5	0	n/a	n/a	n/a	n/a	n/a
3518885	RECOG_RESP	n/a	LTP263	ltpFR	1	7	1	MAJOR	859	1	n/a	0	n/a	n/a	n/a	n/a	n/a
3519903	RECOG_CONF	n/a	LTP263	ltpFR	1	7	1	MAJOR	859	n/a	5	0	n/a	n/a	n/a	n/a	n/a
3521521	RECOG_TARGET	n/a	LTP263	ltpFR	1	7	0	ELF	525	1	5	1	n/a	n/a	n/a	n/a	n/a
3522188	RECOG_RESP	n/a	LTP263	ltpFR	1	7	0	ELF	525	1	n/a	1	n/a	n/a	n/a	n/a	n/a
3523286	RECOG_CONF	n/a	LTP263	ltpFR	1	7	0	ELF	525	n/a	5	1	n/a	n/a	n/a	n/a	n/a
3524916	RECOG_TARGET	n/a	LTP263	ltpFR	1	7	0	ACTRESS	6	1	5	1	n/a	n/a	n/a	n/a	n/a
3525685	RECOG_RESP	n/a	LTP263	ltpFR	1	7	0	ACTRESS	6	1	n/a	1	n/a	n/a	n/a	n/a	n/a
3526628	RECOG_CONF	n/a	LTP263	ltpFR	1	7	0	ACTRESS	6	n/a	5	1	n/a	n/a	n/a	n/a	n/a
3528229	RECOG_TARGET	n/a	LTP263	ltpFR	1	7	1	SLIDE	1326	0	1	0	n/a	n/a	n/a	n/a	n/a
3530300	RECOG_RESP	n/a	LTP263	ltpFR	1	7	1	SLIDE	1326	0	n/a	0	n/a	n/a	n/a	n/a	n/a
3531716	RECOG_CONF	n/a	LTP263	ltpFR	1	7	1	SLIDE	1326	n/a	1	0	n/a	n/a	n/a	n/a	n/a
3533471	RECOG_LURE	n/a	LTP263	ltpFR	1	7	n/a	PUZZLE	1146	1	1	n/a	n/a	n/a	n/a	n/a	n/a
3536378	RECOG_RESP	n/a	LTP263	ltpFR	1	7	n/a	PUZZLE	1146	1	n/a	n/a	n/a	n/a	n/a	n/a	n/a
3537613	RECOG_CONF	n/a	LTP263	ltpFR	1	7	n/a	PUZZLE	1146	n/a	1	n/a	n/a	n/a	n/a	n/a	n/a
3541839	REC_START	n/a	LTP263	ltpFR	1	8	n/a	n/a	n/a	n/a	n/a	n/a	n/a	n/a	n/a	n/a	n/a
3541874	RECOG_TARGET	n/a	LTP263	ltpFR	1	8	1	FLASK	576	1	1	0	n/a	n/a	n/a	n/a	n/a
3543231	RECOG_RESP	n/a	LTP263	ltpFR	1	8	1	FLASK	576	1	n/a	0	n/a	n/a	n/a	n/a	n/a
3544408	RECOG_CONF	n/a	LTP263	ltpFR	1	8	1	FLASK	576	n/a	1	0	n/a	n/a	n/a	n/a	n/a
3546102	RECOG_TARGET	n/a	LTP263	ltpFR	1	8	0	PLUMBER	1091	1	1	0	n/a	n/a	n/a	n/a	n/a
3548264	RECOG_RESP	n/a	LTP263	ltpFR	1	8	0	PLUMBER	1091	1	n/a	0	n/a	n/a	n/a	n/a	n/a
3549417	RECOG_CONF	n/a	LTP263	ltpFR	1	8	0	PLUMBER	1091	n/a	1	0	n/a	n/a	n/a	n/a	n/a
3551111	RECOG_LURE	n/a	LTP263	ltpFR	1	8	n/a	CHART	282	0	1	n/a	n/a	n/a	n/a	n/a	n/a
3553328	RECOG_RESP	n/a	LTP263	ltpFR	1	8	n/a	CHART	282	0	n/a	n/a	n/a	n/a	n/a	n/a	n/a
3554405	RECOG_CONF	n/a	LTP263	ltpFR	1	8	n/a	CHART	282	n/a	1	n/a	n/a	n/a	n/a	n/a	n/a
3556220	RECOG_TARGET	n/a	LTP263	ltpFR	1	8	-1	SUBURB	1399	1	5	-1	n/a	n/a	n/a	n/a	n/a
3557334	RECOG_RESP	n/a	LTP263	ltpFR	1	8	-1	SUBURB	1399	1	n/a	-1	n/a	n/a	n/a	n/a	n/a
3558466	RECOG_CONF	n/a	LTP263	ltpFR	1	8	-1	SUBURB	1399	n/a	5	-1	n/a	n/a	n/a	n/a	n/a
3560198	RECOG_TARGET	n/a	LTP263	ltpFR	1	8	-1	DOCUMENT	479	1	5	-1	n/a	n/a	n/a	n/a	n/a
3560995	RECOG_RESP	n/a	LTP263	ltpFR	1	8	-1	DOCUMENT	479	1	n/a	-1	n/a	n/a	n/a	n/a	n/a
3562068	RECOG_CONF	n/a	LTP263	ltpFR	1	8	-1	DOCUMENT	479	n/a	5	-1	n/a	n/a	n/a	n/a	n/a
3563592	RECOG_TARGET	n/a	LTP263	ltpFR	1	8	1	FATHER	554	1	5	1	n/a	n/a	n/a	n/a	n/a
3564283	RECOG_RESP	n/a	LTP263	ltpFR	1	8	1	FATHER	554	1	n/a	1	n/a	n/a	n/a	n/a	n/a
3565310	RECOG_CONF	n/a	LTP263	ltpFR	1	8	1	FATHER	554	n/a	5	1	n/a	n/a	n/a	n/a	n/a
3566970	RECOG_LURE	n/a	LTP263	ltpFR	1	8	n/a	NITROGEN	954	0	2	n/a	n/a	n/a	n/a	n/a	n/a
3568064	RECOG_RESP	n/a	LTP263	ltpFR	1	8	n/a	NITROGEN	954	0	n/a	n/a	n/a	n/a	n/a	n/a	n/a
3569082	RECOG_CONF	n/a	LTP263	ltpFR	1	8	n/a	NITROGEN	954	n/a	2	n/a	n/a	n/a	n/a	n/a	n/a
3570698	RECOG_TARGET	n/a	LTP263	ltpFR	1	8	1	BRACELET	163	1	5	0	n/a	n/a	n/a	n/a	n/a
3571451	RECOG_RESP	n/a	LTP263	ltpFR	1	8	1	BRACELET	163	1	n/a	0	n/a	n/a	n/a	n/a	n/a
3572544	RECOG_CONF	n/a	LTP263	ltpFR	1	8	1	BRACELET	163	n/a	5	0	n/a	n/a	n/a	n/a	n/a
3574327	RECOG_TARGET	n/a	LTP263	ltpFR	1	8	1	KANGAROO	768	1	5	1	n/a	n/a	n/a	n/a	n/a
3574978	RECOG_RESP	n/a	LTP263	ltpFR	1	8	1	KANGAROO	768	1	n/a	1	n/a	n/a	n/a	n/a	n/a
3575996	RECOG_CONF	n/a	LTP263	ltpFR	1	8	1	KANGAROO	768	n/a	5	1	n/a	n/a	n/a	n/a	n/a
3577621	RECOG_LURE	n/a	LTP263	ltpFR	1	8	n/a	CUFF	423	0	1	n/a	n/a	n/a	n/a	n/a	n/a
3579129	RECOG_RESP	n/a	LTP263	ltpFR	1	8	n/a	CUFF	423	0	n/a	n/a	n/a	n/a	n/a	n/a	n/a
3580167	RECOG_CONF	n/a	LTP263	ltpFR	1	8	n/a	CUFF	423	n/a	1	n/a	n/a	n/a	n/a	n/a	n/a
3581731	RECOG_TARGET	n/a	LTP263	ltpFR	1	8	0	DILL	465	1	5	0	n/a	n/a	n/a	n/a	n/a
3582571	RECOG_RESP	n/a	LTP263	ltpFR	1	8	0	DILL	465	1	n/a	0	n/a	n/a	n/a	n/a	n/a
