mstime	trial_type	stim_file	subject	experiment	session	trial	task	item_name	item_num	recog_conf	resp	color_b	color_g	color_r	case	font
0	SESS_START	n/a	LTP102	ltpFR	19	n/a	n/a	n/a	n/a	1	n/a	n/a	n/a	n/a	n/a	n/a
61580	WORD	wordpools/wasnorm_wordpool.txt	LTP102	ltpFR	19	1	1	GHETTO	633	n/a	0	0	0.5869140625	0.422607421875	lower	../fonts/zerothre.ttf
65429	WORD	wordpools/wasnorm_wordpool.txt	LTP102	ltpFR	19	1	1	MASCARA	875	n/a	0	0	0.5869140625	0.422607421875	lower	../fonts/zerothre.ttf
69262	WORD	wordpools/wasnorm_wordpool.txt	LTP102	ltpFR	19	1	1	SHRIMP	1297	n/a	1	0	0.5869140625	0.422607421875	lower	../fonts/zerothre.ttf
73196	WORD	wordpools/wasnorm_wordpool.txt	LTP102	ltpFR	19	1	1	DUCK	504	n/a	1	0	0.5869140625	0.422607421875	lower	../fonts/zerothre.ttf
77395	WORD	wordpools/wasnorm_wordpool.txt	LTP102	ltpFR	19	1	0	SUPERMARKET	1409	n/a	1	1	0.412841796875	0.57763671875	upper	../fonts/amplitud.ttf
81220	WORD	wordpools/wasnorm_wordpool.txt	LTP102	ltpFR	19	1	0	KIDNEY	776	n/a	0	1	0.412841796875	0.57763671875	upper	../fonts/amplitud.ttf
85428	WORD	wordpools/wasnorm_wordpool.txt	LTP102	ltpFR	19	1	0	TRANSPLANT	1496	n/a	1	1	0.412841796875	0.57763671875	upper	../fonts/amplitud.ttf
89419	WORD	wordpools/wasnorm_wordpool.txt	LTP102	ltpFR	19	1	0	WINGS	1614	n/a	0	1	0.412841796875	0.57763671875	upper	../fonts/amplitud.ttf
93311	WORD	wordpools/wasnorm_wordpool.txt	LTP102	ltpFR	19	1	1	MOTH	920	n/a	1	0	0.5869140625	0.422607421875	lower	../fonts/zerothre.ttf
97310	WORD	wordpools/wasnorm_wordpool.txt	LTP102	ltpFR	19	1	1	PATIO	1025	n/a	0	0	0.5869140625	0.422607421875	lower	../fonts/zerothre.ttf
101152	WORD	wordpools/wasnorm_wordpool.txt	LTP102	ltpFR	19	1	1	MANSION	864	n/a	0	0	0.5869140625	0.422607421875	lower	../fonts/zerothre.ttf
105092	WORD	wordpools/wasnorm_wordpool.txt	LTP102	ltpFR	19	1	1	MEDICINE	886	n/a	0	0	0.5869140625	0.422607421875	lower	../fonts/zerothre.ttf
109008	WORD	wordpools/wasnorm_wordpool.txt	LTP102	ltpFR	19	1	0	GOOSE	649	n/a	1	1	0.412841796875	0.57763671875	upper	../fonts/amplitud.ttf
112950	WORD	wordpools/wasnorm_wordpool.txt	LTP102	ltpFR	19	1	0	RICE	1190	n/a	0	1	0.412841796875	0.57763671875	upper	../fonts/amplitud.ttf
116866	WORD	wordpools/wasnorm_wordpool.txt	LTP102	ltpFR	19	1	0	SHELTER	1282	n/a	1	1	0.412841796875	0.57763671875	upper	../fonts/amplitud.ttf
120734	WORD	wordpools/wasnorm_wordpool.txt	LTP102	ltpFR	19	1	0	COD	340	n/a	0	1	0.412841796875	0.57763671875	upper	../fonts/amplitud.ttf
126409	REC_START	n/a	LTP102	ltpFR	19	1	n/a	n/a	n/a	n/a	n/a	n/a	n/a	n/a	n/a	n/a
127965	REC_WORD	wordpools/wasnorm_wordpool.txt	LTP102	ltpFR	19	1	0	COD	340	n/a	0	n/a	n/a	n/a	n/a	n/a
129442	REC_WORD	wordpools/wasnorm_wordpool.txt	LTP102	ltpFR	19	1	0	KIDNEY	776	n/a	0	n/a	n/a	n/a	n/a	n/a
130639	REC_WORD	wordpools/wasnorm_wordpool.txt	LTP102	ltpFR	19	1	0	TRANSPLANT	1496	n/a	1	n/a	n/a	n/a	n/a	n/a
132350	REC_WORD	wordpools/wasnorm_wordpool.txt	LTP102	ltpFR	19	1	0	SUPERMARKET	1409	n/a	1	n/a	n/a	n/a	n/a	n/a
133827	REC_WORD_VV	wordpools/wasnorm_wordpool.txt	LTP102	ltpFR	19	1	n/a	<>	-1	n/a	n/a	n/a	n/a	n/a	n/a	n/a
135428	REC_WORD	wordpools/wasnorm_wordpool.txt	LTP102	ltpFR	19	1	1	SHRIMP	1297	n/a	1	n/a	n/a	n/a	n/a	n/a
136955	REC_WORD	wordpools/wasnorm_wordpool.txt	LTP102	ltpFR	19	1	1	MASCARA	875	n/a	0	n/a	n/a	n/a	n/a	n/a
138811	REC_WORD	wordpools/wasnorm_wordpool.txt	LTP102	ltpFR	19	1	0	COD	340	n/a	0	n/a	n/a	n/a	n/a	n/a
140587	REC_WORD	wordpools/wasnorm_wordpool.txt	LTP102	ltpFR	19	1	n/a	BRIDGE	174	n/a	n/a	n/a	n/a	n/a	n/a	n/a
144573	REC_WORD	wordpools/wasnorm_wordpool.txt	LTP102	ltpFR	19	1	0	RICE	1190	n/a	0	n/a	n/a	n/a	n/a	n/a
146044	REC_WORD	wordpools/wasnorm_wordpool.txt	LTP102	ltpFR	19	1	0	KIDNEY	776	n/a	0	n/a	n/a	n/a	n/a	n/a
153108	REC_WORD	wordpools/wasnorm_wordpool.txt	LTP102	ltpFR	19	1	1	MEDICINE	886	n/a	0	n/a	n/a	n/a	n/a	n/a
162297	REC_WORD	wordpools/wasnorm_wordpool.txt	LTP102	ltpFR	19	1	0	GOOSE	649	n/a	1	n/a	n/a	n/a	n/a	n/a
165804	REC_WORD	wordpools/wasnorm_wordpool.txt	LTP102	ltpFR	19	1	1	MOTH	920	n/a	1	n/a	n/a	n/a	n/a	n/a
171377	REC_WORD	wordpools/wasnorm_wordpool.txt	LTP102	ltpFR	19	1	1	SHRIMP	1297	n/a	1	n/a	n/a	n/a	n/a	n/a
174983	REC_WORD	wordpools/wasnorm_wordpool.txt	LTP102	ltpFR	19	1	1	MASCARA	875	n/a	0	n/a	n/a	n/a	n/a	n/a
178500	REC_WORD	wordpools/wasnorm_wordpool.txt	LTP102	ltpFR	19	1	0	SUPERMARKET	1409	n/a	1	n/a	n/a	n/a	n/a	n/a
182407	REC_WORD	wordpools/wasnorm_wordpool.txt	LTP102	ltpFR	19	1	0	TRANSPLANT	1496	n/a	1	n/a	n/a	n/a	n/a	n/a
183793	REC_WORD	wordpools/wasnorm_wordpool.txt	LTP102	ltpFR	19	1	0	COD	340	n/a	0	n/a	n/a	n/a	n/a	n/a
221567	WORD	wordpools/wasnorm_wordpool.txt	LTP102	ltpFR	19	2	0	OATMEAL	967	n/a	0	1	0.412841796875	0.57763671875	upper	../fonts/amplitud.ttf
225384	WORD	wordpools/wasnorm_wordpool.txt	LTP102	ltpFR	19	2	0	NECK	939	n/a	1	1	0.412841796875	0.57763671875	upper	../fonts/amplitud.ttf
229517	WORD	wordpools/wasnorm_wordpool.txt	LTP102	ltpFR	19	2	0	BEE	112	n/a	0	1	0.412841796875	0.57763671875	upper	../fonts/amplitud.ttf
233650	WORD	wordpools/wasnorm_wordpool.txt	LTP102	ltpFR	19	2	0	EWE	542	n/a	1	1	0.412841796875	0.57763671875	upper	../fonts/amplitud.ttf
237758	WORD	wordpools/wasnorm_wordpool.txt	LTP102	ltpFR	19	2	0	TABLE	1426	n/a	1	1	0.412841796875	0.57763671875	upper	../fonts/amplitud.ttf
241583	WORD	wordpools/wasnorm_wordpool.txt	LTP102	ltpFR	19	2	1	BLADE	134	n/a	0	0	0.5869140625	0.422607421875	lower	../fonts/zerothre.ttf
245549	WORD	wordpools/wasnorm_wordpool.txt	LTP102	ltpFR	19	2	1	WOLF	1619	n/a	0	0	0.5869140625	0.422607421875	lower	../fonts/zerothre.ttf
249624	WORD	wordpools/wasnorm_wordpool.txt	LTP102	ltpFR	19	2	1	CORK	380	n/a	0	0	0.5869140625	0.422607421875	lower	../fonts/zerothre.ttf
253590	WORD	wordpools/wasnorm_wordpool.txt	LTP102	ltpFR	19	2	1	SCOTCH	1251	n/a	0	0	0.5869140625	0.422607421875	lower	../fonts/zerothre.ttf
257515	WORD	wordpools/wasnorm_wordpool.txt	LTP102	ltpFR	19	2	1	PADDING	999	n/a	0	0	0.5869140625	0.422607421875	lower	../fonts/zerothre.ttf
261439	WORD	wordpools/wasnorm_wordpool.txt	LTP102	ltpFR	19	2	0	RAM	1165	n/a	1	1	0.412841796875	0.57763671875	upper	../fonts/amplitud.ttf
265339	WORD	wordpools/wasnorm_wordpool.txt	LTP102	ltpFR	19	2	0	MOWER	928	n/a	1	1	0.412841796875	0.57763671875	upper	../fonts/amplitud.ttf
269247	WORD	wordpools/wasnorm_wordpool.txt	LTP102	ltpFR	19	2	0	GRADUATE	653	n/a	1	1	0.412841796875	0.57763671875	upper	../fonts/amplitud.ttf
273338	WORD	wordpools/wasnorm_wordpool.txt	LTP102	ltpFR	19	2	1	DIPLOMA	470	n/a	0	0	0.5869140625	0.422607421875	lower	../fonts/zerothre.ttf
277330	WORD	wordpools/wasnorm_wordpool.txt	LTP102	ltpFR	19	2	1	LAPEL	800	n/a	0	0	0.5869140625	0.422607421875	lower	../fonts/zerothre.ttf
281404	WORD	wordpools/wasnorm_wordpool.txt	LTP102	ltpFR	19	2	1	ROBE	1198	n/a	0	0	0.5869140625	0.422607421875	lower	../fonts/zerothre.ttf
287188	REC_START	n/a	LTP102	ltpFR	19	2	n/a	n/a	n/a	n/a	n/a	n/a	n/a	n/a	n/a	n/a
288630	REC_WORD	wordpools/wasnorm_wordpool.txt	LTP102	ltpFR	19	2	1	ROBE	1198	n/a	0	n/a	n/a	n/a	n/a	n/a
290166	REC_WORD	wordpools/wasnorm_wordpool.txt	LTP102	ltpFR	19	2	1	LAPEL	800	n/a	0	n/a	n/a	n/a	n/a	n/a
293319	REC_WORD	wordpools/wasnorm_wordpool.txt	LTP102	ltpFR	19	2	0	TABLE	1426	n/a	1	n/a	n/a	n/a	n/a	n/a
297539	REC_WORD	wordpools/wasnorm_wordpool.txt	LTP102	ltpFR	19	2	1	BLADE	134	n/a	0	n/a	n/a	n/a	n/a	n/a
301415	REC_WORD	wordpools/wasnorm_wordpool.txt	LTP102	ltpFR	19	2	0	RICE	1190	n/a	0	n/a	n/a	n/a	n/a	n/a
304758	REC_WORD	wordpools/wasnorm_wordpool.txt	LTP102	ltpFR	19	2	0	GOOSE	649	n/a	1	n/a	n/a	n/a	n/a	n/a
308076	REC_WORD	wordpools/wasnorm_wordpool.txt	LTP102	ltpFR	19	2	1	GHETTO	633	n/a	0	n/a	n/a	n/a	n/a	n/a
310590	REC_WORD	wordpools/wasnorm_wordpool.txt	LTP102	ltpFR	19	2	1	WOLF	1619	n/a	0	n/a	n/a	n/a	n/a	n/a
323356	REC_WORD	wordpools/wasnorm_wordpool.txt	LTP102	ltpFR	19	2	0	BEE	112	n/a	0	n/a	n/a	n/a	n/a	n/a
325925	REC_WORD	wordpools/wasnorm_wordpool.txt	LTP102	ltpFR	19	2	0	RICE	1190	n/a	0	n/a	n/a	n/a	n/a	n/a
337908	REC_WORD	wordpools/wasnorm_wordpool.txt	LTP102	ltpFR	19	2	0	GOOSE	649	n/a	1	n/a	n/a	n/a	n/a	n/a
344891	REC_WORD	wordpools/wasnorm_wordpool.txt	LTP102	ltpFR	19	2	n/a	KEEPER	769	n/a	n/a	n/a	n/a	n/a	n/a	n/a
356011	REC_WORD	wordpools/wasnorm_wordpool.txt	LTP102	ltpFR	19	2	0	BEE	112	n/a	0	n/a	n/a	n/a	n/a	n/a
358166	REC_WORD	wordpools/wasnorm_wordpool.txt	LTP102	ltpFR	19	2	1	WOLF	1619	n/a	0	n/a	n/a	n/a	n/a	n/a
370847	WORD	wordpools/wasnorm_wordpool.txt	LTP102	ltpFR	19	3	0	EAR	513	n/a	0	1	0.412841796875	0.57763671875	upper	../fonts/amplitud.ttf
375013	WORD	wordpools/wasnorm_wordpool.txt	LTP102	ltpFR	19	3	0	EYE	545	n/a	0	1	0.412841796875	0.57763671875	upper	../fonts/amplitud.ttf
379197	WORD	wordpools/wasnorm_wordpool.txt	LTP102	ltpFR	19	3	0	FOREST	593	n/a	1	1	0.412841796875	0.57763671875	upper	../fonts/amplitud.ttf
383280	WORD	wordpools/wasnorm_wordpool.txt	LTP102	ltpFR	19	3	0	FIG	563	n/a	0	1	0.412841796875	0.57763671875	upper	../fonts/amplitud.ttf
387095	WORD	wordpools/wasnorm_wordpool.txt	LTP102	ltpFR	19	3	0	HEATER	698	n/a	1	1	0.412841796875	0.57763671875	upper	../fonts/amplitud.ttf
391229	WORD	wordpools/wasnorm_wordpool.txt	LTP102	ltpFR	19	3	0	COBRA	336	n/a	0	1	0.412841796875	0.57763671875	upper	../fonts/amplitud.ttf
395171	WORD	wordpools/wasnorm_wordpool.txt	LTP102	ltpFR	19	3	1	CONDUCTOR	362	n/a	1	0	0.5869140625	0.422607421875	lower	../fonts/zerothre.ttf
398986	WORD	wordpools/wasnorm_wordpool.txt	LTP102	ltpFR	19	3	1	WHISTLE	1606	n/a	0	0	0.5869140625	0.422607421875	lower	../fonts/zerothre.ttf
402911	WORD	wordpools/wasnorm_wordpool.txt	LTP102	ltpFR	19	3	1	SPRINKLE	1359	n/a	0	0	0.5869140625	0.422607421875	lower	../fonts/zerothre.ttf
406753	WORD	wordpools/wasnorm_wordpool.txt	LTP102	ltpFR	19	3	1	FACTORY	548	n/a	0	0	0.5869140625	0.422607421875	lower	../fonts/zerothre.ttf
410703	WORD	wordpools/wasnorm_wordpool.txt	LTP102	ltpFR	19	3	0	TIE	1466	n/a	1	1	0.412841796875	0.57763671875	upper	../fonts/amplitud.ttf
414835	WORD	wordpools/wasnorm_wordpool.txt	LTP102	ltpFR	19	3	0	KNIFE	785	n/a	0	1	0.412841796875	0.57763671875	upper	../fonts/amplitud.ttf
418910	WORD	wordpools/wasnorm_wordpool.txt	LTP102	ltpFR	19	3	1	LAMP	798	n/a	0	0	0.5869140625	0.422607421875	lower	../fonts/zerothre.ttf
422776	WORD	wordpools/wasnorm_wordpool.txt	LTP102	ltpFR	19	3	1	REPTILE	1185	n/a	1	0	0.5869140625	0.422607421875	lower	../fonts/zerothre.ttf
426643	WORD	wordpools/wasnorm_wordpool.txt	LTP102	ltpFR	19	3	1	COLLEGE	346	n/a	0	0	0.5869140625	0.422607421875	lower	../fonts/zerothre.ttf
430775	WORD	wordpools/wasnorm_wordpool.txt	LTP102	ltpFR	19	3	1	EMPLOYEE	531	n/a	1	0	0.5869140625	0.422607421875	lower	../fonts/zerothre.ttf
436610	REC_START	n/a	LTP102	ltpFR	19	3	n/a	n/a	n/a	n/a	n/a	n/a	n/a	n/a	n/a	n/a
438979	REC_WORD	wordpools/wasnorm_wordpool.txt	LTP102	ltpFR	19	3	1	EMPLOYEE	531	n/a	1	n/a	n/a	n/a	n/a	n/a
441005	REC_WORD	wordpools/wasnorm_wordpool.txt	LTP102	ltpFR	19	3	1	COLLEGE	346	n/a	0	n/a	n/a	n/a	n/a	n/a
442506	REC_WORD	wordpools/wasnorm_wordpool.txt	LTP102	ltpFR	19	3	0	TIE	1466	n/a	1	n/a	n/a	n/a	n/a	n/a
444168	REC_WORD	wordpools/wasnorm_wordpool.txt	LTP102	ltpFR	19	3	0	KNIFE	785	n/a	0	n/a	n/a	n/a	n/a	n/a
445659	REC_WORD	wordpools/wasnorm_wordpool.txt	LTP102	ltpFR	19	3	0	FOREST	593	n/a	1	n/a	n/a	n/a	n/a	n/a
447744	REC_WORD	wordpools/wasnorm_wordpool.txt	LTP102	ltpFR	19	3	1	LAMP	798	n/a	0	n/a	n/a	n/a	n/a	n/a
449261	REC_WORD	wordpools/wasnorm_wordpool.txt	LTP102	ltpFR	19	3	0	FIG	563	n/a	0	n/a	n/a	n/a	n/a	n/a
451980	REC_WORD	wordpools/wasnorm_wordpool.txt	LTP102	ltpFR	19	3	0	EWE	542	n/a	1	n/a	n/a	n/a	n/a	n/a
454120	REC_WORD	wordpools/wasnorm_wordpool.txt	LTP102	ltpFR	19	3	n/a	LAMB	797	n/a	n/a	n/a	n/a	n/a	n/a	n/a
460710	REC_WORD	wordpools/wasnorm_wordpool.txt	LTP102	ltpFR	19	3	0	RAM	1165	n/a	1	n/a	n/a	n/a	n/a	n/a
467699	REC_WORD	wordpools/wasnorm_wordpool.txt	LTP102	ltpFR	19	3	0	KNIFE	785	n/a	0	n/a	n/a	n/a	n/a	n/a
469535	REC_WORD	wordpools/wasnorm_wordpool.txt	LTP102	ltpFR	19	3	1	LAMP	798	n/a	0	n/a	n/a	n/a	n/a	n/a
471076	REC_WORD	wordpools/wasnorm_wordpool.txt	LTP102	ltpFR	19	3	0	TIE	1466	n/a	1	n/a	n/a	n/a	n/a	n/a
481079	REC_WORD	wordpools/wasnorm_wordpool.txt	LTP102	ltpFR	19	3	n/a	DANDRUFF	439	n/a	n/a	n/a	n/a	n/a	n/a	n/a
485164	REC_WORD	wordpools/wasnorm_wordpool.txt	LTP102	ltpFR	19	3	n/a	ICING	732	n/a	n/a	n/a	n/a	n/a	n/a	n/a
494882	REC_WORD	wordpools/wasnorm_wordpool.txt	LTP102	ltpFR	19	3	0	SUPERMARKET	1409	n/a	1	n/a	n/a	n/a	n/a	n/a
497436	REC_WORD	wordpools/wasnorm_wordpool.txt	LTP102	ltpFR	19	3	0	FOREST	593	n/a	1	n/a	n/a	n/a	n/a	n/a
508107	REC_WORD	wordpools/wasnorm_wordpool.txt	LTP102	ltpFR	19	3	n/a	CONTRACTOR	369	n/a	n/a	n/a	n/a	n/a	n/a	n/a
509509	REC_WORD	wordpools/wasnorm_wordpool.txt	LTP102	ltpFR	19	3	1	CONDUCTOR	362	n/a	1	n/a	n/a	n/a	n/a	n/a
511021	REC_WORD	wordpools/wasnorm_wordpool.txt	LTP102	ltpFR	19	3	1	WHISTLE	1606	n/a	0	n/a	n/a	n/a	n/a	n/a
523544	WORD	wordpools/wasnorm_wordpool.txt	LTP102	ltpFR	19	4	1	SHINGLE	1285	n/a	0	0	0.5869140625	0.422607421875	lower	../fonts/zerothre.ttf
527460	WORD	wordpools/wasnorm_wordpool.txt	LTP102	ltpFR	19	4	1	DANDELION	438	n/a	1	0	0.5869140625	0.422607421875	lower	../fonts/zerothre.ttf
531410	WORD	wordpools/wasnorm_wordpool.txt	LTP102	ltpFR	19	4	1	LETTUCE	814	n/a	1	0	0.5869140625	0.422607421875	lower	../fonts/zerothre.ttf
535618	WORD	wordpools/wasnorm_wordpool.txt	LTP102	ltpFR	19	4	1	COLESLAW	344	n/a	0	0	0.5869140625	0.422607421875	lower	../fonts/zerothre.ttf
539734	WORD	wordpools/wasnorm_wordpool.txt	LTP102	ltpFR	19	4	0	DICE	461	n/a	0	1	0.412841796875	0.57763671875	upper	../fonts/amplitud.ttf
543792	WORD	wordpools/wasnorm_wordpool.txt	LTP102	ltpFR	19	4	0	PONY	1102	n/a	1	1	0.412841796875	0.57763671875	upper	../fonts/amplitud.ttf
547617	WORD	wordpools/wasnorm_wordpool.txt	LTP102	ltpFR	19	4	0	COMMITTEE	355	n/a	1	1	0.412841796875	0.57763671875	upper	../fonts/amplitud.ttf
551650	WORD	wordpools/wasnorm_wordpool.txt	LTP102	ltpFR	19	4	0	COTTAGE	384	n/a	1	1	0.412841796875	0.57763671875	upper	../fonts/amplitud.ttf
555608	WORD	wordpools/wasnorm_wordpool.txt	LTP102	ltpFR	19	4	0	EGG	518	n/a	0	1	0.412841796875	0.57763671875	upper	../fonts/amplitud.ttf
559758	WORD	wordpools/wasnorm_wordpool.txt	LTP102	ltpFR	19	4	1	ROOST	1208	n/a	0	0	0.5869140625	0.422607421875	lower	../fonts/zerothre.ttf
563583	WORD	wordpools/wasnorm_wordpool.txt	LTP102	ltpFR	19	4	1	GANG	619	n/a	0	0	0.5869140625	0.422607421875	lower	../fonts/zerothre.ttf
567657	WORD	wordpools/wasnorm_wordpool.txt	LTP102	ltpFR	19	4	0	FLIPPER	580	n/a	1	1	0.412841796875	0.57763671875	upper	../fonts/amplitud.ttf
571490	WORD	wordpools/wasnorm_wordpool.txt	LTP102	ltpFR	19	4	0	GIRAFFE	636	n/a	1	1	0.412841796875	0.57763671875	upper	../fonts/amplitud.ttf
575632	WORD	wordpools/wasnorm_wordpool.txt	LTP102	ltpFR	19	4	0	CATCHER	258	n/a	1	1	0.412841796875	0.57763671875	upper	../fonts/amplitud.ttf
579847	WORD	wordpools/wasnorm_wordpool.txt	LTP102	ltpFR	19	4	1	INMATE	738	n/a	1	0	0.5869140625	0.422607421875	lower	../fonts/zerothre.ttf
584047	WORD	wordpools/wasnorm_wordpool.txt	LTP102	ltpFR	19	4	1	SHORTS	1293	n/a	0	0	0.5869140625	0.422607421875	lower	../fonts/zerothre.ttf
589690	REC_START	n/a	LTP102	ltpFR	19	4	n/a	n/a	n/a	n/a	n/a	n/a	n/a	n/a	n/a	n/a
590927	REC_WORD	wordpools/wasnorm_wordpool.txt	LTP102	ltpFR	19	4	1	SHORTS	1293	n/a	0	n/a	n/a	n/a	n/a	n/a
592943	REC_WORD	wordpools/wasnorm_wordpool.txt	LTP102	ltpFR	19	4	1	INMATE	738	n/a	1	n/a	n/a	n/a	n/a	n/a
594818	REC_WORD	wordpools/wasnorm_wordpool.txt	LTP102	ltpFR	19	4	n/a	GROCERY	664	n/a	n/a	n/a	n/a	n/a	n/a	n/a
596664	REC_WORD	wordpools/wasnorm_wordpool.txt	LTP102	ltpFR	19	4	0	SUPERMARKET	1409	n/a	1	n/a	n/a	n/a	n/a	n/a
601438	REC_WORD	wordpools/wasnorm_wordpool.txt	LTP102	ltpFR	19	4	1	DANDELION	438	n/a	1	n/a	n/a	n/a	n/a	n/a
610762	REC_WORD	wordpools/wasnorm_wordpool.txt	LTP102	ltpFR	19	4	0	CATCHER	258	n/a	1	n/a	n/a	n/a	n/a	n/a
613151	REC_WORD	wordpools/wasnorm_wordpool.txt	LTP102	ltpFR	19	4	1	CONDUCTOR	362	n/a	1	n/a	n/a	n/a	n/a	n/a
614917	REC_WORD	wordpools/wasnorm_wordpool.txt	LTP102	ltpFR	19	4	1	WHISTLE	1606	n/a	0	n/a	n/a	n/a	n/a	n/a
620904	REC_WORD	wordpools/wasnorm_wordpool.txt	LTP102	ltpFR	19	4	0	FIG	563	n/a	0	n/a	n/a	n/a	n/a	n/a
624206	REC_WORD	wordpools/wasnorm_wordpool.txt	LTP102	ltpFR	19	4	0	CATCHER	258	n/a	1	n/a	n/a	n/a	n/a	n/a
627813	REC_WORD	wordpools/wasnorm_wordpool.txt	LTP102	ltpFR	19	4	n/a	HOSPITAL	721	n/a	n/a	n/a	n/a	n/a	n/a	n/a
654961	REC_WORD	wordpools/wasnorm_wordpool.txt	LTP102	ltpFR	19	4	1	INMATE	738	n/a	1	n/a	n/a	n/a	n/a	n/a
674940	WORD	wordpools/wasnorm_wordpool.txt	LTP102	ltpFR	19	5	1	PASSENGER	1020	n/a	1	0	0.5869140625	0.422607421875	lower	../fonts/zerothre.ttf
678757	WORD	wordpools/wasnorm_wordpool.txt	LTP102	ltpFR	19	5	1	DWARF	510	n/a	1	0	0.5869140625	0.422607421875	lower	../fonts/zerothre.ttf
682931	WORD	wordpools/wasnorm_wordpool.txt	LTP102	ltpFR	19	5	1	SPICE	1350	n/a	0	0	0.5869140625	0.422607421875	lower	../fonts/zerothre.ttf
686880	WORD	wordpools/wasnorm_wordpool.txt	LTP102	ltpFR	19	5	1	PARTNER	1017	n/a	1	0	0.5869140625	0.422607421875	lower	../fonts/zerothre.ttf
690855	WORD	wordpools/wasnorm_wordpool.txt	LTP102	ltpFR	19	5	1	ASSOCIATE	49	n/a	1	0	0.5869140625	0.422607421875	lower	../fonts/zerothre.ttf
694764	WORD	wordpools/wasnorm_wordpool.txt	LTP102	ltpFR	19	5	1	COIN	343	n/a	0	0	0.5869140625	0.422607421875	lower	../fonts/zerothre.ttf
698589	WORD	wordpools/wasnorm_wordpool.txt	LTP102	ltpFR	19	5	1	ENGINEER	536	n/a	1	0	0.5869140625	0.422607421875	lower	../fonts/zerothre.ttf
702689	WORD	wordpools/wasnorm_wordpool.txt	LTP102	ltpFR	19	5	1	BARTENDER	92	n/a	1	0	0.5869140625	0.422607421875	lower	../fonts/zerothre.ttf
706697	WORD	wordpools/wasnorm_wordpool.txt	LTP102	ltpFR	19	5	1	WAIST	1579	n/a	0	0	0.5869140625	0.422607421875	lower	../fonts/zerothre.ttf
710904	WORD	wordpools/wasnorm_wordpool.txt	LTP102	ltpFR	19	5	1	CHICKEN	297	n/a	0	0	0.5869140625	0.422607421875	lower	../fonts/zerothre.ttf
714795	WORD	wordpools/wasnorm_wordpool.txt	LTP102	ltpFR	19	5	1	DRINK	498	n/a	0	0	0.5869140625	0.422607421875	lower	../fonts/zerothre.ttf
718895	WORD	wordpools/wasnorm_wordpool.txt	LTP102	ltpFR	19	5	1	VEAL	1551	n/a	1	0	0.5869140625	0.422607421875	lower	../fonts/zerothre.ttf
722994	WORD	wordpools/wasnorm_wordpool.txt	LTP102	ltpFR	19	5	1	POTATO	1115	n/a	0	0	0.5869140625	0.422607421875	lower	../fonts/zerothre.ttf
727145	WORD	wordpools/wasnorm_wordpool.txt	LTP102	ltpFR	19	5	1	WINDSHIELD	1612	n/a	0	0	0.5869140625	0.422607421875	lower	../fonts/zerothre.ttf
731236	WORD	wordpools/wasnorm_wordpool.txt	LTP102	ltpFR	19	5	1	ASTEROID	50	n/a	0	0	0.5869140625	0.422607421875	lower	../fonts/zerothre.ttf
735386	WORD	wordpools/wasnorm_wordpool.txt	LTP102	ltpFR	19	5	1	FIGHTER	564	n/a	1	0	0.5869140625	0.422607421875	lower	../fonts/zerothre.ttf
741411	REC_START	n/a	LTP102	ltpFR	19	5	n/a	n/a	n/a	n/a	n/a	n/a	n/a	n/a	n/a	n/a
742683	REC_WORD	wordpools/wasnorm_wordpool.txt	LTP102	ltpFR	19	5	1	FIGHTER	564	n/a	1	n/a	n/a	n/a	n/a	n/a
744209	REC_WORD	wordpools/wasnorm_wordpool.txt	LTP102	ltpFR	19	5	1	ASSOCIATE	49	n/a	1	n/a	n/a	n/a	n/a	n/a
746300	REC_WORD	wordpools/wasnorm_wordpool.txt	LTP102	ltpFR	19	5	1	ENGINEER	536	n/a	1	n/a	n/a	n/a	n/a	n/a
749173	REC_WORD	wordpools/wasnorm_wordpool.txt	LTP102	ltpFR	19	5	n/a	MAILMAN	858	n/a	n/a	n/a	n/a	n/a	n/a	n/a
752466	REC_WORD	wordpools/wasnorm_wordpool.txt	LTP102	ltpFR	19	5	1	POTATO	1115	n/a	0	n/a	n/a	n/a	n/a	n/a
754968	REC_WORD	wordpools/wasnorm_wordpool.txt	LTP102	ltpFR	19	5	1	COLESLAW	344	n/a	0	n/a	n/a	n/a	n/a	n/a
758063	REC_WORD	wordpools/wasnorm_wordpool.txt	LTP102	ltpFR	19	5	1	LETTUCE	814	n/a	1	n/a	n/a	n/a	n/a	n/a
769856	REC_WORD	wordpools/wasnorm_wordpool.txt	LTP102	ltpFR	19	5	1	ASTEROID	50	n/a	0	n/a	n/a	n/a	n/a	n/a
787491	REC_WORD	wordpools/wasnorm_wordpool.txt	LTP102	ltpFR	19	5	n/a	MERMAID	887	n/a	n/a	n/a	n/a	n/a	n/a	n/a
788968	REC_WORD	wordpools/wasnorm_wordpool.txt	LTP102	ltpFR	19	5	1	DWARF	510	n/a	1	n/a	n/a	n/a	n/a	n/a
797199	REC_WORD	wordpools/wasnorm_wordpool.txt	LTP102	ltpFR	19	5	1	PARTNER	1017	n/a	1	n/a	n/a	n/a	n/a	n/a
805111	REC_WORD	wordpools/wasnorm_wordpool.txt	LTP102	ltpFR	19	5	0	KIDNEY	776	n/a	0	n/a	n/a	n/a	n/a	n/a
807935	REC_WORD	wordpools/wasnorm_wordpool.txt	LTP102	ltpFR	19	5	n/a	BEAN	105	n/a	n/a	n/a	n/a	n/a	n/a	n/a
813687	REC_WORD	wordpools/wasnorm_wordpool.txt	LTP102	ltpFR	19	5	0	BEE	112	n/a	0	n/a	n/a	n/a	n/a	n/a
825246	WORD	wordpools/wasnorm_wordpool.txt	LTP102	ltpFR	19	6	0	HOSE	720	n/a	0	1	0.412841796875	0.57763671875	upper	../fonts/amplitud.ttf
829137	WORD	wordpools/wasnorm_wordpool.txt	LTP102	ltpFR	19	6	0	TWIG	1527	n/a	0	1	0.412841796875	0.57763671875	upper	../fonts/amplitud.ttf
833069	WORD	wordpools/wasnorm_wordpool.txt	LTP102	ltpFR	19	6	0	LIZARD	834	n/a	1	1	0.412841796875	0.57763671875	upper	../fonts/amplitud.ttf
837011	WORD	wordpools/wasnorm_wordpool.txt	LTP102	ltpFR	19	6	0	CROCODILE	411	n/a	1	1	0.412841796875	0.57763671875	upper	../fonts/amplitud.ttf
841027	WORD	wordpools/wasnorm_wordpool.txt	LTP102	ltpFR	19	6	0	LIME	823	n/a	0	1	0.412841796875	0.57763671875	upper	../fonts/amplitud.ttf
844885	WORD	wordpools/wasnorm_wordpool.txt	LTP102	ltpFR	19	6	0	VINE	1568	n/a	1	1	0.412841796875	0.57763671875	upper	../fonts/amplitud.ttf
848752	WORD	wordpools/wasnorm_wordpool.txt	LTP102	ltpFR	19	6	0	VEST	1559	n/a	1	1	0.412841796875	0.57763671875	upper	../fonts/amplitud.ttf
852652	WORD	wordpools/wasnorm_wordpool.txt	LTP102	ltpFR	19	6	0	BUTTON	207	n/a	0	1	0.412841796875	0.57763671875	upper	../fonts/amplitud.ttf
856560	WORD	wordpools/wasnorm_wordpool.txt	LTP102	ltpFR	19	6	0	GYM	674	n/a	1	1	0.412841796875	0.57763671875	upper	../fonts/amplitud.ttf
860460	WORD	wordpools/wasnorm_wordpool.txt	LTP102	ltpFR	19	6	0	CASHIER	254	n/a	1	1	0.412841796875	0.57763671875	upper	../fonts/amplitud.ttf
864459	WORD	wordpools/wasnorm_wordpool.txt	LTP102	ltpFR	19	6	0	SKIN	1318	n/a	0	1	0.412841796875	0.57763671875	upper	../fonts/amplitud.ttf
868309	WORD	wordpools/wasnorm_wordpool.txt	LTP102	ltpFR	19	6	0	ANIMAL	23	n/a	1	1	0.412841796875	0.57763671875	upper	../fonts/amplitud.ttf
872317	WORD	wordpools/wasnorm_wordpool.txt	LTP102	ltpFR	19	6	0	DETERGENT	455	n/a	0	1	0.412841796875	0.57763671875	upper	../fonts/amplitud.ttf
876283	WORD	wordpools/wasnorm_wordpool.txt	LTP102	ltpFR	19	6	0	SNORKEL	1336	n/a	1	1	0.412841796875	0.57763671875	upper	../fonts/amplitud.ttf
880350	WORD	wordpools/wasnorm_wordpool.txt	LTP102	ltpFR	19	6	0	FUR	615	n/a	0	1	0.412841796875	0.57763671875	upper	../fonts/amplitud.ttf
884458	WORD	wordpools/wasnorm_wordpool.txt	LTP102	ltpFR	19	6	0	BUBBLE	183	n/a	1	1	0.412841796875	0.57763671875	upper	../fonts/amplitud.ttf
890133	REC_START	n/a	LTP102	ltpFR	19	6	n/a	n/a	n/a	n/a	n/a	n/a	n/a	n/a	n/a	n/a
891904	REC_WORD	wordpools/wasnorm_wordpool.txt	LTP102	ltpFR	19	6	0	BUBBLE	183	n/a	1	n/a	n/a	n/a	n/a	n/a
893545	REC_WORD	wordpools/wasnorm_wordpool.txt	LTP102	ltpFR	19	6	0	SKIN	1318	n/a	0	n/a	n/a	n/a	n/a	n/a
895501	REC_WORD	wordpools/wasnorm_wordpool.txt	LTP102	ltpFR	19	6	n/a	MERMAID	887	n/a	n/a	n/a	n/a	n/a	n/a	n/a
897566	REC_WORD	wordpools/wasnorm_wordpool.txt	LTP102	ltpFR	19	6	0	SNORKEL	1336	n/a	1	n/a	n/a	n/a	n/a	n/a
898566	REC_WORD_VV	wordpools/wasnorm_wordpool.txt	LTP102	ltpFR	19	6	n/a	<>	-1	n/a	n/a	n/a	n/a	n/a	n/a	n/a
905308	REC_WORD	wordpools/wasnorm_wordpool.txt	LTP102	ltpFR	19	6	0	GYM	674	n/a	1	n/a	n/a	n/a	n/a	n/a
911304	REC_WORD	wordpools/wasnorm_wordpool.txt	LTP102	ltpFR	19	6	0	HOSE	720	n/a	0	n/a	n/a	n/a	n/a	n/a
917231	REC_WORD	wordpools/wasnorm_wordpool.txt	LTP102	ltpFR	19	6	0	GYM	674	n/a	1	n/a	n/a	n/a	n/a	n/a
921372	REC_WORD	wordpools/wasnorm_wordpool.txt	LTP102	ltpFR	19	6	n/a	GARLIC	624	n/a	n/a	n/a	n/a	n/a	n/a	n/a
935480	REC_WORD	wordpools/wasnorm_wordpool.txt	LTP102	ltpFR	19	6	0	EYE	545	n/a	0	n/a	n/a	n/a	n/a	n/a
937256	REC_WORD	wordpools/wasnorm_wordpool.txt	LTP102	ltpFR	19	6	0	EAR	513	n/a	0	n/a	n/a	n/a	n/a	n/a
948525	REC_WORD	wordpools/wasnorm_wordpool.txt	LTP102	ltpFR	19	6	1	COLESLAW	344	n/a	0	n/a	n/a	n/a	n/a	n/a
950755	REC_WORD	wordpools/wasnorm_wordpool.txt	LTP102	ltpFR	19	6	1	POTATO	1115	n/a	0	n/a	n/a	n/a	n/a	n/a
953594	REC_WORD	wordpools/wasnorm_wordpool.txt	LTP102	ltpFR	19	6	1	VEAL	1551	n/a	1	n/a	n/a	n/a	n/a	n/a
960702	REC_WORD	wordpools/wasnorm_wordpool.txt	LTP102	ltpFR	19	6	n/a	COW	393	n/a	n/a	n/a	n/a	n/a	n/a	n/a
982375	WORD	wordpools/wasnorm_wordpool.txt	LTP102	ltpFR	19	7	1	TRAIN	1494	n/a	0	0	0.5869140625	0.422607421875	lower	../fonts/zerothre.ttf
986367	WORD	wordpools/wasnorm_wordpool.txt	LTP102	ltpFR	19	7	1	BATH	98	n/a	0	0	0.5869140625	0.422607421875	lower	../fonts/zerothre.ttf
990275	WORD	wordpools/wasnorm_wordpool.txt	LTP102	ltpFR	19	7	1	RAFT	1159	n/a	0	0	0.5869140625	0.422607421875	lower	../fonts/zerothre.ttf
994333	WORD	wordpools/wasnorm_wordpool.txt	LTP102	ltpFR	19	7	1	DOVE	491	n/a	1	0	0.5869140625	0.422607421875	lower	../fonts/zerothre.ttf
998332	WORD	wordpools/wasnorm_wordpool.txt	LTP102	ltpFR	19	7	1	COBBLER	335	n/a	0	0	0.5869140625	0.422607421875	lower	../fonts/zerothre.ttf
1002207	WORD	wordpools/wasnorm_wordpool.txt	LTP102	ltpFR	19	7	1	CANVAS	234	n/a	0	0	0.5869140625	0.422607421875	lower	../fonts/zerothre.ttf
1006382	WORD	wordpools/wasnorm_wordpool.txt	LTP102	ltpFR	19	7	1	PAINTER	1004	n/a	1	0	0.5869140625	0.422607421875	lower	../fonts/zerothre.ttf
1010273	WORD	wordpools/wasnorm_wordpool.txt	LTP102	ltpFR	19	7	1	COMMUNITY	356	n/a	0	0	0.5869140625	0.422607421875	lower	../fonts/zerothre.ttf
1014365	WORD	wordpools/wasnorm_wordpool.txt	LTP102	ltpFR	19	7	1	ENVELOPE	537	n/a	0	0	0.5869140625	0.422607421875	lower	../fonts/zerothre.ttf
1018214	WORD	wordpools/wasnorm_wordpool.txt	LTP102	ltpFR	19	7	1	SNEAKER	1334	n/a	0	0	0.5869140625	0.422607421875	lower	../fonts/zerothre.ttf
1022122	WORD	wordpools/wasnorm_wordpool.txt	LTP102	ltpFR	19	7	1	DICTATOR	462	n/a	1	0	0.5869140625	0.422607421875	lower	../fonts/zerothre.ttf
1026205	WORD	wordpools/wasnorm_wordpool.txt	LTP102	ltpFR	19	7	1	CHECK	284	n/a	0	0	0.5869140625	0.422607421875	lower	../fonts/zerothre.ttf
1030155	WORD	wordpools/wasnorm_wordpool.txt	LTP102	ltpFR	19	7	1	SPARROW	1347	n/a	1	0	0.5869140625	0.422607421875	lower	../fonts/zerothre.ttf
1034213	WORD	wordpools/wasnorm_wordpool.txt	LTP102	ltpFR	19	7	1	ARTERY	41	n/a	0	0	0.5869140625	0.422607421875	lower	../fonts/zerothre.ttf
1038103	WORD	wordpools/wasnorm_wordpool.txt	LTP102	ltpFR	19	7	1	VEIN	1554	n/a	0	0	0.5869140625	0.422607421875	lower	../fonts/zerothre.ttf
1042137	WORD	wordpools/wasnorm_wordpool.txt	LTP102	ltpFR	19	7	1	LUMBER	848	n/a	0	0	0.5869140625	0.422607421875	lower	../fonts/zerothre.ttf
1047853	REC_START	n/a	LTP102	ltpFR	19	7	n/a	n/a	n/a	n/a	n/a	n/a	n/a	n/a	n/a	n/a
1049060	REC_WORD	wordpools/wasnorm_wordpool.txt	LTP102	ltpFR	19	7	1	LUMBER	848	n/a	0	n/a	n/a	n/a	n/a	n/a
1050746	REC_WORD	wordpools/wasnorm_wordpool.txt	LTP102	ltpFR	19	7	1	VEIN	1554	n/a	0	n/a	n/a	n/a	n/a	n/a
1052597	REC_WORD	wordpools/wasnorm_wordpool.txt	LTP102	ltpFR	19	7	1	ARTERY	41	n/a	0	n/a	n/a	n/a	n/a	n/a
1056518	REC_WORD	wordpools/wasnorm_wordpool.txt	LTP102	ltpFR	19	7	1	COMMUNITY	356	n/a	0	n/a	n/a	n/a	n/a	n/a
1060887	REC_WORD	wordpools/wasnorm_wordpool.txt	LTP102	ltpFR	19	7	n/a	SPOON	1357	n/a	n/a	n/a	n/a	n/a	n/a	n/a
1066007	REC_WORD	wordpools/wasnorm_wordpool.txt	LTP102	ltpFR	19	7	0	BEE	112	n/a	0	n/a	n/a	n/a	n/a	n/a
1067423	REC_WORD	wordpools/wasnorm_wordpool.txt	LTP102	ltpFR	19	7	1	ENGINEER	536	n/a	1	n/a	n/a	n/a	n/a	n/a
1077690	REC_WORD	wordpools/wasnorm_wordpool.txt	LTP102	ltpFR	19	7	1	TRAIN	1494	n/a	0	n/a	n/a	n/a	n/a	n/a
1079685	REC_WORD	wordpools/wasnorm_wordpool.txt	LTP102	ltpFR	19	7	n/a	BATHTUB	100	n/a	n/a	n/a	n/a	n/a	n/a	n/a
1084250	REC_WORD	wordpools/wasnorm_wordpool.txt	LTP102	ltpFR	19	7	n/a	WATER	1594	n/a	n/a	n/a	n/a	n/a	n/a	n/a
1086325	REC_WORD	wordpools/wasnorm_wordpool.txt	LTP102	ltpFR	19	7	n/a	TRUCK	1512	n/a	n/a	n/a	n/a	n/a	n/a	n/a
1090371	REC_WORD	wordpools/wasnorm_wordpool.txt	LTP102	ltpFR	19	7	n/a	SCARECROW	1245	n/a	n/a	n/a	n/a	n/a	n/a	n/a
1095275	REC_WORD	wordpools/wasnorm_wordpool.txt	LTP102	ltpFR	19	7	1	RAFT	1159	n/a	0	n/a	n/a	n/a	n/a	n/a
1099625	REC_WORD	wordpools/wasnorm_wordpool.txt	LTP102	ltpFR	19	7	0	BEE	112	n/a	0	n/a	n/a	n/a	n/a	n/a
1107452	REC_WORD	wordpools/wasnorm_wordpool.txt	LTP102	ltpFR	19	7	0	ANIMAL	23	n/a	1	n/a	n/a	n/a	n/a	n/a
1131547	WORD	wordpools/wasnorm_wordpool.txt	LTP102	ltpFR	19	8	1	PATROL	1027	n/a	0	0	0.5869140625	0.422607421875	lower	../fonts/zerothre.ttf
1135513	WORD	wordpools/wasnorm_wordpool.txt	LTP102	ltpFR	19	8	1	GOVERNOR	651	n/a	1	0	0.5869140625	0.422607421875	lower	../fonts/zerothre.ttf
1139663	WORD	wordpools/wasnorm_wordpool.txt	LTP102	ltpFR	19	8	1	SECRETARY	1265	n/a	1	0	0.5869140625	0.422607421875	lower	../fonts/zerothre.ttf
1143862	WORD	wordpools/wasnorm_wordpool.txt	LTP102	ltpFR	19	8	1	SUPERVISOR	1410	n/a	1	0	0.5869140625	0.422607421875	lower	../fonts/zerothre.ttf
1147803	WORD	wordpools/wasnorm_wordpool.txt	LTP102	ltpFR	19	8	1	LINT	826	n/a	0	0	0.5869140625	0.422607421875	lower	../fonts/zerothre.ttf
1151679	WORD	wordpools/wasnorm_wordpool.txt	LTP102	ltpFR	19	8	1	COSTUME	383	n/a	0	0	0.5869140625	0.422607421875	lower	../fonts/zerothre.ttf
1155687	WORD	wordpools/wasnorm_wordpool.txt	LTP102	ltpFR	19	8	1	TEAPOT	1442	n/a	0	0	0.5869140625	0.422607421875	lower	../fonts/zerothre.ttf
1159678	WORD	wordpools/wasnorm_wordpool.txt	LTP102	ltpFR	19	8	1	TEA	1439	n/a	0	0	0.5869140625	0.422607421875	lower	../fonts/zerothre.ttf
1163844	WORD	wordpools/wasnorm_wordpool.txt	LTP102	ltpFR	19	8	1	TORCH	1484	n/a	0	0	0.5869140625	0.422607421875	lower	../fonts/zerothre.ttf
1167802	WORD	wordpools/wasnorm_wordpool.txt	LTP102	ltpFR	19	8	1	SUBURB	1399	n/a	0	0	0.5869140625	0.422607421875	lower	../fonts/zerothre.ttf
1171901	WORD	wordpools/wasnorm_wordpool.txt	LTP102	ltpFR	19	8	1	SWORD	1423	n/a	0	0	0.5869140625	0.422607421875	lower	../fonts/zerothre.ttf
1175801	WORD	wordpools/wasnorm_wordpool.txt	LTP102	ltpFR	19	8	1	DOCUMENT	479	n/a	0	0	0.5869140625	0.422607421875	lower	../fonts/zerothre.ttf
1179635	WORD	wordpools/wasnorm_wordpool.txt	LTP102	ltpFR	19	8	1	PARSLEY	1016	n/a	1	0	0.5869140625	0.422607421875	lower	../fonts/zerothre.ttf
1183510	WORD	wordpools/wasnorm_wordpool.txt	LTP102	ltpFR	19	8	1	LOAF	835	n/a	0	0	0.5869140625	0.422607421875	lower	../fonts/zerothre.ttf
1187468	WORD	wordpools/wasnorm_wordpool.txt	LTP102	ltpFR	19	8	1	FIREMAN	569	n/a	1	0	0.5869140625	0.422607421875	lower	../fonts/zerothre.ttf
1191468	WORD	wordpools/wasnorm_wordpool.txt	LTP102	ltpFR	19	8	1	OREGANO	983	n/a	1	0	0.5869140625	0.422607421875	lower	../fonts/zerothre.ttf
1197418	REC_START	n/a	LTP102	ltpFR	19	8	n/a	n/a	n/a	n/a	n/a	n/a	n/a	n/a	n/a	n/a
1199034	REC_WORD	wordpools/wasnorm_wordpool.txt	LTP102	ltpFR	19	8	1	OREGANO	983	n/a	1	n/a	n/a	n/a	n/a	n/a
1200616	REC_WORD	wordpools/wasnorm_wordpool.txt	LTP102	ltpFR	19	8	1	PARSLEY	1016	n/a	1	n/a	n/a	n/a	n/a	n/a
1202377	REC_WORD	wordpools/wasnorm_wordpool.txt	LTP102	ltpFR	19	8	1	FIREMAN	569	n/a	1	n/a	n/a	n/a	n/a	n/a
1204113	REC_WORD	wordpools/wasnorm_wordpool.txt	LTP102	ltpFR	19	8	1	GOVERNOR	651	n/a	1	n/a	n/a	n/a	n/a	n/a
1205619	REC_WORD	wordpools/wasnorm_wordpool.txt	LTP102	ltpFR	19	8	1	SECRETARY	1265	n/a	1	n/a	n/a	n/a	n/a	n/a
1207610	REC_WORD	wordpools/wasnorm_wordpool.txt	LTP102	ltpFR	19	8	1	DICTATOR	462	n/a	1	n/a	n/a	n/a	n/a	n/a
1224187	REC_WORD	wordpools/wasnorm_wordpool.txt	LTP102	ltpFR	19	8	1	TEA	1439	n/a	0	n/a	n/a	n/a	n/a	n/a
1226606	REC_WORD	wordpools/wasnorm_wordpool.txt	LTP102	ltpFR	19	8	n/a	POT	1114	n/a	n/a	n/a	n/a	n/a	n/a	n/a
1232044	REC_WORD	wordpools/wasnorm_wordpool.txt	LTP102	ltpFR	19	8	1	LUMBER	848	n/a	0	n/a	n/a	n/a	n/a	n/a
1237621	REC_WORD	wordpools/wasnorm_wordpool.txt	LTP102	ltpFR	19	8	1	SECRETARY	1265	n/a	1	n/a	n/a	n/a	n/a	n/a
1248996	REC_WORD	wordpools/wasnorm_wordpool.txt	LTP102	ltpFR	19	8	1	SWORD	1423	n/a	0	n/a	n/a	n/a	n/a	n/a
1262116	REC_WORD	wordpools/wasnorm_wordpool.txt	LTP102	ltpFR	19	8	1	SUPERVISOR	1410	n/a	1	n/a	n/a	n/a	n/a	n/a
1277093	WORD	wordpools/wasnorm_wordpool.txt	LTP102	ltpFR	19	9	-1	DRESS	495	n/a	-1	1	1.0	1.0	upper	../fonts/Verdana.ttf
1281177	WORD	wordpools/wasnorm_wordpool.txt	LTP102	ltpFR	19	9	-1	PRESIDENT	1121	n/a	-1	1	1.0	1.0	upper	../fonts/Verdana.ttf
1285285	WORD	wordpools/wasnorm_wordpool.txt	LTP102	ltpFR	19	9	-1	SLEEVE	1324	n/a	-1	1	1.0	1.0	upper	../fonts/Verdana.ttf
1289385	WORD	wordpools/wasnorm_wordpool.txt	LTP102	ltpFR	19	9	-1	SCISSORS	1250	n/a	-1	1	1.0	1.0	upper	../fonts/Verdana.ttf
1293376	WORD	wordpools/wasnorm_wordpool.txt	LTP102	ltpFR	19	9	-1	CAB	209	n/a	-1	1	1.0	1.0	upper	../fonts/Verdana.ttf
1297534	WORD	wordpools/wasnorm_wordpool.txt	LTP102	ltpFR	19	9	-1	ENGINE	535	n/a	-1	1	1.0	1.0	upper	../fonts/Verdana.ttf
1301476	WORD	wordpools/wasnorm_wordpool.txt	LTP102	ltpFR	19	9	-1	RUST	1219	n/a	-1	1	1.0	1.0	upper	../fonts/Verdana.ttf
1305475	WORD	wordpools/wasnorm_wordpool.txt	LTP102	ltpFR	19	9	-1	PACKAGE	997	n/a	-1	1	1.0	1.0	upper	../fonts/Verdana.ttf
1309542	WORD	wordpools/wasnorm_wordpool.txt	LTP102	ltpFR	19	9	-1	POLYESTER	1100	n/a	-1	1	1.0	1.0	upper	../fonts/Verdana.ttf
1313750	WORD	wordpools/wasnorm_wordpool.txt	LTP102	ltpFR	19	9	-1	STICKER	1382	n/a	-1	1	1.0	1.0	upper	../fonts/Verdana.ttf
1317823	WORD	wordpools/wasnorm_wordpool.txt	LTP102	ltpFR	19	9	-1	ANTEATER	26	n/a	-1	1	1.0	1.0	upper	../fonts/Verdana.ttf
1321990	WORD	wordpools/wasnorm_wordpool.txt	LTP102	ltpFR	19	9	-1	SCENERY	1247	n/a	-1	1	1.0	1.0	upper	../fonts/Verdana.ttf
1326199	WORD	wordpools/wasnorm_wordpool.txt	LTP102	ltpFR	19	9	-1	FILM	565	n/a	-1	1	1.0	1.0	upper	../fonts/Verdana.ttf
1330240	WORD	wordpools/wasnorm_wordpool.txt	LTP102	ltpFR	19	9	-1	ATOM	55	n/a	-1	1	1.0	1.0	upper	../fonts/Verdana.ttf
1334281	WORD	wordpools/wasnorm_wordpool.txt	LTP102	ltpFR	19	9	-1	BOMB	147	n/a	-1	1	1.0	1.0	upper	../fonts/Verdana.ttf
1338298	WORD	wordpools/wasnorm_wordpool.txt	LTP102	ltpFR	19	9	-1	RACCOON	1153	n/a	-1	1	1.0	1.0	upper	../fonts/Verdana.ttf
1344206	REC_START	n/a	LTP102	ltpFR	19	9	n/a	n/a	n/a	n/a	n/a	n/a	n/a	n/a	n/a	n/a
1345578	REC_WORD	wordpools/wasnorm_wordpool.txt	LTP102	ltpFR	19	9	-1	RACCOON	1153	n/a	-1	n/a	n/a	n/a	n/a	n/a
1348057	REC_WORD	wordpools/wasnorm_wordpool.txt	LTP102	ltpFR	19	9	-1	BOMB	147	n/a	-1	n/a	n/a	n/a	n/a	n/a
1350362	REC_WORD	wordpools/wasnorm_wordpool.txt	LTP102	ltpFR	19	9	-1	PACKAGE	997	n/a	-1	n/a	n/a	n/a	n/a	n/a
1352677	REC_WORD	wordpools/wasnorm_wordpool.txt	LTP102	ltpFR	19	9	-1	DRESS	495	n/a	-1	n/a	n/a	n/a	n/a	n/a
1354852	REC_WORD	wordpools/wasnorm_wordpool.txt	LTP102	ltpFR	19	9	0	HEATER	698	n/a	1	n/a	n/a	n/a	n/a	n/a
1358079	REC_WORD	wordpools/wasnorm_wordpool.txt	LTP102	ltpFR	19	9	-1	SCISSORS	1250	n/a	-1	n/a	n/a	n/a	n/a	n/a
1362140	REC_WORD	wordpools/wasnorm_wordpool.txt	LTP102	ltpFR	19	9	0	EWE	542	n/a	1	n/a	n/a	n/a	n/a	n/a
1366415	REC_WORD	wordpools/wasnorm_wordpool.txt	LTP102	ltpFR	19	9	n/a	LAMB	797	n/a	n/a	n/a	n/a	n/a	n/a	n/a
1383362	REC_WORD	wordpools/wasnorm_wordpool.txt	LTP102	ltpFR	19	9	-1	SCENERY	1247	n/a	-1	n/a	n/a	n/a	n/a	n/a
1390201	REC_WORD	wordpools/wasnorm_wordpool.txt	LTP102	ltpFR	19	9	1	INMATE	738	n/a	1	n/a	n/a	n/a	n/a	n/a
1406140	REC_WORD	wordpools/wasnorm_wordpool.txt	LTP102	ltpFR	19	9	-1	SLEEVE	1324	n/a	-1	n/a	n/a	n/a	n/a	n/a
1452172	WORD	wordpools/wasnorm_wordpool.txt	LTP102	ltpFR	19	10	0	COCOON	339	n/a	0	1	0.412841796875	0.57763671875	upper	../fonts/amplitud.ttf
1456280	WORD	wordpools/wasnorm_wordpool.txt	LTP102	ltpFR	19	10	0	SEED	1266	n/a	0	1	0.412841796875	0.57763671875	upper	../fonts/amplitud.ttf
1460205	WORD	wordpools/wasnorm_wordpool.txt	LTP102	ltpFR	19	10	0	CRAB	397	n/a	0	1	0.412841796875	0.57763671875	upper	../fonts/amplitud.ttf
1464255	WORD	wordpools/wasnorm_wordpool.txt	LTP102	ltpFR	19	10	1	SILVERWARE	1308	n/a	0	0	0.5869140625	0.422607421875	lower	../fonts/zerothre.ttf
1468271	WORD	wordpools/wasnorm_wordpool.txt	LTP102	ltpFR	19	10	1	ANT	25	n/a	1	0	0.5869140625	0.422607421875	lower	../fonts/zerothre.ttf
1472120	WORD	wordpools/wasnorm_wordpool.txt	LTP102	ltpFR	19	10	1	PUB	1135	n/a	0	0	0.5869140625	0.422607421875	lower	../fonts/zerothre.ttf
1476262	WORD	wordpools/wasnorm_wordpool.txt	LTP102	ltpFR	19	10	1	PAVEMENT	1028	n/a	0	0	0.5869140625	0.422607421875	lower	../fonts/zerothre.ttf
1480170	WORD	wordpools/wasnorm_wordpool.txt	LTP102	ltpFR	19	10	0	TREE	1502	n/a	1	1	0.412841796875	0.57763671875	upper	../fonts/amplitud.ttf
1484295	WORD	wordpools/wasnorm_wordpool.txt	LTP102	ltpFR	19	10	0	ORNAMENT	985	n/a	0	1	0.412841796875	0.57763671875	upper	../fonts/amplitud.ttf
1488428	WORD	wordpools/wasnorm_wordpool.txt	LTP102	ltpFR	19	10	0	FACE	547	n/a	1	1	0.412841796875	0.57763671875	upper	../fonts/amplitud.ttf
1492578	WORD	wordpools/wasnorm_wordpool.txt	LTP102	ltpFR	19	10	1	BULLY	196	n/a	1	0	0.5869140625	0.422607421875	lower	../fonts/zerothre.ttf
1496577	WORD	wordpools/wasnorm_wordpool.txt	LTP102	ltpFR	19	10	1	COOLER	375	n/a	0	0	0.5869140625	0.422607421875	lower	../fonts/zerothre.ttf
1500594	WORD	wordpools/wasnorm_wordpool.txt	LTP102	ltpFR	19	10	1	ATMOSPHERE	54	n/a	0	0	0.5869140625	0.422607421875	lower	../fonts/zerothre.ttf
1504693	WORD	wordpools/wasnorm_wordpool.txt	LTP102	ltpFR	19	10	1	CAULIFLOWER	262	n/a	1	0	0.5869140625	0.422607421875	lower	../fonts/zerothre.ttf
1508568	WORD	wordpools/wasnorm_wordpool.txt	LTP102	ltpFR	19	10	0	TURKEY	1520	n/a	1	1	0.412841796875	0.57763671875	upper	../fonts/amplitud.ttf
1512551	WORD	wordpools/wasnorm_wordpool.txt	LTP102	ltpFR	19	10	0	LIVER	833	n/a	0	1	0.412841796875	0.57763671875	upper	../fonts/amplitud.ttf
1518126	REC_START	n/a	LTP102	ltpFR	19	10	n/a	n/a	n/a	n/a	n/a	n/a	n/a	n/a	n/a	n/a
1519538	REC_WORD	wordpools/wasnorm_wordpool.txt	LTP102	ltpFR	19	10	0	LIVER	833	n/a	0	n/a	n/a	n/a	n/a	n/a
1521343	REC_WORD	wordpools/wasnorm_wordpool.txt	LTP102	ltpFR	19	10	0	TURKEY	1520	n/a	1	n/a	n/a	n/a	n/a	n/a
1523404	REC_WORD	wordpools/wasnorm_wordpool.txt	LTP102	ltpFR	19	10	1	ARTERY	41	n/a	0	n/a	n/a	n/a	n/a	n/a
1524860	REC_WORD	wordpools/wasnorm_wordpool.txt	LTP102	ltpFR	19	10	1	VEIN	1554	n/a	0	n/a	n/a	n/a	n/a	n/a
1526237	REC_WORD	wordpools/wasnorm_wordpool.txt	LTP102	ltpFR	19	10	1	LINT	826	n/a	0	n/a	n/a	n/a	n/a	n/a
1529071	REC_WORD	wordpools/wasnorm_wordpool.txt	LTP102	ltpFR	19	10	0	TURKEY	1520	n/a	1	n/a	n/a	n/a	n/a	n/a
1532314	REC_WORD	wordpools/wasnorm_wordpool.txt	LTP102	ltpFR	19	10	0	LIVER	833	n/a	0	n/a	n/a	n/a	n/a	n/a
1543289	REC_WORD	wordpools/wasnorm_wordpool.txt	LTP102	ltpFR	19	10	-1	PACKAGE	997	n/a	-1	n/a	n/a	n/a	n/a	n/a
1548227	REC_WORD	wordpools/wasnorm_wordpool.txt	LTP102	ltpFR	19	10	-1	DRESS	495	n/a	-1	n/a	n/a	n/a	n/a	n/a
1550412	REC_WORD	wordpools/wasnorm_wordpool.txt	LTP102	ltpFR	19	10	1	PAVEMENT	1028	n/a	0	n/a	n/a	n/a	n/a	n/a
1556379	REC_WORD	wordpools/wasnorm_wordpool.txt	LTP102	ltpFR	19	10	1	PUB	1135	n/a	0	n/a	n/a	n/a	n/a	n/a
1558664	REC_WORD	wordpools/wasnorm_wordpool.txt	LTP102	ltpFR	19	10	1	ANT	25	n/a	1	n/a	n/a	n/a	n/a	n/a
1564825	REC_WORD	wordpools/wasnorm_wordpool.txt	LTP102	ltpFR	19	10	0	COCOON	339	n/a	0	n/a	n/a	n/a	n/a	n/a
1566880	REC_WORD	wordpools/wasnorm_wordpool.txt	LTP102	ltpFR	19	10	-1	RACCOON	1153	n/a	-1	n/a	n/a	n/a	n/a	n/a
1573939	REC_WORD	wordpools/wasnorm_wordpool.txt	LTP102	ltpFR	19	10	0	CRAB	397	n/a	0	n/a	n/a	n/a	n/a	n/a
1576738	REC_WORD	wordpools/wasnorm_wordpool.txt	LTP102	ltpFR	19	10	0	SEED	1266	n/a	0	n/a	n/a	n/a	n/a	n/a
1590811	REC_WORD	wordpools/wasnorm_wordpool.txt	LTP102	ltpFR	19	10	1	VEAL	1551	n/a	1	n/a	n/a	n/a	n/a	n/a
1598253	WORD	wordpools/wasnorm_wordpool.txt	LTP102	ltpFR	19	11	0	PLUTO	1092	n/a	1	1	0.412841796875	0.57763671875	upper	../fonts/amplitud.ttf
1602118	WORD	wordpools/wasnorm_wordpool.txt	LTP102	ltpFR	19	11	0	GALAXY	617	n/a	1	1	0.412841796875	0.57763671875	upper	../fonts/amplitud.ttf
1605951	WORD	wordpools/wasnorm_wordpool.txt	LTP102	ltpFR	19	11	0	HIP	710	n/a	1	1	0.412841796875	0.57763671875	upper	../fonts/amplitud.ttf
1609876	WORD	wordpools/wasnorm_wordpool.txt	LTP102	ltpFR	19	11	0	CERAMICS	271	n/a	0	1	0.412841796875	0.57763671875	upper	../fonts/amplitud.ttf
1613959	WORD	wordpools/wasnorm_wordpool.txt	LTP102	ltpFR	19	11	0	MOUSE	925	n/a	0	1	0.412841796875	0.57763671875	upper	../fonts/amplitud.ttf
1618100	WORD	wordpools/wasnorm_wordpool.txt	LTP102	ltpFR	19	11	0	HAM	678	n/a	1	1	0.412841796875	0.57763671875	upper	../fonts/amplitud.ttf
1622159	WORD	wordpools/wasnorm_wordpool.txt	LTP102	ltpFR	19	11	0	SKELETON	1314	n/a	1	1	0.412841796875	0.57763671875	upper	../fonts/amplitud.ttf
1626091	WORD	wordpools/wasnorm_wordpool.txt	LTP102	ltpFR	19	11	0	CUCUMBER	421	n/a	0	1	0.412841796875	0.57763671875	upper	../fonts/amplitud.ttf
1629983	WORD	wordpools/wasnorm_wordpool.txt	LTP102	ltpFR	19	11	0	LEMON	810	n/a	0	1	0.412841796875	0.57763671875	upper	../fonts/amplitud.ttf
1634074	WORD	wordpools/wasnorm_wordpool.txt	LTP102	ltpFR	19	11	0	BEEF	113	n/a	1	1	0.412841796875	0.57763671875	upper	../fonts/amplitud.ttf
1637999	WORD	wordpools/wasnorm_wordpool.txt	LTP102	ltpFR	19	11	0	HELMET	702	n/a	1	1	0.412841796875	0.57763671875	upper	../fonts/amplitud.ttf
1642032	WORD	wordpools/wasnorm_wordpool.txt	LTP102	ltpFR	19	11	0	PEDAL	1037	n/a	0	1	0.412841796875	0.57763671875	upper	../fonts/amplitud.ttf
1645956	WORD	wordpools/wasnorm_wordpool.txt	LTP102	ltpFR	19	11	0	ALMANAC	17	n/a	1	1	0.412841796875	0.57763671875	upper	../fonts/amplitud.ttf
1649981	WORD	wordpools/wasnorm_wordpool.txt	LTP102	ltpFR	19	11	0	SCHOOL	1248	n/a	1	1	0.412841796875	0.57763671875	upper	../fonts/amplitud.ttf
1653914	WORD	wordpools/wasnorm_wordpool.txt	LTP102	ltpFR	19	11	0	BARLEY	88	n/a	0	1	0.412841796875	0.57763671875	upper	../fonts/amplitud.ttf
1657939	WORD	wordpools/wasnorm_wordpool.txt	LTP102	ltpFR	19	11	0	DOG	480	n/a	1	1	0.412841796875	0.57763671875	upper	../fonts/amplitud.ttf
1663565	REC_START	n/a	LTP102	ltpFR	19	11	n/a	n/a	n/a	n/a	n/a	n/a	n/a	n/a	n/a	n/a
1665431	REC_WORD	wordpools/wasnorm_wordpool.txt	LTP102	ltpFR	19	11	0	DOG	480	n/a	1	n/a	n/a	n/a	n/a	n/a
1666882	REC_WORD_VV	wordpools/wasnorm_wordpool.txt	LTP102	ltpFR	19	11	n/a	<>	-1	n/a	n/a	n/a	n/a	n/a	n/a	n/a
1668045	REC_WORD	wordpools/wasnorm_wordpool.txt	LTP102	ltpFR	19	11	1	PARSLEY	1016	n/a	1	n/a	n/a	n/a	n/a	n/a
1677159	REC_WORD	wordpools/wasnorm_wordpool.txt	LTP102	ltpFR	19	11	0	HAM	678	n/a	1	n/a	n/a	n/a	n/a	n/a
1679823	REC_WORD	wordpools/wasnorm_wordpool.txt	LTP102	ltpFR	19	11	0	SCHOOL	1248	n/a	1	n/a	n/a	n/a	n/a	n/a
1682317	REC_WORD	wordpools/wasnorm_wordpool.txt	LTP102	ltpFR	19	11	0	MOUSE	925	n/a	0	n/a	n/a	n/a	n/a	n/a
1684497	REC_WORD	wordpools/wasnorm_wordpool.txt	LTP102	ltpFR	19	11	1	ENGINEER	536	n/a	1	n/a	n/a	n/a	n/a	n/a
1689815	REC_WORD	wordpools/wasnorm_wordpool.txt	LTP102	ltpFR	19	11	0	HIP	710	n/a	1	n/a	n/a	n/a	n/a	n/a
1692748	REC_WORD	wordpools/wasnorm_wordpool.txt	LTP102	ltpFR	19	11	-1	POLYESTER	1100	n/a	-1	n/a	n/a	n/a	n/a	n/a
1695821	REC_WORD	wordpools/wasnorm_wordpool.txt	LTP102	ltpFR	19	11	0	CERAMICS	271	n/a	0	n/a	n/a	n/a	n/a	n/a
1711027	REC_WORD	wordpools/wasnorm_wordpool.txt	LTP102	ltpFR	19	11	n/a	BEAKER	104	n/a	n/a	n/a	n/a	n/a	n/a	n/a
1716175	REC_WORD	wordpools/wasnorm_wordpool.txt	LTP102	ltpFR	19	11	0	DOG	480	n/a	1	n/a	n/a	n/a	n/a	n/a
1724836	REC_WORD	wordpools/wasnorm_wordpool.txt	LTP102	ltpFR	19	11	0	HELMET	702	n/a	1	n/a	n/a	n/a	n/a	n/a
1732024	REC_WORD	wordpools/wasnorm_wordpool.txt	LTP102	ltpFR	19	11	0	BARLEY	88	n/a	0	n/a	n/a	n/a	n/a	n/a
1743616	WORD	wordpools/wasnorm_wordpool.txt	LTP102	ltpFR	19	12	1	MOSS	918	n/a	1	0	0.5869140625	0.422607421875	lower	../fonts/zerothre.ttf
1747773	WORD	wordpools/wasnorm_wordpool.txt	LTP102	ltpFR	19	12	1	BAG	69	n/a	0	0	0.5869140625	0.422607421875	lower	../fonts/zerothre.ttf
1751599	WORD	wordpools/wasnorm_wordpool.txt	LTP102	ltpFR	19	12	1	SHARK	1275	n/a	1	0	0.5869140625	0.422607421875	lower	../fonts/zerothre.ttf
1755549	WORD	wordpools/wasnorm_wordpool.txt	LTP102	ltpFR	19	12	1	SUSPECT	1415	n/a	1	0	0.5869140625	0.422607421875	lower	../fonts/zerothre.ttf
1759640	WORD	wordpools/wasnorm_wordpool.txt	LTP102	ltpFR	19	12	1	CRIMINAL	409	n/a	1	0	0.5869140625	0.422607421875	lower	../fonts/zerothre.ttf
1763490	WORD	wordpools/wasnorm_wordpool.txt	LTP102	ltpFR	19	12	1	COMPASS	358	n/a	0	0	0.5869140625	0.422607421875	lower	../fonts/zerothre.ttf
1767531	WORD	wordpools/wasnorm_wordpool.txt	LTP102	ltpFR	19	12	0	MERMAID	887	n/a	1	1	0.412841796875	0.57763671875	upper	../fonts/amplitud.ttf
1771514	WORD	wordpools/wasnorm_wordpool.txt	LTP102	ltpFR	19	12	0	SEA	1259	n/a	1	1	0.412841796875	0.57763671875	upper	../fonts/amplitud.ttf
1775589	WORD	wordpools/wasnorm_wordpool.txt	LTP102	ltpFR	19	12	0	BERRY	122	n/a	0	1	0.412841796875	0.57763671875	upper	../fonts/amplitud.ttf
1779655	WORD	wordpools/wasnorm_wordpool.txt	LTP102	ltpFR	19	12	1	PORCUPINE	1107	n/a	1	0	0.5869140625	0.422607421875	lower	../fonts/zerothre.ttf
1783854	WORD	wordpools/wasnorm_wordpool.txt	LTP102	ltpFR	19	12	1	SPOOL	1356	n/a	0	0	0.5869140625	0.422607421875	lower	../fonts/zerothre.ttf
1787721	WORD	wordpools/wasnorm_wordpool.txt	LTP102	ltpFR	19	12	0	HANDKERCHIEF	686	n/a	0	1	0.412841796875	0.57763671875	upper	../fonts/amplitud.ttf
1791538	WORD	wordpools/wasnorm_wordpool.txt	LTP102	ltpFR	19	12	0	OCTOPUS	971	n/a	1	1	0.412841796875	0.57763671875	upper	../fonts/amplitud.ttf
1795404	WORD	wordpools/wasnorm_wordpool.txt	LTP102	ltpFR	19	12	0	FLORIDA	582	n/a	1	1	0.412841796875	0.57763671875	upper	../fonts/amplitud.ttf
1799220	WORD	wordpools/wasnorm_wordpool.txt	LTP102	ltpFR	19	12	0	COUNTRY	388	n/a	1	1	0.412841796875	0.57763671875	upper	../fonts/amplitud.ttf
1803345	WORD	wordpools/wasnorm_wordpool.txt	LTP102	ltpFR	19	12	0	CARROT	249	n/a	0	1	0.412841796875	0.57763671875	upper	../fonts/amplitud.ttf
1809078	REC_START	n/a	LTP102	ltpFR	19	12	n/a	n/a	n/a	n/a	n/a	n/a	n/a	n/a	n/a	n/a
1809731	REC_WORD	wordpools/wasnorm_wordpool.txt	LTP102	ltpFR	19	12	0	CARROT	249	n/a	0	n/a	n/a	n/a	n/a	n/a
1811642	REC_WORD	wordpools/wasnorm_wordpool.txt	LTP102	ltpFR	19	12	0	CUCUMBER	421	n/a	0	n/a	n/a	n/a	n/a	n/a
1813568	REC_WORD	wordpools/wasnorm_wordpool.txt	LTP102	ltpFR	19	12	0	MERMAID	887	n/a	1	n/a	n/a	n/a	n/a	n/a
1815139	REC_WORD	wordpools/wasnorm_wordpool.txt	LTP102	ltpFR	19	12	0	SEA	1259	n/a	1	n/a	n/a	n/a	n/a	n/a
1830454	REC_WORD	wordpools/wasnorm_wordpool.txt	LTP102	ltpFR	19	12	0	SEED	1266	n/a	0	n/a	n/a	n/a	n/a	n/a
1841464	REC_WORD	wordpools/wasnorm_wordpool.txt	LTP102	ltpFR	19	12	0	CARROT	249	n/a	0	n/a	n/a	n/a	n/a	n/a
1860631	REC_WORD	wordpools/wasnorm_wordpool.txt	LTP102	ltpFR	19	12	1	PAVEMENT	1028	n/a	0	n/a	n/a	n/a	n/a	n/a
1871656	REC_WORD	wordpools/wasnorm_wordpool.txt	LTP102	ltpFR	19	12	n/a	LEG	809	n/a	n/a	n/a	n/a	n/a	n/a	n/a
1884706	REST_REWET	n/a	LTP102	ltpFR	19	12	n/a	n/a	n/a	n/a	n/a	n/a	n/a	n/a	n/a	n/a
2264184	WORD	wordpools/wasnorm_wordpool.txt	LTP102	ltpFR	19	13	-1	BUCKET	184	n/a	-1	1	1.0	1.0	upper	../fonts/Verdana.ttf
2268401	WORD	wordpools/wasnorm_wordpool.txt	LTP102	ltpFR	19	13	-1	TENT	1449	n/a	-1	1	1.0	1.0	upper	../fonts/Verdana.ttf
2272309	WORD	wordpools/wasnorm_wordpool.txt	LTP102	ltpFR	19	13	-1	SCOUT	1252	n/a	-1	1	1.0	1.0	upper	../fonts/Verdana.ttf
2276267	WORD	wordpools/wasnorm_wordpool.txt	LTP102	ltpFR	19	13	-1	SUGAR	1401	n/a	-1	1	1.0	1.0	upper	../fonts/Verdana.ttf
2280167	WORD	wordpools/wasnorm_wordpool.txt	LTP102	ltpFR	19	13	-1	TRIGGER	1507	n/a	-1	1	1.0	1.0	upper	../fonts/Verdana.ttf
2284175	WORD	wordpools/wasnorm_wordpool.txt	LTP102	ltpFR	19	13	-1	BRIDGE	174	n/a	-1	1	1.0	1.0	upper	../fonts/Verdana.ttf
2288383	WORD	wordpools/wasnorm_wordpool.txt	LTP102	ltpFR	19	13	-1	APARTMENT	30	n/a	-1	1	1.0	1.0	upper	../fonts/Verdana.ttf
2292299	WORD	wordpools/wasnorm_wordpool.txt	LTP102	ltpFR	19	13	-1	LOFT	840	n/a	-1	1	1.0	1.0	upper	../fonts/Verdana.ttf
2296182	WORD	wordpools/wasnorm_wordpool.txt	LTP102	ltpFR	19	13	-1	OLIVE	975	n/a	-1	1	1.0	1.0	upper	../fonts/Verdana.ttf
2300064	WORD	wordpools/wasnorm_wordpool.txt	LTP102	ltpFR	19	13	-1	HIKER	708	n/a	-1	1	1.0	1.0	upper	../fonts/Verdana.ttf
2304080	WORD	wordpools/wasnorm_wordpool.txt	LTP102	ltpFR	19	13	-1	SUIT	1402	n/a	-1	1	1.0	1.0	upper	../fonts/Verdana.ttf
2308231	WORD	wordpools/wasnorm_wordpool.txt	LTP102	ltpFR	19	13	-1	EARTH	515	n/a	-1	1	1.0	1.0	upper	../fonts/Verdana.ttf
2312088	WORD	wordpools/wasnorm_wordpool.txt	LTP102	ltpFR	19	13	-1	MARS	873	n/a	-1	1	1.0	1.0	upper	../fonts/Verdana.ttf
2316004	WORD	wordpools/wasnorm_wordpool.txt	LTP102	ltpFR	19	13	-1	SALIVA	1226	n/a	-1	1	1.0	1.0	upper	../fonts/Verdana.ttf
2320163	WORD	wordpools/wasnorm_wordpool.txt	LTP102	ltpFR	19	13	-1	BANQUET	86	n/a	-1	1	1.0	1.0	upper	../fonts/Verdana.ttf
2324172	WORD	wordpools/wasnorm_wordpool.txt	LTP102	ltpFR	19	13	-1	PLAID	1080	n/a	-1	1	1.0	1.0	upper	../fonts/Verdana.ttf
2329996	REC_START	n/a	LTP102	ltpFR	19	13	n/a	n/a	n/a	n/a	n/a	n/a	n/a	n/a	n/a	n/a
2331946	REC_WORD	wordpools/wasnorm_wordpool.txt	LTP102	ltpFR	19	13	-1	PLAID	1080	n/a	-1	n/a	n/a	n/a	n/a	n/a
2334081	REC_WORD	wordpools/wasnorm_wordpool.txt	LTP102	ltpFR	19	13	-1	HIKER	708	n/a	-1	n/a	n/a	n/a	n/a	n/a
2336516	REC_WORD	wordpools/wasnorm_wordpool.txt	LTP102	ltpFR	19	13	-1	TENT	1449	n/a	-1	n/a	n/a	n/a	n/a	n/a
2353612	REC_WORD	wordpools/wasnorm_wordpool.txt	LTP102	ltpFR	19	13	1	ROBE	1198	n/a	0	n/a	n/a	n/a	n/a	n/a
2356905	REC_WORD	wordpools/wasnorm_wordpool.txt	LTP102	ltpFR	19	13	-1	BUCKET	184	n/a	-1	n/a	n/a	n/a	n/a	n/a
2360816	REC_WORD	wordpools/wasnorm_wordpool.txt	LTP102	ltpFR	19	13	-1	BRIDGE	174	n/a	-1	n/a	n/a	n/a	n/a	n/a
2388682	REC_WORD	wordpools/wasnorm_wordpool.txt	LTP102	ltpFR	19	13	0	COBRA	336	n/a	0	n/a	n/a	n/a	n/a	n/a
2404107	REC_WORD	wordpools/wasnorm_wordpool.txt	LTP102	ltpFR	19	13	1	TEA	1439	n/a	0	n/a	n/a	n/a	n/a	n/a
2410072	WORD	wordpools/wasnorm_wordpool.txt	LTP102	ltpFR	19	14	-1	RATTLE	1170	n/a	-1	1	1.0	1.0	upper	../fonts/Verdana.ttf
2413930	WORD	wordpools/wasnorm_wordpool.txt	LTP102	ltpFR	19	14	-1	WHIP	1604	n/a	-1	1	1.0	1.0	upper	../fonts/Verdana.ttf
2417955	WORD	wordpools/wasnorm_wordpool.txt	LTP102	ltpFR	19	14	-1	JOINT	758	n/a	-1	1	1.0	1.0	upper	../fonts/Verdana.ttf
2422122	WORD	wordpools/wasnorm_wordpool.txt	LTP102	ltpFR	19	14	-1	VOLUNTEER	1577	n/a	-1	1	1.0	1.0	upper	../fonts/Verdana.ttf
2426054	WORD	wordpools/wasnorm_wordpool.txt	LTP102	ltpFR	19	14	-1	KLEENEX	782	n/a	-1	1	1.0	1.0	upper	../fonts/Verdana.ttf
2430263	WORD	wordpools/wasnorm_wordpool.txt	LTP102	ltpFR	19	14	-1	OUTFIT	988	n/a	-1	1	1.0	1.0	upper	../fonts/Verdana.ttf
2434238	WORD	wordpools/wasnorm_wordpool.txt	LTP102	ltpFR	19	14	-1	SKIRT	1319	n/a	-1	1	1.0	1.0	upper	../fonts/Verdana.ttf
2438087	WORD	wordpools/wasnorm_wordpool.txt	LTP102	ltpFR	19	14	-1	CHIMNEY	301	n/a	-1	1	1.0	1.0	upper	../fonts/Verdana.ttf
2441970	WORD	wordpools/wasnorm_wordpool.txt	LTP102	ltpFR	19	14	-1	KEYBOARD	774	n/a	-1	1	1.0	1.0	upper	../fonts/Verdana.ttf
2446019	WORD	wordpools/wasnorm_wordpool.txt	LTP102	ltpFR	19	14	-1	HARP	689	n/a	-1	1	1.0	1.0	upper	../fonts/Verdana.ttf
2449902	WORD	wordpools/wasnorm_wordpool.txt	LTP102	ltpFR	19	14	-1	COLLAR	345	n/a	-1	1	1.0	1.0	upper	../fonts/Verdana.ttf
2453736	WORD	wordpools/wasnorm_wordpool.txt	LTP102	ltpFR	19	14	-1	MONGOOSE	909	n/a	-1	1	1.0	1.0	upper	../fonts/Verdana.ttf
2457553	WORD	wordpools/wasnorm_wordpool.txt	LTP102	ltpFR	19	14	-1	DUNGEON	507	n/a	-1	1	1.0	1.0	upper	../fonts/Verdana.ttf
2461486	WORD	wordpools/wasnorm_wordpool.txt	LTP102	ltpFR	19	14	-1	RAZOR	1171	n/a	-1	1	1.0	1.0	upper	../fonts/Verdana.ttf
2465694	WORD	wordpools/wasnorm_wordpool.txt	LTP102	ltpFR	19	14	-1	DOORBELL	487	n/a	-1	1	1.0	1.0	upper	../fonts/Verdana.ttf
2469834	WORD	wordpools/wasnorm_wordpool.txt	LTP102	ltpFR	19	14	-1	RING	1193	n/a	-1	1	1.0	1.0	upper	../fonts/Verdana.ttf
2475627	REC_START	n/a	LTP102	ltpFR	19	14	n/a	n/a	n/a	n/a	n/a	n/a	n/a	n/a	n/a	n/a
2476784	REC_WORD	wordpools/wasnorm_wordpool.txt	LTP102	ltpFR	19	14	-1	RING	1193	n/a	-1	n/a	n/a	n/a	n/a	n/a
2478924	REC_WORD	wordpools/wasnorm_wordpool.txt	LTP102	ltpFR	19	14	-1	DOORBELL	487	n/a	-1	n/a	n/a	n/a	n/a	n/a
2482810	REC_WORD	wordpools/wasnorm_wordpool.txt	LTP102	ltpFR	19	14	1	COOLER	375	n/a	0	n/a	n/a	n/a	n/a	n/a
2488103	REC_WORD	wordpools/wasnorm_wordpool.txt	LTP102	ltpFR	19	14	-1	WHIP	1604	n/a	-1	n/a	n/a	n/a	n/a	n/a
2509575	REC_WORD	wordpools/wasnorm_wordpool.txt	LTP102	ltpFR	19	14	-1	RATTLE	1170	n/a	-1	n/a	n/a	n/a	n/a	n/a
2516210	REC_WORD	wordpools/wasnorm_wordpool.txt	LTP102	ltpFR	19	14	-1	WHIP	1604	n/a	-1	n/a	n/a	n/a	n/a	n/a
2526750	REC_WORD	wordpools/wasnorm_wordpool.txt	LTP102	ltpFR	19	14	0	COBRA	336	n/a	0	n/a	n/a	n/a	n/a	n/a
2555745	WORD	wordpools/wasnorm_wordpool.txt	LTP102	ltpFR	19	15	-1	MEAT	883	n/a	-1	1	1.0	1.0	upper	../fonts/Verdana.ttf
2559637	WORD	wordpools/wasnorm_wordpool.txt	LTP102	ltpFR	19	15	-1	VAULT	1550	n/a	-1	1	1.0	1.0	upper	../fonts/Verdana.ttf
2563478	WORD	wordpools/wasnorm_wordpool.txt	LTP102	ltpFR	19	15	-1	DOLLAR	482	n/a	-1	1	1.0	1.0	upper	../fonts/Verdana.ttf
2567619	WORD	wordpools/wasnorm_wordpool.txt	LTP102	ltpFR	19	15	-1	CELLAR	267	n/a	-1	1	1.0	1.0	upper	../fonts/Verdana.ttf
2571644	WORD	wordpools/wasnorm_wordpool.txt	LTP102	ltpFR	19	15	-1	FREEZER	604	n/a	-1	1	1.0	1.0	upper	../fonts/Verdana.ttf
2575544	WORD	wordpools/wasnorm_wordpool.txt	LTP102	ltpFR	19	15	-1	PICTURE	1061	n/a	-1	1	1.0	1.0	upper	../fonts/Verdana.ttf
2579727	WORD	wordpools/wasnorm_wordpool.txt	LTP102	ltpFR	19	15	-1	CONCRETE	361	n/a	-1	1	1.0	1.0	upper	../fonts/Verdana.ttf
2583543	WORD	wordpools/wasnorm_wordpool.txt	LTP102	ltpFR	19	15	-1	CLOTHES	327	n/a	-1	1	1.0	1.0	upper	../fonts/Verdana.ttf
2587359	WORD	wordpools/wasnorm_wordpool.txt	LTP102	ltpFR	19	15	-1	CAFETERIA	217	n/a	-1	1	1.0	1.0	upper	../fonts/Verdana.ttf
2591367	WORD	wordpools/wasnorm_wordpool.txt	LTP102	ltpFR	19	15	-1	STOMACH	1384	n/a	-1	1	1.0	1.0	upper	../fonts/Verdana.ttf
2595367	WORD	wordpools/wasnorm_wordpool.txt	LTP102	ltpFR	19	15	-1	DIME	466	n/a	-1	1	1.0	1.0	upper	../fonts/Verdana.ttf
2599492	WORD	wordpools/wasnorm_wordpool.txt	LTP102	ltpFR	19	15	-1	POLE	1097	n/a	-1	1	1.0	1.0	upper	../fonts/Verdana.ttf
2603675	WORD	wordpools/wasnorm_wordpool.txt	LTP102	ltpFR	19	15	-1	JOURNAL	760	n/a	-1	1	1.0	1.0	upper	../fonts/Verdana.ttf
2607857	WORD	wordpools/wasnorm_wordpool.txt	LTP102	ltpFR	19	15	-1	RAG	1160	n/a	-1	1	1.0	1.0	upper	../fonts/Verdana.ttf
2611716	WORD	wordpools/wasnorm_wordpool.txt	LTP102	ltpFR	19	15	-1	FAMILY	550	n/a	-1	1	1.0	1.0	upper	../fonts/Verdana.ttf
2615773	WORD	wordpools/wasnorm_wordpool.txt	LTP102	ltpFR	19	15	-1	SKETCH	1315	n/a	-1	1	1.0	1.0	upper	../fonts/Verdana.ttf
2621566	REC_START	n/a	LTP102	ltpFR	19	15	n/a	n/a	n/a	n/a	n/a	n/a	n/a	n/a	n/a	n/a
2622928	REC_WORD	wordpools/wasnorm_wordpool.txt	LTP102	ltpFR	19	15	-1	SKETCH	1315	n/a	-1	n/a	n/a	n/a	n/a	n/a
2624669	REC_WORD	wordpools/wasnorm_wordpool.txt	LTP102	ltpFR	19	15	n/a	DIAGRAM	456	n/a	n/a	n/a	n/a	n/a	n/a	n/a
2626679	REC_WORD	wordpools/wasnorm_wordpool.txt	LTP102	ltpFR	19	15	-1	FAMILY	550	n/a	-1	n/a	n/a	n/a	n/a	n/a
2628740	REC_WORD	wordpools/wasnorm_wordpool.txt	LTP102	ltpFR	19	15	-1	DIME	466	n/a	-1	n/a	n/a	n/a	n/a	n/a
2630316	REC_WORD	wordpools/wasnorm_wordpool.txt	LTP102	ltpFR	19	15	1	COIN	343	n/a	0	n/a	n/a	n/a	n/a	n/a
2631982	REC_WORD	wordpools/wasnorm_wordpool.txt	LTP102	ltpFR	19	15	-1	RAG	1160	n/a	-1	n/a	n/a	n/a	n/a	n/a
2634252	REC_WORD	wordpools/wasnorm_wordpool.txt	LTP102	ltpFR	19	15	1	BAG	69	n/a	0	n/a	n/a	n/a	n/a	n/a
2644369	REC_WORD	wordpools/wasnorm_wordpool.txt	LTP102	ltpFR	19	15	-1	CLOTHES	327	n/a	-1	n/a	n/a	n/a	n/a	n/a
2646599	REC_WORD	wordpools/wasnorm_wordpool.txt	LTP102	ltpFR	19	15	-1	SKIRT	1319	n/a	-1	n/a	n/a	n/a	n/a	n/a
2649183	REC_WORD	wordpools/wasnorm_wordpool.txt	LTP102	ltpFR	19	15	-1	LOFT	840	n/a	-1	n/a	n/a	n/a	n/a	n/a
2660677	REC_WORD	wordpools/wasnorm_wordpool.txt	LTP102	ltpFR	19	15	-1	FREEZER	604	n/a	-1	n/a	n/a	n/a	n/a	n/a
2663361	REC_WORD	wordpools/wasnorm_wordpool.txt	LTP102	ltpFR	19	15	-1	CELLAR	267	n/a	-1	n/a	n/a	n/a	n/a	n/a
2667826	REC_WORD	wordpools/wasnorm_wordpool.txt	LTP102	ltpFR	19	15	1	COOLER	375	n/a	0	n/a	n/a	n/a	n/a	n/a
2702542	WORD	wordpools/wasnorm_wordpool.txt	LTP102	ltpFR	19	16	0	PIER	1063	n/a	1	1	0.412841796875	0.57763671875	upper	../fonts/amplitud.ttf
2706509	WORD	wordpools/wasnorm_wordpool.txt	LTP102	ltpFR	19	16	0	SCALE	1241	n/a	0	1	0.412841796875	0.57763671875	upper	../fonts/amplitud.ttf
2710717	WORD	wordpools/wasnorm_wordpool.txt	LTP102	ltpFR	19	16	0	CANYON	235	n/a	1	1	0.412841796875	0.57763671875	upper	../fonts/amplitud.ttf
2714774	WORD	wordpools/wasnorm_wordpool.txt	LTP102	ltpFR	19	16	0	STREAM	1392	n/a	0	1	0.412841796875	0.57763671875	upper	../fonts/amplitud.ttf
2718923	WORD	wordpools/wasnorm_wordpool.txt	LTP102	ltpFR	19	16	0	LAKE	796	n/a	1	1	0.412841796875	0.57763671875	upper	../fonts/amplitud.ttf
2723132	WORD	wordpools/wasnorm_wordpool.txt	LTP102	ltpFR	19	16	0	VALLEY	1545	n/a	1	1	0.412841796875	0.57763671875	upper	../fonts/amplitud.ttf
2726998	WORD	wordpools/wasnorm_wordpool.txt	LTP102	ltpFR	19	16	0	BANDANNA	80	n/a	0	1	0.412841796875	0.57763671875	upper	../fonts/amplitud.ttf
2730864	WORD	wordpools/wasnorm_wordpool.txt	LTP102	ltpFR	19	16	0	SWIMMER	1420	n/a	1	1	0.412841796875	0.57763671875	upper	../fonts/amplitud.ttf
2734831	WORD	wordpools/wasnorm_wordpool.txt	LTP102	ltpFR	19	16	0	TAXI	1438	n/a	1	1	0.412841796875	0.57763671875	upper	../fonts/amplitud.ttf
2738905	WORD	wordpools/wasnorm_wordpool.txt	LTP102	ltpFR	19	16	0	SATURN	1236	n/a	1	1	0.412841796875	0.57763671875	upper	../fonts/amplitud.ttf
2743005	WORD	wordpools/wasnorm_wordpool.txt	LTP102	ltpFR	19	16	0	LOUNGE	845	n/a	1	1	0.412841796875	0.57763671875	upper	../fonts/amplitud.ttf
2746921	WORD	wordpools/wasnorm_wordpool.txt	LTP102	ltpFR	19	16	0	BEER	114	n/a	0	1	0.412841796875	0.57763671875	upper	../fonts/amplitud.ttf
2750904	WORD	wordpools/wasnorm_wordpool.txt	LTP102	ltpFR	19	16	0	VOLLEYBALL	1576	n/a	1	1	0.412841796875	0.57763671875	upper	../fonts/amplitud.ttf
2754879	WORD	wordpools/wasnorm_wordpool.txt	LTP102	ltpFR	19	16	0	BRANDY	169	n/a	0	1	0.412841796875	0.57763671875	upper	../fonts/amplitud.ttf
2759020	WORD	wordpools/wasnorm_wordpool.txt	LTP102	ltpFR	19	16	0	CLIPPERS	324	n/a	0	1	0.412841796875	0.57763671875	upper	../fonts/amplitud.ttf
2763062	WORD	wordpools/wasnorm_wordpool.txt	LTP102	ltpFR	19	16	0	SILK	1307	n/a	0	1	0.412841796875	0.57763671875	upper	../fonts/amplitud.ttf
2768929	REC_START	n/a	LTP102	ltpFR	19	16	n/a	n/a	n/a	n/a	n/a	n/a	n/a	n/a	n/a	n/a
2769822	REC_WORD	wordpools/wasnorm_wordpool.txt	LTP102	ltpFR	19	16	0	SILK	1307	n/a	0	n/a	n/a	n/a	n/a	n/a
2771468	REC_WORD	wordpools/wasnorm_wordpool.txt	LTP102	ltpFR	19	16	0	COCOON	339	n/a	0	n/a	n/a	n/a	n/a	n/a
2773962	REC_WORD	wordpools/wasnorm_wordpool.txt	LTP102	ltpFR	19	16	-1	SCISSORS	1250	n/a	-1	n/a	n/a	n/a	n/a	n/a
2776222	REC_WORD	wordpools/wasnorm_wordpool.txt	LTP102	ltpFR	19	16	n/a	SHEARS	1276	n/a	n/a	n/a	n/a	n/a	n/a	n/a
2778173	REC_WORD	wordpools/wasnorm_wordpool.txt	LTP102	ltpFR	19	16	0	CLIPPERS	324	n/a	0	n/a	n/a	n/a	n/a	n/a
2783531	REC_WORD	wordpools/wasnorm_wordpool.txt	LTP102	ltpFR	19	16	-1	POLE	1097	n/a	-1	n/a	n/a	n/a	n/a	n/a
2787387	REC_WORD	wordpools/wasnorm_wordpool.txt	LTP102	ltpFR	19	16	0	HOSE	720	n/a	0	n/a	n/a	n/a	n/a	n/a
2816032	REC_WORD	wordpools/wasnorm_wordpool.txt	LTP102	ltpFR	19	16	n/a	SKEWER	-1	n/a	n/a	n/a	n/a	n/a	n/a	n/a
2819174	REC_WORD	wordpools/wasnorm_wordpool.txt	LTP102	ltpFR	19	16	-1	SKETCH	1315	n/a	-1	n/a	n/a	n/a	n/a	n/a
2830609	REC_WORD	wordpools/wasnorm_wordpool.txt	LTP102	ltpFR	19	16	-1	BRIDGE	174	n/a	-1	n/a	n/a	n/a	n/a	n/a
2836585	REC_WORD	wordpools/wasnorm_wordpool.txt	LTP102	ltpFR	19	16	-1	STOMACH	1384	n/a	-1	n/a	n/a	n/a	n/a	n/a
2858581	REC_START	n/a	LTP102	ltpFR	19	n/a	n/a	n/a	n/a	n/a	n/a	n/a	n/a	n/a	n/a	n/a
2859598	FFR_REC_WORD	wordpools/wasnorm_wordpool.txt	LTP102	ltpFR	19	n/a	1	ENGINEER	536	n/a	1	n/a	n/a	n/a	n/a	n/a
2860716	FFR_REC_WORD	wordpools/wasnorm_wordpool.txt	LTP102	ltpFR	19	n/a	1	SUPERVISOR	1410	n/a	1	n/a	n/a	n/a	n/a	n/a
2862532	FFR_REC_WORD	wordpools/wasnorm_wordpool.txt	LTP102	ltpFR	19	n/a	1	GOVERNOR	651	n/a	1	n/a	n/a	n/a	n/a	n/a
2863854	FFR_REC_WORD	wordpools/wasnorm_wordpool.txt	LTP102	ltpFR	19	n/a	1	SECRETARY	1265	n/a	1	n/a	n/a	n/a	n/a	n/a
2865959	FFR_REC_WORD	wordpools/wasnorm_wordpool.txt	LTP102	ltpFR	19	n/a	1	INMATE	738	n/a	1	n/a	n/a	n/a	n/a	n/a
2869271	FFR_REC_WORD	wordpools/wasnorm_wordpool.txt	LTP102	ltpFR	19	n/a	-1	HIKER	708	n/a	-1	n/a	n/a	n/a	n/a	n/a
2871666	FFR_REC_WORD	wordpools/wasnorm_wordpool.txt	LTP102	ltpFR	19	n/a	1	DWARF	510	n/a	1	n/a	n/a	n/a	n/a	n/a
2875906	FFR_REC_WORD	wordpools/wasnorm_wordpool.txt	LTP102	ltpFR	19	n/a	1	ASSOCIATE	49	n/a	1	n/a	n/a	n/a	n/a	n/a
2877727	FFR_REC_WORD	wordpools/wasnorm_wordpool.txt	LTP102	ltpFR	19	n/a	1	PARTNER	1017	n/a	1	n/a	n/a	n/a	n/a	n/a
2879668	FFR_REC_WORD	wordpools/wasnorm_wordpool.txt	LTP102	ltpFR	19	n/a	1	LETTUCE	814	n/a	1	n/a	n/a	n/a	n/a	n/a
2880760	FFR_REC_WORD	wordpools/wasnorm_wordpool.txt	LTP102	ltpFR	19	n/a	1	POTATO	1115	n/a	0	n/a	n/a	n/a	n/a	n/a
2882426	FFR_REC_WORD	wordpools/wasnorm_wordpool.txt	LTP102	ltpFR	19	n/a	1	COLESLAW	344	n/a	0	n/a	n/a	n/a	n/a	n/a
2883913	FFR_REC_WORD	wordpools/wasnorm_wordpool.txt	LTP102	ltpFR	19	n/a	1	SHRIMP	1297	n/a	1	n/a	n/a	n/a	n/a	n/a
2885759	FFR_REC_WORD	wordpools/wasnorm_wordpool.txt	LTP102	ltpFR	19	n/a	0	COD	340	n/a	0	n/a	n/a	n/a	n/a	n/a
2893955	FFR_REC_WORD	wordpools/wasnorm_wordpool.txt	LTP102	ltpFR	19	n/a	0	CRAB	397	n/a	0	n/a	n/a	n/a	n/a	n/a
2896096	FFR_REC_WORD	wordpools/wasnorm_wordpool.txt	LTP102	ltpFR	19	n/a	0	KIDNEY	776	n/a	0	n/a	n/a	n/a	n/a	n/a
2897532	FFR_REC_WORD	wordpools/wasnorm_wordpool.txt	LTP102	ltpFR	19	n/a	0	RICE	1190	n/a	0	n/a	n/a	n/a	n/a	n/a
2904531	FFR_REC_WORD	wordpools/wasnorm_wordpool.txt	LTP102	ltpFR	19	n/a	0	MOUSE	925	n/a	0	n/a	n/a	n/a	n/a	n/a
2905988	FFR_REC_WORD	wordpools/wasnorm_wordpool.txt	LTP102	ltpFR	19	n/a	0	SCHOOL	1248	n/a	1	n/a	n/a	n/a	n/a	n/a
2907679	FFR_REC_WORD	wordpools/wasnorm_wordpool.txt	LTP102	ltpFR	19	n/a	1	COLLEGE	346	n/a	0	n/a	n/a	n/a	n/a	n/a
2910099	FFR_REC_WORD	wordpools/wasnorm_wordpool.txt	LTP102	ltpFR	19	n/a	-1	BRIDGE	174	n/a	-1	n/a	n/a	n/a	n/a	n/a
2911890	FFR_REC_WORD	wordpools/wasnorm_wordpool.txt	LTP102	ltpFR	19	n/a	n/a	BATHTUB	100	n/a	n/a	n/a	n/a	n/a	n/a	n/a
2916005	FFR_REC_WORD	wordpools/wasnorm_wordpool.txt	LTP102	ltpFR	19	n/a	-1	ATOM	55	n/a	-1	n/a	n/a	n/a	n/a	n/a
2922096	FFR_REC_WORD	wordpools/wasnorm_wordpool.txt	LTP102	ltpFR	19	n/a	-1	SKIRT	1319	n/a	-1	n/a	n/a	n/a	n/a	n/a
2923538	FFR_REC_WORD	wordpools/wasnorm_wordpool.txt	LTP102	ltpFR	19	n/a	-1	POLE	1097	n/a	-1	n/a	n/a	n/a	n/a	n/a
2926332	FFR_REC_WORD	wordpools/wasnorm_wordpool.txt	LTP102	ltpFR	19	n/a	0	HOSE	720	n/a	0	n/a	n/a	n/a	n/a	n/a
2931006	FFR_REC_WORD	wordpools/wasnorm_wordpool.txt	LTP102	ltpFR	19	n/a	1	BAG	69	n/a	0	n/a	n/a	n/a	n/a	n/a
2932303	FFR_REC_WORD	wordpools/wasnorm_wordpool.txt	LTP102	ltpFR	19	n/a	-1	RAG	1160	n/a	-1	n/a	n/a	n/a	n/a	n/a
2934394	FFR_REC_WORD	wordpools/wasnorm_wordpool.txt	LTP102	ltpFR	19	n/a	0	CROCODILE	411	n/a	1	n/a	n/a	n/a	n/a	n/a
2937811	FFR_REC_WORD	wordpools/wasnorm_wordpool.txt	LTP102	ltpFR	19	n/a	1	ANT	25	n/a	1	n/a	n/a	n/a	n/a	n/a
2940305	FFR_REC_WORD	wordpools/wasnorm_wordpool.txt	LTP102	ltpFR	19	n/a	-1	FAMILY	550	n/a	-1	n/a	n/a	n/a	n/a	n/a
2945254	FFR_REC_WORD	wordpools/wasnorm_wordpool.txt	LTP102	ltpFR	19	n/a	-1	LOFT	840	n/a	-1	n/a	n/a	n/a	n/a	n/a
2956364	FFR_REC_WORD	wordpools/wasnorm_wordpool.txt	LTP102	ltpFR	19	n/a	-1	TENT	1449	n/a	-1	n/a	n/a	n/a	n/a	n/a
2960609	FFR_REC_WORD	wordpools/wasnorm_wordpool.txt	LTP102	ltpFR	19	n/a	0	SUPERMARKET	1409	n/a	1	n/a	n/a	n/a	n/a	n/a
2967084	FFR_REC_WORD	wordpools/wasnorm_wordpool.txt	LTP102	ltpFR	19	n/a	0	VOLLEYBALL	1576	n/a	1	n/a	n/a	n/a	n/a	n/a
2970601	FFR_REC_WORD	wordpools/wasnorm_wordpool.txt	LTP102	ltpFR	19	n/a	1	LAPEL	800	n/a	0	n/a	n/a	n/a	n/a	n/a
2975440	FFR_REC_WORD	wordpools/wasnorm_wordpool.txt	LTP102	ltpFR	19	n/a	-1	PLAID	1080	n/a	-1	n/a	n/a	n/a	n/a	n/a
2982434	FFR_REC_WORD	wordpools/wasnorm_wordpool.txt	LTP102	ltpFR	19	n/a	0	EYE	545	n/a	0	n/a	n/a	n/a	n/a	n/a
2983746	FFR_REC_WORD	wordpools/wasnorm_wordpool.txt	LTP102	ltpFR	19	n/a	0	EAR	513	n/a	0	n/a	n/a	n/a	n/a	n/a
2989778	FFR_REC_WORD	wordpools/wasnorm_wordpool.txt	LTP102	ltpFR	19	n/a	n/a	CEMENT	-1	n/a	n/a	n/a	n/a	n/a	n/a	n/a
2991823	FFR_REC_WORD	wordpools/wasnorm_wordpool.txt	LTP102	ltpFR	19	n/a	1	PAVEMENT	1028	n/a	0	n/a	n/a	n/a	n/a	n/a
2993554	FFR_REC_WORD	wordpools/wasnorm_wordpool.txt	LTP102	ltpFR	19	n/a	-1	PACKAGE	997	n/a	-1	n/a	n/a	n/a	n/a	n/a
3000239	FFR_REC_WORD	wordpools/wasnorm_wordpool.txt	LTP102	ltpFR	19	n/a	0	KNIFE	785	n/a	0	n/a	n/a	n/a	n/a	n/a
3005991	FFR_REC_WORD	wordpools/wasnorm_wordpool.txt	LTP102	ltpFR	19	n/a	0	CUCUMBER	421	n/a	0	n/a	n/a	n/a	n/a	n/a
3007383	FFR_REC_WORD	wordpools/wasnorm_wordpool.txt	LTP102	ltpFR	19	n/a	0	CARROT	249	n/a	0	n/a	n/a	n/a	n/a	n/a
3011079	FFR_REC_WORD	wordpools/wasnorm_wordpool.txt	LTP102	ltpFR	19	n/a	0	BEEF	113	n/a	1	n/a	n/a	n/a	n/a	n/a
3012965	FFR_REC_WORD	wordpools/wasnorm_wordpool.txt	LTP102	ltpFR	19	n/a	1	VEAL	1551	n/a	1	n/a	n/a	n/a	n/a	n/a
3014586	FFR_REC_WORD	wordpools/wasnorm_wordpool.txt	LTP102	ltpFR	19	n/a	0	HAM	678	n/a	1	n/a	n/a	n/a	n/a	n/a
3038607	FFR_REC_WORD	wordpools/wasnorm_wordpool.txt	LTP102	ltpFR	19	n/a	n/a	KEEPER	769	n/a	n/a	n/a	n/a	n/a	n/a	n/a
3041580	FFR_REC_WORD	wordpools/wasnorm_wordpool.txt	LTP102	ltpFR	19	n/a	0	BEE	112	n/a	0	n/a	n/a	n/a	n/a	n/a
3043615	FFR_REC_WORD	wordpools/wasnorm_wordpool.txt	LTP102	ltpFR	19	n/a	0	MERMAID	887	n/a	1	n/a	n/a	n/a	n/a	n/a
3044513	FFR_REC_WORD	wordpools/wasnorm_wordpool.txt	LTP102	ltpFR	19	n/a	0	SEA	1259	n/a	1	n/a	n/a	n/a	n/a	n/a
3047566	FFR_REC_WORD	wordpools/wasnorm_wordpool.txt	LTP102	ltpFR	19	n/a	1	COIN	343	n/a	0	n/a	n/a	n/a	n/a	n/a
3048524	FFR_REC_WORD	wordpools/wasnorm_wordpool.txt	LTP102	ltpFR	19	n/a	-1	DIME	466	n/a	-1	n/a	n/a	n/a	n/a	n/a
3067496	FFR_REC_WORD	wordpools/wasnorm_wordpool.txt	LTP102	ltpFR	19	n/a	1	MEDICINE	886	n/a	0	n/a	n/a	n/a	n/a	n/a
3076136	FFR_REC_WORD	wordpools/wasnorm_wordpool.txt	LTP102	ltpFR	19	n/a	-1	FREEZER	604	n/a	-1	n/a	n/a	n/a	n/a	n/a
3076979	FFR_REC_WORD	wordpools/wasnorm_wordpool.txt	LTP102	ltpFR	19	n/a	1	COOLER	375	n/a	0	n/a	n/a	n/a	n/a	n/a
3077658	FFR_REC_WORD	wordpools/wasnorm_wordpool.txt	LTP102	ltpFR	19	n/a	0	HEATER	698	n/a	1	n/a	n/a	n/a	n/a	n/a
3078240	FFR_REC_WORD	wordpools/wasnorm_wordpool.txt	LTP102	ltpFR	19	n/a	-1	CELLAR	267	n/a	-1	n/a	n/a	n/a	n/a	n/a
3087565	FFR_REC_WORD	wordpools/wasnorm_wordpool.txt	LTP102	ltpFR	19	n/a	n/a	DOOR	486	n/a	n/a	n/a	n/a	n/a	n/a	n/a
3087823	FFR_REC_WORD	wordpools/wasnorm_wordpool.txt	LTP102	ltpFR	19	n/a	n/a	KNOB	787	n/a	n/a	n/a	n/a	n/a	n/a	n/a
3109091	FFR_REC_WORD	wordpools/wasnorm_wordpool.txt	LTP102	ltpFR	19	n/a	1	ROBE	1198	n/a	0	n/a	n/a	n/a	n/a	n/a
3119273	FFR_REC_WORD	wordpools/wasnorm_wordpool.txt	LTP102	ltpFR	19	n/a	0	COCOON	339	n/a	0	n/a	n/a	n/a	n/a	n/a
3120750	FFR_REC_WORD	wordpools/wasnorm_wordpool.txt	LTP102	ltpFR	19	n/a	-1	RACCOON	1153	n/a	-1	n/a	n/a	n/a	n/a	n/a
3130892	FFR_REC_WORD	wordpools/wasnorm_wordpool.txt	LTP102	ltpFR	19	n/a	-1	PRESIDENT	1121	n/a	-1	n/a	n/a	n/a	n/a	n/a
3177830	REC_START	n/a	LTP102	ltpFR	19	1	n/a	n/a	n/a	n/a	n/a	n/a	n/a	n/a	n/a	n/a
3177863	RECOG_TARGET	n/a	LTP102	ltpFR	19	1	0	COD	340	5	0	n/a	n/a	n/a	n/a	n/a
3179436	RECOG_RESP	n/a	LTP102	ltpFR	19	1	0	COD	340	n/a	0	n/a	n/a	n/a	n/a	n/a
3181077	RECOG_CONF	n/a	LTP102	ltpFR	19	1	0	COD	340	5	0	n/a	n/a	n/a	n/a	n/a
3182547	RECOG_LURE	n/a	LTP102	ltpFR	19	1	n/a	JEWEL	757	5	n/a	n/a	n/a	n/a	n/a	n/a
3183277	RECOG_RESP	n/a	LTP102	ltpFR	19	1	n/a	JEWEL	757	n/a	n/a	n/a	n/a	n/a	n/a	n/a
3184130	RECOG_CONF	n/a	LTP102	ltpFR	19	1	n/a	JEWEL	757	5	n/a	n/a	n/a	n/a	n/a	n/a
3185572	RECOG_LURE	n/a	LTP102	ltpFR	19	1	n/a	BLOCKADE	137	5	n/a	n/a	n/a	n/a	n/a	n/a
3186345	RECOG_RESP	n/a	LTP102	ltpFR	19	1	n/a	BLOCKADE	137	n/a	n/a	n/a	n/a	n/a	n/a	n/a
3187114	RECOG_CONF	n/a	LTP102	ltpFR	19	1	n/a	BLOCKADE	137	5	n/a	n/a	n/a	n/a	n/a	n/a
3188521	RECOG_LURE	n/a	LTP102	ltpFR	19	1	n/a	CHIPMUNK	304	5	n/a	n/a	n/a	n/a	n/a	n/a
3189304	RECOG_RESP	n/a	LTP102	ltpFR	19	1	n/a	CHIPMUNK	304	n/a	n/a	n/a	n/a	n/a	n/a	n/a
3190097	RECOG_CONF	n/a	LTP102	ltpFR	19	1	n/a	CHIPMUNK	304	5	n/a	n/a	n/a	n/a	n/a	n/a
3191413	RECOG_TARGET	n/a	LTP102	ltpFR	19	1	1	FACTORY	548	5	0	n/a	n/a	n/a	n/a	n/a
3192112	RECOG_RESP	n/a	LTP102	ltpFR	19	1	1	FACTORY	548	n/a	0	n/a	n/a	n/a	n/a	n/a
3192881	RECOG_CONF	n/a	LTP102	ltpFR	19	1	1	FACTORY	548	5	0	n/a	n/a	n/a	n/a	n/a
3194263	RECOG_LURE	n/a	LTP102	ltpFR	19	1	n/a	PUMP	1141	5	n/a	n/a	n/a	n/a	n/a	n/a
3194966	RECOG_RESP	n/a	LTP102	ltpFR	19	1	n/a	PUMP	1141	n/a	n/a	n/a	n/a	n/a	n/a	n/a
3195744	RECOG_CONF	n/a	LTP102	ltpFR	19	1	n/a	PUMP	1141	5	n/a	n/a	n/a	n/a	n/a	n/a
3197246	RECOG_TARGET	n/a	LTP102	ltpFR	19	1	0	CARROT	249	5	0	n/a	n/a	n/a	n/a	n/a
3197770	RECOG_RESP	n/a	LTP102	ltpFR	19	1	0	CARROT	249	n/a	0	n/a	n/a	n/a	n/a	n/a
3198478	RECOG_CONF	n/a	LTP102	ltpFR	19	1	0	CARROT	249	5	0	n/a	n/a	n/a	n/a	n/a
3199961	RECOG_TARGET	n/a	LTP102	ltpFR	19	1	1	DRINK	498	3	0	n/a	n/a	n/a	n/a	n/a
3200823	RECOG_RESP	n/a	LTP102	ltpFR	19	1	1	DRINK	498	n/a	0	n/a	n/a	n/a	n/a	n/a
3201651	RECOG_CONF	n/a	LTP102	ltpFR	19	1	1	DRINK	498	3	0	n/a	n/a	n/a	n/a	n/a
3203111	RECOG_TARGET	n/a	LTP102	ltpFR	19	1	0	STREAM	1392	5	0	n/a	n/a	n/a	n/a	n/a
3204255	RECOG_RESP	n/a	LTP102	ltpFR	19	1	0	STREAM	1392	n/a	0	n/a	n/a	n/a	n/a	n/a
3204953	RECOG_CONF	n/a	LTP102	ltpFR	19	1	0	STREAM	1392	5	0	n/a	n/a	n/a	n/a	n/a
3206362	RECOG_LURE	n/a	LTP102	ltpFR	19	1	n/a	BAKER	71	3	n/a	n/a	n/a	n/a	n/a	n/a
3207403	RECOG_RESP	n/a	LTP102	ltpFR	19	1	n/a	BAKER	71	n/a	n/a	n/a	n/a	n/a	n/a	n/a
3208176	RECOG_CONF	n/a	LTP102	ltpFR	19	1	n/a	BAKER	71	3	n/a	n/a	n/a	n/a	n/a	n/a
3209520	RECOG_LURE	n/a	LTP102	ltpFR	19	1	n/a	LENS	811	5	n/a	n/a	n/a	n/a	n/a	n/a
3210316	RECOG_RESP	n/a	LTP102	ltpFR	19	1	n/a	LENS	811	n/a	n/a	n/a	n/a	n/a	n/a	n/a
3211009	RECOG_CONF	n/a	LTP102	ltpFR	19	1	n/a	LENS	811	5	n/a	n/a	n/a	n/a	n/a	n/a
3212361	RECOG_TARGET	n/a	LTP102	ltpFR	19	1	0	TWIG	1527	5	0	n/a	n/a	n/a	n/a	n/a
3213095	RECOG_RESP	n/a	LTP102	ltpFR	19	1	0	TWIG	1527	n/a	0	n/a	n/a	n/a	n/a	n/a
3213743	RECOG_CONF	n/a	LTP102	ltpFR	19	1	0	TWIG	1527	5	0	n/a	n/a	n/a	n/a	n/a
3215228	RECOG_TARGET	n/a	LTP102	ltpFR	19	1	-1	ANTEATER	26	3	-1	n/a	n/a	n/a	n/a	n/a
3215973	RECOG_RESP	n/a	LTP102	ltpFR	19	1	-1	ANTEATER	26	n/a	-1	n/a	n/a	n/a	n/a	n/a
3216657	RECOG_CONF	n/a	LTP102	ltpFR	19	1	-1	ANTEATER	26	3	-1	n/a	n/a	n/a	n/a	n/a
3218051	RECOG_LURE	n/a	LTP102	ltpFR	19	1	n/a	COLOGNE	347	5	n/a	n/a	n/a	n/a	n/a	n/a
3218837	RECOG_RESP	n/a	LTP102	ltpFR	19	1	n/a	COLOGNE	347	n/a	n/a	n/a	n/a	n/a	n/a	n/a
3219510	RECOG_CONF	n/a	LTP102	ltpFR	19	1	n/a	COLOGNE	347	5	n/a	n/a	n/a	n/a	n/a	n/a
3220959	RECOG_TARGET	n/a	LTP102	ltpFR	19	1	1	SUSPECT	1415	2	1	n/a	n/a	n/a	n/a	n/a
3221795	RECOG_RESP	n/a	LTP102	ltpFR	19	1	1	SUSPECT	1415	n/a	1	n/a	n/a	n/a	n/a	n/a
3222543	RECOG_CONF	n/a	LTP102	ltpFR	19	1	1	SUSPECT	1415	2	1	n/a	n/a	n/a	n/a	n/a
3224093	RECOG_TARGET	n/a	LTP102	ltpFR	19	1	-1	OLIVE	975	5	-1	n/a	n/a	n/a	n/a	n/a
3224728	RECOG_RESP	n/a	LTP102	ltpFR	19	1	-1	OLIVE	975	n/a	-1	n/a	n/a	n/a	n/a	n/a
3225427	RECOG_CONF	n/a	LTP102	ltpFR	19	1	-1	OLIVE	975	5	-1	n/a	n/a	n/a	n/a	n/a
3226892	RECOG_LURE	n/a	LTP102	ltpFR	19	1	n/a	MAYONNAISE	880	5	n/a	n/a	n/a	n/a	n/a	n/a
3227577	RECOG_RESP	n/a	LTP102	ltpFR	19	1	n/a	MAYONNAISE	880	n/a	n/a	n/a	n/a	n/a	n/a	n/a
3228121	RECOG_CONF	n/a	LTP102	ltpFR	19	1	n/a	MAYONNAISE	880	5	n/a	n/a	n/a	n/a	n/a	n/a
3229601	RECOG_TARGET	n/a	LTP102	ltpFR	19	1	1	GANG	619	3	0	n/a	n/a	n/a	n/a	n/a
3230405	RECOG_RESP	n/a	LTP102	ltpFR	19	1	1	GANG	619	n/a	0	n/a	n/a	n/a	n/a	n/a
3231263	RECOG_CONF	n/a	LTP102	ltpFR	19	1	1	GANG	619	3	0	n/a	n/a	n/a	n/a	n/a
3232585	RECOG_TARGET	n/a	LTP102	ltpFR	19	1	0	ORNAMENT	985	5	0	n/a	n/a	n/a	n/a	n/a
3233428	RECOG_RESP	n/a	LTP102	ltpFR	19	1	0	ORNAMENT	985	n/a	0	n/a	n/a	n/a	n/a	n/a
3234057	RECOG_CONF	n/a	LTP102	ltpFR	19	1	0	ORNAMENT	985	5	0	n/a	n/a	n/a	n/a	n/a
3235659	RECOG_TARGET	n/a	LTP102	ltpFR	19	1	0	HEATER	698	5	1	n/a	n/a	n/a	n/a	n/a
3236237	RECOG_RESP	n/a	LTP102	ltpFR	19	1	0	HEATER	698	n/a	1	n/a	n/a	n/a	n/a	n/a
3236980	RECOG_CONF	n/a	LTP102	ltpFR	19	1	0	HEATER	698	5	1	n/a	n/a	n/a	n/a	n/a
3240752	REC_START	n/a	LTP102	ltpFR	19	2	n/a	n/a	n/a	n/a	n/a	n/a	n/a	n/a	n/a	n/a
3240783	RECOG_TARGET	n/a	LTP102	ltpFR	19	2	0	SATURN	1236	5	1	n/a	n/a	n/a	n/a	n/a
3241395	RECOG_RESP	n/a	LTP102	ltpFR	19	2	0	SATURN	1236	n/a	1	n/a	n/a	n/a	n/a	n/a
3242074	RECOG_CONF	n/a	LTP102	ltpFR	19	2	0	SATURN	1236	5	1	n/a	n/a	n/a	n/a	n/a
3243617	RECOG_TARGET	n/a	LTP102	ltpFR	19	2	1	SHRIMP	1297	5	1	n/a	n/a	n/a	n/a	n/a
3244154	RECOG_RESP	n/a	LTP102	ltpFR	19	2	1	SHRIMP	1297	n/a	1	n/a	n/a	n/a	n/a	n/a
3244758	RECOG_CONF	n/a	LTP102	ltpFR	19	2	1	SHRIMP	1297	5	1	n/a	n/a	n/a	n/a	n/a
3246175	RECOG_LURE	n/a	LTP102	ltpFR	19	2	n/a	PECAN	1036	5	n/a	n/a	n/a	n/a	n/a	n/a
3246753	RECOG_RESP	n/a	LTP102	ltpFR	19	2	n/a	PECAN	1036	n/a	n/a	n/a	n/a	n/a	n/a	n/a
3247422	RECOG_CONF	n/a	LTP102	ltpFR	19	2	n/a	PECAN	1036	5	n/a	n/a	n/a	n/a	n/a	n/a
3248791	RECOG_TARGET	n/a	LTP102	ltpFR	19	2	1	PORCUPINE	1107	5	1	n/a	n/a	n/a	n/a	n/a
3249267	RECOG_RESP	n/a	LTP102	ltpFR	19	2	1	PORCUPINE	1107	n/a	1	n/a	n/a	n/a	n/a	n/a
3249916	RECOG_CONF	n/a	LTP102	ltpFR	19	2	1	PORCUPINE	1107	5	1	n/a	n/a	n/a	n/a	n/a
3251341	RECOG_TARGET	n/a	LTP102	ltpFR	19	2	0	TREE	1502	5	1	n/a	n/a	n/a	n/a	n/a
3251996	RECOG_RESP	n/a	LTP102	ltpFR	19	2	0	TREE	1502	n/a	1	n/a	n/a	n/a	n/a	n/a
3253368	RECOG_CONF	n/a	LTP102	ltpFR	19	2	0	TREE	1502	5	1	n/a	n/a	n/a	n/a	n/a
3254699	RECOG_TARGET	n/a	LTP102	ltpFR	19	2	0	LIVER	833	5	0	n/a	n/a	n/a	n/a	n/a
3255433	RECOG_RESP	n/a	LTP102	ltpFR	19	2	0	LIVER	833	n/a	0	n/a	n/a	n/a	n/a	n/a
3256112	RECOG_CONF	n/a	LTP102	ltpFR	19	2	0	LIVER	833	5	0	n/a	n/a	n/a	n/a	n/a
3257624	RECOG_TARGET	n/a	LTP102	ltpFR	19	2	0	OCTOPUS	971	3	1	n/a	n/a	n/a	n/a	n/a
3258137	RECOG_RESP	n/a	LTP102	ltpFR	19	2	0	OCTOPUS	971	n/a	1	n/a	n/a	n/a	n/a	n/a
3259953	RECOG_CONF	n/a	LTP102	ltpFR	19	2	0	OCTOPUS	971	3	1	n/a	n/a	n/a	n/a	n/a
3261324	RECOG_TARGET	n/a	LTP102	ltpFR	19	2	1	CANVAS	234	4	0	n/a	n/a	n/a	n/a	n/a
3262083	RECOG_RESP	n/a	LTP102	ltpFR	19	2	1	CANVAS	234	n/a	0	n/a	n/a	n/a	n/a	n/a
3262986	RECOG_CONF	n/a	LTP102	ltpFR	19	2	1	CANVAS	234	4	0	n/a	n/a	n/a	n/a	n/a
3264324	RECOG_LURE	n/a	LTP102	ltpFR	19	2	n/a	JAPAN	749	5	n/a	n/a	n/a	n/a	n/a	n/a
3265022	RECOG_RESP	n/a	LTP102	ltpFR	19	2	n/a	JAPAN	749	n/a	n/a	n/a	n/a	n/a	n/a	n/a
3265660	RECOG_CONF	n/a	LTP102	ltpFR	19	2	n/a	JAPAN	749	5	n/a	n/a	n/a	n/a	n/a	n/a
3267140	RECOG_TARGET	n/a	LTP102	ltpFR	19	2	0	HELMET	702	5	1	n/a	n/a	n/a	n/a	n/a
3267920	RECOG_RESP	n/a	LTP102	ltpFR	19	2	0	HELMET	702	n/a	1	n/a	n/a	n/a	n/a	n/a
3268663	RECOG_CONF	n/a	LTP102	ltpFR	19	2	0	HELMET	702	5	1	n/a	n/a	n/a	n/a	n/a
3270148	RECOG_LURE	n/a	LTP102	ltpFR	19	2	n/a	TURTLE	1522	3	n/a	n/a	n/a	n/a	n/a	n/a
3270958	RECOG_RESP	n/a	LTP102	ltpFR	19	2	n/a	TURTLE	1522	n/a	n/a	n/a	n/a	n/a	n/a	n/a
3271667	RECOG_CONF	n/a	LTP102	ltpFR	19	2	n/a	TURTLE	1522	3	n/a	n/a	n/a	n/a	n/a	n/a
3272930	RECOG_LURE	n/a	LTP102	ltpFR	19	2	n/a	NUN	962	3	n/a	n/a	n/a	n/a	n/a	n/a
3273707	RECOG_RESP	n/a	LTP102	ltpFR	19	2	n/a	NUN	962	n/a	n/a	n/a	n/a	n/a	n/a	n/a
3274560	RECOG_CONF	n/a	LTP102	ltpFR	19	2	n/a	NUN	962	3	n/a	n/a	n/a	n/a	n/a	n/a
3275947	RECOG_TARGET	n/a	LTP102	ltpFR	19	2	1	SUPERVISOR	1410	5	1	n/a	n/a	n/a	n/a	n/a
3276555	RECOG_RESP	n/a	LTP102	ltpFR	19	2	1	SUPERVISOR	1410	n/a	1	n/a	n/a	n/a	n/a	n/a
3277334	RECOG_CONF	n/a	LTP102	ltpFR	19	2	1	SUPERVISOR	1410	5	1	n/a	n/a	n/a	n/a	n/a
3278739	RECOG_LURE	n/a	LTP102	ltpFR	19	2	n/a	SHOP	1290	3	n/a	n/a	n/a	n/a	n/a	n/a
3279519	RECOG_RESP	n/a	LTP102	ltpFR	19	2	n/a	SHOP	1290	n/a	n/a	n/a	n/a	n/a	n/a	n/a
3280257	RECOG_CONF	n/a	LTP102	ltpFR	19	2	n/a	SHOP	1290	3	n/a	n/a	n/a	n/a	n/a	n/a
3281572	RECOG_LURE	n/a	LTP102	ltpFR	19	2	n/a	SOCKET	1340	5	n/a	n/a	n/a	n/a	n/a	n/a
3282502	RECOG_RESP	n/a	LTP102	ltpFR	19	2	n/a	SOCKET	1340	n/a	n/a	n/a	n/a	n/a	n/a	n/a
3283230	RECOG_CONF	n/a	LTP102	ltpFR	19	2	n/a	SOCKET	1340	5	n/a	n/a	n/a	n/a	n/a	n/a
3284589	RECOG_LURE	n/a	LTP102	ltpFR	19	2	n/a	BANDIT	81	3	n/a	n/a	n/a	n/a	n/a	n/a
3285625	RECOG_RESP	n/a	LTP102	ltpFR	19	2	n/a	BANDIT	81	n/a	n/a	n/a	n/a	n/a	n/a	n/a
3286623	RECOG_CONF	n/a	LTP102	ltpFR	19	2	n/a	BANDIT	81	3	n/a	n/a	n/a	n/a	n/a	n/a
3288088	RECOG_LURE	n/a	LTP102	ltpFR	19	2	n/a	ROCK	1201	5	n/a	n/a	n/a	n/a	n/a	n/a
3288808	RECOG_RESP	n/a	LTP102	ltpFR	19	2	n/a	ROCK	1201	n/a	n/a	n/a	n/a	n/a	n/a	n/a
3289656	RECOG_CONF	n/a	LTP102	ltpFR	19	2	n/a	ROCK	1201	5	n/a	n/a	n/a	n/a	n/a	n/a
3291046	RECOG_TARGET	n/a	LTP102	ltpFR	19	2	-1	SCISSORS	1250	5	-1	n/a	n/a	n/a	n/a	n/a
3291965	RECOG_RESP	n/a	LTP102	ltpFR	19	2	-1	SCISSORS	1250	n/a	-1	n/a	n/a	n/a	n/a	n/a
3292769	RECOG_CONF	n/a	LTP102	ltpFR	19	2	-1	SCISSORS	1250	5	-1	n/a	n/a	n/a	n/a	n/a
3294255	RECOG_TARGET	n/a	LTP102	ltpFR	19	2	1	FIREMAN	569	5	1	n/a	n/a	n/a	n/a	n/a
3294889	RECOG_RESP	n/a	LTP102	ltpFR	19	2	1	FIREMAN	569	n/a	1	n/a	n/a	n/a	n/a	n/a
3295592	RECOG_CONF	n/a	LTP102	ltpFR	19	2	1	FIREMAN	569	5	1	n/a	n/a	n/a	n/a	n/a
3297004	RECOG_LURE	n/a	LTP102	ltpFR	19	2	n/a	SHOULDER	1294	5	n/a	n/a	n/a	n/a	n/a	n/a
3297667	RECOG_RESP	n/a	LTP102	ltpFR	19	2	n/a	SHOULDER	1294	n/a	n/a	n/a	n/a	n/a	n/a	n/a
3298316	RECOG_CONF	n/a	LTP102	ltpFR	19	2	n/a	SHOULDER	1294	5	n/a	n/a	n/a	n/a	n/a	n/a
3302610	REC_START	n/a	LTP102	ltpFR	19	3	n/a	n/a	n/a	n/a	n/a	n/a	n/a	n/a	n/a	n/a
3302646	RECOG_TARGET	n/a	LTP102	ltpFR	19	3	1	COOLER	375	5	0	n/a	n/a	n/a	n/a	n/a
3303273	RECOG_RESP	n/a	LTP102	ltpFR	19	3	1	COOLER	375	n/a	0	n/a	n/a	n/a	n/a	n/a
3304057	RECOG_CONF	n/a	LTP102	ltpFR	19	3	1	COOLER	375	5	0	n/a	n/a	n/a	n/a	n/a
3305387	RECOG_TARGET	n/a	LTP102	ltpFR	19	3	1	COBBLER	335	5	0	n/a	n/a	n/a	n/a	n/a
3305882	RECOG_RESP	n/a	LTP102	ltpFR	19	3	1	COBBLER	335	n/a	0	n/a	n/a	n/a	n/a	n/a
3306506	RECOG_CONF	n/a	LTP102	ltpFR	19	3	1	COBBLER	335	5	0	n/a	n/a	n/a	n/a	n/a
3307986	RECOG_TARGET	n/a	LTP102	ltpFR	19	3	1	PAVEMENT	1028	5	0	n/a	n/a	n/a	n/a	n/a
3308511	RECOG_RESP	n/a	LTP102	ltpFR	19	3	1	PAVEMENT	1028	n/a	0	n/a	n/a	n/a	n/a	n/a
3309300	RECOG_CONF	n/a	LTP102	ltpFR	19	3	1	PAVEMENT	1028	5	0	n/a	n/a	n/a	n/a	n/a
3310777	RECOG_LURE	n/a	LTP102	ltpFR	19	3	n/a	KNEE	784	5	n/a	n/a	n/a	n/a	n/a	n/a
3312193	RECOG_RESP	n/a	LTP102	ltpFR	19	3	n/a	KNEE	784	n/a	n/a	n/a	n/a	n/a	n/a	n/a
3313121	RECOG_CONF	n/a	LTP102	ltpFR	19	3	n/a	KNEE	784	5	n/a	n/a	n/a	n/a	n/a	n/a
3314453	RECOG_LURE	n/a	LTP102	ltpFR	19	3	n/a	SWAN	1417	5	n/a	n/a	n/a	n/a	n/a	n/a
3315276	RECOG_RESP	n/a	LTP102	ltpFR	19	3	n/a	SWAN	1417	n/a	n/a	n/a	n/a	n/a	n/a	n/a
3315994	RECOG_CONF	n/a	LTP102	ltpFR	19	3	n/a	SWAN	1417	5	n/a	n/a	n/a	n/a	n/a	n/a
3317378	RECOG_TARGET	n/a	LTP102	ltpFR	19	3	0	ANIMAL	23	3	1	n/a	n/a	n/a	n/a	n/a
3318773	RECOG_RESP	n/a	LTP102	ltpFR	19	3	0	ANIMAL	23	n/a	1	n/a	n/a	n/a	n/a	n/a
3319766	RECOG_CONF	n/a	LTP102	ltpFR	19	3	0	ANIMAL	23	3	1	n/a	n/a	n/a	n/a	n/a
3321211	RECOG_TARGET	n/a	LTP102	ltpFR	19	3	0	MOUSE	925	5	0	n/a	n/a	n/a	n/a	n/a
3321936	RECOG_RESP	n/a	LTP102	ltpFR	19	3	0	MOUSE	925	n/a	0	n/a	n/a	n/a	n/a	n/a
3322839	RECOG_CONF	n/a	LTP102	ltpFR	19	3	0	MOUSE	925	5	0	n/a	n/a	n/a	n/a	n/a
3324402	RECOG_LURE	n/a	LTP102	ltpFR	19	3	n/a	PHILOSOPHER	1054	5	n/a	n/a	n/a	n/a	n/a	n/a
3325458	RECOG_RESP	n/a	LTP102	ltpFR	19	3	n/a	PHILOSOPHER	1054	n/a	n/a	n/a	n/a	n/a	n/a	n/a
3326301	RECOG_CONF	n/a	LTP102	ltpFR	19	3	n/a	PHILOSOPHER	1054	5	n/a	n/a	n/a	n/a	n/a	n/a
3327669	RECOG_LURE	n/a	LTP102	ltpFR	19	3	n/a	MAILMAN	858	3	n/a	n/a	n/a	n/a	n/a	n/a
3328506	RECOG_RESP	n/a	LTP102	ltpFR	19	3	n/a	MAILMAN	858	n/a	n/a	n/a	n/a	n/a	n/a	n/a
3329344	RECOG_CONF	n/a	LTP102	ltpFR	19	3	n/a	MAILMAN	858	3	n/a	n/a	n/a	n/a	n/a	n/a
3330669	RECOG_LURE	n/a	LTP102	ltpFR	19	3	n/a	PRINCESS	1125	5	n/a	n/a	n/a	n/a	n/a	n/a
3331354	RECOG_RESP	n/a	LTP102	ltpFR	19	3	n/a	PRINCESS	1125	n/a	n/a	n/a	n/a	n/a	n/a	n/a
3332168	RECOG_CONF	n/a	LTP102	ltpFR	19	3	n/a	PRINCESS	1125	5	n/a	n/a	n/a	n/a	n/a	n/a
3333535	RECOG_LURE	n/a	LTP102	ltpFR	19	3	n/a	GALLON	618	5	n/a	n/a	n/a	n/a	n/a	n/a
3334437	RECOG_RESP	n/a	LTP102	ltpFR	19	3	n/a	GALLON	618	n/a	n/a	n/a	n/a	n/a	n/a	n/a
3335191	RECOG_CONF	n/a	LTP102	ltpFR	19	3	n/a	GALLON	618	5	n/a	n/a	n/a	n/a	n/a	n/a
3336651	RECOG_TARGET	n/a	LTP102	ltpFR	19	3	0	TURKEY	1520	5	1	n/a	n/a	n/a	n/a	n/a
3337271	RECOG_RESP	n/a	LTP102	ltpFR	19	3	0	TURKEY	1520	n/a	1	n/a	n/a	n/a	n/a	n/a
3337935	RECOG_CONF	n/a	LTP102	ltpFR	19	3	0	TURKEY	1520	5	1	n/a	n/a	n/a	n/a	n/a
3339310	RECOG_TARGET	n/a	LTP102	ltpFR	19	3	-1	OUTFIT	988	5	-1	n/a	n/a	n/a	n/a	n/a
3339890	RECOG_RESP	n/a	LTP102	ltpFR	19	3	-1	OUTFIT	988	n/a	-1	n/a	n/a	n/a	n/a	n/a
3340499	RECOG_CONF	n/a	LTP102	ltpFR	19	3	-1	OUTFIT	988	5	-1	n/a	n/a	n/a	n/a	n/a
3341908	RECOG_LURE	n/a	LTP102	ltpFR	19	3	n/a	BRIDE	173	5	n/a	n/a	n/a	n/a	n/a	n/a
3342414	RECOG_RESP_VV	n/a	LTP102	ltpFR	19	3	n/a	BRIDE	173	n/a	n/a	n/a	n/a	n/a	n/a	n/a
3342833	RECOG_RESP	n/a	LTP102	ltpFR	19	3	n/a	BRIDE	173	n/a	n/a	n/a	n/a	n/a	n/a	n/a
3343522	RECOG_CONF	n/a	LTP102	ltpFR	19	3	n/a	BRIDE	173	5	n/a	n/a	n/a	n/a	n/a	n/a
3344925	RECOG_TARGET	n/a	LTP102	ltpFR	19	3	-1	APARTMENT	30	5	-1	n/a	n/a	n/a	n/a	n/a
3345577	RECOG_RESP	n/a	LTP102	ltpFR	19	3	-1	APARTMENT	30	n/a	-1	n/a	n/a	n/a	n/a	n/a
3346325	RECOG_CONF	n/a	LTP102	ltpFR	19	3	-1	APARTMENT	30	5	-1	n/a	n/a	n/a	n/a	n/a
3347709	RECOG_LURE	n/a	LTP102	ltpFR	19	3	n/a	VISITOR	1573	5	n/a	n/a	n/a	n/a	n/a	n/a
3348376	RECOG_RESP	n/a	LTP102	ltpFR	19	3	n/a	VISITOR	1573	n/a	n/a	n/a	n/a	n/a	n/a	n/a
3349059	RECOG_CONF	n/a	LTP102	ltpFR	19	3	n/a	VISITOR	1573	5	n/a	n/a	n/a	n/a	n/a	n/a
3350409	RECOG_LURE	n/a	LTP102	ltpFR	19	3	n/a	BATHROOM	99	5	n/a	n/a	n/a	n/a	n/a	n/a
3351015	RECOG_RESP_VV	n/a	LTP102	ltpFR	19	3	n/a	BATHROOM	99	n/a	n/a	n/a	n/a	n/a	n/a	n/a
3352172	RECOG_RESP	n/a	LTP102	ltpFR	19	3	n/a	BATHROOM	99	n/a	n/a	n/a	n/a	n/a	n/a	n/a
3353190	RECOG_CONF	n/a	LTP102	ltpFR	19	3	n/a	BATHROOM	99	5	n/a	n/a	n/a	n/a	n/a	n/a
3354567	RECOG_LURE	n/a	LTP102	ltpFR	19	3	n/a	AIRCRAFT	11	3	n/a	n/a	n/a	n/a	n/a	n/a
3357505	RECOG_RESP	n/a	LTP102	ltpFR	19	3	n/a	AIRCRAFT	11	n/a	n/a	n/a	n/a	n/a	n/a	n/a
3358318	RECOG_CONF	n/a	LTP102	ltpFR	19	3	n/a	AIRCRAFT	11	3	n/a	n/a	n/a	n/a	n/a	n/a
3359691	RECOG_LURE	n/a	LTP102	ltpFR	19	3	n/a	LADDER	793	1	n/a	n/a	n/a	n/a	n/a	n/a
3361162	RECOG_RESP	n/a	LTP102	ltpFR	19	3	n/a	LADDER	793	n/a	n/a	n/a	n/a	n/a	n/a	n/a
3362389	RECOG_CONF	n/a	LTP102	ltpFR	19	3	n/a	LADDER	793	1	n/a	n/a	n/a	n/a	n/a	n/a
3363782	RECOG_TARGET	n/a	LTP102	ltpFR	19	3	0	RAM	1165	5	1	n/a	n/a	n/a	n/a	n/a
3364424	RECOG_RESP	n/a	LTP102	ltpFR	19	3	0	RAM	1165	n/a	1	n/a	n/a	n/a	n/a	n/a
3365282	RECOG_CONF	n/a	LTP102	ltpFR	19	3	0	RAM	1165	5	1	n/a	n/a	n/a	n/a	n/a
3370525	REC_START	n/a	LTP102	ltpFR	19	4	n/a	n/a	n/a	n/a	n/a	n/a	n/a	n/a	n/a	n/a
3370557	RECOG_LURE	n/a	LTP102	ltpFR	19	4	n/a	BRAIN	165	3	n/a	n/a	n/a	n/a	n/a	n/a
3371797	RECOG_RESP	n/a	LTP102	ltpFR	19	4	n/a	BRAIN	165	n/a	n/a	n/a	n/a	n/a	n/a	n/a
3372535	RECOG_CONF	n/a	LTP102	ltpFR	19	4	n/a	BRAIN	165	3	n/a	n/a	n/a	n/a	n/a	n/a
3374048	RECOG_LURE	n/a	LTP102	ltpFR	19	4	n/a	FEMALE	559	5	n/a	n/a	n/a	n/a	n/a	n/a
3374980	RECOG_RESP	n/a	LTP102	ltpFR	19	4	n/a	FEMALE	559	n/a	n/a	n/a	n/a	n/a	n/a	n/a
3375997	RECOG_CONF	n/a	LTP102	ltpFR	19	4	n/a	FEMALE	559	5	n/a	n/a	n/a	n/a	n/a	n/a
3377615	RECOG_LURE	n/a	LTP102	ltpFR	19	4	n/a	AUDIENCE	59	5	n/a	n/a	n/a	n/a	n/a	n/a
3378352	RECOG_RESP	n/a	LTP102	ltpFR	19	4	n/a	AUDIENCE	59	n/a	n/a	n/a	n/a	n/a	n/a	n/a
3379100	RECOG_CONF	n/a	LTP102	ltpFR	19	4	n/a	AUDIENCE	59	5	n/a	n/a	n/a	n/a	n/a	n/a
3380581	RECOG_LURE	n/a	LTP102	ltpFR	19	4	n/a	MUSTARD	935	5	n/a	n/a	n/a	n/a	n/a	n/a
3381255	RECOG_RESP	n/a	LTP102	ltpFR	19	4	n/a	MUSTARD	935	n/a	n/a	n/a	n/a	n/a	n/a	n/a
3382014	RECOG_CONF	n/a	LTP102	ltpFR	19	4	n/a	MUSTARD	935	5	n/a	n/a	n/a	n/a	n/a	n/a
3383590	RECOG_TARGET	n/a	LTP102	ltpFR	19	4	1	LAMP	798	5	0	n/a	n/a	n/a	n/a	n/a
3384254	RECOG_RESP	n/a	LTP102	ltpFR	19	4	1	LAMP	798	n/a	0	n/a	n/a	n/a	n/a	n/a
3384937	RECOG_CONF	n/a	LTP102	ltpFR	19	4	1	LAMP	798	5	0	n/a	n/a	n/a	n/a	n/a
3386464	RECOG_TARGET	n/a	LTP102	ltpFR	19	4	1	DUCK	504	5	1	n/a	n/a	n/a	n/a	n/a
3387182	RECOG_RESP	n/a	LTP102	ltpFR	19	4	1	DUCK	504	n/a	1	n/a	n/a	n/a	n/a	n/a
3387900	RECOG_CONF	n/a	LTP102	ltpFR	19	4	1	DUCK	504	5	1	n/a	n/a	n/a	n/a	n/a
3389322	RECOG_TARGET	n/a	LTP102	ltpFR	19	4	0	OATMEAL	967	5	0	n/a	n/a	n/a	n/a	n/a
3389856	RECOG_RESP	n/a	LTP102	ltpFR	19	4	0	OATMEAL	967	n/a	0	n/a	n/a	n/a	n/a	n/a
3390534	RECOG_CONF	n/a	LTP102	ltpFR	19	4	0	OATMEAL	967	5	0	n/a	n/a	n/a	n/a	n/a
3391929	RECOG_TARGET	n/a	LTP102	ltpFR	19	4	1	PARSLEY	1016	5	1	n/a	n/a	n/a	n/a	n/a
3392310	RECOG_RESP	n/a	LTP102	ltpFR	19	4	1	PARSLEY	1016	n/a	1	n/a	n/a	n/a	n/a	n/a
3392929	RECOG_CONF	n/a	LTP102	ltpFR	19	4	1	PARSLEY	1016	5	1	n/a	n/a	n/a	n/a	n/a
3394239	RECOG_TARGET	n/a	LTP102	ltpFR	19	4	1	TORCH	1484	2	0	n/a	n/a	n/a	n/a	n/a
3394860	RECOG_RESP	n/a	LTP102	ltpFR	19	4	1	TORCH	1484	n/a	0	n/a	n/a	n/a	n/a	n/a
3395832	RECOG_CONF	n/a	LTP102	ltpFR	19	4	1	TORCH	1484	2	0	n/a	n/a	n/a	n/a	n/a
3397263	RECOG_TARGET	n/a	LTP102	ltpFR	19	4	0	CUCUMBER	421	5	0	n/a	n/a	n/a	n/a	n/a
3397833	RECOG_RESP	n/a	LTP102	ltpFR	19	4	0	CUCUMBER	421	n/a	0	n/a	n/a	n/a	n/a	n/a
3398506	RECOG_CONF	n/a	LTP102	ltpFR	19	4	0	CUCUMBER	421	5	0	n/a	n/a	n/a	n/a	n/a
3399962	RECOG_LURE	n/a	LTP102	ltpFR	19	4	n/a	VICTIM	1562	3	n/a	n/a	n/a	n/a	n/a	n/a
3400721	RECOG_RESP	n/a	LTP102	ltpFR	19	4	n/a	VICTIM	1562	n/a	n/a	n/a	n/a	n/a	n/a	n/a
3401529	RECOG_CONF	n/a	LTP102	ltpFR	19	4	n/a	VICTIM	1562	3	n/a	n/a	n/a	n/a	n/a	n/a
3402812	RECOG_LURE	n/a	LTP102	ltpFR	19	4	n/a	HARE	688	4	n/a	n/a	n/a	n/a	n/a	n/a
3403724	RECOG_RESP	n/a	LTP102	ltpFR	19	4	n/a	HARE	688	n/a	n/a	n/a	n/a	n/a	n/a	n/a
3404533	RECOG_CONF	n/a	LTP102	ltpFR	19	4	n/a	HARE	688	4	n/a	n/a	n/a	n/a	n/a	n/a
3405987	RECOG_TARGET	n/a	LTP102	ltpFR	19	4	1	WAIST	1579	4	0	n/a	n/a	n/a	n/a	n/a
3406578	RECOG_RESP	n/a	LTP102	ltpFR	19	4	1	WAIST	1579	n/a	0	n/a	n/a	n/a	n/a	n/a
3407426	RECOG_CONF	n/a	LTP102	ltpFR	19	4	1	WAIST	1579	4	0	n/a	n/a	n/a	n/a	n/a
3408870	RECOG_LURE	n/a	LTP102	ltpFR	19	4	n/a	RIBBON	1189	4	n/a	n/a	n/a	n/a	n/a	n/a
3409636	RECOG_RESP	n/a	LTP102	ltpFR	19	4	n/a	RIBBON	1189	n/a	n/a	n/a	n/a	n/a	n/a	n/a
3410449	RECOG_CONF	n/a	LTP102	ltpFR	19	4	n/a	RIBBON	1189	4	n/a	n/a	n/a	n/a	n/a	n/a
3411853	RECOG_TARGET	n/a	LTP102	ltpFR	19	4	0	TABLE	1426	5	1	n/a	n/a	n/a	n/a	n/a
3412469	RECOG_RESP	n/a	LTP102	ltpFR	19	4	0	TABLE	1426	n/a	1	n/a	n/a	n/a	n/a	n/a
3413233	RECOG_CONF	n/a	LTP102	ltpFR	19	4	0	TABLE	1426	5	1	n/a	n/a	n/a	n/a	n/a
3414754	RECOG_TARGET	n/a	LTP102	ltpFR	19	4	0	EGG	518	4	0	n/a	n/a	n/a	n/a	n/a
3415378	RECOG_RESP	n/a	LTP102	ltpFR	19	4	0	EGG	518	n/a	0	n/a	n/a	n/a	n/a	n/a
3416246	RECOG_CONF	n/a	LTP102	ltpFR	19	4	0	EGG	518	4	0	n/a	n/a	n/a	n/a	n/a
3417587	RECOG_LURE	n/a	LTP102	ltpFR	19	4	n/a	PRIMATE	1123	5	n/a	n/a	n/a	n/a	n/a	n/a
3418366	RECOG_RESP	n/a	LTP102	ltpFR	19	4	n/a	PRIMATE	1123	n/a	n/a	n/a	n/a	n/a	n/a	n/a
3419299	RECOG_CONF	n/a	LTP102	ltpFR	19	4	n/a	PRIMATE	1123	5	n/a	n/a	n/a	n/a	n/a	n/a
3420695	RECOG_LURE	n/a	LTP102	ltpFR	19	4	n/a	THRONE	1461	5	n/a	n/a	n/a	n/a	n/a	n/a
3421634	RECOG_RESP	n/a	LTP102	ltpFR	19	4	n/a	THRONE	1461	n/a	n/a	n/a	n/a	n/a	n/a	n/a
3422372	RECOG_CONF	n/a	LTP102	ltpFR	19	4	n/a	THRONE	1461	5	n/a	n/a	n/a	n/a	n/a	n/a
3423785	RECOG_LURE	n/a	LTP102	ltpFR	19	4	n/a	SIGNATURE	1306	5	n/a	n/a	n/a	n/a	n/a	n/a
3424527	RECOG_RESP	n/a	LTP102	ltpFR	19	4	n/a	SIGNATURE	1306	n/a	n/a	n/a	n/a	n/a	n/a	n/a
3425345	RECOG_CONF	n/a	LTP102	ltpFR	19	4	n/a	SIGNATURE	1306	5	n/a	n/a	n/a	n/a	n/a	n/a
3426694	RECOG_TARGET	n/a	LTP102	ltpFR	19	4	0	PONY	1102	3	1	n/a	n/a	n/a	n/a	n/a
3427406	RECOG_RESP	n/a	LTP102	ltpFR	19	4	0	PONY	1102	n/a	1	n/a	n/a	n/a	n/a	n/a
3428638	RECOG_CONF	n/a	LTP102	ltpFR	19	4	0	PONY	1102	3	1	n/a	n/a	n/a	n/a	n/a
3436602	REC_START	n/a	LTP102	ltpFR	19	5	n/a	n/a	n/a	n/a	n/a	n/a	n/a	n/a	n/a	n/a
3436635	RECOG_LURE	n/a	LTP102	ltpFR	19	5	n/a	STAFF	1365	5	n/a	n/a	n/a	n/a	n/a	n/a
3437410	RECOG_RESP	n/a	LTP102	ltpFR	19	5	n/a	STAFF	1365	n/a	n/a	n/a	n/a	n/a	n/a	n/a
3438083	RECOG_CONF	n/a	LTP102	ltpFR	19	5	n/a	STAFF	1365	5	n/a	n/a	n/a	n/a	n/a	n/a
3439569	RECOG_TARGET	n/a	LTP102	ltpFR	19	5	-1	HARP	689	5	-1	n/a	n/a	n/a	n/a	n/a
3440239	RECOG_RESP	n/a	LTP102	ltpFR	19	5	-1	HARP	689	n/a	-1	n/a	n/a	n/a	n/a	n/a
3440907	RECOG_CONF	n/a	LTP102	ltpFR	19	5	-1	HARP	689	5	-1	n/a	n/a	n/a	n/a	n/a
3442402	RECOG_LURE	n/a	LTP102	ltpFR	19	5	n/a	HIGHWAY	707	5	n/a	n/a	n/a	n/a	n/a	n/a
3443062	RECOG_RESP	n/a	LTP102	ltpFR	19	5	n/a	HIGHWAY	707	n/a	n/a	n/a	n/a	n/a	n/a	n/a
3443701	RECOG_CONF	n/a	LTP102	ltpFR	19	5	n/a	HIGHWAY	707	5	n/a	n/a	n/a	n/a	n/a	n/a
3445034	RECOG_TARGET	n/a	LTP102	ltpFR	19	5	0	SNORKEL	1336	5	1	n/a	n/a	n/a	n/a	n/a
3445696	RECOG_RESP	n/a	LTP102	ltpFR	19	5	0	SNORKEL	1336	n/a	1	n/a	n/a	n/a	n/a	n/a
3446335	RECOG_CONF	n/a	LTP102	ltpFR	19	5	0	SNORKEL	1336	5	1	n/a	n/a	n/a	n/a	n/a
3447751	RECOG_TARGET	n/a	LTP102	ltpFR	19	5	-1	PICTURE	1061	3	-1	n/a	n/a	n/a	n/a	n/a
3448510	RECOG_RESP	n/a	LTP102	ltpFR	19	5	-1	PICTURE	1061	n/a	-1	n/a	n/a	n/a	n/a	n/a
3449308	RECOG_CONF	n/a	LTP102	ltpFR	19	5	-1	PICTURE	1061	3	-1	n/a	n/a	n/a	n/a	n/a
3450676	RECOG_TARGET	n/a	LTP102	ltpFR	19	5	0	CLIPPERS	324	5	0	n/a	n/a	n/a	n/a	n/a
3451239	RECOG_RESP	n/a	LTP102	ltpFR	19	5	0	CLIPPERS	324	n/a	0	n/a	n/a	n/a	n/a	n/a
3452142	RECOG_CONF	n/a	LTP102	ltpFR	19	5	0	CLIPPERS	324	5	0	n/a	n/a	n/a	n/a	n/a
3453551	RECOG_TARGET	n/a	LTP102	ltpFR	19	5	-1	SCENERY	1247	5	-1	n/a	n/a	n/a	n/a	n/a
3454087	RECOG_RESP	n/a	LTP102	ltpFR	19	5	-1	SCENERY	1247	n/a	-1	n/a	n/a	n/a	n/a	n/a
3454756	RECOG_CONF	n/a	LTP102	ltpFR	19	5	-1	SCENERY	1247	5	-1	n/a	n/a	n/a	n/a	n/a
3456151	RECOG_TARGET	n/a	LTP102	ltpFR	19	5	-1	PRESIDENT	1121	5	-1	n/a	n/a	n/a	n/a	n/a
3456631	RECOG_RESP	n/a	LTP102	ltpFR	19	5	-1	PRESIDENT	1121	n/a	-1	n/a	n/a	n/a	n/a	n/a
3457200	RECOG_CONF	n/a	LTP102	ltpFR	19	5	-1	PRESIDENT	1121	5	-1	n/a	n/a	n/a	n/a	n/a
3458567	RECOG_TARGET	n/a	LTP102	ltpFR	19	5	1	BLADE	134	5	0	n/a	n/a	n/a	n/a	n/a
3459081	RECOG_RESP	n/a	LTP102	ltpFR	19	5	1	BLADE	134	n/a	0	n/a	n/a	n/a	n/a	n/a
3459634	RECOG_CONF	n/a	LTP102	ltpFR	19	5	1	BLADE	134	5	0	n/a	n/a	n/a	n/a	n/a
3461016	RECOG_LURE	n/a	LTP102	ltpFR	19	5	n/a	DOUGH	489	5	n/a	n/a	n/a	n/a	n/a	n/a
3461984	RECOG_RESP	n/a	LTP102	ltpFR	19	5	n/a	DOUGH	489	n/a	n/a	n/a	n/a	n/a	n/a	n/a
3462618	RECOG_CONF	n/a	LTP102	ltpFR	19	5	n/a	DOUGH	489	5	n/a	n/a	n/a	n/a	n/a	n/a
3464041	RECOG_LURE	n/a	LTP102	ltpFR	19	5	n/a	FOOT	590	5	n/a	n/a	n/a	n/a	n/a	n/a
3465067	RECOG_RESP	n/a	LTP102	ltpFR	19	5	n/a	FOOT	590	n/a	n/a	n/a	n/a	n/a	n/a	n/a
3465701	RECOG_CONF	n/a	LTP102	ltpFR	19	5	n/a	FOOT	590	5	n/a	n/a	n/a	n/a	n/a	n/a
3467115	RECOG_LURE	n/a	LTP102	ltpFR	19	5	n/a	TORNADO	1485	5	n/a	n/a	n/a	n/a	n/a	n/a
3467916	RECOG_RESP	n/a	LTP102	ltpFR	19	5	n/a	TORNADO	1485	n/a	n/a	n/a	n/a	n/a	n/a	n/a
3468564	RECOG_CONF	n/a	LTP102	ltpFR	19	5	n/a	TORNADO	1485	5	n/a	n/a	n/a	n/a	n/a	n/a
3469865	RECOG_LURE	n/a	LTP102	ltpFR	19	5	n/a	CITIZEN	312	3	n/a	n/a	n/a	n/a	n/a	n/a
3470649	RECOG_RESP	n/a	LTP102	ltpFR	19	5	n/a	CITIZEN	312	n/a	n/a	n/a	n/a	n/a	n/a	n/a
3471498	RECOG_CONF	n/a	LTP102	ltpFR	19	5	n/a	CITIZEN	312	3	n/a	n/a	n/a	n/a	n/a	n/a
3472932	RECOG_TARGET	n/a	LTP102	ltpFR	19	5	0	HOSE	720	5	0	n/a	n/a	n/a	n/a	n/a
3473663	RECOG_RESP	n/a	LTP102	ltpFR	19	5	0	HOSE	720	n/a	0	n/a	n/a	n/a	n/a	n/a
3474291	RECOG_CONF	n/a	LTP102	ltpFR	19	5	0	HOSE	720	5	0	n/a	n/a	n/a	n/a	n/a
3475657	RECOG_TARGET	n/a	LTP102	ltpFR	19	5	1	POTATO	1115	5	0	n/a	n/a	n/a	n/a	n/a
3476277	RECOG_RESP	n/a	LTP102	ltpFR	19	5	1	POTATO	1115	n/a	0	n/a	n/a	n/a	n/a	n/a
3476955	RECOG_CONF	n/a	LTP102	ltpFR	19	5	1	POTATO	1115	5	0	n/a	n/a	n/a	n/a	n/a
3478407	RECOG_TARGET	n/a	LTP102	ltpFR	19	5	-1	CHIMNEY	301	5	-1	n/a	n/a	n/a	n/a	n/a
3478916	RECOG_RESP	n/a	LTP102	ltpFR	19	5	-1	CHIMNEY	301	n/a	-1	n/a	n/a	n/a	n/a	n/a
3479539	RECOG_CONF	n/a	LTP102	ltpFR	19	5	-1	CHIMNEY	301	5	-1	n/a	n/a	n/a	n/a	n/a
3480914	RECOG_LURE	n/a	LTP102	ltpFR	19	5	n/a	ELECTRICIAN	521	5	n/a	n/a	n/a	n/a	n/a	n/a
3481595	RECOG_RESP	n/a	LTP102	ltpFR	19	5	n/a	ELECTRICIAN	521	n/a	n/a	n/a	n/a	n/a	n/a	n/a
3482233	RECOG_CONF	n/a	LTP102	ltpFR	19	5	n/a	ELECTRICIAN	521	5	n/a	n/a	n/a	n/a	n/a	n/a
3483523	RECOG_LURE	n/a	LTP102	ltpFR	19	5	n/a	PARCEL	1012	5	n/a	n/a	n/a	n/a	n/a	n/a
3484318	RECOG_RESP	n/a	LTP102	ltpFR	19	5	n/a	PARCEL	1012	n/a	n/a	n/a	n/a	n/a	n/a	n/a
3484957	RECOG_CONF	n/a	LTP102	ltpFR	19	5	n/a	PARCEL	1012	5	n/a	n/a	n/a	n/a	n/a	n/a
3486332	RECOG_TARGET	n/a	LTP102	ltpFR	19	5	1	DOVE	491	5	1	n/a	n/a	n/a	n/a	n/a
3486967	RECOG_RESP	n/a	LTP102	ltpFR	19	5	1	DOVE	491	n/a	1	n/a	n/a	n/a	n/a	n/a
3487631	RECOG_CONF	n/a	LTP102	ltpFR	19	5	1	DOVE	491	5	1	n/a	n/a	n/a	n/a	n/a
3489089	RECOG_TARGET	n/a	LTP102	ltpFR	19	5	0	DETERGENT	455	5	0	n/a	n/a	n/a	n/a	n/a
3489771	RECOG_RESP	n/a	LTP102	ltpFR	19	5	0	DETERGENT	455	n/a	0	n/a	n/a	n/a	n/a	n/a
3490514	RECOG_CONF	n/a	LTP102	ltpFR	19	5	0	DETERGENT	455	5	0	n/a	n/a	n/a	n/a	n/a
3496723	REC_START	n/a	LTP102	ltpFR	19	6	n/a	n/a	n/a	n/a	n/a	n/a	n/a	n/a	n/a	n/a
3496756	RECOG_LURE	n/a	LTP102	ltpFR	19	6	n/a	SHEEP	1278	5	n/a	n/a	n/a	n/a	n/a	n/a
3497835	RECOG_RESP	n/a	LTP102	ltpFR	19	6	n/a	SHEEP	1278	n/a	n/a	n/a	n/a	n/a	n/a	n/a
3498933	RECOG_CONF	n/a	LTP102	ltpFR	19	6	n/a	SHEEP	1278	5	n/a	n/a	n/a	n/a	n/a	n/a
3500489	RECOG_LURE	n/a	LTP102	ltpFR	19	6	n/a	PATIENT	1024	5	n/a	n/a	n/a	n/a	n/a	n/a
3505847	RECOG_RESP	n/a	LTP102	ltpFR	19	6	n/a	PATIENT	1024	n/a	n/a	n/a	n/a	n/a	n/a	n/a
3506585	RECOG_CONF	n/a	LTP102	ltpFR	19	6	n/a	PATIENT	1024	5	n/a	n/a	n/a	n/a	n/a	n/a
3508213	RECOG_TARGET	n/a	LTP102	ltpFR	19	6	1	PATROL	1027	5	0	n/a	n/a	n/a	n/a	n/a
3511804	RECOG_RESP	n/a	LTP102	ltpFR	19	6	1	PATROL	1027	n/a	0	n/a	n/a	n/a	n/a	n/a
3512592	RECOG_CONF	n/a	LTP102	ltpFR	19	6	1	PATROL	1027	5	0	n/a	n/a	n/a	n/a	n/a
3514045	RECOG_TARGET	n/a	LTP102	ltpFR	19	6	1	COLESLAW	344	5	0	n/a	n/a	n/a	n/a	n/a
3514662	RECOG_RESP	n/a	LTP102	ltpFR	19	6	1	COLESLAW	344	n/a	0	n/a	n/a	n/a	n/a	n/a
3515345	RECOG_CONF	n/a	LTP102	ltpFR	19	6	1	COLESLAW	344	5	0	n/a	n/a	n/a	n/a	n/a
3516770	RECOG_LURE	n/a	LTP102	ltpFR	19	6	n/a	MOTORCYCLE	923	5	n/a	n/a	n/a	n/a	n/a	n/a
3517451	RECOG_RESP	n/a	LTP102	ltpFR	19	6	n/a	MOTORCYCLE	923	n/a	n/a	n/a	n/a	n/a	n/a	n/a
3518049	RECOG_CONF	n/a	LTP102	ltpFR	19	6	n/a	MOTORCYCLE	923	5	n/a	n/a	n/a	n/a	n/a	n/a
3519571	RECOG_TARGET	n/a	LTP102	ltpFR	19	6	0	GOOSE	649	5	1	n/a	n/a	n/a	n/a	n/a
3520110	RECOG_RESP	n/a	LTP102	ltpFR	19	6	0	GOOSE	649	n/a	1	n/a	n/a	n/a	n/a	n/a
3520763	RECOG_CONF	n/a	LTP102	ltpFR	19	6	0	GOOSE	649	5	1	n/a	n/a	n/a	n/a	n/a
3522154	RECOG_LURE	n/a	LTP102	ltpFR	19	6	n/a	ASTRONAUT	51	5	n/a	n/a	n/a	n/a	n/a	n/a
3522968	RECOG_RESP	n/a	LTP102	ltpFR	19	6	n/a	ASTRONAUT	51	n/a	n/a	n/a	n/a	n/a	n/a	n/a
3523567	RECOG_CONF	n/a	LTP102	ltpFR	19	6	n/a	ASTRONAUT	51	5	n/a	n/a	n/a	n/a	n/a	n/a
3524961	RECOG_LURE	n/a	LTP102	ltpFR	19	6	n/a	SWING	1421	5	n/a	n/a	n/a	n/a	n/a	n/a
3525776	RECOG_RESP	n/a	LTP102	ltpFR	19	6	n/a	SWING	1421	n/a	n/a	n/a	n/a	n/a	n/a	n/a
3527599	RECOG_CONF	n/a	LTP102	ltpFR	19	6	n/a	SWING	1421	5	n/a	n/a	n/a	n/a	n/a	n/a
3529102	RECOG_LURE	n/a	LTP102	ltpFR	19	6	n/a	PERISCOPE	1050	5	n/a	n/a	n/a	n/a	n/a	n/a
3530496	RECOG_RESP	n/a	LTP102	ltpFR	19	6	n/a	PERISCOPE	1050	n/a	n/a	n/a	n/a	n/a	n/a	n/a
3531199	RECOG_CONF	n/a	LTP102	ltpFR	19	6	n/a	PERISCOPE	1050	5	n/a	n/a	n/a	n/a	n/a	n/a
3532511	RECOG_TARGET	n/a	LTP102	ltpFR	19	6	1	SPOOL	1356	5	0	n/a	n/a	n/a	n/a	n/a
3534138	RECOG_RESP_VV	n/a	LTP102	ltpFR	19	6	1	SPOOL	1356	n/a	0	n/a	n/a	n/a	n/a	n/a
3535844	RECOG_RESP	n/a	LTP102	ltpFR	19	6	1	SPOOL	1356	n/a	0	n/a	n/a	n/a	n/a	n/a
3536916	RECOG_CONF	n/a	LTP102	ltpFR	19	6	1	SPOOL	1356	5	0	n/a	n/a	n/a	n/a	n/a
3538369	RECOG_LURE	n/a	LTP102	ltpFR	19	6	n/a	COFFIN	342	5	n/a	n/a	n/a	n/a	n/a	n/a
3539536	RECOG_RESP	n/a	LTP102	ltpFR	19	6	n/a	COFFIN	342	n/a	n/a	n/a	n/a	n/a	n/a	n/a
3540269	RECOG_CONF	n/a	LTP102	ltpFR	19	6	n/a	COFFIN	342	5	n/a	n/a	n/a	n/a	n/a	n/a
3541826	RECOG_TARGET	n/a	LTP102	ltpFR	19	6	1	ASTEROID	50	5	0	n/a	n/a	n/a	n/a	n/a
3542479	RECOG_RESP	n/a	LTP102	ltpFR	19	6	1	ASTEROID	50	n/a	0	n/a	n/a	n/a	n/a	n/a
3543372	RECOG_CONF	n/a	LTP102	ltpFR	19	6	1	ASTEROID	50	5	0	n/a	n/a	n/a	n/a	n/a
3544760	RECOG_LURE	n/a	LTP102	ltpFR	19	6	n/a	THERMOMETER	1453	5	n/a	n/a	n/a	n/a	n/a	n/a
3546674	RECOG_RESP	n/a	LTP102	ltpFR	19	6	n/a	THERMOMETER	1453	n/a	n/a	n/a	n/a	n/a	n/a	n/a
3547433	RECOG_CONF	n/a	LTP102	ltpFR	19	6	n/a	THERMOMETER	1453	5	n/a	n/a	n/a	n/a	n/a	n/a
3548967	RECOG_TARGET	n/a	LTP102	ltpFR	19	6	1	COSTUME	383	5	0	n/a	n/a	n/a	n/a	n/a
3549792	RECOG_RESP_VV	n/a	LTP102	ltpFR	19	6	1	COSTUME	383	n/a	0	n/a	n/a	n/a	n/a	n/a
3550226	RECOG_RESP	n/a	LTP102	ltpFR	19	6	1	COSTUME	383	n/a	0	n/a	n/a	n/a	n/a	n/a
3550895	RECOG_CONF	n/a	LTP102	ltpFR	19	6	1	COSTUME	383	5	0	n/a	n/a	n/a	n/a	n/a
3552385	RECOG_TARGET	n/a	LTP102	ltpFR	19	6	1	LAPEL	800	5	0	n/a	n/a	n/a	n/a	n/a
3553224	RECOG_RESP	n/a	LTP102	ltpFR	19	6	1	LAPEL	800	n/a	0	n/a	n/a	n/a	n/a	n/a
3555494	RECOG_CONF	n/a	LTP102	ltpFR	19	6	1	LAPEL	800	5	0	n/a	n/a	n/a	n/a	n/a
3557017	RECOG_LURE	n/a	LTP102	ltpFR	19	6	n/a	SADDLE	1221	5	n/a	n/a	n/a	n/a	n/a	n/a
3558398	RECOG_RESP_VV	n/a	LTP102	ltpFR	19	6	n/a	SADDLE	1221	n/a	n/a	n/a	n/a	n/a	n/a	n/a
3558832	RECOG_RESP	n/a	LTP102	ltpFR	19	6	n/a	SADDLE	1221	n/a	n/a	n/a	n/a	n/a	n/a	n/a
3559585	RECOG_CONF	n/a	LTP102	ltpFR	19	6	n/a	SADDLE	1221	5	n/a	n/a	n/a	n/a	n/a	n/a
3560950	RECOG_TARGET	n/a	LTP102	ltpFR	19	6	1	DOCUMENT	479	2	0	n/a	n/a	n/a	n/a	n/a
3564080	RECOG_RESP_VV	n/a	LTP102	ltpFR	19	6	1	DOCUMENT	479	n/a	0	n/a	n/a	n/a	n/a	n/a
3564678	RECOG_RESP	n/a	LTP102	ltpFR	19	6	1	DOCUMENT	479	n/a	0	n/a	n/a	n/a	n/a	n/a
3565781	RECOG_CONF	n/a	LTP102	ltpFR	19	6	1	DOCUMENT	479	2	0	n/a	n/a	n/a	n/a	n/a
3567234	RECOG_TARGET	n/a	LTP102	ltpFR	19	6	1	INMATE	738	5	1	n/a	n/a	n/a	n/a	n/a
3567906	RECOG_RESP_VV	n/a	LTP102	ltpFR	19	6	1	INMATE	738	n/a	1	n/a	n/a	n/a	n/a	n/a
3568579	RECOG_RESP	n/a	LTP102	ltpFR	19	6	1	INMATE	738	n/a	1	n/a	n/a	n/a	n/a	n/a
3569413	RECOG_CONF	n/a	LTP102	ltpFR	19	6	1	INMATE	738	5	1	n/a	n/a	n/a	n/a	n/a
3570824	RECOG_TARGET	n/a	LTP102	ltpFR	19	6	1	TEA	1439	5	0	n/a	n/a	n/a	n/a	n/a
3571388	RECOG_RESP	n/a	LTP102	ltpFR	19	6	1	TEA	1439	n/a	0	n/a	n/a	n/a	n/a	n/a
3572077	RECOG_CONF	n/a	LTP102	ltpFR	19	6	1	TEA	1439	5	0	n/a	n/a	n/a	n/a	n/a
3573466	RECOG_TARGET	n/a	LTP102	ltpFR	19	6	1	EMPLOYEE	531	5	1	n/a	n/a	n/a	n/a	n/a
3573992	RECOG_RESP	n/a	LTP102	ltpFR	19	6	1	EMPLOYEE	531	n/a	1	n/a	n/a	n/a	n/a	n/a
3574611	RECOG_CONF	n/a	LTP102	ltpFR	19	6	1	EMPLOYEE	531	5	1	n/a	n/a	n/a	n/a	n/a
3578665	REC_START	n/a	LTP102	ltpFR	19	7	n/a	n/a	n/a	n/a	n/a	n/a	n/a	n/a	n/a	n/a
3578699	RECOG_LURE	n/a	LTP102	ltpFR	19	7	n/a	KID	775	5	n/a	n/a	n/a	n/a	n/a	n/a
3579433	RECOG_RESP	n/a	LTP102	ltpFR	19	7	n/a	KID	775	n/a	n/a	n/a	n/a	n/a	n/a	n/a
3580226	RECOG_CONF	n/a	LTP102	ltpFR	19	7	n/a	KID	775	5	n/a	n/a	n/a	n/a	n/a	n/a
3581574	RECOG_TARGET	n/a	LTP102	ltpFR	19	7	0	SILK	1307	5	0	n/a	n/a	n/a	n/a	n/a
3582207	RECOG_RESP	n/a	LTP102	ltpFR	19	7	0	SILK	1307	n/a	0	n/a	n/a	n/a	n/a	n/a
3582870	RECOG_CONF	n/a	LTP102	ltpFR	19	7	0	SILK	1307	5	0	n/a	n/a	n/a	n/a	n/a
3584332	RECOG_TARGET	n/a	LTP102	ltpFR	19	7	0	BEE	112	5	0	n/a	n/a	n/a	n/a	n/a
3584801	RECOG_RESP	n/a	LTP102	ltpFR	19	7	0	BEE	112	n/a	0	n/a	n/a	n/a	n/a	n/a
3585564	RECOG_CONF	n/a	LTP102	ltpFR	19	7	0	BEE	112	5	0	n/a	n/a	n/a	n/a	n/a
3587048	RECOG_LURE	n/a	LTP102	ltpFR	19	7	n/a	GIFT	635	5	n/a	n/a	n/a	n/a	n/a	n/a
3587849	RECOG_RESP	n/a	LTP102	ltpFR	19	7	n/a	GIFT	635	n/a	n/a	n/a	n/a	n/a	n/a	n/a
3588597	RECOG_CONF	n/a	LTP102	ltpFR	19	7	n/a	GIFT	635	5	n/a	n/a	n/a	n/a	n/a	n/a
3590274	RECOG_LURE	n/a	LTP102	ltpFR	19	7	n/a	LAWN	805	5	n/a	n/a	n/a	n/a	n/a	n/a
3592064	RECOG_RESP_VV	n/a	LTP102	ltpFR	19	7	n/a	LAWN	805	n/a	n/a	n/a	n/a	n/a	n/a	n/a
3592763	RECOG_RESP	n/a	LTP102	ltpFR	19	7	n/a	LAWN	805	n/a	n/a	n/a	n/a	n/a	n/a	n/a
3593835	RECOG_CONF	n/a	LTP102	ltpFR	19	7	n/a	LAWN	805	5	n/a	n/a	n/a	n/a	n/a	n/a
3595256	RECOG_LURE	n/a	LTP102	ltpFR	19	7	n/a	FROST	609	5	n/a	n/a	n/a	n/a	n/a	n/a
3596060	RECOG_RESP	n/a	LTP102	ltpFR	19	7	n/a	FROST	609	n/a	n/a	n/a	n/a	n/a	n/a	n/a
3596709	RECOG_CONF	n/a	LTP102	ltpFR	19	7	n/a	FROST	609	5	n/a	n/a	n/a	n/a	n/a	n/a
3598047	RECOG_LURE	n/a	LTP102	ltpFR	19	7	n/a	ARROW	40	3	n/a	n/a	n/a	n/a	n/a	n/a
3598664	RECOG_RESP	n/a	LTP102	ltpFR	19	7	n/a	ARROW	40	n/a	n/a	n/a	n/a	n/a	n/a	n/a
3599473	RECOG_CONF	n/a	LTP102	ltpFR	19	7	n/a	ARROW	40	3	n/a	n/a	n/a	n/a	n/a	n/a
3600822	RECOG_TARGET	n/a	LTP102	ltpFR	19	7	0	NECK	939	4	1	n/a	n/a	n/a	n/a	n/a
3601513	RECOG_RESP	n/a	LTP102	ltpFR	19	7	0	NECK	939	n/a	1	n/a	n/a	n/a	n/a	n/a
3603054	RECOG_CONF	n/a	LTP102	ltpFR	19	7	0	NECK	939	4	1	n/a	n/a	n/a	n/a	n/a
3604464	RECOG_TARGET	n/a	LTP102	ltpFR	19	7	0	PIER	1063	5	1	n/a	n/a	n/a	n/a	n/a
3605090	RECOG_RESP	n/a	LTP102	ltpFR	19	7	0	PIER	1063	n/a	1	n/a	n/a	n/a	n/a	n/a
3605798	RECOG_CONF	n/a	LTP102	ltpFR	19	7	0	PIER	1063	5	1	n/a	n/a	n/a	n/a	n/a
3607214	RECOG_TARGET	n/a	LTP102	ltpFR	19	7	0	TAXI	1438	1	1	n/a	n/a	n/a	n/a	n/a
3607789	RECOG_RESP	n/a	LTP102	ltpFR	19	7	0	TAXI	1438	n/a	1	n/a	n/a	n/a	n/a	n/a
3609250	RECOG_CONF	n/a	LTP102	ltpFR	19	7	0	TAXI	1438	1	1	n/a	n/a	n/a	n/a	n/a
3610689	RECOG_LURE	n/a	LTP102	ltpFR	19	7	n/a	SCALPEL	1243	3	n/a	n/a	n/a	n/a	n/a	n/a
3611555	RECOG_RESP_VV	n/a	LTP102	ltpFR	19	7	n/a	SCALPEL	1243	n/a	n/a	n/a	n/a	n/a	n/a	n/a
3612383	RECOG_RESP	n/a	LTP102	ltpFR	19	7	n/a	SCALPEL	1243	n/a	n/a	n/a	n/a	n/a	n/a	n/a
3613211	RECOG_CONF	n/a	LTP102	ltpFR	19	7	n/a	SCALPEL	1243	3	n/a	n/a	n/a	n/a	n/a	n/a
3614597	RECOG_TARGET	n/a	LTP102	ltpFR	19	7	0	VINE	1568	5	1	n/a	n/a	n/a	n/a	n/a
3615396	RECOG_RESP	n/a	LTP102	ltpFR	19	7	0	VINE	1568	n/a	1	n/a	n/a	n/a	n/a	n/a
3616095	RECOG_CONF	n/a	LTP102	ltpFR	19	7	0	VINE	1568	5	1	n/a	n/a	n/a	n/a	n/a
3617488	RECOG_LURE	n/a	LTP102	ltpFR	19	7	n/a	OUTDOORS	987	5	n/a	n/a	n/a	n/a	n/a	n/a
3618090	RECOG_RESP	n/a	LTP102	ltpFR	19	7	n/a	OUTDOORS	987	n/a	n/a	n/a	n/a	n/a	n/a	n/a
3618848	RECOG_CONF	n/a	LTP102	ltpFR	19	7	n/a	OUTDOORS	987	5	n/a	n/a	n/a	n/a	n/a	n/a
3620188	RECOG_TARGET	n/a	LTP102	ltpFR	19	7	-1	LOFT	840	5	-1	n/a	n/a	n/a	n/a	n/a
3620724	RECOG_RESP	n/a	LTP102	ltpFR	19	7	-1	LOFT	840	n/a	-1	n/a	n/a	n/a	n/a	n/a
3621522	RECOG_CONF	n/a	LTP102	ltpFR	19	7	-1	LOFT	840	5	-1	n/a	n/a	n/a	n/a	n/a
3622953	RECOG_LURE	n/a	LTP102	ltpFR	19	7	n/a	BROOK	177	5	n/a	n/a	n/a	n/a	n/a	n/a
3623563	RECOG_RESP	n/a	LTP102	ltpFR	19	7	n/a	BROOK	177	n/a	n/a	n/a	n/a	n/a	n/a	n/a
3624236	RECOG_CONF	n/a	LTP102	ltpFR	19	7	n/a	BROOK	177	5	n/a	n/a	n/a	n/a	n/a	n/a
