onset	duration	trial_type	sample	stim_file	subject	experiment	session	trial	item_name	item_num	list	answer	test_x	test_y	test_z
223.74658203125	n/a	SESS_START	458233	n/a	LTP341	ltpFR2	22	n/a	n/a	n/a	n/a	n/a	0	0	0
237.59326171875	n/a	START	486591	n/a	LTP341	ltpFR2	22	n/a	n/a	n/a	-1	n/a	n/a	n/a	n/a
237.623046875	n/a	PROB	486652	n/a	LTP341	ltpFR2	22	n/a	n/a	n/a	-1	17	8	6	3
239.97314453125	n/a	PROB	491465	n/a	LTP341	ltpFR2	22	n/a	n/a	n/a	-1	20	7	7	6
241.587890625	n/a	PROB	494772	n/a	LTP341	ltpFR2	22	n/a	n/a	n/a	-1	24	8	9	7
243.30517578125	n/a	PROB	498289	n/a	LTP341	ltpFR2	22	n/a	n/a	n/a	-1	14	4	2	8
244.703125	n/a	PROB	501152	n/a	LTP341	ltpFR2	22	n/a	n/a	n/a	-1	11	2	7	2
245.8359375	n/a	PROB	503472	n/a	LTP341	ltpFR2	22	n/a	n/a	n/a	-1	22	9	4	9
247.15283203125	n/a	PROB	506169	n/a	LTP341	ltpFR2	22	n/a	n/a	n/a	-1	18	8	3	7
248.3857421875	n/a	STOP	508694	n/a	LTP341	ltpFR2	22	n/a	n/a	n/a	-1	n/a	n/a	n/a	n/a
283.466796875	n/a	WORD	580540	wordpools/wasnorm_wordpool_576.txt	LTP341	ltpFR2	22	1	CHIPMUNK	304	n/a	n/a	0	0	0
286.06689453125	n/a	WORD	585865	wordpools/wasnorm_wordpool_576.txt	LTP341	ltpFR2	22	1	ANTLER	29	n/a	n/a	0	0	0
288.498046875	n/a	WORD	590844	wordpools/wasnorm_wordpool_576.txt	LTP341	ltpFR2	22	1	PUPIL	1143	n/a	n/a	0	0	0
291.2978515625	n/a	WORD	596578	wordpools/wasnorm_wordpool_576.txt	LTP341	ltpFR2	22	1	COOK	372	n/a	n/a	0	0	0
293.77880859375	n/a	WORD	601659	wordpools/wasnorm_wordpool_576.txt	LTP341	ltpFR2	22	1	SPIDER	1351	n/a	n/a	0	0	0
296.228515625	n/a	WORD	606676	wordpools/wasnorm_wordpool_576.txt	LTP341	ltpFR2	22	1	DORM	488	n/a	n/a	0	0	0
298.69384765625	n/a	WORD	611725	wordpools/wasnorm_wordpool_576.txt	LTP341	ltpFR2	22	1	COTTAGE	384	n/a	n/a	0	0	0
301.1767578125	n/a	WORD	616810	wordpools/wasnorm_wordpool_576.txt	LTP341	ltpFR2	22	1	PASTA	1021	n/a	n/a	0	0	0
303.724609375	n/a	WORD	622028	wordpools/wasnorm_wordpool_576.txt	LTP341	ltpFR2	22	1	HOUND	724	n/a	n/a	0	0	0
306.37255859375	n/a	WORD	627451	wordpools/wasnorm_wordpool_576.txt	LTP341	ltpFR2	22	1	PLAYGROUND	1087	n/a	n/a	0	0	0
309.15625	n/a	WORD	633152	wordpools/wasnorm_wordpool_576.txt	LTP341	ltpFR2	22	1	VENUS	1557	n/a	n/a	0	0	0
311.6875	n/a	WORD	638336	wordpools/wasnorm_wordpool_576.txt	LTP341	ltpFR2	22	1	PLUTO	1092	n/a	n/a	0	0	0
314.38525390625	n/a	WORD	643861	wordpools/wasnorm_wordpool_576.txt	LTP341	ltpFR2	22	1	CASKET	255	n/a	n/a	0	0	0
316.85107421875	n/a	WORD	648911	wordpools/wasnorm_wordpool_576.txt	LTP341	ltpFR2	22	1	JUNGLE	764	n/a	n/a	0	0	0
319.2841796875	n/a	WORD	653894	wordpools/wasnorm_wordpool_576.txt	LTP341	ltpFR2	22	1	MONEY	908	n/a	n/a	0	0	0
321.7822265625	n/a	WORD	659010	wordpools/wasnorm_wordpool_576.txt	LTP341	ltpFR2	22	1	MUMMY	932	n/a	n/a	0	0	0
324.2822265625	n/a	WORD	664130	wordpools/wasnorm_wordpool_576.txt	LTP341	ltpFR2	22	1	PORTRAIT	1111	n/a	n/a	0	0	0
326.77978515625	n/a	WORD	669245	wordpools/wasnorm_wordpool_576.txt	LTP341	ltpFR2	22	1	SCRIBBLE	1256	n/a	n/a	0	0	0
329.345703125	n/a	WORD	674500	wordpools/wasnorm_wordpool_576.txt	LTP341	ltpFR2	22	1	LABEL	790	n/a	n/a	0	0	0
331.7939453125	n/a	WORD	679514	wordpools/wasnorm_wordpool_576.txt	LTP341	ltpFR2	22	1	YOLK	1633	n/a	n/a	0	0	0
334.40869140625	n/a	WORD	684869	wordpools/wasnorm_wordpool_576.txt	LTP341	ltpFR2	22	1	PUPPY	1144	n/a	n/a	0	0	0
337.2255859375	n/a	WORD	690638	wordpools/wasnorm_wordpool_576.txt	LTP341	ltpFR2	22	1	MOTOR	922	n/a	n/a	0	0	0
340.0078125	n/a	WORD	696336	wordpools/wasnorm_wordpool_576.txt	LTP341	ltpFR2	22	1	JAPAN	749	n/a	n/a	0	0	0
342.45556640625	n/a	WORD	701349	wordpools/wasnorm_wordpool_576.txt	LTP341	ltpFR2	22	1	GRAPE	654	n/a	n/a	0	0	0
344.072265625	n/a	START	704660	n/a	LTP341	ltpFR2	22	n/a	n/a	n/a	1	n/a	n/a	n/a	n/a
345.08837890625	n/a	DISTRACTOR	706741	n/a	LTP341	ltpFR2	22	1	n/a	n/a	n/a	n/a	0	0	0
345.1044921875	n/a	PROB	706774	n/a	LTP341	ltpFR2	22	n/a	n/a	n/a	1	12	5	1	6
346.5205078125	n/a	PROB	709674	n/a	LTP341	ltpFR2	22	n/a	n/a	n/a	1	17	7	8	2
347.75244140625	n/a	PROB	712197	n/a	LTP341	ltpFR2	22	n/a	n/a	n/a	1	16	8	1	7
348.7021484375	n/a	PROB	714142	n/a	LTP341	ltpFR2	22	n/a	n/a	n/a	1	196	6	6	7
349.818359375	n/a	PROB	716428	n/a	LTP341	ltpFR2	22	n/a	n/a	n/a	1	8	2	5	1
351.185546875	n/a	PROB	719228	n/a	LTP341	ltpFR2	22	n/a	n/a	n/a	1	20	8	6	6
353.1171875	n/a	PROB	723184	n/a	LTP341	ltpFR2	22	n/a	n/a	n/a	1	10	3	4	3
354.7822265625	n/a	PROB	726594	n/a	LTP341	ltpFR2	22	n/a	n/a	n/a	1	13	8	4	1
355.7490234375	n/a	PROB	728574	n/a	LTP341	ltpFR2	22	n/a	n/a	n/a	1	24	7	9	8
357.0322265625	n/a	PROB	731202	n/a	LTP341	ltpFR2	22	n/a	n/a	n/a	1	14	2	6	6
358.4970703125	n/a	PROB	734202	n/a	LTP341	ltpFR2	22	n/a	n/a	n/a	1	18	5	9	4
360.6630859375	n/a	PROB	738638	n/a	LTP341	ltpFR2	22	n/a	n/a	n/a	1	17	5	8	4
362.06298828125	n/a	PROB	741505	n/a	LTP341	ltpFR2	22	n/a	n/a	n/a	1	15	4	5	6
364.11181640625	n/a	PROB	745701	n/a	LTP341	ltpFR2	22	n/a	n/a	n/a	1	9	4	1	4
368.07177734375	n/a	STOP	753811	n/a	LTP341	ltpFR2	22	n/a	n/a	n/a	1	n/a	n/a	n/a	n/a
369.89501953125	n/a	REC_START	757545	n/a	LTP341	ltpFR2	22	1	n/a	n/a	n/a	n/a	0	0	0
370.68701171875	n/a	REC_WORD	759167	wordpools/wasnorm_wordpool_576.txt	LTP341	ltpFR2	22	1	SCRIBBLE	1256	n/a	n/a	0	0	0
371.337890625	n/a	REC_WORD	760500	wordpools/wasnorm_wordpool_576.txt	LTP341	ltpFR2	22	1	LABEL	790	n/a	n/a	0	0	0
372.6298828125	n/a	REC_WORD	763146	wordpools/wasnorm_wordpool_576.txt	LTP341	ltpFR2	22	1	YOLK	1633	n/a	n/a	0	0	0
373.74169921875	n/a	REC_WORD	765423	wordpools/wasnorm_wordpool_576.txt	LTP341	ltpFR2	22	1	PUPPY	1144	n/a	n/a	0	0	0
374.99365234375	n/a	REC_WORD	767987	wordpools/wasnorm_wordpool_576.txt	LTP341	ltpFR2	22	1	JAPAN	749	n/a	n/a	0	0	0
376.9677734375	n/a	REC_WORD	772030	wordpools/wasnorm_wordpool_576.txt	LTP341	ltpFR2	22	1	CASKET	255	n/a	n/a	0	0	0
379.21142578125	n/a	REC_WORD	776625	wordpools/wasnorm_wordpool_576.txt	LTP341	ltpFR2	22	1	CHIPMUNK	304	n/a	n/a	0	0	0
380.2646484375	n/a	REC_WORD	778782	wordpools/wasnorm_wordpool_576.txt	LTP341	ltpFR2	22	1	ANTLER	29	n/a	n/a	0	0	0
381.08056640625	n/a	REC_WORD	780453	wordpools/wasnorm_wordpool_576.txt	LTP341	ltpFR2	22	1	PUPIL	1143	n/a	n/a	0	0	0
384.78466796875	n/a	REC_WORD	788039	wordpools/wasnorm_wordpool_576.txt	LTP341	ltpFR2	22	1	DORM	488	n/a	n/a	0	0	0
385.41943359375	n/a	REC_WORD	789339	wordpools/wasnorm_wordpool_576.txt	LTP341	ltpFR2	22	1	COTTAGE	384	n/a	n/a	0	0	0
443.72216796875	n/a	REC_WORD_VV	908743	wordpools/wasnorm_wordpool_576.txt	LTP341	ltpFR2	22	1	<>	-1	n/a	n/a	0	0	0
460.36474609375	n/a	DISTRACTOR	942827	n/a	LTP341	ltpFR2	22	2	n/a	n/a	n/a	n/a	0	0	0
460.36474609375	n/a	START	942827	n/a	LTP341	ltpFR2	22	n/a	n/a	n/a	2	n/a	n/a	n/a	n/a
460.3828125	n/a	PROB	942864	n/a	LTP341	ltpFR2	22	n/a	n/a	n/a	2	11	6	1	4
461.74658203125	n/a	PROB	945657	n/a	LTP341	ltpFR2	22	n/a	n/a	n/a	2	24	7	9	8
462.9306640625	n/a	PROB	948082	n/a	LTP341	ltpFR2	22	n/a	n/a	n/a	2	8	5	2	1
463.7626953125	n/a	PROB	949786	n/a	LTP341	ltpFR2	22	n/a	n/a	n/a	2	14	3	9	2
465.04638671875	n/a	PROB	952415	n/a	LTP341	ltpFR2	22	n/a	n/a	n/a	2	13	3	9	1
465.9453125	n/a	PROB	954256	n/a	LTP341	ltpFR2	22	n/a	n/a	n/a	2	15	3	8	4
467.01220703125	n/a	PROB	956441	n/a	LTP341	ltpFR2	22	n/a	n/a	n/a	2	16	7	3	6
467.96142578125	n/a	PROB	958385	n/a	LTP341	ltpFR2	22	n/a	n/a	n/a	2	21	3	9	9
469.04443359375	n/a	PROB	960603	n/a	LTP341	ltpFR2	22	n/a	n/a	n/a	2	12	1	7	4
469.9775390625	n/a	PROB	962514	n/a	LTP341	ltpFR2	22	n/a	n/a	n/a	2	23	9	6	8
472.1591796875	n/a	PROB	966982	n/a	LTP341	ltpFR2	22	n/a	n/a	n/a	2	187	2	8	7
473.39111328125	n/a	PROB	969505	n/a	LTP341	ltpFR2	22	n/a	n/a	n/a	2	22	8	6	8
474.9580078125	n/a	PROB	972714	n/a	LTP341	ltpFR2	22	n/a	n/a	n/a	2	15	8	1	6
475.873046875	n/a	PROB	974588	n/a	LTP341	ltpFR2	22	n/a	n/a	n/a	2	23	6	8	9
477.40625	n/a	PROB	977728	n/a	LTP341	ltpFR2	22	n/a	n/a	n/a	2	14	3	8	2
478.4892578125	n/a	PROB	979946	n/a	LTP341	ltpFR2	22	n/a	n/a	n/a	2	17	7	3	7
479.48828125	n/a	PROB	981992	n/a	LTP341	ltpFR2	22	n/a	n/a	n/a	2	21	7	7	7
480.37109375	n/a	PROB	983800	n/a	LTP341	ltpFR2	22	n/a	n/a	n/a	2	20	5	7	8
481.4541015625	n/a	PROB	986018	n/a	LTP341	ltpFR2	22	n/a	n/a	n/a	2	9	4	1	4
482.3701171875	n/a	PROB	987894	n/a	LTP341	ltpFR2	22	n/a	n/a	n/a	2	23	8	7	8
483.458984375	n/a	STOP	990124	n/a	LTP341	ltpFR2	22	n/a	n/a	n/a	2	n/a	n/a	n/a	n/a
485.48486328125	n/a	WORD	994273	wordpools/wasnorm_wordpool_576.txt	LTP341	ltpFR2	22	2	TWEEZERS	1526	n/a	n/a	0	0	0
488.16796875	n/a	WORD	999768	wordpools/wasnorm_wordpool_576.txt	LTP341	ltpFR2	22	2	ANKLE	24	n/a	n/a	0	0	0
490.98388671875	n/a	WORD	1005535	wordpools/wasnorm_wordpool_576.txt	LTP341	ltpFR2	22	2	BEAVER	109	n/a	n/a	0	0	0
493.73095703125	n/a	WORD	1011161	wordpools/wasnorm_wordpool_576.txt	LTP341	ltpFR2	22	2	BASEMENT	94	n/a	n/a	0	0	0
496.24755859375	n/a	WORD	1016315	wordpools/wasnorm_wordpool_576.txt	LTP341	ltpFR2	22	2	CELLAR	267	n/a	n/a	0	0	0
499.02978515625	n/a	WORD	1022013	wordpools/wasnorm_wordpool_576.txt	LTP341	ltpFR2	22	2	TREAT	1501	n/a	n/a	0	0	0
501.49462890625	n/a	WORD	1027061	wordpools/wasnorm_wordpool_576.txt	LTP341	ltpFR2	22	2	CANDY	230	n/a	n/a	0	0	0
504.24365234375	n/a	WORD	1032691	wordpools/wasnorm_wordpool_576.txt	LTP341	ltpFR2	22	2	BROTHER	179	n/a	n/a	0	0	0
506.9423828125	n/a	WORD	1038218	wordpools/wasnorm_wordpool_576.txt	LTP341	ltpFR2	22	2	COUSIN	392	n/a	n/a	0	0	0
509.75634765625	n/a	WORD	1043981	wordpools/wasnorm_wordpool_576.txt	LTP341	ltpFR2	22	2	PICNIC	1060	n/a	n/a	0	0	0
512.4052734375	n/a	WORD	1049406	wordpools/wasnorm_wordpool_576.txt	LTP341	ltpFR2	22	2	POET	1095	n/a	n/a	0	0	0
515.13818359375	n/a	WORD	1055003	wordpools/wasnorm_wordpool_576.txt	LTP341	ltpFR2	22	2	PLAZA	1088	n/a	n/a	0	0	0
517.76904296875	n/a	WORD	1060391	wordpools/wasnorm_wordpool_576.txt	LTP341	ltpFR2	22	2	KITCHEN	778	n/a	n/a	0	0	0
520.46826171875	n/a	WORD	1065919	wordpools/wasnorm_wordpool_576.txt	LTP341	ltpFR2	22	2	COCKTAIL	338	n/a	n/a	0	0	0
523.2841796875	n/a	WORD	1071686	wordpools/wasnorm_wordpool_576.txt	LTP341	ltpFR2	22	2	DOUGHNUT	490	n/a	n/a	0	0	0
525.84912109375	n/a	WORD	1076939	wordpools/wasnorm_wordpool_576.txt	LTP341	ltpFR2	22	2	GRIZZLY	662	n/a	n/a	0	0	0
528.34912109375	n/a	WORD	1082059	wordpools/wasnorm_wordpool_576.txt	LTP341	ltpFR2	22	2	GHETTO	633	n/a	n/a	0	0	0
530.77978515625	n/a	WORD	1087037	wordpools/wasnorm_wordpool_576.txt	LTP341	ltpFR2	22	2	ASIA	46	n/a	n/a	0	0	0
533.57861328125	n/a	WORD	1092769	wordpools/wasnorm_wordpool_576.txt	LTP341	ltpFR2	22	2	IDOL	733	n/a	n/a	0	0	0
536.177734375	n/a	WORD	1098092	wordpools/wasnorm_wordpool_576.txt	LTP341	ltpFR2	22	2	HATCHET	691	n/a	n/a	0	0	0
538.94384765625	n/a	WORD	1103757	wordpools/wasnorm_wordpool_576.txt	LTP341	ltpFR2	22	2	TART	1436	n/a	n/a	0	0	0
541.45751953125	n/a	WORD	1108905	wordpools/wasnorm_wordpool_576.txt	LTP341	ltpFR2	22	2	FLASK	576	n/a	n/a	0	0	0
543.95751953125	n/a	WORD	1114025	wordpools/wasnorm_wordpool_576.txt	LTP341	ltpFR2	22	2	FOOT	590	n/a	n/a	0	0	0
546.72265625	n/a	WORD	1119688	wordpools/wasnorm_wordpool_576.txt	LTP341	ltpFR2	22	2	HEART	697	n/a	n/a	0	0	0
548.33935546875	n/a	START	1122999	n/a	LTP341	ltpFR2	22	n/a	n/a	n/a	3	n/a	n/a	n/a	n/a
549.18115234375	n/a	DISTRACTOR	1124723	n/a	LTP341	ltpFR2	22	2	n/a	n/a	n/a	n/a	0	0	0
549.1884765625	n/a	PROB	1124738	n/a	LTP341	ltpFR2	22	n/a	n/a	n/a	3	13	6	1	6
550.80322265625	n/a	PROB	1128045	n/a	LTP341	ltpFR2	22	n/a	n/a	n/a	3	9	3	2	4
552.287109375	n/a	PROB	1131084	n/a	LTP341	ltpFR2	22	n/a	n/a	n/a	3	12	8	2	2
553.68505859375	n/a	PROB	1133947	n/a	LTP341	ltpFR2	22	n/a	n/a	n/a	3	15	4	8	3
555.03515625	n/a	PROB	1136712	n/a	LTP341	ltpFR2	22	n/a	n/a	n/a	3	13	2	8	3
556.93505859375	n/a	PROB	1140603	n/a	LTP341	ltpFR2	22	n/a	n/a	n/a	3	12	5	6	1
557.80029296875	n/a	PROB	1142375	n/a	LTP341	ltpFR2	22	n/a	n/a	n/a	3	18	5	4	9
558.8330078125	n/a	PROB	1144490	n/a	LTP341	ltpFR2	22	n/a	n/a	n/a	3	12	1	8	3
559.865234375	n/a	PROB	1146604	n/a	LTP341	ltpFR2	22	n/a	n/a	n/a	3	16	6	1	9
560.7978515625	n/a	PROB	1148514	n/a	LTP341	ltpFR2	22	n/a	n/a	n/a	3	21	8	8	5
561.84814453125	n/a	PROB	1150665	n/a	LTP341	ltpFR2	22	n/a	n/a	n/a	3	11	2	2	7
562.81396484375	n/a	PROB	1152643	n/a	LTP341	ltpFR2	22	n/a	n/a	n/a	3	19	6	5	8
564.130859375	n/a	PROB	1155340	n/a	LTP341	ltpFR2	22	n/a	n/a	n/a	3	21	8	4	9
565.31396484375	n/a	PROB	1157763	n/a	LTP341	ltpFR2	22	n/a	n/a	n/a	3	1	4	4	2
566.36181640625	n/a	PROB	1159909	n/a	LTP341	ltpFR2	22	n/a	n/a	n/a	3	21	6	8	7
568.3779296875	n/a	PROB	1164038	n/a	LTP341	ltpFR2	22	n/a	n/a	n/a	3	14	2	7	4
569.57763671875	n/a	PROB	1166495	n/a	LTP341	ltpFR2	22	n/a	n/a	n/a	3	8	5	1	2
572.3388671875	n/a	STOP	1172150	n/a	LTP341	ltpFR2	22	n/a	n/a	n/a	3	n/a	n/a	n/a	n/a
574.2099609375	n/a	REC_START	1175982	n/a	LTP341	ltpFR2	22	2	n/a	n/a	n/a	n/a	0	0	0
574.74951171875	n/a	REC_WORD	1177087	wordpools/wasnorm_wordpool_576.txt	LTP341	ltpFR2	22	2	GHETTO	633	n/a	n/a	0	0	0
576.08154296875	n/a	REC_WORD	1179815	wordpools/wasnorm_wordpool_576.txt	LTP341	ltpFR2	22	2	GRIZZLY	662	n/a	n/a	0	0	0
581.0673828125	n/a	REC_WORD	1190026	wordpools/wasnorm_wordpool_576.txt	LTP341	ltpFR2	22	2	COCKTAIL	338	n/a	n/a	0	0	0
582.013671875	n/a	REC_WORD	1191964	wordpools/wasnorm_wordpool_576.txt	LTP341	ltpFR2	22	2	KITCHEN	778	n/a	n/a	0	0	0
584.20263671875	n/a	REC_WORD	1196447	wordpools/wasnorm_wordpool_576.txt	LTP341	ltpFR2	22	2	PICNIC	1060	n/a	n/a	0	0	0
585.2373046875	n/a	REC_WORD	1198566	wordpools/wasnorm_wordpool_576.txt	LTP341	ltpFR2	22	2	BROTHER	179	n/a	n/a	0	0	0
585.8525390625	n/a	REC_WORD	1199826	wordpools/wasnorm_wordpool_576.txt	LTP341	ltpFR2	22	2	COUSIN	392	n/a	n/a	0	0	0
588.12841796875	n/a	REC_WORD	1204487	wordpools/wasnorm_wordpool_576.txt	LTP341	ltpFR2	22	2	TART	1436	n/a	n/a	0	0	0
592.87841796875	n/a	REC_WORD	1214215	wordpools/wasnorm_wordpool_576.txt	LTP341	ltpFR2	22	2	CANDY	230	n/a	n/a	0	0	0
593.6181640625	n/a	REC_WORD	1215730	wordpools/wasnorm_wordpool_576.txt	LTP341	ltpFR2	22	2	TREAT	1501	n/a	n/a	0	0	0
594.93115234375	n/a	REC_WORD	1218419	wordpools/wasnorm_wordpool_576.txt	LTP341	ltpFR2	22	2	ANKLE	24	n/a	n/a	0	0	0
596.14697265625	n/a	REC_WORD	1220909	wordpools/wasnorm_wordpool_576.txt	LTP341	ltpFR2	22	2	BASEMENT	94	n/a	n/a	0	0	0
644.76416015625	n/a	REC_WORD_VV	1320477	wordpools/wasnorm_wordpool_576.txt	LTP341	ltpFR2	22	2	<>	-1	n/a	n/a	0	0	0
664.697265625	n/a	WORD	1361300	wordpools/wasnorm_wordpool_576.txt	LTP341	ltpFR2	22	3	TROMBONE	1508	n/a	n/a	0	0	0
667.396484375	n/a	WORD	1366828	wordpools/wasnorm_wordpool_576.txt	LTP341	ltpFR2	22	3	ELBOW	520	n/a	n/a	0	0	0
669.9462890625	n/a	WORD	1372050	wordpools/wasnorm_wordpool_576.txt	LTP341	ltpFR2	22	3	CONVICT	371	n/a	n/a	0	0	0
672.72705078125	n/a	WORD	1377745	wordpools/wasnorm_wordpool_576.txt	LTP341	ltpFR2	22	3	BRIEFCASE	175	n/a	n/a	0	0	0
675.21044921875	n/a	WORD	1382831	wordpools/wasnorm_wordpool_576.txt	LTP341	ltpFR2	22	3	GAVEL	627	n/a	n/a	0	0	0
677.69140625	n/a	WORD	1387912	wordpools/wasnorm_wordpool_576.txt	LTP341	ltpFR2	22	3	JUDGE	761	n/a	n/a	0	0	0
680.17431640625	n/a	WORD	1392997	wordpools/wasnorm_wordpool_576.txt	LTP341	ltpFR2	22	3	MILK	895	n/a	n/a	0	0	0
682.93994140625	n/a	WORD	1398661	wordpools/wasnorm_wordpool_576.txt	LTP341	ltpFR2	22	3	BANJO	82	n/a	n/a	0	0	0
685.73681640625	n/a	WORD	1404389	wordpools/wasnorm_wordpool_576.txt	LTP341	ltpFR2	22	3	HANDBAG	684	n/a	n/a	0	0	0
688.3857421875	n/a	WORD	1409814	wordpools/wasnorm_wordpool_576.txt	LTP341	ltpFR2	22	3	LEG	809	n/a	n/a	0	0	0
691.052734375	n/a	WORD	1415276	wordpools/wasnorm_wordpool_576.txt	LTP341	ltpFR2	22	3	RECEIPT	1173	n/a	n/a	0	0	0
693.61669921875	n/a	WORD	1420527	wordpools/wasnorm_wordpool_576.txt	LTP341	ltpFR2	22	3	GARBAGE	622	n/a	n/a	0	0	0
696.28271484375	n/a	WORD	1425987	wordpools/wasnorm_wordpool_576.txt	LTP341	ltpFR2	22	3	TOURIST	1488	n/a	n/a	0	0	0
698.99853515625	n/a	WORD	1431549	wordpools/wasnorm_wordpool_576.txt	LTP341	ltpFR2	22	3	IGLOO	734	n/a	n/a	0	0	0
701.79638671875	n/a	WORD	1437279	wordpools/wasnorm_wordpool_576.txt	LTP341	ltpFR2	22	3	SCARF	1246	n/a	n/a	0	0	0
704.41162109375	n/a	WORD	1442635	wordpools/wasnorm_wordpool_576.txt	LTP341	ltpFR2	22	3	CLAMP	316	n/a	n/a	0	0	0
707.16162109375	n/a	WORD	1448267	wordpools/wasnorm_wordpool_576.txt	LTP341	ltpFR2	22	3	BODY	145	n/a	n/a	0	0	0
709.84228515625	n/a	WORD	1453757	wordpools/wasnorm_wordpool_576.txt	LTP341	ltpFR2	22	3	BLUEPRINT	142	n/a	n/a	0	0	0
712.59130859375	n/a	WORD	1459387	wordpools/wasnorm_wordpool_576.txt	LTP341	ltpFR2	22	3	BLENDER	136	n/a	n/a	0	0	0
715.40625	n/a	WORD	1465152	wordpools/wasnorm_wordpool_576.txt	LTP341	ltpFR2	22	3	TURNIP	1521	n/a	n/a	0	0	0
718.02197265625	n/a	WORD	1470509	wordpools/wasnorm_wordpool_576.txt	LTP341	ltpFR2	22	3	PREACHER	1119	n/a	n/a	0	0	0
720.787109375	n/a	WORD	1476172	wordpools/wasnorm_wordpool_576.txt	LTP341	ltpFR2	22	3	CROSS	413	n/a	n/a	0	0	0
723.3369140625	n/a	WORD	1481394	wordpools/wasnorm_wordpool_576.txt	LTP341	ltpFR2	22	3	PARSLEY	1016	n/a	n/a	0	0	0
725.7841796875	n/a	WORD	1486406	wordpools/wasnorm_wordpool_576.txt	LTP341	ltpFR2	22	3	MEDAL	885	n/a	n/a	0	0	0
727.40087890625	n/a	START	1489717	n/a	LTP341	ltpFR2	22	n/a	n/a	n/a	4	n/a	n/a	n/a	n/a
728.52392578125	n/a	DISTRACTOR	1492017	n/a	LTP341	ltpFR2	22	3	n/a	n/a	n/a	n/a	0	0	0
728.53271484375	n/a	PROB	1492035	n/a	LTP341	ltpFR2	22	n/a	n/a	n/a	4	17	1	9	7
730.06689453125	n/a	PROB	1495177	n/a	LTP341	ltpFR2	22	n/a	n/a	n/a	4	10	2	3	5
731.6318359375	n/a	PROB	1498382	n/a	LTP341	ltpFR2	22	n/a	n/a	n/a	4	15	1	5	9
732.5146484375	n/a	PROB	1500190	n/a	LTP341	ltpFR2	22	n/a	n/a	n/a	4	19	5	7	7
734.11474609375	n/a	PROB	1503467	n/a	LTP341	ltpFR2	22	n/a	n/a	n/a	4	21	6	6	9
735.08056640625	n/a	PROB	1505445	n/a	LTP341	ltpFR2	22	n/a	n/a	n/a	4	13	3	6	4
736.61279296875	n/a	PROB	1508583	n/a	LTP341	ltpFR2	22	n/a	n/a	n/a	4	14	3	2	9
737.7119140625	n/a	PROB	1510834	n/a	LTP341	ltpFR2	22	n/a	n/a	n/a	4	26	9	9	8
739.91162109375	n/a	PROB	1515339	n/a	LTP341	ltpFR2	22	n/a	n/a	n/a	4	11	3	4	4
741.74365234375	n/a	PROB	1519091	n/a	LTP341	ltpFR2	22	n/a	n/a	n/a	4	20	9	5	6
743.9765625	n/a	PROB	1523664	n/a	LTP341	ltpFR2	22	n/a	n/a	n/a	4	9	6	1	2
745.25927734375	n/a	PROB	1526291	n/a	LTP341	ltpFR2	22	n/a	n/a	n/a	4	10	4	4	2
747.54052734375	n/a	PROB	1530963	n/a	LTP341	ltpFR2	22	n/a	n/a	n/a	4	11	1	1	9
748.556640625	n/a	PROB	1533044	n/a	LTP341	ltpFR2	22	n/a	n/a	n/a	4	11	1	4	6
749.37255859375	n/a	PROB	1534715	n/a	LTP341	ltpFR2	22	n/a	n/a	n/a	4	21	5	9	7
750.8935546875	n/a	STOP	1537830	n/a	LTP341	ltpFR2	22	n/a	n/a	n/a	4	n/a	n/a	n/a	n/a
753.25634765625	n/a	REC_START	1542669	n/a	LTP341	ltpFR2	22	3	n/a	n/a	n/a	n/a	0	0	0
754.01220703125	n/a	REC_WORD	1544217	wordpools/wasnorm_wordpool_576.txt	LTP341	ltpFR2	22	3	PREACHER	1119	n/a	n/a	0	0	0
754.79736328125	n/a	REC_WORD	1545825	wordpools/wasnorm_wordpool_576.txt	LTP341	ltpFR2	22	3	CROSS	413	n/a	n/a	0	0	0
755.7490234375	n/a	REC_WORD	1547774	wordpools/wasnorm_wordpool_576.txt	LTP341	ltpFR2	22	3	TURNIP	1521	n/a	n/a	0	0	0
756.291015625	n/a	REC_WORD	1548884	wordpools/wasnorm_wordpool_576.txt	LTP341	ltpFR2	22	3	PARSLEY	1016	n/a	n/a	0	0	0
757.2001953125	n/a	REC_WORD	1550746	wordpools/wasnorm_wordpool_576.txt	LTP341	ltpFR2	22	3	BLENDER	136	n/a	n/a	0	0	0
758.78125	n/a	REC_WORD	1553984	wordpools/wasnorm_wordpool_576.txt	LTP341	ltpFR2	22	3	IGLOO	734	n/a	n/a	0	0	0
759.22802734375	n/a	REC_WORD	1554899	wordpools/wasnorm_wordpool_576.txt	LTP341	ltpFR2	22	3	SCARF	1246	n/a	n/a	0	0	0
760.08203125	n/a	REC_WORD	1556648	wordpools/wasnorm_wordpool_576.txt	LTP341	ltpFR2	22	3	TOURIST	1488	n/a	n/a	0	0	0
762.44482421875	n/a	REC_WORD	1561487	wordpools/wasnorm_wordpool_576.txt	LTP341	ltpFR2	22	3	RECEIPT	1173	n/a	n/a	0	0	0
763.14404296875	n/a	REC_WORD	1562919	wordpools/wasnorm_wordpool_576.txt	LTP341	ltpFR2	22	3	GARBAGE	622	n/a	n/a	0	0	0
765.64208984375	n/a	REC_WORD	1568035	wordpools/wasnorm_wordpool_576.txt	LTP341	ltpFR2	22	3	BRIEFCASE	175	n/a	n/a	0	0	0
766.6689453125	n/a	REC_WORD	1570138	wordpools/wasnorm_wordpool_576.txt	LTP341	ltpFR2	22	3	TROMBONE	1508	n/a	n/a	0	0	0
768.56005859375	n/a	REC_WORD_VV	1574011	wordpools/wasnorm_wordpool_576.txt	LTP341	ltpFR2	22	3	<>	-1	n/a	n/a	0	0	0
772.384765625	n/a	REC_WORD	1581844	wordpools/wasnorm_wordpool_576.txt	LTP341	ltpFR2	22	3	BANJO	82	n/a	n/a	0	0	0
775.04052734375	n/a	REC_WORD	1587283	wordpools/wasnorm_wordpool_576.txt	LTP341	ltpFR2	22	3	ELBOW	520	n/a	n/a	0	0	0
777.04052734375	n/a	REC_WORD	1591379	wordpools/wasnorm_wordpool_576.txt	LTP341	ltpFR2	22	3	CONVICT	371	n/a	n/a	0	0	0
779.11669921875	n/a	REC_WORD	1595631	wordpools/wasnorm_wordpool_576.txt	LTP341	ltpFR2	22	3	JUDGE	761	n/a	n/a	0	0	0
843.72705078125	n/a	DISTRACTOR	1727953	n/a	LTP341	ltpFR2	22	4	n/a	n/a	n/a	n/a	0	0	0
843.72705078125	n/a	START	1727953	n/a	LTP341	ltpFR2	22	n/a	n/a	n/a	5	n/a	n/a	n/a	n/a
843.7431640625	n/a	PROB	1727986	n/a	LTP341	ltpFR2	22	n/a	n/a	n/a	5	12	7	2	1
845.3759765625	n/a	PROB	1731330	n/a	LTP341	ltpFR2	22	n/a	n/a	n/a	5	9	3	5	1
846.5087890625	n/a	PROB	1733650	n/a	LTP341	ltpFR2	22	n/a	n/a	n/a	5	13	6	6	1
847.52490234375	n/a	PROB	1735731	n/a	LTP341	ltpFR2	22	n/a	n/a	n/a	5	13	6	1	6
848.49072265625	n/a	PROB	1737709	n/a	LTP341	ltpFR2	22	n/a	n/a	n/a	5	17	2	9	6
849.82373046875	n/a	PROB	1740439	n/a	LTP341	ltpFR2	22	n/a	n/a	n/a	5	17	2	9	6
851.2568359375	n/a	PROB	1743374	n/a	LTP341	ltpFR2	22	n/a	n/a	n/a	5	14	8	1	5
852.53857421875	n/a	PROB	1745999	n/a	LTP341	ltpFR2	22	n/a	n/a	n/a	5	15	2	7	6
853.60498046875	n/a	PROB	1748183	n/a	LTP341	ltpFR2	22	n/a	n/a	n/a	5	19	8	9	2
854.888671875	n/a	PROB	1750812	n/a	LTP341	ltpFR2	22	n/a	n/a	n/a	5	12	3	8	1
855.853515625	n/a	PROB	1752788	n/a	LTP341	ltpFR2	22	n/a	n/a	n/a	5	23	9	5	9
857.353515625	n/a	PROB	1755860	n/a	LTP341	ltpFR2	22	n/a	n/a	n/a	5	12	2	3	7
858.32080078125	n/a	PROB	1757841	n/a	LTP341	ltpFR2	22	n/a	n/a	n/a	5	18	7	2	9
859.5185546875	n/a	PROB	1760294	n/a	LTP341	ltpFR2	22	n/a	n/a	n/a	5	17	8	7	2
861.11962890625	n/a	PROB	1763573	n/a	LTP341	ltpFR2	22	n/a	n/a	n/a	5	9	5	2	2
862.16845703125	n/a	PROB	1765721	n/a	LTP341	ltpFR2	22	n/a	n/a	n/a	5	13	8	4	1
863.134765625	n/a	PROB	1767700	n/a	LTP341	ltpFR2	22	n/a	n/a	n/a	5	15	6	6	3
864.0673828125	n/a	PROB	1769610	n/a	LTP341	ltpFR2	22	n/a	n/a	n/a	5	7	1	4	2
865.16748046875	n/a	PROB	1771863	n/a	LTP341	ltpFR2	22	n/a	n/a	n/a	5	8	1	3	4
866.150390625	n/a	PROB	1773876	n/a	LTP341	ltpFR2	22	n/a	n/a	n/a	5	12	8	3	1
867.21435546875	n/a	STOP	1776055	n/a	LTP341	ltpFR2	22	n/a	n/a	n/a	5	n/a	n/a	n/a	n/a
868.63134765625	n/a	WORD	1778957	wordpools/wasnorm_wordpool_576.txt	LTP341	ltpFR2	22	4	GARLIC	624	n/a	n/a	0	0	0
871.34716796875	n/a	WORD	1784519	wordpools/wasnorm_wordpool_576.txt	LTP341	ltpFR2	22	4	POCKET	1093	n/a	n/a	0	0	0
873.87939453125	n/a	WORD	1789705	wordpools/wasnorm_wordpool_576.txt	LTP341	ltpFR2	22	4	PATROL	1027	n/a	n/a	0	0	0
876.54443359375	n/a	WORD	1795163	wordpools/wasnorm_wordpool_576.txt	LTP341	ltpFR2	22	4	CRATER	400	n/a	n/a	0	0	0
879.17724609375	n/a	WORD	1800555	wordpools/wasnorm_wordpool_576.txt	LTP341	ltpFR2	22	4	GIFT	635	n/a	n/a	0	0	0
881.77490234375	n/a	WORD	1805875	wordpools/wasnorm_wordpool_576.txt	LTP341	ltpFR2	22	4	BUTCHER	203	n/a	n/a	0	0	0
884.45703125	n/a	WORD	1811368	wordpools/wasnorm_wordpool_576.txt	LTP341	ltpFR2	22	4	TRUCK	1512	n/a	n/a	0	0	0
887.22314453125	n/a	WORD	1817033	wordpools/wasnorm_wordpool_576.txt	LTP341	ltpFR2	22	4	PRIMATE	1123	n/a	n/a	0	0	0
889.82080078125	n/a	WORD	1822353	wordpools/wasnorm_wordpool_576.txt	LTP341	ltpFR2	22	4	REBEL	1172	n/a	n/a	0	0	0
892.60302734375	n/a	WORD	1828051	wordpools/wasnorm_wordpool_576.txt	LTP341	ltpFR2	22	4	CEILING	265	n/a	n/a	0	0	0
895.03564453125	n/a	WORD	1833033	wordpools/wasnorm_wordpool_576.txt	LTP341	ltpFR2	22	4	PADDING	999	n/a	n/a	0	0	0
897.68359375	n/a	WORD	1838456	wordpools/wasnorm_wordpool_576.txt	LTP341	ltpFR2	22	4	PACKAGE	997	n/a	n/a	0	0	0
900.18359375	n/a	WORD	1843576	wordpools/wasnorm_wordpool_576.txt	LTP341	ltpFR2	22	4	NECKLACE	940	n/a	n/a	0	0	0
902.7646484375	n/a	WORD	1848862	wordpools/wasnorm_wordpool_576.txt	LTP341	ltpFR2	22	4	DINER	467	n/a	n/a	0	0	0
905.29736328125	n/a	WORD	1854049	wordpools/wasnorm_wordpool_576.txt	LTP341	ltpFR2	22	4	POWDER	1117	n/a	n/a	0	0	0
908.04638671875	n/a	WORD	1859679	wordpools/wasnorm_wordpool_576.txt	LTP341	ltpFR2	22	4	SHERIFF	1284	n/a	n/a	0	0	0
910.494140625	n/a	WORD	1864692	wordpools/wasnorm_wordpool_576.txt	LTP341	ltpFR2	22	4	AGENT	10	n/a	n/a	0	0	0
913.06005859375	n/a	WORD	1869947	wordpools/wasnorm_wordpool_576.txt	LTP341	ltpFR2	22	4	BADGE	68	n/a	n/a	0	0	0
915.7412109375	n/a	WORD	1875438	wordpools/wasnorm_wordpool_576.txt	LTP341	ltpFR2	22	4	STAR	1373	n/a	n/a	0	0	0
918.42333984375	n/a	WORD	1880931	wordpools/wasnorm_wordpool_576.txt	LTP341	ltpFR2	22	4	ORCHID	982	n/a	n/a	0	0	0
921.1728515625	n/a	WORD	1886562	wordpools/wasnorm_wordpool_576.txt	LTP341	ltpFR2	22	4	DAISY	435	n/a	n/a	0	0	0
923.97216796875	n/a	WORD	1892295	wordpools/wasnorm_wordpool_576.txt	LTP341	ltpFR2	22	4	LADY	794	n/a	n/a	0	0	0
926.619140625	n/a	WORD	1897716	wordpools/wasnorm_wordpool_576.txt	LTP341	ltpFR2	22	4	OFFICE	972	n/a	n/a	0	0	0
929.384765625	n/a	WORD	1903380	wordpools/wasnorm_wordpool_576.txt	LTP341	ltpFR2	22	4	MUFFIN	929	n/a	n/a	0	0	0
931.001953125	n/a	START	1906692	n/a	LTP341	ltpFR2	22	n/a	n/a	n/a	6	n/a	n/a	n/a	n/a
932.11083984375	n/a	DISTRACTOR	1908963	n/a	LTP341	ltpFR2	22	4	n/a	n/a	n/a	n/a	0	0	0
932.11767578125	n/a	PROB	1908977	n/a	LTP341	ltpFR2	22	n/a	n/a	n/a	6	16	3	4	9
933.75	n/a	PROB	1912320	n/a	LTP341	ltpFR2	22	n/a	n/a	n/a	6	5	1	3	1
934.58154296875	n/a	PROB	1914023	n/a	LTP341	ltpFR2	22	n/a	n/a	n/a	6	18	5	5	8
935.548828125	n/a	PROB	1916004	n/a	LTP341	ltpFR2	22	n/a	n/a	n/a	6	7	3	2	2
936.53076171875	n/a	PROB	1918015	n/a	LTP341	ltpFR2	22	n/a	n/a	n/a	6	9	1	5	3
937.8134765625	n/a	PROB	1920642	n/a	LTP341	ltpFR2	22	n/a	n/a	n/a	6	19	9	2	8
939.064453125	n/a	PROB	1923204	n/a	LTP341	ltpFR2	22	n/a	n/a	n/a	6	11	4	3	4
940.4296875	n/a	PROB	1926000	n/a	LTP341	ltpFR2	22	n/a	n/a	n/a	6	8	6	1	1
941.32958984375	n/a	PROB	1927843	n/a	LTP341	ltpFR2	22	n/a	n/a	n/a	6	15	6	4	5
942.1796875	n/a	PROB	1929584	n/a	LTP341	ltpFR2	22	n/a	n/a	n/a	6	12	1	7	3
942.9453125	n/a	PROB	1931152	n/a	LTP341	ltpFR2	22	n/a	n/a	n/a	6	18	8	7	3
943.978515625	n/a	PROB	1933268	n/a	LTP341	ltpFR2	22	n/a	n/a	n/a	6	20	9	4	7
945.1943359375	n/a	PROB	1935758	n/a	LTP341	ltpFR2	22	n/a	n/a	n/a	6	16	4	7	5
946.57666015625	n/a	PROB	1938589	n/a	LTP341	ltpFR2	22	n/a	n/a	n/a	6	17	3	6	8
948.2265625	n/a	PROB	1941968	n/a	LTP341	ltpFR2	22	n/a	n/a	n/a	6	10	3	2	5
949.55859375	n/a	PROB	1944696	n/a	LTP341	ltpFR2	22	n/a	n/a	n/a	6	15	4	9	2
951.158203125	n/a	PROB	1947972	n/a	LTP341	ltpFR2	22	n/a	n/a	n/a	6	5	2	2	1
952.0244140625	n/a	PROB	1949746	n/a	LTP341	ltpFR2	22	n/a	n/a	n/a	6	11	6	4	1
952.89111328125	n/a	PROB	1951521	n/a	LTP341	ltpFR2	22	n/a	n/a	n/a	6	14	7	2	5
954.5341796875	n/a	STOP	1954886	n/a	LTP341	ltpFR2	22	n/a	n/a	n/a	6	n/a	n/a	n/a	n/a
956.80517578125	n/a	REC_START	1959537	n/a	LTP341	ltpFR2	22	4	n/a	n/a	n/a	n/a	0	0	0
957.18017578125	n/a	REC_WORD	1960305	wordpools/wasnorm_wordpool_576.txt	LTP341	ltpFR2	22	4	ORCHID	982	n/a	n/a	0	0	0
957.74609375	n/a	REC_WORD	1961464	wordpools/wasnorm_wordpool_576.txt	LTP341	ltpFR2	22	4	DAISY	435	n/a	n/a	0	0	0
958.1962890625	n/a	REC_WORD	1962386	wordpools/wasnorm_wordpool_576.txt	LTP341	ltpFR2	22	4	LADY	794	n/a	n/a	0	0	0
958.58203125	n/a	REC_WORD	1963176	wordpools/wasnorm_wordpool_576.txt	LTP341	ltpFR2	22	4	OFFICE	972	n/a	n/a	0	0	0
967.94775390625	n/a	REC_WORD	1982357	wordpools/wasnorm_wordpool_576.txt	LTP341	ltpFR2	22	4	PRIMATE	1123	n/a	n/a	0	0	0
977.15283203125	n/a	REC_WORD	2001209	wordpools/wasnorm_wordpool_576.txt	LTP341	ltpFR2	22	4	TRUCK	1512	n/a	n/a	0	0	0
980.50048828125	n/a	REC_WORD	2008065	wordpools/wasnorm_wordpool_576.txt	LTP341	ltpFR2	22	4	PADDING	999	n/a	n/a	0	0	0
981.310546875	n/a	REC_WORD	2009724	wordpools/wasnorm_wordpool_576.txt	LTP341	ltpFR2	22	4	CEILING	265	n/a	n/a	0	0	0
982.27978515625	n/a	REC_WORD	2011709	wordpools/wasnorm_wordpool_576.txt	LTP341	ltpFR2	22	4	POWDER	1117	n/a	n/a	0	0	0
985.0537109375	n/a	REC_WORD	2017390	wordpools/wasnorm_wordpool_576.txt	LTP341	ltpFR2	22	4	SHERIFF	1284	n/a	n/a	0	0	0
986.1025390625	n/a	REC_WORD	2019538	wordpools/wasnorm_wordpool_576.txt	LTP341	ltpFR2	22	4	BADGE	68	n/a	n/a	0	0	0
987.228515625	n/a	REC_WORD	2021844	wordpools/wasnorm_wordpool_576.txt	LTP341	ltpFR2	22	4	STAR	1373	n/a	n/a	0	0	0
988.9794921875	n/a	REC_WORD	2025430	wordpools/wasnorm_wordpool_576.txt	LTP341	ltpFR2	22	4	AGENT	10	n/a	n/a	0	0	0
990.0693359375	n/a	REC_WORD	2027662	wordpools/wasnorm_wordpool_576.txt	LTP341	ltpFR2	22	4	ORCHID	982	n/a	n/a	0	0	0
996.64013671875	n/a	REC_WORD	2041119	wordpools/wasnorm_wordpool_576.txt	LTP341	ltpFR2	22	4	REBEL	1172	n/a	n/a	0	0	0
1002.796875	n/a	REC_WORD	2053728	wordpools/wasnorm_wordpool_576.txt	LTP341	ltpFR2	22	4	BUTCHER	203	n/a	n/a	0	0	0
1009.89404296875	n/a	REC_WORD	2068263	wordpools/wasnorm_wordpool_576.txt	LTP341	ltpFR2	22	4	DINER	467	n/a	n/a	0	0	0
1025.4033203125	n/a	REC_WORD_VV	2100026	wordpools/wasnorm_wordpool_576.txt	LTP341	ltpFR2	22	4	<>	-1	n/a	n/a	0	0	0
1047.2607421875	n/a	WORD	2144790	wordpools/wasnorm_wordpool_576.txt	LTP341	ltpFR2	22	5	SPHINX	1349	n/a	n/a	0	0	0
1049.69287109375	n/a	WORD	2149771	wordpools/wasnorm_wordpool_576.txt	LTP341	ltpFR2	22	5	RAFT	1159	n/a	n/a	0	0	0
1052.44091796875	n/a	WORD	2155399	wordpools/wasnorm_wordpool_576.txt	LTP341	ltpFR2	22	5	SPONGE	1355	n/a	n/a	0	0	0
1054.87451171875	n/a	WORD	2160383	wordpools/wasnorm_wordpool_576.txt	LTP341	ltpFR2	22	5	TRACTOR	1493	n/a	n/a	0	0	0
1057.5888671875	n/a	WORD	2165942	wordpools/wasnorm_wordpool_576.txt	LTP341	ltpFR2	22	5	OX	994	n/a	n/a	0	0	0
1060.17138671875	n/a	WORD	2171231	wordpools/wasnorm_wordpool_576.txt	LTP341	ltpFR2	22	5	MAMMAL	861	n/a	n/a	0	0	0
1062.6025390625	n/a	WORD	2176210	wordpools/wasnorm_wordpool_576.txt	LTP341	ltpFR2	22	5	CHEMIST	292	n/a	n/a	0	0	0
1065.20263671875	n/a	WORD	2181535	wordpools/wasnorm_wordpool_576.txt	LTP341	ltpFR2	22	5	BARLEY	88	n/a	n/a	0	0	0
1068.00146484375	n/a	WORD	2187267	wordpools/wasnorm_wordpool_576.txt	LTP341	ltpFR2	22	5	OUTDOORS	987	n/a	n/a	0	0	0
1070.49951171875	n/a	WORD	2192383	wordpools/wasnorm_wordpool_576.txt	LTP341	ltpFR2	22	5	SKILLET	1317	n/a	n/a	0	0	0
1073.16552734375	n/a	WORD	2197843	wordpools/wasnorm_wordpool_576.txt	LTP341	ltpFR2	22	5	DRUG	501	n/a	n/a	0	0	0
1075.79638671875	n/a	WORD	2203231	wordpools/wasnorm_wordpool_576.txt	LTP341	ltpFR2	22	5	COIN	343	n/a	n/a	0	0	0
1078.578125	n/a	WORD	2208928	wordpools/wasnorm_wordpool_576.txt	LTP341	ltpFR2	22	5	KETCHUP	771	n/a	n/a	0	0	0
1081.111328125	n/a	WORD	2214116	wordpools/wasnorm_wordpool_576.txt	LTP341	ltpFR2	22	5	INFANT	737	n/a	n/a	0	0	0
1083.85888671875	n/a	WORD	2219743	wordpools/wasnorm_wordpool_576.txt	LTP341	ltpFR2	22	5	STOVE	1388	n/a	n/a	0	0	0
1086.326171875	n/a	WORD	2224796	wordpools/wasnorm_wordpool_576.txt	LTP341	ltpFR2	22	5	MARKET	871	n/a	n/a	0	0	0
1088.89111328125	n/a	WORD	2230049	wordpools/wasnorm_wordpool_576.txt	LTP341	ltpFR2	22	5	BRANDY	169	n/a	n/a	0	0	0
1091.68896484375	n/a	WORD	2235779	wordpools/wasnorm_wordpool_576.txt	LTP341	ltpFR2	22	5	CLOTHES	327	n/a	n/a	0	0	0
1094.52099609375	n/a	WORD	2241579	wordpools/wasnorm_wordpool_576.txt	LTP341	ltpFR2	22	5	LUNCH	849	n/a	n/a	0	0	0
1097.23681640625	n/a	WORD	2247141	wordpools/wasnorm_wordpool_576.txt	LTP341	ltpFR2	22	5	FLIPPER	580	n/a	n/a	0	0	0
1099.6845703125	n/a	WORD	2252154	wordpools/wasnorm_wordpool_576.txt	LTP341	ltpFR2	22	5	FEMALE	559	n/a	n/a	0	0	0
1102.36669921875	n/a	WORD	2257647	wordpools/wasnorm_wordpool_576.txt	LTP341	ltpFR2	22	5	ULCER	1533	n/a	n/a	0	0	0
1104.79833984375	n/a	WORD	2262627	wordpools/wasnorm_wordpool_576.txt	LTP341	ltpFR2	22	5	ACTOR	5	n/a	n/a	0	0	0
1107.54736328125	n/a	WORD	2268257	wordpools/wasnorm_wordpool_576.txt	LTP341	ltpFR2	22	5	ACTRESS	6	n/a	n/a	0	0	0
1109.16455078125	n/a	START	2271569	n/a	LTP341	ltpFR2	22	n/a	n/a	n/a	7	n/a	n/a	n/a	n/a
1110.30126953125	n/a	DISTRACTOR	2273897	n/a	LTP341	ltpFR2	22	5	n/a	n/a	n/a	n/a	0	0	0
1110.314453125	n/a	PROB	2273924	n/a	LTP341	ltpFR2	22	n/a	n/a	n/a	7	18	4	7	7
1113.29541015625	n/a	PROB	2280029	n/a	LTP341	ltpFR2	22	n/a	n/a	n/a	7	19	6	7	6
1114.72705078125	n/a	PROB	2282961	n/a	LTP341	ltpFR2	22	n/a	n/a	n/a	7	19	8	4	7
1115.71044921875	n/a	PROB	2284975	n/a	LTP341	ltpFR2	22	n/a	n/a	n/a	7	5	2	1	2
1116.576171875	n/a	PROB	2286748	n/a	LTP341	ltpFR2	22	n/a	n/a	n/a	7	8	4	2	2
1117.55908203125	n/a	PROB	2288761	n/a	LTP341	ltpFR2	22	n/a	n/a	n/a	7	15	2	5	8
1118.5419921875	n/a	PROB	2290774	n/a	LTP341	ltpFR2	22	n/a	n/a	n/a	7	22	5	8	9
1119.9921875	n/a	PROB	2293744	n/a	LTP341	ltpFR2	22	n/a	n/a	n/a	7	10	1	2	7
1121.0751953125	n/a	PROB	2295962	n/a	LTP341	ltpFR2	22	n/a	n/a	n/a	7	18	1	9	8
1122.05810546875	n/a	PROB	2297975	n/a	LTP341	ltpFR2	22	n/a	n/a	n/a	7	9	1	3	5
1123.923828125	n/a	PROB	2301796	n/a	LTP341	ltpFR2	22	n/a	n/a	n/a	7	10	1	6	3
1124.93994140625	n/a	PROB	2303877	n/a	LTP341	ltpFR2	22	n/a	n/a	n/a	7	18	9	2	7
1126.671875	n/a	PROB	2307424	n/a	LTP341	ltpFR2	22	n/a	n/a	n/a	7	12	3	2	7
1127.68798828125	n/a	PROB	2309505	n/a	LTP341	ltpFR2	22	n/a	n/a	n/a	7	17	4	7	5
1129.4697265625	n/a	PROB	2313154	n/a	LTP341	ltpFR2	22	n/a	n/a	n/a	7	19	5	5	9
1130.3857421875	n/a	PROB	2315030	n/a	LTP341	ltpFR2	22	n/a	n/a	n/a	7	22	7	8	7
1131.48583984375	n/a	PROB	2317283	n/a	LTP341	ltpFR2	22	n/a	n/a	n/a	7	16	6	4	6
1132.3359375	n/a	STOP	2319024	n/a	LTP341	ltpFR2	22	n/a	n/a	n/a	7	n/a	n/a	n/a	n/a
1135.0185546875	n/a	REC_START	2324518	n/a	LTP341	ltpFR2	22	5	n/a	n/a	n/a	n/a	0	0	0
1135.3408203125	n/a	REC_WORD	2325178	wordpools/wasnorm_wordpool_576.txt	LTP341	ltpFR2	22	5	FLIPPER	580	n/a	n/a	0	0	0
1135.89453125	n/a	REC_WORD	2326312	wordpools/wasnorm_wordpool_576.txt	LTP341	ltpFR2	22	5	FEMALE	559	n/a	n/a	0	0	0
1136.4208984375	n/a	REC_WORD	2327390	wordpools/wasnorm_wordpool_576.txt	LTP341	ltpFR2	22	5	ULCER	1533	n/a	n/a	0	0	0
1136.921875	n/a	REC_WORD	2328416	wordpools/wasnorm_wordpool_576.txt	LTP341	ltpFR2	22	5	ACTOR	5	n/a	n/a	0	0	0
1137.45849609375	n/a	REC_WORD	2329515	wordpools/wasnorm_wordpool_576.txt	LTP341	ltpFR2	22	5	ACTRESS	6	n/a	n/a	0	0	0
1142.3427734375	n/a	REC_WORD	2339518	wordpools/wasnorm_wordpool_576.txt	LTP341	ltpFR2	22	5	STOVE	1388	n/a	n/a	0	0	0
1144.9306640625	n/a	REC_WORD	2344818	wordpools/wasnorm_wordpool_576.txt	LTP341	ltpFR2	22	5	INFANT	737	n/a	n/a	0	0	0
1147.95166015625	n/a	REC_WORD	2351005	wordpools/wasnorm_wordpool_576.txt	LTP341	ltpFR2	22	5	CHEMIST	292	n/a	n/a	0	0	0
1148.55322265625	n/a	REC_WORD	2352237	wordpools/wasnorm_wordpool_576.txt	LTP341	ltpFR2	22	5	OUTDOORS	987	n/a	n/a	0	0	0
1151.72216796875	n/a	REC_WORD	2358727	wordpools/wasnorm_wordpool_576.txt	LTP341	ltpFR2	22	5	KETCHUP	771	n/a	n/a	0	0	0
1152.3564453125	n/a	REC_WORD	2360026	wordpools/wasnorm_wordpool_576.txt	LTP341	ltpFR2	22	5	DRUG	501	n/a	n/a	0	0	0
1156.46435546875	n/a	REC_WORD	2368439	wordpools/wasnorm_wordpool_576.txt	LTP341	ltpFR2	22	5	SPONGE	1355	n/a	n/a	0	0	0
1157.29931640625	n/a	REC_WORD	2370149	wordpools/wasnorm_wordpool_576.txt	LTP341	ltpFR2	22	5	RAFT	1159	n/a	n/a	0	0	0
1159.748046875	n/a	REC_WORD_VV	2375164	wordpools/wasnorm_wordpool_576.txt	LTP341	ltpFR2	22	5	<>	-1	n/a	n/a	0	0	0
1160.83203125	n/a	REC_WORD	2377384	wordpools/wasnorm_wordpool_576.txt	LTP341	ltpFR2	22	5	SPHINX	1349	n/a	n/a	0	0	0
1163.033203125	n/a	REC_WORD	2381892	wordpools/wasnorm_wordpool_576.txt	LTP341	ltpFR2	22	5	TRACTOR	1493	n/a	n/a	0	0	0
1165.89990234375	n/a	REC_WORD	2387763	wordpools/wasnorm_wordpool_576.txt	LTP341	ltpFR2	22	5	OX	994	n/a	n/a	0	0	0
1166.80810546875	n/a	REC_WORD	2389623	wordpools/wasnorm_wordpool_576.txt	LTP341	ltpFR2	22	5	MAMMAL	861	n/a	n/a	0	0	0
1225.45654296875	n/a	DISTRACTOR	2509735	n/a	LTP341	ltpFR2	22	6	n/a	n/a	n/a	n/a	0	0	0
1225.45654296875	n/a	START	2509735	n/a	LTP341	ltpFR2	22	n/a	n/a	n/a	8	n/a	n/a	n/a	n/a
1225.4736328125	n/a	PROB	2509770	n/a	LTP341	ltpFR2	22	n/a	n/a	n/a	8	13	5	7	1
1226.90625	n/a	PROB	2512704	n/a	LTP341	ltpFR2	22	n/a	n/a	n/a	8	21	9	9	3
1228.0224609375	n/a	PROB	2514990	n/a	LTP341	ltpFR2	22	n/a	n/a	n/a	8	20	6	8	6
1229.4873046875	n/a	PROB	2517990	n/a	LTP341	ltpFR2	22	n/a	n/a	n/a	8	15	7	4	4
1230.58740234375	n/a	PROB	2520243	n/a	LTP341	ltpFR2	22	n/a	n/a	n/a	8	9	4	4	1
1231.47021484375	n/a	PROB	2522051	n/a	LTP341	ltpFR2	22	n/a	n/a	n/a	8	16	5	2	9
1232.75244140625	n/a	PROB	2524677	n/a	LTP341	ltpFR2	22	n/a	n/a	n/a	8	19	5	6	8
1233.71923828125	n/a	PROB	2526657	n/a	LTP341	ltpFR2	22	n/a	n/a	n/a	8	20	9	8	5
1235.3193359375	n/a	PROB	2529934	n/a	LTP341	ltpFR2	22	n/a	n/a	n/a	8	19	4	8	7
1236.451171875	n/a	PROB	2532252	n/a	LTP341	ltpFR2	22	n/a	n/a	n/a	8	9	5	3	1
1237.484375	n/a	PROB	2534368	n/a	LTP341	ltpFR2	22	n/a	n/a	n/a	8	14	3	4	7
1238.68310546875	n/a	PROB	2536823	n/a	LTP341	ltpFR2	22	n/a	n/a	n/a	8	14	1	7	6
1239.98388671875	n/a	PROB	2539487	n/a	LTP341	ltpFR2	22	n/a	n/a	n/a	8	15	4	9	2
1241.14990234375	n/a	PROB	2541875	n/a	LTP341	ltpFR2	22	n/a	n/a	n/a	8	20	7	6	7
1242.2490234375	n/a	PROB	2544126	n/a	LTP341	ltpFR2	22	n/a	n/a	n/a	8	15	6	7	2
1243.2490234375	n/a	PROB	2546174	n/a	LTP341	ltpFR2	22	n/a	n/a	n/a	8	2	9	9	5
1244.21484375	n/a	PROB	2548152	n/a	LTP341	ltpFR2	22	n/a	n/a	n/a	8	17	5	5	7
1246.0810546875	n/a	PROB	2551974	n/a	LTP341	ltpFR2	22	n/a	n/a	n/a	8	19	8	7	4
1247.345703125	n/a	PROB	2554564	n/a	LTP341	ltpFR2	22	n/a	n/a	n/a	8	14	4	8	2
1248.3046875	n/a	STOP	2556528	n/a	LTP341	ltpFR2	22	n/a	n/a	n/a	8	n/a	n/a	n/a	n/a
1250.61083984375	n/a	WORD	2561251	wordpools/wasnorm_wordpool_576.txt	LTP341	ltpFR2	22	6	HOSTESS	723	n/a	n/a	0	0	0
1253.06103515625	n/a	WORD	2566269	wordpools/wasnorm_wordpool_576.txt	LTP341	ltpFR2	22	6	COSTUME	383	n/a	n/a	0	0	0
1255.55859375	n/a	WORD	2571384	wordpools/wasnorm_wordpool_576.txt	LTP341	ltpFR2	22	6	FOREHEAD	592	n/a	n/a	0	0	0
1257.99169921875	n/a	WORD	2576367	wordpools/wasnorm_wordpool_576.txt	LTP341	ltpFR2	22	6	WOMAN	1620	n/a	n/a	0	0	0
1260.47265625	n/a	WORD	2581448	wordpools/wasnorm_wordpool_576.txt	LTP341	ltpFR2	22	6	JURY	766	n/a	n/a	0	0	0
1263.2724609375	n/a	WORD	2587182	wordpools/wasnorm_wordpool_576.txt	LTP341	ltpFR2	22	6	SWITCH	1422	n/a	n/a	0	0	0
1265.736328125	n/a	WORD	2592228	wordpools/wasnorm_wordpool_576.txt	LTP341	ltpFR2	22	6	NOTEBOOK	959	n/a	n/a	0	0	0
1268.45263671875	n/a	WORD	2597791	wordpools/wasnorm_wordpool_576.txt	LTP341	ltpFR2	22	6	CRAB	397	n/a	n/a	0	0	0
1271.1181640625	n/a	WORD	2603250	wordpools/wasnorm_wordpool_576.txt	LTP341	ltpFR2	22	6	KLEENEX	782	n/a	n/a	0	0	0
1273.63330078125	n/a	WORD	2608401	wordpools/wasnorm_wordpool_576.txt	LTP341	ltpFR2	22	6	GUARD	667	n/a	n/a	0	0	0
1276.26611328125	n/a	WORD	2613793	wordpools/wasnorm_wordpool_576.txt	LTP341	ltpFR2	22	6	GLOVE	642	n/a	n/a	0	0	0
1278.84716796875	n/a	WORD	2619079	wordpools/wasnorm_wordpool_576.txt	LTP341	ltpFR2	22	6	ICEBERG	731	n/a	n/a	0	0	0
1281.56201171875	n/a	WORD	2624639	wordpools/wasnorm_wordpool_576.txt	LTP341	ltpFR2	22	6	MILDEW	893	n/a	n/a	0	0	0
1284.14501953125	n/a	WORD	2629929	wordpools/wasnorm_wordpool_576.txt	LTP341	ltpFR2	22	6	TWISTER	1530	n/a	n/a	0	0	0
1286.94384765625	n/a	WORD	2635661	wordpools/wasnorm_wordpool_576.txt	LTP341	ltpFR2	22	6	EYELASH	546	n/a	n/a	0	0	0
1289.458984375	n/a	WORD	2640812	wordpools/wasnorm_wordpool_576.txt	LTP341	ltpFR2	22	6	WITNESS	1618	n/a	n/a	0	0	0
1291.94189453125	n/a	WORD	2645897	wordpools/wasnorm_wordpool_576.txt	LTP341	ltpFR2	22	6	WAITER	1580	n/a	n/a	0	0	0
1294.5556640625	n/a	WORD	2651250	wordpools/wasnorm_wordpool_576.txt	LTP341	ltpFR2	22	6	BEAKER	104	n/a	n/a	0	0	0
1297.1884765625	n/a	WORD	2656642	wordpools/wasnorm_wordpool_576.txt	LTP341	ltpFR2	22	6	POLICE	1098	n/a	n/a	0	0	0
1299.81982421875	n/a	WORD	2662031	wordpools/wasnorm_wordpool_576.txt	LTP341	ltpFR2	22	6	HAWK	692	n/a	n/a	0	0	0
1302.25341796875	n/a	WORD	2667015	wordpools/wasnorm_wordpool_576.txt	LTP341	ltpFR2	22	6	BATHTUB	100	n/a	n/a	0	0	0
1304.86865234375	n/a	WORD	2672371	wordpools/wasnorm_wordpool_576.txt	LTP341	ltpFR2	22	6	HORNET	718	n/a	n/a	0	0	0
1307.54931640625	n/a	WORD	2677861	wordpools/wasnorm_wordpool_576.txt	LTP341	ltpFR2	22	6	TWIG	1527	n/a	n/a	0	0	0
1310.2822265625	n/a	WORD	2683458	wordpools/wasnorm_wordpool_576.txt	LTP341	ltpFR2	22	6	SHRUB	1299	n/a	n/a	0	0	0
1311.8984375	n/a	START	2686768	n/a	LTP341	ltpFR2	22	n/a	n/a	n/a	9	n/a	n/a	n/a	n/a
1313.021484375	n/a	DISTRACTOR	2689068	n/a	LTP341	ltpFR2	22	6	n/a	n/a	n/a	n/a	0	0	0
1313.03125	n/a	PROB	2689088	n/a	LTP341	ltpFR2	22	n/a	n/a	n/a	9	10	1	1	8
1314.51318359375	n/a	PROB	2692123	n/a	LTP341	ltpFR2	22	n/a	n/a	n/a	9	4	2	1	1
1316.39501953125	n/a	PROB	2695977	n/a	LTP341	ltpFR2	22	n/a	n/a	n/a	9	15	7	4	4
1317.744140625	n/a	PROB	2698740	n/a	LTP341	ltpFR2	22	n/a	n/a	n/a	9	21	6	8	7
1319.01220703125	n/a	PROB	2701337	n/a	LTP341	ltpFR2	22	n/a	n/a	n/a	9	15	4	5	6
1320.41015625	n/a	PROB	2704200	n/a	LTP341	ltpFR2	22	n/a	n/a	n/a	9	23	6	9	8
1321.75927734375	n/a	PROB	2706963	n/a	LTP341	ltpFR2	22	n/a	n/a	n/a	9	17	4	8	5
1322.91015625	n/a	PROB	2709320	n/a	LTP341	ltpFR2	22	n/a	n/a	n/a	9	16	2	5	9
1324.10888671875	n/a	PROB	2711775	n/a	LTP341	ltpFR2	22	n/a	n/a	n/a	9	22	7	6	9
1325.2587890625	n/a	PROB	2714130	n/a	LTP341	ltpFR2	22	n/a	n/a	n/a	9	18	5	9	4
1326.47412109375	n/a	PROB	2716619	n/a	LTP341	ltpFR2	22	n/a	n/a	n/a	9	12	8	1	3
1327.45703125	n/a	PROB	2718632	n/a	LTP341	ltpFR2	22	n/a	n/a	n/a	9	10	4	4	3
1328.57275390625	n/a	PROB	2720917	n/a	LTP341	ltpFR2	22	n/a	n/a	n/a	9	17	6	5	6
1329.77197265625	n/a	PROB	2723373	n/a	LTP341	ltpFR2	22	n/a	n/a	n/a	9	11	6	1	4
1330.77197265625	n/a	PROB	2725421	n/a	LTP341	ltpFR2	22	n/a	n/a	n/a	9	19	3	7	9
1331.68798828125	n/a	PROB	2727297	n/a	LTP341	ltpFR2	22	n/a	n/a	n/a	9	16	2	9	5
1332.85400390625	n/a	PROB	2729685	n/a	LTP341	ltpFR2	22	n/a	n/a	n/a	9	12	1	8	3
1333.7197265625	n/a	PROB	2731458	n/a	LTP341	ltpFR2	22	n/a	n/a	n/a	9	8	4	3	1
1334.52880859375	n/a	STOP	2733115	n/a	LTP341	ltpFR2	22	n/a	n/a	n/a	9	n/a	n/a	n/a	n/a
1337.71875	n/a	REC_START	2739648	n/a	LTP341	ltpFR2	22	6	n/a	n/a	n/a	n/a	0	0	0
1338.25146484375	n/a	REC_WORD	2740739	wordpools/wasnorm_wordpool_576.txt	LTP341	ltpFR2	22	6	BATHTUB	100	n/a	n/a	0	0	0
1338.8828125	n/a	REC_WORD	2742032	wordpools/wasnorm_wordpool_576.txt	LTP341	ltpFR2	22	6	HORNET	718	n/a	n/a	0	0	0
1339.58984375	n/a	REC_WORD	2743480	wordpools/wasnorm_wordpool_576.txt	LTP341	ltpFR2	22	6	TWIG	1527	n/a	n/a	0	0	0
1340.16455078125	n/a	REC_WORD	2744657	wordpools/wasnorm_wordpool_576.txt	LTP341	ltpFR2	22	6	SHRUB	1299	n/a	n/a	0	0	0
1344.2666015625	n/a	REC_WORD	2753058	wordpools/wasnorm_wordpool_576.txt	LTP341	ltpFR2	22	6	HOSTESS	723	n/a	n/a	0	0	0
1344.96826171875	n/a	REC_WORD	2754495	wordpools/wasnorm_wordpool_576.txt	LTP341	ltpFR2	22	6	COSTUME	383	n/a	n/a	0	0	0
1347.83447265625	n/a	REC_WORD	2760365	wordpools/wasnorm_wordpool_576.txt	LTP341	ltpFR2	22	6	FOREHEAD	592	n/a	n/a	0	0	0
1359.6630859375	n/a	REC_WORD	2784590	wordpools/wasnorm_wordpool_576.txt	LTP341	ltpFR2	22	6	NOTEBOOK	959	n/a	n/a	0	0	0
1360.498046875	n/a	REC_WORD	2786300	wordpools/wasnorm_wordpool_576.txt	LTP341	ltpFR2	22	6	CRAB	397	n/a	n/a	0	0	0
1362.0341796875	n/a	REC_WORD	2789446	wordpools/wasnorm_wordpool_576.txt	LTP341	ltpFR2	22	6	GLOVE	642	n/a	n/a	0	0	0
1363.0771484375	n/a	REC_WORD	2791582	wordpools/wasnorm_wordpool_576.txt	LTP341	ltpFR2	22	6	KLEENEX	782	n/a	n/a	0	0	0
1428.1416015625	n/a	DISTRACTOR	2924834	n/a	LTP341	ltpFR2	22	7	n/a	n/a	n/a	n/a	0	0	0
1428.1416015625	n/a	START	2924834	n/a	LTP341	ltpFR2	22	n/a	n/a	n/a	10	n/a	n/a	n/a	n/a
1428.158203125	n/a	PROB	2924868	n/a	LTP341	ltpFR2	22	n/a	n/a	n/a	10	18	9	7	2
1429.8564453125	n/a	PROB	2928346	n/a	LTP341	ltpFR2	22	n/a	n/a	n/a	10	12	3	4	5
1430.92333984375	n/a	PROB	2930531	n/a	LTP341	ltpFR2	22	n/a	n/a	n/a	10	12	1	5	6
1431.85546875	n/a	PROB	2932440	n/a	LTP341	ltpFR2	22	n/a	n/a	n/a	10	15	7	3	5
1432.6552734375	n/a	PROB	2934078	n/a	LTP341	ltpFR2	22	n/a	n/a	n/a	10	16	8	2	6
1434.00537109375	n/a	PROB	2936843	n/a	LTP341	ltpFR2	22	n/a	n/a	n/a	10	10	2	3	4
1435.25439453125	n/a	PROB	2939401	n/a	LTP341	ltpFR2	22	n/a	n/a	n/a	10	1	2	3	6
1436.4033203125	n/a	PROB	2941754	n/a	LTP341	ltpFR2	22	n/a	n/a	n/a	10	20	2	9	9
1437.92041015625	n/a	PROB	2944861	n/a	LTP341	ltpFR2	22	n/a	n/a	n/a	10	20	4	7	9
1439.203125	n/a	PROB	2947488	n/a	LTP341	ltpFR2	22	n/a	n/a	n/a	10	9	1	5	3
1440.119140625	n/a	PROB	2949364	n/a	LTP341	ltpFR2	22	n/a	n/a	n/a	10	17	8	7	2
1441.21826171875	n/a	PROB	2951615	n/a	LTP341	ltpFR2	22	n/a	n/a	n/a	10	15	5	7	3
1442.2509765625	n/a	PROB	2953730	n/a	LTP341	ltpFR2	22	n/a	n/a	n/a	10	11	3	2	6
1443.6328125	n/a	PROB	2956560	n/a	LTP341	ltpFR2	22	n/a	n/a	n/a	10	12	3	8	1
1444.59912109375	n/a	PROB	2958539	n/a	LTP341	ltpFR2	22	n/a	n/a	n/a	10	14	3	8	3
1445.83203125	n/a	PROB	2961064	n/a	LTP341	ltpFR2	22	n/a	n/a	n/a	10	15	6	3	6
1447.43115234375	n/a	PROB	2964339	n/a	LTP341	ltpFR2	22	n/a	n/a	n/a	10	17	9	4	4
1448.4970703125	n/a	PROB	2966522	n/a	LTP341	ltpFR2	22	n/a	n/a	n/a	10	17	3	5	9
1449.86376953125	n/a	PROB	2969321	n/a	LTP341	ltpFR2	22	n/a	n/a	n/a	10	16	4	8	4
1451.15380859375	n/a	STOP	2971963	n/a	LTP341	ltpFR2	22	n/a	n/a	n/a	10	n/a	n/a	n/a	n/a
1453.1298828125	n/a	WORD	2976010	wordpools/wasnorm_wordpool_576.txt	LTP341	ltpFR2	22	7	MOP	916	n/a	n/a	0	0	0
1455.810546875	n/a	WORD	2981500	wordpools/wasnorm_wordpool_576.txt	LTP341	ltpFR2	22	7	WHISKERS	1605	n/a	n/a	0	0	0
1458.45849609375	n/a	WORD	2986923	wordpools/wasnorm_wordpool_576.txt	LTP341	ltpFR2	22	7	WORKER	1621	n/a	n/a	0	0	0
1461.04150390625	n/a	WORD	2992213	wordpools/wasnorm_wordpool_576.txt	LTP341	ltpFR2	22	7	STREAM	1392	n/a	n/a	0	0	0
1463.50634765625	n/a	WORD	2997261	wordpools/wasnorm_wordpool_576.txt	LTP341	ltpFR2	22	7	HONEY	713	n/a	n/a	0	0	0
1465.97265625	n/a	WORD	3002312	wordpools/wasnorm_wordpool_576.txt	LTP341	ltpFR2	22	7	DRIVER	499	n/a	n/a	0	0	0
1468.7705078125	n/a	WORD	3008042	wordpools/wasnorm_wordpool_576.txt	LTP341	ltpFR2	22	7	ROOSTER	1209	n/a	n/a	0	0	0
1471.30322265625	n/a	WORD	3013229	wordpools/wasnorm_wordpool_576.txt	LTP341	ltpFR2	22	7	RIFLE	1192	n/a	n/a	0	0	0
1473.9853515625	n/a	WORD	3018722	wordpools/wasnorm_wordpool_576.txt	LTP341	ltpFR2	22	7	LASER	801	n/a	n/a	0	0	0
1476.533203125	n/a	WORD	3023940	wordpools/wasnorm_wordpool_576.txt	LTP341	ltpFR2	22	7	EAGLE	512	n/a	n/a	0	0	0
1479.3330078125	n/a	WORD	3029674	wordpools/wasnorm_wordpool_576.txt	LTP341	ltpFR2	22	7	PEBBLE	1035	n/a	n/a	0	0	0
1481.88232421875	n/a	WORD	3034895	wordpools/wasnorm_wordpool_576.txt	LTP341	ltpFR2	22	7	FILM	565	n/a	n/a	0	0	0
1484.56298828125	n/a	WORD	3040385	wordpools/wasnorm_wordpool_576.txt	LTP341	ltpFR2	22	7	VIRUS	1572	n/a	n/a	0	0	0
1487.3291015625	n/a	WORD	3046050	wordpools/wasnorm_wordpool_576.txt	LTP341	ltpFR2	22	7	COWBOY	395	n/a	n/a	0	0	0
1490.14501953125	n/a	WORD	3051817	wordpools/wasnorm_wordpool_576.txt	LTP341	ltpFR2	22	7	WAGON	1578	n/a	n/a	0	0	0
1492.6259765625	n/a	WORD	3056898	wordpools/wasnorm_wordpool_576.txt	LTP341	ltpFR2	22	7	CRITIC	410	n/a	n/a	0	0	0
1495.27587890625	n/a	WORD	3062325	wordpools/wasnorm_wordpool_576.txt	LTP341	ltpFR2	22	7	AIRPLANE	12	n/a	n/a	0	0	0
1497.8564453125	n/a	WORD	3067610	wordpools/wasnorm_wordpool_576.txt	LTP341	ltpFR2	22	7	HOOK	715	n/a	n/a	0	0	0
1500.638671875	n/a	WORD	3073308	wordpools/wasnorm_wordpool_576.txt	LTP341	ltpFR2	22	7	SIBLING	1301	n/a	n/a	0	0	0
1503.2216796875	n/a	WORD	3078598	wordpools/wasnorm_wordpool_576.txt	LTP341	ltpFR2	22	7	SISTER	1312	n/a	n/a	0	0	0
1505.8525390625	n/a	WORD	3083986	wordpools/wasnorm_wordpool_576.txt	LTP341	ltpFR2	22	7	PIMPLE	1071	n/a	n/a	0	0	0
1508.6171875	n/a	WORD	3089648	wordpools/wasnorm_wordpool_576.txt	LTP341	ltpFR2	22	7	SHELTER	1282	n/a	n/a	0	0	0
1511.2001953125	n/a	WORD	3094938	wordpools/wasnorm_wordpool_576.txt	LTP341	ltpFR2	22	7	LEADER	807	n/a	n/a	0	0	0
1513.748046875	n/a	WORD	3100156	wordpools/wasnorm_wordpool_576.txt	LTP341	ltpFR2	22	7	BRAKE	166	n/a	n/a	0	0	0
1515.3642578125	n/a	START	3103466	n/a	LTP341	ltpFR2	22	n/a	n/a	n/a	11	n/a	n/a	n/a	n/a
1516.4501953125	n/a	DISTRACTOR	3105690	n/a	LTP341	ltpFR2	22	7	n/a	n/a	n/a	n/a	0	0	0
1516.46435546875	n/a	PROB	3105719	n/a	LTP341	ltpFR2	22	n/a	n/a	n/a	11	16	5	5	6
1517.89697265625	n/a	PROB	3108653	n/a	LTP341	ltpFR2	22	n/a	n/a	n/a	11	17	8	8	1
1518.96435546875	n/a	PROB	3110839	n/a	LTP341	ltpFR2	22	n/a	n/a	n/a	11	16	2	8	4
1520.2958984375	n/a	PROB	3113566	n/a	LTP341	ltpFR2	22	n/a	n/a	n/a	11	11	1	8	2
1521.24609375	n/a	PROB	3115512	n/a	LTP341	ltpFR2	22	n/a	n/a	n/a	11	14	1	4	9
1522.294921875	n/a	PROB	3117660	n/a	LTP341	ltpFR2	22	n/a	n/a	n/a	11	21	8	6	7
1523.328125	n/a	PROB	3119776	n/a	LTP341	ltpFR2	22	n/a	n/a	n/a	11	16	7	2	4
1524.56005859375	n/a	PROB	3122299	n/a	LTP341	ltpFR2	22	n/a	n/a	n/a	11	14	2	9	3
1525.72607421875	n/a	PROB	3124687	n/a	LTP341	ltpFR2	22	n/a	n/a	n/a	11	14	9	3	2
1526.876953125	n/a	PROB	3127044	n/a	LTP341	ltpFR2	22	n/a	n/a	n/a	11	12	8	2	2
1528.1259765625	n/a	PROB	3129602	n/a	LTP341	ltpFR2	22	n/a	n/a	n/a	11	24	7	9	8
1530.19189453125	n/a	PROB	3133833	n/a	LTP341	ltpFR2	22	n/a	n/a	n/a	11	19	9	5	5
1531.27490234375	n/a	PROB	3136051	n/a	LTP341	ltpFR2	22	n/a	n/a	n/a	11	13	2	4	7
1532.52294921875	n/a	PROB	3138607	n/a	LTP341	ltpFR2	22	n/a	n/a	n/a	11	12	6	5	1
1533.37158203125	n/a	PROB	3140345	n/a	LTP341	ltpFR2	22	n/a	n/a	n/a	11	1	4	8	1
1534.32275390625	n/a	PROB	3142293	n/a	LTP341	ltpFR2	22	n/a	n/a	n/a	11	13	1	4	8
1535.255859375	n/a	PROB	3144204	n/a	LTP341	ltpFR2	22	n/a	n/a	n/a	11	9	3	4	2
1536.587890625	n/a	PROB	3146932	n/a	LTP341	ltpFR2	22	n/a	n/a	n/a	11	13	8	1	4
1538.69775390625	n/a	STOP	3151253	n/a	LTP341	ltpFR2	22	n/a	n/a	n/a	11	n/a	n/a	n/a	n/a
1541.12060546875	n/a	REC_START	3156215	n/a	LTP341	ltpFR2	22	7	n/a	n/a	n/a	n/a	0	0	0
1541.90576171875	n/a	REC_WORD	3157823	wordpools/wasnorm_wordpool_576.txt	LTP341	ltpFR2	22	7	AIRPLANE	12	n/a	n/a	0	0	0
1542.49755859375	n/a	REC_WORD	3159035	wordpools/wasnorm_wordpool_576.txt	LTP341	ltpFR2	22	7	SHELTER	1282	n/a	n/a	0	0	0
1543.0244140625	n/a	REC_WORD	3160114	wordpools/wasnorm_wordpool_576.txt	LTP341	ltpFR2	22	7	LEADER	807	n/a	n/a	0	0	0
1543.45263671875	n/a	REC_WORD	3160991	wordpools/wasnorm_wordpool_576.txt	LTP341	ltpFR2	22	7	BRAKE	166	n/a	n/a	0	0	0
1545.400390625	n/a	REC_WORD	3164980	wordpools/wasnorm_wordpool_576.txt	LTP341	ltpFR2	22	7	ROOSTER	1209	n/a	n/a	0	0	0
1551.51220703125	n/a	REC_WORD	3177497	wordpools/wasnorm_wordpool_576.txt	LTP341	ltpFR2	22	7	RIFLE	1192	n/a	n/a	0	0	0
1552.439453125	n/a	REC_WORD	3179396	wordpools/wasnorm_wordpool_576.txt	LTP341	ltpFR2	22	7	LASER	801	n/a	n/a	0	0	0
1554.7041015625	n/a	REC_WORD	3184034	wordpools/wasnorm_wordpool_576.txt	LTP341	ltpFR2	22	7	DRIVER	499	n/a	n/a	0	0	0
1557.0654296875	n/a	REC_WORD	3188870	wordpools/wasnorm_wordpool_576.txt	LTP341	ltpFR2	22	7	VIRUS	1572	n/a	n/a	0	0	0
1558.09716796875	n/a	REC_WORD	3190983	wordpools/wasnorm_wordpool_576.txt	LTP341	ltpFR2	22	7	FILM	565	n/a	n/a	0	0	0
1560.77587890625	n/a	REC_WORD	3196469	wordpools/wasnorm_wordpool_576.txt	LTP341	ltpFR2	22	7	AIRPLANE	12	n/a	n/a	0	0	0
1561.703125	n/a	REC_WORD	3198368	wordpools/wasnorm_wordpool_576.txt	LTP341	ltpFR2	22	7	WAGON	1578	n/a	n/a	0	0	0
1562.43603515625	n/a	REC_WORD	3199869	wordpools/wasnorm_wordpool_576.txt	LTP341	ltpFR2	22	7	CRITIC	410	n/a	n/a	0	0	0
1631.59033203125	n/a	WORD	3341497	wordpools/wasnorm_wordpool_576.txt	LTP341	ltpFR2	22	8	CUSTARD	429	n/a	n/a	0	0	0
1634.25732421875	n/a	WORD	3346959	wordpools/wasnorm_wordpool_576.txt	LTP341	ltpFR2	22	8	DRESS	495	n/a	n/a	0	0	0
1636.92236328125	n/a	WORD	3352417	wordpools/wasnorm_wordpool_576.txt	LTP341	ltpFR2	22	8	FLAG	573	n/a	n/a	0	0	0
1639.5029296875	n/a	WORD	3357702	wordpools/wasnorm_wordpool_576.txt	LTP341	ltpFR2	22	8	EUROPE	541	n/a	n/a	0	0	0
1642.30322265625	n/a	WORD	3363437	wordpools/wasnorm_wordpool_576.txt	LTP341	ltpFR2	22	8	LIPSTICK	829	n/a	n/a	0	0	0
1645.01904296875	n/a	WORD	3368999	wordpools/wasnorm_wordpool_576.txt	LTP341	ltpFR2	22	8	FRANCE	601	n/a	n/a	0	0	0
1647.4658203125	n/a	WORD	3374010	wordpools/wasnorm_wordpool_576.txt	LTP341	ltpFR2	22	8	COUNTY	389	n/a	n/a	0	0	0
1650.14990234375	n/a	WORD	3379507	wordpools/wasnorm_wordpool_576.txt	LTP341	ltpFR2	22	8	SHIRT	1287	n/a	n/a	0	0	0
1652.9150390625	n/a	WORD	3385170	wordpools/wasnorm_wordpool_576.txt	LTP341	ltpFR2	22	8	RUG	1215	n/a	n/a	0	0	0
1655.712890625	n/a	WORD	3390900	wordpools/wasnorm_wordpool_576.txt	LTP341	ltpFR2	22	8	MISTER	901	n/a	n/a	0	0	0
1658.41064453125	n/a	WORD	3396425	wordpools/wasnorm_wordpool_576.txt	LTP341	ltpFR2	22	8	XEROX	1628	n/a	n/a	0	0	0
1660.99462890625	n/a	WORD	3401717	wordpools/wasnorm_wordpool_576.txt	LTP341	ltpFR2	22	8	SWAMP	1416	n/a	n/a	0	0	0
1663.79150390625	n/a	WORD	3407445	wordpools/wasnorm_wordpool_576.txt	LTP341	ltpFR2	22	8	AUTHOR	61	n/a	n/a	0	0	0
1666.37353515625	n/a	WORD	3412733	wordpools/wasnorm_wordpool_576.txt	LTP341	ltpFR2	22	8	NOVEL	960	n/a	n/a	0	0	0
1668.95751953125	n/a	WORD	3418025	wordpools/wasnorm_wordpool_576.txt	LTP341	ltpFR2	22	8	CITRUS	313	n/a	n/a	0	0	0
1671.48828125	n/a	WORD	3423208	wordpools/wasnorm_wordpool_576.txt	LTP341	ltpFR2	22	8	ICING	732	n/a	n/a	0	0	0
1673.9384765625	n/a	WORD	3428226	wordpools/wasnorm_wordpool_576.txt	LTP341	ltpFR2	22	8	SIDEWALK	1303	n/a	n/a	0	0	0
1676.60205078125	n/a	WORD	3433681	wordpools/wasnorm_wordpool_576.txt	LTP341	ltpFR2	22	8	GRAVEL	659	n/a	n/a	0	0	0
1679.35107421875	n/a	WORD	3439311	wordpools/wasnorm_wordpool_576.txt	LTP341	ltpFR2	22	8	SHORTS	1293	n/a	n/a	0	0	0
1682.0341796875	n/a	WORD	3444806	wordpools/wasnorm_wordpool_576.txt	LTP341	ltpFR2	22	8	BARREL	91	n/a	n/a	0	0	0
1684.84814453125	n/a	WORD	3450569	wordpools/wasnorm_wordpool_576.txt	LTP341	ltpFR2	22	8	COUNTRY	388	n/a	n/a	0	0	0
1687.4638671875	n/a	WORD	3455926	wordpools/wasnorm_wordpool_576.txt	LTP341	ltpFR2	22	8	FLUTE	585	n/a	n/a	0	0	0
1690.11279296875	n/a	WORD	3461351	wordpools/wasnorm_wordpool_576.txt	LTP341	ltpFR2	22	8	VAGRANT	1544	n/a	n/a	0	0	0
1692.5947265625	n/a	WORD	3466434	wordpools/wasnorm_wordpool_576.txt	LTP341	ltpFR2	22	8	WASHER	1592	n/a	n/a	0	0	0
1694.2119140625	n/a	START	3469746	n/a	LTP341	ltpFR2	22	n/a	n/a	n/a	12	n/a	n/a	n/a	n/a
1695.255859375	n/a	DISTRACTOR	3471884	n/a	LTP341	ltpFR2	22	8	n/a	n/a	n/a	n/a	0	0	0
1695.2607421875	n/a	PROB	3471894	n/a	LTP341	ltpFR2	22	n/a	n/a	n/a	12	11	5	1	5
1696.5927734375	n/a	PROB	3474622	n/a	LTP341	ltpFR2	22	n/a	n/a	n/a	12	22	7	8	7
1698.142578125	n/a	PROB	3477796	n/a	LTP341	ltpFR2	22	n/a	n/a	n/a	12	13	5	5	3
1699.04248046875	n/a	PROB	3479639	n/a	LTP341	ltpFR2	22	n/a	n/a	n/a	12	25	7	9	9
1701.83935546875	n/a	PROB	3485367	n/a	LTP341	ltpFR2	22	n/a	n/a	n/a	12	17	4	5	8
1703.40576171875	n/a	PROB	3488575	n/a	LTP341	ltpFR2	22	n/a	n/a	n/a	12	14	2	8	4
1704.5712890625	n/a	PROB	3490962	n/a	LTP341	ltpFR2	22	n/a	n/a	n/a	12	8	1	3	4
1705.6044921875	n/a	PROB	3493078	n/a	LTP341	ltpFR2	22	n/a	n/a	n/a	12	25	8	9	8
1708.30419921875	n/a	PROB	3498607	n/a	LTP341	ltpFR2	22	n/a	n/a	n/a	12	10	1	6	3
1709.486328125	n/a	PROB	3501028	n/a	LTP341	ltpFR2	22	n/a	n/a	n/a	12	14	4	9	1
1710.96923828125	n/a	PROB	3504065	n/a	LTP341	ltpFR2	22	n/a	n/a	n/a	12	16	7	6	3
1712.0693359375	n/a	PROB	3506318	n/a	LTP341	ltpFR2	22	n/a	n/a	n/a	12	18	9	8	1
1713.00244140625	n/a	PROB	3508229	n/a	LTP341	ltpFR2	22	n/a	n/a	n/a	12	23	8	6	9
1714.46728515625	n/a	PROB	3511229	n/a	LTP341	ltpFR2	22	n/a	n/a	n/a	12	16	5	4	7
1716.1171875	n/a	PROB	3514608	n/a	LTP341	ltpFR2	22	n/a	n/a	n/a	12	17	9	1	7
1717.04443359375	n/a	STOP	3516507	n/a	LTP341	ltpFR2	22	n/a	n/a	n/a	12	n/a	n/a	n/a	n/a
1720.13232421875	n/a	REC_START	3522831	n/a	LTP341	ltpFR2	22	8	n/a	n/a	n/a	n/a	0	0	0
1720.60205078125	n/a	REC_WORD	3523793	wordpools/wasnorm_wordpool_576.txt	LTP341	ltpFR2	22	8	GRAVEL	659	n/a	n/a	0	0	0
1721.21923828125	n/a	REC_WORD	3525057	wordpools/wasnorm_wordpool_576.txt	LTP341	ltpFR2	22	8	BEAR	106	n/a	n/a	0	0	0
1721.994140625	n/a	REC_WORD	3526644	wordpools/wasnorm_wordpool_576.txt	LTP341	ltpFR2	22	8	BARREL	91	n/a	n/a	0	0	0
1723.076171875	n/a	REC_WORD	3528860	wordpools/wasnorm_wordpool_576.txt	LTP341	ltpFR2	22	8	FRUIT	610	n/a	n/a	0	0	0
1724.74609375	n/a	REC_WORD	3532280	wordpools/wasnorm_wordpool_576.txt	LTP341	ltpFR2	22	8	COUNTY	389	n/a	n/a	0	0	0
1725.51904296875	n/a	REC_WORD	3533863	wordpools/wasnorm_wordpool_576.txt	LTP341	ltpFR2	22	8	COUNTY	389	n/a	n/a	0	0	0
1727.203125	n/a	REC_WORD	3537312	wordpools/wasnorm_wordpool_576.txt	LTP341	ltpFR2	22	8	DRESS	495	n/a	n/a	0	0	0
1727.85595703125	n/a	REC_WORD	3538649	wordpools/wasnorm_wordpool_576.txt	LTP341	ltpFR2	22	8	SHIRT	1287	n/a	n/a	0	0	0
1731.4599609375	n/a	REC_WORD	3546030	wordpools/wasnorm_wordpool_576.txt	LTP341	ltpFR2	22	8	SHORTS	1293	n/a	n/a	0	0	0
1732.4619140625	n/a	REC_WORD	3548082	wordpools/wasnorm_wordpool_576.txt	LTP341	ltpFR2	22	8	LIPSTICK	829	n/a	n/a	0	0	0
1733.27099609375	n/a	REC_WORD	3549739	wordpools/wasnorm_wordpool_576.txt	LTP341	ltpFR2	22	8	FLAG	573	n/a	n/a	0	0	0
1734.19287109375	n/a	REC_WORD	3551627	wordpools/wasnorm_wordpool_576.txt	LTP341	ltpFR2	22	8	CUSTARD	429	n/a	n/a	0	0	0
1735.95361328125	n/a	REC_WORD	3555233	wordpools/wasnorm_wordpool_576.txt	LTP341	ltpFR2	22	8	XEROX	1628	n/a	n/a	0	0	0
1736.8916015625	n/a	REC_WORD	3557154	wordpools/wasnorm_wordpool_576.txt	LTP341	ltpFR2	22	8	SWAMP	1416	n/a	n/a	0	0	0
1741.935546875	n/a	REC_WORD	3567484	wordpools/wasnorm_wordpool_576.txt	LTP341	ltpFR2	22	8	NOVEL	960	n/a	n/a	0	0	0
1745.63232421875	n/a	REC_WORD	3575055	wordpools/wasnorm_wordpool_576.txt	LTP341	ltpFR2	22	8	ORCHID	982	n/a	n/a	0	0	0
1796.67626953125	n/a	REST_REWET	3679593	n/a	LTP341	ltpFR2	22	8	n/a	n/a	n/a	n/a	0	0	0
1905.37353515625	n/a	WORD	3902205	wordpools/wasnorm_wordpool_576.txt	LTP341	ltpFR2	22	9	TERMITE	1451	n/a	n/a	0	0	0
1907.83837890625	n/a	WORD	3907253	wordpools/wasnorm_wordpool_576.txt	LTP341	ltpFR2	22	9	INMATE	738	n/a	n/a	0	0	0
1910.30517578125	n/a	WORD	3912305	wordpools/wasnorm_wordpool_576.txt	LTP341	ltpFR2	22	9	OUTLAW	989	n/a	n/a	0	0	0
1913.037109375	n/a	WORD	3917900	wordpools/wasnorm_wordpool_576.txt	LTP341	ltpFR2	22	9	HOOD	714	n/a	n/a	0	0	0
1915.80126953125	n/a	WORD	3923561	wordpools/wasnorm_wordpool_576.txt	LTP341	ltpFR2	22	9	LONDON	843	n/a	n/a	0	0	0
1918.51708984375	n/a	WORD	3929123	wordpools/wasnorm_wordpool_576.txt	LTP341	ltpFR2	22	9	THREAD	1460	n/a	n/a	0	0	0
1921.1669921875	n/a	WORD	3934550	wordpools/wasnorm_wordpool_576.txt	LTP341	ltpFR2	22	9	SPOOL	1356	n/a	n/a	0	0	0
1923.6640625	n/a	WORD	3939664	wordpools/wasnorm_wordpool_576.txt	LTP341	ltpFR2	22	9	DRAGON	492	n/a	n/a	0	0	0
1926.43017578125	n/a	WORD	3945329	wordpools/wasnorm_wordpool_576.txt	LTP341	ltpFR2	22	9	RACKET	1155	n/a	n/a	0	0	0
1929.212890625	n/a	WORD	3951028	wordpools/wasnorm_wordpool_576.txt	LTP341	ltpFR2	22	9	TAXI	1438	n/a	n/a	0	0	0
1931.64404296875	n/a	WORD	3956007	wordpools/wasnorm_wordpool_576.txt	LTP341	ltpFR2	22	9	HUSBAND	728	n/a	n/a	0	0	0
1934.27685546875	n/a	WORD	3961399	wordpools/wasnorm_wordpool_576.txt	LTP341	ltpFR2	22	9	BUGGY	188	n/a	n/a	0	0	0
1936.74169921875	n/a	WORD	3966447	wordpools/wasnorm_wordpool_576.txt	LTP341	ltpFR2	22	9	DANCER	437	n/a	n/a	0	0	0
1939.3896484375	n/a	WORD	3971870	wordpools/wasnorm_wordpool_576.txt	LTP341	ltpFR2	22	9	ATLAS	53	n/a	n/a	0	0	0
1941.8896484375	n/a	WORD	3976990	wordpools/wasnorm_wordpool_576.txt	LTP341	ltpFR2	22	9	SHELF	1280	n/a	n/a	0	0	0
1944.53759765625	n/a	WORD	3982413	wordpools/wasnorm_wordpool_576.txt	LTP341	ltpFR2	22	9	BOUQUET	157	n/a	n/a	0	0	0
1947.03759765625	n/a	WORD	3987533	wordpools/wasnorm_wordpool_576.txt	LTP341	ltpFR2	22	9	MACHINE	852	n/a	n/a	0	0	0
1949.6181640625	n/a	WORD	3992818	wordpools/wasnorm_wordpool_576.txt	LTP341	ltpFR2	22	9	CAPTIVE	240	n/a	n/a	0	0	0
1952.25146484375	n/a	WORD	3998211	wordpools/wasnorm_wordpool_576.txt	LTP341	ltpFR2	22	9	PEDAL	1037	n/a	n/a	0	0	0
1954.74951171875	n/a	WORD	4003327	wordpools/wasnorm_wordpool_576.txt	LTP341	ltpFR2	22	9	SMOG	1330	n/a	n/a	0	0	0
1957.19921875	n/a	WORD	4008344	wordpools/wasnorm_wordpool_576.txt	LTP341	ltpFR2	22	9	CARRIAGE	248	n/a	n/a	0	0	0
1959.71337890625	n/a	WORD	4013493	wordpools/wasnorm_wordpool_576.txt	LTP341	ltpFR2	22	9	SOFTBALL	1343	n/a	n/a	0	0	0
1962.24609375	n/a	WORD	4018680	wordpools/wasnorm_wordpool_576.txt	LTP341	ltpFR2	22	9	TOASTER	1472	n/a	n/a	0	0	0
1964.76123046875	n/a	WORD	4023831	wordpools/wasnorm_wordpool_576.txt	LTP341	ltpFR2	22	9	STICKER	1382	n/a	n/a	0	0	0
1966.376953125	n/a	START	4027140	n/a	LTP341	ltpFR2	22	n/a	n/a	n/a	13	n/a	n/a	n/a	n/a
1967.39111328125	n/a	DISTRACTOR	4029217	n/a	LTP341	ltpFR2	22	9	n/a	n/a	n/a	n/a	0	0	0
1967.39306640625	n/a	PROB	4029221	n/a	LTP341	ltpFR2	22	n/a	n/a	n/a	13	12	4	3	5
1968.94287109375	n/a	PROB	4032395	n/a	LTP341	ltpFR2	22	n/a	n/a	n/a	13	16	7	3	6
1969.99267578125	n/a	PROB	4034545	n/a	LTP341	ltpFR2	22	n/a	n/a	n/a	13	18	8	3	7
1970.99169921875	n/a	PROB	4036591	n/a	LTP341	ltpFR2	22	n/a	n/a	n/a	13	8	1	4	3
1971.958984375	n/a	PROB	4038572	n/a	LTP341	ltpFR2	22	n/a	n/a	n/a	13	11	1	5	5
1972.875	n/a	PROB	4040448	n/a	LTP341	ltpFR2	22	n/a	n/a	n/a	13	15	2	8	5
1973.7900390625	n/a	PROB	4042322	n/a	LTP341	ltpFR2	22	n/a	n/a	n/a	13	14	5	2	7
1977.20556640625	n/a	PROB	4049317	n/a	LTP341	ltpFR2	22	n/a	n/a	n/a	13	11	5	1	5
1978.15576171875	n/a	PROB	4051263	n/a	LTP341	ltpFR2	22	n/a	n/a	n/a	13	10	2	2	6
1979.1884765625	n/a	PROB	4053378	n/a	LTP341	ltpFR2	22	n/a	n/a	n/a	13	17	3	8	6
1980.33642578125	n/a	PROB	4055729	n/a	LTP341	ltpFR2	22	n/a	n/a	n/a	13	18	3	6	9
1981.685546875	n/a	PROB	4058492	n/a	LTP341	ltpFR2	22	n/a	n/a	n/a	13	14	5	8	1
1983.236328125	n/a	PROB	4061668	n/a	LTP341	ltpFR2	22	n/a	n/a	n/a	13	18	5	7	6
1985.3505859375	n/a	PROB	4065998	n/a	LTP341	ltpFR2	22	n/a	n/a	n/a	13	22	5	9	8
1986.53369140625	n/a	PROB	4068421	n/a	LTP341	ltpFR2	22	n/a	n/a	n/a	13	15	6	1	8
1987.46630859375	n/a	PROB	4070331	n/a	LTP341	ltpFR2	22	n/a	n/a	n/a	13	16	5	7	4
1988.5166015625	n/a	PROB	4072482	n/a	LTP341	ltpFR2	22	n/a	n/a	n/a	13	24	9	6	9
1990.03759765625	n/a	STOP	4075597	n/a	LTP341	ltpFR2	22	n/a	n/a	n/a	13	n/a	n/a	n/a	n/a
1992.29931640625	n/a	REC_START	4080229	n/a	LTP341	ltpFR2	22	9	n/a	n/a	n/a	n/a	0	0	0
1992.7314453125	n/a	REC_WORD	4081114	wordpools/wasnorm_wordpool_576.txt	LTP341	ltpFR2	22	9	SOFTBALL	1343	n/a	n/a	0	0	0
1993.5751953125	n/a	REC_WORD	4082842	wordpools/wasnorm_wordpool_576.txt	LTP341	ltpFR2	22	9	TOASTER	1472	n/a	n/a	0	0	0
1999.89794921875	n/a	REC_WORD	4095791	wordpools/wasnorm_wordpool_576.txt	LTP341	ltpFR2	22	9	INMATE	738	n/a	n/a	0	0	0
2000.828125	n/a	REC_WORD	4097696	wordpools/wasnorm_wordpool_576.txt	LTP341	ltpFR2	22	9	TERMITE	1451	n/a	n/a	0	0	0
2006.05908203125	n/a	REC_WORD	4108409	wordpools/wasnorm_wordpool_576.txt	LTP341	ltpFR2	22	9	OUTLAW	989	n/a	n/a	0	0	0
2006.880859375	n/a	REC_WORD	4110092	wordpools/wasnorm_wordpool_576.txt	LTP341	ltpFR2	22	9	HOOD	714	n/a	n/a	0	0	0
2010.56396484375	n/a	REC_WORD	4117635	wordpools/wasnorm_wordpool_576.txt	LTP341	ltpFR2	22	9	DRAGON	492	n/a	n/a	0	0	0
2012.1240234375	n/a	REC_WORD	4120830	wordpools/wasnorm_wordpool_576.txt	LTP341	ltpFR2	22	9	TAXI	1438	n/a	n/a	0	0	0
2014.4169921875	n/a	REC_WORD	4125526	wordpools/wasnorm_wordpool_576.txt	LTP341	ltpFR2	22	9	RACKET	1155	n/a	n/a	0	0	0
2018.28857421875	n/a	REC_WORD	4133455	wordpools/wasnorm_wordpool_576.txt	LTP341	ltpFR2	22	9	PEDAL	1037	n/a	n/a	0	0	0
2020.0537109375	n/a	REC_WORD	4137070	wordpools/wasnorm_wordpool_576.txt	LTP341	ltpFR2	22	9	CARRIAGE	248	n/a	n/a	0	0	0
2021.27978515625	n/a	REC_WORD	4139581	wordpools/wasnorm_wordpool_576.txt	LTP341	ltpFR2	22	9	SMOG	1330	n/a	n/a	0	0	0
2027.23046875	n/a	REC_WORD	4151768	wordpools/wasnorm_wordpool_576.txt	LTP341	ltpFR2	22	9	BOUQUET	157	n/a	n/a	0	0	0
2030.8623046875	n/a	REC_WORD	4159206	wordpools/wasnorm_wordpool_576.txt	LTP341	ltpFR2	22	9	HUSBAND	728	n/a	n/a	0	0	0
2082.7529296875	n/a	DISTRACTOR	4265478	n/a	LTP341	ltpFR2	22	10	n/a	n/a	n/a	n/a	0	0	0
2082.7529296875	n/a	START	4265478	n/a	LTP341	ltpFR2	22	n/a	n/a	n/a	14	n/a	n/a	n/a	n/a
2082.77001953125	n/a	PROB	4265513	n/a	LTP341	ltpFR2	22	n/a	n/a	n/a	14	21	3	9	9
2085.7021484375	n/a	PROB	4271518	n/a	LTP341	ltpFR2	22	n/a	n/a	n/a	14	12	2	3	7
2086.80078125	n/a	PROB	4273768	n/a	LTP341	ltpFR2	22	n/a	n/a	n/a	14	13	8	2	3
2088.39990234375	n/a	PROB	4277043	n/a	LTP341	ltpFR2	22	n/a	n/a	n/a	14	7	2	3	2
2089.5830078125	n/a	PROB	4279466	n/a	LTP341	ltpFR2	22	n/a	n/a	n/a	14	16	1	7	8
2090.548828125	n/a	PROB	4281444	n/a	LTP341	ltpFR2	22	n/a	n/a	n/a	14	9	5	2	2
2091.44873046875	n/a	PROB	4283287	n/a	LTP341	ltpFR2	22	n/a	n/a	n/a	14	17	7	1	9
2093.916015625	n/a	PROB	4288340	n/a	LTP341	ltpFR2	22	n/a	n/a	n/a	14	20	9	4	7
2095.513671875	n/a	PROB	4291612	n/a	LTP341	ltpFR2	22	n/a	n/a	n/a	14	13	6	7	2
2096.7626953125	n/a	PROB	4294170	n/a	LTP341	ltpFR2	22	n/a	n/a	n/a	14	23	5	9	9
2098.296875	n/a	PROB	4297312	n/a	LTP341	ltpFR2	22	n/a	n/a	n/a	14	16	8	4	4
2099.77783203125	n/a	PROB	4300345	n/a	LTP341	ltpFR2	22	n/a	n/a	n/a	14	24	7	8	9
2101.4775390625	n/a	PROB	4303826	n/a	LTP341	ltpFR2	22	n/a	n/a	n/a	14	6	1	1	4
2102.4267578125	n/a	PROB	4305770	n/a	LTP341	ltpFR2	22	n/a	n/a	n/a	14	16	9	3	4
2103.6923828125	n/a	PROB	4308362	n/a	LTP341	ltpFR2	22	n/a	n/a	n/a	14	17	8	5	6
2105.12646484375	n/a	PROB	4311299	n/a	LTP341	ltpFR2	22	n/a	n/a	n/a	14	11	1	9	1
2106.0625	n/a	STOP	4313216	n/a	LTP341	ltpFR2	22	n/a	n/a	n/a	14	n/a	n/a	n/a	n/a
2107.640625	n/a	WORD	4316448	wordpools/wasnorm_wordpool_576.txt	LTP341	ltpFR2	22	10	FIREPLACE	570	n/a	n/a	0	0	0
2110.17431640625	n/a	WORD	4321637	wordpools/wasnorm_wordpool_576.txt	LTP341	ltpFR2	22	10	SLUG	1329	n/a	n/a	0	0	0
2112.9892578125	n/a	WORD	4327402	wordpools/wasnorm_wordpool_576.txt	LTP341	ltpFR2	22	10	SKIRT	1319	n/a	n/a	0	0	0
2115.77001953125	n/a	WORD	4333097	wordpools/wasnorm_wordpool_576.txt	LTP341	ltpFR2	22	10	BLOCKADE	137	n/a	n/a	0	0	0
2118.22021484375	n/a	WORD	4338115	wordpools/wasnorm_wordpool_576.txt	LTP341	ltpFR2	22	10	HERO	706	n/a	n/a	0	0	0
2120.76806640625	n/a	WORD	4343333	wordpools/wasnorm_wordpool_576.txt	LTP341	ltpFR2	22	10	MEAT	883	n/a	n/a	0	0	0
2123.43310546875	n/a	WORD	4348791	wordpools/wasnorm_wordpool_576.txt	LTP341	ltpFR2	22	10	SCOTCH	1251	n/a	n/a	0	0	0
2126.166015625	n/a	WORD	4354388	wordpools/wasnorm_wordpool_576.txt	LTP341	ltpFR2	22	10	DRINK	498	n/a	n/a	0	0	0
2128.630859375	n/a	WORD	4359436	wordpools/wasnorm_wordpool_576.txt	LTP341	ltpFR2	22	10	BANQUET	86	n/a	n/a	0	0	0
2131.2470703125	n/a	WORD	4364794	wordpools/wasnorm_wordpool_576.txt	LTP341	ltpFR2	22	10	LAKE	796	n/a	n/a	0	0	0
2133.9287109375	n/a	WORD	4370286	wordpools/wasnorm_wordpool_576.txt	LTP341	ltpFR2	22	10	GRILL	661	n/a	n/a	0	0	0
2136.3935546875	n/a	WORD	4375334	wordpools/wasnorm_wordpool_576.txt	LTP341	ltpFR2	22	10	MARROW	872	n/a	n/a	0	0	0
2138.87646484375	n/a	WORD	4380419	wordpools/wasnorm_wordpool_576.txt	LTP341	ltpFR2	22	10	BUREAU	199	n/a	n/a	0	0	0
2141.5576171875	n/a	WORD	4385910	wordpools/wasnorm_wordpool_576.txt	LTP341	ltpFR2	22	10	KNIFE	785	n/a	n/a	0	0	0
2144.25732421875	n/a	WORD	4391439	wordpools/wasnorm_wordpool_576.txt	LTP341	ltpFR2	22	10	SCALPEL	1243	n/a	n/a	0	0	0
2146.87255859375	n/a	WORD	4396795	wordpools/wasnorm_wordpool_576.txt	LTP341	ltpFR2	22	10	VELVET	1555	n/a	n/a	0	0	0
2149.63720703125	n/a	WORD	4402457	wordpools/wasnorm_wordpool_576.txt	LTP341	ltpFR2	22	10	YARN	1631	n/a	n/a	0	0	0
2152.13720703125	n/a	WORD	4407577	wordpools/wasnorm_wordpool_576.txt	LTP341	ltpFR2	22	10	RIVER	1194	n/a	n/a	0	0	0
2154.701171875	n/a	WORD	4412828	wordpools/wasnorm_wordpool_576.txt	LTP341	ltpFR2	22	10	CARROT	249	n/a	n/a	0	0	0
2157.38330078125	n/a	WORD	4418321	wordpools/wasnorm_wordpool_576.txt	LTP341	ltpFR2	22	10	MARS	873	n/a	n/a	0	0	0
2160.033203125	n/a	WORD	4423748	wordpools/wasnorm_wordpool_576.txt	LTP341	ltpFR2	22	10	PERFUME	1049	n/a	n/a	0	0	0
2162.7138671875	n/a	WORD	4429238	wordpools/wasnorm_wordpool_576.txt	LTP341	ltpFR2	22	10	CHAMPAGNE	278	n/a	n/a	0	0	0
2165.14697265625	n/a	WORD	4434221	wordpools/wasnorm_wordpool_576.txt	LTP341	ltpFR2	22	10	SCULPTURE	1258	n/a	n/a	0	0	0
2167.7119140625	n/a	WORD	4439474	wordpools/wasnorm_wordpool_576.txt	LTP341	ltpFR2	22	10	FRAME	600	n/a	n/a	0	0	0
2169.328125	n/a	START	4442784	n/a	LTP341	ltpFR2	22	n/a	n/a	n/a	15	n/a	n/a	n/a	n/a
2170.23291015625	n/a	DISTRACTOR	4444637	n/a	LTP341	ltpFR2	22	10	n/a	n/a	n/a	n/a	0	0	0
2170.2451171875	n/a	PROB	4444662	n/a	LTP341	ltpFR2	22	n/a	n/a	n/a	15	13	9	3	1
2172.22705078125	n/a	PROB	4448721	n/a	LTP341	ltpFR2	22	n/a	n/a	n/a	15	12	3	5	4
2173.8759765625	n/a	PROB	4452098	n/a	LTP341	ltpFR2	22	n/a	n/a	n/a	15	15	5	1	9
2174.8759765625	n/a	PROB	4454146	n/a	LTP341	ltpFR2	22	n/a	n/a	n/a	15	25	9	8	8
2179.90673828125	n/a	PROB	4464449	n/a	LTP341	ltpFR2	22	n/a	n/a	n/a	15	13	3	2	8
2181.10546875	n/a	PROB	4466904	n/a	LTP341	ltpFR2	22	n/a	n/a	n/a	15	13	2	4	7
2182.83740234375	n/a	PROB	4470451	n/a	LTP341	ltpFR2	22	n/a	n/a	n/a	15	16	3	8	5
2184.1875	n/a	PROB	4473216	n/a	LTP341	ltpFR2	22	n/a	n/a	n/a	15	17	6	5	8
2186.1865234375	n/a	PROB	4477310	n/a	LTP341	ltpFR2	22	n/a	n/a	n/a	15	16	7	1	8
2187.4013671875	n/a	PROB	4479798	n/a	LTP341	ltpFR2	22	n/a	n/a	n/a	15	12	1	8	3
2188.30224609375	n/a	PROB	4481643	n/a	LTP341	ltpFR2	22	n/a	n/a	n/a	15	20	6	6	8
2189.517578125	n/a	PROB	4484132	n/a	LTP341	ltpFR2	22	n/a	n/a	n/a	15	12	6	3	3
2190.951171875	n/a	PROB	4487068	n/a	LTP341	ltpFR2	22	n/a	n/a	n/a	15	22	7	7	8
2193.30322265625	n/a	STOP	4491885	n/a	LTP341	ltpFR2	22	n/a	n/a	n/a	15	n/a	n/a	n/a	n/a
2195.1162109375	n/a	REC_START	4495598	n/a	LTP341	ltpFR2	22	10	n/a	n/a	n/a	n/a	0	0	0
2195.42236328125	n/a	REC_WORD	4496225	wordpools/wasnorm_wordpool_576.txt	LTP341	ltpFR2	22	10	CARROT	249	n/a	n/a	0	0	0
2195.81640625	n/a	REC_WORD	4497032	wordpools/wasnorm_wordpool_576.txt	LTP341	ltpFR2	22	10	MARS	873	n/a	n/a	0	0	0
2196.3271484375	n/a	REC_WORD	4498078	wordpools/wasnorm_wordpool_576.txt	LTP341	ltpFR2	22	10	PERFUME	1049	n/a	n/a	0	0	0
2196.79345703125	n/a	REC_WORD	4499033	wordpools/wasnorm_wordpool_576.txt	LTP341	ltpFR2	22	10	CHAMPAGNE	278	n/a	n/a	0	0	0
2200.1123046875	n/a	REC_WORD	4505830	wordpools/wasnorm_wordpool_576.txt	LTP341	ltpFR2	22	10	BANQUET	86	n/a	n/a	0	0	0
2200.75537109375	n/a	REC_WORD	4507147	wordpools/wasnorm_wordpool_576.txt	LTP341	ltpFR2	22	10	GRILL	661	n/a	n/a	0	0	0
2202.5048828125	n/a	REC_WORD	4510730	wordpools/wasnorm_wordpool_576.txt	LTP341	ltpFR2	22	10	SCOTCH	1251	n/a	n/a	0	0	0
2217.1826171875	n/a	REC_WORD	4540790	wordpools/wasnorm_wordpool_576.txt	LTP341	ltpFR2	22	10	YARN	1631	n/a	n/a	0	0	0
2285.537109375	n/a	DISTRACTOR	4680780	n/a	LTP341	ltpFR2	22	11	n/a	n/a	n/a	n/a	0	0	0
2285.537109375	n/a	START	4680780	n/a	LTP341	ltpFR2	22	n/a	n/a	n/a	16	n/a	n/a	n/a	n/a
2285.55419921875	n/a	PROB	4680815	n/a	LTP341	ltpFR2	22	n/a	n/a	n/a	16	17	9	6	2
2287.287109375	n/a	PROB	4684364	n/a	LTP341	ltpFR2	22	n/a	n/a	n/a	16	17	9	1	7
2288.369140625	n/a	PROB	4686580	n/a	LTP341	ltpFR2	22	n/a	n/a	n/a	16	12	8	2	2
2289.302734375	n/a	PROB	4688492	n/a	LTP341	ltpFR2	22	n/a	n/a	n/a	16	14	5	4	5
2290.9189453125	n/a	PROB	4691802	n/a	LTP341	ltpFR2	22	n/a	n/a	n/a	16	12	4	5	3
2292.16796875	n/a	PROB	4694360	n/a	LTP341	ltpFR2	22	n/a	n/a	n/a	16	20	7	4	9
2293.28369140625	n/a	PROB	4696645	n/a	LTP341	ltpFR2	22	n/a	n/a	n/a	16	14	1	4	9
2294.3330078125	n/a	PROB	4698794	n/a	LTP341	ltpFR2	22	n/a	n/a	n/a	16	19	4	7	8
2296.06689453125	n/a	PROB	4702345	n/a	LTP341	ltpFR2	22	n/a	n/a	n/a	16	16	5	6	5
2297.49755859375	n/a	PROB	4705275	n/a	LTP341	ltpFR2	22	n/a	n/a	n/a	16	13	8	2	3
2298.3974609375	n/a	PROB	4707118	n/a	LTP341	ltpFR2	22	n/a	n/a	n/a	16	12	1	4	7
2299.181640625	n/a	PROB	4708724	n/a	LTP341	ltpFR2	22	n/a	n/a	n/a	16	24	7	9	8
2300.9638671875	n/a	PROB	4712374	n/a	LTP341	ltpFR2	22	n/a	n/a	n/a	16	13	3	1	9
2301.82958984375	n/a	PROB	4714147	n/a	LTP341	ltpFR2	22	n/a	n/a	n/a	16	21	5	7	9
2302.77880859375	n/a	PROB	4716091	n/a	LTP341	ltpFR2	22	n/a	n/a	n/a	16	18	6	7	5
2304.21240234375	n/a	PROB	4719027	n/a	LTP341	ltpFR2	22	n/a	n/a	n/a	16	19	8	2	9
2305.12841796875	n/a	PROB	4720903	n/a	LTP341	ltpFR2	22	n/a	n/a	n/a	16	12	2	4	6
2305.978515625	n/a	PROB	4722644	n/a	LTP341	ltpFR2	22	n/a	n/a	n/a	16	21	4	8	9
2307.07763671875	n/a	PROB	4724895	n/a	LTP341	ltpFR2	22	n/a	n/a	n/a	16	26	8	9	9
2308.92724609375	n/a	STOP	4728683	n/a	LTP341	ltpFR2	22	n/a	n/a	n/a	16	n/a	n/a	n/a	n/a
2310.59130859375	n/a	WORD	4732091	wordpools/wasnorm_wordpool_576.txt	LTP341	ltpFR2	22	11	TURKEY	1520	n/a	n/a	0	0	0
2313.37353515625	n/a	WORD	4737789	wordpools/wasnorm_wordpool_576.txt	LTP341	ltpFR2	22	11	BELLY	119	n/a	n/a	0	0	0
2315.873046875	n/a	WORD	4742908	wordpools/wasnorm_wordpool_576.txt	LTP341	ltpFR2	22	11	TABLET	1427	n/a	n/a	0	0	0
2318.404296875	n/a	WORD	4748092	wordpools/wasnorm_wordpool_576.txt	LTP341	ltpFR2	22	11	OINTMENT	974	n/a	n/a	0	0	0
2321.02099609375	n/a	WORD	4753451	wordpools/wasnorm_wordpool_576.txt	LTP341	ltpFR2	22	11	RELISH	1183	n/a	n/a	0	0	0
2323.66796875	n/a	WORD	4758872	wordpools/wasnorm_wordpool_576.txt	LTP341	ltpFR2	22	11	FRAGRANCE	599	n/a	n/a	0	0	0
2326.2021484375	n/a	WORD	4764062	wordpools/wasnorm_wordpool_576.txt	LTP341	ltpFR2	22	11	PEACH	1031	n/a	n/a	0	0	0
2328.73291015625	n/a	WORD	4769245	wordpools/wasnorm_wordpool_576.txt	LTP341	ltpFR2	22	11	DIVER	476	n/a	n/a	0	0	0
2331.5478515625	n/a	WORD	4775010	wordpools/wasnorm_wordpool_576.txt	LTP341	ltpFR2	22	11	GALLON	618	n/a	n/a	0	0	0
2334.0478515625	n/a	WORD	4780130	wordpools/wasnorm_wordpool_576.txt	LTP341	ltpFR2	22	11	BIKE	125	n/a	n/a	0	0	0
2336.794921875	n/a	WORD	4785756	wordpools/wasnorm_wordpool_576.txt	LTP341	ltpFR2	22	11	SANDWICH	1232	n/a	n/a	0	0	0
2339.34375	n/a	WORD	4790976	wordpools/wasnorm_wordpool_576.txt	LTP341	ltpFR2	22	11	CROWN	415	n/a	n/a	0	0	0
2342.12646484375	n/a	WORD	4796675	wordpools/wasnorm_wordpool_576.txt	LTP341	ltpFR2	22	11	TUNNEL	1519	n/a	n/a	0	0	0
2344.7744140625	n/a	WORD	4802098	wordpools/wasnorm_wordpool_576.txt	LTP341	ltpFR2	22	11	FRUIT	610	n/a	n/a	0	0	0
2347.34033203125	n/a	WORD	4807353	wordpools/wasnorm_wordpool_576.txt	LTP341	ltpFR2	22	11	RABBIT	1152	n/a	n/a	0	0	0
2349.9736328125	n/a	WORD	4812746	wordpools/wasnorm_wordpool_576.txt	LTP341	ltpFR2	22	11	DIME	466	n/a	n/a	0	0	0
2352.62158203125	n/a	WORD	4818169	wordpools/wasnorm_wordpool_576.txt	LTP341	ltpFR2	22	11	PLATE	1086	n/a	n/a	0	0	0
2355.30419921875	n/a	WORD	4823663	wordpools/wasnorm_wordpool_576.txt	LTP341	ltpFR2	22	11	BANKER	84	n/a	n/a	0	0	0
2358.01904296875	n/a	WORD	4829223	wordpools/wasnorm_wordpool_576.txt	LTP341	ltpFR2	22	11	BANK	83	n/a	n/a	0	0	0
2360.55029296875	n/a	WORD	4834407	wordpools/wasnorm_wordpool_576.txt	LTP341	ltpFR2	22	11	TEMPLE	1448	n/a	n/a	0	0	0
2363.18310546875	n/a	WORD	4839799	wordpools/wasnorm_wordpool_576.txt	LTP341	ltpFR2	22	11	ROBIN	1199	n/a	n/a	0	0	0
2365.71484375	n/a	WORD	4844984	wordpools/wasnorm_wordpool_576.txt	LTP341	ltpFR2	22	11	SEAGULL	1261	n/a	n/a	0	0	0
2368.18115234375	n/a	WORD	4850035	wordpools/wasnorm_wordpool_576.txt	LTP341	ltpFR2	22	11	TYPIST	1532	n/a	n/a	0	0	0
2370.69482421875	n/a	WORD	4855183	wordpools/wasnorm_wordpool_576.txt	LTP341	ltpFR2	22	11	BUNNY	198	n/a	n/a	0	0	0
2372.31298828125	n/a	START	4858497	n/a	LTP341	ltpFR2	22	n/a	n/a	n/a	17	n/a	n/a	n/a	n/a
2373.291015625	n/a	DISTRACTOR	4860500	n/a	LTP341	ltpFR2	22	11	n/a	n/a	n/a	n/a	0	0	0
2373.294921875	n/a	PROB	4860508	n/a	LTP341	ltpFR2	22	n/a	n/a	n/a	17	12	6	2	4
2377.724609375	n/a	PROB	4869580	n/a	LTP341	ltpFR2	22	n/a	n/a	n/a	17	14	1	7	6
2378.74169921875	n/a	PROB	4871663	n/a	LTP341	ltpFR2	22	n/a	n/a	n/a	17	24	9	8	7
2380.20849609375	n/a	PROB	4874667	n/a	LTP341	ltpFR2	22	n/a	n/a	n/a	17	17	8	8	1
2381.423828125	n/a	PROB	4877156	n/a	LTP341	ltpFR2	22	n/a	n/a	n/a	17	15	6	3	6
2382.73974609375	n/a	PROB	4879851	n/a	LTP341	ltpFR2	22	n/a	n/a	n/a	17	13	4	7	2
2383.73876953125	n/a	PROB	4881897	n/a	LTP341	ltpFR2	22	n/a	n/a	n/a	17	20	6	7	7
2384.95556640625	n/a	PROB	4884389	n/a	LTP341	ltpFR2	22	n/a	n/a	n/a	17	20	3	8	9
2387.2216796875	n/a	PROB	4889030	n/a	LTP341	ltpFR2	22	n/a	n/a	n/a	17	14	1	8	5
2388.28759765625	n/a	PROB	4891213	n/a	LTP341	ltpFR2	22	n/a	n/a	n/a	17	7	1	5	1
2389.45263671875	n/a	PROB	4893599	n/a	LTP341	ltpFR2	22	n/a	n/a	n/a	17	15	1	9	5
2390.2705078125	n/a	PROB	4895274	n/a	LTP341	ltpFR2	22	n/a	n/a	n/a	17	15	8	1	6
2391.119140625	n/a	PROB	4897012	n/a	LTP341	ltpFR2	22	n/a	n/a	n/a	17	17	6	5	6
2392.13525390625	n/a	PROB	4899093	n/a	LTP341	ltpFR2	22	n/a	n/a	n/a	17	16	2	5	9
2393.51708984375	n/a	PROB	4901923	n/a	LTP341	ltpFR2	22	n/a	n/a	n/a	17	10	3	4	3
2395.1201171875	n/a	STOP	4905206	n/a	LTP341	ltpFR2	22	n/a	n/a	n/a	17	n/a	n/a	n/a	n/a
2398.13330078125	n/a	REC_START	4911377	n/a	LTP341	ltpFR2	22	11	n/a	n/a	n/a	n/a	0	0	0
2398.34423828125	n/a	REC_WORD	4911809	wordpools/wasnorm_wordpool_576.txt	LTP341	ltpFR2	22	11	ROBIN	1199	n/a	n/a	0	0	0
2398.89501953125	n/a	REC_WORD	4912937	wordpools/wasnorm_wordpool_576.txt	LTP341	ltpFR2	22	11	SEAGULL	1261	n/a	n/a	0	0	0
2399.6220703125	n/a	REC_WORD	4914426	wordpools/wasnorm_wordpool_576.txt	LTP341	ltpFR2	22	11	TYPIST	1532	n/a	n/a	0	0	0
2400.38232421875	n/a	REC_WORD	4915983	wordpools/wasnorm_wordpool_576.txt	LTP341	ltpFR2	22	11	BUNNY	198	n/a	n/a	0	0	0
2403.5830078125	n/a	REC_WORD	4922538	wordpools/wasnorm_wordpool_576.txt	LTP341	ltpFR2	22	11	RABBIT	1152	n/a	n/a	0	0	0
2404.42919921875	n/a	REC_WORD	4924271	wordpools/wasnorm_wordpool_576.txt	LTP341	ltpFR2	22	11	PLATE	1086	n/a	n/a	0	0	0
2405.701171875	n/a	REC_WORD	4926876	wordpools/wasnorm_wordpool_576.txt	LTP341	ltpFR2	22	11	PEACH	1031	n/a	n/a	0	0	0
2406.2431640625	n/a	REC_WORD	4927986	wordpools/wasnorm_wordpool_576.txt	LTP341	ltpFR2	22	11	FRUIT	610	n/a	n/a	0	0	0
2406.76708984375	n/a	REC_WORD	4929059	wordpools/wasnorm_wordpool_576.txt	LTP341	ltpFR2	22	11	SANDWICH	1232	n/a	n/a	0	0	0
2407.76708984375	n/a	REC_WORD_VV	4931107	wordpools/wasnorm_wordpool_576.txt	LTP341	ltpFR2	22	11	<>	-1	n/a	n/a	0	0	0
2409.080078125	n/a	REC_WORD	4933796	wordpools/wasnorm_wordpool_576.txt	LTP341	ltpFR2	22	11	DIME	466	n/a	n/a	0	0	0
2412.73486328125	n/a	REC_WORD	4941281	wordpools/wasnorm_wordpool_576.txt	LTP341	ltpFR2	22	11	TUNNEL	1519	n/a	n/a	0	0	0
2415.841796875	n/a	REC_WORD	4947644	wordpools/wasnorm_wordpool_576.txt	LTP341	ltpFR2	22	11	TEMPLE	1448	n/a	n/a	0	0	0
2419.4736328125	n/a	REC_WORD	4955082	wordpools/wasnorm_wordpool_576.txt	LTP341	ltpFR2	22	11	BIKE	125	n/a	n/a	0	0	0
2421.20751953125	n/a	REC_WORD	4958633	wordpools/wasnorm_wordpool_576.txt	LTP341	ltpFR2	22	11	BANK	83	n/a	n/a	0	0	0
2421.90771484375	n/a	REC_WORD	4960067	wordpools/wasnorm_wordpool_576.txt	LTP341	ltpFR2	22	11	BANKER	84	n/a	n/a	0	0	0
2428.20068359375	n/a	REC_WORD	4972955	wordpools/wasnorm_wordpool_576.txt	LTP341	ltpFR2	22	11	DIVER	476	n/a	n/a	0	0	0
2488.587890625	n/a	DISTRACTOR	5096628	n/a	LTP341	ltpFR2	22	12	n/a	n/a	n/a	n/a	0	0	0
2488.587890625	n/a	START	5096628	n/a	LTP341	ltpFR2	22	n/a	n/a	n/a	18	n/a	n/a	n/a	n/a
2488.60400390625	n/a	PROB	5096661	n/a	LTP341	ltpFR2	22	n/a	n/a	n/a	18	22	7	8	7
2492.28662109375	n/a	PROB	5104203	n/a	LTP341	ltpFR2	22	n/a	n/a	n/a	18	17	4	9	4
2493.51904296875	n/a	PROB	5106727	n/a	LTP341	ltpFR2	22	n/a	n/a	n/a	18	10	1	6	3
2494.40185546875	n/a	PROB	5108535	n/a	LTP341	ltpFR2	22	n/a	n/a	n/a	18	22	7	6	9
2496.23486328125	n/a	PROB	5112289	n/a	LTP341	ltpFR2	22	n/a	n/a	n/a	18	17	7	7	3
2497.25048828125	n/a	PROB	5114369	n/a	LTP341	ltpFR2	22	n/a	n/a	n/a	18	6	1	2	3
2498.2177734375	n/a	PROB	5116350	n/a	LTP341	ltpFR2	22	n/a	n/a	n/a	18	12	5	2	5
2499.1337890625	n/a	PROB	5118226	n/a	LTP341	ltpFR2	22	n/a	n/a	n/a	18	15	9	9	3
2500.16650390625	n/a	PROB	5120341	n/a	LTP341	ltpFR2	22	n/a	n/a	n/a	18	6	3	1	2
2501.265625	n/a	PROB	5122592	n/a	LTP341	ltpFR2	22	n/a	n/a	n/a	18	18	1	8	9
2502.2158203125	n/a	PROB	5124538	n/a	LTP341	ltpFR2	22	n/a	n/a	n/a	18	18	7	3	8
2504.62939453125	n/a	PROB	5129481	n/a	LTP341	ltpFR2	22	n/a	n/a	n/a	18	20	3	8	9
2505.96337890625	n/a	PROB	5132213	n/a	LTP341	ltpFR2	22	n/a	n/a	n/a	18	19	1	9	9
2506.82861328125	n/a	PROB	5133985	n/a	LTP341	ltpFR2	22	n/a	n/a	n/a	18	11	4	4	3
2508.0126953125	n/a	PROB	5136410	n/a	LTP341	ltpFR2	22	n/a	n/a	n/a	18	19	4	7	8
2509.74365234375	n/a	PROB	5139955	n/a	LTP341	ltpFR2	22	n/a	n/a	n/a	18	14	3	3	8
2511.1533203125	n/a	STOP	5142842	n/a	LTP341	ltpFR2	22	n/a	n/a	n/a	18	n/a	n/a	n/a	n/a
2513.45849609375	n/a	WORD	5147563	wordpools/wasnorm_wordpool_576.txt	LTP341	ltpFR2	22	12	SUMMIT	1405	n/a	n/a	0	0	0
2516.0751953125	n/a	WORD	5152922	wordpools/wasnorm_wordpool_576.txt	LTP341	ltpFR2	22	12	SCARECROW	1245	n/a	n/a	0	0	0
2518.7060546875	n/a	WORD	5158310	wordpools/wasnorm_wordpool_576.txt	LTP341	ltpFR2	22	12	FOX	598	n/a	n/a	0	0	0
2521.25634765625	n/a	WORD	5163533	wordpools/wasnorm_wordpool_576.txt	LTP341	ltpFR2	22	12	MATCH	878	n/a	n/a	0	0	0
2523.75390625	n/a	WORD	5168648	wordpools/wasnorm_wordpool_576.txt	LTP341	ltpFR2	22	12	BEAST	108	n/a	n/a	0	0	0
2526.23681640625	n/a	WORD	5173733	wordpools/wasnorm_wordpool_576.txt	LTP341	ltpFR2	22	12	BISON	131	n/a	n/a	0	0	0
2528.85205078125	n/a	WORD	5179089	wordpools/wasnorm_wordpool_576.txt	LTP341	ltpFR2	22	12	DUST	508	n/a	n/a	0	0	0
2531.31689453125	n/a	WORD	5184137	wordpools/wasnorm_wordpool_576.txt	LTP341	ltpFR2	22	12	PARTNER	1017	n/a	n/a	0	0	0
2533.81591796875	n/a	WORD	5189255	wordpools/wasnorm_wordpool_576.txt	LTP341	ltpFR2	22	12	DENIM	446	n/a	n/a	0	0	0
2536.298828125	n/a	WORD	5194340	wordpools/wasnorm_wordpool_576.txt	LTP341	ltpFR2	22	12	CYCLONE	431	n/a	n/a	0	0	0
2538.796875	n/a	WORD	5199456	wordpools/wasnorm_wordpool_576.txt	LTP341	ltpFR2	22	12	PROTON	1132	n/a	n/a	0	0	0
2541.36181640625	n/a	WORD	5204709	wordpools/wasnorm_wordpool_576.txt	LTP341	ltpFR2	22	12	FREEZER	604	n/a	n/a	0	0	0
2543.978515625	n/a	WORD	5210068	wordpools/wasnorm_wordpool_576.txt	LTP341	ltpFR2	22	12	TRIBE	1505	n/a	n/a	0	0	0
2546.775390625	n/a	WORD	5215796	wordpools/wasnorm_wordpool_576.txt	LTP341	ltpFR2	22	12	BLACKBOARD	133	n/a	n/a	0	0	0
2549.5576171875	n/a	WORD	5221494	wordpools/wasnorm_wordpool_576.txt	LTP341	ltpFR2	22	12	COURSE	390	n/a	n/a	0	0	0
2552.37353515625	n/a	WORD	5227261	wordpools/wasnorm_wordpool_576.txt	LTP341	ltpFR2	22	12	BUCKET	184	n/a	n/a	0	0	0
2554.9892578125	n/a	WORD	5232618	wordpools/wasnorm_wordpool_576.txt	LTP341	ltpFR2	22	12	LAPEL	800	n/a	n/a	0	0	0
2557.58740234375	n/a	WORD	5237939	wordpools/wasnorm_wordpool_576.txt	LTP341	ltpFR2	22	12	ORANGE	980	n/a	n/a	0	0	0
2560.05322265625	n/a	WORD	5242989	wordpools/wasnorm_wordpool_576.txt	LTP341	ltpFR2	22	12	SHORTCAKE	1292	n/a	n/a	0	0	0
2562.60107421875	n/a	WORD	5248207	wordpools/wasnorm_wordpool_576.txt	LTP341	ltpFR2	22	12	ATOM	55	n/a	n/a	0	0	0
2565.2509765625	n/a	WORD	5253634	wordpools/wasnorm_wordpool_576.txt	LTP341	ltpFR2	22	12	LODGE	839	n/a	n/a	0	0	0
2568.01611328125	n/a	WORD	5259297	wordpools/wasnorm_wordpool_576.txt	LTP341	ltpFR2	22	12	ARMY	39	n/a	n/a	0	0	0
2570.61376953125	n/a	WORD	5264617	wordpools/wasnorm_wordpool_576.txt	LTP341	ltpFR2	22	12	DRILL	497	n/a	n/a	0	0	0
2573.23095703125	n/a	WORD	5269977	wordpools/wasnorm_wordpool_576.txt	LTP341	ltpFR2	22	12	FINGER	567	n/a	n/a	0	0	0
2574.8466796875	n/a	START	5273286	n/a	LTP341	ltpFR2	22	n/a	n/a	n/a	19	n/a	n/a	n/a	n/a
2575.7216796875	n/a	DISTRACTOR	5275078	n/a	LTP341	ltpFR2	22	12	n/a	n/a	n/a	n/a	0	0	0
2575.7275390625	n/a	PROB	5275090	n/a	LTP341	ltpFR2	22	n/a	n/a	n/a	19	12	2	4	8
2577.89453125	n/a	PROB	5279528	n/a	LTP341	ltpFR2	22	n/a	n/a	n/a	19	9	6	1	2
2578.8779296875	n/a	PROB	5281542	n/a	LTP341	ltpFR2	22	n/a	n/a	n/a	19	13	4	8	1
2579.87646484375	n/a	PROB	5283587	n/a	LTP341	ltpFR2	22	n/a	n/a	n/a	19	21	5	9	7
2581.92578125	n/a	PROB	5287784	n/a	LTP341	ltpFR2	22	n/a	n/a	n/a	19	19	9	6	4
2582.99267578125	n/a	PROB	5289969	n/a	LTP341	ltpFR2	22	n/a	n/a	n/a	19	19	8	8	3
2584.62353515625	n/a	PROB	5293309	n/a	LTP341	ltpFR2	22	n/a	n/a	n/a	19	22	9	7	7
2586.572265625	n/a	PROB	5297300	n/a	LTP341	ltpFR2	22	n/a	n/a	n/a	19	18	7	6	5
2588.2236328125	n/a	PROB	5300682	n/a	LTP341	ltpFR2	22	n/a	n/a	n/a	19	10	4	5	1
2589.2392578125	n/a	PROB	5302762	n/a	LTP341	ltpFR2	22	n/a	n/a	n/a	19	8	1	6	1
2590.12255859375	n/a	PROB	5304571	n/a	LTP341	ltpFR2	22	n/a	n/a	n/a	19	16	8	7	1
2591.23828125	n/a	PROB	5306856	n/a	LTP341	ltpFR2	22	n/a	n/a	n/a	19	20	9	7	4
2592.486328125	n/a	PROB	5309412	n/a	LTP341	ltpFR2	22	n/a	n/a	n/a	19	11	1	9	1
2593.38623046875	n/a	PROB	5311255	n/a	LTP341	ltpFR2	22	n/a	n/a	n/a	19	1	4	3	5
2594.4521484375	n/a	PROB	5313438	n/a	LTP341	ltpFR2	22	n/a	n/a	n/a	19	15	6	4	5
2595.4853515625	n/a	PROB	5315554	n/a	LTP341	ltpFR2	22	n/a	n/a	n/a	19	16	4	7	5
2596.85205078125	n/a	PROB	5318353	n/a	LTP341	ltpFR2	22	n/a	n/a	n/a	19	16	4	4	6
2597.9052734375	n/a	STOP	5320510	n/a	LTP341	ltpFR2	22	n/a	n/a	n/a	19	n/a	n/a	n/a	n/a
2600.666015625	n/a	REC_START	5326164	n/a	LTP341	ltpFR2	22	12	n/a	n/a	n/a	n/a	0	0	0
2601.10205078125	n/a	REC_WORD	5327057	wordpools/wasnorm_wordpool_576.txt	LTP341	ltpFR2	22	12	ARMY	39	n/a	n/a	0	0	0
2601.611328125	n/a	REC_WORD	5328100	wordpools/wasnorm_wordpool_576.txt	LTP341	ltpFR2	22	12	DRILL	497	n/a	n/a	0	0	0
2601.97314453125	n/a	REC_WORD	5328841	wordpools/wasnorm_wordpool_576.txt	LTP341	ltpFR2	22	12	FINGER	567	n/a	n/a	0	0	0
2602.56787109375	n/a	REC_WORD	5330059	wordpools/wasnorm_wordpool_576.txt	LTP341	ltpFR2	22	12	ATOM	55	n/a	n/a	0	0	0
2604.98291015625	n/a	REC_WORD	5335005	wordpools/wasnorm_wordpool_576.txt	LTP341	ltpFR2	22	12	SUMMIT	1405	n/a	n/a	0	0	0
2615.6328125	n/a	REC_WORD	5356816	wordpools/wasnorm_wordpool_576.txt	LTP341	ltpFR2	22	12	FOX	598	n/a	n/a	0	0	0
2616.888671875	n/a	REC_WORD	5359388	wordpools/wasnorm_wordpool_576.txt	LTP341	ltpFR2	22	12	BEAST	108	n/a	n/a	0	0	0
2617.74267578125	n/a	REC_WORD	5361137	wordpools/wasnorm_wordpool_576.txt	LTP341	ltpFR2	22	12	BISON	131	n/a	n/a	0	0	0
2620.15576171875	n/a	REC_WORD	5366079	wordpools/wasnorm_wordpool_576.txt	LTP341	ltpFR2	22	12	PARTNER	1017	n/a	n/a	0	0	0
2620.80078125	n/a	REC_WORD	5367400	wordpools/wasnorm_wordpool_576.txt	LTP341	ltpFR2	22	12	CYCLONE	431	n/a	n/a	0	0	0
2621.8408203125	n/a	REC_WORD	5369530	wordpools/wasnorm_wordpool_576.txt	LTP341	ltpFR2	22	12	DENIM	446	n/a	n/a	0	0	0
2622.53271484375	n/a	REC_WORD	5370947	wordpools/wasnorm_wordpool_576.txt	LTP341	ltpFR2	22	12	PROTON	1132	n/a	n/a	0	0	0
2623.30078125	n/a	REC_WORD	5372520	wordpools/wasnorm_wordpool_576.txt	LTP341	ltpFR2	22	12	FREEZE	-1	n/a	n/a	0	0	0
2624.45947265625	n/a	REC_WORD	5374893	wordpools/wasnorm_wordpool_576.txt	LTP341	ltpFR2	22	12	FREEZER	604	n/a	n/a	0	0	0
2628.021484375	n/a	REC_WORD	5382188	wordpools/wasnorm_wordpool_576.txt	LTP341	ltpFR2	22	12	TRIBE	1505	n/a	n/a	0	0	0
2628.71337890625	n/a	REC_WORD	5383605	wordpools/wasnorm_wordpool_576.txt	LTP341	ltpFR2	22	12	ARMY	39	n/a	n/a	0	0	0
2631.04150390625	n/a	REC_WORD	5388373	wordpools/wasnorm_wordpool_576.txt	LTP341	ltpFR2	22	12	BUCKET	184	n/a	n/a	0	0	0
2632.115234375	n/a	REC_WORD	5390572	wordpools/wasnorm_wordpool_576.txt	LTP341	ltpFR2	22	12	ORANGE	980	n/a	n/a	0	0	0
2633.4521484375	n/a	REC_WORD	5393310	wordpools/wasnorm_wordpool_576.txt	LTP341	ltpFR2	22	12	SHORTCAKE	1292	n/a	n/a	0	0	0
2691.123046875	n/a	WORD	5511420	wordpools/wasnorm_wordpool_576.txt	LTP341	ltpFR2	22	13	TROUT	1511	n/a	n/a	0	0	0
2693.837890625	n/a	WORD	5516980	wordpools/wasnorm_wordpool_576.txt	LTP341	ltpFR2	22	13	SALMON	1227	n/a	n/a	0	0	0
2696.53564453125	n/a	WORD	5522505	wordpools/wasnorm_wordpool_576.txt	LTP341	ltpFR2	22	13	QUAIL	1147	n/a	n/a	0	0	0
2699.0185546875	n/a	WORD	5527590	wordpools/wasnorm_wordpool_576.txt	LTP341	ltpFR2	22	13	BOX	159	n/a	n/a	0	0	0
2701.83349609375	n/a	WORD	5533355	wordpools/wasnorm_wordpool_576.txt	LTP341	ltpFR2	22	13	WAITRESS	1581	n/a	n/a	0	0	0
2704.41455078125	n/a	WORD	5538641	wordpools/wasnorm_wordpool_576.txt	LTP341	ltpFR2	22	13	FRIAR	605	n/a	n/a	0	0	0
2707.21435546875	n/a	WORD	5544375	wordpools/wasnorm_wordpool_576.txt	LTP341	ltpFR2	22	13	GROUND	666	n/a	n/a	0	0	0
2709.6953125	n/a	WORD	5549456	wordpools/wasnorm_wordpool_576.txt	LTP341	ltpFR2	22	13	FIREMAN	569	n/a	n/a	0	0	0
2712.3115234375	n/a	WORD	5554814	wordpools/wasnorm_wordpool_576.txt	LTP341	ltpFR2	22	13	CUPBOARD	425	n/a	n/a	0	0	0
2715.1103515625	n/a	WORD	5560546	wordpools/wasnorm_wordpool_576.txt	LTP341	ltpFR2	22	13	SERVANT	1271	n/a	n/a	0	0	0
2717.7919921875	n/a	WORD	5566038	wordpools/wasnorm_wordpool_576.txt	LTP341	ltpFR2	22	13	PEANUT	1032	n/a	n/a	0	0	0
2720.57421875	n/a	WORD	5571736	wordpools/wasnorm_wordpool_576.txt	LTP341	ltpFR2	22	13	SLIDE	1326	n/a	n/a	0	0	0
2723.0732421875	n/a	WORD	5576854	wordpools/wasnorm_wordpool_576.txt	LTP341	ltpFR2	22	13	CHAUFFEUR	283	n/a	n/a	0	0	0
2725.80419921875	n/a	WORD	5582447	wordpools/wasnorm_wordpool_576.txt	LTP341	ltpFR2	22	13	RUST	1219	n/a	n/a	0	0	0
2728.6201171875	n/a	WORD	5588214	wordpools/wasnorm_wordpool_576.txt	LTP341	ltpFR2	22	13	HARP	689	n/a	n/a	0	0	0
2731.4189453125	n/a	WORD	5593946	wordpools/wasnorm_wordpool_576.txt	LTP341	ltpFR2	22	13	NURSE	963	n/a	n/a	0	0	0
2734.2177734375	n/a	WORD	5599678	wordpools/wasnorm_wordpool_576.txt	LTP341	ltpFR2	22	13	PAIL	1002	n/a	n/a	0	0	0
2736.798828125	n/a	WORD	5604964	wordpools/wasnorm_wordpool_576.txt	LTP341	ltpFR2	22	13	FIDDLE	561	n/a	n/a	0	0	0
2739.61474609375	n/a	WORD	5610731	wordpools/wasnorm_wordpool_576.txt	LTP341	ltpFR2	22	13	TRENCH	1503	n/a	n/a	0	0	0
2742.396484375	n/a	WORD	5616428	wordpools/wasnorm_wordpool_576.txt	LTP341	ltpFR2	22	13	HAND	683	n/a	n/a	0	0	0
2745.0625	n/a	WORD	5621888	wordpools/wasnorm_wordpool_576.txt	LTP341	ltpFR2	22	13	HIKER	708	n/a	n/a	0	0	0
2747.71044921875	n/a	WORD	5627311	wordpools/wasnorm_wordpool_576.txt	LTP341	ltpFR2	22	13	SAUSAGE	1238	n/a	n/a	0	0	0
2750.16064453125	n/a	WORD	5632329	wordpools/wasnorm_wordpool_576.txt	LTP341	ltpFR2	22	13	SHOVEL	1295	n/a	n/a	0	0	0
2752.859375	n/a	WORD	5637856	wordpools/wasnorm_wordpool_576.txt	LTP341	ltpFR2	22	13	HEDGE	699	n/a	n/a	0	0	0
2754.47412109375	n/a	START	5641163	n/a	LTP341	ltpFR2	22	n/a	n/a	n/a	20	n/a	n/a	n/a	n/a
2755.2880859375	n/a	DISTRACTOR	5642830	n/a	LTP341	ltpFR2	22	13	n/a	n/a	n/a	n/a	0	0	0
2755.29150390625	n/a	PROB	5642837	n/a	LTP341	ltpFR2	22	n/a	n/a	n/a	20	19	5	5	9
2757.50537109375	n/a	PROB	5647371	n/a	LTP341	ltpFR2	22	n/a	n/a	n/a	20	15	1	9	5
2758.50537109375	n/a	PROB	5649419	n/a	LTP341	ltpFR2	22	n/a	n/a	n/a	20	10	5	2	3
2759.75439453125	n/a	PROB	5651977	n/a	LTP341	ltpFR2	22	n/a	n/a	n/a	20	21	9	4	8
2761.703125	n/a	PROB	5655968	n/a	LTP341	ltpFR2	22	n/a	n/a	n/a	20	17	4	6	7
2762.736328125	n/a	PROB	5658084	n/a	LTP341	ltpFR2	22	n/a	n/a	n/a	20	18	4	9	5
2764.501953125	n/a	PROB	5661700	n/a	LTP341	ltpFR2	22	n/a	n/a	n/a	20	19	4	7	8
2765.48486328125	n/a	PROB	5663713	n/a	LTP341	ltpFR2	22	n/a	n/a	n/a	20	14	4	4	7
2766.93505859375	n/a	PROB	5666683	n/a	LTP341	ltpFR2	22	n/a	n/a	n/a	20	7	1	4	2
2768.716796875	n/a	PROB	5670332	n/a	LTP341	ltpFR2	22	n/a	n/a	n/a	20	17	5	4	8
2769.9169921875	n/a	PROB	5672790	n/a	LTP341	ltpFR2	22	n/a	n/a	n/a	20	13	1	5	7
2770.86669921875	n/a	PROB	5674735	n/a	LTP341	ltpFR2	22	n/a	n/a	n/a	20	8	3	3	2
2771.916015625	n/a	PROB	5676884	n/a	LTP341	ltpFR2	22	n/a	n/a	n/a	20	9	3	4	2
2774.84765625	n/a	PROB	5682888	n/a	LTP341	ltpFR2	22	n/a	n/a	n/a	20	14	4	9	1
2775.83056640625	n/a	PROB	5684901	n/a	LTP341	ltpFR2	22	n/a	n/a	n/a	20	9	1	3	5
2776.712890625	n/a	PROB	5686708	n/a	LTP341	ltpFR2	22	n/a	n/a	n/a	20	16	9	6	1
2777.89892578125	n/a	STOP	5689137	n/a	LTP341	ltpFR2	22	n/a	n/a	n/a	20	n/a	n/a	n/a	n/a
2780.39453125	n/a	REC_START	5694248	n/a	LTP341	ltpFR2	22	13	n/a	n/a	n/a	n/a	0	0	0
2780.86376953125	n/a	REC_WORD	5695209	wordpools/wasnorm_wordpool_576.txt	LTP341	ltpFR2	22	13	HEDGE	699	n/a	n/a	0	0	0
2781.390625	n/a	REC_WORD	5696288	wordpools/wasnorm_wordpool_576.txt	LTP341	ltpFR2	22	13	HIKER	708	n/a	n/a	0	0	0
2781.9677734375	n/a	REC_WORD	5697470	wordpools/wasnorm_wordpool_576.txt	LTP341	ltpFR2	22	13	SAUSAGE	1238	n/a	n/a	0	0	0
2784.79736328125	n/a	REC_WORD	5703265	wordpools/wasnorm_wordpool_576.txt	LTP341	ltpFR2	22	13	TROUT	1511	n/a	n/a	0	0	0
2785.271484375	n/a	REC_WORD	5704236	wordpools/wasnorm_wordpool_576.txt	LTP341	ltpFR2	22	13	SALMON	1227	n/a	n/a	0	0	0
2786.21630859375	n/a	REC_WORD	5706171	wordpools/wasnorm_wordpool_576.txt	LTP341	ltpFR2	22	13	QUAIL	1147	n/a	n/a	0	0	0
2786.90234375	n/a	REC_WORD	5707576	wordpools/wasnorm_wordpool_576.txt	LTP341	ltpFR2	22	13	BOX	159	n/a	n/a	0	0	0
2789.486328125	n/a	REC_WORD	5712868	wordpools/wasnorm_wordpool_576.txt	LTP341	ltpFR2	22	13	GROUND	666	n/a	n/a	0	0	0
2789.91650390625	n/a	REC_WORD	5713749	wordpools/wasnorm_wordpool_576.txt	LTP341	ltpFR2	22	13	FRIAR	605	n/a	n/a	0	0	0
2791.7021484375	n/a	REC_WORD	5717406	wordpools/wasnorm_wordpool_576.txt	LTP341	ltpFR2	22	13	WAITRESS	1581	n/a	n/a	0	0	0
2792.7021484375	n/a	REC_WORD_VV	5719454	wordpools/wasnorm_wordpool_576.txt	LTP341	ltpFR2	22	13	<>	-1	n/a	n/a	0	0	0
2870.8515625	n/a	DISTRACTOR	5879504	n/a	LTP341	ltpFR2	22	14	n/a	n/a	n/a	n/a	0	0	0
2870.8515625	n/a	START	5879504	n/a	LTP341	ltpFR2	22	n/a	n/a	n/a	21	n/a	n/a	n/a	n/a
2870.8671875	n/a	PROB	5879536	n/a	LTP341	ltpFR2	22	n/a	n/a	n/a	21	17	9	7	1
2872.31640625	n/a	PROB	5882504	n/a	LTP341	ltpFR2	22	n/a	n/a	n/a	21	14	7	2	5
2873.74853515625	n/a	PROB	5885437	n/a	LTP341	ltpFR2	22	n/a	n/a	n/a	21	21	9	6	6
2874.83251953125	n/a	PROB	5887657	n/a	LTP341	ltpFR2	22	n/a	n/a	n/a	21	2	9	6	8
2876.08203125	n/a	PROB	5890216	n/a	LTP341	ltpFR2	22	n/a	n/a	n/a	21	22	6	9	7
2877.947265625	n/a	PROB	5894036	n/a	LTP341	ltpFR2	22	n/a	n/a	n/a	21	17	5	3	9
2879.1630859375	n/a	PROB	5896526	n/a	LTP341	ltpFR2	22	n/a	n/a	n/a	21	18	3	5	9
2880.578125	n/a	PROB	5899424	n/a	LTP341	ltpFR2	22	n/a	n/a	n/a	21	6	4	1	1
2881.67822265625	n/a	PROB	5901677	n/a	LTP341	ltpFR2	22	n/a	n/a	n/a	21	22	6	7	9
2882.912109375	n/a	PROB	5904204	n/a	LTP341	ltpFR2	22	n/a	n/a	n/a	21	11	3	5	3
2884.09521484375	n/a	PROB	5906627	n/a	LTP341	ltpFR2	22	n/a	n/a	n/a	21	20	9	6	5
2885.6259765625	n/a	PROB	5909762	n/a	LTP341	ltpFR2	22	n/a	n/a	n/a	21	13	2	2	9
2886.60888671875	n/a	PROB	5911775	n/a	LTP341	ltpFR2	22	n/a	n/a	n/a	21	21	7	5	9
2887.97607421875	n/a	PROB	5914575	n/a	LTP341	ltpFR2	22	n/a	n/a	n/a	21	13	5	5	3
2888.97607421875	n/a	PROB	5916623	n/a	LTP341	ltpFR2	22	n/a	n/a	n/a	21	15	8	4	3
2890.73974609375	n/a	PROB	5920235	n/a	LTP341	ltpFR2	22	n/a	n/a	n/a	21	8	3	4	2
2891.89111328125	n/a	PROB	5922593	n/a	LTP341	ltpFR2	22	n/a	n/a	n/a	21	14	5	7	2
2893.07373046875	n/a	PROB	5925015	n/a	LTP341	ltpFR2	22	n/a	n/a	n/a	21	19	6	6	7
2894.76171875	n/a	STOP	5928472	n/a	LTP341	ltpFR2	22	n/a	n/a	n/a	21	n/a	n/a	n/a	n/a
2895.9716796875	n/a	WORD	5930950	wordpools/wasnorm_wordpool_576.txt	LTP341	ltpFR2	22	14	SPACE	1345	n/a	n/a	0	0	0
2898.40380859375	n/a	WORD	5935931	wordpools/wasnorm_wordpool_576.txt	LTP341	ltpFR2	22	14	POSTAGE	1113	n/a	n/a	0	0	0
2901.20263671875	n/a	WORD	5941663	wordpools/wasnorm_wordpool_576.txt	LTP341	ltpFR2	22	14	LAGOON	795	n/a	n/a	0	0	0
2903.9345703125	n/a	WORD	5947258	wordpools/wasnorm_wordpool_576.txt	LTP341	ltpFR2	22	14	YACHT	1629	n/a	n/a	0	0	0
2906.63232421875	n/a	WORD	5952783	wordpools/wasnorm_wordpool_576.txt	LTP341	ltpFR2	22	14	STAPLE	1371	n/a	n/a	0	0	0
2909.21533203125	n/a	WORD	5958073	wordpools/wasnorm_wordpool_576.txt	LTP341	ltpFR2	22	14	MESSAGE	888	n/a	n/a	0	0	0
2911.68017578125	n/a	WORD	5963121	wordpools/wasnorm_wordpool_576.txt	LTP341	ltpFR2	22	14	VICTIM	1562	n/a	n/a	0	0	0
2914.37841796875	n/a	WORD	5968647	wordpools/wasnorm_wordpool_576.txt	LTP341	ltpFR2	22	14	CANYON	235	n/a	n/a	0	0	0
2916.828125	n/a	WORD	5973664	wordpools/wasnorm_wordpool_576.txt	LTP341	ltpFR2	22	14	SLOPE	1328	n/a	n/a	0	0	0
2919.326171875	n/a	WORD	5978780	wordpools/wasnorm_wordpool_576.txt	LTP341	ltpFR2	22	14	CONTRACT	368	n/a	n/a	0	0	0
2922.0419921875	n/a	WORD	5984342	wordpools/wasnorm_wordpool_576.txt	LTP341	ltpFR2	22	14	COUCH	386	n/a	n/a	0	0	0
2924.5068359375	n/a	WORD	5989390	wordpools/wasnorm_wordpool_576.txt	LTP341	ltpFR2	22	14	MARINE	869	n/a	n/a	0	0	0
2926.95703125	n/a	WORD	5994408	wordpools/wasnorm_wordpool_576.txt	LTP341	ltpFR2	22	14	DANDRUFF	439	n/a	n/a	0	0	0
2929.7548828125	n/a	WORD	6000138	wordpools/wasnorm_wordpool_576.txt	LTP341	ltpFR2	22	14	CHEST	295	n/a	n/a	0	0	0
2932.2880859375	n/a	WORD	6005326	wordpools/wasnorm_wordpool_576.txt	LTP341	ltpFR2	22	14	LIGHTNING	820	n/a	n/a	0	0	0
2934.98681640625	n/a	WORD	6010853	wordpools/wasnorm_wordpool_576.txt	LTP341	ltpFR2	22	14	OYSTER	995	n/a	n/a	0	0	0
2937.65087890625	n/a	WORD	6016309	wordpools/wasnorm_wordpool_576.txt	LTP341	ltpFR2	22	14	SUBWAY	1400	n/a	n/a	0	0	0
2940.3154296875	n/a	WORD	6021766	wordpools/wasnorm_wordpool_576.txt	LTP341	ltpFR2	22	14	SCALLOP	1242	n/a	n/a	0	0	0
2943.1328125	n/a	WORD	6027536	wordpools/wasnorm_wordpool_576.txt	LTP341	ltpFR2	22	14	GARDEN	623	n/a	n/a	0	0	0
2945.8134765625	n/a	WORD	6033026	wordpools/wasnorm_wordpool_576.txt	LTP341	ltpFR2	22	14	SEAFOOD	1260	n/a	n/a	0	0	0
2948.24658203125	n/a	WORD	6038009	wordpools/wasnorm_wordpool_576.txt	LTP341	ltpFR2	22	14	BROOK	177	n/a	n/a	0	0	0
2950.978515625	n/a	WORD	6043604	wordpools/wasnorm_wordpool_576.txt	LTP341	ltpFR2	22	14	WHISTLE	1606	n/a	n/a	0	0	0
2953.609375	n/a	WORD	6048992	wordpools/wasnorm_wordpool_576.txt	LTP341	ltpFR2	22	14	NIGHTGOWN	953	n/a	n/a	0	0	0
2956.17626953125	n/a	WORD	6054249	wordpools/wasnorm_wordpool_576.txt	LTP341	ltpFR2	22	14	EXPERT	543	n/a	n/a	0	0	0
2957.791015625	n/a	START	6057556	n/a	LTP341	ltpFR2	22	n/a	n/a	n/a	22	n/a	n/a	n/a	n/a
2958.81640625	n/a	DISTRACTOR	6059656	n/a	LTP341	ltpFR2	22	14	n/a	n/a	n/a	n/a	0	0	0
2958.82421875	n/a	PROB	6059672	n/a	LTP341	ltpFR2	22	n/a	n/a	n/a	22	15	4	7	3
2960.97314453125	n/a	PROB	6064073	n/a	LTP341	ltpFR2	22	n/a	n/a	n/a	22	18	5	4	9
2962.02294921875	n/a	PROB	6066223	n/a	LTP341	ltpFR2	22	n/a	n/a	n/a	22	14	5	6	3
2963.55419921875	n/a	PROB	6069359	n/a	LTP341	ltpFR2	22	n/a	n/a	n/a	22	25	7	9	9
2965.98779296875	n/a	PROB	6074343	n/a	LTP341	ltpFR2	22	n/a	n/a	n/a	22	13	4	8	1
2966.87109375	n/a	PROB	6076152	n/a	LTP341	ltpFR2	22	n/a	n/a	n/a	22	11	6	1	4
2967.98681640625	n/a	PROB	6078437	n/a	LTP341	ltpFR2	22	n/a	n/a	n/a	22	8	1	4	3
2968.98583984375	n/a	PROB	6080483	n/a	LTP341	ltpFR2	22	n/a	n/a	n/a	22	15	7	4	5
2970.0859375	n/a	PROB	6082736	n/a	LTP341	ltpFR2	22	n/a	n/a	n/a	22	17	4	7	6
2972.28466796875	n/a	PROB	6087239	n/a	LTP341	ltpFR2	22	n/a	n/a	n/a	22	22	8	7	7
2973.61572265625	n/a	PROB	6089965	n/a	LTP341	ltpFR2	22	n/a	n/a	n/a	22	21	9	5	7
2975.53173828125	n/a	PROB	6093889	n/a	LTP341	ltpFR2	22	n/a	n/a	n/a	22	16	9	5	2
2977.11572265625	n/a	PROB	6097133	n/a	LTP341	ltpFR2	22	n/a	n/a	n/a	22	20	9	6	5
2978.2646484375	n/a	PROB	6099486	n/a	LTP341	ltpFR2	22	n/a	n/a	n/a	22	8	1	4	3
2979.21484375	n/a	PROB	6101432	n/a	LTP341	ltpFR2	22	n/a	n/a	n/a	22	10	1	3	6
2980.1474609375	n/a	PROB	6103342	n/a	LTP341	ltpFR2	22	n/a	n/a	n/a	22	11	1	7	3
2980.98779296875	n/a	STOP	6105063	n/a	LTP341	ltpFR2	22	n/a	n/a	n/a	22	n/a	n/a	n/a	n/a
2983.54541015625	n/a	REC_START	6110301	n/a	LTP341	ltpFR2	22	14	n/a	n/a	n/a	n/a	0	0	0
2983.74755859375	n/a	REC_WORD	6110715	wordpools/wasnorm_wordpool_576.txt	LTP341	ltpFR2	22	14	SCALLOP	1242	n/a	n/a	0	0	0
2984.29150390625	n/a	REC_WORD	6111829	wordpools/wasnorm_wordpool_576.txt	LTP341	ltpFR2	22	14	SEAFOOD	1260	n/a	n/a	0	0	0
2985.50732421875	n/a	REC_WORD	6114319	wordpools/wasnorm_wordpool_576.txt	LTP341	ltpFR2	22	14	BROOK	177	n/a	n/a	0	0	0
2986.19140625	n/a	REC_WORD	6115720	wordpools/wasnorm_wordpool_576.txt	LTP341	ltpFR2	22	14	WHISTLE	1606	n/a	n/a	0	0	0
2987.4404296875	n/a	REC_WORD	6118278	wordpools/wasnorm_wordpool_576.txt	LTP341	ltpFR2	22	14	NIGHTGOWN	953	n/a	n/a	0	0	0
2988.4404296875	n/a	REC_WORD_VV	6120326	wordpools/wasnorm_wordpool_576.txt	LTP341	ltpFR2	22	14	<>	-1	n/a	n/a	0	0	0
2988.70751953125	n/a	REC_WORD	6120873	wordpools/wasnorm_wordpool_576.txt	LTP341	ltpFR2	22	14	EXPERT	543	n/a	n/a	0	0	0
2993.53125	n/a	REC_WORD	6130752	wordpools/wasnorm_wordpool_576.txt	LTP341	ltpFR2	22	14	SPACE	1345	n/a	n/a	0	0	0
2994.41845703125	n/a	REC_WORD	6132569	wordpools/wasnorm_wordpool_576.txt	LTP341	ltpFR2	22	14	MESSAGE	888	n/a	n/a	0	0	0
2995.2314453125	n/a	REC_WORD	6134234	wordpools/wasnorm_wordpool_576.txt	LTP341	ltpFR2	22	14	POSTAGE	1113	n/a	n/a	0	0	0
2997.47314453125	n/a	REC_WORD	6138825	wordpools/wasnorm_wordpool_576.txt	LTP341	ltpFR2	22	14	LAGOON	795	n/a	n/a	0	0	0
2999.02734375	n/a	REC_WORD	6142008	wordpools/wasnorm_wordpool_576.txt	LTP341	ltpFR2	22	14	YACHT	1629	n/a	n/a	0	0	0
3002.837890625	n/a	REC_WORD	6149812	wordpools/wasnorm_wordpool_576.txt	LTP341	ltpFR2	22	14	VICTIM	1562	n/a	n/a	0	0	0
3007.5107421875	n/a	REC_WORD	6159382	wordpools/wasnorm_wordpool_576.txt	LTP341	ltpFR2	22	14	CANYON	235	n/a	n/a	0	0	0
3010.43701171875	n/a	REC_WORD	6165375	wordpools/wasnorm_wordpool_576.txt	LTP341	ltpFR2	22	14	CONTRACT	368	n/a	n/a	0	0	0
3013.61474609375	n/a	REC_WORD	6171883	wordpools/wasnorm_wordpool_576.txt	LTP341	ltpFR2	22	14	CHEST	295	n/a	n/a	0	0	0
3014.9345703125	n/a	REC_WORD	6174586	wordpools/wasnorm_wordpool_576.txt	LTP341	ltpFR2	22	14	DANDRUFF	439	n/a	n/a	0	0	0
3015.94580078125	n/a	REC_WORD	6176657	wordpools/wasnorm_wordpool_576.txt	LTP341	ltpFR2	22	14	LIGHTNING	820	n/a	n/a	0	0	0
3020.1318359375	n/a	REC_WORD	6185230	wordpools/wasnorm_wordpool_576.txt	LTP341	ltpFR2	22	14	SUBWAY	1400	n/a	n/a	0	0	0
3036.4375	n/a	REC_WORD	6218624	wordpools/wasnorm_wordpool_576.txt	LTP341	ltpFR2	22	14	SEAFOOD	1260	n/a	n/a	0	0	0
3038.412109375	n/a	REC_WORD	6222668	wordpools/wasnorm_wordpool_576.txt	LTP341	ltpFR2	22	14	SCALLOP	1242	n/a	n/a	0	0	0
3074.0185546875	n/a	DISTRACTOR	6295590	n/a	LTP341	ltpFR2	22	15	n/a	n/a	n/a	n/a	0	0	0
3074.0185546875	n/a	START	6295590	n/a	LTP341	ltpFR2	22	n/a	n/a	n/a	23	n/a	n/a	n/a	n/a
3074.0341796875	n/a	PROB	6295622	n/a	LTP341	ltpFR2	22	n/a	n/a	n/a	23	22	8	9	5
3075.66650390625	n/a	PROB	6298965	n/a	LTP341	ltpFR2	22	n/a	n/a	n/a	23	9	2	4	3
3078.8154296875	n/a	PROB	6305414	n/a	LTP341	ltpFR2	22	n/a	n/a	n/a	23	15	3	7	5
3080.09814453125	n/a	PROB	6308041	n/a	LTP341	ltpFR2	22	n/a	n/a	n/a	23	14	5	4	5
3081.61328125	n/a	PROB	6311144	n/a	LTP341	ltpFR2	22	n/a	n/a	n/a	23	20	6	7	7
3083.212890625	n/a	PROB	6314420	n/a	LTP341	ltpFR2	22	n/a	n/a	n/a	23	19	5	9	5
3084.37890625	n/a	PROB	6316808	n/a	LTP341	ltpFR2	22	n/a	n/a	n/a	23	13	3	1	9
3085.27880859375	n/a	PROB	6318651	n/a	LTP341	ltpFR2	22	n/a	n/a	n/a	23	19	4	7	8
3086.494140625	n/a	PROB	6321140	n/a	LTP341	ltpFR2	22	n/a	n/a	n/a	23	21	5	8	8
3087.509765625	n/a	PROB	6323220	n/a	LTP341	ltpFR2	22	n/a	n/a	n/a	23	5	1	2	2
3088.3427734375	n/a	PROB	6324926	n/a	LTP341	ltpFR2	22	n/a	n/a	n/a	23	10	1	5	4
3089.72607421875	n/a	PROB	6327759	n/a	LTP341	ltpFR2	22	n/a	n/a	n/a	23	18	8	7	3
3090.708984375	n/a	PROB	6329772	n/a	LTP341	ltpFR2	22	n/a	n/a	n/a	23	1	3	8	5
3091.80810546875	n/a	PROB	6332023	n/a	LTP341	ltpFR2	22	n/a	n/a	n/a	23	11	4	3	4
3092.92578125	n/a	PROB	6334312	n/a	LTP341	ltpFR2	22	n/a	n/a	n/a	23	16	6	1	9
3093.8916015625	n/a	PROB	6336290	n/a	LTP341	ltpFR2	22	n/a	n/a	n/a	23	16	6	4	6
3094.7900390625	n/a	PROB	6338130	n/a	LTP341	ltpFR2	22	n/a	n/a	n/a	23	18	5	6	7
3095.73974609375	n/a	PROB	6340075	n/a	LTP341	ltpFR2	22	n/a	n/a	n/a	23	19	4	9	6
