mstime	trial_type	stim_file	subject	experiment	session	trial	task	item_name	item_num	recog_conf	resp	color_b	color_g	color_r	case	font
0	SESS_START	n/a	LTP085	ltpFR	18	n/a	n/a	n/a	n/a	2	n/a	n/a	n/a	n/a	n/a	n/a
41557	WORD	wordpools/wasnorm_wordpool.txt	LTP085	ltpFR	18	1	1	BATHTUB	100	n/a	0	1	0.412841796875	0.57763671875	upper	../fonts/zerothre.ttf
45490	WORD	wordpools/wasnorm_wordpool.txt	LTP085	ltpFR	18	1	1	FACTORY	548	n/a	0	1	0.412841796875	0.57763671875	upper	../fonts/zerothre.ttf
49606	WORD	wordpools/wasnorm_wordpool.txt	LTP085	ltpFR	18	1	1	PASSAGE	1019	n/a	0	1	0.412841796875	0.57763671875	upper	../fonts/zerothre.ttf
53539	WORD	wordpools/wasnorm_wordpool.txt	LTP085	ltpFR	18	1	0	LITERATURE	831	n/a	0	0	0.5869140625	0.422607421875	lower	../fonts/amplitud.ttf
57747	WORD	wordpools/wasnorm_wordpool.txt	LTP085	ltpFR	18	1	0	EXPERT	543	n/a	1	0	0.5869140625	0.422607421875	lower	../fonts/amplitud.ttf
61796	WORD	wordpools/wasnorm_wordpool.txt	LTP085	ltpFR	18	1	1	SLOPE	1328	n/a	0	1	0.412841796875	0.57763671875	upper	../fonts/zerothre.ttf
65738	WORD	wordpools/wasnorm_wordpool.txt	LTP085	ltpFR	18	1	1	FOUNTAIN	597	n/a	0	1	0.412841796875	0.57763671875	upper	../fonts/zerothre.ttf
69705	WORD	wordpools/wasnorm_wordpool.txt	LTP085	ltpFR	18	1	1	HORNET	718	n/a	1	1	0.412841796875	0.57763671875	upper	../fonts/zerothre.ttf
73680	WORD	wordpools/wasnorm_wordpool.txt	LTP085	ltpFR	18	1	0	HOSE	720	n/a	0	0	0.5869140625	0.422607421875	lower	../fonts/amplitud.ttf
77838	WORD	wordpools/wasnorm_wordpool.txt	LTP085	ltpFR	18	1	0	SCHOOL	1248	n/a	1	0	0.5869140625	0.422607421875	lower	../fonts/amplitud.ttf
81921	WORD	wordpools/wasnorm_wordpool.txt	LTP085	ltpFR	18	1	0	MOUNTAIN	924	n/a	1	0	0.5869140625	0.422607421875	lower	../fonts/amplitud.ttf
85895	WORD	wordpools/wasnorm_wordpool.txt	LTP085	ltpFR	18	1	0	FLOWER	584	n/a	0	0	0.5869140625	0.422607421875	lower	../fonts/amplitud.ttf
89878	WORD	wordpools/wasnorm_wordpool.txt	LTP085	ltpFR	18	1	0	ROSE	1212	n/a	0	0	0.5869140625	0.422607421875	lower	../fonts/amplitud.ttf
93903	WORD	wordpools/wasnorm_wordpool.txt	LTP085	ltpFR	18	1	0	PELICAN	1039	n/a	1	0	0.5869140625	0.422607421875	lower	../fonts/amplitud.ttf
97793	WORD	wordpools/wasnorm_wordpool.txt	LTP085	ltpFR	18	1	1	TURTLE	1522	n/a	1	1	0.412841796875	0.57763671875	upper	../fonts/zerothre.ttf
101752	WORD	wordpools/wasnorm_wordpool.txt	LTP085	ltpFR	18	1	1	WORM	1623	n/a	1	1	0.412841796875	0.57763671875	upper	../fonts/zerothre.ttf
107478	REC_START	n/a	LTP085	ltpFR	18	1	n/a	n/a	n/a	n/a	n/a	n/a	n/a	n/a	n/a	n/a
109378	REC_WORD	wordpools/wasnorm_wordpool.txt	LTP085	ltpFR	18	1	1	PASSAGE	1019	n/a	0	n/a	n/a	n/a	n/a	n/a
110356	REC_WORD	wordpools/wasnorm_wordpool.txt	LTP085	ltpFR	18	1	0	MOUNTAIN	924	n/a	1	n/a	n/a	n/a	n/a	n/a
112741	REC_WORD	wordpools/wasnorm_wordpool.txt	LTP085	ltpFR	18	1	n/a	TUNNEL	1519	n/a	n/a	n/a	n/a	n/a	n/a	n/a
114801	REC_WORD	wordpools/wasnorm_wordpool.txt	LTP085	ltpFR	18	1	0	PELICAN	1039	n/a	1	n/a	n/a	n/a	n/a	n/a
117171	REC_WORD	wordpools/wasnorm_wordpool.txt	LTP085	ltpFR	18	1	1	WORM	1623	n/a	1	n/a	n/a	n/a	n/a	n/a
118707	REC_WORD	wordpools/wasnorm_wordpool.txt	LTP085	ltpFR	18	1	1	TURTLE	1522	n/a	1	n/a	n/a	n/a	n/a	n/a
120957	REC_WORD	wordpools/wasnorm_wordpool.txt	LTP085	ltpFR	18	1	0	LITERATURE	831	n/a	0	n/a	n/a	n/a	n/a	n/a
122678	REC_WORD	wordpools/wasnorm_wordpool.txt	LTP085	ltpFR	18	1	0	HOSE	720	n/a	0	n/a	n/a	n/a	n/a	n/a
125217	REC_WORD	wordpools/wasnorm_wordpool.txt	LTP085	ltpFR	18	1	0	FLOWER	584	n/a	0	n/a	n/a	n/a	n/a	n/a
126684	REC_WORD	wordpools/wasnorm_wordpool.txt	LTP085	ltpFR	18	1	0	ROSE	1212	n/a	0	n/a	n/a	n/a	n/a	n/a
128076	REC_WORD	wordpools/wasnorm_wordpool.txt	LTP085	ltpFR	18	1	n/a	TULIP	1517	n/a	n/a	n/a	n/a	n/a	n/a	n/a
134307	REC_WORD	wordpools/wasnorm_wordpool.txt	LTP085	ltpFR	18	1	0	MOUNTAIN	924	n/a	1	n/a	n/a	n/a	n/a	n/a
146614	REC_WORD	wordpools/wasnorm_wordpool.txt	LTP085	ltpFR	18	1	1	PASSAGE	1019	n/a	0	n/a	n/a	n/a	n/a	n/a
152565	REC_WORD	wordpools/wasnorm_wordpool.txt	LTP085	ltpFR	18	1	n/a	LANE	-1	n/a	n/a	n/a	n/a	n/a	n/a	n/a
157823	REC_WORD	wordpools/wasnorm_wordpool.txt	LTP085	ltpFR	18	1	0	EXPERT	543	n/a	1	n/a	n/a	n/a	n/a	n/a
162592	REC_WORD	wordpools/wasnorm_wordpool.txt	LTP085	ltpFR	18	1	1	SLOPE	1328	n/a	0	n/a	n/a	n/a	n/a	n/a
190312	WORD	wordpools/wasnorm_wordpool.txt	LTP085	ltpFR	18	2	0	STAPLE	1371	n/a	0	0	0.5869140625	0.422607421875	lower	../fonts/amplitud.ttf
194479	WORD	wordpools/wasnorm_wordpool.txt	LTP085	ltpFR	18	2	0	SCRIBBLE	1256	n/a	0	0	0.5869140625	0.422607421875	lower	../fonts/amplitud.ttf
198679	WORD	wordpools/wasnorm_wordpool.txt	LTP085	ltpFR	18	2	1	SHIP	1286	n/a	0	1	0.412841796875	0.57763671875	upper	../fonts/zerothre.ttf
202886	WORD	wordpools/wasnorm_wordpool.txt	LTP085	ltpFR	18	2	1	PREDATOR	1120	n/a	1	1	0.412841796875	0.57763671875	upper	../fonts/zerothre.ttf
206828	WORD	wordpools/wasnorm_wordpool.txt	LTP085	ltpFR	18	2	1	PALM	1007	n/a	0	1	0.412841796875	0.57763671875	upper	../fonts/zerothre.ttf
210802	WORD	wordpools/wasnorm_wordpool.txt	LTP085	ltpFR	18	2	1	COAT	333	n/a	0	1	0.412841796875	0.57763671875	upper	../fonts/zerothre.ttf
214902	WORD	wordpools/wasnorm_wordpool.txt	LTP085	ltpFR	18	2	1	CAPE	237	n/a	0	1	0.412841796875	0.57763671875	upper	../fonts/zerothre.ttf
218835	WORD	wordpools/wasnorm_wordpool.txt	LTP085	ltpFR	18	2	0	STATUE	1374	n/a	0	0	0.5869140625	0.422607421875	lower	../fonts/amplitud.ttf
222910	WORD	wordpools/wasnorm_wordpool.txt	LTP085	ltpFR	18	2	0	TUB	1514	n/a	1	0	0.5869140625	0.422607421875	lower	../fonts/amplitud.ttf
226885	WORD	wordpools/wasnorm_wordpool.txt	LTP085	ltpFR	18	2	0	DIVER	476	n/a	1	0	0.5869140625	0.422607421875	lower	../fonts/amplitud.ttf
230951	WORD	wordpools/wasnorm_wordpool.txt	LTP085	ltpFR	18	2	1	TACK	1428	n/a	0	1	0.412841796875	0.57763671875	upper	../fonts/zerothre.ttf
235067	WORD	wordpools/wasnorm_wordpool.txt	LTP085	ltpFR	18	2	1	GUM	672	n/a	0	1	0.412841796875	0.57763671875	upper	../fonts/zerothre.ttf
239159	WORD	wordpools/wasnorm_wordpool.txt	LTP085	ltpFR	18	2	1	CREW	406	n/a	1	1	0.412841796875	0.57763671875	upper	../fonts/zerothre.ttf
243350	WORD	wordpools/wasnorm_wordpool.txt	LTP085	ltpFR	18	2	0	SLUG	1329	n/a	0	0	0.5869140625	0.422607421875	lower	../fonts/amplitud.ttf
247192	WORD	wordpools/wasnorm_wordpool.txt	LTP085	ltpFR	18	2	0	ASSOCIATE	49	n/a	1	0	0.5869140625	0.422607421875	lower	../fonts/amplitud.ttf
251116	WORD	wordpools/wasnorm_wordpool.txt	LTP085	ltpFR	18	2	0	GROCERY	664	n/a	0	0	0.5869140625	0.422607421875	lower	../fonts/amplitud.ttf
257100	REC_START	n/a	LTP085	ltpFR	18	2	n/a	n/a	n/a	n/a	n/a	n/a	n/a	n/a	n/a	n/a
258522	REC_WORD	wordpools/wasnorm_wordpool.txt	LTP085	ltpFR	18	2	0	GROCERY	664	n/a	0	n/a	n/a	n/a	n/a	n/a
261894	REC_WORD	wordpools/wasnorm_wordpool.txt	LTP085	ltpFR	18	2	1	CREW	406	n/a	1	n/a	n/a	n/a	n/a	n/a
262971	REC_WORD	wordpools/wasnorm_wordpool.txt	LTP085	ltpFR	18	2	1	TACK	1428	n/a	0	n/a	n/a	n/a	n/a	n/a
264438	REC_WORD	wordpools/wasnorm_wordpool.txt	LTP085	ltpFR	18	2	0	SCRIBBLE	1256	n/a	0	n/a	n/a	n/a	n/a	n/a
265610	REC_WORD	wordpools/wasnorm_wordpool.txt	LTP085	ltpFR	18	2	0	STAPLE	1371	n/a	0	n/a	n/a	n/a	n/a	n/a
267830	REC_WORD	wordpools/wasnorm_wordpool.txt	LTP085	ltpFR	18	2	1	PALM	1007	n/a	0	n/a	n/a	n/a	n/a	n/a
269527	REC_WORD	wordpools/wasnorm_wordpool.txt	LTP085	ltpFR	18	2	n/a	TREE	1502	n/a	n/a	n/a	n/a	n/a	n/a	n/a
276955	REC_WORD	wordpools/wasnorm_wordpool.txt	LTP085	ltpFR	18	2	1	CREW	406	n/a	1	n/a	n/a	n/a	n/a	n/a
279504	REC_WORD	wordpools/wasnorm_wordpool.txt	LTP085	ltpFR	18	2	0	ASSOCIATE	49	n/a	1	n/a	n/a	n/a	n/a	n/a
282507	REC_WORD	wordpools/wasnorm_wordpool.txt	LTP085	ltpFR	18	2	0	STATUE	1374	n/a	0	n/a	n/a	n/a	n/a	n/a
283954	REC_WORD	wordpools/wasnorm_wordpool.txt	LTP085	ltpFR	18	2	0	TUB	1514	n/a	1	n/a	n/a	n/a	n/a	n/a
285874	REC_WORD	wordpools/wasnorm_wordpool.txt	LTP085	ltpFR	18	2	n/a	BATH	98	n/a	n/a	n/a	n/a	n/a	n/a	n/a
288089	REC_WORD	wordpools/wasnorm_wordpool.txt	LTP085	ltpFR	18	2	0	PELICAN	1039	n/a	1	n/a	n/a	n/a	n/a	n/a
291487	REC_WORD	wordpools/wasnorm_wordpool.txt	LTP085	ltpFR	18	2	n/a	MAZE	-1	n/a	n/a	n/a	n/a	n/a	n/a	n/a
302941	REC_WORD	wordpools/wasnorm_wordpool.txt	LTP085	ltpFR	18	2	1	COAT	333	n/a	0	n/a	n/a	n/a	n/a	n/a
310009	REC_WORD	wordpools/wasnorm_wordpool.txt	LTP085	ltpFR	18	2	n/a	PASSENGER	1020	n/a	n/a	n/a	n/a	n/a	n/a	n/a
330947	REC_WORD	wordpools/wasnorm_wordpool.txt	LTP085	ltpFR	18	2	0	LITERATURE	831	n/a	0	n/a	n/a	n/a	n/a	n/a
358350	WORD	wordpools/wasnorm_wordpool.txt	LTP085	ltpFR	18	3	-1	CABLE	213	n/a	-1	1	1.0	1.0	upper	../fonts/Verdana.ttf
362183	WORD	wordpools/wasnorm_wordpool.txt	LTP085	ltpFR	18	3	-1	HANDKERCHIEF	686	n/a	-1	1	1.0	1.0	upper	../fonts/Verdana.ttf
366149	WORD	wordpools/wasnorm_wordpool.txt	LTP085	ltpFR	18	3	-1	CEILING	265	n/a	-1	1	1.0	1.0	upper	../fonts/Verdana.ttf
370224	WORD	wordpools/wasnorm_wordpool.txt	LTP085	ltpFR	18	3	-1	SHOULDER	1294	n/a	-1	1	1.0	1.0	upper	../fonts/Verdana.ttf
374232	WORD	wordpools/wasnorm_wordpool.txt	LTP085	ltpFR	18	3	-1	TRUMPET	1513	n/a	-1	1	1.0	1.0	upper	../fonts/Verdana.ttf
378090	WORD	wordpools/wasnorm_wordpool.txt	LTP085	ltpFR	18	3	-1	VIOLA	1570	n/a	-1	1	1.0	1.0	upper	../fonts/Verdana.ttf
382181	WORD	wordpools/wasnorm_wordpool.txt	LTP085	ltpFR	18	3	-1	JUVENILE	767	n/a	-1	1	1.0	1.0	upper	../fonts/Verdana.ttf
386039	WORD	wordpools/wasnorm_wordpool.txt	LTP085	ltpFR	18	3	-1	VICTIM	1562	n/a	-1	1	1.0	1.0	upper	../fonts/Verdana.ttf
389997	WORD	wordpools/wasnorm_wordpool.txt	LTP085	ltpFR	18	3	-1	COFFEE	341	n/a	-1	1	1.0	1.0	upper	../fonts/Verdana.ttf
394047	WORD	wordpools/wasnorm_wordpool.txt	LTP085	ltpFR	18	3	-1	CARPET	247	n/a	-1	1	1.0	1.0	upper	../fonts/Verdana.ttf
397922	WORD	wordpools/wasnorm_wordpool.txt	LTP085	ltpFR	18	3	-1	CLOTHES	327	n/a	-1	1	1.0	1.0	upper	../fonts/Verdana.ttf
402055	WORD	wordpools/wasnorm_wordpool.txt	LTP085	ltpFR	18	3	-1	CREATURE	403	n/a	-1	1	1.0	1.0	upper	../fonts/Verdana.ttf
406180	WORD	wordpools/wasnorm_wordpool.txt	LTP085	ltpFR	18	3	-1	SCROLL	1257	n/a	-1	1	1.0	1.0	upper	../fonts/Verdana.ttf
410154	WORD	wordpools/wasnorm_wordpool.txt	LTP085	ltpFR	18	3	-1	BOWL	158	n/a	-1	1	1.0	1.0	upper	../fonts/Verdana.ttf
414204	WORD	wordpools/wasnorm_wordpool.txt	LTP085	ltpFR	18	3	-1	CHIME	300	n/a	-1	1	1.0	1.0	upper	../fonts/Verdana.ttf
418054	WORD	wordpools/wasnorm_wordpool.txt	LTP085	ltpFR	18	3	-1	JEWEL	757	n/a	-1	1	1.0	1.0	upper	../fonts/Verdana.ttf
423904	REC_START	n/a	LTP085	ltpFR	18	3	n/a	n/a	n/a	n/a	n/a	n/a	n/a	n/a	n/a	n/a
423909	REC_WORD	wordpools/wasnorm_wordpool.txt	LTP085	ltpFR	18	3	n/a	[???]	-1	n/a	n/a	n/a	n/a	n/a	n/a	n/a
425400	REC_WORD	wordpools/wasnorm_wordpool.txt	LTP085	ltpFR	18	3	-1	CABLE	213	n/a	-1	n/a	n/a	n/a	n/a	n/a
426353	REC_WORD	wordpools/wasnorm_wordpool.txt	LTP085	ltpFR	18	3	-1	HANDKERCHIEF	686	n/a	-1	n/a	n/a	n/a	n/a	n/a
428234	REC_WORD	wordpools/wasnorm_wordpool.txt	LTP085	ltpFR	18	3	-1	CEILING	265	n/a	-1	n/a	n/a	n/a	n/a	n/a
429247	REC_WORD	wordpools/wasnorm_wordpool.txt	LTP085	ltpFR	18	3	-1	SHOULDER	1294	n/a	-1	n/a	n/a	n/a	n/a	n/a
431282	REC_WORD	wordpools/wasnorm_wordpool.txt	LTP085	ltpFR	18	3	-1	TRUMPET	1513	n/a	-1	n/a	n/a	n/a	n/a	n/a
432619	REC_WORD	wordpools/wasnorm_wordpool.txt	LTP085	ltpFR	18	3	-1	VIOLA	1570	n/a	-1	n/a	n/a	n/a	n/a	n/a
435852	REC_WORD	wordpools/wasnorm_wordpool.txt	LTP085	ltpFR	18	3	-1	JUVENILE	767	n/a	-1	n/a	n/a	n/a	n/a	n/a
438625	REC_WORD	wordpools/wasnorm_wordpool.txt	LTP085	ltpFR	18	3	-1	VICTIM	1562	n/a	-1	n/a	n/a	n/a	n/a	n/a
441763	REC_WORD	wordpools/wasnorm_wordpool.txt	LTP085	ltpFR	18	3	n/a	WOMAN	1620	n/a	n/a	n/a	n/a	n/a	n/a	n/a
444287	REC_WORD	wordpools/wasnorm_wordpool.txt	LTP085	ltpFR	18	3	-1	COFFEE	341	n/a	-1	n/a	n/a	n/a	n/a	n/a
446273	REC_WORD	wordpools/wasnorm_wordpool.txt	LTP085	ltpFR	18	3	-1	CARPET	247	n/a	-1	n/a	n/a	n/a	n/a	n/a
448323	REC_WORD	wordpools/wasnorm_wordpool.txt	LTP085	ltpFR	18	3	-1	CLOTHES	327	n/a	-1	n/a	n/a	n/a	n/a	n/a
450294	REC_WORD	wordpools/wasnorm_wordpool.txt	LTP085	ltpFR	18	3	-1	CREATURE	403	n/a	-1	n/a	n/a	n/a	n/a	n/a
452394	REC_WORD	wordpools/wasnorm_wordpool.txt	LTP085	ltpFR	18	3	n/a	LAMP	798	n/a	n/a	n/a	n/a	n/a	n/a	n/a
459473	REC_WORD	wordpools/wasnorm_wordpool.txt	LTP085	ltpFR	18	3	-1	BOWL	158	n/a	-1	n/a	n/a	n/a	n/a	n/a
461209	REC_WORD	wordpools/wasnorm_wordpool.txt	LTP085	ltpFR	18	3	-1	SCROLL	1257	n/a	-1	n/a	n/a	n/a	n/a	n/a
463718	REC_WORD	wordpools/wasnorm_wordpool.txt	LTP085	ltpFR	18	3	n/a	PAMPHLET	-1	n/a	n/a	n/a	n/a	n/a	n/a	n/a
467779	REC_WORD	wordpools/wasnorm_wordpool.txt	LTP085	ltpFR	18	3	-1	CHIME	300	n/a	-1	n/a	n/a	n/a	n/a	n/a
469765	REC_WORD	wordpools/wasnorm_wordpool.txt	LTP085	ltpFR	18	3	-1	JEWEL	757	n/a	-1	n/a	n/a	n/a	n/a	n/a
476105	REC_WORD	wordpools/wasnorm_wordpool.txt	LTP085	ltpFR	18	3	n/a	RUBY	1214	n/a	n/a	n/a	n/a	n/a	n/a	n/a
479882	REC_WORD	wordpools/wasnorm_wordpool.txt	LTP085	ltpFR	18	3	n/a	DIAMOND	458	n/a	n/a	n/a	n/a	n/a	n/a	n/a
488382	REC_WORD	wordpools/wasnorm_wordpool.txt	LTP085	ltpFR	18	3	-1	CABLE	213	n/a	-1	n/a	n/a	n/a	n/a	n/a
508055	WORD	wordpools/wasnorm_wordpool.txt	LTP085	ltpFR	18	4	-1	DICTATOR	462	n/a	-1	1	1.0	1.0	upper	../fonts/Verdana.ttf
512172	WORD	wordpools/wasnorm_wordpool.txt	LTP085	ltpFR	18	4	-1	CHAIRPERSON	275	n/a	-1	1	1.0	1.0	upper	../fonts/Verdana.ttf
516080	WORD	wordpools/wasnorm_wordpool.txt	LTP085	ltpFR	18	4	-1	ADULT	8	n/a	-1	1	1.0	1.0	upper	../fonts/Verdana.ttf
520004	WORD	wordpools/wasnorm_wordpool.txt	LTP085	ltpFR	18	4	-1	ADOLESCENT	7	n/a	-1	1	1.0	1.0	upper	../fonts/Verdana.ttf
523904	WORD	wordpools/wasnorm_wordpool.txt	LTP085	ltpFR	18	4	-1	STEREO	1378	n/a	-1	1	1.0	1.0	upper	../fonts/Verdana.ttf
528104	WORD	wordpools/wasnorm_wordpool.txt	LTP085	ltpFR	18	4	-1	VEST	1559	n/a	-1	1	1.0	1.0	upper	../fonts/Verdana.ttf
532295	WORD	wordpools/wasnorm_wordpool.txt	LTP085	ltpFR	18	4	-1	GRAVE	658	n/a	-1	1	1.0	1.0	upper	../fonts/Verdana.ttf
536195	WORD	wordpools/wasnorm_wordpool.txt	LTP085	ltpFR	18	4	-1	ORCHESTRA	981	n/a	-1	1	1.0	1.0	upper	../fonts/Verdana.ttf
540286	WORD	wordpools/wasnorm_wordpool.txt	LTP085	ltpFR	18	4	-1	MONGOOSE	909	n/a	-1	1	1.0	1.0	upper	../fonts/Verdana.ttf
544211	WORD	wordpools/wasnorm_wordpool.txt	LTP085	ltpFR	18	4	-1	TWIG	1527	n/a	-1	1	1.0	1.0	upper	../fonts/Verdana.ttf
548244	WORD	wordpools/wasnorm_wordpool.txt	LTP085	ltpFR	18	4	-1	PARROT	1015	n/a	-1	1	1.0	1.0	upper	../fonts/Verdana.ttf
552219	WORD	wordpools/wasnorm_wordpool.txt	LTP085	ltpFR	18	4	-1	BAND	78	n/a	-1	1	1.0	1.0	upper	../fonts/Verdana.ttf
556402	WORD	wordpools/wasnorm_wordpool.txt	LTP085	ltpFR	18	4	-1	SPATULA	1348	n/a	-1	1	1.0	1.0	upper	../fonts/Verdana.ttf
560368	WORD	wordpools/wasnorm_wordpool.txt	LTP085	ltpFR	18	4	-1	CAKE	219	n/a	-1	1	1.0	1.0	upper	../fonts/Verdana.ttf
564526	WORD	wordpools/wasnorm_wordpool.txt	LTP085	ltpFR	18	4	-1	ALLIGATOR	16	n/a	-1	1	1.0	1.0	upper	../fonts/Verdana.ttf
568509	WORD	wordpools/wasnorm_wordpool.txt	LTP085	ltpFR	18	4	-1	OLIVE	975	n/a	-1	1	1.0	1.0	upper	../fonts/Verdana.ttf
574234	REC_START	n/a	LTP085	ltpFR	18	4	n/a	n/a	n/a	n/a	n/a	n/a	n/a	n/a	n/a	n/a
575725	REC_WORD	wordpools/wasnorm_wordpool.txt	LTP085	ltpFR	18	4	-1	DICTATOR	462	n/a	-1	n/a	n/a	n/a	n/a	n/a
577042	REC_WORD	wordpools/wasnorm_wordpool.txt	LTP085	ltpFR	18	4	-1	CHAIRPERSON	275	n/a	-1	n/a	n/a	n/a	n/a	n/a
579172	REC_WORD	wordpools/wasnorm_wordpool.txt	LTP085	ltpFR	18	4	-1	ADULT	8	n/a	-1	n/a	n/a	n/a	n/a	n/a
580340	REC_WORD	wordpools/wasnorm_wordpool.txt	LTP085	ltpFR	18	4	-1	ADOLESCENT	7	n/a	-1	n/a	n/a	n/a	n/a	n/a
581911	REC_WORD	wordpools/wasnorm_wordpool.txt	LTP085	ltpFR	18	4	-1	STEREO	1378	n/a	-1	n/a	n/a	n/a	n/a	n/a
583672	REC_WORD	wordpools/wasnorm_wordpool.txt	LTP085	ltpFR	18	4	-1	VEST	1559	n/a	-1	n/a	n/a	n/a	n/a	n/a
586326	REC_WORD	wordpools/wasnorm_wordpool.txt	LTP085	ltpFR	18	4	-1	GRAVE	658	n/a	-1	n/a	n/a	n/a	n/a	n/a
588017	REC_WORD	wordpools/wasnorm_wordpool.txt	LTP085	ltpFR	18	4	-1	ORCHESTRA	981	n/a	-1	n/a	n/a	n/a	n/a	n/a
590981	REC_WORD	wordpools/wasnorm_wordpool.txt	LTP085	ltpFR	18	4	-1	MONGOOSE	909	n/a	-1	n/a	n/a	n/a	n/a	n/a
593395	REC_WORD	wordpools/wasnorm_wordpool.txt	LTP085	ltpFR	18	4	-1	TWIG	1527	n/a	-1	n/a	n/a	n/a	n/a	n/a
595760	REC_WORD	wordpools/wasnorm_wordpool.txt	LTP085	ltpFR	18	4	-1	PARROT	1015	n/a	-1	n/a	n/a	n/a	n/a	n/a
597341	REC_WORD	wordpools/wasnorm_wordpool.txt	LTP085	ltpFR	18	4	-1	BAND	78	n/a	-1	n/a	n/a	n/a	n/a	n/a
605642	REC_WORD	wordpools/wasnorm_wordpool.txt	LTP085	ltpFR	18	4	-1	SPATULA	1348	n/a	-1	n/a	n/a	n/a	n/a	n/a
607798	REC_WORD	wordpools/wasnorm_wordpool.txt	LTP085	ltpFR	18	4	-1	CAKE	219	n/a	-1	n/a	n/a	n/a	n/a	n/a
609798	REC_WORD	wordpools/wasnorm_wordpool.txt	LTP085	ltpFR	18	4	n/a	DISGUISE	-1	n/a	n/a	n/a	n/a	n/a	n/a	n/a
616867	REC_WORD	wordpools/wasnorm_wordpool.txt	LTP085	ltpFR	18	4	-1	ALLIGATOR	16	n/a	-1	n/a	n/a	n/a	n/a	n/a
618518	REC_WORD	wordpools/wasnorm_wordpool.txt	LTP085	ltpFR	18	4	n/a	CROCODILE	411	n/a	n/a	n/a	n/a	n/a	n/a	n/a
623946	REC_WORD	wordpools/wasnorm_wordpool.txt	LTP085	ltpFR	18	4	-1	OLIVE	975	n/a	-1	n/a	n/a	n/a	n/a	n/a
626121	REC_WORD	wordpools/wasnorm_wordpool.txt	LTP085	ltpFR	18	4	n/a	MARTINI	-1	n/a	n/a	n/a	n/a	n/a	n/a	n/a
677584	WORD	wordpools/wasnorm_wordpool.txt	LTP085	ltpFR	18	5	0	NAIL	936	n/a	0	0	0.5869140625	0.422607421875	lower	../fonts/amplitud.ttf
681592	WORD	wordpools/wasnorm_wordpool.txt	LTP085	ltpFR	18	5	0	SARDINE	1235	n/a	0	0	0.5869140625	0.422607421875	lower	../fonts/amplitud.ttf
685717	WORD	wordpools/wasnorm_wordpool.txt	LTP085	ltpFR	18	5	0	ACTRESS	6	n/a	1	0	0.5869140625	0.422607421875	lower	../fonts/amplitud.ttf
689858	WORD	wordpools/wasnorm_wordpool.txt	LTP085	ltpFR	18	5	0	WRENCH	1625	n/a	0	0	0.5869140625	0.422607421875	lower	../fonts/amplitud.ttf
694033	WORD	wordpools/wasnorm_wordpool.txt	LTP085	ltpFR	18	5	0	SCREWDRIVER	1255	n/a	0	0	0.5869140625	0.422607421875	lower	../fonts/amplitud.ttf
698149	WORD	wordpools/wasnorm_wordpool.txt	LTP085	ltpFR	18	5	0	WHALE	1601	n/a	1	0	0.5869140625	0.422607421875	lower	../fonts/amplitud.ttf
702241	WORD	wordpools/wasnorm_wordpool.txt	LTP085	ltpFR	18	5	0	TWEEZERS	1526	n/a	0	0	0.5869140625	0.422607421875	lower	../fonts/amplitud.ttf
706132	WORD	wordpools/wasnorm_wordpool.txt	LTP085	ltpFR	18	5	0	CARPENTER	246	n/a	1	0	0.5869140625	0.422607421875	lower	../fonts/amplitud.ttf
710248	WORD	wordpools/wasnorm_wordpool.txt	LTP085	ltpFR	18	5	0	COLOGNE	347	n/a	0	0	0.5869140625	0.422607421875	lower	../fonts/amplitud.ttf
714315	WORD	wordpools/wasnorm_wordpool.txt	LTP085	ltpFR	18	5	0	LOBSTER	837	n/a	0	0	0.5869140625	0.422607421875	lower	../fonts/amplitud.ttf
718306	WORD	wordpools/wasnorm_wordpool.txt	LTP085	ltpFR	18	5	0	TANK	1432	n/a	1	0	0.5869140625	0.422607421875	lower	../fonts/amplitud.ttf
722298	WORD	wordpools/wasnorm_wordpool.txt	LTP085	ltpFR	18	5	0	TOMBSTONE	1478	n/a	1	0	0.5869140625	0.422607421875	lower	../fonts/amplitud.ttf
726122	WORD	wordpools/wasnorm_wordpool.txt	LTP085	ltpFR	18	5	0	BANDANNA	80	n/a	0	0	0.5869140625	0.422607421875	lower	../fonts/amplitud.ttf
729980	WORD	wordpools/wasnorm_wordpool.txt	LTP085	ltpFR	18	5	0	CAP	236	n/a	0	0	0.5869140625	0.422607421875	lower	../fonts/amplitud.ttf
733938	WORD	wordpools/wasnorm_wordpool.txt	LTP085	ltpFR	18	5	0	CABIN	211	n/a	1	0	0.5869140625	0.422607421875	lower	../fonts/amplitud.ttf
738138	WORD	wordpools/wasnorm_wordpool.txt	LTP085	ltpFR	18	5	0	PAINT	1003	n/a	0	0	0.5869140625	0.422607421875	lower	../fonts/amplitud.ttf
744030	REC_START	n/a	LTP085	ltpFR	18	5	n/a	n/a	n/a	n/a	n/a	n/a	n/a	n/a	n/a	n/a
747706	REC_WORD	wordpools/wasnorm_wordpool.txt	LTP085	ltpFR	18	5	0	PAINT	1003	n/a	0	n/a	n/a	n/a	n/a	n/a
749208	REC_WORD	wordpools/wasnorm_wordpool.txt	LTP085	ltpFR	18	5	0	TOMBSTONE	1478	n/a	1	n/a	n/a	n/a	n/a	n/a
750630	REC_WORD	wordpools/wasnorm_wordpool.txt	LTP085	ltpFR	18	5	0	BANDANNA	80	n/a	0	n/a	n/a	n/a	n/a	n/a
752181	REC_WORD	wordpools/wasnorm_wordpool.txt	LTP085	ltpFR	18	5	0	NAIL	936	n/a	0	n/a	n/a	n/a	n/a	n/a
753453	REC_WORD	wordpools/wasnorm_wordpool.txt	LTP085	ltpFR	18	5	0	SCREWDRIVER	1255	n/a	0	n/a	n/a	n/a	n/a	n/a
755838	REC_WORD	wordpools/wasnorm_wordpool.txt	LTP085	ltpFR	18	5	0	ACTRESS	6	n/a	1	n/a	n/a	n/a	n/a	n/a
757933	REC_WORD	wordpools/wasnorm_wordpool.txt	LTP085	ltpFR	18	5	0	EXPERT	543	n/a	1	n/a	n/a	n/a	n/a	n/a
767596	REC_WORD	wordpools/wasnorm_wordpool.txt	LTP085	ltpFR	18	5	n/a	FRENCH	-1	n/a	n/a	n/a	n/a	n/a	n/a	n/a
769756	REC_WORD	wordpools/wasnorm_wordpool.txt	LTP085	ltpFR	18	5	n/a	TOOLBOX	-1	n/a	n/a	n/a	n/a	n/a	n/a	n/a
783395	REC_WORD	wordpools/wasnorm_wordpool.txt	LTP085	ltpFR	18	5	0	LOBSTER	837	n/a	0	n/a	n/a	n/a	n/a	n/a
787316	REC_WORD	wordpools/wasnorm_wordpool.txt	LTP085	ltpFR	18	5	0	BANDANNA	80	n/a	0	n/a	n/a	n/a	n/a	n/a
794699	REC_WORD	wordpools/wasnorm_wordpool.txt	LTP085	ltpFR	18	5	0	FLOWER	584	n/a	0	n/a	n/a	n/a	n/a	n/a
803205	REC_WORD	wordpools/wasnorm_wordpool.txt	LTP085	ltpFR	18	5	0	STATUE	1374	n/a	0	n/a	n/a	n/a	n/a	n/a
830031	WORD	wordpools/wasnorm_wordpool.txt	LTP085	ltpFR	18	6	-1	ROCKET	1202	n/a	-1	1	1.0	1.0	upper	../fonts/Verdana.ttf
833981	WORD	wordpools/wasnorm_wordpool.txt	LTP085	ltpFR	18	6	-1	CASTLE	256	n/a	-1	1	1.0	1.0	upper	../fonts/Verdana.ttf
837856	WORD	wordpools/wasnorm_wordpool.txt	LTP085	ltpFR	18	6	-1	RICE	1190	n/a	-1	1	1.0	1.0	upper	../fonts/Verdana.ttf
841813	WORD	wordpools/wasnorm_wordpool.txt	LTP085	ltpFR	18	6	-1	THIEF	1456	n/a	-1	1	1.0	1.0	upper	../fonts/Verdana.ttf
845787	WORD	wordpools/wasnorm_wordpool.txt	LTP085	ltpFR	18	6	-1	SEAT	1264	n/a	-1	1	1.0	1.0	upper	../fonts/Verdana.ttf
849771	WORD	wordpools/wasnorm_wordpool.txt	LTP085	ltpFR	18	6	-1	SNACK	1331	n/a	-1	1	1.0	1.0	upper	../fonts/Verdana.ttf
853846	WORD	wordpools/wasnorm_wordpool.txt	LTP085	ltpFR	18	6	-1	MEAL	882	n/a	-1	1	1.0	1.0	upper	../fonts/Verdana.ttf
857778	WORD	wordpools/wasnorm_wordpool.txt	LTP085	ltpFR	18	6	-1	DINNER	468	n/a	-1	1	1.0	1.0	upper	../fonts/Verdana.ttf
861970	WORD	wordpools/wasnorm_wordpool.txt	LTP085	ltpFR	18	6	-1	ASIA	46	n/a	-1	1	1.0	1.0	upper	../fonts/Verdana.ttf
865937	WORD	wordpools/wasnorm_wordpool.txt	LTP085	ltpFR	18	6	-1	MARROW	872	n/a	-1	1	1.0	1.0	upper	../fonts/Verdana.ttf
869777	WORD	wordpools/wasnorm_wordpool.txt	LTP085	ltpFR	18	6	-1	JOINT	758	n/a	-1	1	1.0	1.0	upper	../fonts/Verdana.ttf
873818	WORD	wordpools/wasnorm_wordpool.txt	LTP085	ltpFR	18	6	-1	BASKET	95	n/a	-1	1	1.0	1.0	upper	../fonts/Verdana.ttf
877952	WORD	wordpools/wasnorm_wordpool.txt	LTP085	ltpFR	18	6	-1	RECIPE	1175	n/a	-1	1	1.0	1.0	upper	../fonts/Verdana.ttf
881961	WORD	wordpools/wasnorm_wordpool.txt	LTP085	ltpFR	18	6	-1	FRIES	607	n/a	-1	1	1.0	1.0	upper	../fonts/Verdana.ttf
885894	WORD	wordpools/wasnorm_wordpool.txt	LTP085	ltpFR	18	6	-1	PLUTO	1092	n/a	-1	1	1.0	1.0	upper	../fonts/Verdana.ttf
890060	WORD	wordpools/wasnorm_wordpool.txt	LTP085	ltpFR	18	6	-1	CRATER	400	n/a	-1	1	1.0	1.0	upper	../fonts/Verdana.ttf
896160	REC_START	n/a	LTP085	ltpFR	18	6	n/a	n/a	n/a	n/a	n/a	n/a	n/a	n/a	n/a	n/a
897447	REC_WORD	wordpools/wasnorm_wordpool.txt	LTP085	ltpFR	18	6	-1	ROCKET	1202	n/a	-1	n/a	n/a	n/a	n/a	n/a
898634	REC_WORD	wordpools/wasnorm_wordpool.txt	LTP085	ltpFR	18	6	-1	CASTLE	256	n/a	-1	n/a	n/a	n/a	n/a	n/a
900669	REC_WORD	wordpools/wasnorm_wordpool.txt	LTP085	ltpFR	18	6	-1	RICE	1190	n/a	-1	n/a	n/a	n/a	n/a	n/a
903009	REC_WORD	wordpools/wasnorm_wordpool.txt	LTP085	ltpFR	18	6	-1	THIEF	1456	n/a	-1	n/a	n/a	n/a	n/a	n/a
905418	REC_WORD	wordpools/wasnorm_wordpool.txt	LTP085	ltpFR	18	6	-1	SEAT	1264	n/a	-1	n/a	n/a	n/a	n/a	n/a
908626	REC_WORD	wordpools/wasnorm_wordpool.txt	LTP085	ltpFR	18	6	-1	SNACK	1331	n/a	-1	n/a	n/a	n/a	n/a	n/a
911859	REC_WORD	wordpools/wasnorm_wordpool.txt	LTP085	ltpFR	18	6	n/a	ROOM	1206	n/a	n/a	n/a	n/a	n/a	n/a	n/a
953080	REC_WORD	wordpools/wasnorm_wordpool.txt	LTP085	ltpFR	18	6	-1	MEAL	882	n/a	-1	n/a	n/a	n/a	n/a	n/a
954298	REC_WORD	wordpools/wasnorm_wordpool.txt	LTP085	ltpFR	18	6	-1	DINNER	468	n/a	-1	n/a	n/a	n/a	n/a	n/a
956488	REC_WORD	wordpools/wasnorm_wordpool.txt	LTP085	ltpFR	18	6	-1	MARROW	872	n/a	-1	n/a	n/a	n/a	n/a	n/a
958049	REC_WORD	wordpools/wasnorm_wordpool.txt	LTP085	ltpFR	18	6	-1	JOINT	758	n/a	-1	n/a	n/a	n/a	n/a	n/a
960987	REC_WORD	wordpools/wasnorm_wordpool.txt	LTP085	ltpFR	18	6	-1	ASIA	46	n/a	-1	n/a	n/a	n/a	n/a	n/a
962673	REC_WORD	wordpools/wasnorm_wordpool.txt	LTP085	ltpFR	18	6	-1	FRIES	607	n/a	-1	n/a	n/a	n/a	n/a	n/a
964764	REC_WORD	wordpools/wasnorm_wordpool.txt	LTP085	ltpFR	18	6	-1	RECIPE	1175	n/a	-1	n/a	n/a	n/a	n/a	n/a
1000135	WORD	wordpools/wasnorm_wordpool.txt	LTP085	ltpFR	18	7	0	SKULL	1320	n/a	0	0	0.5869140625	0.422607421875	lower	../fonts/amplitud.ttf
1004001	WORD	wordpools/wasnorm_wordpool.txt	LTP085	ltpFR	18	7	0	STRANGER	1389	n/a	1	0	0.5869140625	0.422607421875	lower	../fonts/amplitud.ttf
1007934	WORD	wordpools/wasnorm_wordpool.txt	LTP085	ltpFR	18	7	0	FOE	587	n/a	0	0	0.5869140625	0.422607421875	lower	../fonts/amplitud.ttf
1011876	WORD	wordpools/wasnorm_wordpool.txt	LTP085	ltpFR	18	7	0	PLUM	1090	n/a	0	0	0.5869140625	0.422607421875	lower	../fonts/amplitud.ttf
1015850	WORD	wordpools/wasnorm_wordpool.txt	LTP085	ltpFR	18	7	0	BRUISE	180	n/a	0	0	0.5869140625	0.422607421875	lower	../fonts/amplitud.ttf
1019791	WORD	wordpools/wasnorm_wordpool.txt	LTP085	ltpFR	18	7	0	ROOF	1205	n/a	1	0	0.5869140625	0.422607421875	lower	../fonts/amplitud.ttf
1023733	WORD	wordpools/wasnorm_wordpool.txt	LTP085	ltpFR	18	7	0	ARROW	40	n/a	0	0	0.5869140625	0.422607421875	lower	../fonts/amplitud.ttf
1027566	WORD	wordpools/wasnorm_wordpool.txt	LTP085	ltpFR	18	7	0	BANANA	77	n/a	0	0	0.5869140625	0.422607421875	lower	../fonts/amplitud.ttf
1031558	WORD	wordpools/wasnorm_wordpool.txt	LTP085	ltpFR	18	7	0	SERPENT	1270	n/a	0	0	0.5869140625	0.422607421875	lower	../fonts/amplitud.ttf
1035732	WORD	wordpools/wasnorm_wordpool.txt	LTP085	ltpFR	18	7	0	COOKBOOK	373	n/a	1	0	0.5869140625	0.422607421875	lower	../fonts/amplitud.ttf
1039715	WORD	wordpools/wasnorm_wordpool.txt	LTP085	ltpFR	18	7	0	CUPBOARD	425	n/a	1	0	0.5869140625	0.422607421875	lower	../fonts/amplitud.ttf
1043757	WORD	wordpools/wasnorm_wordpool.txt	LTP085	ltpFR	18	7	0	SCARF	1246	n/a	0	0	0.5869140625	0.422607421875	lower	../fonts/amplitud.ttf
1047748	WORD	wordpools/wasnorm_wordpool.txt	LTP085	ltpFR	18	7	0	INDIAN	736	n/a	1	0	0.5869140625	0.422607421875	lower	../fonts/amplitud.ttf
1051906	WORD	wordpools/wasnorm_wordpool.txt	LTP085	ltpFR	18	7	0	CANVAS	234	n/a	1	0	0.5869140625	0.422607421875	lower	../fonts/amplitud.ttf
1055906	WORD	wordpools/wasnorm_wordpool.txt	LTP085	ltpFR	18	7	0	CLAY	320	n/a	0	0	0.5869140625	0.422607421875	lower	../fonts/amplitud.ttf
1059880	WORD	wordpools/wasnorm_wordpool.txt	LTP085	ltpFR	18	7	0	ARENA	37	n/a	1	0	0.5869140625	0.422607421875	lower	../fonts/amplitud.ttf
1065531	REC_START	n/a	LTP085	ltpFR	18	7	n/a	n/a	n/a	n/a	n/a	n/a	n/a	n/a	n/a	n/a
1066703	REC_WORD	wordpools/wasnorm_wordpool.txt	LTP085	ltpFR	18	7	0	CLAY	320	n/a	0	n/a	n/a	n/a	n/a	n/a
1067836	REC_WORD	wordpools/wasnorm_wordpool.txt	LTP085	ltpFR	18	7	0	CANVAS	234	n/a	1	n/a	n/a	n/a	n/a	n/a
1069372	REC_WORD	wordpools/wasnorm_wordpool.txt	LTP085	ltpFR	18	7	0	PAINT	1003	n/a	0	n/a	n/a	n/a	n/a	n/a
1071497	REC_WORD	wordpools/wasnorm_wordpool.txt	LTP085	ltpFR	18	7	0	ARENA	37	n/a	1	n/a	n/a	n/a	n/a	n/a
1074051	REC_WORD	wordpools/wasnorm_wordpool.txt	LTP085	ltpFR	18	7	0	BANANA	77	n/a	0	n/a	n/a	n/a	n/a	n/a
1079349	REC_WORD	wordpools/wasnorm_wordpool.txt	LTP085	ltpFR	18	7	n/a	FOOTBALL	591	n/a	n/a	n/a	n/a	n/a	n/a	n/a
1084727	REC_WORD	wordpools/wasnorm_wordpool.txt	LTP085	ltpFR	18	7	n/a	APPLE	33	n/a	n/a	n/a	n/a	n/a	n/a	n/a
1086573	REC_WORD	wordpools/wasnorm_wordpool.txt	LTP085	ltpFR	18	7	0	PLUM	1090	n/a	0	n/a	n/a	n/a	n/a	n/a
1087980	REC_WORD	wordpools/wasnorm_wordpool.txt	LTP085	ltpFR	18	7	0	FOE	587	n/a	0	n/a	n/a	n/a	n/a	n/a
1093108	REC_WORD	wordpools/wasnorm_wordpool.txt	LTP085	ltpFR	18	7	0	SERPENT	1270	n/a	0	n/a	n/a	n/a	n/a	n/a
1095438	REC_WORD	wordpools/wasnorm_wordpool.txt	LTP085	ltpFR	18	7	0	SKULL	1320	n/a	0	n/a	n/a	n/a	n/a	n/a
1097398	REC_WORD	wordpools/wasnorm_wordpool.txt	LTP085	ltpFR	18	7	0	STRANGER	1389	n/a	1	n/a	n/a	n/a	n/a	n/a
1100172	REC_WORD	wordpools/wasnorm_wordpool.txt	LTP085	ltpFR	18	7	n/a	FRIEND	606	n/a	n/a	n/a	n/a	n/a	n/a	n/a
1110454	REC_WORD	wordpools/wasnorm_wordpool.txt	LTP085	ltpFR	18	7	0	WRENCH	1625	n/a	0	n/a	n/a	n/a	n/a	n/a
1177530	WORD	wordpools/wasnorm_wordpool.txt	LTP085	ltpFR	18	8	0	BARTENDER	92	n/a	1	0	0.5869140625	0.422607421875	lower	../fonts/amplitud.ttf
1181613	WORD	wordpools/wasnorm_wordpool.txt	LTP085	ltpFR	18	8	0	HOME	712	n/a	1	0	0.5869140625	0.422607421875	lower	../fonts/amplitud.ttf
1185504	WORD	wordpools/wasnorm_wordpool.txt	LTP085	ltpFR	18	8	0	SUNSET	1408	n/a	0	0	0.5869140625	0.422607421875	lower	../fonts/amplitud.ttf
1189329	WORD	wordpools/wasnorm_wordpool.txt	LTP085	ltpFR	18	8	0	COAL	332	n/a	0	0	0.5869140625	0.422607421875	lower	../fonts/amplitud.ttf
1193395	WORD	wordpools/wasnorm_wordpool.txt	LTP085	ltpFR	18	8	0	PASSENGER	1020	n/a	1	0	0.5869140625	0.422607421875	lower	../fonts/amplitud.ttf
1197453	WORD	wordpools/wasnorm_wordpool.txt	LTP085	ltpFR	18	8	0	VALVE	1546	n/a	0	0	0.5869140625	0.422607421875	lower	../fonts/amplitud.ttf
1201303	WORD	wordpools/wasnorm_wordpool.txt	LTP085	ltpFR	18	8	1	GREASE	660	n/a	0	1	0.412841796875	0.57763671875	upper	../fonts/zerothre.ttf
1205295	WORD	wordpools/wasnorm_wordpool.txt	LTP085	ltpFR	18	8	1	HEATER	698	n/a	0	1	0.412841796875	0.57763671875	upper	../fonts/zerothre.ttf
1209169	WORD	wordpools/wasnorm_wordpool.txt	LTP085	ltpFR	18	8	1	SHOWER	1296	n/a	0	1	0.412841796875	0.57763671875	upper	../fonts/zerothre.ttf
1213369	WORD	wordpools/wasnorm_wordpool.txt	LTP085	ltpFR	18	8	1	SNAKE	1333	n/a	1	1	0.412841796875	0.57763671875	upper	../fonts/zerothre.ttf
1217235	WORD	wordpools/wasnorm_wordpool.txt	LTP085	ltpFR	18	8	0	COBRA	336	n/a	1	0	0.5869140625	0.422607421875	lower	../fonts/amplitud.ttf
1221193	WORD	wordpools/wasnorm_wordpool.txt	LTP085	ltpFR	18	8	0	COMMUNITY	356	n/a	1	0	0.5869140625	0.422607421875	lower	../fonts/amplitud.ttf
1225260	WORD	wordpools/wasnorm_wordpool.txt	LTP085	ltpFR	18	8	1	BOUQUET	157	n/a	0	1	0.412841796875	0.57763671875	upper	../fonts/zerothre.ttf
1229351	WORD	wordpools/wasnorm_wordpool.txt	LTP085	ltpFR	18	8	1	BLUEJAY	141	n/a	1	1	0.412841796875	0.57763671875	upper	../fonts/zerothre.ttf
1233192	WORD	wordpools/wasnorm_wordpool.txt	LTP085	ltpFR	18	8	1	THESAURUS	1454	n/a	0	1	0.412841796875	0.57763671875	upper	../fonts/zerothre.ttf
1237175	WORD	wordpools/wasnorm_wordpool.txt	LTP085	ltpFR	18	8	1	DRINK	498	n/a	0	1	0.412841796875	0.57763671875	upper	../fonts/zerothre.ttf
1242959	REC_START	n/a	LTP085	ltpFR	18	8	n/a	n/a	n/a	n/a	n/a	n/a	n/a	n/a	n/a	n/a
1244450	REC_WORD	wordpools/wasnorm_wordpool.txt	LTP085	ltpFR	18	8	1	SNAKE	1333	n/a	1	n/a	n/a	n/a	n/a	n/a
1245643	REC_WORD	wordpools/wasnorm_wordpool.txt	LTP085	ltpFR	18	8	0	SERPENT	1270	n/a	0	n/a	n/a	n/a	n/a	n/a
1248187	REC_WORD	wordpools/wasnorm_wordpool.txt	LTP085	ltpFR	18	8	1	BLUEJAY	141	n/a	1	n/a	n/a	n/a	n/a	n/a
1249424	REC_WORD	wordpools/wasnorm_wordpool.txt	LTP085	ltpFR	18	8	1	SHOWER	1296	n/a	0	n/a	n/a	n/a	n/a	n/a
1250886	REC_WORD	wordpools/wasnorm_wordpool.txt	LTP085	ltpFR	18	8	1	HEATER	698	n/a	0	n/a	n/a	n/a	n/a	n/a
1254029	REC_WORD	wordpools/wasnorm_wordpool.txt	LTP085	ltpFR	18	8	1	DRINK	498	n/a	0	n/a	n/a	n/a	n/a	n/a
1256463	REC_WORD	wordpools/wasnorm_wordpool.txt	LTP085	ltpFR	18	8	0	ARENA	37	n/a	1	n/a	n/a	n/a	n/a	n/a
1259601	REC_WORD	wordpools/wasnorm_wordpool.txt	LTP085	ltpFR	18	8	0	VALVE	1546	n/a	0	n/a	n/a	n/a	n/a	n/a
1262509	REC_WORD	wordpools/wasnorm_wordpool.txt	LTP085	ltpFR	18	8	0	COMMUNITY	356	n/a	1	n/a	n/a	n/a	n/a	n/a
1264405	REC_WORD	wordpools/wasnorm_wordpool.txt	LTP085	ltpFR	18	8	0	COBRA	336	n/a	1	n/a	n/a	n/a	n/a	n/a
1266385	REC_WORD	wordpools/wasnorm_wordpool.txt	LTP085	ltpFR	18	8	n/a	PYTHON	-1	n/a	n/a	n/a	n/a	n/a	n/a	n/a
1271499	REC_WORD	wordpools/wasnorm_wordpool.txt	LTP085	ltpFR	18	8	0	HOME	712	n/a	1	n/a	n/a	n/a	n/a	n/a
1273759	REC_WORD	wordpools/wasnorm_wordpool.txt	LTP085	ltpFR	18	8	-1	CEILING	265	n/a	-1	n/a	n/a	n/a	n/a	n/a
1275999	REC_WORD	wordpools/wasnorm_wordpool.txt	LTP085	ltpFR	18	8	0	ROOF	1205	n/a	1	n/a	n/a	n/a	n/a	n/a
1282065	REC_WORD	wordpools/wasnorm_wordpool.txt	LTP085	ltpFR	18	8	0	PASSENGER	1020	n/a	1	n/a	n/a	n/a	n/a	n/a
1284514	REC_WORD	wordpools/wasnorm_wordpool.txt	LTP085	ltpFR	18	8	1	PASSAGE	1019	n/a	0	n/a	n/a	n/a	n/a	n/a
1297066	REC_WORD	wordpools/wasnorm_wordpool.txt	LTP085	ltpFR	18	8	0	DIVER	476	n/a	1	n/a	n/a	n/a	n/a	n/a
1315160	REC_WORD	wordpools/wasnorm_wordpool.txt	LTP085	ltpFR	18	8	0	PELICAN	1039	n/a	1	n/a	n/a	n/a	n/a	n/a
1341184	WORD	wordpools/wasnorm_wordpool.txt	LTP085	ltpFR	18	9	0	TOENAIL	1474	n/a	0	0	0.5869140625	0.422607421875	lower	../fonts/amplitud.ttf
1345092	WORD	wordpools/wasnorm_wordpool.txt	LTP085	ltpFR	18	9	0	SKELETON	1314	n/a	1	0	0.5869140625	0.422607421875	lower	../fonts/amplitud.ttf
1349284	WORD	wordpools/wasnorm_wordpool.txt	LTP085	ltpFR	18	9	0	LOFT	840	n/a	1	0	0.5869140625	0.422607421875	lower	../fonts/amplitud.ttf
1353467	WORD	wordpools/wasnorm_wordpool.txt	LTP085	ltpFR	18	9	0	PRAIRIE	1118	n/a	1	0	0.5869140625	0.422607421875	lower	../fonts/amplitud.ttf
1357633	WORD	wordpools/wasnorm_wordpool.txt	LTP085	ltpFR	18	9	1	JAW	751	n/a	0	1	0.412841796875	0.57763671875	upper	../fonts/zerothre.ttf
1361773	WORD	wordpools/wasnorm_wordpool.txt	LTP085	ltpFR	18	9	1	DENTIST	447	n/a	1	1	0.412841796875	0.57763671875	upper	../fonts/zerothre.ttf
1365599	WORD	wordpools/wasnorm_wordpool.txt	LTP085	ltpFR	18	9	1	WRIST	1626	n/a	0	1	0.412841796875	0.57763671875	upper	../fonts/zerothre.ttf
1369566	WORD	wordpools/wasnorm_wordpool.txt	LTP085	ltpFR	18	9	1	COD	340	n/a	1	1	0.412841796875	0.57763671875	upper	../fonts/zerothre.ttf
1373724	WORD	wordpools/wasnorm_wordpool.txt	LTP085	ltpFR	18	9	1	RACK	1154	n/a	0	1	0.412841796875	0.57763671875	upper	../fonts/zerothre.ttf
1377765	WORD	wordpools/wasnorm_wordpool.txt	LTP085	ltpFR	18	9	1	CROSS	413	n/a	0	1	0.412841796875	0.57763671875	upper	../fonts/zerothre.ttf
1381865	WORD	wordpools/wasnorm_wordpool.txt	LTP085	ltpFR	18	9	0	SEA	1259	n/a	1	0	0.5869140625	0.422607421875	lower	../fonts/amplitud.ttf
1385698	WORD	wordpools/wasnorm_wordpool.txt	LTP085	ltpFR	18	9	0	INTESTINE	742	n/a	1	0	0.5869140625	0.422607421875	lower	../fonts/amplitud.ttf
1389739	WORD	wordpools/wasnorm_wordpool.txt	LTP085	ltpFR	18	9	1	PICTURE	1061	n/a	0	1	0.412841796875	0.57763671875	upper	../fonts/zerothre.ttf
1393914	WORD	wordpools/wasnorm_wordpool.txt	LTP085	ltpFR	18	9	1	PRINCESS	1125	n/a	1	1	0.412841796875	0.57763671875	upper	../fonts/zerothre.ttf
1397822	WORD	wordpools/wasnorm_wordpool.txt	LTP085	ltpFR	18	9	0	QUEEN	1149	n/a	1	0	0.5869140625	0.422607421875	lower	../fonts/amplitud.ttf
1401663	WORD	wordpools/wasnorm_wordpool.txt	LTP085	ltpFR	18	9	0	APPENDAGE	32	n/a	0	0	0.5869140625	0.422607421875	lower	../fonts/amplitud.ttf
1407564	REC_START	n/a	LTP085	ltpFR	18	9	n/a	n/a	n/a	n/a	n/a	n/a	n/a	n/a	n/a	n/a
1408756	REC_WORD	wordpools/wasnorm_wordpool.txt	LTP085	ltpFR	18	9	0	QUEEN	1149	n/a	1	n/a	n/a	n/a	n/a	n/a
1410063	REC_WORD	wordpools/wasnorm_wordpool.txt	LTP085	ltpFR	18	9	1	PRINCESS	1125	n/a	1	n/a	n/a	n/a	n/a	n/a
1411749	REC_WORD	wordpools/wasnorm_wordpool.txt	LTP085	ltpFR	18	9	n/a	KING	777	n/a	n/a	n/a	n/a	n/a	n/a	n/a
1413999	REC_WORD	wordpools/wasnorm_wordpool.txt	LTP085	ltpFR	18	9	1	JAW	751	n/a	0	n/a	n/a	n/a	n/a	n/a
1415496	REC_WORD	wordpools/wasnorm_wordpool.txt	LTP085	ltpFR	18	9	1	WRIST	1626	n/a	0	n/a	n/a	n/a	n/a	n/a
1417227	REC_WORD	wordpools/wasnorm_wordpool.txt	LTP085	ltpFR	18	9	0	APPENDAGE	32	n/a	0	n/a	n/a	n/a	n/a	n/a
1423787	REC_WORD	wordpools/wasnorm_wordpool.txt	LTP085	ltpFR	18	9	0	INTESTINE	742	n/a	1	n/a	n/a	n/a	n/a	n/a
1426949	REC_WORD	wordpools/wasnorm_wordpool.txt	LTP085	ltpFR	18	9	n/a	STOMACH	1384	n/a	n/a	n/a	n/a	n/a	n/a	n/a
1430347	REC_WORD	wordpools/wasnorm_wordpool.txt	LTP085	ltpFR	18	9	0	SKELETON	1314	n/a	1	n/a	n/a	n/a	n/a	n/a
1432422	REC_WORD	wordpools/wasnorm_wordpool.txt	LTP085	ltpFR	18	9	0	SKULL	1320	n/a	0	n/a	n/a	n/a	n/a	n/a
1434717	REC_WORD	wordpools/wasnorm_wordpool.txt	LTP085	ltpFR	18	9	0	TOENAIL	1474	n/a	0	n/a	n/a	n/a	n/a	n/a
1436877	REC_WORD	wordpools/wasnorm_wordpool.txt	LTP085	ltpFR	18	9	1	COD	340	n/a	1	n/a	n/a	n/a	n/a	n/a
1439142	REC_WORD	wordpools/wasnorm_wordpool.txt	LTP085	ltpFR	18	9	1	TURTLE	1522	n/a	1	n/a	n/a	n/a	n/a	n/a
1471194	REC_WORD	wordpools/wasnorm_wordpool.txt	LTP085	ltpFR	18	9	n/a	BUTTERFLY	206	n/a	n/a	n/a	n/a	n/a	n/a	n/a
1475230	REC_WORD	wordpools/wasnorm_wordpool.txt	LTP085	ltpFR	18	9	0	SEA	1259	n/a	1	n/a	n/a	n/a	n/a	n/a
1478562	REC_WORD	wordpools/wasnorm_wordpool.txt	LTP085	ltpFR	18	9	n/a	OCEAN	970	n/a	n/a	n/a	n/a	n/a	n/a	n/a
1519021	WORD	wordpools/wasnorm_wordpool.txt	LTP085	ltpFR	18	10	1	DOVE	491	n/a	1	1	0.412841796875	0.57763671875	upper	../fonts/zerothre.ttf
1523121	WORD	wordpools/wasnorm_wordpool.txt	LTP085	ltpFR	18	10	1	WRITER	1627	n/a	1	1	0.412841796875	0.57763671875	upper	../fonts/zerothre.ttf
1527162	WORD	wordpools/wasnorm_wordpool.txt	LTP085	ltpFR	18	10	1	ENCYCLOPEDIA	533	n/a	0	1	0.412841796875	0.57763671875	upper	../fonts/zerothre.ttf
1531128	WORD	wordpools/wasnorm_wordpool.txt	LTP085	ltpFR	18	10	1	COCOON	339	n/a	1	1	0.412841796875	0.57763671875	upper	../fonts/zerothre.ttf
1535020	WORD	wordpools/wasnorm_wordpool.txt	LTP085	ltpFR	18	10	0	RACCOON	1153	n/a	0	0	0.5869140625	0.422607421875	lower	../fonts/amplitud.ttf
1539119	WORD	wordpools/wasnorm_wordpool.txt	LTP085	ltpFR	18	10	0	SCULPTURE	1258	n/a	1	0	0.5869140625	0.422607421875	lower	../fonts/amplitud.ttf
1543152	WORD	wordpools/wasnorm_wordpool.txt	LTP085	ltpFR	18	10	1	CONVENT	370	n/a	0	1	0.412841796875	0.57763671875	upper	../fonts/zerothre.ttf
1547335	WORD	wordpools/wasnorm_wordpool.txt	LTP085	ltpFR	18	10	1	HOOD	714	n/a	0	1	0.412841796875	0.57763671875	upper	../fonts/zerothre.ttf
1551269	WORD	wordpools/wasnorm_wordpool.txt	LTP085	ltpFR	18	10	1	OUTFIT	988	n/a	0	1	0.412841796875	0.57763671875	upper	../fonts/zerothre.ttf
1555160	WORD	wordpools/wasnorm_wordpool.txt	LTP085	ltpFR	18	10	1	PENGUIN	1044	n/a	1	1	0.412841796875	0.57763671875	upper	../fonts/zerothre.ttf
1559351	WORD	wordpools/wasnorm_wordpool.txt	LTP085	ltpFR	18	10	0	CANDLE	229	n/a	0	0	0.5869140625	0.422607421875	lower	../fonts/amplitud.ttf
1563443	WORD	wordpools/wasnorm_wordpool.txt	LTP085	ltpFR	18	10	0	LAPEL	800	n/a	0	0	0.5869140625	0.422607421875	lower	../fonts/amplitud.ttf
1567259	WORD	wordpools/wasnorm_wordpool.txt	LTP085	ltpFR	18	10	0	CARRIAGE	248	n/a	1	0	0.5869140625	0.422607421875	lower	../fonts/amplitud.ttf
1571367	WORD	wordpools/wasnorm_wordpool.txt	LTP085	ltpFR	18	10	0	SADDLE	1221	n/a	1	0	0.5869140625	0.422607421875	lower	../fonts/amplitud.ttf
1575442	WORD	wordpools/wasnorm_wordpool.txt	LTP085	ltpFR	18	10	0	BULB	192	n/a	0	0	0.5869140625	0.422607421875	lower	../fonts/amplitud.ttf
1579316	WORD	wordpools/wasnorm_wordpool.txt	LTP085	ltpFR	18	10	0	WARRIOR	1589	n/a	1	0	0.5869140625	0.422607421875	lower	../fonts/amplitud.ttf
1585083	REC_START	n/a	LTP085	ltpFR	18	10	n/a	n/a	n/a	n/a	n/a	n/a	n/a	n/a	n/a	n/a
1586474	REC_WORD	wordpools/wasnorm_wordpool.txt	LTP085	ltpFR	18	10	0	SADDLE	1221	n/a	1	n/a	n/a	n/a	n/a	n/a
1587777	REC_WORD	wordpools/wasnorm_wordpool.txt	LTP085	ltpFR	18	10	0	CARRIAGE	248	n/a	1	n/a	n/a	n/a	n/a	n/a
1589418	REC_WORD	wordpools/wasnorm_wordpool.txt	LTP085	ltpFR	18	10	0	WARRIOR	1589	n/a	1	n/a	n/a	n/a	n/a	n/a
1600707	REC_WORD	wordpools/wasnorm_wordpool.txt	LTP085	ltpFR	18	10	1	HOOD	714	n/a	0	n/a	n/a	n/a	n/a	n/a
1602239	REC_WORD	wordpools/wasnorm_wordpool.txt	LTP085	ltpFR	18	10	1	CONVENT	370	n/a	0	n/a	n/a	n/a	n/a	n/a
1603940	REC_WORD	wordpools/wasnorm_wordpool.txt	LTP085	ltpFR	18	10	1	DOVE	491	n/a	1	n/a	n/a	n/a	n/a	n/a
1605481	REC_WORD	wordpools/wasnorm_wordpool.txt	LTP085	ltpFR	18	10	1	WRITER	1627	n/a	1	n/a	n/a	n/a	n/a	n/a
1609597	REC_WORD	wordpools/wasnorm_wordpool.txt	LTP085	ltpFR	18	10	n/a	DICTIONARY	463	n/a	n/a	n/a	n/a	n/a	n/a	n/a
1611992	REC_WORD	wordpools/wasnorm_wordpool.txt	LTP085	ltpFR	18	10	1	THESAURUS	1454	n/a	0	n/a	n/a	n/a	n/a	n/a
1614486	REC_WORD	wordpools/wasnorm_wordpool.txt	LTP085	ltpFR	18	10	1	COAT	333	n/a	0	n/a	n/a	n/a	n/a	n/a
1621285	REC_WORD	wordpools/wasnorm_wordpool.txt	LTP085	ltpFR	18	10	1	BLUEJAY	141	n/a	1	n/a	n/a	n/a	n/a	n/a
1629457	REC_WORD	wordpools/wasnorm_wordpool.txt	LTP085	ltpFR	18	10	0	LITERATURE	831	n/a	0	n/a	n/a	n/a	n/a	n/a
1700932	WORD	wordpools/wasnorm_wordpool.txt	LTP085	ltpFR	18	11	1	CANDIDATE	228	n/a	0	1	0.412841796875	0.57763671875	upper	../fonts/zerothre.ttf
1705090	WORD	wordpools/wasnorm_wordpool.txt	LTP085	ltpFR	18	11	1	BALLOT	76	n/a	0	1	0.412841796875	0.57763671875	upper	../fonts/zerothre.ttf
1709207	WORD	wordpools/wasnorm_wordpool.txt	LTP085	ltpFR	18	11	1	FILM	565	n/a	0	1	0.412841796875	0.57763671875	upper	../fonts/zerothre.ttf
1713340	WORD	wordpools/wasnorm_wordpool.txt	LTP085	ltpFR	18	11	1	VINEGAR	1569	n/a	0	1	0.412841796875	0.57763671875	upper	../fonts/zerothre.ttf
1717506	WORD	wordpools/wasnorm_wordpool.txt	LTP085	ltpFR	18	11	0	PERFUME	1049	n/a	0	0	0.5869140625	0.422607421875	lower	../fonts/amplitud.ttf
1721564	WORD	wordpools/wasnorm_wordpool.txt	LTP085	ltpFR	18	11	0	MONSTER	912	n/a	1	0	0.5869140625	0.422607421875	lower	../fonts/amplitud.ttf
1725555	WORD	wordpools/wasnorm_wordpool.txt	LTP085	ltpFR	18	11	0	FAUCET	555	n/a	0	0	0.5869140625	0.422607421875	lower	../fonts/amplitud.ttf
1729488	WORD	wordpools/wasnorm_wordpool.txt	LTP085	ltpFR	18	11	0	WINGS	1614	n/a	0	0	0.5869140625	0.422607421875	lower	../fonts/amplitud.ttf
1733513	WORD	wordpools/wasnorm_wordpool.txt	LTP085	ltpFR	18	11	1	BEAST	108	n/a	1	1	0.412841796875	0.57763671875	upper	../fonts/zerothre.ttf
1737621	WORD	wordpools/wasnorm_wordpool.txt	LTP085	ltpFR	18	11	1	HERO	706	n/a	1	1	0.412841796875	0.57763671875	upper	../fonts/zerothre.ttf
1741786	WORD	wordpools/wasnorm_wordpool.txt	LTP085	ltpFR	18	11	0	BROOK	177	n/a	0	0	0.5869140625	0.422607421875	lower	../fonts/amplitud.ttf
1745754	WORD	wordpools/wasnorm_wordpool.txt	LTP085	ltpFR	18	11	0	EAGLE	512	n/a	1	0	0.5869140625	0.422607421875	lower	../fonts/amplitud.ttf
1749778	WORD	wordpools/wasnorm_wordpool.txt	LTP085	ltpFR	18	11	0	SWATTER	1418	n/a	0	0	0.5869140625	0.422607421875	lower	../fonts/amplitud.ttf
1753770	WORD	wordpools/wasnorm_wordpool.txt	LTP085	ltpFR	18	11	0	AIRCRAFT	11	n/a	1	0	0.5869140625	0.422607421875	lower	../fonts/amplitud.ttf
1757645	WORD	wordpools/wasnorm_wordpool.txt	LTP085	ltpFR	18	11	1	PIZZA	1079	n/a	0	1	0.412841796875	0.57763671875	upper	../fonts/zerothre.ttf
1761836	WORD	wordpools/wasnorm_wordpool.txt	LTP085	ltpFR	18	11	1	MILITARY	894	n/a	0	1	0.412841796875	0.57763671875	upper	../fonts/zerothre.ttf
1767802	REC_START	n/a	LTP085	ltpFR	18	11	n/a	n/a	n/a	n/a	n/a	n/a	n/a	n/a	n/a	n/a
1769114	REC_WORD	wordpools/wasnorm_wordpool.txt	LTP085	ltpFR	18	11	1	MILITARY	894	n/a	0	n/a	n/a	n/a	n/a	n/a
1770431	REC_WORD	wordpools/wasnorm_wordpool.txt	LTP085	ltpFR	18	11	0	AIRCRAFT	11	n/a	1	n/a	n/a	n/a	n/a	n/a
1772326	REC_WORD	wordpools/wasnorm_wordpool.txt	LTP085	ltpFR	18	11	1	HERO	706	n/a	1	n/a	n/a	n/a	n/a	n/a
1774921	REC_WORD	wordpools/wasnorm_wordpool.txt	LTP085	ltpFR	18	11	1	PIZZA	1079	n/a	0	n/a	n/a	n/a	n/a	n/a
1777300	REC_WORD	wordpools/wasnorm_wordpool.txt	LTP085	ltpFR	18	11	1	BEAST	108	n/a	1	n/a	n/a	n/a	n/a	n/a
1779261	REC_WORD	wordpools/wasnorm_wordpool.txt	LTP085	ltpFR	18	11	0	SWATTER	1418	n/a	0	n/a	n/a	n/a	n/a	n/a
1781241	REC_WORD	wordpools/wasnorm_wordpool.txt	LTP085	ltpFR	18	11	0	EAGLE	512	n/a	1	n/a	n/a	n/a	n/a	n/a
1783965	REC_WORD	wordpools/wasnorm_wordpool.txt	LTP085	ltpFR	18	11	-1	CREATURE	403	n/a	-1	n/a	n/a	n/a	n/a	n/a
1802049	REC_WORD	wordpools/wasnorm_wordpool.txt	LTP085	ltpFR	18	11	1	HERO	706	n/a	1	n/a	n/a	n/a	n/a	n/a
1811303	REC_WORD	wordpools/wasnorm_wordpool.txt	LTP085	ltpFR	18	11	0	SCARF	1246	n/a	0	n/a	n/a	n/a	n/a	n/a
1819529	REC_WORD	wordpools/wasnorm_wordpool.txt	LTP085	ltpFR	18	11	1	OUTFIT	988	n/a	0	n/a	n/a	n/a	n/a	n/a
1823720	REC_WORD	wordpools/wasnorm_wordpool.txt	LTP085	ltpFR	18	11	1	HOOD	714	n/a	0	n/a	n/a	n/a	n/a	n/a
1829152	REC_WORD	wordpools/wasnorm_wordpool.txt	LTP085	ltpFR	18	11	1	MILITARY	894	n/a	0	n/a	n/a	n/a	n/a	n/a
1840102	REC_WORD	wordpools/wasnorm_wordpool.txt	LTP085	ltpFR	18	11	1	CANDIDATE	228	n/a	0	n/a	n/a	n/a	n/a	n/a
1854429	WORD	wordpools/wasnorm_wordpool.txt	LTP085	ltpFR	18	12	1	RAISIN	1163	n/a	0	1	0.412841796875	0.57763671875	upper	../fonts/zerothre.ttf
1858245	WORD	wordpools/wasnorm_wordpool.txt	LTP085	ltpFR	18	12	1	FENCE	560	n/a	0	1	0.412841796875	0.57763671875	upper	../fonts/zerothre.ttf
1862178	WORD	wordpools/wasnorm_wordpool.txt	LTP085	ltpFR	18	12	1	MARINE	869	n/a	0	1	0.412841796875	0.57763671875	upper	../fonts/zerothre.ttf
1866087	WORD	wordpools/wasnorm_wordpool.txt	LTP085	ltpFR	18	12	1	PORT	1110	n/a	0	1	0.412841796875	0.57763671875	upper	../fonts/zerothre.ttf
1870211	WORD	wordpools/wasnorm_wordpool.txt	LTP085	ltpFR	18	12	1	GUEST	669	n/a	1	1	0.412841796875	0.57763671875	upper	../fonts/zerothre.ttf
1874394	WORD	wordpools/wasnorm_wordpool.txt	LTP085	ltpFR	18	12	1	PATIO	1025	n/a	0	1	0.412841796875	0.57763671875	upper	../fonts/zerothre.ttf
1878586	WORD	wordpools/wasnorm_wordpool.txt	LTP085	ltpFR	18	12	1	KEY	773	n/a	0	1	0.412841796875	0.57763671875	upper	../fonts/zerothre.ttf
1882735	WORD	wordpools/wasnorm_wordpool.txt	LTP085	ltpFR	18	12	1	APRON	35	n/a	0	1	0.412841796875	0.57763671875	upper	../fonts/zerothre.ttf
1886727	WORD	wordpools/wasnorm_wordpool.txt	LTP085	ltpFR	18	12	1	CATCHER	258	n/a	1	1	0.412841796875	0.57763671875	upper	../fonts/zerothre.ttf
1890710	WORD	wordpools/wasnorm_wordpool.txt	LTP085	ltpFR	18	12	1	PLANET	1082	n/a	0	1	0.412841796875	0.57763671875	upper	../fonts/zerothre.ttf
1894626	WORD	wordpools/wasnorm_wordpool.txt	LTP085	ltpFR	18	12	1	CASHIER	254	n/a	1	1	0.412841796875	0.57763671875	upper	../fonts/zerothre.ttf
1898701	WORD	wordpools/wasnorm_wordpool.txt	LTP085	ltpFR	18	12	1	METEOR	889	n/a	0	1	0.412841796875	0.57763671875	upper	../fonts/zerothre.ttf
1902642	WORD	wordpools/wasnorm_wordpool.txt	LTP085	ltpFR	18	12	1	ASTRONAUT	51	n/a	1	1	0.412841796875	0.57763671875	upper	../fonts/zerothre.ttf
1906583	WORD	wordpools/wasnorm_wordpool.txt	LTP085	ltpFR	18	12	1	BILL	126	n/a	0	1	0.412841796875	0.57763671875	upper	../fonts/zerothre.ttf
1910575	WORD	wordpools/wasnorm_wordpool.txt	LTP085	ltpFR	18	12	1	MAILBOX	857	n/a	0	1	0.412841796875	0.57763671875	upper	../fonts/zerothre.ttf
1914408	WORD	wordpools/wasnorm_wordpool.txt	LTP085	ltpFR	18	12	1	ATTIRE	57	n/a	0	1	0.412841796875	0.57763671875	upper	../fonts/zerothre.ttf
1920375	REC_START	n/a	LTP085	ltpFR	18	12	n/a	n/a	n/a	n/a	n/a	n/a	n/a	n/a	n/a	n/a
1921776	REC_WORD	wordpools/wasnorm_wordpool.txt	LTP085	ltpFR	18	12	1	ATTIRE	57	n/a	0	n/a	n/a	n/a	n/a	n/a
1923079	REC_WORD	wordpools/wasnorm_wordpool.txt	LTP085	ltpFR	18	12	1	MAILBOX	857	n/a	0	n/a	n/a	n/a	n/a	n/a
1924954	REC_WORD	wordpools/wasnorm_wordpool.txt	LTP085	ltpFR	18	12	1	BILL	126	n/a	0	n/a	n/a	n/a	n/a	n/a
1926421	REC_WORD	wordpools/wasnorm_wordpool.txt	LTP085	ltpFR	18	12	1	PORT	1110	n/a	0	n/a	n/a	n/a	n/a	n/a
1927997	REC_WORD	wordpools/wasnorm_wordpool.txt	LTP085	ltpFR	18	12	1	PATIO	1025	n/a	0	n/a	n/a	n/a	n/a	n/a
1930127	REC_WORD	wordpools/wasnorm_wordpool.txt	LTP085	ltpFR	18	12	0	AIRCRAFT	11	n/a	1	n/a	n/a	n/a	n/a	n/a
1935555	REC_WORD	wordpools/wasnorm_wordpool.txt	LTP085	ltpFR	18	12	1	GUEST	669	n/a	1	n/a	n/a	n/a	n/a	n/a
1942220	REC_WORD	wordpools/wasnorm_wordpool.txt	LTP085	ltpFR	18	12	1	PLANET	1082	n/a	0	n/a	n/a	n/a	n/a	n/a
1943487	REC_WORD	wordpools/wasnorm_wordpool.txt	LTP085	ltpFR	18	12	1	METEOR	889	n/a	0	n/a	n/a	n/a	n/a	n/a
1945278	REC_WORD	wordpools/wasnorm_wordpool.txt	LTP085	ltpFR	18	12	-1	PLUTO	1092	n/a	-1	n/a	n/a	n/a	n/a	n/a
1968885	REC_WORD	wordpools/wasnorm_wordpool.txt	LTP085	ltpFR	18	12	1	MARINE	869	n/a	0	n/a	n/a	n/a	n/a	n/a
1972451	REC_WORD	wordpools/wasnorm_wordpool.txt	LTP085	ltpFR	18	12	1	MILITARY	894	n/a	0	n/a	n/a	n/a	n/a	n/a
1979166	REC_WORD	wordpools/wasnorm_wordpool.txt	LTP085	ltpFR	18	12	1	SHIP	1286	n/a	0	n/a	n/a	n/a	n/a	n/a
1996002	REST_REWET	n/a	LTP085	ltpFR	18	12	n/a	n/a	n/a	n/a	n/a	n/a	n/a	n/a	n/a	n/a
2365798	WORD	wordpools/wasnorm_wordpool.txt	LTP085	ltpFR	18	13	1	CANDY	230	n/a	0	1	0.412841796875	0.57763671875	upper	../fonts/zerothre.ttf
2369857	WORD	wordpools/wasnorm_wordpool.txt	LTP085	ltpFR	18	13	1	PARTNER	1017	n/a	1	1	0.412841796875	0.57763671875	upper	../fonts/zerothre.ttf
2373965	WORD	wordpools/wasnorm_wordpool.txt	LTP085	ltpFR	18	13	1	HIKER	708	n/a	1	1	0.412841796875	0.57763671875	upper	../fonts/zerothre.ttf
2378040	WORD	wordpools/wasnorm_wordpool.txt	LTP085	ltpFR	18	13	1	PLIERS	1089	n/a	0	1	0.412841796875	0.57763671875	upper	../fonts/zerothre.ttf
2381923	WORD	wordpools/wasnorm_wordpool.txt	LTP085	ltpFR	18	13	1	CRUMB	416	n/a	0	1	0.412841796875	0.57763671875	upper	../fonts/zerothre.ttf
2386039	WORD	wordpools/wasnorm_wordpool.txt	LTP085	ltpFR	18	13	1	CAFE	216	n/a	0	1	0.412841796875	0.57763671875	upper	../fonts/zerothre.ttf
2390039	WORD	wordpools/wasnorm_wordpool.txt	LTP085	ltpFR	18	13	1	VIDEO	1564	n/a	0	1	0.412841796875	0.57763671875	upper	../fonts/zerothre.ttf
2394047	WORD	wordpools/wasnorm_wordpool.txt	LTP085	ltpFR	18	13	1	TELEVISION	1447	n/a	0	1	0.412841796875	0.57763671875	upper	../fonts/zerothre.ttf
2398113	WORD	wordpools/wasnorm_wordpool.txt	LTP085	ltpFR	18	13	1	COMPANION	357	n/a	0	1	0.412841796875	0.57763671875	upper	../fonts/zerothre.ttf
2402146	WORD	wordpools/wasnorm_wordpool.txt	LTP085	ltpFR	18	13	1	WILDERNESS	1610	n/a	0	1	0.412841796875	0.57763671875	upper	../fonts/zerothre.ttf
2406104	WORD	wordpools/wasnorm_wordpool.txt	LTP085	ltpFR	18	13	1	THICKET	1455	n/a	0	1	0.412841796875	0.57763671875	upper	../fonts/zerothre.ttf
2409979	WORD	wordpools/wasnorm_wordpool.txt	LTP085	ltpFR	18	13	1	TONGUE	1479	n/a	1	1	0.412841796875	0.57763671875	upper	../fonts/zerothre.ttf
2413912	WORD	wordpools/wasnorm_wordpool.txt	LTP085	ltpFR	18	13	1	SPIT	1354	n/a	0	1	0.412841796875	0.57763671875	upper	../fonts/zerothre.ttf
2417794	WORD	wordpools/wasnorm_wordpool.txt	LTP085	ltpFR	18	13	1	RANCH	1166	n/a	0	1	0.412841796875	0.57763671875	upper	../fonts/zerothre.ttf
2421861	WORD	wordpools/wasnorm_wordpool.txt	LTP085	ltpFR	18	13	1	GARDEN	623	n/a	0	1	0.412841796875	0.57763671875	upper	../fonts/zerothre.ttf
2425818	WORD	wordpools/wasnorm_wordpool.txt	LTP085	ltpFR	18	13	1	TOOTH	1481	n/a	0	1	0.412841796875	0.57763671875	upper	../fonts/zerothre.ttf
2431586	REC_START	n/a	LTP085	ltpFR	18	13	n/a	n/a	n/a	n/a	n/a	n/a	n/a	n/a	n/a	n/a
2432903	REC_WORD	wordpools/wasnorm_wordpool.txt	LTP085	ltpFR	18	13	1	TOOTH	1481	n/a	0	n/a	n/a	n/a	n/a	n/a
2434045	REC_WORD	wordpools/wasnorm_wordpool.txt	LTP085	ltpFR	18	13	1	TONGUE	1479	n/a	1	n/a	n/a	n/a	n/a	n/a
2435507	REC_WORD	wordpools/wasnorm_wordpool.txt	LTP085	ltpFR	18	13	1	SPIT	1354	n/a	0	n/a	n/a	n/a	n/a	n/a
2437722	REC_WORD	wordpools/wasnorm_wordpool.txt	LTP085	ltpFR	18	13	1	WILDERNESS	1610	n/a	0	n/a	n/a	n/a	n/a	n/a
2439303	REC_WORD	wordpools/wasnorm_wordpool.txt	LTP085	ltpFR	18	13	1	THICKET	1455	n/a	0	n/a	n/a	n/a	n/a	n/a
2440755	REC_WORD	wordpools/wasnorm_wordpool.txt	LTP085	ltpFR	18	13	1	GARDEN	623	n/a	0	n/a	n/a	n/a	n/a	n/a
2442361	REC_WORD	wordpools/wasnorm_wordpool.txt	LTP085	ltpFR	18	13	1	RANCH	1166	n/a	0	n/a	n/a	n/a	n/a	n/a
2444232	REC_WORD	wordpools/wasnorm_wordpool.txt	LTP085	ltpFR	18	13	1	VIDEO	1564	n/a	0	n/a	n/a	n/a	n/a	n/a
2446442	REC_WORD	wordpools/wasnorm_wordpool.txt	LTP085	ltpFR	18	13	1	CAFE	216	n/a	0	n/a	n/a	n/a	n/a	n/a
2448272	REC_WORD	wordpools/wasnorm_wordpool.txt	LTP085	ltpFR	18	13	1	FILM	565	n/a	0	n/a	n/a	n/a	n/a	n/a
2450643	REC_WORD	wordpools/wasnorm_wordpool.txt	LTP085	ltpFR	18	13	-1	COFFEE	341	n/a	-1	n/a	n/a	n/a	n/a	n/a
2456250	REC_WORD	wordpools/wasnorm_wordpool.txt	LTP085	ltpFR	18	13	1	PARTNER	1017	n/a	1	n/a	n/a	n/a	n/a	n/a
2459123	REC_WORD	wordpools/wasnorm_wordpool.txt	LTP085	ltpFR	18	13	1	HIKER	708	n/a	1	n/a	n/a	n/a	n/a	n/a
2463358	REC_WORD	wordpools/wasnorm_wordpool.txt	LTP085	ltpFR	18	13	n/a	STUDIO	-1	n/a	n/a	n/a	n/a	n/a	n/a	n/a
2469669	REC_WORD	wordpools/wasnorm_wordpool.txt	LTP085	ltpFR	18	13	1	PLIERS	1089	n/a	0	n/a	n/a	n/a	n/a	n/a
2472223	REC_WORD	wordpools/wasnorm_wordpool.txt	LTP085	ltpFR	18	13	0	SCREWDRIVER	1255	n/a	0	n/a	n/a	n/a	n/a	n/a
2474763	REC_WORD	wordpools/wasnorm_wordpool.txt	LTP085	ltpFR	18	13	0	TWEEZERS	1526	n/a	0	n/a	n/a	n/a	n/a	n/a
2503038	REC_WORD	wordpools/wasnorm_wordpool.txt	LTP085	ltpFR	18	13	0	MOUNTAIN	924	n/a	1	n/a	n/a	n/a	n/a	n/a
2528728	WORD	wordpools/wasnorm_wordpool.txt	LTP085	ltpFR	18	14	1	VESSEL	1558	n/a	0	1	0.412841796875	0.57763671875	upper	../fonts/zerothre.ttf
2532536	WORD	wordpools/wasnorm_wordpool.txt	LTP085	ltpFR	18	14	1	BAKER	71	n/a	1	1	0.412841796875	0.57763671875	upper	../fonts/zerothre.ttf
2536619	WORD	wordpools/wasnorm_wordpool.txt	LTP085	ltpFR	18	14	1	MOSQUITO	917	n/a	1	1	0.412841796875	0.57763671875	upper	../fonts/zerothre.ttf
2540719	WORD	wordpools/wasnorm_wordpool.txt	LTP085	ltpFR	18	14	1	BADGE	68	n/a	0	1	0.412841796875	0.57763671875	upper	../fonts/zerothre.ttf
2544735	WORD	wordpools/wasnorm_wordpool.txt	LTP085	ltpFR	18	14	1	MOAT	903	n/a	0	1	0.412841796875	0.57763671875	upper	../fonts/zerothre.ttf
2548927	WORD	wordpools/wasnorm_wordpool.txt	LTP085	ltpFR	18	14	1	FLEA	577	n/a	1	1	0.412841796875	0.57763671875	upper	../fonts/zerothre.ttf
2553101	WORD	wordpools/wasnorm_wordpool.txt	LTP085	ltpFR	18	14	1	ENGINE	535	n/a	0	1	0.412841796875	0.57763671875	upper	../fonts/zerothre.ttf
2556984	WORD	wordpools/wasnorm_wordpool.txt	LTP085	ltpFR	18	14	1	DRIVER	499	n/a	0	1	0.412841796875	0.57763671875	upper	../fonts/zerothre.ttf
2561068	WORD	wordpools/wasnorm_wordpool.txt	LTP085	ltpFR	18	14	1	SHELL	1281	n/a	0	1	0.412841796875	0.57763671875	upper	../fonts/zerothre.ttf
2565059	WORD	wordpools/wasnorm_wordpool.txt	LTP085	ltpFR	18	14	1	CORAL	378	n/a	1	1	0.412841796875	0.57763671875	upper	../fonts/zerothre.ttf
2568975	WORD	wordpools/wasnorm_wordpool.txt	LTP085	ltpFR	18	14	1	SWING	1421	n/a	0	1	0.412841796875	0.57763671875	upper	../fonts/zerothre.ttf
2573067	WORD	wordpools/wasnorm_wordpool.txt	LTP085	ltpFR	18	14	1	PIANO	1057	n/a	0	1	0.412841796875	0.57763671875	upper	../fonts/zerothre.ttf
2577225	WORD	wordpools/wasnorm_wordpool.txt	LTP085	ltpFR	18	14	1	TORCH	1484	n/a	0	1	0.412841796875	0.57763671875	upper	../fonts/zerothre.ttf
2581241	WORD	wordpools/wasnorm_wordpool.txt	LTP085	ltpFR	18	14	1	HOUND	724	n/a	1	1	0.412841796875	0.57763671875	upper	../fonts/zerothre.ttf
2585091	WORD	wordpools/wasnorm_wordpool.txt	LTP085	ltpFR	18	14	1	BREAD	170	n/a	0	1	0.412841796875	0.57763671875	upper	../fonts/zerothre.ttf
2589082	WORD	wordpools/wasnorm_wordpool.txt	LTP085	ltpFR	18	14	1	STEP	1377	n/a	0	1	0.412841796875	0.57763671875	upper	../fonts/zerothre.ttf
2594782	REC_START	n/a	LTP085	ltpFR	18	14	n/a	n/a	n/a	n/a	n/a	n/a	n/a	n/a	n/a	n/a
2595914	REC_WORD	wordpools/wasnorm_wordpool.txt	LTP085	ltpFR	18	14	1	STEP	1377	n/a	0	n/a	n/a	n/a	n/a	n/a
2596957	REC_WORD	wordpools/wasnorm_wordpool.txt	LTP085	ltpFR	18	14	1	PIANO	1057	n/a	0	n/a	n/a	n/a	n/a	n/a
2598813	REC_WORD	wordpools/wasnorm_wordpool.txt	LTP085	ltpFR	18	14	1	BAKER	71	n/a	1	n/a	n/a	n/a	n/a	n/a
2599890	REC_WORD	wordpools/wasnorm_wordpool.txt	LTP085	ltpFR	18	14	1	DRIVER	499	n/a	0	n/a	n/a	n/a	n/a	n/a
2607548	REC_WORD	wordpools/wasnorm_wordpool.txt	LTP085	ltpFR	18	14	1	BREAD	170	n/a	0	n/a	n/a	n/a	n/a	n/a
2611025	REC_WORD	wordpools/wasnorm_wordpool.txt	LTP085	ltpFR	18	14	1	HIKER	708	n/a	1	n/a	n/a	n/a	n/a	n/a
2613998	REC_WORD	wordpools/wasnorm_wordpool.txt	LTP085	ltpFR	18	14	1	SWING	1421	n/a	0	n/a	n/a	n/a	n/a	n/a
2616238	REC_WORD	wordpools/wasnorm_wordpool.txt	LTP085	ltpFR	18	14	1	PATIO	1025	n/a	0	n/a	n/a	n/a	n/a	n/a
2618583	REC_WORD	wordpools/wasnorm_wordpool.txt	LTP085	ltpFR	18	14	0	HOME	712	n/a	1	n/a	n/a	n/a	n/a	n/a
2628375	REC_WORD	wordpools/wasnorm_wordpool.txt	LTP085	ltpFR	18	14	1	PIANO	1057	n/a	0	n/a	n/a	n/a	n/a	n/a
2632327	REC_WORD	wordpools/wasnorm_wordpool.txt	LTP085	ltpFR	18	14	1	GARDEN	623	n/a	0	n/a	n/a	n/a	n/a	n/a
2643845	REC_WORD	wordpools/wasnorm_wordpool.txt	LTP085	ltpFR	18	14	1	SHELL	1281	n/a	0	n/a	n/a	n/a	n/a	n/a
2646145	REC_WORD	wordpools/wasnorm_wordpool.txt	LTP085	ltpFR	18	14	1	MARINE	869	n/a	0	n/a	n/a	n/a	n/a	n/a
2687441	WORD	wordpools/wasnorm_wordpool.txt	LTP085	ltpFR	18	15	-1	SILVERWARE	1308	n/a	-1	1	1.0	1.0	upper	../fonts/Verdana.ttf
2691274	WORD	wordpools/wasnorm_wordpool.txt	LTP085	ltpFR	18	15	-1	CHIP	303	n/a	-1	1	1.0	1.0	upper	../fonts/Verdana.ttf
2695416	WORD	wordpools/wasnorm_wordpool.txt	LTP085	ltpFR	18	15	-1	SPHINX	1349	n/a	-1	1	1.0	1.0	upper	../fonts/Verdana.ttf
2699590	WORD	wordpools/wasnorm_wordpool.txt	LTP085	ltpFR	18	15	-1	FOREST	593	n/a	-1	1	1.0	1.0	upper	../fonts/Verdana.ttf
2703632	WORD	wordpools/wasnorm_wordpool.txt	LTP085	ltpFR	18	15	-1	BUSH	202	n/a	-1	1	1.0	1.0	upper	../fonts/Verdana.ttf
2707781	WORD	wordpools/wasnorm_wordpool.txt	LTP085	ltpFR	18	15	-1	WEB	1598	n/a	-1	1	1.0	1.0	upper	../fonts/Verdana.ttf
2711931	WORD	wordpools/wasnorm_wordpool.txt	LTP085	ltpFR	18	15	-1	AFRICA	9	n/a	-1	1	1.0	1.0	upper	../fonts/Verdana.ttf
2715780	WORD	wordpools/wasnorm_wordpool.txt	LTP085	ltpFR	18	15	-1	WASP	1593	n/a	-1	1	1.0	1.0	upper	../fonts/Verdana.ttf
2719597	WORD	wordpools/wasnorm_wordpool.txt	LTP085	ltpFR	18	15	-1	PORTRAIT	1111	n/a	-1	1	1.0	1.0	upper	../fonts/Verdana.ttf
2723522	WORD	wordpools/wasnorm_wordpool.txt	LTP085	ltpFR	18	15	-1	PATIENT	1024	n/a	-1	1	1.0	1.0	upper	../fonts/Verdana.ttf
2727413	WORD	wordpools/wasnorm_wordpool.txt	LTP085	ltpFR	18	15	-1	SURGEON	1413	n/a	-1	1	1.0	1.0	upper	../fonts/Verdana.ttf
2731596	WORD	wordpools/wasnorm_wordpool.txt	LTP085	ltpFR	18	15	-1	CHAMPAGNE	278	n/a	-1	1	1.0	1.0	upper	../fonts/Verdana.ttf
2735404	WORD	wordpools/wasnorm_wordpool.txt	LTP085	ltpFR	18	15	-1	LOUNGE	845	n/a	-1	1	1.0	1.0	upper	../fonts/Verdana.ttf
2739246	WORD	wordpools/wasnorm_wordpool.txt	LTP085	ltpFR	18	15	-1	BRANCH	168	n/a	-1	1	1.0	1.0	upper	../fonts/Verdana.ttf
2743295	WORD	wordpools/wasnorm_wordpool.txt	LTP085	ltpFR	18	15	-1	MASK	876	n/a	-1	1	1.0	1.0	upper	../fonts/Verdana.ttf
2747254	WORD	wordpools/wasnorm_wordpool.txt	LTP085	ltpFR	18	15	-1	PLANT	1083	n/a	-1	1	1.0	1.0	upper	../fonts/Verdana.ttf
2753012	REC_START	n/a	LTP085	ltpFR	18	15	n/a	n/a	n/a	n/a	n/a	n/a	n/a	n/a	n/a	n/a
2758335	REC_WORD	wordpools/wasnorm_wordpool.txt	LTP085	ltpFR	18	15	-1	SILVERWARE	1308	n/a	-1	n/a	n/a	n/a	n/a	n/a
2759876	REC_WORD	wordpools/wasnorm_wordpool.txt	LTP085	ltpFR	18	15	-1	CHIP	303	n/a	-1	n/a	n/a	n/a	n/a	n/a
2761342	REC_WORD	wordpools/wasnorm_wordpool.txt	LTP085	ltpFR	18	15	-1	SPHINX	1349	n/a	-1	n/a	n/a	n/a	n/a	n/a
2763059	REC_WORD	wordpools/wasnorm_wordpool.txt	LTP085	ltpFR	18	15	-1	WEB	1598	n/a	-1	n/a	n/a	n/a	n/a	n/a
2766346	REC_WORD	wordpools/wasnorm_wordpool.txt	LTP085	ltpFR	18	15	1	HORNET	718	n/a	1	n/a	n/a	n/a	n/a	n/a
2772597	REC_WORD	wordpools/wasnorm_wordpool.txt	LTP085	ltpFR	18	15	-1	PORTRAIT	1111	n/a	-1	n/a	n/a	n/a	n/a	n/a
2777576	REC_WORD	wordpools/wasnorm_wordpool.txt	LTP085	ltpFR	18	15	-1	FOREST	593	n/a	-1	n/a	n/a	n/a	n/a	n/a
2779182	REC_WORD	wordpools/wasnorm_wordpool.txt	LTP085	ltpFR	18	15	-1	BUSH	202	n/a	-1	n/a	n/a	n/a	n/a	n/a
2781258	REC_WORD	wordpools/wasnorm_wordpool.txt	LTP085	ltpFR	18	15	-1	AFRICA	9	n/a	-1	n/a	n/a	n/a	n/a	n/a
2784051	REC_WORD	wordpools/wasnorm_wordpool.txt	LTP085	ltpFR	18	15	-1	PATIENT	1024	n/a	-1	n/a	n/a	n/a	n/a	n/a
2785583	REC_WORD	wordpools/wasnorm_wordpool.txt	LTP085	ltpFR	18	15	-1	SURGEON	1413	n/a	-1	n/a	n/a	n/a	n/a	n/a
2787563	REC_WORD	wordpools/wasnorm_wordpool.txt	LTP085	ltpFR	18	15	-1	LOUNGE	845	n/a	-1	n/a	n/a	n/a	n/a	n/a
2789474	REC_WORD	wordpools/wasnorm_wordpool.txt	LTP085	ltpFR	18	15	n/a	COUCH	386	n/a	n/a	n/a	n/a	n/a	n/a	n/a
2791599	REC_WORD	wordpools/wasnorm_wordpool.txt	LTP085	ltpFR	18	15	0	PRAIRIE	1118	n/a	1	n/a	n/a	n/a	n/a	n/a
2796318	REC_WORD	wordpools/wasnorm_wordpool.txt	LTP085	ltpFR	18	15	-1	BRANCH	168	n/a	-1	n/a	n/a	n/a	n/a	n/a
2798179	REC_WORD	wordpools/wasnorm_wordpool.txt	LTP085	ltpFR	18	15	-1	PLANT	1083	n/a	-1	n/a	n/a	n/a	n/a	n/a
2799980	REC_WORD	wordpools/wasnorm_wordpool.txt	LTP085	ltpFR	18	15	-1	MASK	876	n/a	-1	n/a	n/a	n/a	n/a	n/a
2802030	REC_WORD	wordpools/wasnorm_wordpool.txt	LTP085	ltpFR	18	15	-1	CHAMPAGNE	278	n/a	-1	n/a	n/a	n/a	n/a	n/a
2804325	REC_WORD	wordpools/wasnorm_wordpool.txt	LTP085	ltpFR	18	15	1	PORT	1110	n/a	0	n/a	n/a	n/a	n/a	n/a
2858004	WORD	wordpools/wasnorm_wordpool.txt	LTP085	ltpFR	18	16	0	KNIFE	785	n/a	0	0	0.5869140625	0.422607421875	lower	../fonts/amplitud.ttf
2861878	WORD	wordpools/wasnorm_wordpool.txt	LTP085	ltpFR	18	16	0	GUN	673	n/a	1	0	0.5869140625	0.422607421875	lower	../fonts/amplitud.ttf
2866003	WORD	wordpools/wasnorm_wordpool.txt	LTP085	ltpFR	18	16	0	CABOOSE	214	n/a	1	0	0.5869140625	0.422607421875	lower	../fonts/amplitud.ttf
2870169	WORD	wordpools/wasnorm_wordpool.txt	LTP085	ltpFR	18	16	0	BUTCHER	203	n/a	1	0	0.5869140625	0.422607421875	lower	../fonts/amplitud.ttf
2874077	WORD	wordpools/wasnorm_wordpool.txt	LTP085	ltpFR	18	16	0	CONDUCTOR	362	n/a	1	0	0.5869140625	0.422607421875	lower	../fonts/amplitud.ttf
2878277	WORD	wordpools/wasnorm_wordpool.txt	LTP085	ltpFR	18	16	0	SANDWICH	1232	n/a	0	0	0.5869140625	0.422607421875	lower	../fonts/amplitud.ttf
2882302	WORD	wordpools/wasnorm_wordpool.txt	LTP085	ltpFR	18	16	0	BUCKLE	185	n/a	0	0	0.5869140625	0.422607421875	lower	../fonts/amplitud.ttf
2886360	WORD	wordpools/wasnorm_wordpool.txt	LTP085	ltpFR	18	16	0	SHRIMP	1297	n/a	0	0	0.5869140625	0.422607421875	lower	../fonts/amplitud.ttf
2890501	WORD	wordpools/wasnorm_wordpool.txt	LTP085	ltpFR	18	16	0	ANIMAL	23	n/a	0	0	0.5869140625	0.422607421875	lower	../fonts/amplitud.ttf
2894534	WORD	wordpools/wasnorm_wordpool.txt	LTP085	ltpFR	18	16	0	SUPERVISOR	1410	n/a	1	0	0.5869140625	0.422607421875	lower	../fonts/amplitud.ttf
2898409	WORD	wordpools/wasnorm_wordpool.txt	LTP085	ltpFR	18	16	0	FOLLOWER	589	n/a	1	0	0.5869140625	0.422607421875	lower	../fonts/amplitud.ttf
2902317	WORD	wordpools/wasnorm_wordpool.txt	LTP085	ltpFR	18	16	0	NET	946	n/a	0	0	0.5869140625	0.422607421875	lower	../fonts/amplitud.ttf
2906267	WORD	wordpools/wasnorm_wordpool.txt	LTP085	ltpFR	18	16	0	BUCKET	184	n/a	0	0	0.5869140625	0.422607421875	lower	../fonts/amplitud.ttf
2910266	WORD	wordpools/wasnorm_wordpool.txt	LTP085	ltpFR	18	16	0	WATER	1594	n/a	0	0	0.5869140625	0.422607421875	lower	../fonts/amplitud.ttf
2914399	WORD	wordpools/wasnorm_wordpool.txt	LTP085	ltpFR	18	16	0	FROG	608	n/a	0	0	0.5869140625	0.422607421875	lower	../fonts/amplitud.ttf
2918474	WORD	wordpools/wasnorm_wordpool.txt	LTP085	ltpFR	18	16	0	DUCK	504	n/a	0	0	0.5869140625	0.422607421875	lower	../fonts/amplitud.ttf
2924374	REC_START	n/a	LTP085	ltpFR	18	16	n/a	n/a	n/a	n/a	n/a	n/a	n/a	n/a	n/a	n/a
2926434	REC_WORD	wordpools/wasnorm_wordpool.txt	LTP085	ltpFR	18	16	0	DUCK	504	n/a	0	n/a	n/a	n/a	n/a	n/a
2927153	REC_WORD_VV	wordpools/wasnorm_wordpool.txt	LTP085	ltpFR	18	16	n/a	<>	-1	n/a	n/a	n/a	n/a	n/a	n/a	n/a
2927582	REC_WORD	wordpools/wasnorm_wordpool.txt	LTP085	ltpFR	18	16	0	FROG	608	n/a	0	n/a	n/a	n/a	n/a	n/a
2929322	REC_WORD	wordpools/wasnorm_wordpool.txt	LTP085	ltpFR	18	16	0	WATER	1594	n/a	0	n/a	n/a	n/a	n/a	n/a
2930879	REC_WORD	wordpools/wasnorm_wordpool.txt	LTP085	ltpFR	18	16	0	BUCKET	184	n/a	0	n/a	n/a	n/a	n/a	n/a
2932765	REC_WORD	wordpools/wasnorm_wordpool.txt	LTP085	ltpFR	18	16	0	BUCKLE	185	n/a	0	n/a	n/a	n/a	n/a	n/a
2934925	REC_WORD	wordpools/wasnorm_wordpool.txt	LTP085	ltpFR	18	16	0	CABOOSE	214	n/a	1	n/a	n/a	n/a	n/a	n/a
2937908	REC_WORD	wordpools/wasnorm_wordpool.txt	LTP085	ltpFR	18	16	n/a	ENGINEER	536	n/a	n/a	n/a	n/a	n/a	n/a	n/a
2940103	REC_WORD	wordpools/wasnorm_wordpool.txt	LTP085	ltpFR	18	16	0	CONDUCTOR	362	n/a	1	n/a	n/a	n/a	n/a	n/a
2942368	REC_WORD	wordpools/wasnorm_wordpool.txt	LTP085	ltpFR	18	16	0	KNIFE	785	n/a	0	n/a	n/a	n/a	n/a	n/a
2944179	REC_WORD	wordpools/wasnorm_wordpool.txt	LTP085	ltpFR	18	16	0	GUN	673	n/a	1	n/a	n/a	n/a	n/a	n/a
2949856	REC_WORD	wordpools/wasnorm_wordpool.txt	LTP085	ltpFR	18	16	0	ANIMAL	23	n/a	0	n/a	n/a	n/a	n/a	n/a
2951821	REC_WORD	wordpools/wasnorm_wordpool.txt	LTP085	ltpFR	18	16	0	FOLLOWER	589	n/a	1	n/a	n/a	n/a	n/a	n/a
2954231	REC_WORD	wordpools/wasnorm_wordpool.txt	LTP085	ltpFR	18	16	0	SUPERVISOR	1410	n/a	1	n/a	n/a	n/a	n/a	n/a
2956960	REC_WORD	wordpools/wasnorm_wordpool.txt	LTP085	ltpFR	18	16	n/a	EGG	518	n/a	n/a	n/a	n/a	n/a	n/a	n/a
2973672	REC_WORD	wordpools/wasnorm_wordpool.txt	LTP085	ltpFR	18	16	0	WATER	1594	n/a	0	n/a	n/a	n/a	n/a	n/a
2979254	REC_WORD	wordpools/wasnorm_wordpool.txt	LTP085	ltpFR	18	16	-1	PLUTO	1092	n/a	-1	n/a	n/a	n/a	n/a	n/a
2981943	REC_WORD	wordpools/wasnorm_wordpool.txt	LTP085	ltpFR	18	16	0	SEA	1259	n/a	1	n/a	n/a	n/a	n/a	n/a
2987735	REC_WORD	wordpools/wasnorm_wordpool.txt	LTP085	ltpFR	18	16	n/a	GOOSE	649	n/a	n/a	n/a	n/a	n/a	n/a	n/a
2992713	REC_WORD	wordpools/wasnorm_wordpool.txt	LTP085	ltpFR	18	16	-1	SPHINX	1349	n/a	-1	n/a	n/a	n/a	n/a	n/a
3018759	REC_START	n/a	LTP085	ltpFR	18	n/a	n/a	n/a	n/a	n/a	n/a	n/a	n/a	n/a	n/a	n/a
3021213	FFR_REC_WORD	wordpools/wasnorm_wordpool.txt	LTP085	ltpFR	18	n/a	-1	DICTATOR	462	n/a	-1	n/a	n/a	n/a	n/a	n/a
3022550	FFR_REC_WORD	wordpools/wasnorm_wordpool.txt	LTP085	ltpFR	18	n/a	-1	CHAIRPERSON	275	n/a	-1	n/a	n/a	n/a	n/a	n/a
3024456	FFR_REC_WORD	wordpools/wasnorm_wordpool.txt	LTP085	ltpFR	18	n/a	-1	ADULT	8	n/a	-1	n/a	n/a	n/a	n/a	n/a
3025124	FFR_REC_WORD	wordpools/wasnorm_wordpool.txt	LTP085	ltpFR	18	n/a	-1	ADOLESCENT	7	n/a	-1	n/a	n/a	n/a	n/a	n/a
3027015	FFR_REC_WORD	wordpools/wasnorm_wordpool.txt	LTP085	ltpFR	18	n/a	-1	STEREO	1378	n/a	-1	n/a	n/a	n/a	n/a	n/a
3028302	FFR_REC_WORD	wordpools/wasnorm_wordpool.txt	LTP085	ltpFR	18	n/a	-1	VEST	1559	n/a	-1	n/a	n/a	n/a	n/a	n/a
3031076	FFR_REC_WORD	wordpools/wasnorm_wordpool.txt	LTP085	ltpFR	18	n/a	n/a	DOCTOR	478	n/a	n/a	n/a	n/a	n/a	n/a	n/a
3032408	FFR_REC_WORD	wordpools/wasnorm_wordpool.txt	LTP085	ltpFR	18	n/a	-1	PATIENT	1024	n/a	-1	n/a	n/a	n/a	n/a	n/a
3033425	FFR_REC_WORD	wordpools/wasnorm_wordpool.txt	LTP085	ltpFR	18	n/a	-1	SURGEON	1413	n/a	-1	n/a	n/a	n/a	n/a	n/a
3035067	FFR_REC_WORD	wordpools/wasnorm_wordpool.txt	LTP085	ltpFR	18	n/a	-1	LOUNGE	845	n/a	-1	n/a	n/a	n/a	n/a	n/a
3036204	FFR_REC_WORD	wordpools/wasnorm_wordpool.txt	LTP085	ltpFR	18	n/a	-1	BRANCH	168	n/a	-1	n/a	n/a	n/a	n/a	n/a
3037301	FFR_REC_WORD	wordpools/wasnorm_wordpool.txt	LTP085	ltpFR	18	n/a	-1	MASK	876	n/a	-1	n/a	n/a	n/a	n/a	n/a
3038424	FFR_REC_WORD	wordpools/wasnorm_wordpool.txt	LTP085	ltpFR	18	n/a	-1	PLANT	1083	n/a	-1	n/a	n/a	n/a	n/a	n/a
3040175	FFR_REC_WORD	wordpools/wasnorm_wordpool.txt	LTP085	ltpFR	18	n/a	-1	SPHINX	1349	n/a	-1	n/a	n/a	n/a	n/a	n/a
3041307	FFR_REC_WORD	wordpools/wasnorm_wordpool.txt	LTP085	ltpFR	18	n/a	-1	SILVERWARE	1308	n/a	-1	n/a	n/a	n/a	n/a	n/a
3044495	FFR_REC_WORD	wordpools/wasnorm_wordpool.txt	LTP085	ltpFR	18	n/a	-1	CHIP	303	n/a	-1	n/a	n/a	n/a	n/a	n/a
3046590	FFR_REC_WORD	wordpools/wasnorm_wordpool.txt	LTP085	ltpFR	18	n/a	-1	FOREST	593	n/a	-1	n/a	n/a	n/a	n/a	n/a
3047888	FFR_REC_WORD	wordpools/wasnorm_wordpool.txt	LTP085	ltpFR	18	n/a	-1	BUSH	202	n/a	-1	n/a	n/a	n/a	n/a	n/a
3049274	FFR_REC_WORD	wordpools/wasnorm_wordpool.txt	LTP085	ltpFR	18	n/a	-1	AFRICA	9	n/a	-1	n/a	n/a	n/a	n/a	n/a
3050741	FFR_REC_WORD	wordpools/wasnorm_wordpool.txt	LTP085	ltpFR	18	n/a	-1	ASIA	46	n/a	-1	n/a	n/a	n/a	n/a	n/a
3052582	FFR_REC_WORD	wordpools/wasnorm_wordpool.txt	LTP085	ltpFR	18	n/a	-1	CASTLE	256	n/a	-1	n/a	n/a	n/a	n/a	n/a
3053644	FFR_REC_WORD	wordpools/wasnorm_wordpool.txt	LTP085	ltpFR	18	n/a	-1	ROCKET	1202	n/a	-1	n/a	n/a	n/a	n/a	n/a
3055326	FFR_REC_WORD	wordpools/wasnorm_wordpool.txt	LTP085	ltpFR	18	n/a	-1	RICE	1190	n/a	-1	n/a	n/a	n/a	n/a	n/a
3056698	FFR_REC_WORD	wordpools/wasnorm_wordpool.txt	LTP085	ltpFR	18	n/a	-1	THIEF	1456	n/a	-1	n/a	n/a	n/a	n/a	n/a
3057900	FFR_REC_WORD	wordpools/wasnorm_wordpool.txt	LTP085	ltpFR	18	n/a	-1	SEAT	1264	n/a	-1	n/a	n/a	n/a	n/a	n/a
3059780	FFR_REC_WORD	wordpools/wasnorm_wordpool.txt	LTP085	ltpFR	18	n/a	-1	MEAL	882	n/a	-1	n/a	n/a	n/a	n/a	n/a
3060833	FFR_REC_WORD	wordpools/wasnorm_wordpool.txt	LTP085	ltpFR	18	n/a	-1	SNACK	1331	n/a	-1	n/a	n/a	n/a	n/a	n/a
3062155	FFR_REC_WORD	wordpools/wasnorm_wordpool.txt	LTP085	ltpFR	18	n/a	-1	DINNER	468	n/a	-1	n/a	n/a	n/a	n/a	n/a
3064944	FFR_REC_WORD	wordpools/wasnorm_wordpool.txt	LTP085	ltpFR	18	n/a	-1	MARROW	872	n/a	-1	n/a	n/a	n/a	n/a	n/a
3066266	FFR_REC_WORD	wordpools/wasnorm_wordpool.txt	LTP085	ltpFR	18	n/a	-1	JOINT	758	n/a	-1	n/a	n/a	n/a	n/a	n/a
3079516	FFR_REC_WORD	wordpools/wasnorm_wordpool.txt	LTP085	ltpFR	18	n/a	-1	CABLE	213	n/a	-1	n/a	n/a	n/a	n/a	n/a
3080453	FFR_REC_WORD	wordpools/wasnorm_wordpool.txt	LTP085	ltpFR	18	n/a	-1	HANDKERCHIEF	686	n/a	-1	n/a	n/a	n/a	n/a	n/a
3081681	FFR_REC_WORD	wordpools/wasnorm_wordpool.txt	LTP085	ltpFR	18	n/a	-1	CEILING	265	n/a	-1	n/a	n/a	n/a	n/a	n/a
3083387	FFR_REC_WORD	wordpools/wasnorm_wordpool.txt	LTP085	ltpFR	18	n/a	0	ROOF	1205	n/a	1	n/a	n/a	n/a	n/a	n/a
3084519	FFR_REC_WORD	wordpools/wasnorm_wordpool.txt	LTP085	ltpFR	18	n/a	0	HOME	712	n/a	1	n/a	n/a	n/a	n/a	n/a
3086330	FFR_REC_WORD	wordpools/wasnorm_wordpool.txt	LTP085	ltpFR	18	n/a	0	ARENA	37	n/a	1	n/a	n/a	n/a	n/a	n/a
3087862	FFR_REC_WORD	wordpools/wasnorm_wordpool.txt	LTP085	ltpFR	18	n/a	0	CLAY	320	n/a	0	n/a	n/a	n/a	n/a	n/a
3088964	FFR_REC_WORD	wordpools/wasnorm_wordpool.txt	LTP085	ltpFR	18	n/a	n/a	ARTIST	43	n/a	n/a	n/a	n/a	n/a	n/a	n/a
3090556	FFR_REC_WORD	wordpools/wasnorm_wordpool.txt	LTP085	ltpFR	18	n/a	0	PAINT	1003	n/a	0	n/a	n/a	n/a	n/a	n/a
3091763	FFR_REC_WORD	wordpools/wasnorm_wordpool.txt	LTP085	ltpFR	18	n/a	0	CANVAS	234	n/a	1	n/a	n/a	n/a	n/a	n/a
3093384	FFR_REC_WORD	wordpools/wasnorm_wordpool.txt	LTP085	ltpFR	18	n/a	1	MARINE	869	n/a	0	n/a	n/a	n/a	n/a	n/a
3094601	FFR_REC_WORD	wordpools/wasnorm_wordpool.txt	LTP085	ltpFR	18	n/a	1	MILITARY	894	n/a	0	n/a	n/a	n/a	n/a	n/a
3096607	FFR_REC_WORD	wordpools/wasnorm_wordpool.txt	LTP085	ltpFR	18	n/a	0	FROG	608	n/a	0	n/a	n/a	n/a	n/a	n/a
3097829	FFR_REC_WORD	wordpools/wasnorm_wordpool.txt	LTP085	ltpFR	18	n/a	0	DUCK	504	n/a	0	n/a	n/a	n/a	n/a	n/a
3098932	FFR_REC_WORD	wordpools/wasnorm_wordpool.txt	LTP085	ltpFR	18	n/a	1	BLUEJAY	141	n/a	1	n/a	n/a	n/a	n/a	n/a
3100967	FFR_REC_WORD	wordpools/wasnorm_wordpool.txt	LTP085	ltpFR	18	n/a	1	BAKER	71	n/a	1	n/a	n/a	n/a	n/a	n/a
3102074	FFR_REC_WORD	wordpools/wasnorm_wordpool.txt	LTP085	ltpFR	18	n/a	1	DRIVER	499	n/a	0	n/a	n/a	n/a	n/a	n/a
3103312	FFR_REC_WORD	wordpools/wasnorm_wordpool.txt	LTP085	ltpFR	18	n/a	0	DIVER	476	n/a	1	n/a	n/a	n/a	n/a	n/a
3104923	FFR_REC_WORD	wordpools/wasnorm_wordpool.txt	LTP085	ltpFR	18	n/a	0	PASSENGER	1020	n/a	1	n/a	n/a	n/a	n/a	n/a
3107218	FFR_REC_WORD	wordpools/wasnorm_wordpool.txt	LTP085	ltpFR	18	n/a	1	PASSAGE	1019	n/a	0	n/a	n/a	n/a	n/a	n/a
3109602	FFR_REC_WORD	wordpools/wasnorm_wordpool.txt	LTP085	ltpFR	18	n/a	0	MOUNTAIN	924	n/a	1	n/a	n/a	n/a	n/a	n/a
3112755	FFR_REC_WORD	wordpools/wasnorm_wordpool.txt	LTP085	ltpFR	18	n/a	-1	PLUTO	1092	n/a	-1	n/a	n/a	n/a	n/a	n/a
3114067	FFR_REC_WORD	wordpools/wasnorm_wordpool.txt	LTP085	ltpFR	18	n/a	1	PLANET	1082	n/a	0	n/a	n/a	n/a	n/a	n/a
3115329	FFR_REC_WORD	wordpools/wasnorm_wordpool.txt	LTP085	ltpFR	18	n/a	1	METEOR	889	n/a	0	n/a	n/a	n/a	n/a	n/a
3117070	FFR_REC_WORD	wordpools/wasnorm_wordpool.txt	LTP085	ltpFR	18	n/a	0	SEA	1259	n/a	1	n/a	n/a	n/a	n/a	n/a
3138926	FFR_REC_WORD	wordpools/wasnorm_wordpool.txt	LTP085	ltpFR	18	n/a	-1	SHOULDER	1294	n/a	-1	n/a	n/a	n/a	n/a	n/a
3141011	FFR_REC_WORD	wordpools/wasnorm_wordpool.txt	LTP085	ltpFR	18	n/a	1	JAW	751	n/a	0	n/a	n/a	n/a	n/a	n/a
3142014	FFR_REC_WORD	wordpools/wasnorm_wordpool.txt	LTP085	ltpFR	18	n/a	1	WRIST	1626	n/a	0	n/a	n/a	n/a	n/a	n/a
3142981	FFR_REC_WORD	wordpools/wasnorm_wordpool.txt	LTP085	ltpFR	18	n/a	0	SKULL	1320	n/a	0	n/a	n/a	n/a	n/a	n/a
3144468	FFR_REC_WORD	wordpools/wasnorm_wordpool.txt	LTP085	ltpFR	18	n/a	0	SKELETON	1314	n/a	1	n/a	n/a	n/a	n/a	n/a
3145895	FFR_REC_WORD	wordpools/wasnorm_wordpool.txt	LTP085	ltpFR	18	n/a	0	STRANGER	1389	n/a	1	n/a	n/a	n/a	n/a	n/a
3148509	FFR_REC_WORD	wordpools/wasnorm_wordpool.txt	LTP085	ltpFR	18	n/a	-1	TRUMPET	1513	n/a	-1	n/a	n/a	n/a	n/a	n/a
3149476	FFR_REC_WORD	wordpools/wasnorm_wordpool.txt	LTP085	ltpFR	18	n/a	-1	VIOLA	1570	n/a	-1	n/a	n/a	n/a	n/a	n/a
3150689	FFR_REC_WORD	wordpools/wasnorm_wordpool.txt	LTP085	ltpFR	18	n/a	1	PIANO	1057	n/a	0	n/a	n/a	n/a	n/a	n/a
3153662	FFR_REC_WORD	wordpools/wasnorm_wordpool.txt	LTP085	ltpFR	18	n/a	1	COAT	333	n/a	0	n/a	n/a	n/a	n/a	n/a
3154740	FFR_REC_WORD	wordpools/wasnorm_wordpool.txt	LTP085	ltpFR	18	n/a	1	HOOD	714	n/a	0	n/a	n/a	n/a	n/a	n/a
3156296	FFR_REC_WORD	wordpools/wasnorm_wordpool.txt	LTP085	ltpFR	18	n/a	1	ATTIRE	57	n/a	0	n/a	n/a	n/a	n/a	n/a
3157558	FFR_REC_WORD	wordpools/wasnorm_wordpool.txt	LTP085	ltpFR	18	n/a	1	OUTFIT	988	n/a	0	n/a	n/a	n/a	n/a	n/a
3160566	FFR_REC_WORD	wordpools/wasnorm_wordpool.txt	LTP085	ltpFR	18	n/a	0	NET	946	n/a	0	n/a	n/a	n/a	n/a	n/a
3161564	FFR_REC_WORD	wordpools/wasnorm_wordpool.txt	LTP085	ltpFR	18	n/a	-1	WEB	1598	n/a	-1	n/a	n/a	n/a	n/a	n/a
3166538	FFR_REC_WORD	wordpools/wasnorm_wordpool.txt	LTP085	ltpFR	18	n/a	-1	VICTIM	1562	n/a	-1	n/a	n/a	n/a	n/a	n/a
3168394	FFR_REC_WORD	wordpools/wasnorm_wordpool.txt	LTP085	ltpFR	18	n/a	-1	JUVENILE	767	n/a	-1	n/a	n/a	n/a	n/a	n/a
3171861	FFR_REC_WORD	wordpools/wasnorm_wordpool.txt	LTP085	ltpFR	18	n/a	-1	CREATURE	403	n/a	-1	n/a	n/a	n/a	n/a	n/a
3173293	FFR_REC_WORD	wordpools/wasnorm_wordpool.txt	LTP085	ltpFR	18	n/a	-1	BOWL	158	n/a	-1	n/a	n/a	n/a	n/a	n/a
3174150	FFR_REC_WORD	wordpools/wasnorm_wordpool.txt	LTP085	ltpFR	18	n/a	-1	SCROLL	1257	n/a	-1	n/a	n/a	n/a	n/a	n/a
3175986	FFR_REC_WORD	wordpools/wasnorm_wordpool.txt	LTP085	ltpFR	18	n/a	-1	CHIME	300	n/a	-1	n/a	n/a	n/a	n/a	n/a
3177867	FFR_REC_WORD	wordpools/wasnorm_wordpool.txt	LTP085	ltpFR	18	n/a	-1	JEWEL	757	n/a	-1	n/a	n/a	n/a	n/a	n/a
3180187	FFR_REC_WORD	wordpools/wasnorm_wordpool.txt	LTP085	ltpFR	18	n/a	1	PALM	1007	n/a	0	n/a	n/a	n/a	n/a	n/a
3183789	FFR_REC_WORD	wordpools/wasnorm_wordpool.txt	LTP085	ltpFR	18	n/a	0	FOLLOWER	589	n/a	1	n/a	n/a	n/a	n/a	n/a
3184981	FFR_REC_WORD	wordpools/wasnorm_wordpool.txt	LTP085	ltpFR	18	n/a	0	SUPERVISOR	1410	n/a	1	n/a	n/a	n/a	n/a	n/a
3186957	FFR_REC_WORD	wordpools/wasnorm_wordpool.txt	LTP085	ltpFR	18	n/a	1	CASHIER	254	n/a	1	n/a	n/a	n/a	n/a	n/a
3188299	FFR_REC_WORD	wordpools/wasnorm_wordpool.txt	LTP085	ltpFR	18	n/a	1	CANDIDATE	228	n/a	0	n/a	n/a	n/a	n/a	n/a
3189750	FFR_REC_WORD	wordpools/wasnorm_wordpool.txt	LTP085	ltpFR	18	n/a	1	BALLOT	76	n/a	0	n/a	n/a	n/a	n/a	n/a
3194819	FFR_REC_WORD	wordpools/wasnorm_wordpool.txt	LTP085	ltpFR	18	n/a	0	PELICAN	1039	n/a	1	n/a	n/a	n/a	n/a	n/a
3198161	FFR_REC_WORD	wordpools/wasnorm_wordpool.txt	LTP085	ltpFR	18	n/a	0	EAGLE	512	n/a	1	n/a	n/a	n/a	n/a	n/a
3202077	FFR_REC_WORD	wordpools/wasnorm_wordpool.txt	LTP085	ltpFR	18	n/a	0	WATER	1594	n/a	0	n/a	n/a	n/a	n/a	n/a
3235312	FFR_REC_WORD	wordpools/wasnorm_wordpool.txt	LTP085	ltpFR	18	n/a	0	SCARF	1246	n/a	0	n/a	n/a	n/a	n/a	n/a
3239432	FFR_REC_WORD	wordpools/wasnorm_wordpool.txt	LTP085	ltpFR	18	n/a	0	SCREWDRIVER	1255	n/a	0	n/a	n/a	n/a	n/a	n/a
3241103	FFR_REC_WORD	wordpools/wasnorm_wordpool.txt	LTP085	ltpFR	18	n/a	0	WRENCH	1625	n/a	0	n/a	n/a	n/a	n/a	n/a
3242131	FFR_REC_WORD	wordpools/wasnorm_wordpool.txt	LTP085	ltpFR	18	n/a	0	NAIL	936	n/a	0	n/a	n/a	n/a	n/a	n/a
3243403	FFR_REC_WORD	wordpools/wasnorm_wordpool.txt	LTP085	ltpFR	18	n/a	0	TOENAIL	1474	n/a	0	n/a	n/a	n/a	n/a	n/a
3246032	FFR_REC_WORD	wordpools/wasnorm_wordpool.txt	LTP085	ltpFR	18	n/a	0	APPENDAGE	32	n/a	0	n/a	n/a	n/a	n/a	n/a
3248432	FFR_REC_WORD	wordpools/wasnorm_wordpool.txt	LTP085	ltpFR	18	n/a	0	QUEEN	1149	n/a	1	n/a	n/a	n/a	n/a	n/a
3249445	FFR_REC_WORD	wordpools/wasnorm_wordpool.txt	LTP085	ltpFR	18	n/a	1	PRINCESS	1125	n/a	1	n/a	n/a	n/a	n/a	n/a
3269793	FFR_REC_WORD	wordpools/wasnorm_wordpool.txt	LTP085	ltpFR	18	n/a	-1	ORCHESTRA	981	n/a	-1	n/a	n/a	n/a	n/a	n/a
3271050	FFR_REC_WORD	wordpools/wasnorm_wordpool.txt	LTP085	ltpFR	18	n/a	-1	BAND	78	n/a	-1	n/a	n/a	n/a	n/a	n/a
3271988	FFR_REC_WORD	wordpools/wasnorm_wordpool.txt	LTP085	ltpFR	18	n/a	-1	PARROT	1015	n/a	-1	n/a	n/a	n/a	n/a	n/a
3273430	FFR_REC_WORD	wordpools/wasnorm_wordpool.txt	LTP085	ltpFR	18	n/a	-1	ALLIGATOR	16	n/a	-1	n/a	n/a	n/a	n/a	n/a
3275700	FFR_REC_WORD	wordpools/wasnorm_wordpool.txt	LTP085	ltpFR	18	n/a	-1	MONGOOSE	909	n/a	-1	n/a	n/a	n/a	n/a	n/a
3277256	FFR_REC_WORD	wordpools/wasnorm_wordpool.txt	LTP085	ltpFR	18	n/a	-1	GRAVE	658	n/a	-1	n/a	n/a	n/a	n/a	n/a
3282928	FFR_REC_WORD	wordpools/wasnorm_wordpool.txt	LTP085	ltpFR	18	n/a	-1	OLIVE	975	n/a	-1	n/a	n/a	n/a	n/a	n/a
3336552	REC_START	n/a	LTP085	ltpFR	18	1	n/a	n/a	n/a	n/a	n/a	n/a	n/a	n/a	n/a	n/a
3336584	RECOG_LURE	n/a	LTP085	ltpFR	18	1	n/a	LIP	828	1	n/a	n/a	n/a	n/a	n/a	n/a
3337814	RECOG_RESP	n/a	LTP085	ltpFR	18	1	n/a	LIP	828	n/a	n/a	n/a	n/a	n/a	n/a	n/a
3338792	RECOG_CONF	n/a	LTP085	ltpFR	18	1	n/a	LIP	828	1	n/a	n/a	n/a	n/a	n/a	n/a
3340151	RECOG_TARGET	n/a	LTP085	ltpFR	18	1	-1	PLANT	1083	5	-1	n/a	n/a	n/a	n/a	n/a
3340867	RECOG_RESP	n/a	LTP085	ltpFR	18	1	-1	PLANT	1083	n/a	-1	n/a	n/a	n/a	n/a	n/a
3341745	RECOG_CONF	n/a	LTP085	ltpFR	18	1	-1	PLANT	1083	5	-1	n/a	n/a	n/a	n/a	n/a
3343050	RECOG_LURE	n/a	LTP085	ltpFR	18	1	n/a	PREACHER	1119	3	n/a	n/a	n/a	n/a	n/a	n/a
3343651	RECOG_RESP	n/a	LTP085	ltpFR	18	1	n/a	PREACHER	1119	n/a	n/a	n/a	n/a	n/a	n/a	n/a
3344439	RECOG_CONF	n/a	LTP085	ltpFR	18	1	n/a	PREACHER	1119	3	n/a	n/a	n/a	n/a	n/a	n/a
3345774	RECOG_LURE	n/a	LTP085	ltpFR	18	1	n/a	JAR	750	1	n/a	n/a	n/a	n/a	n/a	n/a
3346509	RECOG_RESP	n/a	LTP085	ltpFR	18	1	n/a	JAR	750	n/a	n/a	n/a	n/a	n/a	n/a	n/a
3347213	RECOG_CONF	n/a	LTP085	ltpFR	18	1	n/a	JAR	750	1	n/a	n/a	n/a	n/a	n/a	n/a
3348550	RECOG_TARGET	n/a	LTP085	ltpFR	18	1	0	CANVAS	234	5	1	n/a	n/a	n/a	n/a	n/a
3349108	RECOG_RESP	n/a	LTP085	ltpFR	18	1	0	CANVAS	234	n/a	1	n/a	n/a	n/a	n/a	n/a
3349896	RECOG_CONF	n/a	LTP085	ltpFR	18	1	0	CANVAS	234	5	1	n/a	n/a	n/a	n/a	n/a
3351150	RECOG_TARGET	n/a	LTP085	ltpFR	18	1	1	PIANO	1057	5	0	n/a	n/a	n/a	n/a	n/a
3351672	RECOG_RESP	n/a	LTP085	ltpFR	18	1	1	PIANO	1057	n/a	0	n/a	n/a	n/a	n/a	n/a
3352481	RECOG_CONF	n/a	LTP085	ltpFR	18	1	1	PIANO	1057	5	0	n/a	n/a	n/a	n/a	n/a
3353708	RECOG_LURE	n/a	LTP085	ltpFR	18	1	n/a	CABBAGE	210	1	n/a	n/a	n/a	n/a	n/a	n/a
3354411	RECOG_RESP	n/a	LTP085	ltpFR	18	1	n/a	CABBAGE	210	n/a	n/a	n/a	n/a	n/a	n/a	n/a
3355125	RECOG_CONF	n/a	LTP085	ltpFR	18	1	n/a	CABBAGE	210	1	n/a	n/a	n/a	n/a	n/a	n/a
3356433	RECOG_TARGET	n/a	LTP085	ltpFR	18	1	0	COAL	332	3	0	n/a	n/a	n/a	n/a	n/a
3357220	RECOG_RESP	n/a	LTP085	ltpFR	18	1	0	COAL	332	n/a	0	n/a	n/a	n/a	n/a	n/a
3357948	RECOG_CONF	n/a	LTP085	ltpFR	18	1	0	COAL	332	3	0	n/a	n/a	n/a	n/a	n/a
3359207	RECOG_TARGET	n/a	LTP085	ltpFR	18	1	-1	THIEF	1456	4	-1	n/a	n/a	n/a	n/a	n/a
3359664	RECOG_RESP	n/a	LTP085	ltpFR	18	1	-1	THIEF	1456	n/a	-1	n/a	n/a	n/a	n/a	n/a
3360433	RECOG_CONF	n/a	LTP085	ltpFR	18	1	-1	THIEF	1456	4	-1	n/a	n/a	n/a	n/a	n/a
3361716	RECOG_TARGET	n/a	LTP085	ltpFR	18	1	-1	VICTIM	1562	4	-1	n/a	n/a	n/a	n/a	n/a
3362238	RECOG_RESP	n/a	LTP085	ltpFR	18	1	-1	VICTIM	1562	n/a	-1	n/a	n/a	n/a	n/a	n/a
3363027	RECOG_CONF	n/a	LTP085	ltpFR	18	1	-1	VICTIM	1562	4	-1	n/a	n/a	n/a	n/a	n/a
3364315	RECOG_TARGET	n/a	LTP085	ltpFR	18	1	1	ENCYCLOPEDIA	533	4	0	n/a	n/a	n/a	n/a	n/a
3364907	RECOG_RESP	n/a	LTP085	ltpFR	18	1	1	ENCYCLOPEDIA	533	n/a	0	n/a	n/a	n/a	n/a	n/a
3365621	RECOG_CONF	n/a	LTP085	ltpFR	18	1	1	ENCYCLOPEDIA	533	4	0	n/a	n/a	n/a	n/a	n/a
3366882	RECOG_LURE	n/a	LTP085	ltpFR	18	1	n/a	POCKET	1093	2	n/a	n/a	n/a	n/a	n/a	n/a
3367541	RECOG_RESP	n/a	LTP085	ltpFR	18	1	n/a	POCKET	1093	n/a	n/a	n/a	n/a	n/a	n/a	n/a
3368195	RECOG_CONF	n/a	LTP085	ltpFR	18	1	n/a	POCKET	1093	2	n/a	n/a	n/a	n/a	n/a	n/a
3369548	RECOG_LURE	n/a	LTP085	ltpFR	18	1	n/a	BARRACUDA	90	3	n/a	n/a	n/a	n/a	n/a	n/a
3370131	RECOG_RESP	n/a	LTP085	ltpFR	18	1	n/a	BARRACUDA	90	n/a	n/a	n/a	n/a	n/a	n/a	n/a
3370849	RECOG_CONF	n/a	LTP085	ltpFR	18	1	n/a	BARRACUDA	90	3	n/a	n/a	n/a	n/a	n/a	n/a
3372131	RECOG_LURE	n/a	LTP085	ltpFR	18	1	n/a	VIRUS	1572	4	n/a	n/a	n/a	n/a	n/a	n/a
3372695	RECOG_RESP	n/a	LTP085	ltpFR	18	1	n/a	VIRUS	1572	n/a	n/a	n/a	n/a	n/a	n/a	n/a
3373383	RECOG_CONF	n/a	LTP085	ltpFR	18	1	n/a	VIRUS	1572	4	n/a	n/a	n/a	n/a	n/a	n/a
3374731	RECOG_TARGET	n/a	LTP085	ltpFR	18	1	-1	MEAL	882	4	-1	n/a	n/a	n/a	n/a	n/a
3375274	RECOG_RESP	n/a	LTP085	ltpFR	18	1	-1	MEAL	882	n/a	-1	n/a	n/a	n/a	n/a	n/a
3375997	RECOG_CONF	n/a	LTP085	ltpFR	18	1	-1	MEAL	882	4	-1	n/a	n/a	n/a	n/a	n/a
3377289	RECOG_LURE	n/a	LTP085	ltpFR	18	1	n/a	VILLAIN	1567	1	n/a	n/a	n/a	n/a	n/a	n/a
3377903	RECOG_RESP	n/a	LTP085	ltpFR	18	1	n/a	VILLAIN	1567	n/a	n/a	n/a	n/a	n/a	n/a	n/a
3378601	RECOG_CONF	n/a	LTP085	ltpFR	18	1	n/a	VILLAIN	1567	1	n/a	n/a	n/a	n/a	n/a	n/a
3379939	RECOG_TARGET	n/a	LTP085	ltpFR	18	1	0	SLUG	1329	3	0	n/a	n/a	n/a	n/a	n/a
3380487	RECOG_RESP	n/a	LTP085	ltpFR	18	1	0	SLUG	1329	n/a	0	n/a	n/a	n/a	n/a	n/a
3381165	RECOG_CONF	n/a	LTP085	ltpFR	18	1	0	SLUG	1329	3	0	n/a	n/a	n/a	n/a	n/a
3382431	RECOG_LURE	n/a	LTP085	ltpFR	18	1	n/a	SHOVEL	1295	3	n/a	n/a	n/a	n/a	n/a	n/a
3383016	RECOG_RESP	n/a	LTP085	ltpFR	18	1	n/a	SHOVEL	1295	n/a	n/a	n/a	n/a	n/a	n/a	n/a
3383740	RECOG_CONF	n/a	LTP085	ltpFR	18	1	n/a	SHOVEL	1295	3	n/a	n/a	n/a	n/a	n/a	n/a
3384964	RECOG_TARGET	n/a	LTP085	ltpFR	18	1	-1	SPATULA	1348	5	-1	n/a	n/a	n/a	n/a	n/a
3385506	RECOG_RESP	n/a	LTP085	ltpFR	18	1	-1	SPATULA	1348	n/a	-1	n/a	n/a	n/a	n/a	n/a
3386334	RECOG_CONF	n/a	LTP085	ltpFR	18	1	-1	SPATULA	1348	5	-1	n/a	n/a	n/a	n/a	n/a
3387755	RECOG_LURE	n/a	LTP085	ltpFR	18	1	n/a	LABEL	790	2	n/a	n/a	n/a	n/a	n/a	n/a
3388264	RECOG_RESP	n/a	LTP085	ltpFR	18	1	n/a	LABEL	790	n/a	n/a	n/a	n/a	n/a	n/a	n/a
3388988	RECOG_CONF	n/a	LTP085	ltpFR	18	1	n/a	LABEL	790	2	n/a	n/a	n/a	n/a	n/a	n/a
3393176	REC_START	n/a	LTP085	ltpFR	18	2	n/a	n/a	n/a	n/a	n/a	n/a	n/a	n/a	n/a	n/a
3393213	RECOG_TARGET	n/a	LTP085	ltpFR	18	2	1	GREASE	660	4	0	n/a	n/a	n/a	n/a	n/a
3393989	RECOG_RESP	n/a	LTP085	ltpFR	18	2	1	GREASE	660	n/a	0	n/a	n/a	n/a	n/a	n/a
3394827	RECOG_CONF	n/a	LTP085	ltpFR	18	2	1	GREASE	660	4	0	n/a	n/a	n/a	n/a	n/a
3396130	RECOG_TARGET	n/a	LTP085	ltpFR	18	2	0	GUN	673	4	1	n/a	n/a	n/a	n/a	n/a
3396743	RECOG_RESP	n/a	LTP085	ltpFR	18	2	0	GUN	673	n/a	1	n/a	n/a	n/a	n/a	n/a
3397471	RECOG_CONF	n/a	LTP085	ltpFR	18	2	0	GUN	673	4	1	n/a	n/a	n/a	n/a	n/a
3398803	RECOG_TARGET	n/a	LTP085	ltpFR	18	2	0	SCARF	1246	4	0	n/a	n/a	n/a	n/a	n/a
3399287	RECOG_RESP	n/a	LTP085	ltpFR	18	2	0	SCARF	1246	n/a	0	n/a	n/a	n/a	n/a	n/a
3399985	RECOG_CONF	n/a	LTP085	ltpFR	18	2	0	SCARF	1246	4	0	n/a	n/a	n/a	n/a	n/a
3401246	RECOG_TARGET	n/a	LTP085	ltpFR	18	2	0	PRAIRIE	1118	5	1	n/a	n/a	n/a	n/a	n/a
3401826	RECOG_RESP	n/a	LTP085	ltpFR	18	2	0	PRAIRIE	1118	n/a	1	n/a	n/a	n/a	n/a	n/a
3402470	RECOG_CONF	n/a	LTP085	ltpFR	18	2	0	PRAIRIE	1118	5	1	n/a	n/a	n/a	n/a	n/a
3403795	RECOG_TARGET	n/a	LTP085	ltpFR	18	2	-1	CHIME	300	5	-1	n/a	n/a	n/a	n/a	n/a
3404455	RECOG_RESP	n/a	LTP085	ltpFR	18	2	-1	CHIME	300	n/a	-1	n/a	n/a	n/a	n/a	n/a
3405084	RECOG_CONF	n/a	LTP085	ltpFR	18	2	-1	CHIME	300	5	-1	n/a	n/a	n/a	n/a	n/a
3406387	RECOG_TARGET	n/a	LTP085	ltpFR	18	2	1	JAW	751	5	0	n/a	n/a	n/a	n/a	n/a
3406950	RECOG_RESP	n/a	LTP085	ltpFR	18	2	1	JAW	751	n/a	0	n/a	n/a	n/a	n/a	n/a
3407568	RECOG_CONF	n/a	LTP085	ltpFR	18	2	1	JAW	751	5	0	n/a	n/a	n/a	n/a	n/a
3408829	RECOG_TARGET	n/a	LTP085	ltpFR	18	2	0	COOKBOOK	373	4	1	n/a	n/a	n/a	n/a	n/a
3409429	RECOG_RESP	n/a	LTP085	ltpFR	18	2	0	COOKBOOK	373	n/a	1	n/a	n/a	n/a	n/a	n/a
3410062	RECOG_CONF	n/a	LTP085	ltpFR	18	2	0	COOKBOOK	373	4	1	n/a	n/a	n/a	n/a	n/a
3411412	RECOG_LURE	n/a	LTP085	ltpFR	18	2	n/a	SKI	1316	3	n/a	n/a	n/a	n/a	n/a	n/a
3411978	RECOG_RESP	n/a	LTP085	ltpFR	18	2	n/a	SKI	1316	n/a	n/a	n/a	n/a	n/a	n/a	n/a
3412667	RECOG_CONF	n/a	LTP085	ltpFR	18	2	n/a	SKI	1316	3	n/a	n/a	n/a	n/a	n/a	n/a
3413953	RECOG_LURE	n/a	LTP085	ltpFR	18	2	n/a	ASSISTANT	48	2	n/a	n/a	n/a	n/a	n/a	n/a
3414512	RECOG_RESP_VV	n/a	LTP085	ltpFR	18	2	n/a	ASSISTANT	48	n/a	n/a	n/a	n/a	n/a	n/a	n/a
3415066	RECOG_RESP	n/a	LTP085	ltpFR	18	2	n/a	ASSISTANT	48	n/a	n/a	n/a	n/a	n/a	n/a	n/a
3415769	RECOG_CONF	n/a	LTP085	ltpFR	18	2	n/a	ASSISTANT	48	2	n/a	n/a	n/a	n/a	n/a	n/a
3417153	RECOG_TARGET	n/a	LTP085	ltpFR	18	2	0	COBRA	336	4	1	n/a	n/a	n/a	n/a	n/a
3417700	RECOG_RESP	n/a	LTP085	ltpFR	18	2	0	COBRA	336	n/a	1	n/a	n/a	n/a	n/a	n/a
3418374	RECOG_CONF	n/a	LTP085	ltpFR	18	2	0	COBRA	336	4	1	n/a	n/a	n/a	n/a	n/a
3419686	RECOG_TARGET	n/a	LTP085	ltpFR	18	2	1	HERO	706	4	1	n/a	n/a	n/a	n/a	n/a
3420224	RECOG_RESP	n/a	LTP085	ltpFR	18	2	1	HERO	706	n/a	1	n/a	n/a	n/a	n/a	n/a
3420918	RECOG_CONF	n/a	LTP085	ltpFR	18	2	1	HERO	706	4	1	n/a	n/a	n/a	n/a	n/a
3422219	RECOG_LURE	n/a	LTP085	ltpFR	18	2	n/a	PHILOSOPHER	1054	3	n/a	n/a	n/a	n/a	n/a	n/a
3422843	RECOG_RESP	n/a	LTP085	ltpFR	18	2	n/a	PHILOSOPHER	1054	n/a	n/a	n/a	n/a	n/a	n/a	n/a
3423472	RECOG_CONF	n/a	LTP085	ltpFR	18	2	n/a	PHILOSOPHER	1054	3	n/a	n/a	n/a	n/a	n/a	n/a
3424836	RECOG_LURE	n/a	LTP085	ltpFR	18	2	n/a	WAGON	1578	1	n/a	n/a	n/a	n/a	n/a	n/a
3425477	RECOG_RESP	n/a	LTP085	ltpFR	18	2	n/a	WAGON	1578	n/a	n/a	n/a	n/a	n/a	n/a	n/a
3426156	RECOG_CONF	n/a	LTP085	ltpFR	18	2	n/a	WAGON	1578	1	n/a	n/a	n/a	n/a	n/a	n/a
3427536	RECOG_LURE	n/a	LTP085	ltpFR	18	2	n/a	TABLE	1426	2	n/a	n/a	n/a	n/a	n/a	n/a
3428186	RECOG_RESP	n/a	LTP085	ltpFR	18	2	n/a	TABLE	1426	n/a	n/a	n/a	n/a	n/a	n/a	n/a
3428820	RECOG_CONF	n/a	LTP085	ltpFR	18	2	n/a	TABLE	1426	2	n/a	n/a	n/a	n/a	n/a	n/a
3430202	RECOG_LURE	n/a	LTP085	ltpFR	18	2	n/a	SHERIFF	1284	3	n/a	n/a	n/a	n/a	n/a	n/a
3430795	RECOG_RESP	n/a	LTP085	ltpFR	18	2	n/a	SHERIFF	1284	n/a	n/a	n/a	n/a	n/a	n/a	n/a
3431414	RECOG_CONF	n/a	LTP085	ltpFR	18	2	n/a	SHERIFF	1284	3	n/a	n/a	n/a	n/a	n/a	n/a
3432752	RECOG_LURE	n/a	LTP085	ltpFR	18	2	n/a	POTTERY	1116	3	n/a	n/a	n/a	n/a	n/a	n/a
3433389	RECOG_RESP	n/a	LTP085	ltpFR	18	2	n/a	POTTERY	1116	n/a	n/a	n/a	n/a	n/a	n/a	n/a
3434048	RECOG_CONF	n/a	LTP085	ltpFR	18	2	n/a	POTTERY	1116	3	n/a	n/a	n/a	n/a	n/a	n/a
3435368	RECOG_LURE	n/a	LTP085	ltpFR	18	2	n/a	CRICKET	408	1	n/a	n/a	n/a	n/a	n/a	n/a
3436133	RECOG_RESP	n/a	LTP085	ltpFR	18	2	n/a	CRICKET	408	n/a	n/a	n/a	n/a	n/a	n/a	n/a
3436772	RECOG_CONF	n/a	LTP085	ltpFR	18	2	n/a	CRICKET	408	1	n/a	n/a	n/a	n/a	n/a	n/a
3438093	RECOG_TARGET	n/a	LTP085	ltpFR	18	2	0	QUEEN	1149	4	1	n/a	n/a	n/a	n/a	n/a
3438628	RECOG_RESP	n/a	LTP085	ltpFR	18	2	0	QUEEN	1149	n/a	1	n/a	n/a	n/a	n/a	n/a
3439306	RECOG_CONF	n/a	LTP085	ltpFR	18	2	0	QUEEN	1149	4	1	n/a	n/a	n/a	n/a	n/a
3440568	RECOG_LURE	n/a	LTP085	ltpFR	18	2	n/a	SOAP	1337	1	n/a	n/a	n/a	n/a	n/a	n/a
3441152	RECOG_RESP	n/a	LTP085	ltpFR	18	2	n/a	SOAP	1337	n/a	n/a	n/a	n/a	n/a	n/a	n/a
3441750	RECOG_CONF	n/a	LTP085	ltpFR	18	2	n/a	SOAP	1337	1	n/a	n/a	n/a	n/a	n/a	n/a
3443076	RECOG_LURE	n/a	LTP085	ltpFR	18	2	n/a	ANTLER	29	2	n/a	n/a	n/a	n/a	n/a	n/a
3443876	RECOG_RESP	n/a	LTP085	ltpFR	18	2	n/a	ANTLER	29	n/a	n/a	n/a	n/a	n/a	n/a	n/a
3444454	RECOG_CONF	n/a	LTP085	ltpFR	18	2	n/a	ANTLER	29	2	n/a	n/a	n/a	n/a	n/a	n/a
3447858	REC_START	n/a	LTP085	ltpFR	18	3	n/a	n/a	n/a	n/a	n/a	n/a	n/a	n/a	n/a	n/a
3447892	RECOG_TARGET	n/a	LTP085	ltpFR	18	3	0	SARDINE	1235	5	0	n/a	n/a	n/a	n/a	n/a
3448491	RECOG_RESP	n/a	LTP085	ltpFR	18	3	0	SARDINE	1235	n/a	0	n/a	n/a	n/a	n/a	n/a
3449110	RECOG_CONF	n/a	LTP085	ltpFR	18	3	0	SARDINE	1235	5	0	n/a	n/a	n/a	n/a	n/a
3450376	RECOG_TARGET	n/a	LTP085	ltpFR	18	3	1	WRIST	1626	4	0	n/a	n/a	n/a	n/a	n/a
3450996	RECOG_RESP	n/a	LTP085	ltpFR	18	3	1	WRIST	1626	n/a	0	n/a	n/a	n/a	n/a	n/a
3451574	RECOG_CONF	n/a	LTP085	ltpFR	18	3	1	WRIST	1626	4	0	n/a	n/a	n/a	n/a	n/a
3452984	RECOG_TARGET	n/a	LTP085	ltpFR	18	3	-1	MASK	876	4	-1	n/a	n/a	n/a	n/a	n/a
3453520	RECOG_RESP	n/a	LTP085	ltpFR	18	3	-1	MASK	876	n/a	-1	n/a	n/a	n/a	n/a	n/a
3454178	RECOG_CONF	n/a	LTP085	ltpFR	18	3	-1	MASK	876	4	-1	n/a	n/a	n/a	n/a	n/a
3455467	RECOG_TARGET	n/a	LTP085	ltpFR	18	3	1	COAT	333	3	0	n/a	n/a	n/a	n/a	n/a
3456034	RECOG_RESP	n/a	LTP085	ltpFR	18	3	1	COAT	333	n/a	0	n/a	n/a	n/a	n/a	n/a
3456683	RECOG_CONF	n/a	LTP085	ltpFR	18	3	1	COAT	333	3	0	n/a	n/a	n/a	n/a	n/a
3458075	RECOG_LURE	n/a	LTP085	ltpFR	18	3	n/a	MERMAID	887	3	n/a	n/a	n/a	n/a	n/a	n/a
3458558	RECOG_RESP	n/a	LTP085	ltpFR	18	3	n/a	MERMAID	887	n/a	n/a	n/a	n/a	n/a	n/a	n/a
3459197	RECOG_CONF	n/a	LTP085	ltpFR	18	3	n/a	MERMAID	887	3	n/a	n/a	n/a	n/a	n/a	n/a
3460550	RECOG_TARGET	n/a	LTP085	ltpFR	18	3	0	WRENCH	1625	4	0	n/a	n/a	n/a	n/a	n/a
3461237	RECOG_RESP	n/a	LTP085	ltpFR	18	3	0	WRENCH	1625	n/a	0	n/a	n/a	n/a	n/a	n/a
3461831	RECOG_CONF	n/a	LTP085	ltpFR	18	3	0	WRENCH	1625	4	0	n/a	n/a	n/a	n/a	n/a
3463241	RECOG_LURE	n/a	LTP085	ltpFR	18	3	n/a	GARAGE	621	1	n/a	n/a	n/a	n/a	n/a	n/a
3463856	RECOG_RESP	n/a	LTP085	ltpFR	18	3	n/a	GARAGE	621	n/a	n/a	n/a	n/a	n/a	n/a	n/a
3464485	RECOG_CONF	n/a	LTP085	ltpFR	18	3	n/a	GARAGE	621	1	n/a	n/a	n/a	n/a	n/a	n/a
3465849	RECOG_TARGET	n/a	LTP085	ltpFR	18	3	1	CONVENT	370	5	0	n/a	n/a	n/a	n/a	n/a
3466451	RECOG_RESP	n/a	LTP085	ltpFR	18	3	1	CONVENT	370	n/a	0	n/a	n/a	n/a	n/a	n/a
3467069	RECOG_CONF	n/a	LTP085	ltpFR	18	3	1	CONVENT	370	5	0	n/a	n/a	n/a	n/a	n/a
3468433	RECOG_TARGET	n/a	LTP085	ltpFR	18	3	-1	PORTRAIT	1111	4	-1	n/a	n/a	n/a	n/a	n/a
3469134	RECOG_RESP	n/a	LTP085	ltpFR	18	3	-1	PORTRAIT	1111	n/a	-1	n/a	n/a	n/a	n/a	n/a
3469743	RECOG_CONF	n/a	LTP085	ltpFR	18	3	-1	PORTRAIT	1111	4	-1	n/a	n/a	n/a	n/a	n/a
3471082	RECOG_TARGET	n/a	LTP085	ltpFR	18	3	1	TACK	1428	4	0	n/a	n/a	n/a	n/a	n/a
3471659	RECOG_RESP	n/a	LTP085	ltpFR	18	3	1	TACK	1428	n/a	0	n/a	n/a	n/a	n/a	n/a
3472327	RECOG_CONF	n/a	LTP085	ltpFR	18	3	1	TACK	1428	4	0	n/a	n/a	n/a	n/a	n/a
3473591	RECOG_TARGET	n/a	LTP085	ltpFR	18	3	0	SERPENT	1270	5	0	n/a	n/a	n/a	n/a	n/a
3474153	RECOG_RESP	n/a	LTP085	ltpFR	18	3	0	SERPENT	1270	n/a	0	n/a	n/a	n/a	n/a	n/a
3474782	RECOG_CONF	n/a	LTP085	ltpFR	18	3	0	SERPENT	1270	5	0	n/a	n/a	n/a	n/a	n/a
3476149	RECOG_LURE	n/a	LTP085	ltpFR	18	3	n/a	PIGEON	1065	3	n/a	n/a	n/a	n/a	n/a	n/a
3476717	RECOG_RESP	n/a	LTP085	ltpFR	18	3	n/a	PIGEON	1065	n/a	n/a	n/a	n/a	n/a	n/a	n/a
3477356	RECOG_CONF	n/a	LTP085	ltpFR	18	3	n/a	PIGEON	1065	3	n/a	n/a	n/a	n/a	n/a	n/a
3478698	RECOG_LURE	n/a	LTP085	ltpFR	18	3	n/a	SCISSORS	1250	1	n/a	n/a	n/a	n/a	n/a	n/a
3479501	RECOG_RESP	n/a	LTP085	ltpFR	18	3	n/a	SCISSORS	1250	n/a	n/a	n/a	n/a	n/a	n/a	n/a
3480129	RECOG_CONF	n/a	LTP085	ltpFR	18	3	n/a	SCISSORS	1250	1	n/a	n/a	n/a	n/a	n/a	n/a
3481465	RECOG_TARGET	n/a	LTP085	ltpFR	18	3	0	ACTRESS	6	3	1	n/a	n/a	n/a	n/a	n/a
3482075	RECOG_RESP	n/a	LTP085	ltpFR	18	3	0	ACTRESS	6	n/a	1	n/a	n/a	n/a	n/a	n/a
3482744	RECOG_CONF	n/a	LTP085	ltpFR	18	3	0	ACTRESS	6	3	1	n/a	n/a	n/a	n/a	n/a
3484015	RECOG_LURE	n/a	LTP085	ltpFR	18	3	n/a	SCALE	1241	1	n/a	n/a	n/a	n/a	n/a	n/a
3484709	RECOG_RESP	n/a	LTP085	ltpFR	18	3	n/a	SCALE	1241	n/a	n/a	n/a	n/a	n/a	n/a	n/a
3485328	RECOG_CONF	n/a	LTP085	ltpFR	18	3	n/a	SCALE	1241	1	n/a	n/a	n/a	n/a	n/a	n/a
3486681	RECOG_LURE	n/a	LTP085	ltpFR	18	3	n/a	ARTICLE	42	3	n/a	n/a	n/a	n/a	n/a	n/a
3487348	RECOG_RESP	n/a	LTP085	ltpFR	18	3	n/a	ARTICLE	42	n/a	n/a	n/a	n/a	n/a	n/a	n/a
3488012	RECOG_CONF	n/a	LTP085	ltpFR	18	3	n/a	ARTICLE	42	3	n/a	n/a	n/a	n/a	n/a	n/a
3489323	RECOG_LURE	n/a	LTP085	ltpFR	18	3	n/a	CUSTARD	429	2	n/a	n/a	n/a	n/a	n/a	n/a
3490087	RECOG_RESP	n/a	LTP085	ltpFR	18	3	n/a	CUSTARD	429	n/a	n/a	n/a	n/a	n/a	n/a	n/a
3490705	RECOG_CONF	n/a	LTP085	ltpFR	18	3	n/a	CUSTARD	429	2	n/a	n/a	n/a	n/a	n/a	n/a
3492081	RECOG_TARGET	n/a	LTP085	ltpFR	18	3	1	BLUEJAY	141	4	1	n/a	n/a	n/a	n/a	n/a
3492641	RECOG_RESP	n/a	LTP085	ltpFR	18	3	1	BLUEJAY	141	n/a	1	n/a	n/a	n/a	n/a	n/a
3493260	RECOG_CONF	n/a	LTP085	ltpFR	18	3	1	BLUEJAY	141	4	1	n/a	n/a	n/a	n/a	n/a
3494614	RECOG_TARGET	n/a	LTP085	ltpFR	18	3	0	EAGLE	512	5	1	n/a	n/a	n/a	n/a	n/a
3495190	RECOG_RESP	n/a	LTP085	ltpFR	18	3	0	EAGLE	512	n/a	1	n/a	n/a	n/a	n/a	n/a
3495854	RECOG_CONF	n/a	LTP085	ltpFR	18	3	0	EAGLE	512	5	1	n/a	n/a	n/a	n/a	n/a
3497105	RECOG_TARGET	n/a	LTP085	ltpFR	18	3	1	PASSAGE	1019	5	0	n/a	n/a	n/a	n/a	n/a
3497700	RECOG_RESP	n/a	LTP085	ltpFR	18	3	1	PASSAGE	1019	n/a	0	n/a	n/a	n/a	n/a	n/a
3498388	RECOG_CONF	n/a	LTP085	ltpFR	18	3	1	PASSAGE	1019	5	0	n/a	n/a	n/a	n/a	n/a
3501492	REC_START	n/a	LTP085	ltpFR	18	4	n/a	n/a	n/a	n/a	n/a	n/a	n/a	n/a	n/a	n/a
3501522	RECOG_LURE	n/a	LTP085	ltpFR	18	4	n/a	STOVE	1388	1	n/a	n/a	n/a	n/a	n/a	n/a
3502265	RECOG_RESP	n/a	LTP085	ltpFR	18	4	n/a	STOVE	1388	n/a	n/a	n/a	n/a	n/a	n/a	n/a
3502794	RECOG_CONF	n/a	LTP085	ltpFR	18	4	n/a	STOVE	1388	1	n/a	n/a	n/a	n/a	n/a	n/a
3504246	RECOG_TARGET	n/a	LTP085	ltpFR	18	4	1	STEP	1377	2	0	n/a	n/a	n/a	n/a	n/a
3504949	RECOG_RESP	n/a	LTP085	ltpFR	18	4	1	STEP	1377	n/a	0	n/a	n/a	n/a	n/a	n/a
3505558	RECOG_CONF	n/a	LTP085	ltpFR	18	4	1	STEP	1377	2	0	n/a	n/a	n/a	n/a	n/a
3506880	RECOG_TARGET	n/a	LTP085	ltpFR	18	4	1	CASHIER	254	3	1	n/a	n/a	n/a	n/a	n/a
3507403	RECOG_RESP	n/a	LTP085	ltpFR	18	4	1	CASHIER	254	n/a	1	n/a	n/a	n/a	n/a	n/a
3508012	RECOG_CONF	n/a	LTP085	ltpFR	18	4	1	CASHIER	254	3	1	n/a	n/a	n/a	n/a	n/a
3509263	RECOG_TARGET	n/a	LTP085	ltpFR	18	4	0	TUB	1514	4	1	n/a	n/a	n/a	n/a	n/a
3509808	RECOG_RESP	n/a	LTP085	ltpFR	18	4	0	TUB	1514	n/a	1	n/a	n/a	n/a	n/a	n/a
3510456	RECOG_CONF	n/a	LTP085	ltpFR	18	4	0	TUB	1514	4	1	n/a	n/a	n/a	n/a	n/a
3511654	RECOG_LURE	n/a	LTP085	ltpFR	18	4	n/a	BOOTH	151	2	n/a	n/a	n/a	n/a	n/a	n/a
3512322	RECOG_RESP	n/a	LTP085	ltpFR	18	4	n/a	BOOTH	151	n/a	n/a	n/a	n/a	n/a	n/a	n/a
3512901	RECOG_CONF	n/a	LTP085	ltpFR	18	4	n/a	BOOTH	151	2	n/a	n/a	n/a	n/a	n/a	n/a
3514279	RECOG_LURE	n/a	LTP085	ltpFR	18	4	n/a	BLOSSOM	138	2	n/a	n/a	n/a	n/a	n/a	n/a
3514991	RECOG_RESP	n/a	LTP085	ltpFR	18	4	n/a	BLOSSOM	138	n/a	n/a	n/a	n/a	n/a	n/a	n/a
3515585	RECOG_CONF	n/a	LTP085	ltpFR	18	4	n/a	BLOSSOM	138	2	n/a	n/a	n/a	n/a	n/a	n/a
3516929	RECOG_LURE	n/a	LTP085	ltpFR	18	4	n/a	HORIZON	717	3	n/a	n/a	n/a	n/a	n/a	n/a
3517620	RECOG_RESP	n/a	LTP085	ltpFR	18	4	n/a	HORIZON	717	n/a	n/a	n/a	n/a	n/a	n/a	n/a
3518219	RECOG_CONF	n/a	LTP085	ltpFR	18	4	n/a	HORIZON	717	3	n/a	n/a	n/a	n/a	n/a	n/a
3519604	RECOG_TARGET	n/a	LTP085	ltpFR	18	4	1	SHIP	1286	2	0	n/a	n/a	n/a	n/a	n/a
3520254	RECOG_RESP	n/a	LTP085	ltpFR	18	4	1	SHIP	1286	n/a	0	n/a	n/a	n/a	n/a	n/a
3520873	RECOG_CONF	n/a	LTP085	ltpFR	18	4	1	SHIP	1286	2	0	n/a	n/a	n/a	n/a	n/a
3522212	RECOG_LURE	n/a	LTP085	ltpFR	18	4	n/a	LOVER	846	3	n/a	n/a	n/a	n/a	n/a	n/a
3523088	RECOG_RESP	n/a	LTP085	ltpFR	18	4	n/a	LOVER	846	n/a	n/a	n/a	n/a	n/a	n/a	n/a
3523666	RECOG_CONF	n/a	LTP085	ltpFR	18	4	n/a	LOVER	846	3	n/a	n/a	n/a	n/a	n/a	n/a
3525037	RECOG_TARGET	n/a	LTP085	ltpFR	18	4	-1	LOUNGE	845	4	-1	n/a	n/a	n/a	n/a	n/a
3525632	RECOG_RESP	n/a	LTP085	ltpFR	18	4	-1	LOUNGE	845	n/a	-1	n/a	n/a	n/a	n/a	n/a
3526241	RECOG_CONF	n/a	LTP085	ltpFR	18	4	-1	LOUNGE	845	4	-1	n/a	n/a	n/a	n/a	n/a
3527536	RECOG_LURE	n/a	LTP085	ltpFR	18	4	n/a	SALT	1229	3	n/a	n/a	n/a	n/a	n/a	n/a
3528056	RECOG_RESP	n/a	LTP085	ltpFR	18	4	n/a	SALT	1229	n/a	n/a	n/a	n/a	n/a	n/a	n/a
3528655	RECOG_CONF	n/a	LTP085	ltpFR	18	4	n/a	SALT	1229	3	n/a	n/a	n/a	n/a	n/a	n/a
3530028	RECOG_TARGET	n/a	LTP085	ltpFR	18	4	0	PLUM	1090	4	0	n/a	n/a	n/a	n/a	n/a
3530521	RECOG_RESP	n/a	LTP085	ltpFR	18	4	0	PLUM	1090	n/a	0	n/a	n/a	n/a	n/a	n/a
3531179	RECOG_CONF	n/a	LTP085	ltpFR	18	4	0	PLUM	1090	4	0	n/a	n/a	n/a	n/a	n/a
3532478	RECOG_TARGET	n/a	LTP085	ltpFR	18	4	0	PELICAN	1039	5	1	n/a	n/a	n/a	n/a	n/a
3533035	RECOG_RESP	n/a	LTP085	ltpFR	18	4	0	PELICAN	1039	n/a	1	n/a	n/a	n/a	n/a	n/a
3533634	RECOG_CONF	n/a	LTP085	ltpFR	18	4	0	PELICAN	1039	5	1	n/a	n/a	n/a	n/a	n/a
3535036	RECOG_TARGET	n/a	LTP085	ltpFR	18	4	-1	GRAVE	658	5	-1	n/a	n/a	n/a	n/a	n/a
3535619	RECOG_RESP	n/a	LTP085	ltpFR	18	4	-1	GRAVE	658	n/a	-1	n/a	n/a	n/a	n/a	n/a
3536238	RECOG_CONF	n/a	LTP085	ltpFR	18	4	-1	GRAVE	658	5	-1	n/a	n/a	n/a	n/a	n/a
3537569	RECOG_TARGET	n/a	LTP085	ltpFR	18	4	1	BALLOT	76	5	0	n/a	n/a	n/a	n/a	n/a
3538193	RECOG_RESP	n/a	LTP085	ltpFR	18	4	1	BALLOT	76	n/a	0	n/a	n/a	n/a	n/a	n/a
3538832	RECOG_CONF	n/a	LTP085	ltpFR	18	4	1	BALLOT	76	5	0	n/a	n/a	n/a	n/a	n/a
3540202	RECOG_TARGET	n/a	LTP085	ltpFR	18	4	1	CORAL	378	4	1	n/a	n/a	n/a	n/a	n/a
3540788	RECOG_RESP	n/a	LTP085	ltpFR	18	4	1	CORAL	378	n/a	1	n/a	n/a	n/a	n/a	n/a
3541346	RECOG_CONF	n/a	LTP085	ltpFR	18	4	1	CORAL	378	4	1	n/a	n/a	n/a	n/a	n/a
3542727	RECOG_LURE	n/a	LTP085	ltpFR	18	4	n/a	SKILLET	1317	2	n/a	n/a	n/a	n/a	n/a	n/a
3543392	RECOG_RESP	n/a	LTP085	ltpFR	18	4	n/a	SKILLET	1317	n/a	n/a	n/a	n/a	n/a	n/a	n/a
3543990	RECOG_CONF	n/a	LTP085	ltpFR	18	4	n/a	SKILLET	1317	2	n/a	n/a	n/a	n/a	n/a	n/a
3545385	RECOG_TARGET	n/a	LTP085	ltpFR	18	4	0	APPENDAGE	32	4	0	n/a	n/a	n/a	n/a	n/a
3545986	RECOG_RESP	n/a	LTP085	ltpFR	18	4	0	APPENDAGE	32	n/a	0	n/a	n/a	n/a	n/a	n/a
3546614	RECOG_CONF	n/a	LTP085	ltpFR	18	4	0	APPENDAGE	32	4	0	n/a	n/a	n/a	n/a	n/a
3547935	RECOG_LURE	n/a	LTP085	ltpFR	18	4	n/a	WEED	1599	3	n/a	n/a	n/a	n/a	n/a	n/a
3548570	RECOG_RESP	n/a	LTP085	ltpFR	18	4	n/a	WEED	1599	n/a	n/a	n/a	n/a	n/a	n/a	n/a
3549139	RECOG_CONF	n/a	LTP085	ltpFR	18	4	n/a	WEED	1599	3	n/a	n/a	n/a	n/a	n/a	n/a
3550451	RECOG_TARGET	n/a	LTP085	ltpFR	18	4	0	WINGS	1614	3	0	n/a	n/a	n/a	n/a	n/a
3551059	RECOG_RESP	n/a	LTP085	ltpFR	18	4	0	WINGS	1614	n/a	0	n/a	n/a	n/a	n/a	n/a
3551693	RECOG_CONF	n/a	LTP085	ltpFR	18	4	0	WINGS	1614	3	0	n/a	n/a	n/a	n/a	n/a
3561869	REC_START	n/a	LTP085	ltpFR	18	5	n/a	n/a	n/a	n/a	n/a	n/a	n/a	n/a	n/a	n/a
3561901	RECOG_TARGET	n/a	LTP085	ltpFR	18	5	-1	WASP	1593	4	-1	n/a	n/a	n/a	n/a	n/a
3562852	RECOG_RESP	n/a	LTP085	ltpFR	18	5	-1	WASP	1593	n/a	-1	n/a	n/a	n/a	n/a	n/a
3563500	RECOG_CONF	n/a	LTP085	ltpFR	18	5	-1	WASP	1593	4	-1	n/a	n/a	n/a	n/a	n/a
3564734	RECOG_TARGET	n/a	LTP085	ltpFR	18	5	1	PATIO	1025	5	0	n/a	n/a	n/a	n/a	n/a
3565276	RECOG_RESP	n/a	LTP085	ltpFR	18	5	1	PATIO	1025	n/a	0	n/a	n/a	n/a	n/a	n/a
3565855	RECOG_CONF	n/a	LTP085	ltpFR	18	5	1	PATIO	1025	5	0	n/a	n/a	n/a	n/a	n/a
3567200	RECOG_TARGET	n/a	LTP085	ltpFR	18	5	0	VALVE	1546	1	0	n/a	n/a	n/a	n/a	n/a
3567711	RECOG_RESP	n/a	LTP085	ltpFR	18	5	0	VALVE	1546	n/a	0	n/a	n/a	n/a	n/a	n/a
3568768	RECOG_CONF	n/a	LTP085	ltpFR	18	5	0	VALVE	1546	1	0	n/a	n/a	n/a	n/a	n/a
3570108	RECOG_TARGET	n/a	LTP085	ltpFR	18	5	0	BANANA	77	3	0	n/a	n/a	n/a	n/a	n/a
3570729	RECOG_RESP	n/a	LTP085	ltpFR	18	5	0	BANANA	77	n/a	0	n/a	n/a	n/a	n/a	n/a
3571342	RECOG_CONF	n/a	LTP085	ltpFR	18	5	0	BANANA	77	3	0	n/a	n/a	n/a	n/a	n/a
3572583	RECOG_TARGET	n/a	LTP085	ltpFR	18	5	-1	JOINT	758	3	-1	n/a	n/a	n/a	n/a	n/a
3573148	RECOG_RESP	n/a	LTP085	ltpFR	18	5	-1	JOINT	758	n/a	-1	n/a	n/a	n/a	n/a	n/a
3573787	RECOG_CONF	n/a	LTP085	ltpFR	18	5	-1	JOINT	758	3	-1	n/a	n/a	n/a	n/a	n/a
3575183	RECOG_TARGET	n/a	LTP085	ltpFR	18	5	-1	CEILING	265	3	-1	n/a	n/a	n/a	n/a	n/a
3575862	RECOG_RESP	n/a	LTP085	ltpFR	18	5	-1	CEILING	265	n/a	-1	n/a	n/a	n/a	n/a	n/a
3576461	RECOG_CONF	n/a	LTP085	ltpFR	18	5	-1	CEILING	265	3	-1	n/a	n/a	n/a	n/a	n/a
3577798	RECOG_TARGET	n/a	LTP085	ltpFR	18	5	0	SANDWICH	1232	4	0	n/a	n/a	n/a	n/a	n/a
3578416	RECOG_RESP	n/a	LTP085	ltpFR	18	5	0	SANDWICH	1232	n/a	0	n/a	n/a	n/a	n/a	n/a
3578995	RECOG_CONF	n/a	LTP085	ltpFR	18	5	0	SANDWICH	1232	4	0	n/a	n/a	n/a	n/a	n/a
3580332	RECOG_TARGET	n/a	LTP085	ltpFR	18	5	1	CREW	406	5	1	n/a	n/a	n/a	n/a	n/a
3580901	RECOG_RESP	n/a	LTP085	ltpFR	18	5	1	CREW	406	n/a	1	n/a	n/a	n/a	n/a	n/a
3581459	RECOG_CONF	n/a	LTP085	ltpFR	18	5	1	CREW	406	5	1	n/a	n/a	n/a	n/a	n/a
3582849	RECOG_LURE	n/a	LTP085	ltpFR	18	5	n/a	TART	1436	1	n/a	n/a	n/a	n/a	n/a	n/a
3583425	RECOG_RESP_VV	n/a	LTP085	ltpFR	18	5	n/a	TART	1436	n/a	n/a	n/a	n/a	n/a	n/a	n/a
3583919	RECOG_RESP	n/a	LTP085	ltpFR	18	5	n/a	TART	1436	n/a	n/a	n/a	n/a	n/a	n/a	n/a
3584542	RECOG_CONF	n/a	LTP085	ltpFR	18	5	n/a	TART	1436	1	n/a	n/a	n/a	n/a	n/a	n/a
3585907	RECOG_LURE	n/a	LTP085	ltpFR	18	5	n/a	NUN	962	3	n/a	n/a	n/a	n/a	n/a	n/a
3586558	RECOG_RESP	n/a	LTP085	ltpFR	18	5	n/a	NUN	962	n/a	n/a	n/a	n/a	n/a	n/a	n/a
3587156	RECOG_CONF	n/a	LTP085	ltpFR	18	5	n/a	NUN	962	3	n/a	n/a	n/a	n/a	n/a	n/a
3588473	RECOG_TARGET	n/a	LTP085	ltpFR	18	5	1	BADGE	68	2	0	n/a	n/a	n/a	n/a	n/a
3589227	RECOG_RESP	n/a	LTP085	ltpFR	18	5	1	BADGE	68	n/a	0	n/a	n/a	n/a	n/a	n/a
3589890	RECOG_CONF	n/a	LTP085	ltpFR	18	5	1	BADGE	68	2	0	n/a	n/a	n/a	n/a	n/a
3591223	RECOG_TARGET	n/a	LTP085	ltpFR	18	5	0	SCULPTURE	1258	2	1	n/a	n/a	n/a	n/a	n/a
3591856	RECOG_RESP	n/a	LTP085	ltpFR	18	5	0	SCULPTURE	1258	n/a	1	n/a	n/a	n/a	n/a	n/a
3592494	RECOG_CONF	n/a	LTP085	ltpFR	18	5	0	SCULPTURE	1258	2	1	n/a	n/a	n/a	n/a	n/a
3593765	RECOG_LURE	n/a	LTP085	ltpFR	18	5	n/a	LAVA	804	3	n/a	n/a	n/a	n/a	n/a	n/a
3594400	RECOG_RESP	n/a	LTP085	ltpFR	18	5	n/a	LAVA	804	n/a	n/a	n/a	n/a	n/a	n/a	n/a
3595009	RECOG_CONF	n/a	LTP085	ltpFR	18	5	n/a	LAVA	804	3	n/a	n/a	n/a	n/a	n/a	n/a
3596406	RECOG_LURE	n/a	LTP085	ltpFR	18	5	n/a	ORNAMENT	985	2	n/a	n/a	n/a	n/a	n/a	n/a
3597034	RECOG_RESP	n/a	LTP085	ltpFR	18	5	n/a	ORNAMENT	985	n/a	n/a	n/a	n/a	n/a	n/a	n/a
3597672	RECOG_CONF	n/a	LTP085	ltpFR	18	5	n/a	ORNAMENT	985	2	n/a	n/a	n/a	n/a	n/a	n/a
3599006	RECOG_TARGET	n/a	LTP085	ltpFR	18	5	-1	VIOLA	1570	5	-1	n/a	n/a	n/a	n/a	n/a
3599598	RECOG_RESP	n/a	LTP085	ltpFR	18	5	-1	VIOLA	1570	n/a	-1	n/a	n/a	n/a	n/a	n/a
3600217	RECOG_CONF	n/a	LTP085	ltpFR	18	5	-1	VIOLA	1570	5	-1	n/a	n/a	n/a	n/a	n/a
3601514	RECOG_LURE	n/a	LTP085	ltpFR	18	5	n/a	CURTAIN	427	2	n/a	n/a	n/a	n/a	n/a	n/a
3602122	RECOG_RESP	n/a	LTP085	ltpFR	18	5	n/a	CURTAIN	427	n/a	n/a	n/a	n/a	n/a	n/a	n/a
3602721	RECOG_CONF	n/a	LTP085	ltpFR	18	5	n/a	CURTAIN	427	2	n/a	n/a	n/a	n/a	n/a	n/a
3604014	RECOG_TARGET	n/a	LTP085	ltpFR	18	5	-1	FOREST	593	5	-1	n/a	n/a	n/a	n/a	n/a
3604956	RECOG_RESP	n/a	LTP085	ltpFR	18	5	-1	FOREST	593	n/a	-1	n/a	n/a	n/a	n/a	n/a
3605495	RECOG_CONF	n/a	LTP085	ltpFR	18	5	-1	FOREST	593	5	-1	n/a	n/a	n/a	n/a	n/a
3606914	RECOG_LURE	n/a	LTP085	ltpFR	18	5	n/a	TABLET	1427	1	n/a	n/a	n/a	n/a	n/a	n/a
3607690	RECOG_RESP	n/a	LTP085	ltpFR	18	5	n/a	TABLET	1427	n/a	n/a	n/a	n/a	n/a	n/a	n/a
3608298	RECOG_CONF	n/a	LTP085	ltpFR	18	5	n/a	TABLET	1427	1	n/a	n/a	n/a	n/a	n/a	n/a
3609655	RECOG_LURE	n/a	LTP085	ltpFR	18	5	n/a	DOOR	486	2	n/a	n/a	n/a	n/a	n/a	n/a
3610359	RECOG_RESP	n/a	LTP085	ltpFR	18	5	n/a	DOOR	486	n/a	n/a	n/a	n/a	n/a	n/a	n/a
3610972	RECOG_CONF	n/a	LTP085	ltpFR	18	5	n/a	DOOR	486	2	n/a	n/a	n/a	n/a	n/a	n/a
3612230	RECOG_LURE	n/a	LTP085	ltpFR	18	5	n/a	COWBOY	395	3	n/a	n/a	n/a	n/a	n/a	n/a
3612838	RECOG_RESP	n/a	LTP085	ltpFR	18	5	n/a	COWBOY	395	n/a	n/a	n/a	n/a	n/a	n/a	n/a
