mstime	trial_type	stim_file	subject	experiment	session	trial	task	item_name	item_num	recog_conf	resp	answer	test_x	test_y	test_z	color_b	color_g	color_r	case	font
0	SESS_START	n/a	LTP075	ltpFR	8	n/a	n/a	n/a	n/a	5	n/a	n/a	0	0	0	n/a	n/a	n/a	n/a	n/a
41880	START	n/a	LTP075	ltpFR	8	n/a	n/a	n/a	n/a	n/a	n/a	n/a	n/a	n/a	n/a	n/a	n/a	n/a	n/a	n/a
41905	PROB	n/a	LTP075	ltpFR	8	n/a	n/a	n/a	n/a	n/a	n/a	13	6	5	2	n/a	n/a	n/a	n/a	n/a
44288	PROB	n/a	LTP075	ltpFR	8	n/a	n/a	n/a	n/a	n/a	n/a	9	2	1	6	n/a	n/a	n/a	n/a	n/a
45954	PROB	n/a	LTP075	ltpFR	8	n/a	n/a	n/a	n/a	n/a	n/a	9	2	6	1	n/a	n/a	n/a	n/a	n/a
47479	PROB	n/a	LTP075	ltpFR	8	n/a	n/a	n/a	n/a	n/a	n/a	20	2	9	9	n/a	n/a	n/a	n/a	n/a
49079	PROB	n/a	LTP075	ltpFR	8	n/a	n/a	n/a	n/a	n/a	n/a	17	8	4	5	n/a	n/a	n/a	n/a	n/a
50921	PROB	n/a	LTP075	ltpFR	8	n/a	n/a	n/a	n/a	n/a	n/a	10	1	7	2	n/a	n/a	n/a	n/a	n/a
52437	PROB	n/a	LTP075	ltpFR	8	n/a	n/a	n/a	n/a	n/a	n/a	18	6	6	6	n/a	n/a	n/a	n/a	n/a
53778	PROB	n/a	LTP075	ltpFR	8	n/a	n/a	n/a	n/a	n/a	n/a	15	3	8	4	n/a	n/a	n/a	n/a	n/a
55504	PROB	n/a	LTP075	ltpFR	8	n/a	n/a	n/a	n/a	n/a	n/a	18	5	7	6	n/a	n/a	n/a	n/a	n/a
57354	PROB	n/a	LTP075	ltpFR	8	n/a	n/a	n/a	n/a	n/a	n/a	17	4	9	4	n/a	n/a	n/a	n/a	n/a
61880	STOP	n/a	LTP075	ltpFR	8	n/a	n/a	n/a	n/a	n/a	n/a	n/a	n/a	n/a	n/a	n/a	n/a	n/a	n/a	n/a
95018	START	n/a	LTP075	ltpFR	8	n/a	n/a	n/a	n/a	n/a	n/a	n/a	n/a	n/a	n/a	n/a	n/a	n/a	n/a	n/a
96526	PROB	n/a	LTP075	ltpFR	8	n/a	n/a	n/a	n/a	n/a	n/a	13	4	7	2	n/a	n/a	n/a	n/a	n/a
98775	PROB	n/a	LTP075	ltpFR	8	n/a	n/a	n/a	n/a	n/a	n/a	16	9	5	2	n/a	n/a	n/a	n/a	n/a
100992	PROB	n/a	LTP075	ltpFR	8	n/a	n/a	n/a	n/a	n/a	n/a	14	7	5	2	n/a	n/a	n/a	n/a	n/a
102580	STOP	n/a	LTP075	ltpFR	8	n/a	n/a	n/a	n/a	n/a	n/a	n/a	n/a	n/a	n/a	n/a	n/a	n/a	n/a	n/a
103950	WORD	wordpools/wasnorm_wordpool.txt	LTP075	ltpFR	8	1	1	PIER	1063	n/a	0	n/a	0	0	0	1	0.412841796875	0.57763671875	upper	../fonts/amplitud.ttf
106950	START	n/a	LTP075	ltpFR	8	n/a	n/a	n/a	n/a	n/a	n/a	n/a	n/a	n/a	n/a	n/a	n/a	n/a	n/a	n/a
107958	PROB	n/a	LTP075	ltpFR	8	n/a	n/a	n/a	n/a	n/a	n/a	19	1	9	9	n/a	n/a	n/a	n/a	n/a
109732	PROB	n/a	LTP075	ltpFR	8	n/a	n/a	n/a	n/a	n/a	n/a	19	4	8	9	n/a	n/a	n/a	n/a	n/a
114950	STOP	n/a	LTP075	ltpFR	8	n/a	n/a	n/a	n/a	n/a	n/a	n/a	n/a	n/a	n/a	n/a	n/a	n/a	n/a	n/a
115832	WORD	wordpools/wasnorm_wordpool.txt	LTP075	ltpFR	8	1	1	CAPTIVE	240	n/a	0	n/a	0	0	0	1	0.412841796875	0.57763671875	upper	../fonts/amplitud.ttf
118840	START	n/a	LTP075	ltpFR	8	n/a	n/a	n/a	n/a	n/a	n/a	n/a	n/a	n/a	n/a	n/a	n/a	n/a	n/a	n/a
119798	PROB	n/a	LTP075	ltpFR	8	n/a	n/a	n/a	n/a	n/a	n/a	23	9	6	8	n/a	n/a	n/a	n/a	n/a
122216	PROB	n/a	LTP075	ltpFR	8	n/a	n/a	n/a	n/a	n/a	n/a	14	4	8	2	n/a	n/a	n/a	n/a	n/a
123499	PROB	n/a	LTP075	ltpFR	8	n/a	n/a	n/a	n/a	n/a	n/a	12	5	4	3	n/a	n/a	n/a	n/a	n/a
124731	PROB	n/a	LTP075	ltpFR	8	n/a	n/a	n/a	n/a	n/a	n/a	13	3	6	4	n/a	n/a	n/a	n/a	n/a
126028	STOP	n/a	LTP075	ltpFR	8	n/a	n/a	n/a	n/a	n/a	n/a	n/a	n/a	n/a	n/a	n/a	n/a	n/a	n/a	n/a
127781	WORD	wordpools/wasnorm_wordpool.txt	LTP075	ltpFR	8	1	1	MINT	898	n/a	0	n/a	0	0	0	1	0.412841796875	0.57763671875	upper	../fonts/amplitud.ttf
130790	START	n/a	LTP075	ltpFR	8	n/a	n/a	n/a	n/a	n/a	n/a	n/a	n/a	n/a	n/a	n/a	n/a	n/a	n/a	n/a
131781	PROB	n/a	LTP075	ltpFR	8	n/a	n/a	n/a	n/a	n/a	n/a	18	4	7	7	n/a	n/a	n/a	n/a	n/a
133132	PROB	n/a	LTP075	ltpFR	8	n/a	n/a	n/a	n/a	n/a	n/a	20	6	5	9	n/a	n/a	n/a	n/a	n/a
134940	PROB	n/a	LTP075	ltpFR	8	n/a	n/a	n/a	n/a	n/a	n/a	11	6	2	3	n/a	n/a	n/a	n/a	n/a
136556	PROB	n/a	LTP075	ltpFR	8	n/a	n/a	n/a	n/a	n/a	n/a	9	3	1	5	n/a	n/a	n/a	n/a	n/a
138196	STOP	n/a	LTP075	ltpFR	8	n/a	n/a	n/a	n/a	n/a	n/a	n/a	n/a	n/a	n/a	n/a	n/a	n/a	n/a	n/a
139648	WORD	wordpools/wasnorm_wordpool.txt	LTP075	ltpFR	8	1	1	SKILLET	1317	n/a	0	n/a	0	0	0	1	0.412841796875	0.57763671875	upper	../fonts/amplitud.ttf
142656	START	n/a	LTP075	ltpFR	8	n/a	n/a	n/a	n/a	n/a	n/a	n/a	n/a	n/a	n/a	n/a	n/a	n/a	n/a	n/a
143531	PROB	n/a	LTP075	ltpFR	8	n/a	n/a	n/a	n/a	n/a	n/a	12	3	6	3	n/a	n/a	n/a	n/a	n/a
144947	PROB	n/a	LTP075	ltpFR	8	n/a	n/a	n/a	n/a	n/a	n/a	4	1	1	2	n/a	n/a	n/a	n/a	n/a
146414	PROB	n/a	LTP075	ltpFR	8	n/a	n/a	n/a	n/a	n/a	n/a	21	5	7	9	n/a	n/a	n/a	n/a	n/a
149476	STOP	n/a	LTP075	ltpFR	8	n/a	n/a	n/a	n/a	n/a	n/a	n/a	n/a	n/a	n/a	n/a	n/a	n/a	n/a	n/a
151855	WORD	wordpools/wasnorm_wordpool.txt	LTP075	ltpFR	8	1	1	PRISON	1127	n/a	0	n/a	0	0	0	1	0.412841796875	0.57763671875	upper	../fonts/amplitud.ttf
154864	START	n/a	LTP075	ltpFR	8	n/a	n/a	n/a	n/a	n/a	n/a	n/a	n/a	n/a	n/a	n/a	n/a	n/a	n/a	n/a
156013	PROB	n/a	LTP075	ltpFR	8	n/a	n/a	n/a	n/a	n/a	n/a	12	1	8	3	n/a	n/a	n/a	n/a	n/a
158363	PROB	n/a	LTP075	ltpFR	8	n/a	n/a	n/a	n/a	n/a	n/a	13	6	6	1	n/a	n/a	n/a	n/a	n/a
159955	PROB	n/a	LTP075	ltpFR	8	n/a	n/a	n/a	n/a	n/a	n/a	14	9	4	1	n/a	n/a	n/a	n/a	n/a
161739	STOP	n/a	LTP075	ltpFR	8	n/a	n/a	n/a	n/a	n/a	n/a	n/a	n/a	n/a	n/a	n/a	n/a	n/a	n/a	n/a
163828	WORD	wordpools/wasnorm_wordpool.txt	LTP075	ltpFR	8	1	1	GLASSES	640	n/a	0	n/a	0	0	0	1	0.412841796875	0.57763671875	upper	../fonts/amplitud.ttf
166837	START	n/a	LTP075	ltpFR	8	n/a	n/a	n/a	n/a	n/a	n/a	n/a	n/a	n/a	n/a	n/a	n/a	n/a	n/a	n/a
167703	PROB	n/a	LTP075	ltpFR	8	n/a	n/a	n/a	n/a	n/a	n/a	19	8	5	6	n/a	n/a	n/a	n/a	n/a
169237	PROB	n/a	LTP075	ltpFR	8	n/a	n/a	n/a	n/a	n/a	n/a	13	5	5	4	n/a	n/a	n/a	n/a	n/a
170844	PROB	n/a	LTP075	ltpFR	8	n/a	n/a	n/a	n/a	n/a	n/a	20	8	8	6	n/a	n/a	n/a	n/a	n/a
174180	STOP	n/a	LTP075	ltpFR	8	n/a	n/a	n/a	n/a	n/a	n/a	n/a	n/a	n/a	n/a	n/a	n/a	n/a	n/a	n/a
176012	WORD	wordpools/wasnorm_wordpool.txt	LTP075	ltpFR	8	1	1	ISLAND	745	n/a	0	n/a	0	0	0	1	0.412841796875	0.57763671875	upper	../fonts/amplitud.ttf
179020	START	n/a	LTP075	ltpFR	8	n/a	n/a	n/a	n/a	n/a	n/a	n/a	n/a	n/a	n/a	n/a	n/a	n/a	n/a	n/a
179835	PROB	n/a	LTP075	ltpFR	8	n/a	n/a	n/a	n/a	n/a	n/a	19	9	3	7	n/a	n/a	n/a	n/a	n/a
181120	PROB	n/a	LTP075	ltpFR	8	n/a	n/a	n/a	n/a	n/a	n/a	13	8	3	2	n/a	n/a	n/a	n/a	n/a
183228	PROB	n/a	LTP075	ltpFR	8	n/a	n/a	n/a	n/a	n/a	n/a	14	7	1	6	n/a	n/a	n/a	n/a	n/a
185444	PROB	n/a	LTP075	ltpFR	8	n/a	n/a	n/a	n/a	n/a	n/a	12	4	4	4	n/a	n/a	n/a	n/a	n/a
186564	STOP	n/a	LTP075	ltpFR	8	n/a	n/a	n/a	n/a	n/a	n/a	n/a	n/a	n/a	n/a	n/a	n/a	n/a	n/a	n/a
187919	WORD	wordpools/wasnorm_wordpool.txt	LTP075	ltpFR	8	1	1	FAUCET	555	n/a	0	n/a	0	0	0	1	0.412841796875	0.57763671875	upper	../fonts/amplitud.ttf
190928	START	n/a	LTP075	ltpFR	8	n/a	n/a	n/a	n/a	n/a	n/a	n/a	n/a	n/a	n/a	n/a	n/a	n/a	n/a	n/a
191826	PROB	n/a	LTP075	ltpFR	8	n/a	n/a	n/a	n/a	n/a	n/a	8	5	1	2	n/a	n/a	n/a	n/a	n/a
193385	PROB	n/a	LTP075	ltpFR	8	n/a	n/a	n/a	n/a	n/a	n/a	17	6	4	7	n/a	n/a	n/a	n/a	n/a
195660	PROB	n/a	LTP075	ltpFR	8	n/a	n/a	n/a	n/a	n/a	n/a	12	1	2	9	n/a	n/a	n/a	n/a	n/a
197085	PROB	n/a	LTP075	ltpFR	8	n/a	n/a	n/a	n/a	n/a	n/a	12	9	1	2	n/a	n/a	n/a	n/a	n/a
198356	STOP	n/a	LTP075	ltpFR	8	n/a	n/a	n/a	n/a	n/a	n/a	n/a	n/a	n/a	n/a	n/a	n/a	n/a	n/a	n/a
199801	WORD	wordpools/wasnorm_wordpool.txt	LTP075	ltpFR	8	1	1	BOLT	146	n/a	0	n/a	0	0	0	1	0.412841796875	0.57763671875	upper	../fonts/amplitud.ttf
202809	START	n/a	LTP075	ltpFR	8	n/a	n/a	n/a	n/a	n/a	n/a	n/a	n/a	n/a	n/a	n/a	n/a	n/a	n/a	n/a
203635	PROB	n/a	LTP075	ltpFR	8	n/a	n/a	n/a	n/a	n/a	n/a	13	6	4	3	n/a	n/a	n/a	n/a	n/a
205185	PROB	n/a	LTP075	ltpFR	8	n/a	n/a	n/a	n/a	n/a	n/a	12	3	2	6	n/a	n/a	n/a	n/a	n/a
207193	PROB	n/a	LTP075	ltpFR	8	n/a	n/a	n/a	n/a	n/a	n/a	15	4	4	7	n/a	n/a	n/a	n/a	n/a
210809	STOP	n/a	LTP075	ltpFR	8	n/a	n/a	n/a	n/a	n/a	n/a	n/a	n/a	n/a	n/a	n/a	n/a	n/a	n/a	n/a
211725	WORD	wordpools/wasnorm_wordpool.txt	LTP075	ltpFR	8	1	1	ACID	2	n/a	0	n/a	0	0	0	1	0.412841796875	0.57763671875	upper	../fonts/amplitud.ttf
214733	START	n/a	LTP075	ltpFR	8	n/a	n/a	n/a	n/a	n/a	n/a	n/a	n/a	n/a	n/a	n/a	n/a	n/a	n/a	n/a
215833	PROB	n/a	LTP075	ltpFR	8	n/a	n/a	n/a	n/a	n/a	n/a	15	5	1	9	n/a	n/a	n/a	n/a	n/a
217067	PROB	n/a	LTP075	ltpFR	8	n/a	n/a	n/a	n/a	n/a	n/a	7	4	1	2	n/a	n/a	n/a	n/a	n/a
218467	PROB	n/a	LTP075	ltpFR	8	n/a	n/a	n/a	n/a	n/a	n/a	16	5	8	3	n/a	n/a	n/a	n/a	n/a
222733	STOP	n/a	LTP075	ltpFR	8	n/a	n/a	n/a	n/a	n/a	n/a	n/a	n/a	n/a	n/a	n/a	n/a	n/a	n/a	n/a
223608	WORD	wordpools/wasnorm_wordpool.txt	LTP075	ltpFR	8	1	1	DENTIST	447	n/a	1	n/a	0	0	0	1	0.412841796875	0.57763671875	upper	../fonts/amplitud.ttf
226617	START	n/a	LTP075	ltpFR	8	n/a	n/a	n/a	n/a	n/a	n/a	n/a	n/a	n/a	n/a	n/a	n/a	n/a	n/a	n/a
227807	PROB	n/a	LTP075	ltpFR	8	n/a	n/a	n/a	n/a	n/a	n/a	22	7	6	9	n/a	n/a	n/a	n/a	n/a
230266	PROB	n/a	LTP075	ltpFR	8	n/a	n/a	n/a	n/a	n/a	n/a	24	9	6	9	n/a	n/a	n/a	n/a	n/a
232958	PROB	n/a	LTP075	ltpFR	8	n/a	n/a	n/a	n/a	n/a	n/a	14	3	7	4	n/a	n/a	n/a	n/a	n/a
234220	STOP	n/a	LTP075	ltpFR	8	n/a	n/a	n/a	n/a	n/a	n/a	n/a	n/a	n/a	n/a	n/a	n/a	n/a	n/a	n/a
235449	WORD	wordpools/wasnorm_wordpool.txt	LTP075	ltpFR	8	1	1	YOLK	1633	n/a	0	n/a	0	0	0	1	0.412841796875	0.57763671875	upper	../fonts/amplitud.ttf
238458	START	n/a	LTP075	ltpFR	8	n/a	n/a	n/a	n/a	n/a	n/a	n/a	n/a	n/a	n/a	n/a	n/a	n/a	n/a	n/a
239307	PROB	n/a	LTP075	ltpFR	8	n/a	n/a	n/a	n/a	n/a	n/a	15	4	9	2	n/a	n/a	n/a	n/a	n/a
240731	PROB	n/a	LTP075	ltpFR	8	n/a	n/a	n/a	n/a	n/a	n/a	18	8	9	1	n/a	n/a	n/a	n/a	n/a
241982	PROB	n/a	LTP075	ltpFR	8	n/a	n/a	n/a	n/a	n/a	n/a	25	6	8	9	n/a	n/a	n/a	n/a	n/a
246458	STOP	n/a	LTP075	ltpFR	8	n/a	n/a	n/a	n/a	n/a	n/a	n/a	n/a	n/a	n/a	n/a	n/a	n/a	n/a	n/a
247348	WORD	wordpools/wasnorm_wordpool.txt	LTP075	ltpFR	8	1	1	BUSH	202	n/a	1	n/a	0	0	0	1	0.412841796875	0.57763671875	upper	../fonts/amplitud.ttf
250357	START	n/a	LTP075	ltpFR	8	n/a	n/a	n/a	n/a	n/a	n/a	n/a	n/a	n/a	n/a	n/a	n/a	n/a	n/a	n/a
251265	PROB	n/a	LTP075	ltpFR	8	n/a	n/a	n/a	n/a	n/a	n/a	18	6	9	3	n/a	n/a	n/a	n/a	n/a
253014	PROB	n/a	LTP075	ltpFR	8	n/a	n/a	n/a	n/a	n/a	n/a	16	7	4	5	n/a	n/a	n/a	n/a	n/a
254689	PROB	n/a	LTP075	ltpFR	8	n/a	n/a	n/a	n/a	n/a	n/a	14	4	3	7	n/a	n/a	n/a	n/a	n/a
255838	PROB	n/a	LTP075	ltpFR	8	n/a	n/a	n/a	n/a	n/a	n/a	11	4	6	1	n/a	n/a	n/a	n/a	n/a
257148	STOP	n/a	LTP075	ltpFR	8	n/a	n/a	n/a	n/a	n/a	n/a	n/a	n/a	n/a	n/a	n/a	n/a	n/a	n/a	n/a
259239	WORD	wordpools/wasnorm_wordpool.txt	LTP075	ltpFR	8	1	1	OUTLAW	989	n/a	1	n/a	0	0	0	1	0.412841796875	0.57763671875	upper	../fonts/amplitud.ttf
262248	START	n/a	LTP075	ltpFR	8	n/a	n/a	n/a	n/a	n/a	n/a	n/a	n/a	n/a	n/a	n/a	n/a	n/a	n/a	n/a
263230	PROB	n/a	LTP075	ltpFR	8	n/a	n/a	n/a	n/a	n/a	n/a	6	3	2	1	n/a	n/a	n/a	n/a	n/a
264889	PROB	n/a	LTP075	ltpFR	8	n/a	n/a	n/a	n/a	n/a	n/a	17	9	3	5	n/a	n/a	n/a	n/a	n/a
266522	PROB	n/a	LTP075	ltpFR	8	n/a	n/a	n/a	n/a	n/a	n/a	13	1	8	4	n/a	n/a	n/a	n/a	n/a
267922	PROB	n/a	LTP075	ltpFR	8	n/a	n/a	n/a	n/a	n/a	n/a	13	3	3	7	n/a	n/a	n/a	n/a	n/a
269156	STOP	n/a	LTP075	ltpFR	8	n/a	n/a	n/a	n/a	n/a	n/a	n/a	n/a	n/a	n/a	n/a	n/a	n/a	n/a	n/a
271338	WORD	wordpools/wasnorm_wordpool.txt	LTP075	ltpFR	8	1	1	BANDIT	81	n/a	1	n/a	0	0	0	1	0.412841796875	0.57763671875	upper	../fonts/amplitud.ttf
274347	START	n/a	LTP075	ltpFR	8	n/a	n/a	n/a	n/a	n/a	n/a	n/a	n/a	n/a	n/a	n/a	n/a	n/a	n/a	n/a
275479	PROB	n/a	LTP075	ltpFR	8	n/a	n/a	n/a	n/a	n/a	n/a	6	4	1	1	n/a	n/a	n/a	n/a	n/a
276712	PROB	n/a	LTP075	ltpFR	8	n/a	n/a	n/a	n/a	n/a	n/a	12	3	1	8	n/a	n/a	n/a	n/a	n/a
278354	PROB	n/a	LTP075	ltpFR	8	n/a	n/a	n/a	n/a	n/a	n/a	22	8	9	4	n/a	n/a	n/a	n/a	n/a
280711	PROB	n/a	LTP075	ltpFR	8	n/a	n/a	n/a	n/a	n/a	n/a	12	2	5	5	n/a	n/a	n/a	n/a	n/a
281980	STOP	n/a	LTP075	ltpFR	8	n/a	n/a	n/a	n/a	n/a	n/a	n/a	n/a	n/a	n/a	n/a	n/a	n/a	n/a	n/a
283246	WORD	wordpools/wasnorm_wordpool.txt	LTP075	ltpFR	8	1	1	CAPTAIN	239	n/a	1	n/a	0	0	0	1	0.412841796875	0.57763671875	upper	../fonts/amplitud.ttf
286254	START	n/a	LTP075	ltpFR	8	n/a	n/a	n/a	n/a	n/a	n/a	n/a	n/a	n/a	n/a	n/a	n/a	n/a	n/a	n/a
287195	PROB	n/a	LTP075	ltpFR	8	n/a	n/a	n/a	n/a	n/a	n/a	13	6	6	1	n/a	n/a	n/a	n/a	n/a
288470	PROB	n/a	LTP075	ltpFR	8	n/a	n/a	n/a	n/a	n/a	n/a	9	3	5	1	n/a	n/a	n/a	n/a	n/a
289736	PROB	n/a	LTP075	ltpFR	8	n/a	n/a	n/a	n/a	n/a	n/a	24	9	9	6	n/a	n/a	n/a	n/a	n/a
291603	PROB	n/a	LTP075	ltpFR	8	n/a	n/a	n/a	n/a	n/a	n/a	7	1	3	3	n/a	n/a	n/a	n/a	n/a
292795	STOP	n/a	LTP075	ltpFR	8	n/a	n/a	n/a	n/a	n/a	n/a	n/a	n/a	n/a	n/a	n/a	n/a	n/a	n/a	n/a
296125	REC_START	n/a	LTP075	ltpFR	8	1	n/a	n/a	n/a	n/a	n/a	n/a	0	0	0	n/a	n/a	n/a	n/a	n/a
297357	REC_WORD	wordpools/wasnorm_wordpool.txt	LTP075	ltpFR	8	1	1	BOLT	146	n/a	0	n/a	0	0	0	n/a	n/a	n/a	n/a	n/a
298644	REC_WORD	wordpools/wasnorm_wordpool.txt	LTP075	ltpFR	8	1	1	CAPTAIN	239	n/a	1	n/a	0	0	0	n/a	n/a	n/a	n/a	n/a
300475	REC_WORD	wordpools/wasnorm_wordpool.txt	LTP075	ltpFR	8	1	1	MINT	898	n/a	0	n/a	0	0	0	n/a	n/a	n/a	n/a	n/a
305045	REC_WORD	wordpools/wasnorm_wordpool.txt	LTP075	ltpFR	8	1	1	BANDIT	81	n/a	1	n/a	0	0	0	n/a	n/a	n/a	n/a	n/a
333071	REC_WORD	wordpools/wasnorm_wordpool.txt	LTP075	ltpFR	8	1	1	ACID	2	n/a	0	n/a	0	0	0	n/a	n/a	n/a	n/a	n/a
334228	REC_WORD	wordpools/wasnorm_wordpool.txt	LTP075	ltpFR	8	1	1	OUTLAW	989	n/a	1	n/a	0	0	0	n/a	n/a	n/a	n/a	n/a
377030	WORD	wordpools/wasnorm_wordpool.txt	LTP075	ltpFR	8	2	0	BURGLAR	200	n/a	1	n/a	0	0	0	0	0.5869140625	0.422607421875	lower	../fonts/zerothre.ttf
381005	WORD	wordpools/wasnorm_wordpool.txt	LTP075	ltpFR	8	2	0	WRITER	1627	n/a	1	n/a	0	0	0	0	0.5869140625	0.422607421875	lower	../fonts/zerothre.ttf
384820	WORD	wordpools/wasnorm_wordpool.txt	LTP075	ltpFR	8	2	0	FOOTBALL	591	n/a	1	n/a	0	0	0	0	0.5869140625	0.422607421875	lower	../fonts/zerothre.ttf
388663	WORD	wordpools/wasnorm_wordpool.txt	LTP075	ltpFR	8	2	0	BALL	73	n/a	0	n/a	0	0	0	0	0.5869140625	0.422607421875	lower	../fonts/zerothre.ttf
392787	WORD	wordpools/wasnorm_wordpool.txt	LTP075	ltpFR	8	2	1	AGENT	10	n/a	1	n/a	0	0	0	1	0.412841796875	0.57763671875	upper	../fonts/amplitud.ttf
396946	WORD	wordpools/wasnorm_wordpool.txt	LTP075	ltpFR	8	2	1	GREASE	660	n/a	0	n/a	0	0	0	1	0.412841796875	0.57763671875	upper	../fonts/amplitud.ttf
401129	WORD	wordpools/wasnorm_wordpool.txt	LTP075	ltpFR	8	2	1	PILOT	1070	n/a	1	n/a	0	0	0	1	0.412841796875	0.57763671875	upper	../fonts/amplitud.ttf
404978	WORD	wordpools/wasnorm_wordpool.txt	LTP075	ltpFR	8	2	1	MAGAZINE	853	n/a	0	n/a	0	0	0	1	0.412841796875	0.57763671875	upper	../fonts/amplitud.ttf
409003	WORD	wordpools/wasnorm_wordpool.txt	LTP075	ltpFR	8	2	1	PUBLICATION	1136	n/a	0	n/a	0	0	0	1	0.412841796875	0.57763671875	upper	../fonts/amplitud.ttf
412969	WORD	wordpools/wasnorm_wordpool.txt	LTP075	ltpFR	8	2	0	SWATTER	1418	n/a	n/a	n/a	0	0	0	0	0.5869140625	0.422607421875	lower	../fonts/zerothre.ttf
415994	SLOW_MSG	n/a	LTP075	ltpFR	8	2	n/a	n/a	n/a	n/a	n/a	n/a	0	0	0	n/a	n/a	n/a	n/a	n/a
418669	WORD	wordpools/wasnorm_wordpool.txt	LTP075	ltpFR	8	2	0	TERMITE	1451	n/a	0	n/a	0	0	0	0	0.5869140625	0.422607421875	lower	../fonts/zerothre.ttf
422809	WORD	wordpools/wasnorm_wordpool.txt	LTP075	ltpFR	8	2	0	POLICE	1098	n/a	1	n/a	0	0	0	0	0.5869140625	0.422607421875	lower	../fonts/zerothre.ttf
426792	WORD	wordpools/wasnorm_wordpool.txt	LTP075	ltpFR	8	2	0	SIGNATURE	1306	n/a	0	n/a	0	0	0	0	0.5869140625	0.422607421875	lower	../fonts/zerothre.ttf
430800	WORD	wordpools/wasnorm_wordpool.txt	LTP075	ltpFR	8	2	1	AIRPORT	13	n/a	0	n/a	0	0	0	1	0.412841796875	0.57763671875	upper	../fonts/amplitud.ttf
434918	WORD	wordpools/wasnorm_wordpool.txt	LTP075	ltpFR	8	2	1	PAIL	1002	n/a	0	n/a	0	0	0	1	0.412841796875	0.57763671875	upper	../fonts/amplitud.ttf
438992	WORD	wordpools/wasnorm_wordpool.txt	LTP075	ltpFR	8	2	1	HARP	689	n/a	0	n/a	0	0	0	1	0.412841796875	0.57763671875	upper	../fonts/amplitud.ttf
442001	START	n/a	LTP075	ltpFR	8	n/a	n/a	n/a	n/a	n/a	n/a	n/a	n/a	n/a	n/a	n/a	n/a	n/a	n/a	n/a
443159	PROB	n/a	LTP075	ltpFR	8	n/a	n/a	n/a	n/a	n/a	n/a	18	5	9	4	n/a	n/a	n/a	n/a	n/a
445434	PROB	n/a	LTP075	ltpFR	8	n/a	n/a	n/a	n/a	n/a	n/a	18	6	6	6	n/a	n/a	n/a	n/a	n/a
446642	PROB	n/a	LTP075	ltpFR	8	n/a	n/a	n/a	n/a	n/a	n/a	21	7	6	8	n/a	n/a	n/a	n/a	n/a
448699	STOP	n/a	LTP075	ltpFR	8	n/a	n/a	n/a	n/a	n/a	n/a	n/a	n/a	n/a	n/a	n/a	n/a	n/a	n/a	n/a
451867	REC_START	n/a	LTP075	ltpFR	8	2	n/a	n/a	n/a	n/a	n/a	n/a	0	0	0	n/a	n/a	n/a	n/a	n/a
453398	REC_WORD	wordpools/wasnorm_wordpool.txt	LTP075	ltpFR	8	2	1	PAIL	1002	n/a	0	n/a	0	0	0	n/a	n/a	n/a	n/a	n/a
455468	REC_WORD	wordpools/wasnorm_wordpool.txt	LTP075	ltpFR	8	2	0	FOOTBALL	591	n/a	1	n/a	0	0	0	n/a	n/a	n/a	n/a	n/a
457135	REC_WORD	wordpools/wasnorm_wordpool.txt	LTP075	ltpFR	8	2	0	BALL	73	n/a	0	n/a	0	0	0	n/a	n/a	n/a	n/a	n/a
458631	REC_WORD	wordpools/wasnorm_wordpool.txt	LTP075	ltpFR	8	2	1	PUBLICATION	1136	n/a	0	n/a	0	0	0	n/a	n/a	n/a	n/a	n/a
460592	REC_WORD	wordpools/wasnorm_wordpool.txt	LTP075	ltpFR	8	2	1	MAGAZINE	853	n/a	0	n/a	0	0	0	n/a	n/a	n/a	n/a	n/a
462577	REC_WORD	wordpools/wasnorm_wordpool.txt	LTP075	ltpFR	8	2	0	WRITER	1627	n/a	1	n/a	0	0	0	n/a	n/a	n/a	n/a	n/a
464777	REC_WORD	wordpools/wasnorm_wordpool.txt	LTP075	ltpFR	8	2	1	PILOT	1070	n/a	1	n/a	0	0	0	n/a	n/a	n/a	n/a	n/a
466843	REC_WORD	wordpools/wasnorm_wordpool.txt	LTP075	ltpFR	8	2	0	TERMITE	1451	n/a	0	n/a	0	0	0	n/a	n/a	n/a	n/a	n/a
530920	START	n/a	LTP075	ltpFR	8	n/a	n/a	n/a	n/a	n/a	n/a	n/a	n/a	n/a	n/a	n/a	n/a	n/a	n/a	n/a
532427	PROB	n/a	LTP075	ltpFR	8	n/a	n/a	n/a	n/a	n/a	n/a	19	6	8	5	n/a	n/a	n/a	n/a	n/a
534994	PROB	n/a	LTP075	ltpFR	8	n/a	n/a	n/a	n/a	n/a	n/a	15	2	8	5	n/a	n/a	n/a	n/a	n/a
536369	PROB	n/a	LTP075	ltpFR	8	n/a	n/a	n/a	n/a	n/a	n/a	16	9	4	3	n/a	n/a	n/a	n/a	n/a
538004	STOP	n/a	LTP075	ltpFR	8	n/a	n/a	n/a	n/a	n/a	n/a	n/a	n/a	n/a	n/a	n/a	n/a	n/a	n/a	n/a
539759	WORD	wordpools/wasnorm_wordpool.txt	LTP075	ltpFR	8	3	0	SPIDER	1351	n/a	0	n/a	0	0	0	0	0.5869140625	0.422607421875	lower	../fonts/zerothre.ttf
542768	START	n/a	LTP075	ltpFR	8	n/a	n/a	n/a	n/a	n/a	n/a	n/a	n/a	n/a	n/a	n/a	n/a	n/a	n/a	n/a
543784	PROB	n/a	LTP075	ltpFR	8	n/a	n/a	n/a	n/a	n/a	n/a	16	5	5	6	n/a	n/a	n/a	n/a	n/a
545151	PROB	n/a	LTP075	ltpFR	8	n/a	n/a	n/a	n/a	n/a	n/a	24	9	7	8	n/a	n/a	n/a	n/a	n/a
546817	PROB	n/a	LTP075	ltpFR	8	n/a	n/a	n/a	n/a	n/a	n/a	18	7	7	4	n/a	n/a	n/a	n/a	n/a
548101	PROB	n/a	LTP075	ltpFR	8	n/a	n/a	n/a	n/a	n/a	n/a	19	9	7	3	n/a	n/a	n/a	n/a	n/a
550768	STOP	n/a	LTP075	ltpFR	8	n/a	n/a	n/a	n/a	n/a	n/a	n/a	n/a	n/a	n/a	n/a	n/a	n/a	n/a	n/a
551893	WORD	wordpools/wasnorm_wordpool.txt	LTP075	ltpFR	8	3	0	ANTEATER	26	n/a	1	n/a	0	0	0	0	0.5869140625	0.422607421875	lower	../fonts/zerothre.ttf
554901	START	n/a	LTP075	ltpFR	8	n/a	n/a	n/a	n/a	n/a	n/a	n/a	n/a	n/a	n/a	n/a	n/a	n/a	n/a	n/a
555901	PROB	n/a	LTP075	ltpFR	8	n/a	n/a	n/a	n/a	n/a	n/a	17	9	3	5	n/a	n/a	n/a	n/a	n/a
557934	PROB	n/a	LTP075	ltpFR	8	n/a	n/a	n/a	n/a	n/a	n/a	22	9	4	9	n/a	n/a	n/a	n/a	n/a
559841	PROB	n/a	LTP075	ltpFR	8	n/a	n/a	n/a	n/a	n/a	n/a	17	2	6	9	n/a	n/a	n/a	n/a	n/a
561612	STOP	n/a	LTP075	ltpFR	8	n/a	n/a	n/a	n/a	n/a	n/a	n/a	n/a	n/a	n/a	n/a	n/a	n/a	n/a	n/a
563824	WORD	wordpools/wasnorm_wordpool.txt	LTP075	ltpFR	8	3	0	TROUT	1511	n/a	0	n/a	0	0	0	0	0.5869140625	0.422607421875	lower	../fonts/zerothre.ttf
566833	START	n/a	LTP075	ltpFR	8	n/a	n/a	n/a	n/a	n/a	n/a	n/a	n/a	n/a	n/a	n/a	n/a	n/a	n/a	n/a
568025	PROB	n/a	LTP075	ltpFR	8	n/a	n/a	n/a	n/a	n/a	n/a	14	2	7	5	n/a	n/a	n/a	n/a	n/a
569749	PROB	n/a	LTP075	ltpFR	8	n/a	n/a	n/a	n/a	n/a	n/a	12	3	6	9	n/a	n/a	n/a	n/a	n/a
571516	PROB	n/a	LTP075	ltpFR	8	n/a	n/a	n/a	n/a	n/a	n/a	7	3	2	2	n/a	n/a	n/a	n/a	n/a
573988	STOP	n/a	LTP075	ltpFR	8	n/a	n/a	n/a	n/a	n/a	n/a	n/a	n/a	n/a	n/a	n/a	n/a	n/a	n/a	n/a
575683	WORD	wordpools/wasnorm_wordpool.txt	LTP075	ltpFR	8	3	0	PUB	1135	n/a	1	n/a	0	0	0	0	0.5869140625	0.422607421875	lower	../fonts/zerothre.ttf
578691	START	n/a	LTP075	ltpFR	8	n/a	n/a	n/a	n/a	n/a	n/a	n/a	n/a	n/a	n/a	n/a	n/a	n/a	n/a	n/a
579857	PROB	n/a	LTP075	ltpFR	8	n/a	n/a	n/a	n/a	n/a	n/a	19	7	9	3	n/a	n/a	n/a	n/a	n/a
581349	PROB	n/a	LTP075	ltpFR	8	n/a	n/a	n/a	n/a	n/a	n/a	12	6	2	4	n/a	n/a	n/a	n/a	n/a
582823	PROB	n/a	LTP075	ltpFR	8	n/a	n/a	n/a	n/a	n/a	n/a	20	8	4	8	n/a	n/a	n/a	n/a	n/a
586691	STOP	n/a	LTP075	ltpFR	8	n/a	n/a	n/a	n/a	n/a	n/a	n/a	n/a	n/a	n/a	n/a	n/a	n/a	n/a	n/a
587665	WORD	wordpools/wasnorm_wordpool.txt	LTP075	ltpFR	8	3	0	PASTA	1021	n/a	0	n/a	0	0	0	0	0.5869140625	0.422607421875	lower	../fonts/zerothre.ttf
590673	START	n/a	LTP075	ltpFR	8	n/a	n/a	n/a	n/a	n/a	n/a	n/a	n/a	n/a	n/a	n/a	n/a	n/a	n/a	n/a
591856	PROB	n/a	LTP075	ltpFR	8	n/a	n/a	n/a	n/a	n/a	n/a	22	7	9	6	n/a	n/a	n/a	n/a	n/a
594148	PROB	n/a	LTP075	ltpFR	8	n/a	n/a	n/a	n/a	n/a	n/a	19	4	8	7	n/a	n/a	n/a	n/a	n/a
595948	PROB	n/a	LTP075	ltpFR	8	n/a	n/a	n/a	n/a	n/a	n/a	15	3	4	6	n/a	n/a	n/a	n/a	n/a
597468	STOP	n/a	LTP075	ltpFR	8	n/a	n/a	n/a	n/a	n/a	n/a	n/a	n/a	n/a	n/a	n/a	n/a	n/a	n/a	n/a
599796	WORD	wordpools/wasnorm_wordpool.txt	LTP075	ltpFR	8	3	0	LOBBY	836	n/a	1	n/a	0	0	0	0	0.5869140625	0.422607421875	lower	../fonts/zerothre.ttf
602805	START	n/a	LTP075	ltpFR	8	n/a	n/a	n/a	n/a	n/a	n/a	n/a	n/a	n/a	n/a	n/a	n/a	n/a	n/a	n/a
603655	PROB	n/a	LTP075	ltpFR	8	n/a	n/a	n/a	n/a	n/a	n/a	19	8	4	7	n/a	n/a	n/a	n/a	n/a
606005	PROB	n/a	LTP075	ltpFR	8	n/a	n/a	n/a	n/a	n/a	n/a	11	1	9	1	n/a	n/a	n/a	n/a	n/a
607080	PROB	n/a	LTP075	ltpFR	8	n/a	n/a	n/a	n/a	n/a	n/a	22	7	7	8	n/a	n/a	n/a	n/a	n/a
609205	PROB	n/a	LTP075	ltpFR	8	n/a	n/a	n/a	n/a	n/a	n/a	13	1	9	3	n/a	n/a	n/a	n/a	n/a
610412	STOP	n/a	LTP075	ltpFR	8	n/a	n/a	n/a	n/a	n/a	n/a	n/a	n/a	n/a	n/a	n/a	n/a	n/a	n/a	n/a
612013	WORD	wordpools/wasnorm_wordpool.txt	LTP075	ltpFR	8	3	0	BRANDY	169	n/a	0	n/a	0	0	0	0	0.5869140625	0.422607421875	lower	../fonts/zerothre.ttf
615022	START	n/a	LTP075	ltpFR	8	n/a	n/a	n/a	n/a	n/a	n/a	n/a	n/a	n/a	n/a	n/a	n/a	n/a	n/a	n/a
615955	PROB	n/a	LTP075	ltpFR	8	n/a	n/a	n/a	n/a	n/a	n/a	17	9	4	4	n/a	n/a	n/a	n/a	n/a
617753	PROB	n/a	LTP075	ltpFR	8	n/a	n/a	n/a	n/a	n/a	n/a	22	4	9	9	n/a	n/a	n/a	n/a	n/a
619720	PROB	n/a	LTP075	ltpFR	8	n/a	n/a	n/a	n/a	n/a	n/a	19	4	6	9	n/a	n/a	n/a	n/a	n/a
623021	STOP	n/a	LTP075	ltpFR	8	n/a	n/a	n/a	n/a	n/a	n/a	n/a	n/a	n/a	n/a	n/a	n/a	n/a	n/a	n/a
624229	WORD	wordpools/wasnorm_wordpool.txt	LTP075	ltpFR	8	3	0	FIN	566	n/a	0	n/a	0	0	0	0	0.5869140625	0.422607421875	lower	../fonts/zerothre.ttf
627237	START	n/a	LTP075	ltpFR	8	n/a	n/a	n/a	n/a	n/a	n/a	n/a	n/a	n/a	n/a	n/a	n/a	n/a	n/a	n/a
628079	PROB	n/a	LTP075	ltpFR	8	n/a	n/a	n/a	n/a	n/a	n/a	17	7	9	1	n/a	n/a	n/a	n/a	n/a
629354	PROB	n/a	LTP075	ltpFR	8	n/a	n/a	n/a	n/a	n/a	n/a	17	5	8	5	n/a	n/a	n/a	n/a	n/a
632003	PROB	n/a	LTP075	ltpFR	8	n/a	n/a	n/a	n/a	n/a	n/a	20	8	3	9	n/a	n/a	n/a	n/a	n/a
633603	PROB	n/a	LTP075	ltpFR	8	n/a	n/a	n/a	n/a	n/a	n/a	17	5	4	8	n/a	n/a	n/a	n/a	n/a
634996	STOP	n/a	LTP075	ltpFR	8	n/a	n/a	n/a	n/a	n/a	n/a	n/a	n/a	n/a	n/a	n/a	n/a	n/a	n/a	n/a
636070	WORD	wordpools/wasnorm_wordpool.txt	LTP075	ltpFR	8	3	0	CHILD	299	n/a	0	n/a	0	0	0	0	0.5869140625	0.422607421875	lower	../fonts/zerothre.ttf
639078	START	n/a	LTP075	ltpFR	8	n/a	n/a	n/a	n/a	n/a	n/a	n/a	n/a	n/a	n/a	n/a	n/a	n/a	n/a	n/a
640061	PROB	n/a	LTP075	ltpFR	8	n/a	n/a	n/a	n/a	n/a	n/a	15	4	3	8	n/a	n/a	n/a	n/a	n/a
642594	PROB	n/a	LTP075	ltpFR	8	n/a	n/a	n/a	n/a	n/a	n/a	18	2	8	8	n/a	n/a	n/a	n/a	n/a
643702	PROB	n/a	LTP075	ltpFR	8	n/a	n/a	n/a	n/a	n/a	n/a	15	7	4	4	n/a	n/a	n/a	n/a	n/a
645402	PROB	n/a	LTP075	ltpFR	8	n/a	n/a	n/a	n/a	n/a	n/a	10	4	4	1	n/a	n/a	n/a	n/a	n/a
646803	STOP	n/a	LTP075	ltpFR	8	n/a	n/a	n/a	n/a	n/a	n/a	n/a	n/a	n/a	n/a	n/a	n/a	n/a	n/a	n/a
648077	WORD	wordpools/wasnorm_wordpool.txt	LTP075	ltpFR	8	3	0	PASSAGE	1019	n/a	1	n/a	0	0	0	0	0.5869140625	0.422607421875	lower	../fonts/zerothre.ttf
651086	START	n/a	LTP075	ltpFR	8	n/a	n/a	n/a	n/a	n/a	n/a	n/a	n/a	n/a	n/a	n/a	n/a	n/a	n/a	n/a
652127	PROB	n/a	LTP075	ltpFR	8	n/a	n/a	n/a	n/a	n/a	n/a	15	8	3	4	n/a	n/a	n/a	n/a	n/a
653543	PROB	n/a	LTP075	ltpFR	8	n/a	n/a	n/a	n/a	n/a	n/a	19	7	3	9	n/a	n/a	n/a	n/a	n/a
654868	PROB	n/a	LTP075	ltpFR	8	n/a	n/a	n/a	n/a	n/a	n/a	14	9	3	2	n/a	n/a	n/a	n/a	n/a
656602	PROB	n/a	LTP075	ltpFR	8	n/a	n/a	n/a	n/a	n/a	n/a	16	4	7	5	n/a	n/a	n/a	n/a	n/a
658428	STOP	n/a	LTP075	ltpFR	8	n/a	n/a	n/a	n/a	n/a	n/a	n/a	n/a	n/a	n/a	n/a	n/a	n/a	n/a	n/a
660135	WORD	wordpools/wasnorm_wordpool.txt	LTP075	ltpFR	8	3	0	OUTDOORS	987	n/a	1	n/a	0	0	0	0	0.5869140625	0.422607421875	lower	../fonts/zerothre.ttf
663143	START	n/a	LTP075	ltpFR	8	n/a	n/a	n/a	n/a	n/a	n/a	n/a	n/a	n/a	n/a	n/a	n/a	n/a	n/a	n/a
664251	PROB	n/a	LTP075	ltpFR	8	n/a	n/a	n/a	n/a	n/a	n/a	23	8	7	8	n/a	n/a	n/a	n/a	n/a
666758	PROB	n/a	LTP075	ltpFR	8	n/a	n/a	n/a	n/a	n/a	n/a	14	8	1	5	n/a	n/a	n/a	n/a	n/a
671143	STOP	n/a	LTP075	ltpFR	8	n/a	n/a	n/a	n/a	n/a	n/a	n/a	n/a	n/a	n/a	n/a	n/a	n/a	n/a	n/a
672192	WORD	wordpools/wasnorm_wordpool.txt	LTP075	ltpFR	8	3	0	REEF	1177	n/a	1	n/a	0	0	0	0	0.5869140625	0.422607421875	lower	../fonts/zerothre.ttf
675201	START	n/a	LTP075	ltpFR	8	n/a	n/a	n/a	n/a	n/a	n/a	n/a	n/a	n/a	n/a	n/a	n/a	n/a	n/a	n/a
676083	PROB	n/a	LTP075	ltpFR	8	n/a	n/a	n/a	n/a	n/a	n/a	14	7	2	5	n/a	n/a	n/a	n/a	n/a
677367	PROB	n/a	LTP075	ltpFR	8	n/a	n/a	n/a	n/a	n/a	n/a	10	4	1	5	n/a	n/a	n/a	n/a	n/a
678799	PROB	n/a	LTP075	ltpFR	8	n/a	n/a	n/a	n/a	n/a	n/a	16	9	5	2	n/a	n/a	n/a	n/a	n/a
680608	PROB	n/a	LTP075	ltpFR	8	n/a	n/a	n/a	n/a	n/a	n/a	14	3	2	9	n/a	n/a	n/a	n/a	n/a
681980	STOP	n/a	LTP075	ltpFR	8	n/a	n/a	n/a	n/a	n/a	n/a	n/a	n/a	n/a	n/a	n/a	n/a	n/a	n/a	n/a
684325	WORD	wordpools/wasnorm_wordpool.txt	LTP075	ltpFR	8	3	0	CASHEW	253	n/a	0	n/a	0	0	0	0	0.5869140625	0.422607421875	lower	../fonts/zerothre.ttf
687333	START	n/a	LTP075	ltpFR	8	n/a	n/a	n/a	n/a	n/a	n/a	n/a	n/a	n/a	n/a	n/a	n/a	n/a	n/a	n/a
688266	PROB	n/a	LTP075	ltpFR	8	n/a	n/a	n/a	n/a	n/a	n/a	8	2	3	3	n/a	n/a	n/a	n/a	n/a
689706	PROB	n/a	LTP075	ltpFR	8	n/a	n/a	n/a	n/a	n/a	n/a	1	7	5	6	n/a	n/a	n/a	n/a	n/a
692174	PROB	n/a	LTP075	ltpFR	8	n/a	n/a	n/a	n/a	n/a	n/a	24	8	8	8	n/a	n/a	n/a	n/a	n/a
695333	STOP	n/a	LTP075	ltpFR	8	n/a	n/a	n/a	n/a	n/a	n/a	n/a	n/a	n/a	n/a	n/a	n/a	n/a	n/a	n/a
696290	WORD	wordpools/wasnorm_wordpool.txt	LTP075	ltpFR	8	3	0	PEANUT	1032	n/a	0	n/a	0	0	0	0	0.5869140625	0.422607421875	lower	../fonts/zerothre.ttf
699299	START	n/a	LTP075	ltpFR	8	n/a	n/a	n/a	n/a	n/a	n/a	n/a	n/a	n/a	n/a	n/a	n/a	n/a	n/a	n/a
700132	PROB	n/a	LTP075	ltpFR	8	n/a	n/a	n/a	n/a	n/a	n/a	21	8	8	5	n/a	n/a	n/a	n/a	n/a
701540	PROB	n/a	LTP075	ltpFR	8	n/a	n/a	n/a	n/a	n/a	n/a	13	4	1	8	n/a	n/a	n/a	n/a	n/a
703023	PROB	n/a	LTP075	ltpFR	8	n/a	n/a	n/a	n/a	n/a	n/a	11	6	4	1	n/a	n/a	n/a	n/a	n/a
704115	PROB	n/a	LTP075	ltpFR	8	n/a	n/a	n/a	n/a	n/a	n/a	19	6	9	4	n/a	n/a	n/a	n/a	n/a
705860	STOP	n/a	LTP075	ltpFR	8	n/a	n/a	n/a	n/a	n/a	n/a	n/a	n/a	n/a	n/a	n/a	n/a	n/a	n/a	n/a
708473	WORD	wordpools/wasnorm_wordpool.txt	LTP075	ltpFR	8	3	0	SHORTS	1293	n/a	0	n/a	0	0	0	0	0.5869140625	0.422607421875	lower	../fonts/zerothre.ttf
711481	START	n/a	LTP075	ltpFR	8	n/a	n/a	n/a	n/a	n/a	n/a	n/a	n/a	n/a	n/a	n/a	n/a	n/a	n/a	n/a
712389	PROB	n/a	LTP075	ltpFR	8	n/a	n/a	n/a	n/a	n/a	n/a	13	5	5	3	n/a	n/a	n/a	n/a	n/a
713522	PROB	n/a	LTP075	ltpFR	8	n/a	n/a	n/a	n/a	n/a	n/a	11	1	3	7	n/a	n/a	n/a	n/a	n/a
714681	PROB	n/a	LTP075	ltpFR	8	n/a	n/a	n/a	n/a	n/a	n/a	14	4	9	1	n/a	n/a	n/a	n/a	n/a
719481	STOP	n/a	LTP075	ltpFR	8	n/a	n/a	n/a	n/a	n/a	n/a	n/a	n/a	n/a	n/a	n/a	n/a	n/a	n/a	n/a
720347	WORD	wordpools/wasnorm_wordpool.txt	LTP075	ltpFR	8	3	0	BELT	120	n/a	0	n/a	0	0	0	0	0.5869140625	0.422607421875	lower	../fonts/zerothre.ttf
723355	START	n/a	LTP075	ltpFR	8	n/a	n/a	n/a	n/a	n/a	n/a	n/a	n/a	n/a	n/a	n/a	n/a	n/a	n/a	n/a
724405	PROB	n/a	LTP075	ltpFR	8	n/a	n/a	n/a	n/a	n/a	n/a	14	6	7	1	n/a	n/a	n/a	n/a	n/a
726180	PROB	n/a	LTP075	ltpFR	8	n/a	n/a	n/a	n/a	n/a	n/a	7	3	2	2	n/a	n/a	n/a	n/a	n/a
727430	PROB	n/a	LTP075	ltpFR	8	n/a	n/a	n/a	n/a	n/a	n/a	9	4	1	4	n/a	n/a	n/a	n/a	n/a
728845	PROB	n/a	LTP075	ltpFR	8	n/a	n/a	n/a	n/a	n/a	n/a	17	9	5	3	n/a	n/a	n/a	n/a	n/a
730972	STOP	n/a	LTP075	ltpFR	8	n/a	n/a	n/a	n/a	n/a	n/a	n/a	n/a	n/a	n/a	n/a	n/a	n/a	n/a	n/a
733172	REC_START	n/a	LTP075	ltpFR	8	3	n/a	n/a	n/a	n/a	n/a	n/a	0	0	0	n/a	n/a	n/a	n/a	n/a
734115	REC_WORD	wordpools/wasnorm_wordpool.txt	LTP075	ltpFR	8	3	0	BELT	120	n/a	0	n/a	0	0	0	n/a	n/a	n/a	n/a	n/a
735087	REC_WORD	wordpools/wasnorm_wordpool.txt	LTP075	ltpFR	8	3	0	CASHEW	253	n/a	0	n/a	0	0	0	n/a	n/a	n/a	n/a	n/a
736784	REC_WORD	wordpools/wasnorm_wordpool.txt	LTP075	ltpFR	8	3	0	PEANUT	1032	n/a	0	n/a	0	0	0	n/a	n/a	n/a	n/a	n/a
737966	REC_WORD	wordpools/wasnorm_wordpool.txt	LTP075	ltpFR	8	3	0	TROUT	1511	n/a	0	n/a	0	0	0	n/a	n/a	n/a	n/a	n/a
739857	REC_WORD	wordpools/wasnorm_wordpool.txt	LTP075	ltpFR	8	3	0	ANTEATER	26	n/a	1	n/a	0	0	0	n/a	n/a	n/a	n/a	n/a
742062	REC_WORD	wordpools/wasnorm_wordpool.txt	LTP075	ltpFR	8	3	0	OUTDOORS	987	n/a	1	n/a	0	0	0	n/a	n/a	n/a	n/a	n/a
743394	REC_WORD	wordpools/wasnorm_wordpool.txt	LTP075	ltpFR	8	3	0	SHORTS	1293	n/a	0	n/a	0	0	0	n/a	n/a	n/a	n/a	n/a
747584	REC_WORD	wordpools/wasnorm_wordpool.txt	LTP075	ltpFR	8	3	0	CHILD	299	n/a	0	n/a	0	0	0	n/a	n/a	n/a	n/a	n/a
819772	WORD	wordpools/wasnorm_wordpool.txt	LTP075	ltpFR	8	4	0	DISH	474	n/a	0	n/a	0	0	0	0	0.5869140625	0.422607421875	lower	../fonts/zerothre.ttf
823931	WORD	wordpools/wasnorm_wordpool.txt	LTP075	ltpFR	8	4	0	CHEST	295	n/a	1	n/a	0	0	0	0	0.5869140625	0.422607421875	lower	../fonts/zerothre.ttf
827805	WORD	wordpools/wasnorm_wordpool.txt	LTP075	ltpFR	8	4	0	SEA	1259	n/a	1	n/a	0	0	0	0	0.5869140625	0.422607421875	lower	../fonts/zerothre.ttf
831964	WORD	wordpools/wasnorm_wordpool.txt	LTP075	ltpFR	8	4	0	ROBBER	1197	n/a	1	n/a	0	0	0	0	0.5869140625	0.422607421875	lower	../fonts/zerothre.ttf
835821	WORD	wordpools/wasnorm_wordpool.txt	LTP075	ltpFR	8	4	0	FUGITIVE	612	n/a	1	n/a	0	0	0	0	0.5869140625	0.422607421875	lower	../fonts/zerothre.ttf
839955	WORD	wordpools/wasnorm_wordpool.txt	LTP075	ltpFR	8	4	0	STADIUM	1364	n/a	1	n/a	0	0	0	0	0.5869140625	0.422607421875	lower	../fonts/zerothre.ttf
843795	WORD	wordpools/wasnorm_wordpool.txt	LTP075	ltpFR	8	4	0	ARENA	37	n/a	1	n/a	0	0	0	0	0.5869140625	0.422607421875	lower	../fonts/zerothre.ttf
847837	WORD	wordpools/wasnorm_wordpool.txt	LTP075	ltpFR	8	4	0	QUILL	1150	n/a	1	n/a	0	0	0	0	0.5869140625	0.422607421875	lower	../fonts/zerothre.ttf
851946	WORD	wordpools/wasnorm_wordpool.txt	LTP075	ltpFR	8	4	0	SHORE	1291	n/a	1	n/a	0	0	0	0	0.5869140625	0.422607421875	lower	../fonts/zerothre.ttf
856045	WORD	wordpools/wasnorm_wordpool.txt	LTP075	ltpFR	8	4	0	CHEERLEADER	288	n/a	1	n/a	0	0	0	0	0.5869140625	0.422607421875	lower	../fonts/zerothre.ttf
860020	WORD	wordpools/wasnorm_wordpool.txt	LTP075	ltpFR	8	4	0	PLUM	1090	n/a	0	n/a	0	0	0	0	0.5869140625	0.422607421875	lower	../fonts/zerothre.ttf
864128	WORD	wordpools/wasnorm_wordpool.txt	LTP075	ltpFR	8	4	0	WASHCLOTH	1591	n/a	0	n/a	0	0	0	0	0.5869140625	0.422607421875	lower	../fonts/zerothre.ttf
867994	WORD	wordpools/wasnorm_wordpool.txt	LTP075	ltpFR	8	4	0	RACCOON	1153	n/a	0	n/a	0	0	0	0	0.5869140625	0.422607421875	lower	../fonts/zerothre.ttf
871936	WORD	wordpools/wasnorm_wordpool.txt	LTP075	ltpFR	8	4	0	STEM	1376	n/a	0	n/a	0	0	0	0	0.5869140625	0.422607421875	lower	../fonts/zerothre.ttf
875919	WORD	wordpools/wasnorm_wordpool.txt	LTP075	ltpFR	8	4	0	BUBBLE	183	n/a	0	n/a	0	0	0	0	0.5869140625	0.422607421875	lower	../fonts/zerothre.ttf
879826	WORD	wordpools/wasnorm_wordpool.txt	LTP075	ltpFR	8	4	0	SPIT	1354	n/a	0	n/a	0	0	0	0	0.5869140625	0.422607421875	lower	../fonts/zerothre.ttf
885427	REC_START	n/a	LTP075	ltpFR	8	4	n/a	n/a	n/a	n/a	n/a	n/a	0	0	0	n/a	n/a	n/a	n/a	n/a
886290	REC_WORD	wordpools/wasnorm_wordpool.txt	LTP075	ltpFR	8	4	0	SPIT	1354	n/a	0	n/a	0	0	0	n/a	n/a	n/a	n/a	n/a
887577	REC_WORD	wordpools/wasnorm_wordpool.txt	LTP075	ltpFR	8	4	0	BUBBLE	183	n/a	0	n/a	0	0	0	n/a	n/a	n/a	n/a	n/a
888974	REC_WORD	wordpools/wasnorm_wordpool.txt	LTP075	ltpFR	8	4	0	RACCOON	1153	n/a	0	n/a	0	0	0	n/a	n/a	n/a	n/a	n/a
890655	REC_WORD	wordpools/wasnorm_wordpool.txt	LTP075	ltpFR	8	4	0	ARENA	37	n/a	1	n/a	0	0	0	n/a	n/a	n/a	n/a	n/a
891807	REC_WORD	wordpools/wasnorm_wordpool.txt	LTP075	ltpFR	8	4	0	STADIUM	1364	n/a	1	n/a	0	0	0	n/a	n/a	n/a	n/a	n/a
893947	REC_WORD	wordpools/wasnorm_wordpool.txt	LTP075	ltpFR	8	4	0	CHEERLEADER	288	n/a	1	n/a	0	0	0	n/a	n/a	n/a	n/a	n/a
896048	REC_WORD	wordpools/wasnorm_wordpool.txt	LTP075	ltpFR	8	4	0	PLUM	1090	n/a	0	n/a	0	0	0	n/a	n/a	n/a	n/a	n/a
900503	REC_WORD	wordpools/wasnorm_wordpool.txt	LTP075	ltpFR	8	4	0	QUILL	1150	n/a	1	n/a	0	0	0	n/a	n/a	n/a	n/a	n/a
956041	REC_WORD	wordpools/wasnorm_wordpool.txt	LTP075	ltpFR	8	4	0	ROBBER	1197	n/a	1	n/a	0	0	0	n/a	n/a	n/a	n/a	n/a
968595	WORD	wordpools/wasnorm_wordpool.txt	LTP075	ltpFR	8	5	0	PUPPY	1144	n/a	0	n/a	0	0	0	0	0.5869140625	0.422607421875	lower	../fonts/zerothre.ttf
972687	WORD	wordpools/wasnorm_wordpool.txt	LTP075	ltpFR	8	5	0	COMMITTEE	355	n/a	1	n/a	0	0	0	0	0.5869140625	0.422607421875	lower	../fonts/zerothre.ttf
976678	WORD	wordpools/wasnorm_wordpool.txt	LTP075	ltpFR	8	5	0	CROSS	413	n/a	0	n/a	0	0	0	0	0.5869140625	0.422607421875	lower	../fonts/zerothre.ttf
980661	WORD	wordpools/wasnorm_wordpool.txt	LTP075	ltpFR	8	5	0	CONCERT	360	n/a	1	n/a	0	0	0	0	0.5869140625	0.422607421875	lower	../fonts/zerothre.ttf
984718	WORD	wordpools/wasnorm_wordpool.txt	LTP075	ltpFR	8	5	0	PLANT	1083	n/a	0	n/a	0	0	0	0	0.5869140625	0.422607421875	lower	../fonts/zerothre.ttf
988768	WORD	wordpools/wasnorm_wordpool.txt	LTP075	ltpFR	8	5	0	GRASS	655	n/a	0	n/a	0	0	0	0	0.5869140625	0.422607421875	lower	../fonts/zerothre.ttf
992751	WORD	wordpools/wasnorm_wordpool.txt	LTP075	ltpFR	8	5	1	PICK	1058	n/a	0	n/a	0	0	0	1	0.412841796875	0.57763671875	upper	../fonts/amplitud.ttf
996726	WORD	wordpools/wasnorm_wordpool.txt	LTP075	ltpFR	8	5	1	GHETTO	633	n/a	0	n/a	0	0	0	1	0.412841796875	0.57763671875	upper	../fonts/amplitud.ttf
1000809	WORD	wordpools/wasnorm_wordpool.txt	LTP075	ltpFR	8	5	1	PEPPER	1047	n/a	0	n/a	0	0	0	1	0.412841796875	0.57763671875	upper	../fonts/amplitud.ttf
1004959	WORD	wordpools/wasnorm_wordpool.txt	LTP075	ltpFR	8	5	1	WINGS	1614	n/a	0	n/a	0	0	0	1	0.412841796875	0.57763671875	upper	../fonts/amplitud.ttf
1008976	WORD	wordpools/wasnorm_wordpool.txt	LTP075	ltpFR	8	5	0	CROW	414	n/a	0	n/a	0	0	0	0	0.5869140625	0.422607421875	lower	../fonts/zerothre.ttf
1013117	WORD	wordpools/wasnorm_wordpool.txt	LTP075	ltpFR	8	5	0	TUB	1514	n/a	0	n/a	0	0	0	0	0.5869140625	0.422607421875	lower	../fonts/zerothre.ttf
1017092	WORD	wordpools/wasnorm_wordpool.txt	LTP075	ltpFR	8	5	1	TOWEL	1489	n/a	0	n/a	0	0	0	1	0.412841796875	0.57763671875	upper	../fonts/amplitud.ttf
1020967	WORD	wordpools/wasnorm_wordpool.txt	LTP075	ltpFR	8	5	1	CATCHER	258	n/a	1	n/a	0	0	0	1	0.412841796875	0.57763671875	upper	../fonts/amplitud.ttf
1024891	WORD	wordpools/wasnorm_wordpool.txt	LTP075	ltpFR	8	5	1	PRODUCER	1129	n/a	1	n/a	0	0	0	1	0.412841796875	0.57763671875	upper	../fonts/amplitud.ttf
1028933	WORD	wordpools/wasnorm_wordpool.txt	LTP075	ltpFR	8	5	1	FIDDLE	561	n/a	0	n/a	0	0	0	1	0.412841796875	0.57763671875	upper	../fonts/amplitud.ttf
1031941	START	n/a	LTP075	ltpFR	8	n/a	n/a	n/a	n/a	n/a	n/a	n/a	n/a	n/a	n/a	n/a	n/a	n/a	n/a	n/a
1032974	PROB	n/a	LTP075	ltpFR	8	n/a	n/a	n/a	n/a	n/a	n/a	12	6	3	3	n/a	n/a	n/a	n/a	n/a
1034616	PROB	n/a	LTP075	ltpFR	8	n/a	n/a	n/a	n/a	n/a	n/a	12	7	1	4	n/a	n/a	n/a	n/a	n/a
1035891	PROB	n/a	LTP075	ltpFR	8	n/a	n/a	n/a	n/a	n/a	n/a	6	1	2	3	n/a	n/a	n/a	n/a	n/a
1037099	PROB	n/a	LTP075	ltpFR	8	n/a	n/a	n/a	n/a	n/a	n/a	9	5	2	2	n/a	n/a	n/a	n/a	n/a
1038492	STOP	n/a	LTP075	ltpFR	8	n/a	n/a	n/a	n/a	n/a	n/a	n/a	n/a	n/a	n/a	n/a	n/a	n/a	n/a	n/a
1041698	REC_START	n/a	LTP075	ltpFR	8	5	n/a	n/a	n/a	n/a	n/a	n/a	0	0	0	n/a	n/a	n/a	n/a	n/a
1043204	REC_WORD	wordpools/wasnorm_wordpool.txt	LTP075	ltpFR	8	5	1	PRODUCER	1129	n/a	1	n/a	0	0	0	n/a	n/a	n/a	n/a	n/a
1045285	REC_WORD	wordpools/wasnorm_wordpool.txt	LTP075	ltpFR	8	5	1	FIDDLE	561	n/a	0	n/a	0	0	0	n/a	n/a	n/a	n/a	n/a
1047535	REC_WORD	wordpools/wasnorm_wordpool.txt	LTP075	ltpFR	8	5	0	PLANT	1083	n/a	0	n/a	0	0	0	n/a	n/a	n/a	n/a	n/a
1049570	REC_WORD	wordpools/wasnorm_wordpool.txt	LTP075	ltpFR	8	5	1	PEPPER	1047	n/a	0	n/a	0	0	0	n/a	n/a	n/a	n/a	n/a
1051845	REC_WORD	wordpools/wasnorm_wordpool.txt	LTP075	ltpFR	8	5	1	CATCHER	258	n/a	1	n/a	0	0	0	n/a	n/a	n/a	n/a	n/a
1057138	REC_WORD	wordpools/wasnorm_wordpool.txt	LTP075	ltpFR	8	5	0	CONCERT	360	n/a	1	n/a	0	0	0	n/a	n/a	n/a	n/a	n/a
1058365	REC_WORD	wordpools/wasnorm_wordpool.txt	LTP075	ltpFR	8	5	0	CROSS	413	n/a	0	n/a	0	0	0	n/a	n/a	n/a	n/a	n/a
1070857	REC_WORD	wordpools/wasnorm_wordpool.txt	LTP075	ltpFR	8	5	0	GRASS	655	n/a	0	n/a	0	0	0	n/a	n/a	n/a	n/a	n/a
1075461	REC_WORD	wordpools/wasnorm_wordpool.txt	LTP075	ltpFR	8	5	0	PLANT	1083	n/a	0	n/a	0	0	0	n/a	n/a	n/a	n/a	n/a
1122384	WORD	wordpools/wasnorm_wordpool.txt	LTP075	ltpFR	8	6	0	BULLET	194	n/a	0	n/a	0	0	0	0	0.5869140625	0.422607421875	lower	../fonts/zerothre.ttf
1126259	WORD	wordpools/wasnorm_wordpool.txt	LTP075	ltpFR	8	6	0	CARDINAL	244	n/a	0	n/a	0	0	0	0	0.5869140625	0.422607421875	lower	../fonts/zerothre.ttf
1130409	WORD	wordpools/wasnorm_wordpool.txt	LTP075	ltpFR	8	6	0	MINER	896	n/a	1	n/a	0	0	0	0	0.5869140625	0.422607421875	lower	../fonts/zerothre.ttf
1134550	WORD	wordpools/wasnorm_wordpool.txt	LTP075	ltpFR	8	6	0	MEDAL	885	n/a	0	n/a	0	0	0	0	0.5869140625	0.422607421875	lower	../fonts/zerothre.ttf
1138550	WORD	wordpools/wasnorm_wordpool.txt	LTP075	ltpFR	8	6	1	BULL	193	n/a	1	n/a	0	0	0	1	0.412841796875	0.57763671875	upper	../fonts/amplitud.ttf
1142458	WORD	wordpools/wasnorm_wordpool.txt	LTP075	ltpFR	8	6	1	ESCALATOR	539	n/a	0	n/a	0	0	0	1	0.412841796875	0.57763671875	upper	../fonts/amplitud.ttf
1146507	WORD	wordpools/wasnorm_wordpool.txt	LTP075	ltpFR	8	6	1	TOURIST	1488	n/a	1	n/a	0	0	0	1	0.412841796875	0.57763671875	upper	../fonts/amplitud.ttf
1150532	WORD	wordpools/wasnorm_wordpool.txt	LTP075	ltpFR	8	6	1	CATHEDRAL	260	n/a	0	n/a	0	0	0	1	0.412841796875	0.57763671875	upper	../fonts/amplitud.ttf
1154465	WORD	wordpools/wasnorm_wordpool.txt	LTP075	ltpFR	8	6	1	ASSISTANT	48	n/a	1	n/a	0	0	0	1	0.412841796875	0.57763671875	upper	../fonts/amplitud.ttf
1158390	WORD	wordpools/wasnorm_wordpool.txt	LTP075	ltpFR	8	6	1	OUTFIT	988	n/a	0	n/a	0	0	0	1	0.412841796875	0.57763671875	upper	../fonts/amplitud.ttf
1162240	WORD	wordpools/wasnorm_wordpool.txt	LTP075	ltpFR	8	6	0	RANCH	1166	n/a	0	n/a	0	0	0	0	0.5869140625	0.422607421875	lower	../fonts/zerothre.ttf
1166314	WORD	wordpools/wasnorm_wordpool.txt	LTP075	ltpFR	8	6	0	JOINT	758	n/a	0	n/a	0	0	0	0	0.5869140625	0.422607421875	lower	../fonts/zerothre.ttf
1170381	WORD	wordpools/wasnorm_wordpool.txt	LTP075	ltpFR	8	6	1	APPENDAGE	32	n/a	0	n/a	0	0	0	1	0.412841796875	0.57763671875	upper	../fonts/amplitud.ttf
1174264	WORD	wordpools/wasnorm_wordpool.txt	LTP075	ltpFR	8	6	1	DRESSER	496	n/a	0	n/a	0	0	0	1	0.412841796875	0.57763671875	upper	../fonts/amplitud.ttf
1178113	WORD	wordpools/wasnorm_wordpool.txt	LTP075	ltpFR	8	6	0	BARREL	91	n/a	1	n/a	0	0	0	0	0.5869140625	0.422607421875	lower	../fonts/zerothre.ttf
1181955	WORD	wordpools/wasnorm_wordpool.txt	LTP075	ltpFR	8	6	0	PUDDLE	1140	n/a	0	n/a	0	0	0	0	0.5869140625	0.422607421875	lower	../fonts/zerothre.ttf
1184963	START	n/a	LTP075	ltpFR	8	n/a	n/a	n/a	n/a	n/a	n/a	n/a	n/a	n/a	n/a	n/a	n/a	n/a	n/a	n/a
1186113	PROB	n/a	LTP075	ltpFR	8	n/a	n/a	n/a	n/a	n/a	n/a	18	8	7	3	n/a	n/a	n/a	n/a	n/a
1188188	PROB	n/a	LTP075	ltpFR	8	n/a	n/a	n/a	n/a	n/a	n/a	15	7	7	1	n/a	n/a	n/a	n/a	n/a
1189863	PROB	n/a	LTP075	ltpFR	8	n/a	n/a	n/a	n/a	n/a	n/a	13	5	3	5	n/a	n/a	n/a	n/a	n/a
1191637	PROB	n/a	LTP075	ltpFR	8	n/a	n/a	n/a	n/a	n/a	n/a	14	6	7	1	n/a	n/a	n/a	n/a	n/a
1193703	PROB	n/a	LTP075	ltpFR	8	n/a	n/a	n/a	n/a	n/a	n/a	16	2	5	9	n/a	n/a	n/a	n/a	n/a
1195946	PROB	n/a	LTP075	ltpFR	8	n/a	n/a	n/a	n/a	n/a	n/a	15	3	3	9	n/a	n/a	n/a	n/a	n/a
1197520	PROB	n/a	LTP075	ltpFR	8	n/a	n/a	n/a	n/a	n/a	n/a	18	9	6	3	n/a	n/a	n/a	n/a	n/a
1199129	PROB	n/a	LTP075	ltpFR	8	n/a	n/a	n/a	n/a	n/a	n/a	7	2	2	3	n/a	n/a	n/a	n/a	n/a
1200356	STOP	n/a	LTP075	ltpFR	8	n/a	n/a	n/a	n/a	n/a	n/a	n/a	n/a	n/a	n/a	n/a	n/a	n/a	n/a	n/a
1202871	REC_START	n/a	LTP075	ltpFR	8	6	n/a	n/a	n/a	n/a	n/a	n/a	0	0	0	n/a	n/a	n/a	n/a	n/a
1204607	REC_WORD	wordpools/wasnorm_wordpool.txt	LTP075	ltpFR	8	6	n/a	POND	1101	n/a	n/a	n/a	0	0	0	n/a	n/a	n/a	n/a	n/a
1210813	REC_WORD	wordpools/wasnorm_wordpool.txt	LTP075	ltpFR	8	6	1	ASSISTANT	48	n/a	1	n/a	0	0	0	n/a	n/a	n/a	n/a	n/a
1214958	REC_WORD	wordpools/wasnorm_wordpool.txt	LTP075	ltpFR	8	6	0	PUDDLE	1140	n/a	0	n/a	0	0	0	n/a	n/a	n/a	n/a	n/a
1218216	REC_WORD	wordpools/wasnorm_wordpool.txt	LTP075	ltpFR	8	6	1	WINGS	1614	n/a	0	n/a	0	0	0	n/a	n/a	n/a	n/a	n/a
1247395	REC_WORD	wordpools/wasnorm_wordpool.txt	LTP075	ltpFR	8	6	0	BARREL	91	n/a	1	n/a	0	0	0	n/a	n/a	n/a	n/a	n/a
1284664	START	n/a	LTP075	ltpFR	8	n/a	n/a	n/a	n/a	n/a	n/a	n/a	n/a	n/a	n/a	n/a	n/a	n/a	n/a	n/a
1286172	PROB	n/a	LTP075	ltpFR	8	n/a	n/a	n/a	n/a	n/a	n/a	25	9	9	7	n/a	n/a	n/a	n/a	n/a
1287872	PROB	n/a	LTP075	ltpFR	8	n/a	n/a	n/a	n/a	n/a	n/a	19	4	2	3	n/a	n/a	n/a	n/a	n/a
1290547	PROB	n/a	LTP075	ltpFR	8	n/a	n/a	n/a	n/a	n/a	n/a	12	3	5	4	n/a	n/a	n/a	n/a	n/a
1292422	PROB	n/a	LTP075	ltpFR	8	n/a	n/a	n/a	n/a	n/a	n/a	15	4	2	9	n/a	n/a	n/a	n/a	n/a
1293880	PROB	n/a	LTP075	ltpFR	8	n/a	n/a	n/a	n/a	n/a	n/a	13	7	4	2	n/a	n/a	n/a	n/a	n/a
1295821	PROB	n/a	LTP075	ltpFR	8	n/a	n/a	n/a	n/a	n/a	n/a	18	6	5	7	n/a	n/a	n/a	n/a	n/a
1297438	PROB	n/a	LTP075	ltpFR	8	n/a	n/a	n/a	n/a	n/a	n/a	9	5	2	2	n/a	n/a	n/a	n/a	n/a
1298712	PROB	n/a	LTP075	ltpFR	8	n/a	n/a	n/a	n/a	n/a	n/a	7	4	1	2	n/a	n/a	n/a	n/a	n/a
1299972	STOP	n/a	LTP075	ltpFR	8	n/a	n/a	n/a	n/a	n/a	n/a	n/a	n/a	n/a	n/a	n/a	n/a	n/a	n/a	n/a
1301588	WORD	wordpools/wasnorm_wordpool.txt	LTP075	ltpFR	8	7	1	SQUID	1361	n/a	1	n/a	0	0	0	1	0.412841796875	0.57763671875	upper	../fonts/amplitud.ttf
1304596	START	n/a	LTP075	ltpFR	8	n/a	n/a	n/a	n/a	n/a	n/a	n/a	n/a	n/a	n/a	n/a	n/a	n/a	n/a	n/a
1305612	PROB	n/a	LTP075	ltpFR	8	n/a	n/a	n/a	n/a	n/a	n/a	18	4	9	5	n/a	n/a	n/a	n/a	n/a
1307786	PROB	n/a	LTP075	ltpFR	8	n/a	n/a	n/a	n/a	n/a	n/a	17	4	4	9	n/a	n/a	n/a	n/a	n/a
1309587	PROB	n/a	LTP075	ltpFR	8	n/a	n/a	n/a	n/a	n/a	n/a	14	1	8	5	n/a	n/a	n/a	n/a	n/a
1312104	PROB	n/a	LTP075	ltpFR	8	n/a	n/a	n/a	n/a	n/a	n/a	8	3	2	3	n/a	n/a	n/a	n/a	n/a
1313420	PROB	n/a	LTP075	ltpFR	8	n/a	n/a	n/a	n/a	n/a	n/a	11	3	3	5	n/a	n/a	n/a	n/a	n/a
1314695	PROB	n/a	LTP075	ltpFR	8	n/a	n/a	n/a	n/a	n/a	n/a	22	7	7	8	n/a	n/a	n/a	n/a	n/a
1317620	PROB	n/a	LTP075	ltpFR	8	n/a	n/a	n/a	n/a	n/a	n/a	14	2	7	5	n/a	n/a	n/a	n/a	n/a
1319404	STOP	n/a	LTP075	ltpFR	8	n/a	n/a	n/a	n/a	n/a	n/a	n/a	n/a	n/a	n/a	n/a	n/a	n/a	n/a	n/a
1321653	WORD	wordpools/wasnorm_wordpool.txt	LTP075	ltpFR	8	7	1	CAMEL	223	n/a	1	n/a	0	0	0	1	0.412841796875	0.57763671875	upper	../fonts/amplitud.ttf
1324662	START	n/a	LTP075	ltpFR	8	n/a	n/a	n/a	n/a	n/a	n/a	n/a	n/a	n/a	n/a	n/a	n/a	n/a	n/a	n/a
1325619	PROB	n/a	LTP075	ltpFR	8	n/a	n/a	n/a	n/a	n/a	n/a	18	8	3	7	n/a	n/a	n/a	n/a	n/a
1327619	PROB	n/a	LTP075	ltpFR	8	n/a	n/a	n/a	n/a	n/a	n/a	16	6	3	7	n/a	n/a	n/a	n/a	n/a
1329086	PROB	n/a	LTP075	ltpFR	8	n/a	n/a	n/a	n/a	n/a	n/a	15	4	6	5	n/a	n/a	n/a	n/a	n/a
1330611	PROB	n/a	LTP075	ltpFR	8	n/a	n/a	n/a	n/a	n/a	n/a	12	2	4	6	n/a	n/a	n/a	n/a	n/a
1332252	PROB	n/a	LTP075	ltpFR	8	n/a	n/a	n/a	n/a	n/a	n/a	25	9	7	7	n/a	n/a	n/a	n/a	n/a
1334135	PROB	n/a	LTP075	ltpFR	8	n/a	n/a	n/a	n/a	n/a	n/a	23	7	7	8	n/a	n/a	n/a	n/a	n/a
1336069	PROB	n/a	LTP075	ltpFR	8	n/a	n/a	n/a	n/a	n/a	n/a	20	6	5	9	n/a	n/a	n/a	n/a	n/a
1337809	PROB	n/a	LTP075	ltpFR	8	n/a	n/a	n/a	n/a	n/a	n/a	22	9	8	5	n/a	n/a	n/a	n/a	n/a
1340204	STOP	n/a	LTP075	ltpFR	8	n/a	n/a	n/a	n/a	n/a	n/a	n/a	n/a	n/a	n/a	n/a	n/a	n/a	n/a	n/a
1341776	WORD	wordpools/wasnorm_wordpool.txt	LTP075	ltpFR	8	7	0	NICKEL	950	n/a	0	n/a	0	0	0	0	0.5869140625	0.422607421875	lower	../fonts/zerothre.ttf
1344784	START	n/a	LTP075	ltpFR	8	n/a	n/a	n/a	n/a	n/a	n/a	n/a	n/a	n/a	n/a	n/a	n/a	n/a	n/a	n/a
1345825	PROB	n/a	LTP075	ltpFR	8	n/a	n/a	n/a	n/a	n/a	n/a	7	2	4	1	n/a	n/a	n/a	n/a	n/a
1349326	PROB	n/a	LTP075	ltpFR	8	n/a	n/a	n/a	n/a	n/a	n/a	13	8	2	3	n/a	n/a	n/a	n/a	n/a
1350800	PROB	n/a	LTP075	ltpFR	8	n/a	n/a	n/a	n/a	n/a	n/a	11	3	2	6	n/a	n/a	n/a	n/a	n/a
1352534	PROB	n/a	LTP075	ltpFR	8	n/a	n/a	n/a	n/a	n/a	n/a	24	7	8	9	n/a	n/a	n/a	n/a	n/a
1354359	PROB	n/a	LTP075	ltpFR	8	n/a	n/a	n/a	n/a	n/a	n/a	11	2	4	5	n/a	n/a	n/a	n/a	n/a
1355725	PROB	n/a	LTP075	ltpFR	8	n/a	n/a	n/a	n/a	n/a	n/a	18	4	7	7	n/a	n/a	n/a	n/a	n/a
1357000	PROB	n/a	LTP075	ltpFR	8	n/a	n/a	n/a	n/a	n/a	n/a	17	7	5	5	n/a	n/a	n/a	n/a	n/a
1358459	PROB	n/a	LTP075	ltpFR	8	n/a	n/a	n/a	n/a	n/a	n/a	9	4	2	3	n/a	n/a	n/a	n/a	n/a
1360132	STOP	n/a	LTP075	ltpFR	8	n/a	n/a	n/a	n/a	n/a	n/a	n/a	n/a	n/a	n/a	n/a	n/a	n/a	n/a	n/a
1361600	WORD	wordpools/wasnorm_wordpool.txt	LTP075	ltpFR	8	7	0	LAWYER	806	n/a	1	n/a	0	0	0	0	0.5869140625	0.422607421875	lower	../fonts/zerothre.ttf
1364609	START	n/a	LTP075	ltpFR	8	n/a	n/a	n/a	n/a	n/a	n/a	n/a	n/a	n/a	n/a	n/a	n/a	n/a	n/a	n/a
1365591	PROB	n/a	LTP075	ltpFR	8	n/a	n/a	n/a	n/a	n/a	n/a	10	4	3	3	n/a	n/a	n/a	n/a	n/a
1367058	PROB	n/a	LTP075	ltpFR	8	n/a	n/a	n/a	n/a	n/a	n/a	17	8	5	1	n/a	n/a	n/a	n/a	n/a
1369158	PROB	n/a	LTP075	ltpFR	8	n/a	n/a	n/a	n/a	n/a	n/a	25	9	8	8	n/a	n/a	n/a	n/a	n/a
1371166	PROB	n/a	LTP075	ltpFR	8	n/a	n/a	n/a	n/a	n/a	n/a	20	2	9	9	n/a	n/a	n/a	n/a	n/a
1372698	PROB	n/a	LTP075	ltpFR	8	n/a	n/a	n/a	n/a	n/a	n/a	4	1	1	2	n/a	n/a	n/a	n/a	n/a
1374191	PROB	n/a	LTP075	ltpFR	8	n/a	n/a	n/a	n/a	n/a	n/a	17	6	5	6	n/a	n/a	n/a	n/a	n/a
1375649	PROB	n/a	LTP075	ltpFR	8	n/a	n/a	n/a	n/a	n/a	n/a	19	8	7	4	n/a	n/a	n/a	n/a	n/a
1377357	PROB	n/a	LTP075	ltpFR	8	n/a	n/a	n/a	n/a	n/a	n/a	17	5	4	8	n/a	n/a	n/a	n/a	n/a
1379596	STOP	n/a	LTP075	ltpFR	8	n/a	n/a	n/a	n/a	n/a	n/a	n/a	n/a	n/a	n/a	n/a	n/a	n/a	n/a	n/a
1381557	WORD	wordpools/wasnorm_wordpool.txt	LTP075	ltpFR	8	7	0	MUSTARD	935	n/a	0	n/a	0	0	0	0	0.5869140625	0.422607421875	lower	../fonts/zerothre.ttf
1384565	START	n/a	LTP075	ltpFR	8	n/a	n/a	n/a	n/a	n/a	n/a	n/a	n/a	n/a	n/a	n/a	n/a	n/a	n/a	n/a
1385565	PROB	n/a	LTP075	ltpFR	8	n/a	n/a	n/a	n/a	n/a	n/a	5	1	2	2	n/a	n/a	n/a	n/a	n/a
1386932	PROB	n/a	LTP075	ltpFR	8	n/a	n/a	n/a	n/a	n/a	n/a	13	5	6	2	n/a	n/a	n/a	n/a	n/a
1388581	PROB	n/a	LTP075	ltpFR	8	n/a	n/a	n/a	n/a	n/a	n/a	12	1	3	8	n/a	n/a	n/a	n/a	n/a
1390515	PROB	n/a	LTP075	ltpFR	8	n/a	n/a	n/a	n/a	n/a	n/a	12	2	5	5	n/a	n/a	n/a	n/a	n/a
1391640	PROB	n/a	LTP075	ltpFR	8	n/a	n/a	n/a	n/a	n/a	n/a	5	1	3	1	n/a	n/a	n/a	n/a	n/a
1393273	PROB	n/a	LTP075	ltpFR	8	n/a	n/a	n/a	n/a	n/a	n/a	21	7	6	8	n/a	n/a	n/a	n/a	n/a
1395306	PROB	n/a	LTP075	ltpFR	8	n/a	n/a	n/a	n/a	n/a	n/a	21	9	5	7	n/a	n/a	n/a	n/a	n/a
1397614	PROB	n/a	LTP075	ltpFR	8	n/a	n/a	n/a	n/a	n/a	n/a	22	9	9	4	n/a	n/a	n/a	n/a	n/a
1399039	PROB	n/a	LTP075	ltpFR	8	n/a	n/a	n/a	n/a	n/a	n/a	13	2	5	6	n/a	n/a	n/a	n/a	n/a
1400452	STOP	n/a	LTP075	ltpFR	8	n/a	n/a	n/a	n/a	n/a	n/a	n/a	n/a	n/a	n/a	n/a	n/a	n/a	n/a	n/a
1401738	WORD	wordpools/wasnorm_wordpool.txt	LTP075	ltpFR	8	7	0	DEPUTY	450	n/a	1	n/a	0	0	0	0	0.5869140625	0.422607421875	lower	../fonts/zerothre.ttf
1404746	START	n/a	LTP075	ltpFR	8	n/a	n/a	n/a	n/a	n/a	n/a	n/a	n/a	n/a	n/a	n/a	n/a	n/a	n/a	n/a
1405787	PROB	n/a	LTP075	ltpFR	8	n/a	n/a	n/a	n/a	n/a	n/a	8	3	3	2	n/a	n/a	n/a	n/a	n/a
1407555	PROB	n/a	LTP075	ltpFR	8	n/a	n/a	n/a	n/a	n/a	n/a	11	3	6	2	n/a	n/a	n/a	n/a	n/a
1409338	PROB	n/a	LTP075	ltpFR	8	n/a	n/a	n/a	n/a	n/a	n/a	12	6	1	5	n/a	n/a	n/a	n/a	n/a
1411071	PROB	n/a	LTP075	ltpFR	8	n/a	n/a	n/a	n/a	n/a	n/a	13	1	9	3	n/a	n/a	n/a	n/a	n/a
1412246	PROB	n/a	LTP075	ltpFR	8	n/a	n/a	n/a	n/a	n/a	n/a	12	7	2	3	n/a	n/a	n/a	n/a	n/a
1413996	PROB	n/a	LTP075	ltpFR	8	n/a	n/a	n/a	n/a	n/a	n/a	15	9	2	3	n/a	n/a	n/a	n/a	n/a
1416088	PROB	n/a	LTP075	ltpFR	8	n/a	n/a	n/a	n/a	n/a	n/a	17	6	5	4	n/a	n/a	n/a	n/a	n/a
1417604	PROB	n/a	LTP075	ltpFR	8	n/a	n/a	n/a	n/a	n/a	n/a	21	5	9	7	n/a	n/a	n/a	n/a	n/a
1419811	STOP	n/a	LTP075	ltpFR	8	n/a	n/a	n/a	n/a	n/a	n/a	n/a	n/a	n/a	n/a	n/a	n/a	n/a	n/a	n/a
1421887	WORD	wordpools/wasnorm_wordpool.txt	LTP075	ltpFR	8	7	1	COW	393	n/a	3	n/a	0	0	0	1	0.412841796875	0.57763671875	upper	../fonts/amplitud.ttf
1424029	KEY_MSG	n/a	LTP075	ltpFR	8	7	n/a	n/a	n/a	n/a	n/a	n/a	0	0	0	n/a	n/a	n/a	n/a	n/a
1425546	START	n/a	LTP075	ltpFR	8	n/a	n/a	n/a	n/a	n/a	n/a	n/a	n/a	n/a	n/a	n/a	n/a	n/a	n/a	n/a
1426404	PROB	n/a	LTP075	ltpFR	8	n/a	n/a	n/a	n/a	n/a	n/a	16	3	8	5	n/a	n/a	n/a	n/a	n/a
1429012	PROB	n/a	LTP075	ltpFR	8	n/a	n/a	n/a	n/a	n/a	n/a	15	5	6	4	n/a	n/a	n/a	n/a	n/a
1431145	PROB	n/a	LTP075	ltpFR	8	n/a	n/a	n/a	n/a	n/a	n/a	18	3	7	8	n/a	n/a	n/a	n/a	n/a
1432886	PROB	n/a	LTP075	ltpFR	8	n/a	n/a	n/a	n/a	n/a	n/a	15	4	3	8	n/a	n/a	n/a	n/a	n/a
1434936	PROB	n/a	LTP075	ltpFR	8	n/a	n/a	n/a	n/a	n/a	n/a	18	8	6	4	n/a	n/a	n/a	n/a	n/a
1436953	PROB	n/a	LTP075	ltpFR	8	n/a	n/a	n/a	n/a	n/a	n/a	10	6	3	1	n/a	n/a	n/a	n/a	n/a
1438453	PROB	n/a	LTP075	ltpFR	8	n/a	n/a	n/a	n/a	n/a	n/a	18	5	4	9	n/a	n/a	n/a	n/a	n/a
1440500	STOP	n/a	LTP075	ltpFR	8	n/a	n/a	n/a	n/a	n/a	n/a	n/a	n/a	n/a	n/a	n/a	n/a	n/a	n/a	n/a
1442586	WORD	wordpools/wasnorm_wordpool.txt	LTP075	ltpFR	8	7	1	SANDWICH	1232	n/a	0	n/a	0	0	0	1	0.412841796875	0.57763671875	upper	../fonts/amplitud.ttf
1445594	START	n/a	LTP075	ltpFR	8	n/a	n/a	n/a	n/a	n/a	n/a	n/a	n/a	n/a	n/a	n/a	n/a	n/a	n/a	n/a
1446751	PROB	n/a	LTP075	ltpFR	8	n/a	n/a	n/a	n/a	n/a	n/a	16	6	3	7	n/a	n/a	n/a	n/a	n/a
1447994	PROB	n/a	LTP075	ltpFR	8	n/a	n/a	n/a	n/a	n/a	n/a	21	5	9	8	n/a	n/a	n/a	n/a	n/a
1450443	PROB	n/a	LTP075	ltpFR	8	n/a	n/a	n/a	n/a	n/a	n/a	12	4	2	6	n/a	n/a	n/a	n/a	n/a
1452052	PROB	n/a	LTP075	ltpFR	8	n/a	n/a	n/a	n/a	n/a	n/a	16	4	5	7	n/a	n/a	n/a	n/a	n/a
1454177	PROB	n/a	LTP075	ltpFR	8	n/a	n/a	n/a	n/a	n/a	n/a	7	2	4	1	n/a	n/a	n/a	n/a	n/a
1456618	PROB	n/a	LTP075	ltpFR	8	n/a	n/a	n/a	n/a	n/a	n/a	13	5	4	5	n/a	n/a	n/a	n/a	n/a
1458301	PROB	n/a	LTP075	ltpFR	8	n/a	n/a	n/a	n/a	n/a	n/a	20	7	9	4	n/a	n/a	n/a	n/a	n/a
1461380	STOP	n/a	LTP075	ltpFR	8	n/a	n/a	n/a	n/a	n/a	n/a	n/a	n/a	n/a	n/a	n/a	n/a	n/a	n/a	n/a
1462750	WORD	wordpools/wasnorm_wordpool.txt	LTP075	ltpFR	8	7	1	COTTAGE	384	n/a	0	n/a	0	0	0	1	0.412841796875	0.57763671875	upper	../fonts/amplitud.ttf
1465758	START	n/a	LTP075	ltpFR	8	n/a	n/a	n/a	n/a	n/a	n/a	n/a	n/a	n/a	n/a	n/a	n/a	n/a	n/a	n/a
1466851	PROB	n/a	LTP075	ltpFR	8	n/a	n/a	n/a	n/a	n/a	n/a	23	8	9	6	n/a	n/a	n/a	n/a	n/a
1469892	PROB	n/a	LTP075	ltpFR	8	n/a	n/a	n/a	n/a	n/a	n/a	6	4	1	1	n/a	n/a	n/a	n/a	n/a
1471117	PROB	n/a	LTP075	ltpFR	8	n/a	n/a	n/a	n/a	n/a	n/a	22	9	8	5	n/a	n/a	n/a	n/a	n/a
1473933	PROB	n/a	LTP075	ltpFR	8	n/a	n/a	n/a	n/a	n/a	n/a	22	4	9	9	n/a	n/a	n/a	n/a	n/a
1475450	PROB	n/a	LTP075	ltpFR	8	n/a	n/a	n/a	n/a	n/a	n/a	16	9	5	2	n/a	n/a	n/a	n/a	n/a
1477025	PROB	n/a	LTP075	ltpFR	8	n/a	n/a	n/a	n/a	n/a	n/a	19	8	8	3	n/a	n/a	n/a	n/a	n/a
1479058	PROB	n/a	LTP075	ltpFR	8	n/a	n/a	n/a	n/a	n/a	n/a	17	4	7	6	n/a	n/a	n/a	n/a	n/a
1481372	STOP	n/a	LTP075	ltpFR	8	n/a	n/a	n/a	n/a	n/a	n/a	n/a	n/a	n/a	n/a	n/a	n/a	n/a	n/a	n/a
1482874	WORD	wordpools/wasnorm_wordpool.txt	LTP075	ltpFR	8	7	0	SHINGLE	1285	n/a	0	n/a	0	0	0	0	0.5869140625	0.422607421875	lower	../fonts/zerothre.ttf
1485875	START	n/a	LTP075	ltpFR	8	n/a	n/a	n/a	n/a	n/a	n/a	n/a	n/a	n/a	n/a	n/a	n/a	n/a	n/a	n/a
1487016	PROB	n/a	LTP075	ltpFR	8	n/a	n/a	n/a	n/a	n/a	n/a	4	1	1	2	n/a	n/a	n/a	n/a	n/a
1488649	PROB	n/a	LTP075	ltpFR	8	n/a	n/a	n/a	n/a	n/a	n/a	12	3	2	7	n/a	n/a	n/a	n/a	n/a
1490815	PROB	n/a	LTP075	ltpFR	8	n/a	n/a	n/a	n/a	n/a	n/a	20	7	5	8	n/a	n/a	n/a	n/a	n/a
1493090	PROB	n/a	LTP075	ltpFR	8	n/a	n/a	n/a	n/a	n/a	n/a	21	7	7	7	n/a	n/a	n/a	n/a	n/a
1494324	PROB	n/a	LTP075	ltpFR	8	n/a	n/a	n/a	n/a	n/a	n/a	20	6	9	5	n/a	n/a	n/a	n/a	n/a
1497582	PROB	n/a	LTP075	ltpFR	8	n/a	n/a	n/a	n/a	n/a	n/a	7	3	3	1	n/a	n/a	n/a	n/a	n/a
1501875	STOP	n/a	LTP075	ltpFR	8	n/a	n/a	n/a	n/a	n/a	n/a	n/a	n/a	n/a	n/a	n/a	n/a	n/a	n/a	n/a
1502956	WORD	wordpools/wasnorm_wordpool.txt	LTP075	ltpFR	8	7	0	TRAY	1498	n/a	0	n/a	0	0	0	0	0.5869140625	0.422607421875	lower	../fonts/zerothre.ttf
1505965	START	n/a	LTP075	ltpFR	8	n/a	n/a	n/a	n/a	n/a	n/a	n/a	n/a	n/a	n/a	n/a	n/a	n/a	n/a	n/a
1507014	PROB	n/a	LTP075	ltpFR	8	n/a	n/a	n/a	n/a	n/a	n/a	7	2	4	3	n/a	n/a	n/a	n/a	n/a
1508956	PROB	n/a	LTP075	ltpFR	8	n/a	n/a	n/a	n/a	n/a	n/a	18	8	4	6	n/a	n/a	n/a	n/a	n/a
1510981	PROB	n/a	LTP075	ltpFR	8	n/a	n/a	n/a	n/a	n/a	n/a	13	3	3	7	n/a	n/a	n/a	n/a	n/a
1512397	PROB	n/a	LTP075	ltpFR	8	n/a	n/a	n/a	n/a	n/a	n/a	14	2	3	9	n/a	n/a	n/a	n/a	n/a
1514014	PROB	n/a	LTP075	ltpFR	8	n/a	n/a	n/a	n/a	n/a	n/a	16	6	4	6	n/a	n/a	n/a	n/a	n/a
1515964	PROB	n/a	LTP075	ltpFR	8	n/a	n/a	n/a	n/a	n/a	n/a	6	1	4	4	n/a	n/a	n/a	n/a	n/a
1517639	PROB	n/a	LTP075	ltpFR	8	n/a	n/a	n/a	n/a	n/a	n/a	22	5	8	9	n/a	n/a	n/a	n/a	n/a
1519963	PROB	n/a	LTP075	ltpFR	8	n/a	n/a	n/a	n/a	n/a	n/a	18	2	8	8	n/a	n/a	n/a	n/a	n/a
1521436	STOP	n/a	LTP075	ltpFR	8	n/a	n/a	n/a	n/a	n/a	n/a	n/a	n/a	n/a	n/a	n/a	n/a	n/a	n/a	n/a
1522997	WORD	wordpools/wasnorm_wordpool.txt	LTP075	ltpFR	8	7	0	FEAST	556	n/a	0	n/a	0	0	0	0	0.5869140625	0.422607421875	lower	../fonts/zerothre.ttf
1526005	START	n/a	LTP075	ltpFR	8	n/a	n/a	n/a	n/a	n/a	n/a	n/a	n/a	n/a	n/a	n/a	n/a	n/a	n/a	n/a
1526971	PROB	n/a	LTP075	ltpFR	8	n/a	n/a	n/a	n/a	n/a	n/a	6	3	2	1	n/a	n/a	n/a	n/a	n/a
1528413	PROB	n/a	LTP075	ltpFR	8	n/a	n/a	n/a	n/a	n/a	n/a	17	6	9	2	n/a	n/a	n/a	n/a	n/a
1530371	PROB	n/a	LTP075	ltpFR	8	n/a	n/a	n/a	n/a	n/a	n/a	20	6	8	6	n/a	n/a	n/a	n/a	n/a
1532321	PROB	n/a	LTP075	ltpFR	8	n/a	n/a	n/a	n/a	n/a	n/a	15	4	8	3	n/a	n/a	n/a	n/a	n/a
1533845	PROB	n/a	LTP075	ltpFR	8	n/a	n/a	n/a	n/a	n/a	n/a	18	4	6	8	n/a	n/a	n/a	n/a	n/a
1535287	PROB	n/a	LTP075	ltpFR	8	n/a	n/a	n/a	n/a	n/a	n/a	14	8	3	3	n/a	n/a	n/a	n/a	n/a
1538137	PROB	n/a	LTP075	ltpFR	8	n/a	n/a	n/a	n/a	n/a	n/a	14	4	6	6	n/a	n/a	n/a	n/a	n/a
1542005	STOP	n/a	LTP075	ltpFR	8	n/a	n/a	n/a	n/a	n/a	n/a	n/a	n/a	n/a	n/a	n/a	n/a	n/a	n/a	n/a
1543012	WORD	wordpools/wasnorm_wordpool.txt	LTP075	ltpFR	8	7	0	PICNIC	1060	n/a	1	n/a	0	0	0	0	0.5869140625	0.422607421875	lower	../fonts/zerothre.ttf
1546020	START	n/a	LTP075	ltpFR	8	n/a	n/a	n/a	n/a	n/a	n/a	n/a	n/a	n/a	n/a	n/a	n/a	n/a	n/a	n/a
1547203	PROB	n/a	LTP075	ltpFR	8	n/a	n/a	n/a	n/a	n/a	n/a	15	8	4	3	n/a	n/a	n/a	n/a	n/a
1549170	PROB	n/a	LTP075	ltpFR	8	n/a	n/a	n/a	n/a	n/a	n/a	16	6	4	6	n/a	n/a	n/a	n/a	n/a
1550895	PROB	n/a	LTP075	ltpFR	8	n/a	n/a	n/a	n/a	n/a	n/a	9	2	5	2	n/a	n/a	n/a	n/a	n/a
1552886	PROB	n/a	LTP075	ltpFR	8	n/a	n/a	n/a	n/a	n/a	n/a	13	2	7	4	n/a	n/a	n/a	n/a	n/a
1554469	PROB	n/a	LTP075	ltpFR	8	n/a	n/a	n/a	n/a	n/a	n/a	19	7	3	9	n/a	n/a	n/a	n/a	n/a
1555752	PROB	n/a	LTP075	ltpFR	8	n/a	n/a	n/a	n/a	n/a	n/a	11	5	4	2	n/a	n/a	n/a	n/a	n/a
1557061	PROB	n/a	LTP075	ltpFR	8	n/a	n/a	n/a	n/a	n/a	n/a	14	6	4	4	n/a	n/a	n/a	n/a	n/a
1558294	PROB	n/a	LTP075	ltpFR	8	n/a	n/a	n/a	n/a	n/a	n/a	15	7	6	2	n/a	n/a	n/a	n/a	n/a
1562020	STOP	n/a	LTP075	ltpFR	8	n/a	n/a	n/a	n/a	n/a	n/a	n/a	n/a	n/a	n/a	n/a	n/a	n/a	n/a	n/a
1563019	WORD	wordpools/wasnorm_wordpool.txt	LTP075	ltpFR	8	7	1	NET	946	n/a	0	n/a	0	0	0	1	0.412841796875	0.57763671875	upper	../fonts/amplitud.ttf
1566027	START	n/a	LTP075	ltpFR	8	n/a	n/a	n/a	n/a	n/a	n/a	n/a	n/a	n/a	n/a	n/a	n/a	n/a	n/a	n/a
1566927	PROB	n/a	LTP075	ltpFR	8	n/a	n/a	n/a	n/a	n/a	n/a	8	4	4	2	n/a	n/a	n/a	n/a	n/a
1568935	PROB	n/a	LTP075	ltpFR	8	n/a	n/a	n/a	n/a	n/a	n/a	15	2	4	9	n/a	n/a	n/a	n/a	n/a
1570817	PROB	n/a	LTP075	ltpFR	8	n/a	n/a	n/a	n/a	n/a	n/a	11	1	5	5	n/a	n/a	n/a	n/a	n/a
1571926	PROB	n/a	LTP075	ltpFR	8	n/a	n/a	n/a	n/a	n/a	n/a	14	6	7	1	n/a	n/a	n/a	n/a	n/a
1573700	PROB	n/a	LTP075	ltpFR	8	n/a	n/a	n/a	n/a	n/a	n/a	23	8	9	7	n/a	n/a	n/a	n/a	n/a
1575643	PROB	n/a	LTP075	ltpFR	8	n/a	n/a	n/a	n/a	n/a	n/a	16	7	7	2	n/a	n/a	n/a	n/a	n/a
1577084	PROB	n/a	LTP075	ltpFR	8	n/a	n/a	n/a	n/a	n/a	n/a	16	8	1	7	n/a	n/a	n/a	n/a	n/a
1578593	PROB	n/a	LTP075	ltpFR	8	n/a	n/a	n/a	n/a	n/a	n/a	10	2	3	5	n/a	n/a	n/a	n/a	n/a
1580267	PROB	n/a	LTP075	ltpFR	8	n/a	n/a	n/a	n/a	n/a	n/a	15	3	8	4	n/a	n/a	n/a	n/a	n/a
1581588	STOP	n/a	LTP075	ltpFR	8	n/a	n/a	n/a	n/a	n/a	n/a	n/a	n/a	n/a	n/a	n/a	n/a	n/a	n/a	n/a
1582859	WORD	wordpools/wasnorm_wordpool.txt	LTP075	ltpFR	8	7	1	LUNG	850	n/a	1	n/a	0	0	0	1	0.412841796875	0.57763671875	upper	../fonts/amplitud.ttf
1585867	START	n/a	LTP075	ltpFR	8	n/a	n/a	n/a	n/a	n/a	n/a	n/a	n/a	n/a	n/a	n/a	n/a	n/a	n/a	n/a
1586774	PROB	n/a	LTP075	ltpFR	8	n/a	n/a	n/a	n/a	n/a	n/a	14	4	4	6	n/a	n/a	n/a	n/a	n/a
1588017	PROB	n/a	LTP075	ltpFR	8	n/a	n/a	n/a	n/a	n/a	n/a	11	1	9	1	n/a	n/a	n/a	n/a	n/a
1589167	PROB	n/a	LTP075	ltpFR	8	n/a	n/a	n/a	n/a	n/a	n/a	18	8	8	2	n/a	n/a	n/a	n/a	n/a
1591058	PROB	n/a	LTP075	ltpFR	8	n/a	n/a	n/a	n/a	n/a	n/a	15	6	5	4	n/a	n/a	n/a	n/a	n/a
1592433	PROB	n/a	LTP075	ltpFR	8	n/a	n/a	n/a	n/a	n/a	n/a	13	8	1	4	n/a	n/a	n/a	n/a	n/a
1593782	PROB	n/a	LTP075	ltpFR	8	n/a	n/a	n/a	n/a	n/a	n/a	22	7	8	7	n/a	n/a	n/a	n/a	n/a
1595250	PROB	n/a	LTP075	ltpFR	8	n/a	n/a	n/a	n/a	n/a	n/a	12	5	4	3	n/a	n/a	n/a	n/a	n/a
1596408	PROB	n/a	LTP075	ltpFR	8	n/a	n/a	n/a	n/a	n/a	n/a	17	8	5	4	n/a	n/a	n/a	n/a	n/a
1598066	PROB	n/a	LTP075	ltpFR	8	n/a	n/a	n/a	n/a	n/a	n/a	16	9	5	2	n/a	n/a	n/a	n/a	n/a
1599707	PROB	n/a	LTP075	ltpFR	8	n/a	n/a	n/a	n/a	n/a	n/a	14	6	6	4	n/a	n/a	n/a	n/a	n/a
1600827	STOP	n/a	LTP075	ltpFR	8	n/a	n/a	n/a	n/a	n/a	n/a	n/a	n/a	n/a	n/a	n/a	n/a	n/a	n/a	n/a
1602682	WORD	wordpools/wasnorm_wordpool.txt	LTP075	ltpFR	8	7	1	PRAIRIE	1118	n/a	0	n/a	0	0	0	1	0.412841796875	0.57763671875	upper	../fonts/amplitud.ttf
1605682	START	n/a	LTP075	ltpFR	8	n/a	n/a	n/a	n/a	n/a	n/a	n/a	n/a	n/a	n/a	n/a	n/a	n/a	n/a	n/a
1606882	PROB	n/a	LTP075	ltpFR	8	n/a	n/a	n/a	n/a	n/a	n/a	19	9	7	3	n/a	n/a	n/a	n/a	n/a
1608207	PROB	n/a	LTP075	ltpFR	8	n/a	n/a	n/a	n/a	n/a	n/a	16	4	5	7	n/a	n/a	n/a	n/a	n/a
1609582	PROB	n/a	LTP075	ltpFR	8	n/a	n/a	n/a	n/a	n/a	n/a	21	7	7	7	n/a	n/a	n/a	n/a	n/a
1610739	PROB	n/a	LTP075	ltpFR	8	n/a	n/a	n/a	n/a	n/a	n/a	20	9	6	5	n/a	n/a	n/a	n/a	n/a
1613382	PROB	n/a	LTP075	ltpFR	8	n/a	n/a	n/a	n/a	n/a	n/a	17	7	6	4	n/a	n/a	n/a	n/a	n/a
1614847	PROB	n/a	LTP075	ltpFR	8	n/a	n/a	n/a	n/a	n/a	n/a	18	3	8	7	n/a	n/a	n/a	n/a	n/a
1616298	PROB	n/a	LTP075	ltpFR	8	n/a	n/a	n/a	n/a	n/a	n/a	5	1	2	2	n/a	n/a	n/a	n/a	n/a
1617640	PROB	n/a	LTP075	ltpFR	8	n/a	n/a	n/a	n/a	n/a	n/a	10	3	3	4	n/a	n/a	n/a	n/a	n/a
1619356	PROB	n/a	LTP075	ltpFR	8	n/a	n/a	n/a	n/a	n/a	n/a	17	5	3	9	n/a	n/a	n/a	n/a	n/a
1620868	STOP	n/a	LTP075	ltpFR	8	n/a	n/a	n/a	n/a	n/a	n/a	n/a	n/a	n/a	n/a	n/a	n/a	n/a	n/a	n/a
1623473	REC_START	n/a	LTP075	ltpFR	8	7	n/a	n/a	n/a	n/a	n/a	n/a	0	0	0	n/a	n/a	n/a	n/a	n/a
1624376	REC_WORD	wordpools/wasnorm_wordpool.txt	LTP075	ltpFR	8	7	1	LUNG	850	n/a	1	n/a	0	0	0	n/a	n/a	n/a	n/a	n/a
1626671	REC_WORD	wordpools/wasnorm_wordpool.txt	LTP075	ltpFR	8	7	1	PRAIRIE	1118	n/a	0	n/a	0	0	0	n/a	n/a	n/a	n/a	n/a
1636693	REC_WORD	wordpools/wasnorm_wordpool.txt	LTP075	ltpFR	8	7	1	OUTFIT	988	n/a	0	n/a	0	0	0	n/a	n/a	n/a	n/a	n/a
1655430	REC_WORD	wordpools/wasnorm_wordpool.txt	LTP075	ltpFR	8	7	0	PICNIC	1060	n/a	1	n/a	0	0	0	n/a	n/a	n/a	n/a	n/a
1663916	REC_WORD	wordpools/wasnorm_wordpool.txt	LTP075	ltpFR	8	7	0	FEAST	556	n/a	0	n/a	0	0	0	n/a	n/a	n/a	n/a	n/a
1666435	REC_WORD	wordpools/wasnorm_wordpool.txt	LTP075	ltpFR	8	7	n/a	PLATE	1086	n/a	n/a	n/a	0	0	0	n/a	n/a	n/a	n/a	n/a
1745788	WORD	wordpools/wasnorm_wordpool.txt	LTP075	ltpFR	8	8	1	ALLIGATOR	16	n/a	1	n/a	0	0	0	1	0.412841796875	0.57763671875	upper	../fonts/amplitud.ttf
1749779	WORD	wordpools/wasnorm_wordpool.txt	LTP075	ltpFR	8	8	1	RADIATOR	1156	n/a	0	n/a	0	0	0	1	0.412841796875	0.57763671875	upper	../fonts/amplitud.ttf
1753680	WORD	wordpools/wasnorm_wordpool.txt	LTP075	ltpFR	8	8	1	BUGGY	188	n/a	0	n/a	0	0	0	1	0.412841796875	0.57763671875	upper	../fonts/amplitud.ttf
1757629	WORD	wordpools/wasnorm_wordpool.txt	LTP075	ltpFR	8	8	1	SCOTCH	1251	n/a	0	n/a	0	0	0	1	0.412841796875	0.57763671875	upper	../fonts/amplitud.ttf
1761662	WORD	wordpools/wasnorm_wordpool.txt	LTP075	ltpFR	8	8	1	HOME	712	n/a	0	n/a	0	0	0	1	0.412841796875	0.57763671875	upper	../fonts/amplitud.ttf
1765562	WORD	wordpools/wasnorm_wordpool.txt	LTP075	ltpFR	8	8	1	HUT	729	n/a	0	n/a	0	0	0	1	0.412841796875	0.57763671875	upper	../fonts/amplitud.ttf
1769387	WORD	wordpools/wasnorm_wordpool.txt	LTP075	ltpFR	8	8	1	CACTUS	215	n/a	1	n/a	0	0	0	1	0.412841796875	0.57763671875	upper	../fonts/amplitud.ttf
1773378	WORD	wordpools/wasnorm_wordpool.txt	LTP075	ltpFR	8	8	1	PITCHFORK	1078	n/a	0	n/a	0	0	0	1	0.412841796875	0.57763671875	upper	../fonts/amplitud.ttf
1777286	WORD	wordpools/wasnorm_wordpool.txt	LTP075	ltpFR	8	8	1	SCARECROW	1245	n/a	1	n/a	0	0	0	1	0.412841796875	0.57763671875	upper	../fonts/amplitud.ttf
1781236	WORD	wordpools/wasnorm_wordpool.txt	LTP075	ltpFR	8	8	1	ORCHID	982	n/a	1	n/a	0	0	0	1	0.412841796875	0.57763671875	upper	../fonts/amplitud.ttf
1785069	WORD	wordpools/wasnorm_wordpool.txt	LTP075	ltpFR	8	8	1	PERFUME	1049	n/a	0	n/a	0	0	0	1	0.412841796875	0.57763671875	upper	../fonts/amplitud.ttf
1788902	WORD	wordpools/wasnorm_wordpool.txt	LTP075	ltpFR	8	8	1	COMMANDER	354	n/a	1	n/a	0	0	0	1	0.412841796875	0.57763671875	upper	../fonts/amplitud.ttf
1792767	WORD	wordpools/wasnorm_wordpool.txt	LTP075	ltpFR	8	8	1	COBRA	336	n/a	1	n/a	0	0	0	1	0.412841796875	0.57763671875	upper	../fonts/amplitud.ttf
1796610	WORD	wordpools/wasnorm_wordpool.txt	LTP075	ltpFR	8	8	1	PORCUPINE	1107	n/a	1	n/a	0	0	0	1	0.412841796875	0.57763671875	upper	../fonts/amplitud.ttf
1800551	WORD	wordpools/wasnorm_wordpool.txt	LTP075	ltpFR	8	8	1	VELVET	1555	n/a	0	n/a	0	0	0	1	0.412841796875	0.57763671875	upper	../fonts/amplitud.ttf
1804418	WORD	wordpools/wasnorm_wordpool.txt	LTP075	ltpFR	8	8	1	LILY	821	n/a	1	n/a	0	0	0	1	0.412841796875	0.57763671875	upper	../fonts/amplitud.ttf
1807426	START	n/a	LTP075	ltpFR	8	n/a	n/a	n/a	n/a	n/a	n/a	n/a	n/a	n/a	n/a	n/a	n/a	n/a	n/a	n/a
1808342	PROB	n/a	LTP075	ltpFR	8	n/a	n/a	n/a	n/a	n/a	n/a	7	5	3	2	n/a	n/a	n/a	n/a	n/a
1811117	PROB	n/a	LTP075	ltpFR	8	n/a	n/a	n/a	n/a	n/a	n/a	15	1	9	5	n/a	n/a	n/a	n/a	n/a
1812708	PROB	n/a	LTP075	ltpFR	8	n/a	n/a	n/a	n/a	n/a	n/a	10	7	2	1	n/a	n/a	n/a	n/a	n/a
1813908	STOP	n/a	LTP075	ltpFR	8	n/a	n/a	n/a	n/a	n/a	n/a	n/a	n/a	n/a	n/a	n/a	n/a	n/a	n/a	n/a
1817259	REC_START	n/a	LTP075	ltpFR	8	8	n/a	n/a	n/a	n/a	n/a	n/a	0	0	0	n/a	n/a	n/a	n/a	n/a
1818735	REC_WORD	wordpools/wasnorm_wordpool.txt	LTP075	ltpFR	8	8	1	ORCHID	982	n/a	1	n/a	0	0	0	n/a	n/a	n/a	n/a	n/a
1820471	REC_WORD	wordpools/wasnorm_wordpool.txt	LTP075	ltpFR	8	8	1	LILY	821	n/a	1	n/a	0	0	0	n/a	n/a	n/a	n/a	n/a
1830149	REC_WORD	wordpools/wasnorm_wordpool.txt	LTP075	ltpFR	8	8	1	PORCUPINE	1107	n/a	1	n/a	0	0	0	n/a	n/a	n/a	n/a	n/a
1833033	REC_WORD	wordpools/wasnorm_wordpool.txt	LTP075	ltpFR	8	8	1	ALLIGATOR	16	n/a	1	n/a	0	0	0	n/a	n/a	n/a	n/a	n/a
1841179	REC_WORD	wordpools/wasnorm_wordpool.txt	LTP075	ltpFR	8	8	1	RADIATOR	1156	n/a	0	n/a	0	0	0	n/a	n/a	n/a	n/a	n/a
1848044	REC_WORD	wordpools/wasnorm_wordpool.txt	LTP075	ltpFR	8	8	1	COMMANDER	354	n/a	1	n/a	0	0	0	n/a	n/a	n/a	n/a	n/a
1897503	START	n/a	LTP075	ltpFR	8	n/a	n/a	n/a	n/a	n/a	n/a	n/a	n/a	n/a	n/a	n/a	n/a	n/a	n/a	n/a
1899011	PROB	n/a	LTP075	ltpFR	8	n/a	n/a	n/a	n/a	n/a	n/a	21	9	4	8	n/a	n/a	n/a	n/a	n/a
1900902	PROB	n/a	LTP075	ltpFR	8	n/a	n/a	n/a	n/a	n/a	n/a	15	3	5	7	n/a	n/a	n/a	n/a	n/a
1902602	PROB	n/a	LTP075	ltpFR	8	n/a	n/a	n/a	n/a	n/a	n/a	15	6	2	7	n/a	n/a	n/a	n/a	n/a
1904612	STOP	n/a	LTP075	ltpFR	8	n/a	n/a	n/a	n/a	n/a	n/a	n/a	n/a	n/a	n/a	n/a	n/a	n/a	n/a	n/a
1906518	WORD	wordpools/wasnorm_wordpool.txt	LTP075	ltpFR	8	9	1	PICTURE	1061	n/a	0	n/a	0	0	0	1	0.412841796875	0.57763671875	upper	../fonts/amplitud.ttf
1909519	START	n/a	LTP075	ltpFR	8	n/a	n/a	n/a	n/a	n/a	n/a	n/a	n/a	n/a	n/a	n/a	n/a	n/a	n/a	n/a
1910385	PROB	n/a	LTP075	ltpFR	8	n/a	n/a	n/a	n/a	n/a	n/a	17	9	3	5	n/a	n/a	n/a	n/a	n/a
1911960	PROB	n/a	LTP075	ltpFR	8	n/a	n/a	n/a	n/a	n/a	n/a	8	2	1	5	n/a	n/a	n/a	n/a	n/a
1913276	PROB	n/a	LTP075	ltpFR	8	n/a	n/a	n/a	n/a	n/a	n/a	19	5	7	7	n/a	n/a	n/a	n/a	n/a
1914876	PROB	n/a	LTP075	ltpFR	8	n/a	n/a	n/a	n/a	n/a	n/a	15	2	5	8	n/a	n/a	n/a	n/a	n/a
1916420	STOP	n/a	LTP075	ltpFR	8	n/a	n/a	n/a	n/a	n/a	n/a	n/a	n/a	n/a	n/a	n/a	n/a	n/a	n/a	n/a
1918526	WORD	wordpools/wasnorm_wordpool.txt	LTP075	ltpFR	8	9	1	BED	110	n/a	0	n/a	0	0	0	1	0.412841796875	0.57763671875	upper	../fonts/amplitud.ttf
1921535	START	n/a	LTP075	ltpFR	8	n/a	n/a	n/a	n/a	n/a	n/a	n/a	n/a	n/a	n/a	n/a	n/a	n/a	n/a	n/a
1922659	PROB	n/a	LTP075	ltpFR	8	n/a	n/a	n/a	n/a	n/a	n/a	22	6	7	9	n/a	n/a	n/a	n/a	n/a
1924542	PROB	n/a	LTP075	ltpFR	8	n/a	n/a	n/a	n/a	n/a	n/a	8	1	2	5	n/a	n/a	n/a	n/a	n/a
1925892	PROB	n/a	LTP075	ltpFR	8	n/a	n/a	n/a	n/a	n/a	n/a	13	7	1	4	n/a	n/a	n/a	n/a	n/a
1927275	PROB	n/a	LTP075	ltpFR	8	n/a	n/a	n/a	n/a	n/a	n/a	10	1	7	2	n/a	n/a	n/a	n/a	n/a
1928956	STOP	n/a	LTP075	ltpFR	8	n/a	n/a	n/a	n/a	n/a	n/a	n/a	n/a	n/a	n/a	n/a	n/a	n/a	n/a	n/a
1930667	WORD	wordpools/wasnorm_wordpool.txt	LTP075	ltpFR	8	9	1	DINER	467	n/a	0	n/a	0	0	0	1	0.412841796875	0.57763671875	upper	../fonts/amplitud.ttf
1933675	START	n/a	LTP075	ltpFR	8	n/a	n/a	n/a	n/a	n/a	n/a	n/a	n/a	n/a	n/a	n/a	n/a	n/a	n/a	n/a
1934633	PROB	n/a	LTP075	ltpFR	8	n/a	n/a	n/a	n/a	n/a	n/a	17	7	7	3	n/a	n/a	n/a	n/a	n/a
1936166	PROB	n/a	LTP075	ltpFR	8	n/a	n/a	n/a	n/a	n/a	n/a	19	5	9	5	n/a	n/a	n/a	n/a	n/a
1938241	PROB	n/a	LTP075	ltpFR	8	n/a	n/a	n/a	n/a	n/a	n/a	11	1	3	7	n/a	n/a	n/a	n/a	n/a
1939433	PROB	n/a	LTP075	ltpFR	8	n/a	n/a	n/a	n/a	n/a	n/a	20	5	7	8	n/a	n/a	n/a	n/a	n/a
1941028	STOP	n/a	LTP075	ltpFR	8	n/a	n/a	n/a	n/a	n/a	n/a	n/a	n/a	n/a	n/a	n/a	n/a	n/a	n/a	n/a
1942849	WORD	wordpools/wasnorm_wordpool.txt	LTP075	ltpFR	8	9	1	POTATO	1115	n/a	1	n/a	0	0	0	1	0.412841796875	0.57763671875	upper	../fonts/amplitud.ttf
1945858	START	n/a	LTP075	ltpFR	8	n/a	n/a	n/a	n/a	n/a	n/a	n/a	n/a	n/a	n/a	n/a	n/a	n/a	n/a	n/a
1946715	PROB	n/a	LTP075	ltpFR	8	n/a	n/a	n/a	n/a	n/a	n/a	12	6	2	4	n/a	n/a	n/a	n/a	n/a
1948839	PROB	n/a	LTP075	ltpFR	8	n/a	n/a	n/a	n/a	n/a	n/a	8	6	1	2	n/a	n/a	n/a	n/a	n/a
1950324	PROB	n/a	LTP075	ltpFR	8	n/a	n/a	n/a	n/a	n/a	n/a	12	6	5	1	n/a	n/a	n/a	n/a	n/a
1952007	PROB	n/a	LTP075	ltpFR	8	n/a	n/a	n/a	n/a	n/a	n/a	19	7	9	3	n/a	n/a	n/a	n/a	n/a
1953803	STOP	n/a	LTP075	ltpFR	8	n/a	n/a	n/a	n/a	n/a	n/a	n/a	n/a	n/a	n/a	n/a	n/a	n/a	n/a	n/a
1954714	WORD	wordpools/wasnorm_wordpool.txt	LTP075	ltpFR	8	9	1	SALESMAN	1225	n/a	1	n/a	0	0	0	1	0.412841796875	0.57763671875	upper	../fonts/amplitud.ttf
1957723	START	n/a	LTP075	ltpFR	8	n/a	n/a	n/a	n/a	n/a	n/a	n/a	n/a	n/a	n/a	n/a	n/a	n/a	n/a	n/a
1958856	PROB	n/a	LTP075	ltpFR	8	n/a	n/a	n/a	n/a	n/a	n/a	17	3	7	7	n/a	n/a	n/a	n/a	n/a
1960156	PROB	n/a	LTP075	ltpFR	8	n/a	n/a	n/a	n/a	n/a	n/a	18	7	8	3	n/a	n/a	n/a	n/a	n/a
1961539	PROB	n/a	LTP075	ltpFR	8	n/a	n/a	n/a	n/a	n/a	n/a	24	9	7	8	n/a	n/a	n/a	n/a	n/a
1963856	PROB	n/a	LTP075	ltpFR	8	n/a	n/a	n/a	n/a	n/a	n/a	16	2	6	8	n/a	n/a	n/a	n/a	n/a
1965164	STOP	n/a	LTP075	ltpFR	8	n/a	n/a	n/a	n/a	n/a	n/a	n/a	n/a	n/a	n/a	n/a	n/a	n/a	n/a	n/a
1966556	WORD	wordpools/wasnorm_wordpool.txt	LTP075	ltpFR	8	9	1	DIAGRAM	456	n/a	0	n/a	0	0	0	1	0.412841796875	0.57763671875	upper	../fonts/amplitud.ttf
1969564	START	n/a	LTP075	ltpFR	8	n/a	n/a	n/a	n/a	n/a	n/a	n/a	n/a	n/a	n/a	n/a	n/a	n/a	n/a	n/a
1970472	PROB	n/a	LTP075	ltpFR	8	n/a	n/a	n/a	n/a	n/a	n/a	12	7	3	2	n/a	n/a	n/a	n/a	n/a
1972622	PROB	n/a	LTP075	ltpFR	8	n/a	n/a	n/a	n/a	n/a	n/a	12	6	2	4	n/a	n/a	n/a	n/a	n/a
1974372	PROB	n/a	LTP075	ltpFR	8	n/a	n/a	n/a	n/a	n/a	n/a	18	1	8	9	n/a	n/a	n/a	n/a	n/a
1975655	PROB	n/a	LTP075	ltpFR	8	n/a	n/a	n/a	n/a	n/a	n/a	12	3	3	6	n/a	n/a	n/a	n/a	n/a
1977060	STOP	n/a	LTP075	ltpFR	8	n/a	n/a	n/a	n/a	n/a	n/a	n/a	n/a	n/a	n/a	n/a	n/a	n/a	n/a	n/a
1978688	WORD	wordpools/wasnorm_wordpool.txt	LTP075	ltpFR	8	9	1	CANAL	226	n/a	0	n/a	0	0	0	1	0.412841796875	0.57763671875	upper	../fonts/amplitud.ttf
1981697	START	n/a	LTP075	ltpFR	8	n/a	n/a	n/a	n/a	n/a	n/a	n/a	n/a	n/a	n/a	n/a	n/a	n/a	n/a	n/a
1982555	PROB	n/a	LTP075	ltpFR	8	n/a	n/a	n/a	n/a	n/a	n/a	10	5	3	2	n/a	n/a	n/a	n/a	n/a
1984213	PROB	n/a	LTP075	ltpFR	8	n/a	n/a	n/a	n/a	n/a	n/a	18	8	5	5	n/a	n/a	n/a	n/a	n/a
1986029	PROB	n/a	LTP075	ltpFR	8	n/a	n/a	n/a	n/a	n/a	n/a	25	9	7	9	n/a	n/a	n/a	n/a	n/a
1988731	STOP	n/a	LTP075	ltpFR	8	n/a	n/a	n/a	n/a	n/a	n/a	n/a	n/a	n/a	n/a	n/a	n/a	n/a	n/a	n/a
1990711	WORD	wordpools/wasnorm_wordpool.txt	LTP075	ltpFR	8	9	1	SQUIRREL	1362	n/a	1	n/a	0	0	0	1	0.412841796875	0.57763671875	upper	../fonts/amplitud.ttf
1993720	START	n/a	LTP075	ltpFR	8	n/a	n/a	n/a	n/a	n/a	n/a	n/a	n/a	n/a	n/a	n/a	n/a	n/a	n/a	n/a
1994836	PROB	n/a	LTP075	ltpFR	8	n/a	n/a	n/a	n/a	n/a	n/a	18	3	6	9	n/a	n/a	n/a	n/a	n/a
1996662	PROB	n/a	LTP075	ltpFR	8	n/a	n/a	n/a	n/a	n/a	n/a	17	4	5	8	n/a	n/a	n/a	n/a	n/a
1998087	PROB	n/a	LTP075	ltpFR	8	n/a	n/a	n/a	n/a	n/a	n/a	14	5	5	4	n/a	n/a	n/a	n/a	n/a
1999237	PROB	n/a	LTP075	ltpFR	8	n/a	n/a	n/a	n/a	n/a	n/a	13	4	5	4	n/a	n/a	n/a	n/a	n/a
2000692	STOP	n/a	LTP075	ltpFR	8	n/a	n/a	n/a	n/a	n/a	n/a	n/a	n/a	n/a	n/a	n/a	n/a	n/a	n/a	n/a
2002911	WORD	wordpools/wasnorm_wordpool.txt	LTP075	ltpFR	8	9	1	PASSENGER	1020	n/a	1	n/a	0	0	0	1	0.412841796875	0.57763671875	upper	../fonts/amplitud.ttf
2005912	START	n/a	LTP075	ltpFR	8	n/a	n/a	n/a	n/a	n/a	n/a	n/a	n/a	n/a	n/a	n/a	n/a	n/a	n/a	n/a
2006986	PROB	n/a	LTP075	ltpFR	8	n/a	n/a	n/a	n/a	n/a	n/a	11	3	4	4	n/a	n/a	n/a	n/a	n/a
2010053	PROB	n/a	LTP075	ltpFR	8	n/a	n/a	n/a	n/a	n/a	n/a	8	1	4	3	n/a	n/a	n/a	n/a	n/a
2013912	STOP	n/a	LTP075	ltpFR	8	n/a	n/a	n/a	n/a	n/a	n/a	n/a	n/a	n/a	n/a	n/a	n/a	n/a	n/a	n/a
2015044	WORD	wordpools/wasnorm_wordpool.txt	LTP075	ltpFR	8	9	1	HAWK	692	n/a	1	n/a	0	0	0	1	0.412841796875	0.57763671875	upper	../fonts/amplitud.ttf
2018052	START	n/a	LTP075	ltpFR	8	n/a	n/a	n/a	n/a	n/a	n/a	n/a	n/a	n/a	n/a	n/a	n/a	n/a	n/a	n/a
2019252	PROB	n/a	LTP075	ltpFR	8	n/a	n/a	n/a	n/a	n/a	n/a	11	3	7	1	n/a	n/a	n/a	n/a	n/a
2020402	PROB	n/a	LTP075	ltpFR	8	n/a	n/a	n/a	n/a	n/a	n/a	17	7	4	6	n/a	n/a	n/a	n/a	n/a
2021817	PROB	n/a	LTP075	ltpFR	8	n/a	n/a	n/a	n/a	n/a	n/a	15	1	5	9	n/a	n/a	n/a	n/a	n/a
2023210	PROB	n/a	LTP075	ltpFR	8	n/a	n/a	n/a	n/a	n/a	n/a	11	3	5	3	n/a	n/a	n/a	n/a	n/a
2024900	STOP	n/a	LTP075	ltpFR	8	n/a	n/a	n/a	n/a	n/a	n/a	n/a	n/a	n/a	n/a	n/a	n/a	n/a	n/a	n/a
2026918	WORD	wordpools/wasnorm_wordpool.txt	LTP075	ltpFR	8	9	1	BIRD	129	n/a	1	n/a	0	0	0	1	0.412841796875	0.57763671875	upper	../fonts/amplitud.ttf
2029926	START	n/a	LTP075	ltpFR	8	n/a	n/a	n/a	n/a	n/a	n/a	n/a	n/a	n/a	n/a	n/a	n/a	n/a	n/a	n/a
2030750	PROB	n/a	LTP075	ltpFR	8	n/a	n/a	n/a	n/a	n/a	n/a	18	7	3	8	n/a	n/a	n/a	n/a	n/a
2032684	PROB	n/a	LTP075	ltpFR	8	n/a	n/a	n/a	n/a	n/a	n/a	18	6	8	4	n/a	n/a	n/a	n/a	n/a
2034934	PROB	n/a	LTP075	ltpFR	8	n/a	n/a	n/a	n/a	n/a	n/a	13	6	1	6	n/a	n/a	n/a	n/a	n/a
2037300	STOP	n/a	LTP075	ltpFR	8	n/a	n/a	n/a	n/a	n/a	n/a	n/a	n/a	n/a	n/a	n/a	n/a	n/a	n/a	n/a
2038816	WORD	wordpools/wasnorm_wordpool.txt	LTP075	ltpFR	8	9	1	PUMP	1141	n/a	0	n/a	0	0	0	1	0.412841796875	0.57763671875	upper	../fonts/amplitud.ttf
2041825	START	n/a	LTP075	ltpFR	8	n/a	n/a	n/a	n/a	n/a	n/a	n/a	n/a	n/a	n/a	n/a	n/a	n/a	n/a	n/a
2042816	PROB	n/a	LTP075	ltpFR	8	n/a	n/a	n/a	n/a	n/a	n/a	13	6	1	7	n/a	n/a	n/a	n/a	n/a
2044317	PROB	n/a	LTP075	ltpFR	8	n/a	n/a	n/a	n/a	n/a	n/a	17	4	3	8	n/a	n/a	n/a	n/a	n/a
2046050	PROB	n/a	LTP075	ltpFR	8	n/a	n/a	n/a	n/a	n/a	n/a	11	2	3	6	n/a	n/a	n/a	n/a	n/a
2047799	PROB	n/a	LTP075	ltpFR	8	n/a	n/a	n/a	n/a	n/a	n/a	15	2	6	7	n/a	n/a	n/a	n/a	n/a
2049715	STOP	n/a	LTP075	ltpFR	8	n/a	n/a	n/a	n/a	n/a	n/a	n/a	n/a	n/a	n/a	n/a	n/a	n/a	n/a	n/a
2050850	WORD	wordpools/wasnorm_wordpool.txt	LTP075	ltpFR	8	9	1	TUTU	1524	n/a	0	n/a	0	0	0	1	0.412841796875	0.57763671875	upper	../fonts/amplitud.ttf
2053858	START	n/a	LTP075	ltpFR	8	n/a	n/a	n/a	n/a	n/a	n/a	n/a	n/a	n/a	n/a	n/a	n/a	n/a	n/a	n/a
2054883	PROB	n/a	LTP075	ltpFR	8	n/a	n/a	n/a	n/a	n/a	n/a	15	8	4	3	n/a	n/a	n/a	n/a	n/a
2057815	PROB	n/a	LTP075	ltpFR	8	n/a	n/a	n/a	n/a	n/a	n/a	15	3	4	8	n/a	n/a	n/a	n/a	n/a
2059591	PROB	n/a	LTP075	ltpFR	8	n/a	n/a	n/a	n/a	n/a	n/a	15	6	5	4	n/a	n/a	n/a	n/a	n/a
2060884	STOP	n/a	LTP075	ltpFR	8	n/a	n/a	n/a	n/a	n/a	n/a	n/a	n/a	n/a	n/a	n/a	n/a	n/a	n/a	n/a
2062999	WORD	wordpools/wasnorm_wordpool.txt	LTP075	ltpFR	8	9	1	COUCH	386	n/a	0	n/a	0	0	0	1	0.412841796875	0.57763671875	upper	../fonts/amplitud.ttf
2066007	START	n/a	LTP075	ltpFR	8	n/a	n/a	n/a	n/a	n/a	n/a	n/a	n/a	n/a	n/a	n/a	n/a	n/a	n/a	n/a
2067098	PROB	n/a	LTP075	ltpFR	8	n/a	n/a	n/a	n/a	n/a	n/a	8	1	1	6	n/a	n/a	n/a	n/a	n/a
2068390	PROB	n/a	LTP075	ltpFR	8	n/a	n/a	n/a	n/a	n/a	n/a	17	2	9	6	n/a	n/a	n/a	n/a	n/a
2069990	PROB	n/a	LTP075	ltpFR	8	n/a	n/a	n/a	n/a	n/a	n/a	22	9	7	6	n/a	n/a	n/a	n/a	n/a
2072699	STOP	n/a	LTP075	ltpFR	8	n/a	n/a	n/a	n/a	n/a	n/a	n/a	n/a	n/a	n/a	n/a	n/a	n/a	n/a	n/a
2075148	WORD	wordpools/wasnorm_wordpool.txt	LTP075	ltpFR	8	9	1	POLYESTER	1100	n/a	0	n/a	0	0	0	1	0.412841796875	0.57763671875	upper	../fonts/amplitud.ttf
2078156	START	n/a	LTP075	ltpFR	8	n/a	n/a	n/a	n/a	n/a	n/a	n/a	n/a	n/a	n/a	n/a	n/a	n/a	n/a	n/a
2079247	PROB	n/a	LTP075	ltpFR	8	n/a	n/a	n/a	n/a	n/a	n/a	21	8	5	9	n/a	n/a	n/a	n/a	n/a
2081989	PROB	n/a	LTP075	ltpFR	8	n/a	n/a	n/a	n/a	n/a	n/a	10	2	2	6	n/a	n/a	n/a	n/a	n/a
2083796	PROB	n/a	LTP075	ltpFR	8	n/a	n/a	n/a	n/a	n/a	n/a	22	8	7	7	n/a	n/a	n/a	n/a	n/a
2085292	STOP	n/a	LTP075	ltpFR	8	n/a	n/a	n/a	n/a	n/a	n/a	n/a	n/a	n/a	n/a	n/a	n/a	n/a	n/a	n/a
2086997	WORD	wordpools/wasnorm_wordpool.txt	LTP075	ltpFR	8	9	1	VEST	1559	n/a	0	n/a	0	0	0	1	0.412841796875	0.57763671875	upper	../fonts/amplitud.ttf
2090005	START	n/a	LTP075	ltpFR	8	n/a	n/a	n/a	n/a	n/a	n/a	n/a	n/a	n/a	n/a	n/a	n/a	n/a	n/a	n/a
2090837	PROB	n/a	LTP075	ltpFR	8	n/a	n/a	n/a	n/a	n/a	n/a	13	8	1	4	n/a	n/a	n/a	n/a	n/a
2092388	PROB	n/a	LTP075	ltpFR	8	n/a	n/a	n/a	n/a	n/a	n/a	22	9	6	7	n/a	n/a	n/a	n/a	n/a
2095546	PROB	n/a	LTP075	ltpFR	8	n/a	n/a	n/a	n/a	n/a	n/a	8	6	1	1	n/a	n/a	n/a	n/a	n/a
2096676	STOP	n/a	LTP075	ltpFR	8	n/a	n/a	n/a	n/a	n/a	n/a	n/a	n/a	n/a	n/a	n/a	n/a	n/a	n/a	n/a
2099863	REC_START	n/a	LTP075	ltpFR	8	9	n/a	n/a	n/a	n/a	n/a	n/a	0	0	0	n/a	n/a	n/a	n/a	n/a
2101733	REC_WORD	wordpools/wasnorm_wordpool.txt	LTP075	ltpFR	8	9	1	VEST	1559	n/a	0	n/a	0	0	0	n/a	n/a	n/a	n/a	n/a
2103724	REC_WORD	wordpools/wasnorm_wordpool.txt	LTP075	ltpFR	8	9	1	DINER	467	n/a	0	n/a	0	0	0	n/a	n/a	n/a	n/a	n/a
2106378	REC_WORD	wordpools/wasnorm_wordpool.txt	LTP075	ltpFR	8	9	1	SQUIRREL	1362	n/a	1	n/a	0	0	0	n/a	n/a	n/a	n/a	n/a
2109680	REC_WORD	wordpools/wasnorm_wordpool.txt	LTP075	ltpFR	8	9	1	SALESMAN	1225	n/a	1	n/a	0	0	0	n/a	n/a	n/a	n/a	n/a
2129041	REC_WORD	wordpools/wasnorm_wordpool.txt	LTP075	ltpFR	8	9	1	POLYESTER	1100	n/a	0	n/a	0	0	0	n/a	n/a	n/a	n/a	n/a
2141608	REC_WORD	wordpools/wasnorm_wordpool.txt	LTP075	ltpFR	8	9	1	HAWK	692	n/a	1	n/a	0	0	0	n/a	n/a	n/a	n/a	n/a
2184730	WORD	wordpools/wasnorm_wordpool.txt	LTP075	ltpFR	8	10	0	PICKLE	1059	n/a	0	n/a	0	0	0	0	0.5869140625	0.422607421875	lower	../fonts/zerothre.ttf
2188548	WORD	wordpools/wasnorm_wordpool.txt	LTP075	ltpFR	8	10	0	ZUCCHINI	1638	n/a	0	n/a	0	0	0	0	0.5869140625	0.422607421875	lower	../fonts/zerothre.ttf
2192564	WORD	wordpools/wasnorm_wordpool.txt	LTP075	ltpFR	8	10	0	LINEN	825	n/a	1	n/a	0	0	0	0	0.5869140625	0.422607421875	lower	../fonts/zerothre.ttf
2196406	WORD	wordpools/wasnorm_wordpool.txt	LTP075	ltpFR	8	10	0	TUBE	1516	n/a	0	n/a	0	0	0	0	0.5869140625	0.422607421875	lower	../fonts/zerothre.ttf
2200289	WORD	wordpools/wasnorm_wordpool.txt	LTP075	ltpFR	8	10	0	CHURCH	307	n/a	1	n/a	0	0	0	0	0.5869140625	0.422607421875	lower	../fonts/zerothre.ttf
2204180	WORD	wordpools/wasnorm_wordpool.txt	LTP075	ltpFR	8	10	0	CORN	381	n/a	0	n/a	0	0	0	0	0.5869140625	0.422607421875	lower	../fonts/zerothre.ttf
2208271	WORD	wordpools/wasnorm_wordpool.txt	LTP075	ltpFR	8	10	0	BUFFALO	186	n/a	1	n/a	0	0	0	0	0.5869140625	0.422607421875	lower	../fonts/zerothre.ttf
2212263	WORD	wordpools/wasnorm_wordpool.txt	LTP075	ltpFR	8	10	0	DOUGHNUT	490	n/a	0	n/a	0	0	0	0	0.5869140625	0.422607421875	lower	../fonts/zerothre.ttf
2216454	WORD	wordpools/wasnorm_wordpool.txt	LTP075	ltpFR	8	10	0	FACE	547	n/a	1	n/a	0	0	0	0	0.5869140625	0.422607421875	lower	../fonts/zerothre.ttf
2220470	WORD	wordpools/wasnorm_wordpool.txt	LTP075	ltpFR	8	10	0	WHEAT	1602	n/a	0	n/a	0	0	0	0	0.5869140625	0.422607421875	lower	../fonts/zerothre.ttf
2224370	WORD	wordpools/wasnorm_wordpool.txt	LTP075	ltpFR	8	10	0	CAPITAL	238	n/a	1	n/a	0	0	0	0	0.5869140625	0.422607421875	lower	../fonts/zerothre.ttf
2228262	WORD	wordpools/wasnorm_wordpool.txt	LTP075	ltpFR	8	10	0	SUBURB	1399	n/a	1	n/a	0	0	0	0	0.5869140625	0.422607421875	lower	../fonts/zerothre.ttf
2232428	WORD	wordpools/wasnorm_wordpool.txt	LTP075	ltpFR	8	10	0	CATTLE	261	n/a	1	n/a	0	0	0	0	0.5869140625	0.422607421875	lower	../fonts/zerothre.ttf
2236328	WORD	wordpools/wasnorm_wordpool.txt	LTP075	ltpFR	8	10	0	CHEEK	287	n/a	0	n/a	0	0	0	0	0.5869140625	0.422607421875	lower	../fonts/zerothre.ttf
2240469	WORD	wordpools/wasnorm_wordpool.txt	LTP075	ltpFR	8	10	0	ROBOT	1200	n/a	1	n/a	0	0	0	0	0.5869140625	0.422607421875	lower	../fonts/zerothre.ttf
2244369	WORD	wordpools/wasnorm_wordpool.txt	LTP075	ltpFR	8	10	0	RECORD	1176	n/a	0	n/a	0	0	0	0	0.5869140625	0.422607421875	lower	../fonts/zerothre.ttf
2247377	START	n/a	LTP075	ltpFR	8	n/a	n/a	n/a	n/a	n/a	n/a	n/a	n/a	n/a	n/a	n/a	n/a	n/a	n/a	n/a
2248277	PROB	n/a	LTP075	ltpFR	8	n/a	n/a	n/a	n/a	n/a	n/a	16	9	4	3	n/a	n/a	n/a	n/a	n/a
2250493	PROB	n/a	LTP075	ltpFR	8	n/a	n/a	n/a	n/a	n/a	n/a	16	7	8	1	n/a	n/a	n/a	n/a	n/a
2251877	PROB	n/a	LTP075	ltpFR	8	n/a	n/a	n/a	n/a	n/a	n/a	21	9	9	3	n/a	n/a	n/a	n/a	n/a
2253251	PROB	n/a	LTP075	ltpFR	8	n/a	n/a	n/a	n/a	n/a	n/a	16	5	4	7	n/a	n/a	n/a	n/a	n/a
2255110	PROB	n/a	LTP075	ltpFR	8	n/a	n/a	n/a	n/a	n/a	n/a	17	8	1	8	n/a	n/a	n/a	n/a	n/a
2256518	PROB	n/a	LTP075	ltpFR	8	n/a	n/a	n/a	n/a	n/a	n/a	16	5	9	2	n/a	n/a	n/a	n/a	n/a
2257918	PROB	n/a	LTP075	ltpFR	8	n/a	n/a	n/a	n/a	n/a	n/a	16	9	6	1	n/a	n/a	n/a	n/a	n/a
2259518	PROB	n/a	LTP075	ltpFR	8	n/a	n/a	n/a	n/a	n/a	n/a	25	9	8	8	n/a	n/a	n/a	n/a	n/a
2261426	PROB	n/a	LTP075	ltpFR	8	n/a	n/a	n/a	n/a	n/a	n/a	25	8	9	8	n/a	n/a	n/a	n/a	n/a
2263124	STOP	n/a	LTP075	ltpFR	8	n/a	n/a	n/a	n/a	n/a	n/a	n/a	n/a	n/a	n/a	n/a	n/a	n/a	n/a	n/a
2265243	REC_START	n/a	LTP075	ltpFR	8	10	n/a	n/a	n/a	n/a	n/a	n/a	0	0	0	n/a	n/a	n/a	n/a	n/a
2266914	REC_WORD	wordpools/wasnorm_wordpool.txt	LTP075	ltpFR	8	10	0	CATTLE	261	n/a	1	n/a	0	0	0	n/a	n/a	n/a	n/a	n/a
2272651	REC_WORD	wordpools/wasnorm_wordpool.txt	LTP075	ltpFR	8	10	0	PICKLE	1059	n/a	0	n/a	0	0	0	n/a	n/a	n/a	n/a	n/a
2274417	REC_WORD	wordpools/wasnorm_wordpool.txt	LTP075	ltpFR	8	10	0	ZUCCHINI	1638	n/a	0	n/a	0	0	0	n/a	n/a	n/a	n/a	n/a
2277045	REC_WORD	wordpools/wasnorm_wordpool.txt	LTP075	ltpFR	8	10	0	FACE	547	n/a	1	n/a	0	0	0	n/a	n/a	n/a	n/a	n/a
2279625	REC_WORD	wordpools/wasnorm_wordpool.txt	LTP075	ltpFR	8	10	0	CHEEK	287	n/a	0	n/a	0	0	0	n/a	n/a	n/a	n/a	n/a
2347686	WORD	wordpools/wasnorm_wordpool.txt	LTP075	ltpFR	8	11	1	WAX	1597	n/a	0	n/a	0	0	0	1	0.412841796875	0.57763671875	upper	../fonts/amplitud.ttf
2351886	WORD	wordpools/wasnorm_wordpool.txt	LTP075	ltpFR	8	11	1	MOTOR	922	n/a	0	n/a	0	0	0	1	0.412841796875	0.57763671875	upper	../fonts/amplitud.ttf
2355818	WORD	wordpools/wasnorm_wordpool.txt	LTP075	ltpFR	8	11	1	GIRAFFE	636	n/a	1	n/a	0	0	0	1	0.412841796875	0.57763671875	upper	../fonts/amplitud.ttf
2359743	WORD	wordpools/wasnorm_wordpool.txt	LTP075	ltpFR	8	11	1	CHIPMUNK	304	n/a	1	n/a	0	0	0	1	0.412841796875	0.57763671875	upper	../fonts/amplitud.ttf
2363927	WORD	wordpools/wasnorm_wordpool.txt	LTP075	ltpFR	8	11	0	VINE	1568	n/a	0	n/a	0	0	0	0	0.5869140625	0.422607421875	lower	../fonts/zerothre.ttf
2367742	WORD	wordpools/wasnorm_wordpool.txt	LTP075	ltpFR	8	11	0	MOTHER	921	n/a	1	n/a	0	0	0	0	0.5869140625	0.422607421875	lower	../fonts/zerothre.ttf
2371618	WORD	wordpools/wasnorm_wordpool.txt	LTP075	ltpFR	8	11	0	RIB	1188	n/a	0	n/a	0	0	0	0	0.5869140625	0.422607421875	lower	../fonts/zerothre.ttf
2375800	WORD	wordpools/wasnorm_wordpool.txt	LTP075	ltpFR	8	11	0	ANCESTOR	20	n/a	0	n/a	0	0	0	0	0.5869140625	0.422607421875	lower	../fonts/zerothre.ttf
2379900	WORD	wordpools/wasnorm_wordpool.txt	LTP075	ltpFR	8	11	1	RAFT	1159	n/a	n/a	n/a	0	0	0	1	0.412841796875	0.57763671875	upper	../fonts/amplitud.ttf
2382925	SLOW_MSG	n/a	LTP075	ltpFR	8	11	n/a	n/a	n/a	n/a	n/a	n/a	0	0	0	n/a	n/a	n/a	n/a	n/a
2385267	WORD	wordpools/wasnorm_wordpool.txt	LTP075	ltpFR	8	11	1	FOUNTAIN	597	n/a	0	n/a	0	0	0	1	0.412841796875	0.57763671875	upper	../fonts/amplitud.ttf
2389466	WORD	wordpools/wasnorm_wordpool.txt	LTP075	ltpFR	8	11	0	GROCERIES	663	n/a	1	n/a	0	0	0	0	0.5869140625	0.422607421875	lower	../fonts/zerothre.ttf
2393483	WORD	wordpools/wasnorm_wordpool.txt	LTP075	ltpFR	8	11	0	MONASTERY	907	n/a	1	n/a	0	0	0	0	0.5869140625	0.422607421875	lower	../fonts/zerothre.ttf
2397691	WORD	wordpools/wasnorm_wordpool.txt	LTP075	ltpFR	8	11	0	BABY	64	n/a	0	n/a	0	0	0	0	0.5869140625	0.422607421875	lower	../fonts/zerothre.ttf
2401731	WORD	wordpools/wasnorm_wordpool.txt	LTP075	ltpFR	8	11	0	RAG	1160	n/a	0	n/a	0	0	0	0	0.5869140625	0.422607421875	lower	../fonts/zerothre.ttf
2405590	WORD	wordpools/wasnorm_wordpool.txt	LTP075	ltpFR	8	11	1	PRIEST	1122	n/a	1	n/a	0	0	0	1	0.412841796875	0.57763671875	upper	../fonts/amplitud.ttf
2409706	WORD	wordpools/wasnorm_wordpool.txt	LTP075	ltpFR	8	11	1	GOWN	652	n/a	0	n/a	0	0	0	1	0.412841796875	0.57763671875	upper	../fonts/amplitud.ttf
2415582	REC_START	n/a	LTP075	ltpFR	8	11	n/a	n/a	n/a	n/a	n/a	n/a	0	0	0	n/a	n/a	n/a	n/a	n/a
2416575	REC_WORD	wordpools/wasnorm_wordpool.txt	LTP075	ltpFR	8	11	1	PRIEST	1122	n/a	1	n/a	0	0	0	n/a	n/a	n/a	n/a	n/a
2417622	REC_WORD	wordpools/wasnorm_wordpool.txt	LTP075	ltpFR	8	11	1	GOWN	652	n/a	0	n/a	0	0	0	n/a	n/a	n/a	n/a	n/a
2419608	REC_WORD	wordpools/wasnorm_wordpool.txt	LTP075	ltpFR	8	11	0	MONASTERY	907	n/a	1	n/a	0	0	0	n/a	n/a	n/a	n/a	n/a
2421753	REC_WORD	wordpools/wasnorm_wordpool.txt	LTP075	ltpFR	8	11	0	ANCESTOR	20	n/a	0	n/a	0	0	0	n/a	n/a	n/a	n/a	n/a
2435417	REC_WORD	wordpools/wasnorm_wordpool.txt	LTP075	ltpFR	8	11	0	BABY	64	n/a	0	n/a	0	0	0	n/a	n/a	n/a	n/a	n/a
2445389	REC_WORD	wordpools/wasnorm_wordpool.txt	LTP075	ltpFR	8	11	1	GIRAFFE	636	n/a	1	n/a	0	0	0	n/a	n/a	n/a	n/a	n/a
2456124	REC_WORD	wordpools/wasnorm_wordpool.txt	LTP075	ltpFR	8	11	1	FOUNTAIN	597	n/a	0	n/a	0	0	0	n/a	n/a	n/a	n/a	n/a
2459252	REC_WORD	wordpools/wasnorm_wordpool.txt	LTP075	ltpFR	8	11	0	VINE	1568	n/a	0	n/a	0	0	0	n/a	n/a	n/a	n/a	n/a
2493193	START	n/a	LTP075	ltpFR	8	n/a	n/a	n/a	n/a	n/a	n/a	n/a	n/a	n/a	n/a	n/a	n/a	n/a	n/a	n/a
2494699	PROB	n/a	LTP075	ltpFR	8	n/a	n/a	n/a	n/a	n/a	n/a	15	8	4	3	n/a	n/a	n/a	n/a	n/a
2496841	PROB	n/a	LTP075	ltpFR	8	n/a	n/a	n/a	n/a	n/a	n/a	9	2	2	5	n/a	n/a	n/a	n/a	n/a
2498300	PROB	n/a	LTP075	ltpFR	8	n/a	n/a	n/a	n/a	n/a	n/a	11	2	6	3	n/a	n/a	n/a	n/a	n/a
2500158	PROB	n/a	LTP075	ltpFR	8	n/a	n/a	n/a	n/a	n/a	n/a	15	3	4	8	n/a	n/a	n/a	n/a	n/a
2501967	PROB	n/a	LTP075	ltpFR	8	n/a	n/a	n/a	n/a	n/a	n/a	16	8	2	6	n/a	n/a	n/a	n/a	n/a
2503150	PROB	n/a	LTP075	ltpFR	8	n/a	n/a	n/a	n/a	n/a	n/a	19	5	8	6	n/a	n/a	n/a	n/a	n/a
2505749	PROB	n/a	LTP075	ltpFR	8	n/a	n/a	n/a	n/a	n/a	n/a	19	5	7	7	n/a	n/a	n/a	n/a	n/a
2507149	PROB	n/a	LTP075	ltpFR	8	n/a	n/a	n/a	n/a	n/a	n/a	12	2	6	4	n/a	n/a	n/a	n/a	n/a
2508892	STOP	n/a	LTP075	ltpFR	8	n/a	n/a	n/a	n/a	n/a	n/a	n/a	n/a	n/a	n/a	n/a	n/a	n/a	n/a	n/a
2510041	WORD	wordpools/wasnorm_wordpool.txt	LTP075	ltpFR	8	12	1	PANTHER	1009	n/a	1	n/a	0	0	0	1	0.412841796875	0.57763671875	upper	../fonts/amplitud.ttf
2513049	START	n/a	LTP075	ltpFR	8	n/a	n/a	n/a	n/a	n/a	n/a	n/a	n/a	n/a	n/a	n/a	n/a	n/a	n/a	n/a
2514016	PROB	n/a	LTP075	ltpFR	8	n/a	n/a	n/a	n/a	n/a	n/a	18	8	8	2	n/a	n/a	n/a	n/a	n/a
2515457	PROB	n/a	LTP075	ltpFR	8	n/a	n/a	n/a	n/a	n/a	n/a	17	3	7	7	n/a	n/a	n/a	n/a	n/a
2516831	PROB	n/a	LTP075	ltpFR	8	n/a	n/a	n/a	n/a	n/a	n/a	22	8	7	8	n/a	n/a	n/a	n/a	n/a
2518274	PROB	n/a	LTP075	ltpFR	8	n/a	n/a	n/a	n/a	n/a	n/a	9	3	5	1	n/a	n/a	n/a	n/a	n/a
2519714	PROB	n/a	LTP075	ltpFR	8	n/a	n/a	n/a	n/a	n/a	n/a	13	2	6	5	n/a	n/a	n/a	n/a	n/a
2521615	PROB	n/a	LTP075	ltpFR	8	n/a	n/a	n/a	n/a	n/a	n/a	17	7	6	4	n/a	n/a	n/a	n/a	n/a
2523607	PROB	n/a	LTP075	ltpFR	8	n/a	n/a	n/a	n/a	n/a	n/a	9	2	1	6	n/a	n/a	n/a	n/a	n/a
2525714	PROB	n/a	LTP075	ltpFR	8	n/a	n/a	n/a	n/a	n/a	n/a	18	3	7	8	n/a	n/a	n/a	n/a	n/a
2527481	PROB	n/a	LTP075	ltpFR	8	n/a	n/a	n/a	n/a	n/a	n/a	12	2	3	7	n/a	n/a	n/a	n/a	n/a
2528588	STOP	n/a	LTP075	ltpFR	8	n/a	n/a	n/a	n/a	n/a	n/a	n/a	n/a	n/a	n/a	n/a	n/a	n/a	n/a	n/a
2530106	WORD	wordpools/wasnorm_wordpool.txt	LTP075	ltpFR	8	12	1	DINOSAUR	469	n/a	0	n/a	0	0	0	1	0.412841796875	0.57763671875	upper	../fonts/amplitud.ttf
2533115	START	n/a	LTP075	ltpFR	8	n/a	n/a	n/a	n/a	n/a	n/a	n/a	n/a	n/a	n/a	n/a	n/a	n/a	n/a	n/a
2534139	PROB	n/a	LTP075	ltpFR	8	n/a	n/a	n/a	n/a	n/a	n/a	16	2	7	7	n/a	n/a	n/a	n/a	n/a
2535589	PROB	n/a	LTP075	ltpFR	8	n/a	n/a	n/a	n/a	n/a	n/a	15	7	3	5	n/a	n/a	n/a	n/a	n/a
2536697	PROB	n/a	LTP075	ltpFR	8	n/a	n/a	n/a	n/a	n/a	n/a	9	5	1	3	n/a	n/a	n/a	n/a	n/a
2537972	PROB	n/a	LTP075	ltpFR	8	n/a	n/a	n/a	n/a	n/a	n/a	11	1	1	9	n/a	n/a	n/a	n/a	n/a
2539139	PROB	n/a	LTP075	ltpFR	8	n/a	n/a	n/a	n/a	n/a	n/a	12	3	7	2	n/a	n/a	n/a	n/a	n/a
2540330	PROB	n/a	LTP075	ltpFR	8	n/a	n/a	n/a	n/a	n/a	n/a	15	2	9	4	n/a	n/a	n/a	n/a	n/a
2542139	PROB	n/a	LTP075	ltpFR	8	n/a	n/a	n/a	n/a	n/a	n/a	14	4	4	5	n/a	n/a	n/a	n/a	n/a
2543779	PROB	n/a	LTP075	ltpFR	8	n/a	n/a	n/a	n/a	n/a	n/a	13	5	4	4	n/a	n/a	n/a	n/a	n/a
2545397	PROB	n/a	LTP075	ltpFR	8	n/a	n/a	n/a	n/a	n/a	n/a	17	3	5	9	n/a	n/a	n/a	n/a	n/a
2547130	PROB	n/a	LTP075	ltpFR	8	n/a	n/a	n/a	n/a	n/a	n/a	10	7	2	1	n/a	n/a	n/a	n/a	n/a
2548260	STOP	n/a	LTP075	ltpFR	8	n/a	n/a	n/a	n/a	n/a	n/a	n/a	n/a	n/a	n/a	n/a	n/a	n/a	n/a	n/a
2549955	WORD	wordpools/wasnorm_wordpool.txt	LTP075	ltpFR	8	12	1	TANK	1432	n/a	0	n/a	0	0	0	1	0.412841796875	0.57763671875	upper	../fonts/amplitud.ttf
2552963	START	n/a	LTP075	ltpFR	8	n/a	n/a	n/a	n/a	n/a	n/a	n/a	n/a	n/a	n/a	n/a	n/a	n/a	n/a	n/a
2553770	PROB	n/a	LTP075	ltpFR	8	n/a	n/a	n/a	n/a	n/a	n/a	12	2	3	7	n/a	n/a	n/a	n/a	n/a
2554837	PROB	n/a	LTP075	ltpFR	8	n/a	n/a	n/a	n/a	n/a	n/a	18	4	8	6	n/a	n/a	n/a	n/a	n/a
2556845	PROB	n/a	LTP075	ltpFR	8	n/a	n/a	n/a	n/a	n/a	n/a	17	8	5	1	n/a	n/a	n/a	n/a	n/a
2558587	PROB	n/a	LTP075	ltpFR	8	n/a	n/a	n/a	n/a	n/a	n/a	18	7	4	7	n/a	n/a	n/a	n/a	n/a
2560112	PROB	n/a	LTP075	ltpFR	8	n/a	n/a	n/a	n/a	n/a	n/a	15	2	5	8	n/a	n/a	n/a	n/a	n/a
2561654	PROB	n/a	LTP075	ltpFR	8	n/a	n/a	n/a	n/a	n/a	n/a	16	7	2	7	n/a	n/a	n/a	n/a	n/a
2563070	PROB	n/a	LTP075	ltpFR	8	n/a	n/a	n/a	n/a	n/a	n/a	20	8	7	5	n/a	n/a	n/a	n/a	n/a
2565703	PROB	n/a	LTP075	ltpFR	8	n/a	n/a	n/a	n/a	n/a	n/a	17	9	3	5	n/a	n/a	n/a	n/a	n/a
2568220	STOP	n/a	LTP075	ltpFR	8	n/a	n/a	n/a	n/a	n/a	n/a	n/a	n/a	n/a	n/a	n/a	n/a	n/a	n/a	n/a
2570078	WORD	wordpools/wasnorm_wordpool.txt	LTP075	ltpFR	8	12	1	TRANSPLANT	1496	n/a	0	n/a	0	0	0	1	0.412841796875	0.57763671875	upper	../fonts/amplitud.ttf
2573087	START	n/a	LTP075	ltpFR	8	n/a	n/a	n/a	n/a	n/a	n/a	n/a	n/a	n/a	n/a	n/a	n/a	n/a	n/a	n/a
2574078	PROB	n/a	LTP075	ltpFR	8	n/a	n/a	n/a	n/a	n/a	n/a	10	4	2	4	n/a	n/a	n/a	n/a	n/a
2575994	PROB	n/a	LTP075	ltpFR	8	n/a	n/a	n/a	n/a	n/a	n/a	9	6	2	1	n/a	n/a	n/a	n/a	n/a
2577403	PROB	n/a	LTP075	ltpFR	8	n/a	n/a	n/a	n/a	n/a	n/a	10	4	5	1	n/a	n/a	n/a	n/a	n/a
2578702	PROB	n/a	LTP075	ltpFR	8	n/a	n/a	n/a	n/a	n/a	n/a	17	4	6	7	n/a	n/a	n/a	n/a	n/a
2580552	PROB	n/a	LTP075	ltpFR	8	n/a	n/a	n/a	n/a	n/a	n/a	7	2	2	3	n/a	n/a	n/a	n/a	n/a
2582094	PROB	n/a	LTP075	ltpFR	8	n/a	n/a	n/a	n/a	n/a	n/a	18	9	8	1	n/a	n/a	n/a	n/a	n/a
2584027	PROB	n/a	LTP075	ltpFR	8	n/a	n/a	n/a	n/a	n/a	n/a	12	6	1	5	n/a	n/a	n/a	n/a	n/a
2585519	PROB	n/a	LTP075	ltpFR	8	n/a	n/a	n/a	n/a	n/a	n/a	19	8	9	4	n/a	n/a	n/a	n/a	n/a
2587144	PROB	n/a	LTP075	ltpFR	8	n/a	n/a	n/a	n/a	n/a	n/a	6	1	1	4	n/a	n/a	n/a	n/a	n/a
2588420	STOP	n/a	LTP075	ltpFR	8	n/a	n/a	n/a	n/a	n/a	n/a	n/a	n/a	n/a	n/a	n/a	n/a	n/a	n/a	n/a
2589910	WORD	wordpools/wasnorm_wordpool.txt	LTP075	ltpFR	8	12	0	AMBULANCE	19	n/a	1	n/a	0	0	0	0	0.5869140625	0.422607421875	lower	../fonts/zerothre.ttf
2592919	START	n/a	LTP075	ltpFR	8	n/a	n/a	n/a	n/a	n/a	n/a	n/a	n/a	n/a	n/a	n/a	n/a	n/a	n/a	n/a
2594010	PROB	n/a	LTP075	ltpFR	8	n/a	n/a	n/a	n/a	n/a	n/a	14	4	4	6	n/a	n/a	n/a	n/a	n/a
2595235	PROB	n/a	LTP075	ltpFR	8	n/a	n/a	n/a	n/a	n/a	n/a	17	5	4	8	n/a	n/a	n/a	n/a	n/a
2596767	PROB	n/a	LTP075	ltpFR	8	n/a	n/a	n/a	n/a	n/a	n/a	13	1	8	4	n/a	n/a	n/a	n/a	n/a
2598151	PROB	n/a	LTP075	ltpFR	8	n/a	n/a	n/a	n/a	n/a	n/a	25	7	7	9	n/a	n/a	n/a	n/a	n/a
2599659	PROB	n/a	LTP075	ltpFR	8	n/a	n/a	n/a	n/a	n/a	n/a	16	8	6	2	n/a	n/a	n/a	n/a	n/a
2601534	PROB	n/a	LTP075	ltpFR	8	n/a	n/a	n/a	n/a	n/a	n/a	11	6	4	1	n/a	n/a	n/a	n/a	n/a
2602783	PROB	n/a	LTP075	ltpFR	8	n/a	n/a	n/a	n/a	n/a	n/a	21	5	8	9	n/a	n/a	n/a	n/a	n/a
2605526	PROB	n/a	LTP075	ltpFR	8	n/a	n/a	n/a	n/a	n/a	n/a	9	2	5	2	n/a	n/a	n/a	n/a	n/a
2606808	PROB	n/a	LTP075	ltpFR	8	n/a	n/a	n/a	n/a	n/a	n/a	14	6	5	4	n/a	n/a	n/a	n/a	n/a
2608116	STOP	n/a	LTP075	ltpFR	8	n/a	n/a	n/a	n/a	n/a	n/a	n/a	n/a	n/a	n/a	n/a	n/a	n/a	n/a	n/a
2609959	WORD	wordpools/wasnorm_wordpool.txt	LTP075	ltpFR	8	12	0	PEAR	1033	n/a	0	n/a	0	0	0	0	0.5869140625	0.422607421875	lower	../fonts/zerothre.ttf
2612967	START	n/a	LTP075	ltpFR	8	n/a	n/a	n/a	n/a	n/a	n/a	n/a	n/a	n/a	n/a	n/a	n/a	n/a	n/a	n/a
2613791	PROB	n/a	LTP075	ltpFR	8	n/a	n/a	n/a	n/a	n/a	n/a	7	5	3	2	n/a	n/a	n/a	n/a	n/a
2615983	PROB	n/a	LTP075	ltpFR	8	n/a	n/a	n/a	n/a	n/a	n/a	27	8	9	9	n/a	n/a	n/a	n/a	n/a
2618840	PROB	n/a	LTP075	ltpFR	8	n/a	n/a	n/a	n/a	n/a	n/a	13	3	5	5	n/a	n/a	n/a	n/a	n/a
2620058	PROB	n/a	LTP075	ltpFR	8	n/a	n/a	n/a	n/a	n/a	n/a	20	5	6	9	n/a	n/a	n/a	n/a	n/a
2621765	PROB	n/a	LTP075	ltpFR	8	n/a	n/a	n/a	n/a	n/a	n/a	23	9	9	5	n/a	n/a	n/a	n/a	n/a
2623649	PROB	n/a	LTP075	ltpFR	8	n/a	n/a	n/a	n/a	n/a	n/a	15	9	3	3	n/a	n/a	n/a	n/a	n/a
2625666	PROB	n/a	LTP075	ltpFR	8	n/a	n/a	n/a	n/a	n/a	n/a	6	1	2	3	n/a	n/a	n/a	n/a	n/a
2628967	STOP	n/a	LTP075	ltpFR	8	n/a	n/a	n/a	n/a	n/a	n/a	n/a	n/a	n/a	n/a	n/a	n/a	n/a	n/a	n/a
2629882	WORD	wordpools/wasnorm_wordpool.txt	LTP075	ltpFR	8	12	0	CHERRY	293	n/a	0	n/a	0	0	0	0	0.5869140625	0.422607421875	lower	../fonts/zerothre.ttf
2632891	START	n/a	LTP075	ltpFR	8	n/a	n/a	n/a	n/a	n/a	n/a	n/a	n/a	n/a	n/a	n/a	n/a	n/a	n/a	n/a
2633865	PROB	n/a	LTP075	ltpFR	8	n/a	n/a	n/a	n/a	n/a	n/a	12	9	2	1	n/a	n/a	n/a	n/a	n/a
2635557	PROB	n/a	LTP075	ltpFR	8	n/a	n/a	n/a	n/a	n/a	n/a	10	8	1	1	n/a	n/a	n/a	n/a	n/a
2637032	PROB	n/a	LTP075	ltpFR	8	n/a	n/a	n/a	n/a	n/a	n/a	12	4	2	6	n/a	n/a	n/a	n/a	n/a
2638398	PROB	n/a	LTP075	ltpFR	8	n/a	n/a	n/a	n/a	n/a	n/a	14	8	5	1	n/a	n/a	n/a	n/a	n/a
2640506	PROB	n/a	LTP075	ltpFR	8	n/a	n/a	n/a	n/a	n/a	n/a	17	4	8	5	n/a	n/a	n/a	n/a	n/a
2642398	PROB	n/a	LTP075	ltpFR	8	n/a	n/a	n/a	n/a	n/a	n/a	12	5	2	5	n/a	n/a	n/a	n/a	n/a
2643730	PROB	n/a	LTP075	ltpFR	8	n/a	n/a	n/a	n/a	n/a	n/a	12	5	2	5	n/a	n/a	n/a	n/a	n/a
2644738	PROB	n/a	LTP075	ltpFR	8	n/a	n/a	n/a	n/a	n/a	n/a	12	1	2	9	n/a	n/a	n/a	n/a	n/a
2646198	PROB	n/a	LTP075	ltpFR	8	n/a	n/a	n/a	n/a	n/a	n/a	17	9	1	7	n/a	n/a	n/a	n/a	n/a
2647532	STOP	n/a	LTP075	ltpFR	8	n/a	n/a	n/a	n/a	n/a	n/a	n/a	n/a	n/a	n/a	n/a	n/a	n/a	n/a	n/a
2649763	WORD	wordpools/wasnorm_wordpool.txt	LTP075	ltpFR	8	12	0	THUMB	1462	n/a	0	n/a	0	0	0	0	0.5869140625	0.422607421875	lower	../fonts/zerothre.ttf
2652772	START	n/a	LTP075	ltpFR	8	n/a	n/a	n/a	n/a	n/a	n/a	n/a	n/a	n/a	n/a	n/a	n/a	n/a	n/a	n/a
2653779	PROB	n/a	LTP075	ltpFR	8	n/a	n/a	n/a	n/a	n/a	n/a	17	2	8	7	n/a	n/a	n/a	n/a	n/a
2655139	PROB	n/a	LTP075	ltpFR	8	n/a	n/a	n/a	n/a	n/a	n/a	17	9	1	7	n/a	n/a	n/a	n/a	n/a
2656339	PROB	n/a	LTP075	ltpFR	8	n/a	n/a	n/a	n/a	n/a	n/a	13	9	3	1	n/a	n/a	n/a	n/a	n/a
2657796	PROB	n/a	LTP075	ltpFR	8	n/a	n/a	n/a	n/a	n/a	n/a	11	2	3	6	n/a	n/a	n/a	n/a	n/a
2660622	PROB	n/a	LTP075	ltpFR	8	n/a	n/a	n/a	n/a	n/a	n/a	12	2	8	2	n/a	n/a	n/a	n/a	n/a
2661737	PROB	n/a	LTP075	ltpFR	8	n/a	n/a	n/a	n/a	n/a	n/a	6	1	4	1	n/a	n/a	n/a	n/a	n/a
2662913	PROB	n/a	LTP075	ltpFR	8	n/a	n/a	n/a	n/a	n/a	n/a	16	3	8	5	n/a	n/a	n/a	n/a	n/a
2664863	PROB	n/a	LTP075	ltpFR	8	n/a	n/a	n/a	n/a	n/a	n/a	19	7	6	6	n/a	n/a	n/a	n/a	n/a
2666221	PROB	n/a	LTP075	ltpFR	8	n/a	n/a	n/a	n/a	n/a	n/a	7	4	2	1	n/a	n/a	n/a	n/a	n/a
2668212	STOP	n/a	LTP075	ltpFR	8	n/a	n/a	n/a	n/a	n/a	n/a	n/a	n/a	n/a	n/a	n/a	n/a	n/a	n/a	n/a
2669703	WORD	wordpools/wasnorm_wordpool.txt	LTP075	ltpFR	8	12	0	BASKET	95	n/a	0	n/a	0	0	0	0	0.5869140625	0.422607421875	lower	../fonts/zerothre.ttf
2672712	START	n/a	LTP075	ltpFR	8	n/a	n/a	n/a	n/a	n/a	n/a	n/a	n/a	n/a	n/a	n/a	n/a	n/a	n/a	n/a
2673828	PROB	n/a	LTP075	ltpFR	8	n/a	n/a	n/a	n/a	n/a	n/a	17	2	9	6	n/a	n/a	n/a	n/a	n/a
2675887	PROB	n/a	LTP075	ltpFR	8	n/a	n/a	n/a	n/a	n/a	n/a	16	7	5	4	n/a	n/a	n/a	n/a	n/a
2677479	PROB	n/a	LTP075	ltpFR	8	n/a	n/a	n/a	n/a	n/a	n/a	19	7	4	8	n/a	n/a	n/a	n/a	n/a
2679295	PROB	n/a	LTP075	ltpFR	8	n/a	n/a	n/a	n/a	n/a	n/a	13	5	2	6	n/a	n/a	n/a	n/a	n/a
2681895	PROB	n/a	LTP075	ltpFR	8	n/a	n/a	n/a	n/a	n/a	n/a	18	6	9	3	n/a	n/a	n/a	n/a	n/a
2683695	PROB	n/a	LTP075	ltpFR	8	n/a	n/a	n/a	n/a	n/a	n/a	16	7	7	2	n/a	n/a	n/a	n/a	n/a
2684953	PROB	n/a	LTP075	ltpFR	8	n/a	n/a	n/a	n/a	n/a	n/a	19	4	6	9	n/a	n/a	n/a	n/a	n/a
2686870	PROB	n/a	LTP075	ltpFR	8	n/a	n/a	n/a	n/a	n/a	n/a	20	9	2	9	n/a	n/a	n/a	n/a	n/a
2688284	STOP	n/a	LTP075	ltpFR	8	n/a	n/a	n/a	n/a	n/a	n/a	n/a	n/a	n/a	n/a	n/a	n/a	n/a	n/a	n/a
2689611	WORD	wordpools/wasnorm_wordpool.txt	LTP075	ltpFR	8	12	0	ELBOW	520	n/a	0	n/a	0	0	0	0	0.5869140625	0.422607421875	lower	../fonts/zerothre.ttf
2692620	START	n/a	LTP075	ltpFR	8	n/a	n/a	n/a	n/a	n/a	n/a	n/a	n/a	n/a	n/a	n/a	n/a	n/a	n/a	n/a
2693586	PROB	n/a	LTP075	ltpFR	8	n/a	n/a	n/a	n/a	n/a	n/a	22	9	6	7	n/a	n/a	n/a	n/a	n/a
2695377	PROB	n/a	LTP075	ltpFR	8	n/a	n/a	n/a	n/a	n/a	n/a	11	1	3	7	n/a	n/a	n/a	n/a	n/a
2696602	PROB	n/a	LTP075	ltpFR	8	n/a	n/a	n/a	n/a	n/a	n/a	22	7	4	9	n/a	n/a	n/a	n/a	n/a
2698219	PROB	n/a	LTP075	ltpFR	8	n/a	n/a	n/a	n/a	n/a	n/a	10	7	2	1	n/a	n/a	n/a	n/a	n/a
2699619	PROB	n/a	LTP075	ltpFR	8	n/a	n/a	n/a	n/a	n/a	n/a	18	6	8	4	n/a	n/a	n/a	n/a	n/a
2701385	PROB	n/a	LTP075	ltpFR	8	n/a	n/a	n/a	n/a	n/a	n/a	12	3	8	1	n/a	n/a	n/a	n/a	n/a
2703052	PROB	n/a	LTP075	ltpFR	8	n/a	n/a	n/a	n/a	n/a	n/a	14	4	6	4	n/a	n/a	n/a	n/a	n/a
2704518	PROB	n/a	LTP075	ltpFR	8	n/a	n/a	n/a	n/a	n/a	n/a	16	6	1	9	n/a	n/a	n/a	n/a	n/a
2706160	PROB	n/a	LTP075	ltpFR	8	n/a	n/a	n/a	n/a	n/a	n/a	12	8	3	1	n/a	n/a	n/a	n/a	n/a
2708044	STOP	n/a	LTP075	ltpFR	8	n/a	n/a	n/a	n/a	n/a	n/a	n/a	n/a	n/a	n/a	n/a	n/a	n/a	n/a	n/a
2709460	WORD	wordpools/wasnorm_wordpool.txt	LTP075	ltpFR	8	12	1	MOUSE	925	n/a	1	n/a	0	0	0	1	0.412841796875	0.57763671875	upper	../fonts/amplitud.ttf
2712468	START	n/a	LTP075	ltpFR	8	n/a	n/a	n/a	n/a	n/a	n/a	n/a	n/a	n/a	n/a	n/a	n/a	n/a	n/a	n/a
2713501	PROB	n/a	LTP075	ltpFR	8	n/a	n/a	n/a	n/a	n/a	n/a	23	8	9	7	n/a	n/a	n/a	n/a	n/a
2716109	PROB	n/a	LTP075	ltpFR	8	n/a	n/a	n/a	n/a	n/a	n/a	25	7	7	9	n/a	n/a	n/a	n/a	n/a
2719184	PROB	n/a	LTP075	ltpFR	8	n/a	n/a	n/a	n/a	n/a	n/a	8	5	2	1	n/a	n/a	n/a	n/a	n/a
2720601	PROB	n/a	LTP075	ltpFR	8	n/a	n/a	n/a	n/a	n/a	n/a	13	3	9	1	n/a	n/a	n/a	n/a	n/a
2722292	PROB	n/a	LTP075	ltpFR	8	n/a	n/a	n/a	n/a	n/a	n/a	7	1	3	3	n/a	n/a	n/a	n/a	n/a
2723509	PROB	n/a	LTP075	ltpFR	8	n/a	n/a	n/a	n/a	n/a	n/a	19	4	9	6	n/a	n/a	n/a	n/a	n/a
2726175	PROB	n/a	LTP075	ltpFR	8	n/a	n/a	n/a	n/a	n/a	n/a	11	7	2	2	n/a	n/a	n/a	n/a	n/a
2727652	STOP	n/a	LTP075	ltpFR	8	n/a	n/a	n/a	n/a	n/a	n/a	n/a	n/a	n/a	n/a	n/a	n/a	n/a	n/a	n/a
2729292	WORD	wordpools/wasnorm_wordpool.txt	LTP075	ltpFR	8	12	1	JUG	762	n/a	0	n/a	0	0	0	1	0.412841796875	0.57763671875	upper	../fonts/amplitud.ttf
2732300	START	n/a	LTP075	ltpFR	8	n/a	n/a	n/a	n/a	n/a	n/a	n/a	n/a	n/a	n/a	n/a	n/a	n/a	n/a	n/a
2733175	PROB	n/a	LTP075	ltpFR	8	n/a	n/a	n/a	n/a	n/a	n/a	8	1	6	1	n/a	n/a	n/a	n/a	n/a
2734500	PROB	n/a	LTP075	ltpFR	8	n/a	n/a	n/a	n/a	n/a	n/a	10	6	2	2	n/a	n/a	n/a	n/a	n/a
2736058	PROB	n/a	LTP075	ltpFR	8	n/a	n/a	n/a	n/a	n/a	n/a	12	7	4	1	n/a	n/a	n/a	n/a	n/a
2737798	PROB	n/a	LTP075	ltpFR	8	n/a	n/a	n/a	n/a	n/a	n/a	20	6	5	9	n/a	n/a	n/a	n/a	n/a
2741141	PROB	n/a	LTP075	ltpFR	8	n/a	n/a	n/a	n/a	n/a	n/a	18	8	8	2	n/a	n/a	n/a	n/a	n/a
2742482	PROB	n/a	LTP075	ltpFR	8	n/a	n/a	n/a	n/a	n/a	n/a	12	2	4	6	n/a	n/a	n/a	n/a	n/a
2743756	PROB	n/a	LTP075	ltpFR	8	n/a	n/a	n/a	n/a	n/a	n/a	11	5	3	3	n/a	n/a	n/a	n/a	n/a
2745432	PROB	n/a	LTP075	ltpFR	8	n/a	n/a	n/a	n/a	n/a	n/a	20	8	9	3	n/a	n/a	n/a	n/a	n/a
2747876	STOP	n/a	LTP075	ltpFR	8	n/a	n/a	n/a	n/a	n/a	n/a	n/a	n/a	n/a	n/a	n/a	n/a	n/a	n/a	n/a
2749182	WORD	wordpools/wasnorm_wordpool.txt	LTP075	ltpFR	8	12	1	RIVER	1194	n/a	0	n/a	0	0	0	1	0.412841796875	0.57763671875	upper	../fonts/amplitud.ttf
2752190	START	n/a	LTP075	ltpFR	8	n/a	n/a	n/a	n/a	n/a	n/a	n/a	n/a	n/a	n/a	n/a	n/a	n/a	n/a	n/a
2753381	PROB	n/a	LTP075	ltpFR	8	n/a	n/a	n/a	n/a	n/a	n/a	13	4	6	3	n/a	n/a	n/a	n/a	n/a
2756123	PROB	n/a	LTP075	ltpFR	8	n/a	n/a	n/a	n/a	n/a	n/a	9	6	2	1	n/a	n/a	n/a	n/a	n/a
2757473	PROB	n/a	LTP075	ltpFR	8	n/a	n/a	n/a	n/a	n/a	n/a	13	3	8	2	n/a	n/a	n/a	n/a	n/a
2759348	PROB	n/a	LTP075	ltpFR	8	n/a	n/a	n/a	n/a	n/a	n/a	18	5	7	6	n/a	n/a	n/a	n/a	n/a
2760864	PROB	n/a	LTP075	ltpFR	8	n/a	n/a	n/a	n/a	n/a	n/a	17	7	5	5	n/a	n/a	n/a	n/a	n/a
2762173	PROB	n/a	LTP075	ltpFR	8	n/a	n/a	n/a	n/a	n/a	n/a	17	3	8	6	n/a	n/a	n/a	n/a	n/a
2764222	PROB	n/a	LTP075	ltpFR	8	n/a	n/a	n/a	n/a	n/a	n/a	18	6	7	5	n/a	n/a	n/a	n/a	n/a
2765897	PROB	n/a	LTP075	ltpFR	8	n/a	n/a	n/a	n/a	n/a	n/a	22	6	8	8	n/a	n/a	n/a	n/a	n/a
2767228	STOP	n/a	LTP075	ltpFR	8	n/a	n/a	n/a	n/a	n/a	n/a	n/a	n/a	n/a	n/a	n/a	n/a	n/a	n/a	n/a
2769139	WORD	wordpools/wasnorm_wordpool.txt	LTP075	ltpFR	8	12	1	DART	440	n/a	0	n/a	0	0	0	1	0.412841796875	0.57763671875	upper	../fonts/amplitud.ttf
2772147	START	n/a	LTP075	ltpFR	8	n/a	n/a	n/a	n/a	n/a	n/a	n/a	n/a	n/a	n/a	n/a	n/a	n/a	n/a	n/a
2773163	PROB	n/a	LTP075	ltpFR	8	n/a	n/a	n/a	n/a	n/a	n/a	23	8	8	7	n/a	n/a	n/a	n/a	n/a
2774804	PROB	n/a	LTP075	ltpFR	8	n/a	n/a	n/a	n/a	n/a	n/a	19	2	8	9	n/a	n/a	n/a	n/a	n/a
2776138	PROB	n/a	LTP075	ltpFR	8	n/a	n/a	n/a	n/a	n/a	n/a	13	4	2	7	n/a	n/a	n/a	n/a	n/a
2777787	PROB	n/a	LTP075	ltpFR	8	n/a	n/a	n/a	n/a	n/a	n/a	16	9	2	5	n/a	n/a	n/a	n/a	n/a
2779413	PROB	n/a	LTP075	ltpFR	8	n/a	n/a	n/a	n/a	n/a	n/a	22	9	8	5	n/a	n/a	n/a	n/a	n/a
2782096	PROB	n/a	LTP075	ltpFR	8	n/a	n/a	n/a	n/a	n/a	n/a	15	8	6	1	n/a	n/a	n/a	n/a	n/a
2783979	PROB	n/a	LTP075	ltpFR	8	n/a	n/a	n/a	n/a	n/a	n/a	8	2	5	1	n/a	n/a	n/a	n/a	n/a
2785271	PROB	n/a	LTP075	ltpFR	8	n/a	n/a	n/a	n/a	n/a	n/a	10	1	2	7	n/a	n/a	n/a	n/a	n/a
2786612	PROB	n/a	LTP075	ltpFR	8	n/a	n/a	n/a	n/a	n/a	n/a	20	3	9	8	n/a	n/a	n/a	n/a	n/a
2788100	STOP	n/a	LTP075	ltpFR	8	n/a	n/a	n/a	n/a	n/a	n/a	n/a	n/a	n/a	n/a	n/a	n/a	n/a	n/a	n/a
2789179	WORD	wordpools/wasnorm_wordpool.txt	LTP075	ltpFR	8	12	0	GUARD	667	n/a	1	n/a	0	0	0	0	0.5869140625	0.422607421875	lower	../fonts/zerothre.ttf
2792187	START	n/a	LTP075	ltpFR	8	n/a	n/a	n/a	n/a	n/a	n/a	n/a	n/a	n/a	n/a	n/a	n/a	n/a	n/a	n/a
2793162	PROB	n/a	LTP075	ltpFR	8	n/a	n/a	n/a	n/a	n/a	n/a	12	3	5	4	n/a	n/a	n/a	n/a	n/a
2795953	PROB	n/a	LTP075	ltpFR	8	n/a	n/a	n/a	n/a	n/a	n/a	19	8	2	9	n/a	n/a	n/a	n/a	n/a
2797353	PROB	n/a	LTP075	ltpFR	8	n/a	n/a	n/a	n/a	n/a	n/a	9	1	4	4	n/a	n/a	n/a	n/a	n/a
2799878	PROB	n/a	LTP075	ltpFR	8	n/a	n/a	n/a	n/a	n/a	n/a	19	8	2	9	n/a	n/a	n/a	n/a	n/a
2801161	PROB	n/a	LTP075	ltpFR	8	n/a	n/a	n/a	n/a	n/a	n/a	18	2	7	9	n/a	n/a	n/a	n/a	n/a
2803436	PROB	n/a	LTP075	ltpFR	8	n/a	n/a	n/a	n/a	n/a	n/a	120	7	4	9	n/a	n/a	n/a	n/a	n/a
2805486	PROB	n/a	LTP075	ltpFR	8	n/a	n/a	n/a	n/a	n/a	n/a	19	3	7	9	n/a	n/a	n/a	n/a	n/a
2806787	STOP	n/a	LTP075	ltpFR	8	n/a	n/a	n/a	n/a	n/a	n/a	n/a	n/a	n/a	n/a	n/a	n/a	n/a	n/a	n/a
2809136	WORD	wordpools/wasnorm_wordpool.txt	LTP075	ltpFR	8	12	0	SHOULDER	1294	n/a	0	n/a	0	0	0	0	0.5869140625	0.422607421875	lower	../fonts/zerothre.ttf
2812144	START	n/a	LTP075	ltpFR	8	n/a	n/a	n/a	n/a	n/a	n/a	n/a	n/a	n/a	n/a	n/a	n/a	n/a	n/a	n/a
2813277	PROB	n/a	LTP075	ltpFR	8	n/a	n/a	n/a	n/a	n/a	n/a	11	2	4	5	n/a	n/a	n/a	n/a	n/a
2814701	PROB	n/a	LTP075	ltpFR	8	n/a	n/a	n/a	n/a	n/a	n/a	15	1	9	5	n/a	n/a	n/a	n/a	n/a
2815751	PROB	n/a	LTP075	ltpFR	8	n/a	n/a	n/a	n/a	n/a	n/a	15	6	4	5	n/a	n/a	n/a	n/a	n/a
2816767	PROB	n/a	LTP075	ltpFR	8	n/a	n/a	n/a	n/a	n/a	n/a	12	5	1	6	n/a	n/a	n/a	n/a	n/a
2818560	PROB	n/a	LTP075	ltpFR	8	n/a	n/a	n/a	n/a	n/a	n/a	13	7	3	3	n/a	n/a	n/a	n/a	n/a
2819709	PROB	n/a	LTP075	ltpFR	8	n/a	n/a	n/a	n/a	n/a	n/a	16	5	7	4	n/a	n/a	n/a	n/a	n/a
2821885	PROB	n/a	LTP075	ltpFR	8	n/a	n/a	n/a	n/a	n/a	n/a	20	7	9	4	n/a	n/a	n/a	n/a	n/a
2824051	PROB	n/a	LTP075	ltpFR	8	n/a	n/a	n/a	n/a	n/a	n/a	20	8	6	8	n/a	n/a	n/a	n/a	n/a
2825643	PROB	n/a	LTP075	ltpFR	8	n/a	n/a	n/a	n/a	n/a	n/a	20	6	5	9	n/a	n/a	n/a	n/a	n/a
2827052	STOP	n/a	LTP075	ltpFR	8	n/a	n/a	n/a	n/a	n/a	n/a	n/a	n/a	n/a	n/a	n/a	n/a	n/a	n/a	n/a
2829918	REC_START	n/a	LTP075	ltpFR	8	12	n/a	n/a	n/a	n/a	n/a	n/a	0	0	0	n/a	n/a	n/a	n/a	n/a
2831175	REC_WORD	wordpools/wasnorm_wordpool.txt	LTP075	ltpFR	8	12	1	DART	440	n/a	0	n/a	0	0	0	n/a	n/a	n/a	n/a	n/a
2833445	REC_WORD	wordpools/wasnorm_wordpool.txt	LTP075	ltpFR	8	12	0	BASKET	95	n/a	0	n/a	0	0	0	n/a	n/a	n/a	n/a	n/a
2834782	REC_WORD	wordpools/wasnorm_wordpool.txt	LTP075	ltpFR	8	12	0	THUMB	1462	n/a	0	n/a	0	0	0	n/a	n/a	n/a	n/a	n/a
2837181	REC_WORD	wordpools/wasnorm_wordpool.txt	LTP075	ltpFR	8	12	0	SHOULDER	1294	n/a	0	n/a	0	0	0	n/a	n/a	n/a	n/a	n/a
2839735	REC_WORD	wordpools/wasnorm_wordpool.txt	LTP075	ltpFR	8	12	1	RIVER	1194	n/a	0	n/a	0	0	0	n/a	n/a	n/a	n/a	n/a
2844295	REC_WORD	wordpools/wasnorm_wordpool.txt	LTP075	ltpFR	8	12	1	DINOSAUR	469	n/a	0	n/a	0	0	0	n/a	n/a	n/a	n/a	n/a
2856178	REC_WORD	wordpools/wasnorm_wordpool.txt	LTP075	ltpFR	8	12	1	TRANSPLANT	1496	n/a	0	n/a	0	0	0	n/a	n/a	n/a	n/a	n/a
2905520	REST_REWET	n/a	LTP075	ltpFR	8	12	n/a	n/a	n/a	n/a	n/a	n/a	0	0	0	n/a	n/a	n/a	n/a	n/a
3374045	REC_START	n/a	LTP075	ltpFR	8	1	n/a	n/a	n/a	n/a	n/a	n/a	0	0	0	n/a	n/a	n/a	n/a	n/a
3374078	RECOG_TARGET	n/a	LTP075	ltpFR	8	1	0	PEANUT	1032	5	0	n/a	0	0	0	n/a	n/a	n/a	n/a	n/a
3375965	RECOG_RESP	n/a	LTP075	ltpFR	8	1	0	PEANUT	1032	n/a	0	n/a	0	0	0	n/a	n/a	n/a	n/a	n/a
3377422	RECOG_CONF	n/a	LTP075	ltpFR	8	1	0	PEANUT	1032	5	0	n/a	0	0	0	n/a	n/a	n/a	n/a	n/a
3379002	RECOG_LURE	n/a	LTP075	ltpFR	8	1	n/a	DIRECTOR	471	4	n/a	n/a	0	0	0	n/a	n/a	n/a	n/a	n/a
3380126	RECOG_RESP	n/a	LTP075	ltpFR	8	1	n/a	DIRECTOR	471	n/a	n/a	n/a	0	0	0	n/a	n/a	n/a	n/a	n/a
3381044	RECOG_CONF	n/a	LTP075	ltpFR	8	1	n/a	DIRECTOR	471	4	n/a	n/a	0	0	0	n/a	n/a	n/a	n/a	n/a
3382352	RECOG_TARGET	n/a	LTP075	ltpFR	8	1	0	CROSS	413	4	0	n/a	0	0	0	n/a	n/a	n/a	n/a	n/a
3383119	RECOG_RESP	n/a	LTP075	ltpFR	8	1	0	CROSS	413	n/a	0	n/a	0	0	0	n/a	n/a	n/a	n/a	n/a
3384087	RECOG_CONF	n/a	LTP075	ltpFR	8	1	0	CROSS	413	4	0	n/a	0	0	0	n/a	n/a	n/a	n/a	n/a
3385610	RECOG_LURE	n/a	LTP075	ltpFR	8	1	n/a	VAN	1548	4	n/a	n/a	0	0	0	n/a	n/a	n/a	n/a	n/a
3386382	RECOG_RESP	n/a	LTP075	ltpFR	8	1	n/a	VAN	1548	n/a	n/a	n/a	0	0	0	n/a	n/a	n/a	n/a	n/a
3387260	RECOG_CONF	n/a	LTP075	ltpFR	8	1	n/a	VAN	1548	4	n/a	n/a	0	0	0	n/a	n/a	n/a	n/a	n/a
3388560	RECOG_TARGET	n/a	LTP075	ltpFR	8	1	1	LUNG	850	4	1	n/a	0	0	0	n/a	n/a	n/a	n/a	n/a
3389335	RECOG_RESP	n/a	LTP075	ltpFR	8	1	1	LUNG	850	n/a	1	n/a	0	0	0	n/a	n/a	n/a	n/a	n/a
3390243	RECOG_CONF	n/a	LTP075	ltpFR	8	1	1	LUNG	850	4	1	n/a	0	0	0	n/a	n/a	n/a	n/a	n/a
3391543	RECOG_TARGET	n/a	LTP075	ltpFR	8	1	0	RAG	1160	4	0	n/a	0	0	0	n/a	n/a	n/a	n/a	n/a
3392199	RECOG_RESP	n/a	LTP075	ltpFR	8	1	0	RAG	1160	n/a	0	n/a	0	0	0	n/a	n/a	n/a	n/a	n/a
3393097	RECOG_CONF	n/a	LTP075	ltpFR	8	1	0	RAG	1160	4	0	n/a	0	0	0	n/a	n/a	n/a	n/a	n/a
3394484	RECOG_TARGET	n/a	LTP075	ltpFR	8	1	1	RAFT	1159	4	n/a	n/a	0	0	0	n/a	n/a	n/a	n/a	n/a
3395187	RECOG_RESP	n/a	LTP075	ltpFR	8	1	1	RAFT	1159	n/a	n/a	n/a	0	0	0	n/a	n/a	n/a	n/a	n/a
3396020	RECOG_CONF	n/a	LTP075	ltpFR	8	1	1	RAFT	1159	4	n/a	n/a	0	0	0	n/a	n/a	n/a	n/a	n/a
3397434	RECOG_LURE	n/a	LTP075	ltpFR	8	1	n/a	NIECE	952	4	n/a	n/a	0	0	0	n/a	n/a	n/a	n/a	n/a
3398165	RECOG_RESP	n/a	LTP075	ltpFR	8	1	n/a	NIECE	952	n/a	n/a	n/a	0	0	0	n/a	n/a	n/a	n/a	n/a
