mstime	trial_type	stim_file	subject	experiment	session	trial	item_name	item_num	list	answer	test_x	test_y	test_z
0	SESS_START	n/a	LTP273	ltpFR2	8	n/a	n/a	n/a	n/a	n/a	0	0	0
40507	START	n/a	LTP273	ltpFR2	8	n/a	n/a	n/a	-1	n/a	n/a	n/a	n/a
40556	PROB	n/a	LTP273	ltpFR2	8	n/a	n/a	n/a	-1	18	8	1	9
42581	PROB	n/a	LTP273	ltpFR2	8	n/a	n/a	n/a	-1	11	3	3	4
44471	PROB	n/a	LTP273	ltpFR2	8	n/a	n/a	n/a	-1	9	6	2	1
47181	PROB	n/a	LTP273	ltpFR2	8	n/a	n/a	n/a	-1	17	5	6	6
48920	PROB	n/a	LTP273	ltpFR2	8	n/a	n/a	n/a	-1	13	1	9	3
50594	PROB	n/a	LTP273	ltpFR2	8	n/a	n/a	n/a	-1	15	2	9	4
52472	STOP	n/a	LTP273	ltpFR2	8	n/a	n/a	n/a	-1	n/a	n/a	n/a	n/a
86897	WORD	wordpools/wasnorm_wordpool_576.txt	LTP273	ltpFR2	8	1	POISON	1096	n/a	n/a	0	0	0
89457	WORD	wordpools/wasnorm_wordpool_576.txt	LTP273	ltpFR2	8	1	CASKET	255	n/a	n/a	0	0	0
92112	WORD	wordpools/wasnorm_wordpool_576.txt	LTP273	ltpFR2	8	1	CLIMBER	323	n/a	n/a	0	0	0
94676	WORD	wordpools/wasnorm_wordpool_576.txt	LTP273	ltpFR2	8	1	SERVANT	1271	n/a	n/a	0	0	0
97404	WORD	wordpools/wasnorm_wordpool_576.txt	LTP273	ltpFR2	8	1	CORAL	378	n/a	n/a	0	0	0
100131	WORD	wordpools/wasnorm_wordpool_576.txt	LTP273	ltpFR2	8	1	SPONGE	1355	n/a	n/a	0	0	0
102790	WORD	wordpools/wasnorm_wordpool_576.txt	LTP273	ltpFR2	8	1	VALLEY	1545	n/a	n/a	0	0	0
105568	WORD	wordpools/wasnorm_wordpool_576.txt	LTP273	ltpFR2	8	1	LUGGAGE	847	n/a	n/a	0	0	0
108261	WORD	wordpools/wasnorm_wordpool_576.txt	LTP273	ltpFR2	8	1	SLUG	1329	n/a	n/a	0	0	0
111072	WORD	wordpools/wasnorm_wordpool_576.txt	LTP273	ltpFR2	8	1	LIPSTICK	829	n/a	n/a	0	0	0
113748	WORD	wordpools/wasnorm_wordpool_576.txt	LTP273	ltpFR2	8	1	PECAN	1036	n/a	n/a	0	0	0
116242	WORD	wordpools/wasnorm_wordpool_576.txt	LTP273	ltpFR2	8	1	MARKET	871	n/a	n/a	0	0	0
119019	WORD	wordpools/wasnorm_wordpool_576.txt	LTP273	ltpFR2	8	1	PLAYGROUND	1087	n/a	n/a	0	0	0
121562	WORD	wordpools/wasnorm_wordpool_576.txt	LTP273	ltpFR2	8	1	BRACES	164	n/a	n/a	0	0	0
123986	WORD	wordpools/wasnorm_wordpool_576.txt	LTP273	ltpFR2	8	1	BEEF	113	n/a	n/a	0	0	0
126708	WORD	wordpools/wasnorm_wordpool_576.txt	LTP273	ltpFR2	8	1	GARBAGE	622	n/a	n/a	0	0	0
129508	WORD	wordpools/wasnorm_wordpool_576.txt	LTP273	ltpFR2	8	1	MARINE	869	n/a	n/a	0	0	0
132235	WORD	wordpools/wasnorm_wordpool_576.txt	LTP273	ltpFR2	8	1	SHORTS	1293	n/a	n/a	0	0	0
134856	WORD	wordpools/wasnorm_wordpool_576.txt	LTP273	ltpFR2	8	1	DENIM	446	n/a	n/a	0	0	0
137299	WORD	wordpools/wasnorm_wordpool_576.txt	LTP273	ltpFR2	8	1	TORTOISE	1486	n/a	n/a	0	0	0
140065	WORD	wordpools/wasnorm_wordpool_576.txt	LTP273	ltpFR2	8	1	OUTFIT	988	n/a	n/a	0	0	0
142507	WORD	wordpools/wasnorm_wordpool_576.txt	LTP273	ltpFR2	8	1	MEAT	883	n/a	n/a	0	0	0
145029	WORD	wordpools/wasnorm_wordpool_576.txt	LTP273	ltpFR2	8	1	PEACH	1031	n/a	n/a	0	0	0
147576	WORD	wordpools/wasnorm_wordpool_576.txt	LTP273	ltpFR2	8	1	PUDDING	1139	n/a	n/a	0	0	0
149183	START	n/a	LTP273	ltpFR2	8	n/a	n/a	n/a	1	n/a	n/a	n/a	n/a
150113	DISTRACTOR	n/a	LTP273	ltpFR2	8	1	n/a	n/a	n/a	n/a	0	0	0
150131	PROB	n/a	LTP273	ltpFR2	8	n/a	n/a	n/a	1	14	3	9	2
153047	PROB	n/a	LTP273	ltpFR2	8	n/a	n/a	n/a	1	13	8	1	4
155083	PROB	n/a	LTP273	ltpFR2	8	n/a	n/a	n/a	1	9	1	3	5
156426	PROB	n/a	LTP273	ltpFR2	8	n/a	n/a	n/a	1	10	2	5	3
157842	PROB	n/a	LTP273	ltpFR2	8	n/a	n/a	n/a	1	23	6	8	7
159905	PROB	n/a	LTP273	ltpFR2	8	n/a	n/a	n/a	1	15	2	4	9
161362	PROB	n/a	LTP273	ltpFR2	8	n/a	n/a	n/a	1	17	4	7	6
162833	PROB	n/a	LTP273	ltpFR2	8	n/a	n/a	n/a	1	20	8	5	7
164540	PROB	n/a	LTP273	ltpFR2	8	n/a	n/a	n/a	1	21	7	9	5
166330	PROB	n/a	LTP273	ltpFR2	8	n/a	n/a	n/a	1	10	3	1	6
167351	PROB	n/a	LTP273	ltpFR2	8	n/a	n/a	n/a	1	13	9	2	2
168650	PROB	n/a	LTP273	ltpFR2	8	n/a	n/a	n/a	1	20	7	9	4
170190	PROB	n/a	LTP273	ltpFR2	8	n/a	n/a	n/a	1	19	9	9	1
171361	PROB	n/a	LTP273	ltpFR2	8	n/a	n/a	n/a	1	22	7	6	9
172560	STOP	n/a	LTP273	ltpFR2	8	n/a	n/a	n/a	1	n/a	n/a	n/a	n/a
174979	REC_START	n/a	LTP273	ltpFR2	8	1	n/a	n/a	n/a	n/a	0	0	0
175222	REC_WORD_VV	wordpools/wasnorm_wordpool_576.txt	LTP273	ltpFR2	8	1	<>	-1	n/a	n/a	0	0	0
175779	REC_WORD	wordpools/wasnorm_wordpool_576.txt	LTP273	ltpFR2	8	1	PEACH	1031	n/a	n/a	0	0	0
176718	REC_WORD	wordpools/wasnorm_wordpool_576.txt	LTP273	ltpFR2	8	1	PUDDING	1139	n/a	n/a	0	0	0
177715	REC_WORD	wordpools/wasnorm_wordpool_576.txt	LTP273	ltpFR2	8	1	CLIMBER	323	n/a	n/a	0	0	0
178535	REC_WORD	wordpools/wasnorm_wordpool_576.txt	LTP273	ltpFR2	8	1	SERVANT	1271	n/a	n/a	0	0	0
179794	REC_WORD	wordpools/wasnorm_wordpool_576.txt	LTP273	ltpFR2	8	1	POISON	1096	n/a	n/a	0	0	0
180909	REC_WORD	wordpools/wasnorm_wordpool_576.txt	LTP273	ltpFR2	8	1	CASKET	255	n/a	n/a	0	0	0
181945	REC_WORD	wordpools/wasnorm_wordpool_576.txt	LTP273	ltpFR2	8	1	PLAYGROUND	1087	n/a	n/a	0	0	0
183034	REC_WORD	wordpools/wasnorm_wordpool_576.txt	LTP273	ltpFR2	8	1	CORAL	378	n/a	n/a	0	0	0
186910	REC_WORD	wordpools/wasnorm_wordpool_576.txt	LTP273	ltpFR2	8	1	SPONGE	1355	n/a	n/a	0	0	0
188912	REC_WORD	wordpools/wasnorm_wordpool_576.txt	LTP273	ltpFR2	8	1	SLUG	1329	n/a	n/a	0	0	0
190255	REC_WORD	wordpools/wasnorm_wordpool_576.txt	LTP273	ltpFR2	8	1	LUGGAGE	847	n/a	n/a	0	0	0
208157	REC_WORD	wordpools/wasnorm_wordpool_576.txt	LTP273	ltpFR2	8	1	SERVANT	1271	n/a	n/a	0	0	0
266006	DISTRACTOR	n/a	LTP273	ltpFR2	8	2	n/a	n/a	n/a	n/a	0	0	0
266006	START	n/a	LTP273	ltpFR2	8	n/a	n/a	n/a	2	n/a	n/a	n/a	n/a
266056	PROB	n/a	LTP273	ltpFR2	8	n/a	n/a	n/a	2	18	7	2	9
268727	PROB	n/a	LTP273	ltpFR2	8	n/a	n/a	n/a	2	8	1	2	5
269831	PROB	n/a	LTP273	ltpFR2	8	n/a	n/a	n/a	2	15	6	3	6
271539	PROB	n/a	LTP273	ltpFR2	8	n/a	n/a	n/a	2	20	9	6	5
273617	PROB	n/a	LTP273	ltpFR2	8	n/a	n/a	n/a	2	16	5	8	3
275554	PROB	n/a	LTP273	ltpFR2	8	n/a	n/a	n/a	2	9	3	5	1
277545	PROB	n/a	LTP273	ltpFR2	8	n/a	n/a	n/a	2	17	7	8	2
279234	PROB	n/a	LTP273	ltpFR2	8	n/a	n/a	n/a	2	15	3	8	4
281664	PROB	n/a	LTP273	ltpFR2	8	n/a	n/a	n/a	2	9	3	1	5
282919	PROB	n/a	LTP273	ltpFR2	8	n/a	n/a	n/a	2	10	4	3	6
284258	PROB	n/a	LTP273	ltpFR2	8	n/a	n/a	n/a	2	16	1	9	6
285679	PROB	n/a	LTP273	ltpFR2	8	n/a	n/a	n/a	2	22	9	9	4
287231	PROB	n/a	LTP273	ltpFR2	8	n/a	n/a	n/a	2	17	5	4	8
288751	STOP	n/a	LTP273	ltpFR2	8	n/a	n/a	n/a	2	n/a	n/a	n/a	n/a
290882	WORD	wordpools/wasnorm_wordpool_576.txt	LTP273	ltpFR2	8	2	BLENDER	136	n/a	n/a	0	0	0
293455	WORD	wordpools/wasnorm_wordpool_576.txt	LTP273	ltpFR2	8	2	COOK	372	n/a	n/a	0	0	0
296182	WORD	wordpools/wasnorm_wordpool_576.txt	LTP273	ltpFR2	8	2	PASTA	1021	n/a	n/a	0	0	0
298723	WORD	wordpools/wasnorm_wordpool_576.txt	LTP273	ltpFR2	8	2	SHERIFF	1284	n/a	n/a	0	0	0
301167	WORD	wordpools/wasnorm_wordpool_576.txt	LTP273	ltpFR2	8	2	CHURCH	307	n/a	n/a	0	0	0
303915	WORD	wordpools/wasnorm_wordpool_576.txt	LTP273	ltpFR2	8	2	PISTOL	1075	n/a	n/a	0	0	0
306470	WORD	wordpools/wasnorm_wordpool_576.txt	LTP273	ltpFR2	8	2	OMELET	976	n/a	n/a	0	0	0
308933	WORD	wordpools/wasnorm_wordpool_576.txt	LTP273	ltpFR2	8	2	CONTRACT	368	n/a	n/a	0	0	0
311539	WORD	wordpools/wasnorm_wordpool_576.txt	LTP273	ltpFR2	8	2	RUST	1219	n/a	n/a	0	0	0
314288	WORD	wordpools/wasnorm_wordpool_576.txt	LTP273	ltpFR2	8	2	TAXI	1438	n/a	n/a	0	0	0
316842	WORD	wordpools/wasnorm_wordpool_576.txt	LTP273	ltpFR2	8	2	AGENT	10	n/a	n/a	0	0	0
319536	WORD	wordpools/wasnorm_wordpool_576.txt	LTP273	ltpFR2	8	2	CATTLE	261	n/a	n/a	0	0	0
322051	WORD	wordpools/wasnorm_wordpool_576.txt	LTP273	ltpFR2	8	2	ROOSTER	1209	n/a	n/a	0	0	0
324676	WORD	wordpools/wasnorm_wordpool_576.txt	LTP273	ltpFR2	8	2	SCALLOP	1242	n/a	n/a	0	0	0
327304	WORD	wordpools/wasnorm_wordpool_576.txt	LTP273	ltpFR2	8	2	POLICE	1098	n/a	n/a	0	0	0
329979	WORD	wordpools/wasnorm_wordpool_576.txt	LTP273	ltpFR2	8	2	WOMAN	1620	n/a	n/a	0	0	0
332490	WORD	wordpools/wasnorm_wordpool_576.txt	LTP273	ltpFR2	8	2	DAISY	435	n/a	n/a	0	0	0
335162	WORD	wordpools/wasnorm_wordpool_576.txt	LTP273	ltpFR2	8	2	VAGRANT	1544	n/a	n/a	0	0	0
337592	WORD	wordpools/wasnorm_wordpool_576.txt	LTP273	ltpFR2	8	2	TEMPLE	1448	n/a	n/a	0	0	0
340403	WORD	wordpools/wasnorm_wordpool_576.txt	LTP273	ltpFR2	8	2	UMPIRE	1535	n/a	n/a	0	0	0
343142	WORD	wordpools/wasnorm_wordpool_576.txt	LTP273	ltpFR2	8	2	RACKET	1155	n/a	n/a	0	0	0
345584	WORD	wordpools/wasnorm_wordpool_576.txt	LTP273	ltpFR2	8	2	PATIENT	1024	n/a	n/a	0	0	0
348266	WORD	wordpools/wasnorm_wordpool_576.txt	LTP273	ltpFR2	8	2	PUPPY	1144	n/a	n/a	0	0	0
350808	WORD	wordpools/wasnorm_wordpool_576.txt	LTP273	ltpFR2	8	2	HOUND	724	n/a	n/a	0	0	0
352415	START	n/a	LTP273	ltpFR2	8	n/a	n/a	n/a	3	n/a	n/a	n/a	n/a
353401	DISTRACTOR	n/a	LTP273	ltpFR2	8	2	n/a	n/a	n/a	n/a	0	0	0
353419	PROB	n/a	LTP273	ltpFR2	8	n/a	n/a	n/a	3	14	2	3	9
355388	PROB	n/a	LTP273	ltpFR2	8	n/a	n/a	n/a	3	23	7	8	8
357044	PROB	n/a	LTP273	ltpFR2	8	n/a	n/a	n/a	3	16	4	7	5
358232	PROB	n/a	LTP273	ltpFR2	8	n/a	n/a	n/a	3	18	9	7	2
359537	PROB	n/a	LTP273	ltpFR2	8	n/a	n/a	n/a	3	10	2	7	1
360774	PROB	n/a	LTP273	ltpFR2	8	n/a	n/a	n/a	3	12	3	8	1
362219	PROB	n/a	LTP273	ltpFR2	8	n/a	n/a	n/a	3	12	5	4	3
363519	PROB	n/a	LTP273	ltpFR2	8	n/a	n/a	n/a	3	17	7	9	1
364689	PROB	n/a	LTP273	ltpFR2	8	n/a	n/a	n/a	3	14	8	1	5
365860	PROB	n/a	LTP273	ltpFR2	8	n/a	n/a	n/a	3	19	7	8	4
367551	PROB	n/a	LTP273	ltpFR2	8	n/a	n/a	n/a	3	10	3	4	6
368604	PROB	n/a	LTP273	ltpFR2	8	n/a	n/a	n/a	3	13	3	9	1
370462	PROB	n/a	LTP273	ltpFR2	8	n/a	n/a	n/a	3	13	5	8	1
372519	PROB	n/a	LTP273	ltpFR2	8	n/a	n/a	n/a	3	15	2	5	8
373840	PROB	n/a	LTP273	ltpFR2	8	n/a	n/a	n/a	3	20	9	6	5
376304	STOP	n/a	LTP273	ltpFR2	8	n/a	n/a	n/a	3	n/a	n/a	n/a	n/a
378213	REC_START	n/a	LTP273	ltpFR2	8	2	n/a	n/a	n/a	n/a	0	0	0
378517	REC_WORD	wordpools/wasnorm_wordpool_576.txt	LTP273	ltpFR2	8	2	PUPPY	1144	n/a	n/a	0	0	0
379021	REC_WORD	wordpools/wasnorm_wordpool_576.txt	LTP273	ltpFR2	8	2	HOUND	724	n/a	n/a	0	0	0
379768	REC_WORD	wordpools/wasnorm_wordpool_576.txt	LTP273	ltpFR2	8	2	VAGRANT	1544	n/a	n/a	0	0	0
380677	REC_WORD	wordpools/wasnorm_wordpool_576.txt	LTP273	ltpFR2	8	2	CAPSULE	-1	n/a	n/a	0	0	0
469222	DISTRACTOR	n/a	LTP273	ltpFR2	8	3	n/a	n/a	n/a	n/a	0	0	0
469222	START	n/a	LTP273	ltpFR2	8	n/a	n/a	n/a	4	n/a	n/a	n/a	n/a
469272	PROB	n/a	LTP273	ltpFR2	8	n/a	n/a	n/a	4	11	4	3	3
470973	PROB	n/a	LTP273	ltpFR2	8	n/a	n/a	n/a	4	13	2	6	5
472818	PROB	n/a	LTP273	ltpFR2	8	n/a	n/a	n/a	4	12	2	6	4
473905	PROB	n/a	LTP273	ltpFR2	8	n/a	n/a	n/a	4	15	9	1	5
475022	PROB	n/a	LTP273	ltpFR2	8	n/a	n/a	n/a	4	12	3	6	3
476611	PROB	n/a	LTP273	ltpFR2	8	n/a	n/a	n/a	4	18	5	7	6
478423	PROB	n/a	LTP273	ltpFR2	8	n/a	n/a	n/a	4	8	2	4	2
481696	PROB	n/a	LTP273	ltpFR2	8	n/a	n/a	n/a	4	17	5	3	9
483119	PROB	n/a	LTP273	ltpFR2	8	n/a	n/a	n/a	4	18	7	6	5
484791	PROB	n/a	LTP273	ltpFR2	8	n/a	n/a	n/a	4	12	2	7	3
485879	PROB	n/a	LTP273	ltpFR2	8	n/a	n/a	n/a	4	12	4	3	5
487139	PROB	n/a	LTP273	ltpFR2	8	n/a	n/a	n/a	4	19	7	5	7
488590	PROB	n/a	LTP273	ltpFR2	8	n/a	n/a	n/a	4	11	1	5	5
489631	PROB	n/a	LTP273	ltpFR2	8	n/a	n/a	n/a	4	13	7	2	4
491489	PROB	n/a	LTP273	ltpFR2	8	n/a	n/a	n/a	4	17	9	1	7
492631	STOP	n/a	LTP273	ltpFR2	8	n/a	n/a	n/a	4	n/a	n/a	n/a	n/a
494199	WORD	wordpools/wasnorm_wordpool_576.txt	LTP273	ltpFR2	8	3	PADDLE	1000	n/a	n/a	0	0	0
497022	WORD	wordpools/wasnorm_wordpool_576.txt	LTP273	ltpFR2	8	3	TUBA	1515	n/a	n/a	0	0	0
499769	WORD	wordpools/wasnorm_wordpool_576.txt	LTP273	ltpFR2	8	3	GAZELLE	628	n/a	n/a	0	0	0
502246	WORD	wordpools/wasnorm_wordpool_576.txt	LTP273	ltpFR2	8	3	CROSS	413	n/a	n/a	0	0	0
504805	WORD	wordpools/wasnorm_wordpool_576.txt	LTP273	ltpFR2	8	3	DRIVER	499	n/a	n/a	0	0	0
507416	WORD	wordpools/wasnorm_wordpool_576.txt	LTP273	ltpFR2	8	3	LADDER	793	n/a	n/a	0	0	0
510104	WORD	wordpools/wasnorm_wordpool_576.txt	LTP273	ltpFR2	8	3	LADY	794	n/a	n/a	0	0	0
512668	WORD	wordpools/wasnorm_wordpool_576.txt	LTP273	ltpFR2	8	3	SISTER	1312	n/a	n/a	0	0	0
515362	WORD	wordpools/wasnorm_wordpool_576.txt	LTP273	ltpFR2	8	3	CONCERT	360	n/a	n/a	0	0	0
517854	WORD	wordpools/wasnorm_wordpool_576.txt	LTP273	ltpFR2	8	3	TROUT	1511	n/a	n/a	0	0	0
520298	WORD	wordpools/wasnorm_wordpool_576.txt	LTP273	ltpFR2	8	3	WRENCH	1625	n/a	n/a	0	0	0
522856	WORD	wordpools/wasnorm_wordpool_576.txt	LTP273	ltpFR2	8	3	PLIERS	1089	n/a	n/a	0	0	0
525612	WORD	wordpools/wasnorm_wordpool_576.txt	LTP273	ltpFR2	8	3	CRAB	397	n/a	n/a	0	0	0
528395	WORD	wordpools/wasnorm_wordpool_576.txt	LTP273	ltpFR2	8	3	PARROT	1015	n/a	n/a	0	0	0
530937	WORD	wordpools/wasnorm_wordpool_576.txt	LTP273	ltpFR2	8	3	INFANT	737	n/a	n/a	0	0	0
533598	WORD	wordpools/wasnorm_wordpool_576.txt	LTP273	ltpFR2	8	3	LODGE	839	n/a	n/a	0	0	0
536191	WORD	wordpools/wasnorm_wordpool_576.txt	LTP273	ltpFR2	8	3	QUEEN	1149	n/a	n/a	0	0	0
538812	WORD	wordpools/wasnorm_wordpool_576.txt	LTP273	ltpFR2	8	3	PRINCESS	1125	n/a	n/a	0	0	0
541272	WORD	wordpools/wasnorm_wordpool_576.txt	LTP273	ltpFR2	8	3	CARRIAGE	248	n/a	n/a	0	0	0
544054	WORD	wordpools/wasnorm_wordpool_576.txt	LTP273	ltpFR2	8	3	STICKER	1382	n/a	n/a	0	0	0
546775	WORD	wordpools/wasnorm_wordpool_576.txt	LTP273	ltpFR2	8	3	ROBIN	1199	n/a	n/a	0	0	0
549469	WORD	wordpools/wasnorm_wordpool_576.txt	LTP273	ltpFR2	8	3	CAFE	216	n/a	n/a	0	0	0
552285	WORD	wordpools/wasnorm_wordpool_576.txt	LTP273	ltpFR2	8	3	SCRIBBLE	1256	n/a	n/a	0	0	0
554777	WORD	wordpools/wasnorm_wordpool_576.txt	LTP273	ltpFR2	8	3	WAGON	1578	n/a	n/a	0	0	0
556384	START	n/a	LTP273	ltpFR2	8	n/a	n/a	n/a	5	n/a	n/a	n/a	n/a
557565	DISTRACTOR	n/a	LTP273	ltpFR2	8	3	n/a	n/a	n/a	n/a	0	0	0
557572	PROB	n/a	LTP273	ltpFR2	8	n/a	n/a	n/a	5	23	8	6	9
565368	PROB	n/a	LTP273	ltpFR2	8	n/a	n/a	n/a	5	18	7	4	7
567538	PROB	n/a	LTP273	ltpFR2	8	n/a	n/a	n/a	5	15	1	6	9
569294	PROB	n/a	LTP273	ltpFR2	8	n/a	n/a	n/a	5	12	5	5	2
570365	PROB	n/a	LTP273	ltpFR2	8	n/a	n/a	n/a	5	18	8	3	7
571352	PROB	n/a	LTP273	ltpFR2	8	n/a	n/a	n/a	5	18	8	4	6
572756	PROB	n/a	LTP273	ltpFR2	8	n/a	n/a	n/a	5	15	4	4	7
574547	PROB	n/a	LTP273	ltpFR2	8	n/a	n/a	n/a	5	10	1	1	8
575601	PROB	n/a	LTP273	ltpFR2	8	n/a	n/a	n/a	5	14	5	6	3
577112	PROB	n/a	LTP273	ltpFR2	8	n/a	n/a	n/a	5	8	5	2	1
578044	PROB	n/a	LTP273	ltpFR2	8	n/a	n/a	n/a	5	19	7	4	8
579488	STOP	n/a	LTP273	ltpFR2	8	n/a	n/a	n/a	5	n/a	n/a	n/a	n/a
582311	REC_START	n/a	LTP273	ltpFR2	8	3	n/a	n/a	n/a	n/a	0	0	0
584144	REC_WORD	wordpools/wasnorm_wordpool_576.txt	LTP273	ltpFR2	8	3	PADDLE	1000	n/a	n/a	0	0	0
584849	REC_WORD	wordpools/wasnorm_wordpool_576.txt	LTP273	ltpFR2	8	3	TUBA	1515	n/a	n/a	0	0	0
585582	REC_WORD	wordpools/wasnorm_wordpool_576.txt	LTP273	ltpFR2	8	3	PRINCESS	1125	n/a	n/a	0	0	0
586268	REC_WORD	wordpools/wasnorm_wordpool_576.txt	LTP273	ltpFR2	8	3	SISTER	1312	n/a	n/a	0	0	0
587150	REC_WORD	wordpools/wasnorm_wordpool_576.txt	LTP273	ltpFR2	8	3	QUEEN	1149	n/a	n/a	0	0	0
587945	REC_WORD	wordpools/wasnorm_wordpool_576.txt	LTP273	ltpFR2	8	3	CABIN	211	n/a	n/a	0	0	0
589224	REC_WORD	wordpools/wasnorm_wordpool_576.txt	LTP273	ltpFR2	8	3	CONCERT	360	n/a	n/a	0	0	0
591315	REC_WORD	wordpools/wasnorm_wordpool_576.txt	LTP273	ltpFR2	8	3	CROSS	413	n/a	n/a	0	0	0
592449	REC_WORD	wordpools/wasnorm_wordpool_576.txt	LTP273	ltpFR2	8	3	LADDER	793	n/a	n/a	0	0	0
601593	REC_WORD	wordpools/wasnorm_wordpool_576.txt	LTP273	ltpFR2	8	3	CRAB	397	n/a	n/a	0	0	0
673341	WORD	wordpools/wasnorm_wordpool_576.txt	LTP273	ltpFR2	8	4	PLAZA	1088	n/a	n/a	0	0	0
675883	WORD	wordpools/wasnorm_wordpool_576.txt	LTP273	ltpFR2	8	4	SNAIL	1332	n/a	n/a	0	0	0
678578	WORD	wordpools/wasnorm_wordpool_576.txt	LTP273	ltpFR2	8	4	FLASK	576	n/a	n/a	0	0	0
681149	WORD	wordpools/wasnorm_wordpool_576.txt	LTP273	ltpFR2	8	4	CHAMPAGNE	278	n/a	n/a	0	0	0
683791	WORD	wordpools/wasnorm_wordpool_576.txt	LTP273	ltpFR2	8	4	FOREHEAD	592	n/a	n/a	0	0	0
686603	WORD	wordpools/wasnorm_wordpool_576.txt	LTP273	ltpFR2	8	4	COTTAGE	384	n/a	n/a	0	0	0
689351	WORD	wordpools/wasnorm_wordpool_576.txt	LTP273	ltpFR2	8	4	JELLO	754	n/a	n/a	0	0	0
691810	WORD	wordpools/wasnorm_wordpool_576.txt	LTP273	ltpFR2	8	4	REPORT	1184	n/a	n/a	0	0	0
694387	WORD	wordpools/wasnorm_wordpool_576.txt	LTP273	ltpFR2	8	4	HORSE	719	n/a	n/a	0	0	0
697076	WORD	wordpools/wasnorm_wordpool_576.txt	LTP273	ltpFR2	8	4	COD	340	n/a	n/a	0	0	0
699623	WORD	wordpools/wasnorm_wordpool_576.txt	LTP273	ltpFR2	8	4	KEEPER	769	n/a	n/a	0	0	0
702300	WORD	wordpools/wasnorm_wordpool_576.txt	LTP273	ltpFR2	8	4	BOUQUET	157	n/a	n/a	0	0	0
704976	WORD	wordpools/wasnorm_wordpool_576.txt	LTP273	ltpFR2	8	4	BUREAU	199	n/a	n/a	0	0	0
707753	WORD	wordpools/wasnorm_wordpool_576.txt	LTP273	ltpFR2	8	4	CLOTHES	327	n/a	n/a	0	0	0
710498	WORD	wordpools/wasnorm_wordpool_576.txt	LTP273	ltpFR2	8	4	PLUTO	1092	n/a	n/a	0	0	0
713074	WORD	wordpools/wasnorm_wordpool_576.txt	LTP273	ltpFR2	8	4	PIMPLE	1071	n/a	n/a	0	0	0
715750	WORD	wordpools/wasnorm_wordpool_576.txt	LTP273	ltpFR2	8	4	AUTHOR	61	n/a	n/a	0	0	0
718456	WORD	wordpools/wasnorm_wordpool_576.txt	LTP273	ltpFR2	8	4	STALLION	1369	n/a	n/a	0	0	0
720919	WORD	wordpools/wasnorm_wordpool_576.txt	LTP273	ltpFR2	8	4	SWITCH	1422	n/a	n/a	0	0	0
723680	WORD	wordpools/wasnorm_wordpool_576.txt	LTP273	ltpFR2	8	4	LIGHTNING	820	n/a	n/a	0	0	0
726140	WORD	wordpools/wasnorm_wordpool_576.txt	LTP273	ltpFR2	8	4	FRECKLE	602	n/a	n/a	0	0	0
728615	WORD	wordpools/wasnorm_wordpool_576.txt	LTP273	ltpFR2	8	4	FLESH	579	n/a	n/a	0	0	0
731176	WORD	wordpools/wasnorm_wordpool_576.txt	LTP273	ltpFR2	8	4	PICNIC	1060	n/a	n/a	0	0	0
733651	WORD	wordpools/wasnorm_wordpool_576.txt	LTP273	ltpFR2	8	4	HERO	706	n/a	n/a	0	0	0
735258	START	n/a	LTP273	ltpFR2	8	n/a	n/a	n/a	6	n/a	n/a	n/a	n/a
736214	DISTRACTOR	n/a	LTP273	ltpFR2	8	4	n/a	n/a	n/a	n/a	0	0	0
736228	PROB	n/a	LTP273	ltpFR2	8	n/a	n/a	n/a	6	15	1	9	5
738002	PROB	n/a	LTP273	ltpFR2	8	n/a	n/a	n/a	6	11	6	3	2
740026	PROB	n/a	LTP273	ltpFR2	8	n/a	n/a	n/a	6	10	6	2	2
741013	PROB	n/a	LTP273	ltpFR2	8	n/a	n/a	n/a	6	16	7	5	4
742785	PROB	n/a	LTP273	ltpFR2	8	n/a	n/a	n/a	6	18	7	1	7
744070	PROB	n/a	LTP273	ltpFR2	8	n/a	n/a	n/a	6	20	5	6	9
746500	PROB	n/a	LTP273	ltpFR2	8	n/a	n/a	n/a	6	17	4	8	5
748520	PROB	n/a	LTP273	ltpFR2	8	n/a	n/a	n/a	6	15	5	7	3
749840	PROB	n/a	LTP273	ltpFR2	8	n/a	n/a	n/a	6	14	1	5	8
750961	PROB	n/a	LTP273	ltpFR2	8	n/a	n/a	n/a	6	8	4	2	4
751982	PROB	n/a	LTP273	ltpFR2	8	n/a	n/a	n/a	6	19	3	8	8
755968	PROB	n/a	LTP273	ltpFR2	8	n/a	n/a	n/a	6	10	4	3	3
757767	STOP	n/a	LTP273	ltpFR2	8	n/a	n/a	n/a	6	n/a	n/a	n/a	n/a
761085	REC_START	n/a	LTP273	ltpFR2	8	4	n/a	n/a	n/a	n/a	0	0	0
764062	REC_WORD_VV	wordpools/wasnorm_wordpool_576.txt	LTP273	ltpFR2	8	4	<>	-1	n/a	n/a	0	0	0
772607	REC_WORD	wordpools/wasnorm_wordpool_576.txt	LTP273	ltpFR2	8	4	FRECKLE	602	n/a	n/a	0	0	0
852115	WORD	wordpools/wasnorm_wordpool_576.txt	LTP273	ltpFR2	8	5	WINDOW	1611	n/a	n/a	0	0	0
854558	WORD	wordpools/wasnorm_wordpool_576.txt	LTP273	ltpFR2	8	5	HOSTESS	723	n/a	n/a	0	0	0
857034	WORD	wordpools/wasnorm_wordpool_576.txt	LTP273	ltpFR2	8	5	PILOT	1070	n/a	n/a	0	0	0
859659	WORD	wordpools/wasnorm_wordpool_576.txt	LTP273	ltpFR2	8	5	STUDENT	1395	n/a	n/a	0	0	0
862220	WORD	wordpools/wasnorm_wordpool_576.txt	LTP273	ltpFR2	8	5	TURKEY	1520	n/a	n/a	0	0	0
864997	WORD	wordpools/wasnorm_wordpool_576.txt	LTP273	ltpFR2	8	5	PARTNER	1017	n/a	n/a	0	0	0
867706	WORD	wordpools/wasnorm_wordpool_576.txt	LTP273	ltpFR2	8	5	WARDROBE	1587	n/a	n/a	0	0	0
870334	WORD	wordpools/wasnorm_wordpool_576.txt	LTP273	ltpFR2	8	5	SCARF	1246	n/a	n/a	0	0	0
872859	WORD	wordpools/wasnorm_wordpool_576.txt	LTP273	ltpFR2	8	5	MARSH	874	n/a	n/a	0	0	0
875470	WORD	wordpools/wasnorm_wordpool_576.txt	LTP273	ltpFR2	8	5	PUDDLE	1140	n/a	n/a	0	0	0
878225	WORD	wordpools/wasnorm_wordpool_576.txt	LTP273	ltpFR2	8	5	BROOK	177	n/a	n/a	0	0	0
880789	WORD	wordpools/wasnorm_wordpool_576.txt	LTP273	ltpFR2	8	5	GROUND	666	n/a	n/a	0	0	0
883378	WORD	wordpools/wasnorm_wordpool_576.txt	LTP273	ltpFR2	8	5	DANDRUFF	439	n/a	n/a	0	0	0
885808	WORD	wordpools/wasnorm_wordpool_576.txt	LTP273	ltpFR2	8	5	WORLD	1622	n/a	n/a	0	0	0
888485	WORD	wordpools/wasnorm_wordpool_576.txt	LTP273	ltpFR2	8	5	DAUGHTER	442	n/a	n/a	0	0	0
891007	WORD	wordpools/wasnorm_wordpool_576.txt	LTP273	ltpFR2	8	5	MOTOR	922	n/a	n/a	0	0	0
893471	WORD	wordpools/wasnorm_wordpool_576.txt	LTP273	ltpFR2	8	5	BRAKE	166	n/a	n/a	0	0	0
896030	WORD	wordpools/wasnorm_wordpool_576.txt	LTP273	ltpFR2	8	5	TROMBONE	1508	n/a	n/a	0	0	0
898606	WORD	wordpools/wasnorm_wordpool_576.txt	LTP273	ltpFR2	8	5	WHISTLE	1606	n/a	n/a	0	0	0
901049	WORD	wordpools/wasnorm_wordpool_576.txt	LTP273	ltpFR2	8	5	NECKLACE	940	n/a	n/a	0	0	0
903787	WORD	wordpools/wasnorm_wordpool_576.txt	LTP273	ltpFR2	8	5	COLLEGE	346	n/a	n/a	0	0	0
906436	WORD	wordpools/wasnorm_wordpool_576.txt	LTP273	ltpFR2	8	5	LAPEL	800	n/a	n/a	0	0	0
908978	WORD	wordpools/wasnorm_wordpool_576.txt	LTP273	ltpFR2	8	5	PORK	1108	n/a	n/a	0	0	0
911755	WORD	wordpools/wasnorm_wordpool_576.txt	LTP273	ltpFR2	8	5	FRIEND	606	n/a	n/a	0	0	0
913363	START	n/a	LTP273	ltpFR2	8	n/a	n/a	n/a	7	n/a	n/a	n/a	n/a
914529	DISTRACTOR	n/a	LTP273	ltpFR2	8	5	n/a	n/a	n/a	n/a	0	0	0
914545	PROB	n/a	LTP273	ltpFR2	8	n/a	n/a	n/a	7	9	3	4	2
916369	PROB	n/a	LTP273	ltpFR2	8	n/a	n/a	n/a	7	15	7	1	7
917507	PROB	n/a	LTP273	ltpFR2	8	n/a	n/a	n/a	7	13	9	4	1
918760	PROB	n/a	LTP273	ltpFR2	8	n/a	n/a	n/a	7	25	8	8	9
922012	PROB	n/a	LTP273	ltpFR2	8	n/a	n/a	n/a	7	12	6	2	4
924320	PROB	n/a	LTP273	ltpFR2	8	n/a	n/a	n/a	7	18	2	9	7
925921	PROB	n/a	LTP273	ltpFR2	8	n/a	n/a	n/a	7	11	1	6	4
927059	PROB	n/a	LTP273	ltpFR2	8	n/a	n/a	n/a	7	23	9	5	9
928898	PROB	n/a	LTP273	ltpFR2	8	n/a	n/a	n/a	7	23	8	8	7
932463	PROB	n/a	LTP273	ltpFR2	8	n/a	n/a	n/a	7	17	7	9	1
933717	PROB	n/a	LTP273	ltpFR2	8	n/a	n/a	n/a	7	10	8	1	1
934821	PROB	n/a	LTP273	ltpFR2	8	n/a	n/a	n/a	7	10	1	3	6
935729	PROB	n/a	LTP273	ltpFR2	8	n/a	n/a	n/a	7	10	1	2	7
936552	STOP	n/a	LTP273	ltpFR2	8	n/a	n/a	n/a	7	n/a	n/a	n/a	n/a
939206	REC_START	n/a	LTP273	ltpFR2	8	5	n/a	n/a	n/a	n/a	0	0	0
940238	REC_WORD	wordpools/wasnorm_wordpool_576.txt	LTP273	ltpFR2	8	5	DAUGHTER	442	n/a	n/a	0	0	0
940716	REC_WORD	wordpools/wasnorm_wordpool_576.txt	LTP273	ltpFR2	8	5	TROMBONE	1508	n/a	n/a	0	0	0
941512	REC_WORD	wordpools/wasnorm_wordpool_576.txt	LTP273	ltpFR2	8	5	NECKLACE	940	n/a	n/a	0	0	0
942216	REC_WORD	wordpools/wasnorm_wordpool_576.txt	LTP273	ltpFR2	8	5	WHISTLE	1606	n/a	n/a	0	0	0
944217	REC_WORD_VV	wordpools/wasnorm_wordpool_576.txt	LTP273	ltpFR2	8	5	<>	-1	n/a	n/a	0	0	0
1030253	DISTRACTOR	n/a	LTP273	ltpFR2	8	6	n/a	n/a	n/a	n/a	0	0	0
1030253	START	n/a	LTP273	ltpFR2	8	n/a	n/a	n/a	8	n/a	n/a	n/a	n/a
1030303	PROB	n/a	LTP273	ltpFR2	8	n/a	n/a	n/a	8	23	7	7	8
1032879	PROB	n/a	LTP273	ltpFR2	8	n/a	n/a	n/a	8	13	8	4	1
1034313	PROB	n/a	LTP273	ltpFR2	8	n/a	n/a	n/a	8	14	3	7	4
1035701	PROB	n/a	LTP273	ltpFR2	8	n/a	n/a	n/a	8	13	1	5	7
1037497	PROB	n/a	LTP273	ltpFR2	8	n/a	n/a	n/a	8	24	5	9	9
1039165	PROB	n/a	LTP273	ltpFR2	8	n/a	n/a	n/a	8	22	7	7	8
1041457	PROB	n/a	LTP273	ltpFR2	8	n/a	n/a	n/a	8	15	9	5	1
1042600	PROB	n/a	LTP273	ltpFR2	8	n/a	n/a	n/a	8	17	7	7	3
1044122	PROB	n/a	LTP273	ltpFR2	8	n/a	n/a	n/a	8	13	9	3	1
1045727	PROB	n/a	LTP273	ltpFR2	8	n/a	n/a	n/a	8	14	3	2	8
1047184	PROB	n/a	LTP273	ltpFR2	8	n/a	n/a	n/a	8	14	5	1	8
1048671	PROB	n/a	LTP273	ltpFR2	8	n/a	n/a	n/a	8	13	6	7	1
1050128	PROB	n/a	LTP273	ltpFR2	8	n/a	n/a	n/a	8	18	2	9	7
1052231	PROB	n/a	LTP273	ltpFR2	8	n/a	n/a	n/a	8	11	6	2	3
1053663	STOP	n/a	LTP273	ltpFR2	8	n/a	n/a	n/a	8	n/a	n/a	n/a	n/a
1055314	WORD	wordpools/wasnorm_wordpool_576.txt	LTP273	ltpFR2	8	6	COFFEE	341	n/a	n/a	0	0	0
1058108	WORD	wordpools/wasnorm_wordpool_576.txt	LTP273	ltpFR2	8	6	MACHINE	852	n/a	n/a	0	0	0
1060567	WORD	wordpools/wasnorm_wordpool_576.txt	LTP273	ltpFR2	8	6	DOLPHIN	483	n/a	n/a	0	0	0
1063144	WORD	wordpools/wasnorm_wordpool_576.txt	LTP273	ltpFR2	8	6	LEG	809	n/a	n/a	0	0	0
1065614	WORD	wordpools/wasnorm_wordpool_576.txt	LTP273	ltpFR2	8	6	TRUCK	1512	n/a	n/a	0	0	0
1068392	WORD	wordpools/wasnorm_wordpool_576.txt	LTP273	ltpFR2	8	6	INMATE	738	n/a	n/a	0	0	0
1071207	WORD	wordpools/wasnorm_wordpool_576.txt	LTP273	ltpFR2	8	6	POPCORN	1104	n/a	n/a	0	0	0
1073850	WORD	wordpools/wasnorm_wordpool_576.txt	LTP273	ltpFR2	8	6	PEANUT	1032	n/a	n/a	0	0	0
1076477	WORD	wordpools/wasnorm_wordpool_576.txt	LTP273	ltpFR2	8	6	GREASE	660	n/a	n/a	0	0	0
1078952	WORD	wordpools/wasnorm_wordpool_576.txt	LTP273	ltpFR2	8	6	FLIPPER	580	n/a	n/a	0	0	0
1081475	WORD	wordpools/wasnorm_wordpool_576.txt	LTP273	ltpFR2	8	6	BRANCH	168	n/a	n/a	0	0	0
1083921	WORD	wordpools/wasnorm_wordpool_576.txt	LTP273	ltpFR2	8	6	LUMBER	848	n/a	n/a	0	0	0
1086698	WORD	wordpools/wasnorm_wordpool_576.txt	LTP273	ltpFR2	8	6	EMPIRE	530	n/a	n/a	0	0	0
1089225	WORD	wordpools/wasnorm_wordpool_576.txt	LTP273	ltpFR2	8	6	GLASS	639	n/a	n/a	0	0	0
1091662	WORD	wordpools/wasnorm_wordpool_576.txt	LTP273	ltpFR2	8	6	BUNNY	198	n/a	n/a	0	0	0
1094094	WORD	wordpools/wasnorm_wordpool_576.txt	LTP273	ltpFR2	8	6	EYELASH	546	n/a	n/a	0	0	0
1096753	WORD	wordpools/wasnorm_wordpool_576.txt	LTP273	ltpFR2	8	6	BROTHER	179	n/a	n/a	0	0	0
1099375	WORD	wordpools/wasnorm_wordpool_576.txt	LTP273	ltpFR2	8	6	FOX	598	n/a	n/a	0	0	0
1101805	WORD	wordpools/wasnorm_wordpool_576.txt	LTP273	ltpFR2	8	6	TWISTER	1530	n/a	n/a	0	0	0
1104294	WORD	wordpools/wasnorm_wordpool_576.txt	LTP273	ltpFR2	8	6	IGLOO	734	n/a	n/a	0	0	0
1106941	WORD	wordpools/wasnorm_wordpool_576.txt	LTP273	ltpFR2	8	6	SPARROW	1347	n/a	n/a	0	0	0
1109663	WORD	wordpools/wasnorm_wordpool_576.txt	LTP273	ltpFR2	8	6	BRANDY	169	n/a	n/a	0	0	0
1112329	WORD	wordpools/wasnorm_wordpool_576.txt	LTP273	ltpFR2	8	6	COCKTAIL	338	n/a	n/a	0	0	0
1114971	WORD	wordpools/wasnorm_wordpool_576.txt	LTP273	ltpFR2	8	6	BUTCHER	203	n/a	n/a	0	0	0
1116579	START	n/a	LTP273	ltpFR2	8	n/a	n/a	n/a	9	n/a	n/a	n/a	n/a
1117384	DISTRACTOR	n/a	LTP273	ltpFR2	8	6	n/a	n/a	n/a	n/a	0	0	0
1117398	PROB	n/a	LTP273	ltpFR2	8	n/a	n/a	n/a	9	22	7	7	8
1120037	PROB	n/a	LTP273	ltpFR2	8	n/a	n/a	n/a	9	7	1	4	2
1122211	PROB	n/a	LTP273	ltpFR2	8	n/a	n/a	n/a	9	26	9	9	8
1123833	PROB	n/a	LTP273	ltpFR2	8	n/a	n/a	n/a	9	18	9	7	2
1125673	PROB	n/a	LTP273	ltpFR2	8	n/a	n/a	n/a	9	20	9	2	9
1127848	PROB	n/a	LTP273	ltpFR2	8	n/a	n/a	n/a	9	9	1	6	2
1130915	PROB	n/a	LTP273	ltpFR2	8	n/a	n/a	n/a	9	15	3	8	4
1133353	PROB	n/a	LTP273	ltpFR2	8	n/a	n/a	n/a	9	20	9	7	4
1135533	PROB	n/a	LTP273	ltpFR2	8	n/a	n/a	n/a	9	14	4	9	1
1136866	PROB	n/a	LTP273	ltpFR2	8	n/a	n/a	n/a	9	20	6	9	5
1138689	PROB	n/a	LTP273	ltpFR2	8	n/a	n/a	n/a	9	14	4	1	9
1139975	STOP	n/a	LTP273	ltpFR2	8	n/a	n/a	n/a	9	n/a	n/a	n/a	n/a
1142455	REC_START	n/a	LTP273	ltpFR2	8	6	n/a	n/a	n/a	n/a	0	0	0
1143168	REC_WORD	wordpools/wasnorm_wordpool_576.txt	LTP273	ltpFR2	8	6	BRANDY	169	n/a	n/a	0	0	0
1143979	REC_WORD	wordpools/wasnorm_wordpool_576.txt	LTP273	ltpFR2	8	6	COFFEE	341	n/a	n/a	0	0	0
1144732	REC_WORD	wordpools/wasnorm_wordpool_576.txt	LTP273	ltpFR2	8	6	MACHINE	852	n/a	n/a	0	0	0
1148271	REC_WORD	wordpools/wasnorm_wordpool_576.txt	LTP273	ltpFR2	8	6	IGLOO	734	n/a	n/a	0	0	0
1150271	REC_WORD	wordpools/wasnorm_wordpool_576.txt	LTP273	ltpFR2	8	6	INMATE	738	n/a	n/a	0	0	0
1151194	REC_WORD	wordpools/wasnorm_wordpool_576.txt	LTP273	ltpFR2	8	6	FOOT	590	n/a	n/a	0	0	0
1153528	REC_WORD	wordpools/wasnorm_wordpool_576.txt	LTP273	ltpFR2	8	6	BRANCH	168	n/a	n/a	0	0	0
1154988	REC_WORD	wordpools/wasnorm_wordpool_576.txt	LTP273	ltpFR2	8	6	DOLPHIN	483	n/a	n/a	0	0	0
1156560	REC_WORD	wordpools/wasnorm_wordpool_576.txt	LTP273	ltpFR2	8	6	FLIPPER	580	n/a	n/a	0	0	0
1160545	REC_WORD	wordpools/wasnorm_wordpool_576.txt	LTP273	ltpFR2	8	6	POPCORN	1104	n/a	n/a	0	0	0
1162413	REC_WORD	wordpools/wasnorm_wordpool_576.txt	LTP273	ltpFR2	8	6	PEANUT	1032	n/a	n/a	0	0	0
1163616	REC_WORD	wordpools/wasnorm_wordpool_576.txt	LTP273	ltpFR2	8	6	GREASE	660	n/a	n/a	0	0	0
1233536	WORD	wordpools/wasnorm_wordpool_576.txt	LTP273	ltpFR2	8	7	RECORD	1176	n/a	n/a	0	0	0
1236045	WORD	wordpools/wasnorm_wordpool_576.txt	LTP273	ltpFR2	8	7	TUNNEL	1519	n/a	n/a	0	0	0
1238616	WORD	wordpools/wasnorm_wordpool_576.txt	LTP273	ltpFR2	8	7	PAIL	1002	n/a	n/a	0	0	0
1241310	WORD	wordpools/wasnorm_wordpool_576.txt	LTP273	ltpFR2	8	7	STREAM	1392	n/a	n/a	0	0	0
1244071	WORD	wordpools/wasnorm_wordpool_576.txt	LTP273	ltpFR2	8	7	COWBOY	395	n/a	n/a	0	0	0
1246585	WORD	wordpools/wasnorm_wordpool_576.txt	LTP273	ltpFR2	8	7	SHELF	1280	n/a	n/a	0	0	0
1249362	WORD	wordpools/wasnorm_wordpool_576.txt	LTP273	ltpFR2	8	7	JOURNAL	760	n/a	n/a	0	0	0
1252173	WORD	wordpools/wasnorm_wordpool_576.txt	LTP273	ltpFR2	8	7	GRAVEL	659	n/a	n/a	0	0	0
1254865	WORD	wordpools/wasnorm_wordpool_576.txt	LTP273	ltpFR2	8	7	TRANSPLANT	1496	n/a	n/a	0	0	0
1257588	WORD	wordpools/wasnorm_wordpool_576.txt	LTP273	ltpFR2	8	7	SLIDE	1326	n/a	n/a	0	0	0
1260337	WORD	wordpools/wasnorm_wordpool_576.txt	LTP273	ltpFR2	8	7	GUITAR	670	n/a	n/a	0	0	0
1263030	WORD	wordpools/wasnorm_wordpool_576.txt	LTP273	ltpFR2	8	7	ANTLER	29	n/a	n/a	0	0	0
1265568	WORD	wordpools/wasnorm_wordpool_576.txt	LTP273	ltpFR2	8	7	HEART	697	n/a	n/a	0	0	0
1268329	WORD	wordpools/wasnorm_wordpool_576.txt	LTP273	ltpFR2	8	7	JURY	766	n/a	n/a	0	0	0
1271061	WORD	wordpools/wasnorm_wordpool_576.txt	LTP273	ltpFR2	8	7	BRIEFCASE	175	n/a	n/a	0	0	0
1273703	WORD	wordpools/wasnorm_wordpool_576.txt	LTP273	ltpFR2	8	7	CLOUD	328	n/a	n/a	0	0	0
1276280	WORD	wordpools/wasnorm_wordpool_576.txt	LTP273	ltpFR2	8	7	HEDGE	699	n/a	n/a	0	0	0
1279019	WORD	wordpools/wasnorm_wordpool_576.txt	LTP273	ltpFR2	8	7	JAPAN	749	n/a	n/a	0	0	0
1281450	WORD	wordpools/wasnorm_wordpool_576.txt	LTP273	ltpFR2	8	7	VELVET	1555	n/a	n/a	0	0	0
1284026	WORD	wordpools/wasnorm_wordpool_576.txt	LTP273	ltpFR2	8	7	ULCER	1533	n/a	n/a	0	0	0
1286802	WORD	wordpools/wasnorm_wordpool_576.txt	LTP273	ltpFR2	8	7	DRESSER	496	n/a	n/a	0	0	0
1289613	WORD	wordpools/wasnorm_wordpool_576.txt	LTP273	ltpFR2	8	7	STONE	1385	n/a	n/a	0	0	0
1292341	WORD	wordpools/wasnorm_wordpool_576.txt	LTP273	ltpFR2	8	7	COLONEL	348	n/a	n/a	0	0	0
1294966	WORD	wordpools/wasnorm_wordpool_576.txt	LTP273	ltpFR2	8	7	UNCLE	1536	n/a	n/a	0	0	0
1296574	START	n/a	LTP273	ltpFR2	8	n/a	n/a	n/a	10	n/a	n/a	n/a	n/a
1297454	DISTRACTOR	n/a	LTP273	ltpFR2	8	7	n/a	n/a	n/a	n/a	0	0	0
1297472	PROB	n/a	LTP273	ltpFR2	8	n/a	n/a	n/a	10	11	3	1	7
1299061	PROB	n/a	LTP273	ltpFR2	8	n/a	n/a	n/a	10	15	6	3	6
1300905	PROB	n/a	LTP273	ltpFR2	8	n/a	n/a	n/a	10	20	9	2	9
1303595	PROB	n/a	LTP273	ltpFR2	8	n/a	n/a	n/a	10	12	2	2	8
1304937	PROB	n/a	LTP273	ltpFR2	8	n/a	n/a	n/a	10	16	1	7	8
1307158	PROB	n/a	LTP273	ltpFR2	8	n/a	n/a	n/a	10	15	3	7	5
1308196	PROB	n/a	LTP273	ltpFR2	8	n/a	n/a	n/a	10	16	1	8	7
1310304	PROB	n/a	LTP273	ltpFR2	8	n/a	n/a	n/a	10	10	3	2	5
1311307	PROB	n/a	LTP273	ltpFR2	8	n/a	n/a	n/a	10	14	4	1	9
1313348	PROB	n/a	LTP273	ltpFR2	8	n/a	n/a	n/a	10	13	5	1	7
1314691	PROB	n/a	LTP273	ltpFR2	8	n/a	n/a	n/a	10	18	9	8	1
1315840	PROB	n/a	LTP273	ltpFR2	8	n/a	n/a	n/a	10	19	7	5	7
1317213	PROB	n/a	LTP273	ltpFR2	8	n/a	n/a	n/a	10	8	4	2	2
1318217	PROB	n/a	LTP273	ltpFR2	8	n/a	n/a	n/a	10	5	3	1	1
1319248	STOP	n/a	LTP273	ltpFR2	8	n/a	n/a	n/a	10	n/a	n/a	n/a	n/a
1322366	REC_START	n/a	LTP273	ltpFR2	8	7	n/a	n/a	n/a	n/a	0	0	0
1323384	REC_WORD	wordpools/wasnorm_wordpool_576.txt	LTP273	ltpFR2	8	7	ULCER	1533	n/a	n/a	0	0	0
1324337	REC_WORD	wordpools/wasnorm_wordpool_576.txt	LTP273	ltpFR2	8	7	TUNNEL	1519	n/a	n/a	0	0	0
1325202	REC_WORD	wordpools/wasnorm_wordpool_576.txt	LTP273	ltpFR2	8	7	PATH	1023	n/a	n/a	0	0	0
1326453	REC_WORD	wordpools/wasnorm_wordpool_576.txt	LTP273	ltpFR2	8	7	STREAM	1392	n/a	n/a	0	0	0
1327494	REC_WORD	wordpools/wasnorm_wordpool_576.txt	LTP273	ltpFR2	8	7	GRAVEL	659	n/a	n/a	0	0	0
1328421	REC_WORD	wordpools/wasnorm_wordpool_576.txt	LTP273	ltpFR2	8	7	PAIL	1002	n/a	n/a	0	0	0
1329153	REC_WORD	wordpools/wasnorm_wordpool_576.txt	LTP273	ltpFR2	8	7	SHELF	1280	n/a	n/a	0	0	0
1330233	REC_WORD	wordpools/wasnorm_wordpool_576.txt	LTP273	ltpFR2	8	7	COWBOY	395	n/a	n/a	0	0	0
1486506	WORD	wordpools/wasnorm_wordpool_576.txt	LTP273	ltpFR2	8	8	SPHINX	1349	n/a	n/a	0	0	0
1489295	WORD	wordpools/wasnorm_wordpool_576.txt	LTP273	ltpFR2	8	8	CAMEL	223	n/a	n/a	0	0	0
1491837	WORD	wordpools/wasnorm_wordpool_576.txt	LTP273	ltpFR2	8	8	EGYPT	519	n/a	n/a	0	0	0
1494285	WORD	wordpools/wasnorm_wordpool_576.txt	LTP273	ltpFR2	8	8	ASIA	46	n/a	n/a	0	0	0
1496877	WORD	wordpools/wasnorm_wordpool_576.txt	LTP273	ltpFR2	8	8	PIGMENT	1066	n/a	n/a	0	0	0
1499338	WORD	wordpools/wasnorm_wordpool_576.txt	LTP273	ltpFR2	8	8	WAITRESS	1581	n/a	n/a	0	0	0
1501930	WORD	wordpools/wasnorm_wordpool_576.txt	LTP273	ltpFR2	8	8	BANKER	84	n/a	n/a	0	0	0
1504557	WORD	wordpools/wasnorm_wordpool_576.txt	LTP273	ltpFR2	8	8	CANYON	235	n/a	n/a	0	0	0
1507279	WORD	wordpools/wasnorm_wordpool_576.txt	LTP273	ltpFR2	8	8	MEDAL	885	n/a	n/a	0	0	0
1509927	WORD	wordpools/wasnorm_wordpool_576.txt	LTP273	ltpFR2	8	8	AWARD	63	n/a	n/a	0	0	0
1512737	WORD	wordpools/wasnorm_wordpool_576.txt	LTP273	ltpFR2	8	8	MUMMY	932	n/a	n/a	0	0	0
1515427	WORD	wordpools/wasnorm_wordpool_576.txt	LTP273	ltpFR2	8	8	BLACKBOARD	133	n/a	n/a	0	0	0
1518242	WORD	wordpools/wasnorm_wordpool_576.txt	LTP273	ltpFR2	8	8	RIVER	1194	n/a	n/a	0	0	0
1520880	WORD	wordpools/wasnorm_wordpool_576.txt	LTP273	ltpFR2	8	8	AIRPORT	13	n/a	n/a	0	0	0
1523545	WORD	wordpools/wasnorm_wordpool_576.txt	LTP273	ltpFR2	8	8	MUFFIN	929	n/a	n/a	0	0	0
1526323	WORD	wordpools/wasnorm_wordpool_576.txt	LTP273	ltpFR2	8	8	SNACK	1331	n/a	n/a	0	0	0
1528915	WORD	wordpools/wasnorm_wordpool_576.txt	LTP273	ltpFR2	8	8	JUDGE	761	n/a	n/a	0	0	0
1531608	WORD	wordpools/wasnorm_wordpool_576.txt	LTP273	ltpFR2	8	8	MAPLE	866	n/a	n/a	0	0	0
1534169	WORD	wordpools/wasnorm_wordpool_576.txt	LTP273	ltpFR2	8	8	SHRUB	1299	n/a	n/a	0	0	0
1536823	WORD	wordpools/wasnorm_wordpool_576.txt	LTP273	ltpFR2	8	8	BLUEPRINT	142	n/a	n/a	0	0	0
1539455	WORD	wordpools/wasnorm_wordpool_576.txt	LTP273	ltpFR2	8	8	DRINK	498	n/a	n/a	0	0	0
1541998	WORD	wordpools/wasnorm_wordpool_576.txt	LTP273	ltpFR2	8	8	JEANS	752	n/a	n/a	0	0	0
1544474	WORD	wordpools/wasnorm_wordpool_576.txt	LTP273	ltpFR2	8	8	PASTRY	1022	n/a	n/a	0	0	0
1546916	WORD	wordpools/wasnorm_wordpool_576.txt	LTP273	ltpFR2	8	8	STOMACH	1384	n/a	n/a	0	0	0
1548523	START	n/a	LTP273	ltpFR2	8	n/a	n/a	n/a	11	n/a	n/a	n/a	n/a
1549336	DISTRACTOR	n/a	LTP273	ltpFR2	8	8	n/a	n/a	n/a	n/a	0	0	0
1549343	PROB	n/a	LTP273	ltpFR2	8	n/a	n/a	n/a	11	11	2	4	5
1551763	PROB	n/a	LTP273	ltpFR2	8	n/a	n/a	n/a	11	14	4	4	6
1553804	PROB	n/a	LTP273	ltpFR2	8	n/a	n/a	n/a	11	14	7	1	6
1555394	PROB	n/a	LTP273	ltpFR2	8	n/a	n/a	n/a	11	13	4	2	7
1557268	PROB	n/a	LTP273	ltpFR2	8	n/a	n/a	n/a	11	14	5	6	3
1559726	PROB	n/a	LTP273	ltpFR2	8	n/a	n/a	n/a	11	17	2	6	9
1561350	PROB	n/a	LTP273	ltpFR2	8	n/a	n/a	n/a	11	9	2	5	2
1562521	PROB	n/a	LTP273	ltpFR2	8	n/a	n/a	n/a	11	6	2	3	1
1563708	PROB	n/a	LTP273	ltpFR2	8	n/a	n/a	n/a	11	18	8	4	6
1564946	PROB	n/a	LTP273	ltpFR2	8	n/a	n/a	n/a	11	22	6	8	8
1566752	PROB	n/a	LTP273	ltpFR2	8	n/a	n/a	n/a	11	17	6	8	3
1568643	PROB	n/a	LTP273	ltpFR2	8	n/a	n/a	n/a	11	15	7	4	7
1572523	STOP	n/a	LTP273	ltpFR2	8	n/a	n/a	n/a	11	n/a	n/a	n/a	n/a
1574271	REC_START	n/a	LTP273	ltpFR2	8	8	n/a	n/a	n/a	n/a	0	0	0
1575196	REC_WORD_VV	wordpools/wasnorm_wordpool_576.txt	LTP273	ltpFR2	8	8	<>	-1	n/a	n/a	0	0	0
1577880	REC_WORD	wordpools/wasnorm_wordpool_576.txt	LTP273	ltpFR2	8	8	PASTRY	1022	n/a	n/a	0	0	0
1578839	REC_WORD	wordpools/wasnorm_wordpool_576.txt	LTP273	ltpFR2	8	8	SPHINX	1349	n/a	n/a	0	0	0
1580855	REC_WORD	wordpools/wasnorm_wordpool_576.txt	LTP273	ltpFR2	8	8	EGYPT	519	n/a	n/a	0	0	0
1581968	REC_WORD	wordpools/wasnorm_wordpool_576.txt	LTP273	ltpFR2	8	8	CAMEL	223	n/a	n/a	0	0	0
1583337	REC_WORD	wordpools/wasnorm_wordpool_576.txt	LTP273	ltpFR2	8	8	MUMMY	932	n/a	n/a	0	0	0
1584458	REC_WORD	wordpools/wasnorm_wordpool_576.txt	LTP273	ltpFR2	8	8	WAITRESS	1581	n/a	n/a	0	0	0
1585894	REC_WORD	wordpools/wasnorm_wordpool_576.txt	LTP273	ltpFR2	8	8	WAITRESS	1581	n/a	n/a	0	0	0
1587038	REC_WORD	wordpools/wasnorm_wordpool_576.txt	LTP273	ltpFR2	8	8	CANYON	235	n/a	n/a	0	0	0
1588687	REC_WORD	wordpools/wasnorm_wordpool_576.txt	LTP273	ltpFR2	8	8	BLACKBOARD	133	n/a	n/a	0	0	0
1593644	REC_WORD	wordpools/wasnorm_wordpool_576.txt	LTP273	ltpFR2	8	8	PIGMENT	1066	n/a	n/a	0	0	0
1599575	REC_WORD	wordpools/wasnorm_wordpool_576.txt	LTP273	ltpFR2	8	8	ASIA	46	n/a	n/a	0	0	0
1651026	REST_REWET	n/a	LTP273	ltpFR2	8	8	n/a	n/a	n/a	n/a	0	0	0
2019481	DISTRACTOR	n/a	LTP273	ltpFR2	8	9	n/a	n/a	n/a	n/a	0	0	0
2019482	START	n/a	LTP273	ltpFR2	8	n/a	n/a	n/a	12	n/a	n/a	n/a	n/a
2019531	PROB	n/a	LTP273	ltpFR2	8	n/a	n/a	n/a	12	18	9	3	6
2021539	PROB	n/a	LTP273	ltpFR2	8	n/a	n/a	n/a	12	13	7	4	2
2023107	PROB	n/a	LTP273	ltpFR2	8	n/a	n/a	n/a	12	19	9	9	1
2024795	PROB	n/a	LTP273	ltpFR2	8	n/a	n/a	n/a	12	11	5	2	4
2026837	PROB	n/a	LTP273	ltpFR2	8	n/a	n/a	n/a	12	16	6	9	1
2027907	PROB	n/a	LTP273	ltpFR2	8	n/a	n/a	n/a	12	7	1	1	5
2028916	PROB	n/a	LTP273	ltpFR2	8	n/a	n/a	n/a	12	19	8	2	9
2031020	PROB	n/a	LTP273	ltpFR2	8	n/a	n/a	n/a	12	17	8	2	7
2032459	PROB	n/a	LTP273	ltpFR2	8	n/a	n/a	n/a	12	18	2	8	8
2033546	PROB	n/a	LTP273	ltpFR2	8	n/a	n/a	n/a	12	20	9	8	3
2035119	PROB	n/a	LTP273	ltpFR2	8	n/a	n/a	n/a	12	12	6	2	4
2039656	PROB	n/a	LTP273	ltpFR2	8	n/a	n/a	n/a	12	19	6	5	8
2041242	PROB	n/a	LTP273	ltpFR2	8	n/a	n/a	n/a	12	4	1	2	1
2042328	STOP	n/a	LTP273	ltpFR2	8	n/a	n/a	n/a	12	n/a	n/a	n/a	n/a
2044675	WORD	wordpools/wasnorm_wordpool_576.txt	LTP273	ltpFR2	8	9	BANK	83	n/a	n/a	0	0	0
2047152	WORD	wordpools/wasnorm_wordpool_576.txt	LTP273	ltpFR2	8	9	MESSAGE	888	n/a	n/a	0	0	0
2049644	WORD	wordpools/wasnorm_wordpool_576.txt	LTP273	ltpFR2	8	9	CELLAR	267	n/a	n/a	0	0	0
2052417	WORD	wordpools/wasnorm_wordpool_576.txt	LTP273	ltpFR2	8	9	SUNSET	1408	n/a	n/a	0	0	0
2055182	WORD	wordpools/wasnorm_wordpool_576.txt	LTP273	ltpFR2	8	9	DRUG	501	n/a	n/a	0	0	0
2057736	WORD	wordpools/wasnorm_wordpool_576.txt	LTP273	ltpFR2	8	9	NEUTRON	947	n/a	n/a	0	0	0
2060352	WORD	wordpools/wasnorm_wordpool_576.txt	LTP273	ltpFR2	8	9	PROTON	1132	n/a	n/a	0	0	0
2063096	WORD	wordpools/wasnorm_wordpool_576.txt	LTP273	ltpFR2	8	9	HANDBAG	684	n/a	n/a	0	0	0
2065733	WORD	wordpools/wasnorm_wordpool_576.txt	LTP273	ltpFR2	8	9	PUPIL	1143	n/a	n/a	0	0	0
2068545	WORD	wordpools/wasnorm_wordpool_576.txt	LTP273	ltpFR2	8	9	OINTMENT	974	n/a	n/a	0	0	0
2071026	WORD	wordpools/wasnorm_wordpool_576.txt	LTP273	ltpFR2	8	9	WRIST	1626	n/a	n/a	0	0	0
2073468	WORD	wordpools/wasnorm_wordpool_576.txt	LTP273	ltpFR2	8	9	HAND	683	n/a	n/a	0	0	0
2076279	WORD	wordpools/wasnorm_wordpool_576.txt	LTP273	ltpFR2	8	9	RATTLE	1170	n/a	n/a	0	0	0
2078899	WORD	wordpools/wasnorm_wordpool_576.txt	LTP273	ltpFR2	8	9	OYSTER	995	n/a	n/a	0	0	0
2081599	WORD	wordpools/wasnorm_wordpool_576.txt	LTP273	ltpFR2	8	9	BEAVER	109	n/a	n/a	0	0	0
2084142	WORD	wordpools/wasnorm_wordpool_576.txt	LTP273	ltpFR2	8	9	MONEY	908	n/a	n/a	0	0	0
2086695	WORD	wordpools/wasnorm_wordpool_576.txt	LTP273	ltpFR2	8	9	COIN	343	n/a	n/a	0	0	0
2089462	WORD	wordpools/wasnorm_wordpool_576.txt	LTP273	ltpFR2	8	9	GLOVE	642	n/a	n/a	0	0	0
2092038	WORD	wordpools/wasnorm_wordpool_576.txt	LTP273	ltpFR2	8	9	TABLET	1427	n/a	n/a	0	0	0
2094664	WORD	wordpools/wasnorm_wordpool_576.txt	LTP273	ltpFR2	8	9	QUARTER	1148	n/a	n/a	0	0	0
2097236	WORD	wordpools/wasnorm_wordpool_576.txt	LTP273	ltpFR2	8	9	BUCKET	184	n/a	n/a	0	0	0
2099661	WORD	wordpools/wasnorm_wordpool_576.txt	LTP273	ltpFR2	8	9	NOTEBOOK	959	n/a	n/a	0	0	0
2102389	WORD	wordpools/wasnorm_wordpool_576.txt	LTP273	ltpFR2	8	9	SILK	1307	n/a	n/a	0	0	0
2105104	WORD	wordpools/wasnorm_wordpool_576.txt	LTP273	ltpFR2	8	9	RELISH	1183	n/a	n/a	0	0	0
2106721	START	n/a	LTP273	ltpFR2	8	n/a	n/a	n/a	13	n/a	n/a	n/a	n/a
2107716	DISTRACTOR	n/a	LTP273	ltpFR2	8	9	n/a	n/a	n/a	n/a	0	0	0
2107730	PROB	n/a	LTP273	ltpFR2	8	n/a	n/a	n/a	13	7	4	2	1
2109415	PROB	n/a	LTP273	ltpFR2	8	n/a	n/a	n/a	13	16	1	9	6
2110953	PROB	n/a	LTP273	ltpFR2	8	n/a	n/a	n/a	13	15	4	7	4
2112398	PROB	n/a	LTP273	ltpFR2	8	n/a	n/a	n/a	13	14	2	9	3
2114300	PROB	n/a	LTP273	ltpFR2	8	n/a	n/a	n/a	13	12	3	7	2
2115522	PROB	n/a	LTP273	ltpFR2	8	n/a	n/a	n/a	13	11	1	8	2
2117446	PROB	n/a	LTP273	ltpFR2	8	n/a	n/a	n/a	13	17	8	4	5
2119135	PROB	n/a	LTP273	ltpFR2	8	n/a	n/a	n/a	13	18	9	2	7
2120858	PROB	n/a	LTP273	ltpFR2	8	n/a	n/a	n/a	13	7	3	3	1
2122080	PROB	n/a	LTP273	ltpFR2	8	n/a	n/a	n/a	13	21	8	7	6
2123668	PROB	n/a	LTP273	ltpFR2	8	n/a	n/a	n/a	13	11	2	7	2
2125476	PROB	n/a	LTP273	ltpFR2	8	n/a	n/a	n/a	13	8	3	1	5
2127433	PROB	n/a	LTP273	ltpFR2	8	n/a	n/a	n/a	13	13	5	3	5
2129264	STOP	n/a	LTP273	ltpFR2	8	n/a	n/a	n/a	13	n/a	n/a	n/a	n/a
2132541	REC_START	n/a	LTP273	ltpFR2	8	9	n/a	n/a	n/a	n/a	0	0	0
2133108	REC_WORD	wordpools/wasnorm_wordpool_576.txt	LTP273	ltpFR2	8	9	BANK	83	n/a	n/a	0	0	0
2133671	REC_WORD_VV	wordpools/wasnorm_wordpool_576.txt	LTP273	ltpFR2	8	9	<>	-1	n/a	n/a	0	0	0
2135033	REC_WORD	wordpools/wasnorm_wordpool_576.txt	LTP273	ltpFR2	8	9	RELISH	1183	n/a	n/a	0	0	0
2135892	REC_WORD	wordpools/wasnorm_wordpool_576.txt	LTP273	ltpFR2	8	9	CELLAR	267	n/a	n/a	0	0	0
2137235	REC_WORD	wordpools/wasnorm_wordpool_576.txt	LTP273	ltpFR2	8	9	OYSTER	995	n/a	n/a	0	0	0
2223633	WORD	wordpools/wasnorm_wordpool_576.txt	LTP273	ltpFR2	8	10	KNIFE	785	n/a	n/a	0	0	0
2226373	WORD	wordpools/wasnorm_wordpool_576.txt	LTP273	ltpFR2	8	10	POCKET	1093	n/a	n/a	0	0	0
2228853	WORD	wordpools/wasnorm_wordpool_576.txt	LTP273	ltpFR2	8	10	RAFT	1159	n/a	n/a	0	0	0
2231447	WORD	wordpools/wasnorm_wordpool_576.txt	LTP273	ltpFR2	8	10	JELLY	755	n/a	n/a	0	0	0
2234102	WORD	wordpools/wasnorm_wordpool_576.txt	LTP273	ltpFR2	8	10	DIME	466	n/a	n/a	0	0	0
2236728	WORD	wordpools/wasnorm_wordpool_576.txt	LTP273	ltpFR2	8	10	TUTU	1524	n/a	n/a	0	0	0
2239276	WORD	wordpools/wasnorm_wordpool_576.txt	LTP273	ltpFR2	8	10	SHOVEL	1295	n/a	n/a	0	0	0
2241713	WORD	wordpools/wasnorm_wordpool_576.txt	LTP273	ltpFR2	8	10	BLOUSE	139	n/a	n/a	0	0	0
2244295	WORD	wordpools/wasnorm_wordpool_576.txt	LTP273	ltpFR2	8	10	FUNGUS	614	n/a	n/a	0	0	0
2246954	WORD	wordpools/wasnorm_wordpool_576.txt	LTP273	ltpFR2	8	10	ELBOW	520	n/a	n/a	0	0	0
2249698	WORD	wordpools/wasnorm_wordpool_576.txt	LTP273	ltpFR2	8	10	BREAST	171	n/a	n/a	0	0	0
2252459	WORD	wordpools/wasnorm_wordpool_576.txt	LTP273	ltpFR2	8	10	MARROW	872	n/a	n/a	0	0	0
2255198	WORD	wordpools/wasnorm_wordpool_576.txt	LTP273	ltpFR2	8	10	BANJO	82	n/a	n/a	0	0	0
2257695	WORD	wordpools/wasnorm_wordpool_576.txt	LTP273	ltpFR2	8	10	HARP	689	n/a	n/a	0	0	0
2260255	WORD	wordpools/wasnorm_wordpool_576.txt	LTP273	ltpFR2	8	10	CASHIER	254	n/a	n/a	0	0	0
2262859	WORD	wordpools/wasnorm_wordpool_576.txt	LTP273	ltpFR2	8	10	CRIB	407	n/a	n/a	0	0	0
2265358	WORD	wordpools/wasnorm_wordpool_576.txt	LTP273	ltpFR2	8	10	CHILD	299	n/a	n/a	0	0	0
2268118	WORD	wordpools/wasnorm_wordpool_576.txt	LTP273	ltpFR2	8	10	OUTDOORS	987	n/a	n/a	0	0	0
2270694	WORD	wordpools/wasnorm_wordpool_576.txt	LTP273	ltpFR2	8	10	FLOWER	584	n/a	n/a	0	0	0
2273467	WORD	wordpools/wasnorm_wordpool_576.txt	LTP273	ltpFR2	8	10	SLIME	1327	n/a	n/a	0	0	0
2276082	WORD	wordpools/wasnorm_wordpool_576.txt	LTP273	ltpFR2	8	10	DASHBOARD	441	n/a	n/a	0	0	0
2278686	WORD	wordpools/wasnorm_wordpool_576.txt	LTP273	ltpFR2	8	10	PASSAGE	1019	n/a	n/a	0	0	0
2281385	WORD	wordpools/wasnorm_wordpool_576.txt	LTP273	ltpFR2	8	10	TOURIST	1488	n/a	n/a	0	0	0
2283939	WORD	wordpools/wasnorm_wordpool_576.txt	LTP273	ltpFR2	8	10	ZIPPER	1636	n/a	n/a	0	0	0
2285551	START	n/a	LTP273	ltpFR2	8	n/a	n/a	n/a	14	n/a	n/a	n/a	n/a
2286636	DISTRACTOR	n/a	LTP273	ltpFR2	8	10	n/a	n/a	n/a	n/a	0	0	0
2286654	PROB	n/a	LTP273	ltpFR2	8	n/a	n/a	n/a	14	22	7	9	6
2288507	PROB	n/a	LTP273	ltpFR2	8	n/a	n/a	n/a	14	17	4	8	5
2291267	PROB	n/a	LTP273	ltpFR2	8	n/a	n/a	n/a	14	7	3	1	3
2292556	PROB	n/a	LTP273	ltpFR2	8	n/a	n/a	n/a	14	19	7	3	9
2293742	PROB	n/a	LTP273	ltpFR2	8	n/a	n/a	n/a	14	8	1	6	1
2294796	PROB	n/a	LTP273	ltpFR2	8	n/a	n/a	n/a	14	17	8	3	6
2296387	PROB	n/a	LTP273	ltpFR2	8	n/a	n/a	n/a	14	20	5	7	8
2300268	PROB	n/a	LTP273	ltpFR2	8	n/a	n/a	n/a	14	25	9	8	8
2303196	PROB	n/a	LTP273	ltpFR2	8	n/a	n/a	n/a	14	23	5	9	9
2304667	PROB	n/a	LTP273	ltpFR2	8	n/a	n/a	n/a	14	12	1	5	6
2305905	PROB	n/a	LTP273	ltpFR2	8	n/a	n/a	n/a	14	9	6	2	1
2306959	PROB	n/a	LTP273	ltpFR2	8	n/a	n/a	n/a	14	18	8	6	4
2308031	PROB	n/a	LTP273	ltpFR2	8	n/a	n/a	n/a	14	16	3	5	8
2309336	STOP	n/a	LTP273	ltpFR2	8	n/a	n/a	n/a	14	n/a	n/a	n/a	n/a
2311427	REC_START	n/a	LTP273	ltpFR2	8	10	n/a	n/a	n/a	n/a	0	0	0
2313004	REC_WORD	wordpools/wasnorm_wordpool_576.txt	LTP273	ltpFR2	8	10	JELLY	755	n/a	n/a	0	0	0
2314306	REC_WORD	wordpools/wasnorm_wordpool_576.txt	LTP273	ltpFR2	8	10	DIME	466	n/a	n/a	0	0	0
2315435	REC_WORD	wordpools/wasnorm_wordpool_576.txt	LTP273	ltpFR2	8	10	RAFT	1159	n/a	n/a	0	0	0
2317010	REC_WORD	wordpools/wasnorm_wordpool_576.txt	LTP273	ltpFR2	8	10	BELLY	119	n/a	n/a	0	0	0
2402491	DISTRACTOR	n/a	LTP273	ltpFR2	8	11	n/a	n/a	n/a	n/a	0	0	0
2402492	START	n/a	LTP273	ltpFR2	8	n/a	n/a	n/a	15	n/a	n/a	n/a	n/a
2402542	PROB	n/a	LTP273	ltpFR2	8	n/a	n/a	n/a	15	6	2	2	2
2403891	PROB	n/a	LTP273	ltpFR2	8	n/a	n/a	n/a	15	14	2	5	7
2405515	PROB	n/a	LTP273	ltpFR2	8	n/a	n/a	n/a	15	17	5	8	4
2407443	PROB	n/a	LTP273	ltpFR2	8	n/a	n/a	n/a	15	14	8	1	5
2409813	PROB	n/a	LTP273	ltpFR2	8	n/a	n/a	n/a	15	20	7	7	6
2412228	PROB	n/a	LTP273	ltpFR2	8	n/a	n/a	n/a	15	16	8	4	4
2413900	PROB	n/a	LTP273	ltpFR2	8	n/a	n/a	n/a	15	16	5	7	4
2416071	PROB	n/a	LTP273	ltpFR2	8	n/a	n/a	n/a	15	18	8	6	4
2417113	PROB	n/a	LTP273	ltpFR2	8	n/a	n/a	n/a	15	25	7	9	9
2418418	PROB	n/a	LTP273	ltpFR2	8	n/a	n/a	n/a	15	19	2	9	8
2419889	PROB	n/a	LTP273	ltpFR2	8	n/a	n/a	n/a	15	23	6	8	9
2421530	PROB	n/a	LTP273	ltpFR2	8	n/a	n/a	n/a	15	13	5	2	4
2423215	PROB	n/a	LTP273	ltpFR2	8	n/a	n/a	n/a	15	22	8	6	6
2426488	STOP	n/a	LTP273	ltpFR2	8	n/a	n/a	n/a	15	n/a	n/a	n/a	n/a
2427669	WORD	wordpools/wasnorm_wordpool_576.txt	LTP273	ltpFR2	8	11	CHIPMUNK	304	n/a	n/a	0	0	0
2430397	WORD	wordpools/wasnorm_wordpool_576.txt	LTP273	ltpFR2	8	11	CLAMP	316	n/a	n/a	0	0	0
2433124	WORD	wordpools/wasnorm_wordpool_576.txt	LTP273	ltpFR2	8	11	ISLAND	745	n/a	n/a	0	0	0
2435682	WORD	wordpools/wasnorm_wordpool_576.txt	LTP273	ltpFR2	8	11	SUITCASE	1403	n/a	n/a	0	0	0
2438193	WORD	wordpools/wasnorm_wordpool_576.txt	LTP273	ltpFR2	8	11	SPOUSE	1358	n/a	n/a	0	0	0
2440998	WORD	wordpools/wasnorm_wordpool_576.txt	LTP273	ltpFR2	8	11	SIDEWALK	1303	n/a	n/a	0	0	0
2443646	WORD	wordpools/wasnorm_wordpool_576.txt	LTP273	ltpFR2	8	11	BIKE	125	n/a	n/a	0	0	0
2446206	WORD	wordpools/wasnorm_wordpool_576.txt	LTP273	ltpFR2	8	11	SHARK	1275	n/a	n/a	0	0	0
2449012	WORD	wordpools/wasnorm_wordpool_576.txt	LTP273	ltpFR2	8	11	SPOON	1357	n/a	n/a	0	0	0
2451642	WORD	wordpools/wasnorm_wordpool_576.txt	LTP273	ltpFR2	8	11	BISON	131	n/a	n/a	0	0	0
2454153	WORD	wordpools/wasnorm_wordpool_576.txt	LTP273	ltpFR2	8	11	DENTIST	447	n/a	n/a	0	0	0
2456962	WORD	wordpools/wasnorm_wordpool_576.txt	LTP273	ltpFR2	8	11	DRILL	497	n/a	n/a	0	0	0
2459634	WORD	wordpools/wasnorm_wordpool_576.txt	LTP273	ltpFR2	8	11	SLOPE	1328	n/a	n/a	0	0	0
2462267	WORD	wordpools/wasnorm_wordpool_576.txt	LTP273	ltpFR2	8	11	GALLON	618	n/a	n/a	0	0	0
2464703	WORD	wordpools/wasnorm_wordpool_576.txt	LTP273	ltpFR2	8	11	MAMMAL	861	n/a	n/a	0	0	0
2467252	WORD	wordpools/wasnorm_wordpool_576.txt	LTP273	ltpFR2	8	11	BURGLAR	200	n/a	n/a	0	0	0
2469911	WORD	wordpools/wasnorm_wordpool_576.txt	LTP273	ltpFR2	8	11	NURSE	963	n/a	n/a	0	0	0
2472438	WORD	wordpools/wasnorm_wordpool_576.txt	LTP273	ltpFR2	8	11	CHEMIST	292	n/a	n/a	0	0	0
2474892	WORD	wordpools/wasnorm_wordpool_576.txt	LTP273	ltpFR2	8	11	PADDING	999	n/a	n/a	0	0	0
2477507	WORD	wordpools/wasnorm_wordpool_576.txt	LTP273	ltpFR2	8	11	SUPPER	1411	n/a	n/a	0	0	0
2480117	WORD	wordpools/wasnorm_wordpool_576.txt	LTP273	ltpFR2	8	11	SERVER	1272	n/a	n/a	0	0	0
2482626	WORD	wordpools/wasnorm_wordpool_576.txt	LTP273	ltpFR2	8	11	SWORD	1423	n/a	n/a	0	0	0
2485170	WORD	wordpools/wasnorm_wordpool_576.txt	LTP273	ltpFR2	8	11	BLADE	134	n/a	n/a	0	0	0
2487723	WORD	wordpools/wasnorm_wordpool_576.txt	LTP273	ltpFR2	8	11	PEDAL	1037	n/a	n/a	0	0	0
2489336	START	n/a	LTP273	ltpFR2	8	n/a	n/a	n/a	16	n/a	n/a	n/a	n/a
2490321	DISTRACTOR	n/a	LTP273	ltpFR2	8	11	n/a	n/a	n/a	n/a	0	0	0
2490339	PROB	n/a	LTP273	ltpFR2	8	n/a	n/a	n/a	16	12	3	2	7
2492230	PROB	n/a	LTP273	ltpFR2	8	n/a	n/a	n/a	16	21	6	7	8
2493729	PROB	n/a	LTP273	ltpFR2	8	n/a	n/a	n/a	16	14	1	4	8
2495303	PROB	n/a	LTP273	ltpFR2	8	n/a	n/a	n/a	16	15	9	3	3
2496942	PROB	n/a	LTP273	ltpFR2	8	n/a	n/a	n/a	16	7	2	4	1
2499690	PROB	n/a	LTP273	ltpFR2	8	n/a	n/a	n/a	16	9	2	5	2
2501259	PROB	n/a	LTP273	ltpFR2	8	n/a	n/a	n/a	16	7	1	5	1
2502430	PROB	n/a	LTP273	ltpFR2	8	n/a	n/a	n/a	16	16	7	3	6
2503439	PROB	n/a	LTP273	ltpFR2	8	n/a	n/a	n/a	16	12	5	2	5
2504721	PROB	n/a	LTP273	ltpFR2	8	n/a	n/a	n/a	16	7	3	1	3
2505825	PROB	n/a	LTP273	ltpFR2	8	n/a	n/a	n/a	16	19	7	9	3
2507682	PROB	n/a	LTP273	ltpFR2	8	n/a	n/a	n/a	16	25	9	9	8
2509595	PROB	n/a	LTP273	ltpFR2	8	n/a	n/a	n/a	16	19	9	8	2
2513328	STOP	n/a	LTP273	ltpFR2	8	n/a	n/a	n/a	16	n/a	n/a	n/a	n/a
2515128	REC_START	n/a	LTP273	ltpFR2	8	11	n/a	n/a	n/a	n/a	0	0	0
2515566	REC_WORD	wordpools/wasnorm_wordpool_576.txt	LTP273	ltpFR2	8	11	SWEATER	1419	n/a	n/a	0	0	0
2518395	REC_WORD	wordpools/wasnorm_wordpool_576.txt	LTP273	ltpFR2	8	11	KNIFE	785	n/a	n/a	0	0	0
2523947	REC_WORD	wordpools/wasnorm_wordpool_576.txt	LTP273	ltpFR2	8	11	OUTDOORS	987	n/a	n/a	0	0	0
2525012	REC_WORD	wordpools/wasnorm_wordpool_576.txt	LTP273	ltpFR2	8	11	COAT	333	n/a	n/a	0	0	0
2606142	DISTRACTOR	n/a	LTP273	ltpFR2	8	12	n/a	n/a	n/a	n/a	0	0	0
2606143	START	n/a	LTP273	ltpFR2	8	n/a	n/a	n/a	17	n/a	n/a	n/a	n/a
2606192	PROB	n/a	LTP273	ltpFR2	8	n/a	n/a	n/a	17	415	4	6	5
2608713	PROB	n/a	LTP273	ltpFR2	8	n/a	n/a	n/a	17	22	7	9	6
2613080	PROB	n/a	LTP273	ltpFR2	8	n/a	n/a	n/a	17	16	3	8	5
2615861	PROB	n/a	LTP273	ltpFR2	8	n/a	n/a	n/a	17	12	1	3	8
2618372	PROB	n/a	LTP273	ltpFR2	8	n/a	n/a	n/a	17	9	6	2	1
2619371	PROB	n/a	LTP273	ltpFR2	8	n/a	n/a	n/a	17	13	1	6	6
2620358	PROB	n/a	LTP273	ltpFR2	8	n/a	n/a	n/a	17	14	2	8	2
2621378	PROB	n/a	LTP273	ltpFR2	8	n/a	n/a	n/a	17	17	7	4	6
2623006	PROB	n/a	LTP273	ltpFR2	8	n/a	n/a	n/a	17	13	1	2	9
2624306	PROB	n/a	LTP273	ltpFR2	8	n/a	n/a	n/a	17	15	1	8	6
2626051	PROB	n/a	LTP273	ltpFR2	8	n/a	n/a	n/a	17	20	9	7	4
2627518	PROB	n/a	LTP273	ltpFR2	8	n/a	n/a	n/a	17	19	9	3	7
2628584	STOP	n/a	LTP273	ltpFR2	8	n/a	n/a	n/a	17	n/a	n/a	n/a	n/a
2631203	WORD	wordpools/wasnorm_wordpool_576.txt	LTP273	ltpFR2	8	12	PRINCE	1124	n/a	n/a	0	0	0
2633623	WORD	wordpools/wasnorm_wordpool_576.txt	LTP273	ltpFR2	8	12	FIREPLACE	570	n/a	n/a	0	0	0
2636234	WORD	wordpools/wasnorm_wordpool_576.txt	LTP273	ltpFR2	8	12	CLAM	315	n/a	n/a	0	0	0
2638831	WORD	wordpools/wasnorm_wordpool_576.txt	LTP273	ltpFR2	8	12	PIANO	1057	n/a	n/a	0	0	0
2641342	WORD	wordpools/wasnorm_wordpool_576.txt	LTP273	ltpFR2	8	12	GRAPE	654	n/a	n/a	0	0	0
2643783	WORD	wordpools/wasnorm_wordpool_576.txt	LTP273	ltpFR2	8	12	CHAPEL	280	n/a	n/a	0	0	0
2646511	WORD	wordpools/wasnorm_wordpool_576.txt	LTP273	ltpFR2	8	12	CANDY	230	n/a	n/a	0	0	0
2649154	WORD	wordpools/wasnorm_wordpool_576.txt	LTP273	ltpFR2	8	12	FLEET	578	n/a	n/a	0	0	0
2651942	WORD	wordpools/wasnorm_wordpool_576.txt	LTP273	ltpFR2	8	12	ARMY	39	n/a	n/a	0	0	0
2654691	WORD	wordpools/wasnorm_wordpool_576.txt	LTP273	ltpFR2	8	12	PERFUME	1049	n/a	n/a	0	0	0
2657335	WORD	wordpools/wasnorm_wordpool_576.txt	LTP273	ltpFR2	8	12	WIDOW	1608	n/a	n/a	0	0	0
2660146	WORD	wordpools/wasnorm_wordpool_576.txt	LTP273	ltpFR2	8	12	LAVA	804	n/a	n/a	0	0	0
2662889	WORD	wordpools/wasnorm_wordpool_576.txt	LTP273	ltpFR2	8	12	PLATE	1086	n/a	n/a	0	0	0
2665649	WORD	wordpools/wasnorm_wordpool_576.txt	LTP273	ltpFR2	8	12	PREACHER	1119	n/a	n/a	0	0	0
2668394	WORD	wordpools/wasnorm_wordpool_576.txt	LTP273	ltpFR2	8	12	HUMAN	726	n/a	n/a	0	0	0
2670852	WORD	wordpools/wasnorm_wordpool_576.txt	LTP273	ltpFR2	8	12	BODY	145	n/a	n/a	0	0	0
2673607	WORD	wordpools/wasnorm_wordpool_576.txt	LTP273	ltpFR2	8	12	LAKE	796	n/a	n/a	0	0	0
2676240	WORD	wordpools/wasnorm_wordpool_576.txt	LTP273	ltpFR2	8	12	COSTUME	383	n/a	n/a	0	0	0
2678743	WORD	wordpools/wasnorm_wordpool_576.txt	LTP273	ltpFR2	8	12	SKIRT	1319	n/a	n/a	0	0	0
2681393	WORD	wordpools/wasnorm_wordpool_576.txt	LTP273	ltpFR2	8	12	GARLIC	624	n/a	n/a	0	0	0
2683951	WORD	wordpools/wasnorm_wordpool_576.txt	LTP273	ltpFR2	8	12	BANQUET	86	n/a	n/a	0	0	0
2686462	WORD	wordpools/wasnorm_wordpool_576.txt	LTP273	ltpFR2	8	12	TART	1436	n/a	n/a	0	0	0
2689217	WORD	wordpools/wasnorm_wordpool_576.txt	LTP273	ltpFR2	8	12	HIKER	708	n/a	n/a	0	0	0
2691697	WORD	wordpools/wasnorm_wordpool_576.txt	LTP273	ltpFR2	8	12	LOVER	846	n/a	n/a	0	0	0
2693304	START	n/a	LTP273	ltpFR2	8	n/a	n/a	n/a	18	n/a	n/a	n/a	n/a
2694109	DISTRACTOR	n/a	LTP273	ltpFR2	8	12	n/a	n/a	n/a	n/a	0	0	0
2694124	PROB	n/a	LTP273	ltpFR2	8	n/a	n/a	n/a	18	13	4	1	8
2698669	PROB	n/a	LTP273	ltpFR2	8	n/a	n/a	n/a	18	20	6	8	6
2700292	PROB	n/a	LTP273	ltpFR2	8	n/a	n/a	n/a	18	18	9	5	4
2702137	PROB	n/a	LTP273	ltpFR2	8	n/a	n/a	n/a	18	21	7	6	9
2703922	PROB	n/a	LTP273	ltpFR2	8	n/a	n/a	n/a	18	14	5	8	1
2705929	PROB	n/a	LTP273	ltpFR2	8	n/a	n/a	n/a	18	10	2	4	4
2707786	PROB	n/a	LTP273	ltpFR2	8	n/a	n/a	n/a	18	16	8	1	7
2710431	PROB	n/a	LTP273	ltpFR2	8	n/a	n/a	n/a	18	11	8	2	1
2711501	PROB	n/a	LTP273	ltpFR2	8	n/a	n/a	n/a	18	5	1	2	2
2712405	PROB	n/a	LTP273	ltpFR2	8	n/a	n/a	n/a	18	12	4	7	1
2714245	PROB	n/a	LTP273	ltpFR2	8	n/a	n/a	n/a	18	21	5	7	8
2715555	PROB	n/a	LTP273	ltpFR2	8	n/a	n/a	n/a	18	16	3	5	8
2716703	STOP	n/a	LTP273	ltpFR2	8	n/a	n/a	n/a	18	n/a	n/a	n/a	n/a
2719114	REC_START	n/a	LTP273	ltpFR2	8	12	n/a	n/a	n/a	n/a	0	0	0
2719701	REC_WORD	wordpools/wasnorm_wordpool_576.txt	LTP273	ltpFR2	8	12	DATE	-1	n/a	n/a	0	0	0
2720324	REC_WORD	wordpools/wasnorm_wordpool_576.txt	LTP273	ltpFR2	8	12	TART	1436	n/a	n/a	0	0	0
2721723	REC_WORD	wordpools/wasnorm_wordpool_576.txt	LTP273	ltpFR2	8	12	LIQUID	-1	n/a	n/a	0	0	0
2723265	REC_WORD	wordpools/wasnorm_wordpool_576.txt	LTP273	ltpFR2	8	12	PRINCE	1124	n/a	n/a	0	0	0
2726167	REC_WORD	wordpools/wasnorm_wordpool_576.txt	LTP273	ltpFR2	8	12	CHAPEL	280	n/a	n/a	0	0	0
2727039	REC_WORD	wordpools/wasnorm_wordpool_576.txt	LTP273	ltpFR2	8	12	PIANO	1057	n/a	n/a	0	0	0
2729850	REC_WORD	wordpools/wasnorm_wordpool_576.txt	LTP273	ltpFR2	8	12	CLAM	315	n/a	n/a	0	0	0
2730601	REC_WORD	wordpools/wasnorm_wordpool_576.txt	LTP273	ltpFR2	8	12	CANDY	230	n/a	n/a	0	0	0
2733171	REC_WORD	wordpools/wasnorm_wordpool_576.txt	LTP273	ltpFR2	8	12	GRAPE	654	n/a	n/a	0	0	0
2736240	REC_WORD	wordpools/wasnorm_wordpool_576.txt	LTP273	ltpFR2	8	12	FIREPLACE	570	n/a	n/a	0	0	0
2833181	WORD	wordpools/wasnorm_wordpool_576.txt	LTP273	ltpFR2	8	13	GARDEN	623	n/a	n/a	0	0	0
2835773	WORD	wordpools/wasnorm_wordpool_576.txt	LTP273	ltpFR2	8	13	FIREMAN	569	n/a	n/a	0	0	0
2838413	WORD	wordpools/wasnorm_wordpool_576.txt	LTP273	ltpFR2	8	13	PLAID	1080	n/a	n/a	0	0	0
2840905	WORD	wordpools/wasnorm_wordpool_576.txt	LTP273	ltpFR2	8	13	SHIRT	1287	n/a	n/a	0	0	0
2843537	WORD	wordpools/wasnorm_wordpool_576.txt	LTP273	ltpFR2	8	13	WIFE	1609	n/a	n/a	0	0	0
2846030	WORD	wordpools/wasnorm_wordpool_576.txt	LTP273	ltpFR2	8	13	HUSBAND	728	n/a	n/a	0	0	0
2848839	WORD	wordpools/wasnorm_wordpool_576.txt	LTP273	ltpFR2	8	13	CHAUFFEUR	283	n/a	n/a	0	0	0
2851584	WORD	wordpools/wasnorm_wordpool_576.txt	LTP273	ltpFR2	8	13	BEAKER	104	n/a	n/a	0	0	0
2854077	WORD	wordpools/wasnorm_wordpool_576.txt	LTP273	ltpFR2	8	13	LACE	792	n/a	n/a	0	0	0
2856865	WORD	wordpools/wasnorm_wordpool_576.txt	LTP273	ltpFR2	8	13	PRIMATE	1123	n/a	n/a	0	0	0
2859409	WORD	wordpools/wasnorm_wordpool_576.txt	LTP273	ltpFR2	8	13	BEAST	108	n/a	n/a	0	0	0
2861872	WORD	wordpools/wasnorm_wordpool_576.txt	LTP273	ltpFR2	8	13	GAVEL	627	n/a	n/a	0	0	0
2864566	WORD	wordpools/wasnorm_wordpool_576.txt	LTP273	ltpFR2	8	13	VALVE	1546	n/a	n/a	0	0	0
2867138	WORD	wordpools/wasnorm_wordpool_576.txt	LTP273	ltpFR2	8	13	HOOD	714	n/a	n/a	0	0	0
2869902	WORD	wordpools/wasnorm_wordpool_576.txt	LTP273	ltpFR2	8	13	CYCLONE	431	n/a	n/a	0	0	0
2872379	WORD	wordpools/wasnorm_wordpool_576.txt	LTP273	ltpFR2	8	13	SPACE	1345	n/a	n/a	0	0	0
2874837	WORD	wordpools/wasnorm_wordpool_576.txt	LTP273	ltpFR2	8	13	PEBBLE	1035	n/a	n/a	0	0	0
2877594	WORD	wordpools/wasnorm_wordpool_576.txt	LTP273	ltpFR2	8	13	PERMIT	1051	n/a	n/a	0	0	0
2880142	WORD	wordpools/wasnorm_wordpool_576.txt	LTP273	ltpFR2	8	13	FOOTBALL	591	n/a	n/a	0	0	0
2882667	WORD	wordpools/wasnorm_wordpool_576.txt	LTP273	ltpFR2	8	13	SHOULDER	1294	n/a	n/a	0	0	0
2885156	WORD	wordpools/wasnorm_wordpool_576.txt	LTP273	ltpFR2	8	13	IDOL	733	n/a	n/a	0	0	0
2887619	WORD	wordpools/wasnorm_wordpool_576.txt	LTP273	ltpFR2	8	13	PANTHER	1009	n/a	n/a	0	0	0
2890297	WORD	wordpools/wasnorm_wordpool_576.txt	LTP273	ltpFR2	8	13	BACKBONE	66	n/a	n/a	0	0	0
2892905	WORD	wordpools/wasnorm_wordpool_576.txt	LTP273	ltpFR2	8	13	MATCH	878	n/a	n/a	0	0	0
2894513	START	n/a	LTP273	ltpFR2	8	n/a	n/a	n/a	19	n/a	n/a	n/a	n/a
2895462	DISTRACTOR	n/a	LTP273	ltpFR2	8	13	n/a	n/a	n/a	n/a	0	0	0
2895478	PROB	n/a	LTP273	ltpFR2	8	n/a	n/a	n/a	19	19	3	8	8
2898945	PROB	n/a	LTP273	ltpFR2	8	n/a	n/a	n/a	19	15	9	4	2
2900196	PROB	n/a	LTP273	ltpFR2	8	n/a	n/a	n/a	19	10	1	4	5
2901889	PROB	n/a	LTP273	ltpFR2	8	n/a	n/a	n/a	19	18	6	6	6
2902922	PROB	n/a	LTP273	ltpFR2	8	n/a	n/a	n/a	19	15	6	1	8
2904194	PROB	n/a	LTP273	ltpFR2	8	n/a	n/a	n/a	19	20	6	6	7
2905754	PROB	n/a	LTP273	ltpFR2	8	n/a	n/a	n/a	19	13	6	4	3
2907745	PROB	n/a	LTP273	ltpFR2	8	n/a	n/a	n/a	19	16	2	7	7
2909664	PROB	n/a	LTP273	ltpFR2	8	n/a	n/a	n/a	19	17	5	3	9
2912413	PROB	n/a	LTP273	ltpFR2	8	n/a	n/a	n/a	19	22	6	8	8
2914500	PROB	n/a	LTP273	ltpFR2	8	n/a	n/a	n/a	19	12	2	1	9
2915753	PROB	n/a	LTP273	ltpFR2	8	n/a	n/a	n/a	19	7	1	5	1
2916908	PROB	n/a	LTP273	ltpFR2	8	n/a	n/a	n/a	19	18	8	5	1
2917855	STOP	n/a	LTP273	ltpFR2	8	n/a	n/a	n/a	19	n/a	n/a	n/a	n/a
2920377	REC_START	n/a	LTP273	ltpFR2	8	13	n/a	n/a	n/a	n/a	0	0	0
2920986	REC_WORD	wordpools/wasnorm_wordpool_576.txt	LTP273	ltpFR2	8	13	BACKBONE	66	n/a	n/a	0	0	0
2921853	REC_WORD	wordpools/wasnorm_wordpool_576.txt	LTP273	ltpFR2	8	13	MATCH	878	n/a	n/a	0	0	0
2922571	REC_WORD	wordpools/wasnorm_wordpool_576.txt	LTP273	ltpFR2	8	13	FOOTBALL	591	n/a	n/a	0	0	0
2923355	REC_WORD	wordpools/wasnorm_wordpool_576.txt	LTP273	ltpFR2	8	13	SHOULDER	1294	n/a	n/a	0	0	0
2924472	REC_WORD	wordpools/wasnorm_wordpool_576.txt	LTP273	ltpFR2	8	13	FIRE	-1	n/a	n/a	0	0	0
2928754	REC_WORD	wordpools/wasnorm_wordpool_576.txt	LTP273	ltpFR2	8	13	CYCLONE	431	n/a	n/a	0	0	0
2930243	REC_WORD	wordpools/wasnorm_wordpool_576.txt	LTP273	ltpFR2	8	13	PEBBLE	1035	n/a	n/a	0	0	0
3011403	DISTRACTOR	n/a	LTP273	ltpFR2	8	14	n/a	n/a	n/a	n/a	0	0	0
3011403	START	n/a	LTP273	ltpFR2	8	n/a	n/a	n/a	20	n/a	n/a	n/a	n/a
3011453	PROB	n/a	LTP273	ltpFR2	8	n/a	n/a	n/a	20	14	5	6	3
3013890	PROB	n/a	LTP273	ltpFR2	8	n/a	n/a	n/a	20	13	3	7	3
3015050	PROB	n/a	LTP273	ltpFR2	8	n/a	n/a	n/a	20	17	5	4	8
3016434	PROB	n/a	LTP273	ltpFR2	8	n/a	n/a	n/a	20	6	3	1	2
3019633	PROB	n/a	LTP273	ltpFR2	8	n/a	n/a	n/a	20	21	9	8	5
3023582	PROB	n/a	LTP273	ltpFR2	8	n/a	n/a	n/a	20	15	3	9	3
3025668	PROB	n/a	LTP273	ltpFR2	8	n/a	n/a	n/a	20	9	2	5	2
3027024	PROB	n/a	LTP273	ltpFR2	8	n/a	n/a	n/a	20	20	9	7	4
3028796	PROB	n/a	LTP273	ltpFR2	8	n/a	n/a	n/a	20	7	2	3	2
3029905	PROB	n/a	LTP273	ltpFR2	8	n/a	n/a	n/a	20	21	8	8	5
3031256	PROB	n/a	LTP273	ltpFR2	8	n/a	n/a	n/a	20	16	6	4	6
3032277	PROB	n/a	LTP273	ltpFR2	8	n/a	n/a	n/a	20	18	6	6	3
3033715	PROB	n/a	LTP273	ltpFR2	8	n/a	n/a	n/a	20	13	9	1	6
3034863	STOP	n/a	LTP273	ltpFR2	8	n/a	n/a	n/a	20	n/a	n/a	n/a	n/a
3036443	WORD	wordpools/wasnorm_wordpool_576.txt	LTP273	ltpFR2	8	14	VIKING	1565	n/a	n/a	0	0	0
3039074	WORD	wordpools/wasnorm_wordpool_576.txt	LTP273	ltpFR2	8	14	YACHT	1629	n/a	n/a	0	0	0
3041583	WORD	wordpools/wasnorm_wordpool_576.txt	LTP273	ltpFR2	8	14	HELMET	702	n/a	n/a	0	0	0
3044322	WORD	wordpools/wasnorm_wordpool_576.txt	LTP273	ltpFR2	8	14	PICTURE	1061	n/a	n/a	0	0	0
3047054	WORD	wordpools/wasnorm_wordpool_576.txt	LTP273	ltpFR2	8	14	CURTAIN	427	n/a	n/a	0	0	0
3049780	WORD	wordpools/wasnorm_wordpool_576.txt	LTP273	ltpFR2	8	14	SHORTCAKE	1292	n/a	n/a	0	0	0
3052508	WORD	wordpools/wasnorm_wordpool_576.txt	LTP273	ltpFR2	8	14	COUNTRY	388	n/a	n/a	0	0	0
3054933	WORD	wordpools/wasnorm_wordpool_576.txt	LTP273	ltpFR2	8	14	EUROPE	541	n/a	n/a	0	0	0
3057705	WORD	wordpools/wasnorm_wordpool_576.txt	LTP273	ltpFR2	8	14	DRESS	495	n/a	n/a	0	0	0
3060488	WORD	wordpools/wasnorm_wordpool_576.txt	LTP273	ltpFR2	8	14	GLOBE	641	n/a	n/a	0	0	0
3062946	WORD	wordpools/wasnorm_wordpool_576.txt	LTP273	ltpFR2	8	14	LIVER	833	n/a	n/a	0	0	0
3065557	WORD	wordpools/wasnorm_wordpool_576.txt	LTP273	ltpFR2	8	14	CUSTARD	429	n/a	n/a	0	0	0
3068033	WORD	wordpools/wasnorm_wordpool_576.txt	LTP273	ltpFR2	8	14	DANCER	437	n/a	n/a	0	0	0
3070476	WORD	wordpools/wasnorm_wordpool_576.txt	LTP273	ltpFR2	8	14	FILM	565	n/a	n/a	0	0	0
3073102	WORD	wordpools/wasnorm_wordpool_576.txt	LTP273	ltpFR2	8	14	TURTLE	1522	n/a	n/a	0	0	0
3075795	WORD	wordpools/wasnorm_wordpool_576.txt	LTP273	ltpFR2	8	14	FARMER	553	n/a	n/a	0	0	0
3078451	WORD	wordpools/wasnorm_wordpool_576.txt	LTP273	ltpFR2	8	14	LEADER	807	n/a	n/a	0	0	0
3081166	WORD	wordpools/wasnorm_wordpool_576.txt	LTP273	ltpFR2	8	14	SODA	1341	n/a	n/a	0	0	0
3083641	WORD	wordpools/wasnorm_wordpool_576.txt	LTP273	ltpFR2	8	14	BUBBLE	183	n/a	n/a	0	0	0
3086151	WORD	wordpools/wasnorm_wordpool_576.txt	LTP273	ltpFR2	8	14	SEAFOOD	1260	n/a	n/a	0	0	0
3088638	WORD	wordpools/wasnorm_wordpool_576.txt	LTP273	ltpFR2	8	14	COMPASS	358	n/a	n/a	0	0	0
3091087	WORD	wordpools/wasnorm_wordpool_576.txt	LTP273	ltpFR2	8	14	BELLY	119	n/a	n/a	0	0	0
3093645	WORD	wordpools/wasnorm_wordpool_576.txt	LTP273	ltpFR2	8	14	PERCH	1048	n/a	n/a	0	0	0
3096156	WORD	wordpools/wasnorm_wordpool_576.txt	LTP273	ltpFR2	8	14	CRITIC	410	n/a	n/a	0	0	0
3097773	START	n/a	LTP273	ltpFR2	8	n/a	n/a	n/a	21	n/a	n/a	n/a	n/a
3098818	DISTRACTOR	n/a	LTP273	ltpFR2	8	14	n/a	n/a	n/a	n/a	0	0	0
3098831	PROB	n/a	LTP273	ltpFR2	8	n/a	n/a	n/a	21	14	4	3	7
3100705	PROB	n/a	LTP273	ltpFR2	8	n/a	n/a	n/a	21	17	7	2	8
3102942	PROB	n/a	LTP273	ltpFR2	8	n/a	n/a	n/a	21	21	9	6	6
3106778	PROB	n/a	LTP273	ltpFR2	8	n/a	n/a	n/a	21	16	4	4	8
3108285	PROB	n/a	LTP273	ltpFR2	8	n/a	n/a	n/a	21	13	7	5	1
3109969	PROB	n/a	LTP273	ltpFR2	8	n/a	n/a	n/a	21	15	6	6	3
3112834	PROB	n/a	LTP273	ltpFR2	8	n/a	n/a	n/a	21	20	7	4	9
3113955	PROB	n/a	LTP273	ltpFR2	8	n/a	n/a	n/a	21	16	6	2	8
3115390	PROB	n/a	LTP273	ltpFR2	8	n/a	n/a	n/a	21	9	3	1	5
3117882	PROB	n/a	LTP273	ltpFR2	8	n/a	n/a	n/a	21	12	4	1	7
3119255	PROB	n/a	LTP273	ltpFR2	8	n/a	n/a	n/a	21	11	5	2	4
3121576	STOP	n/a	LTP273	ltpFR2	8	n/a	n/a	n/a	21	n/a	n/a	n/a	n/a
3123654	REC_START	n/a	LTP273	ltpFR2	8	14	n/a	n/a	n/a	n/a	0	0	0
3124588	REC_WORD	wordpools/wasnorm_wordpool_576.txt	LTP273	ltpFR2	8	14	SEAFOOD	1260	n/a	n/a	0	0	0
3125315	REC_WORD	wordpools/wasnorm_wordpool_576.txt	LTP273	ltpFR2	8	14	PERCH	1048	n/a	n/a	0	0	0
3125951	REC_WORD	wordpools/wasnorm_wordpool_576.txt	LTP273	ltpFR2	8	14	PEBBLE	1035	n/a	n/a	0	0	0
3127172	REC_WORD_VV	wordpools/wasnorm_wordpool_576.txt	LTP273	ltpFR2	8	14	<>	-1	n/a	n/a	0	0	0
3132536	REC_WORD	wordpools/wasnorm_wordpool_576.txt	LTP273	ltpFR2	8	14	YACHT	1629	n/a	n/a	0	0	0
3134637	REC_WORD	wordpools/wasnorm_wordpool_576.txt	LTP273	ltpFR2	8	14	VIKING	1565	n/a	n/a	0	0	0
3135267	REC_WORD_VV	wordpools/wasnorm_wordpool_576.txt	LTP273	ltpFR2	8	14	<>	-1	n/a	n/a	0	0	0
3214685	DISTRACTOR	n/a	LTP273	ltpFR2	8	15	n/a	n/a	n/a	n/a	0	0	0
3214685	START	n/a	LTP273	ltpFR2	8	n/a	n/a	n/a	22	n/a	n/a	n/a	n/a
3214735	PROB	n/a	LTP273	ltpFR2	8	n/a	n/a	n/a	22	8	2	3	3
3216421	PROB	n/a	LTP273	ltpFR2	8	n/a	n/a	n/a	22	10	1	7	2
3218946	PROB	n/a	LTP273	ltpFR2	8	n/a	n/a	n/a	22	13	2	7	5
3220987	PROB	n/a	LTP273	ltpFR2	8	n/a	n/a	n/a	22	13	1	8	4
3223029	PROB	n/a	LTP273	ltpFR2	8	n/a	n/a	n/a	22	10	3	3	4
3224066	PROB	n/a	LTP273	ltpFR2	8	n/a	n/a	n/a	22	12	1	6	5
3226162	PROB	n/a	LTP273	ltpFR2	8	n/a	n/a	n/a	22	11	2	2	7
3227262	PROB	n/a	LTP273	ltpFR2	8	n/a	n/a	n/a	22	11	3	2	6
3228616	PROB	n/a	LTP273	ltpFR2	8	n/a	n/a	n/a	22	10	7	2	1
3229708	PROB	n/a	LTP273	ltpFR2	8	n/a	n/a	n/a	22	12	4	6	2
3230807	PROB	n/a	LTP273	ltpFR2	8	n/a	n/a	n/a	22	18	5	4	9
3232080	PROB	n/a	LTP273	ltpFR2	8	n/a	n/a	n/a	22	11	3	7	1
3233167	PROB	n/a	LTP273	ltpFR2	8	n/a	n/a	n/a	22	12	7	3	2
3234255	PROB	n/a	LTP273	ltpFR2	8	n/a	n/a	n/a	22	16	5	5	6
3235426	PROB	n/a	LTP273	ltpFR2	8	n/a	n/a	n/a	22	12	3	3	7
3236602	PROB	n/a	LTP273	ltpFR2	8	n/a	n/a	n/a	22	16	9	5	2
3238472	STOP	n/a	LTP273	ltpFR2	8	n/a	n/a	n/a	22	n/a	n/a	n/a	n/a
3239779	WORD	wordpools/wasnorm_wordpool_576.txt	LTP273	ltpFR2	8	15	RIFLE	1192	n/a	n/a	0	0	0
3242474	WORD	wordpools/wasnorm_wordpool_576.txt	LTP273	ltpFR2	8	15	GANGSTER	620	n/a	n/a	0	0	0
3245280	WORD	wordpools/wasnorm_wordpool_576.txt	LTP273	ltpFR2	8	15	HAMPER	682	n/a	n/a	0	0	0
3247776	WORD	wordpools/wasnorm_wordpool_576.txt	LTP273	ltpFR2	8	15	TREAT	1501	n/a	n/a	0	0	0
3250554	WORD	wordpools/wasnorm_wordpool_576.txt	LTP273	ltpFR2	8	15	COOKBOOK	373	n/a	n/a	0	0	0
3253276	WORD	wordpools/wasnorm_wordpool_576.txt	LTP273	ltpFR2	8	15	ORANGE	980	n/a	n/a	0	0	0
3255723	WORD	wordpools/wasnorm_wordpool_576.txt	LTP273	ltpFR2	8	15	BINDER	127	n/a	n/a	0	0	0
3258384	WORD	wordpools/wasnorm_wordpool_576.txt	LTP273	ltpFR2	8	15	BOARD	143	n/a	n/a	0	0	0
3260926	WORD	wordpools/wasnorm_wordpool_576.txt	LTP273	ltpFR2	8	15	LETTUCE	814	n/a	n/a	0	0	0
3263665	WORD	wordpools/wasnorm_wordpool_576.txt	LTP273	ltpFR2	8	15	RADISH	1158	n/a	n/a	0	0	0
3266197	WORD	wordpools/wasnorm_wordpool_576.txt	LTP273	ltpFR2	8	15	SEAL	1262	n/a	n/a	0	0	0
3268956	WORD	wordpools/wasnorm_wordpool_576.txt	LTP273	ltpFR2	8	15	CANAL	226	n/a	n/a	0	0	0
3271517	WORD	wordpools/wasnorm_wordpool_576.txt	LTP273	ltpFR2	8	15	CROWN	415	n/a	n/a	0	0	0
3274038	WORD	wordpools/wasnorm_wordpool_576.txt	LTP273	ltpFR2	8	15	CUPBOARD	425	n/a	n/a	0	0	0
3276469	WORD	wordpools/wasnorm_wordpool_576.txt	LTP273	ltpFR2	8	15	COCOON	339	n/a	n/a	0	0	0
3279012	WORD	wordpools/wasnorm_wordpool_576.txt	LTP273	ltpFR2	8	15	FEMALE	559	n/a	n/a	0	0	0
3281783	WORD	wordpools/wasnorm_wordpool_576.txt	LTP273	ltpFR2	8	15	THIEF	1456	n/a	n/a	0	0	0
3284243	WORD	wordpools/wasnorm_wordpool_576.txt	LTP273	ltpFR2	8	15	SAUSAGE	1238	n/a	n/a	0	0	0
3286823	WORD	wordpools/wasnorm_wordpool_576.txt	LTP273	ltpFR2	8	15	BULLET	194	n/a	n/a	0	0	0
3289580	WORD	wordpools/wasnorm_wordpool_576.txt	LTP273	ltpFR2	8	15	SWIMMER	1420	n/a	n/a	0	0	0
3292329	WORD	wordpools/wasnorm_wordpool_576.txt	LTP273	ltpFR2	8	15	SWAMP	1416	n/a	n/a	0	0	0
3294837	WORD	wordpools/wasnorm_wordpool_576.txt	LTP273	ltpFR2	8	15	SALAD	1224	n/a	n/a	0	0	0
3297493	WORD	wordpools/wasnorm_wordpool_576.txt	LTP273	ltpFR2	8	15	POSSUM	1112	n/a	n/a	0	0	0
3300287	WORD	wordpools/wasnorm_wordpool_576.txt	LTP273	ltpFR2	8	15	SCULPTURE	1258	n/a	n/a	0	0	0
3301897	START	n/a	LTP273	ltpFR2	8	n/a	n/a	n/a	23	n/a	n/a	n/a	n/a
3302957	DISTRACTOR	n/a	LTP273	ltpFR2	8	15	n/a	n/a	n/a	n/a	0	0	0
3302968	PROB	n/a	LTP273	ltpFR2	8	n/a	n/a	n/a	23	14	7	4	3
3305840	PROB	n/a	LTP273	ltpFR2	8	n/a	n/a	n/a	23	13	7	1	5
3307514	PROB	n/a	LTP273	ltpFR2	8	n/a	n/a	n/a	23	16	6	1	9
3310658	PROB	n/a	LTP273	ltpFR2	8	n/a	n/a	n/a	23	18	9	2	6
3314941	PROB	n/a	LTP273	ltpFR2	8	n/a	n/a	n/a	23	18	7	4	5
3317067	PROB	n/a	LTP273	ltpFR2	8	n/a	n/a	n/a	23	7	4	2	1
3319810	PROB	n/a	LTP273	ltpFR2	8	n/a	n/a	n/a	23	12	3	2	7
3321115	PROB	n/a	LTP273	ltpFR2	8	n/a	n/a	n/a	23	14	5	8	1
3322720	PROB	n/a	LTP273	ltpFR2	8	n/a	n/a	n/a	23	7	4	1	2
3324536	STOP	n/a	LTP273	ltpFR2	8	n/a	n/a	n/a	23	n/a	n/a	n/a	n/a
3327673	REC_START	n/a	LTP273	ltpFR2	8	15	n/a	n/a	n/a	n/a	0	0	0
3329029	REC_WORD	wordpools/wasnorm_wordpool_576.txt	LTP273	ltpFR2	8	15	COCOON	339	n/a	n/a	0	0	0
3330612	REC_WORD	wordpools/wasnorm_wordpool_576.txt	LTP273	ltpFR2	8	15	SALAD	1224	n/a	n/a	0	0	0
3331912	REC_WORD	wordpools/wasnorm_wordpool_576.txt	LTP273	ltpFR2	8	15	CUPBOARD	425	n/a	n/a	0	0	0
3332732	REC_WORD	wordpools/wasnorm_wordpool_576.txt	LTP273	ltpFR2	8	15	SWAMP	1416	n/a	n/a	0	0	0
3333914	REC_WORD	wordpools/wasnorm_wordpool_576.txt	LTP273	ltpFR2	8	15	POSSUM	1112	n/a	n/a	0	0	0
3334743	REC_WORD	wordpools/wasnorm_wordpool_576.txt	LTP273	ltpFR2	8	15	SWIMMER	1420	n/a	n/a	0	0	0
3338328	REC_WORD	wordpools/wasnorm_wordpool_576.txt	LTP273	ltpFR2	8	15	RIFLE	1192	n/a	n/a	0	0	0
3339811	REC_WORD	wordpools/wasnorm_wordpool_576.txt	LTP273	ltpFR2	8	15	GANGSTER	620	n/a	n/a	0	0	0
3418737	DISTRACTOR	n/a	LTP273	ltpFR2	8	16	n/a	n/a	n/a	n/a	0	0	0
3418737	START	n/a	LTP273	ltpFR2	8	n/a	n/a	n/a	24	n/a	n/a	n/a	n/a
3418787	PROB	n/a	LTP273	ltpFR2	8	n/a	n/a	n/a	24	13	3	3	7
3420244	PROB	n/a	LTP273	ltpFR2	8	n/a	n/a	n/a	24	18	2	9	7
3425091	PROB	n/a	LTP273	ltpFR2	8	n/a	n/a	n/a	24	18	2	8	8
3426813	PROB	n/a	LTP273	ltpFR2	8	n/a	n/a	n/a	24	17	5	9	3
3428520	PROB	n/a	LTP273	ltpFR2	8	n/a	n/a	n/a	24	8	4	2	2
3431398	PROB	n/a	LTP273	ltpFR2	8	n/a	n/a	n/a	24	21	5	9	8
3432936	PROB	n/a	LTP273	ltpFR2	8	n/a	n/a	n/a	24	16	7	2	4
3434810	PROB	n/a	LTP273	ltpFR2	8	n/a	n/a	n/a	24	8	1	6	1
3435830	PROB	n/a	LTP273	ltpFR2	8	n/a	n/a	n/a	24	19	9	4	6
3437358	PROB	n/a	LTP273	ltpFR2	8	n/a	n/a	n/a	24	7	3	1	3
3438374	PROB	n/a	LTP273	ltpFR2	8	n/a	n/a	n/a	24	14	7	5	2
3440097	PROB	n/a	LTP273	ltpFR2	8	n/a	n/a	n/a	24	13	5	2	6
3442336	STOP	n/a	LTP273	ltpFR2	8	n/a	n/a	n/a	24	n/a	n/a	n/a	n/a
3443794	WORD	wordpools/wasnorm_wordpool_576.txt	LTP273	ltpFR2	8	16	SUBWAY	1400	n/a	n/a	0	0	0
3446309	WORD	wordpools/wasnorm_wordpool_576.txt	LTP273	ltpFR2	8	16	COUSIN	392	n/a	n/a	0	0	0
3449069	WORD	wordpools/wasnorm_wordpool_576.txt	LTP273	ltpFR2	8	16	ZEBRA	1635	n/a	n/a	0	0	0
3451678	WORD	wordpools/wasnorm_wordpool_576.txt	LTP273	ltpFR2	8	16	FRANCE	601	n/a	n/a	0	0	0
3454256	WORD	wordpools/wasnorm_wordpool_576.txt	LTP273	ltpFR2	8	16	SCOTCH	1251	n/a	n/a	0	0	0
3456730	WORD	wordpools/wasnorm_wordpool_576.txt	LTP273	ltpFR2	8	16	BARREL	91	n/a	n/a	0	0	0
3459391	WORD	wordpools/wasnorm_wordpool_576.txt	LTP273	ltpFR2	8	16	CRUTCH	417	n/a	n/a	0	0	0
3461878	WORD	wordpools/wasnorm_wordpool_576.txt	LTP273	ltpFR2	8	16	MILDEW	893	n/a	n/a	0	0	0
3464590	WORD	wordpools/wasnorm_wordpool_576.txt	LTP273	ltpFR2	8	16	SALT	1229	n/a	n/a	0	0	0
3467405	WORD	wordpools/wasnorm_wordpool_576.txt	LTP273	ltpFR2	8	16	DUSTPAN	509	n/a	n/a	0	0	0
3469830	WORD	wordpools/wasnorm_wordpool_576.txt	LTP273	ltpFR2	8	16	LONDON	843	n/a	n/a	0	0	0
3472541	WORD	wordpools/wasnorm_wordpool_576.txt	LTP273	ltpFR2	8	16	DUST	508	n/a	n/a	0	0	0
3475012	WORD	wordpools/wasnorm_wordpool_576.txt	LTP273	ltpFR2	8	16	STAPLE	1371	n/a	n/a	0	0	0
3477793	WORD	wordpools/wasnorm_wordpool_576.txt	LTP273	ltpFR2	8	16	NAPKIN	937	n/a	n/a	0	0	0
3480538	WORD	wordpools/wasnorm_wordpool_576.txt	LTP273	ltpFR2	8	16	SPIDER	1351	n/a	n/a	0	0	0
3483260	WORD	wordpools/wasnorm_wordpool_576.txt	LTP273	ltpFR2	8	16	TERMITE	1451	n/a	n/a	0	0	0
3485706	WORD	wordpools/wasnorm_wordpool_576.txt	LTP273	ltpFR2	8	16	MAILBOX	857	n/a	n/a	0	0	0
3488396	WORD	wordpools/wasnorm_wordpool_576.txt	LTP273	ltpFR2	8	16	RECEIPT	1173	n/a	n/a	0	0	0
3490893	WORD	wordpools/wasnorm_wordpool_576.txt	LTP273	ltpFR2	8	16	CABIN	211	n/a	n/a	0	0	0
3493653	WORD	wordpools/wasnorm_wordpool_576.txt	LTP273	ltpFR2	8	16	STAKE	1368	n/a	n/a	0	0	0
3496214	WORD	wordpools/wasnorm_wordpool_576.txt	LTP273	ltpFR2	8	16	STAR	1373	n/a	n/a	0	0	0
3498705	WORD	wordpools/wasnorm_wordpool_576.txt	LTP273	ltpFR2	8	16	BUGGY	188	n/a	n/a	0	0	0
3501199	WORD	wordpools/wasnorm_wordpool_576.txt	LTP273	ltpFR2	8	16	TRENCH	1503	n/a	n/a	0	0	0
3503841	WORD	wordpools/wasnorm_wordpool_576.txt	LTP273	ltpFR2	8	16	CATCHER	258	n/a	n/a	0	0	0
3505449	START	n/a	LTP273	ltpFR2	8	n/a	n/a	n/a	25	n/a	n/a	n/a	n/a
3506382	DISTRACTOR	n/a	LTP273	ltpFR2	8	16	n/a	n/a	n/a	n/a	0	0	0
3506397	PROB	n/a	LTP273	ltpFR2	8	n/a	n/a	n/a	25	11	2	1	8
3508321	PROB	n/a	LTP273	ltpFR2	8	n/a	n/a	n/a	25	13	1	3	9
3509876	PROB	n/a	LTP273	ltpFR2	8	n/a	n/a	n/a	25	19	8	7	4
3512770	PROB	n/a	LTP273	ltpFR2	8	n/a	n/a	n/a	25	23	8	8	7
3515085	PROB	n/a	LTP273	ltpFR2	8	n/a	n/a	n/a	25	18	8	6	4
3516284	PROB	n/a	LTP273	ltpFR2	8	n/a	n/a	n/a	25	23	8	9	4
3518108	PROB	n/a	LTP273	ltpFR2	8	n/a	n/a	n/a	25	14	1	4	9
3520722	PROB	n/a	LTP273	ltpFR2	8	n/a	n/a	n/a	25	15	4	8	3
3522257	PROB	n/a	LTP273	ltpFR2	8	n/a	n/a	n/a	25	17	8	1	8
3523562	PROB	n/a	LTP273	ltpFR2	8	n/a	n/a	n/a	25	18	3	7	8
3524770	PROB	n/a	LTP273	ltpFR2	8	n/a	n/a	n/a	25	7	1	1	5
3525736	PROB	n/a	LTP273	ltpFR2	8	n/a	n/a	n/a	25	12	9	2	1
3526840	PROB	n/a	LTP273	ltpFR2	8	n/a	n/a	n/a	25	18	8	4	6
3527951	STOP	n/a	LTP273	ltpFR2	8	n/a	n/a	n/a	25	n/a	n/a	n/a	n/a
3531375	REC_START	n/a	LTP273	ltpFR2	8	16	n/a	n/a	n/a	n/a	0	0	0
3533598	REC_WORD	wordpools/wasnorm_wordpool_576.txt	LTP273	ltpFR2	8	16	STAR	1373	n/a	n/a	0	0	0
3540166	REC_WORD	wordpools/wasnorm_wordpool_576.txt	LTP273	ltpFR2	8	16	BUGGY	188	n/a	n/a	0	0	0
3608169	REST_REWET	n/a	LTP273	ltpFR2	8	16	n/a	n/a	n/a	n/a	0	0	0
3920830	WORD	wordpools/wasnorm_wordpool_576.txt	LTP273	ltpFR2	8	17	SURVEY	1414	n/a	n/a	0	0	0
3923318	WORD	wordpools/wasnorm_wordpool_576.txt	LTP273	ltpFR2	8	17	ONION	977	n/a	n/a	0	0	0
3926033	WORD	wordpools/wasnorm_wordpool_576.txt	LTP273	ltpFR2	8	17	GYMNAST	675	n/a	n/a	0	0	0
3928776	WORD	wordpools/wasnorm_wordpool_576.txt	LTP273	ltpFR2	8	17	WAITER	1580	n/a	n/a	0	0	0
3931320	WORD	wordpools/wasnorm_wordpool_576.txt	LTP273	ltpFR2	8	17	LUNCH	849	n/a	n/a	0	0	0
3933773	WORD	wordpools/wasnorm_wordpool_576.txt	LTP273	ltpFR2	8	17	LION	827	n/a	n/a	0	0	0
3936351	WORD	wordpools/wasnorm_wordpool_576.txt	LTP273	ltpFR2	8	17	FRAME	600	n/a	n/a	0	0	0
3939116	WORD	wordpools/wasnorm_wordpool_576.txt	LTP273	ltpFR2	8	17	YOLK	1633	n/a	n/a	0	0	0
3941892	WORD	wordpools/wasnorm_wordpool_576.txt	LTP273	ltpFR2	8	17	POET	1095	n/a	n/a	0	0	0
3944565	WORD	wordpools/wasnorm_wordpool_576.txt	LTP273	ltpFR2	8	17	TRACTOR	1493	n/a	n/a	0	0	0
3947063	WORD	wordpools/wasnorm_wordpool_576.txt	LTP273	ltpFR2	8	17	FOOT	590	n/a	n/a	0	0	0
3949638	WORD	wordpools/wasnorm_wordpool_576.txt	LTP273	ltpFR2	8	17	SPOOL	1356	n/a	n/a	0	0	0
3952282	WORD	wordpools/wasnorm_wordpool_576.txt	LTP273	ltpFR2	8	17	SKILLET	1317	n/a	n/a	0	0	0
3955093	WORD	wordpools/wasnorm_wordpool_576.txt	LTP273	ltpFR2	8	17	BATHTUB	100	n/a	n/a	0	0	0
3957802	WORD	wordpools/wasnorm_wordpool_576.txt	LTP273	ltpFR2	8	17	DIVER	476	n/a	n/a	0	0	0
3960625	WORD	wordpools/wasnorm_wordpool_576.txt	LTP273	ltpFR2	8	17	JUNGLE	764	n/a	n/a	0	0	0
3963257	WORD	wordpools/wasnorm_wordpool_576.txt	LTP273	ltpFR2	8	17	TOASTER	1472	n/a	n/a	0	0	0
3965749	WORD	wordpools/wasnorm_wordpool_576.txt	LTP273	ltpFR2	8	17	COURSE	390	n/a	n/a	0	0	0
3968405	WORD	wordpools/wasnorm_wordpool_576.txt	LTP273	ltpFR2	8	17	ROD	1203	n/a	n/a	0	0	0
3970969	WORD	wordpools/wasnorm_wordpool_576.txt	LTP273	ltpFR2	8	17	ARM	38	n/a	n/a	0	0	0
3973657	WORD	wordpools/wasnorm_wordpool_576.txt	LTP273	ltpFR2	8	17	RUG	1215	n/a	n/a	0	0	0
3976089	WORD	wordpools/wasnorm_wordpool_576.txt	LTP273	ltpFR2	8	17	TILE	1468	n/a	n/a	0	0	0
3978664	WORD	wordpools/wasnorm_wordpool_576.txt	LTP273	ltpFR2	8	17	OFFICE	972	n/a	n/a	0	0	0
3981342	WORD	wordpools/wasnorm_wordpool_576.txt	LTP273	ltpFR2	8	17	APRON	35	n/a	n/a	0	0	0
3982959	START	n/a	LTP273	ltpFR2	8	n/a	n/a	n/a	26	n/a	n/a	n/a	n/a
3983873	DISTRACTOR	n/a	LTP273	ltpFR2	8	17	n/a	n/a	n/a	n/a	0	0	0
3983884	PROB	n/a	LTP273	ltpFR2	8	n/a	n/a	n/a	26	12	7	1	4
3985891	PROB	n/a	LTP273	ltpFR2	8	n/a	n/a	n/a	26	15	6	5	4
3988731	PROB	n/a	LTP273	ltpFR2	8	n/a	n/a	n/a	26	17	9	6	2
3990242	PROB	n/a	LTP273	ltpFR2	8	n/a	n/a	n/a	26	9	6	1	2
3991363	PROB	n/a	LTP273	ltpFR2	8	n/a	n/a	n/a	26	20	7	6	7
3993433	PROB	n/a	LTP273	ltpFR2	8	n/a	n/a	n/a	26	11	5	1	5
3994475	PROB	n/a	LTP273	ltpFR2	8	n/a	n/a	n/a	26	11	1	5	5
3995423	PROB	n/a	LTP273	ltpFR2	8	n/a	n/a	n/a	26	12	3	4	5
3997264	PROB	n/a	LTP273	ltpFR2	8	n/a	n/a	n/a	26	8	5	2	3
3998452	PROB	n/a	LTP273	ltpFR2	8	n/a	n/a	n/a	26	16	6	6	4
3999940	PROB	n/a	LTP273	ltpFR2	8	n/a	n/a	n/a	26	17	9	6	2
4001284	PROB	n/a	LTP273	ltpFR2	8	n/a	n/a	n/a	26	17	7	1	9
4005277	PROB	n/a	LTP273	ltpFR2	8	n/a	n/a	n/a	26	16	5	6	5
4006520	STOP	n/a	LTP273	ltpFR2	8	n/a	n/a	n/a	26	n/a	n/a	n/a	n/a
4008778	REC_START	n/a	LTP273	ltpFR2	8	17	n/a	n/a	n/a	n/a	0	0	0
4083778	REC_WORD_VV	wordpools/wasnorm_wordpool_576.txt	LTP273	ltpFR2	8	17	<>	-1	n/a	n/a	0	0	0
4099821	WORD	wordpools/wasnorm_wordpool_576.txt	LTP273	ltpFR2	8	18	RAZOR	1171	n/a	n/a	0	0	0
4102465	WORD	wordpools/wasnorm_wordpool_576.txt	LTP273	ltpFR2	8	18	LASER	801	n/a	n/a	0	0	0
4105053	WORD	wordpools/wasnorm_wordpool_576.txt	LTP273	ltpFR2	8	18	OUTLAW	989	n/a	n/a	0	0	0
4107580	WORD	wordpools/wasnorm_wordpool_576.txt	LTP273	ltpFR2	8	18	WITNESS	1618	n/a	n/a	0	0	0
4110177	WORD	wordpools/wasnorm_wordpool_576.txt	LTP273	ltpFR2	8	18	GIRL	637	n/a	n/a	0	0	0
4112803	WORD	wordpools/wasnorm_wordpool_576.txt	LTP273	ltpFR2	8	18	BACON	67	n/a	n/a	0	0	0
4115242	WORD	wordpools/wasnorm_wordpool_576.txt	LTP273	ltpFR2	8	18	LABEL	790	n/a	n/a	0	0	0
4117705	WORD	wordpools/wasnorm_wordpool_576.txt	LTP273	ltpFR2	8	18	BADGE	68	n/a	n/a	0	0	0
4120500	WORD	wordpools/wasnorm_wordpool_576.txt	LTP273	ltpFR2	8	18	MAILMAN	858	n/a	n/a	0	0	0
4122925	WORD	wordpools/wasnorm_wordpool_576.txt	LTP273	ltpFR2	8	18	TABLE	1426	n/a	n/a	0	0	0
4125430	WORD	wordpools/wasnorm_wordpool_576.txt	LTP273	ltpFR2	8	18	COUCH	386	n/a	n/a	0	0	0
4127872	WORD	wordpools/wasnorm_wordpool_576.txt	LTP273	ltpFR2	8	18	SCISSORS	1250	n/a	n/a	0	0	0
4130399	WORD	wordpools/wasnorm_wordpool_576.txt	LTP273	ltpFR2	8	18	FINGER	567	n/a	n/a	0	0	0
4133076	WORD	wordpools/wasnorm_wordpool_576.txt	LTP273	ltpFR2	8	18	MATTRESS	879	n/a	n/a	0	0	0
4135852	WORD	wordpools/wasnorm_wordpool_576.txt	LTP273	ltpFR2	8	18	STOVE	1388	n/a	n/a	0	0	0
4138479	WORD	wordpools/wasnorm_wordpool_576.txt	LTP273	ltpFR2	8	18	PACKAGE	997	n/a	n/a	0	0	0
4141194	WORD	wordpools/wasnorm_wordpool_576.txt	LTP273	ltpFR2	8	18	WASP	1593	n/a	n/a	0	0	0
4143732	WORD	wordpools/wasnorm_wordpool_576.txt	LTP273	ltpFR2	8	18	ANKLE	24	n/a	n/a	0	0	0
4146459	WORD	wordpools/wasnorm_wordpool_576.txt	LTP273	ltpFR2	8	18	DONKEY	484	n/a	n/a	0	0	0
4148918	WORD	wordpools/wasnorm_wordpool_576.txt	LTP273	ltpFR2	8	18	MOTEL	919	n/a	n/a	0	0	0
4151383	WORD	wordpools/wasnorm_wordpool_576.txt	LTP273	ltpFR2	8	18	DORM	488	n/a	n/a	0	0	0
4154126	WORD	wordpools/wasnorm_wordpool_576.txt	LTP273	ltpFR2	8	18	BRICK	172	n/a	n/a	0	0	0
4156598	WORD	wordpools/wasnorm_wordpool_576.txt	LTP273	ltpFR2	8	18	GOBLIN	645	n/a	n/a	0	0	0
4159045	WORD	wordpools/wasnorm_wordpool_576.txt	LTP273	ltpFR2	8	18	LAMP	798	n/a	n/a	0	0	0
4160663	START	n/a	LTP273	ltpFR2	8	n/a	n/a	n/a	27	n/a	n/a	n/a	n/a
4161509	DISTRACTOR	n/a	LTP273	ltpFR2	8	18	n/a	n/a	n/a	n/a	0	0	0
4161521	PROB	n/a	LTP273	ltpFR2	8	n/a	n/a	n/a	27	18	7	3	7
4163390	PROB	n/a	LTP273	ltpFR2	8	n/a	n/a	n/a	27	14	3	6	5
4165586	PROB	n/a	LTP273	ltpFR2	8	n/a	n/a	n/a	27	19	5	9	5
4166752	PROB	n/a	LTP273	ltpFR2	8	n/a	n/a	n/a	27	18	4	6	8
4167739	PROB	n/a	LTP273	ltpFR2	8	n/a	n/a	n/a	27	13	5	2	6
4169784	PROB	n/a	LTP273	ltpFR2	8	n/a	n/a	n/a	27	21	8	4	9
4171787	PROB	n/a	LTP273	ltpFR2	8	n/a	n/a	n/a	27	18	9	1	8
4173244	PROB	n/a	LTP273	ltpFR2	8	n/a	n/a	n/a	27	21	8	4	9
4174832	PROB	n/a	LTP273	ltpFR2	8	n/a	n/a	n/a	27	15	1	8	6
4177276	PROB	n/a	LTP273	ltpFR2	8	n/a	n/a	n/a	27	17	9	3	5
4179489	PROB	n/a	LTP273	ltpFR2	8	n/a	n/a	n/a	27	15	2	6	7
4182094	PROB	n/a	LTP273	ltpFR2	8	n/a	n/a	n/a	27	19	9	8	2
4183337	STOP	n/a	LTP273	ltpFR2	8	n/a	n/a	n/a	27	n/a	n/a	n/a	n/a
4186549	REC_START	n/a	LTP273	ltpFR2	8	18	n/a	n/a	n/a	n/a	0	0	0
4187793	REC_WORD	wordpools/wasnorm_wordpool_576.txt	LTP273	ltpFR2	8	18	DONKEY	484	n/a	n/a	0	0	0
4188710	REC_WORD	wordpools/wasnorm_wordpool_576.txt	LTP273	ltpFR2	8	18	GIRL	637	n/a	n/a	0	0	0
4189163	REC_WORD	wordpools/wasnorm_wordpool_576.txt	LTP273	ltpFR2	8	18	WITNESS	1618	n/a	n/a	0	0	0
4197570	REC_WORD	wordpools/wasnorm_wordpool_576.txt	LTP273	ltpFR2	8	18	BACON	67	n/a	n/a	0	0	0
4198431	REC_WORD	wordpools/wasnorm_wordpool_576.txt	LTP273	ltpFR2	8	18	LABEL	790	n/a	n/a	0	0	0
4277658	WORD	wordpools/wasnorm_wordpool_576.txt	LTP273	ltpFR2	8	19	MISTER	901	n/a	n/a	0	0	0
4280247	WORD	wordpools/wasnorm_wordpool_576.txt	LTP273	ltpFR2	8	19	BARLEY	88	n/a	n/a	0	0	0
4282856	WORD	wordpools/wasnorm_wordpool_576.txt	LTP273	ltpFR2	8	19	FIDDLE	561	n/a	n/a	0	0	0
4285438	WORD	wordpools/wasnorm_wordpool_576.txt	LTP273	ltpFR2	8	19	FLUTE	585	n/a	n/a	0	0	0
4287930	WORD	wordpools/wasnorm_wordpool_576.txt	LTP273	ltpFR2	8	19	CHEST	295	n/a	n/a	0	0	0
4290419	WORD	wordpools/wasnorm_wordpool_576.txt	LTP273	ltpFR2	8	19	SANDWICH	1232	n/a	n/a	0	0	0
4292927	WORD	wordpools/wasnorm_wordpool_576.txt	LTP273	ltpFR2	8	19	PIZZA	1079	n/a	n/a	0	0	0
4295704	WORD	wordpools/wasnorm_wordpool_576.txt	LTP273	ltpFR2	8	19	OX	994	n/a	n/a	0	0	0
4298454	WORD	wordpools/wasnorm_wordpool_576.txt	LTP273	ltpFR2	8	19	WHISKERS	1605	n/a	n/a	0	0	0
4301064	WORD	wordpools/wasnorm_wordpool_576.txt	LTP273	ltpFR2	8	19	SCARECROW	1245	n/a	n/a	0	0	0
4303606	WORD	wordpools/wasnorm_wordpool_576.txt	LTP273	ltpFR2	8	19	CIGAR	308	n/a	n/a	0	0	0
4306149	WORD	wordpools/wasnorm_wordpool_576.txt	LTP273	ltpFR2	8	19	GRILL	661	n/a	n/a	0	0	0
4308926	WORD	wordpools/wasnorm_wordpool_576.txt	LTP273	ltpFR2	8	19	REBEL	1172	n/a	n/a	0	0	0
4311570	WORD	wordpools/wasnorm_wordpool_576.txt	LTP273	ltpFR2	8	19	MILK	895	n/a	n/a	0	0	0
4314196	WORD	wordpools/wasnorm_wordpool_576.txt	LTP273	ltpFR2	8	19	SEAGULL	1261	n/a	n/a	0	0	0
4316655	WORD	wordpools/wasnorm_wordpool_576.txt	LTP273	ltpFR2	8	19	GIFT	635	n/a	n/a	0	0	0
4319265	WORD	wordpools/wasnorm_wordpool_576.txt	LTP273	ltpFR2	8	19	BOX	159	n/a	n/a	0	0	0
4321987	WORD	wordpools/wasnorm_wordpool_576.txt	LTP273	ltpFR2	8	19	MARS	873	n/a	n/a	0	0	0
4324735	WORD	wordpools/wasnorm_wordpool_576.txt	LTP273	ltpFR2	8	19	FRAGRANCE	599	n/a	n/a	0	0	0
4327229	WORD	wordpools/wasnorm_wordpool_576.txt	LTP273	ltpFR2	8	19	BUG	187	n/a	n/a	0	0	0
4330018	WORD	wordpools/wasnorm_wordpool_576.txt	LTP273	ltpFR2	8	19	COMET	353	n/a	n/a	0	0	0
4332844	WORD	wordpools/wasnorm_wordpool_576.txt	LTP273	ltpFR2	8	19	CREVICE	405	n/a	n/a	0	0	0
4335405	WORD	wordpools/wasnorm_wordpool_576.txt	LTP273	ltpFR2	8	19	FOREST	593	n/a	n/a	0	0	0
4338053	WORD	wordpools/wasnorm_wordpool_576.txt	LTP273	ltpFR2	8	19	PENGUIN	1044	n/a	n/a	0	0	0
4339670	START	n/a	LTP273	ltpFR2	8	n/a	n/a	n/a	28	n/a	n/a	n/a	n/a
4340629	DISTRACTOR	n/a	LTP273	ltpFR2	8	19	n/a	n/a	n/a	n/a	0	0	0
4340645	PROB	n/a	LTP273	ltpFR2	8	n/a	n/a	n/a	28	9	7	1	1
4342899	PROB	n/a	LTP273	ltpFR2	8	n/a	n/a	n/a	28	5	1	2	2
4343840	PROB	n/a	LTP273	ltpFR2	8	n/a	n/a	n/a	28	20	8	5	7
4345776	PROB	n/a	LTP273	ltpFR2	8	n/a	n/a	n/a	28	1	1	5	7
4347187	PROB	n/a	LTP273	ltpFR2	8	n/a	n/a	n/a	28	19	8	9	2
4349408	PROB	n/a	LTP273	ltpFR2	8	n/a	n/a	n/a	28	13	3	7	3
4350778	PROB	n/a	LTP273	ltpFR2	8	n/a	n/a	n/a	28	9	4	3	2
4353979	PROB	n/a	LTP273	ltpFR2	8	n/a	n/a	n/a	28	14	3	9	2
4356066	PROB	n/a	LTP273	ltpFR2	8	n/a	n/a	n/a	28	18	8	6	4
4357471	PROB	n/a	LTP273	ltpFR2	8	n/a	n/a	n/a	28	18	3	7	8
4358825	PROB	n/a	LTP273	ltpFR2	8	n/a	n/a	n/a	28	11	1	6	4
4360821	PROB	n/a	LTP273	ltpFR2	8	n/a	n/a	n/a	28	13	7	1	6
4362280	STOP	n/a	LTP273	ltpFR2	8	n/a	n/a	n/a	28	n/a	n/a	n/a	n/a
4365502	REC_START	n/a	LTP273	ltpFR2	8	19	n/a	n/a	n/a	n/a	0	0	0
4367399	REC_WORD	wordpools/wasnorm_wordpool_576.txt	LTP273	ltpFR2	8	19	BARLEY	88	n/a	n/a	0	0	0
4369416	REC_WORD	wordpools/wasnorm_wordpool_576.txt	LTP273	ltpFR2	8	19	FRUIT	610	n/a	n/a	0	0	0
4371533	REC_WORD	wordpools/wasnorm_wordpool_576.txt	LTP273	ltpFR2	8	19	HARVEST	-1	n/a	n/a	0	0	0
4456566	WORD	wordpools/wasnorm_wordpool_576.txt	LTP273	ltpFR2	8	20	CRICKET	408	n/a	n/a	0	0	0
4459042	WORD	wordpools/wasnorm_wordpool_576.txt	LTP273	ltpFR2	8	20	ORCHID	982	n/a	n/a	0	0	0
4461864	WORD	wordpools/wasnorm_wordpool_576.txt	LTP273	ltpFR2	8	20	SALMON	1227	n/a	n/a	0	0	0
4464513	WORD	wordpools/wasnorm_wordpool_576.txt	LTP273	ltpFR2	8	20	YARN	1631	n/a	n/a	0	0	0
4467089	WORD	wordpools/wasnorm_wordpool_576.txt	LTP273	ltpFR2	8	20	CEILING	265	n/a	n/a	0	0	0
4469861	WORD	wordpools/wasnorm_wordpool_576.txt	LTP273	ltpFR2	8	20	QUAIL	1147	n/a	n/a	0	0	0
4472621	WORD	wordpools/wasnorm_wordpool_576.txt	LTP273	ltpFR2	8	20	HAWK	692	n/a	n/a	0	0	0
4475203	WORD	wordpools/wasnorm_wordpool_576.txt	LTP273	ltpFR2	8	20	DRAGON	492	n/a	n/a	0	0	0
4477678	WORD	wordpools/wasnorm_wordpool_576.txt	LTP273	ltpFR2	8	20	GRIZZLY	662	n/a	n/a	0	0	0
4480122	WORD	wordpools/wasnorm_wordpool_576.txt	LTP273	ltpFR2	8	20	FLAG	573	n/a	n/a	0	0	0
4482931	WORD	wordpools/wasnorm_wordpool_576.txt	LTP273	ltpFR2	8	20	HATCHET	691	n/a	n/a	0	0	0
4485625	WORD	wordpools/wasnorm_wordpool_576.txt	LTP273	ltpFR2	8	20	TWEEZERS	1526	n/a	n/a	0	0	0
4488186	WORD	wordpools/wasnorm_wordpool_576.txt	LTP273	ltpFR2	8	20	CONVICT	371	n/a	n/a	0	0	0
4491013	WORD	wordpools/wasnorm_wordpool_576.txt	LTP273	ltpFR2	8	20	VICTIM	1562	n/a	n/a	0	0	0
4493605	WORD	wordpools/wasnorm_wordpool_576.txt	LTP273	ltpFR2	8	20	THREAD	1460	n/a	n/a	0	0	0
4496048	WORD	wordpools/wasnorm_wordpool_576.txt	LTP273	ltpFR2	8	20	HOOK	715	n/a	n/a	0	0	0
4498724	WORD	wordpools/wasnorm_wordpool_576.txt	LTP273	ltpFR2	8	20	CREATURE	403	n/a	n/a	0	0	0
4501531	WORD	wordpools/wasnorm_wordpool_576.txt	LTP273	ltpFR2	8	20	SUMMIT	1405	n/a	n/a	0	0	0
4504358	WORD	wordpools/wasnorm_wordpool_576.txt	LTP273	ltpFR2	8	20	MOP	916	n/a	n/a	0	0	0
4506905	WORD	wordpools/wasnorm_wordpool_576.txt	LTP273	ltpFR2	8	20	SUSPECT	1415	n/a	n/a	0	0	0
4509482	WORD	wordpools/wasnorm_wordpool_576.txt	LTP273	ltpFR2	8	20	VENUS	1557	n/a	n/a	0	0	0
4511969	WORD	wordpools/wasnorm_wordpool_576.txt	LTP273	ltpFR2	8	20	FLASHLIGHT	575	n/a	n/a	0	0	0
4514451	WORD	wordpools/wasnorm_wordpool_576.txt	LTP273	ltpFR2	8	20	PARENT	1013	n/a	n/a	0	0	0
4516926	WORD	wordpools/wasnorm_wordpool_576.txt	LTP273	ltpFR2	8	20	ROBBER	1197	n/a	n/a	0	0	0
4518533	START	n/a	LTP273	ltpFR2	8	n/a	n/a	n/a	29	n/a	n/a	n/a	n/a
4519508	DISTRACTOR	n/a	LTP273	ltpFR2	8	20	n/a	n/a	n/a	n/a	0	0	0
4519520	PROB	n/a	LTP273	ltpFR2	8	n/a	n/a	n/a	29	20	3	8	9
4522609	PROB	n/a	LTP273	ltpFR2	8	n/a	n/a	n/a	29	23	8	6	9
4525443	PROB	n/a	LTP273	ltpFR2	8	n/a	n/a	n/a	29	14	5	7	2
4527546	PROB	n/a	LTP273	ltpFR2	8	n/a	n/a	n/a	29	23	7	9	7
4529123	PROB	n/a	LTP273	ltpFR2	8	n/a	n/a	n/a	29	16	4	3	9
4531315	PROB	n/a	LTP273	ltpFR2	8	n/a	n/a	n/a	29	19	9	4	6
4532815	PROB	n/a	LTP273	ltpFR2	8	n/a	n/a	n/a	29	18	3	6	9
4534338	PROB	n/a	LTP273	ltpFR2	8	n/a	n/a	n/a	29	8	3	3	2
4535893	PROB	n/a	LTP273	ltpFR2	8	n/a	n/a	n/a	29	7	3	1	2
4542533	STOP	n/a	LTP273	ltpFR2	8	n/a	n/a	n/a	29	n/a	n/a	n/a	n/a
4544377	REC_START	n/a	LTP273	ltpFR2	8	20	n/a	n/a	n/a	n/a	0	0	0
4551258	REC_WORD	wordpools/wasnorm_wordpool_576.txt	LTP273	ltpFR2	8	20	TOOL	1480	n/a	n/a	0	0	0
4551889	REC_WORD	wordpools/wasnorm_wordpool_576.txt	LTP273	ltpFR2	8	20	SALMON	1227	n/a	n/a	0	0	0
4552837	REC_WORD	wordpools/wasnorm_wordpool_576.txt	LTP273	ltpFR2	8	20	VICTIM	1562	n/a	n/a	0	0	0
4553690	REC_WORD	wordpools/wasnorm_wordpool_576.txt	LTP273	ltpFR2	8	20	VENUS	1557	n/a	n/a	0	0	0
4555089	REC_WORD	wordpools/wasnorm_wordpool_576.txt	LTP273	ltpFR2	8	20	CONVICT	371	n/a	n/a	0	0	0
4565937	REC_WORD	wordpools/wasnorm_wordpool_576.txt	LTP273	ltpFR2	8	20	CRICKET	408	n/a	n/a	0	0	0
4635407	DISTRACTOR	n/a	LTP273	ltpFR2	8	21	n/a	n/a	n/a	n/a	0	0	0
4635407	START	n/a	LTP273	ltpFR2	8	n/a	n/a	n/a	30	n/a	n/a	n/a	n/a
4635457	PROB	n/a	LTP273	ltpFR2	8	n/a	n/a	n/a	30	16	1	9	6
4636924	PROB	n/a	LTP273	ltpFR2	8	n/a	n/a	n/a	30	18	7	9	2
4639238	PROB	n/a	LTP273	ltpFR2	8	n/a	n/a	n/a	30	18	8	3	7
4640237	PROB	n/a	LTP273	ltpFR2	8	n/a	n/a	n/a	30	17	2	8	7
4641559	PROB	n/a	LTP273	ltpFR2	8	n/a	n/a	n/a	30	17	8	1	8
4642729	PROB	n/a	LTP273	ltpFR2	8	n/a	n/a	n/a	30	19	9	1	9
4644106	PROB	n/a	LTP273	ltpFR2	8	n/a	n/a	n/a	30	13	5	1	7
4645891	PROB	n/a	LTP273	ltpFR2	8	n/a	n/a	n/a	30	18	9	1	8
4647034	PROB	n/a	LTP273	ltpFR2	8	n/a	n/a	n/a	30	23	7	8	8
4648957	PROB	n/a	LTP273	ltpFR2	8	n/a	n/a	n/a	30	15	4	9	2
4650497	PROB	n/a	LTP273	ltpFR2	8	n/a	n/a	n/a	30	18	6	6	6
4652538	PROB	n/a	LTP273	ltpFR2	8	n/a	n/a	n/a	30	19	3	9	7
4654056	PROB	n/a	LTP273	ltpFR2	8	n/a	n/a	n/a	30	18	3	6	9
4655382	PROB	n/a	LTP273	ltpFR2	8	n/a	n/a	n/a	30	19	9	3	7
4656549	PROB	n/a	LTP273	ltpFR2	8	n/a	n/a	n/a	30	12	5	5	2
4659407	STOP	n/a	LTP273	ltpFR2	8	n/a	n/a	n/a	30	n/a	n/a	n/a	n/a
4660569	WORD	wordpools/wasnorm_wordpool_576.txt	LTP273	ltpFR2	8	21	WORKER	1621	n/a	n/a	0	0	0
4663111	WORD	wordpools/wasnorm_wordpool_576.txt	LTP273	ltpFR2	8	21	ATLAS	53	n/a	n/a	0	0	0
4665632	WORD	wordpools/wasnorm_wordpool_576.txt	LTP273	ltpFR2	8	21	CARROT	249	n/a	n/a	0	0	0
4668181	WORD	wordpools/wasnorm_wordpool_576.txt	LTP273	ltpFR2	8	21	KETCHUP	771	n/a	n/a	0	0	0
4670907	WORD	wordpools/wasnorm_wordpool_576.txt	LTP273	ltpFR2	8	21	GHETTO	633	n/a	n/a	0	0	0
4673367	WORD	wordpools/wasnorm_wordpool_576.txt	LTP273	ltpFR2	8	21	PIGEON	1065	n/a	n/a	0	0	0
4676177	WORD	wordpools/wasnorm_wordpool_576.txt	LTP273	ltpFR2	8	21	EAGLE	512	n/a	n/a	0	0	0
4678719	WORD	wordpools/wasnorm_wordpool_576.txt	LTP273	ltpFR2	8	21	ITEM	746	n/a	n/a	0	0	0
4681280	WORD	wordpools/wasnorm_wordpool_576.txt	LTP273	ltpFR2	8	21	HONEY	713	n/a	n/a	0	0	0
4683738	WORD	wordpools/wasnorm_wordpool_576.txt	LTP273	ltpFR2	8	21	NOVEL	960	n/a	n/a	0	0	0
4686550	WORD	wordpools/wasnorm_wordpool_576.txt	LTP273	ltpFR2	8	21	SADDLE	1221	n/a	n/a	0	0	0
4688975	WORD	wordpools/wasnorm_wordpool_576.txt	LTP273	ltpFR2	8	21	KLEENEX	782	n/a	n/a	0	0	0
4691752	WORD	wordpools/wasnorm_wordpool_576.txt	LTP273	ltpFR2	8	21	FREEZER	604	n/a	n/a	0	0	0
4694245	WORD	wordpools/wasnorm_wordpool_576.txt	LTP273	ltpFR2	8	21	PARSLEY	1016	n/a	n/a	0	0	0
4696871	WORD	wordpools/wasnorm_wordpool_576.txt	LTP273	ltpFR2	8	21	CITRUS	313	n/a	n/a	0	0	0
4699348	WORD	wordpools/wasnorm_wordpool_576.txt	LTP273	ltpFR2	8	21	SHELTER	1282	n/a	n/a	0	0	0
4701957	WORD	wordpools/wasnorm_wordpool_576.txt	LTP273	ltpFR2	8	21	BALLOON	75	n/a	n/a	0	0	0
4704513	WORD	wordpools/wasnorm_wordpool_576.txt	LTP273	ltpFR2	8	21	JUGGLER	763	n/a	n/a	0	0	0
4707010	WORD	wordpools/wasnorm_wordpool_576.txt	LTP273	ltpFR2	8	21	HORNET	718	n/a	n/a	0	0	0
4709781	WORD	wordpools/wasnorm_wordpool_576.txt	LTP273	ltpFR2	8	21	SOFTBALL	1343	n/a	n/a	0	0	0
4712509	WORD	wordpools/wasnorm_wordpool_576.txt	LTP273	ltpFR2	8	21	ICING	732	n/a	n/a	0	0	0
4715024	WORD	wordpools/wasnorm_wordpool_576.txt	LTP273	ltpFR2	8	21	TWIG	1527	n/a	n/a	0	0	0
4717683	WORD	wordpools/wasnorm_wordpool_576.txt	LTP273	ltpFR2	8	21	CAPTIVE	240	n/a	n/a	0	0	0
4720494	WORD	wordpools/wasnorm_wordpool_576.txt	LTP273	ltpFR2	8	21	LOFT	840	n/a	n/a	0	0	0
4722101	START	n/a	LTP273	ltpFR2	8	n/a	n/a	n/a	31	n/a	n/a	n/a	n/a
4723249	DISTRACTOR	n/a	LTP273	ltpFR2	8	21	n/a	n/a	n/a	n/a	0	0	0
4723267	PROB	n/a	LTP273	ltpFR2	8	n/a	n/a	n/a	31	14	6	3	5
4725892	PROB	n/a	LTP273	ltpFR2	8	n/a	n/a	n/a	31	13	9	2	2
4728090	PROB	n/a	LTP273	ltpFR2	8	n/a	n/a	n/a	31	11	1	7	3
4731669	PROB	n/a	LTP273	ltpFR2	8	n/a	n/a	n/a	31	16	4	5	7
4734826	PROB	n/a	LTP273	ltpFR2	8	n/a	n/a	n/a	31	15	5	4	6
4736466	PROB	n/a	LTP273	ltpFR2	8	n/a	n/a	n/a	31	15	3	6	6
4739277	PROB	n/a	LTP273	ltpFR2	8	n/a	n/a	n/a	31	19	6	4	9
4740698	PROB	n/a	LTP273	ltpFR2	8	n/a	n/a	n/a	31	14	7	3	4
4741869	PROB	n/a	LTP273	ltpFR2	8	n/a	n/a	n/a	31	11	7	2	2
4742811	PROB	n/a	LTP273	ltpFR2	8	n/a	n/a	n/a	31	13	1	5	7
4746100	STOP	n/a	LTP273	ltpFR2	8	n/a	n/a	n/a	31	n/a	n/a	n/a	n/a
4747914	REC_START	n/a	LTP273	ltpFR2	8	21	n/a	n/a	n/a	n/a	0	0	0
4748945	REC_WORD	wordpools/wasnorm_wordpool_576.txt	LTP273	ltpFR2	8	21	TWIG	1527	n/a	n/a	0	0	0
4749482	REC_WORD	wordpools/wasnorm_wordpool_576.txt	LTP273	ltpFR2	8	21	TWEEZERS	1526	n/a	n/a	0	0	0
4757723	REC_WORD	wordpools/wasnorm_wordpool_576.txt	LTP273	ltpFR2	8	21	HELP	-1	n/a	n/a	0	0	0
4792530	REC_WORD	wordpools/wasnorm_wordpool_576.txt	LTP273	ltpFR2	8	21	KLEENEX	782	n/a	n/a	0	0	0
4838956	WORD	wordpools/wasnorm_wordpool_576.txt	LTP273	ltpFR2	8	22	ICEBERG	731	n/a	n/a	0	0	0
4841667	WORD	wordpools/wasnorm_wordpool_576.txt	LTP273	ltpFR2	8	22	VIRUS	1572	n/a	n/a	0	0	0
4844110	WORD	wordpools/wasnorm_wordpool_576.txt	LTP273	ltpFR2	8	22	SMOG	1330	n/a	n/a	0	0	0
4846686	WORD	wordpools/wasnorm_wordpool_576.txt	LTP273	ltpFR2	8	22	MUSTARD	935	n/a	n/a	0	0	0
4849347	WORD	wordpools/wasnorm_wordpool_576.txt	LTP273	ltpFR2	8	22	THRONE	1461	n/a	n/a	0	0	0
4852023	WORD	wordpools/wasnorm_wordpool_576.txt	LTP273	ltpFR2	8	22	PLASTER	1085	n/a	n/a	0	0	0
4854566	WORD	wordpools/wasnorm_wordpool_576.txt	LTP273	ltpFR2	8	22	WASHER	1592	n/a	n/a	0	0	0
4857159	WORD	wordpools/wasnorm_wordpool_576.txt	LTP273	ltpFR2	8	22	KITCHEN	778	n/a	n/a	0	0	0
4859986	WORD	wordpools/wasnorm_wordpool_576.txt	LTP273	ltpFR2	8	22	DINER	467	n/a	n/a	0	0	0
4862796	WORD	wordpools/wasnorm_wordpool_576.txt	LTP273	ltpFR2	8	22	CLOCK	325	n/a	n/a	0	0	0
4865541	WORD	wordpools/wasnorm_wordpool_576.txt	LTP273	ltpFR2	8	22	BLOCKADE	137	n/a	n/a	0	0	0
4868235	WORD	wordpools/wasnorm_wordpool_576.txt	LTP273	ltpFR2	8	22	PEPPER	1047	n/a	n/a	0	0	0
4870693	WORD	wordpools/wasnorm_wordpool_576.txt	LTP273	ltpFR2	8	22	PATROL	1027	n/a	n/a	0	0	0
4873454	WORD	wordpools/wasnorm_wordpool_576.txt	LTP273	ltpFR2	8	22	PALACE	1006	n/a	n/a	0	0	0
4876198	WORD	wordpools/wasnorm_wordpool_576.txt	LTP273	ltpFR2	8	22	PISTON	1076	n/a	n/a	0	0	0
4879008	WORD	wordpools/wasnorm_wordpool_576.txt	LTP273	ltpFR2	8	22	COUNTY	389	n/a	n/a	0	0	0
4881551	WORD	wordpools/wasnorm_wordpool_576.txt	LTP273	ltpFR2	8	22	ACTRESS	6	n/a	n/a	0	0	0
4884011	WORD	wordpools/wasnorm_wordpool_576.txt	LTP273	ltpFR2	8	22	ACTOR	5	n/a	n/a	0	0	0
4886532	WORD	wordpools/wasnorm_wordpool_576.txt	LTP273	ltpFR2	8	22	XEROX	1628	n/a	n/a	0	0	0
4889163	WORD	wordpools/wasnorm_wordpool_576.txt	LTP273	ltpFR2	8	22	ROBOT	1200	n/a	n/a	0	0	0
4891906	WORD	wordpools/wasnorm_wordpool_576.txt	LTP273	ltpFR2	8	22	HIGHWAY	707	n/a	n/a	0	0	0
4894417	WORD	wordpools/wasnorm_wordpool_576.txt	LTP273	ltpFR2	8	22	FRUIT	610	n/a	n/a	0	0	0
4897043	WORD	wordpools/wasnorm_wordpool_576.txt	LTP273	ltpFR2	8	22	HEADBAND	696	n/a	n/a	0	0	0
4899536	WORD	wordpools/wasnorm_wordpool_576.txt	LTP273	ltpFR2	8	22	COBRA	336	n/a	n/a	0	0	0
4901142	START	n/a	LTP273	ltpFR2	8	n/a	n/a	n/a	32	n/a	n/a	n/a	n/a
4902264	DISTRACTOR	n/a	LTP273	ltpFR2	8	22	n/a	n/a	n/a	n/a	0	0	0
4902279	PROB	n/a	LTP273	ltpFR2	8	n/a	n/a	n/a	32	15	6	3	6
4904187	PROB	n/a	LTP273	ltpFR2	8	n/a	n/a	n/a	32	18	2	7	9
4905937	PROB	n/a	LTP273	ltpFR2	8	n/a	n/a	n/a	32	14	5	4	5
4907627	PROB	n/a	LTP273	ltpFR2	8	n/a	n/a	n/a	32	11	1	9	1
4908698	PROB	n/a	LTP273	ltpFR2	8	n/a	n/a	n/a	32	23	8	8	7
4911275	PROB	n/a	LTP273	ltpFR2	8	n/a	n/a	n/a	32	15	8	1	6
4912914	PROB	n/a	LTP273	ltpFR2	8	n/a	n/a	n/a	32	16	6	7	5
4914442	PROB	n/a	LTP273	ltpFR2	8	n/a	n/a	n/a	32	11	4	1	3
4916383	PROB	n/a	LTP273	ltpFR2	8	n/a	n/a	n/a	32	15	1	7	7
4918357	PROB	n/a	LTP273	ltpFR2	8	n/a	n/a	n/a	32	7	4	2	1
4919756	PROB	n/a	LTP273	ltpFR2	8	n/a	n/a	n/a	32	15	5	9	1
4920777	PROB	n/a	LTP273	ltpFR2	8	n/a	n/a	n/a	32	13	1	4	8
4922188	PROB	n/a	LTP273	ltpFR2	8	n/a	n/a	n/a	32	8	1	4	3
4924489	STOP	n/a	LTP273	ltpFR2	8	n/a	n/a	n/a	32	n/a	n/a	n/a	n/a
4926905	REC_START	n/a	LTP273	ltpFR2	8	22	n/a	n/a	n/a	n/a	0	0	0
4930912	REC_WORD	wordpools/wasnorm_wordpool_576.txt	LTP273	ltpFR2	8	22	HEADBAND	696	n/a	n/a	0	0	0
4931704	REC_WORD	wordpools/wasnorm_wordpool_576.txt	LTP273	ltpFR2	8	22	ACTOR	5	n/a	n/a	0	0	0
4932434	REC_WORD	wordpools/wasnorm_wordpool_576.txt	LTP273	ltpFR2	8	22	ACTRESS	6	n/a	n/a	0	0	0
4933208	REC_WORD	wordpools/wasnorm_wordpool_576.txt	LTP273	ltpFR2	8	22	DRESSER	496	n/a	n/a	0	0	0
4941225	REC_WORD	wordpools/wasnorm_wordpool_576.txt	LTP273	ltpFR2	8	22	LASER	801	n/a	n/a	0	0	0
5017948	DISTRACTOR	n/a	LTP273	ltpFR2	8	23	n/a	n/a	n/a	n/a	0	0	0
5017948	START	n/a	LTP273	ltpFR2	8	n/a	n/a	n/a	33	n/a	n/a	n/a	n/a
5017999	PROB	n/a	LTP273	ltpFR2	8	n/a	n/a	n/a	33	16	2	5	9
5021474	PROB	n/a	LTP273	ltpFR2	8	n/a	n/a	n/a	33	20	5	8	7
5023080	PROB	n/a	LTP273	ltpFR2	8	n/a	n/a	n/a	33	15	7	3	5
5023987	PROB	n/a	LTP273	ltpFR2	8	n/a	n/a	n/a	33	9	1	2	6
5025054	PROB	n/a	LTP273	ltpFR2	8	n/a	n/a	n/a	33	20	7	9	4
5026965	PROB	n/a	LTP273	ltpFR2	8	n/a	n/a	n/a	33	22	6	6	8
5028767	PROB	n/a	LTP273	ltpFR2	8	n/a	n/a	n/a	33	23	6	8	9
5030262	PROB	n/a	LTP273	ltpFR2	8	n/a	n/a	n/a	33	15	8	4	3
5032186	PROB	n/a	LTP273	ltpFR2	8	n/a	n/a	n/a	33	10	4	3	3
5034706	PROB	n/a	LTP273	ltpFR2	8	n/a	n/a	n/a	33	16	9	5	2
5036697	PROB	n/a	LTP273	ltpFR2	8	n/a	n/a	n/a	33	20	8	8	4
5038091	PROB	n/a	LTP273	ltpFR2	8	n/a	n/a	n/a	33	13	2	9	2
5039341	PROB	n/a	LTP273	ltpFR2	8	n/a	n/a	n/a	33	13	9	2	2
5040369	STOP	n/a	LTP273	ltpFR2	8	n/a	n/a	n/a	33	n/a	n/a	n/a	n/a
5042842	WORD	wordpools/wasnorm_wordpool_576.txt	LTP273	ltpFR2	8	23	GUARD	667	n/a	n/a	0	0	0
5045419	WORD	wordpools/wasnorm_wordpool_576.txt	LTP273	ltpFR2	8	23	TYPIST	1532	n/a	n/a	0	0	0
5047944	WORD	wordpools/wasnorm_wordpool_576.txt	LTP273	ltpFR2	8	23	PAPER	1011	n/a	n/a	0	0	0
5050671	WORD	wordpools/wasnorm_wordpool_576.txt	LTP273	ltpFR2	8	23	LILY	821	n/a	n/a	0	0	0
5053299	WORD	wordpools/wasnorm_wordpool_576.txt	LTP273	ltpFR2	8	23	FRIAR	605	n/a	n/a	0	0	0
5056104	WORD	wordpools/wasnorm_wordpool_576.txt	LTP273	ltpFR2	8	23	CABBAGE	210	n/a	n/a	0	0	0
5058852	WORD	wordpools/wasnorm_wordpool_576.txt	LTP273	ltpFR2	8	23	TURNIP	1521	n/a	n/a	0	0	0
5061424	WORD	wordpools/wasnorm_wordpool_576.txt	LTP273	ltpFR2	8	23	CASHEW	253	n/a	n/a	0	0	0
5064140	WORD	wordpools/wasnorm_wordpool_576.txt	LTP273	ltpFR2	8	23	BOYFRIEND	162	n/a	n/a	0	0	0
5066794	WORD	wordpools/wasnorm_wordpool_576.txt	LTP273	ltpFR2	8	23	TEACHER	1440	n/a	n/a	0	0	0
5069421	WORD	wordpools/wasnorm_wordpool_576.txt	LTP273	ltpFR2	8	23	RABBIT	1152	n/a	n/a	0	0	0
5071968	WORD	wordpools/wasnorm_wordpool_576.txt	LTP273	ltpFR2	8	23	MASK	876	n/a	n/a	0	0	0
5074779	WORD	wordpools/wasnorm_wordpool_576.txt	LTP273	ltpFR2	8	23	MARKER	870	n/a	n/a	0	0	0
5077456	WORD	wordpools/wasnorm_wordpool_576.txt	LTP273	ltpFR2	8	23	CRAYON	401	n/a	n/a	0	0	0
5080267	WORD	wordpools/wasnorm_wordpool_576.txt	LTP273	ltpFR2	8	23	ATOM	55	n/a	n/a	0	0	0
5082988	WORD	wordpools/wasnorm_wordpool_576.txt	LTP273	ltpFR2	8	23	KIDNEY	776	n/a	n/a	0	0	0
5085453	WORD	wordpools/wasnorm_wordpool_576.txt	LTP273	ltpFR2	8	23	BASEMENT	94	n/a	n/a	0	0	0
5088063	WORD	wordpools/wasnorm_wordpool_576.txt	LTP273	ltpFR2	8	23	STAMP	1370	n/a	n/a	0	0	0
5090806	WORD	wordpools/wasnorm_wordpool_576.txt	LTP273	ltpFR2	8	23	DOUGHNUT	490	n/a	n/a	0	0	0
5093361	WORD	wordpools/wasnorm_wordpool_576.txt	LTP273	ltpFR2	8	23	GRAVE	658	n/a	n/a	0	0	0
5096038	WORD	wordpools/wasnorm_wordpool_576.txt	LTP273	ltpFR2	8	23	SCALPEL	1243	n/a	n/a	0	0	0
5098586	WORD	wordpools/wasnorm_wordpool_576.txt	LTP273	ltpFR2	8	23	EXPERT	543	n/a	n/a	0	0	0
5101012	WORD	wordpools/wasnorm_wordpool_576.txt	LTP273	ltpFR2	8	23	CRATER	400	n/a	n/a	0	0	0
5103550	WORD	wordpools/wasnorm_wordpool_576.txt	LTP273	ltpFR2	8	23	POSTAGE	1113	n/a	n/a	0	0	0
5105161	START	n/a	LTP273	ltpFR2	8	n/a	n/a	n/a	34	n/a	n/a	n/a	n/a
5106103	DISTRACTOR	n/a	LTP273	ltpFR2	8	23	n/a	n/a	n/a	n/a	0	0	0
5106114	PROB	n/a	LTP273	ltpFR2	8	n/a	n/a	n/a	34	14	6	3	5
5110024	PROB	n/a	LTP273	ltpFR2	8	n/a	n/a	n/a	34	9	1	2	6
5111451	PROB	n/a	LTP273	ltpFR2	8	n/a	n/a	n/a	34	22	4	9	9
5112973	PROB	n/a	LTP273	ltpFR2	8	n/a	n/a	n/a	34	23	5	8	8
5115428	PROB	n/a	LTP273	ltpFR2	8	n/a	n/a	n/a	34	13	4	1	8
5116749	PROB	n/a	LTP273	ltpFR2	8	n/a	n/a	n/a	34	18	4	6	8
5117874	PROB	n/a	LTP273	ltpFR2	8	n/a	n/a	n/a	34	11	7	1	3
5119075	PROB	n/a	LTP273	ltpFR2	8	n/a	n/a	n/a	34	14	2	2	8
5120447	PROB	n/a	LTP273	ltpFR2	8	n/a	n/a	n/a	34	20	5	6	9
5126157	PROB	n/a	LTP273	ltpFR2	8	n/a	n/a	n/a	34	9	6	1	2
5127478	PROB	n/a	LTP273	ltpFR2	8	n/a	n/a	n/a	34	18	8	1	9
5128984	STOP	n/a	LTP273	ltpFR2	8	n/a	n/a	n/a	34	n/a	n/a	n/a	n/a
5130974	REC_START	n/a	LTP273	ltpFR2	8	23	n/a	n/a	n/a	n/a	0	0	0
5131208	REC_WORD	wordpools/wasnorm_wordpool_576.txt	LTP273	ltpFR2	8	23	SCALPEL	1243	n/a	n/a	0	0	0
5132145	REC_WORD	wordpools/wasnorm_wordpool_576.txt	LTP273	ltpFR2	8	23	GRAVE	658	n/a	n/a	0	0	0
5132699	REC_WORD	wordpools/wasnorm_wordpool_576.txt	LTP273	ltpFR2	8	23	MARKER	870	n/a	n/a	0	0	0
5133396	REC_WORD	wordpools/wasnorm_wordpool_576.txt	LTP273	ltpFR2	8	23	ATOM	55	n/a	n/a	0	0	0
5133974	REC_WORD	wordpools/wasnorm_wordpool_576.txt	LTP273	ltpFR2	8	23	KIDNEY	776	n/a	n/a	0	0	0
5222001	DISTRACTOR	n/a	LTP273	ltpFR2	8	24	n/a	n/a	n/a	n/a	0	0	0
5222001	START	n/a	LTP273	ltpFR2	8	n/a	n/a	n/a	35	n/a	n/a	n/a	n/a
5222051	PROB	n/a	LTP273	ltpFR2	8	n/a	n/a	n/a	35	17	9	6	2
5224121	PROB	n/a	LTP273	ltpFR2	8	n/a	n/a	n/a	35	15	4	9	3
5226830	PROB	n/a	LTP273	ltpFR2	8	n/a	n/a	n/a	35	20	7	5	8
5228169	PROB	n/a	LTP273	ltpFR2	8	n/a	n/a	n/a	35	21	8	6	7
5229525	PROB	n/a	LTP273	ltpFR2	8	n/a	n/a	n/a	35	23	9	5	9
5231315	PROB	n/a	LTP273	ltpFR2	8	n/a	n/a	n/a	35	16	5	2	9
5232652	PROB	n/a	LTP273	ltpFR2	8	n/a	n/a	n/a	35	15	5	4	6
5233811	PROB	n/a	LTP273	ltpFR2	8	n/a	n/a	n/a	35	16	6	4	9
5236451	PROB	n/a	LTP273	ltpFR2	8	n/a	n/a	n/a	35	8	2	4	2
5238341	PROB	n/a	LTP273	ltpFR2	8	n/a	n/a	n/a	35	17	5	5	7
5239717	PROB	n/a	LTP273	ltpFR2	8	n/a	n/a	n/a	35	19	3	9	7
5241269	PROB	n/a	LTP273	ltpFR2	8	n/a	n/a	n/a	35	15	5	6	4
5242206	PROB	n/a	LTP273	ltpFR2	8	n/a	n/a	n/a	35	13	5	4	4
5246001	STOP	n/a	LTP273	ltpFR2	8	n/a	n/a	n/a	35	n/a	n/a	n/a	n/a
5246978	WORD	wordpools/wasnorm_wordpool_576.txt	LTP273	ltpFR2	8	24	KNAPSACK	783	n/a	n/a	0	0	0
5249488	WORD	wordpools/wasnorm_wordpool_576.txt	LTP273	ltpFR2	8	24	LEOPARD	812	n/a	n/a	0	0	0
5252282	WORD	wordpools/wasnorm_wordpool_576.txt	LTP273	ltpFR2	8	24	POWDER	1117	n/a	n/a	0	0	0
5254886	WORD	wordpools/wasnorm_wordpool_576.txt	LTP273	ltpFR2	8	24	NIGHTGOWN	953	n/a	n/a	0	0	0
5257380	WORD	wordpools/wasnorm_wordpool_576.txt	LTP273	ltpFR2	8	24	TOMBSTONE	1478	n/a	n/a	0	0	0
5260011	WORD	wordpools/wasnorm_wordpool_576.txt	LTP273	ltpFR2	8	24	MISSILE	900	n/a	n/a	0	0	0
5262787	WORD	wordpools/wasnorm_wordpool_576.txt	LTP273	ltpFR2	8	24	SUNRISE	1407	n/a	n/a	0	0	0
5265498	WORD	wordpools/wasnorm_wordpool_576.txt	LTP273	ltpFR2	8	24	BABY	64	n/a	n/a	0	0	0
5268259	WORD	wordpools/wasnorm_wordpool_576.txt	LTP273	ltpFR2	8	24	MONSTER	912	n/a	n/a	0	0	0
5271053	WORD	wordpools/wasnorm_wordpool_576.txt	LTP273	ltpFR2	8	24	AIRPLANE	12	n/a	n/a	0	0	0
5273562	WORD	wordpools/wasnorm_wordpool_576.txt	LTP273	ltpFR2	8	24	APPLE	33	n/a	n/a	0	0	0
5276323	WORD	wordpools/wasnorm_wordpool_576.txt	LTP273	ltpFR2	8	24	LIZARD	834	n/a	n/a	0	0	0
5279145	WORD	wordpools/wasnorm_wordpool_576.txt	LTP273	ltpFR2	8	24	SKETCH	1315	n/a	n/a	0	0	0
5281687	WORD	wordpools/wasnorm_wordpool_576.txt	LTP273	ltpFR2	8	24	STATUE	1374	n/a	n/a	0	0	0
5284264	WORD	wordpools/wasnorm_wordpool_576.txt	LTP273	ltpFR2	8	24	PORTRAIT	1111	n/a	n/a	0	0	0
5286874	WORD	wordpools/wasnorm_wordpool_576.txt	LTP273	ltpFR2	8	24	DRAWING	494	n/a	n/a	0	0	0
5289622	WORD	wordpools/wasnorm_wordpool_576.txt	LTP273	ltpFR2	8	24	DONOR	485	n/a	n/a	0	0	0
5292249	WORD	wordpools/wasnorm_wordpool_576.txt	LTP273	ltpFR2	8	24	OZONE	996	n/a	n/a	0	0	0
5294808	WORD	wordpools/wasnorm_wordpool_576.txt	LTP273	ltpFR2	8	24	SNAKE	1333	n/a	n/a	0	0	0
5297536	WORD	wordpools/wasnorm_wordpool_576.txt	LTP273	ltpFR2	8	24	SIBLING	1301	n/a	n/a	0	0	0
5300095	WORD	wordpools/wasnorm_wordpool_576.txt	LTP273	ltpFR2	8	24	ROCKET	1202	n/a	n/a	0	0	0
5302771	WORD	wordpools/wasnorm_wordpool_576.txt	LTP273	ltpFR2	8	24	TRIBE	1505	n/a	n/a	0	0	0
5305416	WORD	wordpools/wasnorm_wordpool_576.txt	LTP273	ltpFR2	8	24	NOMAD	955	n/a	n/a	0	0	0
