onset	duration	trial_type	sample	stim_file	subject	experiment	session	trial	task	item_name	item_num	recog_resp	recog_conf	resp	answer	test_x	test_y	test_z	color_r	color_g	color_b	case	font
236.536	n/a	SESS_START	118268	n/a	LTP200	ltpFR	8	n/a	n/a	n/a	n/a	1	n/a	n/a	n/a	0	0	0	n/a	n/a	n/a	n/a	n/a
268.038	n/a	START	134019	n/a	LTP200	ltpFR	8	n/a	n/a	n/a	n/a	n/a	n/a	n/a	n/a	n/a	n/a	n/a	n/a	n/a	n/a	n/a	n/a
268.07	n/a	PROB	134035	n/a	LTP200	ltpFR	8	n/a	n/a	n/a	n/a	n/a	n/a	n/a	14	3	3	9	n/a	n/a	n/a	n/a	n/a
271.598	n/a	PROB	135799	n/a	LTP200	ltpFR	8	n/a	n/a	n/a	n/a	n/a	n/a	n/a	9	4	2	3	n/a	n/a	n/a	n/a	n/a
276.074	n/a	PROB	138037	n/a	LTP200	ltpFR	8	n/a	n/a	n/a	n/a	n/a	n/a	n/a	9	1	4	4	n/a	n/a	n/a	n/a	n/a
277.64	n/a	PROB	138820	n/a	LTP200	ltpFR	8	n/a	n/a	n/a	n/a	n/a	n/a	n/a	17	9	7	1	n/a	n/a	n/a	n/a	n/a
279.338	n/a	PROB	139669	n/a	LTP200	ltpFR	8	n/a	n/a	n/a	n/a	n/a	n/a	n/a	12	4	7	1	n/a	n/a	n/a	n/a	n/a
283.516	n/a	PROB	141758	n/a	LTP200	ltpFR	8	n/a	n/a	n/a	n/a	n/a	n/a	n/a	11	5	5	1	n/a	n/a	n/a	n/a	n/a
285.012	n/a	PROB	142506	n/a	LTP200	ltpFR	8	n/a	n/a	n/a	n/a	n/a	n/a	n/a	24	9	7	8	n/a	n/a	n/a	n/a	n/a
287.928	n/a	STOP	143964	n/a	LTP200	ltpFR	8	n/a	n/a	n/a	n/a	n/a	n/a	n/a	n/a	n/a	n/a	n/a	n/a	n/a	n/a	n/a	n/a
319.396	n/a	START	159698	n/a	LTP200	ltpFR	8	n/a	n/a	n/a	n/a	n/a	n/a	n/a	n/a	n/a	n/a	n/a	n/a	n/a	n/a	n/a	n/a
320.91	n/a	PROB	160455	n/a	LTP200	ltpFR	8	n/a	n/a	n/a	n/a	n/a	n/a	n/a	25	8	9	8	n/a	n/a	n/a	n/a	n/a
323.788	n/a	PROB	161894	n/a	LTP200	ltpFR	8	n/a	n/a	n/a	n/a	n/a	n/a	n/a	8	2	2	4	n/a	n/a	n/a	n/a	n/a
325.868	n/a	PROB	162934	n/a	LTP200	ltpFR	8	n/a	n/a	n/a	n/a	n/a	n/a	n/a	18	4	6	8	n/a	n/a	n/a	n/a	n/a
327.36	n/a	STOP	163680	n/a	LTP200	ltpFR	8	n/a	n/a	n/a	n/a	n/a	n/a	n/a	n/a	n/a	n/a	n/a	n/a	n/a	n/a	n/a	n/a
328.514	n/a	WORD	164257	wordpools/wasnorm_wordpool_less_exclusions.txt	LTP200	ltpFR	8	1	0	THRONE	1461	0	n/a	1	n/a	0	0	0	0.422607421875	0.5869140625	0	upper	zerothre.ttf
331.528	n/a	START	165764	n/a	LTP200	ltpFR	8	n/a	n/a	n/a	n/a	n/a	n/a	n/a	n/a	n/a	n/a	n/a	n/a	n/a	n/a	n/a	n/a
332.392	n/a	PROB	166196	n/a	LTP200	ltpFR	8	n/a	n/a	n/a	n/a	n/a	n/a	n/a	20	3	9	8	n/a	n/a	n/a	n/a	n/a
334.472	n/a	PROB	167236	n/a	LTP200	ltpFR	8	n/a	n/a	n/a	n/a	n/a	n/a	n/a	15	6	7	2	n/a	n/a	n/a	n/a	n/a
336.67	n/a	PROB	168335	n/a	LTP200	ltpFR	8	n/a	n/a	n/a	n/a	n/a	n/a	n/a	11	1	2	8	n/a	n/a	n/a	n/a	n/a
338.616	n/a	STOP	169308	n/a	LTP200	ltpFR	8	n/a	n/a	n/a	n/a	n/a	n/a	n/a	n/a	n/a	n/a	n/a	n/a	n/a	n/a	n/a	n/a
340.614	n/a	WORD	170307	wordpools/wasnorm_wordpool_less_exclusions.txt	LTP200	ltpFR	8	1	0	OCEAN	970	n/a	n/a	1	n/a	0	0	0	0.422607421875	0.5869140625	0	upper	zerothre.ttf
343.626	n/a	START	171813	n/a	LTP200	ltpFR	8	n/a	n/a	n/a	n/a	n/a	n/a	n/a	n/a	n/a	n/a	n/a	n/a	n/a	n/a	n/a	n/a
344.54	n/a	PROB	172270	n/a	LTP200	ltpFR	8	n/a	n/a	n/a	n/a	n/a	n/a	n/a	12	3	3	6	n/a	n/a	n/a	n/a	n/a
346.504	n/a	PROB	173252	n/a	LTP200	ltpFR	8	n/a	n/a	n/a	n/a	n/a	n/a	n/a	20	7	8	5	n/a	n/a	n/a	n/a	n/a
349.384	n/a	PROB	174692	n/a	LTP200	ltpFR	8	n/a	n/a	n/a	n/a	n/a	n/a	n/a	16	6	2	8	n/a	n/a	n/a	n/a	n/a
351.024	n/a	STOP	175512	n/a	LTP200	ltpFR	8	n/a	n/a	n/a	n/a	n/a	n/a	n/a	n/a	n/a	n/a	n/a	n/a	n/a	n/a	n/a	n/a
352.478	n/a	WORD	176239	wordpools/wasnorm_wordpool_less_exclusions.txt	LTP200	ltpFR	8	1	0	PORPOISE	1109	n/a	n/a	1	n/a	0	0	0	0.422607421875	0.5869140625	0	upper	zerothre.ttf
355.492	n/a	START	177746	n/a	LTP200	ltpFR	8	n/a	n/a	n/a	n/a	n/a	n/a	n/a	n/a	n/a	n/a	n/a	n/a	n/a	n/a	n/a	n/a
356.34	n/a	PROB	178170	n/a	LTP200	ltpFR	8	n/a	n/a	n/a	n/a	n/a	n/a	n/a	10	6	2	2	n/a	n/a	n/a	n/a	n/a
358.204	n/a	PROB	179102	n/a	LTP200	ltpFR	8	n/a	n/a	n/a	n/a	n/a	n/a	n/a	13	3	4	6	n/a	n/a	n/a	n/a	n/a
360.468	n/a	PROB	180234	n/a	LTP200	ltpFR	8	n/a	n/a	n/a	n/a	n/a	n/a	n/a	14	7	4	3	n/a	n/a	n/a	n/a	n/a
362.08	n/a	STOP	181040	n/a	LTP200	ltpFR	8	n/a	n/a	n/a	n/a	n/a	n/a	n/a	n/a	n/a	n/a	n/a	n/a	n/a	n/a	n/a	n/a
364.478	n/a	WORD	182239	wordpools/wasnorm_wordpool_less_exclusions.txt	LTP200	ltpFR	8	1	0	DRIVEWAY	500	n/a	n/a	1	n/a	0	0	0	0.422607421875	0.5869140625	0	upper	zerothre.ttf
367.492	n/a	START	183746	n/a	LTP200	ltpFR	8	n/a	n/a	n/a	n/a	n/a	n/a	n/a	n/a	n/a	n/a	n/a	n/a	n/a	n/a	n/a	n/a
368.49	n/a	PROB	184245	n/a	LTP200	ltpFR	8	n/a	n/a	n/a	n/a	n/a	n/a	n/a	10	1	4	5	n/a	n/a	n/a	n/a	n/a
370.386	n/a	PROB	185193	n/a	LTP200	ltpFR	8	n/a	n/a	n/a	n/a	n/a	n/a	n/a	21	7	8	6	n/a	n/a	n/a	n/a	n/a
372.166	n/a	PROB	186083	n/a	LTP200	ltpFR	8	n/a	n/a	n/a	n/a	n/a	n/a	n/a	10	1	7	2	n/a	n/a	n/a	n/a	n/a
374.002	n/a	STOP	187001	n/a	LTP200	ltpFR	8	n/a	n/a	n/a	n/a	n/a	n/a	n/a	n/a	n/a	n/a	n/a	n/a	n/a	n/a	n/a	n/a
376.528	n/a	WORD	188264	wordpools/wasnorm_wordpool_less_exclusions.txt	LTP200	ltpFR	8	1	1	ENGINE	535	n/a	n/a	0	n/a	0	0	0	0.57763671875	0.412841796875	1	lower	amplitud.ttf
379.54	n/a	START	189770	n/a	LTP200	ltpFR	8	n/a	n/a	n/a	n/a	n/a	n/a	n/a	n/a	n/a	n/a	n/a	n/a	n/a	n/a	n/a	n/a
380.438	n/a	PROB	190219	n/a	LTP200	ltpFR	8	n/a	n/a	n/a	n/a	n/a	n/a	n/a	9	2	4	3	n/a	n/a	n/a	n/a	n/a
383.166	n/a	PROB	191583	n/a	LTP200	ltpFR	8	n/a	n/a	n/a	n/a	n/a	n/a	n/a	18	8	3	7	n/a	n/a	n/a	n/a	n/a
385.48	n/a	PROB	192740	n/a	LTP200	ltpFR	8	n/a	n/a	n/a	n/a	n/a	n/a	n/a	14	5	6	3	n/a	n/a	n/a	n/a	n/a
387.002	n/a	STOP	193501	n/a	LTP200	ltpFR	8	n/a	n/a	n/a	n/a	n/a	n/a	n/a	n/a	n/a	n/a	n/a	n/a	n/a	n/a	n/a	n/a
388.492	n/a	WORD	194246	wordpools/wasnorm_wordpool_less_exclusions.txt	LTP200	ltpFR	8	1	1	BEET	115	n/a	n/a	0	n/a	0	0	0	0.57763671875	0.412841796875	1	lower	amplitud.ttf
391.506	n/a	START	195753	n/a	LTP200	ltpFR	8	n/a	n/a	n/a	n/a	n/a	n/a	n/a	n/a	n/a	n/a	n/a	n/a	n/a	n/a	n/a	n/a
392.686	n/a	PROB	196343	n/a	LTP200	ltpFR	8	n/a	n/a	n/a	n/a	n/a	n/a	n/a	17	4	6	7	n/a	n/a	n/a	n/a	n/a
394.2	n/a	PROB	197100	n/a	LTP200	ltpFR	8	n/a	n/a	n/a	n/a	n/a	n/a	n/a	17	6	7	4	n/a	n/a	n/a	n/a	n/a
395.932	n/a	PROB	197966	n/a	LTP200	ltpFR	8	n/a	n/a	n/a	n/a	n/a	n/a	n/a	19	8	5	6	n/a	n/a	n/a	n/a	n/a
398.618	n/a	STOP	199309	n/a	LTP200	ltpFR	8	n/a	n/a	n/a	n/a	n/a	n/a	n/a	n/a	n/a	n/a	n/a	n/a	n/a	n/a	n/a	n/a
400.474	n/a	WORD	200237	wordpools/wasnorm_wordpool_less_exclusions.txt	LTP200	ltpFR	8	1	1	PASTRY	1022	n/a	n/a	0	n/a	0	0	0	0.57763671875	0.412841796875	1	lower	amplitud.ttf
403.488	n/a	START	201744	n/a	LTP200	ltpFR	8	n/a	n/a	n/a	n/a	n/a	n/a	n/a	n/a	n/a	n/a	n/a	n/a	n/a	n/a	n/a	n/a
404.486	n/a	PROB	202243	n/a	LTP200	ltpFR	8	n/a	n/a	n/a	n/a	n/a	n/a	n/a	16	8	1	7	n/a	n/a	n/a	n/a	n/a
406.866	n/a	PROB	203433	n/a	LTP200	ltpFR	8	n/a	n/a	n/a	n/a	n/a	n/a	n/a	13	4	1	8	n/a	n/a	n/a	n/a	n/a
408.562	n/a	PROB	204281	n/a	LTP200	ltpFR	8	n/a	n/a	n/a	n/a	n/a	n/a	n/a	19	7	6	6	n/a	n/a	n/a	n/a	n/a
411.072	n/a	STOP	205536	n/a	LTP200	ltpFR	8	n/a	n/a	n/a	n/a	n/a	n/a	n/a	n/a	n/a	n/a	n/a	n/a	n/a	n/a	n/a	n/a
412.556	n/a	WORD	206278	wordpools/wasnorm_wordpool_less_exclusions.txt	LTP200	ltpFR	8	1	1	IGLOO	734	n/a	n/a	0	n/a	0	0	0	0.57763671875	0.412841796875	1	lower	amplitud.ttf
415.57	n/a	START	207785	n/a	LTP200	ltpFR	8	n/a	n/a	n/a	n/a	n/a	n/a	n/a	n/a	n/a	n/a	n/a	n/a	n/a	n/a	n/a	n/a
416.568	n/a	PROB	208284	n/a	LTP200	ltpFR	8	n/a	n/a	n/a	n/a	n/a	n/a	n/a	18	6	8	4	n/a	n/a	n/a	n/a	n/a
418.58	n/a	PROB	209290	n/a	LTP200	ltpFR	8	n/a	n/a	n/a	n/a	n/a	n/a	n/a	14	6	5	3	n/a	n/a	n/a	n/a	n/a
420.062	n/a	PROB	210031	n/a	LTP200	ltpFR	8	n/a	n/a	n/a	n/a	n/a	n/a	n/a	16	5	7	4	n/a	n/a	n/a	n/a	n/a
422.466	n/a	STOP	211233	n/a	LTP200	ltpFR	8	n/a	n/a	n/a	n/a	n/a	n/a	n/a	n/a	n/a	n/a	n/a	n/a	n/a	n/a	n/a	n/a
424.606	n/a	WORD	212303	wordpools/wasnorm_wordpool_less_exclusions.txt	LTP200	ltpFR	8	1	1	GOAT	644	n/a	n/a	1	n/a	0	0	0	0.57763671875	0.412841796875	1	lower	amplitud.ttf
427.618	n/a	START	213809	n/a	LTP200	ltpFR	8	n/a	n/a	n/a	n/a	n/a	n/a	n/a	n/a	n/a	n/a	n/a	n/a	n/a	n/a	n/a	n/a
428.75	n/a	PROB	214375	n/a	LTP200	ltpFR	8	n/a	n/a	n/a	n/a	n/a	n/a	n/a	15	6	3	6	n/a	n/a	n/a	n/a	n/a
430.48	n/a	PROB	215240	n/a	LTP200	ltpFR	8	n/a	n/a	n/a	n/a	n/a	n/a	n/a	11	5	5	1	n/a	n/a	n/a	n/a	n/a
431.846	n/a	PROB	215923	n/a	LTP200	ltpFR	8	n/a	n/a	n/a	n/a	n/a	n/a	n/a	16	5	3	8	n/a	n/a	n/a	n/a	n/a
433.494	n/a	PROB	216747	n/a	LTP200	ltpFR	8	n/a	n/a	n/a	n/a	n/a	n/a	n/a	6	4	1	2	n/a	n/a	n/a	n/a	n/a
435.522	n/a	STOP	217761	n/a	LTP200	ltpFR	8	n/a	n/a	n/a	n/a	n/a	n/a	n/a	n/a	n/a	n/a	n/a	n/a	n/a	n/a	n/a	n/a
436.472	n/a	WORD	218236	wordpools/wasnorm_wordpool_less_exclusions.txt	LTP200	ltpFR	8	1	1	TELESCOPE	1446	n/a	n/a	0	n/a	0	0	0	0.57763671875	0.412841796875	1	lower	amplitud.ttf
439.484	n/a	START	219742	n/a	LTP200	ltpFR	8	n/a	n/a	n/a	n/a	n/a	n/a	n/a	n/a	n/a	n/a	n/a	n/a	n/a	n/a	n/a	n/a
440.5	n/a	PROB	220250	n/a	LTP200	ltpFR	8	n/a	n/a	n/a	n/a	n/a	n/a	n/a	19	6	8	5	n/a	n/a	n/a	n/a	n/a
443.728	n/a	PROB	221864	n/a	LTP200	ltpFR	8	n/a	n/a	n/a	n/a	n/a	n/a	n/a	7	3	1	3	n/a	n/a	n/a	n/a	n/a
445.208	n/a	PROB	222604	n/a	LTP200	ltpFR	8	n/a	n/a	n/a	n/a	n/a	n/a	n/a	17	5	5	7	n/a	n/a	n/a	n/a	n/a
446.578	n/a	STOP	223289	n/a	LTP200	ltpFR	8	n/a	n/a	n/a	n/a	n/a	n/a	n/a	n/a	n/a	n/a	n/a	n/a	n/a	n/a	n/a	n/a
448.52	n/a	WORD	224260	wordpools/wasnorm_wordpool_less_exclusions.txt	LTP200	ltpFR	8	1	0	KING	777	n/a	n/a	1	n/a	0	0	0	0.422607421875	0.5869140625	0	upper	zerothre.ttf
451.534	n/a	START	225767	n/a	LTP200	ltpFR	8	n/a	n/a	n/a	n/a	n/a	n/a	n/a	n/a	n/a	n/a	n/a	n/a	n/a	n/a	n/a	n/a
452.648	n/a	PROB	226324	n/a	LTP200	ltpFR	8	n/a	n/a	n/a	n/a	n/a	n/a	n/a	11	7	3	1	n/a	n/a	n/a	n/a	n/a
453.996	n/a	PROB	226998	n/a	LTP200	ltpFR	8	n/a	n/a	n/a	n/a	n/a	n/a	n/a	10	1	4	5	n/a	n/a	n/a	n/a	n/a
455.776	n/a	PROB	227888	n/a	LTP200	ltpFR	8	n/a	n/a	n/a	n/a	n/a	n/a	n/a	14	6	5	3	n/a	n/a	n/a	n/a	n/a
457.39	n/a	PROB	228695	n/a	LTP200	ltpFR	8	n/a	n/a	n/a	n/a	n/a	n/a	n/a	15	1	8	6	n/a	n/a	n/a	n/a	n/a
459.138	n/a	STOP	229569	n/a	LTP200	ltpFR	8	n/a	n/a	n/a	n/a	n/a	n/a	n/a	n/a	n/a	n/a	n/a	n/a	n/a	n/a	n/a	n/a
460.702	n/a	WORD	230351	wordpools/wasnorm_wordpool_less_exclusions.txt	LTP200	ltpFR	8	1	0	DOLLAR	482	n/a	n/a	0	n/a	0	0	0	0.422607421875	0.5869140625	0	upper	zerothre.ttf
463.716	n/a	START	231858	n/a	LTP200	ltpFR	8	n/a	n/a	n/a	n/a	n/a	n/a	n/a	n/a	n/a	n/a	n/a	n/a	n/a	n/a	n/a	n/a
464.796	n/a	PROB	232398	n/a	LTP200	ltpFR	8	n/a	n/a	n/a	n/a	n/a	n/a	n/a	24	6	9	9	n/a	n/a	n/a	n/a	n/a
467.376	n/a	PROB	233688	n/a	LTP200	ltpFR	8	n/a	n/a	n/a	n/a	n/a	n/a	n/a	11	7	1	3	n/a	n/a	n/a	n/a	n/a
471.642	n/a	STOP	235821	n/a	LTP200	ltpFR	8	n/a	n/a	n/a	n/a	n/a	n/a	n/a	n/a	n/a	n/a	n/a	n/a	n/a	n/a	n/a	n/a
472.652	n/a	WORD	236326	wordpools/wasnorm_wordpool_less_exclusions.txt	LTP200	ltpFR	8	1	0	KLEENEX	782	n/a	n/a	0	n/a	0	0	0	0.422607421875	0.5869140625	0	upper	zerothre.ttf
475.664	n/a	START	237832	n/a	LTP200	ltpFR	8	n/a	n/a	n/a	n/a	n/a	n/a	n/a	n/a	n/a	n/a	n/a	n/a	n/a	n/a	n/a	n/a
476.578	n/a	PROB	238289	n/a	LTP200	ltpFR	8	n/a	n/a	n/a	n/a	n/a	n/a	n/a	19	4	6	9	n/a	n/a	n/a	n/a	n/a
478.292	n/a	PROB	239146	n/a	LTP200	ltpFR	8	n/a	n/a	n/a	n/a	n/a	n/a	n/a	16	6	3	7	n/a	n/a	n/a	n/a	n/a
481.572	n/a	PROB	240786	n/a	LTP200	ltpFR	8	n/a	n/a	n/a	n/a	n/a	n/a	n/a	12	2	4	6	n/a	n/a	n/a	n/a	n/a
483.21	n/a	STOP	241605	n/a	LTP200	ltpFR	8	n/a	n/a	n/a	n/a	n/a	n/a	n/a	n/a	n/a	n/a	n/a	n/a	n/a	n/a	n/a	n/a
484.816	n/a	WORD	242408	wordpools/wasnorm_wordpool_less_exclusions.txt	LTP200	ltpFR	8	1	0	FUGITIVE	612	n/a	n/a	1	n/a	0	0	0	0.422607421875	0.5869140625	0	upper	zerothre.ttf
487.83	n/a	START	243915	n/a	LTP200	ltpFR	8	n/a	n/a	n/a	n/a	n/a	n/a	n/a	n/a	n/a	n/a	n/a	n/a	n/a	n/a	n/a	n/a
488.994	n/a	PROB	244497	n/a	LTP200	ltpFR	8	n/a	n/a	n/a	n/a	n/a	n/a	n/a	13	6	6	1	n/a	n/a	n/a	n/a	n/a
490.542	n/a	PROB	245271	n/a	LTP200	ltpFR	8	n/a	n/a	n/a	n/a	n/a	n/a	n/a	11	6	3	2	n/a	n/a	n/a	n/a	n/a
493.086	n/a	PROB	246543	n/a	LTP200	ltpFR	8	n/a	n/a	n/a	n/a	n/a	n/a	n/a	8	2	2	4	n/a	n/a	n/a	n/a	n/a
494.706	n/a	STOP	247353	n/a	LTP200	ltpFR	8	n/a	n/a	n/a	n/a	n/a	n/a	n/a	n/a	n/a	n/a	n/a	n/a	n/a	n/a	n/a	n/a
496.932	n/a	WORD	248466	wordpools/wasnorm_wordpool_less_exclusions.txt	LTP200	ltpFR	8	1	1	BANDIT	81	n/a	n/a	1	n/a	0	0	0	0.57763671875	0.412841796875	1	lower	amplitud.ttf
499.944	n/a	START	249972	n/a	LTP200	ltpFR	8	n/a	n/a	n/a	n/a	n/a	n/a	n/a	n/a	n/a	n/a	n/a	n/a	n/a	n/a	n/a	n/a
501.026	n/a	PROB	250513	n/a	LTP200	ltpFR	8	n/a	n/a	n/a	n/a	n/a	n/a	n/a	11	6	3	2	n/a	n/a	n/a	n/a	n/a
502.524	n/a	PROB	251262	n/a	LTP200	ltpFR	8	n/a	n/a	n/a	n/a	n/a	n/a	n/a	15	3	9	3	n/a	n/a	n/a	n/a	n/a
504.438	n/a	PROB	252219	n/a	LTP200	ltpFR	8	n/a	n/a	n/a	n/a	n/a	n/a	n/a	16	2	6	8	n/a	n/a	n/a	n/a	n/a
507.946	n/a	STOP	253973	n/a	LTP200	ltpFR	8	n/a	n/a	n/a	n/a	n/a	n/a	n/a	n/a	n/a	n/a	n/a	n/a	n/a	n/a	n/a	n/a
508.864	n/a	WORD	254432	wordpools/wasnorm_wordpool_less_exclusions.txt	LTP200	ltpFR	8	1	1	PRUNE	1134	n/a	n/a	0	n/a	0	0	0	0.57763671875	0.412841796875	1	lower	amplitud.ttf
511.878	n/a	START	255939	n/a	LTP200	ltpFR	8	n/a	n/a	n/a	n/a	n/a	n/a	n/a	n/a	n/a	n/a	n/a	n/a	n/a	n/a	n/a	n/a
512.726	n/a	PROB	256363	n/a	LTP200	ltpFR	8	n/a	n/a	n/a	n/a	n/a	n/a	n/a	11	5	1	5	n/a	n/a	n/a	n/a	n/a
514.09	n/a	PROB	257045	n/a	LTP200	ltpFR	8	n/a	n/a	n/a	n/a	n/a	n/a	n/a	16	9	1	6	n/a	n/a	n/a	n/a	n/a
515.622	n/a	PROB	257811	n/a	LTP200	ltpFR	8	n/a	n/a	n/a	n/a	n/a	n/a	n/a	13	4	5	4	n/a	n/a	n/a	n/a	n/a
517.602	n/a	PROB	258801	n/a	LTP200	ltpFR	8	n/a	n/a	n/a	n/a	n/a	n/a	n/a	17	9	2	6	n/a	n/a	n/a	n/a	n/a
519.516	n/a	STOP	259758	n/a	LTP200	ltpFR	8	n/a	n/a	n/a	n/a	n/a	n/a	n/a	n/a	n/a	n/a	n/a	n/a	n/a	n/a	n/a	n/a
521.762	n/a	REC_START	260881	n/a	LTP200	ltpFR	8	1	n/a	n/a	n/a	n/a	n/a	n/a	n/a	0	0	0	n/a	n/a	n/a	n/a	n/a
523.228	n/a	REC_WORD	261614	wordpools/wasnorm_wordpool_less_exclusions.txt	LTP200	ltpFR	8	1	0	FUGITIVE	612	n/a	n/a	1	n/a	0	0	0	n/a	n/a	n/a	n/a	n/a
524.606	n/a	REC_WORD	262303	wordpools/wasnorm_wordpool_less_exclusions.txt	LTP200	ltpFR	8	1	1	BANDIT	81	n/a	n/a	1	n/a	0	0	0	n/a	n/a	n/a	n/a	n/a
525.872	n/a	REC_WORD	262936	wordpools/wasnorm_wordpool_less_exclusions.txt	LTP200	ltpFR	8	1	0	KING	777	n/a	n/a	1	n/a	0	0	0	n/a	n/a	n/a	n/a	n/a
527.2	n/a	REC_WORD	263600	wordpools/wasnorm_wordpool_less_exclusions.txt	LTP200	ltpFR	8	1	0	KING	777	n/a	n/a	1	n/a	0	0	0	n/a	n/a	n/a	n/a	n/a
528.602	n/a	REC_WORD	264301	wordpools/wasnorm_wordpool_less_exclusions.txt	LTP200	ltpFR	8	1	0	OCEAN	970	n/a	n/a	1	n/a	0	0	0	n/a	n/a	n/a	n/a	n/a
530.008	n/a	REC_WORD	265004	wordpools/wasnorm_wordpool_less_exclusions.txt	LTP200	ltpFR	8	1	0	PORPOISE	1109	n/a	n/a	1	n/a	0	0	0	n/a	n/a	n/a	n/a	n/a
531.51	n/a	REC_WORD	265755	wordpools/wasnorm_wordpool_less_exclusions.txt	LTP200	ltpFR	8	1	1	BEET	115	n/a	n/a	0	n/a	0	0	0	n/a	n/a	n/a	n/a	n/a
532.976	n/a	REC_WORD	266488	wordpools/wasnorm_wordpool_less_exclusions.txt	LTP200	ltpFR	8	1	0	KLEENEX	782	n/a	n/a	0	n/a	0	0	0	n/a	n/a	n/a	n/a	n/a
609.982	n/a	WORD	304991	wordpools/wasnorm_wordpool_less_exclusions.txt	LTP200	ltpFR	8	2	0	REINDEER	1181	n/a	n/a	1	n/a	0	0	0	0.422607421875	0.5869140625	0	upper	zerothre.ttf
614.124	n/a	WORD	307062	wordpools/wasnorm_wordpool_less_exclusions.txt	LTP200	ltpFR	8	2	0	PUPPY	1144	n/a	n/a	1	n/a	0	0	0	0.422607421875	0.5869140625	0	upper	zerothre.ttf
618.118	n/a	WORD	309059	wordpools/wasnorm_wordpool_less_exclusions.txt	LTP200	ltpFR	8	2	0	KNOT	788	n/a	n/a	0	n/a	0	0	0	0.422607421875	0.5869140625	0	upper	zerothre.ttf
622.312	n/a	WORD	311156	wordpools/wasnorm_wordpool_less_exclusions.txt	LTP200	ltpFR	8	2	0	STRING	1394	n/a	n/a	0	n/a	0	0	0	0.422607421875	0.5869140625	0	upper	zerothre.ttf
626.14	n/a	WORD	313070	wordpools/wasnorm_wordpool_less_exclusions.txt	LTP200	ltpFR	8	2	0	JUDGE	761	n/a	n/a	1	n/a	0	0	0	0.422607421875	0.5869140625	0	upper	zerothre.ttf
629.968	n/a	WORD	314984	wordpools/wasnorm_wordpool_less_exclusions.txt	LTP200	ltpFR	8	2	0	POSSUM	1112	n/a	n/a	1	n/a	0	0	0	0.422607421875	0.5869140625	0	upper	zerothre.ttf
633.996	n/a	WORD	316998	wordpools/wasnorm_wordpool_less_exclusions.txt	LTP200	ltpFR	8	2	0	FLUTE	585	n/a	n/a	1	n/a	0	0	0	0.422607421875	0.5869140625	0	upper	zerothre.ttf
637.922	n/a	WORD	318961	wordpools/wasnorm_wordpool_less_exclusions.txt	LTP200	ltpFR	8	2	0	COLLAR	345	n/a	n/a	0	n/a	0	0	0	0.422607421875	0.5869140625	0	upper	zerothre.ttf
642.066	n/a	WORD	321033	wordpools/wasnorm_wordpool_less_exclusions.txt	LTP200	ltpFR	8	2	0	RUG	1215	n/a	n/a	1	n/a	0	0	0	0.422607421875	0.5869140625	0	upper	zerothre.ttf
646.16	n/a	WORD	323080	wordpools/wasnorm_wordpool_less_exclusions.txt	LTP200	ltpFR	8	2	0	LIPSTICK	829	n/a	n/a	0	n/a	0	0	0	0.422607421875	0.5869140625	0	upper	zerothre.ttf
650.022	n/a	WORD	325011	wordpools/wasnorm_wordpool_less_exclusions.txt	LTP200	ltpFR	8	2	0	FAUCET	555	n/a	n/a	0	n/a	0	0	0	0.422607421875	0.5869140625	0	upper	zerothre.ttf
654.032	n/a	WORD	327016	wordpools/wasnorm_wordpool_less_exclusions.txt	LTP200	ltpFR	8	2	0	SEA	1259	n/a	n/a	1	n/a	0	0	0	0.422607421875	0.5869140625	0	upper	zerothre.ttf
658.11	n/a	WORD	329055	wordpools/wasnorm_wordpool_less_exclusions.txt	LTP200	ltpFR	8	2	0	FARMER	553	n/a	n/a	1	n/a	0	0	0	0.422607421875	0.5869140625	0	upper	zerothre.ttf
662.136	n/a	WORD	331068	wordpools/wasnorm_wordpool_less_exclusions.txt	LTP200	ltpFR	8	2	0	HARP	689	n/a	n/a	1	n/a	0	0	0	0.422607421875	0.5869140625	0	upper	zerothre.ttf
666.314	n/a	WORD	333157	wordpools/wasnorm_wordpool_less_exclusions.txt	LTP200	ltpFR	8	2	0	CRAB	397	n/a	n/a	0	n/a	0	0	0	0.422607421875	0.5869140625	0	upper	zerothre.ttf
670.174	n/a	WORD	335087	wordpools/wasnorm_wordpool_less_exclusions.txt	LTP200	ltpFR	8	2	0	REEF	1177	n/a	n/a	1	n/a	0	0	0	0.422607421875	0.5869140625	0	upper	zerothre.ttf
673.188	n/a	START	336594	n/a	LTP200	ltpFR	8	n/a	n/a	n/a	n/a	n/a	n/a	n/a	n/a	n/a	n/a	n/a	n/a	n/a	n/a	n/a	n/a
674.152	n/a	PROB	337076	n/a	LTP200	ltpFR	8	n/a	n/a	n/a	n/a	n/a	n/a	n/a	9	4	4	1	n/a	n/a	n/a	n/a	n/a
676.05	n/a	PROB	338025	n/a	LTP200	ltpFR	8	n/a	n/a	n/a	n/a	n/a	n/a	n/a	24	9	9	6	n/a	n/a	n/a	n/a	n/a
678.364	n/a	PROB	339182	n/a	LTP200	ltpFR	8	n/a	n/a	n/a	n/a	n/a	n/a	n/a	15	7	1	7	n/a	n/a	n/a	n/a	n/a
679.622	n/a	STOP	339811	n/a	LTP200	ltpFR	8	n/a	n/a	n/a	n/a	n/a	n/a	n/a	n/a	n/a	n/a	n/a	n/a	n/a	n/a	n/a	n/a
682.958	n/a	REC_START	341479	n/a	LTP200	ltpFR	8	2	n/a	n/a	n/a	n/a	n/a	n/a	n/a	0	0	0	n/a	n/a	n/a	n/a	n/a
684.16	n/a	REC_WORD	342080	wordpools/wasnorm_wordpool_less_exclusions.txt	LTP200	ltpFR	8	2	0	REINDEER	1181	n/a	n/a	1	n/a	0	0	0	n/a	n/a	n/a	n/a	n/a
685.3	n/a	REC_WORD	342650	wordpools/wasnorm_wordpool_less_exclusions.txt	LTP200	ltpFR	8	2	0	PUPPY	1144	n/a	n/a	1	n/a	0	0	0	n/a	n/a	n/a	n/a	n/a
686.344	n/a	REC_WORD	343172	wordpools/wasnorm_wordpool_less_exclusions.txt	LTP200	ltpFR	8	2	0	JUDGE	761	n/a	n/a	1	n/a	0	0	0	n/a	n/a	n/a	n/a	n/a
687.542	n/a	REC_WORD	343771	wordpools/wasnorm_wordpool_less_exclusions.txt	LTP200	ltpFR	8	2	0	KNOT	788	n/a	n/a	0	n/a	0	0	0	n/a	n/a	n/a	n/a	n/a
688.594	n/a	REC_WORD	344297	wordpools/wasnorm_wordpool_less_exclusions.txt	LTP200	ltpFR	8	2	0	STRING	1394	n/a	n/a	0	n/a	0	0	0	n/a	n/a	n/a	n/a	n/a
690.026	n/a	REC_WORD	345013	wordpools/wasnorm_wordpool_less_exclusions.txt	LTP200	ltpFR	8	2	0	COLLAR	345	n/a	n/a	0	n/a	0	0	0	n/a	n/a	n/a	n/a	n/a
691.334	n/a	REC_WORD	345667	wordpools/wasnorm_wordpool_less_exclusions.txt	LTP200	ltpFR	8	2	0	FLUTE	585	n/a	n/a	1	n/a	0	0	0	n/a	n/a	n/a	n/a	n/a
692.656	n/a	REC_WORD	346328	wordpools/wasnorm_wordpool_less_exclusions.txt	LTP200	ltpFR	8	2	0	POSSUM	1112	n/a	n/a	1	n/a	0	0	0	n/a	n/a	n/a	n/a	n/a
708.844	n/a	REC_WORD	354422	wordpools/wasnorm_wordpool_less_exclusions.txt	LTP200	ltpFR	8	2	0	SEA	1259	n/a	n/a	1	n/a	0	0	0	n/a	n/a	n/a	n/a	n/a
711.582	n/a	REC_WORD	355791	wordpools/wasnorm_wordpool_less_exclusions.txt	LTP200	ltpFR	8	2	0	CRAB	397	n/a	n/a	0	n/a	0	0	0	n/a	n/a	n/a	n/a	n/a
762.756	n/a	WORD	381378	wordpools/wasnorm_wordpool_less_exclusions.txt	LTP200	ltpFR	8	3	1	COMMITTEE	355	n/a	n/a	1	n/a	0	0	0	0.57763671875	0.412841796875	1	lower	amplitud.ttf
766.948	n/a	WORD	383474	wordpools/wasnorm_wordpool_less_exclusions.txt	LTP200	ltpFR	8	3	1	RELATIVE	1182	n/a	n/a	1	n/a	0	0	0	0.57763671875	0.412841796875	1	lower	amplitud.ttf
771.058	n/a	WORD	385529	wordpools/wasnorm_wordpool_less_exclusions.txt	LTP200	ltpFR	8	3	1	FAMILY	550	n/a	n/a	1	n/a	0	0	0	0.57763671875	0.412841796875	1	lower	amplitud.ttf
775.07	n/a	WORD	387535	wordpools/wasnorm_wordpool_less_exclusions.txt	LTP200	ltpFR	8	3	1	TRUCK	1512	n/a	n/a	0	n/a	0	0	0	0.57763671875	0.412841796875	1	lower	amplitud.ttf
779.096	n/a	WORD	389548	wordpools/wasnorm_wordpool_less_exclusions.txt	LTP200	ltpFR	8	3	1	BUGGY	188	n/a	n/a	0	n/a	0	0	0	0.57763671875	0.412841796875	1	lower	amplitud.ttf
783.156	n/a	WORD	391578	wordpools/wasnorm_wordpool_less_exclusions.txt	LTP200	ltpFR	8	3	1	PAPER	1011	n/a	n/a	0	n/a	0	0	0	0.57763671875	0.412841796875	1	lower	amplitud.ttf
786.986	n/a	WORD	393493	wordpools/wasnorm_wordpool_less_exclusions.txt	LTP200	ltpFR	8	3	1	DIRECTOR	471	n/a	n/a	1	n/a	0	0	0	0.57763671875	0.412841796875	1	lower	amplitud.ttf
790.846	n/a	WORD	395423	wordpools/wasnorm_wordpool_less_exclusions.txt	LTP200	ltpFR	8	3	1	STUDENT	1395	n/a	n/a	1	n/a	0	0	0	0.57763671875	0.412841796875	1	lower	amplitud.ttf
794.908	n/a	WORD	397454	wordpools/wasnorm_wordpool_less_exclusions.txt	LTP200	ltpFR	8	3	1	TOE	1473	n/a	n/a	0	n/a	0	0	0	0.57763671875	0.412841796875	1	lower	amplitud.ttf
798.734	n/a	WORD	399367	wordpools/wasnorm_wordpool_less_exclusions.txt	LTP200	ltpFR	8	3	1	FLOOR	581	n/a	n/a	0	n/a	0	0	0	0.57763671875	0.412841796875	1	lower	amplitud.ttf
802.896	n/a	WORD	401448	wordpools/wasnorm_wordpool_less_exclusions.txt	LTP200	ltpFR	8	3	1	BOX	159	n/a	n/a	0	n/a	0	0	0	0.57763671875	0.412841796875	1	lower	amplitud.ttf
806.74	n/a	WORD	403370	wordpools/wasnorm_wordpool_less_exclusions.txt	LTP200	ltpFR	8	3	1	CHEDDAR	286	n/a	n/a	0	n/a	0	0	0	0.57763671875	0.412841796875	1	lower	amplitud.ttf
810.752	n/a	WORD	405376	wordpools/wasnorm_wordpool_less_exclusions.txt	LTP200	ltpFR	8	3	1	ATMOSPHERE	54	n/a	n/a	0	n/a	0	0	0	0.57763671875	0.412841796875	1	lower	amplitud.ttf
814.596	n/a	WORD	407298	wordpools/wasnorm_wordpool_less_exclusions.txt	LTP200	ltpFR	8	3	1	PLANT	1083	n/a	n/a	1	n/a	0	0	0	0.57763671875	0.412841796875	1	lower	amplitud.ttf
818.472	n/a	WORD	409236	wordpools/wasnorm_wordpool_less_exclusions.txt	LTP200	ltpFR	8	3	1	MAT	877	n/a	n/a	0	n/a	0	0	0	0.57763671875	0.412841796875	1	lower	amplitud.ttf
822.368	n/a	WORD	411184	wordpools/wasnorm_wordpool_less_exclusions.txt	LTP200	ltpFR	8	3	1	SOCK	1339	n/a	n/a	0	n/a	0	0	0	0.57763671875	0.412841796875	1	lower	amplitud.ttf
825.38	n/a	START	412690	n/a	LTP200	ltpFR	8	n/a	n/a	n/a	n/a	n/a	n/a	n/a	n/a	n/a	n/a	n/a	n/a	n/a	n/a	n/a	n/a
826.46	n/a	PROB	413230	n/a	LTP200	ltpFR	8	n/a	n/a	n/a	n/a	n/a	n/a	n/a	14	4	8	2	n/a	n/a	n/a	n/a	n/a
828.208	n/a	PROB	414104	n/a	LTP200	ltpFR	8	n/a	n/a	n/a	n/a	n/a	n/a	n/a	18	6	6	2	n/a	n/a	n/a	n/a	n/a
829.656	n/a	PROB	414828	n/a	LTP200	ltpFR	8	n/a	n/a	n/a	n/a	n/a	n/a	n/a	19	7	8	4	n/a	n/a	n/a	n/a	n/a
832.52	n/a	STOP	416260	n/a	LTP200	ltpFR	8	n/a	n/a	n/a	n/a	n/a	n/a	n/a	n/a	n/a	n/a	n/a	n/a	n/a	n/a	n/a	n/a
835.148	n/a	REC_START	417574	n/a	LTP200	ltpFR	8	3	n/a	n/a	n/a	n/a	n/a	n/a	n/a	0	0	0	n/a	n/a	n/a	n/a	n/a
836.55	n/a	REC_WORD	418275	wordpools/wasnorm_wordpool_less_exclusions.txt	LTP200	ltpFR	8	3	1	COMMITTEE	355	n/a	n/a	1	n/a	0	0	0	n/a	n/a	n/a	n/a	n/a
837.682	n/a	REC_WORD	418841	wordpools/wasnorm_wordpool_less_exclusions.txt	LTP200	ltpFR	8	3	1	FAMILY	550	n/a	n/a	1	n/a	0	0	0	n/a	n/a	n/a	n/a	n/a
839.008	n/a	REC_WORD	419504	wordpools/wasnorm_wordpool_less_exclusions.txt	LTP200	ltpFR	8	3	1	RELATIVE	1182	n/a	n/a	1	n/a	0	0	0	n/a	n/a	n/a	n/a	n/a
840.376	n/a	REC_WORD	420188	wordpools/wasnorm_wordpool_less_exclusions.txt	LTP200	ltpFR	8	3	1	DIRECTOR	471	n/a	n/a	1	n/a	0	0	0	n/a	n/a	n/a	n/a	n/a
841.842	n/a	REC_WORD	420921	wordpools/wasnorm_wordpool_less_exclusions.txt	LTP200	ltpFR	8	3	1	PAPER	1011	n/a	n/a	0	n/a	0	0	0	n/a	n/a	n/a	n/a	n/a
843.164	n/a	REC_WORD	421582	wordpools/wasnorm_wordpool_less_exclusions.txt	LTP200	ltpFR	8	3	1	PLANT	1083	n/a	n/a	1	n/a	0	0	0	n/a	n/a	n/a	n/a	n/a
844.636	n/a	REC_WORD	422318	wordpools/wasnorm_wordpool_less_exclusions.txt	LTP200	ltpFR	8	3	1	TOE	1473	n/a	n/a	0	n/a	0	0	0	n/a	n/a	n/a	n/a	n/a
845.968	n/a	REC_WORD	422984	wordpools/wasnorm_wordpool_less_exclusions.txt	LTP200	ltpFR	8	3	1	TRUCK	1512	n/a	n/a	0	n/a	0	0	0	n/a	n/a	n/a	n/a	n/a
847.47	n/a	REC_WORD	423735	wordpools/wasnorm_wordpool_less_exclusions.txt	LTP200	ltpFR	8	3	1	BUGGY	188	n/a	n/a	0	n/a	0	0	0	n/a	n/a	n/a	n/a	n/a
850.332	n/a	REC_WORD	425166	wordpools/wasnorm_wordpool_less_exclusions.txt	LTP200	ltpFR	8	3	1	FLOOR	581	n/a	n/a	0	n/a	0	0	0	n/a	n/a	n/a	n/a	n/a
851.84	n/a	REC_WORD	425920	wordpools/wasnorm_wordpool_less_exclusions.txt	LTP200	ltpFR	8	3	1	MAT	877	n/a	n/a	0	n/a	0	0	0	n/a	n/a	n/a	n/a	n/a
875.664	n/a	REC_WORD	437832	wordpools/wasnorm_wordpool_less_exclusions.txt	LTP200	ltpFR	8	3	1	STUDENT	1395	n/a	n/a	1	n/a	0	0	0	n/a	n/a	n/a	n/a	n/a
915.228	n/a	START	457614	n/a	LTP200	ltpFR	8	n/a	n/a	n/a	n/a	n/a	n/a	n/a	n/a	n/a	n/a	n/a	n/a	n/a	n/a	n/a	n/a
916.744	n/a	PROB	458372	n/a	LTP200	ltpFR	8	n/a	n/a	n/a	n/a	n/a	n/a	n/a	7	3	2	2	n/a	n/a	n/a	n/a	n/a
919.008	n/a	PROB	459504	n/a	LTP200	ltpFR	8	n/a	n/a	n/a	n/a	n/a	n/a	n/a	11	2	6	3	n/a	n/a	n/a	n/a	n/a
920.92	n/a	PROB	460460	n/a	LTP200	ltpFR	8	n/a	n/a	n/a	n/a	n/a	n/a	n/a	24	6	8	8	n/a	n/a	n/a	n/a	n/a
922.664	n/a	STOP	461332	n/a	LTP200	ltpFR	8	n/a	n/a	n/a	n/a	n/a	n/a	n/a	n/a	n/a	n/a	n/a	n/a	n/a	n/a	n/a	n/a
924.198	n/a	WORD	462099	wordpools/wasnorm_wordpool_less_exclusions.txt	LTP200	ltpFR	8	4	0	FELLOW	558	n/a	n/a	1	n/a	0	0	0	0.422607421875	0.5869140625	0	upper	zerothre.ttf
927.21	n/a	START	463605	n/a	LTP200	ltpFR	8	n/a	n/a	n/a	n/a	n/a	n/a	n/a	n/a	n/a	n/a	n/a	n/a	n/a	n/a	n/a	n/a
928.126	n/a	PROB	464063	n/a	LTP200	ltpFR	8	n/a	n/a	n/a	n/a	n/a	n/a	n/a	11	1	2	8	n/a	n/a	n/a	n/a	n/a
929.94	n/a	PROB	464970	n/a	LTP200	ltpFR	8	n/a	n/a	n/a	n/a	n/a	n/a	n/a	18	6	7	5	n/a	n/a	n/a	n/a	n/a
932.302	n/a	PROB	466151	n/a	LTP200	ltpFR	8	n/a	n/a	n/a	n/a	n/a	n/a	n/a	18	8	8	2	n/a	n/a	n/a	n/a	n/a
933.928	n/a	STOP	466964	n/a	LTP200	ltpFR	8	n/a	n/a	n/a	n/a	n/a	n/a	n/a	n/a	n/a	n/a	n/a	n/a	n/a	n/a	n/a	n/a
936.048	n/a	WORD	468024	wordpools/wasnorm_wordpool_less_exclusions.txt	LTP200	ltpFR	8	4	0	GUEST	669	n/a	n/a	1	n/a	0	0	0	0.422607421875	0.5869140625	0	upper	zerothre.ttf
939.06	n/a	START	469530	n/a	LTP200	ltpFR	8	n/a	n/a	n/a	n/a	n/a	n/a	n/a	n/a	n/a	n/a	n/a	n/a	n/a	n/a	n/a	n/a
940.124	n/a	PROB	470062	n/a	LTP200	ltpFR	8	n/a	n/a	n/a	n/a	n/a	n/a	n/a	15	5	2	8	n/a	n/a	n/a	n/a	n/a
941.872	n/a	PROB	470936	n/a	LTP200	ltpFR	8	n/a	n/a	n/a	n/a	n/a	n/a	n/a	12	4	7	1	n/a	n/a	n/a	n/a	n/a
944.068	n/a	PROB	472034	n/a	LTP200	ltpFR	8	n/a	n/a	n/a	n/a	n/a	n/a	n/a	19	8	8	3	n/a	n/a	n/a	n/a	n/a
946.144	n/a	STOP	473072	n/a	LTP200	ltpFR	8	n/a	n/a	n/a	n/a	n/a	n/a	n/a	n/a	n/a	n/a	n/a	n/a	n/a	n/a	n/a	n/a
948.112	n/a	WORD	474056	wordpools/wasnorm_wordpool_less_exclusions.txt	LTP200	ltpFR	8	4	0	COLESLAW	344	n/a	n/a	0	n/a	0	0	0	0.422607421875	0.5869140625	0	upper	zerothre.ttf
951.126	n/a	START	475563	n/a	LTP200	ltpFR	8	n/a	n/a	n/a	n/a	n/a	n/a	n/a	n/a	n/a	n/a	n/a	n/a	n/a	n/a	n/a	n/a
952.09	n/a	PROB	476045	n/a	LTP200	ltpFR	8	n/a	n/a	n/a	n/a	n/a	n/a	n/a	16	1	9	6	n/a	n/a	n/a	n/a	n/a
953.656	n/a	PROB	476828	n/a	LTP200	ltpFR	8	n/a	n/a	n/a	n/a	n/a	n/a	n/a	17	2	8	7	n/a	n/a	n/a	n/a	n/a
955.252	n/a	PROB	477626	n/a	LTP200	ltpFR	8	n/a	n/a	n/a	n/a	n/a	n/a	n/a	15	2	6	7	n/a	n/a	n/a	n/a	n/a
959.126	n/a	STOP	479563	n/a	LTP200	ltpFR	8	n/a	n/a	n/a	n/a	n/a	n/a	n/a	n/a	n/a	n/a	n/a	n/a	n/a	n/a	n/a	n/a
959.98	n/a	WORD	479990	wordpools/wasnorm_wordpool_less_exclusions.txt	LTP200	ltpFR	8	4	0	ONION	977	n/a	n/a	0	n/a	0	0	0	0.422607421875	0.5869140625	0	upper	zerothre.ttf
962.992	n/a	START	481496	n/a	LTP200	ltpFR	8	n/a	n/a	n/a	n/a	n/a	n/a	n/a	n/a	n/a	n/a	n/a	n/a	n/a	n/a	n/a	n/a
963.824	n/a	PROB	481912	n/a	LTP200	ltpFR	8	n/a	n/a	n/a	n/a	n/a	n/a	n/a	17	7	4	6	n/a	n/a	n/a	n/a	n/a
966.27	n/a	PROB	483135	n/a	LTP200	ltpFR	8	n/a	n/a	n/a	n/a	n/a	n/a	n/a	17	8	2	7	n/a	n/a	n/a	n/a	n/a
970.992	n/a	STOP	485496	n/a	LTP200	ltpFR	8	n/a	n/a	n/a	n/a	n/a	n/a	n/a	n/a	n/a	n/a	n/a	n/a	n/a	n/a	n/a	n/a
972.046	n/a	WORD	486023	wordpools/wasnorm_wordpool_less_exclusions.txt	LTP200	ltpFR	8	4	0	QUARTER	1148	n/a	n/a	0	n/a	0	0	0	0.422607421875	0.5869140625	0	upper	zerothre.ttf
975.058	n/a	START	487529	n/a	LTP200	ltpFR	8	n/a	n/a	n/a	n/a	n/a	n/a	n/a	n/a	n/a	n/a	n/a	n/a	n/a	n/a	n/a	n/a
975.906	n/a	PROB	487953	n/a	LTP200	ltpFR	8	n/a	n/a	n/a	n/a	n/a	n/a	n/a	17	2	7	8	n/a	n/a	n/a	n/a	n/a
978.268	n/a	PROB	489134	n/a	LTP200	ltpFR	8	n/a	n/a	n/a	n/a	n/a	n/a	n/a	12	5	3	4	n/a	n/a	n/a	n/a	n/a
980.334	n/a	PROB	490167	n/a	LTP200	ltpFR	8	n/a	n/a	n/a	n/a	n/a	n/a	n/a	21	9	5	7	n/a	n/a	n/a	n/a	n/a
982.45	n/a	STOP	491225	n/a	LTP200	ltpFR	8	n/a	n/a	n/a	n/a	n/a	n/a	n/a	n/a	n/a	n/a	n/a	n/a	n/a	n/a	n/a	n/a
983.994	n/a	WORD	491997	wordpools/wasnorm_wordpool_less_exclusions.txt	LTP200	ltpFR	8	4	0	DOORBELL	487	n/a	n/a	0	n/a	0	0	0	0.422607421875	0.5869140625	0	upper	zerothre.ttf
987.006	n/a	START	493503	n/a	LTP200	ltpFR	8	n/a	n/a	n/a	n/a	n/a	n/a	n/a	n/a	n/a	n/a	n/a	n/a	n/a	n/a	n/a	n/a
988.022	n/a	PROB	494011	n/a	LTP200	ltpFR	8	n/a	n/a	n/a	n/a	n/a	n/a	n/a	13	3	6	4	n/a	n/a	n/a	n/a	n/a
990.118	n/a	PROB	495059	n/a	LTP200	ltpFR	8	n/a	n/a	n/a	n/a	n/a	n/a	n/a	12	2	4	6	n/a	n/a	n/a	n/a	n/a
992.098	n/a	PROB	496049	n/a	LTP200	ltpFR	8	n/a	n/a	n/a	n/a	n/a	n/a	n/a	14	4	7	3	n/a	n/a	n/a	n/a	n/a
993.906	n/a	STOP	496953	n/a	LTP200	ltpFR	8	n/a	n/a	n/a	n/a	n/a	n/a	n/a	n/a	n/a	n/a	n/a	n/a	n/a	n/a	n/a	n/a
996.026	n/a	WORD	498013	wordpools/wasnorm_wordpool_less_exclusions.txt	LTP200	ltpFR	8	4	0	GARBAGE	622	n/a	n/a	0	n/a	0	0	0	0.422607421875	0.5869140625	0	upper	zerothre.ttf
999.038	n/a	START	499519	n/a	LTP200	ltpFR	8	n/a	n/a	n/a	n/a	n/a	n/a	n/a	n/a	n/a	n/a	n/a	n/a	n/a	n/a	n/a	n/a
999.97	n/a	PROB	499985	n/a	LTP200	ltpFR	8	n/a	n/a	n/a	n/a	n/a	n/a	n/a	14	5	1	8	n/a	n/a	n/a	n/a	n/a
1002.35	n/a	PROB	501175	n/a	LTP200	ltpFR	8	n/a	n/a	n/a	n/a	n/a	n/a	n/a	12	1	6	5	n/a	n/a	n/a	n/a	n/a
1007.038	n/a	STOP	503519	n/a	LTP200	ltpFR	8	n/a	n/a	n/a	n/a	n/a	n/a	n/a	n/a	n/a	n/a	n/a	n/a	n/a	n/a	n/a	n/a
1008.074	n/a	WORD	504037	wordpools/wasnorm_wordpool_less_exclusions.txt	LTP200	ltpFR	8	4	0	PEACH	1031	n/a	n/a	0	n/a	0	0	0	0.422607421875	0.5869140625	0	upper	zerothre.ttf
1011.086	n/a	START	505543	n/a	LTP200	ltpFR	8	n/a	n/a	n/a	n/a	n/a	n/a	n/a	n/a	n/a	n/a	n/a	n/a	n/a	n/a	n/a	n/a
1012.202	n/a	PROB	506101	n/a	LTP200	ltpFR	8	n/a	n/a	n/a	n/a	n/a	n/a	n/a	21	9	9	3	n/a	n/a	n/a	n/a	n/a
1014.482	n/a	PROB	507241	n/a	LTP200	ltpFR	8	n/a	n/a	n/a	n/a	n/a	n/a	n/a	11	2	4	5	n/a	n/a	n/a	n/a	n/a
1016.362	n/a	PROB	508181	n/a	LTP200	ltpFR	8	n/a	n/a	n/a	n/a	n/a	n/a	n/a	10	1	7	2	n/a	n/a	n/a	n/a	n/a
1018.296	n/a	STOP	509148	n/a	LTP200	ltpFR	8	n/a	n/a	n/a	n/a	n/a	n/a	n/a	n/a	n/a	n/a	n/a	n/a	n/a	n/a	n/a	n/a
1020.222	n/a	WORD	510111	wordpools/wasnorm_wordpool_less_exclusions.txt	LTP200	ltpFR	8	4	0	NOTEBOOK	959	n/a	n/a	0	n/a	0	0	0	0.422607421875	0.5869140625	0	upper	zerothre.ttf
1023.236	n/a	START	511618	n/a	LTP200	ltpFR	8	n/a	n/a	n/a	n/a	n/a	n/a	n/a	n/a	n/a	n/a	n/a	n/a	n/a	n/a	n/a	n/a
1024.35	n/a	PROB	512175	n/a	LTP200	ltpFR	8	n/a	n/a	n/a	n/a	n/a	n/a	n/a	12	8	2	2	n/a	n/a	n/a	n/a	n/a
1025.882	n/a	PROB	512941	n/a	LTP200	ltpFR	8	n/a	n/a	n/a	n/a	n/a	n/a	n/a	25	9	7	9	n/a	n/a	n/a	n/a	n/a
1029.012	n/a	PROB	514506	n/a	LTP200	ltpFR	8	n/a	n/a	n/a	n/a	n/a	n/a	n/a	22	8	6	8	n/a	n/a	n/a	n/a	n/a
1031.13	n/a	STOP	515565	n/a	LTP200	ltpFR	8	n/a	n/a	n/a	n/a	n/a	n/a	n/a	n/a	n/a	n/a	n/a	n/a	n/a	n/a	n/a	n/a
1032.256	n/a	WORD	516128	wordpools/wasnorm_wordpool_less_exclusions.txt	LTP200	ltpFR	8	4	0	DIPLOMA	470	n/a	n/a	0	n/a	0	0	0	0.422607421875	0.5869140625	0	upper	zerothre.ttf
1035.268	n/a	START	517634	n/a	LTP200	ltpFR	8	n/a	n/a	n/a	n/a	n/a	n/a	n/a	n/a	n/a	n/a	n/a	n/a	n/a	n/a	n/a	n/a
1036.384	n/a	PROB	518192	n/a	LTP200	ltpFR	8	n/a	n/a	n/a	n/a	n/a	n/a	n/a	19	8	2	9	n/a	n/a	n/a	n/a	n/a
1037.982	n/a	PROB	518991	n/a	LTP200	ltpFR	8	n/a	n/a	n/a	n/a	n/a	n/a	n/a	9	1	2	6	n/a	n/a	n/a	n/a	n/a
1039.928	n/a	PROB	519964	n/a	LTP200	ltpFR	8	n/a	n/a	n/a	n/a	n/a	n/a	n/a	16	3	7	6	n/a	n/a	n/a	n/a	n/a
1043.05	n/a	STOP	521525	n/a	LTP200	ltpFR	8	n/a	n/a	n/a	n/a	n/a	n/a	n/a	n/a	n/a	n/a	n/a	n/a	n/a	n/a	n/a	n/a
1044.422	n/a	WORD	522211	wordpools/wasnorm_wordpool_less_exclusions.txt	LTP200	ltpFR	8	4	0	PAWN	1030	n/a	n/a	0	n/a	0	0	0	0.422607421875	0.5869140625	0	upper	zerothre.ttf
1047.434	n/a	START	523717	n/a	LTP200	ltpFR	8	n/a	n/a	n/a	n/a	n/a	n/a	n/a	n/a	n/a	n/a	n/a	n/a	n/a	n/a	n/a	n/a
1048.482	n/a	PROB	524241	n/a	LTP200	ltpFR	8	n/a	n/a	n/a	n/a	n/a	n/a	n/a	20	9	9	2	n/a	n/a	n/a	n/a	n/a
1050.312	n/a	PROB	525156	n/a	LTP200	ltpFR	8	n/a	n/a	n/a	n/a	n/a	n/a	n/a	6	2	3	1	n/a	n/a	n/a	n/a	n/a
1051.76	n/a	PROB	525880	n/a	LTP200	ltpFR	8	n/a	n/a	n/a	n/a	n/a	n/a	n/a	12	6	3	3	n/a	n/a	n/a	n/a	n/a
1054.09	n/a	STOP	527045	n/a	LTP200	ltpFR	8	n/a	n/a	n/a	n/a	n/a	n/a	n/a	n/a	n/a	n/a	n/a	n/a	n/a	n/a	n/a	n/a
1056.604	n/a	WORD	528302	wordpools/wasnorm_wordpool_less_exclusions.txt	LTP200	ltpFR	8	4	0	LEVER	815	n/a	n/a	0	n/a	0	0	0	0.422607421875	0.5869140625	0	upper	zerothre.ttf
1059.616	n/a	START	529808	n/a	LTP200	ltpFR	8	n/a	n/a	n/a	n/a	n/a	n/a	n/a	n/a	n/a	n/a	n/a	n/a	n/a	n/a	n/a	n/a
1060.58	n/a	PROB	530290	n/a	LTP200	ltpFR	8	n/a	n/a	n/a	n/a	n/a	n/a	n/a	9	3	5	1	n/a	n/a	n/a	n/a	n/a
1062.678	n/a	PROB	531339	n/a	LTP200	ltpFR	8	n/a	n/a	n/a	n/a	n/a	n/a	n/a	11	1	6	4	n/a	n/a	n/a	n/a	n/a
1064.258	n/a	PROB	532129	n/a	LTP200	ltpFR	8	n/a	n/a	n/a	n/a	n/a	n/a	n/a	16	9	3	4	n/a	n/a	n/a	n/a	n/a
1066.274	n/a	STOP	533137	n/a	LTP200	ltpFR	8	n/a	n/a	n/a	n/a	n/a	n/a	n/a	n/a	n/a	n/a	n/a	n/a	n/a	n/a	n/a	n/a
1068.636	n/a	WORD	534318	wordpools/wasnorm_wordpool_less_exclusions.txt	LTP200	ltpFR	8	4	0	ERASER	538	n/a	n/a	0	n/a	0	0	0	0.422607421875	0.5869140625	0	upper	zerothre.ttf
1071.648	n/a	START	535824	n/a	LTP200	ltpFR	8	n/a	n/a	n/a	n/a	n/a	n/a	n/a	n/a	n/a	n/a	n/a	n/a	n/a	n/a	n/a	n/a
1072.73	n/a	PROB	536365	n/a	LTP200	ltpFR	8	n/a	n/a	n/a	n/a	n/a	n/a	n/a	21	4	9	8	n/a	n/a	n/a	n/a	n/a
1074.842	n/a	PROB	537421	n/a	LTP200	ltpFR	8	n/a	n/a	n/a	n/a	n/a	n/a	n/a	10	3	4	3	n/a	n/a	n/a	n/a	n/a
1076.624	n/a	PROB	538312	n/a	LTP200	ltpFR	8	n/a	n/a	n/a	n/a	n/a	n/a	n/a	18	9	1	8	n/a	n/a	n/a	n/a	n/a
1078.37	n/a	STOP	539185	n/a	LTP200	ltpFR	8	n/a	n/a	n/a	n/a	n/a	n/a	n/a	n/a	n/a	n/a	n/a	n/a	n/a	n/a	n/a	n/a
1080.834	n/a	WORD	540417	wordpools/wasnorm_wordpool_less_exclusions.txt	LTP200	ltpFR	8	4	0	CITRUS	313	n/a	n/a	0	n/a	0	0	0	0.422607421875	0.5869140625	0	upper	zerothre.ttf
1083.846	n/a	START	541923	n/a	LTP200	ltpFR	8	n/a	n/a	n/a	n/a	n/a	n/a	n/a	n/a	n/a	n/a	n/a	n/a	n/a	n/a	n/a	n/a
1084.794	n/a	PROB	542397	n/a	LTP200	ltpFR	8	n/a	n/a	n/a	n/a	n/a	n/a	n/a	15	3	5	7	n/a	n/a	n/a	n/a	n/a
1086.542	n/a	PROB	543271	n/a	LTP200	ltpFR	8	n/a	n/a	n/a	n/a	n/a	n/a	n/a	15	3	5	7	n/a	n/a	n/a	n/a	n/a
1088.106	n/a	PROB	544053	n/a	LTP200	ltpFR	8	n/a	n/a	n/a	n/a	n/a	n/a	n/a	20	9	6	5	n/a	n/a	n/a	n/a	n/a
1089.97	n/a	PROB	544985	n/a	LTP200	ltpFR	8	n/a	n/a	n/a	n/a	n/a	n/a	n/a	11	1	4	6	n/a	n/a	n/a	n/a	n/a
1091.346	n/a	STOP	545673	n/a	LTP200	ltpFR	8	n/a	n/a	n/a	n/a	n/a	n/a	n/a	n/a	n/a	n/a	n/a	n/a	n/a	n/a	n/a	n/a
1092.682	n/a	WORD	546341	wordpools/wasnorm_wordpool_less_exclusions.txt	LTP200	ltpFR	8	4	0	RESTAURANT	1187	n/a	n/a	1	n/a	0	0	0	0.422607421875	0.5869140625	0	upper	zerothre.ttf
1095.696	n/a	START	547848	n/a	LTP200	ltpFR	8	n/a	n/a	n/a	n/a	n/a	n/a	n/a	n/a	n/a	n/a	n/a	n/a	n/a	n/a	n/a	n/a
1096.76	n/a	PROB	548380	n/a	LTP200	ltpFR	8	n/a	n/a	n/a	n/a	n/a	n/a	n/a	24	8	9	7	n/a	n/a	n/a	n/a	n/a
1101.97	n/a	PROB	550985	n/a	LTP200	ltpFR	8	n/a	n/a	n/a	n/a	n/a	n/a	n/a	17	1	9	7	n/a	n/a	n/a	n/a	n/a
1103.572	n/a	STOP	551786	n/a	LTP200	ltpFR	8	n/a	n/a	n/a	n/a	n/a	n/a	n/a	n/a	n/a	n/a	n/a	n/a	n/a	n/a	n/a	n/a
1104.616	n/a	WORD	552308	wordpools/wasnorm_wordpool_less_exclusions.txt	LTP200	ltpFR	8	4	0	CHAIRPERSON	275	n/a	n/a	1	n/a	0	0	0	0.422607421875	0.5869140625	0	upper	zerothre.ttf
1107.628	n/a	START	553814	n/a	LTP200	ltpFR	8	n/a	n/a	n/a	n/a	n/a	n/a	n/a	n/a	n/a	n/a	n/a	n/a	n/a	n/a	n/a	n/a
1108.676	n/a	PROB	554338	n/a	LTP200	ltpFR	8	n/a	n/a	n/a	n/a	n/a	n/a	n/a	15	3	4	8	n/a	n/a	n/a	n/a	n/a
1110.79	n/a	PROB	555395	n/a	LTP200	ltpFR	8	n/a	n/a	n/a	n/a	n/a	n/a	n/a	14	5	4	5	n/a	n/a	n/a	n/a	n/a
1112.154	n/a	PROB	556077	n/a	LTP200	ltpFR	8	n/a	n/a	n/a	n/a	n/a	n/a	n/a	11	7	2	2	n/a	n/a	n/a	n/a	n/a
1115.628	n/a	STOP	557814	n/a	LTP200	ltpFR	8	n/a	n/a	n/a	n/a	n/a	n/a	n/a	n/a	n/a	n/a	n/a	n/a	n/a	n/a	n/a	n/a
1117.414	n/a	REC_START	558707	n/a	LTP200	ltpFR	8	4	n/a	n/a	n/a	n/a	n/a	n/a	n/a	0	0	0	n/a	n/a	n/a	n/a	n/a
1119.2	n/a	REC_WORD	559600	wordpools/wasnorm_wordpool_less_exclusions.txt	LTP200	ltpFR	8	4	0	CHAIRPERSON	275	n/a	n/a	1	n/a	0	0	0	n/a	n/a	n/a	n/a	n/a
1120.432	n/a	REC_WORD	560216	wordpools/wasnorm_wordpool_less_exclusions.txt	LTP200	ltpFR	8	4	0	COLESLAW	344	n/a	n/a	0	n/a	0	0	0	n/a	n/a	n/a	n/a	n/a
1121.784	n/a	REC_WORD	560892	wordpools/wasnorm_wordpool_less_exclusions.txt	LTP200	ltpFR	8	4	0	ONION	977	n/a	n/a	0	n/a	0	0	0	n/a	n/a	n/a	n/a	n/a
1123.252	n/a	REC_WORD	561626	wordpools/wasnorm_wordpool_less_exclusions.txt	LTP200	ltpFR	8	4	0	PEACH	1031	n/a	n/a	0	n/a	0	0	0	n/a	n/a	n/a	n/a	n/a
1124.564	n/a	REC_WORD	562282	wordpools/wasnorm_wordpool_less_exclusions.txt	LTP200	ltpFR	8	4	0	PAWN	1030	n/a	n/a	0	n/a	0	0	0	n/a	n/a	n/a	n/a	n/a
1125.994	n/a	REC_WORD	562997	wordpools/wasnorm_wordpool_less_exclusions.txt	LTP200	ltpFR	8	4	0	LEVER	815	n/a	n/a	0	n/a	0	0	0	n/a	n/a	n/a	n/a	n/a
1127.536	n/a	REC_WORD	563768	wordpools/wasnorm_wordpool_less_exclusions.txt	LTP200	ltpFR	8	4	0	RESTAURANT	1187	n/a	n/a	1	n/a	0	0	0	n/a	n/a	n/a	n/a	n/a
1203.802	n/a	WORD	601901	wordpools/wasnorm_wordpool_less_exclusions.txt	LTP200	ltpFR	8	5	1	FOUNTAIN	597	n/a	n/a	0	n/a	0	0	0	0.57763671875	0.412841796875	1	lower	amplitud.ttf
1207.68	n/a	WORD	603840	wordpools/wasnorm_wordpool_less_exclusions.txt	LTP200	ltpFR	8	5	1	BATTERY	101	n/a	n/a	0	n/a	0	0	0	0.57763671875	0.412841796875	1	lower	amplitud.ttf
1211.69	n/a	WORD	605845	wordpools/wasnorm_wordpool_less_exclusions.txt	LTP200	ltpFR	8	5	0	LUGGAGE	847	n/a	n/a	1	n/a	0	0	0	0.422607421875	0.5869140625	0	upper	zerothre.ttf
1215.584	n/a	WORD	607792	wordpools/wasnorm_wordpool_less_exclusions.txt	LTP200	ltpFR	8	5	0	SUITCASE	1403	n/a	n/a	1	n/a	0	0	0	0.422607421875	0.5869140625	0	upper	zerothre.ttf
1219.696	n/a	WORD	609848	wordpools/wasnorm_wordpool_less_exclusions.txt	LTP200	ltpFR	8	5	1	ROOM	1206	n/a	n/a	0	n/a	0	0	0	0.57763671875	0.412841796875	1	lower	amplitud.ttf
1223.888	n/a	WORD	611944	wordpools/wasnorm_wordpool_less_exclusions.txt	LTP200	ltpFR	8	5	1	GORILLA	650	n/a	n/a	1	n/a	0	0	0	0.57763671875	0.412841796875	1	lower	amplitud.ttf
1227.932	n/a	WORD	613966	wordpools/wasnorm_wordpool_less_exclusions.txt	LTP200	ltpFR	8	5	1	SALIVA	1226	n/a	n/a	0	n/a	0	0	0	0.57763671875	0.412841796875	1	lower	amplitud.ttf
1231.96	n/a	WORD	615980	wordpools/wasnorm_wordpool_less_exclusions.txt	LTP200	ltpFR	8	5	0	PUDDLE	1140	n/a	n/a	1	n/a	0	0	0	0.422607421875	0.5869140625	0	upper	zerothre.ttf
1235.82	n/a	WORD	617910	wordpools/wasnorm_wordpool_less_exclusions.txt	LTP200	ltpFR	8	5	0	TIDE	1465	n/a	n/a	1	n/a	0	0	0	0.422607421875	0.5869140625	0	upper	zerothre.ttf
1239.848	n/a	WORD	619924	wordpools/wasnorm_wordpool_less_exclusions.txt	LTP200	ltpFR	8	5	0	SCALE	1241	n/a	n/a	1	n/a	0	0	0	0.422607421875	0.5869140625	0	upper	zerothre.ttf
1243.676	n/a	WORD	621838	wordpools/wasnorm_wordpool_less_exclusions.txt	LTP200	ltpFR	8	5	0	COD	340	n/a	n/a	0	n/a	0	0	0	0.422607421875	0.5869140625	0	upper	zerothre.ttf
1247.804	n/a	WORD	623902	wordpools/wasnorm_wordpool_less_exclusions.txt	LTP200	ltpFR	8	5	0	COBBLER	335	n/a	n/a	0	n/a	0	0	0	0.422607421875	0.5869140625	0	upper	zerothre.ttf
1251.914	n/a	WORD	625957	wordpools/wasnorm_wordpool_less_exclusions.txt	LTP200	ltpFR	8	5	0	SERPENT	1270	n/a	n/a	0	n/a	0	0	0	0.422607421875	0.5869140625	0	upper	zerothre.ttf
1256.124	n/a	WORD	628062	wordpools/wasnorm_wordpool_less_exclusions.txt	LTP200	ltpFR	8	5	1	WHEEL	1603	n/a	n/a	0	n/a	0	0	0	0.57763671875	0.412841796875	1	lower	amplitud.ttf
1260.184	n/a	WORD	630092	wordpools/wasnorm_wordpool_less_exclusions.txt	LTP200	ltpFR	8	5	1	UTENSIL	1542	n/a	n/a	0	n/a	0	0	0	0.57763671875	0.412841796875	1	lower	amplitud.ttf
1264.162	n/a	WORD	632081	wordpools/wasnorm_wordpool_less_exclusions.txt	LTP200	ltpFR	8	5	1	WORM	1623	n/a	n/a	1	n/a	0	0	0	0.57763671875	0.412841796875	1	lower	amplitud.ttf
1267.174	n/a	START	633587	n/a	LTP200	ltpFR	8	n/a	n/a	n/a	n/a	n/a	n/a	n/a	n/a	n/a	n/a	n/a	n/a	n/a	n/a	n/a	n/a
1268.206	n/a	PROB	634103	n/a	LTP200	ltpFR	8	n/a	n/a	n/a	n/a	n/a	n/a	n/a	21	8	5	8	n/a	n/a	n/a	n/a	n/a
1270.302	n/a	PROB	635151	n/a	LTP200	ltpFR	8	n/a	n/a	n/a	n/a	n/a	n/a	n/a	16	4	5	7	n/a	n/a	n/a	n/a	n/a
1271.934	n/a	PROB	635967	n/a	LTP200	ltpFR	8	n/a	n/a	n/a	n/a	n/a	n/a	n/a	20	3	8	9	n/a	n/a	n/a	n/a	n/a
1274.764	n/a	PROB	637382	n/a	LTP200	ltpFR	8	n/a	n/a	n/a	n/a	n/a	n/a	n/a	17	5	8	4	n/a	n/a	n/a	n/a	n/a
1277.076	n/a	PROB	638538	n/a	LTP200	ltpFR	8	n/a	n/a	n/a	n/a	n/a	n/a	n/a	17	8	1	8	n/a	n/a	n/a	n/a	n/a
1279.506	n/a	PROB	639753	n/a	LTP200	ltpFR	8	n/a	n/a	n/a	n/a	n/a	n/a	n/a	11	3	7	1	n/a	n/a	n/a	n/a	n/a
1281.104	n/a	PROB	640552	n/a	LTP200	ltpFR	8	n/a	n/a	n/a	n/a	n/a	n/a	n/a	12	2	1	9	n/a	n/a	n/a	n/a	n/a
1282.814	n/a	STOP	641407	n/a	LTP200	ltpFR	8	n/a	n/a	n/a	n/a	n/a	n/a	n/a	n/a	n/a	n/a	n/a	n/a	n/a	n/a	n/a	n/a
1285.032	n/a	REC_START	642516	n/a	LTP200	ltpFR	8	5	n/a	n/a	n/a	n/a	n/a	n/a	n/a	0	0	0	n/a	n/a	n/a	n/a	n/a
1286.46	n/a	REC_WORD	643230	wordpools/wasnorm_wordpool_less_exclusions.txt	LTP200	ltpFR	8	5	0	COD	340	n/a	n/a	0	n/a	0	0	0	n/a	n/a	n/a	n/a	n/a
1287.602	n/a	REC_WORD	643801	wordpools/wasnorm_wordpool_less_exclusions.txt	LTP200	ltpFR	8	5	0	COBBLER	335	n/a	n/a	0	n/a	0	0	0	n/a	n/a	n/a	n/a	n/a
1289.706	n/a	REC_WORD	644853	wordpools/wasnorm_wordpool_less_exclusions.txt	LTP200	ltpFR	8	5	0	SUITCASE	1403	n/a	n/a	1	n/a	0	0	0	n/a	n/a	n/a	n/a	n/a
1291.194	n/a	REC_WORD	645597	wordpools/wasnorm_wordpool_less_exclusions.txt	LTP200	ltpFR	8	5	0	LUGGAGE	847	n/a	n/a	1	n/a	0	0	0	n/a	n/a	n/a	n/a	n/a
1292.526	n/a	REC_WORD	646263	wordpools/wasnorm_wordpool_less_exclusions.txt	LTP200	ltpFR	8	5	1	FOUNTAIN	597	n/a	n/a	0	n/a	0	0	0	n/a	n/a	n/a	n/a	n/a
1293.962	n/a	REC_WORD	646981	wordpools/wasnorm_wordpool_less_exclusions.txt	LTP200	ltpFR	8	5	1	BATTERY	101	n/a	n/a	0	n/a	0	0	0	n/a	n/a	n/a	n/a	n/a
1295.264	n/a	REC_WORD	647632	wordpools/wasnorm_wordpool_less_exclusions.txt	LTP200	ltpFR	8	5	1	WORM	1623	n/a	n/a	1	n/a	0	0	0	n/a	n/a	n/a	n/a	n/a
1296.462	n/a	REC_WORD	648231	wordpools/wasnorm_wordpool_less_exclusions.txt	LTP200	ltpFR	8	5	1	UTENSIL	1542	n/a	n/a	0	n/a	0	0	0	n/a	n/a	n/a	n/a	n/a
1303.626	n/a	REC_WORD	651813	wordpools/wasnorm_wordpool_less_exclusions.txt	LTP200	ltpFR	8	5	0	PUDDLE	1140	n/a	n/a	1	n/a	0	0	0	n/a	n/a	n/a	n/a	n/a
1337.24	n/a	REC_WORD	668620	wordpools/wasnorm_wordpool_less_exclusions.txt	LTP200	ltpFR	8	5	0	SERPENT	1270	n/a	n/a	0	n/a	0	0	0	n/a	n/a	n/a	n/a	n/a
1372.486	n/a	WORD	686243	wordpools/wasnorm_wordpool_less_exclusions.txt	LTP200	ltpFR	8	6	1	BUFFALO	186	n/a	n/a	1	n/a	0	0	0	0.57763671875	0.412841796875	1	lower	amplitud.ttf
1376.446	n/a	WORD	688223	wordpools/wasnorm_wordpool_less_exclusions.txt	LTP200	ltpFR	8	6	1	WEED	1599	n/a	n/a	1	n/a	0	0	0	0.57763671875	0.412841796875	1	lower	amplitud.ttf
1380.49	n/a	WORD	690245	wordpools/wasnorm_wordpool_less_exclusions.txt	LTP200	ltpFR	8	6	1	LAWN	805	n/a	n/a	0	n/a	0	0	0	0.57763671875	0.412841796875	1	lower	amplitud.ttf
1384.368	n/a	WORD	692184	wordpools/wasnorm_wordpool_less_exclusions.txt	LTP200	ltpFR	8	6	1	ALLIGATOR	16	n/a	n/a	1	n/a	0	0	0	0.57763671875	0.412841796875	1	lower	amplitud.ttf
1388.512	n/a	WORD	694256	wordpools/wasnorm_wordpool_less_exclusions.txt	LTP200	ltpFR	8	6	1	ELBOW	520	n/a	n/a	0	n/a	0	0	0	0.57763671875	0.412841796875	1	lower	amplitud.ttf
1392.538	n/a	WORD	696269	wordpools/wasnorm_wordpool_less_exclusions.txt	LTP200	ltpFR	8	6	1	CRYSTAL	418	n/a	n/a	0	n/a	0	0	0	0.57763671875	0.412841796875	1	lower	amplitud.ttf
1396.4	n/a	WORD	698200	wordpools/wasnorm_wordpool_less_exclusions.txt	LTP200	ltpFR	8	6	1	KEEPER	769	n/a	n/a	1	n/a	0	0	0	0.57763671875	0.412841796875	1	lower	amplitud.ttf
1400.444	n/a	WORD	700222	wordpools/wasnorm_wordpool_less_exclusions.txt	LTP200	ltpFR	8	6	1	COUSIN	392	n/a	n/a	1	n/a	0	0	0	0.57763671875	0.412841796875	1	lower	amplitud.ttf
1404.538	n/a	WORD	702269	wordpools/wasnorm_wordpool_less_exclusions.txt	LTP200	ltpFR	8	6	1	SQUID	1361	n/a	n/a	1	n/a	0	0	0	0.57763671875	0.412841796875	1	lower	amplitud.ttf
1408.616	n/a	WORD	704308	wordpools/wasnorm_wordpool_less_exclusions.txt	LTP200	ltpFR	8	6	1	BEER	114	n/a	n/a	0	n/a	0	0	0	0.57763671875	0.412841796875	1	lower	amplitud.ttf
1412.494	n/a	WORD	706247	wordpools/wasnorm_wordpool_less_exclusions.txt	LTP200	ltpFR	8	6	1	JUG	762	n/a	n/a	0	n/a	0	0	0	0.57763671875	0.412841796875	1	lower	amplitud.ttf
1416.638	n/a	WORD	708319	wordpools/wasnorm_wordpool_less_exclusions.txt	LTP200	ltpFR	8	6	1	DILL	465	n/a	n/a	0	n/a	0	0	0	0.57763671875	0.412841796875	1	lower	amplitud.ttf
1420.682	n/a	WORD	710341	wordpools/wasnorm_wordpool_less_exclusions.txt	LTP200	ltpFR	8	6	1	SUGAR	1401	n/a	n/a	0	n/a	0	0	0	0.57763671875	0.412841796875	1	lower	amplitud.ttf
1424.592	n/a	WORD	712296	wordpools/wasnorm_wordpool_less_exclusions.txt	LTP200	ltpFR	8	6	1	CATHEDRAL	260	n/a	n/a	0	n/a	0	0	0	0.57763671875	0.412841796875	1	lower	amplitud.ttf
1428.752	n/a	WORD	714376	wordpools/wasnorm_wordpool_less_exclusions.txt	LTP200	ltpFR	8	6	1	SEAFOOD	1260	n/a	n/a	0	n/a	0	0	0	0.57763671875	0.412841796875	1	lower	amplitud.ttf
1432.696	n/a	WORD	716348	wordpools/wasnorm_wordpool_less_exclusions.txt	LTP200	ltpFR	8	6	1	LODGE	839	n/a	n/a	0	n/a	0	0	0	0.57763671875	0.412841796875	1	lower	amplitud.ttf
1438.572	n/a	REC_START	719286	n/a	LTP200	ltpFR	8	6	n/a	n/a	n/a	n/a	n/a	n/a	n/a	0	0	0	n/a	n/a	n/a	n/a	n/a
1440.162	n/a	REC_WORD	720081	wordpools/wasnorm_wordpool_less_exclusions.txt	LTP200	ltpFR	8	6	1	SEAFOOD	1260	n/a	n/a	0	n/a	0	0	0	n/a	n/a	n/a	n/a	n/a
1441.48	n/a	REC_WORD	720740	wordpools/wasnorm_wordpool_less_exclusions.txt	LTP200	ltpFR	8	6	1	LODGE	839	n/a	n/a	0	n/a	0	0	0	n/a	n/a	n/a	n/a	n/a
1444.278	n/a	REC_WORD	722139	wordpools/wasnorm_wordpool_less_exclusions.txt	LTP200	ltpFR	8	6	1	ALLIGATOR	16	n/a	n/a	1	n/a	0	0	0	n/a	n/a	n/a	n/a	n/a
1445.46	n/a	REC_WORD	722730	wordpools/wasnorm_wordpool_less_exclusions.txt	LTP200	ltpFR	8	6	1	LAWN	805	n/a	n/a	0	n/a	0	0	0	n/a	n/a	n/a	n/a	n/a
1446.812	n/a	REC_WORD	723406	wordpools/wasnorm_wordpool_less_exclusions.txt	LTP200	ltpFR	8	6	1	WEED	1599	n/a	n/a	1	n/a	0	0	0	n/a	n/a	n/a	n/a	n/a
1448.194	n/a	REC_WORD	724097	wordpools/wasnorm_wordpool_less_exclusions.txt	LTP200	ltpFR	8	6	1	BUFFALO	186	n/a	n/a	1	n/a	0	0	0	n/a	n/a	n/a	n/a	n/a
1462.262	n/a	REC_WORD	731131	wordpools/wasnorm_wordpool_less_exclusions.txt	LTP200	ltpFR	8	6	1	CATHEDRAL	260	n/a	n/a	0	n/a	0	0	0	n/a	n/a	n/a	n/a	n/a
1465.426	n/a	REC_WORD	732713	wordpools/wasnorm_wordpool_less_exclusions.txt	LTP200	ltpFR	8	6	1	ELBOW	520	n/a	n/a	0	n/a	0	0	0	n/a	n/a	n/a	n/a	n/a
1467.282	n/a	REC_WORD	733641	wordpools/wasnorm_wordpool_less_exclusions.txt	LTP200	ltpFR	8	6	1	JUG	762	n/a	n/a	0	n/a	0	0	0	n/a	n/a	n/a	n/a	n/a
1527.64	n/a	START	763820	n/a	LTP200	ltpFR	8	n/a	n/a	n/a	n/a	n/a	n/a	n/a	n/a	n/a	n/a	n/a	n/a	n/a	n/a	n/a	n/a
1529.152	n/a	PROB	764576	n/a	LTP200	ltpFR	8	n/a	n/a	n/a	n/a	n/a	n/a	n/a	10	3	1	6	n/a	n/a	n/a	n/a	n/a
1531.316	n/a	PROB	765658	n/a	LTP200	ltpFR	8	n/a	n/a	n/a	n/a	n/a	n/a	n/a	14	3	3	8	n/a	n/a	n/a	n/a	n/a
1533.696	n/a	PROB	766848	n/a	LTP200	ltpFR	8	n/a	n/a	n/a	n/a	n/a	n/a	n/a	15	4	3	6	n/a	n/a	n/a	n/a	n/a
1535.326	n/a	PROB	767663	n/a	LTP200	ltpFR	8	n/a	n/a	n/a	n/a	n/a	n/a	n/a	19	9	9	1	n/a	n/a	n/a	n/a	n/a
1536.958	n/a	PROB	768479	n/a	LTP200	ltpFR	8	n/a	n/a	n/a	n/a	n/a	n/a	n/a	19	9	4	6	n/a	n/a	n/a	n/a	n/a
1541.584	n/a	PROB	770792	n/a	LTP200	ltpFR	8	n/a	n/a	n/a	n/a	n/a	n/a	n/a	13	8	4	1	n/a	n/a	n/a	n/a	n/a
1543.072	n/a	STOP	771536	n/a	LTP200	ltpFR	8	n/a	n/a	n/a	n/a	n/a	n/a	n/a	n/a	n/a	n/a	n/a	n/a	n/a	n/a	n/a	n/a
1544.696	n/a	WORD	772348	wordpools/wasnorm_wordpool_less_exclusions.txt	LTP200	ltpFR	8	7	0	PATH	1023	n/a	n/a	1	n/a	0	0	0	0.422607421875	0.5869140625	0	upper	zerothre.ttf
1547.71	n/a	START	773855	n/a	LTP200	ltpFR	8	n/a	n/a	n/a	n/a	n/a	n/a	n/a	n/a	n/a	n/a	n/a	n/a	n/a	n/a	n/a	n/a
1548.658	n/a	PROB	774329	n/a	LTP200	ltpFR	8	n/a	n/a	n/a	n/a	n/a	n/a	n/a	15	9	1	5	n/a	n/a	n/a	n/a	n/a
1550.056	n/a	PROB	775028	n/a	LTP200	ltpFR	8	n/a	n/a	n/a	n/a	n/a	n/a	n/a	23	9	7	7	n/a	n/a	n/a	n/a	n/a
1552.802	n/a	PROB	776401	n/a	LTP200	ltpFR	8	n/a	n/a	n/a	n/a	n/a	n/a	n/a	18	1	8	9	n/a	n/a	n/a	n/a	n/a
1554.866	n/a	PROB	777433	n/a	LTP200	ltpFR	8	n/a	n/a	n/a	n/a	n/a	n/a	n/a	18	3	7	8	n/a	n/a	n/a	n/a	n/a
1556.33	n/a	PROB	778165	n/a	LTP200	ltpFR	8	n/a	n/a	n/a	n/a	n/a	n/a	n/a	9	3	2	4	n/a	n/a	n/a	n/a	n/a
1557.962	n/a	PROB	778981	n/a	LTP200	ltpFR	8	n/a	n/a	n/a	n/a	n/a	n/a	n/a	7	3	3	1	n/a	n/a	n/a	n/a	n/a
1560.24	n/a	PROB	780120	n/a	LTP200	ltpFR	8	n/a	n/a	n/a	n/a	n/a	n/a	n/a	17	7	7	3	n/a	n/a	n/a	n/a	n/a
1562.786	n/a	STOP	781393	n/a	LTP200	ltpFR	8	n/a	n/a	n/a	n/a	n/a	n/a	n/a	n/a	n/a	n/a	n/a	n/a	n/a	n/a	n/a	n/a
1564.834	n/a	WORD	782417	wordpools/wasnorm_wordpool_less_exclusions.txt	LTP200	ltpFR	8	7	0	TAR	1435	n/a	n/a	0	n/a	0	0	0	0.422607421875	0.5869140625	0	upper	zerothre.ttf
1567.846	n/a	START	783923	n/a	LTP200	ltpFR	8	n/a	n/a	n/a	n/a	n/a	n/a	n/a	n/a	n/a	n/a	n/a	n/a	n/a	n/a	n/a	n/a
1568.746	n/a	PROB	784373	n/a	LTP200	ltpFR	8	n/a	n/a	n/a	n/a	n/a	n/a	n/a	16	7	5	3	n/a	n/a	n/a	n/a	n/a
1571.974	n/a	PROB	785987	n/a	LTP200	ltpFR	8	n/a	n/a	n/a	n/a	n/a	n/a	n/a	16	2	7	7	n/a	n/a	n/a	n/a	n/a
1574.07	n/a	PROB	787035	n/a	LTP200	ltpFR	8	n/a	n/a	n/a	n/a	n/a	n/a	n/a	18	4	6	8	n/a	n/a	n/a	n/a	n/a
1575.552	n/a	PROB	787776	n/a	LTP200	ltpFR	8	n/a	n/a	n/a	n/a	n/a	n/a	n/a	15	5	8	2	n/a	n/a	n/a	n/a	n/a
1577.498	n/a	PROB	788749	n/a	LTP200	ltpFR	8	n/a	n/a	n/a	n/a	n/a	n/a	n/a	13	5	3	5	n/a	n/a	n/a	n/a	n/a
1578.996	n/a	PROB	789498	n/a	LTP200	ltpFR	8	n/a	n/a	n/a	n/a	n/a	n/a	n/a	25	9	8	8	n/a	n/a	n/a	n/a	n/a
1583.846	n/a	STOP	791923	n/a	LTP200	ltpFR	8	n/a	n/a	n/a	n/a	n/a	n/a	n/a	n/a	n/a	n/a	n/a	n/a	n/a	n/a	n/a	n/a
1584.754	n/a	WORD	792377	wordpools/wasnorm_wordpool_less_exclusions.txt	LTP200	ltpFR	8	7	1	TUTU	1524	n/a	n/a	0	n/a	0	0	0	0.57763671875	0.412841796875	1	lower	amplitud.ttf
1587.768	n/a	START	793884	n/a	LTP200	ltpFR	8	n/a	n/a	n/a	n/a	n/a	n/a	n/a	n/a	n/a	n/a	n/a	n/a	n/a	n/a	n/a	n/a
1588.682	n/a	PROB	794341	n/a	LTP200	ltpFR	8	n/a	n/a	n/a	n/a	n/a	n/a	n/a	12	9	2	1	n/a	n/a	n/a	n/a	n/a
1591.378	n/a	PROB	795689	n/a	LTP200	ltpFR	8	n/a	n/a	n/a	n/a	n/a	n/a	n/a	9	6	2	1	n/a	n/a	n/a	n/a	n/a
1593.958	n/a	PROB	796979	n/a	LTP200	ltpFR	8	n/a	n/a	n/a	n/a	n/a	n/a	n/a	8	6	1	1	n/a	n/a	n/a	n/a	n/a
1595.922	n/a	PROB	797961	n/a	LTP200	ltpFR	8	n/a	n/a	n/a	n/a	n/a	n/a	n/a	18	9	4	5	n/a	n/a	n/a	n/a	n/a
1598.584	n/a	PROB	799292	n/a	LTP200	ltpFR	8	n/a	n/a	n/a	n/a	n/a	n/a	n/a	8	3	3	2	n/a	n/a	n/a	n/a	n/a
1600.08	n/a	PROB	800040	n/a	LTP200	ltpFR	8	n/a	n/a	n/a	n/a	n/a	n/a	n/a	16	7	4	5	n/a	n/a	n/a	n/a	n/a
1603.768	n/a	STOP	801884	n/a	LTP200	ltpFR	8	n/a	n/a	n/a	n/a	n/a	n/a	n/a	n/a	n/a	n/a	n/a	n/a	n/a	n/a	n/a	n/a
1604.742	n/a	WORD	802371	wordpools/wasnorm_wordpool_less_exclusions.txt	LTP200	ltpFR	8	7	1	SWAN	1417	n/a	n/a	1	n/a	0	0	0	0.57763671875	0.412841796875	1	lower	amplitud.ttf
1607.754	n/a	START	803877	n/a	LTP200	ltpFR	8	n/a	n/a	n/a	n/a	n/a	n/a	n/a	n/a	n/a	n/a	n/a	n/a	n/a	n/a	n/a	n/a
1608.652	n/a	PROB	804326	n/a	LTP200	ltpFR	8	n/a	n/a	n/a	n/a	n/a	n/a	n/a	6	2	3	1	n/a	n/a	n/a	n/a	n/a
1610.5	n/a	PROB	805250	n/a	LTP200	ltpFR	8	n/a	n/a	n/a	n/a	n/a	n/a	n/a	15	9	4	2	n/a	n/a	n/a	n/a	n/a
1612.68	n/a	PROB	806340	n/a	LTP200	ltpFR	8	n/a	n/a	n/a	n/a	n/a	n/a	n/a	19	7	4	8	n/a	n/a	n/a	n/a	n/a
1614.926	n/a	PROB	807463	n/a	LTP200	ltpFR	8	n/a	n/a	n/a	n/a	n/a	n/a	n/a	16	6	9	1	n/a	n/a	n/a	n/a	n/a
1616.856	n/a	PROB	808428	n/a	LTP200	ltpFR	8	n/a	n/a	n/a	n/a	n/a	n/a	n/a	17	7	7	3	n/a	n/a	n/a	n/a	n/a
1618.604	n/a	PROB	809302	n/a	LTP200	ltpFR	8	n/a	n/a	n/a	n/a	n/a	n/a	n/a	16	9	1	6	n/a	n/a	n/a	n/a	n/a
1620.15	n/a	PROB	810075	n/a	LTP200	ltpFR	8	n/a	n/a	n/a	n/a	n/a	n/a	n/a	8	5	2	1	n/a	n/a	n/a	n/a	n/a
1623.756	n/a	STOP	811878	n/a	LTP200	ltpFR	8	n/a	n/a	n/a	n/a	n/a	n/a	n/a	n/a	n/a	n/a	n/a	n/a	n/a	n/a	n/a	n/a
1624.68	n/a	WORD	812340	wordpools/wasnorm_wordpool_less_exclusions.txt	LTP200	ltpFR	8	7	1	ANTEATER	26	n/a	n/a	1	n/a	0	0	0	0.57763671875	0.412841796875	1	lower	amplitud.ttf
1627.692	n/a	START	813846	n/a	LTP200	ltpFR	8	n/a	n/a	n/a	n/a	n/a	n/a	n/a	n/a	n/a	n/a	n/a	n/a	n/a	n/a	n/a	n/a
1628.69	n/a	PROB	814345	n/a	LTP200	ltpFR	8	n/a	n/a	n/a	n/a	n/a	n/a	n/a	15	2	6	7	n/a	n/a	n/a	n/a	n/a
1630.904	n/a	PROB	815452	n/a	LTP200	ltpFR	8	n/a	n/a	n/a	n/a	n/a	n/a	n/a	25	8	8	9	n/a	n/a	n/a	n/a	n/a
1634.348	n/a	PROB	817174	n/a	LTP200	ltpFR	8	n/a	n/a	n/a	n/a	n/a	n/a	n/a	18	5	7	6	n/a	n/a	n/a	n/a	n/a
1636.744	n/a	PROB	818372	n/a	LTP200	ltpFR	8	n/a	n/a	n/a	n/a	n/a	n/a	n/a	19	1	9	9	n/a	n/a	n/a	n/a	n/a
1638.758	n/a	PROB	819379	n/a	LTP200	ltpFR	8	n/a	n/a	n/a	n/a	n/a	n/a	n/a	9	2	4	3	n/a	n/a	n/a	n/a	n/a
1640.922	n/a	PROB	820461	n/a	LTP200	ltpFR	8	n/a	n/a	n/a	n/a	n/a	n/a	n/a	18	1	8	9	n/a	n/a	n/a	n/a	n/a
1642.562	n/a	STOP	821281	n/a	LTP200	ltpFR	8	n/a	n/a	n/a	n/a	n/a	n/a	n/a	n/a	n/a	n/a	n/a	n/a	n/a	n/a	n/a	n/a
1644.682	n/a	WORD	822341	wordpools/wasnorm_wordpool_less_exclusions.txt	LTP200	ltpFR	8	7	1	BEAVER	109	n/a	n/a	1	n/a	0	0	0	0.57763671875	0.412841796875	1	lower	amplitud.ttf
1647.696	n/a	START	823848	n/a	LTP200	ltpFR	8	n/a	n/a	n/a	n/a	n/a	n/a	n/a	n/a	n/a	n/a	n/a	n/a	n/a	n/a	n/a	n/a
1648.576	n/a	PROB	824288	n/a	LTP200	ltpFR	8	n/a	n/a	n/a	n/a	n/a	n/a	n/a	17	8	1	8	n/a	n/a	n/a	n/a	n/a
1650.956	n/a	PROB	825478	n/a	LTP200	ltpFR	8	n/a	n/a	n/a	n/a	n/a	n/a	n/a	16	4	5	7	n/a	n/a	n/a	n/a	n/a
1652.82	n/a	PROB	826410	n/a	LTP200	ltpFR	8	n/a	n/a	n/a	n/a	n/a	n/a	n/a	18	5	4	9	n/a	n/a	n/a	n/a	n/a
1656.05	n/a	PROB	828025	n/a	LTP200	ltpFR	8	n/a	n/a	n/a	n/a	n/a	n/a	n/a	17	2	8	7	n/a	n/a	n/a	n/a	n/a
1658.096	n/a	PROB	829048	n/a	LTP200	ltpFR	8	n/a	n/a	n/a	n/a	n/a	n/a	n/a	21	9	9	3	n/a	n/a	n/a	n/a	n/a
1659.926	n/a	PROB	829963	n/a	LTP200	ltpFR	8	n/a	n/a	n/a	n/a	n/a	n/a	n/a	10	4	4	2	n/a	n/a	n/a	n/a	n/a
1661.54	n/a	PROB	830770	n/a	LTP200	ltpFR	8	n/a	n/a	n/a	n/a	n/a	n/a	n/a	10	1	2	7	n/a	n/a	n/a	n/a	n/a
1663.354	n/a	STOP	831677	n/a	LTP200	ltpFR	8	n/a	n/a	n/a	n/a	n/a	n/a	n/a	n/a	n/a	n/a	n/a	n/a	n/a	n/a	n/a	n/a
1664.604	n/a	WORD	832302	wordpools/wasnorm_wordpool_less_exclusions.txt	LTP200	ltpFR	8	7	0	CORPORATION	382	n/a	n/a	1	n/a	0	0	0	0.422607421875	0.5869140625	0	upper	zerothre.ttf
1667.616	n/a	START	833808	n/a	LTP200	ltpFR	8	n/a	n/a	n/a	n/a	n/a	n/a	n/a	n/a	n/a	n/a	n/a	n/a	n/a	n/a	n/a	n/a
1668.598	n/a	PROB	834299	n/a	LTP200	ltpFR	8	n/a	n/a	n/a	n/a	n/a	n/a	n/a	12	4	4	4	n/a	n/a	n/a	n/a	n/a
1670.544	n/a	PROB	835272	n/a	LTP200	ltpFR	8	n/a	n/a	n/a	n/a	n/a	n/a	n/a	13	2	2	9	n/a	n/a	n/a	n/a	n/a
1672.89	n/a	PROB	836445	n/a	LTP200	ltpFR	8	n/a	n/a	n/a	n/a	n/a	n/a	n/a	18	3	6	9	n/a	n/a	n/a	n/a	n/a
1674.854	n/a	PROB	837427	n/a	LTP200	ltpFR	8	n/a	n/a	n/a	n/a	n/a	n/a	n/a	24	7	9	8	n/a	n/a	n/a	n/a	n/a
1678.0	n/a	PROB	839000	n/a	LTP200	ltpFR	8	n/a	n/a	n/a	n/a	n/a	n/a	n/a	18	6	3	9	n/a	n/a	n/a	n/a	n/a
1680.078	n/a	PROB	840039	n/a	LTP200	ltpFR	8	n/a	n/a	n/a	n/a	n/a	n/a	n/a	8	2	3	3	n/a	n/a	n/a	n/a	n/a
1682.146	n/a	STOP	841073	n/a	LTP200	ltpFR	8	n/a	n/a	n/a	n/a	n/a	n/a	n/a	n/a	n/a	n/a	n/a	n/a	n/a	n/a	n/a	n/a
1684.54	n/a	WORD	842270	wordpools/wasnorm_wordpool_less_exclusions.txt	LTP200	ltpFR	8	7	0	SPINACH	1352	n/a	n/a	0	n/a	0	0	0	0.422607421875	0.5869140625	0	upper	zerothre.ttf
1687.552	n/a	START	843776	n/a	LTP200	ltpFR	8	n/a	n/a	n/a	n/a	n/a	n/a	n/a	n/a	n/a	n/a	n/a	n/a	n/a	n/a	n/a	n/a
1688.45	n/a	PROB	844225	n/a	LTP200	ltpFR	8	n/a	n/a	n/a	n/a	n/a	n/a	n/a	12	2	5	5	n/a	n/a	n/a	n/a	n/a
1691.746	n/a	PROB	845873	n/a	LTP200	ltpFR	8	n/a	n/a	n/a	n/a	n/a	n/a	n/a	17	8	8	1	n/a	n/a	n/a	n/a	n/a
1693.476	n/a	PROB	846738	n/a	LTP200	ltpFR	8	n/a	n/a	n/a	n/a	n/a	n/a	n/a	15	9	2	4	n/a	n/a	n/a	n/a	n/a
1695.374	n/a	PROB	847687	n/a	LTP200	ltpFR	8	n/a	n/a	n/a	n/a	n/a	n/a	n/a	17	6	2	9	n/a	n/a	n/a	n/a	n/a
1699.668	n/a	PROB	849834	n/a	LTP200	ltpFR	8	n/a	n/a	n/a	n/a	n/a	n/a	n/a	19	4	8	7	n/a	n/a	n/a	n/a	n/a
1701.566	n/a	PROB	850783	n/a	LTP200	ltpFR	8	n/a	n/a	n/a	n/a	n/a	n/a	n/a	18	5	8	5	n/a	n/a	n/a	n/a	n/a
1702.876	n/a	STOP	851438	n/a	LTP200	ltpFR	8	n/a	n/a	n/a	n/a	n/a	n/a	n/a	n/a	n/a	n/a	n/a	n/a	n/a	n/a	n/a	n/a
1704.444	n/a	WORD	852222	wordpools/wasnorm_wordpool_less_exclusions.txt	LTP200	ltpFR	8	7	0	GUITAR	670	n/a	n/a	1	n/a	0	0	0	0.422607421875	0.5869140625	0	upper	zerothre.ttf
1707.458	n/a	START	853729	n/a	LTP200	ltpFR	8	n/a	n/a	n/a	n/a	n/a	n/a	n/a	n/a	n/a	n/a	n/a	n/a	n/a	n/a	n/a	n/a
1708.638	n/a	PROB	854319	n/a	LTP200	ltpFR	8	n/a	n/a	n/a	n/a	n/a	n/a	n/a	13	4	8	1	n/a	n/a	n/a	n/a	n/a
1711.018	n/a	PROB	855509	n/a	LTP200	ltpFR	8	n/a	n/a	n/a	n/a	n/a	n/a	n/a	11	3	4	4	n/a	n/a	n/a	n/a	n/a
1714.096	n/a	PROB	857048	n/a	LTP200	ltpFR	8	n/a	n/a	n/a	n/a	n/a	n/a	n/a	10	4	2	4	n/a	n/a	n/a	n/a	n/a
1715.694	n/a	PROB	857847	n/a	LTP200	ltpFR	8	n/a	n/a	n/a	n/a	n/a	n/a	n/a	9	1	7	1	n/a	n/a	n/a	n/a	n/a
1717.758	n/a	PROB	858879	n/a	LTP200	ltpFR	8	n/a	n/a	n/a	n/a	n/a	n/a	n/a	14	3	4	7	n/a	n/a	n/a	n/a	n/a
1719.272	n/a	PROB	859636	n/a	LTP200	ltpFR	8	n/a	n/a	n/a	n/a	n/a	n/a	n/a	22	7	9	6	n/a	n/a	n/a	n/a	n/a
1722.484	n/a	STOP	861242	n/a	LTP200	ltpFR	8	n/a	n/a	n/a	n/a	n/a	n/a	n/a	n/a	n/a	n/a	n/a	n/a	n/a	n/a	n/a	n/a
1724.298	n/a	WORD	862149	wordpools/wasnorm_wordpool_less_exclusions.txt	LTP200	ltpFR	8	7	0	SCOTCH	1251	n/a	n/a	0	n/a	0	0	0	0.422607421875	0.5869140625	0	upper	zerothre.ttf
1727.31	n/a	START	863655	n/a	LTP200	ltpFR	8	n/a	n/a	n/a	n/a	n/a	n/a	n/a	n/a	n/a	n/a	n/a	n/a	n/a	n/a	n/a	n/a
1728.476	n/a	PROB	864238	n/a	LTP200	ltpFR	8	n/a	n/a	n/a	n/a	n/a	n/a	n/a	6	1	4	1	n/a	n/a	n/a	n/a	n/a
1730.672	n/a	PROB	865336	n/a	LTP200	ltpFR	8	n/a	n/a	n/a	n/a	n/a	n/a	n/a	10	1	2	7	n/a	n/a	n/a	n/a	n/a
1732.352	n/a	PROB	866176	n/a	LTP200	ltpFR	8	n/a	n/a	n/a	n/a	n/a	n/a	n/a	17	9	7	1	n/a	n/a	n/a	n/a	n/a
1735.048	n/a	PROB	867524	n/a	LTP200	ltpFR	8	n/a	n/a	n/a	n/a	n/a	n/a	n/a	16	4	7	5	n/a	n/a	n/a	n/a	n/a
1738.494	n/a	PROB	869247	n/a	LTP200	ltpFR	8	n/a	n/a	n/a	n/a	n/a	n/a	n/a	13	8	1	4	n/a	n/a	n/a	n/a	n/a
1742.348	n/a	STOP	871174	n/a	LTP200	ltpFR	8	n/a	n/a	n/a	n/a	n/a	n/a	n/a	n/a	n/a	n/a	n/a	n/a	n/a	n/a	n/a	n/a
1744.402	n/a	WORD	872201	wordpools/wasnorm_wordpool_less_exclusions.txt	LTP200	ltpFR	8	7	1	BOOTH	151	n/a	n/a	0	n/a	0	0	0	0.57763671875	0.412841796875	1	lower	amplitud.ttf
1747.414	n/a	START	873707	n/a	LTP200	ltpFR	8	n/a	n/a	n/a	n/a	n/a	n/a	n/a	n/a	n/a	n/a	n/a	n/a	n/a	n/a	n/a	n/a
1748.278	n/a	PROB	874139	n/a	LTP200	ltpFR	8	n/a	n/a	n/a	n/a	n/a	n/a	n/a	25	9	8	8	n/a	n/a	n/a	n/a	n/a
1750.076	n/a	PROB	875038	n/a	LTP200	ltpFR	8	n/a	n/a	n/a	n/a	n/a	n/a	n/a	8	4	3	1	n/a	n/a	n/a	n/a	n/a
1751.824	n/a	PROB	875912	n/a	LTP200	ltpFR	8	n/a	n/a	n/a	n/a	n/a	n/a	n/a	15	9	4	2	n/a	n/a	n/a	n/a	n/a
1754.852	n/a	PROB	877426	n/a	LTP200	ltpFR	8	n/a	n/a	n/a	n/a	n/a	n/a	n/a	8	1	2	5	n/a	n/a	n/a	n/a	n/a
1758.13	n/a	PROB	879065	n/a	LTP200	ltpFR	8	n/a	n/a	n/a	n/a	n/a	n/a	n/a	12	2	7	3	n/a	n/a	n/a	n/a	n/a
1760.028	n/a	PROB	880014	n/a	LTP200	ltpFR	8	n/a	n/a	n/a	n/a	n/a	n/a	n/a	15	7	6	2	n/a	n/a	n/a	n/a	n/a
1763.154	n/a	STOP	881577	n/a	LTP200	ltpFR	8	n/a	n/a	n/a	n/a	n/a	n/a	n/a	n/a	n/a	n/a	n/a	n/a	n/a	n/a	n/a	n/a
1764.572	n/a	WORD	882286	wordpools/wasnorm_wordpool_less_exclusions.txt	LTP200	ltpFR	8	7	1	ARCHITECT	36	n/a	n/a	1	n/a	0	0	0	0.57763671875	0.412841796875	1	lower	amplitud.ttf
1767.584	n/a	START	883792	n/a	LTP200	ltpFR	8	n/a	n/a	n/a	n/a	n/a	n/a	n/a	n/a	n/a	n/a	n/a	n/a	n/a	n/a	n/a	n/a
1768.766	n/a	PROB	884383	n/a	LTP200	ltpFR	8	n/a	n/a	n/a	n/a	n/a	n/a	n/a	22	6	6	8	n/a	n/a	n/a	n/a	n/a
1771.546	n/a	PROB	885773	n/a	LTP200	ltpFR	8	n/a	n/a	n/a	n/a	n/a	n/a	n/a	9	1	5	3	n/a	n/a	n/a	n/a	n/a
1773.376	n/a	PROB	886688	n/a	LTP200	ltpFR	8	n/a	n/a	n/a	n/a	n/a	n/a	n/a	19	6	5	8	n/a	n/a	n/a	n/a	n/a
1775.356	n/a	PROB	887678	n/a	LTP200	ltpFR	8	n/a	n/a	n/a	n/a	n/a	n/a	n/a	18	7	5	6	n/a	n/a	n/a	n/a	n/a
1778.784	n/a	PROB	889392	n/a	LTP200	ltpFR	8	n/a	n/a	n/a	n/a	n/a	n/a	n/a	18	8	9	1	n/a	n/a	n/a	n/a	n/a
1783.584	n/a	STOP	891792	n/a	LTP200	ltpFR	8	n/a	n/a	n/a	n/a	n/a	n/a	n/a	n/a	n/a	n/a	n/a	n/a	n/a	n/a	n/a	n/a
1784.592	n/a	WORD	892296	wordpools/wasnorm_wordpool_less_exclusions.txt	LTP200	ltpFR	8	7	1	NAVIGATOR	938	n/a	n/a	1	n/a	0	0	0	0.57763671875	0.412841796875	1	lower	amplitud.ttf
1787.604	n/a	START	893802	n/a	LTP200	ltpFR	8	n/a	n/a	n/a	n/a	n/a	n/a	n/a	n/a	n/a	n/a	n/a	n/a	n/a	n/a	n/a	n/a
1788.636	n/a	PROB	894318	n/a	LTP200	ltpFR	8	n/a	n/a	n/a	n/a	n/a	n/a	n/a	14	5	8	1	n/a	n/a	n/a	n/a	n/a
1790.418	n/a	PROB	895209	n/a	LTP200	ltpFR	8	n/a	n/a	n/a	n/a	n/a	n/a	n/a	7	3	1	3	n/a	n/a	n/a	n/a	n/a
1792.146	n/a	PROB	896073	n/a	LTP200	ltpFR	8	n/a	n/a	n/a	n/a	n/a	n/a	n/a	19	4	6	9	n/a	n/a	n/a	n/a	n/a
1793.696	n/a	PROB	896848	n/a	LTP200	ltpFR	8	n/a	n/a	n/a	n/a	n/a	n/a	n/a	16	7	2	7	n/a	n/a	n/a	n/a	n/a
1795.942	n/a	PROB	897971	n/a	LTP200	ltpFR	8	n/a	n/a	n/a	n/a	n/a	n/a	n/a	16	6	5	5	n/a	n/a	n/a	n/a	n/a
1798.27	n/a	PROB	899135	n/a	LTP200	ltpFR	8	n/a	n/a	n/a	n/a	n/a	n/a	n/a	20	9	8	3	n/a	n/a	n/a	n/a	n/a
1801.55	n/a	PROB	900775	n/a	LTP200	ltpFR	8	n/a	n/a	n/a	n/a	n/a	n/a	n/a	17	6	4	7	n/a	n/a	n/a	n/a	n/a
1802.932	n/a	STOP	901466	n/a	LTP200	ltpFR	8	n/a	n/a	n/a	n/a	n/a	n/a	n/a	n/a	n/a	n/a	n/a	n/a	n/a	n/a	n/a	n/a
1804.712	n/a	WORD	902356	wordpools/wasnorm_wordpool_less_exclusions.txt	LTP200	ltpFR	8	7	1	SAXOPHONE	1240	n/a	n/a	0	n/a	0	0	0	0.57763671875	0.412841796875	1	lower	amplitud.ttf
1807.724	n/a	START	903862	n/a	LTP200	ltpFR	8	n/a	n/a	n/a	n/a	n/a	n/a	n/a	n/a	n/a	n/a	n/a	n/a	n/a	n/a	n/a	n/a
1808.906	n/a	PROB	904453	n/a	LTP200	ltpFR	8	n/a	n/a	n/a	n/a	n/a	n/a	n/a	18	2	7	9	n/a	n/a	n/a	n/a	n/a
1811.118	n/a	PROB	905559	n/a	LTP200	ltpFR	8	n/a	n/a	n/a	n/a	n/a	n/a	n/a	15	5	9	1	n/a	n/a	n/a	n/a	n/a
1812.534	n/a	PROB	906267	n/a	LTP200	ltpFR	8	n/a	n/a	n/a	n/a	n/a	n/a	n/a	13	7	2	4	n/a	n/a	n/a	n/a	n/a
1815.228	n/a	PROB	907614	n/a	LTP200	ltpFR	8	n/a	n/a	n/a	n/a	n/a	n/a	n/a	22	7	6	9	n/a	n/a	n/a	n/a	n/a
1818.724	n/a	PROB	909362	n/a	LTP200	ltpFR	8	n/a	n/a	n/a	n/a	n/a	n/a	n/a	15	3	3	7	n/a	n/a	n/a	n/a	n/a
1820.506	n/a	PROB	910253	n/a	LTP200	ltpFR	8	n/a	n/a	n/a	n/a	n/a	n/a	n/a	12	6	5	1	n/a	n/a	n/a	n/a	n/a
1823.044	n/a	STOP	911522	n/a	LTP200	ltpFR	8	n/a	n/a	n/a	n/a	n/a	n/a	n/a	n/a	n/a	n/a	n/a	n/a	n/a	n/a	n/a	n/a
1824.75	n/a	WORD	912375	wordpools/wasnorm_wordpool_less_exclusions.txt	LTP200	ltpFR	8	7	0	CASHIER	254	n/a	n/a	1	n/a	0	0	0	0.422607421875	0.5869140625	0	upper	zerothre.ttf
1827.762	n/a	START	913881	n/a	LTP200	ltpFR	8	n/a	n/a	n/a	n/a	n/a	n/a	n/a	n/a	n/a	n/a	n/a	n/a	n/a	n/a	n/a	n/a
1828.66	n/a	PROB	914330	n/a	LTP200	ltpFR	8	n/a	n/a	n/a	n/a	n/a	n/a	n/a	15	7	2	6	n/a	n/a	n/a	n/a	n/a
1832.27	n/a	PROB	916135	n/a	LTP200	ltpFR	8	n/a	n/a	n/a	n/a	n/a	n/a	n/a	14	3	3	8	n/a	n/a	n/a	n/a	n/a
1838.128	n/a	PROB	919064	n/a	LTP200	ltpFR	8	n/a	n/a	n/a	n/a	n/a	n/a	n/a	10	1	2	7	n/a	n/a	n/a	n/a	n/a
1839.626	n/a	PROB	919813	n/a	LTP200	ltpFR	8	n/a	n/a	n/a	n/a	n/a	n/a	n/a	14	2	9	3	n/a	n/a	n/a	n/a	n/a
1843.76	n/a	STOP	921880	n/a	LTP200	ltpFR	8	n/a	n/a	n/a	n/a	n/a	n/a	n/a	n/a	n/a	n/a	n/a	n/a	n/a	n/a	n/a	n/a
1844.968	n/a	WORD	922484	wordpools/wasnorm_wordpool_less_exclusions.txt	LTP200	ltpFR	8	7	0	ROCKET	1202	n/a	n/a	1	n/a	0	0	0	0.422607421875	0.5869140625	0	upper	zerothre.ttf
1847.982	n/a	START	923991	n/a	LTP200	ltpFR	8	n/a	n/a	n/a	n/a	n/a	n/a	n/a	n/a	n/a	n/a	n/a	n/a	n/a	n/a	n/a	n/a
1848.914	n/a	PROB	924457	n/a	LTP200	ltpFR	8	n/a	n/a	n/a	n/a	n/a	n/a	n/a	15	8	4	3	n/a	n/a	n/a	n/a	n/a
1851.344	n/a	PROB	925672	n/a	LTP200	ltpFR	8	n/a	n/a	n/a	n/a	n/a	n/a	n/a	25	8	8	9	n/a	n/a	n/a	n/a	n/a
1858.416	n/a	PROB	929208	n/a	LTP200	ltpFR	8	n/a	n/a	n/a	n/a	n/a	n/a	n/a	11	7	3	1	n/a	n/a	n/a	n/a	n/a
1859.698	n/a	PROB	929849	n/a	LTP200	ltpFR	8	n/a	n/a	n/a	n/a	n/a	n/a	n/a	11	2	5	4	n/a	n/a	n/a	n/a	n/a
1861.662	n/a	PROB	930831	n/a	LTP200	ltpFR	8	n/a	n/a	n/a	n/a	n/a	n/a	n/a	19	2	8	9	n/a	n/a	n/a	n/a	n/a
1863.366	n/a	STOP	931683	n/a	LTP200	ltpFR	8	n/a	n/a	n/a	n/a	n/a	n/a	n/a	n/a	n/a	n/a	n/a	n/a	n/a	n/a	n/a	n/a
1865.922	n/a	REC_START	932961	n/a	LTP200	ltpFR	8	7	n/a	n/a	n/a	n/a	n/a	n/a	n/a	0	0	0	n/a	n/a	n/a	n/a	n/a
1868.242	n/a	REC_WORD	934121	wordpools/wasnorm_wordpool_less_exclusions.txt	LTP200	ltpFR	8	7	0	ROCKET	1202	n/a	n/a	1	n/a	0	0	0	n/a	n/a	n/a	n/a	n/a
1869.914	n/a	REC_WORD	934957	wordpools/wasnorm_wordpool_less_exclusions.txt	LTP200	ltpFR	8	7	n/a	PAVEMENT	1028	n/a	n/a	n/a	n/a	0	0	0	n/a	n/a	n/a	n/a	n/a
1871.794	n/a	REC_WORD	935897	wordpools/wasnorm_wordpool_less_exclusions.txt	LTP200	ltpFR	8	7	0	TAR	1435	n/a	n/a	0	n/a	0	0	0	n/a	n/a	n/a	n/a	n/a
1876.828	n/a	REC_WORD	938414	wordpools/wasnorm_wordpool_less_exclusions.txt	LTP200	ltpFR	8	7	1	ANTEATER	26	n/a	n/a	1	n/a	0	0	0	n/a	n/a	n/a	n/a	n/a
1914.208	n/a	REC_WORD	957104	wordpools/wasnorm_wordpool_less_exclusions.txt	LTP200	ltpFR	8	7	0	GUITAR	670	n/a	n/a	1	n/a	0	0	0	n/a	n/a	n/a	n/a	n/a
1923.668	n/a	REC_WORD	961834	wordpools/wasnorm_wordpool_less_exclusions.txt	LTP200	ltpFR	8	7	0	CASHIER	254	n/a	n/a	1	n/a	0	0	0	n/a	n/a	n/a	n/a	n/a
1925.024	n/a	REC_WORD	962512	wordpools/wasnorm_wordpool_less_exclusions.txt	LTP200	ltpFR	8	7	1	ARCHITECT	36	n/a	n/a	1	n/a	0	0	0	n/a	n/a	n/a	n/a	n/a
1957.752	n/a	WORD	978876	wordpools/wasnorm_wordpool_less_exclusions.txt	LTP200	ltpFR	8	8	1	MONGOOSE	909	n/a	n/a	1	n/a	0	0	0	0.57763671875	0.412841796875	1	lower	amplitud.ttf
1961.896	n/a	WORD	980948	wordpools/wasnorm_wordpool_less_exclusions.txt	LTP200	ltpFR	8	8	1	CHIME	300	n/a	n/a	0	n/a	0	0	0	0.57763671875	0.412841796875	1	lower	amplitud.ttf
1965.99	n/a	WORD	982995	wordpools/wasnorm_wordpool_less_exclusions.txt	LTP200	ltpFR	8	8	1	MONUMENT	913	n/a	n/a	0	n/a	0	0	0	0.57763671875	0.412841796875	1	lower	amplitud.ttf
1969.934	n/a	WORD	984967	wordpools/wasnorm_wordpool_less_exclusions.txt	LTP200	ltpFR	8	8	1	WRITER	1627	n/a	n/a	1	n/a	0	0	0	0.57763671875	0.412841796875	1	lower	amplitud.ttf
1973.912	n/a	WORD	986956	wordpools/wasnorm_wordpool_less_exclusions.txt	LTP200	ltpFR	8	8	0	BINDER	127	n/a	n/a	1	n/a	0	0	0	0.422607421875	0.5869140625	0	upper	zerothre.ttf
1977.972	n/a	WORD	988986	wordpools/wasnorm_wordpool_less_exclusions.txt	LTP200	ltpFR	8	8	0	HERO	706	n/a	n/a	1	n/a	0	0	0	0.422607421875	0.5869140625	0	upper	zerothre.ttf
1982.198	n/a	WORD	991099	wordpools/wasnorm_wordpool_less_exclusions.txt	LTP200	ltpFR	8	8	0	STADIUM	1364	n/a	n/a	1	n/a	0	0	0	0.422607421875	0.5869140625	0	upper	zerothre.ttf
1986.076	n/a	WORD	993038	wordpools/wasnorm_wordpool_less_exclusions.txt	LTP200	ltpFR	8	8	1	TRAY	1498	n/a	n/a	0	n/a	0	0	0	0.57763671875	0.412841796875	1	lower	amplitud.ttf
1990.22	n/a	WORD	995110	wordpools/wasnorm_wordpool_less_exclusions.txt	LTP200	ltpFR	8	8	1	MOTH	920	n/a	n/a	1	n/a	0	0	0	0.57763671875	0.412841796875	1	lower	amplitud.ttf
1994.246	n/a	WORD	997123	wordpools/wasnorm_wordpool_less_exclusions.txt	LTP200	ltpFR	8	8	1	STRAWBERRY	1391	n/a	n/a	1	n/a	0	0	0	0.57763671875	0.412841796875	1	lower	amplitud.ttf
1998.192	n/a	WORD	999096	wordpools/wasnorm_wordpool_less_exclusions.txt	LTP200	ltpFR	8	8	1	REFEREE	1178	n/a	n/a	1	n/a	0	0	0	0.57763671875	0.412841796875	1	lower	amplitud.ttf
2002.22	n/a	WORD	1001110	wordpools/wasnorm_wordpool_less_exclusions.txt	LTP200	ltpFR	8	8	0	OATMEAL	967	n/a	n/a	0	n/a	0	0	0	0.422607421875	0.5869140625	0	upper	zerothre.ttf
2006.13	n/a	WORD	1003065	wordpools/wasnorm_wordpool_less_exclusions.txt	LTP200	ltpFR	8	8	0	POWDER	1117	n/a	n/a	0	n/a	0	0	0	0.422607421875	0.5869140625	0	upper	zerothre.ttf
2010.008	n/a	WORD	1005004	wordpools/wasnorm_wordpool_less_exclusions.txt	LTP200	ltpFR	8	8	0	GOO	648	n/a	n/a	0	n/a	0	0	0	0.422607421875	0.5869140625	0	upper	zerothre.ttf
2014.184	n/a	WORD	1007092	wordpools/wasnorm_wordpool_less_exclusions.txt	LTP200	ltpFR	8	8	0	POT	1114	n/a	n/a	0	n/a	0	0	0	0.422607421875	0.5869140625	0	upper	zerothre.ttf
2018.362	n/a	WORD	1009181	wordpools/wasnorm_wordpool_less_exclusions.txt	LTP200	ltpFR	8	8	0	LAMP	798	n/a	n/a	1	n/a	0	0	0	0.422607421875	0.5869140625	0	upper	zerothre.ttf
2021.376	n/a	START	1010688	n/a	LTP200	ltpFR	8	n/a	n/a	n/a	n/a	n/a	n/a	n/a	n/a	n/a	n/a	n/a	n/a	n/a	n/a	n/a	n/a
2022.222	n/a	PROB	1011111	n/a	LTP200	ltpFR	8	n/a	n/a	n/a	n/a	n/a	n/a	n/a	10	5	1	4	n/a	n/a	n/a	n/a	n/a
2024.654	n/a	PROB	1012327	n/a	LTP200	ltpFR	8	n/a	n/a	n/a	n/a	n/a	n/a	n/a	21	9	8	4	n/a	n/a	n/a	n/a	n/a
2029.376	n/a	STOP	1014688	n/a	LTP200	ltpFR	8	n/a	n/a	n/a	n/a	n/a	n/a	n/a	n/a	n/a	n/a	n/a	n/a	n/a	n/a	n/a	n/a
2031.194	n/a	REC_START	1015597	n/a	LTP200	ltpFR	8	8	n/a	n/a	n/a	n/a	n/a	n/a	n/a	0	0	0	n/a	n/a	n/a	n/a	n/a
2032.54	n/a	REC_WORD	1016270	wordpools/wasnorm_wordpool_less_exclusions.txt	LTP200	ltpFR	8	8	0	GOO	648	n/a	n/a	0	n/a	0	0	0	n/a	n/a	n/a	n/a	n/a
2033.524	n/a	REC_WORD	1016762	wordpools/wasnorm_wordpool_less_exclusions.txt	LTP200	ltpFR	8	8	0	POT	1114	n/a	n/a	0	n/a	0	0	0	n/a	n/a	n/a	n/a	n/a
2034.56	n/a	REC_WORD	1017280	wordpools/wasnorm_wordpool_less_exclusions.txt	LTP200	ltpFR	8	8	1	MONGOOSE	909	n/a	n/a	1	n/a	0	0	0	n/a	n/a	n/a	n/a	n/a
2035.942	n/a	REC_WORD	1017971	wordpools/wasnorm_wordpool_less_exclusions.txt	LTP200	ltpFR	8	8	1	CHIME	300	n/a	n/a	0	n/a	0	0	0	n/a	n/a	n/a	n/a	n/a
2037.33	n/a	REC_WORD	1018665	wordpools/wasnorm_wordpool_less_exclusions.txt	LTP200	ltpFR	8	8	1	WRITER	1627	n/a	n/a	1	n/a	0	0	0	n/a	n/a	n/a	n/a	n/a
2038.696	n/a	REC_WORD	1019348	wordpools/wasnorm_wordpool_less_exclusions.txt	LTP200	ltpFR	8	8	0	HERO	706	n/a	n/a	1	n/a	0	0	0	n/a	n/a	n/a	n/a	n/a
2040.142	n/a	REC_WORD	1020071	wordpools/wasnorm_wordpool_less_exclusions.txt	LTP200	ltpFR	8	8	0	BINDER	127	n/a	n/a	1	n/a	0	0	0	n/a	n/a	n/a	n/a	n/a
2043.306	n/a	REC_WORD	1021653	wordpools/wasnorm_wordpool_less_exclusions.txt	LTP200	ltpFR	8	8	1	MONUMENT	913	n/a	n/a	0	n/a	0	0	0	n/a	n/a	n/a	n/a	n/a
2054.166	n/a	REC_WORD	1027083	wordpools/wasnorm_wordpool_less_exclusions.txt	LTP200	ltpFR	8	8	0	POWDER	1117	n/a	n/a	0	n/a	0	0	0	n/a	n/a	n/a	n/a	n/a
2057.194	n/a	REC_WORD	1028597	wordpools/wasnorm_wordpool_less_exclusions.txt	LTP200	ltpFR	8	8	0	OATMEAL	967	n/a	n/a	0	n/a	0	0	0	n/a	n/a	n/a	n/a	n/a
2121.01	n/a	WORD	1060505	wordpools/wasnorm_wordpool_less_exclusions.txt	LTP200	ltpFR	8	9	0	RUM	1217	n/a	n/a	0	n/a	0	0	0	0.422607421875	0.5869140625	0	upper	zerothre.ttf
2125.22	n/a	WORD	1062610	wordpools/wasnorm_wordpool_less_exclusions.txt	LTP200	ltpFR	8	9	0	MAGAZINE	853	n/a	n/a	0	n/a	0	0	0	0.422607421875	0.5869140625	0	upper	zerothre.ttf
2129.382	n/a	WORD	1064691	wordpools/wasnorm_wordpool_less_exclusions.txt	LTP200	ltpFR	8	9	0	CACTUS	215	n/a	n/a	1	n/a	0	0	0	0.422607421875	0.5869140625	0	upper	zerothre.ttf
2133.324	n/a	WORD	1066662	wordpools/wasnorm_wordpool_less_exclusions.txt	LTP200	ltpFR	8	9	0	BEAST	108	n/a	n/a	1	n/a	0	0	0	0.422607421875	0.5869140625	0	upper	zerothre.ttf
2137.268	n/a	WORD	1068634	wordpools/wasnorm_wordpool_less_exclusions.txt	LTP200	ltpFR	8	9	0	MARSH	874	n/a	n/a	1	n/a	0	0	0	0.422607421875	0.5869140625	0	upper	zerothre.ttf
2141.38	n/a	WORD	1070690	wordpools/wasnorm_wordpool_less_exclusions.txt	LTP200	ltpFR	8	9	0	BROOK	177	n/a	n/a	1	n/a	0	0	0	0.422607421875	0.5869140625	0	upper	zerothre.ttf
2145.524	n/a	WORD	1072762	wordpools/wasnorm_wordpool_less_exclusions.txt	LTP200	ltpFR	8	9	1	LIP	828	n/a	n/a	0	n/a	0	0	0	0.57763671875	0.412841796875	1	lower	amplitud.ttf
2149.518	n/a	WORD	1074759	wordpools/wasnorm_wordpool_less_exclusions.txt	LTP200	ltpFR	8	9	1	PUBLICATION	1136	n/a	n/a	0	n/a	0	0	0	0.57763671875	0.412841796875	1	lower	amplitud.ttf
2153.546	n/a	WORD	1076773	wordpools/wasnorm_wordpool_less_exclusions.txt	LTP200	ltpFR	8	9	1	NUN	962	n/a	n/a	1	n/a	0	0	0	0.57763671875	0.412841796875	1	lower	amplitud.ttf
2157.574	n/a	WORD	1078787	wordpools/wasnorm_wordpool_less_exclusions.txt	LTP200	ltpFR	8	9	1	FLASK	576	n/a	n/a	0	n/a	0	0	0	0.57763671875	0.412841796875	1	lower	amplitud.ttf
2161.5	n/a	WORD	1080750	wordpools/wasnorm_wordpool_less_exclusions.txt	LTP200	ltpFR	8	9	0	BEAD	103	n/a	n/a	0	n/a	0	0	0	0.422607421875	0.5869140625	0	upper	zerothre.ttf
2165.628	n/a	WORD	1082814	wordpools/wasnorm_wordpool_less_exclusions.txt	LTP200	ltpFR	8	9	0	RACKET	1155	n/a	n/a	1	n/a	0	0	0	0.422607421875	0.5869140625	0	upper	zerothre.ttf
2169.756	n/a	WORD	1084878	wordpools/wasnorm_wordpool_less_exclusions.txt	LTP200	ltpFR	8	9	1	CHICK	296	n/a	n/a	1	n/a	0	0	0	0.57763671875	0.412841796875	1	lower	amplitud.ttf
2173.866	n/a	WORD	1086933	wordpools/wasnorm_wordpool_less_exclusions.txt	LTP200	ltpFR	8	9	1	CHICKEN	297	n/a	n/a	1	n/a	0	0	0	0.57763671875	0.412841796875	1	lower	amplitud.ttf
2178.026	n/a	WORD	1089013	wordpools/wasnorm_wordpool_less_exclusions.txt	LTP200	ltpFR	8	9	1	DIAL	457	n/a	n/a	0	n/a	0	0	0	0.57763671875	0.412841796875	1	lower	amplitud.ttf
2182.186	n/a	WORD	1091093	wordpools/wasnorm_wordpool_less_exclusions.txt	LTP200	ltpFR	8	9	1	RADISH	1158	n/a	n/a	0	n/a	0	0	0	0.57763671875	0.412841796875	1	lower	amplitud.ttf
2187.828	n/a	REC_START	1093914	n/a	LTP200	ltpFR	8	9	n/a	n/a	n/a	n/a	n/a	n/a	n/a	0	0	0	n/a	n/a	n/a	n/a	n/a
2189.964	n/a	REC_WORD	1094982	wordpools/wasnorm_wordpool_less_exclusions.txt	LTP200	ltpFR	8	9	1	DIAL	457	n/a	n/a	0	n/a	0	0	0	n/a	n/a	n/a	n/a	n/a
2191.106	n/a	REC_WORD	1095553	wordpools/wasnorm_wordpool_less_exclusions.txt	LTP200	ltpFR	8	9	1	RADISH	1158	n/a	n/a	0	n/a	0	0	0	n/a	n/a	n/a	n/a	n/a
2201.014	n/a	REC_WORD	1100507	wordpools/wasnorm_wordpool_less_exclusions.txt	LTP200	ltpFR	8	9	0	CACTUS	215	n/a	n/a	1	n/a	0	0	0	n/a	n/a	n/a	n/a	n/a
2202.25	n/a	REC_WORD	1101125	wordpools/wasnorm_wordpool_less_exclusions.txt	LTP200	ltpFR	8	9	0	RUM	1217	n/a	n/a	0	n/a	0	0	0	n/a	n/a	n/a	n/a	n/a
2203.468	n/a	REC_WORD	1101734	wordpools/wasnorm_wordpool_less_exclusions.txt	LTP200	ltpFR	8	9	0	MAGAZINE	853	n/a	n/a	0	n/a	0	0	0	n/a	n/a	n/a	n/a	n/a
2205.174	n/a	REC_WORD	1102587	wordpools/wasnorm_wordpool_less_exclusions.txt	LTP200	ltpFR	8	9	1	NUN	962	n/a	n/a	1	n/a	0	0	0	n/a	n/a	n/a	n/a	n/a
2222.55	n/a	REC_WORD	1111275	wordpools/wasnorm_wordpool_less_exclusions.txt	LTP200	ltpFR	8	9	1	LIP	828	n/a	n/a	0	n/a	0	0	0	n/a	n/a	n/a	n/a	n/a
2223.298	n/a	REC_WORD	1111649	wordpools/wasnorm_wordpool_less_exclusions.txt	LTP200	ltpFR	8	9	1	PUBLICATION	1136	n/a	n/a	0	n/a	0	0	0	n/a	n/a	n/a	n/a	n/a
2250.198	n/a	REC_WORD	1125099	wordpools/wasnorm_wordpool_less_exclusions.txt	LTP200	ltpFR	8	9	0	BEAST	108	n/a	n/a	1	n/a	0	0	0	n/a	n/a	n/a	n/a	n/a
2274.316	n/a	WORD	1137158	wordpools/wasnorm_wordpool_less_exclusions.txt	LTP200	ltpFR	8	10	0	BARLEY	88	n/a	n/a	0	n/a	0	0	0	0.422607421875	0.5869140625	0	upper	zerothre.ttf
2278.444	n/a	WORD	1139222	wordpools/wasnorm_wordpool_less_exclusions.txt	LTP200	ltpFR	8	10	0	STABLE	1363	n/a	n/a	1	n/a	0	0	0	0.422607421875	0.5869140625	0	upper	zerothre.ttf
2282.354	n/a	WORD	1141177	wordpools/wasnorm_wordpool_less_exclusions.txt	LTP200	ltpFR	8	10	0	KITCHEN	778	n/a	n/a	1	n/a	0	0	0	0.422607421875	0.5869140625	0	upper	zerothre.ttf
2286.516	n/a	WORD	1143258	wordpools/wasnorm_wordpool_less_exclusions.txt	LTP200	ltpFR	8	10	0	TUBA	1515	n/a	n/a	1	n/a	0	0	0	0.422607421875	0.5869140625	0	upper	zerothre.ttf
2290.51	n/a	WORD	1145255	wordpools/wasnorm_wordpool_less_exclusions.txt	LTP200	ltpFR	8	10	0	OLIVE	975	n/a	n/a	0	n/a	0	0	0	0.422607421875	0.5869140625	0	upper	zerothre.ttf
2294.62	n/a	WORD	1147310	wordpools/wasnorm_wordpool_less_exclusions.txt	LTP200	ltpFR	8	10	0	COPIER	377	n/a	n/a	1	n/a	0	0	0	0.422607421875	0.5869140625	0	upper	zerothre.ttf
2298.598	n/a	WORD	1149299	wordpools/wasnorm_wordpool_less_exclusions.txt	LTP200	ltpFR	8	10	0	SCROLL	1257	n/a	n/a	0	n/a	0	0	0	0.422607421875	0.5869140625	0	upper	zerothre.ttf
2302.758	n/a	WORD	1151379	wordpools/wasnorm_wordpool_less_exclusions.txt	LTP200	ltpFR	8	10	0	CAFE	216	n/a	n/a	1	n/a	0	0	0	0.422607421875	0.5869140625	0	upper	zerothre.ttf
2306.936	n/a	WORD	1153468	wordpools/wasnorm_wordpool_less_exclusions.txt	LTP200	ltpFR	8	10	0	GRAVEL	659	n/a	n/a	0	n/a	0	0	0	0.422607421875	0.5869140625	0	upper	zerothre.ttf
2310.864	n/a	WORD	1155432	wordpools/wasnorm_wordpool_less_exclusions.txt	LTP200	ltpFR	8	10	0	COOLER	375	n/a	n/a	1	n/a	0	0	0	0.422607421875	0.5869140625	0	upper	zerothre.ttf
2315.056	n/a	WORD	1157528	wordpools/wasnorm_wordpool_less_exclusions.txt	LTP200	ltpFR	8	10	0	TAVERN	1437	n/a	n/a	1	n/a	0	0	0	0.422607421875	0.5869140625	0	upper	zerothre.ttf
2319.018	n/a	WORD	1159509	wordpools/wasnorm_wordpool_less_exclusions.txt	LTP200	ltpFR	8	10	0	GROUND	666	n/a	n/a	1	n/a	0	0	0	0.422607421875	0.5869140625	0	upper	zerothre.ttf
2322.912	n/a	WORD	1161456	wordpools/wasnorm_wordpool_less_exclusions.txt	LTP200	ltpFR	8	10	0	MANAGER	863	n/a	n/a	1	n/a	0	0	0	0.422607421875	0.5869140625	0	upper	zerothre.ttf
2327.056	n/a	WORD	1163528	wordpools/wasnorm_wordpool_less_exclusions.txt	LTP200	ltpFR	8	10	0	DRUM	502	n/a	n/a	1	n/a	0	0	0	0.422607421875	0.5869140625	0	upper	zerothre.ttf
2330.95	n/a	WORD	1165475	wordpools/wasnorm_wordpool_less_exclusions.txt	LTP200	ltpFR	8	10	0	CROOK	412	n/a	n/a	1	n/a	0	0	0	0.422607421875	0.5869140625	0	upper	zerothre.ttf
2335.142	n/a	WORD	1167571	wordpools/wasnorm_wordpool_less_exclusions.txt	LTP200	ltpFR	8	10	0	JOINT	758	n/a	n/a	0	n/a	0	0	0	0.422607421875	0.5869140625	0	upper	zerothre.ttf
2338.154	n/a	START	1169077	n/a	LTP200	ltpFR	8	n/a	n/a	n/a	n/a	n/a	n/a	n/a	n/a	n/a	n/a	n/a	n/a	n/a	n/a	n/a	n/a
2339.254	n/a	PROB	1169627	n/a	LTP200	ltpFR	8	n/a	n/a	n/a	n/a	n/a	n/a	n/a	12	6	6	3	n/a	n/a	n/a	n/a	n/a
2341.568	n/a	PROB	1170784	n/a	LTP200	ltpFR	8	n/a	n/a	n/a	n/a	n/a	n/a	n/a	20	6	8	6	n/a	n/a	n/a	n/a	n/a
2344.712	n/a	PROB	1172356	n/a	LTP200	ltpFR	8	n/a	n/a	n/a	n/a	n/a	n/a	n/a	18	6	5	7	n/a	n/a	n/a	n/a	n/a
2346.494	n/a	PROB	1173247	n/a	LTP200	ltpFR	8	n/a	n/a	n/a	n/a	n/a	n/a	n/a	12	6	5	1	n/a	n/a	n/a	n/a	n/a
2348.222	n/a	PROB	1174111	n/a	LTP200	ltpFR	8	n/a	n/a	n/a	n/a	n/a	n/a	n/a	10	2	1	7	n/a	n/a	n/a	n/a	n/a
2349.738	n/a	PROB	1174869	n/a	LTP200	ltpFR	8	n/a	n/a	n/a	n/a	n/a	n/a	n/a	21	9	9	3	n/a	n/a	n/a	n/a	n/a
2352.684	n/a	STOP	1176342	n/a	LTP200	ltpFR	8	n/a	n/a	n/a	n/a	n/a	n/a	n/a	n/a	n/a	n/a	n/a	n/a	n/a	n/a	n/a	n/a
2355.93	n/a	REC_START	1177965	n/a	LTP200	ltpFR	8	10	n/a	n/a	n/a	n/a	n/a	n/a	n/a	0	0	0	n/a	n/a	n/a	n/a	n/a
2357.52	n/a	REC_WORD	1178760	wordpools/wasnorm_wordpool_less_exclusions.txt	LTP200	ltpFR	8	10	0	BARLEY	88	n/a	n/a	0	n/a	0	0	0	n/a	n/a	n/a	n/a	n/a
2358.584	n/a	REC_WORD	1179292	wordpools/wasnorm_wordpool_less_exclusions.txt	LTP200	ltpFR	8	10	0	TUBA	1515	n/a	n/a	1	n/a	0	0	0	n/a	n/a	n/a	n/a	n/a
2359.52	n/a	REC_WORD	1179760	wordpools/wasnorm_wordpool_less_exclusions.txt	LTP200	ltpFR	8	10	0	STABLE	1363	n/a	n/a	1	n/a	0	0	0	n/a	n/a	n/a	n/a	n/a
2361.502	n/a	REC_WORD	1180751	wordpools/wasnorm_wordpool_less_exclusions.txt	LTP200	ltpFR	8	10	0	KITCHEN	778	n/a	n/a	1	n/a	0	0	0	n/a	n/a	n/a	n/a	n/a
2362.574	n/a	REC_WORD	1181287	wordpools/wasnorm_wordpool_less_exclusions.txt	LTP200	ltpFR	8	10	0	CAFE	216	n/a	n/a	1	n/a	0	0	0	n/a	n/a	n/a	n/a	n/a
2363.946	n/a	REC_WORD	1181973	wordpools/wasnorm_wordpool_less_exclusions.txt	LTP200	ltpFR	8	10	0	COOLER	375	n/a	n/a	1	n/a	0	0	0	n/a	n/a	n/a	n/a	n/a
2365.902	n/a	REC_WORD	1182951	wordpools/wasnorm_wordpool_less_exclusions.txt	LTP200	ltpFR	8	10	0	OLIVE	975	n/a	n/a	0	n/a	0	0	0	n/a	n/a	n/a	n/a	n/a
2366.964	n/a	REC_WORD	1183482	wordpools/wasnorm_wordpool_less_exclusions.txt	LTP200	ltpFR	8	10	0	SCROLL	1257	n/a	n/a	0	n/a	0	0	0	n/a	n/a	n/a	n/a	n/a
2377.66	n/a	REC_WORD	1188830	wordpools/wasnorm_wordpool_less_exclusions.txt	LTP200	ltpFR	8	10	0	DRUM	502	n/a	n/a	1	n/a	0	0	0	n/a	n/a	n/a	n/a	n/a
2385.788	n/a	REC_WORD	1192894	wordpools/wasnorm_wordpool_less_exclusions.txt	LTP200	ltpFR	8	10	0	COPIER	377	n/a	n/a	1	n/a	0	0	0	n/a	n/a	n/a	n/a	n/a
2431.534	n/a	REST_REWET	1215767	n/a	LTP200	ltpFR	8	10	n/a	n/a	n/a	n/a	n/a	n/a	n/a	0	0	0	n/a	n/a	n/a	n/a	n/a
2762.694	n/a	START	1381347	n/a	LTP200	ltpFR	8	n/a	n/a	n/a	n/a	n/a	n/a	n/a	n/a	n/a	n/a	n/a	n/a	n/a	n/a	n/a	n/a
2764.208	n/a	PROB	1382104	n/a	LTP200	ltpFR	8	n/a	n/a	n/a	n/a	n/a	n/a	n/a	25	9	9	7	n/a	n/a	n/a	n/a	n/a
2766.904	n/a	PROB	1383452	n/a	LTP200	ltpFR	8	n/a	n/a	n/a	n/a	n/a	n/a	n/a	13	1	3	9	n/a	n/a	n/a	n/a	n/a
2768.968	n/a	PROB	1384484	n/a	LTP200	ltpFR	8	n/a	n/a	n/a	n/a	n/a	n/a	n/a	16	7	1	8	n/a	n/a	n/a	n/a	n/a
2771.082	n/a	PROB	1385541	n/a	LTP200	ltpFR	8	n/a	n/a	n/a	n/a	n/a	n/a	n/a	19	8	6	5	n/a	n/a	n/a	n/a	n/a
2773.194	n/a	PROB	1386597	n/a	LTP200	ltpFR	8	n/a	n/a	n/a	n/a	n/a	n/a	n/a	12	2	9	1	n/a	n/a	n/a	n/a	n/a
2774.86	n/a	PROB	1387430	n/a	LTP200	ltpFR	8	n/a	n/a	n/a	n/a	n/a	n/a	n/a	13	5	3	5	n/a	n/a	n/a	n/a	n/a
2778.694	n/a	STOP	1389347	n/a	LTP200	ltpFR	8	n/a	n/a	n/a	n/a	n/a	n/a	n/a	n/a	n/a	n/a	n/a	n/a	n/a	n/a	n/a	n/a
2779.768	n/a	WORD	1389884	wordpools/wasnorm_wordpool_less_exclusions.txt	LTP200	ltpFR	8	11	1	PORT	1110	n/a	n/a	0	n/a	0	0	0	0.57763671875	0.412841796875	1	lower	amplitud.ttf
2782.782	n/a	START	1391391	n/a	LTP200	ltpFR	8	n/a	n/a	n/a	n/a	n/a	n/a	n/a	n/a	n/a	n/a	n/a	n/a	n/a	n/a	n/a	n/a
2783.762	n/a	PROB	1391881	n/a	LTP200	ltpFR	8	n/a	n/a	n/a	n/a	n/a	n/a	n/a	23	8	8	7	n/a	n/a	n/a	n/a	n/a
2787.474	n/a	PROB	1393737	n/a	LTP200	ltpFR	8	n/a	n/a	n/a	n/a	n/a	n/a	n/a	15	3	6	6	n/a	n/a	n/a	n/a	n/a
2789.304	n/a	PROB	1394652	n/a	LTP200	ltpFR	8	n/a	n/a	n/a	n/a	n/a	n/a	n/a	22	8	7	9	n/a	n/a	n/a	n/a	n/a
2793.214	n/a	PROB	1396607	n/a	LTP200	ltpFR	8	n/a	n/a	n/a	n/a	n/a	n/a	n/a	15	3	3	9	n/a	n/a	n/a	n/a	n/a
2798.782	n/a	STOP	1399391	n/a	LTP200	ltpFR	8	n/a	n/a	n/a	n/a	n/a	n/a	n/a	n/a	n/a	n/a	n/a	n/a	n/a	n/a	n/a	n/a
2799.972	n/a	WORD	1399986	wordpools/wasnorm_wordpool_less_exclusions.txt	LTP200	ltpFR	8	11	1	SOCKET	1340	n/a	n/a	0	n/a	0	0	0	0.57763671875	0.412841796875	1	lower	amplitud.ttf
2802.984	n/a	START	1401492	n/a	LTP200	ltpFR	8	n/a	n/a	n/a	n/a	n/a	n/a	n/a	n/a	n/a	n/a	n/a	n/a	n/a	n/a	n/a	n/a
2803.882	n/a	PROB	1401941	n/a	LTP200	ltpFR	8	n/a	n/a	n/a	n/a	n/a	n/a	n/a	16	7	8	1	n/a	n/a	n/a	n/a	n/a
2805.862	n/a	PROB	1402931	n/a	LTP200	ltpFR	8	n/a	n/a	n/a	n/a	n/a	n/a	n/a	16	1	7	8	n/a	n/a	n/a	n/a	n/a
2807.944	n/a	PROB	1403972	n/a	LTP200	ltpFR	8	n/a	n/a	n/a	n/a	n/a	n/a	n/a	11	3	5	3	n/a	n/a	n/a	n/a	n/a
2811.472	n/a	PROB	1405736	n/a	LTP200	ltpFR	8	n/a	n/a	n/a	n/a	n/a	n/a	n/a	16	4	5	7	n/a	n/a	n/a	n/a	n/a
2813.402	n/a	PROB	1406701	n/a	LTP200	ltpFR	8	n/a	n/a	n/a	n/a	n/a	n/a	n/a	14	6	4	4	n/a	n/a	n/a	n/a	n/a
2815.034	n/a	PROB	1407517	n/a	LTP200	ltpFR	8	n/a	n/a	n/a	n/a	n/a	n/a	n/a	17	8	7	2	n/a	n/a	n/a	n/a	n/a
2816.93	n/a	PROB	1408465	n/a	LTP200	ltpFR	8	n/a	n/a	n/a	n/a	n/a	n/a	n/a	9	4	4	1	n/a	n/a	n/a	n/a	n/a
2818.386	n/a	STOP	1409193	n/a	LTP200	ltpFR	8	n/a	n/a	n/a	n/a	n/a	n/a	n/a	n/a	n/a	n/a	n/a	n/a	n/a	n/a	n/a	n/a
2820.026	n/a	WORD	1410013	wordpools/wasnorm_wordpool_less_exclusions.txt	LTP200	ltpFR	8	11	1	TAPIOCA	1434	n/a	n/a	0	n/a	0	0	0	0.57763671875	0.412841796875	1	lower	amplitud.ttf
2823.038	n/a	START	1411519	n/a	LTP200	ltpFR	8	n/a	n/a	n/a	n/a	n/a	n/a	n/a	n/a	n/a	n/a	n/a	n/a	n/a	n/a	n/a	n/a
2823.986	n/a	PROB	1411993	n/a	LTP200	ltpFR	8	n/a	n/a	n/a	n/a	n/a	n/a	n/a	16	8	7	1	n/a	n/a	n/a	n/a	n/a
2827.632	n/a	PROB	1413816	n/a	LTP200	ltpFR	8	n/a	n/a	n/a	n/a	n/a	n/a	n/a	11	6	1	4	n/a	n/a	n/a	n/a	n/a
2830.694	n/a	PROB	1415347	n/a	LTP200	ltpFR	8	n/a	n/a	n/a	n/a	n/a	n/a	n/a	14	6	2	6	n/a	n/a	n/a	n/a	n/a
2832.674	n/a	PROB	1416337	n/a	LTP200	ltpFR	8	n/a	n/a	n/a	n/a	n/a	n/a	n/a	10	3	4	3	n/a	n/a	n/a	n/a	n/a
2839.026	n/a	STOP	1419513	n/a	LTP200	ltpFR	8	n/a	n/a	n/a	n/a	n/a	n/a	n/a	n/a	n/a	n/a	n/a	n/a	n/a	n/a	n/a	n/a
2839.896	n/a	WORD	1419948	wordpools/wasnorm_wordpool_less_exclusions.txt	LTP200	ltpFR	8	11	1	PIE	1062	n/a	n/a	0	n/a	0	0	0	0.57763671875	0.412841796875	1	lower	amplitud.ttf
2842.908	n/a	START	1421454	n/a	LTP200	ltpFR	8	n/a	n/a	n/a	n/a	n/a	n/a	n/a	n/a	n/a	n/a	n/a	n/a	n/a	n/a	n/a	n/a
2843.974	n/a	PROB	1421987	n/a	LTP200	ltpFR	8	n/a	n/a	n/a	n/a	n/a	n/a	n/a	27	9	9	9	n/a	n/a	n/a	n/a	n/a
2846.054	n/a	PROB	1423027	n/a	LTP200	ltpFR	8	n/a	n/a	n/a	n/a	n/a	n/a	n/a	4	4	8	2	n/a	n/a	n/a	n/a	n/a
2847.95	n/a	PROB	1423975	n/a	LTP200	ltpFR	8	n/a	n/a	n/a	n/a	n/a	n/a	n/a	15	9	2	4	n/a	n/a	n/a	n/a	n/a
2850.448	n/a	PROB	1425224	n/a	LTP200	ltpFR	8	n/a	n/a	n/a	n/a	n/a	n/a	n/a	16	7	4	5	n/a	n/a	n/a	n/a	n/a
2854.424	n/a	PROB	1427212	n/a	LTP200	ltpFR	8	n/a	n/a	n/a	n/a	n/a	n/a	n/a	19	2	9	8	n/a	n/a	n/a	n/a	n/a
2856.554	n/a	PROB	1428277	n/a	LTP200	ltpFR	8	n/a	n/a	n/a	n/a	n/a	n/a	n/a	14	1	6	7	n/a	n/a	n/a	n/a	n/a
2858.154	n/a	STOP	1429077	n/a	LTP200	ltpFR	8	n/a	n/a	n/a	n/a	n/a	n/a	n/a	n/a	n/a	n/a	n/a	n/a	n/a	n/a	n/a	n/a
2860.05	n/a	WORD	1430025	wordpools/wasnorm_wordpool_less_exclusions.txt	LTP200	ltpFR	8	11	0	WAGON	1578	n/a	n/a	1	n/a	0	0	0	0.422607421875	0.5869140625	0	upper	zerothre.ttf
2863.062	n/a	START	1431531	n/a	LTP200	ltpFR	8	n/a	n/a	n/a	n/a	n/a	n/a	n/a	n/a	n/a	n/a	n/a	n/a	n/a	n/a	n/a	n/a
2863.944	n/a	PROB	1431972	n/a	LTP200	ltpFR	8	n/a	n/a	n/a	n/a	n/a	n/a	n/a	14	9	3	2	n/a	n/a	n/a	n/a	n/a
2868.77	n/a	PROB	1434385	n/a	LTP200	ltpFR	8	n/a	n/a	n/a	n/a	n/a	n/a	n/a	15	4	2	9	n/a	n/a	n/a	n/a	n/a
2871.132	n/a	PROB	1435566	n/a	LTP200	ltpFR	8	n/a	n/a	n/a	n/a	n/a	n/a	n/a	17	7	3	7	n/a	n/a	n/a	n/a	n/a
2872.948	n/a	PROB	1436474	n/a	LTP200	ltpFR	8	n/a	n/a	n/a	n/a	n/a	n/a	n/a	19	5	6	8	n/a	n/a	n/a	n/a	n/a
2874.778	n/a	PROB	1437389	n/a	LTP200	ltpFR	8	n/a	n/a	n/a	n/a	n/a	n/a	n/a	17	5	7	5	n/a	n/a	n/a	n/a	n/a
2876.29	n/a	PROB	1438145	n/a	LTP200	ltpFR	8	n/a	n/a	n/a	n/a	n/a	n/a	n/a	15	7	4	4	n/a	n/a	n/a	n/a	n/a
2877.922	n/a	STOP	1438961	n/a	LTP200	ltpFR	8	n/a	n/a	n/a	n/a	n/a	n/a	n/a	n/a	n/a	n/a	n/a	n/a	n/a	n/a	n/a	n/a
2880.086	n/a	WORD	1440043	wordpools/wasnorm_wordpool_less_exclusions.txt	LTP200	ltpFR	8	11	0	CATTLE	261	n/a	n/a	1	n/a	0	0	0	0.422607421875	0.5869140625	0	upper	zerothre.ttf
2883.098	n/a	START	1441549	n/a	LTP200	ltpFR	8	n/a	n/a	n/a	n/a	n/a	n/a	n/a	n/a	n/a	n/a	n/a	n/a	n/a	n/a	n/a	n/a
2884.296	n/a	PROB	1442148	n/a	LTP200	ltpFR	8	n/a	n/a	n/a	n/a	n/a	n/a	n/a	8	2	4	2	n/a	n/a	n/a	n/a	n/a
2886.626	n/a	PROB	1443313	n/a	LTP200	ltpFR	8	n/a	n/a	n/a	n/a	n/a	n/a	n/a	17	5	8	4	n/a	n/a	n/a	n/a	n/a
2889.656	n/a	PROB	1444828	n/a	LTP200	ltpFR	8	n/a	n/a	n/a	n/a	n/a	n/a	n/a	10	2	3	5	n/a	n/a	n/a	n/a	n/a
2891.12	n/a	PROB	1445560	n/a	LTP200	ltpFR	8	n/a	n/a	n/a	n/a	n/a	n/a	n/a	15	2	6	7	n/a	n/a	n/a	n/a	n/a
2893.234	n/a	PROB	1446617	n/a	LTP200	ltpFR	8	n/a	n/a	n/a	n/a	n/a	n/a	n/a	8	1	4	3	n/a	n/a	n/a	n/a	n/a
2895.814	n/a	PROB	1447907	n/a	LTP200	ltpFR	8	n/a	n/a	n/a	n/a	n/a	n/a	n/a	5	2	1	2	n/a	n/a	n/a	n/a	n/a
2897.26	n/a	PROB	1448630	n/a	LTP200	ltpFR	8	n/a	n/a	n/a	n/a	n/a	n/a	n/a	16	7	2	7	n/a	n/a	n/a	n/a	n/a
2899.02	n/a	STOP	1449510	n/a	LTP200	ltpFR	8	n/a	n/a	n/a	n/a	n/a	n/a	n/a	n/a	n/a	n/a	n/a	n/a	n/a	n/a	n/a	n/a
2899.99	n/a	WORD	1449995	wordpools/wasnorm_wordpool_less_exclusions.txt	LTP200	ltpFR	8	11	0	LINT	826	n/a	n/a	0	n/a	0	0	0	0.422607421875	0.5869140625	0	upper	zerothre.ttf
2903.004	n/a	START	1451502	n/a	LTP200	ltpFR	8	n/a	n/a	n/a	n/a	n/a	n/a	n/a	n/a	n/a	n/a	n/a	n/a	n/a	n/a	n/a	n/a
2904.118	n/a	PROB	1452059	n/a	LTP200	ltpFR	8	n/a	n/a	n/a	n/a	n/a	n/a	n/a	16	8	3	5	n/a	n/a	n/a	n/a	n/a
2908.528	n/a	PROB	1454264	n/a	LTP200	ltpFR	8	n/a	n/a	n/a	n/a	n/a	n/a	n/a	11	4	2	5	n/a	n/a	n/a	n/a	n/a
2911.14	n/a	PROB	1455570	n/a	LTP200	ltpFR	8	n/a	n/a	n/a	n/a	n/a	n/a	n/a	11	4	6	1	n/a	n/a	n/a	n/a	n/a
2912.772	n/a	PROB	1456386	n/a	LTP200	ltpFR	8	n/a	n/a	n/a	n/a	n/a	n/a	n/a	8	1	4	3	n/a	n/a	n/a	n/a	n/a
2914.452	n/a	PROB	1457226	n/a	LTP200	ltpFR	8	n/a	n/a	n/a	n/a	n/a	n/a	n/a	15	4	3	8	n/a	n/a	n/a	n/a	n/a
2916.532	n/a	PROB	1458266	n/a	LTP200	ltpFR	8	n/a	n/a	n/a	n/a	n/a	n/a	n/a	17	8	1	8	n/a	n/a	n/a	n/a	n/a
2918.028	n/a	STOP	1459014	n/a	LTP200	ltpFR	8	n/a	n/a	n/a	n/a	n/a	n/a	n/a	n/a	n/a	n/a	n/a	n/a	n/a	n/a	n/a	n/a
2920.078	n/a	WORD	1460039	wordpools/wasnorm_wordpool_less_exclusions.txt	LTP200	ltpFR	8	11	0	RUST	1219	n/a	n/a	0	n/a	0	0	0	0.422607421875	0.5869140625	0	upper	zerothre.ttf
2923.09	n/a	START	1461545	n/a	LTP200	ltpFR	8	n/a	n/a	n/a	n/a	n/a	n/a	n/a	n/a	n/a	n/a	n/a	n/a	n/a	n/a	n/a	n/a
2924.238	n/a	PROB	1462119	n/a	LTP200	ltpFR	8	n/a	n/a	n/a	n/a	n/a	n/a	n/a	9	2	2	5	n/a	n/a	n/a	n/a	n/a
2925.752	n/a	PROB	1462876	n/a	LTP200	ltpFR	8	n/a	n/a	n/a	n/a	n/a	n/a	n/a	13	6	2	5	n/a	n/a	n/a	n/a	n/a
2928.864	n/a	PROB	1464432	n/a	LTP200	ltpFR	8	n/a	n/a	n/a	n/a	n/a	n/a	n/a	14	7	3	4	n/a	n/a	n/a	n/a	n/a
2930.278	n/a	PROB	1465139	n/a	LTP200	ltpFR	8	n/a	n/a	n/a	n/a	n/a	n/a	n/a	18	5	8	5	n/a	n/a	n/a	n/a	n/a
2931.61	n/a	PROB	1465805	n/a	LTP200	ltpFR	8	n/a	n/a	n/a	n/a	n/a	n/a	n/a	18	9	8	1	n/a	n/a	n/a	n/a	n/a
2933.124	n/a	PROB	1466562	n/a	LTP200	ltpFR	8	n/a	n/a	n/a	n/a	n/a	n/a	n/a	9	5	1	3	n/a	n/a	n/a	n/a	n/a
2939.09	n/a	STOP	1469545	n/a	LTP200	ltpFR	8	n/a	n/a	n/a	n/a	n/a	n/a	n/a	n/a	n/a	n/a	n/a	n/a	n/a	n/a	n/a	n/a
2940.014	n/a	WORD	1470007	wordpools/wasnorm_wordpool_less_exclusions.txt	LTP200	ltpFR	8	11	1	CUFF	423	n/a	n/a	0	n/a	0	0	0	0.57763671875	0.412841796875	1	lower	amplitud.ttf
2943.028	n/a	START	1471514	n/a	LTP200	ltpFR	8	n/a	n/a	n/a	n/a	n/a	n/a	n/a	n/a	n/a	n/a	n/a	n/a	n/a	n/a	n/a	n/a
2943.942	n/a	PROB	1471971	n/a	LTP200	ltpFR	8	n/a	n/a	n/a	n/a	n/a	n/a	n/a	21	8	5	8	n/a	n/a	n/a	n/a	n/a
2946.122	n/a	PROB	1473061	n/a	LTP200	ltpFR	8	n/a	n/a	n/a	n/a	n/a	n/a	n/a	16	2	6	8	n/a	n/a	n/a	n/a	n/a
2947.636	n/a	PROB	1473818	n/a	LTP200	ltpFR	8	n/a	n/a	n/a	n/a	n/a	n/a	n/a	15	8	5	2	n/a	n/a	n/a	n/a	n/a
2950.982	n/a	PROB	1475491	n/a	LTP200	ltpFR	8	n/a	n/a	n/a	n/a	n/a	n/a	n/a	20	6	7	7	n/a	n/a	n/a	n/a	n/a
2953.428	n/a	PROB	1476714	n/a	LTP200	ltpFR	8	n/a	n/a	n/a	n/a	n/a	n/a	n/a	14	1	5	8	n/a	n/a	n/a	n/a	n/a
2955.424	n/a	PROB	1477712	n/a	LTP200	ltpFR	8	n/a	n/a	n/a	n/a	n/a	n/a	n/a	9	6	2	1	n/a	n/a	n/a	n/a	n/a
2959.026	n/a	STOP	1479513	n/a	LTP200	ltpFR	8	n/a	n/a	n/a	n/a	n/a	n/a	n/a	n/a	n/a	n/a	n/a	n/a	n/a	n/a	n/a	n/a
2960.018	n/a	WORD	1480009	wordpools/wasnorm_wordpool_less_exclusions.txt	LTP200	ltpFR	8	11	1	OX	994	n/a	n/a	1	n/a	0	0	0	0.57763671875	0.412841796875	1	lower	amplitud.ttf
2963.032	n/a	START	1481516	n/a	LTP200	ltpFR	8	n/a	n/a	n/a	n/a	n/a	n/a	n/a	n/a	n/a	n/a	n/a	n/a	n/a	n/a	n/a	n/a
2964.062	n/a	PROB	1482031	n/a	LTP200	ltpFR	8	n/a	n/a	n/a	n/a	n/a	n/a	n/a	17	7	1	9	n/a	n/a	n/a	n/a	n/a
2968.09	n/a	PROB	1484045	n/a	LTP200	ltpFR	8	n/a	n/a	n/a	n/a	n/a	n/a	n/a	14	8	2	4	n/a	n/a	n/a	n/a	n/a
2970.504	n/a	PROB	1485252	n/a	LTP200	ltpFR	8	n/a	n/a	n/a	n/a	n/a	n/a	n/a	13	3	6	4	n/a	n/a	n/a	n/a	n/a
2972.35	n/a	PROB	1486175	n/a	LTP200	ltpFR	8	n/a	n/a	n/a	n/a	n/a	n/a	n/a	13	3	5	5	n/a	n/a	n/a	n/a	n/a
2979.032	n/a	STOP	1489516	n/a	LTP200	ltpFR	8	n/a	n/a	n/a	n/a	n/a	n/a	n/a	n/a	n/a	n/a	n/a	n/a	n/a	n/a	n/a	n/a
2979.872	n/a	WORD	1489936	wordpools/wasnorm_wordpool_less_exclusions.txt	LTP200	ltpFR	8	11	1	DIRT	472	n/a	n/a	0	n/a	0	0	0	0.57763671875	0.412841796875	1	lower	amplitud.ttf
2982.886	n/a	START	1491443	n/a	LTP200	ltpFR	8	n/a	n/a	n/a	n/a	n/a	n/a	n/a	n/a	n/a	n/a	n/a	n/a	n/a	n/a	n/a	n/a
2984.0	n/a	PROB	1492000	n/a	LTP200	ltpFR	8	n/a	n/a	n/a	n/a	n/a	n/a	n/a	6	2	1	3	n/a	n/a	n/a	n/a	n/a
2985.548	n/a	PROB	1492774	n/a	LTP200	ltpFR	8	n/a	n/a	n/a	n/a	n/a	n/a	n/a	4	2	1	1	n/a	n/a	n/a	n/a	n/a
2987.012	n/a	PROB	1493506	n/a	LTP200	ltpFR	8	n/a	n/a	n/a	n/a	n/a	n/a	n/a	14	4	7	3	n/a	n/a	n/a	n/a	n/a
2989.092	n/a	PROB	1494546	n/a	LTP200	ltpFR	8	n/a	n/a	n/a	n/a	n/a	n/a	n/a	16	6	2	8	n/a	n/a	n/a	n/a	n/a
2991.388	n/a	PROB	1495694	n/a	LTP200	ltpFR	8	n/a	n/a	n/a	n/a	n/a	n/a	n/a	13	1	5	7	n/a	n/a	n/a	n/a	n/a
2993.168	n/a	PROB	1496584	n/a	LTP200	ltpFR	8	n/a	n/a	n/a	n/a	n/a	n/a	n/a	23	9	7	7	n/a	n/a	n/a	n/a	n/a
2997.94	n/a	STOP	1498970	n/a	LTP200	ltpFR	8	n/a	n/a	n/a	n/a	n/a	n/a	n/a	n/a	n/a	n/a	n/a	n/a	n/a	n/a	n/a	n/a
2999.826	n/a	WORD	1499913	wordpools/wasnorm_wordpool_less_exclusions.txt	LTP200	ltpFR	8	11	1	LIBRARY	816	n/a	n/a	n/a	n/a	0	0	0	0.57763671875	0.412841796875	1	lower	amplitud.ttf
3002.854	n/a	SLOW_MSG	1501427	n/a	LTP200	ltpFR	8	11	n/a	n/a	n/a	n/a	n/a	n/a	n/a	0	0	0	n/a	n/a	n/a	n/a	n/a
3004.386	n/a	START	1502193	n/a	LTP200	ltpFR	8	n/a	n/a	n/a	n/a	n/a	n/a	n/a	n/a	n/a	n/a	n/a	n/a	n/a	n/a	n/a	n/a
3005.568	n/a	PROB	1502784	n/a	LTP200	ltpFR	8	n/a	n/a	n/a	n/a	n/a	n/a	n/a	11	6	3	2	n/a	n/a	n/a	n/a	n/a
3007.414	n/a	PROB	1503707	n/a	LTP200	ltpFR	8	n/a	n/a	n/a	n/a	n/a	n/a	n/a	21	4	9	8	n/a	n/a	n/a	n/a	n/a
3010.676	n/a	PROB	1505338	n/a	LTP200	ltpFR	8	n/a	n/a	n/a	n/a	n/a	n/a	n/a	22	6	8	6	n/a	n/a	n/a	n/a	n/a
3015.902	n/a	PROB	1507951	n/a	LTP200	ltpFR	8	n/a	n/a	n/a	n/a	n/a	n/a	n/a	18	8	8	2	n/a	n/a	n/a	n/a	n/a
3018.498	n/a	PROB	1509249	n/a	LTP200	ltpFR	8	n/a	n/a	n/a	n/a	n/a	n/a	n/a	16	9	6	1	n/a	n/a	n/a	n/a	n/a
3020.244	n/a	STOP	1510122	n/a	LTP200	ltpFR	8	n/a	n/a	n/a	n/a	n/a	n/a	n/a	n/a	n/a	n/a	n/a	n/a	n/a	n/a	n/a	n/a
3021.51	n/a	WORD	1510755	wordpools/wasnorm_wordpool_less_exclusions.txt	LTP200	ltpFR	8	11	0	ASSISTANT	48	n/a	n/a	1	n/a	0	0	0	0.422607421875	0.5869140625	0	upper	zerothre.ttf
3024.522	n/a	START	1512261	n/a	LTP200	ltpFR	8	n/a	n/a	n/a	n/a	n/a	n/a	n/a	n/a	n/a	n/a	n/a	n/a	n/a	n/a	n/a	n/a
3025.538	n/a	PROB	1512769	n/a	LTP200	ltpFR	8	n/a	n/a	n/a	n/a	n/a	n/a	n/a	20	9	2	9	n/a	n/a	n/a	n/a	n/a
3027.234	n/a	PROB	1513617	n/a	LTP200	ltpFR	8	n/a	n/a	n/a	n/a	n/a	n/a	n/a	20	8	4	8	n/a	n/a	n/a	n/a	n/a
3029.914	n/a	PROB	1514957	n/a	LTP200	ltpFR	8	n/a	n/a	n/a	n/a	n/a	n/a	n/a	15	2	8	5	n/a	n/a	n/a	n/a	n/a
3031.362	n/a	PROB	1515681	n/a	LTP200	ltpFR	8	n/a	n/a	n/a	n/a	n/a	n/a	n/a	14	7	4	3	n/a	n/a	n/a	n/a	n/a
3033.126	n/a	PROB	1516563	n/a	LTP200	ltpFR	8	n/a	n/a	n/a	n/a	n/a	n/a	n/a	12	3	6	6	n/a	n/a	n/a	n/a	n/a
3035.006	n/a	PROB	1517503	n/a	LTP200	ltpFR	8	n/a	n/a	n/a	n/a	n/a	n/a	n/a	16	4	9	3	n/a	n/a	n/a	n/a	n/a
3037.836	n/a	PROB	1518918	n/a	LTP200	ltpFR	8	n/a	n/a	n/a	n/a	n/a	n/a	n/a	16	9	1	6	n/a	n/a	n/a	n/a	n/a
3039.252	n/a	STOP	1519626	n/a	LTP200	ltpFR	8	n/a	n/a	n/a	n/a	n/a	n/a	n/a	n/a	n/a	n/a	n/a	n/a	n/a	n/a	n/a	n/a
3041.448	n/a	WORD	1520724	wordpools/wasnorm_wordpool_less_exclusions.txt	LTP200	ltpFR	8	11	0	VOLUNTEER	1577	n/a	n/a	1	n/a	0	0	0	0.422607421875	0.5869140625	0	upper	zerothre.ttf
3044.46	n/a	START	1522230	n/a	LTP200	ltpFR	8	n/a	n/a	n/a	n/a	n/a	n/a	n/a	n/a	n/a	n/a	n/a	n/a	n/a	n/a	n/a	n/a
3045.392	n/a	PROB	1522696	n/a	LTP200	ltpFR	8	n/a	n/a	n/a	n/a	n/a	n/a	n/a	21	6	6	9	n/a	n/a	n/a	n/a	n/a
3049.07	n/a	PROB	1524535	n/a	LTP200	ltpFR	8	n/a	n/a	n/a	n/a	n/a	n/a	n/a	7	3	3	1	n/a	n/a	n/a	n/a	n/a
3050.734	n/a	PROB	1525367	n/a	LTP200	ltpFR	8	n/a	n/a	n/a	n/a	n/a	n/a	n/a	8	4	2	2	n/a	n/a	n/a	n/a	n/a
3052.214	n/a	PROB	1526107	n/a	LTP200	ltpFR	8	n/a	n/a	n/a	n/a	n/a	n/a	n/a	16	6	8	2	n/a	n/a	n/a	n/a	n/a
3054.062	n/a	PROB	1527031	n/a	LTP200	ltpFR	8	n/a	n/a	n/a	n/a	n/a	n/a	n/a	20	8	8	4	n/a	n/a	n/a	n/a	n/a
3055.926	n/a	PROB	1527963	n/a	LTP200	ltpFR	8	n/a	n/a	n/a	n/a	n/a	n/a	n/a	20	9	4	7	n/a	n/a	n/a	n/a	n/a
3057.808	n/a	PROB	1528904	n/a	LTP200	ltpFR	8	n/a	n/a	n/a	n/a	n/a	n/a	n/a	7	1	1	5	n/a	n/a	n/a	n/a	n/a
3059.124	n/a	STOP	1529562	n/a	LTP200	ltpFR	8	n/a	n/a	n/a	n/a	n/a	n/a	n/a	n/a	n/a	n/a	n/a	n/a	n/a	n/a	n/a	n/a
3061.318	n/a	WORD	1530659	wordpools/wasnorm_wordpool_less_exclusions.txt	LTP200	ltpFR	8	11	0	RIVER	1194	n/a	n/a	1	n/a	0	0	0	0.422607421875	0.5869140625	0	upper	zerothre.ttf
3064.33	n/a	START	1532165	n/a	LTP200	ltpFR	8	n/a	n/a	n/a	n/a	n/a	n/a	n/a	n/a	n/a	n/a	n/a	n/a	n/a	n/a	n/a	n/a
3065.478	n/a	PROB	1532739	n/a	LTP200	ltpFR	8	n/a	n/a	n/a	n/a	n/a	n/a	n/a	5	2	2	1	n/a	n/a	n/a	n/a	n/a
3067.242	n/a	PROB	1533621	n/a	LTP200	ltpFR	8	n/a	n/a	n/a	n/a	n/a	n/a	n/a	9	1	7	1	n/a	n/a	n/a	n/a	n/a
3068.974	n/a	PROB	1534487	n/a	LTP200	ltpFR	8	n/a	n/a	n/a	n/a	n/a	n/a	n/a	13	1	4	8	n/a	n/a	n/a	n/a	n/a
3071.902	n/a	PROB	1535951	n/a	LTP200	ltpFR	8	n/a	n/a	n/a	n/a	n/a	n/a	n/a	11	2	1	8	n/a	n/a	n/a	n/a	n/a
3073.6	n/a	PROB	1536800	n/a	LTP200	ltpFR	8	n/a	n/a	n/a	n/a	n/a	n/a	n/a	15	1	9	5	n/a	n/a	n/a	n/a	n/a
3080.33	n/a	STOP	1540165	n/a	LTP200	ltpFR	8	n/a	n/a	n/a	n/a	n/a	n/a	n/a	n/a	n/a	n/a	n/a	n/a	n/a	n/a	n/a	n/a
3081.338	n/a	WORD	1540669	wordpools/wasnorm_wordpool_less_exclusions.txt	LTP200	ltpFR	8	11	0	BARRACUDA	90	n/a	n/a	0	n/a	0	0	0	0.422607421875	0.5869140625	0	upper	zerothre.ttf
3084.35	n/a	START	1542175	n/a	LTP200	ltpFR	8	n/a	n/a	n/a	n/a	n/a	n/a	n/a	n/a	n/a	n/a	n/a	n/a	n/a	n/a	n/a	n/a
3085.382	n/a	PROB	1542691	n/a	LTP200	ltpFR	8	n/a	n/a	n/a	n/a	n/a	n/a	n/a	10	2	5	3	n/a	n/a	n/a	n/a	n/a
3087.03	n/a	PROB	1543515	n/a	LTP200	ltpFR	8	n/a	n/a	n/a	n/a	n/a	n/a	n/a	16	8	1	7	n/a	n/a	n/a	n/a	n/a
3088.744	n/a	PROB	1544372	n/a	LTP200	ltpFR	8	n/a	n/a	n/a	n/a	n/a	n/a	n/a	18	8	6	4	n/a	n/a	n/a	n/a	n/a
3090.608	n/a	PROB	1545304	n/a	LTP200	ltpFR	8	n/a	n/a	n/a	n/a	n/a	n/a	n/a	16	7	8	1	n/a	n/a	n/a	n/a	n/a
3092.556	n/a	PROB	1546278	n/a	LTP200	ltpFR	8	n/a	n/a	n/a	n/a	n/a	n/a	n/a	21	9	4	8	n/a	n/a	n/a	n/a	n/a
3094.618	n/a	PROB	1547309	n/a	LTP200	ltpFR	8	n/a	n/a	n/a	n/a	n/a	n/a	n/a	23	6	8	9	n/a	n/a	n/a	n/a	n/a
3097.898	n/a	PROB	1548949	n/a	LTP200	ltpFR	8	n/a	n/a	n/a	n/a	n/a	n/a	n/a	12	1	3	8	n/a	n/a	n/a	n/a	n/a
3099.678	n/a	STOP	1549839	n/a	LTP200	ltpFR	8	n/a	n/a	n/a	n/a	n/a	n/a	n/a	n/a	n/a	n/a	n/a	n/a	n/a	n/a	n/a	n/a
3102.274	n/a	REC_START	1551137	n/a	LTP200	ltpFR	8	11	n/a	n/a	n/a	n/a	n/a	n/a	n/a	0	0	0	n/a	n/a	n/a	n/a	n/a
3103.9	n/a	REC_WORD	1551950	wordpools/wasnorm_wordpool_less_exclusions.txt	LTP200	ltpFR	8	11	0	RIVER	1194	n/a	n/a	1	n/a	0	0	0	n/a	n/a	n/a	n/a	n/a
3104.872	n/a	REC_WORD	1552436	wordpools/wasnorm_wordpool_less_exclusions.txt	LTP200	ltpFR	8	11	0	BARRACUDA	90	n/a	n/a	0	n/a	0	0	0	n/a	n/a	n/a	n/a	n/a
3106.294	n/a	REC_WORD	1553147	wordpools/wasnorm_wordpool_less_exclusions.txt	LTP200	ltpFR	8	11	1	PORT	1110	n/a	n/a	0	n/a	0	0	0	n/a	n/a	n/a	n/a	n/a
3107.502	n/a	REC_WORD	1553751	wordpools/wasnorm_wordpool_less_exclusions.txt	LTP200	ltpFR	8	11	1	TAPIOCA	1434	n/a	n/a	0	n/a	0	0	0	n/a	n/a	n/a	n/a	n/a
3108.984	n/a	REC_WORD	1554492	wordpools/wasnorm_wordpool_less_exclusions.txt	LTP200	ltpFR	8	11	1	PIE	1062	n/a	n/a	0	n/a	0	0	0	n/a	n/a	n/a	n/a	n/a
3110.236	n/a	REC_WORD	1555118	wordpools/wasnorm_wordpool_less_exclusions.txt	LTP200	ltpFR	8	11	0	WAGON	1578	n/a	n/a	1	n/a	0	0	0	n/a	n/a	n/a	n/a	n/a
3111.522	n/a	REC_WORD	1555761	wordpools/wasnorm_wordpool_less_exclusions.txt	LTP200	ltpFR	8	11	1	OX	994	n/a	n/a	1	n/a	0	0	0	n/a	n/a	n/a	n/a	n/a
3112.786	n/a	REC_WORD	1556393	wordpools/wasnorm_wordpool_less_exclusions.txt	LTP200	ltpFR	8	11	0	RUST	1219	n/a	n/a	0	n/a	0	0	0	n/a	n/a	n/a	n/a	n/a
3114.078	n/a	REC_WORD	1557039	wordpools/wasnorm_wordpool_less_exclusions.txt	LTP200	ltpFR	8	11	0	LINT	826	n/a	n/a	0	n/a	0	0	0	n/a	n/a	n/a	n/a	n/a
3115.53	n/a	REC_WORD	1557765	wordpools/wasnorm_wordpool_less_exclusions.txt	LTP200	ltpFR	8	11	1	DIRT	472	n/a	n/a	0	n/a	0	0	0	n/a	n/a	n/a	n/a	n/a
3116.702	n/a	REC_WORD	1558351	wordpools/wasnorm_wordpool_less_exclusions.txt	LTP200	ltpFR	8	11	0	BARRACUDA	90	n/a	n/a	0	n/a	0	0	0	n/a	n/a	n/a	n/a	n/a
3180.608	n/a	START	1590304	n/a	LTP200	ltpFR	8	n/a	n/a	n/a	n/a	n/a	n/a	n/a	n/a	n/a	n/a	n/a	n/a	n/a	n/a	n/a	n/a
3182.122	n/a	PROB	1591061	n/a	LTP200	ltpFR	8	n/a	n/a	n/a	n/a	n/a	n/a	n/a	13	1	9	3	n/a	n/a	n/a	n/a	n/a
3183.87	n/a	PROB	1591935	n/a	LTP200	ltpFR	8	n/a	n/a	n/a	n/a	n/a	n/a	n/a	20	7	4	9	n/a	n/a	n/a	n/a	n/a
3187.584	n/a	STOP	1593792	n/a	LTP200	ltpFR	8	n/a	n/a	n/a	n/a	n/a	n/a	n/a	n/a	n/a	n/a	n/a	n/a	n/a	n/a	n/a	n/a
3189.646	n/a	WORD	1594823	wordpools/wasnorm_wordpool_less_exclusions.txt	LTP200	ltpFR	8	12	1	LOUNGE	845	n/a	n/a	0	n/a	0	0	0	0.57763671875	0.412841796875	1	lower	amplitud.ttf
3192.658	n/a	START	1596329	n/a	LTP200	ltpFR	8	n/a	n/a	n/a	n/a	n/a	n/a	n/a	n/a	n/a	n/a	n/a	n/a	n/a	n/a	n/a	n/a
3193.772	n/a	PROB	1596886	n/a	LTP200	ltpFR	8	n/a	n/a	n/a	n/a	n/a	n/a	n/a	21	7	6	8	n/a	n/a	n/a	n/a	n/a
3197.284	n/a	PROB	1598642	n/a	LTP200	ltpFR	8	n/a	n/a	n/a	n/a	n/a	n/a	n/a	12	4	1	7	n/a	n/a	n/a	n/a	n/a
3199.848	n/a	STOP	1599924	n/a	LTP200	ltpFR	8	n/a	n/a	n/a	n/a	n/a	n/a	n/a	n/a	n/a	n/a	n/a	n/a	n/a	n/a	n/a	n/a
3201.694	n/a	WORD	1600847	wordpools/wasnorm_wordpool_less_exclusions.txt	LTP200	ltpFR	8	12	1	KETTLE	772	n/a	n/a	0	n/a	0	0	0	0.57763671875	0.412841796875	1	lower	amplitud.ttf
3204.706	n/a	START	1602353	n/a	LTP200	ltpFR	8	n/a	n/a	n/a	n/a	n/a	n/a	n/a	n/a	n/a	n/a	n/a	n/a	n/a	n/a	n/a	n/a
3205.572	n/a	PROB	1602786	n/a	LTP200	ltpFR	8	n/a	n/a	n/a	n/a	n/a	n/a	n/a	20	6	4	8	n/a	n/a	n/a	n/a	n/a
3207.568	n/a	PROB	1603784	n/a	LTP200	ltpFR	8	n/a	n/a	n/a	n/a	n/a	n/a	n/a	18	5	7	6	n/a	n/a	n/a	n/a	n/a
3211.222	n/a	STOP	1605611	n/a	LTP200	ltpFR	8	n/a	n/a	n/a	n/a	n/a	n/a	n/a	n/a	n/a	n/a	n/a	n/a	n/a	n/a	n/a	n/a
3213.776	n/a	WORD	1606888	wordpools/wasnorm_wordpool_less_exclusions.txt	LTP200	ltpFR	8	12	1	TANK	1432	n/a	n/a	0	n/a	0	0	0	0.57763671875	0.412841796875	1	lower	amplitud.ttf
3216.788	n/a	START	1608394	n/a	LTP200	ltpFR	8	n/a	n/a	n/a	n/a	n/a	n/a	n/a	n/a	n/a	n/a	n/a	n/a	n/a	n/a	n/a	n/a
3217.604	n/a	PROB	1608802	n/a	LTP200	ltpFR	8	n/a	n/a	n/a	n/a	n/a	n/a	n/a	19	9	6	4	n/a	n/a	n/a	n/a	n/a
3219.384	n/a	PROB	1609692	n/a	LTP200	ltpFR	8	n/a	n/a	n/a	n/a	n/a	n/a	n/a	13	3	9	1	n/a	n/a	n/a	n/a	n/a
3220.848	n/a	PROB	1610424	n/a	LTP200	ltpFR	8	n/a	n/a	n/a	n/a	n/a	n/a	n/a	19	7	3	9	n/a	n/a	n/a	n/a	n/a
3224.788	n/a	STOP	1612394	n/a	LTP200	ltpFR	8	n/a	n/a	n/a	n/a	n/a	n/a	n/a	n/a	n/a	n/a	n/a	n/a	n/a	n/a	n/a	n/a
3225.642	n/a	WORD	1612821	wordpools/wasnorm_wordpool_less_exclusions.txt	LTP200	ltpFR	8	12	1	TRIGGER	1507	n/a	n/a	0	n/a	0	0	0	0.57763671875	0.412841796875	1	lower	amplitud.ttf
3228.654	n/a	START	1614327	n/a	LTP200	ltpFR	8	n/a	n/a	n/a	n/a	n/a	n/a	n/a	n/a	n/a	n/a	n/a	n/a	n/a	n/a	n/a	n/a
3229.836	n/a	PROB	1614918	n/a	LTP200	ltpFR	8	n/a	n/a	n/a	n/a	n/a	n/a	n/a	21	5	8	8	n/a	n/a	n/a	n/a	n/a
3231.65	n/a	PROB	1615825	n/a	LTP200	ltpFR	8	n/a	n/a	n/a	n/a	n/a	n/a	n/a	5	1	2	2	n/a	n/a	n/a	n/a	n/a
3233.064	n/a	PROB	1616532	n/a	LTP200	ltpFR	8	n/a	n/a	n/a	n/a	n/a	n/a	n/a	15	6	2	7	n/a	n/a	n/a	n/a	n/a
3236.654	n/a	STOP	1618327	n/a	LTP200	ltpFR	8	n/a	n/a	n/a	n/a	n/a	n/a	n/a	n/a	n/a	n/a	n/a	n/a	n/a	n/a	n/a	n/a
3237.658	n/a	WORD	1618829	wordpools/wasnorm_wordpool_less_exclusions.txt	LTP200	ltpFR	8	12	1	ELF	525	n/a	n/a	1	n/a	0	0	0	0.57763671875	0.412841796875	1	lower	amplitud.ttf
3240.67	n/a	START	1620335	n/a	LTP200	ltpFR	8	n/a	n/a	n/a	n/a	n/a	n/a	n/a	n/a	n/a	n/a	n/a	n/a	n/a	n/a	n/a	n/a
3241.568	n/a	PROB	1620784	n/a	LTP200	ltpFR	8	n/a	n/a	n/a	n/a	n/a	n/a	n/a	15	5	4	6	n/a	n/a	n/a	n/a	n/a
3243.432	n/a	PROB	1621716	n/a	LTP200	ltpFR	8	n/a	n/a	n/a	n/a	n/a	n/a	n/a	22	9	7	6	n/a	n/a	n/a	n/a	n/a
3248.416	n/a	STOP	1624208	n/a	LTP200	ltpFR	8	n/a	n/a	n/a	n/a	n/a	n/a	n/a	n/a	n/a	n/a	n/a	n/a	n/a	n/a	n/a	n/a
3249.69	n/a	WORD	1624845	wordpools/wasnorm_wordpool_less_exclusions.txt	LTP200	ltpFR	8	12	1	HOUND	724	n/a	n/a	1	n/a	0	0	0	0.57763671875	0.412841796875	1	lower	amplitud.ttf
