mstime	trial_type	stim_file	subject	experiment	session	trial	item_name	item_num	list	answer	test_x	test_y	test_z
0	SESS_START	n/a	LTP290	ltpFR2	8	n/a	n/a	n/a	n/a	n/a	0	0	0
13214	START	n/a	LTP290	ltpFR2	8	n/a	n/a	n/a	-1	n/a	n/a	n/a	n/a
13247	PROB	n/a	LTP290	ltpFR2	8	n/a	n/a	n/a	-1	18	1	8	9
14878	PROB	n/a	LTP290	ltpFR2	8	n/a	n/a	n/a	-1	4	1	1	2
16110	PROB	n/a	LTP290	ltpFR2	8	n/a	n/a	n/a	-1	8	2	2	4
17874	PROB	n/a	LTP290	ltpFR2	8	n/a	n/a	n/a	-1	19	3	7	9
19423	PROB	n/a	LTP290	ltpFR2	8	n/a	n/a	n/a	-1	12	3	1	8
21370	PROB	n/a	LTP290	ltpFR2	8	n/a	n/a	n/a	-1	11	2	5	4
22866	PROB	n/a	LTP290	ltpFR2	8	n/a	n/a	n/a	-1	11	3	5	3
24498	STOP	n/a	LTP290	ltpFR2	8	n/a	n/a	n/a	-1	n/a	n/a	n/a	n/a
56301	WORD	wordpools/wasnorm_wordpool_576.txt	LTP290	ltpFR2	8	1	GYMNAST	675	n/a	n/a	0	0	0
58946	WORD	wordpools/wasnorm_wordpool_576.txt	LTP290	ltpFR2	8	1	INFANT	737	n/a	n/a	0	0	0
61426	WORD	wordpools/wasnorm_wordpool_576.txt	LTP290	ltpFR2	8	1	SANDWICH	1232	n/a	n/a	0	0	0
64188	WORD	wordpools/wasnorm_wordpool_576.txt	LTP290	ltpFR2	8	1	BACKBONE	66	n/a	n/a	0	0	0
66984	WORD	wordpools/wasnorm_wordpool_576.txt	LTP290	ltpFR2	8	1	WIFE	1609	n/a	n/a	0	0	0
69448	WORD	wordpools/wasnorm_wordpool_576.txt	LTP290	ltpFR2	8	1	DANDRUFF	439	n/a	n/a	0	0	0
71960	WORD	wordpools/wasnorm_wordpool_576.txt	LTP290	ltpFR2	8	1	POWDER	1117	n/a	n/a	0	0	0
74474	WORD	wordpools/wasnorm_wordpool_576.txt	LTP290	ltpFR2	8	1	GLASS	639	n/a	n/a	0	0	0
77019	WORD	wordpools/wasnorm_wordpool_576.txt	LTP290	ltpFR2	8	1	JUGGLER	763	n/a	n/a	0	0	0
79765	WORD	wordpools/wasnorm_wordpool_576.txt	LTP290	ltpFR2	8	1	WIDOW	1608	n/a	n/a	0	0	0
82345	WORD	wordpools/wasnorm_wordpool_576.txt	LTP290	ltpFR2	8	1	SUBWAY	1400	n/a	n/a	0	0	0
85140	WORD	wordpools/wasnorm_wordpool_576.txt	LTP290	ltpFR2	8	1	CANAL	226	n/a	n/a	0	0	0
87936	WORD	wordpools/wasnorm_wordpool_576.txt	LTP290	ltpFR2	8	1	GLOBE	641	n/a	n/a	0	0	0
90599	WORD	wordpools/wasnorm_wordpool_576.txt	LTP290	ltpFR2	8	1	ATLAS	53	n/a	n/a	0	0	0
93312	WORD	wordpools/wasnorm_wordpool_576.txt	LTP290	ltpFR2	8	1	OMELET	976	n/a	n/a	0	0	0
96007	WORD	wordpools/wasnorm_wordpool_576.txt	LTP290	ltpFR2	8	1	BEEF	113	n/a	n/a	0	0	0
98438	WORD	wordpools/wasnorm_wordpool_576.txt	LTP290	ltpFR2	8	1	SAUSAGE	1238	n/a	n/a	0	0	0
100966	WORD	wordpools/wasnorm_wordpool_576.txt	LTP290	ltpFR2	8	1	RAFT	1159	n/a	n/a	0	0	0
103579	WORD	wordpools/wasnorm_wordpool_576.txt	LTP290	ltpFR2	8	1	COUNTY	389	n/a	n/a	0	0	0
106259	WORD	wordpools/wasnorm_wordpool_576.txt	LTP290	ltpFR2	8	1	BANK	83	n/a	n/a	0	0	0
108921	WORD	wordpools/wasnorm_wordpool_576.txt	LTP290	ltpFR2	8	1	NIGHTGOWN	953	n/a	n/a	0	0	0
111551	WORD	wordpools/wasnorm_wordpool_576.txt	LTP290	ltpFR2	8	1	OUTFIT	988	n/a	n/a	0	0	0
114281	WORD	wordpools/wasnorm_wordpool_576.txt	LTP290	ltpFR2	8	1	LEADER	807	n/a	n/a	0	0	0
117009	WORD	wordpools/wasnorm_wordpool_576.txt	LTP290	ltpFR2	8	1	YOLK	1633	n/a	n/a	0	0	0
118624	START	n/a	LTP290	ltpFR2	8	n/a	n/a	n/a	1	n/a	n/a	n/a	n/a
119816	DISTRACTOR	n/a	LTP290	ltpFR2	8	1	n/a	n/a	n/a	n/a	0	0	0
119822	PROB	n/a	LTP290	ltpFR2	8	n/a	n/a	n/a	1	9	3	3	3
121070	PROB	n/a	LTP290	ltpFR2	8	n/a	n/a	n/a	1	8	3	4	1
122452	PROB	n/a	LTP290	ltpFR2	8	n/a	n/a	n/a	1	17	8	7	2
123915	PROB	n/a	LTP290	ltpFR2	8	n/a	n/a	n/a	1	14	5	3	6
125164	PROB	n/a	LTP290	ltpFR2	8	n/a	n/a	n/a	1	12	7	2	3
127543	PROB	n/a	LTP290	ltpFR2	8	n/a	n/a	n/a	1	7	3	2	2
129524	PROB	n/a	LTP290	ltpFR2	8	n/a	n/a	n/a	1	15	9	3	3
130905	PROB	n/a	LTP290	ltpFR2	8	n/a	n/a	n/a	1	17	6	5	6
132270	PROB	n/a	LTP290	ltpFR2	8	n/a	n/a	n/a	1	17	6	4	7
133901	PROB	n/a	LTP290	ltpFR2	8	n/a	n/a	n/a	1	18	4	8	6
135964	PROB	n/a	LTP290	ltpFR2	8	n/a	n/a	n/a	1	16	7	1	8
137262	PROB	n/a	LTP290	ltpFR2	8	n/a	n/a	n/a	1	14	8	5	1
138710	PROB	n/a	LTP290	ltpFR2	8	n/a	n/a	n/a	1	19	8	9	2
140442	PROB	n/a	LTP290	ltpFR2	8	n/a	n/a	n/a	1	11	7	1	3
141673	STOP	n/a	LTP290	ltpFR2	8	n/a	n/a	n/a	1	n/a	n/a	n/a	n/a
144470	REC_START	n/a	LTP290	ltpFR2	8	1	n/a	n/a	n/a	n/a	0	0	0
145202	REC_WORD	wordpools/wasnorm_wordpool_576.txt	LTP290	ltpFR2	8	1	INFANT	737	n/a	n/a	0	0	0
145724	REC_WORD	wordpools/wasnorm_wordpool_576.txt	LTP290	ltpFR2	8	1	GYMNAST	675	n/a	n/a	0	0	0
146656	REC_WORD	wordpools/wasnorm_wordpool_576.txt	LTP290	ltpFR2	8	1	BACKBONE	66	n/a	n/a	0	0	0
147738	REC_WORD	wordpools/wasnorm_wordpool_576.txt	LTP290	ltpFR2	8	1	DANDRUFF	439	n/a	n/a	0	0	0
148349	REC_WORD	wordpools/wasnorm_wordpool_576.txt	LTP290	ltpFR2	8	1	POWDER	1117	n/a	n/a	0	0	0
151360	REC_WORD	wordpools/wasnorm_wordpool_576.txt	LTP290	ltpFR2	8	1	JUGGLER	763	n/a	n/a	0	0	0
153323	REC_WORD	wordpools/wasnorm_wordpool_576.txt	LTP290	ltpFR2	8	1	GLASS	639	n/a	n/a	0	0	0
154093	REC_WORD	wordpools/wasnorm_wordpool_576.txt	LTP290	ltpFR2	8	1	WINDOW	1611	n/a	n/a	0	0	0
154634	REC_WORD	wordpools/wasnorm_wordpool_576.txt	LTP290	ltpFR2	8	1	SUBWAY	1400	n/a	n/a	0	0	0
155423	REC_WORD	wordpools/wasnorm_wordpool_576.txt	LTP290	ltpFR2	8	1	CANAL	226	n/a	n/a	0	0	0
156155	REC_WORD	wordpools/wasnorm_wordpool_576.txt	LTP290	ltpFR2	8	1	GLOBE	641	n/a	n/a	0	0	0
157639	REC_WORD	wordpools/wasnorm_wordpool_576.txt	LTP290	ltpFR2	8	1	ATLAS	53	n/a	n/a	0	0	0
166673	REC_WORD	wordpools/wasnorm_wordpool_576.txt	LTP290	ltpFR2	8	1	OMELET	976	n/a	n/a	0	0	0
167846	REC_WORD	wordpools/wasnorm_wordpool_576.txt	LTP290	ltpFR2	8	1	SAUSAGE	1238	n/a	n/a	0	0	0
168630	REC_WORD	wordpools/wasnorm_wordpool_576.txt	LTP290	ltpFR2	8	1	BEEF	113	n/a	n/a	0	0	0
235133	WORD	wordpools/wasnorm_wordpool_576.txt	LTP290	ltpFR2	8	2	PLATE	1086	n/a	n/a	0	0	0
237929	WORD	wordpools/wasnorm_wordpool_576.txt	LTP290	ltpFR2	8	2	BUCKET	184	n/a	n/a	0	0	0
240525	WORD	wordpools/wasnorm_wordpool_576.txt	LTP290	ltpFR2	8	2	CORAL	378	n/a	n/a	0	0	0
243071	WORD	wordpools/wasnorm_wordpool_576.txt	LTP290	ltpFR2	8	2	MOP	916	n/a	n/a	0	0	0
245518	WORD	wordpools/wasnorm_wordpool_576.txt	LTP290	ltpFR2	8	2	QUAIL	1147	n/a	n/a	0	0	0
248213	WORD	wordpools/wasnorm_wordpool_576.txt	LTP290	ltpFR2	8	2	HELMET	702	n/a	n/a	0	0	0
250776	WORD	wordpools/wasnorm_wordpool_576.txt	LTP290	ltpFR2	8	2	TERMITE	1451	n/a	n/a	0	0	0
253223	WORD	wordpools/wasnorm_wordpool_576.txt	LTP290	ltpFR2	8	2	CARROT	249	n/a	n/a	0	0	0
255869	WORD	wordpools/wasnorm_wordpool_576.txt	LTP290	ltpFR2	8	2	SWORD	1423	n/a	n/a	0	0	0
258416	WORD	wordpools/wasnorm_wordpool_576.txt	LTP290	ltpFR2	8	2	CLAM	315	n/a	n/a	0	0	0
260894	WORD	wordpools/wasnorm_wordpool_576.txt	LTP290	ltpFR2	8	2	GAZELLE	628	n/a	n/a	0	0	0
263458	WORD	wordpools/wasnorm_wordpool_576.txt	LTP290	ltpFR2	8	2	ANTLER	29	n/a	n/a	0	0	0
266053	WORD	wordpools/wasnorm_wordpool_576.txt	LTP290	ltpFR2	8	2	MARKET	871	n/a	n/a	0	0	0
268766	WORD	wordpools/wasnorm_wordpool_576.txt	LTP290	ltpFR2	8	2	PIMPLE	1071	n/a	n/a	0	0	0
271330	WORD	wordpools/wasnorm_wordpool_576.txt	LTP290	ltpFR2	8	2	MUFFIN	929	n/a	n/a	0	0	0
274058	WORD	wordpools/wasnorm_wordpool_576.txt	LTP290	ltpFR2	8	2	COIN	343	n/a	n/a	0	0	0
276554	WORD	wordpools/wasnorm_wordpool_576.txt	LTP290	ltpFR2	8	2	HATCHET	691	n/a	n/a	0	0	0
279351	WORD	wordpools/wasnorm_wordpool_576.txt	LTP290	ltpFR2	8	2	BARLEY	88	n/a	n/a	0	0	0
282079	WORD	wordpools/wasnorm_wordpool_576.txt	LTP290	ltpFR2	8	2	HOSTESS	723	n/a	n/a	0	0	0
284675	WORD	wordpools/wasnorm_wordpool_576.txt	LTP290	ltpFR2	8	2	COSTUME	383	n/a	n/a	0	0	0
287222	WORD	wordpools/wasnorm_wordpool_576.txt	LTP290	ltpFR2	8	2	SUNSET	1408	n/a	n/a	0	0	0
289785	WORD	wordpools/wasnorm_wordpool_576.txt	LTP290	ltpFR2	8	2	FLEET	578	n/a	n/a	0	0	0
292547	WORD	wordpools/wasnorm_wordpool_576.txt	LTP290	ltpFR2	8	2	HARP	689	n/a	n/a	0	0	0
295344	WORD	wordpools/wasnorm_wordpool_576.txt	LTP290	ltpFR2	8	2	OYSTER	995	n/a	n/a	0	0	0
296957	START	n/a	LTP290	ltpFR2	8	n/a	n/a	n/a	2	n/a	n/a	n/a	n/a
297993	DISTRACTOR	n/a	LTP290	ltpFR2	8	2	n/a	n/a	n/a	n/a	0	0	0
298006	PROB	n/a	LTP290	ltpFR2	8	n/a	n/a	n/a	2	14	4	2	8
299454	PROB	n/a	LTP290	ltpFR2	8	n/a	n/a	n/a	2	15	5	7	3
300785	PROB	n/a	LTP290	ltpFR2	8	n/a	n/a	n/a	2	16	3	4	9
302483	PROB	n/a	LTP290	ltpFR2	8	n/a	n/a	n/a	2	10	4	1	5
303814	PROB	n/a	LTP290	ltpFR2	8	n/a	n/a	n/a	2	11	2	1	8
304962	PROB	n/a	LTP290	ltpFR2	8	n/a	n/a	n/a	2	11	1	8	2
306394	PROB	n/a	LTP290	ltpFR2	8	n/a	n/a	n/a	2	20	8	5	7
308091	PROB	n/a	LTP290	ltpFR2	8	n/a	n/a	n/a	2	7	2	1	4
309738	PROB	n/a	LTP290	ltpFR2	8	n/a	n/a	n/a	2	22	4	9	9
311169	PROB	n/a	LTP290	ltpFR2	8	n/a	n/a	n/a	2	9	2	6	1
312584	PROB	n/a	LTP290	ltpFR2	8	n/a	n/a	n/a	2	10	4	2	6
314165	PROB	n/a	LTP290	ltpFR2	8	n/a	n/a	n/a	2	7	2	2	3
317194	PROB	n/a	LTP290	ltpFR2	8	n/a	n/a	n/a	2	18	4	6	8
318326	PROB	n/a	LTP290	ltpFR2	8	n/a	n/a	n/a	2	15	5	5	5
319418	STOP	n/a	LTP290	ltpFR2	8	n/a	n/a	n/a	2	n/a	n/a	n/a	n/a
322902	REC_START	n/a	LTP290	ltpFR2	8	2	n/a	n/a	n/a	n/a	0	0	0
324789	REC_WORD	wordpools/wasnorm_wordpool_576.txt	LTP290	ltpFR2	8	2	FLEET	578	n/a	n/a	0	0	0
325393	REC_WORD	wordpools/wasnorm_wordpool_576.txt	LTP290	ltpFR2	8	2	HARP	689	n/a	n/a	0	0	0
326059	REC_WORD	wordpools/wasnorm_wordpool_576.txt	LTP290	ltpFR2	8	2	OYSTER	995	n/a	n/a	0	0	0
328751	REC_WORD	wordpools/wasnorm_wordpool_576.txt	LTP290	ltpFR2	8	2	GAZELLE	628	n/a	n/a	0	0	0
329570	REC_WORD	wordpools/wasnorm_wordpool_576.txt	LTP290	ltpFR2	8	2	CLAM	315	n/a	n/a	0	0	0
330720	REC_WORD	wordpools/wasnorm_wordpool_576.txt	LTP290	ltpFR2	8	2	MARKET	871	n/a	n/a	0	0	0
334354	REC_WORD	wordpools/wasnorm_wordpool_576.txt	LTP290	ltpFR2	8	2	ANTLER	29	n/a	n/a	0	0	0
341729	REC_WORD	wordpools/wasnorm_wordpool_576.txt	LTP290	ltpFR2	8	2	PIMPLE	1071	n/a	n/a	0	0	0
342219	REC_WORD	wordpools/wasnorm_wordpool_576.txt	LTP290	ltpFR2	8	2	MUFFIN	929	n/a	n/a	0	0	0
342896	REC_WORD	wordpools/wasnorm_wordpool_576.txt	LTP290	ltpFR2	8	2	COIN	343	n/a	n/a	0	0	0
343331	REC_WORD	wordpools/wasnorm_wordpool_576.txt	LTP290	ltpFR2	8	2	HATCHET	691	n/a	n/a	0	0	0
355036	REC_WORD	wordpools/wasnorm_wordpool_576.txt	LTP290	ltpFR2	8	2	HOSTESS	723	n/a	n/a	0	0	0
355618	REC_WORD	wordpools/wasnorm_wordpool_576.txt	LTP290	ltpFR2	8	2	COSTUME	383	n/a	n/a	0	0	0
356136	REC_WORD	wordpools/wasnorm_wordpool_576.txt	LTP290	ltpFR2	8	2	SUNSET	1408	n/a	n/a	0	0	0
413583	WORD	wordpools/wasnorm_wordpool_576.txt	LTP290	ltpFR2	8	3	PERMIT	1051	n/a	n/a	0	0	0
416113	WORD	wordpools/wasnorm_wordpool_576.txt	LTP290	ltpFR2	8	3	TOURIST	1488	n/a	n/a	0	0	0
418709	WORD	wordpools/wasnorm_wordpool_576.txt	LTP290	ltpFR2	8	3	WRIST	1626	n/a	n/a	0	0	0
421489	WORD	wordpools/wasnorm_wordpool_576.txt	LTP290	ltpFR2	8	3	BROTHER	179	n/a	n/a	0	0	0
423918	WORD	wordpools/wasnorm_wordpool_576.txt	LTP290	ltpFR2	8	3	DAUGHTER	442	n/a	n/a	0	0	0
426498	WORD	wordpools/wasnorm_wordpool_576.txt	LTP290	ltpFR2	8	3	PLAID	1080	n/a	n/a	0	0	0
428977	WORD	wordpools/wasnorm_wordpool_576.txt	LTP290	ltpFR2	8	3	ULCER	1533	n/a	n/a	0	0	0
431673	WORD	wordpools/wasnorm_wordpool_576.txt	LTP290	ltpFR2	8	3	KITCHEN	778	n/a	n/a	0	0	0
434336	WORD	wordpools/wasnorm_wordpool_576.txt	LTP290	ltpFR2	8	3	TREAT	1501	n/a	n/a	0	0	0
437015	WORD	wordpools/wasnorm_wordpool_576.txt	LTP290	ltpFR2	8	3	TART	1436	n/a	n/a	0	0	0
439512	WORD	wordpools/wasnorm_wordpool_576.txt	LTP290	ltpFR2	8	3	WAITER	1580	n/a	n/a	0	0	0
442090	WORD	wordpools/wasnorm_wordpool_576.txt	LTP290	ltpFR2	8	3	SUNRISE	1407	n/a	n/a	0	0	0
444603	WORD	wordpools/wasnorm_wordpool_576.txt	LTP290	ltpFR2	8	3	ZEBRA	1635	n/a	n/a	0	0	0
447066	WORD	wordpools/wasnorm_wordpool_576.txt	LTP290	ltpFR2	8	3	HORSE	719	n/a	n/a	0	0	0
449629	WORD	wordpools/wasnorm_wordpool_576.txt	LTP290	ltpFR2	8	3	BRANCH	168	n/a	n/a	0	0	0
452310	WORD	wordpools/wasnorm_wordpool_576.txt	LTP290	ltpFR2	8	3	SUMMIT	1405	n/a	n/a	0	0	0
454921	WORD	wordpools/wasnorm_wordpool_576.txt	LTP290	ltpFR2	8	3	PEPPER	1047	n/a	n/a	0	0	0
457551	WORD	wordpools/wasnorm_wordpool_576.txt	LTP290	ltpFR2	8	3	CROSS	413	n/a	n/a	0	0	0
460064	WORD	wordpools/wasnorm_wordpool_576.txt	LTP290	ltpFR2	8	3	ARM	38	n/a	n/a	0	0	0
462494	WORD	wordpools/wasnorm_wordpool_576.txt	LTP290	ltpFR2	8	3	HOOD	714	n/a	n/a	0	0	0
465106	WORD	wordpools/wasnorm_wordpool_576.txt	LTP290	ltpFR2	8	3	VALLEY	1545	n/a	n/a	0	0	0
467636	WORD	wordpools/wasnorm_wordpool_576.txt	LTP290	ltpFR2	8	3	LUNCH	849	n/a	n/a	0	0	0
470232	WORD	wordpools/wasnorm_wordpool_576.txt	LTP290	ltpFR2	8	3	GARBAGE	622	n/a	n/a	0	0	0
473061	WORD	wordpools/wasnorm_wordpool_576.txt	LTP290	ltpFR2	8	3	ORANGE	980	n/a	n/a	0	0	0
474675	START	n/a	LTP290	ltpFR2	8	n/a	n/a	n/a	3	n/a	n/a	n/a	n/a
475868	DISTRACTOR	n/a	LTP290	ltpFR2	8	3	n/a	n/a	n/a	n/a	0	0	0
475873	PROB	n/a	LTP290	ltpFR2	8	n/a	n/a	n/a	3	12	1	8	3
477356	PROB	n/a	LTP290	ltpFR2	8	n/a	n/a	n/a	3	15	2	4	9
478902	PROB	n/a	LTP290	ltpFR2	8	n/a	n/a	n/a	3	13	2	7	4
480401	PROB	n/a	LTP290	ltpFR2	8	n/a	n/a	n/a	3	17	7	8	2
481931	PROB	n/a	LTP290	ltpFR2	8	n/a	n/a	n/a	3	13	7	2	4
484677	PROB	n/a	LTP290	ltpFR2	8	n/a	n/a	n/a	3	17	3	5	9
486292	PROB	n/a	LTP290	ltpFR2	8	n/a	n/a	n/a	3	16	7	1	8
487972	PROB	n/a	LTP290	ltpFR2	8	n/a	n/a	n/a	3	17	3	6	8
489388	PROB	n/a	LTP290	ltpFR2	8	n/a	n/a	n/a	3	7	3	1	3
491117	PROB	n/a	LTP290	ltpFR2	8	n/a	n/a	n/a	3	17	9	1	7
492450	PROB	n/a	LTP290	ltpFR2	8	n/a	n/a	n/a	3	21	9	9	3
493730	PROB	n/a	LTP290	ltpFR2	8	n/a	n/a	n/a	3	22	8	6	8
495295	PROB	n/a	LTP290	ltpFR2	8	n/a	n/a	n/a	3	12	1	4	7
496494	PROB	n/a	LTP290	ltpFR2	8	n/a	n/a	n/a	3	18	9	3	6
498129	STOP	n/a	LTP290	ltpFR2	8	n/a	n/a	n/a	3	n/a	n/a	n/a	n/a
500604	REC_START	n/a	LTP290	ltpFR2	8	3	n/a	n/a	n/a	n/a	0	0	0
501809	REC_WORD	wordpools/wasnorm_wordpool_576.txt	LTP290	ltpFR2	8	3	PEPPER	1047	n/a	n/a	0	0	0
502314	REC_WORD	wordpools/wasnorm_wordpool_576.txt	LTP290	ltpFR2	8	3	CROSS	413	n/a	n/a	0	0	0
503136	REC_WORD	wordpools/wasnorm_wordpool_576.txt	LTP290	ltpFR2	8	3	ARM	38	n/a	n/a	0	0	0
505820	REC_WORD	wordpools/wasnorm_wordpool_576.txt	LTP290	ltpFR2	8	3	VALLEY	1545	n/a	n/a	0	0	0
591285	WORD	wordpools/wasnorm_wordpool_576.txt	LTP290	ltpFR2	8	4	THREAD	1460	n/a	n/a	0	0	0
594080	WORD	wordpools/wasnorm_wordpool_576.txt	LTP290	ltpFR2	8	4	SIDEWALK	1303	n/a	n/a	0	0	0
596543	WORD	wordpools/wasnorm_wordpool_576.txt	LTP290	ltpFR2	8	4	VENUS	1557	n/a	n/a	0	0	0
598990	WORD	wordpools/wasnorm_wordpool_576.txt	LTP290	ltpFR2	8	4	STAPLE	1371	n/a	n/a	0	0	0
601470	WORD	wordpools/wasnorm_wordpool_576.txt	LTP290	ltpFR2	8	4	SERVER	1272	n/a	n/a	0	0	0
604015	WORD	wordpools/wasnorm_wordpool_576.txt	LTP290	ltpFR2	8	4	BABY	64	n/a	n/a	0	0	0
606745	WORD	wordpools/wasnorm_wordpool_576.txt	LTP290	ltpFR2	8	4	SHELF	1280	n/a	n/a	0	0	0
609524	WORD	wordpools/wasnorm_wordpool_576.txt	LTP290	ltpFR2	8	4	PASSAGE	1019	n/a	n/a	0	0	0
612321	WORD	wordpools/wasnorm_wordpool_576.txt	LTP290	ltpFR2	8	4	POLICE	1098	n/a	n/a	0	0	0
614749	WORD	wordpools/wasnorm_wordpool_576.txt	LTP290	ltpFR2	8	4	VICTIM	1562	n/a	n/a	0	0	0
617430	WORD	wordpools/wasnorm_wordpool_576.txt	LTP290	ltpFR2	8	4	RABBIT	1152	n/a	n/a	0	0	0
619875	WORD	wordpools/wasnorm_wordpool_576.txt	LTP290	ltpFR2	8	4	FOX	598	n/a	n/a	0	0	0
622554	WORD	wordpools/wasnorm_wordpool_576.txt	LTP290	ltpFR2	8	4	COURSE	390	n/a	n/a	0	0	0
625301	WORD	wordpools/wasnorm_wordpool_576.txt	LTP290	ltpFR2	8	4	CONVICT	371	n/a	n/a	0	0	0
627880	WORD	wordpools/wasnorm_wordpool_576.txt	LTP290	ltpFR2	8	4	DIME	466	n/a	n/a	0	0	0
630642	WORD	wordpools/wasnorm_wordpool_576.txt	LTP290	ltpFR2	8	4	BANKER	84	n/a	n/a	0	0	0
633205	WORD	wordpools/wasnorm_wordpool_576.txt	LTP290	ltpFR2	8	4	RIFLE	1192	n/a	n/a	0	0	0
635984	WORD	wordpools/wasnorm_wordpool_576.txt	LTP290	ltpFR2	8	4	TILE	1468	n/a	n/a	0	0	0
638581	WORD	wordpools/wasnorm_wordpool_576.txt	LTP290	ltpFR2	8	4	BLENDER	136	n/a	n/a	0	0	0
641077	WORD	wordpools/wasnorm_wordpool_576.txt	LTP290	ltpFR2	8	4	WAITRESS	1581	n/a	n/a	0	0	0
643606	WORD	wordpools/wasnorm_wordpool_576.txt	LTP290	ltpFR2	8	4	BLADE	134	n/a	n/a	0	0	0
646136	WORD	wordpools/wasnorm_wordpool_576.txt	LTP290	ltpFR2	8	4	CRIB	407	n/a	n/a	0	0	0
648815	WORD	wordpools/wasnorm_wordpool_576.txt	LTP290	ltpFR2	8	4	OUTLAW	989	n/a	n/a	0	0	0
651512	WORD	wordpools/wasnorm_wordpool_576.txt	LTP290	ltpFR2	8	4	BIKE	125	n/a	n/a	0	0	0
653126	START	n/a	LTP290	ltpFR2	8	n/a	n/a	n/a	4	n/a	n/a	n/a	n/a
654071	DISTRACTOR	n/a	LTP290	ltpFR2	8	4	n/a	n/a	n/a	n/a	0	0	0
654074	PROB	n/a	LTP290	ltpFR2	8	n/a	n/a	n/a	4	12	6	1	5
657086	PROB	n/a	LTP290	ltpFR2	8	n/a	n/a	n/a	4	11	5	4	2
658319	PROB	n/a	LTP290	ltpFR2	8	n/a	n/a	n/a	4	11	1	6	4
659682	PROB	n/a	LTP290	ltpFR2	8	n/a	n/a	n/a	4	25	8	9	8
663177	PROB	n/a	LTP290	ltpFR2	8	n/a	n/a	n/a	4	16	8	7	1
664476	PROB	n/a	LTP290	ltpFR2	8	n/a	n/a	n/a	4	18	3	7	8
665590	PROB	n/a	LTP290	ltpFR2	8	n/a	n/a	n/a	4	15	2	7	6
666988	PROB	n/a	LTP290	ltpFR2	8	n/a	n/a	n/a	4	15	4	3	8
668420	PROB	n/a	LTP290	ltpFR2	8	n/a	n/a	n/a	4	17	9	6	2
669934	PROB	n/a	LTP290	ltpFR2	8	n/a	n/a	n/a	4	14	8	1	5
671449	PROB	n/a	LTP290	ltpFR2	8	n/a	n/a	n/a	4	13	6	3	4
672896	PROB	n/a	LTP290	ltpFR2	8	n/a	n/a	n/a	4	12	3	8	1
674328	PROB	n/a	LTP290	ltpFR2	8	n/a	n/a	n/a	4	21	9	8	4
675673	STOP	n/a	LTP290	ltpFR2	8	n/a	n/a	n/a	4	n/a	n/a	n/a	n/a
678888	REC_START	n/a	LTP290	ltpFR2	8	4	n/a	n/a	n/a	n/a	0	0	0
681775	REC_WORD_VV	wordpools/wasnorm_wordpool_576.txt	LTP290	ltpFR2	8	4	<>	-1	n/a	n/a	0	0	0
693263	REC_WORD	wordpools/wasnorm_wordpool_576.txt	LTP290	ltpFR2	8	4	BABY	64	n/a	n/a	0	0	0
693610	REC_WORD	wordpools/wasnorm_wordpool_576.txt	LTP290	ltpFR2	8	4	SERVER	1272	n/a	n/a	0	0	0
694345	REC_WORD	wordpools/wasnorm_wordpool_576.txt	LTP290	ltpFR2	8	4	SHELF	1280	n/a	n/a	0	0	0
695117	REC_WORD	wordpools/wasnorm_wordpool_576.txt	LTP290	ltpFR2	8	4	PASSAGE	1019	n/a	n/a	0	0	0
696831	REC_WORD	wordpools/wasnorm_wordpool_576.txt	LTP290	ltpFR2	8	4	POLICE	1098	n/a	n/a	0	0	0
697482	REC_WORD	wordpools/wasnorm_wordpool_576.txt	LTP290	ltpFR2	8	4	VICTIM	1562	n/a	n/a	0	0	0
698357	REC_WORD	wordpools/wasnorm_wordpool_576.txt	LTP290	ltpFR2	8	4	FOX	598	n/a	n/a	0	0	0
699092	REC_WORD	wordpools/wasnorm_wordpool_576.txt	LTP290	ltpFR2	8	4	RABBIT	1152	n/a	n/a	0	0	0
705948	REC_WORD	wordpools/wasnorm_wordpool_576.txt	LTP290	ltpFR2	8	4	COURSE	390	n/a	n/a	0	0	0
709044	REC_WORD	wordpools/wasnorm_wordpool_576.txt	LTP290	ltpFR2	8	4	DIME	466	n/a	n/a	0	0	0
709604	REC_WORD	wordpools/wasnorm_wordpool_576.txt	LTP290	ltpFR2	8	4	BANKER	84	n/a	n/a	0	0	0
710204	REC_WORD	wordpools/wasnorm_wordpool_576.txt	LTP290	ltpFR2	8	4	RIFLE	1192	n/a	n/a	0	0	0
719369	REC_WORD	wordpools/wasnorm_wordpool_576.txt	LTP290	ltpFR2	8	4	TILE	1468	n/a	n/a	0	0	0
719968	REC_WORD	wordpools/wasnorm_wordpool_576.txt	LTP290	ltpFR2	8	4	BLENDER	136	n/a	n/a	0	0	0
720621	REC_WORD	wordpools/wasnorm_wordpool_576.txt	LTP290	ltpFR2	8	4	WAITRESS	1581	n/a	n/a	0	0	0
721664	REC_WORD	wordpools/wasnorm_wordpool_576.txt	LTP290	ltpFR2	8	4	BLADE	134	n/a	n/a	0	0	0
722640	REC_WORD	wordpools/wasnorm_wordpool_576.txt	LTP290	ltpFR2	8	4	BIKE	125	n/a	n/a	0	0	0
769552	DISTRACTOR	n/a	LTP290	ltpFR2	8	5	n/a	n/a	n/a	n/a	0	0	0
769552	START	n/a	LTP290	ltpFR2	8	n/a	n/a	n/a	5	n/a	n/a	n/a	n/a
769585	PROB	n/a	LTP290	ltpFR2	8	n/a	n/a	n/a	5	12	3	5	4
771016	PROB	n/a	LTP290	ltpFR2	8	n/a	n/a	n/a	5	19	1	9	9
773596	PROB	n/a	LTP290	ltpFR2	8	n/a	n/a	n/a	5	12	1	3	8
774844	PROB	n/a	LTP290	ltpFR2	8	n/a	n/a	n/a	5	3	1	1	1
775826	PROB	n/a	LTP290	ltpFR2	8	n/a	n/a	n/a	5	18	6	6	6
776974	PROB	n/a	LTP290	ltpFR2	8	n/a	n/a	n/a	5	17	9	4	4
778588	PROB	n/a	LTP290	ltpFR2	8	n/a	n/a	n/a	5	16	1	8	7
780735	PROB	n/a	LTP290	ltpFR2	8	n/a	n/a	n/a	5	11	1	8	2
782100	PROB	n/a	LTP290	ltpFR2	8	n/a	n/a	n/a	5	18	9	7	2
783614	PROB	n/a	LTP290	ltpFR2	8	n/a	n/a	n/a	5	26	9	8	9
788640	PROB	n/a	LTP290	ltpFR2	8	n/a	n/a	n/a	5	19	6	7	6
790488	PROB	n/a	LTP290	ltpFR2	8	n/a	n/a	n/a	5	21	9	8	4
791852	PROB	n/a	LTP290	ltpFR2	8	n/a	n/a	n/a	5	13	8	3	2
793041	STOP	n/a	LTP290	ltpFR2	8	n/a	n/a	n/a	5	n/a	n/a	n/a	n/a
794781	WORD	wordpools/wasnorm_wordpool_576.txt	LTP290	ltpFR2	8	5	GHETTO	633	n/a	n/a	0	0	0
797428	WORD	wordpools/wasnorm_wordpool_576.txt	LTP290	ltpFR2	8	5	CAMEL	223	n/a	n/a	0	0	0
800106	WORD	wordpools/wasnorm_wordpool_576.txt	LTP290	ltpFR2	8	5	RELISH	1183	n/a	n/a	0	0	0
802819	WORD	wordpools/wasnorm_wordpool_576.txt	LTP290	ltpFR2	8	5	CAFE	216	n/a	n/a	0	0	0
805283	WORD	wordpools/wasnorm_wordpool_576.txt	LTP290	ltpFR2	8	5	THRONE	1461	n/a	n/a	0	0	0
807795	WORD	wordpools/wasnorm_wordpool_576.txt	LTP290	ltpFR2	8	5	CROWN	415	n/a	n/a	0	0	0
810408	WORD	wordpools/wasnorm_wordpool_576.txt	LTP290	ltpFR2	8	5	HAMPER	682	n/a	n/a	0	0	0
813186	WORD	wordpools/wasnorm_wordpool_576.txt	LTP290	ltpFR2	8	5	CABIN	211	n/a	n/a	0	0	0
815699	WORD	wordpools/wasnorm_wordpool_576.txt	LTP290	ltpFR2	8	5	HUSBAND	728	n/a	n/a	0	0	0
818162	WORD	wordpools/wasnorm_wordpool_576.txt	LTP290	ltpFR2	8	5	ROD	1203	n/a	n/a	0	0	0
820975	WORD	wordpools/wasnorm_wordpool_576.txt	LTP290	ltpFR2	8	5	TOASTER	1472	n/a	n/a	0	0	0
823406	WORD	wordpools/wasnorm_wordpool_576.txt	LTP290	ltpFR2	8	5	PROTON	1132	n/a	n/a	0	0	0
825967	WORD	wordpools/wasnorm_wordpool_576.txt	LTP290	ltpFR2	8	5	WASHER	1592	n/a	n/a	0	0	0
828547	WORD	wordpools/wasnorm_wordpool_576.txt	LTP290	ltpFR2	8	5	ITEM	746	n/a	n/a	0	0	0
831010	WORD	wordpools/wasnorm_wordpool_576.txt	LTP290	ltpFR2	8	5	SHELTER	1282	n/a	n/a	0	0	0
833806	WORD	wordpools/wasnorm_wordpool_576.txt	LTP290	ltpFR2	8	5	STOVE	1388	n/a	n/a	0	0	0
836303	WORD	wordpools/wasnorm_wordpool_576.txt	LTP290	ltpFR2	8	5	SHARK	1275	n/a	n/a	0	0	0
838782	WORD	wordpools/wasnorm_wordpool_576.txt	LTP290	ltpFR2	8	5	POSTAGE	1113	n/a	n/a	0	0	0
841544	WORD	wordpools/wasnorm_wordpool_576.txt	LTP290	ltpFR2	8	5	DORM	488	n/a	n/a	0	0	0
844107	WORD	wordpools/wasnorm_wordpool_576.txt	LTP290	ltpFR2	8	5	FLAG	573	n/a	n/a	0	0	0
846803	WORD	wordpools/wasnorm_wordpool_576.txt	LTP290	ltpFR2	8	5	DRAWING	494	n/a	n/a	0	0	0
849334	WORD	wordpools/wasnorm_wordpool_576.txt	LTP290	ltpFR2	8	5	FRAME	600	n/a	n/a	0	0	0
851879	WORD	wordpools/wasnorm_wordpool_576.txt	LTP290	ltpFR2	8	5	FIREMAN	569	n/a	n/a	0	0	0
854625	WORD	wordpools/wasnorm_wordpool_576.txt	LTP290	ltpFR2	8	5	OFFICE	972	n/a	n/a	0	0	0
856239	START	n/a	LTP290	ltpFR2	8	n/a	n/a	n/a	6	n/a	n/a	n/a	n/a
857121	DISTRACTOR	n/a	LTP290	ltpFR2	8	5	n/a	n/a	n/a	n/a	0	0	0
857138	PROB	n/a	LTP290	ltpFR2	8	n/a	n/a	n/a	6	21	4	9	8
860017	PROB	n/a	LTP290	ltpFR2	8	n/a	n/a	n/a	6	12	9	1	2
861581	PROB	n/a	LTP290	ltpFR2	8	n/a	n/a	n/a	6	19	9	7	3
863462	PROB	n/a	LTP290	ltpFR2	8	n/a	n/a	n/a	6	20	7	9	4
865426	PROB	n/a	LTP290	ltpFR2	8	n/a	n/a	n/a	6	13	5	1	7
867473	PROB	n/a	LTP290	ltpFR2	8	n/a	n/a	n/a	6	14	9	4	1
868837	PROB	n/a	LTP290	ltpFR2	8	n/a	n/a	n/a	6	11	1	3	7
870002	PROB	n/a	LTP290	ltpFR2	8	n/a	n/a	n/a	6	19	6	5	8
871599	PROB	n/a	LTP290	ltpFR2	8	n/a	n/a	n/a	6	18	5	5	8
872764	PROB	n/a	LTP290	ltpFR2	8	n/a	n/a	n/a	6	8	4	2	2
875144	PROB	n/a	LTP290	ltpFR2	8	n/a	n/a	n/a	6	18	6	8	4
876792	PROB	n/a	LTP290	ltpFR2	8	n/a	n/a	n/a	6	8	4	1	3
878040	PROB	n/a	LTP290	ltpFR2	8	n/a	n/a	n/a	6	26	9	8	9
879506	STOP	n/a	LTP290	ltpFR2	8	n/a	n/a	n/a	6	n/a	n/a	n/a	n/a
882018	REC_START	n/a	LTP290	ltpFR2	8	5	n/a	n/a	n/a	n/a	0	0	0
884711	REC_WORD	wordpools/wasnorm_wordpool_576.txt	LTP290	ltpFR2	8	5	CAMEL	223	n/a	n/a	0	0	0
885326	REC_WORD	wordpools/wasnorm_wordpool_576.txt	LTP290	ltpFR2	8	5	GHETTO	633	n/a	n/a	0	0	0
886043	REC_WORD	wordpools/wasnorm_wordpool_576.txt	LTP290	ltpFR2	8	5	CAFE	216	n/a	n/a	0	0	0
886706	REC_WORD	wordpools/wasnorm_wordpool_576.txt	LTP290	ltpFR2	8	5	RELISH	1183	n/a	n/a	0	0	0
888213	REC_WORD	wordpools/wasnorm_wordpool_576.txt	LTP290	ltpFR2	8	5	THRONE	1461	n/a	n/a	0	0	0
888920	REC_WORD	wordpools/wasnorm_wordpool_576.txt	LTP290	ltpFR2	8	5	CROWN	415	n/a	n/a	0	0	0
889526	REC_WORD	wordpools/wasnorm_wordpool_576.txt	LTP290	ltpFR2	8	5	HAMPER	682	n/a	n/a	0	0	0
890470	REC_WORD	wordpools/wasnorm_wordpool_576.txt	LTP290	ltpFR2	8	5	CABIN	211	n/a	n/a	0	0	0
891072	REC_WORD	wordpools/wasnorm_wordpool_576.txt	LTP290	ltpFR2	8	5	HUSBAND	728	n/a	n/a	0	0	0
892890	REC_WORD	wordpools/wasnorm_wordpool_576.txt	LTP290	ltpFR2	8	5	ROD	1203	n/a	n/a	0	0	0
893460	REC_WORD	wordpools/wasnorm_wordpool_576.txt	LTP290	ltpFR2	8	5	TOASTER	1472	n/a	n/a	0	0	0
894148	REC_WORD	wordpools/wasnorm_wordpool_576.txt	LTP290	ltpFR2	8	5	PROTON	1132	n/a	n/a	0	0	0
895895	REC_WORD	wordpools/wasnorm_wordpool_576.txt	LTP290	ltpFR2	8	5	WASHER	1592	n/a	n/a	0	0	0
896646	REC_WORD	wordpools/wasnorm_wordpool_576.txt	LTP290	ltpFR2	8	5	ITEM	746	n/a	n/a	0	0	0
897454	REC_WORD	wordpools/wasnorm_wordpool_576.txt	LTP290	ltpFR2	8	5	SHARK	1275	n/a	n/a	0	0	0
898060	REC_WORD	wordpools/wasnorm_wordpool_576.txt	LTP290	ltpFR2	8	5	STOVE	1388	n/a	n/a	0	0	0
899860	REC_WORD	wordpools/wasnorm_wordpool_576.txt	LTP290	ltpFR2	8	5	POSTAGE	1113	n/a	n/a	0	0	0
900666	REC_WORD	wordpools/wasnorm_wordpool_576.txt	LTP290	ltpFR2	8	5	DORM	488	n/a	n/a	0	0	0
901169	REC_WORD	wordpools/wasnorm_wordpool_576.txt	LTP290	ltpFR2	8	5	FLAG	573	n/a	n/a	0	0	0
903145	REC_WORD	wordpools/wasnorm_wordpool_576.txt	LTP290	ltpFR2	8	5	DRAWING	494	n/a	n/a	0	0	0
903773	REC_WORD	wordpools/wasnorm_wordpool_576.txt	LTP290	ltpFR2	8	5	FRAME	600	n/a	n/a	0	0	0
904616	REC_WORD	wordpools/wasnorm_wordpool_576.txt	LTP290	ltpFR2	8	5	FIREMAN	569	n/a	n/a	0	0	0
906289	REC_WORD	wordpools/wasnorm_wordpool_576.txt	LTP290	ltpFR2	8	5	OFFICE	972	n/a	n/a	0	0	0
972698	WORD	wordpools/wasnorm_wordpool_576.txt	LTP290	ltpFR2	8	6	DRAGON	492	n/a	n/a	0	0	0
975245	WORD	wordpools/wasnorm_wordpool_576.txt	LTP290	ltpFR2	8	6	CRAYON	401	n/a	n/a	0	0	0
977974	WORD	wordpools/wasnorm_wordpool_576.txt	LTP290	ltpFR2	8	6	PIGMENT	1066	n/a	n/a	0	0	0
980438	WORD	wordpools/wasnorm_wordpool_576.txt	LTP290	ltpFR2	8	6	GLOVE	642	n/a	n/a	0	0	0
983166	WORD	wordpools/wasnorm_wordpool_576.txt	LTP290	ltpFR2	8	6	PLASTER	1085	n/a	n/a	0	0	0
985612	WORD	wordpools/wasnorm_wordpool_576.txt	LTP290	ltpFR2	8	6	PREACHER	1119	n/a	n/a	0	0	0
988426	WORD	wordpools/wasnorm_wordpool_576.txt	LTP290	ltpFR2	8	6	SHIRT	1287	n/a	n/a	0	0	0
990988	WORD	wordpools/wasnorm_wordpool_576.txt	LTP290	ltpFR2	8	6	ORCHID	982	n/a	n/a	0	0	0
993750	WORD	wordpools/wasnorm_wordpool_576.txt	LTP290	ltpFR2	8	6	BELLY	119	n/a	n/a	0	0	0
996481	WORD	wordpools/wasnorm_wordpool_576.txt	LTP290	ltpFR2	8	6	SIBLING	1301	n/a	n/a	0	0	0
999076	WORD	wordpools/wasnorm_wordpool_576.txt	LTP290	ltpFR2	8	6	LAVA	804	n/a	n/a	0	0	0
1001539	WORD	wordpools/wasnorm_wordpool_576.txt	LTP290	ltpFR2	8	6	HORNET	718	n/a	n/a	0	0	0
1004002	WORD	wordpools/wasnorm_wordpool_576.txt	LTP290	ltpFR2	8	6	WORKER	1621	n/a	n/a	0	0	0
1006831	WORD	wordpools/wasnorm_wordpool_576.txt	LTP290	ltpFR2	8	6	CANDY	230	n/a	n/a	0	0	0
1009461	WORD	wordpools/wasnorm_wordpool_576.txt	LTP290	ltpFR2	8	6	PASTRY	1022	n/a	n/a	0	0	0
1012273	WORD	wordpools/wasnorm_wordpool_576.txt	LTP290	ltpFR2	8	6	TORTOISE	1486	n/a	n/a	0	0	0
1015002	WORD	wordpools/wasnorm_wordpool_576.txt	LTP290	ltpFR2	8	6	NOTEBOOK	959	n/a	n/a	0	0	0
1017433	WORD	wordpools/wasnorm_wordpool_576.txt	LTP290	ltpFR2	8	6	SERVANT	1271	n/a	n/a	0	0	0
1019911	WORD	wordpools/wasnorm_wordpool_576.txt	LTP290	ltpFR2	8	6	MASK	876	n/a	n/a	0	0	0
1022707	WORD	wordpools/wasnorm_wordpool_576.txt	LTP290	ltpFR2	8	6	SADDLE	1221	n/a	n/a	0	0	0
1025187	WORD	wordpools/wasnorm_wordpool_576.txt	LTP290	ltpFR2	8	6	ZIPPER	1636	n/a	n/a	0	0	0
1027666	WORD	wordpools/wasnorm_wordpool_576.txt	LTP290	ltpFR2	8	6	KIDNEY	776	n/a	n/a	0	0	0
1030196	WORD	wordpools/wasnorm_wordpool_576.txt	LTP290	ltpFR2	8	6	BLUEPRINT	142	n/a	n/a	0	0	0
1032642	WORD	wordpools/wasnorm_wordpool_576.txt	LTP290	ltpFR2	8	6	FRANCE	601	n/a	n/a	0	0	0
1034257	START	n/a	LTP290	ltpFR2	8	n/a	n/a	n/a	7	n/a	n/a	n/a	n/a
1035207	DISTRACTOR	n/a	LTP290	ltpFR2	8	6	n/a	n/a	n/a	n/a	0	0	0
1035222	PROB	n/a	LTP290	ltpFR2	8	n/a	n/a	n/a	7	12	3	3	6
1036553	PROB	n/a	LTP290	ltpFR2	8	n/a	n/a	n/a	7	6	1	2	3
1038285	PROB	n/a	LTP290	ltpFR2	8	n/a	n/a	n/a	7	12	5	2	5
1039400	PROB	n/a	LTP290	ltpFR2	8	n/a	n/a	n/a	7	8	4	3	1
1040730	PROB	n/a	LTP290	ltpFR2	8	n/a	n/a	n/a	7	7	3	1	3
1042228	PROB	n/a	LTP290	ltpFR2	8	n/a	n/a	n/a	7	10	7	1	2
1043859	PROB	n/a	LTP290	ltpFR2	8	n/a	n/a	n/a	7	9	4	4	1
1045174	PROB	n/a	LTP290	ltpFR2	8	n/a	n/a	n/a	7	17	8	8	1
1046988	PROB	n/a	LTP290	ltpFR2	8	n/a	n/a	n/a	7	18	2	7	9
1048252	PROB	n/a	LTP290	ltpFR2	8	n/a	n/a	n/a	7	20	7	8	5
1049916	PROB	n/a	LTP290	ltpFR2	8	n/a	n/a	n/a	7	10	2	3	5
1051148	PROB	n/a	LTP290	ltpFR2	8	n/a	n/a	n/a	7	16	4	6	6
1052430	PROB	n/a	LTP290	ltpFR2	8	n/a	n/a	n/a	7	12	1	5	6
1053644	PROB	n/a	LTP290	ltpFR2	8	n/a	n/a	n/a	7	7	1	2	4
1055009	PROB	n/a	LTP290	ltpFR2	8	n/a	n/a	n/a	7	13	5	5	3
1058257	STOP	n/a	LTP290	ltpFR2	8	n/a	n/a	n/a	7	n/a	n/a	n/a	n/a
1060052	REC_START	n/a	LTP290	ltpFR2	8	6	n/a	n/a	n/a	n/a	0	0	0
1063203	REC_WORD	wordpools/wasnorm_wordpool_576.txt	LTP290	ltpFR2	8	6	DRAGON	492	n/a	n/a	0	0	0
1063816	REC_WORD	wordpools/wasnorm_wordpool_576.txt	LTP290	ltpFR2	8	6	CRAYON	401	n/a	n/a	0	0	0
1065793	REC_WORD	wordpools/wasnorm_wordpool_576.txt	LTP290	ltpFR2	8	6	GLOVE	642	n/a	n/a	0	0	0
1066530	REC_WORD	wordpools/wasnorm_wordpool_576.txt	LTP290	ltpFR2	8	6	PLASTER	1085	n/a	n/a	0	0	0
1067372	REC_WORD	wordpools/wasnorm_wordpool_576.txt	LTP290	ltpFR2	8	6	PREACHER	1119	n/a	n/a	0	0	0
1067970	REC_WORD	wordpools/wasnorm_wordpool_576.txt	LTP290	ltpFR2	8	6	SHIRT	1287	n/a	n/a	0	0	0
1068878	REC_WORD	wordpools/wasnorm_wordpool_576.txt	LTP290	ltpFR2	8	6	ORCHID	982	n/a	n/a	0	0	0
1071260	REC_WORD	wordpools/wasnorm_wordpool_576.txt	LTP290	ltpFR2	8	6	SIBLING	1301	n/a	n/a	0	0	0
1073933	REC_WORD	wordpools/wasnorm_wordpool_576.txt	LTP290	ltpFR2	8	6	LAVA	804	n/a	n/a	0	0	0
1075048	REC_WORD	wordpools/wasnorm_wordpool_576.txt	LTP290	ltpFR2	8	6	HORNET	718	n/a	n/a	0	0	0
1077467	REC_WORD	wordpools/wasnorm_wordpool_576.txt	LTP290	ltpFR2	8	6	WORKER	1621	n/a	n/a	0	0	0
1078063	REC_WORD	wordpools/wasnorm_wordpool_576.txt	LTP290	ltpFR2	8	6	CANDY	230	n/a	n/a	0	0	0
1078670	REC_WORD	wordpools/wasnorm_wordpool_576.txt	LTP290	ltpFR2	8	6	PASTRY	1022	n/a	n/a	0	0	0
1083960	REC_WORD	wordpools/wasnorm_wordpool_576.txt	LTP290	ltpFR2	8	6	SERVANT	1271	n/a	n/a	0	0	0
1084664	REC_WORD	wordpools/wasnorm_wordpool_576.txt	LTP290	ltpFR2	8	6	NOTEBOOK	959	n/a	n/a	0	0	0
1087658	REC_WORD	wordpools/wasnorm_wordpool_576.txt	LTP290	ltpFR2	8	6	SADDLE	1221	n/a	n/a	0	0	0
1088800	REC_WORD	wordpools/wasnorm_wordpool_576.txt	LTP290	ltpFR2	8	6	ZIPPER	1636	n/a	n/a	0	0	0
1089621	REC_WORD	wordpools/wasnorm_wordpool_576.txt	LTP290	ltpFR2	8	6	KIDNEY	776	n/a	n/a	0	0	0
1150749	WORD	wordpools/wasnorm_wordpool_576.txt	LTP290	ltpFR2	8	7	PISTON	1076	n/a	n/a	0	0	0
1153279	WORD	wordpools/wasnorm_wordpool_576.txt	LTP290	ltpFR2	8	7	PASTA	1021	n/a	n/a	0	0	0
1155825	WORD	wordpools/wasnorm_wordpool_576.txt	LTP290	ltpFR2	8	7	SLOPE	1328	n/a	n/a	0	0	0
1158538	WORD	wordpools/wasnorm_wordpool_576.txt	LTP290	ltpFR2	8	7	ROBOT	1200	n/a	n/a	0	0	0
1161351	WORD	wordpools/wasnorm_wordpool_576.txt	LTP290	ltpFR2	8	7	PACKAGE	997	n/a	n/a	0	0	0
1164113	WORD	wordpools/wasnorm_wordpool_576.txt	LTP290	ltpFR2	8	7	CATCHER	258	n/a	n/a	0	0	0
1166809	WORD	wordpools/wasnorm_wordpool_576.txt	LTP290	ltpFR2	8	7	OZONE	996	n/a	n/a	0	0	0
1169272	WORD	wordpools/wasnorm_wordpool_576.txt	LTP290	ltpFR2	8	7	MOTOR	922	n/a	n/a	0	0	0
1171951	WORD	wordpools/wasnorm_wordpool_576.txt	LTP290	ltpFR2	8	7	VALVE	1546	n/a	n/a	0	0	0
1174747	WORD	wordpools/wasnorm_wordpool_576.txt	LTP290	ltpFR2	8	7	REBEL	1172	n/a	n/a	0	0	0
1177243	WORD	wordpools/wasnorm_wordpool_576.txt	LTP290	ltpFR2	8	7	COUCH	386	n/a	n/a	0	0	0
1179689	WORD	wordpools/wasnorm_wordpool_576.txt	LTP290	ltpFR2	8	7	MAILBOX	857	n/a	n/a	0	0	0
1182186	WORD	wordpools/wasnorm_wordpool_576.txt	LTP290	ltpFR2	8	7	BOUQUET	157	n/a	n/a	0	0	0
1184882	WORD	wordpools/wasnorm_wordpool_576.txt	LTP290	ltpFR2	8	7	FEMALE	559	n/a	n/a	0	0	0
1187677	WORD	wordpools/wasnorm_wordpool_576.txt	LTP290	ltpFR2	8	7	PARSLEY	1016	n/a	n/a	0	0	0
1190140	WORD	wordpools/wasnorm_wordpool_576.txt	LTP290	ltpFR2	8	7	CUSTARD	429	n/a	n/a	0	0	0
1192737	WORD	wordpools/wasnorm_wordpool_576.txt	LTP290	ltpFR2	8	7	FIDDLE	561	n/a	n/a	0	0	0
1195183	WORD	wordpools/wasnorm_wordpool_576.txt	LTP290	ltpFR2	8	7	CHAUFFEUR	283	n/a	n/a	0	0	0
1197796	WORD	wordpools/wasnorm_wordpool_576.txt	LTP290	ltpFR2	8	7	MARKER	870	n/a	n/a	0	0	0
1200242	WORD	wordpools/wasnorm_wordpool_576.txt	LTP290	ltpFR2	8	7	SCRIBBLE	1256	n/a	n/a	0	0	0
1202938	WORD	wordpools/wasnorm_wordpool_576.txt	LTP290	ltpFR2	8	7	TABLE	1426	n/a	n/a	0	0	0
1205717	WORD	wordpools/wasnorm_wordpool_576.txt	LTP290	ltpFR2	8	7	BROOK	177	n/a	n/a	0	0	0
1208481	WORD	wordpools/wasnorm_wordpool_576.txt	LTP290	ltpFR2	8	7	BATHTUB	100	n/a	n/a	0	0	0
1211176	WORD	wordpools/wasnorm_wordpool_576.txt	LTP290	ltpFR2	8	7	PLIERS	1089	n/a	n/a	0	0	0
1212790	START	n/a	LTP290	ltpFR2	8	n/a	n/a	n/a	8	n/a	n/a	n/a	n/a
1213763	DISTRACTOR	n/a	LTP290	ltpFR2	8	7	n/a	n/a	n/a	n/a	0	0	0
1213772	PROB	n/a	LTP290	ltpFR2	8	n/a	n/a	n/a	8	15	6	7	2
1215270	PROB	n/a	LTP290	ltpFR2	8	n/a	n/a	n/a	8	16	4	9	3
1216934	PROB	n/a	LTP290	ltpFR2	8	n/a	n/a	n/a	8	10	3	2	4
1218265	PROB	n/a	LTP290	ltpFR2	8	n/a	n/a	n/a	8	19	3	7	9
1220496	PROB	n/a	LTP290	ltpFR2	8	n/a	n/a	n/a	8	11	1	8	2
1222293	PROB	n/a	LTP290	ltpFR2	8	n/a	n/a	n/a	8	12	7	1	4
1224040	PROB	n/a	LTP290	ltpFR2	8	n/a	n/a	n/a	8	14	7	3	4
1225289	PROB	n/a	LTP290	ltpFR2	8	n/a	n/a	n/a	8	19	5	9	5
1226686	PROB	n/a	LTP290	ltpFR2	8	n/a	n/a	n/a	8	15	4	3	8
1228318	PROB	n/a	LTP290	ltpFR2	8	n/a	n/a	n/a	8	19	8	4	7
1230979	PROB	n/a	LTP290	ltpFR2	8	n/a	n/a	n/a	8	9	5	2	2
1232627	PROB	n/a	LTP290	ltpFR2	8	n/a	n/a	n/a	8	20	8	7	5
1235426	STOP	n/a	LTP290	ltpFR2	8	n/a	n/a	n/a	8	n/a	n/a	n/a	n/a
1238585	REC_START	n/a	LTP290	ltpFR2	8	7	n/a	n/a	n/a	n/a	0	0	0
1240301	REC_WORD	wordpools/wasnorm_wordpool_576.txt	LTP290	ltpFR2	8	7	FEMALE	559	n/a	n/a	0	0	0
1241329	REC_WORD	wordpools/wasnorm_wordpool_576.txt	LTP290	ltpFR2	8	7	PARSLEY	1016	n/a	n/a	0	0	0
1304905	REC_WORD	wordpools/wasnorm_wordpool_576.txt	LTP290	ltpFR2	8	7	PISTON	1076	n/a	n/a	0	0	0
1306421	REC_WORD	wordpools/wasnorm_wordpool_576.txt	LTP290	ltpFR2	8	7	PASTA	1021	n/a	n/a	0	0	0
1329216	DISTRACTOR	n/a	LTP290	ltpFR2	8	8	n/a	n/a	n/a	n/a	0	0	0
1329216	START	n/a	LTP290	ltpFR2	8	n/a	n/a	n/a	9	n/a	n/a	n/a	n/a
1329249	PROB	n/a	LTP290	ltpFR2	8	n/a	n/a	n/a	9	16	8	7	1
1330897	PROB	n/a	LTP290	ltpFR2	8	n/a	n/a	n/a	9	23	9	5	9
1333461	PROB	n/a	LTP290	ltpFR2	8	n/a	n/a	n/a	9	10	4	4	2
1334691	PROB	n/a	LTP290	ltpFR2	8	n/a	n/a	n/a	9	10	3	6	1
1335840	PROB	n/a	LTP290	ltpFR2	8	n/a	n/a	n/a	9	9	4	4	1
1337171	PROB	n/a	LTP290	ltpFR2	8	n/a	n/a	n/a	9	23	6	8	9
1338785	PROB	n/a	LTP290	ltpFR2	8	n/a	n/a	n/a	9	16	6	6	4
1340517	PROB	n/a	LTP290	ltpFR2	8	n/a	n/a	n/a	9	15	9	4	2
1343129	PROB	n/a	LTP290	ltpFR2	8	n/a	n/a	n/a	9	17	8	1	8
1344627	PROB	n/a	LTP290	ltpFR2	8	n/a	n/a	n/a	9	15	6	4	5
1345791	PROB	n/a	LTP290	ltpFR2	8	n/a	n/a	n/a	9	18	3	9	7
1347290	PROB	n/a	LTP290	ltpFR2	8	n/a	n/a	n/a	9	19	8	5	6
1349304	PROB	n/a	LTP290	ltpFR2	8	n/a	n/a	n/a	9	24	7	9	8
1353215	STOP	n/a	LTP290	ltpFR2	8	n/a	n/a	n/a	9	n/a	n/a	n/a	n/a
1354330	WORD	wordpools/wasnorm_wordpool_576.txt	LTP290	ltpFR2	8	8	SWITCH	1422	n/a	n/a	0	0	0
1356958	WORD	wordpools/wasnorm_wordpool_576.txt	LTP290	ltpFR2	8	8	FREEZER	604	n/a	n/a	0	0	0
1359489	WORD	wordpools/wasnorm_wordpool_576.txt	LTP290	ltpFR2	8	8	JUDGE	761	n/a	n/a	0	0	0
1362184	WORD	wordpools/wasnorm_wordpool_576.txt	LTP290	ltpFR2	8	8	WITNESS	1618	n/a	n/a	0	0	0
1364880	WORD	wordpools/wasnorm_wordpool_576.txt	LTP290	ltpFR2	8	8	NAPKIN	937	n/a	n/a	0	0	0
1367609	WORD	wordpools/wasnorm_wordpool_576.txt	LTP290	ltpFR2	8	8	POET	1095	n/a	n/a	0	0	0
1370289	WORD	wordpools/wasnorm_wordpool_576.txt	LTP290	ltpFR2	8	8	COD	340	n/a	n/a	0	0	0
1372751	WORD	wordpools/wasnorm_wordpool_576.txt	LTP290	ltpFR2	8	8	KLEENEX	782	n/a	n/a	0	0	0
1375348	WORD	wordpools/wasnorm_wordpool_576.txt	LTP290	ltpFR2	8	8	IGLOO	734	n/a	n/a	0	0	0
1378076	WORD	wordpools/wasnorm_wordpool_576.txt	LTP290	ltpFR2	8	8	HIKER	708	n/a	n/a	0	0	0
1380856	WORD	wordpools/wasnorm_wordpool_576.txt	LTP290	ltpFR2	8	8	INMATE	738	n/a	n/a	0	0	0
1383469	WORD	wordpools/wasnorm_wordpool_576.txt	LTP290	ltpFR2	8	8	PUDDLE	1140	n/a	n/a	0	0	0
1385965	WORD	wordpools/wasnorm_wordpool_576.txt	LTP290	ltpFR2	8	8	MAPLE	866	n/a	n/a	0	0	0
1388644	WORD	wordpools/wasnorm_wordpool_576.txt	LTP290	ltpFR2	8	8	SHRUB	1299	n/a	n/a	0	0	0
1391240	WORD	wordpools/wasnorm_wordpool_576.txt	LTP290	ltpFR2	8	8	KNAPSACK	783	n/a	n/a	0	0	0
1393670	WORD	wordpools/wasnorm_wordpool_576.txt	LTP290	ltpFR2	8	8	LIZARD	834	n/a	n/a	0	0	0
1396317	WORD	wordpools/wasnorm_wordpool_576.txt	LTP290	ltpFR2	8	8	JELLO	754	n/a	n/a	0	0	0
1399112	WORD	wordpools/wasnorm_wordpool_576.txt	LTP290	ltpFR2	8	8	QUARTER	1148	n/a	n/a	0	0	0
1401575	WORD	wordpools/wasnorm_wordpool_576.txt	LTP290	ltpFR2	8	8	TABLET	1427	n/a	n/a	0	0	0
1404271	WORD	wordpools/wasnorm_wordpool_576.txt	LTP290	ltpFR2	8	8	DRILL	497	n/a	n/a	0	0	0
1407067	WORD	wordpools/wasnorm_wordpool_576.txt	LTP290	ltpFR2	8	8	ROCKET	1202	n/a	n/a	0	0	0
1409514	WORD	wordpools/wasnorm_wordpool_576.txt	LTP290	ltpFR2	8	8	PERCH	1048	n/a	n/a	0	0	0
1412059	WORD	wordpools/wasnorm_wordpool_576.txt	LTP290	ltpFR2	8	8	SEAGULL	1261	n/a	n/a	0	0	0
1414722	WORD	wordpools/wasnorm_wordpool_576.txt	LTP290	ltpFR2	8	8	THIEF	1456	n/a	n/a	0	0	0
1416337	START	n/a	LTP290	ltpFR2	8	n/a	n/a	n/a	10	n/a	n/a	n/a	n/a
1417254	DISTRACTOR	n/a	LTP290	ltpFR2	8	8	n/a	n/a	n/a	n/a	0	0	0
1417268	PROB	n/a	LTP290	ltpFR2	8	n/a	n/a	n/a	10	10	2	2	6
1418501	PROB	n/a	LTP290	ltpFR2	8	n/a	n/a	n/a	10	24	8	8	8
1419981	PROB	n/a	LTP290	ltpFR2	8	n/a	n/a	n/a	10	23	9	5	9
1422428	PROB	n/a	LTP290	ltpFR2	8	n/a	n/a	n/a	10	9	7	1	1
1423725	PROB	n/a	LTP290	ltpFR2	8	n/a	n/a	n/a	10	20	5	9	6
1425190	PROB	n/a	LTP290	ltpFR2	8	n/a	n/a	n/a	10	14	5	7	2
1427070	PROB	n/a	LTP290	ltpFR2	8	n/a	n/a	n/a	10	10	5	4	1
1428634	PROB	n/a	LTP290	ltpFR2	8	n/a	n/a	n/a	10	15	5	4	6
1430016	PROB	n/a	LTP290	ltpFR2	8	n/a	n/a	n/a	10	13	5	2	6
1432480	PROB	n/a	LTP290	ltpFR2	8	n/a	n/a	n/a	10	13	2	4	7
1433943	PROB	n/a	LTP290	ltpFR2	8	n/a	n/a	n/a	10	18	3	6	9
1435274	PROB	n/a	LTP290	ltpFR2	8	n/a	n/a	n/a	10	15	2	5	8
1436689	PROB	n/a	LTP290	ltpFR2	8	n/a	n/a	n/a	10	13	3	9	1
1438104	PROB	n/a	LTP290	ltpFR2	8	n/a	n/a	n/a	10	16	3	9	4
1439466	STOP	n/a	LTP290	ltpFR2	8	n/a	n/a	n/a	10	n/a	n/a	n/a	n/a
1442215	REC_START	n/a	LTP290	ltpFR2	8	8	n/a	n/a	n/a	n/a	0	0	0
1444975	REC_WORD_VV	wordpools/wasnorm_wordpool_576.txt	LTP290	ltpFR2	8	8	<>	-1	n/a	n/a	0	0	0
1451045	REC_WORD	wordpools/wasnorm_wordpool_576.txt	LTP290	ltpFR2	8	8	JUDGE	761	n/a	n/a	0	0	0
1451544	REC_WORD	wordpools/wasnorm_wordpool_576.txt	LTP290	ltpFR2	8	8	WITNESS	1618	n/a	n/a	0	0	0
1454728	REC_WORD	wordpools/wasnorm_wordpool_576.txt	LTP290	ltpFR2	8	8	NAPKIN	937	n/a	n/a	0	0	0
1455406	REC_WORD	wordpools/wasnorm_wordpool_576.txt	LTP290	ltpFR2	8	8	POET	1095	n/a	n/a	0	0	0
1457839	REC_WORD	wordpools/wasnorm_wordpool_576.txt	LTP290	ltpFR2	8	8	COD	340	n/a	n/a	0	0	0
1460837	REC_WORD	wordpools/wasnorm_wordpool_576.txt	LTP290	ltpFR2	8	8	KLEENEX	782	n/a	n/a	0	0	0
1468769	REC_WORD	wordpools/wasnorm_wordpool_576.txt	LTP290	ltpFR2	8	8	HIKER	708	n/a	n/a	0	0	0
1469291	REC_WORD	wordpools/wasnorm_wordpool_576.txt	LTP290	ltpFR2	8	8	IGLOO	734	n/a	n/a	0	0	0
1473180	REC_WORD	wordpools/wasnorm_wordpool_576.txt	LTP290	ltpFR2	8	8	PUDDLE	1140	n/a	n/a	0	0	0
1473613	REC_WORD	wordpools/wasnorm_wordpool_576.txt	LTP290	ltpFR2	8	8	MAPLE	866	n/a	n/a	0	0	0
1476476	REC_WORD	wordpools/wasnorm_wordpool_576.txt	LTP290	ltpFR2	8	8	KNAPSACK	783	n/a	n/a	0	0	0
1477092	REC_WORD	wordpools/wasnorm_wordpool_576.txt	LTP290	ltpFR2	8	8	LIZARD	834	n/a	n/a	0	0	0
1477700	REC_WORD	wordpools/wasnorm_wordpool_576.txt	LTP290	ltpFR2	8	8	QUARTER	1148	n/a	n/a	0	0	0
1478954	REC_WORD	wordpools/wasnorm_wordpool_576.txt	LTP290	ltpFR2	8	8	ROCKET	1202	n/a	n/a	0	0	0
1481407	REC_WORD	wordpools/wasnorm_wordpool_576.txt	LTP290	ltpFR2	8	8	JELLO	754	n/a	n/a	0	0	0
1482467	REC_WORD	wordpools/wasnorm_wordpool_576.txt	LTP290	ltpFR2	8	8	DRILL	497	n/a	n/a	0	0	0
1518833	REST_REWET	n/a	LTP290	ltpFR2	8	8	n/a	n/a	n/a	n/a	0	0	0
1860623	WORD	wordpools/wasnorm_wordpool_576.txt	LTP290	ltpFR2	8	9	RIVER	1194	n/a	n/a	0	0	0
1863336	WORD	wordpools/wasnorm_wordpool_576.txt	LTP290	ltpFR2	8	9	PATIENT	1024	n/a	n/a	0	0	0
1866048	WORD	wordpools/wasnorm_wordpool_576.txt	LTP290	ltpFR2	8	9	TUBA	1515	n/a	n/a	0	0	0
1868827	WORD	wordpools/wasnorm_wordpool_576.txt	LTP290	ltpFR2	8	9	CONCERT	360	n/a	n/a	0	0	0
1871374	WORD	wordpools/wasnorm_wordpool_576.txt	LTP290	ltpFR2	8	9	LACE	792	n/a	n/a	0	0	0
1874003	WORD	wordpools/wasnorm_wordpool_576.txt	LTP290	ltpFR2	8	9	ISLAND	745	n/a	n/a	0	0	0
1876732	WORD	wordpools/wasnorm_wordpool_576.txt	LTP290	ltpFR2	8	9	ROBBER	1197	n/a	n/a	0	0	0
1879228	WORD	wordpools/wasnorm_wordpool_576.txt	LTP290	ltpFR2	8	9	FOREHEAD	592	n/a	n/a	0	0	0
1881924	WORD	wordpools/wasnorm_wordpool_576.txt	LTP290	ltpFR2	8	9	PORTRAIT	1111	n/a	n/a	0	0	0
1884472	WORD	wordpools/wasnorm_wordpool_576.txt	LTP290	ltpFR2	8	9	COOK	372	n/a	n/a	0	0	0
1887216	WORD	wordpools/wasnorm_wordpool_576.txt	LTP290	ltpFR2	8	9	SODA	1341	n/a	n/a	0	0	0
1889796	WORD	wordpools/wasnorm_wordpool_576.txt	LTP290	ltpFR2	8	9	LILY	821	n/a	n/a	0	0	0
1892608	WORD	wordpools/wasnorm_wordpool_576.txt	LTP290	ltpFR2	8	9	STATUE	1374	n/a	n/a	0	0	0
1895405	WORD	wordpools/wasnorm_wordpool_576.txt	LTP290	ltpFR2	8	9	IDOL	733	n/a	n/a	0	0	0
1898217	WORD	wordpools/wasnorm_wordpool_576.txt	LTP290	ltpFR2	8	9	WHISKERS	1605	n/a	n/a	0	0	0
1900913	WORD	wordpools/wasnorm_wordpool_576.txt	LTP290	ltpFR2	8	9	DRESS	495	n/a	n/a	0	0	0
1903592	WORD	wordpools/wasnorm_wordpool_576.txt	LTP290	ltpFR2	8	9	BUG	187	n/a	n/a	0	0	0
1906405	WORD	wordpools/wasnorm_wordpool_576.txt	LTP290	ltpFR2	8	9	HOOK	715	n/a	n/a	0	0	0
1908951	WORD	wordpools/wasnorm_wordpool_576.txt	LTP290	ltpFR2	8	9	MILK	895	n/a	n/a	0	0	0
1911547	WORD	wordpools/wasnorm_wordpool_576.txt	LTP290	ltpFR2	8	9	SUSPECT	1415	n/a	n/a	0	0	0
1914160	WORD	wordpools/wasnorm_wordpool_576.txt	LTP290	ltpFR2	8	9	YACHT	1629	n/a	n/a	0	0	0
1916789	WORD	wordpools/wasnorm_wordpool_576.txt	LTP290	ltpFR2	8	9	FOOTBALL	591	n/a	n/a	0	0	0
1919269	WORD	wordpools/wasnorm_wordpool_576.txt	LTP290	ltpFR2	8	9	MARS	873	n/a	n/a	0	0	0
1921931	WORD	wordpools/wasnorm_wordpool_576.txt	LTP290	ltpFR2	8	9	COMET	353	n/a	n/a	0	0	0
1923546	START	n/a	LTP290	ltpFR2	8	n/a	n/a	n/a	11	n/a	n/a	n/a	n/a
1924573	DISTRACTOR	n/a	LTP290	ltpFR2	8	9	n/a	n/a	n/a	n/a	0	0	0
1924577	PROB	n/a	LTP290	ltpFR2	8	n/a	n/a	n/a	11	9	1	4	4
1926509	PROB	n/a	LTP290	ltpFR2	8	n/a	n/a	n/a	11	9	3	4	2
1927989	PROB	n/a	LTP290	ltpFR2	8	n/a	n/a	n/a	11	24	8	9	7
1931134	PROB	n/a	LTP290	ltpFR2	8	n/a	n/a	n/a	11	20	4	9	7
1932765	PROB	n/a	LTP290	ltpFR2	8	n/a	n/a	n/a	11	21	8	5	8
1934213	PROB	n/a	LTP290	ltpFR2	8	n/a	n/a	n/a	11	17	4	6	7
1935445	PROB	n/a	LTP290	ltpFR2	8	n/a	n/a	n/a	11	16	5	5	6
1936593	PROB	n/a	LTP290	ltpFR2	8	n/a	n/a	n/a	11	12	2	2	8
1938107	PROB	n/a	LTP290	ltpFR2	8	n/a	n/a	n/a	11	26	8	9	9
1939888	PROB	n/a	LTP290	ltpFR2	8	n/a	n/a	n/a	11	18	8	8	2
1942151	PROB	n/a	LTP290	ltpFR2	8	n/a	n/a	n/a	11	16	7	3	6
1943284	PROB	n/a	LTP290	ltpFR2	8	n/a	n/a	n/a	11	12	4	7	1
1944515	PROB	n/a	LTP290	ltpFR2	8	n/a	n/a	n/a	11	14	2	2	7
1947282	STOP	n/a	LTP290	ltpFR2	8	n/a	n/a	n/a	11	n/a	n/a	n/a	n/a
1949458	REC_START	n/a	LTP290	ltpFR2	8	9	n/a	n/a	n/a	n/a	0	0	0
1954251	REC_WORD_VV	wordpools/wasnorm_wordpool_576.txt	LTP290	ltpFR2	8	9	<>	-1	n/a	n/a	0	0	0
1954792	REC_WORD	wordpools/wasnorm_wordpool_576.txt	LTP290	ltpFR2	8	9	IDOL	733	n/a	n/a	0	0	0
1955425	REC_WORD	wordpools/wasnorm_wordpool_576.txt	LTP290	ltpFR2	8	9	WHISKERS	1605	n/a	n/a	0	0	0
1956238	REC_WORD	wordpools/wasnorm_wordpool_576.txt	LTP290	ltpFR2	8	9	IDOL	733	n/a	n/a	0	0	0
1961355	REC_WORD	wordpools/wasnorm_wordpool_576.txt	LTP290	ltpFR2	8	9	TUBA	1515	n/a	n/a	0	0	0
1962690	REC_WORD	wordpools/wasnorm_wordpool_576.txt	LTP290	ltpFR2	8	9	RIVER	1194	n/a	n/a	0	0	0
1969651	REC_WORD	wordpools/wasnorm_wordpool_576.txt	LTP290	ltpFR2	8	9	CONCERT	360	n/a	n/a	0	0	0
1971147	REC_WORD_VV	wordpools/wasnorm_wordpool_576.txt	LTP290	ltpFR2	8	9	<>	-1	n/a	n/a	0	0	0
1972120	REC_WORD	wordpools/wasnorm_wordpool_576.txt	LTP290	ltpFR2	8	9	LACE	792	n/a	n/a	0	0	0
2040155	WORD	wordpools/wasnorm_wordpool_576.txt	LTP290	ltpFR2	8	10	PLAZA	1088	n/a	n/a	0	0	0
2042718	WORD	wordpools/wasnorm_wordpool_576.txt	LTP290	ltpFR2	8	10	WAGON	1578	n/a	n/a	0	0	0
2045331	WORD	wordpools/wasnorm_wordpool_576.txt	LTP290	ltpFR2	8	10	CHEMIST	292	n/a	n/a	0	0	0
2047793	WORD	wordpools/wasnorm_wordpool_576.txt	LTP290	ltpFR2	8	10	MARINE	869	n/a	n/a	0	0	0
2050256	WORD	wordpools/wasnorm_wordpool_576.txt	LTP290	ltpFR2	8	10	BARREL	91	n/a	n/a	0	0	0
2052986	WORD	wordpools/wasnorm_wordpool_576.txt	LTP290	ltpFR2	8	10	PADDLE	1000	n/a	n/a	0	0	0
2055516	WORD	wordpools/wasnorm_wordpool_576.txt	LTP290	ltpFR2	8	10	DUSTPAN	509	n/a	n/a	0	0	0
2057978	WORD	wordpools/wasnorm_wordpool_576.txt	LTP290	ltpFR2	8	10	COMPASS	358	n/a	n/a	0	0	0
2060658	WORD	wordpools/wasnorm_wordpool_576.txt	LTP290	ltpFR2	8	10	PERFUME	1049	n/a	n/a	0	0	0
2063087	WORD	wordpools/wasnorm_wordpool_576.txt	LTP290	ltpFR2	8	10	ANKLE	24	n/a	n/a	0	0	0
2065866	WORD	wordpools/wasnorm_wordpool_576.txt	LTP290	ltpFR2	8	10	CREATURE	403	n/a	n/a	0	0	0
2068513	WORD	wordpools/wasnorm_wordpool_576.txt	LTP290	ltpFR2	8	10	DOUGHNUT	490	n/a	n/a	0	0	0
2071225	WORD	wordpools/wasnorm_wordpool_576.txt	LTP290	ltpFR2	8	10	CREVICE	405	n/a	n/a	0	0	0
2073788	WORD	wordpools/wasnorm_wordpool_576.txt	LTP290	ltpFR2	8	10	TWIG	1527	n/a	n/a	0	0	0
2076352	WORD	wordpools/wasnorm_wordpool_576.txt	LTP290	ltpFR2	8	10	CIGAR	308	n/a	n/a	0	0	0
2079097	WORD	wordpools/wasnorm_wordpool_576.txt	LTP290	ltpFR2	8	10	CRATER	400	n/a	n/a	0	0	0
2081876	WORD	wordpools/wasnorm_wordpool_576.txt	LTP290	ltpFR2	8	10	MEDAL	885	n/a	n/a	0	0	0
2084390	WORD	wordpools/wasnorm_wordpool_576.txt	LTP290	ltpFR2	8	10	PISTOL	1075	n/a	n/a	0	0	0
2086902	WORD	wordpools/wasnorm_wordpool_576.txt	LTP290	ltpFR2	8	10	TROMBONE	1508	n/a	n/a	0	0	0
2089366	WORD	wordpools/wasnorm_wordpool_576.txt	LTP290	ltpFR2	8	10	CASKET	255	n/a	n/a	0	0	0
2091928	WORD	wordpools/wasnorm_wordpool_576.txt	LTP290	ltpFR2	8	10	BEAVER	109	n/a	n/a	0	0	0
2094540	WORD	wordpools/wasnorm_wordpool_576.txt	LTP290	ltpFR2	8	10	AIRPORT	13	n/a	n/a	0	0	0
2097020	WORD	wordpools/wasnorm_wordpool_576.txt	LTP290	ltpFR2	8	10	PILOT	1070	n/a	n/a	0	0	0
2099599	WORD	wordpools/wasnorm_wordpool_576.txt	LTP290	ltpFR2	8	10	NECKLACE	940	n/a	n/a	0	0	0
2101214	START	n/a	LTP290	ltpFR2	8	n/a	n/a	n/a	12	n/a	n/a	n/a	n/a
2102037	DISTRACTOR	n/a	LTP290	ltpFR2	8	10	n/a	n/a	n/a	n/a	0	0	0
2102046	PROB	n/a	LTP290	ltpFR2	8	n/a	n/a	n/a	12	18	7	6	5
2103560	PROB	n/a	LTP290	ltpFR2	8	n/a	n/a	n/a	12	10	5	2	3
2104991	PROB	n/a	LTP290	ltpFR2	8	n/a	n/a	n/a	12	17	7	9	1
2107554	PROB	n/a	LTP290	ltpFR2	8	n/a	n/a	n/a	12	11	3	1	8
2110434	PROB	n/a	LTP290	ltpFR2	8	n/a	n/a	n/a	12	12	8	3	1
2111516	PROB	n/a	LTP290	ltpFR2	8	n/a	n/a	n/a	12	13	2	9	2
2112996	PROB	n/a	LTP290	ltpFR2	8	n/a	n/a	n/a	12	14	8	1	5
2114362	PROB	n/a	LTP290	ltpFR2	8	n/a	n/a	n/a	12	12	2	7	3
2116108	PROB	n/a	LTP290	ltpFR2	8	n/a	n/a	n/a	12	10	6	1	3
2117357	PROB	n/a	LTP290	ltpFR2	8	n/a	n/a	n/a	12	13	9	3	1
2118554	PROB	n/a	LTP290	ltpFR2	8	n/a	n/a	n/a	12	16	4	3	9
2120069	PROB	n/a	LTP290	ltpFR2	8	n/a	n/a	n/a	12	14	1	9	4
2121301	PROB	n/a	LTP290	ltpFR2	8	n/a	n/a	n/a	12	17	6	4	7
2125214	STOP	n/a	LTP290	ltpFR2	8	n/a	n/a	n/a	12	n/a	n/a	n/a	n/a
2127042	REC_START	n/a	LTP290	ltpFR2	8	10	n/a	n/a	n/a	n/a	0	0	0
2130292	REC_WORD	wordpools/wasnorm_wordpool_576.txt	LTP290	ltpFR2	8	10	AIRPORT	13	n/a	n/a	0	0	0
2130953	REC_WORD	wordpools/wasnorm_wordpool_576.txt	LTP290	ltpFR2	8	10	PILOT	1070	n/a	n/a	0	0	0
2131537	REC_WORD	wordpools/wasnorm_wordpool_576.txt	LTP290	ltpFR2	8	10	NECKLACE	940	n/a	n/a	0	0	0
2134338	REC_WORD	wordpools/wasnorm_wordpool_576.txt	LTP290	ltpFR2	8	10	BEAVER	109	n/a	n/a	0	0	0
2137831	REC_WORD	wordpools/wasnorm_wordpool_576.txt	LTP290	ltpFR2	8	10	CASKET	255	n/a	n/a	0	0	0
2138504	REC_WORD	wordpools/wasnorm_wordpool_576.txt	LTP290	ltpFR2	8	10	TROMBONE	1508	n/a	n/a	0	0	0
2139896	REC_WORD	wordpools/wasnorm_wordpool_576.txt	LTP290	ltpFR2	8	10	PISTOL	1075	n/a	n/a	0	0	0
2217706	DISTRACTOR	n/a	LTP290	ltpFR2	8	11	n/a	n/a	n/a	n/a	0	0	0
2217707	START	n/a	LTP290	ltpFR2	8	n/a	n/a	n/a	13	n/a	n/a	n/a	n/a
2217740	PROB	n/a	LTP290	ltpFR2	8	n/a	n/a	n/a	13	13	7	5	1
2219720	PROB	n/a	LTP290	ltpFR2	8	n/a	n/a	n/a	13	24	9	8	7
2223332	PROB	n/a	LTP290	ltpFR2	8	n/a	n/a	n/a	13	9	2	4	3
2225079	PROB	n/a	LTP290	ltpFR2	8	n/a	n/a	n/a	13	18	8	4	6
2227242	PROB	n/a	LTP290	ltpFR2	8	n/a	n/a	n/a	13	19	7	6	6
2229089	PROB	n/a	LTP290	ltpFR2	8	n/a	n/a	n/a	13	16	5	3	8
2230870	PROB	n/a	LTP290	ltpFR2	8	n/a	n/a	n/a	13	14	4	5	5
2232218	PROB	n/a	LTP290	ltpFR2	8	n/a	n/a	n/a	13	21	4	9	9
2234032	PROB	n/a	LTP290	ltpFR2	8	n/a	n/a	n/a	13	24	7	9	8
2236978	PROB	n/a	LTP290	ltpFR2	8	n/a	n/a	n/a	13	7	4	1	2
2238858	PROB	n/a	LTP290	ltpFR2	8	n/a	n/a	n/a	13	14	3	6	5
2240506	STOP	n/a	LTP290	ltpFR2	8	n/a	n/a	n/a	13	n/a	n/a	n/a	n/a
2242886	WORD	wordpools/wasnorm_wordpool_576.txt	LTP290	ltpFR2	8	11	TOMBSTONE	1478	n/a	n/a	0	0	0
2245548	WORD	wordpools/wasnorm_wordpool_576.txt	LTP290	ltpFR2	8	11	GRAVE	658	n/a	n/a	0	0	0
2248028	WORD	wordpools/wasnorm_wordpool_576.txt	LTP290	ltpFR2	8	11	MAMMAL	861	n/a	n/a	0	0	0
2250607	WORD	wordpools/wasnorm_wordpool_576.txt	LTP290	ltpFR2	8	11	SPOON	1357	n/a	n/a	0	0	0
2253203	WORD	wordpools/wasnorm_wordpool_576.txt	LTP290	ltpFR2	8	11	SCALPEL	1243	n/a	n/a	0	0	0
2255999	WORD	wordpools/wasnorm_wordpool_576.txt	LTP290	ltpFR2	8	11	RECORD	1176	n/a	n/a	0	0	0
2258712	WORD	wordpools/wasnorm_wordpool_576.txt	LTP290	ltpFR2	8	11	GIRL	637	n/a	n/a	0	0	0
2261275	WORD	wordpools/wasnorm_wordpool_576.txt	LTP290	ltpFR2	8	11	BRANDY	169	n/a	n/a	0	0	0
2263754	WORD	wordpools/wasnorm_wordpool_576.txt	LTP290	ltpFR2	8	11	JOURNAL	760	n/a	n/a	0	0	0
2266201	WORD	wordpools/wasnorm_wordpool_576.txt	LTP290	ltpFR2	8	11	PANTHER	1009	n/a	n/a	0	0	0
2268730	WORD	wordpools/wasnorm_wordpool_576.txt	LTP290	ltpFR2	8	11	CATTLE	261	n/a	n/a	0	0	0
2271543	WORD	wordpools/wasnorm_wordpool_576.txt	LTP290	ltpFR2	8	11	FLOWER	584	n/a	n/a	0	0	0
2274089	WORD	wordpools/wasnorm_wordpool_576.txt	LTP290	ltpFR2	8	11	BRICK	172	n/a	n/a	0	0	0
2276652	WORD	wordpools/wasnorm_wordpool_576.txt	LTP290	ltpFR2	8	11	SLUG	1329	n/a	n/a	0	0	0
2279131	WORD	wordpools/wasnorm_wordpool_576.txt	LTP290	ltpFR2	8	11	FRUIT	610	n/a	n/a	0	0	0
2281877	WORD	wordpools/wasnorm_wordpool_576.txt	LTP290	ltpFR2	8	11	NEUTRON	947	n/a	n/a	0	0	0
2284408	WORD	wordpools/wasnorm_wordpool_576.txt	LTP290	ltpFR2	8	11	DOLPHIN	483	n/a	n/a	0	0	0
2287136	WORD	wordpools/wasnorm_wordpool_576.txt	LTP290	ltpFR2	8	11	WARDROBE	1587	n/a	n/a	0	0	0
2289599	WORD	wordpools/wasnorm_wordpool_576.txt	LTP290	ltpFR2	8	11	SCARF	1246	n/a	n/a	0	0	0
2292129	WORD	wordpools/wasnorm_wordpool_576.txt	LTP290	ltpFR2	8	11	CHEST	295	n/a	n/a	0	0	0
2294758	WORD	wordpools/wasnorm_wordpool_576.txt	LTP290	ltpFR2	8	11	CASHIER	254	n/a	n/a	0	0	0
2297422	WORD	wordpools/wasnorm_wordpool_576.txt	LTP290	ltpFR2	8	11	PALACE	1006	n/a	n/a	0	0	0
2300000	WORD	wordpools/wasnorm_wordpool_576.txt	LTP290	ltpFR2	8	11	PICTURE	1061	n/a	n/a	0	0	0
2302448	WORD	wordpools/wasnorm_wordpool_576.txt	LTP290	ltpFR2	8	11	DAISY	435	n/a	n/a	0	0	0
2304061	START	n/a	LTP290	ltpFR2	8	n/a	n/a	n/a	14	n/a	n/a	n/a	n/a
2305246	DISTRACTOR	n/a	LTP290	ltpFR2	8	11	n/a	n/a	n/a	n/a	0	0	0
2305259	PROB	n/a	LTP290	ltpFR2	8	n/a	n/a	n/a	14	21	5	9	7
2307206	PROB	n/a	LTP290	ltpFR2	8	n/a	n/a	n/a	14	14	2	4	8
2308820	PROB	n/a	LTP290	ltpFR2	8	n/a	n/a	n/a	14	11	5	2	4
2310634	PROB	n/a	LTP290	ltpFR2	8	n/a	n/a	n/a	14	24	8	9	7
2312066	PROB	n/a	LTP290	ltpFR2	8	n/a	n/a	n/a	14	10	1	6	3
2313530	PROB	n/a	LTP290	ltpFR2	8	n/a	n/a	n/a	14	14	4	1	9
2315228	PROB	n/a	LTP290	ltpFR2	8	n/a	n/a	n/a	14	5	1	2	2
2316542	PROB	n/a	LTP290	ltpFR2	8	n/a	n/a	n/a	14	10	3	4	3
2318190	PROB	n/a	LTP290	ltpFR2	8	n/a	n/a	n/a	14	22	9	9	4
2319771	PROB	n/a	LTP290	ltpFR2	8	n/a	n/a	n/a	14	12	9	2	1
2321403	PROB	n/a	LTP290	ltpFR2	8	n/a	n/a	n/a	14	17	8	5	4
2322916	PROB	n/a	LTP290	ltpFR2	8	n/a	n/a	n/a	14	1	9	1	9
2325113	PROB	n/a	LTP290	ltpFR2	8	n/a	n/a	n/a	14	18	7	3	8
2326478	PROB	n/a	LTP290	ltpFR2	8	n/a	n/a	n/a	14	13	1	9	3
2327777	STOP	n/a	LTP290	ltpFR2	8	n/a	n/a	n/a	14	n/a	n/a	n/a	n/a
2329840	REC_START	n/a	LTP290	ltpFR2	8	11	n/a	n/a	n/a	n/a	0	0	0
2332119	REC_WORD	wordpools/wasnorm_wordpool_576.txt	LTP290	ltpFR2	8	11	TOMBSTONE	1478	n/a	n/a	0	0	0
2334330	REC_WORD	wordpools/wasnorm_wordpool_576.txt	LTP290	ltpFR2	8	11	GIRL	637	n/a	n/a	0	0	0
2334813	REC_WORD	wordpools/wasnorm_wordpool_576.txt	LTP290	ltpFR2	8	11	BRANDY	169	n/a	n/a	0	0	0
2337437	REC_WORD	wordpools/wasnorm_wordpool_576.txt	LTP290	ltpFR2	8	11	RECORD	1176	n/a	n/a	0	0	0
2340053	REC_WORD	wordpools/wasnorm_wordpool_576.txt	LTP290	ltpFR2	8	11	DOLPHIN	483	n/a	n/a	0	0	0
2340457	REC_WORD	wordpools/wasnorm_wordpool_576.txt	LTP290	ltpFR2	8	11	NEUTRON	947	n/a	n/a	0	0	0
2420505	WORD	wordpools/wasnorm_wordpool_576.txt	LTP290	ltpFR2	8	12	SMOG	1330	n/a	n/a	0	0	0
2422967	WORD	wordpools/wasnorm_wordpool_576.txt	LTP290	ltpFR2	8	12	UMPIRE	1535	n/a	n/a	0	0	0
2425529	WORD	wordpools/wasnorm_wordpool_576.txt	LTP290	ltpFR2	8	12	POCKET	1093	n/a	n/a	0	0	0
2428326	WORD	wordpools/wasnorm_wordpool_576.txt	LTP290	ltpFR2	8	12	STAKE	1368	n/a	n/a	0	0	0
2431021	WORD	wordpools/wasnorm_wordpool_576.txt	LTP290	ltpFR2	8	12	FIREPLACE	570	n/a	n/a	0	0	0
2433751	WORD	wordpools/wasnorm_wordpool_576.txt	LTP290	ltpFR2	8	12	GARLIC	624	n/a	n/a	0	0	0
2436464	WORD	wordpools/wasnorm_wordpool_576.txt	LTP290	ltpFR2	8	12	BINDER	127	n/a	n/a	0	0	0
2438943	WORD	wordpools/wasnorm_wordpool_576.txt	LTP290	ltpFR2	8	12	ACTRESS	6	n/a	n/a	0	0	0
2441689	WORD	wordpools/wasnorm_wordpool_576.txt	LTP290	ltpFR2	8	12	FRAGRANCE	599	n/a	n/a	0	0	0
2444118	WORD	wordpools/wasnorm_wordpool_576.txt	LTP290	ltpFR2	8	12	BOYFRIEND	162	n/a	n/a	0	0	0
2446814	WORD	wordpools/wasnorm_wordpool_576.txt	LTP290	ltpFR2	8	12	KNIFE	785	n/a	n/a	0	0	0
2449428	WORD	wordpools/wasnorm_wordpool_576.txt	LTP290	ltpFR2	8	12	ROBIN	1199	n/a	n/a	0	0	0
2451940	WORD	wordpools/wasnorm_wordpool_576.txt	LTP290	ltpFR2	8	12	EAGLE	512	n/a	n/a	0	0	0
2454553	WORD	wordpools/wasnorm_wordpool_576.txt	LTP290	ltpFR2	8	12	BURGLAR	200	n/a	n/a	0	0	0
2456999	WORD	wordpools/wasnorm_wordpool_576.txt	LTP290	ltpFR2	8	12	SALT	1229	n/a	n/a	0	0	0
2459595	WORD	wordpools/wasnorm_wordpool_576.txt	LTP290	ltpFR2	8	12	ONION	977	n/a	n/a	0	0	0
2462092	WORD	wordpools/wasnorm_wordpool_576.txt	LTP290	ltpFR2	8	12	KETCHUP	771	n/a	n/a	0	0	0
2464887	WORD	wordpools/wasnorm_wordpool_576.txt	LTP290	ltpFR2	8	12	MARSH	874	n/a	n/a	0	0	0
2467485	WORD	wordpools/wasnorm_wordpool_576.txt	LTP290	ltpFR2	8	12	SLIDE	1326	n/a	n/a	0	0	0
2470246	WORD	wordpools/wasnorm_wordpool_576.txt	LTP290	ltpFR2	8	12	ACTOR	5	n/a	n/a	0	0	0
2472776	WORD	wordpools/wasnorm_wordpool_576.txt	LTP290	ltpFR2	8	12	WHISTLE	1606	n/a	n/a	0	0	0
2475339	WORD	wordpools/wasnorm_wordpool_576.txt	LTP290	ltpFR2	8	12	FLASK	576	n/a	n/a	0	0	0
2477768	WORD	wordpools/wasnorm_wordpool_576.txt	LTP290	ltpFR2	8	12	LAMP	798	n/a	n/a	0	0	0
2480382	WORD	wordpools/wasnorm_wordpool_576.txt	LTP290	ltpFR2	8	12	LABEL	790	n/a	n/a	0	0	0
2481995	START	n/a	LTP290	ltpFR2	8	n/a	n/a	n/a	15	n/a	n/a	n/a	n/a
2483087	DISTRACTOR	n/a	LTP290	ltpFR2	8	12	n/a	n/a	n/a	n/a	0	0	0
2483094	PROB	n/a	LTP290	ltpFR2	8	n/a	n/a	n/a	15	4	2	1	1
2484393	PROB	n/a	LTP290	ltpFR2	8	n/a	n/a	n/a	15	10	4	2	4
2485956	PROB	n/a	LTP290	ltpFR2	8	n/a	n/a	n/a	15	13	8	2	3
2487653	PROB	n/a	LTP290	ltpFR2	8	n/a	n/a	n/a	15	18	7	6	5
2489234	PROB	n/a	LTP290	ltpFR2	8	n/a	n/a	n/a	15	22	8	9	5
2490899	PROB	n/a	LTP290	ltpFR2	8	n/a	n/a	n/a	15	10	7	2	1
2491997	PROB	n/a	LTP290	ltpFR2	8	n/a	n/a	n/a	15	18	7	4	7
2493512	PROB	n/a	LTP290	ltpFR2	8	n/a	n/a	n/a	15	21	5	8	9
2494809	PROB	n/a	LTP290	ltpFR2	8	n/a	n/a	n/a	15	18	6	3	9
2496224	PROB	n/a	LTP290	ltpFR2	8	n/a	n/a	n/a	15	11	5	5	1
2497239	PROB	n/a	LTP290	ltpFR2	8	n/a	n/a	n/a	15	10	8	1	1
2498405	PROB	n/a	LTP290	ltpFR2	8	n/a	n/a	n/a	15	15	1	6	8
2499869	PROB	n/a	LTP290	ltpFR2	8	n/a	n/a	n/a	15	16	9	1	7
2501649	PROB	n/a	LTP290	ltpFR2	8	n/a	n/a	n/a	15	18	5	8	5
2502997	PROB	n/a	LTP290	ltpFR2	8	n/a	n/a	n/a	15	23	9	8	6
2504801	STOP	n/a	LTP290	ltpFR2	8	n/a	n/a	n/a	15	n/a	n/a	n/a	n/a
2507807	REC_START	n/a	LTP290	ltpFR2	8	12	n/a	n/a	n/a	n/a	0	0	0
2511330	REC_WORD	wordpools/wasnorm_wordpool_576.txt	LTP290	ltpFR2	8	12	SMOG	1330	n/a	n/a	0	0	0
2512969	REC_WORD	wordpools/wasnorm_wordpool_576.txt	LTP290	ltpFR2	8	12	UMPIRE	1535	n/a	n/a	0	0	0
2513818	REC_WORD	wordpools/wasnorm_wordpool_576.txt	LTP290	ltpFR2	8	12	POCKET	1093	n/a	n/a	0	0	0
2515774	REC_WORD	wordpools/wasnorm_wordpool_576.txt	LTP290	ltpFR2	8	12	STAKE	1368	n/a	n/a	0	0	0
2516631	REC_WORD	wordpools/wasnorm_wordpool_576.txt	LTP290	ltpFR2	8	12	FIREPLACE	570	n/a	n/a	0	0	0
2517762	REC_WORD	wordpools/wasnorm_wordpool_576.txt	LTP290	ltpFR2	8	12	GARLIC	624	n/a	n/a	0	0	0
2523506	REC_WORD	wordpools/wasnorm_wordpool_576.txt	LTP290	ltpFR2	8	12	BINDER	127	n/a	n/a	0	0	0
2524206	REC_WORD	wordpools/wasnorm_wordpool_576.txt	LTP290	ltpFR2	8	12	ACTRESS	6	n/a	n/a	0	0	0
2524857	REC_WORD	wordpools/wasnorm_wordpool_576.txt	LTP290	ltpFR2	8	12	FRAGRANCE	599	n/a	n/a	0	0	0
2525703	REC_WORD	wordpools/wasnorm_wordpool_576.txt	LTP290	ltpFR2	8	12	BOYFRIEND	162	n/a	n/a	0	0	0
2536444	REC_WORD	wordpools/wasnorm_wordpool_576.txt	LTP290	ltpFR2	8	12	ROBIN	1199	n/a	n/a	0	0	0
2537054	REC_WORD	wordpools/wasnorm_wordpool_576.txt	LTP290	ltpFR2	8	12	EAGLE	512	n/a	n/a	0	0	0
2598538	DISTRACTOR	n/a	LTP290	ltpFR2	8	13	n/a	n/a	n/a	n/a	0	0	0
2598538	START	n/a	LTP290	ltpFR2	8	n/a	n/a	n/a	16	n/a	n/a	n/a	n/a
2598571	PROB	n/a	LTP290	ltpFR2	8	n/a	n/a	n/a	16	18	3	7	8
2599919	PROB	n/a	LTP290	ltpFR2	8	n/a	n/a	n/a	16	11	6	2	3
2601617	PROB	n/a	LTP290	ltpFR2	8	n/a	n/a	n/a	16	17	9	4	4
2603382	PROB	n/a	LTP290	ltpFR2	8	n/a	n/a	n/a	16	18	8	5	5
2604695	PROB	n/a	LTP290	ltpFR2	8	n/a	n/a	n/a	16	16	4	4	8
2606593	PROB	n/a	LTP290	ltpFR2	8	n/a	n/a	n/a	16	11	6	1	4
2607957	PROB	n/a	LTP290	ltpFR2	8	n/a	n/a	n/a	16	18	9	2	7
2609971	PROB	n/a	LTP290	ltpFR2	8	n/a	n/a	n/a	16	16	4	6	6
2611136	PROB	n/a	LTP290	ltpFR2	8	n/a	n/a	n/a	16	21	9	6	7
2612667	PROB	n/a	LTP290	ltpFR2	8	n/a	n/a	n/a	16	19	7	8	4
2614597	PROB	n/a	LTP290	ltpFR2	8	n/a	n/a	n/a	16	16	5	2	9
2616412	PROB	n/a	LTP290	ltpFR2	8	n/a	n/a	n/a	16	13	8	4	1
2618042	PROB	n/a	LTP290	ltpFR2	8	n/a	n/a	n/a	16	5	1	1	3
2619041	PROB	n/a	LTP290	ltpFR2	8	n/a	n/a	n/a	16	11	6	1	4
2620605	PROB	n/a	LTP290	ltpFR2	8	n/a	n/a	n/a	16	21	8	5	9
2622129	STOP	n/a	LTP290	ltpFR2	8	n/a	n/a	n/a	16	n/a	n/a	n/a	n/a
2623700	WORD	wordpools/wasnorm_wordpool_576.txt	LTP290	ltpFR2	8	13	SNAKE	1333	n/a	n/a	0	0	0
2626297	WORD	wordpools/wasnorm_wordpool_576.txt	LTP290	ltpFR2	8	13	PIGEON	1065	n/a	n/a	0	0	0
2628759	WORD	wordpools/wasnorm_wordpool_576.txt	LTP290	ltpFR2	8	13	VIKING	1565	n/a	n/a	0	0	0
2631572	WORD	wordpools/wasnorm_wordpool_576.txt	LTP290	ltpFR2	8	13	WRENCH	1625	n/a	n/a	0	0	0
2634018	WORD	wordpools/wasnorm_wordpool_576.txt	LTP290	ltpFR2	8	13	LONDON	843	n/a	n/a	0	0	0
2636516	WORD	wordpools/wasnorm_wordpool_576.txt	LTP290	ltpFR2	8	13	CEILING	265	n/a	n/a	0	0	0
2639295	WORD	wordpools/wasnorm_wordpool_576.txt	LTP290	ltpFR2	8	13	COCKTAIL	338	n/a	n/a	0	0	0
2641873	WORD	wordpools/wasnorm_wordpool_576.txt	LTP290	ltpFR2	8	13	SUITCASE	1403	n/a	n/a	0	0	0
2644602	WORD	wordpools/wasnorm_wordpool_576.txt	LTP290	ltpFR2	8	13	SEAFOOD	1260	n/a	n/a	0	0	0
2647399	WORD	wordpools/wasnorm_wordpool_576.txt	LTP290	ltpFR2	8	13	SCARECROW	1245	n/a	n/a	0	0	0
2650194	WORD	wordpools/wasnorm_wordpool_576.txt	LTP290	ltpFR2	8	13	CAPTIVE	240	n/a	n/a	0	0	0
2652674	WORD	wordpools/wasnorm_wordpool_576.txt	LTP290	ltpFR2	8	13	COLLEGE	346	n/a	n/a	0	0	0
2655337	WORD	wordpools/wasnorm_wordpool_576.txt	LTP290	ltpFR2	8	13	RACKET	1155	n/a	n/a	0	0	0
2658099	WORD	wordpools/wasnorm_wordpool_576.txt	LTP290	ltpFR2	8	13	CRICKET	408	n/a	n/a	0	0	0
2660745	WORD	wordpools/wasnorm_wordpool_576.txt	LTP290	ltpFR2	8	13	COCOON	339	n/a	n/a	0	0	0
2663375	WORD	wordpools/wasnorm_wordpool_576.txt	LTP290	ltpFR2	8	13	DONOR	485	n/a	n/a	0	0	0
2665937	WORD	wordpools/wasnorm_wordpool_576.txt	LTP290	ltpFR2	8	13	MONSTER	912	n/a	n/a	0	0	0
2668501	WORD	wordpools/wasnorm_wordpool_576.txt	LTP290	ltpFR2	8	13	LOVER	846	n/a	n/a	0	0	0
2671063	WORD	wordpools/wasnorm_wordpool_576.txt	LTP290	ltpFR2	8	13	PARTNER	1017	n/a	n/a	0	0	0
2673692	WORD	wordpools/wasnorm_wordpool_576.txt	LTP290	ltpFR2	8	13	HEART	697	n/a	n/a	0	0	0
2676272	WORD	wordpools/wasnorm_wordpool_576.txt	LTP290	ltpFR2	8	13	SOFTBALL	1343	n/a	n/a	0	0	0
2678785	WORD	wordpools/wasnorm_wordpool_576.txt	LTP290	ltpFR2	8	13	TUTU	1524	n/a	n/a	0	0	0
2681264	WORD	wordpools/wasnorm_wordpool_576.txt	LTP290	ltpFR2	8	13	POISON	1096	n/a	n/a	0	0	0
2683777	WORD	wordpools/wasnorm_wordpool_576.txt	LTP290	ltpFR2	8	13	FLIPPER	580	n/a	n/a	0	0	0
2685393	START	n/a	LTP290	ltpFR2	8	n/a	n/a	n/a	17	n/a	n/a	n/a	n/a
2686491	DISTRACTOR	n/a	LTP290	ltpFR2	8	13	n/a	n/a	n/a	n/a	0	0	0
2686508	PROB	n/a	LTP290	ltpFR2	8	n/a	n/a	n/a	17	15	2	8	5
2687855	PROB	n/a	LTP290	ltpFR2	8	n/a	n/a	n/a	17	9	5	3	1
2690135	PROB	n/a	LTP290	ltpFR2	8	n/a	n/a	n/a	17	14	9	3	2
2691549	PROB	n/a	LTP290	ltpFR2	8	n/a	n/a	n/a	17	21	6	7	8
2693097	PROB	n/a	LTP290	ltpFR2	8	n/a	n/a	n/a	17	14	2	7	5
2694977	PROB	n/a	LTP290	ltpFR2	8	n/a	n/a	n/a	17	13	6	3	4
2696725	PROB	n/a	LTP290	ltpFR2	8	n/a	n/a	n/a	17	19	6	9	4
2698290	PROB	n/a	LTP290	ltpFR2	8	n/a	n/a	n/a	17	14	1	6	7
2700470	PROB	n/a	LTP290	ltpFR2	8	n/a	n/a	n/a	17	16	8	7	1
2701750	PROB	n/a	LTP290	ltpFR2	8	n/a	n/a	n/a	17	25	8	7	9
2704147	PROB	n/a	LTP290	ltpFR2	8	n/a	n/a	n/a	17	19	4	7	8
2705794	PROB	n/a	LTP290	ltpFR2	8	n/a	n/a	n/a	17	11	4	3	4
2707059	PROB	n/a	LTP290	ltpFR2	8	n/a	n/a	n/a	17	12	4	4	4
2708490	STOP	n/a	LTP290	ltpFR2	8	n/a	n/a	n/a	17	n/a	n/a	n/a	n/a
2711154	REC_START	n/a	LTP290	ltpFR2	8	13	n/a	n/a	n/a	n/a	0	0	0
2801818	WORD	wordpools/wasnorm_wordpool_576.txt	LTP290	ltpFR2	8	14	LASER	801	n/a	n/a	0	0	0
2804315	WORD	wordpools/wasnorm_wordpool_576.txt	LTP290	ltpFR2	8	14	LAPEL	800	n/a	n/a	0	0	0
2807010	WORD	wordpools/wasnorm_wordpool_576.txt	LTP290	ltpFR2	8	14	JAPAN	749	n/a	n/a	0	0	0
2809573	WORD	wordpools/wasnorm_wordpool_576.txt	LTP290	ltpFR2	8	14	EUROPE	541	n/a	n/a	0	0	0
2812036	WORD	wordpools/wasnorm_wordpool_576.txt	LTP290	ltpFR2	8	14	CHIPMUNK	304	n/a	n/a	0	0	0
2814532	WORD	wordpools/wasnorm_wordpool_576.txt	LTP290	ltpFR2	8	14	RAZOR	1171	n/a	n/a	0	0	0
2816962	WORD	wordpools/wasnorm_wordpool_576.txt	LTP290	ltpFR2	8	14	PORK	1108	n/a	n/a	0	0	0
2819541	WORD	wordpools/wasnorm_wordpool_576.txt	LTP290	ltpFR2	8	14	STICKER	1382	n/a	n/a	0	0	0
2822154	WORD	wordpools/wasnorm_wordpool_576.txt	LTP290	ltpFR2	8	14	BODY	145	n/a	n/a	0	0	0
2824767	WORD	wordpools/wasnorm_wordpool_576.txt	LTP290	ltpFR2	8	14	JUNGLE	764	n/a	n/a	0	0	0
2827480	WORD	wordpools/wasnorm_wordpool_576.txt	LTP290	ltpFR2	8	14	COUNTRY	388	n/a	n/a	0	0	0
2830109	WORD	wordpools/wasnorm_wordpool_576.txt	LTP290	ltpFR2	8	14	TRACTOR	1493	n/a	n/a	0	0	0
2832605	WORD	wordpools/wasnorm_wordpool_576.txt	LTP290	ltpFR2	8	14	TEACHER	1440	n/a	n/a	0	0	0
2835035	WORD	wordpools/wasnorm_wordpool_576.txt	LTP290	ltpFR2	8	14	BUGGY	188	n/a	n/a	0	0	0
2837781	WORD	wordpools/wasnorm_wordpool_576.txt	LTP290	ltpFR2	8	14	CARRIAGE	248	n/a	n/a	0	0	0
2840361	WORD	wordpools/wasnorm_wordpool_576.txt	LTP290	ltpFR2	8	14	SPOUSE	1358	n/a	n/a	0	0	0
2842956	WORD	wordpools/wasnorm_wordpool_576.txt	LTP290	ltpFR2	8	14	JEANS	752	n/a	n/a	0	0	0
2845602	WORD	wordpools/wasnorm_wordpool_576.txt	LTP290	ltpFR2	8	14	STUDENT	1395	n/a	n/a	0	0	0
2848283	WORD	wordpools/wasnorm_wordpool_576.txt	LTP290	ltpFR2	8	14	OINTMENT	974	n/a	n/a	0	0	0
2850994	WORD	wordpools/wasnorm_wordpool_576.txt	LTP290	ltpFR2	8	14	EYELASH	546	n/a	n/a	0	0	0
2853425	WORD	wordpools/wasnorm_wordpool_576.txt	LTP290	ltpFR2	8	14	VIRUS	1572	n/a	n/a	0	0	0
2855920	WORD	wordpools/wasnorm_wordpool_576.txt	LTP290	ltpFR2	8	14	CHAMPAGNE	278	n/a	n/a	0	0	0
2858566	WORD	wordpools/wasnorm_wordpool_576.txt	LTP290	ltpFR2	8	14	PENGUIN	1044	n/a	n/a	0	0	0
2861380	WORD	wordpools/wasnorm_wordpool_576.txt	LTP290	ltpFR2	8	14	FINGER	567	n/a	n/a	0	0	0
2862993	START	n/a	LTP290	ltpFR2	8	n/a	n/a	n/a	18	n/a	n/a	n/a	n/a
2863921	DISTRACTOR	n/a	LTP290	ltpFR2	8	14	n/a	n/a	n/a	n/a	0	0	0
2863925	PROB	n/a	LTP290	ltpFR2	8	n/a	n/a	n/a	18	11	6	2	3
2865689	PROB	n/a	LTP290	ltpFR2	8	n/a	n/a	n/a	18	10	1	7	2
2867187	PROB	n/a	LTP290	ltpFR2	8	n/a	n/a	n/a	18	17	8	1	8
2868751	PROB	n/a	LTP290	ltpFR2	8	n/a	n/a	n/a	18	18	6	7	5
2870216	PROB	n/a	LTP290	ltpFR2	8	n/a	n/a	n/a	18	5	1	3	1
2871348	PROB	n/a	LTP290	ltpFR2	8	n/a	n/a	n/a	18	15	5	3	7
2872945	PROB	n/a	LTP290	ltpFR2	8	n/a	n/a	n/a	18	21	5	9	7
2874576	PROB	n/a	LTP290	ltpFR2	8	n/a	n/a	n/a	18	18	7	6	5
2876057	PROB	n/a	LTP290	ltpFR2	8	n/a	n/a	n/a	18	15	4	7	4
2878338	PROB	n/a	LTP290	ltpFR2	8	n/a	n/a	n/a	18	16	3	8	5
2879635	PROB	n/a	LTP290	ltpFR2	8	n/a	n/a	n/a	18	12	4	6	2
2882581	PROB	n/a	LTP290	ltpFR2	8	n/a	n/a	n/a	18	19	4	9	6
2884396	PROB	n/a	LTP290	ltpFR2	8	n/a	n/a	n/a	18	22	9	6	7
2886945	STOP	n/a	LTP290	ltpFR2	8	n/a	n/a	n/a	18	n/a	n/a	n/a	n/a
2888838	REC_START	n/a	LTP290	ltpFR2	8	14	n/a	n/a	n/a	n/a	0	0	0
2979487	DISTRACTOR	n/a	LTP290	ltpFR2	8	15	n/a	n/a	n/a	n/a	0	0	0
2979487	START	n/a	LTP290	ltpFR2	8	n/a	n/a	n/a	19	n/a	n/a	n/a	n/a
2979520	PROB	n/a	LTP290	ltpFR2	8	n/a	n/a	n/a	19	17	6	7	4
2981133	PROB	n/a	LTP290	ltpFR2	8	n/a	n/a	n/a	19	14	7	5	2
2982548	PROB	n/a	LTP290	ltpFR2	8	n/a	n/a	n/a	19	6	3	2	1
2983713	PROB	n/a	LTP290	ltpFR2	8	n/a	n/a	n/a	19	15	4	3	8
2985211	PROB	n/a	LTP290	ltpFR2	8	n/a	n/a	n/a	19	9	5	1	3
2987025	PROB	n/a	LTP290	ltpFR2	8	n/a	n/a	n/a	19	11	8	2	1
2988173	PROB	n/a	LTP290	ltpFR2	8	n/a	n/a	n/a	19	14	1	5	8
2989804	PROB	n/a	LTP290	ltpFR2	8	n/a	n/a	n/a	19	12	3	5	4
2991768	PROB	n/a	LTP290	ltpFR2	8	n/a	n/a	n/a	19	23	7	9	7
2993333	PROB	n/a	LTP290	ltpFR2	8	n/a	n/a	n/a	19	9	4	4	1
2994514	PROB	n/a	LTP290	ltpFR2	8	n/a	n/a	n/a	19	18	7	3	8
2996061	PROB	n/a	LTP290	ltpFR2	8	n/a	n/a	n/a	19	18	6	5	7
2998042	PROB	n/a	LTP290	ltpFR2	8	n/a	n/a	n/a	19	16	4	5	7
2999622	PROB	n/a	LTP290	ltpFR2	8	n/a	n/a	n/a	19	16	9	6	1
3003153	STOP	n/a	LTP290	ltpFR2	8	n/a	n/a	n/a	19	n/a	n/a	n/a	n/a
3004715	WORD	wordpools/wasnorm_wordpool_576.txt	LTP290	ltpFR2	8	15	WASP	1593	n/a	n/a	0	0	0
3007329	WORD	wordpools/wasnorm_wordpool_576.txt	LTP290	ltpFR2	8	15	COFFEE	341	n/a	n/a	0	0	0
3009774	WORD	wordpools/wasnorm_wordpool_576.txt	LTP290	ltpFR2	8	15	BALLOON	75	n/a	n/a	0	0	0
3012521	WORD	wordpools/wasnorm_wordpool_576.txt	LTP290	ltpFR2	8	15	NURSE	963	n/a	n/a	0	0	0
3015099	WORD	wordpools/wasnorm_wordpool_576.txt	LTP290	ltpFR2	8	15	STOMACH	1384	n/a	n/a	0	0	0
3017646	WORD	wordpools/wasnorm_wordpool_576.txt	LTP290	ltpFR2	8	15	SPONGE	1355	n/a	n/a	0	0	0
3020309	WORD	wordpools/wasnorm_wordpool_576.txt	LTP290	ltpFR2	8	15	BLACKBOARD	133	n/a	n/a	0	0	0
3022771	WORD	wordpools/wasnorm_wordpool_576.txt	LTP290	ltpFR2	8	15	ROOSTER	1209	n/a	n/a	0	0	0
3025550	WORD	wordpools/wasnorm_wordpool_576.txt	LTP290	ltpFR2	8	15	PEANUT	1032	n/a	n/a	0	0	0
3028297	WORD	wordpools/wasnorm_wordpool_576.txt	LTP290	ltpFR2	8	15	POPCORN	1104	n/a	n/a	0	0	0
3030793	WORD	wordpools/wasnorm_wordpool_576.txt	LTP290	ltpFR2	8	15	RATTLE	1170	n/a	n/a	0	0	0
3033340	WORD	wordpools/wasnorm_wordpool_576.txt	LTP290	ltpFR2	8	15	CELLAR	267	n/a	n/a	0	0	0
3035835	WORD	wordpools/wasnorm_wordpool_576.txt	LTP290	ltpFR2	8	15	TRANSPLANT	1496	n/a	n/a	0	0	0
3038581	WORD	wordpools/wasnorm_wordpool_576.txt	LTP290	ltpFR2	8	15	SPOOL	1356	n/a	n/a	0	0	0
3041144	WORD	wordpools/wasnorm_wordpool_576.txt	LTP290	ltpFR2	8	15	YARN	1631	n/a	n/a	0	0	0
3043657	WORD	wordpools/wasnorm_wordpool_576.txt	LTP290	ltpFR2	8	15	MATCH	878	n/a	n/a	0	0	0
3046136	WORD	wordpools/wasnorm_wordpool_576.txt	LTP290	ltpFR2	8	15	SHORTS	1293	n/a	n/a	0	0	0
3048649	WORD	wordpools/wasnorm_wordpool_576.txt	LTP290	ltpFR2	8	15	TYPIST	1532	n/a	n/a	0	0	0
3051112	WORD	wordpools/wasnorm_wordpool_576.txt	LTP290	ltpFR2	8	15	TURKEY	1520	n/a	n/a	0	0	0
3053858	WORD	wordpools/wasnorm_wordpool_576.txt	LTP290	ltpFR2	8	15	PARENT	1013	n/a	n/a	0	0	0
3056439	WORD	wordpools/wasnorm_wordpool_576.txt	LTP290	ltpFR2	8	15	CHILD	299	n/a	n/a	0	0	0
3058901	WORD	wordpools/wasnorm_wordpool_576.txt	LTP290	ltpFR2	8	15	SISTER	1312	n/a	n/a	0	0	0
3061563	WORD	wordpools/wasnorm_wordpool_576.txt	LTP290	ltpFR2	8	15	GARDEN	623	n/a	n/a	0	0	0
3064043	WORD	wordpools/wasnorm_wordpool_576.txt	LTP290	ltpFR2	8	15	COBRA	336	n/a	n/a	0	0	0
3065657	START	n/a	LTP290	ltpFR2	8	n/a	n/a	n/a	20	n/a	n/a	n/a	n/a
3066694	DISTRACTOR	n/a	LTP290	ltpFR2	8	15	n/a	n/a	n/a	n/a	0	0	0
3066706	PROB	n/a	LTP290	ltpFR2	8	n/a	n/a	n/a	20	16	4	9	3
3068736	PROB	n/a	LTP290	ltpFR2	8	n/a	n/a	n/a	20	22	8	6	8
3071383	PROB	n/a	LTP290	ltpFR2	8	n/a	n/a	n/a	20	14	7	1	6
3073878	PROB	n/a	LTP290	ltpFR2	8	n/a	n/a	n/a	20	16	6	7	3
3075510	PROB	n/a	LTP290	ltpFR2	8	n/a	n/a	n/a	20	20	2	9	9
3078306	PROB	n/a	LTP290	ltpFR2	8	n/a	n/a	n/a	20	20	9	6	5
3079603	PROB	n/a	LTP290	ltpFR2	8	n/a	n/a	n/a	20	10	3	4	3
3082765	PROB	n/a	LTP290	ltpFR2	8	n/a	n/a	n/a	20	17	1	7	9
3084662	PROB	n/a	LTP290	ltpFR2	8	n/a	n/a	n/a	20	8	4	2	2
3086411	PROB	n/a	LTP290	ltpFR2	8	n/a	n/a	n/a	20	23	8	7	8
3087941	PROB	n/a	LTP290	ltpFR2	8	n/a	n/a	n/a	20	16	2	8	6
3089209	STOP	n/a	LTP290	ltpFR2	8	n/a	n/a	n/a	20	n/a	n/a	n/a	n/a
3091553	REC_START	n/a	LTP290	ltpFR2	8	15	n/a	n/a	n/a	n/a	0	0	0
3138578	REC_WORD_VV	wordpools/wasnorm_wordpool_576.txt	LTP290	ltpFR2	8	15	<>	-1	n/a	n/a	0	0	0
3182200	DISTRACTOR	n/a	LTP290	ltpFR2	8	16	n/a	n/a	n/a	n/a	0	0	0
3182200	START	n/a	LTP290	ltpFR2	8	n/a	n/a	n/a	21	n/a	n/a	n/a	n/a
3182233	PROB	n/a	LTP290	ltpFR2	8	n/a	n/a	n/a	21	18	8	3	7
3183482	PROB	n/a	LTP290	ltpFR2	8	n/a	n/a	n/a	21	10	4	3	3
3184846	PROB	n/a	LTP290	ltpFR2	8	n/a	n/a	n/a	21	16	5	2	9
3186395	PROB	n/a	LTP290	ltpFR2	8	n/a	n/a	n/a	21	12	1	8	3
3187725	PROB	n/a	LTP290	ltpFR2	8	n/a	n/a	n/a	21	22	6	8	8
3189307	PROB	n/a	LTP290	ltpFR2	8	n/a	n/a	n/a	21	24	6	9	9
3191470	PROB	n/a	LTP290	ltpFR2	8	n/a	n/a	n/a	21	23	8	6	9
3194748	PROB	n/a	LTP290	ltpFR2	8	n/a	n/a	n/a	21	20	8	4	8
3197111	PROB	n/a	LTP290	ltpFR2	8	n/a	n/a	n/a	21	18	8	5	5
3198360	PROB	n/a	LTP290	ltpFR2	8	n/a	n/a	n/a	21	13	5	6	2
3200223	PROB	n/a	LTP290	ltpFR2	8	n/a	n/a	n/a	21	22	9	5	8
3201604	PROB	n/a	LTP290	ltpFR2	8	n/a	n/a	n/a	21	14	4	8	2
3203119	PROB	n/a	LTP290	ltpFR2	8	n/a	n/a	n/a	21	12	1	7	4
3204889	STOP	n/a	LTP290	ltpFR2	8	n/a	n/a	n/a	21	n/a	n/a	n/a	n/a
3207129	WORD	wordpools/wasnorm_wordpool_576.txt	LTP290	ltpFR2	8	16	PUPIL	1143	n/a	n/a	0	0	0
3209875	WORD	wordpools/wasnorm_wordpool_576.txt	LTP290	ltpFR2	8	16	SCOTCH	1251	n/a	n/a	0	0	0
3212638	WORD	wordpools/wasnorm_wordpool_576.txt	LTP290	ltpFR2	8	16	DRINK	498	n/a	n/a	0	0	0
3215201	WORD	wordpools/wasnorm_wordpool_576.txt	LTP290	ltpFR2	8	16	PIZZA	1079	n/a	n/a	0	0	0
3217680	WORD	wordpools/wasnorm_wordpool_576.txt	LTP290	ltpFR2	8	16	PICNIC	1060	n/a	n/a	0	0	0
3220377	WORD	wordpools/wasnorm_wordpool_576.txt	LTP290	ltpFR2	8	16	BOX	159	n/a	n/a	0	0	0
3222889	WORD	wordpools/wasnorm_wordpool_576.txt	LTP290	ltpFR2	8	16	APRON	35	n/a	n/a	0	0	0
3225470	WORD	wordpools/wasnorm_wordpool_576.txt	LTP290	ltpFR2	8	16	SURVEY	1414	n/a	n/a	0	0	0
3228215	WORD	wordpools/wasnorm_wordpool_576.txt	LTP290	ltpFR2	8	16	DRESSER	496	n/a	n/a	0	0	0
3230844	WORD	wordpools/wasnorm_wordpool_576.txt	LTP290	ltpFR2	8	16	NOVEL	960	n/a	n/a	0	0	0
3233508	WORD	wordpools/wasnorm_wordpool_576.txt	LTP290	ltpFR2	8	16	STAR	1373	n/a	n/a	0	0	0
3236186	WORD	wordpools/wasnorm_wordpool_576.txt	LTP290	ltpFR2	8	16	SPACE	1345	n/a	n/a	0	0	0
3238915	WORD	wordpools/wasnorm_wordpool_576.txt	LTP290	ltpFR2	8	16	GIFT	635	n/a	n/a	0	0	0
3241479	WORD	wordpools/wasnorm_wordpool_576.txt	LTP290	ltpFR2	8	16	DRUG	501	n/a	n/a	0	0	0
3244257	WORD	wordpools/wasnorm_wordpool_576.txt	LTP290	ltpFR2	8	16	BUNNY	198	n/a	n/a	0	0	0
3246754	WORD	wordpools/wasnorm_wordpool_576.txt	LTP290	ltpFR2	8	16	TRENCH	1503	n/a	n/a	0	0	0
3249217	WORD	wordpools/wasnorm_wordpool_576.txt	LTP290	ltpFR2	8	16	LAKE	796	n/a	n/a	0	0	0
3251779	WORD	wordpools/wasnorm_wordpool_576.txt	LTP290	ltpFR2	8	16	CUPBOARD	425	n/a	n/a	0	0	0
3254575	WORD	wordpools/wasnorm_wordpool_576.txt	LTP290	ltpFR2	8	16	BANQUET	86	n/a	n/a	0	0	0
3257005	WORD	wordpools/wasnorm_wordpool_576.txt	LTP290	ltpFR2	8	16	CRITIC	410	n/a	n/a	0	0	0
3259618	WORD	wordpools/wasnorm_wordpool_576.txt	LTP290	ltpFR2	8	16	ICEBERG	731	n/a	n/a	0	0	0
3262181	WORD	wordpools/wasnorm_wordpool_576.txt	LTP290	ltpFR2	8	16	BLOUSE	139	n/a	n/a	0	0	0
3264793	WORD	wordpools/wasnorm_wordpool_576.txt	LTP290	ltpFR2	8	16	LAGOON	795	n/a	n/a	0	0	0
3267223	WORD	wordpools/wasnorm_wordpool_576.txt	LTP290	ltpFR2	8	16	BISON	131	n/a	n/a	0	0	0
3268838	START	n/a	LTP290	ltpFR2	8	n/a	n/a	n/a	22	n/a	n/a	n/a	n/a
3269834	DISTRACTOR	n/a	LTP290	ltpFR2	8	16	n/a	n/a	n/a	n/a	0	0	0
3269836	PROB	n/a	LTP290	ltpFR2	8	n/a	n/a	n/a	22	15	2	7	6
3272082	PROB	n/a	LTP290	ltpFR2	8	n/a	n/a	n/a	22	19	7	6	6
3273813	PROB	n/a	LTP290	ltpFR2	8	n/a	n/a	n/a	22	9	1	1	7
3275028	PROB	n/a	LTP290	ltpFR2	8	n/a	n/a	n/a	22	21	7	7	7
3276576	PROB	n/a	LTP290	ltpFR2	8	n/a	n/a	n/a	22	20	6	5	9
3278040	PROB	n/a	LTP290	ltpFR2	8	n/a	n/a	n/a	22	21	5	9	7
3279522	PROB	n/a	LTP290	ltpFR2	8	n/a	n/a	n/a	22	6	2	1	3
3281069	PROB	n/a	LTP290	ltpFR2	8	n/a	n/a	n/a	22	11	3	7	1
3282251	PROB	n/a	LTP290	ltpFR2	8	n/a	n/a	n/a	22	21	7	5	9
3283715	PROB	n/a	LTP290	ltpFR2	8	n/a	n/a	n/a	22	7	1	5	1
3284813	PROB	n/a	LTP290	ltpFR2	8	n/a	n/a	n/a	22	12	8	2	2
3285962	PROB	n/a	LTP290	ltpFR2	8	n/a	n/a	n/a	22	7	1	5	1
3287027	PROB	n/a	LTP290	ltpFR2	8	n/a	n/a	n/a	22	11	2	4	5
3288541	PROB	n/a	LTP290	ltpFR2	8	n/a	n/a	n/a	22	16	2	6	8
3289906	PROB	n/a	LTP290	ltpFR2	8	n/a	n/a	n/a	22	17	4	9	4
3292073	STOP	n/a	LTP290	ltpFR2	8	n/a	n/a	n/a	22	n/a	n/a	n/a	n/a
3294799	REC_START	n/a	LTP290	ltpFR2	8	16	n/a	n/a	n/a	n/a	0	0	0
3295832	REC_WORD	wordpools/wasnorm_wordpool_576.txt	LTP290	ltpFR2	8	16	BUNNY	198	n/a	n/a	0	0	0
3296438	REC_WORD	wordpools/wasnorm_wordpool_576.txt	LTP290	ltpFR2	8	16	TRENCH	1503	n/a	n/a	0	0	0
3297674	REC_WORD	wordpools/wasnorm_wordpool_576.txt	LTP290	ltpFR2	8	16	BISON	131	n/a	n/a	0	0	0
3371418	REST_REWET	n/a	LTP290	ltpFR2	8	16	n/a	n/a	n/a	n/a	0	0	0
3735158	DISTRACTOR	n/a	LTP290	ltpFR2	8	17	n/a	n/a	n/a	n/a	0	0	0
3735158	START	n/a	LTP290	ltpFR2	8	n/a	n/a	n/a	23	n/a	n/a	n/a	n/a
3735191	PROB	n/a	LTP290	ltpFR2	8	n/a	n/a	n/a	23	11	1	3	7
3736706	PROB	n/a	LTP290	ltpFR2	8	n/a	n/a	n/a	23	13	6	1	6
3738454	PROB	n/a	LTP290	ltpFR2	8	n/a	n/a	n/a	23	8	6	1	1
3739917	PROB	n/a	LTP290	ltpFR2	8	n/a	n/a	n/a	23	18	9	1	8
3741532	PROB	n/a	LTP290	ltpFR2	8	n/a	n/a	n/a	23	16	6	2	8
3742980	PROB	n/a	LTP290	ltpFR2	8	n/a	n/a	n/a	23	16	2	7	7
3744544	PROB	n/a	LTP290	ltpFR2	8	n/a	n/a	n/a	23	16	2	7	7
3745626	PROB	n/a	LTP290	ltpFR2	8	n/a	n/a	n/a	23	19	9	6	4
3747057	PROB	n/a	LTP290	ltpFR2	8	n/a	n/a	n/a	23	22	9	9	4
3748339	PROB	n/a	LTP290	ltpFR2	8	n/a	n/a	n/a	23	19	8	7	4
3751484	PROB	n/a	LTP290	ltpFR2	8	n/a	n/a	n/a	23	10	4	2	4
3752815	PROB	n/a	LTP290	ltpFR2	8	n/a	n/a	n/a	23	19	6	6	7
3754397	PROB	n/a	LTP290	ltpFR2	8	n/a	n/a	n/a	23	17	7	5	5
3756344	PROB	n/a	LTP290	ltpFR2	8	n/a	n/a	n/a	23	15	4	8	3
3757649	STOP	n/a	LTP290	ltpFR2	8	n/a	n/a	n/a	23	n/a	n/a	n/a	n/a
3760270	WORD	wordpools/wasnorm_wordpool_576.txt	LTP290	ltpFR2	8	17	HONEY	713	n/a	n/a	0	0	0
3762700	WORD	wordpools/wasnorm_wordpool_576.txt	LTP290	ltpFR2	8	17	MISTER	901	n/a	n/a	0	0	0
3765380	WORD	wordpools/wasnorm_wordpool_576.txt	LTP290	ltpFR2	8	17	APPLE	33	n/a	n/a	0	0	0
3768059	WORD	wordpools/wasnorm_wordpool_576.txt	LTP290	ltpFR2	8	17	UNCLE	1536	n/a	n/a	0	0	0
3770771	WORD	wordpools/wasnorm_wordpool_576.txt	LTP290	ltpFR2	8	17	STAMP	1370	n/a	n/a	0	0	0
3773468	WORD	wordpools/wasnorm_wordpool_576.txt	LTP290	ltpFR2	8	17	COTTAGE	384	n/a	n/a	0	0	0
3776213	WORD	wordpools/wasnorm_wordpool_576.txt	LTP290	ltpFR2	8	17	RUG	1215	n/a	n/a	0	0	0
3778776	WORD	wordpools/wasnorm_wordpool_576.txt	LTP290	ltpFR2	8	17	GROUND	666	n/a	n/a	0	0	0
3781506	WORD	wordpools/wasnorm_wordpool_576.txt	LTP290	ltpFR2	8	17	SKILLET	1317	n/a	n/a	0	0	0
3783985	WORD	wordpools/wasnorm_wordpool_576.txt	LTP290	ltpFR2	8	17	SCISSORS	1250	n/a	n/a	0	0	0
3786781	WORD	wordpools/wasnorm_wordpool_576.txt	LTP290	ltpFR2	8	17	BANJO	82	n/a	n/a	0	0	0
3789577	WORD	wordpools/wasnorm_wordpool_576.txt	LTP290	ltpFR2	8	17	GOBLIN	645	n/a	n/a	0	0	0
3792307	WORD	wordpools/wasnorm_wordpool_576.txt	LTP290	ltpFR2	8	17	PIANO	1057	n/a	n/a	0	0	0
3795035	WORD	wordpools/wasnorm_wordpool_576.txt	LTP290	ltpFR2	8	17	PEACH	1031	n/a	n/a	0	0	0
3797714	WORD	wordpools/wasnorm_wordpool_576.txt	LTP290	ltpFR2	8	17	SHORTCAKE	1292	n/a	n/a	0	0	0
3800511	WORD	wordpools/wasnorm_wordpool_576.txt	LTP290	ltpFR2	8	17	LIVER	833	n/a	n/a	0	0	0
3803240	WORD	wordpools/wasnorm_wordpool_576.txt	LTP290	ltpFR2	8	17	SLIME	1327	n/a	n/a	0	0	0
3805753	WORD	wordpools/wasnorm_wordpool_576.txt	LTP290	ltpFR2	8	17	NOMAD	955	n/a	n/a	0	0	0
3808300	WORD	wordpools/wasnorm_wordpool_576.txt	LTP290	ltpFR2	8	17	REPORT	1184	n/a	n/a	0	0	0
3810845	WORD	wordpools/wasnorm_wordpool_576.txt	LTP290	ltpFR2	8	17	COUSIN	392	n/a	n/a	0	0	0
3813591	WORD	wordpools/wasnorm_wordpool_576.txt	LTP290	ltpFR2	8	17	SHOULDER	1294	n/a	n/a	0	0	0
3816054	WORD	wordpools/wasnorm_wordpool_576.txt	LTP290	ltpFR2	8	17	HAND	683	n/a	n/a	0	0	0
3818567	WORD	wordpools/wasnorm_wordpool_576.txt	LTP290	ltpFR2	8	17	EGYPT	519	n/a	n/a	0	0	0
3821046	WORD	wordpools/wasnorm_wordpool_576.txt	LTP290	ltpFR2	8	17	OX	994	n/a	n/a	0	0	0
3822661	START	n/a	LTP290	ltpFR2	8	n/a	n/a	n/a	24	n/a	n/a	n/a	n/a
3823507	DISTRACTOR	n/a	LTP290	ltpFR2	8	17	n/a	n/a	n/a	n/a	0	0	0
3823510	PROB	n/a	LTP290	ltpFR2	8	n/a	n/a	n/a	24	8	1	5	2
3825773	PROB	n/a	LTP290	ltpFR2	8	n/a	n/a	n/a	24	7	3	3	1
3827087	PROB	n/a	LTP290	ltpFR2	8	n/a	n/a	n/a	24	19	7	7	5
3828453	PROB	n/a	LTP290	ltpFR2	8	n/a	n/a	n/a	24	23	6	8	9
3830467	PROB	n/a	LTP290	ltpFR2	8	n/a	n/a	n/a	24	6	2	3	1
3831997	PROB	n/a	LTP290	ltpFR2	8	n/a	n/a	n/a	24	10	4	3	3
3833495	PROB	n/a	LTP290	ltpFR2	8	n/a	n/a	n/a	24	8	2	2	4
3835443	PROB	n/a	LTP290	ltpFR2	8	n/a	n/a	n/a	24	14	6	7	1
3837189	PROB	n/a	LTP290	ltpFR2	8	n/a	n/a	n/a	24	14	9	1	4
3839818	PROB	n/a	LTP290	ltpFR2	8	n/a	n/a	n/a	24	13	4	3	6
3841400	PROB	n/a	LTP290	ltpFR2	8	n/a	n/a	n/a	24	16	5	9	2
3842747	PROB	n/a	LTP290	ltpFR2	8	n/a	n/a	n/a	24	8	1	3	4
3844496	PROB	n/a	LTP290	ltpFR2	8	n/a	n/a	n/a	24	16	6	6	4
3846009	STOP	n/a	LTP290	ltpFR2	8	n/a	n/a	n/a	24	n/a	n/a	n/a	n/a
3848524	REC_START	n/a	LTP290	ltpFR2	8	17	n/a	n/a	n/a	n/a	0	0	0
3865781	REC_WORD	wordpools/wasnorm_wordpool_576.txt	LTP290	ltpFR2	8	17	SLIME	1327	n/a	n/a	0	0	0
3939187	WORD	wordpools/wasnorm_wordpool_576.txt	LTP290	ltpFR2	8	18	FRIEND	606	n/a	n/a	0	0	0
3941949	WORD	wordpools/wasnorm_wordpool_576.txt	LTP290	ltpFR2	8	18	LADDER	793	n/a	n/a	0	0	0
3944662	WORD	wordpools/wasnorm_wordpool_576.txt	LTP290	ltpFR2	8	18	CRAB	397	n/a	n/a	0	0	0
3947475	WORD	wordpools/wasnorm_wordpool_576.txt	LTP290	ltpFR2	8	18	DIVER	476	n/a	n/a	0	0	0
3950237	WORD	wordpools/wasnorm_wordpool_576.txt	LTP290	ltpFR2	8	18	SWIMMER	1420	n/a	n/a	0	0	0
3952766	WORD	wordpools/wasnorm_wordpool_576.txt	LTP290	ltpFR2	8	18	CURTAIN	427	n/a	n/a	0	0	0
3955280	WORD	wordpools/wasnorm_wordpool_576.txt	LTP290	ltpFR2	8	18	WORLD	1622	n/a	n/a	0	0	0
3957792	WORD	wordpools/wasnorm_wordpool_576.txt	LTP290	ltpFR2	8	18	BRACES	164	n/a	n/a	0	0	0
3960406	WORD	wordpools/wasnorm_wordpool_576.txt	LTP290	ltpFR2	8	18	DRIVER	499	n/a	n/a	0	0	0
3963018	WORD	wordpools/wasnorm_wordpool_576.txt	LTP290	ltpFR2	8	18	HANDBAG	684	n/a	n/a	0	0	0
3965631	WORD	wordpools/wasnorm_wordpool_576.txt	LTP290	ltpFR2	8	18	MONEY	908	n/a	n/a	0	0	0
3968311	WORD	wordpools/wasnorm_wordpool_576.txt	LTP290	ltpFR2	8	18	TUNNEL	1519	n/a	n/a	0	0	0
3971072	WORD	wordpools/wasnorm_wordpool_576.txt	LTP290	ltpFR2	8	18	XEROX	1628	n/a	n/a	0	0	0
3973619	WORD	wordpools/wasnorm_wordpool_576.txt	LTP290	ltpFR2	8	18	SNACK	1331	n/a	n/a	0	0	0
3976399	WORD	wordpools/wasnorm_wordpool_576.txt	LTP290	ltpFR2	8	18	FLASHLIGHT	575	n/a	n/a	0	0	0
3979027	WORD	wordpools/wasnorm_wordpool_576.txt	LTP290	ltpFR2	8	18	DENTIST	447	n/a	n/a	0	0	0
3981508	WORD	wordpools/wasnorm_wordpool_576.txt	LTP290	ltpFR2	8	18	CLOTHES	327	n/a	n/a	0	0	0
3984086	WORD	wordpools/wasnorm_wordpool_576.txt	LTP290	ltpFR2	8	18	BUREAU	199	n/a	n/a	0	0	0
3986766	WORD	wordpools/wasnorm_wordpool_576.txt	LTP290	ltpFR2	8	18	CLAMP	316	n/a	n/a	0	0	0
3989379	WORD	wordpools/wasnorm_wordpool_576.txt	LTP290	ltpFR2	8	18	CONTRACT	368	n/a	n/a	0	0	0
3992108	WORD	wordpools/wasnorm_wordpool_576.txt	LTP290	ltpFR2	8	18	ICING	732	n/a	n/a	0	0	0
3994604	WORD	wordpools/wasnorm_wordpool_576.txt	LTP290	ltpFR2	8	18	PEDAL	1037	n/a	n/a	0	0	0
3997351	WORD	wordpools/wasnorm_wordpool_576.txt	LTP290	ltpFR2	8	18	LUGGAGE	847	n/a	n/a	0	0	0
3999996	WORD	wordpools/wasnorm_wordpool_576.txt	LTP290	ltpFR2	8	18	BUBBLE	183	n/a	n/a	0	0	0
4001610	START	n/a	LTP290	ltpFR2	8	n/a	n/a	n/a	25	n/a	n/a	n/a	n/a
4002754	DISTRACTOR	n/a	LTP290	ltpFR2	8	18	n/a	n/a	n/a	n/a	0	0	0
4002758	PROB	n/a	LTP290	ltpFR2	8	n/a	n/a	n/a	25	18	8	3	7
4004173	PROB	n/a	LTP290	ltpFR2	8	n/a	n/a	n/a	25	14	9	2	3
4006304	PROB	n/a	LTP290	ltpFR2	8	n/a	n/a	n/a	25	13	5	4	4
4008134	PROB	n/a	LTP290	ltpFR2	8	n/a	n/a	n/a	25	10	3	5	2
4009781	PROB	n/a	LTP290	ltpFR2	8	n/a	n/a	n/a	25	14	7	5	2
4011262	PROB	n/a	LTP290	ltpFR2	8	n/a	n/a	n/a	25	19	6	6	7
4013908	PROB	n/a	LTP290	ltpFR2	8	n/a	n/a	n/a	25	16	8	1	7
4015639	PROB	n/a	LTP290	ltpFR2	8	n/a	n/a	n/a	25	16	5	3	8
4017054	PROB	n/a	LTP290	ltpFR2	8	n/a	n/a	n/a	25	14	5	5	4
4018252	PROB	n/a	LTP290	ltpFR2	8	n/a	n/a	n/a	25	14	7	4	3
4019583	PROB	n/a	LTP290	ltpFR2	8	n/a	n/a	n/a	25	18	2	7	9
4021181	PROB	n/a	LTP290	ltpFR2	8	n/a	n/a	n/a	25	17	9	3	5
4022745	PROB	n/a	LTP290	ltpFR2	8	n/a	n/a	n/a	25	17	5	4	8
4024362	STOP	n/a	LTP290	ltpFR2	8	n/a	n/a	n/a	25	n/a	n/a	n/a	n/a
4027539	REC_START	n/a	LTP290	ltpFR2	8	18	n/a	n/a	n/a	n/a	0	0	0
4033040	REC_WORD	wordpools/wasnorm_wordpool_576.txt	LTP290	ltpFR2	8	18	FRIEND	606	n/a	n/a	0	0	0
4033806	REC_WORD	wordpools/wasnorm_wordpool_576.txt	LTP290	ltpFR2	8	18	LADDER	793	n/a	n/a	0	0	0
4034569	REC_WORD	wordpools/wasnorm_wordpool_576.txt	LTP290	ltpFR2	8	18	CRAB	397	n/a	n/a	0	0	0
4035381	REC_WORD	wordpools/wasnorm_wordpool_576.txt	LTP290	ltpFR2	8	18	DIVER	476	n/a	n/a	0	0	0
4035969	REC_WORD	wordpools/wasnorm_wordpool_576.txt	LTP290	ltpFR2	8	18	SWIMMER	1420	n/a	n/a	0	0	0
4037524	REC_WORD	wordpools/wasnorm_wordpool_576.txt	LTP290	ltpFR2	8	18	CURTAIN	427	n/a	n/a	0	0	0
4038339	REC_WORD	wordpools/wasnorm_wordpool_576.txt	LTP290	ltpFR2	8	18	WORLD	1622	n/a	n/a	0	0	0
4047296	REC_WORD	wordpools/wasnorm_wordpool_576.txt	LTP290	ltpFR2	8	18	BRACES	164	n/a	n/a	0	0	0
4048077	REC_WORD	wordpools/wasnorm_wordpool_576.txt	LTP290	ltpFR2	8	18	DRIVER	499	n/a	n/a	0	0	0
4055425	REC_WORD	wordpools/wasnorm_wordpool_576.txt	LTP290	ltpFR2	8	18	TUNNEL	1519	n/a	n/a	0	0	0
4056065	REC_WORD	wordpools/wasnorm_wordpool_576.txt	LTP290	ltpFR2	8	18	XEROX	1628	n/a	n/a	0	0	0
4059105	REC_WORD	wordpools/wasnorm_wordpool_576.txt	LTP290	ltpFR2	8	18	CLAMP	316	n/a	n/a	0	0	0
4059686	REC_WORD	wordpools/wasnorm_wordpool_576.txt	LTP290	ltpFR2	8	18	CONTRACT	368	n/a	n/a	0	0	0
4060566	REC_WORD	wordpools/wasnorm_wordpool_576.txt	LTP290	ltpFR2	8	18	BUREAU	199	n/a	n/a	0	0	0
4062621	REC_WORD	wordpools/wasnorm_wordpool_576.txt	LTP290	ltpFR2	8	18	ICING	732	n/a	n/a	0	0	0
4064061	REC_WORD	wordpools/wasnorm_wordpool_576.txt	LTP290	ltpFR2	8	18	PEDAL	1037	n/a	n/a	0	0	0
4066818	REC_WORD	wordpools/wasnorm_wordpool_576.txt	LTP290	ltpFR2	8	18	DENTIST	447	n/a	n/a	0	0	0
4069241	REC_WORD	wordpools/wasnorm_wordpool_576.txt	LTP290	ltpFR2	8	18	CLOTHES	327	n/a	n/a	0	0	0
4069976	REC_WORD	wordpools/wasnorm_wordpool_576.txt	LTP290	ltpFR2	8	18	LUGGAGE	847	n/a	n/a	0	0	0
4072013	REC_WORD	wordpools/wasnorm_wordpool_576.txt	LTP290	ltpFR2	8	18	BUBBLE	183	n/a	n/a	0	0	0
4118219	WORD	wordpools/wasnorm_wordpool_576.txt	LTP290	ltpFR2	8	19	TAXI	1438	n/a	n/a	0	0	0
4120965	WORD	wordpools/wasnorm_wordpool_576.txt	LTP290	ltpFR2	8	19	BRAKE	166	n/a	n/a	0	0	0
4123512	WORD	wordpools/wasnorm_wordpool_576.txt	LTP290	ltpFR2	8	19	DANCER	437	n/a	n/a	0	0	0
4126058	WORD	wordpools/wasnorm_wordpool_576.txt	LTP290	ltpFR2	8	19	CITRUS	313	n/a	n/a	0	0	0
4128754	WORD	wordpools/wasnorm_wordpool_576.txt	LTP290	ltpFR2	8	19	PAIL	1002	n/a	n/a	0	0	0
4131434	WORD	wordpools/wasnorm_wordpool_576.txt	LTP290	ltpFR2	8	19	EXPERT	543	n/a	n/a	0	0	0
4134046	WORD	wordpools/wasnorm_wordpool_576.txt	LTP290	ltpFR2	8	19	LETTUCE	814	n/a	n/a	0	0	0
4136675	WORD	wordpools/wasnorm_wordpool_576.txt	LTP290	ltpFR2	8	19	RUST	1219	n/a	n/a	0	0	0
4139322	WORD	wordpools/wasnorm_wordpool_576.txt	LTP290	ltpFR2	8	19	ASIA	46	n/a	n/a	0	0	0
4141984	WORD	wordpools/wasnorm_wordpool_576.txt	LTP290	ltpFR2	8	19	LIPSTICK	829	n/a	n/a	0	0	0
4144663	WORD	wordpools/wasnorm_wordpool_576.txt	LTP290	ltpFR2	8	19	GRIZZLY	662	n/a	n/a	0	0	0
4147276	WORD	wordpools/wasnorm_wordpool_576.txt	LTP290	ltpFR2	8	19	GRAPE	654	n/a	n/a	0	0	0
4149972	WORD	wordpools/wasnorm_wordpool_576.txt	LTP290	ltpFR2	8	19	SWAMP	1416	n/a	n/a	0	0	0
4152535	WORD	wordpools/wasnorm_wordpool_576.txt	LTP290	ltpFR2	8	19	GANGSTER	620	n/a	n/a	0	0	0
4155315	WORD	wordpools/wasnorm_wordpool_576.txt	LTP290	ltpFR2	8	19	PRINCESS	1125	n/a	n/a	0	0	0
4157943	WORD	wordpools/wasnorm_wordpool_576.txt	LTP290	ltpFR2	8	19	TROUT	1511	n/a	n/a	0	0	0
4160673	WORD	wordpools/wasnorm_wordpool_576.txt	LTP290	ltpFR2	8	19	SILK	1307	n/a	n/a	0	0	0
4163152	WORD	wordpools/wasnorm_wordpool_576.txt	LTP290	ltpFR2	8	19	DINER	467	n/a	n/a	0	0	0
4165815	WORD	wordpools/wasnorm_wordpool_576.txt	LTP290	ltpFR2	8	19	RADISH	1158	n/a	n/a	0	0	0
4168296	WORD	wordpools/wasnorm_wordpool_576.txt	LTP290	ltpFR2	8	19	SUPPER	1411	n/a	n/a	0	0	0
4170874	WORD	wordpools/wasnorm_wordpool_576.txt	LTP290	ltpFR2	8	19	COOKBOOK	373	n/a	n/a	0	0	0
4173321	WORD	wordpools/wasnorm_wordpool_576.txt	LTP290	ltpFR2	8	19	VELVET	1555	n/a	n/a	0	0	0
4176033	WORD	wordpools/wasnorm_wordpool_576.txt	LTP290	ltpFR2	8	19	DASHBOARD	441	n/a	n/a	0	0	0
4178829	WORD	wordpools/wasnorm_wordpool_576.txt	LTP290	ltpFR2	8	19	PRINCE	1124	n/a	n/a	0	0	0
4180444	START	n/a	LTP290	ltpFR2	8	n/a	n/a	n/a	26	n/a	n/a	n/a	n/a
4181259	DISTRACTOR	n/a	LTP290	ltpFR2	8	19	n/a	n/a	n/a	n/a	0	0	0
4181275	PROB	n/a	LTP290	ltpFR2	8	n/a	n/a	n/a	26	14	8	2	4
4182690	PROB	n/a	LTP290	ltpFR2	8	n/a	n/a	n/a	26	18	5	6	7
4184322	PROB	n/a	LTP290	ltpFR2	8	n/a	n/a	n/a	26	14	9	2	3
4185619	PROB	n/a	LTP290	ltpFR2	8	n/a	n/a	n/a	26	23	8	6	9
4190528	PROB	n/a	LTP290	ltpFR2	8	n/a	n/a	n/a	26	7	3	1	3
4191826	PROB	n/a	LTP290	ltpFR2	8	n/a	n/a	n/a	26	17	7	2	8
4193956	PROB	n/a	LTP290	ltpFR2	8	n/a	n/a	n/a	26	19	9	6	4
4196087	PROB	n/a	LTP290	ltpFR2	8	n/a	n/a	n/a	26	16	5	7	4
4197568	PROB	n/a	LTP290	ltpFR2	8	n/a	n/a	n/a	26	17	4	8	5
4199947	PROB	n/a	LTP290	ltpFR2	8	n/a	n/a	n/a	26	15	4	3	8
4201413	PROB	n/a	LTP290	ltpFR2	8	n/a	n/a	n/a	26	15	6	4	5
4202760	PROB	n/a	LTP290	ltpFR2	8	n/a	n/a	n/a	26	16	7	7	2
4204121	STOP	n/a	LTP290	ltpFR2	8	n/a	n/a	n/a	26	n/a	n/a	n/a	n/a
4206255	REC_START	n/a	LTP290	ltpFR2	8	19	n/a	n/a	n/a	n/a	0	0	0
4212468	REC_WORD	wordpools/wasnorm_wordpool_576.txt	LTP290	ltpFR2	8	19	TAXI	1438	n/a	n/a	0	0	0
4214414	REC_WORD	wordpools/wasnorm_wordpool_576.txt	LTP290	ltpFR2	8	19	DANCER	437	n/a	n/a	0	0	0
4217441	REC_WORD	wordpools/wasnorm_wordpool_576.txt	LTP290	ltpFR2	8	19	EXPERT	543	n/a	n/a	0	0	0
4218020	REC_WORD	wordpools/wasnorm_wordpool_576.txt	LTP290	ltpFR2	8	19	LETTUCE	814	n/a	n/a	0	0	0
4218988	REC_WORD	wordpools/wasnorm_wordpool_576.txt	LTP290	ltpFR2	8	19	RUST	1219	n/a	n/a	0	0	0
4219571	REC_WORD	wordpools/wasnorm_wordpool_576.txt	LTP290	ltpFR2	8	19	ASIA	46	n/a	n/a	0	0	0
4220200	REC_WORD	wordpools/wasnorm_wordpool_576.txt	LTP290	ltpFR2	8	19	GRIZZLY	662	n/a	n/a	0	0	0
4220785	REC_WORD	wordpools/wasnorm_wordpool_576.txt	LTP290	ltpFR2	8	19	GRAPE	654	n/a	n/a	0	0	0
4221310	REC_WORD_VV	wordpools/wasnorm_wordpool_576.txt	LTP290	ltpFR2	8	19	<>	-1	n/a	n/a	0	0	0
4225775	REC_WORD	wordpools/wasnorm_wordpool_576.txt	LTP290	ltpFR2	8	19	SWAMP	1416	n/a	n/a	0	0	0
4226633	REC_WORD	wordpools/wasnorm_wordpool_576.txt	LTP290	ltpFR2	8	19	GANGSTER	620	n/a	n/a	0	0	0
4228380	REC_WORD	wordpools/wasnorm_wordpool_576.txt	LTP290	ltpFR2	8	19	PRINCESS	1125	n/a	n/a	0	0	0
4229116	REC_WORD	wordpools/wasnorm_wordpool_576.txt	LTP290	ltpFR2	8	19	TROUT	1511	n/a	n/a	0	0	0
4232242	REC_WORD	wordpools/wasnorm_wordpool_576.txt	LTP290	ltpFR2	8	19	SILK	1307	n/a	n/a	0	0	0
4236243	REC_WORD	wordpools/wasnorm_wordpool_576.txt	LTP290	ltpFR2	8	19	DINER	467	n/a	n/a	0	0	0
4236677	REC_WORD	wordpools/wasnorm_wordpool_576.txt	LTP290	ltpFR2	8	19	SUPPER	1411	n/a	n/a	0	0	0
4237259	REC_WORD	wordpools/wasnorm_wordpool_576.txt	LTP290	ltpFR2	8	19	RADISH	1158	n/a	n/a	0	0	0
4237811	REC_WORD	wordpools/wasnorm_wordpool_576.txt	LTP290	ltpFR2	8	19	COOKBOOK	373	n/a	n/a	0	0	0
4247203	REC_WORD	wordpools/wasnorm_wordpool_576.txt	LTP290	ltpFR2	8	19	LIPSTICK	829	n/a	n/a	0	0	0
4260816	REC_WORD	wordpools/wasnorm_wordpool_576.txt	LTP290	ltpFR2	8	19	BRAKE	166	n/a	n/a	0	0	0
4296936	DISTRACTOR	n/a	LTP290	ltpFR2	8	20	n/a	n/a	n/a	n/a	0	0	0
4296936	START	n/a	LTP290	ltpFR2	8	n/a	n/a	n/a	27	n/a	n/a	n/a	n/a
4296969	PROB	n/a	LTP290	ltpFR2	8	n/a	n/a	n/a	27	20	8	7	5
4298933	PROB	n/a	LTP290	ltpFR2	8	n/a	n/a	n/a	27	24	6	9	9
4300997	PROB	n/a	LTP290	ltpFR2	8	n/a	n/a	n/a	27	10	2	7	1
4302128	PROB	n/a	LTP290	ltpFR2	8	n/a	n/a	n/a	27	14	5	5	4
4303294	PROB	n/a	LTP290	ltpFR2	8	n/a	n/a	n/a	27	21	9	9	2
4304974	PROB	n/a	LTP290	ltpFR2	8	n/a	n/a	n/a	27	13	2	9	2
4306888	PROB	n/a	LTP290	ltpFR2	8	n/a	n/a	n/a	27	15	3	3	9
4308153	PROB	n/a	LTP290	ltpFR2	8	n/a	n/a	n/a	27	7	1	4	2
4309435	PROB	n/a	LTP290	ltpFR2	8	n/a	n/a	n/a	27	10	5	2	3
4310715	PROB	n/a	LTP290	ltpFR2	8	n/a	n/a	n/a	27	19	3	9	8
4313462	PROB	n/a	LTP290	ltpFR2	8	n/a	n/a	n/a	27	16	4	6	4
4314876	PROB	n/a	LTP290	ltpFR2	8	n/a	n/a	n/a	27	12	5	6	1
4317189	PROB	n/a	LTP290	ltpFR2	8	n/a	n/a	n/a	27	20	7	6	7
4319136	PROB	n/a	LTP290	ltpFR2	8	n/a	n/a	n/a	27	18	4	5	9
4320633	STOP	n/a	LTP290	ltpFR2	8	n/a	n/a	n/a	27	n/a	n/a	n/a	n/a
4322098	WORD	wordpools/wasnorm_wordpool_576.txt	LTP290	ltpFR2	8	20	CLIMBER	323	n/a	n/a	0	0	0
4324528	WORD	wordpools/wasnorm_wordpool_576.txt	LTP290	ltpFR2	8	20	MISSILE	900	n/a	n/a	0	0	0
4327158	WORD	wordpools/wasnorm_wordpool_576.txt	LTP290	ltpFR2	8	20	BLOCKADE	137	n/a	n/a	0	0	0
4329837	WORD	wordpools/wasnorm_wordpool_576.txt	LTP290	ltpFR2	8	20	LOFT	840	n/a	n/a	0	0	0
4332501	WORD	wordpools/wasnorm_wordpool_576.txt	LTP290	ltpFR2	8	20	LODGE	839	n/a	n/a	0	0	0
4335279	WORD	wordpools/wasnorm_wordpool_576.txt	LTP290	ltpFR2	8	20	DONKEY	484	n/a	n/a	0	0	0
4338008	WORD	wordpools/wasnorm_wordpool_576.txt	LTP290	ltpFR2	8	20	TURTLE	1522	n/a	n/a	0	0	0
4340804	WORD	wordpools/wasnorm_wordpool_576.txt	LTP290	ltpFR2	8	20	DENIM	446	n/a	n/a	0	0	0
4343368	WORD	wordpools/wasnorm_wordpool_576.txt	LTP290	ltpFR2	8	20	SKIRT	1319	n/a	n/a	0	0	0
4345796	WORD	wordpools/wasnorm_wordpool_576.txt	LTP290	ltpFR2	8	20	HOUND	724	n/a	n/a	0	0	0
4348542	WORD	wordpools/wasnorm_wordpool_576.txt	LTP290	ltpFR2	8	20	STALLION	1369	n/a	n/a	0	0	0
4351255	WORD	wordpools/wasnorm_wordpool_576.txt	LTP290	ltpFR2	8	20	POSSUM	1112	n/a	n/a	0	0	0
4354001	WORD	wordpools/wasnorm_wordpool_576.txt	LTP290	ltpFR2	8	20	BEAST	108	n/a	n/a	0	0	0
4356780	WORD	wordpools/wasnorm_wordpool_576.txt	LTP290	ltpFR2	8	20	PLUTO	1092	n/a	n/a	0	0	0
4359427	WORD	wordpools/wasnorm_wordpool_576.txt	LTP290	ltpFR2	8	20	CANYON	235	n/a	n/a	0	0	0
4362022	WORD	wordpools/wasnorm_wordpool_576.txt	LTP290	ltpFR2	8	20	BEAKER	104	n/a	n/a	0	0	0
4364602	WORD	wordpools/wasnorm_wordpool_576.txt	LTP290	ltpFR2	8	20	CLOUD	328	n/a	n/a	0	0	0
4367214	WORD	wordpools/wasnorm_wordpool_576.txt	LTP290	ltpFR2	8	20	MILDEW	893	n/a	n/a	0	0	0
4370010	WORD	wordpools/wasnorm_wordpool_576.txt	LTP290	ltpFR2	8	20	GUARD	667	n/a	n/a	0	0	0
4372640	WORD	wordpools/wasnorm_wordpool_576.txt	LTP290	ltpFR2	8	20	AGENT	10	n/a	n/a	0	0	0
4375219	WORD	wordpools/wasnorm_wordpool_576.txt	LTP290	ltpFR2	8	20	STREAM	1392	n/a	n/a	0	0	0
4377682	WORD	wordpools/wasnorm_wordpool_576.txt	LTP290	ltpFR2	8	20	PUPPY	1144	n/a	n/a	0	0	0
4380128	WORD	wordpools/wasnorm_wordpool_576.txt	LTP290	ltpFR2	8	20	SALAD	1224	n/a	n/a	0	0	0
4382891	WORD	wordpools/wasnorm_wordpool_576.txt	LTP290	ltpFR2	8	20	PLAYGROUND	1087	n/a	n/a	0	0	0
4384507	START	n/a	LTP290	ltpFR2	8	n/a	n/a	n/a	28	n/a	n/a	n/a	n/a
4385678	DISTRACTOR	n/a	LTP290	ltpFR2	8	20	n/a	n/a	n/a	n/a	0	0	0
4385687	PROB	n/a	LTP290	ltpFR2	8	n/a	n/a	n/a	28	21	9	8	4
4388533	PROB	n/a	LTP290	ltpFR2	8	n/a	n/a	n/a	28	20	4	7	9
4390213	PROB	n/a	LTP290	ltpFR2	8	n/a	n/a	n/a	28	13	3	3	5
4391611	PROB	n/a	LTP290	ltpFR2	8	n/a	n/a	n/a	28	20	3	8	9
4394141	PROB	n/a	LTP290	ltpFR2	8	n/a	n/a	n/a	28	25	9	7	9
4396322	PROB	n/a	LTP290	ltpFR2	8	n/a	n/a	n/a	28	18	3	9	6
4398917	PROB	n/a	LTP290	ltpFR2	8	n/a	n/a	n/a	28	21	9	4	8
4402062	PROB	n/a	LTP290	ltpFR2	8	n/a	n/a	n/a	28	12	2	3	7
4403361	PROB	n/a	LTP290	ltpFR2	8	n/a	n/a	n/a	28	15	3	6	6
4406290	PROB	n/a	LTP290	ltpFR2	8	n/a	n/a	n/a	28	12	5	3	4
4407434	STOP	n/a	LTP290	ltpFR2	8	n/a	n/a	n/a	28	n/a	n/a	n/a	n/a
4410267	REC_START	n/a	LTP290	ltpFR2	8	20	n/a	n/a	n/a	n/a	0	0	0
4411095	REC_WORD	wordpools/wasnorm_wordpool_576.txt	LTP290	ltpFR2	8	20	CLIMBER	323	n/a	n/a	0	0	0
4500948	DISTRACTOR	n/a	LTP290	ltpFR2	8	21	n/a	n/a	n/a	n/a	0	0	0
4500948	START	n/a	LTP290	ltpFR2	8	n/a	n/a	n/a	29	n/a	n/a	n/a	n/a
4500981	PROB	n/a	LTP290	ltpFR2	8	n/a	n/a	n/a	29	20	8	9	3
4503195	PROB	n/a	LTP290	ltpFR2	8	n/a	n/a	n/a	29	16	5	3	8
4504444	PROB	n/a	LTP290	ltpFR2	8	n/a	n/a	n/a	29	14	4	1	9
4505708	PROB	n/a	LTP290	ltpFR2	8	n/a	n/a	n/a	29	10	1	8	1
4506789	PROB	n/a	LTP290	ltpFR2	8	n/a	n/a	n/a	29	18	6	5	7
4508171	PROB	n/a	LTP290	ltpFR2	8	n/a	n/a	n/a	29	14	1	9	4
4509420	PROB	n/a	LTP290	ltpFR2	8	n/a	n/a	n/a	29	8	3	2	3
4510700	PROB	n/a	LTP290	ltpFR2	8	n/a	n/a	n/a	29	15	1	8	6
4512664	PROB	n/a	LTP290	ltpFR2	8	n/a	n/a	n/a	29	9	3	5	1
4514379	PROB	n/a	LTP290	ltpFR2	8	n/a	n/a	n/a	29	20	8	8	4
4515743	PROB	n/a	LTP290	ltpFR2	8	n/a	n/a	n/a	29	15	9	2	4
4518290	PROB	n/a	LTP290	ltpFR2	8	n/a	n/a	n/a	29	13	1	9	3
4519388	PROB	n/a	LTP290	ltpFR2	8	n/a	n/a	n/a	29	20	7	4	9
4520735	PROB	n/a	LTP290	ltpFR2	8	n/a	n/a	n/a	29	15	9	5	1
4522150	PROB	n/a	LTP290	ltpFR2	8	n/a	n/a	n/a	29	11	1	5	5
4524948	STOP	n/a	LTP290	ltpFR2	8	n/a	n/a	n/a	29	n/a	n/a	n/a	n/a
4526011	WORD	wordpools/wasnorm_wordpool_576.txt	LTP290	ltpFR2	8	21	WOMAN	1620	n/a	n/a	0	0	0
4528823	WORD	wordpools/wasnorm_wordpool_576.txt	LTP290	ltpFR2	8	21	MESSAGE	888	n/a	n/a	0	0	0
4531320	WORD	wordpools/wasnorm_wordpool_576.txt	LTP290	ltpFR2	8	21	BASEMENT	94	n/a	n/a	0	0	0
4534099	WORD	wordpools/wasnorm_wordpool_576.txt	LTP290	ltpFR2	8	21	HIGHWAY	707	n/a	n/a	0	0	0
4536578	WORD	wordpools/wasnorm_wordpool_576.txt	LTP290	ltpFR2	8	21	SNAIL	1332	n/a	n/a	0	0	0
4539091	WORD	wordpools/wasnorm_wordpool_576.txt	LTP290	ltpFR2	8	21	PECAN	1036	n/a	n/a	0	0	0
4541854	WORD	wordpools/wasnorm_wordpool_576.txt	LTP290	ltpFR2	8	21	FILM	565	n/a	n/a	0	0	0
4544451	WORD	wordpools/wasnorm_wordpool_576.txt	LTP290	ltpFR2	8	21	MARROW	872	n/a	n/a	0	0	0
4546946	WORD	wordpools/wasnorm_wordpool_576.txt	LTP290	ltpFR2	8	21	FRECKLE	602	n/a	n/a	0	0	0
4549692	WORD	wordpools/wasnorm_wordpool_576.txt	LTP290	ltpFR2	8	21	TWEEZERS	1526	n/a	n/a	0	0	0
4552222	WORD	wordpools/wasnorm_wordpool_576.txt	LTP290	ltpFR2	8	21	GRAVEL	659	n/a	n/a	0	0	0
4554784	WORD	wordpools/wasnorm_wordpool_576.txt	LTP290	ltpFR2	8	21	HEADBAND	696	n/a	n/a	0	0	0
4557547	WORD	wordpools/wasnorm_wordpool_576.txt	LTP290	ltpFR2	8	21	BOARD	143	n/a	n/a	0	0	0
4560176	WORD	wordpools/wasnorm_wordpool_576.txt	LTP290	ltpFR2	8	21	PRIMATE	1123	n/a	n/a	0	0	0
4562639	WORD	wordpools/wasnorm_wordpool_576.txt	LTP290	ltpFR2	8	21	TWISTER	1530	n/a	n/a	0	0	0
4565269	WORD	wordpools/wasnorm_wordpool_576.txt	LTP290	ltpFR2	8	21	JELLY	755	n/a	n/a	0	0	0
4567915	WORD	wordpools/wasnorm_wordpool_576.txt	LTP290	ltpFR2	8	21	CABBAGE	210	n/a	n/a	0	0	0
4570711	WORD	wordpools/wasnorm_wordpool_576.txt	LTP290	ltpFR2	8	21	GUITAR	670	n/a	n/a	0	0	0
4573408	WORD	wordpools/wasnorm_wordpool_576.txt	LTP290	ltpFR2	8	21	GALLON	618	n/a	n/a	0	0	0
4575903	WORD	wordpools/wasnorm_wordpool_576.txt	LTP290	ltpFR2	8	21	MAILMAN	858	n/a	n/a	0	0	0
4578467	WORD	wordpools/wasnorm_wordpool_576.txt	LTP290	ltpFR2	8	21	SEAL	1262	n/a	n/a	0	0	0
4581262	WORD	wordpools/wasnorm_wordpool_576.txt	LTP290	ltpFR2	8	21	COLONEL	348	n/a	n/a	0	0	0
4583691	WORD	wordpools/wasnorm_wordpool_576.txt	LTP290	ltpFR2	8	21	ARMY	39	n/a	n/a	0	0	0
4586204	WORD	wordpools/wasnorm_wordpool_576.txt	LTP290	ltpFR2	8	21	CASHEW	253	n/a	n/a	0	0	0
4587819	START	n/a	LTP290	ltpFR2	8	n/a	n/a	n/a	30	n/a	n/a	n/a	n/a
4588704	DISTRACTOR	n/a	LTP290	ltpFR2	8	21	n/a	n/a	n/a	n/a	0	0	0
4588717	PROB	n/a	LTP290	ltpFR2	8	n/a	n/a	n/a	30	10	4	2	4
4590648	PROB	n/a	LTP290	ltpFR2	8	n/a	n/a	n/a	30	7	3	1	3
4591912	PROB	n/a	LTP290	ltpFR2	8	n/a	n/a	n/a	30	12	3	3	6
4593693	PROB	n/a	LTP290	ltpFR2	8	n/a	n/a	n/a	30	9	1	2	6
4595041	PROB	n/a	LTP290	ltpFR2	8	n/a	n/a	n/a	30	15	9	5	1
4596605	PROB	n/a	LTP290	ltpFR2	8	n/a	n/a	n/a	30	23	7	9	7
4598719	PROB	n/a	LTP290	ltpFR2	8	n/a	n/a	n/a	30	13	3	3	7
4600500	PROB	n/a	LTP290	ltpFR2	8	n/a	n/a	n/a	30	15	5	6	4
4601798	PROB	n/a	LTP290	ltpFR2	8	n/a	n/a	n/a	30	12	5	2	5
4602979	PROB	n/a	LTP290	ltpFR2	8	n/a	n/a	n/a	30	14	5	1	8
4604577	PROB	n/a	LTP290	ltpFR2	8	n/a	n/a	n/a	30	6	3	2	1
4606158	PROB	n/a	LTP290	ltpFR2	8	n/a	n/a	n/a	30	20	7	8	5
4608271	PROB	n/a	LTP290	ltpFR2	8	n/a	n/a	n/a	30	18	3	9	6
4610168	PROB	n/a	LTP290	ltpFR2	8	n/a	n/a	n/a	30	14	9	3	2
4611466	STOP	n/a	LTP290	ltpFR2	8	n/a	n/a	n/a	30	n/a	n/a	n/a	n/a
4613747	REC_START	n/a	LTP290	ltpFR2	8	21	n/a	n/a	n/a	n/a	0	0	0
4615180	REC_WORD	wordpools/wasnorm_wordpool_576.txt	LTP290	ltpFR2	8	21	CASHEW	253	n/a	n/a	0	0	0
4704395	DISTRACTOR	n/a	LTP290	ltpFR2	8	22	n/a	n/a	n/a	n/a	0	0	0
4704396	START	n/a	LTP290	ltpFR2	8	n/a	n/a	n/a	31	n/a	n/a	n/a	n/a
4704429	PROB	n/a	LTP290	ltpFR2	8	n/a	n/a	n/a	31	7	4	2	1
4705776	PROB	n/a	LTP290	ltpFR2	8	n/a	n/a	n/a	31	18	4	7	7
4707024	PROB	n/a	LTP290	ltpFR2	8	n/a	n/a	n/a	31	11	8	1	2
4708473	PROB	n/a	LTP290	ltpFR2	8	n/a	n/a	n/a	31	17	3	6	8
4710053	PROB	n/a	LTP290	ltpFR2	8	n/a	n/a	n/a	31	7	4	2	1
4711352	PROB	n/a	LTP290	ltpFR2	8	n/a	n/a	n/a	31	6	1	3	2
4712932	PROB	n/a	LTP290	ltpFR2	8	n/a	n/a	n/a	31	14	3	7	4
4714629	PROB	n/a	LTP290	ltpFR2	8	n/a	n/a	n/a	31	16	5	2	9
4716027	PROB	n/a	LTP290	ltpFR2	8	n/a	n/a	n/a	31	15	2	7	6
4718174	PROB	n/a	LTP290	ltpFR2	8	n/a	n/a	n/a	31	14	3	6	5
4719655	PROB	n/a	LTP290	ltpFR2	8	n/a	n/a	n/a	31	12	8	3	1
4720787	PROB	n/a	LTP290	ltpFR2	8	n/a	n/a	n/a	31	18	7	3	8
4721951	PROB	n/a	LTP290	ltpFR2	8	n/a	n/a	n/a	31	25	9	8	8
4724282	PROB	n/a	LTP290	ltpFR2	8	n/a	n/a	n/a	31	18	8	8	2
4725912	PROB	n/a	LTP290	ltpFR2	8	n/a	n/a	n/a	31	10	1	7	2
4727410	STOP	n/a	LTP290	ltpFR2	8	n/a	n/a	n/a	31	n/a	n/a	n/a	n/a
4729325	WORD	wordpools/wasnorm_wordpool_576.txt	LTP290	ltpFR2	8	22	FARMER	553	n/a	n/a	0	0	0
4731787	WORD	wordpools/wasnorm_wordpool_576.txt	LTP290	ltpFR2	8	22	KEEPER	769	n/a	n/a	0	0	0
4734301	WORD	wordpools/wasnorm_wordpool_576.txt	LTP290	ltpFR2	8	22	CYCLONE	431	n/a	n/a	0	0	0
4737112	WORD	wordpools/wasnorm_wordpool_576.txt	LTP290	ltpFR2	8	22	SPHINX	1349	n/a	n/a	0	0	0
4739658	WORD	wordpools/wasnorm_wordpool_576.txt	LTP290	ltpFR2	8	22	FOREST	593	n/a	n/a	0	0	0
4742339	WORD	wordpools/wasnorm_wordpool_576.txt	LTP290	ltpFR2	8	22	LUMBER	848	n/a	n/a	0	0	0
4744851	WORD	wordpools/wasnorm_wordpool_576.txt	LTP290	ltpFR2	8	22	PEBBLE	1035	n/a	n/a	0	0	0
4747464	WORD	wordpools/wasnorm_wordpool_576.txt	LTP290	ltpFR2	8	22	STONE	1385	n/a	n/a	0	0	0
4750176	WORD	wordpools/wasnorm_wordpool_576.txt	LTP290	ltpFR2	8	22	BULLET	194	n/a	n/a	0	0	0
4752989	WORD	wordpools/wasnorm_wordpool_576.txt	LTP290	ltpFR2	8	22	FLESH	579	n/a	n/a	0	0	0
4755551	WORD	wordpools/wasnorm_wordpool_576.txt	LTP290	ltpFR2	8	22	LION	827	n/a	n/a	0	0	0
4758282	WORD	wordpools/wasnorm_wordpool_576.txt	LTP290	ltpFR2	8	22	TEMPLE	1448	n/a	n/a	0	0	0
4760760	WORD	wordpools/wasnorm_wordpool_576.txt	LTP290	ltpFR2	8	22	FRIAR	605	n/a	n/a	0	0	0
4763257	WORD	wordpools/wasnorm_wordpool_576.txt	LTP290	ltpFR2	8	22	BACON	67	n/a	n/a	0	0	0
4765903	WORD	wordpools/wasnorm_wordpool_576.txt	LTP290	ltpFR2	8	22	SHOVEL	1295	n/a	n/a	0	0	0
4768665	WORD	wordpools/wasnorm_wordpool_576.txt	LTP290	ltpFR2	8	22	TRUCK	1512	n/a	n/a	0	0	0
4771261	WORD	wordpools/wasnorm_wordpool_576.txt	LTP290	ltpFR2	8	22	QUEEN	1149	n/a	n/a	0	0	0
4773741	WORD	wordpools/wasnorm_wordpool_576.txt	LTP290	ltpFR2	8	22	MUMMY	932	n/a	n/a	0	0	0
4776405	WORD	wordpools/wasnorm_wordpool_576.txt	LTP290	ltpFR2	8	22	HAWK	692	n/a	n/a	0	0	0
4778950	WORD	wordpools/wasnorm_wordpool_576.txt	LTP290	ltpFR2	8	22	HERO	706	n/a	n/a	0	0	0
4781712	WORD	wordpools/wasnorm_wordpool_576.txt	LTP290	ltpFR2	8	22	CHURCH	307	n/a	n/a	0	0	0
4784326	WORD	wordpools/wasnorm_wordpool_576.txt	LTP290	ltpFR2	8	22	DUST	508	n/a	n/a	0	0	0
4786955	WORD	wordpools/wasnorm_wordpool_576.txt	LTP290	ltpFR2	8	22	WINDOW	1611	n/a	n/a	0	0	0
4789551	WORD	wordpools/wasnorm_wordpool_576.txt	LTP290	ltpFR2	8	22	CHAPEL	280	n/a	n/a	0	0	0
4791165	START	n/a	LTP290	ltpFR2	8	n/a	n/a	n/a	32	n/a	n/a	n/a	n/a
4791970	DISTRACTOR	n/a	LTP290	ltpFR2	8	22	n/a	n/a	n/a	n/a	0	0	0
4791980	PROB	n/a	LTP290	ltpFR2	8	n/a	n/a	n/a	32	20	9	4	7
4793595	PROB	n/a	LTP290	ltpFR2	8	n/a	n/a	n/a	32	11	3	2	6
4795126	PROB	n/a	LTP290	ltpFR2	8	n/a	n/a	n/a	32	12	1	3	8
4796358	PROB	n/a	LTP290	ltpFR2	8	n/a	n/a	n/a	32	16	4	5	7
4798121	PROB	n/a	LTP290	ltpFR2	8	n/a	n/a	n/a	32	26	9	9	7
4800502	PROB	n/a	LTP290	ltpFR2	8	n/a	n/a	n/a	32	17	3	9	5
4804330	PROB	n/a	LTP290	ltpFR2	8	n/a	n/a	n/a	32	16	2	7	7
4805677	PROB	n/a	LTP290	ltpFR2	8	n/a	n/a	n/a	32	16	3	5	8
4806858	PROB	n/a	LTP290	ltpFR2	8	n/a	n/a	n/a	32	16	8	3	5
4809804	PROB	n/a	LTP290	ltpFR2	8	n/a	n/a	n/a	32	12	7	2	3
4811436	PROB	n/a	LTP290	ltpFR2	8	n/a	n/a	n/a	32	12	5	2	5
4812783	PROB	n/a	LTP290	ltpFR2	8	n/a	n/a	n/a	32	16	2	9	5
4814001	STOP	n/a	LTP290	ltpFR2	8	n/a	n/a	n/a	32	n/a	n/a	n/a	n/a
4816993	REC_START	n/a	LTP290	ltpFR2	8	22	n/a	n/a	n/a	n/a	0	0	0
4824674	REC_WORD	wordpools/wasnorm_wordpool_576.txt	LTP290	ltpFR2	8	22	STONE	1385	n/a	n/a	0	0	0
4825405	REC_WORD	wordpools/wasnorm_wordpool_576.txt	LTP290	ltpFR2	8	22	BULLET	194	n/a	n/a	0	0	0
4825809	REC_WORD	wordpools/wasnorm_wordpool_576.txt	LTP290	ltpFR2	8	22	FLESH	579	n/a	n/a	0	0	0
4907641	DISTRACTOR	n/a	LTP290	ltpFR2	8	23	n/a	n/a	n/a	n/a	0	0	0
4907641	START	n/a	LTP290	ltpFR2	8	n/a	n/a	n/a	33	n/a	n/a	n/a	n/a
4907674	PROB	n/a	LTP290	ltpFR2	8	n/a	n/a	n/a	33	21	9	8	5
4909290	PROB	n/a	LTP290	ltpFR2	8	n/a	n/a	n/a	33	18	2	7	9
4910653	PROB	n/a	LTP290	ltpFR2	8	n/a	n/a	n/a	33	17	9	3	5
4912867	PROB	n/a	LTP290	ltpFR2	8	n/a	n/a	n/a	33	26	8	9	9
4915364	PROB	n/a	LTP290	ltpFR2	8	n/a	n/a	n/a	33	16	9	4	3
4917177	PROB	n/a	LTP290	ltpFR2	8	n/a	n/a	n/a	33	10	3	3	4
4919391	PROB	n/a	LTP290	ltpFR2	8	n/a	n/a	n/a	33	14	8	5	1
