mstime	trial_type	stim_file	subject	experiment	session	trial	task	item_name	item_num	recog_conf	resp	color_b	color_g	color_r	case	font
0	SESS_START	n/a	LTP098	ltpFR	0	n/a	n/a	n/a	n/a	1	n/a	n/a	n/a	n/a	n/a	n/a
93315	WORD	wordpools/wasnorm_wordpool.txt	LTP098	ltpFR	0	1	-1	CHAIRPERSON	275	5	-1	1	1.0	1.0	upper	../fonts/Verdana.ttf
97340	WORD	wordpools/wasnorm_wordpool.txt	LTP098	ltpFR	0	1	-1	VAMPIRE	1547	n/a	-1	1	1.0	1.0	upper	../fonts/Verdana.ttf
101489	WORD	wordpools/wasnorm_wordpool.txt	LTP098	ltpFR	0	1	-1	SPICE	1350	n/a	-1	1	1.0	1.0	upper	../fonts/Verdana.ttf
105456	WORD	wordpools/wasnorm_wordpool.txt	LTP098	ltpFR	0	1	-1	FLORIDA	582	n/a	-1	1	1.0	1.0	upper	../fonts/Verdana.ttf
109514	WORD	wordpools/wasnorm_wordpool.txt	LTP098	ltpFR	0	1	-1	CAPITAL	238	n/a	-1	1	1.0	1.0	upper	../fonts/Verdana.ttf
113588	WORD	wordpools/wasnorm_wordpool.txt	LTP098	ltpFR	0	1	-1	JEEP	753	n/a	-1	1	1.0	1.0	upper	../fonts/Verdana.ttf
117746	WORD	wordpools/wasnorm_wordpool.txt	LTP098	ltpFR	0	1	-1	WILDERNESS	1610	n/a	-1	1	1.0	1.0	upper	../fonts/Verdana.ttf
121920	WORD	wordpools/wasnorm_wordpool.txt	LTP098	ltpFR	0	1	-1	MOSS	918	n/a	-1	1	1.0	1.0	upper	../fonts/Verdana.ttf
126011	WORD	wordpools/wasnorm_wordpool.txt	LTP098	ltpFR	0	1	-1	FIDDLE	561	n/a	-1	1	1.0	1.0	upper	../fonts/Verdana.ttf
129887	WORD	wordpools/wasnorm_wordpool.txt	LTP098	ltpFR	0	1	-1	TOY	1492	n/a	-1	1	1.0	1.0	upper	../fonts/Verdana.ttf
134094	WORD	wordpools/wasnorm_wordpool.txt	LTP098	ltpFR	0	1	-1	ONION	977	n/a	-1	1	1.0	1.0	upper	../fonts/Verdana.ttf
138002	WORD	wordpools/wasnorm_wordpool.txt	LTP098	ltpFR	0	1	-1	ORNAMENT	985	n/a	-1	1	1.0	1.0	upper	../fonts/Verdana.ttf
142027	WORD	wordpools/wasnorm_wordpool.txt	LTP098	ltpFR	0	1	-1	TAXI	1438	n/a	-1	1	1.0	1.0	upper	../fonts/Verdana.ttf
145927	WORD	wordpools/wasnorm_wordpool.txt	LTP098	ltpFR	0	1	-1	FATHER	554	n/a	-1	1	1.0	1.0	upper	../fonts/Verdana.ttf
149976	WORD	wordpools/wasnorm_wordpool.txt	LTP098	ltpFR	0	1	-1	BATHTUB	100	n/a	-1	1	1.0	1.0	upper	../fonts/Verdana.ttf
154168	WORD	wordpools/wasnorm_wordpool.txt	LTP098	ltpFR	0	1	-1	BATHROOM	99	n/a	-1	1	1.0	1.0	upper	../fonts/Verdana.ttf
159877	REC_START	n/a	LTP098	ltpFR	0	1	n/a	n/a	n/a	n/a	n/a	n/a	n/a	n/a	n/a	n/a
163803	REC_WORD	wordpools/wasnorm_wordpool.txt	LTP098	ltpFR	0	1	-1	BATHTUB	100	n/a	-1	n/a	n/a	n/a	n/a	n/a
165045	REC_WORD_VV	wordpools/wasnorm_wordpool.txt	LTP098	ltpFR	0	1	n/a	<>	-1	n/a	n/a	n/a	n/a	n/a	n/a	n/a
166876	REC_WORD	wordpools/wasnorm_wordpool.txt	LTP098	ltpFR	0	1	-1	BATHTUB	100	n/a	-1	n/a	n/a	n/a	n/a	n/a
167675	REC_WORD	wordpools/wasnorm_wordpool.txt	LTP098	ltpFR	0	1	-1	FIDDLE	561	n/a	-1	n/a	n/a	n/a	n/a	n/a
168881	REC_WORD	wordpools/wasnorm_wordpool.txt	LTP098	ltpFR	0	1	-1	MOSS	918	n/a	-1	n/a	n/a	n/a	n/a	n/a
170558	REC_WORD	wordpools/wasnorm_wordpool.txt	LTP098	ltpFR	0	1	-1	CHAIRPERSON	275	n/a	-1	n/a	n/a	n/a	n/a	n/a
171475	REC_WORD	wordpools/wasnorm_wordpool.txt	LTP098	ltpFR	0	1	-1	SPICE	1350	n/a	-1	n/a	n/a	n/a	n/a	n/a
172573	REC_WORD	wordpools/wasnorm_wordpool.txt	LTP098	ltpFR	0	1	-1	CAPITAL	238	n/a	-1	n/a	n/a	n/a	n/a	n/a
173720	REC_WORD	wordpools/wasnorm_wordpool.txt	LTP098	ltpFR	0	1	-1	FLORIDA	582	n/a	-1	n/a	n/a	n/a	n/a	n/a
200270	REC_WORD	wordpools/wasnorm_wordpool.txt	LTP098	ltpFR	0	1	-1	VAMPIRE	1547	n/a	-1	n/a	n/a	n/a	n/a	n/a
227817	REC_WORD	wordpools/wasnorm_wordpool.txt	LTP098	ltpFR	0	1	-1	TOY	1492	n/a	-1	n/a	n/a	n/a	n/a	n/a
240745	WORD	wordpools/wasnorm_wordpool.txt	LTP098	ltpFR	0	2	-1	SHEPHERD	1283	n/a	-1	1	1.0	1.0	upper	../fonts/Verdana.ttf
244595	WORD	wordpools/wasnorm_wordpool.txt	LTP098	ltpFR	0	2	-1	WOLF	1619	n/a	-1	1	1.0	1.0	upper	../fonts/Verdana.ttf
248745	WORD	wordpools/wasnorm_wordpool.txt	LTP098	ltpFR	0	2	-1	INN	739	n/a	-1	1	1.0	1.0	upper	../fonts/Verdana.ttf
252594	WORD	wordpools/wasnorm_wordpool.txt	LTP098	ltpFR	0	2	-1	JOURNAL	760	n/a	-1	1	1.0	1.0	upper	../fonts/Verdana.ttf
256469	WORD	wordpools/wasnorm_wordpool.txt	LTP098	ltpFR	0	2	-1	PLAQUE	1084	n/a	-1	1	1.0	1.0	upper	../fonts/Verdana.ttf
260602	WORD	wordpools/wasnorm_wordpool.txt	LTP098	ltpFR	0	2	-1	JAW	751	n/a	-1	1	1.0	1.0	upper	../fonts/Verdana.ttf
264468	WORD	wordpools/wasnorm_wordpool.txt	LTP098	ltpFR	0	2	-1	EARRING	514	n/a	-1	1	1.0	1.0	upper	../fonts/Verdana.ttf
268410	WORD	wordpools/wasnorm_wordpool.txt	LTP098	ltpFR	0	2	-1	PEANUT	1032	n/a	-1	1	1.0	1.0	upper	../fonts/Verdana.ttf
272385	WORD	wordpools/wasnorm_wordpool.txt	LTP098	ltpFR	0	2	-1	THERMOMETER	1453	n/a	-1	1	1.0	1.0	upper	../fonts/Verdana.ttf
276233	WORD	wordpools/wasnorm_wordpool.txt	LTP098	ltpFR	0	2	-1	MOTEL	919	n/a	-1	1	1.0	1.0	upper	../fonts/Verdana.ttf
280141	WORD	wordpools/wasnorm_wordpool.txt	LTP098	ltpFR	0	2	-1	SHEET	1279	n/a	-1	1	1.0	1.0	upper	../fonts/Verdana.ttf
284266	WORD	wordpools/wasnorm_wordpool.txt	LTP098	ltpFR	0	2	-1	YARD	1630	n/a	-1	1	1.0	1.0	upper	../fonts/Verdana.ttf
288224	WORD	wordpools/wasnorm_wordpool.txt	LTP098	ltpFR	0	2	-1	PENCIL	1042	n/a	-1	1	1.0	1.0	upper	../fonts/Verdana.ttf
292257	WORD	wordpools/wasnorm_wordpool.txt	LTP098	ltpFR	0	2	-1	RADIO	1157	n/a	-1	1	1.0	1.0	upper	../fonts/Verdana.ttf
296441	WORD	wordpools/wasnorm_wordpool.txt	LTP098	ltpFR	0	2	-1	CLARINET	317	n/a	-1	1	1.0	1.0	upper	../fonts/Verdana.ttf
300282	WORD	wordpools/wasnorm_wordpool.txt	LTP098	ltpFR	0	2	-1	HOE	711	n/a	-1	1	1.0	1.0	upper	../fonts/Verdana.ttf
306015	REC_START	n/a	LTP098	ltpFR	0	2	n/a	n/a	n/a	n/a	n/a	n/a	n/a	n/a	n/a	n/a
307018	REC_WORD	wordpools/wasnorm_wordpool.txt	LTP098	ltpFR	0	2	-1	HOE	711	n/a	-1	n/a	n/a	n/a	n/a	n/a
307856	REC_WORD	wordpools/wasnorm_wordpool.txt	LTP098	ltpFR	0	2	-1	SHEPHERD	1283	n/a	-1	n/a	n/a	n/a	n/a	n/a
310021	REC_WORD	wordpools/wasnorm_wordpool.txt	LTP098	ltpFR	0	2	-1	MOTEL	919	n/a	-1	n/a	n/a	n/a	n/a	n/a
311258	REC_WORD	wordpools/wasnorm_wordpool.txt	LTP098	ltpFR	0	2	-1	INN	739	n/a	-1	n/a	n/a	n/a	n/a	n/a
314615	REC_WORD	wordpools/wasnorm_wordpool.txt	LTP098	ltpFR	0	2	-1	PLAQUE	1084	n/a	-1	n/a	n/a	n/a	n/a	n/a
315488	REC_WORD	wordpools/wasnorm_wordpool.txt	LTP098	ltpFR	0	2	-1	JAW	751	n/a	-1	n/a	n/a	n/a	n/a	n/a
318212	REC_WORD	wordpools/wasnorm_wordpool.txt	LTP098	ltpFR	0	2	-1	WOLF	1619	n/a	-1	n/a	n/a	n/a	n/a	n/a
332300	REC_WORD	wordpools/wasnorm_wordpool.txt	LTP098	ltpFR	0	2	-1	JOURNAL	760	n/a	-1	n/a	n/a	n/a	n/a	n/a
337359	REC_WORD	wordpools/wasnorm_wordpool.txt	LTP098	ltpFR	0	2	-1	CLARINET	317	n/a	-1	n/a	n/a	n/a	n/a	n/a
353382	REC_WORD	wordpools/wasnorm_wordpool.txt	LTP098	ltpFR	0	2	-1	SHEET	1279	n/a	-1	n/a	n/a	n/a	n/a	n/a
389659	WORD	wordpools/wasnorm_wordpool.txt	LTP098	ltpFR	0	3	-1	COMEDIAN	352	n/a	-1	1	1.0	1.0	upper	../fonts/Verdana.ttf
393750	WORD	wordpools/wasnorm_wordpool.txt	LTP098	ltpFR	0	3	-1	CIRCUS	311	n/a	-1	1	1.0	1.0	upper	../fonts/Verdana.ttf
397850	WORD	wordpools/wasnorm_wordpool.txt	LTP098	ltpFR	0	3	-1	RACK	1154	n/a	-1	1	1.0	1.0	upper	../fonts/Verdana.ttf
402049	WORD	wordpools/wasnorm_wordpool.txt	LTP098	ltpFR	0	3	-1	SLIDE	1326	n/a	-1	1	1.0	1.0	upper	../fonts/Verdana.ttf
406023	WORD	wordpools/wasnorm_wordpool.txt	LTP098	ltpFR	0	3	-1	OCEAN	970	n/a	-1	1	1.0	1.0	upper	../fonts/Verdana.ttf
409874	WORD	wordpools/wasnorm_wordpool.txt	LTP098	ltpFR	0	3	-1	BUCKLE	185	n/a	-1	1	1.0	1.0	upper	../fonts/Verdana.ttf
414064	WORD	wordpools/wasnorm_wordpool.txt	LTP098	ltpFR	0	3	-1	BOX	159	n/a	-1	1	1.0	1.0	upper	../fonts/Verdana.ttf
418056	WORD	wordpools/wasnorm_wordpool.txt	LTP098	ltpFR	0	3	-1	GRILL	661	n/a	-1	1	1.0	1.0	upper	../fonts/Verdana.ttf
422056	WORD	wordpools/wasnorm_wordpool.txt	LTP098	ltpFR	0	3	-1	PIER	1063	n/a	-1	1	1.0	1.0	upper	../fonts/Verdana.ttf
425922	WORD	wordpools/wasnorm_wordpool.txt	LTP098	ltpFR	0	3	-1	TOASTER	1472	n/a	-1	1	1.0	1.0	upper	../fonts/Verdana.ttf
429988	WORD	wordpools/wasnorm_wordpool.txt	LTP098	ltpFR	0	3	-1	BUTTER	205	n/a	-1	1	1.0	1.0	upper	../fonts/Verdana.ttf
434038	WORD	wordpools/wasnorm_wordpool.txt	LTP098	ltpFR	0	3	-1	CONTAINER	366	n/a	-1	1	1.0	1.0	upper	../fonts/Verdana.ttf
437880	WORD	wordpools/wasnorm_wordpool.txt	LTP098	ltpFR	0	3	-1	SNORKEL	1336	n/a	-1	1	1.0	1.0	upper	../fonts/Verdana.ttf
441897	WORD	wordpools/wasnorm_wordpool.txt	LTP098	ltpFR	0	3	-1	CAB	209	n/a	-1	1	1.0	1.0	upper	../fonts/Verdana.ttf
445788	WORD	wordpools/wasnorm_wordpool.txt	LTP098	ltpFR	0	3	-1	MOTOR	922	n/a	-1	1	1.0	1.0	upper	../fonts/Verdana.ttf
449962	WORD	wordpools/wasnorm_wordpool.txt	LTP098	ltpFR	0	3	-1	FINGERNAIL	568	n/a	-1	1	1.0	1.0	upper	../fonts/Verdana.ttf
455621	REC_START	n/a	LTP098	ltpFR	0	3	n/a	n/a	n/a	n/a	n/a	n/a	n/a	n/a	n/a	n/a
456579	REC_WORD	wordpools/wasnorm_wordpool.txt	LTP098	ltpFR	0	3	-1	BUCKLE	185	n/a	-1	n/a	n/a	n/a	n/a	n/a
457362	REC_WORD	wordpools/wasnorm_wordpool.txt	LTP098	ltpFR	0	3	-1	BOX	159	n/a	-1	n/a	n/a	n/a	n/a	n/a
458260	REC_WORD	wordpools/wasnorm_wordpool.txt	LTP098	ltpFR	0	3	-1	GRILL	661	n/a	-1	n/a	n/a	n/a	n/a	n/a
459218	REC_WORD	wordpools/wasnorm_wordpool.txt	LTP098	ltpFR	0	3	-1	PIER	1063	n/a	-1	n/a	n/a	n/a	n/a	n/a
460435	REC_WORD	wordpools/wasnorm_wordpool.txt	LTP098	ltpFR	0	3	-1	FINGERNAIL	568	n/a	-1	n/a	n/a	n/a	n/a	n/a
465404	REC_WORD	wordpools/wasnorm_wordpool.txt	LTP098	ltpFR	0	3	-1	CIRCUS	311	n/a	-1	n/a	n/a	n/a	n/a	n/a
466551	REC_WORD	wordpools/wasnorm_wordpool.txt	LTP098	ltpFR	0	3	-1	RACK	1154	n/a	-1	n/a	n/a	n/a	n/a	n/a
471629	REC_WORD	wordpools/wasnorm_wordpool.txt	LTP098	ltpFR	0	3	-1	COMEDIAN	352	n/a	-1	n/a	n/a	n/a	n/a	n/a
491893	REC_WORD	wordpools/wasnorm_wordpool.txt	LTP098	ltpFR	0	3	-1	CONTAINER	366	n/a	-1	n/a	n/a	n/a	n/a	n/a
501482	REC_WORD	wordpools/wasnorm_wordpool.txt	LTP098	ltpFR	0	3	-1	BUTTER	205	n/a	-1	n/a	n/a	n/a	n/a	n/a
546971	WORD	wordpools/wasnorm_wordpool.txt	LTP098	ltpFR	0	4	-1	CASHIER	254	n/a	-1	1	1.0	1.0	upper	../fonts/Verdana.ttf
551137	WORD	wordpools/wasnorm_wordpool.txt	LTP098	ltpFR	0	4	-1	OBOE	969	n/a	-1	1	1.0	1.0	upper	../fonts/Verdana.ttf
555204	WORD	wordpools/wasnorm_wordpool.txt	LTP098	ltpFR	0	4	-1	HALL	677	n/a	-1	1	1.0	1.0	upper	../fonts/Verdana.ttf
559070	WORD	wordpools/wasnorm_wordpool.txt	LTP098	ltpFR	0	4	-1	PUMPKIN	1142	n/a	-1	1	1.0	1.0	upper	../fonts/Verdana.ttf
563012	WORD	wordpools/wasnorm_wordpool.txt	LTP098	ltpFR	0	4	-1	LAWYER	806	n/a	-1	1	1.0	1.0	upper	../fonts/Verdana.ttf
566953	WORD	wordpools/wasnorm_wordpool.txt	LTP098	ltpFR	0	4	-1	BUGGY	188	n/a	-1	1	1.0	1.0	upper	../fonts/Verdana.ttf
570953	WORD	wordpools/wasnorm_wordpool.txt	LTP098	ltpFR	0	4	-1	RUST	1219	n/a	-1	1	1.0	1.0	upper	../fonts/Verdana.ttf
574986	WORD	wordpools/wasnorm_wordpool.txt	LTP098	ltpFR	0	4	-1	BLACKBERRY	132	n/a	-1	1	1.0	1.0	upper	../fonts/Verdana.ttf
579194	WORD	wordpools/wasnorm_wordpool.txt	LTP098	ltpFR	0	4	-1	SCOUT	1252	n/a	-1	1	1.0	1.0	upper	../fonts/Verdana.ttf
583052	WORD	wordpools/wasnorm_wordpool.txt	LTP098	ltpFR	0	4	-1	GIRL	637	n/a	-1	1	1.0	1.0	upper	../fonts/Verdana.ttf
586943	WORD	wordpools/wasnorm_wordpool.txt	LTP098	ltpFR	0	4	-1	FUNGUS	614	n/a	-1	1	1.0	1.0	upper	../fonts/Verdana.ttf
591026	WORD	wordpools/wasnorm_wordpool.txt	LTP098	ltpFR	0	4	-1	PICKLE	1059	n/a	-1	1	1.0	1.0	upper	../fonts/Verdana.ttf
595201	WORD	wordpools/wasnorm_wordpool.txt	LTP098	ltpFR	0	4	-1	FLIPPER	580	n/a	-1	1	1.0	1.0	upper	../fonts/Verdana.ttf
599318	WORD	wordpools/wasnorm_wordpool.txt	LTP098	ltpFR	0	4	-1	LEOPARD	812	n/a	-1	1	1.0	1.0	upper	../fonts/Verdana.ttf
603526	WORD	wordpools/wasnorm_wordpool.txt	LTP098	ltpFR	0	4	-1	PAINT	1003	n/a	-1	1	1.0	1.0	upper	../fonts/Verdana.ttf
607534	WORD	wordpools/wasnorm_wordpool.txt	LTP098	ltpFR	0	4	-1	OATS	968	n/a	-1	1	1.0	1.0	upper	../fonts/Verdana.ttf
613426	REC_START	n/a	LTP098	ltpFR	0	4	n/a	n/a	n/a	n/a	n/a	n/a	n/a	n/a	n/a	n/a
613950	REC_WORD	wordpools/wasnorm_wordpool.txt	LTP098	ltpFR	0	4	-1	PUMPKIN	1142	n/a	-1	n/a	n/a	n/a	n/a	n/a
614636	REC_WORD	wordpools/wasnorm_wordpool.txt	LTP098	ltpFR	0	4	-1	FUNGUS	614	n/a	-1	n/a	n/a	n/a	n/a	n/a
615616	REC_WORD	wordpools/wasnorm_wordpool.txt	LTP098	ltpFR	0	4	-1	FLIPPER	580	n/a	-1	n/a	n/a	n/a	n/a	n/a
616464	REC_WORD	wordpools/wasnorm_wordpool.txt	LTP098	ltpFR	0	4	-1	LEOPARD	812	n/a	-1	n/a	n/a	n/a	n/a	n/a
617232	REC_WORD	wordpools/wasnorm_wordpool.txt	LTP098	ltpFR	0	4	-1	PAINT	1003	n/a	-1	n/a	n/a	n/a	n/a	n/a
618265	REC_WORD	wordpools/wasnorm_wordpool.txt	LTP098	ltpFR	0	4	-1	OATS	968	n/a	-1	n/a	n/a	n/a	n/a	n/a
620016	REC_WORD	wordpools/wasnorm_wordpool.txt	LTP098	ltpFR	0	4	-1	LAWYER	806	n/a	-1	n/a	n/a	n/a	n/a	n/a
621812	REC_WORD	wordpools/wasnorm_wordpool.txt	LTP098	ltpFR	0	4	-1	RUST	1219	n/a	-1	n/a	n/a	n/a	n/a	n/a
625134	REC_WORD	wordpools/wasnorm_wordpool.txt	LTP098	ltpFR	0	4	-1	CASHIER	254	n/a	-1	n/a	n/a	n/a	n/a	n/a
627469	REC_WORD	wordpools/wasnorm_wordpool.txt	LTP098	ltpFR	0	4	-1	BUGGY	188	n/a	-1	n/a	n/a	n/a	n/a	n/a
630163	REC_WORD	wordpools/wasnorm_wordpool.txt	LTP098	ltpFR	0	4	-1	OBOE	969	n/a	-1	n/a	n/a	n/a	n/a	n/a
642664	REC_WORD	wordpools/wasnorm_wordpool.txt	LTP098	ltpFR	0	4	-1	SNORKEL	1336	n/a	-1	n/a	n/a	n/a	n/a	n/a
923126	WORD	wordpools/wasnorm_wordpool.txt	LTP098	ltpFR	0	5	0	COUCH	386	n/a	1	0	0.5869140625	0.422607421875	lower	../fonts/amplitud.ttf
927001	WORD	wordpools/wasnorm_wordpool.txt	LTP098	ltpFR	0	5	0	CUBE	420	n/a	0	0	0.5869140625	0.422607421875	lower	../fonts/amplitud.ttf
931150	WORD	wordpools/wasnorm_wordpool.txt	LTP098	ltpFR	0	5	0	DIME	466	n/a	0	0	0.5869140625	0.422607421875	lower	../fonts/amplitud.ttf
935167	WORD	wordpools/wasnorm_wordpool.txt	LTP098	ltpFR	0	5	0	CENT	270	n/a	0	0	0.5869140625	0.422607421875	lower	../fonts/amplitud.ttf
939016	WORD	wordpools/wasnorm_wordpool.txt	LTP098	ltpFR	0	5	0	SEASHORE	1263	n/a	1	0	0.5869140625	0.422607421875	lower	../fonts/amplitud.ttf
943091	WORD	wordpools/wasnorm_wordpool.txt	LTP098	ltpFR	0	5	0	SACK	1220	n/a	1	0	0.5869140625	0.422607421875	lower	../fonts/amplitud.ttf
946991	WORD	wordpools/wasnorm_wordpool.txt	LTP098	ltpFR	0	5	0	TYPIST	1532	n/a	1	0	0.5869140625	0.422607421875	lower	../fonts/amplitud.ttf
950990	WORD	wordpools/wasnorm_wordpool.txt	LTP098	ltpFR	0	5	0	OVAL	990	n/a	0	0	0.5869140625	0.422607421875	lower	../fonts/amplitud.ttf
954799	WORD	wordpools/wasnorm_wordpool.txt	LTP098	ltpFR	0	5	0	OYSTER	995	n/a	0	0	0.5869140625	0.422607421875	lower	../fonts/amplitud.ttf
958931	WORD	wordpools/wasnorm_wordpool.txt	LTP098	ltpFR	0	5	0	FLESH	579	n/a	1	0	0.5869140625	0.422607421875	lower	../fonts/amplitud.ttf
962815	WORD	wordpools/wasnorm_wordpool.txt	LTP098	ltpFR	0	5	0	BEEF	113	n/a	0	0	0.5869140625	0.422607421875	lower	../fonts/amplitud.ttf
966857	WORD	wordpools/wasnorm_wordpool.txt	LTP098	ltpFR	0	5	0	TOTE	1487	n/a	0	0	0.5869140625	0.422607421875	lower	../fonts/amplitud.ttf
970740	WORD	wordpools/wasnorm_wordpool.txt	LTP098	ltpFR	0	5	0	TORCH	1484	n/a	1	0	0.5869140625	0.422607421875	lower	../fonts/amplitud.ttf
974815	WORD	wordpools/wasnorm_wordpool.txt	LTP098	ltpFR	0	5	0	BRIDE	173	n/a	1	0	0.5869140625	0.422607421875	lower	../fonts/amplitud.ttf
978648	WORD	wordpools/wasnorm_wordpool.txt	LTP098	ltpFR	0	5	0	STEAM	1375	n/a	0	0	0.5869140625	0.422607421875	lower	../fonts/amplitud.ttf
982781	WORD	wordpools/wasnorm_wordpool.txt	LTP098	ltpFR	0	5	0	RAFT	1159	n/a	1	0	0.5869140625	0.422607421875	lower	../fonts/amplitud.ttf
988497	REC_START	n/a	LTP098	ltpFR	0	5	n/a	n/a	n/a	n/a	n/a	n/a	n/a	n/a	n/a	n/a
989619	REC_WORD	wordpools/wasnorm_wordpool.txt	LTP098	ltpFR	0	5	0	STEAM	1375	n/a	0	n/a	n/a	n/a	n/a	n/a
990617	REC_WORD	wordpools/wasnorm_wordpool.txt	LTP098	ltpFR	0	5	0	RAFT	1159	n/a	1	n/a	n/a	n/a	n/a	n/a
991429	REC_WORD	wordpools/wasnorm_wordpool.txt	LTP098	ltpFR	0	5	0	FLESH	579	n/a	1	n/a	n/a	n/a	n/a	n/a
992463	REC_WORD	wordpools/wasnorm_wordpool.txt	LTP098	ltpFR	0	5	0	SEASHORE	1263	n/a	1	n/a	n/a	n/a	n/a	n/a
993860	REC_WORD	wordpools/wasnorm_wordpool.txt	LTP098	ltpFR	0	5	0	OYSTER	995	n/a	0	n/a	n/a	n/a	n/a	n/a
1016857	REC_WORD	wordpools/wasnorm_wordpool.txt	LTP098	ltpFR	0	5	0	DIME	466	n/a	0	n/a	n/a	n/a	n/a	n/a
1019910	REC_WORD	wordpools/wasnorm_wordpool.txt	LTP098	ltpFR	0	5	0	CENT	270	n/a	0	n/a	n/a	n/a	n/a	n/a
1045313	REC_WORD	wordpools/wasnorm_wordpool.txt	LTP098	ltpFR	0	5	0	TYPIST	1532	n/a	1	n/a	n/a	n/a	n/a	n/a
1090314	WORD	wordpools/wasnorm_wordpool.txt	LTP098	ltpFR	0	6	0	DOLL	481	n/a	0	0	0.5869140625	0.422607421875	lower	../fonts/amplitud.ttf
1094339	WORD	wordpools/wasnorm_wordpool.txt	LTP098	ltpFR	0	6	0	MAILBOX	857	n/a	1	0	0.5869140625	0.422607421875	lower	../fonts/amplitud.ttf
1098339	WORD	wordpools/wasnorm_wordpool.txt	LTP098	ltpFR	0	6	0	DRESS	495	n/a	1	0	0.5869140625	0.422607421875	lower	../fonts/amplitud.ttf
1102297	WORD	wordpools/wasnorm_wordpool.txt	LTP098	ltpFR	0	6	0	SALMON	1227	n/a	0	0	0.5869140625	0.422607421875	lower	../fonts/amplitud.ttf
1106137	WORD	wordpools/wasnorm_wordpool.txt	LTP098	ltpFR	0	6	0	CARPENTER	246	n/a	1	0	0.5869140625	0.422607421875	lower	../fonts/amplitud.ttf
1110245	WORD	wordpools/wasnorm_wordpool.txt	LTP098	ltpFR	0	6	0	FURNITURE	616	n/a	1	0	0.5869140625	0.422607421875	lower	../fonts/amplitud.ttf
1114070	WORD	wordpools/wasnorm_wordpool.txt	LTP098	ltpFR	0	6	0	PATH	1023	n/a	1	0	0.5869140625	0.422607421875	lower	../fonts/amplitud.ttf
1118119	WORD	wordpools/wasnorm_wordpool.txt	LTP098	ltpFR	0	6	0	OINTMENT	974	n/a	0	0	0.5869140625	0.422607421875	lower	../fonts/amplitud.ttf
1122169	WORD	wordpools/wasnorm_wordpool.txt	LTP098	ltpFR	0	6	0	BUTTON	207	n/a	0	0	0.5869140625	0.422607421875	lower	../fonts/amplitud.ttf
1126185	WORD	wordpools/wasnorm_wordpool.txt	LTP098	ltpFR	0	6	0	ROAD	1196	n/a	1	0	0.5869140625	0.422607421875	lower	../fonts/amplitud.ttf
1130177	WORD	wordpools/wasnorm_wordpool.txt	LTP098	ltpFR	0	6	0	SHELL	1281	n/a	0	0	0.5869140625	0.422607421875	lower	../fonts/amplitud.ttf
1134135	WORD	wordpools/wasnorm_wordpool.txt	LTP098	ltpFR	0	6	0	HEDGE	699	n/a	1	0	0.5869140625	0.422607421875	lower	../fonts/amplitud.ttf
1138134	WORD	wordpools/wasnorm_wordpool.txt	LTP098	ltpFR	0	6	0	LAWN	805	n/a	1	0	0.5869140625	0.422607421875	lower	../fonts/amplitud.ttf
1142209	WORD	wordpools/wasnorm_wordpool.txt	LTP098	ltpFR	0	6	0	DANDRUFF	439	n/a	0	0	0.5869140625	0.422607421875	lower	../fonts/amplitud.ttf
1146401	WORD	wordpools/wasnorm_wordpool.txt	LTP098	ltpFR	0	6	0	WATER	1594	n/a	1	0	0.5869140625	0.422607421875	lower	../fonts/amplitud.ttf
1150510	WORD	wordpools/wasnorm_wordpool.txt	LTP098	ltpFR	0	6	0	TREAD	1499	n/a	1	0	0.5869140625	0.422607421875	lower	../fonts/amplitud.ttf
1156275	REC_START	n/a	LTP098	ltpFR	0	6	n/a	n/a	n/a	n/a	n/a	n/a	n/a	n/a	n/a	n/a
1157327	REC_WORD	wordpools/wasnorm_wordpool.txt	LTP098	ltpFR	0	6	0	TREAD	1499	n/a	1	n/a	n/a	n/a	n/a	n/a
1158225	REC_WORD	wordpools/wasnorm_wordpool.txt	LTP098	ltpFR	0	6	0	WATER	1594	n/a	1	n/a	n/a	n/a	n/a	n/a
1159193	REC_WORD	wordpools/wasnorm_wordpool.txt	LTP098	ltpFR	0	6	0	DANDRUFF	439	n/a	0	n/a	n/a	n/a	n/a	n/a
1161149	REC_WORD	wordpools/wasnorm_wordpool.txt	LTP098	ltpFR	0	6	0	CARPENTER	246	n/a	1	n/a	n/a	n/a	n/a	n/a
1167834	REC_WORD	wordpools/wasnorm_wordpool.txt	LTP098	ltpFR	0	6	0	OINTMENT	974	n/a	0	n/a	n/a	n/a	n/a	n/a
1170388	REC_WORD	wordpools/wasnorm_wordpool.txt	LTP098	ltpFR	0	6	0	DOLL	481	n/a	0	n/a	n/a	n/a	n/a	n/a
1171575	REC_WORD	wordpools/wasnorm_wordpool.txt	LTP098	ltpFR	0	6	0	DRESS	495	n/a	1	n/a	n/a	n/a	n/a	n/a
1179931	REC_WORD	wordpools/wasnorm_wordpool.txt	LTP098	ltpFR	0	6	0	PATH	1023	n/a	1	n/a	n/a	n/a	n/a	n/a
1236520	WORD	wordpools/wasnorm_wordpool.txt	LTP098	ltpFR	0	7	0	BLENDER	136	n/a	1	0	0.5869140625	0.422607421875	lower	../fonts/amplitud.ttf
1240603	WORD	wordpools/wasnorm_wordpool.txt	LTP098	ltpFR	0	7	0	TANGERINE	1431	n/a	0	0	0.5869140625	0.422607421875	lower	../fonts/amplitud.ttf
1244644	WORD	wordpools/wasnorm_wordpool.txt	LTP098	ltpFR	0	7	0	ORCHID	982	n/a	0	0	0.5869140625	0.422607421875	lower	../fonts/amplitud.ttf
1248685	WORD	wordpools/wasnorm_wordpool.txt	LTP098	ltpFR	0	7	0	LIP	828	n/a	0	0	0.5869140625	0.422607421875	lower	../fonts/amplitud.ttf
1252835	WORD	wordpools/wasnorm_wordpool.txt	LTP098	ltpFR	0	7	0	SKILLET	1317	n/a	0	0	0.5869140625	0.422607421875	lower	../fonts/amplitud.ttf
1256810	WORD	wordpools/wasnorm_wordpool.txt	LTP098	ltpFR	0	7	0	CAPTAIN	239	n/a	1	0	0.5869140625	0.422607421875	lower	../fonts/amplitud.ttf
1260942	WORD	wordpools/wasnorm_wordpool.txt	LTP098	ltpFR	0	7	0	RIVER	1194	n/a	1	0	0.5869140625	0.422607421875	lower	../fonts/amplitud.ttf
1264892	WORD	wordpools/wasnorm_wordpool.txt	LTP098	ltpFR	0	7	0	CANAL	226	n/a	1	0	0.5869140625	0.422607421875	lower	../fonts/amplitud.ttf
1268958	WORD	wordpools/wasnorm_wordpool.txt	LTP098	ltpFR	0	7	0	CLASS	318	n/a	1	0	0.5869140625	0.422607421875	lower	../fonts/amplitud.ttf
1272991	WORD	wordpools/wasnorm_wordpool.txt	LTP098	ltpFR	0	7	0	PERSONNEL	1053	n/a	1	0	0.5869140625	0.422607421875	lower	../fonts/amplitud.ttf
1277199	WORD	wordpools/wasnorm_wordpool.txt	LTP098	ltpFR	0	7	0	DOCK	477	n/a	1	0	0.5869140625	0.422607421875	lower	../fonts/amplitud.ttf
1281174	WORD	wordpools/wasnorm_wordpool.txt	LTP098	ltpFR	0	7	0	CHIME	300	n/a	0	0	0.5869140625	0.422607421875	lower	../fonts/amplitud.ttf
1285374	WORD	wordpools/wasnorm_wordpool.txt	LTP098	ltpFR	0	7	0	MAPLE	866	n/a	1	0	0.5869140625	0.422607421875	lower	../fonts/amplitud.ttf
1289223	WORD	wordpools/wasnorm_wordpool.txt	LTP098	ltpFR	0	7	0	FIG	563	n/a	1	0	0.5869140625	0.422607421875	lower	../fonts/amplitud.ttf
1293231	WORD	wordpools/wasnorm_wordpool.txt	LTP098	ltpFR	0	7	0	VINE	1568	n/a	1	0	0.5869140625	0.422607421875	lower	../fonts/amplitud.ttf
1297231	WORD	wordpools/wasnorm_wordpool.txt	LTP098	ltpFR	0	7	0	HEN	703	n/a	0	0	0.5869140625	0.422607421875	lower	../fonts/amplitud.ttf
1303056	REC_START	n/a	LTP098	ltpFR	0	7	n/a	n/a	n/a	n/a	n/a	n/a	n/a	n/a	n/a	n/a
1304163	REC_WORD	wordpools/wasnorm_wordpool.txt	LTP098	ltpFR	0	7	0	RIVER	1194	n/a	1	n/a	n/a	n/a	n/a	n/a
1305016	REC_WORD	wordpools/wasnorm_wordpool.txt	LTP098	ltpFR	0	7	0	DOCK	477	n/a	1	n/a	n/a	n/a	n/a	n/a
1306423	REC_WORD	wordpools/wasnorm_wordpool.txt	LTP098	ltpFR	0	7	0	CHIME	300	n/a	0	n/a	n/a	n/a	n/a	n/a
1309047	REC_WORD	wordpools/wasnorm_wordpool.txt	LTP098	ltpFR	0	7	0	ORCHID	982	n/a	0	n/a	n/a	n/a	n/a	n/a
1310703	REC_WORD	wordpools/wasnorm_wordpool.txt	LTP098	ltpFR	0	7	0	FIG	563	n/a	1	n/a	n/a	n/a	n/a	n/a
1311811	REC_WORD	wordpools/wasnorm_wordpool.txt	LTP098	ltpFR	0	7	0	MAPLE	866	n/a	1	n/a	n/a	n/a	n/a	n/a
1365160	REC_WORD	wordpools/wasnorm_wordpool.txt	LTP098	ltpFR	0	7	0	PERSONNEL	1053	n/a	1	n/a	n/a	n/a	n/a	n/a
1370717	REC_WORD	wordpools/wasnorm_wordpool.txt	LTP098	ltpFR	0	7	0	CLASS	318	n/a	1	n/a	n/a	n/a	n/a	n/a
1382074	WORD	wordpools/wasnorm_wordpool.txt	LTP098	ltpFR	0	8	0	PAPER	1011	n/a	1	0	0.5869140625	0.422607421875	lower	../fonts/amplitud.ttf
1386091	WORD	wordpools/wasnorm_wordpool.txt	LTP098	ltpFR	0	8	0	MAGAZINE	853	n/a	0	0	0.5869140625	0.422607421875	lower	../fonts/amplitud.ttf
1390274	WORD	wordpools/wasnorm_wordpool.txt	LTP098	ltpFR	0	8	0	PORCUPINE	1107	n/a	1	0	0.5869140625	0.422607421875	lower	../fonts/amplitud.ttf
1394358	WORD	wordpools/wasnorm_wordpool.txt	LTP098	ltpFR	0	8	0	FOREST	593	n/a	1	0	0.5869140625	0.422607421875	lower	../fonts/amplitud.ttf
1398407	WORD	wordpools/wasnorm_wordpool.txt	LTP098	ltpFR	0	8	0	PISTOL	1075	n/a	0	0	0.5869140625	0.422607421875	lower	../fonts/amplitud.ttf
1402299	WORD	wordpools/wasnorm_wordpool.txt	LTP098	ltpFR	0	8	0	TRIGGER	1507	n/a	0	0	0.5869140625	0.422607421875	lower	../fonts/amplitud.ttf
1406473	WORD	wordpools/wasnorm_wordpool.txt	LTP098	ltpFR	0	8	0	POSSUM	1112	n/a	1	0	0.5869140625	0.422607421875	lower	../fonts/amplitud.ttf
1410381	WORD	wordpools/wasnorm_wordpool.txt	LTP098	ltpFR	0	8	0	POTATO	1115	n/a	0	0	0.5869140625	0.422607421875	lower	../fonts/amplitud.ttf
1414339	WORD	wordpools/wasnorm_wordpool.txt	LTP098	ltpFR	0	8	0	OTTER	986	n/a	1	0	0.5869140625	0.422607421875	lower	../fonts/amplitud.ttf
1418163	WORD	wordpools/wasnorm_wordpool.txt	LTP098	ltpFR	0	8	0	GARAGE	621	n/a	1	0	0.5869140625	0.422607421875	lower	../fonts/amplitud.ttf
1421988	WORD	wordpools/wasnorm_wordpool.txt	LTP098	ltpFR	0	8	0	ARTICLE	42	n/a	0	0	0.5869140625	0.422607421875	lower	../fonts/amplitud.ttf
1425822	WORD	wordpools/wasnorm_wordpool.txt	LTP098	ltpFR	0	8	0	CHIP	303	n/a	0	0	0.5869140625	0.422607421875	lower	../fonts/amplitud.ttf
1429680	WORD	wordpools/wasnorm_wordpool.txt	LTP098	ltpFR	0	8	0	MEAL	882	n/a	1	0	0.5869140625	0.422607421875	lower	../fonts/amplitud.ttf
1433830	WORD	wordpools/wasnorm_wordpool.txt	LTP098	ltpFR	0	8	0	FLASHLIGHT	575	n/a	0	0	0.5869140625	0.422607421875	lower	../fonts/amplitud.ttf
1437688	WORD	wordpools/wasnorm_wordpool.txt	LTP098	ltpFR	0	8	0	WAX	1597	n/a	0	0	0.5869140625	0.422607421875	lower	../fonts/amplitud.ttf
1441846	WORD	wordpools/wasnorm_wordpool.txt	LTP098	ltpFR	0	8	0	MARINE	869	n/a	1	0	0.5869140625	0.422607421875	lower	../fonts/amplitud.ttf
1447754	REC_START	n/a	LTP098	ltpFR	0	8	n/a	n/a	n/a	n/a	n/a	n/a	n/a	n/a	n/a	n/a
1448357	REC_WORD	wordpools/wasnorm_wordpool.txt	LTP098	ltpFR	0	8	0	ARTICLE	42	n/a	0	n/a	n/a	n/a	n/a	n/a
1449001	REC_WORD	wordpools/wasnorm_wordpool.txt	LTP098	ltpFR	0	8	0	CHIP	303	n/a	0	n/a	n/a	n/a	n/a	n/a
1449525	REC_WORD	wordpools/wasnorm_wordpool.txt	LTP098	ltpFR	0	8	0	MARINE	869	n/a	1	n/a	n/a	n/a	n/a	n/a
1450363	REC_WORD	wordpools/wasnorm_wordpool.txt	LTP098	ltpFR	0	8	0	WAX	1597	n/a	0	n/a	n/a	n/a	n/a	n/a
1452663	REC_WORD	wordpools/wasnorm_wordpool.txt	LTP098	ltpFR	0	8	0	PORCUPINE	1107	n/a	1	n/a	n/a	n/a	n/a	n/a
1453483	REC_WORD	wordpools/wasnorm_wordpool.txt	LTP098	ltpFR	0	8	0	POSSUM	1112	n/a	1	n/a	n/a	n/a	n/a	n/a
1454274	REC_WORD	wordpools/wasnorm_wordpool.txt	LTP098	ltpFR	0	8	0	OTTER	986	n/a	1	n/a	n/a	n/a	n/a	n/a
1486032	REC_WORD	wordpools/wasnorm_wordpool.txt	LTP098	ltpFR	0	8	0	MEAL	882	n/a	1	n/a	n/a	n/a	n/a	n/a
1540171	WORD	wordpools/wasnorm_wordpool.txt	LTP098	ltpFR	0	9	1	STRING	1394	n/a	2	1	0.412841796875	0.57763671875	upper	../fonts/zerothre.ttf
1542037	KEY_MSG	n/a	LTP098	ltpFR	0	9	n/a	n/a	n/a	n/a	n/a	n/a	n/a	n/a	n/a	n/a
1544671	WORD	wordpools/wasnorm_wordpool.txt	LTP098	ltpFR	0	9	1	LOG	841	n/a	1	1	0.412841796875	0.57763671875	upper	../fonts/zerothre.ttf
1548488	WORD	wordpools/wasnorm_wordpool.txt	LTP098	ltpFR	0	9	1	TECHNICIAN	1443	n/a	1	1	0.412841796875	0.57763671875	upper	../fonts/zerothre.ttf
1552396	WORD	wordpools/wasnorm_wordpool.txt	LTP098	ltpFR	0	9	1	KITE	779	n/a	0	1	0.412841796875	0.57763671875	upper	../fonts/zerothre.ttf
1556261	WORD	wordpools/wasnorm_wordpool.txt	LTP098	ltpFR	0	9	1	DRINK	498	n/a	0	1	0.412841796875	0.57763671875	upper	../fonts/zerothre.ttf
1560102	WORD	wordpools/wasnorm_wordpool.txt	LTP098	ltpFR	0	9	1	BEVERAGE	123	n/a	0	1	0.412841796875	0.57763671875	upper	../fonts/zerothre.ttf
1564277	WORD	wordpools/wasnorm_wordpool.txt	LTP098	ltpFR	0	9	1	SUBURB	1399	n/a	0	1	0.412841796875	0.57763671875	upper	../fonts/zerothre.ttf
1568344	WORD	wordpools/wasnorm_wordpool.txt	LTP098	ltpFR	0	9	1	ARCHITECT	36	n/a	1	1	0.412841796875	0.57763671875	upper	../fonts/zerothre.ttf
1572185	WORD	wordpools/wasnorm_wordpool.txt	LTP098	ltpFR	0	9	1	TIGER	1467	n/a	1	1	0.412841796875	0.57763671875	upper	../fonts/zerothre.ttf
1576101	WORD	wordpools/wasnorm_wordpool.txt	LTP098	ltpFR	0	9	1	COUGAR	387	n/a	1	1	0.412841796875	0.57763671875	upper	../fonts/zerothre.ttf
1580051	WORD	wordpools/wasnorm_wordpool.txt	LTP098	ltpFR	0	9	1	DENIM	446	n/a	0	1	0.412841796875	0.57763671875	upper	../fonts/zerothre.ttf
1584042	WORD	wordpools/wasnorm_wordpool.txt	LTP098	ltpFR	0	9	1	TWIN	1528	n/a	1	1	0.412841796875	0.57763671875	upper	../fonts/zerothre.ttf
1588117	WORD	wordpools/wasnorm_wordpool.txt	LTP098	ltpFR	0	9	1	DIAGRAM	456	n/a	0	1	0.412841796875	0.57763671875	upper	../fonts/zerothre.ttf
1591933	WORD	wordpools/wasnorm_wordpool.txt	LTP098	ltpFR	0	9	1	COMPUTER	359	n/a	0	1	0.412841796875	0.57763671875	upper	../fonts/zerothre.ttf
1595767	WORD	wordpools/wasnorm_wordpool.txt	LTP098	ltpFR	0	9	1	PENGUIN	1044	n/a	1	1	0.412841796875	0.57763671875	upper	../fonts/zerothre.ttf
1599575	WORD	wordpools/wasnorm_wordpool.txt	LTP098	ltpFR	0	9	1	LUMBER	848	n/a	1	1	0.412841796875	0.57763671875	upper	../fonts/zerothre.ttf
1605250	REC_START	n/a	LTP098	ltpFR	0	9	n/a	n/a	n/a	n/a	n/a	n/a	n/a	n/a	n/a	n/a
1606203	REC_WORD	wordpools/wasnorm_wordpool.txt	LTP098	ltpFR	0	9	1	LUMBER	848	n/a	1	n/a	n/a	n/a	n/a	n/a
1607029	REC_WORD	wordpools/wasnorm_wordpool.txt	LTP098	ltpFR	0	9	1	PENGUIN	1044	n/a	1	n/a	n/a	n/a	n/a	n/a
1607818	REC_WORD	wordpools/wasnorm_wordpool.txt	LTP098	ltpFR	0	9	1	ARCHITECT	36	n/a	1	n/a	n/a	n/a	n/a	n/a
1609216	REC_WORD	wordpools/wasnorm_wordpool.txt	LTP098	ltpFR	0	9	1	ARCHITECT	36	n/a	1	n/a	n/a	n/a	n/a	n/a
1609669	REC_WORD	wordpools/wasnorm_wordpool.txt	LTP098	ltpFR	0	9	1	SUBURB	1399	n/a	0	n/a	n/a	n/a	n/a	n/a
1619303	REC_WORD	wordpools/wasnorm_wordpool.txt	LTP098	ltpFR	0	9	1	TWIN	1528	n/a	1	n/a	n/a	n/a	n/a	n/a
1651111	REC_WORD	wordpools/wasnorm_wordpool.txt	LTP098	ltpFR	0	9	1	KITE	779	n/a	0	n/a	n/a	n/a	n/a	n/a
1684677	WORD	wordpools/wasnorm_wordpool.txt	LTP098	ltpFR	0	10	1	DAM	436	n/a	0	1	0.412841796875	0.57763671875	upper	../fonts/zerothre.ttf
1688544	WORD	wordpools/wasnorm_wordpool.txt	LTP098	ltpFR	0	10	1	DISH	474	n/a	0	1	0.412841796875	0.57763671875	upper	../fonts/zerothre.ttf
1692477	WORD	wordpools/wasnorm_wordpool.txt	LTP098	ltpFR	0	10	1	SANDWICH	1232	n/a	0	1	0.412841796875	0.57763671875	upper	../fonts/zerothre.ttf
1696385	WORD	wordpools/wasnorm_wordpool.txt	LTP098	ltpFR	0	10	1	KEEPER	769	n/a	1	1	0.412841796875	0.57763671875	upper	../fonts/zerothre.ttf
1700593	WORD	wordpools/wasnorm_wordpool.txt	LTP098	ltpFR	0	10	1	DOORBELL	487	n/a	0	1	0.412841796875	0.57763671875	upper	../fonts/zerothre.ttf
1704409	WORD	wordpools/wasnorm_wordpool.txt	LTP098	ltpFR	0	10	1	BELL	118	n/a	0	1	0.412841796875	0.57763671875	upper	../fonts/zerothre.ttf
1708450	WORD	wordpools/wasnorm_wordpool.txt	LTP098	ltpFR	0	10	1	VIRUS	1572	n/a	1	1	0.412841796875	0.57763671875	upper	../fonts/zerothre.ttf
1712459	WORD	wordpools/wasnorm_wordpool.txt	LTP098	ltpFR	0	10	1	MONGOOSE	909	n/a	1	1	0.412841796875	0.57763671875	upper	../fonts/zerothre.ttf
1716642	WORD	wordpools/wasnorm_wordpool.txt	LTP098	ltpFR	0	10	1	UNIVERSE	1540	n/a	1	1	0.412841796875	0.57763671875	upper	../fonts/zerothre.ttf
1720666	WORD	wordpools/wasnorm_wordpool.txt	LTP098	ltpFR	0	10	1	CREAM	402	n/a	0	1	0.412841796875	0.57763671875	upper	../fonts/zerothre.ttf
1724766	WORD	wordpools/wasnorm_wordpool.txt	LTP098	ltpFR	0	10	1	ATTIC	56	n/a	0	1	0.412841796875	0.57763671875	upper	../fonts/zerothre.ttf
1728931	WORD	wordpools/wasnorm_wordpool.txt	LTP098	ltpFR	0	10	1	CROCODILE	411	n/a	1	1	0.412841796875	0.57763671875	upper	../fonts/zerothre.ttf
1733123	WORD	wordpools/wasnorm_wordpool.txt	LTP098	ltpFR	0	10	1	SNAKE	1333	n/a	1	1	0.412841796875	0.57763671875	upper	../fonts/zerothre.ttf
1737307	WORD	wordpools/wasnorm_wordpool.txt	LTP098	ltpFR	0	10	1	GALAXY	617	n/a	1	1	0.412841796875	0.57763671875	upper	../fonts/zerothre.ttf
1741139	WORD	wordpools/wasnorm_wordpool.txt	LTP098	ltpFR	0	10	1	SUPERMARKET	1409	n/a	0	1	0.412841796875	0.57763671875	upper	../fonts/zerothre.ttf
1745013	WORD	wordpools/wasnorm_wordpool.txt	LTP098	ltpFR	0	10	1	FLASK	576	n/a	0	1	0.412841796875	0.57763671875	upper	../fonts/zerothre.ttf
1751030	REC_START	n/a	LTP098	ltpFR	0	10	n/a	n/a	n/a	n/a	n/a	n/a	n/a	n/a	n/a	n/a
1751753	REC_WORD	wordpools/wasnorm_wordpool.txt	LTP098	ltpFR	0	10	1	SUPERMARKET	1409	n/a	0	n/a	n/a	n/a	n/a	n/a
1752739	REC_WORD	wordpools/wasnorm_wordpool.txt	LTP098	ltpFR	0	10	1	FLASK	576	n/a	0	n/a	n/a	n/a	n/a	n/a
1753779	REC_WORD	wordpools/wasnorm_wordpool.txt	LTP098	ltpFR	0	10	1	MONGOOSE	909	n/a	1	n/a	n/a	n/a	n/a	n/a
1757021	REC_WORD	wordpools/wasnorm_wordpool.txt	LTP098	ltpFR	0	10	1	UNIVERSE	1540	n/a	1	n/a	n/a	n/a	n/a	n/a
1758548	REC_WORD	wordpools/wasnorm_wordpool.txt	LTP098	ltpFR	0	10	1	GALAXY	617	n/a	1	n/a	n/a	n/a	n/a	n/a
1770351	REC_WORD	wordpools/wasnorm_wordpool.txt	LTP098	ltpFR	0	10	1	CROCODILE	411	n/a	1	n/a	n/a	n/a	n/a	n/a
1835308	WORD	wordpools/wasnorm_wordpool.txt	LTP098	ltpFR	0	11	1	DELINQUENT	445	n/a	1	1	0.412841796875	0.57763671875	upper	../fonts/zerothre.ttf
1839507	WORD	wordpools/wasnorm_wordpool.txt	LTP098	ltpFR	0	11	1	LAMP	798	n/a	0	1	0.412841796875	0.57763671875	upper	../fonts/zerothre.ttf
1843674	WORD	wordpools/wasnorm_wordpool.txt	LTP098	ltpFR	0	11	1	SQUIRREL	1362	n/a	1	1	0.412841796875	0.57763671875	upper	../fonts/zerothre.ttf
1847815	WORD	wordpools/wasnorm_wordpool.txt	LTP098	ltpFR	0	11	1	CASHEW	253	n/a	0	1	0.412841796875	0.57763671875	upper	../fonts/zerothre.ttf
1851656	WORD	wordpools/wasnorm_wordpool.txt	LTP098	ltpFR	0	11	1	CHILD	299	n/a	1	1	0.412841796875	0.57763671875	upper	../fonts/zerothre.ttf
1855856	WORD	wordpools/wasnorm_wordpool.txt	LTP098	ltpFR	0	11	1	LEAF	808	n/a	1	1	0.412841796875	0.57763671875	upper	../fonts/zerothre.ttf
1860005	WORD	wordpools/wasnorm_wordpool.txt	LTP098	ltpFR	0	11	1	MAILMAN	858	n/a	1	1	0.412841796875	0.57763671875	upper	../fonts/zerothre.ttf
1864021	WORD	wordpools/wasnorm_wordpool.txt	LTP098	ltpFR	0	11	1	COOLER	375	n/a	0	1	0.412841796875	0.57763671875	upper	../fonts/zerothre.ttf
1867946	WORD	wordpools/wasnorm_wordpool.txt	LTP098	ltpFR	0	11	1	BLUEPRINT	142	n/a	0	1	0.412841796875	0.57763671875	upper	../fonts/zerothre.ttf
1872137	WORD	wordpools/wasnorm_wordpool.txt	LTP098	ltpFR	0	11	1	WIDOW	1608	n/a	1	1	0.412841796875	0.57763671875	upper	../fonts/zerothre.ttf
1876278	WORD	wordpools/wasnorm_wordpool.txt	LTP098	ltpFR	0	11	1	TICK	1463	n/a	0	1	0.412841796875	0.57763671875	upper	../fonts/zerothre.ttf
1880396	WORD	wordpools/wasnorm_wordpool.txt	LTP098	ltpFR	0	11	1	INSECT	740	n/a	1	1	0.412841796875	0.57763671875	upper	../fonts/zerothre.ttf
1884520	WORD	wordpools/wasnorm_wordpool.txt	LTP098	ltpFR	0	11	1	SCROLL	1257	n/a	0	1	0.412841796875	0.57763671875	upper	../fonts/zerothre.ttf
1888487	WORD	wordpools/wasnorm_wordpool.txt	LTP098	ltpFR	0	11	1	CEMETERY	269	n/a	0	1	0.412841796875	0.57763671875	upper	../fonts/zerothre.ttf
1892345	WORD	wordpools/wasnorm_wordpool.txt	LTP098	ltpFR	0	11	1	FOLDER	588	n/a	0	1	0.412841796875	0.57763671875	upper	../fonts/zerothre.ttf
1896160	WORD	wordpools/wasnorm_wordpool.txt	LTP098	ltpFR	0	11	1	RECEPTIONIST	1174	n/a	1	1	0.412841796875	0.57763671875	upper	../fonts/zerothre.ttf
1902052	REC_START	n/a	LTP098	ltpFR	0	11	n/a	n/a	n/a	n/a	n/a	n/a	n/a	n/a	n/a	n/a
1905399	REC_WORD	wordpools/wasnorm_wordpool.txt	LTP098	ltpFR	0	11	1	CHILD	299	n/a	1	n/a	n/a	n/a	n/a	n/a
1905984	REC_WORD	wordpools/wasnorm_wordpool.txt	LTP098	ltpFR	0	11	1	LEAF	808	n/a	1	n/a	n/a	n/a	n/a	n/a
1906711	REC_WORD	wordpools/wasnorm_wordpool.txt	LTP098	ltpFR	0	11	1	TICK	1463	n/a	0	n/a	n/a	n/a	n/a	n/a
1907225	REC_WORD	wordpools/wasnorm_wordpool.txt	LTP098	ltpFR	0	11	1	INSECT	740	n/a	1	n/a	n/a	n/a	n/a	n/a
1907706	REC_WORD	wordpools/wasnorm_wordpool.txt	LTP098	ltpFR	0	11	1	RECEPTIONIST	1174	n/a	1	n/a	n/a	n/a	n/a	n/a
1908921	REC_WORD	wordpools/wasnorm_wordpool.txt	LTP098	ltpFR	0	11	1	MAILMAN	858	n/a	1	n/a	n/a	n/a	n/a	n/a
1909452	REC_WORD	wordpools/wasnorm_wordpool.txt	LTP098	ltpFR	0	11	1	DELINQUENT	445	n/a	1	n/a	n/a	n/a	n/a	n/a
1930238	REC_WORD	wordpools/wasnorm_wordpool.txt	LTP098	ltpFR	0	11	1	FOLDER	588	n/a	0	n/a	n/a	n/a	n/a	n/a
1957581	REC_WORD	wordpools/wasnorm_wordpool.txt	LTP098	ltpFR	0	11	1	CASHEW	253	n/a	0	n/a	n/a	n/a	n/a	n/a
1980738	WORD	wordpools/wasnorm_wordpool.txt	LTP098	ltpFR	0	12	1	FIREPLACE	570	n/a	0	1	0.412841796875	0.57763671875	upper	../fonts/zerothre.ttf
1984588	WORD	wordpools/wasnorm_wordpool.txt	LTP098	ltpFR	0	12	1	TANK	1432	n/a	0	1	0.412841796875	0.57763671875	upper	../fonts/zerothre.ttf
1988546	WORD	wordpools/wasnorm_wordpool.txt	LTP098	ltpFR	0	12	1	CAT	257	n/a	1	1	0.412841796875	0.57763671875	upper	../fonts/zerothre.ttf
1992362	WORD	wordpools/wasnorm_wordpool.txt	LTP098	ltpFR	0	12	1	STETHOSCOPE	1379	n/a	0	1	0.412841796875	0.57763671875	upper	../fonts/zerothre.ttf
1996420	WORD	wordpools/wasnorm_wordpool.txt	LTP098	ltpFR	0	12	1	PROFESSIONAL	1130	n/a	1	1	0.412841796875	0.57763671875	upper	../fonts/zerothre.ttf
2000277	WORD	wordpools/wasnorm_wordpool.txt	LTP098	ltpFR	0	12	1	SHELTER	1282	n/a	0	1	0.412841796875	0.57763671875	upper	../fonts/zerothre.ttf
2004102	WORD	wordpools/wasnorm_wordpool.txt	LTP098	ltpFR	0	12	1	COLONEL	348	n/a	1	1	0.412841796875	0.57763671875	upper	../fonts/zerothre.ttf
2008227	WORD	wordpools/wasnorm_wordpool.txt	LTP098	ltpFR	0	12	1	COMMANDER	354	n/a	1	1	0.412841796875	0.57763671875	upper	../fonts/zerothre.ttf
2012085	WORD	wordpools/wasnorm_wordpool.txt	LTP098	ltpFR	0	12	1	CEREAL	272	n/a	0	1	0.412841796875	0.57763671875	upper	../fonts/zerothre.ttf
2016226	WORD	wordpools/wasnorm_wordpool.txt	LTP098	ltpFR	0	12	1	BRICK	172	n/a	0	1	0.412841796875	0.57763671875	upper	../fonts/zerothre.ttf
2020067	WORD	wordpools/wasnorm_wordpool.txt	LTP098	ltpFR	0	12	1	ISLAND	745	n/a	0	1	0.412841796875	0.57763671875	upper	../fonts/zerothre.ttf
2024075	WORD	wordpools/wasnorm_wordpool.txt	LTP098	ltpFR	0	12	1	PASSAGE	1019	n/a	0	1	0.412841796875	0.57763671875	upper	../fonts/zerothre.ttf
2028025	WORD	wordpools/wasnorm_wordpool.txt	LTP098	ltpFR	0	12	1	HIKER	708	n/a	1	1	0.412841796875	0.57763671875	upper	../fonts/zerothre.ttf
2031941	WORD	wordpools/wasnorm_wordpool.txt	LTP098	ltpFR	0	12	1	MOUTH	926	n/a	1	1	0.412841796875	0.57763671875	upper	../fonts/zerothre.ttf
2035801	WORD	wordpools/wasnorm_wordpool.txt	LTP098	ltpFR	0	12	1	BRACES	164	n/a	0	1	0.412841796875	0.57763671875	upper	../fonts/zerothre.ttf
2039949	WORD	wordpools/wasnorm_wordpool.txt	LTP098	ltpFR	0	12	1	VET	1560	n/a	1	1	0.412841796875	0.57763671875	upper	../fonts/zerothre.ttf
2045709	REC_START	n/a	LTP098	ltpFR	0	12	n/a	n/a	n/a	n/a	n/a	n/a	n/a	n/a	n/a	n/a
2046232	REC_WORD	wordpools/wasnorm_wordpool.txt	LTP098	ltpFR	0	12	1	VET	1560	n/a	1	n/a	n/a	n/a	n/a	n/a
2046843	REC_WORD	wordpools/wasnorm_wordpool.txt	LTP098	ltpFR	0	12	1	BRACES	164	n/a	0	n/a	n/a	n/a	n/a	n/a
2047510	REC_WORD	wordpools/wasnorm_wordpool.txt	LTP098	ltpFR	0	12	1	MOUTH	926	n/a	1	n/a	n/a	n/a	n/a	n/a
2048607	REC_WORD	wordpools/wasnorm_wordpool.txt	LTP098	ltpFR	0	12	1	ISLAND	745	n/a	0	n/a	n/a	n/a	n/a	n/a
2049266	REC_WORD	wordpools/wasnorm_wordpool.txt	LTP098	ltpFR	0	12	1	COLONEL	348	n/a	1	n/a	n/a	n/a	n/a	n/a
2049934	REC_WORD	wordpools/wasnorm_wordpool.txt	LTP098	ltpFR	0	12	1	COMMANDER	354	n/a	1	n/a	n/a	n/a	n/a	n/a
2051496	REC_WORD	wordpools/wasnorm_wordpool.txt	LTP098	ltpFR	0	12	1	CAT	257	n/a	1	n/a	n/a	n/a	n/a	n/a
2051894	REC_WORD	wordpools/wasnorm_wordpool.txt	LTP098	ltpFR	0	12	1	STETHOSCOPE	1379	n/a	0	n/a	n/a	n/a	n/a	n/a
2069330	REC_WORD	wordpools/wasnorm_wordpool.txt	LTP098	ltpFR	0	12	1	TANK	1432	n/a	0	n/a	n/a	n/a	n/a	n/a
2106635	REC_WORD	wordpools/wasnorm_wordpool.txt	LTP098	ltpFR	0	12	1	PROFESSIONAL	1130	n/a	1	n/a	n/a	n/a	n/a	n/a
2121319	REST_REWET	n/a	LTP098	ltpFR	0	12	n/a	n/a	n/a	n/a	n/a	n/a	n/a	n/a	n/a	n/a
2789618	WORD	wordpools/wasnorm_wordpool.txt	LTP098	ltpFR	0	13	0	COYOTE	396	n/a	1	0	0.5869140625	0.422607421875	lower	../fonts/amplitud.ttf
2793451	WORD	wordpools/wasnorm_wordpool.txt	LTP098	ltpFR	0	13	0	SPARROW	1347	n/a	0	0	0.5869140625	0.422607421875	lower	../fonts/amplitud.ttf
2797643	WORD	wordpools/wasnorm_wordpool.txt	LTP098	ltpFR	0	13	1	ROBIN	1199	n/a	1	1	0.412841796875	0.57763671875	upper	../fonts/zerothre.ttf
2801526	WORD	wordpools/wasnorm_wordpool.txt	LTP098	ltpFR	0	13	1	CRACKER	398	n/a	0	1	0.412841796875	0.57763671875	upper	../fonts/zerothre.ttf
2805600	WORD	wordpools/wasnorm_wordpool.txt	LTP098	ltpFR	0	13	1	STUDENT	1395	n/a	1	1	0.412841796875	0.57763671875	upper	../fonts/zerothre.ttf
2809592	WORD	wordpools/wasnorm_wordpool.txt	LTP098	ltpFR	0	13	1	COLLEGE	346	n/a	0	1	0.412841796875	0.57763671875	upper	../fonts/zerothre.ttf
2813616	WORD	wordpools/wasnorm_wordpool.txt	LTP098	ltpFR	0	13	1	DAUGHTER	442	n/a	1	1	0.412841796875	0.57763671875	upper	../fonts/zerothre.ttf
2817766	WORD	wordpools/wasnorm_wordpool.txt	LTP098	ltpFR	0	13	1	IDOL	733	n/a	0	1	0.412841796875	0.57763671875	upper	../fonts/zerothre.ttf
2821807	WORD	wordpools/wasnorm_wordpool.txt	LTP098	ltpFR	0	13	0	SOFA	1342	n/a	1	0	0.5869140625	0.422607421875	lower	../fonts/amplitud.ttf
2825691	WORD	wordpools/wasnorm_wordpool.txt	LTP098	ltpFR	0	13	0	CHEESE	289	n/a	0	0	0.5869140625	0.422607421875	lower	../fonts/amplitud.ttf
2829657	WORD	wordpools/wasnorm_wordpool.txt	LTP098	ltpFR	0	13	0	BOWL	158	n/a	0	0	0.5869140625	0.422607421875	lower	../fonts/amplitud.ttf
2833765	WORD	wordpools/wasnorm_wordpool.txt	LTP098	ltpFR	0	13	0	TUSK	1523	n/a	1	0	0.5869140625	0.422607421875	lower	../fonts/amplitud.ttf
2837873	WORD	wordpools/wasnorm_wordpool.txt	LTP098	ltpFR	0	13	0	HOUND	724	n/a	1	0	0.5869140625	0.422607421875	lower	../fonts/amplitud.ttf
2841988	WORD	wordpools/wasnorm_wordpool.txt	LTP098	ltpFR	0	13	0	SHRIMP	1297	n/a	0	0	0.5869140625	0.422607421875	lower	../fonts/amplitud.ttf
2845930	WORD	wordpools/wasnorm_wordpool.txt	LTP098	ltpFR	0	13	1	PERCH	1048	n/a	0	1	0.412841796875	0.57763671875	upper	../fonts/zerothre.ttf
2849996	WORD	wordpools/wasnorm_wordpool.txt	LTP098	ltpFR	0	13	1	KIWI	781	n/a	1	1	0.412841796875	0.57763671875	upper	../fonts/zerothre.ttf
2855880	REC_START	n/a	LTP098	ltpFR	0	13	n/a	n/a	n/a	n/a	n/a	n/a	n/a	n/a	n/a	n/a
2856444	REC_WORD	wordpools/wasnorm_wordpool.txt	LTP098	ltpFR	0	13	1	KIWI	781	n/a	1	n/a	n/a	n/a	n/a	n/a
2857122	REC_WORD	wordpools/wasnorm_wordpool.txt	LTP098	ltpFR	0	13	1	IDOL	733	n/a	0	n/a	n/a	n/a	n/a	n/a
2857790	REC_WORD	wordpools/wasnorm_wordpool.txt	LTP098	ltpFR	0	13	0	BOWL	158	n/a	0	n/a	n/a	n/a	n/a	n/a
2858389	REC_WORD	wordpools/wasnorm_wordpool.txt	LTP098	ltpFR	0	13	1	PERCH	1048	n/a	0	n/a	n/a	n/a	n/a	n/a
2859357	REC_WORD	wordpools/wasnorm_wordpool.txt	LTP098	ltpFR	0	13	0	HOUND	724	n/a	1	n/a	n/a	n/a	n/a	n/a
2861771	REC_WORD	wordpools/wasnorm_wordpool.txt	LTP098	ltpFR	0	13	1	DAUGHTER	442	n/a	1	n/a	n/a	n/a	n/a	n/a
2869813	REC_WORD	wordpools/wasnorm_wordpool.txt	LTP098	ltpFR	0	13	0	SHRIMP	1297	n/a	0	n/a	n/a	n/a	n/a	n/a
2886760	REC_WORD	wordpools/wasnorm_wordpool.txt	LTP098	ltpFR	0	13	1	COLLEGE	346	n/a	0	n/a	n/a	n/a	n/a	n/a
2934956	WORD	wordpools/wasnorm_wordpool.txt	LTP098	ltpFR	0	14	1	POPCORN	1104	n/a	0	1	0.412841796875	0.57763671875	upper	../fonts/zerothre.ttf
2938981	WORD	wordpools/wasnorm_wordpool.txt	LTP098	ltpFR	0	14	1	PELICAN	1039	n/a	1	1	0.412841796875	0.57763671875	upper	../fonts/zerothre.ttf
2943097	WORD	wordpools/wasnorm_wordpool.txt	LTP098	ltpFR	0	14	0	FOUNTAIN	597	n/a	1	0	0.5869140625	0.422607421875	lower	../fonts/amplitud.ttf
2947047	WORD	wordpools/wasnorm_wordpool.txt	LTP098	ltpFR	0	14	0	ALLIGATOR	16	n/a	1	0	0.5869140625	0.422607421875	lower	../fonts/amplitud.ttf
2951213	WORD	wordpools/wasnorm_wordpool.txt	LTP098	ltpFR	0	14	0	JOINT	758	n/a	n/a	0	0.5869140625	0.422607421875	lower	../fonts/amplitud.ttf
2954238	SLOW_MSG	n/a	LTP098	ltpFR	0	14	n/a	n/a	n/a	n/a	n/a	n/a	n/a	n/a	n/a	n/a
2956572	WORD	wordpools/wasnorm_wordpool.txt	LTP098	ltpFR	0	14	0	APPENDAGE	32	n/a	0	0	0.5869140625	0.422607421875	lower	../fonts/amplitud.ttf
2960422	WORD	wordpools/wasnorm_wordpool.txt	LTP098	ltpFR	0	14	0	MULE	931	n/a	1	0	0.5869140625	0.422607421875	lower	../fonts/amplitud.ttf
2964480	WORD	wordpools/wasnorm_wordpool.txt	LTP098	ltpFR	0	14	0	GUITAR	670	n/a	1	0	0.5869140625	0.422607421875	lower	../fonts/amplitud.ttf
2968646	WORD	wordpools/wasnorm_wordpool.txt	LTP098	ltpFR	0	14	1	CUSHION	428	n/a	0	1	0.412841796875	0.57763671875	upper	../fonts/zerothre.ttf
2972829	WORD	wordpools/wasnorm_wordpool.txt	LTP098	ltpFR	0	14	1	EMPLOYER	532	n/a	1	1	0.412841796875	0.57763671875	upper	../fonts/zerothre.ttf
2976771	WORD	wordpools/wasnorm_wordpool.txt	LTP098	ltpFR	0	14	0	DIRECTOR	471	n/a	1	0	0.5869140625	0.422607421875	lower	../fonts/amplitud.ttf
2980604	WORD	wordpools/wasnorm_wordpool.txt	LTP098	ltpFR	0	14	0	COUSIN	392	n/a	1	0	0.5869140625	0.422607421875	lower	../fonts/amplitud.ttf
2984787	WORD	wordpools/wasnorm_wordpool.txt	LTP098	ltpFR	0	14	1	PITCHFORK	1078	n/a	0	1	0.412841796875	0.57763671875	upper	../fonts/zerothre.ttf
2988828	WORD	wordpools/wasnorm_wordpool.txt	LTP098	ltpFR	0	14	1	SPOOL	1356	n/a	0	1	0.412841796875	0.57763671875	upper	../fonts/zerothre.ttf
2992952	WORD	wordpools/wasnorm_wordpool.txt	LTP098	ltpFR	0	14	1	QUILT	1151	n/a	0	1	0.412841796875	0.57763671875	upper	../fonts/zerothre.ttf
2996977	WORD	wordpools/wasnorm_wordpool.txt	LTP098	ltpFR	0	14	1	ORGAN	984	n/a	1	1	0.412841796875	0.57763671875	upper	../fonts/zerothre.ttf
3002927	REC_START	n/a	LTP098	ltpFR	0	14	n/a	n/a	n/a	n/a	n/a	n/a	n/a	n/a	n/a	n/a
3003890	REC_WORD	wordpools/wasnorm_wordpool.txt	LTP098	ltpFR	0	14	1	SPOOL	1356	n/a	0	n/a	n/a	n/a	n/a	n/a
3004569	REC_WORD	wordpools/wasnorm_wordpool.txt	LTP098	ltpFR	0	14	0	DIRECTOR	471	n/a	1	n/a	n/a	n/a	n/a	n/a
3005320	REC_WORD	wordpools/wasnorm_wordpool.txt	LTP098	ltpFR	0	14	1	ORGAN	984	n/a	1	n/a	n/a	n/a	n/a	n/a
3006633	REC_WORD	wordpools/wasnorm_wordpool.txt	LTP098	ltpFR	0	14	1	PELICAN	1039	n/a	1	n/a	n/a	n/a	n/a	n/a
3009048	REC_WORD	wordpools/wasnorm_wordpool.txt	LTP098	ltpFR	0	14	1	POPCORN	1104	n/a	0	n/a	n/a	n/a	n/a	n/a
3012350	REC_WORD	wordpools/wasnorm_wordpool.txt	LTP098	ltpFR	0	14	0	JOINT	758	n/a	n/a	n/a	n/a	n/a	n/a	n/a
3023385	REC_WORD	wordpools/wasnorm_wordpool.txt	LTP098	ltpFR	0	14	0	ALLIGATOR	16	n/a	1	n/a	n/a	n/a	n/a	n/a
3032719	REC_WORD	wordpools/wasnorm_wordpool.txt	LTP098	ltpFR	0	14	1	PITCHFORK	1078	n/a	0	n/a	n/a	n/a	n/a	n/a
3083228	WORD	wordpools/wasnorm_wordpool.txt	LTP098	ltpFR	0	15	0	LASER	801	n/a	1	0	0.5869140625	0.422607421875	lower	../fonts/amplitud.ttf
3087061	WORD	wordpools/wasnorm_wordpool.txt	LTP098	ltpFR	0	15	0	ROOT	1210	n/a	0	0	0.5869140625	0.422607421875	lower	../fonts/amplitud.ttf
3091061	WORD	wordpools/wasnorm_wordpool.txt	LTP098	ltpFR	0	15	1	POOL	1103	n/a	0	1	0.412841796875	0.57763671875	upper	../fonts/zerothre.ttf
3094895	WORD	wordpools/wasnorm_wordpool.txt	LTP098	ltpFR	0	15	1	BEAVER	109	n/a	1	1	0.412841796875	0.57763671875	upper	../fonts/zerothre.ttf
3098828	WORD	wordpools/wasnorm_wordpool.txt	LTP098	ltpFR	0	15	1	PRINCESS	1125	n/a	1	1	0.412841796875	0.57763671875	upper	../fonts/zerothre.ttf
3102778	WORD	wordpools/wasnorm_wordpool.txt	LTP098	ltpFR	0	15	1	SIRLOIN	1311	n/a	0	1	0.412841796875	0.57763671875	upper	../fonts/zerothre.ttf
3106644	WORD	wordpools/wasnorm_wordpool.txt	LTP098	ltpFR	0	15	1	SEA	1259	n/a	0	1	0.412841796875	0.57763671875	upper	../fonts/zerothre.ttf
3110769	WORD	wordpools/wasnorm_wordpool.txt	LTP098	ltpFR	0	15	0	STREAM	1392	n/a	1	0	0.5869140625	0.422607421875	lower	../fonts/amplitud.ttf
3114627	WORD	wordpools/wasnorm_wordpool.txt	LTP098	ltpFR	0	15	0	CONE	363	n/a	0	0	0.5869140625	0.422607421875	lower	../fonts/amplitud.ttf
3118735	WORD	wordpools/wasnorm_wordpool.txt	LTP098	ltpFR	0	15	0	SCARF	1246	n/a	0	0	0.5869140625	0.422607421875	lower	../fonts/amplitud.ttf
3122643	WORD	wordpools/wasnorm_wordpool.txt	LTP098	ltpFR	0	15	1	SHORE	1291	n/a	0	1	0.412841796875	0.57763671875	upper	../fonts/zerothre.ttf
3126851	WORD	wordpools/wasnorm_wordpool.txt	LTP098	ltpFR	0	15	1	SHRUB	1299	n/a	1	1	0.412841796875	0.57763671875	upper	../fonts/zerothre.ttf
3130867	WORD	wordpools/wasnorm_wordpool.txt	LTP098	ltpFR	0	15	1	CHAUFFEUR	283	n/a	1	1	0.412841796875	0.57763671875	upper	../fonts/zerothre.ttf
3134750	WORD	wordpools/wasnorm_wordpool.txt	LTP098	ltpFR	0	15	0	DUMP	505	n/a	1	0	0.5869140625	0.422607421875	lower	../fonts/amplitud.ttf
3138817	WORD	wordpools/wasnorm_wordpool.txt	LTP098	ltpFR	0	15	0	LITTER	832	n/a	0	0	0.5869140625	0.422607421875	lower	../fonts/amplitud.ttf
3142957	WORD	wordpools/wasnorm_wordpool.txt	LTP098	ltpFR	0	15	0	SALESMAN	1225	n/a	1	0	0.5869140625	0.422607421875	lower	../fonts/amplitud.ttf
3148858	REC_START	n/a	LTP098	ltpFR	0	15	n/a	n/a	n/a	n/a	n/a	n/a	n/a	n/a	n/a	n/a
3149521	REC_WORD	wordpools/wasnorm_wordpool.txt	LTP098	ltpFR	0	15	0	SALESMAN	1225	n/a	1	n/a	n/a	n/a	n/a	n/a
3150231	REC_WORD	wordpools/wasnorm_wordpool.txt	LTP098	ltpFR	0	15	0	LITTER	832	n/a	0	n/a	n/a	n/a	n/a	n/a
3151075	REC_WORD	wordpools/wasnorm_wordpool.txt	LTP098	ltpFR	0	15	1	SHORE	1291	n/a	0	n/a	n/a	n/a	n/a	n/a
3161654	REC_WORD	wordpools/wasnorm_wordpool.txt	LTP098	ltpFR	0	15	1	SIRLOIN	1311	n/a	0	n/a	n/a	n/a	n/a	n/a
3162592	REC_WORD	wordpools/wasnorm_wordpool.txt	LTP098	ltpFR	0	15	1	CHAUFFEUR	283	n/a	1	n/a	n/a	n/a	n/a	n/a
3186278	REC_WORD	wordpools/wasnorm_wordpool.txt	LTP098	ltpFR	0	15	0	STREAM	1392	n/a	1	n/a	n/a	n/a	n/a	n/a
3228242	WORD	wordpools/wasnorm_wordpool.txt	LTP098	ltpFR	0	16	1	WALLET	1583	n/a	0	1	0.412841796875	0.57763671875	upper	../fonts/zerothre.ttf
3232376	WORD	wordpools/wasnorm_wordpool.txt	LTP098	ltpFR	0	16	1	ELECTRICIAN	521	n/a	1	1	0.412841796875	0.57763671875	upper	../fonts/zerothre.ttf
3236509	WORD	wordpools/wasnorm_wordpool.txt	LTP098	ltpFR	0	16	0	SUBMARINE	1398	n/a	1	0	0.5869140625	0.422607421875	lower	../fonts/amplitud.ttf
3240617	WORD	wordpools/wasnorm_wordpool.txt	LTP098	ltpFR	0	16	0	AUDIENCE	59	n/a	1	0	0.5869140625	0.422607421875	lower	../fonts/amplitud.ttf
3244609	WORD	wordpools/wasnorm_wordpool.txt	LTP098	ltpFR	0	16	0	APE	31	n/a	1	0	0.5869140625	0.422607421875	lower	../fonts/amplitud.ttf
3248525	WORD	wordpools/wasnorm_wordpool.txt	LTP098	ltpFR	0	16	0	SCHOOL	1248	n/a	1	0	0.5869140625	0.422607421875	lower	../fonts/amplitud.ttf
3252408	WORD	wordpools/wasnorm_wordpool.txt	LTP098	ltpFR	0	16	1	COURSE	390	n/a	0	1	0.412841796875	0.57763671875	upper	../fonts/zerothre.ttf
3256333	WORD	wordpools/wasnorm_wordpool.txt	LTP098	ltpFR	0	16	1	RAT	1169	n/a	1	1	0.412841796875	0.57763671875	upper	../fonts/zerothre.ttf
3260474	WORD	wordpools/wasnorm_wordpool.txt	LTP098	ltpFR	0	16	1	PUDDLE	1140	n/a	0	1	0.412841796875	0.57763671875	upper	../fonts/zerothre.ttf
3264674	WORD	wordpools/wasnorm_wordpool.txt	LTP098	ltpFR	0	16	1	GREASE	660	n/a	0	1	0.412841796875	0.57763671875	upper	../fonts/zerothre.ttf
3268790	WORD	wordpools/wasnorm_wordpool.txt	LTP098	ltpFR	0	16	1	BEAN	105	n/a	1	1	0.412841796875	0.57763671875	upper	../fonts/zerothre.ttf
3272773	WORD	wordpools/wasnorm_wordpool.txt	LTP098	ltpFR	0	16	1	KNOT	788	n/a	0	1	0.412841796875	0.57763671875	upper	../fonts/zerothre.ttf
3276955	WORD	wordpools/wasnorm_wordpool.txt	LTP098	ltpFR	0	16	0	PAW	1029	n/a	0	0	0.5869140625	0.422607421875	lower	../fonts/amplitud.ttf
3281088	WORD	wordpools/wasnorm_wordpool.txt	LTP098	ltpFR	0	16	0	DESIGNER	451	n/a	1	0	0.5869140625	0.422607421875	lower	../fonts/amplitud.ttf
3285188	WORD	wordpools/wasnorm_wordpool.txt	LTP098	ltpFR	0	16	0	LAUNDRY	803	n/a	1	0	0.5869140625	0.422607421875	lower	../fonts/amplitud.ttf
3289213	WORD	wordpools/wasnorm_wordpool.txt	LTP098	ltpFR	0	16	0	COMMUNITY	356	n/a	1	0	0.5869140625	0.422607421875	lower	../fonts/amplitud.ttf
3294822	REC_START	n/a	LTP098	ltpFR	0	16	n/a	n/a	n/a	n/a	n/a	n/a	n/a	n/a	n/a	n/a
3295246	REC_WORD	wordpools/wasnorm_wordpool.txt	LTP098	ltpFR	0	16	1	PUDDLE	1140	n/a	0	n/a	n/a	n/a	n/a	n/a
3295854	REC_WORD	wordpools/wasnorm_wordpool.txt	LTP098	ltpFR	0	16	1	GREASE	660	n/a	0	n/a	n/a	n/a	n/a	n/a
3296488	REC_WORD	wordpools/wasnorm_wordpool.txt	LTP098	ltpFR	0	16	0	PAW	1029	n/a	0	n/a	n/a	n/a	n/a	n/a
3297133	REC_WORD	wordpools/wasnorm_wordpool.txt	LTP098	ltpFR	0	16	0	DESIGNER	451	n/a	1	n/a	n/a	n/a	n/a	n/a
3297780	REC_WORD	wordpools/wasnorm_wordpool.txt	LTP098	ltpFR	0	16	0	COMMUNITY	356	n/a	1	n/a	n/a	n/a	n/a	n/a
3315809	REC_WORD	wordpools/wasnorm_wordpool.txt	LTP098	ltpFR	0	16	1	COURSE	390	n/a	0	n/a	n/a	n/a	n/a	n/a
3316782	REC_WORD	wordpools/wasnorm_wordpool.txt	LTP098	ltpFR	0	16	1	RAT	1169	n/a	1	n/a	n/a	n/a	n/a	n/a
3403372	REC_START	n/a	LTP098	ltpFR	0	n/a	n/a	n/a	n/a	n/a	n/a	n/a	n/a	n/a	n/a	n/a
3404943	FFR_REC_WORD	wordpools/wasnorm_wordpool.txt	LTP098	ltpFR	0	n/a	1	CHAUFFEUR	283	n/a	1	n/a	n/a	n/a	n/a	n/a
3405808	FFR_REC_WORD	wordpools/wasnorm_wordpool.txt	LTP098	ltpFR	0	n/a	1	SIRLOIN	1311	n/a	0	n/a	n/a	n/a	n/a	n/a
3407058	FFR_REC_WORD	wordpools/wasnorm_wordpool.txt	LTP098	ltpFR	0	n/a	0	JOINT	758	n/a	n/a	n/a	n/a	n/a	n/a	n/a
3408615	FFR_REC_WORD	wordpools/wasnorm_wordpool.txt	LTP098	ltpFR	0	n/a	1	PUDDLE	1140	n/a	0	n/a	n/a	n/a	n/a	n/a
3410755	FFR_REC_WORD	wordpools/wasnorm_wordpool.txt	LTP098	ltpFR	0	n/a	1	VET	1560	n/a	1	n/a	n/a	n/a	n/a	n/a
3416302	FFR_REC_WORD	wordpools/wasnorm_wordpool.txt	LTP098	ltpFR	0	n/a	0	ALLIGATOR	16	n/a	1	n/a	n/a	n/a	n/a	n/a
3417959	FFR_REC_WORD	wordpools/wasnorm_wordpool.txt	LTP098	ltpFR	0	n/a	1	DAUGHTER	442	n/a	1	n/a	n/a	n/a	n/a	n/a
3419171	FFR_REC_WORD	wordpools/wasnorm_wordpool.txt	LTP098	ltpFR	0	n/a	0	PERSONNEL	1053	n/a	1	n/a	n/a	n/a	n/a	n/a
3420468	FFR_REC_WORD	wordpools/wasnorm_wordpool.txt	LTP098	ltpFR	0	n/a	0	COMMUNITY	356	n/a	1	n/a	n/a	n/a	n/a	n/a
3422972	FFR_REC_WORD	wordpools/wasnorm_wordpool.txt	LTP098	ltpFR	0	n/a	0	SCHOOL	1248	n/a	1	n/a	n/a	n/a	n/a	n/a
3423611	FFR_REC_WORD	wordpools/wasnorm_wordpool.txt	LTP098	ltpFR	0	n/a	-1	SHEPHERD	1283	n/a	-1	n/a	n/a	n/a	n/a	n/a
3424284	FFR_REC_WORD	wordpools/wasnorm_wordpool.txt	LTP098	ltpFR	0	n/a	-1	WOLF	1619	n/a	-1	n/a	n/a	n/a	n/a	n/a
3428784	FFR_REC_WORD	wordpools/wasnorm_wordpool.txt	LTP098	ltpFR	0	n/a	-1	OBOE	969	n/a	-1	n/a	n/a	n/a	n/a	n/a
3433897	FFR_REC_WORD	wordpools/wasnorm_wordpool.txt	LTP098	ltpFR	0	n/a	1	SHORE	1291	n/a	0	n/a	n/a	n/a	n/a	n/a
3434740	FFR_REC_WORD	wordpools/wasnorm_wordpool.txt	LTP098	ltpFR	0	n/a	0	ROAD	1196	n/a	1	n/a	n/a	n/a	n/a	n/a
3438028	FFR_REC_WORD	wordpools/wasnorm_wordpool.txt	LTP098	ltpFR	0	n/a	0	STEAM	1375	n/a	0	n/a	n/a	n/a	n/a	n/a
3440532	FFR_REC_WORD	wordpools/wasnorm_wordpool.txt	LTP098	ltpFR	0	n/a	0	OVAL	990	n/a	0	n/a	n/a	n/a	n/a	n/a
3489282	FFR_REC_WORD	wordpools/wasnorm_wordpool.txt	LTP098	ltpFR	0	n/a	-1	JAW	751	n/a	-1	n/a	n/a	n/a	n/a	n/a
3495532	FFR_REC_WORD	wordpools/wasnorm_wordpool.txt	LTP098	ltpFR	0	n/a	0	LAUNDRY	803	n/a	1	n/a	n/a	n/a	n/a	n/a
3509516	FFR_REC_WORD	wordpools/wasnorm_wordpool.txt	LTP098	ltpFR	0	n/a	-1	OCEAN	970	n/a	-1	n/a	n/a	n/a	n/a	n/a
3546661	FFR_REC_WORD	wordpools/wasnorm_wordpool.txt	LTP098	ltpFR	0	n/a	1	PITCHFORK	1078	n/a	0	n/a	n/a	n/a	n/a	n/a
3617136	FFR_REC_WORD	wordpools/wasnorm_wordpool.txt	LTP098	ltpFR	0	n/a	0	SCHOOL	1248	n/a	1	n/a	n/a	n/a	n/a	n/a
3624933	FFR_REC_WORD	wordpools/wasnorm_wordpool.txt	LTP098	ltpFR	0	n/a	n/a	CRAB	397	n/a	n/a	n/a	n/a	n/a	n/a	n/a
3625776	FFR_REC_WORD	wordpools/wasnorm_wordpool.txt	LTP098	ltpFR	0	n/a	1	COURSE	390	n/a	0	n/a	n/a	n/a	n/a	n/a
3648819	FFR_REC_WORD	wordpools/wasnorm_wordpool.txt	LTP098	ltpFR	0	n/a	1	FOLDER	588	n/a	0	n/a	n/a	n/a	n/a	n/a
3837706	REC_START	n/a	LTP098	ltpFR	0	1	n/a	n/a	n/a	n/a	n/a	n/a	n/a	n/a	n/a	n/a
3837739	RECOG_TARGET	n/a	LTP098	ltpFR	0	1	1	TICK	1463	3	0	n/a	n/a	n/a	n/a	n/a
3840385	RECOG_RESP	n/a	LTP098	ltpFR	0	1	1	TICK	1463	n/a	0	n/a	n/a	n/a	n/a	n/a
3841692	RECOG_RESP_VV	n/a	LTP098	ltpFR	0	1	1	TICK	1463	3	0	n/a	n/a	n/a	n/a	n/a
3845912	RECOG_CONF	n/a	LTP098	ltpFR	0	1	1	TICK	1463	3	0	n/a	n/a	n/a	n/a	n/a
3851262	RECOG_LURE	n/a	LTP098	ltpFR	0	1	n/a	SAUCER	1237	5	n/a	n/a	n/a	n/a	n/a	n/a
3854797	RECOG_RESP	n/a	LTP098	ltpFR	0	1	n/a	SAUCER	1237	n/a	n/a	n/a	n/a	n/a	n/a	n/a
3856009	RECOG_RESP_VV	n/a	LTP098	ltpFR	0	1	n/a	SAUCER	1237	5	n/a	n/a	n/a	n/a	n/a	n/a
3857127	RECOG_CONF	n/a	LTP098	ltpFR	0	1	n/a	SAUCER	1237	5	n/a	n/a	n/a	n/a	n/a	n/a
3862720	RECOG_TARGET	n/a	LTP098	ltpFR	0	1	1	ARCHITECT	36	2	1	n/a	n/a	n/a	n/a	n/a
3866605	RECOG_RESP	n/a	LTP098	ltpFR	0	1	1	ARCHITECT	36	n/a	1	n/a	n/a	n/a	n/a	n/a
3868930	RECOG_CONF	n/a	LTP098	ltpFR	0	1	1	ARCHITECT	36	2	1	n/a	n/a	n/a	n/a	n/a
3873202	RECOG_LURE	n/a	LTP098	ltpFR	0	1	n/a	DICTIONARY	463	5	n/a	n/a	n/a	n/a	n/a	n/a
3874677	RECOG_RESP	n/a	LTP098	ltpFR	0	1	n/a	DICTIONARY	463	n/a	n/a	n/a	n/a	n/a	n/a	n/a
3876143	RECOG_CONF	n/a	LTP098	ltpFR	0	1	n/a	DICTIONARY	463	5	n/a	n/a	n/a	n/a	n/a	n/a
3878093	RECOG_LURE	n/a	LTP098	ltpFR	0	1	n/a	FRAME	600	5	n/a	n/a	n/a	n/a	n/a	n/a
3881112	RECOG_RESP	n/a	LTP098	ltpFR	0	1	n/a	FRAME	600	n/a	n/a	n/a	n/a	n/a	n/a	n/a
3882848	RECOG_CONF	n/a	LTP098	ltpFR	0	1	n/a	FRAME	600	5	n/a	n/a	n/a	n/a	n/a	n/a
3885001	RECOG_TARGET	n/a	LTP098	ltpFR	0	1	1	UNIVERSE	1540	5	1	n/a	n/a	n/a	n/a	n/a
3886470	RECOG_RESP	n/a	LTP098	ltpFR	0	1	1	UNIVERSE	1540	n/a	1	n/a	n/a	n/a	n/a	n/a
3887837	RECOG_CONF	n/a	LTP098	ltpFR	0	1	1	UNIVERSE	1540	5	1	n/a	n/a	n/a	n/a	n/a
3889776	RECOG_LURE	n/a	LTP098	ltpFR	0	1	n/a	FUR	615	5	n/a	n/a	n/a	n/a	n/a	n/a
3891404	RECOG_RESP	n/a	LTP098	ltpFR	0	1	n/a	FUR	615	n/a	n/a	n/a	n/a	n/a	n/a	n/a
3892826	RECOG_CONF	n/a	LTP098	ltpFR	0	1	n/a	FUR	615	5	n/a	n/a	n/a	n/a	n/a	n/a
3894593	RECOG_TARGET	n/a	LTP098	ltpFR	0	1	-1	SLIDE	1326	3	-1	n/a	n/a	n/a	n/a	n/a
3897375	RECOG_RESP	n/a	LTP098	ltpFR	0	1	-1	SLIDE	1326	n/a	-1	n/a	n/a	n/a	n/a	n/a
3899460	RECOG_CONF	n/a	LTP098	ltpFR	0	1	-1	SLIDE	1326	3	-1	n/a	n/a	n/a	n/a	n/a
3901133	RECOG_TARGET	n/a	LTP098	ltpFR	0	1	-1	RUST	1219	5	-1	n/a	n/a	n/a	n/a	n/a
3903227	RECOG_RESP	n/a	LTP098	ltpFR	0	1	-1	RUST	1219	n/a	-1	n/a	n/a	n/a	n/a	n/a
3904469	RECOG_CONF	n/a	LTP098	ltpFR	0	1	-1	RUST	1219	5	-1	n/a	n/a	n/a	n/a	n/a
3906283	RECOG_TARGET	n/a	LTP098	ltpFR	0	1	-1	MOSS	918	5	-1	n/a	n/a	n/a	n/a	n/a
3907582	RECOG_RESP	n/a	LTP098	ltpFR	0	1	-1	MOSS	918	n/a	-1	n/a	n/a	n/a	n/a	n/a
3908759	RECOG_CONF	n/a	LTP098	ltpFR	0	1	-1	MOSS	918	5	-1	n/a	n/a	n/a	n/a	n/a
3910541	RECOG_LURE	n/a	LTP098	ltpFR	0	1	n/a	BUILDER	190	3	n/a	n/a	n/a	n/a	n/a	n/a
3913504	RECOG_RESP	n/a	LTP098	ltpFR	0	1	n/a	BUILDER	190	n/a	n/a	n/a	n/a	n/a	n/a	n/a
3915923	RECOG_CONF	n/a	LTP098	ltpFR	0	1	n/a	BUILDER	190	3	n/a	n/a	n/a	n/a	n/a	n/a
3917699	RECOG_TARGET	n/a	LTP098	ltpFR	0	1	1	KITE	779	5	0	n/a	n/a	n/a	n/a	n/a
3918931	RECOG_RESP	n/a	LTP098	ltpFR	0	1	1	KITE	779	n/a	0	n/a	n/a	n/a	n/a	n/a
3920273	RECOG_CONF	n/a	LTP098	ltpFR	0	1	1	KITE	779	5	0	n/a	n/a	n/a	n/a	n/a
3921989	RECOG_TARGET	n/a	LTP098	ltpFR	0	1	1	GALAXY	617	5	1	n/a	n/a	n/a	n/a	n/a
3924219	RECOG_RESP	n/a	LTP098	ltpFR	0	1	1	GALAXY	617	n/a	1	n/a	n/a	n/a	n/a	n/a
3925681	RECOG_CONF	n/a	LTP098	ltpFR	0	1	1	GALAXY	617	5	1	n/a	n/a	n/a	n/a	n/a
3927523	RECOG_TARGET	n/a	LTP098	ltpFR	0	1	-1	MOTEL	919	5	-1	n/a	n/a	n/a	n/a	n/a
3930465	RECOG_RESP	n/a	LTP098	ltpFR	0	1	-1	MOTEL	919	n/a	-1	n/a	n/a	n/a	n/a	n/a
3932595	RECOG_CONF	n/a	LTP098	ltpFR	0	1	-1	MOTEL	919	5	-1	n/a	n/a	n/a	n/a	n/a
3934640	RECOG_LURE	n/a	LTP098	ltpFR	0	1	n/a	MICROPHONE	890	3	n/a	n/a	n/a	n/a	n/a	n/a
3936511	RECOG_RESP	n/a	LTP098	ltpFR	0	1	n/a	MICROPHONE	890	n/a	n/a	n/a	n/a	n/a	n/a	n/a
3938711	RECOG_CONF	n/a	LTP098	ltpFR	0	1	n/a	MICROPHONE	890	3	n/a	n/a	n/a	n/a	n/a	n/a
3940664	RECOG_TARGET	n/a	LTP098	ltpFR	0	1	1	CEREAL	272	5	0	n/a	n/a	n/a	n/a	n/a
3941754	RECOG_RESP	n/a	LTP098	ltpFR	0	1	1	CEREAL	272	n/a	0	n/a	n/a	n/a	n/a	n/a
3943021	RECOG_CONF	n/a	LTP098	ltpFR	0	1	1	CEREAL	272	5	0	n/a	n/a	n/a	n/a	n/a
3944855	RECOG_TARGET	n/a	LTP098	ltpFR	0	1	1	WIDOW	1608	5	1	n/a	n/a	n/a	n/a	n/a
3946035	RECOG_RESP	n/a	LTP098	ltpFR	0	1	1	WIDOW	1608	n/a	1	n/a	n/a	n/a	n/a	n/a
3947342	RECOG_CONF	n/a	LTP098	ltpFR	0	1	1	WIDOW	1608	5	1	n/a	n/a	n/a	n/a	n/a
3949179	RECOG_TARGET	n/a	LTP098	ltpFR	0	1	0	SUBMARINE	1398	5	1	n/a	n/a	n/a	n/a	n/a
3950240	RECOG_RESP	n/a	LTP098	ltpFR	0	1	0	SUBMARINE	1398	n/a	1	n/a	n/a	n/a	n/a	n/a
3951542	RECOG_CONF	n/a	LTP098	ltpFR	0	1	0	SUBMARINE	1398	5	1	n/a	n/a	n/a	n/a	n/a
3953288	RECOG_TARGET	n/a	LTP098	ltpFR	0	1	1	COUGAR	387	3	1	n/a	n/a	n/a	n/a	n/a
3955728	RECOG_RESP	n/a	LTP098	ltpFR	0	1	1	COUGAR	387	n/a	1	n/a	n/a	n/a	n/a	n/a
3957089	RECOG_CONF	n/a	LTP098	ltpFR	0	1	1	COUGAR	387	3	1	n/a	n/a	n/a	n/a	n/a
3958729	RECOG_TARGET	n/a	LTP098	ltpFR	0	1	-1	ORNAMENT	985	5	-1	n/a	n/a	n/a	n/a	n/a
3960372	RECOG_RESP	n/a	LTP098	ltpFR	0	1	-1	ORNAMENT	985	n/a	-1	n/a	n/a	n/a	n/a	n/a
3961769	RECOG_CONF	n/a	LTP098	ltpFR	0	1	-1	ORNAMENT	985	5	-1	n/a	n/a	n/a	n/a	n/a
3979748	REC_START	n/a	LTP098	ltpFR	0	2	n/a	n/a	n/a	n/a	n/a	n/a	n/a	n/a	n/a	n/a
3979786	RECOG_TARGET	n/a	LTP098	ltpFR	0	2	1	PASSAGE	1019	3	0	n/a	n/a	n/a	n/a	n/a
3981668	RECOG_RESP	n/a	LTP098	ltpFR	0	2	1	PASSAGE	1019	n/a	0	n/a	n/a	n/a	n/a	n/a
3983115	RECOG_CONF	n/a	LTP098	ltpFR	0	2	1	PASSAGE	1019	3	0	n/a	n/a	n/a	n/a	n/a
3984811	RECOG_LURE	n/a	LTP098	ltpFR	0	2	n/a	SIDING	1304	5	n/a	n/a	n/a	n/a	n/a	n/a
3986573	RECOG_RESP	n/a	LTP098	ltpFR	0	2	n/a	SIDING	1304	n/a	n/a	n/a	n/a	n/a	n/a	n/a
3987954	RECOG_CONF	n/a	LTP098	ltpFR	0	2	n/a	SIDING	1304	5	n/a	n/a	n/a	n/a	n/a	n/a
3989844	RECOG_LURE	n/a	LTP098	ltpFR	0	2	n/a	FIREMAN	569	4	n/a	n/a	n/a	n/a	n/a	n/a
3990892	RECOG_RESP	n/a	LTP098	ltpFR	0	2	n/a	FIREMAN	569	n/a	n/a	n/a	n/a	n/a	n/a	n/a
3992624	RECOG_CONF	n/a	LTP098	ltpFR	0	2	n/a	FIREMAN	569	4	n/a	n/a	n/a	n/a	n/a	n/a
3994377	RECOG_LURE	n/a	LTP098	ltpFR	0	2	n/a	LADY	794	4	n/a	n/a	n/a	n/a	n/a	n/a
3995422	RECOG_RESP	n/a	LTP098	ltpFR	0	2	n/a	LADY	794	n/a	n/a	n/a	n/a	n/a	n/a	n/a
3997004	RECOG_CONF	n/a	LTP098	ltpFR	0	2	n/a	LADY	794	4	n/a	n/a	n/a	n/a	n/a	n/a
3998535	RECOG_TARGET	n/a	LTP098	ltpFR	0	2	-1	TOASTER	1472	4	-1	n/a	n/a	n/a	n/a	n/a
4000236	RECOG_RESP	n/a	LTP098	ltpFR	0	2	-1	TOASTER	1472	n/a	-1	n/a	n/a	n/a	n/a	n/a
4001394	RECOG_CONF	n/a	LTP098	ltpFR	0	2	-1	TOASTER	1472	4	-1	n/a	n/a	n/a	n/a	n/a
4003100	RECOG_LURE	n/a	LTP098	ltpFR	0	2	n/a	INTESTINE	742	3	n/a	n/a	n/a	n/a	n/a	n/a
4005010	RECOG_RESP	n/a	LTP098	ltpFR	0	2	n/a	INTESTINE	742	n/a	n/a	n/a	n/a	n/a	n/a	n/a
4006263	RECOG_CONF	n/a	LTP098	ltpFR	0	2	n/a	INTESTINE	742	3	n/a	n/a	n/a	n/a	n/a	n/a
4007726	RECOG_LURE	n/a	LTP098	ltpFR	0	2	n/a	BEGGAR	117	5	n/a	n/a	n/a	n/a	n/a	n/a
4009216	RECOG_RESP	n/a	LTP098	ltpFR	0	2	n/a	BEGGAR	117	n/a	n/a	n/a	n/a	n/a	n/a	n/a
4010543	RECOG_CONF	n/a	LTP098	ltpFR	0	2	n/a	BEGGAR	117	5	n/a	n/a	n/a	n/a	n/a	n/a
4011999	RECOG_LURE	n/a	LTP098	ltpFR	0	2	n/a	AMBULANCE	19	5	n/a	n/a	n/a	n/a	n/a	n/a
4013057	RECOG_RESP	n/a	LTP098	ltpFR	0	2	n/a	AMBULANCE	19	n/a	n/a	n/a	n/a	n/a	n/a	n/a
4014604	RECOG_CONF	n/a	LTP098	ltpFR	0	2	n/a	AMBULANCE	19	5	n/a	n/a	n/a	n/a	n/a	n/a
4016199	RECOG_TARGET	n/a	LTP098	ltpFR	0	2	-1	VAMPIRE	1547	5	-1	n/a	n/a	n/a	n/a	n/a
4017327	RECOG_RESP	n/a	LTP098	ltpFR	0	2	-1	VAMPIRE	1547	n/a	-1	n/a	n/a	n/a	n/a	n/a
4018654	RECOG_CONF	n/a	LTP098	ltpFR	0	2	-1	VAMPIRE	1547	5	-1	n/a	n/a	n/a	n/a	n/a
4020149	RECOG_TARGET	n/a	LTP098	ltpFR	0	2	0	CLASS	318	5	1	n/a	n/a	n/a	n/a	n/a
4022266	RECOG_RESP	n/a	LTP098	ltpFR	0	2	0	CLASS	318	n/a	1	n/a	n/a	n/a	n/a	n/a
4023693	RECOG_CONF	n/a	LTP098	ltpFR	0	2	0	CLASS	318	5	1	n/a	n/a	n/a	n/a	n/a
4025215	RECOG_LURE	n/a	LTP098	ltpFR	0	2	n/a	BARRACUDA	90	5	n/a	n/a	n/a	n/a	n/a	n/a
4026192	RECOG_RESP	n/a	LTP098	ltpFR	0	2	n/a	BARRACUDA	90	n/a	n/a	n/a	n/a	n/a	n/a	n/a
4027275	RECOG_CONF	n/a	LTP098	ltpFR	0	2	n/a	BARRACUDA	90	5	n/a	n/a	n/a	n/a	n/a	n/a
4028774	RECOG_TARGET	n/a	LTP098	ltpFR	0	2	1	FOLDER	588	5	0	n/a	n/a	n/a	n/a	n/a
4029884	RECOG_RESP	n/a	LTP098	ltpFR	0	2	1	FOLDER	588	n/a	0	n/a	n/a	n/a	n/a	n/a
4031266	RECOG_CONF	n/a	LTP098	ltpFR	0	2	1	FOLDER	588	5	0	n/a	n/a	n/a	n/a	n/a
4032964	RECOG_TARGET	n/a	LTP098	ltpFR	0	2	1	CASHEW	253	5	0	n/a	n/a	n/a	n/a	n/a
4035766	RECOG_RESP	n/a	LTP098	ltpFR	0	2	1	CASHEW	253	n/a	0	n/a	n/a	n/a	n/a	n/a
4037172	RECOG_CONF	n/a	LTP098	ltpFR	0	2	1	CASHEW	253	5	0	n/a	n/a	n/a	n/a	n/a
4038690	RECOG_TARGET	n/a	LTP098	ltpFR	0	2	0	LITTER	832	5	0	n/a	n/a	n/a	n/a	n/a
4039642	RECOG_RESP	n/a	LTP098	ltpFR	0	2	0	LITTER	832	n/a	0	n/a	n/a	n/a	n/a	n/a
4040794	RECOG_CONF	n/a	LTP098	ltpFR	0	2	0	LITTER	832	5	0	n/a	n/a	n/a	n/a	n/a
4042381	RECOG_TARGET	n/a	LTP098	ltpFR	0	2	0	DIME	466	5	0	n/a	n/a	n/a	n/a	n/a
4043258	RECOG_RESP	n/a	LTP098	ltpFR	0	2	0	DIME	466	n/a	0	n/a	n/a	n/a	n/a	n/a
4044336	RECOG_CONF	n/a	LTP098	ltpFR	0	2	0	DIME	466	5	0	n/a	n/a	n/a	n/a	n/a
4045815	RECOG_LURE	n/a	LTP098	ltpFR	0	2	n/a	ROOSTER	1209	3	n/a	n/a	n/a	n/a	n/a	n/a
4047803	RECOG_RESP	n/a	LTP098	ltpFR	0	2	n/a	ROOSTER	1209	n/a	n/a	n/a	n/a	n/a	n/a	n/a
4048956	RECOG_CONF	n/a	LTP098	ltpFR	0	2	n/a	ROOSTER	1209	3	n/a	n/a	n/a	n/a	n/a	n/a
4050414	RECOG_LURE	n/a	LTP098	ltpFR	0	2	n/a	PIKE	1067	3	n/a	n/a	n/a	n/a	n/a	n/a
4051555	RECOG_RESP	n/a	LTP098	ltpFR	0	2	n/a	PIKE	1067	n/a	n/a	n/a	n/a	n/a	n/a	n/a
4052807	RECOG_CONF	n/a	LTP098	ltpFR	0	2	n/a	PIKE	1067	3	n/a	n/a	n/a	n/a	n/a	n/a
4054263	RECOG_LURE	n/a	LTP098	ltpFR	0	2	n/a	DAISY	435	5	n/a	n/a	n/a	n/a	n/a	n/a
4055401	RECOG_RESP	n/a	LTP098	ltpFR	0	2	n/a	DAISY	435	n/a	n/a	n/a	n/a	n/a	n/a	n/a
4056518	RECOG_CONF	n/a	LTP098	ltpFR	0	2	n/a	DAISY	435	5	n/a	n/a	n/a	n/a	n/a	n/a
4057979	RECOG_LURE	n/a	LTP098	ltpFR	0	2	n/a	TROUSERS	1510	5	n/a	n/a	n/a	n/a	n/a	n/a
4058953	RECOG_RESP	n/a	LTP098	ltpFR	0	2	n/a	TROUSERS	1510	n/a	n/a	n/a	n/a	n/a	n/a	n/a
4060070	RECOG_CONF	n/a	LTP098	ltpFR	0	2	n/a	TROUSERS	1510	5	n/a	n/a	n/a	n/a	n/a	n/a
4061580	RECOG_LURE	n/a	LTP098	ltpFR	0	2	n/a	BURGLAR	200	5	n/a	n/a	n/a	n/a	n/a	n/a
4062719	RECOG_RESP	n/a	LTP098	ltpFR	0	2	n/a	BURGLAR	200	n/a	n/a	n/a	n/a	n/a	n/a	n/a
4063812	RECOG_CONF	n/a	LTP098	ltpFR	0	2	n/a	BURGLAR	200	5	n/a	n/a	n/a	n/a	n/a	n/a
4067986	REC_START	n/a	LTP098	ltpFR	0	3	n/a	n/a	n/a	n/a	n/a	n/a	n/a	n/a	n/a	n/a
4068020	RECOG_TARGET	n/a	LTP098	ltpFR	0	3	0	LIP	828	5	0	n/a	n/a	n/a	n/a	n/a
4069393	RECOG_RESP	n/a	LTP098	ltpFR	0	3	0	LIP	828	n/a	0	n/a	n/a	n/a	n/a	n/a
4070575	RECOG_CONF	n/a	LTP098	ltpFR	0	3	0	LIP	828	5	0	n/a	n/a	n/a	n/a	n/a
4071970	RECOG_TARGET	n/a	LTP098	ltpFR	0	3	-1	BATHTUB	100	3	-1	n/a	n/a	n/a	n/a	n/a
4072910	RECOG_RESP	n/a	LTP098	ltpFR	0	3	-1	BATHTUB	100	n/a	-1	n/a	n/a	n/a	n/a	n/a
4073887	RECOG_CONF	n/a	LTP098	ltpFR	0	3	-1	BATHTUB	100	3	-1	n/a	n/a	n/a	n/a	n/a
4075587	RECOG_TARGET	n/a	LTP098	ltpFR	0	3	0	MAGAZINE	853	5	0	n/a	n/a	n/a	n/a	n/a
4076671	RECOG_RESP	n/a	LTP098	ltpFR	0	3	0	MAGAZINE	853	n/a	0	n/a	n/a	n/a	n/a	n/a
4077629	RECOG_CONF	n/a	LTP098	ltpFR	0	3	0	MAGAZINE	853	5	0	n/a	n/a	n/a	n/a	n/a
4079011	RECOG_TARGET	n/a	LTP098	ltpFR	0	3	1	LOG	841	5	1	n/a	n/a	n/a	n/a	n/a
4080043	RECOG_RESP	n/a	LTP098	ltpFR	0	3	1	LOG	841	n/a	1	n/a	n/a	n/a	n/a	n/a
4081041	RECOG_CONF	n/a	LTP098	ltpFR	0	3	1	LOG	841	5	1	n/a	n/a	n/a	n/a	n/a
4082520	RECOG_TARGET	n/a	LTP098	ltpFR	0	3	0	PISTOL	1075	4	0	n/a	n/a	n/a	n/a	n/a
4084334	RECOG_RESP	n/a	LTP098	ltpFR	0	3	0	PISTOL	1075	n/a	0	n/a	n/a	n/a	n/a	n/a
4085421	RECOG_CONF	n/a	LTP098	ltpFR	0	3	0	PISTOL	1075	4	0	n/a	n/a	n/a	n/a	n/a
4086845	RECOG_TARGET	n/a	LTP098	ltpFR	0	3	-1	ONION	977	4	-1	n/a	n/a	n/a	n/a	n/a
4088699	RECOG_RESP	n/a	LTP098	ltpFR	0	3	-1	ONION	977	n/a	-1	n/a	n/a	n/a	n/a	n/a
4089911	RECOG_CONF	n/a	LTP098	ltpFR	0	3	-1	ONION	977	4	-1	n/a	n/a	n/a	n/a	n/a
4091428	RECOG_LURE	n/a	LTP098	ltpFR	0	3	n/a	ANTELOPE	27	5	n/a	n/a	n/a	n/a	n/a	n/a
4092630	RECOG_RESP	n/a	LTP098	ltpFR	0	3	n/a	ANTELOPE	27	n/a	n/a	n/a	n/a	n/a	n/a	n/a
4093922	RECOG_CONF	n/a	LTP098	ltpFR	0	3	n/a	ANTELOPE	27	5	n/a	n/a	n/a	n/a	n/a	n/a
4095319	RECOG_TARGET	n/a	LTP098	ltpFR	0	3	1	BEAN	105	2	1	n/a	n/a	n/a	n/a	n/a
4096745	RECOG_RESP	n/a	LTP098	ltpFR	0	3	1	BEAN	105	n/a	1	n/a	n/a	n/a	n/a	n/a
4098412	RECOG_CONF	n/a	LTP098	ltpFR	0	3	1	BEAN	105	2	1	n/a	n/a	n/a	n/a	n/a
4099918	RECOG_TARGET	n/a	LTP098	ltpFR	0	3	1	TECHNICIAN	1443	5	1	n/a	n/a	n/a	n/a	n/a
4100966	RECOG_RESP	n/a	LTP098	ltpFR	0	3	1	TECHNICIAN	1443	n/a	1	n/a	n/a	n/a	n/a	n/a
4101954	RECOG_CONF	n/a	LTP098	ltpFR	0	3	1	TECHNICIAN	1443	5	1	n/a	n/a	n/a	n/a	n/a
4103402	RECOG_LURE	n/a	LTP098	ltpFR	0	3	n/a	TILE	1468	4	n/a	n/a	n/a	n/a	n/a	n/a
4105491	RECOG_RESP	n/a	LTP098	ltpFR	0	3	n/a	TILE	1468	n/a	n/a	n/a	n/a	n/a	n/a	n/a
4106466	RECOG_CONF	n/a	LTP098	ltpFR	0	3	n/a	TILE	1468	4	n/a	n/a	n/a	n/a	n/a	n/a
4107901	RECOG_TARGET	n/a	LTP098	ltpFR	0	3	0	DUMP	505	3	1	n/a	n/a	n/a	n/a	n/a
4109791	RECOG_RESP	n/a	LTP098	ltpFR	0	3	0	DUMP	505	n/a	1	n/a	n/a	n/a	n/a	n/a
4110833	RECOG_CONF	n/a	LTP098	ltpFR	0	3	0	DUMP	505	3	1	n/a	n/a	n/a	n/a	n/a
4112267	RECOG_TARGET	n/a	LTP098	ltpFR	0	3	-1	PENCIL	1042	5	-1	n/a	n/a	n/a	n/a	n/a
4114889	RECOG_RESP	n/a	LTP098	ltpFR	0	3	-1	PENCIL	1042	n/a	-1	n/a	n/a	n/a	n/a	n/a
4115902	RECOG_CONF	n/a	LTP098	ltpFR	0	3	-1	PENCIL	1042	5	-1	n/a	n/a	n/a	n/a	n/a
4117359	RECOG_TARGET	n/a	LTP098	ltpFR	0	3	0	ROOT	1210	5	0	n/a	n/a	n/a	n/a	n/a
4118386	RECOG_RESP	n/a	LTP098	ltpFR	0	3	0	ROOT	1210	n/a	0	n/a	n/a	n/a	n/a	n/a
4119404	RECOG_CONF	n/a	LTP098	ltpFR	0	3	0	ROOT	1210	5	0	n/a	n/a	n/a	n/a	n/a
4120892	RECOG_TARGET	n/a	LTP098	ltpFR	0	3	1	COURSE	390	5	0	n/a	n/a	n/a	n/a	n/a
4121799	RECOG_RESP	n/a	LTP098	ltpFR	0	3	1	COURSE	390	n/a	0	n/a	n/a	n/a	n/a	n/a
4122696	RECOG_CONF	n/a	LTP098	ltpFR	0	3	1	COURSE	390	5	0	n/a	n/a	n/a	n/a	n/a
4124158	RECOG_TARGET	n/a	LTP098	ltpFR	0	3	0	APPENDAGE	32	5	0	n/a	n/a	n/a	n/a	n/a
4125121	RECOG_RESP	n/a	LTP098	ltpFR	0	3	0	APPENDAGE	32	n/a	0	n/a	n/a	n/a	n/a	n/a
4126119	RECOG_CONF	n/a	LTP098	ltpFR	0	3	0	APPENDAGE	32	5	0	n/a	n/a	n/a	n/a	n/a
4127733	RECOG_TARGET	n/a	LTP098	ltpFR	0	3	0	POSSUM	1112	5	1	n/a	n/a	n/a	n/a	n/a
4128543	RECOG_RESP	n/a	LTP098	ltpFR	0	3	0	POSSUM	1112	n/a	1	n/a	n/a	n/a	n/a	n/a
4129601	RECOG_CONF	n/a	LTP098	ltpFR	0	3	0	POSSUM	1112	5	1	n/a	n/a	n/a	n/a	n/a
4131190	RECOG_LURE	n/a	LTP098	ltpFR	0	3	n/a	BALL	73	4	n/a	n/a	n/a	n/a	n/a	n/a
4132679	RECOG_RESP	n/a	LTP098	ltpFR	0	3	n/a	BALL	73	n/a	n/a	n/a	n/a	n/a	n/a	n/a
4133801	RECOG_CONF	n/a	LTP098	ltpFR	0	3	n/a	BALL	73	4	n/a	n/a	n/a	n/a	n/a	n/a
4135324	RECOG_TARGET	n/a	LTP098	ltpFR	0	3	-1	WOLF	1619	5	-1	n/a	n/a	n/a	n/a	n/a
4136216	RECOG_RESP	n/a	LTP098	ltpFR	0	3	-1	WOLF	1619	n/a	-1	n/a	n/a	n/a	n/a	n/a
4137433	RECOG_CONF	n/a	LTP098	ltpFR	0	3	-1	WOLF	1619	5	-1	n/a	n/a	n/a	n/a	n/a
4138956	RECOG_TARGET	n/a	LTP098	ltpFR	0	3	1	CREAM	402	5	0	n/a	n/a	n/a	n/a	n/a
4139788	RECOG_RESP	n/a	LTP098	ltpFR	0	3	1	CREAM	402	n/a	0	n/a	n/a	n/a	n/a	n/a
4140955	RECOG_CONF	n/a	LTP098	ltpFR	0	3	1	CREAM	402	5	0	n/a	n/a	n/a	n/a	n/a
4142799	RECOG_TARGET	n/a	LTP098	ltpFR	0	3	1	KEEPER	769	5	1	n/a	n/a	n/a	n/a	n/a
4143838	RECOG_RESP	n/a	LTP098	ltpFR	0	3	1	KEEPER	769	n/a	1	n/a	n/a	n/a	n/a	n/a
4145056	RECOG_CONF	n/a	LTP098	ltpFR	0	3	1	KEEPER	769	5	1	n/a	n/a	n/a	n/a	n/a
4149382	REC_START	n/a	LTP098	ltpFR	0	4	n/a	n/a	n/a	n/a	n/a	n/a	n/a	n/a	n/a	n/a
4149415	RECOG_LURE	n/a	LTP098	ltpFR	0	4	n/a	COMPANION	357	3	n/a	n/a	n/a	n/a	n/a	n/a
4151647	RECOG_RESP	n/a	LTP098	ltpFR	0	4	n/a	COMPANION	357	n/a	n/a	n/a	n/a	n/a	n/a	n/a
4152824	RECOG_CONF	n/a	LTP098	ltpFR	0	4	n/a	COMPANION	357	3	n/a	n/a	n/a	n/a	n/a	n/a
4154456	RECOG_LURE	n/a	LTP098	ltpFR	0	4	n/a	CHAPEL	280	5	n/a	n/a	n/a	n/a	n/a	n/a
4155722	RECOG_RESP	n/a	LTP098	ltpFR	0	4	n/a	CHAPEL	280	n/a	n/a	n/a	n/a	n/a	n/a	n/a
4156720	RECOG_CONF	n/a	LTP098	ltpFR	0	4	n/a	CHAPEL	280	5	n/a	n/a	n/a	n/a	n/a	n/a
4158222	RECOG_TARGET	n/a	LTP098	ltpFR	0	4	0	PORCUPINE	1107	5	1	n/a	n/a	n/a	n/a	n/a
4159100	RECOG_RESP	n/a	LTP098	ltpFR	0	4	0	PORCUPINE	1107	n/a	1	n/a	n/a	n/a	n/a	n/a
4160102	RECOG_CONF	n/a	LTP098	ltpFR	0	4	0	PORCUPINE	1107	5	1	n/a	n/a	n/a	n/a	n/a
4161589	RECOG_TARGET	n/a	LTP098	ltpFR	0	4	0	COUSIN	392	3	1	n/a	n/a	n/a	n/a	n/a
4162746	RECOG_RESP	n/a	LTP098	ltpFR	0	4	0	COUSIN	392	n/a	1	n/a	n/a	n/a	n/a	n/a
4163754	RECOG_CONF	n/a	LTP098	ltpFR	0	4	0	COUSIN	392	3	1	n/a	n/a	n/a	n/a	n/a
4165347	RECOG_TARGET	n/a	LTP098	ltpFR	0	4	0	SHRIMP	1297	5	0	n/a	n/a	n/a	n/a	n/a
4166064	RECOG_RESP	n/a	LTP098	ltpFR	0	4	0	SHRIMP	1297	n/a	0	n/a	n/a	n/a	n/a	n/a
4167216	RECOG_CONF	n/a	LTP098	ltpFR	0	4	0	SHRIMP	1297	5	0	n/a	n/a	n/a	n/a	n/a
4168813	RECOG_TARGET	n/a	LTP098	ltpFR	0	4	0	MULE	931	3	1	n/a	n/a	n/a	n/a	n/a
4169890	RECOG_RESP	n/a	LTP098	ltpFR	0	4	0	MULE	931	n/a	1	n/a	n/a	n/a	n/a	n/a
4170828	RECOG_CONF	n/a	LTP098	ltpFR	0	4	0	MULE	931	3	1	n/a	n/a	n/a	n/a	n/a
4172380	RECOG_TARGET	n/a	LTP098	ltpFR	0	4	0	STREAM	1392	5	1	n/a	n/a	n/a	n/a	n/a
4173263	RECOG_RESP	n/a	LTP098	ltpFR	0	4	0	STREAM	1392	n/a	1	n/a	n/a	n/a	n/a	n/a
4174280	RECOG_CONF	n/a	LTP098	ltpFR	0	4	0	STREAM	1392	5	1	n/a	n/a	n/a	n/a	n/a
4175755	RECOG_TARGET	n/a	LTP098	ltpFR	0	4	1	PENGUIN	1044	5	1	n/a	n/a	n/a	n/a	n/a
4176715	RECOG_RESP	n/a	LTP098	ltpFR	0	4	1	PENGUIN	1044	n/a	1	n/a	n/a	n/a	n/a	n/a
4177872	RECOG_CONF	n/a	LTP098	ltpFR	0	4	1	PENGUIN	1044	5	1	n/a	n/a	n/a	n/a	n/a
4179278	RECOG_TARGET	n/a	LTP098	ltpFR	0	4	-1	HALL	677	5	-1	n/a	n/a	n/a	n/a	n/a
4179977	RECOG_RESP	n/a	LTP098	ltpFR	0	4	-1	HALL	677	n/a	-1	n/a	n/a	n/a	n/a	n/a
4181035	RECOG_CONF	n/a	LTP098	ltpFR	0	4	-1	HALL	677	5	-1	n/a	n/a	n/a	n/a	n/a
4182571	RECOG_TARGET	n/a	LTP098	ltpFR	0	4	1	KNOT	788	1	0	n/a	n/a	n/a	n/a	n/a
4183888	RECOG_RESP	n/a	LTP098	ltpFR	0	4	1	KNOT	788	n/a	0	n/a	n/a	n/a	n/a	n/a
4185415	RECOG_CONF	n/a	LTP098	ltpFR	0	4	1	KNOT	788	1	0	n/a	n/a	n/a	n/a	n/a
4186919	RECOG_LURE	n/a	LTP098	ltpFR	0	4	n/a	TOWEL	1489	4	n/a	n/a	n/a	n/a	n/a	n/a
4189336	RECOG_RESP	n/a	LTP098	ltpFR	0	4	n/a	TOWEL	1489	n/a	n/a	n/a	n/a	n/a	n/a	n/a
4190374	RECOG_CONF	n/a	LTP098	ltpFR	0	4	n/a	TOWEL	1489	4	n/a	n/a	n/a	n/a	n/a	n/a
4191911	RECOG_TARGET	n/a	LTP098	ltpFR	0	4	0	CANAL	226	5	1	n/a	n/a	n/a	n/a	n/a
4193008	RECOG_RESP	n/a	LTP098	ltpFR	0	4	0	CANAL	226	n/a	1	n/a	n/a	n/a	n/a	n/a
4194065	RECOG_CONF	n/a	LTP098	ltpFR	0	4	0	CANAL	226	5	1	n/a	n/a	n/a	n/a	n/a
4195528	RECOG_LURE	n/a	LTP098	ltpFR	0	4	n/a	CHEERLEADER	288	1	n/a	n/a	n/a	n/a	n/a	n/a
4197527	RECOG_RESP	n/a	LTP098	ltpFR	0	4	n/a	CHEERLEADER	288	n/a	n/a	n/a	n/a	n/a	n/a	n/a
4198795	RECOG_CONF	n/a	LTP098	ltpFR	0	4	n/a	CHEERLEADER	288	1	n/a	n/a	n/a	n/a	n/a	n/a
4200177	RECOG_TARGET	n/a	LTP098	ltpFR	0	4	-1	CHAIRPERSON	275	5	-1	n/a	n/a	n/a	n/a	n/a
4201159	RECOG_RESP	n/a	LTP098	ltpFR	0	4	-1	CHAIRPERSON	275	n/a	-1	n/a	n/a	n/a	n/a	n/a
4202207	RECOG_CONF	n/a	LTP098	ltpFR	0	4	-1	CHAIRPERSON	275	5	-1	n/a	n/a	n/a	n/a	n/a
4203669	RECOG_TARGET	n/a	LTP098	ltpFR	0	4	-1	WILDERNESS	1610	3	-1	n/a	n/a	n/a	n/a	n/a
4205115	RECOG_RESP	n/a	LTP098	ltpFR	0	4	-1	WILDERNESS	1610	n/a	-1	n/a	n/a	n/a	n/a	n/a
4206427	RECOG_CONF	n/a	LTP098	ltpFR	0	4	-1	WILDERNESS	1610	3	-1	n/a	n/a	n/a	n/a	n/a
4207968	RECOG_LURE	n/a	LTP098	ltpFR	0	4	n/a	GUM	672	5	n/a	n/a	n/a	n/a	n/a	n/a
4209201	RECOG_RESP	n/a	LTP098	ltpFR	0	4	n/a	GUM	672	n/a	n/a	n/a	n/a	n/a	n/a	n/a
4210159	RECOG_CONF	n/a	LTP098	ltpFR	0	4	n/a	GUM	672	5	n/a	n/a	n/a	n/a	n/a	n/a
4211535	RECOG_TARGET	n/a	LTP098	ltpFR	0	4	0	SEASHORE	1263	5	1	n/a	n/a	n/a	n/a	n/a
4212453	RECOG_RESP	n/a	LTP098	ltpFR	0	4	0	SEASHORE	1263	n/a	1	n/a	n/a	n/a	n/a	n/a
4213681	RECOG_CONF	n/a	LTP098	ltpFR	0	4	0	SEASHORE	1263	5	1	n/a	n/a	n/a	n/a	n/a
4215059	RECOG_LURE	n/a	LTP098	ltpFR	0	4	n/a	MAGNET	855	5	n/a	n/a	n/a	n/a	n/a	n/a
4216130	RECOG_RESP	n/a	LTP098	ltpFR	0	4	n/a	MAGNET	855	n/a	n/a	n/a	n/a	n/a	n/a	n/a
4217113	RECOG_CONF	n/a	LTP098	ltpFR	0	4	n/a	MAGNET	855	5	n/a	n/a	n/a	n/a	n/a	n/a
4218576	RECOG_LURE	n/a	LTP098	ltpFR	0	4	n/a	SCARECROW	1245	5	n/a	n/a	n/a	n/a	n/a	n/a
4219667	RECOG_RESP	n/a	LTP098	ltpFR	0	4	n/a	SCARECROW	1245	n/a	n/a	n/a	n/a	n/a	n/a	n/a
4220755	RECOG_CONF	n/a	LTP098	ltpFR	0	4	n/a	SCARECROW	1245	5	n/a	n/a	n/a	n/a	n/a	n/a
4222225	RECOG_LURE	n/a	LTP098	ltpFR	0	4	n/a	ASH	44	5	n/a	n/a	n/a	n/a	n/a	n/a
4223144	RECOG_RESP	n/a	LTP098	ltpFR	0	4	n/a	ASH	44	n/a	n/a	n/a	n/a	n/a	n/a	n/a
4224267	RECOG_CONF	n/a	LTP098	ltpFR	0	4	n/a	ASH	44	5	n/a	n/a	n/a	n/a	n/a	n/a
4227811	REC_START	n/a	LTP098	ltpFR	0	5	n/a	n/a	n/a	n/a	n/a	n/a	n/a	n/a	n/a	n/a
4227842	RECOG_TARGET	n/a	LTP098	ltpFR	0	5	1	TWIN	1528	5	1	n/a	n/a	n/a	n/a	n/a
4229312	RECOG_RESP	n/a	LTP098	ltpFR	0	5	1	TWIN	1528	n/a	1	n/a	n/a	n/a	n/a	n/a
4230380	RECOG_CONF	n/a	LTP098	ltpFR	0	5	1	TWIN	1528	5	1	n/a	n/a	n/a	n/a	n/a
4231667	RECOG_LURE	n/a	LTP098	ltpFR	0	5	n/a	TOOTHPASTE	1483	3	n/a	n/a	n/a	n/a	n/a	n/a
4232595	RECOG_RESP	n/a	LTP098	ltpFR	0	5	n/a	TOOTHPASTE	1483	n/a	n/a	n/a	n/a	n/a	n/a	n/a
4233633	RECOG_CONF	n/a	LTP098	ltpFR	0	5	n/a	TOOTHPASTE	1483	3	n/a	n/a	n/a	n/a	n/a	n/a
4234974	RECOG_TARGET	n/a	LTP098	ltpFR	0	5	1	TANK	1432	5	0	n/a	n/a	n/a	n/a	n/a
4235982	RECOG_RESP	n/a	LTP098	ltpFR	0	5	1	TANK	1432	n/a	0	n/a	n/a	n/a	n/a	n/a
4237005	RECOG_CONF	n/a	LTP098	ltpFR	0	5	1	TANK	1432	5	0	n/a	n/a	n/a	n/a	n/a
4238417	RECOG_TARGET	n/a	LTP098	ltpFR	0	5	0	BRIDE	173	5	1	n/a	n/a	n/a	n/a	n/a
4239664	RECOG_RESP	n/a	LTP098	ltpFR	0	5	0	BRIDE	173	n/a	1	n/a	n/a	n/a	n/a	n/a
4240677	RECOG_CONF	n/a	LTP098	ltpFR	0	5	0	BRIDE	173	5	1	n/a	n/a	n/a	n/a	n/a
4242249	RECOG_TARGET	n/a	LTP098	ltpFR	0	5	0	BLENDER	136	3	1	n/a	n/a	n/a	n/a	n/a
4243246	RECOG_RESP	n/a	LTP098	ltpFR	0	5	0	BLENDER	136	n/a	1	n/a	n/a	n/a	n/a	n/a
4244189	RECOG_CONF	n/a	LTP098	ltpFR	0	5	0	BLENDER	136	3	1	n/a	n/a	n/a	n/a	n/a
4245699	RECOG_LURE	n/a	LTP098	ltpFR	0	5	n/a	OMELET	976	5	n/a	n/a	n/a	n/a	n/a	n/a
4247287	RECOG_RESP	n/a	LTP098	ltpFR	0	5	n/a	OMELET	976	n/a	n/a	n/a	n/a	n/a	n/a	n/a
4248409	RECOG_CONF	n/a	LTP098	ltpFR	0	5	n/a	OMELET	976	5	n/a	n/a	n/a	n/a	n/a	n/a
4249907	RECOG_TARGET	n/a	LTP098	ltpFR	0	5	1	VIRUS	1572	5	1	n/a	n/a	n/a	n/a	n/a
4250843	RECOG_RESP	n/a	LTP098	ltpFR	0	5	1	VIRUS	1572	n/a	1	n/a	n/a	n/a	n/a	n/a
4252280	RECOG_CONF	n/a	LTP098	ltpFR	0	5	1	VIRUS	1572	5	1	n/a	n/a	n/a	n/a	n/a
4253657	RECOG_TARGET	n/a	LTP098	ltpFR	0	5	0	DOCK	477	3	1	n/a	n/a	n/a	n/a	n/a
4255194	RECOG_RESP	n/a	LTP098	ltpFR	0	5	0	DOCK	477	n/a	1	n/a	n/a	n/a	n/a	n/a
4256351	RECOG_CONF	n/a	LTP098	ltpFR	0	5	0	DOCK	477	3	1	n/a	n/a	n/a	n/a	n/a
4257840	RECOG_TARGET	n/a	LTP098	ltpFR	0	5	1	KIWI	781	5	1	n/a	n/a	n/a	n/a	n/a
4258785	RECOG_RESP	n/a	LTP098	ltpFR	0	5	1	KIWI	781	n/a	1	n/a	n/a	n/a	n/a	n/a
4259823	RECOG_CONF	n/a	LTP098	ltpFR	0	5	1	KIWI	781	5	1	n/a	n/a	n/a	n/a	n/a
4261255	RECOG_TARGET	n/a	LTP098	ltpFR	0	5	-1	SCOUT	1252	4	-1	n/a	n/a	n/a	n/a	n/a
4262268	RECOG_RESP	n/a	LTP098	ltpFR	0	5	-1	SCOUT	1252	n/a	-1	n/a	n/a	n/a	n/a	n/a
4263794	RECOG_CONF	n/a	LTP098	ltpFR	0	5	-1	SCOUT	1252	4	-1	n/a	n/a	n/a	n/a	n/a
4265255	RECOG_LURE	n/a	LTP098	ltpFR	0	5	n/a	DIGGER	464	2	n/a	n/a	n/a	n/a	n/a	n/a
4266543	RECOG_RESP	n/a	LTP098	ltpFR	0	5	n/a	DIGGER	464	n/a	n/a	n/a	n/a	n/a	n/a	n/a
4267565	RECOG_CONF	n/a	LTP098	ltpFR	0	5	n/a	DIGGER	464	2	n/a	n/a	n/a	n/a	n/a	n/a
4269072	RECOG_LURE	n/a	LTP098	ltpFR	0	5	n/a	RIB	1188	5	n/a	n/a	n/a	n/a	n/a	n/a
4270988	RECOG_RESP	n/a	LTP098	ltpFR	0	5	n/a	RIB	1188	n/a	n/a	n/a	n/a	n/a	n/a	n/a
4272155	RECOG_CONF	n/a	LTP098	ltpFR	0	5	n/a	RIB	1188	5	n/a	n/a	n/a	n/a	n/a	n/a
4273697	RECOG_LURE	n/a	LTP098	ltpFR	0	5	n/a	BACON	67	4	n/a	n/a	n/a	n/a	n/a	n/a
4275098	RECOG_RESP	n/a	LTP098	ltpFR	0	5	n/a	BACON	67	n/a	n/a	n/a	n/a	n/a	n/a	n/a
4276136	RECOG_CONF	n/a	LTP098	ltpFR	0	5	n/a	BACON	67	4	n/a	n/a	n/a	n/a	n/a	n/a
4277638	RECOG_TARGET	n/a	LTP098	ltpFR	0	5	1	LEAF	808	1	1	n/a	n/a	n/a	n/a	n/a
4279259	RECOG_RESP	n/a	LTP098	ltpFR	0	5	1	LEAF	808	n/a	1	n/a	n/a	n/a	n/a	n/a
4280277	RECOG_CONF	n/a	LTP098	ltpFR	0	5	1	LEAF	808	1	1	n/a	n/a	n/a	n/a	n/a
4281722	RECOG_TARGET	n/a	LTP098	ltpFR	0	5	0	WATER	1594	2	1	n/a	n/a	n/a	n/a	n/a
4283250	RECOG_RESP	n/a	LTP098	ltpFR	0	5	0	WATER	1594	n/a	1	n/a	n/a	n/a	n/a	n/a
4284577	RECOG_CONF	n/a	LTP098	ltpFR	0	5	0	WATER	1594	2	1	n/a	n/a	n/a	n/a	n/a
4285905	RECOG_TARGET	n/a	LTP098	ltpFR	0	5	0	MARINE	869	5	1	n/a	n/a	n/a	n/a	n/a
4286722	RECOG_RESP	n/a	LTP098	ltpFR	0	5	0	MARINE	869	n/a	1	n/a	n/a	n/a	n/a	n/a
4287750	RECOG_CONF	n/a	LTP098	ltpFR	0	5	0	MARINE	869	5	1	n/a	n/a	n/a	n/a	n/a
4289220	RECOG_TARGET	n/a	LTP098	ltpFR	0	5	0	MEAL	882	5	1	n/a	n/a	n/a	n/a	n/a
4290029	RECOG_RESP	n/a	LTP098	ltpFR	0	5	0	MEAL	882	n/a	1	n/a	n/a	n/a	n/a	n/a
4291022	RECOG_CONF	n/a	LTP098	ltpFR	0	5	0	MEAL	882	5	1	n/a	n/a	n/a	n/a	n/a
4292571	RECOG_TARGET	n/a	LTP098	ltpFR	0	5	0	FOUNTAIN	597	3	1	n/a	n/a	n/a	n/a	n/a
4293886	RECOG_RESP_VV	n/a	LTP098	ltpFR	0	5	0	FOUNTAIN	597	n/a	1	n/a	n/a	n/a	n/a	n/a
4294873	RECOG_RESP	n/a	LTP098	ltpFR	0	5	0	FOUNTAIN	597	n/a	1	n/a	n/a	n/a	n/a	n/a
4297238	RECOG_CONF	n/a	LTP098	ltpFR	0	5	0	FOUNTAIN	597	3	1	n/a	n/a	n/a	n/a	n/a
4298870	RECOG_LURE	n/a	LTP098	ltpFR	0	5	n/a	BANDIT	81	1	n/a	n/a	n/a	n/a	n/a	n/a
4301508	RECOG_RESP	n/a	LTP098	ltpFR	0	5	n/a	BANDIT	81	n/a	n/a	n/a	n/a	n/a	n/a	n/a
4303494	RECOG_CONF	n/a	LTP098	ltpFR	0	5	n/a	BANDIT	81	1	n/a	n/a	n/a	n/a	n/a	n/a
4304986	RECOG_LURE	n/a	LTP098	ltpFR	0	5	n/a	JELLO	754	4	n/a	n/a	n/a	n/a	n/a	n/a
4306297	RECOG_RESP	n/a	LTP098	ltpFR	0	5	n/a	JELLO	754	n/a	n/a	n/a	n/a	n/a	n/a	n/a
4307315	RECOG_CONF	n/a	LTP098	ltpFR	0	5	n/a	JELLO	754	4	n/a	n/a	n/a	n/a	n/a	n/a
4311029	REC_START	n/a	LTP098	ltpFR	0	6	n/a	n/a	n/a	n/a	n/a	n/a	n/a	n/a	n/a	n/a
4311068	RECOG_LURE	n/a	LTP098	ltpFR	0	6	n/a	NUCLEUS	961	5	n/a	n/a	n/a	n/a	n/a	n/a
4312276	RECOG_RESP	n/a	LTP098	ltpFR	0	6	n/a	NUCLEUS	961	n/a	n/a	n/a	n/a	n/a	n/a	n/a
4314197	RECOG_CONF	n/a	LTP098	ltpFR	0	6	n/a	NUCLEUS	961	5	n/a	n/a	n/a	n/a	n/a	n/a
4315702	RECOG_TARGET	n/a	LTP098	ltpFR	0	6	0	CARPENTER	246	5	1	n/a	n/a	n/a	n/a	n/a
4316661	RECOG_RESP	n/a	LTP098	ltpFR	0	6	0	CARPENTER	246	n/a	1	n/a	n/a	n/a	n/a	n/a
4317629	RECOG_CONF	n/a	LTP098	ltpFR	0	6	0	CARPENTER	246	5	1	n/a	n/a	n/a	n/a	n/a
4319143	RECOG_TARGET	n/a	LTP098	ltpFR	0	6	-1	JEEP	753	2	-1	n/a	n/a	n/a	n/a	n/a
4320417	RECOG_RESP	n/a	LTP098	ltpFR	0	6	-1	JEEP	753	n/a	-1	n/a	n/a	n/a	n/a	n/a
4321420	RECOG_CONF	n/a	LTP098	ltpFR	0	6	-1	JEEP	753	2	-1	n/a	n/a	n/a	n/a	n/a
4322959	RECOG_TARGET	n/a	LTP098	ltpFR	0	6	0	OYSTER	995	2	0	n/a	n/a	n/a	n/a	n/a
4324618	RECOG_RESP	n/a	LTP098	ltpFR	0	6	0	OYSTER	995	n/a	0	n/a	n/a	n/a	n/a	n/a
4326389	RECOG_CONF	n/a	LTP098	ltpFR	0	6	0	OYSTER	995	2	0	n/a	n/a	n/a	n/a	n/a
4327984	RECOG_TARGET	n/a	LTP098	ltpFR	0	6	0	PATH	1023	5	1	n/a	n/a	n/a	n/a	n/a
4328808	RECOG_RESP	n/a	LTP098	ltpFR	0	6	0	PATH	1023	n/a	1	n/a	n/a	n/a	n/a	n/a
4329701	RECOG_CONF	n/a	LTP098	ltpFR	0	6	0	PATH	1023	5	1	n/a	n/a	n/a	n/a	n/a
4331050	RECOG_TARGET	n/a	LTP098	ltpFR	0	6	1	RECEPTIONIST	1174	5	1	n/a	n/a	n/a	n/a	n/a
4331946	RECOG_RESP	n/a	LTP098	ltpFR	0	6	1	RECEPTIONIST	1174	n/a	1	n/a	n/a	n/a	n/a	n/a
4332934	RECOG_CONF	n/a	LTP098	ltpFR	0	6	1	RECEPTIONIST	1174	5	1	n/a	n/a	n/a	n/a	n/a
4334434	RECOG_TARGET	n/a	LTP098	ltpFR	0	6	1	CRACKER	398	1	0	n/a	n/a	n/a	n/a	n/a
4335997	RECOG_RESP	n/a	LTP098	ltpFR	0	6	1	CRACKER	398	n/a	0	n/a	n/a	n/a	n/a	n/a
4336915	RECOG_CONF	n/a	LTP098	ltpFR	0	6	1	CRACKER	398	1	0	n/a	n/a	n/a	n/a	n/a
4338542	RECOG_LURE	n/a	LTP098	ltpFR	0	6	n/a	HAMMER	680	3	n/a	n/a	n/a	n/a	n/a	n/a
4339654	RECOG_RESP	n/a	LTP098	ltpFR	0	6	n/a	HAMMER	680	n/a	n/a	n/a	n/a	n/a	n/a	n/a
4340647	RECOG_CONF	n/a	LTP098	ltpFR	0	6	n/a	HAMMER	680	3	n/a	n/a	n/a	n/a	n/a	n/a
4342041	RECOG_TARGET	n/a	LTP098	ltpFR	0	6	0	POTATO	1115	3	0	n/a	n/a	n/a	n/a	n/a
4343196	RECOG_RESP	n/a	LTP098	ltpFR	0	6	0	POTATO	1115	n/a	0	n/a	n/a	n/a	n/a	n/a
4344258	RECOG_CONF	n/a	LTP098	ltpFR	0	6	0	POTATO	1115	3	0	n/a	n/a	n/a	n/a	n/a
4345825	RECOG_LURE	n/a	LTP098	ltpFR	0	6	n/a	BUCKET	184	2	n/a	n/a	n/a	n/a	n/a	n/a
4347122	RECOG_RESP	n/a	LTP098	ltpFR	0	6	n/a	BUCKET	184	n/a	n/a	n/a	n/a	n/a	n/a	n/a
4348139	RECOG_CONF	n/a	LTP098	ltpFR	0	6	n/a	BUCKET	184	2	n/a	n/a	n/a	n/a	n/a	n/a
4349550	RECOG_TARGET	n/a	LTP098	ltpFR	0	6	-1	CLARINET	317	5	-1	n/a	n/a	n/a	n/a	n/a
4350454	RECOG_RESP	n/a	LTP098	ltpFR	0	6	-1	CLARINET	317	n/a	-1	n/a	n/a	n/a	n/a	n/a
4351562	RECOG_CONF	n/a	LTP098	ltpFR	0	6	-1	CLARINET	317	5	-1	n/a	n/a	n/a	n/a	n/a
4353190	RECOG_LURE	n/a	LTP098	ltpFR	0	6	n/a	GRATE	657	2	n/a	n/a	n/a	n/a	n/a	n/a
4355034	RECOG_RESP	n/a	LTP098	ltpFR	0	6	n/a	GRATE	657	n/a	n/a	n/a	n/a	n/a	n/a	n/a
4356111	RECOG_CONF	n/a	LTP098	ltpFR	0	6	n/a	GRATE	657	2	n/a	n/a	n/a	n/a	n/a	n/a
4357549	RECOG_TARGET	n/a	LTP098	ltpFR	0	6	1	VET	1560	5	1	n/a	n/a	n/a	n/a	n/a
4358511	RECOG_RESP_VV	n/a	LTP098	ltpFR	0	6	1	VET	1560	n/a	1	n/a	n/a	n/a	n/a	n/a
4359544	RECOG_CONF	n/a	LTP098	ltpFR	0	6	1	VET	1560	5	1	n/a	n/a	n/a	n/a	n/a
4360162	RECOG_RESP	n/a	LTP098	ltpFR	0	6	1	VET	1560	n/a	1	n/a	n/a	n/a	n/a	n/a
4360948	RECOG_LURE	n/a	LTP098	ltpFR	0	6	n/a	FUGITIVE	612	5	n/a	n/a	n/a	n/a	n/a	n/a
4362138	RECOG_RESP	n/a	LTP098	ltpFR	0	6	n/a	FUGITIVE	612	n/a	n/a	n/a	n/a	n/a	n/a	n/a
4363165	RECOG_CONF	n/a	LTP098	ltpFR	0	6	n/a	FUGITIVE	612	5	n/a	n/a	n/a	n/a	n/a	n/a
4364632	RECOG_TARGET	n/a	LTP098	ltpFR	0	6	-1	BATHROOM	99	3	-1	n/a	n/a	n/a	n/a	n/a
4365929	RECOG_RESP	n/a	LTP098	ltpFR	0	6	-1	BATHROOM	99	n/a	-1	n/a	n/a	n/a	n/a	n/a
4367865	RECOG_CONF	n/a	LTP098	ltpFR	0	6	-1	BATHROOM	99	3	-1	n/a	n/a	n/a	n/a	n/a
4369039	RECOG_TARGET	n/a	LTP098	ltpFR	0	6	-1	SNORKEL	1336	5	-1	n/a	n/a	n/a	n/a	n/a
4370129	RECOG_RESP	n/a	LTP098	ltpFR	0	6	-1	SNORKEL	1336	n/a	-1	n/a	n/a	n/a	n/a	n/a
4372404	RECOG_CONF	n/a	LTP098	ltpFR	0	6	-1	SNORKEL	1336	5	-1	n/a	n/a	n/a	n/a	n/a
4373881	RECOG_TARGET	n/a	LTP098	ltpFR	0	6	0	SALESMAN	1225	5	1	n/a	n/a	n/a	n/a	n/a
4375482	RECOG_RESP	n/a	LTP098	ltpFR	0	6	0	SALESMAN	1225	n/a	1	n/a	n/a	n/a	n/a	n/a
4376425	RECOG_CONF	n/a	LTP098	ltpFR	0	6	0	SALESMAN	1225	5	1	n/a	n/a	n/a	n/a	n/a
4377963	RECOG_TARGET	n/a	LTP098	ltpFR	0	6	0	SKILLET	1317	5	0	n/a	n/a	n/a	n/a	n/a
4379139	RECOG_RESP	n/a	LTP098	ltpFR	0	6	0	SKILLET	1317	n/a	0	n/a	n/a	n/a	n/a	n/a
4380286	RECOG_CONF	n/a	LTP098	ltpFR	0	6	0	SKILLET	1317	5	0	n/a	n/a	n/a	n/a	n/a
4381864	RECOG_LURE	n/a	LTP098	ltpFR	0	6	n/a	PATIO	1025	1	n/a	n/a	n/a	n/a	n/a	n/a
4383419	RECOG_RESP	n/a	LTP098	ltpFR	0	6	n/a	PATIO	1025	n/a	n/a	n/a	n/a	n/a	n/a	n/a
4384666	RECOG_CONF	n/a	LTP098	ltpFR	0	6	n/a	PATIO	1025	1	n/a	n/a	n/a	n/a	n/a	n/a
4386179	RECOG_TARGET	n/a	LTP098	ltpFR	0	6	0	GUITAR	670	5	1	n/a	n/a	n/a	n/a	n/a
4387151	RECOG_RESP	n/a	LTP098	ltpFR	0	6	0	GUITAR	670	n/a	1	n/a	n/a	n/a	n/a	n/a
4388169	RECOG_CONF	n/a	LTP098	ltpFR	0	6	0	GUITAR	670	5	1	n/a	n/a	n/a	n/a	n/a
4391399	REC_START	n/a	LTP098	ltpFR	0	7	n/a	n/a	n/a	n/a	n/a	n/a	n/a	n/a	n/a	n/a
4391430	RECOG_TARGET	n/a	LTP098	ltpFR	0	7	-1	FATHER	554	3	-1	n/a	n/a	n/a	n/a	n/a
4392970	RECOG_RESP	n/a	LTP098	ltpFR	0	7	-1	FATHER	554	n/a	-1	n/a	n/a	n/a	n/a	n/a
4393918	RECOG_CONF	n/a	LTP098	ltpFR	0	7	-1	FATHER	554	3	-1	n/a	n/a	n/a	n/a	n/a
4395380	RECOG_TARGET	n/a	LTP098	ltpFR	0	7	1	BEAVER	109	5	1	n/a	n/a	n/a	n/a	n/a
4396268	RECOG_RESP	n/a	LTP098	ltpFR	0	7	1	BEAVER	109	n/a	1	n/a	n/a	n/a	n/a	n/a
4397260	RECOG_CONF	n/a	LTP098	ltpFR	0	7	1	BEAVER	109	5	1	n/a	n/a	n/a	n/a	n/a
4398646	RECOG_LURE	n/a	LTP098	ltpFR	0	7	n/a	PATROL	1027	5	n/a	n/a	n/a	n/a	n/a	n/a
4399775	RECOG_RESP	n/a	LTP098	ltpFR	0	7	n/a	PATROL	1027	n/a	n/a	n/a	n/a	n/a	n/a	n/a
4400623	RECOG_CONF	n/a	LTP098	ltpFR	0	7	n/a	PATROL	1027	5	n/a	n/a	n/a	n/a	n/a	n/a
4402128	RECOG_LURE	n/a	LTP098	ltpFR	0	7	n/a	PEBBLE	1035	2	n/a	n/a	n/a	n/a	n/a	n/a
4403596	RECOG_RESP	n/a	LTP098	ltpFR	0	7	n/a	PEBBLE	1035	n/a	n/a	n/a	n/a	n/a	n/a	n/a
4404594	RECOG_CONF	n/a	LTP098	ltpFR	0	7	n/a	PEBBLE	1035	2	n/a	n/a	n/a	n/a	n/a	n/a
4405936	RECOG_TARGET	n/a	LTP098	ltpFR	0	7	-1	PAINT	1003	3	-1	n/a	n/a	n/a	n/a	n/a
4407308	RECOG_RESP	n/a	LTP098	ltpFR	0	7	-1	PAINT	1003	n/a	-1	n/a	n/a	n/a	n/a	n/a
4408605	RECOG_CONF	n/a	LTP098	ltpFR	0	7	-1	PAINT	1003	3	-1	n/a	n/a	n/a	n/a	n/a
4409961	RECOG_LURE	n/a	LTP098	ltpFR	0	7	n/a	LOFT	840	1	n/a	n/a	n/a	n/a	n/a	n/a
4410825	RECOG_RESP_VV	n/a	LTP098	ltpFR	0	7	n/a	LOFT	840	n/a	n/a	n/a	n/a	n/a	n/a	n/a
4412291	RECOG_RESP	n/a	LTP098	ltpFR	0	7	n/a	LOFT	840	n/a	n/a	n/a	n/a	n/a	n/a	n/a
4414471	RECOG_CONF	n/a	LTP098	ltpFR	0	7	n/a	LOFT	840	1	n/a	n/a	n/a	n/a	n/a	n/a
4415969	RECOG_LURE	n/a	LTP098	ltpFR	0	7	n/a	CLOTHES	327	4	n/a	n/a	n/a	n/a	n/a	n/a
4417170	RECOG_RESP	n/a	LTP098	ltpFR	0	7	n/a	CLOTHES	327	n/a	n/a	n/a	n/a	n/a	n/a	n/a
4418053	RECOG_CONF	n/a	LTP098	ltpFR	0	7	n/a	CLOTHES	327	4	n/a	n/a	n/a	n/a	n/a	n/a
4419478	RECOG_LURE	n/a	LTP098	ltpFR	0	7	n/a	DIARY	460	4	n/a	n/a	n/a	n/a	n/a	n/a
4420847	RECOG_RESP	n/a	LTP098	ltpFR	0	7	n/a	DIARY	460	n/a	n/a	n/a	n/a	n/a	n/a	n/a
4421695	RECOG_CONF	n/a	LTP098	ltpFR	0	7	n/a	DIARY	460	4	n/a	n/a	n/a	n/a	n/a	n/a
4423185	RECOG_LURE	n/a	LTP098	ltpFR	0	7	n/a	TEAM	1441	4	n/a	n/a	n/a	n/a	n/a	n/a
4424204	RECOG_RESP	n/a	LTP098	ltpFR	0	7	n/a	TEAM	1441	n/a	n/a	n/a	n/a	n/a	n/a	n/a
4425207	RECOG_CONF	n/a	LTP098	ltpFR	0	7	n/a	TEAM	1441	4	n/a	n/a	n/a	n/a	n/a	n/a
4426644	RECOG_LURE	n/a	LTP098	ltpFR	0	7	n/a	PURSE	1145	3	n/a	n/a	n/a	n/a	n/a	n/a
4427966	RECOG_RESP	n/a	LTP098	ltpFR	0	7	n/a	PURSE	1145	n/a	n/a	n/a	n/a	n/a	n/a	n/a
4429368	RECOG_CONF	n/a	LTP098	ltpFR	0	7	n/a	PURSE	1145	3	n/a	n/a	n/a	n/a	n/a	n/a
4430785	RECOG_TARGET	n/a	LTP098	ltpFR	0	7	0	LAUNDRY	803	5	1	n/a	n/a	n/a	n/a	n/a
4431622	RECOG_RESP	n/a	LTP098	ltpFR	0	7	0	LAUNDRY	803	n/a	1	n/a	n/a	n/a	n/a	n/a
4432550	RECOG_CONF	n/a	LTP098	ltpFR	0	7	0	LAUNDRY	803	5	1	n/a	n/a	n/a	n/a	n/a
4434026	RECOG_TARGET	n/a	LTP098	ltpFR	0	7	1	PRINCESS	1125	5	1	n/a	n/a	n/a	n/a	n/a
4435204	RECOG_RESP	n/a	LTP098	ltpFR	0	7	1	PRINCESS	1125	n/a	1	n/a	n/a	n/a	n/a	n/a
4435992	RECOG_CONF	n/a	LTP098	ltpFR	0	7	1	PRINCESS	1125	5	1	n/a	n/a	n/a	n/a	n/a
4437468	RECOG_TARGET	n/a	LTP098	ltpFR	0	7	1	LAMP	798	4	0	n/a	n/a	n/a	n/a	n/a
4438527	RECOG_RESP	n/a	LTP098	ltpFR	0	7	1	LAMP	798	n/a	0	n/a	n/a	n/a	n/a	n/a
4439475	RECOG_CONF	n/a	LTP098	ltpFR	0	7	1	LAMP	798	4	0	n/a	n/a	n/a	n/a	n/a
4441058	RECOG_TARGET	n/a	LTP098	ltpFR	0	7	1	PERCH	1048	5	0	n/a	n/a	n/a	n/a	n/a
4442064	RECOG_RESP	n/a	LTP098	ltpFR	0	7	1	PERCH	1048	n/a	0	n/a	n/a	n/a	n/a	n/a
4443086	RECOG_CONF	n/a	LTP098	ltpFR	0	7	1	PERCH	1048	5	0	n/a	n/a	n/a	n/a	n/a
4444518	RECOG_LURE	n/a	LTP098	ltpFR	0	7	n/a	CAMERA	224	4	n/a	n/a	n/a	n/a	n/a	n/a
4445531	RECOG_RESP	n/a	LTP098	ltpFR	0	7	n/a	CAMERA	224	n/a	n/a	n/a	n/a	n/a	n/a	n/a
4447007	RECOG_CONF	n/a	LTP098	ltpFR	0	7	n/a	CAMERA	224	4	n/a	n/a	n/a	n/a	n/a	n/a
4448492	RECOG_LURE	n/a	LTP098	ltpFR	0	7	n/a	CONTRACT	368	5	n/a	n/a	n/a	n/a	n/a	n/a
4449517	RECOG_RESP	n/a	LTP098	ltpFR	0	7	n/a	CONTRACT	368	n/a	n/a	n/a	n/a	n/a	n/a	n/a
4450390	RECOG_CONF	n/a	LTP098	ltpFR	0	7	n/a	CONTRACT	368	5	n/a	n/a	n/a	n/a	n/a	n/a
4451775	RECOG_TARGET	n/a	LTP098	ltpFR	0	7	1	DISH	474	1	0	n/a	n/a	n/a	n/a	n/a
4452690	RECOG_RESP	n/a	LTP098	ltpFR	0	7	1	DISH	474	n/a	0	n/a	n/a	n/a	n/a	n/a
4454201	RECOG_CONF	n/a	LTP098	ltpFR	0	7	1	DISH	474	1	0	n/a	n/a	n/a	n/a	n/a
4455633	RECOG_TARGET	n/a	LTP098	ltpFR	0	7	0	BUTTON	207	2	0	n/a	n/a	n/a	n/a	n/a
4456621	RECOG_RESP	n/a	LTP098	ltpFR	0	7	0	BUTTON	207	n/a	0	n/a	n/a	n/a	n/a	n/a
4457593	RECOG_CONF	n/a	LTP098	ltpFR	0	7	0	BUTTON	207	2	0	n/a	n/a	n/a	n/a	n/a
4458990	RECOG_LURE	n/a	LTP098	ltpFR	0	7	n/a	SCREEN	1253	3	n/a	n/a	n/a	n/a	n/a	n/a
4461594	RECOG_RESP	n/a	LTP098	ltpFR	0	7	n/a	SCREEN	1253	n/a	n/a	n/a	n/a	n/a	n/a	n/a
4462562	RECOG_CONF	n/a	LTP098	ltpFR	0	7	n/a	SCREEN	1253	3	n/a	n/a	n/a	n/a	n/a	n/a
4463998	RECOG_TARGET	n/a	LTP098	ltpFR	0	7	1	COOLER	375	3	0	n/a	n/a	n/a	n/a	n/a
4464992	RECOG_RESP	n/a	LTP098	ltpFR	0	7	1	COOLER	375	n/a	0	n/a	n/a	n/a	n/a	n/a
4465865	RECOG_CONF	n/a	LTP098	ltpFR	0	7	1	COOLER	375	3	0	n/a	n/a	n/a	n/a	n/a
4469127	REC_START	n/a	LTP098	ltpFR	0	8	n/a	n/a	n/a	n/a	n/a	n/a	n/a	n/a	n/a	n/a
4469156	RECOG_LURE	n/a	LTP098	ltpFR	0	8	n/a	BAY	102	3	n/a	n/a	n/a	n/a	n/a	n/a
4470559	RECOG_RESP	n/a	LTP098	ltpFR	0	8	n/a	BAY	102	n/a	n/a	n/a	n/a	n/a	n/a	n/a
4473891	RECOG_CONF	n/a	LTP098	ltpFR	0	8	n/a	BAY	102	3	n/a	n/a	n/a	n/a	n/a	n/a
4475599	RECOG_TARGET	n/a	LTP098	ltpFR	0	8	-1	BUCKLE	185	5	-1	n/a	n/a	n/a	n/a	n/a
4476670	RECOG_RESP	n/a	LTP098	ltpFR	0	8	-1	BUCKLE	185	n/a	-1	n/a	n/a	n/a	n/a	n/a
4477902	RECOG_CONF	n/a	LTP098	ltpFR	0	8	-1	BUCKLE	185	5	-1	n/a	n/a	n/a	n/a	n/a
4479515	RECOG_TARGET	n/a	LTP098	ltpFR	0	8	0	DESIGNER	451	5	1	n/a	n/a	n/a	n/a	n/a
4481339	RECOG_RESP	n/a	LTP098	ltpFR	0	8	0	DESIGNER	451	n/a	1	n/a	n/a	n/a	n/a	n/a
4482442	RECOG_CONF	n/a	LTP098	ltpFR	0	8	0	DESIGNER	451	5	1	n/a	n/a	n/a	n/a	n/a
4483740	RECOG_TARGET	n/a	LTP098	ltpFR	0	8	0	COMMUNITY	356	5	1	n/a	n/a	n/a	n/a	n/a
4485215	RECOG_RESP	n/a	LTP098	ltpFR	0	8	0	COMMUNITY	356	n/a	1	n/a	n/a	n/a	n/a	n/a
4486981	RECOG_CONF	n/a	LTP098	ltpFR	0	8	0	COMMUNITY	356	5	1	n/a	n/a	n/a	n/a	n/a
4488398	RECOG_TARGET	n/a	LTP098	ltpFR	0	8	1	SNAKE	1333	1	1	n/a	n/a	n/a	n/a	n/a
4489271	RECOG_RESP	n/a	LTP098	ltpFR	0	8	1	SNAKE	1333	n/a	1	n/a	n/a	n/a	n/a	n/a
4491162	RECOG_CONF	n/a	LTP098	ltpFR	0	8	1	SNAKE	1333	1	1	n/a	n/a	n/a	n/a	n/a
4492614	RECOG_TARGET	n/a	LTP098	ltpFR	0	8	0	SHELL	1281	1	0	n/a	n/a	n/a	n/a	n/a
4493422	RECOG_RESP	n/a	LTP098	ltpFR	0	8	0	SHELL	1281	n/a	0	n/a	n/a	n/a	n/a	n/a
4494514	RECOG_CONF	n/a	LTP098	ltpFR	0	8	0	SHELL	1281	1	0	n/a	n/a	n/a	n/a	n/a
4495913	RECOG_TARGET	n/a	LTP098	ltpFR	0	8	1	BRACES	164	5	0	n/a	n/a	n/a	n/a	n/a
4496869	RECOG_RESP	n/a	LTP098	ltpFR	0	8	1	BRACES	164	n/a	0	n/a	n/a	n/a	n/a	n/a
4497657	RECOG_CONF	n/a	LTP098	ltpFR	0	8	1	BRACES	164	5	0	n/a	n/a	n/a	n/a	n/a
4499112	RECOG_LURE	n/a	LTP098	ltpFR	0	8	n/a	ESCALATOR	539	5	n/a	n/a	n/a	n/a	n/a	n/a
4500186	RECOG_RESP	n/a	LTP098	ltpFR	0	8	n/a	ESCALATOR	539	n/a	n/a	n/a	n/a	n/a	n/a	n/a
4501069	RECOG_CONF	n/a	LTP098	ltpFR	0	8	n/a	ESCALATOR	539	5	n/a	n/a	n/a	n/a	n/a	n/a
4502488	RECOG_TARGET	n/a	LTP098	ltpFR	0	8	-1	FLIPPER	580	1	-1	n/a	n/a	n/a	n/a	n/a
4504496	RECOG_RESP	n/a	LTP098	ltpFR	0	8	-1	FLIPPER	580	n/a	-1	n/a	n/a	n/a	n/a	n/a
4505389	RECOG_CONF	n/a	LTP098	ltpFR	0	8	-1	FLIPPER	580	1	-1	n/a	n/a	n/a	n/a	n/a
4506945	RECOG_TARGET	n/a	LTP098	ltpFR	0	8	0	ROAD	1196	5	1	n/a	n/a	n/a	n/a	n/a
4507734	RECOG_RESP	n/a	LTP098	ltpFR	0	8	0	ROAD	1196	n/a	1	n/a	n/a	n/a	n/a	n/a
4508642	RECOG_CONF	n/a	LTP098	ltpFR	0	8	0	ROAD	1196	5	1	n/a	n/a	n/a	n/a	n/a
4510020	RECOG_LURE	n/a	LTP098	ltpFR	0	8	n/a	VALLEY	1545	5	n/a	n/a	n/a	n/a	n/a	n/a
4511366	RECOG_RESP	n/a	LTP098	ltpFR	0	8	n/a	VALLEY	1545	n/a	n/a	n/a	n/a	n/a	n/a	n/a
4512583	RECOG_CONF	n/a	LTP098	ltpFR	0	8	n/a	VALLEY	1545	5	n/a	n/a	n/a	n/a	n/a	n/a
4513995	RECOG_TARGET	n/a	LTP098	ltpFR	0	8	0	TRIGGER	1507	1	0	n/a	n/a	n/a	n/a	n/a
4515157	RECOG_RESP	n/a	LTP098	ltpFR	0	8	0	TRIGGER	1507	n/a	0	n/a	n/a	n/a	n/a	n/a
4516185	RECOG_CONF	n/a	LTP098	ltpFR	0	8	0	TRIGGER	1507	1	0	n/a	n/a	n/a	n/a	n/a
4517562	RECOG_LURE	n/a	LTP098	ltpFR	0	8	n/a	NICOTINE	951	5	n/a	n/a	n/a	n/a	n/a	n/a
4518375	RECOG_RESP	n/a	LTP098	ltpFR	0	8	n/a	NICOTINE	951	n/a	n/a	n/a	n/a	n/a	n/a	n/a
4519278	RECOG_CONF	n/a	LTP098	ltpFR	0	8	n/a	NICOTINE	951	5	n/a	n/a	n/a	n/a	n/a	n/a
4520670	RECOG_LURE	n/a	LTP098	ltpFR	0	8	n/a	DECK	443	5	n/a	n/a	n/a	n/a	n/a	n/a
4521568	RECOG_RESP	n/a	LTP098	ltpFR	0	8	n/a	DECK	443	n/a	n/a	n/a	n/a	n/a	n/a	n/a
4522451	RECOG_CONF	n/a	LTP098	ltpFR	0	8	n/a	DECK	443	5	n/a	n/a	n/a	n/a	n/a	n/a
4523853	RECOG_TARGET	n/a	LTP098	ltpFR	0	8	-1	EARRING	514	5	-1	n/a	n/a	n/a	n/a	n/a
4524745	RECOG_RESP	n/a	LTP098	ltpFR	0	8	-1	EARRING	514	n/a	-1	n/a	n/a	n/a	n/a	n/a
4525673	RECOG_CONF	n/a	LTP098	ltpFR	0	8	-1	EARRING	514	5	-1	n/a	n/a	n/a	n/a	n/a
4527177	RECOG_TARGET	n/a	LTP098	ltpFR	0	8	-1	THERMOMETER	1453	5	-1	n/a	n/a	n/a	n/a	n/a
4528252	RECOG_RESP	n/a	LTP098	ltpFR	0	8	-1	THERMOMETER	1453	n/a	-1	n/a	n/a	n/a	n/a	n/a
4529135	RECOG_CONF	n/a	LTP098	ltpFR	0	8	-1	THERMOMETER	1453	5	-1	n/a	n/a	n/a	n/a	n/a
4530553	RECOG_TARGET	n/a	LTP098	ltpFR	0	8	1	DAUGHTER	442	5	1	n/a	n/a	n/a	n/a	n/a
4531440	RECOG_RESP	n/a	LTP098	ltpFR	0	8	1	DAUGHTER	442	n/a	1	n/a	n/a	n/a	n/a	n/a
4532368	RECOG_CONF	n/a	LTP098	ltpFR	0	8	1	DAUGHTER	442	5	1	n/a	n/a	n/a	n/a	n/a
4533852	RECOG_TARGET	n/a	LTP098	ltpFR	0	8	1	BELL	118	1	0	n/a	n/a	n/a	n/a	n/a
4535611	RECOG_RESP	n/a	LTP098	ltpFR	0	8	1	BELL	118	n/a	0	n/a	n/a	n/a	n/a	n/a
4536499	RECOG_CONF	n/a	LTP098	ltpFR	0	8	1	BELL	118	1	0	n/a	n/a	n/a	n/a	n/a
4537885	RECOG_TARGET	n/a	LTP098	ltpFR	0	8	0	SACK	1220	1	1	n/a	n/a	n/a	n/a	n/a
4538769	RECOG_RESP	n/a	LTP098	ltpFR	0	8	0	SACK	1220	n/a	1	n/a	n/a	n/a	n/a	n/a
4539791	RECOG_CONF	n/a	LTP098	ltpFR	0	8	0	SACK	1220	1	1	n/a	n/a	n/a	n/a	n/a
4541218	RECOG_LURE	n/a	LTP098	ltpFR	0	8	n/a	SPRINKLE	1359	4	n/a	n/a	n/a	n/a	n/a	n/a
4542740	RECOG_RESP	n/a	LTP098	ltpFR	0	8	n/a	SPRINKLE	1359	n/a	n/a	n/a	n/a	n/a	n/a	n/a
4543513	RECOG_CONF	n/a	LTP098	ltpFR	0	8	n/a	SPRINKLE	1359	4	n/a	n/a	n/a	n/a	n/a	n/a
4548689	REC_START	n/a	LTP098	ltpFR	0	9	n/a	n/a	n/a	n/a	n/a	n/a	n/a	n/a	n/a	n/a
4548726	RECOG_LURE	n/a	LTP098	ltpFR	0	9	n/a	MOON	914	4	n/a	n/a	n/a	n/a	n/a	n/a
4549881	RECOG_RESP	n/a	LTP098	ltpFR	0	9	n/a	MOON	914	n/a	n/a	n/a	n/a	n/a	n/a	n/a
4551777	RECOG_CONF	n/a	LTP098	ltpFR	0	9	n/a	MOON	914	4	n/a	n/a	n/a	n/a	n/a	n/a
4553133	RECOG_TARGET	n/a	LTP098	ltpFR	0	9	0	TOTE	1487	5	0	n/a	n/a	n/a	n/a	n/a
4554161	RECOG_RESP	n/a	LTP098	ltpFR	0	9	0	TOTE	1487	n/a	0	n/a	n/a	n/a	n/a	n/a
4554900	RECOG_CONF	n/a	LTP098	ltpFR	0	9	0	TOTE	1487	5	0	n/a	n/a	n/a	n/a	n/a
4556409	RECOG_TARGET	n/a	LTP098	ltpFR	0	9	1	DIAGRAM	456	3	0	n/a	n/a	n/a	n/a	n/a
4557753	RECOG_RESP	n/a	LTP098	ltpFR	0	9	1	DIAGRAM	456	n/a	0	n/a	n/a	n/a	n/a	n/a
4558581	RECOG_CONF	n/a	LTP098	ltpFR	0	9	1	DIAGRAM	456	3	0	n/a	n/a	n/a	n/a	n/a
4560158	RECOG_LURE	n/a	LTP098	ltpFR	0	9	n/a	WALNUT	1584	4	n/a	n/a	n/a	n/a	n/a	n/a
4561360	RECOG_RESP	n/a	LTP098	ltpFR	0	9	n/a	WALNUT	1584	n/a	n/a	n/a	n/a	n/a	n/a	n/a
4562243	RECOG_CONF	n/a	LTP098	ltpFR	0	9	n/a	WALNUT	1584	4	n/a	n/a	n/a	n/a	n/a	n/a
4563683	RECOG_TARGET	n/a	LTP098	ltpFR	0	9	1	STETHOSCOPE	1379	5	0	n/a	n/a	n/a	n/a	n/a
4564498	RECOG_RESP	n/a	LTP098	ltpFR	0	9	1	STETHOSCOPE	1379	n/a	0	n/a	n/a	n/a	n/a	n/a
4565326	RECOG_CONF	n/a	LTP098	ltpFR	0	9	1	STETHOSCOPE	1379	5	0	n/a	n/a	n/a	n/a	n/a
4566750	RECOG_TARGET	n/a	LTP098	ltpFR	0	9	0	FLESH	579	5	1	n/a	n/a	n/a	n/a	n/a
4567646	RECOG_RESP	n/a	LTP098	ltpFR	0	9	0	FLESH	579	n/a	1	n/a	n/a	n/a	n/a	n/a
4568479	RECOG_CONF	n/a	LTP098	ltpFR	0	9	0	FLESH	579	5	1	n/a	n/a	n/a	n/a	n/a
4569816	RECOG_TARGET	n/a	LTP098	ltpFR	0	9	0	TANGERINE	1431	4	0	n/a	n/a	n/a	n/a	n/a
4570923	RECOG_RESP	n/a	LTP098	ltpFR	0	9	0	TANGERINE	1431	n/a	0	n/a	n/a	n/a	n/a	n/a
4571731	RECOG_CONF	n/a	LTP098	ltpFR	0	9	0	TANGERINE	1431	4	0	n/a	n/a	n/a	n/a	n/a
4573140	RECOG_LURE	n/a	LTP098	ltpFR	0	9	n/a	THICKET	1455	5	n/a	n/a	n/a	n/a	n/a	n/a
4574231	RECOG_RESP	n/a	LTP098	ltpFR	0	9	n/a	THICKET	1455	n/a	n/a	n/a	n/a	n/a	n/a	n/a
4575124	RECOG_CONF	n/a	LTP098	ltpFR	0	9	n/a	THICKET	1455	5	n/a	n/a	n/a	n/a	n/a	n/a
4576566	RECOG_TARGET	n/a	LTP098	ltpFR	0	9	-1	RACK	1154	5	-1	n/a	n/a	n/a	n/a	n/a
4577513	RECOG_RESP	n/a	LTP098	ltpFR	0	9	-1	RACK	1154	n/a	-1	n/a	n/a	n/a	n/a	n/a
4578376	RECOG_CONF	n/a	LTP098	ltpFR	0	9	-1	RACK	1154	5	-1	n/a	n/a	n/a	n/a	n/a
4579757	RECOG_LURE	n/a	LTP098	ltpFR	0	9	n/a	HOOP	716	1	n/a	n/a	n/a	n/a	n/a	n/a
4580926	RECOG_RESP	n/a	LTP098	ltpFR	0	9	n/a	HOOP	716	n/a	n/a	n/a	n/a	n/a	n/a	n/a
4581819	RECOG_CONF	n/a	LTP098	ltpFR	0	9	n/a	HOOP	716	1	n/a	n/a	n/a	n/a	n/a	n/a
4583248	RECOG_LURE	n/a	LTP098	ltpFR	0	9	n/a	CELERY	266	5	n/a	n/a	n/a	n/a	n/a	n/a
4584502	RECOG_RESP	n/a	LTP098	ltpFR	0	9	n/a	CELERY	266	n/a	n/a	n/a	n/a	n/a	n/a	n/a
4585400	RECOG_CONF	n/a	LTP098	ltpFR	0	9	n/a	CELERY	266	5	n/a	n/a	n/a	n/a	n/a	n/a
4586682	RECOG_LURE	n/a	LTP098	ltpFR	0	9	n/a	NOOSE	956	2	n/a	n/a	n/a	n/a	n/a	n/a
4588094	RECOG_RESP	n/a	LTP098	ltpFR	0	9	n/a	NOOSE	956	n/a	n/a	n/a	n/a	n/a	n/a	n/a
4589850	RECOG_CONF	n/a	LTP098	ltpFR	0	9	n/a	NOOSE	956	2	n/a	n/a	n/a	n/a	n/a	n/a
4591205	RECOG_TARGET	n/a	LTP098	ltpFR	0	9	-1	MOTOR	922	4	-1	n/a	n/a	n/a	n/a	n/a
4592260	RECOG_RESP	n/a	LTP098	ltpFR	0	9	-1	MOTOR	922	n/a	-1	n/a	n/a	n/a	n/a	n/a
4593282	RECOG_CONF	n/a	LTP098	ltpFR	0	9	-1	MOTOR	922	4	-1	n/a	n/a	n/a	n/a	n/a
4594723	RECOG_LURE	n/a	LTP098	ltpFR	0	9	n/a	KEYBOARD	774	1	n/a	n/a	n/a	n/a	n/a	n/a
4596176	RECOG_RESP	n/a	LTP098	ltpFR	0	9	n/a	KEYBOARD	774	n/a	n/a	n/a	n/a	n/a	n/a	n/a
4597174	RECOG_CONF	n/a	LTP098	ltpFR	0	9	n/a	KEYBOARD	774	1	n/a	n/a	n/a	n/a	n/a	n/a
4598589	RECOG_LURE	n/a	LTP098	ltpFR	0	9	n/a	BARREL	91	2	n/a	n/a	n/a	n/a	n/a	n/a
4599448	RECOG_RESP	n/a	LTP098	ltpFR	0	9	n/a	BARREL	91	n/a	n/a	n/a	n/a	n/a	n/a	n/a
4600356	RECOG_CONF	n/a	LTP098	ltpFR	0	9	n/a	BARREL	91	2	n/a	n/a	n/a	n/a	n/a	n/a
4601689	RECOG_LURE	n/a	LTP098	ltpFR	0	9	n/a	DISC	473	1	n/a	n/a	n/a	n/a	n/a	n/a
4602556	RECOG_RESP	n/a	LTP098	ltpFR	0	9	n/a	DISC	473	n/a	n/a	n/a	n/a	n/a	n/a	n/a
4603769	RECOG_CONF	n/a	LTP098	ltpFR	0	9	n/a	DISC	473	1	n/a	n/a	n/a	n/a	n/a	n/a
4605104	RECOG_TARGET	n/a	LTP098	ltpFR	0	9	1	SPOOL	1356	5	0	n/a	n/a	n/a	n/a	n/a
4606373	RECOG_RESP	n/a	LTP098	ltpFR	0	9	1	SPOOL	1356	n/a	0	n/a	n/a	n/a	n/a	n/a
4607211	RECOG_CONF	n/a	LTP098	ltpFR	0	9	1	SPOOL	1356	5	0	n/a	n/a	n/a	n/a	n/a
4608655	RECOG_TARGET	n/a	LTP098	ltpFR	0	9	0	CUBE	420	5	0	n/a	n/a	n/a	n/a	n/a
4609501	RECOG_RESP	n/a	LTP098	ltpFR	0	9	0	CUBE	420	n/a	0	n/a	n/a	n/a	n/a	n/a
4610244	RECOG_CONF	n/a	LTP098	ltpFR	0	9	0	CUBE	420	5	0	n/a	n/a	n/a	n/a	n/a
4611655	RECOG_TARGET	n/a	LTP098	ltpFR	0	9	0	CAPTAIN	239	4	1	n/a	n/a	n/a	n/a	n/a
4612923	RECOG_RESP	n/a	LTP098	ltpFR	0	9	0	CAPTAIN	239	n/a	1	n/a	n/a	n/a	n/a	n/a
4613716	RECOG_CONF	n/a	LTP098	ltpFR	0	9	0	CAPTAIN	239	4	1	n/a	n/a	n/a	n/a	n/a
4615179	RECOG_LURE	n/a	LTP098	ltpFR	0	9	n/a	BOULEVARD	156	5	n/a	n/a	n/a	n/a	n/a	n/a
4616575	RECOG_RESP	n/a	LTP098	ltpFR	0	9	n/a	BOULEVARD	156	n/a	n/a	n/a	n/a	n/a	n/a	n/a
4617418	RECOG_CONF	n/a	LTP098	ltpFR	0	9	n/a	BOULEVARD	156	5	n/a	n/a	n/a	n/a	n/a	n/a
4620948	REC_START	n/a	LTP098	ltpFR	0	10	n/a	n/a	n/a	n/a	n/a	n/a	n/a	n/a	n/a	n/a
4620986	RECOG_LURE	n/a	LTP098	ltpFR	0	10	n/a	TRUMPET	1513	4	n/a	n/a	n/a	n/a	n/a	n/a
4622499	RECOG_RESP	n/a	LTP098	ltpFR	0	10	n/a	TRUMPET	1513	n/a	n/a	n/a	n/a	n/a	n/a	n/a
4623208	RECOG_CONF	n/a	LTP098	ltpFR	0	10	n/a	TRUMPET	1513	4	n/a	n/a	n/a	n/a	n/a	n/a
4624621	RECOG_TARGET	n/a	LTP098	ltpFR	0	10	-1	BLACKBERRY	132	5	-1	n/a	n/a	n/a	n/a	n/a
4625443	RECOG_RESP	n/a	LTP098	ltpFR	0	10	-1	BLACKBERRY	132	n/a	-1	n/a	n/a	n/a	n/a	n/a
4626390	RECOG_CONF	n/a	LTP098	ltpFR	0	10	-1	BLACKBERRY	132	5	-1	n/a	n/a	n/a	n/a	n/a
4627787	RECOG_LURE	n/a	LTP098	ltpFR	0	10	n/a	LIVER	833	5	n/a	n/a	n/a	n/a	n/a	n/a
4628855	RECOG_RESP	n/a	LTP098	ltpFR	0	10	n/a	LIVER	833	n/a	n/a	n/a	n/a	n/a	n/a	n/a
4629693	RECOG_CONF	n/a	LTP098	ltpFR	0	10	n/a	LIVER	833	5	n/a	n/a	n/a	n/a	n/a	n/a
4631002	RECOG_LURE	n/a	LTP098	ltpFR	0	10	n/a	STEP	1377	3	n/a	n/a	n/a	n/a	n/a	n/a
4632187	RECOG_RESP	n/a	LTP098	ltpFR	0	10	n/a	STEP	1377	n/a	n/a	n/a	n/a	n/a	n/a	n/a
4632995	RECOG_CONF	n/a	LTP098	ltpFR	0	10	n/a	STEP	1377	3	n/a	n/a	n/a	n/a	n/a	n/a
4634411	RECOG_LURE	n/a	LTP098	ltpFR	0	10	n/a	FLUTE	585	4	n/a	n/a	n/a	n/a	n/a	n/a
4635325	RECOG_RESP	n/a	LTP098	ltpFR	0	10	n/a	FLUTE	585	n/a	n/a	n/a	n/a	n/a	n/a	n/a
4636128	RECOG_CONF	n/a	LTP098	ltpFR	0	10	n/a	FLUTE	585	4	n/a	n/a	n/a	n/a	n/a	n/a
4637570	RECOG_TARGET	n/a	LTP098	ltpFR	0	10	0	WAX	1597	3	0	n/a	n/a	n/a	n/a	n/a
4639536	RECOG_RESP	n/a	LTP098	ltpFR	0	10	0	WAX	1597	n/a	0	n/a	n/a	n/a	n/a	n/a
4640329	RECOG_CONF	n/a	LTP098	ltpFR	0	10	0	WAX	1597	3	0	n/a	n/a	n/a	n/a	n/a
4641811	RECOG_LURE	n/a	LTP098	ltpFR	0	10	n/a	SHOULDER	1294	4	n/a	n/a	n/a	n/a	n/a	n/a
4642808	RECOG_RESP	n/a	LTP098	ltpFR	0	10	n/a	SHOULDER	1294	n/a	n/a	n/a	n/a	n/a	n/a	n/a
4643492	RECOG_CONF	n/a	LTP098	ltpFR	0	10	n/a	SHOULDER	1294	4	n/a	n/a	n/a	n/a	n/a	n/a
4644951	RECOG_LURE	n/a	LTP098	ltpFR	0	10	n/a	TYPEWRITER	1531	3	n/a	n/a	n/a	n/a	n/a	n/a
4646101	RECOG_RESP	n/a	LTP098	ltpFR	0	10	n/a	TYPEWRITER	1531	n/a	n/a	n/a	n/a	n/a	n/a	n/a
4646884	RECOG_CONF	n/a	LTP098	ltpFR	0	10	n/a	TYPEWRITER	1531	3	n/a	n/a	n/a	n/a	n/a	n/a
4648319	RECOG_LURE	n/a	LTP098	ltpFR	0	10	n/a	STALLION	1369	5	n/a	n/a	n/a	n/a	n/a	n/a
4649189	RECOG_RESP	n/a	LTP098	ltpFR	0	10	n/a	STALLION	1369	n/a	n/a	n/a	n/a	n/a	n/a	n/a
