mstime	trial_type	stim_file	subject	experiment	session	trial	item_name	item_num	list	answer	test_x	test_y	test_z
0	SESS_START	n/a	LTP317	ltpFR2	0	n/a	n/a	n/a	n/a	n/a	0	0	0
59204	START	n/a	LTP317	ltpFR2	0	n/a	n/a	n/a	-1	n/a	n/a	n/a	n/a
59236	PROB	n/a	LTP317	ltpFR2	0	n/a	n/a	n/a	-1	18	9	8	1
63239	PROB	n/a	LTP317	ltpFR2	0	n/a	n/a	n/a	-1	15	6	1	8
65707	PROB	n/a	LTP317	ltpFR2	0	n/a	n/a	n/a	-1	17	4	8	5
68077	PROB	n/a	LTP317	ltpFR2	0	n/a	n/a	n/a	-1	10	1	1	8
70317	STOP	n/a	LTP317	ltpFR2	0	n/a	n/a	n/a	-1	n/a	n/a	n/a	n/a
126545	DISTRACTOR	n/a	LTP317	ltpFR2	0	1	n/a	n/a	n/a	n/a	0	0	0
126545	START	n/a	LTP317	ltpFR2	0	n/a	n/a	n/a	1	n/a	n/a	n/a	n/a
126577	PROB	n/a	LTP317	ltpFR2	0	n/a	n/a	n/a	1	18	7	4	7
130298	PROB	n/a	LTP317	ltpFR2	0	n/a	n/a	n/a	1	12	9	2	1
132233	PROB	n/a	LTP317	ltpFR2	0	n/a	n/a	n/a	1	22	9	6	7
136619	PROB	n/a	LTP317	ltpFR2	0	n/a	n/a	n/a	1	21	8	7	6
140340	PROB	n/a	LTP317	ltpFR2	0	n/a	n/a	n/a	1	15	6	3	6
142591	PROB	n/a	LTP317	ltpFR2	0	n/a	n/a	n/a	1	15	6	1	8
144177	PROB	n/a	LTP317	ltpFR2	0	n/a	n/a	n/a	1	23	7	9	7
150545	STOP	n/a	LTP317	ltpFR2	0	n/a	n/a	n/a	1	n/a	n/a	n/a	n/a
151732	WORD	wordpools/wasnorm_wordpool_576.txt	LTP317	ltpFR2	0	1	PISTOL	1075	n/a	n/a	0	0	0
154536	WORD	wordpools/wasnorm_wordpool_576.txt	LTP317	ltpFR2	0	1	JAPAN	749	n/a	n/a	0	0	0
157305	WORD	wordpools/wasnorm_wordpool_576.txt	LTP317	ltpFR2	0	1	CHAUFFEUR	283	n/a	n/a	0	0	0
159939	WORD	wordpools/wasnorm_wordpool_576.txt	LTP317	ltpFR2	0	1	GALLON	618	n/a	n/a	0	0	0
162775	WORD	wordpools/wasnorm_wordpool_576.txt	LTP317	ltpFR2	0	1	MILK	895	n/a	n/a	0	0	0
165495	WORD	wordpools/wasnorm_wordpool_576.txt	LTP317	ltpFR2	0	1	FRIAR	605	n/a	n/a	0	0	0
168131	WORD	wordpools/wasnorm_wordpool_576.txt	LTP317	ltpFR2	0	1	NURSE	963	n/a	n/a	0	0	0
170765	WORD	wordpools/wasnorm_wordpool_576.txt	LTP317	ltpFR2	0	1	MAILMAN	858	n/a	n/a	0	0	0
173385	WORD	wordpools/wasnorm_wordpool_576.txt	LTP317	ltpFR2	0	1	DIME	466	n/a	n/a	0	0	0
175937	WORD	wordpools/wasnorm_wordpool_576.txt	LTP317	ltpFR2	0	1	COMPASS	358	n/a	n/a	0	0	0
178772	WORD	wordpools/wasnorm_wordpool_576.txt	LTP317	ltpFR2	0	1	ASIA	46	n/a	n/a	0	0	0
181608	WORD	wordpools/wasnorm_wordpool_576.txt	LTP317	ltpFR2	0	1	WINDOW	1611	n/a	n/a	0	0	0
184312	WORD	wordpools/wasnorm_wordpool_576.txt	LTP317	ltpFR2	0	1	SALT	1229	n/a	n/a	0	0	0
186813	WORD	wordpools/wasnorm_wordpool_576.txt	LTP317	ltpFR2	0	1	DANDRUFF	439	n/a	n/a	0	0	0
189399	WORD	wordpools/wasnorm_wordpool_576.txt	LTP317	ltpFR2	0	1	BADGE	68	n/a	n/a	0	0	0
191934	WORD	wordpools/wasnorm_wordpool_576.txt	LTP317	ltpFR2	0	1	STALLION	1369	n/a	n/a	0	0	0
194603	WORD	wordpools/wasnorm_wordpool_576.txt	LTP317	ltpFR2	0	1	DUSTPAN	509	n/a	n/a	0	0	0
197189	WORD	wordpools/wasnorm_wordpool_576.txt	LTP317	ltpFR2	0	1	ROD	1203	n/a	n/a	0	0	0
199924	WORD	wordpools/wasnorm_wordpool_576.txt	LTP317	ltpFR2	0	1	SUBWAY	1400	n/a	n/a	0	0	0
202576	WORD	wordpools/wasnorm_wordpool_576.txt	LTP317	ltpFR2	0	1	LAGOON	795	n/a	n/a	0	0	0
205196	WORD	wordpools/wasnorm_wordpool_576.txt	LTP317	ltpFR2	0	1	BATHTUB	100	n/a	n/a	0	0	0
207881	WORD	wordpools/wasnorm_wordpool_576.txt	LTP317	ltpFR2	0	1	ZIPPER	1636	n/a	n/a	0	0	0
210484	WORD	wordpools/wasnorm_wordpool_576.txt	LTP317	ltpFR2	0	1	AIRPLANE	12	n/a	n/a	0	0	0
213103	WORD	wordpools/wasnorm_wordpool_576.txt	LTP317	ltpFR2	0	1	GLASS	639	n/a	n/a	0	0	0
214720	START	n/a	LTP317	ltpFR2	0	n/a	n/a	n/a	2	n/a	n/a	n/a	n/a
215683	DISTRACTOR	n/a	LTP317	ltpFR2	0	1	n/a	n/a	n/a	n/a	0	0	0
215688	PROB	n/a	LTP317	ltpFR2	0	n/a	n/a	n/a	2	15	7	1	7
219041	PROB	n/a	LTP317	ltpFR2	0	n/a	n/a	n/a	2	5	1	3	1
220726	PROB	n/a	LTP317	ltpFR2	0	n/a	n/a	n/a	2	11	2	3	6
222345	PROB	n/a	LTP317	ltpFR2	0	n/a	n/a	n/a	2	6	2	3	1
225580	PROB	n/a	LTP317	ltpFR2	0	n/a	n/a	n/a	2	8	2	3	3
227449	PROB	n/a	LTP317	ltpFR2	0	n/a	n/a	n/a	2	17	8	4	5
229600	PROB	n/a	LTP317	ltpFR2	0	n/a	n/a	n/a	2	21	8	6	7
232220	PROB	n/a	LTP317	ltpFR2	0	n/a	n/a	n/a	2	15	1	7	7
233804	PROB	n/a	LTP317	ltpFR2	0	n/a	n/a	n/a	2	21	9	3	9
235722	PROB	n/a	LTP317	ltpFR2	0	n/a	n/a	n/a	2	15	3	3	6
237770	STOP	n/a	LTP317	ltpFR2	0	n/a	n/a	n/a	2	n/a	n/a	n/a	n/a
240494	REC_START	n/a	LTP317	ltpFR2	0	1	n/a	n/a	n/a	n/a	0	0	0
243048	REC_WORD	wordpools/wasnorm_wordpool_576.txt	LTP317	ltpFR2	0	1	JAPAN	749	n/a	n/a	0	0	0
244150	REC_WORD	wordpools/wasnorm_wordpool_576.txt	LTP317	ltpFR2	0	1	CHAUFFEUR	283	n/a	n/a	0	0	0
244987	REC_WORD	wordpools/wasnorm_wordpool_576.txt	LTP317	ltpFR2	0	1	ASIA	46	n/a	n/a	0	0	0
246189	REC_WORD	wordpools/wasnorm_wordpool_576.txt	LTP317	ltpFR2	0	1	POOL	1103	n/a	n/a	0	0	0
247517	REC_WORD	wordpools/wasnorm_wordpool_576.txt	LTP317	ltpFR2	0	1	GALLON	618	n/a	n/a	0	0	0
251186	REC_WORD	wordpools/wasnorm_wordpool_576.txt	LTP317	ltpFR2	0	1	DIME	466	n/a	n/a	0	0	0
251958	REC_WORD	wordpools/wasnorm_wordpool_576.txt	LTP317	ltpFR2	0	1	COMPASS	358	n/a	n/a	0	0	0
254389	REC_WORD	wordpools/wasnorm_wordpool_576.txt	LTP317	ltpFR2	0	1	DANDRUFF	439	n/a	n/a	0	0	0
260489	REC_WORD	wordpools/wasnorm_wordpool_576.txt	LTP317	ltpFR2	0	1	SHAMPOO	1274	n/a	n/a	0	0	0
312022	REC_WORD	wordpools/wasnorm_wordpool_576.txt	LTP317	ltpFR2	0	1	ASIA	46	n/a	n/a	0	0	0
371044	DISTRACTOR	n/a	LTP317	ltpFR2	0	2	n/a	n/a	n/a	n/a	0	0	0
371044	START	n/a	LTP317	ltpFR2	0	n/a	n/a	n/a	3	n/a	n/a	n/a	n/a
371059	PROB	n/a	LTP317	ltpFR2	0	n/a	n/a	n/a	3	22	9	6	7
374501	PROB	n/a	LTP317	ltpFR2	0	n/a	n/a	n/a	3	13	5	2	6
376385	PROB	n/a	LTP317	ltpFR2	0	n/a	n/a	n/a	3	17	8	8	1
377935	PROB	n/a	LTP317	ltpFR2	0	n/a	n/a	n/a	3	19	6	4	9
379456	PROB	n/a	LTP317	ltpFR2	0	n/a	n/a	n/a	3	12	7	4	1
381106	PROB	n/a	LTP317	ltpFR2	0	n/a	n/a	n/a	3	9	2	4	3
382874	PROB	n/a	LTP317	ltpFR2	0	n/a	n/a	n/a	3	17	6	5	6
385104	PROB	n/a	LTP317	ltpFR2	0	n/a	n/a	n/a	3	10	1	7	2
386926	PROB	n/a	LTP317	ltpFR2	0	n/a	n/a	n/a	3	8	1	6	1
388445	PROB	n/a	LTP317	ltpFR2	0	n/a	n/a	n/a	3	16	8	6	2
390877	PROB	n/a	LTP317	ltpFR2	0	n/a	n/a	n/a	3	18	9	5	4
393680	STOP	n/a	LTP317	ltpFR2	0	n/a	n/a	n/a	3	n/a	n/a	n/a	n/a
396201	WORD	wordpools/wasnorm_wordpool_576.txt	LTP317	ltpFR2	0	2	WORLD	1622	n/a	n/a	0	0	0
398870	WORD	wordpools/wasnorm_wordpool_576.txt	LTP317	ltpFR2	0	2	OZONE	996	n/a	n/a	0	0	0
401555	WORD	wordpools/wasnorm_wordpool_576.txt	LTP317	ltpFR2	0	2	CASHEW	253	n/a	n/a	0	0	0
404341	WORD	wordpools/wasnorm_wordpool_576.txt	LTP317	ltpFR2	0	2	TROUT	1511	n/a	n/a	0	0	0
406857	WORD	wordpools/wasnorm_wordpool_576.txt	LTP317	ltpFR2	0	2	SLOPE	1328	n/a	n/a	0	0	0
409410	WORD	wordpools/wasnorm_wordpool_576.txt	LTP317	ltpFR2	0	2	CHAPEL	280	n/a	n/a	0	0	0
412145	WORD	wordpools/wasnorm_wordpool_576.txt	LTP317	ltpFR2	0	2	KNIFE	785	n/a	n/a	0	0	0
414947	WORD	wordpools/wasnorm_wordpool_576.txt	LTP317	ltpFR2	0	2	BLUEPRINT	142	n/a	n/a	0	0	0
417683	WORD	wordpools/wasnorm_wordpool_576.txt	LTP317	ltpFR2	0	2	POPCORN	1104	n/a	n/a	0	0	0
420171	WORD	wordpools/wasnorm_wordpool_576.txt	LTP317	ltpFR2	0	2	STATUE	1374	n/a	n/a	0	0	0
422671	WORD	wordpools/wasnorm_wordpool_576.txt	LTP317	ltpFR2	0	2	IDOL	733	n/a	n/a	0	0	0
425274	WORD	wordpools/wasnorm_wordpool_576.txt	LTP317	ltpFR2	0	2	SODA	1341	n/a	n/a	0	0	0
427742	WORD	wordpools/wasnorm_wordpool_576.txt	LTP317	ltpFR2	0	2	PLATE	1086	n/a	n/a	0	0	0
430379	WORD	wordpools/wasnorm_wordpool_576.txt	LTP317	ltpFR2	0	2	TWIG	1527	n/a	n/a	0	0	0
433064	WORD	wordpools/wasnorm_wordpool_576.txt	LTP317	ltpFR2	0	2	RABBIT	1152	n/a	n/a	0	0	0
435533	WORD	wordpools/wasnorm_wordpool_576.txt	LTP317	ltpFR2	0	2	VAGRANT	1544	n/a	n/a	0	0	0
438319	WORD	wordpools/wasnorm_wordpool_576.txt	LTP317	ltpFR2	0	2	HAWK	692	n/a	n/a	0	0	0
440869	WORD	wordpools/wasnorm_wordpool_576.txt	LTP317	ltpFR2	0	2	CRITIC	410	n/a	n/a	0	0	0
443523	WORD	wordpools/wasnorm_wordpool_576.txt	LTP317	ltpFR2	0	2	PALACE	1006	n/a	n/a	0	0	0
445991	WORD	wordpools/wasnorm_wordpool_576.txt	LTP317	ltpFR2	0	2	BALLOON	75	n/a	n/a	0	0	0
448427	WORD	wordpools/wasnorm_wordpool_576.txt	LTP317	ltpFR2	0	2	BELLY	119	n/a	n/a	0	0	0
451011	WORD	wordpools/wasnorm_wordpool_576.txt	LTP317	ltpFR2	0	2	STOMACH	1384	n/a	n/a	0	0	0
453580	WORD	wordpools/wasnorm_wordpool_576.txt	LTP317	ltpFR2	0	2	BOYFRIEND	162	n/a	n/a	0	0	0
456316	WORD	wordpools/wasnorm_wordpool_576.txt	LTP317	ltpFR2	0	2	VALVE	1546	n/a	n/a	0	0	0
457934	START	n/a	LTP317	ltpFR2	0	n/a	n/a	n/a	4	n/a	n/a	n/a	n/a
459054	DISTRACTOR	n/a	LTP317	ltpFR2	0	2	n/a	n/a	n/a	n/a	0	0	0
459069	PROB	n/a	LTP317	ltpFR2	0	n/a	n/a	n/a	4	15	3	6	6
461786	PROB	n/a	LTP317	ltpFR2	0	n/a	n/a	n/a	4	14	9	4	1
464722	PROB	n/a	LTP317	ltpFR2	0	n/a	n/a	n/a	4	11	6	3	2
468258	PROB	n/a	LTP317	ltpFR2	0	n/a	n/a	n/a	4	20	2	9	9
470910	PROB	n/a	LTP317	ltpFR2	0	n/a	n/a	n/a	4	22	7	7	8
474296	PROB	n/a	LTP317	ltpFR2	0	n/a	n/a	n/a	4	16	4	3	4
476166	PROB	n/a	LTP317	ltpFR2	0	n/a	n/a	n/a	4	14	8	3	3
480836	STOP	n/a	LTP317	ltpFR2	0	n/a	n/a	n/a	4	n/a	n/a	n/a	n/a
483822	REC_START	n/a	LTP317	ltpFR2	0	2	n/a	n/a	n/a	n/a	0	0	0
485210	REC_WORD	wordpools/wasnorm_wordpool_576.txt	LTP317	ltpFR2	0	2	OZONE	996	n/a	n/a	0	0	0
486259	REC_WORD	wordpools/wasnorm_wordpool_576.txt	LTP317	ltpFR2	0	2	WORLD	1622	n/a	n/a	0	0	0
487197	REC_WORD	wordpools/wasnorm_wordpool_576.txt	LTP317	ltpFR2	0	2	BALLOON	75	n/a	n/a	0	0	0
487978	REC_WORD	wordpools/wasnorm_wordpool_576.txt	LTP317	ltpFR2	0	2	PALACE	1006	n/a	n/a	0	0	0
489952	REC_WORD	wordpools/wasnorm_wordpool_576.txt	LTP317	ltpFR2	0	2	VAGRANT	1544	n/a	n/a	0	0	0
495285	REC_WORD	wordpools/wasnorm_wordpool_576.txt	LTP317	ltpFR2	0	2	TROUT	1511	n/a	n/a	0	0	0
496214	REC_WORD	wordpools/wasnorm_wordpool_576.txt	LTP317	ltpFR2	0	2	CHAPEL	280	n/a	n/a	0	0	0
514939	REC_WORD	wordpools/wasnorm_wordpool_576.txt	LTP317	ltpFR2	0	2	BALLOON	75	n/a	n/a	0	0	0
574260	WORD	wordpools/wasnorm_wordpool_576.txt	LTP317	ltpFR2	0	3	PADDING	999	n/a	n/a	0	0	0
577072	WORD	wordpools/wasnorm_wordpool_576.txt	LTP317	ltpFR2	0	3	TWISTER	1530	n/a	n/a	0	0	0
579847	WORD	wordpools/wasnorm_wordpool_576.txt	LTP317	ltpFR2	0	3	CLAMP	316	n/a	n/a	0	0	0
582528	WORD	wordpools/wasnorm_wordpool_576.txt	LTP317	ltpFR2	0	3	OUTDOORS	987	n/a	n/a	0	0	0
585170	WORD	wordpools/wasnorm_wordpool_576.txt	LTP317	ltpFR2	0	3	MONEY	908	n/a	n/a	0	0	0
587987	WORD	wordpools/wasnorm_wordpool_576.txt	LTP317	ltpFR2	0	3	CLAM	315	n/a	n/a	0	0	0
590700	WORD	wordpools/wasnorm_wordpool_576.txt	LTP317	ltpFR2	0	3	DAISY	435	n/a	n/a	0	0	0
593126	WORD	wordpools/wasnorm_wordpool_576.txt	LTP317	ltpFR2	0	3	DRAGON	492	n/a	n/a	0	0	0
595894	WORD	wordpools/wasnorm_wordpool_576.txt	LTP317	ltpFR2	0	3	HAND	683	n/a	n/a	0	0	0
598459	WORD	wordpools/wasnorm_wordpool_576.txt	LTP317	ltpFR2	0	3	WRIST	1626	n/a	n/a	0	0	0
601165	WORD	wordpools/wasnorm_wordpool_576.txt	LTP317	ltpFR2	0	3	SWIMMER	1420	n/a	n/a	0	0	0
603929	WORD	wordpools/wasnorm_wordpool_576.txt	LTP317	ltpFR2	0	3	QUARTER	1148	n/a	n/a	0	0	0
606581	WORD	wordpools/wasnorm_wordpool_576.txt	LTP317	ltpFR2	0	3	MUFFIN	929	n/a	n/a	0	0	0
609268	WORD	wordpools/wasnorm_wordpool_576.txt	LTP317	ltpFR2	0	3	EUROPE	541	n/a	n/a	0	0	0
611819	WORD	wordpools/wasnorm_wordpool_576.txt	LTP317	ltpFR2	0	3	BLOCKADE	137	n/a	n/a	0	0	0
614605	WORD	wordpools/wasnorm_wordpool_576.txt	LTP317	ltpFR2	0	3	BRAKE	166	n/a	n/a	0	0	0
617408	WORD	wordpools/wasnorm_wordpool_576.txt	LTP317	ltpFR2	0	3	WIFE	1609	n/a	n/a	0	0	0
620111	WORD	wordpools/wasnorm_wordpool_576.txt	LTP317	ltpFR2	0	3	SILK	1307	n/a	n/a	0	0	0
622899	WORD	wordpools/wasnorm_wordpool_576.txt	LTP317	ltpFR2	0	3	SWORD	1423	n/a	n/a	0	0	0
625402	WORD	wordpools/wasnorm_wordpool_576.txt	LTP317	ltpFR2	0	3	HEART	697	n/a	n/a	0	0	0
628067	WORD	wordpools/wasnorm_wordpool_576.txt	LTP317	ltpFR2	0	3	TURTLE	1522	n/a	n/a	0	0	0
630486	WORD	wordpools/wasnorm_wordpool_576.txt	LTP317	ltpFR2	0	3	KEEPER	769	n/a	n/a	0	0	0
633104	WORD	wordpools/wasnorm_wordpool_576.txt	LTP317	ltpFR2	0	3	SCISSORS	1250	n/a	n/a	0	0	0
635623	WORD	wordpools/wasnorm_wordpool_576.txt	LTP317	ltpFR2	0	3	BUTCHER	203	n/a	n/a	0	0	0
637229	START	n/a	LTP317	ltpFR2	0	n/a	n/a	n/a	5	n/a	n/a	n/a	n/a
638084	DISTRACTOR	n/a	LTP317	ltpFR2	0	3	n/a	n/a	n/a	n/a	0	0	0
638092	PROB	n/a	LTP317	ltpFR2	0	n/a	n/a	n/a	5	11	7	1	3
642878	PROB	n/a	LTP317	ltpFR2	0	n/a	n/a	n/a	5	18	6	7	5
644996	PROB	n/a	LTP317	ltpFR2	0	n/a	n/a	n/a	5	16	2	5	9
646915	PROB	n/a	LTP317	ltpFR2	0	n/a	n/a	n/a	5	12	5	4	3
648451	PROB	n/a	LTP317	ltpFR2	0	n/a	n/a	n/a	5	6	4	1	1
650171	PROB	n/a	LTP317	ltpFR2	0	n/a	n/a	n/a	5	14	6	5	3
653072	PROB	n/a	LTP317	ltpFR2	0	n/a	n/a	n/a	5	26	9	9	8
657760	PROB	n/a	LTP317	ltpFR2	0	n/a	n/a	n/a	5	17	7	8	2
661229	STOP	n/a	LTP317	ltpFR2	0	n/a	n/a	n/a	5	n/a	n/a	n/a	n/a
662999	REC_START	n/a	LTP317	ltpFR2	0	3	n/a	n/a	n/a	n/a	0	0	0
664106	REC_WORD	wordpools/wasnorm_wordpool_576.txt	LTP317	ltpFR2	0	3	SCISSORS	1250	n/a	n/a	0	0	0
665237	REC_WORD	wordpools/wasnorm_wordpool_576.txt	LTP317	ltpFR2	0	3	BUTCHER	203	n/a	n/a	0	0	0
668768	REC_WORD	wordpools/wasnorm_wordpool_576.txt	LTP317	ltpFR2	0	3	CLAM	315	n/a	n/a	0	0	0
670061	REC_WORD	wordpools/wasnorm_wordpool_576.txt	LTP317	ltpFR2	0	3	DAISY	435	n/a	n/a	0	0	0
671274	REC_WORD	wordpools/wasnorm_wordpool_576.txt	LTP317	ltpFR2	0	3	DRAGON	492	n/a	n/a	0	0	0
673318	REC_WORD	wordpools/wasnorm_wordpool_576.txt	LTP317	ltpFR2	0	3	OUTDOORS	987	n/a	n/a	0	0	0
674318	REC_WORD_VV	wordpools/wasnorm_wordpool_576.txt	LTP317	ltpFR2	0	3	<>	-1	n/a	n/a	0	0	0
753422	DISTRACTOR	n/a	LTP317	ltpFR2	0	4	n/a	n/a	n/a	n/a	0	0	0
753422	START	n/a	LTP317	ltpFR2	0	n/a	n/a	n/a	6	n/a	n/a	n/a	n/a
753437	PROB	n/a	LTP317	ltpFR2	0	n/a	n/a	n/a	6	28	7	9	2
759191	PROB	n/a	LTP317	ltpFR2	0	n/a	n/a	n/a	6	9	3	3	3
761628	PROB	n/a	LTP317	ltpFR2	0	n/a	n/a	n/a	6	14	1	9	4
765629	PROB	n/a	LTP317	ltpFR2	0	n/a	n/a	n/a	6	20	9	9	2
767865	PROB	n/a	LTP317	ltpFR2	0	n/a	n/a	n/a	6	14	9	1	4
769767	PROB	n/a	LTP317	ltpFR2	0	n/a	n/a	n/a	6	10	1	1	8
771236	PROB	n/a	LTP317	ltpFR2	0	n/a	n/a	n/a	6	19	8	6	5
773869	PROB	n/a	LTP317	ltpFR2	0	n/a	n/a	n/a	6	8	4	3	1
777422	STOP	n/a	LTP317	ltpFR2	0	n/a	n/a	n/a	6	n/a	n/a	n/a	n/a
778465	WORD	wordpools/wasnorm_wordpool_576.txt	LTP317	ltpFR2	0	4	SALAD	1224	n/a	n/a	0	0	0
780942	WORD	wordpools/wasnorm_wordpool_576.txt	LTP317	ltpFR2	0	4	LAKE	796	n/a	n/a	0	0	0
783577	WORD	wordpools/wasnorm_wordpool_576.txt	LTP317	ltpFR2	0	4	CAMEL	223	n/a	n/a	0	0	0
786214	WORD	wordpools/wasnorm_wordpool_576.txt	LTP317	ltpFR2	0	4	POET	1095	n/a	n/a	0	0	0
788732	WORD	wordpools/wasnorm_wordpool_576.txt	LTP317	ltpFR2	0	4	GRIZZLY	662	n/a	n/a	0	0	0
791293	WORD	wordpools/wasnorm_wordpool_576.txt	LTP317	ltpFR2	0	4	EMPIRE	530	n/a	n/a	0	0	0
794019	WORD	wordpools/wasnorm_wordpool_576.txt	LTP317	ltpFR2	0	4	CREVICE	405	n/a	n/a	0	0	0
796530	WORD	wordpools/wasnorm_wordpool_576.txt	LTP317	ltpFR2	0	4	MATCH	878	n/a	n/a	0	0	0
799258	WORD	wordpools/wasnorm_wordpool_576.txt	LTP317	ltpFR2	0	4	PICTURE	1061	n/a	n/a	0	0	0
801851	WORD	wordpools/wasnorm_wordpool_576.txt	LTP317	ltpFR2	0	4	BINDER	127	n/a	n/a	0	0	0
804338	WORD	wordpools/wasnorm_wordpool_576.txt	LTP317	ltpFR2	0	4	DENTIST	447	n/a	n/a	0	0	0
807013	WORD	wordpools/wasnorm_wordpool_576.txt	LTP317	ltpFR2	0	4	BRACES	164	n/a	n/a	0	0	0
809741	WORD	wordpools/wasnorm_wordpool_576.txt	LTP317	ltpFR2	0	4	LIZARD	834	n/a	n/a	0	0	0
812261	WORD	wordpools/wasnorm_wordpool_576.txt	LTP317	ltpFR2	0	4	POISON	1096	n/a	n/a	0	0	0
814986	WORD	wordpools/wasnorm_wordpool_576.txt	LTP317	ltpFR2	0	4	WRENCH	1625	n/a	n/a	0	0	0
817655	WORD	wordpools/wasnorm_wordpool_576.txt	LTP317	ltpFR2	0	4	BUG	187	n/a	n/a	0	0	0
820317	WORD	wordpools/wasnorm_wordpool_576.txt	LTP317	ltpFR2	0	4	SUMMIT	1405	n/a	n/a	0	0	0
823120	WORD	wordpools/wasnorm_wordpool_576.txt	LTP317	ltpFR2	0	4	SUNSET	1408	n/a	n/a	0	0	0
825922	WORD	wordpools/wasnorm_wordpool_576.txt	LTP317	ltpFR2	0	4	PENGUIN	1044	n/a	n/a	0	0	0
828714	WORD	wordpools/wasnorm_wordpool_576.txt	LTP317	ltpFR2	0	4	WARDROBE	1587	n/a	n/a	0	0	0
831500	WORD	wordpools/wasnorm_wordpool_576.txt	LTP317	ltpFR2	0	4	DENIM	446	n/a	n/a	0	0	0
833928	WORD	wordpools/wasnorm_wordpool_576.txt	LTP317	ltpFR2	0	4	CRATER	400	n/a	n/a	0	0	0
836488	WORD	wordpools/wasnorm_wordpool_576.txt	LTP317	ltpFR2	0	4	SWAMP	1416	n/a	n/a	0	0	0
838967	WORD	wordpools/wasnorm_wordpool_576.txt	LTP317	ltpFR2	0	4	FIREMAN	569	n/a	n/a	0	0	0
840574	START	n/a	LTP317	ltpFR2	0	n/a	n/a	n/a	7	n/a	n/a	n/a	n/a
841416	DISTRACTOR	n/a	LTP317	ltpFR2	0	4	n/a	n/a	n/a	n/a	0	0	0
841425	PROB	n/a	LTP317	ltpFR2	0	n/a	n/a	n/a	7	10	1	1	8
846447	PROB	n/a	LTP317	ltpFR2	0	n/a	n/a	n/a	7	18	7	5	6
848848	PROB	n/a	LTP317	ltpFR2	0	n/a	n/a	n/a	7	24	9	8	7
851798	PROB	n/a	LTP317	ltpFR2	0	n/a	n/a	n/a	7	12	2	6	4
855735	PROB	n/a	LTP317	ltpFR2	0	n/a	n/a	n/a	7	17	4	6	7
858020	PROB	n/a	LTP317	ltpFR2	0	n/a	n/a	n/a	7	10	6	3	1
859473	PROB	n/a	LTP317	ltpFR2	0	n/a	n/a	n/a	7	14	4	5	5
864574	STOP	n/a	LTP317	ltpFR2	0	n/a	n/a	n/a	7	n/a	n/a	n/a	n/a
866429	REC_START	n/a	LTP317	ltpFR2	0	4	n/a	n/a	n/a	n/a	0	0	0
867933	REC_WORD	wordpools/wasnorm_wordpool_576.txt	LTP317	ltpFR2	0	4	SALAD	1224	n/a	n/a	0	0	0
869278	REC_WORD	wordpools/wasnorm_wordpool_576.txt	LTP317	ltpFR2	0	4	LAKE	796	n/a	n/a	0	0	0
870335	REC_WORD	wordpools/wasnorm_wordpool_576.txt	LTP317	ltpFR2	0	4	CAMEL	223	n/a	n/a	0	0	0
871718	REC_WORD	wordpools/wasnorm_wordpool_576.txt	LTP317	ltpFR2	0	4	POET	1095	n/a	n/a	0	0	0
876663	REC_WORD	wordpools/wasnorm_wordpool_576.txt	LTP317	ltpFR2	0	4	CRATER	400	n/a	n/a	0	0	0
880215	REC_WORD	wordpools/wasnorm_wordpool_576.txt	LTP317	ltpFR2	0	4	DENTIST	447	n/a	n/a	0	0	0
881667	REC_WORD	wordpools/wasnorm_wordpool_576.txt	LTP317	ltpFR2	0	4	BRACES	164	n/a	n/a	0	0	0
882942	REC_WORD	wordpools/wasnorm_wordpool_576.txt	LTP317	ltpFR2	0	4	POISON	1096	n/a	n/a	0	0	0
956900	WORD	wordpools/wasnorm_wordpool_576.txt	LTP317	ltpFR2	0	5	CASKET	255	n/a	n/a	0	0	0
959369	WORD	wordpools/wasnorm_wordpool_576.txt	LTP317	ltpFR2	0	5	SWITCH	1422	n/a	n/a	0	0	0
961940	WORD	wordpools/wasnorm_wordpool_576.txt	LTP317	ltpFR2	0	5	SUNRISE	1407	n/a	n/a	0	0	0
964556	WORD	wordpools/wasnorm_wordpool_576.txt	LTP317	ltpFR2	0	5	NIGHTGOWN	953	n/a	n/a	0	0	0
967360	WORD	wordpools/wasnorm_wordpool_576.txt	LTP317	ltpFR2	0	5	WIDOW	1608	n/a	n/a	0	0	0
969793	WORD	wordpools/wasnorm_wordpool_576.txt	LTP317	ltpFR2	0	5	CANYON	235	n/a	n/a	0	0	0
972264	WORD	wordpools/wasnorm_wordpool_576.txt	LTP317	ltpFR2	0	5	CYCLONE	431	n/a	n/a	0	0	0
974882	WORD	wordpools/wasnorm_wordpool_576.txt	LTP317	ltpFR2	0	5	PUDDLE	1140	n/a	n/a	0	0	0
977604	WORD	wordpools/wasnorm_wordpool_576.txt	LTP317	ltpFR2	0	5	OUTLAW	989	n/a	n/a	0	0	0
980153	WORD	wordpools/wasnorm_wordpool_576.txt	LTP317	ltpFR2	0	5	BOX	159	n/a	n/a	0	0	0
982655	WORD	wordpools/wasnorm_wordpool_576.txt	LTP317	ltpFR2	0	5	LILY	821	n/a	n/a	0	0	0
985407	WORD	wordpools/wasnorm_wordpool_576.txt	LTP317	ltpFR2	0	5	REPORT	1184	n/a	n/a	0	0	0
987992	WORD	wordpools/wasnorm_wordpool_576.txt	LTP317	ltpFR2	0	5	LADDER	793	n/a	n/a	0	0	0
990777	WORD	wordpools/wasnorm_wordpool_576.txt	LTP317	ltpFR2	0	5	CATTLE	261	n/a	n/a	0	0	0
993480	WORD	wordpools/wasnorm_wordpool_576.txt	LTP317	ltpFR2	0	5	PERMIT	1051	n/a	n/a	0	0	0
996117	WORD	wordpools/wasnorm_wordpool_576.txt	LTP317	ltpFR2	0	5	COOKBOOK	373	n/a	n/a	0	0	0
998551	WORD	wordpools/wasnorm_wordpool_576.txt	LTP317	ltpFR2	0	5	COOK	372	n/a	n/a	0	0	0
1001019	WORD	wordpools/wasnorm_wordpool_576.txt	LTP317	ltpFR2	0	5	AWARD	63	n/a	n/a	0	0	0
1003771	WORD	wordpools/wasnorm_wordpool_576.txt	LTP317	ltpFR2	0	5	CEILING	265	n/a	n/a	0	0	0
1006240	WORD	wordpools/wasnorm_wordpool_576.txt	LTP317	ltpFR2	0	5	NOTEBOOK	959	n/a	n/a	0	0	0
1008748	WORD	wordpools/wasnorm_wordpool_576.txt	LTP317	ltpFR2	0	5	EXPERT	543	n/a	n/a	0	0	0
1011178	WORD	wordpools/wasnorm_wordpool_576.txt	LTP317	ltpFR2	0	5	TRANSPLANT	1496	n/a	n/a	0	0	0
1013645	WORD	wordpools/wasnorm_wordpool_576.txt	LTP317	ltpFR2	0	5	LIVER	833	n/a	n/a	0	0	0
1016355	WORD	wordpools/wasnorm_wordpool_576.txt	LTP317	ltpFR2	0	5	CRUTCH	417	n/a	n/a	0	0	0
1017967	START	n/a	LTP317	ltpFR2	0	n/a	n/a	n/a	8	n/a	n/a	n/a	n/a
1018952	DISTRACTOR	n/a	LTP317	ltpFR2	0	5	n/a	n/a	n/a	n/a	0	0	0
1018956	PROB	n/a	LTP317	ltpFR2	0	n/a	n/a	n/a	8	16	7	7	2
1023852	PROB	n/a	LTP317	ltpFR2	0	n/a	n/a	n/a	8	17	2	8	7
1026973	PROB	n/a	LTP317	ltpFR2	0	n/a	n/a	n/a	8	17	7	1	9
1028708	PROB	n/a	LTP317	ltpFR2	0	n/a	n/a	n/a	8	19	7	4	8
1030859	PROB	n/a	LTP317	ltpFR2	0	n/a	n/a	n/a	8	15	5	7	3
1032678	PROB	n/a	LTP317	ltpFR2	0	n/a	n/a	n/a	8	12	2	2	8
1035629	PROB	n/a	LTP317	ltpFR2	0	n/a	n/a	n/a	8	17	4	4	9
1038399	PROB	n/a	LTP317	ltpFR2	0	n/a	n/a	n/a	8	16	9	6	1
1040168	PROB	n/a	LTP317	ltpFR2	0	n/a	n/a	n/a	8	12	8	3	1
1041882	STOP	n/a	LTP317	ltpFR2	0	n/a	n/a	n/a	8	n/a	n/a	n/a	n/a
1043869	REC_START	n/a	LTP317	ltpFR2	0	5	n/a	n/a	n/a	n/a	0	0	0
1046364	REC_WORD	wordpools/wasnorm_wordpool_576.txt	LTP317	ltpFR2	0	5	NIGHTGOWN	953	n/a	n/a	0	0	0
1047483	REC_WORD	wordpools/wasnorm_wordpool_576.txt	LTP317	ltpFR2	0	5	CANYON	235	n/a	n/a	0	0	0
1049011	REC_WORD	wordpools/wasnorm_wordpool_576.txt	LTP317	ltpFR2	0	5	CASKET	255	n/a	n/a	0	0	0
1050611	REC_WORD	wordpools/wasnorm_wordpool_576.txt	LTP317	ltpFR2	0	5	CRUTCH	417	n/a	n/a	0	0	0
1056636	REC_WORD	wordpools/wasnorm_wordpool_576.txt	LTP317	ltpFR2	0	5	CATTLE	261	n/a	n/a	0	0	0
1066917	REC_WORD	wordpools/wasnorm_wordpool_576.txt	LTP317	ltpFR2	0	5	COOKBOOK	373	n/a	n/a	0	0	0
1067809	REC_WORD	wordpools/wasnorm_wordpool_576.txt	LTP317	ltpFR2	0	5	NOTEBOOK	959	n/a	n/a	0	0	0
1069397	REC_WORD	wordpools/wasnorm_wordpool_576.txt	LTP317	ltpFR2	0	5	COOK	372	n/a	n/a	0	0	0
1081288	REC_WORD	wordpools/wasnorm_wordpool_576.txt	LTP317	ltpFR2	0	5	PUDDLE	1140	n/a	n/a	0	0	0
1082241	REC_WORD	wordpools/wasnorm_wordpool_576.txt	LTP317	ltpFR2	0	5	CYCLONE	431	n/a	n/a	0	0	0
1134311	DISTRACTOR	n/a	LTP317	ltpFR2	0	6	n/a	n/a	n/a	n/a	0	0	0
1134311	START	n/a	LTP317	ltpFR2	0	n/a	n/a	n/a	9	n/a	n/a	n/a	n/a
1134327	PROB	n/a	LTP317	ltpFR2	0	n/a	n/a	n/a	9	20	5	8	7
1136992	PROB	n/a	LTP317	ltpFR2	0	n/a	n/a	n/a	9	16	4	5	7
1138779	PROB	n/a	LTP317	ltpFR2	0	n/a	n/a	n/a	9	18	6	4	8
1140715	PROB	n/a	LTP317	ltpFR2	0	n/a	n/a	n/a	9	12	6	5	1
1142251	PROB	n/a	LTP317	ltpFR2	0	n/a	n/a	n/a	9	21	8	9	4
1146933	PROB	n/a	LTP317	ltpFR2	0	n/a	n/a	n/a	9	19	4	7	8
1148836	PROB	n/a	LTP317	ltpFR2	0	n/a	n/a	n/a	9	9	3	3	3
1150307	PROB	n/a	LTP317	ltpFR2	0	n/a	n/a	n/a	9	6	4	1	1
1152075	PROB	n/a	LTP317	ltpFR2	0	n/a	n/a	n/a	9	12	4	4	4
1153840	PROB	n/a	LTP317	ltpFR2	0	n/a	n/a	n/a	9	15	4	6	5
1156260	PROB	n/a	LTP317	ltpFR2	0	n/a	n/a	n/a	9	17	7	9	1
1157878	STOP	n/a	LTP317	ltpFR2	0	n/a	n/a	n/a	9	n/a	n/a	n/a	n/a
1159329	WORD	wordpools/wasnorm_wordpool_576.txt	LTP317	ltpFR2	0	6	FIREPLACE	570	n/a	n/a	0	0	0
1162082	WORD	wordpools/wasnorm_wordpool_576.txt	LTP317	ltpFR2	0	6	CIGAR	308	n/a	n/a	0	0	0
1164783	WORD	wordpools/wasnorm_wordpool_576.txt	LTP317	ltpFR2	0	6	MARS	873	n/a	n/a	0	0	0
1167320	WORD	wordpools/wasnorm_wordpool_576.txt	LTP317	ltpFR2	0	6	GARLIC	624	n/a	n/a	0	0	0
1170088	WORD	wordpools/wasnorm_wordpool_576.txt	LTP317	ltpFR2	0	6	FRANCE	601	n/a	n/a	0	0	0
1172740	WORD	wordpools/wasnorm_wordpool_576.txt	LTP317	ltpFR2	0	6	NAPKIN	937	n/a	n/a	0	0	0
1175243	WORD	wordpools/wasnorm_wordpool_576.txt	LTP317	ltpFR2	0	6	CUPBOARD	425	n/a	n/a	0	0	0
1178046	WORD	wordpools/wasnorm_wordpool_576.txt	LTP317	ltpFR2	0	6	HATCHET	691	n/a	n/a	0	0	0
1180562	WORD	wordpools/wasnorm_wordpool_576.txt	LTP317	ltpFR2	0	6	HOSTESS	723	n/a	n/a	0	0	0
1183050	WORD	wordpools/wasnorm_wordpool_576.txt	LTP317	ltpFR2	0	6	POWDER	1117	n/a	n/a	0	0	0
1185767	WORD	wordpools/wasnorm_wordpool_576.txt	LTP317	ltpFR2	0	6	TABLE	1426	n/a	n/a	0	0	0
1188237	WORD	wordpools/wasnorm_wordpool_576.txt	LTP317	ltpFR2	0	6	AIRPORT	13	n/a	n/a	0	0	0
1190938	WORD	wordpools/wasnorm_wordpool_576.txt	LTP317	ltpFR2	0	6	FRAGRANCE	599	n/a	n/a	0	0	0
1193690	WORD	wordpools/wasnorm_wordpool_576.txt	LTP317	ltpFR2	0	6	DAUGHTER	442	n/a	n/a	0	0	0
1196262	WORD	wordpools/wasnorm_wordpool_576.txt	LTP317	ltpFR2	0	6	PASSAGE	1019	n/a	n/a	0	0	0
1198894	WORD	wordpools/wasnorm_wordpool_576.txt	LTP317	ltpFR2	0	6	PRINCE	1124	n/a	n/a	0	0	0
1201597	WORD	wordpools/wasnorm_wordpool_576.txt	LTP317	ltpFR2	0	6	CAFE	216	n/a	n/a	0	0	0
1204285	WORD	wordpools/wasnorm_wordpool_576.txt	LTP317	ltpFR2	0	6	DINER	467	n/a	n/a	0	0	0
1207102	WORD	wordpools/wasnorm_wordpool_576.txt	LTP317	ltpFR2	0	6	QUEEN	1149	n/a	n/a	0	0	0
1209619	WORD	wordpools/wasnorm_wordpool_576.txt	LTP317	ltpFR2	0	6	GARDEN	623	n/a	n/a	0	0	0
1212339	WORD	wordpools/wasnorm_wordpool_576.txt	LTP317	ltpFR2	0	6	BIKE	125	n/a	n/a	0	0	0
1214857	WORD	wordpools/wasnorm_wordpool_576.txt	LTP317	ltpFR2	0	6	CRIB	407	n/a	n/a	0	0	0
1217609	WORD	wordpools/wasnorm_wordpool_576.txt	LTP317	ltpFR2	0	6	ELBOW	520	n/a	n/a	0	0	0
1220150	WORD	wordpools/wasnorm_wordpool_576.txt	LTP317	ltpFR2	0	6	PILOT	1070	n/a	n/a	0	0	0
1221763	START	n/a	LTP317	ltpFR2	0	n/a	n/a	n/a	10	n/a	n/a	n/a	n/a
1222784	DISTRACTOR	n/a	LTP317	ltpFR2	0	6	n/a	n/a	n/a	n/a	0	0	0
1222797	PROB	n/a	LTP317	ltpFR2	0	n/a	n/a	n/a	10	24	9	6	9
1227749	PROB	n/a	LTP317	ltpFR2	0	n/a	n/a	n/a	10	20	8	5	7
1229752	PROB	n/a	LTP317	ltpFR2	0	n/a	n/a	n/a	10	7	2	2	3
1233704	PROB	n/a	LTP317	ltpFR2	0	n/a	n/a	n/a	10	11	3	3	5
1235641	PROB	n/a	LTP317	ltpFR2	0	n/a	n/a	n/a	10	17	7	1	9
1237741	PROB	n/a	LTP317	ltpFR2	0	n/a	n/a	n/a	10	12	3	4	5
1240511	PROB	n/a	LTP317	ltpFR2	0	n/a	n/a	n/a	10	18	9	6	3
1242462	PROB	n/a	LTP317	ltpFR2	0	n/a	n/a	n/a	10	16	9	2	5
1244283	STOP	n/a	LTP317	ltpFR2	0	n/a	n/a	n/a	10	n/a	n/a	n/a	n/a
1247632	REC_START	n/a	LTP317	ltpFR2	0	6	n/a	n/a	n/a	n/a	0	0	0
1249700	REC_WORD	wordpools/wasnorm_wordpool_576.txt	LTP317	ltpFR2	0	6	PILOT	1070	n/a	n/a	0	0	0
1253321	REC_WORD	wordpools/wasnorm_wordpool_576.txt	LTP317	ltpFR2	0	6	FIREPLACE	570	n/a	n/a	0	0	0
1254390	REC_WORD	wordpools/wasnorm_wordpool_576.txt	LTP317	ltpFR2	0	6	CIGAR	308	n/a	n/a	0	0	0
1255399	REC_WORD	wordpools/wasnorm_wordpool_576.txt	LTP317	ltpFR2	0	6	FRANCE	601	n/a	n/a	0	0	0
1257349	REC_WORD	wordpools/wasnorm_wordpool_576.txt	LTP317	ltpFR2	0	6	MARS	873	n/a	n/a	0	0	0
1258642	REC_WORD	wordpools/wasnorm_wordpool_576.txt	LTP317	ltpFR2	0	6	FRAGRANCE	599	n/a	n/a	0	0	0
1259642	REC_WORD_VV	wordpools/wasnorm_wordpool_576.txt	LTP317	ltpFR2	0	6	<>	-1	n/a	n/a	0	0	0
1271979	REC_WORD	wordpools/wasnorm_wordpool_576.txt	LTP317	ltpFR2	0	6	PASSAGE	1019	n/a	n/a	0	0	0
1283348	REC_WORD	wordpools/wasnorm_wordpool_576.txt	LTP317	ltpFR2	0	6	CIGAR	308	n/a	n/a	0	0	0
1314189	REC_WORD	wordpools/wasnorm_wordpool_576.txt	LTP317	ltpFR2	0	6	BIKE	125	n/a	n/a	0	0	0
1338070	DISTRACTOR	n/a	LTP317	ltpFR2	0	7	n/a	n/a	n/a	n/a	0	0	0
1338070	START	n/a	LTP317	ltpFR2	0	n/a	n/a	n/a	11	n/a	n/a	n/a	n/a
1338085	PROB	n/a	LTP317	ltpFR2	0	n/a	n/a	n/a	11	11	4	2	5
1340724	PROB	n/a	LTP317	ltpFR2	0	n/a	n/a	n/a	11	18	5	8	5
1343291	PROB	n/a	LTP317	ltpFR2	0	n/a	n/a	n/a	11	18	5	9	4
1346791	PROB	n/a	LTP317	ltpFR2	0	n/a	n/a	n/a	11	14	4	4	6
1348846	PROB	n/a	LTP317	ltpFR2	0	n/a	n/a	n/a	11	22	9	8	5
1353013	PROB	n/a	LTP317	ltpFR2	0	n/a	n/a	n/a	11	15	4	6	5
1357385	PROB	n/a	LTP317	ltpFR2	0	n/a	n/a	n/a	11	11	7	2	2
1359120	PROB	n/a	LTP317	ltpFR2	0	n/a	n/a	n/a	11	13	5	5	3
1361279	STOP	n/a	LTP317	ltpFR2	0	n/a	n/a	n/a	11	n/a	n/a	n/a	n/a
1363124	WORD	wordpools/wasnorm_wordpool_576.txt	LTP317	ltpFR2	0	7	SKIRT	1319	n/a	n/a	0	0	0
1365759	WORD	wordpools/wasnorm_wordpool_576.txt	LTP317	ltpFR2	0	7	BULLET	194	n/a	n/a	0	0	0
1368279	WORD	wordpools/wasnorm_wordpool_576.txt	LTP317	ltpFR2	0	7	PIZZA	1079	n/a	n/a	0	0	0
1370949	WORD	wordpools/wasnorm_wordpool_576.txt	LTP317	ltpFR2	0	7	INFANT	737	n/a	n/a	0	0	0
1373765	WORD	wordpools/wasnorm_wordpool_576.txt	LTP317	ltpFR2	0	7	MARKET	871	n/a	n/a	0	0	0
1376370	WORD	wordpools/wasnorm_wordpool_576.txt	LTP317	ltpFR2	0	7	SIBLING	1301	n/a	n/a	0	0	0
1379138	WORD	wordpools/wasnorm_wordpool_576.txt	LTP317	ltpFR2	0	7	SEAFOOD	1260	n/a	n/a	0	0	0
1381823	WORD	wordpools/wasnorm_wordpool_576.txt	LTP317	ltpFR2	0	7	PIGMENT	1066	n/a	n/a	0	0	0
1384609	WORD	wordpools/wasnorm_wordpool_576.txt	LTP317	ltpFR2	0	7	JOURNAL	760	n/a	n/a	0	0	0
1387111	WORD	wordpools/wasnorm_wordpool_576.txt	LTP317	ltpFR2	0	7	PICNIC	1060	n/a	n/a	0	0	0
1389547	WORD	wordpools/wasnorm_wordpool_576.txt	LTP317	ltpFR2	0	7	SADDLE	1221	n/a	n/a	0	0	0
1392233	WORD	wordpools/wasnorm_wordpool_576.txt	LTP317	ltpFR2	0	7	GAZELLE	628	n/a	n/a	0	0	0
1394701	WORD	wordpools/wasnorm_wordpool_576.txt	LTP317	ltpFR2	0	7	CHIPMUNK	304	n/a	n/a	0	0	0
1397204	WORD	wordpools/wasnorm_wordpool_576.txt	LTP317	ltpFR2	0	7	SNACK	1331	n/a	n/a	0	0	0
1399988	WORD	wordpools/wasnorm_wordpool_576.txt	LTP317	ltpFR2	0	7	BEAKER	104	n/a	n/a	0	0	0
1402590	WORD	wordpools/wasnorm_wordpool_576.txt	LTP317	ltpFR2	0	7	SHRUB	1299	n/a	n/a	0	0	0
1405144	WORD	wordpools/wasnorm_wordpool_576.txt	LTP317	ltpFR2	0	7	FOREST	593	n/a	n/a	0	0	0
1407711	WORD	wordpools/wasnorm_wordpool_576.txt	LTP317	ltpFR2	0	7	CLOUD	328	n/a	n/a	0	0	0
1410333	WORD	wordpools/wasnorm_wordpool_576.txt	LTP317	ltpFR2	0	7	PORTRAIT	1111	n/a	n/a	0	0	0
1413150	WORD	wordpools/wasnorm_wordpool_576.txt	LTP317	ltpFR2	0	7	SCRIBBLE	1256	n/a	n/a	0	0	0
1415902	WORD	wordpools/wasnorm_wordpool_576.txt	LTP317	ltpFR2	0	7	DANCER	437	n/a	n/a	0	0	0
1418405	WORD	wordpools/wasnorm_wordpool_576.txt	LTP317	ltpFR2	0	7	PLAZA	1088	n/a	n/a	0	0	0
1421224	WORD	wordpools/wasnorm_wordpool_576.txt	LTP317	ltpFR2	0	7	STAPLE	1371	n/a	n/a	0	0	0
1423975	WORD	wordpools/wasnorm_wordpool_576.txt	LTP317	ltpFR2	0	7	VIRUS	1572	n/a	n/a	0	0	0
1425594	START	n/a	LTP317	ltpFR2	0	n/a	n/a	n/a	12	n/a	n/a	n/a	n/a
1426703	DISTRACTOR	n/a	LTP317	ltpFR2	0	7	n/a	n/a	n/a	n/a	0	0	0
1426710	PROB	n/a	LTP317	ltpFR2	0	n/a	n/a	n/a	12	18	5	9	5
1431114	PROB	n/a	LTP317	ltpFR2	0	n/a	n/a	n/a	12	11	5	2	4
1435167	PROB	n/a	LTP317	ltpFR2	0	n/a	n/a	n/a	12	22	9	6	7
1437768	PROB	n/a	LTP317	ltpFR2	0	n/a	n/a	n/a	12	10	8	1	1
1439620	PROB	n/a	LTP317	ltpFR2	0	n/a	n/a	n/a	12	18	7	9	2
1442223	PROB	n/a	LTP317	ltpFR2	0	n/a	n/a	n/a	12	18	3	8	7
1445841	PROB	n/a	LTP317	ltpFR2	0	n/a	n/a	n/a	12	18	9	6	3
1448075	STOP	n/a	LTP317	ltpFR2	0	n/a	n/a	n/a	12	n/a	n/a	n/a	n/a
1451464	REC_START	n/a	LTP317	ltpFR2	0	7	n/a	n/a	n/a	n/a	0	0	0
1452828	REC_WORD	wordpools/wasnorm_wordpool_576.txt	LTP317	ltpFR2	0	7	SKIRT	1319	n/a	n/a	0	0	0
1454332	REC_WORD	wordpools/wasnorm_wordpool_576.txt	LTP317	ltpFR2	0	7	BULLET	194	n/a	n/a	0	0	0
1455483	REC_WORD	wordpools/wasnorm_wordpool_576.txt	LTP317	ltpFR2	0	7	PIZZA	1079	n/a	n/a	0	0	0
1456689	REC_WORD	wordpools/wasnorm_wordpool_576.txt	LTP317	ltpFR2	0	7	PLAZA	1088	n/a	n/a	0	0	0
1464734	REC_WORD	wordpools/wasnorm_wordpool_576.txt	LTP317	ltpFR2	0	7	VIRUS	1572	n/a	n/a	0	0	0
1541903	WORD	wordpools/wasnorm_wordpool_576.txt	LTP317	ltpFR2	0	8	DUST	508	n/a	n/a	0	0	0
1544339	WORD	wordpools/wasnorm_wordpool_576.txt	LTP317	ltpFR2	0	8	GROUND	666	n/a	n/a	0	0	0
1547108	WORD	wordpools/wasnorm_wordpool_576.txt	LTP317	ltpFR2	0	8	THRONE	1461	n/a	n/a	0	0	0
1549585	WORD	wordpools/wasnorm_wordpool_576.txt	LTP317	ltpFR2	0	8	MEDAL	885	n/a	n/a	0	0	0
1552328	WORD	wordpools/wasnorm_wordpool_576.txt	LTP317	ltpFR2	0	8	BLADE	134	n/a	n/a	0	0	0
1555023	WORD	wordpools/wasnorm_wordpool_576.txt	LTP317	ltpFR2	0	8	SPOON	1357	n/a	n/a	0	0	0
1557759	WORD	wordpools/wasnorm_wordpool_576.txt	LTP317	ltpFR2	0	8	XEROX	1628	n/a	n/a	0	0	0
1560480	WORD	wordpools/wasnorm_wordpool_576.txt	LTP317	ltpFR2	0	8	SPOUSE	1358	n/a	n/a	0	0	0
1562997	WORD	wordpools/wasnorm_wordpool_576.txt	LTP317	ltpFR2	0	8	GREASE	660	n/a	n/a	0	0	0
1565534	WORD	wordpools/wasnorm_wordpool_576.txt	LTP317	ltpFR2	0	8	YACHT	1629	n/a	n/a	0	0	0
1568225	WORD	wordpools/wasnorm_wordpool_576.txt	LTP317	ltpFR2	0	8	COFFEE	341	n/a	n/a	0	0	0
1570642	WORD	wordpools/wasnorm_wordpool_576.txt	LTP317	ltpFR2	0	8	FRUIT	610	n/a	n/a	0	0	0
1573408	WORD	wordpools/wasnorm_wordpool_576.txt	LTP317	ltpFR2	0	8	PRINCESS	1125	n/a	n/a	0	0	0
1575942	WORD	wordpools/wasnorm_wordpool_576.txt	LTP317	ltpFR2	0	8	NOMAD	955	n/a	n/a	0	0	0
1578495	WORD	wordpools/wasnorm_wordpool_576.txt	LTP317	ltpFR2	0	8	LOVER	846	n/a	n/a	0	0	0
1581029	WORD	wordpools/wasnorm_wordpool_576.txt	LTP317	ltpFR2	0	8	HOOD	714	n/a	n/a	0	0	0
1583516	WORD	wordpools/wasnorm_wordpool_576.txt	LTP317	ltpFR2	0	8	CONTRACT	368	n/a	n/a	0	0	0
1586034	WORD	wordpools/wasnorm_wordpool_576.txt	LTP317	ltpFR2	0	8	BROTHER	179	n/a	n/a	0	0	0
1588586	WORD	wordpools/wasnorm_wordpool_576.txt	LTP317	ltpFR2	0	8	SHORTCAKE	1292	n/a	n/a	0	0	0
1591340	WORD	wordpools/wasnorm_wordpool_576.txt	LTP317	ltpFR2	0	8	FLUTE	585	n/a	n/a	0	0	0
1594142	WORD	wordpools/wasnorm_wordpool_576.txt	LTP317	ltpFR2	0	8	WHISTLE	1606	n/a	n/a	0	0	0
1596777	WORD	wordpools/wasnorm_wordpool_576.txt	LTP317	ltpFR2	0	8	OINTMENT	974	n/a	n/a	0	0	0
1599249	WORD	wordpools/wasnorm_wordpool_576.txt	LTP317	ltpFR2	0	8	JUDGE	761	n/a	n/a	0	0	0
1601748	WORD	wordpools/wasnorm_wordpool_576.txt	LTP317	ltpFR2	0	8	PARENT	1013	n/a	n/a	0	0	0
1603354	START	n/a	LTP317	ltpFR2	0	n/a	n/a	n/a	13	n/a	n/a	n/a	n/a
1604221	DISTRACTOR	n/a	LTP317	ltpFR2	0	8	n/a	n/a	n/a	n/a	0	0	0
1604234	PROB	n/a	LTP317	ltpFR2	0	n/a	n/a	n/a	13	15	8	2	5
1609871	PROB	n/a	LTP317	ltpFR2	0	n/a	n/a	n/a	13	15	5	5	5
1611323	PROB	n/a	LTP317	ltpFR2	0	n/a	n/a	n/a	13	12	1	3	8
1612940	PROB	n/a	LTP317	ltpFR2	0	n/a	n/a	n/a	13	22	5	7	9
1617411	PROB	n/a	LTP317	ltpFR2	0	n/a	n/a	n/a	13	13	1	5	7
1619364	PROB	n/a	LTP317	ltpFR2	0	n/a	n/a	n/a	13	14	7	4	3
1621500	PROB	n/a	LTP317	ltpFR2	0	n/a	n/a	n/a	13	8	3	3	2
1627354	STOP	n/a	LTP317	ltpFR2	0	n/a	n/a	n/a	13	n/a	n/a	n/a	n/a
1629208	REC_START	n/a	LTP317	ltpFR2	0	8	n/a	n/a	n/a	n/a	0	0	0
1631572	REC_WORD	wordpools/wasnorm_wordpool_576.txt	LTP317	ltpFR2	0	8	GREASE	660	n/a	n/a	0	0	0
1632640	REC_WORD	wordpools/wasnorm_wordpool_576.txt	LTP317	ltpFR2	0	8	OINTMENT	974	n/a	n/a	0	0	0
1633364	REC_WORD	wordpools/wasnorm_wordpool_576.txt	LTP317	ltpFR2	0	8	JUDGE	761	n/a	n/a	0	0	0
1634780	REC_WORD	wordpools/wasnorm_wordpool_576.txt	LTP317	ltpFR2	0	8	PARENT	1013	n/a	n/a	0	0	0
1640272	REC_WORD	wordpools/wasnorm_wordpool_576.txt	LTP317	ltpFR2	0	8	DUST	508	n/a	n/a	0	0	0
1641124	REC_WORD	wordpools/wasnorm_wordpool_576.txt	LTP317	ltpFR2	0	8	GROUND	666	n/a	n/a	0	0	0
1645335	REC_WORD	wordpools/wasnorm_wordpool_576.txt	LTP317	ltpFR2	0	8	MEDAL	885	n/a	n/a	0	0	0
1647455	REC_WORD	wordpools/wasnorm_wordpool_576.txt	LTP317	ltpFR2	0	8	XEROX	1628	n/a	n/a	0	0	0
1648455	REC_WORD_VV	wordpools/wasnorm_wordpool_576.txt	LTP317	ltpFR2	0	8	<>	-1	n/a	n/a	0	0	0
1651802	REC_WORD	wordpools/wasnorm_wordpool_576.txt	LTP317	ltpFR2	0	8	SPOON	1357	n/a	n/a	0	0	0
1705739	REST_REWET	n/a	LTP317	ltpFR2	0	8	n/a	n/a	n/a	n/a	0	0	0
1859974	DISTRACTOR	n/a	LTP317	ltpFR2	0	9	n/a	n/a	n/a	n/a	0	0	0
1859974	START	n/a	LTP317	ltpFR2	0	n/a	n/a	n/a	14	n/a	n/a	n/a	n/a
1859991	PROB	n/a	LTP317	ltpFR2	0	n/a	n/a	n/a	14	17	2	7	8
1862277	PROB	n/a	LTP317	ltpFR2	0	n/a	n/a	n/a	14	21	6	6	9
1864909	PROB	n/a	LTP317	ltpFR2	0	n/a	n/a	n/a	14	18	1	8	9
1866862	PROB	n/a	LTP317	ltpFR2	0	n/a	n/a	n/a	14	18	9	2	7
1869166	PROB	n/a	LTP317	ltpFR2	0	n/a	n/a	n/a	14	23	5	9	9
1871551	PROB	n/a	LTP317	ltpFR2	0	n/a	n/a	n/a	14	17	9	1	7
1873502	PROB	n/a	LTP317	ltpFR2	0	n/a	n/a	n/a	14	13	5	3	5
1875453	PROB	n/a	LTP317	ltpFR2	0	n/a	n/a	n/a	14	19	8	8	3
1877888	PROB	n/a	LTP317	ltpFR2	0	n/a	n/a	n/a	14	6	2	2	2
1880039	PROB	n/a	LTP317	ltpFR2	0	n/a	n/a	n/a	14	16	5	2	9
1883571	STOP	n/a	LTP317	ltpFR2	0	n/a	n/a	n/a	14	n/a	n/a	n/a	n/a
1884978	WORD	wordpools/wasnorm_wordpool_576.txt	LTP317	ltpFR2	0	9	BRANCH	168	n/a	n/a	0	0	0
1887663	WORD	wordpools/wasnorm_wordpool_576.txt	LTP317	ltpFR2	0	9	ANTLER	29	n/a	n/a	0	0	0
1890133	WORD	wordpools/wasnorm_wordpool_576.txt	LTP317	ltpFR2	0	9	CABBAGE	210	n/a	n/a	0	0	0
1892634	WORD	wordpools/wasnorm_wordpool_576.txt	LTP317	ltpFR2	0	9	GOBLIN	645	n/a	n/a	0	0	0
1895387	WORD	wordpools/wasnorm_wordpool_576.txt	LTP317	ltpFR2	0	9	NOVEL	960	n/a	n/a	0	0	0
1898189	WORD	wordpools/wasnorm_wordpool_576.txt	LTP317	ltpFR2	0	9	BLENDER	136	n/a	n/a	0	0	0
1900657	WORD	wordpools/wasnorm_wordpool_576.txt	LTP317	ltpFR2	0	9	CRAB	397	n/a	n/a	0	0	0
1903377	WORD	wordpools/wasnorm_wordpool_576.txt	LTP317	ltpFR2	0	9	FLASK	576	n/a	n/a	0	0	0
1905929	WORD	wordpools/wasnorm_wordpool_576.txt	LTP317	ltpFR2	0	9	BRANDY	169	n/a	n/a	0	0	0
1908397	WORD	wordpools/wasnorm_wordpool_576.txt	LTP317	ltpFR2	0	9	CHEMIST	292	n/a	n/a	0	0	0
1910899	WORD	wordpools/wasnorm_wordpool_576.txt	LTP317	ltpFR2	0	9	SEAGULL	1261	n/a	n/a	0	0	0
1913600	WORD	wordpools/wasnorm_wordpool_576.txt	LTP317	ltpFR2	0	9	PEDAL	1037	n/a	n/a	0	0	0
1916104	WORD	wordpools/wasnorm_wordpool_576.txt	LTP317	ltpFR2	0	9	FOOTBALL	591	n/a	n/a	0	0	0
1918790	WORD	wordpools/wasnorm_wordpool_576.txt	LTP317	ltpFR2	0	9	MOTEL	919	n/a	n/a	0	0	0
1921542	WORD	wordpools/wasnorm_wordpool_576.txt	LTP317	ltpFR2	0	9	THIEF	1456	n/a	n/a	0	0	0
1924311	WORD	wordpools/wasnorm_wordpool_576.txt	LTP317	ltpFR2	0	9	BURGLAR	200	n/a	n/a	0	0	0
1926895	WORD	wordpools/wasnorm_wordpool_576.txt	LTP317	ltpFR2	0	9	CARROT	249	n/a	n/a	0	0	0
1929434	WORD	wordpools/wasnorm_wordpool_576.txt	LTP317	ltpFR2	0	9	ISLAND	745	n/a	n/a	0	0	0
1931966	WORD	wordpools/wasnorm_wordpool_576.txt	LTP317	ltpFR2	0	9	FUNGUS	614	n/a	n/a	0	0	0
1934501	WORD	wordpools/wasnorm_wordpool_576.txt	LTP317	ltpFR2	0	9	MARSH	874	n/a	n/a	0	0	0
1937121	WORD	wordpools/wasnorm_wordpool_576.txt	LTP317	ltpFR2	0	9	PORK	1108	n/a	n/a	0	0	0
1939605	WORD	wordpools/wasnorm_wordpool_576.txt	LTP317	ltpFR2	0	9	HELMET	702	n/a	n/a	0	0	0
1942408	WORD	wordpools/wasnorm_wordpool_576.txt	LTP317	ltpFR2	0	9	TREAT	1501	n/a	n/a	0	0	0
1945227	WORD	wordpools/wasnorm_wordpool_576.txt	LTP317	ltpFR2	0	9	TART	1436	n/a	n/a	0	0	0
1946832	START	n/a	LTP317	ltpFR2	0	n/a	n/a	n/a	15	n/a	n/a	n/a	n/a
1947691	DISTRACTOR	n/a	LTP317	ltpFR2	0	9	n/a	n/a	n/a	n/a	0	0	0
1947695	PROB	n/a	LTP317	ltpFR2	0	n/a	n/a	n/a	15	20	9	4	7
1951696	PROB	n/a	LTP317	ltpFR2	0	n/a	n/a	n/a	15	22	9	8	5
1956817	PROB	n/a	LTP317	ltpFR2	0	n/a	n/a	n/a	15	10	4	4	2
1958538	PROB	n/a	LTP317	ltpFR2	0	n/a	n/a	n/a	15	16	9	6	1
1960921	PROB	n/a	LTP317	ltpFR2	0	n/a	n/a	n/a	15	15	3	5	7
1962475	PROB	n/a	LTP317	ltpFR2	0	n/a	n/a	n/a	15	23	9	9	5
1965893	PROB	n/a	LTP317	ltpFR2	0	n/a	n/a	n/a	15	16	2	7	7
1967760	PROB	n/a	LTP317	ltpFR2	0	n/a	n/a	n/a	15	7	1	3	3
1970703	STOP	n/a	LTP317	ltpFR2	0	n/a	n/a	n/a	15	n/a	n/a	n/a	n/a
1972698	REC_START	n/a	LTP317	ltpFR2	0	9	n/a	n/a	n/a	n/a	0	0	0
1974300	REC_WORD	wordpools/wasnorm_wordpool_576.txt	LTP317	ltpFR2	0	9	TREAT	1501	n/a	n/a	0	0	0
1974982	REC_WORD	wordpools/wasnorm_wordpool_576.txt	LTP317	ltpFR2	0	9	TART	1436	n/a	n/a	0	0	0
1975693	REC_WORD	wordpools/wasnorm_wordpool_576.txt	LTP317	ltpFR2	0	9	CHEMIST	292	n/a	n/a	0	0	0
1976293	REC_WORD	wordpools/wasnorm_wordpool_576.txt	LTP317	ltpFR2	0	9	FLASK	576	n/a	n/a	0	0	0
2016871	REC_WORD	wordpools/wasnorm_wordpool_576.txt	LTP317	ltpFR2	0	9	PORK	1108	n/a	n/a	0	0	0
2063118	DISTRACTOR	n/a	LTP317	ltpFR2	0	10	n/a	n/a	n/a	n/a	0	0	0
2063118	START	n/a	LTP317	ltpFR2	0	n/a	n/a	n/a	16	n/a	n/a	n/a	n/a
2063134	PROB	n/a	LTP317	ltpFR2	0	n/a	n/a	n/a	16	6	3	1	2
2066525	PROB	n/a	LTP317	ltpFR2	0	n/a	n/a	n/a	16	11	4	5	2
2068007	PROB	n/a	LTP317	ltpFR2	0	n/a	n/a	n/a	16	14	9	3	2
2069659	PROB	n/a	LTP317	ltpFR2	0	n/a	n/a	n/a	16	22	9	4	9
2072278	PROB	n/a	LTP317	ltpFR2	0	n/a	n/a	n/a	16	10	4	2	4
2074263	PROB	n/a	LTP317	ltpFR2	0	n/a	n/a	n/a	16	18	9	1	8
2076165	PROB	n/a	LTP317	ltpFR2	0	n/a	n/a	n/a	16	12	9	2	1
2078579	PROB	n/a	LTP317	ltpFR2	0	n/a	n/a	n/a	16	1	1	9	6
2080348	PROB	n/a	LTP317	ltpFR2	0	n/a	n/a	n/a	16	13	6	6	1
2082366	PROB	n/a	LTP317	ltpFR2	0	n/a	n/a	n/a	16	13	4	1	9
2084184	PROB	n/a	LTP317	ltpFR2	0	n/a	n/a	n/a	16	10	8	1	1
2085915	STOP	n/a	LTP317	ltpFR2	0	n/a	n/a	n/a	16	n/a	n/a	n/a	n/a
2088275	WORD	wordpools/wasnorm_wordpool_576.txt	LTP317	ltpFR2	0	10	PADDLE	1000	n/a	n/a	0	0	0
2090874	WORD	wordpools/wasnorm_wordpool_576.txt	LTP317	ltpFR2	0	10	DRILL	497	n/a	n/a	0	0	0
2093377	WORD	wordpools/wasnorm_wordpool_576.txt	LTP317	ltpFR2	0	10	RIVER	1194	n/a	n/a	0	0	0
2095945	WORD	wordpools/wasnorm_wordpool_576.txt	LTP317	ltpFR2	0	10	INMATE	738	n/a	n/a	0	0	0
2098630	WORD	wordpools/wasnorm_wordpool_576.txt	LTP317	ltpFR2	0	10	MAPLE	866	n/a	n/a	0	0	0
2101318	WORD	wordpools/wasnorm_wordpool_576.txt	LTP317	ltpFR2	0	10	DIVER	476	n/a	n/a	0	0	0
2104119	WORD	wordpools/wasnorm_wordpool_576.txt	LTP317	ltpFR2	0	10	PAIL	1002	n/a	n/a	0	0	0
2106887	WORD	wordpools/wasnorm_wordpool_576.txt	LTP317	ltpFR2	0	10	CONVICT	371	n/a	n/a	0	0	0
2109441	WORD	wordpools/wasnorm_wordpool_576.txt	LTP317	ltpFR2	0	10	ORANGE	980	n/a	n/a	0	0	0
2112093	WORD	wordpools/wasnorm_wordpool_576.txt	LTP317	ltpFR2	0	10	RUST	1219	n/a	n/a	0	0	0
2114761	WORD	wordpools/wasnorm_wordpool_576.txt	LTP317	ltpFR2	0	10	OMELET	976	n/a	n/a	0	0	0
2117598	WORD	wordpools/wasnorm_wordpool_576.txt	LTP317	ltpFR2	0	10	OFFICE	972	n/a	n/a	0	0	0
2120100	WORD	wordpools/wasnorm_wordpool_576.txt	LTP317	ltpFR2	0	10	BRIEFCASE	175	n/a	n/a	0	0	0
2122818	WORD	wordpools/wasnorm_wordpool_576.txt	LTP317	ltpFR2	0	10	COLONEL	348	n/a	n/a	0	0	0
2125488	WORD	wordpools/wasnorm_wordpool_576.txt	LTP317	ltpFR2	0	10	MARINE	869	n/a	n/a	0	0	0
2128258	WORD	wordpools/wasnorm_wordpool_576.txt	LTP317	ltpFR2	0	10	TRENCH	1503	n/a	n/a	0	0	0
2130708	WORD	wordpools/wasnorm_wordpool_576.txt	LTP317	ltpFR2	0	10	IGLOO	734	n/a	n/a	0	0	0
2133478	WORD	wordpools/wasnorm_wordpool_576.txt	LTP317	ltpFR2	0	10	BUBBLE	183	n/a	n/a	0	0	0
2135930	WORD	wordpools/wasnorm_wordpool_576.txt	LTP317	ltpFR2	0	10	COD	340	n/a	n/a	0	0	0
2138582	WORD	wordpools/wasnorm_wordpool_576.txt	LTP317	ltpFR2	0	10	SLUG	1329	n/a	n/a	0	0	0
2141335	WORD	wordpools/wasnorm_wordpool_576.txt	LTP317	ltpFR2	0	10	MARROW	872	n/a	n/a	0	0	0
2143869	WORD	wordpools/wasnorm_wordpool_576.txt	LTP317	ltpFR2	0	10	GUARD	667	n/a	n/a	0	0	0
2146355	WORD	wordpools/wasnorm_wordpool_576.txt	LTP317	ltpFR2	0	10	NECKLACE	940	n/a	n/a	0	0	0
2148939	WORD	wordpools/wasnorm_wordpool_576.txt	LTP317	ltpFR2	0	10	FILM	565	n/a	n/a	0	0	0
2150545	START	n/a	LTP317	ltpFR2	0	n/a	n/a	n/a	17	n/a	n/a	n/a	n/a
2151565	DISTRACTOR	n/a	LTP317	ltpFR2	0	10	n/a	n/a	n/a	n/a	0	0	0
2151575	PROB	n/a	LTP317	ltpFR2	0	n/a	n/a	n/a	17	6	1	1	4
2155094	PROB	n/a	LTP317	ltpFR2	0	n/a	n/a	n/a	17	14	5	8	1
2156628	PROB	n/a	LTP317	ltpFR2	0	n/a	n/a	n/a	17	12	5	5	2
2159216	PROB	n/a	LTP317	ltpFR2	0	n/a	n/a	n/a	17	14	3	3	8
2160981	PROB	n/a	LTP317	ltpFR2	0	n/a	n/a	n/a	17	16	5	6	5
2163351	PROB	n/a	LTP317	ltpFR2	0	n/a	n/a	n/a	17	14	4	2	8
2165086	PROB	n/a	LTP317	ltpFR2	0	n/a	n/a	n/a	17	24	7	9	8
2169090	PROB	n/a	LTP317	ltpFR2	0	n/a	n/a	n/a	17	17	3	8	6
2170958	PROB	n/a	LTP317	ltpFR2	0	n/a	n/a	n/a	17	17	8	7	2
2173815	STOP	n/a	LTP317	ltpFR2	0	n/a	n/a	n/a	17	n/a	n/a	n/a	n/a
2176429	REC_START	n/a	LTP317	ltpFR2	0	10	n/a	n/a	n/a	n/a	0	0	0
2179992	REC_WORD	wordpools/wasnorm_wordpool_576.txt	LTP317	ltpFR2	0	10	IGLOO	734	n/a	n/a	0	0	0
2181109	REC_WORD	wordpools/wasnorm_wordpool_576.txt	LTP317	ltpFR2	0	10	TRENCH	1503	n/a	n/a	0	0	0
2184002	REC_WORD	wordpools/wasnorm_wordpool_576.txt	LTP317	ltpFR2	0	10	COLONEL	348	n/a	n/a	0	0	0
2186268	REC_WORD	wordpools/wasnorm_wordpool_576.txt	LTP317	ltpFR2	0	10	MARINE	869	n/a	n/a	0	0	0
2202693	REC_WORD	wordpools/wasnorm_wordpool_576.txt	LTP317	ltpFR2	0	10	RIVER	1194	n/a	n/a	0	0	0
2204099	REC_WORD	wordpools/wasnorm_wordpool_576.txt	LTP317	ltpFR2	0	10	DRILL	497	n/a	n/a	0	0	0
2266867	WORD	wordpools/wasnorm_wordpool_576.txt	LTP317	ltpFR2	0	11	COWBOY	395	n/a	n/a	0	0	0
2269563	WORD	wordpools/wasnorm_wordpool_576.txt	LTP317	ltpFR2	0	11	FREEZER	604	n/a	n/a	0	0	0
2272239	WORD	wordpools/wasnorm_wordpool_576.txt	LTP317	ltpFR2	0	11	LADY	794	n/a	n/a	0	0	0
2274858	WORD	wordpools/wasnorm_wordpool_576.txt	LTP317	ltpFR2	0	11	TWEEZERS	1526	n/a	n/a	0	0	0
2277559	WORD	wordpools/wasnorm_wordpool_576.txt	LTP317	ltpFR2	0	11	GANGSTER	620	n/a	n/a	0	0	0
2280323	WORD	wordpools/wasnorm_wordpool_576.txt	LTP317	ltpFR2	0	11	SERVER	1272	n/a	n/a	0	0	0
2282792	WORD	wordpools/wasnorm_wordpool_576.txt	LTP317	ltpFR2	0	11	ATLAS	53	n/a	n/a	0	0	0
2285461	WORD	wordpools/wasnorm_wordpool_576.txt	LTP317	ltpFR2	0	11	SKETCH	1315	n/a	n/a	0	0	0
2288052	WORD	wordpools/wasnorm_wordpool_576.txt	LTP317	ltpFR2	0	11	SCULPTURE	1258	n/a	n/a	0	0	0
2290665	WORD	wordpools/wasnorm_wordpool_576.txt	LTP317	ltpFR2	0	11	DRESSER	496	n/a	n/a	0	0	0
2293318	WORD	wordpools/wasnorm_wordpool_576.txt	LTP317	ltpFR2	0	11	GLOBE	641	n/a	n/a	0	0	0
2295769	WORD	wordpools/wasnorm_wordpool_576.txt	LTP317	ltpFR2	0	11	LACE	792	n/a	n/a	0	0	0
2298473	WORD	wordpools/wasnorm_wordpool_576.txt	LTP317	ltpFR2	0	11	ITEM	746	n/a	n/a	0	0	0
2301242	WORD	wordpools/wasnorm_wordpool_576.txt	LTP317	ltpFR2	0	11	LABEL	790	n/a	n/a	0	0	0
2303876	WORD	wordpools/wasnorm_wordpool_576.txt	LTP317	ltpFR2	0	11	GYMNAST	675	n/a	n/a	0	0	0
2306313	WORD	wordpools/wasnorm_wordpool_576.txt	LTP317	ltpFR2	0	11	WHISKERS	1605	n/a	n/a	0	0	0
2309103	WORD	wordpools/wasnorm_wordpool_576.txt	LTP317	ltpFR2	0	11	PLIERS	1089	n/a	n/a	0	0	0
2311832	WORD	wordpools/wasnorm_wordpool_576.txt	LTP317	ltpFR2	0	11	TRACTOR	1493	n/a	n/a	0	0	0
2314520	WORD	wordpools/wasnorm_wordpool_576.txt	LTP317	ltpFR2	0	11	MACHINE	852	n/a	n/a	0	0	0
2317007	WORD	wordpools/wasnorm_wordpool_576.txt	LTP317	ltpFR2	0	11	TUBA	1515	n/a	n/a	0	0	0
2319707	WORD	wordpools/wasnorm_wordpool_576.txt	LTP317	ltpFR2	0	11	PIANO	1057	n/a	n/a	0	0	0
2322326	WORD	wordpools/wasnorm_wordpool_576.txt	LTP317	ltpFR2	0	11	HORSE	719	n/a	n/a	0	0	0
2324928	WORD	wordpools/wasnorm_wordpool_576.txt	LTP317	ltpFR2	0	11	ROBIN	1199	n/a	n/a	0	0	0
2327417	WORD	wordpools/wasnorm_wordpool_576.txt	LTP317	ltpFR2	0	11	PUPIL	1143	n/a	n/a	0	0	0
2329032	START	n/a	LTP317	ltpFR2	0	n/a	n/a	n/a	18	n/a	n/a	n/a	n/a
2329978	DISTRACTOR	n/a	LTP317	ltpFR2	0	11	n/a	n/a	n/a	n/a	0	0	0
2329982	PROB	n/a	LTP317	ltpFR2	0	n/a	n/a	n/a	18	20	5	9	6
2337522	PROB	n/a	LTP317	ltpFR2	0	n/a	n/a	n/a	18	9	1	7	1
2339560	PROB	n/a	LTP317	ltpFR2	0	n/a	n/a	n/a	18	19	8	4	7
2341326	PROB	n/a	LTP317	ltpFR2	0	n/a	n/a	n/a	18	18	9	5	4
2345078	PROB	n/a	LTP317	ltpFR2	0	n/a	n/a	n/a	18	16	1	6	9
2348334	PROB	n/a	LTP317	ltpFR2	0	n/a	n/a	n/a	18	24	8	7	9
2351551	STOP	n/a	LTP317	ltpFR2	0	n/a	n/a	n/a	18	n/a	n/a	n/a	n/a
2354888	REC_START	n/a	LTP317	ltpFR2	0	11	n/a	n/a	n/a	n/a	0	0	0
2357164	REC_WORD	wordpools/wasnorm_wordpool_576.txt	LTP317	ltpFR2	0	11	COWBOY	395	n/a	n/a	0	0	0
2359216	REC_WORD	wordpools/wasnorm_wordpool_576.txt	LTP317	ltpFR2	0	11	LADY	794	n/a	n/a	0	0	0
2365173	REC_WORD	wordpools/wasnorm_wordpool_576.txt	LTP317	ltpFR2	0	11	ROBIN	1199	n/a	n/a	0	0	0
2367205	REC_WORD	wordpools/wasnorm_wordpool_576.txt	LTP317	ltpFR2	0	11	LACE	792	n/a	n/a	0	0	0
2417608	REC_WORD	wordpools/wasnorm_wordpool_576.txt	LTP317	ltpFR2	0	11	DUST	508	n/a	n/a	0	0	0
2445312	DISTRACTOR	n/a	LTP317	ltpFR2	0	12	n/a	n/a	n/a	n/a	0	0	0
2445312	START	n/a	LTP317	ltpFR2	0	n/a	n/a	n/a	19	n/a	n/a	n/a	n/a
2445327	PROB	n/a	LTP317	ltpFR2	0	n/a	n/a	n/a	19	1	1	1	8
2447996	PROB	n/a	LTP317	ltpFR2	0	n/a	n/a	n/a	19	15	5	2	8
2450598	PROB	n/a	LTP317	ltpFR2	0	n/a	n/a	n/a	19	20	3	8	9
2454284	PROB	n/a	LTP317	ltpFR2	0	n/a	n/a	n/a	19	15	4	5	6
2456137	PROB	n/a	LTP317	ltpFR2	0	n/a	n/a	n/a	19	14	4	6	6
2457719	PROB	n/a	LTP317	ltpFR2	0	n/a	n/a	n/a	19	11	7	5	2
2460089	PROB	n/a	LTP317	ltpFR2	0	n/a	n/a	n/a	19	20	9	3	8
2463092	PROB	n/a	LTP317	ltpFR2	0	n/a	n/a	n/a	19	10	6	4	4
2464725	PROB	n/a	LTP317	ltpFR2	0	n/a	n/a	n/a	19	11	6	4	1
2469312	STOP	n/a	LTP317	ltpFR2	0	n/a	n/a	n/a	19	n/a	n/a	n/a	n/a
2470272	WORD	wordpools/wasnorm_wordpool_576.txt	LTP317	ltpFR2	0	12	PIMPLE	1071	n/a	n/a	0	0	0
2472840	WORD	wordpools/wasnorm_wordpool_576.txt	LTP317	ltpFR2	0	12	MASK	876	n/a	n/a	0	0	0
2475602	WORD	wordpools/wasnorm_wordpool_576.txt	LTP317	ltpFR2	0	12	BANKER	84	n/a	n/a	0	0	0
2478171	WORD	wordpools/wasnorm_wordpool_576.txt	LTP317	ltpFR2	0	12	SPHINX	1349	n/a	n/a	0	0	0
2480863	WORD	wordpools/wasnorm_wordpool_576.txt	LTP317	ltpFR2	0	12	PREACHER	1119	n/a	n/a	0	0	0
2483583	WORD	wordpools/wasnorm_wordpool_576.txt	LTP317	ltpFR2	0	12	CROSS	413	n/a	n/a	0	0	0
2486186	WORD	wordpools/wasnorm_wordpool_576.txt	LTP317	ltpFR2	0	12	OUTFIT	988	n/a	n/a	0	0	0
2488987	WORD	wordpools/wasnorm_wordpool_576.txt	LTP317	ltpFR2	0	12	COIN	343	n/a	n/a	0	0	0
2491806	WORD	wordpools/wasnorm_wordpool_576.txt	LTP317	ltpFR2	0	12	GIRL	637	n/a	n/a	0	0	0
2494427	WORD	wordpools/wasnorm_wordpool_576.txt	LTP317	ltpFR2	0	12	FARMER	553	n/a	n/a	0	0	0
2497145	WORD	wordpools/wasnorm_wordpool_576.txt	LTP317	ltpFR2	0	12	CAPTIVE	240	n/a	n/a	0	0	0
2499697	WORD	wordpools/wasnorm_wordpool_576.txt	LTP317	ltpFR2	0	12	SURVEY	1414	n/a	n/a	0	0	0
2502517	WORD	wordpools/wasnorm_wordpool_576.txt	LTP317	ltpFR2	0	12	DRAWING	494	n/a	n/a	0	0	0
2505285	WORD	wordpools/wasnorm_wordpool_576.txt	LTP317	ltpFR2	0	12	FRAME	600	n/a	n/a	0	0	0
2508095	WORD	wordpools/wasnorm_wordpool_576.txt	LTP317	ltpFR2	0	12	LODGE	839	n/a	n/a	0	0	0
2510523	WORD	wordpools/wasnorm_wordpool_576.txt	LTP317	ltpFR2	0	12	TEMPLE	1448	n/a	n/a	0	0	0
2513059	WORD	wordpools/wasnorm_wordpool_576.txt	LTP317	ltpFR2	0	12	CHURCH	307	n/a	n/a	0	0	0
2515494	WORD	wordpools/wasnorm_wordpool_576.txt	LTP317	ltpFR2	0	12	KETCHUP	771	n/a	n/a	0	0	0
2518164	WORD	wordpools/wasnorm_wordpool_576.txt	LTP317	ltpFR2	0	12	MUSTARD	935	n/a	n/a	0	0	0
2520732	WORD	wordpools/wasnorm_wordpool_576.txt	LTP317	ltpFR2	0	12	FRIEND	606	n/a	n/a	0	0	0
2523352	WORD	wordpools/wasnorm_wordpool_576.txt	LTP317	ltpFR2	0	12	JELLO	754	n/a	n/a	0	0	0
2525970	WORD	wordpools/wasnorm_wordpool_576.txt	LTP317	ltpFR2	0	12	STAMP	1370	n/a	n/a	0	0	0
2528406	WORD	wordpools/wasnorm_wordpool_576.txt	LTP317	ltpFR2	0	12	WAGON	1578	n/a	n/a	0	0	0
2531040	WORD	wordpools/wasnorm_wordpool_576.txt	LTP317	ltpFR2	0	12	CURTAIN	427	n/a	n/a	0	0	0
2532648	START	n/a	LTP317	ltpFR2	0	n/a	n/a	n/a	20	n/a	n/a	n/a	n/a
2533805	DISTRACTOR	n/a	LTP317	ltpFR2	0	12	n/a	n/a	n/a	n/a	0	0	0
2533809	PROB	n/a	LTP317	ltpFR2	0	n/a	n/a	n/a	20	8	1	1	6
2537335	PROB	n/a	LTP317	ltpFR2	0	n/a	n/a	n/a	20	14	4	8	2
2538984	PROB	n/a	LTP317	ltpFR2	0	n/a	n/a	n/a	20	22	6	9	7
2541104	PROB	n/a	LTP317	ltpFR2	0	n/a	n/a	n/a	20	17	3	9	5
2542938	PROB	n/a	LTP317	ltpFR2	0	n/a	n/a	n/a	20	14	8	3	3
2544474	PROB	n/a	LTP317	ltpFR2	0	n/a	n/a	n/a	20	20	7	7	6
2546259	PROB	n/a	LTP317	ltpFR2	0	n/a	n/a	n/a	20	18	5	4	9
2548046	PROB	n/a	LTP317	ltpFR2	0	n/a	n/a	n/a	20	18	8	7	3
2549645	PROB	n/a	LTP317	ltpFR2	0	n/a	n/a	n/a	20	12	5	3	4
2551365	PROB	n/a	LTP317	ltpFR2	0	n/a	n/a	n/a	20	14	3	2	9
2554248	PROB	n/a	LTP317	ltpFR2	0	n/a	n/a	n/a	20	17	6	4	7
2556159	STOP	n/a	LTP317	ltpFR2	0	n/a	n/a	n/a	20	n/a	n/a	n/a	n/a
2558502	REC_START	n/a	LTP317	ltpFR2	0	12	n/a	n/a	n/a	n/a	0	0	0
2560452	REC_WORD	wordpools/wasnorm_wordpool_576.txt	LTP317	ltpFR2	0	12	WAGON	1578	n/a	n/a	0	0	0
2562762	REC_WORD	wordpools/wasnorm_wordpool_576.txt	LTP317	ltpFR2	0	12	CHURCH	307	n/a	n/a	0	0	0
2563667	REC_WORD	wordpools/wasnorm_wordpool_576.txt	LTP317	ltpFR2	0	12	PREACHER	1119	n/a	n/a	0	0	0
2564534	REC_WORD	wordpools/wasnorm_wordpool_576.txt	LTP317	ltpFR2	0	12	CROSS	413	n/a	n/a	0	0	0
2567294	REC_WORD	wordpools/wasnorm_wordpool_576.txt	LTP317	ltpFR2	0	12	OUTFIT	988	n/a	n/a	0	0	0
2571794	REC_WORD	wordpools/wasnorm_wordpool_576.txt	LTP317	ltpFR2	0	12	GIRL	637	n/a	n/a	0	0	0
2572891	REC_WORD	wordpools/wasnorm_wordpool_576.txt	LTP317	ltpFR2	0	12	CAPTIVE	240	n/a	n/a	0	0	0
2593721	REC_WORD	wordpools/wasnorm_wordpool_576.txt	LTP317	ltpFR2	0	12	SPHINX	1349	n/a	n/a	0	0	0
2607106	REC_WORD	wordpools/wasnorm_wordpool_576.txt	LTP317	ltpFR2	0	12	PREACHER	1119	n/a	n/a	0	0	0
2630921	REC_WORD	wordpools/wasnorm_wordpool_576.txt	LTP317	ltpFR2	0	12	COIN	343	n/a	n/a	0	0	0
2648959	DISTRACTOR	n/a	LTP317	ltpFR2	0	13	n/a	n/a	n/a	n/a	0	0	0
2648959	START	n/a	LTP317	ltpFR2	0	n/a	n/a	n/a	21	n/a	n/a	n/a	n/a
2648972	PROB	n/a	LTP317	ltpFR2	0	n/a	n/a	n/a	21	14	1	7	6
2651776	PROB	n/a	LTP317	ltpFR2	0	n/a	n/a	n/a	21	12	4	2	6
2653362	PROB	n/a	LTP317	ltpFR2	0	n/a	n/a	n/a	21	9	3	1	5
2654945	PROB	n/a	LTP317	ltpFR2	0	n/a	n/a	n/a	21	16	2	5	9
2657047	PROB	n/a	LTP317	ltpFR2	0	n/a	n/a	n/a	21	11	3	1	7
2658714	PROB	n/a	LTP317	ltpFR2	0	n/a	n/a	n/a	21	14	6	6	2
2660101	PROB	n/a	LTP317	ltpFR2	0	n/a	n/a	n/a	21	23	6	8	9
2664153	PROB	n/a	LTP317	ltpFR2	0	n/a	n/a	n/a	21	18	4	9	5
2668323	PROB	n/a	LTP317	ltpFR2	0	n/a	n/a	n/a	21	17	5	9	3
2672959	STOP	n/a	LTP317	ltpFR2	0	n/a	n/a	n/a	21	n/a	n/a	n/a	n/a
2674079	WORD	wordpools/wasnorm_wordpool_576.txt	LTP317	ltpFR2	0	13	RECORD	1176	n/a	n/a	0	0	0
2676830	WORD	wordpools/wasnorm_wordpool_576.txt	LTP317	ltpFR2	0	13	ORCHID	982	n/a	n/a	0	0	0
2679550	WORD	wordpools/wasnorm_wordpool_576.txt	LTP317	ltpFR2	0	13	SANDWICH	1232	n/a	n/a	0	0	0
2682369	WORD	wordpools/wasnorm_wordpool_576.txt	LTP317	ltpFR2	0	13	COUCH	386	n/a	n/a	0	0	0
2685137	WORD	wordpools/wasnorm_wordpool_576.txt	LTP317	ltpFR2	0	13	MESSAGE	888	n/a	n/a	0	0	0
2687793	WORD	wordpools/wasnorm_wordpool_576.txt	LTP317	ltpFR2	0	13	SPOOL	1356	n/a	n/a	0	0	0
2690392	WORD	wordpools/wasnorm_wordpool_576.txt	LTP317	ltpFR2	0	13	LAVA	804	n/a	n/a	0	0	0
2693193	WORD	wordpools/wasnorm_wordpool_576.txt	LTP317	ltpFR2	0	13	PEBBLE	1035	n/a	n/a	0	0	0
2695835	WORD	wordpools/wasnorm_wordpool_576.txt	LTP317	ltpFR2	0	13	SHARK	1275	n/a	n/a	0	0	0
2698548	WORD	wordpools/wasnorm_wordpool_576.txt	LTP317	ltpFR2	0	13	FLIPPER	580	n/a	n/a	0	0	0
2701207	WORD	wordpools/wasnorm_wordpool_576.txt	LTP317	ltpFR2	0	13	HUSBAND	728	n/a	n/a	0	0	0
2703785	WORD	wordpools/wasnorm_wordpool_576.txt	LTP317	ltpFR2	0	13	SPONGE	1355	n/a	n/a	0	0	0
2706371	WORD	wordpools/wasnorm_wordpool_576.txt	LTP317	ltpFR2	0	13	WAITER	1580	n/a	n/a	0	0	0
2709047	WORD	wordpools/wasnorm_wordpool_576.txt	LTP317	ltpFR2	0	13	CANDY	230	n/a	n/a	0	0	0
2711775	WORD	wordpools/wasnorm_wordpool_576.txt	LTP317	ltpFR2	0	13	RADISH	1158	n/a	n/a	0	0	0
2714217	WORD	wordpools/wasnorm_wordpool_576.txt	LTP317	ltpFR2	0	13	FIDDLE	561	n/a	n/a	0	0	0
2716928	WORD	wordpools/wasnorm_wordpool_576.txt	LTP317	ltpFR2	0	13	SCARF	1246	n/a	n/a	0	0	0
2719730	WORD	wordpools/wasnorm_wordpool_576.txt	LTP317	ltpFR2	0	13	CONCERT	360	n/a	n/a	0	0	0
2722259	WORD	wordpools/wasnorm_wordpool_576.txt	LTP317	ltpFR2	0	13	SIDEWALK	1303	n/a	n/a	0	0	0
2724835	WORD	wordpools/wasnorm_wordpool_576.txt	LTP317	ltpFR2	0	13	HIGHWAY	707	n/a	n/a	0	0	0
2727496	WORD	wordpools/wasnorm_wordpool_576.txt	LTP317	ltpFR2	0	13	GUITAR	670	n/a	n/a	0	0	0
2730115	WORD	wordpools/wasnorm_wordpool_576.txt	LTP317	ltpFR2	0	13	SHELTER	1282	n/a	n/a	0	0	0
2732641	WORD	wordpools/wasnorm_wordpool_576.txt	LTP317	ltpFR2	0	13	SUSPECT	1415	n/a	n/a	0	0	0
2735304	WORD	wordpools/wasnorm_wordpool_576.txt	LTP317	ltpFR2	0	13	BANJO	82	n/a	n/a	0	0	0
2736912	START	n/a	LTP317	ltpFR2	0	n/a	n/a	n/a	22	n/a	n/a	n/a	n/a
2737761	DISTRACTOR	n/a	LTP317	ltpFR2	0	13	n/a	n/a	n/a	n/a	0	0	0
2737770	PROB	n/a	LTP317	ltpFR2	0	n/a	n/a	n/a	22	20	7	6	7
2742466	PROB	n/a	LTP317	ltpFR2	0	n/a	n/a	n/a	22	15	3	9	3
2744633	PROB	n/a	LTP317	ltpFR2	0	n/a	n/a	n/a	22	15	4	3	8
2746302	PROB	n/a	LTP317	ltpFR2	0	n/a	n/a	n/a	22	26	8	9	9
2750004	PROB	n/a	LTP317	ltpFR2	0	n/a	n/a	n/a	22	16	4	6	6
2753474	PROB	n/a	LTP317	ltpFR2	0	n/a	n/a	n/a	22	14	8	5	1
2756826	PROB	n/a	LTP317	ltpFR2	0	n/a	n/a	n/a	22	3	1	1	1
2760912	STOP	n/a	LTP317	ltpFR2	0	n/a	n/a	n/a	22	n/a	n/a	n/a	n/a
2762681	REC_START	n/a	LTP317	ltpFR2	0	13	n/a	n/a	n/a	n/a	0	0	0
2765505	REC_WORD	wordpools/wasnorm_wordpool_576.txt	LTP317	ltpFR2	0	13	FIDDLE	561	n/a	n/a	0	0	0
2766585	REC_WORD	wordpools/wasnorm_wordpool_576.txt	LTP317	ltpFR2	0	13	GUITAR	670	n/a	n/a	0	0	0
2770276	REC_WORD	wordpools/wasnorm_wordpool_576.txt	LTP317	ltpFR2	0	13	BANJO	82	n/a	n/a	0	0	0
2771061	REC_WORD	wordpools/wasnorm_wordpool_576.txt	LTP317	ltpFR2	0	13	CONCERT	360	n/a	n/a	0	0	0
2772174	REC_WORD	wordpools/wasnorm_wordpool_576.txt	LTP317	ltpFR2	0	13	HIGHWAY	707	n/a	n/a	0	0	0
2772922	REC_WORD	wordpools/wasnorm_wordpool_576.txt	LTP317	ltpFR2	0	13	SIDEWALK	1303	n/a	n/a	0	0	0
2810228	REC_WORD	wordpools/wasnorm_wordpool_576.txt	LTP317	ltpFR2	0	13	MESSAGE	888	n/a	n/a	0	0	0
2823846	REC_WORD	wordpools/wasnorm_wordpool_576.txt	LTP317	ltpFR2	0	13	PEBBLE	1035	n/a	n/a	0	0	0
2826142	REC_WORD	wordpools/wasnorm_wordpool_576.txt	LTP317	ltpFR2	0	13	LAVA	804	n/a	n/a	0	0	0
2827702	REC_WORD	wordpools/wasnorm_wordpool_576.txt	LTP317	ltpFR2	0	13	BEACH	-1	n/a	n/a	0	0	0
2853154	WORD	wordpools/wasnorm_wordpool_576.txt	LTP317	ltpFR2	0	14	COLLEGE	346	n/a	n/a	0	0	0
2855624	WORD	wordpools/wasnorm_wordpool_576.txt	LTP317	ltpFR2	0	14	DRIVER	499	n/a	n/a	0	0	0
2858293	WORD	wordpools/wasnorm_wordpool_576.txt	LTP317	ltpFR2	0	14	HAMPER	682	n/a	n/a	0	0	0
2860861	WORD	wordpools/wasnorm_wordpool_576.txt	LTP317	ltpFR2	0	14	FOX	598	n/a	n/a	0	0	0
2863447	WORD	wordpools/wasnorm_wordpool_576.txt	LTP317	ltpFR2	0	14	HANDBAG	684	n/a	n/a	0	0	0
2865881	WORD	wordpools/wasnorm_wordpool_576.txt	LTP317	ltpFR2	0	14	HUMAN	726	n/a	n/a	0	0	0
2868486	WORD	wordpools/wasnorm_wordpool_576.txt	LTP317	ltpFR2	0	14	PLAYGROUND	1087	n/a	n/a	0	0	0
2871203	WORD	wordpools/wasnorm_wordpool_576.txt	LTP317	ltpFR2	0	14	CLOCK	325	n/a	n/a	0	0	0
2873721	WORD	wordpools/wasnorm_wordpool_576.txt	LTP317	ltpFR2	0	14	UNCLE	1536	n/a	n/a	0	0	0
2876357	WORD	wordpools/wasnorm_wordpool_576.txt	LTP317	ltpFR2	0	14	KNAPSACK	783	n/a	n/a	0	0	0
2879078	WORD	wordpools/wasnorm_wordpool_576.txt	LTP317	ltpFR2	0	14	HERO	706	n/a	n/a	0	0	0
2881577	WORD	wordpools/wasnorm_wordpool_576.txt	LTP317	ltpFR2	0	14	WASHER	1592	n/a	n/a	0	0	0
2884297	WORD	wordpools/wasnorm_wordpool_576.txt	LTP317	ltpFR2	0	14	BANQUET	86	n/a	n/a	0	0	0
2886848	WORD	wordpools/wasnorm_wordpool_576.txt	LTP317	ltpFR2	0	14	LUGGAGE	847	n/a	n/a	0	0	0
2889501	WORD	wordpools/wasnorm_wordpool_576.txt	LTP317	ltpFR2	0	14	PARROT	1015	n/a	n/a	0	0	0
2892253	WORD	wordpools/wasnorm_wordpool_576.txt	LTP317	ltpFR2	0	14	RECEIPT	1173	n/a	n/a	0	0	0
2894988	WORD	wordpools/wasnorm_wordpool_576.txt	LTP317	ltpFR2	0	14	STAR	1373	n/a	n/a	0	0	0
2897656	WORD	wordpools/wasnorm_wordpool_576.txt	LTP317	ltpFR2	0	14	COMET	353	n/a	n/a	0	0	0
2900209	WORD	wordpools/wasnorm_wordpool_576.txt	LTP317	ltpFR2	0	14	EAGLE	512	n/a	n/a	0	0	0
2902844	WORD	wordpools/wasnorm_wordpool_576.txt	LTP317	ltpFR2	0	14	OX	994	n/a	n/a	0	0	0
2905531	WORD	wordpools/wasnorm_wordpool_576.txt	LTP317	ltpFR2	0	14	VIKING	1565	n/a	n/a	0	0	0
2908203	WORD	wordpools/wasnorm_wordpool_576.txt	LTP317	ltpFR2	0	14	RAFT	1159	n/a	n/a	0	0	0
2910718	WORD	wordpools/wasnorm_wordpool_576.txt	LTP317	ltpFR2	0	14	MONSTER	912	n/a	n/a	0	0	0
2913237	WORD	wordpools/wasnorm_wordpool_576.txt	LTP317	ltpFR2	0	14	SUPPER	1411	n/a	n/a	0	0	0
2914842	START	n/a	LTP317	ltpFR2	0	n/a	n/a	n/a	23	n/a	n/a	n/a	n/a
2915700	DISTRACTOR	n/a	LTP317	ltpFR2	0	14	n/a	n/a	n/a	n/a	0	0	0
2915704	PROB	n/a	LTP317	ltpFR2	0	n/a	n/a	n/a	23	17	7	6	4
2919956	PROB	n/a	LTP317	ltpFR2	0	n/a	n/a	n/a	23	16	4	5	7
2921927	PROB	n/a	LTP317	ltpFR2	0	n/a	n/a	n/a	23	21	3	9	9
2924578	PROB	n/a	LTP317	ltpFR2	0	n/a	n/a	n/a	23	19	7	8	4
2926246	PROB	n/a	LTP317	ltpFR2	0	n/a	n/a	n/a	23	13	5	4	6
2931401	PROB	n/a	LTP317	ltpFR2	0	n/a	n/a	n/a	23	13	3	6	4
2934868	PROB	n/a	LTP317	ltpFR2	0	n/a	n/a	n/a	23	19	5	5	9
2936471	PROB	n/a	LTP317	ltpFR2	0	n/a	n/a	n/a	23	11	2	5	7
2938358	STOP	n/a	LTP317	ltpFR2	0	n/a	n/a	n/a	23	n/a	n/a	n/a	n/a
2940592	REC_START	n/a	LTP317	ltpFR2	0	14	n/a	n/a	n/a	n/a	0	0	0
2942531	REC_WORD	wordpools/wasnorm_wordpool_576.txt	LTP317	ltpFR2	0	14	OX	994	n/a	n/a	0	0	0
2947656	REC_WORD	wordpools/wasnorm_wordpool_576.txt	LTP317	ltpFR2	0	14	SUPPER	1411	n/a	n/a	0	0	0
2949644	REC_WORD	wordpools/wasnorm_wordpool_576.txt	LTP317	ltpFR2	0	14	VIKING	1565	n/a	n/a	0	0	0
3031010	DISTRACTOR	n/a	LTP317	ltpFR2	0	15	n/a	n/a	n/a	n/a	0	0	0
3031010	START	n/a	LTP317	ltpFR2	0	n/a	n/a	n/a	24	n/a	n/a	n/a	n/a
3031027	PROB	n/a	LTP317	ltpFR2	0	n/a	n/a	n/a	24	17	3	5	9
3033451	PROB	n/a	LTP317	ltpFR2	0	n/a	n/a	n/a	24	12	7	1	4
3036319	PROB	n/a	LTP317	ltpFR2	0	n/a	n/a	n/a	24	16	7	7	2
3038421	PROB	n/a	LTP317	ltpFR2	0	n/a	n/a	n/a	24	18	7	3	8
3040403	PROB	n/a	LTP317	ltpFR2	0	n/a	n/a	n/a	24	15	2	7	6
3042169	PROB	n/a	LTP317	ltpFR2	0	n/a	n/a	n/a	24	18	8	9	1
3043719	PROB	n/a	LTP317	ltpFR2	0	n/a	n/a	n/a	24	22	6	8	8
3048443	PROB	n/a	LTP317	ltpFR2	0	n/a	n/a	n/a	24	8	3	1	4
3050093	PROB	n/a	LTP317	ltpFR2	0	n/a	n/a	n/a	24	12	4	3	5
3051777	PROB	n/a	LTP317	ltpFR2	0	n/a	n/a	n/a	24	13	8	3	2
3053850	STOP	n/a	LTP317	ltpFR2	0	n/a	n/a	n/a	24	n/a	n/a	n/a	n/a
3055865	WORD	wordpools/wasnorm_wordpool_576.txt	LTP317	ltpFR2	0	15	CANAL	226	n/a	n/a	0	0	0
3058634	WORD	wordpools/wasnorm_wordpool_576.txt	LTP317	ltpFR2	0	15	JEANS	752	n/a	n/a	0	0	0
3061355	WORD	wordpools/wasnorm_wordpool_576.txt	LTP317	ltpFR2	0	15	COUSIN	392	n/a	n/a	0	0	0
3063840	WORD	wordpools/wasnorm_wordpool_576.txt	LTP317	ltpFR2	0	15	THREAD	1460	n/a	n/a	0	0	0
3066358	WORD	wordpools/wasnorm_wordpool_576.txt	LTP317	ltpFR2	0	15	GIFT	635	n/a	n/a	0	0	0
3069143	WORD	wordpools/wasnorm_wordpool_576.txt	LTP317	ltpFR2	0	15	PACKAGE	997	n/a	n/a	0	0	0
3071879	WORD	wordpools/wasnorm_wordpool_576.txt	LTP317	ltpFR2	0	15	PARTNER	1017	n/a	n/a	0	0	0
3074498	WORD	wordpools/wasnorm_wordpool_576.txt	LTP317	ltpFR2	0	15	PUDDING	1139	n/a	n/a	0	0	0
3076967	WORD	wordpools/wasnorm_wordpool_576.txt	LTP317	ltpFR2	0	15	BOUQUET	157	n/a	n/a	0	0	0
3079454	WORD	wordpools/wasnorm_wordpool_576.txt	LTP317	ltpFR2	0	15	ACTOR	5	n/a	n/a	0	0	0
3081954	WORD	wordpools/wasnorm_wordpool_576.txt	LTP317	ltpFR2	0	15	COCKTAIL	338	n/a	n/a	0	0	0
3084474	WORD	wordpools/wasnorm_wordpool_576.txt	LTP317	ltpFR2	0	15	PERFUME	1049	n/a	n/a	0	0	0
3087293	WORD	wordpools/wasnorm_wordpool_576.txt	LTP317	ltpFR2	0	15	PUPPY	1144	n/a	n/a	0	0	0
3089760	WORD	wordpools/wasnorm_wordpool_576.txt	LTP317	ltpFR2	0	15	FLEET	578	n/a	n/a	0	0	0
3092231	WORD	wordpools/wasnorm_wordpool_576.txt	LTP317	ltpFR2	0	15	BRICK	172	n/a	n/a	0	0	0
3094664	WORD	wordpools/wasnorm_wordpool_576.txt	LTP317	ltpFR2	0	15	PLASTER	1085	n/a	n/a	0	0	0
3097201	WORD	wordpools/wasnorm_wordpool_576.txt	LTP317	ltpFR2	0	15	SCARECROW	1245	n/a	n/a	0	0	0
3099769	WORD	wordpools/wasnorm_wordpool_576.txt	LTP317	ltpFR2	0	15	ARMY	39	n/a	n/a	0	0	0
3102506	WORD	wordpools/wasnorm_wordpool_576.txt	LTP317	ltpFR2	0	15	FEMALE	559	n/a	n/a	0	0	0
3105208	WORD	wordpools/wasnorm_wordpool_576.txt	LTP317	ltpFR2	0	15	MATTRESS	879	n/a	n/a	0	0	0
3107842	WORD	wordpools/wasnorm_wordpool_576.txt	LTP317	ltpFR2	0	15	PASTA	1021	n/a	n/a	0	0	0
3110312	WORD	wordpools/wasnorm_wordpool_576.txt	LTP317	ltpFR2	0	15	MARKER	870	n/a	n/a	0	0	0
3112830	WORD	wordpools/wasnorm_wordpool_576.txt	LTP317	ltpFR2	0	15	JELLY	755	n/a	n/a	0	0	0
3115432	WORD	wordpools/wasnorm_wordpool_576.txt	LTP317	ltpFR2	0	15	SLIDE	1326	n/a	n/a	0	0	0
3117052	START	n/a	LTP317	ltpFR2	0	n/a	n/a	n/a	25	n/a	n/a	n/a	n/a
3118132	DISTRACTOR	n/a	LTP317	ltpFR2	0	15	n/a	n/a	n/a	n/a	0	0	0
3118136	PROB	n/a	LTP317	ltpFR2	0	n/a	n/a	n/a	25	16	6	4	6
3122804	PROB	n/a	LTP317	ltpFR2	0	n/a	n/a	n/a	25	11	6	3	2
3125056	PROB	n/a	LTP317	ltpFR2	0	n/a	n/a	n/a	25	10	3	5	2
3126906	PROB	n/a	LTP317	ltpFR2	0	n/a	n/a	n/a	25	15	7	9	3
3128725	PROB	n/a	LTP317	ltpFR2	0	n/a	n/a	n/a	25	14	4	2	8
3131595	PROB	n/a	LTP317	ltpFR2	0	n/a	n/a	n/a	25	10	4	5	1
3133346	PROB	n/a	LTP317	ltpFR2	0	n/a	n/a	n/a	25	11	4	5	5
3134913	PROB	n/a	LTP317	ltpFR2	0	n/a	n/a	n/a	25	21	8	6	7
3137848	PROB	n/a	LTP317	ltpFR2	0	n/a	n/a	n/a	25	23	7	7	9
3140134	STOP	n/a	LTP317	ltpFR2	0	n/a	n/a	n/a	25	n/a	n/a	n/a	n/a
3142819	REC_START	n/a	LTP317	ltpFR2	0	15	n/a	n/a	n/a	n/a	0	0	0
3144255	REC_WORD	wordpools/wasnorm_wordpool_576.txt	LTP317	ltpFR2	0	15	MARKER	870	n/a	n/a	0	0	0
3145417	REC_WORD	wordpools/wasnorm_wordpool_576.txt	LTP317	ltpFR2	0	15	JELLY	755	n/a	n/a	0	0	0
3146335	REC_WORD	wordpools/wasnorm_wordpool_576.txt	LTP317	ltpFR2	0	15	SLIDE	1326	n/a	n/a	0	0	0
3151694	REC_WORD	wordpools/wasnorm_wordpool_576.txt	LTP317	ltpFR2	0	15	MATTRESS	879	n/a	n/a	0	0	0
3153314	REC_WORD	wordpools/wasnorm_wordpool_576.txt	LTP317	ltpFR2	0	15	BOUQUET	157	n/a	n/a	0	0	0
3161191	REC_WORD	wordpools/wasnorm_wordpool_576.txt	LTP317	ltpFR2	0	15	PARTNER	1017	n/a	n/a	0	0	0
3191427	REC_WORD	wordpools/wasnorm_wordpool_576.txt	LTP317	ltpFR2	0	15	COCKTAIL	338	n/a	n/a	0	0	0
3194757	REC_WORD	wordpools/wasnorm_wordpool_576.txt	LTP317	ltpFR2	0	15	ACTOR	5	n/a	n/a	0	0	0
3233259	WORD	wordpools/wasnorm_wordpool_576.txt	LTP317	ltpFR2	0	16	CATCHER	258	n/a	n/a	0	0	0
3236028	WORD	wordpools/wasnorm_wordpool_576.txt	LTP317	ltpFR2	0	16	CHILD	299	n/a	n/a	0	0	0
3238824	WORD	wordpools/wasnorm_wordpool_576.txt	LTP317	ltpFR2	0	16	CROWN	415	n/a	n/a	0	0	0
3241566	WORD	wordpools/wasnorm_wordpool_576.txt	LTP317	ltpFR2	0	16	COTTAGE	384	n/a	n/a	0	0	0
3244063	WORD	wordpools/wasnorm_wordpool_576.txt	LTP317	ltpFR2	0	16	ICING	732	n/a	n/a	0	0	0
3246563	WORD	wordpools/wasnorm_wordpool_576.txt	LTP317	ltpFR2	0	16	PIGEON	1065	n/a	n/a	0	0	0
3249251	WORD	wordpools/wasnorm_wordpool_576.txt	LTP317	ltpFR2	0	16	MEAT	883	n/a	n/a	0	0	0
3251836	WORD	wordpools/wasnorm_wordpool_576.txt	LTP317	ltpFR2	0	16	VENUS	1557	n/a	n/a	0	0	0
3254305	WORD	wordpools/wasnorm_wordpool_576.txt	LTP317	ltpFR2	0	16	GRILL	661	n/a	n/a	0	0	0
3256757	WORD	wordpools/wasnorm_wordpool_576.txt	LTP317	ltpFR2	0	16	TERMITE	1451	n/a	n/a	0	0	0
3259231	WORD	wordpools/wasnorm_wordpool_576.txt	LTP317	ltpFR2	0	16	STAKE	1368	n/a	n/a	0	0	0
3262045	WORD	wordpools/wasnorm_wordpool_576.txt	LTP317	ltpFR2	0	16	YARN	1631	n/a	n/a	0	0	0
3264647	WORD	wordpools/wasnorm_wordpool_576.txt	LTP317	ltpFR2	0	16	ROOSTER	1209	n/a	n/a	0	0	0
3267184	WORD	wordpools/wasnorm_wordpool_576.txt	LTP317	ltpFR2	0	16	PLUTO	1092	n/a	n/a	0	0	0
3269668	WORD	wordpools/wasnorm_wordpool_576.txt	LTP317	ltpFR2	0	16	BUGGY	188	n/a	n/a	0	0	0
3272320	WORD	wordpools/wasnorm_wordpool_576.txt	LTP317	ltpFR2	0	16	BLACKBOARD	133	n/a	n/a	0	0	0
3274739	WORD	wordpools/wasnorm_wordpool_576.txt	LTP317	ltpFR2	0	16	BABY	64	n/a	n/a	0	0	0
3277229	WORD	wordpools/wasnorm_wordpool_576.txt	LTP317	ltpFR2	0	16	COSTUME	383	n/a	n/a	0	0	0
3279764	WORD	wordpools/wasnorm_wordpool_576.txt	LTP317	ltpFR2	0	16	COUNTY	389	n/a	n/a	0	0	0
3282262	WORD	wordpools/wasnorm_wordpool_576.txt	LTP317	ltpFR2	0	16	COUNTRY	388	n/a	n/a	0	0	0
3284814	WORD	wordpools/wasnorm_wordpool_576.txt	LTP317	ltpFR2	0	16	PASTRY	1022	n/a	n/a	0	0	0
3287468	WORD	wordpools/wasnorm_wordpool_576.txt	LTP317	ltpFR2	0	16	BOARD	143	n/a	n/a	0	0	0
3290035	WORD	wordpools/wasnorm_wordpool_576.txt	LTP317	ltpFR2	0	16	MILDEW	893	n/a	n/a	0	0	0
3292804	WORD	wordpools/wasnorm_wordpool_576.txt	LTP317	ltpFR2	0	16	SLIME	1327	n/a	n/a	0	0	0
3294410	START	n/a	LTP317	ltpFR2	0	n/a	n/a	n/a	26	n/a	n/a	n/a	n/a
3295356	DISTRACTOR	n/a	LTP317	ltpFR2	0	16	n/a	n/a	n/a	n/a	0	0	0
3295360	PROB	n/a	LTP317	ltpFR2	0	n/a	n/a	n/a	26	12	4	4	4
3299659	PROB	n/a	LTP317	ltpFR2	0	n/a	n/a	n/a	26	12	2	8	2
3301647	PROB	n/a	LTP317	ltpFR2	0	n/a	n/a	n/a	26	13	2	9	1
3305918	PROB	n/a	LTP317	ltpFR2	0	n/a	n/a	n/a	26	15	7	5	3
3309887	PROB	n/a	LTP317	ltpFR2	0	n/a	n/a	n/a	26	19	5	6	8
3312224	PROB	n/a	LTP317	ltpFR2	0	n/a	n/a	n/a	26	18	8	6	4
3315425	PROB	n/a	LTP317	ltpFR2	0	n/a	n/a	n/a	26	9	2	3	4
3317437	STOP	n/a	LTP317	ltpFR2	0	n/a	n/a	n/a	26	n/a	n/a	n/a	n/a
3320314	REC_START	n/a	LTP317	ltpFR2	0	16	n/a	n/a	n/a	n/a	0	0	0
3322983	REC_WORD	wordpools/wasnorm_wordpool_576.txt	LTP317	ltpFR2	0	16	SLIME	1327	n/a	n/a	0	0	0
3324201	REC_WORD	wordpools/wasnorm_wordpool_576.txt	LTP317	ltpFR2	0	16	MILDEW	893	n/a	n/a	0	0	0
3326804	REC_WORD	wordpools/wasnorm_wordpool_576.txt	LTP317	ltpFR2	0	16	COUNTRY	388	n/a	n/a	0	0	0
3328007	REC_WORD	wordpools/wasnorm_wordpool_576.txt	LTP317	ltpFR2	0	16	COUNTY	389	n/a	n/a	0	0	0
3342505	REC_WORD	wordpools/wasnorm_wordpool_576.txt	LTP317	ltpFR2	0	16	MEAT	883	n/a	n/a	0	0	0
3396840	REST_REWET	n/a	LTP317	ltpFR2	0	16	n/a	n/a	n/a	n/a	0	0	0
3598085	WORD	wordpools/wasnorm_wordpool_576.txt	LTP317	ltpFR2	0	17	LEOPARD	812	n/a	n/a	0	0	0
3600671	WORD	wordpools/wasnorm_wordpool_576.txt	LTP317	ltpFR2	0	17	GHETTO	633	n/a	n/a	0	0	0
3603176	WORD	wordpools/wasnorm_wordpool_576.txt	LTP317	ltpFR2	0	17	BUREAU	199	n/a	n/a	0	0	0
3605827	WORD	wordpools/wasnorm_wordpool_576.txt	LTP317	ltpFR2	0	17	TORTOISE	1486	n/a	n/a	0	0	0
3608577	WORD	wordpools/wasnorm_wordpool_576.txt	LTP317	ltpFR2	0	17	FLOWER	584	n/a	n/a	0	0	0
3611046	WORD	wordpools/wasnorm_wordpool_576.txt	LTP317	ltpFR2	0	17	SPIDER	1351	n/a	n/a	0	0	0
3613482	WORD	wordpools/wasnorm_wordpool_576.txt	LTP317	ltpFR2	0	17	SNAKE	1333	n/a	n/a	0	0	0
3616237	WORD	wordpools/wasnorm_wordpool_576.txt	LTP317	ltpFR2	0	17	BLOUSE	139	n/a	n/a	0	0	0
3618702	WORD	wordpools/wasnorm_wordpool_576.txt	LTP317	ltpFR2	0	17	COCOON	339	n/a	n/a	0	0	0
3621338	WORD	wordpools/wasnorm_wordpool_576.txt	LTP317	ltpFR2	0	17	FOOT	590	n/a	n/a	0	0	0
3624022	WORD	wordpools/wasnorm_wordpool_576.txt	LTP317	ltpFR2	0	17	PANTHER	1009	n/a	n/a	0	0	0
3626559	WORD	wordpools/wasnorm_wordpool_576.txt	LTP317	ltpFR2	0	17	SNAIL	1332	n/a	n/a	0	0	0
3629178	WORD	wordpools/wasnorm_wordpool_576.txt	LTP317	ltpFR2	0	17	LONDON	843	n/a	n/a	0	0	0
3631863	WORD	wordpools/wasnorm_wordpool_576.txt	LTP317	ltpFR2	0	17	STREAM	1392	n/a	n/a	0	0	0
3634536	WORD	wordpools/wasnorm_wordpool_576.txt	LTP317	ltpFR2	0	17	BREAST	171	n/a	n/a	0	0	0
3637033	WORD	wordpools/wasnorm_wordpool_576.txt	LTP317	ltpFR2	0	17	AUTHOR	61	n/a	n/a	0	0	0
3639520	WORD	wordpools/wasnorm_wordpool_576.txt	LTP317	ltpFR2	0	17	SHELF	1280	n/a	n/a	0	0	0
3642109	WORD	wordpools/wasnorm_wordpool_576.txt	LTP317	ltpFR2	0	17	WITNESS	1618	n/a	n/a	0	0	0
3644672	WORD	wordpools/wasnorm_wordpool_576.txt	LTP317	ltpFR2	0	17	TYPIST	1532	n/a	n/a	0	0	0
3647214	WORD	wordpools/wasnorm_wordpool_576.txt	LTP317	ltpFR2	0	17	WORKER	1621	n/a	n/a	0	0	0
3649715	WORD	wordpools/wasnorm_wordpool_576.txt	LTP317	ltpFR2	0	17	ULCER	1533	n/a	n/a	0	0	0
3652379	WORD	wordpools/wasnorm_wordpool_576.txt	LTP317	ltpFR2	0	17	VICTIM	1562	n/a	n/a	0	0	0
3655031	WORD	wordpools/wasnorm_wordpool_576.txt	LTP317	ltpFR2	0	17	CORAL	378	n/a	n/a	0	0	0
3657655	WORD	wordpools/wasnorm_wordpool_576.txt	LTP317	ltpFR2	0	17	RIFLE	1192	n/a	n/a	0	0	0
3659270	START	n/a	LTP317	ltpFR2	0	n/a	n/a	n/a	27	n/a	n/a	n/a	n/a
3660457	DISTRACTOR	n/a	LTP317	ltpFR2	0	17	n/a	n/a	n/a	n/a	0	0	0
3660470	PROB	n/a	LTP317	ltpFR2	0	n/a	n/a	n/a	27	13	3	6	4
3665655	PROB	n/a	LTP317	ltpFR2	0	n/a	n/a	n/a	27	13	8	3	2
3670227	PROB	n/a	LTP317	ltpFR2	0	n/a	n/a	n/a	27	18	1	9	8
3672710	PROB	n/a	LTP317	ltpFR2	0	n/a	n/a	n/a	27	17	2	6	9
3675299	PROB	n/a	LTP317	ltpFR2	0	n/a	n/a	n/a	27	17	9	4	4
3677532	PROB	n/a	LTP317	ltpFR2	0	n/a	n/a	n/a	27	20	2	9	9
3679352	PROB	n/a	LTP317	ltpFR2	0	n/a	n/a	n/a	27	7	1	5	1
3680801	PROB	n/a	LTP317	ltpFR2	0	n/a	n/a	n/a	27	12	1	8	3
3682554	STOP	n/a	LTP317	ltpFR2	0	n/a	n/a	n/a	27	n/a	n/a	n/a	n/a
3685139	REC_START	n/a	LTP317	ltpFR2	0	17	n/a	n/a	n/a	n/a	0	0	0
3687602	REC_WORD	wordpools/wasnorm_wordpool_576.txt	LTP317	ltpFR2	0	17	SPIDER	1351	n/a	n/a	0	0	0
3688602	REC_WORD_VV	wordpools/wasnorm_wordpool_576.txt	LTP317	ltpFR2	0	17	<>	-1	n/a	n/a	0	0	0
3692803	REC_WORD	wordpools/wasnorm_wordpool_576.txt	LTP317	ltpFR2	0	17	SNAKE	1333	n/a	n/a	0	0	0
3695448	REC_WORD	wordpools/wasnorm_wordpool_576.txt	LTP317	ltpFR2	0	17	FOOT	590	n/a	n/a	0	0	0
3696158	REC_WORD	wordpools/wasnorm_wordpool_576.txt	LTP317	ltpFR2	0	17	AUTHOR	61	n/a	n/a	0	0	0
3697074	REC_WORD	wordpools/wasnorm_wordpool_576.txt	LTP317	ltpFR2	0	17	PANTHER	1009	n/a	n/a	0	0	0
3698765	REC_WORD	wordpools/wasnorm_wordpool_576.txt	LTP317	ltpFR2	0	17	BREAST	171	n/a	n/a	0	0	0
3708252	REC_WORD	wordpools/wasnorm_wordpool_576.txt	LTP317	ltpFR2	0	17	COCOON	339	n/a	n/a	0	0	0
3775591	WORD	wordpools/wasnorm_wordpool_576.txt	LTP317	ltpFR2	0	18	PATROL	1027	n/a	n/a	0	0	0
3778294	WORD	wordpools/wasnorm_wordpool_576.txt	LTP317	ltpFR2	0	18	HOUND	724	n/a	n/a	0	0	0
3780779	WORD	wordpools/wasnorm_wordpool_576.txt	LTP317	ltpFR2	0	18	ICEBERG	731	n/a	n/a	0	0	0
3783533	WORD	wordpools/wasnorm_wordpool_576.txt	LTP317	ltpFR2	0	18	CHEST	295	n/a	n/a	0	0	0
3786052	WORD	wordpools/wasnorm_wordpool_576.txt	LTP317	ltpFR2	0	18	KLEENEX	782	n/a	n/a	0	0	0
3788669	WORD	wordpools/wasnorm_wordpool_576.txt	LTP317	ltpFR2	0	18	POLICE	1098	n/a	n/a	0	0	0
3791440	WORD	wordpools/wasnorm_wordpool_576.txt	LTP317	ltpFR2	0	18	KIDNEY	776	n/a	n/a	0	0	0
3794259	WORD	wordpools/wasnorm_wordpool_576.txt	LTP317	ltpFR2	0	18	CELLAR	267	n/a	n/a	0	0	0
3796793	WORD	wordpools/wasnorm_wordpool_576.txt	LTP317	ltpFR2	0	18	STOVE	1388	n/a	n/a	0	0	0
3799579	WORD	wordpools/wasnorm_wordpool_576.txt	LTP317	ltpFR2	0	18	SALMON	1227	n/a	n/a	0	0	0
3802049	WORD	wordpools/wasnorm_wordpool_576.txt	LTP317	ltpFR2	0	18	BUCKET	184	n/a	n/a	0	0	0
3804717	WORD	wordpools/wasnorm_wordpool_576.txt	LTP317	ltpFR2	0	18	PECAN	1036	n/a	n/a	0	0	0
3807537	WORD	wordpools/wasnorm_wordpool_576.txt	LTP317	ltpFR2	0	18	DONOR	485	n/a	n/a	0	0	0
3810156	WORD	wordpools/wasnorm_wordpool_576.txt	LTP317	ltpFR2	0	18	PLAID	1080	n/a	n/a	0	0	0
3812974	WORD	wordpools/wasnorm_wordpool_576.txt	LTP317	ltpFR2	0	18	CLOTHES	327	n/a	n/a	0	0	0
3815460	WORD	wordpools/wasnorm_wordpool_576.txt	LTP317	ltpFR2	0	18	FLAG	573	n/a	n/a	0	0	0
3818213	WORD	wordpools/wasnorm_wordpool_576.txt	LTP317	ltpFR2	0	18	TUNNEL	1519	n/a	n/a	0	0	0
3820847	WORD	wordpools/wasnorm_wordpool_576.txt	LTP317	ltpFR2	0	18	KITCHEN	778	n/a	n/a	0	0	0
3823566	WORD	wordpools/wasnorm_wordpool_576.txt	LTP317	ltpFR2	0	18	TOMBSTONE	1478	n/a	n/a	0	0	0
3826220	WORD	wordpools/wasnorm_wordpool_576.txt	LTP317	ltpFR2	0	18	GRAVE	658	n/a	n/a	0	0	0
3828654	WORD	wordpools/wasnorm_wordpool_576.txt	LTP317	ltpFR2	0	18	FOREHEAD	592	n/a	n/a	0	0	0
3831323	WORD	wordpools/wasnorm_wordpool_576.txt	LTP317	ltpFR2	0	18	HEADBAND	696	n/a	n/a	0	0	0
3834109	WORD	wordpools/wasnorm_wordpool_576.txt	LTP317	ltpFR2	0	18	APRON	35	n/a	n/a	0	0	0
3836727	WORD	wordpools/wasnorm_wordpool_576.txt	LTP317	ltpFR2	0	18	MISTER	901	n/a	n/a	0	0	0
3838346	START	n/a	LTP317	ltpFR2	0	n/a	n/a	n/a	28	n/a	n/a	n/a	n/a
3839481	DISTRACTOR	n/a	LTP317	ltpFR2	0	18	n/a	n/a	n/a	n/a	0	0	0
3839497	PROB	n/a	LTP317	ltpFR2	0	n/a	n/a	n/a	28	16	6	3	4
3845883	PROB	n/a	LTP317	ltpFR2	0	n/a	n/a	n/a	28	17	7	7	3
3847685	PROB	n/a	LTP317	ltpFR2	0	n/a	n/a	n/a	28	14	3	4	7
3849371	PROB	n/a	LTP317	ltpFR2	0	n/a	n/a	n/a	28	11	3	4	4
3853840	PROB	n/a	LTP317	ltpFR2	0	n/a	n/a	n/a	28	21	9	5	7
3856475	PROB	n/a	LTP317	ltpFR2	0	n/a	n/a	n/a	28	17	9	6	2
3858193	PROB	n/a	LTP317	ltpFR2	0	n/a	n/a	n/a	28	14	7	3	4
3859761	PROB	n/a	LTP317	ltpFR2	0	n/a	n/a	n/a	28	8	1	4	3
3861171	STOP	n/a	LTP317	ltpFR2	0	n/a	n/a	n/a	28	n/a	n/a	n/a	n/a
3864267	REC_START	n/a	LTP317	ltpFR2	0	18	n/a	n/a	n/a	n/a	0	0	0
3866247	REC_WORD	wordpools/wasnorm_wordpool_576.txt	LTP317	ltpFR2	0	18	MISTER	901	n/a	n/a	0	0	0
3867504	REC_WORD	wordpools/wasnorm_wordpool_576.txt	LTP317	ltpFR2	0	18	TOMBSTONE	1478	n/a	n/a	0	0	0
3868504	REC_WORD_VV	wordpools/wasnorm_wordpool_576.txt	LTP317	ltpFR2	0	18	<>	-1	n/a	n/a	0	0	0
3870342	REC_WORD	wordpools/wasnorm_wordpool_576.txt	LTP317	ltpFR2	0	18	GRAVE	658	n/a	n/a	0	0	0
3871866	REC_WORD	wordpools/wasnorm_wordpool_576.txt	LTP317	ltpFR2	0	18	KITCHEN	778	n/a	n/a	0	0	0
3875052	REC_WORD	wordpools/wasnorm_wordpool_576.txt	LTP317	ltpFR2	0	18	SALMON	1227	n/a	n/a	0	0	0
3876052	REC_WORD_VV	wordpools/wasnorm_wordpool_576.txt	LTP317	ltpFR2	0	18	<>	-1	n/a	n/a	0	0	0
3877610	REC_WORD	wordpools/wasnorm_wordpool_576.txt	LTP317	ltpFR2	0	18	STOVE	1388	n/a	n/a	0	0	0
3878610	REC_WORD_VV	wordpools/wasnorm_wordpool_576.txt	LTP317	ltpFR2	0	18	<>	-1	n/a	n/a	0	0	0
3879237	REC_WORD	wordpools/wasnorm_wordpool_576.txt	LTP317	ltpFR2	0	18	CELLAR	267	n/a	n/a	0	0	0
3954704	WORD	wordpools/wasnorm_wordpool_576.txt	LTP317	ltpFR2	0	19	ANKLE	24	n/a	n/a	0	0	0
3957334	WORD	wordpools/wasnorm_wordpool_576.txt	LTP317	ltpFR2	0	19	CITRUS	313	n/a	n/a	0	0	0
3959936	WORD	wordpools/wasnorm_wordpool_576.txt	LTP317	ltpFR2	0	19	VELVET	1555	n/a	n/a	0	0	0
3962422	WORD	wordpools/wasnorm_wordpool_576.txt	LTP317	ltpFR2	0	19	PATIENT	1024	n/a	n/a	0	0	0
3965108	WORD	wordpools/wasnorm_wordpool_576.txt	LTP317	ltpFR2	0	19	CREATURE	403	n/a	n/a	0	0	0
3967915	WORD	wordpools/wasnorm_wordpool_576.txt	LTP317	ltpFR2	0	19	MAMMAL	861	n/a	n/a	0	0	0
3970462	WORD	wordpools/wasnorm_wordpool_576.txt	LTP317	ltpFR2	0	19	HIKER	708	n/a	n/a	0	0	0
3972913	WORD	wordpools/wasnorm_wordpool_576.txt	LTP317	ltpFR2	0	19	SKILLET	1317	n/a	n/a	0	0	0
3975621	WORD	wordpools/wasnorm_wordpool_576.txt	LTP317	ltpFR2	0	19	JUGGLER	763	n/a	n/a	0	0	0
3978186	WORD	wordpools/wasnorm_wordpool_576.txt	LTP317	ltpFR2	0	19	DOLPHIN	483	n/a	n/a	0	0	0
3980621	WORD	wordpools/wasnorm_wordpool_576.txt	LTP317	ltpFR2	0	19	HOOK	715	n/a	n/a	0	0	0
3983307	WORD	wordpools/wasnorm_wordpool_576.txt	LTP317	ltpFR2	0	19	QUAIL	1147	n/a	n/a	0	0	0
3985792	WORD	wordpools/wasnorm_wordpool_576.txt	LTP317	ltpFR2	0	19	PERCH	1048	n/a	n/a	0	0	0
3988482	WORD	wordpools/wasnorm_wordpool_576.txt	LTP317	ltpFR2	0	19	PARSLEY	1016	n/a	n/a	0	0	0
3991064	WORD	wordpools/wasnorm_wordpool_576.txt	LTP317	ltpFR2	0	19	HORNET	718	n/a	n/a	0	0	0
3993598	WORD	wordpools/wasnorm_wordpool_576.txt	LTP317	ltpFR2	0	19	BEAST	108	n/a	n/a	0	0	0
3996335	WORD	wordpools/wasnorm_wordpool_576.txt	LTP317	ltpFR2	0	19	ATOM	55	n/a	n/a	0	0	0
3999087	WORD	wordpools/wasnorm_wordpool_576.txt	LTP317	ltpFR2	0	19	MAILBOX	857	n/a	n/a	0	0	0
4001805	WORD	wordpools/wasnorm_wordpool_576.txt	LTP317	ltpFR2	0	19	LIPSTICK	829	n/a	n/a	0	0	0
4004275	WORD	wordpools/wasnorm_wordpool_576.txt	LTP317	ltpFR2	0	19	LEG	809	n/a	n/a	0	0	0
4006793	WORD	wordpools/wasnorm_wordpool_576.txt	LTP317	ltpFR2	0	19	WASP	1593	n/a	n/a	0	0	0
4009583	WORD	wordpools/wasnorm_wordpool_576.txt	LTP317	ltpFR2	0	19	BROOK	177	n/a	n/a	0	0	0
4012333	WORD	wordpools/wasnorm_wordpool_576.txt	LTP317	ltpFR2	0	19	HONEY	713	n/a	n/a	0	0	0
4014816	WORD	wordpools/wasnorm_wordpool_576.txt	LTP317	ltpFR2	0	19	MISSILE	900	n/a	n/a	0	0	0
4016437	START	n/a	LTP317	ltpFR2	0	n/a	n/a	n/a	29	n/a	n/a	n/a	n/a
4017332	DISTRACTOR	n/a	LTP317	ltpFR2	0	19	n/a	n/a	n/a	n/a	0	0	0
4017336	PROB	n/a	LTP317	ltpFR2	0	n/a	n/a	n/a	29	16	6	6	4
4022174	PROB	n/a	LTP317	ltpFR2	0	n/a	n/a	n/a	29	15	4	2	9
4024708	PROB	n/a	LTP317	ltpFR2	0	n/a	n/a	n/a	29	20	5	9	6
4027711	PROB	n/a	LTP317	ltpFR2	0	n/a	n/a	n/a	29	12	3	5	4
4029679	PROB	n/a	LTP317	ltpFR2	0	n/a	n/a	n/a	29	17	9	1	7
4031400	PROB	n/a	LTP317	ltpFR2	0	n/a	n/a	n/a	29	12	4	1	7
4033502	PROB	n/a	LTP317	ltpFR2	0	n/a	n/a	n/a	29	1	4	6	2
4034934	PROB	n/a	LTP317	ltpFR2	0	n/a	n/a	n/a	29	13	7	5	1
4037972	PROB	n/a	LTP317	ltpFR2	0	n/a	n/a	n/a	29	17	6	3	8
4039761	STOP	n/a	LTP317	ltpFR2	0	n/a	n/a	n/a	29	n/a	n/a	n/a	n/a
4042277	REC_START	n/a	LTP317	ltpFR2	0	19	n/a	n/a	n/a	n/a	0	0	0
4044414	REC_WORD	wordpools/wasnorm_wordpool_576.txt	LTP317	ltpFR2	0	19	MISSILE	900	n/a	n/a	0	0	0
4047242	REC_WORD	wordpools/wasnorm_wordpool_576.txt	LTP317	ltpFR2	0	19	ANKLE	24	n/a	n/a	0	0	0
4048095	REC_WORD	wordpools/wasnorm_wordpool_576.txt	LTP317	ltpFR2	0	19	LEG	809	n/a	n/a	0	0	0
4132699	DISTRACTOR	n/a	LTP317	ltpFR2	0	20	n/a	n/a	n/a	n/a	0	0	0
4132699	START	n/a	LTP317	ltpFR2	0	n/a	n/a	n/a	30	n/a	n/a	n/a	n/a
4132713	PROB	n/a	LTP317	ltpFR2	0	n/a	n/a	n/a	30	17	4	5	8
4135917	PROB	n/a	LTP317	ltpFR2	0	n/a	n/a	n/a	30	18	6	9	3
4137817	PROB	n/a	LTP317	ltpFR2	0	n/a	n/a	n/a	30	16	6	4	6
4139887	PROB	n/a	LTP317	ltpFR2	0	n/a	n/a	n/a	30	17	7	9	1
4142956	PROB	n/a	LTP317	ltpFR2	0	n/a	n/a	n/a	30	10	2	2	6
4144874	PROB	n/a	LTP317	ltpFR2	0	n/a	n/a	n/a	30	11	4	1	6
4146525	PROB	n/a	LTP317	ltpFR2	0	n/a	n/a	n/a	30	17	7	8	2
4148076	PROB	n/a	LTP317	ltpFR2	0	n/a	n/a	n/a	30	8	1	6	2
4149427	PROB	n/a	LTP317	ltpFR2	0	n/a	n/a	n/a	30	13	3	3	7
4151912	PROB	n/a	LTP317	ltpFR2	0	n/a	n/a	n/a	30	16	6	3	7
4155629	STOP	n/a	LTP317	ltpFR2	0	n/a	n/a	n/a	30	n/a	n/a	n/a	n/a
4157784	WORD	wordpools/wasnorm_wordpool_576.txt	LTP317	ltpFR2	0	20	FLESH	579	n/a	n/a	0	0	0
4160237	WORD	wordpools/wasnorm_wordpool_576.txt	LTP317	ltpFR2	0	20	CRAYON	401	n/a	n/a	0	0	0
4162812	WORD	wordpools/wasnorm_wordpool_576.txt	LTP317	ltpFR2	0	20	FINGER	567	n/a	n/a	0	0	0
4165348	WORD	wordpools/wasnorm_wordpool_576.txt	LTP317	ltpFR2	0	20	TUTU	1524	n/a	n/a	0	0	0
4168085	WORD	wordpools/wasnorm_wordpool_576.txt	LTP317	ltpFR2	0	20	CABIN	211	n/a	n/a	0	0	0
4170827	WORD	wordpools/wasnorm_wordpool_576.txt	LTP317	ltpFR2	0	20	POCKET	1093	n/a	n/a	0	0	0
4173281	WORD	wordpools/wasnorm_wordpool_576.txt	LTP317	ltpFR2	0	20	GLOVE	642	n/a	n/a	0	0	0
4175898	WORD	wordpools/wasnorm_wordpool_576.txt	LTP317	ltpFR2	0	20	COBRA	336	n/a	n/a	0	0	0
4178460	WORD	wordpools/wasnorm_wordpool_576.txt	LTP317	ltpFR2	0	20	BISON	131	n/a	n/a	0	0	0
4181121	WORD	wordpools/wasnorm_wordpool_576.txt	LTP317	ltpFR2	0	20	SHIRT	1287	n/a	n/a	0	0	0
4183830	WORD	wordpools/wasnorm_wordpool_576.txt	LTP317	ltpFR2	0	20	SHORTS	1293	n/a	n/a	0	0	0
4186500	WORD	wordpools/wasnorm_wordpool_576.txt	LTP317	ltpFR2	0	20	SHERIFF	1284	n/a	n/a	0	0	0
4189236	WORD	wordpools/wasnorm_wordpool_576.txt	LTP317	ltpFR2	0	20	BARLEY	88	n/a	n/a	0	0	0
4192011	WORD	wordpools/wasnorm_wordpool_576.txt	LTP317	ltpFR2	0	20	STUDENT	1395	n/a	n/a	0	0	0
4194690	WORD	wordpools/wasnorm_wordpool_576.txt	LTP317	ltpFR2	0	20	GARBAGE	622	n/a	n/a	0	0	0
4197367	WORD	wordpools/wasnorm_wordpool_576.txt	LTP317	ltpFR2	0	20	DRESS	495	n/a	n/a	0	0	0
4199928	WORD	wordpools/wasnorm_wordpool_576.txt	LTP317	ltpFR2	0	20	EYELASH	546	n/a	n/a	0	0	0
4202414	WORD	wordpools/wasnorm_wordpool_576.txt	LTP317	ltpFR2	0	20	LUNCH	849	n/a	n/a	0	0	0
4205217	WORD	wordpools/wasnorm_wordpool_576.txt	LTP317	ltpFR2	0	20	PROTON	1132	n/a	n/a	0	0	0
4207774	WORD	wordpools/wasnorm_wordpool_576.txt	LTP317	ltpFR2	0	20	BEAVER	109	n/a	n/a	0	0	0
4210311	WORD	wordpools/wasnorm_wordpool_576.txt	LTP317	ltpFR2	0	20	DRUG	501	n/a	n/a	0	0	0
4212929	WORD	wordpools/wasnorm_wordpool_576.txt	LTP317	ltpFR2	0	20	SCOTCH	1251	n/a	n/a	0	0	0
4215393	WORD	wordpools/wasnorm_wordpool_576.txt	LTP317	ltpFR2	0	20	PEPPER	1047	n/a	n/a	0	0	0
4218010	WORD	wordpools/wasnorm_wordpool_576.txt	LTP317	ltpFR2	0	20	NEUTRON	947	n/a	n/a	0	0	0
4219619	START	n/a	LTP317	ltpFR2	0	n/a	n/a	n/a	31	n/a	n/a	n/a	n/a
4220813	DISTRACTOR	n/a	LTP317	ltpFR2	0	20	n/a	n/a	n/a	n/a	0	0	0
4220818	PROB	n/a	LTP317	ltpFR2	0	n/a	n/a	n/a	31	16	9	4	3
4225490	PROB	n/a	LTP317	ltpFR2	0	n/a	n/a	n/a	31	5	3	1	1
4227357	PROB	n/a	LTP317	ltpFR2	0	n/a	n/a	n/a	31	11	1	7	2
4228873	PROB	n/a	LTP317	ltpFR2	0	n/a	n/a	n/a	31	21	6	8	7
4233062	PROB	n/a	LTP317	ltpFR2	0	n/a	n/a	n/a	31	17	4	5	8
4235059	PROB	n/a	LTP317	ltpFR2	0	n/a	n/a	n/a	31	13	8	3	1
4237660	PROB	n/a	LTP317	ltpFR2	0	n/a	n/a	n/a	31	19	9	8	2
4239767	PROB	n/a	LTP317	ltpFR2	0	n/a	n/a	n/a	31	16	5	4	7
4242194	STOP	n/a	LTP317	ltpFR2	0	n/a	n/a	n/a	31	n/a	n/a	n/a	n/a
4245490	REC_START	n/a	LTP317	ltpFR2	0	20	n/a	n/a	n/a	n/a	0	0	0
4247723	REC_WORD	wordpools/wasnorm_wordpool_576.txt	LTP317	ltpFR2	0	20	PROTON	1132	n/a	n/a	0	0	0
4248811	REC_WORD	wordpools/wasnorm_wordpool_576.txt	LTP317	ltpFR2	0	20	NEUTRON	947	n/a	n/a	0	0	0
4250318	REC_WORD	wordpools/wasnorm_wordpool_576.txt	LTP317	ltpFR2	0	20	STUDENT	1395	n/a	n/a	0	0	0
4251318	REC_WORD_VV	wordpools/wasnorm_wordpool_576.txt	LTP317	ltpFR2	0	20	<>	-1	n/a	n/a	0	0	0
4252716	REC_WORD	wordpools/wasnorm_wordpool_576.txt	LTP317	ltpFR2	0	20	LUNCH	849	n/a	n/a	0	0	0
4255349	REC_WORD	wordpools/wasnorm_wordpool_576.txt	LTP317	ltpFR2	0	20	EYELASH	546	n/a	n/a	0	0	0
4297312	REC_WORD	wordpools/wasnorm_wordpool_576.txt	LTP317	ltpFR2	0	20	MISSILE	900	n/a	n/a	0	0	0
4305027	REC_WORD	wordpools/wasnorm_wordpool_576.txt	LTP317	ltpFR2	0	20	SCOTCH	1251	n/a	n/a	0	0	0
4335960	WORD	wordpools/wasnorm_wordpool_576.txt	LTP317	ltpFR2	0	21	PEACH	1031	n/a	n/a	0	0	0
4338430	WORD	wordpools/wasnorm_wordpool_576.txt	LTP317	ltpFR2	0	21	DONKEY	484	n/a	n/a	0	0	0
4341183	WORD	wordpools/wasnorm_wordpool_576.txt	LTP317	ltpFR2	0	21	DOUGHNUT	490	n/a	n/a	0	0	0
4343801	WORD	wordpools/wasnorm_wordpool_576.txt	LTP317	ltpFR2	0	21	SUITCASE	1403	n/a	n/a	0	0	0
4346585	WORD	wordpools/wasnorm_wordpool_576.txt	LTP317	ltpFR2	0	21	ROBOT	1200	n/a	n/a	0	0	0
4349205	WORD	wordpools/wasnorm_wordpool_576.txt	LTP317	ltpFR2	0	21	LION	827	n/a	n/a	0	0	0
4351877	WORD	wordpools/wasnorm_wordpool_576.txt	LTP317	ltpFR2	0	21	TOURIST	1488	n/a	n/a	0	0	0
4354392	WORD	wordpools/wasnorm_wordpool_576.txt	LTP317	ltpFR2	0	21	LUMBER	848	n/a	n/a	0	0	0
4356894	WORD	wordpools/wasnorm_wordpool_576.txt	LTP317	ltpFR2	0	21	APPLE	33	n/a	n/a	0	0	0
4359713	WORD	wordpools/wasnorm_wordpool_576.txt	LTP317	ltpFR2	0	21	SPACE	1345	n/a	n/a	0	0	0
4362233	WORD	wordpools/wasnorm_wordpool_576.txt	LTP317	ltpFR2	0	21	LEADER	807	n/a	n/a	0	0	0
4365001	WORD	wordpools/wasnorm_wordpool_576.txt	LTP317	ltpFR2	0	21	ROBBER	1197	n/a	n/a	0	0	0
4367453	WORD	wordpools/wasnorm_wordpool_576.txt	LTP317	ltpFR2	0	21	TURNIP	1521	n/a	n/a	0	0	0
4370072	WORD	wordpools/wasnorm_wordpool_576.txt	LTP317	ltpFR2	0	21	OYSTER	995	n/a	n/a	0	0	0
4372496	WORD	wordpools/wasnorm_wordpool_576.txt	LTP317	ltpFR2	0	21	RATTLE	1170	n/a	n/a	0	0	0
4375160	WORD	wordpools/wasnorm_wordpool_576.txt	LTP317	ltpFR2	0	21	CARRIAGE	248	n/a	n/a	0	0	0
4377717	WORD	wordpools/wasnorm_wordpool_576.txt	LTP317	ltpFR2	0	21	SHOVEL	1295	n/a	n/a	0	0	0
4380186	WORD	wordpools/wasnorm_wordpool_576.txt	LTP317	ltpFR2	0	21	STONE	1385	n/a	n/a	0	0	0
4382864	WORD	wordpools/wasnorm_wordpool_576.txt	LTP317	ltpFR2	0	21	SISTER	1312	n/a	n/a	0	0	0
4385284	WORD	wordpools/wasnorm_wordpool_576.txt	LTP317	ltpFR2	0	21	SPARROW	1347	n/a	n/a	0	0	0
4387819	WORD	wordpools/wasnorm_wordpool_576.txt	LTP317	ltpFR2	0	21	DORM	488	n/a	n/a	0	0	0
4390587	WORD	wordpools/wasnorm_wordpool_576.txt	LTP317	ltpFR2	0	21	RELISH	1183	n/a	n/a	0	0	0
4393230	WORD	wordpools/wasnorm_wordpool_576.txt	LTP317	ltpFR2	0	21	GAVEL	627	n/a	n/a	0	0	0
4395799	WORD	wordpools/wasnorm_wordpool_576.txt	LTP317	ltpFR2	0	21	JURY	766	n/a	n/a	0	0	0
4397412	START	n/a	LTP317	ltpFR2	0	n/a	n/a	n/a	32	n/a	n/a	n/a	n/a
4398599	DISTRACTOR	n/a	LTP317	ltpFR2	0	21	n/a	n/a	n/a	n/a	0	0	0
4398611	PROB	n/a	LTP317	ltpFR2	0	n/a	n/a	n/a	32	11	2	6	3
4403164	PROB	n/a	LTP317	ltpFR2	0	n/a	n/a	n/a	32	11	2	6	3
4406967	PROB	n/a	LTP317	ltpFR2	0	n/a	n/a	n/a	32	13	4	2	5
4409171	PROB	n/a	LTP317	ltpFR2	0	n/a	n/a	n/a	32	17	7	4	6
4413572	PROB	n/a	LTP317	ltpFR2	0	n/a	n/a	n/a	32	13	3	3	7
4416091	PROB	n/a	LTP317	ltpFR2	0	n/a	n/a	n/a	32	26	9	8	9
4421129	STOP	n/a	LTP317	ltpFR2	0	n/a	n/a	n/a	32	n/a	n/a	n/a	n/a
4423216	REC_START	n/a	LTP317	ltpFR2	0	21	n/a	n/a	n/a	n/a	0	0	0
4424603	REC_WORD	wordpools/wasnorm_wordpool_576.txt	LTP317	ltpFR2	0	21	JURY	766	n/a	n/a	0	0	0
4425640	REC_WORD	wordpools/wasnorm_wordpool_576.txt	LTP317	ltpFR2	0	21	GAVEL	627	n/a	n/a	0	0	0
4437853	REC_WORD	wordpools/wasnorm_wordpool_576.txt	LTP317	ltpFR2	0	21	SPARROW	1347	n/a	n/a	0	0	0
4438853	REC_WORD_VV	wordpools/wasnorm_wordpool_576.txt	LTP317	ltpFR2	0	21	<>	-1	n/a	n/a	0	0	0
4441660	REC_WORD	wordpools/wasnorm_wordpool_576.txt	LTP317	ltpFR2	0	21	SISTER	1312	n/a	n/a	0	0	0
4454821	REC_WORD	wordpools/wasnorm_wordpool_576.txt	LTP317	ltpFR2	0	21	DONUT	-1	n/a	n/a	0	0	0
4513668	DISTRACTOR	n/a	LTP317	ltpFR2	0	22	n/a	n/a	n/a	n/a	0	0	0
4513669	START	n/a	LTP317	ltpFR2	0	n/a	n/a	n/a	33	n/a	n/a	n/a	n/a
4513687	PROB	n/a	LTP317	ltpFR2	0	n/a	n/a	n/a	33	18	3	6	9
4517340	PROB	n/a	LTP317	ltpFR2	0	n/a	n/a	n/a	33	18	9	5	4
4520243	PROB	n/a	LTP317	ltpFR2	0	n/a	n/a	n/a	33	17	9	7	1
4522777	PROB	n/a	LTP317	ltpFR2	0	n/a	n/a	n/a	33	14	7	3	4
4524711	PROB	n/a	LTP317	ltpFR2	0	n/a	n/a	n/a	33	15	2	5	8
4526447	PROB	n/a	LTP317	ltpFR2	0	n/a	n/a	n/a	33	16	8	4	4
4530249	PROB	n/a	LTP317	ltpFR2	0	n/a	n/a	n/a	33	17	9	7	1
4532652	PROB	n/a	LTP317	ltpFR2	0	n/a	n/a	n/a	33	1	2	5	5
4537669	STOP	n/a	LTP317	ltpFR2	0	n/a	n/a	n/a	33	n/a	n/a	n/a	n/a
4538623	WORD	wordpools/wasnorm_wordpool_576.txt	LTP317	ltpFR2	0	22	RAZOR	1171	n/a	n/a	0	0	0
4541093	WORD	wordpools/wasnorm_wordpool_576.txt	LTP317	ltpFR2	0	22	ACTRESS	6	n/a	n/a	0	0	0
4543560	WORD	wordpools/wasnorm_wordpool_576.txt	LTP317	ltpFR2	0	22	AGENT	10	n/a	n/a	0	0	0
4546213	WORD	wordpools/wasnorm_wordpool_576.txt	LTP317	ltpFR2	0	22	MOP	916	n/a	n/a	0	0	0
4548731	WORD	wordpools/wasnorm_wordpool_576.txt	LTP317	ltpFR2	0	22	HARP	689	n/a	n/a	0	0	0
4551368	WORD	wordpools/wasnorm_wordpool_576.txt	LTP317	ltpFR2	0	22	ONION	977	n/a	n/a	0	0	0
4553918	WORD	wordpools/wasnorm_wordpool_576.txt	LTP317	ltpFR2	0	22	EGYPT	519	n/a	n/a	0	0	0
4556720	WORD	wordpools/wasnorm_wordpool_576.txt	LTP317	ltpFR2	0	22	PRIMATE	1123	n/a	n/a	0	0	0
4559223	WORD	wordpools/wasnorm_wordpool_576.txt	LTP317	ltpFR2	0	22	FRECKLE	602	n/a	n/a	0	0	0
4561859	WORD	wordpools/wasnorm_wordpool_576.txt	LTP317	ltpFR2	0	22	TAXI	1438	n/a	n/a	0	0	0
4564428	WORD	wordpools/wasnorm_wordpool_576.txt	LTP317	ltpFR2	0	22	TILE	1468	n/a	n/a	0	0	0
4567199	WORD	wordpools/wasnorm_wordpool_576.txt	LTP317	ltpFR2	0	22	MOTOR	922	n/a	n/a	0	0	0
4569933	WORD	wordpools/wasnorm_wordpool_576.txt	LTP317	ltpFR2	0	22	STICKER	1382	n/a	n/a	0	0	0
4572418	WORD	wordpools/wasnorm_wordpool_576.txt	LTP317	ltpFR2	0	22	BASEMENT	94	n/a	n/a	0	0	0
4575071	WORD	wordpools/wasnorm_wordpool_576.txt	LTP317	ltpFR2	0	22	RUG	1215	n/a	n/a	0	0	0
4577587	WORD	wordpools/wasnorm_wordpool_576.txt	LTP317	ltpFR2	0	22	SCALPEL	1243	n/a	n/a	0	0	0
4580040	WORD	wordpools/wasnorm_wordpool_576.txt	LTP317	ltpFR2	0	22	TURKEY	1520	n/a	n/a	0	0	0
4582708	WORD	wordpools/wasnorm_wordpool_576.txt	LTP317	ltpFR2	0	22	SMOG	1330	n/a	n/a	0	0	0
4585294	WORD	wordpools/wasnorm_wordpool_576.txt	LTP317	ltpFR2	0	22	GRAPE	654	n/a	n/a	0	0	0
4587949	WORD	wordpools/wasnorm_wordpool_576.txt	LTP317	ltpFR2	0	22	CHAMPAGNE	278	n/a	n/a	0	0	0
4590584	WORD	wordpools/wasnorm_wordpool_576.txt	LTP317	ltpFR2	0	22	MUMMY	932	n/a	n/a	0	0	0
4593338	WORD	wordpools/wasnorm_wordpool_576.txt	LTP317	ltpFR2	0	22	LAPEL	800	n/a	n/a	0	0	0
4596120	WORD	wordpools/wasnorm_wordpool_576.txt	LTP317	ltpFR2	0	22	ARM	38	n/a	n/a	0	0	0
4598821	WORD	wordpools/wasnorm_wordpool_576.txt	LTP317	ltpFR2	0	22	SHOULDER	1294	n/a	n/a	0	0	0
4600428	START	n/a	LTP317	ltpFR2	0	n/a	n/a	n/a	34	n/a	n/a	n/a	n/a
4601526	DISTRACTOR	n/a	LTP317	ltpFR2	0	22	n/a	n/a	n/a	n/a	0	0	0
4601541	PROB	n/a	LTP317	ltpFR2	0	n/a	n/a	n/a	34	10	6	1	3
4605378	PROB	n/a	LTP317	ltpFR2	0	n/a	n/a	n/a	34	13	1	5	7
4607162	PROB	n/a	LTP317	ltpFR2	0	n/a	n/a	n/a	34	4	1	1	2
4608579	PROB	n/a	LTP317	ltpFR2	0	n/a	n/a	n/a	34	10	4	1	5
4611548	PROB	n/a	LTP317	ltpFR2	0	n/a	n/a	n/a	34	9	4	1	4
4614649	PROB	n/a	LTP317	ltpFR2	0	n/a	n/a	n/a	34	13	1	8	4
4616618	PROB	n/a	LTP317	ltpFR2	0	n/a	n/a	n/a	34	17	8	8	3
4618455	PROB	n/a	LTP317	ltpFR2	0	n/a	n/a	n/a	34	14	4	8	2
4621205	PROB	n/a	LTP317	ltpFR2	0	n/a	n/a	n/a	34	9	3	1	5
4624428	STOP	n/a	LTP317	ltpFR2	0	n/a	n/a	n/a	34	n/a	n/a	n/a	n/a
4626177	REC_START	n/a	LTP317	ltpFR2	0	22	n/a	n/a	n/a	n/a	0	0	0
4628273	REC_WORD	wordpools/wasnorm_wordpool_576.txt	LTP317	ltpFR2	0	22	SCALPEL	1243	n/a	n/a	0	0	0
4629986	REC_WORD	wordpools/wasnorm_wordpool_576.txt	LTP317	ltpFR2	0	22	TURKEY	1520	n/a	n/a	0	0	0
4635861	REC_WORD	wordpools/wasnorm_wordpool_576.txt	LTP317	ltpFR2	0	22	GRAPE	654	n/a	n/a	0	0	0
4637138	REC_WORD	wordpools/wasnorm_wordpool_576.txt	LTP317	ltpFR2	0	22	LAPEL	800	n/a	n/a	0	0	0
4639347	REC_WORD	wordpools/wasnorm_wordpool_576.txt	LTP317	ltpFR2	0	22	CHAMPAGNE	278	n/a	n/a	0	0	0
4647473	REC_WORD	wordpools/wasnorm_wordpool_576.txt	LTP317	ltpFR2	0	22	SMOG	1330	n/a	n/a	0	0	0
4716612	WORD	wordpools/wasnorm_wordpool_576.txt	LTP317	ltpFR2	0	23	HEDGE	699	n/a	n/a	0	0	0
4719298	WORD	wordpools/wasnorm_wordpool_576.txt	LTP317	ltpFR2	0	23	TOASTER	1472	n/a	n/a	0	0	0
4721882	WORD	wordpools/wasnorm_wordpool_576.txt	LTP317	ltpFR2	0	23	ROCKET	1202	n/a	n/a	0	0	0
4724656	WORD	wordpools/wasnorm_wordpool_576.txt	LTP317	ltpFR2	0	23	WOMAN	1620	n/a	n/a	0	0	0
4727205	WORD	wordpools/wasnorm_wordpool_576.txt	LTP317	ltpFR2	0	23	ZEBRA	1635	n/a	n/a	0	0	0
4729824	WORD	wordpools/wasnorm_wordpool_576.txt	LTP317	ltpFR2	0	23	SCALLOP	1242	n/a	n/a	0	0	0
4732492	WORD	wordpools/wasnorm_wordpool_576.txt	LTP317	ltpFR2	0	23	VALLEY	1545	n/a	n/a	0	0	0
4735179	WORD	wordpools/wasnorm_wordpool_576.txt	LTP317	ltpFR2	0	23	CLIMBER	323	n/a	n/a	0	0	0
4737897	WORD	wordpools/wasnorm_wordpool_576.txt	LTP317	ltpFR2	0	23	PEANUT	1032	n/a	n/a	0	0	0
4740383	WORD	wordpools/wasnorm_wordpool_576.txt	LTP317	ltpFR2	0	23	DRINK	498	n/a	n/a	0	0	0
4742853	WORD	wordpools/wasnorm_wordpool_576.txt	LTP317	ltpFR2	0	23	TRUCK	1512	n/a	n/a	0	0	0
4745421	WORD	wordpools/wasnorm_wordpool_576.txt	LTP317	ltpFR2	0	23	SOFTBALL	1343	n/a	n/a	0	0	0
4747989	WORD	wordpools/wasnorm_wordpool_576.txt	LTP317	ltpFR2	0	23	LIGHTNING	820	n/a	n/a	0	0	0
4750708	WORD	wordpools/wasnorm_wordpool_576.txt	LTP317	ltpFR2	0	23	PISTON	1076	n/a	n/a	0	0	0
4753495	WORD	wordpools/wasnorm_wordpool_576.txt	LTP317	ltpFR2	0	23	BUNNY	198	n/a	n/a	0	0	0
4756297	WORD	wordpools/wasnorm_wordpool_576.txt	LTP317	ltpFR2	0	23	LETTUCE	814	n/a	n/a	0	0	0
4758915	WORD	wordpools/wasnorm_wordpool_576.txt	LTP317	ltpFR2	0	23	GRAVEL	659	n/a	n/a	0	0	0
4761334	WORD	wordpools/wasnorm_wordpool_576.txt	LTP317	ltpFR2	0	23	PAPER	1011	n/a	n/a	0	0	0
4763937	WORD	wordpools/wasnorm_wordpool_576.txt	LTP317	ltpFR2	0	23	TROMBONE	1508	n/a	n/a	0	0	0
4766706	WORD	wordpools/wasnorm_wordpool_576.txt	LTP317	ltpFR2	0	23	JUNGLE	764	n/a	n/a	0	0	0
4769158	WORD	wordpools/wasnorm_wordpool_576.txt	LTP317	ltpFR2	0	23	TABLET	1427	n/a	n/a	0	0	0
4771642	WORD	wordpools/wasnorm_wordpool_576.txt	LTP317	ltpFR2	0	23	SERVANT	1271	n/a	n/a	0	0	0
4774079	WORD	wordpools/wasnorm_wordpool_576.txt	LTP317	ltpFR2	0	23	WAITRESS	1581	n/a	n/a	0	0	0
4776714	WORD	wordpools/wasnorm_wordpool_576.txt	LTP317	ltpFR2	0	23	TRIBE	1505	n/a	n/a	0	0	0
4778333	START	n/a	LTP317	ltpFR2	0	n/a	n/a	n/a	35	n/a	n/a	n/a	n/a
4779524	DISTRACTOR	n/a	LTP317	ltpFR2	0	23	n/a	n/a	n/a	n/a	0	0	0
4779534	PROB	n/a	LTP317	ltpFR2	0	n/a	n/a	n/a	35	11	3	6	2
4784936	PROB	n/a	LTP317	ltpFR2	0	n/a	n/a	n/a	35	23	9	5	9
4788557	PROB	n/a	LTP317	ltpFR2	0	n/a	n/a	n/a	35	17	8	2	7
4790175	PROB	n/a	LTP317	ltpFR2	0	n/a	n/a	n/a	35	18	7	9	2
4793593	PROB	n/a	LTP317	ltpFR2	0	n/a	n/a	n/a	35	13	5	5	3
4795380	PROB	n/a	LTP317	ltpFR2	0	n/a	n/a	n/a	35	16	4	2	7
4797730	PROB	n/a	LTP317	ltpFR2	0	n/a	n/a	n/a	35	8	3	2	3
4802332	STOP	n/a	LTP317	ltpFR2	0	n/a	n/a	n/a	35	n/a	n/a	n/a	n/a
4804220	REC_START	n/a	LTP317	ltpFR2	0	23	n/a	n/a	n/a	n/a	0	0	0
4807817	REC_WORD	wordpools/wasnorm_wordpool_576.txt	LTP317	ltpFR2	0	23	GRAVEL	659	n/a	n/a	0	0	0
4808817	REC_WORD_VV	wordpools/wasnorm_wordpool_576.txt	LTP317	ltpFR2	0	23	<>	-1	n/a	n/a	0	0	0
4819972	REC_WORD	wordpools/wasnorm_wordpool_576.txt	LTP317	ltpFR2	0	23	SCALLOP	1242	n/a	n/a	0	0	0
4894657	WORD	wordpools/wasnorm_wordpool_576.txt	LTP317	ltpFR2	0	24	DASHBOARD	441	n/a	n/a	0	0	0
4897237	WORD	wordpools/wasnorm_wordpool_576.txt	LTP317	ltpFR2	0	24	BODY	145	n/a	n/a	0	0	0
4899830	WORD	wordpools/wasnorm_wordpool_576.txt	LTP317	ltpFR2	0	24	SEAL	1262	n/a	n/a	0	0	0
4902450	WORD	wordpools/wasnorm_wordpool_576.txt	LTP317	ltpFR2	0	24	REBEL	1172	n/a	n/a	0	0	0
4905033	WORD	wordpools/wasnorm_wordpool_576.txt	LTP317	ltpFR2	0	24	YOLK	1633	n/a	n/a	0	0	0
4907486	WORD	wordpools/wasnorm_wordpool_576.txt	LTP317	ltpFR2	0	24	BACON	67	n/a	n/a	0	0	0
4910055	WORD	wordpools/wasnorm_wordpool_576.txt	LTP317	ltpFR2	0	24	LASER	801	n/a	n/a	0	0	0
4912699	WORD	wordpools/wasnorm_wordpool_576.txt	LTP317	ltpFR2	0	24	RACKET	1155	n/a	n/a	0	0	0
4915326	WORD	wordpools/wasnorm_wordpool_576.txt	LTP317	ltpFR2	0	24	POSSUM	1112	n/a	n/a	0	0	0
4917970	WORD	wordpools/wasnorm_wordpool_576.txt	LTP317	ltpFR2	0	24	CUSTARD	429	n/a	n/a	0	0	0
4920474	WORD	wordpools/wasnorm_wordpool_576.txt	LTP317	ltpFR2	0	24	LAMP	798	n/a	n/a	0	0	0
4923166	WORD	wordpools/wasnorm_wordpool_576.txt	LTP317	ltpFR2	0	24	BACKBONE	66	n/a	n/a	0	0	0
4925844	WORD	wordpools/wasnorm_wordpool_576.txt	LTP317	ltpFR2	0	24	BANK	83	n/a	n/a	0	0	0
4928286	WORD	wordpools/wasnorm_wordpool_576.txt	LTP317	ltpFR2	0	24	CASHIER	254	n/a	n/a	0	0	0
4931049	WORD	wordpools/wasnorm_wordpool_576.txt	LTP317	ltpFR2	0	24	SAUSAGE	1238	n/a	n/a	0	0	0
4933723	WORD	wordpools/wasnorm_wordpool_576.txt	LTP317	ltpFR2	0	24	BEEF	113	n/a	n/a	0	0	0
4936377	WORD	wordpools/wasnorm_wordpool_576.txt	LTP317	ltpFR2	0	24	BARREL	91	n/a	n/a	0	0	0
4939179	WORD	wordpools/wasnorm_wordpool_576.txt	LTP317	ltpFR2	0	24	LOFT	840	n/a	n/a	0	0	0
4941746	WORD	wordpools/wasnorm_wordpool_576.txt	LTP317	ltpFR2	0	24	UMPIRE	1535	n/a	n/a	0	0	0
4944344	WORD	wordpools/wasnorm_wordpool_576.txt	LTP317	ltpFR2	0	24	CRICKET	408	n/a	n/a	0	0	0
4947029	WORD	wordpools/wasnorm_wordpool_576.txt	LTP317	ltpFR2	0	24	COURSE	390	n/a	n/a	0	0	0
4949503	WORD	wordpools/wasnorm_wordpool_576.txt	LTP317	ltpFR2	0	24	TEACHER	1440	n/a	n/a	0	0	0
4952318	WORD	wordpools/wasnorm_wordpool_576.txt	LTP317	ltpFR2	0	24	POSTAGE	1113	n/a	n/a	0	0	0
4954769	WORD	wordpools/wasnorm_wordpool_576.txt	LTP317	ltpFR2	0	24	FLASHLIGHT	575	n/a	n/a	0	0	0
4956377	START	n/a	LTP317	ltpFR2	0	n/a	n/a	n/a	36	n/a	n/a	n/a	n/a
4957395	DISTRACTOR	n/a	LTP317	ltpFR2	0	24	n/a	n/a	n/a	n/a	0	0	0
4957406	PROB	n/a	LTP317	ltpFR2	0	n/a	n/a	n/a	36	17	6	5	7
4965082	PROB	n/a	LTP317	ltpFR2	0	n/a	n/a	n/a	36	23	7	9	7
4967962	PROB	n/a	LTP317	ltpFR2	0	n/a	n/a	n/a	36	19	7	3	9
4969798	PROB	n/a	LTP317	ltpFR2	0	n/a	n/a	n/a	36	17	3	7	7
4973068	PROB	n/a	LTP317	ltpFR2	0	n/a	n/a	n/a	36	16	3	9	4
4975137	PROB	n/a	LTP317	ltpFR2	0	n/a	n/a	n/a	36	11	1	1	9
4977605	PROB	n/a	LTP317	ltpFR2	0	n/a	n/a	n/a	36	16	2	7	7
4979199	STOP	n/a	LTP317	ltpFR2	0	n/a	n/a	n/a	36	n/a	n/a	n/a	n/a
4982129	REC_START	n/a	LTP317	ltpFR2	0	24	n/a	n/a	n/a	n/a	0	0	0
4983381	REC_WORD	wordpools/wasnorm_wordpool_576.txt	LTP317	ltpFR2	0	24	TEACHER	1440	n/a	n/a	0	0	0
4984114	REC_WORD	wordpools/wasnorm_wordpool_576.txt	LTP317	ltpFR2	0	24	COURSE	390	n/a	n/a	0	0	0
4984980	REC_WORD	wordpools/wasnorm_wordpool_576.txt	LTP317	ltpFR2	0	24	BEEF	113	n/a	n/a	0	0	0
4990648	REC_WORD	wordpools/wasnorm_wordpool_576.txt	LTP317	ltpFR2	0	24	BARREL	91	n/a	n/a	0	0	0
4992542	REC_WORD	wordpools/wasnorm_wordpool_576.txt	LTP317	ltpFR2	0	24	BANK	83	n/a	n/a	0	0	0
4995039	REC_WORD	wordpools/wasnorm_wordpool_576.txt	LTP317	ltpFR2	0	24	BLACKBOARD	133	n/a	n/a	0	0	0
5000340	REC_WORD	wordpools/wasnorm_wordpool_576.txt	LTP317	ltpFR2	0	24	BODY	145	n/a	n/a	0	0	0
5071473	SESS_END	n/a	LTP317	ltpFR2	0	24	n/a	n/a	n/a	n/a	0	0	0
