mstime	trial_type	stim_file	subject	experiment	session	trial	item_name	item_num	list	answer	test_x	test_y	test_z
0	SESS_START	n/a	LTP251	ltpFR2	1	n/a	n/a	n/a	n/a	n/a	0	0	0
22804	START	n/a	LTP251	ltpFR2	1	n/a	n/a	n/a	-1	n/a	n/a	n/a	n/a
22850	PROB	n/a	LTP251	ltpFR2	1	n/a	n/a	n/a	-1	6	2	2	1
25187	PROB	n/a	LTP251	ltpFR2	1	n/a	n/a	n/a	-1	4	1	2	1
27121	PROB	n/a	LTP251	ltpFR2	1	n/a	n/a	n/a	-1	10	4	3	3
28824	PROB	n/a	LTP251	ltpFR2	1	n/a	n/a	n/a	-1	16	7	2	7
30590	PROB	n/a	LTP251	ltpFR2	1	n/a	n/a	n/a	-1	16	8	2	6
31977	PROB	n/a	LTP251	ltpFR2	1	n/a	n/a	n/a	-1	15	3	6	7
33858	STOP	n/a	LTP251	ltpFR2	1	n/a	n/a	n/a	-1	n/a	n/a	n/a	n/a
70305	WORD	wordpools/wasnorm_wordpool_576.txt	LTP251	ltpFR2	1	1	BATHTUB	100	n/a	n/a	0	0	0
73109	WORD	wordpools/wasnorm_wordpool_576.txt	LTP251	ltpFR2	1	1	TWIG	1527	n/a	n/a	0	0	0
75599	WORD	wordpools/wasnorm_wordpool_576.txt	LTP251	ltpFR2	1	1	ROBOT	1200	n/a	n/a	0	0	0
78362	WORD	wordpools/wasnorm_wordpool_576.txt	LTP251	ltpFR2	1	1	BLACKBOARD	133	n/a	n/a	0	0	0
81047	WORD	wordpools/wasnorm_wordpool_576.txt	LTP251	ltpFR2	1	1	BUGGY	188	n/a	n/a	0	0	0
83550	WORD	wordpools/wasnorm_wordpool_576.txt	LTP251	ltpFR2	1	1	SPIDER	1351	n/a	n/a	0	0	0
86225	WORD	wordpools/wasnorm_wordpool_576.txt	LTP251	ltpFR2	1	1	SURVEY	1414	n/a	n/a	0	0	0
88836	WORD	wordpools/wasnorm_wordpool_576.txt	LTP251	ltpFR2	1	1	FRAGRANCE	599	n/a	n/a	0	0	0
91346	WORD	wordpools/wasnorm_wordpool_576.txt	LTP251	ltpFR2	1	1	CITRUS	313	n/a	n/a	0	0	0
94024	WORD	wordpools/wasnorm_wordpool_576.txt	LTP251	ltpFR2	1	1	SHORTCAKE	1292	n/a	n/a	0	0	0
96626	WORD	wordpools/wasnorm_wordpool_576.txt	LTP251	ltpFR2	1	1	PLAID	1080	n/a	n/a	0	0	0
99362	WORD	wordpools/wasnorm_wordpool_576.txt	LTP251	ltpFR2	1	1	WASHER	1592	n/a	n/a	0	0	0
101922	WORD	wordpools/wasnorm_wordpool_576.txt	LTP251	ltpFR2	1	1	PECAN	1036	n/a	n/a	0	0	0
104716	WORD	wordpools/wasnorm_wordpool_576.txt	LTP251	ltpFR2	1	1	SPONGE	1355	n/a	n/a	0	0	0
107226	WORD	wordpools/wasnorm_wordpool_576.txt	LTP251	ltpFR2	1	1	SUITCASE	1403	n/a	n/a	0	0	0
109737	WORD	wordpools/wasnorm_wordpool_576.txt	LTP251	ltpFR2	1	1	LUGGAGE	847	n/a	n/a	0	0	0
112248	WORD	wordpools/wasnorm_wordpool_576.txt	LTP251	ltpFR2	1	1	MAILMAN	858	n/a	n/a	0	0	0
115025	WORD	wordpools/wasnorm_wordpool_576.txt	LTP251	ltpFR2	1	1	OFFICE	972	n/a	n/a	0	0	0
117560	WORD	wordpools/wasnorm_wordpool_576.txt	LTP251	ltpFR2	1	1	EMPIRE	530	n/a	n/a	0	0	0
120122	WORD	wordpools/wasnorm_wordpool_576.txt	LTP251	ltpFR2	1	1	WASP	1593	n/a	n/a	0	0	0
122798	WORD	wordpools/wasnorm_wordpool_576.txt	LTP251	ltpFR2	1	1	FINGER	567	n/a	n/a	0	0	0
125500	WORD	wordpools/wasnorm_wordpool_576.txt	LTP251	ltpFR2	1	1	MONEY	908	n/a	n/a	0	0	0
128167	WORD	wordpools/wasnorm_wordpool_576.txt	LTP251	ltpFR2	1	1	PIANO	1057	n/a	n/a	0	0	0
130914	WORD	wordpools/wasnorm_wordpool_576.txt	LTP251	ltpFR2	1	1	TORTOISE	1486	n/a	n/a	0	0	0
132549	START	n/a	LTP251	ltpFR2	1	n/a	n/a	n/a	1	n/a	n/a	n/a	n/a
133683	DISTRACTOR	n/a	LTP251	ltpFR2	1	1	n/a	n/a	n/a	n/a	0	0	0
133717	PROB	n/a	LTP251	ltpFR2	1	n/a	n/a	n/a	1	11	3	2	6
136008	PROB	n/a	LTP251	ltpFR2	1	n/a	n/a	n/a	1	7	1	3	3
138088	PROB	n/a	LTP251	ltpFR2	1	n/a	n/a	n/a	1	13	2	8	3
139443	PROB	n/a	LTP251	ltpFR2	1	n/a	n/a	n/a	1	19	2	8	9
141295	PROB	n/a	LTP251	ltpFR2	1	n/a	n/a	n/a	1	17	8	7	2
143591	PROB	n/a	LTP251	ltpFR2	1	n/a	n/a	n/a	1	23	9	5	9
147600	PROB	n/a	LTP251	ltpFR2	1	n/a	n/a	n/a	1	16	6	3	7
150203	PROB	n/a	LTP251	ltpFR2	1	n/a	n/a	n/a	1	18	9	4	5
152654	PROB	n/a	LTP251	ltpFR2	1	n/a	n/a	n/a	1	12	2	8	2
153984	PROB	n/a	LTP251	ltpFR2	1	n/a	n/a	n/a	1	14	7	1	6
156080	STOP	n/a	LTP251	ltpFR2	1	n/a	n/a	n/a	1	n/a	n/a	n/a	n/a
158500	REC_START	n/a	LTP251	ltpFR2	1	1	n/a	n/a	n/a	n/a	0	0	0
160788	REC_WORD	wordpools/wasnorm_wordpool_576.txt	LTP251	ltpFR2	1	1	SCHOOL	1248	n/a	n/a	0	0	0
162787	REC_WORD	wordpools/wasnorm_wordpool_576.txt	LTP251	ltpFR2	1	1	BATHTUB	100	n/a	n/a	0	0	0
164849	REC_WORD	wordpools/wasnorm_wordpool_576.txt	LTP251	ltpFR2	1	1	TWIG	1527	n/a	n/a	0	0	0
166631	REC_WORD	wordpools/wasnorm_wordpool_576.txt	LTP251	ltpFR2	1	1	WASHER	1592	n/a	n/a	0	0	0
168920	REC_WORD	wordpools/wasnorm_wordpool_576.txt	LTP251	ltpFR2	1	1	FINGER	567	n/a	n/a	0	0	0
171121	REC_WORD	wordpools/wasnorm_wordpool_576.txt	LTP251	ltpFR2	1	1	TORTOISE	1486	n/a	n/a	0	0	0
174519	REC_WORD	wordpools/wasnorm_wordpool_576.txt	LTP251	ltpFR2	1	1	PECAN	1036	n/a	n/a	0	0	0
176449	REC_WORD	wordpools/wasnorm_wordpool_576.txt	LTP251	ltpFR2	1	1	FRAGRANCE	599	n/a	n/a	0	0	0
178522	REC_WORD	wordpools/wasnorm_wordpool_576.txt	LTP251	ltpFR2	1	1	CITRUS	313	n/a	n/a	0	0	0
180726	REC_WORD	wordpools/wasnorm_wordpool_576.txt	LTP251	ltpFR2	1	1	EMPIRE	530	n/a	n/a	0	0	0
182821	REC_WORD	wordpools/wasnorm_wordpool_576.txt	LTP251	ltpFR2	1	1	MONEY	908	n/a	n/a	0	0	0
185107	REC_WORD	wordpools/wasnorm_wordpool_576.txt	LTP251	ltpFR2	1	1	PIANO	1057	n/a	n/a	0	0	0
188483	REC_WORD	wordpools/wasnorm_wordpool_576.txt	LTP251	ltpFR2	1	1	PLAID	1080	n/a	n/a	0	0	0
190798	REC_WORD	wordpools/wasnorm_wordpool_576.txt	LTP251	ltpFR2	1	1	SPONGE	1355	n/a	n/a	0	0	0
249399	WORD	wordpools/wasnorm_wordpool_576.txt	LTP251	ltpFR2	1	2	WARDROBE	1587	n/a	n/a	0	0	0
252103	WORD	wordpools/wasnorm_wordpool_576.txt	LTP251	ltpFR2	1	2	TYPIST	1532	n/a	n/a	0	0	0
254604	WORD	wordpools/wasnorm_wordpool_576.txt	LTP251	ltpFR2	1	2	QUARTER	1148	n/a	n/a	0	0	0
257273	WORD	wordpools/wasnorm_wordpool_576.txt	LTP251	ltpFR2	1	2	DRUG	501	n/a	n/a	0	0	0
260041	WORD	wordpools/wasnorm_wordpool_576.txt	LTP251	ltpFR2	1	2	BUNNY	198	n/a	n/a	0	0	0
262610	WORD	wordpools/wasnorm_wordpool_576.txt	LTP251	ltpFR2	1	2	ULCER	1533	n/a	n/a	0	0	0
265130	WORD	wordpools/wasnorm_wordpool_576.txt	LTP251	ltpFR2	1	2	BELLY	119	n/a	n/a	0	0	0
267897	WORD	wordpools/wasnorm_wordpool_576.txt	LTP251	ltpFR2	1	2	WAITER	1580	n/a	n/a	0	0	0
270369	WORD	wordpools/wasnorm_wordpool_576.txt	LTP251	ltpFR2	1	2	LAPEL	800	n/a	n/a	0	0	0
273136	WORD	wordpools/wasnorm_wordpool_576.txt	LTP251	ltpFR2	1	2	AWARD	63	n/a	n/a	0	0	0
275971	WORD	wordpools/wasnorm_wordpool_576.txt	LTP251	ltpFR2	1	2	MISSILE	900	n/a	n/a	0	0	0
278789	WORD	wordpools/wasnorm_wordpool_576.txt	LTP251	ltpFR2	1	2	SHOULDER	1294	n/a	n/a	0	0	0
281258	WORD	wordpools/wasnorm_wordpool_576.txt	LTP251	ltpFR2	1	2	HAWK	692	n/a	n/a	0	0	0
283810	WORD	wordpools/wasnorm_wordpool_576.txt	LTP251	ltpFR2	1	2	SEAFOOD	1260	n/a	n/a	0	0	0
286562	WORD	wordpools/wasnorm_wordpool_576.txt	LTP251	ltpFR2	1	2	COOKBOOK	373	n/a	n/a	0	0	0
289181	WORD	wordpools/wasnorm_wordpool_576.txt	LTP251	ltpFR2	1	2	BLENDER	136	n/a	n/a	0	0	0
291788	WORD	wordpools/wasnorm_wordpool_576.txt	LTP251	ltpFR2	1	2	HERO	706	n/a	n/a	0	0	0
294536	WORD	wordpools/wasnorm_wordpool_576.txt	LTP251	ltpFR2	1	2	SKIRT	1319	n/a	n/a	0	0	0
297009	WORD	wordpools/wasnorm_wordpool_576.txt	LTP251	ltpFR2	1	2	CREATURE	403	n/a	n/a	0	0	0
299840	WORD	wordpools/wasnorm_wordpool_576.txt	LTP251	ltpFR2	1	2	PASTRY	1022	n/a	n/a	0	0	0
302408	WORD	wordpools/wasnorm_wordpool_576.txt	LTP251	ltpFR2	1	2	WORLD	1622	n/a	n/a	0	0	0
305209	WORD	wordpools/wasnorm_wordpool_576.txt	LTP251	ltpFR2	1	2	ATLAS	53	n/a	n/a	0	0	0
307730	WORD	wordpools/wasnorm_wordpool_576.txt	LTP251	ltpFR2	1	2	CARROT	249	n/a	n/a	0	0	0
310298	WORD	wordpools/wasnorm_wordpool_576.txt	LTP251	ltpFR2	1	2	PACKAGE	997	n/a	n/a	0	0	0
311933	START	n/a	LTP251	ltpFR2	1	n/a	n/a	n/a	2	n/a	n/a	n/a	n/a
313031	DISTRACTOR	n/a	LTP251	ltpFR2	1	2	n/a	n/a	n/a	n/a	0	0	0
313068	PROB	n/a	LTP251	ltpFR2	1	n/a	n/a	n/a	2	16	6	3	7
316635	PROB	n/a	LTP251	ltpFR2	1	n/a	n/a	n/a	2	21	6	6	9
319922	PROB	n/a	LTP251	ltpFR2	1	n/a	n/a	n/a	2	16	7	7	2
321306	PROB	n/a	LTP251	ltpFR2	1	n/a	n/a	n/a	2	13	4	4	5
323458	PROB	n/a	LTP251	ltpFR2	1	n/a	n/a	n/a	2	18	8	9	1
325727	PROB	n/a	LTP251	ltpFR2	1	n/a	n/a	n/a	2	18	6	5	7
327379	PROB	n/a	LTP251	ltpFR2	1	n/a	n/a	n/a	2	14	4	5	5
329320	PROB	n/a	LTP251	ltpFR2	1	n/a	n/a	n/a	2	19	7	3	9
330664	PROB	n/a	LTP251	ltpFR2	1	n/a	n/a	n/a	2	17	8	7	2
332706	PROB	n/a	LTP251	ltpFR2	1	n/a	n/a	n/a	2	10	3	5	2
334202	PROB	n/a	LTP251	ltpFR2	1	n/a	n/a	n/a	2	15	7	4	4
335814	STOP	n/a	LTP251	ltpFR2	1	n/a	n/a	n/a	2	n/a	n/a	n/a	n/a
337948	REC_START	n/a	LTP251	ltpFR2	1	2	n/a	n/a	n/a	n/a	0	0	0
339479	REC_WORD	wordpools/wasnorm_wordpool_576.txt	LTP251	ltpFR2	1	2	WARDROBE	1587	n/a	n/a	0	0	0
341319	REC_WORD	wordpools/wasnorm_wordpool_576.txt	LTP251	ltpFR2	1	2	TYPIST	1532	n/a	n/a	0	0	0
344945	REC_WORD	wordpools/wasnorm_wordpool_576.txt	LTP251	ltpFR2	1	2	PACKAGE	997	n/a	n/a	0	0	0
346953	REC_WORD	wordpools/wasnorm_wordpool_576.txt	LTP251	ltpFR2	1	2	MISSILE	900	n/a	n/a	0	0	0
348902	REC_WORD	wordpools/wasnorm_wordpool_576.txt	LTP251	ltpFR2	1	2	AWARD	63	n/a	n/a	0	0	0
350619	REC_WORD	wordpools/wasnorm_wordpool_576.txt	LTP251	ltpFR2	1	2	HERO	706	n/a	n/a	0	0	0
352459	REC_WORD	wordpools/wasnorm_wordpool_576.txt	LTP251	ltpFR2	1	2	LAPEL	800	n/a	n/a	0	0	0
355439	REC_WORD	wordpools/wasnorm_wordpool_576.txt	LTP251	ltpFR2	1	2	WORLD	1622	n/a	n/a	0	0	0
357385	REC_WORD	wordpools/wasnorm_wordpool_576.txt	LTP251	ltpFR2	1	2	ATLAS	53	n/a	n/a	0	0	0
359684	REC_WORD	wordpools/wasnorm_wordpool_576.txt	LTP251	ltpFR2	1	2	SKIRT	1319	n/a	n/a	0	0	0
361885	REC_WORD	wordpools/wasnorm_wordpool_576.txt	LTP251	ltpFR2	1	2	CARROT	249	n/a	n/a	0	0	0
363626	REC_WORD	wordpools/wasnorm_wordpool_576.txt	LTP251	ltpFR2	1	2	PASTRY	1022	n/a	n/a	0	0	0
365670	REC_WORD	wordpools/wasnorm_wordpool_576.txt	LTP251	ltpFR2	1	2	COOKBOOK	373	n/a	n/a	0	0	0
367572	REC_WORD	wordpools/wasnorm_wordpool_576.txt	LTP251	ltpFR2	1	2	SHOULDER	1294	n/a	n/a	0	0	0
393376	REC_WORD	wordpools/wasnorm_wordpool_576.txt	LTP251	ltpFR2	1	2	DRUG	501	n/a	n/a	0	0	0
396137	REC_WORD	wordpools/wasnorm_wordpool_576.txt	LTP251	ltpFR2	1	2	BELLY	119	n/a	n/a	0	0	0
398501	REC_WORD	wordpools/wasnorm_wordpool_576.txt	LTP251	ltpFR2	1	2	ULCER	1533	n/a	n/a	0	0	0
428807	WORD	wordpools/wasnorm_wordpool_576.txt	LTP251	ltpFR2	1	3	BEAST	108	n/a	n/a	0	0	0
431509	WORD	wordpools/wasnorm_wordpool_576.txt	LTP251	ltpFR2	1	3	PRIMATE	1123	n/a	n/a	0	0	0
433995	WORD	wordpools/wasnorm_wordpool_576.txt	LTP251	ltpFR2	1	3	SHIRT	1287	n/a	n/a	0	0	0
436848	WORD	wordpools/wasnorm_wordpool_576.txt	LTP251	ltpFR2	1	3	TART	1436	n/a	n/a	0	0	0
439517	WORD	wordpools/wasnorm_wordpool_576.txt	LTP251	ltpFR2	1	3	SHORTS	1293	n/a	n/a	0	0	0
442189	WORD	wordpools/wasnorm_wordpool_576.txt	LTP251	ltpFR2	1	3	TUBA	1515	n/a	n/a	0	0	0
444988	WORD	wordpools/wasnorm_wordpool_576.txt	LTP251	ltpFR2	1	3	NOVEL	960	n/a	n/a	0	0	0
447507	WORD	wordpools/wasnorm_wordpool_576.txt	LTP251	ltpFR2	1	3	BREAST	171	n/a	n/a	0	0	0
450026	WORD	wordpools/wasnorm_wordpool_576.txt	LTP251	ltpFR2	1	3	CRIB	407	n/a	n/a	0	0	0
452745	WORD	wordpools/wasnorm_wordpool_576.txt	LTP251	ltpFR2	1	3	FLAG	573	n/a	n/a	0	0	0
455597	WORD	wordpools/wasnorm_wordpool_576.txt	LTP251	ltpFR2	1	3	BEAVER	109	n/a	n/a	0	0	0
458366	WORD	wordpools/wasnorm_wordpool_576.txt	LTP251	ltpFR2	1	3	RAZOR	1171	n/a	n/a	0	0	0
461219	WORD	wordpools/wasnorm_wordpool_576.txt	LTP251	ltpFR2	1	3	HEADBAND	696	n/a	n/a	0	0	0
464021	WORD	wordpools/wasnorm_wordpool_576.txt	LTP251	ltpFR2	1	3	PEBBLE	1035	n/a	n/a	0	0	0
466857	WORD	wordpools/wasnorm_wordpool_576.txt	LTP251	ltpFR2	1	3	CORAL	378	n/a	n/a	0	0	0
469409	WORD	wordpools/wasnorm_wordpool_576.txt	LTP251	ltpFR2	1	3	ROBBER	1197	n/a	n/a	0	0	0
472130	WORD	wordpools/wasnorm_wordpool_576.txt	LTP251	ltpFR2	1	3	NAPKIN	937	n/a	n/a	0	0	0
474864	WORD	wordpools/wasnorm_wordpool_576.txt	LTP251	ltpFR2	1	3	DENIM	446	n/a	n/a	0	0	0
477433	WORD	wordpools/wasnorm_wordpool_576.txt	LTP251	ltpFR2	1	3	SWIMMER	1420	n/a	n/a	0	0	0
480268	WORD	wordpools/wasnorm_wordpool_576.txt	LTP251	ltpFR2	1	3	MARINE	869	n/a	n/a	0	0	0
482837	WORD	wordpools/wasnorm_wordpool_576.txt	LTP251	ltpFR2	1	3	DRESS	495	n/a	n/a	0	0	0
485607	WORD	wordpools/wasnorm_wordpool_576.txt	LTP251	ltpFR2	1	3	SANDWICH	1232	n/a	n/a	0	0	0
488441	WORD	wordpools/wasnorm_wordpool_576.txt	LTP251	ltpFR2	1	3	HOSTESS	723	n/a	n/a	0	0	0
491043	WORD	wordpools/wasnorm_wordpool_576.txt	LTP251	ltpFR2	1	3	DANCER	437	n/a	n/a	0	0	0
492678	START	n/a	LTP251	ltpFR2	1	n/a	n/a	n/a	3	n/a	n/a	n/a	n/a
493528	DISTRACTOR	n/a	LTP251	ltpFR2	1	3	n/a	n/a	n/a	n/a	0	0	0
493562	PROB	n/a	LTP251	ltpFR2	1	n/a	n/a	n/a	3	17	8	5	4
496698	PROB	n/a	LTP251	ltpFR2	1	n/a	n/a	n/a	3	14	1	9	4
498066	PROB	n/a	LTP251	ltpFR2	1	n/a	n/a	n/a	3	7	1	3	3
499800	PROB	n/a	LTP251	ltpFR2	1	n/a	n/a	n/a	3	13	9	2	2
501401	PROB	n/a	LTP251	ltpFR2	1	n/a	n/a	n/a	3	21	5	7	9
503236	PROB	n/a	LTP251	ltpFR2	1	n/a	n/a	n/a	3	9	2	1	6
504673	PROB	n/a	LTP251	ltpFR2	1	n/a	n/a	n/a	3	11	1	5	5
506108	PROB	n/a	LTP251	ltpFR2	1	n/a	n/a	n/a	3	19	7	4	8
507659	PROB	n/a	LTP251	ltpFR2	1	n/a	n/a	n/a	3	9	2	3	4
509594	PROB	n/a	LTP251	ltpFR2	1	n/a	n/a	n/a	3	12	7	3	2
510945	PROB	n/a	LTP251	ltpFR2	1	n/a	n/a	n/a	3	13	4	6	3
512147	PROB	n/a	LTP251	ltpFR2	1	n/a	n/a	n/a	3	13	3	7	3
516678	STOP	n/a	LTP251	ltpFR2	1	n/a	n/a	n/a	3	n/a	n/a	n/a	n/a
518576	REC_START	n/a	LTP251	ltpFR2	1	3	n/a	n/a	n/a	n/a	0	0	0
522009	REC_WORD	wordpools/wasnorm_wordpool_576.txt	LTP251	ltpFR2	1	3	BEAST	108	n/a	n/a	0	0	0
523354	REC_WORD	wordpools/wasnorm_wordpool_576.txt	LTP251	ltpFR2	1	3	PRIMATE	1123	n/a	n/a	0	0	0
524714	REC_WORD	wordpools/wasnorm_wordpool_576.txt	LTP251	ltpFR2	1	3	SHIRT	1287	n/a	n/a	0	0	0
526209	REC_WORD	wordpools/wasnorm_wordpool_576.txt	LTP251	ltpFR2	1	3	SHORTS	1293	n/a	n/a	0	0	0
527841	REC_WORD	wordpools/wasnorm_wordpool_576.txt	LTP251	ltpFR2	1	3	DENIM	446	n/a	n/a	0	0	0
529272	REC_WORD	wordpools/wasnorm_wordpool_576.txt	LTP251	ltpFR2	1	3	SWIMMER	1420	n/a	n/a	0	0	0
531588	REC_WORD	wordpools/wasnorm_wordpool_576.txt	LTP251	ltpFR2	1	3	HOSTESS	723	n/a	n/a	0	0	0
533488	REC_WORD	wordpools/wasnorm_wordpool_576.txt	LTP251	ltpFR2	1	3	HEADBAND	696	n/a	n/a	0	0	0
539003	REC_WORD	wordpools/wasnorm_wordpool_576.txt	LTP251	ltpFR2	1	3	TUBA	1515	n/a	n/a	0	0	0
558350	REC_WORD	wordpools/wasnorm_wordpool_576.txt	LTP251	ltpFR2	1	3	CRIB	407	n/a	n/a	0	0	0
560072	REC_WORD	wordpools/wasnorm_wordpool_576.txt	LTP251	ltpFR2	1	3	FLAG	573	n/a	n/a	0	0	0
609382	DISTRACTOR	n/a	LTP251	ltpFR2	1	4	n/a	n/a	n/a	n/a	0	0	0
609382	START	n/a	LTP251	ltpFR2	1	n/a	n/a	n/a	4	n/a	n/a	n/a	n/a
609437	PROB	n/a	LTP251	ltpFR2	1	n/a	n/a	n/a	4	14	4	3	5
611767	PROB	n/a	LTP251	ltpFR2	1	n/a	n/a	n/a	4	16	5	2	9
613708	PROB	n/a	LTP251	ltpFR2	1	n/a	n/a	n/a	4	5	1	3	2
616209	PROB	n/a	LTP251	ltpFR2	1	n/a	n/a	n/a	4	12	4	1	7
620941	PROB	n/a	LTP251	ltpFR2	1	n/a	n/a	n/a	4	10	1	6	3
622342	PROB	n/a	LTP251	ltpFR2	1	n/a	n/a	n/a	4	7	2	3	2
623844	PROB	n/a	LTP251	ltpFR2	1	n/a	n/a	n/a	4	10	8	1	1
625512	PROB	n/a	LTP251	ltpFR2	1	n/a	n/a	n/a	4	15	8	2	5
626902	PROB	n/a	LTP251	ltpFR2	1	n/a	n/a	n/a	4	25	8	9	8
630605	PROB	n/a	LTP251	ltpFR2	1	n/a	n/a	n/a	4	19	4	9	6
632474	STOP	n/a	LTP251	ltpFR2	1	n/a	n/a	n/a	4	n/a	n/a	n/a	n/a
634386	WORD	wordpools/wasnorm_wordpool_576.txt	LTP251	ltpFR2	1	4	NOMAD	955	n/a	n/a	0	0	0
637206	WORD	wordpools/wasnorm_wordpool_576.txt	LTP251	ltpFR2	1	4	BANJO	82	n/a	n/a	0	0	0
639958	WORD	wordpools/wasnorm_wordpool_576.txt	LTP251	ltpFR2	1	4	RECORD	1176	n/a	n/a	0	0	0
642426	WORD	wordpools/wasnorm_wordpool_576.txt	LTP251	ltpFR2	1	4	LETTUCE	814	n/a	n/a	0	0	0
644916	WORD	wordpools/wasnorm_wordpool_576.txt	LTP251	ltpFR2	1	4	OX	994	n/a	n/a	0	0	0
647698	WORD	wordpools/wasnorm_wordpool_576.txt	LTP251	ltpFR2	1	4	FIREMAN	569	n/a	n/a	0	0	0
650250	WORD	wordpools/wasnorm_wordpool_576.txt	LTP251	ltpFR2	1	4	CAFE	216	n/a	n/a	0	0	0
653040	WORD	wordpools/wasnorm_wordpool_576.txt	LTP251	ltpFR2	1	4	DINER	467	n/a	n/a	0	0	0
655621	WORD	wordpools/wasnorm_wordpool_576.txt	LTP251	ltpFR2	1	4	MILK	895	n/a	n/a	0	0	0
658293	WORD	wordpools/wasnorm_wordpool_576.txt	LTP251	ltpFR2	1	4	YARN	1631	n/a	n/a	0	0	0
661127	WORD	wordpools/wasnorm_wordpool_576.txt	LTP251	ltpFR2	1	4	ONION	977	n/a	n/a	0	0	0
663712	WORD	wordpools/wasnorm_wordpool_576.txt	LTP251	ltpFR2	1	4	INMATE	738	n/a	n/a	0	0	0
666314	WORD	wordpools/wasnorm_wordpool_576.txt	LTP251	ltpFR2	1	4	OMELET	976	n/a	n/a	0	0	0
669134	WORD	wordpools/wasnorm_wordpool_576.txt	LTP251	ltpFR2	1	4	PADDLE	1000	n/a	n/a	0	0	0
671752	WORD	wordpools/wasnorm_wordpool_576.txt	LTP251	ltpFR2	1	4	MARROW	872	n/a	n/a	0	0	0
674340	WORD	wordpools/wasnorm_wordpool_576.txt	LTP251	ltpFR2	1	4	SLIDE	1326	n/a	n/a	0	0	0
677191	WORD	wordpools/wasnorm_wordpool_576.txt	LTP251	ltpFR2	1	4	HONEY	713	n/a	n/a	0	0	0
679792	WORD	wordpools/wasnorm_wordpool_576.txt	LTP251	ltpFR2	1	4	FIREPLACE	570	n/a	n/a	0	0	0
682395	WORD	wordpools/wasnorm_wordpool_576.txt	LTP251	ltpFR2	1	4	GUITAR	670	n/a	n/a	0	0	0
685213	WORD	wordpools/wasnorm_wordpool_576.txt	LTP251	ltpFR2	1	4	SLIME	1327	n/a	n/a	0	0	0
687966	WORD	wordpools/wasnorm_wordpool_576.txt	LTP251	ltpFR2	1	4	FEMALE	559	n/a	n/a	0	0	0
690785	WORD	wordpools/wasnorm_wordpool_576.txt	LTP251	ltpFR2	1	4	PICTURE	1061	n/a	n/a	0	0	0
693522	WORD	wordpools/wasnorm_wordpool_576.txt	LTP251	ltpFR2	1	4	HEART	697	n/a	n/a	0	0	0
696108	WORD	wordpools/wasnorm_wordpool_576.txt	LTP251	ltpFR2	1	4	LOVER	846	n/a	n/a	0	0	0
697743	START	n/a	LTP251	ltpFR2	1	n/a	n/a	n/a	5	n/a	n/a	n/a	n/a
698595	DISTRACTOR	n/a	LTP251	ltpFR2	1	4	n/a	n/a	n/a	n/a	0	0	0
698625	PROB	n/a	LTP251	ltpFR2	1	n/a	n/a	n/a	5	14	3	4	7
701113	PROB	n/a	LTP251	ltpFR2	1	n/a	n/a	n/a	5	21	8	6	7
703279	PROB	n/a	LTP251	ltpFR2	1	n/a	n/a	n/a	5	8	4	1	3
705032	PROB	n/a	LTP251	ltpFR2	1	n/a	n/a	n/a	5	17	9	8	1
706916	PROB	n/a	LTP251	ltpFR2	1	n/a	n/a	n/a	5	16	6	9	1
708718	PROB	n/a	LTP251	ltpFR2	1	n/a	n/a	n/a	5	12	5	2	5
710503	PROB	n/a	LTP251	ltpFR2	1	n/a	n/a	n/a	5	19	2	8	9
711987	PROB	n/a	LTP251	ltpFR2	1	n/a	n/a	n/a	5	14	6	1	7
713739	PROB	n/a	LTP251	ltpFR2	1	n/a	n/a	n/a	5	9	5	1	3
716058	PROB	n/a	LTP251	ltpFR2	1	n/a	n/a	n/a	5	18	6	6	6
718143	PROB	n/a	LTP251	ltpFR2	1	n/a	n/a	n/a	5	16	8	5	3
720253	STOP	n/a	LTP251	ltpFR2	1	n/a	n/a	n/a	5	n/a	n/a	n/a	n/a
723658	REC_START	n/a	LTP251	ltpFR2	1	4	n/a	n/a	n/a	n/a	0	0	0
725415	REC_WORD	wordpools/wasnorm_wordpool_576.txt	LTP251	ltpFR2	1	4	BANJO	82	n/a	n/a	0	0	0
726764	REC_WORD	wordpools/wasnorm_wordpool_576.txt	LTP251	ltpFR2	1	4	OX	994	n/a	n/a	0	0	0
730401	REC_WORD	wordpools/wasnorm_wordpool_576.txt	LTP251	ltpFR2	1	4	NOMAD	955	n/a	n/a	0	0	0
734047	REC_WORD	wordpools/wasnorm_wordpool_576.txt	LTP251	ltpFR2	1	4	PRISON	1127	n/a	n/a	0	0	0
735812	REC_WORD	wordpools/wasnorm_wordpool_576.txt	LTP251	ltpFR2	1	4	PADDLE	1000	n/a	n/a	0	0	0
738180	REC_WORD	wordpools/wasnorm_wordpool_576.txt	LTP251	ltpFR2	1	4	MARROW	872	n/a	n/a	0	0	0
742810	REC_WORD	wordpools/wasnorm_wordpool_576.txt	LTP251	ltpFR2	1	4	BANJO	82	n/a	n/a	0	0	0
744533	REC_WORD	wordpools/wasnorm_wordpool_576.txt	LTP251	ltpFR2	1	4	SLIDE	1326	n/a	n/a	0	0	0
746568	REC_WORD	wordpools/wasnorm_wordpool_576.txt	LTP251	ltpFR2	1	4	FIREPLACE	570	n/a	n/a	0	0	0
748415	REC_WORD	wordpools/wasnorm_wordpool_576.txt	LTP251	ltpFR2	1	4	SLIME	1327	n/a	n/a	0	0	0
750836	REC_WORD	wordpools/wasnorm_wordpool_576.txt	LTP251	ltpFR2	1	4	OMELET	976	n/a	n/a	0	0	0
756927	REC_WORD	wordpools/wasnorm_wordpool_576.txt	LTP251	ltpFR2	1	4	HONEY	713	n/a	n/a	0	0	0
761557	REC_WORD	wordpools/wasnorm_wordpool_576.txt	LTP251	ltpFR2	1	4	FEMALE	559	n/a	n/a	0	0	0
763714	REC_WORD	wordpools/wasnorm_wordpool_576.txt	LTP251	ltpFR2	1	4	PICTURE	1061	n/a	n/a	0	0	0
766433	REC_WORD	wordpools/wasnorm_wordpool_576.txt	LTP251	ltpFR2	1	4	LOVER	846	n/a	n/a	0	0	0
814502	WORD	wordpools/wasnorm_wordpool_576.txt	LTP251	ltpFR2	1	5	ANKLE	24	n/a	n/a	0	0	0
817022	WORD	wordpools/wasnorm_wordpool_576.txt	LTP251	ltpFR2	1	5	SALAD	1224	n/a	n/a	0	0	0
819683	WORD	wordpools/wasnorm_wordpool_576.txt	LTP251	ltpFR2	1	5	TURTLE	1522	n/a	n/a	0	0	0
822392	WORD	wordpools/wasnorm_wordpool_576.txt	LTP251	ltpFR2	1	5	CLIMBER	323	n/a	n/a	0	0	0
824923	WORD	wordpools/wasnorm_wordpool_576.txt	LTP251	ltpFR2	1	5	SUMMIT	1405	n/a	n/a	0	0	0
827721	WORD	wordpools/wasnorm_wordpool_576.txt	LTP251	ltpFR2	1	5	LONDON	843	n/a	n/a	0	0	0
830415	WORD	wordpools/wasnorm_wordpool_576.txt	LTP251	ltpFR2	1	5	DENTIST	447	n/a	n/a	0	0	0
833235	WORD	wordpools/wasnorm_wordpool_576.txt	LTP251	ltpFR2	1	5	FLESH	579	n/a	n/a	0	0	0
835703	WORD	wordpools/wasnorm_wordpool_576.txt	LTP251	ltpFR2	1	5	CLOUD	328	n/a	n/a	0	0	0
838264	WORD	wordpools/wasnorm_wordpool_576.txt	LTP251	ltpFR2	1	5	MISTER	901	n/a	n/a	0	0	0
840789	WORD	wordpools/wasnorm_wordpool_576.txt	LTP251	ltpFR2	1	5	MAMMAL	861	n/a	n/a	0	0	0
843593	WORD	wordpools/wasnorm_wordpool_576.txt	LTP251	ltpFR2	1	5	SCULPTURE	1258	n/a	n/a	0	0	0
846304	WORD	wordpools/wasnorm_wordpool_576.txt	LTP251	ltpFR2	1	5	BLOCKADE	137	n/a	n/a	0	0	0
849007	WORD	wordpools/wasnorm_wordpool_576.txt	LTP251	ltpFR2	1	5	TWEEZERS	1526	n/a	n/a	0	0	0
851766	WORD	wordpools/wasnorm_wordpool_576.txt	LTP251	ltpFR2	1	5	RABBIT	1152	n/a	n/a	0	0	0
854311	WORD	wordpools/wasnorm_wordpool_576.txt	LTP251	ltpFR2	1	5	ACTOR	5	n/a	n/a	0	0	0
857037	WORD	wordpools/wasnorm_wordpool_576.txt	LTP251	ltpFR2	1	5	HORNET	718	n/a	n/a	0	0	0
859722	WORD	wordpools/wasnorm_wordpool_576.txt	LTP251	ltpFR2	1	5	BOYFRIEND	162	n/a	n/a	0	0	0
862273	WORD	wordpools/wasnorm_wordpool_576.txt	LTP251	ltpFR2	1	5	BRACES	164	n/a	n/a	0	0	0
864943	WORD	wordpools/wasnorm_wordpool_576.txt	LTP251	ltpFR2	1	5	ELBOW	520	n/a	n/a	0	0	0
867745	WORD	wordpools/wasnorm_wordpool_576.txt	LTP251	ltpFR2	1	5	BROOK	177	n/a	n/a	0	0	0
870214	WORD	wordpools/wasnorm_wordpool_576.txt	LTP251	ltpFR2	1	5	LAGOON	795	n/a	n/a	0	0	0
872777	WORD	wordpools/wasnorm_wordpool_576.txt	LTP251	ltpFR2	1	5	SIDEWALK	1303	n/a	n/a	0	0	0
875563	WORD	wordpools/wasnorm_wordpool_576.txt	LTP251	ltpFR2	1	5	UNCLE	1536	n/a	n/a	0	0	0
877200	START	n/a	LTP251	ltpFR2	1	n/a	n/a	n/a	6	n/a	n/a	n/a	n/a
878126	DISTRACTOR	n/a	LTP251	ltpFR2	1	5	n/a	n/a	n/a	n/a	0	0	0
878155	PROB	n/a	LTP251	ltpFR2	1	n/a	n/a	n/a	6	8	1	5	2
880506	PROB	n/a	LTP251	ltpFR2	1	n/a	n/a	n/a	6	11	7	3	1
882107	PROB	n/a	LTP251	ltpFR2	1	n/a	n/a	n/a	6	19	9	5	5
883957	PROB	n/a	LTP251	ltpFR2	1	n/a	n/a	n/a	6	20	7	7	6
886039	PROB	n/a	LTP251	ltpFR2	1	n/a	n/a	n/a	6	13	6	5	2
887627	PROB	n/a	LTP251	ltpFR2	1	n/a	n/a	n/a	6	11	3	5	3
890359	PROB	n/a	LTP251	ltpFR2	1	n/a	n/a	n/a	6	14	9	2	6
891997	PROB	n/a	LTP251	ltpFR2	1	n/a	n/a	n/a	6	11	3	3	5
894663	PROB	n/a	LTP251	ltpFR2	1	n/a	n/a	n/a	6	10	1	2	7
895981	PROB	n/a	LTP251	ltpFR2	1	n/a	n/a	n/a	6	15	3	4	8
898933	PROB	n/a	LTP251	ltpFR2	1	n/a	n/a	n/a	6	1	1	2	8
900309	STOP	n/a	LTP251	ltpFR2	1	n/a	n/a	n/a	6	n/a	n/a	n/a	n/a
903117	REC_START	n/a	LTP251	ltpFR2	1	5	n/a	n/a	n/a	n/a	0	0	0
905414	REC_WORD	wordpools/wasnorm_wordpool_576.txt	LTP251	ltpFR2	1	5	CLIMBER	323	n/a	n/a	0	0	0
906585	REC_WORD	wordpools/wasnorm_wordpool_576.txt	LTP251	ltpFR2	1	5	SUMMIT	1405	n/a	n/a	0	0	0
908132	REC_WORD	wordpools/wasnorm_wordpool_576.txt	LTP251	ltpFR2	1	5	ANKLE	24	n/a	n/a	0	0	0
909503	REC_WORD	wordpools/wasnorm_wordpool_576.txt	LTP251	ltpFR2	1	5	ELBOW	520	n/a	n/a	0	0	0
910929	REC_WORD	wordpools/wasnorm_wordpool_576.txt	LTP251	ltpFR2	1	5	UNCLE	1536	n/a	n/a	0	0	0
912426	REC_WORD	wordpools/wasnorm_wordpool_576.txt	LTP251	ltpFR2	1	5	FLESH	579	n/a	n/a	0	0	0
915307	REC_WORD	wordpools/wasnorm_wordpool_576.txt	LTP251	ltpFR2	1	5	TORTOISE	1486	n/a	n/a	0	0	0
916737	REC_WORD	wordpools/wasnorm_wordpool_576.txt	LTP251	ltpFR2	1	5	RABBIT	1152	n/a	n/a	0	0	0
919734	REC_WORD	wordpools/wasnorm_wordpool_576.txt	LTP251	ltpFR2	1	5	BOYFRIEND	162	n/a	n/a	0	0	0
922571	REC_WORD	wordpools/wasnorm_wordpool_576.txt	LTP251	ltpFR2	1	5	SIDEWALK	1303	n/a	n/a	0	0	0
926662	REC_WORD	wordpools/wasnorm_wordpool_576.txt	LTP251	ltpFR2	1	5	LONDON	843	n/a	n/a	0	0	0
929795	REC_WORD	wordpools/wasnorm_wordpool_576.txt	LTP251	ltpFR2	1	5	MISTER	901	n/a	n/a	0	0	0
993979	WORD	wordpools/wasnorm_wordpool_576.txt	LTP251	ltpFR2	1	6	PUPPY	1144	n/a	n/a	0	0	0
996499	WORD	wordpools/wasnorm_wordpool_576.txt	LTP251	ltpFR2	1	6	GUARD	667	n/a	n/a	0	0	0
999000	WORD	wordpools/wasnorm_wordpool_576.txt	LTP251	ltpFR2	1	6	SNAKE	1333	n/a	n/a	0	0	0
1001669	WORD	wordpools/wasnorm_wordpool_576.txt	LTP251	ltpFR2	1	6	COIN	343	n/a	n/a	0	0	0
1004421	WORD	wordpools/wasnorm_wordpool_576.txt	LTP251	ltpFR2	1	6	DUSTPAN	509	n/a	n/a	0	0	0
1007045	WORD	wordpools/wasnorm_wordpool_576.txt	LTP251	ltpFR2	1	6	SWAMP	1416	n/a	n/a	0	0	0
1009725	WORD	wordpools/wasnorm_wordpool_576.txt	LTP251	ltpFR2	1	6	FOX	598	n/a	n/a	0	0	0
1012311	WORD	wordpools/wasnorm_wordpool_576.txt	LTP251	ltpFR2	1	6	CHAMPAGNE	278	n/a	n/a	0	0	0
1014982	WORD	wordpools/wasnorm_wordpool_576.txt	LTP251	ltpFR2	1	6	TEMPLE	1448	n/a	n/a	0	0	0
1017631	WORD	wordpools/wasnorm_wordpool_576.txt	LTP251	ltpFR2	1	6	RECEIPT	1173	n/a	n/a	0	0	0
1020152	WORD	wordpools/wasnorm_wordpool_576.txt	LTP251	ltpFR2	1	6	AIRPORT	13	n/a	n/a	0	0	0
1022970	WORD	wordpools/wasnorm_wordpool_576.txt	LTP251	ltpFR2	1	6	EYELASH	546	n/a	n/a	0	0	0
1025722	WORD	wordpools/wasnorm_wordpool_576.txt	LTP251	ltpFR2	1	6	PIGMENT	1066	n/a	n/a	0	0	0
1028241	WORD	wordpools/wasnorm_wordpool_576.txt	LTP251	ltpFR2	1	6	CRAYON	401	n/a	n/a	0	0	0
1030726	WORD	wordpools/wasnorm_wordpool_576.txt	LTP251	ltpFR2	1	6	PIMPLE	1071	n/a	n/a	0	0	0
1033211	WORD	wordpools/wasnorm_wordpool_576.txt	LTP251	ltpFR2	1	6	POLICE	1098	n/a	n/a	0	0	0
1035981	WORD	wordpools/wasnorm_wordpool_576.txt	LTP251	ltpFR2	1	6	UMPIRE	1535	n/a	n/a	0	0	0
1038783	WORD	wordpools/wasnorm_wordpool_576.txt	LTP251	ltpFR2	1	6	PARSLEY	1016	n/a	n/a	0	0	0
1041585	WORD	wordpools/wasnorm_wordpool_576.txt	LTP251	ltpFR2	1	6	SALT	1229	n/a	n/a	0	0	0
1044337	WORD	wordpools/wasnorm_wordpool_576.txt	LTP251	ltpFR2	1	6	MOP	916	n/a	n/a	0	0	0
1046939	WORD	wordpools/wasnorm_wordpool_576.txt	LTP251	ltpFR2	1	6	ORCHID	982	n/a	n/a	0	0	0
1049408	WORD	wordpools/wasnorm_wordpool_576.txt	LTP251	ltpFR2	1	6	ANTLER	29	n/a	n/a	0	0	0
1051993	WORD	wordpools/wasnorm_wordpool_576.txt	LTP251	ltpFR2	1	6	STONE	1385	n/a	n/a	0	0	0
1054729	WORD	wordpools/wasnorm_wordpool_576.txt	LTP251	ltpFR2	1	6	MUMMY	932	n/a	n/a	0	0	0
1056364	START	n/a	LTP251	ltpFR2	1	n/a	n/a	n/a	7	n/a	n/a	n/a	n/a
1057548	DISTRACTOR	n/a	LTP251	ltpFR2	1	6	n/a	n/a	n/a	n/a	0	0	0
1057580	PROB	n/a	LTP251	ltpFR2	1	n/a	n/a	n/a	7	15	7	5	3
1059807	PROB	n/a	LTP251	ltpFR2	1	n/a	n/a	n/a	7	9	5	1	2
1061534	PROB	n/a	LTP251	ltpFR2	1	n/a	n/a	n/a	7	11	2	3	6
1063419	PROB	n/a	LTP251	ltpFR2	1	n/a	n/a	n/a	7	17	4	4	9
1065196	PROB	n/a	LTP251	ltpFR2	1	n/a	n/a	n/a	7	15	2	5	8
1067030	PROB	n/a	LTP251	ltpFR2	1	n/a	n/a	n/a	7	22	7	7	8
1068765	PROB	n/a	LTP251	ltpFR2	1	n/a	n/a	n/a	7	24	8	9	7
1071592	PROB	n/a	LTP251	ltpFR2	1	n/a	n/a	n/a	7	19	6	9	4
1073786	PROB	n/a	LTP251	ltpFR2	1	n/a	n/a	n/a	7	18	5	5	8
1075072	PROB	n/a	LTP251	ltpFR2	1	n/a	n/a	n/a	7	22	5	9	6
1077406	PROB	n/a	LTP251	ltpFR2	1	n/a	n/a	n/a	7	15	2	3	9
1078820	STOP	n/a	LTP251	ltpFR2	1	n/a	n/a	n/a	7	n/a	n/a	n/a	n/a
1082293	REC_START	n/a	LTP251	ltpFR2	1	6	n/a	n/a	n/a	n/a	0	0	0
1084164	REC_WORD	wordpools/wasnorm_wordpool_576.txt	LTP251	ltpFR2	1	6	PUPPY	1144	n/a	n/a	0	0	0
1085517	REC_WORD	wordpools/wasnorm_wordpool_576.txt	LTP251	ltpFR2	1	6	COIN	343	n/a	n/a	0	0	0
1087113	REC_WORD	wordpools/wasnorm_wordpool_576.txt	LTP251	ltpFR2	1	6	DUSTPAN	509	n/a	n/a	0	0	0
1088990	REC_WORD	wordpools/wasnorm_wordpool_576.txt	LTP251	ltpFR2	1	6	MOP	916	n/a	n/a	0	0	0
1090583	REC_WORD	wordpools/wasnorm_wordpool_576.txt	LTP251	ltpFR2	1	6	CHAMPAGNE	278	n/a	n/a	0	0	0
1092421	REC_WORD	wordpools/wasnorm_wordpool_576.txt	LTP251	ltpFR2	1	6	PARSLEY	1016	n/a	n/a	0	0	0
1093975	REC_WORD	wordpools/wasnorm_wordpool_576.txt	LTP251	ltpFR2	1	6	SALT	1229	n/a	n/a	0	0	0
1095440	REC_WORD	wordpools/wasnorm_wordpool_576.txt	LTP251	ltpFR2	1	6	STONE	1385	n/a	n/a	0	0	0
1097434	REC_WORD	wordpools/wasnorm_wordpool_576.txt	LTP251	ltpFR2	1	6	AIRPORT	13	n/a	n/a	0	0	0
1099220	REC_WORD	wordpools/wasnorm_wordpool_576.txt	LTP251	ltpFR2	1	6	UMPIRE	1535	n/a	n/a	0	0	0
1101740	REC_WORD	wordpools/wasnorm_wordpool_576.txt	LTP251	ltpFR2	1	6	POLICE	1098	n/a	n/a	0	0	0
1104766	REC_WORD	wordpools/wasnorm_wordpool_576.txt	LTP251	ltpFR2	1	6	SHERIFF	1284	n/a	n/a	0	0	0
1112301	REC_WORD	wordpools/wasnorm_wordpool_576.txt	LTP251	ltpFR2	1	6	PIMPLE	1071	n/a	n/a	0	0	0
1173091	DISTRACTOR	n/a	LTP251	ltpFR2	1	7	n/a	n/a	n/a	n/a	0	0	0
1173091	START	n/a	LTP251	ltpFR2	1	n/a	n/a	n/a	8	n/a	n/a	n/a	n/a
1173157	PROB	n/a	LTP251	ltpFR2	1	n/a	n/a	n/a	8	13	1	9	2
1175908	PROB	n/a	LTP251	ltpFR2	1	n/a	n/a	n/a	8	16	2	8	6
1178411	PROB	n/a	LTP251	ltpFR2	1	n/a	n/a	n/a	8	16	6	9	1
1180029	PROB	n/a	LTP251	ltpFR2	1	n/a	n/a	n/a	8	19	4	8	7
1182381	PROB	n/a	LTP251	ltpFR2	1	n/a	n/a	n/a	8	131	2	6	5
1184232	PROB	n/a	LTP251	ltpFR2	1	n/a	n/a	n/a	8	16	7	4	5
1186418	PROB	n/a	LTP251	ltpFR2	1	n/a	n/a	n/a	8	12	3	1	8
1187919	PROB	n/a	LTP251	ltpFR2	1	n/a	n/a	n/a	8	13	6	3	4
1192789	PROB	n/a	LTP251	ltpFR2	1	n/a	n/a	n/a	8	16	7	5	4
1194324	PROB	n/a	LTP251	ltpFR2	1	n/a	n/a	n/a	8	14	6	4	4
1195552	STOP	n/a	LTP251	ltpFR2	1	n/a	n/a	n/a	8	n/a	n/a	n/a	n/a
1198178	WORD	wordpools/wasnorm_wordpool_576.txt	LTP251	ltpFR2	1	7	CELLAR	267	n/a	n/a	0	0	0
1200929	WORD	wordpools/wasnorm_wordpool_576.txt	LTP251	ltpFR2	1	7	BASEMENT	94	n/a	n/a	0	0	0
1203599	WORD	wordpools/wasnorm_wordpool_576.txt	LTP251	ltpFR2	1	7	ICEBERG	731	n/a	n/a	0	0	0
1206367	WORD	wordpools/wasnorm_wordpool_576.txt	LTP251	ltpFR2	1	7	FRUIT	610	n/a	n/a	0	0	0
1208837	WORD	wordpools/wasnorm_wordpool_576.txt	LTP251	ltpFR2	1	7	CAPTIVE	240	n/a	n/a	0	0	0
1211355	WORD	wordpools/wasnorm_wordpool_576.txt	LTP251	ltpFR2	1	7	CONVICT	371	n/a	n/a	0	0	0
1214108	WORD	wordpools/wasnorm_wordpool_576.txt	LTP251	ltpFR2	1	7	SCARECROW	1245	n/a	n/a	0	0	0
1216775	WORD	wordpools/wasnorm_wordpool_576.txt	LTP251	ltpFR2	1	7	PERCH	1048	n/a	n/a	0	0	0
1219494	WORD	wordpools/wasnorm_wordpool_576.txt	LTP251	ltpFR2	1	7	VENUS	1557	n/a	n/a	0	0	0
1222064	WORD	wordpools/wasnorm_wordpool_576.txt	LTP251	ltpFR2	1	7	FRANCE	601	n/a	n/a	0	0	0
1224899	WORD	wordpools/wasnorm_wordpool_576.txt	LTP251	ltpFR2	1	7	COUNTRY	388	n/a	n/a	0	0	0
1227567	WORD	wordpools/wasnorm_wordpool_576.txt	LTP251	ltpFR2	1	7	CONCERT	360	n/a	n/a	0	0	0
1230252	WORD	wordpools/wasnorm_wordpool_576.txt	LTP251	ltpFR2	1	7	FIDDLE	561	n/a	n/a	0	0	0
1232842	WORD	wordpools/wasnorm_wordpool_576.txt	LTP251	ltpFR2	1	7	GRAPE	654	n/a	n/a	0	0	0
1235323	WORD	wordpools/wasnorm_wordpool_576.txt	LTP251	ltpFR2	1	7	JAPAN	749	n/a	n/a	0	0	0
1237974	WORD	wordpools/wasnorm_wordpool_576.txt	LTP251	ltpFR2	1	7	BUCKET	184	n/a	n/a	0	0	0
1240495	WORD	wordpools/wasnorm_wordpool_576.txt	LTP251	ltpFR2	1	7	CROWN	415	n/a	n/a	0	0	0
1243047	WORD	wordpools/wasnorm_wordpool_576.txt	LTP251	ltpFR2	1	7	LOFT	840	n/a	n/a	0	0	0
1245782	WORD	wordpools/wasnorm_wordpool_576.txt	LTP251	ltpFR2	1	7	SODA	1341	n/a	n/a	0	0	0
1248367	WORD	wordpools/wasnorm_wordpool_576.txt	LTP251	ltpFR2	1	7	MARKET	871	n/a	n/a	0	0	0
1251037	WORD	wordpools/wasnorm_wordpool_576.txt	LTP251	ltpFR2	1	7	COMPASS	358	n/a	n/a	0	0	0
1253889	WORD	wordpools/wasnorm_wordpool_576.txt	LTP251	ltpFR2	1	7	MASK	876	n/a	n/a	0	0	0
1256746	WORD	wordpools/wasnorm_wordpool_576.txt	LTP251	ltpFR2	1	7	BUBBLE	183	n/a	n/a	0	0	0
1259376	WORD	wordpools/wasnorm_wordpool_576.txt	LTP251	ltpFR2	1	7	PASTA	1021	n/a	n/a	0	0	0
1261011	START	n/a	LTP251	ltpFR2	1	n/a	n/a	n/a	9	n/a	n/a	n/a	n/a
1262088	DISTRACTOR	n/a	LTP251	ltpFR2	1	7	n/a	n/a	n/a	n/a	0	0	0
1262118	PROB	n/a	LTP251	ltpFR2	1	n/a	n/a	n/a	9	23	8	9	6
1266287	PROB	n/a	LTP251	ltpFR2	1	n/a	n/a	n/a	9	17	6	5	6
1267883	PROB	n/a	LTP251	ltpFR2	1	n/a	n/a	n/a	9	13	6	6	1
1271041	PROB	n/a	LTP251	ltpFR2	1	n/a	n/a	n/a	9	20	9	7	4
1273003	PROB	n/a	LTP251	ltpFR2	1	n/a	n/a	n/a	9	13	2	3	8
1274461	PROB	n/a	LTP251	ltpFR2	1	n/a	n/a	n/a	9	16	2	8	6
1276974	PROB	n/a	LTP251	ltpFR2	1	n/a	n/a	n/a	9	8	3	3	2
1279132	PROB	n/a	LTP251	ltpFR2	1	n/a	n/a	n/a	9	16	5	5	6
1280326	PROB	n/a	LTP251	ltpFR2	1	n/a	n/a	n/a	9	8	3	3	2
1282234	PROB	n/a	LTP251	ltpFR2	1	n/a	n/a	n/a	9	9	2	6	1
1283428	STOP	n/a	LTP251	ltpFR2	1	n/a	n/a	n/a	9	n/a	n/a	n/a	n/a
1286878	REC_START	n/a	LTP251	ltpFR2	1	7	n/a	n/a	n/a	n/a	0	0	0
1288658	REC_WORD	wordpools/wasnorm_wordpool_576.txt	LTP251	ltpFR2	1	7	BASEMENT	94	n/a	n/a	0	0	0
1289972	REC_WORD	wordpools/wasnorm_wordpool_576.txt	LTP251	ltpFR2	1	7	CELLAR	267	n/a	n/a	0	0	0
1297858	REC_WORD	wordpools/wasnorm_wordpool_576.txt	LTP251	ltpFR2	1	7	COURT	391	n/a	n/a	0	0	0
1299649	REC_WORD	wordpools/wasnorm_wordpool_576.txt	LTP251	ltpFR2	1	7	VENUS	1557	n/a	n/a	0	0	0
1302176	REC_WORD	wordpools/wasnorm_wordpool_576.txt	LTP251	ltpFR2	1	7	FRANCE	601	n/a	n/a	0	0	0
1303715	REC_WORD	wordpools/wasnorm_wordpool_576.txt	LTP251	ltpFR2	1	7	COUNTRY	388	n/a	n/a	0	0	0
1305118	REC_WORD	wordpools/wasnorm_wordpool_576.txt	LTP251	ltpFR2	1	7	JAPAN	749	n/a	n/a	0	0	0
1307057	REC_WORD	wordpools/wasnorm_wordpool_576.txt	LTP251	ltpFR2	1	7	COMPASS	358	n/a	n/a	0	0	0
1308746	REC_WORD	wordpools/wasnorm_wordpool_576.txt	LTP251	ltpFR2	1	7	SCARECROW	1245	n/a	n/a	0	0	0
1311619	REC_WORD	wordpools/wasnorm_wordpool_576.txt	LTP251	ltpFR2	1	7	BUBBLE	183	n/a	n/a	0	0	0
1313453	REC_WORD	wordpools/wasnorm_wordpool_576.txt	LTP251	ltpFR2	1	7	PASTA	1021	n/a	n/a	0	0	0
1315186	REC_WORD	wordpools/wasnorm_wordpool_576.txt	LTP251	ltpFR2	1	7	SODA	1341	n/a	n/a	0	0	0
1317992	REC_WORD	wordpools/wasnorm_wordpool_576.txt	LTP251	ltpFR2	1	7	MASK	876	n/a	n/a	0	0	0
1320713	REC_WORD	wordpools/wasnorm_wordpool_576.txt	LTP251	ltpFR2	1	7	ICEBERG	731	n/a	n/a	0	0	0
1322583	REC_WORD	wordpools/wasnorm_wordpool_576.txt	LTP251	ltpFR2	1	7	BUCKET	184	n/a	n/a	0	0	0
1324405	REC_WORD	wordpools/wasnorm_wordpool_576.txt	LTP251	ltpFR2	1	7	CAPTIVE	240	n/a	n/a	0	0	0
1377689	DISTRACTOR	n/a	LTP251	ltpFR2	1	8	n/a	n/a	n/a	n/a	0	0	0
1377689	START	n/a	LTP251	ltpFR2	1	n/a	n/a	n/a	10	n/a	n/a	n/a	n/a
1377751	PROB	n/a	LTP251	ltpFR2	1	n/a	n/a	n/a	10	11	1	7	3
1379673	PROB	n/a	LTP251	ltpFR2	1	n/a	n/a	n/a	10	15	4	2	9
1381557	PROB	n/a	LTP251	ltpFR2	1	n/a	n/a	n/a	10	11	8	1	2
1384243	PROB	n/a	LTP251	ltpFR2	1	n/a	n/a	n/a	10	10	2	1	7
1385660	PROB	n/a	LTP251	ltpFR2	1	n/a	n/a	n/a	10	19	4	6	9
1388627	PROB	n/a	LTP251	ltpFR2	1	n/a	n/a	n/a	10	7	4	1	2
1390329	PROB	n/a	LTP251	ltpFR2	1	n/a	n/a	n/a	10	12	2	9	1
1391915	PROB	n/a	LTP251	ltpFR2	1	n/a	n/a	n/a	10	18	7	5	6
1393515	PROB	n/a	LTP251	ltpFR2	1	n/a	n/a	n/a	10	23	6	9	8
1395716	PROB	n/a	LTP251	ltpFR2	1	n/a	n/a	n/a	10	12	4	2	6
1397186	PROB	n/a	LTP251	ltpFR2	1	n/a	n/a	n/a	10	20	8	5	7
1399038	PROB	n/a	LTP251	ltpFR2	1	n/a	n/a	n/a	10	14	3	6	5
1400409	STOP	n/a	LTP251	ltpFR2	1	n/a	n/a	n/a	10	n/a	n/a	n/a	n/a
1402662	WORD	wordpools/wasnorm_wordpool_576.txt	LTP251	ltpFR2	1	8	BACKBONE	66	n/a	n/a	0	0	0
1405142	WORD	wordpools/wasnorm_wordpool_576.txt	LTP251	ltpFR2	1	8	CUPBOARD	425	n/a	n/a	0	0	0
1407711	WORD	wordpools/wasnorm_wordpool_576.txt	LTP251	ltpFR2	1	8	WRENCH	1625	n/a	n/a	0	0	0
1410280	WORD	wordpools/wasnorm_wordpool_576.txt	LTP251	ltpFR2	1	8	HATCHET	691	n/a	n/a	0	0	0
1413100	WORD	wordpools/wasnorm_wordpool_576.txt	LTP251	ltpFR2	1	8	PREACHER	1119	n/a	n/a	0	0	0
1415684	WORD	wordpools/wasnorm_wordpool_576.txt	LTP251	ltpFR2	1	8	PARROT	1015	n/a	n/a	0	0	0
1418219	WORD	wordpools/wasnorm_wordpool_576.txt	LTP251	ltpFR2	1	8	BANKER	84	n/a	n/a	0	0	0
1420938	WORD	wordpools/wasnorm_wordpool_576.txt	LTP251	ltpFR2	1	8	COFFEE	341	n/a	n/a	0	0	0
1423808	WORD	wordpools/wasnorm_wordpool_576.txt	LTP251	ltpFR2	1	8	SWORD	1423	n/a	n/a	0	0	0
1426577	WORD	wordpools/wasnorm_wordpool_576.txt	LTP251	ltpFR2	1	8	POCKET	1093	n/a	n/a	0	0	0
1429228	WORD	wordpools/wasnorm_wordpool_576.txt	LTP251	ltpFR2	1	8	HOOK	715	n/a	n/a	0	0	0
1431764	WORD	wordpools/wasnorm_wordpool_576.txt	LTP251	ltpFR2	1	8	PUDDLE	1140	n/a	n/a	0	0	0
1434517	WORD	wordpools/wasnorm_wordpool_576.txt	LTP251	ltpFR2	1	8	RELISH	1183	n/a	n/a	0	0	0
1437187	WORD	wordpools/wasnorm_wordpool_576.txt	LTP251	ltpFR2	1	8	TILE	1468	n/a	n/a	0	0	0
1439921	WORD	wordpools/wasnorm_wordpool_576.txt	LTP251	ltpFR2	1	8	BARLEY	88	n/a	n/a	0	0	0
1442458	WORD	wordpools/wasnorm_wordpool_576.txt	LTP251	ltpFR2	1	8	GLOVE	642	n/a	n/a	0	0	0
1445193	WORD	wordpools/wasnorm_wordpool_576.txt	LTP251	ltpFR2	1	8	AUTHOR	61	n/a	n/a	0	0	0
1447744	WORD	wordpools/wasnorm_wordpool_576.txt	LTP251	ltpFR2	1	8	MEAT	883	n/a	n/a	0	0	0
1450414	WORD	wordpools/wasnorm_wordpool_576.txt	LTP251	ltpFR2	1	8	BUTCHER	203	n/a	n/a	0	0	0
1453033	WORD	wordpools/wasnorm_wordpool_576.txt	LTP251	ltpFR2	1	8	SHARK	1275	n/a	n/a	0	0	0
1455768	WORD	wordpools/wasnorm_wordpool_576.txt	LTP251	ltpFR2	1	8	SEAGULL	1261	n/a	n/a	0	0	0
1458554	WORD	wordpools/wasnorm_wordpool_576.txt	LTP251	ltpFR2	1	8	VIKING	1565	n/a	n/a	0	0	0
1461422	WORD	wordpools/wasnorm_wordpool_576.txt	LTP251	ltpFR2	1	8	TRUCK	1512	n/a	n/a	0	0	0
1464176	WORD	wordpools/wasnorm_wordpool_576.txt	LTP251	ltpFR2	1	8	CANAL	226	n/a	n/a	0	0	0
1465810	START	n/a	LTP251	ltpFR2	1	n/a	n/a	n/a	11	n/a	n/a	n/a	n/a
1466985	DISTRACTOR	n/a	LTP251	ltpFR2	1	8	n/a	n/a	n/a	n/a	0	0	0
1467012	PROB	n/a	LTP251	ltpFR2	1	n/a	n/a	n/a	11	20	5	6	9
1473401	PROB	n/a	LTP251	ltpFR2	1	n/a	n/a	n/a	11	18	7	8	3
1475050	PROB	n/a	LTP251	ltpFR2	1	n/a	n/a	n/a	11	13	3	9	1
1476537	PROB	n/a	LTP251	ltpFR2	1	n/a	n/a	n/a	11	13	5	2	6
1478389	PROB	n/a	LTP251	ltpFR2	1	n/a	n/a	n/a	11	19	7	5	7
1480605	PROB	n/a	LTP251	ltpFR2	1	n/a	n/a	n/a	11	19	9	2	8
1482975	PROB	n/a	LTP251	ltpFR2	1	n/a	n/a	n/a	11	10	5	4	1
1484359	PROB	n/a	LTP251	ltpFR2	1	n/a	n/a	n/a	11	18	5	5	8
1485574	PROB	n/a	LTP251	ltpFR2	1	n/a	n/a	n/a	11	12	8	3	1
1487512	PROB	n/a	LTP251	ltpFR2	1	n/a	n/a	n/a	11	10	4	2	4
1489181	STOP	n/a	LTP251	ltpFR2	1	n/a	n/a	n/a	11	n/a	n/a	n/a	n/a
1491830	REC_START	n/a	LTP251	ltpFR2	1	8	n/a	n/a	n/a	n/a	0	0	0
1493354	REC_WORD	wordpools/wasnorm_wordpool_576.txt	LTP251	ltpFR2	1	8	PREACHER	1119	n/a	n/a	0	0	0
1495076	REC_WORD	wordpools/wasnorm_wordpool_576.txt	LTP251	ltpFR2	1	8	BANKER	84	n/a	n/a	0	0	0
1496774	REC_WORD	wordpools/wasnorm_wordpool_576.txt	LTP251	ltpFR2	1	8	HOOK	715	n/a	n/a	0	0	0
1498313	REC_WORD	wordpools/wasnorm_wordpool_576.txt	LTP251	ltpFR2	1	8	VIKING	1565	n/a	n/a	0	0	0
1500299	REC_WORD	wordpools/wasnorm_wordpool_576.txt	LTP251	ltpFR2	1	8	BACKBONE	66	n/a	n/a	0	0	0
1502180	REC_WORD	wordpools/wasnorm_wordpool_576.txt	LTP251	ltpFR2	1	8	HATCHET	691	n/a	n/a	0	0	0
1503708	REC_WORD	wordpools/wasnorm_wordpool_576.txt	LTP251	ltpFR2	1	8	WRENCH	1625	n/a	n/a	0	0	0
1505211	REC_WORD	wordpools/wasnorm_wordpool_576.txt	LTP251	ltpFR2	1	8	SWORD	1423	n/a	n/a	0	0	0
1507194	REC_WORD	wordpools/wasnorm_wordpool_576.txt	LTP251	ltpFR2	1	8	TILE	1468	n/a	n/a	0	0	0
1509155	REC_WORD	wordpools/wasnorm_wordpool_576.txt	LTP251	ltpFR2	1	8	SEAGULL	1261	n/a	n/a	0	0	0
1511185	REC_WORD	wordpools/wasnorm_wordpool_576.txt	LTP251	ltpFR2	1	8	TRUCK	1512	n/a	n/a	0	0	0
1513275	REC_WORD	wordpools/wasnorm_wordpool_576.txt	LTP251	ltpFR2	1	8	RELISH	1183	n/a	n/a	0	0	0
1514991	REC_WORD	wordpools/wasnorm_wordpool_576.txt	LTP251	ltpFR2	1	8	MEAT	883	n/a	n/a	0	0	0
1517230	REC_WORD	wordpools/wasnorm_wordpool_576.txt	LTP251	ltpFR2	1	8	COFFEE	341	n/a	n/a	0	0	0
1533092	REC_WORD	wordpools/wasnorm_wordpool_576.txt	LTP251	ltpFR2	1	8	GLOVE	642	n/a	n/a	0	0	0
1568417	REST_REWET	n/a	LTP251	ltpFR2	1	8	n/a	n/a	n/a	n/a	0	0	0
1949281	DISTRACTOR	n/a	LTP251	ltpFR2	1	9	n/a	n/a	n/a	n/a	0	0	0
1949282	START	n/a	LTP251	ltpFR2	1	n/a	n/a	n/a	12	n/a	n/a	n/a	n/a
1949347	PROB	n/a	LTP251	ltpFR2	1	n/a	n/a	n/a	12	11	2	4	5
1951033	PROB	n/a	LTP251	ltpFR2	1	n/a	n/a	n/a	12	10	7	2	1
1953068	PROB	n/a	LTP251	ltpFR2	1	n/a	n/a	n/a	12	24	9	6	9
1956253	PROB	n/a	LTP251	ltpFR2	1	n/a	n/a	n/a	12	11	6	4	1
1957470	PROB	n/a	LTP251	ltpFR2	1	n/a	n/a	n/a	12	15	4	8	3
1959141	PROB	n/a	LTP251	ltpFR2	1	n/a	n/a	n/a	12	21	9	4	9
1961257	PROB	n/a	LTP251	ltpFR2	1	n/a	n/a	n/a	12	18	6	4	8
1962710	PROB	n/a	LTP251	ltpFR2	1	n/a	n/a	n/a	12	3	1	1	1
1963908	PROB	n/a	LTP251	ltpFR2	1	n/a	n/a	n/a	12	15	1	9	5
1965296	PROB	n/a	LTP251	ltpFR2	1	n/a	n/a	n/a	12	12	1	6	5
1973282	STOP	n/a	LTP251	ltpFR2	1	n/a	n/a	n/a	12	n/a	n/a	n/a	n/a
1974217	WORD	wordpools/wasnorm_wordpool_576.txt	LTP251	ltpFR2	1	9	BULLET	194	n/a	n/a	0	0	0
1977071	WORD	wordpools/wasnorm_wordpool_576.txt	LTP251	ltpFR2	1	9	PISTOL	1075	n/a	n/a	0	0	0
1979655	WORD	wordpools/wasnorm_wordpool_576.txt	LTP251	ltpFR2	1	9	FREEZER	604	n/a	n/a	0	0	0
1982440	WORD	wordpools/wasnorm_wordpool_576.txt	LTP251	ltpFR2	1	9	KLEENEX	782	n/a	n/a	0	0	0
1984993	WORD	wordpools/wasnorm_wordpool_576.txt	LTP251	ltpFR2	1	9	EXPERT	543	n/a	n/a	0	0	0
1987566	WORD	wordpools/wasnorm_wordpool_576.txt	LTP251	ltpFR2	1	9	THIEF	1456	n/a	n/a	0	0	0
1990364	WORD	wordpools/wasnorm_wordpool_576.txt	LTP251	ltpFR2	1	9	LILY	821	n/a	n/a	0	0	0
1992949	WORD	wordpools/wasnorm_wordpool_576.txt	LTP251	ltpFR2	1	9	FRAME	600	n/a	n/a	0	0	0
1995790	WORD	wordpools/wasnorm_wordpool_576.txt	LTP251	ltpFR2	1	9	TUTU	1524	n/a	n/a	0	0	0
1998570	WORD	wordpools/wasnorm_wordpool_576.txt	LTP251	ltpFR2	1	9	TAXI	1438	n/a	n/a	0	0	0
2001244	WORD	wordpools/wasnorm_wordpool_576.txt	LTP251	ltpFR2	1	9	THREAD	1460	n/a	n/a	0	0	0
2003991	WORD	wordpools/wasnorm_wordpool_576.txt	LTP251	ltpFR2	1	9	SUSPECT	1415	n/a	n/a	0	0	0
2006499	WORD	wordpools/wasnorm_wordpool_576.txt	LTP251	ltpFR2	1	9	FLOWER	584	n/a	n/a	0	0	0
2009018	WORD	wordpools/wasnorm_wordpool_576.txt	LTP251	ltpFR2	1	9	SUNRISE	1407	n/a	n/a	0	0	0
2011681	WORD	wordpools/wasnorm_wordpool_576.txt	LTP251	ltpFR2	1	9	HOUND	724	n/a	n/a	0	0	0
2014399	WORD	wordpools/wasnorm_wordpool_576.txt	LTP251	ltpFR2	1	9	CLOTHES	327	n/a	n/a	0	0	0
2016868	WORD	wordpools/wasnorm_wordpool_576.txt	LTP251	ltpFR2	1	9	POET	1095	n/a	n/a	0	0	0
2019477	WORD	wordpools/wasnorm_wordpool_576.txt	LTP251	ltpFR2	1	9	MARS	873	n/a	n/a	0	0	0
2022063	WORD	wordpools/wasnorm_wordpool_576.txt	LTP251	ltpFR2	1	9	GROUND	666	n/a	n/a	0	0	0
2024726	WORD	wordpools/wasnorm_wordpool_576.txt	LTP251	ltpFR2	1	9	FLUTE	585	n/a	n/a	0	0	0
2027402	WORD	wordpools/wasnorm_wordpool_576.txt	LTP251	ltpFR2	1	9	APRON	35	n/a	n/a	0	0	0
2030020	WORD	wordpools/wasnorm_wordpool_576.txt	LTP251	ltpFR2	1	9	SPOUSE	1358	n/a	n/a	0	0	0
2032681	WORD	wordpools/wasnorm_wordpool_576.txt	LTP251	ltpFR2	1	9	LIGHTNING	820	n/a	n/a	0	0	0
2035158	WORD	wordpools/wasnorm_wordpool_576.txt	LTP251	ltpFR2	1	9	COMET	353	n/a	n/a	0	0	0
2036793	START	n/a	LTP251	ltpFR2	1	n/a	n/a	n/a	13	n/a	n/a	n/a	n/a
2037836	DISTRACTOR	n/a	LTP251	ltpFR2	1	9	n/a	n/a	n/a	n/a	0	0	0
2037868	PROB	n/a	LTP251	ltpFR2	1	n/a	n/a	n/a	13	11	3	1	7
2041197	PROB	n/a	LTP251	ltpFR2	1	n/a	n/a	n/a	13	18	6	8	4
2042998	PROB	n/a	LTP251	ltpFR2	1	n/a	n/a	n/a	13	17	7	1	9
2045023	PROB	n/a	LTP251	ltpFR2	1	n/a	n/a	n/a	13	17	8	8	1
2046958	PROB	n/a	LTP251	ltpFR2	1	n/a	n/a	n/a	13	19	7	4	8
2051028	PROB	n/a	LTP251	ltpFR2	1	n/a	n/a	n/a	13	15	7	7	1
2052897	PROB	n/a	LTP251	ltpFR2	1	n/a	n/a	n/a	13	11	2	5	4
2054998	PROB	n/a	LTP251	ltpFR2	1	n/a	n/a	n/a	13	12	2	4	6
2057360	PROB	n/a	LTP251	ltpFR2	1	n/a	n/a	n/a	13	15	2	9	4
2060793	STOP	n/a	LTP251	ltpFR2	1	n/a	n/a	n/a	13	n/a	n/a	n/a	n/a
2062810	REC_START	n/a	LTP251	ltpFR2	1	9	n/a	n/a	n/a	n/a	0	0	0
2064352	REC_WORD	wordpools/wasnorm_wordpool_576.txt	LTP251	ltpFR2	1	9	COMET	353	n/a	n/a	0	0	0
2065793	REC_WORD	wordpools/wasnorm_wordpool_576.txt	LTP251	ltpFR2	1	9	LIGHTNING	820	n/a	n/a	0	0	0
2070790	REC_WORD	wordpools/wasnorm_wordpool_576.txt	LTP251	ltpFR2	1	9	GROUND	666	n/a	n/a	0	0	0
2072404	REC_WORD	wordpools/wasnorm_wordpool_576.txt	LTP251	ltpFR2	1	9	THIEF	1456	n/a	n/a	0	0	0
2073589	REC_WORD	wordpools/wasnorm_wordpool_576.txt	LTP251	ltpFR2	1	9	THREAD	1460	n/a	n/a	0	0	0
2075101	REC_WORD	wordpools/wasnorm_wordpool_576.txt	LTP251	ltpFR2	1	9	SUNRISE	1407	n/a	n/a	0	0	0
2076911	REC_WORD	wordpools/wasnorm_wordpool_576.txt	LTP251	ltpFR2	1	9	TAXI	1438	n/a	n/a	0	0	0
2081150	REC_WORD	wordpools/wasnorm_wordpool_576.txt	LTP251	ltpFR2	1	9	LILY	821	n/a	n/a	0	0	0
2082398	REC_WORD	wordpools/wasnorm_wordpool_576.txt	LTP251	ltpFR2	1	9	FLOWER	584	n/a	n/a	0	0	0
2085009	REC_WORD	wordpools/wasnorm_wordpool_576.txt	LTP251	ltpFR2	1	9	BULLET	194	n/a	n/a	0	0	0
2086218	REC_WORD	wordpools/wasnorm_wordpool_576.txt	LTP251	ltpFR2	1	9	PISTOL	1075	n/a	n/a	0	0	0
2087565	REC_WORD	wordpools/wasnorm_wordpool_576.txt	LTP251	ltpFR2	1	9	FREEZER	604	n/a	n/a	0	0	0
2089269	REC_WORD	wordpools/wasnorm_wordpool_576.txt	LTP251	ltpFR2	1	9	THREAD	1460	n/a	n/a	0	0	0
2095017	REC_WORD	wordpools/wasnorm_wordpool_576.txt	LTP251	ltpFR2	1	9	HOUND	724	n/a	n/a	0	0	0
2098435	REC_WORD	wordpools/wasnorm_wordpool_576.txt	LTP251	ltpFR2	1	9	SUSPECT	1415	n/a	n/a	0	0	0
2153711	WORD	wordpools/wasnorm_wordpool_576.txt	LTP251	ltpFR2	1	10	GRAVE	658	n/a	n/a	0	0	0
2156530	WORD	wordpools/wasnorm_wordpool_576.txt	LTP251	ltpFR2	1	10	TRENCH	1503	n/a	n/a	0	0	0
2159315	WORD	wordpools/wasnorm_wordpool_576.txt	LTP251	ltpFR2	1	10	FARMER	553	n/a	n/a	0	0	0
2162052	WORD	wordpools/wasnorm_wordpool_576.txt	LTP251	ltpFR2	1	10	CATCHER	258	n/a	n/a	0	0	0
2164787	WORD	wordpools/wasnorm_wordpool_576.txt	LTP251	ltpFR2	1	10	FOOTBALL	591	n/a	n/a	0	0	0
2167639	WORD	wordpools/wasnorm_wordpool_576.txt	LTP251	ltpFR2	1	10	EAGLE	512	n/a	n/a	0	0	0
2170492	WORD	wordpools/wasnorm_wordpool_576.txt	LTP251	ltpFR2	1	10	DANDRUFF	439	n/a	n/a	0	0	0
2173294	WORD	wordpools/wasnorm_wordpool_576.txt	LTP251	ltpFR2	1	10	LIPSTICK	829	n/a	n/a	0	0	0
2176046	WORD	wordpools/wasnorm_wordpool_576.txt	LTP251	ltpFR2	1	10	WHISTLE	1606	n/a	n/a	0	0	0
2178865	WORD	wordpools/wasnorm_wordpool_576.txt	LTP251	ltpFR2	1	10	JELLO	754	n/a	n/a	0	0	0
2181435	WORD	wordpools/wasnorm_wordpool_576.txt	LTP251	ltpFR2	1	10	PROTON	1132	n/a	n/a	0	0	0
2184254	WORD	wordpools/wasnorm_wordpool_576.txt	LTP251	ltpFR2	1	10	PRINCESS	1125	n/a	n/a	0	0	0
2187072	WORD	wordpools/wasnorm_wordpool_576.txt	LTP251	ltpFR2	1	10	HAND	683	n/a	n/a	0	0	0
2189824	WORD	wordpools/wasnorm_wordpool_576.txt	LTP251	ltpFR2	1	10	SHELTER	1282	n/a	n/a	0	0	0
2192392	WORD	wordpools/wasnorm_wordpool_576.txt	LTP251	ltpFR2	1	10	ATOM	55	n/a	n/a	0	0	0
2195261	WORD	wordpools/wasnorm_wordpool_576.txt	LTP251	ltpFR2	1	10	RACKET	1155	n/a	n/a	0	0	0
2197863	WORD	wordpools/wasnorm_wordpool_576.txt	LTP251	ltpFR2	1	10	SHELF	1280	n/a	n/a	0	0	0
2200469	WORD	wordpools/wasnorm_wordpool_576.txt	LTP251	ltpFR2	1	10	ARM	38	n/a	n/a	0	0	0
2202984	WORD	wordpools/wasnorm_wordpool_576.txt	LTP251	ltpFR2	1	10	LEADER	807	n/a	n/a	0	0	0
2205836	WORD	wordpools/wasnorm_wordpool_576.txt	LTP251	ltpFR2	1	10	TROMBONE	1508	n/a	n/a	0	0	0
2208338	WORD	wordpools/wasnorm_wordpool_576.txt	LTP251	ltpFR2	1	10	CABBAGE	210	n/a	n/a	0	0	0
2211010	WORD	wordpools/wasnorm_wordpool_576.txt	LTP251	ltpFR2	1	10	CHEST	295	n/a	n/a	0	0	0
2213759	WORD	wordpools/wasnorm_wordpool_576.txt	LTP251	ltpFR2	1	10	BRICK	172	n/a	n/a	0	0	0
2216461	WORD	wordpools/wasnorm_wordpool_576.txt	LTP251	ltpFR2	1	10	COTTAGE	384	n/a	n/a	0	0	0
2218098	START	n/a	LTP251	ltpFR2	1	n/a	n/a	n/a	14	n/a	n/a	n/a	n/a
2218925	DISTRACTOR	n/a	LTP251	ltpFR2	1	10	n/a	n/a	n/a	n/a	0	0	0
2218964	PROB	n/a	LTP251	ltpFR2	1	n/a	n/a	n/a	14	5	1	1	3
2221199	PROB	n/a	LTP251	ltpFR2	1	n/a	n/a	n/a	14	22	9	9	4
2223750	PROB	n/a	LTP251	ltpFR2	1	n/a	n/a	n/a	14	15	6	4	5
2228155	PROB	n/a	LTP251	ltpFR2	1	n/a	n/a	n/a	14	16	8	2	6
2229722	PROB	n/a	LTP251	ltpFR2	1	n/a	n/a	n/a	14	12	2	4	6
2231995	PROB	n/a	LTP251	ltpFR2	1	n/a	n/a	n/a	14	17	7	9	1
2233575	PROB	n/a	LTP251	ltpFR2	1	n/a	n/a	n/a	14	19	5	8	6
2236049	PROB	n/a	LTP251	ltpFR2	1	n/a	n/a	n/a	14	12	4	7	1
2237777	PROB	n/a	LTP251	ltpFR2	1	n/a	n/a	n/a	14	9	2	1	6
2239429	PROB	n/a	LTP251	ltpFR2	1	n/a	n/a	n/a	14	12	4	4	4
2241498	STOP	n/a	LTP251	ltpFR2	1	n/a	n/a	n/a	14	n/a	n/a	n/a	n/a
2244028	REC_START	n/a	LTP251	ltpFR2	1	10	n/a	n/a	n/a	n/a	0	0	0
2245739	REC_WORD	wordpools/wasnorm_wordpool_576.txt	LTP251	ltpFR2	1	10	TRENCH	1503	n/a	n/a	0	0	0
2246985	REC_WORD	wordpools/wasnorm_wordpool_576.txt	LTP251	ltpFR2	1	10	GRAVE	658	n/a	n/a	0	0	0
2248346	REC_WORD	wordpools/wasnorm_wordpool_576.txt	LTP251	ltpFR2	1	10	SHELF	1280	n/a	n/a	0	0	0
2249782	REC_WORD	wordpools/wasnorm_wordpool_576.txt	LTP251	ltpFR2	1	10	SHELTER	1282	n/a	n/a	0	0	0
2251474	REC_WORD	wordpools/wasnorm_wordpool_576.txt	LTP251	ltpFR2	1	10	BRICK	172	n/a	n/a	0	0	0
2252797	REC_WORD	wordpools/wasnorm_wordpool_576.txt	LTP251	ltpFR2	1	10	HAND	683	n/a	n/a	0	0	0
2254256	REC_WORD	wordpools/wasnorm_wordpool_576.txt	LTP251	ltpFR2	1	10	ARM	38	n/a	n/a	0	0	0
2255771	REC_WORD	wordpools/wasnorm_wordpool_576.txt	LTP251	ltpFR2	1	10	CHEST	295	n/a	n/a	0	0	0
2257444	REC_WORD	wordpools/wasnorm_wordpool_576.txt	LTP251	ltpFR2	1	10	PROTON	1132	n/a	n/a	0	0	0
2259052	REC_WORD	wordpools/wasnorm_wordpool_576.txt	LTP251	ltpFR2	1	10	ATOM	55	n/a	n/a	0	0	0
2260566	REC_WORD	wordpools/wasnorm_wordpool_576.txt	LTP251	ltpFR2	1	10	FARMER	553	n/a	n/a	0	0	0
2262137	REC_WORD	wordpools/wasnorm_wordpool_576.txt	LTP251	ltpFR2	1	10	CATCHER	258	n/a	n/a	0	0	0
2263721	REC_WORD	wordpools/wasnorm_wordpool_576.txt	LTP251	ltpFR2	1	10	FOOTBALL	591	n/a	n/a	0	0	0
2265510	REC_WORD	wordpools/wasnorm_wordpool_576.txt	LTP251	ltpFR2	1	10	EAGLE	512	n/a	n/a	0	0	0
2267114	REC_WORD	wordpools/wasnorm_wordpool_576.txt	LTP251	ltpFR2	1	10	TROMBONE	1508	n/a	n/a	0	0	0
2269171	REC_WORD	wordpools/wasnorm_wordpool_576.txt	LTP251	ltpFR2	1	10	LIPSTICK	829	n/a	n/a	0	0	0
2271098	REC_WORD	wordpools/wasnorm_wordpool_576.txt	LTP251	ltpFR2	1	10	LEADER	807	n/a	n/a	0	0	0
2272823	REC_WORD	wordpools/wasnorm_wordpool_576.txt	LTP251	ltpFR2	1	10	WHISTLE	1606	n/a	n/a	0	0	0
2277633	REC_WORD	wordpools/wasnorm_wordpool_576.txt	LTP251	ltpFR2	1	10	RACKET	1155	n/a	n/a	0	0	0
2279591	REC_WORD	wordpools/wasnorm_wordpool_576.txt	LTP251	ltpFR2	1	10	PRINCESS	1125	n/a	n/a	0	0	0
2334836	DISTRACTOR	n/a	LTP251	ltpFR2	1	11	n/a	n/a	n/a	n/a	0	0	0
2334836	START	n/a	LTP251	ltpFR2	1	n/a	n/a	n/a	15	n/a	n/a	n/a	n/a
2334889	PROB	n/a	LTP251	ltpFR2	1	n/a	n/a	n/a	15	13	5	4	4
2337621	PROB	n/a	LTP251	ltpFR2	1	n/a	n/a	n/a	15	17	6	3	8
2339389	PROB	n/a	LTP251	ltpFR2	1	n/a	n/a	n/a	15	10	1	1	8
2340874	PROB	n/a	LTP251	ltpFR2	1	n/a	n/a	n/a	15	16	4	8	4
2342325	PROB	n/a	LTP251	ltpFR2	1	n/a	n/a	n/a	15	20	9	2	9
2344263	PROB	n/a	LTP251	ltpFR2	1	n/a	n/a	n/a	15	15	9	3	3
2346045	PROB	n/a	LTP251	ltpFR2	1	n/a	n/a	n/a	15	3	1	1	1
2347063	PROB	n/a	LTP251	ltpFR2	1	n/a	n/a	n/a	15	13	2	6	5
2348767	PROB	n/a	LTP251	ltpFR2	1	n/a	n/a	n/a	15	6	2	3	1
2350719	PROB	n/a	LTP251	ltpFR2	1	n/a	n/a	n/a	15	19	5	8	8
2352804	PROB	n/a	LTP251	ltpFR2	1	n/a	n/a	n/a	15	13	1	9	3
2354136	PROB	n/a	LTP251	ltpFR2	1	n/a	n/a	n/a	15	10	4	1	5
2356138	PROB	n/a	LTP251	ltpFR2	1	n/a	n/a	n/a	15	8	4	3	1
2358487	STOP	n/a	LTP251	ltpFR2	1	n/a	n/a	n/a	15	n/a	n/a	n/a	n/a
2359789	WORD	wordpools/wasnorm_wordpool_576.txt	LTP251	ltpFR2	1	11	GLASS	639	n/a	n/a	0	0	0
2362292	WORD	wordpools/wasnorm_wordpool_576.txt	LTP251	ltpFR2	1	11	ISLAND	745	n/a	n/a	0	0	0
2364961	WORD	wordpools/wasnorm_wordpool_576.txt	LTP251	ltpFR2	1	11	CIGAR	308	n/a	n/a	0	0	0
2367814	WORD	wordpools/wasnorm_wordpool_576.txt	LTP251	ltpFR2	1	11	COD	340	n/a	n/a	0	0	0
2370385	WORD	wordpools/wasnorm_wordpool_576.txt	LTP251	ltpFR2	1	11	SCALLOP	1242	n/a	n/a	0	0	0
2373153	WORD	wordpools/wasnorm_wordpool_576.txt	LTP251	ltpFR2	1	11	TUNNEL	1519	n/a	n/a	0	0	0
2375821	WORD	wordpools/wasnorm_wordpool_576.txt	LTP251	ltpFR2	1	11	BARREL	91	n/a	n/a	0	0	0
2378640	WORD	wordpools/wasnorm_wordpool_576.txt	LTP251	ltpFR2	1	11	SCRIBBLE	1256	n/a	n/a	0	0	0
2381325	WORD	wordpools/wasnorm_wordpool_576.txt	LTP251	ltpFR2	1	11	MILDEW	893	n/a	n/a	0	0	0
2383911	WORD	wordpools/wasnorm_wordpool_576.txt	LTP251	ltpFR2	1	11	LACE	792	n/a	n/a	0	0	0
2386764	WORD	wordpools/wasnorm_wordpool_576.txt	LTP251	ltpFR2	1	11	COLLEGE	346	n/a	n/a	0	0	0
2389633	WORD	wordpools/wasnorm_wordpool_576.txt	LTP251	ltpFR2	1	11	BODY	145	n/a	n/a	0	0	0
2392302	WORD	wordpools/wasnorm_wordpool_576.txt	LTP251	ltpFR2	1	11	CURTAIN	427	n/a	n/a	0	0	0
2395155	WORD	wordpools/wasnorm_wordpool_576.txt	LTP251	ltpFR2	1	11	CAMEL	223	n/a	n/a	0	0	0
2397906	WORD	wordpools/wasnorm_wordpool_576.txt	LTP251	ltpFR2	1	11	BANQUET	86	n/a	n/a	0	0	0
2400592	WORD	wordpools/wasnorm_wordpool_576.txt	LTP251	ltpFR2	1	11	SNACK	1331	n/a	n/a	0	0	0
2403196	WORD	wordpools/wasnorm_wordpool_576.txt	LTP251	ltpFR2	1	11	WITNESS	1618	n/a	n/a	0	0	0
2405997	WORD	wordpools/wasnorm_wordpool_576.txt	LTP251	ltpFR2	1	11	BANK	83	n/a	n/a	0	0	0
2408732	WORD	wordpools/wasnorm_wordpool_576.txt	LTP251	ltpFR2	1	11	CRAB	397	n/a	n/a	0	0	0
2411268	WORD	wordpools/wasnorm_wordpool_576.txt	LTP251	ltpFR2	1	11	RATTLE	1170	n/a	n/a	0	0	0
2413953	WORD	wordpools/wasnorm_wordpool_576.txt	LTP251	ltpFR2	1	11	CHILD	299	n/a	n/a	0	0	0
2416822	WORD	wordpools/wasnorm_wordpool_576.txt	LTP251	ltpFR2	1	11	RUG	1215	n/a	n/a	0	0	0
2419624	WORD	wordpools/wasnorm_wordpool_576.txt	LTP251	ltpFR2	1	11	BOARD	143	n/a	n/a	0	0	0
2422110	WORD	wordpools/wasnorm_wordpool_576.txt	LTP251	ltpFR2	1	11	CRITIC	410	n/a	n/a	0	0	0
2423746	START	n/a	LTP251	ltpFR2	1	n/a	n/a	n/a	16	n/a	n/a	n/a	n/a
2424809	DISTRACTOR	n/a	LTP251	ltpFR2	1	11	n/a	n/a	n/a	n/a	0	0	0
2424844	PROB	n/a	LTP251	ltpFR2	1	n/a	n/a	n/a	16	19	8	2	9
2426463	PROB	n/a	LTP251	ltpFR2	1	n/a	n/a	n/a	16	8	1	2	5
2428317	PROB	n/a	LTP251	ltpFR2	1	n/a	n/a	n/a	16	10	3	6	1
2429749	PROB	n/a	LTP251	ltpFR2	1	n/a	n/a	n/a	16	10	4	3	3
2431202	PROB	n/a	LTP251	ltpFR2	1	n/a	n/a	n/a	16	14	4	3	7
2432985	PROB	n/a	LTP251	ltpFR2	1	n/a	n/a	n/a	16	6	1	3	2
2435236	PROB	n/a	LTP251	ltpFR2	1	n/a	n/a	n/a	16	17	4	2	9
2436938	PROB	n/a	LTP251	ltpFR2	1	n/a	n/a	n/a	16	9	2	1	6
2438356	PROB	n/a	LTP251	ltpFR2	1	n/a	n/a	n/a	16	14	6	6	2
2442044	PROB	n/a	LTP251	ltpFR2	1	n/a	n/a	n/a	16	10	2	7	1
2443359	PROB	n/a	LTP251	ltpFR2	1	n/a	n/a	n/a	16	10	2	1	7
2444778	PROB	n/a	LTP251	ltpFR2	1	n/a	n/a	n/a	16	14	9	1	7
2446667	STOP	n/a	LTP251	ltpFR2	1	n/a	n/a	n/a	16	n/a	n/a	n/a	n/a
2449777	REC_START	n/a	LTP251	ltpFR2	1	11	n/a	n/a	n/a	n/a	0	0	0
2451395	REC_WORD	wordpools/wasnorm_wordpool_576.txt	LTP251	ltpFR2	1	11	CRAB	397	n/a	n/a	0	0	0
2452813	REC_WORD	wordpools/wasnorm_wordpool_576.txt	LTP251	ltpFR2	1	11	SCALLOP	1242	n/a	n/a	0	0	0
2454518	REC_WORD	wordpools/wasnorm_wordpool_576.txt	LTP251	ltpFR2	1	11	COD	340	n/a	n/a	0	0	0
2456273	REC_WORD	wordpools/wasnorm_wordpool_576.txt	LTP251	ltpFR2	1	11	GLASS	639	n/a	n/a	0	0	0
2458680	REC_WORD	wordpools/wasnorm_wordpool_576.txt	LTP251	ltpFR2	1	11	CURTAIN	427	n/a	n/a	0	0	0
2459971	REC_WORD	wordpools/wasnorm_wordpool_576.txt	LTP251	ltpFR2	1	11	RUG	1215	n/a	n/a	0	0	0
2462388	REC_WORD	wordpools/wasnorm_wordpool_576.txt	LTP251	ltpFR2	1	11	COLLEGE	346	n/a	n/a	0	0	0
2465179	REC_WORD	wordpools/wasnorm_wordpool_576.txt	LTP251	ltpFR2	1	11	BOARD	143	n/a	n/a	0	0	0
2469188	REC_WORD	wordpools/wasnorm_wordpool_576.txt	LTP251	ltpFR2	1	11	RATTLE	1170	n/a	n/a	0	0	0
2473107	REC_WORD	wordpools/wasnorm_wordpool_576.txt	LTP251	ltpFR2	1	11	BODY	145	n/a	n/a	0	0	0
2476632	REC_WORD	wordpools/wasnorm_wordpool_576.txt	LTP251	ltpFR2	1	11	SNACK	1331	n/a	n/a	0	0	0
2478432	REC_WORD	wordpools/wasnorm_wordpool_576.txt	LTP251	ltpFR2	1	11	BANQUET	86	n/a	n/a	0	0	0
2480306	REC_WORD	wordpools/wasnorm_wordpool_576.txt	LTP251	ltpFR2	1	11	BANK	83	n/a	n/a	0	0	0
2497257	REC_WORD	wordpools/wasnorm_wordpool_576.txt	LTP251	ltpFR2	1	11	ISLAND	745	n/a	n/a	0	0	0
2497262	REC_WORD	wordpools/wasnorm_wordpool_576.txt	LTP251	ltpFR2	1	11	ISLAND	745	n/a	n/a	0	0	0
2498784	REC_WORD	wordpools/wasnorm_wordpool_576.txt	LTP251	ltpFR2	1	11	CIGAR	308	n/a	n/a	0	0	0
2503490	REC_WORD	wordpools/wasnorm_wordpool_576.txt	LTP251	ltpFR2	1	11	CAMEL	223	n/a	n/a	0	0	0
2540599	DISTRACTOR	n/a	LTP251	ltpFR2	1	12	n/a	n/a	n/a	n/a	0	0	0
2540599	START	n/a	LTP251	ltpFR2	1	n/a	n/a	n/a	17	n/a	n/a	n/a	n/a
2540655	PROB	n/a	LTP251	ltpFR2	1	n/a	n/a	n/a	17	8	1	3	4
2542666	PROB	n/a	LTP251	ltpFR2	1	n/a	n/a	n/a	17	14	4	7	3
2544908	PROB	n/a	LTP251	ltpFR2	1	n/a	n/a	n/a	17	24	9	8	7
2548477	PROB	n/a	LTP251	ltpFR2	1	n/a	n/a	n/a	17	5	1	1	3
2549755	PROB	n/a	LTP251	ltpFR2	1	n/a	n/a	n/a	17	17	9	4	4
2552659	PROB	n/a	LTP251	ltpFR2	1	n/a	n/a	n/a	17	23	8	7	8
2556067	PROB	n/a	LTP251	ltpFR2	1	n/a	n/a	n/a	17	16	9	6	1
2559098	PROB	n/a	LTP251	ltpFR2	1	n/a	n/a	n/a	17	14	4	5	5
2560737	PROB	n/a	LTP251	ltpFR2	1	n/a	n/a	n/a	17	12	6	5	1
2562451	PROB	n/a	LTP251	ltpFR2	1	n/a	n/a	n/a	17	11	4	1	6
2563679	STOP	n/a	LTP251	ltpFR2	1	n/a	n/a	n/a	17	n/a	n/a	n/a	n/a
2565708	WORD	wordpools/wasnorm_wordpool_576.txt	LTP251	ltpFR2	1	12	PORK	1108	n/a	n/a	0	0	0
2568205	WORD	wordpools/wasnorm_wordpool_576.txt	LTP251	ltpFR2	1	12	ORANGE	980	n/a	n/a	0	0	0
2570707	WORD	wordpools/wasnorm_wordpool_576.txt	LTP251	ltpFR2	1	12	MATCH	878	n/a	n/a	0	0	0
2573526	WORD	wordpools/wasnorm_wordpool_576.txt	LTP251	ltpFR2	1	12	LUMBER	848	n/a	n/a	0	0	0
2576117	WORD	wordpools/wasnorm_wordpool_576.txt	LTP251	ltpFR2	1	12	ROD	1203	n/a	n/a	0	0	0
2578581	WORD	wordpools/wasnorm_wordpool_576.txt	LTP251	ltpFR2	1	12	BOX	159	n/a	n/a	0	0	0
2581254	WORD	wordpools/wasnorm_wordpool_576.txt	LTP251	ltpFR2	1	12	BOUQUET	157	n/a	n/a	0	0	0
2583802	WORD	wordpools/wasnorm_wordpool_576.txt	LTP251	ltpFR2	1	12	KETCHUP	771	n/a	n/a	0	0	0
2586321	WORD	wordpools/wasnorm_wordpool_576.txt	LTP251	ltpFR2	1	12	PIGEON	1065	n/a	n/a	0	0	0
2589024	WORD	wordpools/wasnorm_wordpool_576.txt	LTP251	ltpFR2	1	12	AGENT	10	n/a	n/a	0	0	0
2591492	WORD	wordpools/wasnorm_wordpool_576.txt	LTP251	ltpFR2	1	12	BUREAU	199	n/a	n/a	0	0	0
2594345	WORD	wordpools/wasnorm_wordpool_576.txt	LTP251	ltpFR2	1	12	RIVER	1194	n/a	n/a	0	0	0
2596930	WORD	wordpools/wasnorm_wordpool_576.txt	LTP251	ltpFR2	1	12	TABLE	1426	n/a	n/a	0	0	0
2599616	WORD	wordpools/wasnorm_wordpool_576.txt	LTP251	ltpFR2	1	12	COUCH	386	n/a	n/a	0	0	0
2602102	WORD	wordpools/wasnorm_wordpool_576.txt	LTP251	ltpFR2	1	12	TRIBE	1505	n/a	n/a	0	0	0
2604820	WORD	wordpools/wasnorm_wordpool_576.txt	LTP251	ltpFR2	1	12	GIFT	635	n/a	n/a	0	0	0
2607506	WORD	wordpools/wasnorm_wordpool_576.txt	LTP251	ltpFR2	1	12	TEACHER	1440	n/a	n/a	0	0	0
2610294	WORD	wordpools/wasnorm_wordpool_576.txt	LTP251	ltpFR2	1	12	STREAM	1392	n/a	n/a	0	0	0
2613028	WORD	wordpools/wasnorm_wordpool_576.txt	LTP251	ltpFR2	1	12	PLIERS	1089	n/a	n/a	0	0	0
2615797	WORD	wordpools/wasnorm_wordpool_576.txt	LTP251	ltpFR2	1	12	TURKEY	1520	n/a	n/a	0	0	0
2618416	WORD	wordpools/wasnorm_wordpool_576.txt	LTP251	ltpFR2	1	12	SOFTBALL	1343	n/a	n/a	0	0	0
2621086	WORD	wordpools/wasnorm_wordpool_576.txt	LTP251	ltpFR2	1	12	STAPLE	1371	n/a	n/a	0	0	0
2623770	WORD	wordpools/wasnorm_wordpool_576.txt	LTP251	ltpFR2	1	12	KNAPSACK	783	n/a	n/a	0	0	0
2626289	WORD	wordpools/wasnorm_wordpool_576.txt	LTP251	ltpFR2	1	12	JURY	766	n/a	n/a	0	0	0
2627925	START	n/a	LTP251	ltpFR2	1	n/a	n/a	n/a	18	n/a	n/a	n/a	n/a
2628811	DISTRACTOR	n/a	LTP251	ltpFR2	1	12	n/a	n/a	n/a	n/a	0	0	0
2628841	PROB	n/a	LTP251	ltpFR2	1	n/a	n/a	n/a	18	7	1	5	1
2630660	PROB	n/a	LTP251	ltpFR2	1	n/a	n/a	n/a	18	16	5	6	5
2632577	PROB	n/a	LTP251	ltpFR2	1	n/a	n/a	n/a	18	12	5	4	3
2634928	PROB	n/a	LTP251	ltpFR2	1	n/a	n/a	n/a	18	26	9	7	9
2639818	PROB	n/a	LTP251	ltpFR2	1	n/a	n/a	n/a	18	16	3	9	4
2643470	PROB	n/a	LTP251	ltpFR2	1	n/a	n/a	n/a	18	17	5	7	5
2645021	PROB	n/a	LTP251	ltpFR2	1	n/a	n/a	n/a	18	11	9	1	1
2646223	PROB	n/a	LTP251	ltpFR2	1	n/a	n/a	n/a	18	20	9	3	8
2648875	PROB	n/a	LTP251	ltpFR2	1	n/a	n/a	n/a	18	19	8	9	2
2650363	STOP	n/a	LTP251	ltpFR2	1	n/a	n/a	n/a	18	n/a	n/a	n/a	n/a
2653890	REC_START	n/a	LTP251	ltpFR2	1	12	n/a	n/a	n/a	n/a	0	0	0
2655459	REC_WORD	wordpools/wasnorm_wordpool_576.txt	LTP251	ltpFR2	1	12	ORANGE	980	n/a	n/a	0	0	0
2656987	REC_WORD	wordpools/wasnorm_wordpool_576.txt	LTP251	ltpFR2	1	12	PORK	1108	n/a	n/a	0	0	0
2658484	REC_WORD	wordpools/wasnorm_wordpool_576.txt	LTP251	ltpFR2	1	12	BOX	159	n/a	n/a	0	0	0
2659955	REC_WORD	wordpools/wasnorm_wordpool_576.txt	LTP251	ltpFR2	1	12	MATCH	878	n/a	n/a	0	0	0
2662186	REC_WORD	wordpools/wasnorm_wordpool_576.txt	LTP251	ltpFR2	1	12	BOUQUET	157	n/a	n/a	0	0	0
2664048	REC_WORD	wordpools/wasnorm_wordpool_576.txt	LTP251	ltpFR2	1	12	TABLE	1426	n/a	n/a	0	0	0
2665706	REC_WORD	wordpools/wasnorm_wordpool_576.txt	LTP251	ltpFR2	1	12	STREAM	1392	n/a	n/a	0	0	0
2667533	REC_WORD	wordpools/wasnorm_wordpool_576.txt	LTP251	ltpFR2	1	12	RIVER	1194	n/a	n/a	0	0	0
2670910	REC_WORD	wordpools/wasnorm_wordpool_576.txt	LTP251	ltpFR2	1	12	JURY	766	n/a	n/a	0	0	0
2672507	REC_WORD	wordpools/wasnorm_wordpool_576.txt	LTP251	ltpFR2	1	12	AGENT	10	n/a	n/a	0	0	0
2674441	REC_WORD	wordpools/wasnorm_wordpool_576.txt	LTP251	ltpFR2	1	12	BUREAU	199	n/a	n/a	0	0	0
2677822	REC_WORD	wordpools/wasnorm_wordpool_576.txt	LTP251	ltpFR2	1	12	SOFTBALL	1343	n/a	n/a	0	0	0
2679664	REC_WORD	wordpools/wasnorm_wordpool_576.txt	LTP251	ltpFR2	1	12	TEACHER	1440	n/a	n/a	0	0	0
2681381	REC_WORD	wordpools/wasnorm_wordpool_576.txt	LTP251	ltpFR2	1	12	KNAPSACK	783	n/a	n/a	0	0	0
2682381	REC_WORD_VV	wordpools/wasnorm_wordpool_576.txt	LTP251	ltpFR2	1	12	<>	-1	n/a	n/a	0	0	0
2683561	REC_WORD	wordpools/wasnorm_wordpool_576.txt	LTP251	ltpFR2	1	12	COUCH	386	n/a	n/a	0	0	0
2685497	REC_WORD	wordpools/wasnorm_wordpool_576.txt	LTP251	ltpFR2	1	12	GIFT	635	n/a	n/a	0	0	0
2688001	REC_WORD	wordpools/wasnorm_wordpool_576.txt	LTP251	ltpFR2	1	12	PIGEON	1065	n/a	n/a	0	0	0
2691940	REC_WORD	wordpools/wasnorm_wordpool_576.txt	LTP251	ltpFR2	1	12	TURKEY	1520	n/a	n/a	0	0	0
2713927	REC_WORD	wordpools/wasnorm_wordpool_576.txt	LTP251	ltpFR2	1	12	TRIBE	1505	n/a	n/a	0	0	0
2744719	DISTRACTOR	n/a	LTP251	ltpFR2	1	13	n/a	n/a	n/a	n/a	0	0	0
2744719	START	n/a	LTP251	ltpFR2	1	n/a	n/a	n/a	19	n/a	n/a	n/a	n/a
2744776	PROB	n/a	LTP251	ltpFR2	1	n/a	n/a	n/a	19	17	7	7	3
2747294	PROB	n/a	LTP251	ltpFR2	1	n/a	n/a	n/a	19	22	7	9	6
2749446	PROB	n/a	LTP251	ltpFR2	1	n/a	n/a	n/a	19	14	6	4	4
2750739	PROB	n/a	LTP251	ltpFR2	1	n/a	n/a	n/a	19	14	1	9	4
2752032	PROB	n/a	LTP251	ltpFR2	1	n/a	n/a	n/a	19	20	9	8	3
2753550	PROB	n/a	LTP251	ltpFR2	1	n/a	n/a	n/a	19	19	6	8	5
2755502	PROB	n/a	LTP251	ltpFR2	1	n/a	n/a	n/a	19	16	5	2	9
2757020	PROB	n/a	LTP251	ltpFR2	1	n/a	n/a	n/a	19	14	4	5	5
2758463	PROB	n/a	LTP251	ltpFR2	1	n/a	n/a	n/a	19	16	9	4	2
2760597	PROB	n/a	LTP251	ltpFR2	1	n/a	n/a	n/a	19	9	4	1	4
2762091	PROB	n/a	LTP251	ltpFR2	1	n/a	n/a	n/a	19	14	5	4	5
2764434	PROB	n/a	LTP251	ltpFR2	1	n/a	n/a	n/a	19	13	6	1	6
2766070	PROB	n/a	LTP251	ltpFR2	1	n/a	n/a	n/a	19	11	5	4	2
2767367	STOP	n/a	LTP251	ltpFR2	1	n/a	n/a	n/a	19	n/a	n/a	n/a	n/a
2769723	WORD	wordpools/wasnorm_wordpool_576.txt	LTP251	ltpFR2	1	13	STOVE	1388	n/a	n/a	0	0	0
2772257	WORD	wordpools/wasnorm_wordpool_576.txt	LTP251	ltpFR2	1	13	TOASTER	1472	n/a	n/a	0	0	0
2775119	WORD	wordpools/wasnorm_wordpool_576.txt	LTP251	ltpFR2	1	13	AIRPLANE	12	n/a	n/a	0	0	0
2777661	WORD	wordpools/wasnorm_wordpool_576.txt	LTP251	ltpFR2	1	13	BROTHER	179	n/a	n/a	0	0	0
2780514	WORD	wordpools/wasnorm_wordpool_576.txt	LTP251	ltpFR2	1	13	CASKET	255	n/a	n/a	0	0	0
2783342	WORD	wordpools/wasnorm_wordpool_576.txt	LTP251	ltpFR2	1	13	BABY	64	n/a	n/a	0	0	0
2786163	WORD	wordpools/wasnorm_wordpool_576.txt	LTP251	ltpFR2	1	13	POWDER	1117	n/a	n/a	0	0	0
2788837	WORD	wordpools/wasnorm_wordpool_576.txt	LTP251	ltpFR2	1	13	YOLK	1633	n/a	n/a	0	0	0
2791606	WORD	wordpools/wasnorm_wordpool_576.txt	LTP251	ltpFR2	1	13	DUST	508	n/a	n/a	0	0	0
2794109	WORD	wordpools/wasnorm_wordpool_576.txt	LTP251	ltpFR2	1	13	MARSH	874	n/a	n/a	0	0	0
2796588	WORD	wordpools/wasnorm_wordpool_576.txt	LTP251	ltpFR2	1	13	SISTER	1312	n/a	n/a	0	0	0
2799163	WORD	wordpools/wasnorm_wordpool_576.txt	LTP251	ltpFR2	1	13	CARRIAGE	248	n/a	n/a	0	0	0
2801709	WORD	wordpools/wasnorm_wordpool_576.txt	LTP251	ltpFR2	1	13	COUNTY	389	n/a	n/a	0	0	0
2804217	WORD	wordpools/wasnorm_wordpool_576.txt	LTP251	ltpFR2	1	13	EUROPE	541	n/a	n/a	0	0	0
2806947	WORD	wordpools/wasnorm_wordpool_576.txt	LTP251	ltpFR2	1	13	WIDOW	1608	n/a	n/a	0	0	0
2809604	WORD	wordpools/wasnorm_wordpool_576.txt	LTP251	ltpFR2	1	13	CEILING	265	n/a	n/a	0	0	0
2812135	WORD	wordpools/wasnorm_wordpool_576.txt	LTP251	ltpFR2	1	13	PLAZA	1088	n/a	n/a	0	0	0
2814720	WORD	wordpools/wasnorm_wordpool_576.txt	LTP251	ltpFR2	1	13	CROSS	413	n/a	n/a	0	0	0
2817439	WORD	wordpools/wasnorm_wordpool_576.txt	LTP251	ltpFR2	1	13	SLUG	1329	n/a	n/a	0	0	0
2820142	WORD	wordpools/wasnorm_wordpool_576.txt	LTP251	ltpFR2	1	13	MUSTARD	935	n/a	n/a	0	0	0
2822977	WORD	wordpools/wasnorm_wordpool_576.txt	LTP251	ltpFR2	1	13	SUBWAY	1400	n/a	n/a	0	0	0
2825733	WORD	wordpools/wasnorm_wordpool_576.txt	LTP251	ltpFR2	1	13	SPARROW	1347	n/a	n/a	0	0	0
2828465	WORD	wordpools/wasnorm_wordpool_576.txt	LTP251	ltpFR2	1	13	GRAVEL	659	n/a	n/a	0	0	0
2831302	WORD	wordpools/wasnorm_wordpool_576.txt	LTP251	ltpFR2	1	13	PUPIL	1143	n/a	n/a	0	0	0
2832937	START	n/a	LTP251	ltpFR2	1	n/a	n/a	n/a	20	n/a	n/a	n/a	n/a
2833787	DISTRACTOR	n/a	LTP251	ltpFR2	1	13	n/a	n/a	n/a	n/a	0	0	0
2833820	PROB	n/a	LTP251	ltpFR2	1	n/a	n/a	n/a	20	13	1	6	6
2836224	PROB	n/a	LTP251	ltpFR2	1	n/a	n/a	n/a	20	14	2	6	6
2838009	PROB	n/a	LTP251	ltpFR2	1	n/a	n/a	n/a	20	16	4	7	5
2840859	PROB	n/a	LTP251	ltpFR2	1	n/a	n/a	n/a	20	20	8	7	5
2842878	PROB	n/a	LTP251	ltpFR2	1	n/a	n/a	n/a	20	18	4	9	5
2845549	PROB	n/a	LTP251	ltpFR2	1	n/a	n/a	n/a	20	19	9	1	9
2847167	PROB	n/a	LTP251	ltpFR2	1	n/a	n/a	n/a	20	14	2	4	8
2849053	PROB	n/a	LTP251	ltpFR2	1	n/a	n/a	n/a	20	12	2	5	5
2850369	PROB	n/a	LTP251	ltpFR2	1	n/a	n/a	n/a	20	21	5	7	9
2852620	PROB	n/a	LTP251	ltpFR2	1	n/a	n/a	n/a	20	21	9	5	7
2854555	PROB	n/a	LTP251	ltpFR2	1	n/a	n/a	n/a	20	13	3	5	5
2855771	STOP	n/a	LTP251	ltpFR2	1	n/a	n/a	n/a	20	n/a	n/a	n/a	n/a
2858953	REC_START	n/a	LTP251	ltpFR2	1	13	n/a	n/a	n/a	n/a	0	0	0
2862414	REC_WORD	wordpools/wasnorm_wordpool_576.txt	LTP251	ltpFR2	1	13	TOASTER	1472	n/a	n/a	0	0	0
2863905	REC_WORD	wordpools/wasnorm_wordpool_576.txt	LTP251	ltpFR2	1	13	STOVE	1388	n/a	n/a	0	0	0
2865660	REC_WORD	wordpools/wasnorm_wordpool_576.txt	LTP251	ltpFR2	1	13	AIRPLANE	12	n/a	n/a	0	0	0
2868131	REC_WORD	wordpools/wasnorm_wordpool_576.txt	LTP251	ltpFR2	1	13	CASKET	255	n/a	n/a	0	0	0
2869965	REC_WORD	wordpools/wasnorm_wordpool_576.txt	LTP251	ltpFR2	1	13	CARRIAGE	248	n/a	n/a	0	0	0
2871718	REC_WORD	wordpools/wasnorm_wordpool_576.txt	LTP251	ltpFR2	1	13	GRAVEL	659	n/a	n/a	0	0	0
2873595	REC_WORD	wordpools/wasnorm_wordpool_576.txt	LTP251	ltpFR2	1	13	PUPIL	1143	n/a	n/a	0	0	0
2875217	REC_WORD	wordpools/wasnorm_wordpool_576.txt	LTP251	ltpFR2	1	13	SLUG	1329	n/a	n/a	0	0	0
2879232	REC_WORD	wordpools/wasnorm_wordpool_576.txt	LTP251	ltpFR2	1	13	CEILING	265	n/a	n/a	0	0	0
2880709	REC_WORD	wordpools/wasnorm_wordpool_576.txt	LTP251	ltpFR2	1	13	PLAZA	1088	n/a	n/a	0	0	0
2882661	REC_WORD	wordpools/wasnorm_wordpool_576.txt	LTP251	ltpFR2	1	13	BROTHER	179	n/a	n/a	0	0	0
2884369	REC_WORD	wordpools/wasnorm_wordpool_576.txt	LTP251	ltpFR2	1	13	SISTER	1312	n/a	n/a	0	0	0
2886776	REC_WORD	wordpools/wasnorm_wordpool_576.txt	LTP251	ltpFR2	1	13	POWDER	1117	n/a	n/a	0	0	0
2888987	REC_WORD	wordpools/wasnorm_wordpool_576.txt	LTP251	ltpFR2	1	13	EUROPE	541	n/a	n/a	0	0	0
2890864	REC_WORD	wordpools/wasnorm_wordpool_576.txt	LTP251	ltpFR2	1	13	AIRPLANE	12	n/a	n/a	0	0	0
2895898	REC_WORD	wordpools/wasnorm_wordpool_576.txt	LTP251	ltpFR2	1	13	WIDOW	1608	n/a	n/a	0	0	0
2904266	REC_WORD	wordpools/wasnorm_wordpool_576.txt	LTP251	ltpFR2	1	13	YOLK	1633	n/a	n/a	0	0	0
2906491	REC_WORD	wordpools/wasnorm_wordpool_576.txt	LTP251	ltpFR2	1	13	MUSTARD	935	n/a	n/a	0	0	0
2949738	DISTRACTOR	n/a	LTP251	ltpFR2	1	14	n/a	n/a	n/a	n/a	0	0	0
2949738	START	n/a	LTP251	ltpFR2	1	n/a	n/a	n/a	21	n/a	n/a	n/a	n/a
2949799	PROB	n/a	LTP251	ltpFR2	1	n/a	n/a	n/a	21	19	9	7	3
2951567	PROB	n/a	LTP251	ltpFR2	1	n/a	n/a	n/a	21	12	1	5	6
2952974	PROB	n/a	LTP251	ltpFR2	1	n/a	n/a	n/a	21	13	8	3	2
2954787	PROB	n/a	LTP251	ltpFR2	1	n/a	n/a	n/a	21	14	5	5	4
2955971	PROB	n/a	LTP251	ltpFR2	1	n/a	n/a	n/a	21	20	9	3	8
2958044	PROB	n/a	LTP251	ltpFR2	1	n/a	n/a	n/a	21	20	8	7	5
2959741	PROB	n/a	LTP251	ltpFR2	1	n/a	n/a	n/a	21	9	3	1	5
2961392	PROB	n/a	LTP251	ltpFR2	1	n/a	n/a	n/a	21	22	6	8	6
2963233	PROB	n/a	LTP251	ltpFR2	1	n/a	n/a	n/a	21	12	4	7	2
2966953	PROB	n/a	LTP251	ltpFR2	1	n/a	n/a	n/a	21	9	6	2	1
2968554	PROB	n/a	LTP251	ltpFR2	1	n/a	n/a	n/a	21	18	5	5	8
2969888	PROB	n/a	LTP251	ltpFR2	1	n/a	n/a	n/a	21	16	4	5	7
2971934	PROB	n/a	LTP251	ltpFR2	1	n/a	n/a	n/a	21	11	6	3	2
2973335	STOP	n/a	LTP251	ltpFR2	1	n/a	n/a	n/a	21	n/a	n/a	n/a	n/a
2974993	WORD	wordpools/wasnorm_wordpool_576.txt	LTP251	ltpFR2	1	14	SWITCH	1422	n/a	n/a	0	0	0
2977588	WORD	wordpools/wasnorm_wordpool_576.txt	LTP251	ltpFR2	1	14	NIGHTGOWN	953	n/a	n/a	0	0	0
2980075	WORD	wordpools/wasnorm_wordpool_576.txt	LTP251	ltpFR2	1	14	FILM	565	n/a	n/a	0	0	0
2982583	WORD	wordpools/wasnorm_wordpool_576.txt	LTP251	ltpFR2	1	14	LEOPARD	812	n/a	n/a	0	0	0
2985096	WORD	wordpools/wasnorm_wordpool_576.txt	LTP251	ltpFR2	1	14	NURSE	963	n/a	n/a	0	0	0
2987930	WORD	wordpools/wasnorm_wordpool_576.txt	LTP251	ltpFR2	1	14	PATIENT	1024	n/a	n/a	0	0	0
2990540	WORD	wordpools/wasnorm_wordpool_576.txt	LTP251	ltpFR2	1	14	LAMP	798	n/a	n/a	0	0	0
2993268	WORD	wordpools/wasnorm_wordpool_576.txt	LTP251	ltpFR2	1	14	SPOOL	1356	n/a	n/a	0	0	0
2995970	WORD	wordpools/wasnorm_wordpool_576.txt	LTP251	ltpFR2	1	14	BINDER	127	n/a	n/a	0	0	0
2998664	WORD	wordpools/wasnorm_wordpool_576.txt	LTP251	ltpFR2	1	14	JELLY	755	n/a	n/a	0	0	0
3001391	WORD	wordpools/wasnorm_wordpool_576.txt	LTP251	ltpFR2	1	14	LAVA	804	n/a	n/a	0	0	0
3004077	WORD	wordpools/wasnorm_wordpool_576.txt	LTP251	ltpFR2	1	14	BADGE	68	n/a	n/a	0	0	0
3006861	WORD	wordpools/wasnorm_wordpool_576.txt	LTP251	ltpFR2	1	14	WAGON	1578	n/a	n/a	0	0	0
3009529	WORD	wordpools/wasnorm_wordpool_576.txt	LTP251	ltpFR2	1	14	VALVE	1546	n/a	n/a	0	0	0
3012292	WORD	wordpools/wasnorm_wordpool_576.txt	LTP251	ltpFR2	1	14	RADISH	1158	n/a	n/a	0	0	0
3015035	WORD	wordpools/wasnorm_wordpool_576.txt	LTP251	ltpFR2	1	14	DOLPHIN	483	n/a	n/a	0	0	0
3017537	WORD	wordpools/wasnorm_wordpool_576.txt	LTP251	ltpFR2	1	14	SKETCH	1315	n/a	n/a	0	0	0
3020373	WORD	wordpools/wasnorm_wordpool_576.txt	LTP251	ltpFR2	1	14	TOURIST	1488	n/a	n/a	0	0	0
3022908	WORD	wordpools/wasnorm_wordpool_576.txt	LTP251	ltpFR2	1	14	KITCHEN	778	n/a	n/a	0	0	0
3025643	WORD	wordpools/wasnorm_wordpool_576.txt	LTP251	ltpFR2	1	14	REBEL	1172	n/a	n/a	0	0	0
3028223	WORD	wordpools/wasnorm_wordpool_576.txt	LTP251	ltpFR2	1	14	PANTHER	1009	n/a	n/a	0	0	0
3030741	WORD	wordpools/wasnorm_wordpool_576.txt	LTP251	ltpFR2	1	14	PLATE	1086	n/a	n/a	0	0	0
3033560	WORD	wordpools/wasnorm_wordpool_576.txt	LTP251	ltpFR2	1	14	LUNCH	849	n/a	n/a	0	0	0
3036353	WORD	wordpools/wasnorm_wordpool_576.txt	LTP251	ltpFR2	1	14	RIFLE	1192	n/a	n/a	0	0	0
3037982	START	n/a	LTP251	ltpFR2	1	n/a	n/a	n/a	22	n/a	n/a	n/a	n/a
3038955	DISTRACTOR	n/a	LTP251	ltpFR2	1	14	n/a	n/a	n/a	n/a	0	0	0
3038982	PROB	n/a	LTP251	ltpFR2	1	n/a	n/a	n/a	22	15	5	2	8
3041106	PROB	n/a	LTP251	ltpFR2	1	n/a	n/a	n/a	22	12	2	8	2
3043070	PROB	n/a	LTP251	ltpFR2	1	n/a	n/a	n/a	22	16	4	3	9
3045893	PROB	n/a	LTP251	ltpFR2	1	n/a	n/a	n/a	22	16	3	9	4
3047945	PROB	n/a	LTP251	ltpFR2	1	n/a	n/a	n/a	22	11	6	4	1
3049192	PROB	n/a	LTP251	ltpFR2	1	n/a	n/a	n/a	22	7	4	2	1
3051115	PROB	n/a	LTP251	ltpFR2	1	n/a	n/a	n/a	22	13	2	8	3
3052715	PROB	n/a	LTP251	ltpFR2	1	n/a	n/a	n/a	22	21	6	7	8
3054579	PROB	n/a	LTP251	ltpFR2	1	n/a	n/a	n/a	22	16	9	5	2
3056866	PROB	n/a	LTP251	ltpFR2	1	n/a	n/a	n/a	22	18	5	4	9
3058950	PROB	n/a	LTP251	ltpFR2	1	n/a	n/a	n/a	22	17	4	6	7
3060803	STOP	n/a	LTP251	ltpFR2	1	n/a	n/a	n/a	22	n/a	n/a	n/a	n/a
3063849	REC_START	n/a	LTP251	ltpFR2	1	14	n/a	n/a	n/a	n/a	0	0	0
3065435	REC_WORD	wordpools/wasnorm_wordpool_576.txt	LTP251	ltpFR2	1	14	SWITCH	1422	n/a	n/a	0	0	0
3066707	REC_WORD	wordpools/wasnorm_wordpool_576.txt	LTP251	ltpFR2	1	14	NIGHTGOWN	953	n/a	n/a	0	0	0
3068504	REC_WORD	wordpools/wasnorm_wordpool_576.txt	LTP251	ltpFR2	1	14	LEOPARD	812	n/a	n/a	0	0	0
3070077	REC_WORD	wordpools/wasnorm_wordpool_576.txt	LTP251	ltpFR2	1	14	PANTHER	1009	n/a	n/a	0	0	0
3071689	REC_WORD	wordpools/wasnorm_wordpool_576.txt	LTP251	ltpFR2	1	14	RIFLE	1192	n/a	n/a	0	0	0
3073347	REC_WORD	wordpools/wasnorm_wordpool_576.txt	LTP251	ltpFR2	1	14	REBEL	1172	n/a	n/a	0	0	0
3075237	REC_WORD	wordpools/wasnorm_wordpool_576.txt	LTP251	ltpFR2	1	14	BADGE	68	n/a	n/a	0	0	0
3077288	REC_WORD	wordpools/wasnorm_wordpool_576.txt	LTP251	ltpFR2	1	14	PATIENT	1024	n/a	n/a	0	0	0
3078734	REC_WORD	wordpools/wasnorm_wordpool_576.txt	LTP251	ltpFR2	1	14	NURSE	963	n/a	n/a	0	0	0
3080221	REC_WORD	wordpools/wasnorm_wordpool_576.txt	LTP251	ltpFR2	1	14	WAGON	1578	n/a	n/a	0	0	0
3082187	REC_WORD	wordpools/wasnorm_wordpool_576.txt	LTP251	ltpFR2	1	14	RADISH	1158	n/a	n/a	0	0	0
3083686	REC_WORD	wordpools/wasnorm_wordpool_576.txt	LTP251	ltpFR2	1	14	JELLY	755	n/a	n/a	0	0	0
3085417	REC_WORD	wordpools/wasnorm_wordpool_576.txt	LTP251	ltpFR2	1	14	PLATE	1086	n/a	n/a	0	0	0
3087226	REC_WORD	wordpools/wasnorm_wordpool_576.txt	LTP251	ltpFR2	1	14	BADGE	68	n/a	n/a	0	0	0
3103651	REC_WORD	wordpools/wasnorm_wordpool_576.txt	LTP251	ltpFR2	1	14	BINDER	127	n/a	n/a	0	0	0
3109841	REC_WORD	wordpools/wasnorm_wordpool_576.txt	LTP251	ltpFR2	1	14	SPOOL	1356	n/a	n/a	0	0	0
3154664	DISTRACTOR	n/a	LTP251	ltpFR2	1	15	n/a	n/a	n/a	n/a	0	0	0
3154664	START	n/a	LTP251	ltpFR2	1	n/a	n/a	n/a	23	n/a	n/a	n/a	n/a
3154717	PROB	n/a	LTP251	ltpFR2	1	n/a	n/a	n/a	23	16	7	2	7
3156834	PROB	n/a	LTP251	ltpFR2	1	n/a	n/a	n/a	23	12	4	7	1
3159017	PROB	n/a	LTP251	ltpFR2	1	n/a	n/a	n/a	23	18	8	6	4
3162272	PROB	n/a	LTP251	ltpFR2	1	n/a	n/a	n/a	23	7	5	1	1
3163771	PROB	n/a	LTP251	ltpFR2	1	n/a	n/a	n/a	23	22	5	9	9
3167041	PROB	n/a	LTP251	ltpFR2	1	n/a	n/a	n/a	23	16	8	4	4
3169462	PROB	n/a	LTP251	ltpFR2	1	n/a	n/a	n/a	23	9	4	1	4
3171981	PROB	n/a	LTP251	ltpFR2	1	n/a	n/a	n/a	23	16	8	7	1
3178664	STOP	n/a	LTP251	ltpFR2	1	n/a	n/a	n/a	23	n/a	n/a	n/a	n/a
3179583	WORD	wordpools/wasnorm_wordpool_576.txt	LTP251	ltpFR2	1	15	BEAKER	104	n/a	n/a	0	0	0
3182369	WORD	wordpools/wasnorm_wordpool_576.txt	LTP251	ltpFR2	1	15	PATROL	1027	n/a	n/a	0	0	0
3185205	WORD	wordpools/wasnorm_wordpool_576.txt	LTP251	ltpFR2	1	15	SHERIFF	1284	n/a	n/a	0	0	0
3188024	WORD	wordpools/wasnorm_wordpool_576.txt	LTP251	ltpFR2	1	15	IGLOO	734	n/a	n/a	0	0	0
3190576	WORD	wordpools/wasnorm_wordpool_576.txt	LTP251	ltpFR2	1	15	GRIZZLY	662	n/a	n/a	0	0	0
3193278	WORD	wordpools/wasnorm_wordpool_576.txt	LTP251	ltpFR2	1	15	PILOT	1070	n/a	n/a	0	0	0
3195980	WORD	wordpools/wasnorm_wordpool_576.txt	LTP251	ltpFR2	1	15	CASHIER	254	n/a	n/a	0	0	0
3198499	WORD	wordpools/wasnorm_wordpool_576.txt	LTP251	ltpFR2	1	15	WINDOW	1611	n/a	n/a	0	0	0
3201185	WORD	wordpools/wasnorm_wordpool_576.txt	LTP251	ltpFR2	1	15	DASHBOARD	441	n/a	n/a	0	0	0
3203859	WORD	wordpools/wasnorm_wordpool_576.txt	LTP251	ltpFR2	1	15	PAIL	1002	n/a	n/a	0	0	0
3206338	WORD	wordpools/wasnorm_wordpool_576.txt	LTP251	ltpFR2	1	15	LION	827	n/a	n/a	0	0	0
3209059	WORD	wordpools/wasnorm_wordpool_576.txt	LTP251	ltpFR2	1	15	CLAMP	316	n/a	n/a	0	0	0
3211877	WORD	wordpools/wasnorm_wordpool_576.txt	LTP251	ltpFR2	1	15	HUMAN	726	n/a	n/a	0	0	0
3214395	WORD	wordpools/wasnorm_wordpool_576.txt	LTP251	ltpFR2	1	15	BIKE	125	n/a	n/a	0	0	0
3216897	WORD	wordpools/wasnorm_wordpool_576.txt	LTP251	ltpFR2	1	15	WAITRESS	1581	n/a	n/a	0	0	0
3219716	WORD	wordpools/wasnorm_wordpool_576.txt	LTP251	ltpFR2	1	15	NOTEBOOK	959	n/a	n/a	0	0	0
3222268	WORD	wordpools/wasnorm_wordpool_576.txt	LTP251	ltpFR2	1	15	DRINK	498	n/a	n/a	0	0	0
3224794	WORD	wordpools/wasnorm_wordpool_576.txt	LTP251	ltpFR2	1	15	DIVER	476	n/a	n/a	0	0	0
3227472	WORD	wordpools/wasnorm_wordpool_576.txt	LTP251	ltpFR2	1	15	DIME	466	n/a	n/a	0	0	0
3230208	WORD	wordpools/wasnorm_wordpool_576.txt	LTP251	ltpFR2	1	15	CRATER	400	n/a	n/a	0	0	0
3233035	WORD	wordpools/wasnorm_wordpool_576.txt	LTP251	ltpFR2	1	15	CREVICE	405	n/a	n/a	0	0	0
3235662	WORD	wordpools/wasnorm_wordpool_576.txt	LTP251	ltpFR2	1	15	MATTRESS	879	n/a	n/a	0	0	0
3238398	WORD	wordpools/wasnorm_wordpool_576.txt	LTP251	ltpFR2	1	15	PICNIC	1060	n/a	n/a	0	0	0
3241143	WORD	wordpools/wasnorm_wordpool_576.txt	LTP251	ltpFR2	1	15	WORKER	1621	n/a	n/a	0	0	0
3242777	START	n/a	LTP251	ltpFR2	1	n/a	n/a	n/a	24	n/a	n/a	n/a	n/a
3243867	DISTRACTOR	n/a	LTP251	ltpFR2	1	15	n/a	n/a	n/a	n/a	0	0	0
3243894	PROB	n/a	LTP251	ltpFR2	1	n/a	n/a	n/a	24	14	4	2	8
3246580	PROB	n/a	LTP251	ltpFR2	1	n/a	n/a	n/a	24	13	8	4	1
3253103	PROB	n/a	LTP251	ltpFR2	1	n/a	n/a	n/a	24	20	7	5	8
3254753	PROB	n/a	LTP251	ltpFR2	1	n/a	n/a	n/a	24	25	8	9	8
3258890	PROB	n/a	LTP251	ltpFR2	1	n/a	n/a	n/a	24	21	9	5	7
3262367	PROB	n/a	LTP251	ltpFR2	1	n/a	n/a	n/a	24	22	7	7	8
3263785	PROB	n/a	LTP251	ltpFR2	1	n/a	n/a	n/a	24	12	7	3	2
3266777	STOP	n/a	LTP251	ltpFR2	1	n/a	n/a	n/a	24	n/a	n/a	n/a	n/a
3268794	REC_START	n/a	LTP251	ltpFR2	1	15	n/a	n/a	n/a	n/a	0	0	0
3270435	REC_WORD	wordpools/wasnorm_wordpool_576.txt	LTP251	ltpFR2	1	15	BEAKER	104	n/a	n/a	0	0	0
3271659	REC_WORD	wordpools/wasnorm_wordpool_576.txt	LTP251	ltpFR2	1	15	WINDOW	1611	n/a	n/a	0	0	0
3272872	REC_WORD	wordpools/wasnorm_wordpool_576.txt	LTP251	ltpFR2	1	15	MATTRESS	879	n/a	n/a	0	0	0
3274347	REC_WORD	wordpools/wasnorm_wordpool_576.txt	LTP251	ltpFR2	1	15	CREVICE	405	n/a	n/a	0	0	0
3281186	REC_WORD	wordpools/wasnorm_wordpool_576.txt	LTP251	ltpFR2	1	15	WAITRESS	1581	n/a	n/a	0	0	0
3284006	REC_WORD	wordpools/wasnorm_wordpool_576.txt	LTP251	ltpFR2	1	15	PILOT	1070	n/a	n/a	0	0	0
3286882	REC_WORD	wordpools/wasnorm_wordpool_576.txt	LTP251	ltpFR2	1	15	HUMAN	726	n/a	n/a	0	0	0
3290201	REC_WORD	wordpools/wasnorm_wordpool_576.txt	LTP251	ltpFR2	1	15	DIME	466	n/a	n/a	0	0	0
3291977	REC_WORD	wordpools/wasnorm_wordpool_576.txt	LTP251	ltpFR2	1	15	IGLOO	734	n/a	n/a	0	0	0
3294301	REC_WORD	wordpools/wasnorm_wordpool_576.txt	LTP251	ltpFR2	1	15	SHERIFF	1284	n/a	n/a	0	0	0
3296194	REC_WORD	wordpools/wasnorm_wordpool_576.txt	LTP251	ltpFR2	1	15	PATROL	1027	n/a	n/a	0	0	0
3300531	REC_WORD	wordpools/wasnorm_wordpool_576.txt	LTP251	ltpFR2	1	15	BUCKET	184	n/a	n/a	0	0	0
3314053	REC_WORD	wordpools/wasnorm_wordpool_576.txt	LTP251	ltpFR2	1	15	WINDSHIELD	1612	n/a	n/a	0	0	0
3317585	REC_WORD	wordpools/wasnorm_wordpool_576.txt	LTP251	ltpFR2	1	15	WINDOW	1611	n/a	n/a	0	0	0
3359762	DISTRACTOR	n/a	LTP251	ltpFR2	1	16	n/a	n/a	n/a	n/a	0	0	0
3359763	START	n/a	LTP251	ltpFR2	1	n/a	n/a	n/a	25	n/a	n/a	n/a	n/a
3359828	PROB	n/a	LTP251	ltpFR2	1	n/a	n/a	n/a	25	17	9	2	6
3362081	PROB	n/a	LTP251	ltpFR2	1	n/a	n/a	n/a	25	11	6	3	2
3363932	PROB	n/a	LTP251	ltpFR2	1	n/a	n/a	n/a	25	21	8	9	4
3366818	PROB	n/a	LTP251	ltpFR2	1	n/a	n/a	n/a	25	18	1	8	9
3368617	PROB	n/a	LTP251	ltpFR2	1	n/a	n/a	n/a	25	16	7	2	7
3372073	PROB	n/a	LTP251	ltpFR2	1	n/a	n/a	n/a	25	18	9	2	7
3375292	PROB	n/a	LTP251	ltpFR2	1	n/a	n/a	n/a	25	11	4	4	3
3378261	PROB	n/a	LTP251	ltpFR2	1	n/a	n/a	n/a	25	12	8	1	3
3379945	PROB	n/a	LTP251	ltpFR2	1	n/a	n/a	n/a	25	21	8	7	7
3383224	STOP	n/a	LTP251	ltpFR2	1	n/a	n/a	n/a	25	n/a	n/a	n/a	n/a
3385010	WORD	wordpools/wasnorm_wordpool_576.txt	LTP251	ltpFR2	1	16	POPCORN	1104	n/a	n/a	0	0	0
3387635	WORD	wordpools/wasnorm_wordpool_576.txt	LTP251	ltpFR2	1	16	HOOD	714	n/a	n/a	0	0	0
3390154	WORD	wordpools/wasnorm_wordpool_576.txt	LTP251	ltpFR2	1	16	MESSAGE	888	n/a	n/a	0	0	0
3392723	WORD	wordpools/wasnorm_wordpool_576.txt	LTP251	ltpFR2	1	16	STAMP	1370	n/a	n/a	0	0	0
3395490	WORD	wordpools/wasnorm_wordpool_576.txt	LTP251	ltpFR2	1	16	PRINCE	1124	n/a	n/a	0	0	0
3398242	WORD	wordpools/wasnorm_wordpool_576.txt	LTP251	ltpFR2	1	16	ITEM	746	n/a	n/a	0	0	0
3400944	WORD	wordpools/wasnorm_wordpool_576.txt	LTP251	ltpFR2	1	16	PENGUIN	1044	n/a	n/a	0	0	0
3403597	WORD	wordpools/wasnorm_wordpool_576.txt	LTP251	ltpFR2	1	16	GLOBE	641	n/a	n/a	0	0	0
3406200	WORD	wordpools/wasnorm_wordpool_576.txt	LTP251	ltpFR2	1	16	PERFUME	1049	n/a	n/a	0	0	0
3408784	WORD	wordpools/wasnorm_wordpool_576.txt	LTP251	ltpFR2	1	16	SADDLE	1221	n/a	n/a	0	0	0
3411454	WORD	wordpools/wasnorm_wordpool_576.txt	LTP251	ltpFR2	1	16	TRACTOR	1493	n/a	n/a	0	0	0
3414256	WORD	wordpools/wasnorm_wordpool_576.txt	LTP251	ltpFR2	1	16	DRIVER	499	n/a	n/a	0	0	0
3416807	WORD	wordpools/wasnorm_wordpool_576.txt	LTP251	ltpFR2	1	16	COLONEL	348	n/a	n/a	0	0	0
3419660	WORD	wordpools/wasnorm_wordpool_576.txt	LTP251	ltpFR2	1	16	PAPER	1011	n/a	n/a	0	0	0
3422262	WORD	wordpools/wasnorm_wordpool_576.txt	LTP251	ltpFR2	1	16	GOBLIN	645	n/a	n/a	0	0	0
3425098	WORD	wordpools/wasnorm_wordpool_576.txt	LTP251	ltpFR2	1	16	COCOON	339	n/a	n/a	0	0	0
3427934	WORD	wordpools/wasnorm_wordpool_576.txt	LTP251	ltpFR2	1	16	ARMY	39	n/a	n/a	0	0	0
3430702	WORD	wordpools/wasnorm_wordpool_576.txt	LTP251	ltpFR2	1	16	ASIA	46	n/a	n/a	0	0	0
3433369	WORD	wordpools/wasnorm_wordpool_576.txt	LTP251	ltpFR2	1	16	PIZZA	1079	n/a	n/a	0	0	0
3436124	WORD	wordpools/wasnorm_wordpool_576.txt	LTP251	ltpFR2	1	16	POISON	1096	n/a	n/a	0	0	0
3438925	WORD	wordpools/wasnorm_wordpool_576.txt	LTP251	ltpFR2	1	16	PARTNER	1017	n/a	n/a	0	0	0
3441794	WORD	wordpools/wasnorm_wordpool_576.txt	LTP251	ltpFR2	1	16	FRIEND	606	n/a	n/a	0	0	0
3444496	WORD	wordpools/wasnorm_wordpool_576.txt	LTP251	ltpFR2	1	16	KNIFE	785	n/a	n/a	0	0	0
3447288	WORD	wordpools/wasnorm_wordpool_576.txt	LTP251	ltpFR2	1	16	GARDEN	623	n/a	n/a	0	0	0
3448917	START	n/a	LTP251	ltpFR2	1	n/a	n/a	n/a	26	n/a	n/a	n/a	n/a
3450049	DISTRACTOR	n/a	LTP251	ltpFR2	1	16	n/a	n/a	n/a	n/a	0	0	0
3450085	PROB	n/a	LTP251	ltpFR2	1	n/a	n/a	n/a	26	11	4	4	3
3453385	PROB	n/a	LTP251	ltpFR2	1	n/a	n/a	n/a	26	18	1	9	8
3455172	PROB	n/a	LTP251	ltpFR2	1	n/a	n/a	n/a	26	24	9	6	9
3458007	PROB	n/a	LTP251	ltpFR2	1	n/a	n/a	n/a	26	11	5	3	3
3459658	PROB	n/a	LTP251	ltpFR2	1	n/a	n/a	n/a	26	14	8	4	2
3462661	PROB	n/a	LTP251	ltpFR2	1	n/a	n/a	n/a	26	9	1	7	1
3464919	PROB	n/a	LTP251	ltpFR2	1	n/a	n/a	n/a	26	21	4	8	9
3466888	PROB	n/a	LTP251	ltpFR2	1	n/a	n/a	n/a	26	10	3	3	4
3469483	PROB	n/a	LTP251	ltpFR2	1	n/a	n/a	n/a	26	18	3	9	6
3472917	STOP	n/a	LTP251	ltpFR2	1	n/a	n/a	n/a	26	n/a	n/a	n/a	n/a
3474820	REC_START	n/a	LTP251	ltpFR2	1	16	n/a	n/a	n/a	n/a	0	0	0
3476552	REC_WORD	wordpools/wasnorm_wordpool_576.txt	LTP251	ltpFR2	1	16	POPCORN	1104	n/a	n/a	0	0	0
3477880	REC_WORD	wordpools/wasnorm_wordpool_576.txt	LTP251	ltpFR2	1	16	PIZZA	1079	n/a	n/a	0	0	0
3479178	REC_WORD	wordpools/wasnorm_wordpool_576.txt	LTP251	ltpFR2	1	16	POISON	1096	n/a	n/a	0	0	0
3480568	REC_WORD	wordpools/wasnorm_wordpool_576.txt	LTP251	ltpFR2	1	16	KNIFE	785	n/a	n/a	0	0	0
3481910	REC_WORD	wordpools/wasnorm_wordpool_576.txt	LTP251	ltpFR2	1	16	MESSAGE	888	n/a	n/a	0	0	0
3483575	REC_WORD	wordpools/wasnorm_wordpool_576.txt	LTP251	ltpFR2	1	16	WORLD	1622	n/a	n/a	0	0	0
3484959	REC_WORD	wordpools/wasnorm_wordpool_576.txt	LTP251	ltpFR2	1	16	ASIA	46	n/a	n/a	0	0	0
3486834	REC_WORD	wordpools/wasnorm_wordpool_576.txt	LTP251	ltpFR2	1	16	ITEM	746	n/a	n/a	0	0	0
3488300	REC_WORD	wordpools/wasnorm_wordpool_576.txt	LTP251	ltpFR2	1	16	PENGUIN	1044	n/a	n/a	0	0	0
3489700	REC_WORD	wordpools/wasnorm_wordpool_576.txt	LTP251	ltpFR2	1	16	GARDEN	623	n/a	n/a	0	0	0
3491130	REC_WORD	wordpools/wasnorm_wordpool_576.txt	LTP251	ltpFR2	1	16	PRINCE	1124	n/a	n/a	0	0	0
3493202	REC_WORD	wordpools/wasnorm_wordpool_576.txt	LTP251	ltpFR2	1	16	COLONEL	348	n/a	n/a	0	0	0
3501868	REC_WORD	wordpools/wasnorm_wordpool_576.txt	LTP251	ltpFR2	1	16	PARTNER	1017	n/a	n/a	0	0	0
3502901	REC_WORD	wordpools/wasnorm_wordpool_576.txt	LTP251	ltpFR2	1	16	FRIEND	606	n/a	n/a	0	0	0
3522347	REC_WORD	wordpools/wasnorm_wordpool_576.txt	LTP251	ltpFR2	1	16	COCOON	339	n/a	n/a	0	0	0
3551403	REST_REWET	n/a	LTP251	ltpFR2	1	16	n/a	n/a	n/a	n/a	0	0	0
4303718	DISTRACTOR	n/a	LTP251	ltpFR2	1	17	n/a	n/a	n/a	n/a	0	0	0
4303718	START	n/a	LTP251	ltpFR2	1	n/a	n/a	n/a	27	n/a	n/a	n/a	n/a
4303769	PROB	n/a	LTP251	ltpFR2	1	n/a	n/a	n/a	27	16	7	3	6
4305354	PROB	n/a	LTP251	ltpFR2	1	n/a	n/a	n/a	27	20	7	7	6
4307072	PROB	n/a	LTP251	ltpFR2	1	n/a	n/a	n/a	27	19	6	9	4
4308938	PROB	n/a	LTP251	ltpFR2	1	n/a	n/a	n/a	27	15	4	9	2
4312160	PROB	n/a	LTP251	ltpFR2	1	n/a	n/a	n/a	27	15	2	4	9
4314010	PROB	n/a	LTP251	ltpFR2	1	n/a	n/a	n/a	27	16	2	4	9
4316863	PROB	n/a	LTP251	ltpFR2	1	n/a	n/a	n/a	27	12	3	7	2
4318396	PROB	n/a	LTP251	ltpFR2	1	n/a	n/a	n/a	27	16	4	4	8
4320231	PROB	n/a	LTP251	ltpFR2	1	n/a	n/a	n/a	27	16	9	2	5
4321716	PROB	n/a	LTP251	ltpFR2	1	n/a	n/a	n/a	27	10	1	8	1
4323135	PROB	n/a	LTP251	ltpFR2	1	n/a	n/a	n/a	27	13	5	1	7
4325553	PROB	n/a	LTP251	ltpFR2	1	n/a	n/a	n/a	27	17	6	3	8
4327150	STOP	n/a	LTP251	ltpFR2	1	n/a	n/a	n/a	27	n/a	n/a	n/a	n/a
4328623	WORD	wordpools/wasnorm_wordpool_576.txt	LTP251	ltpFR2	1	17	ROCKET	1202	n/a	n/a	0	0	0
4331208	WORD	wordpools/wasnorm_wordpool_576.txt	LTP251	ltpFR2	1	17	FUNGUS	614	n/a	n/a	0	0	0
4333877	WORD	wordpools/wasnorm_wordpool_576.txt	LTP251	ltpFR2	1	17	MACHINE	852	n/a	n/a	0	0	0
4336462	WORD	wordpools/wasnorm_wordpool_576.txt	LTP251	ltpFR2	1	17	HARP	689	n/a	n/a	0	0	0
4339065	WORD	wordpools/wasnorm_wordpool_576.txt	LTP251	ltpFR2	1	17	PALACE	1006	n/a	n/a	0	0	0
4341750	WORD	wordpools/wasnorm_wordpool_576.txt	LTP251	ltpFR2	1	17	SKILLET	1317	n/a	n/a	0	0	0
4344502	WORD	wordpools/wasnorm_wordpool_576.txt	LTP251	ltpFR2	1	17	CONTRACT	368	n/a	n/a	0	0	0
4347189	WORD	wordpools/wasnorm_wordpool_576.txt	LTP251	ltpFR2	1	17	NECKLACE	940	n/a	n/a	0	0	0
4349673	WORD	wordpools/wasnorm_wordpool_576.txt	LTP251	ltpFR2	1	17	PEANUT	1032	n/a	n/a	0	0	0
4352225	WORD	wordpools/wasnorm_wordpool_576.txt	LTP251	ltpFR2	1	17	CABIN	211	n/a	n/a	0	0	0
4354711	WORD	wordpools/wasnorm_wordpool_576.txt	LTP251	ltpFR2	1	17	MOTOR	922	n/a	n/a	0	0	0
4357381	WORD	wordpools/wasnorm_wordpool_576.txt	LTP251	ltpFR2	1	17	HIGHWAY	707	n/a	n/a	0	0	0
4360198	WORD	wordpools/wasnorm_wordpool_576.txt	LTP251	ltpFR2	1	17	COCKTAIL	338	n/a	n/a	0	0	0
4362934	WORD	wordpools/wasnorm_wordpool_576.txt	LTP251	ltpFR2	1	17	SCOTCH	1251	n/a	n/a	0	0	0
4365488	WORD	wordpools/wasnorm_wordpool_576.txt	LTP251	ltpFR2	1	17	ROOSTER	1209	n/a	n/a	0	0	0
4368304	WORD	wordpools/wasnorm_wordpool_576.txt	LTP251	ltpFR2	1	17	GRILL	661	n/a	n/a	0	0	0
4370809	WORD	wordpools/wasnorm_wordpool_576.txt	LTP251	ltpFR2	1	17	JUNGLE	764	n/a	n/a	0	0	0
4373592	WORD	wordpools/wasnorm_wordpool_576.txt	LTP251	ltpFR2	1	17	SPACE	1345	n/a	n/a	0	0	0
4376161	WORD	wordpools/wasnorm_wordpool_576.txt	LTP251	ltpFR2	1	17	BRAKE	166	n/a	n/a	0	0	0
4378929	WORD	wordpools/wasnorm_wordpool_576.txt	LTP251	ltpFR2	1	17	CASHEW	253	n/a	n/a	0	0	0
4381731	WORD	wordpools/wasnorm_wordpool_576.txt	LTP251	ltpFR2	1	17	MUFFIN	929	n/a	n/a	0	0	0
4384421	WORD	wordpools/wasnorm_wordpool_576.txt	LTP251	ltpFR2	1	17	TABLET	1427	n/a	n/a	0	0	0
4387108	WORD	wordpools/wasnorm_wordpool_576.txt	LTP251	ltpFR2	1	17	FOREHEAD	592	n/a	n/a	0	0	0
4389626	WORD	wordpools/wasnorm_wordpool_576.txt	LTP251	ltpFR2	1	17	STAKE	1368	n/a	n/a	0	0	0
4391257	START	n/a	LTP251	ltpFR2	1	n/a	n/a	n/a	28	n/a	n/a	n/a	n/a
4392446	DISTRACTOR	n/a	LTP251	ltpFR2	1	17	n/a	n/a	n/a	n/a	0	0	0
4392473	PROB	n/a	LTP251	ltpFR2	1	n/a	n/a	n/a	28	19	9	5	5
4394408	PROB	n/a	LTP251	ltpFR2	1	n/a	n/a	n/a	28	6	1	1	4
4395897	PROB	n/a	LTP251	ltpFR2	1	n/a	n/a	n/a	28	17	3	9	5
4398344	PROB	n/a	LTP251	ltpFR2	1	n/a	n/a	n/a	28	14	3	2	9
4399912	PROB	n/a	LTP251	ltpFR2	1	n/a	n/a	n/a	28	12	3	8	1
4402770	PROB	n/a	LTP251	ltpFR2	1	n/a	n/a	n/a	28	16	2	6	8
4404850	PROB	n/a	LTP251	ltpFR2	1	n/a	n/a	n/a	28	17	2	9	5
4407752	PROB	n/a	LTP251	ltpFR2	1	n/a	n/a	n/a	28	12	3	7	2
4409127	PROB	n/a	LTP251	ltpFR2	1	n/a	n/a	n/a	28	9	5	3	1
4411394	PROB	n/a	LTP251	ltpFR2	1	n/a	n/a	n/a	28	10	8	3	1
4412940	PROB	n/a	LTP251	ltpFR2	1	n/a	n/a	n/a	28	13	1	7	5
4414409	STOP	n/a	LTP251	ltpFR2	1	n/a	n/a	n/a	28	n/a	n/a	n/a	n/a
4417289	REC_START	n/a	LTP251	ltpFR2	1	17	n/a	n/a	n/a	n/a	0	0	0
4418938	REC_WORD	wordpools/wasnorm_wordpool_576.txt	LTP251	ltpFR2	1	17	CABIN	211	n/a	n/a	0	0	0
4420277	REC_WORD	wordpools/wasnorm_wordpool_576.txt	LTP251	ltpFR2	1	17	MOTOR	922	n/a	n/a	0	0	0
4421851	REC_WORD	wordpools/wasnorm_wordpool_576.txt	LTP251	ltpFR2	1	17	HIGHWAY	707	n/a	n/a	0	0	0
4423825	REC_WORD	wordpools/wasnorm_wordpool_576.txt	LTP251	ltpFR2	1	17	FOREHEAD	592	n/a	n/a	0	0	0
4425852	REC_WORD	wordpools/wasnorm_wordpool_576.txt	LTP251	ltpFR2	1	17	TABLET	1427	n/a	n/a	0	0	0
4427044	REC_WORD	wordpools/wasnorm_wordpool_576.txt	LTP251	ltpFR2	1	17	MUFFIN	929	n/a	n/a	0	0	0
4428487	REC_WORD	wordpools/wasnorm_wordpool_576.txt	LTP251	ltpFR2	1	17	COCKTAIL	338	n/a	n/a	0	0	0
4430346	REC_WORD	wordpools/wasnorm_wordpool_576.txt	LTP251	ltpFR2	1	17	SCOTCH	1251	n/a	n/a	0	0	0
4432136	REC_WORD	wordpools/wasnorm_wordpool_576.txt	LTP251	ltpFR2	1	17	SKILLET	1317	n/a	n/a	0	0	0
4434014	REC_WORD	wordpools/wasnorm_wordpool_576.txt	LTP251	ltpFR2	1	17	STAKE	1368	n/a	n/a	0	0	0
4437888	REC_WORD	wordpools/wasnorm_wordpool_576.txt	LTP251	ltpFR2	1	17	GRILL	661	n/a	n/a	0	0	0
4440420	REC_WORD	wordpools/wasnorm_wordpool_576.txt	LTP251	ltpFR2	1	17	PALACE	1006	n/a	n/a	0	0	0
4442109	REC_WORD	wordpools/wasnorm_wordpool_576.txt	LTP251	ltpFR2	1	17	ROCKET	1202	n/a	n/a	0	0	0
4443746	REC_WORD	wordpools/wasnorm_wordpool_576.txt	LTP251	ltpFR2	1	17	SPACE	1345	n/a	n/a	0	0	0
4445884	REC_WORD	wordpools/wasnorm_wordpool_576.txt	LTP251	ltpFR2	1	17	FUNGUS	614	n/a	n/a	0	0	0
4562626	WORD	wordpools/wasnorm_wordpool_576.txt	LTP251	ltpFR2	1	18	PUDDING	1139	n/a	n/a	0	0	0
4565462	WORD	wordpools/wasnorm_wordpool_576.txt	LTP251	ltpFR2	1	18	CYCLONE	431	n/a	n/a	0	0	0
4568032	WORD	wordpools/wasnorm_wordpool_576.txt	LTP251	ltpFR2	1	18	VELVET	1555	n/a	n/a	0	0	0
4570634	WORD	wordpools/wasnorm_wordpool_576.txt	LTP251	ltpFR2	1	18	TRANSPLANT	1496	n/a	n/a	0	0	0
4573335	WORD	wordpools/wasnorm_wordpool_576.txt	LTP251	ltpFR2	1	18	SALMON	1227	n/a	n/a	0	0	0
4576139	WORD	wordpools/wasnorm_wordpool_576.txt	LTP251	ltpFR2	1	18	FLIPPER	580	n/a	n/a	0	0	0
4578840	WORD	wordpools/wasnorm_wordpool_576.txt	LTP251	ltpFR2	1	18	INFANT	737	n/a	n/a	0	0	0
4581425	WORD	wordpools/wasnorm_wordpool_576.txt	LTP251	ltpFR2	1	18	DRILL	497	n/a	n/a	0	0	0
4583995	WORD	wordpools/wasnorm_wordpool_576.txt	LTP251	ltpFR2	1	18	SILK	1307	n/a	n/a	0	0	0
4586597	WORD	wordpools/wasnorm_wordpool_576.txt	LTP251	ltpFR2	1	18	MARKER	870	n/a	n/a	0	0	0
4589247	WORD	wordpools/wasnorm_wordpool_576.txt	LTP251	ltpFR2	1	18	DRAWING	494	n/a	n/a	0	0	0
4591767	WORD	wordpools/wasnorm_wordpool_576.txt	LTP251	ltpFR2	1	18	PORTRAIT	1111	n/a	n/a	0	0	0
4594253	WORD	wordpools/wasnorm_wordpool_576.txt	LTP251	ltpFR2	1	18	PLUTO	1092	n/a	n/a	0	0	0
4597004	WORD	wordpools/wasnorm_wordpool_576.txt	LTP251	ltpFR2	1	18	SCALPEL	1243	n/a	n/a	0	0	0
4599857	WORD	wordpools/wasnorm_wordpool_576.txt	LTP251	ltpFR2	1	18	SEAL	1262	n/a	n/a	0	0	0
4602509	WORD	wordpools/wasnorm_wordpool_576.txt	LTP251	ltpFR2	1	18	DAISY	435	n/a	n/a	0	0	0
4605363	WORD	wordpools/wasnorm_wordpool_576.txt	LTP251	ltpFR2	1	18	STOMACH	1384	n/a	n/a	0	0	0
4607879	WORD	wordpools/wasnorm_wordpool_576.txt	LTP251	ltpFR2	1	18	TREAT	1501	n/a	n/a	0	0	0
4610716	WORD	wordpools/wasnorm_wordpool_576.txt	LTP251	ltpFR2	1	18	BLOUSE	139	n/a	n/a	0	0	0
4613550	WORD	wordpools/wasnorm_wordpool_576.txt	LTP251	ltpFR2	1	18	OUTFIT	988	n/a	n/a	0	0	0
4616403	WORD	wordpools/wasnorm_wordpool_576.txt	LTP251	ltpFR2	1	18	YACHT	1629	n/a	n/a	0	0	0
4619022	WORD	wordpools/wasnorm_wordpool_576.txt	LTP251	ltpFR2	1	18	FLASHLIGHT	575	n/a	n/a	0	0	0
4621591	WORD	wordpools/wasnorm_wordpool_576.txt	LTP251	ltpFR2	1	18	POSTAGE	1113	n/a	n/a	0	0	0
4624165	WORD	wordpools/wasnorm_wordpool_576.txt	LTP251	ltpFR2	1	18	TROUT	1511	n/a	n/a	0	0	0
4625795	START	n/a	LTP251	ltpFR2	1	n/a	n/a	n/a	29	n/a	n/a	n/a	n/a
4626968	DISTRACTOR	n/a	LTP251	ltpFR2	1	18	n/a	n/a	n/a	n/a	0	0	0
4626995	PROB	n/a	LTP251	ltpFR2	1	n/a	n/a	n/a	29	13	6	2	5
4629185	PROB	n/a	LTP251	ltpFR2	1	n/a	n/a	n/a	29	13	4	3	6
4631736	PROB	n/a	LTP251	ltpFR2	1	n/a	n/a	n/a	29	14	5	7	2
4633666	PROB	n/a	LTP251	ltpFR2	1	n/a	n/a	n/a	29	10	5	1	4
4635701	PROB	n/a	LTP251	ltpFR2	1	n/a	n/a	n/a	29	18	7	9	2
4638387	PROB	n/a	LTP251	ltpFR2	1	n/a	n/a	n/a	29	18	2	8	8
4640145	PROB	n/a	LTP251	ltpFR2	1	n/a	n/a	n/a	29	11	3	7	1
4643092	PROB	n/a	LTP251	ltpFR2	1	n/a	n/a	n/a	29	6	1	3	2
4645110	PROB	n/a	LTP251	ltpFR2	1	n/a	n/a	n/a	29	18	6	8	4
4647612	PROB	n/a	LTP251	ltpFR2	1	n/a	n/a	n/a	29	11	8	1	2
4648994	STOP	n/a	LTP251	ltpFR2	1	n/a	n/a	n/a	29	n/a	n/a	n/a	n/a
4651831	REC_START	n/a	LTP251	ltpFR2	1	18	n/a	n/a	n/a	n/a	0	0	0
4654960	REC_WORD	wordpools/wasnorm_wordpool_576.txt	LTP251	ltpFR2	1	18	DRILL	497	n/a	n/a	0	0	0
4656483	REC_WORD	wordpools/wasnorm_wordpool_576.txt	LTP251	ltpFR2	1	18	BLOUSE	139	n/a	n/a	0	0	0
4657859	REC_WORD	wordpools/wasnorm_wordpool_576.txt	LTP251	ltpFR2	1	18	SILK	1307	n/a	n/a	0	0	0
4661157	REC_WORD	wordpools/wasnorm_wordpool_576.txt	LTP251	ltpFR2	1	18	STOMACH	1384	n/a	n/a	0	0	0
4662661	REC_WORD	wordpools/wasnorm_wordpool_576.txt	LTP251	ltpFR2	1	18	TREAT	1501	n/a	n/a	0	0	0
4664147	REC_WORD	wordpools/wasnorm_wordpool_576.txt	LTP251	ltpFR2	1	18	SALMON	1227	n/a	n/a	0	0	0
4665851	REC_WORD	wordpools/wasnorm_wordpool_576.txt	LTP251	ltpFR2	1	18	TROUT	1511	n/a	n/a	0	0	0
4667559	REC_WORD	wordpools/wasnorm_wordpool_576.txt	LTP251	ltpFR2	1	18	SEAL	1262	n/a	n/a	0	0	0
4669317	REC_WORD	wordpools/wasnorm_wordpool_576.txt	LTP251	ltpFR2	1	18	SCALPEL	1243	n/a	n/a	0	0	0
4671737	REC_WORD	wordpools/wasnorm_wordpool_576.txt	LTP251	ltpFR2	1	18	PLUTO	1092	n/a	n/a	0	0	0
4678752	REC_WORD	wordpools/wasnorm_wordpool_576.txt	LTP251	ltpFR2	1	18	DRAWING	494	n/a	n/a	0	0	0
4680240	REC_WORD	wordpools/wasnorm_wordpool_576.txt	LTP251	ltpFR2	1	18	SCULPTURE	1258	n/a	n/a	0	0	0
4742622	DISTRACTOR	n/a	LTP251	ltpFR2	1	19	n/a	n/a	n/a	n/a	0	0	0
4742622	START	n/a	LTP251	ltpFR2	1	n/a	n/a	n/a	30	n/a	n/a	n/a	n/a
4742683	PROB	n/a	LTP251	ltpFR2	1	n/a	n/a	n/a	30	22	9	9	4
4744973	PROB	n/a	LTP251	ltpFR2	1	n/a	n/a	n/a	30	13	7	5	1
4746924	PROB	n/a	LTP251	ltpFR2	1	n/a	n/a	n/a	30	10	3	2	5
4748341	PROB	n/a	LTP251	ltpFR2	1	n/a	n/a	n/a	30	20	6	8	6
4750127	PROB	n/a	LTP251	ltpFR2	1	n/a	n/a	n/a	30	12	3	7	2
4751461	PROB	n/a	LTP251	ltpFR2	1	n/a	n/a	n/a	30	19	8	9	2
4754111	PROB	n/a	LTP251	ltpFR2	1	n/a	n/a	n/a	30	15	7	2	6
4755997	PROB	n/a	LTP251	ltpFR2	1	n/a	n/a	n/a	30	8	1	5	2
4757529	PROB	n/a	LTP251	ltpFR2	1	n/a	n/a	n/a	30	11	1	9	1
4759034	PROB	n/a	LTP251	ltpFR2	1	n/a	n/a	n/a	30	25	8	8	9
4762502	PROB	n/a	LTP251	ltpFR2	1	n/a	n/a	n/a	30	25	9	8	9
4765311	STOP	n/a	LTP251	ltpFR2	1	n/a	n/a	n/a	30	n/a	n/a	n/a	n/a
4767872	WORD	wordpools/wasnorm_wordpool_576.txt	LTP251	ltpFR2	1	19	QUEEN	1149	n/a	n/a	0	0	0
4770608	WORD	wordpools/wasnorm_wordpool_576.txt	LTP251	ltpFR2	1	19	SPOON	1357	n/a	n/a	0	0	0
4773343	WORD	wordpools/wasnorm_wordpool_576.txt	LTP251	ltpFR2	1	19	GARBAGE	622	n/a	n/a	0	0	0
4775846	WORD	wordpools/wasnorm_wordpool_576.txt	LTP251	ltpFR2	1	19	ACTRESS	6	n/a	n/a	0	0	0
4778615	WORD	wordpools/wasnorm_wordpool_576.txt	LTP251	ltpFR2	1	19	PLASTER	1085	n/a	n/a	0	0	0
4781266	WORD	wordpools/wasnorm_wordpool_576.txt	LTP251	ltpFR2	1	19	CHEMIST	292	n/a	n/a	0	0	0
4784105	WORD	wordpools/wasnorm_wordpool_576.txt	LTP251	ltpFR2	1	19	JEANS	752	n/a	n/a	0	0	0
4786754	WORD	wordpools/wasnorm_wordpool_576.txt	LTP251	ltpFR2	1	19	VALLEY	1545	n/a	n/a	0	0	0
4789508	WORD	wordpools/wasnorm_wordpool_576.txt	LTP251	ltpFR2	1	19	HEDGE	699	n/a	n/a	0	0	0
4792310	WORD	wordpools/wasnorm_wordpool_576.txt	LTP251	ltpFR2	1	19	CLAM	315	n/a	n/a	0	0	0
4795029	WORD	wordpools/wasnorm_wordpool_576.txt	LTP251	ltpFR2	1	19	OYSTER	995	n/a	n/a	0	0	0
4797680	WORD	wordpools/wasnorm_wordpool_576.txt	LTP251	ltpFR2	1	19	BISON	131	n/a	n/a	0	0	0
4800551	WORD	wordpools/wasnorm_wordpool_576.txt	LTP251	ltpFR2	1	19	PEACH	1031	n/a	n/a	0	0	0
4803253	WORD	wordpools/wasnorm_wordpool_576.txt	LTP251	ltpFR2	1	19	BALLOON	75	n/a	n/a	0	0	0
4805888	WORD	wordpools/wasnorm_wordpool_576.txt	LTP251	ltpFR2	1	19	CRUTCH	417	n/a	n/a	0	0	0
4808708	WORD	wordpools/wasnorm_wordpool_576.txt	LTP251	ltpFR2	1	19	DONOR	485	n/a	n/a	0	0	0
4811410	WORD	wordpools/wasnorm_wordpool_576.txt	LTP251	ltpFR2	1	19	MONSTER	912	n/a	n/a	0	0	0
4814062	WORD	wordpools/wasnorm_wordpool_576.txt	LTP251	ltpFR2	1	19	COUSIN	392	n/a	n/a	0	0	0
4816881	WORD	wordpools/wasnorm_wordpool_576.txt	LTP251	ltpFR2	1	19	STATUE	1374	n/a	n/a	0	0	0
4819683	WORD	wordpools/wasnorm_wordpool_576.txt	LTP251	ltpFR2	1	19	IDOL	733	n/a	n/a	0	0	0
4822203	WORD	wordpools/wasnorm_wordpool_576.txt	LTP251	ltpFR2	1	19	SCISSORS	1250	n/a	n/a	0	0	0
4824871	WORD	wordpools/wasnorm_wordpool_576.txt	LTP251	ltpFR2	1	19	CHIPMUNK	304	n/a	n/a	0	0	0
4827740	WORD	wordpools/wasnorm_wordpool_576.txt	LTP251	ltpFR2	1	19	JUGGLER	763	n/a	n/a	0	0	0
4830476	WORD	wordpools/wasnorm_wordpool_576.txt	LTP251	ltpFR2	1	19	BLADE	134	n/a	n/a	0	0	0
4832112	START	n/a	LTP251	ltpFR2	1	n/a	n/a	n/a	31	n/a	n/a	n/a	n/a
4832933	DISTRACTOR	n/a	LTP251	ltpFR2	1	19	n/a	n/a	n/a	n/a	0	0	0
4832960	PROB	n/a	LTP251	ltpFR2	1	n/a	n/a	n/a	31	20	9	4	7
4835680	PROB	n/a	LTP251	ltpFR2	1	n/a	n/a	n/a	31	14	6	1	7
4837082	PROB	n/a	LTP251	ltpFR2	1	n/a	n/a	n/a	31	12	5	5	2
4838230	PROB	n/a	LTP251	ltpFR2	1	n/a	n/a	n/a	31	20	5	9	6
4841519	PROB	n/a	LTP251	ltpFR2	1	n/a	n/a	n/a	31	18	4	7	7
4843885	PROB	n/a	LTP251	ltpFR2	1	n/a	n/a	n/a	31	12	1	7	4
4845790	PROB	n/a	LTP251	ltpFR2	1	n/a	n/a	n/a	31	15	5	5	5
4847024	PROB	n/a	LTP251	ltpFR2	1	n/a	n/a	n/a	31	15	5	3	7
4848489	PROB	n/a	LTP251	ltpFR2	1	n/a	n/a	n/a	31	20	8	5	7
4851261	PROB	n/a	LTP251	ltpFR2	1	n/a	n/a	n/a	31	17	6	4	7
4852713	PROB	n/a	LTP251	ltpFR2	1	n/a	n/a	n/a	31	12	5	2	5
4853964	PROB	n/a	LTP251	ltpFR2	1	n/a	n/a	n/a	31	9	1	2	6
4855242	STOP	n/a	LTP251	ltpFR2	1	n/a	n/a	n/a	31	n/a	n/a	n/a	n/a
4858042	REC_START	n/a	LTP251	ltpFR2	1	19	n/a	n/a	n/a	n/a	0	0	0
4859563	REC_WORD	wordpools/wasnorm_wordpool_576.txt	LTP251	ltpFR2	1	19	QUEEN	1149	n/a	n/a	0	0	0
4860832	REC_WORD	wordpools/wasnorm_wordpool_576.txt	LTP251	ltpFR2	1	19	SPOON	1357	n/a	n/a	0	0	0
4862439	REC_WORD	wordpools/wasnorm_wordpool_576.txt	LTP251	ltpFR2	1	19	PLASTER	1085	n/a	n/a	0	0	0
4863851	REC_WORD	wordpools/wasnorm_wordpool_576.txt	LTP251	ltpFR2	1	19	SCULPTURE	1258	n/a	n/a	0	0	0
4865690	REC_WORD	wordpools/wasnorm_wordpool_576.txt	LTP251	ltpFR2	1	19	IDOL	733	n/a	n/a	0	0	0
4867551	REC_WORD	wordpools/wasnorm_wordpool_576.txt	LTP251	ltpFR2	1	19	CHEMIST	292	n/a	n/a	0	0	0
4868850	REC_WORD	wordpools/wasnorm_wordpool_576.txt	LTP251	ltpFR2	1	19	JEANS	752	n/a	n/a	0	0	0
4870436	REC_WORD	wordpools/wasnorm_wordpool_576.txt	LTP251	ltpFR2	1	19	ACTRESS	6	n/a	n/a	0	0	0
4872049	REC_WORD	wordpools/wasnorm_wordpool_576.txt	LTP251	ltpFR2	1	19	DONOR	485	n/a	n/a	0	0	0
4874695	REC_WORD	wordpools/wasnorm_wordpool_576.txt	LTP251	ltpFR2	1	19	CLAM	315	n/a	n/a	0	0	0
4876131	REC_WORD	wordpools/wasnorm_wordpool_576.txt	LTP251	ltpFR2	1	19	MUSSEL	-1	n/a	n/a	0	0	0
4877788	REC_WORD	wordpools/wasnorm_wordpool_576.txt	LTP251	ltpFR2	1	19	BISON	131	n/a	n/a	0	0	0
4879515	REC_WORD	wordpools/wasnorm_wordpool_576.txt	LTP251	ltpFR2	1	19	PEACH	1031	n/a	n/a	0	0	0
4881064	REC_WORD	wordpools/wasnorm_wordpool_576.txt	LTP251	ltpFR2	1	19	HEDGE	699	n/a	n/a	0	0	0
4882606	REC_WORD	wordpools/wasnorm_wordpool_576.txt	LTP251	ltpFR2	1	19	BLADE	134	n/a	n/a	0	0	0
4884145	REC_WORD	wordpools/wasnorm_wordpool_576.txt	LTP251	ltpFR2	1	19	SCISSORS	1250	n/a	n/a	0	0	0
4887894	REC_WORD	wordpools/wasnorm_wordpool_576.txt	LTP251	ltpFR2	1	19	VALLEY	1545	n/a	n/a	0	0	0
4903382	REC_WORD	wordpools/wasnorm_wordpool_576.txt	LTP251	ltpFR2	1	19	CRUTCH	417	n/a	n/a	0	0	0
4923763	REC_WORD	wordpools/wasnorm_wordpool_576.txt	LTP251	ltpFR2	1	19	COUSIN	392	n/a	n/a	0	0	0
4948903	WORD	wordpools/wasnorm_wordpool_576.txt	LTP251	ltpFR2	1	20	HANDBAG	684	n/a	n/a	0	0	0
4951382	WORD	wordpools/wasnorm_wordpool_576.txt	LTP251	ltpFR2	1	20	BEEF	113	n/a	n/a	0	0	0
4954158	WORD	wordpools/wasnorm_wordpool_576.txt	LTP251	ltpFR2	1	20	COOK	372	n/a	n/a	0	0	0
4956836	WORD	wordpools/wasnorm_wordpool_576.txt	LTP251	ltpFR2	1	20	PLAYGROUND	1087	n/a	n/a	0	0	0
4959362	WORD	wordpools/wasnorm_wordpool_576.txt	LTP251	ltpFR2	1	20	LODGE	839	n/a	n/a	0	0	0
4961908	WORD	wordpools/wasnorm_wordpool_576.txt	LTP251	ltpFR2	1	20	CANYON	235	n/a	n/a	0	0	0
4964777	WORD	wordpools/wasnorm_wordpool_576.txt	LTP251	ltpFR2	1	20	WIFE	1609	n/a	n/a	0	0	0
4967429	WORD	wordpools/wasnorm_wordpool_576.txt	LTP251	ltpFR2	1	20	SHOVEL	1295	n/a	n/a	0	0	0
4970248	WORD	wordpools/wasnorm_wordpool_576.txt	LTP251	ltpFR2	1	20	BRIEFCASE	175	n/a	n/a	0	0	0
4972751	WORD	wordpools/wasnorm_wordpool_576.txt	LTP251	ltpFR2	1	20	SIBLING	1301	n/a	n/a	0	0	0
4975219	WORD	wordpools/wasnorm_wordpool_576.txt	LTP251	ltpFR2	1	20	STUDENT	1395	n/a	n/a	0	0	0
4977721	WORD	wordpools/wasnorm_wordpool_576.txt	LTP251	ltpFR2	1	20	CLOCK	325	n/a	n/a	0	0	0
4980507	WORD	wordpools/wasnorm_wordpool_576.txt	LTP251	ltpFR2	1	20	HORSE	719	n/a	n/a	0	0	0
4983061	WORD	wordpools/wasnorm_wordpool_576.txt	LTP251	ltpFR2	1	20	APPLE	33	n/a	n/a	0	0	0
4985578	WORD	wordpools/wasnorm_wordpool_576.txt	LTP251	ltpFR2	1	20	BUG	187	n/a	n/a	0	0	0
4988148	WORD	wordpools/wasnorm_wordpool_576.txt	LTP251	ltpFR2	1	20	CRICKET	408	n/a	n/a	0	0	0
4990816	WORD	wordpools/wasnorm_wordpool_576.txt	LTP251	ltpFR2	1	20	BLUEPRINT	142	n/a	n/a	0	0	0
4993402	WORD	wordpools/wasnorm_wordpool_576.txt	LTP251	ltpFR2	1	20	DOUGHNUT	490	n/a	n/a	0	0	0
4995907	WORD	wordpools/wasnorm_wordpool_576.txt	LTP251	ltpFR2	1	20	OZONE	996	n/a	n/a	0	0	0
4998689	WORD	wordpools/wasnorm_wordpool_576.txt	LTP251	ltpFR2	1	20	PEPPER	1047	n/a	n/a	0	0	0
5001360	WORD	wordpools/wasnorm_wordpool_576.txt	LTP251	ltpFR2	1	20	GARLIC	624	n/a	n/a	0	0	0
5004099	WORD	wordpools/wasnorm_wordpool_576.txt	LTP251	ltpFR2	1	20	SLOPE	1328	n/a	n/a	0	0	0
5006950	WORD	wordpools/wasnorm_wordpool_576.txt	LTP251	ltpFR2	1	20	CATTLE	261	n/a	n/a	0	0	0
5009552	WORD	wordpools/wasnorm_wordpool_576.txt	LTP251	ltpFR2	1	20	FOOT	590	n/a	n/a	0	0	0
5011186	START	n/a	LTP251	ltpFR2	1	n/a	n/a	n/a	32	n/a	n/a	n/a	n/a
5012100	DISTRACTOR	n/a	LTP251	ltpFR2	1	20	n/a	n/a	n/a	n/a	0	0	0
5012136	PROB	n/a	LTP251	ltpFR2	1	n/a	n/a	n/a	32	16	4	7	5
5015472	PROB	n/a	LTP251	ltpFR2	1	n/a	n/a	n/a	32	24	9	7	8
5019527	PROB	n/a	LTP251	ltpFR2	1	n/a	n/a	n/a	32	14	3	2	9
5021195	PROB	n/a	LTP251	ltpFR2	1	n/a	n/a	n/a	32	17	9	7	1
5023378	PROB	n/a	LTP251	ltpFR2	1	n/a	n/a	n/a	32	19	8	7	4
5025412	PROB	n/a	LTP251	ltpFR2	1	n/a	n/a	n/a	32	5	1	2	2
5026631	PROB	n/a	LTP251	ltpFR2	1	n/a	n/a	n/a	32	16	1	7	8
5028216	PROB	n/a	LTP251	ltpFR2	1	n/a	n/a	n/a	32	10	2	4	4
5030034	PROB	n/a	LTP251	ltpFR2	1	n/a	n/a	n/a	32	16	2	9	5
5035185	STOP	n/a	LTP251	ltpFR2	1	n/a	n/a	n/a	32	n/a	n/a	n/a	n/a
5037152	REC_START	n/a	LTP251	ltpFR2	1	20	n/a	n/a	n/a	n/a	0	0	0
5038735	REC_WORD	wordpools/wasnorm_wordpool_576.txt	LTP251	ltpFR2	1	20	CATTLE	261	n/a	n/a	0	0	0
5039891	REC_WORD	wordpools/wasnorm_wordpool_576.txt	LTP251	ltpFR2	1	20	LODGE	839	n/a	n/a	0	0	0
5041104	REC_WORD	wordpools/wasnorm_wordpool_576.txt	LTP251	ltpFR2	1	20	FOOT	590	n/a	n/a	0	0	0
5042500	REC_WORD	wordpools/wasnorm_wordpool_576.txt	LTP251	ltpFR2	1	20	BUG	187	n/a	n/a	0	0	0
5043774	REC_WORD	wordpools/wasnorm_wordpool_576.txt	LTP251	ltpFR2	1	20	CRICKET	408	n/a	n/a	0	0	0
5045345	REC_WORD	wordpools/wasnorm_wordpool_576.txt	LTP251	ltpFR2	1	20	GARLIC	624	n/a	n/a	0	0	0
5046950	REC_WORD	wordpools/wasnorm_wordpool_576.txt	LTP251	ltpFR2	1	20	BLUEPRINT	142	n/a	n/a	0	0	0
5048474	REC_WORD	wordpools/wasnorm_wordpool_576.txt	LTP251	ltpFR2	1	20	SIBLING	1301	n/a	n/a	0	0	0
