onset	duration	trial_type	sample	stim_file	subject	experiment	session	trial	task	item_name	item_num	recog_resp	recog_conf	resp	color_r	color_g	color_b	case	font
227.938	n/a	SESS_START	113969	n/a	LTP197	ltpFR	19	n/a	n/a	n/a	n/a	1	2	n/a	n/a	n/a	n/a	n/a	n/a
277.598	n/a	WORD	138799	wordpools/wasnorm_wordpool_less_exclusions.txt	LTP197	ltpFR	19	1	0	SHELTER	1282	0	n/a	1	0.422607421875	0.5869140625	0	upper	amplitud.ttf
281.542	n/a	WORD	140771	wordpools/wasnorm_wordpool_less_exclusions.txt	LTP197	ltpFR	19	1	0	COMMUNITY	356	n/a	n/a	1	0.422607421875	0.5869140625	0	upper	amplitud.ttf
285.486	n/a	WORD	142743	wordpools/wasnorm_wordpool_less_exclusions.txt	LTP197	ltpFR	19	1	1	FARM	552	n/a	n/a	0	0.57763671875	0.412841796875	1	lower	zerothre.ttf
289.316	n/a	WORD	144658	wordpools/wasnorm_wordpool_less_exclusions.txt	LTP197	ltpFR	19	1	1	PERMIT	1051	n/a	n/a	0	0.57763671875	0.412841796875	1	lower	zerothre.ttf
293.524	n/a	WORD	146762	wordpools/wasnorm_wordpool_less_exclusions.txt	LTP197	ltpFR	19	1	0	HERD	705	n/a	n/a	3	0.422607421875	0.5869140625	0	upper	amplitud.ttf
295.074	n/a	KEY_MSG	147537	n/a	LTP197	ltpFR	19	1	n/a	n/a	n/a	n/a	n/a	n/a	n/a	n/a	n/a	n/a	n/a
297.486	n/a	WORD	148743	wordpools/wasnorm_wordpool_less_exclusions.txt	LTP197	ltpFR	19	1	0	CALF	222	n/a	n/a	0	0.422607421875	0.5869140625	0	upper	amplitud.ttf
301.58	n/a	WORD	150790	wordpools/wasnorm_wordpool_less_exclusions.txt	LTP197	ltpFR	19	1	0	PAWN	1030	n/a	n/a	0	0.422607421875	0.5869140625	0	upper	amplitud.ttf
305.724	n/a	WORD	152862	wordpools/wasnorm_wordpool_less_exclusions.txt	LTP197	ltpFR	19	1	0	FAMILY	550	n/a	n/a	1	0.422607421875	0.5869140625	0	upper	amplitud.ttf
309.75	n/a	WORD	154875	wordpools/wasnorm_wordpool_less_exclusions.txt	LTP197	ltpFR	19	1	0	ASSOCIATE	49	n/a	n/a	1	0.422607421875	0.5869140625	0	upper	amplitud.ttf
313.928	n/a	WORD	156964	wordpools/wasnorm_wordpool_less_exclusions.txt	LTP197	ltpFR	19	1	0	FLESH	579	n/a	n/a	1	0.422607421875	0.5869140625	0	upper	amplitud.ttf
318.056	n/a	WORD	159028	wordpools/wasnorm_wordpool_less_exclusions.txt	LTP197	ltpFR	19	1	1	PLUM	1090	n/a	n/a	1	0.57763671875	0.412841796875	1	lower	zerothre.ttf
321.984	n/a	WORD	160992	wordpools/wasnorm_wordpool_less_exclusions.txt	LTP197	ltpFR	19	1	1	PENDULUM	1043	n/a	n/a	0	0.57763671875	0.412841796875	1	lower	zerothre.ttf
326.044	n/a	WORD	163022	wordpools/wasnorm_wordpool_less_exclusions.txt	LTP197	ltpFR	19	1	1	DOLLAR	482	n/a	n/a	0	0.57763671875	0.412841796875	1	lower	zerothre.ttf
329.972	n/a	WORD	164986	wordpools/wasnorm_wordpool_less_exclusions.txt	LTP197	ltpFR	19	1	1	RASPBERRY	1168	n/a	n/a	0	0.57763671875	0.412841796875	1	lower	zerothre.ttf
334.082	n/a	WORD	167041	wordpools/wasnorm_wordpool_less_exclusions.txt	LTP197	ltpFR	19	1	1	RAISIN	1163	n/a	n/a	0	0.57763671875	0.412841796875	1	lower	zerothre.ttf
338.294	n/a	WORD	169147	wordpools/wasnorm_wordpool_less_exclusions.txt	LTP197	ltpFR	19	1	1	NOTEBOOK	959	n/a	n/a	0	0.57763671875	0.412841796875	1	lower	zerothre.ttf
344.252	n/a	REC_START	172126	n/a	LTP197	ltpFR	19	1	n/a	n/a	n/a	n/a	n/a	n/a	n/a	n/a	n/a	n/a	n/a
345.02	n/a	REC_WORD	172510	wordpools/wasnorm_wordpool_less_exclusions.txt	LTP197	ltpFR	19	1	1	NOTEBOOK	959	n/a	n/a	0	n/a	n/a	n/a	n/a	n/a
345.782	n/a	REC_WORD	172891	wordpools/wasnorm_wordpool_less_exclusions.txt	LTP197	ltpFR	19	1	1	DOLLAR	482	n/a	n/a	0	n/a	n/a	n/a	n/a	n/a
346.474	n/a	REC_WORD	173237	wordpools/wasnorm_wordpool_less_exclusions.txt	LTP197	ltpFR	19	1	1	RAISIN	1163	n/a	n/a	0	n/a	n/a	n/a	n/a	n/a
347.144	n/a	REC_WORD	173572	wordpools/wasnorm_wordpool_less_exclusions.txt	LTP197	ltpFR	19	1	1	RASPBERRY	1168	n/a	n/a	0	n/a	n/a	n/a	n/a	n/a
348.068	n/a	REC_WORD	174034	wordpools/wasnorm_wordpool_less_exclusions.txt	LTP197	ltpFR	19	1	1	PLUM	1090	n/a	n/a	1	n/a	n/a	n/a	n/a	n/a
349.24	n/a	REC_WORD	174620	wordpools/wasnorm_wordpool_less_exclusions.txt	LTP197	ltpFR	19	1	0	ASSOCIATE	49	n/a	n/a	1	n/a	n/a	n/a	n/a	n/a
352.548	n/a	REC_WORD	176274	wordpools/wasnorm_wordpool_less_exclusions.txt	LTP197	ltpFR	19	1	0	PAWN	1030	n/a	n/a	0	n/a	n/a	n/a	n/a	n/a
355.132	n/a	REC_WORD	177566	wordpools/wasnorm_wordpool_less_exclusions.txt	LTP197	ltpFR	19	1	n/a	MEAT	883	n/a	n/a	n/a	n/a	n/a	n/a	n/a	n/a
355.914	n/a	REC_WORD	177957	wordpools/wasnorm_wordpool_less_exclusions.txt	LTP197	ltpFR	19	1	0	CALF	222	n/a	n/a	0	n/a	n/a	n/a	n/a	n/a
356.772	n/a	REC_WORD	178386	wordpools/wasnorm_wordpool_less_exclusions.txt	LTP197	ltpFR	19	1	0	HERD	705	n/a	n/a	3	n/a	n/a	n/a	n/a	n/a
358.774	n/a	REC_WORD	179387	wordpools/wasnorm_wordpool_less_exclusions.txt	LTP197	ltpFR	19	1	0	FAMILY	550	n/a	n/a	1	n/a	n/a	n/a	n/a	n/a
360.644	n/a	REC_WORD	180322	wordpools/wasnorm_wordpool_less_exclusions.txt	LTP197	ltpFR	19	1	1	PERMIT	1051	n/a	n/a	0	n/a	n/a	n/a	n/a	n/a
361.536	n/a	REC_WORD	180768	wordpools/wasnorm_wordpool_less_exclusions.txt	LTP197	ltpFR	19	1	0	COMMUNITY	356	n/a	n/a	1	n/a	n/a	n/a	n/a	n/a
362.386	n/a	REC_WORD	181193	wordpools/wasnorm_wordpool_less_exclusions.txt	LTP197	ltpFR	19	1	0	SHELTER	1282	n/a	n/a	1	n/a	n/a	n/a	n/a	n/a
363.234	n/a	REC_WORD	181617	wordpools/wasnorm_wordpool_less_exclusions.txt	LTP197	ltpFR	19	1	1	FARM	552	n/a	n/a	0	n/a	n/a	n/a	n/a	n/a
422.136	n/a	WORD	211068	wordpools/wasnorm_wordpool_less_exclusions.txt	LTP197	ltpFR	19	2	1	ICE	730	n/a	n/a	1	0.57763671875	0.412841796875	1	lower	zerothre.ttf
426.33	n/a	WORD	213165	wordpools/wasnorm_wordpool_less_exclusions.txt	LTP197	ltpFR	19	2	1	LODGE	839	n/a	n/a	1	0.57763671875	0.412841796875	1	lower	zerothre.ttf
430.29	n/a	WORD	215145	wordpools/wasnorm_wordpool_less_exclusions.txt	LTP197	ltpFR	19	2	1	NEST	945	n/a	n/a	1	0.57763671875	0.412841796875	1	lower	zerothre.ttf
434.418	n/a	WORD	217209	wordpools/wasnorm_wordpool_less_exclusions.txt	LTP197	ltpFR	19	2	0	BLUEJAY	141	n/a	n/a	n/a	0.422607421875	0.5869140625	0	upper	amplitud.ttf
437.446	n/a	SLOW_MSG	218723	n/a	LTP197	ltpFR	19	2	n/a	n/a	n/a	n/a	n/a	n/a	n/a	n/a	n/a	n/a	n/a
439.842	n/a	WORD	219921	wordpools/wasnorm_wordpool_less_exclusions.txt	LTP197	ltpFR	19	2	0	HUT	729	n/a	n/a	1	0.422607421875	0.5869140625	0	upper	amplitud.ttf
443.67	n/a	WORD	221835	wordpools/wasnorm_wordpool_less_exclusions.txt	LTP197	ltpFR	19	2	0	TRIBE	1505	n/a	n/a	1	0.422607421875	0.5869140625	0	upper	amplitud.ttf
447.596	n/a	WORD	223798	wordpools/wasnorm_wordpool_less_exclusions.txt	LTP197	ltpFR	19	2	0	BEAVER	109	n/a	n/a	1	0.422607421875	0.5869140625	0	upper	amplitud.ttf
451.79	n/a	WORD	225895	wordpools/wasnorm_wordpool_less_exclusions.txt	LTP197	ltpFR	19	2	0	LOFT	840	n/a	n/a	1	0.422607421875	0.5869140625	0	upper	amplitud.ttf
455.734	n/a	WORD	227867	wordpools/wasnorm_wordpool_less_exclusions.txt	LTP197	ltpFR	19	2	1	FENCE	560	n/a	n/a	0	0.57763671875	0.412841796875	1	lower	zerothre.ttf
459.578	n/a	WORD	229789	wordpools/wasnorm_wordpool_less_exclusions.txt	LTP197	ltpFR	19	2	1	AUTHOR	61	n/a	n/a	0	0.57763671875	0.412841796875	1	lower	zerothre.ttf
463.74	n/a	WORD	231870	wordpools/wasnorm_wordpool_less_exclusions.txt	LTP197	ltpFR	19	2	0	ANIMAL	23	n/a	n/a	1	0.422607421875	0.5869140625	0	upper	amplitud.ttf
467.75	n/a	WORD	233875	wordpools/wasnorm_wordpool_less_exclusions.txt	LTP197	ltpFR	19	2	0	HINGE	709	n/a	n/a	0	0.422607421875	0.5869140625	0	upper	amplitud.ttf
471.71	n/a	WORD	235855	wordpools/wasnorm_wordpool_less_exclusions.txt	LTP197	ltpFR	19	2	0	BROCCOLI	176	n/a	n/a	0	0.422607421875	0.5869140625	0	upper	amplitud.ttf
475.588	n/a	WORD	237794	wordpools/wasnorm_wordpool_less_exclusions.txt	LTP197	ltpFR	19	2	1	TRAY	1498	n/a	n/a	0	0.57763671875	0.412841796875	1	lower	zerothre.ttf
479.45	n/a	WORD	239725	wordpools/wasnorm_wordpool_less_exclusions.txt	LTP197	ltpFR	19	2	1	STALLION	1369	n/a	n/a	1	0.57763671875	0.412841796875	1	lower	zerothre.ttf
483.644	n/a	WORD	241822	wordpools/wasnorm_wordpool_less_exclusions.txt	LTP197	ltpFR	19	2	1	CREATURE	403	n/a	n/a	1	0.57763671875	0.412841796875	1	lower	zerothre.ttf
489.354	n/a	REC_START	244677	n/a	LTP197	ltpFR	19	2	n/a	n/a	n/a	n/a	n/a	n/a	n/a	n/a	n/a	n/a	n/a
490.056	n/a	REC_WORD	245028	wordpools/wasnorm_wordpool_less_exclusions.txt	LTP197	ltpFR	19	2	1	CREATURE	403	n/a	n/a	1	n/a	n/a	n/a	n/a	n/a
490.714	n/a	REC_WORD	245357	wordpools/wasnorm_wordpool_less_exclusions.txt	LTP197	ltpFR	19	2	1	STALLION	1369	n/a	n/a	1	n/a	n/a	n/a	n/a	n/a
491.564	n/a	REC_WORD	245782	wordpools/wasnorm_wordpool_less_exclusions.txt	LTP197	ltpFR	19	2	0	HINGE	709	n/a	n/a	0	n/a	n/a	n/a	n/a	n/a
492.75	n/a	REC_WORD	246375	wordpools/wasnorm_wordpool_less_exclusions.txt	LTP197	ltpFR	19	2	0	BROCCOLI	176	n/a	n/a	0	n/a	n/a	n/a	n/a	n/a
493.484	n/a	REC_WORD	246742	wordpools/wasnorm_wordpool_less_exclusions.txt	LTP197	ltpFR	19	2	1	TRAY	1498	n/a	n/a	0	n/a	n/a	n/a	n/a	n/a
495.324	n/a	REC_WORD	247662	wordpools/wasnorm_wordpool_less_exclusions.txt	LTP197	ltpFR	19	2	1	ICE	730	n/a	n/a	1	n/a	n/a	n/a	n/a	n/a
495.912	n/a	REC_WORD	247956	wordpools/wasnorm_wordpool_less_exclusions.txt	LTP197	ltpFR	19	2	1	FENCE	560	n/a	n/a	0	n/a	n/a	n/a	n/a	n/a
496.97	n/a	REC_WORD	248485	wordpools/wasnorm_wordpool_less_exclusions.txt	LTP197	ltpFR	19	2	0	ANIMAL	23	n/a	n/a	1	n/a	n/a	n/a	n/a	n/a
497.944	n/a	REC_WORD	248972	wordpools/wasnorm_wordpool_less_exclusions.txt	LTP197	ltpFR	19	2	0	BEAVER	109	n/a	n/a	1	n/a	n/a	n/a	n/a	n/a
498.802	n/a	REC_WORD	249401	wordpools/wasnorm_wordpool_less_exclusions.txt	LTP197	ltpFR	19	2	1	AUTHOR	61	n/a	n/a	0	n/a	n/a	n/a	n/a	n/a
501.79	n/a	REC_WORD	250895	wordpools/wasnorm_wordpool_less_exclusions.txt	LTP197	ltpFR	19	2	1	LODGE	839	n/a	n/a	1	n/a	n/a	n/a	n/a	n/a
503.346	n/a	REC_WORD	251673	wordpools/wasnorm_wordpool_less_exclusions.txt	LTP197	ltpFR	19	2	0	TRIBE	1505	n/a	n/a	1	n/a	n/a	n/a	n/a	n/a
504.29	n/a	REC_WORD	252145	wordpools/wasnorm_wordpool_less_exclusions.txt	LTP197	ltpFR	19	2	0	HUT	729	n/a	n/a	1	n/a	n/a	n/a	n/a	n/a
505.87	n/a	REC_WORD	252935	wordpools/wasnorm_wordpool_less_exclusions.txt	LTP197	ltpFR	19	2	1	NEST	945	n/a	n/a	1	n/a	n/a	n/a	n/a	n/a
506.718	n/a	REC_WORD	253359	wordpools/wasnorm_wordpool_less_exclusions.txt	LTP197	ltpFR	19	2	0	LOFT	840	n/a	n/a	1	n/a	n/a	n/a	n/a	n/a
507.796	n/a	REC_WORD	253898	wordpools/wasnorm_wordpool_less_exclusions.txt	LTP197	ltpFR	19	2	0	BLUEJAY	141	n/a	n/a	n/a	n/a	n/a	n/a	n/a	n/a
567.388	n/a	WORD	283694	wordpools/wasnorm_wordpool_less_exclusions.txt	LTP197	ltpFR	19	3	1	TRASH	1497	n/a	n/a	0	0.57763671875	0.412841796875	1	lower	zerothre.ttf
571.216	n/a	WORD	285608	wordpools/wasnorm_wordpool_less_exclusions.txt	LTP197	ltpFR	19	3	1	PRINCESS	1125	n/a	n/a	1	0.57763671875	0.412841796875	1	lower	zerothre.ttf
575.192	n/a	WORD	287596	wordpools/wasnorm_wordpool_less_exclusions.txt	LTP197	ltpFR	19	3	1	BIKE	125	n/a	n/a	0	0.57763671875	0.412841796875	1	lower	zerothre.ttf
579.12	n/a	WORD	289560	wordpools/wasnorm_wordpool_less_exclusions.txt	LTP197	ltpFR	19	3	1	PUMPKIN	1142	n/a	n/a	0	0.57763671875	0.412841796875	1	lower	zerothre.ttf
583.214	n/a	WORD	291607	wordpools/wasnorm_wordpool_less_exclusions.txt	LTP197	ltpFR	19	3	1	APPLE	33	n/a	n/a	0	0.57763671875	0.412841796875	1	lower	zerothre.ttf
587.242	n/a	WORD	293621	wordpools/wasnorm_wordpool_less_exclusions.txt	LTP197	ltpFR	19	3	1	CHEEK	287	n/a	n/a	1	0.57763671875	0.412841796875	1	lower	zerothre.ttf
591.252	n/a	WORD	295626	wordpools/wasnorm_wordpool_less_exclusions.txt	LTP197	ltpFR	19	3	1	EAR	513	n/a	n/a	1	0.57763671875	0.412841796875	1	lower	zerothre.ttf
595.146	n/a	WORD	297573	wordpools/wasnorm_wordpool_less_exclusions.txt	LTP197	ltpFR	19	3	1	FLY	586	n/a	n/a	1	0.57763671875	0.412841796875	1	lower	zerothre.ttf
599.056	n/a	WORD	299528	wordpools/wasnorm_wordpool_less_exclusions.txt	LTP197	ltpFR	19	3	1	MOSQUITO	917	n/a	n/a	1	0.57763671875	0.412841796875	1	lower	zerothre.ttf
602.934	n/a	WORD	301467	wordpools/wasnorm_wordpool_less_exclusions.txt	LTP197	ltpFR	19	3	1	GARAGE	621	n/a	n/a	0	0.57763671875	0.412841796875	1	lower	zerothre.ttf
606.81	n/a	WORD	303405	wordpools/wasnorm_wordpool_less_exclusions.txt	LTP197	ltpFR	19	3	1	INSECT	740	n/a	n/a	1	0.57763671875	0.412841796875	1	lower	zerothre.ttf
611.006	n/a	WORD	305503	wordpools/wasnorm_wordpool_less_exclusions.txt	LTP197	ltpFR	19	3	1	WART	1590	n/a	n/a	0	0.57763671875	0.412841796875	1	lower	zerothre.ttf
615.116	n/a	WORD	307558	wordpools/wasnorm_wordpool_less_exclusions.txt	LTP197	ltpFR	19	3	1	FINGER	567	n/a	n/a	1	0.57763671875	0.412841796875	1	lower	zerothre.ttf
619.194	n/a	WORD	309597	wordpools/wasnorm_wordpool_less_exclusions.txt	LTP197	ltpFR	19	3	1	DUMP	505	n/a	n/a	1	0.57763671875	0.412841796875	1	lower	zerothre.ttf
623.272	n/a	WORD	311636	wordpools/wasnorm_wordpool_less_exclusions.txt	LTP197	ltpFR	19	3	1	WAGON	1578	n/a	n/a	0	0.57763671875	0.412841796875	1	lower	zerothre.ttf
627.282	n/a	WORD	313641	wordpools/wasnorm_wordpool_less_exclusions.txt	LTP197	ltpFR	19	3	1	CARRIAGE	248	n/a	n/a	0	0.57763671875	0.412841796875	1	lower	zerothre.ttf
633.158	n/a	REC_START	316579	n/a	LTP197	ltpFR	19	3	n/a	n/a	n/a	n/a	n/a	n/a	n/a	n/a	n/a	n/a	n/a
633.86	n/a	REC_WORD	316930	wordpools/wasnorm_wordpool_less_exclusions.txt	LTP197	ltpFR	19	3	1	CARRIAGE	248	n/a	n/a	0	n/a	n/a	n/a	n/a	n/a
634.608	n/a	REC_WORD	317304	wordpools/wasnorm_wordpool_less_exclusions.txt	LTP197	ltpFR	19	3	1	WAGON	1578	n/a	n/a	0	n/a	n/a	n/a	n/a	n/a
635.842	n/a	REC_WORD	317921	wordpools/wasnorm_wordpool_less_exclusions.txt	LTP197	ltpFR	19	3	1	PUMPKIN	1142	n/a	n/a	0	n/a	n/a	n/a	n/a	n/a
636.768	n/a	REC_WORD	318384	wordpools/wasnorm_wordpool_less_exclusions.txt	LTP197	ltpFR	19	3	1	INSECT	740	n/a	n/a	1	n/a	n/a	n/a	n/a	n/a
637.398	n/a	REC_WORD	318699	wordpools/wasnorm_wordpool_less_exclusions.txt	LTP197	ltpFR	19	3	1	FLY	586	n/a	n/a	1	n/a	n/a	n/a	n/a	n/a
638.066	n/a	REC_WORD	319033	wordpools/wasnorm_wordpool_less_exclusions.txt	LTP197	ltpFR	19	3	1	MOSQUITO	917	n/a	n/a	1	n/a	n/a	n/a	n/a	n/a
639.066	n/a	REC_WORD_VV	319533	wordpools/wasnorm_wordpool_less_exclusions.txt	LTP197	ltpFR	19	3	n/a	<>	-1	n/a	n/a	n/a	n/a	n/a	n/a	n/a	n/a
646.268	n/a	REC_WORD	323134	wordpools/wasnorm_wordpool_less_exclusions.txt	LTP197	ltpFR	19	3	1	DUMP	505	n/a	n/a	1	n/a	n/a	n/a	n/a	n/a
647.18	n/a	REC_WORD	323590	wordpools/wasnorm_wordpool_less_exclusions.txt	LTP197	ltpFR	19	3	1	GARAGE	621	n/a	n/a	0	n/a	n/a	n/a	n/a	n/a
648.18	n/a	REC_WORD_VV	324090	wordpools/wasnorm_wordpool_less_exclusions.txt	LTP197	ltpFR	19	3	n/a	<>	-1	n/a	n/a	n/a	n/a	n/a	n/a	n/a	n/a
648.378	n/a	REC_WORD	324189	wordpools/wasnorm_wordpool_less_exclusions.txt	LTP197	ltpFR	19	3	1	TRASH	1497	n/a	n/a	0	n/a	n/a	n/a	n/a	n/a
650.108	n/a	REC_WORD	325054	wordpools/wasnorm_wordpool_less_exclusions.txt	LTP197	ltpFR	19	3	1	APPLE	33	n/a	n/a	0	n/a	n/a	n/a	n/a	n/a
650.838	n/a	REC_WORD	325419	wordpools/wasnorm_wordpool_less_exclusions.txt	LTP197	ltpFR	19	3	1	CHEEK	287	n/a	n/a	1	n/a	n/a	n/a	n/a	n/a
651.72	n/a	REC_WORD	325860	wordpools/wasnorm_wordpool_less_exclusions.txt	LTP197	ltpFR	19	3	1	EAR	513	n/a	n/a	1	n/a	n/a	n/a	n/a	n/a
668.438	n/a	REC_WORD	334219	wordpools/wasnorm_wordpool_less_exclusions.txt	LTP197	ltpFR	19	3	1	BIKE	125	n/a	n/a	0	n/a	n/a	n/a	n/a	n/a
713.272	n/a	WORD	356636	wordpools/wasnorm_wordpool_less_exclusions.txt	LTP197	ltpFR	19	4	0	FLIPPER	580	n/a	n/a	1	0.422607421875	0.5869140625	0	upper	amplitud.ttf
717.132	n/a	WORD	358566	wordpools/wasnorm_wordpool_less_exclusions.txt	LTP197	ltpFR	19	4	0	SAGE	1222	n/a	n/a	1	0.422607421875	0.5869140625	0	upper	amplitud.ttf
721.126	n/a	WORD	360563	wordpools/wasnorm_wordpool_less_exclusions.txt	LTP197	ltpFR	19	4	0	LITTER	832	n/a	n/a	1	0.422607421875	0.5869140625	0	upper	amplitud.ttf
725.204	n/a	WORD	362602	wordpools/wasnorm_wordpool_less_exclusions.txt	LTP197	ltpFR	19	4	0	SARDINE	1235	n/a	n/a	1	0.422607421875	0.5869140625	0	upper	amplitud.ttf
729.364	n/a	WORD	364682	wordpools/wasnorm_wordpool_less_exclusions.txt	LTP197	ltpFR	19	4	0	SIBLING	1301	n/a	n/a	1	0.422607421875	0.5869140625	0	upper	amplitud.ttf
733.556	n/a	WORD	366778	wordpools/wasnorm_wordpool_less_exclusions.txt	LTP197	ltpFR	19	4	0	KNAPSACK	783	n/a	n/a	0	0.422607421875	0.5869140625	0	upper	amplitud.ttf
737.75	n/a	WORD	368875	wordpools/wasnorm_wordpool_less_exclusions.txt	LTP197	ltpFR	19	4	0	POCKETBOOK	1094	n/a	n/a	0	0.422607421875	0.5869140625	0	upper	amplitud.ttf
741.594	n/a	WORD	370797	wordpools/wasnorm_wordpool_less_exclusions.txt	LTP197	ltpFR	19	4	0	ROOSTER	1209	n/a	n/a	1	0.422607421875	0.5869140625	0	upper	amplitud.ttf
745.588	n/a	WORD	372794	wordpools/wasnorm_wordpool_less_exclusions.txt	LTP197	ltpFR	19	4	0	COAT	333	n/a	n/a	1	0.422607421875	0.5869140625	0	upper	amplitud.ttf
749.7	n/a	WORD	374850	wordpools/wasnorm_wordpool_less_exclusions.txt	LTP197	ltpFR	19	4	0	SALOON	1228	n/a	n/a	1	0.422607421875	0.5869140625	0	upper	amplitud.ttf
753.794	n/a	WORD	376897	wordpools/wasnorm_wordpool_less_exclusions.txt	LTP197	ltpFR	19	4	0	WAVE	1596	n/a	n/a	1	0.422607421875	0.5869140625	0	upper	amplitud.ttf
757.77	n/a	WORD	378885	wordpools/wasnorm_wordpool_less_exclusions.txt	LTP197	ltpFR	19	4	0	EMPLOYER	532	n/a	n/a	1	0.422607421875	0.5869140625	0	upper	amplitud.ttf
761.848	n/a	WORD	380924	wordpools/wasnorm_wordpool_less_exclusions.txt	LTP197	ltpFR	19	4	0	MANAGER	863	n/a	n/a	1	0.422607421875	0.5869140625	0	upper	amplitud.ttf
766.06	n/a	WORD	383030	wordpools/wasnorm_wordpool_less_exclusions.txt	LTP197	ltpFR	19	4	0	BREAST	171	n/a	n/a	0	0.422607421875	0.5869140625	0	upper	amplitud.ttf
770.004	n/a	WORD	385002	wordpools/wasnorm_wordpool_less_exclusions.txt	LTP197	ltpFR	19	4	0	FOUNTAIN	597	n/a	n/a	0	0.422607421875	0.5869140625	0	upper	amplitud.ttf
773.948	n/a	WORD	386974	wordpools/wasnorm_wordpool_less_exclusions.txt	LTP197	ltpFR	19	4	0	HEAD	695	n/a	n/a	1	0.422607421875	0.5869140625	0	upper	amplitud.ttf
779.724	n/a	REC_START	389862	n/a	LTP197	ltpFR	19	4	n/a	n/a	n/a	n/a	n/a	n/a	n/a	n/a	n/a	n/a	n/a
780.182	n/a	REC_WORD	390091	wordpools/wasnorm_wordpool_less_exclusions.txt	LTP197	ltpFR	19	4	0	FOUNTAIN	597	n/a	n/a	0	n/a	n/a	n/a	n/a	n/a
780.926	n/a	REC_WORD	390463	wordpools/wasnorm_wordpool_less_exclusions.txt	LTP197	ltpFR	19	4	0	HEAD	695	n/a	n/a	1	n/a	n/a	n/a	n/a	n/a
781.944	n/a	REC_WORD	390972	wordpools/wasnorm_wordpool_less_exclusions.txt	LTP197	ltpFR	19	4	0	BREAST	171	n/a	n/a	0	n/a	n/a	n/a	n/a	n/a
783.24	n/a	REC_WORD	391620	wordpools/wasnorm_wordpool_less_exclusions.txt	LTP197	ltpFR	19	4	0	EMPLOYER	532	n/a	n/a	1	n/a	n/a	n/a	n/a	n/a
783.838	n/a	REC_WORD	391919	wordpools/wasnorm_wordpool_less_exclusions.txt	LTP197	ltpFR	19	4	0	SALOON	1228	n/a	n/a	1	n/a	n/a	n/a	n/a	n/a
784.742	n/a	REC_WORD	392371	wordpools/wasnorm_wordpool_less_exclusions.txt	LTP197	ltpFR	19	4	0	MANAGER	863	n/a	n/a	1	n/a	n/a	n/a	n/a	n/a
785.71	n/a	REC_WORD	392855	wordpools/wasnorm_wordpool_less_exclusions.txt	LTP197	ltpFR	19	4	0	SIBLING	1301	n/a	n/a	1	n/a	n/a	n/a	n/a	n/a
788.438	n/a	REC_WORD	394219	wordpools/wasnorm_wordpool_less_exclusions.txt	LTP197	ltpFR	19	4	0	ROOSTER	1209	n/a	n/a	1	n/a	n/a	n/a	n/a	n/a
789.526	n/a	REC_WORD	394763	wordpools/wasnorm_wordpool_less_exclusions.txt	LTP197	ltpFR	19	4	0	KNAPSACK	783	n/a	n/a	0	n/a	n/a	n/a	n/a	n/a
790.526	n/a	REC_WORD_VV	395263	wordpools/wasnorm_wordpool_less_exclusions.txt	LTP197	ltpFR	19	4	n/a	<>	-1	n/a	n/a	n/a	n/a	n/a	n/a	n/a	n/a
791.446	n/a	REC_WORD	395723	wordpools/wasnorm_wordpool_less_exclusions.txt	LTP197	ltpFR	19	4	0	POCKETBOOK	1094	n/a	n/a	0	n/a	n/a	n/a	n/a	n/a
794.066	n/a	REC_WORD	397033	wordpools/wasnorm_wordpool_less_exclusions.txt	LTP197	ltpFR	19	4	0	WAVE	1596	n/a	n/a	1	n/a	n/a	n/a	n/a	n/a
798.586	n/a	REC_WORD	399293	wordpools/wasnorm_wordpool_less_exclusions.txt	LTP197	ltpFR	19	4	0	SAGE	1222	n/a	n/a	1	n/a	n/a	n/a	n/a	n/a
799.458	n/a	REC_WORD	399729	wordpools/wasnorm_wordpool_less_exclusions.txt	LTP197	ltpFR	19	4	0	FLIPPER	580	n/a	n/a	1	n/a	n/a	n/a	n/a	n/a
800.416	n/a	REC_WORD	400208	wordpools/wasnorm_wordpool_less_exclusions.txt	LTP197	ltpFR	19	4	0	LITTER	832	n/a	n/a	1	n/a	n/a	n/a	n/a	n/a
814.624	n/a	REC_WORD	407312	wordpools/wasnorm_wordpool_less_exclusions.txt	LTP197	ltpFR	19	4	0	SARDINE	1235	n/a	n/a	1	n/a	n/a	n/a	n/a	n/a
904.72	n/a	WORD	452360	wordpools/wasnorm_wordpool_less_exclusions.txt	LTP197	ltpFR	19	5	-1	EYELASH	546	n/a	n/a	-1	1.0	1.0	1	upper	Verdana.ttf
908.598	n/a	WORD	454299	wordpools/wasnorm_wordpool_less_exclusions.txt	LTP197	ltpFR	19	5	-1	WHISKERS	1605	n/a	n/a	-1	1.0	1.0	1	upper	Verdana.ttf
912.808	n/a	WORD	456404	wordpools/wasnorm_wordpool_less_exclusions.txt	LTP197	ltpFR	19	5	-1	GARBAGE	622	n/a	n/a	-1	1.0	1.0	1	upper	Verdana.ttf
916.72	n/a	WORD	458360	wordpools/wasnorm_wordpool_less_exclusions.txt	LTP197	ltpFR	19	5	-1	FAUCET	555	n/a	n/a	-1	1.0	1.0	1	upper	Verdana.ttf
920.814	n/a	WORD	460407	wordpools/wasnorm_wordpool_less_exclusions.txt	LTP197	ltpFR	19	5	-1	NET	946	n/a	n/a	-1	1.0	1.0	1	upper	Verdana.ttf
924.874	n/a	WORD	462437	wordpools/wasnorm_wordpool_less_exclusions.txt	LTP197	ltpFR	19	5	-1	BARRACUDA	90	n/a	n/a	-1	1.0	1.0	1	upper	Verdana.ttf
928.802	n/a	WORD	464401	wordpools/wasnorm_wordpool_less_exclusions.txt	LTP197	ltpFR	19	5	-1	CAPE	237	n/a	n/a	-1	1.0	1.0	1	upper	Verdana.ttf
932.828	n/a	WORD	466414	wordpools/wasnorm_wordpool_less_exclusions.txt	LTP197	ltpFR	19	5	-1	PLUMBER	1091	n/a	n/a	-1	1.0	1.0	1	upper	Verdana.ttf
936.74	n/a	WORD	468370	wordpools/wasnorm_wordpool_less_exclusions.txt	LTP197	ltpFR	19	5	-1	JUG	762	n/a	n/a	-1	1.0	1.0	1	upper	Verdana.ttf
940.75	n/a	WORD	470375	wordpools/wasnorm_wordpool_less_exclusions.txt	LTP197	ltpFR	19	5	-1	FRAGRANCE	599	n/a	n/a	-1	1.0	1.0	1	upper	Verdana.ttf
944.794	n/a	WORD	472397	wordpools/wasnorm_wordpool_less_exclusions.txt	LTP197	ltpFR	19	5	-1	LAPEL	800	n/a	n/a	-1	1.0	1.0	1	upper	Verdana.ttf
948.872	n/a	WORD	474436	wordpools/wasnorm_wordpool_less_exclusions.txt	LTP197	ltpFR	19	5	-1	TUB	1514	n/a	n/a	-1	1.0	1.0	1	upper	Verdana.ttf
952.898	n/a	WORD	476449	wordpools/wasnorm_wordpool_less_exclusions.txt	LTP197	ltpFR	19	5	-1	COP	376	n/a	n/a	-1	1.0	1.0	1	upper	Verdana.ttf
956.826	n/a	WORD	478413	wordpools/wasnorm_wordpool_less_exclusions.txt	LTP197	ltpFR	19	5	-1	SPY	1360	n/a	n/a	-1	1.0	1.0	1	upper	Verdana.ttf
960.854	n/a	WORD	480427	wordpools/wasnorm_wordpool_less_exclusions.txt	LTP197	ltpFR	19	5	-1	RECIPE	1175	n/a	n/a	-1	1.0	1.0	1	upper	Verdana.ttf
964.732	n/a	WORD	482366	wordpools/wasnorm_wordpool_less_exclusions.txt	LTP197	ltpFR	19	5	-1	ZIPPER	1636	n/a	n/a	-1	1.0	1.0	1	upper	Verdana.ttf
970.54	n/a	REC_START	485270	n/a	LTP197	ltpFR	19	5	n/a	n/a	n/a	n/a	n/a	n/a	n/a	n/a	n/a	n/a	n/a
971.204	n/a	REC_WORD	485602	wordpools/wasnorm_wordpool_less_exclusions.txt	LTP197	ltpFR	19	5	-1	ZIPPER	1636	n/a	n/a	-1	n/a	n/a	n/a	n/a	n/a
972.006	n/a	REC_WORD	486003	wordpools/wasnorm_wordpool_less_exclusions.txt	LTP197	ltpFR	19	5	-1	RECIPE	1175	n/a	n/a	-1	n/a	n/a	n/a	n/a	n/a
972.914	n/a	REC_WORD	486457	wordpools/wasnorm_wordpool_less_exclusions.txt	LTP197	ltpFR	19	5	-1	COP	376	n/a	n/a	-1	n/a	n/a	n/a	n/a	n/a
973.432	n/a	REC_WORD	486716	wordpools/wasnorm_wordpool_less_exclusions.txt	LTP197	ltpFR	19	5	-1	SPY	1360	n/a	n/a	-1	n/a	n/a	n/a	n/a	n/a
975.618	n/a	REC_WORD	487809	wordpools/wasnorm_wordpool_less_exclusions.txt	LTP197	ltpFR	19	5	-1	TUB	1514	n/a	n/a	-1	n/a	n/a	n/a	n/a	n/a
976.382	n/a	REC_WORD	488191	wordpools/wasnorm_wordpool_less_exclusions.txt	LTP197	ltpFR	19	5	-1	JUG	762	n/a	n/a	-1	n/a	n/a	n/a	n/a	n/a
978.322	n/a	REC_WORD	489161	wordpools/wasnorm_wordpool_less_exclusions.txt	LTP197	ltpFR	19	5	-1	PLUMBER	1091	n/a	n/a	-1	n/a	n/a	n/a	n/a	n/a
979.33	n/a	REC_WORD	489665	wordpools/wasnorm_wordpool_less_exclusions.txt	LTP197	ltpFR	19	5	-1	FAUCET	555	n/a	n/a	-1	n/a	n/a	n/a	n/a	n/a
981.934	n/a	REC_WORD	490967	wordpools/wasnorm_wordpool_less_exclusions.txt	LTP197	ltpFR	19	5	-1	GARBAGE	622	n/a	n/a	-1	n/a	n/a	n/a	n/a	n/a
984.264	n/a	REC_WORD	492132	wordpools/wasnorm_wordpool_less_exclusions.txt	LTP197	ltpFR	19	5	-1	EYELASH	546	n/a	n/a	-1	n/a	n/a	n/a	n/a	n/a
985.276	n/a	REC_WORD	492638	wordpools/wasnorm_wordpool_less_exclusions.txt	LTP197	ltpFR	19	5	-1	WHISKERS	1605	n/a	n/a	-1	n/a	n/a	n/a	n/a	n/a
990.176	n/a	REC_WORD	495088	wordpools/wasnorm_wordpool_less_exclusions.txt	LTP197	ltpFR	19	5	-1	LAPEL	800	n/a	n/a	-1	n/a	n/a	n/a	n/a	n/a
991.912	n/a	REC_WORD	495956	wordpools/wasnorm_wordpool_less_exclusions.txt	LTP197	ltpFR	19	5	-1	CAPE	237	n/a	n/a	-1	n/a	n/a	n/a	n/a	n/a
992.794	n/a	REC_WORD	496397	wordpools/wasnorm_wordpool_less_exclusions.txt	LTP197	ltpFR	19	5	-1	NET	946	n/a	n/a	-1	n/a	n/a	n/a	n/a	n/a
993.558	n/a	REC_WORD	496779	wordpools/wasnorm_wordpool_less_exclusions.txt	LTP197	ltpFR	19	5	-1	BARRACUDA	90	n/a	n/a	-1	n/a	n/a	n/a	n/a	n/a
1048.906	n/a	WORD	524453	wordpools/wasnorm_wordpool_less_exclusions.txt	LTP197	ltpFR	19	6	1	LINEN	825	n/a	n/a	0	0.57763671875	0.412841796875	1	lower	zerothre.ttf
1052.786	n/a	WORD	526393	wordpools/wasnorm_wordpool_less_exclusions.txt	LTP197	ltpFR	19	6	1	CHERRY	293	n/a	n/a	1	0.57763671875	0.412841796875	1	lower	zerothre.ttf
1056.996	n/a	WORD	528498	wordpools/wasnorm_wordpool_less_exclusions.txt	LTP197	ltpFR	19	6	1	GYMNAST	675	n/a	n/a	1	0.57763671875	0.412841796875	1	lower	zerothre.ttf
1060.856	n/a	WORD	530428	wordpools/wasnorm_wordpool_less_exclusions.txt	LTP197	ltpFR	19	6	1	NAPKIN	937	n/a	n/a	0	0.57763671875	0.412841796875	1	lower	zerothre.ttf
1064.768	n/a	WORD	532384	wordpools/wasnorm_wordpool_less_exclusions.txt	LTP197	ltpFR	19	6	1	FELLOW	558	n/a	n/a	0	0.57763671875	0.412841796875	1	lower	zerothre.ttf
1068.91	n/a	WORD	534455	wordpools/wasnorm_wordpool_less_exclusions.txt	LTP197	ltpFR	19	6	0	ANTLER	29	n/a	n/a	1	0.422607421875	0.5869140625	0	upper	amplitud.ttf
1072.738	n/a	WORD	536369	wordpools/wasnorm_wordpool_less_exclusions.txt	LTP197	ltpFR	19	6	0	AFRICA	9	n/a	n/a	1	0.422607421875	0.5869140625	0	upper	amplitud.ttf
1076.882	n/a	WORD	538441	wordpools/wasnorm_wordpool_less_exclusions.txt	LTP197	ltpFR	19	6	0	GLOBE	641	n/a	n/a	1	0.422607421875	0.5869140625	0	upper	amplitud.ttf
1080.776	n/a	WORD	540388	wordpools/wasnorm_wordpool_less_exclusions.txt	LTP197	ltpFR	19	6	0	PLANET	1082	n/a	n/a	1	0.422607421875	0.5869140625	0	upper	amplitud.ttf
1084.854	n/a	WORD	542427	wordpools/wasnorm_wordpool_less_exclusions.txt	LTP197	ltpFR	19	6	0	BALCONY	72	n/a	n/a	1	0.422607421875	0.5869140625	0	upper	amplitud.ttf
1089.032	n/a	WORD	544516	wordpools/wasnorm_wordpool_less_exclusions.txt	LTP197	ltpFR	19	6	0	PORCH	1106	n/a	n/a	1	0.422607421875	0.5869140625	0	upper	amplitud.ttf
1092.858	n/a	WORD	546429	wordpools/wasnorm_wordpool_less_exclusions.txt	LTP197	ltpFR	19	6	1	DIAMOND	458	n/a	n/a	0	0.57763671875	0.412841796875	1	lower	zerothre.ttf
1096.72	n/a	WORD	548360	wordpools/wasnorm_wordpool_less_exclusions.txt	LTP197	ltpFR	19	6	1	VISITOR	1573	n/a	n/a	1	0.57763671875	0.412841796875	1	lower	zerothre.ttf
1100.73	n/a	WORD	550365	wordpools/wasnorm_wordpool_less_exclusions.txt	LTP197	ltpFR	19	6	1	FIG	563	n/a	n/a	0	0.57763671875	0.412841796875	1	lower	zerothre.ttf
1104.69	n/a	WORD	552345	wordpools/wasnorm_wordpool_less_exclusions.txt	LTP197	ltpFR	19	6	0	TROUT	1511	n/a	n/a	0	0.422607421875	0.5869140625	0	upper	amplitud.ttf
1108.618	n/a	WORD	554309	wordpools/wasnorm_wordpool_less_exclusions.txt	LTP197	ltpFR	19	6	0	HOOK	715	n/a	n/a	1	0.422607421875	0.5869140625	0	upper	amplitud.ttf
1114.394	n/a	REC_START	557197	n/a	LTP197	ltpFR	19	6	n/a	n/a	n/a	n/a	n/a	n/a	n/a	n/a	n/a	n/a	n/a
1115.426	n/a	REC_WORD	557713	wordpools/wasnorm_wordpool_less_exclusions.txt	LTP197	ltpFR	19	6	0	HOOK	715	n/a	n/a	1	n/a	n/a	n/a	n/a	n/a
1116.1	n/a	REC_WORD	558050	wordpools/wasnorm_wordpool_less_exclusions.txt	LTP197	ltpFR	19	6	1	DIAMOND	458	n/a	n/a	0	n/a	n/a	n/a	n/a	n/a
1116.734	n/a	REC_WORD	558367	wordpools/wasnorm_wordpool_less_exclusions.txt	LTP197	ltpFR	19	6	1	FIG	563	n/a	n/a	0	n/a	n/a	n/a	n/a	n/a
1117.492	n/a	REC_WORD	558746	wordpools/wasnorm_wordpool_less_exclusions.txt	LTP197	ltpFR	19	6	0	TROUT	1511	n/a	n/a	0	n/a	n/a	n/a	n/a	n/a
1118.346	n/a	REC_WORD	559173	wordpools/wasnorm_wordpool_less_exclusions.txt	LTP197	ltpFR	19	6	0	PORCH	1106	n/a	n/a	1	n/a	n/a	n/a	n/a	n/a
1119.284	n/a	REC_WORD	559642	wordpools/wasnorm_wordpool_less_exclusions.txt	LTP197	ltpFR	19	6	0	BALCONY	72	n/a	n/a	1	n/a	n/a	n/a	n/a	n/a
1123.186	n/a	REC_WORD	561593	wordpools/wasnorm_wordpool_less_exclusions.txt	LTP197	ltpFR	19	6	0	GLOBE	641	n/a	n/a	1	n/a	n/a	n/a	n/a	n/a
1125.236	n/a	REC_WORD	562618	wordpools/wasnorm_wordpool_less_exclusions.txt	LTP197	ltpFR	19	6	n/a	WORLD	1622	n/a	n/a	n/a	n/a	n/a	n/a	n/a	n/a
1125.824	n/a	REC_WORD	562912	wordpools/wasnorm_wordpool_less_exclusions.txt	LTP197	ltpFR	19	6	0	AFRICA	9	n/a	n/a	1	n/a	n/a	n/a	n/a	n/a
1127.49	n/a	REC_WORD	563745	wordpools/wasnorm_wordpool_less_exclusions.txt	LTP197	ltpFR	19	6	0	ANTLER	29	n/a	n/a	1	n/a	n/a	n/a	n/a	n/a
1130.338	n/a	REC_WORD	565169	wordpools/wasnorm_wordpool_less_exclusions.txt	LTP197	ltpFR	19	6	1	GYMNAST	675	n/a	n/a	1	n/a	n/a	n/a	n/a	n/a
1131.338	n/a	REC_WORD_VV	565669	wordpools/wasnorm_wordpool_less_exclusions.txt	LTP197	ltpFR	19	6	n/a	<>	-1	n/a	n/a	n/a	n/a	n/a	n/a	n/a	n/a
1131.77	n/a	REC_WORD	565885	wordpools/wasnorm_wordpool_less_exclusions.txt	LTP197	ltpFR	19	6	1	NAPKIN	937	n/a	n/a	0	n/a	n/a	n/a	n/a	n/a
1132.674	n/a	REC_WORD	566337	wordpools/wasnorm_wordpool_less_exclusions.txt	LTP197	ltpFR	19	6	1	CHERRY	293	n/a	n/a	1	n/a	n/a	n/a	n/a	n/a
1133.502	n/a	REC_WORD	566751	wordpools/wasnorm_wordpool_less_exclusions.txt	LTP197	ltpFR	19	6	1	LINEN	825	n/a	n/a	0	n/a	n/a	n/a	n/a	n/a
1135.832	n/a	REC_WORD	567916	wordpools/wasnorm_wordpool_less_exclusions.txt	LTP197	ltpFR	19	6	1	FELLOW	558	n/a	n/a	0	n/a	n/a	n/a	n/a	n/a
1230.738	n/a	WORD	615369	wordpools/wasnorm_wordpool_less_exclusions.txt	LTP197	ltpFR	19	7	0	BOARD	143	n/a	n/a	1	0.422607421875	0.5869140625	0	upper	amplitud.ttf
1234.932	n/a	WORD	617466	wordpools/wasnorm_wordpool_less_exclusions.txt	LTP197	ltpFR	19	7	0	BLACKBOARD	133	n/a	n/a	1	0.422607421875	0.5869140625	0	upper	amplitud.ttf
1238.826	n/a	WORD	619413	wordpools/wasnorm_wordpool_less_exclusions.txt	LTP197	ltpFR	19	7	0	STRAW	1390	n/a	n/a	0	0.422607421875	0.5869140625	0	upper	amplitud.ttf
1242.67	n/a	WORD	621335	wordpools/wasnorm_wordpool_less_exclusions.txt	LTP197	ltpFR	19	7	0	DRESS	495	n/a	n/a	1	0.422607421875	0.5869140625	0	upper	amplitud.ttf
1246.648	n/a	WORD	623324	wordpools/wasnorm_wordpool_less_exclusions.txt	LTP197	ltpFR	19	7	0	FOREHEAD	592	n/a	n/a	0	0.422607421875	0.5869140625	0	upper	amplitud.ttf
1250.508	n/a	WORD	625254	wordpools/wasnorm_wordpool_less_exclusions.txt	LTP197	ltpFR	19	7	0	SHORE	1291	n/a	n/a	1	0.422607421875	0.5869140625	0	upper	amplitud.ttf
1254.552	n/a	WORD	627276	wordpools/wasnorm_wordpool_less_exclusions.txt	LTP197	ltpFR	19	7	0	FOLLOWER	589	n/a	n/a	1	0.422607421875	0.5869140625	0	upper	amplitud.ttf
1258.514	n/a	WORD	629257	wordpools/wasnorm_wordpool_less_exclusions.txt	LTP197	ltpFR	19	7	0	STOCKING	1383	n/a	n/a	1	0.422607421875	0.5869140625	0	upper	amplitud.ttf
1262.706	n/a	WORD	631353	wordpools/wasnorm_wordpool_less_exclusions.txt	LTP197	ltpFR	19	7	0	CONTAINER	366	n/a	n/a	0	0.422607421875	0.5869140625	0	upper	amplitud.ttf
1266.818	n/a	WORD	633409	wordpools/wasnorm_wordpool_less_exclusions.txt	LTP197	ltpFR	19	7	0	SUBWAY	1400	n/a	n/a	1	0.422607421875	0.5869140625	0	upper	amplitud.ttf
1270.878	n/a	WORD	635439	wordpools/wasnorm_wordpool_less_exclusions.txt	LTP197	ltpFR	19	7	0	SKI	1316	n/a	n/a	1	0.422607421875	0.5869140625	0	upper	amplitud.ttf
1274.94	n/a	WORD	637470	wordpools/wasnorm_wordpool_less_exclusions.txt	LTP197	ltpFR	19	7	0	MOUNTAIN	924	n/a	n/a	1	0.422607421875	0.5869140625	0	upper	amplitud.ttf
1279.018	n/a	WORD	639509	wordpools/wasnorm_wordpool_less_exclusions.txt	LTP197	ltpFR	19	7	0	ELECTRON	522	n/a	n/a	0	0.422607421875	0.5869140625	0	upper	amplitud.ttf
1282.978	n/a	WORD	641489	wordpools/wasnorm_wordpool_less_exclusions.txt	LTP197	ltpFR	19	7	0	CHEMIST	292	n/a	n/a	0	0.422607421875	0.5869140625	0	upper	amplitud.ttf
1287.04	n/a	WORD	643520	wordpools/wasnorm_wordpool_less_exclusions.txt	LTP197	ltpFR	19	7	0	OUTFIT	988	n/a	n/a	1	0.422607421875	0.5869140625	0	upper	amplitud.ttf
1290.916	n/a	WORD	645458	wordpools/wasnorm_wordpool_less_exclusions.txt	LTP197	ltpFR	19	7	0	TRAIN	1494	n/a	n/a	1	0.422607421875	0.5869140625	0	upper	amplitud.ttf
1296.74	n/a	REC_START	648370	n/a	LTP197	ltpFR	19	7	n/a	n/a	n/a	n/a	n/a	n/a	n/a	n/a	n/a	n/a	n/a
1297.728	n/a	REC_WORD	648864	wordpools/wasnorm_wordpool_less_exclusions.txt	LTP197	ltpFR	19	7	0	TRAIN	1494	n/a	n/a	1	n/a	n/a	n/a	n/a	n/a
1298.35	n/a	REC_WORD	649175	wordpools/wasnorm_wordpool_less_exclusions.txt	LTP197	ltpFR	19	7	0	SUBWAY	1400	n/a	n/a	1	n/a	n/a	n/a	n/a	n/a
1299.298	n/a	REC_WORD	649649	wordpools/wasnorm_wordpool_less_exclusions.txt	LTP197	ltpFR	19	7	0	MOUNTAIN	924	n/a	n/a	1	n/a	n/a	n/a	n/a	n/a
1300.152	n/a	REC_WORD	650076	wordpools/wasnorm_wordpool_less_exclusions.txt	LTP197	ltpFR	19	7	0	SKI	1316	n/a	n/a	1	n/a	n/a	n/a	n/a	n/a
1302.268	n/a	REC_WORD	651134	wordpools/wasnorm_wordpool_less_exclusions.txt	LTP197	ltpFR	19	7	0	OUTFIT	988	n/a	n/a	1	n/a	n/a	n/a	n/a	n/a
1304.472	n/a	REC_WORD	652236	wordpools/wasnorm_wordpool_less_exclusions.txt	LTP197	ltpFR	19	7	0	FOLLOWER	589	n/a	n/a	1	n/a	n/a	n/a	n/a	n/a
1305.472	n/a	REC_WORD_VV	652736	wordpools/wasnorm_wordpool_less_exclusions.txt	LTP197	ltpFR	19	7	n/a	<>	-1	n/a	n/a	n/a	n/a	n/a	n/a	n/a	n/a
1305.85	n/a	REC_WORD	652925	wordpools/wasnorm_wordpool_less_exclusions.txt	LTP197	ltpFR	19	7	0	BOARD	143	n/a	n/a	1	n/a	n/a	n/a	n/a	n/a
1306.474	n/a	REC_WORD	653237	wordpools/wasnorm_wordpool_less_exclusions.txt	LTP197	ltpFR	19	7	0	BLACKBOARD	133	n/a	n/a	1	n/a	n/a	n/a	n/a	n/a
1307.276	n/a	REC_WORD	653638	wordpools/wasnorm_wordpool_less_exclusions.txt	LTP197	ltpFR	19	7	0	CHEMIST	292	n/a	n/a	0	n/a	n/a	n/a	n/a	n/a
1308.02	n/a	REC_WORD	654010	wordpools/wasnorm_wordpool_less_exclusions.txt	LTP197	ltpFR	19	7	0	ELECTRON	522	n/a	n/a	0	n/a	n/a	n/a	n/a	n/a
1310.05	n/a	REC_WORD	655025	wordpools/wasnorm_wordpool_less_exclusions.txt	LTP197	ltpFR	19	7	0	STRAW	1390	n/a	n/a	0	n/a	n/a	n/a	n/a	n/a
1311.866	n/a	REC_WORD	655933	wordpools/wasnorm_wordpool_less_exclusions.txt	LTP197	ltpFR	19	7	0	DRESS	495	n/a	n/a	1	n/a	n/a	n/a	n/a	n/a
1321.932	n/a	REC_WORD	660966	wordpools/wasnorm_wordpool_less_exclusions.txt	LTP197	ltpFR	19	7	0	SHORE	1291	n/a	n/a	1	n/a	n/a	n/a	n/a	n/a
1382.414	n/a	WORD	691207	wordpools/wasnorm_wordpool_less_exclusions.txt	LTP197	ltpFR	19	8	1	EWE	542	n/a	n/a	1	0.57763671875	0.412841796875	1	lower	zerothre.ttf
1386.508	n/a	WORD	693254	wordpools/wasnorm_wordpool_less_exclusions.txt	LTP197	ltpFR	19	8	1	QUILT	1151	n/a	n/a	0	0.57763671875	0.412841796875	1	lower	zerothre.ttf
1390.602	n/a	WORD	695301	wordpools/wasnorm_wordpool_less_exclusions.txt	LTP197	ltpFR	19	8	1	ASSISTANT	48	n/a	n/a	1	0.57763671875	0.412841796875	1	lower	zerothre.ttf
1394.43	n/a	WORD	697215	wordpools/wasnorm_wordpool_less_exclusions.txt	LTP197	ltpFR	19	8	0	FRUIT	610	n/a	n/a	0	0.422607421875	0.5869140625	0	upper	amplitud.ttf
1398.274	n/a	WORD	699137	wordpools/wasnorm_wordpool_less_exclusions.txt	LTP197	ltpFR	19	8	0	TRAITOR	1495	n/a	n/a	1	0.422607421875	0.5869140625	0	upper	amplitud.ttf
1402.352	n/a	WORD	701176	wordpools/wasnorm_wordpool_less_exclusions.txt	LTP197	ltpFR	19	8	1	SUSPECT	1415	n/a	n/a	1	0.57763671875	0.412841796875	1	lower	zerothre.ttf
1406.562	n/a	WORD	703281	wordpools/wasnorm_wordpool_less_exclusions.txt	LTP197	ltpFR	19	8	1	POWDER	1117	n/a	n/a	0	0.57763671875	0.412841796875	1	lower	zerothre.ttf
1410.672	n/a	WORD	705336	wordpools/wasnorm_wordpool_less_exclusions.txt	LTP197	ltpFR	19	8	1	BERRY	122	n/a	n/a	0	0.57763671875	0.412841796875	1	lower	zerothre.ttf
1414.866	n/a	WORD	707433	wordpools/wasnorm_wordpool_less_exclusions.txt	LTP197	ltpFR	19	8	0	HARP	689	n/a	n/a	0	0.422607421875	0.5869140625	0	upper	amplitud.ttf
1418.96	n/a	WORD	709480	wordpools/wasnorm_wordpool_less_exclusions.txt	LTP197	ltpFR	19	8	0	KNUCKLE	789	n/a	n/a	0	0.422607421875	0.5869140625	0	upper	amplitud.ttf
1423.104	n/a	WORD	711552	wordpools/wasnorm_wordpool_less_exclusions.txt	LTP197	ltpFR	19	8	0	STAPLER	1372	n/a	n/a	0	0.422607421875	0.5869140625	0	upper	amplitud.ttf
1427.282	n/a	WORD	713641	wordpools/wasnorm_wordpool_less_exclusions.txt	LTP197	ltpFR	19	8	0	FOLDER	588	n/a	n/a	0	0.422607421875	0.5869140625	0	upper	amplitud.ttf
1431.16	n/a	WORD	715580	wordpools/wasnorm_wordpool_less_exclusions.txt	LTP197	ltpFR	19	8	0	DETECTIVE	454	n/a	n/a	0	0.422607421875	0.5869140625	0	upper	amplitud.ttf
1435.352	n/a	WORD	717676	wordpools/wasnorm_wordpool_less_exclusions.txt	LTP197	ltpFR	19	8	0	OZONE	996	n/a	n/a	0	0.422607421875	0.5869140625	0	upper	amplitud.ttf
1439.314	n/a	WORD	719657	wordpools/wasnorm_wordpool_less_exclusions.txt	LTP197	ltpFR	19	8	1	TRICYCLE	1506	n/a	n/a	1	0.57763671875	0.412841796875	1	lower	zerothre.ttf
1443.274	n/a	WORD	721637	wordpools/wasnorm_wordpool_less_exclusions.txt	LTP197	ltpFR	19	8	1	TOENAIL	1474	n/a	n/a	0	0.57763671875	0.412841796875	1	lower	zerothre.ttf
1449.034	n/a	REC_START	724517	n/a	LTP197	ltpFR	19	8	n/a	n/a	n/a	n/a	n/a	n/a	n/a	n/a	n/a	n/a	n/a
1450.554	n/a	REC_WORD	725277	wordpools/wasnorm_wordpool_less_exclusions.txt	LTP197	ltpFR	19	8	1	TOENAIL	1474	n/a	n/a	0	n/a	n/a	n/a	n/a	n/a
1451.896	n/a	REC_WORD	725948	wordpools/wasnorm_wordpool_less_exclusions.txt	LTP197	ltpFR	19	8	0	STAPLER	1372	n/a	n/a	0	n/a	n/a	n/a	n/a	n/a
1452.854	n/a	REC_WORD	726427	wordpools/wasnorm_wordpool_less_exclusions.txt	LTP197	ltpFR	19	8	0	DETECTIVE	454	n/a	n/a	0	n/a	n/a	n/a	n/a	n/a
1453.854	n/a	REC_WORD_VV	726927	wordpools/wasnorm_wordpool_less_exclusions.txt	LTP197	ltpFR	19	8	n/a	<>	-1	n/a	n/a	n/a	n/a	n/a	n/a	n/a	n/a
1454.8	n/a	REC_WORD	727400	wordpools/wasnorm_wordpool_less_exclusions.txt	LTP197	ltpFR	19	8	0	FOLDER	588	n/a	n/a	0	n/a	n/a	n/a	n/a	n/a
1455.618	n/a	REC_WORD	727809	wordpools/wasnorm_wordpool_less_exclusions.txt	LTP197	ltpFR	19	8	0	OZONE	996	n/a	n/a	0	n/a	n/a	n/a	n/a	n/a
1477.574	n/a	REC_WORD	738787	wordpools/wasnorm_wordpool_less_exclusions.txt	LTP197	ltpFR	19	8	1	TRICYCLE	1506	n/a	n/a	1	n/a	n/a	n/a	n/a	n/a
1601.306	n/a	WORD	800653	wordpools/wasnorm_wordpool_less_exclusions.txt	LTP197	ltpFR	19	9	1	MICROPHONE	890	n/a	n/a	0	0.57763671875	0.412841796875	1	lower	zerothre.ttf
1605.434	n/a	WORD	802717	wordpools/wasnorm_wordpool_less_exclusions.txt	LTP197	ltpFR	19	9	1	TOMATO	1476	n/a	n/a	1	0.57763671875	0.412841796875	1	lower	zerothre.ttf
1609.46	n/a	WORD	804730	wordpools/wasnorm_wordpool_less_exclusions.txt	LTP197	ltpFR	19	9	1	PENGUIN	1044	n/a	n/a	1	0.57763671875	0.412841796875	1	lower	zerothre.ttf
1613.654	n/a	WORD	806827	wordpools/wasnorm_wordpool_less_exclusions.txt	LTP197	ltpFR	19	9	1	PEN	1041	n/a	n/a	0	0.57763671875	0.412841796875	1	lower	zerothre.ttf
1617.682	n/a	WORD	808841	wordpools/wasnorm_wordpool_less_exclusions.txt	LTP197	ltpFR	19	9	1	LIP	828	n/a	n/a	0	0.57763671875	0.412841796875	1	lower	zerothre.ttf
1621.776	n/a	WORD	810888	wordpools/wasnorm_wordpool_less_exclusions.txt	LTP197	ltpFR	19	9	1	FARMER	553	n/a	n/a	1	0.57763671875	0.412841796875	1	lower	zerothre.ttf
1625.804	n/a	WORD	812902	wordpools/wasnorm_wordpool_less_exclusions.txt	LTP197	ltpFR	19	9	1	PITCHFORK	1078	n/a	n/a	0	0.57763671875	0.412841796875	1	lower	zerothre.ttf
1629.966	n/a	WORD	814983	wordpools/wasnorm_wordpool_less_exclusions.txt	LTP197	ltpFR	19	9	1	DILL	465	n/a	n/a	0	0.57763671875	0.412841796875	1	lower	zerothre.ttf
1633.792	n/a	WORD	816896	wordpools/wasnorm_wordpool_less_exclusions.txt	LTP197	ltpFR	19	9	1	SEAGULL	1261	n/a	n/a	0	0.57763671875	0.412841796875	1	lower	zerothre.ttf
1637.736	n/a	WORD	818868	wordpools/wasnorm_wordpool_less_exclusions.txt	LTP197	ltpFR	19	9	1	BRICK	172	n/a	n/a	0	0.57763671875	0.412841796875	1	lower	zerothre.ttf
1641.846	n/a	WORD	820923	wordpools/wasnorm_wordpool_less_exclusions.txt	LTP197	ltpFR	19	9	1	PRIEST	1122	n/a	n/a	1	0.57763671875	0.412841796875	1	lower	zerothre.ttf
1645.674	n/a	WORD	822837	wordpools/wasnorm_wordpool_less_exclusions.txt	LTP197	ltpFR	19	9	1	RADISH	1158	n/a	n/a	0	0.57763671875	0.412841796875	1	lower	zerothre.ttf
1649.652	n/a	WORD	824826	wordpools/wasnorm_wordpool_less_exclusions.txt	LTP197	ltpFR	19	9	1	WRITER	1627	n/a	n/a	1	0.57763671875	0.412841796875	1	lower	zerothre.ttf
1653.762	n/a	WORD	826881	wordpools/wasnorm_wordpool_less_exclusions.txt	LTP197	ltpFR	19	9	1	PUBLISHER	1137	n/a	n/a	1	0.57763671875	0.412841796875	1	lower	zerothre.ttf
1657.84	n/a	WORD	828920	wordpools/wasnorm_wordpool_less_exclusions.txt	LTP197	ltpFR	19	9	1	SHIRT	1287	n/a	n/a	0	0.57763671875	0.412841796875	1	lower	zerothre.ttf
1661.784	n/a	WORD	830892	wordpools/wasnorm_wordpool_less_exclusions.txt	LTP197	ltpFR	19	9	1	LINT	826	n/a	n/a	0	0.57763671875	0.412841796875	1	lower	zerothre.ttf
1667.542	n/a	REC_START	833771	n/a	LTP197	ltpFR	19	9	n/a	n/a	n/a	n/a	n/a	n/a	n/a	n/a	n/a	n/a	n/a
1668.34	n/a	REC_WORD	834170	wordpools/wasnorm_wordpool_less_exclusions.txt	LTP197	ltpFR	19	9	1	WRITER	1627	n/a	n/a	1	n/a	n/a	n/a	n/a	n/a
1669.014	n/a	REC_WORD	834507	wordpools/wasnorm_wordpool_less_exclusions.txt	LTP197	ltpFR	19	9	1	PUBLISHER	1137	n/a	n/a	1	n/a	n/a	n/a	n/a	n/a
1669.968	n/a	REC_WORD	834984	wordpools/wasnorm_wordpool_less_exclusions.txt	LTP197	ltpFR	19	9	1	LINT	826	n/a	n/a	0	n/a	n/a	n/a	n/a	n/a
1673.906	n/a	REC_WORD	836953	wordpools/wasnorm_wordpool_less_exclusions.txt	LTP197	ltpFR	19	9	1	TOMATO	1476	n/a	n/a	1	n/a	n/a	n/a	n/a	n/a
1675.434	n/a	REC_WORD	837717	wordpools/wasnorm_wordpool_less_exclusions.txt	LTP197	ltpFR	19	9	1	PEN	1041	n/a	n/a	0	n/a	n/a	n/a	n/a	n/a
1676.98	n/a	REC_WORD	838490	wordpools/wasnorm_wordpool_less_exclusions.txt	LTP197	ltpFR	19	9	1	LIP	828	n/a	n/a	0	n/a	n/a	n/a	n/a	n/a
1677.824	n/a	REC_WORD	838912	wordpools/wasnorm_wordpool_less_exclusions.txt	LTP197	ltpFR	19	9	1	PENGUIN	1044	n/a	n/a	1	n/a	n/a	n/a	n/a	n/a
1678.686	n/a	REC_WORD	839343	wordpools/wasnorm_wordpool_less_exclusions.txt	LTP197	ltpFR	19	9	1	MICROPHONE	890	n/a	n/a	0	n/a	n/a	n/a	n/a	n/a
1679.602	n/a	REC_WORD	839801	wordpools/wasnorm_wordpool_less_exclusions.txt	LTP197	ltpFR	19	9	1	FARMER	553	n/a	n/a	1	n/a	n/a	n/a	n/a	n/a
1680.468	n/a	REC_WORD	840234	wordpools/wasnorm_wordpool_less_exclusions.txt	LTP197	ltpFR	19	9	1	PITCHFORK	1078	n/a	n/a	0	n/a	n/a	n/a	n/a	n/a
1682.574	n/a	REC_WORD	841287	wordpools/wasnorm_wordpool_less_exclusions.txt	LTP197	ltpFR	19	9	1	SEAGULL	1261	n/a	n/a	0	n/a	n/a	n/a	n/a	n/a
1684.764	n/a	REC_WORD	842382	wordpools/wasnorm_wordpool_less_exclusions.txt	LTP197	ltpFR	19	9	1	BRICK	172	n/a	n/a	0	n/a	n/a	n/a	n/a	n/a
1751.318	n/a	WORD	875659	wordpools/wasnorm_wordpool_less_exclusions.txt	LTP197	ltpFR	19	10	0	PIGEON	1065	n/a	n/a	1	0.422607421875	0.5869140625	0	upper	amplitud.ttf
1755.412	n/a	WORD	877706	wordpools/wasnorm_wordpool_less_exclusions.txt	LTP197	ltpFR	19	10	0	PAGE	1001	n/a	n/a	1	0.422607421875	0.5869140625	0	upper	amplitud.ttf
1759.604	n/a	WORD	879802	wordpools/wasnorm_wordpool_less_exclusions.txt	LTP197	ltpFR	19	10	0	SLACKS	1323	n/a	n/a	0	0.422607421875	0.5869140625	0	upper	amplitud.ttf
1763.6	n/a	WORD	881800	wordpools/wasnorm_wordpool_less_exclusions.txt	LTP197	ltpFR	19	10	0	WINGS	1614	n/a	n/a	0	0.422607421875	0.5869140625	0	upper	amplitud.ttf
1767.428	n/a	WORD	883714	wordpools/wasnorm_wordpool_less_exclusions.txt	LTP197	ltpFR	19	10	0	SQUID	1361	n/a	n/a	0	0.422607421875	0.5869140625	0	upper	amplitud.ttf
1771.572	n/a	WORD	885786	wordpools/wasnorm_wordpool_less_exclusions.txt	LTP197	ltpFR	19	10	1	STICKER	1382	n/a	n/a	0	0.57763671875	0.412841796875	1	lower	zerothre.ttf
1775.582	n/a	WORD	887791	wordpools/wasnorm_wordpool_less_exclusions.txt	LTP197	ltpFR	19	10	1	VAN	1548	n/a	n/a	0	0.57763671875	0.412841796875	1	lower	zerothre.ttf
1779.642	n/a	WORD	889821	wordpools/wasnorm_wordpool_less_exclusions.txt	LTP197	ltpFR	19	10	1	MECHANIC	884	n/a	n/a	0	0.57763671875	0.412841796875	1	lower	zerothre.ttf
1783.604	n/a	WORD	891802	wordpools/wasnorm_wordpool_less_exclusions.txt	LTP197	ltpFR	19	10	1	BUREAU	199	n/a	n/a	0	0.57763671875	0.412841796875	1	lower	zerothre.ttf
1787.814	n/a	WORD	893907	wordpools/wasnorm_wordpool_less_exclusions.txt	LTP197	ltpFR	19	10	0	SKATE	1313	n/a	n/a	0	0.422607421875	0.5869140625	0	upper	amplitud.ttf
1791.708	n/a	WORD	895854	wordpools/wasnorm_wordpool_less_exclusions.txt	LTP197	ltpFR	19	10	0	DUST	508	n/a	n/a	0	0.422607421875	0.5869140625	0	upper	amplitud.ttf
1795.718	n/a	WORD	897859	wordpools/wasnorm_wordpool_less_exclusions.txt	LTP197	ltpFR	19	10	0	MATCH	878	n/a	n/a	0	0.422607421875	0.5869140625	0	upper	amplitud.ttf
1799.662	n/a	WORD	899831	wordpools/wasnorm_wordpool_less_exclusions.txt	LTP197	ltpFR	19	10	1	RECORD	1176	n/a	n/a	0	0.57763671875	0.412841796875	1	lower	zerothre.ttf
1803.556	n/a	WORD	901778	wordpools/wasnorm_wordpool_less_exclusions.txt	LTP197	ltpFR	19	10	1	IDOL	733	n/a	n/a	1	0.57763671875	0.412841796875	1	lower	zerothre.ttf
1807.568	n/a	WORD	903784	wordpools/wasnorm_wordpool_less_exclusions.txt	LTP197	ltpFR	19	10	1	HERO	706	n/a	n/a	1	0.57763671875	0.412841796875	1	lower	zerothre.ttf
1811.494	n/a	WORD	905747	wordpools/wasnorm_wordpool_less_exclusions.txt	LTP197	ltpFR	19	10	1	BULB	192	n/a	n/a	0	0.57763671875	0.412841796875	1	lower	zerothre.ttf
1817.222	n/a	REC_START	908611	n/a	LTP197	ltpFR	19	10	n/a	n/a	n/a	n/a	n/a	n/a	n/a	n/a	n/a	n/a	n/a
1819.316	n/a	REC_WORD	909658	wordpools/wasnorm_wordpool_less_exclusions.txt	LTP197	ltpFR	19	10	1	BULB	192	n/a	n/a	0	n/a	n/a	n/a	n/a	n/a
1820.11	n/a	REC_WORD	910055	wordpools/wasnorm_wordpool_less_exclusions.txt	LTP197	ltpFR	19	10	0	PAGE	1001	n/a	n/a	1	n/a	n/a	n/a	n/a	n/a
1820.934	n/a	REC_WORD	910467	wordpools/wasnorm_wordpool_less_exclusions.txt	LTP197	ltpFR	19	10	0	SLACKS	1323	n/a	n/a	0	n/a	n/a	n/a	n/a	n/a
1821.726	n/a	REC_WORD	910863	wordpools/wasnorm_wordpool_less_exclusions.txt	LTP197	ltpFR	19	10	1	VAN	1548	n/a	n/a	0	n/a	n/a	n/a	n/a	n/a
1822.728	n/a	REC_WORD	911364	wordpools/wasnorm_wordpool_less_exclusions.txt	LTP197	ltpFR	19	10	1	MECHANIC	884	n/a	n/a	0	n/a	n/a	n/a	n/a	n/a
1823.728	n/a	REC_WORD_VV	911864	wordpools/wasnorm_wordpool_less_exclusions.txt	LTP197	ltpFR	19	10	n/a	<>	-1	n/a	n/a	n/a	n/a	n/a	n/a	n/a	n/a
1829.364	n/a	REC_WORD	914682	wordpools/wasnorm_wordpool_less_exclusions.txt	LTP197	ltpFR	19	10	0	PIGEON	1065	n/a	n/a	1	n/a	n/a	n/a	n/a	n/a
1831.318	n/a	REC_WORD	915659	wordpools/wasnorm_wordpool_less_exclusions.txt	LTP197	ltpFR	19	10	1	STICKER	1382	n/a	n/a	0	n/a	n/a	n/a	n/a	n/a
1932.234	n/a	WORD	966117	wordpools/wasnorm_wordpool_less_exclusions.txt	LTP197	ltpFR	19	11	-1	STRANGER	1389	n/a	n/a	-1	1.0	1.0	1	upper	Verdana.ttf
1936.062	n/a	WORD	968031	wordpools/wasnorm_wordpool_less_exclusions.txt	LTP197	ltpFR	19	11	-1	FRIEND	606	n/a	n/a	-1	1.0	1.0	1	upper	Verdana.ttf
1940.272	n/a	WORD	970136	wordpools/wasnorm_wordpool_less_exclusions.txt	LTP197	ltpFR	19	11	-1	GRILL	661	n/a	n/a	-1	1.0	1.0	1	upper	Verdana.ttf
1944.4	n/a	WORD	972200	wordpools/wasnorm_wordpool_less_exclusions.txt	LTP197	ltpFR	19	11	-1	SKETCH	1315	n/a	n/a	-1	1.0	1.0	1	upper	Verdana.ttf
1948.476	n/a	WORD	974238	wordpools/wasnorm_wordpool_less_exclusions.txt	LTP197	ltpFR	19	11	-1	OFFICE	972	n/a	n/a	-1	1.0	1.0	1	upper	Verdana.ttf
1952.52	n/a	WORD	976260	wordpools/wasnorm_wordpool_less_exclusions.txt	LTP197	ltpFR	19	11	-1	COLLEGE	346	n/a	n/a	-1	1.0	1.0	1	upper	Verdana.ttf
1956.696	n/a	WORD	978348	wordpools/wasnorm_wordpool_less_exclusions.txt	LTP197	ltpFR	19	11	-1	SPOOL	1356	n/a	n/a	-1	1.0	1.0	1	upper	Verdana.ttf
1960.758	n/a	WORD	980379	wordpools/wasnorm_wordpool_less_exclusions.txt	LTP197	ltpFR	19	11	-1	FRANCE	601	n/a	n/a	-1	1.0	1.0	1	upper	Verdana.ttf
1964.652	n/a	WORD	982326	wordpools/wasnorm_wordpool_less_exclusions.txt	LTP197	ltpFR	19	11	-1	TYPEWRITER	1531	n/a	n/a	-1	1.0	1.0	1	upper	Verdana.ttf
1968.596	n/a	WORD	984298	wordpools/wasnorm_wordpool_less_exclusions.txt	LTP197	ltpFR	19	11	-1	LAGOON	795	n/a	n/a	-1	1.0	1.0	1	upper	Verdana.ttf
1972.74	n/a	WORD	986370	wordpools/wasnorm_wordpool_less_exclusions.txt	LTP197	ltpFR	19	11	-1	PRAIRIE	1118	n/a	n/a	-1	1.0	1.0	1	upper	Verdana.ttf
1976.95	n/a	WORD	988475	wordpools/wasnorm_wordpool_less_exclusions.txt	LTP197	ltpFR	19	11	-1	BARK	87	n/a	n/a	-1	1.0	1.0	1	upper	Verdana.ttf
1981.08	n/a	WORD	990540	wordpools/wasnorm_wordpool_less_exclusions.txt	LTP197	ltpFR	19	11	-1	COLESLAW	344	n/a	n/a	-1	1.0	1.0	1	upper	Verdana.ttf
1985.074	n/a	WORD	992537	wordpools/wasnorm_wordpool_less_exclusions.txt	LTP197	ltpFR	19	11	-1	CHIEF	298	n/a	n/a	-1	1.0	1.0	1	upper	Verdana.ttf
1989.2	n/a	WORD	994600	wordpools/wasnorm_wordpool_less_exclusions.txt	LTP197	ltpFR	19	11	-1	CANAL	226	n/a	n/a	-1	1.0	1.0	1	upper	Verdana.ttf
1993.128	n/a	WORD	996564	wordpools/wasnorm_wordpool_less_exclusions.txt	LTP197	ltpFR	19	11	-1	ENCYCLOPEDIA	533	n/a	n/a	-1	1.0	1.0	1	upper	Verdana.ttf
1998.936	n/a	REC_START	999468	n/a	LTP197	ltpFR	19	11	n/a	n/a	n/a	n/a	n/a	n/a	n/a	n/a	n/a	n/a	n/a
2000.078	n/a	REC_WORD	1000039	wordpools/wasnorm_wordpool_less_exclusions.txt	LTP197	ltpFR	19	11	-1	ENCYCLOPEDIA	533	n/a	n/a	-1	n/a	n/a	n/a	n/a	n/a
2001.078	n/a	REC_WORD_VV	1000539	wordpools/wasnorm_wordpool_less_exclusions.txt	LTP197	ltpFR	19	11	n/a	<>	-1	n/a	n/a	n/a	n/a	n/a	n/a	n/a	n/a
2001.314	n/a	REC_WORD	1000657	wordpools/wasnorm_wordpool_less_exclusions.txt	LTP197	ltpFR	19	11	-1	CANAL	226	n/a	n/a	-1	n/a	n/a	n/a	n/a	n/a
2003.994	n/a	REC_WORD	1001997	wordpools/wasnorm_wordpool_less_exclusions.txt	LTP197	ltpFR	19	11	-1	STRANGER	1389	n/a	n/a	-1	n/a	n/a	n/a	n/a	n/a
2004.994	n/a	REC_WORD_VV	1002497	wordpools/wasnorm_wordpool_less_exclusions.txt	LTP197	ltpFR	19	11	n/a	<>	-1	n/a	n/a	n/a	n/a	n/a	n/a	n/a	n/a
2005.186	n/a	REC_WORD	1002593	wordpools/wasnorm_wordpool_less_exclusions.txt	LTP197	ltpFR	19	11	-1	FRIEND	606	n/a	n/a	-1	n/a	n/a	n/a	n/a	n/a
2006.178	n/a	REC_WORD	1003089	wordpools/wasnorm_wordpool_less_exclusions.txt	LTP197	ltpFR	19	11	-1	GRILL	661	n/a	n/a	-1	n/a	n/a	n/a	n/a	n/a
2007.322	n/a	REC_WORD	1003661	wordpools/wasnorm_wordpool_less_exclusions.txt	LTP197	ltpFR	19	11	-1	SKETCH	1315	n/a	n/a	-1	n/a	n/a	n/a	n/a	n/a
2009.316	n/a	REC_WORD	1004658	wordpools/wasnorm_wordpool_less_exclusions.txt	LTP197	ltpFR	19	11	-1	SPOOL	1356	n/a	n/a	-1	n/a	n/a	n/a	n/a	n/a
2010.23	n/a	REC_WORD	1005115	wordpools/wasnorm_wordpool_less_exclusions.txt	LTP197	ltpFR	19	11	-1	TYPEWRITER	1531	n/a	n/a	-1	n/a	n/a	n/a	n/a	n/a
2011.118	n/a	REC_WORD	1005559	wordpools/wasnorm_wordpool_less_exclusions.txt	LTP197	ltpFR	19	11	-1	OFFICE	972	n/a	n/a	-1	n/a	n/a	n/a	n/a	n/a
2012.384	n/a	REC_WORD	1006192	wordpools/wasnorm_wordpool_less_exclusions.txt	LTP197	ltpFR	19	11	-1	COLLEGE	346	n/a	n/a	-1	n/a	n/a	n/a	n/a	n/a
2013.182	n/a	REC_WORD	1006591	wordpools/wasnorm_wordpool_less_exclusions.txt	LTP197	ltpFR	19	11	-1	FRANCE	601	n/a	n/a	-1	n/a	n/a	n/a	n/a	n/a
2014.898	n/a	REC_WORD	1007449	wordpools/wasnorm_wordpool_less_exclusions.txt	LTP197	ltpFR	19	11	-1	LAGOON	795	n/a	n/a	-1	n/a	n/a	n/a	n/a	n/a
2015.712	n/a	REC_WORD	1007856	wordpools/wasnorm_wordpool_less_exclusions.txt	LTP197	ltpFR	19	11	-1	PRAIRIE	1118	n/a	n/a	-1	n/a	n/a	n/a	n/a	n/a
2099.236	n/a	WORD	1049618	wordpools/wasnorm_wordpool_less_exclusions.txt	LTP197	ltpFR	19	12	0	MOB	904	n/a	n/a	1	0.422607421875	0.5869140625	0	upper	amplitud.ttf
2103.264	n/a	WORD	1051632	wordpools/wasnorm_wordpool_less_exclusions.txt	LTP197	ltpFR	19	12	0	TOASTER	1472	n/a	n/a	0	0.422607421875	0.5869140625	0	upper	amplitud.ttf
2107.258	n/a	WORD	1053629	wordpools/wasnorm_wordpool_less_exclusions.txt	LTP197	ltpFR	19	12	0	COMB	351	n/a	n/a	0	0.422607421875	0.5869140625	0	upper	amplitud.ttf
2111.352	n/a	WORD	1055676	wordpools/wasnorm_wordpool_less_exclusions.txt	LTP197	ltpFR	19	12	0	TOOTH	1481	n/a	n/a	0	0.422607421875	0.5869140625	0	upper	amplitud.ttf
2115.512	n/a	WORD	1057756	wordpools/wasnorm_wordpool_less_exclusions.txt	LTP197	ltpFR	19	12	1	BRACES	164	n/a	n/a	0	0.57763671875	0.412841796875	1	lower	zerothre.ttf
2119.374	n/a	WORD	1059687	wordpools/wasnorm_wordpool_less_exclusions.txt	LTP197	ltpFR	19	12	1	CHEF	290	n/a	n/a	0	0.57763671875	0.412841796875	1	lower	zerothre.ttf
2123.5	n/a	WORD	1061750	wordpools/wasnorm_wordpool_less_exclusions.txt	LTP197	ltpFR	19	12	1	BUGGY	188	n/a	n/a	0	0.57763671875	0.412841796875	1	lower	zerothre.ttf
2127.628	n/a	WORD	1063814	wordpools/wasnorm_wordpool_less_exclusions.txt	LTP197	ltpFR	19	12	1	WHEEL	1603	n/a	n/a	0	0.57763671875	0.412841796875	1	lower	zerothre.ttf
2131.822	n/a	WORD	1065911	wordpools/wasnorm_wordpool_less_exclusions.txt	LTP197	ltpFR	19	12	0	SOCIETY	1338	n/a	n/a	0	0.422607421875	0.5869140625	0	upper	amplitud.ttf
2135.882	n/a	WORD	1067941	wordpools/wasnorm_wordpool_less_exclusions.txt	LTP197	ltpFR	19	12	0	CARPENTER	246	n/a	n/a	1	0.422607421875	0.5869140625	0	upper	amplitud.ttf
2139.776	n/a	WORD	1069888	wordpools/wasnorm_wordpool_less_exclusions.txt	LTP197	ltpFR	19	12	1	WORM	1623	n/a	n/a	1	0.57763671875	0.412841796875	1	lower	zerothre.ttf
2143.82	n/a	WORD	1071910	wordpools/wasnorm_wordpool_less_exclusions.txt	LTP197	ltpFR	19	12	1	COLONEL	348	n/a	n/a	1	0.57763671875	0.412841796875	1	lower	zerothre.ttf
2147.798	n/a	WORD	1073899	wordpools/wasnorm_wordpool_less_exclusions.txt	LTP197	ltpFR	19	12	1	CURTAIN	427	n/a	n/a	1	0.57763671875	0.412841796875	1	lower	zerothre.ttf
2151.908	n/a	WORD	1075954	wordpools/wasnorm_wordpool_less_exclusions.txt	LTP197	ltpFR	19	12	1	SHUTTER	1300	n/a	n/a	0	0.57763671875	0.412841796875	1	lower	zerothre.ttf
2156.12	n/a	WORD	1078060	wordpools/wasnorm_wordpool_less_exclusions.txt	LTP197	ltpFR	19	12	0	JOURNAL	760	n/a	n/a	2	0.422607421875	0.5869140625	0	upper	amplitud.ttf
2157.118	n/a	KEY_MSG	1078559	n/a	LTP197	ltpFR	19	12	n/a	n/a	n/a	n/a	n/a	n/a	n/a	n/a	n/a	n/a	n/a
2160.048	n/a	WORD	1080024	wordpools/wasnorm_wordpool_less_exclusions.txt	LTP197	ltpFR	19	12	0	APARTMENT	30	n/a	n/a	1	0.422607421875	0.5869140625	0	upper	amplitud.ttf
2165.788	n/a	REC_START	1082894	n/a	LTP197	ltpFR	19	12	n/a	n/a	n/a	n/a	n/a	n/a	n/a	n/a	n/a	n/a	n/a
2167.47	n/a	REC_WORD	1083735	wordpools/wasnorm_wordpool_less_exclusions.txt	LTP197	ltpFR	19	12	0	APARTMENT	30	n/a	n/a	1	n/a	n/a	n/a	n/a	n/a
2168.442	n/a	REC_WORD	1084221	wordpools/wasnorm_wordpool_less_exclusions.txt	LTP197	ltpFR	19	12	0	JOURNAL	760	n/a	n/a	2	n/a	n/a	n/a	n/a	n/a
2241.394	n/a	REST_REWET	1120697	n/a	LTP197	ltpFR	19	12	n/a	n/a	n/a	n/a	n/a	n/a	n/a	n/a	n/a	n/a	n/a
2520.446	n/a	WORD	1260223	wordpools/wasnorm_wordpool_less_exclusions.txt	LTP197	ltpFR	19	13	1	HAM	678	n/a	n/a	0	0.57763671875	0.412841796875	1	lower	zerothre.ttf
2524.458	n/a	WORD	1262229	wordpools/wasnorm_wordpool_less_exclusions.txt	LTP197	ltpFR	19	13	1	TWIG	1527	n/a	n/a	0	0.57763671875	0.412841796875	1	lower	zerothre.ttf
2528.518	n/a	WORD	1264259	wordpools/wasnorm_wordpool_less_exclusions.txt	LTP197	ltpFR	19	13	1	ISLAND	745	n/a	n/a	0	0.57763671875	0.412841796875	1	lower	zerothre.ttf
2532.694	n/a	WORD	1266347	wordpools/wasnorm_wordpool_less_exclusions.txt	LTP197	ltpFR	19	13	1	FLEA	577	n/a	n/a	1	0.57763671875	0.412841796875	1	lower	zerothre.ttf
2536.656	n/a	WORD	1268328	wordpools/wasnorm_wordpool_less_exclusions.txt	LTP197	ltpFR	19	13	1	CACTUS	215	n/a	n/a	0	0.57763671875	0.412841796875	1	lower	zerothre.ttf
2540.7	n/a	WORD	1270350	wordpools/wasnorm_wordpool_less_exclusions.txt	LTP197	ltpFR	19	13	1	ROSE	1212	n/a	n/a	0	0.57763671875	0.412841796875	1	lower	zerothre.ttf
2544.56	n/a	WORD	1272280	wordpools/wasnorm_wordpool_less_exclusions.txt	LTP197	ltpFR	19	13	1	REFEREE	1178	n/a	n/a	1	0.57763671875	0.412841796875	1	lower	zerothre.ttf
2548.488	n/a	WORD	1274244	wordpools/wasnorm_wordpool_less_exclusions.txt	LTP197	ltpFR	19	13	1	TICKET	1464	n/a	n/a	0	0.57763671875	0.412841796875	1	lower	zerothre.ttf
2552.566	n/a	WORD	1276283	wordpools/wasnorm_wordpool_less_exclusions.txt	LTP197	ltpFR	19	13	1	TREE	1502	n/a	n/a	1	0.57763671875	0.412841796875	1	lower	zerothre.ttf
2556.444	n/a	WORD	1278222	wordpools/wasnorm_wordpool_less_exclusions.txt	LTP197	ltpFR	19	13	1	DIGGER	464	n/a	n/a	0	0.57763671875	0.412841796875	1	lower	zerothre.ttf
2560.504	n/a	WORD	1280252	wordpools/wasnorm_wordpool_less_exclusions.txt	LTP197	ltpFR	19	13	1	SHOVEL	1295	n/a	n/a	0	0.57763671875	0.412841796875	1	lower	zerothre.ttf
2564.416	n/a	WORD	1282208	wordpools/wasnorm_wordpool_less_exclusions.txt	LTP197	ltpFR	19	13	1	HAND	683	n/a	n/a	0	0.57763671875	0.412841796875	1	lower	zerothre.ttf
2568.442	n/a	WORD	1284221	wordpools/wasnorm_wordpool_less_exclusions.txt	LTP197	ltpFR	19	13	1	FRIAR	605	n/a	n/a	1	0.57763671875	0.412841796875	1	lower	zerothre.ttf
2572.42	n/a	WORD	1286210	wordpools/wasnorm_wordpool_less_exclusions.txt	LTP197	ltpFR	19	13	1	STEW	1380	n/a	n/a	0	0.57763671875	0.412841796875	1	lower	zerothre.ttf
2576.448	n/a	WORD	1288224	wordpools/wasnorm_wordpool_less_exclusions.txt	LTP197	ltpFR	19	13	1	DIAGRAM	456	n/a	n/a	0	0.57763671875	0.412841796875	1	lower	zerothre.ttf
2580.574	n/a	WORD	1290287	wordpools/wasnorm_wordpool_less_exclusions.txt	LTP197	ltpFR	19	13	1	POOL	1103	n/a	n/a	0	0.57763671875	0.412841796875	1	lower	zerothre.ttf
2586.582	n/a	REC_START	1293291	n/a	LTP197	ltpFR	19	13	n/a	n/a	n/a	n/a	n/a	n/a	n/a	n/a	n/a	n/a	n/a
2587.196	n/a	REC_WORD	1293598	wordpools/wasnorm_wordpool_less_exclusions.txt	LTP197	ltpFR	19	13	1	POOL	1103	n/a	n/a	0	n/a	n/a	n/a	n/a	n/a
2587.78	n/a	REC_WORD	1293890	wordpools/wasnorm_wordpool_less_exclusions.txt	LTP197	ltpFR	19	13	1	STEW	1380	n/a	n/a	0	n/a	n/a	n/a	n/a	n/a
2588.604	n/a	REC_WORD	1294302	wordpools/wasnorm_wordpool_less_exclusions.txt	LTP197	ltpFR	19	13	1	FRIAR	605	n/a	n/a	1	n/a	n/a	n/a	n/a	n/a
2589.76	n/a	REC_WORD	1294880	wordpools/wasnorm_wordpool_less_exclusions.txt	LTP197	ltpFR	19	13	1	DIAGRAM	456	n/a	n/a	0	n/a	n/a	n/a	n/a	n/a
2591.926	n/a	REC_WORD	1295963	wordpools/wasnorm_wordpool_less_exclusions.txt	LTP197	ltpFR	19	13	1	REFEREE	1178	n/a	n/a	1	n/a	n/a	n/a	n/a	n/a
2593.012	n/a	REC_WORD	1296506	wordpools/wasnorm_wordpool_less_exclusions.txt	LTP197	ltpFR	19	13	1	DIGGER	464	n/a	n/a	0	n/a	n/a	n/a	n/a	n/a
2593.65	n/a	REC_WORD	1296825	wordpools/wasnorm_wordpool_less_exclusions.txt	LTP197	ltpFR	19	13	1	SHOVEL	1295	n/a	n/a	0	n/a	n/a	n/a	n/a	n/a
2594.3	n/a	REC_WORD	1297150	wordpools/wasnorm_wordpool_less_exclusions.txt	LTP197	ltpFR	19	13	1	HAND	683	n/a	n/a	0	n/a	n/a	n/a	n/a	n/a
2595.726	n/a	REC_WORD	1297863	wordpools/wasnorm_wordpool_less_exclusions.txt	LTP197	ltpFR	19	13	1	TICKET	1464	n/a	n/a	0	n/a	n/a	n/a	n/a	n/a
2597.502	n/a	REC_WORD	1298751	wordpools/wasnorm_wordpool_less_exclusions.txt	LTP197	ltpFR	19	13	1	HAM	678	n/a	n/a	0	n/a	n/a	n/a	n/a	n/a
2598.52	n/a	REC_WORD	1299260	wordpools/wasnorm_wordpool_less_exclusions.txt	LTP197	ltpFR	19	13	1	TWIG	1527	n/a	n/a	0	n/a	n/a	n/a	n/a	n/a
2599.088	n/a	REC_WORD	1299544	wordpools/wasnorm_wordpool_less_exclusions.txt	LTP197	ltpFR	19	13	1	FLEA	577	n/a	n/a	1	n/a	n/a	n/a	n/a	n/a
2606.092	n/a	REC_WORD	1303046	wordpools/wasnorm_wordpool_less_exclusions.txt	LTP197	ltpFR	19	13	1	ISLAND	745	n/a	n/a	0	n/a	n/a	n/a	n/a	n/a
2606.902	n/a	REC_WORD	1303451	wordpools/wasnorm_wordpool_less_exclusions.txt	LTP197	ltpFR	19	13	1	CACTUS	215	n/a	n/a	0	n/a	n/a	n/a	n/a	n/a
2607.902	n/a	REC_WORD_VV	1303951	wordpools/wasnorm_wordpool_less_exclusions.txt	LTP197	ltpFR	19	13	n/a	<>	-1	n/a	n/a	n/a	n/a	n/a	n/a	n/a	n/a
2608.638	n/a	REC_WORD	1304319	wordpools/wasnorm_wordpool_less_exclusions.txt	LTP197	ltpFR	19	13	1	ROSE	1212	n/a	n/a	0	n/a	n/a	n/a	n/a	n/a
2610.748	n/a	REC_WORD	1305374	wordpools/wasnorm_wordpool_less_exclusions.txt	LTP197	ltpFR	19	13	1	TREE	1502	n/a	n/a	1	n/a	n/a	n/a	n/a	n/a
2697.618	n/a	WORD	1348809	wordpools/wasnorm_wordpool_less_exclusions.txt	LTP197	ltpFR	19	14	-1	PAN	1008	n/a	n/a	-1	1.0	1.0	1	upper	Verdana.ttf
2701.662	n/a	WORD	1350831	wordpools/wasnorm_wordpool_less_exclusions.txt	LTP197	ltpFR	19	14	-1	MAPLE	866	n/a	n/a	-1	1.0	1.0	1	upper	Verdana.ttf
2705.572	n/a	WORD	1352786	wordpools/wasnorm_wordpool_less_exclusions.txt	LTP197	ltpFR	19	14	-1	ALBUM	14	n/a	n/a	-1	1.0	1.0	1	upper	Verdana.ttf
2709.75	n/a	WORD	1354875	wordpools/wasnorm_wordpool_less_exclusions.txt	LTP197	ltpFR	19	14	-1	BAND	78	n/a	n/a	-1	1.0	1.0	1	upper	Verdana.ttf
2713.776	n/a	WORD	1356888	wordpools/wasnorm_wordpool_less_exclusions.txt	LTP197	ltpFR	19	14	-1	GROCERIES	663	n/a	n/a	-1	1.0	1.0	1	upper	Verdana.ttf
2717.838	n/a	WORD	1358919	wordpools/wasnorm_wordpool_less_exclusions.txt	LTP197	ltpFR	19	14	-1	MEAL	882	n/a	n/a	-1	1.0	1.0	1	upper	Verdana.ttf
2721.948	n/a	WORD	1360974	wordpools/wasnorm_wordpool_less_exclusions.txt	LTP197	ltpFR	19	14	-1	SLEEVE	1324	n/a	n/a	-1	1.0	1.0	1	upper	Verdana.ttf
2726.11	n/a	WORD	1363055	wordpools/wasnorm_wordpool_less_exclusions.txt	LTP197	ltpFR	19	14	-1	EAGLE	512	n/a	n/a	-1	1.0	1.0	1	upper	Verdana.ttf
2730.086	n/a	WORD	1365043	wordpools/wasnorm_wordpool_less_exclusions.txt	LTP197	ltpFR	19	14	-1	GORILLA	650	n/a	n/a	-1	1.0	1.0	1	upper	Verdana.ttf
2733.964	n/a	WORD	1366982	wordpools/wasnorm_wordpool_less_exclusions.txt	LTP197	ltpFR	19	14	-1	OUTLAW	989	n/a	n/a	-1	1.0	1.0	1	upper	Verdana.ttf
2737.874	n/a	WORD	1368937	wordpools/wasnorm_wordpool_less_exclusions.txt	LTP197	ltpFR	19	14	-1	GUARD	667	n/a	n/a	-1	1.0	1.0	1	upper	Verdana.ttf
2741.952	n/a	WORD	1370976	wordpools/wasnorm_wordpool_less_exclusions.txt	LTP197	ltpFR	19	14	-1	WATERFALL	1595	n/a	n/a	-1	1.0	1.0	1	upper	Verdana.ttf
2746.162	n/a	WORD	1373081	wordpools/wasnorm_wordpool_less_exclusions.txt	LTP197	ltpFR	19	14	-1	PRUNE	1134	n/a	n/a	-1	1.0	1.0	1	upper	Verdana.ttf
2750.14	n/a	WORD	1375070	wordpools/wasnorm_wordpool_less_exclusions.txt	LTP197	ltpFR	19	14	-1	CAGE	218	n/a	n/a	-1	1.0	1.0	1	upper	Verdana.ttf
2754.3	n/a	WORD	1377150	wordpools/wasnorm_wordpool_less_exclusions.txt	LTP197	ltpFR	19	14	-1	JUNGLE	764	n/a	n/a	-1	1.0	1.0	1	upper	Verdana.ttf
2758.494	n/a	WORD	1379247	wordpools/wasnorm_wordpool_less_exclusions.txt	LTP197	ltpFR	19	14	-1	POND	1101	n/a	n/a	-1	1.0	1.0	1	upper	Verdana.ttf
2764.304	n/a	REC_START	1382152	n/a	LTP197	ltpFR	19	14	n/a	n/a	n/a	n/a	n/a	n/a	n/a	n/a	n/a	n/a	n/a
2765.128	n/a	REC_WORD	1382564	wordpools/wasnorm_wordpool_less_exclusions.txt	LTP197	ltpFR	19	14	-1	CAGE	218	n/a	n/a	-1	n/a	n/a	n/a	n/a	n/a
2765.816	n/a	REC_WORD	1382908	wordpools/wasnorm_wordpool_less_exclusions.txt	LTP197	ltpFR	19	14	-1	JUNGLE	764	n/a	n/a	-1	n/a	n/a	n/a	n/a	n/a
2766.544	n/a	REC_WORD	1383272	wordpools/wasnorm_wordpool_less_exclusions.txt	LTP197	ltpFR	19	14	-1	GUARD	667	n/a	n/a	-1	n/a	n/a	n/a	n/a	n/a
2767.182	n/a	REC_WORD	1383591	wordpools/wasnorm_wordpool_less_exclusions.txt	LTP197	ltpFR	19	14	-1	WATERFALL	1595	n/a	n/a	-1	n/a	n/a	n/a	n/a	n/a
2768.106	n/a	REC_WORD	1384053	wordpools/wasnorm_wordpool_less_exclusions.txt	LTP197	ltpFR	19	14	-1	POND	1101	n/a	n/a	-1	n/a	n/a	n/a	n/a	n/a
2769.672	n/a	REC_WORD	1384836	wordpools/wasnorm_wordpool_less_exclusions.txt	LTP197	ltpFR	19	14	-1	GORILLA	650	n/a	n/a	-1	n/a	n/a	n/a	n/a	n/a
2772.466	n/a	REC_WORD	1386233	wordpools/wasnorm_wordpool_less_exclusions.txt	LTP197	ltpFR	19	14	-1	EAGLE	512	n/a	n/a	-1	n/a	n/a	n/a	n/a	n/a
2773.482	n/a	REC_WORD	1386741	wordpools/wasnorm_wordpool_less_exclusions.txt	LTP197	ltpFR	19	14	-1	SLEEVE	1324	n/a	n/a	-1	n/a	n/a	n/a	n/a	n/a
2774.492	n/a	REC_WORD	1387246	wordpools/wasnorm_wordpool_less_exclusions.txt	LTP197	ltpFR	19	14	-1	PAN	1008	n/a	n/a	-1	n/a	n/a	n/a	n/a	n/a
2775.38	n/a	REC_WORD	1387690	wordpools/wasnorm_wordpool_less_exclusions.txt	LTP197	ltpFR	19	14	-1	MAPLE	866	n/a	n/a	-1	n/a	n/a	n/a	n/a	n/a
2776.276	n/a	REC_WORD	1388138	wordpools/wasnorm_wordpool_less_exclusions.txt	LTP197	ltpFR	19	14	-1	PRUNE	1134	n/a	n/a	-1	n/a	n/a	n/a	n/a	n/a
2777.724	n/a	REC_WORD	1388862	wordpools/wasnorm_wordpool_less_exclusions.txt	LTP197	ltpFR	19	14	-1	GROCERIES	663	n/a	n/a	-1	n/a	n/a	n/a	n/a	n/a
2778.626	n/a	REC_WORD	1389313	wordpools/wasnorm_wordpool_less_exclusions.txt	LTP197	ltpFR	19	14	-1	ALBUM	14	n/a	n/a	-1	n/a	n/a	n/a	n/a	n/a
2779.44	n/a	REC_WORD	1389720	wordpools/wasnorm_wordpool_less_exclusions.txt	LTP197	ltpFR	19	14	-1	BAND	78	n/a	n/a	-1	n/a	n/a	n/a	n/a	n/a
2782.328	n/a	REC_WORD	1391164	wordpools/wasnorm_wordpool_less_exclusions.txt	LTP197	ltpFR	19	14	-1	MEAL	882	n/a	n/a	-1	n/a	n/a	n/a	n/a	n/a
2863.174	n/a	WORD	1431587	wordpools/wasnorm_wordpool_less_exclusions.txt	LTP197	ltpFR	19	15	-1	CARAVAN	242	n/a	n/a	-1	1.0	1.0	1	upper	Verdana.ttf
2867.25	n/a	WORD	1433625	wordpools/wasnorm_wordpool_less_exclusions.txt	LTP197	ltpFR	19	15	-1	PASTRY	1022	n/a	n/a	-1	1.0	1.0	1	upper	Verdana.ttf
2871.112	n/a	WORD	1435556	wordpools/wasnorm_wordpool_less_exclusions.txt	LTP197	ltpFR	19	15	-1	CRUMB	416	n/a	n/a	-1	1.0	1.0	1	upper	Verdana.ttf
2875.222	n/a	WORD	1437611	wordpools/wasnorm_wordpool_less_exclusions.txt	LTP197	ltpFR	19	15	-1	BEE	112	n/a	n/a	-1	1.0	1.0	1	upper	Verdana.ttf
2879.432	n/a	WORD	1439716	wordpools/wasnorm_wordpool_less_exclusions.txt	LTP197	ltpFR	19	15	-1	LADY	794	n/a	n/a	-1	1.0	1.0	1	upper	Verdana.ttf
2883.626	n/a	WORD	1441813	wordpools/wasnorm_wordpool_less_exclusions.txt	LTP197	ltpFR	19	15	-1	RECEPTIONIST	1174	n/a	n/a	-1	1.0	1.0	1	upper	Verdana.ttf
2887.62	n/a	WORD	1443810	wordpools/wasnorm_wordpool_less_exclusions.txt	LTP197	ltpFR	19	15	-1	PICNIC	1060	n/a	n/a	-1	1.0	1.0	1	upper	Verdana.ttf
2891.83	n/a	WORD	1445915	wordpools/wasnorm_wordpool_less_exclusions.txt	LTP197	ltpFR	19	15	-1	CONSOLE	364	n/a	n/a	-1	1.0	1.0	1	upper	Verdana.ttf
2895.724	n/a	WORD	1447862	wordpools/wasnorm_wordpool_less_exclusions.txt	LTP197	ltpFR	19	15	-1	TUBE	1516	n/a	n/a	-1	1.0	1.0	1	upper	Verdana.ttf
2899.934	n/a	WORD	1449967	wordpools/wasnorm_wordpool_less_exclusions.txt	LTP197	ltpFR	19	15	-1	BENCH	121	n/a	n/a	-1	1.0	1.0	1	upper	Verdana.ttf
2904.028	n/a	WORD	1452014	wordpools/wasnorm_wordpool_less_exclusions.txt	LTP197	ltpFR	19	15	-1	SEED	1266	n/a	n/a	-1	1.0	1.0	1	upper	Verdana.ttf
2907.956	n/a	WORD	1453978	wordpools/wasnorm_wordpool_less_exclusions.txt	LTP197	ltpFR	19	15	-1	TOURIST	1488	n/a	n/a	-1	1.0	1.0	1	upper	Verdana.ttf
2911.868	n/a	WORD	1455934	wordpools/wasnorm_wordpool_less_exclusions.txt	LTP197	ltpFR	19	15	-1	SUPPER	1411	n/a	n/a	-1	1.0	1.0	1	upper	Verdana.ttf
2916.046	n/a	WORD	1458023	wordpools/wasnorm_wordpool_less_exclusions.txt	LTP197	ltpFR	19	15	-1	WHIP	1604	n/a	n/a	-1	1.0	1.0	1	upper	Verdana.ttf
2920.24	n/a	WORD	1460120	wordpools/wasnorm_wordpool_less_exclusions.txt	LTP197	ltpFR	19	15	-1	LASH	802	n/a	n/a	-1	1.0	1.0	1	upper	Verdana.ttf
2924.184	n/a	WORD	1462092	wordpools/wasnorm_wordpool_less_exclusions.txt	LTP197	ltpFR	19	15	-1	LOBBY	836	n/a	n/a	-1	1.0	1.0	1	upper	Verdana.ttf
2930.242	n/a	REC_START	1465121	n/a	LTP197	ltpFR	19	15	n/a	n/a	n/a	n/a	n/a	n/a	n/a	n/a	n/a	n/a	n/a
2930.794	n/a	REC_WORD	1465397	wordpools/wasnorm_wordpool_less_exclusions.txt	LTP197	ltpFR	19	15	-1	LASH	802	n/a	n/a	-1	n/a	n/a	n/a	n/a	n/a
2931.638	n/a	REC_WORD	1465819	wordpools/wasnorm_wordpool_less_exclusions.txt	LTP197	ltpFR	19	15	-1	WHIP	1604	n/a	n/a	-1	n/a	n/a	n/a	n/a	n/a
2932.272	n/a	REC_WORD	1466136	wordpools/wasnorm_wordpool_less_exclusions.txt	LTP197	ltpFR	19	15	-1	TOURIST	1488	n/a	n/a	-1	n/a	n/a	n/a	n/a	n/a
2933.922	n/a	REC_WORD	1466961	wordpools/wasnorm_wordpool_less_exclusions.txt	LTP197	ltpFR	19	15	-1	RECEPTIONIST	1174	n/a	n/a	-1	n/a	n/a	n/a	n/a	n/a
2934.786	n/a	REC_WORD	1467393	wordpools/wasnorm_wordpool_less_exclusions.txt	LTP197	ltpFR	19	15	-1	CONSOLE	364	n/a	n/a	-1	n/a	n/a	n/a	n/a	n/a
2935.764	n/a	REC_WORD	1467882	wordpools/wasnorm_wordpool_less_exclusions.txt	LTP197	ltpFR	19	15	-1	BENCH	121	n/a	n/a	-1	n/a	n/a	n/a	n/a	n/a
2936.392	n/a	REC_WORD	1468196	wordpools/wasnorm_wordpool_less_exclusions.txt	LTP197	ltpFR	19	15	-1	LOBBY	836	n/a	n/a	-1	n/a	n/a	n/a	n/a	n/a
2938.008	n/a	REC_WORD	1469004	wordpools/wasnorm_wordpool_less_exclusions.txt	LTP197	ltpFR	19	15	-1	CARAVAN	242	n/a	n/a	-1	n/a	n/a	n/a	n/a	n/a
2940.672	n/a	REC_WORD	1470336	wordpools/wasnorm_wordpool_less_exclusions.txt	LTP197	ltpFR	19	15	-1	LADY	794	n/a	n/a	-1	n/a	n/a	n/a	n/a	n/a
2941.556	n/a	REC_WORD	1470778	wordpools/wasnorm_wordpool_less_exclusions.txt	LTP197	ltpFR	19	15	-1	PASTRY	1022	n/a	n/a	-1	n/a	n/a	n/a	n/a	n/a
2942.384	n/a	REC_WORD	1471192	wordpools/wasnorm_wordpool_less_exclusions.txt	LTP197	ltpFR	19	15	-1	CRUMB	416	n/a	n/a	-1	n/a	n/a	n/a	n/a	n/a
2943.336	n/a	REC_WORD	1471668	wordpools/wasnorm_wordpool_less_exclusions.txt	LTP197	ltpFR	19	15	-1	BEE	112	n/a	n/a	-1	n/a	n/a	n/a	n/a	n/a
2946.828	n/a	REC_WORD	1473414	wordpools/wasnorm_wordpool_less_exclusions.txt	LTP197	ltpFR	19	15	-1	PICNIC	1060	n/a	n/a	-1	n/a	n/a	n/a	n/a	n/a
2947.59	n/a	REC_WORD	1473795	wordpools/wasnorm_wordpool_less_exclusions.txt	LTP197	ltpFR	19	15	-1	SUPPER	1411	n/a	n/a	-1	n/a	n/a	n/a	n/a	n/a
2948.854	n/a	REC_WORD	1474427	wordpools/wasnorm_wordpool_less_exclusions.txt	LTP197	ltpFR	19	15	-1	TUBE	1516	n/a	n/a	-1	n/a	n/a	n/a	n/a	n/a
3023.602	n/a	WORD	1511801	wordpools/wasnorm_wordpool_less_exclusions.txt	LTP197	ltpFR	19	16	0	STAGE	1366	n/a	n/a	1	0.422607421875	0.5869140625	0	upper	amplitud.ttf
3027.812	n/a	WORD	1513906	wordpools/wasnorm_wordpool_less_exclusions.txt	LTP197	ltpFR	19	16	0	BARLEY	88	n/a	n/a	1	0.422607421875	0.5869140625	0	upper	amplitud.ttf
3031.856	n/a	WORD	1515928	wordpools/wasnorm_wordpool_less_exclusions.txt	LTP197	ltpFR	19	16	0	BISCUIT	130	n/a	n/a	1	0.422607421875	0.5869140625	0	upper	amplitud.ttf
3035.716	n/a	WORD	1517858	wordpools/wasnorm_wordpool_less_exclusions.txt	LTP197	ltpFR	19	16	0	NECKLACE	940	n/a	n/a	0	0.422607421875	0.5869140625	0	upper	amplitud.ttf
3039.778	n/a	WORD	1519889	wordpools/wasnorm_wordpool_less_exclusions.txt	LTP197	ltpFR	19	16	0	JEWEL	757	n/a	n/a	0	0.422607421875	0.5869140625	0	upper	amplitud.ttf
3043.97	n/a	WORD	1521985	wordpools/wasnorm_wordpool_less_exclusions.txt	LTP197	ltpFR	19	16	0	THICKET	1455	n/a	n/a	0	0.422607421875	0.5869140625	0	upper	amplitud.ttf
3047.932	n/a	WORD	1523966	wordpools/wasnorm_wordpool_less_exclusions.txt	LTP197	ltpFR	19	16	0	WIRE	1616	n/a	n/a	0	0.422607421875	0.5869140625	0	upper	amplitud.ttf
3051.844	n/a	WORD	1525922	wordpools/wasnorm_wordpool_less_exclusions.txt	LTP197	ltpFR	19	16	0	CHEERLEADER	288	n/a	n/a	1	0.422607421875	0.5869140625	0	upper	amplitud.ttf
3055.954	n/a	WORD	1527977	wordpools/wasnorm_wordpool_less_exclusions.txt	LTP197	ltpFR	19	16	0	FOOTBALL	591	n/a	n/a	1	0.422607421875	0.5869140625	0	upper	amplitud.ttf
3060.048	n/a	WORD	1530024	wordpools/wasnorm_wordpool_less_exclusions.txt	LTP197	ltpFR	19	16	0	TIDE	1465	n/a	n/a	1	0.422607421875	0.5869140625	0	upper	amplitud.ttf
3063.994	n/a	WORD	1531997	wordpools/wasnorm_wordpool_less_exclusions.txt	LTP197	ltpFR	19	16	0	CINNAMON	310	n/a	n/a	1	0.422607421875	0.5869140625	0	upper	amplitud.ttf
3067.82	n/a	WORD	1533910	wordpools/wasnorm_wordpool_less_exclusions.txt	LTP197	ltpFR	19	16	0	TURTLE	1522	n/a	n/a	0	0.422607421875	0.5869140625	0	upper	amplitud.ttf
3071.714	n/a	WORD	1535857	wordpools/wasnorm_wordpool_less_exclusions.txt	LTP197	ltpFR	19	16	0	SAP	1233	n/a	n/a	0	0.422607421875	0.5869140625	0	upper	amplitud.ttf
3075.858	n/a	WORD	1537929	wordpools/wasnorm_wordpool_less_exclusions.txt	LTP197	ltpFR	19	16	0	GLUE	643	n/a	n/a	0	0.422607421875	0.5869140625	0	upper	amplitud.ttf
3079.768	n/a	WORD	1539884	wordpools/wasnorm_wordpool_less_exclusions.txt	LTP197	ltpFR	19	16	0	DAM	436	n/a	n/a	0	0.422607421875	0.5869140625	0	upper	amplitud.ttf
3083.862	n/a	WORD	1541931	wordpools/wasnorm_wordpool_less_exclusions.txt	LTP197	ltpFR	19	16	0	KNOB	787	n/a	n/a	0	0.422607421875	0.5869140625	0	upper	amplitud.ttf
3089.688	n/a	REC_START	1544844	n/a	LTP197	ltpFR	19	16	n/a	n/a	n/a	n/a	n/a	n/a	n/a	n/a	n/a	n/a	n/a
3090.77	n/a	REC_WORD	1545385	wordpools/wasnorm_wordpool_less_exclusions.txt	LTP197	ltpFR	19	16	0	KNOB	787	n/a	n/a	0	n/a	n/a	n/a	n/a	n/a
3091.658	n/a	REC_WORD	1545829	wordpools/wasnorm_wordpool_less_exclusions.txt	LTP197	ltpFR	19	16	0	DAM	436	n/a	n/a	0	n/a	n/a	n/a	n/a	n/a
3092.302	n/a	REC_WORD	1546151	wordpools/wasnorm_wordpool_less_exclusions.txt	LTP197	ltpFR	19	16	0	TIDE	1465	n/a	n/a	1	n/a	n/a	n/a	n/a	n/a
3093.084	n/a	REC_WORD	1546542	wordpools/wasnorm_wordpool_less_exclusions.txt	LTP197	ltpFR	19	16	0	TURTLE	1522	n/a	n/a	0	n/a	n/a	n/a	n/a	n/a
3093.808	n/a	REC_WORD	1546904	wordpools/wasnorm_wordpool_less_exclusions.txt	LTP197	ltpFR	19	16	0	SAP	1233	n/a	n/a	0	n/a	n/a	n/a	n/a	n/a
3094.878	n/a	REC_WORD	1547439	wordpools/wasnorm_wordpool_less_exclusions.txt	LTP197	ltpFR	19	16	0	GLUE	643	n/a	n/a	0	n/a	n/a	n/a	n/a	n/a
3096.222	n/a	REC_WORD	1548111	wordpools/wasnorm_wordpool_less_exclusions.txt	LTP197	ltpFR	19	16	0	CHEERLEADER	288	n/a	n/a	1	n/a	n/a	n/a	n/a	n/a
3096.988	n/a	REC_WORD	1548494	wordpools/wasnorm_wordpool_less_exclusions.txt	LTP197	ltpFR	19	16	0	FOOTBALL	591	n/a	n/a	1	n/a	n/a	n/a	n/a	n/a
3100.138	n/a	REC_WORD	1550069	wordpools/wasnorm_wordpool_less_exclusions.txt	LTP197	ltpFR	19	16	0	CINNAMON	310	n/a	n/a	1	n/a	n/a	n/a	n/a	n/a
3101.196	n/a	REC_WORD	1550598	wordpools/wasnorm_wordpool_less_exclusions.txt	LTP197	ltpFR	19	16	0	BARLEY	88	n/a	n/a	1	n/a	n/a	n/a	n/a	n/a
3102.428	n/a	REC_WORD	1551214	wordpools/wasnorm_wordpool_less_exclusions.txt	LTP197	ltpFR	19	16	0	THICKET	1455	n/a	n/a	0	n/a	n/a	n/a	n/a	n/a
3104.418	n/a	REC_WORD	1552209	wordpools/wasnorm_wordpool_less_exclusions.txt	LTP197	ltpFR	19	16	0	STAGE	1366	n/a	n/a	1	n/a	n/a	n/a	n/a	n/a
3105.418	n/a	REC_WORD_VV	1552709	wordpools/wasnorm_wordpool_less_exclusions.txt	LTP197	ltpFR	19	16	n/a	<>	-1	n/a	n/a	n/a	n/a	n/a	n/a	n/a	n/a
3106.104	n/a	REC_WORD	1553052	wordpools/wasnorm_wordpool_less_exclusions.txt	LTP197	ltpFR	19	16	0	BISCUIT	130	n/a	n/a	1	n/a	n/a	n/a	n/a	n/a
3106.828	n/a	REC_WORD	1553414	wordpools/wasnorm_wordpool_less_exclusions.txt	LTP197	ltpFR	19	16	0	WIRE	1616	n/a	n/a	0	n/a	n/a	n/a	n/a	n/a
3108.554	n/a	REC_WORD	1554277	wordpools/wasnorm_wordpool_less_exclusions.txt	LTP197	ltpFR	19	16	0	NECKLACE	940	n/a	n/a	0	n/a	n/a	n/a	n/a	n/a
3109.592	n/a	REC_WORD	1554796	wordpools/wasnorm_wordpool_less_exclusions.txt	LTP197	ltpFR	19	16	0	JEWEL	757	n/a	n/a	0	n/a	n/a	n/a	n/a	n/a
3182.984	n/a	REC_START	1591492	n/a	LTP197	ltpFR	19	n/a	n/a	n/a	n/a	n/a	n/a	n/a	n/a	n/a	n/a	n/a	n/a
3183.95	n/a	FFR_REC_WORD	1591975	wordpools/wasnorm_wordpool_less_exclusions.txt	LTP197	ltpFR	19	n/a	0	FOOTBALL	591	n/a	n/a	1	n/a	n/a	n/a	n/a	n/a
3184.804	n/a	FFR_REC_WORD	1592402	wordpools/wasnorm_wordpool_less_exclusions.txt	LTP197	ltpFR	19	n/a	0	CHEERLEADER	288	n/a	n/a	1	n/a	n/a	n/a	n/a	n/a
3185.782	n/a	FFR_REC_WORD	1592891	wordpools/wasnorm_wordpool_less_exclusions.txt	LTP197	ltpFR	19	n/a	0	BISCUIT	130	n/a	n/a	1	n/a	n/a	n/a	n/a	n/a
3186.55	n/a	FFR_REC_WORD	1593275	wordpools/wasnorm_wordpool_less_exclusions.txt	LTP197	ltpFR	19	n/a	0	NECKLACE	940	n/a	n/a	0	n/a	n/a	n/a	n/a	n/a
3187.528	n/a	FFR_REC_WORD	1593764	wordpools/wasnorm_wordpool_less_exclusions.txt	LTP197	ltpFR	19	n/a	0	JEWEL	757	n/a	n/a	0	n/a	n/a	n/a	n/a	n/a
3189.134	n/a	FFR_REC_WORD	1594567	wordpools/wasnorm_wordpool_less_exclusions.txt	LTP197	ltpFR	19	n/a	0	BARLEY	88	n/a	n/a	1	n/a	n/a	n/a	n/a	n/a
3189.718	n/a	FFR_REC_WORD	1594859	wordpools/wasnorm_wordpool_less_exclusions.txt	LTP197	ltpFR	19	n/a	0	THICKET	1455	n/a	n/a	0	n/a	n/a	n/a	n/a	n/a
3190.386	n/a	FFR_REC_WORD	1595193	wordpools/wasnorm_wordpool_less_exclusions.txt	LTP197	ltpFR	19	n/a	0	CINNAMON	310	n/a	n/a	1	n/a	n/a	n/a	n/a	n/a
3192.436	n/a	FFR_REC_WORD	1596218	wordpools/wasnorm_wordpool_less_exclusions.txt	LTP197	ltpFR	19	n/a	0	TIDE	1465	n/a	n/a	1	n/a	n/a	n/a	n/a	n/a
3193.32	n/a	FFR_REC_WORD	1596660	wordpools/wasnorm_wordpool_less_exclusions.txt	LTP197	ltpFR	19	n/a	0	DAM	436	n/a	n/a	0	n/a	n/a	n/a	n/a	n/a
3194.088	n/a	FFR_REC_WORD	1597044	wordpools/wasnorm_wordpool_less_exclusions.txt	LTP197	ltpFR	19	n/a	0	GLUE	643	n/a	n/a	0	n/a	n/a	n/a	n/a	n/a
3194.558	n/a	FFR_REC_WORD	1597279	wordpools/wasnorm_wordpool_less_exclusions.txt	LTP197	ltpFR	19	n/a	0	SAP	1233	n/a	n/a	0	n/a	n/a	n/a	n/a	n/a
3198.798	n/a	FFR_REC_WORD	1599399	wordpools/wasnorm_wordpool_less_exclusions.txt	LTP197	ltpFR	19	n/a	0	TURTLE	1522	n/a	n/a	0	n/a	n/a	n/a	n/a	n/a
3200.808	n/a	FFR_REC_WORD	1600404	wordpools/wasnorm_wordpool_less_exclusions.txt	LTP197	ltpFR	19	n/a	-1	MAPLE	866	n/a	n/a	-1	n/a	n/a	n/a	n/a	n/a
3202.85	n/a	FFR_REC_WORD	1601425	wordpools/wasnorm_wordpool_less_exclusions.txt	LTP197	ltpFR	19	n/a	-1	PAN	1008	n/a	n/a	-1	n/a	n/a	n/a	n/a	n/a
3203.562	n/a	FFR_REC_WORD	1601781	wordpools/wasnorm_wordpool_less_exclusions.txt	LTP197	ltpFR	19	n/a	-1	GROCERIES	663	n/a	n/a	-1	n/a	n/a	n/a	n/a	n/a
3204.57	n/a	FFR_REC_WORD	1602285	wordpools/wasnorm_wordpool_less_exclusions.txt	LTP197	ltpFR	19	n/a	n/a	DINNER	468	n/a	n/a	n/a	n/a	n/a	n/a	n/a	n/a
3205.168	n/a	FFR_REC_WORD	1602584	wordpools/wasnorm_wordpool_less_exclusions.txt	LTP197	ltpFR	19	n/a	-1	MEAL	882	n/a	n/a	-1	n/a	n/a	n/a	n/a	n/a
3206.54	n/a	FFR_REC_WORD	1603270	wordpools/wasnorm_wordpool_less_exclusions.txt	LTP197	ltpFR	19	n/a	-1	GORILLA	650	n/a	n/a	-1	n/a	n/a	n/a	n/a	n/a
3207.164	n/a	FFR_REC_WORD	1603582	wordpools/wasnorm_wordpool_less_exclusions.txt	LTP197	ltpFR	19	n/a	-1	SLEEVE	1324	n/a	n/a	-1	n/a	n/a	n/a	n/a	n/a
3208.182	n/a	FFR_REC_WORD	1604091	wordpools/wasnorm_wordpool_less_exclusions.txt	LTP197	ltpFR	19	n/a	-1	EAGLE	512	n/a	n/a	-1	n/a	n/a	n/a	n/a	n/a
3208.966	n/a	FFR_REC_WORD	1604483	wordpools/wasnorm_wordpool_less_exclusions.txt	LTP197	ltpFR	19	n/a	-1	GUARD	667	n/a	n/a	-1	n/a	n/a	n/a	n/a	n/a
3209.744	n/a	FFR_REC_WORD	1604872	wordpools/wasnorm_wordpool_less_exclusions.txt	LTP197	ltpFR	19	n/a	-1	CAGE	218	n/a	n/a	-1	n/a	n/a	n/a	n/a	n/a
3210.496	n/a	FFR_REC_WORD	1605248	wordpools/wasnorm_wordpool_less_exclusions.txt	LTP197	ltpFR	19	n/a	-1	JUNGLE	764	n/a	n/a	-1	n/a	n/a	n/a	n/a	n/a
3211.998	n/a	FFR_REC_WORD	1605999	wordpools/wasnorm_wordpool_less_exclusions.txt	LTP197	ltpFR	19	n/a	-1	WATERFALL	1595	n/a	n/a	-1	n/a	n/a	n/a	n/a	n/a
3212.772	n/a	FFR_REC_WORD	1606386	wordpools/wasnorm_wordpool_less_exclusions.txt	LTP197	ltpFR	19	n/a	-1	POND	1101	n/a	n/a	-1	n/a	n/a	n/a	n/a	n/a
3213.524	n/a	FFR_REC_WORD	1606762	wordpools/wasnorm_wordpool_less_exclusions.txt	LTP197	ltpFR	19	n/a	-1	ALBUM	14	n/a	n/a	-1	n/a	n/a	n/a	n/a	n/a
3214.538	n/a	FFR_REC_WORD	1607269	wordpools/wasnorm_wordpool_less_exclusions.txt	LTP197	ltpFR	19	n/a	-1	BAND	78	n/a	n/a	-1	n/a	n/a	n/a	n/a	n/a
3223.816	n/a	FFR_REC_WORD	1611908	wordpools/wasnorm_wordpool_less_exclusions.txt	LTP197	ltpFR	19	n/a	0	FAMILY	550	n/a	n/a	1	n/a	n/a	n/a	n/a	n/a
3224.602	n/a	FFR_REC_WORD	1612301	wordpools/wasnorm_wordpool_less_exclusions.txt	LTP197	ltpFR	19	n/a	0	HERD	705	n/a	n/a	3	n/a	n/a	n/a	n/a	n/a
3225.648	n/a	FFR_REC_WORD	1612824	wordpools/wasnorm_wordpool_less_exclusions.txt	LTP197	ltpFR	19	n/a	0	CALF	222	n/a	n/a	0	n/a	n/a	n/a	n/a	n/a
3226.44	n/a	FFR_REC_WORD	1613220	wordpools/wasnorm_wordpool_less_exclusions.txt	LTP197	ltpFR	19	n/a	n/a	MEAT	883	n/a	n/a	n/a	n/a	n/a	n/a	n/a	n/a
3227.908	n/a	FFR_REC_WORD	1613954	wordpools/wasnorm_wordpool_less_exclusions.txt	LTP197	ltpFR	19	n/a	0	SHELTER	1282	n/a	n/a	1	n/a	n/a	n/a	n/a	n/a
3228.662	n/a	FFR_REC_WORD	1614331	wordpools/wasnorm_wordpool_less_exclusions.txt	LTP197	ltpFR	19	n/a	1	FARM	552	n/a	n/a	0	n/a	n/a	n/a	n/a	n/a
3229.772	n/a	FFR_REC_WORD	1614886	wordpools/wasnorm_wordpool_less_exclusions.txt	LTP197	ltpFR	19	n/a	0	COMMUNITY	356	n/a	n/a	1	n/a	n/a	n/a	n/a	n/a
3230.73	n/a	FFR_REC_WORD	1615365	wordpools/wasnorm_wordpool_less_exclusions.txt	LTP197	ltpFR	19	n/a	1	PERMIT	1051	n/a	n/a	0	n/a	n/a	n/a	n/a	n/a
3238.968	n/a	FFR_REC_WORD	1619484	wordpools/wasnorm_wordpool_less_exclusions.txt	LTP197	ltpFR	19	n/a	0	BEAVER	109	n/a	n/a	1	n/a	n/a	n/a	n/a	n/a
3239.826	n/a	FFR_REC_WORD	1619913	wordpools/wasnorm_wordpool_less_exclusions.txt	LTP197	ltpFR	19	n/a	1	ICE	730	n/a	n/a	1	n/a	n/a	n/a	n/a	n/a
3240.518	n/a	FFR_REC_WORD	1620259	wordpools/wasnorm_wordpool_less_exclusions.txt	LTP197	ltpFR	19	n/a	1	FENCE	560	n/a	n/a	0	n/a	n/a	n/a	n/a	n/a
3242.06	n/a	FFR_REC_WORD	1621030	wordpools/wasnorm_wordpool_less_exclusions.txt	LTP197	ltpFR	19	n/a	1	AUTHOR	61	n/a	n/a	0	n/a	n/a	n/a	n/a	n/a
3244.036	n/a	FFR_REC_WORD	1622018	wordpools/wasnorm_wordpool_less_exclusions.txt	LTP197	ltpFR	19	n/a	1	WRITER	1627	n/a	n/a	1	n/a	n/a	n/a	n/a	n/a
3244.61	n/a	FFR_REC_WORD	1622305	wordpools/wasnorm_wordpool_less_exclusions.txt	LTP197	ltpFR	19	n/a	1	PUBLISHER	1137	n/a	n/a	1	n/a	n/a	n/a	n/a	n/a
3248.664	n/a	FFR_REC_WORD	1624332	wordpools/wasnorm_wordpool_less_exclusions.txt	LTP197	ltpFR	19	n/a	0	HINGE	709	n/a	n/a	0	n/a	n/a	n/a	n/a	n/a
3249.832	n/a	FFR_REC_WORD	1624916	wordpools/wasnorm_wordpool_less_exclusions.txt	LTP197	ltpFR	19	n/a	0	BROCCOLI	176	n/a	n/a	0	n/a	n/a	n/a	n/a	n/a
3250.656	n/a	FFR_REC_WORD	1625328	wordpools/wasnorm_wordpool_less_exclusions.txt	LTP197	ltpFR	19	n/a	-1	PAN	1008	n/a	n/a	-1	n/a	n/a	n/a	n/a	n/a
3252.432	n/a	FFR_REC_WORD	1626216	wordpools/wasnorm_wordpool_less_exclusions.txt	LTP197	ltpFR	19	n/a	0	LOFT	840	n/a	n/a	1	n/a	n/a	n/a	n/a	n/a
3256.422	n/a	FFR_REC_WORD	1628211	wordpools/wasnorm_wordpool_less_exclusions.txt	LTP197	ltpFR	19	n/a	0	HUT	729	n/a	n/a	1	n/a	n/a	n/a	n/a	n/a
3257.13	n/a	FFR_REC_WORD	1628565	wordpools/wasnorm_wordpool_less_exclusions.txt	LTP197	ltpFR	19	n/a	1	LODGE	839	n/a	n/a	1	n/a	n/a	n/a	n/a	n/a
3258.448	n/a	FFR_REC_WORD	1629224	wordpools/wasnorm_wordpool_less_exclusions.txt	LTP197	ltpFR	19	n/a	1	NEST	945	n/a	n/a	1	n/a	n/a	n/a	n/a	n/a
3259.286	n/a	FFR_REC_WORD	1629643	wordpools/wasnorm_wordpool_less_exclusions.txt	LTP197	ltpFR	19	n/a	0	BLUEJAY	141	n/a	n/a	n/a	n/a	n/a	n/a	n/a	n/a
3260.942	n/a	FFR_REC_WORD	1630471	wordpools/wasnorm_wordpool_less_exclusions.txt	LTP197	ltpFR	19	n/a	0	PIGEON	1065	n/a	n/a	1	n/a	n/a	n/a	n/a	n/a
3261.706	n/a	FFR_REC_WORD	1630853	wordpools/wasnorm_wordpool_less_exclusions.txt	LTP197	ltpFR	19	n/a	0	PAGE	1001	n/a	n/a	1	n/a	n/a	n/a	n/a	n/a
3262.364	n/a	FFR_REC_WORD	1631182	wordpools/wasnorm_wordpool_less_exclusions.txt	LTP197	ltpFR	19	n/a	0	SLACKS	1323	n/a	n/a	0	n/a	n/a	n/a	n/a	n/a
3263.364	n/a	FFR_REC_WORD_VV	1631682	wordpools/wasnorm_wordpool_less_exclusions.txt	LTP197	ltpFR	19	n/a	n/a	<>	-1	n/a	n/a	n/a	n/a	n/a	n/a	n/a	n/a
3275.44	n/a	FFR_REC_WORD	1637720	wordpools/wasnorm_wordpool_less_exclusions.txt	LTP197	ltpFR	19	n/a	1	PITCHFORK	1078	n/a	n/a	0	n/a	n/a	n/a	n/a	n/a
3279.984	n/a	FFR_REC_WORD	1639992	wordpools/wasnorm_wordpool_less_exclusions.txt	LTP197	ltpFR	19	n/a	0	SALOON	1228	n/a	n/a	1	n/a	n/a	n/a	n/a	n/a
3280.984	n/a	FFR_REC_WORD_VV	1640492	wordpools/wasnorm_wordpool_less_exclusions.txt	LTP197	ltpFR	19	n/a	n/a	<>	-1	n/a	n/a	n/a	n/a	n/a	n/a	n/a	n/a
3285.568	n/a	FFR_REC_WORD	1642784	wordpools/wasnorm_wordpool_less_exclusions.txt	LTP197	ltpFR	19	n/a	1	ISLAND	745	n/a	n/a	0	n/a	n/a	n/a	n/a	n/a
3286.316	n/a	FFR_REC_WORD	1643158	wordpools/wasnorm_wordpool_less_exclusions.txt	LTP197	ltpFR	19	n/a	1	CACTUS	215	n/a	n/a	0	n/a	n/a	n/a	n/a	n/a
3287.058	n/a	FFR_REC_WORD	1643529	wordpools/wasnorm_wordpool_less_exclusions.txt	LTP197	ltpFR	19	n/a	1	TREE	1502	n/a	n/a	1	n/a	n/a	n/a	n/a	n/a
3287.728	n/a	FFR_REC_WORD	1643864	wordpools/wasnorm_wordpool_less_exclusions.txt	LTP197	ltpFR	19	n/a	1	ROSE	1212	n/a	n/a	0	n/a	n/a	n/a	n/a	n/a
3288.52	n/a	FFR_REC_WORD	1644260	wordpools/wasnorm_wordpool_less_exclusions.txt	LTP197	ltpFR	19	n/a	1	FRIAR	605	n/a	n/a	1	n/a	n/a	n/a	n/a	n/a
3293.29	n/a	FFR_REC_WORD	1646645	wordpools/wasnorm_wordpool_less_exclusions.txt	LTP197	ltpFR	19	n/a	1	STEW	1380	n/a	n/a	0	n/a	n/a	n/a	n/a	n/a
3297.73	n/a	FFR_REC_WORD	1648865	wordpools/wasnorm_wordpool_less_exclusions.txt	LTP197	ltpFR	19	n/a	1	REFEREE	1178	n/a	n/a	1	n/a	n/a	n/a	n/a	n/a
3298.728	n/a	FFR_REC_WORD	1649364	wordpools/wasnorm_wordpool_less_exclusions.txt	LTP197	ltpFR	19	n/a	1	TICKET	1464	n/a	n/a	0	n/a	n/a	n/a	n/a	n/a
3299.98	n/a	FFR_REC_WORD	1649990	wordpools/wasnorm_wordpool_less_exclusions.txt	LTP197	ltpFR	19	n/a	1	DIGGER	464	n/a	n/a	0	n/a	n/a	n/a	n/a	n/a
3300.552	n/a	FFR_REC_WORD	1650276	wordpools/wasnorm_wordpool_less_exclusions.txt	LTP197	ltpFR	19	n/a	1	HAND	683	n/a	n/a	0	n/a	n/a	n/a	n/a	n/a
3301.212	n/a	FFR_REC_WORD	1650606	wordpools/wasnorm_wordpool_less_exclusions.txt	LTP197	ltpFR	19	n/a	1	SHOVEL	1295	n/a	n/a	0	n/a	n/a	n/a	n/a	n/a
3302.694	n/a	FFR_REC_WORD	1651347	wordpools/wasnorm_wordpool_less_exclusions.txt	LTP197	ltpFR	19	n/a	1	HAM	678	n/a	n/a	0	n/a	n/a	n/a	n/a	n/a
3303.492	n/a	FFR_REC_WORD	1651746	wordpools/wasnorm_wordpool_less_exclusions.txt	LTP197	ltpFR	19	n/a	1	TWIG	1527	n/a	n/a	0	n/a	n/a	n/a	n/a	n/a
3305.482	n/a	FFR_REC_WORD	1652741	wordpools/wasnorm_wordpool_less_exclusions.txt	LTP197	ltpFR	19	n/a	1	FLEA	577	n/a	n/a	1	n/a	n/a	n/a	n/a	n/a
3318.842	n/a	FFR_REC_WORD	1659421	wordpools/wasnorm_wordpool_less_exclusions.txt	LTP197	ltpFR	19	n/a	-1	EYELASH	546	n/a	n/a	-1	n/a	n/a	n/a	n/a	n/a
3319.664	n/a	FFR_REC_WORD	1659832	wordpools/wasnorm_wordpool_less_exclusions.txt	LTP197	ltpFR	19	n/a	-1	WHISKERS	1605	n/a	n/a	-1	n/a	n/a	n/a	n/a	n/a
3323.292	n/a	FFR_REC_WORD	1661646	wordpools/wasnorm_wordpool_less_exclusions.txt	LTP197	ltpFR	19	n/a	-1	GARBAGE	622	n/a	n/a	-1	n/a	n/a	n/a	n/a	n/a
3324.292	n/a	FFR_REC_WORD_VV	1662146	wordpools/wasnorm_wordpool_less_exclusions.txt	LTP197	ltpFR	19	n/a	n/a	<>	-1	n/a	n/a	n/a	n/a	n/a	n/a	n/a	n/a
3325.442	n/a	FFR_REC_WORD	1662721	wordpools/wasnorm_wordpool_less_exclusions.txt	LTP197	ltpFR	19	n/a	1	PRINCESS	1125	n/a	n/a	1	n/a	n/a	n/a	n/a	n/a
3326.442	n/a	FFR_REC_WORD_VV	1663221	wordpools/wasnorm_wordpool_less_exclusions.txt	LTP197	ltpFR	19	n/a	n/a	<>	-1	n/a	n/a	n/a	n/a	n/a	n/a	n/a	n/a
3326.744	n/a	FFR_REC_WORD	1663372	wordpools/wasnorm_wordpool_less_exclusions.txt	LTP197	ltpFR	19	n/a	1	BIKE	125	n/a	n/a	0	n/a	n/a	n/a	n/a	n/a
3329.696	n/a	FFR_REC_WORD	1664848	wordpools/wasnorm_wordpool_less_exclusions.txt	LTP197	ltpFR	19	n/a	-1	PLUMBER	1091	n/a	n/a	-1	n/a	n/a	n/a	n/a	n/a
3330.34	n/a	FFR_REC_WORD	1665170	wordpools/wasnorm_wordpool_less_exclusions.txt	LTP197	ltpFR	19	n/a	-1	FAUCET	555	n/a	n/a	-1	n/a	n/a	n/a	n/a	n/a
3333.14	n/a	FFR_REC_WORD	1666570	wordpools/wasnorm_wordpool_less_exclusions.txt	LTP197	ltpFR	19	n/a	-1	TUB	1514	n/a	n/a	-1	n/a	n/a	n/a	n/a	n/a
3333.862	n/a	FFR_REC_WORD	1666931	wordpools/wasnorm_wordpool_less_exclusions.txt	LTP197	ltpFR	19	n/a	-1	JUG	762	n/a	n/a	-1	n/a	n/a	n/a	n/a	n/a
3337.54	n/a	FFR_REC_WORD	1668770	wordpools/wasnorm_wordpool_less_exclusions.txt	LTP197	ltpFR	19	n/a	-1	COP	376	n/a	n/a	-1	n/a	n/a	n/a	n/a	n/a
3340.382	n/a	FFR_REC_WORD	1670191	wordpools/wasnorm_wordpool_less_exclusions.txt	LTP197	ltpFR	19	n/a	-1	SPY	1360	n/a	n/a	-1	n/a	n/a	n/a	n/a	n/a
3349.912	n/a	FFR_REC_WORD	1674956	wordpools/wasnorm_wordpool_less_exclusions.txt	LTP197	ltpFR	19	n/a	1	PUMPKIN	1142	n/a	n/a	0	n/a	n/a	n/a	n/a	n/a
3350.64	n/a	FFR_REC_WORD	1675320	wordpools/wasnorm_wordpool_less_exclusions.txt	LTP197	ltpFR	19	n/a	1	CARRIAGE	248	n/a	n/a	0	n/a	n/a	n/a	n/a	n/a
3351.64	n/a	FFR_REC_WORD_VV	1675820	wordpools/wasnorm_wordpool_less_exclusions.txt	LTP197	ltpFR	19	n/a	n/a	<>	-1	n/a	n/a	n/a	n/a	n/a	n/a	n/a	n/a
3354.018	n/a	FFR_REC_WORD	1677009	wordpools/wasnorm_wordpool_less_exclusions.txt	LTP197	ltpFR	19	n/a	1	APPLE	33	n/a	n/a	0	n/a	n/a	n/a	n/a	n/a
3355.44	n/a	FFR_REC_WORD	1677720	wordpools/wasnorm_wordpool_less_exclusions.txt	LTP197	ltpFR	19	n/a	-1	PRUNE	1134	n/a	n/a	-1	n/a	n/a	n/a	n/a	n/a
3358.726	n/a	FFR_REC_WORD	1679363	wordpools/wasnorm_wordpool_less_exclusions.txt	LTP197	ltpFR	19	n/a	1	PLUM	1090	n/a	n/a	1	n/a	n/a	n/a	n/a	n/a
3359.57	n/a	FFR_REC_WORD	1679785	wordpools/wasnorm_wordpool_less_exclusions.txt	LTP197	ltpFR	19	n/a	1	DOLLAR	482	n/a	n/a	0	n/a	n/a	n/a	n/a	n/a
3360.818	n/a	FFR_REC_WORD	1680409	wordpools/wasnorm_wordpool_less_exclusions.txt	LTP197	ltpFR	19	n/a	1	NOTEBOOK	959	n/a	n/a	0	n/a	n/a	n/a	n/a	n/a
3363.566	n/a	FFR_REC_WORD	1681783	wordpools/wasnorm_wordpool_less_exclusions.txt	LTP197	ltpFR	19	n/a	1	RASPBERRY	1168	n/a	n/a	0	n/a	n/a	n/a	n/a	n/a
3364.566	n/a	FFR_REC_WORD_VV	1682283	wordpools/wasnorm_wordpool_less_exclusions.txt	LTP197	ltpFR	19	n/a	n/a	<>	-1	n/a	n/a	n/a	n/a	n/a	n/a	n/a	n/a
3372.056	n/a	FFR_REC_WORD	1686028	wordpools/wasnorm_wordpool_less_exclusions.txt	LTP197	ltpFR	19	n/a	0	SARDINE	1235	n/a	n/a	1	n/a	n/a	n/a	n/a	n/a
3372.956	n/a	FFR_REC_WORD	1686478	wordpools/wasnorm_wordpool_less_exclusions.txt	LTP197	ltpFR	19	n/a	0	LITTER	832	n/a	n/a	1	n/a	n/a	n/a	n/a	n/a
3374.984	n/a	FFR_REC_WORD	1687492	wordpools/wasnorm_wordpool_less_exclusions.txt	LTP197	ltpFR	19	n/a	0	SAGE	1222	n/a	n/a	1	n/a	n/a	n/a	n/a	n/a
3375.808	n/a	FFR_REC_WORD	1687904	wordpools/wasnorm_wordpool_less_exclusions.txt	LTP197	ltpFR	19	n/a	0	FLIPPER	580	n/a	n/a	1	n/a	n/a	n/a	n/a	n/a
3383.37	n/a	FFR_REC_WORD	1691685	wordpools/wasnorm_wordpool_less_exclusions.txt	LTP197	ltpFR	19	n/a	1	COLONEL	348	n/a	n/a	1	n/a	n/a	n/a	n/a	n/a
3389.228	n/a	FFR_REC_WORD	1694614	wordpools/wasnorm_wordpool_less_exclusions.txt	LTP197	ltpFR	19	n/a	0	MANAGER	863	n/a	n/a	1	n/a	n/a	n/a	n/a	n/a
3390.254	n/a	FFR_REC_WORD	1695127	wordpools/wasnorm_wordpool_less_exclusions.txt	LTP197	ltpFR	19	n/a	0	EMPLOYER	532	n/a	n/a	1	n/a	n/a	n/a	n/a	n/a
3401.28	n/a	FFR_REC_WORD	1700640	wordpools/wasnorm_wordpool_less_exclusions.txt	LTP197	ltpFR	19	n/a	1	MICROPHONE	890	n/a	n/a	0	n/a	n/a	n/a	n/a	n/a
3402.28	n/a	FFR_REC_WORD_VV	1701140	wordpools/wasnorm_wordpool_less_exclusions.txt	LTP197	ltpFR	19	n/a	n/a	<>	-1	n/a	n/a	n/a	n/a	n/a	n/a	n/a	n/a
3406.712	n/a	FFR_REC_WORD	1703356	wordpools/wasnorm_wordpool_less_exclusions.txt	LTP197	ltpFR	19	n/a	1	TOMATO	1476	n/a	n/a	1	n/a	n/a	n/a	n/a	n/a
3409.936	n/a	FFR_REC_WORD	1704968	wordpools/wasnorm_wordpool_less_exclusions.txt	LTP197	ltpFR	19	n/a	1	FARMER	553	n/a	n/a	1	n/a	n/a	n/a	n/a	n/a
3427.212	n/a	FFR_REC_WORD	1713606	wordpools/wasnorm_wordpool_less_exclusions.txt	LTP197	ltpFR	19	n/a	-1	COLLEGE	346	n/a	n/a	-1	n/a	n/a	n/a	n/a	n/a
3428.212	n/a	FFR_REC_WORD_VV	1714106	wordpools/wasnorm_wordpool_less_exclusions.txt	LTP197	ltpFR	19	n/a	n/a	<>	-1	n/a	n/a	n/a	n/a	n/a	n/a	n/a	n/a
3430.69	n/a	FFR_REC_WORD	1715345	wordpools/wasnorm_wordpool_less_exclusions.txt	LTP197	ltpFR	19	n/a	-1	STRANGER	1389	n/a	n/a	-1	n/a	n/a	n/a	n/a	n/a
3431.69	n/a	FFR_REC_WORD_VV	1715845	wordpools/wasnorm_wordpool_less_exclusions.txt	LTP197	ltpFR	19	n/a	n/a	<>	-1	n/a	n/a	n/a	n/a	n/a	n/a	n/a	n/a
3432.2	n/a	FFR_REC_WORD	1716100	wordpools/wasnorm_wordpool_less_exclusions.txt	LTP197	ltpFR	19	n/a	-1	FRIEND	606	n/a	n/a	-1	n/a	n/a	n/a	n/a	n/a
3433.652	n/a	FFR_REC_WORD	1716826	wordpools/wasnorm_wordpool_less_exclusions.txt	LTP197	ltpFR	19	n/a	-1	GRILL	661	n/a	n/a	-1	n/a	n/a	n/a	n/a	n/a
3434.466	n/a	FFR_REC_WORD	1717233	wordpools/wasnorm_wordpool_less_exclusions.txt	LTP197	ltpFR	19	n/a	-1	SKETCH	1315	n/a	n/a	-1	n/a	n/a	n/a	n/a	n/a
3435.466	n/a	FFR_REC_WORD_VV	1717733	wordpools/wasnorm_wordpool_less_exclusions.txt	LTP197	ltpFR	19	n/a	n/a	<>	-1	n/a	n/a	n/a	n/a	n/a	n/a	n/a	n/a
3438.886	n/a	FFR_REC_WORD	1719443	wordpools/wasnorm_wordpool_less_exclusions.txt	LTP197	ltpFR	19	n/a	0	STRAW	1390	n/a	n/a	0	n/a	n/a	n/a	n/a	n/a
3439.654	n/a	FFR_REC_WORD	1719827	wordpools/wasnorm_wordpool_less_exclusions.txt	LTP197	ltpFR	19	n/a	0	DRESS	495	n/a	n/a	1	n/a	n/a	n/a	n/a	n/a
3440.258	n/a	FFR_REC_WORD	1720129	wordpools/wasnorm_wordpool_less_exclusions.txt	LTP197	ltpFR	19	n/a	0	OUTFIT	988	n/a	n/a	1	n/a	n/a	n/a	n/a	n/a
3441.306	n/a	FFR_REC_WORD	1720653	wordpools/wasnorm_wordpool_less_exclusions.txt	LTP197	ltpFR	19	n/a	0	BOARD	143	n/a	n/a	1	n/a	n/a	n/a	n/a	n/a
3441.854	n/a	FFR_REC_WORD	1720927	wordpools/wasnorm_wordpool_less_exclusions.txt	LTP197	ltpFR	19	n/a	0	BLACKBOARD	133	n/a	n/a	1	n/a	n/a	n/a	n/a	n/a
3443.774	n/a	FFR_REC_WORD	1721887	wordpools/wasnorm_wordpool_less_exclusions.txt	LTP197	ltpFR	19	n/a	0	CHEMIST	292	n/a	n/a	0	n/a	n/a	n/a	n/a	n/a
3444.392	n/a	FFR_REC_WORD	1722196	wordpools/wasnorm_wordpool_less_exclusions.txt	LTP197	ltpFR	19	n/a	0	ELECTRON	522	n/a	n/a	0	n/a	n/a	n/a	n/a	n/a
3445.392	n/a	FFR_REC_WORD_VV	1722696	wordpools/wasnorm_wordpool_less_exclusions.txt	LTP197	ltpFR	19	n/a	n/a	<>	-1	n/a	n/a	n/a	n/a	n/a	n/a	n/a	n/a
3448.444	n/a	FFR_REC_WORD	1724222	wordpools/wasnorm_wordpool_less_exclusions.txt	LTP197	ltpFR	19	n/a	0	FOLLOWER	589	n/a	n/a	1	n/a	n/a	n/a	n/a	n/a
3449.444	n/a	FFR_REC_WORD_VV	1724722	wordpools/wasnorm_wordpool_less_exclusions.txt	LTP197	ltpFR	19	n/a	n/a	<>	-1	n/a	n/a	n/a	n/a	n/a	n/a	n/a	n/a
3449.936	n/a	FFR_REC_WORD	1724968	wordpools/wasnorm_wordpool_less_exclusions.txt	LTP197	ltpFR	19	n/a	1	FELLOW	558	n/a	n/a	0	n/a	n/a	n/a	n/a	n/a
3452.046	n/a	FFR_REC_WORD	1726023	wordpools/wasnorm_wordpool_less_exclusions.txt	LTP197	ltpFR	19	n/a	1	NAPKIN	937	n/a	n/a	0	n/a	n/a	n/a	n/a	n/a
3452.79	n/a	FFR_REC_WORD	1726395	wordpools/wasnorm_wordpool_less_exclusions.txt	LTP197	ltpFR	19	n/a	1	GYMNAST	675	n/a	n/a	1	n/a	n/a	n/a	n/a	n/a
3453.542	n/a	FFR_REC_WORD	1726771	wordpools/wasnorm_wordpool_less_exclusions.txt	LTP197	ltpFR	19	n/a	1	CHERRY	293	n/a	n/a	1	n/a	n/a	n/a	n/a	n/a
3454.342	n/a	FFR_REC_WORD	1727171	wordpools/wasnorm_wordpool_less_exclusions.txt	LTP197	ltpFR	19	n/a	1	LINEN	825	n/a	n/a	0	n/a	n/a	n/a	n/a	n/a
3456.136	n/a	FFR_REC_WORD	1728068	wordpools/wasnorm_wordpool_less_exclusions.txt	LTP197	ltpFR	19	n/a	0	ANTLER	29	n/a	n/a	1	n/a	n/a	n/a	n/a	n/a
3460.182	n/a	FFR_REC_WORD	1730091	wordpools/wasnorm_wordpool_less_exclusions.txt	LTP197	ltpFR	19	n/a	n/a	WORLD	1622	n/a	n/a	n/a	n/a	n/a	n/a	n/a	n/a
3460.886	n/a	FFR_REC_WORD	1730443	wordpools/wasnorm_wordpool_less_exclusions.txt	LTP197	ltpFR	19	n/a	0	AFRICA	9	n/a	n/a	1	n/a	n/a	n/a	n/a	n/a
3461.738	n/a	FFR_REC_WORD	1730869	wordpools/wasnorm_wordpool_less_exclusions.txt	LTP197	ltpFR	19	n/a	0	GLOBE	641	n/a	n/a	1	n/a	n/a	n/a	n/a	n/a
3470.484	n/a	FFR_REC_WORD	1735242	wordpools/wasnorm_wordpool_less_exclusions.txt	LTP197	ltpFR	19	n/a	0	OZONE	996	n/a	n/a	0	n/a	n/a	n/a	n/a	n/a
3517.456	n/a	REC_START	1758728	n/a	LTP197	ltpFR	19	1	n/a	n/a	n/a	n/a	n/a	n/a	n/a	n/a	n/a	n/a	n/a
3517.488	n/a	RECOG_TARGET	1758744	n/a	LTP197	ltpFR	19	1	-1	ENCYCLOPEDIA	533	0	2	-1	n/a	n/a	n/a	n/a	n/a
3519.694	n/a	RECOG_RESP	1759847	n/a	LTP197	ltpFR	19	1	-1	ENCYCLOPEDIA	533	0	n/a	-1	n/a	n/a	n/a	n/a	n/a
3520.66	n/a	RECOG_CONF	1760330	n/a	LTP197	ltpFR	19	1	-1	ENCYCLOPEDIA	533	n/a	2	-1	n/a	n/a	n/a	n/a	n/a
3522.364	n/a	RECOG_TARGET	1761182	n/a	LTP197	ltpFR	19	1	1	DIAMOND	458	1	2	0	n/a	n/a	n/a	n/a	n/a
3523.484	n/a	RECOG_RESP	1761742	n/a	LTP197	ltpFR	19	1	1	DIAMOND	458	1	n/a	0	n/a	n/a	n/a	n/a	n/a
3523.986	n/a	RECOG_CONF	1761993	n/a	LTP197	ltpFR	19	1	1	DIAMOND	458	n/a	2	0	n/a	n/a	n/a	n/a	n/a
3525.542	n/a	RECOG_TARGET	1762771	n/a	LTP197	ltpFR	19	1	0	MATCH	878	1	3	0	n/a	n/a	n/a	n/a	n/a
3526.276	n/a	RECOG_RESP	1763138	n/a	LTP197	ltpFR	19	1	0	MATCH	878	1	n/a	0	n/a	n/a	n/a	n/a	n/a
3526.76	n/a	RECOG_CONF	1763380	n/a	LTP197	ltpFR	19	1	0	MATCH	878	n/a	3	0	n/a	n/a	n/a	n/a	n/a
3528.238	n/a	RECOG_TARGET	1764119	n/a	LTP197	ltpFR	19	1	0	COMB	351	1	4	0	n/a	n/a	n/a	n/a	n/a
3528.954	n/a	RECOG_RESP	1764477	n/a	LTP197	ltpFR	19	1	0	COMB	351	1	n/a	0	n/a	n/a	n/a	n/a	n/a
3529.474	n/a	RECOG_CONF	1764737	n/a	LTP197	ltpFR	19	1	0	COMB	351	n/a	4	0	n/a	n/a	n/a	n/a	n/a
3530.85	n/a	RECOG_TARGET	1765425	n/a	LTP197	ltpFR	19	1	0	JOURNAL	760	0	2	2	n/a	n/a	n/a	n/a	n/a
3531.848	n/a	RECOG_RESP	1765924	n/a	LTP197	ltpFR	19	1	0	JOURNAL	760	0	n/a	2	n/a	n/a	n/a	n/a	n/a
3532.242	n/a	RECOG_CONF	1766121	n/a	LTP197	ltpFR	19	1	0	JOURNAL	760	n/a	2	2	n/a	n/a	n/a	n/a	n/a
3533.796	n/a	RECOG_TARGET	1766898	n/a	LTP197	ltpFR	19	1	0	AFRICA	9	1	4	1	n/a	n/a	n/a	n/a	n/a
3534.472	n/a	RECOG_RESP	1767236	n/a	LTP197	ltpFR	19	1	0	AFRICA	9	1	n/a	1	n/a	n/a	n/a	n/a	n/a
3534.95	n/a	RECOG_CONF	1767475	n/a	LTP197	ltpFR	19	1	0	AFRICA	9	n/a	4	1	n/a	n/a	n/a	n/a	n/a
3536.46	n/a	RECOG_LURE	1768230	n/a	LTP197	ltpFR	19	1	n/a	THERMOMETER	1453	0	4	n/a	n/a	n/a	n/a	n/a	n/a
3537.364	n/a	RECOG_RESP	1768682	n/a	LTP197	ltpFR	19	1	n/a	THERMOMETER	1453	0	n/a	n/a	n/a	n/a	n/a	n/a	n/a
3537.854	n/a	RECOG_CONF	1768927	n/a	LTP197	ltpFR	19	1	n/a	THERMOMETER	1453	n/a	4	n/a	n/a	n/a	n/a	n/a	n/a
3539.422	n/a	RECOG_TARGET	1769711	n/a	LTP197	ltpFR	19	1	0	FOUNTAIN	597	1	5	0	n/a	n/a	n/a	n/a	n/a
3540.09	n/a	RECOG_RESP	1770045	n/a	LTP197	ltpFR	19	1	0	FOUNTAIN	597	1	n/a	0	n/a	n/a	n/a	n/a	n/a
3540.568	n/a	RECOG_CONF	1770284	n/a	LTP197	ltpFR	19	1	0	FOUNTAIN	597	n/a	5	0	n/a	n/a	n/a	n/a	n/a
3542.102	n/a	RECOG_TARGET	1771051	n/a	LTP197	ltpFR	19	1	1	TRASH	1497	1	2	0	n/a	n/a	n/a	n/a	n/a
3542.96	n/a	RECOG_RESP	1771480	n/a	LTP197	ltpFR	19	1	1	TRASH	1497	1	n/a	0	n/a	n/a	n/a	n/a	n/a
3543.39	n/a	RECOG_CONF	1771695	n/a	LTP197	ltpFR	19	1	1	TRASH	1497	n/a	2	0	n/a	n/a	n/a	n/a	n/a
3544.946	n/a	RECOG_TARGET	1772473	n/a	LTP197	ltpFR	19	1	-1	FRAGRANCE	599	1	5	-1	n/a	n/a	n/a	n/a	n/a
3545.7	n/a	RECOG_RESP	1772850	n/a	LTP197	ltpFR	19	1	-1	FRAGRANCE	599	1	n/a	-1	n/a	n/a	n/a	n/a	n/a
3546.136	n/a	RECOG_CONF	1773068	n/a	LTP197	ltpFR	19	1	-1	FRAGRANCE	599	n/a	5	-1	n/a	n/a	n/a	n/a	n/a
3547.676	n/a	RECOG_TARGET	1773838	n/a	LTP197	ltpFR	19	1	1	DIGGER	464	1	5	0	n/a	n/a	n/a	n/a	n/a
3548.356	n/a	RECOG_RESP	1774178	n/a	LTP197	ltpFR	19	1	1	DIGGER	464	1	n/a	0	n/a	n/a	n/a	n/a	n/a
3548.77	n/a	RECOG_CONF	1774385	n/a	LTP197	ltpFR	19	1	1	DIGGER	464	n/a	5	0	n/a	n/a	n/a	n/a	n/a
3550.208	n/a	RECOG_TARGET	1775104	n/a	LTP197	ltpFR	19	1	1	EAR	513	1	2	1	n/a	n/a	n/a	n/a	n/a
3550.968	n/a	RECOG_RESP	1775484	n/a	LTP197	ltpFR	19	1	1	EAR	513	1	n/a	1	n/a	n/a	n/a	n/a	n/a
3551.414	n/a	RECOG_CONF	1775707	n/a	LTP197	ltpFR	19	1	1	EAR	513	n/a	2	1	n/a	n/a	n/a	n/a	n/a
3553.02	n/a	RECOG_TARGET	1776510	n/a	LTP197	ltpFR	19	1	0	SKI	1316	1	5	1	n/a	n/a	n/a	n/a	n/a
3553.696	n/a	RECOG_RESP	1776848	n/a	LTP197	ltpFR	19	1	0	SKI	1316	1	n/a	1	n/a	n/a	n/a	n/a	n/a
3554.088	n/a	RECOG_CONF	1777044	n/a	LTP197	ltpFR	19	1	0	SKI	1316	n/a	5	1	n/a	n/a	n/a	n/a	n/a
3555.548	n/a	RECOG_TARGET	1777774	n/a	LTP197	ltpFR	19	1	1	NOTEBOOK	959	1	5	0	n/a	n/a	n/a	n/a	n/a
3556.258	n/a	RECOG_RESP	1778129	n/a	LTP197	ltpFR	19	1	1	NOTEBOOK	959	1	n/a	0	n/a	n/a	n/a	n/a	n/a
3556.632	n/a	RECOG_CONF	1778316	n/a	LTP197	ltpFR	19	1	1	NOTEBOOK	959	n/a	5	0	n/a	n/a	n/a	n/a	n/a
3558.328	n/a	RECOG_TARGET	1779164	n/a	LTP197	ltpFR	19	1	1	LODGE	839	1	5	1	n/a	n/a	n/a	n/a	n/a
3559.202	n/a	RECOG_RESP	1779601	n/a	LTP197	ltpFR	19	1	1	LODGE	839	1	n/a	1	n/a	n/a	n/a	n/a	n/a
3559.596	n/a	RECOG_CONF	1779798	n/a	LTP197	ltpFR	19	1	1	LODGE	839	n/a	5	1	n/a	n/a	n/a	n/a	n/a
3561.09	n/a	RECOG_LURE	1780545	n/a	LTP197	ltpFR	19	1	n/a	COOK	372	0	2	n/a	n/a	n/a	n/a	n/a	n/a
3562.26	n/a	RECOG_RESP	1781130	n/a	LTP197	ltpFR	19	1	n/a	COOK	372	0	n/a	n/a	n/a	n/a	n/a	n/a	n/a
3562.682	n/a	RECOG_CONF	1781341	n/a	LTP197	ltpFR	19	1	n/a	COOK	372	n/a	2	n/a	n/a	n/a	n/a	n/a	n/a
3564.086	n/a	RECOG_TARGET	1782043	n/a	LTP197	ltpFR	19	1	0	PORCH	1106	1	5	1	n/a	n/a	n/a	n/a	n/a
3564.848	n/a	RECOG_RESP	1782424	n/a	LTP197	ltpFR	19	1	0	PORCH	1106	1	n/a	1	n/a	n/a	n/a	n/a	n/a
3565.222	n/a	RECOG_CONF	1782611	n/a	LTP197	ltpFR	19	1	0	PORCH	1106	n/a	5	1	n/a	n/a	n/a	n/a	n/a
3566.632	n/a	RECOG_TARGET	1783316	n/a	LTP197	ltpFR	19	1	1	TRAY	1498	1	2	0	n/a	n/a	n/a	n/a	n/a
3567.316	n/a	RECOG_RESP	1783658	n/a	LTP197	ltpFR	19	1	1	TRAY	1498	1	n/a	0	n/a	n/a	n/a	n/a	n/a
3567.712	n/a	RECOG_CONF	1783856	n/a	LTP197	ltpFR	19	1	1	TRAY	1498	n/a	2	0	n/a	n/a	n/a	n/a	n/a
3569.178	n/a	RECOG_LURE	1784589	n/a	LTP197	ltpFR	19	1	n/a	FRECKLE	602	0	3	n/a	n/a	n/a	n/a	n/a	n/a
3569.914	n/a	RECOG_RESP	1784957	n/a	LTP197	ltpFR	19	1	n/a	FRECKLE	602	0	n/a	n/a	n/a	n/a	n/a	n/a	n/a
3570.36	n/a	RECOG_CONF	1785180	n/a	LTP197	ltpFR	19	1	n/a	FRECKLE	602	n/a	3	n/a	n/a	n/a	n/a	n/a	n/a
3572.042	n/a	RECOG_TARGET	1786021	n/a	LTP197	ltpFR	19	1	0	ROOSTER	1209	1	5	1	n/a	n/a	n/a	n/a	n/a
3572.828	n/a	RECOG_RESP	1786414	n/a	LTP197	ltpFR	19	1	0	ROOSTER	1209	1	n/a	1	n/a	n/a	n/a	n/a	n/a
3573.204	n/a	RECOG_CONF	1786602	n/a	LTP197	ltpFR	19	1	0	ROOSTER	1209	n/a	5	1	n/a	n/a	n/a	n/a	n/a
3576.12	n/a	REC_START	1788060	n/a	LTP197	ltpFR	19	2	n/a	n/a	n/a	n/a	n/a	n/a	n/a	n/a	n/a	n/a	n/a
3576.152	n/a	RECOG_TARGET	1788076	n/a	LTP197	ltpFR	19	2	1	ISLAND	745	1	5	0	n/a	n/a	n/a	n/a	n/a
3576.782	n/a	RECOG_RESP	1788391	n/a	LTP197	ltpFR	19	2	1	ISLAND	745	1	n/a	0	n/a	n/a	n/a	n/a	n/a
3577.192	n/a	RECOG_CONF	1788596	n/a	LTP197	ltpFR	19	2	1	ISLAND	745	n/a	5	0	n/a	n/a	n/a	n/a	n/a
3578.664	n/a	RECOG_LURE	1789332	n/a	LTP197	ltpFR	19	2	n/a	CALENDAR	221	0	2	n/a	n/a	n/a	n/a	n/a	n/a
3579.54	n/a	RECOG_RESP	1789770	n/a	LTP197	ltpFR	19	2	n/a	CALENDAR	221	0	n/a	n/a	n/a	n/a	n/a	n/a	n/a
3579.918	n/a	RECOG_CONF	1789959	n/a	LTP197	ltpFR	19	2	n/a	CALENDAR	221	n/a	2	n/a	n/a	n/a	n/a	n/a	n/a
3581.394	n/a	RECOG_LURE	1790697	n/a	LTP197	ltpFR	19	2	n/a	STAR	1373	0	3	n/a	n/a	n/a	n/a	n/a	n/a
3582.09	n/a	RECOG_RESP	1791045	n/a	LTP197	ltpFR	19	2	n/a	STAR	1373	0	n/a	n/a	n/a	n/a	n/a	n/a	n/a
3582.496	n/a	RECOG_CONF	1791248	n/a	LTP197	ltpFR	19	2	n/a	STAR	1373	n/a	3	n/a	n/a	n/a	n/a	n/a	n/a
3583.922	n/a	RECOG_TARGET	1791961	n/a	LTP197	ltpFR	19	2	0	OUTFIT	988	1	5	1	n/a	n/a	n/a	n/a	n/a
3584.598	n/a	RECOG_RESP	1792299	n/a	LTP197	ltpFR	19	2	0	OUTFIT	988	1	n/a	1	n/a	n/a	n/a	n/a	n/a
3584.986	n/a	RECOG_CONF	1792493	n/a	LTP197	ltpFR	19	2	0	OUTFIT	988	n/a	5	1	n/a	n/a	n/a	n/a	n/a
3586.42	n/a	RECOG_LURE	1793210	n/a	LTP197	ltpFR	19	2	n/a	FACE	547	0	2	n/a	n/a	n/a	n/a	n/a	n/a
3587.188	n/a	RECOG_RESP	1793594	n/a	LTP197	ltpFR	19	2	n/a	FACE	547	0	n/a	n/a	n/a	n/a	n/a	n/a	n/a
3587.588	n/a	RECOG_CONF	1793794	n/a	LTP197	ltpFR	19	2	n/a	FACE	547	n/a	2	n/a	n/a	n/a	n/a	n/a	n/a
3589.432	n/a	RECOG_TARGET	1794716	n/a	LTP197	ltpFR	19	2	1	PENDULUM	1043	1	5	0	n/a	n/a	n/a	n/a	n/a
3590.258	n/a	RECOG_RESP	1795129	n/a	LTP197	ltpFR	19	2	1	PENDULUM	1043	1	n/a	0	n/a	n/a	n/a	n/a	n/a
3590.652	n/a	RECOG_CONF	1795326	n/a	LTP197	ltpFR	19	2	1	PENDULUM	1043	n/a	5	0	n/a	n/a	n/a	n/a	n/a
3592.194	n/a	RECOG_TARGET	1796097	n/a	LTP197	ltpFR	19	2	0	SARDINE	1235	1	5	1	n/a	n/a	n/a	n/a	n/a
3592.886	n/a	RECOG_RESP	1796443	n/a	LTP197	ltpFR	19	2	0	SARDINE	1235	1	n/a	1	n/a	n/a	n/a	n/a	n/a
3593.256	n/a	RECOG_CONF	1796628	n/a	LTP197	ltpFR	19	2	0	SARDINE	1235	n/a	5	1	n/a	n/a	n/a	n/a	n/a
3595.19	n/a	RECOG_TARGET	1797595	n/a	LTP197	ltpFR	19	2	0	ASSOCIATE	49	1	5	1	n/a	n/a	n/a	n/a	n/a
3595.894	n/a	RECOG_RESP	1797947	n/a	LTP197	ltpFR	19	2	0	ASSOCIATE	49	1	n/a	1	n/a	n/a	n/a	n/a	n/a
3596.23	n/a	RECOG_CONF	1798115	n/a	LTP197	ltpFR	19	2	0	ASSOCIATE	49	n/a	5	1	n/a	n/a	n/a	n/a	n/a
