mstime	trial_type	stim_file	subject	experiment	session	trial	task	item_name	item_num	recog_resp	recog_conf	resp	color_r	color_g	color_b	case	font
0	SESS_START	n/a	LTP290	ltpFR	17	n/a	n/a	n/a	n/a	1	1	n/a	n/a	n/a	n/a	n/a	n/a
22333	WORD	wordpools/wasnorm_wordpool_less_exclusions.txt	LTP290	ltpFR	17	1	1	SAUSAGE	1238	0	n/a	0	0.57763671875	0.412841796875	1	lower	amplitud.ttf
26327	WORD	wordpools/wasnorm_wordpool_less_exclusions.txt	LTP290	ltpFR	17	1	1	DIVER	476	n/a	n/a	1	0.57763671875	0.412841796875	1	lower	amplitud.ttf
30205	WORD	wordpools/wasnorm_wordpool_less_exclusions.txt	LTP290	ltpFR	17	1	1	COD	340	n/a	n/a	1	0.57763671875	0.412841796875	1	lower	amplitud.ttf
34182	WORD	wordpools/wasnorm_wordpool_less_exclusions.txt	LTP290	ltpFR	17	1	0	DRIVER	499	n/a	n/a	1	0.422607421875	0.5869140625	0	upper	zerothre.ttf
38259	WORD	wordpools/wasnorm_wordpool_less_exclusions.txt	LTP290	ltpFR	17	1	0	PARCEL	1012	n/a	n/a	0	0.422607421875	0.5869140625	0	upper	zerothre.ttf
42137	WORD	wordpools/wasnorm_wordpool_less_exclusions.txt	LTP290	ltpFR	17	1	0	PENNY	1045	n/a	n/a	0	0.422607421875	0.5869140625	0	upper	zerothre.ttf
45998	WORD	wordpools/wasnorm_wordpool_less_exclusions.txt	LTP290	ltpFR	17	1	0	INCENSE	735	n/a	n/a	0	0.422607421875	0.5869140625	0	upper	zerothre.ttf
50058	WORD	wordpools/wasnorm_wordpool_less_exclusions.txt	LTP290	ltpFR	17	1	1	VAN	1548	n/a	n/a	0	0.57763671875	0.412841796875	1	lower	amplitud.ttf
54269	WORD	wordpools/wasnorm_wordpool_less_exclusions.txt	LTP290	ltpFR	17	1	1	KIDNEY	776	n/a	n/a	0	0.57763671875	0.412841796875	1	lower	amplitud.ttf
58329	WORD	wordpools/wasnorm_wordpool_less_exclusions.txt	LTP290	ltpFR	17	1	0	SCROLL	1257	n/a	n/a	0	0.422607421875	0.5869140625	0	upper	zerothre.ttf
62473	WORD	wordpools/wasnorm_wordpool_less_exclusions.txt	LTP290	ltpFR	17	1	0	NOSE	957	n/a	n/a	0	0.422607421875	0.5869140625	0	upper	zerothre.ttf
66667	WORD	wordpools/wasnorm_wordpool_less_exclusions.txt	LTP290	ltpFR	17	1	0	CANVAS	234	n/a	n/a	0	0.422607421875	0.5869140625	0	upper	zerothre.ttf
70595	WORD	wordpools/wasnorm_wordpool_less_exclusions.txt	LTP290	ltpFR	17	1	0	PAINTER	1004	n/a	n/a	1	0.422607421875	0.5869140625	0	upper	zerothre.ttf
74638	WORD	wordpools/wasnorm_wordpool_less_exclusions.txt	LTP290	ltpFR	17	1	1	CARPET	247	n/a	n/a	0	0.57763671875	0.412841796875	1	lower	amplitud.ttf
78832	WORD	wordpools/wasnorm_wordpool_less_exclusions.txt	LTP290	ltpFR	17	1	1	TILE	1468	n/a	n/a	0	0.57763671875	0.412841796875	1	lower	amplitud.ttf
82826	WORD	wordpools/wasnorm_wordpool_less_exclusions.txt	LTP290	ltpFR	17	1	1	MAID	856	n/a	n/a	1	0.57763671875	0.412841796875	1	lower	amplitud.ttf
88918	REC_START	n/a	LTP290	ltpFR	17	1	n/a	n/a	n/a	n/a	n/a	n/a	n/a	n/a	n/a	n/a	n/a
90052	REC_WORD_VV	wordpools/wasnorm_wordpool_less_exclusions.txt	LTP290	ltpFR	17	1	n/a	<>	-1	n/a	n/a	n/a	n/a	n/a	n/a	n/a	n/a
90767	REC_WORD	wordpools/wasnorm_wordpool_less_exclusions.txt	LTP290	ltpFR	17	1	1	MAID	856	n/a	n/a	1	n/a	n/a	n/a	n/a	n/a
91271	REC_WORD	wordpools/wasnorm_wordpool_less_exclusions.txt	LTP290	ltpFR	17	1	1	TILE	1468	n/a	n/a	0	n/a	n/a	n/a	n/a	n/a
91758	REC_WORD	wordpools/wasnorm_wordpool_less_exclusions.txt	LTP290	ltpFR	17	1	1	CARPET	247	n/a	n/a	0	n/a	n/a	n/a	n/a	n/a
92223	REC_WORD	wordpools/wasnorm_wordpool_less_exclusions.txt	LTP290	ltpFR	17	1	0	PAINTER	1004	n/a	n/a	1	n/a	n/a	n/a	n/a	n/a
94004	REC_WORD	wordpools/wasnorm_wordpool_less_exclusions.txt	LTP290	ltpFR	17	1	0	SCROLL	1257	n/a	n/a	0	n/a	n/a	n/a	n/a	n/a
94661	REC_WORD	wordpools/wasnorm_wordpool_less_exclusions.txt	LTP290	ltpFR	17	1	0	NOSE	957	n/a	n/a	0	n/a	n/a	n/a	n/a	n/a
96249	REC_WORD	wordpools/wasnorm_wordpool_less_exclusions.txt	LTP290	ltpFR	17	1	0	CANVAS	234	n/a	n/a	0	n/a	n/a	n/a	n/a	n/a
99880	REC_WORD	wordpools/wasnorm_wordpool_less_exclusions.txt	LTP290	ltpFR	17	1	1	SAUSAGE	1238	n/a	n/a	0	n/a	n/a	n/a	n/a	n/a
100698	REC_WORD	wordpools/wasnorm_wordpool_less_exclusions.txt	LTP290	ltpFR	17	1	1	DIVER	476	n/a	n/a	1	n/a	n/a	n/a	n/a	n/a
101837	REC_WORD	wordpools/wasnorm_wordpool_less_exclusions.txt	LTP290	ltpFR	17	1	1	COD	340	n/a	n/a	1	n/a	n/a	n/a	n/a	n/a
102516	REC_WORD	wordpools/wasnorm_wordpool_less_exclusions.txt	LTP290	ltpFR	17	1	0	DRIVER	499	n/a	n/a	1	n/a	n/a	n/a	n/a	n/a
103190	REC_WORD	wordpools/wasnorm_wordpool_less_exclusions.txt	LTP290	ltpFR	17	1	0	PARCEL	1012	n/a	n/a	0	n/a	n/a	n/a	n/a	n/a
104408	REC_WORD	wordpools/wasnorm_wordpool_less_exclusions.txt	LTP290	ltpFR	17	1	0	PENNY	1045	n/a	n/a	0	n/a	n/a	n/a	n/a	n/a
104954	REC_WORD	wordpools/wasnorm_wordpool_less_exclusions.txt	LTP290	ltpFR	17	1	0	INCENSE	735	n/a	n/a	0	n/a	n/a	n/a	n/a	n/a
166984	WORD	wordpools/wasnorm_wordpool_less_exclusions.txt	LTP290	ltpFR	17	2	0	GODDESS	646	n/a	n/a	1	0.422607421875	0.5869140625	0	upper	zerothre.ttf
170895	WORD	wordpools/wasnorm_wordpool_less_exclusions.txt	LTP290	ltpFR	17	2	0	COYOTE	396	n/a	n/a	1	0.422607421875	0.5869140625	0	upper	zerothre.ttf
174922	WORD	wordpools/wasnorm_wordpool_less_exclusions.txt	LTP290	ltpFR	17	2	0	DEODORANT	448	n/a	n/a	0	0.422607421875	0.5869140625	0	upper	zerothre.ttf
178916	WORD	wordpools/wasnorm_wordpool_less_exclusions.txt	LTP290	ltpFR	17	2	0	SICKLE	1302	n/a	n/a	0	0.422607421875	0.5869140625	0	upper	zerothre.ttf
182743	WORD	wordpools/wasnorm_wordpool_less_exclusions.txt	LTP290	ltpFR	17	2	0	FINGERNAIL	568	n/a	n/a	0	0.422607421875	0.5869140625	0	upper	zerothre.ttf
186737	WORD	wordpools/wasnorm_wordpool_less_exclusions.txt	LTP290	ltpFR	17	2	1	COW	393	n/a	n/a	1	0.57763671875	0.412841796875	1	lower	amplitud.ttf
190814	WORD	wordpools/wasnorm_wordpool_less_exclusions.txt	LTP290	ltpFR	17	2	1	WRIST	1626	n/a	n/a	0	0.57763671875	0.412841796875	1	lower	amplitud.ttf
194725	WORD	wordpools/wasnorm_wordpool_less_exclusions.txt	LTP290	ltpFR	17	2	1	BUTTON	207	n/a	n/a	0	0.57763671875	0.412841796875	1	lower	amplitud.ttf
198936	WORD	wordpools/wasnorm_wordpool_less_exclusions.txt	LTP290	ltpFR	17	2	1	COTTAGE	384	n/a	n/a	0	0.57763671875	0.412841796875	1	lower	amplitud.ttf
203113	WORD	wordpools/wasnorm_wordpool_less_exclusions.txt	LTP290	ltpFR	17	2	0	PRAIRIE	1118	n/a	n/a	1	0.422607421875	0.5869140625	0	upper	zerothre.ttf
206941	WORD	wordpools/wasnorm_wordpool_less_exclusions.txt	LTP290	ltpFR	17	2	0	SNAKE	1333	n/a	n/a	0	0.422607421875	0.5869140625	0	upper	zerothre.ttf
210784	WORD	wordpools/wasnorm_wordpool_less_exclusions.txt	LTP290	ltpFR	17	2	0	GOWN	652	n/a	n/a	0	0.422607421875	0.5869140625	0	upper	zerothre.ttf
214745	WORD	wordpools/wasnorm_wordpool_less_exclusions.txt	LTP290	ltpFR	17	2	1	PONY	1102	n/a	n/a	0	0.57763671875	0.412841796875	1	lower	amplitud.ttf
218772	WORD	wordpools/wasnorm_wordpool_less_exclusions.txt	LTP290	ltpFR	17	2	1	COLOGNE	347	n/a	n/a	0	0.57763671875	0.412841796875	1	lower	amplitud.ttf
222766	WORD	wordpools/wasnorm_wordpool_less_exclusions.txt	LTP290	ltpFR	17	2	1	FLEET	578	n/a	n/a	0	0.57763671875	0.412841796875	1	lower	amplitud.ttf
226928	WORD	wordpools/wasnorm_wordpool_less_exclusions.txt	LTP290	ltpFR	17	2	1	LIEUTENANT	818	n/a	n/a	1	0.57763671875	0.412841796875	1	lower	amplitud.ttf
232870	REC_START	n/a	LTP290	ltpFR	17	2	n/a	n/a	n/a	n/a	n/a	n/a	n/a	n/a	n/a	n/a	n/a
234939	REC_WORD	wordpools/wasnorm_wordpool_less_exclusions.txt	LTP290	ltpFR	17	2	1	LIEUTENANT	818	n/a	n/a	1	n/a	n/a	n/a	n/a	n/a
235481	REC_WORD	wordpools/wasnorm_wordpool_less_exclusions.txt	LTP290	ltpFR	17	2	1	FLEET	578	n/a	n/a	0	n/a	n/a	n/a	n/a	n/a
237422	REC_WORD	wordpools/wasnorm_wordpool_less_exclusions.txt	LTP290	ltpFR	17	2	0	GODDESS	646	n/a	n/a	1	n/a	n/a	n/a	n/a	n/a
237876	REC_WORD	wordpools/wasnorm_wordpool_less_exclusions.txt	LTP290	ltpFR	17	2	0	COYOTE	396	n/a	n/a	1	n/a	n/a	n/a	n/a	n/a
238468	REC_WORD	wordpools/wasnorm_wordpool_less_exclusions.txt	LTP290	ltpFR	17	2	0	SICKLE	1302	n/a	n/a	0	n/a	n/a	n/a	n/a	n/a
239122	REC_WORD	wordpools/wasnorm_wordpool_less_exclusions.txt	LTP290	ltpFR	17	2	0	DEODORANT	448	n/a	n/a	0	n/a	n/a	n/a	n/a	n/a
241371	REC_WORD	wordpools/wasnorm_wordpool_less_exclusions.txt	LTP290	ltpFR	17	2	0	FINGERNAIL	568	n/a	n/a	0	n/a	n/a	n/a	n/a	n/a
242110	REC_WORD	wordpools/wasnorm_wordpool_less_exclusions.txt	LTP290	ltpFR	17	2	1	COW	393	n/a	n/a	1	n/a	n/a	n/a	n/a	n/a
242612	REC_WORD	wordpools/wasnorm_wordpool_less_exclusions.txt	LTP290	ltpFR	17	2	1	WRIST	1626	n/a	n/a	0	n/a	n/a	n/a	n/a	n/a
243347	REC_WORD	wordpools/wasnorm_wordpool_less_exclusions.txt	LTP290	ltpFR	17	2	1	BUTTON	207	n/a	n/a	0	n/a	n/a	n/a	n/a	n/a
249960	REC_WORD	wordpools/wasnorm_wordpool_less_exclusions.txt	LTP290	ltpFR	17	2	0	PRAIRIE	1118	n/a	n/a	1	n/a	n/a	n/a	n/a	n/a
250435	REC_WORD	wordpools/wasnorm_wordpool_less_exclusions.txt	LTP290	ltpFR	17	2	0	SNAKE	1333	n/a	n/a	0	n/a	n/a	n/a	n/a	n/a
256626	REC_WORD_VV	wordpools/wasnorm_wordpool_less_exclusions.txt	LTP290	ltpFR	17	2	n/a	<>	-1	n/a	n/a	n/a	n/a	n/a	n/a	n/a	n/a
257626	REC_WORD_VV	wordpools/wasnorm_wordpool_less_exclusions.txt	LTP290	ltpFR	17	2	n/a	<>	-1	n/a	n/a	n/a	n/a	n/a	n/a	n/a	n/a
258626	REC_WORD_VV	wordpools/wasnorm_wordpool_less_exclusions.txt	LTP290	ltpFR	17	2	n/a	<>	-1	n/a	n/a	n/a	n/a	n/a	n/a	n/a	n/a
311750	WORD	wordpools/wasnorm_wordpool_less_exclusions.txt	LTP290	ltpFR	17	3	0	TAG	1429	n/a	n/a	0	0.422607421875	0.5869140625	0	upper	zerothre.ttf
315629	WORD	wordpools/wasnorm_wordpool_less_exclusions.txt	LTP290	ltpFR	17	3	0	TORTOISE	1486	n/a	n/a	1	0.422607421875	0.5869140625	0	upper	zerothre.ttf
319523	WORD	wordpools/wasnorm_wordpool_less_exclusions.txt	LTP290	ltpFR	17	3	0	QUILT	1151	n/a	n/a	1	0.422607421875	0.5869140625	0	upper	zerothre.ttf
323550	WORD	wordpools/wasnorm_wordpool_less_exclusions.txt	LTP290	ltpFR	17	3	0	SWEATER	1419	n/a	n/a	0	0.422607421875	0.5869140625	0	upper	zerothre.ttf
327461	WORD	wordpools/wasnorm_wordpool_less_exclusions.txt	LTP290	ltpFR	17	3	0	MOB	904	n/a	n/a	1	0.422607421875	0.5869140625	0	upper	zerothre.ttf
331621	WORD	wordpools/wasnorm_wordpool_less_exclusions.txt	LTP290	ltpFR	17	3	0	HAYSTACK	694	n/a	n/a	1	0.422607421875	0.5869140625	0	upper	zerothre.ttf
335798	WORD	wordpools/wasnorm_wordpool_less_exclusions.txt	LTP290	ltpFR	17	3	0	THREAD	1460	n/a	n/a	0	0.422607421875	0.5869140625	0	upper	zerothre.ttf
339725	WORD	wordpools/wasnorm_wordpool_less_exclusions.txt	LTP290	ltpFR	17	3	0	PILOT	1070	n/a	n/a	1	0.422607421875	0.5869140625	0	upper	zerothre.ttf
343802	WORD	wordpools/wasnorm_wordpool_less_exclusions.txt	LTP290	ltpFR	17	3	0	WARRIOR	1589	n/a	n/a	1	0.422607421875	0.5869140625	0	upper	zerothre.ttf
347831	WORD	wordpools/wasnorm_wordpool_less_exclusions.txt	LTP290	ltpFR	17	3	0	CALF	222	n/a	n/a	1	0.422607421875	0.5869140625	0	upper	zerothre.ttf
352008	WORD	wordpools/wasnorm_wordpool_less_exclusions.txt	LTP290	ltpFR	17	3	0	FARM	552	n/a	n/a	1	0.422607421875	0.5869140625	0	upper	zerothre.ttf
356152	WORD	wordpools/wasnorm_wordpool_less_exclusions.txt	LTP290	ltpFR	17	3	0	SNAIL	1332	n/a	n/a	0	0.422607421875	0.5869140625	0	upper	zerothre.ttf
359979	WORD	wordpools/wasnorm_wordpool_less_exclusions.txt	LTP290	ltpFR	17	3	0	VALLEY	1545	n/a	n/a	1	0.422607421875	0.5869140625	0	upper	zerothre.ttf
363857	WORD	wordpools/wasnorm_wordpool_less_exclusions.txt	LTP290	ltpFR	17	3	0	HARE	688	n/a	n/a	1	0.422607421875	0.5869140625	0	upper	zerothre.ttf
367717	WORD	wordpools/wasnorm_wordpool_less_exclusions.txt	LTP290	ltpFR	17	3	0	ATTIRE	57	n/a	n/a	0	0.422607421875	0.5869140625	0	upper	zerothre.ttf
371645	WORD	wordpools/wasnorm_wordpool_less_exclusions.txt	LTP290	ltpFR	17	3	0	NIGHTGOWN	953	n/a	n/a	1	0.422607421875	0.5869140625	0	upper	zerothre.ttf
377320	REC_START	n/a	LTP290	ltpFR	17	3	n/a	n/a	n/a	n/a	n/a	n/a	n/a	n/a	n/a	n/a	n/a
379866	REC_WORD_VV	wordpools/wasnorm_wordpool_less_exclusions.txt	LTP290	ltpFR	17	3	n/a	<>	-1	n/a	n/a	n/a	n/a	n/a	n/a	n/a	n/a
382191	REC_WORD	wordpools/wasnorm_wordpool_less_exclusions.txt	LTP290	ltpFR	17	3	0	TAG	1429	n/a	n/a	0	n/a	n/a	n/a	n/a	n/a
383995	REC_WORD	wordpools/wasnorm_wordpool_less_exclusions.txt	LTP290	ltpFR	17	3	0	TORTOISE	1486	n/a	n/a	1	n/a	n/a	n/a	n/a	n/a
385810	REC_WORD	wordpools/wasnorm_wordpool_less_exclusions.txt	LTP290	ltpFR	17	3	0	QUILT	1151	n/a	n/a	1	n/a	n/a	n/a	n/a	n/a
386296	REC_WORD	wordpools/wasnorm_wordpool_less_exclusions.txt	LTP290	ltpFR	17	3	0	SWEATER	1419	n/a	n/a	0	n/a	n/a	n/a	n/a	n/a
388767	REC_WORD	wordpools/wasnorm_wordpool_less_exclusions.txt	LTP290	ltpFR	17	3	0	MOB	904	n/a	n/a	1	n/a	n/a	n/a	n/a	n/a
391895	REC_WORD	wordpools/wasnorm_wordpool_less_exclusions.txt	LTP290	ltpFR	17	3	0	HAYSTACK	694	n/a	n/a	1	n/a	n/a	n/a	n/a	n/a
392865	REC_WORD	wordpools/wasnorm_wordpool_less_exclusions.txt	LTP290	ltpFR	17	3	0	THREAD	1460	n/a	n/a	0	n/a	n/a	n/a	n/a	n/a
401932	REC_WORD	wordpools/wasnorm_wordpool_less_exclusions.txt	LTP290	ltpFR	17	3	0	WARRIOR	1589	n/a	n/a	1	n/a	n/a	n/a	n/a	n/a
402733	REC_WORD	wordpools/wasnorm_wordpool_less_exclusions.txt	LTP290	ltpFR	17	3	0	CALF	222	n/a	n/a	1	n/a	n/a	n/a	n/a	n/a
404392	REC_WORD	wordpools/wasnorm_wordpool_less_exclusions.txt	LTP290	ltpFR	17	3	0	FARM	552	n/a	n/a	1	n/a	n/a	n/a	n/a	n/a
405775	REC_WORD	wordpools/wasnorm_wordpool_less_exclusions.txt	LTP290	ltpFR	17	3	0	SNAIL	1332	n/a	n/a	0	n/a	n/a	n/a	n/a	n/a
406631	REC_WORD	wordpools/wasnorm_wordpool_less_exclusions.txt	LTP290	ltpFR	17	3	0	HARE	688	n/a	n/a	1	n/a	n/a	n/a	n/a	n/a
407876	REC_WORD	wordpools/wasnorm_wordpool_less_exclusions.txt	LTP290	ltpFR	17	3	0	VALLEY	1545	n/a	n/a	1	n/a	n/a	n/a	n/a	n/a
409458	REC_WORD	wordpools/wasnorm_wordpool_less_exclusions.txt	LTP290	ltpFR	17	3	0	ATTIRE	57	n/a	n/a	0	n/a	n/a	n/a	n/a	n/a
410140	REC_WORD	wordpools/wasnorm_wordpool_less_exclusions.txt	LTP290	ltpFR	17	3	0	NIGHTGOWN	953	n/a	n/a	1	n/a	n/a	n/a	n/a	n/a
455869	WORD	wordpools/wasnorm_wordpool_less_exclusions.txt	LTP290	ltpFR	17	4	0	QUILL	1150	n/a	n/a	0	0.422607421875	0.5869140625	0	upper	zerothre.ttf
459997	WORD	wordpools/wasnorm_wordpool_less_exclusions.txt	LTP290	ltpFR	17	4	0	TOAST	1471	n/a	n/a	0	0.422607421875	0.5869140625	0	upper	zerothre.ttf
463857	WORD	wordpools/wasnorm_wordpool_less_exclusions.txt	LTP290	ltpFR	17	4	1	PERSONNEL	1053	n/a	n/a	1	0.57763671875	0.412841796875	1	lower	amplitud.ttf
467784	WORD	wordpools/wasnorm_wordpool_less_exclusions.txt	LTP290	ltpFR	17	4	1	REPTILE	1185	n/a	n/a	1	0.57763671875	0.412841796875	1	lower	amplitud.ttf
471745	WORD	wordpools/wasnorm_wordpool_less_exclusions.txt	LTP290	ltpFR	17	4	0	SERPENT	1270	n/a	n/a	1	0.422607421875	0.5869140625	0	upper	zerothre.ttf
475840	WORD	wordpools/wasnorm_wordpool_less_exclusions.txt	LTP290	ltpFR	17	4	0	SAW	1239	n/a	n/a	0	0.422607421875	0.5869140625	0	upper	zerothre.ttf
479933	WORD	wordpools/wasnorm_wordpool_less_exclusions.txt	LTP290	ltpFR	17	4	0	SUBURB	1399	n/a	n/a	1	0.422607421875	0.5869140625	0	upper	zerothre.ttf
484094	WORD	wordpools/wasnorm_wordpool_less_exclusions.txt	LTP290	ltpFR	17	4	0	DOLL	481	n/a	n/a	0	0.422607421875	0.5869140625	0	upper	zerothre.ttf
488171	WORD	wordpools/wasnorm_wordpool_less_exclusions.txt	LTP290	ltpFR	17	4	0	NET	946	n/a	n/a	0	0.422607421875	0.5869140625	0	upper	zerothre.ttf
492032	WORD	wordpools/wasnorm_wordpool_less_exclusions.txt	LTP290	ltpFR	17	4	0	SHERIFF	1284	n/a	n/a	1	0.422607421875	0.5869140625	0	upper	zerothre.ttf
496192	WORD	wordpools/wasnorm_wordpool_less_exclusions.txt	LTP290	ltpFR	17	4	1	FACE	547	n/a	n/a	0	0.57763671875	0.412841796875	1	lower	amplitud.ttf
500037	WORD	wordpools/wasnorm_wordpool_less_exclusions.txt	LTP290	ltpFR	17	4	1	LIPSTICK	829	n/a	n/a	0	0.57763671875	0.412841796875	1	lower	amplitud.ttf
504047	WORD	wordpools/wasnorm_wordpool_less_exclusions.txt	LTP290	ltpFR	17	4	1	TERMITE	1451	n/a	n/a	1	0.57763671875	0.412841796875	1	lower	amplitud.ttf
507958	WORD	wordpools/wasnorm_wordpool_less_exclusions.txt	LTP290	ltpFR	17	4	1	AGENT	10	n/a	n/a	1	0.57763671875	0.412841796875	1	lower	amplitud.ttf
511836	WORD	wordpools/wasnorm_wordpool_less_exclusions.txt	LTP290	ltpFR	17	4	1	BAIT	70	n/a	n/a	1	0.57763671875	0.412841796875	1	lower	amplitud.ttf
515913	WORD	wordpools/wasnorm_wordpool_less_exclusions.txt	LTP290	ltpFR	17	4	1	BASSINET	97	n/a	n/a	0	0.57763671875	0.412841796875	1	lower	amplitud.ttf
521638	REC_START	n/a	LTP290	ltpFR	17	4	n/a	n/a	n/a	n/a	n/a	n/a	n/a	n/a	n/a	n/a	n/a
522123	REC_WORD_VV	wordpools/wasnorm_wordpool_less_exclusions.txt	LTP290	ltpFR	17	4	n/a	<>	-1	n/a	n/a	n/a	n/a	n/a	n/a	n/a	n/a
523900	REC_WORD	wordpools/wasnorm_wordpool_less_exclusions.txt	LTP290	ltpFR	17	4	1	BASSINET	97	n/a	n/a	0	n/a	n/a	n/a	n/a	n/a
524462	REC_WORD	wordpools/wasnorm_wordpool_less_exclusions.txt	LTP290	ltpFR	17	4	1	TERMITE	1451	n/a	n/a	1	n/a	n/a	n/a	n/a	n/a
525275	REC_WORD	wordpools/wasnorm_wordpool_less_exclusions.txt	LTP290	ltpFR	17	4	1	AGENT	10	n/a	n/a	1	n/a	n/a	n/a	n/a	n/a
526143	REC_WORD	wordpools/wasnorm_wordpool_less_exclusions.txt	LTP290	ltpFR	17	4	1	FACE	547	n/a	n/a	0	n/a	n/a	n/a	n/a	n/a
526681	REC_WORD	wordpools/wasnorm_wordpool_less_exclusions.txt	LTP290	ltpFR	17	4	1	LIPSTICK	829	n/a	n/a	0	n/a	n/a	n/a	n/a	n/a
534252	REC_WORD	wordpools/wasnorm_wordpool_less_exclusions.txt	LTP290	ltpFR	17	4	0	QUILL	1150	n/a	n/a	0	n/a	n/a	n/a	n/a	n/a
534772	REC_WORD	wordpools/wasnorm_wordpool_less_exclusions.txt	LTP290	ltpFR	17	4	0	TOAST	1471	n/a	n/a	0	n/a	n/a	n/a	n/a	n/a
536804	REC_WORD	wordpools/wasnorm_wordpool_less_exclusions.txt	LTP290	ltpFR	17	4	0	SERPENT	1270	n/a	n/a	1	n/a	n/a	n/a	n/a	n/a
539564	REC_WORD	wordpools/wasnorm_wordpool_less_exclusions.txt	LTP290	ltpFR	17	4	0	SUBURB	1399	n/a	n/a	1	n/a	n/a	n/a	n/a	n/a
540231	REC_WORD	wordpools/wasnorm_wordpool_less_exclusions.txt	LTP290	ltpFR	17	4	0	DOLL	481	n/a	n/a	0	n/a	n/a	n/a	n/a	n/a
540567	REC_WORD	wordpools/wasnorm_wordpool_less_exclusions.txt	LTP290	ltpFR	17	4	0	SHERIFF	1284	n/a	n/a	1	n/a	n/a	n/a	n/a	n/a
541634	REC_WORD	wordpools/wasnorm_wordpool_less_exclusions.txt	LTP290	ltpFR	17	4	0	NET	946	n/a	n/a	0	n/a	n/a	n/a	n/a	n/a
599737	WORD	wordpools/wasnorm_wordpool_less_exclusions.txt	LTP290	ltpFR	17	5	1	MARKER	870	n/a	n/a	0	0.57763671875	0.412841796875	1	lower	amplitud.ttf
603832	WORD	wordpools/wasnorm_wordpool_less_exclusions.txt	LTP290	ltpFR	17	5	1	ANGEL	22	n/a	n/a	1	0.57763671875	0.412841796875	1	lower	amplitud.ttf
607976	WORD	wordpools/wasnorm_wordpool_less_exclusions.txt	LTP290	ltpFR	17	5	1	WOLF	1619	n/a	n/a	1	0.57763671875	0.412841796875	1	lower	amplitud.ttf
611870	WORD	wordpools/wasnorm_wordpool_less_exclusions.txt	LTP290	ltpFR	17	5	1	QUEEN	1149	n/a	n/a	1	0.57763671875	0.412841796875	1	lower	amplitud.ttf
615914	WORD	wordpools/wasnorm_wordpool_less_exclusions.txt	LTP290	ltpFR	17	5	1	DRAWING	494	n/a	n/a	0	0.57763671875	0.412841796875	1	lower	amplitud.ttf
619790	WORD	wordpools/wasnorm_wordpool_less_exclusions.txt	LTP290	ltpFR	17	5	1	SHELTER	1282	n/a	n/a	0	0.57763671875	0.412841796875	1	lower	amplitud.ttf
624002	WORD	wordpools/wasnorm_wordpool_less_exclusions.txt	LTP290	ltpFR	17	5	1	HUT	729	n/a	n/a	0	0.57763671875	0.412841796875	1	lower	amplitud.ttf
627979	WORD	wordpools/wasnorm_wordpool_less_exclusions.txt	LTP290	ltpFR	17	5	1	GUARDIAN	668	n/a	n/a	1	0.57763671875	0.412841796875	1	lower	amplitud.ttf
631923	WORD	wordpools/wasnorm_wordpool_less_exclusions.txt	LTP290	ltpFR	17	5	1	TICK	1463	n/a	n/a	0	0.57763671875	0.412841796875	1	lower	amplitud.ttf
635800	WORD	wordpools/wasnorm_wordpool_less_exclusions.txt	LTP290	ltpFR	17	5	1	ENGINE	535	n/a	n/a	0	0.57763671875	0.412841796875	1	lower	amplitud.ttf
639760	WORD	wordpools/wasnorm_wordpool_less_exclusions.txt	LTP290	ltpFR	17	5	1	WHEEL	1603	n/a	n/a	0	0.57763671875	0.412841796875	1	lower	amplitud.ttf
643656	WORD	wordpools/wasnorm_wordpool_less_exclusions.txt	LTP290	ltpFR	17	5	1	CUCUMBER	421	n/a	n/a	0	0.57763671875	0.412841796875	1	lower	amplitud.ttf
647732	WORD	wordpools/wasnorm_wordpool_less_exclusions.txt	LTP290	ltpFR	17	5	1	SAGE	1222	n/a	n/a	0	0.57763671875	0.412841796875	1	lower	amplitud.ttf
651709	WORD	wordpools/wasnorm_wordpool_less_exclusions.txt	LTP290	ltpFR	17	5	1	DRAGON	492	n/a	n/a	1	0.57763671875	0.412841796875	1	lower	amplitud.ttf
655887	WORD	wordpools/wasnorm_wordpool_less_exclusions.txt	LTP290	ltpFR	17	5	1	STAKE	1368	n/a	n/a	0	0.57763671875	0.412841796875	1	lower	amplitud.ttf
659848	WORD	wordpools/wasnorm_wordpool_less_exclusions.txt	LTP290	ltpFR	17	5	1	CLAM	315	n/a	n/a	0	0.57763671875	0.412841796875	1	lower	amplitud.ttf
665739	REC_START	n/a	LTP290	ltpFR	17	5	n/a	n/a	n/a	n/a	n/a	n/a	n/a	n/a	n/a	n/a	n/a
666459	REC_WORD_VV	wordpools/wasnorm_wordpool_less_exclusions.txt	LTP290	ltpFR	17	5	n/a	<>	-1	n/a	n/a	n/a	n/a	n/a	n/a	n/a	n/a
668202	REC_WORD	wordpools/wasnorm_wordpool_less_exclusions.txt	LTP290	ltpFR	17	5	1	DRAGON	492	n/a	n/a	1	n/a	n/a	n/a	n/a	n/a
668606	REC_WORD	wordpools/wasnorm_wordpool_less_exclusions.txt	LTP290	ltpFR	17	5	1	STAKE	1368	n/a	n/a	0	n/a	n/a	n/a	n/a	n/a
669160	REC_WORD	wordpools/wasnorm_wordpool_less_exclusions.txt	LTP290	ltpFR	17	5	1	CLAM	315	n/a	n/a	0	n/a	n/a	n/a	n/a	n/a
674773	REC_WORD	wordpools/wasnorm_wordpool_less_exclusions.txt	LTP290	ltpFR	17	5	1	ENGINE	535	n/a	n/a	0	n/a	n/a	n/a	n/a	n/a
675337	REC_WORD	wordpools/wasnorm_wordpool_less_exclusions.txt	LTP290	ltpFR	17	5	1	TICK	1463	n/a	n/a	0	n/a	n/a	n/a	n/a	n/a
689285	REC_WORD	wordpools/wasnorm_wordpool_less_exclusions.txt	LTP290	ltpFR	17	5	1	MARKER	870	n/a	n/a	0	n/a	n/a	n/a	n/a	n/a
689848	REC_WORD	wordpools/wasnorm_wordpool_less_exclusions.txt	LTP290	ltpFR	17	5	1	ANGEL	22	n/a	n/a	1	n/a	n/a	n/a	n/a	n/a
690394	REC_WORD	wordpools/wasnorm_wordpool_less_exclusions.txt	LTP290	ltpFR	17	5	1	WOLF	1619	n/a	n/a	1	n/a	n/a	n/a	n/a	n/a
690916	REC_WORD	wordpools/wasnorm_wordpool_less_exclusions.txt	LTP290	ltpFR	17	5	1	QUEEN	1149	n/a	n/a	1	n/a	n/a	n/a	n/a	n/a
691603	REC_WORD	wordpools/wasnorm_wordpool_less_exclusions.txt	LTP290	ltpFR	17	5	1	SHELTER	1282	n/a	n/a	0	n/a	n/a	n/a	n/a	n/a
692189	REC_WORD	wordpools/wasnorm_wordpool_less_exclusions.txt	LTP290	ltpFR	17	5	1	HUT	729	n/a	n/a	0	n/a	n/a	n/a	n/a	n/a
692876	REC_WORD	wordpools/wasnorm_wordpool_less_exclusions.txt	LTP290	ltpFR	17	5	1	GUARDIAN	668	n/a	n/a	1	n/a	n/a	n/a	n/a	n/a
714176	REC_WORD_VV	wordpools/wasnorm_wordpool_less_exclusions.txt	LTP290	ltpFR	17	5	n/a	<>	-1	n/a	n/a	n/a	n/a	n/a	n/a	n/a	n/a
715176	REC_WORD_VV	wordpools/wasnorm_wordpool_less_exclusions.txt	LTP290	ltpFR	17	5	n/a	<>	-1	n/a	n/a	n/a	n/a	n/a	n/a	n/a	n/a
716176	REC_WORD_VV	wordpools/wasnorm_wordpool_less_exclusions.txt	LTP290	ltpFR	17	5	n/a	<>	-1	n/a	n/a	n/a	n/a	n/a	n/a	n/a	n/a
743839	WORD	wordpools/wasnorm_wordpool_less_exclusions.txt	LTP290	ltpFR	17	6	-1	BALLOT	76	n/a	n/a	-1	1.0	1.0	1	upper	Verdana.ttf
747799	WORD	wordpools/wasnorm_wordpool_less_exclusions.txt	LTP290	ltpFR	17	6	-1	SUBMARINE	1398	n/a	n/a	-1	1.0	1.0	1	upper	Verdana.ttf
751994	WORD	wordpools/wasnorm_wordpool_less_exclusions.txt	LTP290	ltpFR	17	6	-1	BRAKE	166	n/a	n/a	-1	1.0	1.0	1	upper	Verdana.ttf
755955	WORD	wordpools/wasnorm_wordpool_less_exclusions.txt	LTP290	ltpFR	17	6	-1	TRUCK	1512	n/a	n/a	-1	1.0	1.0	1	upper	Verdana.ttf
759915	WORD	wordpools/wasnorm_wordpool_less_exclusions.txt	LTP290	ltpFR	17	6	-1	CASHEW	253	n/a	n/a	-1	1.0	1.0	1	upper	Verdana.ttf
764076	WORD	wordpools/wasnorm_wordpool_less_exclusions.txt	LTP290	ltpFR	17	6	-1	WALNUT	1584	n/a	n/a	-1	1.0	1.0	1	upper	Verdana.ttf
767987	WORD	wordpools/wasnorm_wordpool_less_exclusions.txt	LTP290	ltpFR	17	6	-1	CASH	252	n/a	n/a	-1	1.0	1.0	1	upper	Verdana.ttf
772097	WORD	wordpools/wasnorm_wordpool_less_exclusions.txt	LTP290	ltpFR	17	6	-1	MOUNTAIN	924	n/a	n/a	-1	1.0	1.0	1	upper	Verdana.ttf
776224	WORD	wordpools/wasnorm_wordpool_less_exclusions.txt	LTP290	ltpFR	17	6	-1	BATH	98	n/a	n/a	-1	1.0	1.0	1	upper	Verdana.ttf
780168	WORD	wordpools/wasnorm_wordpool_less_exclusions.txt	LTP290	ltpFR	17	6	-1	SLIDE	1326	n/a	n/a	-1	1.0	1.0	1	upper	Verdana.ttf
784196	WORD	wordpools/wasnorm_wordpool_less_exclusions.txt	LTP290	ltpFR	17	6	-1	PAD	998	n/a	n/a	-1	1.0	1.0	1	upper	Verdana.ttf
788107	WORD	wordpools/wasnorm_wordpool_less_exclusions.txt	LTP290	ltpFR	17	6	-1	CAFE	216	n/a	n/a	-1	1.0	1.0	1	upper	Verdana.ttf
792067	WORD	wordpools/wasnorm_wordpool_less_exclusions.txt	LTP290	ltpFR	17	6	-1	OVEN	991	n/a	n/a	-1	1.0	1.0	1	upper	Verdana.ttf
795995	WORD	wordpools/wasnorm_wordpool_less_exclusions.txt	LTP290	ltpFR	17	6	-1	TYPEWRITER	1531	n/a	n/a	-1	1.0	1.0	1	upper	Verdana.ttf
799956	WORD	wordpools/wasnorm_wordpool_less_exclusions.txt	LTP290	ltpFR	17	6	-1	NAIL	936	n/a	n/a	-1	1.0	1.0	1	upper	Verdana.ttf
803933	WORD	wordpools/wasnorm_wordpool_less_exclusions.txt	LTP290	ltpFR	17	6	-1	WALLET	1583	n/a	n/a	-1	1.0	1.0	1	upper	Verdana.ttf
809692	REC_START	n/a	LTP290	ltpFR	17	6	n/a	n/a	n/a	n/a	n/a	n/a	n/a	n/a	n/a	n/a	n/a
810425	REC_WORD	wordpools/wasnorm_wordpool_less_exclusions.txt	LTP290	ltpFR	17	6	-1	NAIL	936	n/a	n/a	-1	n/a	n/a	n/a	n/a	n/a
810907	REC_WORD	wordpools/wasnorm_wordpool_less_exclusions.txt	LTP290	ltpFR	17	6	-1	WALLET	1583	n/a	n/a	-1	n/a	n/a	n/a	n/a	n/a
815485	REC_WORD	wordpools/wasnorm_wordpool_less_exclusions.txt	LTP290	ltpFR	17	6	-1	BATH	98	n/a	n/a	-1	n/a	n/a	n/a	n/a	n/a
816948	REC_WORD	wordpools/wasnorm_wordpool_less_exclusions.txt	LTP290	ltpFR	17	6	-1	SLIDE	1326	n/a	n/a	-1	n/a	n/a	n/a	n/a	n/a
825726	REC_WORD	wordpools/wasnorm_wordpool_less_exclusions.txt	LTP290	ltpFR	17	6	-1	PAD	998	n/a	n/a	-1	n/a	n/a	n/a	n/a	n/a
826190	REC_WORD	wordpools/wasnorm_wordpool_less_exclusions.txt	LTP290	ltpFR	17	6	-1	CAFE	216	n/a	n/a	-1	n/a	n/a	n/a	n/a	n/a
830434	REC_WORD	wordpools/wasnorm_wordpool_less_exclusions.txt	LTP290	ltpFR	17	6	-1	BRAKE	166	n/a	n/a	-1	n/a	n/a	n/a	n/a	n/a
830892	REC_WORD	wordpools/wasnorm_wordpool_less_exclusions.txt	LTP290	ltpFR	17	6	-1	TRUCK	1512	n/a	n/a	-1	n/a	n/a	n/a	n/a	n/a
831835	REC_WORD	wordpools/wasnorm_wordpool_less_exclusions.txt	LTP290	ltpFR	17	6	-1	CASHEW	253	n/a	n/a	-1	n/a	n/a	n/a	n/a	n/a
832319	REC_WORD	wordpools/wasnorm_wordpool_less_exclusions.txt	LTP290	ltpFR	17	6	-1	WALNUT	1584	n/a	n/a	-1	n/a	n/a	n/a	n/a	n/a
835835	REC_WORD	wordpools/wasnorm_wordpool_less_exclusions.txt	LTP290	ltpFR	17	6	-1	CASH	252	n/a	n/a	-1	n/a	n/a	n/a	n/a	n/a
839455	REC_WORD	wordpools/wasnorm_wordpool_less_exclusions.txt	LTP290	ltpFR	17	6	-1	OVEN	991	n/a	n/a	-1	n/a	n/a	n/a	n/a	n/a
888473	WORD	wordpools/wasnorm_wordpool_less_exclusions.txt	LTP290	ltpFR	17	7	0	WARDROBE	1587	n/a	n/a	0	0.422607421875	0.5869140625	0	upper	zerothre.ttf
892318	WORD	wordpools/wasnorm_wordpool_less_exclusions.txt	LTP290	ltpFR	17	7	0	OUTFIT	988	n/a	n/a	0	0.422607421875	0.5869140625	0	upper	zerothre.ttf
896279	WORD	wordpools/wasnorm_wordpool_less_exclusions.txt	LTP290	ltpFR	17	7	0	TEACHER	1440	n/a	n/a	1	0.422607421875	0.5869140625	0	upper	zerothre.ttf
900456	WORD	wordpools/wasnorm_wordpool_less_exclusions.txt	LTP290	ltpFR	17	7	1	BUG	187	n/a	n/a	1	0.57763671875	0.412841796875	1	lower	amplitud.ttf
904516	WORD	wordpools/wasnorm_wordpool_less_exclusions.txt	LTP290	ltpFR	17	7	1	YARD	1630	n/a	n/a	0	0.57763671875	0.412841796875	1	lower	amplitud.ttf
908610	WORD	wordpools/wasnorm_wordpool_less_exclusions.txt	LTP290	ltpFR	17	7	1	CRUMB	416	n/a	n/a	0	0.57763671875	0.412841796875	1	lower	amplitud.ttf
912571	WORD	wordpools/wasnorm_wordpool_less_exclusions.txt	LTP290	ltpFR	17	7	1	CLASS	318	n/a	n/a	0	0.57763671875	0.412841796875	1	lower	amplitud.ttf
916747	WORD	wordpools/wasnorm_wordpool_less_exclusions.txt	LTP290	ltpFR	17	7	1	BUGLE	189	n/a	n/a	0	0.57763671875	0.412841796875	1	lower	amplitud.ttf
920958	WORD	wordpools/wasnorm_wordpool_less_exclusions.txt	LTP290	ltpFR	17	7	0	CHICK	296	n/a	n/a	0	0.422607421875	0.5869140625	0	upper	zerothre.ttf
924902	WORD	wordpools/wasnorm_wordpool_less_exclusions.txt	LTP290	ltpFR	17	7	0	SUPERMARKET	1409	n/a	n/a	1	0.422607421875	0.5869140625	0	upper	zerothre.ttf
928830	WORD	wordpools/wasnorm_wordpool_less_exclusions.txt	LTP290	ltpFR	17	7	1	POPCORN	1104	n/a	n/a	0	0.57763671875	0.412841796875	1	lower	amplitud.ttf
932924	WORD	wordpools/wasnorm_wordpool_less_exclusions.txt	LTP290	ltpFR	17	7	1	BUTTERFLY	206	n/a	n/a	1	0.57763671875	0.412841796875	1	lower	amplitud.ttf
936800	WORD	wordpools/wasnorm_wordpool_less_exclusions.txt	LTP290	ltpFR	17	7	1	BAKER	71	n/a	n/a	1	0.57763671875	0.412841796875	1	lower	amplitud.ttf
940811	WORD	wordpools/wasnorm_wordpool_less_exclusions.txt	LTP290	ltpFR	17	7	0	HINGE	709	n/a	n/a	0	0.422607421875	0.5869140625	0	upper	zerothre.ttf
944755	WORD	wordpools/wasnorm_wordpool_less_exclusions.txt	LTP290	ltpFR	17	7	0	RAZOR	1171	n/a	n/a	0	0.422607421875	0.5869140625	0	upper	zerothre.ttf
948782	WORD	wordpools/wasnorm_wordpool_less_exclusions.txt	LTP290	ltpFR	17	7	0	SILVERWARE	1308	n/a	n/a	1	0.422607421875	0.5869140625	0	upper	zerothre.ttf
954542	REC_START	n/a	LTP290	ltpFR	17	7	n/a	n/a	n/a	n/a	n/a	n/a	n/a	n/a	n/a	n/a	n/a
955842	REC_WORD_VV	wordpools/wasnorm_wordpool_less_exclusions.txt	LTP290	ltpFR	17	7	n/a	<>	-1	n/a	n/a	n/a	n/a	n/a	n/a	n/a	n/a
956238	REC_WORD	wordpools/wasnorm_wordpool_less_exclusions.txt	LTP290	ltpFR	17	7	0	SILVERWARE	1308	n/a	n/a	1	n/a	n/a	n/a	n/a	n/a
956808	REC_WORD	wordpools/wasnorm_wordpool_less_exclusions.txt	LTP290	ltpFR	17	7	0	HINGE	709	n/a	n/a	0	n/a	n/a	n/a	n/a	n/a
960490	REC_WORD	wordpools/wasnorm_wordpool_less_exclusions.txt	LTP290	ltpFR	17	7	0	WARDROBE	1587	n/a	n/a	0	n/a	n/a	n/a	n/a	n/a
1033424	WORD	wordpools/wasnorm_wordpool_less_exclusions.txt	LTP290	ltpFR	17	8	-1	ROSE	1212	n/a	n/a	-1	1.0	1.0	1	upper	Verdana.ttf
1037351	WORD	wordpools/wasnorm_wordpool_less_exclusions.txt	LTP290	ltpFR	17	8	-1	RADISH	1158	n/a	n/a	-1	1.0	1.0	1	upper	Verdana.ttf
1041562	WORD	wordpools/wasnorm_wordpool_less_exclusions.txt	LTP290	ltpFR	17	8	-1	LIMB	822	n/a	n/a	-1	1.0	1.0	1	upper	Verdana.ttf
1045539	WORD	wordpools/wasnorm_wordpool_less_exclusions.txt	LTP290	ltpFR	17	8	-1	COWBOY	395	n/a	n/a	-1	1.0	1.0	1	upper	Verdana.ttf
1049450	WORD	wordpools/wasnorm_wordpool_less_exclusions.txt	LTP290	ltpFR	17	8	-1	ORCHID	982	n/a	n/a	-1	1.0	1.0	1	upper	Verdana.ttf
1053594	WORD	wordpools/wasnorm_wordpool_less_exclusions.txt	LTP290	ltpFR	17	8	-1	GENERAL	630	n/a	n/a	-1	1.0	1.0	1	upper	Verdana.ttf
1057654	WORD	wordpools/wasnorm_wordpool_less_exclusions.txt	LTP290	ltpFR	17	8	-1	CERAMICS	271	n/a	n/a	-1	1.0	1.0	1	upper	Verdana.ttf
1061848	WORD	wordpools/wasnorm_wordpool_less_exclusions.txt	LTP290	ltpFR	17	8	-1	MUSEUM	933	n/a	n/a	-1	1.0	1.0	1	upper	Verdana.ttf
1065741	WORD	wordpools/wasnorm_wordpool_less_exclusions.txt	LTP290	ltpFR	17	8	-1	ELBOW	520	n/a	n/a	-1	1.0	1.0	1	upper	Verdana.ttf
1069768	WORD	wordpools/wasnorm_wordpool_less_exclusions.txt	LTP290	ltpFR	17	8	-1	CATHEDRAL	260	n/a	n/a	-1	1.0	1.0	1	upper	Verdana.ttf
1073664	WORD	wordpools/wasnorm_wordpool_less_exclusions.txt	LTP290	ltpFR	17	8	-1	MULE	931	n/a	n/a	-1	1.0	1.0	1	upper	Verdana.ttf
1077874	WORD	wordpools/wasnorm_wordpool_less_exclusions.txt	LTP290	ltpFR	17	8	-1	WILDERNESS	1610	n/a	n/a	-1	1.0	1.0	1	upper	Verdana.ttf
1081968	WORD	wordpools/wasnorm_wordpool_less_exclusions.txt	LTP290	ltpFR	17	8	-1	RADIATOR	1156	n/a	n/a	-1	1.0	1.0	1	upper	Verdana.ttf
1086128	WORD	wordpools/wasnorm_wordpool_less_exclusions.txt	LTP290	ltpFR	17	8	-1	CAR	241	n/a	n/a	-1	1.0	1.0	1	upper	Verdana.ttf
1089973	WORD	wordpools/wasnorm_wordpool_less_exclusions.txt	LTP290	ltpFR	17	8	-1	PERMIT	1051	n/a	n/a	-1	1.0	1.0	1	upper	Verdana.ttf
1093799	WORD	wordpools/wasnorm_wordpool_less_exclusions.txt	LTP290	ltpFR	17	8	-1	SAP	1233	n/a	n/a	-1	1.0	1.0	1	upper	Verdana.ttf
1099858	REC_START	n/a	LTP290	ltpFR	17	8	n/a	n/a	n/a	n/a	n/a	n/a	n/a	n/a	n/a	n/a	n/a
1102030	REC_WORD_VV	wordpools/wasnorm_wordpool_less_exclusions.txt	LTP290	ltpFR	17	8	n/a	<>	-1	n/a	n/a	n/a	n/a	n/a	n/a	n/a	n/a
1102659	REC_WORD	wordpools/wasnorm_wordpool_less_exclusions.txt	LTP290	ltpFR	17	8	-1	CAR	241	n/a	n/a	-1	n/a	n/a	n/a	n/a	n/a
1103043	REC_WORD	wordpools/wasnorm_wordpool_less_exclusions.txt	LTP290	ltpFR	17	8	-1	PERMIT	1051	n/a	n/a	-1	n/a	n/a	n/a	n/a	n/a
1103403	REC_WORD	wordpools/wasnorm_wordpool_less_exclusions.txt	LTP290	ltpFR	17	8	-1	SAP	1233	n/a	n/a	-1	n/a	n/a	n/a	n/a	n/a
1104180	REC_WORD	wordpools/wasnorm_wordpool_less_exclusions.txt	LTP290	ltpFR	17	8	-1	RADIATOR	1156	n/a	n/a	-1	n/a	n/a	n/a	n/a	n/a
1104790	REC_WORD	wordpools/wasnorm_wordpool_less_exclusions.txt	LTP290	ltpFR	17	8	-1	WILDERNESS	1610	n/a	n/a	-1	n/a	n/a	n/a	n/a	n/a
1105790	REC_WORD_VV	wordpools/wasnorm_wordpool_less_exclusions.txt	LTP290	ltpFR	17	8	n/a	<>	-1	n/a	n/a	n/a	n/a	n/a	n/a	n/a	n/a
1107221	REC_WORD	wordpools/wasnorm_wordpool_less_exclusions.txt	LTP290	ltpFR	17	8	-1	ROSE	1212	n/a	n/a	-1	n/a	n/a	n/a	n/a	n/a
1107696	REC_WORD	wordpools/wasnorm_wordpool_less_exclusions.txt	LTP290	ltpFR	17	8	-1	RADISH	1158	n/a	n/a	-1	n/a	n/a	n/a	n/a	n/a
1175462	REST_REWET	n/a	LTP290	ltpFR	17	8	n/a	n/a	n/a	n/a	n/a	n/a	n/a	n/a	n/a	n/a	n/a
1498013	WORD	wordpools/wasnorm_wordpool_less_exclusions.txt	LTP290	ltpFR	17	9	0	NAPKIN	937	n/a	n/a	0	0.422607421875	0.5869140625	0	upper	zerothre.ttf
1502141	WORD	wordpools/wasnorm_wordpool_less_exclusions.txt	LTP290	ltpFR	17	9	0	LIP	828	n/a	n/a	0	0.422607421875	0.5869140625	0	upper	zerothre.ttf
1506218	WORD	wordpools/wasnorm_wordpool_less_exclusions.txt	LTP290	ltpFR	17	9	0	LINEN	825	n/a	n/a	0	0.422607421875	0.5869140625	0	upper	zerothre.ttf
1510162	WORD	wordpools/wasnorm_wordpool_less_exclusions.txt	LTP290	ltpFR	17	9	0	MOOSE	915	n/a	n/a	1	0.422607421875	0.5869140625	0	upper	zerothre.ttf
1514106	WORD	wordpools/wasnorm_wordpool_less_exclusions.txt	LTP290	ltpFR	17	9	0	RAILROAD	1162	n/a	n/a	1	0.422607421875	0.5869140625	0	upper	zerothre.ttf
1518167	WORD	wordpools/wasnorm_wordpool_less_exclusions.txt	LTP290	ltpFR	17	9	0	UNDERWEAR	1537	n/a	n/a	0	0.422607421875	0.5869140625	0	upper	zerothre.ttf
1522310	WORD	wordpools/wasnorm_wordpool_less_exclusions.txt	LTP290	ltpFR	17	9	0	SQUID	1361	n/a	n/a	1	0.422607421875	0.5869140625	0	upper	zerothre.ttf
1526255	WORD	wordpools/wasnorm_wordpool_less_exclusions.txt	LTP290	ltpFR	17	9	0	FIN	566	n/a	n/a	0	0.422607421875	0.5869140625	0	upper	zerothre.ttf
1530365	WORD	wordpools/wasnorm_wordpool_less_exclusions.txt	LTP290	ltpFR	17	9	0	REEF	1177	n/a	n/a	1	0.422607421875	0.5869140625	0	upper	zerothre.ttf
1534326	WORD	wordpools/wasnorm_wordpool_less_exclusions.txt	LTP290	ltpFR	17	9	0	ANTLER	29	n/a	n/a	1	0.422607421875	0.5869140625	0	upper	zerothre.ttf
1538153	WORD	wordpools/wasnorm_wordpool_less_exclusions.txt	LTP290	ltpFR	17	9	0	LAWN	805	n/a	n/a	1	0.422607421875	0.5869140625	0	upper	zerothre.ttf
1542164	WORD	wordpools/wasnorm_wordpool_less_exclusions.txt	LTP290	ltpFR	17	9	0	REFRIGERATOR	1179	n/a	n/a	1	0.422607421875	0.5869140625	0	upper	zerothre.ttf
1546175	WORD	wordpools/wasnorm_wordpool_less_exclusions.txt	LTP290	ltpFR	17	9	0	CUPBOARD	425	n/a	n/a	1	0.422607421875	0.5869140625	0	upper	zerothre.ttf
1550119	WORD	wordpools/wasnorm_wordpool_less_exclusions.txt	LTP290	ltpFR	17	9	0	DRYER	503	n/a	n/a	1	0.422607421875	0.5869140625	0	upper	zerothre.ttf
1554163	WORD	wordpools/wasnorm_wordpool_less_exclusions.txt	LTP290	ltpFR	17	9	0	HAM	678	n/a	n/a	0	0.422607421875	0.5869140625	0	upper	zerothre.ttf
1558040	WORD	wordpools/wasnorm_wordpool_less_exclusions.txt	LTP290	ltpFR	17	9	0	WAVE	1596	n/a	n/a	1	0.422607421875	0.5869140625	0	upper	zerothre.ttf
1564165	REC_START	n/a	LTP290	ltpFR	17	9	n/a	n/a	n/a	n/a	n/a	n/a	n/a	n/a	n/a	n/a	n/a
1565391	REC_WORD	wordpools/wasnorm_wordpool_less_exclusions.txt	LTP290	ltpFR	17	9	0	WAVE	1596	n/a	n/a	1	n/a	n/a	n/a	n/a	n/a
1565812	REC_WORD	wordpools/wasnorm_wordpool_less_exclusions.txt	LTP290	ltpFR	17	9	0	HAM	678	n/a	n/a	0	n/a	n/a	n/a	n/a	n/a
1566449	REC_WORD	wordpools/wasnorm_wordpool_less_exclusions.txt	LTP290	ltpFR	17	9	0	REFRIGERATOR	1179	n/a	n/a	1	n/a	n/a	n/a	n/a	n/a
1567522	REC_WORD	wordpools/wasnorm_wordpool_less_exclusions.txt	LTP290	ltpFR	17	9	0	MOOSE	915	n/a	n/a	1	n/a	n/a	n/a	n/a	n/a
1568142	REC_WORD	wordpools/wasnorm_wordpool_less_exclusions.txt	LTP290	ltpFR	17	9	0	ANTLER	29	n/a	n/a	1	n/a	n/a	n/a	n/a	n/a
1569924	REC_WORD_VV	wordpools/wasnorm_wordpool_less_exclusions.txt	LTP290	ltpFR	17	9	n/a	<>	-1	n/a	n/a	n/a	n/a	n/a	n/a	n/a	n/a
1571148	REC_WORD	wordpools/wasnorm_wordpool_less_exclusions.txt	LTP290	ltpFR	17	9	0	NAPKIN	937	n/a	n/a	0	n/a	n/a	n/a	n/a	n/a
1571725	REC_WORD	wordpools/wasnorm_wordpool_less_exclusions.txt	LTP290	ltpFR	17	9	0	LIP	828	n/a	n/a	0	n/a	n/a	n/a	n/a	n/a
1573515	REC_WORD	wordpools/wasnorm_wordpool_less_exclusions.txt	LTP290	ltpFR	17	9	0	LINEN	825	n/a	n/a	0	n/a	n/a	n/a	n/a	n/a
1642381	WORD	wordpools/wasnorm_wordpool_less_exclusions.txt	LTP290	ltpFR	17	10	1	CATCHER	258	n/a	n/a	0	0.57763671875	0.412841796875	1	lower	amplitud.ttf
1646442	WORD	wordpools/wasnorm_wordpool_less_exclusions.txt	LTP290	ltpFR	17	10	1	HOSE	720	n/a	n/a	0	0.57763671875	0.412841796875	1	lower	amplitud.ttf
1650452	WORD	wordpools/wasnorm_wordpool_less_exclusions.txt	LTP290	ltpFR	17	10	1	FAUCET	555	n/a	n/a	0	0.57763671875	0.412841796875	1	lower	amplitud.ttf
1654580	WORD	wordpools/wasnorm_wordpool_less_exclusions.txt	LTP290	ltpFR	17	10	1	TURTLE	1522	n/a	n/a	1	0.57763671875	0.412841796875	1	lower	amplitud.ttf
1658424	WORD	wordpools/wasnorm_wordpool_less_exclusions.txt	LTP290	ltpFR	17	10	1	DUNE	506	n/a	n/a	0	0.57763671875	0.412841796875	1	lower	amplitud.ttf
1662501	WORD	wordpools/wasnorm_wordpool_less_exclusions.txt	LTP290	ltpFR	17	10	0	GUITAR	670	n/a	n/a	1	0.422607421875	0.5869140625	0	upper	zerothre.ttf
1666412	WORD	wordpools/wasnorm_wordpool_less_exclusions.txt	LTP290	ltpFR	17	10	0	SPOON	1357	n/a	n/a	0	0.422607421875	0.5869140625	0	upper	zerothre.ttf
1670606	WORD	wordpools/wasnorm_wordpool_less_exclusions.txt	LTP290	ltpFR	17	10	0	FLY	586	n/a	n/a	0	0.422607421875	0.5869140625	0	upper	zerothre.ttf
1674467	WORD	wordpools/wasnorm_wordpool_less_exclusions.txt	LTP290	ltpFR	17	10	1	LEG	809	n/a	n/a	0	0.57763671875	0.412841796875	1	lower	amplitud.ttf
1678477	WORD	wordpools/wasnorm_wordpool_less_exclusions.txt	LTP290	ltpFR	17	10	1	FLEA	577	n/a	n/a	0	0.57763671875	0.412841796875	1	lower	amplitud.ttf
1682355	WORD	wordpools/wasnorm_wordpool_less_exclusions.txt	LTP290	ltpFR	17	10	1	JUG	762	n/a	n/a	0	0.57763671875	0.412841796875	1	lower	amplitud.ttf
1686382	WORD	wordpools/wasnorm_wordpool_less_exclusions.txt	LTP290	ltpFR	17	10	0	MONGOOSE	909	n/a	n/a	1	0.422607421875	0.5869140625	0	upper	zerothre.ttf
1690493	WORD	wordpools/wasnorm_wordpool_less_exclusions.txt	LTP290	ltpFR	17	10	0	POSSUM	1112	n/a	n/a	1	0.422607421875	0.5869140625	0	upper	zerothre.ttf
1694437	WORD	wordpools/wasnorm_wordpool_less_exclusions.txt	LTP290	ltpFR	17	10	0	BARTENDER	92	n/a	n/a	1	0.422607421875	0.5869140625	0	upper	zerothre.ttf
1698281	WORD	wordpools/wasnorm_wordpool_less_exclusions.txt	LTP290	ltpFR	17	10	0	AUDIENCE	59	n/a	n/a	1	0.422607421875	0.5869140625	0	upper	zerothre.ttf
1702159	WORD	wordpools/wasnorm_wordpool_less_exclusions.txt	LTP290	ltpFR	17	10	0	TUBA	1515	n/a	n/a	1	0.422607421875	0.5869140625	0	upper	zerothre.ttf
1708084	REC_START	n/a	LTP290	ltpFR	17	10	n/a	n/a	n/a	n/a	n/a	n/a	n/a	n/a	n/a	n/a	n/a
1708194	REC_WORD_VV	wordpools/wasnorm_wordpool_less_exclusions.txt	LTP290	ltpFR	17	10	n/a	<>	-1	n/a	n/a	n/a	n/a	n/a	n/a	n/a	n/a
1708619	REC_WORD	wordpools/wasnorm_wordpool_less_exclusions.txt	LTP290	ltpFR	17	10	0	BARTENDER	92	n/a	n/a	1	n/a	n/a	n/a	n/a	n/a
1709047	REC_WORD	wordpools/wasnorm_wordpool_less_exclusions.txt	LTP290	ltpFR	17	10	0	AUDIENCE	59	n/a	n/a	1	n/a	n/a	n/a	n/a	n/a
1709621	REC_WORD	wordpools/wasnorm_wordpool_less_exclusions.txt	LTP290	ltpFR	17	10	0	TUBA	1515	n/a	n/a	1	n/a	n/a	n/a	n/a	n/a
1710196	REC_WORD	wordpools/wasnorm_wordpool_less_exclusions.txt	LTP290	ltpFR	17	10	0	MONGOOSE	909	n/a	n/a	1	n/a	n/a	n/a	n/a	n/a
1712041	REC_WORD	wordpools/wasnorm_wordpool_less_exclusions.txt	LTP290	ltpFR	17	10	0	POSSUM	1112	n/a	n/a	1	n/a	n/a	n/a	n/a	n/a
1716206	REC_WORD	wordpools/wasnorm_wordpool_less_exclusions.txt	LTP290	ltpFR	17	10	0	REFRIGERATOR	1179	n/a	n/a	1	n/a	n/a	n/a	n/a	n/a
1720254	REC_WORD	wordpools/wasnorm_wordpool_less_exclusions.txt	LTP290	ltpFR	17	10	0	FLY	586	n/a	n/a	0	n/a	n/a	n/a	n/a	n/a
1720876	REC_WORD	wordpools/wasnorm_wordpool_less_exclusions.txt	LTP290	ltpFR	17	10	1	LEG	809	n/a	n/a	0	n/a	n/a	n/a	n/a	n/a
1721317	REC_WORD	wordpools/wasnorm_wordpool_less_exclusions.txt	LTP290	ltpFR	17	10	1	FLEA	577	n/a	n/a	0	n/a	n/a	n/a	n/a	n/a
1721932	REC_WORD	wordpools/wasnorm_wordpool_less_exclusions.txt	LTP290	ltpFR	17	10	1	JUG	762	n/a	n/a	0	n/a	n/a	n/a	n/a	n/a
1806020	WORD	wordpools/wasnorm_wordpool_less_exclusions.txt	LTP290	ltpFR	17	11	0	COCOON	339	n/a	n/a	0	0.422607421875	0.5869140625	0	upper	zerothre.ttf
1809948	WORD	wordpools/wasnorm_wordpool_less_exclusions.txt	LTP290	ltpFR	17	11	0	WELL	1600	n/a	n/a	0	0.422607421875	0.5869140625	0	upper	zerothre.ttf
1813825	WORD	wordpools/wasnorm_wordpool_less_exclusions.txt	LTP290	ltpFR	17	11	0	IGLOO	734	n/a	n/a	1	0.422607421875	0.5869140625	0	upper	zerothre.ttf
1817952	WORD	wordpools/wasnorm_wordpool_less_exclusions.txt	LTP290	ltpFR	17	11	0	WAITRESS	1581	n/a	n/a	1	0.422607421875	0.5869140625	0	upper	zerothre.ttf
1821946	WORD	wordpools/wasnorm_wordpool_less_exclusions.txt	LTP290	ltpFR	17	11	0	CRAB	397	n/a	n/a	0	0.422607421875	0.5869140625	0	upper	zerothre.ttf
1825974	WORD	wordpools/wasnorm_wordpool_less_exclusions.txt	LTP290	ltpFR	17	11	0	CRITIC	410	n/a	n/a	1	0.422607421875	0.5869140625	0	upper	zerothre.ttf
1829934	WORD	wordpools/wasnorm_wordpool_less_exclusions.txt	LTP290	ltpFR	17	11	0	SHACK	1273	n/a	n/a	1	0.422607421875	0.5869140625	0	upper	zerothre.ttf
1833929	WORD	wordpools/wasnorm_wordpool_less_exclusions.txt	LTP290	ltpFR	17	11	0	GRADUATE	653	n/a	n/a	1	0.422607421875	0.5869140625	0	upper	zerothre.ttf
1838006	WORD	wordpools/wasnorm_wordpool_less_exclusions.txt	LTP290	ltpFR	17	11	0	TOMATO	1476	n/a	n/a	0	0.422607421875	0.5869140625	0	upper	zerothre.ttf
1842183	WORD	wordpools/wasnorm_wordpool_less_exclusions.txt	LTP290	ltpFR	17	11	0	FURNITURE	616	n/a	n/a	1	0.422607421875	0.5869140625	0	upper	zerothre.ttf
1846227	WORD	wordpools/wasnorm_wordpool_less_exclusions.txt	LTP290	ltpFR	17	11	0	SPIT	1354	n/a	n/a	0	0.422607421875	0.5869140625	0	upper	zerothre.ttf
1850171	WORD	wordpools/wasnorm_wordpool_less_exclusions.txt	LTP290	ltpFR	17	11	0	EMERALD	528	n/a	n/a	0	0.422607421875	0.5869140625	0	upper	zerothre.ttf
1854331	WORD	wordpools/wasnorm_wordpool_less_exclusions.txt	LTP290	ltpFR	17	11	0	VEGETABLE	1552	n/a	n/a	0	0.422607421875	0.5869140625	0	upper	zerothre.ttf
1858242	WORD	wordpools/wasnorm_wordpool_less_exclusions.txt	LTP290	ltpFR	17	11	0	LETTUCE	814	n/a	n/a	0	0.422607421875	0.5869140625	0	upper	zerothre.ttf
1862386	WORD	wordpools/wasnorm_wordpool_less_exclusions.txt	LTP290	ltpFR	17	11	0	MONK	910	n/a	n/a	1	0.422607421875	0.5869140625	0	upper	zerothre.ttf
1866596	WORD	wordpools/wasnorm_wordpool_less_exclusions.txt	LTP290	ltpFR	17	11	0	CHURCH	307	n/a	n/a	1	0.422607421875	0.5869140625	0	upper	zerothre.ttf
1872654	REC_START	n/a	LTP290	ltpFR	17	11	n/a	n/a	n/a	n/a	n/a	n/a	n/a	n/a	n/a	n/a	n/a
1873297	REC_WORD	wordpools/wasnorm_wordpool_less_exclusions.txt	LTP290	ltpFR	17	11	n/a	Z	-1	n/a	n/a	n/a	n/a	n/a	n/a	n/a	n/a
1875034	REC_WORD	wordpools/wasnorm_wordpool_less_exclusions.txt	LTP290	ltpFR	17	11	0	CHURCH	307	n/a	n/a	1	n/a	n/a	n/a	n/a	n/a
1890959	REC_WORD	wordpools/wasnorm_wordpool_less_exclusions.txt	LTP290	ltpFR	17	11	0	COCOON	339	n/a	n/a	0	n/a	n/a	n/a	n/a	n/a
1891743	REC_WORD	wordpools/wasnorm_wordpool_less_exclusions.txt	LTP290	ltpFR	17	11	0	WELL	1600	n/a	n/a	0	n/a	n/a	n/a	n/a	n/a
1892394	REC_WORD	wordpools/wasnorm_wordpool_less_exclusions.txt	LTP290	ltpFR	17	11	0	IGLOO	734	n/a	n/a	1	n/a	n/a	n/a	n/a	n/a
1895744	REC_WORD_VV	wordpools/wasnorm_wordpool_less_exclusions.txt	LTP290	ltpFR	17	11	n/a	<>	-1	n/a	n/a	n/a	n/a	n/a	n/a	n/a	n/a
1896852	REC_WORD	wordpools/wasnorm_wordpool_less_exclusions.txt	LTP290	ltpFR	17	11	0	WAITRESS	1581	n/a	n/a	1	n/a	n/a	n/a	n/a	n/a
1897860	REC_WORD	wordpools/wasnorm_wordpool_less_exclusions.txt	LTP290	ltpFR	17	11	0	CRAB	397	n/a	n/a	0	n/a	n/a	n/a	n/a	n/a
1951253	WORD	wordpools/wasnorm_wordpool_less_exclusions.txt	LTP290	ltpFR	17	12	1	SHEARS	1276	n/a	n/a	0	0.57763671875	0.412841796875	1	lower	amplitud.ttf
1955131	WORD	wordpools/wasnorm_wordpool_less_exclusions.txt	LTP290	ltpFR	17	12	1	ROOT	1210	n/a	n/a	0	0.57763671875	0.412841796875	1	lower	amplitud.ttf
1959108	WORD	wordpools/wasnorm_wordpool_less_exclusions.txt	LTP290	ltpFR	17	12	1	MEAL	882	n/a	n/a	0	0.57763671875	0.412841796875	1	lower	amplitud.ttf
1963169	WORD	wordpools/wasnorm_wordpool_less_exclusions.txt	LTP290	ltpFR	17	12	1	BROCCOLI	176	n/a	n/a	0	0.57763671875	0.412841796875	1	lower	amplitud.ttf
1967379	WORD	wordpools/wasnorm_wordpool_less_exclusions.txt	LTP290	ltpFR	17	12	1	VINE	1568	n/a	n/a	0	0.57763671875	0.412841796875	1	lower	amplitud.ttf
1971224	WORD	wordpools/wasnorm_wordpool_less_exclusions.txt	LTP290	ltpFR	17	12	1	SMOG	1330	n/a	n/a	0	0.57763671875	0.412841796875	1	lower	amplitud.ttf
1975334	WORD	wordpools/wasnorm_wordpool_less_exclusions.txt	LTP290	ltpFR	17	12	1	LEOPARD	812	n/a	n/a	1	0.57763671875	0.412841796875	1	lower	amplitud.ttf
1979228	WORD	wordpools/wasnorm_wordpool_less_exclusions.txt	LTP290	ltpFR	17	12	1	TIGER	1467	n/a	n/a	1	0.57763671875	0.412841796875	1	lower	amplitud.ttf
1983189	WORD	wordpools/wasnorm_wordpool_less_exclusions.txt	LTP290	ltpFR	17	12	1	SCISSORS	1250	n/a	n/a	0	0.57763671875	0.412841796875	1	lower	amplitud.ttf
1987266	WORD	wordpools/wasnorm_wordpool_less_exclusions.txt	LTP290	ltpFR	17	12	1	PATIO	1025	n/a	n/a	0	0.57763671875	0.412841796875	1	lower	amplitud.ttf
1991343	WORD	wordpools/wasnorm_wordpool_less_exclusions.txt	LTP290	ltpFR	17	12	1	FELLOW	558	n/a	n/a	0	0.57763671875	0.412841796875	1	lower	amplitud.ttf
1995387	WORD	wordpools/wasnorm_wordpool_less_exclusions.txt	LTP290	ltpFR	17	12	1	CARAVAN	242	n/a	n/a	0	0.57763671875	0.412841796875	1	lower	amplitud.ttf
1999498	WORD	wordpools/wasnorm_wordpool_less_exclusions.txt	LTP290	ltpFR	17	12	1	BUGGY	188	n/a	n/a	0	0.57763671875	0.412841796875	1	lower	amplitud.ttf
2003392	WORD	wordpools/wasnorm_wordpool_less_exclusions.txt	LTP290	ltpFR	17	12	1	PEOPLE	1046	n/a	n/a	1	0.57763671875	0.412841796875	1	lower	amplitud.ttf
2007603	WORD	wordpools/wasnorm_wordpool_less_exclusions.txt	LTP290	ltpFR	17	12	1	SOFA	1342	n/a	n/a	0	0.57763671875	0.412841796875	1	lower	amplitud.ttf
2011630	WORD	wordpools/wasnorm_wordpool_less_exclusions.txt	LTP290	ltpFR	17	12	1	CLOUD	328	n/a	n/a	0	0.57763671875	0.412841796875	1	lower	amplitud.ttf
2017455	REC_START	n/a	LTP290	ltpFR	17	12	n/a	n/a	n/a	n/a	n/a	n/a	n/a	n/a	n/a	n/a	n/a
2018654	REC_WORD	wordpools/wasnorm_wordpool_less_exclusions.txt	LTP290	ltpFR	17	12	1	SOFA	1342	n/a	n/a	0	n/a	n/a	n/a	n/a	n/a
2019245	REC_WORD	wordpools/wasnorm_wordpool_less_exclusions.txt	LTP290	ltpFR	17	12	1	CLOUD	328	n/a	n/a	0	n/a	n/a	n/a	n/a	n/a
2019778	REC_WORD	wordpools/wasnorm_wordpool_less_exclusions.txt	LTP290	ltpFR	17	12	n/a	PLIERS	1089	n/a	n/a	n/a	n/a	n/a	n/a	n/a	n/a
2021161	REC_WORD	wordpools/wasnorm_wordpool_less_exclusions.txt	LTP290	ltpFR	17	12	1	SHEARS	1276	n/a	n/a	0	n/a	n/a	n/a	n/a	n/a
2022390	REC_WORD	wordpools/wasnorm_wordpool_less_exclusions.txt	LTP290	ltpFR	17	12	1	LEOPARD	812	n/a	n/a	1	n/a	n/a	n/a	n/a	n/a
2022808	REC_WORD	wordpools/wasnorm_wordpool_less_exclusions.txt	LTP290	ltpFR	17	12	1	TIGER	1467	n/a	n/a	1	n/a	n/a	n/a	n/a	n/a
2024233	REC_WORD	wordpools/wasnorm_wordpool_less_exclusions.txt	LTP290	ltpFR	17	12	1	PEOPLE	1046	n/a	n/a	1	n/a	n/a	n/a	n/a	n/a
2024707	REC_WORD	wordpools/wasnorm_wordpool_less_exclusions.txt	LTP290	ltpFR	17	12	1	PATIO	1025	n/a	n/a	0	n/a	n/a	n/a	n/a	n/a
2031497	REC_WORD	wordpools/wasnorm_wordpool_less_exclusions.txt	LTP290	ltpFR	17	12	1	SCISSORS	1250	n/a	n/a	0	n/a	n/a	n/a	n/a	n/a
2057538	REC_WORD	wordpools/wasnorm_wordpool_less_exclusions.txt	LTP290	ltpFR	17	12	1	FELLOW	558	n/a	n/a	0	n/a	n/a	n/a	n/a	n/a
2064422	REC_WORD	wordpools/wasnorm_wordpool_less_exclusions.txt	LTP290	ltpFR	17	12	1	PEOPLE	1046	n/a	n/a	1	n/a	n/a	n/a	n/a	n/a
2095770	WORD	wordpools/wasnorm_wordpool_less_exclusions.txt	LTP290	ltpFR	17	13	1	SEAGULL	1261	n/a	n/a	1	0.57763671875	0.412841796875	1	lower	amplitud.ttf
2099814	WORD	wordpools/wasnorm_wordpool_less_exclusions.txt	LTP290	ltpFR	17	13	1	LUNCH	849	n/a	n/a	0	0.57763671875	0.412841796875	1	lower	amplitud.ttf
2103741	WORD	wordpools/wasnorm_wordpool_less_exclusions.txt	LTP290	ltpFR	17	13	1	DIGGER	464	n/a	n/a	0	0.57763671875	0.412841796875	1	lower	amplitud.ttf
2107869	WORD	wordpools/wasnorm_wordpool_less_exclusions.txt	LTP290	ltpFR	17	13	1	BOYFRIEND	162	n/a	n/a	1	0.57763671875	0.412841796875	1	lower	amplitud.ttf
2111763	WORD	wordpools/wasnorm_wordpool_less_exclusions.txt	LTP290	ltpFR	17	13	0	BULL	193	n/a	n/a	1	0.422607421875	0.5869140625	0	upper	zerothre.ttf
2115807	WORD	wordpools/wasnorm_wordpool_less_exclusions.txt	LTP290	ltpFR	17	13	0	BISON	131	n/a	n/a	1	0.422607421875	0.5869140625	0	upper	zerothre.ttf
2119968	WORD	wordpools/wasnorm_wordpool_less_exclusions.txt	LTP290	ltpFR	17	13	0	FOX	598	n/a	n/a	1	0.422607421875	0.5869140625	0	upper	zerothre.ttf
2123912	WORD	wordpools/wasnorm_wordpool_less_exclusions.txt	LTP290	ltpFR	17	13	0	PROTON	1132	n/a	n/a	0	0.422607421875	0.5869140625	0	upper	zerothre.ttf
2127789	WORD	wordpools/wasnorm_wordpool_less_exclusions.txt	LTP290	ltpFR	17	13	0	NEUTRON	947	n/a	n/a	0	0.422607421875	0.5869140625	0	upper	zerothre.ttf
2131701	WORD	wordpools/wasnorm_wordpool_less_exclusions.txt	LTP290	ltpFR	17	13	0	ROBIN	1199	n/a	n/a	0	0.422607421875	0.5869140625	0	upper	zerothre.ttf
2135645	WORD	wordpools/wasnorm_wordpool_less_exclusions.txt	LTP290	ltpFR	17	13	1	BLUEPRINT	142	n/a	n/a	0	0.57763671875	0.412841796875	1	lower	amplitud.ttf
2139522	WORD	wordpools/wasnorm_wordpool_less_exclusions.txt	LTP290	ltpFR	17	13	1	CARPENTER	246	n/a	n/a	1	0.57763671875	0.412841796875	1	lower	amplitud.ttf
2143433	WORD	wordpools/wasnorm_wordpool_less_exclusions.txt	LTP290	ltpFR	17	13	0	GROUND	666	n/a	n/a	1	0.422607421875	0.5869140625	0	upper	zerothre.ttf
2147444	WORD	wordpools/wasnorm_wordpool_less_exclusions.txt	LTP290	ltpFR	17	13	0	BLUEBERRY	140	n/a	n/a	0	0.422607421875	0.5869140625	0	upper	zerothre.ttf
2151288	WORD	wordpools/wasnorm_wordpool_less_exclusions.txt	LTP290	ltpFR	17	13	1	BLOSSOM	138	n/a	n/a	0	0.57763671875	0.412841796875	1	lower	amplitud.ttf
2155498	WORD	wordpools/wasnorm_wordpool_less_exclusions.txt	LTP290	ltpFR	17	13	1	BRAN	167	n/a	n/a	0	0.57763671875	0.412841796875	1	lower	amplitud.ttf
2161440	REC_START	n/a	LTP290	ltpFR	17	13	n/a	n/a	n/a	n/a	n/a	n/a	n/a	n/a	n/a	n/a	n/a
2162269	REC_WORD	wordpools/wasnorm_wordpool_less_exclusions.txt	LTP290	ltpFR	17	13	1	BRAN	167	n/a	n/a	0	n/a	n/a	n/a	n/a	n/a
2163056	REC_WORD	wordpools/wasnorm_wordpool_less_exclusions.txt	LTP290	ltpFR	17	13	1	BLOSSOM	138	n/a	n/a	0	n/a	n/a	n/a	n/a	n/a
2163844	REC_WORD	wordpools/wasnorm_wordpool_less_exclusions.txt	LTP290	ltpFR	17	13	0	BLUEBERRY	140	n/a	n/a	0	n/a	n/a	n/a	n/a	n/a
2165981	REC_WORD	wordpools/wasnorm_wordpool_less_exclusions.txt	LTP290	ltpFR	17	13	0	ROBIN	1199	n/a	n/a	0	n/a	n/a	n/a	n/a	n/a
2167258	REC_WORD	wordpools/wasnorm_wordpool_less_exclusions.txt	LTP290	ltpFR	17	13	0	PROTON	1132	n/a	n/a	0	n/a	n/a	n/a	n/a	n/a
2167678	REC_WORD	wordpools/wasnorm_wordpool_less_exclusions.txt	LTP290	ltpFR	17	13	0	NEUTRON	947	n/a	n/a	0	n/a	n/a	n/a	n/a	n/a
2168506	REC_WORD	wordpools/wasnorm_wordpool_less_exclusions.txt	LTP290	ltpFR	17	13	0	BISON	131	n/a	n/a	1	n/a	n/a	n/a	n/a	n/a
2173596	REC_WORD	wordpools/wasnorm_wordpool_less_exclusions.txt	LTP290	ltpFR	17	13	0	FOX	598	n/a	n/a	1	n/a	n/a	n/a	n/a	n/a
2175258	REC_WORD	wordpools/wasnorm_wordpool_less_exclusions.txt	LTP290	ltpFR	17	13	0	BULL	193	n/a	n/a	1	n/a	n/a	n/a	n/a	n/a
2177848	REC_WORD	wordpools/wasnorm_wordpool_less_exclusions.txt	LTP290	ltpFR	17	13	1	BLUEPRINT	142	n/a	n/a	0	n/a	n/a	n/a	n/a	n/a
2178332	REC_WORD	wordpools/wasnorm_wordpool_less_exclusions.txt	LTP290	ltpFR	17	13	1	CARPENTER	246	n/a	n/a	1	n/a	n/a	n/a	n/a	n/a
2239656	WORD	wordpools/wasnorm_wordpool_less_exclusions.txt	LTP290	ltpFR	17	14	1	DETECTIVE	454	n/a	n/a	1	0.57763671875	0.412841796875	1	lower	amplitud.ttf
2243732	WORD	wordpools/wasnorm_wordpool_less_exclusions.txt	LTP290	ltpFR	17	14	1	MARS	873	n/a	n/a	0	0.57763671875	0.412841796875	1	lower	amplitud.ttf
2247561	WORD	wordpools/wasnorm_wordpool_less_exclusions.txt	LTP290	ltpFR	17	14	1	PRINCESS	1125	n/a	n/a	1	0.57763671875	0.412841796875	1	lower	amplitud.ttf
2251488	WORD	wordpools/wasnorm_wordpool_less_exclusions.txt	LTP290	ltpFR	17	14	1	RING	1193	n/a	n/a	0	0.57763671875	0.412841796875	1	lower	amplitud.ttf
2255699	WORD	wordpools/wasnorm_wordpool_less_exclusions.txt	LTP290	ltpFR	17	14	1	KNUCKLE	789	n/a	n/a	0	0.57763671875	0.412841796875	1	lower	amplitud.ttf
2259742	WORD	wordpools/wasnorm_wordpool_less_exclusions.txt	LTP290	ltpFR	17	14	1	SKIN	1318	n/a	n/a	0	0.57763671875	0.412841796875	1	lower	amplitud.ttf
2263903	WORD	wordpools/wasnorm_wordpool_less_exclusions.txt	LTP290	ltpFR	17	14	1	SPY	1360	n/a	n/a	1	0.57763671875	0.412841796875	1	lower	amplitud.ttf
2268064	WORD	wordpools/wasnorm_wordpool_less_exclusions.txt	LTP290	ltpFR	17	14	1	WINDSHIELD	1612	n/a	n/a	0	0.57763671875	0.412841796875	1	lower	amplitud.ttf
2271941	WORD	wordpools/wasnorm_wordpool_less_exclusions.txt	LTP290	ltpFR	17	14	1	TAXI	1438	n/a	n/a	0	0.57763671875	0.412841796875	1	lower	amplitud.ttf
2276018	WORD	wordpools/wasnorm_wordpool_less_exclusions.txt	LTP290	ltpFR	17	14	1	LOCK	838	n/a	n/a	0	0.57763671875	0.412841796875	1	lower	amplitud.ttf
2280029	WORD	wordpools/wasnorm_wordpool_less_exclusions.txt	LTP290	ltpFR	17	14	1	CABINET	212	n/a	n/a	0	0.57763671875	0.412841796875	1	lower	amplitud.ttf
2283907	WORD	wordpools/wasnorm_wordpool_less_exclusions.txt	LTP290	ltpFR	17	14	1	SAILOR	1223	n/a	n/a	1	0.57763671875	0.412841796875	1	lower	amplitud.ttf
2288100	WORD	wordpools/wasnorm_wordpool_less_exclusions.txt	LTP290	ltpFR	17	14	1	LIBRARY	816	n/a	n/a	0	0.57763671875	0.412841796875	1	lower	amplitud.ttf
2291961	WORD	wordpools/wasnorm_wordpool_less_exclusions.txt	LTP290	ltpFR	17	14	1	HELMET	702	n/a	n/a	0	0.57763671875	0.412841796875	1	lower	amplitud.ttf
2296155	WORD	wordpools/wasnorm_wordpool_less_exclusions.txt	LTP290	ltpFR	17	14	1	BEEF	113	n/a	n/a	0	0.57763671875	0.412841796875	1	lower	amplitud.ttf
2300099	WORD	wordpools/wasnorm_wordpool_less_exclusions.txt	LTP290	ltpFR	17	14	1	MONARCH	906	n/a	n/a	0	0.57763671875	0.412841796875	1	lower	amplitud.ttf
2305841	REC_START	n/a	LTP290	ltpFR	17	14	n/a	n/a	n/a	n/a	n/a	n/a	n/a	n/a	n/a	n/a	n/a
2309268	REC_WORD	wordpools/wasnorm_wordpool_less_exclusions.txt	LTP290	ltpFR	17	14	1	MONARCH	906	n/a	n/a	0	n/a	n/a	n/a	n/a	n/a
2310465	REC_WORD_VV	wordpools/wasnorm_wordpool_less_exclusions.txt	LTP290	ltpFR	17	14	n/a	<>	-1	n/a	n/a	n/a	n/a	n/a	n/a	n/a	n/a
2314606	REC_WORD	wordpools/wasnorm_wordpool_less_exclusions.txt	LTP290	ltpFR	17	14	1	BEEF	113	n/a	n/a	0	n/a	n/a	n/a	n/a	n/a
2318526	REC_WORD	wordpools/wasnorm_wordpool_less_exclusions.txt	LTP290	ltpFR	17	14	1	DETECTIVE	454	n/a	n/a	1	n/a	n/a	n/a	n/a	n/a
2319192	REC_WORD	wordpools/wasnorm_wordpool_less_exclusions.txt	LTP290	ltpFR	17	14	1	PRINCESS	1125	n/a	n/a	1	n/a	n/a	n/a	n/a	n/a
2320136	REC_WORD	wordpools/wasnorm_wordpool_less_exclusions.txt	LTP290	ltpFR	17	14	1	MARS	873	n/a	n/a	0	n/a	n/a	n/a	n/a	n/a
2322134	REC_WORD	wordpools/wasnorm_wordpool_less_exclusions.txt	LTP290	ltpFR	17	14	1	RING	1193	n/a	n/a	0	n/a	n/a	n/a	n/a	n/a
2323945	REC_WORD	wordpools/wasnorm_wordpool_less_exclusions.txt	LTP290	ltpFR	17	14	1	KNUCKLE	789	n/a	n/a	0	n/a	n/a	n/a	n/a	n/a
2324749	REC_WORD	wordpools/wasnorm_wordpool_less_exclusions.txt	LTP290	ltpFR	17	14	1	SKIN	1318	n/a	n/a	0	n/a	n/a	n/a	n/a	n/a
2329756	REC_WORD	wordpools/wasnorm_wordpool_less_exclusions.txt	LTP290	ltpFR	17	14	1	SPY	1360	n/a	n/a	1	n/a	n/a	n/a	n/a	n/a
2330600	REC_WORD	wordpools/wasnorm_wordpool_less_exclusions.txt	LTP290	ltpFR	17	14	1	WINDSHIELD	1612	n/a	n/a	0	n/a	n/a	n/a	n/a	n/a
2331316	REC_WORD	wordpools/wasnorm_wordpool_less_exclusions.txt	LTP290	ltpFR	17	14	1	TAXI	1438	n/a	n/a	0	n/a	n/a	n/a	n/a	n/a
2333331	REC_WORD	wordpools/wasnorm_wordpool_less_exclusions.txt	LTP290	ltpFR	17	14	1	LOCK	838	n/a	n/a	0	n/a	n/a	n/a	n/a	n/a
2335918	REC_WORD	wordpools/wasnorm_wordpool_less_exclusions.txt	LTP290	ltpFR	17	14	1	SAILOR	1223	n/a	n/a	1	n/a	n/a	n/a	n/a	n/a
2337139	REC_WORD	wordpools/wasnorm_wordpool_less_exclusions.txt	LTP290	ltpFR	17	14	1	LIBRARY	816	n/a	n/a	0	n/a	n/a	n/a	n/a	n/a
2339824	REC_WORD	wordpools/wasnorm_wordpool_less_exclusions.txt	LTP290	ltpFR	17	14	1	HELMET	702	n/a	n/a	0	n/a	n/a	n/a	n/a	n/a
2384573	WORD	wordpools/wasnorm_wordpool_less_exclusions.txt	LTP290	ltpFR	17	15	-1	CHAUFFEUR	283	n/a	n/a	-1	1.0	1.0	1	upper	Verdana.ttf
2388550	WORD	wordpools/wasnorm_wordpool_less_exclusions.txt	LTP290	ltpFR	17	15	-1	FREEWAY	603	n/a	n/a	-1	1.0	1.0	1	upper	Verdana.ttf
2392644	WORD	wordpools/wasnorm_wordpool_less_exclusions.txt	LTP290	ltpFR	17	15	-1	PALM	1007	n/a	n/a	-1	1.0	1.0	1	upper	Verdana.ttf
2396538	WORD	wordpools/wasnorm_wordpool_less_exclusions.txt	LTP290	ltpFR	17	15	-1	STUMP	1396	n/a	n/a	-1	1.0	1.0	1	upper	Verdana.ttf
2400649	WORD	wordpools/wasnorm_wordpool_less_exclusions.txt	LTP290	ltpFR	17	15	-1	POCKET	1093	n/a	n/a	-1	1.0	1.0	1	upper	Verdana.ttf
2404676	WORD	wordpools/wasnorm_wordpool_less_exclusions.txt	LTP290	ltpFR	17	15	-1	CREVICE	405	n/a	n/a	-1	1.0	1.0	1	upper	Verdana.ttf
2408837	WORD	wordpools/wasnorm_wordpool_less_exclusions.txt	LTP290	ltpFR	17	15	-1	OINTMENT	974	n/a	n/a	-1	1.0	1.0	1	upper	Verdana.ttf
2412831	WORD	wordpools/wasnorm_wordpool_less_exclusions.txt	LTP290	ltpFR	17	15	-1	WASHER	1592	n/a	n/a	-1	1.0	1.0	1	upper	Verdana.ttf
2416724	WORD	wordpools/wasnorm_wordpool_less_exclusions.txt	LTP290	ltpFR	17	15	-1	MINT	898	n/a	n/a	-1	1.0	1.0	1	upper	Verdana.ttf
2420801	WORD	wordpools/wasnorm_wordpool_less_exclusions.txt	LTP290	ltpFR	17	15	-1	TOOTHBRUSH	1482	n/a	n/a	-1	1.0	1.0	1	upper	Verdana.ttf
2424979	WORD	wordpools/wasnorm_wordpool_less_exclusions.txt	LTP290	ltpFR	17	15	-1	VITAMIN	1574	n/a	n/a	-1	1.0	1.0	1	upper	Verdana.ttf
2429073	WORD	wordpools/wasnorm_wordpool_less_exclusions.txt	LTP290	ltpFR	17	15	-1	MARROW	872	n/a	n/a	-1	1.0	1.0	1	upper	Verdana.ttf
2433284	WORD	wordpools/wasnorm_wordpool_less_exclusions.txt	LTP290	ltpFR	17	15	-1	CLOSET	326	n/a	n/a	-1	1.0	1.0	1	upper	Verdana.ttf
2437128	WORD	wordpools/wasnorm_wordpool_less_exclusions.txt	LTP290	ltpFR	17	15	-1	BATHTUB	100	n/a	n/a	-1	1.0	1.0	1	upper	Verdana.ttf
2441039	WORD	wordpools/wasnorm_wordpool_less_exclusions.txt	LTP290	ltpFR	17	15	-1	MOVIE	927	n/a	n/a	-1	1.0	1.0	1	upper	Verdana.ttf
2445049	WORD	wordpools/wasnorm_wordpool_less_exclusions.txt	LTP290	ltpFR	17	15	-1	PEBBLE	1035	n/a	n/a	-1	1.0	1.0	1	upper	Verdana.ttf
2451141	REC_START	n/a	LTP290	ltpFR	17	15	n/a	n/a	n/a	n/a	n/a	n/a	n/a	n/a	n/a	n/a	n/a
2451353	REC_WORD	wordpools/wasnorm_wordpool_less_exclusions.txt	LTP290	ltpFR	17	15	-1	MOVIE	927	n/a	n/a	-1	n/a	n/a	n/a	n/a	n/a
2452350	REC_WORD	wordpools/wasnorm_wordpool_less_exclusions.txt	LTP290	ltpFR	17	15	-1	PEBBLE	1035	n/a	n/a	-1	n/a	n/a	n/a	n/a	n/a
2454201	REC_WORD	wordpools/wasnorm_wordpool_less_exclusions.txt	LTP290	ltpFR	17	15	-1	CLOSET	326	n/a	n/a	-1	n/a	n/a	n/a	n/a	n/a
2454895	REC_WORD	wordpools/wasnorm_wordpool_less_exclusions.txt	LTP290	ltpFR	17	15	-1	BATHTUB	100	n/a	n/a	-1	n/a	n/a	n/a	n/a	n/a
2460561	REC_WORD	wordpools/wasnorm_wordpool_less_exclusions.txt	LTP290	ltpFR	17	15	-1	MINT	898	n/a	n/a	-1	n/a	n/a	n/a	n/a	n/a
2460892	REC_WORD	wordpools/wasnorm_wordpool_less_exclusions.txt	LTP290	ltpFR	17	15	-1	TOOTHBRUSH	1482	n/a	n/a	-1	n/a	n/a	n/a	n/a	n/a
2461427	REC_WORD	wordpools/wasnorm_wordpool_less_exclusions.txt	LTP290	ltpFR	17	15	-1	VITAMIN	1574	n/a	n/a	-1	n/a	n/a	n/a	n/a	n/a
2461918	REC_WORD	wordpools/wasnorm_wordpool_less_exclusions.txt	LTP290	ltpFR	17	15	-1	MARROW	872	n/a	n/a	-1	n/a	n/a	n/a	n/a	n/a
2472331	REC_WORD	wordpools/wasnorm_wordpool_less_exclusions.txt	LTP290	ltpFR	17	15	-1	CHAUFFEUR	283	n/a	n/a	-1	n/a	n/a	n/a	n/a	n/a
2472969	REC_WORD	wordpools/wasnorm_wordpool_less_exclusions.txt	LTP290	ltpFR	17	15	-1	FREEWAY	603	n/a	n/a	-1	n/a	n/a	n/a	n/a	n/a
2530372	WORD	wordpools/wasnorm_wordpool_less_exclusions.txt	LTP290	ltpFR	17	16	-1	ATLAS	53	n/a	n/a	-1	1.0	1.0	1	upper	Verdana.ttf
2534433	WORD	wordpools/wasnorm_wordpool_less_exclusions.txt	LTP290	ltpFR	17	16	-1	TROUSERS	1510	n/a	n/a	-1	1.0	1.0	1	upper	Verdana.ttf
2538560	WORD	wordpools/wasnorm_wordpool_less_exclusions.txt	LTP290	ltpFR	17	16	-1	OFFICER	973	n/a	n/a	-1	1.0	1.0	1	upper	Verdana.ttf
2542604	WORD	wordpools/wasnorm_wordpool_less_exclusions.txt	LTP290	ltpFR	17	16	-1	FORT	595	n/a	n/a	-1	1.0	1.0	1	upper	Verdana.ttf
2546664	WORD	wordpools/wasnorm_wordpool_less_exclusions.txt	LTP290	ltpFR	17	16	-1	FOE	587	n/a	n/a	-1	1.0	1.0	1	upper	Verdana.ttf
2550592	WORD	wordpools/wasnorm_wordpool_less_exclusions.txt	LTP290	ltpFR	17	16	-1	ENEMY	534	n/a	n/a	-1	1.0	1.0	1	upper	Verdana.ttf
2554503	WORD	wordpools/wasnorm_wordpool_less_exclusions.txt	LTP290	ltpFR	17	16	-1	OTTER	986	n/a	n/a	-1	1.0	1.0	1	upper	Verdana.ttf
2558330	WORD	wordpools/wasnorm_wordpool_less_exclusions.txt	LTP290	ltpFR	17	16	-1	RANCH	1166	n/a	n/a	-1	1.0	1.0	1	upper	Verdana.ttf
2562341	WORD	wordpools/wasnorm_wordpool_less_exclusions.txt	LTP290	ltpFR	17	16	-1	CART	250	n/a	n/a	-1	1.0	1.0	1	upper	Verdana.ttf
2566302	WORD	wordpools/wasnorm_wordpool_less_exclusions.txt	LTP290	ltpFR	17	16	-1	OREGANO	983	n/a	n/a	-1	1.0	1.0	1	upper	Verdana.ttf
2570446	WORD	wordpools/wasnorm_wordpool_less_exclusions.txt	LTP290	ltpFR	17	16	-1	MANSION	864	n/a	n/a	-1	1.0	1.0	1	upper	Verdana.ttf
2574672	WORD	wordpools/wasnorm_wordpool_less_exclusions.txt	LTP290	ltpFR	17	16	-1	JEANS	752	n/a	n/a	-1	1.0	1.0	1	upper	Verdana.ttf
2578583	WORD	wordpools/wasnorm_wordpool_less_exclusions.txt	LTP290	ltpFR	17	16	-1	SKIRT	1319	n/a	n/a	-1	1.0	1.0	1	upper	Verdana.ttf
2582461	WORD	wordpools/wasnorm_wordpool_less_exclusions.txt	LTP290	ltpFR	17	16	-1	THUMB	1462	n/a	n/a	-1	1.0	1.0	1	upper	Verdana.ttf
2586588	WORD	wordpools/wasnorm_wordpool_less_exclusions.txt	LTP290	ltpFR	17	16	-1	AFRICA	9	n/a	n/a	-1	1.0	1.0	1	upper	Verdana.ttf
2590599	WORD	wordpools/wasnorm_wordpool_less_exclusions.txt	LTP290	ltpFR	17	16	-1	DENIM	446	n/a	n/a	-1	1.0	1.0	1	upper	Verdana.ttf
2596507	REC_START	n/a	LTP290	ltpFR	17	16	n/a	n/a	n/a	n/a	n/a	n/a	n/a	n/a	n/a	n/a	n/a
2597786	REC_WORD	wordpools/wasnorm_wordpool_less_exclusions.txt	LTP290	ltpFR	17	16	-1	ATLAS	53	n/a	n/a	-1	n/a	n/a	n/a	n/a	n/a
2598247	REC_WORD	wordpools/wasnorm_wordpool_less_exclusions.txt	LTP290	ltpFR	17	16	-1	AFRICA	9	n/a	n/a	-1	n/a	n/a	n/a	n/a	n/a
2598738	REC_WORD	wordpools/wasnorm_wordpool_less_exclusions.txt	LTP290	ltpFR	17	16	-1	DENIM	446	n/a	n/a	-1	n/a	n/a	n/a	n/a	n/a
2604214	REC_WORD	wordpools/wasnorm_wordpool_less_exclusions.txt	LTP290	ltpFR	17	16	-1	OFFICER	973	n/a	n/a	-1	n/a	n/a	n/a	n/a	n/a
2604776	REC_WORD	wordpools/wasnorm_wordpool_less_exclusions.txt	LTP290	ltpFR	17	16	-1	FORT	595	n/a	n/a	-1	n/a	n/a	n/a	n/a	n/a
2605297	REC_WORD	wordpools/wasnorm_wordpool_less_exclusions.txt	LTP290	ltpFR	17	16	-1	FOE	587	n/a	n/a	-1	n/a	n/a	n/a	n/a	n/a
2605937	REC_WORD	wordpools/wasnorm_wordpool_less_exclusions.txt	LTP290	ltpFR	17	16	-1	ENEMY	534	n/a	n/a	-1	n/a	n/a	n/a	n/a	n/a
2608291	REC_WORD	wordpools/wasnorm_wordpool_less_exclusions.txt	LTP290	ltpFR	17	16	-1	OTTER	986	n/a	n/a	-1	n/a	n/a	n/a	n/a	n/a
2608884	REC_WORD	wordpools/wasnorm_wordpool_less_exclusions.txt	LTP290	ltpFR	17	16	-1	CART	250	n/a	n/a	-1	n/a	n/a	n/a	n/a	n/a
2611721	REC_WORD	wordpools/wasnorm_wordpool_less_exclusions.txt	LTP290	ltpFR	17	16	-1	RANCH	1166	n/a	n/a	-1	n/a	n/a	n/a	n/a	n/a
2615238	REC_WORD	wordpools/wasnorm_wordpool_less_exclusions.txt	LTP290	ltpFR	17	16	-1	MANSION	864	n/a	n/a	-1	n/a	n/a	n/a	n/a	n/a
2620992	REC_WORD	wordpools/wasnorm_wordpool_less_exclusions.txt	LTP290	ltpFR	17	16	-1	OREGANO	983	n/a	n/a	-1	n/a	n/a	n/a	n/a	n/a
2681131	REC_START	n/a	LTP290	ltpFR	17	n/a	n/a	n/a	n/a	n/a	n/a	n/a	n/a	n/a	n/a	n/a	n/a
2681565	FFR_REC_WORD	wordpools/wasnorm_wordpool_less_exclusions.txt	LTP290	ltpFR	17	n/a	-1	ATLAS	53	n/a	n/a	-1	n/a	n/a	n/a	n/a	n/a
2682148	FFR_REC_WORD	wordpools/wasnorm_wordpool_less_exclusions.txt	LTP290	ltpFR	17	n/a	-1	AFRICA	9	n/a	n/a	-1	n/a	n/a	n/a	n/a	n/a
2684189	FFR_REC_WORD	wordpools/wasnorm_wordpool_less_exclusions.txt	LTP290	ltpFR	17	n/a	-1	DENIM	446	n/a	n/a	-1	n/a	n/a	n/a	n/a	n/a
2685655	FFR_REC_WORD	wordpools/wasnorm_wordpool_less_exclusions.txt	LTP290	ltpFR	17	n/a	-1	FOE	587	n/a	n/a	-1	n/a	n/a	n/a	n/a	n/a
2686050	FFR_REC_WORD	wordpools/wasnorm_wordpool_less_exclusions.txt	LTP290	ltpFR	17	n/a	-1	ENEMY	534	n/a	n/a	-1	n/a	n/a	n/a	n/a	n/a
2686407	FFR_REC_WORD	wordpools/wasnorm_wordpool_less_exclusions.txt	LTP290	ltpFR	17	n/a	-1	OFFICER	973	n/a	n/a	-1	n/a	n/a	n/a	n/a	n/a
2687020	FFR_REC_WORD	wordpools/wasnorm_wordpool_less_exclusions.txt	LTP290	ltpFR	17	n/a	-1	FORT	595	n/a	n/a	-1	n/a	n/a	n/a	n/a	n/a
2692295	FFR_REC_WORD	wordpools/wasnorm_wordpool_less_exclusions.txt	LTP290	ltpFR	17	n/a	-1	OTTER	986	n/a	n/a	-1	n/a	n/a	n/a	n/a	n/a
2692784	FFR_REC_WORD	wordpools/wasnorm_wordpool_less_exclusions.txt	LTP290	ltpFR	17	n/a	-1	RANCH	1166	n/a	n/a	-1	n/a	n/a	n/a	n/a	n/a
2693493	FFR_REC_WORD	wordpools/wasnorm_wordpool_less_exclusions.txt	LTP290	ltpFR	17	n/a	-1	CART	250	n/a	n/a	-1	n/a	n/a	n/a	n/a	n/a
2696182	FFR_REC_WORD	wordpools/wasnorm_wordpool_less_exclusions.txt	LTP290	ltpFR	17	n/a	-1	MANSION	864	n/a	n/a	-1	n/a	n/a	n/a	n/a	n/a
2697099	FFR_REC_WORD	wordpools/wasnorm_wordpool_less_exclusions.txt	LTP290	ltpFR	17	n/a	-1	OREGANO	983	n/a	n/a	-1	n/a	n/a	n/a	n/a	n/a
2699260	FFR_REC_WORD	wordpools/wasnorm_wordpool_less_exclusions.txt	LTP290	ltpFR	17	n/a	0	GODDESS	646	n/a	n/a	1	n/a	n/a	n/a	n/a	n/a
2699833	FFR_REC_WORD	wordpools/wasnorm_wordpool_less_exclusions.txt	LTP290	ltpFR	17	n/a	0	COYOTE	396	n/a	n/a	1	n/a	n/a	n/a	n/a	n/a
2700477	FFR_REC_WORD	wordpools/wasnorm_wordpool_less_exclusions.txt	LTP290	ltpFR	17	n/a	0	DEODORANT	448	n/a	n/a	0	n/a	n/a	n/a	n/a	n/a
2701080	FFR_REC_WORD	wordpools/wasnorm_wordpool_less_exclusions.txt	LTP290	ltpFR	17	n/a	0	SICKLE	1302	n/a	n/a	0	n/a	n/a	n/a	n/a	n/a
2702138	FFR_REC_WORD	wordpools/wasnorm_wordpool_less_exclusions.txt	LTP290	ltpFR	17	n/a	1	WRIST	1626	n/a	n/a	0	n/a	n/a	n/a	n/a	n/a
2703884	FFR_REC_WORD	wordpools/wasnorm_wordpool_less_exclusions.txt	LTP290	ltpFR	17	n/a	-1	ROSE	1212	n/a	n/a	-1	n/a	n/a	n/a	n/a	n/a
2704391	FFR_REC_WORD	wordpools/wasnorm_wordpool_less_exclusions.txt	LTP290	ltpFR	17	n/a	-1	RADISH	1158	n/a	n/a	-1	n/a	n/a	n/a	n/a	n/a
2705326	FFR_REC_WORD	wordpools/wasnorm_wordpool_less_exclusions.txt	LTP290	ltpFR	17	n/a	1	COW	393	n/a	n/a	1	n/a	n/a	n/a	n/a	n/a
2706164	FFR_REC_WORD	wordpools/wasnorm_wordpool_less_exclusions.txt	LTP290	ltpFR	17	n/a	0	FINGERNAIL	568	n/a	n/a	0	n/a	n/a	n/a	n/a	n/a
2708813	FFR_REC_WORD	wordpools/wasnorm_wordpool_less_exclusions.txt	LTP290	ltpFR	17	n/a	0	SERPENT	1270	n/a	n/a	1	n/a	n/a	n/a	n/a	n/a
2709813	FFR_REC_WORD_VV	wordpools/wasnorm_wordpool_less_exclusions.txt	LTP290	ltpFR	17	n/a	n/a	<>	-1	n/a	n/a	n/a	n/a	n/a	n/a	n/a	n/a
2715208	FFR_REC_WORD	wordpools/wasnorm_wordpool_less_exclusions.txt	LTP290	ltpFR	17	n/a	1	BASSINET	97	n/a	n/a	0	n/a	n/a	n/a	n/a	n/a
2718880	FFR_REC_WORD	wordpools/wasnorm_wordpool_less_exclusions.txt	LTP290	ltpFR	17	n/a	0	LINEN	825	n/a	n/a	0	n/a	n/a	n/a	n/a	n/a
2721060	FFR_REC_WORD	wordpools/wasnorm_wordpool_less_exclusions.txt	LTP290	ltpFR	17	n/a	0	FIN	566	n/a	n/a	0	n/a	n/a	n/a	n/a	n/a
2726448	FFR_REC_WORD	wordpools/wasnorm_wordpool_less_exclusions.txt	LTP290	ltpFR	17	n/a	0	BULL	193	n/a	n/a	1	n/a	n/a	n/a	n/a	n/a
2726937	FFR_REC_WORD	wordpools/wasnorm_wordpool_less_exclusions.txt	LTP290	ltpFR	17	n/a	0	BISON	131	n/a	n/a	1	n/a	n/a	n/a	n/a	n/a
2727415	FFR_REC_WORD	wordpools/wasnorm_wordpool_less_exclusions.txt	LTP290	ltpFR	17	n/a	0	FOX	598	n/a	n/a	1	n/a	n/a	n/a	n/a	n/a
2728324	FFR_REC_WORD	wordpools/wasnorm_wordpool_less_exclusions.txt	LTP290	ltpFR	17	n/a	0	PROTON	1132	n/a	n/a	0	n/a	n/a	n/a	n/a	n/a
2728831	FFR_REC_WORD	wordpools/wasnorm_wordpool_less_exclusions.txt	LTP290	ltpFR	17	n/a	0	NEUTRON	947	n/a	n/a	0	n/a	n/a	n/a	n/a	n/a
2729635	FFR_REC_WORD	wordpools/wasnorm_wordpool_less_exclusions.txt	LTP290	ltpFR	17	n/a	0	ROBIN	1199	n/a	n/a	0	n/a	n/a	n/a	n/a	n/a
2731047	FFR_REC_WORD	wordpools/wasnorm_wordpool_less_exclusions.txt	LTP290	ltpFR	17	n/a	0	BLUEBERRY	140	n/a	n/a	0	n/a	n/a	n/a	n/a	n/a
2733417	FFR_REC_WORD	wordpools/wasnorm_wordpool_less_exclusions.txt	LTP290	ltpFR	17	n/a	-1	WILDERNESS	1610	n/a	n/a	-1	n/a	n/a	n/a	n/a	n/a
2734138	FFR_REC_WORD	wordpools/wasnorm_wordpool_less_exclusions.txt	LTP290	ltpFR	17	n/a	-1	RADIATOR	1156	n/a	n/a	-1	n/a	n/a	n/a	n/a	n/a
2736325	FFR_REC_WORD	wordpools/wasnorm_wordpool_less_exclusions.txt	LTP290	ltpFR	17	n/a	1	COD	340	n/a	n/a	1	n/a	n/a	n/a	n/a	n/a
2736894	FFR_REC_WORD	wordpools/wasnorm_wordpool_less_exclusions.txt	LTP290	ltpFR	17	n/a	0	DRIVER	499	n/a	n/a	1	n/a	n/a	n/a	n/a	n/a
2738411	FFR_REC_WORD	wordpools/wasnorm_wordpool_less_exclusions.txt	LTP290	ltpFR	17	n/a	1	DIVER	476	n/a	n/a	1	n/a	n/a	n/a	n/a	n/a
2738930	FFR_REC_WORD	wordpools/wasnorm_wordpool_less_exclusions.txt	LTP290	ltpFR	17	n/a	1	SAUSAGE	1238	n/a	n/a	0	n/a	n/a	n/a	n/a	n/a
2739930	FFR_REC_WORD_VV	wordpools/wasnorm_wordpool_less_exclusions.txt	LTP290	ltpFR	17	n/a	n/a	<>	-1	n/a	n/a	n/a	n/a	n/a	n/a	n/a	n/a
2744427	FFR_REC_WORD	wordpools/wasnorm_wordpool_less_exclusions.txt	LTP290	ltpFR	17	n/a	1	VAN	1548	n/a	n/a	0	n/a	n/a	n/a	n/a	n/a
2746482	FFR_REC_WORD	wordpools/wasnorm_wordpool_less_exclusions.txt	LTP290	ltpFR	17	n/a	1	KIDNEY	776	n/a	n/a	0	n/a	n/a	n/a	n/a	n/a
2753476	FFR_REC_WORD	wordpools/wasnorm_wordpool_less_exclusions.txt	LTP290	ltpFR	17	n/a	0	CRAB	397	n/a	n/a	0	n/a	n/a	n/a	n/a	n/a
2754000	FFR_REC_WORD	wordpools/wasnorm_wordpool_less_exclusions.txt	LTP290	ltpFR	17	n/a	0	BARTENDER	92	n/a	n/a	1	n/a	n/a	n/a	n/a	n/a
2762940	FFR_REC_WORD	wordpools/wasnorm_wordpool_less_exclusions.txt	LTP290	ltpFR	17	n/a	0	WAVE	1596	n/a	n/a	1	n/a	n/a	n/a	n/a	n/a
2814467	FFR_REC_WORD	wordpools/wasnorm_wordpool_less_exclusions.txt	LTP290	ltpFR	17	n/a	1	LIBRARY	816	n/a	n/a	0	n/a	n/a	n/a	n/a	n/a
2815067	FFR_REC_WORD	wordpools/wasnorm_wordpool_less_exclusions.txt	LTP290	ltpFR	17	n/a	1	HELMET	702	n/a	n/a	0	n/a	n/a	n/a	n/a	n/a
2815840	FFR_REC_WORD	wordpools/wasnorm_wordpool_less_exclusions.txt	LTP290	ltpFR	17	n/a	1	SHELTER	1282	n/a	n/a	0	n/a	n/a	n/a	n/a	n/a
2817675	FFR_REC_WORD	wordpools/wasnorm_wordpool_less_exclusions.txt	LTP290	ltpFR	17	n/a	1	ANGEL	22	n/a	n/a	1	n/a	n/a	n/a	n/a	n/a
2818543	FFR_REC_WORD	wordpools/wasnorm_wordpool_less_exclusions.txt	LTP290	ltpFR	17	n/a	1	MARKER	870	n/a	n/a	0	n/a	n/a	n/a	n/a	n/a
2819421	FFR_REC_WORD	wordpools/wasnorm_wordpool_less_exclusions.txt	LTP290	ltpFR	17	n/a	1	WOLF	1619	n/a	n/a	1	n/a	n/a	n/a	n/a	n/a
2820080	FFR_REC_WORD	wordpools/wasnorm_wordpool_less_exclusions.txt	LTP290	ltpFR	17	n/a	1	QUEEN	1149	n/a	n/a	1	n/a	n/a	n/a	n/a	n/a
2821217	FFR_REC_WORD	wordpools/wasnorm_wordpool_less_exclusions.txt	LTP290	ltpFR	17	n/a	1	GUARDIAN	668	n/a	n/a	1	n/a	n/a	n/a	n/a	n/a
2823637	FFR_REC_WORD	wordpools/wasnorm_wordpool_less_exclusions.txt	LTP290	ltpFR	17	n/a	1	TICK	1463	n/a	n/a	0	n/a	n/a	n/a	n/a	n/a
2824121	FFR_REC_WORD	wordpools/wasnorm_wordpool_less_exclusions.txt	LTP290	ltpFR	17	n/a	1	ENGINE	535	n/a	n/a	0	n/a	n/a	n/a	n/a	n/a
2827743	FFR_REC_WORD	wordpools/wasnorm_wordpool_less_exclusions.txt	LTP290	ltpFR	17	n/a	-1	MINT	898	n/a	n/a	-1	n/a	n/a	n/a	n/a	n/a
2828163	FFR_REC_WORD	wordpools/wasnorm_wordpool_less_exclusions.txt	LTP290	ltpFR	17	n/a	-1	TOOTHBRUSH	1482	n/a	n/a	-1	n/a	n/a	n/a	n/a	n/a
2828798	FFR_REC_WORD	wordpools/wasnorm_wordpool_less_exclusions.txt	LTP290	ltpFR	17	n/a	-1	VITAMIN	1574	n/a	n/a	-1	n/a	n/a	n/a	n/a	n/a
2829593	FFR_REC_WORD	wordpools/wasnorm_wordpool_less_exclusions.txt	LTP290	ltpFR	17	n/a	-1	MARROW	872	n/a	n/a	-1	n/a	n/a	n/a	n/a	n/a
2836308	FFR_REC_WORD	wordpools/wasnorm_wordpool_less_exclusions.txt	LTP290	ltpFR	17	n/a	1	LIEUTENANT	818	n/a	n/a	1	n/a	n/a	n/a	n/a	n/a
2939479	FFR_REC_WORD	wordpools/wasnorm_wordpool_less_exclusions.txt	LTP290	ltpFR	17	n/a	1	TIGER	1467	n/a	n/a	1	n/a	n/a	n/a	n/a	n/a
2939927	FFR_REC_WORD	wordpools/wasnorm_wordpool_less_exclusions.txt	LTP290	ltpFR	17	n/a	1	LEOPARD	812	n/a	n/a	1	n/a	n/a	n/a	n/a	n/a
2981730	REST_REWET	n/a	LTP290	ltpFR	17	16	n/a	n/a	n/a	n/a	n/a	n/a	n/a	n/a	n/a	n/a	n/a
3269003	REC_START	n/a	LTP290	ltpFR	17	1	n/a	n/a	n/a	n/a	n/a	n/a	n/a	n/a	n/a	n/a	n/a
3269036	RECOG_LURE	n/a	LTP290	ltpFR	17	1	n/a	PROTRACTOR	1133	0	1	n/a	n/a	n/a	n/a	n/a	n/a
3270364	RECOG_RESP	n/a	LTP290	ltpFR	17	1	n/a	PROTRACTOR	1133	0	n/a	n/a	n/a	n/a	n/a	n/a	n/a
3271427	RECOG_CONF	n/a	LTP290	ltpFR	17	1	n/a	PROTRACTOR	1133	n/a	1	n/a	n/a	n/a	n/a	n/a	n/a
3273163	RECOG_TARGET	n/a	LTP290	ltpFR	17	1	-1	THUMB	1462	1	2	-1	n/a	n/a	n/a	n/a	n/a
3274029	RECOG_RESP_VV	n/a	LTP290	ltpFR	17	1	-1	THUMB	1462	0	n/a	-1	n/a	n/a	n/a	n/a	n/a
3275064	RECOG_RESP	n/a	LTP290	ltpFR	17	1	-1	THUMB	1462	1	n/a	-1	n/a	n/a	n/a	n/a	n/a
3276155	RECOG_CONF	n/a	LTP290	ltpFR	17	1	-1	THUMB	1462	n/a	2	-1	n/a	n/a	n/a	n/a	n/a
3277923	RECOG_LURE	n/a	LTP290	ltpFR	17	1	n/a	TRIANGLE	1504	0	2	n/a	n/a	n/a	n/a	n/a	n/a
3278869	RECOG_RESP	n/a	LTP290	ltpFR	17	1	n/a	TRIANGLE	1504	0	n/a	n/a	n/a	n/a	n/a	n/a	n/a
3279405	RECOG_CONF	n/a	LTP290	ltpFR	17	1	n/a	TRIANGLE	1504	n/a	2	n/a	n/a	n/a	n/a	n/a	n/a
3280951	RECOG_LURE	n/a	LTP290	ltpFR	17	1	n/a	TROMBONE	1508	0	1	n/a	n/a	n/a	n/a	n/a	n/a
3282264	RECOG_RESP	n/a	LTP290	ltpFR	17	1	n/a	TROMBONE	1508	0	n/a	n/a	n/a	n/a	n/a	n/a	n/a
3282597	RECOG_CONF	n/a	LTP290	ltpFR	17	1	n/a	TROMBONE	1508	n/a	1	n/a	n/a	n/a	n/a	n/a	n/a
3284313	RECOG_TARGET	n/a	LTP290	ltpFR	17	1	0	IGLOO	734	1	3	1	n/a	n/a	n/a	n/a	n/a
3284872	RECOG_RESP	n/a	LTP290	ltpFR	17	1	0	IGLOO	734	1	n/a	1	n/a	n/a	n/a	n/a	n/a
3285280	RECOG_CONF	n/a	LTP290	ltpFR	17	1	0	IGLOO	734	n/a	3	1	n/a	n/a	n/a	n/a	n/a
3286758	RECOG_TARGET	n/a	LTP290	ltpFR	17	1	1	CARPENTER	246	1	4	1	n/a	n/a	n/a	n/a	n/a
3287344	RECOG_RESP	n/a	LTP290	ltpFR	17	1	1	CARPENTER	246	1	n/a	1	n/a	n/a	n/a	n/a	n/a
3287720	RECOG_CONF	n/a	LTP290	ltpFR	17	1	1	CARPENTER	246	n/a	4	1	n/a	n/a	n/a	n/a	n/a
3289156	RECOG_TARGET	n/a	LTP290	ltpFR	17	1	0	TEACHER	1440	0	2	1	n/a	n/a	n/a	n/a	n/a
3290124	RECOG_RESP	n/a	LTP290	ltpFR	17	1	0	TEACHER	1440	0	n/a	1	n/a	n/a	n/a	n/a	n/a
3290535	RECOG_CONF	n/a	LTP290	ltpFR	17	1	0	TEACHER	1440	n/a	2	1	n/a	n/a	n/a	n/a	n/a
3292218	RECOG_TARGET	n/a	LTP290	ltpFR	17	1	1	BEEF	113	1	4	0	n/a	n/a	n/a	n/a	n/a
3293044	RECOG_RESP	n/a	LTP290	ltpFR	17	1	1	BEEF	113	1	n/a	0	n/a	n/a	n/a	n/a	n/a
3293490	RECOG_CONF	n/a	LTP290	ltpFR	17	1	1	BEEF	113	n/a	4	0	n/a	n/a	n/a	n/a	n/a
3295064	RECOG_TARGET	n/a	LTP290	ltpFR	17	1	-1	BATH	98	1	2	-1	n/a	n/a	n/a	n/a	n/a
3295749	RECOG_RESP	n/a	LTP290	ltpFR	17	1	-1	BATH	98	1	n/a	-1	n/a	n/a	n/a	n/a	n/a
3296325	RECOG_CONF	n/a	LTP290	ltpFR	17	1	-1	BATH	98	n/a	2	-1	n/a	n/a	n/a	n/a	n/a
3297809	RECOG_TARGET	n/a	LTP290	ltpFR	17	1	-1	POCKET	1093	0	3	-1	n/a	n/a	n/a	n/a	n/a
3298534	RECOG_RESP	n/a	LTP290	ltpFR	17	1	-1	POCKET	1093	0	n/a	-1	n/a	n/a	n/a	n/a	n/a
3299000	RECOG_CONF	n/a	LTP290	ltpFR	17	1	-1	POCKET	1093	n/a	3	-1	n/a	n/a	n/a	n/a	n/a
3300589	RECOG_LURE	n/a	LTP290	ltpFR	17	1	n/a	BLACKBERRY	132	0	2	n/a	n/a	n/a	n/a	n/a	n/a
3301039	RECOG_RESP_VV	n/a	LTP290	ltpFR	17	1	n/a	BLACKBERRY	132	1	n/a	n/a	n/a	n/a	n/a	n/a	n/a
3301644	RECOG_RESP	n/a	LTP290	ltpFR	17	1	n/a	BLACKBERRY	132	0	n/a	n/a	n/a	n/a	n/a	n/a	n/a
3302155	RECOG_CONF	n/a	LTP290	ltpFR	17	1	n/a	BLACKBERRY	132	n/a	2	n/a	n/a	n/a	n/a	n/a	n/a
3303733	RECOG_TARGET	n/a	LTP290	ltpFR	17	1	1	BAIT	70	1	4	1	n/a	n/a	n/a	n/a	n/a
3304484	RECOG_RESP	n/a	LTP290	ltpFR	17	1	1	BAIT	70	1	n/a	1	n/a	n/a	n/a	n/a	n/a
3304880	RECOG_CONF	n/a	LTP290	ltpFR	17	1	1	BAIT	70	n/a	4	1	n/a	n/a	n/a	n/a	n/a
3306347	RECOG_LURE	n/a	LTP290	ltpFR	17	1	n/a	PENDULUM	1043	0	2	n/a	n/a	n/a	n/a	n/a	n/a
3307099	RECOG_RESP	n/a	LTP290	ltpFR	17	1	n/a	PENDULUM	1043	0	n/a	n/a	n/a	n/a	n/a	n/a	n/a
3307345	RECOG_CONF	n/a	LTP290	ltpFR	17	1	n/a	PENDULUM	1043	n/a	2	n/a	n/a	n/a	n/a	n/a	n/a
3308910	RECOG_TARGET	n/a	LTP290	ltpFR	17	1	-1	RANCH	1166	1	4	-1	n/a	n/a	n/a	n/a	n/a
3309488	RECOG_RESP	n/a	LTP290	ltpFR	17	1	-1	RANCH	1166	1	n/a	-1	n/a	n/a	n/a	n/a	n/a
3309890	RECOG_CONF	n/a	LTP290	ltpFR	17	1	-1	RANCH	1166	n/a	4	-1	n/a	n/a	n/a	n/a	n/a
3311389	RECOG_TARGET	n/a	LTP290	ltpFR	17	1	-1	AFRICA	9	1	5	-1	n/a	n/a	n/a	n/a	n/a
3312049	RECOG_RESP	n/a	LTP290	ltpFR	17	1	-1	AFRICA	9	1	n/a	-1	n/a	n/a	n/a	n/a	n/a
3312402	RECOG_CONF	n/a	LTP290	ltpFR	17	1	-1	AFRICA	9	n/a	5	-1	n/a	n/a	n/a	n/a	n/a
3313686	RECOG_TARGET	n/a	LTP290	ltpFR	17	1	1	JUG	762	1	4	0	n/a	n/a	n/a	n/a	n/a
3314639	RECOG_RESP	n/a	LTP290	ltpFR	17	1	1	JUG	762	1	n/a	0	n/a	n/a	n/a	n/a	n/a
3315110	RECOG_CONF	n/a	LTP290	ltpFR	17	1	1	JUG	762	n/a	4	0	n/a	n/a	n/a	n/a	n/a
3316698	RECOG_LURE	n/a	LTP290	ltpFR	17	1	n/a	TEA	1439	0	3	n/a	n/a	n/a	n/a	n/a	n/a
3317494	RECOG_RESP	n/a	LTP290	ltpFR	17	1	n/a	TEA	1439	0	n/a	n/a	n/a	n/a	n/a	n/a	n/a
3317990	RECOG_CONF	n/a	LTP290	ltpFR	17	1	n/a	TEA	1439	n/a	3	n/a	n/a	n/a	n/a	n/a	n/a
3319544	RECOG_TARGET	n/a	LTP290	ltpFR	17	1	0	NEUTRON	947	1	5	0	n/a	n/a	n/a	n/a	n/a
3320129	RECOG_RESP	n/a	LTP290	ltpFR	17	1	0	NEUTRON	947	1	n/a	0	n/a	n/a	n/a	n/a	n/a
3320522	RECOG_CONF	n/a	LTP290	ltpFR	17	1	0	NEUTRON	947	n/a	5	0	n/a	n/a	n/a	n/a	n/a
3322123	RECOG_TARGET	n/a	LTP290	ltpFR	17	1	-1	DENIM	446	1	3	-1	n/a	n/a	n/a	n/a	n/a
3323049	RECOG_RESP	n/a	LTP290	ltpFR	17	1	-1	DENIM	446	1	n/a	-1	n/a	n/a	n/a	n/a	n/a
3323570	RECOG_CONF	n/a	LTP290	ltpFR	17	1	-1	DENIM	446	n/a	3	-1	n/a	n/a	n/a	n/a	n/a
3325135	RECOG_TARGET	n/a	LTP290	ltpFR	17	1	1	GUARDIAN	668	1	3	1	n/a	n/a	n/a	n/a	n/a
3325824	RECOG_RESP	n/a	LTP290	ltpFR	17	1	1	GUARDIAN	668	1	n/a	1	n/a	n/a	n/a	n/a	n/a
3326320	RECOG_CONF	n/a	LTP290	ltpFR	17	1	1	GUARDIAN	668	n/a	3	1	n/a	n/a	n/a	n/a	n/a
3330441	REC_START	n/a	LTP290	ltpFR	17	2	n/a	n/a	n/a	n/a	n/a	n/a	n/a	n/a	n/a	n/a	n/a
3330477	RECOG_TARGET	n/a	LTP290	ltpFR	17	2	1	KNUCKLE	789	1	3	0	n/a	n/a	n/a	n/a	n/a
3331267	RECOG_RESP	n/a	LTP290	ltpFR	17	2	1	KNUCKLE	789	1	n/a	0	n/a	n/a	n/a	n/a	n/a
3331848	RECOG_CONF	n/a	LTP290	ltpFR	17	2	1	KNUCKLE	789	n/a	3	0	n/a	n/a	n/a	n/a	n/a
3333473	RECOG_TARGET	n/a	LTP290	ltpFR	17	2	1	WINDSHIELD	1612	1	3	0	n/a	n/a	n/a	n/a	n/a
3334132	RECOG_RESP	n/a	LTP290	ltpFR	17	2	1	WINDSHIELD	1612	1	n/a	0	n/a	n/a	n/a	n/a	n/a
3334728	RECOG_CONF	n/a	LTP290	ltpFR	17	2	1	WINDSHIELD	1612	n/a	3	0	n/a	n/a	n/a	n/a	n/a
3336319	RECOG_TARGET	n/a	LTP290	ltpFR	17	2	0	DRIVER	499	1	2	1	n/a	n/a	n/a	n/a	n/a
3336932	RECOG_RESP	n/a	LTP290	ltpFR	17	2	0	DRIVER	499	1	n/a	1	n/a	n/a	n/a	n/a	n/a
3337433	RECOG_CONF	n/a	LTP290	ltpFR	17	2	0	DRIVER	499	n/a	2	1	n/a	n/a	n/a	n/a	n/a
3338948	RECOG_TARGET	n/a	LTP290	ltpFR	17	2	1	LEG	809	1	4	0	n/a	n/a	n/a	n/a	n/a
3339802	RECOG_RESP	n/a	LTP290	ltpFR	17	2	1	LEG	809	1	n/a	0	n/a	n/a	n/a	n/a	n/a
3340628	RECOG_CONF	n/a	LTP290	ltpFR	17	2	1	LEG	809	n/a	4	0	n/a	n/a	n/a	n/a	n/a
3342243	RECOG_TARGET	n/a	LTP290	ltpFR	17	2	1	LOCK	838	1	4	0	n/a	n/a	n/a	n/a	n/a
3342797	RECOG_RESP	n/a	LTP290	ltpFR	17	2	1	LOCK	838	1	n/a	0	n/a	n/a	n/a	n/a	n/a
3343278	RECOG_CONF	n/a	LTP290	ltpFR	17	2	1	LOCK	838	n/a	4	0	n/a	n/a	n/a	n/a	n/a
3344788	RECOG_TARGET	n/a	LTP290	ltpFR	17	2	-1	SUBMARINE	1398	1	3	-1	n/a	n/a	n/a	n/a	n/a
3345387	RECOG_RESP	n/a	LTP290	ltpFR	17	2	-1	SUBMARINE	1398	1	n/a	-1	n/a	n/a	n/a	n/a	n/a
3345878	RECOG_CONF	n/a	LTP290	ltpFR	17	2	-1	SUBMARINE	1398	n/a	3	-1	n/a	n/a	n/a	n/a	n/a
3347402	RECOG_TARGET	n/a	LTP290	ltpFR	17	2	1	PONY	1102	1	2	0	n/a	n/a	n/a	n/a	n/a
3348192	RECOG_RESP	n/a	LTP290	ltpFR	17	2	1	PONY	1102	1	n/a	0	n/a	n/a	n/a	n/a	n/a
3348663	RECOG_CONF	n/a	LTP290	ltpFR	17	2	1	PONY	1102	n/a	2	0	n/a	n/a	n/a	n/a	n/a
3350298	RECOG_LURE	n/a	LTP290	ltpFR	17	2	n/a	TOMB	1477	0	1	n/a	n/a	n/a	n/a	n/a	n/a
3351177	RECOG_RESP	n/a	LTP290	ltpFR	17	2	n/a	TOMB	1477	0	n/a	n/a	n/a	n/a	n/a	n/a	n/a
3352045	RECOG_CONF	n/a	LTP290	ltpFR	17	2	n/a	TOMB	1477	n/a	1	n/a	n/a	n/a	n/a	n/a	n/a
3353643	RECOG_TARGET	n/a	LTP290	ltpFR	17	2	1	MONARCH	906	1	2	0	n/a	n/a	n/a	n/a	n/a
3354387	RECOG_RESP	n/a	LTP290	ltpFR	17	2	1	MONARCH	906	1	n/a	0	n/a	n/a	n/a	n/a	n/a
3354833	RECOG_CONF	n/a	LTP290	ltpFR	17	2	1	MONARCH	906	n/a	2	0	n/a	n/a	n/a	n/a	n/a
3356455	RECOG_TARGET	n/a	LTP290	ltpFR	17	2	0	PILOT	1070	0	2	1	n/a	n/a	n/a	n/a	n/a
3357362	RECOG_RESP	n/a	LTP290	ltpFR	17	2	0	PILOT	1070	0	n/a	1	n/a	n/a	n/a	n/a	n/a
3357693	RECOG_CONF	n/a	LTP290	ltpFR	17	2	0	PILOT	1070	n/a	2	1	n/a	n/a	n/a	n/a	n/a
3359301	RECOG_TARGET	n/a	LTP290	ltpFR	17	2	0	VEGETABLE	1552	1	2	0	n/a	n/a	n/a	n/a	n/a
3359977	RECOG_RESP	n/a	LTP290	ltpFR	17	2	0	VEGETABLE	1552	1	n/a	0	n/a	n/a	n/a	n/a	n/a
3360393	RECOG_CONF	n/a	LTP290	ltpFR	17	2	0	VEGETABLE	1552	n/a	2	0	n/a	n/a	n/a	n/a	n/a
3361947	RECOG_TARGET	n/a	LTP290	ltpFR	17	2	0	MONGOOSE	909	1	3	1	n/a	n/a	n/a	n/a	n/a
3362575	RECOG_RESP	n/a	LTP290	ltpFR	17	2	0	MONGOOSE	909	1	n/a	1	n/a	n/a	n/a	n/a	n/a
3362988	RECOG_CONF	n/a	LTP290	ltpFR	17	2	0	MONGOOSE	909	n/a	3	1	n/a	n/a	n/a	n/a	n/a
3364543	RECOG_LURE	n/a	LTP290	ltpFR	17	2	n/a	TELESCOPE	1446	0	2	n/a	n/a	n/a	n/a	n/a	n/a
3365392	RECOG_RESP	n/a	LTP290	ltpFR	17	2	n/a	TELESCOPE	1446	0	n/a	n/a	n/a	n/a	n/a	n/a	n/a
3365913	RECOG_CONF	n/a	LTP290	ltpFR	17	2	n/a	TELESCOPE	1446	n/a	2	n/a	n/a	n/a	n/a	n/a	n/a
3367456	RECOG_TARGET	n/a	LTP290	ltpFR	17	2	1	BRAN	167	1	3	0	n/a	n/a	n/a	n/a	n/a
3368337	RECOG_RESP	n/a	LTP290	ltpFR	17	2	1	BRAN	167	1	n/a	0	n/a	n/a	n/a	n/a	n/a
3368828	RECOG_CONF	n/a	LTP290	ltpFR	17	2	1	BRAN	167	n/a	3	0	n/a	n/a	n/a	n/a	n/a
3370501	RECOG_LURE	n/a	LTP290	ltpFR	17	2	n/a	DENTIST	447	0	3	n/a	n/a	n/a	n/a	n/a	n/a
3371557	RECOG_RESP	n/a	LTP290	ltpFR	17	2	n/a	DENTIST	447	0	n/a	n/a	n/a	n/a	n/a	n/a	n/a
3372108	RECOG_CONF	n/a	LTP290	ltpFR	17	2	n/a	DENTIST	447	n/a	3	n/a	n/a	n/a	n/a	n/a	n/a
3373696	RECOG_TARGET	n/a	LTP290	ltpFR	17	2	0	LAWN	805	0	2	1	n/a	n/a	n/a	n/a	n/a
3374431	RECOG_RESP	n/a	LTP290	ltpFR	17	2	0	LAWN	805	0	n/a	1	n/a	n/a	n/a	n/a	n/a
3374833	RECOG_CONF	n/a	LTP290	ltpFR	17	2	0	LAWN	805	n/a	2	1	n/a	n/a	n/a	n/a	n/a
3376492	RECOG_TARGET	n/a	LTP290	ltpFR	17	2	1	DIGGER	464	1	4	0	n/a	n/a	n/a	n/a	n/a
3377072	RECOG_RESP	n/a	LTP290	ltpFR	17	2	1	DIGGER	464	1	n/a	0	n/a	n/a	n/a	n/a	n/a
3377498	RECOG_CONF	n/a	LTP290	ltpFR	17	2	1	DIGGER	464	n/a	4	0	n/a	n/a	n/a	n/a	n/a
3378905	RECOG_TARGET	n/a	LTP290	ltpFR	17	2	0	DOLL	481	1	3	0	n/a	n/a	n/a	n/a	n/a
3379982	RECOG_RESP	n/a	LTP290	ltpFR	17	2	0	DOLL	481	1	n/a	0	n/a	n/a	n/a	n/a	n/a
3380908	RECOG_CONF	n/a	LTP290	ltpFR	17	2	0	DOLL	481	n/a	3	0	n/a	n/a	n/a	n/a	n/a
3382433	RECOG_LURE	n/a	LTP290	ltpFR	17	2	n/a	HAND	683	1	1	n/a	n/a	n/a	n/a	n/a	n/a
3383627	RECOG_RESP	n/a	LTP290	ltpFR	17	2	n/a	HAND	683	1	n/a	n/a	n/a	n/a	n/a	n/a	n/a
3384215	RECOG_CONF	n/a	LTP290	ltpFR	17	2	n/a	HAND	683	n/a	1	n/a	n/a	n/a	n/a	n/a	n/a
3385777	RECOG_TARGET	n/a	LTP290	ltpFR	17	2	-1	MOVIE	927	1	4	-1	n/a	n/a	n/a	n/a	n/a
3386452	RECOG_RESP	n/a	LTP290	ltpFR	17	2	-1	MOVIE	927	1	n/a	-1	n/a	n/a	n/a	n/a	n/a
3386848	RECOG_CONF	n/a	LTP290	ltpFR	17	2	-1	MOVIE	927	n/a	4	-1	n/a	n/a	n/a	n/a	n/a
3389911	REC_START	n/a	LTP290	ltpFR	17	3	n/a	n/a	n/a	n/a	n/a	n/a	n/a	n/a	n/a	n/a	n/a
3389939	RECOG_TARGET	n/a	LTP290	ltpFR	17	3	-1	OTTER	986	1	4	-1	n/a	n/a	n/a	n/a	n/a
3390607	RECOG_RESP	n/a	LTP290	ltpFR	17	3	-1	OTTER	986	1	n/a	-1	n/a	n/a	n/a	n/a	n/a
3391098	RECOG_CONF	n/a	LTP290	ltpFR	17	3	-1	OTTER	986	n/a	4	-1	n/a	n/a	n/a	n/a	n/a
3392701	RECOG_TARGET	n/a	LTP290	ltpFR	17	3	0	TOAST	1471	1	2	0	n/a	n/a	n/a	n/a	n/a
3393427	RECOG_RESP	n/a	LTP290	ltpFR	17	3	0	TOAST	1471	1	n/a	0	n/a	n/a	n/a	n/a	n/a
3393923	RECOG_CONF	n/a	LTP290	ltpFR	17	3	0	TOAST	1471	n/a	2	0	n/a	n/a	n/a	n/a	n/a
3395514	RECOG_TARGET	n/a	LTP290	ltpFR	17	3	0	EMERALD	528	1	3	0	n/a	n/a	n/a	n/a	n/a
3396147	RECOG_RESP	n/a	LTP290	ltpFR	17	3	0	EMERALD	528	1	n/a	0	n/a	n/a	n/a	n/a	n/a
3396588	RECOG_CONF	n/a	LTP290	ltpFR	17	3	0	EMERALD	528	n/a	3	0	n/a	n/a	n/a	n/a	n/a
3398110	RECOG_TARGET	n/a	LTP290	ltpFR	17	3	-1	TYPEWRITER	1531	1	3	-1	n/a	n/a	n/a	n/a	n/a
3398817	RECOG_RESP	n/a	LTP290	ltpFR	17	3	-1	TYPEWRITER	1531	1	n/a	-1	n/a	n/a	n/a	n/a	n/a
3399248	RECOG_CONF	n/a	LTP290	ltpFR	17	3	-1	TYPEWRITER	1531	n/a	3	-1	n/a	n/a	n/a	n/a	n/a
3400856	RECOG_TARGET	n/a	LTP290	ltpFR	17	3	1	LUNCH	849	1	2	0	n/a	n/a	n/a	n/a	n/a
3401362	RECOG_RESP	n/a	LTP290	ltpFR	17	3	1	LUNCH	849	1	n/a	0	n/a	n/a	n/a	n/a	n/a
3401773	RECOG_CONF	n/a	LTP290	ltpFR	17	3	1	LUNCH	849	n/a	2	0	n/a	n/a	n/a	n/a	n/a
3403385	RECOG_LURE	n/a	LTP290	ltpFR	17	3	n/a	GRAVE	658	0	2	n/a	n/a	n/a	n/a	n/a	n/a
3404247	RECOG_RESP	n/a	LTP290	ltpFR	17	3	n/a	GRAVE	658	0	n/a	n/a	n/a	n/a	n/a	n/a	n/a
3404723	RECOG_CONF	n/a	LTP290	ltpFR	17	3	n/a	GRAVE	658	n/a	2	n/a	n/a	n/a	n/a	n/a	n/a
3406331	RECOG_TARGET	n/a	LTP290	ltpFR	17	3	1	SEAGULL	1261	1	3	1	n/a	n/a	n/a	n/a	n/a
3406972	RECOG_RESP	n/a	LTP290	ltpFR	17	3	1	SEAGULL	1261	1	n/a	1	n/a	n/a	n/a	n/a	n/a
3407428	RECOG_CONF	n/a	LTP290	ltpFR	17	3	1	SEAGULL	1261	n/a	3	1	n/a	n/a	n/a	n/a	n/a
3409010	RECOG_TARGET	n/a	LTP290	ltpFR	17	3	-1	WALNUT	1584	1	3	-1	n/a	n/a	n/a	n/a	n/a
3410359	RECOG_RESP	n/a	LTP290	ltpFR	17	3	-1	WALNUT	1584	1	n/a	-1	n/a	n/a	n/a	n/a	n/a
3410948	RECOG_CONF	n/a	LTP290	ltpFR	17	3	-1	WALNUT	1584	n/a	3	-1	n/a	n/a	n/a	n/a	n/a
3412538	RECOG_TARGET	n/a	LTP290	ltpFR	17	3	1	BROCCOLI	176	1	3	0	n/a	n/a	n/a	n/a	n/a
3413292	RECOG_RESP	n/a	LTP290	ltpFR	17	3	1	BROCCOLI	176	1	n/a	0	n/a	n/a	n/a	n/a	n/a
3413918	RECOG_CONF	n/a	LTP290	ltpFR	17	3	1	BROCCOLI	176	n/a	3	0	n/a	n/a	n/a	n/a	n/a
3415550	RECOG_TARGET	n/a	LTP290	ltpFR	17	3	0	OUTFIT	988	1	3	0	n/a	n/a	n/a	n/a	n/a
3416392	RECOG_RESP	n/a	LTP290	ltpFR	17	3	0	OUTFIT	988	1	n/a	0	n/a	n/a	n/a	n/a	n/a
3417308	RECOG_CONF	n/a	LTP290	ltpFR	17	3	0	OUTFIT	988	n/a	3	0	n/a	n/a	n/a	n/a	n/a
3419128	RECOG_TARGET	n/a	LTP290	ltpFR	17	3	0	HARE	688	1	2	1	n/a	n/a	n/a	n/a	n/a
3419652	RECOG_RESP	n/a	LTP290	ltpFR	17	3	0	HARE	688	1	n/a	1	n/a	n/a	n/a	n/a	n/a
3420433	RECOG_CONF	n/a	LTP290	ltpFR	17	3	0	HARE	688	n/a	2	1	n/a	n/a	n/a	n/a	n/a
3422274	RECOG_TARGET	n/a	LTP290	ltpFR	17	3	-1	VITAMIN	1574	1	4	-1	n/a	n/a	n/a	n/a	n/a
3422797	RECOG_RESP	n/a	LTP290	ltpFR	17	3	-1	VITAMIN	1574	1	n/a	-1	n/a	n/a	n/a	n/a	n/a
3423548	RECOG_CONF	n/a	LTP290	ltpFR	17	3	-1	VITAMIN	1574	n/a	4	-1	n/a	n/a	n/a	n/a	n/a
3425386	RECOG_TARGET	n/a	LTP290	ltpFR	17	3	-1	CASHEW	253	1	4	-1	n/a	n/a	n/a	n/a	n/a
3425852	RECOG_RESP	n/a	LTP290	ltpFR	17	3	-1	CASHEW	253	1	n/a	-1	n/a	n/a	n/a	n/a	n/a
3426948	RECOG_CONF	n/a	LTP290	ltpFR	17	3	-1	CASHEW	253	n/a	4	-1	n/a	n/a	n/a	n/a	n/a
3428746	RECOG_TARGET	n/a	LTP290	ltpFR	17	3	0	PRAIRIE	1118	1	3	1	n/a	n/a	n/a	n/a	n/a
3429262	RECOG_RESP	n/a	LTP290	ltpFR	17	3	0	PRAIRIE	1118	1	n/a	1	n/a	n/a	n/a	n/a	n/a
3429878	RECOG_CONF	n/a	LTP290	ltpFR	17	3	0	PRAIRIE	1118	n/a	3	1	n/a	n/a	n/a	n/a	n/a
3431543	RECOG_TARGET	n/a	LTP290	ltpFR	17	3	1	PERSONNEL	1053	1	3	1	n/a	n/a	n/a	n/a	n/a
3432297	RECOG_RESP	n/a	LTP290	ltpFR	17	3	1	PERSONNEL	1053	1	n/a	1	n/a	n/a	n/a	n/a	n/a
3432968	RECOG_CONF	n/a	LTP290	ltpFR	17	3	1	PERSONNEL	1053	n/a	3	1	n/a	n/a	n/a	n/a	n/a
3434672	RECOG_TARGET	n/a	LTP290	ltpFR	17	3	0	SICKLE	1302	1	3	0	n/a	n/a	n/a	n/a	n/a
3435172	RECOG_RESP	n/a	LTP290	ltpFR	17	3	0	SICKLE	1302	1	n/a	0	n/a	n/a	n/a	n/a	n/a
3435778	RECOG_CONF	n/a	LTP290	ltpFR	17	3	0	SICKLE	1302	n/a	3	0	n/a	n/a	n/a	n/a	n/a
3437567	RECOG_TARGET	n/a	LTP290	ltpFR	17	3	-1	ROSE	1212	1	5	-1	n/a	n/a	n/a	n/a	n/a
3438152	RECOG_RESP	n/a	LTP290	ltpFR	17	3	-1	ROSE	1212	1	n/a	-1	n/a	n/a	n/a	n/a	n/a
3438750	RECOG_CONF	n/a	LTP290	ltpFR	17	3	-1	ROSE	1212	n/a	5	-1	n/a	n/a	n/a	n/a	n/a
3440313	RECOG_TARGET	n/a	LTP290	ltpFR	17	3	1	BLUEPRINT	142	1	3	0	n/a	n/a	n/a	n/a	n/a
3440882	RECOG_RESP	n/a	LTP290	ltpFR	17	3	1	BLUEPRINT	142	1	n/a	0	n/a	n/a	n/a	n/a	n/a
3441558	RECOG_CONF	n/a	LTP290	ltpFR	17	3	1	BLUEPRINT	142	n/a	3	0	n/a	n/a	n/a	n/a	n/a
3443259	RECOG_TARGET	n/a	LTP290	ltpFR	17	3	1	KIDNEY	776	1	3	0	n/a	n/a	n/a	n/a	n/a
3443802	RECOG_RESP	n/a	LTP290	ltpFR	17	3	1	KIDNEY	776	1	n/a	0	n/a	n/a	n/a	n/a	n/a
3444488	RECOG_CONF	n/a	LTP290	ltpFR	17	3	1	KIDNEY	776	n/a	3	0	n/a	n/a	n/a	n/a	n/a
3446155	RECOG_TARGET	n/a	LTP290	ltpFR	17	3	0	SQUID	1361	1	2	1	n/a	n/a	n/a	n/a	n/a
3446687	RECOG_RESP	n/a	LTP290	ltpFR	17	3	0	SQUID	1361	1	n/a	1	n/a	n/a	n/a	n/a	n/a
3447393	RECOG_CONF	n/a	LTP290	ltpFR	17	3	0	SQUID	1361	n/a	2	1	n/a	n/a	n/a	n/a	n/a
3450769	REC_START	n/a	LTP290	ltpFR	17	4	n/a	n/a	n/a	n/a	n/a	n/a	n/a	n/a	n/a	n/a	n/a
3450797	RECOG_LURE	n/a	LTP290	ltpFR	17	4	n/a	SHOP	1290	0	3	n/a	n/a	n/a	n/a	n/a	n/a
3451550	RECOG_RESP	n/a	LTP290	ltpFR	17	4	n/a	SHOP	1290	0	n/a	n/a	n/a	n/a	n/a	n/a	n/a
3452236	RECOG_CONF	n/a	LTP290	ltpFR	17	4	n/a	SHOP	1290	n/a	3	n/a	n/a	n/a	n/a	n/a	n/a
3453943	RECOG_TARGET	n/a	LTP290	ltpFR	17	4	0	AUDIENCE	59	1	4	1	n/a	n/a	n/a	n/a	n/a
3454580	RECOG_RESP	n/a	LTP290	ltpFR	17	4	0	AUDIENCE	59	1	n/a	1	n/a	n/a	n/a	n/a	n/a
3455266	RECOG_CONF	n/a	LTP290	ltpFR	17	4	0	AUDIENCE	59	n/a	4	1	n/a	n/a	n/a	n/a	n/a
3456839	RECOG_TARGET	n/a	LTP290	ltpFR	17	4	-1	TOOTHBRUSH	1482	1	4	-1	n/a	n/a	n/a	n/a	n/a
3457390	RECOG_RESP	n/a	LTP290	ltpFR	17	4	-1	TOOTHBRUSH	1482	1	n/a	-1	n/a	n/a	n/a	n/a	n/a
3457886	RECOG_CONF	n/a	LTP290	ltpFR	17	4	-1	TOOTHBRUSH	1482	n/a	4	-1	n/a	n/a	n/a	n/a	n/a
3459568	RECOG_TARGET	n/a	LTP290	ltpFR	17	4	0	SPIT	1354	1	2	0	n/a	n/a	n/a	n/a	n/a
3460225	RECOG_RESP	n/a	LTP290	ltpFR	17	4	0	SPIT	1354	1	n/a	0	n/a	n/a	n/a	n/a	n/a
3461001	RECOG_CONF	n/a	LTP290	ltpFR	17	4	0	SPIT	1354	n/a	2	0	n/a	n/a	n/a	n/a	n/a
3462647	RECOG_TARGET	n/a	LTP290	ltpFR	17	4	-1	CERAMICS	271	0	3	-1	n/a	n/a	n/a	n/a	n/a
3463345	RECOG_RESP	n/a	LTP290	ltpFR	17	4	-1	CERAMICS	271	0	n/a	-1	n/a	n/a	n/a	n/a	n/a
3463966	RECOG_CONF	n/a	LTP290	ltpFR	17	4	-1	CERAMICS	271	n/a	3	-1	n/a	n/a	n/a	n/a	n/a
3465542	RECOG_LURE	n/a	LTP290	ltpFR	17	4	n/a	VIOLIN	1571	0	4	n/a	n/a	n/a	n/a	n/a	n/a
3466275	RECOG_RESP	n/a	LTP290	ltpFR	17	4	n/a	VIOLIN	1571	0	n/a	n/a	n/a	n/a	n/a	n/a	n/a
3467296	RECOG_CONF	n/a	LTP290	ltpFR	17	4	n/a	VIOLIN	1571	n/a	4	n/a	n/a	n/a	n/a	n/a	n/a
3468887	RECOG_TARGET	n/a	LTP290	ltpFR	17	4	1	BLOSSOM	138	1	4	0	n/a	n/a	n/a	n/a	n/a
3469405	RECOG_RESP	n/a	LTP290	ltpFR	17	4	1	BLOSSOM	138	1	n/a	0	n/a	n/a	n/a	n/a	n/a
3469976	RECOG_CONF	n/a	LTP290	ltpFR	17	4	1	BLOSSOM	138	n/a	4	0	n/a	n/a	n/a	n/a	n/a
3471683	RECOG_TARGET	n/a	LTP290	ltpFR	17	4	0	ROBIN	1199	1	2	0	n/a	n/a	n/a	n/a	n/a
3472220	RECOG_RESP	n/a	LTP290	ltpFR	17	4	0	ROBIN	1199	1	n/a	0	n/a	n/a	n/a	n/a	n/a
3472841	RECOG_CONF	n/a	LTP290	ltpFR	17	4	0	ROBIN	1199	n/a	2	0	n/a	n/a	n/a	n/a	n/a
3474379	RECOG_LURE	n/a	LTP290	ltpFR	17	4	n/a	CRICKET	408	1	1	n/a	n/a	n/a	n/a	n/a	n/a
3475120	RECOG_RESP	n/a	LTP290	ltpFR	17	4	n/a	CRICKET	408	1	n/a	n/a	n/a	n/a	n/a	n/a	n/a
3475873	RECOG_CONF	n/a	LTP290	ltpFR	17	4	n/a	CRICKET	408	n/a	1	n/a	n/a	n/a	n/a	n/a	n/a
3477608	RECOG_TARGET	n/a	LTP290	ltpFR	17	4	0	ANTLER	29	1	4	1	n/a	n/a	n/a	n/a	n/a
3478245	RECOG_RESP	n/a	LTP290	ltpFR	17	4	0	ANTLER	29	1	n/a	1	n/a	n/a	n/a	n/a	n/a
3478976	RECOG_CONF	n/a	LTP290	ltpFR	17	4	0	ANTLER	29	n/a	4	1	n/a	n/a	n/a	n/a	n/a
3480487	RECOG_TARGET	n/a	LTP290	ltpFR	17	4	0	PENNY	1045	1	3	0	n/a	n/a	n/a	n/a	n/a
3481035	RECOG_RESP	n/a	LTP290	ltpFR	17	4	0	PENNY	1045	1	n/a	0	n/a	n/a	n/a	n/a	n/a
3481776	RECOG_CONF	n/a	LTP290	ltpFR	17	4	0	PENNY	1045	n/a	3	0	n/a	n/a	n/a	n/a	n/a
3483599	RECOG_TARGET	n/a	LTP290	ltpFR	17	4	0	FLY	586	1	4	0	n/a	n/a	n/a	n/a	n/a
3484115	RECOG_RESP	n/a	LTP290	ltpFR	17	4	0	FLY	586	1	n/a	0	n/a	n/a	n/a	n/a	n/a
3484806	RECOG_CONF	n/a	LTP290	ltpFR	17	4	0	FLY	586	n/a	4	0	n/a	n/a	n/a	n/a	n/a
3486428	RECOG_TARGET	n/a	LTP290	ltpFR	17	4	0	PROTON	1132	1	4	0	n/a	n/a	n/a	n/a	n/a
3486965	RECOG_RESP	n/a	LTP290	ltpFR	17	4	0	PROTON	1132	1	n/a	0	n/a	n/a	n/a	n/a	n/a
3487666	RECOG_CONF	n/a	LTP290	ltpFR	17	4	0	PROTON	1132	n/a	4	0	n/a	n/a	n/a	n/a	n/a
3489224	RECOG_TARGET	n/a	LTP290	ltpFR	17	4	-1	JEANS	752	1	2	-1	n/a	n/a	n/a	n/a	n/a
3489770	RECOG_RESP	n/a	LTP290	ltpFR	17	4	-1	JEANS	752	1	n/a	-1	n/a	n/a	n/a	n/a	n/a
3490461	RECOG_CONF	n/a	LTP290	ltpFR	17	4	-1	JEANS	752	n/a	2	-1	n/a	n/a	n/a	n/a	n/a
3492153	RECOG_TARGET	n/a	LTP290	ltpFR	17	4	-1	CART	250	1	3	-1	n/a	n/a	n/a	n/a	n/a
3492720	RECOG_RESP	n/a	LTP290	ltpFR	17	4	-1	CART	250	1	n/a	-1	n/a	n/a	n/a	n/a	n/a
3493296	RECOG_CONF	n/a	LTP290	ltpFR	17	4	-1	CART	250	n/a	3	-1	n/a	n/a	n/a	n/a	n/a
3494932	RECOG_LURE	n/a	LTP290	ltpFR	17	4	n/a	OATS	968	0	2	n/a	n/a	n/a	n/a	n/a	n/a
3495885	RECOG_RESP	n/a	LTP290	ltpFR	17	4	n/a	OATS	968	0	n/a	n/a	n/a	n/a	n/a	n/a	n/a
3496511	RECOG_CONF	n/a	LTP290	ltpFR	17	4	n/a	OATS	968	n/a	2	n/a	n/a	n/a	n/a	n/a	n/a
3498077	RECOG_TARGET	n/a	LTP290	ltpFR	17	4	1	HOSE	720	1	3	0	n/a	n/a	n/a	n/a	n/a
3498615	RECOG_RESP	n/a	LTP290	ltpFR	17	4	1	HOSE	720	1	n/a	0	n/a	n/a	n/a	n/a	n/a
3499156	RECOG_CONF	n/a	LTP290	ltpFR	17	4	1	HOSE	720	n/a	3	0	n/a	n/a	n/a	n/a	n/a
3500722	RECOG_LURE	n/a	LTP290	ltpFR	17	4	n/a	APPLE	33	0	1	n/a	n/a	n/a	n/a	n/a	n/a
3501465	RECOG_RESP	n/a	LTP290	ltpFR	17	4	n/a	APPLE	33	0	n/a	n/a	n/a	n/a	n/a	n/a	n/a
3502483	RECOG_CONF	n/a	LTP290	ltpFR	17	4	n/a	APPLE	33	n/a	1	n/a	n/a	n/a	n/a	n/a	n/a
3504068	RECOG_TARGET	n/a	LTP290	ltpFR	17	4	0	QUILT	1151	1	4	1	n/a	n/a	n/a	n/a	n/a
3504550	RECOG_RESP	n/a	LTP290	ltpFR	17	4	0	QUILT	1151	1	n/a	1	n/a	n/a	n/a	n/a	n/a
3505196	RECOG_CONF	n/a	LTP290	ltpFR	17	4	0	QUILT	1151	n/a	4	1	n/a	n/a	n/a	n/a	n/a
3506797	RECOG_TARGET	n/a	LTP290	ltpFR	17	4	-1	MULE	931	0	2	-1	n/a	n/a	n/a	n/a	n/a
3507905	RECOG_RESP	n/a	LTP290	ltpFR	17	4	-1	MULE	931	0	n/a	-1	n/a	n/a	n/a	n/a	n/a
3508591	RECOG_CONF	n/a	LTP290	ltpFR	17	4	-1	MULE	931	n/a	2	-1	n/a	n/a	n/a	n/a	n/a
3511768	REC_START	n/a	LTP290	ltpFR	17	5	n/a	n/a	n/a	n/a	n/a	n/a	n/a	n/a	n/a	n/a	n/a
3511806	RECOG_TARGET	n/a	LTP290	ltpFR	17	5	0	FURNITURE	616	1	3	1	n/a	n/a	n/a	n/a	n/a
3512494	RECOG_RESP	n/a	LTP290	ltpFR	17	5	0	FURNITURE	616	1	n/a	1	n/a	n/a	n/a	n/a	n/a
3512975	RECOG_CONF	n/a	LTP290	ltpFR	17	5	0	FURNITURE	616	n/a	3	1	n/a	n/a	n/a	n/a	n/a
3514469	RECOG_TARGET	n/a	LTP290	ltpFR	17	5	1	ROOT	1210	1	4	0	n/a	n/a	n/a	n/a	n/a
3515034	RECOG_RESP	n/a	LTP290	ltpFR	17	5	1	ROOT	1210	1	n/a	0	n/a	n/a	n/a	n/a	n/a
3515445	RECOG_CONF	n/a	LTP290	ltpFR	17	5	1	ROOT	1210	n/a	4	0	n/a	n/a	n/a	n/a	n/a
3517016	RECOG_TARGET	n/a	LTP290	ltpFR	17	5	-1	PERMIT	1051	1	3	-1	n/a	n/a	n/a	n/a	n/a
3517664	RECOG_RESP	n/a	LTP290	ltpFR	17	5	-1	PERMIT	1051	1	n/a	-1	n/a	n/a	n/a	n/a	n/a
3518025	RECOG_CONF	n/a	LTP290	ltpFR	17	5	-1	PERMIT	1051	n/a	3	-1	n/a	n/a	n/a	n/a	n/a
3519529	RECOG_TARGET	n/a	LTP290	ltpFR	17	5	0	LETTUCE	814	1	2	0	n/a	n/a	n/a	n/a	n/a
3520229	RECOG_RESP	n/a	LTP290	ltpFR	17	5	0	LETTUCE	814	1	n/a	0	n/a	n/a	n/a	n/a	n/a
3520740	RECOG_CONF	n/a	LTP290	ltpFR	17	5	0	LETTUCE	814	n/a	2	0	n/a	n/a	n/a	n/a	n/a
3522274	RECOG_TARGET	n/a	LTP290	ltpFR	17	5	1	TICK	1463	1	4	0	n/a	n/a	n/a	n/a	n/a
3522809	RECOG_RESP	n/a	LTP290	ltpFR	17	5	1	TICK	1463	1	n/a	0	n/a	n/a	n/a	n/a	n/a
3523225	RECOG_CONF	n/a	LTP290	ltpFR	17	5	1	TICK	1463	n/a	4	0	n/a	n/a	n/a	n/a	n/a
3524703	RECOG_TARGET	n/a	LTP290	ltpFR	17	5	0	HAYSTACK	694	1	2	1	n/a	n/a	n/a	n/a	n/a
3525254	RECOG_RESP	n/a	LTP290	ltpFR	17	5	0	HAYSTACK	694	1	n/a	1	n/a	n/a	n/a	n/a	n/a
3525730	RECOG_CONF	n/a	LTP290	ltpFR	17	5	0	HAYSTACK	694	n/a	2	1	n/a	n/a	n/a	n/a	n/a
3527300	RECOG_TARGET	n/a	LTP290	ltpFR	17	5	0	FIN	566	1	3	0	n/a	n/a	n/a	n/a	n/a
3527799	RECOG_RESP	n/a	LTP290	ltpFR	17	5	0	FIN	566	1	n/a	0	n/a	n/a	n/a	n/a	n/a
3528345	RECOG_CONF	n/a	LTP290	ltpFR	17	5	0	FIN	566	n/a	3	0	n/a	n/a	n/a	n/a	n/a
3529830	RECOG_TARGET	n/a	LTP290	ltpFR	17	5	0	BISON	131	1	1	1	n/a	n/a	n/a	n/a	n/a
3530344	RECOG_RESP	n/a	LTP290	ltpFR	17	5	0	BISON	131	1	n/a	1	n/a	n/a	n/a	n/a	n/a
3530882	RECOG_CONF	n/a	LTP290	ltpFR	17	5	0	BISON	131	n/a	1	1	n/a	n/a	n/a	n/a	n/a
3532409	RECOG_TARGET	n/a	LTP290	ltpFR	17	5	0	COYOTE	396	1	4	1	n/a	n/a	n/a	n/a	n/a
3532864	RECOG_RESP	n/a	LTP290	ltpFR	17	5	0	COYOTE	396	1	n/a	1	n/a	n/a	n/a	n/a	n/a
3533335	RECOG_CONF	n/a	LTP290	ltpFR	17	5	0	COYOTE	396	n/a	4	1	n/a	n/a	n/a	n/a	n/a
3534755	RECOG_TARGET	n/a	LTP290	ltpFR	17	5	0	PAINTER	1004	1	2	1	n/a	n/a	n/a	n/a	n/a
3535209	RECOG_RESP	n/a	LTP290	ltpFR	17	5	0	PAINTER	1004	1	n/a	1	n/a	n/a	n/a	n/a	n/a
3535640	RECOG_CONF	n/a	LTP290	ltpFR	17	5	0	PAINTER	1004	n/a	2	1	n/a	n/a	n/a	n/a	n/a
3537302	RECOG_TARGET	n/a	LTP290	ltpFR	17	5	0	SCROLL	1257	1	4	0	n/a	n/a	n/a	n/a	n/a
3537829	RECOG_RESP	n/a	LTP290	ltpFR	17	5	0	SCROLL	1257	1	n/a	0	n/a	n/a	n/a	n/a	n/a
3538285	RECOG_CONF	n/a	LTP290	ltpFR	17	5	0	SCROLL	1257	n/a	4	0	n/a	n/a	n/a	n/a	n/a
3539698	RECOG_LURE	n/a	LTP290	ltpFR	17	5	n/a	SNOB	1335	0	3	n/a	n/a	n/a	n/a	n/a	n/a
3540419	RECOG_RESP	n/a	LTP290	ltpFR	17	5	n/a	SNOB	1335	0	n/a	n/a	n/a	n/a	n/a	n/a	n/a
3541015	RECOG_CONF	n/a	LTP290	ltpFR	17	5	n/a	SNOB	1335	n/a	3	n/a	n/a	n/a	n/a	n/a	n/a
3542877	RECOG_TARGET	n/a	LTP290	ltpFR	17	5	1	REPTILE	1185	1	3	1	n/a	n/a	n/a	n/a	n/a
3543539	RECOG_RESP	n/a	LTP290	ltpFR	17	5	1	REPTILE	1185	1	n/a	1	n/a	n/a	n/a	n/a	n/a
3543965	RECOG_CONF	n/a	LTP290	ltpFR	17	5	1	REPTILE	1185	n/a	3	1	n/a	n/a	n/a	n/a	n/a
3545506	RECOG_TARGET	n/a	LTP290	ltpFR	17	5	1	BUGLE	189	1	2	0	n/a	n/a	n/a	n/a	n/a
3546169	RECOG_RESP	n/a	LTP290	ltpFR	17	5	1	BUGLE	189	1	n/a	0	n/a	n/a	n/a	n/a	n/a
3546570	RECOG_CONF	n/a	LTP290	ltpFR	17	5	1	BUGLE	189	n/a	2	0	n/a	n/a	n/a	n/a	n/a
3548119	RECOG_TARGET	n/a	LTP290	ltpFR	17	5	0	SAW	1239	1	2	0	n/a	n/a	n/a	n/a	n/a
3548804	RECOG_RESP	n/a	LTP290	ltpFR	17	5	0	SAW	1239	1	n/a	0	n/a	n/a	n/a	n/a	n/a
3549270	RECOG_CONF	n/a	LTP290	ltpFR	17	5	0	SAW	1239	n/a	2	0	n/a	n/a	n/a	n/a	n/a
3551031	RECOG_TARGET	n/a	LTP290	ltpFR	17	5	-1	CATHEDRAL	260	0	3	-1	n/a	n/a	n/a	n/a	n/a
3551709	RECOG_RESP	n/a	LTP290	ltpFR	17	5	-1	CATHEDRAL	260	0	n/a	-1	n/a	n/a	n/a	n/a	n/a
3552285	RECOG_CONF	n/a	LTP290	ltpFR	17	5	-1	CATHEDRAL	260	n/a	3	-1	n/a	n/a	n/a	n/a	n/a
3553844	RECOG_TARGET	n/a	LTP290	ltpFR	17	5	1	DRAWING	494	1	2	0	n/a	n/a	n/a	n/a	n/a
3554554	RECOG_RESP	n/a	LTP290	ltpFR	17	5	1	DRAWING	494	1	n/a	0	n/a	n/a	n/a	n/a	n/a
3554960	RECOG_CONF	n/a	LTP290	ltpFR	17	5	1	DRAWING	494	n/a	2	0	n/a	n/a	n/a	n/a	n/a
3556557	RECOG_TARGET	n/a	LTP290	ltpFR	17	5	0	REEF	1177	1	1	1	n/a	n/a	n/a	n/a	n/a
3557069	RECOG_RESP	n/a	LTP290	ltpFR	17	5	0	REEF	1177	1	n/a	1	n/a	n/a	n/a	n/a	n/a
3557892	RECOG_CONF	n/a	LTP290	ltpFR	17	5	0	REEF	1177	n/a	1	1	n/a	n/a	n/a	n/a	n/a
3559751	RECOG_TARGET	n/a	LTP290	ltpFR	17	5	-1	ATLAS	53	1	4	-1	n/a	n/a	n/a	n/a	n/a
3561554	RECOG_RESP	n/a	LTP290	ltpFR	17	5	-1	ATLAS	53	1	n/a	-1	n/a	n/a	n/a	n/a	n/a
3562595	RECOG_CONF	n/a	LTP290	ltpFR	17	5	-1	ATLAS	53	n/a	4	-1	n/a	n/a	n/a	n/a	n/a
3564578	RECOG_TARGET	n/a	LTP290	ltpFR	17	5	1	ENGINE	535	1	2	0	n/a	n/a	n/a	n/a	n/a
3565244	RECOG_RESP	n/a	LTP290	ltpFR	17	5	1	ENGINE	535	1	n/a	0	n/a	n/a	n/a	n/a	n/a
3565650	RECOG_CONF	n/a	LTP290	ltpFR	17	5	1	ENGINE	535	n/a	2	0	n/a	n/a	n/a	n/a	n/a
3568722	REC_START	n/a	LTP290	ltpFR	17	6	n/a	n/a	n/a	n/a	n/a	n/a	n/a	n/a	n/a	n/a	n/a
3568754	RECOG_LURE	n/a	LTP290	ltpFR	17	6	n/a	MILK	895	0	3	n/a	n/a	n/a	n/a	n/a	n/a
3569468	RECOG_RESP	n/a	LTP290	ltpFR	17	6	n/a	MILK	895	0	n/a	n/a	n/a	n/a	n/a	n/a	n/a
3569909	RECOG_CONF	n/a	LTP290	ltpFR	17	6	n/a	MILK	895	n/a	3	n/a	n/a	n/a	n/a	n/a	n/a
3571484	RECOG_LURE	n/a	LTP290	ltpFR	17	6	n/a	LUNG	850	0	4	n/a	n/a	n/a	n/a	n/a	n/a
3572283	RECOG_RESP	n/a	LTP290	ltpFR	17	6	n/a	LUNG	850	0	n/a	n/a	n/a	n/a	n/a	n/a	n/a
3572889	RECOG_CONF	n/a	LTP290	ltpFR	17	6	n/a	LUNG	850	n/a	4	n/a	n/a	n/a	n/a	n/a	n/a
3574430	RECOG_TARGET	n/a	LTP290	ltpFR	17	6	1	FLEET	578	1	2	0	n/a	n/a	n/a	n/a	n/a
3575203	RECOG_RESP	n/a	LTP290	ltpFR	17	6	1	FLEET	578	1	n/a	0	n/a	n/a	n/a	n/a	n/a
3575684	RECOG_CONF	n/a	LTP290	ltpFR	17	6	1	FLEET	578	n/a	2	0	n/a	n/a	n/a	n/a	n/a
3577342	RECOG_TARGET	n/a	LTP290	ltpFR	17	6	-1	ELBOW	520	0	2	-1	n/a	n/a	n/a	n/a	n/a
3578033	RECOG_RESP	n/a	LTP290	ltpFR	17	6	-1	ELBOW	520	0	n/a	-1	n/a	n/a	n/a	n/a	n/a
3578554	RECOG_CONF	n/a	LTP290	ltpFR	17	6	-1	ELBOW	520	n/a	2	-1	n/a	n/a	n/a	n/a	n/a
3580038	RECOG_TARGET	n/a	LTP290	ltpFR	17	6	1	SAILOR	1223	1	4	1	n/a	n/a	n/a	n/a	n/a
3580623	RECOG_RESP	n/a	LTP290	ltpFR	17	6	1	SAILOR	1223	1	n/a	1	n/a	n/a	n/a	n/a	n/a
3581099	RECOG_CONF	n/a	LTP290	ltpFR	17	6	1	SAILOR	1223	n/a	4	1	n/a	n/a	n/a	n/a	n/a
3582684	RECOG_TARGET	n/a	LTP290	ltpFR	17	6	0	DEODORANT	448	1	4	0	n/a	n/a	n/a	n/a	n/a
3583293	RECOG_RESP	n/a	LTP290	ltpFR	17	6	0	DEODORANT	448	1	n/a	0	n/a	n/a	n/a	n/a	n/a
3583779	RECOG_CONF	n/a	LTP290	ltpFR	17	6	0	DEODORANT	448	n/a	4	0	n/a	n/a	n/a	n/a	n/a
3585413	RECOG_TARGET	n/a	LTP290	ltpFR	17	6	0	MONK	910	1	2	1	n/a	n/a	n/a	n/a	n/a
3586133	RECOG_RESP	n/a	LTP290	ltpFR	17	6	0	MONK	910	1	n/a	1	n/a	n/a	n/a	n/a	n/a
3586594	RECOG_CONF	n/a	LTP290	ltpFR	17	6	0	MONK	910	n/a	2	1	n/a	n/a	n/a	n/a	n/a
3588459	RECOG_LURE	n/a	LTP290	ltpFR	17	6	n/a	BOTTLE	153	1	3	n/a	n/a	n/a	n/a	n/a	n/a
3589383	RECOG_RESP_VV	n/a	LTP290	ltpFR	17	6	n/a	BOTTLE	153	0	n/a	n/a	n/a	n/a	n/a	n/a	n/a
3590363	RECOG_RESP	n/a	LTP290	ltpFR	17	6	n/a	BOTTLE	153	1	n/a	n/a	n/a	n/a	n/a	n/a	n/a
3590939	RECOG_CONF	n/a	LTP290	ltpFR	17	6	n/a	BOTTLE	153	n/a	3	n/a	n/a	n/a	n/a	n/a	n/a
3592586	RECOG_TARGET	n/a	LTP290	ltpFR	17	6	0	GUITAR	670	0	2	1	n/a	n/a	n/a	n/a	n/a
3593513	RECOG_RESP	n/a	LTP290	ltpFR	17	6	0	GUITAR	670	0	n/a	1	n/a	n/a	n/a	n/a	n/a
3593984	RECOG_CONF	n/a	LTP290	ltpFR	17	6	0	GUITAR	670	n/a	2	1	n/a	n/a	n/a	n/a	n/a
3595615	RECOG_TARGET	n/a	LTP290	ltpFR	17	6	-1	CREVICE	405	1	3	-1	n/a	n/a	n/a	n/a	n/a
3596308	RECOG_RESP	n/a	LTP290	ltpFR	17	6	-1	CREVICE	405	1	n/a	-1	n/a	n/a	n/a	n/a	n/a
3597059	RECOG_CONF	n/a	LTP290	ltpFR	17	6	-1	CREVICE	405	n/a	3	-1	n/a	n/a	n/a	n/a	n/a
3598660	RECOG_LURE	n/a	LTP290	ltpFR	17	6	n/a	LIZARD	834	1	1	n/a	n/a	n/a	n/a	n/a	n/a
3601418	RECOG_RESP	n/a	LTP290	ltpFR	17	6	n/a	LIZARD	834	1	n/a	n/a	n/a	n/a	n/a	n/a	n/a
3602046	RECOG_CONF	n/a	LTP290	ltpFR	17	6	n/a	LIZARD	834	n/a	1	n/a	n/a	n/a	n/a	n/a	n/a
3603669	RECOG_TARGET	n/a	LTP290	ltpFR	17	6	-1	ENEMY	534	0	2	-1	n/a	n/a	n/a	n/a	n/a
3604298	RECOG_RESP	n/a	LTP290	ltpFR	17	6	-1	ENEMY	534	0	n/a	-1	n/a	n/a	n/a	n/a	n/a
3604754	RECOG_CONF	n/a	LTP290	ltpFR	17	6	-1	ENEMY	534	n/a	2	-1	n/a	n/a	n/a	n/a	n/a
3606465	RECOG_TARGET	n/a	LTP290	ltpFR	17	6	1	PEOPLE	1046	1	4	1	n/a	n/a	n/a	n/a	n/a
3607198	RECOG_RESP	n/a	LTP290	ltpFR	17	6	1	PEOPLE	1046	1	n/a	1	n/a	n/a	n/a	n/a	n/a
3607659	RECOG_CONF	n/a	LTP290	ltpFR	17	6	1	PEOPLE	1046	n/a	4	1	n/a	n/a	n/a	n/a	n/a
