mstime	trial_type	stim_file	subject	experiment	session	trial	task	item_name	item_num	recog_conf	resp	color_b	color_g	color_r	case	font
0	SESS_START	n/a	LTP137	ltpFR	4	n/a	n/a	n/a	n/a	n/a	n/a	n/a	n/a	n/a	n/a	n/a
51028	WORD	wordpools/wasnorm_wordpool.txt	LTP137	ltpFR	4	1	0	INFANT	737	n/a	1	1	0.412841796875	0.57763671875	upper	../fonts/amplitud.ttf
54839	WORD	wordpools/wasnorm_wordpool.txt	LTP137	ltpFR	4	1	0	BATH	98	n/a	1	1	0.412841796875	0.57763671875	upper	../fonts/amplitud.ttf
58801	WORD	wordpools/wasnorm_wordpool.txt	LTP137	ltpFR	4	1	1	DAM	436	n/a	0	0	0.5869140625	0.422607421875	lower	../fonts/zerothre.ttf
62721	WORD	wordpools/wasnorm_wordpool.txt	LTP137	ltpFR	4	1	1	LAKE	796	n/a	0	0	0.5869140625	0.422607421875	lower	../fonts/zerothre.ttf
66883	WORD	wordpools/wasnorm_wordpool.txt	LTP137	ltpFR	4	1	1	OFFICER	973	n/a	1	0	0.5869140625	0.422607421875	lower	../fonts/zerothre.ttf
70904	WORD	wordpools/wasnorm_wordpool.txt	LTP137	ltpFR	4	1	0	CHILD	299	n/a	1	1	0.412841796875	0.57763671875	upper	../fonts/amplitud.ttf
74782	WORD	wordpools/wasnorm_wordpool.txt	LTP137	ltpFR	4	1	0	VINE	1568	n/a	1	1	0.412841796875	0.57763671875	upper	../fonts/amplitud.ttf
78678	WORD	wordpools/wasnorm_wordpool.txt	LTP137	ltpFR	4	1	0	SHOULDER	1294	n/a	0	1	0.412841796875	0.57763671875	upper	../fonts/amplitud.ttf
82707	WORD	wordpools/wasnorm_wordpool.txt	LTP137	ltpFR	4	1	0	VAGRANT	1544	n/a	1	1	0.412841796875	0.57763671875	upper	../fonts/amplitud.ttf
86560	WORD	wordpools/wasnorm_wordpool.txt	LTP137	ltpFR	4	1	1	SILK	1307	n/a	0	0	0.5869140625	0.422607421875	lower	../fonts/zerothre.ttf
90490	WORD	wordpools/wasnorm_wordpool.txt	LTP137	ltpFR	4	1	1	APPENDAGE	32	n/a	0	0	0.5869140625	0.422607421875	lower	../fonts/zerothre.ttf
94585	WORD	wordpools/wasnorm_wordpool.txt	LTP137	ltpFR	4	1	1	CELERY	266	n/a	0	0	0.5869140625	0.422607421875	lower	../fonts/zerothre.ttf
98513	WORD	wordpools/wasnorm_wordpool.txt	LTP137	ltpFR	4	1	1	KEY	773	n/a	0	0	0.5869140625	0.422607421875	lower	../fonts/zerothre.ttf
102476	WORD	wordpools/wasnorm_wordpool.txt	LTP137	ltpFR	4	1	1	GATE	625	n/a	0	0	0.5869140625	0.422607421875	lower	../fonts/zerothre.ttf
106529	WORD	wordpools/wasnorm_wordpool.txt	LTP137	ltpFR	4	1	0	KIWI	781	n/a	0	1	0.412841796875	0.57763671875	upper	../fonts/amplitud.ttf
110367	WORD	wordpools/wasnorm_wordpool.txt	LTP137	ltpFR	4	1	0	PASTRY	1022	n/a	0	1	0.412841796875	0.57763671875	upper	../fonts/amplitud.ttf
116378	REC_START	n/a	LTP137	ltpFR	4	1	n/a	n/a	n/a	n/a	n/a	n/a	n/a	n/a	n/a	n/a
118054	REC_WORD	wordpools/wasnorm_wordpool.txt	LTP137	ltpFR	4	1	0	INFANT	737	n/a	1	n/a	n/a	n/a	n/a	n/a
118787	REC_WORD	wordpools/wasnorm_wordpool.txt	LTP137	ltpFR	4	1	0	CHILD	299	n/a	1	n/a	n/a	n/a	n/a	n/a
119820	REC_WORD	wordpools/wasnorm_wordpool.txt	LTP137	ltpFR	4	1	0	KIWI	781	n/a	0	n/a	n/a	n/a	n/a	n/a
120608	REC_WORD	wordpools/wasnorm_wordpool.txt	LTP137	ltpFR	4	1	0	PASTRY	1022	n/a	0	n/a	n/a	n/a	n/a	n/a
121721	REC_WORD	wordpools/wasnorm_wordpool.txt	LTP137	ltpFR	4	1	1	DAM	436	n/a	0	n/a	n/a	n/a	n/a	n/a
122444	REC_WORD	wordpools/wasnorm_wordpool.txt	LTP137	ltpFR	4	1	1	LAKE	796	n/a	0	n/a	n/a	n/a	n/a	n/a
123466	REC_WORD	wordpools/wasnorm_wordpool.txt	LTP137	ltpFR	4	1	1	KEY	773	n/a	0	n/a	n/a	n/a	n/a	n/a
124569	REC_WORD	wordpools/wasnorm_wordpool.txt	LTP137	ltpFR	4	1	1	GATE	625	n/a	0	n/a	n/a	n/a	n/a	n/a
125582	REC_WORD	wordpools/wasnorm_wordpool.txt	LTP137	ltpFR	4	1	0	SHOULDER	1294	n/a	0	n/a	n/a	n/a	n/a	n/a
126679	REC_WORD	wordpools/wasnorm_wordpool.txt	LTP137	ltpFR	4	1	1	APPENDAGE	32	n/a	0	n/a	n/a	n/a	n/a	n/a
130705	REC_WORD	wordpools/wasnorm_wordpool.txt	LTP137	ltpFR	4	1	1	SILK	1307	n/a	0	n/a	n/a	n/a	n/a	n/a
153448	REC_WORD	wordpools/wasnorm_wordpool.txt	LTP137	ltpFR	4	1	1	OFFICER	973	n/a	1	n/a	n/a	n/a	n/a	n/a
160732	REC_WORD	wordpools/wasnorm_wordpool.txt	LTP137	ltpFR	4	1	0	VINE	1568	n/a	1	n/a	n/a	n/a	n/a	n/a
168529	REC_WORD	wordpools/wasnorm_wordpool.txt	LTP137	ltpFR	4	1	1	CELERY	266	n/a	0	n/a	n/a	n/a	n/a	n/a
198041	WORD	wordpools/wasnorm_wordpool.txt	LTP137	ltpFR	4	2	1	STEWARDESS	1381	n/a	1	0	0.5869140625	0.422607421875	lower	../fonts/zerothre.ttf
202094	WORD	wordpools/wasnorm_wordpool.txt	LTP137	ltpFR	4	2	1	HOSPITAL	721	n/a	0	0	0.5869140625	0.422607421875	lower	../fonts/zerothre.ttf
206006	WORD	wordpools/wasnorm_wordpool.txt	LTP137	ltpFR	4	2	1	VICTIM	1562	n/a	1	0	0.5869140625	0.422607421875	lower	../fonts/zerothre.ttf
210202	WORD	wordpools/wasnorm_wordpool.txt	LTP137	ltpFR	4	2	1	BOOT	150	n/a	0	0	0.5869140625	0.422607421875	lower	../fonts/zerothre.ttf
214047	WORD	wordpools/wasnorm_wordpool.txt	LTP137	ltpFR	4	2	0	ICEBERG	731	n/a	1	1	0.412841796875	0.57763671875	upper	../fonts/amplitud.ttf
217892	WORD	wordpools/wasnorm_wordpool.txt	LTP137	ltpFR	4	2	0	STOMACH	1384	n/a	1	1	0.412841796875	0.57763671875	upper	../fonts/amplitud.ttf
221904	WORD	wordpools/wasnorm_wordpool.txt	LTP137	ltpFR	4	2	0	OLIVE	975	n/a	0	1	0.412841796875	0.57763671875	upper	../fonts/amplitud.ttf
225733	WORD	wordpools/wasnorm_wordpool.txt	LTP137	ltpFR	4	2	1	WEED	1599	n/a	1	0	0.5869140625	0.422607421875	lower	../fonts/zerothre.ttf
229903	WORD	wordpools/wasnorm_wordpool.txt	LTP137	ltpFR	4	2	1	ICE	730	n/a	0	0	0.5869140625	0.422607421875	lower	../fonts/zerothre.ttf
233857	WORD	wordpools/wasnorm_wordpool.txt	LTP137	ltpFR	4	2	1	SNACK	1331	n/a	0	0	0.5869140625	0.422607421875	lower	../fonts/zerothre.ttf
238011	WORD	wordpools/wasnorm_wordpool.txt	LTP137	ltpFR	4	2	1	SAUSAGE	1238	n/a	0	0	0.5869140625	0.422607421875	lower	../fonts/zerothre.ttf
241847	WORD	wordpools/wasnorm_wordpool.txt	LTP137	ltpFR	4	2	0	SANDWICH	1232	n/a	0	1	0.412841796875	0.57763671875	upper	../fonts/amplitud.ttf
245834	WORD	wordpools/wasnorm_wordpool.txt	LTP137	ltpFR	4	2	0	HAMBURGER	679	n/a	0	1	0.412841796875	0.57763671875	upper	../fonts/amplitud.ttf
249871	WORD	wordpools/wasnorm_wordpool.txt	LTP137	ltpFR	4	2	0	SLIDE	1326	n/a	1	1	0.412841796875	0.57763671875	upper	../fonts/amplitud.ttf
253800	WORD	wordpools/wasnorm_wordpool.txt	LTP137	ltpFR	4	2	0	PIGEON	1065	n/a	0	1	0.412841796875	0.57763671875	upper	../fonts/amplitud.ttf
257887	WORD	wordpools/wasnorm_wordpool.txt	LTP137	ltpFR	4	2	0	ROBIN	1199	n/a	0	1	0.412841796875	0.57763671875	upper	../fonts/amplitud.ttf
263706	REC_START	n/a	LTP137	ltpFR	4	2	n/a	n/a	n/a	n/a	n/a	n/a	n/a	n/a	n/a	n/a
264863	REC_WORD	wordpools/wasnorm_wordpool.txt	LTP137	ltpFR	4	2	0	PIGEON	1065	n/a	0	n/a	n/a	n/a	n/a	n/a
265601	REC_WORD	wordpools/wasnorm_wordpool.txt	LTP137	ltpFR	4	2	0	ROBIN	1199	n/a	0	n/a	n/a	n/a	n/a	n/a
266309	REC_WORD	wordpools/wasnorm_wordpool.txt	LTP137	ltpFR	4	2	1	SNACK	1331	n/a	0	n/a	n/a	n/a	n/a	n/a
267826	REC_WORD	wordpools/wasnorm_wordpool.txt	LTP137	ltpFR	4	2	1	STEWARDESS	1381	n/a	1	n/a	n/a	n/a	n/a	n/a
270684	REC_WORD	wordpools/wasnorm_wordpool.txt	LTP137	ltpFR	4	2	0	SANDWICH	1232	n/a	0	n/a	n/a	n/a	n/a	n/a
271897	REC_WORD	wordpools/wasnorm_wordpool.txt	LTP137	ltpFR	4	2	0	HAMBURGER	679	n/a	0	n/a	n/a	n/a	n/a	n/a
272827	REC_WORD	wordpools/wasnorm_wordpool.txt	LTP137	ltpFR	4	2	n/a	SLOPE	1328	n/a	n/a	n/a	n/a	n/a	n/a	n/a
274446	REC_WORD	wordpools/wasnorm_wordpool.txt	LTP137	ltpFR	4	2	0	ICEBERG	731	n/a	1	n/a	n/a	n/a	n/a	n/a
277743	REC_WORD	wordpools/wasnorm_wordpool.txt	LTP137	ltpFR	4	2	1	VICTIM	1562	n/a	1	n/a	n/a	n/a	n/a	n/a
281291	REC_WORD	wordpools/wasnorm_wordpool.txt	LTP137	ltpFR	4	2	1	BOOT	150	n/a	0	n/a	n/a	n/a	n/a	n/a
290764	REC_WORD	wordpools/wasnorm_wordpool.txt	LTP137	ltpFR	4	2	1	SAUSAGE	1238	n/a	0	n/a	n/a	n/a	n/a	n/a
294346	REC_WORD	wordpools/wasnorm_wordpool.txt	LTP137	ltpFR	4	2	1	WEED	1599	n/a	1	n/a	n/a	n/a	n/a	n/a
303565	REC_WORD	wordpools/wasnorm_wordpool.txt	LTP137	ltpFR	4	2	1	HOSPITAL	721	n/a	0	n/a	n/a	n/a	n/a	n/a
324687	REC_WORD	wordpools/wasnorm_wordpool.txt	LTP137	ltpFR	4	2	0	ROBIN	1199	n/a	0	n/a	n/a	n/a	n/a	n/a
325704	REC_WORD	wordpools/wasnorm_wordpool.txt	LTP137	ltpFR	4	2	0	ROBIN	1199	n/a	0	n/a	n/a	n/a	n/a	n/a
343089	WORD	wordpools/wasnorm_wordpool.txt	LTP137	ltpFR	4	3	-1	RASPBERRY	1168	n/a	-1	1	1.0	1.0	upper	../fonts/Verdana.ttf
346926	WORD	wordpools/wasnorm_wordpool.txt	LTP137	ltpFR	4	3	-1	STREAM	1392	n/a	-1	1	1.0	1.0	upper	../fonts/Verdana.ttf
351022	WORD	wordpools/wasnorm_wordpool.txt	LTP137	ltpFR	4	3	-1	STY	1397	n/a	-1	1	1.0	1.0	upper	../fonts/Verdana.ttf
355192	WORD	wordpools/wasnorm_wordpool.txt	LTP137	ltpFR	4	3	-1	AIRPLANE	12	n/a	-1	1	1.0	1.0	upper	../fonts/Verdana.ttf
359029	WORD	wordpools/wasnorm_wordpool.txt	LTP137	ltpFR	4	3	-1	BUILDING	191	n/a	-1	1	1.0	1.0	upper	../fonts/Verdana.ttf
362874	WORD	wordpools/wasnorm_wordpool.txt	LTP137	ltpFR	4	3	-1	TURKEY	1520	n/a	-1	1	1.0	1.0	upper	../fonts/Verdana.ttf
366995	WORD	wordpools/wasnorm_wordpool.txt	LTP137	ltpFR	4	3	-1	FLY	586	n/a	-1	1	1.0	1.0	upper	../fonts/Verdana.ttf
371115	WORD	wordpools/wasnorm_wordpool.txt	LTP137	ltpFR	4	3	-1	ARENA	37	n/a	-1	1	1.0	1.0	upper	../fonts/Verdana.ttf
375185	WORD	wordpools/wasnorm_wordpool.txt	LTP137	ltpFR	4	3	-1	DICE	461	n/a	-1	1	1.0	1.0	upper	../fonts/Verdana.ttf
379172	WORD	wordpools/wasnorm_wordpool.txt	LTP137	ltpFR	4	3	-1	SUPPER	1411	n/a	-1	1	1.0	1.0	upper	../fonts/Verdana.ttf
383234	WORD	wordpools/wasnorm_wordpool.txt	LTP137	ltpFR	4	3	-1	BEET	115	n/a	-1	1	1.0	1.0	upper	../fonts/Verdana.ttf
387213	WORD	wordpools/wasnorm_wordpool.txt	LTP137	ltpFR	4	3	-1	WAGON	1578	n/a	-1	1	1.0	1.0	upper	../fonts/Verdana.ttf
391333	WORD	wordpools/wasnorm_wordpool.txt	LTP137	ltpFR	4	3	-1	NEST	945	n/a	-1	1	1.0	1.0	upper	../fonts/Verdana.ttf
395536	WORD	wordpools/wasnorm_wordpool.txt	LTP137	ltpFR	4	3	-1	CROW	414	n/a	-1	1	1.0	1.0	upper	../fonts/Verdana.ttf
399581	WORD	wordpools/wasnorm_wordpool.txt	LTP137	ltpFR	4	3	-1	ENGINEER	536	n/a	-1	1	1.0	1.0	upper	../fonts/Verdana.ttf
403760	WORD	wordpools/wasnorm_wordpool.txt	LTP137	ltpFR	4	3	-1	CRUTCH	417	n/a	-1	1	1.0	1.0	upper	../fonts/Verdana.ttf
409795	REC_START	n/a	LTP137	ltpFR	4	3	n/a	n/a	n/a	n/a	n/a	n/a	n/a	n/a	n/a	n/a
411411	REC_WORD	wordpools/wasnorm_wordpool.txt	LTP137	ltpFR	4	3	-1	CRUTCH	417	n/a	-1	n/a	n/a	n/a	n/a	n/a
412074	REC_WORD	wordpools/wasnorm_wordpool.txt	LTP137	ltpFR	4	3	-1	ENGINEER	536	n/a	-1	n/a	n/a	n/a	n/a	n/a
413201	REC_WORD	wordpools/wasnorm_wordpool.txt	LTP137	ltpFR	4	3	-1	STREAM	1392	n/a	-1	n/a	n/a	n/a	n/a	n/a
414274	REC_WORD	wordpools/wasnorm_wordpool.txt	LTP137	ltpFR	4	3	-1	STY	1397	n/a	-1	n/a	n/a	n/a	n/a	n/a
415346	REC_WORD	wordpools/wasnorm_wordpool.txt	LTP137	ltpFR	4	3	-1	RASPBERRY	1168	n/a	-1	n/a	n/a	n/a	n/a	n/a
416584	REC_WORD	wordpools/wasnorm_wordpool.txt	LTP137	ltpFR	4	3	-1	DICE	461	n/a	-1	n/a	n/a	n/a	n/a	n/a
418130	REC_WORD	wordpools/wasnorm_wordpool.txt	LTP137	ltpFR	4	3	-1	TURKEY	1520	n/a	-1	n/a	n/a	n/a	n/a	n/a
419282	REC_WORD	wordpools/wasnorm_wordpool.txt	LTP137	ltpFR	4	3	-1	SUPPER	1411	n/a	-1	n/a	n/a	n/a	n/a	n/a
421229	REC_WORD	wordpools/wasnorm_wordpool.txt	LTP137	ltpFR	4	3	-1	NEST	945	n/a	-1	n/a	n/a	n/a	n/a	n/a
423733	REC_WORD	wordpools/wasnorm_wordpool.txt	LTP137	ltpFR	4	3	-1	CROW	414	n/a	-1	n/a	n/a	n/a	n/a	n/a
426481	REC_WORD	wordpools/wasnorm_wordpool.txt	LTP137	ltpFR	4	3	-1	AIRPLANE	12	n/a	-1	n/a	n/a	n/a	n/a	n/a
427531	REC_WORD	wordpools/wasnorm_wordpool.txt	LTP137	ltpFR	4	3	-1	BUILDING	191	n/a	-1	n/a	n/a	n/a	n/a	n/a
437721	REC_WORD	wordpools/wasnorm_wordpool.txt	LTP137	ltpFR	4	3	-1	ARENA	37	n/a	-1	n/a	n/a	n/a	n/a	n/a
442909	REC_WORD	wordpools/wasnorm_wordpool.txt	LTP137	ltpFR	4	3	-1	FLY	586	n/a	-1	n/a	n/a	n/a	n/a	n/a
447681	REC_WORD	wordpools/wasnorm_wordpool.txt	LTP137	ltpFR	4	3	-1	BEET	115	n/a	-1	n/a	n/a	n/a	n/a	n/a
463044	REC_WORD	wordpools/wasnorm_wordpool.txt	LTP137	ltpFR	4	3	-1	WAGON	1578	n/a	-1	n/a	n/a	n/a	n/a	n/a
488678	WORD	wordpools/wasnorm_wordpool.txt	LTP137	ltpFR	4	4	-1	SKETCH	1315	n/a	-1	1	1.0	1.0	upper	../fonts/Verdana.ttf
492881	WORD	wordpools/wasnorm_wordpool.txt	LTP137	ltpFR	4	4	-1	STAPLE	1371	n/a	-1	1	1.0	1.0	upper	../fonts/Verdana.ttf
496802	WORD	wordpools/wasnorm_wordpool.txt	LTP137	ltpFR	4	4	-1	GAZELLE	628	n/a	-1	1	1.0	1.0	upper	../fonts/Verdana.ttf
500772	WORD	wordpools/wasnorm_wordpool.txt	LTP137	ltpFR	4	4	-1	TRUMPET	1513	n/a	-1	1	1.0	1.0	upper	../fonts/Verdana.ttf
504784	WORD	wordpools/wasnorm_wordpool.txt	LTP137	ltpFR	4	4	-1	YARD	1630	n/a	-1	1	1.0	1.0	upper	../fonts/Verdana.ttf
508788	WORD	wordpools/wasnorm_wordpool.txt	LTP137	ltpFR	4	4	-1	CAGE	218	n/a	-1	1	1.0	1.0	upper	../fonts/Verdana.ttf
512742	WORD	wordpools/wasnorm_wordpool.txt	LTP137	ltpFR	4	4	-1	AFRICA	9	n/a	-1	1	1.0	1.0	upper	../fonts/Verdana.ttf
516596	WORD	wordpools/wasnorm_wordpool.txt	LTP137	ltpFR	4	4	-1	MOVIE	927	n/a	-1	1	1.0	1.0	upper	../fonts/Verdana.ttf
520541	WORD	wordpools/wasnorm_wordpool.txt	LTP137	ltpFR	4	4	-1	COCOON	339	n/a	-1	1	1.0	1.0	upper	../fonts/Verdana.ttf
524736	WORD	wordpools/wasnorm_wordpool.txt	LTP137	ltpFR	4	4	-1	CLIMBER	323	n/a	-1	1	1.0	1.0	upper	../fonts/Verdana.ttf
528657	WORD	wordpools/wasnorm_wordpool.txt	LTP137	ltpFR	4	4	-1	FLUTE	585	n/a	-1	1	1.0	1.0	upper	../fonts/Verdana.ttf
532827	WORD	wordpools/wasnorm_wordpool.txt	LTP137	ltpFR	4	4	-1	PARTNER	1017	n/a	-1	1	1.0	1.0	upper	../fonts/Verdana.ttf
537040	WORD	wordpools/wasnorm_wordpool.txt	LTP137	ltpFR	4	4	-1	MAGICIAN	854	n/a	-1	1	1.0	1.0	upper	../fonts/Verdana.ttf
541185	WORD	wordpools/wasnorm_wordpool.txt	LTP137	ltpFR	4	4	-1	UNIVERSE	1540	n/a	-1	1	1.0	1.0	upper	../fonts/Verdana.ttf
545022	WORD	wordpools/wasnorm_wordpool.txt	LTP137	ltpFR	4	4	-1	PAGE	1001	n/a	-1	1	1.0	1.0	upper	../fonts/Verdana.ttf
548842	WORD	wordpools/wasnorm_wordpool.txt	LTP137	ltpFR	4	4	-1	LIBRARY	816	n/a	-1	1	1.0	1.0	upper	../fonts/Verdana.ttf
554610	REC_START	n/a	LTP137	ltpFR	4	4	n/a	n/a	n/a	n/a	n/a	n/a	n/a	n/a	n/a	n/a
556061	REC_WORD	wordpools/wasnorm_wordpool.txt	LTP137	ltpFR	4	4	-1	LIBRARY	816	n/a	-1	n/a	n/a	n/a	n/a	n/a
557398	REC_WORD	wordpools/wasnorm_wordpool.txt	LTP137	ltpFR	4	4	-1	SKETCH	1315	n/a	-1	n/a	n/a	n/a	n/a	n/a
558400	REC_WORD	wordpools/wasnorm_wordpool.txt	LTP137	ltpFR	4	4	-1	STAPLE	1371	n/a	-1	n/a	n/a	n/a	n/a	n/a
560751	REC_WORD	wordpools/wasnorm_wordpool.txt	LTP137	ltpFR	4	4	-1	YARD	1630	n/a	-1	n/a	n/a	n/a	n/a	n/a
561748	REC_WORD	wordpools/wasnorm_wordpool.txt	LTP137	ltpFR	4	4	-1	CAGE	218	n/a	-1	n/a	n/a	n/a	n/a	n/a
563704	REC_WORD	wordpools/wasnorm_wordpool.txt	LTP137	ltpFR	4	4	-1	GAZELLE	628	n/a	-1	n/a	n/a	n/a	n/a	n/a
565230	REC_WORD	wordpools/wasnorm_wordpool.txt	LTP137	ltpFR	4	4	-1	TRUMPET	1513	n/a	-1	n/a	n/a	n/a	n/a	n/a
566263	REC_WORD	wordpools/wasnorm_wordpool.txt	LTP137	ltpFR	4	4	-1	CLIMBER	323	n/a	-1	n/a	n/a	n/a	n/a	n/a
566956	REC_WORD	wordpools/wasnorm_wordpool.txt	LTP137	ltpFR	4	4	-1	FLUTE	585	n/a	-1	n/a	n/a	n/a	n/a	n/a
568388	REC_WORD	wordpools/wasnorm_wordpool.txt	LTP137	ltpFR	4	4	-1	MOVIE	927	n/a	-1	n/a	n/a	n/a	n/a	n/a
569376	REC_WORD	wordpools/wasnorm_wordpool.txt	LTP137	ltpFR	4	4	-1	AFRICA	9	n/a	-1	n/a	n/a	n/a	n/a	n/a
571730	REC_WORD	wordpools/wasnorm_wordpool.txt	LTP137	ltpFR	4	4	-1	COCOON	339	n/a	-1	n/a	n/a	n/a	n/a	n/a
573735	REC_WORD	wordpools/wasnorm_wordpool.txt	LTP137	ltpFR	4	4	-1	UNIVERSE	1540	n/a	-1	n/a	n/a	n/a	n/a	n/a
577707	REC_WORD	wordpools/wasnorm_wordpool.txt	LTP137	ltpFR	4	4	-1	MAGICIAN	854	n/a	-1	n/a	n/a	n/a	n/a	n/a
586288	REC_WORD	wordpools/wasnorm_wordpool.txt	LTP137	ltpFR	4	4	-1	LIBRARY	816	n/a	-1	n/a	n/a	n/a	n/a	n/a
596203	REC_WORD	wordpools/wasnorm_wordpool.txt	LTP137	ltpFR	4	4	-1	PARTNER	1017	n/a	-1	n/a	n/a	n/a	n/a	n/a
632987	WORD	wordpools/wasnorm_wordpool.txt	LTP137	ltpFR	4	5	1	GROCERY	664	n/a	0	0	0.5869140625	0.422607421875	lower	../fonts/zerothre.ttf
637049	WORD	wordpools/wasnorm_wordpool.txt	LTP137	ltpFR	4	5	1	CANDIDATE	228	n/a	1	0	0.5869140625	0.422607421875	lower	../fonts/zerothre.ttf
640868	WORD	wordpools/wasnorm_wordpool.txt	LTP137	ltpFR	4	5	1	TEAM	1441	n/a	1	0	0.5869140625	0.422607421875	lower	../fonts/zerothre.ttf
645039	WORD	wordpools/wasnorm_wordpool.txt	LTP137	ltpFR	4	5	1	SILVERWARE	1308	n/a	0	0	0.5869140625	0.422607421875	lower	../fonts/zerothre.ttf
649035	WORD	wordpools/wasnorm_wordpool.txt	LTP137	ltpFR	4	5	1	CHIP	303	n/a	0	0	0.5869140625	0.422607421875	lower	../fonts/zerothre.ttf
652879	WORD	wordpools/wasnorm_wordpool.txt	LTP137	ltpFR	4	5	1	ROBBER	1197	n/a	1	0	0.5869140625	0.422607421875	lower	../fonts/zerothre.ttf
656808	WORD	wordpools/wasnorm_wordpool.txt	LTP137	ltpFR	4	5	1	MOSS	918	n/a	1	0	0.5869140625	0.422607421875	lower	../fonts/zerothre.ttf
660787	WORD	wordpools/wasnorm_wordpool.txt	LTP137	ltpFR	4	5	1	KNAPSACK	783	n/a	0	0	0.5869140625	0.422607421875	lower	../fonts/zerothre.ttf
664815	WORD	wordpools/wasnorm_wordpool.txt	LTP137	ltpFR	4	5	1	LUNCH	849	n/a	0	0	0.5869140625	0.422607421875	lower	../fonts/zerothre.ttf
668769	WORD	wordpools/wasnorm_wordpool.txt	LTP137	ltpFR	4	5	1	SENATOR	1268	n/a	1	0	0.5869140625	0.422607421875	lower	../fonts/zerothre.ttf
672698	WORD	wordpools/wasnorm_wordpool.txt	LTP137	ltpFR	4	5	1	CITY	314	n/a	0	0	0.5869140625	0.422607421875	lower	../fonts/zerothre.ttf
676852	WORD	wordpools/wasnorm_wordpool.txt	LTP137	ltpFR	4	5	1	VILLAGE	1566	n/a	0	0	0.5869140625	0.422607421875	lower	../fonts/zerothre.ttf
680998	WORD	wordpools/wasnorm_wordpool.txt	LTP137	ltpFR	4	5	1	KIDNEY	776	n/a	1	0	0.5869140625	0.422607421875	lower	../fonts/zerothre.ttf
685160	WORD	wordpools/wasnorm_wordpool.txt	LTP137	ltpFR	4	5	1	PLUMBER	1091	n/a	1	0	0.5869140625	0.422607421875	lower	../fonts/zerothre.ttf
689172	WORD	wordpools/wasnorm_wordpool.txt	LTP137	ltpFR	4	5	1	ACORN	3	n/a	0	0	0.5869140625	0.422607421875	lower	../fonts/zerothre.ttf
693259	WORD	wordpools/wasnorm_wordpool.txt	LTP137	ltpFR	4	5	1	FOOTBALL	591	n/a	0	0	0.5869140625	0.422607421875	lower	../fonts/zerothre.ttf
699211	REC_START	n/a	LTP137	ltpFR	4	5	n/a	n/a	n/a	n/a	n/a	n/a	n/a	n/a	n/a	n/a
701560	REC_WORD	wordpools/wasnorm_wordpool.txt	LTP137	ltpFR	4	5	1	ROBBER	1197	n/a	1	n/a	n/a	n/a	n/a	n/a
702334	REC_WORD	wordpools/wasnorm_wordpool.txt	LTP137	ltpFR	4	5	1	KNAPSACK	783	n/a	0	n/a	n/a	n/a	n/a	n/a
703651	REC_WORD	wordpools/wasnorm_wordpool.txt	LTP137	ltpFR	4	5	1	LUNCH	849	n/a	0	n/a	n/a	n/a	n/a	n/a
704757	REC_WORD	wordpools/wasnorm_wordpool.txt	LTP137	ltpFR	4	5	1	ACORN	3	n/a	0	n/a	n/a	n/a	n/a	n/a
705640	REC_WORD	wordpools/wasnorm_wordpool.txt	LTP137	ltpFR	4	5	1	FOOTBALL	591	n/a	0	n/a	n/a	n/a	n/a	n/a
708011	REC_WORD	wordpools/wasnorm_wordpool.txt	LTP137	ltpFR	4	5	1	GROCERY	664	n/a	0	n/a	n/a	n/a	n/a	n/a
710519	REC_WORD	wordpools/wasnorm_wordpool.txt	LTP137	ltpFR	4	5	1	CANDIDATE	228	n/a	1	n/a	n/a	n/a	n/a	n/a
711777	REC_WORD	wordpools/wasnorm_wordpool.txt	LTP137	ltpFR	4	5	1	TEAM	1441	n/a	1	n/a	n/a	n/a	n/a	n/a
712749	REC_WORD	wordpools/wasnorm_wordpool.txt	LTP137	ltpFR	4	5	1	CITY	314	n/a	0	n/a	n/a	n/a	n/a	n/a
713658	REC_WORD	wordpools/wasnorm_wordpool.txt	LTP137	ltpFR	4	5	1	VILLAGE	1566	n/a	0	n/a	n/a	n/a	n/a	n/a
719385	REC_WORD	wordpools/wasnorm_wordpool.txt	LTP137	ltpFR	4	5	1	MOSS	918	n/a	1	n/a	n/a	n/a	n/a	n/a
746428	REC_WORD	wordpools/wasnorm_wordpool.txt	LTP137	ltpFR	4	5	1	ACORN	3	n/a	0	n/a	n/a	n/a	n/a	n/a
754629	REC_WORD	wordpools/wasnorm_wordpool.txt	LTP137	ltpFR	4	5	1	SILVERWARE	1308	n/a	0	n/a	n/a	n/a	n/a	n/a
763424	REC_WORD	wordpools/wasnorm_wordpool.txt	LTP137	ltpFR	4	5	1	KIDNEY	776	n/a	1	n/a	n/a	n/a	n/a	n/a
772110	REC_WORD	wordpools/wasnorm_wordpool.txt	LTP137	ltpFR	4	5	1	SENATOR	1268	n/a	1	n/a	n/a	n/a	n/a	n/a
788057	WORD	wordpools/wasnorm_wordpool.txt	LTP137	ltpFR	4	6	0	POPCORN	1104	n/a	0	1	0.412841796875	0.57763671875	upper	../fonts/amplitud.ttf
791919	WORD	wordpools/wasnorm_wordpool.txt	LTP137	ltpFR	4	6	0	MOSQUITO	917	n/a	0	1	0.412841796875	0.57763671875	upper	../fonts/amplitud.ttf
795965	WORD	wordpools/wasnorm_wordpool.txt	LTP137	ltpFR	4	6	0	BEER	114	n/a	0	1	0.412841796875	0.57763671875	upper	../fonts/amplitud.ttf
799851	WORD	wordpools/wasnorm_wordpool.txt	LTP137	ltpFR	4	6	0	SHOP	1290	n/a	1	1	0.412841796875	0.57763671875	upper	../fonts/amplitud.ttf
804022	WORD	wordpools/wasnorm_wordpool.txt	LTP137	ltpFR	4	6	0	BOWL	158	n/a	0	1	0.412841796875	0.57763671875	upper	../fonts/amplitud.ttf
808017	WORD	wordpools/wasnorm_wordpool.txt	LTP137	ltpFR	4	6	1	ITEM	746	n/a	0	0	0.5869140625	0.422607421875	lower	../fonts/zerothre.ttf
811946	WORD	wordpools/wasnorm_wordpool.txt	LTP137	ltpFR	4	6	1	BUYER	208	n/a	1	0	0.5869140625	0.422607421875	lower	../fonts/zerothre.ttf
815874	WORD	wordpools/wasnorm_wordpool.txt	LTP137	ltpFR	4	6	1	ROACH	1195	n/a	1	0	0.5869140625	0.422607421875	lower	../fonts/zerothre.ttf
819744	WORD	wordpools/wasnorm_wordpool.txt	LTP137	ltpFR	4	6	1	MOLECULE	905	n/a	0	0	0.5869140625	0.422607421875	lower	../fonts/zerothre.ttf
823706	WORD	wordpools/wasnorm_wordpool.txt	LTP137	ltpFR	4	6	1	MISTER	901	n/a	1	0	0.5869140625	0.422607421875	lower	../fonts/zerothre.ttf
827868	WORD	wordpools/wasnorm_wordpool.txt	LTP137	ltpFR	4	6	0	MAN	862	n/a	1	1	0.412841796875	0.57763671875	upper	../fonts/amplitud.ttf
832056	WORD	wordpools/wasnorm_wordpool.txt	LTP137	ltpFR	4	6	0	MUFFIN	929	n/a	0	1	0.412841796875	0.57763671875	upper	../fonts/amplitud.ttf
835960	WORD	wordpools/wasnorm_wordpool.txt	LTP137	ltpFR	4	6	0	BIOLOGIST	128	n/a	1	1	0.412841796875	0.57763671875	upper	../fonts/amplitud.ttf
839947	WORD	wordpools/wasnorm_wordpool.txt	LTP137	ltpFR	4	6	1	PEOPLE	1046	n/a	1	0	0.5869140625	0.422607421875	lower	../fonts/zerothre.ttf
844100	WORD	wordpools/wasnorm_wordpool.txt	LTP137	ltpFR	4	6	1	FAMILY	550	n/a	1	0	0.5869140625	0.422607421875	lower	../fonts/zerothre.ttf
847979	WORD	wordpools/wasnorm_wordpool.txt	LTP137	ltpFR	4	6	1	PARENT	1013	n/a	1	0	0.5869140625	0.422607421875	lower	../fonts/zerothre.ttf
853780	REC_START	n/a	LTP137	ltpFR	4	6	n/a	n/a	n/a	n/a	n/a	n/a	n/a	n/a	n/a	n/a
855750	REC_WORD	wordpools/wasnorm_wordpool.txt	LTP137	ltpFR	4	6	1	PEOPLE	1046	n/a	1	n/a	n/a	n/a	n/a	n/a
856513	REC_WORD	wordpools/wasnorm_wordpool.txt	LTP137	ltpFR	4	6	1	FAMILY	550	n/a	1	n/a	n/a	n/a	n/a	n/a
857551	REC_WORD	wordpools/wasnorm_wordpool.txt	LTP137	ltpFR	4	6	1	PARENT	1013	n/a	1	n/a	n/a	n/a	n/a	n/a
858503	REC_WORD	wordpools/wasnorm_wordpool.txt	LTP137	ltpFR	4	6	1	MISTER	901	n/a	1	n/a	n/a	n/a	n/a	n/a
859566	REC_WORD	wordpools/wasnorm_wordpool.txt	LTP137	ltpFR	4	6	0	POPCORN	1104	n/a	0	n/a	n/a	n/a	n/a	n/a
860694	REC_WORD	wordpools/wasnorm_wordpool.txt	LTP137	ltpFR	4	6	0	BEER	114	n/a	0	n/a	n/a	n/a	n/a	n/a
861532	REC_WORD	wordpools/wasnorm_wordpool.txt	LTP137	ltpFR	4	6	0	BOWL	158	n/a	0	n/a	n/a	n/a	n/a	n/a
862684	REC_WORD	wordpools/wasnorm_wordpool.txt	LTP137	ltpFR	4	6	0	MOSQUITO	917	n/a	0	n/a	n/a	n/a	n/a	n/a
865598	REC_WORD	wordpools/wasnorm_wordpool.txt	LTP137	ltpFR	4	6	1	MOLECULE	905	n/a	0	n/a	n/a	n/a	n/a	n/a
876538	REC_WORD	wordpools/wasnorm_wordpool.txt	LTP137	ltpFR	4	6	1	ITEM	746	n/a	0	n/a	n/a	n/a	n/a	n/a
878798	REC_WORD	wordpools/wasnorm_wordpool.txt	LTP137	ltpFR	4	6	1	BUYER	208	n/a	1	n/a	n/a	n/a	n/a	n/a
879626	REC_WORD	wordpools/wasnorm_wordpool.txt	LTP137	ltpFR	4	6	0	BIOLOGIST	128	n/a	1	n/a	n/a	n/a	n/a	n/a
886455	REC_WORD	wordpools/wasnorm_wordpool.txt	LTP137	ltpFR	4	6	1	ROACH	1195	n/a	1	n/a	n/a	n/a	n/a	n/a
959034	WORD	wordpools/wasnorm_wordpool.txt	LTP137	ltpFR	4	7	1	PRODUCER	1129	n/a	1	0	0.5869140625	0.422607421875	lower	../fonts/zerothre.ttf
962913	WORD	wordpools/wasnorm_wordpool.txt	LTP137	ltpFR	4	7	1	DICTATOR	462	n/a	1	0	0.5869140625	0.422607421875	lower	../fonts/zerothre.ttf
966766	WORD	wordpools/wasnorm_wordpool.txt	LTP137	ltpFR	4	7	1	TOY	1492	n/a	0	0	0.5869140625	0.422607421875	lower	../fonts/zerothre.ttf
970620	WORD	wordpools/wasnorm_wordpool.txt	LTP137	ltpFR	4	7	1	PENGUIN	1044	n/a	1	0	0.5869140625	0.422607421875	lower	../fonts/zerothre.ttf
974449	WORD	wordpools/wasnorm_wordpool.txt	LTP137	ltpFR	4	7	1	PERCH	1048	n/a	0	0	0.5869140625	0.422607421875	lower	../fonts/zerothre.ttf
978328	WORD	wordpools/wasnorm_wordpool.txt	LTP137	ltpFR	4	7	1	SURF	1412	n/a	0	0	0.5869140625	0.422607421875	lower	../fonts/zerothre.ttf
982415	WORD	wordpools/wasnorm_wordpool.txt	LTP137	ltpFR	4	7	0	HOOD	714	n/a	0	1	0.412841796875	0.57763671875	upper	../fonts/amplitud.ttf
986461	WORD	wordpools/wasnorm_wordpool.txt	LTP137	ltpFR	4	7	0	PAN	1008	n/a	0	1	0.412841796875	0.57763671875	upper	../fonts/amplitud.ttf
990289	WORD	wordpools/wasnorm_wordpool.txt	LTP137	ltpFR	4	7	0	HOOK	715	n/a	0	1	0.412841796875	0.57763671875	upper	../fonts/amplitud.ttf
994385	WORD	wordpools/wasnorm_wordpool.txt	LTP137	ltpFR	4	7	0	CAP	236	n/a	0	1	0.412841796875	0.57763671875	upper	../fonts/amplitud.ttf
998372	WORD	wordpools/wasnorm_wordpool.txt	LTP137	ltpFR	4	7	1	CAFE	216	n/a	0	0	0.5869140625	0.422607421875	lower	../fonts/zerothre.ttf
1002533	WORD	wordpools/wasnorm_wordpool.txt	LTP137	ltpFR	4	7	1	CACTUS	215	n/a	1	0	0.5869140625	0.422607421875	lower	../fonts/zerothre.ttf
1006545	WORD	wordpools/wasnorm_wordpool.txt	LTP137	ltpFR	4	7	0	SEAL	1262	n/a	1	1	0.412841796875	0.57763671875	upper	../fonts/amplitud.ttf
1010623	WORD	wordpools/wasnorm_wordpool.txt	LTP137	ltpFR	4	7	0	ELM	527	n/a	1	1	0.412841796875	0.57763671875	upper	../fonts/amplitud.ttf
1014827	WORD	wordpools/wasnorm_wordpool.txt	LTP137	ltpFR	4	7	0	PLUM	1090	n/a	0	1	0.412841796875	0.57763671875	upper	../fonts/amplitud.ttf
1018722	WORD	wordpools/wasnorm_wordpool.txt	LTP137	ltpFR	4	7	0	WHALE	1601	n/a	1	1	0.412841796875	0.57763671875	upper	../fonts/amplitud.ttf
1024782	REC_START	n/a	LTP137	ltpFR	4	7	n/a	n/a	n/a	n/a	n/a	n/a	n/a	n/a	n/a	n/a
1027895	REC_WORD	wordpools/wasnorm_wordpool.txt	LTP137	ltpFR	4	7	0	ELM	527	n/a	1	n/a	n/a	n/a	n/a	n/a
1028753	REC_WORD	wordpools/wasnorm_wordpool.txt	LTP137	ltpFR	4	7	0	PLUM	1090	n/a	0	n/a	n/a	n/a	n/a	n/a
1029755	REC_WORD	wordpools/wasnorm_wordpool.txt	LTP137	ltpFR	4	7	0	WHALE	1601	n/a	1	n/a	n/a	n/a	n/a	n/a
1030748	REC_WORD	wordpools/wasnorm_wordpool.txt	LTP137	ltpFR	4	7	0	SEAL	1262	n/a	1	n/a	n/a	n/a	n/a	n/a
1032144	REC_WORD	wordpools/wasnorm_wordpool.txt	LTP137	ltpFR	4	7	1	PRODUCER	1129	n/a	1	n/a	n/a	n/a	n/a	n/a
1033456	REC_WORD	wordpools/wasnorm_wordpool.txt	LTP137	ltpFR	4	7	1	DICTATOR	462	n/a	1	n/a	n/a	n/a	n/a	n/a
1034813	REC_WORD	wordpools/wasnorm_wordpool.txt	LTP137	ltpFR	4	7	0	HOOK	715	n/a	0	n/a	n/a	n/a	n/a	n/a
1035911	REC_WORD	wordpools/wasnorm_wordpool.txt	LTP137	ltpFR	4	7	0	HOOD	714	n/a	0	n/a	n/a	n/a	n/a	n/a
1036949	REC_WORD	wordpools/wasnorm_wordpool.txt	LTP137	ltpFR	4	7	0	CAP	236	n/a	0	n/a	n/a	n/a	n/a	n/a
1038401	REC_WORD	wordpools/wasnorm_wordpool.txt	LTP137	ltpFR	4	7	1	TOY	1492	n/a	0	n/a	n/a	n/a	n/a	n/a
1039378	REC_WORD	wordpools/wasnorm_wordpool.txt	LTP137	ltpFR	4	7	1	PENGUIN	1044	n/a	1	n/a	n/a	n/a	n/a	n/a
1043453	REC_WORD	wordpools/wasnorm_wordpool.txt	LTP137	ltpFR	4	7	1	CACTUS	215	n/a	1	n/a	n/a	n/a	n/a	n/a
1061114	REC_WORD	wordpools/wasnorm_wordpool.txt	LTP137	ltpFR	4	7	1	PERCH	1048	n/a	0	n/a	n/a	n/a	n/a	n/a
1067863	REC_WORD	wordpools/wasnorm_wordpool.txt	LTP137	ltpFR	4	7	1	CAFE	216	n/a	0	n/a	n/a	n/a	n/a	n/a
1121146	WORD	wordpools/wasnorm_wordpool.txt	LTP137	ltpFR	4	8	-1	SANDPAPER	1231	n/a	-1	1	1.0	1.0	upper	../fonts/Verdana.ttf
1125283	WORD	wordpools/wasnorm_wordpool.txt	LTP137	ltpFR	4	8	-1	BALLERINA	74	n/a	-1	1	1.0	1.0	upper	../fonts/Verdana.ttf
1129262	WORD	wordpools/wasnorm_wordpool.txt	LTP137	ltpFR	4	8	-1	PHILOSOPHER	1054	n/a	-1	1	1.0	1.0	upper	../fonts/Verdana.ttf
1133224	WORD	wordpools/wasnorm_wordpool.txt	LTP137	ltpFR	4	8	-1	BERRY	122	n/a	-1	1	1.0	1.0	upper	../fonts/Verdana.ttf
1137119	WORD	wordpools/wasnorm_wordpool.txt	LTP137	ltpFR	4	8	-1	BRAN	167	n/a	-1	1	1.0	1.0	upper	../fonts/Verdana.ttf
1141115	WORD	wordpools/wasnorm_wordpool.txt	LTP137	ltpFR	4	8	-1	BEGGAR	117	n/a	-1	1	1.0	1.0	upper	../fonts/Verdana.ttf
1145143	WORD	wordpools/wasnorm_wordpool.txt	LTP137	ltpFR	4	8	-1	RAG	1160	n/a	-1	1	1.0	1.0	upper	../fonts/Verdana.ttf
1149255	WORD	wordpools/wasnorm_wordpool.txt	LTP137	ltpFR	4	8	-1	BAY	102	n/a	-1	1	1.0	1.0	upper	../fonts/Verdana.ttf
1153151	WORD	wordpools/wasnorm_wordpool.txt	LTP137	ltpFR	4	8	-1	CUB	419	n/a	-1	1	1.0	1.0	upper	../fonts/Verdana.ttf
1157038	WORD	wordpools/wasnorm_wordpool.txt	LTP137	ltpFR	4	8	-1	FLOUR	583	n/a	-1	1	1.0	1.0	upper	../fonts/Verdana.ttf
1161208	WORD	wordpools/wasnorm_wordpool.txt	LTP137	ltpFR	4	8	-1	AUTOMOBILE	62	n/a	-1	1	1.0	1.0	upper	../fonts/Verdana.ttf
1165295	WORD	wordpools/wasnorm_wordpool.txt	LTP137	ltpFR	4	8	-1	CONSOLE	364	n/a	-1	1	1.0	1.0	upper	../fonts/Verdana.ttf
1169490	WORD	wordpools/wasnorm_wordpool.txt	LTP137	ltpFR	4	8	-1	SHIP	1286	n/a	-1	1	1.0	1.0	upper	../fonts/Verdana.ttf
1173494	WORD	wordpools/wasnorm_wordpool.txt	LTP137	ltpFR	4	8	-1	PORT	1110	n/a	-1	1	1.0	1.0	upper	../fonts/Verdana.ttf
1177423	WORD	wordpools/wasnorm_wordpool.txt	LTP137	ltpFR	4	8	-1	BISCUIT	130	n/a	-1	1	1.0	1.0	upper	../fonts/Verdana.ttf
1181343	WORD	wordpools/wasnorm_wordpool.txt	LTP137	ltpFR	4	8	-1	CANAL	226	n/a	-1	1	1.0	1.0	upper	../fonts/Verdana.ttf
1187403	REC_START	n/a	LTP137	ltpFR	4	8	n/a	n/a	n/a	n/a	n/a	n/a	n/a	n/a	n/a	n/a
1188830	REC_WORD	wordpools/wasnorm_wordpool.txt	LTP137	ltpFR	4	8	-1	SHIP	1286	n/a	-1	n/a	n/a	n/a	n/a	n/a
1189647	REC_WORD	wordpools/wasnorm_wordpool.txt	LTP137	ltpFR	4	8	-1	PORT	1110	n/a	-1	n/a	n/a	n/a	n/a	n/a
1190486	REC_WORD	wordpools/wasnorm_wordpool.txt	LTP137	ltpFR	4	8	-1	BAY	102	n/a	-1	n/a	n/a	n/a	n/a	n/a
1191109	REC_WORD	wordpools/wasnorm_wordpool.txt	LTP137	ltpFR	4	8	-1	CANAL	226	n/a	-1	n/a	n/a	n/a	n/a	n/a
1192039	REC_WORD	wordpools/wasnorm_wordpool.txt	LTP137	ltpFR	4	8	-1	AUTOMOBILE	62	n/a	-1	n/a	n/a	n/a	n/a	n/a
1193243	REC_WORD	wordpools/wasnorm_wordpool.txt	LTP137	ltpFR	4	8	-1	CONSOLE	364	n/a	-1	n/a	n/a	n/a	n/a	n/a
1194656	REC_WORD	wordpools/wasnorm_wordpool.txt	LTP137	ltpFR	4	8	-1	CUB	419	n/a	-1	n/a	n/a	n/a	n/a	n/a
1196246	REC_WORD	wordpools/wasnorm_wordpool.txt	LTP137	ltpFR	4	8	-1	SANDPAPER	1231	n/a	-1	n/a	n/a	n/a	n/a	n/a
1197495	REC_WORD	wordpools/wasnorm_wordpool.txt	LTP137	ltpFR	4	8	-1	BALLERINA	74	n/a	-1	n/a	n/a	n/a	n/a	n/a
1198376	REC_WORD	wordpools/wasnorm_wordpool.txt	LTP137	ltpFR	4	8	-1	PHILOSOPHER	1054	n/a	-1	n/a	n/a	n/a	n/a	n/a
1199964	REC_WORD	wordpools/wasnorm_wordpool.txt	LTP137	ltpFR	4	8	-1	BEGGAR	117	n/a	-1	n/a	n/a	n/a	n/a	n/a
1201286	REC_WORD	wordpools/wasnorm_wordpool.txt	LTP137	ltpFR	4	8	-1	BERRY	122	n/a	-1	n/a	n/a	n/a	n/a	n/a
1203531	REC_WORD	wordpools/wasnorm_wordpool.txt	LTP137	ltpFR	4	8	-1	FLOUR	583	n/a	-1	n/a	n/a	n/a	n/a	n/a
1206828	REC_WORD	wordpools/wasnorm_wordpool.txt	LTP137	ltpFR	4	8	-1	BRAN	167	n/a	-1	n/a	n/a	n/a	n/a	n/a
1211873	REC_WORD	wordpools/wasnorm_wordpool.txt	LTP137	ltpFR	4	8	-1	BISCUIT	130	n/a	-1	n/a	n/a	n/a	n/a	n/a
1240387	REC_WORD	wordpools/wasnorm_wordpool.txt	LTP137	ltpFR	4	8	-1	RAG	1160	n/a	-1	n/a	n/a	n/a	n/a	n/a
1294079	WORD	wordpools/wasnorm_wordpool.txt	LTP137	ltpFR	4	9	1	JELLY	755	n/a	0	0	0.5869140625	0.422607421875	lower	../fonts/zerothre.ttf
1297890	WORD	wordpools/wasnorm_wordpool.txt	LTP137	ltpFR	4	9	1	MOUTH	926	n/a	0	0	0.5869140625	0.422607421875	lower	../fonts/zerothre.ttf
1301719	WORD	wordpools/wasnorm_wordpool.txt	LTP137	ltpFR	4	9	1	SPIT	1354	n/a	0	0	0.5869140625	0.422607421875	lower	../fonts/zerothre.ttf
1305673	WORD	wordpools/wasnorm_wordpool.txt	LTP137	ltpFR	4	9	0	FOLLOWER	589	n/a	1	1	0.412841796875	0.57763671875	upper	../fonts/amplitud.ttf
1309801	WORD	wordpools/wasnorm_wordpool.txt	LTP137	ltpFR	4	9	0	WAVE	1596	n/a	1	1	0.412841796875	0.57763671875	upper	../fonts/amplitud.ttf
1313772	WORD	wordpools/wasnorm_wordpool.txt	LTP137	ltpFR	4	9	1	CROWN	415	n/a	0	0	0.5869140625	0.422607421875	lower	../fonts/zerothre.ttf
1317617	WORD	wordpools/wasnorm_wordpool.txt	LTP137	ltpFR	4	9	1	LOOP	844	n/a	0	0	0.5869140625	0.422607421875	lower	../fonts/zerothre.ttf
1321481	WORD	wordpools/wasnorm_wordpool.txt	LTP137	ltpFR	4	9	0	GROUND	666	n/a	1	1	0.412841796875	0.57763671875	upper	../fonts/amplitud.ttf
1325533	WORD	wordpools/wasnorm_wordpool.txt	LTP137	ltpFR	4	9	0	VEAL	1551	n/a	1	1	0.412841796875	0.57763671875	upper	../fonts/amplitud.ttf
1329355	WORD	wordpools/wasnorm_wordpool.txt	LTP137	ltpFR	4	9	0	HERD	705	n/a	1	1	0.412841796875	0.57763671875	upper	../fonts/amplitud.ttf
1333234	WORD	wordpools/wasnorm_wordpool.txt	LTP137	ltpFR	4	9	0	WRITER	1627	n/a	1	1	0.412841796875	0.57763671875	upper	../fonts/amplitud.ttf
1337279	WORD	wordpools/wasnorm_wordpool.txt	LTP137	ltpFR	4	9	0	JAR	750	n/a	0	1	0.412841796875	0.57763671875	upper	../fonts/amplitud.ttf
1341291	WORD	wordpools/wasnorm_wordpool.txt	LTP137	ltpFR	4	9	0	LAGOON	795	n/a	1	1	0.412841796875	0.57763671875	upper	../fonts/amplitud.ttf
1345370	WORD	wordpools/wasnorm_wordpool.txt	LTP137	ltpFR	4	9	1	TRICYCLE	1506	n/a	0	0	0.5869140625	0.422607421875	lower	../fonts/zerothre.ttf
1349440	WORD	wordpools/wasnorm_wordpool.txt	LTP137	ltpFR	4	9	1	ALLIGATOR	16	n/a	1	0	0.5869140625	0.422607421875	lower	../fonts/zerothre.ttf
1353485	WORD	wordpools/wasnorm_wordpool.txt	LTP137	ltpFR	4	9	1	BOSS	152	n/a	1	0	0.5869140625	0.422607421875	lower	../fonts/zerothre.ttf
1359354	REC_START	n/a	LTP137	ltpFR	4	9	n/a	n/a	n/a	n/a	n/a	n/a	n/a	n/a	n/a	n/a
1360636	REC_WORD	wordpools/wasnorm_wordpool.txt	LTP137	ltpFR	4	9	1	BOSS	152	n/a	1	n/a	n/a	n/a	n/a	n/a
1361569	REC_WORD	wordpools/wasnorm_wordpool.txt	LTP137	ltpFR	4	9	1	CROWN	415	n/a	0	n/a	n/a	n/a	n/a	n/a
1362352	REC_WORD	wordpools/wasnorm_wordpool.txt	LTP137	ltpFR	4	9	0	FOLLOWER	589	n/a	1	n/a	n/a	n/a	n/a	n/a
1364337	REC_WORD	wordpools/wasnorm_wordpool.txt	LTP137	ltpFR	4	9	0	LAGOON	795	n/a	1	n/a	n/a	n/a	n/a	n/a
1365535	REC_WORD	wordpools/wasnorm_wordpool.txt	LTP137	ltpFR	4	9	0	WAVE	1596	n/a	1	n/a	n/a	n/a	n/a	n/a
1367605	REC_WORD	wordpools/wasnorm_wordpool.txt	LTP137	ltpFR	4	9	0	JAR	750	n/a	0	n/a	n/a	n/a	n/a	n/a
1369216	REC_WORD	wordpools/wasnorm_wordpool.txt	LTP137	ltpFR	4	9	0	WRITER	1627	n/a	1	n/a	n/a	n/a	n/a	n/a
1374165	REC_WORD	wordpools/wasnorm_wordpool.txt	LTP137	ltpFR	4	9	1	JELLY	755	n/a	0	n/a	n/a	n/a	n/a	n/a
1374888	REC_WORD	wordpools/wasnorm_wordpool.txt	LTP137	ltpFR	4	9	1	MOUTH	926	n/a	0	n/a	n/a	n/a	n/a	n/a
1375636	REC_WORD	wordpools/wasnorm_wordpool.txt	LTP137	ltpFR	4	9	1	SPIT	1354	n/a	0	n/a	n/a	n/a	n/a	n/a
1387499	REC_WORD	wordpools/wasnorm_wordpool.txt	LTP137	ltpFR	4	9	1	TRICYCLE	1506	n/a	0	n/a	n/a	n/a	n/a	n/a
1389975	REC_WORD	wordpools/wasnorm_wordpool.txt	LTP137	ltpFR	4	9	1	LOOP	844	n/a	0	n/a	n/a	n/a	n/a	n/a
1405833	REC_WORD	wordpools/wasnorm_wordpool.txt	LTP137	ltpFR	4	9	0	VEAL	1551	n/a	1	n/a	n/a	n/a	n/a	n/a
1406676	REC_WORD	wordpools/wasnorm_wordpool.txt	LTP137	ltpFR	4	9	0	HERD	705	n/a	1	n/a	n/a	n/a	n/a	n/a
1423623	REC_WORD	wordpools/wasnorm_wordpool.txt	LTP137	ltpFR	4	9	1	ALLIGATOR	16	n/a	1	n/a	n/a	n/a	n/a	n/a
1446726	WORD	wordpools/wasnorm_wordpool.txt	LTP137	ltpFR	4	10	1	SLEIGH	1325	n/a	0	0	0.5869140625	0.422607421875	lower	../fonts/zerothre.ttf
1450846	WORD	wordpools/wasnorm_wordpool.txt	LTP137	ltpFR	4	10	1	STREET	1393	n/a	0	0	0.5869140625	0.422607421875	lower	../fonts/zerothre.ttf
1454918	WORD	wordpools/wasnorm_wordpool.txt	LTP137	ltpFR	4	10	1	DOLLAR	482	n/a	0	0	0.5869140625	0.422607421875	lower	../fonts/zerothre.ttf
1458946	WORD	wordpools/wasnorm_wordpool.txt	LTP137	ltpFR	4	10	1	OUTDOORS	987	n/a	0	0	0.5869140625	0.422607421875	lower	../fonts/zerothre.ttf
1462883	WORD	wordpools/wasnorm_wordpool.txt	LTP137	ltpFR	4	10	1	POWDER	1117	n/a	0	0	0.5869140625	0.422607421875	lower	../fonts/zerothre.ttf
1467037	WORD	wordpools/wasnorm_wordpool.txt	LTP137	ltpFR	4	10	1	BULLET	194	n/a	0	0	0.5869140625	0.422607421875	lower	../fonts/zerothre.ttf
1471232	WORD	wordpools/wasnorm_wordpool.txt	LTP137	ltpFR	4	10	1	PRESIDENT	1121	n/a	1	0	0.5869140625	0.422607421875	lower	../fonts/zerothre.ttf
1475261	WORD	wordpools/wasnorm_wordpool.txt	LTP137	ltpFR	4	10	1	SKELETON	1314	n/a	0	0	0.5869140625	0.422607421875	lower	../fonts/zerothre.ttf
1479398	WORD	wordpools/wasnorm_wordpool.txt	LTP137	ltpFR	4	10	1	CRAB	397	n/a	1	0	0.5869140625	0.422607421875	lower	../fonts/zerothre.ttf
1483252	WORD	wordpools/wasnorm_wordpool.txt	LTP137	ltpFR	4	10	1	BANK	83	n/a	0	0	0.5869140625	0.422607421875	lower	../fonts/zerothre.ttf
1487155	WORD	wordpools/wasnorm_wordpool.txt	LTP137	ltpFR	4	10	1	WINE	1613	n/a	0	0	0.5869140625	0.422607421875	lower	../fonts/zerothre.ttf
1491092	WORD	wordpools/wasnorm_wordpool.txt	LTP137	ltpFR	4	10	1	BARTENDER	92	n/a	1	0	0.5869140625	0.422607421875	lower	../fonts/zerothre.ttf
1495129	WORD	wordpools/wasnorm_wordpool.txt	LTP137	ltpFR	4	10	1	CAT	257	n/a	1	0	0.5869140625	0.422607421875	lower	../fonts/zerothre.ttf
1499250	WORD	wordpools/wasnorm_wordpool.txt	LTP137	ltpFR	4	10	1	BACK	65	n/a	0	0	0.5869140625	0.422607421875	lower	../fonts/zerothre.ttf
1503104	WORD	wordpools/wasnorm_wordpool.txt	LTP137	ltpFR	4	10	1	NET	946	n/a	0	0	0.5869140625	0.422607421875	lower	../fonts/zerothre.ttf
1507016	WORD	wordpools/wasnorm_wordpool.txt	LTP137	ltpFR	4	10	1	MERMAID	887	n/a	1	0	0.5869140625	0.422607421875	lower	../fonts/zerothre.ttf
1512734	REC_START	n/a	LTP137	ltpFR	4	10	n/a	n/a	n/a	n/a	n/a	n/a	n/a	n/a	n/a	n/a
1513811	REC_WORD	wordpools/wasnorm_wordpool.txt	LTP137	ltpFR	4	10	1	MERMAID	887	n/a	1	n/a	n/a	n/a	n/a	n/a
1514704	REC_WORD	wordpools/wasnorm_wordpool.txt	LTP137	ltpFR	4	10	1	BACK	65	n/a	0	n/a	n/a	n/a	n/a	n/a
1515288	REC_WORD	wordpools/wasnorm_wordpool.txt	LTP137	ltpFR	4	10	1	NET	946	n/a	0	n/a	n/a	n/a	n/a	n/a
1516380	REC_WORD	wordpools/wasnorm_wordpool.txt	LTP137	ltpFR	4	10	1	WINE	1613	n/a	0	n/a	n/a	n/a	n/a	n/a
1517523	REC_WORD	wordpools/wasnorm_wordpool.txt	LTP137	ltpFR	4	10	1	BARTENDER	92	n/a	1	n/a	n/a	n/a	n/a	n/a
1520591	REC_WORD	wordpools/wasnorm_wordpool.txt	LTP137	ltpFR	4	10	1	STREET	1393	n/a	0	n/a	n/a	n/a	n/a	n/a
1524386	REC_WORD	wordpools/wasnorm_wordpool.txt	LTP137	ltpFR	4	10	1	PRESIDENT	1121	n/a	1	n/a	n/a	n/a	n/a	n/a
1525629	REC_WORD	wordpools/wasnorm_wordpool.txt	LTP137	ltpFR	4	10	1	BULLET	194	n/a	0	n/a	n/a	n/a	n/a	n/a
1528447	REC_WORD	wordpools/wasnorm_wordpool.txt	LTP137	ltpFR	4	10	1	SLEIGH	1325	n/a	0	n/a	n/a	n/a	n/a	n/a
1529750	REC_WORD	wordpools/wasnorm_wordpool.txt	LTP137	ltpFR	4	10	1	POWDER	1117	n/a	0	n/a	n/a	n/a	n/a	n/a
1532434	REC_WORD	wordpools/wasnorm_wordpool.txt	LTP137	ltpFR	4	10	1	MERMAID	887	n/a	1	n/a	n/a	n/a	n/a	n/a
1537592	REC_WORD	wordpools/wasnorm_wordpool.txt	LTP137	ltpFR	4	10	1	DOLLAR	482	n/a	0	n/a	n/a	n/a	n/a	n/a
1541473	REC_WORD	wordpools/wasnorm_wordpool.txt	LTP137	ltpFR	4	10	1	CRAB	397	n/a	1	n/a	n/a	n/a	n/a	n/a
1546163	REC_WORD	wordpools/wasnorm_wordpool.txt	LTP137	ltpFR	4	10	1	CAT	257	n/a	1	n/a	n/a	n/a	n/a	n/a
1553965	REC_WORD	wordpools/wasnorm_wordpool.txt	LTP137	ltpFR	4	10	1	NET	946	n/a	0	n/a	n/a	n/a	n/a	n/a
1561831	REC_WORD	wordpools/wasnorm_wordpool.txt	LTP137	ltpFR	4	10	1	SKELETON	1314	n/a	0	n/a	n/a	n/a	n/a	n/a
1576733	REC_WORD	wordpools/wasnorm_wordpool.txt	LTP137	ltpFR	4	10	0	VINE	1568	n/a	1	n/a	n/a	n/a	n/a	n/a
1595845	WORD	wordpools/wasnorm_wordpool.txt	LTP137	ltpFR	4	11	0	TREE	1502	n/a	1	1	0.412841796875	0.57763671875	upper	../fonts/amplitud.ttf
1599916	WORD	wordpools/wasnorm_wordpool.txt	LTP137	ltpFR	4	11	0	STUMP	1396	n/a	1	1	0.412841796875	0.57763671875	upper	../fonts/amplitud.ttf
1603769	WORD	wordpools/wasnorm_wordpool.txt	LTP137	ltpFR	4	11	0	SKULL	1320	n/a	0	1	0.412841796875	0.57763671875	upper	../fonts/amplitud.ttf
1607957	WORD	wordpools/wasnorm_wordpool.txt	LTP137	ltpFR	4	11	0	FIN	566	n/a	0	1	0.412841796875	0.57763671875	upper	../fonts/amplitud.ttf
1611961	WORD	wordpools/wasnorm_wordpool.txt	LTP137	ltpFR	4	11	0	TUNA	1518	n/a	1	1	0.412841796875	0.57763671875	upper	../fonts/amplitud.ttf
1616114	WORD	wordpools/wasnorm_wordpool.txt	LTP137	ltpFR	4	11	0	STAKE	1368	n/a	0	1	0.412841796875	0.57763671875	upper	../fonts/amplitud.ttf
1620176	WORD	wordpools/wasnorm_wordpool.txt	LTP137	ltpFR	4	11	0	WHISKERS	1605	n/a	0	1	0.412841796875	0.57763671875	upper	../fonts/amplitud.ttf
1624296	WORD	wordpools/wasnorm_wordpool.txt	LTP137	ltpFR	4	11	0	LINT	826	n/a	0	1	0.412841796875	0.57763671875	upper	../fonts/amplitud.ttf
1628300	WORD	wordpools/wasnorm_wordpool.txt	LTP137	ltpFR	4	11	0	WARDROBE	1587	n/a	1	1	0.412841796875	0.57763671875	upper	../fonts/amplitud.ttf
1632171	WORD	wordpools/wasnorm_wordpool.txt	LTP137	ltpFR	4	11	0	FOREHEAD	592	n/a	0	1	0.412841796875	0.57763671875	upper	../fonts/amplitud.ttf
1636099	WORD	wordpools/wasnorm_wordpool.txt	LTP137	ltpFR	4	11	0	CARRIAGE	248	n/a	1	1	0.412841796875	0.57763671875	upper	../fonts/amplitud.ttf
1639995	WORD	wordpools/wasnorm_wordpool.txt	LTP137	ltpFR	4	11	0	ROOF	1205	n/a	1	1	0.412841796875	0.57763671875	upper	../fonts/amplitud.ttf
1643848	WORD	wordpools/wasnorm_wordpool.txt	LTP137	ltpFR	4	11	0	LEAF	808	n/a	0	1	0.412841796875	0.57763671875	upper	../fonts/amplitud.ttf
1647718	WORD	wordpools/wasnorm_wordpool.txt	LTP137	ltpFR	4	11	0	SPICE	1350	n/a	0	1	0.412841796875	0.57763671875	upper	../fonts/amplitud.ttf
1651664	WORD	wordpools/wasnorm_wordpool.txt	LTP137	ltpFR	4	11	0	CAFETERIA	217	n/a	1	1	0.412841796875	0.57763671875	upper	../fonts/amplitud.ttf
1655494	WORD	wordpools/wasnorm_wordpool.txt	LTP137	ltpFR	4	11	0	COFFIN	342	n/a	1	1	0.412841796875	0.57763671875	upper	../fonts/amplitud.ttf
1661329	REC_START	n/a	LTP137	ltpFR	4	11	n/a	n/a	n/a	n/a	n/a	n/a	n/a	n/a	n/a	n/a
1662281	REC_WORD	wordpools/wasnorm_wordpool.txt	LTP137	ltpFR	4	11	0	CAFETERIA	217	n/a	1	n/a	n/a	n/a	n/a	n/a
1663264	REC_WORD	wordpools/wasnorm_wordpool.txt	LTP137	ltpFR	4	11	0	COFFIN	342	n/a	1	n/a	n/a	n/a	n/a	n/a
1664068	REC_WORD	wordpools/wasnorm_wordpool.txt	LTP137	ltpFR	4	11	0	CARRIAGE	248	n/a	1	n/a	n/a	n/a	n/a	n/a
1665145	REC_WORD	wordpools/wasnorm_wordpool.txt	LTP137	ltpFR	4	11	0	LEAF	808	n/a	0	n/a	n/a	n/a	n/a	n/a
1666243	REC_WORD	wordpools/wasnorm_wordpool.txt	LTP137	ltpFR	4	11	0	ROOF	1205	n/a	1	n/a	n/a	n/a	n/a	n/a
1667445	REC_WORD	wordpools/wasnorm_wordpool.txt	LTP137	ltpFR	4	11	0	TREE	1502	n/a	1	n/a	n/a	n/a	n/a	n/a
1668342	REC_WORD	wordpools/wasnorm_wordpool.txt	LTP137	ltpFR	4	11	0	STUMP	1396	n/a	1	n/a	n/a	n/a	n/a	n/a
1670342	REC_WORD	wordpools/wasnorm_wordpool.txt	LTP137	ltpFR	4	11	0	SKULL	1320	n/a	0	n/a	n/a	n/a	n/a	n/a
1671645	REC_WORD	wordpools/wasnorm_wordpool.txt	LTP137	ltpFR	4	11	0	LINT	826	n/a	0	n/a	n/a	n/a	n/a	n/a
1672204	REC_WORD	wordpools/wasnorm_wordpool.txt	LTP137	ltpFR	4	11	0	FOREHEAD	592	n/a	0	n/a	n/a	n/a	n/a	n/a
1680953	REC_WORD	wordpools/wasnorm_wordpool.txt	LTP137	ltpFR	4	11	0	SPICE	1350	n/a	0	n/a	n/a	n/a	n/a	n/a
1688058	REC_WORD	wordpools/wasnorm_wordpool.txt	LTP137	ltpFR	4	11	0	COFFIN	342	n/a	1	n/a	n/a	n/a	n/a	n/a
1700399	REC_WORD	wordpools/wasnorm_wordpool.txt	LTP137	ltpFR	4	11	0	WHISKERS	1605	n/a	0	n/a	n/a	n/a	n/a	n/a
1750958	WORD	wordpools/wasnorm_wordpool.txt	LTP137	ltpFR	4	12	0	DART	440	n/a	0	1	0.412841796875	0.57763671875	upper	../fonts/amplitud.ttf
1755087	WORD	wordpools/wasnorm_wordpool.txt	LTP137	ltpFR	4	12	0	ROAD	1196	n/a	1	1	0.412841796875	0.57763671875	upper	../fonts/amplitud.ttf
1758906	WORD	wordpools/wasnorm_wordpool.txt	LTP137	ltpFR	4	12	0	CURB	426	n/a	1	1	0.412841796875	0.57763671875	upper	../fonts/amplitud.ttf
1763094	WORD	wordpools/wasnorm_wordpool.txt	LTP137	ltpFR	4	12	1	KITCHEN	778	n/a	0	0	0.5869140625	0.422607421875	lower	../fonts/zerothre.ttf
1767014	WORD	wordpools/wasnorm_wordpool.txt	LTP137	ltpFR	4	12	1	OVEN	991	n/a	0	0	0.5869140625	0.422607421875	lower	../fonts/zerothre.ttf
1770935	WORD	wordpools/wasnorm_wordpool.txt	LTP137	ltpFR	4	12	1	FRIAR	605	n/a	1	0	0.5869140625	0.422607421875	lower	../fonts/zerothre.ttf
1775014	WORD	wordpools/wasnorm_wordpool.txt	LTP137	ltpFR	4	12	0	BALL	73	n/a	0	1	0.412841796875	0.57763671875	upper	../fonts/amplitud.ttf
1779217	WORD	wordpools/wasnorm_wordpool.txt	LTP137	ltpFR	4	12	0	SWAMP	1416	n/a	1	1	0.412841796875	0.57763671875	upper	../fonts/amplitud.ttf
1783171	WORD	wordpools/wasnorm_wordpool.txt	LTP137	ltpFR	4	12	1	SLIME	1327	n/a	0	0	0.5869140625	0.422607421875	lower	../fonts/zerothre.ttf
1787216	WORD	wordpools/wasnorm_wordpool.txt	LTP137	ltpFR	4	12	1	BAKER	71	n/a	1	0	0.5869140625	0.422607421875	lower	../fonts/zerothre.ttf
1791386	WORD	wordpools/wasnorm_wordpool.txt	LTP137	ltpFR	4	12	1	ROPE	1211	n/a	0	0	0.5869140625	0.422607421875	lower	../fonts/zerothre.ttf
1795415	WORD	wordpools/wasnorm_wordpool.txt	LTP137	ltpFR	4	12	1	SHERIFF	1284	n/a	1	0	0.5869140625	0.422607421875	lower	../fonts/zerothre.ttf
1799394	WORD	wordpools/wasnorm_wordpool.txt	LTP137	ltpFR	4	12	1	TOASTER	1472	n/a	0	0	0.5869140625	0.422607421875	lower	../fonts/zerothre.ttf
1803431	WORD	wordpools/wasnorm_wordpool.txt	LTP137	ltpFR	4	12	0	BUG	187	n/a	0	1	0.412841796875	0.57763671875	upper	../fonts/amplitud.ttf
1807301	WORD	wordpools/wasnorm_wordpool.txt	LTP137	ltpFR	4	12	0	FOX	598	n/a	1	1	0.412841796875	0.57763671875	upper	../fonts/amplitud.ttf
1811263	WORD	wordpools/wasnorm_wordpool.txt	LTP137	ltpFR	4	12	0	CHIPMUNK	304	n/a	0	1	0.412841796875	0.57763671875	upper	../fonts/amplitud.ttf
1817032	REC_START	n/a	LTP137	ltpFR	4	12	n/a	n/a	n/a	n/a	n/a	n/a	n/a	n/a	n/a	n/a
1818623	REC_WORD	wordpools/wasnorm_wordpool.txt	LTP137	ltpFR	4	12	0	BUG	187	n/a	0	n/a	n/a	n/a	n/a	n/a
1819496	REC_WORD	wordpools/wasnorm_wordpool.txt	LTP137	ltpFR	4	12	0	CHIPMUNK	304	n/a	0	n/a	n/a	n/a	n/a	n/a
1820468	REC_WORD	wordpools/wasnorm_wordpool.txt	LTP137	ltpFR	4	12	0	FOX	598	n/a	1	n/a	n/a	n/a	n/a	n/a
1821716	REC_WORD	wordpools/wasnorm_wordpool.txt	LTP137	ltpFR	4	12	1	KITCHEN	778	n/a	0	n/a	n/a	n/a	n/a	n/a
1822671	REC_WORD	wordpools/wasnorm_wordpool.txt	LTP137	ltpFR	4	12	1	OVEN	991	n/a	0	n/a	n/a	n/a	n/a	n/a
1823477	REC_WORD	wordpools/wasnorm_wordpool.txt	LTP137	ltpFR	4	12	1	TOASTER	1472	n/a	0	n/a	n/a	n/a	n/a	n/a
1825118	REC_WORD	wordpools/wasnorm_wordpool.txt	LTP137	ltpFR	4	12	1	BAKER	71	n/a	1	n/a	n/a	n/a	n/a	n/a
1825966	REC_WORD	wordpools/wasnorm_wordpool.txt	LTP137	ltpFR	4	12	1	FRIAR	605	n/a	1	n/a	n/a	n/a	n/a	n/a
1827682	REC_WORD	wordpools/wasnorm_wordpool.txt	LTP137	ltpFR	4	12	0	SWAMP	1416	n/a	1	n/a	n/a	n/a	n/a	n/a
1828665	REC_WORD	wordpools/wasnorm_wordpool.txt	LTP137	ltpFR	4	12	1	SLIME	1327	n/a	0	n/a	n/a	n/a	n/a	n/a
1831075	REC_WORD	wordpools/wasnorm_wordpool.txt	LTP137	ltpFR	4	12	0	ROAD	1196	n/a	1	n/a	n/a	n/a	n/a	n/a
1831938	REC_WORD	wordpools/wasnorm_wordpool.txt	LTP137	ltpFR	4	12	0	CURB	426	n/a	1	n/a	n/a	n/a	n/a	n/a
1834781	REC_WORD	wordpools/wasnorm_wordpool.txt	LTP137	ltpFR	4	12	0	DART	440	n/a	0	n/a	n/a	n/a	n/a	n/a
1836098	REC_WORD	wordpools/wasnorm_wordpool.txt	LTP137	ltpFR	4	12	0	BALL	73	n/a	0	n/a	n/a	n/a	n/a	n/a
1837793	REC_WORD	wordpools/wasnorm_wordpool.txt	LTP137	ltpFR	4	12	1	ROPE	1211	n/a	0	n/a	n/a	n/a	n/a	n/a
1838637	REC_WORD	wordpools/wasnorm_wordpool.txt	LTP137	ltpFR	4	12	1	SHERIFF	1284	n/a	1	n/a	n/a	n/a	n/a	n/a
1892618	REST_REWET	n/a	LTP137	ltpFR	4	12	n/a	n/a	n/a	n/a	n/a	n/a	n/a	n/a	n/a	n/a
2223801	WORD	wordpools/wasnorm_wordpool.txt	LTP137	ltpFR	4	13	-1	VIOLA	1570	n/a	-1	1	1.0	1.0	upper	../fonts/Verdana.ttf
2227780	WORD	wordpools/wasnorm_wordpool.txt	LTP137	ltpFR	4	13	-1	SALAD	1224	n/a	-1	1	1.0	1.0	upper	../fonts/Verdana.ttf
2231633	WORD	wordpools/wasnorm_wordpool.txt	LTP137	ltpFR	4	13	-1	PIT	1077	n/a	-1	1	1.0	1.0	upper	../fonts/Verdana.ttf
2235604	WORD	wordpools/wasnorm_wordpool.txt	LTP137	ltpFR	4	13	-1	BOYFRIEND	162	n/a	-1	1	1.0	1.0	upper	../fonts/Verdana.ttf
2239657	WORD	wordpools/wasnorm_wordpool.txt	LTP137	ltpFR	4	13	-1	FRIEND	606	n/a	-1	1	1.0	1.0	upper	../fonts/Verdana.ttf
2243553	WORD	wordpools/wasnorm_wordpool.txt	LTP137	ltpFR	4	13	-1	PHYSICIAN	1056	n/a	-1	1	1.0	1.0	upper	../fonts/Verdana.ttf
2247715	WORD	wordpools/wasnorm_wordpool.txt	LTP137	ltpFR	4	13	-1	SURGEON	1413	n/a	-1	1	1.0	1.0	upper	../fonts/Verdana.ttf
2251827	WORD	wordpools/wasnorm_wordpool.txt	LTP137	ltpFR	4	13	-1	CAR	241	n/a	-1	1	1.0	1.0	upper	../fonts/Verdana.ttf
2255755	WORD	wordpools/wasnorm_wordpool.txt	LTP137	ltpFR	4	13	-1	ANTENNA	28	n/a	-1	1	1.0	1.0	upper	../fonts/Verdana.ttf
2259651	WORD	wordpools/wasnorm_wordpool.txt	LTP137	ltpFR	4	13	-1	FIREPLACE	570	n/a	-1	1	1.0	1.0	upper	../fonts/Verdana.ttf
2263546	WORD	wordpools/wasnorm_wordpool.txt	LTP137	ltpFR	4	13	-1	DONKEY	484	n/a	-1	1	1.0	1.0	upper	../fonts/Verdana.ttf
2267717	WORD	wordpools/wasnorm_wordpool.txt	LTP137	ltpFR	4	13	-1	GOVERNOR	651	n/a	-1	1	1.0	1.0	upper	../fonts/Verdana.ttf
2271770	WORD	wordpools/wasnorm_wordpool.txt	LTP137	ltpFR	4	13	-1	DUNGEON	507	n/a	-1	1	1.0	1.0	upper	../fonts/Verdana.ttf
2275807	WORD	wordpools/wasnorm_wordpool.txt	LTP137	ltpFR	4	13	-1	CONCERT	360	n/a	-1	1	1.0	1.0	upper	../fonts/Verdana.ttf
2279661	WORD	wordpools/wasnorm_wordpool.txt	LTP137	ltpFR	4	13	-1	JAPAN	749	n/a	-1	1	1.0	1.0	upper	../fonts/Verdana.ttf
2283756	WORD	wordpools/wasnorm_wordpool.txt	LTP137	ltpFR	4	13	-1	ALMANAC	17	n/a	-1	1	1.0	1.0	upper	../fonts/Verdana.ttf
2289318	REC_START	n/a	LTP137	ltpFR	4	13	n/a	n/a	n/a	n/a	n/a	n/a	n/a	n/a	n/a	n/a
2291158	REC_WORD	wordpools/wasnorm_wordpool.txt	LTP137	ltpFR	4	13	-1	SALAD	1224	n/a	-1	n/a	n/a	n/a	n/a	n/a
2292211	REC_WORD	wordpools/wasnorm_wordpool.txt	LTP137	ltpFR	4	13	-1	ALMANAC	17	n/a	-1	n/a	n/a	n/a	n/a	n/a
2293827	REC_WORD	wordpools/wasnorm_wordpool.txt	LTP137	ltpFR	4	13	-1	PHYSICIAN	1056	n/a	-1	n/a	n/a	n/a	n/a	n/a
2295019	REC_WORD	wordpools/wasnorm_wordpool.txt	LTP137	ltpFR	4	13	-1	SURGEON	1413	n/a	-1	n/a	n/a	n/a	n/a	n/a
2296696	REC_WORD	wordpools/wasnorm_wordpool.txt	LTP137	ltpFR	4	13	-1	FRIEND	606	n/a	-1	n/a	n/a	n/a	n/a	n/a
2297500	REC_WORD	wordpools/wasnorm_wordpool.txt	LTP137	ltpFR	4	13	-1	BOYFRIEND	162	n/a	-1	n/a	n/a	n/a	n/a	n/a
2298521	REC_WORD	wordpools/wasnorm_wordpool.txt	LTP137	ltpFR	4	13	-1	VIOLA	1570	n/a	-1	n/a	n/a	n/a	n/a	n/a
2305217	REC_WORD	wordpools/wasnorm_wordpool.txt	LTP137	ltpFR	4	13	-1	DUNGEON	507	n/a	-1	n/a	n/a	n/a	n/a	n/a
2306218	REC_WORD	wordpools/wasnorm_wordpool.txt	LTP137	ltpFR	4	13	-1	CONCERT	360	n/a	-1	n/a	n/a	n/a	n/a	n/a
2307640	REC_WORD	wordpools/wasnorm_wordpool.txt	LTP137	ltpFR	4	13	-1	JAPAN	749	n/a	-1	n/a	n/a	n/a	n/a	n/a
2308833	REC_WORD	wordpools/wasnorm_wordpool.txt	LTP137	ltpFR	4	13	-1	CAR	241	n/a	-1	n/a	n/a	n/a	n/a	n/a
2309411	REC_WORD	wordpools/wasnorm_wordpool.txt	LTP137	ltpFR	4	13	-1	ANTENNA	28	n/a	-1	n/a	n/a	n/a	n/a	n/a
2310596	REC_WORD	wordpools/wasnorm_wordpool.txt	LTP137	ltpFR	4	13	-1	DONKEY	484	n/a	-1	n/a	n/a	n/a	n/a	n/a
2311877	REC_WORD	wordpools/wasnorm_wordpool.txt	LTP137	ltpFR	4	13	-1	GOVERNOR	651	n/a	-1	n/a	n/a	n/a	n/a	n/a
2316411	REC_WORD	wordpools/wasnorm_wordpool.txt	LTP137	ltpFR	4	13	-1	FIREPLACE	570	n/a	-1	n/a	n/a	n/a	n/a	n/a
2322246	REC_WORD	wordpools/wasnorm_wordpool.txt	LTP137	ltpFR	4	13	-1	PIT	1077	n/a	-1	n/a	n/a	n/a	n/a	n/a
2372097	WORD	wordpools/wasnorm_wordpool.txt	LTP137	ltpFR	4	14	1	CHEERLEADER	288	n/a	1	0	0.5869140625	0.422607421875	lower	../fonts/zerothre.ttf
2375975	WORD	wordpools/wasnorm_wordpool.txt	LTP137	ltpFR	4	14	1	MUSEUM	933	n/a	0	0	0.5869140625	0.422607421875	lower	../fonts/zerothre.ttf
2379996	WORD	wordpools/wasnorm_wordpool.txt	LTP137	ltpFR	4	14	1	PAINTING	1005	n/a	0	0	0.5869140625	0.422607421875	lower	../fonts/zerothre.ttf
2384149	WORD	wordpools/wasnorm_wordpool.txt	LTP137	ltpFR	4	14	1	ROOT	1210	n/a	1	0	0.5869140625	0.422607421875	lower	../fonts/zerothre.ttf
2388195	WORD	wordpools/wasnorm_wordpool.txt	LTP137	ltpFR	4	14	1	CITRUS	313	n/a	0	0	0.5869140625	0.422607421875	lower	../fonts/zerothre.ttf
2392331	WORD	wordpools/wasnorm_wordpool.txt	LTP137	ltpFR	4	14	1	FARMER	553	n/a	1	0	0.5869140625	0.422607421875	lower	../fonts/zerothre.ttf
2396377	WORD	wordpools/wasnorm_wordpool.txt	LTP137	ltpFR	4	14	1	SCARECROW	1245	n/a	0	0	0.5869140625	0.422607421875	lower	../fonts/zerothre.ttf
2400222	WORD	wordpools/wasnorm_wordpool.txt	LTP137	ltpFR	4	14	1	MONGOOSE	909	n/a	1	0	0.5869140625	0.422607421875	lower	../fonts/zerothre.ttf
2404126	WORD	wordpools/wasnorm_wordpool.txt	LTP137	ltpFR	4	14	1	PAD	998	n/a	0	0	0.5869140625	0.422607421875	lower	../fonts/zerothre.ttf
2407972	WORD	wordpools/wasnorm_wordpool.txt	LTP137	ltpFR	4	14	1	KEEPER	769	n/a	1	0	0.5869140625	0.422607421875	lower	../fonts/zerothre.ttf
2411791	WORD	wordpools/wasnorm_wordpool.txt	LTP137	ltpFR	4	14	1	ATHLETE	52	n/a	1	0	0.5869140625	0.422607421875	lower	../fonts/zerothre.ttf
2415962	WORD	wordpools/wasnorm_wordpool.txt	LTP137	ltpFR	4	14	1	RATTLE	1170	n/a	0	0	0.5869140625	0.422607421875	lower	../fonts/zerothre.ttf
2420083	WORD	wordpools/wasnorm_wordpool.txt	LTP137	ltpFR	4	14	1	NIECE	952	n/a	1	0	0.5869140625	0.422607421875	lower	../fonts/zerothre.ttf
2424003	WORD	wordpools/wasnorm_wordpool.txt	LTP137	ltpFR	4	14	1	BARRACUDA	90	n/a	1	0	0.5869140625	0.422607421875	lower	../fonts/zerothre.ttf
2428140	WORD	wordpools/wasnorm_wordpool.txt	LTP137	ltpFR	4	14	1	GRAVEL	659	n/a	0	0	0.5869140625	0.422607421875	lower	../fonts/zerothre.ttf
2432027	WORD	wordpools/wasnorm_wordpool.txt	LTP137	ltpFR	4	14	1	FUNGUS	614	n/a	1	0	0.5869140625	0.422607421875	lower	../fonts/zerothre.ttf
2437996	REC_START	n/a	LTP137	ltpFR	4	14	n/a	n/a	n/a	n/a	n/a	n/a	n/a	n/a	n/a	n/a
2439507	REC_WORD	wordpools/wasnorm_wordpool.txt	LTP137	ltpFR	4	14	1	CHEERLEADER	288	n/a	1	n/a	n/a	n/a	n/a	n/a
2440485	REC_WORD	wordpools/wasnorm_wordpool.txt	LTP137	ltpFR	4	14	1	MUSEUM	933	n/a	0	n/a	n/a	n/a	n/a	n/a
2441522	REC_WORD	wordpools/wasnorm_wordpool.txt	LTP137	ltpFR	4	14	1	PAINTING	1005	n/a	0	n/a	n/a	n/a	n/a	n/a
2442869	REC_WORD	wordpools/wasnorm_wordpool.txt	LTP137	ltpFR	4	14	1	ROOT	1210	n/a	1	n/a	n/a	n/a	n/a	n/a
2443527	REC_WORD	wordpools/wasnorm_wordpool.txt	LTP137	ltpFR	4	14	1	CITRUS	313	n/a	0	n/a	n/a	n/a	n/a	n/a
2444441	REC_WORD	wordpools/wasnorm_wordpool.txt	LTP137	ltpFR	4	14	1	FARMER	553	n/a	1	n/a	n/a	n/a	n/a	n/a
2447085	REC_WORD	wordpools/wasnorm_wordpool.txt	LTP137	ltpFR	4	14	1	MONGOOSE	909	n/a	1	n/a	n/a	n/a	n/a	n/a
2448392	REC_WORD	wordpools/wasnorm_wordpool.txt	LTP137	ltpFR	4	14	1	BARRACUDA	90	n/a	1	n/a	n/a	n/a	n/a	n/a
2451789	REC_WORD	wordpools/wasnorm_wordpool.txt	LTP137	ltpFR	4	14	1	ATHLETE	52	n/a	1	n/a	n/a	n/a	n/a	n/a
2452812	REC_WORD	wordpools/wasnorm_wordpool.txt	LTP137	ltpFR	4	14	1	PAD	998	n/a	0	n/a	n/a	n/a	n/a	n/a
2453697	REC_WORD	wordpools/wasnorm_wordpool.txt	LTP137	ltpFR	4	14	1	KEEPER	769	n/a	1	n/a	n/a	n/a	n/a	n/a
2454967	REC_WORD	wordpools/wasnorm_wordpool.txt	LTP137	ltpFR	4	14	1	RATTLE	1170	n/a	0	n/a	n/a	n/a	n/a	n/a
2457896	REC_WORD	wordpools/wasnorm_wordpool.txt	LTP137	ltpFR	4	14	1	NIECE	952	n/a	1	n/a	n/a	n/a	n/a	n/a
2477810	REC_WORD	wordpools/wasnorm_wordpool.txt	LTP137	ltpFR	4	14	1	SCARECROW	1245	n/a	0	n/a	n/a	n/a	n/a	n/a
2493844	REC_WORD	wordpools/wasnorm_wordpool.txt	LTP137	ltpFR	4	14	1	FARMER	553	n/a	1	n/a	n/a	n/a	n/a	n/a
2538387	WORD	wordpools/wasnorm_wordpool.txt	LTP137	ltpFR	4	15	0	DUNE	506	n/a	1	1	0.412841796875	0.57763671875	upper	../fonts/amplitud.ttf
2542474	WORD	wordpools/wasnorm_wordpool.txt	LTP137	ltpFR	4	15	0	HURRICANE	727	n/a	1	1	0.412841796875	0.57763671875	upper	../fonts/amplitud.ttf
2546295	WORD	wordpools/wasnorm_wordpool.txt	LTP137	ltpFR	4	15	0	TWISTER	1530	n/a	1	1	0.412841796875	0.57763671875	upper	../fonts/amplitud.ttf
2550432	WORD	wordpools/wasnorm_wordpool.txt	LTP137	ltpFR	4	15	0	DIAL	457	n/a	0	1	0.412841796875	0.57763671875	upper	../fonts/amplitud.ttf
2554485	WORD	wordpools/wasnorm_wordpool.txt	LTP137	ltpFR	4	15	0	RADISH	1158	n/a	0	1	0.412841796875	0.57763671875	upper	../fonts/amplitud.ttf
2558306	WORD	wordpools/wasnorm_wordpool.txt	LTP137	ltpFR	4	15	0	SEASHORE	1263	n/a	1	1	0.412841796875	0.57763671875	upper	../fonts/amplitud.ttf
2562418	WORD	wordpools/wasnorm_wordpool.txt	LTP137	ltpFR	4	15	0	CHEDDAR	286	n/a	0	1	0.412841796875	0.57763671875	upper	../fonts/amplitud.ttf
2566496	WORD	wordpools/wasnorm_wordpool.txt	LTP137	ltpFR	4	15	0	MARGARINE	868	n/a	0	1	0.412841796875	0.57763671875	upper	../fonts/amplitud.ttf
2570657	WORD	wordpools/wasnorm_wordpool.txt	LTP137	ltpFR	4	15	0	DOUGH	489	n/a	0	1	0.412841796875	0.57763671875	upper	../fonts/amplitud.ttf
2574752	WORD	wordpools/wasnorm_wordpool.txt	LTP137	ltpFR	4	15	0	LOBSTER	837	n/a	1	1	0.412841796875	0.57763671875	upper	../fonts/amplitud.ttf
2578673	WORD	wordpools/wasnorm_wordpool.txt	LTP137	ltpFR	4	15	0	STADIUM	1364	n/a	1	1	0.412841796875	0.57763671875	upper	../fonts/amplitud.ttf
2582486	WORD	wordpools/wasnorm_wordpool.txt	LTP137	ltpFR	4	15	0	CHEF	290	n/a	1	1	0.412841796875	0.57763671875	upper	../fonts/amplitud.ttf
2586323	WORD	wordpools/wasnorm_wordpool.txt	LTP137	ltpFR	4	15	0	GARDEN	623	n/a	1	1	0.412841796875	0.57763671875	upper	../fonts/amplitud.ttf
2590469	WORD	wordpools/wasnorm_wordpool.txt	LTP137	ltpFR	4	15	0	BROCCOLI	176	n/a	0	1	0.412841796875	0.57763671875	upper	../fonts/amplitud.ttf
2594439	WORD	wordpools/wasnorm_wordpool.txt	LTP137	ltpFR	4	15	0	ZUCCHINI	1638	n/a	0	1	0.412841796875	0.57763671875	upper	../fonts/amplitud.ttf
2598434	WORD	wordpools/wasnorm_wordpool.txt	LTP137	ltpFR	4	15	0	MUSHROOM	934	n/a	0	1	0.412841796875	0.57763671875	upper	../fonts/amplitud.ttf
2604253	REC_START	n/a	LTP137	ltpFR	4	15	n/a	n/a	n/a	n/a	n/a	n/a	n/a	n/a	n/a	n/a
2605335	REC_WORD	wordpools/wasnorm_wordpool.txt	LTP137	ltpFR	4	15	0	BROCCOLI	176	n/a	0	n/a	n/a	n/a	n/a	n/a
2605913	REC_WORD	wordpools/wasnorm_wordpool.txt	LTP137	ltpFR	4	15	0	ZUCCHINI	1638	n/a	0	n/a	n/a	n/a	n/a	n/a
2606827	REC_WORD	wordpools/wasnorm_wordpool.txt	LTP137	ltpFR	4	15	0	MUSHROOM	934	n/a	0	n/a	n/a	n/a	n/a	n/a
2607939	REC_WORD	wordpools/wasnorm_wordpool.txt	LTP137	ltpFR	4	15	0	CHEF	290	n/a	1	n/a	n/a	n/a	n/a	n/a
2609007	REC_WORD	wordpools/wasnorm_wordpool.txt	LTP137	ltpFR	4	15	0	CHEDDAR	286	n/a	0	n/a	n/a	n/a	n/a	n/a
2610065	REC_WORD	wordpools/wasnorm_wordpool.txt	LTP137	ltpFR	4	15	0	DOUGH	489	n/a	0	n/a	n/a	n/a	n/a	n/a
2611676	REC_WORD	wordpools/wasnorm_wordpool.txt	LTP137	ltpFR	4	15	0	HURRICANE	727	n/a	1	n/a	n/a	n/a	n/a	n/a
2612648	REC_WORD	wordpools/wasnorm_wordpool.txt	LTP137	ltpFR	4	15	0	TWISTER	1530	n/a	1	n/a	n/a	n/a	n/a	n/a
2613596	REC_WORD	wordpools/wasnorm_wordpool.txt	LTP137	ltpFR	4	15	0	DUNE	506	n/a	1	n/a	n/a	n/a	n/a	n/a
2616799	REC_WORD	wordpools/wasnorm_wordpool.txt	LTP137	ltpFR	4	15	0	RADISH	1158	n/a	0	n/a	n/a	n/a	n/a	n/a
2619478	REC_WORD	wordpools/wasnorm_wordpool.txt	LTP137	ltpFR	4	15	0	LOBSTER	837	n/a	1	n/a	n/a	n/a	n/a	n/a
2620919	REC_WORD	wordpools/wasnorm_wordpool.txt	LTP137	ltpFR	4	15	0	SEASHORE	1263	n/a	1	n/a	n/a	n/a	n/a	n/a
2623609	REC_WORD	wordpools/wasnorm_wordpool.txt	LTP137	ltpFR	4	15	0	GARDEN	623	n/a	1	n/a	n/a	n/a	n/a	n/a
2672382	REC_WORD	wordpools/wasnorm_wordpool.txt	LTP137	ltpFR	4	15	0	MUSHROOM	934	n/a	0	n/a	n/a	n/a	n/a	n/a
2693324	WORD	wordpools/wasnorm_wordpool.txt	LTP137	ltpFR	4	16	0	RODENT	1204	n/a	0	1	0.412841796875	0.57763671875	upper	../fonts/amplitud.ttf
2697336	WORD	wordpools/wasnorm_wordpool.txt	LTP137	ltpFR	4	16	0	RAT	1169	n/a	0	1	0.412841796875	0.57763671875	upper	../fonts/amplitud.ttf
2701207	WORD	wordpools/wasnorm_wordpool.txt	LTP137	ltpFR	4	16	0	FIGHTER	564	n/a	1	1	0.412841796875	0.57763671875	upper	../fonts/amplitud.ttf
2705044	WORD	wordpools/wasnorm_wordpool.txt	LTP137	ltpFR	4	16	0	UNIFORM	1539	n/a	1	1	0.412841796875	0.57763671875	upper	../fonts/amplitud.ttf
2709081	WORD	wordpools/wasnorm_wordpool.txt	LTP137	ltpFR	4	16	0	SIREN	1310	n/a	0	1	0.412841796875	0.57763671875	upper	../fonts/amplitud.ttf
2712952	WORD	wordpools/wasnorm_wordpool.txt	LTP137	ltpFR	4	16	0	KNEE	784	n/a	0	1	0.412841796875	0.57763671875	upper	../fonts/amplitud.ttf
2716989	WORD	wordpools/wasnorm_wordpool.txt	LTP137	ltpFR	4	16	0	BENCH	121	n/a	1	1	0.412841796875	0.57763671875	upper	../fonts/amplitud.ttf
2721026	WORD	wordpools/wasnorm_wordpool.txt	LTP137	ltpFR	4	16	0	BELL	118	n/a	0	1	0.412841796875	0.57763671875	upper	../fonts/amplitud.ttf
2725121	WORD	wordpools/wasnorm_wordpool.txt	LTP137	ltpFR	4	16	0	SUIT	1402	n/a	1	1	0.412841796875	0.57763671875	upper	../fonts/amplitud.ttf
2729025	WORD	wordpools/wasnorm_wordpool.txt	LTP137	ltpFR	4	16	0	PARTY	1018	n/a	1	1	0.412841796875	0.57763671875	upper	../fonts/amplitud.ttf
2732836	WORD	wordpools/wasnorm_wordpool.txt	LTP137	ltpFR	4	16	0	DRINK	498	n/a	0	1	0.412841796875	0.57763671875	upper	../fonts/amplitud.ttf
2736873	WORD	wordpools/wasnorm_wordpool.txt	LTP137	ltpFR	4	16	0	TEAPOT	1442	n/a	0	1	0.412841796875	0.57763671875	upper	../fonts/amplitud.ttf
2740818	WORD	wordpools/wasnorm_wordpool.txt	LTP137	ltpFR	4	16	0	BEDROOM	111	n/a	1	1	0.412841796875	0.57763671875	upper	../fonts/amplitud.ttf
2744764	WORD	wordpools/wasnorm_wordpool.txt	LTP137	ltpFR	4	16	0	CABIN	211	n/a	1	1	0.412841796875	0.57763671875	upper	../fonts/amplitud.ttf
2748759	WORD	wordpools/wasnorm_wordpool.txt	LTP137	ltpFR	4	16	0	KETTLE	772	n/a	0	1	0.412841796875	0.57763671875	upper	../fonts/amplitud.ttf
2752705	WORD	wordpools/wasnorm_wordpool.txt	LTP137	ltpFR	4	16	0	SKIRT	1319	n/a	0	1	0.412841796875	0.57763671875	upper	../fonts/amplitud.ttf
2758573	REC_START	n/a	LTP137	ltpFR	4	16	n/a	n/a	n/a	n/a	n/a	n/a	n/a	n/a	n/a	n/a
2760753	REC_WORD	wordpools/wasnorm_wordpool.txt	LTP137	ltpFR	4	16	0	PARTY	1018	n/a	1	n/a	n/a	n/a	n/a	n/a
2761261	REC_WORD	wordpools/wasnorm_wordpool.txt	LTP137	ltpFR	4	16	0	SKIRT	1319	n/a	0	n/a	n/a	n/a	n/a	n/a
2761990	REC_WORD	wordpools/wasnorm_wordpool.txt	LTP137	ltpFR	4	16	0	RODENT	1204	n/a	0	n/a	n/a	n/a	n/a	n/a
2762638	REC_WORD	wordpools/wasnorm_wordpool.txt	LTP137	ltpFR	4	16	0	RAT	1169	n/a	0	n/a	n/a	n/a	n/a	n/a
2763761	REC_WORD	wordpools/wasnorm_wordpool.txt	LTP137	ltpFR	4	16	0	DRINK	498	n/a	0	n/a	n/a	n/a	n/a	n/a
2765956	REC_WORD	wordpools/wasnorm_wordpool.txt	LTP137	ltpFR	4	16	0	BENCH	121	n/a	1	n/a	n/a	n/a	n/a	n/a
2766928	REC_WORD	wordpools/wasnorm_wordpool.txt	LTP137	ltpFR	4	16	0	FIGHTER	564	n/a	1	n/a	n/a	n/a	n/a	n/a
2768015	REC_WORD	wordpools/wasnorm_wordpool.txt	LTP137	ltpFR	4	16	0	KNEE	784	n/a	0	n/a	n/a	n/a	n/a	n/a
2769766	REC_WORD	wordpools/wasnorm_wordpool.txt	LTP137	ltpFR	4	16	0	UNIFORM	1539	n/a	1	n/a	n/a	n/a	n/a	n/a
2770841	REC_WORD	wordpools/wasnorm_wordpool.txt	LTP137	ltpFR	4	16	0	SUIT	1402	n/a	1	n/a	n/a	n/a	n/a	n/a
2777979	REC_WORD	wordpools/wasnorm_wordpool.txt	LTP137	ltpFR	4	16	0	CABIN	211	n/a	1	n/a	n/a	n/a	n/a	n/a
2778766	REC_WORD	wordpools/wasnorm_wordpool.txt	LTP137	ltpFR	4	16	0	KETTLE	772	n/a	0	n/a	n/a	n/a	n/a	n/a
2779589	REC_WORD	wordpools/wasnorm_wordpool.txt	LTP137	ltpFR	4	16	0	TEAPOT	1442	n/a	0	n/a	n/a	n/a	n/a	n/a
2782857	REC_WORD	wordpools/wasnorm_wordpool.txt	LTP137	ltpFR	4	16	0	BEDROOM	111	n/a	1	n/a	n/a	n/a	n/a	n/a
2805237	REC_WORD	wordpools/wasnorm_wordpool.txt	LTP137	ltpFR	4	16	0	SKIRT	1319	n/a	0	n/a	n/a	n/a	n/a	n/a
2854571	REC_START	n/a	LTP137	ltpFR	4	1	n/a	n/a	n/a	n/a	n/a	n/a	n/a	n/a	n/a	n/a
2854603	RECOG_TARGET	n/a	LTP137	ltpFR	4	1	1	DOLLAR	482	5	0	n/a	n/a	n/a	n/a	n/a
2856107	RECOG_RESP	n/a	LTP137	ltpFR	4	1	1	DOLLAR	482	n/a	0	n/a	n/a	n/a	n/a	n/a
2857818	RECOG_CONF	n/a	LTP137	ltpFR	4	1	1	DOLLAR	482	5	0	n/a	n/a	n/a	n/a	n/a
2859672	RECOG_LURE	n/a	LTP137	ltpFR	4	1	n/a	TWIN	1528	4	n/a	n/a	n/a	n/a	n/a	n/a
2861218	RECOG_RESP	n/a	LTP137	ltpFR	4	1	n/a	TWIN	1528	n/a	n/a	n/a	n/a	n/a	n/a	n/a
2862883	RECOG_CONF	n/a	LTP137	ltpFR	4	1	n/a	TWIN	1528	4	n/a	n/a	n/a	n/a	n/a	n/a
2864708	RECOG_TARGET	n/a	LTP137	ltpFR	4	1	-1	AIRPLANE	12	4	-1	n/a	n/a	n/a	n/a	n/a
2865591	RECOG_RESP	n/a	LTP137	ltpFR	4	1	-1	AIRPLANE	12	n/a	-1	n/a	n/a	n/a	n/a	n/a
2867013	RECOG_CONF	n/a	LTP137	ltpFR	4	1	-1	AIRPLANE	12	4	-1	n/a	n/a	n/a	n/a	n/a
2868712	RECOG_TARGET	n/a	LTP137	ltpFR	4	1	0	INFANT	737	4	1	n/a	n/a	n/a	n/a	n/a
2869677	RECOG_RESP	n/a	LTP137	ltpFR	4	1	0	INFANT	737	n/a	1	n/a	n/a	n/a	n/a	n/a
2870991	RECOG_CONF	n/a	LTP137	ltpFR	4	1	0	INFANT	737	4	1	n/a	n/a	n/a	n/a	n/a
2872574	RECOG_LURE	n/a	LTP137	ltpFR	4	1	n/a	HEATER	698	5	n/a	n/a	n/a	n/a	n/a	n/a
2873957	RECOG_RESP	n/a	LTP137	ltpFR	4	1	n/a	HEATER	698	n/a	n/a	n/a	n/a	n/a	n/a	n/a
2875182	RECOG_CONF	n/a	LTP137	ltpFR	4	1	n/a	HEATER	698	5	n/a	n/a	n/a	n/a	n/a	n/a
2876803	RECOG_LURE	n/a	LTP137	ltpFR	4	1	n/a	OPERA	978	3	n/a	n/a	n/a	n/a	n/a	n/a
2878022	RECOG_RESP	n/a	LTP137	ltpFR	4	1	n/a	OPERA	978	n/a	n/a	n/a	n/a	n/a	n/a	n/a
2879469	RECOG_CONF	n/a	LTP137	ltpFR	4	1	n/a	OPERA	978	3	n/a	n/a	n/a	n/a	n/a	n/a
2881049	RECOG_TARGET	n/a	LTP137	ltpFR	4	1	-1	CONSOLE	364	5	-1	n/a	n/a	n/a	n/a	n/a
2881898	RECOG_RESP	n/a	LTP137	ltpFR	4	1	-1	CONSOLE	364	n/a	-1	n/a	n/a	n/a	n/a	n/a
2883318	RECOG_CONF	n/a	LTP137	ltpFR	4	1	-1	CONSOLE	364	5	-1	n/a	n/a	n/a	n/a	n/a
2885102	RECOG_TARGET	n/a	LTP137	ltpFR	4	1	0	DOUGH	489	5	0	n/a	n/a	n/a	n/a	n/a
2885750	RECOG_RESP	n/a	LTP137	ltpFR	4	1	0	DOUGH	489	n/a	0	n/a	n/a	n/a	n/a	n/a
2887293	RECOG_CONF	n/a	LTP137	ltpFR	4	1	0	DOUGH	489	5	0	n/a	n/a	n/a	n/a	n/a
2888923	RECOG_TARGET	n/a	LTP137	ltpFR	4	1	1	FAMILY	550	5	1	n/a	n/a	n/a	n/a	n/a
2889651	RECOG_RESP	n/a	LTP137	ltpFR	4	1	1	FAMILY	550	n/a	1	n/a	n/a	n/a	n/a	n/a
2891008	RECOG_CONF	n/a	LTP137	ltpFR	4	1	1	FAMILY	550	5	1	n/a	n/a	n/a	n/a	n/a
2892692	RECOG_TARGET	n/a	LTP137	ltpFR	4	1	1	NIECE	952	5	1	n/a	n/a	n/a	n/a	n/a
2893375	RECOG_RESP	n/a	LTP137	ltpFR	4	1	1	NIECE	952	n/a	1	n/a	n/a	n/a	n/a	n/a
2894864	RECOG_CONF	n/a	LTP137	ltpFR	4	1	1	NIECE	952	5	1	n/a	n/a	n/a	n/a	n/a
2896563	RECOG_TARGET	n/a	LTP137	ltpFR	4	1	-1	STY	1397	5	-1	n/a	n/a	n/a	n/a	n/a
2897503	RECOG_RESP	n/a	LTP137	ltpFR	4	1	-1	STY	1397	n/a	-1	n/a	n/a	n/a	n/a	n/a
2898922	RECOG_CONF	n/a	LTP137	ltpFR	4	1	-1	STY	1397	5	-1	n/a	n/a	n/a	n/a	n/a
2900575	RECOG_TARGET	n/a	LTP137	ltpFR	4	1	1	KNAPSACK	783	5	0	n/a	n/a	n/a	n/a	n/a
2901329	RECOG_RESP	n/a	LTP137	ltpFR	4	1	1	KNAPSACK	783	n/a	0	n/a	n/a	n/a	n/a	n/a
2902693	RECOG_CONF	n/a	LTP137	ltpFR	4	1	1	KNAPSACK	783	5	0	n/a	n/a	n/a	n/a	n/a
2904430	RECOG_TARGET	n/a	LTP137	ltpFR	4	1	1	PEOPLE	1046	5	1	n/a	n/a	n/a	n/a	n/a
2905111	RECOG_RESP	n/a	LTP137	ltpFR	4	1	1	PEOPLE	1046	n/a	1	n/a	n/a	n/a	n/a	n/a
2906587	RECOG_CONF	n/a	LTP137	ltpFR	4	1	1	PEOPLE	1046	5	1	n/a	n/a	n/a	n/a	n/a
2908425	RECOG_TARGET	n/a	LTP137	ltpFR	4	1	1	CAT	257	5	1	n/a	n/a	n/a	n/a	n/a
2909573	RECOG_RESP	n/a	LTP137	ltpFR	4	1	1	CAT	257	n/a	1	n/a	n/a	n/a	n/a	n/a
2910943	RECOG_CONF	n/a	LTP137	ltpFR	4	1	1	CAT	257	5	1	n/a	n/a	n/a	n/a	n/a
2912561	RECOG_LURE	n/a	LTP137	ltpFR	4	1	n/a	BLOCKADE	137	5	n/a	n/a	n/a	n/a	n/a	n/a
2913460	RECOG_RESP	n/a	LTP137	ltpFR	4	1	n/a	BLOCKADE	137	n/a	n/a	n/a	n/a	n/a	n/a	n/a
2914687	RECOG_CONF	n/a	LTP137	ltpFR	4	1	n/a	BLOCKADE	137	5	n/a	n/a	n/a	n/a	n/a	n/a
2916283	RECOG_TARGET	n/a	LTP137	ltpFR	4	1	0	MUFFIN	929	4	0	n/a	n/a	n/a	n/a	n/a
2917426	RECOG_RESP	n/a	LTP137	ltpFR	4	1	0	MUFFIN	929	n/a	0	n/a	n/a	n/a	n/a	n/a
2918827	RECOG_CONF	n/a	LTP137	ltpFR	4	1	0	MUFFIN	929	4	0	n/a	n/a	n/a	n/a	n/a
2920502	RECOG_TARGET	n/a	LTP137	ltpFR	4	1	-1	BEET	115	5	-1	n/a	n/a	n/a	n/a	n/a
2921289	RECOG_RESP	n/a	LTP137	ltpFR	4	1	-1	BEET	115	n/a	-1	n/a	n/a	n/a	n/a	n/a
2922785	RECOG_CONF	n/a	LTP137	ltpFR	4	1	-1	BEET	115	5	-1	n/a	n/a	n/a	n/a	n/a
2924672	RECOG_TARGET	n/a	LTP137	ltpFR	4	1	0	ZUCCHINI	1638	5	0	n/a	n/a	n/a	n/a	n/a
2925363	RECOG_RESP	n/a	LTP137	ltpFR	4	1	0	ZUCCHINI	1638	n/a	0	n/a	n/a	n/a	n/a	n/a
2926672	RECOG_CONF	n/a	LTP137	ltpFR	4	1	0	ZUCCHINI	1638	5	0	n/a	n/a	n/a	n/a	n/a
2928477	RECOG_LURE	n/a	LTP137	ltpFR	4	1	n/a	STAIRS	1367	4	n/a	n/a	n/a	n/a	n/a	n/a
2929520	RECOG_RESP	n/a	LTP137	ltpFR	4	1	n/a	STAIRS	1367	n/a	n/a	n/a	n/a	n/a	n/a	n/a
2930803	RECOG_CONF	n/a	LTP137	ltpFR	4	1	n/a	STAIRS	1367	4	n/a	n/a	n/a	n/a	n/a	n/a
2932389	RECOG_TARGET	n/a	LTP137	ltpFR	4	1	1	SENATOR	1268	5	1	n/a	n/a	n/a	n/a	n/a
2933077	RECOG_RESP	n/a	LTP137	ltpFR	4	1	1	SENATOR	1268	n/a	1	n/a	n/a	n/a	n/a	n/a
2934399	RECOG_CONF	n/a	LTP137	ltpFR	4	1	1	SENATOR	1268	5	1	n/a	n/a	n/a	n/a	n/a
2938110	REC_START	n/a	LTP137	ltpFR	4	2	n/a	n/a	n/a	n/a	n/a	n/a	n/a	n/a	n/a	n/a
2938132	RECOG_TARGET	n/a	LTP137	ltpFR	4	2	1	ITEM	746	5	0	n/a	n/a	n/a	n/a	n/a
2938863	RECOG_RESP	n/a	LTP137	ltpFR	4	2	1	ITEM	746	n/a	0	n/a	n/a	n/a	n/a	n/a
2940170	RECOG_CONF	n/a	LTP137	ltpFR	4	2	1	ITEM	746	5	0	n/a	n/a	n/a	n/a	n/a
2941802	RECOG_TARGET	n/a	LTP137	ltpFR	4	2	-1	SURGEON	1413	5	-1	n/a	n/a	n/a	n/a	n/a
2942424	RECOG_RESP	n/a	LTP137	ltpFR	4	2	-1	SURGEON	1413	n/a	-1	n/a	n/a	n/a	n/a	n/a
2943812	RECOG_CONF	n/a	LTP137	ltpFR	4	2	-1	SURGEON	1413	5	-1	n/a	n/a	n/a	n/a	n/a
2945407	RECOG_LURE	n/a	LTP137	ltpFR	4	2	n/a	WASHER	1592	3	n/a	n/a	n/a	n/a	n/a	n/a
2946480	RECOG_RESP	n/a	LTP137	ltpFR	4	2	n/a	WASHER	1592	n/a	n/a	n/a	n/a	n/a	n/a	n/a
2947766	RECOG_CONF	n/a	LTP137	ltpFR	4	2	n/a	WASHER	1592	3	n/a	n/a	n/a	n/a	n/a	n/a
2949453	RECOG_TARGET	n/a	LTP137	ltpFR	4	2	-1	CUB	419	5	-1	n/a	n/a	n/a	n/a	n/a
2950155	RECOG_RESP	n/a	LTP137	ltpFR	4	2	-1	CUB	419	n/a	-1	n/a	n/a	n/a	n/a	n/a
2951514	RECOG_CONF	n/a	LTP137	ltpFR	4	2	-1	CUB	419	5	-1	n/a	n/a	n/a	n/a	n/a
2953257	RECOG_TARGET	n/a	LTP137	ltpFR	4	2	0	SHOULDER	1294	5	0	n/a	n/a	n/a	n/a	n/a
2953889	RECOG_RESP	n/a	LTP137	ltpFR	4	2	0	SHOULDER	1294	n/a	0	n/a	n/a	n/a	n/a	n/a
2955306	RECOG_CONF	n/a	LTP137	ltpFR	4	2	0	SHOULDER	1294	5	0	n/a	n/a	n/a	n/a	n/a
2957002	RECOG_TARGET	n/a	LTP137	ltpFR	4	2	1	CITRUS	313	5	0	n/a	n/a	n/a	n/a	n/a
2957625	RECOG_RESP	n/a	LTP137	ltpFR	4	2	1	CITRUS	313	n/a	0	n/a	n/a	n/a	n/a	n/a
2959007	RECOG_CONF	n/a	LTP137	ltpFR	4	2	1	CITRUS	313	5	0	n/a	n/a	n/a	n/a	n/a
2960714	RECOG_TARGET	n/a	LTP137	ltpFR	4	2	1	OVEN	991	5	0	n/a	n/a	n/a	n/a	n/a
2961525	RECOG_RESP	n/a	LTP137	ltpFR	4	2	1	OVEN	991	n/a	0	n/a	n/a	n/a	n/a	n/a
2962819	RECOG_CONF	n/a	LTP137	ltpFR	4	2	1	OVEN	991	5	0	n/a	n/a	n/a	n/a	n/a
2964435	RECOG_TARGET	n/a	LTP137	ltpFR	4	2	1	DAM	436	5	0	n/a	n/a	n/a	n/a	n/a
2965168	RECOG_RESP	n/a	LTP137	ltpFR	4	2	1	DAM	436	n/a	0	n/a	n/a	n/a	n/a	n/a
2966540	RECOG_CONF	n/a	LTP137	ltpFR	4	2	1	DAM	436	5	0	n/a	n/a	n/a	n/a	n/a
2968306	RECOG_LURE	n/a	LTP137	ltpFR	4	2	n/a	RAKE	1164	4	n/a	n/a	n/a	n/a	n/a	n/a
2969423	RECOG_RESP	n/a	LTP137	ltpFR	4	2	n/a	RAKE	1164	n/a	n/a	n/a	n/a	n/a	n/a	n/a
2970980	RECOG_CONF	n/a	LTP137	ltpFR	4	2	n/a	RAKE	1164	4	n/a	n/a	n/a	n/a	n/a	n/a
2972567	RECOG_TARGET	n/a	LTP137	ltpFR	4	2	0	STAKE	1368	5	0	n/a	n/a	n/a	n/a	n/a
2973250	RECOG_RESP	n/a	LTP137	ltpFR	4	2	0	STAKE	1368	n/a	0	n/a	n/a	n/a	n/a	n/a
2974597	RECOG_CONF	n/a	LTP137	ltpFR	4	2	0	STAKE	1368	5	0	n/a	n/a	n/a	n/a	n/a
2976255	RECOG_TARGET	n/a	LTP137	ltpFR	4	2	0	HOOD	714	5	0	n/a	n/a	n/a	n/a	n/a
2976891	RECOG_RESP	n/a	LTP137	ltpFR	4	2	0	HOOD	714	n/a	0	n/a	n/a	n/a	n/a	n/a
2978256	RECOG_CONF	n/a	LTP137	ltpFR	4	2	0	HOOD	714	5	0	n/a	n/a	n/a	n/a	n/a
2979934	RECOG_TARGET	n/a	LTP137	ltpFR	4	2	1	BARRACUDA	90	5	1	n/a	n/a	n/a	n/a	n/a
2980613	RECOG_RESP	n/a	LTP137	ltpFR	4	2	1	BARRACUDA	90	n/a	1	n/a	n/a	n/a	n/a	n/a
2982135	RECOG_CONF	n/a	LTP137	ltpFR	4	2	1	BARRACUDA	90	5	1	n/a	n/a	n/a	n/a	n/a
2983921	RECOG_LURE	n/a	LTP137	ltpFR	4	2	n/a	COMPASS	358	3	n/a	n/a	n/a	n/a	n/a	n/a
2985075	RECOG_RESP	n/a	LTP137	ltpFR	4	2	n/a	COMPASS	358	n/a	n/a	n/a	n/a	n/a	n/a	n/a
2986631	RECOG_CONF	n/a	LTP137	ltpFR	4	2	n/a	COMPASS	358	3	n/a	n/a	n/a	n/a	n/a	n/a
2988133	RECOG_TARGET	n/a	LTP137	ltpFR	4	2	0	CURB	426	5	1	n/a	n/a	n/a	n/a	n/a
2988934	RECOG_RESP	n/a	LTP137	ltpFR	4	2	0	CURB	426	n/a	1	n/a	n/a	n/a	n/a	n/a
2990456	RECOG_CONF	n/a	LTP137	ltpFR	4	2	0	CURB	426	5	1	n/a	n/a	n/a	n/a	n/a
2992128	RECOG_TARGET	n/a	LTP137	ltpFR	4	2	-1	COCOON	339	5	-1	n/a	n/a	n/a	n/a	n/a
2992832	RECOG_RESP	n/a	LTP137	ltpFR	4	2	-1	COCOON	339	n/a	-1	n/a	n/a	n/a	n/a	n/a
2994337	RECOG_CONF	n/a	LTP137	ltpFR	4	2	-1	COCOON	339	5	-1	n/a	n/a	n/a	n/a	n/a
2996157	RECOG_TARGET	n/a	LTP137	ltpFR	4	2	0	WHALE	1601	5	1	n/a	n/a	n/a	n/a	n/a
2997115	RECOG_RESP	n/a	LTP137	ltpFR	4	2	0	WHALE	1601	n/a	1	n/a	n/a	n/a	n/a	n/a
2998597	RECOG_CONF	n/a	LTP137	ltpFR	4	2	0	WHALE	1601	5	1	n/a	n/a	n/a	n/a	n/a
3000344	RECOG_LURE	n/a	LTP137	ltpFR	4	2	n/a	DASHBOARD	441	5	n/a	n/a	n/a	n/a	n/a	n/a
3001206	RECOG_RESP	n/a	LTP137	ltpFR	4	2	n/a	DASHBOARD	441	n/a	n/a	n/a	n/a	n/a	n/a	n/a
3002409	RECOG_CONF	n/a	LTP137	ltpFR	4	2	n/a	DASHBOARD	441	5	n/a	n/a	n/a	n/a	n/a	n/a
3004039	RECOG_LURE	n/a	LTP137	ltpFR	4	2	n/a	GOLD	647	3	n/a	n/a	n/a	n/a	n/a	n/a
3005172	RECOG_RESP	n/a	LTP137	ltpFR	4	2	n/a	GOLD	647	n/a	n/a	n/a	n/a	n/a	n/a	n/a
3006532	RECOG_CONF	n/a	LTP137	ltpFR	4	2	n/a	GOLD	647	3	n/a	n/a	n/a	n/a	n/a	n/a
3008076	RECOG_TARGET	n/a	LTP137	ltpFR	4	2	-1	ARENA	37	3	-1	n/a	n/a	n/a	n/a	n/a
3009517	RECOG_RESP	n/a	LTP137	ltpFR	4	2	-1	ARENA	37	n/a	-1	n/a	n/a	n/a	n/a	n/a
3011179	RECOG_CONF	n/a	LTP137	ltpFR	4	2	-1	ARENA	37	3	-1	n/a	n/a	n/a	n/a	n/a
3012803	RECOG_TARGET	n/a	LTP137	ltpFR	4	2	1	VICTIM	1562	3	1	n/a	n/a	n/a	n/a	n/a
3013840	RECOG_RESP	n/a	LTP137	ltpFR	4	2	1	VICTIM	1562	n/a	1	n/a	n/a	n/a	n/a	n/a
3015327	RECOG_CONF	n/a	LTP137	ltpFR	4	2	1	VICTIM	1562	3	1	n/a	n/a	n/a	n/a	n/a
3019462	REC_START	n/a	LTP137	ltpFR	4	3	n/a	n/a	n/a	n/a	n/a	n/a	n/a	n/a	n/a	n/a
3019488	RECOG_TARGET	n/a	LTP137	ltpFR	4	3	0	ICEBERG	731	5	1	n/a	n/a	n/a	n/a	n/a
3020220	RECOG_RESP	n/a	LTP137	ltpFR	4	3	0	ICEBERG	731	n/a	1	n/a	n/a	n/a	n/a	n/a
3021682	RECOG_CONF	n/a	LTP137	ltpFR	4	3	0	ICEBERG	731	5	1	n/a	n/a	n/a	n/a	n/a
3023500	RECOG_TARGET	n/a	LTP137	ltpFR	4	3	0	BEER	114	4	0	n/a	n/a	n/a	n/a	n/a
3024092	RECOG_RESP	n/a	LTP137	ltpFR	4	3	0	BEER	114	n/a	0	n/a	n/a	n/a	n/a	n/a
3025559	RECOG_CONF	n/a	LTP137	ltpFR	4	3	0	BEER	114	4	0	n/a	n/a	n/a	n/a	n/a
3027204	RECOG_LURE	n/a	LTP137	ltpFR	4	3	n/a	TABLE	1426	4	n/a	n/a	n/a	n/a	n/a	n/a
3028067	RECOG_RESP	n/a	LTP137	ltpFR	4	3	n/a	TABLE	1426	n/a	n/a	n/a	n/a	n/a	n/a	n/a
3029450	RECOG_CONF	n/a	LTP137	ltpFR	4	3	n/a	TABLE	1426	4	n/a	n/a	n/a	n/a	n/a	n/a
3031058	RECOG_TARGET	n/a	LTP137	ltpFR	4	3	-1	SALAD	1224	5	-1	n/a	n/a	n/a	n/a	n/a
3031844	RECOG_RESP	n/a	LTP137	ltpFR	4	3	-1	SALAD	1224	n/a	-1	n/a	n/a	n/a	n/a	n/a
3033299	RECOG_CONF	n/a	LTP137	ltpFR	4	3	-1	SALAD	1224	5	-1	n/a	n/a	n/a	n/a	n/a
3035078	RECOG_TARGET	n/a	LTP137	ltpFR	4	3	0	STOMACH	1384	5	1	n/a	n/a	n/a	n/a	n/a
3036046	RECOG_RESP	n/a	LTP137	ltpFR	4	3	0	STOMACH	1384	n/a	1	n/a	n/a	n/a	n/a	n/a
3037452	RECOG_CONF	n/a	LTP137	ltpFR	4	3	0	STOMACH	1384	5	1	n/a	n/a	n/a	n/a	n/a
3039082	RECOG_LURE	n/a	LTP137	ltpFR	4	3	n/a	WIFE	1609	4	n/a	n/a	n/a	n/a	n/a	n/a
3039928	RECOG_RESP	n/a	LTP137	ltpFR	4	3	n/a	WIFE	1609	n/a	n/a	n/a	n/a	n/a	n/a	n/a
3041251	RECOG_CONF	n/a	LTP137	ltpFR	4	3	n/a	WIFE	1609	4	n/a	n/a	n/a	n/a	n/a	n/a
3042818	RECOG_TARGET	n/a	LTP137	ltpFR	4	3	0	FOX	598	5	1	n/a	n/a	n/a	n/a	n/a
3043597	RECOG_RESP	n/a	LTP137	ltpFR	4	3	0	FOX	598	n/a	1	n/a	n/a	n/a	n/a	n/a
3045050	RECOG_CONF	n/a	LTP137	ltpFR	4	3	0	FOX	598	5	1	n/a	n/a	n/a	n/a	n/a
3046789	RECOG_TARGET	n/a	LTP137	ltpFR	4	3	0	TEAPOT	1442	5	0	n/a	n/a	n/a	n/a	n/a
3047483	RECOG_RESP	n/a	LTP137	ltpFR	4	3	0	TEAPOT	1442	n/a	0	n/a	n/a	n/a	n/a	n/a
3048925	RECOG_CONF	n/a	LTP137	ltpFR	4	3	0	TEAPOT	1442	5	0	n/a	n/a	n/a	n/a	n/a
3050609	RECOG_LURE	n/a	LTP137	ltpFR	4	3	n/a	EMPLOYER	532	2	n/a	n/a	n/a	n/a	n/a	n/a
3051848	RECOG_RESP	n/a	LTP137	ltpFR	4	3	n/a	EMPLOYER	532	n/a	n/a	n/a	n/a	n/a	n/a	n/a
3053496	RECOG_CONF	n/a	LTP137	ltpFR	4	3	n/a	EMPLOYER	532	2	n/a	n/a	n/a	n/a	n/a	n/a
3055030	RECOG_TARGET	n/a	LTP137	ltpFR	4	3	0	SKULL	1320	5	0	n/a	n/a	n/a	n/a	n/a
3055771	RECOG_RESP	n/a	LTP137	ltpFR	4	3	0	SKULL	1320	n/a	0	n/a	n/a	n/a	n/a	n/a
3057109	RECOG_CONF	n/a	LTP137	ltpFR	4	3	0	SKULL	1320	5	0	n/a	n/a	n/a	n/a	n/a
3058733	RECOG_TARGET	n/a	LTP137	ltpFR	4	3	1	ROBBER	1197	4	1	n/a	n/a	n/a	n/a	n/a
3059845	RECOG_RESP	n/a	LTP137	ltpFR	4	3	1	ROBBER	1197	n/a	1	n/a	n/a	n/a	n/a	n/a
3061234	RECOG_CONF	n/a	LTP137	ltpFR	4	3	1	ROBBER	1197	4	1	n/a	n/a	n/a	n/a	n/a
3062704	RECOG_TARGET	n/a	LTP137	ltpFR	4	3	-1	SKETCH	1315	5	-1	n/a	n/a	n/a	n/a	n/a
3063397	RECOG_RESP	n/a	LTP137	ltpFR	4	3	-1	SKETCH	1315	n/a	-1	n/a	n/a	n/a	n/a	n/a
3064812	RECOG_CONF	n/a	LTP137	ltpFR	4	3	-1	SKETCH	1315	5	-1	n/a	n/a	n/a	n/a	n/a
3066524	RECOG_TARGET	n/a	LTP137	ltpFR	4	3	1	ROACH	1195	5	1	n/a	n/a	n/a	n/a	n/a
3067318	RECOG_RESP	n/a	LTP137	ltpFR	4	3	1	ROACH	1195	n/a	1	n/a	n/a	n/a	n/a	n/a
3068698	RECOG_CONF	n/a	LTP137	ltpFR	4	3	1	ROACH	1195	5	1	n/a	n/a	n/a	n/a	n/a
3070329	RECOG_TARGET	n/a	LTP137	ltpFR	4	3	-1	FLY	586	5	-1	n/a	n/a	n/a	n/a	n/a
3071009	RECOG_RESP	n/a	LTP137	ltpFR	4	3	-1	FLY	586	n/a	-1	n/a	n/a	n/a	n/a	n/a
3072387	RECOG_CONF	n/a	LTP137	ltpFR	4	3	-1	FLY	586	5	-1	n/a	n/a	n/a	n/a	n/a
3073950	RECOG_TARGET	n/a	LTP137	ltpFR	4	3	-1	GOVERNOR	651	5	-1	n/a	n/a	n/a	n/a	n/a
3075259	RECOG_RESP	n/a	LTP137	ltpFR	4	3	-1	GOVERNOR	651	n/a	-1	n/a	n/a	n/a	n/a	n/a
3076695	RECOG_CONF	n/a	LTP137	ltpFR	4	3	-1	GOVERNOR	651	5	-1	n/a	n/a	n/a	n/a	n/a
3078362	RECOG_TARGET	n/a	LTP137	ltpFR	4	3	-1	YARD	1630	5	-1	n/a	n/a	n/a	n/a	n/a
3079150	RECOG_RESP	n/a	LTP137	ltpFR	4	3	-1	YARD	1630	n/a	-1	n/a	n/a	n/a	n/a	n/a
3080469	RECOG_CONF	n/a	LTP137	ltpFR	4	3	-1	YARD	1630	5	-1	n/a	n/a	n/a	n/a	n/a
3082149	RECOG_LURE	n/a	LTP137	ltpFR	4	3	n/a	STOVE	1388	3	n/a	n/a	n/a	n/a	n/a	n/a
3083466	RECOG_RESP	n/a	LTP137	ltpFR	4	3	n/a	STOVE	1388	n/a	n/a	n/a	n/a	n/a	n/a	n/a
3084699	RECOG_CONF	n/a	LTP137	ltpFR	4	3	n/a	STOVE	1388	3	n/a	n/a	n/a	n/a	n/a	n/a
3086194	RECOG_TARGET	n/a	LTP137	ltpFR	4	3	0	VEAL	1551	5	1	n/a	n/a	n/a	n/a	n/a
3086908	RECOG_RESP	n/a	LTP137	ltpFR	4	3	0	VEAL	1551	n/a	1	n/a	n/a	n/a	n/a	n/a
3088295	RECOG_CONF	n/a	LTP137	ltpFR	4	3	0	VEAL	1551	5	1	n/a	n/a	n/a	n/a	n/a
3089982	RECOG_TARGET	n/a	LTP137	ltpFR	4	3	1	ACORN	3	5	0	n/a	n/a	n/a	n/a	n/a
3090647	RECOG_RESP	n/a	LTP137	ltpFR	4	3	1	ACORN	3	n/a	0	n/a	n/a	n/a	n/a	n/a
3092082	RECOG_CONF	n/a	LTP137	ltpFR	4	3	1	ACORN	3	5	0	n/a	n/a	n/a	n/a	n/a
3093668	RECOG_TARGET	n/a	LTP137	ltpFR	4	3	0	SWAMP	1416	5	1	n/a	n/a	n/a	n/a	n/a
3094356	RECOG_RESP	n/a	LTP137	ltpFR	4	3	0	SWAMP	1416	n/a	1	n/a	n/a	n/a	n/a	n/a
3095782	RECOG_CONF	n/a	LTP137	ltpFR	4	3	0	SWAMP	1416	5	1	n/a	n/a	n/a	n/a	n/a
3099200	REC_START	n/a	LTP137	ltpFR	4	4	n/a	n/a	n/a	n/a	n/a	n/a	n/a	n/a	n/a	n/a
3099229	RECOG_TARGET	n/a	LTP137	ltpFR	4	4	0	GARDEN	623	5	1	n/a	n/a	n/a	n/a	n/a
3099813	RECOG_RESP	n/a	LTP137	ltpFR	4	4	0	GARDEN	623	n/a	1	n/a	n/a	n/a	n/a	n/a
3101280	RECOG_CONF	n/a	LTP137	ltpFR	4	4	0	GARDEN	623	5	1	n/a	n/a	n/a	n/a	n/a
3103100	RECOG_LURE	n/a	LTP137	ltpFR	4	4	n/a	SERGEANT	1269	4	n/a	n/a	n/a	n/a	n/a	n/a
3104084	RECOG_RESP	n/a	LTP137	ltpFR	4	4	n/a	SERGEANT	1269	n/a	n/a	n/a	n/a	n/a	n/a	n/a
3105350	RECOG_CONF	n/a	LTP137	ltpFR	4	4	n/a	SERGEANT	1269	4	n/a	n/a	n/a	n/a	n/a	n/a
3106903	RECOG_TARGET	n/a	LTP137	ltpFR	4	4	0	RODENT	1204	5	0	n/a	n/a	n/a	n/a	n/a
3107542	RECOG_RESP	n/a	LTP137	ltpFR	4	4	0	RODENT	1204	n/a	0	n/a	n/a	n/a	n/a	n/a
3108891	RECOG_CONF	n/a	LTP137	ltpFR	4	4	0	RODENT	1204	5	0	n/a	n/a	n/a	n/a	n/a
3110483	RECOG_LURE	n/a	LTP137	ltpFR	4	4	n/a	BRANDY	169	5	n/a	n/a	n/a	n/a	n/a	n/a
3111276	RECOG_RESP	n/a	LTP137	ltpFR	4	4	n/a	BRANDY	169	n/a	n/a	n/a	n/a	n/a	n/a	n/a
3112447	RECOG_CONF	n/a	LTP137	ltpFR	4	4	n/a	BRANDY	169	5	n/a	n/a	n/a	n/a	n/a	n/a
3114020	RECOG_TARGET	n/a	LTP137	ltpFR	4	4	1	MOLECULE	905	5	0	n/a	n/a	n/a	n/a	n/a
3114763	RECOG_RESP	n/a	LTP137	ltpFR	4	4	1	MOLECULE	905	n/a	0	n/a	n/a	n/a	n/a	n/a
3115981	RECOG_CONF	n/a	LTP137	ltpFR	4	4	1	MOLECULE	905	5	0	n/a	n/a	n/a	n/a	n/a
3117615	RECOG_TARGET	n/a	LTP137	ltpFR	4	4	-1	RAG	1160	5	-1	n/a	n/a	n/a	n/a	n/a
3118227	RECOG_RESP	n/a	LTP137	ltpFR	4	4	-1	RAG	1160	n/a	-1	n/a	n/a	n/a	n/a	n/a
3119513	RECOG_CONF	n/a	LTP137	ltpFR	4	4	-1	RAG	1160	5	-1	n/a	n/a	n/a	n/a	n/a
3121262	RECOG_TARGET	n/a	LTP137	ltpFR	4	4	-1	BERRY	122	5	-1	n/a	n/a	n/a	n/a	n/a
3121793	RECOG_RESP	n/a	LTP137	ltpFR	4	4	-1	BERRY	122	n/a	-1	n/a	n/a	n/a	n/a	n/a
3123204	RECOG_CONF	n/a	LTP137	ltpFR	4	4	-1	BERRY	122	5	-1	n/a	n/a	n/a	n/a	n/a
3124807	RECOG_TARGET	n/a	LTP137	ltpFR	4	4	1	ICE	730	5	0	n/a	n/a	n/a	n/a	n/a
3125650	RECOG_RESP	n/a	LTP137	ltpFR	4	4	1	ICE	730	n/a	0	n/a	n/a	n/a	n/a	n/a
3126982	RECOG_CONF	n/a	LTP137	ltpFR	4	4	1	ICE	730	5	0	n/a	n/a	n/a	n/a	n/a
3128462	RECOG_LURE	n/a	LTP137	ltpFR	4	4	n/a	WICK	1607	5	n/a	n/a	n/a	n/a	n/a	n/a
3129286	RECOG_RESP	n/a	LTP137	ltpFR	4	4	n/a	WICK	1607	n/a	n/a	n/a	n/a	n/a	n/a	n/a
3130522	RECOG_CONF	n/a	LTP137	ltpFR	4	4	n/a	WICK	1607	5	n/a	n/a	n/a	n/a	n/a	n/a
3132066	RECOG_LURE	n/a	LTP137	ltpFR	4	4	n/a	REFEREE	1178	5	n/a	n/a	n/a	n/a	n/a	n/a
3132983	RECOG_RESP	n/a	LTP137	ltpFR	4	4	n/a	REFEREE	1178	n/a	n/a	n/a	n/a	n/a	n/a	n/a
3134215	RECOG_CONF	n/a	LTP137	ltpFR	4	4	n/a	REFEREE	1178	5	n/a	n/a	n/a	n/a	n/a	n/a
3135869	RECOG_TARGET	n/a	LTP137	ltpFR	4	4	-1	DICE	461	5	-1	n/a	n/a	n/a	n/a	n/a
3136575	RECOG_RESP	n/a	LTP137	ltpFR	4	4	-1	DICE	461	n/a	-1	n/a	n/a	n/a	n/a	n/a
3137887	RECOG_CONF	n/a	LTP137	ltpFR	4	4	-1	DICE	461	5	-1	n/a	n/a	n/a	n/a	n/a
3139598	RECOG_TARGET	n/a	LTP137	ltpFR	4	4	0	SKIRT	1319	5	0	n/a	n/a	n/a	n/a	n/a
3140243	RECOG_RESP	n/a	LTP137	ltpFR	4	4	0	SKIRT	1319	n/a	0	n/a	n/a	n/a	n/a	n/a
3141565	RECOG_CONF	n/a	LTP137	ltpFR	4	4	0	SKIRT	1319	5	0	n/a	n/a	n/a	n/a	n/a
3143245	RECOG_TARGET	n/a	LTP137	ltpFR	4	4	1	BACK	65	5	0	n/a	n/a	n/a	n/a	n/a
3143913	RECOG_RESP	n/a	LTP137	ltpFR	4	4	1	BACK	65	n/a	0	n/a	n/a	n/a	n/a	n/a
3145284	RECOG_CONF	n/a	LTP137	ltpFR	4	4	1	BACK	65	5	0	n/a	n/a	n/a	n/a	n/a
3147032	RECOG_TARGET	n/a	LTP137	ltpFR	4	4	0	WHISKERS	1605	5	0	n/a	n/a	n/a	n/a	n/a
3147682	RECOG_RESP	n/a	LTP137	ltpFR	4	4	0	WHISKERS	1605	n/a	0	n/a	n/a	n/a	n/a	n/a
3149069	RECOG_CONF	n/a	LTP137	ltpFR	4	4	0	WHISKERS	1605	5	0	n/a	n/a	n/a	n/a	n/a
3150743	RECOG_TARGET	n/a	LTP137	ltpFR	4	4	1	MISTER	901	5	1	n/a	n/a	n/a	n/a	n/a
3151491	RECOG_RESP	n/a	LTP137	ltpFR	4	4	1	MISTER	901	n/a	1	n/a	n/a	n/a	n/a	n/a
3152827	RECOG_CONF	n/a	LTP137	ltpFR	4	4	1	MISTER	901	5	1	n/a	n/a	n/a	n/a	n/a
3154473	RECOG_TARGET	n/a	LTP137	ltpFR	4	4	1	PAD	998	5	0	n/a	n/a	n/a	n/a	n/a
3155162	RECOG_RESP	n/a	LTP137	ltpFR	4	4	1	PAD	998	n/a	0	n/a	n/a	n/a	n/a	n/a
3156461	RECOG_CONF	n/a	LTP137	ltpFR	4	4	1	PAD	998	5	0	n/a	n/a	n/a	n/a	n/a
3158161	RECOG_LURE	n/a	LTP137	ltpFR	4	4	n/a	CONCRETE	361	5	n/a	n/a	n/a	n/a	n/a	n/a
3158964	RECOG_RESP	n/a	LTP137	ltpFR	4	4	n/a	CONCRETE	361	n/a	n/a	n/a	n/a	n/a	n/a	n/a
3160204	RECOG_CONF	n/a	LTP137	ltpFR	4	4	n/a	CONCRETE	361	5	n/a	n/a	n/a	n/a	n/a	n/a
3161764	RECOG_TARGET	n/a	LTP137	ltpFR	4	4	0	FIN	566	4	0	n/a	n/a	n/a	n/a	n/a
3162775	RECOG_RESP	n/a	LTP137	ltpFR	4	4	0	FIN	566	n/a	0	n/a	n/a	n/a	n/a	n/a
3164109	RECOG_CONF	n/a	LTP137	ltpFR	4	4	0	FIN	566	4	0	n/a	n/a	n/a	n/a	n/a
3165618	RECOG_TARGET	n/a	LTP137	ltpFR	4	4	-1	AUTOMOBILE	62	5	-1	n/a	n/a	n/a	n/a	n/a
3166555	RECOG_RESP	n/a	LTP137	ltpFR	4	4	-1	AUTOMOBILE	62	n/a	-1	n/a	n/a	n/a	n/a	n/a
3167769	RECOG_CONF	n/a	LTP137	ltpFR	4	4	-1	AUTOMOBILE	62	5	-1	n/a	n/a	n/a	n/a	n/a
3169464	RECOG_LURE	n/a	LTP137	ltpFR	4	4	n/a	BED	110	4	n/a	n/a	n/a	n/a	n/a	n/a
3170732	RECOG_RESP	n/a	LTP137	ltpFR	4	4	n/a	BED	110	n/a	n/a	n/a	n/a	n/a	n/a	n/a
3172285	RECOG_CONF	n/a	LTP137	ltpFR	4	4	n/a	BED	110	4	n/a	n/a	n/a	n/a	n/a	n/a
3176297	REC_START	n/a	LTP137	ltpFR	4	5	n/a	n/a	n/a	n/a	n/a	n/a	n/a	n/a	n/a	n/a
3176323	RECOG_LURE	n/a	LTP137	ltpFR	4	5	n/a	SAGE	1222	2	n/a	n/a	n/a	n/a	n/a	n/a
3177693	RECOG_RESP	n/a	LTP137	ltpFR	4	5	n/a	SAGE	1222	n/a	n/a	n/a	n/a	n/a	n/a	n/a
3178931	RECOG_CONF	n/a	LTP137	ltpFR	4	5	n/a	SAGE	1222	2	n/a	n/a	n/a	n/a	n/a	n/a
3180377	RECOG_TARGET	n/a	LTP137	ltpFR	4	5	1	GROCERY	664	5	0	n/a	n/a	n/a	n/a	n/a
3181076	RECOG_RESP	n/a	LTP137	ltpFR	4	5	1	GROCERY	664	n/a	0	n/a	n/a	n/a	n/a	n/a
3182528	RECOG_CONF	n/a	LTP137	ltpFR	4	5	1	GROCERY	664	5	0	n/a	n/a	n/a	n/a	n/a
3184289	RECOG_TARGET	n/a	LTP137	ltpFR	4	5	1	PENGUIN	1044	5	1	n/a	n/a	n/a	n/a	n/a
3184991	RECOG_RESP	n/a	LTP137	ltpFR	4	5	1	PENGUIN	1044	n/a	1	n/a	n/a	n/a	n/a	n/a
3186374	RECOG_CONF	n/a	LTP137	ltpFR	4	5	1	PENGUIN	1044	5	1	n/a	n/a	n/a	n/a	n/a
3187976	RECOG_TARGET	n/a	LTP137	ltpFR	4	5	0	BENCH	121	5	1	n/a	n/a	n/a	n/a	n/a
3188738	RECOG_RESP	n/a	LTP137	ltpFR	4	5	0	BENCH	121	n/a	1	n/a	n/a	n/a	n/a	n/a
3190101	RECOG_CONF	n/a	LTP137	ltpFR	4	5	0	BENCH	121	5	1	n/a	n/a	n/a	n/a	n/a
3191837	RECOG_LURE	n/a	LTP137	ltpFR	4	5	n/a	BINDER	127	4	n/a	n/a	n/a	n/a	n/a	n/a
3192849	RECOG_RESP	n/a	LTP137	ltpFR	4	5	n/a	BINDER	127	n/a	n/a	n/a	n/a	n/a	n/a	n/a
3194046	RECOG_CONF	n/a	LTP137	ltpFR	4	5	n/a	BINDER	127	4	n/a	n/a	n/a	n/a	n/a	n/a
3195691	RECOG_TARGET	n/a	LTP137	ltpFR	4	5	0	JAR	750	5	0	n/a	n/a	n/a	n/a	n/a
3196371	RECOG_RESP	n/a	LTP137	ltpFR	4	5	0	JAR	750	n/a	0	n/a	n/a	n/a	n/a	n/a
3197683	RECOG_CONF	n/a	LTP137	ltpFR	4	5	0	JAR	750	5	0	n/a	n/a	n/a	n/a	n/a
3199413	RECOG_LURE	n/a	LTP137	ltpFR	4	5	n/a	LANDSCAPE	799	5	n/a	n/a	n/a	n/a	n/a	n/a
3200290	RECOG_RESP	n/a	LTP137	ltpFR	4	5	n/a	LANDSCAPE	799	n/a	n/a	n/a	n/a	n/a	n/a	n/a
3201455	RECOG_CONF	n/a	LTP137	ltpFR	4	5	n/a	LANDSCAPE	799	5	n/a	n/a	n/a	n/a	n/a	n/a
3203100	RECOG_TARGET	n/a	LTP137	ltpFR	4	5	1	BULLET	194	5	0	n/a	n/a	n/a	n/a	n/a
3203724	RECOG_RESP	n/a	LTP137	ltpFR	4	5	1	BULLET	194	n/a	0	n/a	n/a	n/a	n/a	n/a
3205031	RECOG_CONF	n/a	LTP137	ltpFR	4	5	1	BULLET	194	5	0	n/a	n/a	n/a	n/a	n/a
3206720	RECOG_LURE	n/a	LTP137	ltpFR	4	5	n/a	ADOLESCENT	7	5	n/a	n/a	n/a	n/a	n/a	n/a
3207521	RECOG_RESP	n/a	LTP137	ltpFR	4	5	n/a	ADOLESCENT	7	n/a	n/a	n/a	n/a	n/a	n/a	n/a
3208689	RECOG_CONF	n/a	LTP137	ltpFR	4	5	n/a	ADOLESCENT	7	5	n/a	n/a	n/a	n/a	n/a	n/a
3210250	RECOG_TARGET	n/a	LTP137	ltpFR	4	5	1	GATE	625	5	0	n/a	n/a	n/a	n/a	n/a
3210952	RECOG_RESP	n/a	LTP137	ltpFR	4	5	1	GATE	625	n/a	0	n/a	n/a	n/a	n/a	n/a
3212210	RECOG_CONF	n/a	LTP137	ltpFR	4	5	1	GATE	625	5	0	n/a	n/a	n/a	n/a	n/a
3213787	RECOG_LURE	n/a	LTP137	ltpFR	4	5	n/a	BROTHER	179	4	n/a	n/a	n/a	n/a	n/a	n/a
3214804	RECOG_RESP	n/a	LTP137	ltpFR	4	5	n/a	BROTHER	179	n/a	n/a	n/a	n/a	n/a	n/a	n/a
3215988	RECOG_CONF	n/a	LTP137	ltpFR	4	5	n/a	BROTHER	179	4	n/a	n/a	n/a	n/a	n/a	n/a
3217475	RECOG_TARGET	n/a	LTP137	ltpFR	4	5	0	CAP	236	4	0	n/a	n/a	n/a	n/a	n/a
3218234	RECOG_RESP	n/a	LTP137	ltpFR	4	5	0	CAP	236	n/a	0	n/a	n/a	n/a	n/a	n/a
3220099	RECOG_CONF	n/a	LTP137	ltpFR	4	5	0	CAP	236	4	0	n/a	n/a	n/a	n/a	n/a
3221511	RECOG_TARGET	n/a	LTP137	ltpFR	4	5	0	OLIVE	975	5	0	n/a	n/a	n/a	n/a	n/a
3222891	RECOG_RESP	n/a	LTP137	ltpFR	4	5	0	OLIVE	975	n/a	0	n/a	n/a	n/a	n/a	n/a
3224230	RECOG_CONF	n/a	LTP137	ltpFR	4	5	0	OLIVE	975	5	0	n/a	n/a	n/a	n/a	n/a
3225590	RECOG_LURE	n/a	LTP137	ltpFR	4	5	n/a	FLASHLIGHT	575	5	n/a	n/a	n/a	n/a	n/a	n/a
3226522	RECOG_RESP	n/a	LTP137	ltpFR	4	5	n/a	FLASHLIGHT	575	n/a	n/a	n/a	n/a	n/a	n/a	n/a
3227685	RECOG_CONF	n/a	LTP137	ltpFR	4	5	n/a	FLASHLIGHT	575	5	n/a	n/a	n/a	n/a	n/a	n/a
3229303	RECOG_TARGET	n/a	LTP137	ltpFR	4	5	0	MOSQUITO	917	5	0	n/a	n/a	n/a	n/a	n/a
3230304	RECOG_RESP	n/a	LTP137	ltpFR	4	5	0	MOSQUITO	917	n/a	0	n/a	n/a	n/a	n/a	n/a
3231516	RECOG_CONF	n/a	LTP137	ltpFR	4	5	0	MOSQUITO	917	5	0	n/a	n/a	n/a	n/a	n/a
3233141	RECOG_TARGET	n/a	LTP137	ltpFR	4	5	0	STUMP	1396	5	1	n/a	n/a	n/a	n/a	n/a
3233781	RECOG_RESP	n/a	LTP137	ltpFR	4	5	0	STUMP	1396	n/a	1	n/a	n/a	n/a	n/a	n/a
3235068	RECOG_CONF	n/a	LTP137	ltpFR	4	5	0	STUMP	1396	5	1	n/a	n/a	n/a	n/a	n/a
3236636	RECOG_TARGET	n/a	LTP137	ltpFR	4	5	0	CHILD	299	2	1	n/a	n/a	n/a	n/a	n/a
3237922	RECOG_RESP	n/a	LTP137	ltpFR	4	5	0	CHILD	299	n/a	1	n/a	n/a	n/a	n/a	n/a
3239242	RECOG_CONF	n/a	LTP137	ltpFR	4	5	0	CHILD	299	2	1	n/a	n/a	n/a	n/a	n/a
3240722	RECOG_TARGET	n/a	LTP137	ltpFR	4	5	1	PLUMBER	1091	5	1	n/a	n/a	n/a	n/a	n/a
3241558	RECOG_RESP	n/a	LTP137	ltpFR	4	5	1	PLUMBER	1091	n/a	1	n/a	n/a	n/a	n/a	n/a
3242821	RECOG_CONF	n/a	LTP137	ltpFR	4	5	1	PLUMBER	1091	5	1	n/a	n/a	n/a	n/a	n/a
3244453	RECOG_TARGET	n/a	LTP137	ltpFR	4	5	-1	SUPPER	1411	3	-1	n/a	n/a	n/a	n/a	n/a
3246326	RECOG_RESP	n/a	LTP137	ltpFR	4	5	-1	SUPPER	1411	n/a	-1	n/a	n/a	n/a	n/a	n/a
3247828	RECOG_CONF	n/a	LTP137	ltpFR	4	5	-1	SUPPER	1411	3	-1	n/a	n/a	n/a	n/a	n/a
3249380	RECOG_TARGET	n/a	LTP137	ltpFR	4	5	-1	ALMANAC	17	5	-1	n/a	n/a	n/a	n/a	n/a
3250233	RECOG_RESP	n/a	LTP137	ltpFR	4	5	-1	ALMANAC	17	n/a	-1	n/a	n/a	n/a	n/a	n/a
3251571	RECOG_CONF	n/a	LTP137	ltpFR	4	5	-1	ALMANAC	17	5	-1	n/a	n/a	n/a	n/a	n/a
3255781	REC_START	n/a	LTP137	ltpFR	4	6	n/a	n/a	n/a	n/a	n/a	n/a	n/a	n/a	n/a	n/a
3255805	RECOG_TARGET	n/a	LTP137	ltpFR	4	6	-1	JAPAN	749	5	-1	n/a	n/a	n/a	n/a	n/a
3256489	RECOG_RESP	n/a	LTP137	ltpFR	4	6	-1	JAPAN	749	n/a	-1	n/a	n/a	n/a	n/a	n/a
3257798	RECOG_CONF	n/a	LTP137	ltpFR	4	6	-1	JAPAN	749	5	-1	n/a	n/a	n/a	n/a	n/a
3259410	RECOG_LURE	n/a	LTP137	ltpFR	4	6	n/a	RAILROAD	1162	5	n/a	n/a	n/a	n/a	n/a	n/a
3260596	RECOG_RESP	n/a	LTP137	ltpFR	4	6	n/a	RAILROAD	1162	n/a	n/a	n/a	n/a	n/a	n/a	n/a
3261782	RECOG_CONF	n/a	LTP137	ltpFR	4	6	n/a	RAILROAD	1162	5	n/a	n/a	n/a	n/a	n/a	n/a
3263472	RECOG_TARGET	n/a	LTP137	ltpFR	4	6	1	SLIME	1327	5	0	n/a	n/a	n/a	n/a	n/a
3264109	RECOG_RESP	n/a	LTP137	ltpFR	4	6	1	SLIME	1327	n/a	0	n/a	n/a	n/a	n/a	n/a
3265495	RECOG_CONF	n/a	LTP137	ltpFR	4	6	1	SLIME	1327	5	0	n/a	n/a	n/a	n/a	n/a
3267184	RECOG_TARGET	n/a	LTP137	ltpFR	4	6	1	PRODUCER	1129	5	1	n/a	n/a	n/a	n/a	n/a
3267993	RECOG_RESP	n/a	LTP137	ltpFR	4	6	1	PRODUCER	1129	n/a	1	n/a	n/a	n/a	n/a	n/a
3269295	RECOG_CONF	n/a	LTP137	ltpFR	4	6	1	PRODUCER	1129	5	1	n/a	n/a	n/a	n/a	n/a
3270963	RECOG_TARGET	n/a	LTP137	ltpFR	4	6	1	ROPE	1211	5	0	n/a	n/a	n/a	n/a	n/a
3271616	RECOG_RESP	n/a	LTP137	ltpFR	4	6	1	ROPE	1211	n/a	0	n/a	n/a	n/a	n/a	n/a
3272947	RECOG_CONF	n/a	LTP137	ltpFR	4	6	1	ROPE	1211	5	0	n/a	n/a	n/a	n/a	n/a
3274625	RECOG_LURE	n/a	LTP137	ltpFR	4	6	n/a	DIRECTOR	471	5	n/a	n/a	n/a	n/a	n/a	n/a
3275266	RECOG_RESP	n/a	LTP137	ltpFR	4	6	n/a	DIRECTOR	471	n/a	n/a	n/a	n/a	n/a	n/a	n/a
3276575	RECOG_CONF	n/a	LTP137	ltpFR	4	6	n/a	DIRECTOR	471	5	n/a	n/a	n/a	n/a	n/a	n/a
3278238	RECOG_TARGET	n/a	LTP137	ltpFR	4	6	0	CARRIAGE	248	5	1	n/a	n/a	n/a	n/a	n/a
3278988	RECOG_RESP	n/a	LTP137	ltpFR	4	6	0	CARRIAGE	248	n/a	1	n/a	n/a	n/a	n/a	n/a
3280280	RECOG_CONF	n/a	LTP137	ltpFR	4	6	0	CARRIAGE	248	5	1	n/a	n/a	n/a	n/a	n/a
3281825	RECOG_TARGET	n/a	LTP137	ltpFR	4	6	-1	UNIVERSE	1540	5	-1	n/a	n/a	n/a	n/a	n/a
3282542	RECOG_RESP	n/a	LTP137	ltpFR	4	6	-1	UNIVERSE	1540	n/a	-1	n/a	n/a	n/a	n/a	n/a
3283824	RECOG_CONF	n/a	LTP137	ltpFR	4	6	-1	UNIVERSE	1540	5	-1	n/a	n/a	n/a	n/a	n/a
3285438	RECOG_LURE	n/a	LTP137	ltpFR	4	6	n/a	CHOCOLATE	306	2	n/a	n/a	n/a	n/a	n/a	n/a
3286910	RECOG_RESP	n/a	LTP137	ltpFR	4	6	n/a	CHOCOLATE	306	n/a	n/a	n/a	n/a	n/a	n/a	n/a
3288356	RECOG_CONF	n/a	LTP137	ltpFR	4	6	n/a	CHOCOLATE	306	2	n/a	n/a	n/a	n/a	n/a	n/a
3289832	RECOG_TARGET	n/a	LTP137	ltpFR	4	6	1	KEY	773	4	0	n/a	n/a	n/a	n/a	n/a
3290941	RECOG_RESP	n/a	LTP137	ltpFR	4	6	1	KEY	773	n/a	0	n/a	n/a	n/a	n/a	n/a
3292590	RECOG_CONF	n/a	LTP137	ltpFR	4	6	1	KEY	773	4	0	n/a	n/a	n/a	n/a	n/a
3294095	RECOG_TARGET	n/a	LTP137	ltpFR	4	6	0	RAT	1169	5	0	n/a	n/a	n/a	n/a	n/a
3294840	RECOG_RESP	n/a	LTP137	ltpFR	4	6	0	RAT	1169	n/a	0	n/a	n/a	n/a	n/a	n/a
3296114	RECOG_CONF	n/a	LTP137	ltpFR	4	6	0	RAT	1169	5	0	n/a	n/a	n/a	n/a	n/a
3297756	RECOG_TARGET	n/a	LTP137	ltpFR	4	6	1	SURF	1412	5	0	n/a	n/a	n/a	n/a	n/a
3298436	RECOG_RESP	n/a	LTP137	ltpFR	4	6	1	SURF	1412	n/a	0	n/a	n/a	n/a	n/a	n/a
3299673	RECOG_CONF	n/a	LTP137	ltpFR	4	6	1	SURF	1412	5	0	n/a	n/a	n/a	n/a	n/a
3301287	RECOG_TARGET	n/a	LTP137	ltpFR	4	6	0	BROCCOLI	176	5	0	n/a	n/a	n/a	n/a	n/a
3301926	RECOG_RESP	n/a	LTP137	ltpFR	4	6	0	BROCCOLI	176	n/a	0	n/a	n/a	n/a	n/a	n/a
3303188	RECOG_CONF	n/a	LTP137	ltpFR	4	6	0	BROCCOLI	176	5	0	n/a	n/a	n/a	n/a	n/a
3304873	RECOG_TARGET	n/a	LTP137	ltpFR	4	6	1	MOSS	918	5	1	n/a	n/a	n/a	n/a	n/a
3305533	RECOG_RESP	n/a	LTP137	ltpFR	4	6	1	MOSS	918	n/a	1	n/a	n/a	n/a	n/a	n/a
3306812	RECOG_CONF	n/a	LTP137	ltpFR	4	6	1	MOSS	918	5	1	n/a	n/a	n/a	n/a	n/a
3308453	RECOG_TARGET	n/a	LTP137	ltpFR	4	6	1	WINE	1613	4	0	n/a	n/a	n/a	n/a	n/a
3309528	RECOG_RESP	n/a	LTP137	ltpFR	4	6	1	WINE	1613	n/a	0	n/a	n/a	n/a	n/a	n/a
3310829	RECOG_CONF	n/a	LTP137	ltpFR	4	6	1	WINE	1613	4	0	n/a	n/a	n/a	n/a	n/a
3312324	RECOG_LURE	n/a	LTP137	ltpFR	4	6	n/a	HONEY	713	5	n/a	n/a	n/a	n/a	n/a	n/a
3313179	RECOG_RESP	n/a	LTP137	ltpFR	4	6	n/a	HONEY	713	n/a	n/a	n/a	n/a	n/a	n/a	n/a
3314355	RECOG_CONF	n/a	LTP137	ltpFR	4	6	n/a	HONEY	713	5	n/a	n/a	n/a	n/a	n/a	n/a
3316011	RECOG_LURE	n/a	LTP137	ltpFR	4	6	n/a	ICING	732	4	n/a	n/a	n/a	n/a	n/a	n/a
3317605	RECOG_RESP	n/a	LTP137	ltpFR	4	6	n/a	ICING	732	n/a	n/a	n/a	n/a	n/a	n/a	n/a
3318939	RECOG_CONF	n/a	LTP137	ltpFR	4	6	n/a	ICING	732	4	n/a	n/a	n/a	n/a	n/a	n/a
3320464	RECOG_TARGET	n/a	LTP137	ltpFR	4	6	-1	FLUTE	585	5	-1	n/a	n/a	n/a	n/a	n/a
3321122	RECOG_RESP	n/a	LTP137	ltpFR	4	6	-1	FLUTE	585	n/a	-1	n/a	n/a	n/a	n/a	n/a
3322325	RECOG_CONF	n/a	LTP137	ltpFR	4	6	-1	FLUTE	585	5	-1	n/a	n/a	n/a	n/a	n/a
3323876	RECOG_LURE	n/a	LTP137	ltpFR	4	6	n/a	SERPENT	1270	5	n/a	n/a	n/a	n/a	n/a	n/a
3324749	RECOG_RESP	n/a	LTP137	ltpFR	4	6	n/a	SERPENT	1270	n/a	n/a	n/a	n/a	n/a	n/a	n/a
3325855	RECOG_CONF	n/a	LTP137	ltpFR	4	6	n/a	SERPENT	1270	5	n/a	n/a	n/a	n/a	n/a	n/a
3327564	RECOG_TARGET	n/a	LTP137	ltpFR	4	6	0	VAGRANT	1544	3	1	n/a	n/a	n/a	n/a	n/a
3328989	RECOG_RESP	n/a	LTP137	ltpFR	4	6	0	VAGRANT	1544	n/a	1	n/a	n/a	n/a	n/a	n/a
3330207	RECOG_CONF	n/a	LTP137	ltpFR	4	6	0	VAGRANT	1544	3	1	n/a	n/a	n/a	n/a	n/a
3333710	REC_START	n/a	LTP137	ltpFR	4	7	n/a	n/a	n/a	n/a	n/a	n/a	n/a	n/a	n/a	n/a
3333740	RECOG_TARGET	n/a	LTP137	ltpFR	4	7	1	SILK	1307	5	0	n/a	n/a	n/a	n/a	n/a
3334443	RECOG_RESP	n/a	LTP137	ltpFR	4	7	1	SILK	1307	n/a	0	n/a	n/a	n/a	n/a	n/a
3335637	RECOG_CONF	n/a	LTP137	ltpFR	4	7	1	SILK	1307	5	0	n/a	n/a	n/a	n/a	n/a
3337237	RECOG_TARGET	n/a	LTP137	ltpFR	4	7	1	MUSEUM	933	5	0	n/a	n/a	n/a	n/a	n/a
3337795	RECOG_RESP	n/a	LTP137	ltpFR	4	7	1	MUSEUM	933	n/a	0	n/a	n/a	n/a	n/a	n/a
3339073	RECOG_CONF	n/a	LTP137	ltpFR	4	7	1	MUSEUM	933	5	0	n/a	n/a	n/a	n/a	n/a
3340682	RECOG_TARGET	n/a	LTP137	ltpFR	4	7	1	SLEIGH	1325	5	0	n/a	n/a	n/a	n/a	n/a
3341317	RECOG_RESP	n/a	LTP137	ltpFR	4	7	1	SLEIGH	1325	n/a	0	n/a	n/a	n/a	n/a	n/a
3342575	RECOG_CONF	n/a	LTP137	ltpFR	4	7	1	SLEIGH	1325	5	0	n/a	n/a	n/a	n/a	n/a
3344179	RECOG_TARGET	n/a	LTP137	ltpFR	4	7	0	PLUM	1090	5	0	n/a	n/a	n/a	n/a	n/a
3344914	RECOG_RESP	n/a	LTP137	ltpFR	4	7	0	PLUM	1090	n/a	0	n/a	n/a	n/a	n/a	n/a
3346276	RECOG_CONF	n/a	LTP137	ltpFR	4	7	0	PLUM	1090	5	0	n/a	n/a	n/a	n/a	n/a
3347882	RECOG_LURE	n/a	LTP137	ltpFR	4	7	n/a	CARTON	251	4	n/a	n/a	n/a	n/a	n/a	n/a
3349184	RECOG_RESP	n/a	LTP137	ltpFR	4	7	n/a	CARTON	251	n/a	n/a	n/a	n/a	n/a	n/a	n/a
3350257	RECOG_CONF	n/a	LTP137	ltpFR	4	7	n/a	CARTON	251	4	n/a	n/a	n/a	n/a	n/a	n/a
3351794	RECOG_TARGET	n/a	LTP137	ltpFR	4	7	-1	CRUTCH	417	2	-1	n/a	n/a	n/a	n/a	n/a
3353061	RECOG_RESP	n/a	LTP137	ltpFR	4	7	-1	CRUTCH	417	n/a	-1	n/a	n/a	n/a	n/a	n/a
3354454	RECOG_CONF	n/a	LTP137	ltpFR	4	7	-1	CRUTCH	417	2	-1	n/a	n/a	n/a	n/a	n/a
3355923	RECOG_TARGET	n/a	LTP137	ltpFR	4	7	-1	MOVIE	927	2	-1	n/a	n/a	n/a	n/a	n/a
3357446	RECOG_RESP	n/a	LTP137	ltpFR	4	7	-1	MOVIE	927	n/a	-1	n/a	n/a	n/a	n/a	n/a
3358954	RECOG_CONF	n/a	LTP137	ltpFR	4	7	-1	MOVIE	927	2	-1	n/a	n/a	n/a	n/a	n/a
3360393	RECOG_TARGET	n/a	LTP137	ltpFR	4	7	0	HURRICANE	727	5	1	n/a	n/a	n/a	n/a	n/a
3361112	RECOG_RESP	n/a	LTP137	ltpFR	4	7	0	HURRICANE	727	n/a	1	n/a	n/a	n/a	n/a	n/a
3362381	RECOG_CONF	n/a	LTP137	ltpFR	4	7	0	HURRICANE	727	5	1	n/a	n/a	n/a	n/a	n/a
3363997	RECOG_TARGET	n/a	LTP137	ltpFR	4	7	0	BALL	73	5	0	n/a	n/a	n/a	n/a	n/a
3364998	RECOG_RESP	n/a	LTP137	ltpFR	4	7	0	BALL	73	n/a	0	n/a	n/a	n/a	n/a	n/a
3366231	RECOG_CONF	n/a	LTP137	ltpFR	4	7	0	BALL	73	5	0	n/a	n/a	n/a	n/a	n/a
3367800	RECOG_LURE	n/a	LTP137	ltpFR	4	7	n/a	JEANS	752	5	n/a	n/a	n/a	n/a	n/a	n/a
3368855	RECOG_RESP	n/a	LTP137	ltpFR	4	7	n/a	JEANS	752	n/a	n/a	n/a	n/a	n/a	n/a	n/a
3370234	RECOG_CONF	n/a	LTP137	ltpFR	4	7	n/a	JEANS	752	5	n/a	n/a	n/a	n/a	n/a	n/a
3371812	RECOG_TARGET	n/a	LTP137	ltpFR	4	7	-1	CLIMBER	323	5	-1	n/a	n/a	n/a	n/a	n/a
3372561	RECOG_RESP	n/a	LTP137	ltpFR	4	7	-1	CLIMBER	323	n/a	-1	n/a	n/a	n/a	n/a	n/a
3373897	RECOG_CONF	n/a	LTP137	ltpFR	4	7	-1	CLIMBER	323	5	-1	n/a	n/a	n/a	n/a	n/a
3375550	RECOG_TARGET	n/a	LTP137	ltpFR	4	7	1	CITY	314	5	0	n/a	n/a	n/a	n/a	n/a
3376343	RECOG_RESP	n/a	LTP137	ltpFR	4	7	1	CITY	314	n/a	0	n/a	n/a	n/a	n/a	n/a
3377645	RECOG_CONF	n/a	LTP137	ltpFR	4	7	1	CITY	314	5	0	n/a	n/a	n/a	n/a	n/a
3379271	RECOG_TARGET	n/a	LTP137	ltpFR	4	7	0	MAN	862	1	1	n/a	n/a	n/a	n/a	n/a
3380922	RECOG_RESP	n/a	LTP137	ltpFR	4	7	0	MAN	862	n/a	1	n/a	n/a	n/a	n/a	n/a
3382354	RECOG_CONF	n/a	LTP137	ltpFR	4	7	0	MAN	862	1	1	n/a	n/a	n/a	n/a	n/a
3384016	RECOG_TARGET	n/a	LTP137	ltpFR	4	7	1	POWDER	1117	5	0	n/a	n/a	n/a	n/a	n/a
3384648	RECOG_RESP	n/a	LTP137	ltpFR	4	7	1	POWDER	1117	n/a	0	n/a	n/a	n/a	n/a	n/a
3385865	RECOG_CONF	n/a	LTP137	ltpFR	4	7	1	POWDER	1117	5	0	n/a	n/a	n/a	n/a	n/a
3387602	RECOG_TARGET	n/a	LTP137	ltpFR	4	7	1	STEWARDESS	1381	5	1	n/a	n/a	n/a	n/a	n/a
3388465	RECOG_RESP	n/a	LTP137	ltpFR	4	7	1	STEWARDESS	1381	n/a	1	n/a	n/a	n/a	n/a	n/a
3389662	RECOG_CONF	n/a	LTP137	ltpFR	4	7	1	STEWARDESS	1381	5	1	n/a	n/a	n/a	n/a	n/a
3391291	RECOG_TARGET	n/a	LTP137	ltpFR	4	7	1	HOSPITAL	721	4	0	n/a	n/a	n/a	n/a	n/a
3392540	RECOG_RESP	n/a	LTP137	ltpFR	4	7	1	HOSPITAL	721	n/a	0	n/a	n/a	n/a	n/a	n/a
3393870	RECOG_CONF	n/a	LTP137	ltpFR	4	7	1	HOSPITAL	721	4	0	n/a	n/a	n/a	n/a	n/a
3395444	RECOG_TARGET	n/a	LTP137	ltpFR	4	7	0	ELM	527	5	1	n/a	n/a	n/a	n/a	n/a
3396073	RECOG_RESP	n/a	LTP137	ltpFR	4	7	0	ELM	527	n/a	1	n/a	n/a	n/a	n/a	n/a
3397225	RECOG_CONF	n/a	LTP137	ltpFR	4	7	0	ELM	527	5	1	n/a	n/a	n/a	n/a	n/a
3398739	RECOG_TARGET	n/a	LTP137	ltpFR	4	7	1	ATHLETE	52	5	1	n/a	n/a	n/a	n/a	n/a
3399360	RECOG_RESP	n/a	LTP137	ltpFR	4	7	1	ATHLETE	52	n/a	1	n/a	n/a	n/a	n/a	n/a
3400676	RECOG_CONF	n/a	LTP137	ltpFR	4	7	1	ATHLETE	52	5	1	n/a	n/a	n/a	n/a	n/a
3402320	RECOG_TARGET	n/a	LTP137	ltpFR	4	7	0	FOREHEAD	592	5	0	n/a	n/a	n/a	n/a	n/a
3403118	RECOG_RESP	n/a	LTP137	ltpFR	4	7	0	FOREHEAD	592	n/a	0	n/a	n/a	n/a	n/a	n/a
3404771	RECOG_CONF	n/a	LTP137	ltpFR	4	7	0	FOREHEAD	592	5	0	n/a	n/a	n/a	n/a	n/a
3406315	RECOG_LURE	n/a	LTP137	ltpFR	4	7	n/a	CRICKET	408	5	n/a	n/a	n/a	n/a	n/a	n/a
3407189	RECOG_RESP	n/a	LTP137	ltpFR	4	7	n/a	CRICKET	408	n/a	n/a	n/a	n/a	n/a	n/a	n/a
3408265	RECOG_CONF	n/a	LTP137	ltpFR	4	7	n/a	CRICKET	408	5	n/a	n/a	n/a	n/a	n/a	n/a
3411735	REC_START	n/a	LTP137	ltpFR	4	8	n/a	n/a	n/a	n/a	n/a	n/a	n/a	n/a	n/a	n/a
3411766	RECOG_TARGET	n/a	LTP137	ltpFR	4	8	0	CAFETERIA	217	4	1	n/a	n/a	n/a	n/a	n/a
3412708	RECOG_RESP	n/a	LTP137	ltpFR	4	8	0	CAFETERIA	217	n/a	1	n/a	n/a	n/a	n/a	n/a
3413915	RECOG_CONF	n/a	LTP137	ltpFR	4	8	0	CAFETERIA	217	4	1	n/a	n/a	n/a	n/a	n/a
3415396	RECOG_TARGET	n/a	LTP137	ltpFR	4	8	-1	BALLERINA	74	5	-1	n/a	n/a	n/a	n/a	n/a
3416407	RECOG_RESP	n/a	LTP137	ltpFR	4	8	-1	BALLERINA	74	n/a	-1	n/a	n/a	n/a	n/a	n/a
3417776	RECOG_CONF	n/a	LTP137	ltpFR	4	8	-1	BALLERINA	74	5	-1	n/a	n/a	n/a	n/a	n/a
3419515	RECOG_LURE	n/a	LTP137	ltpFR	4	8	n/a	ASIA	46	5	n/a	n/a	n/a	n/a	n/a	n/a
3420291	RECOG_RESP	n/a	LTP137	ltpFR	4	8	n/a	ASIA	46	n/a	n/a	n/a	n/a	n/a	n/a	n/a
3421378	RECOG_CONF	n/a	LTP137	ltpFR	4	8	n/a	ASIA	46	5	n/a	n/a	n/a	n/a	n/a	n/a
3423004	RECOG_TARGET	n/a	LTP137	ltpFR	4	8	-1	FLOUR	583	5	-1	n/a	n/a	n/a	n/a	n/a
3423603	RECOG_RESP	n/a	LTP137	ltpFR	4	8	-1	FLOUR	583	n/a	-1	n/a	n/a	n/a	n/a	n/a
3424688	RECOG_CONF	n/a	LTP137	ltpFR	4	8	-1	FLOUR	583	5	-1	n/a	n/a	n/a	n/a	n/a
3426259	RECOG_TARGET	n/a	LTP137	ltpFR	4	8	0	BOWL	158	5	0	n/a	n/a	n/a	n/a	n/a
3426880	RECOG_RESP	n/a	LTP137	ltpFR	4	8	0	BOWL	158	n/a	0	n/a	n/a	n/a	n/a	n/a
3428033	RECOG_CONF	n/a	LTP137	ltpFR	4	8	0	BOWL	158	5	0	n/a	n/a	n/a	n/a	n/a
3429654	RECOG_LURE	n/a	LTP137	ltpFR	4	8	n/a	ALBUM	14	4	n/a	n/a	n/a	n/a	n/a	n/a
3430676	RECOG_RESP	n/a	LTP137	ltpFR	4	8	n/a	ALBUM	14	n/a	n/a	n/a	n/a	n/a	n/a	n/a
3431874	RECOG_CONF	n/a	LTP137	ltpFR	4	8	n/a	ALBUM	14	4	n/a	n/a	n/a	n/a	n/a	n/a
3433458	RECOG_TARGET	n/a	LTP137	ltpFR	4	8	1	CHIP	303	5	0	n/a	n/a	n/a	n/a	n/a
3434153	RECOG_RESP	n/a	LTP137	ltpFR	4	8	1	CHIP	303	n/a	0	n/a	n/a	n/a	n/a	n/a
3435332	RECOG_CONF	n/a	LTP137	ltpFR	4	8	1	CHIP	303	5	0	n/a	n/a	n/a	n/a	n/a
3436887	RECOG_TARGET	n/a	LTP137	ltpFR	4	8	0	CHIPMUNK	304	5	0	n/a	n/a	n/a	n/a	n/a
3437601	RECOG_RESP	n/a	LTP137	ltpFR	4	8	0	CHIPMUNK	304	n/a	0	n/a	n/a	n/a	n/a	n/a
3438748	RECOG_CONF	n/a	LTP137	ltpFR	4	8	0	CHIPMUNK	304	5	0	n/a	n/a	n/a	n/a	n/a
3440375	RECOG_TARGET	n/a	LTP137	ltpFR	4	8	1	TOY	1492	5	0	n/a	n/a	n/a	n/a	n/a
3440958	RECOG_RESP	n/a	LTP137	ltpFR	4	8	1	TOY	1492	n/a	0	n/a	n/a	n/a	n/a	n/a
3442218	RECOG_CONF	n/a	LTP137	ltpFR	4	8	1	TOY	1492	5	0	n/a	n/a	n/a	n/a	n/a
3443845	RECOG_TARGET	n/a	LTP137	ltpFR	4	8	1	BUYER	208	5	1	n/a	n/a	n/a	n/a	n/a
3444520	RECOG_RESP	n/a	LTP137	ltpFR	4	8	1	BUYER	208	n/a	1	n/a	n/a	n/a	n/a	n/a
3445794	RECOG_CONF	n/a	LTP137	ltpFR	4	8	1	BUYER	208	5	1	n/a	n/a	n/a	n/a	n/a
3447359	RECOG_TARGET	n/a	LTP137	ltpFR	4	8	1	NET	946	5	0	n/a	n/a	n/a	n/a	n/a
3448012	RECOG_RESP	n/a	LTP137	ltpFR	4	8	1	NET	946	n/a	0	n/a	n/a	n/a	n/a	n/a
3449212	RECOG_CONF	n/a	LTP137	ltpFR	4	8	1	NET	946	5	0	n/a	n/a	n/a	n/a	n/a
3450812	RECOG_TARGET	n/a	LTP137	ltpFR	4	8	-1	WAGON	1578	5	-1	n/a	n/a	n/a	n/a	n/a
3451354	RECOG_RESP	n/a	LTP137	ltpFR	4	8	-1	WAGON	1578	n/a	-1	n/a	n/a	n/a	n/a	n/a
3452577	RECOG_CONF	n/a	LTP137	ltpFR	4	8	-1	WAGON	1578	5	-1	n/a	n/a	n/a	n/a	n/a
3454193	RECOG_TARGET	n/a	LTP137	ltpFR	4	8	1	SILVERWARE	1308	5	0	n/a	n/a	n/a	n/a	n/a
3454941	RECOG_RESP	n/a	LTP137	ltpFR	4	8	1	SILVERWARE	1308	n/a	0	n/a	n/a	n/a	n/a	n/a
3456180	RECOG_CONF	n/a	LTP137	ltpFR	4	8	1	SILVERWARE	1308	5	0	n/a	n/a	n/a	n/a	n/a
3457713	RECOG_TARGET	n/a	LTP137	ltpFR	4	8	-1	PARTNER	1017	5	-1	n/a	n/a	n/a	n/a	n/a
3458279	RECOG_RESP	n/a	LTP137	ltpFR	4	8	-1	PARTNER	1017	n/a	-1	n/a	n/a	n/a	n/a	n/a
3459550	RECOG_CONF	n/a	LTP137	ltpFR	4	8	-1	PARTNER	1017	5	-1	n/a	n/a	n/a	n/a	n/a
3461110	RECOG_TARGET	n/a	LTP137	ltpFR	4	8	-1	FRIEND	606	5	-1	n/a	n/a	n/a	n/a	n/a
3461721	RECOG_RESP	n/a	LTP137	ltpFR	4	8	-1	FRIEND	606	n/a	-1	n/a	n/a	n/a	n/a	n/a
3462925	RECOG_CONF	n/a	LTP137	ltpFR	4	8	-1	FRIEND	606	5	-1	n/a	n/a	n/a	n/a	n/a
3464546	RECOG_TARGET	n/a	LTP137	ltpFR	4	8	1	KITCHEN	778	5	0	n/a	n/a	n/a	n/a	n/a
3465133	RECOG_RESP	n/a	LTP137	ltpFR	4	8	1	KITCHEN	778	n/a	0	n/a	n/a	n/a	n/a	n/a
3466311	RECOG_CONF	n/a	LTP137	ltpFR	4	8	1	KITCHEN	778	5	0	n/a	n/a	n/a	n/a	n/a
3467969	RECOG_TARGET	n/a	LTP137	ltpFR	4	8	-1	CAR	241	5	-1	n/a	n/a	n/a	n/a	n/a
3468581	RECOG_RESP	n/a	LTP137	ltpFR	4	8	-1	CAR	241	n/a	-1	n/a	n/a	n/a	n/a	n/a
3469778	RECOG_CONF	n/a	LTP137	ltpFR	4	8	-1	CAR	241	5	-1	n/a	n/a	n/a	n/a	n/a
3471256	RECOG_LURE	n/a	LTP137	ltpFR	4	8	n/a	RELATIVE	1182	5	n/a	n/a	n/a	n/a	n/a	n/a
3472102	RECOG_RESP	n/a	LTP137	ltpFR	4	8	n/a	RELATIVE	1182	n/a	n/a	n/a	n/a	n/a	n/a	n/a
3473276	RECOG_CONF	n/a	LTP137	ltpFR	4	8	n/a	RELATIVE	1182	5	n/a	n/a	n/a	n/a	n/a	n/a
3474651	RECOG_LURE	n/a	LTP137	ltpFR	4	8	n/a	TART	1436	4	n/a	n/a	n/a	n/a	n/a	n/a
3475400	RECOG_RESP	n/a	LTP137	ltpFR	4	8	n/a	TART	1436	n/a	n/a	n/a	n/a	n/a	n/a	n/a
3476501	RECOG_CONF	n/a	LTP137	ltpFR	4	8	n/a	TART	1436	4	n/a	n/a	n/a	n/a	n/a	n/a
3478057	RECOG_LURE	n/a	LTP137	ltpFR	4	8	n/a	BOAT	144	3	n/a	n/a	n/a	n/a	n/a	n/a
3479471	RECOG_RESP	n/a	LTP137	ltpFR	4	8	n/a	BOAT	144	n/a	n/a	n/a	n/a	n/a	n/a	n/a
3480613	RECOG_CONF	n/a	LTP137	ltpFR	4	8	n/a	BOAT	144	3	n/a	n/a	n/a	n/a	n/a	n/a
3491976	REC_START	n/a	LTP137	ltpFR	4	9	n/a	n/a	n/a	n/a	n/a	n/a	n/a	n/a	n/a	n/a
3491999	RECOG_LURE	n/a	LTP137	ltpFR	4	9	n/a	TANK	1432	3	n/a	n/a	n/a	n/a	n/a	n/a
3493128	RECOG_RESP	n/a	LTP137	ltpFR	4	9	n/a	TANK	1432	n/a	n/a	n/a	n/a	n/a	n/a	n/a
