onset	duration	trial_type	sample	stim_file	subject	experiment	session	trial	task	item_name	item_num	recog_resp	recog_conf	resp	color_r	color_g	color_b	case	font
249.906	n/a	SESS_START	124953	n/a	LTP066	ltpFR	17	n/a	n/a	n/a	n/a	1	5	n/a	n/a	n/a	n/a	n/a	n/a
292.716	n/a	WORD	146358	wordpools/wasnorm_wordpool.txt	LTP066	ltpFR	17	1	1	DESK	452	1	n/a	0	0.57763671875	0.412841796875	1	upper	amplitud.ttf
296.924	n/a	WORD	148462	wordpools/wasnorm_wordpool.txt	LTP066	ltpFR	17	1	1	TYPIST	1532	n/a	n/a	1	0.57763671875	0.412841796875	1	upper	amplitud.ttf
300.856	n/a	WORD	150428	wordpools/wasnorm_wordpool.txt	LTP066	ltpFR	17	1	1	TURNIP	1521	n/a	n/a	1	0.57763671875	0.412841796875	1	upper	amplitud.ttf
304.674	n/a	WORD	152337	wordpools/wasnorm_wordpool.txt	LTP066	ltpFR	17	1	0	ROSE	1212	n/a	n/a	0	0.422607421875	0.5869140625	0	lower	zerothre.ttf
308.772	n/a	WORD	154386	wordpools/wasnorm_wordpool.txt	LTP066	ltpFR	17	1	0	PEAR	1033	n/a	n/a	0	0.422607421875	0.5869140625	0	lower	zerothre.ttf
312.79	n/a	WORD	156395	wordpools/wasnorm_wordpool.txt	LTP066	ltpFR	17	1	0	MONGOOSE	909	n/a	n/a	1	0.422607421875	0.5869140625	0	lower	zerothre.ttf
316.682	n/a	WORD	158341	wordpools/wasnorm_wordpool.txt	LTP066	ltpFR	17	1	0	MAMMAL	861	n/a	n/a	1	0.422607421875	0.5869140625	0	lower	zerothre.ttf
320.556	n/a	WORD	160278	wordpools/wasnorm_wordpool.txt	LTP066	ltpFR	17	1	1	SPRINKLE	1359	n/a	n/a	0	0.57763671875	0.412841796875	1	upper	amplitud.ttf
324.514	n/a	WORD	162257	wordpools/wasnorm_wordpool.txt	LTP066	ltpFR	17	1	1	SAILOR	1223	n/a	n/a	1	0.57763671875	0.412841796875	1	upper	amplitud.ttf
328.382	n/a	WORD	164191	wordpools/wasnorm_wordpool.txt	LTP066	ltpFR	17	1	0	CHAMBER	277	n/a	n/a	1	0.422607421875	0.5869140625	0	lower	zerothre.ttf
332.248	n/a	WORD	166124	wordpools/wasnorm_wordpool.txt	LTP066	ltpFR	17	1	0	TAR	1435	n/a	n/a	0	0.422607421875	0.5869140625	0	lower	zerothre.ttf
336.44	n/a	WORD	168220	wordpools/wasnorm_wordpool.txt	LTP066	ltpFR	17	1	0	WOUND	1624	n/a	n/a	0	0.422607421875	0.5869140625	0	lower	zerothre.ttf
340.59	n/a	WORD	170295	wordpools/wasnorm_wordpool.txt	LTP066	ltpFR	17	1	0	LIME	823	n/a	n/a	0	0.422607421875	0.5869140625	0	lower	zerothre.ttf
344.722	n/a	WORD	172361	wordpools/wasnorm_wordpool.txt	LTP066	ltpFR	17	1	1	CEREAL	272	n/a	n/a	0	0.57763671875	0.412841796875	1	upper	amplitud.ttf
348.922	n/a	WORD	174461	wordpools/wasnorm_wordpool.txt	LTP066	ltpFR	17	1	1	RAZOR	1171	n/a	n/a	0	0.57763671875	0.412841796875	1	upper	amplitud.ttf
353.114	n/a	WORD	176557	wordpools/wasnorm_wordpool.txt	LTP066	ltpFR	17	1	1	YACHT	1629	n/a	n/a	1	0.57763671875	0.412841796875	1	upper	amplitud.ttf
358.814	n/a	REC_START	179407	n/a	LTP066	ltpFR	17	1	n/a	n/a	n/a	n/a	n/a	n/a	n/a	n/a	n/a	n/a	n/a
362.66	n/a	REC_WORD	181330	wordpools/wasnorm_wordpool.txt	LTP066	ltpFR	17	1	1	DESK	452	n/a	n/a	0	n/a	n/a	n/a	n/a	n/a
364.072	n/a	REC_WORD	182036	wordpools/wasnorm_wordpool.txt	LTP066	ltpFR	17	1	1	TYPIST	1532	n/a	n/a	1	n/a	n/a	n/a	n/a	n/a
366.292	n/a	REC_WORD	183146	wordpools/wasnorm_wordpool.txt	LTP066	ltpFR	17	1	1	TURNIP	1521	n/a	n/a	1	n/a	n/a	n/a	n/a	n/a
368.098	n/a	REC_WORD	184049	wordpools/wasnorm_wordpool.txt	LTP066	ltpFR	17	1	0	ROSE	1212	n/a	n/a	0	n/a	n/a	n/a	n/a	n/a
369.496	n/a	REC_WORD	184748	wordpools/wasnorm_wordpool.txt	LTP066	ltpFR	17	1	0	PEAR	1033	n/a	n/a	0	n/a	n/a	n/a	n/a	n/a
372.03	n/a	REC_WORD	186015	wordpools/wasnorm_wordpool.txt	LTP066	ltpFR	17	1	0	MONGOOSE	909	n/a	n/a	1	n/a	n/a	n/a	n/a	n/a
374.894	n/a	REC_WORD	187447	wordpools/wasnorm_wordpool.txt	LTP066	ltpFR	17	1	1	SPRINKLE	1359	n/a	n/a	0	n/a	n/a	n/a	n/a	n/a
378.186	n/a	REC_WORD	189093	wordpools/wasnorm_wordpool.txt	LTP066	ltpFR	17	1	1	SAILOR	1223	n/a	n/a	1	n/a	n/a	n/a	n/a	n/a
381.438	n/a	REC_WORD	190719	wordpools/wasnorm_wordpool.txt	LTP066	ltpFR	17	1	0	CHAMBER	277	n/a	n/a	1	n/a	n/a	n/a	n/a	n/a
385.504	n/a	REC_WORD	192752	wordpools/wasnorm_wordpool.txt	LTP066	ltpFR	17	1	0	TAR	1435	n/a	n/a	0	n/a	n/a	n/a	n/a	n/a
389.126	n/a	REC_WORD	194563	wordpools/wasnorm_wordpool.txt	LTP066	ltpFR	17	1	0	WOUND	1624	n/a	n/a	0	n/a	n/a	n/a	n/a	n/a
392.638	n/a	REC_WORD	196319	wordpools/wasnorm_wordpool.txt	LTP066	ltpFR	17	1	0	LIME	823	n/a	n/a	0	n/a	n/a	n/a	n/a	n/a
406.992	n/a	REC_WORD	203496	wordpools/wasnorm_wordpool.txt	LTP066	ltpFR	17	1	1	CEREAL	272	n/a	n/a	0	n/a	n/a	n/a	n/a	n/a
429.622	n/a	REC_WORD	214811	wordpools/wasnorm_wordpool.txt	LTP066	ltpFR	17	1	1	RAZOR	1171	n/a	n/a	0	n/a	n/a	n/a	n/a	n/a
437.388	n/a	WORD	218694	wordpools/wasnorm_wordpool.txt	LTP066	ltpFR	17	2	0	MISTER	901	n/a	n/a	1	0.422607421875	0.5869140625	0	lower	zerothre.ttf
441.312	n/a	WORD	220656	wordpools/wasnorm_wordpool.txt	LTP066	ltpFR	17	2	0	PERSON	1052	n/a	n/a	1	0.422607421875	0.5869140625	0	lower	zerothre.ttf
445.47	n/a	WORD	222735	wordpools/wasnorm_wordpool.txt	LTP066	ltpFR	17	2	0	CONE	363	n/a	n/a	0	0.422607421875	0.5869140625	0	lower	zerothre.ttf
449.678	n/a	WORD	224839	wordpools/wasnorm_wordpool.txt	LTP066	ltpFR	17	2	0	COOKIE	374	n/a	n/a	0	0.422607421875	0.5869140625	0	lower	zerothre.ttf
453.868	n/a	WORD	226934	wordpools/wasnorm_wordpool.txt	LTP066	ltpFR	17	2	0	LABYRINTH	791	n/a	n/a	1	0.422607421875	0.5869140625	0	lower	zerothre.ttf
457.844	n/a	WORD	228922	wordpools/wasnorm_wordpool.txt	LTP066	ltpFR	17	2	0	CASTLE	256	n/a	n/a	1	0.422607421875	0.5869140625	0	lower	zerothre.ttf
461.786	n/a	WORD	230893	wordpools/wasnorm_wordpool.txt	LTP066	ltpFR	17	2	1	KING	777	n/a	n/a	1	0.57763671875	0.412841796875	1	upper	amplitud.ttf
465.904	n/a	WORD	232952	wordpools/wasnorm_wordpool.txt	LTP066	ltpFR	17	2	1	THRONE	1461	n/a	n/a	0	0.57763671875	0.412841796875	1	upper	amplitud.ttf
469.944	n/a	WORD	234972	wordpools/wasnorm_wordpool.txt	LTP066	ltpFR	17	2	1	CAT	257	n/a	n/a	1	0.57763671875	0.412841796875	1	upper	amplitud.ttf
473.844	n/a	WORD	236922	wordpools/wasnorm_wordpool.txt	LTP066	ltpFR	17	2	1	TOAD	1470	n/a	n/a	1	0.57763671875	0.412841796875	1	upper	amplitud.ttf
478.01	n/a	WORD	239005	wordpools/wasnorm_wordpool.txt	LTP066	ltpFR	17	2	1	TREAD	1499	n/a	n/a	0	0.57763671875	0.412841796875	1	upper	amplitud.ttf
481.978	n/a	WORD	240989	wordpools/wasnorm_wordpool.txt	LTP066	ltpFR	17	2	0	CRITIC	410	n/a	n/a	1	0.422607421875	0.5869140625	0	lower	zerothre.ttf
485.91	n/a	WORD	242955	wordpools/wasnorm_wordpool.txt	LTP066	ltpFR	17	2	0	WAX	1597	n/a	n/a	0	0.422607421875	0.5869140625	0	lower	zerothre.ttf
489.818	n/a	WORD	244909	wordpools/wasnorm_wordpool.txt	LTP066	ltpFR	17	2	1	BATHTUB	100	n/a	n/a	0	0.57763671875	0.412841796875	1	upper	amplitud.ttf
493.894	n/a	WORD	246947	wordpools/wasnorm_wordpool.txt	LTP066	ltpFR	17	2	1	QUEEN	1149	n/a	n/a	1	0.57763671875	0.412841796875	1	upper	amplitud.ttf
498.086	n/a	WORD	249043	wordpools/wasnorm_wordpool.txt	LTP066	ltpFR	17	2	1	POT	1114	n/a	n/a	0	0.57763671875	0.412841796875	1	upper	amplitud.ttf
503.878	n/a	REC_START	251939	n/a	LTP066	ltpFR	17	2	n/a	n/a	n/a	n/a	n/a	n/a	n/a	n/a	n/a	n/a	n/a
505.514	n/a	REC_WORD	252757	wordpools/wasnorm_wordpool.txt	LTP066	ltpFR	17	2	0	MISTER	901	n/a	n/a	1	n/a	n/a	n/a	n/a	n/a
506.81	n/a	REC_WORD	253405	wordpools/wasnorm_wordpool.txt	LTP066	ltpFR	17	2	0	PERSON	1052	n/a	n/a	1	n/a	n/a	n/a	n/a	n/a
514.602	n/a	REC_WORD	257301	wordpools/wasnorm_wordpool.txt	LTP066	ltpFR	17	2	0	CONE	363	n/a	n/a	0	n/a	n/a	n/a	n/a	n/a
516.748	n/a	REC_WORD	258374	wordpools/wasnorm_wordpool.txt	LTP066	ltpFR	17	2	0	COOKIE	374	n/a	n/a	0	n/a	n/a	n/a	n/a	n/a
528.442	n/a	REC_WORD	264221	wordpools/wasnorm_wordpool.txt	LTP066	ltpFR	17	2	0	LABYRINTH	791	n/a	n/a	1	n/a	n/a	n/a	n/a	n/a
530.648	n/a	REC_WORD	265324	wordpools/wasnorm_wordpool.txt	LTP066	ltpFR	17	2	0	CASTLE	256	n/a	n/a	1	n/a	n/a	n/a	n/a	n/a
533.032	n/a	REC_WORD	266516	wordpools/wasnorm_wordpool.txt	LTP066	ltpFR	17	2	1	KING	777	n/a	n/a	1	n/a	n/a	n/a	n/a	n/a
535.012	n/a	REC_WORD	267506	wordpools/wasnorm_wordpool.txt	LTP066	ltpFR	17	2	1	THRONE	1461	n/a	n/a	0	n/a	n/a	n/a	n/a	n/a
537.596	n/a	REC_WORD	268798	wordpools/wasnorm_wordpool.txt	LTP066	ltpFR	17	2	1	QUEEN	1149	n/a	n/a	1	n/a	n/a	n/a	n/a	n/a
549.316	n/a	REC_WORD	274658	wordpools/wasnorm_wordpool.txt	LTP066	ltpFR	17	2	0	WAX	1597	n/a	n/a	0	n/a	n/a	n/a	n/a	n/a
582.266	n/a	WORD	291133	wordpools/wasnorm_wordpool.txt	LTP066	ltpFR	17	3	0	NEWSSTAND	949	n/a	n/a	1	0.422607421875	0.5869140625	0	lower	zerothre.ttf
586.134	n/a	WORD	293067	wordpools/wasnorm_wordpool.txt	LTP066	ltpFR	17	3	0	SNAKE	1333	n/a	n/a	0	0.422607421875	0.5869140625	0	lower	zerothre.ttf
590.174	n/a	WORD	295087	wordpools/wasnorm_wordpool.txt	LTP066	ltpFR	17	3	0	STY	1397	n/a	n/a	0	0.422607421875	0.5869140625	0	lower	zerothre.ttf
594.216	n/a	WORD	297108	wordpools/wasnorm_wordpool.txt	LTP066	ltpFR	17	3	0	MUSHROOM	934	n/a	n/a	0	0.422607421875	0.5869140625	0	lower	zerothre.ttf
598.132	n/a	WORD	299066	wordpools/wasnorm_wordpool.txt	LTP066	ltpFR	17	3	0	THESAURUS	1454	n/a	n/a	0	0.422607421875	0.5869140625	0	lower	zerothre.ttf
602.058	n/a	WORD	301029	wordpools/wasnorm_wordpool.txt	LTP066	ltpFR	17	3	0	PEDESTRIAN	1038	n/a	n/a	1	0.422607421875	0.5869140625	0	lower	zerothre.ttf
605.874	n/a	WORD	302937	wordpools/wasnorm_wordpool.txt	LTP066	ltpFR	17	3	0	TROMBONE	1508	n/a	n/a	1	0.422607421875	0.5869140625	0	lower	zerothre.ttf
609.682	n/a	WORD	304841	wordpools/wasnorm_wordpool.txt	LTP066	ltpFR	17	3	0	CLARINET	317	n/a	n/a	1	0.422607421875	0.5869140625	0	lower	zerothre.ttf
613.666	n/a	WORD	306833	wordpools/wasnorm_wordpool.txt	LTP066	ltpFR	17	3	0	EMPLOYEE	531	n/a	n/a	1	0.422607421875	0.5869140625	0	lower	zerothre.ttf
617.548	n/a	WORD	308774	wordpools/wasnorm_wordpool.txt	LTP066	ltpFR	17	3	0	CRACKER	398	n/a	n/a	1	0.422607421875	0.5869140625	0	lower	zerothre.ttf
621.682	n/a	WORD	310841	wordpools/wasnorm_wordpool.txt	LTP066	ltpFR	17	3	0	MACARONI	851	n/a	n/a	0	0.422607421875	0.5869140625	0	lower	zerothre.ttf
625.658	n/a	WORD	312829	wordpools/wasnorm_wordpool.txt	LTP066	ltpFR	17	3	0	PORK	1108	n/a	n/a	0	0.422607421875	0.5869140625	0	lower	zerothre.ttf
629.874	n/a	WORD	314937	wordpools/wasnorm_wordpool.txt	LTP066	ltpFR	17	3	0	PAD	998	n/a	n/a	0	0.422607421875	0.5869140625	0	lower	zerothre.ttf
633.748	n/a	WORD	316874	wordpools/wasnorm_wordpool.txt	LTP066	ltpFR	17	3	0	RIB	1188	n/a	n/a	0	0.422607421875	0.5869140625	0	lower	zerothre.ttf
637.84	n/a	WORD	318920	wordpools/wasnorm_wordpool.txt	LTP066	ltpFR	17	3	0	LIVER	833	n/a	n/a	0	0.422607421875	0.5869140625	0	lower	zerothre.ttf
641.974	n/a	WORD	320987	wordpools/wasnorm_wordpool.txt	LTP066	ltpFR	17	3	0	CAFE	216	n/a	n/a	1	0.422607421875	0.5869140625	0	lower	zerothre.ttf
647.724	n/a	REC_START	323862	n/a	LTP066	ltpFR	17	3	n/a	n/a	n/a	n/a	n/a	n/a	n/a	n/a	n/a	n/a	n/a
649.93	n/a	REC_WORD	324965	wordpools/wasnorm_wordpool.txt	LTP066	ltpFR	17	3	0	NEWSSTAND	949	n/a	n/a	1	n/a	n/a	n/a	n/a	n/a
655.128	n/a	REC_WORD	327564	wordpools/wasnorm_wordpool.txt	LTP066	ltpFR	17	3	0	CAFE	216	n/a	n/a	1	n/a	n/a	n/a	n/a	n/a
663.628	n/a	REC_WORD	331814	wordpools/wasnorm_wordpool.txt	LTP066	ltpFR	17	3	0	PERSON	1052	n/a	n/a	1	n/a	n/a	n/a	n/a	n/a
667.64	n/a	REC_WORD	333820	wordpools/wasnorm_wordpool.txt	LTP066	ltpFR	17	3	0	PEDESTRIAN	1038	n/a	n/a	1	n/a	n/a	n/a	n/a	n/a
673.736	n/a	REC_WORD	336868	wordpools/wasnorm_wordpool.txt	LTP066	ltpFR	17	3	0	MUSHROOM	934	n/a	n/a	0	n/a	n/a	n/a	n/a	n/a
678.516	n/a	REC_WORD	339258	wordpools/wasnorm_wordpool.txt	LTP066	ltpFR	17	3	0	THESAURUS	1454	n/a	n/a	0	n/a	n/a	n/a	n/a	n/a
682.89	n/a	REC_WORD	341445	wordpools/wasnorm_wordpool.txt	LTP066	ltpFR	17	3	0	SNAKE	1333	n/a	n/a	0	n/a	n/a	n/a	n/a	n/a
684.212	n/a	REC_WORD	342106	wordpools/wasnorm_wordpool.txt	LTP066	ltpFR	17	3	0	STY	1397	n/a	n/a	0	n/a	n/a	n/a	n/a	n/a
725.338	n/a	WORD	362669	wordpools/wasnorm_wordpool.txt	LTP066	ltpFR	17	4	-1	CLIPPERS	324	n/a	n/a	-1	1.0	1.0	1	upper	Verdana.ttf
729.272	n/a	WORD	364636	wordpools/wasnorm_wordpool.txt	LTP066	ltpFR	17	4	-1	WAGON	1578	n/a	n/a	-1	1.0	1.0	1	upper	Verdana.ttf
733.246	n/a	WORD	366623	wordpools/wasnorm_wordpool.txt	LTP066	ltpFR	17	4	-1	ENGINEER	536	n/a	n/a	-1	1.0	1.0	1	upper	Verdana.ttf
737.33	n/a	WORD	368665	wordpools/wasnorm_wordpool.txt	LTP066	ltpFR	17	4	-1	PICNIC	1060	n/a	n/a	-1	1.0	1.0	1	upper	Verdana.ttf
741.462	n/a	WORD	370731	wordpools/wasnorm_wordpool.txt	LTP066	ltpFR	17	4	-1	TICK	1463	n/a	n/a	-1	1.0	1.0	1	upper	Verdana.ttf
745.462	n/a	WORD	372731	wordpools/wasnorm_wordpool.txt	LTP066	ltpFR	17	4	-1	RIVER	1194	n/a	n/a	-1	1.0	1.0	1	upper	Verdana.ttf
749.512	n/a	WORD	374756	wordpools/wasnorm_wordpool.txt	LTP066	ltpFR	17	4	-1	POOL	1103	n/a	n/a	-1	1.0	1.0	1	upper	Verdana.ttf
753.488	n/a	WORD	376744	wordpools/wasnorm_wordpool.txt	LTP066	ltpFR	17	4	-1	MOB	904	n/a	n/a	-1	1.0	1.0	1	upper	Verdana.ttf
757.538	n/a	WORD	378769	wordpools/wasnorm_wordpool.txt	LTP066	ltpFR	17	4	-1	TWIN	1528	n/a	n/a	-1	1.0	1.0	1	upper	Verdana.ttf
761.712	n/a	WORD	380856	wordpools/wasnorm_wordpool.txt	LTP066	ltpFR	17	4	-1	EWE	542	n/a	n/a	-1	1.0	1.0	1	upper	Verdana.ttf
765.62	n/a	WORD	382810	wordpools/wasnorm_wordpool.txt	LTP066	ltpFR	17	4	-1	BAY	102	n/a	n/a	-1	1.0	1.0	1	upper	Verdana.ttf
769.504	n/a	WORD	384752	wordpools/wasnorm_wordpool.txt	LTP066	ltpFR	17	4	-1	MARSH	874	n/a	n/a	-1	1.0	1.0	1	upper	Verdana.ttf
773.596	n/a	WORD	386798	wordpools/wasnorm_wordpool.txt	LTP066	ltpFR	17	4	-1	BOXER	160	n/a	n/a	-1	1.0	1.0	1	upper	Verdana.ttf
777.802	n/a	WORD	388901	wordpools/wasnorm_wordpool.txt	LTP066	ltpFR	17	4	-1	QUARTER	1148	n/a	n/a	-1	1.0	1.0	1	upper	Verdana.ttf
781.868	n/a	WORD	390934	wordpools/wasnorm_wordpool.txt	LTP066	ltpFR	17	4	-1	SUPERMARKET	1409	n/a	n/a	-1	1.0	1.0	1	upper	Verdana.ttf
785.944	n/a	WORD	392972	wordpools/wasnorm_wordpool.txt	LTP066	ltpFR	17	4	-1	HERD	705	n/a	n/a	-1	1.0	1.0	1	upper	Verdana.ttf
791.786	n/a	REC_START	395893	n/a	LTP066	ltpFR	17	4	n/a	n/a	n/a	n/a	n/a	n/a	n/a	n/a	n/a	n/a	n/a
792.944	n/a	REC_WORD	396472	wordpools/wasnorm_wordpool.txt	LTP066	ltpFR	17	4	-1	SUPERMARKET	1409	n/a	n/a	-1	n/a	n/a	n/a	n/a	n/a
794.34	n/a	REC_WORD	397170	wordpools/wasnorm_wordpool.txt	LTP066	ltpFR	17	4	-1	HERD	705	n/a	n/a	-1	n/a	n/a	n/a	n/a	n/a
821.276	n/a	REC_WORD	410638	wordpools/wasnorm_wordpool.txt	LTP066	ltpFR	17	4	-1	MARSH	874	n/a	n/a	-1	n/a	n/a	n/a	n/a	n/a
822.452	n/a	REC_WORD	411226	wordpools/wasnorm_wordpool.txt	LTP066	ltpFR	17	4	-1	BAY	102	n/a	n/a	-1	n/a	n/a	n/a	n/a	n/a
829.322	n/a	REC_WORD	414661	wordpools/wasnorm_wordpool.txt	LTP066	ltpFR	17	4	-1	CLIPPERS	324	n/a	n/a	-1	n/a	n/a	n/a	n/a	n/a
830.18	n/a	REC_WORD	415090	wordpools/wasnorm_wordpool.txt	LTP066	ltpFR	17	4	-1	WAGON	1578	n/a	n/a	-1	n/a	n/a	n/a	n/a	n/a
835.21	n/a	REC_WORD	417605	wordpools/wasnorm_wordpool.txt	LTP066	ltpFR	17	4	-1	TICK	1463	n/a	n/a	-1	n/a	n/a	n/a	n/a	n/a
837.954	n/a	REC_WORD	418977	wordpools/wasnorm_wordpool.txt	LTP066	ltpFR	17	4	-1	ENGINEER	536	n/a	n/a	-1	n/a	n/a	n/a	n/a	n/a
851.822	n/a	REC_WORD	425911	wordpools/wasnorm_wordpool.txt	LTP066	ltpFR	17	4	-1	PICNIC	1060	n/a	n/a	-1	n/a	n/a	n/a	n/a	n/a
870.534	n/a	WORD	435267	wordpools/wasnorm_wordpool.txt	LTP066	ltpFR	17	5	-1	SEAL	1262	n/a	n/a	-1	1.0	1.0	1	upper	Verdana.ttf
874.626	n/a	WORD	437313	wordpools/wasnorm_wordpool.txt	LTP066	ltpFR	17	5	-1	MUFFIN	929	n/a	n/a	-1	1.0	1.0	1	upper	Verdana.ttf
878.684	n/a	WORD	439342	wordpools/wasnorm_wordpool.txt	LTP066	ltpFR	17	5	-1	DINER	467	n/a	n/a	-1	1.0	1.0	1	upper	Verdana.ttf
882.882	n/a	WORD	441441	wordpools/wasnorm_wordpool.txt	LTP066	ltpFR	17	5	-1	PICK	1058	n/a	n/a	-1	1.0	1.0	1	upper	Verdana.ttf
886.942	n/a	WORD	443471	wordpools/wasnorm_wordpool.txt	LTP066	ltpFR	17	5	-1	WALRUS	1585	n/a	n/a	-1	1.0	1.0	1	upper	Verdana.ttf
890.89	n/a	WORD	445445	wordpools/wasnorm_wordpool.txt	LTP066	ltpFR	17	5	-1	MARINE	869	n/a	n/a	-1	1.0	1.0	1	upper	Verdana.ttf
894.808	n/a	WORD	447404	wordpools/wasnorm_wordpool.txt	LTP066	ltpFR	17	5	-1	VINEGAR	1569	n/a	n/a	-1	1.0	1.0	1	upper	Verdana.ttf
898.892	n/a	WORD	449446	wordpools/wasnorm_wordpool.txt	LTP066	ltpFR	17	5	-1	RECORD	1176	n/a	n/a	-1	1.0	1.0	1	upper	Verdana.ttf
903.016	n/a	WORD	451508	wordpools/wasnorm_wordpool.txt	LTP066	ltpFR	17	5	-1	BAKER	71	n/a	n/a	-1	1.0	1.0	1	upper	Verdana.ttf
906.942	n/a	WORD	453471	wordpools/wasnorm_wordpool.txt	LTP066	ltpFR	17	5	-1	HAMMER	680	n/a	n/a	-1	1.0	1.0	1	upper	Verdana.ttf
910.84	n/a	WORD	455420	wordpools/wasnorm_wordpool.txt	LTP066	ltpFR	17	5	-1	SAW	1239	n/a	n/a	-1	1.0	1.0	1	upper	Verdana.ttf
914.69	n/a	WORD	457345	wordpools/wasnorm_wordpool.txt	LTP066	ltpFR	17	5	-1	MACHINE	852	n/a	n/a	-1	1.0	1.0	1	upper	Verdana.ttf
918.874	n/a	WORD	459437	wordpools/wasnorm_wordpool.txt	LTP066	ltpFR	17	5	-1	LAGOON	795	n/a	n/a	-1	1.0	1.0	1	upper	Verdana.ttf
923.074	n/a	WORD	461537	wordpools/wasnorm_wordpool.txt	LTP066	ltpFR	17	5	-1	BRIDGE	174	n/a	n/a	-1	1.0	1.0	1	upper	Verdana.ttf
927.182	n/a	WORD	463591	wordpools/wasnorm_wordpool.txt	LTP066	ltpFR	17	5	-1	SHEPHERD	1283	n/a	n/a	-1	1.0	1.0	1	upper	Verdana.ttf
931.216	n/a	WORD	465608	wordpools/wasnorm_wordpool.txt	LTP066	ltpFR	17	5	-1	DRUM	502	n/a	n/a	-1	1.0	1.0	1	upper	Verdana.ttf
937.15	n/a	REC_START	468575	n/a	LTP066	ltpFR	17	5	n/a	n/a	n/a	n/a	n/a	n/a	n/a	n/a	n/a	n/a	n/a
938.084	n/a	REC_WORD	469042	wordpools/wasnorm_wordpool.txt	LTP066	ltpFR	17	5	-1	SHEPHERD	1283	n/a	n/a	-1	n/a	n/a	n/a	n/a	n/a
939.426	n/a	REC_WORD	469713	wordpools/wasnorm_wordpool.txt	LTP066	ltpFR	17	5	-1	DRUM	502	n/a	n/a	-1	n/a	n/a	n/a	n/a	n/a
944.738	n/a	REC_WORD	472369	wordpools/wasnorm_wordpool.txt	LTP066	ltpFR	17	5	-1	SEAL	1262	n/a	n/a	-1	n/a	n/a	n/a	n/a	n/a
945.85	n/a	REC_WORD	472925	wordpools/wasnorm_wordpool.txt	LTP066	ltpFR	17	5	-1	MUFFIN	929	n/a	n/a	-1	n/a	n/a	n/a	n/a	n/a
947.322	n/a	REC_WORD	473661	wordpools/wasnorm_wordpool.txt	LTP066	ltpFR	17	5	-1	DINER	467	n/a	n/a	-1	n/a	n/a	n/a	n/a	n/a
948.748	n/a	REC_WORD	474374	wordpools/wasnorm_wordpool.txt	LTP066	ltpFR	17	5	-1	PICK	1058	n/a	n/a	-1	n/a	n/a	n/a	n/a	n/a
950.096	n/a	REC_WORD	475048	wordpools/wasnorm_wordpool.txt	LTP066	ltpFR	17	5	-1	MARINE	869	n/a	n/a	-1	n/a	n/a	n/a	n/a	n/a
951.372	n/a	REC_WORD	475686	wordpools/wasnorm_wordpool.txt	LTP066	ltpFR	17	5	-1	VINEGAR	1569	n/a	n/a	-1	n/a	n/a	n/a	n/a	n/a
953.204	n/a	REC_WORD	476602	wordpools/wasnorm_wordpool.txt	LTP066	ltpFR	17	5	-1	BAKER	71	n/a	n/a	-1	n/a	n/a	n/a	n/a	n/a
954.34	n/a	REC_WORD	477170	wordpools/wasnorm_wordpool.txt	LTP066	ltpFR	17	5	-1	HAMMER	680	n/a	n/a	-1	n/a	n/a	n/a	n/a	n/a
955.838	n/a	REC_WORD	477919	wordpools/wasnorm_wordpool.txt	LTP066	ltpFR	17	5	-1	SAW	1239	n/a	n/a	-1	n/a	n/a	n/a	n/a	n/a
963.372	n/a	REC_WORD	481686	wordpools/wasnorm_wordpool.txt	LTP066	ltpFR	17	5	-1	LAGOON	795	n/a	n/a	-1	n/a	n/a	n/a	n/a	n/a
965.092	n/a	REC_WORD	482546	wordpools/wasnorm_wordpool.txt	LTP066	ltpFR	17	5	-1	BRIDGE	174	n/a	n/a	-1	n/a	n/a	n/a	n/a	n/a
967.542	n/a	REC_WORD	483771	wordpools/wasnorm_wordpool.txt	LTP066	ltpFR	17	5	-1	SHEPHERD	1283	n/a	n/a	-1	n/a	n/a	n/a	n/a	n/a
972.78	n/a	REC_WORD	486390	wordpools/wasnorm_wordpool.txt	LTP066	ltpFR	17	5	-1	DRUM	502	n/a	n/a	-1	n/a	n/a	n/a	n/a	n/a
1020.03	n/a	WORD	510015	wordpools/wasnorm_wordpool.txt	LTP066	ltpFR	17	6	1	CREEK	404	n/a	n/a	0	0.57763671875	0.412841796875	1	upper	amplitud.ttf
1023.88	n/a	WORD	511940	wordpools/wasnorm_wordpool.txt	LTP066	ltpFR	17	6	1	CABLE	213	n/a	n/a	0	0.57763671875	0.412841796875	1	upper	amplitud.ttf
1027.746	n/a	WORD	513873	wordpools/wasnorm_wordpool.txt	LTP066	ltpFR	17	6	0	CONSOLE	364	n/a	n/a	1	0.422607421875	0.5869140625	0	lower	zerothre.ttf
1031.688	n/a	WORD	515844	wordpools/wasnorm_wordpool.txt	LTP066	ltpFR	17	6	0	TEMPLE	1448	n/a	n/a	1	0.422607421875	0.5869140625	0	lower	zerothre.ttf
1035.878	n/a	WORD	517939	wordpools/wasnorm_wordpool.txt	LTP066	ltpFR	17	6	0	POPE	1105	n/a	n/a	1	0.422607421875	0.5869140625	0	lower	zerothre.ttf
1040.022	n/a	WORD	520011	wordpools/wasnorm_wordpool.txt	LTP066	ltpFR	17	6	0	FIST	572	n/a	n/a	0	0.422607421875	0.5869140625	0	lower	zerothre.ttf
1044.18	n/a	WORD	522090	wordpools/wasnorm_wordpool.txt	LTP066	ltpFR	17	6	1	HOSE	720	n/a	n/a	0	0.57763671875	0.412841796875	1	upper	amplitud.ttf
1048.238	n/a	WORD	524119	wordpools/wasnorm_wordpool.txt	LTP066	ltpFR	17	6	1	INTESTINE	742	n/a	n/a	1	0.57763671875	0.412841796875	1	upper	amplitud.ttf
1052.312	n/a	WORD	526156	wordpools/wasnorm_wordpool.txt	LTP066	ltpFR	17	6	0	PAWN	1030	n/a	n/a	1	0.422607421875	0.5869140625	0	lower	zerothre.ttf
1056.146	n/a	WORD	528073	wordpools/wasnorm_wordpool.txt	LTP066	ltpFR	17	6	0	THORN	1459	n/a	n/a	0	0.422607421875	0.5869140625	0	lower	zerothre.ttf
1060.154	n/a	WORD	530077	wordpools/wasnorm_wordpool.txt	LTP066	ltpFR	17	6	0	TREE	1502	n/a	n/a	1	0.422607421875	0.5869140625	0	lower	zerothre.ttf
1064.162	n/a	WORD	532081	wordpools/wasnorm_wordpool.txt	LTP066	ltpFR	17	6	0	GLOVE	642	n/a	n/a	0	0.422607421875	0.5869140625	0	lower	zerothre.ttf
1068.012	n/a	WORD	534006	wordpools/wasnorm_wordpool.txt	LTP066	ltpFR	17	6	1	OWNER	993	n/a	n/a	1	0.57763671875	0.412841796875	1	upper	amplitud.ttf
1072.104	n/a	WORD	536052	wordpools/wasnorm_wordpool.txt	LTP066	ltpFR	17	6	1	MULE	931	n/a	n/a	1	0.57763671875	0.412841796875	1	upper	amplitud.ttf
1076.07	n/a	WORD	538035	wordpools/wasnorm_wordpool.txt	LTP066	ltpFR	17	6	1	BARTENDER	92	n/a	n/a	1	0.57763671875	0.412841796875	1	upper	amplitud.ttf
1080.028	n/a	WORD	540014	wordpools/wasnorm_wordpool.txt	LTP066	ltpFR	17	6	1	GRAVEL	659	n/a	n/a	0	0.57763671875	0.412841796875	1	upper	amplitud.ttf
1085.98	n/a	REC_START	542990	n/a	LTP066	ltpFR	17	6	n/a	n/a	n/a	n/a	n/a	n/a	n/a	n/a	n/a	n/a	n/a
1090.48	n/a	REC_WORD	545240	wordpools/wasnorm_wordpool.txt	LTP066	ltpFR	17	6	0	CONSOLE	364	n/a	n/a	1	n/a	n/a	n/a	n/a	n/a
1094.16	n/a	REC_WORD	547080	wordpools/wasnorm_wordpool.txt	LTP066	ltpFR	17	6	1	CABLE	213	n/a	n/a	0	n/a	n/a	n/a	n/a	n/a
1095.612	n/a	REC_WORD	547806	wordpools/wasnorm_wordpool.txt	LTP066	ltpFR	17	6	1	CREEK	404	n/a	n/a	0	n/a	n/a	n/a	n/a	n/a
1097.168	n/a	REC_WORD	548584	wordpools/wasnorm_wordpool.txt	LTP066	ltpFR	17	6	0	TEMPLE	1448	n/a	n/a	1	n/a	n/a	n/a	n/a	n/a
1099.084	n/a	REC_WORD	549542	wordpools/wasnorm_wordpool.txt	LTP066	ltpFR	17	6	0	POPE	1105	n/a	n/a	1	n/a	n/a	n/a	n/a	n/a
1103.296	n/a	REC_WORD	551648	wordpools/wasnorm_wordpool.txt	LTP066	ltpFR	17	6	0	FIST	572	n/a	n/a	0	n/a	n/a	n/a	n/a	n/a
1105.8	n/a	REC_WORD	552900	wordpools/wasnorm_wordpool.txt	LTP066	ltpFR	17	6	1	HOSE	720	n/a	n/a	0	n/a	n/a	n/a	n/a	n/a
1109.262	n/a	REC_WORD	554631	wordpools/wasnorm_wordpool.txt	LTP066	ltpFR	17	6	1	INTESTINE	742	n/a	n/a	1	n/a	n/a	n/a	n/a	n/a
1113.678	n/a	REC_WORD	556839	wordpools/wasnorm_wordpool.txt	LTP066	ltpFR	17	6	0	LIVER	833	n/a	n/a	0	n/a	n/a	n/a	n/a	n/a
1127.078	n/a	REC_WORD	563539	wordpools/wasnorm_wordpool.txt	LTP066	ltpFR	17	6	1	OWNER	993	n/a	n/a	1	n/a	n/a	n/a	n/a	n/a
1131.264	n/a	REC_WORD	565632	wordpools/wasnorm_wordpool.txt	LTP066	ltpFR	17	6	1	MULE	931	n/a	n/a	1	n/a	n/a	n/a	n/a	n/a
1164.96	n/a	WORD	582480	wordpools/wasnorm_wordpool.txt	LTP066	ltpFR	17	7	0	PADDING	999	n/a	n/a	1	0.422607421875	0.5869140625	0	lower	zerothre.ttf
1168.834	n/a	WORD	584417	wordpools/wasnorm_wordpool.txt	LTP066	ltpFR	17	7	0	PIANO	1057	n/a	n/a	1	0.422607421875	0.5869140625	0	lower	zerothre.ttf
1172.808	n/a	WORD	586404	wordpools/wasnorm_wordpool.txt	LTP066	ltpFR	17	7	0	FOREHEAD	592	n/a	n/a	0	0.422607421875	0.5869140625	0	lower	zerothre.ttf
1176.858	n/a	WORD	588429	wordpools/wasnorm_wordpool.txt	LTP066	ltpFR	17	7	0	TELEVISION	1447	n/a	n/a	1	0.422607421875	0.5869140625	0	lower	zerothre.ttf
1180.676	n/a	WORD	590338	wordpools/wasnorm_wordpool.txt	LTP066	ltpFR	17	7	0	MATTRESS	879	n/a	n/a	1	0.422607421875	0.5869140625	0	lower	zerothre.ttf
1184.782	n/a	WORD	592391	wordpools/wasnorm_wordpool.txt	LTP066	ltpFR	17	7	0	COIN	343	n/a	n/a	0	0.422607421875	0.5869140625	0	lower	zerothre.ttf
1188.784	n/a	WORD	594392	wordpools/wasnorm_wordpool.txt	LTP066	ltpFR	17	7	0	PENNY	1045	n/a	n/a	0	0.422607421875	0.5869140625	0	lower	zerothre.ttf
1192.76	n/a	WORD	596380	wordpools/wasnorm_wordpool.txt	LTP066	ltpFR	17	7	0	OBOE	969	n/a	n/a	1	0.422607421875	0.5869140625	0	lower	zerothre.ttf
1196.824	n/a	WORD	598412	wordpools/wasnorm_wordpool.txt	LTP066	ltpFR	17	7	0	CORK	380	n/a	n/a	0	0.422607421875	0.5869140625	0	lower	zerothre.ttf
1200.9	n/a	WORD	600450	wordpools/wasnorm_wordpool.txt	LTP066	ltpFR	17	7	0	BRANDY	169	n/a	n/a	1	0.422607421875	0.5869140625	0	lower	zerothre.ttf
1205.092	n/a	WORD	602546	wordpools/wasnorm_wordpool.txt	LTP066	ltpFR	17	7	0	SKIN	1318	n/a	n/a	0	0.422607421875	0.5869140625	0	lower	zerothre.ttf
1209.042	n/a	WORD	604521	wordpools/wasnorm_wordpool.txt	LTP066	ltpFR	17	7	0	FIREMAN	569	n/a	n/a	1	0.422607421875	0.5869140625	0	lower	zerothre.ttf
1213.076	n/a	WORD	606538	wordpools/wasnorm_wordpool.txt	LTP066	ltpFR	17	7	0	KETTLE	772	n/a	n/a	1	0.422607421875	0.5869140625	0	lower	zerothre.ttf
1216.958	n/a	WORD	608479	wordpools/wasnorm_wordpool.txt	LTP066	ltpFR	17	7	0	TROUT	1511	n/a	n/a	0	0.422607421875	0.5869140625	0	lower	zerothre.ttf
1220.85	n/a	WORD	610425	wordpools/wasnorm_wordpool.txt	LTP066	ltpFR	17	7	0	WRIST	1626	n/a	n/a	0	0.422607421875	0.5869140625	0	lower	zerothre.ttf
1224.684	n/a	WORD	612342	wordpools/wasnorm_wordpool.txt	LTP066	ltpFR	17	7	0	STUMP	1396	n/a	n/a	1	0.422607421875	0.5869140625	0	lower	zerothre.ttf
1230.634	n/a	REC_START	615317	n/a	LTP066	ltpFR	17	7	n/a	n/a	n/a	n/a	n/a	n/a	n/a	n/a	n/a	n/a	n/a
1240.298	n/a	REC_WORD	620149	wordpools/wasnorm_wordpool.txt	LTP066	ltpFR	17	7	0	PADDING	999	n/a	n/a	1	n/a	n/a	n/a	n/a	n/a
1242.392	n/a	REC_WORD	621196	wordpools/wasnorm_wordpool.txt	LTP066	ltpFR	17	7	0	PIANO	1057	n/a	n/a	1	n/a	n/a	n/a	n/a	n/a
1254.002	n/a	REC_WORD	627001	wordpools/wasnorm_wordpool.txt	LTP066	ltpFR	17	7	0	FOREHEAD	592	n/a	n/a	0	n/a	n/a	n/a	n/a	n/a
1256.702	n/a	REC_WORD	628351	wordpools/wasnorm_wordpool.txt	LTP066	ltpFR	17	7	0	TELEVISION	1447	n/a	n/a	1	n/a	n/a	n/a	n/a	n/a
1263.764	n/a	REC_WORD	631882	wordpools/wasnorm_wordpool.txt	LTP066	ltpFR	17	7	0	MATTRESS	879	n/a	n/a	1	n/a	n/a	n/a	n/a	n/a
1265.63	n/a	REC_WORD	632815	wordpools/wasnorm_wordpool.txt	LTP066	ltpFR	17	7	0	COIN	343	n/a	n/a	0	n/a	n/a	n/a	n/a	n/a
1268.04	n/a	REC_WORD	634020	wordpools/wasnorm_wordpool.txt	LTP066	ltpFR	17	7	0	PENNY	1045	n/a	n/a	0	n/a	n/a	n/a	n/a	n/a
1270.894	n/a	REC_WORD	635447	wordpools/wasnorm_wordpool.txt	LTP066	ltpFR	17	7	0	OBOE	969	n/a	n/a	1	n/a	n/a	n/a	n/a	n/a
1273.724	n/a	REC_WORD	636862	wordpools/wasnorm_wordpool.txt	LTP066	ltpFR	17	7	0	CLARINET	317	n/a	n/a	1	n/a	n/a	n/a	n/a	n/a
1277.02	n/a	REC_WORD	638510	wordpools/wasnorm_wordpool.txt	LTP066	ltpFR	17	7	0	CORK	380	n/a	n/a	0	n/a	n/a	n/a	n/a	n/a
1281.72	n/a	REC_WORD	640860	wordpools/wasnorm_wordpool.txt	LTP066	ltpFR	17	7	0	FIREMAN	569	n/a	n/a	1	n/a	n/a	n/a	n/a	n/a
1284.414	n/a	REC_WORD	642207	wordpools/wasnorm_wordpool.txt	LTP066	ltpFR	17	7	0	KETTLE	772	n/a	n/a	1	n/a	n/a	n/a	n/a	n/a
1311.172	n/a	WORD	655586	wordpools/wasnorm_wordpool.txt	LTP066	ltpFR	17	8	-1	MEDAL	885	n/a	n/a	-1	1.0	1.0	1	upper	Verdana.ttf
1315.056	n/a	WORD	657528	wordpools/wasnorm_wordpool.txt	LTP066	ltpFR	17	8	-1	VEGETABLE	1552	n/a	n/a	-1	1.0	1.0	1	upper	Verdana.ttf
1318.956	n/a	WORD	659478	wordpools/wasnorm_wordpool.txt	LTP066	ltpFR	17	8	-1	DUNGEON	507	n/a	n/a	-1	1.0	1.0	1	upper	Verdana.ttf
1322.854	n/a	WORD	661427	wordpools/wasnorm_wordpool.txt	LTP066	ltpFR	17	8	-1	EARRING	514	n/a	n/a	-1	1.0	1.0	1	upper	Verdana.ttf
1326.846	n/a	WORD	663423	wordpools/wasnorm_wordpool.txt	LTP066	ltpFR	17	8	-1	STRAWBERRY	1391	n/a	n/a	-1	1.0	1.0	1	upper	Verdana.ttf
1330.972	n/a	WORD	665486	wordpools/wasnorm_wordpool.txt	LTP066	ltpFR	17	8	-1	CONDUCTOR	362	n/a	n/a	-1	1.0	1.0	1	upper	Verdana.ttf
1334.88	n/a	WORD	667440	wordpools/wasnorm_wordpool.txt	LTP066	ltpFR	17	8	-1	ORCHESTRA	981	n/a	n/a	-1	1.0	1.0	1	upper	Verdana.ttf
1338.88	n/a	WORD	669440	wordpools/wasnorm_wordpool.txt	LTP066	ltpFR	17	8	-1	DESSERT	453	n/a	n/a	-1	1.0	1.0	1	upper	Verdana.ttf
1342.822	n/a	WORD	671411	wordpools/wasnorm_wordpool.txt	LTP066	ltpFR	17	8	-1	BALLOT	76	n/a	n/a	-1	1.0	1.0	1	upper	Verdana.ttf
1347.022	n/a	WORD	673511	wordpools/wasnorm_wordpool.txt	LTP066	ltpFR	17	8	-1	CANDIDATE	228	n/a	n/a	-1	1.0	1.0	1	upper	Verdana.ttf
1351.114	n/a	WORD	675557	wordpools/wasnorm_wordpool.txt	LTP066	ltpFR	17	8	-1	LAKE	796	n/a	n/a	-1	1.0	1.0	1	upper	Verdana.ttf
1355.288	n/a	WORD	677644	wordpools/wasnorm_wordpool.txt	LTP066	ltpFR	17	8	-1	FOSSIL	596	n/a	n/a	-1	1.0	1.0	1	upper	Verdana.ttf
1359.172	n/a	WORD	679586	wordpools/wasnorm_wordpool.txt	LTP066	ltpFR	17	8	-1	CATHEDRAL	260	n/a	n/a	-1	1.0	1.0	1	upper	Verdana.ttf
1363.322	n/a	WORD	681661	wordpools/wasnorm_wordpool.txt	LTP066	ltpFR	17	8	-1	BLACKBOARD	133	n/a	n/a	-1	1.0	1.0	1	upper	Verdana.ttf
1367.496	n/a	WORD	683748	wordpools/wasnorm_wordpool.txt	LTP066	ltpFR	17	8	-1	COLLEGE	346	n/a	n/a	-1	1.0	1.0	1	upper	Verdana.ttf
1371.388	n/a	WORD	685694	wordpools/wasnorm_wordpool.txt	LTP066	ltpFR	17	8	-1	CRIMINAL	409	n/a	n/a	-1	1.0	1.0	1	upper	Verdana.ttf
1377.206	n/a	REC_START	688603	n/a	LTP066	ltpFR	17	8	n/a	n/a	n/a	n/a	n/a	n/a	n/a	n/a	n/a	n/a	n/a
1378.008	n/a	REC_WORD	689004	wordpools/wasnorm_wordpool.txt	LTP066	ltpFR	17	8	-1	FOSSIL	596	n/a	n/a	-1	n/a	n/a	n/a	n/a	n/a
1379.326	n/a	REC_WORD	689663	wordpools/wasnorm_wordpool.txt	LTP066	ltpFR	17	8	-1	CATHEDRAL	260	n/a	n/a	-1	n/a	n/a	n/a	n/a	n/a
1380.678	n/a	REC_WORD	690339	wordpools/wasnorm_wordpool.txt	LTP066	ltpFR	17	8	-1	BLACKBOARD	133	n/a	n/a	-1	n/a	n/a	n/a	n/a	n/a
1382.318	n/a	REC_WORD	691159	wordpools/wasnorm_wordpool.txt	LTP066	ltpFR	17	8	-1	COLLEGE	346	n/a	n/a	-1	n/a	n/a	n/a	n/a	n/a
1387.108	n/a	REC_WORD	693554	wordpools/wasnorm_wordpool.txt	LTP066	ltpFR	17	8	-1	ORCHESTRA	981	n/a	n/a	-1	n/a	n/a	n/a	n/a	n/a
1388.954	n/a	REC_WORD	694477	wordpools/wasnorm_wordpool.txt	LTP066	ltpFR	17	8	-1	MEDAL	885	n/a	n/a	-1	n/a	n/a	n/a	n/a	n/a
1390.76	n/a	REC_WORD	695380	wordpools/wasnorm_wordpool.txt	LTP066	ltpFR	17	8	-1	DUNGEON	507	n/a	n/a	-1	n/a	n/a	n/a	n/a	n/a
1392.516	n/a	REC_WORD	696258	wordpools/wasnorm_wordpool.txt	LTP066	ltpFR	17	8	-1	VEGETABLE	1552	n/a	n/a	-1	n/a	n/a	n/a	n/a	n/a
1395.16	n/a	REC_WORD	697580	wordpools/wasnorm_wordpool.txt	LTP066	ltpFR	17	8	-1	CONDUCTOR	362	n/a	n/a	-1	n/a	n/a	n/a	n/a	n/a
1396.866	n/a	REC_WORD	698433	wordpools/wasnorm_wordpool.txt	LTP066	ltpFR	17	8	-1	EARRING	514	n/a	n/a	-1	n/a	n/a	n/a	n/a	n/a
1398.054	n/a	REC_WORD	699027	wordpools/wasnorm_wordpool.txt	LTP066	ltpFR	17	8	-1	STRAWBERRY	1391	n/a	n/a	-1	n/a	n/a	n/a	n/a	n/a
1401.736	n/a	REC_WORD	700868	wordpools/wasnorm_wordpool.txt	LTP066	ltpFR	17	8	-1	BALLOT	76	n/a	n/a	-1	n/a	n/a	n/a	n/a	n/a
1405.242	n/a	REC_WORD	702621	wordpools/wasnorm_wordpool.txt	LTP066	ltpFR	17	8	-1	CANDIDATE	228	n/a	n/a	-1	n/a	n/a	n/a	n/a	n/a
1412.726	n/a	REC_WORD	706363	wordpools/wasnorm_wordpool.txt	LTP066	ltpFR	17	8	-1	DESSERT	453	n/a	n/a	-1	n/a	n/a	n/a	n/a	n/a
1457.428	n/a	WORD	728714	wordpools/wasnorm_wordpool.txt	LTP066	ltpFR	17	9	1	INSTRUCTOR	741	n/a	n/a	1	0.57763671875	0.412841796875	1	upper	amplitud.ttf
1461.452	n/a	WORD	730726	wordpools/wasnorm_wordpool.txt	LTP066	ltpFR	17	9	1	FOUNTAIN	597	n/a	n/a	0	0.57763671875	0.412841796875	1	upper	amplitud.ttf
1465.544	n/a	WORD	732772	wordpools/wasnorm_wordpool.txt	LTP066	ltpFR	17	9	1	TUBE	1516	n/a	n/a	0	0.57763671875	0.412841796875	1	upper	amplitud.ttf
1469.51	n/a	WORD	734755	wordpools/wasnorm_wordpool.txt	LTP066	ltpFR	17	9	1	CLAY	320	n/a	n/a	0	0.57763671875	0.412841796875	1	upper	amplitud.ttf
1473.368	n/a	WORD	736684	wordpools/wasnorm_wordpool.txt	LTP066	ltpFR	17	9	1	VOLLEYBALL	1576	n/a	n/a	0	0.57763671875	0.412841796875	1	upper	amplitud.ttf
1477.418	n/a	WORD	738709	wordpools/wasnorm_wordpool.txt	LTP066	ltpFR	17	9	1	CUSTARD	429	n/a	n/a	0	0.57763671875	0.412841796875	1	upper	amplitud.ttf
1481.602	n/a	WORD	740801	wordpools/wasnorm_wordpool.txt	LTP066	ltpFR	17	9	1	TEACHER	1440	n/a	n/a	1	0.57763671875	0.412841796875	1	upper	amplitud.ttf
1485.76	n/a	WORD	742880	wordpools/wasnorm_wordpool.txt	LTP066	ltpFR	17	9	1	PAINTER	1004	n/a	n/a	1	0.57763671875	0.412841796875	1	upper	amplitud.ttf
1489.944	n/a	WORD	744972	wordpools/wasnorm_wordpool.txt	LTP066	ltpFR	17	9	1	BUGLE	189	n/a	n/a	0	0.57763671875	0.412841796875	1	upper	amplitud.ttf
1493.76	n/a	WORD	746880	wordpools/wasnorm_wordpool.txt	LTP066	ltpFR	17	9	1	ARENA	37	n/a	n/a	0	0.57763671875	0.412841796875	1	upper	amplitud.ttf
1497.808	n/a	WORD	748904	wordpools/wasnorm_wordpool.txt	LTP066	ltpFR	17	9	1	SHRIMP	1297	n/a	n/a	1	0.57763671875	0.412841796875	1	upper	amplitud.ttf
1501.784	n/a	WORD	750892	wordpools/wasnorm_wordpool.txt	LTP066	ltpFR	17	9	1	WAITER	1580	n/a	n/a	n/a	0.57763671875	0.412841796875	1	upper	amplitud.ttf
1504.808	n/a	SLOW_MSG	752404	n/a	LTP066	ltpFR	17	9	n/a	n/a	n/a	n/a	n/a	n/a	n/a	n/a	n/a	n/a	n/a
1507.126	n/a	WORD	753563	wordpools/wasnorm_wordpool.txt	LTP066	ltpFR	17	9	1	METEOR	889	n/a	n/a	0	0.57763671875	0.412841796875	1	upper	amplitud.ttf
1511.2	n/a	WORD	755600	wordpools/wasnorm_wordpool.txt	LTP066	ltpFR	17	9	1	ASTEROID	50	n/a	n/a	0	0.57763671875	0.412841796875	1	upper	amplitud.ttf
1515.284	n/a	WORD	757642	wordpools/wasnorm_wordpool.txt	LTP066	ltpFR	17	9	1	BRAIN	165	n/a	n/a	0	0.57763671875	0.412841796875	1	upper	amplitud.ttf
1519.176	n/a	WORD	759588	wordpools/wasnorm_wordpool.txt	LTP066	ltpFR	17	9	1	HOSPITAL	721	n/a	n/a	0	0.57763671875	0.412841796875	1	upper	amplitud.ttf
1524.868	n/a	REC_START	762434	n/a	LTP066	ltpFR	17	9	n/a	n/a	n/a	n/a	n/a	n/a	n/a	n/a	n/a	n/a	n/a
1526.334	n/a	REC_WORD	763167	wordpools/wasnorm_wordpool.txt	LTP066	ltpFR	17	9	1	METEOR	889	n/a	n/a	0	n/a	n/a	n/a	n/a	n/a
1527.476	n/a	REC_WORD	763738	wordpools/wasnorm_wordpool.txt	LTP066	ltpFR	17	9	1	ASTEROID	50	n/a	n/a	0	n/a	n/a	n/a	n/a	n/a
1529.986	n/a	REC_WORD	764993	wordpools/wasnorm_wordpool.txt	LTP066	ltpFR	17	9	1	BRAIN	165	n/a	n/a	0	n/a	n/a	n/a	n/a	n/a
1538.766	n/a	REC_WORD	769383	wordpools/wasnorm_wordpool.txt	LTP066	ltpFR	17	9	1	INSTRUCTOR	741	n/a	n/a	1	n/a	n/a	n/a	n/a	n/a
1540.342	n/a	REC_WORD	770171	wordpools/wasnorm_wordpool.txt	LTP066	ltpFR	17	9	1	FOUNTAIN	597	n/a	n/a	0	n/a	n/a	n/a	n/a	n/a
1542.174	n/a	REC_WORD	771087	wordpools/wasnorm_wordpool.txt	LTP066	ltpFR	17	9	1	TUBE	1516	n/a	n/a	0	n/a	n/a	n/a	n/a	n/a
1543.596	n/a	REC_WORD	771798	wordpools/wasnorm_wordpool.txt	LTP066	ltpFR	17	9	1	CLAY	320	n/a	n/a	0	n/a	n/a	n/a	n/a	n/a
1544.962	n/a	REC_WORD	772481	wordpools/wasnorm_wordpool.txt	LTP066	ltpFR	17	9	1	VOLLEYBALL	1576	n/a	n/a	0	n/a	n/a	n/a	n/a	n/a
1546.668	n/a	REC_WORD	773334	wordpools/wasnorm_wordpool.txt	LTP066	ltpFR	17	9	1	CUSTARD	429	n/a	n/a	0	n/a	n/a	n/a	n/a	n/a
1548.256	n/a	REC_WORD	774128	wordpools/wasnorm_wordpool.txt	LTP066	ltpFR	17	9	1	TEACHER	1440	n/a	n/a	1	n/a	n/a	n/a	n/a	n/a
1555.688	n/a	REC_WORD	777844	wordpools/wasnorm_wordpool.txt	LTP066	ltpFR	17	9	1	PAINTER	1004	n/a	n/a	1	n/a	n/a	n/a	n/a	n/a
1609.382	n/a	WORD	804691	wordpools/wasnorm_wordpool.txt	LTP066	ltpFR	17	10	0	CANAL	226	n/a	n/a	1	0.422607421875	0.5869140625	0	lower	zerothre.ttf
1613.398	n/a	WORD	806699	wordpools/wasnorm_wordpool.txt	LTP066	ltpFR	17	10	0	SNORKEL	1336	n/a	n/a	0	0.422607421875	0.5869140625	0	lower	zerothre.ttf
1617.464	n/a	WORD	808732	wordpools/wasnorm_wordpool.txt	LTP066	ltpFR	17	10	0	TUNA	1518	n/a	n/a	0	0.422607421875	0.5869140625	0	lower	zerothre.ttf
1621.656	n/a	WORD	810828	wordpools/wasnorm_wordpool.txt	LTP066	ltpFR	17	10	0	COBBLER	335	n/a	n/a	0	0.422607421875	0.5869140625	0	lower	zerothre.ttf
1625.848	n/a	WORD	812924	wordpools/wasnorm_wordpool.txt	LTP066	ltpFR	17	10	0	AIRCRAFT	11	n/a	n/a	1	0.422607421875	0.5869140625	0	lower	zerothre.ttf
1629.982	n/a	WORD	814991	wordpools/wasnorm_wordpool.txt	LTP066	ltpFR	17	10	0	BUTCHER	203	n/a	n/a	1	0.422607421875	0.5869140625	0	lower	zerothre.ttf
1633.956	n/a	WORD	816978	wordpools/wasnorm_wordpool.txt	LTP066	ltpFR	17	10	1	IDOL	733	n/a	n/a	1	0.57763671875	0.412841796875	1	upper	amplitud.ttf
1638.072	n/a	WORD	819036	wordpools/wasnorm_wordpool.txt	LTP066	ltpFR	17	10	1	BLACKBERRY	132	n/a	n/a	1	0.57763671875	0.412841796875	1	upper	amplitud.ttf
1641.98	n/a	WORD	820990	wordpools/wasnorm_wordpool.txt	LTP066	ltpFR	17	10	1	FOOTBALL	591	n/a	n/a	0	0.57763671875	0.412841796875	1	upper	amplitud.ttf
1645.872	n/a	WORD	822936	wordpools/wasnorm_wordpool.txt	LTP066	ltpFR	17	10	1	PUCK	1138	n/a	n/a	0	0.57763671875	0.412841796875	1	upper	amplitud.ttf
1649.74	n/a	WORD	824870	wordpools/wasnorm_wordpool.txt	LTP066	ltpFR	17	10	0	FLY	586	n/a	n/a	0	0.422607421875	0.5869140625	0	lower	zerothre.ttf
1653.672	n/a	WORD	826836	wordpools/wasnorm_wordpool.txt	LTP066	ltpFR	17	10	0	RAFT	1159	n/a	n/a	1	0.422607421875	0.5869140625	0	lower	zerothre.ttf
1657.722	n/a	WORD	828861	wordpools/wasnorm_wordpool.txt	LTP066	ltpFR	17	10	1	SLUG	1329	n/a	n/a	1	0.57763671875	0.412841796875	1	upper	amplitud.ttf
1661.888	n/a	WORD	830944	wordpools/wasnorm_wordpool.txt	LTP066	ltpFR	17	10	1	STOOL	1386	n/a	n/a	0	0.57763671875	0.412841796875	1	upper	amplitud.ttf
1666.03	n/a	WORD	833015	wordpools/wasnorm_wordpool.txt	LTP066	ltpFR	17	10	1	KEG	770	n/a	n/a	0	0.57763671875	0.412841796875	1	upper	amplitud.ttf
1670.114	n/a	WORD	835057	wordpools/wasnorm_wordpool.txt	LTP066	ltpFR	17	10	1	CHAPEL	280	n/a	n/a	0	0.57763671875	0.412841796875	1	upper	amplitud.ttf
1675.914	n/a	REC_START	837957	n/a	LTP066	ltpFR	17	10	n/a	n/a	n/a	n/a	n/a	n/a	n/a	n/a	n/a	n/a	n/a
1679.27	n/a	REC_WORD	839635	wordpools/wasnorm_wordpool.txt	LTP066	ltpFR	17	10	1	STOOL	1386	n/a	n/a	0	n/a	n/a	n/a	n/a	n/a
1680.528	n/a	REC_WORD	840264	wordpools/wasnorm_wordpool.txt	LTP066	ltpFR	17	10	1	KEG	770	n/a	n/a	0	n/a	n/a	n/a	n/a	n/a
1681.864	n/a	REC_WORD	840932	wordpools/wasnorm_wordpool.txt	LTP066	ltpFR	17	10	1	CHAPEL	280	n/a	n/a	0	n/a	n/a	n/a	n/a	n/a
1683.182	n/a	REC_WORD	841591	wordpools/wasnorm_wordpool.txt	LTP066	ltpFR	17	10	0	FLY	586	n/a	n/a	0	n/a	n/a	n/a	n/a	n/a
1690.356	n/a	REC_WORD	845178	wordpools/wasnorm_wordpool.txt	LTP066	ltpFR	17	10	1	BLACKBERRY	132	n/a	n/a	1	n/a	n/a	n/a	n/a	n/a
1691.518	n/a	REC_WORD	845759	wordpools/wasnorm_wordpool.txt	LTP066	ltpFR	17	10	0	BUTCHER	203	n/a	n/a	1	n/a	n/a	n/a	n/a	n/a
1692.706	n/a	REC_WORD	846353	wordpools/wasnorm_wordpool.txt	LTP066	ltpFR	17	10	0	AIRCRAFT	11	n/a	n/a	1	n/a	n/a	n/a	n/a	n/a
1694.966	n/a	REC_WORD	847483	wordpools/wasnorm_wordpool.txt	LTP066	ltpFR	17	10	1	IDOL	733	n/a	n/a	1	n/a	n/a	n/a	n/a	n/a
1696.412	n/a	REC_WORD	848206	wordpools/wasnorm_wordpool.txt	LTP066	ltpFR	17	10	0	RAFT	1159	n/a	n/a	1	n/a	n/a	n/a	n/a	n/a
1712.252	n/a	REC_WORD	856126	wordpools/wasnorm_wordpool.txt	LTP066	ltpFR	17	10	1	SLUG	1329	n/a	n/a	1	n/a	n/a	n/a	n/a	n/a
1715.122	n/a	REC_WORD	857561	wordpools/wasnorm_wordpool.txt	LTP066	ltpFR	17	10	0	TUNA	1518	n/a	n/a	0	n/a	n/a	n/a	n/a	n/a
1717.042	n/a	REC_WORD	858521	wordpools/wasnorm_wordpool.txt	LTP066	ltpFR	17	10	0	SNORKEL	1336	n/a	n/a	0	n/a	n/a	n/a	n/a	n/a
1719.966	n/a	REC_WORD	859983	wordpools/wasnorm_wordpool.txt	LTP066	ltpFR	17	10	0	COBBLER	335	n/a	n/a	0	n/a	n/a	n/a	n/a	n/a
1763.186	n/a	WORD	881593	wordpools/wasnorm_wordpool.txt	LTP066	ltpFR	17	11	1	GARBAGE	622	n/a	n/a	0	0.57763671875	0.412841796875	1	upper	amplitud.ttf
1767.178	n/a	WORD	883589	wordpools/wasnorm_wordpool.txt	LTP066	ltpFR	17	11	1	DUMP	505	n/a	n/a	0	0.57763671875	0.412841796875	1	upper	amplitud.ttf
1771.344	n/a	WORD	885672	wordpools/wasnorm_wordpool.txt	LTP066	ltpFR	17	11	1	BRACELET	163	n/a	n/a	0	0.57763671875	0.412841796875	1	upper	amplitud.ttf
1775.31	n/a	WORD	887655	wordpools/wasnorm_wordpool.txt	LTP066	ltpFR	17	11	1	RACCOON	1153	n/a	n/a	1	0.57763671875	0.412841796875	1	upper	amplitud.ttf
1779.32	n/a	WORD	889660	wordpools/wasnorm_wordpool.txt	LTP066	ltpFR	17	11	1	SENATOR	1268	n/a	n/a	1	0.57763671875	0.412841796875	1	upper	amplitud.ttf
1783.202	n/a	WORD	891601	wordpools/wasnorm_wordpool.txt	LTP066	ltpFR	17	11	1	GRAVE	658	n/a	n/a	0	0.57763671875	0.412841796875	1	upper	amplitud.ttf
1787.044	n/a	WORD	893522	wordpools/wasnorm_wordpool.txt	LTP066	ltpFR	17	11	1	NET	946	n/a	n/a	0	0.57763671875	0.412841796875	1	upper	amplitud.ttf
1791.22	n/a	WORD	895610	wordpools/wasnorm_wordpool.txt	LTP066	ltpFR	17	11	1	CITRUS	313	n/a	n/a	1	0.57763671875	0.412841796875	1	upper	amplitud.ttf
1795.186	n/a	WORD	897593	wordpools/wasnorm_wordpool.txt	LTP066	ltpFR	17	11	1	KIDNEY	776	n/a	n/a	1	0.57763671875	0.412841796875	1	upper	amplitud.ttf
1799.286	n/a	WORD	899643	wordpools/wasnorm_wordpool.txt	LTP066	ltpFR	17	11	1	VEAL	1551	n/a	n/a	0	0.57763671875	0.412841796875	1	upper	amplitud.ttf
1803.468	n/a	WORD	901734	wordpools/wasnorm_wordpool.txt	LTP066	ltpFR	17	11	1	FUGITIVE	612	n/a	n/a	0	0.57763671875	0.412841796875	1	upper	amplitud.ttf
1807.46	n/a	WORD	903730	wordpools/wasnorm_wordpool.txt	LTP066	ltpFR	17	11	1	BANDIT	81	n/a	n/a	1	0.57763671875	0.412841796875	1	upper	amplitud.ttf
1811.668	n/a	WORD	905834	wordpools/wasnorm_wordpool.txt	LTP066	ltpFR	17	11	1	HONEY	713	n/a	n/a	0	0.57763671875	0.412841796875	1	upper	amplitud.ttf
1815.786	n/a	WORD	907893	wordpools/wasnorm_wordpool.txt	LTP066	ltpFR	17	11	1	SHOVEL	1295	n/a	n/a	0	0.57763671875	0.412841796875	1	upper	amplitud.ttf
1819.984	n/a	WORD	909992	wordpools/wasnorm_wordpool.txt	LTP066	ltpFR	17	11	1	VET	1560	n/a	n/a	1	0.57763671875	0.412841796875	1	upper	amplitud.ttf
1824.142	n/a	WORD	912071	wordpools/wasnorm_wordpool.txt	LTP066	ltpFR	17	11	1	PEARL	1034	n/a	n/a	0	0.57763671875	0.412841796875	1	upper	amplitud.ttf
1829.918	n/a	REC_START	914959	n/a	LTP066	ltpFR	17	11	n/a	n/a	n/a	n/a	n/a	n/a	n/a	n/a	n/a	n/a	n/a
1832.786	n/a	REC_WORD	916393	wordpools/wasnorm_wordpool.txt	LTP066	ltpFR	17	11	1	GARBAGE	622	n/a	n/a	0	n/a	n/a	n/a	n/a	n/a
1833.85	n/a	REC_WORD	916925	wordpools/wasnorm_wordpool.txt	LTP066	ltpFR	17	11	1	DUMP	505	n/a	n/a	0	n/a	n/a	n/a	n/a	n/a
1835.232	n/a	REC_WORD	917616	wordpools/wasnorm_wordpool.txt	LTP066	ltpFR	17	11	1	BRACELET	163	n/a	n/a	0	n/a	n/a	n/a	n/a	n/a
1837.332	n/a	REC_WORD	918666	wordpools/wasnorm_wordpool.txt	LTP066	ltpFR	17	11	1	RACCOON	1153	n/a	n/a	1	n/a	n/a	n/a	n/a	n/a
1838.742	n/a	REC_WORD	919371	wordpools/wasnorm_wordpool.txt	LTP066	ltpFR	17	11	1	SENATOR	1268	n/a	n/a	1	n/a	n/a	n/a	n/a	n/a
1843.442	n/a	REC_WORD	921721	wordpools/wasnorm_wordpool.txt	LTP066	ltpFR	17	11	0	LIVER	833	n/a	n/a	0	n/a	n/a	n/a	n/a	n/a
1851.33	n/a	REC_WORD	925665	wordpools/wasnorm_wordpool.txt	LTP066	ltpFR	17	11	1	GRAVE	658	n/a	n/a	0	n/a	n/a	n/a	n/a	n/a
1852.626	n/a	REC_WORD	926313	wordpools/wasnorm_wordpool.txt	LTP066	ltpFR	17	11	1	SHOVEL	1295	n/a	n/a	0	n/a	n/a	n/a	n/a	n/a
1854.214	n/a	REC_WORD	927107	wordpools/wasnorm_wordpool.txt	LTP066	ltpFR	17	11	1	NET	946	n/a	n/a	0	n/a	n/a	n/a	n/a	n/a
1856.234	n/a	REC_WORD	928117	wordpools/wasnorm_wordpool.txt	LTP066	ltpFR	17	11	1	CITRUS	313	n/a	n/a	1	n/a	n/a	n/a	n/a	n/a
1858.724	n/a	REC_WORD	929362	wordpools/wasnorm_wordpool.txt	LTP066	ltpFR	17	11	1	PEARL	1034	n/a	n/a	0	n/a	n/a	n/a	n/a	n/a
1909.04	n/a	WORD	954520	wordpools/wasnorm_wordpool.txt	LTP066	ltpFR	17	12	1	COWBOY	395	n/a	n/a	1	0.57763671875	0.412841796875	1	upper	amplitud.ttf
1913.106	n/a	WORD	956553	wordpools/wasnorm_wordpool.txt	LTP066	ltpFR	17	12	1	TUSK	1523	n/a	n/a	0	0.57763671875	0.412841796875	1	upper	amplitud.ttf
1916.958	n/a	WORD	958479	wordpools/wasnorm_wordpool.txt	LTP066	ltpFR	17	12	1	AUNT	60	n/a	n/a	1	0.57763671875	0.412841796875	1	upper	amplitud.ttf
1921.158	n/a	WORD	960579	wordpools/wasnorm_wordpool.txt	LTP066	ltpFR	17	12	1	CATERPILLAR	259	n/a	n/a	1	0.57763671875	0.412841796875	1	upper	amplitud.ttf
1925.332	n/a	WORD	962666	wordpools/wasnorm_wordpool.txt	LTP066	ltpFR	17	12	1	WARRIOR	1589	n/a	n/a	1	0.57763671875	0.412841796875	1	upper	amplitud.ttf
1929.44	n/a	WORD	964720	wordpools/wasnorm_wordpool.txt	LTP066	ltpFR	17	12	1	BLUEPRINT	142	n/a	n/a	0	0.57763671875	0.412841796875	1	upper	amplitud.ttf
1933.548	n/a	WORD	966774	wordpools/wasnorm_wordpool.txt	LTP066	ltpFR	17	12	1	PRAIRIE	1118	n/a	n/a	1	0.57763671875	0.412841796875	1	upper	amplitud.ttf
1937.674	n/a	WORD	968837	wordpools/wasnorm_wordpool.txt	LTP066	ltpFR	17	12	1	CARRIAGE	248	n/a	n/a	0	0.57763671875	0.412841796875	1	upper	amplitud.ttf
1941.798	n/a	WORD	970899	wordpools/wasnorm_wordpool.txt	LTP066	ltpFR	17	12	1	BLOUSE	139	n/a	n/a	0	0.57763671875	0.412841796875	1	upper	amplitud.ttf
1945.614	n/a	WORD	972807	wordpools/wasnorm_wordpool.txt	LTP066	ltpFR	17	12	1	ARTIST	43	n/a	n/a	1	0.57763671875	0.412841796875	1	upper	amplitud.ttf
1949.532	n/a	WORD	974766	wordpools/wasnorm_wordpool.txt	LTP066	ltpFR	17	12	1	MUSEUM	933	n/a	n/a	0	0.57763671875	0.412841796875	1	upper	amplitud.ttf
1953.664	n/a	WORD	976832	wordpools/wasnorm_wordpool.txt	LTP066	ltpFR	17	12	1	BALCONY	72	n/a	n/a	0	0.57763671875	0.412841796875	1	upper	amplitud.ttf
1957.624	n/a	WORD	978812	wordpools/wasnorm_wordpool.txt	LTP066	ltpFR	17	12	1	WALL	1582	n/a	n/a	0	0.57763671875	0.412841796875	1	upper	amplitud.ttf
1961.806	n/a	WORD	980903	wordpools/wasnorm_wordpool.txt	LTP066	ltpFR	17	12	1	ARMY	39	n/a	n/a	1	0.57763671875	0.412841796875	1	upper	amplitud.ttf
1965.69	n/a	WORD	982845	wordpools/wasnorm_wordpool.txt	LTP066	ltpFR	17	12	1	LAPEL	800	n/a	n/a	0	0.57763671875	0.412841796875	1	upper	amplitud.ttf
1969.622	n/a	WORD	984811	wordpools/wasnorm_wordpool.txt	LTP066	ltpFR	17	12	1	GANGSTER	620	n/a	n/a	1	0.57763671875	0.412841796875	1	upper	amplitud.ttf
1975.34	n/a	REC_START	987670	n/a	LTP066	ltpFR	17	12	n/a	n/a	n/a	n/a	n/a	n/a	n/a	n/a	n/a	n/a	n/a
1978.138	n/a	REC_WORD	989069	wordpools/wasnorm_wordpool.txt	LTP066	ltpFR	17	12	1	BALCONY	72	n/a	n/a	0	n/a	n/a	n/a	n/a	n/a
1979.51	n/a	REC_WORD	989755	wordpools/wasnorm_wordpool.txt	LTP066	ltpFR	17	12	1	LAPEL	800	n/a	n/a	0	n/a	n/a	n/a	n/a	n/a
1981.58	n/a	REC_WORD	990790	wordpools/wasnorm_wordpool.txt	LTP066	ltpFR	17	12	1	GANGSTER	620	n/a	n/a	1	n/a	n/a	n/a	n/a	n/a
1985.104	n/a	REC_WORD	992552	wordpools/wasnorm_wordpool.txt	LTP066	ltpFR	17	12	1	COWBOY	395	n/a	n/a	1	n/a	n/a	n/a	n/a	n/a
1988.33	n/a	REC_WORD	994165	wordpools/wasnorm_wordpool.txt	LTP066	ltpFR	17	12	1	PRAIRIE	1118	n/a	n/a	1	n/a	n/a	n/a	n/a	n/a
1989.818	n/a	REC_WORD	994909	wordpools/wasnorm_wordpool.txt	LTP066	ltpFR	17	12	1	AUNT	60	n/a	n/a	1	n/a	n/a	n/a	n/a	n/a
1991.892	n/a	REC_WORD	995946	wordpools/wasnorm_wordpool.txt	LTP066	ltpFR	17	12	1	WARRIOR	1589	n/a	n/a	1	n/a	n/a	n/a	n/a	n/a
2050.952	n/a	REST_REWET	1025476	n/a	LTP066	ltpFR	17	12	n/a	n/a	n/a	n/a	n/a	n/a	n/a	n/a	n/a	n/a	n/a
2445.468	n/a	WORD	1222734	wordpools/wasnorm_wordpool.txt	LTP066	ltpFR	17	13	0	STATUE	1374	n/a	n/a	1	0.422607421875	0.5869140625	0	lower	zerothre.ttf
2449.652	n/a	WORD	1224826	wordpools/wasnorm_wordpool.txt	LTP066	ltpFR	17	13	0	CAMEL	223	n/a	n/a	1	0.422607421875	0.5869140625	0	lower	zerothre.ttf
2453.584	n/a	WORD	1226792	wordpools/wasnorm_wordpool.txt	LTP066	ltpFR	17	13	1	CIGAR	308	n/a	n/a	0	0.57763671875	0.412841796875	1	upper	amplitud.ttf
2457.768	n/a	WORD	1228884	wordpools/wasnorm_wordpool.txt	LTP066	ltpFR	17	13	1	SKIRT	1319	n/a	n/a	0	0.57763671875	0.412841796875	1	upper	amplitud.ttf
2461.858	n/a	WORD	1230929	wordpools/wasnorm_wordpool.txt	LTP066	ltpFR	17	13	1	GOLD	647	n/a	n/a	0	0.57763671875	0.412841796875	1	upper	amplitud.ttf
2465.826	n/a	WORD	1232913	wordpools/wasnorm_wordpool.txt	LTP066	ltpFR	17	13	1	WHIP	1604	n/a	n/a	0	0.57763671875	0.412841796875	1	upper	amplitud.ttf
2469.76	n/a	WORD	1234880	wordpools/wasnorm_wordpool.txt	LTP066	ltpFR	17	13	0	MOSQUITO	917	n/a	n/a	0	0.422607421875	0.5869140625	0	lower	zerothre.ttf
2473.692	n/a	WORD	1236846	wordpools/wasnorm_wordpool.txt	LTP066	ltpFR	17	13	0	HERO	706	n/a	n/a	1	0.422607421875	0.5869140625	0	lower	zerothre.ttf
2477.792	n/a	WORD	1238896	wordpools/wasnorm_wordpool.txt	LTP066	ltpFR	17	13	0	WAIST	1579	n/a	n/a	1	0.422607421875	0.5869140625	0	lower	zerothre.ttf
2481.784	n/a	WORD	1240892	wordpools/wasnorm_wordpool.txt	LTP066	ltpFR	17	13	0	CHOCOLATE	306	n/a	n/a	0	0.422607421875	0.5869140625	0	lower	zerothre.ttf
2485.934	n/a	WORD	1242967	wordpools/wasnorm_wordpool.txt	LTP066	ltpFR	17	13	1	ROOF	1205	n/a	n/a	0	0.57763671875	0.412841796875	1	upper	amplitud.ttf
2490.126	n/a	WORD	1245063	wordpools/wasnorm_wordpool.txt	LTP066	ltpFR	17	13	1	SHACK	1273	n/a	n/a	0	0.57763671875	0.412841796875	1	upper	amplitud.ttf
2494.058	n/a	WORD	1247029	wordpools/wasnorm_wordpool.txt	LTP066	ltpFR	17	13	1	GLOBE	641	n/a	n/a	0	0.57763671875	0.412841796875	1	upper	amplitud.ttf
2497.898	n/a	WORD	1248949	wordpools/wasnorm_wordpool.txt	LTP066	ltpFR	17	13	1	MONUMENT	913	n/a	n/a	0	0.57763671875	0.412841796875	1	upper	amplitud.ttf
2501.992	n/a	WORD	1250996	wordpools/wasnorm_wordpool.txt	LTP066	ltpFR	17	13	0	PASTRY	1022	n/a	n/a	0	0.422607421875	0.5869140625	0	lower	zerothre.ttf
2506.034	n/a	WORD	1253017	wordpools/wasnorm_wordpool.txt	LTP066	ltpFR	17	13	0	BALLERINA	74	n/a	n/a	1	0.422607421875	0.5869140625	0	lower	zerothre.ttf
2511.734	n/a	REC_START	1255867	n/a	LTP066	ltpFR	17	13	n/a	n/a	n/a	n/a	n/a	n/a	n/a	n/a	n/a	n/a	n/a
2513.134	n/a	REC_WORD	1256567	wordpools/wasnorm_wordpool.txt	LTP066	ltpFR	17	13	1	GLOBE	641	n/a	n/a	0	n/a	n/a	n/a	n/a	n/a
2514.308	n/a	REC_WORD	1257154	wordpools/wasnorm_wordpool.txt	LTP066	ltpFR	17	13	1	MONUMENT	913	n/a	n/a	0	n/a	n/a	n/a	n/a	n/a
2515.524	n/a	REC_WORD	1257762	wordpools/wasnorm_wordpool.txt	LTP066	ltpFR	17	13	0	PASTRY	1022	n/a	n/a	0	n/a	n/a	n/a	n/a	n/a
2519.99	n/a	REC_WORD	1259995	wordpools/wasnorm_wordpool.txt	LTP066	ltpFR	17	13	0	BALLERINA	74	n/a	n/a	1	n/a	n/a	n/a	n/a	n/a
2522.878	n/a	REC_WORD_VV	1261439	wordpools/wasnorm_wordpool.txt	LTP066	ltpFR	17	13	n/a	<>	-1	n/a	n/a	n/a	n/a	n/a	n/a	n/a	n/a
2523.378	n/a	REC_WORD	1261689	wordpools/wasnorm_wordpool.txt	LTP066	ltpFR	17	13	0	STATUE	1374	n/a	n/a	1	n/a	n/a	n/a	n/a	n/a
2524.63	n/a	REC_WORD	1262315	wordpools/wasnorm_wordpool.txt	LTP066	ltpFR	17	13	0	CAMEL	223	n/a	n/a	1	n/a	n/a	n/a	n/a	n/a
2525.592	n/a	REC_WORD	1262796	wordpools/wasnorm_wordpool.txt	LTP066	ltpFR	17	13	1	CIGAR	308	n/a	n/a	0	n/a	n/a	n/a	n/a	n/a
2527.938	n/a	REC_WORD	1263969	wordpools/wasnorm_wordpool.txt	LTP066	ltpFR	17	13	1	SKIRT	1319	n/a	n/a	0	n/a	n/a	n/a	n/a	n/a
2531.29	n/a	REC_WORD	1265645	wordpools/wasnorm_wordpool.txt	LTP066	ltpFR	17	13	1	GOLD	647	n/a	n/a	0	n/a	n/a	n/a	n/a	n/a
2532.816	n/a	REC_WORD	1266408	wordpools/wasnorm_wordpool.txt	LTP066	ltpFR	17	13	1	WHIP	1604	n/a	n/a	0	n/a	n/a	n/a	n/a	n/a
2535.72	n/a	REC_WORD	1267860	wordpools/wasnorm_wordpool.txt	LTP066	ltpFR	17	13	0	MOSQUITO	917	n/a	n/a	0	n/a	n/a	n/a	n/a	n/a
2561.782	n/a	REC_WORD	1280891	wordpools/wasnorm_wordpool.txt	LTP066	ltpFR	17	13	0	HERO	706	n/a	n/a	1	n/a	n/a	n/a	n/a	n/a
2566.218	n/a	REC_WORD	1283109	wordpools/wasnorm_wordpool.txt	LTP066	ltpFR	17	13	0	WAIST	1579	n/a	n/a	1	n/a	n/a	n/a	n/a	n/a
2567.276	n/a	REC_WORD	1283638	wordpools/wasnorm_wordpool.txt	LTP066	ltpFR	17	13	0	CHOCOLATE	306	n/a	n/a	0	n/a	n/a	n/a	n/a	n/a
2568.402	n/a	REC_WORD	1284201	wordpools/wasnorm_wordpool.txt	LTP066	ltpFR	17	13	1	ROOF	1205	n/a	n/a	0	n/a	n/a	n/a	n/a	n/a
2569.714	n/a	REC_WORD	1284857	wordpools/wasnorm_wordpool.txt	LTP066	ltpFR	17	13	1	SHACK	1273	n/a	n/a	0	n/a	n/a	n/a	n/a	n/a
2573.576	n/a	REC_WORD	1286788	wordpools/wasnorm_wordpool.txt	LTP066	ltpFR	17	13	1	GLOBE	641	n/a	n/a	0	n/a	n/a	n/a	n/a	n/a
2592.172	n/a	WORD	1296086	wordpools/wasnorm_wordpool.txt	LTP066	ltpFR	17	14	1	PRIEST	1122	n/a	n/a	1	0.57763671875	0.412841796875	1	upper	amplitud.ttf
2596.006	n/a	WORD	1298003	wordpools/wasnorm_wordpool.txt	LTP066	ltpFR	17	14	1	PREACHER	1119	n/a	n/a	1	0.57763671875	0.412841796875	1	upper	amplitud.ttf
2599.838	n/a	WORD	1299919	wordpools/wasnorm_wordpool.txt	LTP066	ltpFR	17	14	1	ALMOND	18	n/a	n/a	0	0.57763671875	0.412841796875	1	upper	amplitud.ttf
2603.99	n/a	WORD	1301995	wordpools/wasnorm_wordpool.txt	LTP066	ltpFR	17	14	0	ACORN	3	n/a	n/a	0	0.422607421875	0.5869140625	0	lower	zerothre.ttf
2608.056	n/a	WORD	1304028	wordpools/wasnorm_wordpool.txt	LTP066	ltpFR	17	14	0	ANTELOPE	27	n/a	n/a	1	0.422607421875	0.5869140625	0	lower	zerothre.ttf
2611.964	n/a	WORD	1305982	wordpools/wasnorm_wordpool.txt	LTP066	ltpFR	17	14	1	APRON	35	n/a	n/a	0	0.57763671875	0.412841796875	1	upper	amplitud.ttf
2615.972	n/a	WORD	1307986	wordpools/wasnorm_wordpool.txt	LTP066	ltpFR	17	14	1	XEROX	1628	n/a	n/a	0	0.57763671875	0.412841796875	1	upper	amplitud.ttf
2619.98	n/a	WORD	1309990	wordpools/wasnorm_wordpool.txt	LTP066	ltpFR	17	14	1	COLONEL	348	n/a	n/a	0	0.57763671875	0.412841796875	1	upper	amplitud.ttf
2624.172	n/a	WORD	1312086	wordpools/wasnorm_wordpool.txt	LTP066	ltpFR	17	14	1	ELK	526	n/a	n/a	1	0.57763671875	0.412841796875	1	upper	amplitud.ttf
2628.18	n/a	WORD	1314090	wordpools/wasnorm_wordpool.txt	LTP066	ltpFR	17	14	1	RADIATOR	1156	n/a	n/a	0	0.57763671875	0.412841796875	1	upper	amplitud.ttf
2632.256	n/a	WORD	1316128	wordpools/wasnorm_wordpool.txt	LTP066	ltpFR	17	14	0	ANTENNA	28	n/a	n/a	1	0.422607421875	0.5869140625	0	lower	zerothre.ttf
2636.364	n/a	WORD	1318182	wordpools/wasnorm_wordpool.txt	LTP066	ltpFR	17	14	0	TRICYCLE	1506	n/a	n/a	1	0.422607421875	0.5869140625	0	lower	zerothre.ttf
2640.422	n/a	WORD	1320211	wordpools/wasnorm_wordpool.txt	LTP066	ltpFR	17	14	0	IRON	744	n/a	n/a	0	0.422607421875	0.5869140625	0	lower	zerothre.ttf
2644.48	n/a	WORD	1322240	wordpools/wasnorm_wordpool.txt	LTP066	ltpFR	17	14	0	COMMANDER	354	n/a	n/a	1	0.422607421875	0.5869140625	0	lower	zerothre.ttf
2648.664	n/a	WORD	1324332	wordpools/wasnorm_wordpool.txt	LTP066	ltpFR	17	14	0	POCKETBOOK	1094	n/a	n/a	0	0.422607421875	0.5869140625	0	lower	zerothre.ttf
2652.822	n/a	WORD	1326411	wordpools/wasnorm_wordpool.txt	LTP066	ltpFR	17	14	0	ANT	25	n/a	n/a	0	0.422607421875	0.5869140625	0	lower	zerothre.ttf
2658.796	n/a	REC_START	1329398	n/a	LTP066	ltpFR	17	14	n/a	n/a	n/a	n/a	n/a	n/a	n/a	n/a	n/a	n/a	n/a
2660.658	n/a	REC_WORD	1330329	wordpools/wasnorm_wordpool.txt	LTP066	ltpFR	17	14	0	TRICYCLE	1506	n/a	n/a	1	n/a	n/a	n/a	n/a	n/a
2661.72	n/a	REC_WORD	1330860	wordpools/wasnorm_wordpool.txt	LTP066	ltpFR	17	14	0	COMMANDER	354	n/a	n/a	1	n/a	n/a	n/a	n/a	n/a
2662.772	n/a	REC_WORD	1331386	wordpools/wasnorm_wordpool.txt	LTP066	ltpFR	17	14	0	ANT	25	n/a	n/a	0	n/a	n/a	n/a	n/a	n/a
2663.686	n/a	REC_WORD	1331843	wordpools/wasnorm_wordpool.txt	LTP066	ltpFR	17	14	0	POCKETBOOK	1094	n/a	n/a	0	n/a	n/a	n/a	n/a	n/a
2665.512	n/a	REC_WORD	1332756	wordpools/wasnorm_wordpool.txt	LTP066	ltpFR	17	14	1	COLONEL	348	n/a	n/a	0	n/a	n/a	n/a	n/a	n/a
2667.448	n/a	REC_WORD	1333724	wordpools/wasnorm_wordpool.txt	LTP066	ltpFR	17	14	1	PRIEST	1122	n/a	n/a	1	n/a	n/a	n/a	n/a	n/a
2668.546	n/a	REC_WORD	1334273	wordpools/wasnorm_wordpool.txt	LTP066	ltpFR	17	14	1	PREACHER	1119	n/a	n/a	1	n/a	n/a	n/a	n/a	n/a
2669.818	n/a	REC_WORD	1334909	wordpools/wasnorm_wordpool.txt	LTP066	ltpFR	17	14	1	ALMOND	18	n/a	n/a	0	n/a	n/a	n/a	n/a	n/a
2672.446	n/a	REC_WORD	1336223	wordpools/wasnorm_wordpool.txt	LTP066	ltpFR	17	14	0	ACORN	3	n/a	n/a	0	n/a	n/a	n/a	n/a	n/a
2674.92	n/a	REC_WORD	1337460	wordpools/wasnorm_wordpool.txt	LTP066	ltpFR	17	14	0	ANTELOPE	27	n/a	n/a	1	n/a	n/a	n/a	n/a	n/a
2678.582	n/a	REC_WORD	1339291	wordpools/wasnorm_wordpool.txt	LTP066	ltpFR	17	14	0	ANTENNA	28	n/a	n/a	1	n/a	n/a	n/a	n/a	n/a
2747.386	n/a	WORD	1373693	wordpools/wasnorm_wordpool.txt	LTP066	ltpFR	17	15	0	PASSENGER	1020	n/a	n/a	1	0.422607421875	0.5869140625	0	lower	zerothre.ttf
2751.552	n/a	WORD	1375776	wordpools/wasnorm_wordpool.txt	LTP066	ltpFR	17	15	0	SEED	1266	n/a	n/a	0	0.422607421875	0.5869140625	0	lower	zerothre.ttf
2755.66	n/a	WORD	1377830	wordpools/wasnorm_wordpool.txt	LTP066	ltpFR	17	15	0	CUP	424	n/a	n/a	0	0.422607421875	0.5869140625	0	lower	zerothre.ttf
2759.826	n/a	WORD	1379913	wordpools/wasnorm_wordpool.txt	LTP066	ltpFR	17	15	0	COMPASS	358	n/a	n/a	0	0.422607421875	0.5869140625	0	lower	zerothre.ttf
2763.734	n/a	WORD	1381867	wordpools/wasnorm_wordpool.txt	LTP066	ltpFR	17	15	0	DOUGH	489	n/a	n/a	0	0.422607421875	0.5869140625	0	lower	zerothre.ttf
2767.56	n/a	WORD	1383780	wordpools/wasnorm_wordpool.txt	LTP066	ltpFR	17	15	0	HOME	712	n/a	n/a	0	0.422607421875	0.5869140625	0	lower	zerothre.ttf
2771.486	n/a	WORD	1385743	wordpools/wasnorm_wordpool.txt	LTP066	ltpFR	17	15	0	BATTERY	101	n/a	n/a	0	0.422607421875	0.5869140625	0	lower	zerothre.ttf
2775.31	n/a	WORD	1387655	wordpools/wasnorm_wordpool.txt	LTP066	ltpFR	17	15	0	WINDSHIELD	1612	n/a	n/a	1	0.422607421875	0.5869140625	0	lower	zerothre.ttf
2779.344	n/a	WORD	1389672	wordpools/wasnorm_wordpool.txt	LTP066	ltpFR	17	15	0	LILY	821	n/a	n/a	0	0.422607421875	0.5869140625	0	lower	zerothre.ttf
2783.242	n/a	WORD	1391621	wordpools/wasnorm_wordpool.txt	LTP066	ltpFR	17	15	0	RESTAURANT	1187	n/a	n/a	1	0.422607421875	0.5869140625	0	lower	zerothre.ttf
2787.192	n/a	WORD	1393596	wordpools/wasnorm_wordpool.txt	LTP066	ltpFR	17	15	0	TICKET	1464	n/a	n/a	0	0.422607421875	0.5869140625	0	lower	zerothre.ttf
2791.276	n/a	WORD	1395638	wordpools/wasnorm_wordpool.txt	LTP066	ltpFR	17	15	0	DRYER	503	n/a	n/a	1	0.422607421875	0.5869140625	0	lower	zerothre.ttf
2795.31	n/a	WORD	1397655	wordpools/wasnorm_wordpool.txt	LTP066	ltpFR	17	15	0	HANGER	687	n/a	n/a	0	0.422607421875	0.5869140625	0	lower	zerothre.ttf
2799.334	n/a	WORD	1399667	wordpools/wasnorm_wordpool.txt	LTP066	ltpFR	17	15	0	STAPLER	1372	n/a	n/a	0	0.422607421875	0.5869140625	0	lower	zerothre.ttf
2803.326	n/a	WORD	1401663	wordpools/wasnorm_wordpool.txt	LTP066	ltpFR	17	15	0	JOINT	758	n/a	n/a	1	0.422607421875	0.5869140625	0	lower	zerothre.ttf
2807.376	n/a	WORD	1403688	wordpools/wasnorm_wordpool.txt	LTP066	ltpFR	17	15	0	JAPAN	749	n/a	n/a	1	0.422607421875	0.5869140625	0	lower	zerothre.ttf
2813.294	n/a	REC_START	1406647	n/a	LTP066	ltpFR	17	15	n/a	n/a	n/a	n/a	n/a	n/a	n/a	n/a	n/a	n/a	n/a
2814.71	n/a	REC_WORD	1407355	wordpools/wasnorm_wordpool.txt	LTP066	ltpFR	17	15	0	JOINT	758	n/a	n/a	1	n/a	n/a	n/a	n/a	n/a
2815.662	n/a	REC_WORD	1407831	wordpools/wasnorm_wordpool.txt	LTP066	ltpFR	17	15	0	HANGER	687	n/a	n/a	0	n/a	n/a	n/a	n/a	n/a
2816.49	n/a	REC_WORD	1408245	wordpools/wasnorm_wordpool.txt	LTP066	ltpFR	17	15	0	STAPLER	1372	n/a	n/a	0	n/a	n/a	n/a	n/a	n/a
2818.522	n/a	REC_WORD	1409261	wordpools/wasnorm_wordpool.txt	LTP066	ltpFR	17	15	0	RESTAURANT	1187	n/a	n/a	1	n/a	n/a	n/a	n/a	n/a
2825.196	n/a	REC_WORD	1412598	wordpools/wasnorm_wordpool.txt	LTP066	ltpFR	17	15	0	JAPAN	749	n/a	n/a	1	n/a	n/a	n/a	n/a	n/a
2835.798	n/a	REC_WORD	1417899	wordpools/wasnorm_wordpool.txt	LTP066	ltpFR	17	15	0	PASSENGER	1020	n/a	n/a	1	n/a	n/a	n/a	n/a	n/a
2838.482	n/a	REC_WORD	1419241	wordpools/wasnorm_wordpool.txt	LTP066	ltpFR	17	15	0	SEED	1266	n/a	n/a	0	n/a	n/a	n/a	n/a	n/a
2839.908	n/a	REC_WORD	1419954	wordpools/wasnorm_wordpool.txt	LTP066	ltpFR	17	15	0	CUP	424	n/a	n/a	0	n/a	n/a	n/a	n/a	n/a
2841.062	n/a	REC_WORD	1420531	wordpools/wasnorm_wordpool.txt	LTP066	ltpFR	17	15	0	COMPASS	358	n/a	n/a	0	n/a	n/a	n/a	n/a	n/a
2843.41	n/a	REC_WORD	1421705	wordpools/wasnorm_wordpool.txt	LTP066	ltpFR	17	15	0	DOUGH	489	n/a	n/a	0	n/a	n/a	n/a	n/a	n/a
2845.466	n/a	REC_WORD	1422733	wordpools/wasnorm_wordpool.txt	LTP066	ltpFR	17	15	0	HOME	712	n/a	n/a	0	n/a	n/a	n/a	n/a	n/a
2847.092	n/a	REC_WORD	1423546	wordpools/wasnorm_wordpool.txt	LTP066	ltpFR	17	15	0	BATTERY	101	n/a	n/a	0	n/a	n/a	n/a	n/a	n/a
2850.5	n/a	REC_WORD	1425250	wordpools/wasnorm_wordpool.txt	LTP066	ltpFR	17	15	0	WINDSHIELD	1612	n/a	n/a	1	n/a	n/a	n/a	n/a	n/a
2857.18	n/a	REC_WORD	1428590	wordpools/wasnorm_wordpool.txt	LTP066	ltpFR	17	15	0	HOME	712	n/a	n/a	0	n/a	n/a	n/a	n/a	n/a
2860.304	n/a	REC_WORD	1430152	wordpools/wasnorm_wordpool.txt	LTP066	ltpFR	17	15	0	LILY	821	n/a	n/a	0	n/a	n/a	n/a	n/a	n/a
2893.964	n/a	WORD	1446982	wordpools/wasnorm_wordpool.txt	LTP066	ltpFR	17	16	-1	EUROPE	541	n/a	n/a	-1	1.0	1.0	1	upper	Verdana.ttf
2897.806	n/a	WORD	1448903	wordpools/wasnorm_wordpool.txt	LTP066	ltpFR	17	16	-1	PROTON	1132	n/a	n/a	-1	1.0	1.0	1	upper	Verdana.ttf
2901.872	n/a	WORD	1450936	wordpools/wasnorm_wordpool.txt	LTP066	ltpFR	17	16	-1	PAW	1029	n/a	n/a	-1	1.0	1.0	1	upper	Verdana.ttf
2905.764	n/a	WORD	1452882	wordpools/wasnorm_wordpool.txt	LTP066	ltpFR	17	16	-1	CATCHER	258	n/a	n/a	-1	1.0	1.0	1	upper	Verdana.ttf
2909.772	n/a	WORD	1454886	wordpools/wasnorm_wordpool.txt	LTP066	ltpFR	17	16	-1	CORN	381	n/a	n/a	-1	1.0	1.0	1	upper	Verdana.ttf
2913.98	n/a	WORD	1456990	wordpools/wasnorm_wordpool.txt	LTP066	ltpFR	17	16	-1	SCARECROW	1245	n/a	n/a	-1	1.0	1.0	1	upper	Verdana.ttf
2918.032	n/a	WORD	1459016	wordpools/wasnorm_wordpool.txt	LTP066	ltpFR	17	16	-1	FLEA	577	n/a	n/a	-1	1.0	1.0	1	upper	Verdana.ttf
2921.856	n/a	WORD	1460928	wordpools/wasnorm_wordpool.txt	LTP066	ltpFR	17	16	-1	CLAW	319	n/a	n/a	-1	1.0	1.0	1	upper	Verdana.ttf
2925.756	n/a	WORD	1462878	wordpools/wasnorm_wordpool.txt	LTP066	ltpFR	17	16	-1	COMEDIAN	352	n/a	n/a	-1	1.0	1.0	1	upper	Verdana.ttf
2929.614	n/a	WORD	1464807	wordpools/wasnorm_wordpool.txt	LTP066	ltpFR	17	16	-1	GLASS	639	n/a	n/a	-1	1.0	1.0	1	upper	Verdana.ttf
2933.664	n/a	WORD	1466832	wordpools/wasnorm_wordpool.txt	LTP066	ltpFR	17	16	-1	WINDOW	1611	n/a	n/a	-1	1.0	1.0	1	upper	Verdana.ttf
2937.548	n/a	WORD	1468774	wordpools/wasnorm_wordpool.txt	LTP066	ltpFR	17	16	-1	OFFICE	972	n/a	n/a	-1	1.0	1.0	1	upper	Verdana.ttf
2941.606	n/a	WORD	1470803	wordpools/wasnorm_wordpool.txt	LTP066	ltpFR	17	16	-1	CANDLE	229	n/a	n/a	-1	1.0	1.0	1	upper	Verdana.ttf
2945.572	n/a	WORD	1472786	wordpools/wasnorm_wordpool.txt	LTP066	ltpFR	17	16	-1	CLOWN	330	n/a	n/a	-1	1.0	1.0	1	upper	Verdana.ttf
2949.78	n/a	WORD	1474890	wordpools/wasnorm_wordpool.txt	LTP066	ltpFR	17	16	-1	NEUTRON	947	n/a	n/a	-1	1.0	1.0	1	upper	Verdana.ttf
2953.788	n/a	WORD	1476894	wordpools/wasnorm_wordpool.txt	LTP066	ltpFR	17	16	-1	FOOT	590	n/a	n/a	-1	1.0	1.0	1	upper	Verdana.ttf
2959.622	n/a	REC_START	1479811	n/a	LTP066	ltpFR	17	16	n/a	n/a	n/a	n/a	n/a	n/a	n/a	n/a	n/a	n/a	n/a
2961.578	n/a	REC_WORD	1480789	wordpools/wasnorm_wordpool.txt	LTP066	ltpFR	17	16	-1	EUROPE	541	n/a	n/a	-1	n/a	n/a	n/a	n/a	n/a
2962.836	n/a	REC_WORD	1481418	wordpools/wasnorm_wordpool.txt	LTP066	ltpFR	17	16	-1	PROTON	1132	n/a	n/a	-1	n/a	n/a	n/a	n/a	n/a
2964.826	n/a	REC_WORD	1482413	wordpools/wasnorm_wordpool.txt	LTP066	ltpFR	17	16	-1	PAW	1029	n/a	n/a	-1	n/a	n/a	n/a	n/a	n/a
2968.118	n/a	REC_WORD	1484059	wordpools/wasnorm_wordpool.txt	LTP066	ltpFR	17	16	-1	CATCHER	258	n/a	n/a	-1	n/a	n/a	n/a	n/a	n/a
2973.67	n/a	REC_WORD	1486835	wordpools/wasnorm_wordpool.txt	LTP066	ltpFR	17	16	-1	CORN	381	n/a	n/a	-1	n/a	n/a	n/a	n/a	n/a
3000.82	n/a	REC_WORD	1500410	wordpools/wasnorm_wordpool.txt	LTP066	ltpFR	17	16	-1	WINDOW	1611	n/a	n/a	-1	n/a	n/a	n/a	n/a	n/a
3002.672	n/a	REC_WORD	1501336	wordpools/wasnorm_wordpool.txt	LTP066	ltpFR	17	16	-1	GLASS	639	n/a	n/a	-1	n/a	n/a	n/a	n/a	n/a
3061.438	n/a	REC_START	1530719	n/a	LTP066	ltpFR	17	1	n/a	n/a	n/a	n/a	n/a	n/a	n/a	n/a	n/a	n/a	n/a
3061.47	n/a	RECOG_LURE	1530735	n/a	LTP066	ltpFR	17	1	n/a	CROSS	413	1	3	n/a	n/a	n/a	n/a	n/a	n/a
3064.122	n/a	RECOG_RESP_VV	1532061	n/a	LTP066	ltpFR	17	1	n/a	CROSS	413	0	n/a	n/a	n/a	n/a	n/a	n/a	n/a
3065.244	n/a	RECOG_RESP	1532622	n/a	LTP066	ltpFR	17	1	n/a	CROSS	413	1	n/a	n/a	n/a	n/a	n/a	n/a	n/a
3066.252	n/a	RECOG_CONF	1533126	n/a	LTP066	ltpFR	17	1	n/a	CROSS	413	n/a	3	n/a	n/a	n/a	n/a	n/a	n/a
3067.61	n/a	RECOG_TARGET	1533805	n/a	LTP066	ltpFR	17	1	0	MATTRESS	879	1	5	1	n/a	n/a	n/a	n/a	n/a
3068.472	n/a	RECOG_RESP	1534236	n/a	LTP066	ltpFR	17	1	0	MATTRESS	879	1	n/a	1	n/a	n/a	n/a	n/a	n/a
3069.104	n/a	RECOG_CONF	1534552	n/a	LTP066	ltpFR	17	1	0	MATTRESS	879	n/a	5	1	n/a	n/a	n/a	n/a	n/a
3070.486	n/a	RECOG_TARGET	1535243	n/a	LTP066	ltpFR	17	1	0	PORK	1108	1	5	0	n/a	n/a	n/a	n/a	n/a
3071.216	n/a	RECOG_RESP	1535608	n/a	LTP066	ltpFR	17	1	0	PORK	1108	1	n/a	0	n/a	n/a	n/a	n/a	n/a
3071.618	n/a	RECOG_CONF	1535809	n/a	LTP066	ltpFR	17	1	0	PORK	1108	n/a	5	0	n/a	n/a	n/a	n/a	n/a
3072.868	n/a	RECOG_TARGET	1536434	n/a	LTP066	ltpFR	17	1	0	TRICYCLE	1506	1	5	1	n/a	n/a	n/a	n/a	n/a
3073.43	n/a	RECOG_RESP	1536715	n/a	LTP066	ltpFR	17	1	0	TRICYCLE	1506	1	n/a	1	n/a	n/a	n/a	n/a	n/a
3073.846	n/a	RECOG_CONF	1536923	n/a	LTP066	ltpFR	17	1	0	TRICYCLE	1506	n/a	5	1	n/a	n/a	n/a	n/a	n/a
3075.118	n/a	RECOG_TARGET	1537559	n/a	LTP066	ltpFR	17	1	-1	FLEA	577	1	5	-1	n/a	n/a	n/a	n/a	n/a
3075.65	n/a	RECOG_RESP	1537825	n/a	LTP066	ltpFR	17	1	-1	FLEA	577	1	n/a	-1	n/a	n/a	n/a	n/a	n/a
3076.036	n/a	RECOG_CONF	1538018	n/a	LTP066	ltpFR	17	1	-1	FLEA	577	n/a	5	-1	n/a	n/a	n/a	n/a	n/a
3077.352	n/a	RECOG_LURE	1538676	n/a	LTP066	ltpFR	17	1	n/a	BUN	197	0	4	n/a	n/a	n/a	n/a	n/a	n/a
3078.044	n/a	RECOG_RESP	1539022	n/a	LTP066	ltpFR	17	1	n/a	BUN	197	0	n/a	n/a	n/a	n/a	n/a	n/a	n/a
3078.304	n/a	RECOG_CONF	1539152	n/a	LTP066	ltpFR	17	1	n/a	BUN	197	n/a	4	n/a	n/a	n/a	n/a	n/a	n/a
3079.576	n/a	RECOG_TARGET	1539788	n/a	LTP066	ltpFR	17	1	0	PIANO	1057	1	5	1	n/a	n/a	n/a	n/a	n/a
3080.28	n/a	RECOG_RESP	1540140	n/a	LTP066	ltpFR	17	1	0	PIANO	1057	1	n/a	1	n/a	n/a	n/a	n/a	n/a
3080.652	n/a	RECOG_CONF	1540326	n/a	LTP066	ltpFR	17	1	0	PIANO	1057	n/a	5	1	n/a	n/a	n/a	n/a	n/a
3082.01	n/a	RECOG_TARGET	1541005	n/a	LTP066	ltpFR	17	1	1	LAPEL	800	1	5	0	n/a	n/a	n/a	n/a	n/a
3082.57	n/a	RECOG_RESP	1541285	n/a	LTP066	ltpFR	17	1	1	LAPEL	800	1	n/a	0	n/a	n/a	n/a	n/a	n/a
3082.936	n/a	RECOG_CONF	1541468	n/a	LTP066	ltpFR	17	1	1	LAPEL	800	n/a	5	0	n/a	n/a	n/a	n/a	n/a
3084.186	n/a	RECOG_TARGET	1542093	n/a	LTP066	ltpFR	17	1	1	PRIEST	1122	1	5	1	n/a	n/a	n/a	n/a	n/a
3084.676	n/a	RECOG_RESP	1542338	n/a	LTP066	ltpFR	17	1	1	PRIEST	1122	1	n/a	1	n/a	n/a	n/a	n/a	n/a
3085.064	n/a	RECOG_CONF	1542532	n/a	LTP066	ltpFR	17	1	1	PRIEST	1122	n/a	5	1	n/a	n/a	n/a	n/a	n/a
3086.376	n/a	RECOG_LURE	1543188	n/a	LTP066	ltpFR	17	1	n/a	ROBE	1198	0	5	n/a	n/a	n/a	n/a	n/a	n/a
3087.036	n/a	RECOG_RESP	1543518	n/a	LTP066	ltpFR	17	1	n/a	ROBE	1198	0	n/a	n/a	n/a	n/a	n/a	n/a	n/a
3087.266	n/a	RECOG_CONF	1543633	n/a	LTP066	ltpFR	17	1	n/a	ROBE	1198	n/a	5	n/a	n/a	n/a	n/a	n/a	n/a
3088.718	n/a	RECOG_LURE	1544359	n/a	LTP066	ltpFR	17	1	n/a	CRIB	407	0	5	n/a	n/a	n/a	n/a	n/a	n/a
3089.344	n/a	RECOG_RESP	1544672	n/a	LTP066	ltpFR	17	1	n/a	CRIB	407	0	n/a	n/a	n/a	n/a	n/a	n/a	n/a
3089.582	n/a	RECOG_CONF	1544791	n/a	LTP066	ltpFR	17	1	n/a	CRIB	407	n/a	5	n/a	n/a	n/a	n/a	n/a	n/a
3090.96	n/a	RECOG_LURE	1545480	n/a	LTP066	ltpFR	17	1	n/a	SHEEP	1278	0	5	n/a	n/a	n/a	n/a	n/a	n/a
3091.664	n/a	RECOG_RESP	1545832	n/a	LTP066	ltpFR	17	1	n/a	SHEEP	1278	0	n/a	n/a	n/a	n/a	n/a	n/a	n/a
3091.926	n/a	RECOG_CONF	1545963	n/a	LTP066	ltpFR	17	1	n/a	SHEEP	1278	n/a	5	n/a	n/a	n/a	n/a	n/a	n/a
3093.31	n/a	RECOG_TARGET	1546655	n/a	LTP066	ltpFR	17	1	1	SENATOR	1268	1	5	1	n/a	n/a	n/a	n/a	n/a
3094.004	n/a	RECOG_RESP	1547002	n/a	LTP066	ltpFR	17	1	1	SENATOR	1268	1	n/a	1	n/a	n/a	n/a	n/a	n/a
3094.388	n/a	RECOG_CONF	1547194	n/a	LTP066	ltpFR	17	1	1	SENATOR	1268	n/a	5	1	n/a	n/a	n/a	n/a	n/a
3095.592	n/a	RECOG_LURE	1547796	n/a	LTP066	ltpFR	17	1	n/a	TOMB	1477	0	4	n/a	n/a	n/a	n/a	n/a	n/a
3096.274	n/a	RECOG_RESP	1548137	n/a	LTP066	ltpFR	17	1	n/a	TOMB	1477	0	n/a	n/a	n/a	n/a	n/a	n/a	n/a
3096.592	n/a	RECOG_CONF	1548296	n/a	LTP066	ltpFR	17	1	n/a	TOMB	1477	n/a	4	n/a	n/a	n/a	n/a	n/a	n/a
3098.01	n/a	RECOG_TARGET	1549005	n/a	LTP066	ltpFR	17	1	0	COIN	343	1	5	0	n/a	n/a	n/a	n/a	n/a
3098.494	n/a	RECOG_RESP	1549247	n/a	LTP066	ltpFR	17	1	0	COIN	343	1	n/a	0	n/a	n/a	n/a	n/a	n/a
3098.872	n/a	RECOG_CONF	1549436	n/a	LTP066	ltpFR	17	1	0	COIN	343	n/a	5	0	n/a	n/a	n/a	n/a	n/a
3100.118	n/a	RECOG_TARGET	1550059	n/a	LTP066	ltpFR	17	1	-1	BLACKBOARD	133	1	5	-1	n/a	n/a	n/a	n/a	n/a
3100.728	n/a	RECOG_RESP	1550364	n/a	LTP066	ltpFR	17	1	-1	BLACKBOARD	133	1	n/a	-1	n/a	n/a	n/a	n/a	n/a
3101.124	n/a	RECOG_CONF	1550562	n/a	LTP066	ltpFR	17	1	-1	BLACKBOARD	133	n/a	5	-1	n/a	n/a	n/a	n/a	n/a
3102.36	n/a	RECOG_TARGET	1551180	n/a	LTP066	ltpFR	17	1	0	CONE	363	1	5	0	n/a	n/a	n/a	n/a	n/a
3102.958	n/a	RECOG_RESP	1551479	n/a	LTP066	ltpFR	17	1	0	CONE	363	1	n/a	0	n/a	n/a	n/a	n/a	n/a
3103.33	n/a	RECOG_CONF	1551665	n/a	LTP066	ltpFR	17	1	0	CONE	363	n/a	5	0	n/a	n/a	n/a	n/a	n/a
3104.568	n/a	RECOG_LURE	1552284	n/a	LTP066	ltpFR	17	1	n/a	TOMBSTONE	1478	0	4	n/a	n/a	n/a	n/a	n/a	n/a
3105.594	n/a	RECOG_RESP	1552797	n/a	LTP066	ltpFR	17	1	n/a	TOMBSTONE	1478	0	n/a	n/a	n/a	n/a	n/a	n/a	n/a
3105.826	n/a	RECOG_CONF	1552913	n/a	LTP066	ltpFR	17	1	n/a	TOMBSTONE	1478	n/a	4	n/a	n/a	n/a	n/a	n/a	n/a
3107.31	n/a	RECOG_TARGET	1553655	n/a	LTP066	ltpFR	17	1	-1	GLASS	639	1	5	-1	n/a	n/a	n/a	n/a	n/a
3108.178	n/a	RECOG_RESP	1554089	n/a	LTP066	ltpFR	17	1	-1	GLASS	639	1	n/a	-1	n/a	n/a	n/a	n/a	n/a
3108.54	n/a	RECOG_CONF	1554270	n/a	LTP066	ltpFR	17	1	-1	GLASS	639	n/a	5	-1	n/a	n/a	n/a	n/a	n/a
3109.852	n/a	RECOG_TARGET	1554926	n/a	LTP066	ltpFR	17	1	1	WARRIOR	1589	1	5	1	n/a	n/a	n/a	n/a	n/a
3110.314	n/a	RECOG_RESP	1555157	n/a	LTP066	ltpFR	17	1	1	WARRIOR	1589	1	n/a	1	n/a	n/a	n/a	n/a	n/a
3110.662	n/a	RECOG_CONF	1555331	n/a	LTP066	ltpFR	17	1	1	WARRIOR	1589	n/a	5	1	n/a	n/a	n/a	n/a	n/a
3114.168	n/a	REC_START	1557084	n/a	LTP066	ltpFR	17	2	n/a	n/a	n/a	n/a	n/a	n/a	n/a	n/a	n/a	n/a	n/a
3114.2	n/a	RECOG_LURE	1557100	n/a	LTP066	ltpFR	17	2	n/a	HUT	729	0	5	n/a	n/a	n/a	n/a	n/a	n/a
3115.022	n/a	RECOG_RESP	1557511	n/a	LTP066	ltpFR	17	2	n/a	HUT	729	0	n/a	n/a	n/a	n/a	n/a	n/a	n/a
3115.366	n/a	RECOG_CONF	1557683	n/a	LTP066	ltpFR	17	2	n/a	HUT	729	n/a	5	n/a	n/a	n/a	n/a	n/a	n/a
3116.768	n/a	RECOG_TARGET	1558384	n/a	LTP066	ltpFR	17	2	0	KETTLE	772	1	5	1	n/a	n/a	n/a	n/a	n/a
3117.336	n/a	RECOG_RESP	1558668	n/a	LTP066	ltpFR	17	2	0	KETTLE	772	1	n/a	1	n/a	n/a	n/a	n/a	n/a
3117.662	n/a	RECOG_CONF	1558831	n/a	LTP066	ltpFR	17	2	0	KETTLE	772	n/a	5	1	n/a	n/a	n/a	n/a	n/a
3118.942	n/a	RECOG_TARGET	1559471	n/a	LTP066	ltpFR	17	2	-1	WALRUS	1585	1	5	-1	n/a	n/a	n/a	n/a	n/a
3119.576	n/a	RECOG_RESP	1559788	n/a	LTP066	ltpFR	17	2	-1	WALRUS	1585	1	n/a	-1	n/a	n/a	n/a	n/a	n/a
3119.926	n/a	RECOG_CONF	1559963	n/a	LTP066	ltpFR	17	2	-1	WALRUS	1585	n/a	5	-1	n/a	n/a	n/a	n/a	n/a
3121.058	n/a	RECOG_LURE	1560529	n/a	LTP066	ltpFR	17	2	n/a	AFRICA	9	0	5	n/a	n/a	n/a	n/a	n/a	n/a
3122.1	n/a	RECOG_RESP	1561050	n/a	LTP066	ltpFR	17	2	n/a	AFRICA	9	0	n/a	n/a	n/a	n/a	n/a	n/a	n/a
3122.45	n/a	RECOG_CONF	1561225	n/a	LTP066	ltpFR	17	2	n/a	AFRICA	9	n/a	5	n/a	n/a	n/a	n/a	n/a	n/a
3123.742	n/a	RECOG_TARGET	1561871	n/a	LTP066	ltpFR	17	2	1	TOAD	1470	1	5	1	n/a	n/a	n/a	n/a	n/a
3124.302	n/a	RECOG_RESP	1562151	n/a	LTP066	ltpFR	17	2	1	TOAD	1470	1	n/a	1	n/a	n/a	n/a	n/a	n/a
3124.678	n/a	RECOG_CONF	1562339	n/a	LTP066	ltpFR	17	2	1	TOAD	1470	n/a	5	1	n/a	n/a	n/a	n/a	n/a
3126.0	n/a	RECOG_TARGET	1563000	n/a	LTP066	ltpFR	17	2	1	DESK	452	1	5	0	n/a	n/a	n/a	n/a	n/a
3126.83	n/a	RECOG_RESP	1563415	n/a	LTP066	ltpFR	17	2	1	DESK	452	1	n/a	0	n/a	n/a	n/a	n/a	n/a
3127.24	n/a	RECOG_CONF	1563620	n/a	LTP066	ltpFR	17	2	1	DESK	452	n/a	5	0	n/a	n/a	n/a	n/a	n/a
3128.518	n/a	RECOG_TARGET	1564259	n/a	LTP066	ltpFR	17	2	0	PASSENGER	1020	1	5	1	n/a	n/a	n/a	n/a	n/a
3129.08	n/a	RECOG_RESP	1564540	n/a	LTP066	ltpFR	17	2	0	PASSENGER	1020	1	n/a	1	n/a	n/a	n/a	n/a	n/a
3129.474	n/a	RECOG_CONF	1564737	n/a	LTP066	ltpFR	17	2	0	PASSENGER	1020	n/a	5	1	n/a	n/a	n/a	n/a	n/a
3130.718	n/a	RECOG_TARGET	1565359	n/a	LTP066	ltpFR	17	2	1	RAZOR	1171	1	5	0	n/a	n/a	n/a	n/a	n/a
3131.14	n/a	RECOG_RESP	1565570	n/a	LTP066	ltpFR	17	2	1	RAZOR	1171	1	n/a	0	n/a	n/a	n/a	n/a	n/a
3131.54	n/a	RECOG_CONF	1565770	n/a	LTP066	ltpFR	17	2	1	RAZOR	1171	n/a	5	0	n/a	n/a	n/a	n/a	n/a
3132.65	n/a	RECOG_TARGET	1566325	n/a	LTP066	ltpFR	17	2	0	OBOE	969	1	5	1	n/a	n/a	n/a	n/a	n/a
3133.276	n/a	RECOG_RESP	1566638	n/a	LTP066	ltpFR	17	2	0	OBOE	969	1	n/a	1	n/a	n/a	n/a	n/a	n/a
3133.67	n/a	RECOG_CONF	1566835	n/a	LTP066	ltpFR	17	2	0	OBOE	969	n/a	5	1	n/a	n/a	n/a	n/a	n/a
3134.85	n/a	RECOG_TARGET	1567425	n/a	LTP066	ltpFR	17	2	0	TICKET	1464	1	5	0	n/a	n/a	n/a	n/a	n/a
3135.5	n/a	RECOG_RESP	1567750	n/a	LTP066	ltpFR	17	2	0	TICKET	1464	1	n/a	0	n/a	n/a	n/a	n/a	n/a
3135.87	n/a	RECOG_CONF	1567935	n/a	LTP066	ltpFR	17	2	0	TICKET	1464	n/a	5	0	n/a	n/a	n/a	n/a	n/a
3137.116	n/a	RECOG_TARGET	1568558	n/a	LTP066	ltpFR	17	2	0	COMMANDER	354	1	5	1	n/a	n/a	n/a	n/a	n/a
3137.686	n/a	RECOG_RESP	1568843	n/a	LTP066	ltpFR	17	2	0	COMMANDER	354	1	n/a	1	n/a	n/a	n/a	n/a	n/a
3138.046	n/a	RECOG_CONF	1569023	n/a	LTP066	ltpFR	17	2	0	COMMANDER	354	n/a	5	1	n/a	n/a	n/a	n/a	n/a
3139.334	n/a	RECOG_LURE	1569667	n/a	LTP066	ltpFR	17	2	n/a	ATTORNEY	58	0	4	n/a	n/a	n/a	n/a	n/a	n/a
3139.712	n/a	RECOG_RESP_VV	1569856	n/a	LTP066	ltpFR	17	2	n/a	ATTORNEY	58	1	n/a	n/a	n/a	n/a	n/a	n/a	n/a
3140.504	n/a	RECOG_RESP	1570252	n/a	LTP066	ltpFR	17	2	n/a	ATTORNEY	58	0	n/a	n/a	n/a	n/a	n/a	n/a	n/a
3141.014	n/a	RECOG_CONF	1570507	n/a	LTP066	ltpFR	17	2	n/a	ATTORNEY	58	n/a	4	n/a	n/a	n/a	n/a	n/a	n/a
3142.308	n/a	RECOG_LURE	1571154	n/a	LTP066	ltpFR	17	2	n/a	SURVEY	1414	0	4	n/a	n/a	n/a	n/a	n/a	n/a
3142.968	n/a	RECOG_RESP	1571484	n/a	LTP066	ltpFR	17	2	n/a	SURVEY	1414	0	n/a	n/a	n/a	n/a	n/a	n/a	n/a
3143.24	n/a	RECOG_CONF	1571620	n/a	LTP066	ltpFR	17	2	n/a	SURVEY	1414	n/a	4	n/a	n/a	n/a	n/a	n/a	n/a
3144.666	n/a	RECOG_LURE	1572333	n/a	LTP066	ltpFR	17	2	n/a	SHRINE	1298	0	4	n/a	n/a	n/a	n/a	n/a	n/a
3145.3	n/a	RECOG_RESP_VV	1572650	n/a	LTP066	ltpFR	17	2	n/a	SHRINE	1298	0	n/a	n/a	n/a	n/a	n/a	n/a	n/a
3147.066	n/a	RECOG_RESP	1573533	n/a	LTP066	ltpFR	17	2	n/a	SHRINE	1298	0	n/a	n/a	n/a	n/a	n/a	n/a	n/a
3147.42	n/a	RECOG_CONF	1573710	n/a	LTP066	ltpFR	17	2	n/a	SHRINE	1298	n/a	4	n/a	n/a	n/a	n/a	n/a	n/a
3148.874	n/a	RECOG_LURE	1574437	n/a	LTP066	ltpFR	17	2	n/a	PICKLE	1059	0	5	n/a	n/a	n/a	n/a	n/a	n/a
3149.88	n/a	RECOG_RESP	1574940	n/a	LTP066	ltpFR	17	2	n/a	PICKLE	1059	0	n/a	n/a	n/a	n/a	n/a	n/a	n/a
3150.162	n/a	RECOG_CONF	1575081	n/a	LTP066	ltpFR	17	2	n/a	PICKLE	1059	n/a	5	n/a	n/a	n/a	n/a	n/a	n/a
3151.558	n/a	RECOG_TARGET	1575779	n/a	LTP066	ltpFR	17	2	0	CAFE	216	1	5	1	n/a	n/a	n/a	n/a	n/a
3152.164	n/a	RECOG_RESP	1576082	n/a	LTP066	ltpFR	17	2	0	CAFE	216	1	n/a	1	n/a	n/a	n/a	n/a	n/a
3152.548	n/a	RECOG_CONF	1576274	n/a	LTP066	ltpFR	17	2	0	CAFE	216	n/a	5	1	n/a	n/a	n/a	n/a	n/a
3153.858	n/a	RECOG_LURE	1576929	n/a	LTP066	ltpFR	17	2	n/a	FLASHLIGHT	575	0	5	n/a	n/a	n/a	n/a	n/a	n/a
3154.758	n/a	RECOG_RESP	1577379	n/a	LTP066	ltpFR	17	2	n/a	FLASHLIGHT	575	0	n/a	n/a	n/a	n/a	n/a	n/a	n/a
3155.0	n/a	RECOG_CONF	1577500	n/a	LTP066	ltpFR	17	2	n/a	FLASHLIGHT	575	n/a	5	n/a	n/a	n/a	n/a	n/a	n/a
3156.484	n/a	RECOG_TARGET	1578242	n/a	LTP066	ltpFR	17	2	0	FIST	572	1	5	0	n/a	n/a	n/a	n/a	n/a
3157.122	n/a	RECOG_RESP	1578561	n/a	LTP066	ltpFR	17	2	0	FIST	572	1	n/a	0	n/a	n/a	n/a	n/a	n/a
3157.496	n/a	RECOG_CONF	1578748	n/a	LTP066	ltpFR	17	2	0	FIST	572	n/a	5	0	n/a	n/a	n/a	n/a	n/a
3158.824	n/a	RECOG_TARGET	1579412	n/a	LTP066	ltpFR	17	2	-1	SEAL	1262	1	5	-1	n/a	n/a	n/a	n/a	n/a
3159.488	n/a	RECOG_RESP	1579744	n/a	LTP066	ltpFR	17	2	-1	SEAL	1262	1	n/a	-1	n/a	n/a	n/a	n/a	n/a
3159.858	n/a	RECOG_CONF	1579929	n/a	LTP066	ltpFR	17	2	-1	SEAL	1262	n/a	5	-1	n/a	n/a	n/a	n/a	n/a
3161.216	n/a	RECOG_TARGET	1580608	n/a	LTP066	ltpFR	17	2	0	EMPLOYEE	531	1	5	1	n/a	n/a	n/a	n/a	n/a
3161.702	n/a	RECOG_RESP	1580851	n/a	LTP066	ltpFR	17	2	0	EMPLOYEE	531	1	n/a	1	n/a	n/a	n/a	n/a	n/a
3162.112	n/a	RECOG_CONF	1581056	n/a	LTP066	ltpFR	17	2	0	EMPLOYEE	531	n/a	5	1	n/a	n/a	n/a	n/a	n/a
3165.67	n/a	REC_START	1582835	n/a	LTP066	ltpFR	17	3	n/a	n/a	n/a	n/a	n/a	n/a	n/a	n/a	n/a	n/a	n/a
3165.708	n/a	RECOG_TARGET	1582854	n/a	LTP066	ltpFR	17	3	-1	BAY	102	1	5	-1	n/a	n/a	n/a	n/a	n/a
3166.324	n/a	RECOG_RESP	1583162	n/a	LTP066	ltpFR	17	3	-1	BAY	102	1	n/a	-1	n/a	n/a	n/a	n/a	n/a
3166.702	n/a	RECOG_CONF	1583351	n/a	LTP066	ltpFR	17	3	-1	BAY	102	n/a	5	-1	n/a	n/a	n/a	n/a	n/a
3168.058	n/a	RECOG_TARGET	1584029	n/a	LTP066	ltpFR	17	3	-1	CLIPPERS	324	1	5	-1	n/a	n/a	n/a	n/a	n/a
3168.638	n/a	RECOG_RESP	1584319	n/a	LTP066	ltpFR	17	3	-1	CLIPPERS	324	1	n/a	-1	n/a	n/a	n/a	n/a	n/a
3169.008	n/a	RECOG_CONF	1584504	n/a	LTP066	ltpFR	17	3	-1	CLIPPERS	324	n/a	5	-1	n/a	n/a	n/a	n/a	n/a
3170.242	n/a	RECOG_TARGET	1585121	n/a	LTP066	ltpFR	17	3	1	IDOL	733	1	5	1	n/a	n/a	n/a	n/a	n/a
3170.924	n/a	RECOG_RESP	1585462	n/a	LTP066	ltpFR	17	3	1	IDOL	733	1	n/a	1	n/a	n/a	n/a	n/a	n/a
3171.294	n/a	RECOG_CONF	1585647	n/a	LTP066	ltpFR	17	3	1	IDOL	733	n/a	5	1	n/a	n/a	n/a	n/a	n/a
3172.516	n/a	RECOG_LURE	1586258	n/a	LTP066	ltpFR	17	3	n/a	SWIMMER	1420	0	5	n/a	n/a	n/a	n/a	n/a	n/a
3173.292	n/a	RECOG_RESP	1586646	n/a	LTP066	ltpFR	17	3	n/a	SWIMMER	1420	0	n/a	n/a	n/a	n/a	n/a	n/a	n/a
3173.552	n/a	RECOG_CONF	1586776	n/a	LTP066	ltpFR	17	3	n/a	SWIMMER	1420	n/a	5	n/a	n/a	n/a	n/a	n/a	n/a
3174.932	n/a	RECOG_TARGET	1587466	n/a	LTP066	ltpFR	17	3	0	PEDESTRIAN	1038	1	5	1	n/a	n/a	n/a	n/a	n/a
3175.518	n/a	RECOG_RESP	1587759	n/a	LTP066	ltpFR	17	3	0	PEDESTRIAN	1038	1	n/a	1	n/a	n/a	n/a	n/a	n/a
3175.856	n/a	RECOG_CONF	1587928	n/a	LTP066	ltpFR	17	3	0	PEDESTRIAN	1038	n/a	5	1	n/a	n/a	n/a	n/a	n/a
3177.266	n/a	RECOG_TARGET	1588633	n/a	LTP066	ltpFR	17	3	1	BLOUSE	139	0	4	0	n/a	n/a	n/a	n/a	n/a
3178.456	n/a	RECOG_RESP	1589228	n/a	LTP066	ltpFR	17	3	1	BLOUSE	139	0	n/a	0	n/a	n/a	n/a	n/a	n/a
3178.674	n/a	RECOG_CONF	1589337	n/a	LTP066	ltpFR	17	3	1	BLOUSE	139	n/a	4	0	n/a	n/a	n/a	n/a	n/a
3180.19	n/a	RECOG_TARGET	1590095	n/a	LTP066	ltpFR	17	3	0	SNAKE	1333	1	5	0	n/a	n/a	n/a	n/a	n/a
3180.736	n/a	RECOG_RESP	1590368	n/a	LTP066	ltpFR	17	3	0	SNAKE	1333	1	n/a	0	n/a	n/a	n/a	n/a	n/a
3181.082	n/a	RECOG_CONF	1590541	n/a	LTP066	ltpFR	17	3	0	SNAKE	1333	n/a	5	0	n/a	n/a	n/a	n/a	n/a
3182.39	n/a	RECOG_LURE	1591195	n/a	LTP066	ltpFR	17	3	n/a	DILL	465	0	5	n/a	n/a	n/a	n/a	n/a	n/a
3183.056	n/a	RECOG_RESP	1591528	n/a	LTP066	ltpFR	17	3	n/a	DILL	465	0	n/a	n/a	n/a	n/a	n/a	n/a	n/a
3183.304	n/a	RECOG_CONF	1591652	n/a	LTP066	ltpFR	17	3	n/a	DILL	465	n/a	5	n/a	n/a	n/a	n/a	n/a	n/a
3184.748	n/a	RECOG_TARGET	1592374	n/a	LTP066	ltpFR	17	3	1	CATERPILLAR	259	1	5	1	n/a	n/a	n/a	n/a	n/a
3185.296	n/a	RECOG_RESP	1592648	n/a	LTP066	ltpFR	17	3	1	CATERPILLAR	259	1	n/a	1	n/a	n/a	n/a	n/a	n/a
3185.66	n/a	RECOG_CONF	1592830	n/a	LTP066	ltpFR	17	3	1	CATERPILLAR	259	n/a	5	1	n/a	n/a	n/a	n/a	n/a
3186.89	n/a	RECOG_LURE	1593445	n/a	LTP066	ltpFR	17	3	n/a	CHICKEN	297	0	5	n/a	n/a	n/a	n/a	n/a	n/a
3187.476	n/a	RECOG_RESP	1593738	n/a	LTP066	ltpFR	17	3	n/a	CHICKEN	297	0	n/a	n/a	n/a	n/a	n/a	n/a	n/a
3187.742	n/a	RECOG_CONF	1593871	n/a	LTP066	ltpFR	17	3	n/a	CHICKEN	297	n/a	5	n/a	n/a	n/a	n/a	n/a	n/a
3189.166	n/a	RECOG_TARGET	1594583	n/a	LTP066	ltpFR	17	3	1	CUSTARD	429	1	5	0	n/a	n/a	n/a	n/a	n/a
3190.3	n/a	RECOG_RESP	1595150	n/a	LTP066	ltpFR	17	3	1	CUSTARD	429	1	n/a	0	n/a	n/a	n/a	n/a	n/a
3190.684	n/a	RECOG_CONF	1595342	n/a	LTP066	ltpFR	17	3	1	CUSTARD	429	n/a	5	0	n/a	n/a	n/a	n/a	n/a
3192.04	n/a	RECOG_LURE	1596020	n/a	LTP066	ltpFR	17	3	n/a	MARKET	871	0	4	n/a	n/a	n/a	n/a	n/a	n/a
3192.754	n/a	RECOG_RESP	1596377	n/a	LTP066	ltpFR	17	3	n/a	MARKET	871	0	n/a	n/a	n/a	n/a	n/a	n/a	n/a
3192.972	n/a	RECOG_CONF	1596486	n/a	LTP066	ltpFR	17	3	n/a	MARKET	871	n/a	4	n/a	n/a	n/a	n/a	n/a	n/a
3194.516	n/a	RECOG_TARGET	1597258	n/a	LTP066	ltpFR	17	3	0	BUTCHER	203	1	5	1	n/a	n/a	n/a	n/a	n/a
3194.944	n/a	RECOG_RESP	1597472	n/a	LTP066	ltpFR	17	3	0	BUTCHER	203	1	n/a	1	n/a	n/a	n/a	n/a	n/a
3195.29	n/a	RECOG_CONF	1597645	n/a	LTP066	ltpFR	17	3	0	BUTCHER	203	n/a	5	1	n/a	n/a	n/a	n/a	n/a
3196.608	n/a	RECOG_TARGET	1598304	n/a	LTP066	ltpFR	17	3	1	VOLLEYBALL	1576	1	5	0	n/a	n/a	n/a	n/a	n/a
3197.05	n/a	RECOG_RESP	1598525	n/a	LTP066	ltpFR	17	3	1	VOLLEYBALL	1576	1	n/a	0	n/a	n/a	n/a	n/a	n/a
3197.404	n/a	RECOG_CONF	1598702	n/a	LTP066	ltpFR	17	3	1	VOLLEYBALL	1576	n/a	5	0	n/a	n/a	n/a	n/a	n/a
3199.032	n/a	RECOG_TARGET	1599516	n/a	LTP066	ltpFR	17	3	0	TROMBONE	1508	1	4	1	n/a	n/a	n/a	n/a	n/a
3199.944	n/a	RECOG_RESP_VV	1599972	n/a	LTP066	ltpFR	17	3	0	TROMBONE	1508	0	n/a	1	n/a	n/a	n/a	n/a	n/a
3201.06	n/a	RECOG_RESP	1600530	n/a	LTP066	ltpFR	17	3	0	TROMBONE	1508	1	n/a	1	n/a	n/a	n/a	n/a	n/a
3201.466	n/a	RECOG_CONF	1600733	n/a	LTP066	ltpFR	17	3	0	TROMBONE	1508	n/a	4	1	n/a	n/a	n/a	n/a	n/a
3202.848	n/a	RECOG_TARGET	1601424	n/a	LTP066	ltpFR	17	3	-1	WINDOW	1611	1	5	-1	n/a	n/a	n/a	n/a	n/a
3203.366	n/a	RECOG_RESP	1601683	n/a	LTP066	ltpFR	17	3	-1	WINDOW	1611	1	n/a	-1	n/a	n/a	n/a	n/a	n/a
3203.748	n/a	RECOG_CONF	1601874	n/a	LTP066	ltpFR	17	3	-1	WINDOW	1611	n/a	5	-1	n/a	n/a	n/a	n/a	n/a
3205.14	n/a	RECOG_TARGET	1602570	n/a	LTP066	ltpFR	17	3	-1	PROTON	1132	1	5	-1	n/a	n/a	n/a	n/a	n/a
3205.606	n/a	RECOG_RESP	1602803	n/a	LTP066	ltpFR	17	3	-1	PROTON	1132	1	n/a	-1	n/a	n/a	n/a	n/a	n/a
3206.034	n/a	RECOG_CONF	1603017	n/a	LTP066	ltpFR	17	3	-1	PROTON	1132	n/a	5	-1	n/a	n/a	n/a	n/a	n/a
3207.508	n/a	RECOG_TARGET	1603754	n/a	LTP066	ltpFR	17	3	0	LIVER	833	1	5	0	n/a	n/a	n/a	n/a	n/a
3208.15	n/a	RECOG_RESP	1604075	n/a	LTP066	ltpFR	17	3	0	LIVER	833	1	n/a	0	n/a	n/a	n/a	n/a	n/a
3208.524	n/a	RECOG_CONF	1604262	n/a	LTP066	ltpFR	17	3	0	LIVER	833	n/a	5	0	n/a	n/a	n/a	n/a	n/a
3209.848	n/a	RECOG_TARGET	1604924	n/a	LTP066	ltpFR	17	3	-1	CONDUCTOR	362	1	5	-1	n/a	n/a	n/a	n/a	n/a
3210.44	n/a	RECOG_RESP	1605220	n/a	LTP066	ltpFR	17	3	-1	CONDUCTOR	362	1	n/a	-1	n/a	n/a	n/a	n/a	n/a
3210.872	n/a	RECOG_CONF	1605436	n/a	LTP066	ltpFR	17	3	-1	CONDUCTOR	362	n/a	5	-1	n/a	n/a	n/a	n/a	n/a
3212.182	n/a	RECOG_TARGET	1606091	n/a	LTP066	ltpFR	17	3	-1	SCARECROW	1245	1	5	-1	n/a	n/a	n/a	n/a	n/a
3213.2	n/a	RECOG_RESP	1606600	n/a	LTP066	ltpFR	17	3	-1	SCARECROW	1245	1	n/a	-1	n/a	n/a	n/a	n/a	n/a
3213.588	n/a	RECOG_CONF	1606794	n/a	LTP066	ltpFR	17	3	-1	SCARECROW	1245	n/a	5	-1	n/a	n/a	n/a	n/a	n/a
3216.756	n/a	REC_START	1608378	n/a	LTP066	ltpFR	17	4	n/a	n/a	n/a	n/a	n/a	n/a	n/a	n/a	n/a	n/a	n/a
3216.79	n/a	RECOG_TARGET	1608395	n/a	LTP066	ltpFR	17	4	0	TEMPLE	1448	1	5	1	n/a	n/a	n/a	n/a	n/a
3217.414	n/a	RECOG_RESP	1608707	n/a	LTP066	ltpFR	17	4	0	TEMPLE	1448	1	n/a	1	n/a	n/a	n/a	n/a	n/a
3217.798	n/a	RECOG_CONF	1608899	n/a	LTP066	ltpFR	17	4	0	TEMPLE	1448	n/a	5	1	n/a	n/a	n/a	n/a	n/a
3219.132	n/a	RECOG_TARGET	1609566	n/a	LTP066	ltpFR	17	4	0	IRON	744	1	5	0	n/a	n/a	n/a	n/a	n/a
3219.53	n/a	RECOG_RESP	1609765	n/a	LTP066	ltpFR	17	4	0	IRON	744	1	n/a	0	n/a	n/a	n/a	n/a	n/a
3219.908	n/a	RECOG_CONF	1609954	n/a	LTP066	ltpFR	17	4	0	IRON	744	n/a	5	0	n/a	n/a	n/a	n/a	n/a
3221.248	n/a	RECOG_TARGET	1610624	n/a	LTP066	ltpFR	17	4	0	RESTAURANT	1187	1	5	1	n/a	n/a	n/a	n/a	n/a
3221.694	n/a	RECOG_RESP	1610847	n/a	LTP066	ltpFR	17	4	0	RESTAURANT	1187	1	n/a	1	n/a	n/a	n/a	n/a	n/a
3222.072	n/a	RECOG_CONF	1611036	n/a	LTP066	ltpFR	17	4	0	RESTAURANT	1187	n/a	5	1	n/a	n/a	n/a	n/a	n/a
3223.822	n/a	RECOG_TARGET	1611911	n/a	LTP066	ltpFR	17	4	-1	RIVER	1194	1	5	-1	n/a	n/a	n/a	n/a	n/a
3224.364	n/a	RECOG_RESP	1612182	n/a	LTP066	ltpFR	17	4	-1	RIVER	1194	1	n/a	-1	n/a	n/a	n/a	n/a	n/a
3224.678	n/a	RECOG_CONF	1612339	n/a	LTP066	ltpFR	17	4	-1	RIVER	1194	n/a	5	-1	n/a	n/a	n/a	n/a	n/a
3226.23	n/a	RECOG_TARGET	1613115	n/a	LTP066	ltpFR	17	4	-1	VEGETABLE	1552	1	5	-1	n/a	n/a	n/a	n/a	n/a
3226.778	n/a	RECOG_RESP	1613389	n/a	LTP066	ltpFR	17	4	-1	VEGETABLE	1552	1	n/a	-1	n/a	n/a	n/a	n/a	n/a
3227.156	n/a	RECOG_CONF	1613578	n/a	LTP066	ltpFR	17	4	-1	VEGETABLE	1552	n/a	5	-1	n/a	n/a	n/a	n/a	n/a
3228.482	n/a	RECOG_TARGET	1614241	n/a	LTP066	ltpFR	17	4	-1	CLOWN	330	0	5	-1	n/a	n/a	n/a	n/a	n/a
3229.138	n/a	RECOG_RESP	1614569	n/a	LTP066	ltpFR	17	4	-1	CLOWN	330	0	n/a	-1	n/a	n/a	n/a	n/a	n/a
3229.384	n/a	RECOG_CONF	1614692	n/a	LTP066	ltpFR	17	4	-1	CLOWN	330	n/a	5	-1	n/a	n/a	n/a	n/a	n/a
3230.88	n/a	RECOG_TARGET	1615440	n/a	LTP066	ltpFR	17	4	-1	EUROPE	541	1	5	-1	n/a	n/a	n/a	n/a	n/a
3231.472	n/a	RECOG_RESP	1615736	n/a	LTP066	ltpFR	17	4	-1	EUROPE	541	1	n/a	-1	n/a	n/a	n/a	n/a	n/a
3231.86	n/a	RECOG_CONF	1615930	n/a	LTP066	ltpFR	17	4	-1	EUROPE	541	n/a	5	-1	n/a	n/a	n/a	n/a	n/a
3233.174	n/a	RECOG_TARGET	1616587	n/a	LTP066	ltpFR	17	4	0	PEAR	1033	1	5	0	n/a	n/a	n/a	n/a	n/a
3233.632	n/a	RECOG_RESP	1616816	n/a	LTP066	ltpFR	17	4	0	PEAR	1033	1	n/a	0	n/a	n/a	n/a	n/a	n/a
3233.992	n/a	RECOG_CONF	1616996	n/a	LTP066	ltpFR	17	4	0	PEAR	1033	n/a	5	0	n/a	n/a	n/a	n/a	n/a
3235.44	n/a	RECOG_LURE	1617720	n/a	LTP066	ltpFR	17	4	n/a	GOBLIN	645	0	5	n/a	n/a	n/a	n/a	n/a	n/a
3236.128	n/a	RECOG_RESP	1618064	n/a	LTP066	ltpFR	17	4	n/a	GOBLIN	645	0	n/a	n/a	n/a	n/a	n/a	n/a	n/a
3236.38	n/a	RECOG_CONF	1618190	n/a	LTP066	ltpFR	17	4	n/a	GOBLIN	645	n/a	5	n/a	n/a	n/a	n/a	n/a	n/a
3237.914	n/a	RECOG_TARGET	1618957	n/a	LTP066	ltpFR	17	4	-1	MARINE	869	1	5	-1	n/a	n/a	n/a	n/a	n/a
3238.392	n/a	RECOG_RESP	1619196	n/a	LTP066	ltpFR	17	4	-1	MARINE	869	1	n/a	-1	n/a	n/a	n/a	n/a	n/a
3238.796	n/a	RECOG_CONF	1619398	n/a	LTP066	ltpFR	17	4	-1	MARINE	869	n/a	5	-1	n/a	n/a	n/a	n/a	n/a
3240.13	n/a	RECOG_TARGET	1620065	n/a	LTP066	ltpFR	17	4	0	CHOCOLATE	306	1	5	0	n/a	n/a	n/a	n/a	n/a
3240.772	n/a	RECOG_RESP	1620386	n/a	LTP066	ltpFR	17	4	0	CHOCOLATE	306	1	n/a	0	n/a	n/a	n/a	n/a	n/a
3241.094	n/a	RECOG_CONF	1620547	n/a	LTP066	ltpFR	17	4	0	CHOCOLATE	306	n/a	5	0	n/a	n/a	n/a	n/a	n/a
3242.664	n/a	RECOG_TARGET	1621332	n/a	LTP066	ltpFR	17	4	1	COWBOY	395	1	5	1	n/a	n/a	n/a	n/a	n/a
3243.242	n/a	RECOG_RESP	1621621	n/a	LTP066	ltpFR	17	4	1	COWBOY	395	1	n/a	1	n/a	n/a	n/a	n/a	n/a
3243.67	n/a	RECOG_CONF	1621835	n/a	LTP066	ltpFR	17	4	1	COWBOY	395	n/a	5	1	n/a	n/a	n/a	n/a	n/a
3245.056	n/a	RECOG_TARGET	1622528	n/a	LTP066	ltpFR	17	4	-1	HAMMER	680	1	5	-1	n/a	n/a	n/a	n/a	n/a
3245.8	n/a	RECOG_RESP	1622900	n/a	LTP066	ltpFR	17	4	-1	HAMMER	680	1	n/a	-1	n/a	n/a	n/a	n/a	n/a
3246.274	n/a	RECOG_CONF	1623137	n/a	LTP066	ltpFR	17	4	-1	HAMMER	680	n/a	5	-1	n/a	n/a	n/a	n/a	n/a
3247.556	n/a	RECOG_TARGET	1623778	n/a	LTP066	ltpFR	17	4	1	POT	1114	0	4	0	n/a	n/a	n/a	n/a	n/a
3248.608	n/a	RECOG_RESP	1624304	n/a	LTP066	ltpFR	17	4	1	POT	1114	0	n/a	0	n/a	n/a	n/a	n/a	n/a
3248.914	n/a	RECOG_CONF	1624457	n/a	LTP066	ltpFR	17	4	1	POT	1114	n/a	4	0	n/a	n/a	n/a	n/a	n/a
3250.314	n/a	RECOG_TARGET	1625157	n/a	LTP066	ltpFR	17	4	0	PENNY	1045	1	5	0	n/a	n/a	n/a	n/a	n/a
3251.0	n/a	RECOG_RESP	1625500	n/a	LTP066	ltpFR	17	4	0	PENNY	1045	1	n/a	0	n/a	n/a	n/a	n/a	n/a
3251.41	n/a	RECOG_CONF	1625705	n/a	LTP066	ltpFR	17	4	0	PENNY	1045	n/a	5	0	n/a	n/a	n/a	n/a	n/a
3252.872	n/a	RECOG_TARGET	1626436	n/a	LTP066	ltpFR	17	4	1	TYPIST	1532	1	5	1	n/a	n/a	n/a	n/a	n/a
3253.578	n/a	RECOG_RESP	1626789	n/a	LTP066	ltpFR	17	4	1	TYPIST	1532	1	n/a	1	n/a	n/a	n/a	n/a	n/a
3253.974	n/a	RECOG_CONF	1626987	n/a	LTP066	ltpFR	17	4	1	TYPIST	1532	n/a	5	1	n/a	n/a	n/a	n/a	n/a
3255.38	n/a	RECOG_TARGET	1627690	n/a	LTP066	ltpFR	17	4	-1	CANDLE	229	0	4	-1	n/a	n/a	n/a	n/a	n/a
3256.312	n/a	RECOG_RESP	1628156	n/a	LTP066	ltpFR	17	4	-1	CANDLE	229	0	n/a	-1	n/a	n/a	n/a	n/a	n/a
3256.58	n/a	RECOG_CONF	1628290	n/a	LTP066	ltpFR	17	4	-1	CANDLE	229	n/a	4	-1	n/a	n/a	n/a	n/a	n/a
3258.172	n/a	RECOG_TARGET	1629086	n/a	LTP066	ltpFR	17	4	1	SHOVEL	1295	1	5	0	n/a	n/a	n/a	n/a	n/a
3258.752	n/a	RECOG_RESP	1629376	n/a	LTP066	ltpFR	17	4	1	SHOVEL	1295	1	n/a	0	n/a	n/a	n/a	n/a	n/a
3259.074	n/a	RECOG_CONF	1629537	n/a	LTP066	ltpFR	17	4	1	SHOVEL	1295	n/a	5	0	n/a	n/a	n/a	n/a	n/a
3260.498	n/a	RECOG_TARGET	1630249	n/a	LTP066	ltpFR	17	4	1	GOLD	647	1	5	0	n/a	n/a	n/a	n/a	n/a
3261.072	n/a	RECOG_RESP	1630536	n/a	LTP066	ltpFR	17	4	1	GOLD	647	1	n/a	0	n/a	n/a	n/a	n/a	n/a
3261.47	n/a	RECOG_CONF	1630735	n/a	LTP066	ltpFR	17	4	1	GOLD	647	n/a	5	0	n/a	n/a	n/a	n/a	n/a
3262.846	n/a	RECOG_TARGET	1631423	n/a	LTP066	ltpFR	17	4	1	TREAD	1499	1	5	0	n/a	n/a	n/a	n/a	n/a
3263.366	n/a	RECOG_RESP	1631683	n/a	LTP066	ltpFR	17	4	1	TREAD	1499	1	n/a	0	n/a	n/a	n/a	n/a	n/a
3263.752	n/a	RECOG_CONF	1631876	n/a	LTP066	ltpFR	17	4	1	TREAD	1499	n/a	5	0	n/a	n/a	n/a	n/a	n/a
3267.872	n/a	REC_START	1633936	n/a	LTP066	ltpFR	17	5	n/a	n/a	n/a	n/a	n/a	n/a	n/a	n/a	n/a	n/a	n/a
3267.904	n/a	RECOG_TARGET	1633952	n/a	LTP066	ltpFR	17	5	0	HERO	706	1	5	1	n/a	n/a	n/a	n/a	n/a
3268.7	n/a	RECOG_RESP	1634350	n/a	LTP066	ltpFR	17	5	0	HERO	706	1	n/a	1	n/a	n/a	n/a	n/a	n/a
3269.056	n/a	RECOG_CONF	1634528	n/a	LTP066	ltpFR	17	5	0	HERO	706	n/a	5	1	n/a	n/a	n/a	n/a	n/a
3270.364	n/a	RECOG_TARGET	1635182	n/a	LTP066	ltpFR	17	5	1	BRAIN	165	1	5	0	n/a	n/a	n/a	n/a	n/a
3271.95	n/a	RECOG_RESP	1635975	n/a	LTP066	ltpFR	17	5	1	BRAIN	165	1	n/a	0	n/a	n/a	n/a	n/a	n/a
3272.328	n/a	RECOG_CONF	1636164	n/a	LTP066	ltpFR	17	5	1	BRAIN	165	n/a	5	0	n/a	n/a	n/a	n/a	n/a
3273.714	n/a	RECOG_TARGET	1636857	n/a	LTP066	ltpFR	17	5	1	BLACKBERRY	132	1	5	1	n/a	n/a	n/a	n/a	n/a
3274.244	n/a	RECOG_RESP	1637122	n/a	LTP066	ltpFR	17	5	1	BLACKBERRY	132	1	n/a	1	n/a	n/a	n/a	n/a	n/a
3274.616	n/a	RECOG_CONF	1637308	n/a	LTP066	ltpFR	17	5	1	BLACKBERRY	132	n/a	5	1	n/a	n/a	n/a	n/a	n/a
3276.014	n/a	RECOG_TARGET	1638007	n/a	LTP066	ltpFR	17	5	-1	MOB	904	1	5	-1	n/a	n/a	n/a	n/a	n/a
3276.548	n/a	RECOG_RESP	1638274	n/a	LTP066	ltpFR	17	5	-1	MOB	904	1	n/a	-1	n/a	n/a	n/a	n/a	n/a
3276.87	n/a	RECOG_CONF	1638435	n/a	LTP066	ltpFR	17	5	-1	MOB	904	n/a	5	-1	n/a	n/a	n/a	n/a	n/a
3278.438	n/a	RECOG_TARGET	1639219	n/a	LTP066	ltpFR	17	5	1	FUGITIVE	612	1	4	0	n/a	n/a	n/a	n/a	n/a
3278.974	n/a	RECOG_RESP	1639487	n/a	LTP066	ltpFR	17	5	1	FUGITIVE	612	1	n/a	0	n/a	n/a	n/a	n/a	n/a
3279.412	n/a	RECOG_CONF	1639706	n/a	LTP066	ltpFR	17	5	1	FUGITIVE	612	n/a	4	0	n/a	n/a	n/a	n/a	n/a
3281.03	n/a	RECOG_TARGET	1640515	n/a	LTP066	ltpFR	17	5	-1	BRIDGE	174	1	5	-1	n/a	n/a	n/a	n/a	n/a
3281.538	n/a	RECOG_RESP	1640769	n/a	LTP066	ltpFR	17	5	-1	BRIDGE	174	1	n/a	-1	n/a	n/a	n/a	n/a	n/a
3281.902	n/a	RECOG_CONF	1640951	n/a	LTP066	ltpFR	17	5	-1	BRIDGE	174	n/a	5	-1	n/a	n/a	n/a	n/a	n/a
3283.354	n/a	RECOG_TARGET	1641677	n/a	LTP066	ltpFR	17	5	1	INSTRUCTOR	741	1	5	1	n/a	n/a	n/a	n/a	n/a
3284.002	n/a	RECOG_RESP	1642001	n/a	LTP066	ltpFR	17	5	1	INSTRUCTOR	741	1	n/a	1	n/a	n/a	n/a	n/a	n/a
3284.284	n/a	RECOG_CONF	1642142	n/a	LTP066	ltpFR	17	5	1	INSTRUCTOR	741	n/a	5	1	n/a	n/a	n/a	n/a	n/a
3285.896	n/a	RECOG_LURE	1642948	n/a	LTP066	ltpFR	17	5	n/a	CUPBOARD	425	0	4	n/a	n/a	n/a	n/a	n/a	n/a
3286.472	n/a	RECOG_RESP_VV	1643236	n/a	LTP066	ltpFR	17	5	n/a	CUPBOARD	425	1	n/a	n/a	n/a	n/a	n/a	n/a	n/a
3287.214	n/a	RECOG_RESP	1643607	n/a	LTP066	ltpFR	17	5	n/a	CUPBOARD	425	0	n/a	n/a	n/a	n/a	n/a	n/a	n/a
3287.626	n/a	RECOG_CONF	1643813	n/a	LTP066	ltpFR	17	5	n/a	CUPBOARD	425	n/a	4	n/a	n/a	n/a	n/a	n/a	n/a
3289.02	n/a	RECOG_TARGET	1644510	n/a	LTP066	ltpFR	17	5	0	MOSQUITO	917	1	5	0	n/a	n/a	n/a	n/a	n/a
3289.54	n/a	RECOG_RESP	1644770	n/a	LTP066	ltpFR	17	5	0	MOSQUITO	917	1	n/a	0	n/a	n/a	n/a	n/a	n/a
3289.9	n/a	RECOG_CONF	1644950	n/a	LTP066	ltpFR	17	5	0	MOSQUITO	917	n/a	5	0	n/a	n/a	n/a	n/a	n/a
3291.38	n/a	RECOG_TARGET	1645690	n/a	LTP066	ltpFR	17	5	1	MULE	931	1	4	1	n/a	n/a	n/a	n/a	n/a
3291.894	n/a	RECOG_RESP	1645947	n/a	LTP066	ltpFR	17	5	1	MULE	931	1	n/a	1	n/a	n/a	n/a	n/a	n/a
3292.294	n/a	RECOG_CONF	1646147	n/a	LTP066	ltpFR	17	5	1	MULE	931	n/a	4	1	n/a	n/a	n/a	n/a	n/a
3293.796	n/a	RECOG_TARGET	1646898	n/a	LTP066	ltpFR	17	5	1	OWNER	993	1	5	1	n/a	n/a	n/a	n/a	n/a
3295.476	n/a	RECOG_RESP	1647738	n/a	LTP066	ltpFR	17	5	1	OWNER	993	1	n/a	1	n/a	n/a	n/a	n/a	n/a
3295.852	n/a	RECOG_CONF	1647926	n/a	LTP066	ltpFR	17	5	1	OWNER	993	n/a	5	1	n/a	n/a	n/a	n/a	n/a
3297.33	n/a	RECOG_TARGET	1648665	n/a	LTP066	ltpFR	17	5	0	CRACKER	398	1	5	1	n/a	n/a	n/a	n/a	n/a
3297.922	n/a	RECOG_RESP	1648961	n/a	LTP066	ltpFR	17	5	0	CRACKER	398	1	n/a	1	n/a	n/a	n/a	n/a	n/a
3298.32	n/a	RECOG_CONF	1649160	n/a	LTP066	ltpFR	17	5	0	CRACKER	398	n/a	5	1	n/a	n/a	n/a	n/a	n/a
3299.704	n/a	RECOG_TARGET	1649852	n/a	LTP066	ltpFR	17	5	0	CONSOLE	364	0	4	1	n/a	n/a	n/a	n/a	n/a
3300.814	n/a	RECOG_RESP	1650407	n/a	LTP066	ltpFR	17	5	0	CONSOLE	364	0	n/a	1	n/a	n/a	n/a	n/a	n/a
3301.122	n/a	RECOG_RESP_VV	1650561	n/a	LTP066	ltpFR	17	5	0	CONSOLE	364	n/a	4	1	n/a	n/a	n/a	n/a	n/a
3302.396	n/a	RECOG_CONF	1651198	n/a	LTP066	ltpFR	17	5	0	CONSOLE	364	n/a	4	1	n/a	n/a	n/a	n/a	n/a
3303.296	n/a	RECOG_LURE	1651648	n/a	LTP066	ltpFR	17	5	n/a	DUSTPAN	509	0	4	n/a	n/a	n/a	n/a	n/a	n/a
3304.216	n/a	RECOG_RESP	1652108	n/a	LTP066	ltpFR	17	5	n/a	DUSTPAN	509	0	n/a	n/a	n/a	n/a	n/a	n/a	n/a
3304.444	n/a	RECOG_CONF	1652222	n/a	LTP066	ltpFR	17	5	n/a	DUSTPAN	509	n/a	4	n/a	n/a	n/a	n/a	n/a	n/a
3305.962	n/a	RECOG_TARGET	1652981	n/a	LTP066	ltpFR	17	5	1	KEG	770	1	5	0	n/a	n/a	n/a	n/a	n/a
3306.712	n/a	RECOG_RESP	1653356	n/a	LTP066	ltpFR	17	5	1	KEG	770	1	n/a	0	n/a	n/a	n/a	n/a	n/a
3306.98	n/a	RECOG_CONF	1653490	n/a	LTP066	ltpFR	17	5	1	KEG	770	n/a	5	0	n/a	n/a	n/a	n/a	n/a
3308.528	n/a	RECOG_TARGET	1654264	n/a	LTP066	ltpFR	17	5	1	GANGSTER	620	1	5	1	n/a	n/a	n/a	n/a	n/a
3308.986	n/a	RECOG_RESP	1654493	n/a	LTP066	ltpFR	17	5	1	GANGSTER	620	1	n/a	1	n/a	n/a	n/a	n/a	n/a
3309.336	n/a	RECOG_CONF	1654668	n/a	LTP066	ltpFR	17	5	1	GANGSTER	620	n/a	5	1	n/a	n/a	n/a	n/a	n/a
3310.97	n/a	RECOG_LURE	1655485	n/a	LTP066	ltpFR	17	5	n/a	BRUSH	182	0	4	n/a	n/a	n/a	n/a	n/a	n/a
3311.522	n/a	RECOG_RESP_VV	1655761	n/a	LTP066	ltpFR	17	5	n/a	BRUSH	182	1	n/a	n/a	n/a	n/a	n/a	n/a	n/a
3312.16	n/a	RECOG_RESP	1656080	n/a	LTP066	ltpFR	17	5	n/a	BRUSH	182	0	n/a	n/a	n/a	n/a	n/a	n/a	n/a
3312.462	n/a	RECOG_CONF	1656231	n/a	LTP066	ltpFR	17	5	n/a	BRUSH	182	n/a	4	n/a	n/a	n/a	n/a	n/a	n/a
3314.13	n/a	RECOG_TARGET	1657065	n/a	LTP066	ltpFR	17	5	1	YACHT	1629	1	5	1	n/a	n/a	n/a	n/a	n/a
3314.964	n/a	RECOG_RESP	1657482	n/a	LTP066	ltpFR	17	5	1	YACHT	1629	1	n/a	1	n/a	n/a	n/a	n/a	n/a
3315.304	n/a	RECOG_CONF	1657652	n/a	LTP066	ltpFR	17	5	1	YACHT	1629	n/a	5	1	n/a	n/a	n/a	n/a	n/a
3316.854	n/a	RECOG_TARGET	1658427	n/a	LTP066	ltpFR	17	5	1	SAILOR	1223	1	5	1	n/a	n/a	n/a	n/a	n/a
3317.512	n/a	RECOG_RESP	1658756	n/a	LTP066	ltpFR	17	5	1	SAILOR	1223	1	n/a	1	n/a	n/a	n/a	n/a	n/a
3317.886	n/a	RECOG_CONF	1658943	n/a	LTP066	ltpFR	17	5	1	SAILOR	1223	n/a	5	1	n/a	n/a	n/a	n/a	n/a
3319.38	n/a	RECOG_TARGET	1659690	n/a	LTP066	ltpFR	17	5	1	PUCK	1138	1	5	0	n/a	n/a	n/a	n/a	n/a
3320.366	n/a	RECOG_RESP	1660183	n/a	LTP066	ltpFR	17	5	1	PUCK	1138	1	n/a	0	n/a	n/a	n/a	n/a	n/a
3320.782	n/a	RECOG_CONF	1660391	n/a	LTP066	ltpFR	17	5	1	PUCK	1138	n/a	5	0	n/a	n/a	n/a	n/a	n/a
3323.968	n/a	REC_START	1661984	n/a	LTP066	ltpFR	17	6	n/a	n/a	n/a	n/a	n/a	n/a	n/a	n/a	n/a	n/a	n/a
3324.002	n/a	RECOG_LURE	1662001	n/a	LTP066	ltpFR	17	6	n/a	PAINT	1003	0	4	n/a	n/a	n/a	n/a	n/a	n/a
3324.526	n/a	RECOG_RESP_VV	1662263	n/a	LTP066	ltpFR	17	6	n/a	PAINT	1003	1	n/a	n/a	n/a	n/a	n/a	n/a	n/a
3325.528	n/a	RECOG_RESP	1662764	n/a	LTP066	ltpFR	17	6	n/a	PAINT	1003	0	n/a	n/a	n/a	n/a	n/a	n/a	n/a
3325.86	n/a	RECOG_CONF	1662930	n/a	LTP066	ltpFR	17	6	n/a	PAINT	1003	n/a	4	n/a	n/a	n/a	n/a	n/a	n/a
3327.412	n/a	RECOG_TARGET	1663706	n/a	LTP066	ltpFR	17	6	0	FLY	586	1	5	0	n/a	n/a	n/a	n/a	n/a
3328.102	n/a	RECOG_RESP	1664051	n/a	LTP066	ltpFR	17	6	0	FLY	586	1	n/a	0	n/a	n/a	n/a	n/a	n/a
3328.536	n/a	RECOG_CONF	1664268	n/a	LTP066	ltpFR	17	6	0	FLY	586	n/a	5	0	n/a	n/a	n/a	n/a	n/a
3329.902	n/a	RECOG_TARGET	1664951	n/a	LTP066	ltpFR	17	6	-1	COLLEGE	346	1	5	-1	n/a	n/a	n/a	n/a	n/a
3330.648	n/a	RECOG_RESP	1665324	n/a	LTP066	ltpFR	17	6	-1	COLLEGE	346	1	n/a	-1	n/a	n/a	n/a	n/a	n/a
3331.062	n/a	RECOG_CONF	1665531	n/a	LTP066	ltpFR	17	6	-1	COLLEGE	346	n/a	5	-1	n/a	n/a	n/a	n/a	n/a
3332.496	n/a	RECOG_LURE	1666248	n/a	LTP066	ltpFR	17	6	n/a	SNOB	1335	0	4	n/a	n/a	n/a	n/a	n/a	n/a
3333.238	n/a	RECOG_RESP	1666619	n/a	LTP066	ltpFR	17	6	n/a	SNOB	1335	0	n/a	n/a	n/a	n/a	n/a	n/a	n/a
3333.548	n/a	RECOG_CONF	1666774	n/a	LTP066	ltpFR	17	6	n/a	SNOB	1335	n/a	4	n/a	n/a	n/a	n/a	n/a	n/a
3334.952	n/a	RECOG_TARGET	1667476	n/a	LTP066	ltpFR	17	6	0	PASTRY	1022	1	5	0	n/a	n/a	n/a	n/a	n/a
3335.662	n/a	RECOG_RESP	1667831	n/a	LTP066	ltpFR	17	6	0	PASTRY	1022	1	n/a	0	n/a	n/a	n/a	n/a	n/a
3335.994	n/a	RECOG_CONF	1667997	n/a	LTP066	ltpFR	17	6	0	PASTRY	1022	n/a	5	0	n/a	n/a	n/a	n/a	n/a
3337.362	n/a	RECOG_TARGET	1668681	n/a	LTP066	ltpFR	17	6	1	CHAPEL	280	1	5	0	n/a	n/a	n/a	n/a	n/a
3337.896	n/a	RECOG_RESP	1668948	n/a	LTP066	ltpFR	17	6	1	CHAPEL	280	1	n/a	0	n/a	n/a	n/a	n/a	n/a
3338.354	n/a	RECOG_CONF	1669177	n/a	LTP066	ltpFR	17	6	1	CHAPEL	280	n/a	5	0	n/a	n/a	n/a	n/a	n/a
3339.762	n/a	RECOG_TARGET	1669881	n/a	LTP066	ltpFR	17	6	0	JOINT	758	1	5	1	n/a	n/a	n/a	n/a	n/a
3340.336	n/a	RECOG_RESP	1670168	n/a	LTP066	ltpFR	17	6	0	JOINT	758	1	n/a	1	n/a	n/a	n/a	n/a	n/a
3340.77	n/a	RECOG_CONF	1670385	n/a	LTP066	ltpFR	17	6	0	JOINT	758	n/a	5	1	n/a	n/a	n/a	n/a	n/a
3342.178	n/a	RECOG_TARGET	1671089	n/a	LTP066	ltpFR	17	6	0	FOREHEAD	592	1	5	0	n/a	n/a	n/a	n/a	n/a
3342.746	n/a	RECOG_RESP	1671373	n/a	LTP066	ltpFR	17	6	0	FOREHEAD	592	1	n/a	0	n/a	n/a	n/a	n/a	n/a
3343.142	n/a	RECOG_CONF	1671571	n/a	LTP066	ltpFR	17	6	0	FOREHEAD	592	n/a	5	0	n/a	n/a	n/a	n/a	n/a
3344.494	n/a	RECOG_TARGET	1672247	n/a	LTP066	ltpFR	17	6	1	CABLE	213	1	5	0	n/a	n/a	n/a	n/a	n/a
3345.12	n/a	RECOG_RESP	1672560	n/a	LTP066	ltpFR	17	6	1	CABLE	213	1	n/a	0	n/a	n/a	n/a	n/a	n/a
3345.55	n/a	RECOG_CONF	1672775	n/a	LTP066	ltpFR	17	6	1	CABLE	213	n/a	5	0	n/a	n/a	n/a	n/a	n/a
3346.952	n/a	RECOG_TARGET	1673476	n/a	LTP066	ltpFR	17	6	1	PREACHER	1119	1	5	1	n/a	n/a	n/a	n/a	n/a
3347.71	n/a	RECOG_RESP	1673855	n/a	LTP066	ltpFR	17	6	1	PREACHER	1119	1	n/a	1	n/a	n/a	n/a	n/a	n/a
3348.198	n/a	RECOG_CONF	1674099	n/a	LTP066	ltpFR	17	6	1	PREACHER	1119	n/a	5	1	n/a	n/a	n/a	n/a	n/a
3349.528	n/a	RECOG_TARGET	1674764	n/a	LTP066	ltpFR	17	6	1	ARMY	39	1	5	1	n/a	n/a	n/a	n/a	n/a
3350.368	n/a	RECOG_RESP	1675184	n/a	LTP066	ltpFR	17	6	1	ARMY	39	1	n/a	1	n/a	n/a	n/a	n/a	n/a
3350.922	n/a	RECOG_CONF	1675461	n/a	LTP066	ltpFR	17	6	1	ARMY	39	n/a	5	1	n/a	n/a	n/a	n/a	n/a
3352.41	n/a	RECOG_TARGET	1676205	n/a	LTP066	ltpFR	17	6	0	BRANDY	169	0	4	1	n/a	n/a	n/a	n/a	n/a
3353.782	n/a	RECOG_RESP	1676891	n/a	LTP066	ltpFR	17	6	0	BRANDY	169	0	n/a	1	n/a	n/a	n/a	n/a	n/a
3354.092	n/a	RECOG_CONF	1677046	n/a	LTP066	ltpFR	17	6	0	BRANDY	169	n/a	4	1	n/a	n/a	n/a	n/a	n/a
3355.646	n/a	RECOG_TARGET	1677823	n/a	LTP066	ltpFR	17	6	-1	PAW	1029	1	5	-1	n/a	n/a	n/a	n/a	n/a
3356.206	n/a	RECOG_RESP	1678103	n/a	LTP066	ltpFR	17	6	-1	PAW	1029	1	n/a	-1	n/a	n/a	n/a	n/a	n/a
3356.632	n/a	RECOG_CONF	1678316	n/a	LTP066	ltpFR	17	6	-1	PAW	1029	n/a	5	-1	n/a	n/a	n/a	n/a	n/a
3357.936	n/a	RECOG_TARGET	1678968	n/a	LTP066	ltpFR	17	6	1	GRAVEL	659	1	5	0	n/a	n/a	n/a	n/a	n/a
3358.636	n/a	RECOG_RESP	1679318	n/a	LTP066	ltpFR	17	6	1	GRAVEL	659	1	n/a	0	n/a	n/a	n/a	n/a	n/a
3359.104	n/a	RECOG_CONF	1679552	n/a	LTP066	ltpFR	17	6	1	GRAVEL	659	n/a	5	0	n/a	n/a	n/a	n/a	n/a
3360.412	n/a	RECOG_TARGET	1680206	n/a	LTP066	ltpFR	17	6	-1	BALLOT	76	1	5	-1	n/a	n/a	n/a	n/a	n/a
3360.956	n/a	RECOG_RESP	1680478	n/a	LTP066	ltpFR	17	6	-1	BALLOT	76	1	n/a	-1	n/a	n/a	n/a	n/a	n/a
3361.43	n/a	RECOG_CONF	1680715	n/a	LTP066	ltpFR	17	6	-1	BALLOT	76	n/a	5	-1	n/a	n/a	n/a	n/a	n/a
3362.662	n/a	RECOG_TARGET	1681331	n/a	LTP066	ltpFR	17	6	-1	OFFICE	972	1	5	-1	n/a	n/a	n/a	n/a	n/a
3364.742	n/a	RECOG_RESP	1682371	n/a	LTP066	ltpFR	17	6	-1	OFFICE	972	1	n/a	-1	n/a	n/a	n/a	n/a	n/a
3365.164	n/a	RECOG_CONF	1682582	n/a	LTP066	ltpFR	17	6	-1	OFFICE	972	n/a	5	-1	n/a	n/a	n/a	n/a	n/a
3366.47	n/a	RECOG_TARGET	1683235	n/a	LTP066	ltpFR	17	6	1	COLONEL	348	1	5	0	n/a	n/a	n/a	n/a	n/a
3367.132	n/a	RECOG_RESP	1683566	n/a	LTP066	ltpFR	17	6	1	COLONEL	348	1	n/a	0	n/a	n/a	n/a	n/a	n/a
3367.554	n/a	RECOG_CONF	1683777	n/a	LTP066	ltpFR	17	6	1	COLONEL	348	n/a	5	0	n/a	n/a	n/a	n/a	n/a
3368.868	n/a	RECOG_TARGET	1684434	n/a	LTP066	ltpFR	17	6	1	TURNIP	1521	1	5	1	n/a	n/a	n/a	n/a	n/a
3369.546	n/a	RECOG_RESP	1684773	n/a	LTP066	ltpFR	17	6	1	TURNIP	1521	1	n/a	1	n/a	n/a	n/a	n/a	n/a
3369.99	n/a	RECOG_CONF	1684995	n/a	LTP066	ltpFR	17	6	1	TURNIP	1521	n/a	5	1	n/a	n/a	n/a	n/a	n/a
3371.244	n/a	RECOG_TARGET	1685622	n/a	LTP066	ltpFR	17	6	1	BARTENDER	92	1	5	1	n/a	n/a	n/a	n/a	n/a
3371.77	n/a	RECOG_RESP	1685885	n/a	LTP066	ltpFR	17	6	1	BARTENDER	92	1	n/a	1	n/a	n/a	n/a	n/a	n/a
3372.234	n/a	RECOG_CONF	1686117	n/a	LTP066	ltpFR	17	6	1	BARTENDER	92	n/a	5	1	n/a	n/a	n/a	n/a	n/a
3373.51	n/a	RECOG_LURE	1686755	n/a	LTP066	ltpFR	17	6	n/a	STETHOSCOPE	1379	1	5	n/a	n/a	n/a	n/a	n/a	n/a
3374.192	n/a	RECOG_RESP	1687096	n/a	LTP066	ltpFR	17	6	n/a	STETHOSCOPE	1379	1	n/a	n/a	n/a	n/a	n/a	n/a	n/a
3374.64	n/a	RECOG_CONF	1687320	n/a	LTP066	ltpFR	17	6	n/a	STETHOSCOPE	1379	n/a	5	n/a	n/a	n/a	n/a	n/a	n/a
3380.484	n/a	REC_START	1690242	n/a	LTP066	ltpFR	17	7	n/a	n/a	n/a	n/a	n/a	n/a	n/a	n/a	n/a	n/a	n/a
3380.52	n/a	RECOG_TARGET	1690260	n/a	LTP066	ltpFR	17	7	0	STATUE	1374	1	5	1	n/a	n/a	n/a	n/a	n/a
3381.078	n/a	RECOG_RESP	1690539	n/a	LTP066	ltpFR	17	7	0	STATUE	1374	1	n/a	1	n/a	n/a	n/a	n/a	n/a
3381.494	n/a	RECOG_CONF	1690747	n/a	LTP066	ltpFR	17	7	0	STATUE	1374	n/a	5	1	n/a	n/a	n/a	n/a	n/a
3382.828	n/a	RECOG_TARGET	1691414	n/a	LTP066	ltpFR	17	7	1	BANDIT	81	1	4	1	n/a	n/a	n/a	n/a	n/a
3383.498	n/a	RECOG_RESP	1691749	n/a	LTP066	ltpFR	17	7	1	BANDIT	81	1	n/a	1	n/a	n/a	n/a	n/a	n/a
3383.892	n/a	RECOG_CONF	1691946	n/a	LTP066	ltpFR	17	7	1	BANDIT	81	n/a	4	1	n/a	n/a	n/a	n/a	n/a
3385.152	n/a	RECOG_TARGET	1692576	n/a	LTP066	ltpFR	17	7	0	WRIST	1626	1	5	0	n/a	n/a	n/a	n/a	n/a
3385.552	n/a	RECOG_RESP	1692776	n/a	LTP066	ltpFR	17	7	0	WRIST	1626	1	n/a	0	n/a	n/a	n/a	n/a	n/a
3385.942	n/a	RECOG_CONF	1692971	n/a	LTP066	ltpFR	17	7	0	WRIST	1626	n/a	5	0	n/a	n/a	n/a	n/a	n/a
3387.244	n/a	RECOG_TARGET	1693622	n/a	LTP066	ltpFR	17	7	-1	CANDIDATE	228	1	5	-1	n/a	n/a	n/a	n/a	n/a
3387.668	n/a	RECOG_RESP	1693834	n/a	LTP066	ltpFR	17	7	-1	CANDIDATE	228	1	n/a	-1	n/a	n/a	n/a	n/a	n/a
3388.064	n/a	RECOG_CONF	1694032	n/a	LTP066	ltpFR	17	7	-1	CANDIDATE	228	n/a	5	-1	n/a	n/a	n/a	n/a	n/a
3389.318	n/a	RECOG_TARGET	1694659	n/a	LTP066	ltpFR	17	7	-1	FOOT	590	0	4	-1	n/a	n/a	n/a	n/a	n/a
3389.972	n/a	RECOG_RESP	1694986	n/a	LTP066	ltpFR	17	7	-1	FOOT	590	0	n/a	-1	n/a	n/a	n/a	n/a	n/a
3390.284	n/a	RECOG_CONF	1695142	n/a	LTP066	ltpFR	17	7	-1	FOOT	590	n/a	4	-1	n/a	n/a	n/a	n/a	n/a
3391.636	n/a	RECOG_TARGET	1695818	n/a	LTP066	ltpFR	17	7	1	PEARL	1034	1	5	0	n/a	n/a	n/a	n/a	n/a
3392.138	n/a	RECOG_RESP	1696069	n/a	LTP066	ltpFR	17	7	1	PEARL	1034	1	n/a	0	n/a	n/a	n/a	n/a	n/a
3392.512	n/a	RECOG_CONF	1696256	n/a	LTP066	ltpFR	17	7	1	PEARL	1034	n/a	5	0	n/a	n/a	n/a	n/a	n/a
3393.734	n/a	RECOG_TARGET	1696867	n/a	LTP066	ltpFR	17	7	0	PADDING	999	1	5	1	n/a	n/a	n/a	n/a	n/a
3394.298	n/a	RECOG_RESP	1697149	n/a	LTP066	ltpFR	17	7	0	PADDING	999	1	n/a	1	n/a	n/a	n/a	n/a	n/a
3394.688	n/a	RECOG_CONF	1697344	n/a	LTP066	ltpFR	17	7	0	PADDING	999	n/a	5	1	n/a	n/a	n/a	n/a	n/a
3395.894	n/a	RECOG_TARGET	1697947	n/a	LTP066	ltpFR	17	7	1	INTESTINE	742	1	5	1	n/a	n/a	n/a	n/a	n/a
3396.38	n/a	RECOG_RESP	1698190	n/a	LTP066	ltpFR	17	7	1	INTESTINE	742	1	n/a	1	n/a	n/a	n/a	n/a	n/a
3396.774	n/a	RECOG_CONF	1698387	n/a	LTP066	ltpFR	17	7	1	INTESTINE	742	n/a	5	1	n/a	n/a	n/a	n/a	n/a
3398.402	n/a	RECOG_LURE	1699201	n/a	LTP066	ltpFR	17	7	n/a	TRIBE	1505	0	5	n/a	n/a	n/a	n/a	n/a	n/a
3399.108	n/a	RECOG_RESP	1699554	n/a	LTP066	ltpFR	17	7	n/a	TRIBE	1505	0	n/a	n/a	n/a	n/a	n/a	n/a	n/a
3399.37	n/a	RECOG_CONF	1699685	n/a	LTP066	ltpFR	17	7	n/a	TRIBE	1505	n/a	5	n/a	n/a	n/a	n/a	n/a	n/a
3400.752	n/a	RECOG_TARGET	1700376	n/a	LTP066	ltpFR	17	7	0	LABYRINTH	791	1	5	1	n/a	n/a	n/a	n/a	n/a
3401.254	n/a	RECOG_RESP	1700627	n/a	LTP066	ltpFR	17	7	0	LABYRINTH	791	1	n/a	1	n/a	n/a	n/a	n/a	n/a
