mstime	trial_type	stim_file	subject	experiment	session	trial	task	item_name	item_num	recog_resp	recog_conf	resp	answer	test_x	test_y	test_z	color_r	color_g	color_b	case	font
0	SESS_START	n/a	LTP261	ltpFR	8	n/a	n/a	n/a	n/a	0	n/a	n/a	n/a	0	0	0	n/a	n/a	n/a	n/a	n/a
61725	START	n/a	LTP261	ltpFR	8	n/a	n/a	n/a	n/a	n/a	n/a	n/a	n/a	n/a	n/a	n/a	n/a	n/a	n/a	n/a	n/a
61758	PROB	n/a	LTP261	ltpFR	8	n/a	n/a	n/a	n/a	n/a	n/a	n/a	16	2	6	8	n/a	n/a	n/a	n/a	n/a
64654	PROB	n/a	LTP261	ltpFR	8	n/a	n/a	n/a	n/a	n/a	n/a	n/a	12	5	5	2	n/a	n/a	n/a	n/a	n/a
65970	PROB	n/a	LTP261	ltpFR	8	n/a	n/a	n/a	n/a	n/a	n/a	n/a	8	4	1	3	n/a	n/a	n/a	n/a	n/a
68050	PROB	n/a	LTP261	ltpFR	8	n/a	n/a	n/a	n/a	n/a	n/a	n/a	6	3	2	1	n/a	n/a	n/a	n/a	n/a
71262	PROB	n/a	LTP261	ltpFR	8	n/a	n/a	n/a	n/a	n/a	n/a	n/a	14	7	4	3	n/a	n/a	n/a	n/a	n/a
73591	PROB	n/a	LTP261	ltpFR	8	n/a	n/a	n/a	n/a	n/a	n/a	n/a	21	5	7	9	n/a	n/a	n/a	n/a	n/a
78550	PROB	n/a	LTP261	ltpFR	8	n/a	n/a	n/a	n/a	n/a	n/a	n/a	10	7	1	2	n/a	n/a	n/a	n/a	n/a
80225	STOP	n/a	LTP261	ltpFR	8	n/a	n/a	n/a	n/a	n/a	n/a	n/a	n/a	n/a	n/a	n/a	n/a	n/a	n/a	n/a	n/a
125746	WORD	wordpools/wasnorm_wordpool_less_exclusions.txt	LTP261	ltpFR	8	1	0	SKUNK	1321	n/a	5	1	n/a	0	0	0	0.422607421875	0.5869140625	0	lower	zerothre.ttf
129824	WORD	wordpools/wasnorm_wordpool_less_exclusions.txt	LTP261	ltpFR	8	1	0	MITTEN	902	n/a	n/a	0	n/a	0	0	0	0.422607421875	0.5869140625	0	lower	zerothre.ttf
133852	WORD	wordpools/wasnorm_wordpool_less_exclusions.txt	LTP261	ltpFR	8	1	0	GARAGE	621	n/a	n/a	1	n/a	0	0	0	0.422607421875	0.5869140625	0	lower	zerothre.ttf
138062	WORD	wordpools/wasnorm_wordpool_less_exclusions.txt	LTP261	ltpFR	8	1	0	WAGON	1578	n/a	n/a	1	n/a	0	0	0	0.422607421875	0.5869140625	0	lower	zerothre.ttf
141923	WORD	wordpools/wasnorm_wordpool_less_exclusions.txt	LTP261	ltpFR	8	1	0	CAFE	216	n/a	n/a	1	n/a	0	0	0	0.422607421875	0.5869140625	0	lower	zerothre.ttf
145749	WORD	wordpools/wasnorm_wordpool_less_exclusions.txt	LTP261	ltpFR	8	1	0	CHIP	303	n/a	n/a	0	n/a	0	0	0	0.422607421875	0.5869140625	0	lower	zerothre.ttf
149911	WORD	wordpools/wasnorm_wordpool_less_exclusions.txt	LTP261	ltpFR	8	1	0	SUBWAY	1400	n/a	n/a	1	n/a	0	0	0	0.422607421875	0.5869140625	0	lower	zerothre.ttf
153988	WORD	wordpools/wasnorm_wordpool_less_exclusions.txt	LTP261	ltpFR	8	1	0	BULLETIN	195	n/a	n/a	0	n/a	0	0	0	0.422607421875	0.5869140625	0	lower	zerothre.ttf
158082	WORD	wordpools/wasnorm_wordpool_less_exclusions.txt	LTP261	ltpFR	8	1	0	TRAY	1498	n/a	n/a	0	n/a	0	0	0	0.422607421875	0.5869140625	0	lower	zerothre.ttf
162276	WORD	wordpools/wasnorm_wordpool_less_exclusions.txt	LTP261	ltpFR	8	1	0	LUNCH	849	n/a	n/a	0	n/a	0	0	0	0.422607421875	0.5869140625	0	lower	zerothre.ttf
166469	WORD	wordpools/wasnorm_wordpool_less_exclusions.txt	LTP261	ltpFR	8	1	0	TERRITORY	1452	n/a	n/a	1	n/a	0	0	0	0.422607421875	0.5869140625	0	lower	zerothre.ttf
170430	WORD	wordpools/wasnorm_wordpool_less_exclusions.txt	LTP261	ltpFR	8	1	0	BUS	201	n/a	n/a	1	n/a	0	0	0	0.422607421875	0.5869140625	0	lower	zerothre.ttf
174556	WORD	wordpools/wasnorm_wordpool_less_exclusions.txt	LTP261	ltpFR	8	1	0	WRIST	1626	n/a	n/a	0	n/a	0	0	0	0.422607421875	0.5869140625	0	lower	zerothre.ttf
178468	WORD	wordpools/wasnorm_wordpool_less_exclusions.txt	LTP261	ltpFR	8	1	0	CHALK	276	n/a	n/a	0	n/a	0	0	0	0.422607421875	0.5869140625	0	lower	zerothre.ttf
182412	WORD	wordpools/wasnorm_wordpool_less_exclusions.txt	LTP261	ltpFR	8	1	0	APARTMENT	30	n/a	n/a	1	n/a	0	0	0	0.422607421875	0.5869140625	0	lower	zerothre.ttf
186555	WORD	wordpools/wasnorm_wordpool_less_exclusions.txt	LTP261	ltpFR	8	1	0	TILE	1468	n/a	n/a	0	n/a	0	0	0	0.422607421875	0.5869140625	0	lower	zerothre.ttf
189568	START	n/a	LTP261	ltpFR	8	n/a	n/a	n/a	n/a	n/a	n/a	n/a	n/a	n/a	n/a	n/a	n/a	n/a	n/a	n/a	n/a
190549	PROB	n/a	LTP261	ltpFR	8	n/a	n/a	n/a	n/a	n/a	n/a	n/a	9	2	1	6	n/a	n/a	n/a	n/a	n/a
193512	PROB	n/a	LTP261	ltpFR	8	n/a	n/a	n/a	n/a	n/a	n/a	n/a	21	9	9	4	n/a	n/a	n/a	n/a	n/a
196552	STOP	n/a	LTP261	ltpFR	8	n/a	n/a	n/a	n/a	n/a	n/a	n/a	n/a	n/a	n/a	n/a	n/a	n/a	n/a	n/a	n/a
199421	REC_START	n/a	LTP261	ltpFR	8	1	n/a	n/a	n/a	n/a	n/a	n/a	n/a	0	0	0	n/a	n/a	n/a	n/a	n/a
200633	REC_WORD	wordpools/wasnorm_wordpool_less_exclusions.txt	LTP261	ltpFR	8	1	0	APARTMENT	30	n/a	n/a	1	n/a	0	0	0	n/a	n/a	n/a	n/a	n/a
202515	REC_WORD	wordpools/wasnorm_wordpool_less_exclusions.txt	LTP261	ltpFR	8	1	0	TILE	1468	n/a	n/a	0	n/a	0	0	0	n/a	n/a	n/a	n/a	n/a
204012	REC_WORD	wordpools/wasnorm_wordpool_less_exclusions.txt	LTP261	ltpFR	8	1	0	SKUNK	1321	n/a	n/a	1	n/a	0	0	0	n/a	n/a	n/a	n/a	n/a
207422	REC_WORD	wordpools/wasnorm_wordpool_less_exclusions.txt	LTP261	ltpFR	8	1	0	BUS	201	n/a	n/a	1	n/a	0	0	0	n/a	n/a	n/a	n/a	n/a
208728	REC_WORD	wordpools/wasnorm_wordpool_less_exclusions.txt	LTP261	ltpFR	8	1	0	TERRITORY	1452	n/a	n/a	1	n/a	0	0	0	n/a	n/a	n/a	n/a	n/a
210275	REC_WORD	wordpools/wasnorm_wordpool_less_exclusions.txt	LTP261	ltpFR	8	1	0	CHALK	276	n/a	n/a	0	n/a	0	0	0	n/a	n/a	n/a	n/a	n/a
211694	REC_WORD	wordpools/wasnorm_wordpool_less_exclusions.txt	LTP261	ltpFR	8	1	0	TRAY	1498	n/a	n/a	0	n/a	0	0	0	n/a	n/a	n/a	n/a	n/a
215215	REC_WORD	wordpools/wasnorm_wordpool_less_exclusions.txt	LTP261	ltpFR	8	1	0	WAGON	1578	n/a	n/a	1	n/a	0	0	0	n/a	n/a	n/a	n/a	n/a
217450	REC_WORD	wordpools/wasnorm_wordpool_less_exclusions.txt	LTP261	ltpFR	8	1	0	SUBWAY	1400	n/a	n/a	1	n/a	0	0	0	n/a	n/a	n/a	n/a	n/a
224087	REC_WORD	wordpools/wasnorm_wordpool_less_exclusions.txt	LTP261	ltpFR	8	1	0	LUNCH	849	n/a	n/a	0	n/a	0	0	0	n/a	n/a	n/a	n/a	n/a
226400	REC_WORD	wordpools/wasnorm_wordpool_less_exclusions.txt	LTP261	ltpFR	8	1	0	BULLETIN	195	n/a	n/a	0	n/a	0	0	0	n/a	n/a	n/a	n/a	n/a
278070	START	n/a	LTP261	ltpFR	8	n/a	n/a	n/a	n/a	n/a	n/a	n/a	n/a	n/a	n/a	n/a	n/a	n/a	n/a	n/a	n/a
279583	PROB	n/a	LTP261	ltpFR	8	n/a	n/a	n/a	n/a	n/a	n/a	n/a	14	3	3	8	n/a	n/a	n/a	n/a	n/a
283660	PROB	n/a	LTP261	ltpFR	8	n/a	n/a	n/a	n/a	n/a	n/a	n/a	19	9	5	5	n/a	n/a	n/a	n/a	n/a
285337	STOP	n/a	LTP261	ltpFR	8	n/a	n/a	n/a	n/a	n/a	n/a	n/a	n/a	n/a	n/a	n/a	n/a	n/a	n/a	n/a	n/a
287139	WORD	wordpools/wasnorm_wordpool_less_exclusions.txt	LTP261	ltpFR	8	2	0	CHEMIST	292	n/a	n/a	1	n/a	0	0	0	0.422607421875	0.5869140625	0	lower	zerothre.ttf
290152	START	n/a	LTP261	ltpFR	8	n/a	n/a	n/a	n/a	n/a	n/a	n/a	n/a	n/a	n/a	n/a	n/a	n/a	n/a	n/a	n/a
291216	PROB	n/a	LTP261	ltpFR	8	n/a	n/a	n/a	n/a	n/a	n/a	n/a	9	6	2	1	n/a	n/a	n/a	n/a	n/a
293347	PROB	n/a	LTP261	ltpFR	8	n/a	n/a	n/a	n/a	n/a	n/a	n/a	16	3	6	7	n/a	n/a	n/a	n/a	n/a
295394	PROB	n/a	LTP261	ltpFR	8	n/a	n/a	n/a	n/a	n/a	n/a	n/a	17	1	8	8	n/a	n/a	n/a	n/a	n/a
297297	STOP	n/a	LTP261	ltpFR	8	n/a	n/a	n/a	n/a	n/a	n/a	n/a	n/a	n/a	n/a	n/a	n/a	n/a	n/a	n/a	n/a
299288	WORD	wordpools/wasnorm_wordpool_less_exclusions.txt	LTP261	ltpFR	8	2	0	NEST	945	n/a	n/a	0	n/a	0	0	0	0.422607421875	0.5869140625	0	lower	zerothre.ttf
302300	START	n/a	LTP261	ltpFR	8	n/a	n/a	n/a	n/a	n/a	n/a	n/a	n/a	n/a	n/a	n/a	n/a	n/a	n/a	n/a	n/a
303382	PROB	n/a	LTP261	ltpFR	8	n/a	n/a	n/a	n/a	n/a	n/a	n/a	13	7	4	2	n/a	n/a	n/a	n/a	n/a
305878	PROB	n/a	LTP261	ltpFR	8	n/a	n/a	n/a	n/a	n/a	n/a	n/a	18	9	8	1	n/a	n/a	n/a	n/a	n/a
307757	PROB	n/a	LTP261	ltpFR	8	n/a	n/a	n/a	n/a	n/a	n/a	n/a	11	4	3	4	n/a	n/a	n/a	n/a	n/a
309873	STOP	n/a	LTP261	ltpFR	8	n/a	n/a	n/a	n/a	n/a	n/a	n/a	n/a	n/a	n/a	n/a	n/a	n/a	n/a	n/a	n/a
311187	WORD	wordpools/wasnorm_wordpool_less_exclusions.txt	LTP261	ltpFR	8	2	0	PISTON	1076	n/a	n/a	0	n/a	0	0	0	0.422607421875	0.5869140625	0	lower	zerothre.ttf
314199	START	n/a	LTP261	ltpFR	8	n/a	n/a	n/a	n/a	n/a	n/a	n/a	n/a	n/a	n/a	n/a	n/a	n/a	n/a	n/a	n/a
315081	PROB	n/a	LTP261	ltpFR	8	n/a	n/a	n/a	n/a	n/a	n/a	n/a	15	6	3	3	n/a	n/a	n/a	n/a	n/a
317559	PROB	n/a	LTP261	ltpFR	8	n/a	n/a	n/a	n/a	n/a	n/a	n/a	15	2	4	9	n/a	n/a	n/a	n/a	n/a
320605	PROB	n/a	LTP261	ltpFR	8	n/a	n/a	n/a	n/a	n/a	n/a	n/a	4	1	1	2	n/a	n/a	n/a	n/a	n/a
321857	STOP	n/a	LTP261	ltpFR	8	n/a	n/a	n/a	n/a	n/a	n/a	n/a	n/a	n/a	n/a	n/a	n/a	n/a	n/a	n/a	n/a
323369	WORD	wordpools/wasnorm_wordpool_less_exclusions.txt	LTP261	ltpFR	8	2	0	SICKLE	1302	n/a	n/a	0	n/a	0	0	0	0.422607421875	0.5869140625	0	lower	zerothre.ttf
326381	START	n/a	LTP261	ltpFR	8	n/a	n/a	n/a	n/a	n/a	n/a	n/a	n/a	n/a	n/a	n/a	n/a	n/a	n/a	n/a	n/a
327396	PROB	n/a	LTP261	ltpFR	8	n/a	n/a	n/a	n/a	n/a	n/a	n/a	13	7	4	2	n/a	n/a	n/a	n/a	n/a
329875	PROB	n/a	LTP261	ltpFR	8	n/a	n/a	n/a	n/a	n/a	n/a	n/a	20	8	8	4	n/a	n/a	n/a	n/a	n/a
332189	PROB	n/a	LTP261	ltpFR	8	n/a	n/a	n/a	n/a	n/a	n/a	n/a	14	8	5	1	n/a	n/a	n/a	n/a	n/a
334241	STOP	n/a	LTP261	ltpFR	8	n/a	n/a	n/a	n/a	n/a	n/a	n/a	n/a	n/a	n/a	n/a	n/a	n/a	n/a	n/a	n/a
335201	WORD	wordpools/wasnorm_wordpool_less_exclusions.txt	LTP261	ltpFR	8	2	1	WALRUS	1585	n/a	n/a	n/a	n/a	0	0	0	0.57763671875	0.412841796875	1	upper	amplitud.ttf
338230	SLOW_MSG	n/a	LTP261	ltpFR	8	2	n/a	n/a	n/a	n/a	n/a	n/a	n/a	0	0	0	n/a	n/a	n/a	n/a	n/a
339760	START	n/a	LTP261	ltpFR	8	n/a	n/a	n/a	n/a	n/a	n/a	n/a	n/a	n/a	n/a	n/a	n/a	n/a	n/a	n/a	n/a
340792	PROB	n/a	LTP261	ltpFR	8	n/a	n/a	n/a	n/a	n/a	n/a	n/a	16	3	5	8	n/a	n/a	n/a	n/a	n/a
345203	PROB	n/a	LTP261	ltpFR	8	n/a	n/a	n/a	n/a	n/a	n/a	n/a	15	7	7	1	n/a	n/a	n/a	n/a	n/a
347009	STOP	n/a	LTP261	ltpFR	8	n/a	n/a	n/a	n/a	n/a	n/a	n/a	n/a	n/a	n/a	n/a	n/a	n/a	n/a	n/a	n/a
348730	WORD	wordpools/wasnorm_wordpool_less_exclusions.txt	LTP261	ltpFR	8	2	1	RAFT	1159	n/a	n/a	0	n/a	0	0	0	0.57763671875	0.412841796875	1	upper	amplitud.ttf
351742	START	n/a	LTP261	ltpFR	8	n/a	n/a	n/a	n/a	n/a	n/a	n/a	n/a	n/a	n/a	n/a	n/a	n/a	n/a	n/a	n/a
352574	PROB	n/a	LTP261	ltpFR	8	n/a	n/a	n/a	n/a	n/a	n/a	n/a	23	9	8	6	n/a	n/a	n/a	n/a	n/a
359742	STOP	n/a	LTP261	ltpFR	8	n/a	n/a	n/a	n/a	n/a	n/a	n/a	n/a	n/a	n/a	n/a	n/a	n/a	n/a	n/a	n/a
360946	WORD	wordpools/wasnorm_wordpool_less_exclusions.txt	LTP261	ltpFR	8	2	1	VICTOR	1563	n/a	n/a	0	n/a	0	0	0	0.57763671875	0.412841796875	1	upper	amplitud.ttf
363958	START	n/a	LTP261	ltpFR	8	n/a	n/a	n/a	n/a	n/a	n/a	n/a	n/a	n/a	n/a	n/a	n/a	n/a	n/a	n/a	n/a
364973	PROB	n/a	LTP261	ltpFR	8	n/a	n/a	n/a	n/a	n/a	n/a	n/a	9	2	5	2	n/a	n/a	n/a	n/a	n/a
367220	PROB	n/a	LTP261	ltpFR	8	n/a	n/a	n/a	n/a	n/a	n/a	n/a	18	7	2	9	n/a	n/a	n/a	n/a	n/a
371958	STOP	n/a	LTP261	ltpFR	8	n/a	n/a	n/a	n/a	n/a	n/a	n/a	n/a	n/a	n/a	n/a	n/a	n/a	n/a	n/a	n/a
373127	WORD	wordpools/wasnorm_wordpool_less_exclusions.txt	LTP261	ltpFR	8	2	1	CHAMPION	279	n/a	n/a	1	n/a	0	0	0	0.57763671875	0.412841796875	1	upper	amplitud.ttf
376140	START	n/a	LTP261	ltpFR	8	n/a	n/a	n/a	n/a	n/a	n/a	n/a	n/a	n/a	n/a	n/a	n/a	n/a	n/a	n/a	n/a
377238	PROB	n/a	LTP261	ltpFR	8	n/a	n/a	n/a	n/a	n/a	n/a	n/a	20	8	5	7	n/a	n/a	n/a	n/a	n/a
384140	STOP	n/a	LTP261	ltpFR	8	n/a	n/a	n/a	n/a	n/a	n/a	n/a	n/a	n/a	n/a	n/a	n/a	n/a	n/a	n/a	n/a
384976	WORD	wordpools/wasnorm_wordpool_less_exclusions.txt	LTP261	ltpFR	8	2	1	BREAST	171	n/a	n/a	1	n/a	0	0	0	0.57763671875	0.412841796875	1	upper	amplitud.ttf
387989	START	n/a	LTP261	ltpFR	8	n/a	n/a	n/a	n/a	n/a	n/a	n/a	n/a	n/a	n/a	n/a	n/a	n/a	n/a	n/a	n/a
388904	PROB	n/a	LTP261	ltpFR	8	n/a	n/a	n/a	n/a	n/a	n/a	n/a	12	2	5	5	n/a	n/a	n/a	n/a	n/a
390319	PROB	n/a	LTP261	ltpFR	8	n/a	n/a	n/a	n/a	n/a	n/a	n/a	15	4	8	3	n/a	n/a	n/a	n/a	n/a
395989	STOP	n/a	LTP261	ltpFR	8	n/a	n/a	n/a	n/a	n/a	n/a	n/a	n/a	n/a	n/a	n/a	n/a	n/a	n/a	n/a	n/a
397125	WORD	wordpools/wasnorm_wordpool_less_exclusions.txt	LTP261	ltpFR	8	2	0	STEW	1380	n/a	n/a	1	n/a	0	0	0	0.422607421875	0.5869140625	0	lower	zerothre.ttf
400138	START	n/a	LTP261	ltpFR	8	n/a	n/a	n/a	n/a	n/a	n/a	n/a	n/a	n/a	n/a	n/a	n/a	n/a	n/a	n/a	n/a
401002	PROB	n/a	LTP261	ltpFR	8	n/a	n/a	n/a	n/a	n/a	n/a	n/a	17	7	7	3	n/a	n/a	n/a	n/a	n/a
403832	PROB	n/a	LTP261	ltpFR	8	n/a	n/a	n/a	n/a	n/a	n/a	n/a	11	3	4	4	n/a	n/a	n/a	n/a	n/a
407089	STOP	n/a	LTP261	ltpFR	8	n/a	n/a	n/a	n/a	n/a	n/a	n/a	n/a	n/a	n/a	n/a	n/a	n/a	n/a	n/a	n/a
409257	WORD	wordpools/wasnorm_wordpool_less_exclusions.txt	LTP261	ltpFR	8	2	0	LASH	802	n/a	n/a	1	n/a	0	0	0	0.422607421875	0.5869140625	0	lower	zerothre.ttf
412270	START	n/a	LTP261	ltpFR	8	n/a	n/a	n/a	n/a	n/a	n/a	n/a	n/a	n/a	n/a	n/a	n/a	n/a	n/a	n/a	n/a
413284	PROB	n/a	LTP261	ltpFR	8	n/a	n/a	n/a	n/a	n/a	n/a	n/a	20	7	9	4	n/a	n/a	n/a	n/a	n/a
420270	STOP	n/a	LTP261	ltpFR	8	n/a	n/a	n/a	n/a	n/a	n/a	n/a	n/a	n/a	n/a	n/a	n/a	n/a	n/a	n/a	n/a
421455	WORD	wordpools/wasnorm_wordpool_less_exclusions.txt	LTP261	ltpFR	8	2	0	STRAWBERRY	1391	n/a	n/a	0	n/a	0	0	0	0.422607421875	0.5869140625	0	lower	zerothre.ttf
424468	START	n/a	LTP261	ltpFR	8	n/a	n/a	n/a	n/a	n/a	n/a	n/a	n/a	n/a	n/a	n/a	n/a	n/a	n/a	n/a	n/a
425499	PROB	n/a	LTP261	ltpFR	8	n/a	n/a	n/a	n/a	n/a	n/a	n/a	17	8	8	1	n/a	n/a	n/a	n/a	n/a
432468	STOP	n/a	LTP261	ltpFR	8	n/a	n/a	n/a	n/a	n/a	n/a	n/a	n/a	n/a	n/a	n/a	n/a	n/a	n/a	n/a	n/a
433504	WORD	wordpools/wasnorm_wordpool_less_exclusions.txt	LTP261	ltpFR	8	2	0	KANGAROO	768	n/a	n/a	1	n/a	0	0	0	0.422607421875	0.5869140625	0	lower	zerothre.ttf
436517	START	n/a	LTP261	ltpFR	8	n/a	n/a	n/a	n/a	n/a	n/a	n/a	n/a	n/a	n/a	n/a	n/a	n/a	n/a	n/a	n/a
437630	PROB	n/a	LTP261	ltpFR	8	n/a	n/a	n/a	n/a	n/a	n/a	n/a	16	9	3	4	n/a	n/a	n/a	n/a	n/a
440177	PROB	n/a	LTP261	ltpFR	8	n/a	n/a	n/a	n/a	n/a	n/a	n/a	17	6	3	8	n/a	n/a	n/a	n/a	n/a
443369	STOP	n/a	LTP261	ltpFR	8	n/a	n/a	n/a	n/a	n/a	n/a	n/a	n/a	n/a	n/a	n/a	n/a	n/a	n/a	n/a	n/a
445519	WORD	wordpools/wasnorm_wordpool_less_exclusions.txt	LTP261	ltpFR	8	2	1	POCKET	1093	n/a	n/a	0	n/a	0	0	0	0.57763671875	0.412841796875	1	upper	amplitud.ttf
448531	START	n/a	LTP261	ltpFR	8	n/a	n/a	n/a	n/a	n/a	n/a	n/a	n/a	n/a	n/a	n/a	n/a	n/a	n/a	n/a	n/a
449497	PROB	n/a	LTP261	ltpFR	8	n/a	n/a	n/a	n/a	n/a	n/a	n/a	17	8	2	7	n/a	n/a	n/a	n/a	n/a
451294	PROB	n/a	LTP261	ltpFR	8	n/a	n/a	n/a	n/a	n/a	n/a	n/a	14	6	7	1	n/a	n/a	n/a	n/a	n/a
453656	PROB	n/a	LTP261	ltpFR	8	n/a	n/a	n/a	n/a	n/a	n/a	n/a	12	1	4	7	n/a	n/a	n/a	n/a	n/a
455600	STOP	n/a	LTP261	ltpFR	8	n/a	n/a	n/a	n/a	n/a	n/a	n/a	n/a	n/a	n/a	n/a	n/a	n/a	n/a	n/a	n/a
457600	WORD	wordpools/wasnorm_wordpool_less_exclusions.txt	LTP261	ltpFR	8	2	1	SPRINKLE	1359	n/a	n/a	0	n/a	0	0	0	0.57763671875	0.412841796875	1	upper	amplitud.ttf
460613	START	n/a	LTP261	ltpFR	8	n/a	n/a	n/a	n/a	n/a	n/a	n/a	n/a	n/a	n/a	n/a	n/a	n/a	n/a	n/a	n/a
461512	PROB	n/a	LTP261	ltpFR	8	n/a	n/a	n/a	n/a	n/a	n/a	n/a	10	2	2	6	n/a	n/a	n/a	n/a	n/a
463260	PROB	n/a	LTP261	ltpFR	8	n/a	n/a	n/a	n/a	n/a	n/a	n/a	23	9	9	5	n/a	n/a	n/a	n/a	n/a
467584	STOP	n/a	LTP261	ltpFR	8	n/a	n/a	n/a	n/a	n/a	n/a	n/a	n/a	n/a	n/a	n/a	n/a	n/a	n/a	n/a	n/a
469616	WORD	wordpools/wasnorm_wordpool_less_exclusions.txt	LTP261	ltpFR	8	2	1	PEAR	1033	n/a	n/a	0	n/a	0	0	0	0.57763671875	0.412841796875	1	upper	amplitud.ttf
472628	START	n/a	LTP261	ltpFR	8	n/a	n/a	n/a	n/a	n/a	n/a	n/a	n/a	n/a	n/a	n/a	n/a	n/a	n/a	n/a	n/a
473810	PROB	n/a	LTP261	ltpFR	8	n/a	n/a	n/a	n/a	n/a	n/a	n/a	15	1	5	9	n/a	n/a	n/a	n/a	n/a
475974	PROB	n/a	LTP261	ltpFR	8	n/a	n/a	n/a	n/a	n/a	n/a	n/a	23	7	8	8	n/a	n/a	n/a	n/a	n/a
479281	STOP	n/a	LTP261	ltpFR	8	n/a	n/a	n/a	n/a	n/a	n/a	n/a	n/a	n/a	n/a	n/a	n/a	n/a	n/a	n/a	n/a
482448	REC_START	n/a	LTP261	ltpFR	8	2	n/a	n/a	n/a	n/a	n/a	n/a	n/a	0	0	0	n/a	n/a	n/a	n/a	n/a
483607	REC_WORD	wordpools/wasnorm_wordpool_less_exclusions.txt	LTP261	ltpFR	8	2	1	PEAR	1033	n/a	n/a	0	n/a	0	0	0	n/a	n/a	n/a	n/a	n/a
485097	REC_WORD	wordpools/wasnorm_wordpool_less_exclusions.txt	LTP261	ltpFR	8	2	1	SPRINKLE	1359	n/a	n/a	0	n/a	0	0	0	n/a	n/a	n/a	n/a	n/a
486237	REC_WORD	wordpools/wasnorm_wordpool_less_exclusions.txt	LTP261	ltpFR	8	2	1	RAFT	1159	n/a	n/a	0	n/a	0	0	0	n/a	n/a	n/a	n/a	n/a
491649	REC_WORD	wordpools/wasnorm_wordpool_less_exclusions.txt	LTP261	ltpFR	8	2	1	WALRUS	1585	n/a	n/a	n/a	n/a	0	0	0	n/a	n/a	n/a	n/a	n/a
494198	REC_WORD	wordpools/wasnorm_wordpool_less_exclusions.txt	LTP261	ltpFR	8	2	1	CHAMPION	279	n/a	n/a	1	n/a	0	0	0	n/a	n/a	n/a	n/a	n/a
503916	REC_WORD	wordpools/wasnorm_wordpool_less_exclusions.txt	LTP261	ltpFR	8	2	0	NEST	945	n/a	n/a	0	n/a	0	0	0	n/a	n/a	n/a	n/a	n/a
507088	REC_WORD	wordpools/wasnorm_wordpool_less_exclusions.txt	LTP261	ltpFR	8	2	0	STEW	1380	n/a	n/a	1	n/a	0	0	0	n/a	n/a	n/a	n/a	n/a
550475	REC_WORD	wordpools/wasnorm_wordpool_less_exclusions.txt	LTP261	ltpFR	8	2	0	STRAWBERRY	1391	n/a	n/a	0	n/a	0	0	0	n/a	n/a	n/a	n/a	n/a
561180	START	n/a	LTP261	ltpFR	8	n/a	n/a	n/a	n/a	n/a	n/a	n/a	n/a	n/a	n/a	n/a	n/a	n/a	n/a	n/a	n/a
562693	PROB	n/a	LTP261	ltpFR	8	n/a	n/a	n/a	n/a	n/a	n/a	n/a	11	5	2	4	n/a	n/a	n/a	n/a	n/a
566505	PROB	n/a	LTP261	ltpFR	8	n/a	n/a	n/a	n/a	n/a	n/a	n/a	13	5	5	3	n/a	n/a	n/a	n/a	n/a
567744	STOP	n/a	LTP261	ltpFR	8	n/a	n/a	n/a	n/a	n/a	n/a	n/a	n/a	n/a	n/a	n/a	n/a	n/a	n/a	n/a	n/a
570000	WORD	wordpools/wasnorm_wordpool_less_exclusions.txt	LTP261	ltpFR	8	3	1	FLASHLIGHT	575	n/a	n/a	0	n/a	0	0	0	0.57763671875	0.412841796875	1	upper	amplitud.ttf
573013	START	n/a	LTP261	ltpFR	8	n/a	n/a	n/a	n/a	n/a	n/a	n/a	n/a	n/a	n/a	n/a	n/a	n/a	n/a	n/a	n/a
573994	PROB	n/a	LTP261	ltpFR	8	n/a	n/a	n/a	n/a	n/a	n/a	n/a	12	2	6	4	n/a	n/a	n/a	n/a	n/a
575775	PROB	n/a	LTP261	ltpFR	8	n/a	n/a	n/a	n/a	n/a	n/a	n/a	22	7	7	8	n/a	n/a	n/a	n/a	n/a
581013	STOP	n/a	LTP261	ltpFR	8	n/a	n/a	n/a	n/a	n/a	n/a	n/a	n/a	n/a	n/a	n/a	n/a	n/a	n/a	n/a	n/a
581866	WORD	wordpools/wasnorm_wordpool_less_exclusions.txt	LTP261	ltpFR	8	3	1	UNIFORM	1539	n/a	n/a	0	n/a	0	0	0	0.57763671875	0.412841796875	1	upper	amplitud.ttf
584878	START	n/a	LTP261	ltpFR	8	n/a	n/a	n/a	n/a	n/a	n/a	n/a	n/a	n/a	n/a	n/a	n/a	n/a	n/a	n/a	n/a
585843	PROB	n/a	LTP261	ltpFR	8	n/a	n/a	n/a	n/a	n/a	n/a	n/a	12	5	6	1	n/a	n/a	n/a	n/a	n/a
587840	PROB	n/a	LTP261	ltpFR	8	n/a	n/a	n/a	n/a	n/a	n/a	n/a	7	1	4	2	n/a	n/a	n/a	n/a	n/a
590020	PROB	n/a	LTP261	ltpFR	8	n/a	n/a	n/a	n/a	n/a	n/a	n/a	12	6	4	2	n/a	n/a	n/a	n/a	n/a
592877	STOP	n/a	LTP261	ltpFR	8	n/a	n/a	n/a	n/a	n/a	n/a	n/a	n/a	n/a	n/a	n/a	n/a	n/a	n/a	n/a	n/a
593714	WORD	wordpools/wasnorm_wordpool_less_exclusions.txt	LTP261	ltpFR	8	3	0	CATCHER	258	n/a	n/a	1	n/a	0	0	0	0.422607421875	0.5869140625	0	lower	zerothre.ttf
596726	START	n/a	LTP261	ltpFR	8	n/a	n/a	n/a	n/a	n/a	n/a	n/a	n/a	n/a	n/a	n/a	n/a	n/a	n/a	n/a	n/a
597658	PROB	n/a	LTP261	ltpFR	8	n/a	n/a	n/a	n/a	n/a	n/a	n/a	13	3	6	4	n/a	n/a	n/a	n/a	n/a
599240	PROB	n/a	LTP261	ltpFR	8	n/a	n/a	n/a	n/a	n/a	n/a	n/a	14	4	9	1	n/a	n/a	n/a	n/a	n/a
601735	PROB	n/a	LTP261	ltpFR	8	n/a	n/a	n/a	n/a	n/a	n/a	n/a	15	9	5	1	n/a	n/a	n/a	n/a	n/a
603841	STOP	n/a	LTP261	ltpFR	8	n/a	n/a	n/a	n/a	n/a	n/a	n/a	n/a	n/a	n/a	n/a	n/a	n/a	n/a	n/a	n/a
605629	WORD	wordpools/wasnorm_wordpool_less_exclusions.txt	LTP261	ltpFR	8	3	0	SWAN	1417	n/a	n/a	0	n/a	0	0	0	0.422607421875	0.5869140625	0	lower	zerothre.ttf
608642	START	n/a	LTP261	ltpFR	8	n/a	n/a	n/a	n/a	n/a	n/a	n/a	n/a	n/a	n/a	n/a	n/a	n/a	n/a	n/a	n/a
609640	PROB	n/a	LTP261	ltpFR	8	n/a	n/a	n/a	n/a	n/a	n/a	n/a	9	3	2	4	n/a	n/a	n/a	n/a	n/a
612886	PROB	n/a	LTP261	ltpFR	8	n/a	n/a	n/a	n/a	n/a	n/a	n/a	11	1	5	5	n/a	n/a	n/a	n/a	n/a
616642	STOP	n/a	LTP261	ltpFR	8	n/a	n/a	n/a	n/a	n/a	n/a	n/a	n/a	n/a	n/a	n/a	n/a	n/a	n/a	n/a	n/a
617578	WORD	wordpools/wasnorm_wordpool_less_exclusions.txt	LTP261	ltpFR	8	3	0	SWATTER	1418	n/a	n/a	0	n/a	0	0	0	0.422607421875	0.5869140625	0	lower	zerothre.ttf
620591	START	n/a	LTP261	ltpFR	8	n/a	n/a	n/a	n/a	n/a	n/a	n/a	n/a	n/a	n/a	n/a	n/a	n/a	n/a	n/a	n/a
621789	PROB	n/a	LTP261	ltpFR	8	n/a	n/a	n/a	n/a	n/a	n/a	n/a	14	5	1	8	n/a	n/a	n/a	n/a	n/a
628591	STOP	n/a	LTP261	ltpFR	8	n/a	n/a	n/a	n/a	n/a	n/a	n/a	n/a	n/a	n/a	n/a	n/a	n/a	n/a	n/a	n/a
629528	WORD	wordpools/wasnorm_wordpool_less_exclusions.txt	LTP261	ltpFR	8	3	0	TORCH	1484	n/a	n/a	0	n/a	0	0	0	0.422607421875	0.5869140625	0	lower	zerothre.ttf
632539	START	n/a	LTP261	ltpFR	8	n/a	n/a	n/a	n/a	n/a	n/a	n/a	n/a	n/a	n/a	n/a	n/a	n/a	n/a	n/a	n/a
633489	PROB	n/a	LTP261	ltpFR	8	n/a	n/a	n/a	n/a	n/a	n/a	n/a	13	1	5	7	n/a	n/a	n/a	n/a	n/a
635651	PROB	n/a	LTP261	ltpFR	8	n/a	n/a	n/a	n/a	n/a	n/a	n/a	10	3	1	6	n/a	n/a	n/a	n/a	n/a
640539	STOP	n/a	LTP261	ltpFR	8	n/a	n/a	n/a	n/a	n/a	n/a	n/a	n/a	n/a	n/a	n/a	n/a	n/a	n/a	n/a	n/a
641542	WORD	wordpools/wasnorm_wordpool_less_exclusions.txt	LTP261	ltpFR	8	3	0	BOLT	146	n/a	n/a	0	n/a	0	0	0	0.422607421875	0.5869140625	0	lower	zerothre.ttf
644555	START	n/a	LTP261	ltpFR	8	n/a	n/a	n/a	n/a	n/a	n/a	n/a	n/a	n/a	n/a	n/a	n/a	n/a	n/a	n/a	n/a
645553	PROB	n/a	LTP261	ltpFR	8	n/a	n/a	n/a	n/a	n/a	n/a	n/a	13	2	5	6	n/a	n/a	n/a	n/a	n/a
648450	PROB	n/a	LTP261	ltpFR	8	n/a	n/a	n/a	n/a	n/a	n/a	n/a	18	9	8	1	n/a	n/a	n/a	n/a	n/a
650031	PROB	n/a	LTP261	ltpFR	8	n/a	n/a	n/a	n/a	n/a	n/a	n/a	12	3	6	3	n/a	n/a	n/a	n/a	n/a
652057	STOP	n/a	LTP261	ltpFR	8	n/a	n/a	n/a	n/a	n/a	n/a	n/a	n/a	n/a	n/a	n/a	n/a	n/a	n/a	n/a	n/a
653574	WORD	wordpools/wasnorm_wordpool_less_exclusions.txt	LTP261	ltpFR	8	3	0	BRIDE	173	n/a	n/a	1	n/a	0	0	0	0.422607421875	0.5869140625	0	lower	zerothre.ttf
656587	START	n/a	LTP261	ltpFR	8	n/a	n/a	n/a	n/a	n/a	n/a	n/a	n/a	n/a	n/a	n/a	n/a	n/a	n/a	n/a	n/a
657419	PROB	n/a	LTP261	ltpFR	8	n/a	n/a	n/a	n/a	n/a	n/a	n/a	15	8	2	5	n/a	n/a	n/a	n/a	n/a
659483	PROB	n/a	LTP261	ltpFR	8	n/a	n/a	n/a	n/a	n/a	n/a	n/a	13	4	5	4	n/a	n/a	n/a	n/a	n/a
661963	PROB	n/a	LTP261	ltpFR	8	n/a	n/a	n/a	n/a	n/a	n/a	n/a	10	3	6	1	n/a	n/a	n/a	n/a	n/a
663608	STOP	n/a	LTP261	ltpFR	8	n/a	n/a	n/a	n/a	n/a	n/a	n/a	n/a	n/a	n/a	n/a	n/a	n/a	n/a	n/a	n/a
665774	WORD	wordpools/wasnorm_wordpool_less_exclusions.txt	LTP261	ltpFR	8	3	1	FENCE	560	n/a	n/a	0	n/a	0	0	0	0.57763671875	0.412841796875	1	upper	amplitud.ttf
668786	START	n/a	LTP261	ltpFR	8	n/a	n/a	n/a	n/a	n/a	n/a	n/a	n/a	n/a	n/a	n/a	n/a	n/a	n/a	n/a	n/a
669617	PROB	n/a	LTP261	ltpFR	8	n/a	n/a	n/a	n/a	n/a	n/a	n/a	12	1	4	7	n/a	n/a	n/a	n/a	n/a
671747	PROB	n/a	LTP261	ltpFR	8	n/a	n/a	n/a	n/a	n/a	n/a	n/a	15	3	7	5	n/a	n/a	n/a	n/a	n/a
673263	PROB	n/a	LTP261	ltpFR	8	n/a	n/a	n/a	n/a	n/a	n/a	n/a	20	7	7	6	n/a	n/a	n/a	n/a	n/a
676081	STOP	n/a	LTP261	ltpFR	8	n/a	n/a	n/a	n/a	n/a	n/a	n/a	n/a	n/a	n/a	n/a	n/a	n/a	n/a	n/a	n/a
677638	WORD	wordpools/wasnorm_wordpool_less_exclusions.txt	LTP261	ltpFR	8	3	1	TELEVISION	1447	n/a	n/a	0	n/a	0	0	0	0.57763671875	0.412841796875	1	upper	amplitud.ttf
680651	START	n/a	LTP261	ltpFR	8	n/a	n/a	n/a	n/a	n/a	n/a	n/a	n/a	n/a	n/a	n/a	n/a	n/a	n/a	n/a	n/a
681566	PROB	n/a	LTP261	ltpFR	8	n/a	n/a	n/a	n/a	n/a	n/a	n/a	17	7	3	7	n/a	n/a	n/a	n/a	n/a
683214	PROB	n/a	LTP261	ltpFR	8	n/a	n/a	n/a	n/a	n/a	n/a	n/a	10	3	4	3	n/a	n/a	n/a	n/a	n/a
685743	PROB	n/a	LTP261	ltpFR	8	n/a	n/a	n/a	n/a	n/a	n/a	n/a	12	4	2	6	n/a	n/a	n/a	n/a	n/a
688177	STOP	n/a	LTP261	ltpFR	8	n/a	n/a	n/a	n/a	n/a	n/a	n/a	n/a	n/a	n/a	n/a	n/a	n/a	n/a	n/a	n/a
689821	WORD	wordpools/wasnorm_wordpool_less_exclusions.txt	LTP261	ltpFR	8	3	1	PRINCESS	1125	n/a	n/a	1	n/a	0	0	0	0.57763671875	0.412841796875	1	upper	amplitud.ttf
692834	START	n/a	LTP261	ltpFR	8	n/a	n/a	n/a	n/a	n/a	n/a	n/a	n/a	n/a	n/a	n/a	n/a	n/a	n/a	n/a	n/a
693932	PROB	n/a	LTP261	ltpFR	8	n/a	n/a	n/a	n/a	n/a	n/a	n/a	10	1	5	4	n/a	n/a	n/a	n/a	n/a
695912	PROB	n/a	LTP261	ltpFR	8	n/a	n/a	n/a	n/a	n/a	n/a	n/a	10	5	2	3	n/a	n/a	n/a	n/a	n/a
700834	STOP	n/a	LTP261	ltpFR	8	n/a	n/a	n/a	n/a	n/a	n/a	n/a	n/a	n/a	n/a	n/a	n/a	n/a	n/a	n/a	n/a
702036	WORD	wordpools/wasnorm_wordpool_less_exclusions.txt	LTP261	ltpFR	8	3	1	BISON	131	n/a	n/a	0	n/a	0	0	0	0.57763671875	0.412841796875	1	upper	amplitud.ttf
705049	START	n/a	LTP261	ltpFR	8	n/a	n/a	n/a	n/a	n/a	n/a	n/a	n/a	n/a	n/a	n/a	n/a	n/a	n/a	n/a	n/a
706163	PROB	n/a	LTP261	ltpFR	8	n/a	n/a	n/a	n/a	n/a	n/a	n/a	14	5	8	1	n/a	n/a	n/a	n/a	n/a
708027	PROB	n/a	LTP261	ltpFR	8	n/a	n/a	n/a	n/a	n/a	n/a	n/a	8	4	2	2	n/a	n/a	n/a	n/a	n/a
709458	PROB	n/a	LTP261	ltpFR	8	n/a	n/a	n/a	n/a	n/a	n/a	n/a	15	6	2	7	n/a	n/a	n/a	n/a	n/a
712401	STOP	n/a	LTP261	ltpFR	8	n/a	n/a	n/a	n/a	n/a	n/a	n/a	n/a	n/a	n/a	n/a	n/a	n/a	n/a	n/a	n/a
713918	WORD	wordpools/wasnorm_wordpool_less_exclusions.txt	LTP261	ltpFR	8	3	0	ZOO	1637	n/a	n/a	1	n/a	0	0	0	0.422607421875	0.5869140625	0	lower	zerothre.ttf
716931	START	n/a	LTP261	ltpFR	8	n/a	n/a	n/a	n/a	n/a	n/a	n/a	n/a	n/a	n/a	n/a	n/a	n/a	n/a	n/a	n/a
717913	PROB	n/a	LTP261	ltpFR	8	n/a	n/a	n/a	n/a	n/a	n/a	n/a	16	7	6	3	n/a	n/a	n/a	n/a	n/a
719576	PROB	n/a	LTP261	ltpFR	8	n/a	n/a	n/a	n/a	n/a	n/a	n/a	17	5	3	9	n/a	n/a	n/a	n/a	n/a
724931	STOP	n/a	LTP261	ltpFR	8	n/a	n/a	n/a	n/a	n/a	n/a	n/a	n/a	n/a	n/a	n/a	n/a	n/a	n/a	n/a	n/a
726150	WORD	wordpools/wasnorm_wordpool_less_exclusions.txt	LTP261	ltpFR	8	3	0	NUT	965	n/a	n/a	0	n/a	0	0	0	0.422607421875	0.5869140625	0	lower	zerothre.ttf
729163	START	n/a	LTP261	ltpFR	8	n/a	n/a	n/a	n/a	n/a	n/a	n/a	n/a	n/a	n/a	n/a	n/a	n/a	n/a	n/a	n/a
730277	PROB	n/a	LTP261	ltpFR	8	n/a	n/a	n/a	n/a	n/a	n/a	n/a	17	7	9	1	n/a	n/a	n/a	n/a	n/a
732824	PROB	n/a	LTP261	ltpFR	8	n/a	n/a	n/a	n/a	n/a	n/a	n/a	14	4	8	2	n/a	n/a	n/a	n/a	n/a
737163	STOP	n/a	LTP261	ltpFR	8	n/a	n/a	n/a	n/a	n/a	n/a	n/a	n/a	n/a	n/a	n/a	n/a	n/a	n/a	n/a	n/a
738332	WORD	wordpools/wasnorm_wordpool_less_exclusions.txt	LTP261	ltpFR	8	3	1	OVEN	991	n/a	n/a	0	n/a	0	0	0	0.57763671875	0.412841796875	1	upper	amplitud.ttf
741345	START	n/a	LTP261	ltpFR	8	n/a	n/a	n/a	n/a	n/a	n/a	n/a	n/a	n/a	n/a	n/a	n/a	n/a	n/a	n/a	n/a
742442	PROB	n/a	LTP261	ltpFR	8	n/a	n/a	n/a	n/a	n/a	n/a	n/a	12	2	5	5	n/a	n/a	n/a	n/a	n/a
743824	PROB	n/a	LTP261	ltpFR	8	n/a	n/a	n/a	n/a	n/a	n/a	n/a	7	3	3	1	n/a	n/a	n/a	n/a	n/a
745653	PROB	n/a	LTP261	ltpFR	8	n/a	n/a	n/a	n/a	n/a	n/a	n/a	14	6	1	7	n/a	n/a	n/a	n/a	n/a
749344	STOP	n/a	LTP261	ltpFR	8	n/a	n/a	n/a	n/a	n/a	n/a	n/a	n/a	n/a	n/a	n/a	n/a	n/a	n/a	n/a	n/a
750347	WORD	wordpools/wasnorm_wordpool_less_exclusions.txt	LTP261	ltpFR	8	3	1	PAN	1008	n/a	n/a	0	n/a	0	0	0	0.57763671875	0.412841796875	1	upper	amplitud.ttf
753360	START	n/a	LTP261	ltpFR	8	n/a	n/a	n/a	n/a	n/a	n/a	n/a	n/a	n/a	n/a	n/a	n/a	n/a	n/a	n/a	n/a
754474	PROB	n/a	LTP261	ltpFR	8	n/a	n/a	n/a	n/a	n/a	n/a	n/a	10	1	7	2	n/a	n/a	n/a	n/a	n/a
756222	PROB	n/a	LTP261	ltpFR	8	n/a	n/a	n/a	n/a	n/a	n/a	n/a	15	5	1	9	n/a	n/a	n/a	n/a	n/a
758003	PROB	n/a	LTP261	ltpFR	8	n/a	n/a	n/a	n/a	n/a	n/a	n/a	20	9	8	4	n/a	n/a	n/a	n/a	n/a
760041	STOP	n/a	LTP261	ltpFR	8	n/a	n/a	n/a	n/a	n/a	n/a	n/a	n/a	n/a	n/a	n/a	n/a	n/a	n/a	n/a	n/a
763245	REC_START	n/a	LTP261	ltpFR	8	3	n/a	n/a	n/a	n/a	n/a	n/a	n/a	0	0	0	n/a	n/a	n/a	n/a	n/a
764489	REC_WORD	wordpools/wasnorm_wordpool_less_exclusions.txt	LTP261	ltpFR	8	3	1	OVEN	991	n/a	n/a	0	n/a	0	0	0	n/a	n/a	n/a	n/a	n/a
766550	REC_WORD	wordpools/wasnorm_wordpool_less_exclusions.txt	LTP261	ltpFR	8	3	0	NUT	965	n/a	n/a	0	n/a	0	0	0	n/a	n/a	n/a	n/a	n/a
767786	REC_WORD	wordpools/wasnorm_wordpool_less_exclusions.txt	LTP261	ltpFR	8	3	0	BOLT	146	n/a	n/a	0	n/a	0	0	0	n/a	n/a	n/a	n/a	n/a
769204	REC_WORD	wordpools/wasnorm_wordpool_less_exclusions.txt	LTP261	ltpFR	8	3	1	PRINCESS	1125	n/a	n/a	1	n/a	0	0	0	n/a	n/a	n/a	n/a	n/a
774740	REC_WORD	wordpools/wasnorm_wordpool_less_exclusions.txt	LTP261	ltpFR	8	3	0	ZOO	1637	n/a	n/a	1	n/a	0	0	0	n/a	n/a	n/a	n/a	n/a
778539	REC_WORD	wordpools/wasnorm_wordpool_less_exclusions.txt	LTP261	ltpFR	8	3	1	BISON	131	n/a	n/a	0	n/a	0	0	0	n/a	n/a	n/a	n/a	n/a
798534	REC_WORD	wordpools/wasnorm_wordpool_less_exclusions.txt	LTP261	ltpFR	8	3	1	TELEVISION	1447	n/a	n/a	0	n/a	0	0	0	n/a	n/a	n/a	n/a	n/a
843891	WORD	wordpools/wasnorm_wordpool_less_exclusions.txt	LTP261	ltpFR	8	4	1	AGENT	10	n/a	n/a	1	n/a	0	0	0	0.57763671875	0.412841796875	1	upper	amplitud.ttf
847751	WORD	wordpools/wasnorm_wordpool_less_exclusions.txt	LTP261	ltpFR	8	4	1	GOWN	652	n/a	n/a	0	n/a	0	0	0	0.57763671875	0.412841796875	1	upper	amplitud.ttf
851728	WORD	wordpools/wasnorm_wordpool_less_exclusions.txt	LTP261	ltpFR	8	4	1	MOVIE	927	n/a	n/a	0	n/a	0	0	0	0.57763671875	0.412841796875	1	upper	amplitud.ttf
855722	WORD	wordpools/wasnorm_wordpool_less_exclusions.txt	LTP261	ltpFR	8	4	1	ACTOR	5	n/a	n/a	1	n/a	0	0	0	0.57763671875	0.412841796875	1	upper	amplitud.ttf
859633	WORD	wordpools/wasnorm_wordpool_less_exclusions.txt	LTP261	ltpFR	8	4	1	CONTAINER	366	n/a	n/a	0	n/a	0	0	0	0.57763671875	0.412841796875	1	upper	amplitud.ttf
863528	WORD	wordpools/wasnorm_wordpool_less_exclusions.txt	LTP261	ltpFR	8	4	1	TUBE	1516	n/a	n/a	0	n/a	0	0	0	0.57763671875	0.412841796875	1	upper	amplitud.ttf
867621	WORD	wordpools/wasnorm_wordpool_less_exclusions.txt	LTP261	ltpFR	8	4	1	OCTOPUS	971	n/a	n/a	1	n/a	0	0	0	0.57763671875	0.412841796875	1	upper	amplitud.ttf
871632	WORD	wordpools/wasnorm_wordpool_less_exclusions.txt	LTP261	ltpFR	8	4	1	KEY	773	n/a	n/a	0	n/a	0	0	0	0.57763671875	0.412841796875	1	upper	amplitud.ttf
875742	WORD	wordpools/wasnorm_wordpool_less_exclusions.txt	LTP261	ltpFR	8	4	1	ENCYCLOPEDIA	533	n/a	n/a	0	n/a	0	0	0	0.57763671875	0.412841796875	1	upper	amplitud.ttf
879954	WORD	wordpools/wasnorm_wordpool_less_exclusions.txt	LTP261	ltpFR	8	4	1	CRAB	397	n/a	n/a	1	n/a	0	0	0	0.57763671875	0.412841796875	1	upper	amplitud.ttf
883831	WORD	wordpools/wasnorm_wordpool_less_exclusions.txt	LTP261	ltpFR	8	4	1	RODENT	1204	n/a	n/a	1	n/a	0	0	0	0.57763671875	0.412841796875	1	upper	amplitud.ttf
888008	WORD	wordpools/wasnorm_wordpool_less_exclusions.txt	LTP261	ltpFR	8	4	1	NOTE	958	n/a	n/a	0	n/a	0	0	0	0.57763671875	0.412841796875	1	upper	amplitud.ttf
892219	WORD	wordpools/wasnorm_wordpool_less_exclusions.txt	LTP261	ltpFR	8	4	1	RAISIN	1163	n/a	n/a	0	n/a	0	0	0	0.57763671875	0.412841796875	1	upper	amplitud.ttf
896429	WORD	wordpools/wasnorm_wordpool_less_exclusions.txt	LTP261	ltpFR	8	4	1	CANAL	226	n/a	n/a	0	n/a	0	0	0	0.57763671875	0.412841796875	1	upper	amplitud.ttf
900440	WORD	wordpools/wasnorm_wordpool_less_exclusions.txt	LTP261	ltpFR	8	4	1	TREAD	1499	n/a	n/a	0	n/a	0	0	0	0.57763671875	0.412841796875	1	upper	amplitud.ttf
904549	WORD	wordpools/wasnorm_wordpool_less_exclusions.txt	LTP261	ltpFR	8	4	1	VINE	1568	n/a	n/a	0	n/a	0	0	0	0.57763671875	0.412841796875	1	upper	amplitud.ttf
910624	REC_START	n/a	LTP261	ltpFR	8	4	n/a	n/a	n/a	n/a	n/a	n/a	n/a	0	0	0	n/a	n/a	n/a	n/a	n/a
911213	REC_WORD	wordpools/wasnorm_wordpool_less_exclusions.txt	LTP261	ltpFR	8	4	1	VINE	1568	n/a	n/a	0	n/a	0	0	0	n/a	n/a	n/a	n/a	n/a
912579	REC_WORD	wordpools/wasnorm_wordpool_less_exclusions.txt	LTP261	ltpFR	8	4	1	RODENT	1204	n/a	n/a	1	n/a	0	0	0	n/a	n/a	n/a	n/a	n/a
914463	REC_WORD	wordpools/wasnorm_wordpool_less_exclusions.txt	LTP261	ltpFR	8	4	1	CANAL	226	n/a	n/a	0	n/a	0	0	0	n/a	n/a	n/a	n/a	n/a
915135	REC_WORD	wordpools/wasnorm_wordpool_less_exclusions.txt	LTP261	ltpFR	8	4	1	TREAD	1499	n/a	n/a	0	n/a	0	0	0	n/a	n/a	n/a	n/a	n/a
921645	REC_WORD	wordpools/wasnorm_wordpool_less_exclusions.txt	LTP261	ltpFR	8	4	1	TUBE	1516	n/a	n/a	0	n/a	0	0	0	n/a	n/a	n/a	n/a	n/a
935283	REC_WORD	wordpools/wasnorm_wordpool_less_exclusions.txt	LTP261	ltpFR	8	4	1	GOWN	652	n/a	n/a	0	n/a	0	0	0	n/a	n/a	n/a	n/a	n/a
937894	REC_WORD	wordpools/wasnorm_wordpool_less_exclusions.txt	LTP261	ltpFR	8	4	1	AGENT	10	n/a	n/a	1	n/a	0	0	0	n/a	n/a	n/a	n/a	n/a
938979	REC_WORD	wordpools/wasnorm_wordpool_less_exclusions.txt	LTP261	ltpFR	8	4	1	ACTOR	5	n/a	n/a	1	n/a	0	0	0	n/a	n/a	n/a	n/a	n/a
943588	REC_WORD	wordpools/wasnorm_wordpool_less_exclusions.txt	LTP261	ltpFR	8	4	1	ENCYCLOPEDIA	533	n/a	n/a	0	n/a	0	0	0	n/a	n/a	n/a	n/a	n/a
952220	REC_WORD	wordpools/wasnorm_wordpool_less_exclusions.txt	LTP261	ltpFR	8	4	1	OCTOPUS	971	n/a	n/a	1	n/a	0	0	0	n/a	n/a	n/a	n/a	n/a
955098	REC_WORD	wordpools/wasnorm_wordpool_less_exclusions.txt	LTP261	ltpFR	8	4	1	VINE	1568	n/a	n/a	0	n/a	0	0	0	n/a	n/a	n/a	n/a	n/a
991837	WORD	wordpools/wasnorm_wordpool_less_exclusions.txt	LTP261	ltpFR	8	5	1	HARP	689	n/a	n/a	0	n/a	0	0	0	0.57763671875	0.412841796875	1	upper	amplitud.ttf
996014	WORD	wordpools/wasnorm_wordpool_less_exclusions.txt	LTP261	ltpFR	8	5	1	TART	1436	n/a	n/a	0	n/a	0	0	0	0.57763671875	0.412841796875	1	upper	amplitud.ttf
1000108	WORD	wordpools/wasnorm_wordpool_less_exclusions.txt	LTP261	ltpFR	8	5	1	RASPBERRY	1168	n/a	n/a	0	n/a	0	0	0	0.57763671875	0.412841796875	1	upper	amplitud.ttf
1004235	WORD	wordpools/wasnorm_wordpool_less_exclusions.txt	LTP261	ltpFR	8	5	1	SANDPAPER	1231	n/a	n/a	0	n/a	0	0	0	0.57763671875	0.412841796875	1	upper	amplitud.ttf
1008129	WORD	wordpools/wasnorm_wordpool_less_exclusions.txt	LTP261	ltpFR	8	5	1	ORNAMENT	985	n/a	n/a	0	n/a	0	0	0	0.57763671875	0.412841796875	1	upper	amplitud.ttf
1012156	WORD	wordpools/wasnorm_wordpool_less_exclusions.txt	LTP261	ltpFR	8	5	0	LION	827	n/a	n/a	1	n/a	0	0	0	0.422607421875	0.5869140625	0	lower	zerothre.ttf
1016167	WORD	wordpools/wasnorm_wordpool_less_exclusions.txt	LTP261	ltpFR	8	5	0	ROOM	1206	n/a	n/a	1	n/a	0	0	0	0.422607421875	0.5869140625	0	lower	zerothre.ttf
1020244	WORD	wordpools/wasnorm_wordpool_less_exclusions.txt	LTP261	ltpFR	8	5	1	POND	1101	n/a	n/a	0	n/a	0	0	0	0.57763671875	0.412841796875	1	upper	amplitud.ttf
1024272	WORD	wordpools/wasnorm_wordpool_less_exclusions.txt	LTP261	ltpFR	8	5	1	LAKE	796	n/a	n/a	0	n/a	0	0	0	0.57763671875	0.412841796875	1	upper	amplitud.ttf
1028182	WORD	wordpools/wasnorm_wordpool_less_exclusions.txt	LTP261	ltpFR	8	5	1	OCEAN	970	n/a	n/a	0	n/a	0	0	0	0.57763671875	0.412841796875	1	upper	amplitud.ttf
1032210	WORD	wordpools/wasnorm_wordpool_less_exclusions.txt	LTP261	ltpFR	8	5	0	CHIEF	298	n/a	n/a	1	n/a	0	0	0	0.422607421875	0.5869140625	0	lower	zerothre.ttf
1036170	WORD	wordpools/wasnorm_wordpool_less_exclusions.txt	LTP261	ltpFR	8	5	0	CLAW	319	n/a	n/a	0	n/a	0	0	0	0.422607421875	0.5869140625	0	lower	zerothre.ttf
1040264	WORD	wordpools/wasnorm_wordpool_less_exclusions.txt	LTP261	ltpFR	8	5	0	CHAMBER	277	n/a	n/a	1	n/a	0	0	0	0.422607421875	0.5869140625	0	lower	zerothre.ttf
1044125	WORD	wordpools/wasnorm_wordpool_less_exclusions.txt	LTP261	ltpFR	8	5	0	RECORD	1176	n/a	n/a	0	n/a	0	0	0	0.422607421875	0.5869140625	0	lower	zerothre.ttf
1048136	WORD	wordpools/wasnorm_wordpool_less_exclusions.txt	LTP261	ltpFR	8	5	0	SISTER	1312	n/a	n/a	1	n/a	0	0	0	0.422607421875	0.5869140625	0	lower	zerothre.ttf
1052080	WORD	wordpools/wasnorm_wordpool_less_exclusions.txt	LTP261	ltpFR	8	5	0	BROTHER	179	n/a	n/a	1	n/a	0	0	0	0.422607421875	0.5869140625	0	lower	zerothre.ttf
1055092	START	n/a	LTP261	ltpFR	8	n/a	n/a	n/a	n/a	n/a	n/a	n/a	n/a	n/a	n/a	n/a	n/a	n/a	n/a	n/a	n/a
1055908	PROB	n/a	LTP261	ltpFR	8	n/a	n/a	n/a	n/a	n/a	n/a	n/a	15	4	9	2	n/a	n/a	n/a	n/a	n/a
1058569	PROB	n/a	LTP261	ltpFR	8	n/a	n/a	n/a	n/a	n/a	n/a	n/a	15	3	4	8	n/a	n/a	n/a	n/a	n/a
1063092	STOP	n/a	LTP261	ltpFR	8	n/a	n/a	n/a	n/a	n/a	n/a	n/a	n/a	n/a	n/a	n/a	n/a	n/a	n/a	n/a	n/a
1064928	REC_START	n/a	LTP261	ltpFR	8	5	n/a	n/a	n/a	n/a	n/a	n/a	n/a	0	0	0	n/a	n/a	n/a	n/a	n/a
1067046	REC_WORD	wordpools/wasnorm_wordpool_less_exclusions.txt	LTP261	ltpFR	8	5	0	SISTER	1312	n/a	n/a	1	n/a	0	0	0	n/a	n/a	n/a	n/a	n/a
1068106	REC_WORD	wordpools/wasnorm_wordpool_less_exclusions.txt	LTP261	ltpFR	8	5	0	BROTHER	179	n/a	n/a	1	n/a	0	0	0	n/a	n/a	n/a	n/a	n/a
1069299	REC_WORD	wordpools/wasnorm_wordpool_less_exclusions.txt	LTP261	ltpFR	8	5	0	CLAW	319	n/a	n/a	0	n/a	0	0	0	n/a	n/a	n/a	n/a	n/a
1071325	REC_WORD	wordpools/wasnorm_wordpool_less_exclusions.txt	LTP261	ltpFR	8	5	0	LION	827	n/a	n/a	1	n/a	0	0	0	n/a	n/a	n/a	n/a	n/a
1075513	REC_WORD	wordpools/wasnorm_wordpool_less_exclusions.txt	LTP261	ltpFR	8	5	1	ORNAMENT	985	n/a	n/a	0	n/a	0	0	0	n/a	n/a	n/a	n/a	n/a
1105041	REC_WORD	wordpools/wasnorm_wordpool_less_exclusions.txt	LTP261	ltpFR	8	5	1	POND	1101	n/a	n/a	0	n/a	0	0	0	n/a	n/a	n/a	n/a	n/a
1105548	REC_WORD	wordpools/wasnorm_wordpool_less_exclusions.txt	LTP261	ltpFR	8	5	1	LAKE	796	n/a	n/a	0	n/a	0	0	0	n/a	n/a	n/a	n/a	n/a
1106385	REC_WORD	wordpools/wasnorm_wordpool_less_exclusions.txt	LTP261	ltpFR	8	5	1	OCEAN	970	n/a	n/a	0	n/a	0	0	0	n/a	n/a	n/a	n/a	n/a
1162581	WORD	wordpools/wasnorm_wordpool_less_exclusions.txt	LTP261	ltpFR	8	6	0	PRINTER	1126	n/a	n/a	0	n/a	0	0	0	0.422607421875	0.5869140625	0	lower	zerothre.ttf
1166541	WORD	wordpools/wasnorm_wordpool_less_exclusions.txt	LTP261	ltpFR	8	6	0	TORTOISE	1486	n/a	n/a	1	n/a	0	0	0	0.422607421875	0.5869140625	0	lower	zerothre.ttf
1170569	WORD	wordpools/wasnorm_wordpool_less_exclusions.txt	LTP261	ltpFR	8	6	0	ICING	732	n/a	n/a	0	n/a	0	0	0	0.422607421875	0.5869140625	0	lower	zerothre.ttf
1174514	WORD	wordpools/wasnorm_wordpool_less_exclusions.txt	LTP261	ltpFR	8	6	0	ANTENNA	28	n/a	n/a	0	n/a	0	0	0	0.422607421875	0.5869140625	0	lower	zerothre.ttf
1178458	WORD	wordpools/wasnorm_wordpool_less_exclusions.txt	LTP261	ltpFR	8	6	0	NEWSSTAND	949	n/a	n/a	1	n/a	0	0	0	0.422607421875	0.5869140625	0	lower	zerothre.ttf
1182302	WORD	wordpools/wasnorm_wordpool_less_exclusions.txt	LTP261	ltpFR	8	6	0	SHEET	1279	n/a	n/a	0	n/a	0	0	0	0.422607421875	0.5869140625	0	lower	zerothre.ttf
1186180	WORD	wordpools/wasnorm_wordpool_less_exclusions.txt	LTP261	ltpFR	8	6	0	LIVER	833	n/a	n/a	0	n/a	0	0	0	0.422607421875	0.5869140625	0	lower	zerothre.ttf
1190240	WORD	wordpools/wasnorm_wordpool_less_exclusions.txt	LTP261	ltpFR	8	6	0	VALVE	1546	n/a	n/a	0	n/a	0	0	0	0.422607421875	0.5869140625	0	lower	zerothre.ttf
1194201	WORD	wordpools/wasnorm_wordpool_less_exclusions.txt	LTP261	ltpFR	8	6	0	TOTE	1487	n/a	n/a	0	n/a	0	0	0	0.422607421875	0.5869140625	0	lower	zerothre.ttf
1198228	WORD	wordpools/wasnorm_wordpool_less_exclusions.txt	LTP261	ltpFR	8	6	0	BRAKE	166	n/a	n/a	0	n/a	0	0	0	0.422607421875	0.5869140625	0	lower	zerothre.ttf
1202272	WORD	wordpools/wasnorm_wordpool_less_exclusions.txt	LTP261	ltpFR	8	6	0	COMPUTER	359	n/a	n/a	1	n/a	0	0	0	0.422607421875	0.5869140625	0	lower	zerothre.ttf
1206100	WORD	wordpools/wasnorm_wordpool_less_exclusions.txt	LTP261	ltpFR	8	6	0	SCENERY	1247	n/a	n/a	1	n/a	0	0	0	0.422607421875	0.5869140625	0	lower	zerothre.ttf
1210144	WORD	wordpools/wasnorm_wordpool_less_exclusions.txt	LTP261	ltpFR	8	6	0	ALBUM	14	n/a	n/a	1	n/a	0	0	0	0.422607421875	0.5869140625	0	lower	zerothre.ttf
1214321	WORD	wordpools/wasnorm_wordpool_less_exclusions.txt	LTP261	ltpFR	8	6	0	CARROT	249	n/a	n/a	0	n/a	0	0	0	0.422607421875	0.5869140625	0	lower	zerothre.ttf
1218382	WORD	wordpools/wasnorm_wordpool_less_exclusions.txt	LTP261	ltpFR	8	6	0	SUPERVISOR	1410	n/a	n/a	1	n/a	0	0	0	0.422607421875	0.5869140625	0	lower	zerothre.ttf
1222242	WORD	wordpools/wasnorm_wordpool_less_exclusions.txt	LTP261	ltpFR	8	6	0	LUGGAGE	847	n/a	n/a	1	n/a	0	0	0	0.422607421875	0.5869140625	0	lower	zerothre.ttf
1225255	START	n/a	LTP261	ltpFR	8	n/a	n/a	n/a	n/a	n/a	n/a	n/a	n/a	n/a	n/a	n/a	n/a	n/a	n/a	n/a	n/a
1226120	PROB	n/a	LTP261	ltpFR	8	n/a	n/a	n/a	n/a	n/a	n/a	n/a	11	4	4	3	n/a	n/a	n/a	n/a	n/a
1228200	PROB	n/a	LTP261	ltpFR	8	n/a	n/a	n/a	n/a	n/a	n/a	n/a	26	9	8	9	n/a	n/a	n/a	n/a	n/a
1233276	PROB	n/a	LTP261	ltpFR	8	n/a	n/a	n/a	n/a	n/a	n/a	n/a	13	4	1	8	n/a	n/a	n/a	n/a	n/a
1235506	PROB	n/a	LTP261	ltpFR	8	n/a	n/a	n/a	n/a	n/a	n/a	n/a	21	8	4	9	n/a	n/a	n/a	n/a	n/a
1241241	STOP	n/a	LTP261	ltpFR	8	n/a	n/a	n/a	n/a	n/a	n/a	n/a	n/a	n/a	n/a	n/a	n/a	n/a	n/a	n/a	n/a
1243091	REC_START	n/a	LTP261	ltpFR	8	6	n/a	n/a	n/a	n/a	n/a	n/a	n/a	0	0	0	n/a	n/a	n/a	n/a	n/a
1246191	REC_WORD	wordpools/wasnorm_wordpool_less_exclusions.txt	LTP261	ltpFR	8	6	0	LIVER	833	n/a	n/a	0	n/a	0	0	0	n/a	n/a	n/a	n/a	n/a
1250086	REC_WORD	wordpools/wasnorm_wordpool_less_exclusions.txt	LTP261	ltpFR	8	6	0	VALVE	1546	n/a	n/a	0	n/a	0	0	0	n/a	n/a	n/a	n/a	n/a
1251507	REC_WORD	wordpools/wasnorm_wordpool_less_exclusions.txt	LTP261	ltpFR	8	6	0	SUPERVISOR	1410	n/a	n/a	1	n/a	0	0	0	n/a	n/a	n/a	n/a	n/a
1253205	REC_WORD	wordpools/wasnorm_wordpool_less_exclusions.txt	LTP261	ltpFR	8	6	0	TOTE	1487	n/a	n/a	0	n/a	0	0	0	n/a	n/a	n/a	n/a	n/a
1258767	REC_WORD	wordpools/wasnorm_wordpool_less_exclusions.txt	LTP261	ltpFR	8	6	0	ALBUM	14	n/a	n/a	1	n/a	0	0	0	n/a	n/a	n/a	n/a	n/a
1262056	REC_WORD	wordpools/wasnorm_wordpool_less_exclusions.txt	LTP261	ltpFR	8	6	0	SCENERY	1247	n/a	n/a	1	n/a	0	0	0	n/a	n/a	n/a	n/a	n/a
1311078	REC_WORD	wordpools/wasnorm_wordpool_less_exclusions.txt	LTP261	ltpFR	8	6	0	ANTENNA	28	n/a	n/a	0	n/a	0	0	0	n/a	n/a	n/a	n/a	n/a
1323775	START	n/a	LTP261	ltpFR	8	n/a	n/a	n/a	n/a	n/a	n/a	n/a	n/a	n/a	n/a	n/a	n/a	n/a	n/a	n/a	n/a
1325289	PROB	n/a	LTP261	ltpFR	8	n/a	n/a	n/a	n/a	n/a	n/a	n/a	12	2	9	1	n/a	n/a	n/a	n/a	n/a
1327901	PROB	n/a	LTP261	ltpFR	8	n/a	n/a	n/a	n/a	n/a	n/a	n/a	23	9	5	9	n/a	n/a	n/a	n/a	n/a
1330298	PROB	n/a	LTP261	ltpFR	8	n/a	n/a	n/a	n/a	n/a	n/a	n/a	10	6	1	3	n/a	n/a	n/a	n/a	n/a
1332610	PROB	n/a	LTP261	ltpFR	8	n/a	n/a	n/a	n/a	n/a	n/a	n/a	19	7	5	7	n/a	n/a	n/a	n/a	n/a
1335240	PROB	n/a	LTP261	ltpFR	8	n/a	n/a	n/a	n/a	n/a	n/a	n/a	11	1	6	4	n/a	n/a	n/a	n/a	n/a
1339774	STOP	n/a	LTP261	ltpFR	8	n/a	n/a	n/a	n/a	n/a	n/a	n/a	n/a	n/a	n/a	n/a	n/a	n/a	n/a	n/a	n/a
1340615	WORD	wordpools/wasnorm_wordpool_less_exclusions.txt	LTP261	ltpFR	8	7	0	SWAMP	1416	n/a	n/a	0	n/a	0	0	0	0.422607421875	0.5869140625	0	lower	zerothre.ttf
1343627	START	n/a	LTP261	ltpFR	8	n/a	n/a	n/a	n/a	n/a	n/a	n/a	n/a	n/a	n/a	n/a	n/a	n/a	n/a	n/a	n/a
1344559	PROB	n/a	LTP261	ltpFR	8	n/a	n/a	n/a	n/a	n/a	n/a	n/a	23	7	7	9	n/a	n/a	n/a	n/a	n/a
1348619	PROB	n/a	LTP261	ltpFR	8	n/a	n/a	n/a	n/a	n/a	n/a	n/a	21	4	8	9	n/a	n/a	n/a	n/a	n/a
1352248	PROB	n/a	LTP261	ltpFR	8	n/a	n/a	n/a	n/a	n/a	n/a	n/a	14	7	5	2	n/a	n/a	n/a	n/a	n/a
1355294	PROB	n/a	LTP261	ltpFR	8	n/a	n/a	n/a	n/a	n/a	n/a	n/a	10	4	5	1	n/a	n/a	n/a	n/a	n/a
1356991	PROB	n/a	LTP261	ltpFR	8	n/a	n/a	n/a	n/a	n/a	n/a	n/a	13	8	4	1	n/a	n/a	n/a	n/a	n/a
1358809	STOP	n/a	LTP261	ltpFR	8	n/a	n/a	n/a	n/a	n/a	n/a	n/a	n/a	n/a	n/a	n/a	n/a	n/a	n/a	n/a	n/a
1360685	WORD	wordpools/wasnorm_wordpool_less_exclusions.txt	LTP261	ltpFR	8	7	0	WATER	1594	n/a	n/a	0	n/a	0	0	0	0.422607421875	0.5869140625	0	lower	zerothre.ttf
1363697	START	n/a	LTP261	ltpFR	8	n/a	n/a	n/a	n/a	n/a	n/a	n/a	n/a	n/a	n/a	n/a	n/a	n/a	n/a	n/a	n/a
1364712	PROB	n/a	LTP261	ltpFR	8	n/a	n/a	n/a	n/a	n/a	n/a	n/a	21	8	4	9	n/a	n/a	n/a	n/a	n/a
1367574	PROB	n/a	LTP261	ltpFR	8	n/a	n/a	n/a	n/a	n/a	n/a	n/a	16	3	7	6	n/a	n/a	n/a	n/a	n/a
1369106	PROB	n/a	LTP261	ltpFR	8	n/a	n/a	n/a	n/a	n/a	n/a	n/a	16	6	4	6	n/a	n/a	n/a	n/a	n/a
1372567	PROB	n/a	LTP261	ltpFR	8	n/a	n/a	n/a	n/a	n/a	n/a	n/a	16	2	7	7	n/a	n/a	n/a	n/a	n/a
1374815	PROB	n/a	LTP261	ltpFR	8	n/a	n/a	n/a	n/a	n/a	n/a	n/a	8	1	2	5	n/a	n/a	n/a	n/a	n/a
1379697	STOP	n/a	LTP261	ltpFR	8	n/a	n/a	n/a	n/a	n/a	n/a	n/a	n/a	n/a	n/a	n/a	n/a	n/a	n/a	n/a	n/a
1380872	WORD	wordpools/wasnorm_wordpool_less_exclusions.txt	LTP261	ltpFR	8	7	1	CLASS	318	n/a	n/a	0	n/a	0	0	0	0.57763671875	0.412841796875	1	upper	amplitud.ttf
1383885	START	n/a	LTP261	ltpFR	8	n/a	n/a	n/a	n/a	n/a	n/a	n/a	n/a	n/a	n/a	n/a	n/a	n/a	n/a	n/a	n/a
1384900	PROB	n/a	LTP261	ltpFR	8	n/a	n/a	n/a	n/a	n/a	n/a	n/a	19	6	9	4	n/a	n/a	n/a	n/a	n/a
1387113	PROB	n/a	LTP261	ltpFR	8	n/a	n/a	n/a	n/a	n/a	n/a	n/a	17	3	8	6	n/a	n/a	n/a	n/a	n/a
1389293	PROB	n/a	LTP261	ltpFR	8	n/a	n/a	n/a	n/a	n/a	n/a	n/a	21	8	8	5	n/a	n/a	n/a	n/a	n/a
1391622	PROB	n/a	LTP261	ltpFR	8	n/a	n/a	n/a	n/a	n/a	n/a	n/a	17	1	8	8	n/a	n/a	n/a	n/a	n/a
1393437	PROB	n/a	LTP261	ltpFR	8	n/a	n/a	n/a	n/a	n/a	n/a	n/a	18	1	8	9	n/a	n/a	n/a	n/a	n/a
1395566	PROB	n/a	LTP261	ltpFR	8	n/a	n/a	n/a	n/a	n/a	n/a	n/a	15	2	8	5	n/a	n/a	n/a	n/a	n/a
1397364	PROB	n/a	LTP261	ltpFR	8	n/a	n/a	n/a	n/a	n/a	n/a	n/a	12	2	9	1	n/a	n/a	n/a	n/a	n/a
1398793	STOP	n/a	LTP261	ltpFR	8	n/a	n/a	n/a	n/a	n/a	n/a	n/a	n/a	n/a	n/a	n/a	n/a	n/a	n/a	n/a	n/a
1400742	WORD	wordpools/wasnorm_wordpool_less_exclusions.txt	LTP261	ltpFR	8	7	1	DONOR	485	n/a	n/a	1	n/a	0	0	0	0.57763671875	0.412841796875	1	upper	amplitud.ttf
1403754	START	n/a	LTP261	ltpFR	8	n/a	n/a	n/a	n/a	n/a	n/a	n/a	n/a	n/a	n/a	n/a	n/a	n/a	n/a	n/a	n/a
1404886	PROB	n/a	LTP261	ltpFR	8	n/a	n/a	n/a	n/a	n/a	n/a	n/a	12	3	4	5	n/a	n/a	n/a	n/a	n/a
1408514	PROB	n/a	LTP261	ltpFR	8	n/a	n/a	n/a	n/a	n/a	n/a	n/a	19	6	6	7	n/a	n/a	n/a	n/a	n/a
1411293	PROB	n/a	LTP261	ltpFR	8	n/a	n/a	n/a	n/a	n/a	n/a	n/a	10	2	4	4	n/a	n/a	n/a	n/a	n/a
1412808	PROB	n/a	LTP261	ltpFR	8	n/a	n/a	n/a	n/a	n/a	n/a	n/a	15	5	6	4	n/a	n/a	n/a	n/a	n/a
1415088	PROB	n/a	LTP261	ltpFR	8	n/a	n/a	n/a	n/a	n/a	n/a	n/a	19	7	9	3	n/a	n/a	n/a	n/a	n/a
1419754	STOP	n/a	LTP261	ltpFR	8	n/a	n/a	n/a	n/a	n/a	n/a	n/a	n/a	n/a	n/a	n/a	n/a	n/a	n/a	n/a	n/a
1420612	WORD	wordpools/wasnorm_wordpool_less_exclusions.txt	LTP261	ltpFR	8	7	1	GUM	672	n/a	n/a	0	n/a	0	0	0	0.57763671875	0.412841796875	1	upper	amplitud.ttf
1423624	START	n/a	LTP261	ltpFR	8	n/a	n/a	n/a	n/a	n/a	n/a	n/a	n/a	n/a	n/a	n/a	n/a	n/a	n/a	n/a	n/a
1424639	PROB	n/a	LTP261	ltpFR	8	n/a	n/a	n/a	n/a	n/a	n/a	n/a	5	2	1	2	n/a	n/a	n/a	n/a	n/a
1426121	PROB	n/a	LTP261	ltpFR	8	n/a	n/a	n/a	n/a	n/a	n/a	n/a	14	7	5	2	n/a	n/a	n/a	n/a	n/a
1428085	PROB	n/a	LTP261	ltpFR	8	n/a	n/a	n/a	n/a	n/a	n/a	n/a	22	8	6	8	n/a	n/a	n/a	n/a	n/a
1431081	PROB	n/a	LTP261	ltpFR	8	n/a	n/a	n/a	n/a	n/a	n/a	n/a	11	3	5	3	n/a	n/a	n/a	n/a	n/a
1434326	PROB	n/a	LTP261	ltpFR	8	n/a	n/a	n/a	n/a	n/a	n/a	n/a	12	5	5	2	n/a	n/a	n/a	n/a	n/a
1435756	PROB	n/a	LTP261	ltpFR	8	n/a	n/a	n/a	n/a	n/a	n/a	n/a	11	5	5	1	n/a	n/a	n/a	n/a	n/a
1436872	PROB	n/a	LTP261	ltpFR	8	n/a	n/a	n/a	n/a	n/a	n/a	n/a	11	2	8	1	n/a	n/a	n/a	n/a	n/a
1438656	STOP	n/a	LTP261	ltpFR	8	n/a	n/a	n/a	n/a	n/a	n/a	n/a	n/a	n/a	n/a	n/a	n/a	n/a	n/a	n/a	n/a
1440483	WORD	wordpools/wasnorm_wordpool_less_exclusions.txt	LTP261	ltpFR	8	7	1	POLICE	1098	n/a	n/a	1	n/a	0	0	0	0.57763671875	0.412841796875	1	upper	amplitud.ttf
1443496	START	n/a	LTP261	ltpFR	8	n/a	n/a	n/a	n/a	n/a	n/a	n/a	n/a	n/a	n/a	n/a	n/a	n/a	n/a	n/a	n/a
1444361	PROB	n/a	LTP261	ltpFR	8	n/a	n/a	n/a	n/a	n/a	n/a	n/a	12	4	2	6	n/a	n/a	n/a	n/a	n/a
1445942	PROB	n/a	LTP261	ltpFR	8	n/a	n/a	n/a	n/a	n/a	n/a	n/a	18	4	9	5	n/a	n/a	n/a	n/a	n/a
1449902	PROB	n/a	LTP261	ltpFR	8	n/a	n/a	n/a	n/a	n/a	n/a	n/a	11	4	1	6	n/a	n/a	n/a	n/a	n/a
1451749	PROB	n/a	LTP261	ltpFR	8	n/a	n/a	n/a	n/a	n/a	n/a	n/a	11	5	2	4	n/a	n/a	n/a	n/a	n/a
1454096	PROB	n/a	LTP261	ltpFR	8	n/a	n/a	n/a	n/a	n/a	n/a	n/a	7	1	3	3	n/a	n/a	n/a	n/a	n/a
1455527	PROB	n/a	LTP261	ltpFR	8	n/a	n/a	n/a	n/a	n/a	n/a	n/a	19	5	9	5	n/a	n/a	n/a	n/a	n/a
1459495	STOP	n/a	LTP261	ltpFR	8	n/a	n/a	n/a	n/a	n/a	n/a	n/a	n/a	n/a	n/a	n/a	n/a	n/a	n/a	n/a	n/a
1460635	WORD	wordpools/wasnorm_wordpool_less_exclusions.txt	LTP261	ltpFR	8	7	1	LAGOON	795	n/a	n/a	0	n/a	0	0	0	0.57763671875	0.412841796875	1	upper	amplitud.ttf
1463648	START	n/a	LTP261	ltpFR	8	n/a	n/a	n/a	n/a	n/a	n/a	n/a	n/a	n/a	n/a	n/a	n/a	n/a	n/a	n/a	n/a
1464729	PROB	n/a	LTP261	ltpFR	8	n/a	n/a	n/a	n/a	n/a	n/a	n/a	17	9	7	1	n/a	n/a	n/a	n/a	n/a
1466411	PROB	n/a	LTP261	ltpFR	8	n/a	n/a	n/a	n/a	n/a	n/a	n/a	13	8	1	4	n/a	n/a	n/a	n/a	n/a
1468857	PROB	n/a	LTP261	ltpFR	8	n/a	n/a	n/a	n/a	n/a	n/a	n/a	12	2	8	2	n/a	n/a	n/a	n/a	n/a
1470422	PROB	n/a	LTP261	ltpFR	8	n/a	n/a	n/a	n/a	n/a	n/a	n/a	17	9	6	2	n/a	n/a	n/a	n/a	n/a
1472701	PROB	n/a	LTP261	ltpFR	8	n/a	n/a	n/a	n/a	n/a	n/a	n/a	19	9	5	5	n/a	n/a	n/a	n/a	n/a
1474631	PROB	n/a	LTP261	ltpFR	8	n/a	n/a	n/a	n/a	n/a	n/a	n/a	17	8	8	1	n/a	n/a	n/a	n/a	n/a
1476296	PROB	n/a	LTP261	ltpFR	8	n/a	n/a	n/a	n/a	n/a	n/a	n/a	16	7	2	7	n/a	n/a	n/a	n/a	n/a
1479337	STOP	n/a	LTP261	ltpFR	8	n/a	n/a	n/a	n/a	n/a	n/a	n/a	n/a	n/a	n/a	n/a	n/a	n/a	n/a	n/a	n/a
1480856	WORD	wordpools/wasnorm_wordpool_less_exclusions.txt	LTP261	ltpFR	8	7	0	RIVER	1194	n/a	n/a	1	n/a	0	0	0	0.422607421875	0.5869140625	0	lower	zerothre.ttf
1483869	START	n/a	LTP261	ltpFR	8	n/a	n/a	n/a	n/a	n/a	n/a	n/a	n/a	n/a	n/a	n/a	n/a	n/a	n/a	n/a	n/a
1484983	PROB	n/a	LTP261	ltpFR	8	n/a	n/a	n/a	n/a	n/a	n/a	n/a	13	5	2	6	n/a	n/a	n/a	n/a	n/a
1488944	PROB	n/a	LTP261	ltpFR	8	n/a	n/a	n/a	n/a	n/a	n/a	n/a	14	5	4	6	n/a	n/a	n/a	n/a	n/a
1491224	PROB	n/a	LTP261	ltpFR	8	n/a	n/a	n/a	n/a	n/a	n/a	n/a	12	6	2	4	n/a	n/a	n/a	n/a	n/a
1493254	PROB	n/a	LTP261	ltpFR	8	n/a	n/a	n/a	n/a	n/a	n/a	n/a	16	6	2	8	n/a	n/a	n/a	n/a	n/a
1495235	PROB	n/a	LTP261	ltpFR	8	n/a	n/a	n/a	n/a	n/a	n/a	n/a	7	1	2	4	n/a	n/a	n/a	n/a	n/a
1499869	STOP	n/a	LTP261	ltpFR	8	n/a	n/a	n/a	n/a	n/a	n/a	n/a	n/a	n/a	n/a	n/a	n/a	n/a	n/a	n/a	n/a
1500826	WORD	wordpools/wasnorm_wordpool_less_exclusions.txt	LTP261	ltpFR	8	7	0	DIPLOMA	470	n/a	n/a	0	n/a	0	0	0	0.422607421875	0.5869140625	0	lower	zerothre.ttf
1503839	START	n/a	LTP261	ltpFR	8	n/a	n/a	n/a	n/a	n/a	n/a	n/a	n/a	n/a	n/a	n/a	n/a	n/a	n/a	n/a	n/a
1504703	PROB	n/a	LTP261	ltpFR	8	n/a	n/a	n/a	n/a	n/a	n/a	n/a	8	5	1	2	n/a	n/a	n/a	n/a	n/a
1506600	PROB	n/a	LTP261	ltpFR	8	n/a	n/a	n/a	n/a	n/a	n/a	n/a	14	7	3	4	n/a	n/a	n/a	n/a	n/a
1508382	PROB	n/a	LTP261	ltpFR	8	n/a	n/a	n/a	n/a	n/a	n/a	n/a	10	7	1	2	n/a	n/a	n/a	n/a	n/a
1509830	PROB	n/a	LTP261	ltpFR	8	n/a	n/a	n/a	n/a	n/a	n/a	n/a	18	4	7	7	n/a	n/a	n/a	n/a	n/a
1511444	PROB	n/a	LTP261	ltpFR	8	n/a	n/a	n/a	n/a	n/a	n/a	n/a	22	9	8	6	n/a	n/a	n/a	n/a	n/a
1514605	PROB	n/a	LTP261	ltpFR	8	n/a	n/a	n/a	n/a	n/a	n/a	n/a	17	9	8	1	n/a	n/a	n/a	n/a	n/a
1519839	STOP	n/a	LTP261	ltpFR	8	n/a	n/a	n/a	n/a	n/a	n/a	n/a	n/a	n/a	n/a	n/a	n/a	n/a	n/a	n/a	n/a
1520830	WORD	wordpools/wasnorm_wordpool_less_exclusions.txt	LTP261	ltpFR	8	7	1	BEEF	113	n/a	n/a	0	n/a	0	0	0	0.57763671875	0.412841796875	1	upper	amplitud.ttf
1523842	START	n/a	LTP261	ltpFR	8	n/a	n/a	n/a	n/a	n/a	n/a	n/a	n/a	n/a	n/a	n/a	n/a	n/a	n/a	n/a	n/a
1524756	PROB	n/a	LTP261	ltpFR	8	n/a	n/a	n/a	n/a	n/a	n/a	n/a	17	5	3	9	n/a	n/a	n/a	n/a	n/a
1527503	PROB	n/a	LTP261	ltpFR	8	n/a	n/a	n/a	n/a	n/a	n/a	n/a	19	6	6	7	n/a	n/a	n/a	n/a	n/a
1531347	PROB	n/a	LTP261	ltpFR	8	n/a	n/a	n/a	n/a	n/a	n/a	n/a	12	1	4	7	n/a	n/a	n/a	n/a	n/a
1533977	PROB	n/a	LTP261	ltpFR	8	n/a	n/a	n/a	n/a	n/a	n/a	n/a	16	6	2	8	n/a	n/a	n/a	n/a	n/a
1536589	PROB	n/a	LTP261	ltpFR	8	n/a	n/a	n/a	n/a	n/a	n/a	n/a	12	3	6	3	n/a	n/a	n/a	n/a	n/a
1538353	STOP	n/a	LTP261	ltpFR	8	n/a	n/a	n/a	n/a	n/a	n/a	n/a	n/a	n/a	n/a	n/a	n/a	n/a	n/a	n/a	n/a
1540766	WORD	wordpools/wasnorm_wordpool_less_exclusions.txt	LTP261	ltpFR	8	7	1	NOTEBOOK	959	n/a	n/a	0	n/a	0	0	0	0.57763671875	0.412841796875	1	upper	amplitud.ttf
1543779	START	n/a	LTP261	ltpFR	8	n/a	n/a	n/a	n/a	n/a	n/a	n/a	n/a	n/a	n/a	n/a	n/a	n/a	n/a	n/a	n/a
1544994	PROB	n/a	LTP261	ltpFR	8	n/a	n/a	n/a	n/a	n/a	n/a	n/a	9	2	3	4	n/a	n/a	n/a	n/a	n/a
1547790	PROB	n/a	LTP261	ltpFR	8	n/a	n/a	n/a	n/a	n/a	n/a	n/a	5	3	1	1	n/a	n/a	n/a	n/a	n/a
1549104	PROB	n/a	LTP261	ltpFR	8	n/a	n/a	n/a	n/a	n/a	n/a	n/a	12	5	5	2	n/a	n/a	n/a	n/a	n/a
1550319	PROB	n/a	LTP261	ltpFR	8	n/a	n/a	n/a	n/a	n/a	n/a	n/a	21	7	9	5	n/a	n/a	n/a	n/a	n/a
1555461	PROB	n/a	LTP261	ltpFR	8	n/a	n/a	n/a	n/a	n/a	n/a	n/a	17	1	8	8	n/a	n/a	n/a	n/a	n/a
1557026	PROB	n/a	LTP261	ltpFR	8	n/a	n/a	n/a	n/a	n/a	n/a	n/a	18	8	6	4	n/a	n/a	n/a	n/a	n/a
1558905	STOP	n/a	LTP261	ltpFR	8	n/a	n/a	n/a	n/a	n/a	n/a	n/a	n/a	n/a	n/a	n/a	n/a	n/a	n/a	n/a	n/a
1560887	WORD	wordpools/wasnorm_wordpool_less_exclusions.txt	LTP261	ltpFR	8	7	1	CHEERLEADER	288	n/a	n/a	1	n/a	0	0	0	0.57763671875	0.412841796875	1	upper	amplitud.ttf
1563899	START	n/a	LTP261	ltpFR	8	n/a	n/a	n/a	n/a	n/a	n/a	n/a	n/a	n/a	n/a	n/a	n/a	n/a	n/a	n/a	n/a
1564947	PROB	n/a	LTP261	ltpFR	8	n/a	n/a	n/a	n/a	n/a	n/a	n/a	14	8	3	3	n/a	n/a	n/a	n/a	n/a
1567094	PROB	n/a	LTP261	ltpFR	8	n/a	n/a	n/a	n/a	n/a	n/a	n/a	7	3	3	1	n/a	n/a	n/a	n/a	n/a
1568459	PROB	n/a	LTP261	ltpFR	8	n/a	n/a	n/a	n/a	n/a	n/a	n/a	17	6	7	4	n/a	n/a	n/a	n/a	n/a
1571155	PROB	n/a	LTP261	ltpFR	8	n/a	n/a	n/a	n/a	n/a	n/a	n/a	10	2	4	4	n/a	n/a	n/a	n/a	n/a
1573085	PROB	n/a	LTP261	ltpFR	8	n/a	n/a	n/a	n/a	n/a	n/a	n/a	16	4	8	6	n/a	n/a	n/a	n/a	n/a
1579897	STOP	n/a	LTP261	ltpFR	8	n/a	n/a	n/a	n/a	n/a	n/a	n/a	n/a	n/a	n/a	n/a	n/a	n/a	n/a	n/a	n/a
1580840	WORD	wordpools/wasnorm_wordpool_less_exclusions.txt	LTP261	ltpFR	8	7	0	SIRLOIN	1311	n/a	n/a	0	n/a	0	0	0	0.422607421875	0.5869140625	0	lower	zerothre.ttf
1583853	START	n/a	LTP261	ltpFR	8	n/a	n/a	n/a	n/a	n/a	n/a	n/a	n/a	n/a	n/a	n/a	n/a	n/a	n/a	n/a	n/a
1584934	PROB	n/a	LTP261	ltpFR	8	n/a	n/a	n/a	n/a	n/a	n/a	n/a	20	3	9	8	n/a	n/a	n/a	n/a	n/a
1587264	PROB	n/a	LTP261	ltpFR	8	n/a	n/a	n/a	n/a	n/a	n/a	n/a	13	3	1	9	n/a	n/a	n/a	n/a	n/a
1589211	PROB	n/a	LTP261	ltpFR	8	n/a	n/a	n/a	n/a	n/a	n/a	n/a	9	5	1	3	n/a	n/a	n/a	n/a	n/a
1591723	PROB	n/a	LTP261	ltpFR	8	n/a	n/a	n/a	n/a	n/a	n/a	n/a	10	2	3	5	n/a	n/a	n/a	n/a	n/a
1593804	PROB	n/a	LTP261	ltpFR	8	n/a	n/a	n/a	n/a	n/a	n/a	n/a	13	6	6	1	n/a	n/a	n/a	n/a	n/a
1595235	PROB	n/a	LTP261	ltpFR	8	n/a	n/a	n/a	n/a	n/a	n/a	n/a	17	4	4	7	n/a	n/a	n/a	n/a	n/a
1598505	STOP	n/a	LTP261	ltpFR	8	n/a	n/a	n/a	n/a	n/a	n/a	n/a	n/a	n/a	n/a	n/a	n/a	n/a	n/a	n/a	n/a
1600993	WORD	wordpools/wasnorm_wordpool_less_exclusions.txt	LTP261	ltpFR	8	7	0	CLERK	321	n/a	n/a	1	n/a	0	0	0	0.422607421875	0.5869140625	0	lower	zerothre.ttf
1604006	START	n/a	LTP261	ltpFR	8	n/a	n/a	n/a	n/a	n/a	n/a	n/a	n/a	n/a	n/a	n/a	n/a	n/a	n/a	n/a	n/a
1605071	PROB	n/a	LTP261	ltpFR	8	n/a	n/a	n/a	n/a	n/a	n/a	n/a	16	5	4	7	n/a	n/a	n/a	n/a	n/a
1607267	PROB	n/a	LTP261	ltpFR	8	n/a	n/a	n/a	n/a	n/a	n/a	n/a	14	7	4	3	n/a	n/a	n/a	n/a	n/a
1608815	PROB	n/a	LTP261	ltpFR	8	n/a	n/a	n/a	n/a	n/a	n/a	n/a	12	6	3	3	n/a	n/a	n/a	n/a	n/a
1611178	PROB	n/a	LTP261	ltpFR	8	n/a	n/a	n/a	n/a	n/a	n/a	n/a	13	4	7	2	n/a	n/a	n/a	n/a	n/a
1613757	PROB	n/a	LTP261	ltpFR	8	n/a	n/a	n/a	n/a	n/a	n/a	n/a	20	8	5	7	n/a	n/a	n/a	n/a	n/a
1620006	STOP	n/a	LTP261	ltpFR	8	n/a	n/a	n/a	n/a	n/a	n/a	n/a	n/a	n/a	n/a	n/a	n/a	n/a	n/a	n/a	n/a
1621163	WORD	wordpools/wasnorm_wordpool_less_exclusions.txt	LTP261	ltpFR	8	7	0	AWARD	63	n/a	n/a	0	n/a	0	0	0	0.422607421875	0.5869140625	0	lower	zerothre.ttf
1624176	START	n/a	LTP261	ltpFR	8	n/a	n/a	n/a	n/a	n/a	n/a	n/a	n/a	n/a	n/a	n/a	n/a	n/a	n/a	n/a	n/a
1625357	PROB	n/a	LTP261	ltpFR	8	n/a	n/a	n/a	n/a	n/a	n/a	n/a	15	8	5	2	n/a	n/a	n/a	n/a	n/a
1627088	PROB	n/a	LTP261	ltpFR	8	n/a	n/a	n/a	n/a	n/a	n/a	n/a	15	1	6	8	n/a	n/a	n/a	n/a	n/a
1629168	PROB	n/a	LTP261	ltpFR	8	n/a	n/a	n/a	n/a	n/a	n/a	n/a	14	5	7	2	n/a	n/a	n/a	n/a	n/a
1632896	PROB	n/a	LTP261	ltpFR	8	n/a	n/a	n/a	n/a	n/a	n/a	n/a	19	4	6	9	n/a	n/a	n/a	n/a	n/a
1637872	PROB	n/a	LTP261	ltpFR	8	n/a	n/a	n/a	n/a	n/a	n/a	n/a	10	6	1	3	n/a	n/a	n/a	n/a	n/a
1639769	STOP	n/a	LTP261	ltpFR	8	n/a	n/a	n/a	n/a	n/a	n/a	n/a	n/a	n/a	n/a	n/a	n/a	n/a	n/a	n/a	n/a
1641183	WORD	wordpools/wasnorm_wordpool_less_exclusions.txt	LTP261	ltpFR	8	7	0	WHIP	1604	n/a	n/a	0	n/a	0	0	0	0.422607421875	0.5869140625	0	lower	zerothre.ttf
1644196	START	n/a	LTP261	ltpFR	8	n/a	n/a	n/a	n/a	n/a	n/a	n/a	n/a	n/a	n/a	n/a	n/a	n/a	n/a	n/a	n/a
1645227	PROB	n/a	LTP261	ltpFR	8	n/a	n/a	n/a	n/a	n/a	n/a	n/a	19	4	9	6	n/a	n/a	n/a	n/a	n/a
1648190	PROB	n/a	LTP261	ltpFR	8	n/a	n/a	n/a	n/a	n/a	n/a	n/a	15	4	2	9	n/a	n/a	n/a	n/a	n/a
1651002	PROB	n/a	LTP261	ltpFR	8	n/a	n/a	n/a	n/a	n/a	n/a	n/a	11	5	4	2	n/a	n/a	n/a	n/a	n/a
1654380	PROB	n/a	LTP261	ltpFR	8	n/a	n/a	n/a	n/a	n/a	n/a	n/a	12	9	2	1	n/a	n/a	n/a	n/a	n/a
1656078	PROB	n/a	LTP261	ltpFR	8	n/a	n/a	n/a	n/a	n/a	n/a	n/a	21	8	9	4	n/a	n/a	n/a	n/a	n/a
1659457	STOP	n/a	LTP261	ltpFR	8	n/a	n/a	n/a	n/a	n/a	n/a	n/a	n/a	n/a	n/a	n/a	n/a	n/a	n/a	n/a	n/a
1662020	REC_START	n/a	LTP261	ltpFR	8	7	n/a	n/a	n/a	n/a	n/a	n/a	n/a	0	0	0	n/a	n/a	n/a	n/a	n/a
1663415	REC_WORD	wordpools/wasnorm_wordpool_less_exclusions.txt	LTP261	ltpFR	8	7	0	AWARD	63	n/a	n/a	0	n/a	0	0	0	n/a	n/a	n/a	n/a	n/a
1665316	REC_WORD	wordpools/wasnorm_wordpool_less_exclusions.txt	LTP261	ltpFR	8	7	0	DIPLOMA	470	n/a	n/a	0	n/a	0	0	0	n/a	n/a	n/a	n/a	n/a
1666767	REC_WORD	wordpools/wasnorm_wordpool_less_exclusions.txt	LTP261	ltpFR	8	7	1	CHEERLEADER	288	n/a	n/a	1	n/a	0	0	0	n/a	n/a	n/a	n/a	n/a
1668481	REC_WORD	wordpools/wasnorm_wordpool_less_exclusions.txt	LTP261	ltpFR	8	7	1	BEEF	113	n/a	n/a	0	n/a	0	0	0	n/a	n/a	n/a	n/a	n/a
1674222	REC_WORD	wordpools/wasnorm_wordpool_less_exclusions.txt	LTP261	ltpFR	8	7	0	RIVER	1194	n/a	n/a	1	n/a	0	0	0	n/a	n/a	n/a	n/a	n/a
1677819	REC_WORD	wordpools/wasnorm_wordpool_less_exclusions.txt	LTP261	ltpFR	8	7	0	SWAMP	1416	n/a	n/a	0	n/a	0	0	0	n/a	n/a	n/a	n/a	n/a
1698912	REC_WORD	wordpools/wasnorm_wordpool_less_exclusions.txt	LTP261	ltpFR	8	7	0	SIRLOIN	1311	n/a	n/a	0	n/a	0	0	0	n/a	n/a	n/a	n/a	n/a
1735984	REC_WORD	wordpools/wasnorm_wordpool_less_exclusions.txt	LTP261	ltpFR	8	7	1	GUM	672	n/a	n/a	0	n/a	0	0	0	n/a	n/a	n/a	n/a	n/a
1741900	START	n/a	LTP261	ltpFR	8	n/a	n/a	n/a	n/a	n/a	n/a	n/a	n/a	n/a	n/a	n/a	n/a	n/a	n/a	n/a	n/a
1743414	PROB	n/a	LTP261	ltpFR	8	n/a	n/a	n/a	n/a	n/a	n/a	n/a	16	4	6	4	n/a	n/a	n/a	n/a	n/a
1746310	PROB	n/a	LTP261	ltpFR	8	n/a	n/a	n/a	n/a	n/a	n/a	n/a	18	8	2	8	n/a	n/a	n/a	n/a	n/a
1748423	PROB	n/a	LTP261	ltpFR	8	n/a	n/a	n/a	n/a	n/a	n/a	n/a	17	7	6	4	n/a	n/a	n/a	n/a	n/a
1750536	PROB	n/a	LTP261	ltpFR	8	n/a	n/a	n/a	n/a	n/a	n/a	n/a	19	5	5	9	n/a	n/a	n/a	n/a	n/a
1751985	PROB	n/a	LTP261	ltpFR	8	n/a	n/a	n/a	n/a	n/a	n/a	n/a	15	7	7	1	n/a	n/a	n/a	n/a	n/a
1753366	PROB	n/a	LTP261	ltpFR	8	n/a	n/a	n/a	n/a	n/a	n/a	n/a	22	7	9	6	n/a	n/a	n/a	n/a	n/a
1757497	STOP	n/a	LTP261	ltpFR	8	n/a	n/a	n/a	n/a	n/a	n/a	n/a	n/a	n/a	n/a	n/a	n/a	n/a	n/a	n/a	n/a
1758841	WORD	wordpools/wasnorm_wordpool_less_exclusions.txt	LTP261	ltpFR	8	8	1	CUSTARD	429	n/a	n/a	0	n/a	0	0	0	0.57763671875	0.412841796875	1	upper	amplitud.ttf
1761854	START	n/a	LTP261	ltpFR	8	n/a	n/a	n/a	n/a	n/a	n/a	n/a	n/a	n/a	n/a	n/a	n/a	n/a	n/a	n/a	n/a
1763018	PROB	n/a	LTP261	ltpFR	8	n/a	n/a	n/a	n/a	n/a	n/a	n/a	13	7	4	2	n/a	n/a	n/a	n/a	n/a
1764799	PROB	n/a	LTP261	ltpFR	8	n/a	n/a	n/a	n/a	n/a	n/a	n/a	12	6	5	1	n/a	n/a	n/a	n/a	n/a
1767179	PROB	n/a	LTP261	ltpFR	8	n/a	n/a	n/a	n/a	n/a	n/a	n/a	23	9	6	8	n/a	n/a	n/a	n/a	n/a
1770490	PROB	n/a	LTP261	ltpFR	8	n/a	n/a	n/a	n/a	n/a	n/a	n/a	16	6	6	4	n/a	n/a	n/a	n/a	n/a
1774533	PROB	n/a	LTP261	ltpFR	8	n/a	n/a	n/a	n/a	n/a	n/a	n/a	19	7	7	5	n/a	n/a	n/a	n/a	n/a
1776785	STOP	n/a	LTP261	ltpFR	8	n/a	n/a	n/a	n/a	n/a	n/a	n/a	n/a	n/a	n/a	n/a	n/a	n/a	n/a	n/a	n/a
1778894	WORD	wordpools/wasnorm_wordpool_less_exclusions.txt	LTP261	ltpFR	8	8	1	TRUCK	1512	n/a	n/a	0	n/a	0	0	0	0.57763671875	0.412841796875	1	upper	amplitud.ttf
1781907	START	n/a	LTP261	ltpFR	8	n/a	n/a	n/a	n/a	n/a	n/a	n/a	n/a	n/a	n/a	n/a	n/a	n/a	n/a	n/a	n/a
1782888	PROB	n/a	LTP261	ltpFR	8	n/a	n/a	n/a	n/a	n/a	n/a	n/a	22	8	7	7	n/a	n/a	n/a	n/a	n/a
1785485	PROB	n/a	LTP261	ltpFR	8	n/a	n/a	n/a	n/a	n/a	n/a	n/a	14	5	1	8	n/a	n/a	n/a	n/a	n/a
1789395	PROB	n/a	LTP261	ltpFR	8	n/a	n/a	n/a	n/a	n/a	n/a	n/a	11	1	2	8	n/a	n/a	n/a	n/a	n/a
1792025	PROB	n/a	LTP261	ltpFR	8	n/a	n/a	n/a	n/a	n/a	n/a	n/a	23	9	8	6	n/a	n/a	n/a	n/a	n/a
1796752	STOP	n/a	LTP261	ltpFR	8	n/a	n/a	n/a	n/a	n/a	n/a	n/a	n/a	n/a	n/a	n/a	n/a	n/a	n/a	n/a	n/a
1799048	WORD	wordpools/wasnorm_wordpool_less_exclusions.txt	LTP261	ltpFR	8	8	1	SIGNATURE	1306	n/a	n/a	0	n/a	0	0	0	0.57763671875	0.412841796875	1	upper	amplitud.ttf
1802060	START	n/a	LTP261	ltpFR	8	n/a	n/a	n/a	n/a	n/a	n/a	n/a	n/a	n/a	n/a	n/a	n/a	n/a	n/a	n/a	n/a
1802925	PROB	n/a	LTP261	ltpFR	8	n/a	n/a	n/a	n/a	n/a	n/a	n/a	17	9	1	7	n/a	n/a	n/a	n/a	n/a
1804538	PROB	n/a	LTP261	ltpFR	8	n/a	n/a	n/a	n/a	n/a	n/a	n/a	13	1	5	7	n/a	n/a	n/a	n/a	n/a
1807551	PROB	n/a	LTP261	ltpFR	8	n/a	n/a	n/a	n/a	n/a	n/a	n/a	17	2	7	8	n/a	n/a	n/a	n/a	n/a
1809449	PROB	n/a	LTP261	ltpFR	8	n/a	n/a	n/a	n/a	n/a	n/a	n/a	12	4	7	1	n/a	n/a	n/a	n/a	n/a
1811728	PROB	n/a	LTP261	ltpFR	8	n/a	n/a	n/a	n/a	n/a	n/a	n/a	15	2	9	4	n/a	n/a	n/a	n/a	n/a
1814208	PROB	n/a	LTP261	ltpFR	8	n/a	n/a	n/a	n/a	n/a	n/a	n/a	8	2	3	3	n/a	n/a	n/a	n/a	n/a
1816505	STOP	n/a	LTP261	ltpFR	8	n/a	n/a	n/a	n/a	n/a	n/a	n/a	n/a	n/a	n/a	n/a	n/a	n/a	n/a	n/a	n/a
1818968	WORD	wordpools/wasnorm_wordpool_less_exclusions.txt	LTP261	ltpFR	8	8	1	PAD	998	n/a	n/a	0	n/a	0	0	0	0.57763671875	0.412841796875	1	upper	amplitud.ttf
1821980	START	n/a	LTP261	ltpFR	8	n/a	n/a	n/a	n/a	n/a	n/a	n/a	n/a	n/a	n/a	n/a	n/a	n/a	n/a	n/a	n/a
1822962	PROB	n/a	LTP261	ltpFR	8	n/a	n/a	n/a	n/a	n/a	n/a	n/a	17	9	1	7	n/a	n/a	n/a	n/a	n/a
1824658	PROB	n/a	LTP261	ltpFR	8	n/a	n/a	n/a	n/a	n/a	n/a	n/a	14	2	8	4	n/a	n/a	n/a	n/a	n/a
1826390	PROB	n/a	LTP261	ltpFR	8	n/a	n/a	n/a	n/a	n/a	n/a	n/a	15	5	5	5	n/a	n/a	n/a	n/a	n/a
1827771	PROB	n/a	LTP261	ltpFR	8	n/a	n/a	n/a	n/a	n/a	n/a	n/a	6	2	3	1	n/a	n/a	n/a	n/a	n/a
1829601	PROB	n/a	LTP261	ltpFR	8	n/a	n/a	n/a	n/a	n/a	n/a	n/a	22	9	5	8	n/a	n/a	n/a	n/a	n/a
1833180	PROB	n/a	LTP261	ltpFR	8	n/a	n/a	n/a	n/a	n/a	n/a	n/a	13	6	1	6	n/a	n/a	n/a	n/a	n/a
1837980	STOP	n/a	LTP261	ltpFR	8	n/a	n/a	n/a	n/a	n/a	n/a	n/a	n/a	n/a	n/a	n/a	n/a	n/a	n/a	n/a	n/a
1838938	WORD	wordpools/wasnorm_wordpool_less_exclusions.txt	LTP261	ltpFR	8	8	1	MAYONNAISE	880	n/a	n/a	0	n/a	0	0	0	0.57763671875	0.412841796875	1	upper	amplitud.ttf
1841951	START	n/a	LTP261	ltpFR	8	n/a	n/a	n/a	n/a	n/a	n/a	n/a	n/a	n/a	n/a	n/a	n/a	n/a	n/a	n/a	n/a
1842799	PROB	n/a	LTP261	ltpFR	8	n/a	n/a	n/a	n/a	n/a	n/a	n/a	11	1	4	6	n/a	n/a	n/a	n/a	n/a
1845062	PROB	n/a	LTP261	ltpFR	8	n/a	n/a	n/a	n/a	n/a	n/a	n/a	9	2	6	1	n/a	n/a	n/a	n/a	n/a
1846876	PROB	n/a	LTP261	ltpFR	8	n/a	n/a	n/a	n/a	n/a	n/a	n/a	10	1	7	2	n/a	n/a	n/a	n/a	n/a
1849822	PROB	n/a	LTP261	ltpFR	8	n/a	n/a	n/a	n/a	n/a	n/a	n/a	15	6	1	8	n/a	n/a	n/a	n/a	n/a
1852784	PROB	n/a	LTP261	ltpFR	8	n/a	n/a	n/a	n/a	n/a	n/a	n/a	18	8	2	8	n/a	n/a	n/a	n/a	n/a
1857950	STOP	n/a	LTP261	ltpFR	8	n/a	n/a	n/a	n/a	n/a	n/a	n/a	n/a	n/a	n/a	n/a	n/a	n/a	n/a	n/a	n/a
1859091	WORD	wordpools/wasnorm_wordpool_less_exclusions.txt	LTP261	ltpFR	8	8	1	GOBLIN	645	n/a	n/a	1	n/a	0	0	0	0.57763671875	0.412841796875	1	upper	amplitud.ttf
1862104	START	n/a	LTP261	ltpFR	8	n/a	n/a	n/a	n/a	n/a	n/a	n/a	n/a	n/a	n/a	n/a	n/a	n/a	n/a	n/a	n/a
1862919	PROB	n/a	LTP261	ltpFR	8	n/a	n/a	n/a	n/a	n/a	n/a	n/a	20	5	6	9	n/a	n/a	n/a	n/a	n/a
1865630	PROB	n/a	LTP261	ltpFR	8	n/a	n/a	n/a	n/a	n/a	n/a	n/a	20	9	6	5	n/a	n/a	n/a	n/a	n/a
1867495	PROB	n/a	LTP261	ltpFR	8	n/a	n/a	n/a	n/a	n/a	n/a	n/a	14	4	8	2	n/a	n/a	n/a	n/a	n/a
1872272	PROB	n/a	LTP261	ltpFR	8	n/a	n/a	n/a	n/a	n/a	n/a	n/a	16	7	6	3	n/a	n/a	n/a	n/a	n/a
1873786	PROB	n/a	LTP261	ltpFR	8	n/a	n/a	n/a	n/a	n/a	n/a	n/a	13	4	2	7	n/a	n/a	n/a	n/a	n/a
1876116	PROB	n/a	LTP261	ltpFR	8	n/a	n/a	n/a	n/a	n/a	n/a	n/a	11	2	8	1	n/a	n/a	n/a	n/a	n/a
1877409	STOP	n/a	LTP261	ltpFR	8	n/a	n/a	n/a	n/a	n/a	n/a	n/a	n/a	n/a	n/a	n/a	n/a	n/a	n/a	n/a	n/a
1878978	WORD	wordpools/wasnorm_wordpool_less_exclusions.txt	LTP261	ltpFR	8	8	1	LAPEL	800	n/a	n/a	0	n/a	0	0	0	0.57763671875	0.412841796875	1	upper	amplitud.ttf
1881991	START	n/a	LTP261	ltpFR	8	n/a	n/a	n/a	n/a	n/a	n/a	n/a	n/a	n/a	n/a	n/a	n/a	n/a	n/a	n/a	n/a
1882889	PROB	n/a	LTP261	ltpFR	8	n/a	n/a	n/a	n/a	n/a	n/a	n/a	12	3	4	5	n/a	n/a	n/a	n/a	n/a
1885169	PROB	n/a	LTP261	ltpFR	8	n/a	n/a	n/a	n/a	n/a	n/a	n/a	12	4	6	2	n/a	n/a	n/a	n/a	n/a
1886649	PROB	n/a	LTP261	ltpFR	8	n/a	n/a	n/a	n/a	n/a	n/a	n/a	13	5	3	5	n/a	n/a	n/a	n/a	n/a
1888181	PROB	n/a	LTP261	ltpFR	8	n/a	n/a	n/a	n/a	n/a	n/a	n/a	20	9	7	4	n/a	n/a	n/a	n/a	n/a
1890844	PROB	n/a	LTP261	ltpFR	8	n/a	n/a	n/a	n/a	n/a	n/a	n/a	23	6	8	9	n/a	n/a	n/a	n/a	n/a
1894422	PROB	n/a	LTP261	ltpFR	8	n/a	n/a	n/a	n/a	n/a	n/a	n/a	19	9	9	1	n/a	n/a	n/a	n/a	n/a
1896103	PROB	n/a	LTP261	ltpFR	8	n/a	n/a	n/a	n/a	n/a	n/a	n/a	10	8	1	1	n/a	n/a	n/a	n/a	n/a
1897241	STOP	n/a	LTP261	ltpFR	8	n/a	n/a	n/a	n/a	n/a	n/a	n/a	n/a	n/a	n/a	n/a	n/a	n/a	n/a	n/a	n/a
1899115	WORD	wordpools/wasnorm_wordpool_less_exclusions.txt	LTP261	ltpFR	8	8	1	SALAD	1224	n/a	n/a	0	n/a	0	0	0	0.57763671875	0.412841796875	1	upper	amplitud.ttf
1902127	START	n/a	LTP261	ltpFR	8	n/a	n/a	n/a	n/a	n/a	n/a	n/a	n/a	n/a	n/a	n/a	n/a	n/a	n/a	n/a	n/a
1903209	PROB	n/a	LTP261	ltpFR	8	n/a	n/a	n/a	n/a	n/a	n/a	n/a	26	9	8	9	n/a	n/a	n/a	n/a	n/a
1906920	PROB	n/a	LTP261	ltpFR	8	n/a	n/a	n/a	n/a	n/a	n/a	n/a	21	7	6	8	n/a	n/a	n/a	n/a	n/a
1918127	STOP	n/a	LTP261	ltpFR	8	n/a	n/a	n/a	n/a	n/a	n/a	n/a	n/a	n/a	n/a	n/a	n/a	n/a	n/a	n/a	n/a
1919052	WORD	wordpools/wasnorm_wordpool_less_exclusions.txt	LTP261	ltpFR	8	8	1	SALOON	1228	n/a	n/a	0	n/a	0	0	0	0.57763671875	0.412841796875	1	upper	amplitud.ttf
1922064	START	n/a	LTP261	ltpFR	8	n/a	n/a	n/a	n/a	n/a	n/a	n/a	n/a	n/a	n/a	n/a	n/a	n/a	n/a	n/a	n/a
1923229	PROB	n/a	LTP261	ltpFR	8	n/a	n/a	n/a	n/a	n/a	n/a	n/a	18	6	7	3	n/a	n/a	n/a	n/a	n/a
1926424	PROB	n/a	LTP261	ltpFR	8	n/a	n/a	n/a	n/a	n/a	n/a	n/a	19	5	8	6	n/a	n/a	n/a	n/a	n/a
1929885	PROB	n/a	LTP261	ltpFR	8	n/a	n/a	n/a	n/a	n/a	n/a	n/a	14	2	9	3	n/a	n/a	n/a	n/a	n/a
1932149	PROB	n/a	LTP261	ltpFR	8	n/a	n/a	n/a	n/a	n/a	n/a	n/a	12	4	5	3	n/a	n/a	n/a	n/a	n/a
1934246	PROB	n/a	LTP261	ltpFR	8	n/a	n/a	n/a	n/a	n/a	n/a	n/a	14	3	6	5	n/a	n/a	n/a	n/a	n/a
1938064	STOP	n/a	LTP261	ltpFR	8	n/a	n/a	n/a	n/a	n/a	n/a	n/a	n/a	n/a	n/a	n/a	n/a	n/a	n/a	n/a	n/a
1939088	WORD	wordpools/wasnorm_wordpool_less_exclusions.txt	LTP261	ltpFR	8	8	1	STRANGER	1389	n/a	n/a	1	n/a	0	0	0	0.57763671875	0.412841796875	1	upper	amplitud.ttf
1942101	START	n/a	LTP261	ltpFR	8	n/a	n/a	n/a	n/a	n/a	n/a	n/a	n/a	n/a	n/a	n/a	n/a	n/a	n/a	n/a	n/a
1943216	PROB	n/a	LTP261	ltpFR	8	n/a	n/a	n/a	n/a	n/a	n/a	n/a	20	7	7	6	n/a	n/a	n/a	n/a	n/a
1946427	PROB	n/a	LTP261	ltpFR	8	n/a	n/a	n/a	n/a	n/a	n/a	n/a	10	8	1	1	n/a	n/a	n/a	n/a	n/a
1947892	PROB	n/a	LTP261	ltpFR	8	n/a	n/a	n/a	n/a	n/a	n/a	n/a	14	3	3	8	n/a	n/a	n/a	n/a	n/a
1950804	PROB	n/a	LTP261	ltpFR	8	n/a	n/a	n/a	n/a	n/a	n/a	n/a	8	1	4	3	n/a	n/a	n/a	n/a	n/a
1952734	PROB	n/a	LTP261	ltpFR	8	n/a	n/a	n/a	n/a	n/a	n/a	n/a	6	4	1	1	n/a	n/a	n/a	n/a	n/a
1954548	PROB	n/a	LTP261	ltpFR	8	n/a	n/a	n/a	n/a	n/a	n/a	n/a	15	6	3	6	n/a	n/a	n/a	n/a	n/a
1957169	STOP	n/a	LTP261	ltpFR	8	n/a	n/a	n/a	n/a	n/a	n/a	n/a	n/a	n/a	n/a	n/a	n/a	n/a	n/a	n/a	n/a
1959175	WORD	wordpools/wasnorm_wordpool_less_exclusions.txt	LTP261	ltpFR	8	8	1	FRIEND	606	n/a	n/a	1	n/a	0	0	0	0.57763671875	0.412841796875	1	upper	amplitud.ttf
1962188	START	n/a	LTP261	ltpFR	8	n/a	n/a	n/a	n/a	n/a	n/a	n/a	n/a	n/a	n/a	n/a	n/a	n/a	n/a	n/a	n/a
1963369	PROB	n/a	LTP261	ltpFR	8	n/a	n/a	n/a	n/a	n/a	n/a	n/a	9	4	2	3	n/a	n/a	n/a	n/a	n/a
1965865	PROB	n/a	LTP261	ltpFR	8	n/a	n/a	n/a	n/a	n/a	n/a	n/a	16	9	1	6	n/a	n/a	n/a	n/a	n/a
1967661	PROB	n/a	LTP261	ltpFR	8	n/a	n/a	n/a	n/a	n/a	n/a	n/a	17	4	8	5	n/a	n/a	n/a	n/a	n/a
1970557	PROB	n/a	LTP261	ltpFR	8	n/a	n/a	n/a	n/a	n/a	n/a	n/a	18	8	5	5	n/a	n/a	n/a	n/a	n/a
1972355	PROB	n/a	LTP261	ltpFR	8	n/a	n/a	n/a	n/a	n/a	n/a	n/a	21	7	9	5	n/a	n/a	n/a	n/a	n/a
1978177	STOP	n/a	LTP261	ltpFR	8	n/a	n/a	n/a	n/a	n/a	n/a	n/a	n/a	n/a	n/a	n/a	n/a	n/a	n/a	n/a	n/a
1979412	WORD	wordpools/wasnorm_wordpool_less_exclusions.txt	LTP261	ltpFR	8	8	1	FAMILY	550	n/a	n/a	1	n/a	0	0	0	0.57763671875	0.412841796875	1	upper	amplitud.ttf
1982424	START	n/a	LTP261	ltpFR	8	n/a	n/a	n/a	n/a	n/a	n/a	n/a	n/a	n/a	n/a	n/a	n/a	n/a	n/a	n/a	n/a
1983422	PROB	n/a	LTP261	ltpFR	8	n/a	n/a	n/a	n/a	n/a	n/a	n/a	16	3	7	6	n/a	n/a	n/a	n/a	n/a
1984820	PROB	n/a	LTP261	ltpFR	8	n/a	n/a	n/a	n/a	n/a	n/a	n/a	17	4	5	8	n/a	n/a	n/a	n/a	n/a
1987250	PROB	n/a	LTP261	ltpFR	8	n/a	n/a	n/a	n/a	n/a	n/a	n/a	17	8	8	1	n/a	n/a	n/a	n/a	n/a
1989529	PROB	n/a	LTP261	ltpFR	8	n/a	n/a	n/a	n/a	n/a	n/a	n/a	14	8	3	3	n/a	n/a	n/a	n/a	n/a
1992409	PROB	n/a	LTP261	ltpFR	8	n/a	n/a	n/a	n/a	n/a	n/a	n/a	4	1	1	2	n/a	n/a	n/a	n/a	n/a
1995038	PROB	n/a	LTP261	ltpFR	8	n/a	n/a	n/a	n/a	n/a	n/a	n/a	16	9	5	6	n/a	n/a	n/a	n/a	n/a
1997568	STOP	n/a	LTP261	ltpFR	8	n/a	n/a	n/a	n/a	n/a	n/a	n/a	n/a	n/a	n/a	n/a	n/a	n/a	n/a	n/a	n/a
1999580	WORD	wordpools/wasnorm_wordpool_less_exclusions.txt	LTP261	ltpFR	8	8	1	FATHER	554	n/a	n/a	1	n/a	0	0	0	0.57763671875	0.412841796875	1	upper	amplitud.ttf
2002593	START	n/a	LTP261	ltpFR	8	n/a	n/a	n/a	n/a	n/a	n/a	n/a	n/a	n/a	n/a	n/a	n/a	n/a	n/a	n/a	n/a
2003476	PROB	n/a	LTP261	ltpFR	8	n/a	n/a	n/a	n/a	n/a	n/a	n/a	16	7	1	8	n/a	n/a	n/a	n/a	n/a
2005473	PROB	n/a	LTP261	ltpFR	8	n/a	n/a	n/a	n/a	n/a	n/a	n/a	15	5	1	8	n/a	n/a	n/a	n/a	n/a
2007503	PROB	n/a	LTP261	ltpFR	8	n/a	n/a	n/a	n/a	n/a	n/a	n/a	19	9	9	1	n/a	n/a	n/a	n/a	n/a
2009849	PROB	n/a	LTP261	ltpFR	8	n/a	n/a	n/a	n/a	n/a	n/a	n/a	13	3	4	3	n/a	n/a	n/a	n/a	n/a
2011762	PROB	n/a	LTP261	ltpFR	8	n/a	n/a	n/a	n/a	n/a	n/a	n/a	13	7	3	7	n/a	n/a	n/a	n/a	n/a
2018593	STOP	n/a	LTP261	ltpFR	8	n/a	n/a	n/a	n/a	n/a	n/a	n/a	n/a	n/a	n/a	n/a	n/a	n/a	n/a	n/a	n/a
2019768	WORD	wordpools/wasnorm_wordpool_less_exclusions.txt	LTP261	ltpFR	8	8	1	MUG	930	n/a	n/a	0	n/a	0	0	0	0.57763671875	0.412841796875	1	upper	amplitud.ttf
2022781	START	n/a	LTP261	ltpFR	8	n/a	n/a	n/a	n/a	n/a	n/a	n/a	n/a	n/a	n/a	n/a	n/a	n/a	n/a	n/a	n/a
2023878	PROB	n/a	LTP261	ltpFR	8	n/a	n/a	n/a	n/a	n/a	n/a	n/a	21	3	9	9	n/a	n/a	n/a	n/a	n/a
2026425	PROB	n/a	LTP261	ltpFR	8	n/a	n/a	n/a	n/a	n/a	n/a	n/a	18	5	5	8	n/a	n/a	n/a	n/a	n/a
2028006	PROB	n/a	LTP261	ltpFR	8	n/a	n/a	n/a	n/a	n/a	n/a	n/a	17	3	5	9	n/a	n/a	n/a	n/a	n/a
2032149	PROB	n/a	LTP261	ltpFR	8	n/a	n/a	n/a	n/a	n/a	n/a	n/a	6	2	1	3	n/a	n/a	n/a	n/a	n/a
2034230	PROB	n/a	LTP261	ltpFR	8	n/a	n/a	n/a	n/a	n/a	n/a	n/a	17	7	2	8	n/a	n/a	n/a	n/a	n/a
2037321	STOP	n/a	LTP261	ltpFR	8	n/a	n/a	n/a	n/a	n/a	n/a	n/a	n/a	n/a	n/a	n/a	n/a	n/a	n/a	n/a	n/a
2039888	WORD	wordpools/wasnorm_wordpool_less_exclusions.txt	LTP261	ltpFR	8	8	1	SHIRT	1287	n/a	n/a	0	n/a	0	0	0	0.57763671875	0.412841796875	1	upper	amplitud.ttf
2042900	START	n/a	LTP261	ltpFR	8	n/a	n/a	n/a	n/a	n/a	n/a	n/a	n/a	n/a	n/a	n/a	n/a	n/a	n/a	n/a	n/a
2043731	PROB	n/a	LTP261	ltpFR	8	n/a	n/a	n/a	n/a	n/a	n/a	n/a	13	1	3	9	n/a	n/a	n/a	n/a	n/a
2045313	PROB	n/a	LTP261	ltpFR	8	n/a	n/a	n/a	n/a	n/a	n/a	n/a	9	3	2	4	n/a	n/a	n/a	n/a	n/a
2047943	PROB	n/a	LTP261	ltpFR	8	n/a	n/a	n/a	n/a	n/a	n/a	n/a	17	5	8	4	n/a	n/a	n/a	n/a	n/a
2050971	PROB	n/a	LTP261	ltpFR	8	n/a	n/a	n/a	n/a	n/a	n/a	n/a	15	9	2	4	n/a	n/a	n/a	n/a	n/a
2052952	PROB	n/a	LTP261	ltpFR	8	n/a	n/a	n/a	n/a	n/a	n/a	n/a	10	5	2	3	n/a	n/a	n/a	n/a	n/a
2054965	PROB	n/a	LTP261	ltpFR	8	n/a	n/a	n/a	n/a	n/a	n/a	n/a	16	6	8	2	n/a	n/a	n/a	n/a	n/a
2056513	PROB	n/a	LTP261	ltpFR	8	n/a	n/a	n/a	n/a	n/a	n/a	n/a	19	8	7	4	n/a	n/a	n/a	n/a	n/a
2058696	STOP	n/a	LTP261	ltpFR	8	n/a	n/a	n/a	n/a	n/a	n/a	n/a	n/a	n/a	n/a	n/a	n/a	n/a	n/a	n/a	n/a
2059741	WORD	wordpools/wasnorm_wordpool_less_exclusions.txt	LTP261	ltpFR	8	8	1	PECAN	1036	n/a	n/a	0	n/a	0	0	0	0.57763671875	0.412841796875	1	upper	amplitud.ttf
2062753	START	n/a	LTP261	ltpFR	8	n/a	n/a	n/a	n/a	n/a	n/a	n/a	n/a	n/a	n/a	n/a	n/a	n/a	n/a	n/a	n/a
2063585	PROB	n/a	LTP261	ltpFR	8	n/a	n/a	n/a	n/a	n/a	n/a	n/a	19	9	3	7	n/a	n/a	n/a	n/a	n/a
2067081	PROB	n/a	LTP261	ltpFR	8	n/a	n/a	n/a	n/a	n/a	n/a	n/a	11	4	5	2	n/a	n/a	n/a	n/a	n/a
2069576	PROB	n/a	LTP261	ltpFR	8	n/a	n/a	n/a	n/a	n/a	n/a	n/a	8	1	1	6	n/a	n/a	n/a	n/a	n/a
2070842	PROB	n/a	LTP261	ltpFR	8	n/a	n/a	n/a	n/a	n/a	n/a	n/a	18	5	5	8	n/a	n/a	n/a	n/a	n/a
2072223	PROB	n/a	LTP261	ltpFR	8	n/a	n/a	n/a	n/a	n/a	n/a	n/a	14	7	2	5	n/a	n/a	n/a	n/a	n/a
2074220	PROB	n/a	LTP261	ltpFR	8	n/a	n/a	n/a	n/a	n/a	n/a	n/a	11	7	1	3	n/a	n/a	n/a	n/a	n/a
2075650	PROB	n/a	LTP261	ltpFR	8	n/a	n/a	n/a	n/a	n/a	n/a	n/a	10	2	3	5	n/a	n/a	n/a	n/a	n/a
2077544	STOP	n/a	LTP261	ltpFR	8	n/a	n/a	n/a	n/a	n/a	n/a	n/a	n/a	n/a	n/a	n/a	n/a	n/a	n/a	n/a	n/a
2080627	REC_START	n/a	LTP261	ltpFR	8	8	n/a	n/a	n/a	n/a	n/a	n/a	n/a	0	0	0	n/a	n/a	n/a	n/a	n/a
2082534	REC_WORD	wordpools/wasnorm_wordpool_less_exclusions.txt	LTP261	ltpFR	8	8	1	PECAN	1036	n/a	n/a	0	n/a	0	0	0	n/a	n/a	n/a	n/a	n/a
2084373	REC_WORD	wordpools/wasnorm_wordpool_less_exclusions.txt	LTP261	ltpFR	8	8	1	SHIRT	1287	n/a	n/a	0	n/a	0	0	0	n/a	n/a	n/a	n/a	n/a
2088237	REC_WORD	wordpools/wasnorm_wordpool_less_exclusions.txt	LTP261	ltpFR	8	8	1	SALOON	1228	n/a	n/a	0	n/a	0	0	0	n/a	n/a	n/a	n/a	n/a
2089539	REC_WORD	wordpools/wasnorm_wordpool_less_exclusions.txt	LTP261	ltpFR	8	8	1	FRIEND	606	n/a	n/a	1	n/a	0	0	0	n/a	n/a	n/a	n/a	n/a
2091173	REC_WORD	wordpools/wasnorm_wordpool_less_exclusions.txt	LTP261	ltpFR	8	8	1	STRANGER	1389	n/a	n/a	1	n/a	0	0	0	n/a	n/a	n/a	n/a	n/a
2092726	REC_WORD	wordpools/wasnorm_wordpool_less_exclusions.txt	LTP261	ltpFR	8	8	1	MUG	930	n/a	n/a	0	n/a	0	0	0	n/a	n/a	n/a	n/a	n/a
2127328	REC_WORD	wordpools/wasnorm_wordpool_less_exclusions.txt	LTP261	ltpFR	8	8	1	LAPEL	800	n/a	n/a	0	n/a	0	0	0	n/a	n/a	n/a	n/a	n/a
2137742	REC_WORD	wordpools/wasnorm_wordpool_less_exclusions.txt	LTP261	ltpFR	8	8	1	FAMILY	550	n/a	n/a	1	n/a	0	0	0	n/a	n/a	n/a	n/a	n/a
2165783	WORD	wordpools/wasnorm_wordpool_less_exclusions.txt	LTP261	ltpFR	8	9	0	PARSLEY	1016	n/a	n/a	0	n/a	0	0	0	0.422607421875	0.5869140625	0	lower	zerothre.ttf
2169877	WORD	wordpools/wasnorm_wordpool_less_exclusions.txt	LTP261	ltpFR	8	9	0	PICKLE	1059	n/a	n/a	0	n/a	0	0	0	0.422607421875	0.5869140625	0	lower	zerothre.ttf
2173805	WORD	wordpools/wasnorm_wordpool_less_exclusions.txt	LTP261	ltpFR	8	9	0	RUM	1217	n/a	n/a	0	n/a	0	0	0	0.422607421875	0.5869140625	0	lower	zerothre.ttf
2177631	WORD	wordpools/wasnorm_wordpool_less_exclusions.txt	LTP261	ltpFR	8	9	0	COACH	331	n/a	n/a	1	n/a	0	0	0	0.422607421875	0.5869140625	0	lower	zerothre.ttf
2181742	WORD	wordpools/wasnorm_wordpool_less_exclusions.txt	LTP261	ltpFR	8	9	0	EMPIRE	530	n/a	n/a	1	n/a	0	0	0	0.422607421875	0.5869140625	0	lower	zerothre.ttf
2185603	WORD	wordpools/wasnorm_wordpool_less_exclusions.txt	LTP261	ltpFR	8	9	0	HOOK	715	n/a	n/a	0	n/a	0	0	0	0.422607421875	0.5869140625	0	lower	zerothre.ttf
2189730	WORD	wordpools/wasnorm_wordpool_less_exclusions.txt	LTP261	ltpFR	8	9	0	ICE	730	n/a	n/a	0	n/a	0	0	0	0.422607421875	0.5869140625	0	lower	zerothre.ttf
2193891	WORD	wordpools/wasnorm_wordpool_less_exclusions.txt	LTP261	ltpFR	8	9	0	CAMEL	223	n/a	n/a	1	n/a	0	0	0	0.422607421875	0.5869140625	0	lower	zerothre.ttf
2197734	WORD	wordpools/wasnorm_wordpool_less_exclusions.txt	LTP261	ltpFR	8	9	0	DASHBOARD	441	n/a	n/a	0	n/a	0	0	0	0.422607421875	0.5869140625	0	lower	zerothre.ttf
2201695	WORD	wordpools/wasnorm_wordpool_less_exclusions.txt	LTP261	ltpFR	8	9	0	VEHICLE	1553	n/a	n/a	1	n/a	0	0	0	0.422607421875	0.5869140625	0	lower	zerothre.ttf
2205606	WORD	wordpools/wasnorm_wordpool_less_exclusions.txt	LTP261	ltpFR	8	9	0	SHORE	1291	n/a	n/a	1	n/a	0	0	0	0.422607421875	0.5869140625	0	lower	zerothre.ttf
2209485	WORD	wordpools/wasnorm_wordpool_less_exclusions.txt	LTP261	ltpFR	8	9	0	TONGUE	1479	n/a	n/a	0	n/a	0	0	0	0.422607421875	0.5869140625	0	lower	zerothre.ttf
2213644	WORD	wordpools/wasnorm_wordpool_less_exclusions.txt	LTP261	ltpFR	8	9	0	COOLER	375	n/a	n/a	1	n/a	0	0	0	0.422607421875	0.5869140625	0	lower	zerothre.ttf
2217473	WORD	wordpools/wasnorm_wordpool_less_exclusions.txt	LTP261	ltpFR	8	9	0	SHARK	1275	n/a	n/a	1	n/a	0	0	0	0.422607421875	0.5869140625	0	lower	zerothre.ttf
2221582	WORD	wordpools/wasnorm_wordpool_less_exclusions.txt	LTP261	ltpFR	8	9	0	KNAPSACK	783	n/a	n/a	1	n/a	0	0	0	0.422607421875	0.5869140625	0	lower	zerothre.ttf
2225576	WORD	wordpools/wasnorm_wordpool_less_exclusions.txt	LTP261	ltpFR	8	9	0	STAPLER	1372	n/a	n/a	0	n/a	0	0	0	0.422607421875	0.5869140625	0	lower	zerothre.ttf
2228589	START	n/a	LTP261	ltpFR	8	n/a	n/a	n/a	n/a	n/a	n/a	n/a	n/a	n/a	n/a	n/a	n/a	n/a	n/a	n/a	n/a
2229438	PROB	n/a	LTP261	ltpFR	8	n/a	n/a	n/a	n/a	n/a	n/a	n/a	19	6	6	7	n/a	n/a	n/a	n/a	n/a
2232866	PROB	n/a	LTP261	ltpFR	8	n/a	n/a	n/a	n/a	n/a	n/a	n/a	12	2	3	7	n/a	n/a	n/a	n/a	n/a
2234780	PROB	n/a	LTP261	ltpFR	8	n/a	n/a	n/a	n/a	n/a	n/a	n/a	7	2	1	4	n/a	n/a	n/a	n/a	n/a
2237526	PROB	n/a	LTP261	ltpFR	8	n/a	n/a	n/a	n/a	n/a	n/a	n/a	14	2	8	4	n/a	n/a	n/a	n/a	n/a
2238907	PROB	n/a	LTP261	ltpFR	8	n/a	n/a	n/a	n/a	n/a	n/a	n/a	15	8	3	4	n/a	n/a	n/a	n/a	n/a
2241187	PROB	n/a	LTP261	ltpFR	8	n/a	n/a	n/a	n/a	n/a	n/a	n/a	12	8	2	2	n/a	n/a	n/a	n/a	n/a
2242717	PROB	n/a	LTP261	ltpFR	8	n/a	n/a	n/a	n/a	n/a	n/a	n/a	10	1	1	8	n/a	n/a	n/a	n/a	n/a
2244073	STOP	n/a	LTP261	ltpFR	8	n/a	n/a	n/a	n/a	n/a	n/a	n/a	n/a	n/a	n/a	n/a	n/a	n/a	n/a	n/a	n/a
2246513	REC_START	n/a	LTP261	ltpFR	8	9	n/a	n/a	n/a	n/a	n/a	n/a	n/a	0	0	0	n/a	n/a	n/a	n/a	n/a
2247638	REC_WORD	wordpools/wasnorm_wordpool_less_exclusions.txt	LTP261	ltpFR	8	9	0	KNAPSACK	783	n/a	n/a	1	n/a	0	0	0	n/a	n/a	n/a	n/a	n/a
2250031	REC_WORD	wordpools/wasnorm_wordpool_less_exclusions.txt	LTP261	ltpFR	8	9	0	DASHBOARD	441	n/a	n/a	0	n/a	0	0	0	n/a	n/a	n/a	n/a	n/a
2250978	REC_WORD	wordpools/wasnorm_wordpool_less_exclusions.txt	LTP261	ltpFR	8	9	0	VEHICLE	1553	n/a	n/a	1	n/a	0	0	0	n/a	n/a	n/a	n/a	n/a
2252035	REC_WORD	wordpools/wasnorm_wordpool_less_exclusions.txt	LTP261	ltpFR	8	9	0	SHORE	1291	n/a	n/a	1	n/a	0	0	0	n/a	n/a	n/a	n/a	n/a
2254654	REC_WORD	wordpools/wasnorm_wordpool_less_exclusions.txt	LTP261	ltpFR	8	9	0	COACH	331	n/a	n/a	1	n/a	0	0	0	n/a	n/a	n/a	n/a	n/a
2293491	REC_WORD	wordpools/wasnorm_wordpool_less_exclusions.txt	LTP261	ltpFR	8	9	0	SHARK	1275	n/a	n/a	1	n/a	0	0	0	n/a	n/a	n/a	n/a	n/a
2296788	REC_WORD	wordpools/wasnorm_wordpool_less_exclusions.txt	LTP261	ltpFR	8	9	0	COOLER	375	n/a	n/a	1	n/a	0	0	0	n/a	n/a	n/a	n/a	n/a
2304499	REC_WORD	wordpools/wasnorm_wordpool_less_exclusions.txt	LTP261	ltpFR	8	9	0	HOOK	715	n/a	n/a	0	n/a	0	0	0	n/a	n/a	n/a	n/a	n/a
2329289	WORD	wordpools/wasnorm_wordpool_less_exclusions.txt	LTP261	ltpFR	8	10	1	JOURNAL	760	n/a	n/a	0	n/a	0	0	0	0.57763671875	0.412841796875	1	upper	amplitud.ttf
2333350	WORD	wordpools/wasnorm_wordpool_less_exclusions.txt	LTP261	ltpFR	8	10	1	ZEBRA	1635	n/a	n/a	1	n/a	0	0	0	0.57763671875	0.412841796875	1	upper	amplitud.ttf
2337477	WORD	wordpools/wasnorm_wordpool_less_exclusions.txt	LTP261	ltpFR	8	10	1	HOOP	716	n/a	n/a	0	n/a	0	0	0	0.57763671875	0.412841796875	1	upper	amplitud.ttf
2341421	WORD	wordpools/wasnorm_wordpool_less_exclusions.txt	LTP261	ltpFR	8	10	1	PASSAGE	1019	n/a	n/a	0	n/a	0	0	0	0.57763671875	0.412841796875	1	upper	amplitud.ttf
2345431	WORD	wordpools/wasnorm_wordpool_less_exclusions.txt	LTP261	ltpFR	8	10	1	LOCK	838	n/a	n/a	0	n/a	0	0	0	0.57763671875	0.412841796875	1	upper	amplitud.ttf
2349475	WORD	wordpools/wasnorm_wordpool_less_exclusions.txt	LTP261	ltpFR	8	10	1	DOCUMENT	479	n/a	n/a	0	n/a	0	0	0	0.57763671875	0.412841796875	1	upper	amplitud.ttf
2353535	WORD	wordpools/wasnorm_wordpool_less_exclusions.txt	LTP261	ltpFR	8	10	1	PRINCE	1124	n/a	n/a	1	n/a	0	0	0	0.57763671875	0.412841796875	1	upper	amplitud.ttf
2357447	WORD	wordpools/wasnorm_wordpool_less_exclusions.txt	LTP261	ltpFR	8	10	1	FOX	598	n/a	n/a	1	n/a	0	0	0	0.57763671875	0.412841796875	1	upper	amplitud.ttf
2361374	WORD	wordpools/wasnorm_wordpool_less_exclusions.txt	LTP261	ltpFR	8	10	1	LEOPARD	812	n/a	n/a	1	n/a	0	0	0	0.57763671875	0.412841796875	1	upper	amplitud.ttf
2365219	WORD	wordpools/wasnorm_wordpool_less_exclusions.txt	LTP261	ltpFR	8	10	1	COUCH	386	n/a	n/a	0	n/a	0	0	0	0.57763671875	0.412841796875	1	upper	amplitud.ttf
2369346	WORD	wordpools/wasnorm_wordpool_less_exclusions.txt	LTP261	ltpFR	8	10	1	ORANGE	980	n/a	n/a	1	n/a	0	0	0	0.57763671875	0.412841796875	1	upper	amplitud.ttf
2373340	WORD	wordpools/wasnorm_wordpool_less_exclusions.txt	LTP261	ltpFR	8	10	1	HANGER	687	n/a	n/a	0	n/a	0	0	0	0.57763671875	0.412841796875	1	upper	amplitud.ttf
2377184	WORD	wordpools/wasnorm_wordpool_less_exclusions.txt	LTP261	ltpFR	8	10	1	WASHER	1592	n/a	n/a	0	n/a	0	0	0	0.57763671875	0.412841796875	1	upper	amplitud.ttf
2381278	WORD	wordpools/wasnorm_wordpool_less_exclusions.txt	LTP261	ltpFR	8	10	1	RACCOON	1153	n/a	n/a	1	n/a	0	0	0	0.57763671875	0.412841796875	1	upper	amplitud.ttf
2385189	WORD	wordpools/wasnorm_wordpool_less_exclusions.txt	LTP261	ltpFR	8	10	1	EDITOR	516	n/a	n/a	0	n/a	0	0	0	0.57763671875	0.412841796875	1	upper	amplitud.ttf
2389183	WORD	wordpools/wasnorm_wordpool_less_exclusions.txt	LTP261	ltpFR	8	10	1	SUNRISE	1407	n/a	n/a	0	n/a	0	0	0	0.57763671875	0.412841796875	1	upper	amplitud.ttf
2394958	REC_START	n/a	LTP261	ltpFR	8	10	n/a	n/a	n/a	n/a	n/a	n/a	n/a	0	0	0	n/a	n/a	n/a	n/a	n/a
2396373	REC_WORD	wordpools/wasnorm_wordpool_less_exclusions.txt	LTP261	ltpFR	8	10	1	SUNRISE	1407	n/a	n/a	0	n/a	0	0	0	n/a	n/a	n/a	n/a	n/a
2399467	REC_WORD	wordpools/wasnorm_wordpool_less_exclusions.txt	LTP261	ltpFR	8	10	1	EDITOR	516	n/a	n/a	0	n/a	0	0	0	n/a	n/a	n/a	n/a	n/a
2401976	REC_WORD	wordpools/wasnorm_wordpool_less_exclusions.txt	LTP261	ltpFR	8	10	1	ZEBRA	1635	n/a	n/a	1	n/a	0	0	0	n/a	n/a	n/a	n/a	n/a
2403201	REC_WORD	wordpools/wasnorm_wordpool_less_exclusions.txt	LTP261	ltpFR	8	10	1	DOCUMENT	479	n/a	n/a	0	n/a	0	0	0	n/a	n/a	n/a	n/a	n/a
2405802	REC_WORD	wordpools/wasnorm_wordpool_less_exclusions.txt	LTP261	ltpFR	8	10	1	JOURNAL	760	n/a	n/a	0	n/a	0	0	0	n/a	n/a	n/a	n/a	n/a
2411482	REC_WORD	wordpools/wasnorm_wordpool_less_exclusions.txt	LTP261	ltpFR	8	10	1	ORANGE	980	n/a	n/a	1	n/a	0	0	0	n/a	n/a	n/a	n/a	n/a
2470577	REST_REWET	n/a	LTP261	ltpFR	8	10	n/a	n/a	n/a	n/a	n/a	n/a	n/a	0	0	0	n/a	n/a	n/a	n/a	n/a
3025832	WORD	wordpools/wasnorm_wordpool_less_exclusions.txt	LTP261	ltpFR	8	11	0	HORNET	718	n/a	n/a	0	n/a	0	0	0	0.422607421875	0.5869140625	0	lower	zerothre.ttf
3029809	WORD	wordpools/wasnorm_wordpool_less_exclusions.txt	LTP261	ltpFR	8	11	0	SHRINE	1298	n/a	n/a	1	n/a	0	0	0	0.422607421875	0.5869140625	0	lower	zerothre.ttf
3033903	WORD	wordpools/wasnorm_wordpool_less_exclusions.txt	LTP261	ltpFR	8	11	0	CATHEDRAL	260	n/a	n/a	1	n/a	0	0	0	0.422607421875	0.5869140625	0	lower	zerothre.ttf
3037881	WORD	wordpools/wasnorm_wordpool_less_exclusions.txt	LTP261	ltpFR	8	11	1	MONEY	908	n/a	n/a	0	n/a	0	0	0	0.57763671875	0.412841796875	1	upper	amplitud.ttf
3041724	WORD	wordpools/wasnorm_wordpool_less_exclusions.txt	LTP261	ltpFR	8	11	1	SOAP	1337	n/a	n/a	0	n/a	0	0	0	0.57763671875	0.412841796875	1	upper	amplitud.ttf
3045819	WORD	wordpools/wasnorm_wordpool_less_exclusions.txt	LTP261	ltpFR	8	11	0	SCARECROW	1245	n/a	n/a	1	n/a	0	0	0	0.422607421875	0.5869140625	0	lower	zerothre.ttf
3049913	WORD	wordpools/wasnorm_wordpool_less_exclusions.txt	LTP261	ltpFR	8	11	0	BAIT	70	n/a	n/a	0	n/a	0	0	0	0.422607421875	0.5869140625	0	lower	zerothre.ttf
3053739	WORD	wordpools/wasnorm_wordpool_less_exclusions.txt	LTP261	ltpFR	8	11	1	OMELET	976	n/a	n/a	0	n/a	0	0	0	0.57763671875	0.412841796875	1	upper	amplitud.ttf
3057817	WORD	wordpools/wasnorm_wordpool_less_exclusions.txt	LTP261	ltpFR	8	11	1	FRIAR	605	n/a	n/a	0	n/a	0	0	0	0.57763671875	0.412841796875	1	upper	amplitud.ttf
3061744	WORD	wordpools/wasnorm_wordpool_less_exclusions.txt	LTP261	ltpFR	8	11	1	TECHNICIAN	1443	n/a	n/a	1	n/a	0	0	0	0.57763671875	0.412841796875	1	upper	amplitud.ttf
3065605	WORD	wordpools/wasnorm_wordpool_less_exclusions.txt	LTP261	ltpFR	8	11	1	DISC	473	n/a	n/a	0	n/a	0	0	0	0.57763671875	0.412841796875	1	upper	amplitud.ttf
3069682	WORD	wordpools/wasnorm_wordpool_less_exclusions.txt	LTP261	ltpFR	8	11	1	TEMPLE	1448	n/a	n/a	0	n/a	0	0	0	0.57763671875	0.412841796875	1	upper	amplitud.ttf
3073794	WORD	wordpools/wasnorm_wordpool_less_exclusions.txt	LTP261	ltpFR	8	11	1	PEOPLE	1046	n/a	n/a	1	n/a	0	0	0	0.57763671875	0.412841796875	1	upper	amplitud.ttf
3077887	WORD	wordpools/wasnorm_wordpool_less_exclusions.txt	LTP261	ltpFR	8	11	0	CITIZEN	312	n/a	n/a	1	n/a	0	0	0	0.422607421875	0.5869140625	0	lower	zerothre.ttf
3081731	WORD	wordpools/wasnorm_wordpool_less_exclusions.txt	LTP261	ltpFR	8	11	0	MALL	860	n/a	n/a	1	n/a	0	0	0	0.422607421875	0.5869140625	0	lower	zerothre.ttf
3085575	WORD	wordpools/wasnorm_wordpool_less_exclusions.txt	LTP261	ltpFR	8	11	0	BATH	98	n/a	n/a	1	n/a	0	0	0	0.422607421875	0.5869140625	0	lower	zerothre.ttf
3088587	START	n/a	LTP261	ltpFR	8	n/a	n/a	n/a	n/a	n/a	n/a	n/a	n/a	n/a	n/a	n/a	n/a	n/a	n/a	n/a	n/a
3089536	PROB	n/a	LTP261	ltpFR	8	n/a	n/a	n/a	n/a	n/a	n/a	n/a	11	6	3	2	n/a	n/a	n/a	n/a	n/a
3091967	PROB	n/a	LTP261	ltpFR	8	n/a	n/a	n/a	n/a	n/a	n/a	n/a	20	4	6	9	n/a	n/a	n/a	n/a	n/a
3095073	STOP	n/a	LTP261	ltpFR	8	n/a	n/a	n/a	n/a	n/a	n/a	n/a	n/a	n/a	n/a	n/a	n/a	n/a	n/a	n/a	n/a
3098457	REC_START	n/a	LTP261	ltpFR	8	11	n/a	n/a	n/a	n/a	n/a	n/a	n/a	0	0	0	n/a	n/a	n/a	n/a	n/a
3099730	REC_WORD	wordpools/wasnorm_wordpool_less_exclusions.txt	LTP261	ltpFR	8	11	0	CITIZEN	312	n/a	n/a	1	n/a	0	0	0	n/a	n/a	n/a	n/a	n/a
3102524	REC_WORD	wordpools/wasnorm_wordpool_less_exclusions.txt	LTP261	ltpFR	8	11	1	PEOPLE	1046	n/a	n/a	1	n/a	0	0	0	n/a	n/a	n/a	n/a	n/a
3103399	REC_WORD	wordpools/wasnorm_wordpool_less_exclusions.txt	LTP261	ltpFR	8	11	0	MALL	860	n/a	n/a	1	n/a	0	0	0	n/a	n/a	n/a	n/a	n/a
3107591	REC_WORD	wordpools/wasnorm_wordpool_less_exclusions.txt	LTP261	ltpFR	8	11	0	CATHEDRAL	260	n/a	n/a	1	n/a	0	0	0	n/a	n/a	n/a	n/a	n/a
3108580	REC_WORD	wordpools/wasnorm_wordpool_less_exclusions.txt	LTP261	ltpFR	8	11	1	TEMPLE	1448	n/a	n/a	0	n/a	0	0	0	n/a	n/a	n/a	n/a	n/a
3109884	REC_WORD	wordpools/wasnorm_wordpool_less_exclusions.txt	LTP261	ltpFR	8	11	0	SHRINE	1298	n/a	n/a	1	n/a	0	0	0	n/a	n/a	n/a	n/a	n/a
3157597	REC_WORD	wordpools/wasnorm_wordpool_less_exclusions.txt	LTP261	ltpFR	8	11	1	SOAP	1337	n/a	n/a	0	n/a	0	0	0	n/a	n/a	n/a	n/a	n/a
3158872	REC_WORD	wordpools/wasnorm_wordpool_less_exclusions.txt	LTP261	ltpFR	8	11	1	DISC	473	n/a	n/a	0	n/a	0	0	0	n/a	n/a	n/a	n/a	n/a
3159719	REC_WORD	wordpools/wasnorm_wordpool_less_exclusions.txt	LTP261	ltpFR	8	11	1	TECHNICIAN	1443	n/a	n/a	1	n/a	0	0	0	n/a	n/a	n/a	n/a	n/a
3160904	REC_WORD	wordpools/wasnorm_wordpool_less_exclusions.txt	LTP261	ltpFR	8	11	1	FRIAR	605	n/a	n/a	0	n/a	0	0	0	n/a	n/a	n/a	n/a	n/a
3178937	START	n/a	LTP261	ltpFR	8	n/a	n/a	n/a	n/a	n/a	n/a	n/a	n/a	n/a	n/a	n/a	n/a	n/a	n/a	n/a	n/a
3180451	PROB	n/a	LTP261	ltpFR	8	n/a	n/a	n/a	n/a	n/a	n/a	n/a	20	4	7	9	n/a	n/a	n/a	n/a	n/a
3183064	PROB	n/a	LTP261	ltpFR	8	n/a	n/a	n/a	n/a	n/a	n/a	n/a	20	5	9	6	n/a	n/a	n/a	n/a	n/a
3185680	STOP	n/a	LTP261	ltpFR	8	n/a	n/a	n/a	n/a	n/a	n/a	n/a	n/a	n/a	n/a	n/a	n/a	n/a	n/a	n/a	n/a
3188140	WORD	wordpools/wasnorm_wordpool_less_exclusions.txt	LTP261	ltpFR	8	12	1	TAXI	1438	n/a	n/a	0	n/a	0	0	0	0.57763671875	0.412841796875	1	upper	amplitud.ttf
3191152	START	n/a	LTP261	ltpFR	8	n/a	n/a	n/a	n/a	n/a	n/a	n/a	n/a	n/a	n/a	n/a	n/a	n/a	n/a	n/a	n/a
3192233	PROB	n/a	LTP261	ltpFR	8	n/a	n/a	n/a	n/a	n/a	n/a	n/a	10	5	1	4	n/a	n/a	n/a	n/a	n/a
3194463	PROB	n/a	LTP261	ltpFR	8	n/a	n/a	n/a	n/a	n/a	n/a	n/a	12	8	2	2	n/a	n/a	n/a	n/a	n/a
3195961	PROB	n/a	LTP261	ltpFR	8	n/a	n/a	n/a	n/a	n/a	n/a	n/a	14	7	1	6	n/a	n/a	n/a	n/a	n/a
3198145	STOP	n/a	LTP261	ltpFR	8	n/a	n/a	n/a	n/a	n/a	n/a	n/a	n/a	n/a	n/a	n/a	n/a	n/a	n/a	n/a	n/a
3200338	WORD	wordpools/wasnorm_wordpool_less_exclusions.txt	LTP261	ltpFR	8	12	1	PASSENGER	1020	n/a	n/a	1	n/a	0	0	0	0.57763671875	0.412841796875	1	upper	amplitud.ttf
3203351	START	n/a	LTP261	ltpFR	8	n/a	n/a	n/a	n/a	n/a	n/a	n/a	n/a	n/a	n/a	n/a	n/a	n/a	n/a	n/a	n/a
3204515	PROB	n/a	LTP261	ltpFR	8	n/a	n/a	n/a	n/a	n/a	n/a	n/a	13	6	3	4	n/a	n/a	n/a	n/a	n/a
3206396	PROB	n/a	LTP261	ltpFR	8	n/a	n/a	n/a	n/a	n/a	n/a	n/a	10	7	2	1	n/a	n/a	n/a	n/a	n/a
3207910	PROB	n/a	LTP261	ltpFR	8	n/a	n/a	n/a	n/a	n/a	n/a	n/a	11	1	2	8	n/a	n/a	n/a	n/a	n/a
3211337	STOP	n/a	LTP261	ltpFR	8	n/a	n/a	n/a	n/a	n/a	n/a	n/a	n/a	n/a	n/a	n/a	n/a	n/a	n/a	n/a	n/a
3212254	WORD	wordpools/wasnorm_wordpool_less_exclusions.txt	LTP261	ltpFR	8	12	1	CROW	414	n/a	n/a	1	n/a	0	0	0	0.57763671875	0.412841796875	1	upper	amplitud.ttf
3215266	START	n/a	LTP261	ltpFR	8	n/a	n/a	n/a	n/a	n/a	n/a	n/a	n/a	n/a	n/a	n/a	n/a	n/a	n/a	n/a	n/a
3216397	PROB	n/a	LTP261	ltpFR	8	n/a	n/a	n/a	n/a	n/a	n/a	n/a	15	9	5	1	n/a	n/a	n/a	n/a	n/a
3218061	PROB	n/a	LTP261	ltpFR	8	n/a	n/a	n/a	n/a	n/a	n/a	n/a	25	9	9	7	n/a	n/a	n/a	n/a	n/a
3220957	PROB	n/a	LTP261	ltpFR	8	n/a	n/a	n/a	n/a	n/a	n/a	n/a	9	6	1	2	n/a	n/a	n/a	n/a	n/a
3223193	STOP	n/a	LTP261	ltpFR	8	n/a	n/a	n/a	n/a	n/a	n/a	n/a	n/a	n/a	n/a	n/a	n/a	n/a	n/a	n/a	n/a
3224452	WORD	wordpools/wasnorm_wordpool_less_exclusions.txt	LTP261	ltpFR	8	12	1	SUBMARINE	1398	n/a	n/a	0	n/a	0	0	0	0.57763671875	0.412841796875	1	upper	amplitud.ttf
3227465	START	n/a	LTP261	ltpFR	8	n/a	n/a	n/a	n/a	n/a	n/a	n/a	n/a	n/a	n/a	n/a	n/a	n/a	n/a	n/a	n/a
3228529	PROB	n/a	LTP261	ltpFR	8	n/a	n/a	n/a	n/a	n/a	n/a	n/a	19	9	6	4	n/a	n/a	n/a	n/a	n/a
3232839	PROB	n/a	LTP261	ltpFR	8	n/a	n/a	n/a	n/a	n/a	n/a	n/a	10	1	3	6	n/a	n/a	n/a	n/a	n/a
3234614	STOP	n/a	LTP261	ltpFR	8	n/a	n/a	n/a	n/a	n/a	n/a	n/a	n/a	n/a	n/a	n/a	n/a	n/a	n/a	n/a	n/a
3236334	WORD	wordpools/wasnorm_wordpool_less_exclusions.txt	LTP261	ltpFR	8	12	0	MARINE	869	n/a	n/a	1	n/a	0	0	0	0.422607421875	0.5869140625	0	lower	zerothre.ttf
3239347	START	n/a	LTP261	ltpFR	8	n/a	n/a	n/a	n/a	n/a	n/a	n/a	n/a	n/a	n/a	n/a	n/a	n/a	n/a	n/a	n/a
3240428	PROB	n/a	LTP261	ltpFR	8	n/a	n/a	n/a	n/a	n/a	n/a	n/a	13	3	3	7	n/a	n/a	n/a	n/a	n/a
3242292	PROB	n/a	LTP261	ltpFR	8	n/a	n/a	n/a	n/a	n/a	n/a	n/a	17	5	5	7	n/a	n/a	n/a	n/a	n/a
3243806	PROB	n/a	LTP261	ltpFR	8	n/a	n/a	n/a	n/a	n/a	n/a	n/a	11	2	8	1	n/a	n/a	n/a	n/a	n/a
3247347	STOP	n/a	LTP261	ltpFR	8	n/a	n/a	n/a	n/a	n/a	n/a	n/a	n/a	n/a	n/a	n/a	n/a	n/a	n/a	n/a	n/a
3248266	WORD	wordpools/wasnorm_wordpool_less_exclusions.txt	LTP261	ltpFR	8	12	0	CLAM	315	n/a	n/a	0	n/a	0	0	0	0.422607421875	0.5869140625	0	lower	zerothre.ttf
3251279	START	n/a	LTP261	ltpFR	8	n/a	n/a	n/a	n/a	n/a	n/a	n/a	n/a	n/a	n/a	n/a	n/a	n/a	n/a	n/a	n/a
3252460	PROB	n/a	LTP261	ltpFR	8	n/a	n/a	n/a	n/a	n/a	n/a	n/a	18	9	5	4	n/a	n/a	n/a	n/a	n/a
3259279	STOP	n/a	LTP261	ltpFR	8	n/a	n/a	n/a	n/a	n/a	n/a	n/a	n/a	n/a	n/a	n/a	n/a	n/a	n/a	n/a	n/a
3260448	WORD	wordpools/wasnorm_wordpool_less_exclusions.txt	LTP261	ltpFR	8	12	1	VEIN	1554	n/a	n/a	0	n/a	0	0	0	0.57763671875	0.412841796875	1	upper	amplitud.ttf
3263461	START	n/a	LTP261	ltpFR	8	n/a	n/a	n/a	n/a	n/a	n/a	n/a	n/a	n/a	n/a	n/a	n/a	n/a	n/a	n/a	n/a
3264541	PROB	n/a	LTP261	ltpFR	8	n/a	n/a	n/a	n/a	n/a	n/a	n/a	18	9	2	7	n/a	n/a	n/a	n/a	n/a
3266339	PROB	n/a	LTP261	ltpFR	8	n/a	n/a	n/a	n/a	n/a	n/a	n/a	18	9	1	8	n/a	n/a	n/a	n/a	n/a
3271460	STOP	n/a	LTP261	ltpFR	8	n/a	n/a	n/a	n/a	n/a	n/a	n/a	n/a	n/a	n/a	n/a	n/a	n/a	n/a	n/a	n/a
3272330	WORD	wordpools/wasnorm_wordpool_less_exclusions.txt	LTP261	ltpFR	8	12	1	ARTERY	41	n/a	n/a	0	n/a	0	0	0	0.57763671875	0.412841796875	1	upper	amplitud.ttf
3275343	START	n/a	LTP261	ltpFR	8	n/a	n/a	n/a	n/a	n/a	n/a	n/a	n/a	n/a	n/a	n/a	n/a	n/a	n/a	n/a	n/a
3276191	PROB	n/a	LTP261	ltpFR	8	n/a	n/a	n/a	n/a	n/a	n/a	n/a	23	9	9	5	n/a	n/a	n/a	n/a	n/a
3278455	PROB	n/a	LTP261	ltpFR	8	n/a	n/a	n/a	n/a	n/a	n/a	n/a	11	3	2	6	n/a	n/a	n/a	n/a	n/a
3283343	STOP	n/a	LTP261	ltpFR	8	n/a	n/a	n/a	n/a	n/a	n/a	n/a	n/a	n/a	n/a	n/a	n/a	n/a	n/a	n/a	n/a
3284213	WORD	wordpools/wasnorm_wordpool_less_exclusions.txt	LTP261	ltpFR	8	12	1	CHEST	295	n/a	n/a	0	n/a	0	0	0	0.57763671875	0.412841796875	1	upper	amplitud.ttf
3287225	START	n/a	LTP261	ltpFR	8	n/a	n/a	n/a	n/a	n/a	n/a	n/a	n/a	n/a	n/a	n/a	n/a	n/a	n/a	n/a	n/a
3288207	PROB	n/a	LTP261	ltpFR	8	n/a	n/a	n/a	n/a	n/a	n/a	n/a	17	4	9	4	n/a	n/a	n/a	n/a	n/a
3291169	PROB	n/a	LTP261	ltpFR	8	n/a	n/a	n/a	n/a	n/a	n/a	n/a	23	9	9	5	n/a	n/a	n/a	n/a	n/a
3293680	STOP	n/a	LTP261	ltpFR	8	n/a	n/a	n/a	n/a	n/a	n/a	n/a	n/a	n/a	n/a	n/a	n/a	n/a	n/a	n/a	n/a
3296328	WORD	wordpools/wasnorm_wordpool_less_exclusions.txt	LTP261	ltpFR	8	12	1	DRILL	497	n/a	n/a	0	n/a	0	0	0	0.57763671875	0.412841796875	1	upper	amplitud.ttf
3299341	START	n/a	LTP261	ltpFR	8	n/a	n/a	n/a	n/a	n/a	n/a	n/a	n/a	n/a	n/a	n/a	n/a	n/a	n/a	n/a	n/a
3300322	PROB	n/a	LTP261	ltpFR	8	n/a	n/a	n/a	n/a	n/a	n/a	n/a	18	7	7	4	n/a	n/a	n/a	n/a	n/a
3302019	PROB	n/a	LTP261	ltpFR	8	n/a	n/a	n/a	n/a	n/a	n/a	n/a	4	2	1	1	n/a	n/a	n/a	n/a	n/a
3303318	PROB	n/a	LTP261	ltpFR	8	n/a	n/a	n/a	n/a	n/a	n/a	n/a	10	4	4	2	n/a	n/a	n/a	n/a	n/a
3304948	PROB	n/a	LTP261	ltpFR	8	n/a	n/a	n/a	n/a	n/a	n/a	n/a	17	8	2	7	n/a	n/a	n/a	n/a	n/a
3306273	STOP	n/a	LTP261	ltpFR	8	n/a	n/a	n/a	n/a	n/a	n/a	n/a	n/a	n/a	n/a	n/a	n/a	n/a	n/a	n/a	n/a
3308427	WORD	wordpools/wasnorm_wordpool_less_exclusions.txt	LTP261	ltpFR	8	12	0	CAR	241	n/a	n/a	1	n/a	0	0	0	0.422607421875	0.5869140625	0	lower	zerothre.ttf
3311439	START	n/a	LTP261	ltpFR	8	n/a	n/a	n/a	n/a	n/a	n/a	n/a	n/a	n/a	n/a	n/a	n/a	n/a	n/a	n/a	n/a
3312254	PROB	n/a	LTP261	ltpFR	8	n/a	n/a	n/a	n/a	n/a	n/a	n/a	16	1	7	8	n/a	n/a	n/a	n/a	n/a
3314633	PROB	n/a	LTP261	ltpFR	8	n/a	n/a	n/a	n/a	n/a	n/a	n/a	23	7	7	9	n/a	n/a	n/a	n/a	n/a
3318529	STOP	n/a	LTP261	ltpFR	8	n/a	n/a	n/a	n/a	n/a	n/a	n/a	n/a	n/a	n/a	n/a	n/a	n/a	n/a	n/a	n/a
3320525	WORD	wordpools/wasnorm_wordpool_less_exclusions.txt	LTP261	ltpFR	8	12	0	COMB	351	n/a	n/a	0	n/a	0	0	0	0.422607421875	0.5869140625	0	lower	zerothre.ttf
3323537	START	n/a	LTP261	ltpFR	8	n/a	n/a	n/a	n/a	n/a	n/a	n/a	n/a	n/a	n/a	n/a	n/a	n/a	n/a	n/a	n/a
3324386	PROB	n/a	LTP261	ltpFR	8	n/a	n/a	n/a	n/a	n/a	n/a	n/a	23	8	8	7	n/a	n/a	n/a	n/a	n/a
3327348	PROB	n/a	LTP261	ltpFR	8	n/a	n/a	n/a	n/a	n/a	n/a	n/a	14	1	6	7	n/a	n/a	n/a	n/a	n/a
3331537	STOP	n/a	LTP261	ltpFR	8	n/a	n/a	n/a	n/a	n/a	n/a	n/a	n/a	n/a	n/a	n/a	n/a	n/a	n/a	n/a	n/a
3332623	WORD	wordpools/wasnorm_wordpool_less_exclusions.txt	LTP261	ltpFR	8	12	0	ITEM	746	n/a	n/a	0	n/a	0	0	0	0.422607421875	0.5869140625	0	lower	zerothre.ttf
3335635	START	n/a	LTP261	ltpFR	8	n/a	n/a	n/a	n/a	n/a	n/a	n/a	n/a	n/a	n/a	n/a	n/a	n/a	n/a	n/a	n/a
3336817	PROB	n/a	LTP261	ltpFR	8	n/a	n/a	n/a	n/a	n/a	n/a	n/a	17	7	7	3	n/a	n/a	n/a	n/a	n/a
3339963	PROB	n/a	LTP261	ltpFR	8	n/a	n/a	n/a	n/a	n/a	n/a	n/a	13	6	3	4	n/a	n/a	n/a	n/a	n/a
3342369	STOP	n/a	LTP261	ltpFR	8	n/a	n/a	n/a	n/a	n/a	n/a	n/a	n/a	n/a	n/a	n/a	n/a	n/a	n/a	n/a	n/a
3344806	WORD	wordpools/wasnorm_wordpool_less_exclusions.txt	LTP261	ltpFR	8	12	0	TRICYCLE	1506	n/a	n/a	1	n/a	0	0	0	0.422607421875	0.5869140625	0	lower	zerothre.ttf
3347818	START	n/a	LTP261	ltpFR	8	n/a	n/a	n/a	n/a	n/a	n/a	n/a	n/a	n/a	n/a	n/a	n/a	n/a	n/a	n/a	n/a
3349016	PROB	n/a	LTP261	ltpFR	8	n/a	n/a	n/a	n/a	n/a	n/a	n/a	15	5	1	9	n/a	n/a	n/a	n/a	n/a
3350980	PROB	n/a	LTP261	ltpFR	8	n/a	n/a	n/a	n/a	n/a	n/a	n/a	9	1	2	6	n/a	n/a	n/a	n/a	n/a
3353625	PROB	n/a	LTP261	ltpFR	8	n/a	n/a	n/a	n/a	n/a	n/a	n/a	13	3	3	7	n/a	n/a	n/a	n/a	n/a
3355321	STOP	n/a	LTP261	ltpFR	8	n/a	n/a	n/a	n/a	n/a	n/a	n/a	n/a	n/a	n/a	n/a	n/a	n/a	n/a	n/a	n/a
3356771	WORD	wordpools/wasnorm_wordpool_less_exclusions.txt	LTP261	ltpFR	8	12	0	SHED	1277	n/a	n/a	1	n/a	0	0	0	0.422607421875	0.5869140625	0	lower	zerothre.ttf
3359784	START	n/a	LTP261	ltpFR	8	n/a	n/a	n/a	n/a	n/a	n/a	n/a	n/a	n/a	n/a	n/a	n/a	n/a	n/a	n/a	n/a
3360915	PROB	n/a	LTP261	ltpFR	8	n/a	n/a	n/a	n/a	n/a	n/a	n/a	16	3	6	7	n/a	n/a	n/a	n/a	n/a
3362529	PROB	n/a	LTP261	ltpFR	8	n/a	n/a	n/a	n/a	n/a	n/a	n/a	19	7	6	6	n/a	n/a	n/a	n/a	n/a
3365225	PROB	n/a	LTP261	ltpFR	8	n/a	n/a	n/a	n/a	n/a	n/a	n/a	18	6	6	6	n/a	n/a	n/a	n/a	n/a
3367417	STOP	n/a	LTP261	ltpFR	8	n/a	n/a	n/a	n/a	n/a	n/a	n/a	n/a	n/a	n/a	n/a	n/a	n/a	n/a	n/a	n/a
3368669	WORD	wordpools/wasnorm_wordpool_less_exclusions.txt	LTP261	ltpFR	8	12	0	WINGS	1614	n/a	n/a	1	n/a	0	0	0	0.422607421875	0.5869140625	0	lower	zerothre.ttf
3371681	START	n/a	LTP261	ltpFR	8	n/a	n/a	n/a	n/a	n/a	n/a	n/a	n/a	n/a	n/a	n/a	n/a	n/a	n/a	n/a	n/a
3372763	PROB	n/a	LTP261	ltpFR	8	n/a	n/a	n/a	n/a	n/a	n/a	n/a	20	8	7	5	n/a	n/a	n/a	n/a	n/a
3379681	STOP	n/a	LTP261	ltpFR	8	n/a	n/a	n/a	n/a	n/a	n/a	n/a	n/a	n/a	n/a	n/a	n/a	n/a	n/a	n/a	n/a
3381567	REC_START	n/a	LTP261	ltpFR	8	12	n/a	n/a	n/a	n/a	n/a	n/a	n/a	0	0	0	n/a	n/a	n/a	n/a	n/a
3382746	REC_WORD	wordpools/wasnorm_wordpool_less_exclusions.txt	LTP261	ltpFR	8	12	0	WINGS	1614	n/a	n/a	1	n/a	0	0	0	n/a	n/a	n/a	n/a	n/a
3384624	REC_WORD	wordpools/wasnorm_wordpool_less_exclusions.txt	LTP261	ltpFR	8	12	0	ITEM	746	n/a	n/a	0	n/a	0	0	0	n/a	n/a	n/a	n/a	n/a
3389090	REC_WORD	wordpools/wasnorm_wordpool_less_exclusions.txt	LTP261	ltpFR	8	12	1	ARTERY	41	n/a	n/a	0	n/a	0	0	0	n/a	n/a	n/a	n/a	n/a
3390321	REC_WORD	wordpools/wasnorm_wordpool_less_exclusions.txt	LTP261	ltpFR	8	12	1	VEIN	1554	n/a	n/a	0	n/a	0	0	0	n/a	n/a	n/a	n/a	n/a
3398393	REC_WORD	wordpools/wasnorm_wordpool_less_exclusions.txt	LTP261	ltpFR	8	12	1	DRILL	497	n/a	n/a	0	n/a	0	0	0	n/a	n/a	n/a	n/a	n/a
3408102	REC_WORD	wordpools/wasnorm_wordpool_less_exclusions.txt	LTP261	ltpFR	8	12	0	MARINE	869	n/a	n/a	1	n/a	0	0	0	n/a	n/a	n/a	n/a	n/a
3416434	REC_WORD	wordpools/wasnorm_wordpool_less_exclusions.txt	LTP261	ltpFR	8	12	1	CROW	414	n/a	n/a	1	n/a	0	0	0	n/a	n/a	n/a	n/a	n/a
3419401	REC_WORD	wordpools/wasnorm_wordpool_less_exclusions.txt	LTP261	ltpFR	8	12	1	PASSENGER	1020	n/a	n/a	1	n/a	0	0	0	n/a	n/a	n/a	n/a	n/a
3420261	REC_WORD	wordpools/wasnorm_wordpool_less_exclusions.txt	LTP261	ltpFR	8	12	1	TAXI	1438	n/a	n/a	0	n/a	0	0	0	n/a	n/a	n/a	n/a	n/a
3435786	REC_WORD	wordpools/wasnorm_wordpool_less_exclusions.txt	LTP261	ltpFR	8	12	0	COMB	351	n/a	n/a	0	n/a	0	0	0	n/a	n/a	n/a	n/a	n/a
3439718	REC_WORD	wordpools/wasnorm_wordpool_less_exclusions.txt	LTP261	ltpFR	8	12	0	CAR	241	n/a	n/a	1	n/a	0	0	0	n/a	n/a	n/a	n/a	n/a
3490788	REC_START	n/a	LTP261	ltpFR	8	1	n/a	n/a	n/a	n/a	n/a	n/a	n/a	0	0	0	n/a	n/a	n/a	n/a	n/a
3490821	RECOG_TARGET	n/a	LTP261	ltpFR	8	1	1	RODENT	1204	1	5	1	n/a	0	0	0	n/a	n/a	n/a	n/a	n/a
3493048	RECOG_RESP	n/a	LTP261	ltpFR	8	1	1	RODENT	1204	1	n/a	1	n/a	0	0	0	n/a	n/a	n/a	n/a	n/a
3499812	RECOG_CONF	n/a	LTP261	ltpFR	8	1	1	RODENT	1204	n/a	5	1	n/a	0	0	0	n/a	n/a	n/a	n/a	n/a
3501987	RECOG_TARGET	n/a	LTP261	ltpFR	8	1	0	CATCHER	258	1	5	1	n/a	0	0	0	n/a	n/a	n/a	n/a	n/a
3502815	RECOG_RESP	n/a	LTP261	ltpFR	8	1	0	CATCHER	258	1	n/a	1	n/a	0	0	0	n/a	n/a	n/a	n/a	n/a
3504103	RECOG_CONF	n/a	LTP261	ltpFR	8	1	0	CATCHER	258	n/a	5	1	n/a	0	0	0	n/a	n/a	n/a	n/a	n/a
3505832	RECOG_TARGET	n/a	LTP261	ltpFR	8	1	0	ICING	732	1	5	0	n/a	0	0	0	n/a	n/a	n/a	n/a	n/a
3506552	RECOG_RESP	n/a	LTP261	ltpFR	8	1	0	ICING	732	1	n/a	0	n/a	0	0	0	n/a	n/a	n/a	n/a	n/a
3507704	RECOG_CONF	n/a	LTP261	ltpFR	8	1	0	ICING	732	n/a	5	0	n/a	0	0	0	n/a	n/a	n/a	n/a	n/a
3509575	RECOG_TARGET	n/a	LTP261	ltpFR	8	1	1	CANAL	226	1	5	0	n/a	0	0	0	n/a	n/a	n/a	n/a	n/a
3510184	RECOG_RESP	n/a	LTP261	ltpFR	8	1	1	CANAL	226	1	n/a	0	n/a	0	0	0	n/a	n/a	n/a	n/a	n/a
3511276	RECOG_CONF	n/a	LTP261	ltpFR	8	1	1	CANAL	226	n/a	5	0	n/a	0	0	0	n/a	n/a	n/a	n/a	n/a
3513004	RECOG_TARGET	n/a	LTP261	ltpFR	8	1	0	MARINE	869	1	5	1	n/a	0	0	0	n/a	n/a	n/a	n/a	n/a
3513641	RECOG_RESP	n/a	LTP261	ltpFR	8	1	0	MARINE	869	1	n/a	1	n/a	0	0	0	n/a	n/a	n/a	n/a	n/a
3514708	RECOG_CONF	n/a	LTP261	ltpFR	8	1	0	MARINE	869	n/a	5	1	n/a	0	0	0	n/a	n/a	n/a	n/a	n/a
3516581	RECOG_LURE	n/a	LTP261	ltpFR	8	1	n/a	DIME	466	0	5	n/a	n/a	0	0	0	n/a	n/a	n/a	n/a	n/a
3517507	RECOG_RESP	n/a	LTP261	ltpFR	8	1	n/a	DIME	466	0	n/a	n/a	n/a	0	0	0	n/a	n/a	n/a	n/a	n/a
3518600	RECOG_CONF	n/a	LTP261	ltpFR	8	1	n/a	DIME	466	n/a	5	n/a	n/a	0	0	0	n/a	n/a	n/a	n/a	n/a
3520393	RECOG_TARGET	n/a	LTP261	ltpFR	8	1	0	SCENERY	1247	1	5	1	n/a	0	0	0	n/a	n/a	n/a	n/a	n/a
3521234	RECOG_RESP	n/a	LTP261	ltpFR	8	1	0	SCENERY	1247	1	n/a	1	n/a	0	0	0	n/a	n/a	n/a	n/a	n/a
3522391	RECOG_CONF	n/a	LTP261	ltpFR	8	1	0	SCENERY	1247	n/a	5	1	n/a	0	0	0	n/a	n/a	n/a	n/a	n/a
3524138	RECOG_LURE	n/a	LTP261	ltpFR	8	1	n/a	CAVITY	264	0	5	n/a	n/a	0	0	0	n/a	n/a	n/a	n/a	n/a
3525195	RECOG_RESP	n/a	LTP261	ltpFR	8	1	n/a	CAVITY	264	0	n/a	n/a	n/a	0	0	0	n/a	n/a	n/a	n/a	n/a
3526152	RECOG_CONF	n/a	LTP261	ltpFR	8	1	n/a	CAVITY	264	n/a	5	n/a	n/a	0	0	0	n/a	n/a	n/a	n/a	n/a
3527915	RECOG_TARGET	n/a	LTP261	ltpFR	8	1	0	BROTHER	179	1	5	1	n/a	0	0	0	n/a	n/a	n/a	n/a	n/a
3528826	RECOG_RESP	n/a	LTP261	ltpFR	8	1	0	BROTHER	179	1	n/a	1	n/a	0	0	0	n/a	n/a	n/a	n/a	n/a
3529784	RECOG_CONF	n/a	LTP261	ltpFR	8	1	0	BROTHER	179	n/a	5	1	n/a	0	0	0	n/a	n/a	n/a	n/a	n/a
3531542	RECOG_TARGET	n/a	LTP261	ltpFR	8	1	1	WASHER	1592	1	4	0	n/a	0	0	0	n/a	n/a	n/a	n/a	n/a
3532548	RECOG_RESP	n/a	LTP261	ltpFR	8	1	1	WASHER	1592	1	n/a	0	n/a	0	0	0	n/a	n/a	n/a	n/a	n/a
3537088	RECOG_CONF	n/a	LTP261	ltpFR	8	1	1	WASHER	1592	n/a	4	0	n/a	0	0	0	n/a	n/a	n/a	n/a	n/a
3539132	RECOG_TARGET	n/a	LTP261	ltpFR	8	1	0	CARROT	249	1	5	0	n/a	0	0	0	n/a	n/a	n/a	n/a	n/a
3540220	RECOG_RESP	n/a	LTP261	ltpFR	8	1	0	CARROT	249	1	n/a	0	n/a	0	0	0	n/a	n/a	n/a	n/a	n/a
3541258	RECOG_CONF	n/a	LTP261	ltpFR	8	1	0	CARROT	249	n/a	5	0	n/a	0	0	0	n/a	n/a	n/a	n/a	n/a
3543010	RECOG_LURE	n/a	LTP261	ltpFR	8	1	n/a	CROWN	415	0	3	n/a	n/a	0	0	0	n/a	n/a	n/a	n/a	n/a
3544421	RECOG_RESP	n/a	LTP261	ltpFR	8	1	n/a	CROWN	415	0	n/a	n/a	n/a	0	0	0	n/a	n/a	n/a	n/a	n/a
3546207	RECOG_CONF	n/a	LTP261	ltpFR	8	1	n/a	CROWN	415	n/a	3	n/a	n/a	0	0	0	n/a	n/a	n/a	n/a	n/a
3548052	RECOG_LURE	n/a	LTP261	ltpFR	8	1	n/a	ALMOND	18	0	3	n/a	n/a	0	0	0	n/a	n/a	n/a	n/a	n/a
3550362	RECOG_RESP	n/a	LTP261	ltpFR	8	1	n/a	ALMOND	18	0	n/a	n/a	n/a	0	0	0	n/a	n/a	n/a	n/a	n/a
3551754	RECOG_CONF	n/a	LTP261	ltpFR	8	1	n/a	ALMOND	18	n/a	3	n/a	n/a	0	0	0	n/a	n/a	n/a	n/a	n/a
3553510	RECOG_LURE	n/a	LTP261	ltpFR	8	1	n/a	TOWN	1491	0	4	n/a	n/a	0	0	0	n/a	n/a	n/a	n/a	n/a
3554698	RECOG_RESP	n/a	LTP261	ltpFR	8	1	n/a	TOWN	1491	0	n/a	n/a	n/a	0	0	0	n/a	n/a	n/a	n/a	n/a
3556533	RECOG_CONF	n/a	LTP261	ltpFR	8	1	n/a	TOWN	1491	n/a	4	n/a	n/a	0	0	0	n/a	n/a	n/a	n/a	n/a
3558436	RECOG_TARGET	n/a	LTP261	ltpFR	8	1	0	PRINTER	1126	1	5	0	n/a	0	0	0	n/a	n/a	n/a	n/a	n/a
3560689	RECOG_RESP	n/a	LTP261	ltpFR	8	1	0	PRINTER	1126	1	n/a	0	n/a	0	0	0	n/a	n/a	n/a	n/a	n/a
3561612	RECOG_CONF	n/a	LTP261	ltpFR	8	1	0	PRINTER	1126	n/a	5	0	n/a	0	0	0	n/a	n/a	n/a	n/a	n/a
3563312	RECOG_TARGET	n/a	LTP261	ltpFR	8	1	1	SANDPAPER	1231	1	5	0	n/a	0	0	0	n/a	n/a	n/a	n/a	n/a
3564161	RECOG_RESP	n/a	LTP261	ltpFR	8	1	1	SANDPAPER	1231	1	n/a	0	n/a	0	0	0	n/a	n/a	n/a	n/a	n/a
3565024	RECOG_CONF	n/a	LTP261	ltpFR	8	1	1	SANDPAPER	1231	n/a	5	0	n/a	0	0	0	n/a	n/a	n/a	n/a	n/a
3566841	RECOG_LURE	n/a	LTP261	ltpFR	8	1	n/a	LID	817	0	5	n/a	n/a	0	0	0	n/a	n/a	n/a	n/a	n/a
3567738	RECOG_RESP	n/a	LTP261	ltpFR	8	1	n/a	LID	817	0	n/a	n/a	n/a	0	0	0	n/a	n/a	n/a	n/a	n/a
3568616	RECOG_CONF	n/a	LTP261	ltpFR	8	1	n/a	LID	817	n/a	5	n/a	n/a	0	0	0	n/a	n/a	n/a	n/a	n/a
3570369	RECOG_TARGET	n/a	LTP261	ltpFR	8	1	1	MAYONNAISE	880	1	5	0	n/a	0	0	0	n/a	n/a	n/a	n/a	n/a
3571215	RECOG_RESP_VV	n/a	LTP261	ltpFR	8	1	1	MAYONNAISE	880	1	n/a	0	n/a	0	0	0	n/a	n/a	n/a	n/a	n/a
3572068	RECOG_CONF	n/a	LTP261	ltpFR	8	1	1	MAYONNAISE	880	n/a	5	0	n/a	0	0	0	n/a	n/a	n/a	n/a	n/a
3572856	RECOG_RESP	n/a	LTP261	ltpFR	8	1	1	MAYONNAISE	880	1	n/a	0	n/a	0	0	0	n/a	n/a	n/a	n/a	n/a
3573813	RECOG_TARGET	n/a	LTP261	ltpFR	8	1	1	RASPBERRY	1168	1	5	0	n/a	0	0	0	n/a	n/a	n/a	n/a	n/a
3574567	RECOG_RESP	n/a	LTP261	ltpFR	8	1	1	RASPBERRY	1168	1	n/a	0	n/a	0	0	0	n/a	n/a	n/a	n/a	n/a
3575460	RECOG_CONF	n/a	LTP261	ltpFR	8	1	1	RASPBERRY	1168	n/a	5	0	n/a	0	0	0	n/a	n/a	n/a	n/a	n/a
3577208	RECOG_TARGET	n/a	LTP261	ltpFR	8	1	1	DISC	473	1	5	0	n/a	0	0	0	n/a	n/a	n/a	n/a	n/a
3578020	RECOG_RESP	n/a	LTP261	ltpFR	8	1	1	DISC	473	1	n/a	0	n/a	0	0	0	n/a	n/a	n/a	n/a	n/a
3578962	RECOG_CONF	n/a	LTP261	ltpFR	8	1	1	DISC	473	n/a	5	0	n/a	0	0	0	n/a	n/a	n/a	n/a	n/a
3584170	REC_START	n/a	LTP261	ltpFR	8	2	n/a	n/a	n/a	n/a	n/a	n/a	n/a	0	0	0	n/a	n/a	n/a	n/a	n/a
3584198	RECOG_TARGET	n/a	LTP261	ltpFR	8	2	1	SUBMARINE	1398	1	5	0	n/a	0	0	0	n/a	n/a	n/a	n/a	n/a
3584998	RECOG_RESP	n/a	LTP261	ltpFR	8	2	1	SUBMARINE	1398	1	n/a	0	n/a	0	0	0	n/a	n/a	n/a	n/a	n/a
3585961	RECOG_CONF	n/a	LTP261	ltpFR	8	2	1	SUBMARINE	1398	n/a	5	0	n/a	0	0	0	n/a	n/a	n/a	n/a	n/a
3587826	RECOG_LURE	n/a	LTP261	ltpFR	8	2	n/a	POET	1095	0	5	n/a	n/a	0	0	0	n/a	n/a	n/a	n/a	n/a
3588784	RECOG_RESP	n/a	LTP261	ltpFR	8	2	n/a	POET	1095	0	n/a	n/a	n/a	0	0	0	n/a	n/a	n/a	n/a	n/a
3589692	RECOG_CONF	n/a	LTP261	ltpFR	8	2	n/a	POET	1095	n/a	5	n/a	n/a	0	0	0	n/a	n/a	n/a	n/a	n/a
3591354	RECOG_LURE	n/a	LTP261	ltpFR	8	2	n/a	CUE	422	0	5	n/a	n/a	0	0	0	n/a	n/a	n/a	n/a	n/a
3593543	RECOG_RESP	n/a	LTP261	ltpFR	8	2	n/a	CUE	422	0	n/a	n/a	n/a	0	0	0	n/a	n/a	n/a	n/a	n/a
3594441	RECOG_CONF	n/a	LTP261	ltpFR	8	2	n/a	CUE	422	n/a	5	n/a	n/a	0	0	0	n/a	n/a	n/a	n/a	n/a
3596130	RECOG_TARGET	n/a	LTP261	ltpFR	8	2	0	PARSLEY	1016	1	5	0	n/a	0	0	0	n/a	n/a	n/a	n/a	n/a
3597095	RECOG_RESP	n/a	LTP261	ltpFR	8	2	0	PARSLEY	1016	1	n/a	0	n/a	0	0	0	n/a	n/a	n/a	n/a	n/a
3598073	RECOG_CONF	n/a	LTP261	ltpFR	8	2	0	PARSLEY	1016	n/a	5	0	n/a	0	0	0	n/a	n/a	n/a	n/a	n/a
3599908	RECOG_TARGET	n/a	LTP261	ltpFR	8	2	1	PECAN	1036	1	5	0	n/a	0	0	0	n/a	n/a	n/a	n/a	n/a
3600667	RECOG_RESP	n/a	LTP261	ltpFR	8	2	1	PECAN	1036	1	n/a	0	n/a	0	0	0	n/a	n/a	n/a	n/a	n/a
3601675	RECOG_CONF	n/a	LTP261	ltpFR	8	2	1	PECAN	1036	n/a	5	0	n/a	0	0	0	n/a	n/a	n/a	n/a	n/a
3603436	RECOG_TARGET	n/a	LTP261	ltpFR	8	2	0	ICE	730	1	5	0	n/a	0	0	0	n/a	n/a	n/a	n/a	n/a
