mstime	trial_type	stim_file	subject	experiment	session	trial	item_name	item_num	list	answer	test_x	test_y	test_z
0	SESS_START	n/a	LTP344	ltpFR2	21	n/a	n/a	n/a	n/a	n/a	0	0	0
24259	START	n/a	LTP344	ltpFR2	21	n/a	n/a	n/a	-1	n/a	n/a	n/a	n/a
24290	PROB	n/a	LTP344	ltpFR2	21	n/a	n/a	n/a	-1	15	8	5	2
25921	PROB	n/a	LTP344	ltpFR2	21	n/a	n/a	n/a	-1	10	3	4	3
27487	PROB	n/a	LTP344	ltpFR2	21	n/a	n/a	n/a	-1	20	7	8	5
29769	PROB	n/a	LTP344	ltpFR2	21	n/a	n/a	n/a	-1	17	8	3	6
31220	PROB	n/a	LTP344	ltpFR2	21	n/a	n/a	n/a	-1	19	7	5	7
32601	PROB	n/a	LTP344	ltpFR2	21	n/a	n/a	n/a	-1	12	3	3	6
33651	PROB	n/a	LTP344	ltpFR2	21	n/a	n/a	n/a	-1	10	4	3	3
34847	STOP	n/a	LTP344	ltpFR2	21	n/a	n/a	n/a	-1	n/a	n/a	n/a	n/a
90293	DISTRACTOR	n/a	LTP344	ltpFR2	21	1	n/a	n/a	n/a	n/a	0	0	0
90293	START	n/a	LTP344	ltpFR2	21	n/a	n/a	n/a	1	n/a	n/a	n/a	n/a
90309	PROB	n/a	LTP344	ltpFR2	21	n/a	n/a	n/a	1	9	1	3	5
92957	PROB	n/a	LTP344	ltpFR2	21	n/a	n/a	n/a	1	15	1	9	5
94041	PROB	n/a	LTP344	ltpFR2	21	n/a	n/a	n/a	1	11	1	2	8
95107	PROB	n/a	LTP344	ltpFR2	21	n/a	n/a	n/a	1	16	2	5	9
96489	PROB	n/a	LTP344	ltpFR2	21	n/a	n/a	n/a	1	19	8	3	8
98439	PROB	n/a	LTP344	ltpFR2	21	n/a	n/a	n/a	1	20	8	6	6
99504	PROB	n/a	LTP344	ltpFR2	21	n/a	n/a	n/a	1	17	5	4	8
101088	PROB	n/a	LTP344	ltpFR2	21	n/a	n/a	n/a	1	8	2	5	1
102071	PROB	n/a	LTP344	ltpFR2	21	n/a	n/a	n/a	1	17	4	8	5
103354	PROB	n/a	LTP344	ltpFR2	21	n/a	n/a	n/a	1	12	4	5	3
105219	PROB	n/a	LTP344	ltpFR2	21	n/a	n/a	n/a	1	15	8	4	3
106451	PROB	n/a	LTP344	ltpFR2	21	n/a	n/a	n/a	1	12	2	2	8
107435	PROB	n/a	LTP344	ltpFR2	21	n/a	n/a	n/a	1	16	4	6	6
109168	PROB	n/a	LTP344	ltpFR2	21	n/a	n/a	n/a	1	19	2	9	8
110599	PROB	n/a	LTP344	ltpFR2	21	n/a	n/a	n/a	1	17	2	9	6
112050	PROB	n/a	LTP344	ltpFR2	21	n/a	n/a	n/a	1	17	2	6	9
113953	STOP	n/a	LTP344	ltpFR2	21	n/a	n/a	n/a	1	n/a	n/a	n/a	n/a
115198	WORD	wordpools/wasnorm_wordpool_576.txt	LTP344	ltpFR2	21	1	SNAIL	1332	n/a	n/a	0	0	0
117763	WORD	wordpools/wasnorm_wordpool_576.txt	LTP344	ltpFR2	21	1	DIVER	476	n/a	n/a	0	0	0
120346	WORD	wordpools/wasnorm_wordpool_576.txt	LTP344	ltpFR2	21	1	FIREMAN	569	n/a	n/a	0	0	0
123128	WORD	wordpools/wasnorm_wordpool_576.txt	LTP344	ltpFR2	21	1	VELVET	1555	n/a	n/a	0	0	0
125659	WORD	wordpools/wasnorm_wordpool_576.txt	LTP344	ltpFR2	21	1	SILK	1307	n/a	n/a	0	0	0
128109	WORD	wordpools/wasnorm_wordpool_576.txt	LTP344	ltpFR2	21	1	OZONE	996	n/a	n/a	0	0	0
130873	WORD	wordpools/wasnorm_wordpool_576.txt	LTP344	ltpFR2	21	1	BALLOON	75	n/a	n/a	0	0	0
133656	WORD	wordpools/wasnorm_wordpool_576.txt	LTP344	ltpFR2	21	1	XEROX	1628	n/a	n/a	0	0	0
136272	WORD	wordpools/wasnorm_wordpool_576.txt	LTP344	ltpFR2	21	1	PEBBLE	1035	n/a	n/a	0	0	0
138737	WORD	wordpools/wasnorm_wordpool_576.txt	LTP344	ltpFR2	21	1	DANDRUFF	439	n/a	n/a	0	0	0
141552	WORD	wordpools/wasnorm_wordpool_576.txt	LTP344	ltpFR2	21	1	NECKLACE	940	n/a	n/a	0	0	0
144135	WORD	wordpools/wasnorm_wordpool_576.txt	LTP344	ltpFR2	21	1	WRIST	1626	n/a	n/a	0	0	0
146816	WORD	wordpools/wasnorm_wordpool_576.txt	LTP344	ltpFR2	21	1	STAMP	1370	n/a	n/a	0	0	0
149465	WORD	wordpools/wasnorm_wordpool_576.txt	LTP344	ltpFR2	21	1	CLOTHES	327	n/a	n/a	0	0	0
151931	WORD	wordpools/wasnorm_wordpool_576.txt	LTP344	ltpFR2	21	1	RADISH	1158	n/a	n/a	0	0	0
154613	WORD	wordpools/wasnorm_wordpool_576.txt	LTP344	ltpFR2	21	1	TOASTER	1472	n/a	n/a	0	0	0
157329	WORD	wordpools/wasnorm_wordpool_576.txt	LTP344	ltpFR2	21	1	FLOWER	584	n/a	n/a	0	0	0
159977	WORD	wordpools/wasnorm_wordpool_576.txt	LTP344	ltpFR2	21	1	BARREL	91	n/a	n/a	0	0	0
162459	WORD	wordpools/wasnorm_wordpool_576.txt	LTP344	ltpFR2	21	1	COIN	343	n/a	n/a	0	0	0
164975	WORD	wordpools/wasnorm_wordpool_576.txt	LTP344	ltpFR2	21	1	COSTUME	383	n/a	n/a	0	0	0
167673	WORD	wordpools/wasnorm_wordpool_576.txt	LTP344	ltpFR2	21	1	BATHTUB	100	n/a	n/a	0	0	0
170440	WORD	wordpools/wasnorm_wordpool_576.txt	LTP344	ltpFR2	21	1	GIRL	637	n/a	n/a	0	0	0
173255	WORD	wordpools/wasnorm_wordpool_576.txt	LTP344	ltpFR2	21	1	CABIN	211	n/a	n/a	0	0	0
175703	WORD	wordpools/wasnorm_wordpool_576.txt	LTP344	ltpFR2	21	1	STONE	1385	n/a	n/a	0	0	0
177320	START	n/a	LTP344	ltpFR2	21	n/a	n/a	n/a	2	n/a	n/a	n/a	n/a
178205	DISTRACTOR	n/a	LTP344	ltpFR2	21	1	n/a	n/a	n/a	n/a	0	0	0
178220	PROB	n/a	LTP344	ltpFR2	21	n/a	n/a	n/a	2	23	9	5	9
180369	PROB	n/a	LTP344	ltpFR2	21	n/a	n/a	n/a	2	9	2	3	4
182883	PROB	n/a	LTP344	ltpFR2	21	n/a	n/a	n/a	2	7	1	3	3
184034	PROB	n/a	LTP344	ltpFR2	21	n/a	n/a	n/a	2	17	3	7	7
185599	PROB	n/a	LTP344	ltpFR2	21	n/a	n/a	n/a	2	22	6	7	9
187664	PROB	n/a	LTP344	ltpFR2	21	n/a	n/a	n/a	2	14	3	2	9
189131	PROB	n/a	LTP344	ltpFR2	21	n/a	n/a	n/a	2	19	9	5	5
190348	PROB	n/a	LTP344	ltpFR2	21	n/a	n/a	n/a	2	10	1	4	5
191397	PROB	n/a	LTP344	ltpFR2	21	n/a	n/a	n/a	2	13	2	3	8
192612	PROB	n/a	LTP344	ltpFR2	21	n/a	n/a	n/a	2	19	4	7	8
194528	PROB	n/a	LTP344	ltpFR2	21	n/a	n/a	n/a	2	22	6	9	7
196211	PROB	n/a	LTP344	ltpFR2	21	n/a	n/a	n/a	2	17	3	9	5
197976	PROB	n/a	LTP344	ltpFR2	21	n/a	n/a	n/a	2	5	1	3	1
198859	PROB	n/a	LTP344	ltpFR2	21	n/a	n/a	n/a	2	19	8	8	3
200061	STOP	n/a	LTP344	ltpFR2	21	n/a	n/a	n/a	2	n/a	n/a	n/a	n/a
203242	REC_START	n/a	LTP344	ltpFR2	21	1	n/a	n/a	n/a	n/a	0	0	0
203571	REC_WORD	wordpools/wasnorm_wordpool_576.txt	LTP344	ltpFR2	21	1	STONE	1385	n/a	n/a	0	0	0
204721	REC_WORD	wordpools/wasnorm_wordpool_576.txt	LTP344	ltpFR2	21	1	WRIST	1626	n/a	n/a	0	0	0
206370	REC_WORD	wordpools/wasnorm_wordpool_576.txt	LTP344	ltpFR2	21	1	CABIN	211	n/a	n/a	0	0	0
207436	REC_WORD	wordpools/wasnorm_wordpool_576.txt	LTP344	ltpFR2	21	1	NECKLACE	940	n/a	n/a	0	0	0
209297	REC_WORD	wordpools/wasnorm_wordpool_576.txt	LTP344	ltpFR2	21	1	PEBBLE	1035	n/a	n/a	0	0	0
211796	REC_WORD	wordpools/wasnorm_wordpool_576.txt	LTP344	ltpFR2	21	1	BATHTUB	100	n/a	n/a	0	0	0
217359	REC_WORD	wordpools/wasnorm_wordpool_576.txt	LTP344	ltpFR2	21	1	DANDRUFF	439	n/a	n/a	0	0	0
219037	REC_WORD	wordpools/wasnorm_wordpool_576.txt	LTP344	ltpFR2	21	1	GIRL	637	n/a	n/a	0	0	0
233928	REC_WORD	wordpools/wasnorm_wordpool_576.txt	LTP344	ltpFR2	21	1	XEROX	1628	n/a	n/a	0	0	0
235239	REC_WORD	wordpools/wasnorm_wordpool_576.txt	LTP344	ltpFR2	21	1	FIREMAN	569	n/a	n/a	0	0	0
237783	REC_WORD	wordpools/wasnorm_wordpool_576.txt	LTP344	ltpFR2	21	1	COIN	343	n/a	n/a	0	0	0
293716	DISTRACTOR	n/a	LTP344	ltpFR2	21	2	n/a	n/a	n/a	n/a	0	0	0
293716	START	n/a	LTP344	ltpFR2	21	n/a	n/a	n/a	3	n/a	n/a	n/a	n/a
293733	PROB	n/a	LTP344	ltpFR2	21	n/a	n/a	n/a	3	21	8	9	4
295949	PROB	n/a	LTP344	ltpFR2	21	n/a	n/a	n/a	3	13	1	6	6
297199	PROB	n/a	LTP344	ltpFR2	21	n/a	n/a	n/a	3	9	1	2	6
298514	PROB	n/a	LTP344	ltpFR2	21	n/a	n/a	n/a	3	21	9	3	9
299747	PROB	n/a	LTP344	ltpFR2	21	n/a	n/a	n/a	3	10	3	6	1
301131	PROB	n/a	LTP344	ltpFR2	21	n/a	n/a	n/a	3	22	9	6	7
303612	PROB	n/a	LTP344	ltpFR2	21	n/a	n/a	n/a	3	16	2	8	6
304728	PROB	n/a	LTP344	ltpFR2	21	n/a	n/a	n/a	3	14	5	5	4
305877	PROB	n/a	LTP344	ltpFR2	21	n/a	n/a	n/a	3	10	3	4	3
307261	PROB	n/a	LTP344	ltpFR2	21	n/a	n/a	n/a	3	15	2	5	8
308443	PROB	n/a	LTP344	ltpFR2	21	n/a	n/a	n/a	3	10	1	6	3
310093	PROB	n/a	LTP344	ltpFR2	21	n/a	n/a	n/a	3	9	1	6	2
311492	PROB	n/a	LTP344	ltpFR2	21	n/a	n/a	n/a	3	17	7	8	2
313092	PROB	n/a	LTP344	ltpFR2	21	n/a	n/a	n/a	3	15	6	5	4
315023	PROB	n/a	LTP344	ltpFR2	21	n/a	n/a	n/a	3	20	8	9	3
316519	STOP	n/a	LTP344	ltpFR2	21	n/a	n/a	n/a	3	n/a	n/a	n/a	n/a
318905	WORD	wordpools/wasnorm_wordpool_576.txt	LTP344	ltpFR2	21	2	ROD	1203	n/a	n/a	0	0	0
321654	WORD	wordpools/wasnorm_wordpool_576.txt	LTP344	ltpFR2	21	2	GAVEL	627	n/a	n/a	0	0	0
324387	WORD	wordpools/wasnorm_wordpool_576.txt	LTP344	ltpFR2	21	2	BRIEFCASE	175	n/a	n/a	0	0	0
327018	WORD	wordpools/wasnorm_wordpool_576.txt	LTP344	ltpFR2	21	2	BULLET	194	n/a	n/a	0	0	0
329650	WORD	wordpools/wasnorm_wordpool_576.txt	LTP344	ltpFR2	21	2	RIFLE	1192	n/a	n/a	0	0	0
332250	WORD	wordpools/wasnorm_wordpool_576.txt	LTP344	ltpFR2	21	2	FRIAR	605	n/a	n/a	0	0	0
334948	WORD	wordpools/wasnorm_wordpool_576.txt	LTP344	ltpFR2	21	2	CITRUS	313	n/a	n/a	0	0	0
337596	WORD	wordpools/wasnorm_wordpool_576.txt	LTP344	ltpFR2	21	2	CARROT	249	n/a	n/a	0	0	0
340029	WORD	wordpools/wasnorm_wordpool_576.txt	LTP344	ltpFR2	21	2	MARSH	874	n/a	n/a	0	0	0
342477	WORD	wordpools/wasnorm_wordpool_576.txt	LTP344	ltpFR2	21	2	CLIMBER	323	n/a	n/a	0	0	0
345127	WORD	wordpools/wasnorm_wordpool_576.txt	LTP344	ltpFR2	21	2	SANDWICH	1232	n/a	n/a	0	0	0
347908	WORD	wordpools/wasnorm_wordpool_576.txt	LTP344	ltpFR2	21	2	CONTRACT	368	n/a	n/a	0	0	0
350574	WORD	wordpools/wasnorm_wordpool_576.txt	LTP344	ltpFR2	21	2	WASHER	1592	n/a	n/a	0	0	0
353090	WORD	wordpools/wasnorm_wordpool_576.txt	LTP344	ltpFR2	21	2	COUSIN	392	n/a	n/a	0	0	0
355905	WORD	wordpools/wasnorm_wordpool_576.txt	LTP344	ltpFR2	21	2	EGYPT	519	n/a	n/a	0	0	0
358520	WORD	wordpools/wasnorm_wordpool_576.txt	LTP344	ltpFR2	21	2	PREACHER	1119	n/a	n/a	0	0	0
361203	WORD	wordpools/wasnorm_wordpool_576.txt	LTP344	ltpFR2	21	2	LEADER	807	n/a	n/a	0	0	0
364018	WORD	wordpools/wasnorm_wordpool_576.txt	LTP344	ltpFR2	21	2	ULCER	1533	n/a	n/a	0	0	0
366750	WORD	wordpools/wasnorm_wordpool_576.txt	LTP344	ltpFR2	21	2	PECAN	1036	n/a	n/a	0	0	0
369200	WORD	wordpools/wasnorm_wordpool_576.txt	LTP344	ltpFR2	21	2	BRACES	164	n/a	n/a	0	0	0
371681	WORD	wordpools/wasnorm_wordpool_576.txt	LTP344	ltpFR2	21	2	SUMMIT	1405	n/a	n/a	0	0	0
374381	WORD	wordpools/wasnorm_wordpool_576.txt	LTP344	ltpFR2	21	2	SEAL	1262	n/a	n/a	0	0	0
376879	WORD	wordpools/wasnorm_wordpool_576.txt	LTP344	ltpFR2	21	2	GHETTO	633	n/a	n/a	0	0	0
379661	WORD	wordpools/wasnorm_wordpool_576.txt	LTP344	ltpFR2	21	2	TART	1436	n/a	n/a	0	0	0
381278	START	n/a	LTP344	ltpFR2	21	n/a	n/a	n/a	4	n/a	n/a	n/a	n/a
382360	DISTRACTOR	n/a	LTP344	ltpFR2	21	2	n/a	n/a	n/a	n/a	0	0	0
382377	PROB	n/a	LTP344	ltpFR2	21	n/a	n/a	n/a	4	10	5	3	2
384176	PROB	n/a	LTP344	ltpFR2	21	n/a	n/a	n/a	4	17	3	5	9
385708	PROB	n/a	LTP344	ltpFR2	21	n/a	n/a	n/a	4	5	3	1	1
386574	PROB	n/a	LTP344	ltpFR2	21	n/a	n/a	n/a	4	16	5	6	5
387740	PROB	n/a	LTP344	ltpFR2	21	n/a	n/a	n/a	4	13	7	1	5
389207	PROB	n/a	LTP344	ltpFR2	21	n/a	n/a	n/a	4	17	9	2	6
390972	PROB	n/a	LTP344	ltpFR2	21	n/a	n/a	n/a	4	18	6	4	8
392106	PROB	n/a	LTP344	ltpFR2	21	n/a	n/a	n/a	4	9	3	4	2
394422	PROB	n/a	LTP344	ltpFR2	21	n/a	n/a	n/a	4	6	4	1	1
395338	PROB	n/a	LTP344	ltpFR2	21	n/a	n/a	n/a	4	21	6	9	6
397337	PROB	n/a	LTP344	ltpFR2	21	n/a	n/a	n/a	4	17	5	5	7
398918	PROB	n/a	LTP344	ltpFR2	21	n/a	n/a	n/a	4	22	9	7	6
401368	PROB	n/a	LTP344	ltpFR2	21	n/a	n/a	n/a	4	10	5	2	3
405277	STOP	n/a	LTP344	ltpFR2	21	n/a	n/a	n/a	4	n/a	n/a	n/a	n/a
407033	REC_START	n/a	LTP344	ltpFR2	21	2	n/a	n/a	n/a	n/a	0	0	0
408252	REC_WORD	wordpools/wasnorm_wordpool_576.txt	LTP344	ltpFR2	21	2	BRACES	164	n/a	n/a	0	0	0
409195	REC_WORD	wordpools/wasnorm_wordpool_576.txt	LTP344	ltpFR2	21	2	GHETTO	633	n/a	n/a	0	0	0
410276	REC_WORD	wordpools/wasnorm_wordpool_576.txt	LTP344	ltpFR2	21	2	PECAN	1036	n/a	n/a	0	0	0
411242	REC_WORD	wordpools/wasnorm_wordpool_576.txt	LTP344	ltpFR2	21	2	SEAL	1262	n/a	n/a	0	0	0
411882	REC_WORD	wordpools/wasnorm_wordpool_576.txt	LTP344	ltpFR2	21	2	CITRUS	313	n/a	n/a	0	0	0
412619	REC_WORD	wordpools/wasnorm_wordpool_576.txt	LTP344	ltpFR2	21	2	CARROT	249	n/a	n/a	0	0	0
413501	REC_WORD	wordpools/wasnorm_wordpool_576.txt	LTP344	ltpFR2	21	2	MARSH	874	n/a	n/a	0	0	0
418434	REC_WORD	wordpools/wasnorm_wordpool_576.txt	LTP344	ltpFR2	21	2	BRIEFCASE	175	n/a	n/a	0	0	0
419555	REC_WORD	wordpools/wasnorm_wordpool_576.txt	LTP344	ltpFR2	21	2	BULLET	194	n/a	n/a	0	0	0
420330	REC_WORD	wordpools/wasnorm_wordpool_576.txt	LTP344	ltpFR2	21	2	ROD	1203	n/a	n/a	0	0	0
421110	REC_WORD	wordpools/wasnorm_wordpool_576.txt	LTP344	ltpFR2	21	2	RIFLE	1192	n/a	n/a	0	0	0
421773	REC_WORD	wordpools/wasnorm_wordpool_576.txt	LTP344	ltpFR2	21	2	GAVEL	627	n/a	n/a	0	0	0
497474	WORD	wordpools/wasnorm_wordpool_576.txt	LTP344	ltpFR2	21	3	CREATURE	403	n/a	n/a	0	0	0
500107	WORD	wordpools/wasnorm_wordpool_576.txt	LTP344	ltpFR2	21	3	BOUQUET	157	n/a	n/a	0	0	0
502905	WORD	wordpools/wasnorm_wordpool_576.txt	LTP344	ltpFR2	21	3	GARLIC	624	n/a	n/a	0	0	0
505355	WORD	wordpools/wasnorm_wordpool_576.txt	LTP344	ltpFR2	21	3	DUST	508	n/a	n/a	0	0	0
508170	WORD	wordpools/wasnorm_wordpool_576.txt	LTP344	ltpFR2	21	3	CATCHER	258	n/a	n/a	0	0	0
510984	WORD	wordpools/wasnorm_wordpool_576.txt	LTP344	ltpFR2	21	3	UMPIRE	1535	n/a	n/a	0	0	0
513716	WORD	wordpools/wasnorm_wordpool_576.txt	LTP344	ltpFR2	21	3	TROMBONE	1508	n/a	n/a	0	0	0
516400	WORD	wordpools/wasnorm_wordpool_576.txt	LTP344	ltpFR2	21	3	WHISTLE	1606	n/a	n/a	0	0	0
519182	WORD	wordpools/wasnorm_wordpool_576.txt	LTP344	ltpFR2	21	3	VIRUS	1572	n/a	n/a	0	0	0
521913	WORD	wordpools/wasnorm_wordpool_576.txt	LTP344	ltpFR2	21	3	FRECKLE	602	n/a	n/a	0	0	0
524645	WORD	wordpools/wasnorm_wordpool_576.txt	LTP344	ltpFR2	21	3	NOVEL	960	n/a	n/a	0	0	0
527411	WORD	wordpools/wasnorm_wordpool_576.txt	LTP344	ltpFR2	21	3	MAMMAL	861	n/a	n/a	0	0	0
529992	WORD	wordpools/wasnorm_wordpool_576.txt	LTP344	ltpFR2	21	3	BOYFRIEND	162	n/a	n/a	0	0	0
532641	WORD	wordpools/wasnorm_wordpool_576.txt	LTP344	ltpFR2	21	3	MARINE	869	n/a	n/a	0	0	0
535391	WORD	wordpools/wasnorm_wordpool_576.txt	LTP344	ltpFR2	21	3	PADDLE	1000	n/a	n/a	0	0	0
538190	WORD	wordpools/wasnorm_wordpool_576.txt	LTP344	ltpFR2	21	3	JOURNAL	760	n/a	n/a	0	0	0
540654	WORD	wordpools/wasnorm_wordpool_576.txt	LTP344	ltpFR2	21	3	SWITCH	1422	n/a	n/a	0	0	0
543121	WORD	wordpools/wasnorm_wordpool_576.txt	LTP344	ltpFR2	21	3	MISSILE	900	n/a	n/a	0	0	0
545585	WORD	wordpools/wasnorm_wordpool_576.txt	LTP344	ltpFR2	21	3	CRICKET	408	n/a	n/a	0	0	0
548119	WORD	wordpools/wasnorm_wordpool_576.txt	LTP344	ltpFR2	21	3	SAUSAGE	1238	n/a	n/a	0	0	0
550683	WORD	wordpools/wasnorm_wordpool_576.txt	LTP344	ltpFR2	21	3	ORCHID	982	n/a	n/a	0	0	0
553416	WORD	wordpools/wasnorm_wordpool_576.txt	LTP344	ltpFR2	21	3	PERFUME	1049	n/a	n/a	0	0	0
556048	WORD	wordpools/wasnorm_wordpool_576.txt	LTP344	ltpFR2	21	3	PIMPLE	1071	n/a	n/a	0	0	0
558846	WORD	wordpools/wasnorm_wordpool_576.txt	LTP344	ltpFR2	21	3	WIFE	1609	n/a	n/a	0	0	0
560462	START	n/a	LTP344	ltpFR2	21	n/a	n/a	n/a	5	n/a	n/a	n/a	n/a
561524	DISTRACTOR	n/a	LTP344	ltpFR2	21	3	n/a	n/a	n/a	n/a	0	0	0
561528	PROB	n/a	LTP344	ltpFR2	21	n/a	n/a	n/a	5	16	7	8	1
562894	PROB	n/a	LTP344	ltpFR2	21	n/a	n/a	n/a	5	13	5	1	7
564211	PROB	n/a	LTP344	ltpFR2	21	n/a	n/a	n/a	5	15	6	8	1
565876	PROB	n/a	LTP344	ltpFR2	21	n/a	n/a	n/a	5	18	9	2	7
567542	PROB	n/a	LTP344	ltpFR2	21	n/a	n/a	n/a	5	10	6	2	2
568675	PROB	n/a	LTP344	ltpFR2	21	n/a	n/a	n/a	5	25	8	8	9
570557	PROB	n/a	LTP344	ltpFR2	21	n/a	n/a	n/a	5	11	5	4	2
572023	PROB	n/a	LTP344	ltpFR2	21	n/a	n/a	n/a	5	21	4	8	9
574190	PROB	n/a	LTP344	ltpFR2	21	n/a	n/a	n/a	5	16	9	2	5
575572	PROB	n/a	LTP344	ltpFR2	21	n/a	n/a	n/a	5	12	5	6	1
576671	PROB	n/a	LTP344	ltpFR2	21	n/a	n/a	n/a	5	8	1	3	4
577987	PROB	n/a	LTP344	ltpFR2	21	n/a	n/a	n/a	5	12	8	2	2
579088	PROB	n/a	LTP344	ltpFR2	21	n/a	n/a	n/a	5	11	3	4	4
580486	PROB	n/a	LTP344	ltpFR2	21	n/a	n/a	n/a	5	22	8	6	8
582087	PROB	n/a	LTP344	ltpFR2	21	n/a	n/a	n/a	5	17	3	8	6
584289	STOP	n/a	LTP344	ltpFR2	21	n/a	n/a	n/a	5	n/a	n/a	n/a	n/a
586335	REC_START	n/a	LTP344	ltpFR2	21	3	n/a	n/a	n/a	n/a	0	0	0
587174	REC_WORD	wordpools/wasnorm_wordpool_576.txt	LTP344	ltpFR2	21	3	ORCHID	982	n/a	n/a	0	0	0
587873	REC_WORD	wordpools/wasnorm_wordpool_576.txt	LTP344	ltpFR2	21	3	PERFUME	1049	n/a	n/a	0	0	0
589408	REC_WORD	wordpools/wasnorm_wordpool_576.txt	LTP344	ltpFR2	21	3	PIMPLE	1071	n/a	n/a	0	0	0
590321	REC_WORD	wordpools/wasnorm_wordpool_576.txt	LTP344	ltpFR2	21	3	WIFE	1609	n/a	n/a	0	0	0
591298	REC_WORD	wordpools/wasnorm_wordpool_576.txt	LTP344	ltpFR2	21	3	GARLIC	624	n/a	n/a	0	0	0
593793	REC_WORD	wordpools/wasnorm_wordpool_576.txt	LTP344	ltpFR2	21	3	CREATURE	403	n/a	n/a	0	0	0
595029	REC_WORD	wordpools/wasnorm_wordpool_576.txt	LTP344	ltpFR2	21	3	BOUQUET	157	n/a	n/a	0	0	0
598538	REC_WORD	wordpools/wasnorm_wordpool_576.txt	LTP344	ltpFR2	21	3	WHISTLE	1606	n/a	n/a	0	0	0
603692	REC_WORD	wordpools/wasnorm_wordpool_576.txt	LTP344	ltpFR2	21	3	UMPIRE	1535	n/a	n/a	0	0	0
605170	REC_WORD	wordpools/wasnorm_wordpool_576.txt	LTP344	ltpFR2	21	3	CATCHER	258	n/a	n/a	0	0	0
676776	WORD	wordpools/wasnorm_wordpool_576.txt	LTP344	ltpFR2	21	4	INFANT	737	n/a	n/a	0	0	0
679491	WORD	wordpools/wasnorm_wordpool_576.txt	LTP344	ltpFR2	21	4	BABY	64	n/a	n/a	0	0	0
682241	WORD	wordpools/wasnorm_wordpool_576.txt	LTP344	ltpFR2	21	4	QUAIL	1147	n/a	n/a	0	0	0
684672	WORD	wordpools/wasnorm_wordpool_576.txt	LTP344	ltpFR2	21	4	OFFICE	972	n/a	n/a	0	0	0
687471	WORD	wordpools/wasnorm_wordpool_576.txt	LTP344	ltpFR2	21	4	REPORT	1184	n/a	n/a	0	0	0
689920	WORD	wordpools/wasnorm_wordpool_576.txt	LTP344	ltpFR2	21	4	SERVANT	1271	n/a	n/a	0	0	0
692685	WORD	wordpools/wasnorm_wordpool_576.txt	LTP344	ltpFR2	21	4	WRENCH	1625	n/a	n/a	0	0	0
695219	WORD	wordpools/wasnorm_wordpool_576.txt	LTP344	ltpFR2	21	4	ACTRESS	6	n/a	n/a	0	0	0
697666	WORD	wordpools/wasnorm_wordpool_576.txt	LTP344	ltpFR2	21	4	TYPIST	1532	n/a	n/a	0	0	0
700482	WORD	wordpools/wasnorm_wordpool_576.txt	LTP344	ltpFR2	21	4	TABLE	1426	n/a	n/a	0	0	0
702947	WORD	wordpools/wasnorm_wordpool_576.txt	LTP344	ltpFR2	21	4	VALVE	1546	n/a	n/a	0	0	0
705397	WORD	wordpools/wasnorm_wordpool_576.txt	LTP344	ltpFR2	21	4	CARRIAGE	248	n/a	n/a	0	0	0
707962	WORD	wordpools/wasnorm_wordpool_576.txt	LTP344	ltpFR2	21	4	RATTLE	1170	n/a	n/a	0	0	0
710677	WORD	wordpools/wasnorm_wordpool_576.txt	LTP344	ltpFR2	21	4	NOTEBOOK	959	n/a	n/a	0	0	0
713459	WORD	wordpools/wasnorm_wordpool_576.txt	LTP344	ltpFR2	21	4	RUST	1219	n/a	n/a	0	0	0
715941	WORD	wordpools/wasnorm_wordpool_576.txt	LTP344	ltpFR2	21	4	FRAME	600	n/a	n/a	0	0	0
718757	WORD	wordpools/wasnorm_wordpool_576.txt	LTP344	ltpFR2	21	4	BOX	159	n/a	n/a	0	0	0
721572	WORD	wordpools/wasnorm_wordpool_576.txt	LTP344	ltpFR2	21	4	PAPER	1011	n/a	n/a	0	0	0
724055	WORD	wordpools/wasnorm_wordpool_576.txt	LTP344	ltpFR2	21	4	HOOK	715	n/a	n/a	0	0	0
726753	WORD	wordpools/wasnorm_wordpool_576.txt	LTP344	ltpFR2	21	4	FLASK	576	n/a	n/a	0	0	0
729320	WORD	wordpools/wasnorm_wordpool_576.txt	LTP344	ltpFR2	21	4	INMATE	738	n/a	n/a	0	0	0
731901	WORD	wordpools/wasnorm_wordpool_576.txt	LTP344	ltpFR2	21	4	COUNTY	389	n/a	n/a	0	0	0
734700	WORD	wordpools/wasnorm_wordpool_576.txt	LTP344	ltpFR2	21	4	COUNTRY	388	n/a	n/a	0	0	0
737515	WORD	wordpools/wasnorm_wordpool_576.txt	LTP344	ltpFR2	21	4	CLAM	315	n/a	n/a	0	0	0
739132	START	n/a	LTP344	ltpFR2	21	n/a	n/a	n/a	6	n/a	n/a	n/a	n/a
740142	DISTRACTOR	n/a	LTP344	ltpFR2	21	4	n/a	n/a	n/a	n/a	0	0	0
740148	PROB	n/a	LTP344	ltpFR2	21	n/a	n/a	n/a	6	16	4	7	5
742297	PROB	n/a	LTP344	ltpFR2	21	n/a	n/a	n/a	6	9	4	4	1
743546	PROB	n/a	LTP344	ltpFR2	21	n/a	n/a	n/a	6	11	4	6	1
744745	PROB	n/a	LTP344	ltpFR2	21	n/a	n/a	n/a	6	20	6	6	8
746212	PROB	n/a	LTP344	ltpFR2	21	n/a	n/a	n/a	6	22	7	8	7
748777	PROB	n/a	LTP344	ltpFR2	21	n/a	n/a	n/a	6	10	4	3	3
750077	PROB	n/a	LTP344	ltpFR2	21	n/a	n/a	n/a	6	18	6	6	6
751410	PROB	n/a	LTP344	ltpFR2	21	n/a	n/a	n/a	6	19	9	2	8
752691	PROB	n/a	LTP344	ltpFR2	21	n/a	n/a	n/a	6	19	8	2	9
753924	PROB	n/a	LTP344	ltpFR2	21	n/a	n/a	n/a	6	16	1	8	7
755424	PROB	n/a	LTP344	ltpFR2	21	n/a	n/a	n/a	6	21	7	7	7
756490	PROB	n/a	LTP344	ltpFR2	21	n/a	n/a	n/a	6	4	1	2	1
757407	PROB	n/a	LTP344	ltpFR2	21	n/a	n/a	n/a	6	8	4	3	1
758672	PROB	n/a	LTP344	ltpFR2	21	n/a	n/a	n/a	6	23	8	8	7
762030	STOP	n/a	LTP344	ltpFR2	21	n/a	n/a	n/a	6	n/a	n/a	n/a	n/a
764920	REC_START	n/a	LTP344	ltpFR2	21	4	n/a	n/a	n/a	n/a	0	0	0
766803	REC_WORD	wordpools/wasnorm_wordpool_576.txt	LTP344	ltpFR2	21	4	COUNTRY	388	n/a	n/a	0	0	0
767522	REC_WORD	wordpools/wasnorm_wordpool_576.txt	LTP344	ltpFR2	21	4	COUNTY	389	n/a	n/a	0	0	0
768382	REC_WORD	wordpools/wasnorm_wordpool_576.txt	LTP344	ltpFR2	21	4	CLAM	315	n/a	n/a	0	0	0
769159	REC_WORD	wordpools/wasnorm_wordpool_576.txt	LTP344	ltpFR2	21	4	FLASK	576	n/a	n/a	0	0	0
770125	REC_WORD	wordpools/wasnorm_wordpool_576.txt	LTP344	ltpFR2	21	4	QUAIL	1147	n/a	n/a	0	0	0
770832	REC_WORD	wordpools/wasnorm_wordpool_576.txt	LTP344	ltpFR2	21	4	REPORT	1184	n/a	n/a	0	0	0
773189	REC_WORD	wordpools/wasnorm_wordpool_576.txt	LTP344	ltpFR2	21	4	OFFICE	972	n/a	n/a	0	0	0
774205	REC_WORD	wordpools/wasnorm_wordpool_576.txt	LTP344	ltpFR2	21	4	CARRIAGE	248	n/a	n/a	0	0	0
775023	REC_WORD	wordpools/wasnorm_wordpool_576.txt	LTP344	ltpFR2	21	4	RATTLE	1170	n/a	n/a	0	0	0
776132	REC_WORD	wordpools/wasnorm_wordpool_576.txt	LTP344	ltpFR2	21	4	NOTEBOOK	959	n/a	n/a	0	0	0
777181	REC_WORD	wordpools/wasnorm_wordpool_576.txt	LTP344	ltpFR2	21	4	INFANT	737	n/a	n/a	0	0	0
778015	REC_WORD	wordpools/wasnorm_wordpool_576.txt	LTP344	ltpFR2	21	4	BABY	64	n/a	n/a	0	0	0
778855	REC_WORD	wordpools/wasnorm_wordpool_576.txt	LTP344	ltpFR2	21	4	TYPIST	1532	n/a	n/a	0	0	0
779632	REC_WORD	wordpools/wasnorm_wordpool_576.txt	LTP344	ltpFR2	21	4	ACTRESS	6	n/a	n/a	0	0	0
781696	REC_WORD	wordpools/wasnorm_wordpool_576.txt	LTP344	ltpFR2	21	4	DESK	452	n/a	n/a	0	0	0
783274	REC_WORD	wordpools/wasnorm_wordpool_576.txt	LTP344	ltpFR2	21	4	VALVE	1546	n/a	n/a	0	0	0
855362	WORD	wordpools/wasnorm_wordpool_576.txt	LTP344	ltpFR2	21	5	SUSPECT	1415	n/a	n/a	0	0	0
857860	WORD	wordpools/wasnorm_wordpool_576.txt	LTP344	ltpFR2	21	5	BANQUET	86	n/a	n/a	0	0	0
860509	WORD	wordpools/wasnorm_wordpool_576.txt	LTP344	ltpFR2	21	5	BLENDER	136	n/a	n/a	0	0	0
863276	WORD	wordpools/wasnorm_wordpool_576.txt	LTP344	ltpFR2	21	5	HUSBAND	728	n/a	n/a	0	0	0
865957	WORD	wordpools/wasnorm_wordpool_576.txt	LTP344	ltpFR2	21	5	NURSE	963	n/a	n/a	0	0	0
868739	WORD	wordpools/wasnorm_wordpool_576.txt	LTP344	ltpFR2	21	5	BRANCH	168	n/a	n/a	0	0	0
871305	WORD	wordpools/wasnorm_wordpool_576.txt	LTP344	ltpFR2	21	5	SADDLE	1221	n/a	n/a	0	0	0
873770	WORD	wordpools/wasnorm_wordpool_576.txt	LTP344	ltpFR2	21	5	ZEBRA	1635	n/a	n/a	0	0	0
876552	WORD	wordpools/wasnorm_wordpool_576.txt	LTP344	ltpFR2	21	5	COFFEE	341	n/a	n/a	0	0	0
879218	WORD	wordpools/wasnorm_wordpool_576.txt	LTP344	ltpFR2	21	5	CUPBOARD	425	n/a	n/a	0	0	0
881966	WORD	wordpools/wasnorm_wordpool_576.txt	LTP344	ltpFR2	21	5	SALAD	1224	n/a	n/a	0	0	0
884498	WORD	wordpools/wasnorm_wordpool_576.txt	LTP344	ltpFR2	21	5	GUITAR	670	n/a	n/a	0	0	0
887215	WORD	wordpools/wasnorm_wordpool_576.txt	LTP344	ltpFR2	21	5	DINER	467	n/a	n/a	0	0	0
889896	WORD	wordpools/wasnorm_wordpool_576.txt	LTP344	ltpFR2	21	5	SALMON	1227	n/a	n/a	0	0	0
892478	WORD	wordpools/wasnorm_wordpool_576.txt	LTP344	ltpFR2	21	5	TWIG	1527	n/a	n/a	0	0	0
895278	WORD	wordpools/wasnorm_wordpool_576.txt	LTP344	ltpFR2	21	5	FOX	598	n/a	n/a	0	0	0
897942	WORD	wordpools/wasnorm_wordpool_576.txt	LTP344	ltpFR2	21	5	JELLY	755	n/a	n/a	0	0	0
900474	WORD	wordpools/wasnorm_wordpool_576.txt	LTP344	ltpFR2	21	5	KETCHUP	771	n/a	n/a	0	0	0
903291	WORD	wordpools/wasnorm_wordpool_576.txt	LTP344	ltpFR2	21	5	WAITER	1580	n/a	n/a	0	0	0
905755	WORD	wordpools/wasnorm_wordpool_576.txt	LTP344	ltpFR2	21	5	LAPEL	800	n/a	n/a	0	0	0
908239	WORD	wordpools/wasnorm_wordpool_576.txt	LTP344	ltpFR2	21	5	ORANGE	980	n/a	n/a	0	0	0
911003	WORD	wordpools/wasnorm_wordpool_576.txt	LTP344	ltpFR2	21	5	YACHT	1629	n/a	n/a	0	0	0
913735	WORD	wordpools/wasnorm_wordpool_576.txt	LTP344	ltpFR2	21	5	JUDGE	761	n/a	n/a	0	0	0
916285	WORD	wordpools/wasnorm_wordpool_576.txt	LTP344	ltpFR2	21	5	CYCLONE	431	n/a	n/a	0	0	0
917900	START	n/a	LTP344	ltpFR2	21	n/a	n/a	n/a	7	n/a	n/a	n/a	n/a
918888	DISTRACTOR	n/a	LTP344	ltpFR2	21	5	n/a	n/a	n/a	n/a	0	0	0
918899	PROB	n/a	LTP344	ltpFR2	21	n/a	n/a	n/a	7	16	7	7	2
920433	PROB	n/a	LTP344	ltpFR2	21	n/a	n/a	n/a	7	8	5	1	2
921865	PROB	n/a	LTP344	ltpFR2	21	n/a	n/a	n/a	7	18	6	3	9
923681	PROB	n/a	LTP344	ltpFR2	21	n/a	n/a	n/a	7	7	4	1	2
925264	PROB	n/a	LTP344	ltpFR2	21	n/a	n/a	n/a	7	16	2	8	6
926446	PROB	n/a	LTP344	ltpFR2	21	n/a	n/a	n/a	7	10	1	4	5
927679	PROB	n/a	LTP344	ltpFR2	21	n/a	n/a	n/a	7	21	8	6	7
929978	PROB	n/a	LTP344	ltpFR2	21	n/a	n/a	n/a	7	12	1	9	2
931045	PROB	n/a	LTP344	ltpFR2	21	n/a	n/a	n/a	7	22	9	5	8
933211	PROB	n/a	LTP344	ltpFR2	21	n/a	n/a	n/a	7	15	7	5	3
934776	PROB	n/a	LTP344	ltpFR2	21	n/a	n/a	n/a	7	10	2	4	4
936126	PROB	n/a	LTP344	ltpFR2	21	n/a	n/a	n/a	7	24	8	7	9
937608	PROB	n/a	LTP344	ltpFR2	21	n/a	n/a	n/a	7	23	6	9	8
940207	PROB	n/a	LTP344	ltpFR2	21	n/a	n/a	n/a	7	15	1	7	7
941467	STOP	n/a	LTP344	ltpFR2	21	n/a	n/a	n/a	7	n/a	n/a	n/a	n/a
943722	REC_START	n/a	LTP344	ltpFR2	21	5	n/a	n/a	n/a	n/a	0	0	0
944959	REC_WORD	wordpools/wasnorm_wordpool_576.txt	LTP344	ltpFR2	21	5	YACHT	1629	n/a	n/a	0	0	0
946106	REC_WORD	wordpools/wasnorm_wordpool_576.txt	LTP344	ltpFR2	21	5	DINER	467	n/a	n/a	0	0	0
947028	REC_WORD	wordpools/wasnorm_wordpool_576.txt	LTP344	ltpFR2	21	5	JUDGE	761	n/a	n/a	0	0	0
947832	REC_WORD	wordpools/wasnorm_wordpool_576.txt	LTP344	ltpFR2	21	5	CYCLONE	431	n/a	n/a	0	0	0
949549	REC_WORD	wordpools/wasnorm_wordpool_576.txt	LTP344	ltpFR2	21	5	WAITER	1580	n/a	n/a	0	0	0
950047	REC_WORD	wordpools/wasnorm_wordpool_576.txt	LTP344	ltpFR2	21	5	KETCHUP	771	n/a	n/a	0	0	0
950517	REC_WORD	wordpools/wasnorm_wordpool_576.txt	LTP344	ltpFR2	21	5	JELLY	755	n/a	n/a	0	0	0
950885	REC_WORD	wordpools/wasnorm_wordpool_576.txt	LTP344	ltpFR2	21	5	SALMON	1227	n/a	n/a	0	0	0
952116	REC_WORD	wordpools/wasnorm_wordpool_576.txt	LTP344	ltpFR2	21	5	BANQUET	86	n/a	n/a	0	0	0
952725	REC_WORD	wordpools/wasnorm_wordpool_576.txt	LTP344	ltpFR2	21	5	GUITAR	670	n/a	n/a	0	0	0
953266	REC_WORD	wordpools/wasnorm_wordpool_576.txt	LTP344	ltpFR2	21	5	HUSBAND	728	n/a	n/a	0	0	0
954898	REC_WORD	wordpools/wasnorm_wordpool_576.txt	LTP344	ltpFR2	21	5	NURSE	963	n/a	n/a	0	0	0
955501	REC_WORD	wordpools/wasnorm_wordpool_576.txt	LTP344	ltpFR2	21	5	ZEBRA	1635	n/a	n/a	0	0	0
956346	REC_WORD	wordpools/wasnorm_wordpool_576.txt	LTP344	ltpFR2	21	5	FOX	598	n/a	n/a	0	0	0
957181	REC_WORD	wordpools/wasnorm_wordpool_576.txt	LTP344	ltpFR2	21	5	SADDLE	1221	n/a	n/a	0	0	0
965772	REC_WORD	wordpools/wasnorm_wordpool_576.txt	LTP344	ltpFR2	21	5	SUSPECT	1415	n/a	n/a	0	0	0
1034182	WORD	wordpools/wasnorm_wordpool_576.txt	LTP344	ltpFR2	21	6	CRATER	400	n/a	n/a	0	0	0
1036946	WORD	wordpools/wasnorm_wordpool_576.txt	LTP344	ltpFR2	21	6	BLOCKADE	137	n/a	n/a	0	0	0
1039478	WORD	wordpools/wasnorm_wordpool_576.txt	LTP344	ltpFR2	21	6	CHAMPAGNE	278	n/a	n/a	0	0	0
1041944	WORD	wordpools/wasnorm_wordpool_576.txt	LTP344	ltpFR2	21	6	TERMITE	1451	n/a	n/a	0	0	0
1044742	WORD	wordpools/wasnorm_wordpool_576.txt	LTP344	ltpFR2	21	6	LOFT	840	n/a	n/a	0	0	0
1047558	WORD	wordpools/wasnorm_wordpool_576.txt	LTP344	ltpFR2	21	6	ONION	977	n/a	n/a	0	0	0
1050274	WORD	wordpools/wasnorm_wordpool_576.txt	LTP344	ltpFR2	21	6	SCISSORS	1250	n/a	n/a	0	0	0
1053056	WORD	wordpools/wasnorm_wordpool_576.txt	LTP344	ltpFR2	21	6	SLUG	1329	n/a	n/a	0	0	0
1055604	WORD	wordpools/wasnorm_wordpool_576.txt	LTP344	ltpFR2	21	6	BEAKER	104	n/a	n/a	0	0	0
1058371	WORD	wordpools/wasnorm_wordpool_576.txt	LTP344	ltpFR2	21	6	CHEMIST	292	n/a	n/a	0	0	0
1060868	WORD	wordpools/wasnorm_wordpool_576.txt	LTP344	ltpFR2	21	6	CURTAIN	427	n/a	n/a	0	0	0
1063335	WORD	wordpools/wasnorm_wordpool_576.txt	LTP344	ltpFR2	21	6	CHIPMUNK	304	n/a	n/a	0	0	0
1066117	WORD	wordpools/wasnorm_wordpool_576.txt	LTP344	ltpFR2	21	6	SHARK	1275	n/a	n/a	0	0	0
1068715	WORD	wordpools/wasnorm_wordpool_576.txt	LTP344	ltpFR2	21	6	EMPIRE	530	n/a	n/a	0	0	0
1071381	WORD	wordpools/wasnorm_wordpool_576.txt	LTP344	ltpFR2	21	6	GUARD	667	n/a	n/a	0	0	0
1073896	WORD	wordpools/wasnorm_wordpool_576.txt	LTP344	ltpFR2	21	6	POLICE	1098	n/a	n/a	0	0	0
1076445	WORD	wordpools/wasnorm_wordpool_576.txt	LTP344	ltpFR2	21	6	PISTOL	1075	n/a	n/a	0	0	0
1079111	WORD	wordpools/wasnorm_wordpool_576.txt	LTP344	ltpFR2	21	6	RIVER	1194	n/a	n/a	0	0	0
1081776	WORD	wordpools/wasnorm_wordpool_576.txt	LTP344	ltpFR2	21	6	BIKE	125	n/a	n/a	0	0	0
1084591	WORD	wordpools/wasnorm_wordpool_576.txt	LTP344	ltpFR2	21	6	NOMAD	955	n/a	n/a	0	0	0
1087023	WORD	wordpools/wasnorm_wordpool_576.txt	LTP344	ltpFR2	21	6	CABBAGE	210	n/a	n/a	0	0	0
1089505	WORD	wordpools/wasnorm_wordpool_576.txt	LTP344	ltpFR2	21	6	DRESS	495	n/a	n/a	0	0	0
1091954	WORD	wordpools/wasnorm_wordpool_576.txt	LTP344	ltpFR2	21	6	LAVA	804	n/a	n/a	0	0	0
1094720	WORD	wordpools/wasnorm_wordpool_576.txt	LTP344	ltpFR2	21	6	WINDOW	1611	n/a	n/a	0	0	0
1096337	START	n/a	LTP344	ltpFR2	21	n/a	n/a	n/a	8	n/a	n/a	n/a	n/a
1097468	DISTRACTOR	n/a	LTP344	ltpFR2	21	6	n/a	n/a	n/a	n/a	0	0	0
1097485	PROB	n/a	LTP344	ltpFR2	21	n/a	n/a	n/a	8	10	6	3	1
1098851	PROB	n/a	LTP344	ltpFR2	21	n/a	n/a	n/a	8	21	9	8	3
1100550	PROB	n/a	LTP344	ltpFR2	21	n/a	n/a	n/a	8	13	8	4	1
1102117	PROB	n/a	LTP344	ltpFR2	21	n/a	n/a	n/a	8	20	8	9	3
1103899	PROB	n/a	LTP344	ltpFR2	21	n/a	n/a	n/a	8	14	1	4	9
1105498	PROB	n/a	LTP344	ltpFR2	21	n/a	n/a	n/a	8	18	7	6	5
1107365	PROB	n/a	LTP344	ltpFR2	21	n/a	n/a	n/a	8	5	2	2	1
1108248	PROB	n/a	LTP344	ltpFR2	21	n/a	n/a	n/a	8	15	8	1	6
1109630	PROB	n/a	LTP344	ltpFR2	21	n/a	n/a	n/a	8	12	5	6	1
1110779	PROB	n/a	LTP344	ltpFR2	21	n/a	n/a	n/a	8	16	8	7	1
1112063	PROB	n/a	LTP344	ltpFR2	21	n/a	n/a	n/a	8	13	3	6	4
1113229	PROB	n/a	LTP344	ltpFR2	21	n/a	n/a	n/a	8	12	4	1	7
1115477	PROB	n/a	LTP344	ltpFR2	21	n/a	n/a	n/a	8	10	2	3	5
1117026	PROB	n/a	LTP344	ltpFR2	21	n/a	n/a	n/a	8	17	8	1	6
1118492	PROB	n/a	LTP344	ltpFR2	21	n/a	n/a	n/a	8	15	6	2	7
1120209	STOP	n/a	LTP344	ltpFR2	21	n/a	n/a	n/a	8	n/a	n/a	n/a	n/a
1122192	REC_START	n/a	LTP344	ltpFR2	21	6	n/a	n/a	n/a	n/a	0	0	0
1123858	REC_WORD	wordpools/wasnorm_wordpool_576.txt	LTP344	ltpFR2	21	6	CRATER	400	n/a	n/a	0	0	0
1124955	REC_WORD	wordpools/wasnorm_wordpool_576.txt	LTP344	ltpFR2	21	6	ONION	977	n/a	n/a	0	0	0
1125917	REC_WORD	wordpools/wasnorm_wordpool_576.txt	LTP344	ltpFR2	21	6	SCISSORS	1250	n/a	n/a	0	0	0
1128263	REC_WORD	wordpools/wasnorm_wordpool_576.txt	LTP344	ltpFR2	21	6	SLUG	1329	n/a	n/a	0	0	0
1129527	REC_WORD	wordpools/wasnorm_wordpool_576.txt	LTP344	ltpFR2	21	6	BEAKER	104	n/a	n/a	0	0	0
1130244	REC_WORD	wordpools/wasnorm_wordpool_576.txt	LTP344	ltpFR2	21	6	CHEMIST	292	n/a	n/a	0	0	0
1130805	REC_WORD	wordpools/wasnorm_wordpool_576.txt	LTP344	ltpFR2	21	6	SHARK	1275	n/a	n/a	0	0	0
1131492	REC_WORD	wordpools/wasnorm_wordpool_576.txt	LTP344	ltpFR2	21	6	RIVER	1194	n/a	n/a	0	0	0
1133276	REC_WORD	wordpools/wasnorm_wordpool_576.txt	LTP344	ltpFR2	21	6	SLUG	1329	n/a	n/a	0	0	0
1139153	REC_WORD	wordpools/wasnorm_wordpool_576.txt	LTP344	ltpFR2	21	6	LOFT	840	n/a	n/a	0	0	0
1140008	REC_WORD	wordpools/wasnorm_wordpool_576.txt	LTP344	ltpFR2	21	6	TERMITE	1451	n/a	n/a	0	0	0
1142882	REC_WORD	wordpools/wasnorm_wordpool_576.txt	LTP344	ltpFR2	21	6	BLOCKADE	137	n/a	n/a	0	0	0
1146093	REC_WORD	wordpools/wasnorm_wordpool_576.txt	LTP344	ltpFR2	21	6	POLICE	1098	n/a	n/a	0	0	0
1146936	REC_WORD	wordpools/wasnorm_wordpool_576.txt	LTP344	ltpFR2	21	6	GUARD	667	n/a	n/a	0	0	0
1148235	REC_WORD	wordpools/wasnorm_wordpool_576.txt	LTP344	ltpFR2	21	6	CHAMPAGNE	278	n/a	n/a	0	0	0
1149076	REC_WORD	wordpools/wasnorm_wordpool_576.txt	LTP344	ltpFR2	21	6	PISTOL	1075	n/a	n/a	0	0	0
1212649	WORD	wordpools/wasnorm_wordpool_576.txt	LTP344	ltpFR2	21	7	UNCLE	1536	n/a	n/a	0	0	0
1215465	WORD	wordpools/wasnorm_wordpool_576.txt	LTP344	ltpFR2	21	7	TUTU	1524	n/a	n/a	0	0	0
1218281	WORD	wordpools/wasnorm_wordpool_576.txt	LTP344	ltpFR2	21	7	CLAMP	316	n/a	n/a	0	0	0
1220962	WORD	wordpools/wasnorm_wordpool_576.txt	LTP344	ltpFR2	21	7	PRINCE	1124	n/a	n/a	0	0	0
1223661	WORD	wordpools/wasnorm_wordpool_576.txt	LTP344	ltpFR2	21	7	PLATE	1086	n/a	n/a	0	0	0
1226361	WORD	wordpools/wasnorm_wordpool_576.txt	LTP344	ltpFR2	21	7	BINDER	127	n/a	n/a	0	0	0
1228909	WORD	wordpools/wasnorm_wordpool_576.txt	LTP344	ltpFR2	21	7	COURSE	390	n/a	n/a	0	0	0
1231558	WORD	wordpools/wasnorm_wordpool_576.txt	LTP344	ltpFR2	21	7	PRINCESS	1125	n/a	n/a	0	0	0
1234141	WORD	wordpools/wasnorm_wordpool_576.txt	LTP344	ltpFR2	21	7	BANKER	84	n/a	n/a	0	0	0
1236938	WORD	wordpools/wasnorm_wordpool_576.txt	LTP344	ltpFR2	21	7	WITNESS	1618	n/a	n/a	0	0	0
1239637	WORD	wordpools/wasnorm_wordpool_576.txt	LTP344	ltpFR2	21	7	ACTOR	5	n/a	n/a	0	0	0
1242120	WORD	wordpools/wasnorm_wordpool_576.txt	LTP344	ltpFR2	21	7	LACE	792	n/a	n/a	0	0	0
1244885	WORD	wordpools/wasnorm_wordpool_576.txt	LTP344	ltpFR2	21	7	JURY	766	n/a	n/a	0	0	0
1247634	WORD	wordpools/wasnorm_wordpool_576.txt	LTP344	ltpFR2	21	7	GREASE	660	n/a	n/a	0	0	0
1250100	WORD	wordpools/wasnorm_wordpool_576.txt	LTP344	ltpFR2	21	7	POWDER	1117	n/a	n/a	0	0	0
1252548	WORD	wordpools/wasnorm_wordpool_576.txt	LTP344	ltpFR2	21	7	SWORD	1423	n/a	n/a	0	0	0
1255048	WORD	wordpools/wasnorm_wordpool_576.txt	LTP344	ltpFR2	21	7	KNIFE	785	n/a	n/a	0	0	0
1257762	WORD	wordpools/wasnorm_wordpool_576.txt	LTP344	ltpFR2	21	7	THIEF	1456	n/a	n/a	0	0	0
1260578	WORD	wordpools/wasnorm_wordpool_576.txt	LTP344	ltpFR2	21	7	ICEBERG	731	n/a	n/a	0	0	0
1263344	WORD	wordpools/wasnorm_wordpool_576.txt	LTP344	ltpFR2	21	7	TOURIST	1488	n/a	n/a	0	0	0
1266143	WORD	wordpools/wasnorm_wordpool_576.txt	LTP344	ltpFR2	21	7	QUEEN	1149	n/a	n/a	0	0	0
1268607	WORD	wordpools/wasnorm_wordpool_576.txt	LTP344	ltpFR2	21	7	STREAM	1392	n/a	n/a	0	0	0
1271191	WORD	wordpools/wasnorm_wordpool_576.txt	LTP344	ltpFR2	21	7	SWAMP	1416	n/a	n/a	0	0	0
1273705	WORD	wordpools/wasnorm_wordpool_576.txt	LTP344	ltpFR2	21	7	VIKING	1565	n/a	n/a	0	0	0
1275322	START	n/a	LTP344	ltpFR2	21	n/a	n/a	n/a	9	n/a	n/a	n/a	n/a
1276362	DISTRACTOR	n/a	LTP344	ltpFR2	21	7	n/a	n/a	n/a	n/a	0	0	0
1276372	PROB	n/a	LTP344	ltpFR2	21	n/a	n/a	n/a	9	18	7	4	7
1278437	PROB	n/a	LTP344	ltpFR2	21	n/a	n/a	n/a	9	13	9	2	2
1279836	PROB	n/a	LTP344	ltpFR2	21	n/a	n/a	n/a	9	8	4	3	1
1280935	PROB	n/a	LTP344	ltpFR2	21	n/a	n/a	n/a	9	13	3	4	6
1282069	PROB	n/a	LTP344	ltpFR2	21	n/a	n/a	n/a	9	13	3	4	6
1283402	PROB	n/a	LTP344	ltpFR2	21	n/a	n/a	n/a	9	19	6	9	4
1285118	PROB	n/a	LTP344	ltpFR2	21	n/a	n/a	n/a	9	15	6	3	6
1286966	PROB	n/a	LTP344	ltpFR2	21	n/a	n/a	n/a	9	10	6	1	3
1288333	PROB	n/a	LTP344	ltpFR2	21	n/a	n/a	n/a	9	16	7	1	8
1289648	PROB	n/a	LTP344	ltpFR2	21	n/a	n/a	n/a	9	20	8	3	9
1291530	PROB	n/a	LTP344	ltpFR2	21	n/a	n/a	n/a	9	15	6	1	8
1292763	PROB	n/a	LTP344	ltpFR2	21	n/a	n/a	n/a	9	12	6	5	1
1293779	PROB	n/a	LTP344	ltpFR2	21	n/a	n/a	n/a	9	21	5	9	7
1295479	PROB	n/a	LTP344	ltpFR2	21	n/a	n/a	n/a	9	9	6	1	2
1296811	PROB	n/a	LTP344	ltpFR2	21	n/a	n/a	n/a	9	12	5	2	5
1297853	STOP	n/a	LTP344	ltpFR2	21	n/a	n/a	n/a	9	n/a	n/a	n/a	n/a
1301227	REC_START	n/a	LTP344	ltpFR2	21	7	n/a	n/a	n/a	n/a	0	0	0
1301875	REC_WORD	wordpools/wasnorm_wordpool_576.txt	LTP344	ltpFR2	21	7	STREAM	1392	n/a	n/a	0	0	0
1302942	REC_WORD	wordpools/wasnorm_wordpool_576.txt	LTP344	ltpFR2	21	7	VIKING	1565	n/a	n/a	0	0	0
1303872	REC_WORD	wordpools/wasnorm_wordpool_576.txt	LTP344	ltpFR2	21	7	SWORD	1423	n/a	n/a	0	0	0
1304816	REC_WORD	wordpools/wasnorm_wordpool_576.txt	LTP344	ltpFR2	21	7	KNIFE	785	n/a	n/a	0	0	0
1305941	REC_WORD	wordpools/wasnorm_wordpool_576.txt	LTP344	ltpFR2	21	7	TOURIST	1488	n/a	n/a	0	0	0
1307517	REC_WORD	wordpools/wasnorm_wordpool_576.txt	LTP344	ltpFR2	21	7	QUEEN	1149	n/a	n/a	0	0	0
1309162	REC_WORD	wordpools/wasnorm_wordpool_576.txt	LTP344	ltpFR2	21	7	PRINCE	1124	n/a	n/a	0	0	0
1310778	REC_WORD	wordpools/wasnorm_wordpool_576.txt	LTP344	ltpFR2	21	7	BANKER	84	n/a	n/a	0	0	0
1311510	REC_WORD	wordpools/wasnorm_wordpool_576.txt	LTP344	ltpFR2	21	7	PRINCESS	1125	n/a	n/a	0	0	0
1314469	REC_WORD	wordpools/wasnorm_wordpool_576.txt	LTP344	ltpFR2	21	7	ACTOR	5	n/a	n/a	0	0	0
1318501	REC_WORD	wordpools/wasnorm_wordpool_576.txt	LTP344	ltpFR2	21	7	JURY	766	n/a	n/a	0	0	0
1320763	REC_WORD	wordpools/wasnorm_wordpool_576.txt	LTP344	ltpFR2	21	7	UNCLE	1536	n/a	n/a	0	0	0
1321704	REC_WORD	wordpools/wasnorm_wordpool_576.txt	LTP344	ltpFR2	21	7	TUTU	1524	n/a	n/a	0	0	0
1323100	REC_WORD	wordpools/wasnorm_wordpool_576.txt	LTP344	ltpFR2	21	7	PLATE	1086	n/a	n/a	0	0	0
1323823	REC_WORD	wordpools/wasnorm_wordpool_576.txt	LTP344	ltpFR2	21	7	BINDER	127	n/a	n/a	0	0	0
1324385	REC_WORD	wordpools/wasnorm_wordpool_576.txt	LTP344	ltpFR2	21	7	COURSE	390	n/a	n/a	0	0	0
1391668	WORD	wordpools/wasnorm_wordpool_576.txt	LTP344	ltpFR2	21	8	FOOT	590	n/a	n/a	0	0	0
1394135	WORD	wordpools/wasnorm_wordpool_576.txt	LTP344	ltpFR2	21	8	DUSTPAN	509	n/a	n/a	0	0	0
1396566	WORD	wordpools/wasnorm_wordpool_576.txt	LTP344	ltpFR2	21	8	ARM	38	n/a	n/a	0	0	0
1399099	WORD	wordpools/wasnorm_wordpool_576.txt	LTP344	ltpFR2	21	8	PUDDING	1139	n/a	n/a	0	0	0
1401814	WORD	wordpools/wasnorm_wordpool_576.txt	LTP344	ltpFR2	21	8	SPOUSE	1358	n/a	n/a	0	0	0
1404430	WORD	wordpools/wasnorm_wordpool_576.txt	LTP344	ltpFR2	21	8	POSTAGE	1113	n/a	n/a	0	0	0
1406861	WORD	wordpools/wasnorm_wordpool_576.txt	LTP344	ltpFR2	21	8	ROBOT	1200	n/a	n/a	0	0	0
1409477	WORD	wordpools/wasnorm_wordpool_576.txt	LTP344	ltpFR2	21	8	WIDOW	1608	n/a	n/a	0	0	0
1412293	WORD	wordpools/wasnorm_wordpool_576.txt	LTP344	ltpFR2	21	8	MAILMAN	858	n/a	n/a	0	0	0
1414958	WORD	wordpools/wasnorm_wordpool_576.txt	LTP344	ltpFR2	21	8	FRIEND	606	n/a	n/a	0	0	0
1417523	WORD	wordpools/wasnorm_wordpool_576.txt	LTP344	ltpFR2	21	8	LIVER	833	n/a	n/a	0	0	0
1419955	WORD	wordpools/wasnorm_wordpool_576.txt	LTP344	ltpFR2	21	8	COTTAGE	384	n/a	n/a	0	0	0
1422737	WORD	wordpools/wasnorm_wordpool_576.txt	LTP344	ltpFR2	21	8	DORM	488	n/a	n/a	0	0	0
1425354	WORD	wordpools/wasnorm_wordpool_576.txt	LTP344	ltpFR2	21	8	JAPAN	749	n/a	n/a	0	0	0
1427819	WORD	wordpools/wasnorm_wordpool_576.txt	LTP344	ltpFR2	21	8	TORTOISE	1486	n/a	n/a	0	0	0
1430617	WORD	wordpools/wasnorm_wordpool_576.txt	LTP344	ltpFR2	21	8	TURTLE	1522	n/a	n/a	0	0	0
1433050	WORD	wordpools/wasnorm_wordpool_576.txt	LTP344	ltpFR2	21	8	MEAT	883	n/a	n/a	0	0	0
1435715	WORD	wordpools/wasnorm_wordpool_576.txt	LTP344	ltpFR2	21	8	SERVER	1272	n/a	n/a	0	0	0
1438331	WORD	wordpools/wasnorm_wordpool_576.txt	LTP344	ltpFR2	21	8	LUNCH	849	n/a	n/a	0	0	0
1440963	WORD	wordpools/wasnorm_wordpool_576.txt	LTP344	ltpFR2	21	8	EXPERT	543	n/a	n/a	0	0	0
1443761	WORD	wordpools/wasnorm_wordpool_576.txt	LTP344	ltpFR2	21	8	MUMMY	932	n/a	n/a	0	0	0
1446294	WORD	wordpools/wasnorm_wordpool_576.txt	LTP344	ltpFR2	21	8	AIRPORT	13	n/a	n/a	0	0	0
1448926	WORD	wordpools/wasnorm_wordpool_576.txt	LTP344	ltpFR2	21	8	FREEZER	604	n/a	n/a	0	0	0
1451425	WORD	wordpools/wasnorm_wordpool_576.txt	LTP344	ltpFR2	21	8	HEDGE	699	n/a	n/a	0	0	0
1453042	START	n/a	LTP344	ltpFR2	21	n/a	n/a	n/a	10	n/a	n/a	n/a	n/a
1454209	DISTRACTOR	n/a	LTP344	ltpFR2	21	8	n/a	n/a	n/a	n/a	0	0	0
1454224	PROB	n/a	LTP344	ltpFR2	21	n/a	n/a	n/a	10	9	4	2	3
1456905	PROB	n/a	LTP344	ltpFR2	21	n/a	n/a	n/a	10	19	7	9	3
1458654	PROB	n/a	LTP344	ltpFR2	21	n/a	n/a	n/a	10	16	2	9	5
1461503	PROB	n/a	LTP344	ltpFR2	21	n/a	n/a	n/a	10	15	2	5	8
1463519	PROB	n/a	LTP344	ltpFR2	21	n/a	n/a	n/a	10	19	6	5	8
1464968	PROB	n/a	LTP344	ltpFR2	21	n/a	n/a	n/a	10	19	8	6	5
1466202	PROB	n/a	LTP344	ltpFR2	21	n/a	n/a	n/a	10	9	1	3	5
1467202	PROB	n/a	LTP344	ltpFR2	21	n/a	n/a	n/a	10	16	2	5	9
1468850	PROB	n/a	LTP344	ltpFR2	21	n/a	n/a	n/a	10	10	3	3	4
1469983	PROB	n/a	LTP344	ltpFR2	21	n/a	n/a	n/a	10	12	7	2	3
1471283	PROB	n/a	LTP344	ltpFR2	21	n/a	n/a	n/a	10	11	2	8	1
1472765	PROB	n/a	LTP344	ltpFR2	21	n/a	n/a	n/a	10	17	9	7	1
1475014	PROB	n/a	LTP344	ltpFR2	21	n/a	n/a	n/a	10	11	3	7	1
1476356	STOP	n/a	LTP344	ltpFR2	21	n/a	n/a	n/a	10	n/a	n/a	n/a	n/a
1478879	REC_START	n/a	LTP344	ltpFR2	21	8	n/a	n/a	n/a	n/a	0	0	0
1480253	REC_WORD	wordpools/wasnorm_wordpool_576.txt	LTP344	ltpFR2	21	8	EXPERT	543	n/a	n/a	0	0	0
1486026	REC_WORD_VV	wordpools/wasnorm_wordpool_576.txt	LTP344	ltpFR2	21	8	<>	-1	n/a	n/a	0	0	0
1491000	REC_WORD	wordpools/wasnorm_wordpool_576.txt	LTP344	ltpFR2	21	8	CABBAGE	210	n/a	n/a	0	0	0
1555411	REST_REWET	n/a	LTP344	ltpFR2	21	8	n/a	n/a	n/a	n/a	0	0	0
1678488	WORD	wordpools/wasnorm_wordpool_576.txt	LTP344	ltpFR2	21	9	CHURCH	307	n/a	n/a	0	0	0
1681188	WORD	wordpools/wasnorm_wordpool_576.txt	LTP344	ltpFR2	21	9	GAZELLE	628	n/a	n/a	0	0	0
1683886	WORD	wordpools/wasnorm_wordpool_576.txt	LTP344	ltpFR2	21	9	BELLY	119	n/a	n/a	0	0	0
1686551	WORD	wordpools/wasnorm_wordpool_576.txt	LTP344	ltpFR2	21	9	CAPTIVE	240	n/a	n/a	0	0	0
1688983	WORD	wordpools/wasnorm_wordpool_576.txt	LTP344	ltpFR2	21	9	SHIRT	1287	n/a	n/a	0	0	0
1691582	WORD	wordpools/wasnorm_wordpool_576.txt	LTP344	ltpFR2	21	9	BODY	145	n/a	n/a	0	0	0
1694382	WORD	wordpools/wasnorm_wordpool_576.txt	LTP344	ltpFR2	21	9	TUBA	1515	n/a	n/a	0	0	0
1696830	WORD	wordpools/wasnorm_wordpool_576.txt	LTP344	ltpFR2	21	9	BANJO	82	n/a	n/a	0	0	0
1699313	WORD	wordpools/wasnorm_wordpool_576.txt	LTP344	ltpFR2	21	9	SHOULDER	1294	n/a	n/a	0	0	0
1702112	WORD	wordpools/wasnorm_wordpool_576.txt	LTP344	ltpFR2	21	9	GLOVE	642	n/a	n/a	0	0	0
1704593	WORD	wordpools/wasnorm_wordpool_576.txt	LTP344	ltpFR2	21	9	BEAVER	109	n/a	n/a	0	0	0
1707059	WORD	wordpools/wasnorm_wordpool_576.txt	LTP344	ltpFR2	21	9	LADY	794	n/a	n/a	0	0	0
1709790	WORD	wordpools/wasnorm_wordpool_576.txt	LTP344	ltpFR2	21	9	WORKER	1621	n/a	n/a	0	0	0
1712556	WORD	wordpools/wasnorm_wordpool_576.txt	LTP344	ltpFR2	21	9	POET	1095	n/a	n/a	0	0	0
1715189	WORD	wordpools/wasnorm_wordpool_576.txt	LTP344	ltpFR2	21	9	WASP	1593	n/a	n/a	0	0	0
1717987	WORD	wordpools/wasnorm_wordpool_576.txt	LTP344	ltpFR2	21	9	FOREST	593	n/a	n/a	0	0	0
1720636	WORD	wordpools/wasnorm_wordpool_576.txt	LTP344	ltpFR2	21	9	LEG	809	n/a	n/a	0	0	0
1723135	WORD	wordpools/wasnorm_wordpool_576.txt	LTP344	ltpFR2	21	9	ANKLE	24	n/a	n/a	0	0	0
1725717	WORD	wordpools/wasnorm_wordpool_576.txt	LTP344	ltpFR2	21	9	APPLE	33	n/a	n/a	0	0	0
1728350	WORD	wordpools/wasnorm_wordpool_576.txt	LTP344	ltpFR2	21	9	BLOUSE	139	n/a	n/a	0	0	0
1730964	WORD	wordpools/wasnorm_wordpool_576.txt	LTP344	ltpFR2	21	9	SLIME	1327	n/a	n/a	0	0	0
1733496	WORD	wordpools/wasnorm_wordpool_576.txt	LTP344	ltpFR2	21	9	CANYON	235	n/a	n/a	0	0	0
1736179	WORD	wordpools/wasnorm_wordpool_576.txt	LTP344	ltpFR2	21	9	MISTER	901	n/a	n/a	0	0	0
1738994	WORD	wordpools/wasnorm_wordpool_576.txt	LTP344	ltpFR2	21	9	SIBLING	1301	n/a	n/a	0	0	0
1740610	START	n/a	LTP344	ltpFR2	21	n/a	n/a	n/a	11	n/a	n/a	n/a	n/a
1741715	DISTRACTOR	n/a	LTP344	ltpFR2	21	9	n/a	n/a	n/a	n/a	0	0	0
1741726	PROB	n/a	LTP344	ltpFR2	21	n/a	n/a	n/a	11	21	9	3	9
1743226	PROB	n/a	LTP344	ltpFR2	21	n/a	n/a	n/a	11	18	7	6	5
1744891	PROB	n/a	LTP344	ltpFR2	21	n/a	n/a	n/a	11	22	4	9	9
1746258	PROB	n/a	LTP344	ltpFR2	21	n/a	n/a	n/a	11	17	9	3	5
1748341	PROB	n/a	LTP344	ltpFR2	21	n/a	n/a	n/a	11	15	7	4	4
1749556	PROB	n/a	LTP344	ltpFR2	21	n/a	n/a	n/a	11	14	7	2	5
1751139	PROB	n/a	LTP344	ltpFR2	21	n/a	n/a	n/a	11	26	9	8	9
1752638	PROB	n/a	LTP344	ltpFR2	21	n/a	n/a	n/a	11	11	3	1	7
1753687	PROB	n/a	LTP344	ltpFR2	21	n/a	n/a	n/a	11	19	5	7	7
1755187	PROB	n/a	LTP344	ltpFR2	21	n/a	n/a	n/a	11	22	6	9	7
1757037	PROB	n/a	LTP344	ltpFR2	21	n/a	n/a	n/a	11	14	5	1	8
1758518	PROB	n/a	LTP344	ltpFR2	21	n/a	n/a	n/a	11	20	7	8	5
1760734	PROB	n/a	LTP344	ltpFR2	21	n/a	n/a	n/a	11	17	5	9	3
1762600	PROB	n/a	LTP344	ltpFR2	21	n/a	n/a	n/a	11	19	4	7	8
1764324	STOP	n/a	LTP344	ltpFR2	21	n/a	n/a	n/a	11	n/a	n/a	n/a	n/a
1766366	REC_START	n/a	LTP344	ltpFR2	21	9	n/a	n/a	n/a	n/a	0	0	0
1772140	REC_WORD	wordpools/wasnorm_wordpool_576.txt	LTP344	ltpFR2	21	9	GAZELLE	628	n/a	n/a	0	0	0
1773316	REC_WORD	wordpools/wasnorm_wordpool_576.txt	LTP344	ltpFR2	21	9	BELLY	119	n/a	n/a	0	0	0
1774263	REC_WORD	wordpools/wasnorm_wordpool_576.txt	LTP344	ltpFR2	21	9	SHIRT	1287	n/a	n/a	0	0	0
1775261	REC_WORD	wordpools/wasnorm_wordpool_576.txt	LTP344	ltpFR2	21	9	CHURCH	307	n/a	n/a	0	0	0
1776297	REC_WORD	wordpools/wasnorm_wordpool_576.txt	LTP344	ltpFR2	21	9	CAPTIVE	240	n/a	n/a	0	0	0
1856790	DISTRACTOR	n/a	LTP344	ltpFR2	21	10	n/a	n/a	n/a	n/a	0	0	0
1856791	START	n/a	LTP344	ltpFR2	21	n/a	n/a	n/a	12	n/a	n/a	n/a	n/a
1856807	PROB	n/a	LTP344	ltpFR2	21	n/a	n/a	n/a	12	11	3	2	6
1859040	PROB	n/a	LTP344	ltpFR2	21	n/a	n/a	n/a	12	9	3	2	4
1860605	PROB	n/a	LTP344	ltpFR2	21	n/a	n/a	n/a	12	10	6	2	2
1861838	PROB	n/a	LTP344	ltpFR2	21	n/a	n/a	n/a	12	15	4	4	7
1864604	PROB	n/a	LTP344	ltpFR2	21	n/a	n/a	n/a	12	10	3	5	2
1865736	PROB	n/a	LTP344	ltpFR2	21	n/a	n/a	n/a	12	14	7	6	1
1867087	PROB	n/a	LTP344	ltpFR2	21	n/a	n/a	n/a	12	22	8	9	7
1868718	PROB	n/a	LTP344	ltpFR2	21	n/a	n/a	n/a	12	6	4	1	1
1869834	PROB	n/a	LTP344	ltpFR2	21	n/a	n/a	n/a	12	9	2	4	3
1872368	PROB	n/a	LTP344	ltpFR2	21	n/a	n/a	n/a	12	5	1	1	3
1873267	PROB	n/a	LTP344	ltpFR2	21	n/a	n/a	n/a	12	13	6	5	2
1875882	PROB	n/a	LTP344	ltpFR2	21	n/a	n/a	n/a	12	8	4	3	1
1877182	PROB	n/a	LTP344	ltpFR2	21	n/a	n/a	n/a	12	24	7	9	8
1878997	PROB	n/a	LTP344	ltpFR2	21	n/a	n/a	n/a	12	10	1	5	4
1879999	STOP	n/a	LTP344	ltpFR2	21	n/a	n/a	n/a	12	n/a	n/a	n/a	n/a
1881679	WORD	wordpools/wasnorm_wordpool_576.txt	LTP344	ltpFR2	21	10	SPHINX	1349	n/a	n/a	0	0	0
1884162	WORD	wordpools/wasnorm_wordpool_576.txt	LTP344	ltpFR2	21	10	MUFFIN	929	n/a	n/a	0	0	0
1886960	WORD	wordpools/wasnorm_wordpool_576.txt	LTP344	ltpFR2	21	10	CELLAR	267	n/a	n/a	0	0	0
1889675	WORD	wordpools/wasnorm_wordpool_576.txt	LTP344	ltpFR2	21	10	STAKE	1368	n/a	n/a	0	0	0
1892175	WORD	wordpools/wasnorm_wordpool_576.txt	LTP344	ltpFR2	21	10	FIREPLACE	570	n/a	n/a	0	0	0
1894790	WORD	wordpools/wasnorm_wordpool_576.txt	LTP344	ltpFR2	21	10	FEMALE	559	n/a	n/a	0	0	0
1897290	WORD	wordpools/wasnorm_wordpool_576.txt	LTP344	ltpFR2	21	10	CROWN	415	n/a	n/a	0	0	0
1899787	WORD	wordpools/wasnorm_wordpool_576.txt	LTP344	ltpFR2	21	10	DOLPHIN	483	n/a	n/a	0	0	0
1902271	WORD	wordpools/wasnorm_wordpool_576.txt	LTP344	ltpFR2	21	10	FRAGRANCE	599	n/a	n/a	0	0	0
1904885	WORD	wordpools/wasnorm_wordpool_576.txt	LTP344	ltpFR2	21	10	SKILLET	1317	n/a	n/a	0	0	0
1907352	WORD	wordpools/wasnorm_wordpool_576.txt	LTP344	ltpFR2	21	10	MOTEL	919	n/a	n/a	0	0	0
1909950	WORD	wordpools/wasnorm_wordpool_576.txt	LTP344	ltpFR2	21	10	YOLK	1633	n/a	n/a	0	0	0
1912648	WORD	wordpools/wasnorm_wordpool_576.txt	LTP344	ltpFR2	21	10	SUITCASE	1403	n/a	n/a	0	0	0
1915182	WORD	wordpools/wasnorm_wordpool_576.txt	LTP344	ltpFR2	21	10	MARROW	872	n/a	n/a	0	0	0
1917746	WORD	wordpools/wasnorm_wordpool_576.txt	LTP344	ltpFR2	21	10	LILY	821	n/a	n/a	0	0	0
1920213	WORD	wordpools/wasnorm_wordpool_576.txt	LTP344	ltpFR2	21	10	WORLD	1622	n/a	n/a	0	0	0
1922794	WORD	wordpools/wasnorm_wordpool_576.txt	LTP344	ltpFR2	21	10	MARS	873	n/a	n/a	0	0	0
1925526	WORD	wordpools/wasnorm_wordpool_576.txt	LTP344	ltpFR2	21	10	TEMPLE	1448	n/a	n/a	0	0	0
1927958	WORD	wordpools/wasnorm_wordpool_576.txt	LTP344	ltpFR2	21	10	MACHINE	852	n/a	n/a	0	0	0
1930507	WORD	wordpools/wasnorm_wordpool_576.txt	LTP344	ltpFR2	21	10	GYMNAST	675	n/a	n/a	0	0	0
1933290	WORD	wordpools/wasnorm_wordpool_576.txt	LTP344	ltpFR2	21	10	LODGE	839	n/a	n/a	0	0	0
1935771	WORD	wordpools/wasnorm_wordpool_576.txt	LTP344	ltpFR2	21	10	HORNET	718	n/a	n/a	0	0	0
1938204	WORD	wordpools/wasnorm_wordpool_576.txt	LTP344	ltpFR2	21	10	HONEY	713	n/a	n/a	0	0	0
1940986	WORD	wordpools/wasnorm_wordpool_576.txt	LTP344	ltpFR2	21	10	SCARECROW	1245	n/a	n/a	0	0	0
1942602	START	n/a	LTP344	ltpFR2	21	n/a	n/a	n/a	13	n/a	n/a	n/a	n/a
1943619	DISTRACTOR	n/a	LTP344	ltpFR2	21	10	n/a	n/a	n/a	n/a	0	0	0
1943634	PROB	n/a	LTP344	ltpFR2	21	n/a	n/a	n/a	13	24	7	8	9
1945800	PROB	n/a	LTP344	ltpFR2	21	n/a	n/a	n/a	13	8	3	4	1
1947816	PROB	n/a	LTP344	ltpFR2	21	n/a	n/a	n/a	13	14	4	1	9
1948998	PROB	n/a	LTP344	ltpFR2	21	n/a	n/a	n/a	13	19	2	9	8
1950282	PROB	n/a	LTP344	ltpFR2	21	n/a	n/a	n/a	13	22	9	7	6
1953730	PROB	n/a	LTP344	ltpFR2	21	n/a	n/a	n/a	13	10	2	3	5
1954846	PROB	n/a	LTP344	ltpFR2	21	n/a	n/a	n/a	13	11	4	2	5
1956478	PROB	n/a	LTP344	ltpFR2	21	n/a	n/a	n/a	13	13	4	1	8
1957844	PROB	n/a	LTP344	ltpFR2	21	n/a	n/a	n/a	13	2	7	9	4
1959677	PROB	n/a	LTP344	ltpFR2	21	n/a	n/a	n/a	13	19	5	6	8
1961377	PROB	n/a	LTP344	ltpFR2	21	n/a	n/a	n/a	13	17	6	8	3
1963410	PROB	n/a	LTP344	ltpFR2	21	n/a	n/a	n/a	13	19	7	8	4
1964825	PROB	n/a	LTP344	ltpFR2	21	n/a	n/a	n/a	13	14	6	1	7
1966202	STOP	n/a	LTP344	ltpFR2	21	n/a	n/a	n/a	13	n/a	n/a	n/a	n/a
1968490	REC_START	n/a	LTP344	ltpFR2	21	10	n/a	n/a	n/a	n/a	0	0	0
1969173	REC_WORD	wordpools/wasnorm_wordpool_576.txt	LTP344	ltpFR2	21	10	HORNET	718	n/a	n/a	0	0	0
1969878	REC_WORD	wordpools/wasnorm_wordpool_576.txt	LTP344	ltpFR2	21	10	HONEY	713	n/a	n/a	0	0	0
1970958	REC_WORD	wordpools/wasnorm_wordpool_576.txt	LTP344	ltpFR2	21	10	MACHINE	852	n/a	n/a	0	0	0
1972820	REC_WORD	wordpools/wasnorm_wordpool_576.txt	LTP344	ltpFR2	21	10	LILY	821	n/a	n/a	0	0	0
1975137	REC_WORD	wordpools/wasnorm_wordpool_576.txt	LTP344	ltpFR2	21	10	FIREPLACE	570	n/a	n/a	0	0	0
1995702	REC_WORD	wordpools/wasnorm_wordpool_576.txt	LTP344	ltpFR2	21	10	SKILLET	1317	n/a	n/a	0	0	0
1997115	REC_WORD	wordpools/wasnorm_wordpool_576.txt	LTP344	ltpFR2	21	10	YOLK	1633	n/a	n/a	0	0	0
1999649	REC_WORD	wordpools/wasnorm_wordpool_576.txt	LTP344	ltpFR2	21	10	MOTEL	919	n/a	n/a	0	0	0
2058949	WORD	wordpools/wasnorm_wordpool_576.txt	LTP344	ltpFR2	21	11	CHAPEL	280	n/a	n/a	0	0	0
2061464	WORD	wordpools/wasnorm_wordpool_576.txt	LTP344	ltpFR2	21	11	MASK	876	n/a	n/a	0	0	0
2063980	WORD	wordpools/wasnorm_wordpool_576.txt	LTP344	ltpFR2	21	11	BLACKBOARD	133	n/a	n/a	0	0	0
2066529	WORD	wordpools/wasnorm_wordpool_576.txt	LTP344	ltpFR2	21	11	LOVER	846	n/a	n/a	0	0	0
2069195	WORD	wordpools/wasnorm_wordpool_576.txt	LTP344	ltpFR2	21	11	VAGRANT	1544	n/a	n/a	0	0	0
2071909	WORD	wordpools/wasnorm_wordpool_576.txt	LTP344	ltpFR2	21	11	BEEF	113	n/a	n/a	0	0	0
2074658	WORD	wordpools/wasnorm_wordpool_576.txt	LTP344	ltpFR2	21	11	PEACH	1031	n/a	n/a	0	0	0
2077358	WORD	wordpools/wasnorm_wordpool_576.txt	LTP344	ltpFR2	21	11	SHORTCAKE	1292	n/a	n/a	0	0	0
2079972	WORD	wordpools/wasnorm_wordpool_576.txt	LTP344	ltpFR2	21	11	RAFT	1159	n/a	n/a	0	0	0
2082455	WORD	wordpools/wasnorm_wordpool_576.txt	LTP344	ltpFR2	21	11	PORK	1108	n/a	n/a	0	0	0
2085188	WORD	wordpools/wasnorm_wordpool_576.txt	LTP344	ltpFR2	21	11	ITEM	746	n/a	n/a	0	0	0
2087636	WORD	wordpools/wasnorm_wordpool_576.txt	LTP344	ltpFR2	21	11	GALLON	618	n/a	n/a	0	0	0
2090352	WORD	wordpools/wasnorm_wordpool_576.txt	LTP344	ltpFR2	21	11	FLASHLIGHT	575	n/a	n/a	0	0	0
2092983	WORD	wordpools/wasnorm_wordpool_576.txt	LTP344	ltpFR2	21	11	ICING	732	n/a	n/a	0	0	0
2095615	WORD	wordpools/wasnorm_wordpool_576.txt	LTP344	ltpFR2	21	11	PARENT	1013	n/a	n/a	0	0	0
2098099	WORD	wordpools/wasnorm_wordpool_576.txt	LTP344	ltpFR2	21	11	FINGER	567	n/a	n/a	0	0	0
2100813	WORD	wordpools/wasnorm_wordpool_576.txt	LTP344	ltpFR2	21	11	GROUND	666	n/a	n/a	0	0	0
2103346	WORD	wordpools/wasnorm_wordpool_576.txt	LTP344	ltpFR2	21	11	TILE	1468	n/a	n/a	0	0	0
2106027	WORD	wordpools/wasnorm_wordpool_576.txt	LTP344	ltpFR2	21	11	SLOPE	1328	n/a	n/a	0	0	0
2108676	WORD	wordpools/wasnorm_wordpool_576.txt	LTP344	ltpFR2	21	11	BROOK	177	n/a	n/a	0	0	0
2111193	WORD	wordpools/wasnorm_wordpool_576.txt	LTP344	ltpFR2	21	11	PUDDLE	1140	n/a	n/a	0	0	0
2113907	WORD	wordpools/wasnorm_wordpool_576.txt	LTP344	ltpFR2	21	11	PARTNER	1017	n/a	n/a	0	0	0
2116556	WORD	wordpools/wasnorm_wordpool_576.txt	LTP344	ltpFR2	21	11	JELLO	754	n/a	n/a	0	0	0
2119072	WORD	wordpools/wasnorm_wordpool_576.txt	LTP344	ltpFR2	21	11	PASTRY	1022	n/a	n/a	0	0	0
2120687	START	n/a	LTP344	ltpFR2	21	n/a	n/a	n/a	14	n/a	n/a	n/a	n/a
2121653	DISTRACTOR	n/a	LTP344	ltpFR2	21	11	n/a	n/a	n/a	n/a	0	0	0
2121670	PROB	n/a	LTP344	ltpFR2	21	n/a	n/a	n/a	14	19	7	7	5
2123204	PROB	n/a	LTP344	ltpFR2	21	n/a	n/a	n/a	14	9	1	7	1
2124237	PROB	n/a	LTP344	ltpFR2	21	n/a	n/a	n/a	14	20	7	5	8
2125785	PROB	n/a	LTP344	ltpFR2	21	n/a	n/a	n/a	14	12	3	2	7
2128135	PROB	n/a	LTP344	ltpFR2	21	n/a	n/a	n/a	14	15	7	7	1
2129550	PROB	n/a	LTP344	ltpFR2	21	n/a	n/a	n/a	14	14	1	7	6
2130833	PROB	n/a	LTP344	ltpFR2	21	n/a	n/a	n/a	14	21	5	7	9
2132283	PROB	n/a	LTP344	ltpFR2	21	n/a	n/a	n/a	14	23	9	7	7
2133831	PROB	n/a	LTP344	ltpFR2	21	n/a	n/a	n/a	14	14	8	1	5
2135697	PROB	n/a	LTP344	ltpFR2	21	n/a	n/a	n/a	14	19	9	8	2
2136797	PROB	n/a	LTP344	ltpFR2	21	n/a	n/a	n/a	14	12	5	2	5
2137896	PROB	n/a	LTP344	ltpFR2	21	n/a	n/a	n/a	14	12	2	5	5
2138896	PROB	n/a	LTP344	ltpFR2	21	n/a	n/a	n/a	14	18	4	5	9
2140678	PROB	n/a	LTP344	ltpFR2	21	n/a	n/a	n/a	14	19	9	7	3
2141811	PROB	n/a	LTP344	ltpFR2	21	n/a	n/a	n/a	14	11	2	4	5
2143855	STOP	n/a	LTP344	ltpFR2	21	n/a	n/a	n/a	14	n/a	n/a	n/a	n/a
2146576	REC_START	n/a	LTP344	ltpFR2	21	11	n/a	n/a	n/a	n/a	0	0	0
2148246	REC_WORD	wordpools/wasnorm_wordpool_576.txt	LTP344	ltpFR2	21	11	JELLO	754	n/a	n/a	0	0	0
2149399	REC_WORD	wordpools/wasnorm_wordpool_576.txt	LTP344	ltpFR2	21	11	PASTRY	1022	n/a	n/a	0	0	0
2151470	REC_WORD	wordpools/wasnorm_wordpool_576.txt	LTP344	ltpFR2	21	11	CHAPEL	280	n/a	n/a	0	0	0
2152349	REC_WORD	wordpools/wasnorm_wordpool_576.txt	LTP344	ltpFR2	21	11	MASK	876	n/a	n/a	0	0	0
2152955	REC_WORD	wordpools/wasnorm_wordpool_576.txt	LTP344	ltpFR2	21	11	BLACKBOARD	133	n/a	n/a	0	0	0
2153805	REC_WORD	wordpools/wasnorm_wordpool_576.txt	LTP344	ltpFR2	21	11	LOVER	846	n/a	n/a	0	0	0
2154419	REC_WORD	wordpools/wasnorm_wordpool_576.txt	LTP344	ltpFR2	21	11	VAGRANT	1544	n/a	n/a	0	0	0
2237018	WORD	wordpools/wasnorm_wordpool_576.txt	LTP344	ltpFR2	21	12	MARKER	870	n/a	n/a	0	0	0
2239483	WORD	wordpools/wasnorm_wordpool_576.txt	LTP344	ltpFR2	21	12	ZIPPER	1636	n/a	n/a	0	0	0
2242015	WORD	wordpools/wasnorm_wordpool_576.txt	LTP344	ltpFR2	21	12	BANK	83	n/a	n/a	0	0	0
2244531	WORD	wordpools/wasnorm_wordpool_576.txt	LTP344	ltpFR2	21	12	MONSTER	912	n/a	n/a	0	0	0
2247197	WORD	wordpools/wasnorm_wordpool_576.txt	LTP344	ltpFR2	21	12	MATCH	878	n/a	n/a	0	0	0
2249912	WORD	wordpools/wasnorm_wordpool_576.txt	LTP344	ltpFR2	21	12	BLUEPRINT	142	n/a	n/a	0	0	0
2252711	WORD	wordpools/wasnorm_wordpool_576.txt	LTP344	ltpFR2	21	12	SUBWAY	1400	n/a	n/a	0	0	0
2255493	WORD	wordpools/wasnorm_wordpool_576.txt	LTP344	ltpFR2	21	12	CAMEL	223	n/a	n/a	0	0	0
2258192	WORD	wordpools/wasnorm_wordpool_576.txt	LTP344	ltpFR2	21	12	BURGLAR	200	n/a	n/a	0	0	0
2260873	WORD	wordpools/wasnorm_wordpool_576.txt	LTP344	ltpFR2	21	12	PICNIC	1060	n/a	n/a	0	0	0
2263672	WORD	wordpools/wasnorm_wordpool_576.txt	LTP344	ltpFR2	21	12	COOK	372	n/a	n/a	0	0	0
2266239	WORD	wordpools/wasnorm_wordpool_576.txt	LTP344	ltpFR2	21	12	PIGMENT	1066	n/a	n/a	0	0	0
2268853	WORD	wordpools/wasnorm_wordpool_576.txt	LTP344	ltpFR2	21	12	CRAYON	401	n/a	n/a	0	0	0
2271669	WORD	wordpools/wasnorm_wordpool_576.txt	LTP344	ltpFR2	21	12	CREVICE	405	n/a	n/a	0	0	0
2274385	WORD	wordpools/wasnorm_wordpool_576.txt	LTP344	ltpFR2	21	12	DOUGHNUT	490	n/a	n/a	0	0	0
2276816	WORD	wordpools/wasnorm_wordpool_576.txt	LTP344	ltpFR2	21	12	LADDER	793	n/a	n/a	0	0	0
2279548	WORD	wordpools/wasnorm_wordpool_576.txt	LTP344	ltpFR2	21	12	MUSTARD	935	n/a	n/a	0	0	0
2281981	WORD	wordpools/wasnorm_wordpool_576.txt	LTP344	ltpFR2	21	12	COUCH	386	n/a	n/a	0	0	0
2284796	WORD	wordpools/wasnorm_wordpool_576.txt	LTP344	ltpFR2	21	12	AIRPLANE	12	n/a	n/a	0	0	0
2287312	WORD	wordpools/wasnorm_wordpool_576.txt	LTP344	ltpFR2	21	12	HAWK	692	n/a	n/a	0	0	0
2289827	WORD	wordpools/wasnorm_wordpool_576.txt	LTP344	ltpFR2	21	12	CRUTCH	417	n/a	n/a	0	0	0
2292509	WORD	wordpools/wasnorm_wordpool_576.txt	LTP344	ltpFR2	21	12	BUREAU	199	n/a	n/a	0	0	0
2294975	WORD	wordpools/wasnorm_wordpool_576.txt	LTP344	ltpFR2	21	12	SHORTS	1293	n/a	n/a	0	0	0
2297757	WORD	wordpools/wasnorm_wordpool_576.txt	LTP344	ltpFR2	21	12	WAGON	1578	n/a	n/a	0	0	0
2299374	START	n/a	LTP344	ltpFR2	21	n/a	n/a	n/a	15	n/a	n/a	n/a	n/a
2300370	DISTRACTOR	n/a	LTP344	ltpFR2	21	12	n/a	n/a	n/a	n/a	0	0	0
2300373	PROB	n/a	LTP344	ltpFR2	21	n/a	n/a	n/a	15	13	8	2	3
2301838	PROB	n/a	LTP344	ltpFR2	21	n/a	n/a	n/a	15	15	3	6	6
2302971	PROB	n/a	LTP344	ltpFR2	21	n/a	n/a	n/a	15	13	7	2	4
2304355	PROB	n/a	LTP344	ltpFR2	21	n/a	n/a	n/a	15	15	6	7	2
2306769	PROB	n/a	LTP344	ltpFR2	21	n/a	n/a	n/a	15	18	3	8	7
2308785	PROB	n/a	LTP344	ltpFR2	21	n/a	n/a	n/a	15	19	7	4	8
2310567	PROB	n/a	LTP344	ltpFR2	21	n/a	n/a	n/a	15	21	8	9	4
2312434	PROB	n/a	LTP344	ltpFR2	21	n/a	n/a	n/a	15	7	1	4	2
2313849	PROB	n/a	LTP344	ltpFR2	21	n/a	n/a	n/a	15	12	4	5	3
2315782	PROB	n/a	LTP344	ltpFR2	21	n/a	n/a	n/a	15	16	6	7	3
2317299	PROB	n/a	LTP344	ltpFR2	21	n/a	n/a	n/a	15	20	6	6	8
2318680	PROB	n/a	LTP344	ltpFR2	21	n/a	n/a	n/a	15	19	9	6	4
2320097	PROB	n/a	LTP344	ltpFR2	21	n/a	n/a	n/a	15	11	7	2	2
2321164	PROB	n/a	LTP344	ltpFR2	21	n/a	n/a	n/a	15	1	2	9	8
2322580	STOP	n/a	LTP344	ltpFR2	21	n/a	n/a	n/a	15	n/a	n/a	n/a	n/a
2325229	REC_START	n/a	LTP344	ltpFR2	21	12	n/a	n/a	n/a	n/a	0	0	0
2328162	REC_WORD	wordpools/wasnorm_wordpool_576.txt	LTP344	ltpFR2	21	12	CREVICE	405	n/a	n/a	0	0	0
2328985	REC_WORD	wordpools/wasnorm_wordpool_576.txt	LTP344	ltpFR2	21	12	LADDER	793	n/a	n/a	0	0	0
2330729	REC_WORD	wordpools/wasnorm_wordpool_576.txt	LTP344	ltpFR2	21	12	MUSTARD	935	n/a	n/a	0	0	0
2332077	REC_WORD	wordpools/wasnorm_wordpool_576.txt	LTP344	ltpFR2	21	12	COUCH	386	n/a	n/a	0	0	0
2354024	REC_WORD	wordpools/wasnorm_wordpool_576.txt	LTP344	ltpFR2	21	12	HAWK	692	n/a	n/a	0	0	0
2355117	REC_WORD	wordpools/wasnorm_wordpool_576.txt	LTP344	ltpFR2	21	12	CRUTCH	417	n/a	n/a	0	0	0
2415686	WORD	wordpools/wasnorm_wordpool_576.txt	LTP344	ltpFR2	21	13	APRON	35	n/a	n/a	0	0	0
2418286	WORD	wordpools/wasnorm_wordpool_576.txt	LTP344	ltpFR2	21	13	FILM	565	n/a	n/a	0	0	0
2420951	WORD	wordpools/wasnorm_wordpool_576.txt	LTP344	ltpFR2	21	13	SPIDER	1351	n/a	n/a	0	0	0
2423583	WORD	wordpools/wasnorm_wordpool_576.txt	LTP344	ltpFR2	21	13	SCARF	1246	n/a	n/a	0	0	0
2426099	WORD	wordpools/wasnorm_wordpool_576.txt	LTP344	ltpFR2	21	13	DRINK	498	n/a	n/a	0	0	0
2428814	WORD	wordpools/wasnorm_wordpool_576.txt	LTP344	ltpFR2	21	13	KITCHEN	778	n/a	n/a	0	0	0
2431512	WORD	wordpools/wasnorm_wordpool_576.txt	LTP344	ltpFR2	21	13	COCOON	339	n/a	n/a	0	0	0
2434329	WORD	wordpools/wasnorm_wordpool_576.txt	LTP344	ltpFR2	21	13	PRIMATE	1123	n/a	n/a	0	0	0
2436827	WORD	wordpools/wasnorm_wordpool_576.txt	LTP344	ltpFR2	21	13	PARROT	1015	n/a	n/a	0	0	0
2439426	WORD	wordpools/wasnorm_wordpool_576.txt	LTP344	ltpFR2	21	13	ROBIN	1199	n/a	n/a	0	0	0
2441991	WORD	wordpools/wasnorm_wordpool_576.txt	LTP344	ltpFR2	21	13	LIZARD	834	n/a	n/a	0	0	0
2444773	WORD	wordpools/wasnorm_wordpool_576.txt	LTP344	ltpFR2	21	13	TURKEY	1520	n/a	n/a	0	0	0
2447290	WORD	wordpools/wasnorm_wordpool_576.txt	LTP344	ltpFR2	21	13	FRANCE	601	n/a	n/a	0	0	0
2449821	WORD	wordpools/wasnorm_wordpool_576.txt	LTP344	ltpFR2	21	13	ASIA	46	n/a	n/a	0	0	0
2452520	WORD	wordpools/wasnorm_wordpool_576.txt	LTP344	ltpFR2	21	13	PROTON	1132	n/a	n/a	0	0	0
2455086	WORD	wordpools/wasnorm_wordpool_576.txt	LTP344	ltpFR2	21	13	PACKAGE	997	n/a	n/a	0	0	0
2457684	WORD	wordpools/wasnorm_wordpool_576.txt	LTP344	ltpFR2	21	13	BUG	187	n/a	n/a	0	0	0
2460267	WORD	wordpools/wasnorm_wordpool_576.txt	LTP344	ltpFR2	21	13	GLOBE	641	n/a	n/a	0	0	0
2463082	WORD	wordpools/wasnorm_wordpool_576.txt	LTP344	ltpFR2	21	13	TWEEZERS	1526	n/a	n/a	0	0	0
2465630	WORD	wordpools/wasnorm_wordpool_576.txt	LTP344	ltpFR2	21	13	MILK	895	n/a	n/a	0	0	0
2468347	WORD	wordpools/wasnorm_wordpool_576.txt	LTP344	ltpFR2	21	13	STUDENT	1395	n/a	n/a	0	0	0
2471095	WORD	wordpools/wasnorm_wordpool_576.txt	LTP344	ltpFR2	21	13	PATIENT	1024	n/a	n/a	0	0	0
2473893	WORD	wordpools/wasnorm_wordpool_576.txt	LTP344	ltpFR2	21	13	SCALPEL	1243	n/a	n/a	0	0	0
2476343	WORD	wordpools/wasnorm_wordpool_576.txt	LTP344	ltpFR2	21	13	HEART	697	n/a	n/a	0	0	0
2477958	START	n/a	LTP344	ltpFR2	21	n/a	n/a	n/a	16	n/a	n/a	n/a	n/a
2478880	DISTRACTOR	n/a	LTP344	ltpFR2	21	13	n/a	n/a	n/a	n/a	0	0	0
2478891	PROB	n/a	LTP344	ltpFR2	21	n/a	n/a	n/a	16	20	3	8	9
2480723	PROB	n/a	LTP344	ltpFR2	21	n/a	n/a	n/a	16	14	4	1	9
2482390	PROB	n/a	LTP344	ltpFR2	21	n/a	n/a	n/a	16	22	5	9	8
2484256	PROB	n/a	LTP344	ltpFR2	21	n/a	n/a	n/a	16	20	3	8	9
2486754	PROB	n/a	LTP344	ltpFR2	21	n/a	n/a	n/a	16	16	4	5	7
2488453	PROB	n/a	LTP344	ltpFR2	21	n/a	n/a	n/a	16	9	1	6	2
2490153	PROB	n/a	LTP344	ltpFR2	21	n/a	n/a	n/a	16	12	2	7	3
2491502	PROB	n/a	LTP344	ltpFR2	21	n/a	n/a	n/a	16	15	6	8	1
2492835	PROB	n/a	LTP344	ltpFR2	21	n/a	n/a	n/a	16	11	1	5	5
2493784	PROB	n/a	LTP344	ltpFR2	21	n/a	n/a	n/a	16	16	8	5	3
2495418	PROB	n/a	LTP344	ltpFR2	21	n/a	n/a	n/a	16	13	3	6	4
2496533	PROB	n/a	LTP344	ltpFR2	21	n/a	n/a	n/a	16	12	1	4	7
2497766	PROB	n/a	LTP344	ltpFR2	21	n/a	n/a	n/a	16	14	7	1	6
2499149	PROB	n/a	LTP344	ltpFR2	21	n/a	n/a	n/a	16	11	6	2	3
2500441	STOP	n/a	LTP344	ltpFR2	21	n/a	n/a	n/a	16	n/a	n/a	n/a	n/a
2503913	REC_START	n/a	LTP344	ltpFR2	21	13	n/a	n/a	n/a	n/a	0	0	0
2504916	REC_WORD	wordpools/wasnorm_wordpool_576.txt	LTP344	ltpFR2	21	13	TURKEY	1520	n/a	n/a	0	0	0
2505858	REC_WORD	wordpools/wasnorm_wordpool_576.txt	LTP344	ltpFR2	21	13	FRANCE	601	n/a	n/a	0	0	0
2506780	REC_WORD	wordpools/wasnorm_wordpool_576.txt	LTP344	ltpFR2	21	13	ASIA	46	n/a	n/a	0	0	0
2507735	REC_WORD	wordpools/wasnorm_wordpool_576.txt	LTP344	ltpFR2	21	13	GLOBE	641	n/a	n/a	0	0	0
2594356	DISTRACTOR	n/a	LTP344	ltpFR2	21	14	n/a	n/a	n/a	n/a	0	0	0
2594356	START	n/a	LTP344	ltpFR2	21	n/a	n/a	n/a	17	n/a	n/a	n/a	n/a
2594373	PROB	n/a	LTP344	ltpFR2	21	n/a	n/a	n/a	17	12	7	3	2
2595521	PROB	n/a	LTP344	ltpFR2	21	n/a	n/a	n/a	17	15	9	3	3
2596671	PROB	n/a	LTP344	ltpFR2	21	n/a	n/a	n/a	17	15	7	5	3
2598238	PROB	n/a	LTP344	ltpFR2	21	n/a	n/a	n/a	17	10	3	4	3
2599786	PROB	n/a	LTP344	ltpFR2	21	n/a	n/a	n/a	17	14	5	7	2
2601303	PROB	n/a	LTP344	ltpFR2	21	n/a	n/a	n/a	17	19	7	3	9
2602801	PROB	n/a	LTP344	ltpFR2	21	n/a	n/a	n/a	17	12	1	7	4
2604201	PROB	n/a	LTP344	ltpFR2	21	n/a	n/a	n/a	17	18	2	8	8
2605733	PROB	n/a	LTP344	ltpFR2	21	n/a	n/a	n/a	17	11	2	6	3
2607300	PROB	n/a	LTP344	ltpFR2	21	n/a	n/a	n/a	17	18	8	1	9
2608665	PROB	n/a	LTP344	ltpFR2	21	n/a	n/a	n/a	17	15	8	1	6
2610415	PROB	n/a	LTP344	ltpFR2	21	n/a	n/a	n/a	17	11	1	6	3
2611947	PROB	n/a	LTP344	ltpFR2	21	n/a	n/a	n/a	17	14	4	8	2
2614347	PROB	n/a	LTP344	ltpFR2	21	n/a	n/a	n/a	17	9	6	2	1
2615512	PROB	n/a	LTP344	ltpFR2	21	n/a	n/a	n/a	17	13	4	3	6
2616924	STOP	n/a	LTP344	ltpFR2	21	n/a	n/a	n/a	17	n/a	n/a	n/a	n/a
2619428	WORD	wordpools/wasnorm_wordpool_576.txt	LTP344	ltpFR2	21	14	JEANS	752	n/a	n/a	0	0	0
2622077	WORD	wordpools/wasnorm_wordpool_576.txt	LTP344	ltpFR2	21	14	SKIRT	1319	n/a	n/a	0	0	0
2624558	WORD	wordpools/wasnorm_wordpool_576.txt	LTP344	ltpFR2	21	14	SCOTCH	1251	n/a	n/a	0	0	0
2627308	WORD	wordpools/wasnorm_wordpool_576.txt	LTP344	ltpFR2	21	14	IDOL	733	n/a	n/a	0	0	0
2629839	WORD	wordpools/wasnorm_wordpool_576.txt	LTP344	ltpFR2	21	14	TOMBSTONE	1478	n/a	n/a	0	0	0
2632621	WORD	wordpools/wasnorm_wordpool_576.txt	LTP344	ltpFR2	21	14	BRANDY	169	n/a	n/a	0	0	0
2635221	WORD	wordpools/wasnorm_wordpool_576.txt	LTP344	ltpFR2	21	14	LAGOON	795	n/a	n/a	0	0	0
2637669	WORD	wordpools/wasnorm_wordpool_576.txt	LTP344	ltpFR2	21	14	FOREHEAD	592	n/a	n/a	0	0	0
2640484	WORD	wordpools/wasnorm_wordpool_576.txt	LTP344	ltpFR2	21	14	BLADE	134	n/a	n/a	0	0	0
2643067	WORD	wordpools/wasnorm_wordpool_576.txt	LTP344	ltpFR2	21	14	SPOON	1357	n/a	n/a	0	0	0
2645615	WORD	wordpools/wasnorm_wordpool_576.txt	LTP344	ltpFR2	21	14	DIME	466	n/a	n/a	0	0	0
2648398	WORD	wordpools/wasnorm_wordpool_576.txt	LTP344	ltpFR2	21	14	YARN	1631	n/a	n/a	0	0	0
2651113	WORD	wordpools/wasnorm_wordpool_576.txt	LTP344	ltpFR2	21	14	KLEENEX	782	n/a	n/a	0	0	0
2653861	WORD	wordpools/wasnorm_wordpool_576.txt	LTP344	ltpFR2	21	14	BADGE	68	n/a	n/a	0	0	0
2656677	WORD	wordpools/wasnorm_wordpool_576.txt	LTP344	ltpFR2	21	14	POCKET	1093	n/a	n/a	0	0	0
2659410	WORD	wordpools/wasnorm_wordpool_576.txt	LTP344	ltpFR2	21	14	KIDNEY	776	n/a	n/a	0	0	0
2661924	WORD	wordpools/wasnorm_wordpool_576.txt	LTP344	ltpFR2	21	14	IGLOO	734	n/a	n/a	0	0	0
2664623	WORD	wordpools/wasnorm_wordpool_576.txt	LTP344	ltpFR2	21	14	CRITIC	410	n/a	n/a	0	0	0
2667389	WORD	wordpools/wasnorm_wordpool_576.txt	LTP344	ltpFR2	21	14	RELISH	1183	n/a	n/a	0	0	0
2670071	WORD	wordpools/wasnorm_wordpool_576.txt	LTP344	ltpFR2	21	14	KNAPSACK	783	n/a	n/a	0	0	0
2672569	WORD	wordpools/wasnorm_wordpool_576.txt	LTP344	ltpFR2	21	14	HANDBAG	684	n/a	n/a	0	0	0
2675269	WORD	wordpools/wasnorm_wordpool_576.txt	LTP344	ltpFR2	21	14	SALT	1229	n/a	n/a	0	0	0
2678000	WORD	wordpools/wasnorm_wordpool_576.txt	LTP344	ltpFR2	21	14	BRICK	172	n/a	n/a	0	0	0
2680532	WORD	wordpools/wasnorm_wordpool_576.txt	LTP344	ltpFR2	21	14	CLOCK	325	n/a	n/a	0	0	0
2682150	START	n/a	LTP344	ltpFR2	21	n/a	n/a	n/a	18	n/a	n/a	n/a	n/a
2683068	DISTRACTOR	n/a	LTP344	ltpFR2	21	14	n/a	n/a	n/a	n/a	0	0	0
2683082	PROB	n/a	LTP344	ltpFR2	21	n/a	n/a	n/a	18	8	3	2	3
2684964	PROB	n/a	LTP344	ltpFR2	21	n/a	n/a	n/a	18	15	6	2	7
2686830	PROB	n/a	LTP344	ltpFR2	21	n/a	n/a	n/a	18	18	2	7	9
2688113	PROB	n/a	LTP344	ltpFR2	21	n/a	n/a	n/a	18	5	3	1	1
2688979	PROB	n/a	LTP344	ltpFR2	21	n/a	n/a	n/a	18	18	7	3	8
2690196	PROB	n/a	LTP344	ltpFR2	21	n/a	n/a	n/a	18	20	9	5	6
2691777	PROB	n/a	LTP344	ltpFR2	21	n/a	n/a	n/a	18	17	8	2	7
2693394	PROB	n/a	LTP344	ltpFR2	21	n/a	n/a	n/a	18	20	3	8	9
2695942	PROB	n/a	LTP344	ltpFR2	21	n/a	n/a	n/a	18	21	6	9	6
2698641	PROB	n/a	LTP344	ltpFR2	21	n/a	n/a	n/a	18	16	6	8	2
2699907	PROB	n/a	LTP344	ltpFR2	21	n/a	n/a	n/a	18	12	2	2	8
2701341	PROB	n/a	LTP344	ltpFR2	21	n/a	n/a	n/a	18	16	7	3	6
2702539	PROB	n/a	LTP344	ltpFR2	21	n/a	n/a	n/a	18	20	9	6	5
2703905	PROB	n/a	LTP344	ltpFR2	21	n/a	n/a	n/a	18	21	5	7	9
2705184	STOP	n/a	LTP344	ltpFR2	21	n/a	n/a	n/a	18	n/a	n/a	n/a	n/a
2707987	REC_START	n/a	LTP344	ltpFR2	21	14	n/a	n/a	n/a	n/a	0	0	0
2709032	REC_WORD	wordpools/wasnorm_wordpool_576.txt	LTP344	ltpFR2	21	14	BRICK	172	n/a	n/a	0	0	0
2710494	REC_WORD	wordpools/wasnorm_wordpool_576.txt	LTP344	ltpFR2	21	14	IDOL	733	n/a	n/a	0	0	0
2711081	REC_WORD	wordpools/wasnorm_wordpool_576.txt	LTP344	ltpFR2	21	14	FOREHEAD	592	n/a	n/a	0	0	0
2712412	REC_WORD	wordpools/wasnorm_wordpool_576.txt	LTP344	ltpFR2	21	14	DIME	466	n/a	n/a	0	0	0
2714840	REC_WORD	wordpools/wasnorm_wordpool_576.txt	LTP344	ltpFR2	21	14	BLADE	134	n/a	n/a	0	0	0
2715532	REC_WORD	wordpools/wasnorm_wordpool_576.txt	LTP344	ltpFR2	21	14	SPOON	1357	n/a	n/a	0	0	0
2718101	REC_WORD	wordpools/wasnorm_wordpool_576.txt	LTP344	ltpFR2	21	14	YARN	1631	n/a	n/a	0	0	0
2719106	REC_WORD	wordpools/wasnorm_wordpool_576.txt	LTP344	ltpFR2	21	14	JEANS	752	n/a	n/a	0	0	0
2719522	REC_WORD	wordpools/wasnorm_wordpool_576.txt	LTP344	ltpFR2	21	14	SKIRT	1319	n/a	n/a	0	0	0
2720313	REC_WORD	wordpools/wasnorm_wordpool_576.txt	LTP344	ltpFR2	21	14	BRANDY	169	n/a	n/a	0	0	0
2720747	REC_WORD	wordpools/wasnorm_wordpool_576.txt	LTP344	ltpFR2	21	14	SCOTCH	1251	n/a	n/a	0	0	0
2721425	REC_WORD	wordpools/wasnorm_wordpool_576.txt	LTP344	ltpFR2	21	14	TOMBSTONE	1478	n/a	n/a	0	0	0
2722177	REC_WORD	wordpools/wasnorm_wordpool_576.txt	LTP344	ltpFR2	21	14	LAGOON	795	n/a	n/a	0	0	0
2798430	DISTRACTOR	n/a	LTP344	ltpFR2	21	15	n/a	n/a	n/a	n/a	0	0	0
2798430	START	n/a	LTP344	ltpFR2	21	n/a	n/a	n/a	19	n/a	n/a	n/a	n/a
2798445	PROB	n/a	LTP344	ltpFR2	21	n/a	n/a	n/a	19	6	1	1	4
2799429	PROB	n/a	LTP344	ltpFR2	21	n/a	n/a	n/a	19	13	3	2	8
2801761	PROB	n/a	LTP344	ltpFR2	21	n/a	n/a	n/a	19	11	4	2	5
2803443	PROB	n/a	LTP344	ltpFR2	21	n/a	n/a	n/a	19	25	8	9	8
2805692	PROB	n/a	LTP344	ltpFR2	21	n/a	n/a	n/a	19	20	7	5	8
2807376	PROB	n/a	LTP344	ltpFR2	21	n/a	n/a	n/a	19	24	6	9	9
2808774	PROB	n/a	LTP344	ltpFR2	21	n/a	n/a	n/a	19	21	9	5	7
2810308	PROB	n/a	LTP344	ltpFR2	21	n/a	n/a	n/a	19	18	4	9	5
2811689	PROB	n/a	LTP344	ltpFR2	21	n/a	n/a	n/a	19	11	6	3	2
2813505	PROB	n/a	LTP344	ltpFR2	21	n/a	n/a	n/a	19	16	2	9	5
2816272	PROB	n/a	LTP344	ltpFR2	21	n/a	n/a	n/a	19	18	6	9	3
2818087	PROB	n/a	LTP344	ltpFR2	21	n/a	n/a	n/a	19	25	9	9	7
2822430	STOP	n/a	LTP344	ltpFR2	21	n/a	n/a	n/a	19	n/a	n/a	n/a	n/a
2823517	WORD	wordpools/wasnorm_wordpool_576.txt	LTP344	ltpFR2	21	15	RABBIT	1152	n/a	n/a	0	0	0
2826034	WORD	wordpools/wasnorm_wordpool_576.txt	LTP344	ltpFR2	21	15	WAITRESS	1581	n/a	n/a	0	0	0
2828698	WORD	wordpools/wasnorm_wordpool_576.txt	LTP344	ltpFR2	21	15	QUARTER	1148	n/a	n/a	0	0	0
2831431	WORD	wordpools/wasnorm_wordpool_576.txt	LTP344	ltpFR2	21	15	MONEY	908	n/a	n/a	0	0	0
2834230	WORD	wordpools/wasnorm_wordpool_576.txt	LTP344	ltpFR2	21	15	COLONEL	348	n/a	n/a	0	0	0
2836845	WORD	wordpools/wasnorm_wordpool_576.txt	LTP344	ltpFR2	21	15	COWBOY	395	n/a	n/a	0	0	0
2839510	WORD	wordpools/wasnorm_wordpool_576.txt	LTP344	ltpFR2	21	15	COMET	353	n/a	n/a	0	0	0
2842326	WORD	wordpools/wasnorm_wordpool_576.txt	LTP344	ltpFR2	21	15	CANAL	226	n/a	n/a	0	0	0
2845142	WORD	wordpools/wasnorm_wordpool_576.txt	LTP344	ltpFR2	21	15	VALLEY	1545	n/a	n/a	0	0	0
2847723	WORD	wordpools/wasnorm_wordpool_576.txt	LTP344	ltpFR2	21	15	LAKE	796	n/a	n/a	0	0	0
2850240	WORD	wordpools/wasnorm_wordpool_576.txt	LTP344	ltpFR2	21	15	BUNNY	198	n/a	n/a	0	0	0
2853004	WORD	wordpools/wasnorm_wordpool_576.txt	LTP344	ltpFR2	21	15	MESSAGE	888	n/a	n/a	0	0	0
2855686	WORD	wordpools/wasnorm_wordpool_576.txt	LTP344	ltpFR2	21	15	PUPPY	1144	n/a	n/a	0	0	0
2858303	WORD	wordpools/wasnorm_wordpool_576.txt	LTP344	ltpFR2	21	15	REBEL	1172	n/a	n/a	0	0	0
2861085	WORD	wordpools/wasnorm_wordpool_576.txt	LTP344	ltpFR2	21	15	PEANUT	1032	n/a	n/a	0	0	0
2863832	WORD	wordpools/wasnorm_wordpool_576.txt	LTP344	ltpFR2	21	15	TROUT	1511	n/a	n/a	0	0	0
2866432	WORD	wordpools/wasnorm_wordpool_576.txt	LTP344	ltpFR2	21	15	SLIDE	1326	n/a	n/a	0	0	0
2869064	WORD	wordpools/wasnorm_wordpool_576.txt	LTP344	ltpFR2	21	15	CANDY	230	n/a	n/a	0	0	0
2871612	WORD	wordpools/wasnorm_wordpool_576.txt	LTP344	ltpFR2	21	15	DRUG	501	n/a	n/a	0	0	0
2874345	WORD	wordpools/wasnorm_wordpool_576.txt	LTP344	ltpFR2	21	15	OINTMENT	974	n/a	n/a	0	0	0
2876810	WORD	wordpools/wasnorm_wordpool_576.txt	LTP344	ltpFR2	21	15	FOOTBALL	591	n/a	n/a	0	0	0
2879442	WORD	wordpools/wasnorm_wordpool_576.txt	LTP344	ltpFR2	21	15	FLUTE	585	n/a	n/a	0	0	0
2882242	WORD	wordpools/wasnorm_wordpool_576.txt	LTP344	ltpFR2	21	15	OYSTER	995	n/a	n/a	0	0	0
2884689	WORD	wordpools/wasnorm_wordpool_576.txt	LTP344	ltpFR2	21	15	CRAB	397	n/a	n/a	0	0	0
2886290	START	n/a	LTP344	ltpFR2	21	n/a	n/a	n/a	20	n/a	n/a	n/a	n/a
2887177	DISTRACTOR	n/a	LTP344	ltpFR2	21	15	n/a	n/a	n/a	n/a	0	0	0
2887189	PROB	n/a	LTP344	ltpFR2	21	n/a	n/a	n/a	20	18	5	5	8
2888239	PROB	n/a	LTP344	ltpFR2	21	n/a	n/a	n/a	20	8	4	3	1
2889338	PROB	n/a	LTP344	ltpFR2	21	n/a	n/a	n/a	20	23	7	9	7
2891304	PROB	n/a	LTP344	ltpFR2	21	n/a	n/a	n/a	20	12	5	6	1
2892586	PROB	n/a	LTP344	ltpFR2	21	n/a	n/a	n/a	20	24	8	7	9
2894369	PROB	n/a	LTP344	ltpFR2	21	n/a	n/a	n/a	20	15	8	6	1
2896219	PROB	n/a	LTP344	ltpFR2	21	n/a	n/a	n/a	20	12	3	1	8
2897500	PROB	n/a	LTP344	ltpFR2	21	n/a	n/a	n/a	20	14	9	2	3
2899101	PROB	n/a	LTP344	ltpFR2	21	n/a	n/a	n/a	20	19	7	9	3
2900999	PROB	n/a	LTP344	ltpFR2	21	n/a	n/a	n/a	20	23	7	7	9
2902299	PROB	n/a	LTP344	ltpFR2	21	n/a	n/a	n/a	20	11	7	3	1
2903681	PROB	n/a	LTP344	ltpFR2	21	n/a	n/a	n/a	20	16	7	5	4
2905031	PROB	n/a	LTP344	ltpFR2	21	n/a	n/a	n/a	20	18	5	9	4
2907280	PROB	n/a	LTP344	ltpFR2	21	n/a	n/a	n/a	20	14	2	8	4
2908579	PROB	n/a	LTP344	ltpFR2	21	n/a	n/a	n/a	20	7	5	1	1
2909605	STOP	n/a	LTP344	ltpFR2	21	n/a	n/a	n/a	20	n/a	n/a	n/a	n/a
2912045	REC_START	n/a	LTP344	ltpFR2	21	15	n/a	n/a	n/a	n/a	0	0	0
2913001	REC_WORD	wordpools/wasnorm_wordpool_576.txt	LTP344	ltpFR2	21	15	OYSTER	995	n/a	n/a	0	0	0
2914240	REC_WORD	wordpools/wasnorm_wordpool_576.txt	LTP344	ltpFR2	21	15	CRAB	397	n/a	n/a	0	0	0
2915544	REC_WORD	wordpools/wasnorm_wordpool_576.txt	LTP344	ltpFR2	21	15	LAKE	796	n/a	n/a	0	0	0
2916531	REC_WORD	wordpools/wasnorm_wordpool_576.txt	LTP344	ltpFR2	21	15	VALLEY	1545	n/a	n/a	0	0	0
2925324	REC_WORD	wordpools/wasnorm_wordpool_576.txt	LTP344	ltpFR2	21	15	CANAL	226	n/a	n/a	0	0	0
2932794	REC_WORD	wordpools/wasnorm_wordpool_576.txt	LTP344	ltpFR2	21	15	OINTMENT	974	n/a	n/a	0	0	0
3002486	DISTRACTOR	n/a	LTP344	ltpFR2	21	16	n/a	n/a	n/a	n/a	0	0	0
3002486	START	n/a	LTP344	ltpFR2	21	n/a	n/a	n/a	21	n/a	n/a	n/a	n/a
3002503	PROB	n/a	LTP344	ltpFR2	21	n/a	n/a	n/a	21	9	2	3	4
3004951	PROB	n/a	LTP344	ltpFR2	21	n/a	n/a	n/a	21	6	2	2	2
3006035	PROB	n/a	LTP344	ltpFR2	21	n/a	n/a	n/a	21	20	9	3	8
3007617	PROB	n/a	LTP344	ltpFR2	21	n/a	n/a	n/a	21	12	1	3	8
3008783	PROB	n/a	LTP344	ltpFR2	21	n/a	n/a	n/a	21	18	3	8	7
3010350	PROB	n/a	LTP344	ltpFR2	21	n/a	n/a	n/a	21	17	7	9	1
3011532	PROB	n/a	LTP344	ltpFR2	21	n/a	n/a	n/a	21	12	4	1	7
3012631	PROB	n/a	LTP344	ltpFR2	21	n/a	n/a	n/a	21	22	9	5	8
3014664	PROB	n/a	LTP344	ltpFR2	21	n/a	n/a	n/a	21	18	6	3	9
3015913	PROB	n/a	LTP344	ltpFR2	21	n/a	n/a	n/a	21	14	4	7	3
3017080	PROB	n/a	LTP344	ltpFR2	21	n/a	n/a	n/a	21	19	1	9	9
3018080	PROB	n/a	LTP344	ltpFR2	21	n/a	n/a	n/a	21	10	5	2	3
3019413	PROB	n/a	LTP344	ltpFR2	21	n/a	n/a	n/a	21	16	3	5	8
3021511	PROB	n/a	LTP344	ltpFR2	21	n/a	n/a	n/a	21	9	1	4	4
3023660	PROB	n/a	LTP344	ltpFR2	21	n/a	n/a	n/a	21	18	4	8	6
3025377	STOP	n/a	LTP344	ltpFR2	21	n/a	n/a	n/a	21	n/a	n/a	n/a	n/a
3027441	WORD	wordpools/wasnorm_wordpool_576.txt	LTP344	ltpFR2	21	16	SPACE	1345	n/a	n/a	0	0	0
3030074	WORD	wordpools/wasnorm_wordpool_576.txt	LTP344	ltpFR2	21	16	ROCKET	1202	n/a	n/a	0	0	0
3032572	WORD	wordpools/wasnorm_wordpool_576.txt	LTP344	ltpFR2	21	16	ROBBER	1197	n/a	n/a	0	0	0
3035089	WORD	wordpools/wasnorm_wordpool_576.txt	LTP344	ltpFR2	21	16	TAXI	1438	n/a	n/a	0	0	0
3037620	WORD	wordpools/wasnorm_wordpool_576.txt	LTP344	ltpFR2	21	16	LUGGAGE	847	n/a	n/a	0	0	0
3040170	WORD	wordpools/wasnorm_wordpool_576.txt	LTP344	ltpFR2	21	16	DASHBOARD	441	n/a	n/a	0	0	0
3042701	WORD	wordpools/wasnorm_wordpool_576.txt	LTP344	ltpFR2	21	16	MOP	916	n/a	n/a	0	0	0
3045483	WORD	wordpools/wasnorm_wordpool_576.txt	LTP344	ltpFR2	21	16	LASER	801	n/a	n/a	0	0	0
3048033	WORD	wordpools/wasnorm_wordpool_576.txt	LTP344	ltpFR2	21	16	PALACE	1006	n/a	n/a	0	0	0
3050664	WORD	wordpools/wasnorm_wordpool_576.txt	LTP344	ltpFR2	21	16	JUNGLE	764	n/a	n/a	0	0	0
3053397	WORD	wordpools/wasnorm_wordpool_576.txt	LTP344	ltpFR2	21	16	PLAZA	1088	n/a	n/a	0	0	0
3056062	WORD	wordpools/wasnorm_wordpool_576.txt	LTP344	ltpFR2	21	16	HIGHWAY	707	n/a	n/a	0	0	0
3058760	WORD	wordpools/wasnorm_wordpool_576.txt	LTP344	ltpFR2	21	16	HUMAN	726	n/a	n/a	0	0	0
3061360	WORD	wordpools/wasnorm_wordpool_576.txt	LTP344	ltpFR2	21	16	THRONE	1461	n/a	n/a	0	0	0
3063891	WORD	wordpools/wasnorm_wordpool_576.txt	LTP344	ltpFR2	21	16	PLIERS	1089	n/a	n/a	0	0	0
3066690	WORD	wordpools/wasnorm_wordpool_576.txt	LTP344	ltpFR2	21	16	CHAUFFEUR	283	n/a	n/a	0	0	0
3069505	WORD	wordpools/wasnorm_wordpool_576.txt	LTP344	ltpFR2	21	16	CLOUD	328	n/a	n/a	0	0	0
3072188	WORD	wordpools/wasnorm_wordpool_576.txt	LTP344	ltpFR2	21	16	SNAKE	1333	n/a	n/a	0	0	0
3074870	WORD	wordpools/wasnorm_wordpool_576.txt	LTP344	ltpFR2	21	16	AUTHOR	61	n/a	n/a	0	0	0
3077336	WORD	wordpools/wasnorm_wordpool_576.txt	LTP344	ltpFR2	21	16	STAPLE	1371	n/a	n/a	0	0	0
3080102	WORD	wordpools/wasnorm_wordpool_576.txt	LTP344	ltpFR2	21	16	NAPKIN	937	n/a	n/a	0	0	0
3082716	WORD	wordpools/wasnorm_wordpool_576.txt	LTP344	ltpFR2	21	16	BRAKE	166	n/a	n/a	0	0	0
3085382	WORD	wordpools/wasnorm_wordpool_576.txt	LTP344	ltpFR2	21	16	HERO	706	n/a	n/a	0	0	0
3088031	WORD	wordpools/wasnorm_wordpool_576.txt	LTP344	ltpFR2	21	16	CONVICT	371	n/a	n/a	0	0	0
3089646	START	n/a	LTP344	ltpFR2	21	n/a	n/a	n/a	22	n/a	n/a	n/a	n/a
3090620	DISTRACTOR	n/a	LTP344	ltpFR2	21	16	n/a	n/a	n/a	n/a	0	0	0
3090629	PROB	n/a	LTP344	ltpFR2	21	n/a	n/a	n/a	22	19	5	9	5
3092029	PROB	n/a	LTP344	ltpFR2	21	n/a	n/a	n/a	22	19	5	8	6
3093678	PROB	n/a	LTP344	ltpFR2	21	n/a	n/a	n/a	22	10	1	2	7
3094927	PROB	n/a	LTP344	ltpFR2	21	n/a	n/a	n/a	22	15	7	6	2
3096428	PROB	n/a	LTP344	ltpFR2	21	n/a	n/a	n/a	22	22	9	4	9
3097792	PROB	n/a	LTP344	ltpFR2	21	n/a	n/a	n/a	22	22	5	9	8
3100342	PROB	n/a	LTP344	ltpFR2	21	n/a	n/a	n/a	22	15	3	4	8
3103108	PROB	n/a	LTP344	ltpFR2	21	n/a	n/a	n/a	22	1	6	2	9
3104989	PROB	n/a	LTP344	ltpFR2	21	n/a	n/a	n/a	22	11	2	3	6
3106538	PROB	n/a	LTP344	ltpFR2	21	n/a	n/a	n/a	22	16	9	4	3
3107988	PROB	n/a	LTP344	ltpFR2	21	n/a	n/a	n/a	22	13	6	1	6
3109021	PROB	n/a	LTP344	ltpFR2	21	n/a	n/a	n/a	22	15	7	2	6
3110570	PROB	n/a	LTP344	ltpFR2	21	n/a	n/a	n/a	22	14	7	6	1
3111753	PROB	n/a	LTP344	ltpFR2	21	n/a	n/a	n/a	22	21	3	9	9
3112891	STOP	n/a	LTP344	ltpFR2	21	n/a	n/a	n/a	22	n/a	n/a	n/a	n/a
3115436	REC_START	n/a	LTP344	ltpFR2	21	16	n/a	n/a	n/a	n/a	0	0	0
3116890	REC_WORD	wordpools/wasnorm_wordpool_576.txt	LTP344	ltpFR2	21	16	SNAKE	1333	n/a	n/a	0	0	0
3118045	REC_WORD	wordpools/wasnorm_wordpool_576.txt	LTP344	ltpFR2	21	16	AUTHOR	61	n/a	n/a	0	0	0
3118941	REC_WORD	wordpools/wasnorm_wordpool_576.txt	LTP344	ltpFR2	21	16	PLIERS	1089	n/a	n/a	0	0	0
3119620	REC_WORD	wordpools/wasnorm_wordpool_576.txt	LTP344	ltpFR2	21	16	THRONE	1461	n/a	n/a	0	0	0
3120232	REC_WORD	wordpools/wasnorm_wordpool_576.txt	LTP344	ltpFR2	21	16	PALACE	1006	n/a	n/a	0	0	0
3121258	REC_WORD	wordpools/wasnorm_wordpool_576.txt	LTP344	ltpFR2	21	16	JUNGLE	764	n/a	n/a	0	0	0
3121703	REC_WORD	wordpools/wasnorm_wordpool_576.txt	LTP344	ltpFR2	21	16	HIGHWAY	707	n/a	n/a	0	0	0
3122284	REC_WORD	wordpools/wasnorm_wordpool_576.txt	LTP344	ltpFR2	21	16	HUMAN	726	n/a	n/a	0	0	0
3124033	REC_WORD	wordpools/wasnorm_wordpool_576.txt	LTP344	ltpFR2	21	16	DASHBOARD	441	n/a	n/a	0	0	0
3124920	REC_WORD	wordpools/wasnorm_wordpool_576.txt	LTP344	ltpFR2	21	16	MOP	916	n/a	n/a	0	0	0
3125646	REC_WORD	wordpools/wasnorm_wordpool_576.txt	LTP344	ltpFR2	21	16	LASER	801	n/a	n/a	0	0	0
3128975	REC_WORD	wordpools/wasnorm_wordpool_576.txt	LTP344	ltpFR2	21	16	LUGGAGE	847	n/a	n/a	0	0	0
3130524	REC_WORD	wordpools/wasnorm_wordpool_576.txt	LTP344	ltpFR2	21	16	CLOUD	328	n/a	n/a	0	0	0
3131081	REC_WORD	wordpools/wasnorm_wordpool_576.txt	LTP344	ltpFR2	21	16	CHAUFFEUR	283	n/a	n/a	0	0	0
3191983	REST_REWET	n/a	LTP344	ltpFR2	21	16	n/a	n/a	n/a	n/a	0	0	0
3320226	DISTRACTOR	n/a	LTP344	ltpFR2	21	17	n/a	n/a	n/a	n/a	0	0	0
3320226	START	n/a	LTP344	ltpFR2	21	n/a	n/a	n/a	23	n/a	n/a	n/a	n/a
3320242	PROB	n/a	LTP344	ltpFR2	21	n/a	n/a	n/a	23	13	6	4	3
3323291	PROB	n/a	LTP344	ltpFR2	21	n/a	n/a	n/a	23	9	6	2	1
3324673	PROB	n/a	LTP344	ltpFR2	21	n/a	n/a	n/a	23	6	3	1	2
3326040	PROB	n/a	LTP344	ltpFR2	21	n/a	n/a	n/a	23	12	5	2	5
3327039	PROB	n/a	LTP344	ltpFR2	21	n/a	n/a	n/a	23	16	3	9	4
3328687	PROB	n/a	LTP344	ltpFR2	21	n/a	n/a	n/a	23	26	9	8	9
3330321	PROB	n/a	LTP344	ltpFR2	21	n/a	n/a	n/a	23	14	7	2	5
3332602	PROB	n/a	LTP344	ltpFR2	21	n/a	n/a	n/a	23	19	6	9	4
3334835	PROB	n/a	LTP344	ltpFR2	21	n/a	n/a	n/a	23	16	5	2	9
3336135	PROB	n/a	LTP344	ltpFR2	21	n/a	n/a	n/a	23	9	7	1	1
3337135	PROB	n/a	LTP344	ltpFR2	21	n/a	n/a	n/a	23	20	6	6	8
3338833	PROB	n/a	LTP344	ltpFR2	21	n/a	n/a	n/a	23	8	1	5	2
3340067	PROB	n/a	LTP344	ltpFR2	21	n/a	n/a	n/a	23	10	2	1	7
3341166	PROB	n/a	LTP344	ltpFR2	21	n/a	n/a	n/a	23	15	7	2	6
3342614	PROB	n/a	LTP344	ltpFR2	21	n/a	n/a	n/a	23	19	8	2	9
3343825	STOP	n/a	LTP344	ltpFR2	21	n/a	n/a	n/a	23	n/a	n/a	n/a	n/a
3345064	WORD	wordpools/wasnorm_wordpool_576.txt	LTP344	ltpFR2	21	17	GRILL	661	n/a	n/a	0	0	0
3347529	WORD	wordpools/wasnorm_wordpool_576.txt	LTP344	ltpFR2	21	17	BREAST	171	n/a	n/a	0	0	0
3350095	WORD	wordpools/wasnorm_wordpool_576.txt	LTP344	ltpFR2	21	17	OUTLAW	989	n/a	n/a	0	0	0
3352677	WORD	wordpools/wasnorm_wordpool_576.txt	LTP344	ltpFR2	21	17	GANGSTER	620	n/a	n/a	0	0	0
3355343	WORD	wordpools/wasnorm_wordpool_576.txt	LTP344	ltpFR2	21	17	MEDAL	885	n/a	n/a	0	0	0
3357824	WORD	wordpools/wasnorm_wordpool_576.txt	LTP344	ltpFR2	21	17	BUTCHER	203	n/a	n/a	0	0	0
3360357	WORD	wordpools/wasnorm_wordpool_576.txt	LTP344	ltpFR2	21	17	FLEET	578	n/a	n/a	0	0	0
3362955	WORD	wordpools/wasnorm_wordpool_576.txt	LTP344	ltpFR2	21	17	PADDING	999	n/a	n/a	0	0	0
3365554	WORD	wordpools/wasnorm_wordpool_576.txt	LTP344	ltpFR2	21	17	LONDON	843	n/a	n/a	0	0	0
3368220	WORD	wordpools/wasnorm_wordpool_576.txt	LTP344	ltpFR2	21	17	GOBLIN	645	n/a	n/a	0	0	0
3370785	WORD	wordpools/wasnorm_wordpool_576.txt	LTP344	ltpFR2	21	17	DENTIST	447	n/a	n/a	0	0	0
3373500	WORD	wordpools/wasnorm_wordpool_576.txt	LTP344	ltpFR2	21	17	DANCER	437	n/a	n/a	0	0	0
3376034	WORD	wordpools/wasnorm_wordpool_576.txt	LTP344	ltpFR2	21	17	WARDROBE	1587	n/a	n/a	0	0	0
3378565	WORD	wordpools/wasnorm_wordpool_576.txt	LTP344	ltpFR2	21	17	OUTFIT	988	n/a	n/a	0	0	0
3381348	WORD	wordpools/wasnorm_wordpool_576.txt	LTP344	ltpFR2	21	17	BUGGY	188	n/a	n/a	0	0	0
3383912	WORD	wordpools/wasnorm_wordpool_576.txt	LTP344	ltpFR2	21	17	EAGLE	512	n/a	n/a	0	0	0
3386561	WORD	wordpools/wasnorm_wordpool_576.txt	LTP344	ltpFR2	21	17	SNACK	1331	n/a	n/a	0	0	0
3389094	WORD	wordpools/wasnorm_wordpool_576.txt	LTP344	ltpFR2	21	17	AWARD	63	n/a	n/a	0	0	0
3391675	WORD	wordpools/wasnorm_wordpool_576.txt	LTP344	ltpFR2	21	17	SPOOL	1356	n/a	n/a	0	0	0
3394209	WORD	wordpools/wasnorm_wordpool_576.txt	LTP344	ltpFR2	21	17	SEAFOOD	1260	n/a	n/a	0	0	0
3396723	WORD	wordpools/wasnorm_wordpool_576.txt	LTP344	ltpFR2	21	17	FUNGUS	614	n/a	n/a	0	0	0
3399423	WORD	wordpools/wasnorm_wordpool_576.txt	LTP344	ltpFR2	21	17	CASHIER	254	n/a	n/a	0	0	0
3402122	WORD	wordpools/wasnorm_wordpool_576.txt	LTP344	ltpFR2	21	17	SHELF	1280	n/a	n/a	0	0	0
3404853	WORD	wordpools/wasnorm_wordpool_576.txt	LTP344	ltpFR2	21	17	HORSE	719	n/a	n/a	0	0	0
3406469	START	n/a	LTP344	ltpFR2	21	n/a	n/a	n/a	24	n/a	n/a	n/a	n/a
3407607	DISTRACTOR	n/a	LTP344	ltpFR2	21	17	n/a	n/a	n/a	n/a	0	0	0
3407618	PROB	n/a	LTP344	ltpFR2	21	n/a	n/a	n/a	24	18	8	5	5
3409368	PROB	n/a	LTP344	ltpFR2	21	n/a	n/a	n/a	24	13	4	6	3
3410534	PROB	n/a	LTP344	ltpFR2	21	n/a	n/a	n/a	24	21	5	8	8
3412300	PROB	n/a	LTP344	ltpFR2	21	n/a	n/a	n/a	24	14	1	7	6
3413599	PROB	n/a	LTP344	ltpFR2	21	n/a	n/a	n/a	24	15	4	7	4
3415416	PROB	n/a	LTP344	ltpFR2	21	n/a	n/a	n/a	24	19	7	5	7
3416797	PROB	n/a	LTP344	ltpFR2	21	n/a	n/a	n/a	24	8	3	3	2
3418031	PROB	n/a	LTP344	ltpFR2	21	n/a	n/a	n/a	24	18	6	8	4
3419381	PROB	n/a	LTP344	ltpFR2	21	n/a	n/a	n/a	24	20	8	7	5
3420679	PROB	n/a	LTP344	ltpFR2	21	n/a	n/a	n/a	24	21	7	8	6
3422279	PROB	n/a	LTP344	ltpFR2	21	n/a	n/a	n/a	24	10	6	1	3
3423611	PROB	n/a	LTP344	ltpFR2	21	n/a	n/a	n/a	24	16	4	3	9
3426177	PROB	n/a	LTP344	ltpFR2	21	n/a	n/a	n/a	24	16	8	5	3
3427377	PROB	n/a	LTP344	ltpFR2	21	n/a	n/a	n/a	24	6	2	1	3
3428376	PROB	n/a	LTP344	ltpFR2	21	n/a	n/a	n/a	24	22	6	8	8
3429948	STOP	n/a	LTP344	ltpFR2	21	n/a	n/a	n/a	24	n/a	n/a	n/a	n/a
3432325	REC_START	n/a	LTP344	ltpFR2	21	17	n/a	n/a	n/a	n/a	0	0	0
3432995	REC_WORD	wordpools/wasnorm_wordpool_576.txt	LTP344	ltpFR2	21	17	BUTCHER	203	n/a	n/a	0	0	0
3434000	REC_WORD	wordpools/wasnorm_wordpool_576.txt	LTP344	ltpFR2	21	17	PADDING	999	n/a	n/a	0	0	0
3434863	REC_WORD	wordpools/wasnorm_wordpool_576.txt	LTP344	ltpFR2	21	17	FLEET	578	n/a	n/a	0	0	0
3435955	REC_WORD	wordpools/wasnorm_wordpool_576.txt	LTP344	ltpFR2	21	17	GANGSTER	620	n/a	n/a	0	0	0
3437197	REC_WORD	wordpools/wasnorm_wordpool_576.txt	LTP344	ltpFR2	21	17	BREAST	171	n/a	n/a	0	0	0
3438453	REC_WORD	wordpools/wasnorm_wordpool_576.txt	LTP344	ltpFR2	21	17	DANCER	437	n/a	n/a	0	0	0
3445990	REC_WORD	wordpools/wasnorm_wordpool_576.txt	LTP344	ltpFR2	21	17	OUTLAW	989	n/a	n/a	0	0	0
3522766	DISTRACTOR	n/a	LTP344	ltpFR2	21	18	n/a	n/a	n/a	n/a	0	0	0
3522766	START	n/a	LTP344	ltpFR2	21	n/a	n/a	n/a	25	n/a	n/a	n/a	n/a
3522783	PROB	n/a	LTP344	ltpFR2	21	n/a	n/a	n/a	25	11	3	1	7
3524715	PROB	n/a	LTP344	ltpFR2	21	n/a	n/a	n/a	25	11	8	2	1
3525814	PROB	n/a	LTP344	ltpFR2	21	n/a	n/a	n/a	25	19	4	8	7
3527664	PROB	n/a	LTP344	ltpFR2	21	n/a	n/a	n/a	25	11	4	2	5
3528980	PROB	n/a	LTP344	ltpFR2	21	n/a	n/a	n/a	25	11	3	6	2
3531012	PROB	n/a	LTP344	ltpFR2	21	n/a	n/a	n/a	25	18	7	4	7
3532462	PROB	n/a	LTP344	ltpFR2	21	n/a	n/a	n/a	25	13	7	2	4
3534295	PROB	n/a	LTP344	ltpFR2	21	n/a	n/a	n/a	25	15	2	5	8
3535610	PROB	n/a	LTP344	ltpFR2	21	n/a	n/a	n/a	25	17	1	7	9
3537377	PROB	n/a	LTP344	ltpFR2	21	n/a	n/a	n/a	25	7	1	2	4
3538725	PROB	n/a	LTP344	ltpFR2	21	n/a	n/a	n/a	25	13	5	3	5
3540491	PROB	n/a	LTP344	ltpFR2	21	n/a	n/a	n/a	25	18	4	6	8
3541691	PROB	n/a	LTP344	ltpFR2	21	n/a	n/a	n/a	25	18	6	3	9
3543208	PROB	n/a	LTP344	ltpFR2	21	n/a	n/a	n/a	25	17	8	8	1
3546766	STOP	n/a	LTP344	ltpFR2	21	n/a	n/a	n/a	25	n/a	n/a	n/a	n/a
3547638	WORD	wordpools/wasnorm_wordpool_576.txt	LTP344	ltpFR2	21	18	PORTRAIT	1111	n/a	n/a	0	0	0
3550071	WORD	wordpools/wasnorm_wordpool_576.txt	LTP344	ltpFR2	21	18	VENUS	1557	n/a	n/a	0	0	0
3552769	WORD	wordpools/wasnorm_wordpool_576.txt	LTP344	ltpFR2	21	18	HIKER	708	n/a	n/a	0	0	0
3555484	WORD	wordpools/wasnorm_wordpool_576.txt	LTP344	ltpFR2	21	18	TRENCH	1503	n/a	n/a	0	0	0
3558184	WORD	wordpools/wasnorm_wordpool_576.txt	LTP344	ltpFR2	21	18	TRIBE	1505	n/a	n/a	0	0	0
3560682	WORD	wordpools/wasnorm_wordpool_576.txt	LTP344	ltpFR2	21	18	BISON	131	n/a	n/a	0	0	0
3563415	WORD	wordpools/wasnorm_wordpool_576.txt	LTP344	ltpFR2	21	18	ANTLER	29	n/a	n/a	0	0	0
3566214	WORD	wordpools/wasnorm_wordpool_576.txt	LTP344	ltpFR2	21	18	COLLEGE	346	n/a	n/a	0	0	0
3568862	WORD	wordpools/wasnorm_wordpool_576.txt	LTP344	ltpFR2	21	18	HAND	683	n/a	n/a	0	0	0
3571677	WORD	wordpools/wasnorm_wordpool_576.txt	LTP344	ltpFR2	21	18	SUPPER	1411	n/a	n/a	0	0	0
3574110	WORD	wordpools/wasnorm_wordpool_576.txt	LTP344	ltpFR2	21	18	GRAVEL	659	n/a	n/a	0	0	0
3576608	WORD	wordpools/wasnorm_wordpool_576.txt	LTP344	ltpFR2	21	18	CAFE	216	n/a	n/a	0	0	0
3579241	WORD	wordpools/wasnorm_wordpool_576.txt	LTP344	ltpFR2	21	18	SPARROW	1347	n/a	n/a	0	0	0
3581822	WORD	wordpools/wasnorm_wordpool_576.txt	LTP344	ltpFR2	21	18	SEAGULL	1261	n/a	n/a	0	0	0
3584504	WORD	wordpools/wasnorm_wordpool_576.txt	LTP344	ltpFR2	21	18	SODA	1341	n/a	n/a	0	0	0
3587304	WORD	wordpools/wasnorm_wordpool_576.txt	LTP344	ltpFR2	21	18	COCKTAIL	338	n/a	n/a	0	0	0
3590070	WORD	wordpools/wasnorm_wordpool_576.txt	LTP344	ltpFR2	21	18	VICTIM	1562	n/a	n/a	0	0	0
3592784	WORD	wordpools/wasnorm_wordpool_576.txt	LTP344	ltpFR2	21	18	MARKET	871	n/a	n/a	0	0	0
3595317	WORD	wordpools/wasnorm_wordpool_576.txt	LTP344	ltpFR2	21	18	PLUTO	1092	n/a	n/a	0	0	0
3598133	WORD	wordpools/wasnorm_wordpool_576.txt	LTP344	ltpFR2	21	18	AGENT	10	n/a	n/a	0	0	0
3600914	WORD	wordpools/wasnorm_wordpool_576.txt	LTP344	ltpFR2	21	18	PENGUIN	1044	n/a	n/a	0	0	0
3603513	WORD	wordpools/wasnorm_wordpool_576.txt	LTP344	ltpFR2	21	18	GARBAGE	622	n/a	n/a	0	0	0
3606246	WORD	wordpools/wasnorm_wordpool_576.txt	LTP344	ltpFR2	21	18	MILDEW	893	n/a	n/a	0	0	0
3609027	WORD	wordpools/wasnorm_wordpool_576.txt	LTP344	ltpFR2	21	18	PARSLEY	1016	n/a	n/a	0	0	0
3610643	START	n/a	LTP344	ltpFR2	21	n/a	n/a	n/a	26	n/a	n/a	n/a	n/a
3611642	DISTRACTOR	n/a	LTP344	ltpFR2	21	18	n/a	n/a	n/a	n/a	0	0	0
3611659	PROB	n/a	LTP344	ltpFR2	21	n/a	n/a	n/a	26	20	8	6	6
3613491	PROB	n/a	LTP344	ltpFR2	21	n/a	n/a	n/a	26	12	5	4	3
3616673	PROB	n/a	LTP344	ltpFR2	21	n/a	n/a	n/a	26	15	5	7	3
3617973	PROB	n/a	LTP344	ltpFR2	21	n/a	n/a	n/a	26	7	1	4	2
3620056	PROB	n/a	LTP344	ltpFR2	21	n/a	n/a	n/a	26	21	9	9	3
3621721	PROB	n/a	LTP344	ltpFR2	21	n/a	n/a	n/a	26	19	6	9	4
3623537	PROB	n/a	LTP344	ltpFR2	21	n/a	n/a	n/a	26	15	6	4	3
3625387	PROB	n/a	LTP344	ltpFR2	21	n/a	n/a	n/a	26	7	4	1	2
3627502	PROB	n/a	LTP344	ltpFR2	21	n/a	n/a	n/a	26	20	7	4	9
3629617	PROB	n/a	LTP344	ltpFR2	21	n/a	n/a	n/a	26	18	6	5	7
3631218	PROB	n/a	LTP344	ltpFR2	21	n/a	n/a	n/a	26	21	9	9	3
3632367	PROB	n/a	LTP344	ltpFR2	21	n/a	n/a	n/a	26	14	3	9	2
3634002	STOP	n/a	LTP344	ltpFR2	21	n/a	n/a	n/a	26	n/a	n/a	n/a	n/a
3636515	REC_START	n/a	LTP344	ltpFR2	21	18	n/a	n/a	n/a	n/a	0	0	0
3637048	REC_WORD	wordpools/wasnorm_wordpool_576.txt	LTP344	ltpFR2	21	18	PARSLEY	1016	n/a	n/a	0	0	0
3637917	REC_WORD	wordpools/wasnorm_wordpool_576.txt	LTP344	ltpFR2	21	18	GARBAGE	622	n/a	n/a	0	0	0
3639020	REC_WORD	wordpools/wasnorm_wordpool_576.txt	LTP344	ltpFR2	21	18	MARKET	871	n/a	n/a	0	0	0
3640045	REC_WORD	wordpools/wasnorm_wordpool_576.txt	LTP344	ltpFR2	21	18	TRENCH	1503	n/a	n/a	0	0	0
3641177	REC_WORD	wordpools/wasnorm_wordpool_576.txt	LTP344	ltpFR2	21	18	PORTRAIT	1111	n/a	n/a	0	0	0
3641876	REC_WORD	wordpools/wasnorm_wordpool_576.txt	LTP344	ltpFR2	21	18	VENUS	1557	n/a	n/a	0	0	0
3642853	REC_WORD	wordpools/wasnorm_wordpool_576.txt	LTP344	ltpFR2	21	18	PLUTO	1092	n/a	n/a	0	0	0
3643669	REC_WORD	wordpools/wasnorm_wordpool_576.txt	LTP344	ltpFR2	21	18	HIKER	708	n/a	n/a	0	0	0
3645147	REC_WORD	wordpools/wasnorm_wordpool_576.txt	LTP344	ltpFR2	21	18	HAND	683	n/a	n/a	0	0	0
3645744	REC_WORD	wordpools/wasnorm_wordpool_576.txt	LTP344	ltpFR2	21	18	COLLEGE	346	n/a	n/a	0	0	0
3646690	REC_WORD	wordpools/wasnorm_wordpool_576.txt	LTP344	ltpFR2	21	18	SUPPER	1411	n/a	n/a	0	0	0
3649356	REC_WORD	wordpools/wasnorm_wordpool_576.txt	LTP344	ltpFR2	21	18	COCKTAIL	338	n/a	n/a	0	0	0
3650697	REC_WORD	wordpools/wasnorm_wordpool_576.txt	LTP344	ltpFR2	21	18	BISON	131	n/a	n/a	0	0	0
3651328	REC_WORD	wordpools/wasnorm_wordpool_576.txt	LTP344	ltpFR2	21	18	TRIBE	1505	n/a	n/a	0	0	0
3652722	REC_WORD	wordpools/wasnorm_wordpool_576.txt	LTP344	ltpFR2	21	18	ANTLER	29	n/a	n/a	0	0	0
3726973	WORD	wordpools/wasnorm_wordpool_576.txt	LTP344	ltpFR2	21	19	EYELASH	546	n/a	n/a	0	0	0
3729722	WORD	wordpools/wasnorm_wordpool_576.txt	LTP344	ltpFR2	21	19	STAR	1373	n/a	n/a	0	0	0
3732405	WORD	wordpools/wasnorm_wordpool_576.txt	LTP344	ltpFR2	21	19	PIZZA	1079	n/a	n/a	0	0	0
3734869	WORD	wordpools/wasnorm_wordpool_576.txt	LTP344	ltpFR2	21	19	COOKBOOK	373	n/a	n/a	0	0	0
3737369	WORD	wordpools/wasnorm_wordpool_576.txt	LTP344	ltpFR2	21	19	PAIL	1002	n/a	n/a	0	0	0
3739967	WORD	wordpools/wasnorm_wordpool_576.txt	LTP344	ltpFR2	21	19	SIDEWALK	1303	n/a	n/a	0	0	0
3742483	WORD	wordpools/wasnorm_wordpool_576.txt	LTP344	ltpFR2	21	19	SUNRISE	1407	n/a	n/a	0	0	0
3744932	WORD	wordpools/wasnorm_wordpool_576.txt	LTP344	ltpFR2	21	19	OX	994	n/a	n/a	0	0	0
3747630	WORD	wordpools/wasnorm_wordpool_576.txt	LTP344	ltpFR2	21	19	CASKET	255	n/a	n/a	0	0	0
3750263	WORD	wordpools/wasnorm_wordpool_576.txt	LTP344	ltpFR2	21	19	SMOG	1330	n/a	n/a	0	0	0
3752911	WORD	wordpools/wasnorm_wordpool_576.txt	LTP344	ltpFR2	21	19	CUSTARD	429	n/a	n/a	0	0	0
3755477	WORD	wordpools/wasnorm_wordpool_576.txt	LTP344	ltpFR2	21	19	CEILING	265	n/a	n/a	0	0	0
3758160	WORD	wordpools/wasnorm_wordpool_576.txt	LTP344	ltpFR2	21	19	RUG	1215	n/a	n/a	0	0	0
3760941	WORD	wordpools/wasnorm_wordpool_576.txt	LTP344	ltpFR2	21	19	CIGAR	308	n/a	n/a	0	0	0
3763506	WORD	wordpools/wasnorm_wordpool_576.txt	LTP344	ltpFR2	21	19	KEEPER	769	n/a	n/a	0	0	0
3766140	WORD	wordpools/wasnorm_wordpool_576.txt	LTP344	ltpFR2	21	19	LIPSTICK	829	n/a	n/a	0	0	0
3768588	WORD	wordpools/wasnorm_wordpool_576.txt	LTP344	ltpFR2	21	19	TWISTER	1530	n/a	n/a	0	0	0
3771154	WORD	wordpools/wasnorm_wordpool_576.txt	LTP344	ltpFR2	21	19	SKETCH	1315	n/a	n/a	0	0	0
3773785	WORD	wordpools/wasnorm_wordpool_576.txt	LTP344	ltpFR2	21	19	STALLION	1369	n/a	n/a	0	0	0
3776368	WORD	wordpools/wasnorm_wordpool_576.txt	LTP344	ltpFR2	21	19	DONKEY	484	n/a	n/a	0	0	0
3778816	WORD	wordpools/wasnorm_wordpool_576.txt	LTP344	ltpFR2	21	19	SCRIBBLE	1256	n/a	n/a	0	0	0
3781249	WORD	wordpools/wasnorm_wordpool_576.txt	LTP344	ltpFR2	21	19	TURNIP	1521	n/a	n/a	0	0	0
3783881	WORD	wordpools/wasnorm_wordpool_576.txt	LTP344	ltpFR2	21	19	GRAVE	658	n/a	n/a	0	0	0
3786397	WORD	wordpools/wasnorm_wordpool_576.txt	LTP344	ltpFR2	21	19	SUNSET	1408	n/a	n/a	0	0	0
3788012	START	n/a	LTP344	ltpFR2	21	n/a	n/a	n/a	27	n/a	n/a	n/a	n/a
3788893	DISTRACTOR	n/a	LTP344	ltpFR2	21	19	n/a	n/a	n/a	n/a	0	0	0
3788895	PROB	n/a	LTP344	ltpFR2	21	n/a	n/a	n/a	27	10	6	3	1
3790727	PROB	n/a	LTP344	ltpFR2	21	n/a	n/a	n/a	27	13	8	3	2
3793010	PROB	n/a	LTP344	ltpFR2	21	n/a	n/a	n/a	27	15	8	6	1
3794609	PROB	n/a	LTP344	ltpFR2	21	n/a	n/a	n/a	27	9	2	6	1
3795825	PROB	n/a	LTP344	ltpFR2	21	n/a	n/a	n/a	27	16	9	5	2
3797674	PROB	n/a	LTP344	ltpFR2	21	n/a	n/a	n/a	27	13	6	4	3
3799358	PROB	n/a	LTP344	ltpFR2	21	n/a	n/a	n/a	27	15	7	3	5
3800673	PROB	n/a	LTP344	ltpFR2	21	n/a	n/a	n/a	27	14	5	3	6
3802838	PROB	n/a	LTP344	ltpFR2	21	n/a	n/a	n/a	27	14	5	3	6
3804904	PROB	n/a	LTP344	ltpFR2	21	n/a	n/a	n/a	27	18	8	4	6
3806321	PROB	n/a	LTP344	ltpFR2	21	n/a	n/a	n/a	27	15	8	1	6
3807803	PROB	n/a	LTP344	ltpFR2	21	n/a	n/a	n/a	27	13	8	3	2
3809536	PROB	n/a	LTP344	ltpFR2	21	n/a	n/a	n/a	27	5	1	3	1
3810535	STOP	n/a	LTP344	ltpFR2	21	n/a	n/a	n/a	27	n/a	n/a	n/a	n/a
3813767	REC_START	n/a	LTP344	ltpFR2	21	19	n/a	n/a	n/a	n/a	0	0	0
3815197	REC_WORD	wordpools/wasnorm_wordpool_576.txt	LTP344	ltpFR2	21	19	KEEPER	769	n/a	n/a	0	0	0
3815788	REC_WORD	wordpools/wasnorm_wordpool_576.txt	LTP344	ltpFR2	21	19	STALLION	1369	n/a	n/a	0	0	0
3816885	REC_WORD	wordpools/wasnorm_wordpool_576.txt	LTP344	ltpFR2	21	19	DONKEY	484	n/a	n/a	0	0	0
3817554	REC_WORD	wordpools/wasnorm_wordpool_576.txt	LTP344	ltpFR2	21	19	SUNRISE	1407	n/a	n/a	0	0	0
3818473	REC_WORD	wordpools/wasnorm_wordpool_576.txt	LTP344	ltpFR2	21	19	SUNSET	1408	n/a	n/a	0	0	0
3819440	REC_WORD	wordpools/wasnorm_wordpool_576.txt	LTP344	ltpFR2	21	19	OX	994	n/a	n/a	0	0	0
3820246	REC_WORD	wordpools/wasnorm_wordpool_576.txt	LTP344	ltpFR2	21	19	CASKET	255	n/a	n/a	0	0	0
3904227	DISTRACTOR	n/a	LTP344	ltpFR2	21	20	n/a	n/a	n/a	n/a	0	0	0
3904227	START	n/a	LTP344	ltpFR2	21	n/a	n/a	n/a	28	n/a	n/a	n/a	n/a
3904243	PROB	n/a	LTP344	ltpFR2	21	n/a	n/a	n/a	28	18	8	5	5
3906126	PROB	n/a	LTP344	ltpFR2	21	n/a	n/a	n/a	28	21	9	9	3
3907409	PROB	n/a	LTP344	ltpFR2	21	n/a	n/a	n/a	28	17	7	7	3
3908790	PROB	n/a	LTP344	ltpFR2	21	n/a	n/a	n/a	28	13	8	4	1
3910873	PROB	n/a	LTP344	ltpFR2	21	n/a	n/a	n/a	28	17	2	9	6
3913455	PROB	n/a	LTP344	ltpFR2	21	n/a	n/a	n/a	28	14	2	4	8
3915222	PROB	n/a	LTP344	ltpFR2	21	n/a	n/a	n/a	28	10	2	5	3
3916654	PROB	n/a	LTP344	ltpFR2	21	n/a	n/a	n/a	28	18	5	5	8
3917953	PROB	n/a	LTP344	ltpFR2	21	n/a	n/a	n/a	28	18	4	7	7
3919137	PROB	n/a	LTP344	ltpFR2	21	n/a	n/a	n/a	28	15	8	2	5
3920518	PROB	n/a	LTP344	ltpFR2	21	n/a	n/a	n/a	28	12	7	4	1
3921635	PROB	n/a	LTP344	ltpFR2	21	n/a	n/a	n/a	28	16	1	9	6
3922717	PROB	n/a	LTP344	ltpFR2	21	n/a	n/a	n/a	28	12	4	2	6
3923884	PROB	n/a	LTP344	ltpFR2	21	n/a	n/a	n/a	28	8	5	1	2
3925151	PROB	n/a	LTP344	ltpFR2	21	n/a	n/a	n/a	28	6	1	2	3
3928227	STOP	n/a	LTP344	ltpFR2	21	n/a	n/a	n/a	28	n/a	n/a	n/a	n/a
3929116	WORD	wordpools/wasnorm_wordpool_576.txt	LTP344	ltpFR2	21	20	LEOPARD	812	n/a	n/a	0	0	0
3931830	WORD	wordpools/wasnorm_wordpool_576.txt	LTP344	ltpFR2	21	20	POSSUM	1112	n/a	n/a	0	0	0
3934430	WORD	wordpools/wasnorm_wordpool_576.txt	LTP344	ltpFR2	21	20	GARDEN	623	n/a	n/a	0	0	0
3936894	WORD	wordpools/wasnorm_wordpool_576.txt	LTP344	ltpFR2	21	20	DRESSER	496	n/a	n/a	0	0	0
3939543	WORD	wordpools/wasnorm_wordpool_576.txt	LTP344	ltpFR2	21	20	CHEST	295	n/a	n/a	0	0	0
3942243	WORD	wordpools/wasnorm_wordpool_576.txt	LTP344	ltpFR2	21	20	HOSTESS	723	n/a	n/a	0	0	0
3944791	WORD	wordpools/wasnorm_wordpool_576.txt	LTP344	ltpFR2	21	20	FARMER	553	n/a	n/a	0	0	0
3947473	WORD	wordpools/wasnorm_wordpool_576.txt	LTP344	ltpFR2	21	20	PASSAGE	1019	n/a	n/a	0	0	0
3950256	WORD	wordpools/wasnorm_wordpool_576.txt	LTP344	ltpFR2	21	20	PANTHER	1009	n/a	n/a	0	0	0
3952820	WORD	wordpools/wasnorm_wordpool_576.txt	LTP344	ltpFR2	21	20	RECORD	1176	n/a	n/a	0	0	0
3955586	WORD	wordpools/wasnorm_wordpool_576.txt	LTP344	ltpFR2	21	20	TRACTOR	1493	n/a	n/a	0	0	0
3958352	WORD	wordpools/wasnorm_wordpool_576.txt	LTP344	ltpFR2	21	20	BARLEY	88	n/a	n/a	0	0	0
3960817	WORD	wordpools/wasnorm_wordpool_576.txt	LTP344	ltpFR2	21	20	NEUTRON	947	n/a	n/a	0	0	0
3963367	WORD	wordpools/wasnorm_wordpool_576.txt	LTP344	ltpFR2	21	20	ATOM	55	n/a	n/a	0	0	0
3965881	WORD	wordpools/wasnorm_wordpool_576.txt	LTP344	ltpFR2	21	20	FIDDLE	561	n/a	n/a	0	0	0
3968547	WORD	wordpools/wasnorm_wordpool_576.txt	LTP344	ltpFR2	21	20	SWIMMER	1420	n/a	n/a	0	0	0
3971146	WORD	wordpools/wasnorm_wordpool_576.txt	LTP344	ltpFR2	21	20	RECEIPT	1173	n/a	n/a	0	0	0
3973961	WORD	wordpools/wasnorm_wordpool_576.txt	LTP344	ltpFR2	21	20	TUNNEL	1519	n/a	n/a	0	0	0
3976743	WORD	wordpools/wasnorm_wordpool_576.txt	LTP344	ltpFR2	21	20	FLAG	573	n/a	n/a	0	0	0
3979259	WORD	wordpools/wasnorm_wordpool_576.txt	LTP344	ltpFR2	21	20	STOVE	1388	n/a	n/a	0	0	0
3981941	WORD	wordpools/wasnorm_wordpool_576.txt	LTP344	ltpFR2	21	20	POPCORN	1104	n/a	n/a	0	0	0
3984756	WORD	wordpools/wasnorm_wordpool_576.txt	LTP344	ltpFR2	21	20	LUMBER	848	n/a	n/a	0	0	0
3987471	WORD	wordpools/wasnorm_wordpool_576.txt	LTP344	ltpFR2	21	20	ELBOW	520	n/a	n/a	0	0	0
3990121	WORD	wordpools/wasnorm_wordpool_576.txt	LTP344	ltpFR2	21	20	LAMP	798	n/a	n/a	0	0	0
3991736	START	n/a	LTP344	ltpFR2	21	n/a	n/a	n/a	29	n/a	n/a	n/a	n/a
3992757	DISTRACTOR	n/a	LTP344	ltpFR2	21	20	n/a	n/a	n/a	n/a	0	0	0
3992769	PROB	n/a	LTP344	ltpFR2	21	n/a	n/a	n/a	29	17	5	4	8
3994918	PROB	n/a	LTP344	ltpFR2	21	n/a	n/a	n/a	29	23	7	8	8
3996850	PROB	n/a	LTP344	ltpFR2	21	n/a	n/a	n/a	29	26	9	9	8
3999532	PROB	n/a	LTP344	ltpFR2	21	n/a	n/a	n/a	29	9	1	7	1
4001665	PROB	n/a	LTP344	ltpFR2	21	n/a	n/a	n/a	29	16	8	5	3
4003182	PROB	n/a	LTP344	ltpFR2	21	n/a	n/a	n/a	29	21	4	8	9
4004997	PROB	n/a	LTP344	ltpFR2	21	n/a	n/a	n/a	29	18	7	3	8
4006181	PROB	n/a	LTP344	ltpFR2	21	n/a	n/a	n/a	29	16	1	6	9
4007629	PROB	n/a	LTP344	ltpFR2	21	n/a	n/a	n/a	29	25	9	9	7
4009511	PROB	n/a	LTP344	ltpFR2	21	n/a	n/a	n/a	29	17	2	6	9
4011577	PROB	n/a	LTP344	ltpFR2	21	n/a	n/a	n/a	29	7	2	3	2
4014493	STOP	n/a	LTP344	ltpFR2	21	n/a	n/a	n/a	29	n/a	n/a	n/a	n/a
4017658	REC_START	n/a	LTP344	ltpFR2	21	20	n/a	n/a	n/a	n/a	0	0	0
4018072	REC_WORD	wordpools/wasnorm_wordpool_576.txt	LTP344	ltpFR2	21	20	FARMER	553	n/a	n/a	0	0	0
4019250	REC_WORD	wordpools/wasnorm_wordpool_576.txt	LTP344	ltpFR2	21	20	LEOPARD	812	n/a	n/a	0	0	0
4021422	REC_WORD	wordpools/wasnorm_wordpool_576.txt	LTP344	ltpFR2	21	20	POSSUM	1112	n/a	n/a	0	0	0
4023834	REC_WORD	wordpools/wasnorm_wordpool_576.txt	LTP344	ltpFR2	21	20	GARDEN	623	n/a	n/a	0	0	0
4024457	REC_WORD	wordpools/wasnorm_wordpool_576.txt	LTP344	ltpFR2	21	20	DRESSER	496	n/a	n/a	0	0	0
4025093	REC_WORD	wordpools/wasnorm_wordpool_576.txt	LTP344	ltpFR2	21	20	CHEST	295	n/a	n/a	0	0	0
4108101	DISTRACTOR	n/a	LTP344	ltpFR2	21	21	n/a	n/a	n/a	n/a	0	0	0
4108101	START	n/a	LTP344	ltpFR2	21	n/a	n/a	n/a	30	n/a	n/a	n/a	n/a
4108118	PROB	n/a	LTP344	ltpFR2	21	n/a	n/a	n/a	30	11	2	1	8
4109832	PROB	n/a	LTP344	ltpFR2	21	n/a	n/a	n/a	30	12	2	8	2
4111416	PROB	n/a	LTP344	ltpFR2	21	n/a	n/a	n/a	30	20	9	4	7
4113265	PROB	n/a	LTP344	ltpFR2	21	n/a	n/a	n/a	30	12	1	5	6
4114514	PROB	n/a	LTP344	ltpFR2	21	n/a	n/a	n/a	30	17	7	2	8
4116097	PROB	n/a	LTP344	ltpFR2	21	n/a	n/a	n/a	30	16	7	6	3
4118895	PROB	n/a	LTP344	ltpFR2	21	n/a	n/a	n/a	30	21	8	6	7
4122144	PROB	n/a	LTP344	ltpFR2	21	n/a	n/a	n/a	30	12	8	2	2
4123361	PROB	n/a	LTP344	ltpFR2	21	n/a	n/a	n/a	30	19	8	9	2
4125759	PROB	n/a	LTP344	ltpFR2	21	n/a	n/a	n/a	30	23	8	8	7
4127958	PROB	n/a	LTP344	ltpFR2	21	n/a	n/a	n/a	30	11	1	8	2
4132100	STOP	n/a	LTP344	ltpFR2	21	n/a	n/a	n/a	30	n/a	n/a	n/a	n/a
4132939	WORD	wordpools/wasnorm_wordpool_576.txt	LTP344	ltpFR2	21	21	CORAL	378	n/a	n/a	0	0	0
4135737	WORD	wordpools/wasnorm_wordpool_576.txt	LTP344	ltpFR2	21	21	BACKBONE	66	n/a	n/a	0	0	0
4138337	WORD	wordpools/wasnorm_wordpool_576.txt	LTP344	ltpFR2	21	21	SHERIFF	1284	n/a	n/a	0	0	0
4141018	WORD	wordpools/wasnorm_wordpool_576.txt	LTP344	ltpFR2	21	21	DENIM	446	n/a	n/a	0	0	0
4143684	WORD	wordpools/wasnorm_wordpool_576.txt	LTP344	ltpFR2	21	21	COMPASS	358	n/a	n/a	0	0	0
4146400	WORD	wordpools/wasnorm_wordpool_576.txt	LTP344	ltpFR2	21	21	DRAWING	494	n/a	n/a	0	0	0
4148965	WORD	wordpools/wasnorm_wordpool_576.txt	LTP344	ltpFR2	21	21	HATCHET	691	n/a	n/a	0	0	0
4151680	WORD	wordpools/wasnorm_wordpool_576.txt	LTP344	ltpFR2	21	21	RAZOR	1171	n/a	n/a	0	0	0
4154280	WORD	wordpools/wasnorm_wordpool_576.txt	LTP344	ltpFR2	21	21	HOUND	724	n/a	n/a	0	0	0
4156894	WORD	wordpools/wasnorm_wordpool_576.txt	LTP344	ltpFR2	21	21	SCULPTURE	1258	n/a	n/a	0	0	0
4159394	WORD	wordpools/wasnorm_wordpool_576.txt	LTP344	ltpFR2	21	21	TABLET	1427	n/a	n/a	0	0	0
4162110	WORD	wordpools/wasnorm_wordpool_576.txt	LTP344	ltpFR2	21	21	PATROL	1027	n/a	n/a	0	0	0
4164624	WORD	wordpools/wasnorm_wordpool_576.txt	LTP344	ltpFR2	21	21	HAMPER	682	n/a	n/a	0	0	0
4167241	WORD	wordpools/wasnorm_wordpool_576.txt	LTP344	ltpFR2	21	21	STOMACH	1384	n/a	n/a	0	0	0
4169705	WORD	wordpools/wasnorm_wordpool_576.txt	LTP344	ltpFR2	21	21	PIGEON	1065	n/a	n/a	0	0	0
4172138	WORD	wordpools/wasnorm_wordpool_576.txt	LTP344	ltpFR2	21	21	PEDAL	1037	n/a	n/a	0	0	0
4174586	WORD	wordpools/wasnorm_wordpool_576.txt	LTP344	ltpFR2	21	21	HELMET	702	n/a	n/a	0	0	0
4177036	WORD	wordpools/wasnorm_wordpool_576.txt	LTP344	ltpFR2	21	21	HOOD	714	n/a	n/a	0	0	0
4179551	WORD	wordpools/wasnorm_wordpool_576.txt	LTP344	ltpFR2	21	21	STICKER	1382	n/a	n/a	0	0	0
4182284	WORD	wordpools/wasnorm_wordpool_576.txt	LTP344	ltpFR2	21	21	WOMAN	1620	n/a	n/a	0	0	0
4184915	WORD	wordpools/wasnorm_wordpool_576.txt	LTP344	ltpFR2	21	21	MAILBOX	857	n/a	n/a	0	0	0
4187415	WORD	wordpools/wasnorm_wordpool_576.txt	LTP344	ltpFR2	21	21	MOTOR	922	n/a	n/a	0	0	0
4189979	WORD	wordpools/wasnorm_wordpool_576.txt	LTP344	ltpFR2	21	21	STATUE	1374	n/a	n/a	0	0	0
4192778	WORD	wordpools/wasnorm_wordpool_576.txt	LTP344	ltpFR2	21	21	ISLAND	745	n/a	n/a	0	0	0
4194395	START	n/a	LTP344	ltpFR2	21	n/a	n/a	n/a	31	n/a	n/a	n/a	n/a
4195508	DISTRACTOR	n/a	LTP344	ltpFR2	21	21	n/a	n/a	n/a	n/a	0	0	0
4195510	PROB	n/a	LTP344	ltpFR2	21	n/a	n/a	n/a	31	7	1	4	2
4196993	PROB	n/a	LTP344	ltpFR2	21	n/a	n/a	n/a	31	14	6	7	1
4198642	PROB	n/a	LTP344	ltpFR2	21	n/a	n/a	n/a	31	9	1	6	2
4200076	PROB	n/a	LTP344	ltpFR2	21	n/a	n/a	n/a	31	14	3	9	2
4201924	PROB	n/a	LTP344	ltpFR2	21	n/a	n/a	n/a	31	11	2	8	1
4203158	PROB	n/a	LTP344	ltpFR2	21	n/a	n/a	n/a	31	5	2	1	2
4204107	PROB	n/a	LTP344	ltpFR2	21	n/a	n/a	n/a	31	12	4	3	5
4206190	PROB	n/a	LTP344	ltpFR2	21	n/a	n/a	n/a	31	9	3	3	3
4207356	PROB	n/a	LTP344	ltpFR2	21	n/a	n/a	n/a	31	16	4	2	7
4209072	PROB	n/a	LTP344	ltpFR2	21	n/a	n/a	n/a	31	7	2	3	2
4210837	PROB	n/a	LTP344	ltpFR2	21	n/a	n/a	n/a	31	17	9	1	7
4212204	PROB	n/a	LTP344	ltpFR2	21	n/a	n/a	n/a	31	11	2	3	6
4214585	PROB	n/a	LTP344	ltpFR2	21	n/a	n/a	n/a	31	11	3	4	4
4216001	PROB	n/a	LTP344	ltpFR2	21	n/a	n/a	n/a	31	16	5	4	7
4217412	STOP	n/a	LTP344	ltpFR2	21	n/a	n/a	n/a	31	n/a	n/a	n/a	n/a
4220317	REC_START	n/a	LTP344	ltpFR2	21	21	n/a	n/a	n/a	n/a	0	0	0
4223190	REC_WORD	wordpools/wasnorm_wordpool_576.txt	LTP344	ltpFR2	21	21	HATCHET	691	n/a	n/a	0	0	0
4224509	REC_WORD	wordpools/wasnorm_wordpool_576.txt	LTP344	ltpFR2	21	21	PIGEON	1065	n/a	n/a	0	0	0
4227675	REC_WORD	wordpools/wasnorm_wordpool_576.txt	LTP344	ltpFR2	21	21	HELMET	702	n/a	n/a	0	0	0
4242620	REC_WORD	wordpools/wasnorm_wordpool_576.txt	LTP344	ltpFR2	21	21	MAILBOX	857	n/a	n/a	0	0	0
4256397	REC_WORD_VV	wordpools/wasnorm_wordpool_576.txt	LTP344	ltpFR2	21	21	<>	-1	n/a	n/a	0	0	0
4310758	DISTRACTOR	n/a	LTP344	ltpFR2	21	22	n/a	n/a	n/a	n/a	0	0	0
4310758	START	n/a	LTP344	ltpFR2	21	n/a	n/a	n/a	32	n/a	n/a	n/a	n/a
4310774	PROB	n/a	LTP344	ltpFR2	21	n/a	n/a	n/a	32	23	7	7	9
4312840	PROB	n/a	LTP344	ltpFR2	21	n/a	n/a	n/a	32	14	5	3	6
4315123	PROB	n/a	LTP344	ltpFR2	21	n/a	n/a	n/a	32	24	9	6	9
4317322	PROB	n/a	LTP344	ltpFR2	21	n/a	n/a	n/a	32	11	3	1	7
4318272	PROB	n/a	LTP344	ltpFR2	21	n/a	n/a	n/a	32	14	8	3	3
4319554	PROB	n/a	LTP344	ltpFR2	21	n/a	n/a	n/a	32	17	9	5	3
4322337	PROB	n/a	LTP344	ltpFR2	21	n/a	n/a	n/a	32	16	3	5	8
4324468	PROB	n/a	LTP344	ltpFR2	21	n/a	n/a	n/a	32	20	8	6	6
4325634	PROB	n/a	LTP344	ltpFR2	21	n/a	n/a	n/a	32	24	6	8	9
4328151	PROB	n/a	LTP344	ltpFR2	21	n/a	n/a	n/a	32	13	1	8	4
4330615	PROB	n/a	LTP344	ltpFR2	21	n/a	n/a	n/a	32	24	9	7	8
