mstime	trial_type	stim_file	subject	experiment	session	trial	item_name	item_num	list	answer	test_x	test_y	test_z
0	SESS_START	n/a	LTP364	ltpFR2	23	n/a	n/a	n/a	n/a	n/a	0	0	0
13729	START	n/a	LTP364	ltpFR2	23	n/a	n/a	n/a	-1	n/a	n/a	n/a	n/a
13760	PROB	n/a	LTP364	ltpFR2	23	n/a	n/a	n/a	-1	21	8	7	6
15726	PROB	n/a	LTP364	ltpFR2	23	n/a	n/a	n/a	-1	9	3	4	2
18975	PROB	n/a	LTP364	ltpFR2	23	n/a	n/a	n/a	-1	11	1	8	2
21790	PROB	n/a	LTP364	ltpFR2	23	n/a	n/a	n/a	-1	20	7	7	6
25528	STOP	n/a	LTP364	ltpFR2	23	n/a	n/a	n/a	-1	n/a	n/a	n/a	n/a
55158	DISTRACTOR	n/a	LTP364	ltpFR2	23	1	n/a	n/a	n/a	n/a	0	0	0
55158	START	n/a	LTP364	ltpFR2	23	n/a	n/a	n/a	1	n/a	n/a	n/a	n/a
55175	PROB	n/a	LTP364	ltpFR2	23	n/a	n/a	n/a	1	17	5	6	6
57690	PROB	n/a	LTP364	ltpFR2	23	n/a	n/a	n/a	1	15	3	6	6
60106	PROB	n/a	LTP364	ltpFR2	23	n/a	n/a	n/a	1	20	9	4	7
62238	PROB	n/a	LTP364	ltpFR2	23	n/a	n/a	n/a	1	14	5	4	5
63871	PROB	n/a	LTP364	ltpFR2	23	n/a	n/a	n/a	1	15	9	5	1
66220	PROB	n/a	LTP364	ltpFR2	23	n/a	n/a	n/a	1	3	1	1	1
67253	PROB	n/a	LTP364	ltpFR2	23	n/a	n/a	n/a	1	12	6	5	1
68735	PROB	n/a	LTP364	ltpFR2	23	n/a	n/a	n/a	1	18	7	3	8
70201	PROB	n/a	LTP364	ltpFR2	23	n/a	n/a	n/a	1	8	3	4	1
72217	PROB	n/a	LTP364	ltpFR2	23	n/a	n/a	n/a	1	20	8	3	9
76416	PROB	n/a	LTP364	ltpFR2	23	n/a	n/a	n/a	1	17	5	8	4
78698	STOP	n/a	LTP364	ltpFR2	23	n/a	n/a	n/a	1	n/a	n/a	n/a	n/a
80097	WORD	wordpools/wasnorm_wordpool_576.txt	LTP364	ltpFR2	23	1	SEAGULL	1261	n/a	n/a	0	0	0
82729	WORD	wordpools/wasnorm_wordpool_576.txt	LTP364	ltpFR2	23	1	PARTNER	1017	n/a	n/a	0	0	0
85511	WORD	wordpools/wasnorm_wordpool_576.txt	LTP364	ltpFR2	23	1	KIDNEY	776	n/a	n/a	0	0	0
88010	WORD	wordpools/wasnorm_wordpool_576.txt	LTP364	ltpFR2	23	1	DUSTPAN	509	n/a	n/a	0	0	0
90759	WORD	wordpools/wasnorm_wordpool_576.txt	LTP364	ltpFR2	23	1	BUGGY	188	n/a	n/a	0	0	0
93442	WORD	wordpools/wasnorm_wordpool_576.txt	LTP364	ltpFR2	23	1	CIRCUS	311	n/a	n/a	0	0	0
95923	WORD	wordpools/wasnorm_wordpool_576.txt	LTP364	ltpFR2	23	1	PARCEL	1012	n/a	n/a	0	0	0
98489	WORD	wordpools/wasnorm_wordpool_576.txt	LTP364	ltpFR2	23	1	PEDAL	1037	n/a	n/a	0	0	0
101054	WORD	wordpools/wasnorm_wordpool_576.txt	LTP364	ltpFR2	23	1	LONDON	843	n/a	n/a	0	0	0
103520	WORD	wordpools/wasnorm_wordpool_576.txt	LTP364	ltpFR2	23	1	DOG	480	n/a	n/a	0	0	0
105985	WORD	wordpools/wasnorm_wordpool_576.txt	LTP364	ltpFR2	23	1	CRIB	407	n/a	n/a	0	0	0
108784	WORD	wordpools/wasnorm_wordpool_576.txt	LTP364	ltpFR2	23	1	RIBBON	1189	n/a	n/a	0	0	0
111316	WORD	wordpools/wasnorm_wordpool_576.txt	LTP364	ltpFR2	23	1	SHAMPOO	1274	n/a	n/a	0	0	0
113815	WORD	wordpools/wasnorm_wordpool_576.txt	LTP364	ltpFR2	23	1	PLANET	1082	n/a	n/a	0	0	0
116398	WORD	wordpools/wasnorm_wordpool_576.txt	LTP364	ltpFR2	23	1	HOUSE	725	n/a	n/a	0	0	0
119013	WORD	wordpools/wasnorm_wordpool_576.txt	LTP364	ltpFR2	23	1	SKATE	1313	n/a	n/a	0	0	0
121461	WORD	wordpools/wasnorm_wordpool_576.txt	LTP364	ltpFR2	23	1	STAIRS	1367	n/a	n/a	0	0	0
124277	WORD	wordpools/wasnorm_wordpool_576.txt	LTP364	ltpFR2	23	1	COUCH	386	n/a	n/a	0	0	0
126992	WORD	wordpools/wasnorm_wordpool_576.txt	LTP364	ltpFR2	23	1	PADDING	999	n/a	n/a	0	0	0
129508	WORD	wordpools/wasnorm_wordpool_576.txt	LTP364	ltpFR2	23	1	GLACIER	638	n/a	n/a	0	0	0
132073	WORD	wordpools/wasnorm_wordpool_576.txt	LTP364	ltpFR2	23	1	BASEBALL	93	n/a	n/a	0	0	0
134672	WORD	wordpools/wasnorm_wordpool_576.txt	LTP364	ltpFR2	23	1	SATURN	1236	n/a	n/a	0	0	0
137221	WORD	wordpools/wasnorm_wordpool_576.txt	LTP364	ltpFR2	23	1	ROBIN	1199	n/a	n/a	0	0	0
139820	WORD	wordpools/wasnorm_wordpool_576.txt	LTP364	ltpFR2	23	1	PENGUIN	1044	n/a	n/a	0	0	0
141437	START	n/a	LTP364	ltpFR2	23	n/a	n/a	n/a	2	n/a	n/a	n/a	n/a
142366	DISTRACTOR	n/a	LTP364	ltpFR2	23	1	n/a	n/a	n/a	n/a	0	0	0
142370	PROB	n/a	LTP364	ltpFR2	23	n/a	n/a	n/a	2	17	9	1	7
144734	PROB	n/a	LTP364	ltpFR2	23	n/a	n/a	n/a	2	13	3	3	7
147616	PROB	n/a	LTP364	ltpFR2	23	n/a	n/a	n/a	2	12	3	3	6
150049	PROB	n/a	LTP364	ltpFR2	23	n/a	n/a	n/a	2	155	8	1	6
151815	PROB	n/a	LTP364	ltpFR2	23	n/a	n/a	n/a	2	11	4	5	2
155863	PROB	n/a	LTP364	ltpFR2	23	n/a	n/a	n/a	2	18	6	5	7
158528	PROB	n/a	LTP364	ltpFR2	23	n/a	n/a	n/a	2	18	4	5	9
160244	PROB	n/a	LTP364	ltpFR2	23	n/a	n/a	n/a	2	20	7	7	6
163176	PROB	n/a	LTP364	ltpFR2	23	n/a	n/a	n/a	2	15	6	4	5
164492	STOP	n/a	LTP364	ltpFR2	23	n/a	n/a	n/a	2	n/a	n/a	n/a	n/a
167275	REC_START	n/a	LTP364	ltpFR2	23	1	n/a	n/a	n/a	n/a	0	0	0
170647	REC_WORD	wordpools/wasnorm_wordpool_576.txt	LTP364	ltpFR2	23	1	SEAGULL	1261	n/a	n/a	0	0	0
171533	REC_WORD	wordpools/wasnorm_wordpool_576.txt	LTP364	ltpFR2	23	1	PARTNER	1017	n/a	n/a	0	0	0
172875	REC_WORD	wordpools/wasnorm_wordpool_576.txt	LTP364	ltpFR2	23	1	LIVER	833	n/a	n/a	0	0	0
175947	REC_WORD	wordpools/wasnorm_wordpool_576.txt	LTP364	ltpFR2	23	1	BUGGY	188	n/a	n/a	0	0	0
176761	REC_WORD	wordpools/wasnorm_wordpool_576.txt	LTP364	ltpFR2	23	1	CIRCUS	311	n/a	n/a	0	0	0
178042	REC_WORD	wordpools/wasnorm_wordpool_576.txt	LTP364	ltpFR2	23	1	PARCEL	1012	n/a	n/a	0	0	0
179556	REC_WORD	wordpools/wasnorm_wordpool_576.txt	LTP364	ltpFR2	23	1	PEDAL	1037	n/a	n/a	0	0	0
180279	REC_WORD	wordpools/wasnorm_wordpool_576.txt	LTP364	ltpFR2	23	1	LONDON	843	n/a	n/a	0	0	0
182303	REC_WORD	wordpools/wasnorm_wordpool_576.txt	LTP364	ltpFR2	23	1	DOG	480	n/a	n/a	0	0	0
184331	REC_WORD	wordpools/wasnorm_wordpool_576.txt	LTP364	ltpFR2	23	1	CRIB	407	n/a	n/a	0	0	0
185387	REC_WORD	wordpools/wasnorm_wordpool_576.txt	LTP364	ltpFR2	23	1	RIBBON	1189	n/a	n/a	0	0	0
192500	REC_WORD	wordpools/wasnorm_wordpool_576.txt	LTP364	ltpFR2	23	1	BASEBALL	93	n/a	n/a	0	0	0
195969	REC_WORD	wordpools/wasnorm_wordpool_576.txt	LTP364	ltpFR2	23	1	GLACIER	638	n/a	n/a	0	0	0
200865	REC_WORD	wordpools/wasnorm_wordpool_576.txt	LTP364	ltpFR2	23	1	SATURN	1236	n/a	n/a	0	0	0
201932	REC_WORD	wordpools/wasnorm_wordpool_576.txt	LTP364	ltpFR2	23	1	SPARROW	1347	n/a	n/a	0	0	0
202784	REC_WORD	wordpools/wasnorm_wordpool_576.txt	LTP364	ltpFR2	23	1	PENGUIN	1044	n/a	n/a	0	0	0
213504	REC_WORD	wordpools/wasnorm_wordpool_576.txt	LTP364	ltpFR2	23	1	ARMCHAIR	-1	n/a	n/a	0	0	0
257733	WORD	wordpools/wasnorm_wordpool_576.txt	LTP364	ltpFR2	23	2	WINDOW	1611	n/a	n/a	0	0	0
260265	WORD	wordpools/wasnorm_wordpool_576.txt	LTP364	ltpFR2	23	2	FOX	598	n/a	n/a	0	0	0
263081	WORD	wordpools/wasnorm_wordpool_576.txt	LTP364	ltpFR2	23	2	IDOL	733	n/a	n/a	0	0	0
265846	WORD	wordpools/wasnorm_wordpool_576.txt	LTP364	ltpFR2	23	2	COMPASS	358	n/a	n/a	0	0	0
268345	WORD	wordpools/wasnorm_wordpool_576.txt	LTP364	ltpFR2	23	2	PRINCE	1124	n/a	n/a	0	0	0
270844	WORD	wordpools/wasnorm_wordpool_576.txt	LTP364	ltpFR2	23	2	SNOB	1335	n/a	n/a	0	0	0
273659	WORD	wordpools/wasnorm_wordpool_576.txt	LTP364	ltpFR2	23	2	KEEPER	769	n/a	n/a	0	0	0
276308	WORD	wordpools/wasnorm_wordpool_576.txt	LTP364	ltpFR2	23	2	TEAPOT	1442	n/a	n/a	0	0	0
279107	WORD	wordpools/wasnorm_wordpool_576.txt	LTP364	ltpFR2	23	2	SARDINE	1235	n/a	n/a	0	0	0
281556	WORD	wordpools/wasnorm_wordpool_576.txt	LTP364	ltpFR2	23	2	COBBLER	335	n/a	n/a	0	0	0
284155	WORD	wordpools/wasnorm_wordpool_576.txt	LTP364	ltpFR2	23	2	PRISON	1127	n/a	n/a	0	0	0
286853	WORD	wordpools/wasnorm_wordpool_576.txt	LTP364	ltpFR2	23	2	CROSS	413	n/a	n/a	0	0	0
289319	WORD	wordpools/wasnorm_wordpool_576.txt	LTP364	ltpFR2	23	2	NURSE	963	n/a	n/a	0	0	0
292084	WORD	wordpools/wasnorm_wordpool_576.txt	LTP364	ltpFR2	23	2	LEMON	810	n/a	n/a	0	0	0
294650	WORD	wordpools/wasnorm_wordpool_576.txt	LTP364	ltpFR2	23	2	CASTLE	256	n/a	n/a	0	0	0
297400	WORD	wordpools/wasnorm_wordpool_576.txt	LTP364	ltpFR2	23	2	MONARCH	906	n/a	n/a	0	0	0
300131	WORD	wordpools/wasnorm_wordpool_576.txt	LTP364	ltpFR2	23	2	SEAL	1262	n/a	n/a	0	0	0
302896	WORD	wordpools/wasnorm_wordpool_576.txt	LTP364	ltpFR2	23	2	COOKIE	374	n/a	n/a	0	0	0
305562	WORD	wordpools/wasnorm_wordpool_576.txt	LTP364	ltpFR2	23	2	SAUCER	1237	n/a	n/a	0	0	0
308044	WORD	wordpools/wasnorm_wordpool_576.txt	LTP364	ltpFR2	23	2	KETTLE	772	n/a	n/a	0	0	0
310509	WORD	wordpools/wasnorm_wordpool_576.txt	LTP364	ltpFR2	23	2	BATHROOM	99	n/a	n/a	0	0	0
313108	WORD	wordpools/wasnorm_wordpool_576.txt	LTP364	ltpFR2	23	2	PATIENT	1024	n/a	n/a	0	0	0
315707	WORD	wordpools/wasnorm_wordpool_576.txt	LTP364	ltpFR2	23	2	CHIPMUNK	304	n/a	n/a	0	0	0
318323	WORD	wordpools/wasnorm_wordpool_576.txt	LTP364	ltpFR2	23	2	SWAMP	1416	n/a	n/a	0	0	0
319939	START	n/a	LTP364	ltpFR2	23	n/a	n/a	n/a	3	n/a	n/a	n/a	n/a
321121	DISTRACTOR	n/a	LTP364	ltpFR2	23	2	n/a	n/a	n/a	n/a	0	0	0
321138	PROB	n/a	LTP364	ltpFR2	23	n/a	n/a	n/a	3	13	5	4	4
323421	PROB	n/a	LTP364	ltpFR2	23	n/a	n/a	n/a	3	25	9	8	7
333016	PROB	n/a	LTP364	ltpFR2	23	n/a	n/a	n/a	3	19	8	3	8
335965	PROB	n/a	LTP364	ltpFR2	23	n/a	n/a	n/a	3	20	9	7	4
338080	PROB	n/a	LTP364	ltpFR2	23	n/a	n/a	n/a	3	16	9	6	1
340030	PROB	n/a	LTP364	ltpFR2	23	n/a	n/a	n/a	3	15	3	9	3
343939	STOP	n/a	LTP364	ltpFR2	23	n/a	n/a	n/a	3	n/a	n/a	n/a	n/a
345827	REC_START	n/a	LTP364	ltpFR2	23	2	n/a	n/a	n/a	n/a	0	0	0
347367	REC_WORD	wordpools/wasnorm_wordpool_576.txt	LTP364	ltpFR2	23	2	PRINCE	1124	n/a	n/a	0	0	0
348151	REC_WORD	wordpools/wasnorm_wordpool_576.txt	LTP364	ltpFR2	23	2	WINDOW	1611	n/a	n/a	0	0	0
348943	REC_WORD	wordpools/wasnorm_wordpool_576.txt	LTP364	ltpFR2	23	2	IDOL	733	n/a	n/a	0	0	0
352224	REC_WORD	wordpools/wasnorm_wordpool_576.txt	LTP364	ltpFR2	23	2	SARDINE	1235	n/a	n/a	0	0	0
363054	REC_WORD	wordpools/wasnorm_wordpool_576.txt	LTP364	ltpFR2	23	2	TART	1436	n/a	n/a	0	0	0
436269	WORD	wordpools/wasnorm_wordpool_576.txt	LTP364	ltpFR2	23	3	BUILDER	190	n/a	n/a	0	0	0
438818	WORD	wordpools/wasnorm_wordpool_576.txt	LTP364	ltpFR2	23	3	CHAMBER	277	n/a	n/a	0	0	0
441567	WORD	wordpools/wasnorm_wordpool_576.txt	LTP364	ltpFR2	23	3	CATCHER	258	n/a	n/a	0	0	0
444066	WORD	wordpools/wasnorm_wordpool_576.txt	LTP364	ltpFR2	23	3	YARN	1631	n/a	n/a	0	0	0
446681	WORD	wordpools/wasnorm_wordpool_576.txt	LTP364	ltpFR2	23	3	MILK	895	n/a	n/a	0	0	0
449431	WORD	wordpools/wasnorm_wordpool_576.txt	LTP364	ltpFR2	23	3	LOBBY	836	n/a	n/a	0	0	0
452162	WORD	wordpools/wasnorm_wordpool_576.txt	LTP364	ltpFR2	23	3	COOK	372	n/a	n/a	0	0	0
454861	WORD	wordpools/wasnorm_wordpool_576.txt	LTP364	ltpFR2	23	3	NAPKIN	937	n/a	n/a	0	0	0
457427	WORD	wordpools/wasnorm_wordpool_576.txt	LTP364	ltpFR2	23	3	ALMOND	18	n/a	n/a	0	0	0
459909	WORD	wordpools/wasnorm_wordpool_576.txt	LTP364	ltpFR2	23	3	SQUIRREL	1362	n/a	n/a	0	0	0
462474	WORD	wordpools/wasnorm_wordpool_576.txt	LTP364	ltpFR2	23	3	ORCHID	982	n/a	n/a	0	0	0
465206	WORD	wordpools/wasnorm_wordpool_576.txt	LTP364	ltpFR2	23	3	PUPIL	1143	n/a	n/a	0	0	0
467788	WORD	wordpools/wasnorm_wordpool_576.txt	LTP364	ltpFR2	23	3	DOCK	477	n/a	n/a	0	0	0
470271	WORD	wordpools/wasnorm_wordpool_576.txt	LTP364	ltpFR2	23	3	CRUTCH	417	n/a	n/a	0	0	0
473069	WORD	wordpools/wasnorm_wordpool_576.txt	LTP364	ltpFR2	23	3	WRIST	1626	n/a	n/a	0	0	0
475585	WORD	wordpools/wasnorm_wordpool_576.txt	LTP364	ltpFR2	23	3	BADGE	68	n/a	n/a	0	0	0
478184	WORD	wordpools/wasnorm_wordpool_576.txt	LTP364	ltpFR2	23	3	RODENT	1204	n/a	n/a	0	0	0
480966	WORD	wordpools/wasnorm_wordpool_576.txt	LTP364	ltpFR2	23	3	OATMEAL	967	n/a	n/a	0	0	0
483416	WORD	wordpools/wasnorm_wordpool_576.txt	LTP364	ltpFR2	23	3	TROMBONE	1508	n/a	n/a	0	0	0
485947	WORD	wordpools/wasnorm_wordpool_576.txt	LTP364	ltpFR2	23	3	WAREHOUSE	1588	n/a	n/a	0	0	0
488529	WORD	wordpools/wasnorm_wordpool_576.txt	LTP364	ltpFR2	23	3	TURNIP	1521	n/a	n/a	0	0	0
491178	WORD	wordpools/wasnorm_wordpool_576.txt	LTP364	ltpFR2	23	3	KNUCKLE	789	n/a	n/a	0	0	0
493960	WORD	wordpools/wasnorm_wordpool_576.txt	LTP364	ltpFR2	23	3	STABLE	1363	n/a	n/a	0	0	0
496492	WORD	wordpools/wasnorm_wordpool_576.txt	LTP364	ltpFR2	23	3	PONY	1102	n/a	n/a	0	0	0
498108	START	n/a	LTP364	ltpFR2	23	n/a	n/a	n/a	4	n/a	n/a	n/a	n/a
498946	DISTRACTOR	n/a	LTP364	ltpFR2	23	3	n/a	n/a	n/a	n/a	0	0	0
498958	PROB	n/a	LTP364	ltpFR2	23	n/a	n/a	n/a	4	23	9	5	9
502606	PROB	n/a	LTP364	ltpFR2	23	n/a	n/a	n/a	4	17	4	6	7
504222	PROB	n/a	LTP364	ltpFR2	23	n/a	n/a	n/a	4	18	7	4	7
506422	PROB	n/a	LTP364	ltpFR2	23	n/a	n/a	n/a	4	13	1	6	6
508653	PROB	n/a	LTP364	ltpFR2	23	n/a	n/a	n/a	4	10	1	2	7
510053	PROB	n/a	LTP364	ltpFR2	23	n/a	n/a	n/a	4	15	9	5	1
522108	STOP	n/a	LTP364	ltpFR2	23	n/a	n/a	n/a	4	n/a	n/a	n/a	n/a
523964	REC_START	n/a	LTP364	ltpFR2	23	3	n/a	n/a	n/a	n/a	0	0	0
525330	REC_WORD	wordpools/wasnorm_wordpool_576.txt	LTP364	ltpFR2	23	3	BUILDER	190	n/a	n/a	0	0	0
528298	REC_WORD	wordpools/wasnorm_wordpool_576.txt	LTP364	ltpFR2	23	3	COOK	372	n/a	n/a	0	0	0
614390	DISTRACTOR	n/a	LTP364	ltpFR2	23	4	n/a	n/a	n/a	n/a	0	0	0
614390	START	n/a	LTP364	ltpFR2	23	n/a	n/a	n/a	5	n/a	n/a	n/a	n/a
614407	PROB	n/a	LTP364	ltpFR2	23	n/a	n/a	n/a	5	15	5	6	4
616288	PROB	n/a	LTP364	ltpFR2	23	n/a	n/a	n/a	5	18	7	3	8
617821	PROB	n/a	LTP364	ltpFR2	23	n/a	n/a	n/a	5	8	3	1	4
619487	PROB	n/a	LTP364	ltpFR2	23	n/a	n/a	n/a	5	12	2	6	4
621802	PROB	n/a	LTP364	ltpFR2	23	n/a	n/a	n/a	5	14	2	6	6
624419	PROB	n/a	LTP364	ltpFR2	23	n/a	n/a	n/a	5	16	6	7	3
626234	PROB	n/a	LTP364	ltpFR2	23	n/a	n/a	n/a	5	18	9	8	1
627783	PROB	n/a	LTP364	ltpFR2	23	n/a	n/a	n/a	5	22	4	9	9
633730	PROB	n/a	LTP364	ltpFR2	23	n/a	n/a	n/a	5	8	1	2	5
635380	PROB	n/a	LTP364	ltpFR2	23	n/a	n/a	n/a	5	14	5	8	1
637076	STOP	n/a	LTP364	ltpFR2	23	n/a	n/a	n/a	5	n/a	n/a	n/a	n/a
639261	WORD	wordpools/wasnorm_wordpool_576.txt	LTP364	ltpFR2	23	4	PORPOISE	1109	n/a	n/a	0	0	0
641827	WORD	wordpools/wasnorm_wordpool_576.txt	LTP364	ltpFR2	23	4	TUNNEL	1519	n/a	n/a	0	0	0
644426	WORD	wordpools/wasnorm_wordpool_576.txt	LTP364	ltpFR2	23	4	LILY	821	n/a	n/a	0	0	0
647107	WORD	wordpools/wasnorm_wordpool_576.txt	LTP364	ltpFR2	23	4	GARDEN	623	n/a	n/a	0	0	0
649823	WORD	wordpools/wasnorm_wordpool_576.txt	LTP364	ltpFR2	23	4	STUDENT	1395	n/a	n/a	0	0	0
652389	WORD	wordpools/wasnorm_wordpool_576.txt	LTP364	ltpFR2	23	4	SPRINKLE	1359	n/a	n/a	0	0	0
654904	WORD	wordpools/wasnorm_wordpool_576.txt	LTP364	ltpFR2	23	4	CREEK	404	n/a	n/a	0	0	0
657719	WORD	wordpools/wasnorm_wordpool_576.txt	LTP364	ltpFR2	23	4	MATCH	878	n/a	n/a	0	0	0
660218	WORD	wordpools/wasnorm_wordpool_576.txt	LTP364	ltpFR2	23	4	BLUEPRINT	142	n/a	n/a	0	0	0
662734	WORD	wordpools/wasnorm_wordpool_576.txt	LTP364	ltpFR2	23	4	COSTUME	383	n/a	n/a	0	0	0
665166	WORD	wordpools/wasnorm_wordpool_576.txt	LTP364	ltpFR2	23	4	PISTOL	1075	n/a	n/a	0	0	0
667765	WORD	wordpools/wasnorm_wordpool_576.txt	LTP364	ltpFR2	23	4	HANGER	687	n/a	n/a	0	0	0
670480	WORD	wordpools/wasnorm_wordpool_576.txt	LTP364	ltpFR2	23	4	BLUEJAY	141	n/a	n/a	0	0	0
672929	WORD	wordpools/wasnorm_wordpool_576.txt	LTP364	ltpFR2	23	4	BOYFRIEND	162	n/a	n/a	0	0	0
675461	WORD	wordpools/wasnorm_wordpool_576.txt	LTP364	ltpFR2	23	4	IGLOO	734	n/a	n/a	0	0	0
678260	WORD	wordpools/wasnorm_wordpool_576.txt	LTP364	ltpFR2	23	4	CHURCH	307	n/a	n/a	0	0	0
680809	WORD	wordpools/wasnorm_wordpool_576.txt	LTP364	ltpFR2	23	4	FROST	609	n/a	n/a	0	0	0
683442	WORD	wordpools/wasnorm_wordpool_576.txt	LTP364	ltpFR2	23	4	BISCUIT	130	n/a	n/a	0	0	0
685940	WORD	wordpools/wasnorm_wordpool_576.txt	LTP364	ltpFR2	23	4	DESSERT	453	n/a	n/a	0	0	0
688505	WORD	wordpools/wasnorm_wordpool_576.txt	LTP364	ltpFR2	23	4	DRAWER	493	n/a	n/a	0	0	0
691288	WORD	wordpools/wasnorm_wordpool_576.txt	LTP364	ltpFR2	23	4	CIGAR	308	n/a	n/a	0	0	0
693736	WORD	wordpools/wasnorm_wordpool_576.txt	LTP364	ltpFR2	23	4	SUITE	1404	n/a	n/a	0	0	0
696235	WORD	wordpools/wasnorm_wordpool_576.txt	LTP364	ltpFR2	23	4	PARTY	1018	n/a	n/a	0	0	0
699034	WORD	wordpools/wasnorm_wordpool_576.txt	LTP364	ltpFR2	23	4	BLANKET	135	n/a	n/a	0	0	0
700650	START	n/a	LTP364	ltpFR2	23	n/a	n/a	n/a	6	n/a	n/a	n/a	n/a
701587	DISTRACTOR	n/a	LTP364	ltpFR2	23	4	n/a	n/a	n/a	n/a	0	0	0
701600	PROB	n/a	LTP364	ltpFR2	23	n/a	n/a	n/a	6	15	6	8	1
704416	PROB	n/a	LTP364	ltpFR2	23	n/a	n/a	n/a	6	19	8	9	2
707547	PROB	n/a	LTP364	ltpFR2	23	n/a	n/a	n/a	6	9	5	3	1
709346	PROB	n/a	LTP364	ltpFR2	23	n/a	n/a	n/a	6	16	7	8	1
711845	PROB	n/a	LTP364	ltpFR2	23	n/a	n/a	n/a	6	15	3	6	6
724650	STOP	n/a	LTP364	ltpFR2	23	n/a	n/a	n/a	6	n/a	n/a	n/a	n/a
726473	REC_START	n/a	LTP364	ltpFR2	23	4	n/a	n/a	n/a	n/a	0	0	0
728847	REC_WORD	wordpools/wasnorm_wordpool_576.txt	LTP364	ltpFR2	23	4	BLUEJAY	141	n/a	n/a	0	0	0
729913	REC_WORD	wordpools/wasnorm_wordpool_576.txt	LTP364	ltpFR2	23	4	HANGER	687	n/a	n/a	0	0	0
731702	REC_WORD	wordpools/wasnorm_wordpool_576.txt	LTP364	ltpFR2	23	4	BOYFRIEND	162	n/a	n/a	0	0	0
816914	WORD	wordpools/wasnorm_wordpool_576.txt	LTP364	ltpFR2	23	5	STRANGER	1389	n/a	n/a	0	0	0
819447	WORD	wordpools/wasnorm_wordpool_576.txt	LTP364	ltpFR2	23	5	SALESMAN	1225	n/a	n/a	0	0	0
822228	WORD	wordpools/wasnorm_wordpool_576.txt	LTP364	ltpFR2	23	5	CABLE	213	n/a	n/a	0	0	0
824894	WORD	wordpools/wasnorm_wordpool_576.txt	LTP364	ltpFR2	23	5	MAJOR	859	n/a	n/a	0	0	0
827643	WORD	wordpools/wasnorm_wordpool_576.txt	LTP364	ltpFR2	23	5	SAUSAGE	1238	n/a	n/a	0	0	0
830359	WORD	wordpools/wasnorm_wordpool_576.txt	LTP364	ltpFR2	23	5	TRUMPET	1513	n/a	n/a	0	0	0
832807	WORD	wordpools/wasnorm_wordpool_576.txt	LTP364	ltpFR2	23	5	JELLO	754	n/a	n/a	0	0	0
835506	WORD	wordpools/wasnorm_wordpool_576.txt	LTP364	ltpFR2	23	5	LAUNDRY	803	n/a	n/a	0	0	0
838155	WORD	wordpools/wasnorm_wordpool_576.txt	LTP364	ltpFR2	23	5	LODGE	839	n/a	n/a	0	0	0
840953	WORD	wordpools/wasnorm_wordpool_576.txt	LTP364	ltpFR2	23	5	TAXI	1438	n/a	n/a	0	0	0
843685	WORD	wordpools/wasnorm_wordpool_576.txt	LTP364	ltpFR2	23	5	PERMIT	1051	n/a	n/a	0	0	0
846201	WORD	wordpools/wasnorm_wordpool_576.txt	LTP364	ltpFR2	23	5	TURTLE	1522	n/a	n/a	0	0	0
848950	WORD	wordpools/wasnorm_wordpool_576.txt	LTP364	ltpFR2	23	5	UNCLE	1536	n/a	n/a	0	0	0
851748	WORD	wordpools/wasnorm_wordpool_576.txt	LTP364	ltpFR2	23	5	COUSIN	392	n/a	n/a	0	0	0
854247	WORD	wordpools/wasnorm_wordpool_576.txt	LTP364	ltpFR2	23	5	VICTIM	1562	n/a	n/a	0	0	0
856946	WORD	wordpools/wasnorm_wordpool_576.txt	LTP364	ltpFR2	23	5	CONVICT	371	n/a	n/a	0	0	0
859561	WORD	wordpools/wasnorm_wordpool_576.txt	LTP364	ltpFR2	23	5	TORTOISE	1486	n/a	n/a	0	0	0
862094	WORD	wordpools/wasnorm_wordpool_576.txt	LTP364	ltpFR2	23	5	BOULDER	155	n/a	n/a	0	0	0
864726	WORD	wordpools/wasnorm_wordpool_576.txt	LTP364	ltpFR2	23	5	CABIN	211	n/a	n/a	0	0	0
867175	WORD	wordpools/wasnorm_wordpool_576.txt	LTP364	ltpFR2	23	5	BOTTLE	153	n/a	n/a	0	0	0
869707	WORD	wordpools/wasnorm_wordpool_576.txt	LTP364	ltpFR2	23	5	CATTLE	261	n/a	n/a	0	0	0
872289	WORD	wordpools/wasnorm_wordpool_576.txt	LTP364	ltpFR2	23	5	PEACH	1031	n/a	n/a	0	0	0
875021	WORD	wordpools/wasnorm_wordpool_576.txt	LTP364	ltpFR2	23	5	FIDDLE	561	n/a	n/a	0	0	0
877553	WORD	wordpools/wasnorm_wordpool_576.txt	LTP364	ltpFR2	23	5	WHISTLE	1606	n/a	n/a	0	0	0
879170	START	n/a	LTP364	ltpFR2	23	n/a	n/a	n/a	7	n/a	n/a	n/a	n/a
880202	DISTRACTOR	n/a	LTP364	ltpFR2	23	5	n/a	n/a	n/a	n/a	0	0	0
880219	PROB	n/a	LTP364	ltpFR2	23	n/a	n/a	n/a	7	12	7	3	2
882035	PROB	n/a	LTP364	ltpFR2	23	n/a	n/a	n/a	7	13	6	4	3
887782	PROB	n/a	LTP364	ltpFR2	23	n/a	n/a	n/a	7	19	8	7	4
889781	PROB	n/a	LTP364	ltpFR2	23	n/a	n/a	n/a	7	20	4	7	9
893763	PROB	n/a	LTP364	ltpFR2	23	n/a	n/a	n/a	7	18	2	9	7
898027	PROB	n/a	LTP364	ltpFR2	23	n/a	n/a	n/a	7	15	8	4	3
899810	PROB	n/a	LTP364	ltpFR2	23	n/a	n/a	n/a	7	7	2	4	1
902356	STOP	n/a	LTP364	ltpFR2	23	n/a	n/a	n/a	7	n/a	n/a	n/a	n/a
905041	REC_START	n/a	LTP364	ltpFR2	23	5	n/a	n/a	n/a	n/a	0	0	0
905911	REC_WORD	wordpools/wasnorm_wordpool_576.txt	LTP364	ltpFR2	23	5	TURTLE	1522	n/a	n/a	0	0	0
906945	REC_WORD	wordpools/wasnorm_wordpool_576.txt	LTP364	ltpFR2	23	5	HUSBAND	728	n/a	n/a	0	0	0
912213	REC_WORD	wordpools/wasnorm_wordpool_576.txt	LTP364	ltpFR2	23	5	OX	994	n/a	n/a	0	0	0
912830	REC_WORD	wordpools/wasnorm_wordpool_576.txt	LTP364	ltpFR2	23	5	RANCH	1166	n/a	n/a	0	0	0
995467	DISTRACTOR	n/a	LTP364	ltpFR2	23	6	n/a	n/a	n/a	n/a	0	0	0
995467	START	n/a	LTP364	ltpFR2	23	n/a	n/a	n/a	8	n/a	n/a	n/a	n/a
1019466	STOP	n/a	LTP364	ltpFR2	23	n/a	n/a	n/a	8	n/a	n/a	n/a	n/a
1020572	WORD	wordpools/wasnorm_wordpool_576.txt	LTP364	ltpFR2	23	6	RAZOR	1171	n/a	n/a	0	0	0
1023321	WORD	wordpools/wasnorm_wordpool_576.txt	LTP364	ltpFR2	23	6	INMATE	738	n/a	n/a	0	0	0
1025870	WORD	wordpools/wasnorm_wordpool_576.txt	LTP364	ltpFR2	23	6	OUTLAW	989	n/a	n/a	0	0	0
1028552	WORD	wordpools/wasnorm_wordpool_576.txt	LTP364	ltpFR2	23	6	SEASHORE	1263	n/a	n/a	0	0	0
1031117	WORD	wordpools/wasnorm_wordpool_576.txt	LTP364	ltpFR2	23	6	BANQUET	86	n/a	n/a	0	0	0
1033683	WORD	wordpools/wasnorm_wordpool_576.txt	LTP364	ltpFR2	23	6	BARLEY	88	n/a	n/a	0	0	0
1036115	WORD	wordpools/wasnorm_wordpool_576.txt	LTP364	ltpFR2	23	6	TAVERN	1437	n/a	n/a	0	0	0
1038831	WORD	wordpools/wasnorm_wordpool_576.txt	LTP364	ltpFR2	23	6	GLOBE	641	n/a	n/a	0	0	0
1041313	WORD	wordpools/wasnorm_wordpool_576.txt	LTP364	ltpFR2	23	6	WAITRESS	1581	n/a	n/a	0	0	0
1043862	WORD	wordpools/wasnorm_wordpool_576.txt	LTP364	ltpFR2	23	6	HOSTESS	723	n/a	n/a	0	0	0
1046677	WORD	wordpools/wasnorm_wordpool_576.txt	LTP364	ltpFR2	23	6	WITNESS	1618	n/a	n/a	0	0	0
1049259	WORD	wordpools/wasnorm_wordpool_576.txt	LTP364	ltpFR2	23	6	FLASHLIGHT	575	n/a	n/a	0	0	0
1052075	WORD	wordpools/wasnorm_wordpool_576.txt	LTP364	ltpFR2	23	6	PISTON	1076	n/a	n/a	0	0	0
1054707	WORD	wordpools/wasnorm_wordpool_576.txt	LTP364	ltpFR2	23	6	CREVICE	405	n/a	n/a	0	0	0
1057456	WORD	wordpools/wasnorm_wordpool_576.txt	LTP364	ltpFR2	23	6	BLOSSOM	138	n/a	n/a	0	0	0
1060238	WORD	wordpools/wasnorm_wordpool_576.txt	LTP364	ltpFR2	23	6	JEANS	752	n/a	n/a	0	0	0
1062670	WORD	wordpools/wasnorm_wordpool_576.txt	LTP364	ltpFR2	23	6	ATLAS	53	n/a	n/a	0	0	0
1065335	WORD	wordpools/wasnorm_wordpool_576.txt	LTP364	ltpFR2	23	6	SUGAR	1401	n/a	n/a	0	0	0
1067967	WORD	wordpools/wasnorm_wordpool_576.txt	LTP364	ltpFR2	23	6	GLASS	639	n/a	n/a	0	0	0
1070666	WORD	wordpools/wasnorm_wordpool_576.txt	LTP364	ltpFR2	23	6	SCALPEL	1243	n/a	n/a	0	0	0
1073465	WORD	wordpools/wasnorm_wordpool_576.txt	LTP364	ltpFR2	23	6	REPTILE	1185	n/a	n/a	0	0	0
1076214	WORD	wordpools/wasnorm_wordpool_576.txt	LTP364	ltpFR2	23	6	BUTLER	204	n/a	n/a	0	0	0
1078929	WORD	wordpools/wasnorm_wordpool_576.txt	LTP364	ltpFR2	23	6	SOFA	1342	n/a	n/a	0	0	0
1081561	WORD	wordpools/wasnorm_wordpool_576.txt	LTP364	ltpFR2	23	6	SWEATER	1419	n/a	n/a	0	0	0
1083177	START	n/a	LTP364	ltpFR2	23	n/a	n/a	n/a	9	n/a	n/a	n/a	n/a
1084022	DISTRACTOR	n/a	LTP364	ltpFR2	23	6	n/a	n/a	n/a	n/a	0	0	0
1084027	PROB	n/a	LTP364	ltpFR2	23	n/a	n/a	n/a	9	14	4	8	4
1086959	PROB	n/a	LTP364	ltpFR2	23	n/a	n/a	n/a	9	15	6	1	8
1090224	PROB	n/a	LTP364	ltpFR2	23	n/a	n/a	n/a	9	17	4	7	6
1092856	PROB	n/a	LTP364	ltpFR2	23	n/a	n/a	n/a	9	15	9	1	5
1094122	PROB	n/a	LTP364	ltpFR2	23	n/a	n/a	n/a	9	10	3	1	6
1096055	PROB	n/a	LTP364	ltpFR2	23	n/a	n/a	n/a	9	17	4	5	8
1098054	PROB	n/a	LTP364	ltpFR2	23	n/a	n/a	n/a	9	13	9	1	3
1099636	PROB	n/a	LTP364	ltpFR2	23	n/a	n/a	n/a	9	23	8	8	7
1105184	PROB	n/a	LTP364	ltpFR2	23	n/a	n/a	n/a	9	11	5	5	1
1106819	STOP	n/a	LTP364	ltpFR2	23	n/a	n/a	n/a	9	n/a	n/a	n/a	n/a
1109016	REC_START	n/a	LTP364	ltpFR2	23	6	n/a	n/a	n/a	n/a	0	0	0
1110519	REC_WORD	wordpools/wasnorm_wordpool_576.txt	LTP364	ltpFR2	23	6	SUGAR	1401	n/a	n/a	0	0	0
1112757	REC_WORD	wordpools/wasnorm_wordpool_576.txt	LTP364	ltpFR2	23	6	ATLAS	53	n/a	n/a	0	0	0
1119467	REC_WORD	wordpools/wasnorm_wordpool_576.txt	LTP364	ltpFR2	23	6	GARDEN	623	n/a	n/a	0	0	0
1199442	DISTRACTOR	n/a	LTP364	ltpFR2	23	7	n/a	n/a	n/a	n/a	0	0	0
1199443	START	n/a	LTP364	ltpFR2	23	n/a	n/a	n/a	10	n/a	n/a	n/a	n/a
1199459	PROB	n/a	LTP364	ltpFR2	23	n/a	n/a	n/a	10	9	4	2	3
1202473	PROB	n/a	LTP364	ltpFR2	23	n/a	n/a	n/a	10	21	6	9	6
1208671	PROB	n/a	LTP364	ltpFR2	23	n/a	n/a	n/a	10	15	9	1	5
1210053	PROB	n/a	LTP364	ltpFR2	23	n/a	n/a	n/a	10	19	2	9	8
1212252	PROB	n/a	LTP364	ltpFR2	23	n/a	n/a	n/a	10	18	3	7	8
1213602	PROB	n/a	LTP364	ltpFR2	23	n/a	n/a	n/a	10	12	4	5	3
1217133	PROB	n/a	LTP364	ltpFR2	23	n/a	n/a	n/a	10	15	4	5	6
1218749	PROB	n/a	LTP364	ltpFR2	23	n/a	n/a	n/a	10	14	8	2	4
1220332	PROB	n/a	LTP364	ltpFR2	23	n/a	n/a	n/a	10	19	5	9	5
1221681	PROB	n/a	LTP364	ltpFR2	23	n/a	n/a	n/a	10	13	3	5	5
1222950	STOP	n/a	LTP364	ltpFR2	23	n/a	n/a	n/a	10	n/a	n/a	n/a	n/a
1224580	WORD	wordpools/wasnorm_wordpool_576.txt	LTP364	ltpFR2	23	7	FILM	565	n/a	n/a	0	0	0
1227279	WORD	wordpools/wasnorm_wordpool_576.txt	LTP364	ltpFR2	23	7	SUNRISE	1407	n/a	n/a	0	0	0
1229994	WORD	wordpools/wasnorm_wordpool_576.txt	LTP364	ltpFR2	23	7	OUTFIT	988	n/a	n/a	0	0	0
1232693	WORD	wordpools/wasnorm_wordpool_576.txt	LTP364	ltpFR2	23	7	LABEL	790	n/a	n/a	0	0	0
1235125	WORD	wordpools/wasnorm_wordpool_576.txt	LTP364	ltpFR2	23	7	HIKER	708	n/a	n/a	0	0	0
1237741	WORD	wordpools/wasnorm_wordpool_576.txt	LTP364	ltpFR2	23	7	POSSUM	1112	n/a	n/a	0	0	0
1240506	WORD	wordpools/wasnorm_wordpool_576.txt	LTP364	ltpFR2	23	7	SCHOOL	1248	n/a	n/a	0	0	0
1243322	WORD	wordpools/wasnorm_wordpool_576.txt	LTP364	ltpFR2	23	7	ARMY	39	n/a	n/a	0	0	0
1245787	WORD	wordpools/wasnorm_wordpool_576.txt	LTP364	ltpFR2	23	7	FLEET	578	n/a	n/a	0	0	0
1248353	WORD	wordpools/wasnorm_wordpool_576.txt	LTP364	ltpFR2	23	7	LIZARD	834	n/a	n/a	0	0	0
1250785	WORD	wordpools/wasnorm_wordpool_576.txt	LTP364	ltpFR2	23	7	MOUNTAIN	924	n/a	n/a	0	0	0
1253534	WORD	wordpools/wasnorm_wordpool_576.txt	LTP364	ltpFR2	23	7	PICKLE	1059	n/a	n/a	0	0	0
1256149	WORD	wordpools/wasnorm_wordpool_576.txt	LTP364	ltpFR2	23	7	PREACHER	1119	n/a	n/a	0	0	0
1258681	WORD	wordpools/wasnorm_wordpool_576.txt	LTP364	ltpFR2	23	7	OINTMENT	974	n/a	n/a	0	0	0
1261263	WORD	wordpools/wasnorm_wordpool_576.txt	LTP364	ltpFR2	23	7	DRUG	501	n/a	n/a	0	0	0
1263846	WORD	wordpools/wasnorm_wordpool_576.txt	LTP364	ltpFR2	23	7	ONION	977	n/a	n/a	0	0	0
1266396	WORD	wordpools/wasnorm_wordpool_576.txt	LTP364	ltpFR2	23	7	EARRING	514	n/a	n/a	0	0	0
1268893	WORD	wordpools/wasnorm_wordpool_576.txt	LTP364	ltpFR2	23	7	SPINACH	1352	n/a	n/a	0	0	0
1271360	WORD	wordpools/wasnorm_wordpool_576.txt	LTP364	ltpFR2	23	7	POISON	1096	n/a	n/a	0	0	0
1274074	WORD	wordpools/wasnorm_wordpool_576.txt	LTP364	ltpFR2	23	7	STUMP	1396	n/a	n/a	0	0	0
1276723	WORD	wordpools/wasnorm_wordpool_576.txt	LTP364	ltpFR2	23	7	SALT	1229	n/a	n/a	0	0	0
1279423	WORD	wordpools/wasnorm_wordpool_576.txt	LTP364	ltpFR2	23	7	FIELD	562	n/a	n/a	0	0	0
1282171	WORD	wordpools/wasnorm_wordpool_576.txt	LTP364	ltpFR2	23	7	NEPTUNE	943	n/a	n/a	0	0	0
1284786	WORD	wordpools/wasnorm_wordpool_576.txt	LTP364	ltpFR2	23	7	POPCORN	1104	n/a	n/a	0	0	0
1286403	START	n/a	LTP364	ltpFR2	23	n/a	n/a	n/a	11	n/a	n/a	n/a	n/a
1287308	DISTRACTOR	n/a	LTP364	ltpFR2	23	7	n/a	n/a	n/a	n/a	0	0	0
1287318	PROB	n/a	LTP364	ltpFR2	23	n/a	n/a	n/a	11	17	3	6	8
1289984	PROB	n/a	LTP364	ltpFR2	23	n/a	n/a	n/a	11	27	9	9	9
1292033	PROB	n/a	LTP364	ltpFR2	23	n/a	n/a	n/a	11	16	4	6	6
1293799	PROB	n/a	LTP364	ltpFR2	23	n/a	n/a	n/a	11	16	3	8	5
1295865	PROB	n/a	LTP364	ltpFR2	23	n/a	n/a	n/a	11	19	9	9	1
1297197	PROB	n/a	LTP364	ltpFR2	23	n/a	n/a	n/a	11	14	8	4	2
1300113	PROB	n/a	LTP364	ltpFR2	23	n/a	n/a	n/a	11	16	2	5	9
1304727	PROB	n/a	LTP364	ltpFR2	23	n/a	n/a	n/a	11	17	5	3	9
1308875	PROB	n/a	LTP364	ltpFR2	23	n/a	n/a	n/a	11	16	1	9	6
1310065	STOP	n/a	LTP364	ltpFR2	23	n/a	n/a	n/a	11	n/a	n/a	n/a	n/a
1312308	REC_START	n/a	LTP364	ltpFR2	23	7	n/a	n/a	n/a	n/a	0	0	0
1314099	REC_WORD	wordpools/wasnorm_wordpool_576.txt	LTP364	ltpFR2	23	7	NEPTUNE	943	n/a	n/a	0	0	0
1402733	DISTRACTOR	n/a	LTP364	ltpFR2	23	8	n/a	n/a	n/a	n/a	0	0	0
1402733	START	n/a	LTP364	ltpFR2	23	n/a	n/a	n/a	12	n/a	n/a	n/a	n/a
1402750	PROB	n/a	LTP364	ltpFR2	23	n/a	n/a	n/a	12	18	1	8	9
1426733	STOP	n/a	LTP364	ltpFR2	23	n/a	n/a	n/a	12	n/a	n/a	n/a	n/a
1427622	WORD	wordpools/wasnorm_wordpool_576.txt	LTP364	ltpFR2	23	8	MASK	876	n/a	n/a	0	0	0
1430270	WORD	wordpools/wasnorm_wordpool_576.txt	LTP364	ltpFR2	23	8	THRONE	1461	n/a	n/a	0	0	0
1432753	WORD	wordpools/wasnorm_wordpool_576.txt	LTP364	ltpFR2	23	8	HEART	697	n/a	n/a	0	0	0
1435518	WORD	wordpools/wasnorm_wordpool_576.txt	LTP364	ltpFR2	23	8	MARS	873	n/a	n/a	0	0	0
1438284	WORD	wordpools/wasnorm_wordpool_576.txt	LTP364	ltpFR2	23	8	COFFEE	341	n/a	n/a	0	0	0
1440749	WORD	wordpools/wasnorm_wordpool_576.txt	LTP364	ltpFR2	23	8	VESSEL	1558	n/a	n/a	0	0	0
1443366	WORD	wordpools/wasnorm_wordpool_576.txt	LTP364	ltpFR2	23	8	SAILOR	1223	n/a	n/a	0	0	0
1445830	WORD	wordpools/wasnorm_wordpool_576.txt	LTP364	ltpFR2	23	8	PARENT	1013	n/a	n/a	0	0	0
1448512	WORD	wordpools/wasnorm_wordpool_576.txt	LTP364	ltpFR2	23	8	LAGOON	795	n/a	n/a	0	0	0
1451128	WORD	wordpools/wasnorm_wordpool_576.txt	LTP364	ltpFR2	23	8	CUPBOARD	425	n/a	n/a	0	0	0
1453727	WORD	wordpools/wasnorm_wordpool_576.txt	LTP364	ltpFR2	23	8	WINDSHIELD	1612	n/a	n/a	0	0	0
1456159	WORD	wordpools/wasnorm_wordpool_576.txt	LTP364	ltpFR2	23	8	SKILLET	1317	n/a	n/a	0	0	0
1458758	WORD	wordpools/wasnorm_wordpool_576.txt	LTP364	ltpFR2	23	8	NOVEL	960	n/a	n/a	0	0	0
1461256	WORD	wordpools/wasnorm_wordpool_576.txt	LTP364	ltpFR2	23	8	BANDAGE	79	n/a	n/a	0	0	0
1464072	WORD	wordpools/wasnorm_wordpool_576.txt	LTP364	ltpFR2	23	8	CLIPPERS	324	n/a	n/a	0	0	0
1466737	WORD	wordpools/wasnorm_wordpool_576.txt	LTP364	ltpFR2	23	8	SAND	1230	n/a	n/a	0	0	0
1469170	WORD	wordpools/wasnorm_wordpool_576.txt	LTP364	ltpFR2	23	8	SERPENT	1270	n/a	n/a	0	0	0
1471735	WORD	wordpools/wasnorm_wordpool_576.txt	LTP364	ltpFR2	23	8	MUMMY	932	n/a	n/a	0	0	0
1474385	WORD	wordpools/wasnorm_wordpool_576.txt	LTP364	ltpFR2	23	8	PERSON	1052	n/a	n/a	0	0	0
1477016	WORD	wordpools/wasnorm_wordpool_576.txt	LTP364	ltpFR2	23	8	RACCOON	1153	n/a	n/a	0	0	0
1479632	WORD	wordpools/wasnorm_wordpool_576.txt	LTP364	ltpFR2	23	8	BAKER	71	n/a	n/a	0	0	0
1482214	WORD	wordpools/wasnorm_wordpool_576.txt	LTP364	ltpFR2	23	8	STREAM	1392	n/a	n/a	0	0	0
1484663	WORD	wordpools/wasnorm_wordpool_576.txt	LTP364	ltpFR2	23	8	GIRAFFE	636	n/a	n/a	0	0	0
1487178	WORD	wordpools/wasnorm_wordpool_576.txt	LTP364	ltpFR2	23	8	FARM	552	n/a	n/a	0	0	0
1488794	START	n/a	LTP364	ltpFR2	23	n/a	n/a	n/a	13	n/a	n/a	n/a	n/a
1489884	DISTRACTOR	n/a	LTP364	ltpFR2	23	8	n/a	n/a	n/a	n/a	0	0	0
1489894	PROB	n/a	LTP364	ltpFR2	23	n/a	n/a	n/a	13	19	7	8	4
1495874	PROB	n/a	LTP364	ltpFR2	23	n/a	n/a	n/a	13	17	6	5	6
1497940	PROB	n/a	LTP364	ltpFR2	23	n/a	n/a	n/a	13	16	6	8	2
1499506	PROB	n/a	LTP364	ltpFR2	23	n/a	n/a	n/a	13	18	4	8	6
1501505	PROB	n/a	LTP364	ltpFR2	23	n/a	n/a	n/a	13	16	4	9	3
1512794	STOP	n/a	LTP364	ltpFR2	23	n/a	n/a	n/a	13	n/a	n/a	n/a	n/a
1514633	REC_START	n/a	LTP364	ltpFR2	23	8	n/a	n/a	n/a	n/a	0	0	0
1516586	REC_WORD	wordpools/wasnorm_wordpool_576.txt	LTP364	ltpFR2	23	8	PARENT	1013	n/a	n/a	0	0	0
1517262	REC_WORD	wordpools/wasnorm_wordpool_576.txt	LTP364	ltpFR2	23	8	COFFEE	341	n/a	n/a	0	0	0
1518836	REC_WORD	wordpools/wasnorm_wordpool_576.txt	LTP364	ltpFR2	23	8	LAGOON	795	n/a	n/a	0	0	0
1591164	REST_REWET	n/a	LTP364	ltpFR2	23	8	n/a	n/a	n/a	n/a	0	0	0
1734966	DISTRACTOR	n/a	LTP364	ltpFR2	23	9	n/a	n/a	n/a	n/a	0	0	0
1734966	START	n/a	LTP364	ltpFR2	23	n/a	n/a	n/a	14	n/a	n/a	n/a	n/a
1734983	PROB	n/a	LTP364	ltpFR2	23	n/a	n/a	n/a	14	17	8	7	2
1736999	PROB	n/a	LTP364	ltpFR2	23	n/a	n/a	n/a	14	18	9	6	3
1739198	PROB	n/a	LTP364	ltpFR2	23	n/a	n/a	n/a	14	10	1	4	5
1740530	PROB	n/a	LTP364	ltpFR2	23	n/a	n/a	n/a	14	16	5	8	3
1742946	PROB	n/a	LTP364	ltpFR2	23	n/a	n/a	n/a	14	17	6	8	3
1745228	PROB	n/a	LTP364	ltpFR2	23	n/a	n/a	n/a	14	15	3	4	8
1748077	PROB	n/a	LTP364	ltpFR2	23	n/a	n/a	n/a	14	7	3	2	2
1749493	PROB	n/a	LTP364	ltpFR2	23	n/a	n/a	n/a	14	14	8	2	4
1750909	PROB	n/a	LTP364	ltpFR2	23	n/a	n/a	n/a	14	11	2	6	3
1753108	PROB	n/a	LTP364	ltpFR2	23	n/a	n/a	n/a	14	11	4	6	1
1754907	PROB	n/a	LTP364	ltpFR2	23	n/a	n/a	n/a	14	15	3	6	6
1757432	STOP	n/a	LTP364	ltpFR2	23	n/a	n/a	n/a	14	n/a	n/a	n/a	n/a
1760088	WORD	wordpools/wasnorm_wordpool_576.txt	LTP364	ltpFR2	23	9	PORT	1110	n/a	n/a	0	0	0
1762587	WORD	wordpools/wasnorm_wordpool_576.txt	LTP364	ltpFR2	23	9	LIST	830	n/a	n/a	0	0	0
1765387	WORD	wordpools/wasnorm_wordpool_576.txt	LTP364	ltpFR2	23	9	KNIFE	785	n/a	n/a	0	0	0
1768101	WORD	wordpools/wasnorm_wordpool_576.txt	LTP364	ltpFR2	23	9	COUGAR	387	n/a	n/a	0	0	0
1770733	WORD	wordpools/wasnorm_wordpool_576.txt	LTP364	ltpFR2	23	9	PEOPLE	1046	n/a	n/a	0	0	0
1773349	WORD	wordpools/wasnorm_wordpool_576.txt	LTP364	ltpFR2	23	9	PUDDLE	1140	n/a	n/a	0	0	0
1775848	WORD	wordpools/wasnorm_wordpool_576.txt	LTP364	ltpFR2	23	9	FAUCET	555	n/a	n/a	0	0	0
1778381	WORD	wordpools/wasnorm_wordpool_576.txt	LTP364	ltpFR2	23	9	OCEAN	970	n/a	n/a	0	0	0
1781029	WORD	wordpools/wasnorm_wordpool_576.txt	LTP364	ltpFR2	23	9	GHETTO	633	n/a	n/a	0	0	0
1783661	WORD	wordpools/wasnorm_wordpool_576.txt	LTP364	ltpFR2	23	9	CHAUFFEUR	283	n/a	n/a	0	0	0
1786361	WORD	wordpools/wasnorm_wordpool_576.txt	LTP364	ltpFR2	23	9	SUBURB	1399	n/a	n/a	0	0	0
1789175	WORD	wordpools/wasnorm_wordpool_576.txt	LTP364	ltpFR2	23	9	VILLAGE	1566	n/a	n/a	0	0	0
1791857	WORD	wordpools/wasnorm_wordpool_576.txt	LTP364	ltpFR2	23	9	NEWSSTAND	949	n/a	n/a	0	0	0
1794440	WORD	wordpools/wasnorm_wordpool_576.txt	LTP364	ltpFR2	23	9	BRIDGE	174	n/a	n/a	0	0	0
1797155	WORD	wordpools/wasnorm_wordpool_576.txt	LTP364	ltpFR2	23	9	COBWEB	337	n/a	n/a	0	0	0
1799803	WORD	wordpools/wasnorm_wordpool_576.txt	LTP364	ltpFR2	23	9	TREASURE	1500	n/a	n/a	0	0	0
1802453	WORD	wordpools/wasnorm_wordpool_576.txt	LTP364	ltpFR2	23	9	ROBBER	1197	n/a	n/a	0	0	0
1805118	WORD	wordpools/wasnorm_wordpool_576.txt	LTP364	ltpFR2	23	9	LEG	809	n/a	n/a	0	0	0
1807550	WORD	wordpools/wasnorm_wordpool_576.txt	LTP364	ltpFR2	23	9	PLAQUE	1084	n/a	n/a	0	0	0
1810132	WORD	wordpools/wasnorm_wordpool_576.txt	LTP364	ltpFR2	23	9	TROPHY	1509	n/a	n/a	0	0	0
1812664	WORD	wordpools/wasnorm_wordpool_576.txt	LTP364	ltpFR2	23	9	KITTEN	780	n/a	n/a	0	0	0
1815313	WORD	wordpools/wasnorm_wordpool_576.txt	LTP364	ltpFR2	23	9	SHELTER	1282	n/a	n/a	0	0	0
1818029	WORD	wordpools/wasnorm_wordpool_576.txt	LTP364	ltpFR2	23	9	CLOSET	326	n/a	n/a	0	0	0
1820544	WORD	wordpools/wasnorm_wordpool_576.txt	LTP364	ltpFR2	23	9	FLESH	579	n/a	n/a	0	0	0
1822160	START	n/a	LTP364	ltpFR2	23	n/a	n/a	n/a	15	n/a	n/a	n/a	n/a
1823117	DISTRACTOR	n/a	LTP364	ltpFR2	23	9	n/a	n/a	n/a	n/a	0	0	0
1823126	PROB	n/a	LTP364	ltpFR2	23	n/a	n/a	n/a	15	11	1	5	5
1824842	PROB	n/a	LTP364	ltpFR2	23	n/a	n/a	n/a	15	10	1	3	6
1826491	PROB	n/a	LTP364	ltpFR2	23	n/a	n/a	n/a	15	13	2	9	4
1830190	PROB	n/a	LTP364	ltpFR2	23	n/a	n/a	n/a	15	21	5	9	7
1832989	PROB	n/a	LTP364	ltpFR2	23	n/a	n/a	n/a	15	20	8	9	3
1838719	PROB	n/a	LTP364	ltpFR2	23	n/a	n/a	n/a	15	18	4	6	8
1840085	PROB	n/a	LTP364	ltpFR2	23	n/a	n/a	n/a	15	11	1	3	7
1846160	STOP	n/a	LTP364	ltpFR2	23	n/a	n/a	n/a	15	n/a	n/a	n/a	n/a
1848016	REC_START	n/a	LTP364	ltpFR2	23	9	n/a	n/a	n/a	n/a	0	0	0
1923016	REC_WORD_VV	wordpools/wasnorm_wordpool_576.txt	LTP364	ltpFR2	23	9	<>	-1	n/a	n/a	0	0	0
1938459	WORD	wordpools/wasnorm_wordpool_576.txt	LTP364	ltpFR2	23	10	PIZZA	1079	n/a	n/a	0	0	0
1940973	WORD	wordpools/wasnorm_wordpool_576.txt	LTP364	ltpFR2	23	10	FACE	547	n/a	n/a	0	0	0
1943589	WORD	wordpools/wasnorm_wordpool_576.txt	LTP364	ltpFR2	23	10	LADY	794	n/a	n/a	0	0	0
1946104	WORD	wordpools/wasnorm_wordpool_576.txt	LTP364	ltpFR2	23	10	SCOUT	1252	n/a	n/a	0	0	0
1948753	WORD	wordpools/wasnorm_wordpool_576.txt	LTP364	ltpFR2	23	10	PITCHFORK	1078	n/a	n/a	0	0	0
1951369	WORD	wordpools/wasnorm_wordpool_576.txt	LTP364	ltpFR2	23	10	BUILDING	191	n/a	n/a	0	0	0
1953984	WORD	wordpools/wasnorm_wordpool_576.txt	LTP364	ltpFR2	23	10	FLAG	573	n/a	n/a	0	0	0
1956616	WORD	wordpools/wasnorm_wordpool_576.txt	LTP364	ltpFR2	23	10	MISTER	901	n/a	n/a	0	0	0
1959399	WORD	wordpools/wasnorm_wordpool_576.txt	LTP364	ltpFR2	23	10	CAFE	216	n/a	n/a	0	0	0
1962014	WORD	wordpools/wasnorm_wordpool_576.txt	LTP364	ltpFR2	23	10	FARMER	553	n/a	n/a	0	0	0
1964746	WORD	wordpools/wasnorm_wordpool_576.txt	LTP364	ltpFR2	23	10	GAUZE	626	n/a	n/a	0	0	0
1967211	WORD	wordpools/wasnorm_wordpool_576.txt	LTP364	ltpFR2	23	10	WRENCH	1625	n/a	n/a	0	0	0
1969860	WORD	wordpools/wasnorm_wordpool_576.txt	LTP364	ltpFR2	23	10	SHORTS	1293	n/a	n/a	0	0	0
1972410	WORD	wordpools/wasnorm_wordpool_576.txt	LTP364	ltpFR2	23	10	RAISIN	1163	n/a	n/a	0	0	0
1974974	WORD	wordpools/wasnorm_wordpool_576.txt	LTP364	ltpFR2	23	10	DRESSER	496	n/a	n/a	0	0	0
1977723	WORD	wordpools/wasnorm_wordpool_576.txt	LTP364	ltpFR2	23	10	HAMPER	682	n/a	n/a	0	0	0
1980355	WORD	wordpools/wasnorm_wordpool_576.txt	LTP364	ltpFR2	23	10	REBEL	1172	n/a	n/a	0	0	0
1982838	WORD	wordpools/wasnorm_wordpool_576.txt	LTP364	ltpFR2	23	10	SUMMIT	1405	n/a	n/a	0	0	0
1985303	WORD	wordpools/wasnorm_wordpool_576.txt	LTP364	ltpFR2	23	10	COLUMN	350	n/a	n/a	0	0	0
1987785	WORD	wordpools/wasnorm_wordpool_576.txt	LTP364	ltpFR2	23	10	TOMBSTONE	1478	n/a	n/a	0	0	0
1990385	WORD	wordpools/wasnorm_wordpool_576.txt	LTP364	ltpFR2	23	10	SHERIFF	1284	n/a	n/a	0	0	0
1993100	WORD	wordpools/wasnorm_wordpool_576.txt	LTP364	ltpFR2	23	10	GRILL	661	n/a	n/a	0	0	0
1995732	WORD	wordpools/wasnorm_wordpool_576.txt	LTP364	ltpFR2	23	10	SANDWICH	1232	n/a	n/a	0	0	0
1998231	WORD	wordpools/wasnorm_wordpool_576.txt	LTP364	ltpFR2	23	10	ANGEL	22	n/a	n/a	0	0	0
1999847	START	n/a	LTP364	ltpFR2	23	n/a	n/a	n/a	16	n/a	n/a	n/a	n/a
2000948	DISTRACTOR	n/a	LTP364	ltpFR2	23	10	n/a	n/a	n/a	n/a	0	0	0
2000963	PROB	n/a	LTP364	ltpFR2	23	n/a	n/a	n/a	16	13	9	1	3
2004145	PROB	n/a	LTP364	ltpFR2	23	n/a	n/a	n/a	16	14	4	9	1
2023846	STOP	n/a	LTP364	ltpFR2	23	n/a	n/a	n/a	16	n/a	n/a	n/a	n/a
2025702	REC_START	n/a	LTP364	ltpFR2	23	10	n/a	n/a	n/a	n/a	0	0	0
2029147	REC_WORD	wordpools/wasnorm_wordpool_576.txt	LTP364	ltpFR2	23	10	PIZZA	1079	n/a	n/a	0	0	0
2029527	REC_WORD	wordpools/wasnorm_wordpool_576.txt	LTP364	ltpFR2	23	10	FACE	547	n/a	n/a	0	0	0
2029967	REC_WORD	wordpools/wasnorm_wordpool_576.txt	LTP364	ltpFR2	23	10	LADY	794	n/a	n/a	0	0	0
2031729	REC_WORD	wordpools/wasnorm_wordpool_576.txt	LTP364	ltpFR2	23	10	SCOUT	1252	n/a	n/a	0	0	0
2032567	REC_WORD	wordpools/wasnorm_wordpool_576.txt	LTP364	ltpFR2	23	10	PITCHFORK	1078	n/a	n/a	0	0	0
2116144	WORD	wordpools/wasnorm_wordpool_576.txt	LTP364	ltpFR2	23	11	HEEL	700	n/a	n/a	0	0	0
2118859	WORD	wordpools/wasnorm_wordpool_576.txt	LTP364	ltpFR2	23	11	MAILBOX	857	n/a	n/a	0	0	0
2121608	WORD	wordpools/wasnorm_wordpool_576.txt	LTP364	ltpFR2	23	11	DORM	488	n/a	n/a	0	0	0
2124240	WORD	wordpools/wasnorm_wordpool_576.txt	LTP364	ltpFR2	23	11	KEYBOARD	774	n/a	n/a	0	0	0
2126739	WORD	wordpools/wasnorm_wordpool_576.txt	LTP364	ltpFR2	23	11	TORCH	1484	n/a	n/a	0	0	0
2129422	WORD	wordpools/wasnorm_wordpool_576.txt	LTP364	ltpFR2	23	11	FOSSIL	596	n/a	n/a	0	0	0
2132120	WORD	wordpools/wasnorm_wordpool_576.txt	LTP364	ltpFR2	23	11	WAIST	1579	n/a	n/a	0	0	0
2134636	WORD	wordpools/wasnorm_wordpool_576.txt	LTP364	ltpFR2	23	11	OZONE	996	n/a	n/a	0	0	0
2137385	WORD	wordpools/wasnorm_wordpool_576.txt	LTP364	ltpFR2	23	11	STAPLER	1372	n/a	n/a	0	0	0
2139983	WORD	wordpools/wasnorm_wordpool_576.txt	LTP364	ltpFR2	23	11	PAIL	1002	n/a	n/a	0	0	0
2142450	WORD	wordpools/wasnorm_wordpool_576.txt	LTP364	ltpFR2	23	11	SHOELACE	1289	n/a	n/a	0	0	0
2145114	WORD	wordpools/wasnorm_wordpool_576.txt	LTP364	ltpFR2	23	11	LETTER	813	n/a	n/a	0	0	0
2147730	WORD	wordpools/wasnorm_wordpool_576.txt	LTP364	ltpFR2	23	11	COLLEGE	346	n/a	n/a	0	0	0
2150229	WORD	wordpools/wasnorm_wordpool_576.txt	LTP364	ltpFR2	23	11	INSECT	740	n/a	n/a	0	0	0
2153044	WORD	wordpools/wasnorm_wordpool_576.txt	LTP364	ltpFR2	23	11	SWATTER	1418	n/a	n/a	0	0	0
2155826	WORD	wordpools/wasnorm_wordpool_576.txt	LTP364	ltpFR2	23	11	JUDGE	761	n/a	n/a	0	0	0
2158558	WORD	wordpools/wasnorm_wordpool_576.txt	LTP364	ltpFR2	23	11	CARTON	251	n/a	n/a	0	0	0
2161007	WORD	wordpools/wasnorm_wordpool_576.txt	LTP364	ltpFR2	23	11	THIMBLE	1458	n/a	n/a	0	0	0
2163506	WORD	wordpools/wasnorm_wordpool_576.txt	LTP364	ltpFR2	23	11	HAYSTACK	694	n/a	n/a	0	0	0
2166271	WORD	wordpools/wasnorm_wordpool_576.txt	LTP364	ltpFR2	23	11	TRENCH	1503	n/a	n/a	0	0	0
2168887	WORD	wordpools/wasnorm_wordpool_576.txt	LTP364	ltpFR2	23	11	SINK	1309	n/a	n/a	0	0	0
2171453	WORD	wordpools/wasnorm_wordpool_576.txt	LTP364	ltpFR2	23	11	TIGER	1467	n/a	n/a	0	0	0
2174068	WORD	wordpools/wasnorm_wordpool_576.txt	LTP364	ltpFR2	23	11	ORGAN	984	n/a	n/a	0	0	0
2176783	WORD	wordpools/wasnorm_wordpool_576.txt	LTP364	ltpFR2	23	11	COCOON	339	n/a	n/a	0	0	0
2178400	START	n/a	LTP364	ltpFR2	23	n/a	n/a	n/a	17	n/a	n/a	n/a	n/a
2179270	DISTRACTOR	n/a	LTP364	ltpFR2	23	11	n/a	n/a	n/a	n/a	0	0	0
2179282	PROB	n/a	LTP364	ltpFR2	23	n/a	n/a	n/a	17	19	5	8	6
2185196	PROB	n/a	LTP364	ltpFR2	23	n/a	n/a	n/a	17	13	3	3	7
2187595	PROB	n/a	LTP364	ltpFR2	23	n/a	n/a	n/a	17	23	8	8	7
2196409	PROB	n/a	LTP364	ltpFR2	23	n/a	n/a	n/a	17	18	3	7	8
2198157	PROB	n/a	LTP364	ltpFR2	23	n/a	n/a	n/a	17	11	2	4	5
2200523	PROB	n/a	LTP364	ltpFR2	23	n/a	n/a	n/a	17	14	7	3	4
2201877	STOP	n/a	LTP364	ltpFR2	23	n/a	n/a	n/a	17	n/a	n/a	n/a	n/a
2204238	REC_START	n/a	LTP364	ltpFR2	23	11	n/a	n/a	n/a	n/a	0	0	0
2205024	REC_WORD	wordpools/wasnorm_wordpool_576.txt	LTP364	ltpFR2	23	11	TRENCH	1503	n/a	n/a	0	0	0
2214471	REC_WORD	wordpools/wasnorm_wordpool_576.txt	LTP364	ltpFR2	23	11	BROTHER	179	n/a	n/a	0	0	0
2294680	DISTRACTOR	n/a	LTP364	ltpFR2	23	12	n/a	n/a	n/a	n/a	0	0	0
2294680	START	n/a	LTP364	ltpFR2	23	n/a	n/a	n/a	18	n/a	n/a	n/a	n/a
2294697	PROB	n/a	LTP364	ltpFR2	23	n/a	n/a	n/a	18	13	2	2	9
2297079	PROB	n/a	LTP364	ltpFR2	23	n/a	n/a	n/a	18	19	3	9	7
2298562	PROB	n/a	LTP364	ltpFR2	23	n/a	n/a	n/a	18	19	7	8	4
2300477	PROB	n/a	LTP364	ltpFR2	23	n/a	n/a	n/a	18	11	5	4	2
2302976	PROB	n/a	LTP364	ltpFR2	23	n/a	n/a	n/a	18	13	2	4	7
2305625	PROB	n/a	LTP364	ltpFR2	23	n/a	n/a	n/a	18	5	1	3	1
2306991	PROB	n/a	LTP364	ltpFR2	23	n/a	n/a	n/a	18	12	4	6	2
2308790	PROB	n/a	LTP364	ltpFR2	23	n/a	n/a	n/a	18	9	1	3	5
2318680	STOP	n/a	LTP364	ltpFR2	23	n/a	n/a	n/a	18	n/a	n/a	n/a	n/a
2319502	WORD	wordpools/wasnorm_wordpool_576.txt	LTP364	ltpFR2	23	12	PAPER	1011	n/a	n/a	0	0	0
2322168	WORD	wordpools/wasnorm_wordpool_576.txt	LTP364	ltpFR2	23	12	GREASE	660	n/a	n/a	0	0	0
2324883	WORD	wordpools/wasnorm_wordpool_576.txt	LTP364	ltpFR2	23	12	TRUCK	1512	n/a	n/a	0	0	0
2327698	WORD	wordpools/wasnorm_wordpool_576.txt	LTP364	ltpFR2	23	12	PACKAGE	997	n/a	n/a	0	0	0
2330231	WORD	wordpools/wasnorm_wordpool_576.txt	LTP364	ltpFR2	23	12	CARPET	247	n/a	n/a	0	0	0
2332863	WORD	wordpools/wasnorm_wordpool_576.txt	LTP364	ltpFR2	23	12	PLAID	1080	n/a	n/a	0	0	0
2335312	WORD	wordpools/wasnorm_wordpool_576.txt	LTP364	ltpFR2	23	12	PRIEST	1122	n/a	n/a	0	0	0
2338077	WORD	wordpools/wasnorm_wordpool_576.txt	LTP364	ltpFR2	23	12	SUSPECT	1415	n/a	n/a	0	0	0
2340509	WORD	wordpools/wasnorm_wordpool_576.txt	LTP364	ltpFR2	23	12	BRIDE	173	n/a	n/a	0	0	0
2342942	WORD	wordpools/wasnorm_wordpool_576.txt	LTP364	ltpFR2	23	12	DAD	433	n/a	n/a	0	0	0
2345375	WORD	wordpools/wasnorm_wordpool_576.txt	LTP364	ltpFR2	23	12	CONSOLE	364	n/a	n/a	0	0	0
2347923	WORD	wordpools/wasnorm_wordpool_576.txt	LTP364	ltpFR2	23	12	PASTRY	1022	n/a	n/a	0	0	0
2350655	WORD	wordpools/wasnorm_wordpool_576.txt	LTP364	ltpFR2	23	12	ATTIRE	57	n/a	n/a	0	0	0
2353354	WORD	wordpools/wasnorm_wordpool_576.txt	LTP364	ltpFR2	23	12	THIEF	1456	n/a	n/a	0	0	0
2355819	WORD	wordpools/wasnorm_wordpool_576.txt	LTP364	ltpFR2	23	12	BATHTUB	100	n/a	n/a	0	0	0
2358351	WORD	wordpools/wasnorm_wordpool_576.txt	LTP364	ltpFR2	23	12	SUBWAY	1400	n/a	n/a	0	0	0
2360933	WORD	wordpools/wasnorm_wordpool_576.txt	LTP364	ltpFR2	23	12	BEAKER	104	n/a	n/a	0	0	0
2363749	WORD	wordpools/wasnorm_wordpool_576.txt	LTP364	ltpFR2	23	12	SPONGE	1355	n/a	n/a	0	0	0
2366214	WORD	wordpools/wasnorm_wordpool_576.txt	LTP364	ltpFR2	23	12	FRAME	600	n/a	n/a	0	0	0
2368680	WORD	wordpools/wasnorm_wordpool_576.txt	LTP364	ltpFR2	23	12	PICTURE	1061	n/a	n/a	0	0	0
2371195	WORD	wordpools/wasnorm_wordpool_576.txt	LTP364	ltpFR2	23	12	BRACELET	163	n/a	n/a	0	0	0
2373828	WORD	wordpools/wasnorm_wordpool_576.txt	LTP364	ltpFR2	23	12	HOUND	724	n/a	n/a	0	0	0
2376526	WORD	wordpools/wasnorm_wordpool_576.txt	LTP364	ltpFR2	23	12	PLUTO	1092	n/a	n/a	0	0	0
2379175	WORD	wordpools/wasnorm_wordpool_576.txt	LTP364	ltpFR2	23	12	POND	1101	n/a	n/a	0	0	0
2380791	START	n/a	LTP364	ltpFR2	23	n/a	n/a	n/a	19	n/a	n/a	n/a	n/a
2381918	DISTRACTOR	n/a	LTP364	ltpFR2	23	12	n/a	n/a	n/a	n/a	0	0	0
2381924	PROB	n/a	LTP364	ltpFR2	23	n/a	n/a	n/a	19	13	1	4	8
2384539	PROB	n/a	LTP364	ltpFR2	23	n/a	n/a	n/a	19	15	4	5	6
2388005	PROB	n/a	LTP364	ltpFR2	23	n/a	n/a	n/a	19	11	3	7	1
2392003	PROB	n/a	LTP364	ltpFR2	23	n/a	n/a	n/a	19	11	7	1	3
2393602	PROB	n/a	LTP364	ltpFR2	23	n/a	n/a	n/a	19	16	5	6	5
2395151	PROB	n/a	LTP364	ltpFR2	23	n/a	n/a	n/a	19	15	9	5	1
2404791	STOP	n/a	LTP364	ltpFR2	23	n/a	n/a	n/a	19	n/a	n/a	n/a	n/a
2406713	REC_START	n/a	LTP364	ltpFR2	23	12	n/a	n/a	n/a	n/a	0	0	0
2409820	REC_WORD	wordpools/wasnorm_wordpool_576.txt	LTP364	ltpFR2	23	12	BATHTUB	100	n/a	n/a	0	0	0
2410818	REC_WORD_VV	wordpools/wasnorm_wordpool_576.txt	LTP364	ltpFR2	23	12	<>	-1	n/a	n/a	0	0	0
2497139	DISTRACTOR	n/a	LTP364	ltpFR2	23	13	n/a	n/a	n/a	n/a	0	0	0
2497139	START	n/a	LTP364	ltpFR2	23	n/a	n/a	n/a	20	n/a	n/a	n/a	n/a
2497155	PROB	n/a	LTP364	ltpFR2	23	n/a	n/a	n/a	20	12	1	8	3
2521138	STOP	n/a	LTP364	ltpFR2	23	n/a	n/a	n/a	20	n/a	n/a	n/a	n/a
2521977	WORD	wordpools/wasnorm_wordpool_576.txt	LTP364	ltpFR2	23	13	HATCHET	691	n/a	n/a	0	0	0
2524676	WORD	wordpools/wasnorm_wordpool_576.txt	LTP364	ltpFR2	23	13	CANOE	233	n/a	n/a	0	0	0
2527175	WORD	wordpools/wasnorm_wordpool_576.txt	LTP364	ltpFR2	23	13	GRAVEL	659	n/a	n/a	0	0	0
2529707	WORD	wordpools/wasnorm_wordpool_576.txt	LTP364	ltpFR2	23	13	HIGHWAY	707	n/a	n/a	0	0	0
2532273	WORD	wordpools/wasnorm_wordpool_576.txt	LTP364	ltpFR2	23	13	DANDRUFF	439	n/a	n/a	0	0	0
2535088	WORD	wordpools/wasnorm_wordpool_576.txt	LTP364	ltpFR2	23	13	SKIRT	1319	n/a	n/a	0	0	0
2537820	WORD	wordpools/wasnorm_wordpool_576.txt	LTP364	ltpFR2	23	13	SCOTCH	1251	n/a	n/a	0	0	0
2540269	WORD	wordpools/wasnorm_wordpool_576.txt	LTP364	ltpFR2	23	13	DRINK	498	n/a	n/a	0	0	0
2542751	WORD	wordpools/wasnorm_wordpool_576.txt	LTP364	ltpFR2	23	13	JURY	766	n/a	n/a	0	0	0
2545451	WORD	wordpools/wasnorm_wordpool_576.txt	LTP364	ltpFR2	23	13	TABLE	1426	n/a	n/a	0	0	0
2548182	WORD	wordpools/wasnorm_wordpool_576.txt	LTP364	ltpFR2	23	13	BUREAU	199	n/a	n/a	0	0	0
2550881	WORD	wordpools/wasnorm_wordpool_576.txt	LTP364	ltpFR2	23	13	ANCHOR	21	n/a	n/a	0	0	0
2553546	WORD	wordpools/wasnorm_wordpool_576.txt	LTP364	ltpFR2	23	13	CABBAGE	210	n/a	n/a	0	0	0
2556295	WORD	wordpools/wasnorm_wordpool_576.txt	LTP364	ltpFR2	23	13	VALLEY	1545	n/a	n/a	0	0	0
2559011	WORD	wordpools/wasnorm_wordpool_576.txt	LTP364	ltpFR2	23	13	SIDING	1304	n/a	n/a	0	0	0
2561593	WORD	wordpools/wasnorm_wordpool_576.txt	LTP364	ltpFR2	23	13	SPOON	1357	n/a	n/a	0	0	0
2564325	WORD	wordpools/wasnorm_wordpool_576.txt	LTP364	ltpFR2	23	13	NEPHEW	942	n/a	n/a	0	0	0
2566957	WORD	wordpools/wasnorm_wordpool_576.txt	LTP364	ltpFR2	23	13	BIKE	125	n/a	n/a	0	0	0
2569689	WORD	wordpools/wasnorm_wordpool_576.txt	LTP364	ltpFR2	23	13	ELK	526	n/a	n/a	0	0	0
2572456	WORD	wordpools/wasnorm_wordpool_576.txt	LTP364	ltpFR2	23	13	CLIFF	322	n/a	n/a	0	0	0
2575137	WORD	wordpools/wasnorm_wordpool_576.txt	LTP364	ltpFR2	23	13	MOTHER	921	n/a	n/a	0	0	0
2577919	WORD	wordpools/wasnorm_wordpool_576.txt	LTP364	ltpFR2	23	13	HELMET	702	n/a	n/a	0	0	0
2580518	WORD	wordpools/wasnorm_wordpool_576.txt	LTP364	ltpFR2	23	13	PASTA	1021	n/a	n/a	0	0	0
2583183	WORD	wordpools/wasnorm_wordpool_576.txt	LTP364	ltpFR2	23	13	MONKEY	911	n/a	n/a	0	0	0
2584799	START	n/a	LTP364	ltpFR2	23	n/a	n/a	n/a	21	n/a	n/a	n/a	n/a
2585912	DISTRACTOR	n/a	LTP364	ltpFR2	23	13	n/a	n/a	n/a	n/a	0	0	0
2585915	PROB	n/a	LTP364	ltpFR2	23	n/a	n/a	n/a	21	20	7	5	8
2608799	STOP	n/a	LTP364	ltpFR2	23	n/a	n/a	n/a	21	n/a	n/a	n/a	n/a
2610754	REC_START	n/a	LTP364	ltpFR2	23	13	n/a	n/a	n/a	n/a	0	0	0
2632204	REC_WORD	wordpools/wasnorm_wordpool_576.txt	LTP364	ltpFR2	23	13	ANCHOR	21	n/a	n/a	0	0	0
2637627	REC_WORD	wordpools/wasnorm_wordpool_576.txt	LTP364	ltpFR2	23	13	MOTHER	921	n/a	n/a	0	0	0
2641315	REC_WORD	wordpools/wasnorm_wordpool_576.txt	LTP364	ltpFR2	23	13	CLIFF	322	n/a	n/a	0	0	0
2645647	REC_WORD	wordpools/wasnorm_wordpool_576.txt	LTP364	ltpFR2	23	13	MONKEY	911	n/a	n/a	0	0	0
2701196	WORD	wordpools/wasnorm_wordpool_576.txt	LTP364	ltpFR2	23	14	CLERK	321	n/a	n/a	0	0	0
2703862	WORD	wordpools/wasnorm_wordpool_576.txt	LTP364	ltpFR2	23	14	DESK	452	n/a	n/a	0	0	0
2706378	WORD	wordpools/wasnorm_wordpool_576.txt	LTP364	ltpFR2	23	14	NICKEL	950	n/a	n/a	0	0	0
2709076	WORD	wordpools/wasnorm_wordpool_576.txt	LTP364	ltpFR2	23	14	FREEWAY	603	n/a	n/a	0	0	0
2711858	WORD	wordpools/wasnorm_wordpool_576.txt	LTP364	ltpFR2	23	14	LEOPARD	812	n/a	n/a	0	0	0
2714607	WORD	wordpools/wasnorm_wordpool_576.txt	LTP364	ltpFR2	23	14	PEANUT	1032	n/a	n/a	0	0	0
2717423	WORD	wordpools/wasnorm_wordpool_576.txt	LTP364	ltpFR2	23	14	JAR	750	n/a	n/a	0	0	0
2719855	WORD	wordpools/wasnorm_wordpool_576.txt	LTP364	ltpFR2	23	14	CRYSTAL	418	n/a	n/a	0	0	0
2722388	WORD	wordpools/wasnorm_wordpool_576.txt	LTP364	ltpFR2	23	14	SCAPEGOAT	1244	n/a	n/a	0	0	0
2724902	WORD	wordpools/wasnorm_wordpool_576.txt	LTP364	ltpFR2	23	14	SLEEVE	1324	n/a	n/a	0	0	0
2727634	WORD	wordpools/wasnorm_wordpool_576.txt	LTP364	ltpFR2	23	14	GAZELLE	628	n/a	n/a	0	0	0
2730167	WORD	wordpools/wasnorm_wordpool_576.txt	LTP364	ltpFR2	23	14	WALNUT	1584	n/a	n/a	0	0	0
2732882	WORD	wordpools/wasnorm_wordpool_576.txt	LTP364	ltpFR2	23	14	GYMNAST	675	n/a	n/a	0	0	0
2735365	WORD	wordpools/wasnorm_wordpool_576.txt	LTP364	ltpFR2	23	14	POET	1095	n/a	n/a	0	0	0
2737963	WORD	wordpools/wasnorm_wordpool_576.txt	LTP364	ltpFR2	23	14	ATHLETE	52	n/a	n/a	0	0	0
2740778	WORD	wordpools/wasnorm_wordpool_576.txt	LTP364	ltpFR2	23	14	PUDDING	1139	n/a	n/a	0	0	0
2743412	WORD	wordpools/wasnorm_wordpool_576.txt	LTP364	ltpFR2	23	14	CABOOSE	214	n/a	n/a	0	0	0
2745893	WORD	wordpools/wasnorm_wordpool_576.txt	LTP364	ltpFR2	23	14	RAILROAD	1162	n/a	n/a	0	0	0
2748608	WORD	wordpools/wasnorm_wordpool_576.txt	LTP364	ltpFR2	23	14	CHECKERS	285	n/a	n/a	0	0	0
2751107	WORD	wordpools/wasnorm_wordpool_576.txt	LTP364	ltpFR2	23	14	JEEP	753	n/a	n/a	0	0	0
2753723	WORD	wordpools/wasnorm_wordpool_576.txt	LTP364	ltpFR2	23	14	COTTAGE	384	n/a	n/a	0	0	0
2756271	WORD	wordpools/wasnorm_wordpool_576.txt	LTP364	ltpFR2	23	14	ACORN	3	n/a	n/a	0	0	0
2758754	WORD	wordpools/wasnorm_wordpool_576.txt	LTP364	ltpFR2	23	14	TRIGGER	1507	n/a	n/a	0	0	0
2761286	WORD	wordpools/wasnorm_wordpool_576.txt	LTP364	ltpFR2	23	14	PORTRAIT	1111	n/a	n/a	0	0	0
2762902	START	n/a	LTP364	ltpFR2	23	n/a	n/a	n/a	22	n/a	n/a	n/a	n/a
2763743	DISTRACTOR	n/a	LTP364	ltpFR2	23	14	n/a	n/a	n/a	n/a	0	0	0
2763751	PROB	n/a	LTP364	ltpFR2	23	n/a	n/a	n/a	22	13	6	1	6
2780061	PROB	n/a	LTP364	ltpFR2	23	n/a	n/a	n/a	22	16	3	8	5
2786902	STOP	n/a	LTP364	ltpFR2	23	n/a	n/a	n/a	22	n/a	n/a	n/a	n/a
2788675	REC_START	n/a	LTP364	ltpFR2	23	14	n/a	n/a	n/a	n/a	0	0	0
2793685	REC_WORD	wordpools/wasnorm_wordpool_576.txt	LTP364	ltpFR2	23	14	RAILROAD	1162	n/a	n/a	0	0	0
2796178	REC_WORD	wordpools/wasnorm_wordpool_576.txt	LTP364	ltpFR2	23	14	CHECKERS	285	n/a	n/a	0	0	0
2797044	REC_WORD	wordpools/wasnorm_wordpool_576.txt	LTP364	ltpFR2	23	14	COFFEE	341	n/a	n/a	0	0	0
2803977	REC_WORD	wordpools/wasnorm_wordpool_576.txt	LTP364	ltpFR2	23	14	SCAPEGOAT	1244	n/a	n/a	0	0	0
2820736	REC_WORD_VV	wordpools/wasnorm_wordpool_576.txt	LTP364	ltpFR2	23	14	<>	-1	n/a	n/a	0	0	0
2825167	REC_WORD_VV	wordpools/wasnorm_wordpool_576.txt	LTP364	ltpFR2	23	14	<>	-1	n/a	n/a	0	0	0
2830331	REC_WORD_VV	wordpools/wasnorm_wordpool_576.txt	LTP364	ltpFR2	23	14	<>	-1	n/a	n/a	0	0	0
2851153	REC_WORD_VV	wordpools/wasnorm_wordpool_576.txt	LTP364	ltpFR2	23	14	<>	-1	n/a	n/a	0	0	0
2858207	REC_WORD_VV	wordpools/wasnorm_wordpool_576.txt	LTP364	ltpFR2	23	14	<>	-1	n/a	n/a	0	0	0
2879116	WORD	wordpools/wasnorm_wordpool_576.txt	LTP364	ltpFR2	23	15	FEMALE	559	n/a	n/a	0	0	0
2881865	WORD	wordpools/wasnorm_wordpool_576.txt	LTP364	ltpFR2	23	15	CROOK	412	n/a	n/a	0	0	0
2884431	WORD	wordpools/wasnorm_wordpool_576.txt	LTP364	ltpFR2	23	15	DUNGEON	507	n/a	n/a	0	0	0
2886979	WORD	wordpools/wasnorm_wordpool_576.txt	LTP364	ltpFR2	23	15	SHORTCAKE	1292	n/a	n/a	0	0	0
2889695	WORD	wordpools/wasnorm_wordpool_576.txt	LTP364	ltpFR2	23	15	CRADLE	399	n/a	n/a	0	0	0
2892127	WORD	wordpools/wasnorm_wordpool_576.txt	LTP364	ltpFR2	23	15	BOUQUET	157	n/a	n/a	0	0	0
2894776	WORD	wordpools/wasnorm_wordpool_576.txt	LTP364	ltpFR2	23	15	GODDESS	646	n/a	n/a	0	0	0
2897341	WORD	wordpools/wasnorm_wordpool_576.txt	LTP364	ltpFR2	23	15	ADULT	8	n/a	n/a	0	0	0
2900090	WORD	wordpools/wasnorm_wordpool_576.txt	LTP364	ltpFR2	23	15	CANDY	230	n/a	n/a	0	0	0
2902855	WORD	wordpools/wasnorm_wordpool_576.txt	LTP364	ltpFR2	23	15	BIBLE	124	n/a	n/a	0	0	0
2905288	WORD	wordpools/wasnorm_wordpool_576.txt	LTP364	ltpFR2	23	15	BEAST	108	n/a	n/a	0	0	0
2908103	WORD	wordpools/wasnorm_wordpool_576.txt	LTP364	ltpFR2	23	15	QUILT	1151	n/a	n/a	0	0	0
2910635	WORD	wordpools/wasnorm_wordpool_576.txt	LTP364	ltpFR2	23	15	FLANNEL	574	n/a	n/a	0	0	0
2913267	WORD	wordpools/wasnorm_wordpool_576.txt	LTP364	ltpFR2	23	15	WRITER	1627	n/a	n/a	0	0	0
2915883	WORD	wordpools/wasnorm_wordpool_576.txt	LTP364	ltpFR2	23	15	MARSH	874	n/a	n/a	0	0	0
2918698	WORD	wordpools/wasnorm_wordpool_576.txt	LTP364	ltpFR2	23	15	ARTIST	43	n/a	n/a	0	0	0
2921448	WORD	wordpools/wasnorm_wordpool_576.txt	LTP364	ltpFR2	23	15	HAMMER	680	n/a	n/a	0	0	0
2923896	WORD	wordpools/wasnorm_wordpool_576.txt	LTP364	ltpFR2	23	15	FATHER	554	n/a	n/a	0	0	0
2926695	WORD	wordpools/wasnorm_wordpool_576.txt	LTP364	ltpFR2	23	15	PIRATE	1074	n/a	n/a	0	0	0
2929477	WORD	wordpools/wasnorm_wordpool_576.txt	LTP364	ltpFR2	23	15	DECK	443	n/a	n/a	0	0	0
2932109	WORD	wordpools/wasnorm_wordpool_576.txt	LTP364	ltpFR2	23	15	FOLDER	588	n/a	n/a	0	0	0
2934674	WORD	wordpools/wasnorm_wordpool_576.txt	LTP364	ltpFR2	23	15	DENIM	446	n/a	n/a	0	0	0
2937340	WORD	wordpools/wasnorm_wordpool_576.txt	LTP364	ltpFR2	23	15	GARLIC	624	n/a	n/a	0	0	0
2939822	WORD	wordpools/wasnorm_wordpool_576.txt	LTP364	ltpFR2	23	15	SQUID	1361	n/a	n/a	0	0	0
2941439	START	n/a	LTP364	ltpFR2	23	n/a	n/a	n/a	23	n/a	n/a	n/a	n/a
2942579	DISTRACTOR	n/a	LTP364	ltpFR2	23	15	n/a	n/a	n/a	n/a	0	0	0
2942587	PROB	n/a	LTP364	ltpFR2	23	n/a	n/a	n/a	23	6	2	3	1
2945454	PROB	n/a	LTP364	ltpFR2	23	n/a	n/a	n/a	23	6	1	3	2
2946685	PROB	n/a	LTP364	ltpFR2	23	n/a	n/a	n/a	23	10	5	1	4
2965439	STOP	n/a	LTP364	ltpFR2	23	n/a	n/a	n/a	23	n/a	n/a	n/a	n/a
2967294	REC_START	n/a	LTP364	ltpFR2	23	15	n/a	n/a	n/a	n/a	0	0	0
2972278	REC_WORD_VV	wordpools/wasnorm_wordpool_576.txt	LTP364	ltpFR2	23	15	<>	-1	n/a	n/a	0	0	0
2990597	REC_WORD	wordpools/wasnorm_wordpool_576.txt	LTP364	ltpFR2	23	15	LADY	794	n/a	n/a	0	0	0
3009705	REC_WORD_VV	wordpools/wasnorm_wordpool_576.txt	LTP364	ltpFR2	23	15	<>	-1	n/a	n/a	0	0	0
3014909	REC_WORD_VV	wordpools/wasnorm_wordpool_576.txt	LTP364	ltpFR2	23	15	<>	-1	n/a	n/a	0	0	0
3019264	REC_WORD_VV	wordpools/wasnorm_wordpool_576.txt	LTP364	ltpFR2	23	15	<>	-1	n/a	n/a	0	0	0
3057719	DISTRACTOR	n/a	LTP364	ltpFR2	23	16	n/a	n/a	n/a	n/a	0	0	0
3057719	START	n/a	LTP364	ltpFR2	23	n/a	n/a	n/a	24	n/a	n/a	n/a	n/a
3057735	PROB	n/a	LTP364	ltpFR2	23	n/a	n/a	n/a	24	21	8	9	4
3061001	PROB	n/a	LTP364	ltpFR2	23	n/a	n/a	n/a	24	16	8	1	7
3063549	PROB	n/a	LTP364	ltpFR2	23	n/a	n/a	n/a	24	14	5	3	6
3065632	PROB	n/a	LTP364	ltpFR2	23	n/a	n/a	n/a	24	21	9	7	5
3071479	PROB	n/a	LTP364	ltpFR2	23	n/a	n/a	n/a	24	11	3	5	3
3074161	PROB	n/a	LTP364	ltpFR2	23	n/a	n/a	n/a	24	19	2	8	9
3081719	STOP	n/a	LTP364	ltpFR2	23	n/a	n/a	n/a	24	n/a	n/a	n/a	n/a
3082724	WORD	wordpools/wasnorm_wordpool_576.txt	LTP364	ltpFR2	23	16	WALRUS	1585	n/a	n/a	0	0	0
3085440	WORD	wordpools/wasnorm_wordpool_576.txt	LTP364	ltpFR2	23	16	SURVEY	1414	n/a	n/a	0	0	0
3087872	WORD	wordpools/wasnorm_wordpool_576.txt	LTP364	ltpFR2	23	16	SLUG	1329	n/a	n/a	0	0	0
3090554	WORD	wordpools/wasnorm_wordpool_576.txt	LTP364	ltpFR2	23	16	SNAIL	1332	n/a	n/a	0	0	0
3093053	WORD	wordpools/wasnorm_wordpool_576.txt	LTP364	ltpFR2	23	16	STREET	1393	n/a	n/a	0	0	0
3095801	WORD	wordpools/wasnorm_wordpool_576.txt	LTP364	ltpFR2	23	16	RESORT	1186	n/a	n/a	0	0	0
3098284	WORD	wordpools/wasnorm_wordpool_576.txt	LTP364	ltpFR2	23	16	PANTS	1010	n/a	n/a	0	0	0
3100949	WORD	wordpools/wasnorm_wordpool_576.txt	LTP364	ltpFR2	23	16	SCALLOP	1242	n/a	n/a	0	0	0
3103748	WORD	wordpools/wasnorm_wordpool_576.txt	LTP364	ltpFR2	23	16	TROUT	1511	n/a	n/a	0	0	0
3106330	WORD	wordpools/wasnorm_wordpool_576.txt	LTP364	ltpFR2	23	16	SHELF	1280	n/a	n/a	0	0	0
3108846	WORD	wordpools/wasnorm_wordpool_576.txt	LTP364	ltpFR2	23	16	TROUSERS	1510	n/a	n/a	0	0	0
3111511	WORD	wordpools/wasnorm_wordpool_576.txt	LTP364	ltpFR2	23	16	BUNNY	198	n/a	n/a	0	0	0
3114293	WORD	wordpools/wasnorm_wordpool_576.txt	LTP364	ltpFR2	23	16	LAPEL	800	n/a	n/a	0	0	0
3116792	WORD	wordpools/wasnorm_wordpool_576.txt	LTP364	ltpFR2	23	16	COLONEL	348	n/a	n/a	0	0	0
3119291	WORD	wordpools/wasnorm_wordpool_576.txt	LTP364	ltpFR2	23	16	GUARD	667	n/a	n/a	0	0	0
3122040	WORD	wordpools/wasnorm_wordpool_576.txt	LTP364	ltpFR2	23	16	LIGHTNING	820	n/a	n/a	0	0	0
3124822	WORD	wordpools/wasnorm_wordpool_576.txt	LTP364	ltpFR2	23	16	FUNGUS	614	n/a	n/a	0	0	0
3127620	WORD	wordpools/wasnorm_wordpool_576.txt	LTP364	ltpFR2	23	16	TOOTHBRUSH	1482	n/a	n/a	0	0	0
3130286	WORD	wordpools/wasnorm_wordpool_576.txt	LTP364	ltpFR2	23	16	SIRLOIN	1311	n/a	n/a	0	0	0
3132818	WORD	wordpools/wasnorm_wordpool_576.txt	LTP364	ltpFR2	23	16	SHRIMP	1297	n/a	n/a	0	0	0
3135600	WORD	wordpools/wasnorm_wordpool_576.txt	LTP364	ltpFR2	23	16	SKUNK	1321	n/a	n/a	0	0	0
3138383	WORD	wordpools/wasnorm_wordpool_576.txt	LTP364	ltpFR2	23	16	ROACH	1195	n/a	n/a	0	0	0
3140948	WORD	wordpools/wasnorm_wordpool_576.txt	LTP364	ltpFR2	23	16	PLUM	1090	n/a	n/a	0	0	0
3143414	WORD	wordpools/wasnorm_wordpool_576.txt	LTP364	ltpFR2	23	16	FEAST	556	n/a	n/a	0	0	0
3145029	START	n/a	LTP364	ltpFR2	23	n/a	n/a	n/a	25	n/a	n/a	n/a	n/a
3146201	DISTRACTOR	n/a	LTP364	ltpFR2	23	16	n/a	n/a	n/a	n/a	0	0	0
3146212	PROB	n/a	LTP364	ltpFR2	23	n/a	n/a	n/a	25	15	6	7	2
3162871	PROB	n/a	LTP364	ltpFR2	23	n/a	n/a	n/a	25	1	8	7	2
3169028	STOP	n/a	LTP364	ltpFR2	23	n/a	n/a	n/a	25	n/a	n/a	n/a	n/a
3170851	REC_START	n/a	LTP364	ltpFR2	23	16	n/a	n/a	n/a	n/a	0	0	0
3176394	REC_WORD	wordpools/wasnorm_wordpool_576.txt	LTP364	ltpFR2	23	16	AWARD	63	n/a	n/a	0	0	0
3182399	REC_WORD	wordpools/wasnorm_wordpool_576.txt	LTP364	ltpFR2	23	16	JUNGLE	764	n/a	n/a	0	0	0
3247384	REST_REWET	n/a	LTP364	ltpFR2	23	16	n/a	n/a	n/a	n/a	0	0	0
3386237	WORD	wordpools/wasnorm_wordpool_576.txt	LTP364	ltpFR2	23	17	PIGEON	1065	n/a	n/a	0	0	0
3388736	WORD	wordpools/wasnorm_wordpool_576.txt	LTP364	ltpFR2	23	17	REINDEER	1181	n/a	n/a	0	0	0
3391436	WORD	wordpools/wasnorm_wordpool_576.txt	LTP364	ltpFR2	23	17	SHEPHERD	1283	n/a	n/a	0	0	0
3394217	WORD	wordpools/wasnorm_wordpool_576.txt	LTP364	ltpFR2	23	17	WOLF	1619	n/a	n/a	0	0	0
3396782	WORD	wordpools/wasnorm_wordpool_576.txt	LTP364	ltpFR2	23	17	CACTUS	215	n/a	n/a	0	0	0
3399514	WORD	wordpools/wasnorm_wordpool_576.txt	LTP364	ltpFR2	23	17	BOUILLON	154	n/a	n/a	0	0	0
3402130	WORD	wordpools/wasnorm_wordpool_576.txt	LTP364	ltpFR2	23	17	SOLDIER	1344	n/a	n/a	0	0	0
3404662	WORD	wordpools/wasnorm_wordpool_576.txt	LTP364	ltpFR2	23	17	STAMP	1370	n/a	n/a	0	0	0
3407161	WORD	wordpools/wasnorm_wordpool_576.txt	LTP364	ltpFR2	23	17	BANK	83	n/a	n/a	0	0	0
3409893	WORD	wordpools/wasnorm_wordpool_576.txt	LTP364	ltpFR2	23	17	TULIP	1517	n/a	n/a	0	0	0
3412508	WORD	wordpools/wasnorm_wordpool_576.txt	LTP364	ltpFR2	23	17	STRING	1394	n/a	n/a	0	0	0
3415257	WORD	wordpools/wasnorm_wordpool_576.txt	LTP364	ltpFR2	23	17	PUMPKIN	1142	n/a	n/a	0	0	0
3417973	WORD	wordpools/wasnorm_wordpool_576.txt	LTP364	ltpFR2	23	17	WAGON	1578	n/a	n/a	0	0	0
3420688	WORD	wordpools/wasnorm_wordpool_576.txt	LTP364	ltpFR2	23	17	YARD	1630	n/a	n/a	0	0	0
3423470	WORD	wordpools/wasnorm_wordpool_576.txt	LTP364	ltpFR2	23	17	GRASS	655	n/a	n/a	0	0	0
3425936	WORD	wordpools/wasnorm_wordpool_576.txt	LTP364	ltpFR2	23	17	HOSTAGE	722	n/a	n/a	0	0	0
3428435	WORD	wordpools/wasnorm_wordpool_576.txt	LTP364	ltpFR2	23	17	HANDBAG	684	n/a	n/a	0	0	0
3430983	WORD	wordpools/wasnorm_wordpool_576.txt	LTP364	ltpFR2	23	17	STOCKING	1383	n/a	n/a	0	0	0
3433565	WORD	wordpools/wasnorm_wordpool_576.txt	LTP364	ltpFR2	23	17	CONCRETE	361	n/a	n/a	0	0	0
3436314	WORD	wordpools/wasnorm_wordpool_576.txt	LTP364	ltpFR2	23	17	PAVEMENT	1028	n/a	n/a	0	0	0
3438863	WORD	wordpools/wasnorm_wordpool_576.txt	LTP364	ltpFR2	23	17	COCKTAIL	338	n/a	n/a	0	0	0
3441413	WORD	wordpools/wasnorm_wordpool_576.txt	LTP364	ltpFR2	23	17	LAMP	798	n/a	n/a	0	0	0
3444027	WORD	wordpools/wasnorm_wordpool_576.txt	LTP364	ltpFR2	23	17	PERFUME	1049	n/a	n/a	0	0	0
3446610	WORD	wordpools/wasnorm_wordpool_576.txt	LTP364	ltpFR2	23	17	BOXER	160	n/a	n/a	0	0	0
3448226	START	n/a	LTP364	ltpFR2	23	n/a	n/a	n/a	26	n/a	n/a	n/a	n/a
3449418	DISTRACTOR	n/a	LTP364	ltpFR2	23	17	n/a	n/a	n/a	n/a	0	0	0
3449426	PROB	n/a	LTP364	ltpFR2	23	n/a	n/a	n/a	26	19	8	4	7
3452507	PROB	n/a	LTP364	ltpFR2	23	n/a	n/a	n/a	26	19	8	6	5
3457338	PROB	n/a	LTP364	ltpFR2	23	n/a	n/a	n/a	26	14	8	5	1
3459904	PROB	n/a	LTP364	ltpFR2	23	n/a	n/a	n/a	26	13	2	2	9
3463202	PROB	n/a	LTP364	ltpFR2	23	n/a	n/a	n/a	26	16	6	7	3
3464685	PROB	n/a	LTP364	ltpFR2	23	n/a	n/a	n/a	26	8	4	1	3
3466667	PROB	n/a	LTP364	ltpFR2	23	n/a	n/a	n/a	26	14	5	2	7
3470182	PROB	n/a	LTP364	ltpFR2	23	n/a	n/a	n/a	26	8	1	3	4
3471813	STOP	n/a	LTP364	ltpFR2	23	n/a	n/a	n/a	26	n/a	n/a	n/a	n/a
3474048	REC_START	n/a	LTP364	ltpFR2	23	17	n/a	n/a	n/a	n/a	0	0	0
3475576	REC_WORD	wordpools/wasnorm_wordpool_576.txt	LTP364	ltpFR2	23	17	PIGEON	1065	n/a	n/a	0	0	0
3476296	REC_WORD	wordpools/wasnorm_wordpool_576.txt	LTP364	ltpFR2	23	17	REINDEER	1181	n/a	n/a	0	0	0
3478587	REC_WORD	wordpools/wasnorm_wordpool_576.txt	LTP364	ltpFR2	23	17	SHEPHERD	1283	n/a	n/a	0	0	0
3479432	REC_WORD	wordpools/wasnorm_wordpool_576.txt	LTP364	ltpFR2	23	17	WOLF	1619	n/a	n/a	0	0	0
3564490	WORD	wordpools/wasnorm_wordpool_576.txt	LTP364	ltpFR2	23	18	ELBOW	520	n/a	n/a	0	0	0
3567122	WORD	wordpools/wasnorm_wordpool_576.txt	LTP364	ltpFR2	23	18	ARM	38	n/a	n/a	0	0	0
3569554	WORD	wordpools/wasnorm_wordpool_576.txt	LTP364	ltpFR2	23	18	MESSAGE	888	n/a	n/a	0	0	0
3572020	WORD	wordpools/wasnorm_wordpool_576.txt	LTP364	ltpFR2	23	18	JOINT	758	n/a	n/a	0	0	0
3574485	WORD	wordpools/wasnorm_wordpool_576.txt	LTP364	ltpFR2	23	18	CHEST	295	n/a	n/a	0	0	0
3577067	WORD	wordpools/wasnorm_wordpool_576.txt	LTP364	ltpFR2	23	18	BUCKET	184	n/a	n/a	0	0	0
3579533	WORD	wordpools/wasnorm_wordpool_576.txt	LTP364	ltpFR2	23	18	MUFFIN	929	n/a	n/a	0	0	0
3582132	WORD	wordpools/wasnorm_wordpool_576.txt	LTP364	ltpFR2	23	18	REPORT	1184	n/a	n/a	0	0	0
3584664	WORD	wordpools/wasnorm_wordpool_576.txt	LTP364	ltpFR2	23	18	STAPLE	1371	n/a	n/a	0	0	0
3587414	WORD	wordpools/wasnorm_wordpool_576.txt	LTP364	ltpFR2	23	18	FIST	572	n/a	n/a	0	0	0
3590228	WORD	wordpools/wasnorm_wordpool_576.txt	LTP364	ltpFR2	23	18	TYPIST	1532	n/a	n/a	0	0	0
3593060	WORD	wordpools/wasnorm_wordpool_576.txt	LTP364	ltpFR2	23	18	TOASTER	1472	n/a	n/a	0	0	0
3595709	WORD	wordpools/wasnorm_wordpool_576.txt	LTP364	ltpFR2	23	18	MAGNET	855	n/a	n/a	0	0	0
3598392	WORD	wordpools/wasnorm_wordpool_576.txt	LTP364	ltpFR2	23	18	MERMAID	887	n/a	n/a	0	0	0
3600973	WORD	wordpools/wasnorm_wordpool_576.txt	LTP364	ltpFR2	23	18	GAVEL	627	n/a	n/a	0	0	0
3603472	WORD	wordpools/wasnorm_wordpool_576.txt	LTP364	ltpFR2	23	18	VALVE	1546	n/a	n/a	0	0	0
3606071	WORD	wordpools/wasnorm_wordpool_576.txt	LTP364	ltpFR2	23	18	SENATE	1267	n/a	n/a	0	0	0
3608720	WORD	wordpools/wasnorm_wordpool_576.txt	LTP364	ltpFR2	23	18	OX	994	n/a	n/a	0	0	0
3611552	WORD	wordpools/wasnorm_wordpool_576.txt	LTP364	ltpFR2	23	18	PORK	1108	n/a	n/a	0	0	0
3614350	WORD	wordpools/wasnorm_wordpool_576.txt	LTP364	ltpFR2	23	18	MEAT	883	n/a	n/a	0	0	0
3617049	WORD	wordpools/wasnorm_wordpool_576.txt	LTP364	ltpFR2	23	18	SOCKET	1340	n/a	n/a	0	0	0
3619815	WORD	wordpools/wasnorm_wordpool_576.txt	LTP364	ltpFR2	23	18	HEADBAND	696	n/a	n/a	0	0	0
3622563	WORD	wordpools/wasnorm_wordpool_576.txt	LTP364	ltpFR2	23	18	RULER	1216	n/a	n/a	0	0	0
3625029	WORD	wordpools/wasnorm_wordpool_576.txt	LTP364	ltpFR2	23	18	SLACKS	1323	n/a	n/a	0	0	0
3626645	START	n/a	LTP364	ltpFR2	23	n/a	n/a	n/a	27	n/a	n/a	n/a	n/a
3627498	DISTRACTOR	n/a	LTP364	ltpFR2	23	18	n/a	n/a	n/a	n/a	0	0	0
3627511	PROB	n/a	LTP364	ltpFR2	23	n/a	n/a	n/a	27	16	6	5	5
3630361	PROB	n/a	LTP364	ltpFR2	23	n/a	n/a	n/a	27	11	4	2	5
3634558	PROB	n/a	LTP364	ltpFR2	23	n/a	n/a	n/a	27	19	7	3	9
3650645	STOP	n/a	LTP364	ltpFR2	23	n/a	n/a	n/a	27	n/a	n/a	n/a	n/a
3652401	REC_START	n/a	LTP364	ltpFR2	23	18	n/a	n/a	n/a	n/a	0	0	0
3655158	REC_WORD	wordpools/wasnorm_wordpool_576.txt	LTP364	ltpFR2	23	18	TOASTER	1472	n/a	n/a	0	0	0
3656053	REC_WORD	wordpools/wasnorm_wordpool_576.txt	LTP364	ltpFR2	23	18	MAGNET	855	n/a	n/a	0	0	0
3658238	REC_WORD	wordpools/wasnorm_wordpool_576.txt	LTP364	ltpFR2	23	18	SENATE	1267	n/a	n/a	0	0	0
3659045	REC_WORD	wordpools/wasnorm_wordpool_576.txt	LTP364	ltpFR2	23	18	GAVEL	627	n/a	n/a	0	0	0
3660512	REC_WORD	wordpools/wasnorm_wordpool_576.txt	LTP364	ltpFR2	23	18	MERMAID	887	n/a	n/a	0	0	0
3663691	REC_WORD	wordpools/wasnorm_wordpool_576.txt	LTP364	ltpFR2	23	18	VALVE	1546	n/a	n/a	0	0	0
3665482	REC_WORD	wordpools/wasnorm_wordpool_576.txt	LTP364	ltpFR2	23	18	OX	994	n/a	n/a	0	0	0
3667190	REC_WORD	wordpools/wasnorm_wordpool_576.txt	LTP364	ltpFR2	23	18	MEAT	883	n/a	n/a	0	0	0
3667951	REC_WORD	wordpools/wasnorm_wordpool_576.txt	LTP364	ltpFR2	23	18	PORK	1108	n/a	n/a	0	0	0
3742859	WORD	wordpools/wasnorm_wordpool_576.txt	LTP364	ltpFR2	23	19	SLIME	1327	n/a	n/a	0	0	0
3745541	WORD	wordpools/wasnorm_wordpool_576.txt	LTP364	ltpFR2	23	19	DWARF	510	n/a	n/a	0	0	0
3748057	WORD	wordpools/wasnorm_wordpool_576.txt	LTP364	ltpFR2	23	19	QUARTER	1148	n/a	n/a	0	0	0
3750539	WORD	wordpools/wasnorm_wordpool_576.txt	LTP364	ltpFR2	23	19	PRAIRIE	1118	n/a	n/a	0	0	0
3753088	WORD	wordpools/wasnorm_wordpool_576.txt	LTP364	ltpFR2	23	19	JOKER	759	n/a	n/a	0	0	0
3755737	WORD	wordpools/wasnorm_wordpool_576.txt	LTP364	ltpFR2	23	19	SERGEANT	1269	n/a	n/a	0	0	0
3758235	WORD	wordpools/wasnorm_wordpool_576.txt	LTP364	ltpFR2	23	19	BANKER	84	n/a	n/a	0	0	0
3761051	WORD	wordpools/wasnorm_wordpool_576.txt	LTP364	ltpFR2	23	19	OUTDOORS	987	n/a	n/a	0	0	0
3763816	WORD	wordpools/wasnorm_wordpool_576.txt	LTP364	ltpFR2	23	19	FOREST	593	n/a	n/a	0	0	0
3766515	WORD	wordpools/wasnorm_wordpool_576.txt	LTP364	ltpFR2	23	19	PIMPLE	1071	n/a	n/a	0	0	0
3769297	WORD	wordpools/wasnorm_wordpool_576.txt	LTP364	ltpFR2	23	19	SALAD	1224	n/a	n/a	0	0	0
3771946	WORD	wordpools/wasnorm_wordpool_576.txt	LTP364	ltpFR2	23	19	FRANCE	601	n/a	n/a	0	0	0
3774446	WORD	wordpools/wasnorm_wordpool_576.txt	LTP364	ltpFR2	23	19	LIPSTICK	829	n/a	n/a	0	0	0
3777177	WORD	wordpools/wasnorm_wordpool_576.txt	LTP364	ltpFR2	23	19	EYELASH	546	n/a	n/a	0	0	0
3779809	WORD	wordpools/wasnorm_wordpool_576.txt	LTP364	ltpFR2	23	19	WHISKERS	1605	n/a	n/a	0	0	0
3782591	WORD	wordpools/wasnorm_wordpool_576.txt	LTP364	ltpFR2	23	19	CHICKEN	297	n/a	n/a	0	0	0
3785340	WORD	wordpools/wasnorm_wordpool_576.txt	LTP364	ltpFR2	23	19	WAX	1597	n/a	n/a	0	0	0
3788139	WORD	wordpools/wasnorm_wordpool_576.txt	LTP364	ltpFR2	23	19	TWISTER	1530	n/a	n/a	0	0	0
3790837	WORD	wordpools/wasnorm_wordpool_576.txt	LTP364	ltpFR2	23	19	CYCLONE	431	n/a	n/a	0	0	0
3793404	WORD	wordpools/wasnorm_wordpool_576.txt	LTP364	ltpFR2	23	19	CAPTAIN	239	n/a	n/a	0	0	0
3796052	WORD	wordpools/wasnorm_wordpool_576.txt	LTP364	ltpFR2	23	19	ANTLER	29	n/a	n/a	0	0	0
3798667	WORD	wordpools/wasnorm_wordpool_576.txt	LTP364	ltpFR2	23	19	FOREHEAD	592	n/a	n/a	0	0	0
3801450	WORD	wordpools/wasnorm_wordpool_576.txt	LTP364	ltpFR2	23	19	ATTIC	56	n/a	n/a	0	0	0
3803948	WORD	wordpools/wasnorm_wordpool_576.txt	LTP364	ltpFR2	23	19	BLADE	134	n/a	n/a	0	0	0
3805565	START	n/a	LTP364	ltpFR2	23	n/a	n/a	n/a	28	n/a	n/a	n/a	n/a
3806518	DISTRACTOR	n/a	LTP364	ltpFR2	23	19	n/a	n/a	n/a	n/a	0	0	0
3806530	PROB	n/a	LTP364	ltpFR2	23	n/a	n/a	n/a	28	9	3	2	4
3811778	PROB	n/a	LTP364	ltpFR2	23	n/a	n/a	n/a	28	14	8	2	4
3813261	PROB	n/a	LTP364	ltpFR2	23	n/a	n/a	n/a	28	21	6	9	6
3815394	PROB	n/a	LTP364	ltpFR2	23	n/a	n/a	n/a	28	17	7	9	1
3818359	PROB	n/a	LTP364	ltpFR2	23	n/a	n/a	n/a	28	20	6	6	8
3824139	PROB	n/a	LTP364	ltpFR2	23	n/a	n/a	n/a	28	12	1	9	2
3825672	PROB	n/a	LTP364	ltpFR2	23	n/a	n/a	n/a	28	14	1	5	8
3829564	STOP	n/a	LTP364	ltpFR2	23	n/a	n/a	n/a	28	n/a	n/a	n/a	n/a
3831421	REC_START	n/a	LTP364	ltpFR2	23	19	n/a	n/a	n/a	n/a	0	0	0
3876170	REC_WORD	wordpools/wasnorm_wordpool_576.txt	LTP364	ltpFR2	23	19	WHISKERS	1605	n/a	n/a	0	0	0
3878854	REC_WORD	wordpools/wasnorm_wordpool_576.txt	LTP364	ltpFR2	23	19	WHISKERS	1605	n/a	n/a	0	0	0
3921862	WORD	wordpools/wasnorm_wordpool_576.txt	LTP364	ltpFR2	23	20	LOUNGE	845	n/a	n/a	0	0	0
3924494	WORD	wordpools/wasnorm_wordpool_576.txt	LTP364	ltpFR2	23	20	SNORKEL	1336	n/a	n/a	0	0	0
3927059	WORD	wordpools/wasnorm_wordpool_576.txt	LTP364	ltpFR2	23	20	HANDCUFFS	685	n/a	n/a	0	0	0
3929858	WORD	wordpools/wasnorm_wordpool_576.txt	LTP364	ltpFR2	23	20	RATTLE	1170	n/a	n/a	0	0	0
3932523	WORD	wordpools/wasnorm_wordpool_576.txt	LTP364	ltpFR2	23	20	BASKET	95	n/a	n/a	0	0	0
3935139	WORD	wordpools/wasnorm_wordpool_576.txt	LTP364	ltpFR2	23	20	BENCH	121	n/a	n/a	0	0	0
3937621	WORD	wordpools/wasnorm_wordpool_576.txt	LTP364	ltpFR2	23	20	DIAMOND	458	n/a	n/a	0	0	0
3940404	WORD	wordpools/wasnorm_wordpool_576.txt	LTP364	ltpFR2	23	20	RECORD	1176	n/a	n/a	0	0	0
3942885	WORD	wordpools/wasnorm_wordpool_576.txt	LTP364	ltpFR2	23	20	PORCH	1106	n/a	n/a	0	0	0
3945551	WORD	wordpools/wasnorm_wordpool_576.txt	LTP364	ltpFR2	23	20	BUG	187	n/a	n/a	0	0	0
3948333	WORD	wordpools/wasnorm_wordpool_576.txt	LTP364	ltpFR2	23	20	PILOT	1070	n/a	n/a	0	0	0
3950815	WORD	wordpools/wasnorm_wordpool_576.txt	LTP364	ltpFR2	23	20	SPICE	1350	n/a	n/a	0	0	0
3953398	WORD	wordpools/wasnorm_wordpool_576.txt	LTP364	ltpFR2	23	20	DOORBELL	487	n/a	n/a	0	0	0
3956079	WORD	wordpools/wasnorm_wordpool_576.txt	LTP364	ltpFR2	23	20	ITEM	746	n/a	n/a	0	0	0
3958512	WORD	wordpools/wasnorm_wordpool_576.txt	LTP364	ltpFR2	23	20	PAINTING	1005	n/a	n/a	0	0	0
3961260	WORD	wordpools/wasnorm_wordpool_576.txt	LTP364	ltpFR2	23	20	CANVAS	234	n/a	n/a	0	0	0
3963743	WORD	wordpools/wasnorm_wordpool_576.txt	LTP364	ltpFR2	23	20	SHACK	1273	n/a	n/a	0	0	0
3966442	WORD	wordpools/wasnorm_wordpool_576.txt	LTP364	ltpFR2	23	20	ACTOR	5	n/a	n/a	0	0	0
3969124	WORD	wordpools/wasnorm_wordpool_576.txt	LTP364	ltpFR2	23	20	GERM	632	n/a	n/a	0	0	0
3971589	WORD	wordpools/wasnorm_wordpool_576.txt	LTP364	ltpFR2	23	20	MUSHROOM	934	n/a	n/a	0	0	0
3974105	WORD	wordpools/wasnorm_wordpool_576.txt	LTP364	ltpFR2	23	20	BELT	120	n/a	n/a	0	0	0
3976720	WORD	wordpools/wasnorm_wordpool_576.txt	LTP364	ltpFR2	23	20	YACHT	1629	n/a	n/a	0	0	0
3979403	WORD	wordpools/wasnorm_wordpool_576.txt	LTP364	ltpFR2	23	20	STOVE	1388	n/a	n/a	0	0	0
3981851	WORD	wordpools/wasnorm_wordpool_576.txt	LTP364	ltpFR2	23	20	SICKLE	1302	n/a	n/a	0	0	0
3983467	START	n/a	LTP364	ltpFR2	23	n/a	n/a	n/a	29	n/a	n/a	n/a	n/a
3984346	DISTRACTOR	n/a	LTP364	ltpFR2	23	20	n/a	n/a	n/a	n/a	0	0	0
3984350	PROB	n/a	LTP364	ltpFR2	23	n/a	n/a	n/a	29	6	2	2	2
3986216	PROB	n/a	LTP364	ltpFR2	23	n/a	n/a	n/a	29	14	4	8	2
3988248	PROB	n/a	LTP364	ltpFR2	23	n/a	n/a	n/a	29	12	5	3	4
3993029	PROB	n/a	LTP364	ltpFR2	23	n/a	n/a	n/a	29	21	5	7	9
3996861	PROB	n/a	LTP364	ltpFR2	23	n/a	n/a	n/a	29	23	8	7	8
4004191	PROB	n/a	LTP364	ltpFR2	23	n/a	n/a	n/a	29	15	5	1	9
4006774	STOP	n/a	LTP364	ltpFR2	23	n/a	n/a	n/a	29	n/a	n/a	n/a	n/a
4009239	REC_START	n/a	LTP364	ltpFR2	23	20	n/a	n/a	n/a	n/a	0	0	0
4010349	REC_WORD_VV	wordpools/wasnorm_wordpool_576.txt	LTP364	ltpFR2	23	20	<>	-1	n/a	n/a	0	0	0
4099681	WORD	wordpools/wasnorm_wordpool_576.txt	LTP364	ltpFR2	23	21	SWIMMER	1420	n/a	n/a	0	0	0
4102297	WORD	wordpools/wasnorm_wordpool_576.txt	LTP364	ltpFR2	23	21	LAVA	804	n/a	n/a	0	0	0
4105112	WORD	wordpools/wasnorm_wordpool_576.txt	LTP364	ltpFR2	23	21	BRIEFCASE	175	n/a	n/a	0	0	0
4107644	WORD	wordpools/wasnorm_wordpool_576.txt	LTP364	ltpFR2	23	21	FRIES	607	n/a	n/a	0	0	0
4110343	WORD	wordpools/wasnorm_wordpool_576.txt	LTP364	ltpFR2	23	21	COLESLAW	344	n/a	n/a	0	0	0
4113142	WORD	wordpools/wasnorm_wordpool_576.txt	LTP364	ltpFR2	23	21	SUPPER	1411	n/a	n/a	0	0	0
4115874	WORD	wordpools/wasnorm_wordpool_576.txt	LTP364	ltpFR2	23	21	PALACE	1006	n/a	n/a	0	0	0
4118539	WORD	wordpools/wasnorm_wordpool_576.txt	LTP364	ltpFR2	23	21	CROWN	415	n/a	n/a	0	0	0
4121155	WORD	wordpools/wasnorm_wordpool_576.txt	LTP364	ltpFR2	23	21	ZEBRA	1635	n/a	n/a	0	0	0
4123670	WORD	wordpools/wasnorm_wordpool_576.txt	LTP364	ltpFR2	23	21	BEAVER	109	n/a	n/a	0	0	0
4126352	WORD	wordpools/wasnorm_wordpool_576.txt	LTP364	ltpFR2	23	21	COBRA	336	n/a	n/a	0	0	0
4129035	WORD	wordpools/wasnorm_wordpool_576.txt	LTP364	ltpFR2	23	21	CHAMPAGNE	278	n/a	n/a	0	0	0
4131683	WORD	wordpools/wasnorm_wordpool_576.txt	LTP364	ltpFR2	23	21	TIMBER	1469	n/a	n/a	0	0	0
4134433	WORD	wordpools/wasnorm_wordpool_576.txt	LTP364	ltpFR2	23	21	LEAF	808	n/a	n/a	0	0	0
4136981	WORD	wordpools/wasnorm_wordpool_576.txt	LTP364	ltpFR2	23	21	BRUNETTE	181	n/a	n/a	0	0	0
4139663	WORD	wordpools/wasnorm_wordpool_576.txt	LTP364	ltpFR2	23	21	FOUNTAIN	597	n/a	n/a	0	0	0
4142229	WORD	wordpools/wasnorm_wordpool_576.txt	LTP364	ltpFR2	23	21	LOBSTER	837	n/a	n/a	0	0	0
4144994	WORD	wordpools/wasnorm_wordpool_576.txt	LTP364	ltpFR2	23	21	CHARCOAL	281	n/a	n/a	0	0	0
4147660	WORD	wordpools/wasnorm_wordpool_576.txt	LTP364	ltpFR2	23	21	COFFIN	342	n/a	n/a	0	0	0
4150393	WORD	wordpools/wasnorm_wordpool_576.txt	LTP364	ltpFR2	23	21	CRACKER	398	n/a	n/a	0	0	0
4152891	WORD	wordpools/wasnorm_wordpool_576.txt	LTP364	ltpFR2	23	21	WATER	1594	n/a	n/a	0	0	0
4155374	WORD	wordpools/wasnorm_wordpool_576.txt	LTP364	ltpFR2	23	21	BARREL	91	n/a	n/a	0	0	0
4158088	WORD	wordpools/wasnorm_wordpool_576.txt	LTP364	ltpFR2	23	21	PATROL	1027	n/a	n/a	0	0	0
4160854	WORD	wordpools/wasnorm_wordpool_576.txt	LTP364	ltpFR2	23	21	LANDSCAPE	799	n/a	n/a	0	0	0
4162470	START	n/a	LTP364	ltpFR2	23	n/a	n/a	n/a	30	n/a	n/a	n/a	n/a
4163515	DISTRACTOR	n/a	LTP364	ltpFR2	23	21	n/a	n/a	n/a	n/a	0	0	0
4163519	PROB	n/a	LTP364	ltpFR2	23	n/a	n/a	n/a	30	15	2	9	3
4171082	PROB	n/a	LTP364	ltpFR2	23	n/a	n/a	n/a	30	19	9	4	7
4173048	PROB	n/a	LTP364	ltpFR2	23	n/a	n/a	n/a	30	4	2	1	1
4174714	PROB	n/a	LTP364	ltpFR2	23	n/a	n/a	n/a	30	18	6	5	7
4177796	PROB	n/a	LTP364	ltpFR2	23	n/a	n/a	n/a	30	17	9	4	4
4186470	STOP	n/a	LTP364	ltpFR2	23	n/a	n/a	n/a	30	n/a	n/a	n/a	n/a
4188342	REC_START	n/a	LTP364	ltpFR2	23	21	n/a	n/a	n/a	n/a	0	0	0
4192462	REC_WORD_VV	wordpools/wasnorm_wordpool_576.txt	LTP364	ltpFR2	23	21	<>	-1	n/a	n/a	0	0	0
4197138	REC_WORD	wordpools/wasnorm_wordpool_576.txt	LTP364	ltpFR2	23	21	SWAMP	1416	n/a	n/a	0	0	0
4278784	DISTRACTOR	n/a	LTP364	ltpFR2	23	22	n/a	n/a	n/a	n/a	0	0	0
4278784	START	n/a	LTP364	ltpFR2	23	n/a	n/a	n/a	31	n/a	n/a	n/a	n/a
4278800	PROB	n/a	LTP364	ltpFR2	23	n/a	n/a	n/a	31	16	7	2	7
4281582	PROB	n/a	LTP364	ltpFR2	23	n/a	n/a	n/a	31	11	1	8	2
4283348	PROB	n/a	LTP364	ltpFR2	23	n/a	n/a	n/a	31	24	9	6	9
4295394	PROB	n/a	LTP364	ltpFR2	23	n/a	n/a	n/a	31	17	8	7	2
4297325	PROB	n/a	LTP364	ltpFR2	23	n/a	n/a	n/a	31	12	9	1	2
4300740	PROB	n/a	LTP364	ltpFR2	23	n/a	n/a	n/a	31	5	1	1	3
4302256	STOP	n/a	LTP364	ltpFR2	23	n/a	n/a	n/a	31	n/a	n/a	n/a	n/a
4303606	WORD	wordpools/wasnorm_wordpool_576.txt	LTP364	ltpFR2	23	22	DART	440	n/a	n/a	0	0	0
4306288	WORD	wordpools/wasnorm_wordpool_576.txt	LTP364	ltpFR2	23	22	MARBLE	867	n/a	n/a	0	0	0
4308903	WORD	wordpools/wasnorm_wordpool_576.txt	LTP364	ltpFR2	23	22	EUROPE	541	n/a	n/a	0	0	0
4311635	WORD	wordpools/wasnorm_wordpool_576.txt	LTP364	ltpFR2	23	22	NEEDLE	941	n/a	n/a	0	0	0
4314419	WORD	wordpools/wasnorm_wordpool_576.txt	LTP364	ltpFR2	23	22	TUBA	1515	n/a	n/a	0	0	0
4317033	WORD	wordpools/wasnorm_wordpool_576.txt	LTP364	ltpFR2	23	22	JELLY	755	n/a	n/a	0	0	0
4319532	WORD	wordpools/wasnorm_wordpool_576.txt	LTP364	ltpFR2	23	22	SERVER	1272	n/a	n/a	0	0	0
4322347	WORD	wordpools/wasnorm_wordpool_576.txt	LTP364	ltpFR2	23	22	WINGS	1614	n/a	n/a	0	0	0
4324846	WORD	wordpools/wasnorm_wordpool_576.txt	LTP364	ltpFR2	23	22	CHISEL	305	n/a	n/a	0	0	0
4327562	WORD	wordpools/wasnorm_wordpool_576.txt	LTP364	ltpFR2	23	22	FROG	608	n/a	n/a	0	0	0
4330210	WORD	wordpools/wasnorm_wordpool_576.txt	LTP364	ltpFR2	23	22	COMET	353	n/a	n/a	0	0	0
4332859	WORD	wordpools/wasnorm_wordpool_576.txt	LTP364	ltpFR2	23	22	LAKE	796	n/a	n/a	0	0	0
4335575	WORD	wordpools/wasnorm_wordpool_576.txt	LTP364	ltpFR2	23	22	SHINGLE	1285	n/a	n/a	0	0	0
4338190	WORD	wordpools/wasnorm_wordpool_576.txt	LTP364	ltpFR2	23	22	DRIVEWAY	500	n/a	n/a	0	0	0
4340722	WORD	wordpools/wasnorm_wordpool_576.txt	LTP364	ltpFR2	23	22	TOILET	1475	n/a	n/a	0	0	0
4343405	WORD	wordpools/wasnorm_wordpool_576.txt	LTP364	ltpFR2	23	22	MANSION	864	n/a	n/a	0	0	0
4346170	WORD	wordpools/wasnorm_wordpool_576.txt	LTP364	ltpFR2	23	22	FEATHER	557	n/a	n/a	0	0	0
4348669	WORD	wordpools/wasnorm_wordpool_576.txt	LTP364	ltpFR2	23	22	HOOK	715	n/a	n/a	0	0	0
4351284	WORD	wordpools/wasnorm_wordpool_576.txt	LTP364	ltpFR2	23	22	RUBY	1214	n/a	n/a	0	0	0
4354016	WORD	wordpools/wasnorm_wordpool_576.txt	LTP364	ltpFR2	23	22	SAPPHIRE	1234	n/a	n/a	0	0	0
4356798	WORD	wordpools/wasnorm_wordpool_576.txt	LTP364	ltpFR2	23	22	CAPE	237	n/a	n/a	0	0	0
4359464	WORD	wordpools/wasnorm_wordpool_576.txt	LTP364	ltpFR2	23	22	JACKET	747	n/a	n/a	0	0	0
4362179	WORD	wordpools/wasnorm_wordpool_576.txt	LTP364	ltpFR2	23	22	BUGLE	189	n/a	n/a	0	0	0
4364795	WORD	wordpools/wasnorm_wordpool_576.txt	LTP364	ltpFR2	23	22	SMOG	1330	n/a	n/a	0	0	0
4366412	START	n/a	LTP364	ltpFR2	23	n/a	n/a	n/a	32	n/a	n/a	n/a	n/a
4367214	DISTRACTOR	n/a	LTP364	ltpFR2	23	22	n/a	n/a	n/a	n/a	0	0	0
4367227	PROB	n/a	LTP364	ltpFR2	23	n/a	n/a	n/a	32	14	1	5	8
4369743	PROB	n/a	LTP364	ltpFR2	23	n/a	n/a	n/a	32	16	2	7	7
4371575	PROB	n/a	LTP364	ltpFR2	23	n/a	n/a	n/a	32	15	6	3	6
4373409	PROB	n/a	LTP364	ltpFR2	23	n/a	n/a	n/a	32	19	7	9	3
4390412	STOP	n/a	LTP364	ltpFR2	23	n/a	n/a	n/a	32	n/a	n/a	n/a	n/a
4392316	REC_START	n/a	LTP364	ltpFR2	23	22	n/a	n/a	n/a	n/a	0	0	0
4393771	REC_WORD	wordpools/wasnorm_wordpool_576.txt	LTP364	ltpFR2	23	22	BUGLE	189	n/a	n/a	0	0	0
4396341	REC_WORD	wordpools/wasnorm_wordpool_576.txt	LTP364	ltpFR2	23	22	NEEDLE	941	n/a	n/a	0	0	0
4398008	REC_WORD	wordpools/wasnorm_wordpool_576.txt	LTP364	ltpFR2	23	22	EUROPE	541	n/a	n/a	0	0	0
4482741	DISTRACTOR	n/a	LTP364	ltpFR2	23	23	n/a	n/a	n/a	n/a	0	0	0
4482742	START	n/a	LTP364	ltpFR2	23	n/a	n/a	n/a	33	n/a	n/a	n/a	n/a
4482758	PROB	n/a	LTP364	ltpFR2	23	n/a	n/a	n/a	33	11	2	6	3
4506742	STOP	n/a	LTP364	ltpFR2	23	n/a	n/a	n/a	33	n/a	n/a	n/a	n/a
4507830	WORD	wordpools/wasnorm_wordpool_576.txt	LTP364	ltpFR2	23	23	BANDIT	81	n/a	n/a	0	0	0
4510596	WORD	wordpools/wasnorm_wordpool_576.txt	LTP364	ltpFR2	23	23	CLIMBER	323	n/a	n/a	0	0	0
4513278	WORD	wordpools/wasnorm_wordpool_576.txt	LTP364	ltpFR2	23	23	HAMMOCK	681	n/a	n/a	0	0	0
4515727	WORD	wordpools/wasnorm_wordpool_576.txt	LTP364	ltpFR2	23	23	BEDROOM	111	n/a	n/a	0	0	0
4518475	WORD	wordpools/wasnorm_wordpool_576.txt	LTP364	ltpFR2	23	23	GARAGE	621	n/a	n/a	0	0	0
4520924	WORD	wordpools/wasnorm_wordpool_576.txt	LTP364	ltpFR2	23	23	CREATURE	403	n/a	n/a	0	0	0
4523540	WORD	wordpools/wasnorm_wordpool_576.txt	LTP364	ltpFR2	23	23	MONSTER	912	n/a	n/a	0	0	0
4526305	WORD	wordpools/wasnorm_wordpool_576.txt	LTP364	ltpFR2	23	23	PLIERS	1089	n/a	n/a	0	0	0
4528971	WORD	wordpools/wasnorm_wordpool_576.txt	LTP364	ltpFR2	23	23	KIWI	781	n/a	n/a	0	0	0
4531519	WORD	wordpools/wasnorm_wordpool_576.txt	LTP364	ltpFR2	23	23	COIN	343	n/a	n/a	0	0	0
4534152	WORD	wordpools/wasnorm_wordpool_576.txt	LTP364	ltpFR2	23	23	RECEIPT	1173	n/a	n/a	0	0	0
4536600	WORD	wordpools/wasnorm_wordpool_576.txt	LTP364	ltpFR2	23	23	WOMAN	1620	n/a	n/a	0	0	0
4539099	WORD	wordpools/wasnorm_wordpool_576.txt	LTP364	ltpFR2	23	23	DINER	467	n/a	n/a	0	0	0
4541898	WORD	wordpools/wasnorm_wordpool_576.txt	LTP364	ltpFR2	23	23	KNAPSACK	783	n/a	n/a	0	0	0
4544547	WORD	wordpools/wasnorm_wordpool_576.txt	LTP364	ltpFR2	23	23	TOOTHPASTE	1483	n/a	n/a	0	0	0
4546996	WORD	wordpools/wasnorm_wordpool_576.txt	LTP364	ltpFR2	23	23	VAMPIRE	1547	n/a	n/a	0	0	0
4549595	WORD	wordpools/wasnorm_wordpool_576.txt	LTP364	ltpFR2	23	23	MONGOOSE	909	n/a	n/a	0	0	0
4552361	WORD	wordpools/wasnorm_wordpool_576.txt	LTP364	ltpFR2	23	23	COOKBOOK	373	n/a	n/a	0	0	0
4554975	WORD	wordpools/wasnorm_wordpool_576.txt	LTP364	ltpFR2	23	23	VILLAIN	1567	n/a	n/a	0	0	0
4557508	WORD	wordpools/wasnorm_wordpool_576.txt	LTP364	ltpFR2	23	23	TRANSPLANT	1496	n/a	n/a	0	0	0
4560306	WORD	wordpools/wasnorm_wordpool_576.txt	LTP364	ltpFR2	23	23	FRIEND	606	n/a	n/a	0	0	0
4562889	WORD	wordpools/wasnorm_wordpool_576.txt	LTP364	ltpFR2	23	23	CONVENT	370	n/a	n/a	0	0	0
4565637	WORD	wordpools/wasnorm_wordpool_576.txt	LTP364	ltpFR2	23	23	VICTOR	1563	n/a	n/a	0	0	0
4568319	WORD	wordpools/wasnorm_wordpool_576.txt	LTP364	ltpFR2	23	23	BUSH	202	n/a	n/a	0	0	0
4569936	START	n/a	LTP364	ltpFR2	23	n/a	n/a	n/a	34	n/a	n/a	n/a	n/a
4571102	DISTRACTOR	n/a	LTP364	ltpFR2	23	23	n/a	n/a	n/a	n/a	0	0	0
4571118	PROB	n/a	LTP364	ltpFR2	23	n/a	n/a	n/a	34	15	2	6	7
4575050	PROB	n/a	LTP364	ltpFR2	23	n/a	n/a	n/a	34	14	5	5	4
4576400	PROB	n/a	LTP364	ltpFR2	23	n/a	n/a	n/a	34	25	9	7	9
4579698	PROB	n/a	LTP364	ltpFR2	23	n/a	n/a	n/a	34	19	5	7	7
4585495	PROB	n/a	LTP364	ltpFR2	23	n/a	n/a	n/a	34	20	6	7	7
4589093	PROB	n/a	LTP364	ltpFR2	23	n/a	n/a	n/a	34	13	7	1	5
4593936	STOP	n/a	LTP364	ltpFR2	23	n/a	n/a	n/a	34	n/a	n/a	n/a	n/a
4595808	REC_START	n/a	LTP364	ltpFR2	23	23	n/a	n/a	n/a	n/a	0	0	0
4596537	REC_WORD	wordpools/wasnorm_wordpool_576.txt	LTP364	ltpFR2	23	23	CONVENT	370	n/a	n/a	0	0	0
4599227	REC_WORD	wordpools/wasnorm_wordpool_576.txt	LTP364	ltpFR2	23	23	WELL	1600	n/a	n/a	0	0	0
4686233	DISTRACTOR	n/a	LTP364	ltpFR2	23	24	n/a	n/a	n/a	n/a	0	0	0
4686233	START	n/a	LTP364	ltpFR2	23	n/a	n/a	n/a	35	n/a	n/a	n/a	n/a
4686250	PROB	n/a	LTP364	ltpFR2	23	n/a	n/a	n/a	35	10	3	4	3
4688598	PROB	n/a	LTP364	ltpFR2	23	n/a	n/a	n/a	35	15	4	9	2
4691964	PROB	n/a	LTP364	ltpFR2	23	n/a	n/a	n/a	35	16	9	1	6
4693480	PROB	n/a	LTP364	ltpFR2	23	n/a	n/a	n/a	35	9	4	4	1
4695529	PROB	n/a	LTP364	ltpFR2	23	n/a	n/a	n/a	35	14	6	4	4
4697261	PROB	n/a	LTP364	ltpFR2	23	n/a	n/a	n/a	35	10	2	4	4
4699177	PROB	n/a	LTP364	ltpFR2	23	n/a	n/a	n/a	35	21	5	9	7
4702476	PROB	n/a	LTP364	ltpFR2	23	n/a	n/a	n/a	35	13	7	5	1
4710233	STOP	n/a	LTP364	ltpFR2	23	n/a	n/a	n/a	35	n/a	n/a	n/a	n/a
4711088	WORD	wordpools/wasnorm_wordpool_576.txt	LTP364	ltpFR2	23	24	PENCIL	1042	n/a	n/a	0	0	0
4713620	WORD	wordpools/wasnorm_wordpool_576.txt	LTP364	ltpFR2	23	24	THICKET	1455	n/a	n/a	0	0	0
4716303	WORD	wordpools/wasnorm_wordpool_576.txt	LTP364	ltpFR2	23	24	PLATE	1086	n/a	n/a	0	0	0
4718885	WORD	wordpools/wasnorm_wordpool_576.txt	LTP364	ltpFR2	23	24	BROTHER	179	n/a	n/a	0	0	0
4721600	WORD	wordpools/wasnorm_wordpool_576.txt	LTP364	ltpFR2	23	24	FIGHTER	564	n/a	n/a	0	0	0
4724216	WORD	wordpools/wasnorm_wordpool_576.txt	LTP364	ltpFR2	23	24	GUITAR	670	n/a	n/a	0	0	0
4726814	WORD	wordpools/wasnorm_wordpool_576.txt	LTP364	ltpFR2	23	24	ORANGE	980	n/a	n/a	0	0	0
4729597	WORD	wordpools/wasnorm_wordpool_576.txt	LTP364	ltpFR2	23	24	PLUMBER	1091	n/a	n/a	0	0	0
4732179	WORD	wordpools/wasnorm_wordpool_576.txt	LTP364	ltpFR2	23	24	BUCKLE	185	n/a	n/a	0	0	0
4734811	WORD	wordpools/wasnorm_wordpool_576.txt	LTP364	ltpFR2	23	24	DOCTOR	478	n/a	n/a	0	0	0
4737310	WORD	wordpools/wasnorm_wordpool_576.txt	LTP364	ltpFR2	23	24	SURGEON	1413	n/a	n/a	0	0	0
4739792	WORD	wordpools/wasnorm_wordpool_576.txt	LTP364	ltpFR2	23	24	SHEARS	1276	n/a	n/a	0	0	0
4742524	WORD	wordpools/wasnorm_wordpool_576.txt	LTP364	ltpFR2	23	24	DAGGER	434	n/a	n/a	0	0	0
4745323	WORD	wordpools/wasnorm_wordpool_576.txt	LTP364	ltpFR2	23	24	SNEAKER	1334	n/a	n/a	0	0	0
4748105	WORD	wordpools/wasnorm_wordpool_576.txt	LTP364	ltpFR2	23	24	GLASSES	640	n/a	n/a	0	0	0
4750737	WORD	wordpools/wasnorm_wordpool_576.txt	LTP364	ltpFR2	23	24	AIRCRAFT	11	n/a	n/a	0	0	0
4753203	WORD	wordpools/wasnorm_wordpool_576.txt	LTP364	ltpFR2	23	24	BEETLE	116	n/a	n/a	0	0	0
4755751	WORD	wordpools/wasnorm_wordpool_576.txt	LTP364	ltpFR2	23	24	PLANT	1083	n/a	n/a	0	0	0
4758567	WORD	wordpools/wasnorm_wordpool_576.txt	LTP364	ltpFR2	23	24	MEADOW	881	n/a	n/a	0	0	0
4761149	WORD	wordpools/wasnorm_wordpool_576.txt	LTP364	ltpFR2	23	24	YOLK	1633	n/a	n/a	0	0	0
4763698	WORD	wordpools/wasnorm_wordpool_576.txt	LTP364	ltpFR2	23	24	LITTER	832	n/a	n/a	0	0	0
4766297	WORD	wordpools/wasnorm_wordpool_576.txt	LTP364	ltpFR2	23	24	WASHER	1592	n/a	n/a	0	0	0
4768796	WORD	wordpools/wasnorm_wordpool_576.txt	LTP364	ltpFR2	23	24	GROUND	666	n/a	n/a	0	0	0
4771611	WORD	wordpools/wasnorm_wordpool_576.txt	LTP364	ltpFR2	23	24	INFANT	737	n/a	n/a	0	0	0
4773227	START	n/a	LTP364	ltpFR2	23	n/a	n/a	n/a	36	n/a	n/a	n/a	n/a
4774034	DISTRACTOR	n/a	LTP364	ltpFR2	23	24	n/a	n/a	n/a	n/a	0	0	0
4774043	PROB	n/a	LTP364	ltpFR2	23	n/a	n/a	n/a	36	14	6	5	3
4776159	PROB	n/a	LTP364	ltpFR2	23	n/a	n/a	n/a	36	15	6	3	6
4778075	PROB	n/a	LTP364	ltpFR2	23	n/a	n/a	n/a	36	5	3	1	1
4780107	PROB	n/a	LTP364	ltpFR2	23	n/a	n/a	n/a	36	16	6	5	5
4782073	PROB	n/a	LTP364	ltpFR2	23	n/a	n/a	n/a	36	19	9	5	5
4783506	PROB	n/a	LTP364	ltpFR2	23	n/a	n/a	n/a	36	16	4	6	6
4785555	PROB	n/a	LTP364	ltpFR2	23	n/a	n/a	n/a	36	16	4	4	8
4788220	PROB	n/a	LTP364	ltpFR2	23	n/a	n/a	n/a	36	26	8	9	9
4793534	PROB	n/a	LTP364	ltpFR2	23	n/a	n/a	n/a	36	16	1	7	8
4794967	PROB	n/a	LTP364	ltpFR2	23	n/a	n/a	n/a	36	19	5	5	9
4796191	STOP	n/a	LTP364	ltpFR2	23	n/a	n/a	n/a	36	n/a	n/a	n/a	n/a
4799016	REC_START	n/a	LTP364	ltpFR2	23	24	n/a	n/a	n/a	n/a	0	0	0
4800096	REC_WORD	wordpools/wasnorm_wordpool_576.txt	LTP364	ltpFR2	23	24	WASHER	1592	n/a	n/a	0	0	0
4800870	REC_WORD	wordpools/wasnorm_wordpool_576.txt	LTP364	ltpFR2	23	24	INFANT	737	n/a	n/a	0	0	0
4805344	REC_WORD	wordpools/wasnorm_wordpool_576.txt	LTP364	ltpFR2	23	24	CRADLE	399	n/a	n/a	0	0	0
4886396	SESS_END	n/a	LTP364	ltpFR2	23	24	n/a	n/a	n/a	n/a	0	0	0
