onset	duration	trial_type	sample	stim_file	subject	experiment	session	trial	item_name	item_num	list	answer	test_x	test_y	test_z
232.3	n/a	SESS_START	116150	n/a	LTP228	ltpFR2	16	n/a	n/a	n/a	n/a	n/a	0	0	0
268.564	n/a	START	134282	n/a	LTP228	ltpFR2	16	n/a	n/a	n/a	-1	n/a	n/a	n/a	n/a
268.598	n/a	PROB	134299	n/a	LTP228	ltpFR2	16	n/a	n/a	n/a	-1	14	7	4	3
270.096	n/a	PROB	135048	n/a	LTP228	ltpFR2	16	n/a	n/a	n/a	-1	9	6	2	1
271.892	n/a	PROB	135946	n/a	LTP228	ltpFR2	16	n/a	n/a	n/a	-1	21	9	5	7
277.734	n/a	PROB	138867	n/a	LTP228	ltpFR2	16	n/a	n/a	n/a	-1	17	6	5	6
279.982	n/a	STOP	139991	n/a	LTP228	ltpFR2	16	n/a	n/a	n/a	-1	n/a	n/a	n/a	n/a
320.636	n/a	WORD	160318	wordpools/wasnorm_wordpool_576.txt	LTP228	ltpFR2	16	1	THREAD	1460	n/a	n/a	0	0	0
323.248	n/a	WORD	161624	wordpools/wasnorm_wordpool_576.txt	LTP228	ltpFR2	16	1	HELMET	702	n/a	n/a	0	0	0
325.78	n/a	WORD	162890	wordpools/wasnorm_wordpool_576.txt	LTP228	ltpFR2	16	1	FRAGRANCE	599	n/a	n/a	0	0	0
328.474	n/a	WORD	164237	wordpools/wasnorm_wordpool_576.txt	LTP228	ltpFR2	16	1	YARN	1631	n/a	n/a	0	0	0
330.938	n/a	WORD	165469	wordpools/wasnorm_wordpool_576.txt	LTP228	ltpFR2	16	1	HORSE	719	n/a	n/a	0	0	0
333.584	n/a	WORD	166792	wordpools/wasnorm_wordpool_576.txt	LTP228	ltpFR2	16	1	BISON	131	n/a	n/a	0	0	0
336.246	n/a	WORD	168123	wordpools/wasnorm_wordpool_576.txt	LTP228	ltpFR2	16	1	JELLY	755	n/a	n/a	0	0	0
338.894	n/a	WORD	169447	wordpools/wasnorm_wordpool_576.txt	LTP228	ltpFR2	16	1	TURKEY	1520	n/a	n/a	0	0	0
341.64	n/a	WORD	170820	wordpools/wasnorm_wordpool_576.txt	LTP228	ltpFR2	16	1	FLEET	578	n/a	n/a	0	0	0
344.15	n/a	WORD	172075	wordpools/wasnorm_wordpool_576.txt	LTP228	ltpFR2	16	1	LEOPARD	812	n/a	n/a	0	0	0
346.582	n/a	WORD	173291	wordpools/wasnorm_wordpool_576.txt	LTP228	ltpFR2	16	1	WHISTLE	1606	n/a	n/a	0	0	0
349.094	n/a	WORD	174547	wordpools/wasnorm_wordpool_576.txt	LTP228	ltpFR2	16	1	KNIFE	785	n/a	n/a	0	0	0
351.674	n/a	WORD	175837	wordpools/wasnorm_wordpool_576.txt	LTP228	ltpFR2	16	1	EYELASH	546	n/a	n/a	0	0	0
354.17	n/a	WORD	177085	wordpools/wasnorm_wordpool_576.txt	LTP228	ltpFR2	16	1	PISTOL	1075	n/a	n/a	0	0	0
356.6	n/a	WORD	178300	wordpools/wasnorm_wordpool_576.txt	LTP228	ltpFR2	16	1	COUCH	386	n/a	n/a	0	0	0
359.114	n/a	WORD	179557	wordpools/wasnorm_wordpool_576.txt	LTP228	ltpFR2	16	1	PADDING	999	n/a	n/a	0	0	0
361.56	n/a	WORD	180780	wordpools/wasnorm_wordpool_576.txt	LTP228	ltpFR2	16	1	CROSS	413	n/a	n/a	0	0	0
364.056	n/a	WORD	182028	wordpools/wasnorm_wordpool_576.txt	LTP228	ltpFR2	16	1	WASP	1593	n/a	n/a	0	0	0
366.868	n/a	WORD	183434	wordpools/wasnorm_wordpool_576.txt	LTP228	ltpFR2	16	1	HONEY	713	n/a	n/a	0	0	0
369.48	n/a	WORD	184740	wordpools/wasnorm_wordpool_576.txt	LTP228	ltpFR2	16	1	BATHTUB	100	n/a	n/a	0	0	0
372.276	n/a	WORD	186138	wordpools/wasnorm_wordpool_576.txt	LTP228	ltpFR2	16	1	RELISH	1183	n/a	n/a	0	0	0
374.756	n/a	WORD	187378	wordpools/wasnorm_wordpool_576.txt	LTP228	ltpFR2	16	1	FRIAR	605	n/a	n/a	0	0	0
377.236	n/a	WORD	188618	wordpools/wasnorm_wordpool_576.txt	LTP228	ltpFR2	16	1	SPONGE	1355	n/a	n/a	0	0	0
379.75	n/a	WORD	189875	wordpools/wasnorm_wordpool_576.txt	LTP228	ltpFR2	16	1	TRANSPLANT	1496	n/a	n/a	0	0	0
381.364	n/a	START	190682	n/a	LTP228	ltpFR2	16	n/a	n/a	n/a	1	n/a	n/a	n/a	n/a
382.476	n/a	DISTRACTOR	191238	n/a	LTP228	ltpFR2	16	1	n/a	n/a	n/a	n/a	0	0	0
382.478	n/a	PROB	191239	n/a	LTP228	ltpFR2	16	n/a	n/a	n/a	1	19	9	6	4
385.658	n/a	PROB	192829	n/a	LTP228	ltpFR2	16	n/a	n/a	n/a	1	14	6	5	3
389.052	n/a	PROB	194526	n/a	LTP228	ltpFR2	16	n/a	n/a	n/a	1	12	1	3	8
391.332	n/a	PROB	195666	n/a	LTP228	ltpFR2	16	n/a	n/a	n/a	1	19	8	5	6
394.028	n/a	PROB	197014	n/a	LTP228	ltpFR2	16	n/a	n/a	n/a	1	15	2	8	5
395.826	n/a	PROB	197913	n/a	LTP228	ltpFR2	16	n/a	n/a	n/a	1	21	8	6	7
398.888	n/a	PROB	199444	n/a	LTP228	ltpFR2	16	n/a	n/a	n/a	1	18	1	8	9
400.736	n/a	PROB	200368	n/a	LTP228	ltpFR2	16	n/a	n/a	n/a	1	15	5	3	7
402.316	n/a	PROB	201158	n/a	LTP228	ltpFR2	16	n/a	n/a	n/a	1	16	9	2	5
404.56	n/a	STOP	202280	n/a	LTP228	ltpFR2	16	n/a	n/a	n/a	1	n/a	n/a	n/a	n/a
407.308	n/a	REC_START	203654	n/a	LTP228	ltpFR2	16	1	n/a	n/a	n/a	n/a	0	0	0
409.612	n/a	REC_WORD	204806	wordpools/wasnorm_wordpool_576.txt	LTP228	ltpFR2	16	1	WASP	1593	n/a	n/a	0	0	0
410.596	n/a	REC_WORD	205298	wordpools/wasnorm_wordpool_576.txt	LTP228	ltpFR2	16	1	HONEY	713	n/a	n/a	0	0	0
411.536	n/a	REC_WORD	205768	wordpools/wasnorm_wordpool_576.txt	LTP228	ltpFR2	16	1	BATHTUB	100	n/a	n/a	0	0	0
412.736	n/a	REC_WORD	206368	wordpools/wasnorm_wordpool_576.txt	LTP228	ltpFR2	16	1	PUDDING	1139	n/a	n/a	0	0	0
413.716	n/a	REC_WORD	206858	wordpools/wasnorm_wordpool_576.txt	LTP228	ltpFR2	16	1	PISTOL	1075	n/a	n/a	0	0	0
414.696	n/a	REC_WORD	207348	wordpools/wasnorm_wordpool_576.txt	LTP228	ltpFR2	16	1	EYELASH	546	n/a	n/a	0	0	0
416.004	n/a	REC_WORD	208002	wordpools/wasnorm_wordpool_576.txt	LTP228	ltpFR2	16	1	THREAD	1460	n/a	n/a	0	0	0
417.092	n/a	REC_WORD	208546	wordpools/wasnorm_wordpool_576.txt	LTP228	ltpFR2	16	1	YARN	1631	n/a	n/a	0	0	0
417.97	n/a	REC_WORD	208985	wordpools/wasnorm_wordpool_576.txt	LTP228	ltpFR2	16	1	FRAGRANCE	599	n/a	n/a	0	0	0
419.05	n/a	REC_WORD	209525	wordpools/wasnorm_wordpool_576.txt	LTP228	ltpFR2	16	1	HORSE	719	n/a	n/a	0	0	0
497.942	n/a	DISTRACTOR	248971	n/a	LTP228	ltpFR2	16	2	n/a	n/a	n/a	n/a	0	0	0
497.942	n/a	START	248971	n/a	LTP228	ltpFR2	16	n/a	n/a	n/a	2	n/a	n/a	n/a	n/a
497.976	n/a	PROB	248988	n/a	LTP228	ltpFR2	16	n/a	n/a	n/a	2	22	9	4	9
499.672	n/a	PROB	249836	n/a	LTP228	ltpFR2	16	n/a	n/a	n/a	2	15	5	9	1
500.92	n/a	PROB	250460	n/a	LTP228	ltpFR2	16	n/a	n/a	n/a	2	20	5	9	6
503.584	n/a	PROB	251792	n/a	LTP228	ltpFR2	16	n/a	n/a	n/a	2	14	3	8	3
506.496	n/a	PROB	253248	n/a	LTP228	ltpFR2	16	n/a	n/a	n/a	2	10	3	4	3
508.776	n/a	PROB	254388	n/a	LTP228	ltpFR2	16	n/a	n/a	n/a	2	21	9	9	3
510.672	n/a	PROB	255336	n/a	LTP228	ltpFR2	16	n/a	n/a	n/a	2	14	2	6	6
512.418	n/a	PROB	256209	n/a	LTP228	ltpFR2	16	n/a	n/a	n/a	2	17	9	4	4
515.832	n/a	PROB	257916	n/a	LTP228	ltpFR2	16	n/a	n/a	n/a	2	14	7	2	5
518.394	n/a	PROB	259197	n/a	LTP228	ltpFR2	16	n/a	n/a	n/a	2	11	7	3	1
520.672	n/a	STOP	260336	n/a	LTP228	ltpFR2	16	n/a	n/a	n/a	2	n/a	n/a	n/a	n/a
523.07	n/a	WORD	261535	wordpools/wasnorm_wordpool_576.txt	LTP228	ltpFR2	16	2	NOMAD	955	n/a	n/a	0	0	0
525.884	n/a	WORD	262942	wordpools/wasnorm_wordpool_576.txt	LTP228	ltpFR2	16	2	PAIL	1002	n/a	n/a	0	0	0
528.696	n/a	WORD	264348	wordpools/wasnorm_wordpool_576.txt	LTP228	ltpFR2	16	2	MONSTER	912	n/a	n/a	0	0	0
531.458	n/a	WORD	265729	wordpools/wasnorm_wordpool_576.txt	LTP228	ltpFR2	16	2	VENUS	1557	n/a	n/a	0	0	0
534.236	n/a	WORD	267118	wordpools/wasnorm_wordpool_576.txt	LTP228	ltpFR2	16	2	STOVE	1388	n/a	n/a	0	0	0
536.966	n/a	WORD	268483	wordpools/wasnorm_wordpool_576.txt	LTP228	ltpFR2	16	2	SKILLET	1317	n/a	n/a	0	0	0
539.496	n/a	WORD	269748	wordpools/wasnorm_wordpool_576.txt	LTP228	ltpFR2	16	2	MASK	876	n/a	n/a	0	0	0
542.124	n/a	WORD	271062	wordpools/wasnorm_wordpool_576.txt	LTP228	ltpFR2	16	2	FRUIT	610	n/a	n/a	0	0	0
544.872	n/a	WORD	272436	wordpools/wasnorm_wordpool_576.txt	LTP228	ltpFR2	16	2	ROD	1203	n/a	n/a	0	0	0
547.668	n/a	WORD	273834	wordpools/wasnorm_wordpool_576.txt	LTP228	ltpFR2	16	2	LAKE	796	n/a	n/a	0	0	0
550.112	n/a	WORD	275056	wordpools/wasnorm_wordpool_576.txt	LTP228	ltpFR2	16	2	ISLAND	745	n/a	n/a	0	0	0
552.726	n/a	WORD	276363	wordpools/wasnorm_wordpool_576.txt	LTP228	ltpFR2	16	2	TEMPLE	1448	n/a	n/a	0	0	0
555.522	n/a	WORD	277761	wordpools/wasnorm_wordpool_576.txt	LTP228	ltpFR2	16	2	PIANO	1057	n/a	n/a	0	0	0
558.284	n/a	WORD	279142	wordpools/wasnorm_wordpool_576.txt	LTP228	ltpFR2	16	2	STAKE	1368	n/a	n/a	0	0	0
560.798	n/a	WORD	280399	wordpools/wasnorm_wordpool_576.txt	LTP228	ltpFR2	16	2	PASSAGE	1019	n/a	n/a	0	0	0
563.228	n/a	WORD	281614	wordpools/wasnorm_wordpool_576.txt	LTP228	ltpFR2	16	2	KETCHUP	771	n/a	n/a	0	0	0
565.94	n/a	WORD	282970	wordpools/wasnorm_wordpool_576.txt	LTP228	ltpFR2	16	2	CEILING	265	n/a	n/a	0	0	0
568.37	n/a	WORD	284185	wordpools/wasnorm_wordpool_576.txt	LTP228	ltpFR2	16	2	SHRUB	1299	n/a	n/a	0	0	0
571.166	n/a	WORD	285583	wordpools/wasnorm_wordpool_576.txt	LTP228	ltpFR2	16	2	PIGMENT	1066	n/a	n/a	0	0	0
573.846	n/a	WORD	286923	wordpools/wasnorm_wordpool_576.txt	LTP228	ltpFR2	16	2	TUTU	1524	n/a	n/a	0	0	0
576.458	n/a	WORD	288229	wordpools/wasnorm_wordpool_576.txt	LTP228	ltpFR2	16	2	JELLO	754	n/a	n/a	0	0	0
579.186	n/a	WORD	289593	wordpools/wasnorm_wordpool_576.txt	LTP228	ltpFR2	16	2	MACHINE	852	n/a	n/a	0	0	0
581.734	n/a	WORD	290867	wordpools/wasnorm_wordpool_576.txt	LTP228	ltpFR2	16	2	ROBOT	1200	n/a	n/a	0	0	0
584.296	n/a	WORD	292148	wordpools/wasnorm_wordpool_576.txt	LTP228	ltpFR2	16	2	PUDDING	1139	n/a	n/a	0	0	0
585.912	n/a	START	292956	n/a	LTP228	ltpFR2	16	n/a	n/a	n/a	3	n/a	n/a	n/a	n/a
586.752	n/a	DISTRACTOR	293376	n/a	LTP228	ltpFR2	16	2	n/a	n/a	n/a	n/a	0	0	0
586.76	n/a	PROB	293380	n/a	LTP228	ltpFR2	16	n/a	n/a	n/a	3	15	2	4	9
589.138	n/a	PROB	294569	n/a	LTP228	ltpFR2	16	n/a	n/a	n/a	3	19	6	8	5
591.67	n/a	PROB	295835	n/a	LTP228	ltpFR2	16	n/a	n/a	n/a	3	15	6	6	3
593.15	n/a	PROB	296575	n/a	LTP228	ltpFR2	16	n/a	n/a	n/a	3	17	3	6	8
596.08	n/a	PROB	298040	n/a	LTP228	ltpFR2	16	n/a	n/a	n/a	3	17	9	5	3
599.076	n/a	PROB	299538	n/a	LTP228	ltpFR2	16	n/a	n/a	n/a	3	10	1	4	5
601.188	n/a	PROB	300594	n/a	LTP228	ltpFR2	16	n/a	n/a	n/a	3	9	2	4	3
604.734	n/a	PROB	302367	n/a	LTP228	ltpFR2	16	n/a	n/a	n/a	3	9	7	1	1
605.932	n/a	PROB	302966	n/a	LTP228	ltpFR2	16	n/a	n/a	n/a	3	13	7	4	2
608.44	n/a	STOP	304220	n/a	LTP228	ltpFR2	16	n/a	n/a	n/a	3	n/a	n/a	n/a	n/a
611.706	n/a	REC_START	305853	n/a	LTP228	ltpFR2	16	2	n/a	n/a	n/a	n/a	0	0	0
613.402	n/a	REC_WORD	306701	wordpools/wasnorm_wordpool_576.txt	LTP228	ltpFR2	16	2	NOMAD	955	n/a	n/a	0	0	0
614.18	n/a	REC_WORD	307090	wordpools/wasnorm_wordpool_576.txt	LTP228	ltpFR2	16	2	VENUS	1557	n/a	n/a	0	0	0
615.046	n/a	REC_WORD	307523	wordpools/wasnorm_wordpool_576.txt	LTP228	ltpFR2	16	2	ROD	1203	n/a	n/a	0	0	0
616.172	n/a	REC_WORD	308086	wordpools/wasnorm_wordpool_576.txt	LTP228	ltpFR2	16	2	CEILING	265	n/a	n/a	0	0	0
617.062	n/a	REC_WORD	308531	wordpools/wasnorm_wordpool_576.txt	LTP228	ltpFR2	16	2	SHRUB	1299	n/a	n/a	0	0	0
618.532	n/a	REC_WORD	309266	wordpools/wasnorm_wordpool_576.txt	LTP228	ltpFR2	16	2	PIGMENT	1066	n/a	n/a	0	0	0
702.388	n/a	WORD	351194	wordpools/wasnorm_wordpool_576.txt	LTP228	ltpFR2	16	3	GANGSTER	620	n/a	n/a	0	0	0
704.868	n/a	WORD	352434	wordpools/wasnorm_wordpool_576.txt	LTP228	ltpFR2	16	3	BULLET	194	n/a	n/a	0	0	0
707.598	n/a	WORD	353799	wordpools/wasnorm_wordpool_576.txt	LTP228	ltpFR2	16	3	TUBA	1515	n/a	n/a	0	0	0
710.408	n/a	WORD	355204	wordpools/wasnorm_wordpool_576.txt	LTP228	ltpFR2	16	3	LAGOON	795	n/a	n/a	0	0	0
713.056	n/a	WORD	356528	wordpools/wasnorm_wordpool_576.txt	LTP228	ltpFR2	16	3	SUNRISE	1407	n/a	n/a	0	0	0
715.818	n/a	WORD	357909	wordpools/wasnorm_wordpool_576.txt	LTP228	ltpFR2	16	3	FLIPPER	580	n/a	n/a	0	0	0
718.264	n/a	WORD	359132	wordpools/wasnorm_wordpool_576.txt	LTP228	ltpFR2	16	3	SUSPECT	1415	n/a	n/a	0	0	0
720.86	n/a	WORD	360430	wordpools/wasnorm_wordpool_576.txt	LTP228	ltpFR2	16	3	OUTFIT	988	n/a	n/a	0	0	0
723.322	n/a	WORD	361661	wordpools/wasnorm_wordpool_576.txt	LTP228	ltpFR2	16	3	FILM	565	n/a	n/a	0	0	0
726.036	n/a	WORD	363018	wordpools/wasnorm_wordpool_576.txt	LTP228	ltpFR2	16	3	POPCORN	1104	n/a	n/a	0	0	0
728.832	n/a	WORD	364416	wordpools/wasnorm_wordpool_576.txt	LTP228	ltpFR2	16	3	RATTLE	1170	n/a	n/a	0	0	0
731.344	n/a	WORD	365672	wordpools/wasnorm_wordpool_576.txt	LTP228	ltpFR2	16	3	GARBAGE	622	n/a	n/a	0	0	0
733.808	n/a	WORD	366904	wordpools/wasnorm_wordpool_576.txt	LTP228	ltpFR2	16	3	COFFEE	341	n/a	n/a	0	0	0
736.286	n/a	WORD	368143	wordpools/wasnorm_wordpool_576.txt	LTP228	ltpFR2	16	3	SURVEY	1414	n/a	n/a	0	0	0
738.834	n/a	WORD	369417	wordpools/wasnorm_wordpool_576.txt	LTP228	ltpFR2	16	3	BEAKER	104	n/a	n/a	0	0	0
741.63	n/a	WORD	370815	wordpools/wasnorm_wordpool_576.txt	LTP228	ltpFR2	16	3	SUITCASE	1403	n/a	n/a	0	0	0
744.142	n/a	WORD	372071	wordpools/wasnorm_wordpool_576.txt	LTP228	ltpFR2	16	3	PROTON	1132	n/a	n/a	0	0	0
746.722	n/a	WORD	373361	wordpools/wasnorm_wordpool_576.txt	LTP228	ltpFR2	16	3	COBRA	336	n/a	n/a	0	0	0
749.15	n/a	WORD	374575	wordpools/wasnorm_wordpool_576.txt	LTP228	ltpFR2	16	3	GLASS	639	n/a	n/a	0	0	0
751.832	n/a	WORD	375916	wordpools/wasnorm_wordpool_576.txt	LTP228	ltpFR2	16	3	CELLAR	267	n/a	n/a	0	0	0
754.46	n/a	WORD	377230	wordpools/wasnorm_wordpool_576.txt	LTP228	ltpFR2	16	3	PASTA	1021	n/a	n/a	0	0	0
756.99	n/a	WORD	378495	wordpools/wasnorm_wordpool_576.txt	LTP228	ltpFR2	16	3	CUPBOARD	425	n/a	n/a	0	0	0
759.62	n/a	WORD	379810	wordpools/wasnorm_wordpool_576.txt	LTP228	ltpFR2	16	3	MATTRESS	879	n/a	n/a	0	0	0
762.414	n/a	WORD	381207	wordpools/wasnorm_wordpool_576.txt	LTP228	ltpFR2	16	3	EGYPT	519	n/a	n/a	0	0	0
764.03	n/a	START	382015	n/a	LTP228	ltpFR2	16	n/a	n/a	n/a	4	n/a	n/a	n/a	n/a
765.03	n/a	DISTRACTOR	382515	n/a	LTP228	ltpFR2	16	3	n/a	n/a	n/a	n/a	0	0	0
765.046	n/a	PROB	382523	n/a	LTP228	ltpFR2	16	n/a	n/a	n/a	4	17	5	5	7
767.458	n/a	PROB	383729	n/a	LTP228	ltpFR2	16	n/a	n/a	n/a	4	11	4	2	5
770.754	n/a	PROB	385377	n/a	LTP228	ltpFR2	16	n/a	n/a	n/a	4	17	6	9	2
773.832	n/a	PROB	386916	n/a	LTP228	ltpFR2	16	n/a	n/a	n/a	4	19	6	6	7
776.228	n/a	PROB	388114	n/a	LTP228	ltpFR2	16	n/a	n/a	n/a	4	19	3	7	9
777.694	n/a	PROB	388847	n/a	LTP228	ltpFR2	16	n/a	n/a	n/a	4	14	3	4	7
779.324	n/a	PROB	389662	n/a	LTP228	ltpFR2	16	n/a	n/a	n/a	4	23	8	7	8
782.436	n/a	PROB	391218	n/a	LTP228	ltpFR2	16	n/a	n/a	n/a	4	15	8	4	3
784.382	n/a	PROB	392191	n/a	LTP228	ltpFR2	16	n/a	n/a	n/a	4	27	9	9	9
786.884	n/a	STOP	393442	n/a	LTP228	ltpFR2	16	n/a	n/a	n/a	4	n/a	n/a	n/a	n/a
789.776	n/a	REC_START	394888	n/a	LTP228	ltpFR2	16	3	n/a	n/a	n/a	n/a	0	0	0
793.352	n/a	REC_WORD	396676	wordpools/wasnorm_wordpool_576.txt	LTP228	ltpFR2	16	3	EGYPT	519	n/a	n/a	0	0	0
794.994	n/a	REC_WORD	397497	wordpools/wasnorm_wordpool_576.txt	LTP228	ltpFR2	16	3	GANGSTER	620	n/a	n/a	0	0	0
795.95	n/a	REC_WORD	397975	wordpools/wasnorm_wordpool_576.txt	LTP228	ltpFR2	16	3	BULLET	194	n/a	n/a	0	0	0
880.456	n/a	DISTRACTOR	440228	n/a	LTP228	ltpFR2	16	4	n/a	n/a	n/a	n/a	0	0	0
880.456	n/a	START	440228	n/a	LTP228	ltpFR2	16	n/a	n/a	n/a	5	n/a	n/a	n/a	n/a
880.49	n/a	PROB	440245	n/a	LTP228	ltpFR2	16	n/a	n/a	n/a	5	12	1	7	4
882.92	n/a	PROB	441460	n/a	LTP228	ltpFR2	16	n/a	n/a	n/a	5	17	7	5	5
884.268	n/a	PROB	442134	n/a	LTP228	ltpFR2	16	n/a	n/a	n/a	5	9	2	4	3
885.998	n/a	PROB	442999	n/a	LTP228	ltpFR2	16	n/a	n/a	n/a	5	12	6	1	5
888.744	n/a	PROB	444372	n/a	LTP228	ltpFR2	16	n/a	n/a	n/a	5	19	7	8	4
891.074	n/a	PROB	445537	n/a	LTP228	ltpFR2	16	n/a	n/a	n/a	5	12	1	5	6
893.106	n/a	PROB	446553	n/a	LTP228	ltpFR2	16	n/a	n/a	n/a	5	10	2	2	6
894.936	n/a	PROB	447468	n/a	LTP228	ltpFR2	16	n/a	n/a	n/a	5	22	9	4	9
897.398	n/a	PROB	448699	n/a	LTP228	ltpFR2	16	n/a	n/a	n/a	5	9	7	1	1
898.664	n/a	PROB	449332	n/a	LTP228	ltpFR2	16	n/a	n/a	n/a	5	13	7	2	4
900.36	n/a	PROB	450180	n/a	LTP228	ltpFR2	16	n/a	n/a	n/a	5	7	4	2	1
903.364	n/a	STOP	451682	n/a	LTP228	ltpFR2	16	n/a	n/a	n/a	5	n/a	n/a	n/a	n/a
905.402	n/a	WORD	452701	wordpools/wasnorm_wordpool_576.txt	LTP228	ltpFR2	16	4	STUDENT	1395	n/a	n/a	0	0	0
908.016	n/a	WORD	454008	wordpools/wasnorm_wordpool_576.txt	LTP228	ltpFR2	16	4	PORK	1108	n/a	n/a	0	0	0
910.644	n/a	WORD	455322	wordpools/wasnorm_wordpool_576.txt	LTP228	ltpFR2	16	4	RADISH	1158	n/a	n/a	0	0	0
913.356	n/a	WORD	456678	wordpools/wasnorm_wordpool_576.txt	LTP228	ltpFR2	16	4	CRICKET	408	n/a	n/a	0	0	0
915.92	n/a	WORD	457960	wordpools/wasnorm_wordpool_576.txt	LTP228	ltpFR2	16	4	COWBOY	395	n/a	n/a	0	0	0
918.348	n/a	WORD	459174	wordpools/wasnorm_wordpool_576.txt	LTP228	ltpFR2	16	4	PILOT	1070	n/a	n/a	0	0	0
920.796	n/a	WORD	460398	wordpools/wasnorm_wordpool_576.txt	LTP228	ltpFR2	16	4	BRIEFCASE	175	n/a	n/a	0	0	0
923.324	n/a	WORD	461662	wordpools/wasnorm_wordpool_576.txt	LTP228	ltpFR2	16	4	PEANUT	1032	n/a	n/a	0	0	0
925.922	n/a	WORD	462961	wordpools/wasnorm_wordpool_576.txt	LTP228	ltpFR2	16	4	PECAN	1036	n/a	n/a	0	0	0
928.4	n/a	WORD	464200	wordpools/wasnorm_wordpool_576.txt	LTP228	ltpFR2	16	4	CAFE	216	n/a	n/a	0	0	0
930.914	n/a	WORD	465457	wordpools/wasnorm_wordpool_576.txt	LTP228	ltpFR2	16	4	MILDEW	893	n/a	n/a	0	0	0
933.36	n/a	WORD	466680	wordpools/wasnorm_wordpool_576.txt	LTP228	ltpFR2	16	4	PARSLEY	1016	n/a	n/a	0	0	0
935.99	n/a	WORD	467995	wordpools/wasnorm_wordpool_576.txt	LTP228	ltpFR2	16	4	PUPIL	1143	n/a	n/a	0	0	0
938.752	n/a	WORD	469376	wordpools/wasnorm_wordpool_576.txt	LTP228	ltpFR2	16	4	SWORD	1423	n/a	n/a	0	0	0
941.566	n/a	WORD	470783	wordpools/wasnorm_wordpool_576.txt	LTP228	ltpFR2	16	4	BANJO	82	n/a	n/a	0	0	0
944.194	n/a	WORD	472097	wordpools/wasnorm_wordpool_576.txt	LTP228	ltpFR2	16	4	CLAMP	316	n/a	n/a	0	0	0
946.974	n/a	WORD	473487	wordpools/wasnorm_wordpool_576.txt	LTP228	ltpFR2	16	4	PISTON	1076	n/a	n/a	0	0	0
949.736	n/a	WORD	474868	wordpools/wasnorm_wordpool_576.txt	LTP228	ltpFR2	16	4	WAITER	1580	n/a	n/a	0	0	0
952.214	n/a	WORD	476107	wordpools/wasnorm_wordpool_576.txt	LTP228	ltpFR2	16	4	GARDEN	623	n/a	n/a	0	0	0
954.846	n/a	WORD	477423	wordpools/wasnorm_wordpool_576.txt	LTP228	ltpFR2	16	4	HOOD	714	n/a	n/a	0	0	0
957.34	n/a	WORD	478670	wordpools/wasnorm_wordpool_576.txt	LTP228	ltpFR2	16	4	HATCHET	691	n/a	n/a	0	0	0
960.004	n/a	WORD	480002	wordpools/wasnorm_wordpool_576.txt	LTP228	ltpFR2	16	4	TRIBE	1505	n/a	n/a	0	0	0
962.616	n/a	WORD	481308	wordpools/wasnorm_wordpool_576.txt	LTP228	ltpFR2	16	4	MISTER	901	n/a	n/a	0	0	0
965.412	n/a	WORD	482706	wordpools/wasnorm_wordpool_576.txt	LTP228	ltpFR2	16	4	FARMER	553	n/a	n/a	0	0	0
967.028	n/a	START	483514	n/a	LTP228	ltpFR2	16	n/a	n/a	n/a	6	n/a	n/a	n/a	n/a
968.218	n/a	DISTRACTOR	484109	n/a	LTP228	ltpFR2	16	4	n/a	n/a	n/a	n/a	0	0	0
968.224	n/a	PROB	484112	n/a	LTP228	ltpFR2	16	n/a	n/a	n/a	6	12	6	3	3
970.072	n/a	PROB	485036	n/a	LTP228	ltpFR2	16	n/a	n/a	n/a	6	12	1	7	4
974.766	n/a	PROB	487383	n/a	LTP228	ltpFR2	16	n/a	n/a	n/a	6	8	1	1	6
976.312	n/a	PROB	488156	n/a	LTP228	ltpFR2	16	n/a	n/a	n/a	6	9	7	1	1
977.444	n/a	PROB	488722	n/a	LTP228	ltpFR2	16	n/a	n/a	n/a	6	10	2	4	4
979.158	n/a	PROB	489579	n/a	LTP228	ltpFR2	16	n/a	n/a	n/a	6	23	5	8	9
982.336	n/a	PROB	491168	n/a	LTP228	ltpFR2	16	n/a	n/a	n/a	6	5	1	2	2
984.516	n/a	PROB	492258	n/a	LTP228	ltpFR2	16	n/a	n/a	n/a	6	18	2	9	7
987.512	n/a	PROB	493756	n/a	LTP228	ltpFR2	16	n/a	n/a	n/a	6	7	3	2	2
990.21	n/a	STOP	495105	n/a	LTP228	ltpFR2	16	n/a	n/a	n/a	6	n/a	n/a	n/a	n/a
992.856	n/a	REC_START	496428	n/a	LTP228	ltpFR2	16	4	n/a	n/a	n/a	n/a	0	0	0
994.518	n/a	REC_WORD	497259	wordpools/wasnorm_wordpool_576.txt	LTP228	ltpFR2	16	4	PISTON	1076	n/a	n/a	0	0	0
995.39	n/a	REC_WORD	497695	wordpools/wasnorm_wordpool_576.txt	LTP228	ltpFR2	16	4	CLAMP	316	n/a	n/a	0	0	0
996.31	n/a	REC_WORD	498155	wordpools/wasnorm_wordpool_576.txt	LTP228	ltpFR2	16	4	HATCHET	691	n/a	n/a	0	0	0
997.316	n/a	REC_WORD	498658	wordpools/wasnorm_wordpool_576.txt	LTP228	ltpFR2	16	4	COWBOY	395	n/a	n/a	0	0	0
998.364	n/a	REC_WORD	499182	wordpools/wasnorm_wordpool_576.txt	LTP228	ltpFR2	16	4	PILOT	1070	n/a	n/a	0	0	0
1083.502	n/a	WORD	541751	wordpools/wasnorm_wordpool_576.txt	LTP228	ltpFR2	16	5	PARTNER	1017	n/a	n/a	0	0	0
1085.934	n/a	WORD	542967	wordpools/wasnorm_wordpool_576.txt	LTP228	ltpFR2	16	5	BUREAU	199	n/a	n/a	0	0	0
1088.746	n/a	WORD	544373	wordpools/wasnorm_wordpool_576.txt	LTP228	ltpFR2	16	5	FIDDLE	561	n/a	n/a	0	0	0
1091.34	n/a	WORD	545670	wordpools/wasnorm_wordpool_576.txt	LTP228	ltpFR2	16	5	COSTUME	383	n/a	n/a	0	0	0
1093.772	n/a	WORD	546886	wordpools/wasnorm_wordpool_576.txt	LTP228	ltpFR2	16	5	FLASHLIGHT	575	n/a	n/a	0	0	0
1096.316	n/a	WORD	548158	wordpools/wasnorm_wordpool_576.txt	LTP228	ltpFR2	16	5	BOX	159	n/a	n/a	0	0	0
1099.146	n/a	WORD	549573	wordpools/wasnorm_wordpool_576.txt	LTP228	ltpFR2	16	5	BINDER	127	n/a	n/a	0	0	0
1101.742	n/a	WORD	550871	wordpools/wasnorm_wordpool_576.txt	LTP228	ltpFR2	16	5	DRESS	495	n/a	n/a	0	0	0
1104.172	n/a	WORD	552086	wordpools/wasnorm_wordpool_576.txt	LTP228	ltpFR2	16	5	SHORTS	1293	n/a	n/a	0	0	0
1106.784	n/a	WORD	553392	wordpools/wasnorm_wordpool_576.txt	LTP228	ltpFR2	16	5	TREAT	1501	n/a	n/a	0	0	0
1109.346	n/a	WORD	554673	wordpools/wasnorm_wordpool_576.txt	LTP228	ltpFR2	16	5	LEADER	807	n/a	n/a	0	0	0
1112.142	n/a	WORD	556071	wordpools/wasnorm_wordpool_576.txt	LTP228	ltpFR2	16	5	MAMMAL	861	n/a	n/a	0	0	0
1114.572	n/a	WORD	557286	wordpools/wasnorm_wordpool_576.txt	LTP228	ltpFR2	16	5	SNACK	1331	n/a	n/a	0	0	0
1117.168	n/a	WORD	558584	wordpools/wasnorm_wordpool_576.txt	LTP228	ltpFR2	16	5	GUARD	667	n/a	n/a	0	0	0
1119.914	n/a	WORD	559957	wordpools/wasnorm_wordpool_576.txt	LTP228	ltpFR2	16	5	OZONE	996	n/a	n/a	0	0	0
1122.678	n/a	WORD	561339	wordpools/wasnorm_wordpool_576.txt	LTP228	ltpFR2	16	5	CLIMBER	323	n/a	n/a	0	0	0
1125.322	n/a	WORD	562661	wordpools/wasnorm_wordpool_576.txt	LTP228	ltpFR2	16	5	BRANCH	168	n/a	n/a	0	0	0
1128.036	n/a	WORD	564018	wordpools/wasnorm_wordpool_576.txt	LTP228	ltpFR2	16	5	TWIG	1527	n/a	n/a	0	0	0
1130.598	n/a	WORD	565299	wordpools/wasnorm_wordpool_576.txt	LTP228	ltpFR2	16	5	JAPAN	749	n/a	n/a	0	0	0
1133.278	n/a	WORD	566639	wordpools/wasnorm_wordpool_576.txt	LTP228	ltpFR2	16	5	BEEF	113	n/a	n/a	0	0	0
1136.024	n/a	WORD	568012	wordpools/wasnorm_wordpool_576.txt	LTP228	ltpFR2	16	5	CHEST	295	n/a	n/a	0	0	0
1138.486	n/a	WORD	569243	wordpools/wasnorm_wordpool_576.txt	LTP228	ltpFR2	16	5	FOREST	593	n/a	n/a	0	0	0
1141.298	n/a	WORD	570649	wordpools/wasnorm_wordpool_576.txt	LTP228	ltpFR2	16	5	SEAL	1262	n/a	n/a	0	0	0
1144.028	n/a	WORD	572014	wordpools/wasnorm_wordpool_576.txt	LTP228	ltpFR2	16	5	LAMP	798	n/a	n/a	0	0	0
1145.644	n/a	START	572822	n/a	LTP228	ltpFR2	16	n/a	n/a	n/a	7	n/a	n/a	n/a	n/a
1146.678	n/a	DISTRACTOR	573339	n/a	LTP228	ltpFR2	16	5	n/a	n/a	n/a	n/a	0	0	0
1146.692	n/a	PROB	573346	n/a	LTP228	ltpFR2	16	n/a	n/a	n/a	7	9	2	6	1
1149.82	n/a	PROB	574910	n/a	LTP228	ltpFR2	16	n/a	n/a	n/a	7	13	3	1	9
1151.668	n/a	PROB	575834	n/a	LTP228	ltpFR2	16	n/a	n/a	n/a	7	16	5	2	9
1154.93	n/a	PROB	577465	n/a	LTP228	ltpFR2	16	n/a	n/a	n/a	7	20	9	3	8
1159.688	n/a	PROB	579844	n/a	LTP228	ltpFR2	16	n/a	n/a	n/a	7	19	9	2	7
1161.968	n/a	PROB	580984	n/a	LTP228	ltpFR2	16	n/a	n/a	n/a	7	23	9	9	5
1164.582	n/a	PROB	582291	n/a	LTP228	ltpFR2	16	n/a	n/a	n/a	7	13	4	6	3
1169.642	n/a	STOP	584821	n/a	LTP228	ltpFR2	16	n/a	n/a	n/a	7	n/a	n/a	n/a	n/a
1171.504	n/a	REC_START	585752	n/a	LTP228	ltpFR2	16	5	n/a	n/a	n/a	n/a	0	0	0
1179.85	n/a	REC_WORD	589925	wordpools/wasnorm_wordpool_576.txt	LTP228	ltpFR2	16	5	JAPAN	749	n/a	n/a	0	0	0
1181.184	n/a	REC_WORD	590592	wordpools/wasnorm_wordpool_576.txt	LTP228	ltpFR2	16	5	BEEF	113	n/a	n/a	0	0	0
1233.828	n/a	REC_WORD_VV	616914	wordpools/wasnorm_wordpool_576.txt	LTP228	ltpFR2	16	5	<>	-1	n/a	n/a	0	0	0
1234.828	n/a	REC_WORD_VV	617414	wordpools/wasnorm_wordpool_576.txt	LTP228	ltpFR2	16	5	<>	-1	n/a	n/a	0	0	0
1235.828	n/a	REC_WORD_VV	617914	wordpools/wasnorm_wordpool_576.txt	LTP228	ltpFR2	16	5	<>	-1	n/a	n/a	0	0	0
1262.168	n/a	WORD	631084	wordpools/wasnorm_wordpool_576.txt	LTP228	ltpFR2	16	6	PLAYGROUND	1087	n/a	n/a	0	0	0
1264.766	n/a	WORD	632383	wordpools/wasnorm_wordpool_576.txt	LTP228	ltpFR2	16	6	SALMON	1227	n/a	n/a	0	0	0
1267.444	n/a	WORD	633722	wordpools/wasnorm_wordpool_576.txt	LTP228	ltpFR2	16	6	SEAFOOD	1260	n/a	n/a	0	0	0
1270.19	n/a	WORD	635095	wordpools/wasnorm_wordpool_576.txt	LTP228	ltpFR2	16	6	PATIENT	1024	n/a	n/a	0	0	0
1272.904	n/a	WORD	636452	wordpools/wasnorm_wordpool_576.txt	LTP228	ltpFR2	16	6	LIGHTNING	820	n/a	n/a	0	0	0
1275.482	n/a	WORD	637741	wordpools/wasnorm_wordpool_576.txt	LTP228	ltpFR2	16	6	SODA	1341	n/a	n/a	0	0	0
1278.046	n/a	WORD	639023	wordpools/wasnorm_wordpool_576.txt	LTP228	ltpFR2	16	6	BALLOON	75	n/a	n/a	0	0	0
1280.592	n/a	WORD	640296	wordpools/wasnorm_wordpool_576.txt	LTP228	ltpFR2	16	6	BANKER	84	n/a	n/a	0	0	0
1283.254	n/a	WORD	641627	wordpools/wasnorm_wordpool_576.txt	LTP228	ltpFR2	16	6	WIFE	1609	n/a	n/a	0	0	0
1285.984	n/a	WORD	642992	wordpools/wasnorm_wordpool_576.txt	LTP228	ltpFR2	16	6	SPIDER	1351	n/a	n/a	0	0	0
1288.68	n/a	WORD	644340	wordpools/wasnorm_wordpool_576.txt	LTP228	ltpFR2	16	6	TOASTER	1472	n/a	n/a	0	0	0
1291.374	n/a	WORD	645687	wordpools/wasnorm_wordpool_576.txt	LTP228	ltpFR2	16	6	SCALPEL	1243	n/a	n/a	0	0	0
1293.922	n/a	WORD	646961	wordpools/wasnorm_wordpool_576.txt	LTP228	ltpFR2	16	6	WHISKERS	1605	n/a	n/a	0	0	0
1296.368	n/a	WORD	648184	wordpools/wasnorm_wordpool_576.txt	LTP228	ltpFR2	16	6	LADY	794	n/a	n/a	0	0	0
1299.032	n/a	WORD	649516	wordpools/wasnorm_wordpool_576.txt	LTP228	ltpFR2	16	6	CASHEW	253	n/a	n/a	0	0	0
1301.51	n/a	WORD	650755	wordpools/wasnorm_wordpool_576.txt	LTP228	ltpFR2	16	6	ASIA	46	n/a	n/a	0	0	0
1304.172	n/a	WORD	652086	wordpools/wasnorm_wordpool_576.txt	LTP228	ltpFR2	16	6	DANCER	437	n/a	n/a	0	0	0
1306.786	n/a	WORD	653393	wordpools/wasnorm_wordpool_576.txt	LTP228	ltpFR2	16	6	BARREL	91	n/a	n/a	0	0	0
1309.598	n/a	WORD	654799	wordpools/wasnorm_wordpool_576.txt	LTP228	ltpFR2	16	6	COUNTRY	388	n/a	n/a	0	0	0
1312.242	n/a	WORD	656121	wordpools/wasnorm_wordpool_576.txt	LTP228	ltpFR2	16	6	TORTOISE	1486	n/a	n/a	0	0	0
1314.874	n/a	WORD	657437	wordpools/wasnorm_wordpool_576.txt	LTP228	ltpFR2	16	6	SLIME	1327	n/a	n/a	0	0	0
1317.652	n/a	WORD	658826	wordpools/wasnorm_wordpool_576.txt	LTP228	ltpFR2	16	6	SUNSET	1408	n/a	n/a	0	0	0
1320.464	n/a	WORD	660232	wordpools/wasnorm_wordpool_576.txt	LTP228	ltpFR2	16	6	EUROPE	541	n/a	n/a	0	0	0
1323.226	n/a	WORD	661613	wordpools/wasnorm_wordpool_576.txt	LTP228	ltpFR2	16	6	NURSE	963	n/a	n/a	0	0	0
1324.842	n/a	START	662421	n/a	LTP228	ltpFR2	16	n/a	n/a	n/a	8	n/a	n/a	n/a	n/a
1325.682	n/a	DISTRACTOR	662841	n/a	LTP228	ltpFR2	16	6	n/a	n/a	n/a	n/a	0	0	0
1325.69	n/a	PROB	662845	n/a	LTP228	ltpFR2	16	n/a	n/a	n/a	8	17	5	5	7
1327.486	n/a	PROB	663743	n/a	LTP228	ltpFR2	16	n/a	n/a	n/a	8	23	8	6	9
1330.132	n/a	PROB	665066	n/a	LTP228	ltpFR2	16	n/a	n/a	n/a	8	18	5	7	6
1334.844	n/a	PROB	667422	n/a	LTP228	ltpFR2	16	n/a	n/a	n/a	8	18	6	9	3
1339.586	n/a	PROB	669793	n/a	LTP228	ltpFR2	16	n/a	n/a	n/a	8	13	5	3	5
1341.6	n/a	PROB	670800	n/a	LTP228	ltpFR2	16	n/a	n/a	n/a	8	25	8	9	8
1344.162	n/a	PROB	672081	n/a	LTP228	ltpFR2	16	n/a	n/a	n/a	8	20	9	4	7
1348.194	n/a	STOP	674097	n/a	LTP228	ltpFR2	16	n/a	n/a	n/a	8	n/a	n/a	n/a	n/a
1350.654	n/a	REC_START	675327	n/a	LTP228	ltpFR2	16	6	n/a	n/a	n/a	n/a	0	0	0
1352.276	n/a	REC_WORD	676138	wordpools/wasnorm_wordpool_576.txt	LTP228	ltpFR2	16	6	PLAYGROUND	1087	n/a	n/a	0	0	0
1353.53	n/a	REC_WORD	676765	wordpools/wasnorm_wordpool_576.txt	LTP228	ltpFR2	16	6	SALMON	1227	n/a	n/a	0	0	0
1354.55	n/a	REC_WORD	677275	wordpools/wasnorm_wordpool_576.txt	LTP228	ltpFR2	16	6	SEAFOOD	1260	n/a	n/a	0	0	0
1356.2	n/a	REC_WORD	678100	wordpools/wasnorm_wordpool_576.txt	LTP228	ltpFR2	16	6	WIFE	1609	n/a	n/a	0	0	0
1357.276	n/a	REC_WORD	678638	wordpools/wasnorm_wordpool_576.txt	LTP228	ltpFR2	16	6	BANKER	84	n/a	n/a	0	0	0
1357.826	n/a	REC_WORD	678913	wordpools/wasnorm_wordpool_576.txt	LTP228	ltpFR2	16	6	SPIDER	1351	n/a	n/a	0	0	0
1358.676	n/a	REC_WORD	679338	wordpools/wasnorm_wordpool_576.txt	LTP228	ltpFR2	16	6	SCALPEL	1243	n/a	n/a	0	0	0
1360.14	n/a	REC_WORD	680070	wordpools/wasnorm_wordpool_576.txt	LTP228	ltpFR2	16	6	TOASTER	1472	n/a	n/a	0	0	0
1441.3	n/a	DISTRACTOR	720650	n/a	LTP228	ltpFR2	16	7	n/a	n/a	n/a	n/a	0	0	0
1441.302	n/a	START	720651	n/a	LTP228	ltpFR2	16	n/a	n/a	n/a	9	n/a	n/a	n/a	n/a
1441.334	n/a	PROB	720667	n/a	LTP228	ltpFR2	16	n/a	n/a	n/a	9	17	9	4	4
1443.382	n/a	PROB	721691	n/a	LTP228	ltpFR2	16	n/a	n/a	n/a	9	12	1	6	5
1444.846	n/a	PROB	722423	n/a	LTP228	ltpFR2	16	n/a	n/a	n/a	9	17	1	7	9
1447.726	n/a	PROB	723863	n/a	LTP228	ltpFR2	16	n/a	n/a	n/a	9	18	2	9	7
1450.654	n/a	PROB	725327	n/a	LTP228	ltpFR2	16	n/a	n/a	n/a	9	18	9	6	3
1452.484	n/a	PROB	726242	n/a	LTP228	ltpFR2	16	n/a	n/a	n/a	9	11	1	4	6
1454.016	n/a	PROB	727008	n/a	LTP228	ltpFR2	16	n/a	n/a	n/a	9	18	7	7	4
1455.53	n/a	PROB	727765	n/a	LTP228	ltpFR2	16	n/a	n/a	n/a	9	14	6	2	6
1457.894	n/a	PROB	728947	n/a	LTP228	ltpFR2	16	n/a	n/a	n/a	9	12	8	1	3
1460.172	n/a	PROB	730086	n/a	LTP228	ltpFR2	16	n/a	n/a	n/a	9	17	4	8	5
1462.57	n/a	PROB	731285	n/a	LTP228	ltpFR2	16	n/a	n/a	n/a	9	16	7	8	1
1464.562	n/a	STOP	732281	n/a	LTP228	ltpFR2	16	n/a	n/a	n/a	9	n/a	n/a	n/a	n/a
1466.314	n/a	WORD	733157	wordpools/wasnorm_wordpool_576.txt	LTP228	ltpFR2	16	7	SLOPE	1328	n/a	n/a	0	0	0
1469.044	n/a	WORD	734522	wordpools/wasnorm_wordpool_576.txt	LTP228	ltpFR2	16	7	CARROT	249	n/a	n/a	0	0	0
1471.724	n/a	WORD	735862	wordpools/wasnorm_wordpool_576.txt	LTP228	ltpFR2	16	7	ORANGE	980	n/a	n/a	0	0	0
1474.268	n/a	WORD	737134	wordpools/wasnorm_wordpool_576.txt	LTP228	ltpFR2	16	7	SLIDE	1326	n/a	n/a	0	0	0
1476.916	n/a	WORD	738458	wordpools/wasnorm_wordpool_576.txt	LTP228	ltpFR2	16	7	TWISTER	1530	n/a	n/a	0	0	0
1479.478	n/a	WORD	739739	wordpools/wasnorm_wordpool_576.txt	LTP228	ltpFR2	16	7	XEROX	1628	n/a	n/a	0	0	0
1481.974	n/a	WORD	740987	wordpools/wasnorm_wordpool_576.txt	LTP228	ltpFR2	16	7	JUGGLER	763	n/a	n/a	0	0	0
1484.486	n/a	WORD	742243	wordpools/wasnorm_wordpool_576.txt	LTP228	ltpFR2	16	7	HEDGE	699	n/a	n/a	0	0	0
1487.282	n/a	WORD	743641	wordpools/wasnorm_wordpool_576.txt	LTP228	ltpFR2	16	7	MOTEL	919	n/a	n/a	0	0	0
1489.846	n/a	WORD	744923	wordpools/wasnorm_wordpool_576.txt	LTP228	ltpFR2	16	7	COMET	353	n/a	n/a	0	0	0
1492.424	n/a	WORD	746212	wordpools/wasnorm_wordpool_576.txt	LTP228	ltpFR2	16	7	BIKE	125	n/a	n/a	0	0	0
1495.22	n/a	WORD	747610	wordpools/wasnorm_wordpool_576.txt	LTP228	ltpFR2	16	7	MISSILE	900	n/a	n/a	0	0	0
1497.968	n/a	WORD	748984	wordpools/wasnorm_wordpool_576.txt	LTP228	ltpFR2	16	7	CLOUD	328	n/a	n/a	0	0	0
1500.68	n/a	WORD	750340	wordpools/wasnorm_wordpool_576.txt	LTP228	ltpFR2	16	7	HOSTESS	723	n/a	n/a	0	0	0
1503.44	n/a	WORD	751720	wordpools/wasnorm_wordpool_576.txt	LTP228	ltpFR2	16	7	PUPPY	1144	n/a	n/a	0	0	0
1505.922	n/a	WORD	752961	wordpools/wasnorm_wordpool_576.txt	LTP228	ltpFR2	16	7	PANTHER	1009	n/a	n/a	0	0	0
1508.416	n/a	WORD	754208	wordpools/wasnorm_wordpool_576.txt	LTP228	ltpFR2	16	7	QUAIL	1147	n/a	n/a	0	0	0
1511.03	n/a	WORD	755515	wordpools/wasnorm_wordpool_576.txt	LTP228	ltpFR2	16	7	ROOSTER	1209	n/a	n/a	0	0	0
1513.644	n/a	WORD	756822	wordpools/wasnorm_wordpool_576.txt	LTP228	ltpFR2	16	7	LOVER	846	n/a	n/a	0	0	0
1516.354	n/a	WORD	758177	wordpools/wasnorm_wordpool_576.txt	LTP228	ltpFR2	16	7	BOYFRIEND	162	n/a	n/a	0	0	0
1518.818	n/a	WORD	759409	wordpools/wasnorm_wordpool_576.txt	LTP228	ltpFR2	16	7	BEAST	108	n/a	n/a	0	0	0
1521.298	n/a	WORD	760649	wordpools/wasnorm_wordpool_576.txt	LTP228	ltpFR2	16	7	WITNESS	1618	n/a	n/a	0	0	0
1524.126	n/a	WORD	762063	wordpools/wasnorm_wordpool_576.txt	LTP228	ltpFR2	16	7	PEDAL	1037	n/a	n/a	0	0	0
1526.558	n/a	WORD	763279	wordpools/wasnorm_wordpool_576.txt	LTP228	ltpFR2	16	7	LOFT	840	n/a	n/a	0	0	0
1528.17	n/a	START	764085	n/a	LTP228	ltpFR2	16	n/a	n/a	n/a	10	n/a	n/a	n/a	n/a
1529.2	n/a	DISTRACTOR	764600	n/a	LTP228	ltpFR2	16	7	n/a	n/a	n/a	n/a	0	0	0
1529.202	n/a	PROB	764601	n/a	LTP228	ltpFR2	16	n/a	n/a	n/a	10	12	1	5	6
1530.768	n/a	PROB	765384	n/a	LTP228	ltpFR2	16	n/a	n/a	n/a	10	19	7	3	9
1532.38	n/a	PROB	766190	n/a	LTP228	ltpFR2	16	n/a	n/a	n/a	10	21	3	9	9
1534.062	n/a	PROB	767031	n/a	LTP228	ltpFR2	16	n/a	n/a	n/a	10	13	2	7	4
1537.74	n/a	PROB	768870	n/a	LTP228	ltpFR2	16	n/a	n/a	n/a	10	18	9	6	3
1545.296	n/a	PROB	772648	n/a	LTP228	ltpFR2	16	n/a	n/a	n/a	10	15	6	5	4
1547.21	n/a	PROB	773605	n/a	LTP228	ltpFR2	16	n/a	n/a	n/a	10	19	2	9	8
1552.17	n/a	STOP	776085	n/a	LTP228	ltpFR2	16	n/a	n/a	n/a	10	n/a	n/a	n/a	n/a
1553.968	n/a	REC_START	776984	n/a	LTP228	ltpFR2	16	7	n/a	n/a	n/a	n/a	0	0	0
1561.7	n/a	REC_WORD	780850	wordpools/wasnorm_wordpool_576.txt	LTP228	ltpFR2	16	7	PUPPY	1144	n/a	n/a	0	0	0
1660.692	n/a	WORD	830346	wordpools/wasnorm_wordpool_576.txt	LTP228	ltpFR2	16	8	CABIN	211	n/a	n/a	0	0	0
1663.12	n/a	WORD	831560	wordpools/wasnorm_wordpool_576.txt	LTP228	ltpFR2	16	8	WASHER	1592	n/a	n/a	0	0	0
1665.652	n/a	WORD	832826	wordpools/wasnorm_wordpool_576.txt	LTP228	ltpFR2	16	8	AWARD	63	n/a	n/a	0	0	0
1668.314	n/a	WORD	834157	wordpools/wasnorm_wordpool_576.txt	LTP228	ltpFR2	16	8	STICKER	1382	n/a	n/a	0	0	0
1670.944	n/a	WORD	835472	wordpools/wasnorm_wordpool_576.txt	LTP228	ltpFR2	16	8	CHAUFFEUR	283	n/a	n/a	0	0	0
1673.64	n/a	WORD	836820	wordpools/wasnorm_wordpool_576.txt	LTP228	ltpFR2	16	8	TOURIST	1488	n/a	n/a	0	0	0
1676.334	n/a	WORD	838167	wordpools/wasnorm_wordpool_576.txt	LTP228	ltpFR2	16	8	GHETTO	633	n/a	n/a	0	0	0
1678.966	n/a	WORD	839483	wordpools/wasnorm_wordpool_576.txt	LTP228	ltpFR2	16	8	WARDROBE	1587	n/a	n/a	0	0	0
1681.694	n/a	WORD	840847	wordpools/wasnorm_wordpool_576.txt	LTP228	ltpFR2	16	8	MATCH	878	n/a	n/a	0	0	0
1684.14	n/a	WORD	842070	wordpools/wasnorm_wordpool_576.txt	LTP228	ltpFR2	16	8	CURTAIN	427	n/a	n/a	0	0	0
1686.604	n/a	WORD	843302	wordpools/wasnorm_wordpool_576.txt	LTP228	ltpFR2	16	8	WINDOW	1611	n/a	n/a	0	0	0
1689.266	n/a	WORD	844633	wordpools/wasnorm_wordpool_576.txt	LTP228	ltpFR2	16	8	UNCLE	1536	n/a	n/a	0	0	0
1691.98	n/a	WORD	845990	wordpools/wasnorm_wordpool_576.txt	LTP228	ltpFR2	16	8	DORM	488	n/a	n/a	0	0	0
1694.642	n/a	WORD	847321	wordpools/wasnorm_wordpool_576.txt	LTP228	ltpFR2	16	8	SHELTER	1282	n/a	n/a	0	0	0
1697.454	n/a	WORD	848727	wordpools/wasnorm_wordpool_576.txt	LTP228	ltpFR2	16	8	REBEL	1172	n/a	n/a	0	0	0
1700.084	n/a	WORD	850042	wordpools/wasnorm_wordpool_576.txt	LTP228	ltpFR2	16	8	ATOM	55	n/a	n/a	0	0	0
1702.68	n/a	WORD	851340	wordpools/wasnorm_wordpool_576.txt	LTP228	ltpFR2	16	8	LUMBER	848	n/a	n/a	0	0	0
1705.458	n/a	WORD	852729	wordpools/wasnorm_wordpool_576.txt	LTP228	ltpFR2	16	8	BUTCHER	203	n/a	n/a	0	0	0
1708.27	n/a	WORD	854135	wordpools/wasnorm_wordpool_576.txt	LTP228	ltpFR2	16	8	LUGGAGE	847	n/a	n/a	0	0	0
1710.718	n/a	WORD	855359	wordpools/wasnorm_wordpool_576.txt	LTP228	ltpFR2	16	8	DOLPHIN	483	n/a	n/a	0	0	0
1713.446	n/a	WORD	856723	wordpools/wasnorm_wordpool_576.txt	LTP228	ltpFR2	16	8	CRITIC	410	n/a	n/a	0	0	0
1716.026	n/a	WORD	858013	wordpools/wasnorm_wordpool_576.txt	LTP228	ltpFR2	16	8	MEDAL	885	n/a	n/a	0	0	0
1718.572	n/a	WORD	859286	wordpools/wasnorm_wordpool_576.txt	LTP228	ltpFR2	16	8	HIGHWAY	707	n/a	n/a	0	0	0
1721.2	n/a	WORD	860600	wordpools/wasnorm_wordpool_576.txt	LTP228	ltpFR2	16	8	MARKER	870	n/a	n/a	0	0	0
1722.816	n/a	START	861408	n/a	LTP228	ltpFR2	16	n/a	n/a	n/a	11	n/a	n/a	n/a	n/a
1723.662	n/a	DISTRACTOR	861831	n/a	LTP228	ltpFR2	16	8	n/a	n/a	n/a	n/a	0	0	0
1723.664	n/a	PROB	861832	n/a	LTP228	ltpFR2	16	n/a	n/a	n/a	11	15	3	3	9
1725.344	n/a	PROB	862672	n/a	LTP228	ltpFR2	16	n/a	n/a	n/a	11	16	6	6	4
1727.392	n/a	PROB	863696	n/a	LTP228	ltpFR2	16	n/a	n/a	n/a	11	14	4	1	9
1730.254	n/a	PROB	865127	n/a	LTP228	ltpFR2	16	n/a	n/a	n/a	11	14	2	4	8
1732.102	n/a	PROB	866051	n/a	LTP228	ltpFR2	16	n/a	n/a	n/a	11	12	8	3	1
1733.95	n/a	PROB	866975	n/a	LTP228	ltpFR2	16	n/a	n/a	n/a	11	15	5	7	3
1736.58	n/a	PROB	868290	n/a	LTP228	ltpFR2	16	n/a	n/a	n/a	11	13	8	3	2
1739.324	n/a	PROB	869662	n/a	LTP228	ltpFR2	16	n/a	n/a	n/a	11	25	9	8	8
1743.052	n/a	PROB	871526	n/a	LTP228	ltpFR2	16	n/a	n/a	n/a	11	18	8	3	7
1746.816	n/a	STOP	873408	n/a	LTP228	ltpFR2	16	n/a	n/a	n/a	11	n/a	n/a	n/a	n/a
1748.728	n/a	REC_START	874364	n/a	LTP228	ltpFR2	16	8	n/a	n/a	n/a	n/a	0	0	0
1749.574	n/a	REC_WORD	874787	wordpools/wasnorm_wordpool_576.txt	LTP228	ltpFR2	16	8	CHAUFFEUR	283	n/a	n/a	0	0	0
1750.67	n/a	REC_WORD	875335	wordpools/wasnorm_wordpool_576.txt	LTP228	ltpFR2	16	8	TOURIST	1488	n/a	n/a	0	0	0
1751.874	n/a	REC_WORD	875937	wordpools/wasnorm_wordpool_576.txt	LTP228	ltpFR2	16	8	GHETTO	633	n/a	n/a	0	0	0
1752.58	n/a	REC_WORD	876290	wordpools/wasnorm_wordpool_576.txt	LTP228	ltpFR2	16	8	LUGGAGE	847	n/a	n/a	0	0	0
1753.442	n/a	REC_WORD	876721	wordpools/wasnorm_wordpool_576.txt	LTP228	ltpFR2	16	8	LUMBER	848	n/a	n/a	0	0	0
1754.604	n/a	REC_WORD	877302	wordpools/wasnorm_wordpool_576.txt	LTP228	ltpFR2	16	8	BUTCHER	203	n/a	n/a	0	0	0
1755.49	n/a	REC_WORD	877745	wordpools/wasnorm_wordpool_576.txt	LTP228	ltpFR2	16	8	ATOM	55	n/a	n/a	0	0	0
1825.33	n/a	REST_REWET	912665	n/a	LTP228	ltpFR2	16	8	n/a	n/a	n/a	n/a	0	0	0
2080.19	n/a	DISTRACTOR	1040095	n/a	LTP228	ltpFR2	16	9	n/a	n/a	n/a	n/a	0	0	0
2080.19	n/a	START	1040095	n/a	LTP228	ltpFR2	16	n/a	n/a	n/a	12	n/a	n/a	n/a	n/a
2080.222	n/a	PROB	1040111	n/a	LTP228	ltpFR2	16	n/a	n/a	n/a	12	12	4	4	4
2081.688	n/a	PROB	1040844	n/a	LTP228	ltpFR2	16	n/a	n/a	n/a	12	10	3	3	4
2084.534	n/a	PROB	1042267	n/a	LTP228	ltpFR2	16	n/a	n/a	n/a	12	20	6	5	9
2087.546	n/a	PROB	1043773	n/a	LTP228	ltpFR2	16	n/a	n/a	n/a	12	20	6	5	9
2088.86	n/a	PROB	1044430	n/a	LTP228	ltpFR2	16	n/a	n/a	n/a	12	14	4	5	5
2090.808	n/a	PROB	1045404	n/a	LTP228	ltpFR2	16	n/a	n/a	n/a	12	16	8	7	1
2092.922	n/a	PROB	1046461	n/a	LTP228	ltpFR2	16	n/a	n/a	n/a	12	15	3	8	4
2095.866	n/a	PROB	1047933	n/a	LTP228	ltpFR2	16	n/a	n/a	n/a	12	19	8	9	2
2097.946	n/a	PROB	1048973	n/a	LTP228	ltpFR2	16	n/a	n/a	n/a	12	11	4	3	4
2101.108	n/a	PROB	1050554	n/a	LTP228	ltpFR2	16	n/a	n/a	n/a	12	17	1	7	9
2103.924	n/a	STOP	1051962	n/a	LTP228	ltpFR2	16	n/a	n/a	n/a	12	n/a	n/a	n/a	n/a
2105.268	n/a	WORD	1052634	wordpools/wasnorm_wordpool_576.txt	LTP228	ltpFR2	16	9	DRIVER	499	n/a	n/a	0	0	0
2107.882	n/a	WORD	1053941	wordpools/wasnorm_wordpool_576.txt	LTP228	ltpFR2	16	9	SHOULDER	1294	n/a	n/a	0	0	0
2110.628	n/a	WORD	1055314	wordpools/wasnorm_wordpool_576.txt	LTP228	ltpFR2	16	9	MOP	916	n/a	n/a	0	0	0
2113.422	n/a	WORD	1056711	wordpools/wasnorm_wordpool_576.txt	LTP228	ltpFR2	16	9	LACE	792	n/a	n/a	0	0	0
2115.97	n/a	WORD	1057985	wordpools/wasnorm_wordpool_576.txt	LTP228	ltpFR2	16	9	LION	827	n/a	n/a	0	0	0
2118.616	n/a	WORD	1059308	wordpools/wasnorm_wordpool_576.txt	LTP228	ltpFR2	16	9	JUNGLE	764	n/a	n/a	0	0	0
2121.112	n/a	WORD	1060556	wordpools/wasnorm_wordpool_576.txt	LTP228	ltpFR2	16	9	VALLEY	1545	n/a	n/a	0	0	0
2123.542	n/a	WORD	1061771	wordpools/wasnorm_wordpool_576.txt	LTP228	ltpFR2	16	9	GRAVE	658	n/a	n/a	0	0	0
2125.972	n/a	WORD	1062986	wordpools/wasnorm_wordpool_576.txt	LTP228	ltpFR2	16	9	SKIRT	1319	n/a	n/a	0	0	0
2128.702	n/a	WORD	1064351	wordpools/wasnorm_wordpool_576.txt	LTP228	ltpFR2	16	9	KNAPSACK	783	n/a	n/a	0	0	0
2131.412	n/a	WORD	1065706	wordpools/wasnorm_wordpool_576.txt	LTP228	ltpFR2	16	9	HUMAN	726	n/a	n/a	0	0	0
2133.96	n/a	WORD	1066980	wordpools/wasnorm_wordpool_576.txt	LTP228	ltpFR2	16	9	MAPLE	866	n/a	n/a	0	0	0
2136.74	n/a	WORD	1068370	wordpools/wasnorm_wordpool_576.txt	LTP228	ltpFR2	16	9	GLOVE	642	n/a	n/a	0	0	0
2139.302	n/a	WORD	1069651	wordpools/wasnorm_wordpool_576.txt	LTP228	ltpFR2	16	9	HAND	683	n/a	n/a	0	0	0
2142.13	n/a	WORD	1071065	wordpools/wasnorm_wordpool_576.txt	LTP228	ltpFR2	16	9	PARENT	1013	n/a	n/a	0	0	0
2144.928	n/a	WORD	1072464	wordpools/wasnorm_wordpool_576.txt	LTP228	ltpFR2	16	9	SUPPER	1411	n/a	n/a	0	0	0
2147.674	n/a	WORD	1073837	wordpools/wasnorm_wordpool_576.txt	LTP228	ltpFR2	16	9	WRIST	1626	n/a	n/a	0	0	0
2150.218	n/a	WORD	1075109	wordpools/wasnorm_wordpool_576.txt	LTP228	ltpFR2	16	9	ANKLE	24	n/a	n/a	0	0	0
2152.85	n/a	WORD	1076425	wordpools/wasnorm_wordpool_576.txt	LTP228	ltpFR2	16	9	GROUND	666	n/a	n/a	0	0	0
2155.394	n/a	WORD	1077697	wordpools/wasnorm_wordpool_576.txt	LTP228	ltpFR2	16	9	CRAB	397	n/a	n/a	0	0	0
2158.174	n/a	WORD	1079087	wordpools/wasnorm_wordpool_576.txt	LTP228	ltpFR2	16	9	CASHIER	254	n/a	n/a	0	0	0
2160.954	n/a	WORD	1080477	wordpools/wasnorm_wordpool_576.txt	LTP228	ltpFR2	16	9	COLONEL	348	n/a	n/a	0	0	0
2163.566	n/a	WORD	1081783	wordpools/wasnorm_wordpool_576.txt	LTP228	ltpFR2	16	9	NIGHTGOWN	953	n/a	n/a	0	0	0
2166.146	n/a	WORD	1083073	wordpools/wasnorm_wordpool_576.txt	LTP228	ltpFR2	16	9	TRUCK	1512	n/a	n/a	0	0	0
2167.76	n/a	START	1083880	n/a	LTP228	ltpFR2	16	n/a	n/a	n/a	13	n/a	n/a	n/a	n/a
2168.804	n/a	DISTRACTOR	1084402	n/a	LTP228	ltpFR2	16	9	n/a	n/a	n/a	n/a	0	0	0
2168.81	n/a	PROB	1084405	n/a	LTP228	ltpFR2	16	n/a	n/a	n/a	13	15	7	3	5
2170.306	n/a	PROB	1085153	n/a	LTP228	ltpFR2	16	n/a	n/a	n/a	13	8	3	2	3
2172.07	n/a	PROB	1086035	n/a	LTP228	ltpFR2	16	n/a	n/a	n/a	13	10	4	2	4
2173.984	n/a	PROB	1086992	n/a	LTP228	ltpFR2	16	n/a	n/a	n/a	13	18	6	3	9
2177.262	n/a	PROB	1088631	n/a	LTP228	ltpFR2	16	n/a	n/a	n/a	13	16	6	5	5
2178.712	n/a	PROB	1089356	n/a	LTP228	ltpFR2	16	n/a	n/a	n/a	13	9	2	2	5
2180.242	n/a	PROB	1090121	n/a	LTP228	ltpFR2	16	n/a	n/a	n/a	13	12	4	7	1
2182.288	n/a	PROB	1091144	n/a	LTP228	ltpFR2	16	n/a	n/a	n/a	13	9	6	1	2
2183.92	n/a	PROB	1091960	n/a	LTP228	ltpFR2	16	n/a	n/a	n/a	13	12	7	3	2
2186.682	n/a	PROB	1093341	n/a	LTP228	ltpFR2	16	n/a	n/a	n/a	13	17	7	4	6
2188.53	n/a	PROB	1094265	n/a	LTP228	ltpFR2	16	n/a	n/a	n/a	13	23	8	6	9
2191.164	n/a	STOP	1095582	n/a	LTP228	ltpFR2	16	n/a	n/a	n/a	13	n/a	n/a	n/a	n/a
2193.674	n/a	REC_START	1096837	n/a	LTP228	ltpFR2	16	9	n/a	n/a	n/a	n/a	0	0	0
2194.574	n/a	REC_WORD	1097287	wordpools/wasnorm_wordpool_576.txt	LTP228	ltpFR2	16	9	MOP	916	n/a	n/a	0	0	0
2195.404	n/a	REC_WORD	1097702	wordpools/wasnorm_wordpool_576.txt	LTP228	ltpFR2	16	9	LACE	792	n/a	n/a	0	0	0
2196.164	n/a	REC_WORD	1098082	wordpools/wasnorm_wordpool_576.txt	LTP228	ltpFR2	16	9	SKIRT	1319	n/a	n/a	0	0	0
2197.246	n/a	REC_WORD	1098623	wordpools/wasnorm_wordpool_576.txt	LTP228	ltpFR2	16	9	DRIVER	499	n/a	n/a	0	0	0
2198.156	n/a	REC_WORD	1099078	wordpools/wasnorm_wordpool_576.txt	LTP228	ltpFR2	16	9	HUMAN	726	n/a	n/a	0	0	0
2199.538	n/a	REC_WORD	1099769	wordpools/wasnorm_wordpool_576.txt	LTP228	ltpFR2	16	9	HAND	683	n/a	n/a	0	0	0
2200.538	n/a	REC_WORD	1100269	wordpools/wasnorm_wordpool_576.txt	LTP228	ltpFR2	16	9	GLOVE	642	n/a	n/a	0	0	0
2201.546	n/a	REC_WORD	1100773	wordpools/wasnorm_wordpool_576.txt	LTP228	ltpFR2	16	9	PARENT	1013	n/a	n/a	0	0	0
2284.372	n/a	WORD	1142186	wordpools/wasnorm_wordpool_576.txt	LTP228	ltpFR2	16	10	DONKEY	484	n/a	n/a	0	0	0
2287.184	n/a	WORD	1143592	wordpools/wasnorm_wordpool_576.txt	LTP228	ltpFR2	16	10	SWAMP	1416	n/a	n/a	0	0	0
2289.932	n/a	WORD	1144966	wordpools/wasnorm_wordpool_576.txt	LTP228	ltpFR2	16	10	MARROW	872	n/a	n/a	0	0	0
2292.578	n/a	WORD	1146289	wordpools/wasnorm_wordpool_576.txt	LTP228	ltpFR2	16	10	PALACE	1006	n/a	n/a	0	0	0
2295.106	n/a	WORD	1147553	wordpools/wasnorm_wordpool_576.txt	LTP228	ltpFR2	16	10	MAILMAN	858	n/a	n/a	0	0	0
2297.868	n/a	WORD	1148934	wordpools/wasnorm_wordpool_576.txt	LTP228	ltpFR2	16	10	MARS	873	n/a	n/a	0	0	0
2300.564	n/a	WORD	1150282	wordpools/wasnorm_wordpool_576.txt	LTP228	ltpFR2	16	10	OFFICE	972	n/a	n/a	0	0	0
2303.226	n/a	WORD	1151613	wordpools/wasnorm_wordpool_576.txt	LTP228	ltpFR2	16	10	TYPIST	1532	n/a	n/a	0	0	0
2305.708	n/a	WORD	1152854	wordpools/wasnorm_wordpool_576.txt	LTP228	ltpFR2	16	10	STAMP	1370	n/a	n/a	0	0	0
2308.436	n/a	WORD	1154218	wordpools/wasnorm_wordpool_576.txt	LTP228	ltpFR2	16	10	SCALLOP	1242	n/a	n/a	0	0	0
2311.214	n/a	WORD	1155607	wordpools/wasnorm_wordpool_576.txt	LTP228	ltpFR2	16	10	APPLE	33	n/a	n/a	0	0	0
2313.978	n/a	WORD	1156989	wordpools/wasnorm_wordpool_576.txt	LTP228	ltpFR2	16	10	RABBIT	1152	n/a	n/a	0	0	0
2316.708	n/a	WORD	1158354	wordpools/wasnorm_wordpool_576.txt	LTP228	ltpFR2	16	10	BUGGY	188	n/a	n/a	0	0	0
2319.386	n/a	WORD	1159693	wordpools/wasnorm_wordpool_576.txt	LTP228	ltpFR2	16	10	STAR	1373	n/a	n/a	0	0	0
2322.066	n/a	WORD	1161033	wordpools/wasnorm_wordpool_576.txt	LTP228	ltpFR2	16	10	PIMPLE	1071	n/a	n/a	0	0	0
2324.63	n/a	WORD	1162315	wordpools/wasnorm_wordpool_576.txt	LTP228	ltpFR2	16	10	FRECKLE	602	n/a	n/a	0	0	0
2327.274	n/a	WORD	1163637	wordpools/wasnorm_wordpool_576.txt	LTP228	ltpFR2	16	10	BEAVER	109	n/a	n/a	0	0	0
2329.954	n/a	WORD	1164977	wordpools/wasnorm_wordpool_576.txt	LTP228	ltpFR2	16	10	PUDDLE	1140	n/a	n/a	0	0	0
2332.418	n/a	WORD	1166209	wordpools/wasnorm_wordpool_576.txt	LTP228	ltpFR2	16	10	FRIEND	606	n/a	n/a	0	0	0
2334.914	n/a	WORD	1167457	wordpools/wasnorm_wordpool_576.txt	LTP228	ltpFR2	16	10	COD	340	n/a	n/a	0	0	0
2337.51	n/a	WORD	1168755	wordpools/wasnorm_wordpool_576.txt	LTP228	ltpFR2	16	10	GREASE	660	n/a	n/a	0	0	0
2340.222	n/a	WORD	1170111	wordpools/wasnorm_wordpool_576.txt	LTP228	ltpFR2	16	10	FOOTBALL	591	n/a	n/a	0	0	0
2342.952	n/a	WORD	1171476	wordpools/wasnorm_wordpool_576.txt	LTP228	ltpFR2	16	10	IDOL	733	n/a	n/a	0	0	0
2345.748	n/a	WORD	1172874	wordpools/wasnorm_wordpool_576.txt	LTP228	ltpFR2	16	10	WAGON	1578	n/a	n/a	0	0	0
2347.362	n/a	START	1173681	n/a	LTP228	ltpFR2	16	n/a	n/a	n/a	14	n/a	n/a	n/a	n/a
2348.254	n/a	DISTRACTOR	1174127	n/a	LTP228	ltpFR2	16	10	n/a	n/a	n/a	n/a	0	0	0
2348.26	n/a	PROB	1174130	n/a	LTP228	ltpFR2	16	n/a	n/a	n/a	14	13	9	2	2
2350.008	n/a	PROB	1175004	n/a	LTP228	ltpFR2	16	n/a	n/a	n/a	14	20	8	5	7
2353.786	n/a	PROB	1176893	n/a	LTP228	ltpFR2	16	n/a	n/a	n/a	14	10	1	1	8
2355.234	n/a	PROB	1177617	n/a	LTP228	ltpFR2	16	n/a	n/a	n/a	14	13	7	1	5
2359.112	n/a	PROB	1179556	n/a	LTP228	ltpFR2	16	n/a	n/a	n/a	14	22	8	8	6
2371.362	n/a	STOP	1185681	n/a	LTP228	ltpFR2	16	n/a	n/a	n/a	14	n/a	n/a	n/a	n/a
2373.29	n/a	REC_START	1186645	n/a	LTP228	ltpFR2	16	10	n/a	n/a	n/a	n/a	0	0	0
2374.906	n/a	REC_WORD	1187453	wordpools/wasnorm_wordpool_576.txt	LTP228	ltpFR2	16	10	MAILMAN	858	n/a	n/a	0	0	0
2375.598	n/a	REC_WORD	1187799	wordpools/wasnorm_wordpool_576.txt	LTP228	ltpFR2	16	10	MARS	873	n/a	n/a	0	0	0
2376.414	n/a	REC_WORD	1188207	wordpools/wasnorm_wordpool_576.txt	LTP228	ltpFR2	16	10	STAMP	1370	n/a	n/a	0	0	0
2377.236	n/a	REC_WORD	1188618	wordpools/wasnorm_wordpool_576.txt	LTP228	ltpFR2	16	10	SCALLOP	1242	n/a	n/a	0	0	0
2382.486	n/a	REC_WORD_VV	1191243	wordpools/wasnorm_wordpool_576.txt	LTP228	ltpFR2	16	10	<>	-1	n/a	n/a	0	0	0
2463.974	n/a	DISTRACTOR	1231987	n/a	LTP228	ltpFR2	16	11	n/a	n/a	n/a	n/a	0	0	0
2463.976	n/a	START	1231988	n/a	LTP228	ltpFR2	16	n/a	n/a	n/a	15	n/a	n/a	n/a	n/a
2464.008	n/a	PROB	1232004	n/a	LTP228	ltpFR2	16	n/a	n/a	n/a	15	15	7	2	6
2466.22	n/a	PROB	1233110	n/a	LTP228	ltpFR2	16	n/a	n/a	n/a	15	22	8	8	6
2468.634	n/a	PROB	1234317	n/a	LTP228	ltpFR2	16	n/a	n/a	n/a	15	17	4	7	6
2472.412	n/a	PROB	1236206	n/a	LTP228	ltpFR2	16	n/a	n/a	n/a	15	8	3	3	2
2474.226	n/a	PROB	1237113	n/a	LTP228	ltpFR2	16	n/a	n/a	n/a	15	13	3	3	7
2476.306	n/a	PROB	1238153	n/a	LTP228	ltpFR2	16	n/a	n/a	n/a	15	3	1	1	1
2477.922	n/a	PROB	1238961	n/a	LTP228	ltpFR2	16	n/a	n/a	n/a	15	17	7	2	8
2480.034	n/a	PROB	1240017	n/a	LTP228	ltpFR2	16	n/a	n/a	n/a	15	19	6	4	9
2487.976	n/a	STOP	1243988	n/a	LTP228	ltpFR2	16	n/a	n/a	n/a	15	n/a	n/a	n/a	n/a
2488.906	n/a	WORD	1244453	wordpools/wasnorm_wordpool_576.txt	LTP228	ltpFR2	16	11	JURY	766	n/a	n/a	0	0	0
2491.65	n/a	WORD	1245825	wordpools/wasnorm_wordpool_576.txt	LTP228	ltpFR2	16	11	RIFLE	1192	n/a	n/a	0	0	0
2494.346	n/a	WORD	1247173	wordpools/wasnorm_wordpool_576.txt	LTP228	ltpFR2	16	11	GARLIC	624	n/a	n/a	0	0	0
2497.14	n/a	WORD	1248570	wordpools/wasnorm_wordpool_576.txt	LTP228	ltpFR2	16	11	VICTIM	1562	n/a	n/a	0	0	0
2499.672	n/a	WORD	1249836	wordpools/wasnorm_wordpool_576.txt	LTP228	ltpFR2	16	11	STATUE	1374	n/a	n/a	0	0	0
2502.334	n/a	WORD	1251167	wordpools/wasnorm_wordpool_576.txt	LTP228	ltpFR2	16	11	ONION	977	n/a	n/a	0	0	0
2504.98	n/a	WORD	1252490	wordpools/wasnorm_wordpool_576.txt	LTP228	ltpFR2	16	11	SNAIL	1332	n/a	n/a	0	0	0
2507.56	n/a	WORD	1253780	wordpools/wasnorm_wordpool_576.txt	LTP228	ltpFR2	16	11	STALLION	1369	n/a	n/a	0	0	0
2510.022	n/a	WORD	1255011	wordpools/wasnorm_wordpool_576.txt	LTP228	ltpFR2	16	11	BUNNY	198	n/a	n/a	0	0	0
2512.552	n/a	WORD	1256276	wordpools/wasnorm_wordpool_576.txt	LTP228	ltpFR2	16	11	TURTLE	1522	n/a	n/a	0	0	0
2515.198	n/a	WORD	1257599	wordpools/wasnorm_wordpool_576.txt	LTP228	ltpFR2	16	11	PENGUIN	1044	n/a	n/a	0	0	0
2517.994	n/a	WORD	1258997	wordpools/wasnorm_wordpool_576.txt	LTP228	ltpFR2	16	11	SKETCH	1315	n/a	n/a	0	0	0
2520.424	n/a	WORD	1260212	wordpools/wasnorm_wordpool_576.txt	LTP228	ltpFR2	16	11	BURGLAR	200	n/a	n/a	0	0	0
2523.202	n/a	WORD	1261601	wordpools/wasnorm_wordpool_576.txt	LTP228	ltpFR2	16	11	SHORTCAKE	1292	n/a	n/a	0	0	0
2525.966	n/a	WORD	1262983	wordpools/wasnorm_wordpool_576.txt	LTP228	ltpFR2	16	11	PASTRY	1022	n/a	n/a	0	0	0
2528.696	n/a	WORD	1264348	wordpools/wasnorm_wordpool_576.txt	LTP228	ltpFR2	16	11	PARROT	1015	n/a	n/a	0	0	0
2531.39	n/a	WORD	1265695	wordpools/wasnorm_wordpool_576.txt	LTP228	ltpFR2	16	11	SCARECROW	1245	n/a	n/a	0	0	0
2534.204	n/a	WORD	1267102	wordpools/wasnorm_wordpool_576.txt	LTP228	ltpFR2	16	11	PIGEON	1065	n/a	n/a	0	0	0
2536.85	n/a	WORD	1268425	wordpools/wasnorm_wordpool_576.txt	LTP228	ltpFR2	16	11	ELBOW	520	n/a	n/a	0	0	0
2539.312	n/a	WORD	1269656	wordpools/wasnorm_wordpool_576.txt	LTP228	ltpFR2	16	11	FLAG	573	n/a	n/a	0	0	0
2541.792	n/a	WORD	1270896	wordpools/wasnorm_wordpool_576.txt	LTP228	ltpFR2	16	11	PATROL	1027	n/a	n/a	0	0	0
2544.338	n/a	WORD	1272169	wordpools/wasnorm_wordpool_576.txt	LTP228	ltpFR2	16	11	DRUG	501	n/a	n/a	0	0	0
2547.134	n/a	WORD	1273567	wordpools/wasnorm_wordpool_576.txt	LTP228	ltpFR2	16	11	PLAZA	1088	n/a	n/a	0	0	0
2549.93	n/a	WORD	1274965	wordpools/wasnorm_wordpool_576.txt	LTP228	ltpFR2	16	11	MARKET	871	n/a	n/a	0	0	0
2551.546	n/a	START	1275773	n/a	LTP228	ltpFR2	16	n/a	n/a	n/a	16	n/a	n/a	n/a	n/a
2552.578	n/a	DISTRACTOR	1276289	n/a	LTP228	ltpFR2	16	11	n/a	n/a	n/a	n/a	0	0	0
2552.594	n/a	PROB	1276297	n/a	LTP228	ltpFR2	16	n/a	n/a	n/a	16	14	6	2	6
2554.69	n/a	PROB	1277345	n/a	LTP228	ltpFR2	16	n/a	n/a	n/a	16	15	1	5	9
2557.22	n/a	PROB	1278610	n/a	LTP228	ltpFR2	16	n/a	n/a	n/a	16	10	5	3	2
2559.282	n/a	PROB	1279641	n/a	LTP228	ltpFR2	16	n/a	n/a	n/a	16	4	1	2	1
2560.716	n/a	PROB	1280358	n/a	LTP228	ltpFR2	16	n/a	n/a	n/a	16	13	6	4	3
2562.162	n/a	PROB	1281081	n/a	LTP228	ltpFR2	16	n/a	n/a	n/a	16	9	1	5	3
2564.776	n/a	PROB	1282388	n/a	LTP228	ltpFR2	16	n/a	n/a	n/a	16	15	3	6	6
2566.922	n/a	PROB	1283461	n/a	LTP228	ltpFR2	16	n/a	n/a	n/a	16	14	4	5	5
2568.786	n/a	PROB	1284393	n/a	LTP228	ltpFR2	16	n/a	n/a	n/a	16	15	5	4	6
2572.714	n/a	PROB	1286357	n/a	LTP228	ltpFR2	16	n/a	n/a	n/a	16	15	4	5	6
2574.5	n/a	STOP	1287250	n/a	LTP228	ltpFR2	16	n/a	n/a	n/a	16	n/a	n/a	n/a	n/a
2577.39	n/a	REC_START	1288695	n/a	LTP228	ltpFR2	16	11	n/a	n/a	n/a	n/a	0	0	0
2583.55	n/a	REC_WORD	1291775	wordpools/wasnorm_wordpool_576.txt	LTP228	ltpFR2	16	11	JURY	766	n/a	n/a	0	0	0
2586.9	n/a	REC_WORD	1293450	wordpools/wasnorm_wordpool_576.txt	LTP228	ltpFR2	16	11	PIGEON	1065	n/a	n/a	0	0	0
2668.024	n/a	DISTRACTOR	1334012	n/a	LTP228	ltpFR2	16	12	n/a	n/a	n/a	n/a	0	0	0
2668.024	n/a	START	1334012	n/a	LTP228	ltpFR2	16	n/a	n/a	n/a	17	n/a	n/a	n/a	n/a
2668.056	n/a	PROB	1334028	n/a	LTP228	ltpFR2	16	n/a	n/a	n/a	17	14	8	3	3
2669.722	n/a	PROB	1334861	n/a	LTP228	ltpFR2	16	n/a	n/a	n/a	17	13	8	1	4
2673.0	n/a	PROB	1336500	n/a	LTP228	ltpFR2	16	n/a	n/a	n/a	17	18	7	4	7
2675.296	n/a	PROB	1337648	n/a	LTP228	ltpFR2	16	n/a	n/a	n/a	17	14	5	1	8
2679.64	n/a	PROB	1339820	n/a	LTP228	ltpFR2	16	n/a	n/a	n/a	17	20	4	8	8
2686.83	n/a	PROB	1343415	n/a	LTP228	ltpFR2	16	n/a	n/a	n/a	17	13	4	2	7
2692.024	n/a	STOP	1346012	n/a	LTP228	ltpFR2	16	n/a	n/a	n/a	17	n/a	n/a	n/a	n/a
2693.234	n/a	WORD	1346617	wordpools/wasnorm_wordpool_576.txt	LTP228	ltpFR2	16	12	BOUQUET	157	n/a	n/a	0	0	0
2695.914	n/a	WORD	1347957	wordpools/wasnorm_wordpool_576.txt	LTP228	ltpFR2	16	12	YOLK	1633	n/a	n/a	0	0	0
2698.528	n/a	WORD	1349264	wordpools/wasnorm_wordpool_576.txt	LTP228	ltpFR2	16	12	NOVEL	960	n/a	n/a	0	0	0
2701.122	n/a	WORD	1350561	wordpools/wasnorm_wordpool_576.txt	LTP228	ltpFR2	16	12	HAMPER	682	n/a	n/a	0	0	0
2703.936	n/a	WORD	1351968	wordpools/wasnorm_wordpool_576.txt	LTP228	ltpFR2	16	12	TROMBONE	1508	n/a	n/a	0	0	0
2706.648	n/a	WORD	1353324	wordpools/wasnorm_wordpool_576.txt	LTP228	ltpFR2	16	12	CONTRACT	368	n/a	n/a	0	0	0
2709.162	n/a	WORD	1354581	wordpools/wasnorm_wordpool_576.txt	LTP228	ltpFR2	16	12	TOMBSTONE	1478	n/a	n/a	0	0	0
2711.874	n/a	WORD	1355937	wordpools/wasnorm_wordpool_576.txt	LTP228	ltpFR2	16	12	PIZZA	1079	n/a	n/a	0	0	0
2714.47	n/a	WORD	1357235	wordpools/wasnorm_wordpool_576.txt	LTP228	ltpFR2	16	12	DRILL	497	n/a	n/a	0	0	0
2716.95	n/a	WORD	1358475	wordpools/wasnorm_wordpool_576.txt	LTP228	ltpFR2	16	12	POISON	1096	n/a	n/a	0	0	0
2719.68	n/a	WORD	1359840	wordpools/wasnorm_wordpool_576.txt	LTP228	ltpFR2	16	12	HARP	689	n/a	n/a	0	0	0
2722.242	n/a	WORD	1361121	wordpools/wasnorm_wordpool_576.txt	LTP228	ltpFR2	16	12	BUG	187	n/a	n/a	0	0	0
2725.022	n/a	WORD	1362511	wordpools/wasnorm_wordpool_576.txt	LTP228	ltpFR2	16	12	COCOON	339	n/a	n/a	0	0	0
2727.652	n/a	WORD	1363826	wordpools/wasnorm_wordpool_576.txt	LTP228	ltpFR2	16	12	WRENCH	1625	n/a	n/a	0	0	0
2730.33	n/a	WORD	1365165	wordpools/wasnorm_wordpool_576.txt	LTP228	ltpFR2	16	12	BROOK	177	n/a	n/a	0	0	0
2733.126	n/a	WORD	1366563	wordpools/wasnorm_wordpool_576.txt	LTP228	ltpFR2	16	12	SLUG	1329	n/a	n/a	0	0	0
2735.672	n/a	WORD	1367836	wordpools/wasnorm_wordpool_576.txt	LTP228	ltpFR2	16	12	NEUTRON	947	n/a	n/a	0	0	0
2738.218	n/a	WORD	1369109	wordpools/wasnorm_wordpool_576.txt	LTP228	ltpFR2	16	12	SALT	1229	n/a	n/a	0	0	0
2740.916	n/a	WORD	1370458	wordpools/wasnorm_wordpool_576.txt	LTP228	ltpFR2	16	12	FRAME	600	n/a	n/a	0	0	0
2743.46	n/a	WORD	1371730	wordpools/wasnorm_wordpool_576.txt	LTP228	ltpFR2	16	12	SWIMMER	1420	n/a	n/a	0	0	0
2746.19	n/a	WORD	1373095	wordpools/wasnorm_wordpool_576.txt	LTP228	ltpFR2	16	12	RIVER	1194	n/a	n/a	0	0	0
2748.92	n/a	WORD	1374460	wordpools/wasnorm_wordpool_576.txt	LTP228	ltpFR2	16	12	CITRUS	313	n/a	n/a	0	0	0
2751.348	n/a	WORD	1375674	wordpools/wasnorm_wordpool_576.txt	LTP228	ltpFR2	16	12	GRAPE	654	n/a	n/a	0	0	0
2753.796	n/a	WORD	1376898	wordpools/wasnorm_wordpool_576.txt	LTP228	ltpFR2	16	12	CHIPMUNK	304	n/a	n/a	0	0	0
2755.41	n/a	START	1377705	n/a	LTP228	ltpFR2	16	n/a	n/a	n/a	18	n/a	n/a	n/a	n/a
2756.562	n/a	DISTRACTOR	1378281	n/a	LTP228	ltpFR2	16	12	n/a	n/a	n/a	n/a	0	0	0
2756.576	n/a	PROB	1378288	n/a	LTP228	ltpFR2	16	n/a	n/a	n/a	18	15	3	7	5
2757.756	n/a	PROB	1378878	n/a	LTP228	ltpFR2	16	n/a	n/a	n/a	18	10	2	6	2
2759.404	n/a	PROB	1379702	n/a	LTP228	ltpFR2	16	n/a	n/a	n/a	18	9	5	3	1
2761.268	n/a	PROB	1380634	n/a	LTP228	ltpFR2	16	n/a	n/a	n/a	18	14	2	9	3
2764.264	n/a	PROB	1382132	n/a	LTP228	ltpFR2	16	n/a	n/a	n/a	18	9	3	4	2
2768.158	n/a	PROB	1384079	n/a	LTP228	ltpFR2	16	n/a	n/a	n/a	18	25	8	9	8
2771.136	n/a	PROB	1385568	n/a	LTP228	ltpFR2	16	n/a	n/a	n/a	18	15	5	9	1
2772.902	n/a	PROB	1386451	n/a	LTP228	ltpFR2	16	n/a	n/a	n/a	18	16	9	5	2
2775.246	n/a	PROB	1387623	n/a	LTP228	ltpFR2	16	n/a	n/a	n/a	18	10	2	7	1
2778.016	n/a	STOP	1389008	n/a	LTP228	ltpFR2	16	n/a	n/a	n/a	18	n/a	n/a	n/a	n/a
2781.272	n/a	REC_START	1390636	n/a	LTP228	ltpFR2	16	12	n/a	n/a	n/a	n/a	0	0	0
2784.344	n/a	REC_WORD	1392172	wordpools/wasnorm_wordpool_576.txt	LTP228	ltpFR2	16	12	NEUTRON	947	n/a	n/a	0	0	0
2871.988	n/a	DISTRACTOR	1435994	n/a	LTP228	ltpFR2	16	13	n/a	n/a	n/a	n/a	0	0	0
2871.988	n/a	START	1435994	n/a	LTP228	ltpFR2	16	n/a	n/a	n/a	19	n/a	n/a	n/a	n/a
2872.022	n/a	PROB	1436011	n/a	LTP228	ltpFR2	16	n/a	n/a	n/a	19	22	5	9	8
2875.018	n/a	PROB	1437509	n/a	LTP228	ltpFR2	16	n/a	n/a	n/a	19	17	8	8	1
2876.782	n/a	PROB	1438391	n/a	LTP228	ltpFR2	16	n/a	n/a	n/a	19	12	2	2	8
2879.094	n/a	PROB	1439547	n/a	LTP228	ltpFR2	16	n/a	n/a	n/a	19	16	7	2	7
2881.258	n/a	PROB	1440629	n/a	LTP228	ltpFR2	16	n/a	n/a	n/a	19	17	5	4	8
2883.42	n/a	PROB	1441710	n/a	LTP228	ltpFR2	16	n/a	n/a	n/a	19	17	2	7	8
2885.568	n/a	PROB	1442784	n/a	LTP228	ltpFR2	16	n/a	n/a	n/a	19	18	8	1	9
2890.062	n/a	PROB	1445031	n/a	LTP228	ltpFR2	16	n/a	n/a	n/a	19	9	5	1	3
2895.988	n/a	STOP	1447994	n/a	LTP228	ltpFR2	16	n/a	n/a	n/a	19	n/a	n/a	n/a	n/a
2897.132	n/a	WORD	1448566	wordpools/wasnorm_wordpool_576.txt	LTP228	ltpFR2	16	13	CLAM	315	n/a	n/a	0	0	0
2899.614	n/a	WORD	1449807	wordpools/wasnorm_wordpool_576.txt	LTP228	ltpFR2	16	13	FEMALE	559	n/a	n/a	0	0	0
2902.208	n/a	WORD	1451104	wordpools/wasnorm_wordpool_576.txt	LTP228	ltpFR2	16	13	RAFT	1159	n/a	n/a	0	0	0
2904.64	n/a	WORD	1452320	wordpools/wasnorm_wordpool_576.txt	LTP228	ltpFR2	16	13	DIVER	476	n/a	n/a	0	0	0
2907.134	n/a	WORD	1453567	wordpools/wasnorm_wordpool_576.txt	LTP228	ltpFR2	16	13	DASHBOARD	441	n/a	n/a	0	0	0
2909.682	n/a	WORD	1454841	wordpools/wasnorm_wordpool_576.txt	LTP228	ltpFR2	16	13	THIEF	1456	n/a	n/a	0	0	0
2912.378	n/a	WORD	1456189	wordpools/wasnorm_wordpool_576.txt	LTP228	ltpFR2	16	13	SMOG	1330	n/a	n/a	0	0	0
2915.124	n/a	WORD	1457562	wordpools/wasnorm_wordpool_576.txt	LTP228	ltpFR2	16	13	NAPKIN	937	n/a	n/a	0	0	0
2917.736	n/a	WORD	1458868	wordpools/wasnorm_wordpool_576.txt	LTP228	ltpFR2	16	13	LADDER	793	n/a	n/a	0	0	0
2920.166	n/a	WORD	1460083	wordpools/wasnorm_wordpool_576.txt	LTP228	ltpFR2	16	13	RUG	1215	n/a	n/a	0	0	0
2922.646	n/a	WORD	1461323	wordpools/wasnorm_wordpool_576.txt	LTP228	ltpFR2	16	13	PLASTER	1085	n/a	n/a	0	0	0
2925.358	n/a	WORD	1462679	wordpools/wasnorm_wordpool_576.txt	LTP228	ltpFR2	16	13	COTTAGE	384	n/a	n/a	0	0	0
2928.072	n/a	WORD	1464036	wordpools/wasnorm_wordpool_576.txt	LTP228	ltpFR2	16	13	BREAST	171	n/a	n/a	0	0	0
2930.884	n/a	WORD	1465442	wordpools/wasnorm_wordpool_576.txt	LTP228	ltpFR2	16	13	OUTLAW	989	n/a	n/a	0	0	0
2933.362	n/a	WORD	1466681	wordpools/wasnorm_wordpool_576.txt	LTP228	ltpFR2	16	13	SHARK	1275	n/a	n/a	0	0	0
2935.826	n/a	WORD	1467913	wordpools/wasnorm_wordpool_576.txt	LTP228	ltpFR2	16	13	BADGE	68	n/a	n/a	0	0	0
2938.54	n/a	WORD	1469270	wordpools/wasnorm_wordpool_576.txt	LTP228	ltpFR2	16	13	FINGER	567	n/a	n/a	0	0	0
2941.218	n/a	WORD	1470609	wordpools/wasnorm_wordpool_576.txt	LTP228	ltpFR2	16	13	GOBLIN	645	n/a	n/a	0	0	0
2943.916	n/a	WORD	1471958	wordpools/wasnorm_wordpool_576.txt	LTP228	ltpFR2	16	13	CARRIAGE	248	n/a	n/a	0	0	0
2946.628	n/a	WORD	1473314	wordpools/wasnorm_wordpool_576.txt	LTP228	ltpFR2	16	13	WAITRESS	1581	n/a	n/a	0	0	0
2949.272	n/a	WORD	1474636	wordpools/wasnorm_wordpool_576.txt	LTP228	ltpFR2	16	13	GAZELLE	628	n/a	n/a	0	0	0
2951.77	n/a	WORD	1475885	wordpools/wasnorm_wordpool_576.txt	LTP228	ltpFR2	16	13	POSSUM	1112	n/a	n/a	0	0	0
2954.55	n/a	WORD	1477275	wordpools/wasnorm_wordpool_576.txt	LTP228	ltpFR2	16	13	DANDRUFF	439	n/a	n/a	0	0	0
2957.228	n/a	WORD	1478614	wordpools/wasnorm_wordpool_576.txt	LTP228	ltpFR2	16	13	INFANT	737	n/a	n/a	0	0	0
2958.844	n/a	START	1479422	n/a	LTP228	ltpFR2	16	n/a	n/a	n/a	20	n/a	n/a	n/a	n/a
2959.644	n/a	DISTRACTOR	1479822	n/a	LTP228	ltpFR2	16	13	n/a	n/a	n/a	n/a	0	0	0
2959.658	n/a	PROB	1479829	n/a	LTP228	ltpFR2	16	n/a	n/a	n/a	20	19	8	6	5
2963.186	n/a	PROB	1481593	n/a	LTP228	ltpFR2	16	n/a	n/a	n/a	20	4	2	1	1
2965.266	n/a	PROB	1482633	n/a	LTP228	ltpFR2	16	n/a	n/a	n/a	20	19	8	2	9
2966.932	n/a	PROB	1483466	n/a	LTP228	ltpFR2	16	n/a	n/a	n/a	20	11	6	3	2
2972.206	n/a	PROB	1486103	n/a	LTP228	ltpFR2	16	n/a	n/a	n/a	20	14	1	8	5
2974.736	n/a	PROB	1487368	n/a	LTP228	ltpFR2	16	n/a	n/a	n/a	20	16	3	8	5
2977.298	n/a	PROB	1488649	n/a	LTP228	ltpFR2	16	n/a	n/a	n/a	20	17	8	4	5
2980.046	n/a	PROB	1490023	n/a	LTP228	ltpFR2	16	n/a	n/a	n/a	20	17	7	3	7
2982.562	n/a	STOP	1491281	n/a	LTP228	ltpFR2	16	n/a	n/a	n/a	20	n/a	n/a	n/a	n/a
2984.622	n/a	REC_START	1492311	n/a	LTP228	ltpFR2	16	13	n/a	n/a	n/a	n/a	0	0	0
2987.018	n/a	REC_WORD	1493509	wordpools/wasnorm_wordpool_576.txt	LTP228	ltpFR2	16	13	CLAM	315	n/a	n/a	0	0	0
2988.116	n/a	REC_WORD	1494058	wordpools/wasnorm_wordpool_576.txt	LTP228	ltpFR2	16	13	DANDRUFF	439	n/a	n/a	0	0	0
3007.806	n/a	REC_WORD	1503903	wordpools/wasnorm_wordpool_576.txt	LTP228	ltpFR2	16	13	FEMALE	559	n/a	n/a	0	0	0
3008.88	n/a	REC_WORD	1504440	wordpools/wasnorm_wordpool_576.txt	LTP228	ltpFR2	16	13	RAFT	1159	n/a	n/a	0	0	0
3009.844	n/a	REC_WORD	1504922	wordpools/wasnorm_wordpool_576.txt	LTP228	ltpFR2	16	13	SMOG	1330	n/a	n/a	0	0	0
3075.304	n/a	DISTRACTOR	1537652	n/a	LTP228	ltpFR2	16	14	n/a	n/a	n/a	n/a	0	0	0
3075.304	n/a	START	1537652	n/a	LTP228	ltpFR2	16	n/a	n/a	n/a	21	n/a	n/a	n/a	n/a
3075.336	n/a	PROB	1537668	n/a	LTP228	ltpFR2	16	n/a	n/a	n/a	21	11	3	6	2
3076.986	n/a	PROB	1538493	n/a	LTP228	ltpFR2	16	n/a	n/a	n/a	21	14	8	1	5
3078.966	n/a	PROB	1539483	n/a	LTP228	ltpFR2	16	n/a	n/a	n/a	21	11	2	2	7
3080.864	n/a	PROB	1540432	n/a	LTP228	ltpFR2	16	n/a	n/a	n/a	21	11	4	4	3
3084.29	n/a	PROB	1542145	n/a	LTP228	ltpFR2	16	n/a	n/a	n/a	21	9	6	1	2
3086.32	n/a	PROB	1543160	n/a	LTP228	ltpFR2	16	n/a	n/a	n/a	21	7	4	1	2
3088.586	n/a	PROB	1544293	n/a	LTP228	ltpFR2	16	n/a	n/a	n/a	21	12	4	7	1
3090.848	n/a	PROB	1545424	n/a	LTP228	ltpFR2	16	n/a	n/a	n/a	21	11	4	2	5
3093.91	n/a	PROB	1546955	n/a	LTP228	ltpFR2	16	n/a	n/a	n/a	21	23	6	9	8
3097.868	n/a	STOP	1548934	n/a	LTP228	ltpFR2	16	n/a	n/a	n/a	21	n/a	n/a	n/a	n/a
3100.232	n/a	WORD	1550116	wordpools/wasnorm_wordpool_576.txt	LTP228	ltpFR2	16	14	HIKER	708	n/a	n/a	0	0	0
3103.046	n/a	WORD	1551523	wordpools/wasnorm_wordpool_576.txt	LTP228	ltpFR2	16	14	PERFUME	1049	n/a	n/a	0	0	0
3105.808	n/a	WORD	1552904	wordpools/wasnorm_wordpool_576.txt	LTP228	ltpFR2	16	14	DRINK	498	n/a	n/a	0	0	0
3108.32	n/a	WORD	1554160	wordpools/wasnorm_wordpool_576.txt	LTP228	ltpFR2	16	14	DUSTPAN	509	n/a	n/a	0	0	0
3110.752	n/a	WORD	1555376	wordpools/wasnorm_wordpool_576.txt	LTP228	ltpFR2	16	14	DUST	508	n/a	n/a	0	0	0
3113.43	n/a	WORD	1556715	wordpools/wasnorm_wordpool_576.txt	LTP228	ltpFR2	16	14	GALLON	618	n/a	n/a	0	0	0
3115.928	n/a	WORD	1557964	wordpools/wasnorm_wordpool_576.txt	LTP228	ltpFR2	16	14	FLASK	576	n/a	n/a	0	0	0
3118.74	n/a	WORD	1559370	wordpools/wasnorm_wordpool_576.txt	LTP228	ltpFR2	16	14	CAPTIVE	240	n/a	n/a	0	0	0
3121.384	n/a	WORD	1560692	wordpools/wasnorm_wordpool_576.txt	LTP228	ltpFR2	16	14	DRAGON	492	n/a	n/a	0	0	0
3124.016	n/a	WORD	1562008	wordpools/wasnorm_wordpool_576.txt	LTP228	ltpFR2	16	14	QUEEN	1149	n/a	n/a	0	0	0
3126.644	n/a	WORD	1563322	wordpools/wasnorm_wordpool_576.txt	LTP228	ltpFR2	16	14	CHAMPAGNE	278	n/a	n/a	0	0	0
3129.174	n/a	WORD	1564587	wordpools/wasnorm_wordpool_576.txt	LTP228	ltpFR2	16	14	PRINCESS	1125	n/a	n/a	0	0	0
3131.62	n/a	WORD	1565810	wordpools/wasnorm_wordpool_576.txt	LTP228	ltpFR2	16	14	HEART	697	n/a	n/a	0	0	0
3134.2	n/a	WORD	1567100	wordpools/wasnorm_wordpool_576.txt	LTP228	ltpFR2	16	14	LUNCH	849	n/a	n/a	0	0	0
3136.864	n/a	WORD	1568432	wordpools/wasnorm_wordpool_576.txt	LTP228	ltpFR2	16	14	BLENDER	136	n/a	n/a	0	0	0
3139.592	n/a	WORD	1569796	wordpools/wasnorm_wordpool_576.txt	LTP228	ltpFR2	16	14	FUNGUS	614	n/a	n/a	0	0	0
3142.27	n/a	WORD	1571135	wordpools/wasnorm_wordpool_576.txt	LTP228	ltpFR2	16	14	CROWN	415	n/a	n/a	0	0	0
3144.884	n/a	WORD	1572442	wordpools/wasnorm_wordpool_576.txt	LTP228	ltpFR2	16	14	HANDBAG	684	n/a	n/a	0	0	0
3147.464	n/a	WORD	1573732	wordpools/wasnorm_wordpool_576.txt	LTP228	ltpFR2	16	14	SOFTBALL	1343	n/a	n/a	0	0	0
3150.076	n/a	WORD	1575038	wordpools/wasnorm_wordpool_576.txt	LTP228	ltpFR2	16	14	UMPIRE	1535	n/a	n/a	0	0	0
3152.54	n/a	WORD	1576270	wordpools/wasnorm_wordpool_576.txt	LTP228	ltpFR2	16	14	SPOON	1357	n/a	n/a	0	0	0
3155.184	n/a	WORD	1577592	wordpools/wasnorm_wordpool_576.txt	LTP228	ltpFR2	16	14	FLOWER	584	n/a	n/a	0	0	0
3157.916	n/a	WORD	1578958	wordpools/wasnorm_wordpool_576.txt	LTP228	ltpFR2	16	14	SPACE	1345	n/a	n/a	0	0	0
3160.644	n/a	WORD	1580322	wordpools/wasnorm_wordpool_576.txt	LTP228	ltpFR2	16	14	OUTDOORS	987	n/a	n/a	0	0	0
3162.258	n/a	START	1581129	n/a	LTP228	ltpFR2	16	n/a	n/a	n/a	22	n/a	n/a	n/a	n/a
3163.146	n/a	DISTRACTOR	1581573	n/a	LTP228	ltpFR2	16	14	n/a	n/a	n/a	n/a	0	0	0
3163.156	n/a	PROB	1581578	n/a	LTP228	ltpFR2	16	n/a	n/a	n/a	22	24	8	9	7
3165.936	n/a	PROB	1582968	n/a	LTP228	ltpFR2	16	n/a	n/a	n/a	22	13	1	3	9
3168.316	n/a	PROB	1584158	n/a	LTP228	ltpFR2	16	n/a	n/a	n/a	22	16	1	7	8
3170.862	n/a	PROB	1585431	n/a	LTP228	ltpFR2	16	n/a	n/a	n/a	22	12	6	4	2
3172.36	n/a	PROB	1586180	n/a	LTP228	ltpFR2	16	n/a	n/a	n/a	22	18	5	9	4
3175.306	n/a	PROB	1587653	n/a	LTP228	ltpFR2	16	n/a	n/a	n/a	22	15	1	5	9
3177.57	n/a	PROB	1588785	n/a	LTP228	ltpFR2	16	n/a	n/a	n/a	22	7	2	1	4
3179.95	n/a	PROB	1589975	n/a	LTP228	ltpFR2	16	n/a	n/a	n/a	22	5	2	1	2
3182.444	n/a	PROB	1591222	n/a	LTP228	ltpFR2	16	n/a	n/a	n/a	22	6	3	2	1
3186.258	n/a	STOP	1593129	n/a	LTP228	ltpFR2	16	n/a	n/a	n/a	22	n/a	n/a	n/a	n/a
3188.186	n/a	REC_START	1594093	n/a	LTP228	ltpFR2	16	14	n/a	n/a	n/a	n/a	0	0	0
3190.3	n/a	REC_WORD	1595150	wordpools/wasnorm_wordpool_576.txt	LTP228	ltpFR2	16	14	DRAGON	492	n/a	n/a	0	0	0
3191.094	n/a	REC_WORD	1595547	wordpools/wasnorm_wordpool_576.txt	LTP228	ltpFR2	16	14	QUEEN	1149	n/a	n/a	0	0	0
3191.968	n/a	REC_WORD	1595984	wordpools/wasnorm_wordpool_576.txt	LTP228	ltpFR2	16	14	HIKER	708	n/a	n/a	0	0	0
3192.91	n/a	REC_WORD	1596455	wordpools/wasnorm_wordpool_576.txt	LTP228	ltpFR2	16	14	FLOWER	584	n/a	n/a	0	0	0
3278.838	n/a	WORD	1639419	wordpools/wasnorm_wordpool_576.txt	LTP228	ltpFR2	16	15	LASER	801	n/a	n/a	0	0	0
3281.482	n/a	WORD	1640741	wordpools/wasnorm_wordpool_576.txt	LTP228	ltpFR2	16	15	SWITCH	1422	n/a	n/a	0	0	0
3283.98	n/a	WORD	1641990	wordpools/wasnorm_wordpool_576.txt	LTP228	ltpFR2	16	15	INMATE	738	n/a	n/a	0	0	0
3286.66	n/a	WORD	1643330	wordpools/wasnorm_wordpool_576.txt	LTP228	ltpFR2	16	15	GLOBE	641	n/a	n/a	0	0	0
3289.236	n/a	WORD	1644618	wordpools/wasnorm_wordpool_576.txt	LTP228	ltpFR2	16	15	ANTLER	29	n/a	n/a	0	0	0
3291.784	n/a	WORD	1645892	wordpools/wasnorm_wordpool_576.txt	LTP228	ltpFR2	16	15	OX	994	n/a	n/a	0	0	0
3294.546	n/a	WORD	1647273	wordpools/wasnorm_wordpool_576.txt	LTP228	ltpFR2	16	15	MUSTARD	935	n/a	n/a	0	0	0
3297.242	n/a	WORD	1648621	wordpools/wasnorm_wordpool_576.txt	LTP228	ltpFR2	16	15	OYSTER	995	n/a	n/a	0	0	0
3299.788	n/a	WORD	1649894	wordpools/wasnorm_wordpool_576.txt	LTP228	ltpFR2	16	15	TEACHER	1440	n/a	n/a	0	0	0
3302.552	n/a	WORD	1651276	wordpools/wasnorm_wordpool_576.txt	LTP228	ltpFR2	16	15	SERVANT	1271	n/a	n/a	0	0	0
3304.982	n/a	WORD	1652491	wordpools/wasnorm_wordpool_576.txt	LTP228	ltpFR2	16	15	MOTOR	922	n/a	n/a	0	0	0
3307.71	n/a	WORD	1653855	wordpools/wasnorm_wordpool_576.txt	LTP228	ltpFR2	16	15	TROUT	1511	n/a	n/a	0	0	0
3310.256	n/a	WORD	1655128	wordpools/wasnorm_wordpool_576.txt	LTP228	ltpFR2	16	15	HOOK	715	n/a	n/a	0	0	0
3312.686	n/a	WORD	1656343	wordpools/wasnorm_wordpool_576.txt	LTP228	ltpFR2	16	15	BLACKBOARD	133	n/a	n/a	0	0	0
3315.366	n/a	WORD	1657683	wordpools/wasnorm_wordpool_576.txt	LTP228	ltpFR2	16	15	PADDLE	1000	n/a	n/a	0	0	0
3318.062	n/a	WORD	1659031	wordpools/wasnorm_wordpool_576.txt	LTP228	ltpFR2	16	15	WORLD	1622	n/a	n/a	0	0	0
3320.724	n/a	WORD	1660362	wordpools/wasnorm_wordpool_576.txt	LTP228	ltpFR2	16	15	POSTAGE	1113	n/a	n/a	0	0	0
3323.286	n/a	WORD	1661643	wordpools/wasnorm_wordpool_576.txt	LTP228	ltpFR2	16	15	DINER	467	n/a	n/a	0	0	0
3325.75	n/a	WORD	1662875	wordpools/wasnorm_wordpool_576.txt	LTP228	ltpFR2	16	15	BACON	67	n/a	n/a	0	0	0
3328.18	n/a	WORD	1664090	wordpools/wasnorm_wordpool_576.txt	LTP228	ltpFR2	16	15	GYMNAST	675	n/a	n/a	0	0	0
3330.876	n/a	WORD	1665438	wordpools/wasnorm_wordpool_576.txt	LTP228	ltpFR2	16	15	JUDGE	761	n/a	n/a	0	0	0
3333.59	n/a	WORD	1666795	wordpools/wasnorm_wordpool_576.txt	LTP228	ltpFR2	16	15	SERVER	1272	n/a	n/a	0	0	0
3336.102	n/a	WORD	1668051	wordpools/wasnorm_wordpool_576.txt	LTP228	ltpFR2	16	15	BOARD	143	n/a	n/a	0	0	0
3338.648	n/a	WORD	1669324	wordpools/wasnorm_wordpool_576.txt	LTP228	ltpFR2	16	15	TERMITE	1451	n/a	n/a	0	0	0
3340.262	n/a	START	1670131	n/a	LTP228	ltpFR2	16	n/a	n/a	n/a	23	n/a	n/a	n/a	n/a
3341.37	n/a	DISTRACTOR	1670685	n/a	LTP228	ltpFR2	16	15	n/a	n/a	n/a	n/a	0	0	0
3341.376	n/a	PROB	1670688	n/a	LTP228	ltpFR2	16	n/a	n/a	n/a	23	14	2	6	6
3343.408	n/a	PROB	1671704	n/a	LTP228	ltpFR2	16	n/a	n/a	n/a	23	20	3	8	9
3346.07	n/a	PROB	1673035	n/a	LTP228	ltpFR2	16	n/a	n/a	n/a	23	22	9	4	9
3348.034	n/a	PROB	1674017	n/a	LTP228	ltpFR2	16	n/a	n/a	n/a	23	10	1	3	6
3349.632	n/a	PROB	1674816	n/a	LTP228	ltpFR2	16	n/a	n/a	n/a	23	8	6	1	1
3351.228	n/a	PROB	1675614	n/a	LTP228	ltpFR2	16	n/a	n/a	n/a	23	23	5	9	9
3353.46	n/a	PROB	1676730	n/a	LTP228	ltpFR2	16	n/a	n/a	n/a	23	13	5	7	1
3356.09	n/a	PROB	1678045	n/a	LTP228	ltpFR2	16	n/a	n/a	n/a	23	11	5	4	2
3358.918	n/a	PROB	1679459	n/a	LTP228	ltpFR2	16	n/a	n/a	n/a	23	17	7	7	3
3360.866	n/a	PROB	1680433	n/a	LTP228	ltpFR2	16	n/a	n/a	n/a	23	11	4	6	1
3364.262	n/a	STOP	1682131	n/a	LTP228	ltpFR2	16	n/a	n/a	n/a	23	n/a	n/a	n/a	n/a
3366.174	n/a	REC_START	1683087	n/a	LTP228	ltpFR2	16	15	n/a	n/a	n/a	n/a	0	0	0
3366.618	n/a	REC_WORD	1683309	wordpools/wasnorm_wordpool_576.txt	LTP228	ltpFR2	16	15	LASER	801	n/a	n/a	0	0	0
3367.406	n/a	REC_WORD	1683703	wordpools/wasnorm_wordpool_576.txt	LTP228	ltpFR2	16	15	SWITCH	1422	n/a	n/a	0	0	0
3368.78	n/a	REC_WORD	1684390	wordpools/wasnorm_wordpool_576.txt	LTP228	ltpFR2	16	15	DINER	467	n/a	n/a	0	0	0
3369.646	n/a	REC_WORD	1684823	wordpools/wasnorm_wordpool_576.txt	LTP228	ltpFR2	16	15	TROUT	1511	n/a	n/a	0	0	0
3371.124	n/a	REC_WORD	1685562	wordpools/wasnorm_wordpool_576.txt	LTP228	ltpFR2	16	15	BACON	67	n/a	n/a	0	0	0
3456.842	n/a	WORD	1728421	wordpools/wasnorm_wordpool_576.txt	LTP228	ltpFR2	16	16	SPOOL	1356	n/a	n/a	0	0	0
3459.486	n/a	WORD	1729743	wordpools/wasnorm_wordpool_576.txt	LTP228	ltpFR2	16	16	HEADBAND	696	n/a	n/a	0	0	0
3462.132	n/a	WORD	1731066	wordpools/wasnorm_wordpool_576.txt	LTP228	ltpFR2	16	16	TWEEZERS	1526	n/a	n/a	0	0	0
3464.78	n/a	WORD	1732390	wordpools/wasnorm_wordpool_576.txt	LTP228	ltpFR2	16	16	GIRL	637	n/a	n/a	0	0	0
3467.526	n/a	WORD	1733763	wordpools/wasnorm_wordpool_576.txt	LTP228	ltpFR2	16	16	DENIM	446	n/a	n/a	0	0	0
3470.338	n/a	WORD	1735169	wordpools/wasnorm_wordpool_576.txt	LTP228	ltpFR2	16	16	ZIPPER	1636	n/a	n/a	0	0	0
3472.934	n/a	WORD	1736467	wordpools/wasnorm_wordpool_576.txt	LTP228	ltpFR2	16	16	DRAWING	494	n/a	n/a	0	0	0
3475.364	n/a	WORD	1737682	wordpools/wasnorm_wordpool_576.txt	LTP228	ltpFR2	16	16	CANAL	226	n/a	n/a	0	0	0
3477.91	n/a	WORD	1738955	wordpools/wasnorm_wordpool_576.txt	LTP228	ltpFR2	16	16	EMPIRE	530	n/a	n/a	0	0	0
3480.456	n/a	WORD	1740228	wordpools/wasnorm_wordpool_576.txt	LTP228	ltpFR2	16	16	ACTOR	5	n/a	n/a	0	0	0
3483.186	n/a	WORD	1741593	wordpools/wasnorm_wordpool_576.txt	LTP228	ltpFR2	16	16	MUMMY	932	n/a	n/a	0	0	0
3485.766	n/a	WORD	1742883	wordpools/wasnorm_wordpool_576.txt	LTP228	ltpFR2	16	16	MEAT	883	n/a	n/a	0	0	0
3488.41	n/a	WORD	1744205	wordpools/wasnorm_wordpool_576.txt	LTP228	ltpFR2	16	16	BANQUET	86	n/a	n/a	0	0	0
3491.008	n/a	WORD	1745504	wordpools/wasnorm_wordpool_576.txt	LTP228	ltpFR2	16	16	BLOUSE	139	n/a	n/a	0	0	0
3493.52	n/a	WORD	1746760	wordpools/wasnorm_wordpool_576.txt	LTP228	ltpFR2	16	16	POCKET	1093	n/a	n/a	0	0	0
3495.984	n/a	WORD	1747992	wordpools/wasnorm_wordpool_576.txt	LTP228	ltpFR2	16	16	BUBBLE	183	n/a	n/a	0	0	0
3498.712	n/a	WORD	1749356	wordpools/wasnorm_wordpool_576.txt	LTP228	ltpFR2	16	16	GUITAR	670	n/a	n/a	0	0	0
3501.242	n/a	WORD	1750621	wordpools/wasnorm_wordpool_576.txt	LTP228	ltpFR2	16	16	SIBLING	1301	n/a	n/a	0	0	0
3503.688	n/a	WORD	1751844	wordpools/wasnorm_wordpool_576.txt	LTP228	ltpFR2	16	16	SISTER	1312	n/a	n/a	0	0	0
3506.118	n/a	WORD	1753059	wordpools/wasnorm_wordpool_576.txt	LTP228	ltpFR2	16	16	WOMAN	1620	n/a	n/a	0	0	0
3508.648	n/a	WORD	1754324	wordpools/wasnorm_wordpool_576.txt	LTP228	ltpFR2	16	16	MONEY	908	n/a	n/a	0	0	0
3511.176	n/a	WORD	1755588	wordpools/wasnorm_wordpool_576.txt	LTP228	ltpFR2	16	16	SADDLE	1221	n/a	n/a	0	0	0
3513.758	n/a	WORD	1756879	wordpools/wasnorm_wordpool_576.txt	LTP228	ltpFR2	16	16	HOUND	724	n/a	n/a	0	0	0
3516.336	n/a	WORD	1758168	wordpools/wasnorm_wordpool_576.txt	LTP228	ltpFR2	16	16	ACTRESS	6	n/a	n/a	0	0	0
3517.952	n/a	START	1758976	n/a	LTP228	ltpFR2	16	n/a	n/a	n/a	24	n/a	n/a	n/a	n/a
3519.11	n/a	DISTRACTOR	1759555	n/a	LTP228	ltpFR2	16	16	n/a	n/a	n/a	n/a	0	0	0
3519.116	n/a	PROB	1759558	n/a	LTP228	ltpFR2	16	n/a	n/a	n/a	24	8	1	5	2
3520.946	n/a	PROB	1760473	n/a	LTP228	ltpFR2	16	n/a	n/a	n/a	24	17	2	8	7
3522.994	n/a	PROB	1761497	n/a	LTP228	ltpFR2	16	n/a	n/a	n/a	24	17	9	2	6
3525.34	n/a	PROB	1762670	n/a	LTP228	ltpFR2	16	n/a	n/a	n/a	24	10	1	4	5
3527.022	n/a	PROB	1763511	n/a	LTP228	ltpFR2	16	n/a	n/a	n/a	24	19	8	4	7
3529.584	n/a	PROB	1764792	n/a	LTP228	ltpFR2	16	n/a	n/a	n/a	24	11	6	1	4
3531.414	n/a	PROB	1765707	n/a	LTP228	ltpFR2	16	n/a	n/a	n/a	24	16	3	6	7
3535.808	n/a	PROB	1767904	n/a	LTP228	ltpFR2	16	n/a	n/a	n/a	24	11	3	7	1
3541.952	n/a	STOP	1770976	n/a	LTP228	ltpFR2	16	n/a	n/a	n/a	24	n/a	n/a	n/a	n/a
3543.814	n/a	REC_START	1771907	n/a	LTP228	ltpFR2	16	16	n/a	n/a	n/a	n/a	0	0	0
3545.424	n/a	REC_WORD	1772712	wordpools/wasnorm_wordpool_576.txt	LTP228	ltpFR2	16	16	ACTOR	5	n/a	n/a	0	0	0
3546.33	n/a	REC_WORD	1773165	wordpools/wasnorm_wordpool_576.txt	LTP228	ltpFR2	16	16	ACTRESS	6	n/a	n/a	0	0	0
3547.254	n/a	REC_WORD	1773627	wordpools/wasnorm_wordpool_576.txt	LTP228	ltpFR2	16	16	SPOOL	1356	n/a	n/a	0	0	0
3620.434	n/a	REST_REWET	1810217	n/a	LTP228	ltpFR2	16	16	n/a	n/a	n/a	n/a	0	0	0
3882.332	n/a	WORD	1941166	wordpools/wasnorm_wordpool_576.txt	LTP228	ltpFR2	16	17	PEACH	1031	n/a	n/a	0	0	0
3884.862	n/a	WORD	1942431	wordpools/wasnorm_wordpool_576.txt	LTP228	ltpFR2	16	17	BRAKE	166	n/a	n/a	0	0	0
3887.506	n/a	WORD	1943753	wordpools/wasnorm_wordpool_576.txt	LTP228	ltpFR2	16	17	CLOTHES	327	n/a	n/a	0	0	0
3890.07	n/a	WORD	1945035	wordpools/wasnorm_wordpool_576.txt	LTP228	ltpFR2	16	17	ATLAS	53	n/a	n/a	0	0	0
3892.666	n/a	WORD	1946333	wordpools/wasnorm_wordpool_576.txt	LTP228	ltpFR2	16	17	CONVICT	371	n/a	n/a	0	0	0
3895.244	n/a	WORD	1947622	wordpools/wasnorm_wordpool_576.txt	LTP228	ltpFR2	16	17	VAGRANT	1544	n/a	n/a	0	0	0
3897.976	n/a	WORD	1948988	wordpools/wasnorm_wordpool_576.txt	LTP228	ltpFR2	16	17	PLATE	1086	n/a	n/a	0	0	0
3900.438	n/a	WORD	1950219	wordpools/wasnorm_wordpool_576.txt	LTP228	ltpFR2	16	17	MUFFIN	929	n/a	n/a	0	0	0
3903.15	n/a	WORD	1951575	wordpools/wasnorm_wordpool_576.txt	LTP228	ltpFR2	16	17	BLOCKADE	137	n/a	n/a	0	0	0
3905.914	n/a	WORD	1952957	wordpools/wasnorm_wordpool_576.txt	LTP228	ltpFR2	16	17	EXPERT	543	n/a	n/a	0	0	0
3908.576	n/a	WORD	1954288	wordpools/wasnorm_wordpool_576.txt	LTP228	ltpFR2	16	17	DRESSER	496	n/a	n/a	0	0	0
3911.056	n/a	WORD	1955528	wordpools/wasnorm_wordpool_576.txt	LTP228	ltpFR2	16	17	FOX	598	n/a	n/a	0	0	0
3913.702	n/a	WORD	1956851	wordpools/wasnorm_wordpool_576.txt	LTP228	ltpFR2	16	17	DIME	466	n/a	n/a	0	0	0
3916.38	n/a	WORD	1958190	wordpools/wasnorm_wordpool_576.txt	LTP228	ltpFR2	16	17	LETTUCE	814	n/a	n/a	0	0	0
3918.862	n/a	WORD	1959431	wordpools/wasnorm_wordpool_576.txt	LTP228	ltpFR2	16	17	FREEZER	604	n/a	n/a	0	0	0
3921.356	n/a	WORD	1960678	wordpools/wasnorm_wordpool_576.txt	LTP228	ltpFR2	16	17	PERCH	1048	n/a	n/a	0	0	0
3924.036	n/a	WORD	1962018	wordpools/wasnorm_wordpool_576.txt	LTP228	ltpFR2	16	17	CORAL	378	n/a	n/a	0	0	0
3926.534	n/a	WORD	1963267	wordpools/wasnorm_wordpool_576.txt	LTP228	ltpFR2	16	17	APRON	35	n/a	n/a	0	0	0
3929.096	n/a	WORD	1964548	wordpools/wasnorm_wordpool_576.txt	LTP228	ltpFR2	16	17	LIZARD	834	n/a	n/a	0	0	0
3931.808	n/a	WORD	1965904	wordpools/wasnorm_wordpool_576.txt	LTP228	ltpFR2	16	17	SNAKE	1333	n/a	n/a	0	0	0
3934.304	n/a	WORD	1967152	wordpools/wasnorm_wordpool_576.txt	LTP228	ltpFR2	16	17	ARMY	39	n/a	n/a	0	0	0
3937.052	n/a	WORD	1968526	wordpools/wasnorm_wordpool_576.txt	LTP228	ltpFR2	16	17	MARINE	869	n/a	n/a	0	0	0
3939.598	n/a	WORD	1969799	wordpools/wasnorm_wordpool_576.txt	LTP228	ltpFR2	16	17	SALAD	1224	n/a	n/a	0	0	0
3942.094	n/a	WORD	1971047	wordpools/wasnorm_wordpool_576.txt	LTP228	ltpFR2	16	17	CREATURE	403	n/a	n/a	0	0	0
3943.708	n/a	START	1971854	n/a	LTP228	ltpFR2	16	n/a	n/a	n/a	25	n/a	n/a	n/a	n/a
3944.848	n/a	DISTRACTOR	1972424	n/a	LTP228	ltpFR2	16	17	n/a	n/a	n/a	n/a	0	0	0
3944.856	n/a	PROB	1972428	n/a	LTP228	ltpFR2	16	n/a	n/a	n/a	25	13	7	5	1
3947.586	n/a	PROB	1973793	n/a	LTP228	ltpFR2	16	n/a	n/a	n/a	25	14	3	6	5
3950.614	n/a	PROB	1975307	n/a	LTP228	ltpFR2	16	n/a	n/a	n/a	25	5	3	1	1
3952.046	n/a	PROB	1976023	n/a	LTP228	ltpFR2	16	n/a	n/a	n/a	25	12	1	8	3
3954.608	n/a	PROB	1977304	n/a	LTP228	ltpFR2	16	n/a	n/a	n/a	25	1	8	2	1
3956.272	n/a	PROB	1978136	n/a	LTP228	ltpFR2	16	n/a	n/a	n/a	25	15	2	9	4
3961.632	n/a	PROB	1980816	n/a	LTP228	ltpFR2	16	n/a	n/a	n/a	25	17	6	6	5
3967.708	n/a	STOP	1983854	n/a	LTP228	ltpFR2	16	n/a	n/a	n/a	25	n/a	n/a	n/a	n/a
3969.504	n/a	REC_START	1984752	n/a	LTP228	ltpFR2	16	17	n/a	n/a	n/a	n/a	0	0	0
3971.162	n/a	REC_WORD	1985581	wordpools/wasnorm_wordpool_576.txt	LTP228	ltpFR2	16	17	PEACH	1031	n/a	n/a	0	0	0
3971.964	n/a	REC_WORD	1985982	wordpools/wasnorm_wordpool_576.txt	LTP228	ltpFR2	16	17	BRAKE	166	n/a	n/a	0	0	0
3972.816	n/a	REC_WORD	1986408	wordpools/wasnorm_wordpool_576.txt	LTP228	ltpFR2	16	17	APRON	35	n/a	n/a	0	0	0
4030.554	n/a	REC_WORD_VV	2015277	wordpools/wasnorm_wordpool_576.txt	LTP228	ltpFR2	16	17	<>	-1	n/a	n/a	0	0	0
4060.17	n/a	WORD	2030085	wordpools/wasnorm_wordpool_576.txt	LTP228	ltpFR2	16	18	AIRPLANE	12	n/a	n/a	0	0	0
4062.684	n/a	WORD	2031342	wordpools/wasnorm_wordpool_576.txt	LTP228	ltpFR2	16	18	CAMEL	223	n/a	n/a	0	0	0
4065.312	n/a	WORD	2032656	wordpools/wasnorm_wordpool_576.txt	LTP228	ltpFR2	16	18	CLOCK	325	n/a	n/a	0	0	0
4068.124	n/a	WORD	2034062	wordpools/wasnorm_wordpool_576.txt	LTP228	ltpFR2	16	18	WORKER	1621	n/a	n/a	0	0	0
4070.938	n/a	WORD	2035469	wordpools/wasnorm_wordpool_576.txt	LTP228	ltpFR2	16	18	BRICK	172	n/a	n/a	0	0	0
4073.65	n/a	WORD	2036825	wordpools/wasnorm_wordpool_576.txt	LTP228	ltpFR2	16	18	TRACTOR	1493	n/a	n/a	0	0	0
4076.196	n/a	WORD	2038098	wordpools/wasnorm_wordpool_576.txt	LTP228	ltpFR2	16	18	ORCHID	982	n/a	n/a	0	0	0
4078.976	n/a	WORD	2039488	wordpools/wasnorm_wordpool_576.txt	LTP228	ltpFR2	16	18	LODGE	839	n/a	n/a	0	0	0
4081.738	n/a	WORD	2040869	wordpools/wasnorm_wordpool_576.txt	LTP228	ltpFR2	16	18	SCARF	1246	n/a	n/a	0	0	0
4084.55	n/a	WORD	2042275	wordpools/wasnorm_wordpool_576.txt	LTP228	ltpFR2	16	18	OINTMENT	974	n/a	n/a	0	0	0
4087.03	n/a	WORD	2043515	wordpools/wasnorm_wordpool_576.txt	LTP228	ltpFR2	16	18	MARSH	874	n/a	n/a	0	0	0
4089.492	n/a	WORD	2044746	wordpools/wasnorm_wordpool_576.txt	LTP228	ltpFR2	16	18	PLIERS	1089	n/a	n/a	0	0	0
4091.99	n/a	WORD	2045995	wordpools/wasnorm_wordpool_576.txt	LTP228	ltpFR2	16	18	BLADE	134	n/a	n/a	0	0	0
4094.702	n/a	WORD	2047351	wordpools/wasnorm_wordpool_576.txt	LTP228	ltpFR2	16	18	SUBWAY	1400	n/a	n/a	0	0	0
4097.132	n/a	WORD	2048566	wordpools/wasnorm_wordpool_576.txt	LTP228	ltpFR2	16	18	GAVEL	627	n/a	n/a	0	0	0
4099.596	n/a	WORD	2049798	wordpools/wasnorm_wordpool_576.txt	LTP228	ltpFR2	16	18	PERMIT	1051	n/a	n/a	0	0	0
4102.374	n/a	WORD	2051187	wordpools/wasnorm_wordpool_576.txt	LTP228	ltpFR2	16	18	TUNNEL	1519	n/a	n/a	0	0	0
4105.102	n/a	WORD	2052551	wordpools/wasnorm_wordpool_576.txt	LTP228	ltpFR2	16	18	ROBIN	1199	n/a	n/a	0	0	0
4107.832	n/a	WORD	2053916	wordpools/wasnorm_wordpool_576.txt	LTP228	ltpFR2	16	18	SEAGULL	1261	n/a	n/a	0	0	0
4110.262	n/a	WORD	2055131	wordpools/wasnorm_wordpool_576.txt	LTP228	ltpFR2	16	18	PAPER	1011	n/a	n/a	0	0	0
4113.042	n/a	WORD	2056521	wordpools/wasnorm_wordpool_576.txt	LTP228	ltpFR2	16	18	FLUTE	585	n/a	n/a	0	0	0
4115.672	n/a	WORD	2057836	wordpools/wasnorm_wordpool_576.txt	LTP228	ltpFR2	16	18	DAISY	435	n/a	n/a	0	0	0
4118.134	n/a	WORD	2059067	wordpools/wasnorm_wordpool_576.txt	LTP228	ltpFR2	16	18	GRAVEL	659	n/a	n/a	0	0	0
4120.78	n/a	WORD	2060390	wordpools/wasnorm_wordpool_576.txt	LTP228	ltpFR2	16	18	SHOVEL	1295	n/a	n/a	0	0	0
4122.394	n/a	START	2061197	n/a	LTP228	ltpFR2	16	n/a	n/a	n/a	26	n/a	n/a	n/a	n/a
4123.318	n/a	DISTRACTOR	2061659	n/a	LTP228	ltpFR2	16	18	n/a	n/a	n/a	n/a	0	0	0
4123.326	n/a	PROB	2061663	n/a	LTP228	ltpFR2	16	n/a	n/a	n/a	26	8	2	5	1
4125.174	n/a	PROB	2062587	n/a	LTP228	ltpFR2	16	n/a	n/a	n/a	26	20	8	9	3
4129.45	n/a	PROB	2064725	n/a	LTP228	ltpFR2	16	n/a	n/a	n/a	26	16	1	9	6
4132.18	n/a	PROB	2066090	n/a	LTP228	ltpFR2	16	n/a	n/a	n/a	26	8	4	2	2
4133.844	n/a	PROB	2066922	n/a	LTP228	ltpFR2	16	n/a	n/a	n/a	26	17	8	3	6
4135.992	n/a	PROB	2067996	n/a	LTP228	ltpFR2	16	n/a	n/a	n/a	26	19	9	4	6
4137.888	n/a	PROB	2068944	n/a	LTP228	ltpFR2	16	n/a	n/a	n/a	26	16	1	6	9
4139.902	n/a	PROB	2069951	n/a	LTP228	ltpFR2	16	n/a	n/a	n/a	26	16	9	2	5
4142.432	n/a	PROB	2071216	n/a	LTP228	ltpFR2	16	n/a	n/a	n/a	26	16	4	4	8
4146.394	n/a	STOP	2073197	n/a	LTP228	ltpFR2	16	n/a	n/a	n/a	26	n/a	n/a	n/a	n/a
4148.24	n/a	REC_START	2074120	n/a	LTP228	ltpFR2	16	18	n/a	n/a	n/a	n/a	0	0	0
4149.988	n/a	REC_WORD	2074994	wordpools/wasnorm_wordpool_576.txt	LTP228	ltpFR2	16	18	GAVEL	627	n/a	n/a	0	0	0
4150.864	n/a	REC_WORD	2075432	wordpools/wasnorm_wordpool_576.txt	LTP228	ltpFR2	16	18	GRAVEL	659	n/a	n/a	0	0	0
4151.746	n/a	REC_WORD	2075873	wordpools/wasnorm_wordpool_576.txt	LTP228	ltpFR2	16	18	SHOVEL	1295	n/a	n/a	0	0	0
4153.084	n/a	REC_WORD	2076542	wordpools/wasnorm_wordpool_576.txt	LTP228	ltpFR2	16	18	TUNNEL	1519	n/a	n/a	0	0	0
4153.962	n/a	REC_WORD	2076981	wordpools/wasnorm_wordpool_576.txt	LTP228	ltpFR2	16	18	SUBWAY	1400	n/a	n/a	0	0	0
4155.054	n/a	REC_WORD	2077527	wordpools/wasnorm_wordpool_576.txt	LTP228	ltpFR2	16	18	PERMIT	1051	n/a	n/a	0	0	0
4155.89	n/a	REC_WORD	2077945	wordpools/wasnorm_wordpool_576.txt	LTP228	ltpFR2	16	18	ROBIN	1199	n/a	n/a	0	0	0
4156.758	n/a	REC_WORD	2078379	wordpools/wasnorm_wordpool_576.txt	LTP228	ltpFR2	16	18	SEAGULL	1261	n/a	n/a	0	0	0
4238.89	n/a	DISTRACTOR	2119445	n/a	LTP228	ltpFR2	16	19	n/a	n/a	n/a	n/a	0	0	0
4238.89	n/a	START	2119445	n/a	LTP228	ltpFR2	16	n/a	n/a	n/a	27	n/a	n/a	n/a	n/a
4238.924	n/a	PROB	2119462	n/a	LTP228	ltpFR2	16	n/a	n/a	n/a	27	15	5	7	3
4240.754	n/a	PROB	2120377	n/a	LTP228	ltpFR2	16	n/a	n/a	n/a	27	16	8	1	7
4242.902	n/a	PROB	2121451	n/a	LTP228	ltpFR2	16	n/a	n/a	n/a	27	14	1	9	4
4244.298	n/a	PROB	2122149	n/a	LTP228	ltpFR2	16	n/a	n/a	n/a	27	15	5	5	5
4245.58	n/a	PROB	2122790	n/a	LTP228	ltpFR2	16	n/a	n/a	n/a	27	11	5	5	1
4247.078	n/a	PROB	2123539	n/a	LTP228	ltpFR2	16	n/a	n/a	n/a	27	11	6	2	3
4248.86	n/a	PROB	2124430	n/a	LTP228	ltpFR2	16	n/a	n/a	n/a	27	21	3	9	9
4250.64	n/a	PROB	2125320	n/a	LTP228	ltpFR2	16	n/a	n/a	n/a	27	8	1	6	1
4251.872	n/a	PROB	2125936	n/a	LTP228	ltpFR2	16	n/a	n/a	n/a	27	16	6	8	2
4253.552	n/a	PROB	2126776	n/a	LTP228	ltpFR2	16	n/a	n/a	n/a	27	18	7	8	3
4255.498	n/a	PROB	2127749	n/a	LTP228	ltpFR2	16	n/a	n/a	n/a	27	17	6	7	4
4257.53	n/a	PROB	2128765	n/a	LTP228	ltpFR2	16	n/a	n/a	n/a	27	14	4	5	5
4258.912	n/a	PROB	2129456	n/a	LTP228	ltpFR2	16	n/a	n/a	n/a	27	14	7	1	6
4260.742	n/a	PROB	2130371	n/a	LTP228	ltpFR2	16	n/a	n/a	n/a	27	17	5	7	5
4262.62	n/a	STOP	2131310	n/a	LTP228	ltpFR2	16	n/a	n/a	n/a	27	n/a	n/a	n/a	n/a
4263.988	n/a	WORD	2131994	wordpools/wasnorm_wordpool_576.txt	LTP228	ltpFR2	16	19	POLICE	1098	n/a	n/a	0	0	0
4266.666	n/a	WORD	2133333	wordpools/wasnorm_wordpool_576.txt	LTP228	ltpFR2	16	19	ULCER	1533	n/a	n/a	0	0	0
4269.378	n/a	WORD	2134689	wordpools/wasnorm_wordpool_576.txt	LTP228	ltpFR2	16	19	PEPPER	1047	n/a	n/a	0	0	0
4272.026	n/a	WORD	2136013	wordpools/wasnorm_wordpool_576.txt	LTP228	ltpFR2	16	19	BELLY	119	n/a	n/a	0	0	0
4274.638	n/a	WORD	2137319	wordpools/wasnorm_wordpool_576.txt	LTP228	ltpFR2	16	19	SCULPTURE	1258	n/a	n/a	0	0	0
4277.434	n/a	WORD	2138717	wordpools/wasnorm_wordpool_576.txt	LTP228	ltpFR2	16	19	STREAM	1392	n/a	n/a	0	0	0
4280.228	n/a	WORD	2140114	wordpools/wasnorm_wordpool_576.txt	LTP228	ltpFR2	16	19	FRANCE	601	n/a	n/a	0	0	0
4282.976	n/a	WORD	2141488	wordpools/wasnorm_wordpool_576.txt	LTP228	ltpFR2	16	19	CATTLE	261	n/a	n/a	0	0	0
4285.47	n/a	WORD	2142735	wordpools/wasnorm_wordpool_576.txt	LTP228	ltpFR2	16	19	CHEMIST	292	n/a	n/a	0	0	0
4288.1	n/a	WORD	2144050	wordpools/wasnorm_wordpool_576.txt	LTP228	ltpFR2	16	19	COUNTY	389	n/a	n/a	0	0	0
4290.63	n/a	WORD	2145315	wordpools/wasnorm_wordpool_576.txt	LTP228	ltpFR2	16	19	KEEPER	769	n/a	n/a	0	0	0
4293.426	n/a	WORD	2146713	wordpools/wasnorm_wordpool_576.txt	LTP228	ltpFR2	16	19	DAUGHTER	442	n/a	n/a	0	0	0
4296.172	n/a	WORD	2148086	wordpools/wasnorm_wordpool_576.txt	LTP228	ltpFR2	16	19	BACKBONE	66	n/a	n/a	0	0	0
4298.918	n/a	WORD	2149459	wordpools/wasnorm_wordpool_576.txt	LTP228	ltpFR2	16	19	HERO	706	n/a	n/a	0	0	0
4301.698	n/a	WORD	2150849	wordpools/wasnorm_wordpool_576.txt	LTP228	ltpFR2	16	19	LEG	809	n/a	n/a	0	0	0
4304.326	n/a	WORD	2152163	wordpools/wasnorm_wordpool_576.txt	LTP228	ltpFR2	16	19	CRUTCH	417	n/a	n/a	0	0	0
4306.84	n/a	WORD	2153420	wordpools/wasnorm_wordpool_576.txt	LTP228	ltpFR2	16	19	SHELF	1280	n/a	n/a	0	0	0
4309.402	n/a	WORD	2154701	wordpools/wasnorm_wordpool_576.txt	LTP228	ltpFR2	16	19	SHERIFF	1284	n/a	n/a	0	0	0
4311.832	n/a	WORD	2155916	wordpools/wasnorm_wordpool_576.txt	LTP228	ltpFR2	16	19	PORTRAIT	1111	n/a	n/a	0	0	0
4314.262	n/a	WORD	2157131	wordpools/wasnorm_wordpool_576.txt	LTP228	ltpFR2	16	19	TILE	1468	n/a	n/a	0	0	0
4316.958	n/a	WORD	2158479	wordpools/wasnorm_wordpool_576.txt	LTP228	ltpFR2	16	19	FOOT	590	n/a	n/a	0	0	0
4319.672	n/a	WORD	2159836	wordpools/wasnorm_wordpool_576.txt	LTP228	ltpFR2	16	19	GRIZZLY	662	n/a	n/a	0	0	0
4322.266	n/a	WORD	2161133	wordpools/wasnorm_wordpool_576.txt	LTP228	ltpFR2	16	19	COMPASS	358	n/a	n/a	0	0	0
4324.78	n/a	WORD	2162390	wordpools/wasnorm_wordpool_576.txt	LTP228	ltpFR2	16	19	JOURNAL	760	n/a	n/a	0	0	0
4326.394	n/a	START	2163197	n/a	LTP228	ltpFR2	16	n/a	n/a	n/a	28	n/a	n/a	n/a	n/a
4327.306	n/a	DISTRACTOR	2163653	n/a	LTP228	ltpFR2	16	19	n/a	n/a	n/a	n/a	0	0	0
4327.308	n/a	PROB	2163654	n/a	LTP228	ltpFR2	16	n/a	n/a	n/a	28	16	6	4	6
4329.39	n/a	PROB	2164695	n/a	LTP228	ltpFR2	16	n/a	n/a	n/a	28	13	4	1	8
4331.704	n/a	PROB	2165852	n/a	LTP228	ltpFR2	16	n/a	n/a	n/a	28	14	5	8	1
4334.034	n/a	PROB	2167017	n/a	LTP228	ltpFR2	16	n/a	n/a	n/a	28	18	6	8	4
4337.26	n/a	PROB	2168630	n/a	LTP228	ltpFR2	16	n/a	n/a	n/a	28	26	8	9	9
4339.692	n/a	PROB	2169846	n/a	LTP228	ltpFR2	16	n/a	n/a	n/a	28	10	1	5	4
4341.672	n/a	PROB	2170836	n/a	LTP228	ltpFR2	16	n/a	n/a	n/a	28	10	4	5	1
4343.286	n/a	PROB	2171643	n/a	LTP228	ltpFR2	16	n/a	n/a	n/a	28	14	3	3	8
4346.464	n/a	PROB	2173232	n/a	LTP228	ltpFR2	16	n/a	n/a	n/a	28	13	6	3	4
4349.038	n/a	STOP	2174519	n/a	LTP228	ltpFR2	16	n/a	n/a	n/a	28	n/a	n/a	n/a	n/a
4352.222	n/a	REC_START	2176111	n/a	LTP228	ltpFR2	16	19	n/a	n/a	n/a	n/a	0	0	0
4354.252	n/a	REC_WORD	2177126	wordpools/wasnorm_wordpool_576.txt	LTP228	ltpFR2	16	19	POLICE	1098	n/a	n/a	0	0	0
4355.322	n/a	REC_WORD	2177661	wordpools/wasnorm_wordpool_576.txt	LTP228	ltpFR2	16	19	ULCER	1533	n/a	n/a	0	0	0
4356.258	n/a	REC_WORD	2178129	wordpools/wasnorm_wordpool_576.txt	LTP228	ltpFR2	16	19	PEPPER	1047	n/a	n/a	0	0	0
4357.352	n/a	REC_WORD	2178676	wordpools/wasnorm_wordpool_576.txt	LTP228	ltpFR2	16	19	BELLY	119	n/a	n/a	0	0	0
4358.29	n/a	REC_WORD	2179145	wordpools/wasnorm_wordpool_576.txt	LTP228	ltpFR2	16	19	SCULPTURE	1258	n/a	n/a	0	0	0
4359.29	n/a	REC_WORD_VV	2179645	wordpools/wasnorm_wordpool_576.txt	LTP228	ltpFR2	16	19	<>	-1	n/a	n/a	0	0	0
4360.236	n/a	REC_WORD	2180118	wordpools/wasnorm_wordpool_576.txt	LTP228	ltpFR2	16	19	FRANCE	601	n/a	n/a	0	0	0
4361.882	n/a	REC_WORD	2180941	wordpools/wasnorm_wordpool_576.txt	LTP228	ltpFR2	16	19	COUNTRY	388	n/a	n/a	0	0	0
4373.904	n/a	REC_WORD	2186952	wordpools/wasnorm_wordpool_576.txt	LTP228	ltpFR2	16	19	CHEMIST	292	n/a	n/a	0	0	0
4442.99	n/a	DISTRACTOR	2221495	n/a	LTP228	ltpFR2	16	20	n/a	n/a	n/a	n/a	0	0	0
4442.99	n/a	START	2221495	n/a	LTP228	ltpFR2	16	n/a	n/a	n/a	29	n/a	n/a	n/a	n/a
4443.024	n/a	PROB	2221512	n/a	LTP228	ltpFR2	16	n/a	n/a	n/a	29	8	3	4	1
4444.438	n/a	PROB	2222219	n/a	LTP228	ltpFR2	16	n/a	n/a	n/a	29	16	3	7	6
4446.02	n/a	PROB	2223010	n/a	LTP228	ltpFR2	16	n/a	n/a	n/a	29	10	2	2	6
4448.698	n/a	PROB	2224349	n/a	LTP228	ltpFR2	16	n/a	n/a	n/a	29	8	2	3	3
4450.828	n/a	PROB	2225414	n/a	LTP228	ltpFR2	16	n/a	n/a	n/a	29	10	6	2	2
4453.958	n/a	PROB	2226979	n/a	LTP228	ltpFR2	16	n/a	n/a	n/a	29	14	1	8	5
4456.004	n/a	PROB	2228002	n/a	LTP228	ltpFR2	16	n/a	n/a	n/a	29	21	4	8	9
4459.116	n/a	PROB	2229558	n/a	LTP228	ltpFR2	16	n/a	n/a	n/a	29	16	3	7	6
4460.93	n/a	PROB	2230465	n/a	LTP228	ltpFR2	16	n/a	n/a	n/a	29	16	3	8	5
4464.092	n/a	PROB	2232046	n/a	LTP228	ltpFR2	16	n/a	n/a	n/a	29	12	6	1	5
4466.376	n/a	STOP	2233188	n/a	LTP228	ltpFR2	16	n/a	n/a	n/a	29	n/a	n/a	n/a	n/a
4467.886	n/a	WORD	2233943	wordpools/wasnorm_wordpool_576.txt	LTP228	ltpFR2	16	20	BABY	64	n/a	n/a	0	0	0
4470.348	n/a	WORD	2235174	wordpools/wasnorm_wordpool_576.txt	LTP228	ltpFR2	16	20	BARLEY	88	n/a	n/a	0	0	0
4472.98	n/a	WORD	2236490	wordpools/wasnorm_wordpool_576.txt	LTP228	ltpFR2	16	20	NECKLACE	940	n/a	n/a	0	0	0
4475.576	n/a	WORD	2237788	wordpools/wasnorm_wordpool_576.txt	LTP228	ltpFR2	16	20	HUSBAND	728	n/a	n/a	0	0	0
4478.204	n/a	WORD	2239102	wordpools/wasnorm_wordpool_576.txt	LTP228	ltpFR2	16	20	POWDER	1117	n/a	n/a	0	0	0
4480.8	n/a	WORD	2240400	wordpools/wasnorm_wordpool_576.txt	LTP228	ltpFR2	16	20	IGLOO	734	n/a	n/a	0	0	0
4483.328	n/a	WORD	2241664	wordpools/wasnorm_wordpool_576.txt	LTP228	ltpFR2	16	20	BLUEPRINT	142	n/a	n/a	0	0	0
4486.108	n/a	WORD	2243054	wordpools/wasnorm_wordpool_576.txt	LTP228	ltpFR2	16	20	OMELET	976	n/a	n/a	0	0	0
4488.572	n/a	WORD	2244286	wordpools/wasnorm_wordpool_576.txt	LTP228	ltpFR2	16	20	ROBBER	1197	n/a	n/a	0	0	0
4491.368	n/a	WORD	2245684	wordpools/wasnorm_wordpool_576.txt	LTP228	ltpFR2	16	20	LIPSTICK	829	n/a	n/a	0	0	0
4493.898	n/a	WORD	2246949	wordpools/wasnorm_wordpool_576.txt	LTP228	ltpFR2	16	20	BANK	83	n/a	n/a	0	0	0
4496.46	n/a	WORD	2248230	wordpools/wasnorm_wordpool_576.txt	LTP228	ltpFR2	16	20	RECEIPT	1173	n/a	n/a	0	0	0
4499.172	n/a	WORD	2249586	wordpools/wasnorm_wordpool_576.txt	LTP228	ltpFR2	16	20	SUMMIT	1405	n/a	n/a	0	0	0
4501.886	n/a	WORD	2250943	wordpools/wasnorm_wordpool_576.txt	LTP228	ltpFR2	16	20	ARM	38	n/a	n/a	0	0	0
4504.632	n/a	WORD	2252316	wordpools/wasnorm_wordpool_576.txt	LTP228	ltpFR2	16	20	CABBAGE	210	n/a	n/a	0	0	0
4507.094	n/a	WORD	2253547	wordpools/wasnorm_wordpool_576.txt	LTP228	ltpFR2	16	20	ICEBERG	731	n/a	n/a	0	0	0
4509.608	n/a	WORD	2254804	wordpools/wasnorm_wordpool_576.txt	LTP228	ltpFR2	16	20	BASEMENT	94	n/a	n/a	0	0	0
4512.304	n/a	WORD	2256152	wordpools/wasnorm_wordpool_576.txt	LTP228	ltpFR2	16	20	CUSTARD	429	n/a	n/a	0	0	0
4514.868	n/a	WORD	2257434	wordpools/wasnorm_wordpool_576.txt	LTP228	ltpFR2	16	20	COOK	372	n/a	n/a	0	0	0
4517.596	n/a	WORD	2258798	wordpools/wasnorm_wordpool_576.txt	LTP228	ltpFR2	16	20	LONDON	843	n/a	n/a	0	0	0
4520.224	n/a	WORD	2260112	wordpools/wasnorm_wordpool_576.txt	LTP228	ltpFR2	16	20	COUSIN	392	n/a	n/a	0	0	0
4522.906	n/a	WORD	2261453	wordpools/wasnorm_wordpool_576.txt	LTP228	ltpFR2	16	20	SPOUSE	1358	n/a	n/a	0	0	0
4525.618	n/a	WORD	2262809	wordpools/wasnorm_wordpool_576.txt	LTP228	ltpFR2	16	20	CHILD	299	n/a	n/a	0	0	0
4528.412	n/a	WORD	2264206	wordpools/wasnorm_wordpool_576.txt	LTP228	ltpFR2	16	20	CRIB	407	n/a	n/a	0	0	0
4530.028	n/a	START	2265014	n/a	LTP228	ltpFR2	16	n/a	n/a	n/a	30	n/a	n/a	n/a	n/a
4531.088	n/a	DISTRACTOR	2265544	n/a	LTP228	ltpFR2	16	20	n/a	n/a	n/a	n/a	0	0	0
4531.092	n/a	PROB	2265546	n/a	LTP228	ltpFR2	16	n/a	n/a	n/a	30	13	2	6	5
4533.506	n/a	PROB	2266753	n/a	LTP228	ltpFR2	16	n/a	n/a	n/a	30	8	1	4	3
4536.868	n/a	PROB	2268434	n/a	LTP228	ltpFR2	16	n/a	n/a	n/a	30	22	9	5	8
4540.064	n/a	PROB	2270032	n/a	LTP228	ltpFR2	16	n/a	n/a	n/a	30	12	3	5	4
4543.224	n/a	PROB	2271612	n/a	LTP228	ltpFR2	16	n/a	n/a	n/a	30	14	3	7	4
4544.69	n/a	PROB	2272345	n/a	LTP228	ltpFR2	16	n/a	n/a	n/a	30	9	6	2	1
4547.318	n/a	PROB	2273659	n/a	LTP228	ltpFR2	16	n/a	n/a	n/a	30	14	6	4	4
4549.332	n/a	PROB	2274666	n/a	LTP228	ltpFR2	16	n/a	n/a	n/a	30	22	7	7	8
4554.028	n/a	STOP	2277014	n/a	LTP228	ltpFR2	16	n/a	n/a	n/a	30	n/a	n/a	n/a	n/a
4555.874	n/a	REC_START	2277937	n/a	LTP228	ltpFR2	16	20	n/a	n/a	n/a	n/a	0	0	0
4557.18	n/a	REC_WORD	2278590	wordpools/wasnorm_wordpool_576.txt	LTP228	ltpFR2	16	20	BABY	64	n/a	n/a	0	0	0
4557.852	n/a	REC_WORD	2278926	wordpools/wasnorm_wordpool_576.txt	LTP228	ltpFR2	16	20	HUSBAND	728	n/a	n/a	0	0	0
4558.968	n/a	REC_WORD	2279484	wordpools/wasnorm_wordpool_576.txt	LTP228	ltpFR2	16	20	COUSIN	392	n/a	n/a	0	0	0
4559.784	n/a	REC_WORD	2279892	wordpools/wasnorm_wordpool_576.txt	LTP228	ltpFR2	16	20	LONDON	843	n/a	n/a	0	0	0
4560.67	n/a	REC_WORD	2280335	wordpools/wasnorm_wordpool_576.txt	LTP228	ltpFR2	16	20	SPOUSE	1358	n/a	n/a	0	0	0
4561.814	n/a	REC_WORD	2280907	wordpools/wasnorm_wordpool_576.txt	LTP228	ltpFR2	16	20	CHILD	299	n/a	n/a	0	0	0
4562.898	n/a	REC_WORD	2281449	wordpools/wasnorm_wordpool_576.txt	LTP228	ltpFR2	16	20	CRIB	407	n/a	n/a	0	0	0
4646.508	n/a	DISTRACTOR	2323254	n/a	LTP228	ltpFR2	16	21	n/a	n/a	n/a	n/a	0	0	0
4646.508	n/a	START	2323254	n/a	LTP228	ltpFR2	16	n/a	n/a	n/a	31	n/a	n/a	n/a	n/a
4646.54	n/a	PROB	2323270	n/a	LTP228	ltpFR2	16	n/a	n/a	n/a	31	11	5	1	5
4647.822	n/a	PROB	2323911	n/a	LTP228	ltpFR2	16	n/a	n/a	n/a	31	22	7	7	8
4650.668	n/a	PROB	2325334	n/a	LTP228	ltpFR2	16	n/a	n/a	n/a	31	12	6	4	2
4654.828	n/a	PROB	2327414	n/a	LTP228	ltpFR2	16	n/a	n/a	n/a	31	14	6	2	6
4657.424	n/a	PROB	2328712	n/a	LTP228	ltpFR2	16	n/a	n/a	n/a	31	19	8	6	5
4660.952	n/a	PROB	2330476	n/a	LTP228	ltpFR2	16	n/a	n/a	n/a	31	12	2	9	1
4665.278	n/a	PROB	2332639	n/a	LTP228	ltpFR2	16	n/a	n/a	n/a	31	14	9	3	2
4667.51	n/a	PROB	2333755	n/a	LTP228	ltpFR2	16	n/a	n/a	n/a	31	11	5	3	3
4669.628	n/a	STOP	2334814	n/a	LTP228	ltpFR2	16	n/a	n/a	n/a	31	n/a	n/a	n/a	n/a
4671.354	n/a	WORD	2335677	wordpools/wasnorm_wordpool_576.txt	LTP228	ltpFR2	16	21	RECORD	1176	n/a	n/a	0	0	0
4674.084	n/a	WORD	2337042	wordpools/wasnorm_wordpool_576.txt	LTP228	ltpFR2	16	21	CONCERT	360	n/a	n/a	0	0	0
4676.512	n/a	WORD	2338256	wordpools/wasnorm_wordpool_576.txt	LTP228	ltpFR2	16	21	MESSAGE	888	n/a	n/a	0	0	0
4679.026	n/a	WORD	2339513	wordpools/wasnorm_wordpool_576.txt	LTP228	ltpFR2	16	21	SPHINX	1349	n/a	n/a	0	0	0
4681.772	n/a	WORD	2340886	wordpools/wasnorm_wordpool_576.txt	LTP228	ltpFR2	16	21	AGENT	10	n/a	n/a	0	0	0
4684.3	n/a	WORD	2342150	wordpools/wasnorm_wordpool_576.txt	LTP228	ltpFR2	16	21	COIN	343	n/a	n/a	0	0	0
4687.03	n/a	WORD	2343515	wordpools/wasnorm_wordpool_576.txt	LTP228	ltpFR2	16	21	SCISSORS	1250	n/a	n/a	0	0	0
4689.476	n/a	WORD	2344738	wordpools/wasnorm_wordpool_576.txt	LTP228	ltpFR2	16	21	EAGLE	512	n/a	n/a	0	0	0
4692.204	n/a	WORD	2346102	wordpools/wasnorm_wordpool_576.txt	LTP228	ltpFR2	16	21	QUARTER	1148	n/a	n/a	0	0	0
4694.752	n/a	WORD	2347376	wordpools/wasnorm_wordpool_576.txt	LTP228	ltpFR2	16	21	CRATER	400	n/a	n/a	0	0	0
4697.564	n/a	WORD	2348782	wordpools/wasnorm_wordpool_576.txt	LTP228	ltpFR2	16	21	ROCKET	1202	n/a	n/a	0	0	0
4700.094	n/a	WORD	2350047	wordpools/wasnorm_wordpool_576.txt	LTP228	ltpFR2	16	21	VIRUS	1572	n/a	n/a	0	0	0
4702.54	n/a	WORD	2351270	wordpools/wasnorm_wordpool_576.txt	LTP228	ltpFR2	16	21	ICING	732	n/a	n/a	0	0	0
4705.22	n/a	WORD	2352610	wordpools/wasnorm_wordpool_576.txt	LTP228	ltpFR2	16	21	MAILBOX	857	n/a	n/a	0	0	0
4707.832	n/a	WORD	2353916	wordpools/wasnorm_wordpool_576.txt	LTP228	ltpFR2	16	21	SPARROW	1347	n/a	n/a	0	0	0
4710.428	n/a	WORD	2355214	wordpools/wasnorm_wordpool_576.txt	LTP228	ltpFR2	16	21	LILY	821	n/a	n/a	0	0	0
4713.076	n/a	WORD	2356538	wordpools/wasnorm_wordpool_576.txt	LTP228	ltpFR2	16	21	RUST	1219	n/a	n/a	0	0	0
4715.788	n/a	WORD	2357894	wordpools/wasnorm_wordpool_576.txt	LTP228	ltpFR2	16	21	POET	1095	n/a	n/a	0	0	0
4718.432	n/a	WORD	2359216	wordpools/wasnorm_wordpool_576.txt	LTP228	ltpFR2	16	21	AUTHOR	61	n/a	n/a	0	0	0
4720.996	n/a	WORD	2360498	wordpools/wasnorm_wordpool_576.txt	LTP228	ltpFR2	16	21	SAUSAGE	1238	n/a	n/a	0	0	0
4723.544	n/a	WORD	2361772	wordpools/wasnorm_wordpool_576.txt	LTP228	ltpFR2	16	21	CHURCH	307	n/a	n/a	0	0	0
4726.072	n/a	WORD	2363036	wordpools/wasnorm_wordpool_576.txt	LTP228	ltpFR2	16	21	HAWK	692	n/a	n/a	0	0	0
4728.686	n/a	WORD	2364343	wordpools/wasnorm_wordpool_576.txt	LTP228	ltpFR2	16	21	CREVICE	405	n/a	n/a	0	0	0
4731.464	n/a	WORD	2365732	wordpools/wasnorm_wordpool_576.txt	LTP228	ltpFR2	16	21	TRENCH	1503	n/a	n/a	0	0	0
4733.08	n/a	START	2366540	n/a	LTP228	ltpFR2	16	n/a	n/a	n/a	32	n/a	n/a	n/a	n/a
4734.076	n/a	DISTRACTOR	2367038	n/a	LTP228	ltpFR2	16	21	n/a	n/a	n/a	n/a	0	0	0
4734.078	n/a	PROB	2367039	n/a	LTP228	ltpFR2	16	n/a	n/a	n/a	32	12	2	9	1
4736.14	n/a	PROB	2368070	n/a	LTP228	ltpFR2	16	n/a	n/a	n/a	32	19	7	3	9
4737.772	n/a	PROB	2368886	n/a	LTP228	ltpFR2	16	n/a	n/a	n/a	32	21	7	6	8
4741.45	n/a	PROB	2370725	n/a	LTP228	ltpFR2	16	n/a	n/a	n/a	32	17	5	5	7
4744.394	n/a	PROB	2372197	n/a	LTP228	ltpFR2	16	n/a	n/a	n/a	32	20	4	7	9
4747.324	n/a	PROB	2373662	n/a	LTP228	ltpFR2	16	n/a	n/a	n/a	32	20	8	4	8
4749.32	n/a	PROB	2374660	n/a	LTP228	ltpFR2	16	n/a	n/a	n/a	32	19	7	8	2
4757.08	n/a	STOP	2378540	n/a	LTP228	ltpFR2	16	n/a	n/a	n/a	32	n/a	n/a	n/a	n/a
4759.024	n/a	REC_START	2379512	n/a	LTP228	ltpFR2	16	21	n/a	n/a	n/a	n/a	0	0	0
4760.98	n/a	REC_WORD	2380490	wordpools/wasnorm_wordpool_576.txt	LTP228	ltpFR2	16	21	RECORD	1176	n/a	n/a	0	0	0
4761.782	n/a	REC_WORD	2380891	wordpools/wasnorm_wordpool_576.txt	LTP228	ltpFR2	16	21	CONCERT	360	n/a	n/a	0	0	0
4762.596	n/a	REC_WORD	2381298	wordpools/wasnorm_wordpool_576.txt	LTP228	ltpFR2	16	21	SPHINX	1349	n/a	n/a	0	0	0
4763.632	n/a	REC_WORD	2381816	wordpools/wasnorm_wordpool_576.txt	LTP228	ltpFR2	16	21	MESSAGE	888	n/a	n/a	0	0	0
4764.384	n/a	REC_WORD	2382192	wordpools/wasnorm_wordpool_576.txt	LTP228	ltpFR2	16	21	SPARROW	1347	n/a	n/a	0	0	0
4765.544	n/a	REC_WORD	2382772	wordpools/wasnorm_wordpool_576.txt	LTP228	ltpFR2	16	21	CHURCH	307	n/a	n/a	0	0	0
4769.69	n/a	REC_WORD	2384845	wordpools/wasnorm_wordpool_576.txt	LTP228	ltpFR2	16	21	AGENT	10	n/a	n/a	0	0	0
4849.692	n/a	WORD	2424846	wordpools/wasnorm_wordpool_576.txt	LTP228	ltpFR2	16	22	BUCKET	184	n/a	n/a	0	0	0
4852.304	n/a	WORD	2426152	wordpools/wasnorm_wordpool_576.txt	LTP228	ltpFR2	16	22	ZEBRA	1635	n/a	n/a	0	0	0
4855.116	n/a	WORD	2427558	wordpools/wasnorm_wordpool_576.txt	LTP228	ltpFR2	16	22	SCRIBBLE	1256	n/a	n/a	0	0	0
4857.712	n/a	WORD	2428856	wordpools/wasnorm_wordpool_576.txt	LTP228	ltpFR2	16	22	VALVE	1546	n/a	n/a	0	0	0
4860.374	n/a	WORD	2430187	wordpools/wasnorm_wordpool_576.txt	LTP228	ltpFR2	16	22	LIVER	833	n/a	n/a	0	0	0
4863.054	n/a	WORD	2431527	wordpools/wasnorm_wordpool_576.txt	LTP228	ltpFR2	16	22	KIDNEY	776	n/a	n/a	0	0	0
4865.834	n/a	WORD	2432917	wordpools/wasnorm_wordpool_576.txt	LTP228	ltpFR2	16	22	FOREHEAD	592	n/a	n/a	0	0	0
4868.53	n/a	WORD	2434265	wordpools/wasnorm_wordpool_576.txt	LTP228	ltpFR2	16	22	FLESH	579	n/a	n/a	0	0	0
4871.342	n/a	WORD	2435671	wordpools/wasnorm_wordpool_576.txt	LTP228	ltpFR2	16	22	CRAYON	401	n/a	n/a	0	0	0
4873.79	n/a	WORD	2436895	wordpools/wasnorm_wordpool_576.txt	LTP228	ltpFR2	16	22	ITEM	746	n/a	n/a	0	0	0
4876.534	n/a	WORD	2438267	wordpools/wasnorm_wordpool_576.txt	LTP228	ltpFR2	16	22	NOTEBOOK	959	n/a	n/a	0	0	0
4879.13	n/a	WORD	2439565	wordpools/wasnorm_wordpool_576.txt	LTP228	ltpFR2	16	22	BODY	145	n/a	n/a	0	0	0
4881.61	n/a	WORD	2440805	wordpools/wasnorm_wordpool_576.txt	LTP228	ltpFR2	16	22	DONOR	485	n/a	n/a	0	0	0
4884.388	n/a	WORD	2442194	wordpools/wasnorm_wordpool_576.txt	LTP228	ltpFR2	16	22	TAXI	1438	n/a	n/a	0	0	0
4886.952	n/a	WORD	2443476	wordpools/wasnorm_wordpool_576.txt	LTP228	ltpFR2	16	22	RACKET	1155	n/a	n/a	0	0	0
4889.43	n/a	WORD	2444715	wordpools/wasnorm_wordpool_576.txt	LTP228	ltpFR2	16	22	CATCHER	258	n/a	n/a	0	0	0
4891.862	n/a	WORD	2445931	wordpools/wasnorm_wordpool_576.txt	LTP228	ltpFR2	16	22	KLEENEX	782	n/a	n/a	0	0	0
4894.608	n/a	WORD	2447304	wordpools/wasnorm_wordpool_576.txt	LTP228	ltpFR2	16	22	COCKTAIL	338	n/a	n/a	0	0	0
4897.054	n/a	WORD	2448527	wordpools/wasnorm_wordpool_576.txt	LTP228	ltpFR2	16	22	SCOTCH	1251	n/a	n/a	0	0	0
4899.716	n/a	WORD	2449858	wordpools/wasnorm_wordpool_576.txt	LTP228	ltpFR2	16	22	FIREMAN	569	n/a	n/a	0	0	0
4902.396	n/a	WORD	2451198	wordpools/wasnorm_wordpool_576.txt	LTP228	ltpFR2	16	22	BRANDY	169	n/a	n/a	0	0	0
4905.174	n/a	WORD	2452587	wordpools/wasnorm_wordpool_576.txt	LTP228	ltpFR2	16	22	TABLET	1427	n/a	n/a	0	0	0
4907.706	n/a	WORD	2453853	wordpools/wasnorm_wordpool_576.txt	LTP228	ltpFR2	16	22	TART	1436	n/a	n/a	0	0	0
4910.316	n/a	WORD	2455158	wordpools/wasnorm_wordpool_576.txt	LTP228	ltpFR2	16	22	BROTHER	179	n/a	n/a	0	0	0
4911.932	n/a	START	2455966	n/a	LTP228	ltpFR2	16	n/a	n/a	n/a	33	n/a	n/a	n/a	n/a
4912.908	n/a	DISTRACTOR	2456454	n/a	LTP228	ltpFR2	16	22	n/a	n/a	n/a	n/a	0	0	0
4912.914	n/a	PROB	2456457	n/a	LTP228	ltpFR2	16	n/a	n/a	n/a	33	12	4	4	4
4914.294	n/a	PROB	2457147	n/a	LTP228	ltpFR2	16	n/a	n/a	n/a	33	21	9	6	6
4916.908	n/a	PROB	2458454	n/a	LTP228	ltpFR2	16	n/a	n/a	n/a	33	14	6	4	4
4919.088	n/a	PROB	2459544	n/a	LTP228	ltpFR2	16	n/a	n/a	n/a	33	12	4	1	7
4922.55	n/a	PROB	2461275	n/a	LTP228	ltpFR2	16	n/a	n/a	n/a	33	18	8	8	2
4924.314	n/a	PROB	2462157	n/a	LTP228	ltpFR2	16	n/a	n/a	n/a	33	19	7	7	5
4926.528	n/a	PROB	2463264	n/a	LTP228	ltpFR2	16	n/a	n/a	n/a	33	7	2	4	1
4930.922	n/a	PROB	2465461	n/a	LTP228	ltpFR2	16	n/a	n/a	n/a	33	16	3	7	6
4932.418	n/a	PROB	2466209	n/a	LTP228	ltpFR2	16	n/a	n/a	n/a	33	9	1	6	2
4934.546	n/a	STOP	2467273	n/a	LTP228	ltpFR2	16	n/a	n/a	n/a	33	n/a	n/a	n/a	n/a
4937.878	n/a	REC_START	2468939	n/a	LTP228	ltpFR2	16	22	n/a	n/a	n/a	n/a	0	0	0
4940.106	n/a	REC_WORD	2470053	wordpools/wasnorm_wordpool_576.txt	LTP228	ltpFR2	16	22	BUCKET	184	n/a	n/a	0	0	0
4940.758	n/a	REC_WORD	2470379	wordpools/wasnorm_wordpool_576.txt	LTP228	ltpFR2	16	22	VALVE	1546	n/a	n/a	0	0	0
4941.516	n/a	REC_WORD	2470758	wordpools/wasnorm_wordpool_576.txt	LTP228	ltpFR2	16	22	FLESH	579	n/a	n/a	0	0	0
4942.65	n/a	REC_WORD	2471325	wordpools/wasnorm_wordpool_576.txt	LTP228	ltpFR2	16	22	BODY	145	n/a	n/a	0	0	0
4943.574	n/a	REC_WORD	2471787	wordpools/wasnorm_wordpool_576.txt	LTP228	ltpFR2	16	22	DONOR	485	n/a	n/a	0	0	0
5028.562	n/a	WORD	2514281	wordpools/wasnorm_wordpool_576.txt	LTP228	ltpFR2	16	23	PEBBLE	1035	n/a	n/a	0	0	0
5031.008	n/a	WORD	2515504	wordpools/wasnorm_wordpool_576.txt	LTP228	ltpFR2	16	23	MILK	895	n/a	n/a	0	0	0
5033.67	n/a	WORD	2516835	wordpools/wasnorm_wordpool_576.txt	LTP228	ltpFR2	16	23	SANDWICH	1232	n/a	n/a	0	0	0
5036.432	n/a	WORD	2518216	wordpools/wasnorm_wordpool_576.txt	LTP228	ltpFR2	16	23	YACHT	1629	n/a	n/a	0	0	0
5039.062	n/a	WORD	2519531	wordpools/wasnorm_wordpool_576.txt	LTP228	ltpFR2	16	23	DOUGHNUT	490	n/a	n/a	0	0	0
5041.708	n/a	WORD	2520854	wordpools/wasnorm_wordpool_576.txt	LTP228	ltpFR2	16	23	PICNIC	1060	n/a	n/a	0	0	0
5044.27	n/a	WORD	2522135	wordpools/wasnorm_wordpool_576.txt	LTP228	ltpFR2	16	23	PRIMATE	1123	n/a	n/a	0	0	0
5046.868	n/a	WORD	2523434	wordpools/wasnorm_wordpool_576.txt	LTP228	ltpFR2	16	23	PLUTO	1092	n/a	n/a	0	0	0
5049.646	n/a	WORD	2524823	wordpools/wasnorm_wordpool_576.txt	LTP228	ltpFR2	16	23	PICTURE	1061	n/a	n/a	0	0	0
5052.226	n/a	WORD	2526113	wordpools/wasnorm_wordpool_576.txt	LTP228	ltpFR2	16	23	VIKING	1565	n/a	n/a	0	0	0
5054.972	n/a	WORD	2527486	wordpools/wasnorm_wordpool_576.txt	LTP228	ltpFR2	16	23	PACKAGE	997	n/a	n/a	0	0	0
5057.484	n/a	WORD	2528742	wordpools/wasnorm_wordpool_576.txt	LTP228	ltpFR2	16	23	COOKBOOK	373	n/a	n/a	0	0	0
