mstime	trial_type	stim_file	subject	experiment	session	trial	task	item_name	item_num	recog_resp	recog_conf	resp	color_r	color_g	color_b	case	font
0	SESS_START	n/a	LTP150	ltpFR	0	n/a	n/a	n/a	n/a	1	5	n/a	n/a	n/a	n/a	n/a	n/a
89507	WORD	wordpools/wasnorm_wordpool.txt	LTP150	ltpFR	0	1	-1	LAKE	796	1	n/a	-1	1.0	1.0	1	upper	Verdana.ttf
93364	WORD	wordpools/wasnorm_wordpool.txt	LTP150	ltpFR	0	1	-1	PENNY	1045	n/a	n/a	-1	1.0	1.0	1	upper	Verdana.ttf
97346	WORD	wordpools/wasnorm_wordpool.txt	LTP150	ltpFR	0	1	-1	GIRAFFE	636	n/a	n/a	-1	1.0	1.0	1	upper	Verdana.ttf
101427	WORD	wordpools/wasnorm_wordpool.txt	LTP150	ltpFR	0	1	-1	BIRD	129	n/a	n/a	-1	1.0	1.0	1	upper	Verdana.ttf
105301	WORD	wordpools/wasnorm_wordpool.txt	LTP150	ltpFR	0	1	-1	FIELD	562	n/a	n/a	-1	1.0	1.0	1	upper	Verdana.ttf
109116	WORD	wordpools/wasnorm_wordpool.txt	LTP150	ltpFR	0	1	-1	POOL	1103	n/a	n/a	-1	1.0	1.0	1	upper	Verdana.ttf
113273	WORD	wordpools/wasnorm_wordpool.txt	LTP150	ltpFR	0	1	-1	QUAIL	1147	n/a	n/a	-1	1.0	1.0	1	upper	Verdana.ttf
117247	WORD	wordpools/wasnorm_wordpool.txt	LTP150	ltpFR	0	1	-1	DINER	467	n/a	n/a	-1	1.0	1.0	1	upper	Verdana.ttf
121087	WORD	wordpools/wasnorm_wordpool.txt	LTP150	ltpFR	0	1	-1	OLIVE	975	n/a	n/a	-1	1.0	1.0	1	upper	Verdana.ttf
125127	WORD	wordpools/wasnorm_wordpool.txt	LTP150	ltpFR	0	1	-1	BEAVER	109	n/a	n/a	-1	1.0	1.0	1	upper	Verdana.ttf
129076	WORD	wordpools/wasnorm_wordpool.txt	LTP150	ltpFR	0	1	-1	PREDATOR	1120	n/a	n/a	-1	1.0	1.0	1	upper	Verdana.ttf
133208	WORD	wordpools/wasnorm_wordpool.txt	LTP150	ltpFR	0	1	-1	TAXI	1438	n/a	n/a	-1	1.0	1.0	1	upper	Verdana.ttf
137256	WORD	wordpools/wasnorm_wordpool.txt	LTP150	ltpFR	0	1	-1	MECHANIC	884	n/a	n/a	-1	1.0	1.0	1	upper	Verdana.ttf
141238	WORD	wordpools/wasnorm_wordpool.txt	LTP150	ltpFR	0	1	-1	SWITCH	1422	n/a	n/a	-1	1.0	1.0	1	upper	Verdana.ttf
145145	WORD	wordpools/wasnorm_wordpool.txt	LTP150	ltpFR	0	1	-1	TURKEY	1520	n/a	n/a	-1	1.0	1.0	1	upper	Verdana.ttf
149327	WORD	wordpools/wasnorm_wordpool.txt	LTP150	ltpFR	0	1	-1	RESTAURANT	1187	n/a	n/a	-1	1.0	1.0	1	upper	Verdana.ttf
155042	REC_START	n/a	LTP150	ltpFR	0	1	n/a	n/a	n/a	n/a	n/a	n/a	n/a	n/a	n/a	n/a	n/a
158050	REC_WORD	wordpools/wasnorm_wordpool.txt	LTP150	ltpFR	0	1	-1	LAKE	796	n/a	n/a	-1	n/a	n/a	n/a	n/a	n/a
159417	REC_WORD	wordpools/wasnorm_wordpool.txt	LTP150	ltpFR	0	1	-1	GIRAFFE	636	n/a	n/a	-1	n/a	n/a	n/a	n/a	n/a
161178	REC_WORD	wordpools/wasnorm_wordpool.txt	LTP150	ltpFR	0	1	-1	BIRD	129	n/a	n/a	-1	n/a	n/a	n/a	n/a	n/a
162952	REC_WORD	wordpools/wasnorm_wordpool.txt	LTP150	ltpFR	0	1	-1	FIELD	562	n/a	n/a	-1	n/a	n/a	n/a	n/a	n/a
164570	REC_WORD	wordpools/wasnorm_wordpool.txt	LTP150	ltpFR	0	1	-1	POOL	1103	n/a	n/a	-1	n/a	n/a	n/a	n/a	n/a
166131	REC_WORD	wordpools/wasnorm_wordpool.txt	LTP150	ltpFR	0	1	-1	QUAIL	1147	n/a	n/a	-1	n/a	n/a	n/a	n/a	n/a
169010	REC_WORD	wordpools/wasnorm_wordpool.txt	LTP150	ltpFR	0	1	-1	PENNY	1045	n/a	n/a	-1	n/a	n/a	n/a	n/a	n/a
170221	REC_WORD	wordpools/wasnorm_wordpool.txt	LTP150	ltpFR	0	1	-1	RESTAURANT	1187	n/a	n/a	-1	n/a	n/a	n/a	n/a	n/a
175635	REC_WORD	wordpools/wasnorm_wordpool.txt	LTP150	ltpFR	0	1	-1	TAXI	1438	n/a	n/a	-1	n/a	n/a	n/a	n/a	n/a
177685	REC_WORD	wordpools/wasnorm_wordpool.txt	LTP150	ltpFR	0	1	-1	MECHANIC	884	n/a	n/a	-1	n/a	n/a	n/a	n/a	n/a
180579	REC_WORD	wordpools/wasnorm_wordpool.txt	LTP150	ltpFR	0	1	-1	SWITCH	1422	n/a	n/a	-1	n/a	n/a	n/a	n/a	n/a
191267	REC_WORD	wordpools/wasnorm_wordpool.txt	LTP150	ltpFR	0	1	-1	BEAVER	109	n/a	n/a	-1	n/a	n/a	n/a	n/a	n/a
195186	REC_WORD	wordpools/wasnorm_wordpool.txt	LTP150	ltpFR	0	1	-1	OLIVE	975	n/a	n/a	-1	n/a	n/a	n/a	n/a	n/a
239960	WORD	wordpools/wasnorm_wordpool.txt	LTP150	ltpFR	0	2	-1	CHURCH	307	n/a	n/a	-1	1.0	1.0	1	upper	Verdana.ttf
243818	WORD	wordpools/wasnorm_wordpool.txt	LTP150	ltpFR	0	2	-1	COUNTRY	388	n/a	n/a	-1	1.0	1.0	1	upper	Verdana.ttf
247634	WORD	wordpools/wasnorm_wordpool.txt	LTP150	ltpFR	0	2	-1	SAILOR	1223	n/a	n/a	-1	1.0	1.0	1	upper	Verdana.ttf
251732	WORD	wordpools/wasnorm_wordpool.txt	LTP150	ltpFR	0	2	-1	DICE	461	n/a	n/a	-1	1.0	1.0	1	upper	Verdana.ttf
255664	WORD	wordpools/wasnorm_wordpool.txt	LTP150	ltpFR	0	2	-1	FLEET	578	n/a	n/a	-1	1.0	1.0	1	upper	Verdana.ttf
259638	WORD	wordpools/wasnorm_wordpool.txt	LTP150	ltpFR	0	2	-1	FLASK	576	n/a	n/a	-1	1.0	1.0	1	upper	Verdana.ttf
263778	WORD	wordpools/wasnorm_wordpool.txt	LTP150	ltpFR	0	2	-1	CHEMICAL	291	n/a	n/a	-1	1.0	1.0	1	upper	Verdana.ttf
267643	WORD	wordpools/wasnorm_wordpool.txt	LTP150	ltpFR	0	2	-1	FREEZER	604	n/a	n/a	-1	1.0	1.0	1	upper	Verdana.ttf
271784	WORD	wordpools/wasnorm_wordpool.txt	LTP150	ltpFR	0	2	-1	SEA	1259	n/a	n/a	-1	1.0	1.0	1	upper	Verdana.ttf
275682	WORD	wordpools/wasnorm_wordpool.txt	LTP150	ltpFR	0	2	-1	VOLLEYBALL	1576	n/a	n/a	-1	1.0	1.0	1	upper	Verdana.ttf
279831	WORD	wordpools/wasnorm_wordpool.txt	LTP150	ltpFR	0	2	-1	OX	994	n/a	n/a	-1	1.0	1.0	1	upper	Verdana.ttf
283796	WORD	wordpools/wasnorm_wordpool.txt	LTP150	ltpFR	0	2	-1	CACTUS	215	n/a	n/a	-1	1.0	1.0	1	upper	Verdana.ttf
287719	WORD	wordpools/wasnorm_wordpool.txt	LTP150	ltpFR	0	2	-1	IGLOO	734	n/a	n/a	-1	1.0	1.0	1	upper	Verdana.ttf
291735	WORD	wordpools/wasnorm_wordpool.txt	LTP150	ltpFR	0	2	-1	ELEVATOR	524	n/a	n/a	-1	1.0	1.0	1	upper	Verdana.ttf
295750	WORD	wordpools/wasnorm_wordpool.txt	LTP150	ltpFR	0	2	-1	ORANGE	980	n/a	n/a	-1	1.0	1.0	1	upper	Verdana.ttf
299840	WORD	wordpools/wasnorm_wordpool.txt	LTP150	ltpFR	0	2	-1	CITRUS	313	n/a	n/a	-1	1.0	1.0	1	upper	Verdana.ttf
305589	REC_START	n/a	LTP150	ltpFR	0	2	n/a	n/a	n/a	n/a	n/a	n/a	n/a	n/a	n/a	n/a	n/a
307340	REC_WORD	wordpools/wasnorm_wordpool.txt	LTP150	ltpFR	0	2	-1	CITRUS	313	n/a	n/a	-1	n/a	n/a	n/a	n/a	n/a
308722	REC_WORD	wordpools/wasnorm_wordpool.txt	LTP150	ltpFR	0	2	-1	ORANGE	980	n/a	n/a	-1	n/a	n/a	n/a	n/a	n/a
309722	REC_WORD_VV	wordpools/wasnorm_wordpool.txt	LTP150	ltpFR	0	2	n/a	<>	-1	n/a	n/a	n/a	n/a	n/a	n/a	n/a	n/a
312124	REC_WORD	wordpools/wasnorm_wordpool.txt	LTP150	ltpFR	0	2	-1	CACTUS	215	n/a	n/a	-1	n/a	n/a	n/a	n/a	n/a
313695	REC_WORD	wordpools/wasnorm_wordpool.txt	LTP150	ltpFR	0	2	-1	OX	994	n/a	n/a	-1	n/a	n/a	n/a	n/a	n/a
315082	REC_WORD	wordpools/wasnorm_wordpool.txt	LTP150	ltpFR	0	2	-1	IGLOO	734	n/a	n/a	-1	n/a	n/a	n/a	n/a	n/a
323558	REC_WORD	wordpools/wasnorm_wordpool.txt	LTP150	ltpFR	0	2	-1	FLEET	578	n/a	n/a	-1	n/a	n/a	n/a	n/a	n/a
325293	REC_WORD	wordpools/wasnorm_wordpool.txt	LTP150	ltpFR	0	2	-1	FLASK	576	n/a	n/a	-1	n/a	n/a	n/a	n/a	n/a
327414	REC_WORD	wordpools/wasnorm_wordpool.txt	LTP150	ltpFR	0	2	-1	CHEMICAL	291	n/a	n/a	-1	n/a	n/a	n/a	n/a	n/a
331684	REC_WORD	wordpools/wasnorm_wordpool.txt	LTP150	ltpFR	0	2	-1	CHURCH	307	n/a	n/a	-1	n/a	n/a	n/a	n/a	n/a
334149	REC_WORD	wordpools/wasnorm_wordpool.txt	LTP150	ltpFR	0	2	-1	COUNTRY	388	n/a	n/a	-1	n/a	n/a	n/a	n/a	n/a
355201	REC_WORD	wordpools/wasnorm_wordpool.txt	LTP150	ltpFR	0	2	-1	SAILOR	1223	n/a	n/a	-1	n/a	n/a	n/a	n/a	n/a
391291	WORD	wordpools/wasnorm_wordpool.txt	LTP150	ltpFR	0	3	-1	OUTDOORS	987	n/a	n/a	-1	1.0	1.0	1	upper	Verdana.ttf
395498	WORD	wordpools/wasnorm_wordpool.txt	LTP150	ltpFR	0	3	-1	SCALPEL	1243	n/a	n/a	-1	1.0	1.0	1	upper	Verdana.ttf
399455	WORD	wordpools/wasnorm_wordpool.txt	LTP150	ltpFR	0	3	-1	SCHOOL	1248	n/a	n/a	-1	1.0	1.0	1	upper	Verdana.ttf
403553	WORD	wordpools/wasnorm_wordpool.txt	LTP150	ltpFR	0	3	-1	SPOOL	1356	n/a	n/a	-1	1.0	1.0	1	upper	Verdana.ttf
407635	WORD	wordpools/wasnorm_wordpool.txt	LTP150	ltpFR	0	3	-1	HAYSTACK	694	n/a	n/a	-1	1.0	1.0	1	upper	Verdana.ttf
411450	WORD	wordpools/wasnorm_wordpool.txt	LTP150	ltpFR	0	3	-1	PARSLEY	1016	n/a	n/a	-1	1.0	1.0	1	upper	Verdana.ttf
415432	WORD	wordpools/wasnorm_wordpool.txt	LTP150	ltpFR	0	3	-1	WRIST	1626	n/a	n/a	-1	1.0	1.0	1	upper	Verdana.ttf
419431	WORD	wordpools/wasnorm_wordpool.txt	LTP150	ltpFR	0	3	-1	SPINACH	1352	n/a	n/a	-1	1.0	1.0	1	upper	Verdana.ttf
423546	WORD	wordpools/wasnorm_wordpool.txt	LTP150	ltpFR	0	3	-1	CHEESE	289	n/a	n/a	-1	1.0	1.0	1	upper	Verdana.ttf
427678	WORD	wordpools/wasnorm_wordpool.txt	LTP150	ltpFR	0	3	-1	APPENDAGE	32	n/a	n/a	-1	1.0	1.0	1	upper	Verdana.ttf
431785	WORD	wordpools/wasnorm_wordpool.txt	LTP150	ltpFR	0	3	-1	BREAST	171	n/a	n/a	-1	1.0	1.0	1	upper	Verdana.ttf
435867	WORD	wordpools/wasnorm_wordpool.txt	LTP150	ltpFR	0	3	-1	SALT	1229	n/a	n/a	-1	1.0	1.0	1	upper	Verdana.ttf
439690	WORD	wordpools/wasnorm_wordpool.txt	LTP150	ltpFR	0	3	-1	YACHT	1629	n/a	n/a	-1	1.0	1.0	1	upper	Verdana.ttf
443689	WORD	wordpools/wasnorm_wordpool.txt	LTP150	ltpFR	0	3	-1	CREEK	404	n/a	n/a	-1	1.0	1.0	1	upper	Verdana.ttf
447729	WORD	wordpools/wasnorm_wordpool.txt	LTP150	ltpFR	0	3	-1	MASK	876	n/a	n/a	-1	1.0	1.0	1	upper	Verdana.ttf
451828	WORD	wordpools/wasnorm_wordpool.txt	LTP150	ltpFR	0	3	-1	FACE	547	n/a	n/a	-1	1.0	1.0	1	upper	Verdana.ttf
457743	REC_START	n/a	LTP150	ltpFR	0	3	n/a	n/a	n/a	n/a	n/a	n/a	n/a	n/a	n/a	n/a	n/a
459384	REC_WORD	wordpools/wasnorm_wordpool.txt	LTP150	ltpFR	0	3	-1	FACE	547	n/a	n/a	-1	n/a	n/a	n/a	n/a	n/a
460771	REC_WORD	wordpools/wasnorm_wordpool.txt	LTP150	ltpFR	0	3	-1	MASK	876	n/a	n/a	-1	n/a	n/a	n/a	n/a	n/a
463823	REC_WORD	wordpools/wasnorm_wordpool.txt	LTP150	ltpFR	0	3	-1	APPENDAGE	32	n/a	n/a	-1	n/a	n/a	n/a	n/a	n/a
472235	REC_WORD	wordpools/wasnorm_wordpool.txt	LTP150	ltpFR	0	3	-1	HAYSTACK	694	n/a	n/a	-1	n/a	n/a	n/a	n/a	n/a
474403	REC_WORD	wordpools/wasnorm_wordpool.txt	LTP150	ltpFR	0	3	-1	SPOOL	1356	n/a	n/a	-1	n/a	n/a	n/a	n/a	n/a
479523	REC_WORD	wordpools/wasnorm_wordpool.txt	LTP150	ltpFR	0	3	-1	SCALPEL	1243	n/a	n/a	-1	n/a	n/a	n/a	n/a	n/a
481648	REC_WORD	wordpools/wasnorm_wordpool.txt	LTP150	ltpFR	0	3	-1	OUTDOORS	987	n/a	n/a	-1	n/a	n/a	n/a	n/a	n/a
490199	REC_WORD	wordpools/wasnorm_wordpool.txt	LTP150	ltpFR	0	3	-1	YACHT	1629	n/a	n/a	-1	n/a	n/a	n/a	n/a	n/a
514170	REC_WORD	wordpools/wasnorm_wordpool.txt	LTP150	ltpFR	0	3	-1	SCHOOL	1248	n/a	n/a	-1	n/a	n/a	n/a	n/a	n/a
539372	WORD	wordpools/wasnorm_wordpool.txt	LTP150	ltpFR	0	4	-1	ASTRONAUT	51	n/a	n/a	-1	1.0	1.0	1	upper	Verdana.ttf
543437	WORD	wordpools/wasnorm_wordpool.txt	LTP150	ltpFR	0	4	-1	SATURN	1236	n/a	n/a	-1	1.0	1.0	1	upper	Verdana.ttf
547410	WORD	wordpools/wasnorm_wordpool.txt	LTP150	ltpFR	0	4	-1	BEE	112	n/a	n/a	-1	1.0	1.0	1	upper	Verdana.ttf
551267	WORD	wordpools/wasnorm_wordpool.txt	LTP150	ltpFR	0	4	-1	MICROSCOPE	891	n/a	n/a	-1	1.0	1.0	1	upper	Verdana.ttf
555316	WORD	wordpools/wasnorm_wordpool.txt	LTP150	ltpFR	0	4	-1	ICING	732	n/a	n/a	-1	1.0	1.0	1	upper	Verdana.ttf
559473	WORD	wordpools/wasnorm_wordpool.txt	LTP150	ltpFR	0	4	-1	WHEAT	1602	n/a	n/a	-1	1.0	1.0	1	upper	Verdana.ttf
563563	WORD	wordpools/wasnorm_wordpool.txt	LTP150	ltpFR	0	4	-1	ELECTRON	522	n/a	n/a	-1	1.0	1.0	1	upper	Verdana.ttf
567387	WORD	wordpools/wasnorm_wordpool.txt	LTP150	ltpFR	0	4	-1	CAKE	219	n/a	n/a	-1	1.0	1.0	1	upper	Verdana.ttf
571510	WORD	wordpools/wasnorm_wordpool.txt	LTP150	ltpFR	0	4	-1	EYELASH	546	n/a	n/a	-1	1.0	1.0	1	upper	Verdana.ttf
575700	WORD	wordpools/wasnorm_wordpool.txt	LTP150	ltpFR	0	4	-1	RICE	1190	n/a	n/a	-1	1.0	1.0	1	upper	Verdana.ttf
579741	WORD	wordpools/wasnorm_wordpool.txt	LTP150	ltpFR	0	4	-1	PAPER	1011	n/a	n/a	-1	1.0	1.0	1	upper	Verdana.ttf
583764	WORD	wordpools/wasnorm_wordpool.txt	LTP150	ltpFR	0	4	-1	PENCIL	1042	n/a	n/a	-1	1.0	1.0	1	upper	Verdana.ttf
587663	WORD	wordpools/wasnorm_wordpool.txt	LTP150	ltpFR	0	4	-1	STEREO	1378	n/a	n/a	-1	1.0	1.0	1	upper	Verdana.ttf
591811	WORD	wordpools/wasnorm_wordpool.txt	LTP150	ltpFR	0	4	-1	HARP	689	n/a	n/a	-1	1.0	1.0	1	upper	Verdana.ttf
595934	WORD	wordpools/wasnorm_wordpool.txt	LTP150	ltpFR	0	4	-1	MARROW	872	n/a	n/a	-1	1.0	1.0	1	upper	Verdana.ttf
599808	WORD	wordpools/wasnorm_wordpool.txt	LTP150	ltpFR	0	4	-1	MOVIE	927	n/a	n/a	-1	1.0	1.0	1	upper	Verdana.ttf
605699	REC_START	n/a	LTP150	ltpFR	0	4	n/a	n/a	n/a	n/a	n/a	n/a	n/a	n/a	n/a	n/a	n/a
607199	REC_WORD	wordpools/wasnorm_wordpool.txt	LTP150	ltpFR	0	4	-1	MOVIE	927	n/a	n/a	-1	n/a	n/a	n/a	n/a	n/a
608537	REC_WORD	wordpools/wasnorm_wordpool.txt	LTP150	ltpFR	0	4	-1	HARP	689	n/a	n/a	-1	n/a	n/a	n/a	n/a	n/a
609869	REC_WORD	wordpools/wasnorm_wordpool.txt	LTP150	ltpFR	0	4	-1	STEREO	1378	n/a	n/a	-1	n/a	n/a	n/a	n/a	n/a
612793	REC_WORD	wordpools/wasnorm_wordpool.txt	LTP150	ltpFR	0	4	-1	ASTRONAUT	51	n/a	n/a	-1	n/a	n/a	n/a	n/a	n/a
617492	REC_WORD	wordpools/wasnorm_wordpool.txt	LTP150	ltpFR	0	4	-1	SATURN	1236	n/a	n/a	-1	n/a	n/a	n/a	n/a	n/a
619622	REC_WORD	wordpools/wasnorm_wordpool.txt	LTP150	ltpFR	0	4	-1	BEE	112	n/a	n/a	-1	n/a	n/a	n/a	n/a	n/a
622441	REC_WORD	wordpools/wasnorm_wordpool.txt	LTP150	ltpFR	0	4	-1	WHEAT	1602	n/a	n/a	-1	n/a	n/a	n/a	n/a	n/a
624711	REC_WORD	wordpools/wasnorm_wordpool.txt	LTP150	ltpFR	0	4	-1	RICE	1190	n/a	n/a	-1	n/a	n/a	n/a	n/a	n/a
627579	REC_WORD	wordpools/wasnorm_wordpool.txt	LTP150	ltpFR	0	4	-1	PAPER	1011	n/a	n/a	-1	n/a	n/a	n/a	n/a	n/a
631979	REC_WORD	wordpools/wasnorm_wordpool.txt	LTP150	ltpFR	0	4	-1	MICROSCOPE	891	n/a	n/a	-1	n/a	n/a	n/a	n/a	n/a
634129	REC_WORD	wordpools/wasnorm_wordpool.txt	LTP150	ltpFR	0	4	-1	ELECTRON	522	n/a	n/a	-1	n/a	n/a	n/a	n/a	n/a
636254	REC_WORD	wordpools/wasnorm_wordpool.txt	LTP150	ltpFR	0	4	-1	EYELASH	546	n/a	n/a	-1	n/a	n/a	n/a	n/a	n/a
646451	REC_WORD	wordpools/wasnorm_wordpool.txt	LTP150	ltpFR	0	4	-1	ICING	732	n/a	n/a	-1	n/a	n/a	n/a	n/a	n/a
667319	REC_WORD	wordpools/wasnorm_wordpool.txt	LTP150	ltpFR	0	4	-1	CAKE	219	n/a	n/a	-1	n/a	n/a	n/a	n/a	n/a
920319	WORD	wordpools/wasnorm_wordpool.txt	LTP150	ltpFR	0	5	0	CHEF	290	n/a	n/a	0	0.422607421875	0.5869140625	0	lower	zerothre.ttf
924226	WORD	wordpools/wasnorm_wordpool.txt	LTP150	ltpFR	0	5	0	CHAUFFEUR	283	n/a	n/a	1	0.422607421875	0.5869140625	0	lower	zerothre.ttf
928266	WORD	wordpools/wasnorm_wordpool.txt	LTP150	ltpFR	0	5	0	MAJOR	859	n/a	n/a	1	0.422607421875	0.5869140625	0	lower	zerothre.ttf
932132	WORD	wordpools/wasnorm_wordpool.txt	LTP150	ltpFR	0	5	0	BISCUIT	130	n/a	n/a	0	0.422607421875	0.5869140625	0	lower	zerothre.ttf
936147	WORD	wordpools/wasnorm_wordpool.txt	LTP150	ltpFR	0	5	0	FIDDLE	561	n/a	n/a	1	0.422607421875	0.5869140625	0	lower	zerothre.ttf
940245	WORD	wordpools/wasnorm_wordpool.txt	LTP150	ltpFR	0	5	0	SAXOPHONE	1240	n/a	n/a	1	0.422607421875	0.5869140625	0	lower	zerothre.ttf
944094	WORD	wordpools/wasnorm_wordpool.txt	LTP150	ltpFR	0	5	0	BEAN	105	n/a	n/a	0	0.422607421875	0.5869140625	0	lower	zerothre.ttf
948109	WORD	wordpools/wasnorm_wordpool.txt	LTP150	ltpFR	0	5	0	SEASHORE	1263	n/a	n/a	1	0.422607421875	0.5869140625	0	lower	zerothre.ttf
952041	WORD	wordpools/wasnorm_wordpool.txt	LTP150	ltpFR	0	5	0	TAG	1429	n/a	n/a	0	0.422607421875	0.5869140625	0	lower	zerothre.ttf
955914	WORD	wordpools/wasnorm_wordpool.txt	LTP150	ltpFR	0	5	0	VEHICLE	1553	n/a	n/a	0	0.422607421875	0.5869140625	0	lower	zerothre.ttf
959764	WORD	wordpools/wasnorm_wordpool.txt	LTP150	ltpFR	0	5	0	POSSUM	1112	n/a	n/a	1	0.422607421875	0.5869140625	0	lower	zerothre.ttf
963745	WORD	wordpools/wasnorm_wordpool.txt	LTP150	ltpFR	0	5	0	MULE	931	n/a	n/a	1	0.422607421875	0.5869140625	0	lower	zerothre.ttf
967926	WORD	wordpools/wasnorm_wordpool.txt	LTP150	ltpFR	0	5	0	EMERALD	528	n/a	n/a	0	0.422607421875	0.5869140625	0	lower	zerothre.ttf
972092	WORD	wordpools/wasnorm_wordpool.txt	LTP150	ltpFR	0	5	0	PHOTO	1055	n/a	n/a	1	0.422607421875	0.5869140625	0	lower	zerothre.ttf
976033	WORD	wordpools/wasnorm_wordpool.txt	LTP150	ltpFR	0	5	0	RADISH	1158	n/a	n/a	0	0.422607421875	0.5869140625	0	lower	zerothre.ttf
980206	WORD	wordpools/wasnorm_wordpool.txt	LTP150	ltpFR	0	5	0	ROUGE	1213	n/a	n/a	0	0.422607421875	0.5869140625	0	lower	zerothre.ttf
985988	REC_START	n/a	LTP150	ltpFR	0	5	n/a	n/a	n/a	n/a	n/a	n/a	n/a	n/a	n/a	n/a	n/a
986980	REC_WORD	wordpools/wasnorm_wordpool.txt	LTP150	ltpFR	0	5	n/a	ROSE	1212	n/a	n/a	n/a	n/a	n/a	n/a	n/a	n/a
988446	REC_WORD	wordpools/wasnorm_wordpool.txt	LTP150	ltpFR	0	5	0	ROUGE	1213	n/a	n/a	0	n/a	n/a	n/a	n/a	n/a
989474	REC_WORD_VV	wordpools/wasnorm_wordpool.txt	LTP150	ltpFR	0	5	n/a	<>	-1	n/a	n/a	n/a	n/a	n/a	n/a	n/a	n/a
990474	REC_WORD_VV	wordpools/wasnorm_wordpool.txt	LTP150	ltpFR	0	5	n/a	<>	-1	n/a	n/a	n/a	n/a	n/a	n/a	n/a	n/a
991474	REC_WORD_VV	wordpools/wasnorm_wordpool.txt	LTP150	ltpFR	0	5	n/a	<>	-1	n/a	n/a	n/a	n/a	n/a	n/a	n/a	n/a
992523	REC_WORD	wordpools/wasnorm_wordpool.txt	LTP150	ltpFR	0	5	0	BEAN	105	n/a	n/a	0	n/a	n/a	n/a	n/a	n/a
994289	REC_WORD	wordpools/wasnorm_wordpool.txt	LTP150	ltpFR	0	5	0	CHAUFFEUR	283	n/a	n/a	1	n/a	n/a	n/a	n/a	n/a
996663	REC_WORD	wordpools/wasnorm_wordpool.txt	LTP150	ltpFR	0	5	0	MAJOR	859	n/a	n/a	1	n/a	n/a	n/a	n/a	n/a
1006706	REC_WORD	wordpools/wasnorm_wordpool.txt	LTP150	ltpFR	0	5	0	FIDDLE	561	n/a	n/a	1	n/a	n/a	n/a	n/a	n/a
1012942	REC_WORD	wordpools/wasnorm_wordpool.txt	LTP150	ltpFR	0	5	0	TAG	1429	n/a	n/a	0	n/a	n/a	n/a	n/a	n/a
1016184	REC_WORD	wordpools/wasnorm_wordpool.txt	LTP150	ltpFR	0	5	0	EMERALD	528	n/a	n/a	0	n/a	n/a	n/a	n/a	n/a
1054965	REC_WORD	wordpools/wasnorm_wordpool.txt	LTP150	ltpFR	0	5	0	VEHICLE	1553	n/a	n/a	0	n/a	n/a	n/a	n/a	n/a
1078380	WORD	wordpools/wasnorm_wordpool.txt	LTP150	ltpFR	0	6	0	HURRICANE	727	n/a	n/a	1	0.422607421875	0.5869140625	0	lower	zerothre.ttf
1082295	WORD	wordpools/wasnorm_wordpool.txt	LTP150	ltpFR	0	6	0	CYCLONE	431	n/a	n/a	1	0.422607421875	0.5869140625	0	lower	zerothre.ttf
1086468	WORD	wordpools/wasnorm_wordpool.txt	LTP150	ltpFR	0	6	0	LONDON	843	n/a	n/a	1	0.422607421875	0.5869140625	0	lower	zerothre.ttf
1090425	WORD	wordpools/wasnorm_wordpool.txt	LTP150	ltpFR	0	6	0	BROOM	178	n/a	n/a	1	0.422607421875	0.5869140625	0	lower	zerothre.ttf
1094490	WORD	wordpools/wasnorm_wordpool.txt	LTP150	ltpFR	0	6	0	CITIZEN	312	n/a	n/a	1	0.422607421875	0.5869140625	0	lower	zerothre.ttf
1098631	WORD	wordpools/wasnorm_wordpool.txt	LTP150	ltpFR	0	6	0	CONCRETE	361	n/a	n/a	1	0.422607421875	0.5869140625	0	lower	zerothre.ttf
1102629	WORD	wordpools/wasnorm_wordpool.txt	LTP150	ltpFR	0	6	0	KIDNEY	776	n/a	n/a	0	0.422607421875	0.5869140625	0	lower	zerothre.ttf
1106769	WORD	wordpools/wasnorm_wordpool.txt	LTP150	ltpFR	0	6	0	TERMITE	1451	n/a	n/a	0	0.422607421875	0.5869140625	0	lower	zerothre.ttf
1110685	WORD	wordpools/wasnorm_wordpool.txt	LTP150	ltpFR	0	6	0	SWATTER	1418	n/a	n/a	0	0.422607421875	0.5869140625	0	lower	zerothre.ttf
1114783	WORD	wordpools/wasnorm_wordpool.txt	LTP150	ltpFR	0	6	0	BRACES	164	n/a	n/a	0	0.422607421875	0.5869140625	0	lower	zerothre.ttf
1118790	WORD	wordpools/wasnorm_wordpool.txt	LTP150	ltpFR	0	6	0	CART	250	n/a	n/a	1	0.422607421875	0.5869140625	0	lower	zerothre.ttf
1122631	WORD	wordpools/wasnorm_wordpool.txt	LTP150	ltpFR	0	6	0	ACTOR	5	n/a	n/a	1	0.422607421875	0.5869140625	0	lower	zerothre.ttf
1126596	WORD	wordpools/wasnorm_wordpool.txt	LTP150	ltpFR	0	6	0	SKULL	1320	n/a	n/a	1	0.422607421875	0.5869140625	0	lower	zerothre.ttf
1130794	WORD	wordpools/wasnorm_wordpool.txt	LTP150	ltpFR	0	6	0	DENTIST	447	n/a	n/a	1	0.422607421875	0.5869140625	0	lower	zerothre.ttf
1134709	WORD	wordpools/wasnorm_wordpool.txt	LTP150	ltpFR	0	6	0	TACK	1428	n/a	n/a	0	0.422607421875	0.5869140625	0	lower	zerothre.ttf
1138666	WORD	wordpools/wasnorm_wordpool.txt	LTP150	ltpFR	0	6	0	SCREEN	1253	n/a	n/a	1	0.422607421875	0.5869140625	0	lower	zerothre.ttf
1144482	REC_START	n/a	LTP150	ltpFR	0	6	n/a	n/a	n/a	n/a	n/a	n/a	n/a	n/a	n/a	n/a	n/a
1145948	REC_WORD	wordpools/wasnorm_wordpool.txt	LTP150	ltpFR	0	6	0	SCREEN	1253	n/a	n/a	1	n/a	n/a	n/a	n/a	n/a
1147889	REC_WORD	wordpools/wasnorm_wordpool.txt	LTP150	ltpFR	0	6	0	DENTIST	447	n/a	n/a	1	n/a	n/a	n/a	n/a	n/a
1149570	REC_WORD	wordpools/wasnorm_wordpool.txt	LTP150	ltpFR	0	6	0	TACK	1428	n/a	n/a	0	n/a	n/a	n/a	n/a	n/a
1151062	REC_WORD	wordpools/wasnorm_wordpool.txt	LTP150	ltpFR	0	6	0	SKULL	1320	n/a	n/a	1	n/a	n/a	n/a	n/a	n/a
1164756	REC_WORD	wordpools/wasnorm_wordpool.txt	LTP150	ltpFR	0	6	0	HURRICANE	727	n/a	n/a	1	n/a	n/a	n/a	n/a	n/a
1166122	REC_WORD	wordpools/wasnorm_wordpool.txt	LTP150	ltpFR	0	6	0	CYCLONE	431	n/a	n/a	1	n/a	n/a	n/a	n/a	n/a
1167804	REC_WORD	wordpools/wasnorm_wordpool.txt	LTP150	ltpFR	0	6	0	BROOM	178	n/a	n/a	1	n/a	n/a	n/a	n/a	n/a
1171001	REC_WORD	wordpools/wasnorm_wordpool.txt	LTP150	ltpFR	0	6	0	SWATTER	1418	n/a	n/a	0	n/a	n/a	n/a	n/a	n/a
1173142	REC_WORD	wordpools/wasnorm_wordpool.txt	LTP150	ltpFR	0	6	0	TERMITE	1451	n/a	n/a	0	n/a	n/a	n/a	n/a	n/a
1226444	WORD	wordpools/wasnorm_wordpool.txt	LTP150	ltpFR	0	7	0	DRIVEWAY	500	n/a	n/a	1	0.422607421875	0.5869140625	0	lower	zerothre.ttf
1230292	WORD	wordpools/wasnorm_wordpool.txt	LTP150	ltpFR	0	7	0	VAN	1548	n/a	n/a	1	0.422607421875	0.5869140625	0	lower	zerothre.ttf
1234149	WORD	wordpools/wasnorm_wordpool.txt	LTP150	ltpFR	0	7	0	LINT	826	n/a	n/a	0	0.422607421875	0.5869140625	0	lower	zerothre.ttf
1237963	WORD	wordpools/wasnorm_wordpool.txt	LTP150	ltpFR	0	7	0	SPONGE	1355	n/a	n/a	0	0.422607421875	0.5869140625	0	lower	zerothre.ttf
1241830	WORD	wordpools/wasnorm_wordpool.txt	LTP150	ltpFR	0	7	0	APPLE	33	n/a	n/a	0	0.422607421875	0.5869140625	0	lower	zerothre.ttf
1245678	WORD	wordpools/wasnorm_wordpool.txt	LTP150	ltpFR	0	7	0	DISH	474	n/a	n/a	0	0.422607421875	0.5869140625	0	lower	zerothre.ttf
1249519	WORD	wordpools/wasnorm_wordpool.txt	LTP150	ltpFR	0	7	0	DORM	488	n/a	n/a	1	0.422607421875	0.5869140625	0	lower	zerothre.ttf
1253351	WORD	wordpools/wasnorm_wordpool.txt	LTP150	ltpFR	0	7	0	PROFESSOR	1131	n/a	n/a	1	0.422607421875	0.5869140625	0	lower	zerothre.ttf
1257216	WORD	wordpools/wasnorm_wordpool.txt	LTP150	ltpFR	0	7	0	RAZOR	1171	n/a	n/a	0	0.422607421875	0.5869140625	0	lower	zerothre.ttf
1261423	WORD	wordpools/wasnorm_wordpool.txt	LTP150	ltpFR	0	7	0	HATCHET	691	n/a	n/a	0	0.422607421875	0.5869140625	0	lower	zerothre.ttf
1265363	WORD	wordpools/wasnorm_wordpool.txt	LTP150	ltpFR	0	7	0	CEREAL	272	n/a	n/a	0	0.422607421875	0.5869140625	0	lower	zerothre.ttf
1269303	WORD	wordpools/wasnorm_wordpool.txt	LTP150	ltpFR	0	7	0	SILK	1307	n/a	n/a	0	0.422607421875	0.5869140625	0	lower	zerothre.ttf
1273327	WORD	wordpools/wasnorm_wordpool.txt	LTP150	ltpFR	0	7	0	RESORT	1186	n/a	n/a	1	0.422607421875	0.5869140625	0	lower	zerothre.ttf
1277525	WORD	wordpools/wasnorm_wordpool.txt	LTP150	ltpFR	0	7	0	TANGERINE	1431	n/a	n/a	0	0.422607421875	0.5869140625	0	lower	zerothre.ttf
1281532	WORD	wordpools/wasnorm_wordpool.txt	LTP150	ltpFR	0	7	0	QUILL	1150	n/a	n/a	0	0.422607421875	0.5869140625	0	lower	zerothre.ttf
1285556	WORD	wordpools/wasnorm_wordpool.txt	LTP150	ltpFR	0	7	0	NAPKIN	937	n/a	n/a	0	0.422607421875	0.5869140625	0	lower	zerothre.ttf
1291571	REC_START	n/a	LTP150	ltpFR	0	7	n/a	n/a	n/a	n/a	n/a	n/a	n/a	n/a	n/a	n/a	n/a
1292723	REC_WORD	wordpools/wasnorm_wordpool.txt	LTP150	ltpFR	0	7	0	NAPKIN	937	n/a	n/a	0	n/a	n/a	n/a	n/a	n/a
1294379	REC_WORD	wordpools/wasnorm_wordpool.txt	LTP150	ltpFR	0	7	0	QUILL	1150	n/a	n/a	0	n/a	n/a	n/a	n/a	n/a
1296095	REC_WORD	wordpools/wasnorm_wordpool.txt	LTP150	ltpFR	0	7	0	SPONGE	1355	n/a	n/a	0	n/a	n/a	n/a	n/a	n/a
1298300	REC_WORD	wordpools/wasnorm_wordpool.txt	LTP150	ltpFR	0	7	0	DISH	474	n/a	n/a	0	n/a	n/a	n/a	n/a	n/a
1301393	REC_WORD	wordpools/wasnorm_wordpool.txt	LTP150	ltpFR	0	7	0	LINT	826	n/a	n/a	0	n/a	n/a	n/a	n/a	n/a
1303085	REC_WORD	wordpools/wasnorm_wordpool.txt	LTP150	ltpFR	0	7	0	TANGERINE	1431	n/a	n/a	0	n/a	n/a	n/a	n/a	n/a
1305274	REC_WORD	wordpools/wasnorm_wordpool.txt	LTP150	ltpFR	0	7	0	DRIVEWAY	500	n/a	n/a	1	n/a	n/a	n/a	n/a	n/a
1306586	REC_WORD	wordpools/wasnorm_wordpool.txt	LTP150	ltpFR	0	7	0	VAN	1548	n/a	n/a	1	n/a	n/a	n/a	n/a	n/a
1308712	REC_WORD	wordpools/wasnorm_wordpool.txt	LTP150	ltpFR	0	7	0	PROFESSOR	1131	n/a	n/a	1	n/a	n/a	n/a	n/a	n/a
1311206	REC_WORD	wordpools/wasnorm_wordpool.txt	LTP150	ltpFR	0	7	0	DORM	488	n/a	n/a	1	n/a	n/a	n/a	n/a	n/a
1317178	REC_WORD	wordpools/wasnorm_wordpool.txt	LTP150	ltpFR	0	7	0	DISH	474	n/a	n/a	0	n/a	n/a	n/a	n/a	n/a
1332408	REC_WORD	wordpools/wasnorm_wordpool.txt	LTP150	ltpFR	0	7	0	SILK	1307	n/a	n/a	0	n/a	n/a	n/a	n/a	n/a
1344221	REC_WORD	wordpools/wasnorm_wordpool.txt	LTP150	ltpFR	0	7	0	CEREAL	272	n/a	n/a	0	n/a	n/a	n/a	n/a	n/a
1373583	WORD	wordpools/wasnorm_wordpool.txt	LTP150	ltpFR	0	8	0	FIN	566	n/a	n/a	1	0.422607421875	0.5869140625	0	lower	zerothre.ttf
1377498	WORD	wordpools/wasnorm_wordpool.txt	LTP150	ltpFR	0	8	0	LUGGAGE	847	n/a	n/a	1	0.422607421875	0.5869140625	0	lower	zerothre.ttf
1381388	WORD	wordpools/wasnorm_wordpool.txt	LTP150	ltpFR	0	8	0	NET	946	n/a	n/a	1	0.422607421875	0.5869140625	0	lower	zerothre.ttf
1385479	WORD	wordpools/wasnorm_wordpool.txt	LTP150	ltpFR	0	8	0	PIKE	1067	n/a	n/a	1	0.422607421875	0.5869140625	0	lower	zerothre.ttf
1389519	WORD	wordpools/wasnorm_wordpool.txt	LTP150	ltpFR	0	8	0	ROBBER	1197	n/a	n/a	1	0.422607421875	0.5869140625	0	lower	zerothre.ttf
1393409	WORD	wordpools/wasnorm_wordpool.txt	LTP150	ltpFR	0	8	0	BEER	114	n/a	n/a	0	0.422607421875	0.5869140625	0	lower	zerothre.ttf
1397399	WORD	wordpools/wasnorm_wordpool.txt	LTP150	ltpFR	0	8	0	TUNA	1518	n/a	n/a	1	0.422607421875	0.5869140625	0	lower	zerothre.ttf
1401340	WORD	wordpools/wasnorm_wordpool.txt	LTP150	ltpFR	0	8	0	STRAWBERRY	1391	n/a	n/a	0	0.422607421875	0.5869140625	0	lower	zerothre.ttf
1405338	WORD	wordpools/wasnorm_wordpool.txt	LTP150	ltpFR	0	8	0	PEAR	1033	n/a	n/a	0	0.422607421875	0.5869140625	0	lower	zerothre.ttf
1409337	WORD	wordpools/wasnorm_wordpool.txt	LTP150	ltpFR	0	8	0	FIREMAN	569	n/a	n/a	1	0.422607421875	0.5869140625	0	lower	zerothre.ttf
1413294	WORD	wordpools/wasnorm_wordpool.txt	LTP150	ltpFR	0	8	0	ARM	38	n/a	n/a	1	0.422607421875	0.5869140625	0	lower	zerothre.ttf
1417192	WORD	wordpools/wasnorm_wordpool.txt	LTP150	ltpFR	0	8	0	LID	817	n/a	n/a	1	0.422607421875	0.5869140625	0	lower	zerothre.ttf
1421349	WORD	wordpools/wasnorm_wordpool.txt	LTP150	ltpFR	0	8	0	SAUCER	1237	n/a	n/a	0	0.422607421875	0.5869140625	0	lower	zerothre.ttf
1425431	WORD	wordpools/wasnorm_wordpool.txt	LTP150	ltpFR	0	8	0	TOURIST	1488	n/a	n/a	1	0.422607421875	0.5869140625	0	lower	zerothre.ttf
1429588	WORD	wordpools/wasnorm_wordpool.txt	LTP150	ltpFR	0	8	0	CONVICT	371	n/a	n/a	1	0.422607421875	0.5869140625	0	lower	zerothre.ttf
1433578	WORD	wordpools/wasnorm_wordpool.txt	LTP150	ltpFR	0	8	0	CLOVE	329	n/a	n/a	0	0.422607421875	0.5869140625	0	lower	zerothre.ttf
1439402	REC_START	n/a	LTP150	ltpFR	0	8	n/a	n/a	n/a	n/a	n/a	n/a	n/a	n/a	n/a	n/a	n/a
1440768	REC_WORD	wordpools/wasnorm_wordpool.txt	LTP150	ltpFR	0	8	0	CLOVE	329	n/a	n/a	0	n/a	n/a	n/a	n/a	n/a
1442160	REC_WORD	wordpools/wasnorm_wordpool.txt	LTP150	ltpFR	0	8	0	FIREMAN	569	n/a	n/a	1	n/a	n/a	n/a	n/a	n/a
1445827	REC_WORD	wordpools/wasnorm_wordpool.txt	LTP150	ltpFR	0	8	0	ROBBER	1197	n/a	n/a	1	n/a	n/a	n/a	n/a	n/a
1451689	REC_WORD	wordpools/wasnorm_wordpool.txt	LTP150	ltpFR	0	8	0	STRAWBERRY	1391	n/a	n/a	0	n/a	n/a	n/a	n/a	n/a
1453714	REC_WORD	wordpools/wasnorm_wordpool.txt	LTP150	ltpFR	0	8	0	PEAR	1033	n/a	n/a	0	n/a	n/a	n/a	n/a	n/a
1455142	REC_WORD	wordpools/wasnorm_wordpool.txt	LTP150	ltpFR	0	8	0	LID	817	n/a	n/a	1	n/a	n/a	n/a	n/a	n/a
1456737	REC_WORD	wordpools/wasnorm_wordpool.txt	LTP150	ltpFR	0	8	0	SAUCER	1237	n/a	n/a	0	n/a	n/a	n/a	n/a	n/a
1460289	REC_WORD	wordpools/wasnorm_wordpool.txt	LTP150	ltpFR	0	8	0	ARM	38	n/a	n/a	1	n/a	n/a	n/a	n/a	n/a
1467518	REC_WORD	wordpools/wasnorm_wordpool.txt	LTP150	ltpFR	0	8	0	TUNA	1518	n/a	n/a	1	n/a	n/a	n/a	n/a	n/a
1519888	WORD	wordpools/wasnorm_wordpool.txt	LTP150	ltpFR	0	9	1	WINNER	1615	n/a	n/a	1	0.57763671875	0.412841796875	1	upper	amplitud.ttf
1523704	WORD	wordpools/wasnorm_wordpool.txt	LTP150	ltpFR	0	9	1	TECHNICIAN	1443	n/a	n/a	1	0.57763671875	0.412841796875	1	upper	amplitud.ttf
1527636	WORD	wordpools/wasnorm_wordpool.txt	LTP150	ltpFR	0	9	1	TYPEWRITER	1531	n/a	n/a	0	0.57763671875	0.412841796875	1	upper	amplitud.ttf
1531577	WORD	wordpools/wasnorm_wordpool.txt	LTP150	ltpFR	0	9	1	SCROLL	1257	n/a	n/a	0	0.57763671875	0.412841796875	1	upper	amplitud.ttf
1535725	WORD	wordpools/wasnorm_wordpool.txt	LTP150	ltpFR	0	9	1	SHED	1277	n/a	n/a	0	0.57763671875	0.412841796875	1	upper	amplitud.ttf
1539615	WORD	wordpools/wasnorm_wordpool.txt	LTP150	ltpFR	0	9	1	BRUNETTE	181	n/a	n/a	1	0.57763671875	0.412841796875	1	upper	amplitud.ttf
1543772	WORD	wordpools/wasnorm_wordpool.txt	LTP150	ltpFR	0	9	1	ATHLETE	52	n/a	n/a	1	0.57763671875	0.412841796875	1	upper	amplitud.ttf
1547713	WORD	wordpools/wasnorm_wordpool.txt	LTP150	ltpFR	0	9	1	RAM	1165	n/a	n/a	1	0.57763671875	0.412841796875	1	upper	amplitud.ttf
1551778	WORD	wordpools/wasnorm_wordpool.txt	LTP150	ltpFR	0	9	1	ROOT	1210	n/a	n/a	1	0.57763671875	0.412841796875	1	upper	amplitud.ttf
1555626	WORD	wordpools/wasnorm_wordpool.txt	LTP150	ltpFR	0	9	1	PAW	1029	n/a	n/a	0	0.57763671875	0.412841796875	1	upper	amplitud.ttf
1559700	WORD	wordpools/wasnorm_wordpool.txt	LTP150	ltpFR	0	9	1	COMB	351	n/a	n/a	0	0.57763671875	0.412841796875	1	upper	amplitud.ttf
1563765	WORD	wordpools/wasnorm_wordpool.txt	LTP150	ltpFR	0	9	1	BUTTER	205	n/a	n/a	0	0.57763671875	0.412841796875	1	upper	amplitud.ttf
1567764	WORD	wordpools/wasnorm_wordpool.txt	LTP150	ltpFR	0	9	1	OPERA	978	n/a	n/a	0	0.57763671875	0.412841796875	1	upper	amplitud.ttf
1571911	WORD	wordpools/wasnorm_wordpool.txt	LTP150	ltpFR	0	9	1	MAN	862	n/a	n/a	1	0.57763671875	0.412841796875	1	upper	amplitud.ttf
1575926	WORD	wordpools/wasnorm_wordpool.txt	LTP150	ltpFR	0	9	1	SEAT	1264	n/a	n/a	0	0.57763671875	0.412841796875	1	upper	amplitud.ttf
1580084	WORD	wordpools/wasnorm_wordpool.txt	LTP150	ltpFR	0	9	1	DESK	452	n/a	n/a	0	0.57763671875	0.412841796875	1	upper	amplitud.ttf
1585874	REC_START	n/a	LTP150	ltpFR	0	9	n/a	n/a	n/a	n/a	n/a	n/a	n/a	n/a	n/a	n/a	n/a
1587854	REC_WORD	wordpools/wasnorm_wordpool.txt	LTP150	ltpFR	0	9	1	DESK	452	n/a	n/a	0	n/a	n/a	n/a	n/a	n/a
1588907	REC_WORD	wordpools/wasnorm_wordpool.txt	LTP150	ltpFR	0	9	1	SEAT	1264	n/a	n/a	0	n/a	n/a	n/a	n/a	n/a
1591207	REC_WORD	wordpools/wasnorm_wordpool.txt	LTP150	ltpFR	0	9	1	COMB	351	n/a	n/a	0	n/a	n/a	n/a	n/a	n/a
1593816	REC_WORD	wordpools/wasnorm_wordpool.txt	LTP150	ltpFR	0	9	1	MAN	862	n/a	n/a	1	n/a	n/a	n/a	n/a	n/a
1595667	REC_WORD	wordpools/wasnorm_wordpool.txt	LTP150	ltpFR	0	9	1	BRUNETTE	181	n/a	n/a	1	n/a	n/a	n/a	n/a	n/a
1598819	REC_WORD	wordpools/wasnorm_wordpool.txt	LTP150	ltpFR	0	9	1	RAM	1165	n/a	n/a	1	n/a	n/a	n/a	n/a	n/a
1603708	REC_WORD	wordpools/wasnorm_wordpool.txt	LTP150	ltpFR	0	9	1	ATHLETE	52	n/a	n/a	1	n/a	n/a	n/a	n/a	n/a
1626312	REC_WORD	wordpools/wasnorm_wordpool.txt	LTP150	ltpFR	0	9	1	TYPEWRITER	1531	n/a	n/a	0	n/a	n/a	n/a	n/a	n/a
1648950	REC_WORD	wordpools/wasnorm_wordpool.txt	LTP150	ltpFR	0	9	1	COMB	351	n/a	n/a	0	n/a	n/a	n/a	n/a	n/a
1669019	WORD	wordpools/wasnorm_wordpool.txt	LTP150	ltpFR	0	10	1	JUDGE	761	n/a	n/a	1	0.57763671875	0.412841796875	1	upper	amplitud.ttf
1673035	WORD	wordpools/wasnorm_wordpool.txt	LTP150	ltpFR	0	10	1	SHORTS	1293	n/a	n/a	0	0.57763671875	0.412841796875	1	upper	amplitud.ttf
1676915	WORD	wordpools/wasnorm_wordpool.txt	LTP150	ltpFR	0	10	1	SANDWICH	1232	n/a	n/a	0	0.57763671875	0.412841796875	1	upper	amplitud.ttf
1680790	WORD	wordpools/wasnorm_wordpool.txt	LTP150	ltpFR	0	10	1	SENATE	1267	n/a	n/a	0	0.57763671875	0.412841796875	1	upper	amplitud.ttf
1684780	WORD	wordpools/wasnorm_wordpool.txt	LTP150	ltpFR	0	10	1	NURSERY	964	n/a	n/a	0	0.57763671875	0.412841796875	1	upper	amplitud.ttf
1688903	WORD	wordpools/wasnorm_wordpool.txt	LTP150	ltpFR	0	10	1	CRIB	407	n/a	n/a	0	0.57763671875	0.412841796875	1	upper	amplitud.ttf
1692918	WORD	wordpools/wasnorm_wordpool.txt	LTP150	ltpFR	0	10	1	WARRIOR	1589	n/a	n/a	0	0.57763671875	0.412841796875	1	upper	amplitud.ttf
1697093	WORD	wordpools/wasnorm_wordpool.txt	LTP150	ltpFR	0	10	1	FIST	572	n/a	n/a	0	0.57763671875	0.412841796875	1	upper	amplitud.ttf
1701116	WORD	wordpools/wasnorm_wordpool.txt	LTP150	ltpFR	0	10	1	CATCHER	258	n/a	n/a	1	0.57763671875	0.412841796875	1	upper	amplitud.ttf
1705098	WORD	wordpools/wasnorm_wordpool.txt	LTP150	ltpFR	0	10	1	SALMON	1227	n/a	n/a	1	0.57763671875	0.412841796875	1	upper	amplitud.ttf
1709163	WORD	wordpools/wasnorm_wordpool.txt	LTP150	ltpFR	0	10	1	SUBWAY	1400	n/a	n/a	0	0.57763671875	0.412841796875	1	upper	amplitud.ttf
1713354	WORD	wordpools/wasnorm_wordpool.txt	LTP150	ltpFR	0	10	1	CREATURE	403	n/a	n/a	1	0.57763671875	0.412841796875	1	upper	amplitud.ttf
1717460	WORD	wordpools/wasnorm_wordpool.txt	LTP150	ltpFR	0	10	1	BARRACUDA	90	n/a	n/a	1	0.57763671875	0.412841796875	1	upper	amplitud.ttf
1721651	WORD	wordpools/wasnorm_wordpool.txt	LTP150	ltpFR	0	10	1	FOX	598	n/a	n/a	1	0.57763671875	0.412841796875	1	upper	amplitud.ttf
1725616	WORD	wordpools/wasnorm_wordpool.txt	LTP150	ltpFR	0	10	1	PAINTING	1005	n/a	n/a	0	0.57763671875	0.412841796875	1	upper	amplitud.ttf
1729523	WORD	wordpools/wasnorm_wordpool.txt	LTP150	ltpFR	0	10	1	PLASTER	1085	n/a	n/a	0	0.57763671875	0.412841796875	1	upper	amplitud.ttf
1735238	REC_START	n/a	LTP150	ltpFR	0	10	n/a	n/a	n/a	n/a	n/a	n/a	n/a	n/a	n/a	n/a	n/a
1736669	REC_WORD	wordpools/wasnorm_wordpool.txt	LTP150	ltpFR	0	10	1	PLASTER	1085	n/a	n/a	0	n/a	n/a	n/a	n/a	n/a
1738224	REC_WORD	wordpools/wasnorm_wordpool.txt	LTP150	ltpFR	0	10	1	PAINTING	1005	n/a	n/a	0	n/a	n/a	n/a	n/a	n/a
1741468	REC_WORD	wordpools/wasnorm_wordpool.txt	LTP150	ltpFR	0	10	1	JUDGE	761	n/a	n/a	1	n/a	n/a	n/a	n/a	n/a
1742990	REC_WORD	wordpools/wasnorm_wordpool.txt	LTP150	ltpFR	0	10	1	SHORTS	1293	n/a	n/a	0	n/a	n/a	n/a	n/a	n/a
1743990	REC_WORD_VV	wordpools/wasnorm_wordpool.txt	LTP150	ltpFR	0	10	n/a	<>	-1	n/a	n/a	n/a	n/a	n/a	n/a	n/a	n/a
1745225	REC_WORD	wordpools/wasnorm_wordpool.txt	LTP150	ltpFR	0	10	1	SANDWICH	1232	n/a	n/a	0	n/a	n/a	n/a	n/a	n/a
1749086	REC_WORD	wordpools/wasnorm_wordpool.txt	LTP150	ltpFR	0	10	1	SENATE	1267	n/a	n/a	0	n/a	n/a	n/a	n/a	n/a
1751286	REC_WORD	wordpools/wasnorm_wordpool.txt	LTP150	ltpFR	0	10	1	NURSERY	964	n/a	n/a	0	n/a	n/a	n/a	n/a	n/a
1753336	REC_WORD	wordpools/wasnorm_wordpool.txt	LTP150	ltpFR	0	10	1	CRIB	407	n/a	n/a	0	n/a	n/a	n/a	n/a	n/a
1756041	REC_WORD	wordpools/wasnorm_wordpool.txt	LTP150	ltpFR	0	10	1	CATCHER	258	n/a	n/a	1	n/a	n/a	n/a	n/a	n/a
1757940	REC_WORD	wordpools/wasnorm_wordpool.txt	LTP150	ltpFR	0	10	1	SALMON	1227	n/a	n/a	1	n/a	n/a	n/a	n/a	n/a
1759991	REC_WORD	wordpools/wasnorm_wordpool.txt	LTP150	ltpFR	0	10	1	WARRIOR	1589	n/a	n/a	0	n/a	n/a	n/a	n/a	n/a
1762725	REC_WORD	wordpools/wasnorm_wordpool.txt	LTP150	ltpFR	0	10	1	BARRACUDA	90	n/a	n/a	1	n/a	n/a	n/a	n/a	n/a
1777586	REC_WORD	wordpools/wasnorm_wordpool.txt	LTP150	ltpFR	0	10	1	FIST	572	n/a	n/a	0	n/a	n/a	n/a	n/a	n/a
1816100	WORD	wordpools/wasnorm_wordpool.txt	LTP150	ltpFR	0	11	1	STATUE	1374	n/a	n/a	0	0.57763671875	0.412841796875	1	upper	amplitud.ttf
1820024	WORD	wordpools/wasnorm_wordpool.txt	LTP150	ltpFR	0	11	1	SUSPECT	1415	n/a	n/a	0	0.57763671875	0.412841796875	1	upper	amplitud.ttf
1823946	WORD	wordpools/wasnorm_wordpool.txt	LTP150	ltpFR	0	11	1	MINK	897	n/a	n/a	1	0.57763671875	0.412841796875	1	upper	amplitud.ttf
1828004	WORD	wordpools/wasnorm_wordpool.txt	LTP150	ltpFR	0	11	1	NECK	939	n/a	n/a	0	0.57763671875	0.412841796875	1	upper	amplitud.ttf
1832061	WORD	wordpools/wasnorm_wordpool.txt	LTP150	ltpFR	0	11	1	SAND	1230	n/a	n/a	0	0.57763671875	0.412841796875	1	upper	amplitud.ttf
1836160	WORD	wordpools/wasnorm_wordpool.txt	LTP150	ltpFR	0	11	1	SURVEY	1414	n/a	n/a	0	0.57763671875	0.412841796875	1	upper	amplitud.ttf
1840042	WORD	wordpools/wasnorm_wordpool.txt	LTP150	ltpFR	0	11	1	TUSK	1523	n/a	n/a	0	0.57763671875	0.412841796875	1	upper	amplitud.ttf
1844065	WORD	wordpools/wasnorm_wordpool.txt	LTP150	ltpFR	0	11	1	CREW	406	n/a	n/a	0	0.57763671875	0.412841796875	1	upper	amplitud.ttf
1848156	WORD	wordpools/wasnorm_wordpool.txt	LTP150	ltpFR	0	11	1	TULIP	1517	n/a	n/a	1	0.57763671875	0.412841796875	1	upper	amplitud.ttf
1852071	WORD	wordpools/wasnorm_wordpool.txt	LTP150	ltpFR	0	11	1	VASE	1549	n/a	n/a	0	0.57763671875	0.412841796875	1	upper	amplitud.ttf
1855968	WORD	wordpools/wasnorm_wordpool.txt	LTP150	ltpFR	0	11	1	CHICKEN	297	n/a	n/a	1	0.57763671875	0.412841796875	1	upper	amplitud.ttf
1860110	WORD	wordpools/wasnorm_wordpool.txt	LTP150	ltpFR	0	11	1	YOLK	1633	n/a	n/a	0	0.57763671875	0.412841796875	1	upper	amplitud.ttf
1863983	WORD	wordpools/wasnorm_wordpool.txt	LTP150	ltpFR	0	11	1	MARINE	869	n/a	n/a	1	0.57763671875	0.412841796875	1	upper	amplitud.ttf
1867865	WORD	wordpools/wasnorm_wordpool.txt	LTP150	ltpFR	0	11	1	PIRATE	1074	n/a	n/a	1	0.57763671875	0.412841796875	1	upper	amplitud.ttf
1871855	WORD	wordpools/wasnorm_wordpool.txt	LTP150	ltpFR	0	11	1	HOSTAGE	722	n/a	n/a	1	0.57763671875	0.412841796875	1	upper	amplitud.ttf
1875862	WORD	wordpools/wasnorm_wordpool.txt	LTP150	ltpFR	0	11	1	TROUT	1511	n/a	n/a	1	0.57763671875	0.412841796875	1	upper	amplitud.ttf
1881727	REC_START	n/a	LTP150	ltpFR	0	11	n/a	n/a	n/a	n/a	n/a	n/a	n/a	n/a	n/a	n/a	n/a
1883443	REC_WORD	wordpools/wasnorm_wordpool.txt	LTP150	ltpFR	0	11	1	TROUT	1511	n/a	n/a	1	n/a	n/a	n/a	n/a	n/a
1885947	REC_WORD	wordpools/wasnorm_wordpool.txt	LTP150	ltpFR	0	11	1	MARINE	869	n/a	n/a	1	n/a	n/a	n/a	n/a	n/a
1888062	REC_WORD	wordpools/wasnorm_wordpool.txt	LTP150	ltpFR	0	11	1	HOSTAGE	722	n/a	n/a	1	n/a	n/a	n/a	n/a	n/a
1894293	REC_WORD	wordpools/wasnorm_wordpool.txt	LTP150	ltpFR	0	11	1	CREW	406	n/a	n/a	0	n/a	n/a	n/a	n/a	n/a
1898563	REC_WORD	wordpools/wasnorm_wordpool.txt	LTP150	ltpFR	0	11	1	STATUE	1374	n/a	n/a	0	n/a	n/a	n/a	n/a	n/a
1900384	REC_WORD	wordpools/wasnorm_wordpool.txt	LTP150	ltpFR	0	11	1	SUSPECT	1415	n/a	n/a	0	n/a	n/a	n/a	n/a	n/a
1904001	REC_WORD	wordpools/wasnorm_wordpool.txt	LTP150	ltpFR	0	11	1	MINK	897	n/a	n/a	1	n/a	n/a	n/a	n/a	n/a
1906441	REC_WORD	wordpools/wasnorm_wordpool.txt	LTP150	ltpFR	0	11	1	NECK	939	n/a	n/a	0	n/a	n/a	n/a	n/a	n/a
1909135	REC_WORD	wordpools/wasnorm_wordpool.txt	LTP150	ltpFR	0	11	1	TULIP	1517	n/a	n/a	1	n/a	n/a	n/a	n/a	n/a
1911140	REC_WORD	wordpools/wasnorm_wordpool.txt	LTP150	ltpFR	0	11	1	VASE	1549	n/a	n/a	0	n/a	n/a	n/a	n/a	n/a
1914048	REC_WORD	wordpools/wasnorm_wordpool.txt	LTP150	ltpFR	0	11	1	SAND	1230	n/a	n/a	0	n/a	n/a	n/a	n/a	n/a
1969179	WORD	wordpools/wasnorm_wordpool.txt	LTP150	ltpFR	0	12	1	FELLOW	558	n/a	n/a	1	0.57763671875	0.412841796875	1	upper	amplitud.ttf
1973086	WORD	wordpools/wasnorm_wordpool.txt	LTP150	ltpFR	0	12	1	THICKET	1455	n/a	n/a	0	0.57763671875	0.412841796875	1	upper	amplitud.ttf
1977101	WORD	wordpools/wasnorm_wordpool.txt	LTP150	ltpFR	0	12	1	BEARD	107	n/a	n/a	0	0.57763671875	0.412841796875	1	upper	amplitud.ttf
1981100	WORD	wordpools/wasnorm_wordpool.txt	LTP150	ltpFR	0	12	1	ANIMAL	23	n/a	n/a	1	0.57763671875	0.412841796875	1	upper	amplitud.ttf
1985290	WORD	wordpools/wasnorm_wordpool.txt	LTP150	ltpFR	0	12	1	BUFFALO	186	n/a	n/a	1	0.57763671875	0.412841796875	1	upper	amplitud.ttf
1989430	WORD	wordpools/wasnorm_wordpool.txt	LTP150	ltpFR	0	12	1	CABINET	212	n/a	n/a	0	0.57763671875	0.412841796875	1	upper	amplitud.ttf
1993371	WORD	wordpools/wasnorm_wordpool.txt	LTP150	ltpFR	0	12	1	FEAST	556	n/a	n/a	0	0.57763671875	0.412841796875	1	upper	amplitud.ttf
1997569	WORD	wordpools/wasnorm_wordpool.txt	LTP150	ltpFR	0	12	1	CARNIVAL	245	n/a	n/a	0	0.57763671875	0.412841796875	1	upper	amplitud.ttf
2001684	WORD	wordpools/wasnorm_wordpool.txt	LTP150	ltpFR	0	12	1	PARTY	1018	n/a	n/a	0	0.57763671875	0.412841796875	1	upper	amplitud.ttf
2005758	WORD	wordpools/wasnorm_wordpool.txt	LTP150	ltpFR	0	12	1	ENEMY	534	n/a	n/a	1	0.57763671875	0.412841796875	1	upper	amplitud.ttf
2009914	WORD	wordpools/wasnorm_wordpool.txt	LTP150	ltpFR	0	12	1	COBRA	336	n/a	n/a	1	0.57763671875	0.412841796875	1	upper	amplitud.ttf
2014055	WORD	wordpools/wasnorm_wordpool.txt	LTP150	ltpFR	0	12	1	GERM	632	n/a	n/a	1	0.57763671875	0.412841796875	1	upper	amplitud.ttf
2018220	WORD	wordpools/wasnorm_wordpool.txt	LTP150	ltpFR	0	12	1	SAUSAGE	1238	n/a	n/a	0	0.57763671875	0.412841796875	1	upper	amplitud.ttf
2022085	WORD	wordpools/wasnorm_wordpool.txt	LTP150	ltpFR	0	12	1	DRILL	497	n/a	n/a	0	0.57763671875	0.412841796875	1	upper	amplitud.ttf
2026217	WORD	wordpools/wasnorm_wordpool.txt	LTP150	ltpFR	0	12	1	ASSOCIATE	49	n/a	n/a	1	0.57763671875	0.412841796875	1	upper	amplitud.ttf
2030141	WORD	wordpools/wasnorm_wordpool.txt	LTP150	ltpFR	0	12	1	LIBRARY	816	n/a	n/a	0	0.57763671875	0.412841796875	1	upper	amplitud.ttf
2036073	REC_START	n/a	LTP150	ltpFR	0	12	n/a	n/a	n/a	n/a	n/a	n/a	n/a	n/a	n/a	n/a	n/a
2038018	REC_WORD	wordpools/wasnorm_wordpool.txt	LTP150	ltpFR	0	12	1	LIBRARY	816	n/a	n/a	0	n/a	n/a	n/a	n/a	n/a
2039495	REC_WORD	wordpools/wasnorm_wordpool.txt	LTP150	ltpFR	0	12	1	ASSOCIATE	49	n/a	n/a	1	n/a	n/a	n/a	n/a	n/a
2041126	REC_WORD	wordpools/wasnorm_wordpool.txt	LTP150	ltpFR	0	12	1	GERM	632	n/a	n/a	1	n/a	n/a	n/a	n/a	n/a
2044080	REC_WORD	wordpools/wasnorm_wordpool.txt	LTP150	ltpFR	0	12	1	COBRA	336	n/a	n/a	1	n/a	n/a	n/a	n/a	n/a
2046020	REC_WORD	wordpools/wasnorm_wordpool.txt	LTP150	ltpFR	0	12	1	ENEMY	534	n/a	n/a	1	n/a	n/a	n/a	n/a	n/a
2049856	REC_WORD	wordpools/wasnorm_wordpool.txt	LTP150	ltpFR	0	12	1	FELLOW	558	n/a	n/a	1	n/a	n/a	n/a	n/a	n/a
2051942	REC_WORD	wordpools/wasnorm_wordpool.txt	LTP150	ltpFR	0	12	1	BEARD	107	n/a	n/a	0	n/a	n/a	n/a	n/a	n/a
2053538	REC_WORD	wordpools/wasnorm_wordpool.txt	LTP150	ltpFR	0	12	1	ANIMAL	23	n/a	n/a	1	n/a	n/a	n/a	n/a	n/a
2055339	REC_WORD	wordpools/wasnorm_wordpool.txt	LTP150	ltpFR	0	12	1	BUFFALO	186	n/a	n/a	1	n/a	n/a	n/a	n/a	n/a
2059361	REC_WORD	wordpools/wasnorm_wordpool.txt	LTP150	ltpFR	0	12	1	THICKET	1455	n/a	n/a	0	n/a	n/a	n/a	n/a	n/a
2061979	REC_WORD	wordpools/wasnorm_wordpool.txt	LTP150	ltpFR	0	12	1	CARNIVAL	245	n/a	n/a	0	n/a	n/a	n/a	n/a	n/a
2064109	REC_WORD	wordpools/wasnorm_wordpool.txt	LTP150	ltpFR	0	12	1	PARTY	1018	n/a	n/a	0	n/a	n/a	n/a	n/a	n/a
2071391	REC_WORD	wordpools/wasnorm_wordpool.txt	LTP150	ltpFR	0	12	1	BUFFALO	186	n/a	n/a	1	n/a	n/a	n/a	n/a	n/a
2111653	REST_REWET	n/a	LTP150	ltpFR	0	12	n/a	n/a	n/a	n/a	n/a	n/a	n/a	n/a	n/a	n/a	n/a
2361873	WORD	wordpools/wasnorm_wordpool.txt	LTP150	ltpFR	0	13	1	POT	1114	n/a	n/a	0	0.57763671875	0.412841796875	1	upper	amplitud.ttf
2366029	WORD	wordpools/wasnorm_wordpool.txt	LTP150	ltpFR	0	13	1	FUNGUS	614	n/a	n/a	1	0.57763671875	0.412841796875	1	upper	amplitud.ttf
2370045	WORD	wordpools/wasnorm_wordpool.txt	LTP150	ltpFR	0	13	1	SQUID	1361	n/a	n/a	1	0.57763671875	0.412841796875	1	upper	amplitud.ttf
2374243	WORD	wordpools/wasnorm_wordpool.txt	LTP150	ltpFR	0	13	1	TUNNEL	1519	n/a	n/a	0	0.57763671875	0.412841796875	1	upper	amplitud.ttf
2378250	WORD	wordpools/wasnorm_wordpool.txt	LTP150	ltpFR	0	13	1	DIAMOND	458	n/a	n/a	0	0.57763671875	0.412841796875	1	upper	amplitud.ttf
2382207	WORD	wordpools/wasnorm_wordpool.txt	LTP150	ltpFR	0	13	0	NECKLACE	940	n/a	n/a	0	0.422607421875	0.5869140625	0	lower	zerothre.ttf
2386206	WORD	wordpools/wasnorm_wordpool.txt	LTP150	ltpFR	0	13	0	REEF	1177	n/a	n/a	1	0.422607421875	0.5869140625	0	lower	zerothre.ttf
2390146	WORD	wordpools/wasnorm_wordpool.txt	LTP150	ltpFR	0	13	0	GRAVEL	659	n/a	n/a	0	0.422607421875	0.5869140625	0	lower	zerothre.ttf
2394036	WORD	wordpools/wasnorm_wordpool.txt	LTP150	ltpFR	0	13	0	PIN	1072	n/a	n/a	0	0.422607421875	0.5869140625	0	lower	zerothre.ttf
2397985	WORD	wordpools/wasnorm_wordpool.txt	LTP150	ltpFR	0	13	0	GULL	671	n/a	n/a	1	0.422607421875	0.5869140625	0	lower	zerothre.ttf
2402000	WORD	wordpools/wasnorm_wordpool.txt	LTP150	ltpFR	0	13	1	BOOK	149	n/a	n/a	0	0.57763671875	0.412841796875	1	upper	amplitud.ttf
2406065	WORD	wordpools/wasnorm_wordpool.txt	LTP150	ltpFR	0	13	1	WRITER	1627	n/a	n/a	1	0.57763671875	0.412841796875	1	upper	amplitud.ttf
2409929	WORD	wordpools/wasnorm_wordpool.txt	LTP150	ltpFR	0	13	1	COLUMN	350	n/a	n/a	0	0.57763671875	0.412841796875	1	upper	amplitud.ttf
2413804	WORD	wordpools/wasnorm_wordpool.txt	LTP150	ltpFR	0	13	0	HAWK	692	n/a	n/a	1	0.422607421875	0.5869140625	0	lower	zerothre.ttf
2418011	WORD	wordpools/wasnorm_wordpool.txt	LTP150	ltpFR	0	13	0	TURTLE	1522	n/a	n/a	0	0.422607421875	0.5869140625	0	lower	zerothre.ttf
2421868	WORD	wordpools/wasnorm_wordpool.txt	LTP150	ltpFR	0	13	0	GOBLIN	645	n/a	n/a	1	0.422607421875	0.5869140625	0	lower	zerothre.ttf
2427583	REC_START	n/a	LTP150	ltpFR	0	13	n/a	n/a	n/a	n/a	n/a	n/a	n/a	n/a	n/a	n/a	n/a
2429368	REC_WORD	wordpools/wasnorm_wordpool.txt	LTP150	ltpFR	0	13	0	GOBLIN	645	n/a	n/a	1	n/a	n/a	n/a	n/a	n/a
2430855	REC_WORD	wordpools/wasnorm_wordpool.txt	LTP150	ltpFR	0	13	0	HAWK	692	n/a	n/a	1	n/a	n/a	n/a	n/a	n/a
2433389	REC_WORD	wordpools/wasnorm_wordpool.txt	LTP150	ltpFR	0	13	1	FUNGUS	614	n/a	n/a	1	n/a	n/a	n/a	n/a	n/a
2435535	REC_WORD	wordpools/wasnorm_wordpool.txt	LTP150	ltpFR	0	13	1	WRITER	1627	n/a	n/a	1	n/a	n/a	n/a	n/a	n/a
2437520	REC_WORD	wordpools/wasnorm_wordpool.txt	LTP150	ltpFR	0	13	1	POT	1114	n/a	n/a	0	n/a	n/a	n/a	n/a	n/a
2442533	REC_WORD	wordpools/wasnorm_wordpool.txt	LTP150	ltpFR	0	13	0	GULL	671	n/a	n/a	1	n/a	n/a	n/a	n/a	n/a
2455918	REC_WORD	wordpools/wasnorm_wordpool.txt	LTP150	ltpFR	0	13	0	TURTLE	1522	n/a	n/a	0	n/a	n/a	n/a	n/a	n/a
2461027	REC_WORD	wordpools/wasnorm_wordpool.txt	LTP150	ltpFR	0	13	1	SQUID	1361	n/a	n/a	1	n/a	n/a	n/a	n/a	n/a
2477659	REC_WORD	wordpools/wasnorm_wordpool.txt	LTP150	ltpFR	0	13	0	REEF	1177	n/a	n/a	1	n/a	n/a	n/a	n/a	n/a
2479560	REC_WORD	wordpools/wasnorm_wordpool.txt	LTP150	ltpFR	0	13	0	GRAVEL	659	n/a	n/a	0	n/a	n/a	n/a	n/a	n/a
2511819	WORD	wordpools/wasnorm_wordpool.txt	LTP150	ltpFR	0	14	1	STEAM	1375	n/a	n/a	0	0.57763671875	0.412841796875	1	upper	amplitud.ttf
2515958	WORD	wordpools/wasnorm_wordpool.txt	LTP150	ltpFR	0	14	1	VINEGAR	1569	n/a	n/a	0	0.57763671875	0.412841796875	1	upper	amplitud.ttf
2519875	WORD	wordpools/wasnorm_wordpool.txt	LTP150	ltpFR	0	14	1	ALLIGATOR	16	n/a	n/a	1	0.57763671875	0.412841796875	1	upper	amplitud.ttf
2523790	WORD	wordpools/wasnorm_wordpool.txt	LTP150	ltpFR	0	14	0	TONGUE	1479	n/a	n/a	0	0.422607421875	0.5869140625	0	lower	zerothre.ttf
2527838	WORD	wordpools/wasnorm_wordpool.txt	LTP150	ltpFR	0	14	0	HOSE	720	n/a	n/a	1	0.422607421875	0.5869140625	0	lower	zerothre.ttf
2531779	WORD	wordpools/wasnorm_wordpool.txt	LTP150	ltpFR	0	14	0	RIVER	1194	n/a	n/a	1	0.422607421875	0.5869140625	0	lower	zerothre.ttf
2535761	WORD	wordpools/wasnorm_wordpool.txt	LTP150	ltpFR	0	14	1	WALRUS	1585	n/a	n/a	1	0.57763671875	0.412841796875	1	upper	amplitud.ttf
2539609	WORD	wordpools/wasnorm_wordpool.txt	LTP150	ltpFR	0	14	1	GROCERY	664	n/a	n/a	0	0.57763671875	0.412841796875	1	upper	amplitud.ttf
2543441	WORD	wordpools/wasnorm_wordpool.txt	LTP150	ltpFR	0	14	0	SHOULDER	1294	n/a	n/a	1	0.422607421875	0.5869140625	0	lower	zerothre.ttf
2547448	WORD	wordpools/wasnorm_wordpool.txt	LTP150	ltpFR	0	14	0	KNEE	784	n/a	n/a	0	0.422607421875	0.5869140625	0	lower	zerothre.ttf
2551455	WORD	wordpools/wasnorm_wordpool.txt	LTP150	ltpFR	0	14	0	TUXEDO	1525	n/a	n/a	0	0.422607421875	0.5869140625	0	lower	zerothre.ttf
2555620	WORD	wordpools/wasnorm_wordpool.txt	LTP150	ltpFR	0	14	0	PORPOISE	1109	n/a	n/a	1	0.422607421875	0.5869140625	0	lower	zerothre.ttf
2559536	WORD	wordpools/wasnorm_wordpool.txt	LTP150	ltpFR	0	14	0	FARM	552	n/a	n/a	1	0.422607421875	0.5869140625	0	lower	zerothre.ttf
2563501	WORD	wordpools/wasnorm_wordpool.txt	LTP150	ltpFR	0	14	1	KLEENEX	782	n/a	n/a	0	0.57763671875	0.412841796875	1	upper	amplitud.ttf
2567399	WORD	wordpools/wasnorm_wordpool.txt	LTP150	ltpFR	0	14	1	OTTER	986	n/a	n/a	1	0.57763671875	0.412841796875	1	upper	amplitud.ttf
2571256	WORD	wordpools/wasnorm_wordpool.txt	LTP150	ltpFR	0	14	1	REPTILE	1185	n/a	n/a	1	0.57763671875	0.412841796875	1	upper	amplitud.ttf
2576954	REC_START	n/a	LTP150	ltpFR	0	14	n/a	n/a	n/a	n/a	n/a	n/a	n/a	n/a	n/a	n/a	n/a
2578500	REC_WORD	wordpools/wasnorm_wordpool.txt	LTP150	ltpFR	0	14	1	REPTILE	1185	n/a	n/a	1	n/a	n/a	n/a	n/a	n/a
2580311	REC_WORD	wordpools/wasnorm_wordpool.txt	LTP150	ltpFR	0	14	1	OTTER	986	n/a	n/a	1	n/a	n/a	n/a	n/a	n/a
2581941	REC_WORD	wordpools/wasnorm_wordpool.txt	LTP150	ltpFR	0	14	1	KLEENEX	782	n/a	n/a	0	n/a	n/a	n/a	n/a	n/a
2584846	REC_WORD	wordpools/wasnorm_wordpool.txt	LTP150	ltpFR	0	14	1	WALRUS	1585	n/a	n/a	1	n/a	n/a	n/a	n/a	n/a
2586647	REC_WORD	wordpools/wasnorm_wordpool.txt	LTP150	ltpFR	0	14	0	HOSE	720	n/a	n/a	1	n/a	n/a	n/a	n/a	n/a
2588502	REC_WORD	wordpools/wasnorm_wordpool.txt	LTP150	ltpFR	0	14	0	RIVER	1194	n/a	n/a	1	n/a	n/a	n/a	n/a	n/a
2601568	REC_WORD	wordpools/wasnorm_wordpool.txt	LTP150	ltpFR	0	14	0	KNEE	784	n/a	n/a	0	n/a	n/a	n/a	n/a	n/a
2603419	REC_WORD	wordpools/wasnorm_wordpool.txt	LTP150	ltpFR	0	14	0	TUXEDO	1525	n/a	n/a	0	n/a	n/a	n/a	n/a	n/a
2621004	REC_WORD	wordpools/wasnorm_wordpool.txt	LTP150	ltpFR	0	14	0	ARM	38	n/a	n/a	1	n/a	n/a	n/a	n/a	n/a
2626072	REC_WORD	wordpools/wasnorm_wordpool.txt	LTP150	ltpFR	0	14	1	VINEGAR	1569	n/a	n/a	0	n/a	n/a	n/a	n/a	n/a
2627683	REC_WORD	wordpools/wasnorm_wordpool.txt	LTP150	ltpFR	0	14	1	STEAM	1375	n/a	n/a	0	n/a	n/a	n/a	n/a	n/a
2629928	REC_WORD	wordpools/wasnorm_wordpool.txt	LTP150	ltpFR	0	14	1	WALRUS	1585	n/a	n/a	1	n/a	n/a	n/a	n/a	n/a
2645493	REC_WORD	wordpools/wasnorm_wordpool.txt	LTP150	ltpFR	0	14	1	ANIMAL	23	n/a	n/a	1	n/a	n/a	n/a	n/a	n/a
2659915	WORD	wordpools/wasnorm_wordpool.txt	LTP150	ltpFR	0	15	0	VALVE	1546	n/a	n/a	0	0.422607421875	0.5869140625	0	lower	zerothre.ttf
2664015	WORD	wordpools/wasnorm_wordpool.txt	LTP150	ltpFR	0	15	0	SOLDIER	1344	n/a	n/a	1	0.422607421875	0.5869140625	0	lower	zerothre.ttf
2667879	WORD	wordpools/wasnorm_wordpool.txt	LTP150	ltpFR	0	15	0	PENGUIN	1044	n/a	n/a	1	0.422607421875	0.5869140625	0	lower	zerothre.ttf
2671903	WORD	wordpools/wasnorm_wordpool.txt	LTP150	ltpFR	0	15	0	LIEUTENANT	818	n/a	n/a	1	0.422607421875	0.5869140625	0	lower	zerothre.ttf
2675786	WORD	wordpools/wasnorm_wordpool.txt	LTP150	ltpFR	0	15	1	PIER	1063	n/a	n/a	0	0.57763671875	0.412841796875	1	upper	amplitud.ttf
2679933	WORD	wordpools/wasnorm_wordpool.txt	LTP150	ltpFR	0	15	1	CAPTAIN	239	n/a	n/a	1	0.57763671875	0.412841796875	1	upper	amplitud.ttf
2683974	WORD	wordpools/wasnorm_wordpool.txt	LTP150	ltpFR	0	15	1	PACKAGE	997	n/a	n/a	0	0.57763671875	0.412841796875	1	upper	amplitud.ttf
2687815	WORD	wordpools/wasnorm_wordpool.txt	LTP150	ltpFR	0	15	0	STOMACH	1384	n/a	n/a	0	0.422607421875	0.5869140625	0	lower	zerothre.ttf
2691714	WORD	wordpools/wasnorm_wordpool.txt	LTP150	ltpFR	0	15	0	GRILL	661	n/a	n/a	1	0.422607421875	0.5869140625	0	lower	zerothre.ttf
2695687	WORD	wordpools/wasnorm_wordpool.txt	LTP150	ltpFR	0	15	0	CHARCOAL	281	n/a	n/a	0	0.422607421875	0.5869140625	0	lower	zerothre.ttf
2699736	WORD	wordpools/wasnorm_wordpool.txt	LTP150	ltpFR	0	15	0	VEAL	1551	n/a	n/a	0	0.422607421875	0.5869140625	0	lower	zerothre.ttf
2703809	WORD	wordpools/wasnorm_wordpool.txt	LTP150	ltpFR	0	15	1	FARMER	553	n/a	n/a	1	0.57763671875	0.412841796875	1	upper	amplitud.ttf
2707932	WORD	wordpools/wasnorm_wordpool.txt	LTP150	ltpFR	0	15	1	GENERAL	630	n/a	n/a	1	0.57763671875	0.412841796875	1	upper	amplitud.ttf
2711765	WORD	wordpools/wasnorm_wordpool.txt	LTP150	ltpFR	0	15	1	TREASURE	1500	n/a	n/a	0	0.57763671875	0.412841796875	1	upper	amplitud.ttf
2715672	WORD	wordpools/wasnorm_wordpool.txt	LTP150	ltpFR	0	15	1	LIVER	833	n/a	n/a	1	0.57763671875	0.412841796875	1	upper	amplitud.ttf
2719612	WORD	wordpools/wasnorm_wordpool.txt	LTP150	ltpFR	0	15	1	JUG	762	n/a	n/a	0	0.57763671875	0.412841796875	1	upper	amplitud.ttf
2725644	REC_START	n/a	LTP150	ltpFR	0	15	n/a	n/a	n/a	n/a	n/a	n/a	n/a	n/a	n/a	n/a	n/a
2727974	REC_WORD	wordpools/wasnorm_wordpool.txt	LTP150	ltpFR	0	15	1	JUG	762	n/a	n/a	0	n/a	n/a	n/a	n/a	n/a
2729485	REC_WORD	wordpools/wasnorm_wordpool.txt	LTP150	ltpFR	0	15	1	LIVER	833	n/a	n/a	1	n/a	n/a	n/a	n/a	n/a
2730931	REC_WORD	wordpools/wasnorm_wordpool.txt	LTP150	ltpFR	0	15	1	FARMER	553	n/a	n/a	1	n/a	n/a	n/a	n/a	n/a
2733029	REC_WORD	wordpools/wasnorm_wordpool.txt	LTP150	ltpFR	0	15	0	LIEUTENANT	818	n/a	n/a	1	n/a	n/a	n/a	n/a	n/a
2734638	REC_WORD	wordpools/wasnorm_wordpool.txt	LTP150	ltpFR	0	15	1	CAPTAIN	239	n/a	n/a	1	n/a	n/a	n/a	n/a	n/a
2738046	REC_WORD	wordpools/wasnorm_wordpool.txt	LTP150	ltpFR	0	15	0	VEAL	1551	n/a	n/a	0	n/a	n/a	n/a	n/a	n/a
2742790	REC_WORD	wordpools/wasnorm_wordpool.txt	LTP150	ltpFR	0	15	0	PENGUIN	1044	n/a	n/a	1	n/a	n/a	n/a	n/a	n/a
2746606	REC_WORD	wordpools/wasnorm_wordpool.txt	LTP150	ltpFR	0	15	0	GRILL	661	n/a	n/a	1	n/a	n/a	n/a	n/a	n/a
2748442	REC_WORD	wordpools/wasnorm_wordpool.txt	LTP150	ltpFR	0	15	0	CHARCOAL	281	n/a	n/a	0	n/a	n/a	n/a	n/a	n/a
2762240	REC_WORD	wordpools/wasnorm_wordpool.txt	LTP150	ltpFR	0	15	0	VALVE	1546	n/a	n/a	0	n/a	n/a	n/a	n/a	n/a
2807106	WORD	wordpools/wasnorm_wordpool.txt	LTP150	ltpFR	0	16	0	ORNAMENT	985	n/a	n/a	0	0.422607421875	0.5869140625	0	lower	zerothre.ttf
2811129	WORD	wordpools/wasnorm_wordpool.txt	LTP150	ltpFR	0	16	0	BANQUET	86	n/a	n/a	1	0.422607421875	0.5869140625	0	lower	zerothre.ttf
2815128	WORD	wordpools/wasnorm_wordpool.txt	LTP150	ltpFR	0	16	1	SUPPER	1411	n/a	n/a	0	0.57763671875	0.412841796875	1	upper	amplitud.ttf
2819043	WORD	wordpools/wasnorm_wordpool.txt	LTP150	ltpFR	0	16	1	NOMAD	955	n/a	n/a	1	0.57763671875	0.412841796875	1	upper	amplitud.ttf
2823092	WORD	wordpools/wasnorm_wordpool.txt	LTP150	ltpFR	0	16	1	TEACHER	1440	n/a	n/a	1	0.57763671875	0.412841796875	1	upper	amplitud.ttf
2827024	WORD	wordpools/wasnorm_wordpool.txt	LTP150	ltpFR	0	16	1	CRAB	397	n/a	n/a	1	0.57763671875	0.412841796875	1	upper	amplitud.ttf
2831105	WORD	wordpools/wasnorm_wordpool.txt	LTP150	ltpFR	0	16	0	POTATO	1115	n/a	n/a	0	0.422607421875	0.5869140625	0	lower	zerothre.ttf
2834920	WORD	wordpools/wasnorm_wordpool.txt	LTP150	ltpFR	0	16	0	REPORT	1184	n/a	n/a	0	0.422607421875	0.5869140625	0	lower	zerothre.ttf
2839044	WORD	wordpools/wasnorm_wordpool.txt	LTP150	ltpFR	0	16	0	WITNESS	1618	n/a	n/a	1	0.422607421875	0.5869140625	0	lower	zerothre.ttf
2843126	WORD	wordpools/wasnorm_wordpool.txt	LTP150	ltpFR	0	16	0	CRIMINAL	409	n/a	n/a	1	0.422607421875	0.5869140625	0	lower	zerothre.ttf
2847275	WORD	wordpools/wasnorm_wordpool.txt	LTP150	ltpFR	0	16	1	TOASTER	1472	n/a	n/a	0	0.57763671875	0.412841796875	1	upper	amplitud.ttf
2851157	WORD	wordpools/wasnorm_wordpool.txt	LTP150	ltpFR	0	16	1	BAG	69	n/a	n/a	0	0.57763671875	0.412841796875	1	upper	amplitud.ttf
2855305	WORD	wordpools/wasnorm_wordpool.txt	LTP150	ltpFR	0	16	1	TRUMPET	1513	n/a	n/a	0	0.57763671875	0.412841796875	1	upper	amplitud.ttf
2859420	WORD	wordpools/wasnorm_wordpool.txt	LTP150	ltpFR	0	16	1	COURSE	390	n/a	n/a	0	0.57763671875	0.412841796875	1	upper	amplitud.ttf
2863527	WORD	wordpools/wasnorm_wordpool.txt	LTP150	ltpFR	0	16	0	OVEN	991	n/a	n/a	1	0.422607421875	0.5869140625	0	lower	zerothre.ttf
2867359	WORD	wordpools/wasnorm_wordpool.txt	LTP150	ltpFR	0	16	0	TIMBER	1469	n/a	n/a	1	0.422607421875	0.5869140625	0	lower	zerothre.ttf
2873183	REC_START	n/a	LTP150	ltpFR	0	16	n/a	n/a	n/a	n/a	n/a	n/a	n/a	n/a	n/a	n/a	n/a
2874560	REC_WORD	wordpools/wasnorm_wordpool.txt	LTP150	ltpFR	0	16	0	TIMBER	1469	n/a	n/a	1	n/a	n/a	n/a	n/a	n/a
2876111	REC_WORD	wordpools/wasnorm_wordpool.txt	LTP150	ltpFR	0	16	0	OVEN	991	n/a	n/a	1	n/a	n/a	n/a	n/a	n/a
2877788	REC_WORD	wordpools/wasnorm_wordpool.txt	LTP150	ltpFR	0	16	0	CRIMINAL	409	n/a	n/a	1	n/a	n/a	n/a	n/a	n/a
2880197	REC_WORD	wordpools/wasnorm_wordpool.txt	LTP150	ltpFR	0	16	1	BAG	69	n/a	n/a	0	n/a	n/a	n/a	n/a	n/a
2888094	REC_WORD	wordpools/wasnorm_wordpool.txt	LTP150	ltpFR	0	16	1	TEACHER	1440	n/a	n/a	1	n/a	n/a	n/a	n/a	n/a
2893751	REC_WORD	wordpools/wasnorm_wordpool.txt	LTP150	ltpFR	0	16	1	CRAB	397	n/a	n/a	1	n/a	n/a	n/a	n/a	n/a
2922161	REC_WORD	wordpools/wasnorm_wordpool.txt	LTP150	ltpFR	0	16	0	OVEN	991	n/a	n/a	1	n/a	n/a	n/a	n/a	n/a
3022080	REC_START	n/a	LTP150	ltpFR	0	n/a	n/a	n/a	n/a	n/a	n/a	n/a	n/a	n/a	n/a	n/a	n/a
3024245	FFR_REC_WORD	wordpools/wasnorm_wordpool.txt	LTP150	ltpFR	0	n/a	-1	POOL	1103	n/a	n/a	-1	n/a	n/a	n/a	n/a	n/a
3026121	FFR_REC_WORD	wordpools/wasnorm_wordpool.txt	LTP150	ltpFR	0	n/a	1	MARINE	869	n/a	n/a	1	n/a	n/a	n/a	n/a	n/a
3028276	FFR_REC_WORD	wordpools/wasnorm_wordpool.txt	LTP150	ltpFR	0	n/a	1	PIRATE	1074	n/a	n/a	1	n/a	n/a	n/a	n/a	n/a
3030391	FFR_REC_WORD	wordpools/wasnorm_wordpool.txt	LTP150	ltpFR	0	n/a	0	CRIMINAL	409	n/a	n/a	1	n/a	n/a	n/a	n/a	n/a
3032192	FFR_REC_WORD	wordpools/wasnorm_wordpool.txt	LTP150	ltpFR	0	n/a	-1	GIRAFFE	636	n/a	n/a	-1	n/a	n/a	n/a	n/a	n/a
3034187	FFR_REC_WORD	wordpools/wasnorm_wordpool.txt	LTP150	ltpFR	0	n/a	1	WALRUS	1585	n/a	n/a	1	n/a	n/a	n/a	n/a	n/a
3036103	FFR_REC_WORD	wordpools/wasnorm_wordpool.txt	LTP150	ltpFR	0	n/a	1	CRAB	397	n/a	n/a	1	n/a	n/a	n/a	n/a	n/a
3040024	FFR_REC_WORD	wordpools/wasnorm_wordpool.txt	LTP150	ltpFR	0	n/a	0	VALVE	1546	n/a	n/a	0	n/a	n/a	n/a	n/a	n/a
3043492	FFR_REC_WORD	wordpools/wasnorm_wordpool.txt	LTP150	ltpFR	0	n/a	1	TEACHER	1440	n/a	n/a	1	n/a	n/a	n/a	n/a	n/a
3046160	FFR_REC_WORD	wordpools/wasnorm_wordpool.txt	LTP150	ltpFR	0	n/a	1	GERM	632	n/a	n/a	1	n/a	n/a	n/a	n/a	n/a
3049512	FFR_REC_WORD	wordpools/wasnorm_wordpool.txt	LTP150	ltpFR	0	n/a	1	COBRA	336	n/a	n/a	1	n/a	n/a	n/a	n/a	n/a
3056068	FFR_REC_WORD	wordpools/wasnorm_wordpool.txt	LTP150	ltpFR	0	n/a	-1	RESTAURANT	1187	n/a	n/a	-1	n/a	n/a	n/a	n/a	n/a
3058302	FFR_REC_WORD	wordpools/wasnorm_wordpool.txt	LTP150	ltpFR	0	n/a	-1	BEAVER	109	n/a	n/a	-1	n/a	n/a	n/a	n/a	n/a
3063176	FFR_REC_WORD	wordpools/wasnorm_wordpool.txt	LTP150	ltpFR	0	n/a	0	RIVER	1194	n/a	n/a	1	n/a	n/a	n/a	n/a	n/a
3067806	FFR_REC_WORD	wordpools/wasnorm_wordpool.txt	LTP150	ltpFR	0	n/a	0	OVEN	991	n/a	n/a	1	n/a	n/a	n/a	n/a	n/a
3078975	FFR_REC_WORD	wordpools/wasnorm_wordpool.txt	LTP150	ltpFR	0	n/a	1	WALRUS	1585	n/a	n/a	1	n/a	n/a	n/a	n/a	n/a
3080776	FFR_REC_WORD	wordpools/wasnorm_wordpool.txt	LTP150	ltpFR	0	n/a	1	TUSK	1523	n/a	n/a	0	n/a	n/a	n/a	n/a	n/a
3090684	FFR_REC_WORD	wordpools/wasnorm_wordpool.txt	LTP150	ltpFR	0	n/a	0	DORM	488	n/a	n/a	1	n/a	n/a	n/a	n/a	n/a
3093922	FFR_REC_WORD	wordpools/wasnorm_wordpool.txt	LTP150	ltpFR	0	n/a	0	DRIVEWAY	500	n/a	n/a	1	n/a	n/a	n/a	n/a	n/a
3096620	FFR_REC_WORD	wordpools/wasnorm_wordpool.txt	LTP150	ltpFR	0	n/a	0	VAN	1548	n/a	n/a	1	n/a	n/a	n/a	n/a	n/a
3101165	FFR_REC_WORD	wordpools/wasnorm_wordpool.txt	LTP150	ltpFR	0	n/a	0	PROFESSOR	1131	n/a	n/a	1	n/a	n/a	n/a	n/a	n/a
3134649	FFR_REC_WORD	wordpools/wasnorm_wordpool.txt	LTP150	ltpFR	0	n/a	0	STRAWBERRY	1391	n/a	n/a	0	n/a	n/a	n/a	n/a	n/a
3137582	FFR_REC_WORD	wordpools/wasnorm_wordpool.txt	LTP150	ltpFR	0	n/a	0	TANGERINE	1431	n/a	n/a	0	n/a	n/a	n/a	n/a	n/a
3141114	FFR_REC_WORD	wordpools/wasnorm_wordpool.txt	LTP150	ltpFR	0	n/a	0	PEAR	1033	n/a	n/a	0	n/a	n/a	n/a	n/a	n/a
3143827	FFR_REC_WORD	wordpools/wasnorm_wordpool.txt	LTP150	ltpFR	0	n/a	1	FUNGUS	614	n/a	n/a	1	n/a	n/a	n/a	n/a	n/a
3146362	FFR_REC_WORD	wordpools/wasnorm_wordpool.txt	LTP150	ltpFR	0	n/a	1	POT	1114	n/a	n/a	0	n/a	n/a	n/a	n/a	n/a
3158793	FFR_REC_WORD	wordpools/wasnorm_wordpool.txt	LTP150	ltpFR	0	n/a	1	THICKET	1455	n/a	n/a	0	n/a	n/a	n/a	n/a	n/a
3162141	FFR_REC_WORD	wordpools/wasnorm_wordpool.txt	LTP150	ltpFR	0	n/a	1	BEARD	107	n/a	n/a	0	n/a	n/a	n/a	n/a	n/a
3165467	FFR_REC_WORD	wordpools/wasnorm_wordpool.txt	LTP150	ltpFR	0	n/a	1	BUFFALO	186	n/a	n/a	1	n/a	n/a	n/a	n/a	n/a
3168395	FFR_REC_WORD	wordpools/wasnorm_wordpool.txt	LTP150	ltpFR	0	n/a	1	NOMAD	955	n/a	n/a	1	n/a	n/a	n/a	n/a	n/a
3170867	FFR_REC_WORD	wordpools/wasnorm_wordpool.txt	LTP150	ltpFR	0	n/a	1	CARNIVAL	245	n/a	n/a	0	n/a	n/a	n/a	n/a	n/a
3173186	FFR_REC_WORD	wordpools/wasnorm_wordpool.txt	LTP150	ltpFR	0	n/a	1	PARTY	1018	n/a	n/a	0	n/a	n/a	n/a	n/a	n/a
3182974	FFR_REC_WORD	wordpools/wasnorm_wordpool.txt	LTP150	ltpFR	0	n/a	0	KNEE	784	n/a	n/a	0	n/a	n/a	n/a	n/a	n/a
3185439	FFR_REC_WORD	wordpools/wasnorm_wordpool.txt	LTP150	ltpFR	0	n/a	0	TUXEDO	1525	n/a	n/a	0	n/a	n/a	n/a	n/a	n/a
3188367	FFR_REC_WORD	wordpools/wasnorm_wordpool.txt	LTP150	ltpFR	0	n/a	1	NECK	939	n/a	n/a	0	n/a	n/a	n/a	n/a	n/a
3190681	FFR_REC_WORD	wordpools/wasnorm_wordpool.txt	LTP150	ltpFR	0	n/a	1	MINK	897	n/a	n/a	1	n/a	n/a	n/a	n/a	n/a
3199761	FFR_REC_WORD	wordpools/wasnorm_wordpool.txt	LTP150	ltpFR	0	n/a	0	SKULL	1320	n/a	n/a	1	n/a	n/a	n/a	n/a	n/a
3201661	FFR_REC_WORD	wordpools/wasnorm_wordpool.txt	LTP150	ltpFR	0	n/a	0	SCREEN	1253	n/a	n/a	1	n/a	n/a	n/a	n/a	n/a
3222464	FFR_REC_WORD	wordpools/wasnorm_wordpool.txt	LTP150	ltpFR	0	n/a	0	PORPOISE	1109	n/a	n/a	1	n/a	n/a	n/a	n/a	n/a
3231110	FFR_REC_WORD	wordpools/wasnorm_wordpool.txt	LTP150	ltpFR	0	n/a	-1	COUNTRY	388	n/a	n/a	-1	n/a	n/a	n/a	n/a	n/a
3246016	FFR_REC_WORD	wordpools/wasnorm_wordpool.txt	LTP150	ltpFR	0	n/a	1	TYPEWRITER	1531	n/a	n/a	0	n/a	n/a	n/a	n/a	n/a
3263960	FFR_REC_WORD	wordpools/wasnorm_wordpool.txt	LTP150	ltpFR	0	n/a	1	SAND	1230	n/a	n/a	0	n/a	n/a	n/a	n/a	n/a
3266549	FFR_REC_WORD	wordpools/wasnorm_wordpool.txt	LTP150	ltpFR	0	n/a	0	GRAVEL	659	n/a	n/a	0	n/a	n/a	n/a	n/a	n/a
3268964	FFR_REC_WORD	wordpools/wasnorm_wordpool.txt	LTP150	ltpFR	0	n/a	0	CHARCOAL	281	n/a	n/a	0	n/a	n/a	n/a	n/a	n/a
3271383	FFR_REC_WORD	wordpools/wasnorm_wordpool.txt	LTP150	ltpFR	0	n/a	0	GRILL	661	n/a	n/a	1	n/a	n/a	n/a	n/a	n/a
3274631	FFR_REC_WORD	wordpools/wasnorm_wordpool.txt	LTP150	ltpFR	0	n/a	0	EMERALD	528	n/a	n/a	0	n/a	n/a	n/a	n/a	n/a
3285950	FFR_REC_WORD	wordpools/wasnorm_wordpool.txt	LTP150	ltpFR	0	n/a	0	GULL	671	n/a	n/a	1	n/a	n/a	n/a	n/a	n/a
3308529	FFR_REC_WORD	wordpools/wasnorm_wordpool.txt	LTP150	ltpFR	0	n/a	-1	SCALPEL	1243	n/a	n/a	-1	n/a	n/a	n/a	n/a	n/a
3313752	FFR_REC_WORD	wordpools/wasnorm_wordpool.txt	LTP150	ltpFR	0	n/a	-1	SCHOOL	1248	n/a	n/a	-1	n/a	n/a	n/a	n/a	n/a
3517969	REC_START	n/a	LTP150	ltpFR	0	1	n/a	n/a	n/a	n/a	n/a	n/a	n/a	n/a	n/a	n/a	n/a
3518003	RECOG_LURE	n/a	LTP150	ltpFR	0	1	n/a	CRITIC	410	0	5	n/a	n/a	n/a	n/a	n/a	n/a
3519615	RECOG_RESP	n/a	LTP150	ltpFR	0	1	n/a	CRITIC	410	0	n/a	n/a	n/a	n/a	n/a	n/a	n/a
3522073	RECOG_CONF	n/a	LTP150	ltpFR	0	1	n/a	CRITIC	410	n/a	5	n/a	n/a	n/a	n/a	n/a	n/a
3526874	RECOG_TARGET	n/a	LTP150	ltpFR	0	1	-1	BEAVER	109	1	5	-1	n/a	n/a	n/a	n/a	n/a
3528261	RECOG_RESP	n/a	LTP150	ltpFR	0	1	-1	BEAVER	109	1	n/a	-1	n/a	n/a	n/a	n/a	n/a
3530320	RECOG_CONF	n/a	LTP150	ltpFR	0	1	-1	BEAVER	109	n/a	5	-1	n/a	n/a	n/a	n/a	n/a
3532223	RECOG_TARGET	n/a	LTP150	ltpFR	0	1	1	WINNER	1615	0	1	1	n/a	n/a	n/a	n/a	n/a
3534043	RECOG_RESP	n/a	LTP150	ltpFR	0	1	1	WINNER	1615	0	n/a	1	n/a	n/a	n/a	n/a	n/a
3537226	RECOG_CONF	n/a	LTP150	ltpFR	0	1	1	WINNER	1615	n/a	1	1	n/a	n/a	n/a	n/a	n/a
3539020	RECOG_LURE	n/a	LTP150	ltpFR	0	1	n/a	TILE	1468	0	3	n/a	n/a	n/a	n/a	n/a	n/a
3540755	RECOG_RESP	n/a	LTP150	ltpFR	0	1	n/a	TILE	1468	0	n/a	n/a	n/a	n/a	n/a	n/a	n/a
3543725	RECOG_CONF	n/a	LTP150	ltpFR	0	1	n/a	TILE	1468	n/a	3	n/a	n/a	n/a	n/a	n/a	n/a
3545385	RECOG_TARGET	n/a	LTP150	ltpFR	0	1	1	CHICKEN	297	1	5	1	n/a	n/a	n/a	n/a	n/a
3546718	RECOG_RESP	n/a	LTP150	ltpFR	0	1	1	CHICKEN	297	1	n/a	1	n/a	n/a	n/a	n/a	n/a
3548744	RECOG_CONF	n/a	LTP150	ltpFR	0	1	1	CHICKEN	297	n/a	5	1	n/a	n/a	n/a	n/a	n/a
3550774	RECOG_TARGET	n/a	LTP150	ltpFR	0	1	0	RAZOR	1171	1	4	0	n/a	n/a	n/a	n/a	n/a
3552710	RECOG_RESP	n/a	LTP150	ltpFR	0	1	0	RAZOR	1171	1	n/a	0	n/a	n/a	n/a	n/a	n/a
3554622	RECOG_CONF	n/a	LTP150	ltpFR	0	1	0	RAZOR	1171	n/a	4	0	n/a	n/a	n/a	n/a	n/a
3557189	RECOG_LURE	n/a	LTP150	ltpFR	0	1	n/a	FUR	615	0	4	n/a	n/a	n/a	n/a	n/a	n/a
3558645	RECOG_RESP	n/a	LTP150	ltpFR	0	1	n/a	FUR	615	0	n/a	n/a	n/a	n/a	n/a	n/a	n/a
3561335	RECOG_CONF	n/a	LTP150	ltpFR	0	1	n/a	FUR	615	n/a	4	n/a	n/a	n/a	n/a	n/a	n/a
3562969	RECOG_LURE	n/a	LTP150	ltpFR	0	1	n/a	SKYSCRAPER	1322	0	5	n/a	n/a	n/a	n/a	n/a	n/a
3564068	RECOG_RESP	n/a	LTP150	ltpFR	0	1	n/a	SKYSCRAPER	1322	0	n/a	n/a	n/a	n/a	n/a	n/a	n/a
3566893	RECOG_CONF	n/a	LTP150	ltpFR	0	1	n/a	SKYSCRAPER	1322	n/a	5	n/a	n/a	n/a	n/a	n/a	n/a
3569109	RECOG_LURE	n/a	LTP150	ltpFR	0	1	n/a	OINTMENT	974	0	5	n/a	n/a	n/a	n/a	n/a	n/a
3570241	RECOG_RESP	n/a	LTP150	ltpFR	0	1	n/a	OINTMENT	974	0	n/a	n/a	n/a	n/a	n/a	n/a	n/a
3573168	RECOG_CONF	n/a	LTP150	ltpFR	0	1	n/a	OINTMENT	974	n/a	5	n/a	n/a	n/a	n/a	n/a	n/a
3575149	RECOG_LURE	n/a	LTP150	ltpFR	0	1	n/a	MANSION	864	0	5	n/a	n/a	n/a	n/a	n/a	n/a
3576104	RECOG_RESP	n/a	LTP150	ltpFR	0	1	n/a	MANSION	864	0	n/a	n/a	n/a	n/a	n/a	n/a	n/a
3578327	RECOG_CONF	n/a	LTP150	ltpFR	0	1	n/a	MANSION	864	n/a	5	n/a	n/a	n/a	n/a	n/a	n/a
3580014	RECOG_TARGET	n/a	LTP150	ltpFR	0	1	1	ROOT	1210	1	5	1	n/a	n/a	n/a	n/a	n/a
3581848	RECOG_RESP	n/a	LTP150	ltpFR	0	1	1	ROOT	1210	1	n/a	1	n/a	n/a	n/a	n/a	n/a
3583497	RECOG_CONF	n/a	LTP150	ltpFR	0	1	1	ROOT	1210	n/a	5	1	n/a	n/a	n/a	n/a	n/a
3585762	RECOG_TARGET	n/a	LTP150	ltpFR	0	1	-1	CAKE	219	1	5	-1	n/a	n/a	n/a	n/a	n/a
3586672	RECOG_RESP	n/a	LTP150	ltpFR	0	1	-1	CAKE	219	1	n/a	-1	n/a	n/a	n/a	n/a	n/a
3589092	RECOG_CONF	n/a	LTP150	ltpFR	0	1	-1	CAKE	219	n/a	5	-1	n/a	n/a	n/a	n/a	n/a
3591277	RECOG_TARGET	n/a	LTP150	ltpFR	0	1	0	SAXOPHONE	1240	1	4	1	n/a	n/a	n/a	n/a	n/a
3592672	RECOG_RESP	n/a	LTP150	ltpFR	0	1	0	SAXOPHONE	1240	1	n/a	1	n/a	n/a	n/a	n/a	n/a
3594540	RECOG_CONF	n/a	LTP150	ltpFR	0	1	0	SAXOPHONE	1240	n/a	4	1	n/a	n/a	n/a	n/a	n/a
3596316	RECOG_TARGET	n/a	LTP150	ltpFR	0	1	0	NECKLACE	940	0	2	0	n/a	n/a	n/a	n/a	n/a
3597506	RECOG_RESP	n/a	LTP150	ltpFR	0	1	0	NECKLACE	940	0	n/a	0	n/a	n/a	n/a	n/a	n/a
3599717	RECOG_CONF	n/a	LTP150	ltpFR	0	1	0	NECKLACE	940	n/a	2	0	n/a	n/a	n/a	n/a	n/a
3601514	RECOG_TARGET	n/a	LTP150	ltpFR	0	1	1	DRILL	497	1	5	0	n/a	n/a	n/a	n/a	n/a
3602651	RECOG_RESP	n/a	LTP150	ltpFR	0	1	1	DRILL	497	1	n/a	0	n/a	n/a	n/a	n/a	n/a
3604081	RECOG_CONF	n/a	LTP150	ltpFR	0	1	1	DRILL	497	n/a	5	0	n/a	n/a	n/a	n/a	n/a
3606188	RECOG_LURE	n/a	LTP150	ltpFR	0	1	n/a	THIMBLE	1458	0	2	n/a	n/a	n/a	n/a	n/a	n/a
3607409	RECOG_RESP	n/a	LTP150	ltpFR	0	1	n/a	THIMBLE	1458	0	n/a	n/a	n/a	n/a	n/a	n/a	n/a
3609062	RECOG_CONF	n/a	LTP150	ltpFR	0	1	n/a	THIMBLE	1458	n/a	2	n/a	n/a	n/a	n/a	n/a	n/a
3610786	RECOG_LURE	n/a	LTP150	ltpFR	0	1	n/a	ANCESTOR	20	0	3	n/a	n/a	n/a	n/a	n/a	n/a
3612778	RECOG_RESP	n/a	LTP150	ltpFR	0	1	n/a	ANCESTOR	20	0	n/a	n/a	n/a	n/a	n/a	n/a	n/a
3614504	RECOG_CONF	n/a	LTP150	ltpFR	0	1	n/a	ANCESTOR	20	n/a	3	n/a	n/a	n/a	n/a	n/a	n/a
3616043	RECOG_LURE	n/a	LTP150	ltpFR	0	1	n/a	ROOM	1206	1	3	n/a	n/a	n/a	n/a	n/a	n/a
3617535	RECOG_RESP	n/a	LTP150	ltpFR	0	1	n/a	ROOM	1206	1	n/a	n/a	n/a	n/a	n/a	n/a	n/a
3619782	RECOG_CONF	n/a	LTP150	ltpFR	0	1	n/a	ROOM	1206	n/a	3	n/a	n/a	n/a	n/a	n/a	n/a
3621416	RECOG_TARGET	n/a	LTP150	ltpFR	0	1	1	DIAMOND	458	0	4	0	n/a	n/a	n/a	n/a	n/a
3622802	RECOG_RESP	n/a	LTP150	ltpFR	0	1	1	DIAMOND	458	0	n/a	0	n/a	n/a	n/a	n/a	n/a
3625769	RECOG_CONF	n/a	LTP150	ltpFR	0	1	1	DIAMOND	458	n/a	4	0	n/a	n/a	n/a	n/a	n/a
3627547	RECOG_LURE	n/a	LTP150	ltpFR	0	1	n/a	MARBLE	867	0	5	n/a	n/a	n/a	n/a	n/a	n/a
3628498	RECOG_RESP	n/a	LTP150	ltpFR	0	1	n/a	MARBLE	867	0	n/a	n/a	n/a	n/a	n/a	n/a	n/a
3630110	RECOG_CONF	n/a	LTP150	ltpFR	0	1	n/a	MARBLE	867	n/a	5	n/a	n/a	n/a	n/a	n/a	n/a
3645116	REC_START	n/a	LTP150	ltpFR	0	2	n/a	n/a	n/a	n/a	n/a	n/a	n/a	n/a	n/a	n/a	n/a
3645149	RECOG_TARGET	n/a	LTP150	ltpFR	0	2	1	SURVEY	1414	1	5	0	n/a	n/a	n/a	n/a	n/a
3646304	RECOG_RESP	n/a	LTP150	ltpFR	0	2	1	SURVEY	1414	1	n/a	0	n/a	n/a	n/a	n/a	n/a
3648352	RECOG_CONF	n/a	LTP150	ltpFR	0	2	1	SURVEY	1414	n/a	5	0	n/a	n/a	n/a	n/a	n/a
3650555	RECOG_LURE	n/a	LTP150	ltpFR	0	2	n/a	RECEIPT	1173	0	5	n/a	n/a	n/a	n/a	n/a	n/a
3651486	RECOG_RESP	n/a	LTP150	ltpFR	0	2	n/a	RECEIPT	1173	0	n/a	n/a	n/a	n/a	n/a	n/a	n/a
3653562	RECOG_CONF	n/a	LTP150	ltpFR	0	2	n/a	RECEIPT	1173	n/a	5	n/a	n/a	n/a	n/a	n/a	n/a
3655229	RECOG_TARGET	n/a	LTP150	ltpFR	0	2	1	SUPPER	1411	1	4	0	n/a	n/a	n/a	n/a	n/a
3656978	RECOG_RESP	n/a	LTP150	ltpFR	0	2	1	SUPPER	1411	1	n/a	0	n/a	n/a	n/a	n/a	n/a
3659116	RECOG_CONF	n/a	LTP150	ltpFR	0	2	1	SUPPER	1411	n/a	4	0	n/a	n/a	n/a	n/a	n/a
3661018	RECOG_TARGET	n/a	LTP150	ltpFR	0	2	-1	FIELD	562	1	3	-1	n/a	n/a	n/a	n/a	n/a
3662683	RECOG_RESP	n/a	LTP150	ltpFR	0	2	-1	FIELD	562	1	n/a	-1	n/a	n/a	n/a	n/a	n/a
3664555	RECOG_CONF	n/a	LTP150	ltpFR	0	2	-1	FIELD	562	n/a	3	-1	n/a	n/a	n/a	n/a	n/a
3666350	RECOG_TARGET	n/a	LTP150	ltpFR	0	2	0	GRILL	661	1	5	1	n/a	n/a	n/a	n/a	n/a
3667401	RECOG_RESP	n/a	LTP150	ltpFR	0	2	0	GRILL	661	1	n/a	1	n/a	n/a	n/a	n/a	n/a
3669055	RECOG_CONF	n/a	LTP150	ltpFR	0	2	0	GRILL	661	n/a	5	1	n/a	n/a	n/a	n/a	n/a
3671531	RECOG_LURE	n/a	LTP150	ltpFR	0	2	n/a	NEEDLE	941	0	3	n/a	n/a	n/a	n/a	n/a	n/a
3673090	RECOG_RESP	n/a	LTP150	ltpFR	0	2	n/a	NEEDLE	941	0	n/a	n/a	n/a	n/a	n/a	n/a	n/a
3675337	RECOG_CONF	n/a	LTP150	ltpFR	0	2	n/a	NEEDLE	941	n/a	3	n/a	n/a	n/a	n/a	n/a	n/a
3676829	RECOG_LURE	n/a	LTP150	ltpFR	0	2	n/a	VOLCANO	1575	0	5	n/a	n/a	n/a	n/a	n/a	n/a
3677974	RECOG_RESP	n/a	LTP150	ltpFR	0	2	n/a	VOLCANO	1575	0	n/a	n/a	n/a	n/a	n/a	n/a	n/a
3680180	RECOG_CONF	n/a	LTP150	ltpFR	0	2	n/a	VOLCANO	1575	n/a	5	n/a	n/a	n/a	n/a	n/a	n/a
3682161	RECOG_TARGET	n/a	LTP150	ltpFR	0	2	1	SUBWAY	1400	1	5	0	n/a	n/a	n/a	n/a	n/a
3683259	RECOG_RESP	n/a	LTP150	ltpFR	0	2	1	SUBWAY	1400	1	n/a	0	n/a	n/a	n/a	n/a	n/a
3685239	RECOG_CONF	n/a	LTP150	ltpFR	0	2	1	SUBWAY	1400	n/a	5	0	n/a	n/a	n/a	n/a	n/a
3687426	RECOG_TARGET	n/a	LTP150	ltpFR	0	2	0	TACK	1428	1	5	0	n/a	n/a	n/a	n/a	n/a
3688422	RECOG_RESP	n/a	LTP150	ltpFR	0	2	0	TACK	1428	1	n/a	0	n/a	n/a	n/a	n/a	n/a
3690474	RECOG_CONF	n/a	LTP150	ltpFR	0	2	0	TACK	1428	n/a	5	0	n/a	n/a	n/a	n/a	n/a
3692449	RECOG_TARGET	n/a	LTP150	ltpFR	0	2	0	QUILL	1150	1	5	0	n/a	n/a	n/a	n/a	n/a
3693585	RECOG_RESP	n/a	LTP150	ltpFR	0	2	0	QUILL	1150	1	n/a	0	n/a	n/a	n/a	n/a	n/a
3695675	RECOG_CONF	n/a	LTP150	ltpFR	0	2	0	QUILL	1150	n/a	5	0	n/a	n/a	n/a	n/a	n/a
3697772	RECOG_LURE	n/a	LTP150	ltpFR	0	2	n/a	TOOTH	1481	0	4	n/a	n/a	n/a	n/a	n/a	n/a
3698693	RECOG_RESP	n/a	LTP150	ltpFR	0	2	n/a	TOOTH	1481	0	n/a	n/a	n/a	n/a	n/a	n/a	n/a
3700696	RECOG_CONF	n/a	LTP150	ltpFR	0	2	n/a	TOOTH	1481	n/a	4	n/a	n/a	n/a	n/a	n/a	n/a
3702894	RECOG_TARGET	n/a	LTP150	ltpFR	0	2	1	CRIB	407	1	5	0	n/a	n/a	n/a	n/a	n/a
3704136	RECOG_RESP	n/a	LTP150	ltpFR	0	2	1	CRIB	407	1	n/a	0	n/a	n/a	n/a	n/a	n/a
3706491	RECOG_CONF	n/a	LTP150	ltpFR	0	2	1	CRIB	407	n/a	5	0	n/a	n/a	n/a	n/a	n/a
3708326	RECOG_LURE	n/a	LTP150	ltpFR	0	2	n/a	KING	777	0	2	n/a	n/a	n/a	n/a	n/a	n/a
3709466	RECOG_RESP	n/a	LTP150	ltpFR	0	2	n/a	KING	777	0	n/a	n/a	n/a	n/a	n/a	n/a	n/a
3711745	RECOG_CONF	n/a	LTP150	ltpFR	0	2	n/a	KING	777	n/a	2	n/a	n/a	n/a	n/a	n/a	n/a
3713700	RECOG_TARGET	n/a	LTP150	ltpFR	0	2	-1	RESTAURANT	1187	1	5	-1	n/a	n/a	n/a	n/a	n/a
3715233	RECOG_RESP	n/a	LTP150	ltpFR	0	2	-1	RESTAURANT	1187	1	n/a	-1	n/a	n/a	n/a	n/a	n/a
3717590	RECOG_CONF	n/a	LTP150	ltpFR	0	2	-1	RESTAURANT	1187	n/a	5	-1	n/a	n/a	n/a	n/a	n/a
3719639	RECOG_TARGET	n/a	LTP150	ltpFR	0	2	-1	SWITCH	1422	1	5	-1	n/a	n/a	n/a	n/a	n/a
3720707	RECOG_RESP	n/a	LTP150	ltpFR	0	2	-1	SWITCH	1422	1	n/a	-1	n/a	n/a	n/a	n/a	n/a
3722972	RECOG_CONF	n/a	LTP150	ltpFR	0	2	-1	SWITCH	1422	n/a	5	-1	n/a	n/a	n/a	n/a	n/a
3724871	RECOG_LURE	n/a	LTP150	ltpFR	0	2	n/a	PUPPY	1144	0	5	n/a	n/a	n/a	n/a	n/a	n/a
3725781	RECOG_RESP	n/a	LTP150	ltpFR	0	2	n/a	PUPPY	1144	0	n/a	n/a	n/a	n/a	n/a	n/a	n/a
3727494	RECOG_CONF	n/a	LTP150	ltpFR	0	2	n/a	PUPPY	1144	n/a	5	n/a	n/a	n/a	n/a	n/a	n/a
3729444	RECOG_LURE	n/a	LTP150	ltpFR	0	2	n/a	SCISSORS	1250	1	2	n/a	n/a	n/a	n/a	n/a	n/a
3731032	RECOG_RESP	n/a	LTP150	ltpFR	0	2	n/a	SCISSORS	1250	1	n/a	n/a	n/a	n/a	n/a	n/a	n/a
3733372	RECOG_CONF	n/a	LTP150	ltpFR	0	2	n/a	SCISSORS	1250	n/a	2	n/a	n/a	n/a	n/a	n/a	n/a
3735059	RECOG_TARGET	n/a	LTP150	ltpFR	0	2	1	CRAB	397	1	5	1	n/a	n/a	n/a	n/a	n/a
3736141	RECOG_RESP	n/a	LTP150	ltpFR	0	2	1	CRAB	397	1	n/a	1	n/a	n/a	n/a	n/a	n/a
3738278	RECOG_CONF	n/a	LTP150	ltpFR	0	2	1	CRAB	397	n/a	5	1	n/a	n/a	n/a	n/a	n/a
3740315	RECOG_TARGET	n/a	LTP150	ltpFR	0	2	1	ENEMY	534	1	4	1	n/a	n/a	n/a	n/a	n/a
3741306	RECOG_RESP	n/a	LTP150	ltpFR	0	2	1	ENEMY	534	1	n/a	1	n/a	n/a	n/a	n/a	n/a
3743014	RECOG_CONF	n/a	LTP150	ltpFR	0	2	1	ENEMY	534	n/a	4	1	n/a	n/a	n/a	n/a	n/a
3744664	RECOG_TARGET	n/a	LTP150	ltpFR	0	2	0	LINT	826	1	5	0	n/a	n/a	n/a	n/a	n/a
3745574	RECOG_RESP	n/a	LTP150	ltpFR	0	2	0	LINT	826	1	n/a	0	n/a	n/a	n/a	n/a	n/a
3747433	RECOG_CONF	n/a	LTP150	ltpFR	0	2	0	LINT	826	n/a	5	0	n/a	n/a	n/a	n/a	n/a
3755024	REC_START	n/a	LTP150	ltpFR	0	3	n/a	n/a	n/a	n/a	n/a	n/a	n/a	n/a	n/a	n/a	n/a
3755060	RECOG_LURE	n/a	LTP150	ltpFR	0	3	n/a	JUVENILE	767	0	5	n/a	n/a	n/a	n/a	n/a	n/a
3756112	RECOG_RESP	n/a	LTP150	ltpFR	0	3	n/a	JUVENILE	767	0	n/a	n/a	n/a	n/a	n/a	n/a	n/a
3757793	RECOG_CONF	n/a	LTP150	ltpFR	0	3	n/a	JUVENILE	767	n/a	5	n/a	n/a	n/a	n/a	n/a	n/a
3759550	RECOG_TARGET	n/a	LTP150	ltpFR	0	3	1	GERM	632	1	5	1	n/a	n/a	n/a	n/a	n/a
3760392	RECOG_RESP	n/a	LTP150	ltpFR	0	3	1	GERM	632	1	n/a	1	n/a	n/a	n/a	n/a	n/a
3762161	RECOG_CONF	n/a	LTP150	ltpFR	0	3	1	GERM	632	n/a	5	1	n/a	n/a	n/a	n/a	n/a
3764040	RECOG_TARGET	n/a	LTP150	ltpFR	0	3	1	TOASTER	1472	1	5	0	n/a	n/a	n/a	n/a	n/a
3765047	RECOG_RESP	n/a	LTP150	ltpFR	0	3	1	TOASTER	1472	1	n/a	0	n/a	n/a	n/a	n/a	n/a
3766882	RECOG_CONF	n/a	LTP150	ltpFR	0	3	1	TOASTER	1472	n/a	5	0	n/a	n/a	n/a	n/a	n/a
3768613	RECOG_TARGET	n/a	LTP150	ltpFR	0	3	0	FIDDLE	561	0	4	1	n/a	n/a	n/a	n/a	n/a
3769402	RECOG_RESP	n/a	LTP150	ltpFR	0	3	0	FIDDLE	561	0	n/a	1	n/a	n/a	n/a	n/a	n/a
3771252	RECOG_CONF	n/a	LTP150	ltpFR	0	3	0	FIDDLE	561	n/a	4	1	n/a	n/a	n/a	n/a	n/a
3773270	RECOG_TARGET	n/a	LTP150	ltpFR	0	3	1	SEAT	1264	0	3	0	n/a	n/a	n/a	n/a	n/a
3774469	RECOG_RESP	n/a	LTP150	ltpFR	0	3	1	SEAT	1264	0	n/a	0	n/a	n/a	n/a	n/a	n/a
3776342	RECOG_CONF	n/a	LTP150	ltpFR	0	3	1	SEAT	1264	n/a	3	0	n/a	n/a	n/a	n/a	n/a
3778160	RECOG_LURE	n/a	LTP150	ltpFR	0	3	n/a	STOOL	1386	1	3	n/a	n/a	n/a	n/a	n/a	n/a
3779564	RECOG_RESP	n/a	LTP150	ltpFR	0	3	n/a	STOOL	1386	1	n/a	n/a	n/a	n/a	n/a	n/a	n/a
3782098	RECOG_CONF	n/a	LTP150	ltpFR	0	3	n/a	STOOL	1386	n/a	3	n/a	n/a	n/a	n/a	n/a	n/a
3783583	RECOG_LURE	n/a	LTP150	ltpFR	0	3	n/a	PEACH	1031	0	3	n/a	n/a	n/a	n/a	n/a	n/a
3784813	RECOG_RESP	n/a	LTP150	ltpFR	0	3	n/a	PEACH	1031	0	n/a	n/a	n/a	n/a	n/a	n/a	n/a
3786976	RECOG_CONF	n/a	LTP150	ltpFR	0	3	n/a	PEACH	1031	n/a	3	n/a	n/a	n/a	n/a	n/a	n/a
3788531	RECOG_TARGET	n/a	LTP150	ltpFR	0	3	0	TAG	1429	1	5	0	n/a	n/a	n/a	n/a	n/a
3789556	RECOG_RESP	n/a	LTP150	ltpFR	0	3	0	TAG	1429	1	n/a	0	n/a	n/a	n/a	n/a	n/a
3791506	RECOG_CONF	n/a	LTP150	ltpFR	0	3	0	TAG	1429	n/a	5	0	n/a	n/a	n/a	n/a	n/a
3793321	RECOG_TARGET	n/a	LTP150	ltpFR	0	3	0	SOLDIER	1344	1	5	1	n/a	n/a	n/a	n/a	n/a
3794418	RECOG_RESP	n/a	LTP150	ltpFR	0	3	0	SOLDIER	1344	1	n/a	1	n/a	n/a	n/a	n/a	n/a
3796295	RECOG_CONF	n/a	LTP150	ltpFR	0	3	0	SOLDIER	1344	n/a	5	1	n/a	n/a	n/a	n/a	n/a
3798053	RECOG_LURE	n/a	LTP150	ltpFR	0	3	n/a	ASHTRAY	45	0	5	n/a	n/a	n/a	n/a	n/a	n/a
3798943	RECOG_RESP	n/a	LTP150	ltpFR	0	3	n/a	ASHTRAY	45	0	n/a	n/a	n/a	n/a	n/a	n/a	n/a
3800250	RECOG_CONF	n/a	LTP150	ltpFR	0	3	n/a	ASHTRAY	45	n/a	5	n/a	n/a	n/a	n/a	n/a	n/a
3803193	RECOG_TARGET	n/a	LTP150	ltpFR	0	3	-1	FLASK	576	1	5	-1	n/a	n/a	n/a	n/a	n/a
3805278	RECOG_RESP	n/a	LTP150	ltpFR	0	3	-1	FLASK	576	1	n/a	-1	n/a	n/a	n/a	n/a	n/a
3807260	RECOG_CONF	n/a	LTP150	ltpFR	0	3	-1	FLASK	576	n/a	5	-1	n/a	n/a	n/a	n/a	n/a
3809490	RECOG_TARGET	n/a	LTP150	ltpFR	0	3	0	DRIVEWAY	500	1	5	1	n/a	n/a	n/a	n/a	n/a
3810361	RECOG_RESP	n/a	LTP150	ltpFR	0	3	0	DRIVEWAY	500	1	n/a	1	n/a	n/a	n/a	n/a	n/a
3812347	RECOG_CONF	n/a	LTP150	ltpFR	0	3	0	DRIVEWAY	500	n/a	5	1	n/a	n/a	n/a	n/a	n/a
3814380	RECOG_TARGET	n/a	LTP150	ltpFR	0	3	1	PAINTING	1005	1	5	0	n/a	n/a	n/a	n/a	n/a
3815497	RECOG_RESP	n/a	LTP150	ltpFR	0	3	1	PAINTING	1005	1	n/a	0	n/a	n/a	n/a	n/a	n/a
3817387	RECOG_CONF	n/a	LTP150	ltpFR	0	3	1	PAINTING	1005	n/a	5	0	n/a	n/a	n/a	n/a	n/a
3819204	RECOG_TARGET	n/a	LTP150	ltpFR	0	3	0	PEAR	1033	1	5	0	n/a	n/a	n/a	n/a	n/a
3820029	RECOG_RESP	n/a	LTP150	ltpFR	0	3	0	PEAR	1033	1	n/a	0	n/a	n/a	n/a	n/a	n/a
3821925	RECOG_CONF	n/a	LTP150	ltpFR	0	3	0	PEAR	1033	n/a	5	0	n/a	n/a	n/a	n/a	n/a
3824044	RECOG_TARGET	n/a	LTP150	ltpFR	0	3	-1	BEE	112	1	5	-1	n/a	n/a	n/a	n/a	n/a
3824878	RECOG_RESP	n/a	LTP150	ltpFR	0	3	-1	BEE	112	1	n/a	-1	n/a	n/a	n/a	n/a	n/a
3827269	RECOG_CONF	n/a	LTP150	ltpFR	0	3	-1	BEE	112	n/a	5	-1	n/a	n/a	n/a	n/a	n/a
3829108	RECOG_TARGET	n/a	LTP150	ltpFR	0	3	0	PORPOISE	1109	1	5	1	n/a	n/a	n/a	n/a	n/a
3830089	RECOG_RESP	n/a	LTP150	ltpFR	0	3	0	PORPOISE	1109	1	n/a	1	n/a	n/a	n/a	n/a	n/a
3832245	RECOG_CONF	n/a	LTP150	ltpFR	0	3	0	PORPOISE	1109	n/a	5	1	n/a	n/a	n/a	n/a	n/a
3834548	RECOG_TARGET	n/a	LTP150	ltpFR	0	3	0	SPONGE	1355	1	5	0	n/a	n/a	n/a	n/a	n/a
3835354	RECOG_RESP	n/a	LTP150	ltpFR	0	3	0	SPONGE	1355	1	n/a	0	n/a	n/a	n/a	n/a	n/a
3837453	RECOG_CONF	n/a	LTP150	ltpFR	0	3	0	SPONGE	1355	n/a	5	0	n/a	n/a	n/a	n/a	n/a
3839288	RECOG_LURE	n/a	LTP150	ltpFR	0	3	n/a	EARRING	514	0	4	n/a	n/a	n/a	n/a	n/a	n/a
3840243	RECOG_RESP	n/a	LTP150	ltpFR	0	3	n/a	EARRING	514	0	n/a	n/a	n/a	n/a	n/a	n/a	n/a
3841951	RECOG_CONF	n/a	LTP150	ltpFR	0	3	n/a	EARRING	514	n/a	4	n/a	n/a	n/a	n/a	n/a	n/a
3843812	RECOG_TARGET	n/a	LTP150	ltpFR	0	3	0	BANQUET	86	1	5	1	n/a	n/a	n/a	n/a	n/a
3844779	RECOG_RESP	n/a	LTP150	ltpFR	0	3	0	BANQUET	86	1	n/a	1	n/a	n/a	n/a	n/a	n/a
3846462	RECOG_CONF	n/a	LTP150	ltpFR	0	3	0	BANQUET	86	n/a	5	1	n/a	n/a	n/a	n/a	n/a
3848493	RECOG_LURE	n/a	LTP150	ltpFR	0	3	n/a	TRIBE	1505	0	5	n/a	n/a	n/a	n/a	n/a	n/a
3849595	RECOG_RESP	n/a	LTP150	ltpFR	0	3	n/a	TRIBE	1505	0	n/a	n/a	n/a	n/a	n/a	n/a	n/a
3851592	RECOG_CONF	n/a	LTP150	ltpFR	0	3	n/a	TRIBE	1505	n/a	5	n/a	n/a	n/a	n/a	n/a	n/a
3857302	REC_START	n/a	LTP150	ltpFR	0	4	n/a	n/a	n/a	n/a	n/a	n/a	n/a	n/a	n/a	n/a	n/a
3857332	RECOG_LURE	n/a	LTP150	ltpFR	0	4	n/a	CONE	363	0	4	n/a	n/a	n/a	n/a	n/a	n/a
3858301	RECOG_RESP	n/a	LTP150	ltpFR	0	4	n/a	CONE	363	0	n/a	n/a	n/a	n/a	n/a	n/a	n/a
3860330	RECOG_CONF	n/a	LTP150	ltpFR	0	4	n/a	CONE	363	n/a	4	n/a	n/a	n/a	n/a	n/a	n/a
3861962	RECOG_LURE	n/a	LTP150	ltpFR	0	4	n/a	VIKING	1565	0	3	n/a	n/a	n/a	n/a	n/a	n/a
3862966	RECOG_RESP	n/a	LTP150	ltpFR	0	4	n/a	VIKING	1565	0	n/a	n/a	n/a	n/a	n/a	n/a	n/a
3864946	RECOG_CONF	n/a	LTP150	ltpFR	0	4	n/a	VIKING	1565	n/a	3	n/a	n/a	n/a	n/a	n/a	n/a
3866787	RECOG_LURE	n/a	LTP150	ltpFR	0	4	n/a	PAINTER	1004	1	3	n/a	n/a	n/a	n/a	n/a	n/a
3867649	RECOG_RESP	n/a	LTP150	ltpFR	0	4	n/a	PAINTER	1004	1	n/a	n/a	n/a	n/a	n/a	n/a	n/a
3869766	RECOG_CONF	n/a	LTP150	ltpFR	0	4	n/a	PAINTER	1004	n/a	3	n/a	n/a	n/a	n/a	n/a	n/a
3871310	RECOG_TARGET	n/a	LTP150	ltpFR	0	4	0	TIMBER	1469	1	5	1	n/a	n/a	n/a	n/a	n/a
3872323	RECOG_RESP	n/a	LTP150	ltpFR	0	4	0	TIMBER	1469	1	n/a	1	n/a	n/a	n/a	n/a	n/a
3874444	RECOG_CONF	n/a	LTP150	ltpFR	0	4	0	TIMBER	1469	n/a	5	1	n/a	n/a	n/a	n/a	n/a
3876142	RECOG_TARGET	n/a	LTP150	ltpFR	0	4	-1	PARSLEY	1016	1	5	-1	n/a	n/a	n/a	n/a	n/a
3876968	RECOG_RESP	n/a	LTP150	ltpFR	0	4	-1	PARSLEY	1016	1	n/a	-1	n/a	n/a	n/a	n/a	n/a
3878848	RECOG_CONF	n/a	LTP150	ltpFR	0	4	-1	PARSLEY	1016	n/a	5	-1	n/a	n/a	n/a	n/a	n/a
3880482	RECOG_TARGET	n/a	LTP150	ltpFR	0	4	0	LIEUTENANT	818	1	5	1	n/a	n/a	n/a	n/a	n/a
3881643	RECOG_RESP	n/a	LTP150	ltpFR	0	4	0	LIEUTENANT	818	1	n/a	1	n/a	n/a	n/a	n/a	n/a
3883956	RECOG_CONF	n/a	LTP150	ltpFR	0	4	0	LIEUTENANT	818	n/a	5	1	n/a	n/a	n/a	n/a	n/a
3885747	RECOG_LURE	n/a	LTP150	ltpFR	0	4	n/a	PERSONNEL	1053	0	5	n/a	n/a	n/a	n/a	n/a	n/a
3886648	RECOG_RESP	n/a	LTP150	ltpFR	0	4	n/a	PERSONNEL	1053	0	n/a	n/a	n/a	n/a	n/a	n/a	n/a
3888331	RECOG_CONF	n/a	LTP150	ltpFR	0	4	n/a	PERSONNEL	1053	n/a	5	n/a	n/a	n/a	n/a	n/a	n/a
3890095	RECOG_TARGET	n/a	LTP150	ltpFR	0	4	1	NURSERY	964	1	5	0	n/a	n/a	n/a	n/a	n/a
3891122	RECOG_RESP	n/a	LTP150	ltpFR	0	4	1	NURSERY	964	1	n/a	0	n/a	n/a	n/a	n/a	n/a
3893145	RECOG_CONF	n/a	LTP150	ltpFR	0	4	1	NURSERY	964	n/a	5	0	n/a	n/a	n/a	n/a	n/a
3894942	RECOG_TARGET	n/a	LTP150	ltpFR	0	4	1	SAUSAGE	1238	1	5	0	n/a	n/a	n/a	n/a	n/a
3895778	RECOG_RESP	n/a	LTP150	ltpFR	0	4	1	SAUSAGE	1238	1	n/a	0	n/a	n/a	n/a	n/a	n/a
3897748	RECOG_CONF	n/a	LTP150	ltpFR	0	4	1	SAUSAGE	1238	n/a	5	0	n/a	n/a	n/a	n/a	n/a
3899658	RECOG_TARGET	n/a	LTP150	ltpFR	0	4	1	SCROLL	1257	1	5	0	n/a	n/a	n/a	n/a	n/a
3900453	RECOG_RESP	n/a	LTP150	ltpFR	0	4	1	SCROLL	1257	1	n/a	0	n/a	n/a	n/a	n/a	n/a
3902411	RECOG_CONF	n/a	LTP150	ltpFR	0	4	1	SCROLL	1257	n/a	5	0	n/a	n/a	n/a	n/a	n/a
3904298	RECOG_LURE	n/a	LTP150	ltpFR	0	4	n/a	MUFFIN	929	0	5	n/a	n/a	n/a	n/a	n/a	n/a
3905067	RECOG_RESP	n/a	LTP150	ltpFR	0	4	n/a	MUFFIN	929	0	n/a	n/a	n/a	n/a	n/a	n/a	n/a
3906824	RECOG_CONF	n/a	LTP150	ltpFR	0	4	n/a	MUFFIN	929	n/a	5	n/a	n/a	n/a	n/a	n/a	n/a
3908505	RECOG_LURE	n/a	LTP150	ltpFR	0	4	n/a	VILLAIN	1567	1	4	n/a	n/a	n/a	n/a	n/a	n/a
3909706	RECOG_RESP	n/a	LTP150	ltpFR	0	4	n/a	VILLAIN	1567	1	n/a	n/a	n/a	n/a	n/a	n/a	n/a
3911423	RECOG_CONF	n/a	LTP150	ltpFR	0	4	n/a	VILLAIN	1567	n/a	4	n/a	n/a	n/a	n/a	n/a	n/a
3913329	RECOG_TARGET	n/a	LTP150	ltpFR	0	4	0	FIN	566	1	5	1	n/a	n/a	n/a	n/a	n/a
3914344	RECOG_RESP	n/a	LTP150	ltpFR	0	4	0	FIN	566	1	n/a	1	n/a	n/a	n/a	n/a	n/a
3916552	RECOG_CONF	n/a	LTP150	ltpFR	0	4	0	FIN	566	n/a	5	1	n/a	n/a	n/a	n/a	n/a
3918452	RECOG_TARGET	n/a	LTP150	ltpFR	0	4	1	COLUMN	350	1	5	0	n/a	n/a	n/a	n/a	n/a
3919359	RECOG_RESP	n/a	LTP150	ltpFR	0	4	1	COLUMN	350	1	n/a	0	n/a	n/a	n/a	n/a	n/a
3921331	RECOG_CONF	n/a	LTP150	ltpFR	0	4	1	COLUMN	350	n/a	5	0	n/a	n/a	n/a	n/a	n/a
3923142	RECOG_TARGET	n/a	LTP150	ltpFR	0	4	1	BUTTER	205	1	5	0	n/a	n/a	n/a	n/a	n/a
3924014	RECOG_RESP	n/a	LTP150	ltpFR	0	4	1	BUTTER	205	1	n/a	0	n/a	n/a	n/a	n/a	n/a
3925768	RECOG_CONF	n/a	LTP150	ltpFR	0	4	1	BUTTER	205	n/a	5	0	n/a	n/a	n/a	n/a	n/a
3927382	RECOG_TARGET	n/a	LTP150	ltpFR	0	4	0	MULE	931	0	3	1	n/a	n/a	n/a	n/a	n/a
3928689	RECOG_RESP	n/a	LTP150	ltpFR	0	4	0	MULE	931	0	n/a	1	n/a	n/a	n/a	n/a	n/a
3930291	RECOG_CONF	n/a	LTP150	ltpFR	0	4	0	MULE	931	n/a	3	1	n/a	n/a	n/a	n/a	n/a
3931755	RECOG_LURE	n/a	LTP150	ltpFR	0	4	n/a	SKATE	1313	0	4	n/a	n/a	n/a	n/a	n/a	n/a
3933122	RECOG_RESP	n/a	LTP150	ltpFR	0	4	n/a	SKATE	1313	0	n/a	n/a	n/a	n/a	n/a	n/a	n/a
3935190	RECOG_CONF	n/a	LTP150	ltpFR	0	4	n/a	SKATE	1313	n/a	4	n/a	n/a	n/a	n/a	n/a	n/a
3936620	RECOG_TARGET	n/a	LTP150	ltpFR	0	4	1	DESK	452	1	5	0	n/a	n/a	n/a	n/a	n/a
3937559	RECOG_RESP	n/a	LTP150	ltpFR	0	4	1	DESK	452	1	n/a	0	n/a	n/a	n/a	n/a	n/a
3939359	RECOG_CONF	n/a	LTP150	ltpFR	0	4	1	DESK	452	n/a	5	0	n/a	n/a	n/a	n/a	n/a
3941002	RECOG_TARGET	n/a	LTP150	ltpFR	0	4	-1	SPINACH	1352	0	3	-1	n/a	n/a	n/a	n/a	n/a
3942006	RECOG_RESP	n/a	LTP150	ltpFR	0	4	-1	SPINACH	1352	0	n/a	-1	n/a	n/a	n/a	n/a	n/a
3943930	RECOG_CONF	n/a	LTP150	ltpFR	0	4	-1	SPINACH	1352	n/a	3	-1	n/a	n/a	n/a	n/a	n/a
3945467	RECOG_TARGET	n/a	LTP150	ltpFR	0	4	0	CONVICT	371	0	2	1	n/a	n/a	n/a	n/a	n/a
3947958	RECOG_RESP	n/a	LTP150	ltpFR	0	4	0	CONVICT	371	0	n/a	1	n/a	n/a	n/a	n/a	n/a
3949570	RECOG_CONF	n/a	LTP150	ltpFR	0	4	0	CONVICT	371	n/a	2	1	n/a	n/a	n/a	n/a	n/a
3980679	REC_START	n/a	LTP150	ltpFR	0	5	n/a	n/a	n/a	n/a	n/a	n/a	n/a	n/a	n/a	n/a	n/a
3980713	RECOG_TARGET	n/a	LTP150	ltpFR	0	5	0	CITIZEN	312	1	5	1	n/a	n/a	n/a	n/a	n/a
3981841	RECOG_RESP	n/a	LTP150	ltpFR	0	5	0	CITIZEN	312	1	n/a	1	n/a	n/a	n/a	n/a	n/a
3983358	RECOG_CONF	n/a	LTP150	ltpFR	0	5	0	CITIZEN	312	n/a	5	1	n/a	n/a	n/a	n/a	n/a
3986802	RECOG_TARGET	n/a	LTP150	ltpFR	0	5	0	APPLE	33	0	3	0	n/a	n/a	n/a	n/a	n/a
3987804	RECOG_RESP	n/a	LTP150	ltpFR	0	5	0	APPLE	33	0	n/a	0	n/a	n/a	n/a	n/a	n/a
3989747	RECOG_CONF	n/a	LTP150	ltpFR	0	5	0	APPLE	33	n/a	3	0	n/a	n/a	n/a	n/a	n/a
3991234	RECOG_LURE	n/a	LTP150	ltpFR	0	5	n/a	WIDOW	1608	0	5	n/a	n/a	n/a	n/a	n/a	n/a
3992215	RECOG_RESP	n/a	LTP150	ltpFR	0	5	n/a	WIDOW	1608	0	n/a	n/a	n/a	n/a	n/a	n/a	n/a
3993910	RECOG_CONF	n/a	LTP150	ltpFR	0	5	n/a	WIDOW	1608	n/a	5	n/a	n/a	n/a	n/a	n/a	n/a
3995649	RECOG_LURE	n/a	LTP150	ltpFR	0	5	n/a	TELEPHONE	1445	0	3	n/a	n/a	n/a	n/a	n/a	n/a
3996629	RECOG_RESP	n/a	LTP150	ltpFR	0	5	n/a	TELEPHONE	1445	0	n/a	n/a	n/a	n/a	n/a	n/a	n/a
3998473	RECOG_CONF	n/a	LTP150	ltpFR	0	5	n/a	TELEPHONE	1445	n/a	3	n/a	n/a	n/a	n/a	n/a	n/a
3999981	RECOG_LURE	n/a	LTP150	ltpFR	0	5	n/a	PRUNE	1134	0	4	n/a	n/a	n/a	n/a	n/a	n/a
4000926	RECOG_RESP	n/a	LTP150	ltpFR	0	5	n/a	PRUNE	1134	0	n/a	n/a	n/a	n/a	n/a	n/a	n/a
4002790	RECOG_CONF	n/a	LTP150	ltpFR	0	5	n/a	PRUNE	1134	n/a	4	n/a	n/a	n/a	n/a	n/a	n/a
4004496	RECOG_TARGET	n/a	LTP150	ltpFR	0	5	-1	DINER	467	1	5	-1	n/a	n/a	n/a	n/a	n/a
4005526	RECOG_RESP	n/a	LTP150	ltpFR	0	5	-1	DINER	467	1	n/a	-1	n/a	n/a	n/a	n/a	n/a
4007608	RECOG_CONF	n/a	LTP150	ltpFR	0	5	-1	DINER	467	n/a	5	-1	n/a	n/a	n/a	n/a	n/a
4009253	RECOG_LURE	n/a	LTP150	ltpFR	0	5	n/a	RAIL	1161	0	2	n/a	n/a	n/a	n/a	n/a	n/a
4010347	RECOG_RESP	n/a	LTP150	ltpFR	0	5	n/a	RAIL	1161	0	n/a	n/a	n/a	n/a	n/a	n/a	n/a
4012707	RECOG_CONF	n/a	LTP150	ltpFR	0	5	n/a	RAIL	1161	n/a	2	n/a	n/a	n/a	n/a	n/a	n/a
4014401	RECOG_TARGET	n/a	LTP150	ltpFR	0	5	1	PARTY	1018	1	5	0	n/a	n/a	n/a	n/a	n/a
4015519	RECOG_RESP	n/a	LTP150	ltpFR	0	5	1	PARTY	1018	1	n/a	0	n/a	n/a	n/a	n/a	n/a
4017236	RECOG_CONF	n/a	LTP150	ltpFR	0	5	1	PARTY	1018	n/a	5	0	n/a	n/a	n/a	n/a	n/a
4019183	RECOG_TARGET	n/a	LTP150	ltpFR	0	5	1	TUNNEL	1519	1	5	0	n/a	n/a	n/a	n/a	n/a
4020147	RECOG_RESP	n/a	LTP150	ltpFR	0	5	1	TUNNEL	1519	1	n/a	0	n/a	n/a	n/a	n/a	n/a
4022417	RECOG_CONF	n/a	LTP150	ltpFR	0	5	1	TUNNEL	1519	n/a	5	0	n/a	n/a	n/a	n/a	n/a
4024056	RECOG_TARGET	n/a	LTP150	ltpFR	0	5	0	RADISH	1158	0	3	0	n/a	n/a	n/a	n/a	n/a
4025618	RECOG_RESP	n/a	LTP150	ltpFR	0	5	0	RADISH	1158	0	n/a	0	n/a	n/a	n/a	n/a	n/a
4027294	RECOG_CONF	n/a	LTP150	ltpFR	0	5	0	RADISH	1158	n/a	3	0	n/a	n/a	n/a	n/a	n/a
4028878	RECOG_LURE	n/a	LTP150	ltpFR	0	5	n/a	STEM	1376	0	4	n/a	n/a	n/a	n/a	n/a	n/a
4029982	RECOG_RESP	n/a	LTP150	ltpFR	0	5	n/a	STEM	1376	0	n/a	n/a	n/a	n/a	n/a	n/a	n/a
4031674	RECOG_CONF	n/a	LTP150	ltpFR	0	5	n/a	STEM	1376	n/a	4	n/a	n/a	n/a	n/a	n/a	n/a
4033377	RECOG_LURE	n/a	LTP150	ltpFR	0	5	n/a	PIPE	1073	0	4	n/a	n/a	n/a	n/a	n/a	n/a
4034431	RECOG_RESP	n/a	LTP150	ltpFR	0	5	n/a	PIPE	1073	0	n/a	n/a	n/a	n/a	n/a	n/a	n/a
4036327	RECOG_CONF	n/a	LTP150	ltpFR	0	5	n/a	PIPE	1073	n/a	4	n/a	n/a	n/a	n/a	n/a	n/a
4038034	RECOG_LURE	n/a	LTP150	ltpFR	0	5	n/a	MATTRESS	879	0	5	n/a	n/a	n/a	n/a	n/a	n/a
4038956	RECOG_RESP	n/a	LTP150	ltpFR	0	5	n/a	MATTRESS	879	0	n/a	n/a	n/a	n/a	n/a	n/a	n/a
4040724	RECOG_CONF	n/a	LTP150	ltpFR	0	5	n/a	MATTRESS	879	n/a	5	n/a	n/a	n/a	n/a	n/a	n/a
4042516	RECOG_TARGET	n/a	LTP150	ltpFR	0	5	0	CYCLONE	431	1	4	1	n/a	n/a	n/a	n/a	n/a
4043477	RECOG_RESP	n/a	LTP150	ltpFR	0	5	0	CYCLONE	431	1	n/a	1	n/a	n/a	n/a	n/a	n/a
4045237	RECOG_CONF	n/a	LTP150	ltpFR	0	5	0	CYCLONE	431	n/a	4	1	n/a	n/a	n/a	n/a	n/a
4046856	RECOG_TARGET	n/a	LTP150	ltpFR	0	5	1	JUG	762	1	5	0	n/a	n/a	n/a	n/a	n/a
4047774	RECOG_RESP	n/a	LTP150	ltpFR	0	5	1	JUG	762	1	n/a	0	n/a	n/a	n/a	n/a	n/a
4050066	RECOG_CONF	n/a	LTP150	ltpFR	0	5	1	JUG	762	n/a	5	0	n/a	n/a	n/a	n/a	n/a
4051928	RECOG_LURE	n/a	LTP150	ltpFR	0	5	n/a	CARD	243	0	4	n/a	n/a	n/a	n/a	n/a	n/a
4052792	RECOG_RESP	n/a	LTP150	ltpFR	0	5	n/a	CARD	243	0	n/a	n/a	n/a	n/a	n/a	n/a	n/a
4055773	RECOG_CONF	n/a	LTP150	ltpFR	0	5	n/a	CARD	243	n/a	4	n/a	n/a	n/a	n/a	n/a	n/a
4057227	RECOG_TARGET	n/a	LTP150	ltpFR	0	5	1	GROCERY	664	1	5	0	n/a	n/a	n/a	n/a	n/a
4058176	RECOG_RESP	n/a	LTP150	ltpFR	0	5	1	GROCERY	664	1	n/a	0	n/a	n/a	n/a	n/a	n/a
4060241	RECOG_CONF	n/a	LTP150	ltpFR	0	5	1	GROCERY	664	n/a	5	0	n/a	n/a	n/a	n/a	n/a
4062067	RECOG_TARGET	n/a	LTP150	ltpFR	0	5	-1	TURKEY	1520	0	2	-1	n/a	n/a	n/a	n/a	n/a
4063227	RECOG_RESP	n/a	LTP150	ltpFR	0	5	-1	TURKEY	1520	0	n/a	-1	n/a	n/a	n/a	n/a	n/a
4065592	RECOG_CONF	n/a	LTP150	ltpFR	0	5	-1	TURKEY	1520	n/a	2	-1	n/a	n/a	n/a	n/a	n/a
4067149	RECOG_LURE	n/a	LTP150	ltpFR	0	5	n/a	HUT	729	0	5	n/a	n/a	n/a	n/a	n/a	n/a
4068582	RECOG_RESP	n/a	LTP150	ltpFR	0	5	n/a	HUT	729	0	n/a	n/a	n/a	n/a	n/a	n/a	n/a
4070277	RECOG_CONF	n/a	LTP150	ltpFR	0	5	n/a	HUT	729	n/a	5	n/a	n/a	n/a	n/a	n/a	n/a
4072064	RECOG_TARGET	n/a	LTP150	ltpFR	0	5	-1	CHEMICAL	291	1	5	-1	n/a	n/a	n/a	n/a	n/a
4073153	RECOG_RESP	n/a	LTP150	ltpFR	0	5	-1	CHEMICAL	291	1	n/a	-1	n/a	n/a	n/a	n/a	n/a
4075076	RECOG_CONF	n/a	LTP150	ltpFR	0	5	-1	CHEMICAL	291	n/a	5	-1	n/a	n/a	n/a	n/a	n/a
4083385	REC_START	n/a	LTP150	ltpFR	0	6	n/a	n/a	n/a	n/a	n/a	n/a	n/a	n/a	n/a	n/a	n/a
4083418	RECOG_TARGET	n/a	LTP150	ltpFR	0	6	-1	FREEZER	604	0	4	-1	n/a	n/a	n/a	n/a	n/a
4084336	RECOG_RESP	n/a	LTP150	ltpFR	0	6	-1	FREEZER	604	0	n/a	-1	n/a	n/a	n/a	n/a	n/a
4085908	RECOG_CONF	n/a	LTP150	ltpFR	0	6	-1	FREEZER	604	n/a	4	-1	n/a	n/a	n/a	n/a	n/a
4087550	RECOG_LURE	n/a	LTP150	ltpFR	0	6	n/a	SIREN	1310	0	4	n/a	n/a	n/a	n/a	n/a	n/a
4088473	RECOG_RESP	n/a	LTP150	ltpFR	0	6	n/a	SIREN	1310	0	n/a	n/a	n/a	n/a	n/a	n/a	n/a
4089995	RECOG_CONF	n/a	LTP150	ltpFR	0	6	n/a	SIREN	1310	n/a	4	n/a	n/a	n/a	n/a	n/a	n/a
4091640	RECOG_TARGET	n/a	LTP150	ltpFR	0	6	1	FIST	572	1	5	0	n/a	n/a	n/a	n/a	n/a
4092550	RECOG_RESP	n/a	LTP150	ltpFR	0	6	1	FIST	572	1	n/a	0	n/a	n/a	n/a	n/a	n/a
4094367	RECOG_CONF	n/a	LTP150	ltpFR	0	6	1	FIST	572	n/a	5	0	n/a	n/a	n/a	n/a	n/a
4096188	RECOG_LURE	n/a	LTP150	ltpFR	0	6	n/a	TRAITOR	1495	0	2	n/a	n/a	n/a	n/a	n/a	n/a
4097143	RECOG_RESP	n/a	LTP150	ltpFR	0	6	n/a	TRAITOR	1495	0	n/a	n/a	n/a	n/a	n/a	n/a	n/a
4099200	RECOG_CONF	n/a	LTP150	ltpFR	0	6	n/a	TRAITOR	1495	n/a	2	n/a	n/a	n/a	n/a	n/a	n/a
4100845	RECOG_LURE	n/a	LTP150	ltpFR	0	6	n/a	ATTORNEY	58	0	5	n/a	n/a	n/a	n/a	n/a	n/a
4101788	RECOG_RESP	n/a	LTP150	ltpFR	0	6	n/a	ATTORNEY	58	0	n/a	n/a	n/a	n/a	n/a	n/a	n/a
4103439	RECOG_CONF	n/a	LTP150	ltpFR	0	6	n/a	ATTORNEY	58	n/a	5	n/a	n/a	n/a	n/a	n/a	n/a
4105185	RECOG_TARGET	n/a	LTP150	ltpFR	0	6	-1	POOL	1103	1	5	-1	n/a	n/a	n/a	n/a	n/a
4106018	RECOG_RESP	n/a	LTP150	ltpFR	0	6	-1	POOL	1103	1	n/a	-1	n/a	n/a	n/a	n/a	n/a
4107780	RECOG_CONF	n/a	LTP150	ltpFR	0	6	-1	POOL	1103	n/a	5	-1	n/a	n/a	n/a	n/a	n/a
4109409	RECOG_LURE	n/a	LTP150	ltpFR	0	6	n/a	RAT	1169	0	5	n/a	n/a	n/a	n/a	n/a	n/a
4110309	RECOG_RESP	n/a	LTP150	ltpFR	0	6	n/a	RAT	1169	0	n/a	n/a	n/a	n/a	n/a	n/a	n/a
4112268	RECOG_CONF	n/a	LTP150	ltpFR	0	6	n/a	RAT	1169	n/a	5	n/a	n/a	n/a	n/a	n/a	n/a
4113841	RECOG_TARGET	n/a	LTP150	ltpFR	0	6	1	NOMAD	955	1	5	1	n/a	n/a	n/a	n/a	n/a
4114790	RECOG_RESP	n/a	LTP150	ltpFR	0	6	1	NOMAD	955	1	n/a	1	n/a	n/a	n/a	n/a	n/a
4116949	RECOG_CONF	n/a	LTP150	ltpFR	0	6	1	NOMAD	955	n/a	5	1	n/a	n/a	n/a	n/a	n/a
4118697	RECOG_TARGET	n/a	LTP150	ltpFR	0	6	-1	SALT	1229	1	5	-1	n/a	n/a	n/a	n/a	n/a
4119403	RECOG_RESP	n/a	LTP150	ltpFR	0	6	-1	SALT	1229	1	n/a	-1	n/a	n/a	n/a	n/a	n/a
4121217	RECOG_CONF	n/a	LTP150	ltpFR	0	6	-1	SALT	1229	n/a	5	-1	n/a	n/a	n/a	n/a	n/a
4122970	RECOG_LURE	n/a	LTP150	ltpFR	0	6	n/a	ENGINEER	536	0	5	n/a	n/a	n/a	n/a	n/a	n/a
4123749	RECOG_RESP	n/a	LTP150	ltpFR	0	6	n/a	ENGINEER	536	0	n/a	n/a	n/a	n/a	n/a	n/a	n/a
4126125	RECOG_CONF	n/a	LTP150	ltpFR	0	6	n/a	ENGINEER	536	n/a	5	n/a	n/a	n/a	n/a	n/a	n/a
4127602	RECOG_TARGET	n/a	LTP150	ltpFR	0	6	0	WITNESS	1618	1	5	1	n/a	n/a	n/a	n/a	n/a
4128514	RECOG_RESP	n/a	LTP150	ltpFR	0	6	0	WITNESS	1618	1	n/a	1	n/a	n/a	n/a	n/a	n/a
4130313	RECOG_CONF	n/a	LTP150	ltpFR	0	6	0	WITNESS	1618	n/a	5	1	n/a	n/a	n/a	n/a	n/a
4131883	RECOG_TARGET	n/a	LTP150	ltpFR	0	6	-1	SAILOR	1223	1	5	-1	n/a	n/a	n/a	n/a	n/a
4132644	RECOG_RESP	n/a	LTP150	ltpFR	0	6	-1	SAILOR	1223	1	n/a	-1	n/a	n/a	n/a	n/a	n/a
4134240	RECOG_CONF	n/a	LTP150	ltpFR	0	6	-1	SAILOR	1223	n/a	5	-1	n/a	n/a	n/a	n/a	n/a
4135915	RECOG_TARGET	n/a	LTP150	ltpFR	0	6	0	CONCRETE	361	1	5	1	n/a	n/a	n/a	n/a	n/a
4138561	RECOG_RESP	n/a	LTP150	ltpFR	0	6	0	CONCRETE	361	1	n/a	1	n/a	n/a	n/a	n/a	n/a
4140044	RECOG_CONF	n/a	LTP150	ltpFR	0	6	0	CONCRETE	361	n/a	5	1	n/a	n/a	n/a	n/a	n/a
4141904	RECOG_TARGET	n/a	LTP150	ltpFR	0	6	1	GENERAL	630	1	5	1	n/a	n/a	n/a	n/a	n/a
4142809	RECOG_RESP	n/a	LTP150	ltpFR	0	6	1	GENERAL	630	1	n/a	1	n/a	n/a	n/a	n/a	n/a
4144242	RECOG_CONF	n/a	LTP150	ltpFR	0	6	1	GENERAL	630	n/a	5	1	n/a	n/a	n/a	n/a	n/a
4145862	RECOG_LURE	n/a	LTP150	ltpFR	0	6	n/a	ATMOSPHERE	54	0	4	n/a	n/a	n/a	n/a	n/a	n/a
4147352	RECOG_RESP	n/a	LTP150	ltpFR	0	6	n/a	ATMOSPHERE	54	0	n/a	n/a	n/a	n/a	n/a	n/a	n/a
4148863	RECOG_CONF	n/a	LTP150	ltpFR	0	6	n/a	ATMOSPHERE	54	n/a	4	n/a	n/a	n/a	n/a	n/a	n/a
4150502	RECOG_TARGET	n/a	LTP150	ltpFR	0	6	1	TYPEWRITER	1531	1	5	0	n/a	n/a	n/a	n/a	n/a
4151429	RECOG_RESP	n/a	LTP150	ltpFR	0	6	1	TYPEWRITER	1531	1	n/a	0	n/a	n/a	n/a	n/a	n/a
4153431	RECOG_CONF	n/a	LTP150	ltpFR	0	6	1	TYPEWRITER	1531	n/a	5	0	n/a	n/a	n/a	n/a	n/a
4154975	RECOG_TARGET	n/a	LTP150	ltpFR	0	6	-1	WRIST	1626	1	4	-1	n/a	n/a	n/a	n/a	n/a
4157740	RECOG_RESP	n/a	LTP150	ltpFR	0	6	-1	WRIST	1626	1	n/a	-1	n/a	n/a	n/a	n/a	n/a
4159467	RECOG_CONF	n/a	LTP150	ltpFR	0	6	-1	WRIST	1626	n/a	4	-1	n/a	n/a	n/a	n/a	n/a
4162015	RECOG_TARGET	n/a	LTP150	ltpFR	0	6	0	HATCHET	691	1	5	0	n/a	n/a	n/a	n/a	n/a
4162819	RECOG_RESP	n/a	LTP150	ltpFR	0	6	0	HATCHET	691	1	n/a	0	n/a	n/a	n/a	n/a	n/a
4165693	RECOG_CONF	n/a	LTP150	ltpFR	0	6	0	HATCHET	691	n/a	5	0	n/a	n/a	n/a	n/a	n/a
4167446	RECOG_TARGET	n/a	LTP150	ltpFR	0	6	0	RESORT	1186	0	4	1	n/a	n/a	n/a	n/a	n/a
4168413	RECOG_RESP	n/a	LTP150	ltpFR	0	6	0	RESORT	1186	0	n/a	1	n/a	n/a	n/a	n/a	n/a
4170359	RECOG_CONF	n/a	LTP150	ltpFR	0	6	0	RESORT	1186	n/a	4	1	n/a	n/a	n/a	n/a	n/a
4172095	RECOG_LURE	n/a	LTP150	ltpFR	0	6	n/a	SCALE	1241	0	3	n/a	n/a	n/a	n/a	n/a	n/a
4173730	RECOG_RESP	n/a	LTP150	ltpFR	0	6	n/a	SCALE	1241	0	n/a	n/a	n/a	n/a	n/a	n/a	n/a
4175594	RECOG_CONF	n/a	LTP150	ltpFR	0	6	n/a	SCALE	1241	n/a	3	n/a	n/a	n/a	n/a	n/a	n/a
4187436	REC_START	n/a	LTP150	ltpFR	0	7	n/a	n/a	n/a	n/a	n/a	n/a	n/a	n/a	n/a	n/a	n/a
4187473	RECOG_LURE	n/a	LTP150	ltpFR	0	7	n/a	HANDCUFFS	685	0	5	n/a	n/a	n/a	n/a	n/a	n/a
4188336	RECOG_RESP	n/a	LTP150	ltpFR	0	7	n/a	HANDCUFFS	685	0	n/a	n/a	n/a	n/a	n/a	n/a	n/a
4189836	RECOG_CONF	n/a	LTP150	ltpFR	0	7	n/a	HANDCUFFS	685	n/a	5	n/a	n/a	n/a	n/a	n/a	n/a
4191763	RECOG_TARGET	n/a	LTP150	ltpFR	0	7	-1	MECHANIC	884	1	5	-1	n/a	n/a	n/a	n/a	n/a
4192801	RECOG_RESP	n/a	LTP150	ltpFR	0	7	-1	MECHANIC	884	1	n/a	-1	n/a	n/a	n/a	n/a	n/a
4194505	RECOG_CONF	n/a	LTP150	ltpFR	0	7	-1	MECHANIC	884	n/a	5	-1	n/a	n/a	n/a	n/a	n/a
4196369	RECOG_LURE	n/a	LTP150	ltpFR	0	7	n/a	LABEL	790	0	4	n/a	n/a	n/a	n/a	n/a	n/a
4197268	RECOG_RESP	n/a	LTP150	ltpFR	0	7	n/a	LABEL	790	0	n/a	n/a	n/a	n/a	n/a	n/a	n/a
4199311	RECOG_CONF	n/a	LTP150	ltpFR	0	7	n/a	LABEL	790	n/a	4	n/a	n/a	n/a	n/a	n/a	n/a
4200884	RECOG_TARGET	n/a	LTP150	ltpFR	0	7	1	OPERA	978	1	3	0	n/a	n/a	n/a	n/a	n/a
4201864	RECOG_RESP	n/a	LTP150	ltpFR	0	7	1	OPERA	978	1	n/a	0	n/a	n/a	n/a	n/a	n/a
4203562	RECOG_CONF	n/a	LTP150	ltpFR	0	7	1	OPERA	978	n/a	3	0	n/a	n/a	n/a	n/a	n/a
4205133	RECOG_LURE	n/a	LTP150	ltpFR	0	7	n/a	FOOTBALL	591	0	5	n/a	n/a	n/a	n/a	n/a	n/a
4206304	RECOG_RESP	n/a	LTP150	ltpFR	0	7	n/a	FOOTBALL	591	0	n/a	n/a	n/a	n/a	n/a	n/a	n/a
4208534	RECOG_CONF	n/a	LTP150	ltpFR	0	7	n/a	FOOTBALL	591	n/a	5	n/a	n/a	n/a	n/a	n/a	n/a
4210231	RECOG_TARGET	n/a	LTP150	ltpFR	0	7	-1	PAPER	1011	1	5	-1	n/a	n/a	n/a	n/a	n/a
4211095	RECOG_RESP	n/a	LTP150	ltpFR	0	7	-1	PAPER	1011	1	n/a	-1	n/a	n/a	n/a	n/a	n/a
4213057	RECOG_CONF	n/a	LTP150	ltpFR	0	7	-1	PAPER	1011	n/a	5	-1	n/a	n/a	n/a	n/a	n/a
4214887	RECOG_TARGET	n/a	LTP150	ltpFR	0	7	0	DORM	488	1	5	1	n/a	n/a	n/a	n/a	n/a
4215706	RECOG_RESP	n/a	LTP150	ltpFR	0	7	0	DORM	488	1	n/a	1	n/a	n/a	n/a	n/a	n/a
4217520	RECOG_CONF	n/a	LTP150	ltpFR	0	7	0	DORM	488	n/a	5	1	n/a	n/a	n/a	n/a	n/a
4219445	RECOG_TARGET	n/a	LTP150	ltpFR	0	7	0	NET	946	1	5	1	n/a	n/a	n/a	n/a	n/a
4220410	RECOG_RESP	n/a	LTP150	ltpFR	0	7	0	NET	946	1	n/a	1	n/a	n/a	n/a	n/a	n/a
4222298	RECOG_CONF	n/a	LTP150	ltpFR	0	7	0	NET	946	n/a	5	1	n/a	n/a	n/a	n/a	n/a
4223942	RECOG_LURE	n/a	LTP150	ltpFR	0	7	n/a	GATE	625	0	3	n/a	n/a	n/a	n/a	n/a	n/a
4225085	RECOG_RESP	n/a	LTP150	ltpFR	0	7	n/a	GATE	625	0	n/a	n/a	n/a	n/a	n/a	n/a	n/a
4226881	RECOG_CONF	n/a	LTP150	ltpFR	0	7	n/a	GATE	625	n/a	3	n/a	n/a	n/a	n/a	n/a	n/a
4228333	RECOG_TARGET	n/a	LTP150	ltpFR	0	7	0	EMERALD	528	1	5	0	n/a	n/a	n/a	n/a	n/a
4229320	RECOG_RESP	n/a	LTP150	ltpFR	0	7	0	EMERALD	528	1	n/a	0	n/a	n/a	n/a	n/a	n/a
4231559	RECOG_CONF	n/a	LTP150	ltpFR	0	7	0	EMERALD	528	n/a	5	0	n/a	n/a	n/a	n/a	n/a
4233365	RECOG_LURE	n/a	LTP150	ltpFR	0	7	n/a	INFANT	737	0	3	n/a	n/a	n/a	n/a	n/a	n/a
4234352	RECOG_RESP	n/a	LTP150	ltpFR	0	7	n/a	INFANT	737	0	n/a	n/a	n/a	n/a	n/a	n/a	n/a
4237427	RECOG_CONF	n/a	LTP150	ltpFR	0	7	n/a	INFANT	737	n/a	3	n/a	n/a	n/a	n/a	n/a	n/a
4238887	RECOG_TARGET	n/a	LTP150	ltpFR	0	7	0	SILK	1307	1	5	0	n/a	n/a	n/a	n/a	n/a
4239715	RECOG_RESP	n/a	LTP150	ltpFR	0	7	0	SILK	1307	1	n/a	0	n/a	n/a	n/a	n/a	n/a
4241907	RECOG_CONF	n/a	LTP150	ltpFR	0	7	0	SILK	1307	n/a	5	0	n/a	n/a	n/a	n/a	n/a
4243678	RECOG_LURE	n/a	LTP150	ltpFR	0	7	n/a	MOAT	903	0	5	n/a	n/a	n/a	n/a	n/a	n/a
4244928	RECOG_RESP	n/a	LTP150	ltpFR	0	7	n/a	MOAT	903	0	n/a	n/a	n/a	n/a	n/a	n/a	n/a
4248103	RECOG_CONF	n/a	LTP150	ltpFR	0	7	n/a	MOAT	903	n/a	5	n/a	n/a	n/a	n/a	n/a	n/a
4249883	RECOG_TARGET	n/a	LTP150	ltpFR	0	7	0	POTATO	1115	1	4	0	n/a	n/a	n/a	n/a	n/a
4251070	RECOG_RESP	n/a	LTP150	ltpFR	0	7	0	POTATO	1115	1	n/a	0	n/a	n/a	n/a	n/a	n/a
4253496	RECOG_CONF	n/a	LTP150	ltpFR	0	7	0	POTATO	1115	n/a	4	0	n/a	n/a	n/a	n/a	n/a
4255132	RECOG_LURE	n/a	LTP150	ltpFR	0	7	n/a	GROCERIES	663	0	5	n/a	n/a	n/a	n/a	n/a	n/a
4256438	RECOG_RESP	n/a	LTP150	ltpFR	0	7	n/a	GROCERIES	663	0	n/a	n/a	n/a	n/a	n/a	n/a	n/a
4258459	RECOG_CONF	n/a	LTP150	ltpFR	0	7	n/a	GROCERIES	663	n/a	5	n/a	n/a	n/a	n/a	n/a	n/a
4260180	RECOG_TARGET	n/a	LTP150	ltpFR	0	7	0	LUGGAGE	847	1	5	1	n/a	n/a	n/a	n/a	n/a
4261093	RECOG_RESP	n/a	LTP150	ltpFR	0	7	0	LUGGAGE	847	1	n/a	1	n/a	n/a	n/a	n/a	n/a
4263324	RECOG_CONF	n/a	LTP150	ltpFR	0	7	0	LUGGAGE	847	n/a	5	1	n/a	n/a	n/a	n/a	n/a
4265178	RECOG_TARGET	n/a	LTP150	ltpFR	0	7	0	CART	250	0	2	1	n/a	n/a	n/a	n/a	n/a
4266700	RECOG_RESP	n/a	LTP150	ltpFR	0	7	0	CART	250	0	n/a	1	n/a	n/a	n/a	n/a	n/a
4268852	RECOG_CONF	n/a	LTP150	ltpFR	0	7	0	CART	250	n/a	2	1	n/a	n/a	n/a	n/a	n/a
4270760	RECOG_LURE	n/a	LTP150	ltpFR	0	7	n/a	FURNITURE	616	1	3	n/a	n/a	n/a	n/a	n/a	n/a
4272268	RECOG_RESP	n/a	LTP150	ltpFR	0	7	n/a	FURNITURE	616	1	n/a	n/a	n/a	n/a	n/a	n/a	n/a
4275001	RECOG_CONF	n/a	LTP150	ltpFR	0	7	n/a	FURNITURE	616	n/a	3	n/a	n/a	n/a	n/a	n/a	n/a
4276999	RECOG_TARGET	n/a	LTP150	ltpFR	0	7	-1	SPOOL	1356	1	4	-1	n/a	n/a	n/a	n/a	n/a
4279030	RECOG_RESP	n/a	LTP150	ltpFR	0	7	-1	SPOOL	1356	1	n/a	-1	n/a	n/a	n/a	n/a	n/a
4281717	RECOG_CONF	n/a	LTP150	ltpFR	0	7	-1	SPOOL	1356	n/a	4	-1	n/a	n/a	n/a	n/a	n/a
4283547	RECOG_TARGET	n/a	LTP150	ltpFR	0	7	0	REPORT	1184	1	5	0	n/a	n/a	n/a	n/a	n/a
4284593	RECOG_RESP	n/a	LTP150	ltpFR	0	7	0	REPORT	1184	1	n/a	0	n/a	n/a	n/a	n/a	n/a
4287019	RECOG_CONF	n/a	LTP150	ltpFR	0	7	0	REPORT	1184	n/a	5	0	n/a	n/a	n/a	n/a	n/a
4296705	REC_START	n/a	LTP150	ltpFR	0	8	n/a	n/a	n/a	n/a	n/a	n/a	n/a	n/a	n/a	n/a	n/a
4296734	RECOG_LURE	n/a	LTP150	ltpFR	0	8	n/a	HERD	705	0	4	n/a	n/a	n/a	n/a	n/a	n/a
4297812	RECOG_RESP	n/a	LTP150	ltpFR	0	8	n/a	HERD	705	0	n/a	n/a	n/a	n/a	n/a	n/a	n/a
4299777	RECOG_CONF	n/a	LTP150	ltpFR	0	8	n/a	HERD	705	n/a	4	n/a	n/a	n/a	n/a	n/a	n/a
4301274	RECOG_TARGET	n/a	LTP150	ltpFR	0	8	-1	BREAST	171	1	5	-1	n/a	n/a	n/a	n/a	n/a
4302132	RECOG_RESP	n/a	LTP150	ltpFR	0	8	-1	BREAST	171	1	n/a	-1	n/a	n/a	n/a	n/a	n/a
4303983	RECOG_CONF	n/a	LTP150	ltpFR	0	8	-1	BREAST	171	n/a	5	-1	n/a	n/a	n/a	n/a	n/a
4305739	RECOG_TARGET	n/a	LTP150	ltpFR	0	8	0	TANGERINE	1431	1	5	0	n/a	n/a	n/a	n/a	n/a
4306455	RECOG_RESP	n/a	LTP150	ltpFR	0	8	0	TANGERINE	1431	1	n/a	0	n/a	n/a	n/a	n/a	n/a
4308477	RECOG_CONF	n/a	LTP150	ltpFR	0	8	0	TANGERINE	1431	n/a	5	0	n/a	n/a	n/a	n/a	n/a
4310371	RECOG_TARGET	n/a	LTP150	ltpFR	0	8	-1	SEA	1259	1	3	-1	n/a	n/a	n/a	n/a	n/a
4311611	RECOG_RESP	n/a	LTP150	ltpFR	0	8	-1	SEA	1259	1	n/a	-1	n/a	n/a	n/a	n/a	n/a
4313724	RECOG_CONF	n/a	LTP150	ltpFR	0	8	-1	SEA	1259	n/a	3	-1	n/a	n/a	n/a	n/a	n/a
4315469	RECOG_LURE	n/a	LTP150	ltpFR	0	8	n/a	CLOWN	330	0	5	n/a	n/a	n/a	n/a	n/a	n/a
4316535	RECOG_RESP	n/a	LTP150	ltpFR	0	8	n/a	CLOWN	330	0	n/a	n/a	n/a	n/a	n/a	n/a	n/a
4318780	RECOG_CONF	n/a	LTP150	ltpFR	0	8	n/a	CLOWN	330	n/a	5	n/a	n/a	n/a	n/a	n/a	n/a
4320484	RECOG_TARGET	n/a	LTP150	ltpFR	0	8	0	OVEN	991	1	5	1	n/a	n/a	n/a	n/a	n/a
4321378	RECOG_RESP	n/a	LTP150	ltpFR	0	8	0	OVEN	991	1	n/a	1	n/a	n/a	n/a	n/a	n/a
4323451	RECOG_CONF	n/a	LTP150	ltpFR	0	8	0	OVEN	991	n/a	5	1	n/a	n/a	n/a	n/a	n/a
4325465	RECOG_LURE	n/a	LTP150	ltpFR	0	8	n/a	HAM	678	0	5	n/a	n/a	n/a	n/a	n/a	n/a
4326298	RECOG_RESP	n/a	LTP150	ltpFR	0	8	n/a	HAM	678	0	n/a	n/a	n/a	n/a	n/a	n/a	n/a
4328614	RECOG_CONF	n/a	LTP150	ltpFR	0	8	n/a	HAM	678	n/a	5	n/a	n/a	n/a	n/a	n/a	n/a
4330438	RECOG_LURE	n/a	LTP150	ltpFR	0	8	n/a	CIRCUS	311	0	3	n/a	n/a	n/a	n/a	n/a	n/a
4332113	RECOG_RESP	n/a	LTP150	ltpFR	0	8	n/a	CIRCUS	311	0	n/a	n/a	n/a	n/a	n/a	n/a	n/a
4334174	RECOG_CONF	n/a	LTP150	ltpFR	0	8	n/a	CIRCUS	311	n/a	3	n/a	n/a	n/a	n/a	n/a	n/a
4335944	RECOG_TARGET	n/a	LTP150	ltpFR	0	8	1	THICKET	1455	1	5	0	n/a	n/a	n/a	n/a	n/a
4336878	RECOG_RESP	n/a	LTP150	ltpFR	0	8	1	THICKET	1455	1	n/a	0	n/a	n/a	n/a	n/a	n/a
4339006	RECOG_CONF	n/a	LTP150	ltpFR	0	8	1	THICKET	1455	n/a	5	0	n/a	n/a	n/a	n/a	n/a
4340868	RECOG_TARGET	n/a	LTP150	ltpFR	0	8	0	STOMACH	1384	1	5	0	n/a	n/a	n/a	n/a	n/a
4342063	RECOG_RESP	n/a	LTP150	ltpFR	0	8	0	STOMACH	1384	1	n/a	0	n/a	n/a	n/a	n/a	n/a
4344481	RECOG_CONF	n/a	LTP150	ltpFR	0	8	0	STOMACH	1384	n/a	5	0	n/a	n/a	n/a	n/a	n/a
4346449	RECOG_TARGET	n/a	LTP150	ltpFR	0	8	0	ROUGE	1213	1	5	0	n/a	n/a	n/a	n/a	n/a
4347335	RECOG_RESP	n/a	LTP150	ltpFR	0	8	0	ROUGE	1213	1	n/a	0	n/a	n/a	n/a	n/a	n/a
4349557	RECOG_CONF	n/a	LTP150	ltpFR	0	8	0	ROUGE	1213	n/a	5	0	n/a	n/a	n/a	n/a	n/a
4351539	RECOG_LURE	n/a	LTP150	ltpFR	0	8	n/a	FORT	595	0	5	n/a	n/a	n/a	n/a	n/a	n/a
4352441	RECOG_RESP	n/a	LTP150	ltpFR	0	8	n/a	FORT	595	0	n/a	n/a	n/a	n/a	n/a	n/a	n/a
4356010	RECOG_CONF	n/a	LTP150	ltpFR	0	8	n/a	FORT	595	n/a	5	n/a	n/a	n/a	n/a	n/a	n/a
4357829	RECOG_TARGET	n/a	LTP150	ltpFR	0	8	-1	TAXI	1438	1	5	-1	n/a	n/a	n/a	n/a	n/a
4358929	RECOG_RESP	n/a	LTP150	ltpFR	0	8	-1	TAXI	1438	1	n/a	-1	n/a	n/a	n/a	n/a	n/a
4361069	RECOG_CONF	n/a	LTP150	ltpFR	0	8	-1	TAXI	1438	n/a	5	-1	n/a	n/a	n/a	n/a	n/a
4363035	RECOG_LURE	n/a	LTP150	ltpFR	0	8	n/a	PAIL	1002	0	5	n/a	n/a	n/a	n/a	n/a	n/a
4363831	RECOG_RESP	n/a	LTP150	ltpFR	0	8	n/a	PAIL	1002	0	n/a	n/a	n/a	n/a	n/a	n/a	n/a
4365650	RECOG_CONF	n/a	LTP150	ltpFR	0	8	n/a	PAIL	1002	n/a	5	n/a	n/a	n/a	n/a	n/a	n/a
4367234	RECOG_LURE	n/a	LTP150	ltpFR	0	8	n/a	CHAIN	273	0	4	n/a	n/a	n/a	n/a	n/a	n/a
4368221	RECOG_RESP	n/a	LTP150	ltpFR	0	8	n/a	CHAIN	273	0	n/a	n/a	n/a	n/a	n/a	n/a	n/a
4370367	RECOG_CONF	n/a	LTP150	ltpFR	0	8	n/a	CHAIN	273	n/a	4	n/a	n/a	n/a	n/a	n/a	n/a
4371956	RECOG_TARGET	n/a	LTP150	ltpFR	0	8	-1	RICE	1190	1	5	-1	n/a	n/a	n/a	n/a	n/a
4372857	RECOG_RESP	n/a	LTP150	ltpFR	0	8	-1	RICE	1190	1	n/a	-1	n/a	n/a	n/a	n/a	n/a
4374981	RECOG_CONF	n/a	LTP150	ltpFR	0	8	-1	RICE	1190	n/a	5	-1	n/a	n/a	n/a	n/a	n/a
4376830	RECOG_LURE	n/a	LTP150	ltpFR	0	8	n/a	CLARINET	317	0	5	n/a	n/a	n/a	n/a	n/a	n/a
4377723	RECOG_RESP	n/a	LTP150	ltpFR	0	8	n/a	CLARINET	317	0	n/a	n/a	n/a	n/a	n/a	n/a	n/a
4380576	RECOG_CONF	n/a	LTP150	ltpFR	0	8	n/a	CLARINET	317	n/a	5	n/a	n/a	n/a	n/a	n/a	n/a
4382453	RECOG_TARGET	n/a	LTP150	ltpFR	0	8	0	TUXEDO	1525	1	5	0	n/a	n/a	n/a	n/a	n/a
4383318	RECOG_RESP	n/a	LTP150	ltpFR	0	8	0	TUXEDO	1525	1	n/a	0	n/a	n/a	n/a	n/a	n/a
4385433	RECOG_CONF	n/a	LTP150	ltpFR	0	8	0	TUXEDO	1525	n/a	5	0	n/a	n/a	n/a	n/a	n/a
4387376	RECOG_TARGET	n/a	LTP150	ltpFR	0	8	0	SKULL	1320	1	5	1	n/a	n/a	n/a	n/a	n/a
4388201	RECOG_RESP	n/a	LTP150	ltpFR	0	8	0	SKULL	1320	1	n/a	1	n/a	n/a	n/a	n/a	n/a
4390061	RECOG_CONF	n/a	LTP150	ltpFR	0	8	0	SKULL	1320	n/a	5	1	n/a	n/a	n/a	n/a	n/a
