mstime	trial_type	stim_file	subject	experiment	session	trial	task	item_name	item_num	recog_resp	recog_conf	resp	color_r	color_g	color_b	case	font
0	SESS_START	n/a	LTP179	ltpFR	0	n/a	n/a	n/a	n/a	0	4	n/a	n/a	n/a	n/a	n/a	n/a
286484	WORD	wordpools/wasnorm_wordpool_less_exclusions.txt	LTP179	ltpFR	0	1	-1	PEDESTRIAN	1038	0	n/a	-1	1.0	1.0	1	upper	Verdana.ttf
290400	WORD	wordpools/wasnorm_wordpool_less_exclusions.txt	LTP179	ltpFR	0	1	-1	HUMAN	726	n/a	n/a	-1	1.0	1.0	1	upper	Verdana.ttf
294340	WORD	wordpools/wasnorm_wordpool_less_exclusions.txt	LTP179	ltpFR	0	1	-1	RAFT	1159	n/a	n/a	-1	1.0	1.0	1	upper	Verdana.ttf
298380	WORD	wordpools/wasnorm_wordpool_less_exclusions.txt	LTP179	ltpFR	0	1	-1	COMPUTER	359	n/a	n/a	-1	1.0	1.0	1	upper	Verdana.ttf
302362	WORD	wordpools/wasnorm_wordpool_less_exclusions.txt	LTP179	ltpFR	0	1	-1	DISC	473	n/a	n/a	-1	1.0	1.0	1	upper	Verdana.ttf
306494	WORD	wordpools/wasnorm_wordpool_less_exclusions.txt	LTP179	ltpFR	0	1	-1	COUSIN	392	n/a	n/a	-1	1.0	1.0	1	upper	Verdana.ttf
310534	WORD	wordpools/wasnorm_wordpool_less_exclusions.txt	LTP179	ltpFR	0	1	-1	CABINET	212	n/a	n/a	-1	1.0	1.0	1	upper	Verdana.ttf
314633	WORD	wordpools/wasnorm_wordpool_less_exclusions.txt	LTP179	ltpFR	0	1	-1	PUDDLE	1140	n/a	n/a	-1	1.0	1.0	1	upper	Verdana.ttf
318465	WORD	wordpools/wasnorm_wordpool_less_exclusions.txt	LTP179	ltpFR	0	1	-1	OVEN	991	n/a	n/a	-1	1.0	1.0	1	upper	Verdana.ttf
322455	WORD	wordpools/wasnorm_wordpool_less_exclusions.txt	LTP179	ltpFR	0	1	-1	TOAST	1471	n/a	n/a	-1	1.0	1.0	1	upper	Verdana.ttf
326370	WORD	wordpools/wasnorm_wordpool_less_exclusions.txt	LTP179	ltpFR	0	1	-1	OFFICER	973	n/a	n/a	-1	1.0	1.0	1	upper	Verdana.ttf
330311	WORD	wordpools/wasnorm_wordpool_less_exclusions.txt	LTP179	ltpFR	0	1	-1	PORCUPINE	1107	n/a	n/a	-1	1.0	1.0	1	upper	Verdana.ttf
334142	WORD	wordpools/wasnorm_wordpool_less_exclusions.txt	LTP179	ltpFR	0	1	-1	COD	340	n/a	n/a	-1	1.0	1.0	1	upper	Verdana.ttf
338083	WORD	wordpools/wasnorm_wordpool_less_exclusions.txt	LTP179	ltpFR	0	1	-1	LABEL	790	n/a	n/a	-1	1.0	1.0	1	upper	Verdana.ttf
341915	WORD	wordpools/wasnorm_wordpool_less_exclusions.txt	LTP179	ltpFR	0	1	-1	TIMBER	1469	n/a	n/a	-1	1.0	1.0	1	upper	Verdana.ttf
345855	WORD	wordpools/wasnorm_wordpool_less_exclusions.txt	LTP179	ltpFR	0	1	-1	FISH	571	n/a	n/a	-1	1.0	1.0	1	upper	Verdana.ttf
351729	REC_START	n/a	LTP179	ltpFR	0	1	n/a	n/a	n/a	n/a	n/a	n/a	n/a	n/a	n/a	n/a	n/a
355490	REC_WORD	wordpools/wasnorm_wordpool_less_exclusions.txt	LTP179	ltpFR	0	1	-1	RAFT	1159	n/a	n/a	-1	n/a	n/a	n/a	n/a	n/a
357496	REC_WORD	wordpools/wasnorm_wordpool_less_exclusions.txt	LTP179	ltpFR	0	1	-1	FISH	571	n/a	n/a	-1	n/a	n/a	n/a	n/a	n/a
359451	REC_WORD	wordpools/wasnorm_wordpool_less_exclusions.txt	LTP179	ltpFR	0	1	-1	COD	340	n/a	n/a	-1	n/a	n/a	n/a	n/a	n/a
361841	REC_WORD	wordpools/wasnorm_wordpool_less_exclusions.txt	LTP179	ltpFR	0	1	-1	PEDESTRIAN	1038	n/a	n/a	-1	n/a	n/a	n/a	n/a	n/a
364146	REC_WORD	wordpools/wasnorm_wordpool_less_exclusions.txt	LTP179	ltpFR	0	1	-1	HUMAN	726	n/a	n/a	-1	n/a	n/a	n/a	n/a	n/a
366595	REC_WORD	wordpools/wasnorm_wordpool_less_exclusions.txt	LTP179	ltpFR	0	1	-1	PUDDLE	1140	n/a	n/a	-1	n/a	n/a	n/a	n/a	n/a
368720	REC_WORD	wordpools/wasnorm_wordpool_less_exclusions.txt	LTP179	ltpFR	0	1	-1	COMPUTER	359	n/a	n/a	-1	n/a	n/a	n/a	n/a	n/a
371444	REC_WORD	wordpools/wasnorm_wordpool_less_exclusions.txt	LTP179	ltpFR	0	1	-1	DISC	473	n/a	n/a	-1	n/a	n/a	n/a	n/a	n/a
374118	REC_WORD	wordpools/wasnorm_wordpool_less_exclusions.txt	LTP179	ltpFR	0	1	-1	TIMBER	1469	n/a	n/a	-1	n/a	n/a	n/a	n/a	n/a
380289	REC_WORD	wordpools/wasnorm_wordpool_less_exclusions.txt	LTP179	ltpFR	0	1	-1	COUSIN	392	n/a	n/a	-1	n/a	n/a	n/a	n/a	n/a
395439	REC_WORD	wordpools/wasnorm_wordpool_less_exclusions.txt	LTP179	ltpFR	0	1	-1	PORCUPINE	1107	n/a	n/a	-1	n/a	n/a	n/a	n/a	n/a
403267	REC_WORD	wordpools/wasnorm_wordpool_less_exclusions.txt	LTP179	ltpFR	0	1	-1	PUDDLE	1140	n/a	n/a	-1	n/a	n/a	n/a	n/a	n/a
404953	REC_WORD	wordpools/wasnorm_wordpool_less_exclusions.txt	LTP179	ltpFR	0	1	-1	OVEN	991	n/a	n/a	-1	n/a	n/a	n/a	n/a	n/a
406809	REC_WORD	wordpools/wasnorm_wordpool_less_exclusions.txt	LTP179	ltpFR	0	1	-1	TOAST	1471	n/a	n/a	-1	n/a	n/a	n/a	n/a	n/a
451118	WORD	wordpools/wasnorm_wordpool_less_exclusions.txt	LTP179	ltpFR	0	2	-1	BUILDER	190	n/a	n/a	-1	1.0	1.0	1	upper	Verdana.ttf
454950	WORD	wordpools/wasnorm_wordpool_less_exclusions.txt	LTP179	ltpFR	0	2	-1	HAWK	692	n/a	n/a	-1	1.0	1.0	1	upper	Verdana.ttf
459164	WORD	wordpools/wasnorm_wordpool_less_exclusions.txt	LTP179	ltpFR	0	2	-1	DRESSER	496	n/a	n/a	-1	1.0	1.0	1	upper	Verdana.ttf
463330	WORD	wordpools/wasnorm_wordpool_less_exclusions.txt	LTP179	ltpFR	0	2	-1	COMB	351	n/a	n/a	-1	1.0	1.0	1	upper	Verdana.ttf
467445	WORD	wordpools/wasnorm_wordpool_less_exclusions.txt	LTP179	ltpFR	0	2	-1	UNIVERSE	1540	n/a	n/a	-1	1.0	1.0	1	upper	Verdana.ttf
471560	WORD	wordpools/wasnorm_wordpool_less_exclusions.txt	LTP179	ltpFR	0	2	-1	BANJO	82	n/a	n/a	-1	1.0	1.0	1	upper	Verdana.ttf
475676	WORD	wordpools/wasnorm_wordpool_less_exclusions.txt	LTP179	ltpFR	0	2	-1	COUCH	386	n/a	n/a	-1	1.0	1.0	1	upper	Verdana.ttf
479833	WORD	wordpools/wasnorm_wordpool_less_exclusions.txt	LTP179	ltpFR	0	2	-1	BLUEPRINT	142	n/a	n/a	-1	1.0	1.0	1	upper	Verdana.ttf
483831	WORD	wordpools/wasnorm_wordpool_less_exclusions.txt	LTP179	ltpFR	0	2	-1	TRUMPET	1513	n/a	n/a	-1	1.0	1.0	1	upper	Verdana.ttf
487938	WORD	wordpools/wasnorm_wordpool_less_exclusions.txt	LTP179	ltpFR	0	2	-1	GROUND	666	n/a	n/a	-1	1.0	1.0	1	upper	Verdana.ttf
491828	WORD	wordpools/wasnorm_wordpool_less_exclusions.txt	LTP179	ltpFR	0	2	-1	GRAVEL	659	n/a	n/a	-1	1.0	1.0	1	upper	Verdana.ttf
495652	WORD	wordpools/wasnorm_wordpool_less_exclusions.txt	LTP179	ltpFR	0	2	-1	WIRE	1616	n/a	n/a	-1	1.0	1.0	1	upper	Verdana.ttf
499800	WORD	wordpools/wasnorm_wordpool_less_exclusions.txt	LTP179	ltpFR	0	2	-1	CORD	379	n/a	n/a	-1	1.0	1.0	1	upper	Verdana.ttf
503807	WORD	wordpools/wasnorm_wordpool_less_exclusions.txt	LTP179	ltpFR	0	2	-1	SCRIBBLE	1256	n/a	n/a	-1	1.0	1.0	1	upper	Verdana.ttf
507839	WORD	wordpools/wasnorm_wordpool_less_exclusions.txt	LTP179	ltpFR	0	2	-1	TYPIST	1532	n/a	n/a	-1	1.0	1.0	1	upper	Verdana.ttf
511788	WORD	wordpools/wasnorm_wordpool_less_exclusions.txt	LTP179	ltpFR	0	2	-1	PIG	1064	n/a	n/a	-1	1.0	1.0	1	upper	Verdana.ttf
517611	REC_START	n/a	LTP179	ltpFR	0	2	n/a	n/a	n/a	n/a	n/a	n/a	n/a	n/a	n/a	n/a	n/a
519796	REC_WORD	wordpools/wasnorm_wordpool_less_exclusions.txt	LTP179	ltpFR	0	2	-1	PIG	1064	n/a	n/a	-1	n/a	n/a	n/a	n/a	n/a
522594	REC_WORD	wordpools/wasnorm_wordpool_less_exclusions.txt	LTP179	ltpFR	0	2	-1	GROUND	666	n/a	n/a	-1	n/a	n/a	n/a	n/a	n/a
526520	REC_WORD	wordpools/wasnorm_wordpool_less_exclusions.txt	LTP179	ltpFR	0	2	-1	BUILDER	190	n/a	n/a	-1	n/a	n/a	n/a	n/a	n/a
529928	REC_WORD	wordpools/wasnorm_wordpool_less_exclusions.txt	LTP179	ltpFR	0	2	-1	HAWK	692	n/a	n/a	-1	n/a	n/a	n/a	n/a	n/a
534697	REC_WORD	wordpools/wasnorm_wordpool_less_exclusions.txt	LTP179	ltpFR	0	2	-1	WIRE	1616	n/a	n/a	-1	n/a	n/a	n/a	n/a	n/a
536897	REC_WORD	wordpools/wasnorm_wordpool_less_exclusions.txt	LTP179	ltpFR	0	2	-1	COUCH	386	n/a	n/a	-1	n/a	n/a	n/a	n/a	n/a
566126	REC_WORD	wordpools/wasnorm_wordpool_less_exclusions.txt	LTP179	ltpFR	0	2	-1	BANJO	82	n/a	n/a	-1	n/a	n/a	n/a	n/a	n/a
612819	WORD	wordpools/wasnorm_wordpool_less_exclusions.txt	LTP179	ltpFR	0	3	-1	LAWN	805	n/a	n/a	-1	1.0	1.0	1	upper	Verdana.ttf
616734	WORD	wordpools/wasnorm_wordpool_less_exclusions.txt	LTP179	ltpFR	0	3	-1	SHEARS	1276	n/a	n/a	-1	1.0	1.0	1	upper	Verdana.ttf
620583	WORD	wordpools/wasnorm_wordpool_less_exclusions.txt	LTP179	ltpFR	0	3	-1	MOTHER	921	n/a	n/a	-1	1.0	1.0	1	upper	Verdana.ttf
624615	WORD	wordpools/wasnorm_wordpool_less_exclusions.txt	LTP179	ltpFR	0	3	-1	THORN	1459	n/a	n/a	-1	1.0	1.0	1	upper	Verdana.ttf
628771	WORD	wordpools/wasnorm_wordpool_less_exclusions.txt	LTP179	ltpFR	0	3	-1	CANYON	235	n/a	n/a	-1	1.0	1.0	1	upper	Verdana.ttf
632587	WORD	wordpools/wasnorm_wordpool_less_exclusions.txt	LTP179	ltpFR	0	3	-1	CHERRY	293	n/a	n/a	-1	1.0	1.0	1	upper	Verdana.ttf
636577	WORD	wordpools/wasnorm_wordpool_less_exclusions.txt	LTP179	ltpFR	0	3	-1	RUBY	1214	n/a	n/a	-1	1.0	1.0	1	upper	Verdana.ttf
640634	WORD	wordpools/wasnorm_wordpool_less_exclusions.txt	LTP179	ltpFR	0	3	-1	RING	1193	n/a	n/a	-1	1.0	1.0	1	upper	Verdana.ttf
644516	WORD	wordpools/wasnorm_wordpool_less_exclusions.txt	LTP179	ltpFR	0	3	-1	FATHER	554	n/a	n/a	-1	1.0	1.0	1	upper	Verdana.ttf
648689	WORD	wordpools/wasnorm_wordpool_less_exclusions.txt	LTP179	ltpFR	0	3	-1	SCROLL	1257	n/a	n/a	-1	1.0	1.0	1	upper	Verdana.ttf
652788	WORD	wordpools/wasnorm_wordpool_less_exclusions.txt	LTP179	ltpFR	0	3	-1	SNACK	1331	n/a	n/a	-1	1.0	1.0	1	upper	Verdana.ttf
656753	WORD	wordpools/wasnorm_wordpool_less_exclusions.txt	LTP179	ltpFR	0	3	-1	RICE	1190	n/a	n/a	-1	1.0	1.0	1	upper	Verdana.ttf
660943	WORD	wordpools/wasnorm_wordpool_less_exclusions.txt	LTP179	ltpFR	0	3	-1	TRACTOR	1493	n/a	n/a	-1	1.0	1.0	1	upper	Verdana.ttf
664867	WORD	wordpools/wasnorm_wordpool_less_exclusions.txt	LTP179	ltpFR	0	3	-1	JOURNAL	760	n/a	n/a	-1	1.0	1.0	1	upper	Verdana.ttf
668724	WORD	wordpools/wasnorm_wordpool_less_exclusions.txt	LTP179	ltpFR	0	3	-1	ROUGE	1213	n/a	n/a	-1	1.0	1.0	1	upper	Verdana.ttf
672714	WORD	wordpools/wasnorm_wordpool_less_exclusions.txt	LTP179	ltpFR	0	3	-1	WATERFALL	1595	n/a	n/a	-1	1.0	1.0	1	upper	Verdana.ttf
678763	REC_START	n/a	LTP179	ltpFR	0	3	n/a	n/a	n/a	n/a	n/a	n/a	n/a	n/a	n/a	n/a	n/a
681127	REC_WORD	wordpools/wasnorm_wordpool_less_exclusions.txt	LTP179	ltpFR	0	3	-1	CANYON	235	n/a	n/a	-1	n/a	n/a	n/a	n/a	n/a
682853	REC_WORD	wordpools/wasnorm_wordpool_less_exclusions.txt	LTP179	ltpFR	0	3	-1	WATERFALL	1595	n/a	n/a	-1	n/a	n/a	n/a	n/a	n/a
685183	REC_WORD	wordpools/wasnorm_wordpool_less_exclusions.txt	LTP179	ltpFR	0	3	-1	FATHER	554	n/a	n/a	-1	n/a	n/a	n/a	n/a	n/a
686969	REC_WORD	wordpools/wasnorm_wordpool_less_exclusions.txt	LTP179	ltpFR	0	3	-1	MOTHER	921	n/a	n/a	-1	n/a	n/a	n/a	n/a	n/a
688700	REC_WORD	wordpools/wasnorm_wordpool_less_exclusions.txt	LTP179	ltpFR	0	3	-1	LAWN	805	n/a	n/a	-1	n/a	n/a	n/a	n/a	n/a
690506	REC_WORD	wordpools/wasnorm_wordpool_less_exclusions.txt	LTP179	ltpFR	0	3	-1	SHEARS	1276	n/a	n/a	-1	n/a	n/a	n/a	n/a	n/a
692441	REC_WORD	wordpools/wasnorm_wordpool_less_exclusions.txt	LTP179	ltpFR	0	3	-1	THORN	1459	n/a	n/a	-1	n/a	n/a	n/a	n/a	n/a
694442	REC_WORD	wordpools/wasnorm_wordpool_less_exclusions.txt	LTP179	ltpFR	0	3	-1	RICE	1190	n/a	n/a	-1	n/a	n/a	n/a	n/a	n/a
698498	REC_WORD	wordpools/wasnorm_wordpool_less_exclusions.txt	LTP179	ltpFR	0	3	-1	SCROLL	1257	n/a	n/a	-1	n/a	n/a	n/a	n/a	n/a
724105	REC_WORD	wordpools/wasnorm_wordpool_less_exclusions.txt	LTP179	ltpFR	0	3	-1	CHERRY	293	n/a	n/a	-1	n/a	n/a	n/a	n/a	n/a
726868	REC_WORD	wordpools/wasnorm_wordpool_less_exclusions.txt	LTP179	ltpFR	0	3	-1	ROUGE	1213	n/a	n/a	-1	n/a	n/a	n/a	n/a	n/a
730286	REC_WORD	wordpools/wasnorm_wordpool_less_exclusions.txt	LTP179	ltpFR	0	3	-1	RING	1193	n/a	n/a	-1	n/a	n/a	n/a	n/a	n/a
732730	REC_WORD	wordpools/wasnorm_wordpool_less_exclusions.txt	LTP179	ltpFR	0	3	-1	RUBY	1214	n/a	n/a	-1	n/a	n/a	n/a	n/a	n/a
796645	WORD	wordpools/wasnorm_wordpool_less_exclusions.txt	LTP179	ltpFR	0	4	-1	PISTON	1076	n/a	n/a	-1	1.0	1.0	1	upper	Verdana.ttf
800719	WORD	wordpools/wasnorm_wordpool_less_exclusions.txt	LTP179	ltpFR	0	4	-1	DAISY	435	n/a	n/a	-1	1.0	1.0	1	upper	Verdana.ttf
804551	WORD	wordpools/wasnorm_wordpool_less_exclusions.txt	LTP179	ltpFR	0	4	-1	SEED	1266	n/a	n/a	-1	1.0	1.0	1	upper	Verdana.ttf
808416	WORD	wordpools/wasnorm_wordpool_less_exclusions.txt	LTP179	ltpFR	0	4	-1	VALLEY	1545	n/a	n/a	-1	1.0	1.0	1	upper	Verdana.ttf
812315	WORD	wordpools/wasnorm_wordpool_less_exclusions.txt	LTP179	ltpFR	0	4	-1	CLAW	319	n/a	n/a	-1	1.0	1.0	1	upper	Verdana.ttf
816247	WORD	wordpools/wasnorm_wordpool_less_exclusions.txt	LTP179	ltpFR	0	4	-1	INSECT	740	n/a	n/a	-1	1.0	1.0	1	upper	Verdana.ttf
820169	WORD	wordpools/wasnorm_wordpool_less_exclusions.txt	LTP179	ltpFR	0	4	-1	MASCARA	875	n/a	n/a	-1	1.0	1.0	1	upper	Verdana.ttf
824127	WORD	wordpools/wasnorm_wordpool_less_exclusions.txt	LTP179	ltpFR	0	4	-1	REBEL	1172	n/a	n/a	-1	1.0	1.0	1	upper	Verdana.ttf
828018	WORD	wordpools/wasnorm_wordpool_less_exclusions.txt	LTP179	ltpFR	0	4	-1	GODDESS	646	n/a	n/a	-1	1.0	1.0	1	upper	Verdana.ttf
832075	WORD	wordpools/wasnorm_wordpool_less_exclusions.txt	LTP179	ltpFR	0	4	-1	BUTTERFLY	206	n/a	n/a	-1	1.0	1.0	1	upper	Verdana.ttf
836006	WORD	wordpools/wasnorm_wordpool_less_exclusions.txt	LTP179	ltpFR	0	4	-1	COCOON	339	n/a	n/a	-1	1.0	1.0	1	upper	Verdana.ttf
840063	WORD	wordpools/wasnorm_wordpool_less_exclusions.txt	LTP179	ltpFR	0	4	-1	HANDBAG	684	n/a	n/a	-1	1.0	1.0	1	upper	Verdana.ttf
844129	WORD	wordpools/wasnorm_wordpool_less_exclusions.txt	LTP179	ltpFR	0	4	-1	KNAPSACK	783	n/a	n/a	-1	1.0	1.0	1	upper	Verdana.ttf
848102	WORD	wordpools/wasnorm_wordpool_less_exclusions.txt	LTP179	ltpFR	0	4	-1	WHISKERS	1605	n/a	n/a	-1	1.0	1.0	1	upper	Verdana.ttf
852191	WORD	wordpools/wasnorm_wordpool_less_exclusions.txt	LTP179	ltpFR	0	4	-1	MOUNTAIN	924	n/a	n/a	-1	1.0	1.0	1	upper	Verdana.ttf
856091	WORD	wordpools/wasnorm_wordpool_less_exclusions.txt	LTP179	ltpFR	0	4	-1	COSTUME	383	n/a	n/a	-1	1.0	1.0	1	upper	Verdana.ttf
861781	REC_START	n/a	LTP179	ltpFR	0	4	n/a	n/a	n/a	n/a	n/a	n/a	n/a	n/a	n/a	n/a	n/a
863417	REC_WORD	wordpools/wasnorm_wordpool_less_exclusions.txt	LTP179	ltpFR	0	4	-1	PISTON	1076	n/a	n/a	-1	n/a	n/a	n/a	n/a	n/a
865722	REC_WORD	wordpools/wasnorm_wordpool_less_exclusions.txt	LTP179	ltpFR	0	4	-1	DAISY	435	n/a	n/a	-1	n/a	n/a	n/a	n/a	n/a
867917	REC_WORD	wordpools/wasnorm_wordpool_less_exclusions.txt	LTP179	ltpFR	0	4	-1	GODDESS	646	n/a	n/a	-1	n/a	n/a	n/a	n/a	n/a
870361	REC_WORD	wordpools/wasnorm_wordpool_less_exclusions.txt	LTP179	ltpFR	0	4	-1	HANDBAG	684	n/a	n/a	-1	n/a	n/a	n/a	n/a	n/a
872696	REC_WORD	wordpools/wasnorm_wordpool_less_exclusions.txt	LTP179	ltpFR	0	4	-1	MASCARA	875	n/a	n/a	-1	n/a	n/a	n/a	n/a	n/a
875380	REC_WORD	wordpools/wasnorm_wordpool_less_exclusions.txt	LTP179	ltpFR	0	4	-1	BUTTERFLY	206	n/a	n/a	-1	n/a	n/a	n/a	n/a	n/a
877171	REC_WORD	wordpools/wasnorm_wordpool_less_exclusions.txt	LTP179	ltpFR	0	4	-1	COCOON	339	n/a	n/a	-1	n/a	n/a	n/a	n/a	n/a
879436	REC_WORD	wordpools/wasnorm_wordpool_less_exclusions.txt	LTP179	ltpFR	0	4	-1	INSECT	740	n/a	n/a	-1	n/a	n/a	n/a	n/a	n/a
881262	REC_WORD	wordpools/wasnorm_wordpool_less_exclusions.txt	LTP179	ltpFR	0	4	-1	CLAW	319	n/a	n/a	-1	n/a	n/a	n/a	n/a	n/a
1416109	WORD	wordpools/wasnorm_wordpool_less_exclusions.txt	LTP179	ltpFR	0	5	1	CONVENT	370	n/a	n/a	0	0.57763671875	0.412841796875	1	upper	amplitud.ttf
1420308	WORD	wordpools/wasnorm_wordpool_less_exclusions.txt	LTP179	ltpFR	0	5	1	TECHNICIAN	1443	n/a	n/a	1	0.57763671875	0.412841796875	1	upper	amplitud.ttf
1424189	WORD	wordpools/wasnorm_wordpool_less_exclusions.txt	LTP179	ltpFR	0	5	1	FLESH	579	n/a	n/a	1	0.57763671875	0.412841796875	1	upper	amplitud.ttf
1428280	WORD	wordpools/wasnorm_wordpool_less_exclusions.txt	LTP179	ltpFR	0	5	1	TOURIST	1488	n/a	n/a	1	0.57763671875	0.412841796875	1	upper	amplitud.ttf
1432129	WORD	wordpools/wasnorm_wordpool_less_exclusions.txt	LTP179	ltpFR	0	5	1	CAGE	218	n/a	n/a	0	0.57763671875	0.412841796875	1	upper	amplitud.ttf
1436052	WORD	wordpools/wasnorm_wordpool_less_exclusions.txt	LTP179	ltpFR	0	5	1	BULB	192	n/a	n/a	1	0.57763671875	0.412841796875	1	upper	amplitud.ttf
1440109	WORD	wordpools/wasnorm_wordpool_less_exclusions.txt	LTP179	ltpFR	0	5	1	LIVER	833	n/a	n/a	1	0.57763671875	0.412841796875	1	upper	amplitud.ttf
1444308	WORD	wordpools/wasnorm_wordpool_less_exclusions.txt	LTP179	ltpFR	0	5	1	COIN	343	n/a	n/a	0	0.57763671875	0.412841796875	1	upper	amplitud.ttf
1448498	WORD	wordpools/wasnorm_wordpool_less_exclusions.txt	LTP179	ltpFR	0	5	1	MONASTERY	907	n/a	n/a	0	0.57763671875	0.412841796875	1	upper	amplitud.ttf
1452588	WORD	wordpools/wasnorm_wordpool_less_exclusions.txt	LTP179	ltpFR	0	5	1	CATERPILLAR	259	n/a	n/a	1	0.57763671875	0.412841796875	1	upper	amplitud.ttf
1456503	WORD	wordpools/wasnorm_wordpool_less_exclusions.txt	LTP179	ltpFR	0	5	1	LUGGAGE	847	n/a	n/a	0	0.57763671875	0.412841796875	1	upper	amplitud.ttf
1460460	WORD	wordpools/wasnorm_wordpool_less_exclusions.txt	LTP179	ltpFR	0	5	1	BRIEFCASE	175	n/a	n/a	0	0.57763671875	0.412841796875	1	upper	amplitud.ttf
1464459	WORD	wordpools/wasnorm_wordpool_less_exclusions.txt	LTP179	ltpFR	0	5	1	BASSINET	97	n/a	n/a	0	0.57763671875	0.412841796875	1	upper	amplitud.ttf
1468641	WORD	wordpools/wasnorm_wordpool_less_exclusions.txt	LTP179	ltpFR	0	5	1	BABY	64	n/a	n/a	1	0.57763671875	0.412841796875	1	upper	amplitud.ttf
1472814	WORD	wordpools/wasnorm_wordpool_less_exclusions.txt	LTP179	ltpFR	0	5	1	CRAB	397	n/a	n/a	1	0.57763671875	0.412841796875	1	upper	amplitud.ttf
1476863	WORD	wordpools/wasnorm_wordpool_less_exclusions.txt	LTP179	ltpFR	0	5	1	DINNER	468	n/a	n/a	0	0.57763671875	0.412841796875	1	upper	amplitud.ttf
1482578	REC_START	n/a	LTP179	ltpFR	0	5	n/a	n/a	n/a	n/a	n/a	n/a	n/a	n/a	n/a	n/a	n/a
1484917	REC_WORD	wordpools/wasnorm_wordpool_less_exclusions.txt	LTP179	ltpFR	0	5	1	CONVENT	370	n/a	n/a	0	n/a	n/a	n/a	n/a	n/a
1486828	REC_WORD	wordpools/wasnorm_wordpool_less_exclusions.txt	LTP179	ltpFR	0	5	1	MONASTERY	907	n/a	n/a	0	n/a	n/a	n/a	n/a	n/a
1488839	REC_WORD	wordpools/wasnorm_wordpool_less_exclusions.txt	LTP179	ltpFR	0	5	1	LIVER	833	n/a	n/a	1	n/a	n/a	n/a	n/a	n/a
1490859	REC_WORD	wordpools/wasnorm_wordpool_less_exclusions.txt	LTP179	ltpFR	0	5	1	BABY	64	n/a	n/a	1	n/a	n/a	n/a	n/a	n/a
1493034	REC_WORD	wordpools/wasnorm_wordpool_less_exclusions.txt	LTP179	ltpFR	0	5	1	BASSINET	97	n/a	n/a	0	n/a	n/a	n/a	n/a	n/a
1501450	REC_WORD	wordpools/wasnorm_wordpool_less_exclusions.txt	LTP179	ltpFR	0	5	1	DINNER	468	n/a	n/a	0	n/a	n/a	n/a	n/a	n/a
1507990	REC_WORD	wordpools/wasnorm_wordpool_less_exclusions.txt	LTP179	ltpFR	0	5	1	CATERPILLAR	259	n/a	n/a	1	n/a	n/a	n/a	n/a	n/a
1528773	REC_WORD	wordpools/wasnorm_wordpool_less_exclusions.txt	LTP179	ltpFR	0	5	1	CRAB	397	n/a	n/a	1	n/a	n/a	n/a	n/a	n/a
1629342	WORD	wordpools/wasnorm_wordpool_less_exclusions.txt	LTP179	ltpFR	0	6	1	NECK	939	n/a	n/a	1	0.57763671875	0.412841796875	1	upper	amplitud.ttf
1633491	WORD	wordpools/wasnorm_wordpool_less_exclusions.txt	LTP179	ltpFR	0	6	1	ROBE	1198	n/a	n/a	0	0.57763671875	0.412841796875	1	upper	amplitud.ttf
1637564	WORD	wordpools/wasnorm_wordpool_less_exclusions.txt	LTP179	ltpFR	0	6	1	PAIL	1002	n/a	n/a	0	0.57763671875	0.412841796875	1	upper	amplitud.ttf
1641488	WORD	wordpools/wasnorm_wordpool_less_exclusions.txt	LTP179	ltpFR	0	6	1	INTESTINE	742	n/a	n/a	1	0.57763671875	0.412841796875	1	upper	amplitud.ttf
1645511	WORD	wordpools/wasnorm_wordpool_less_exclusions.txt	LTP179	ltpFR	0	6	1	SINK	1309	n/a	n/a	0	0.57763671875	0.412841796875	1	upper	amplitud.ttf
1649393	WORD	wordpools/wasnorm_wordpool_less_exclusions.txt	LTP179	ltpFR	0	6	1	MOAT	903	n/a	n/a	0	0.57763671875	0.412841796875	1	upper	amplitud.ttf
1653433	WORD	wordpools/wasnorm_wordpool_less_exclusions.txt	LTP179	ltpFR	0	6	1	FRIEND	606	n/a	n/a	1	0.57763671875	0.412841796875	1	upper	amplitud.ttf
1657574	WORD	wordpools/wasnorm_wordpool_less_exclusions.txt	LTP179	ltpFR	0	6	1	QUARTER	1148	n/a	n/a	0	0.57763671875	0.412841796875	1	upper	amplitud.ttf
1661664	WORD	wordpools/wasnorm_wordpool_less_exclusions.txt	LTP179	ltpFR	0	6	1	MARROW	872	n/a	n/a	1	0.57763671875	0.412841796875	1	upper	amplitud.ttf
1665854	WORD	wordpools/wasnorm_wordpool_less_exclusions.txt	LTP179	ltpFR	0	6	1	DAM	436	n/a	n/a	0	0.57763671875	0.412841796875	1	upper	amplitud.ttf
1669878	WORD	wordpools/wasnorm_wordpool_less_exclusions.txt	LTP179	ltpFR	0	6	1	SUIT	1402	n/a	n/a	0	0.57763671875	0.412841796875	1	upper	amplitud.ttf
1673976	WORD	wordpools/wasnorm_wordpool_less_exclusions.txt	LTP179	ltpFR	0	6	1	CHICKEN	297	n/a	n/a	1	0.57763671875	0.412841796875	1	upper	amplitud.ttf
1677792	WORD	wordpools/wasnorm_wordpool_less_exclusions.txt	LTP179	ltpFR	0	6	1	HEN	703	n/a	n/a	1	0.57763671875	0.412841796875	1	upper	amplitud.ttf
1681982	WORD	wordpools/wasnorm_wordpool_less_exclusions.txt	LTP179	ltpFR	0	6	1	POWDER	1117	n/a	n/a	0	0.57763671875	0.412841796875	1	upper	amplitud.ttf
1685847	WORD	wordpools/wasnorm_wordpool_less_exclusions.txt	LTP179	ltpFR	0	6	1	TWEEZERS	1526	n/a	n/a	0	0.57763671875	0.412841796875	1	upper	amplitud.ttf
1689687	WORD	wordpools/wasnorm_wordpool_less_exclusions.txt	LTP179	ltpFR	0	6	1	CITIZEN	312	n/a	n/a	1	0.57763671875	0.412841796875	1	upper	amplitud.ttf
1695403	REC_START	n/a	LTP179	ltpFR	0	6	n/a	n/a	n/a	n/a	n/a	n/a	n/a	n/a	n/a	n/a	n/a
1697922	REC_WORD	wordpools/wasnorm_wordpool_less_exclusions.txt	LTP179	ltpFR	0	6	1	SINK	1309	n/a	n/a	0	n/a	n/a	n/a	n/a	n/a
1700865	REC_WORD	wordpools/wasnorm_wordpool_less_exclusions.txt	LTP179	ltpFR	0	6	1	CHICKEN	297	n/a	n/a	1	n/a	n/a	n/a	n/a	n/a
1702921	REC_WORD	wordpools/wasnorm_wordpool_less_exclusions.txt	LTP179	ltpFR	0	6	1	HEN	703	n/a	n/a	1	n/a	n/a	n/a	n/a	n/a
1705215	REC_WORD	wordpools/wasnorm_wordpool_less_exclusions.txt	LTP179	ltpFR	0	6	1	TWEEZERS	1526	n/a	n/a	0	n/a	n/a	n/a	n/a	n/a
1708842	REC_WORD	wordpools/wasnorm_wordpool_less_exclusions.txt	LTP179	ltpFR	0	6	1	SUIT	1402	n/a	n/a	0	n/a	n/a	n/a	n/a	n/a
1716774	REC_WORD	wordpools/wasnorm_wordpool_less_exclusions.txt	LTP179	ltpFR	0	6	1	BRIEFCASE	175	n/a	n/a	0	n/a	n/a	n/a	n/a	n/a
1726966	REC_WORD	wordpools/wasnorm_wordpool_less_exclusions.txt	LTP179	ltpFR	0	6	1	FRIEND	606	n/a	n/a	1	n/a	n/a	n/a	n/a	n/a
1748427	REC_WORD	wordpools/wasnorm_wordpool_less_exclusions.txt	LTP179	ltpFR	0	6	1	MARROW	872	n/a	n/a	1	n/a	n/a	n/a	n/a	n/a
1776881	WORD	wordpools/wasnorm_wordpool_less_exclusions.txt	LTP179	ltpFR	0	7	1	EMPEROR	529	n/a	n/a	1	0.57763671875	0.412841796875	1	upper	amplitud.ttf
1780747	WORD	wordpools/wasnorm_wordpool_less_exclusions.txt	LTP179	ltpFR	0	7	1	SIREN	1310	n/a	n/a	0	0.57763671875	0.412841796875	1	upper	amplitud.ttf
1784945	WORD	wordpools/wasnorm_wordpool_less_exclusions.txt	LTP179	ltpFR	0	7	1	FEMALE	559	n/a	n/a	1	0.57763671875	0.412841796875	1	upper	amplitud.ttf
1788827	WORD	wordpools/wasnorm_wordpool_less_exclusions.txt	LTP179	ltpFR	0	7	1	WILDERNESS	1610	n/a	n/a	1	0.57763671875	0.412841796875	1	upper	amplitud.ttf
1792876	WORD	wordpools/wasnorm_wordpool_less_exclusions.txt	LTP179	ltpFR	0	7	1	PALM	1007	n/a	n/a	1	0.57763671875	0.412841796875	1	upper	amplitud.ttf
1796891	WORD	wordpools/wasnorm_wordpool_less_exclusions.txt	LTP179	ltpFR	0	7	1	FUR	615	n/a	n/a	0	0.57763671875	0.412841796875	1	upper	amplitud.ttf
1800890	WORD	wordpools/wasnorm_wordpool_less_exclusions.txt	LTP179	ltpFR	0	7	1	RABBIT	1152	n/a	n/a	1	0.57763671875	0.412841796875	1	upper	amplitud.ttf
1805021	WORD	wordpools/wasnorm_wordpool_less_exclusions.txt	LTP179	ltpFR	0	7	1	FREEZER	604	n/a	n/a	0	0.57763671875	0.412841796875	1	upper	amplitud.ttf
1808953	WORD	wordpools/wasnorm_wordpool_less_exclusions.txt	LTP179	ltpFR	0	7	1	EMPIRE	530	n/a	n/a	0	0.57763671875	0.412841796875	1	upper	amplitud.ttf
1813134	WORD	wordpools/wasnorm_wordpool_less_exclusions.txt	LTP179	ltpFR	0	7	1	BEDROOM	111	n/a	n/a	0	0.57763671875	0.412841796875	1	upper	amplitud.ttf
1817042	WORD	wordpools/wasnorm_wordpool_less_exclusions.txt	LTP179	ltpFR	0	7	1	VEIN	1554	n/a	n/a	1	0.57763671875	0.412841796875	1	upper	amplitud.ttf
1820916	WORD	wordpools/wasnorm_wordpool_less_exclusions.txt	LTP179	ltpFR	0	7	1	SKUNK	1321	n/a	n/a	1	0.57763671875	0.412841796875	1	upper	amplitud.ttf
1825098	WORD	wordpools/wasnorm_wordpool_less_exclusions.txt	LTP179	ltpFR	0	7	1	ARM	38	n/a	n/a	1	0.57763671875	0.412841796875	1	upper	amplitud.ttf
1829187	WORD	wordpools/wasnorm_wordpool_less_exclusions.txt	LTP179	ltpFR	0	7	1	LIZARD	834	n/a	n/a	1	0.57763671875	0.412841796875	1	upper	amplitud.ttf
1833152	WORD	wordpools/wasnorm_wordpool_less_exclusions.txt	LTP179	ltpFR	0	7	1	SERPENT	1270	n/a	n/a	1	0.57763671875	0.412841796875	1	upper	amplitud.ttf
1837352	WORD	wordpools/wasnorm_wordpool_less_exclusions.txt	LTP179	ltpFR	0	7	1	DEPUTY	450	n/a	n/a	n/a	0.57763671875	0.412841796875	1	upper	amplitud.ttf
1840376	SLOW_MSG	n/a	LTP179	ltpFR	0	7	n/a	n/a	n/a	n/a	n/a	n/a	n/a	n/a	n/a	n/a	n/a
1844800	REC_START	n/a	LTP179	ltpFR	0	7	n/a	n/a	n/a	n/a	n/a	n/a	n/a	n/a	n/a	n/a	n/a
1847937	REC_WORD	wordpools/wasnorm_wordpool_less_exclusions.txt	LTP179	ltpFR	0	7	1	SKUNK	1321	n/a	n/a	1	n/a	n/a	n/a	n/a	n/a
1849853	REC_WORD	wordpools/wasnorm_wordpool_less_exclusions.txt	LTP179	ltpFR	0	7	1	LIZARD	834	n/a	n/a	1	n/a	n/a	n/a	n/a	n/a
1852712	REC_WORD	wordpools/wasnorm_wordpool_less_exclusions.txt	LTP179	ltpFR	0	7	1	RABBIT	1152	n/a	n/a	1	n/a	n/a	n/a	n/a	n/a
1854722	REC_WORD	wordpools/wasnorm_wordpool_less_exclusions.txt	LTP179	ltpFR	0	7	1	FUR	615	n/a	n/a	0	n/a	n/a	n/a	n/a	n/a
1857087	REC_WORD	wordpools/wasnorm_wordpool_less_exclusions.txt	LTP179	ltpFR	0	7	1	EMPIRE	530	n/a	n/a	0	n/a	n/a	n/a	n/a	n/a
1860933	REC_WORD	wordpools/wasnorm_wordpool_less_exclusions.txt	LTP179	ltpFR	0	7	1	VEIN	1554	n/a	n/a	1	n/a	n/a	n/a	n/a	n/a
1876962	REC_WORD	wordpools/wasnorm_wordpool_less_exclusions.txt	LTP179	ltpFR	0	7	1	FUR	615	n/a	n/a	0	n/a	n/a	n/a	n/a	n/a
1882704	REC_WORD	wordpools/wasnorm_wordpool_less_exclusions.txt	LTP179	ltpFR	0	7	1	ARM	38	n/a	n/a	1	n/a	n/a	n/a	n/a	n/a
1900882	REC_WORD	wordpools/wasnorm_wordpool_less_exclusions.txt	LTP179	ltpFR	0	7	1	WILDERNESS	1610	n/a	n/a	1	n/a	n/a	n/a	n/a	n/a
1918323	REC_WORD	wordpools/wasnorm_wordpool_less_exclusions.txt	LTP179	ltpFR	0	7	1	MOAT	903	n/a	n/a	0	n/a	n/a	n/a	n/a	n/a
1926970	WORD	wordpools/wasnorm_wordpool_less_exclusions.txt	LTP179	ltpFR	0	8	1	FAMILY	550	n/a	n/a	1	0.57763671875	0.412841796875	1	upper	amplitud.ttf
1931110	WORD	wordpools/wasnorm_wordpool_less_exclusions.txt	LTP179	ltpFR	0	8	1	NEPHEW	942	n/a	n/a	1	0.57763671875	0.412841796875	1	upper	amplitud.ttf
1935200	WORD	wordpools/wasnorm_wordpool_less_exclusions.txt	LTP179	ltpFR	0	8	1	SPAGHETTI	1346	n/a	n/a	0	0.57763671875	0.412841796875	1	upper	amplitud.ttf
1939074	WORD	wordpools/wasnorm_wordpool_less_exclusions.txt	LTP179	ltpFR	0	8	1	BINDER	127	n/a	n/a	0	0.57763671875	0.412841796875	1	upper	amplitud.ttf
1943188	WORD	wordpools/wasnorm_wordpool_less_exclusions.txt	LTP179	ltpFR	0	8	1	BANNER	85	n/a	n/a	0	0.57763671875	0.412841796875	1	upper	amplitud.ttf
1947288	WORD	wordpools/wasnorm_wordpool_less_exclusions.txt	LTP179	ltpFR	0	8	1	COOLER	375	n/a	n/a	0	0.57763671875	0.412841796875	1	upper	amplitud.ttf
1951211	WORD	wordpools/wasnorm_wordpool_less_exclusions.txt	LTP179	ltpFR	0	8	1	PAGE	1001	n/a	n/a	0	0.57763671875	0.412841796875	1	upper	amplitud.ttf
1955093	WORD	wordpools/wasnorm_wordpool_less_exclusions.txt	LTP179	ltpFR	0	8	1	TROPHY	1509	n/a	n/a	0	0.57763671875	0.412841796875	1	upper	amplitud.ttf
1959267	WORD	wordpools/wasnorm_wordpool_less_exclusions.txt	LTP179	ltpFR	0	8	1	CAP	236	n/a	n/a	0	0.57763671875	0.412841796875	1	upper	amplitud.ttf
1963407	WORD	wordpools/wasnorm_wordpool_less_exclusions.txt	LTP179	ltpFR	0	8	1	CACTUS	215	n/a	n/a	1	0.57763671875	0.412841796875	1	upper	amplitud.ttf
1967489	WORD	wordpools/wasnorm_wordpool_less_exclusions.txt	LTP179	ltpFR	0	8	1	CHALK	276	n/a	n/a	0	0.57763671875	0.412841796875	1	upper	amplitud.ttf
1971646	WORD	wordpools/wasnorm_wordpool_less_exclusions.txt	LTP179	ltpFR	0	8	1	BULLETIN	195	n/a	n/a	0	0.57763671875	0.412841796875	1	upper	amplitud.ttf
1975586	WORD	wordpools/wasnorm_wordpool_less_exclusions.txt	LTP179	ltpFR	0	8	1	GALAXY	617	n/a	n/a	1	0.57763671875	0.412841796875	1	upper	amplitud.ttf
1979768	WORD	wordpools/wasnorm_wordpool_less_exclusions.txt	LTP179	ltpFR	0	8	1	CREAM	402	n/a	n/a	0	0.57763671875	0.412841796875	1	upper	amplitud.ttf
1983975	WORD	wordpools/wasnorm_wordpool_less_exclusions.txt	LTP179	ltpFR	0	8	1	COYOTE	396	n/a	n/a	1	0.57763671875	0.412841796875	1	upper	amplitud.ttf
1988123	WORD	wordpools/wasnorm_wordpool_less_exclusions.txt	LTP179	ltpFR	0	8	1	BOXER	160	n/a	n/a	1	0.57763671875	0.412841796875	1	upper	amplitud.ttf
1993839	REC_START	n/a	LTP179	ltpFR	0	8	n/a	n/a	n/a	n/a	n/a	n/a	n/a	n/a	n/a	n/a	n/a
1996248	REC_WORD	wordpools/wasnorm_wordpool_less_exclusions.txt	LTP179	ltpFR	0	8	1	GALAXY	617	n/a	n/a	1	n/a	n/a	n/a	n/a	n/a
1998294	REC_WORD	wordpools/wasnorm_wordpool_less_exclusions.txt	LTP179	ltpFR	0	8	1	BOXER	160	n/a	n/a	1	n/a	n/a	n/a	n/a	n/a
2000823	REC_WORD	wordpools/wasnorm_wordpool_less_exclusions.txt	LTP179	ltpFR	0	8	1	COYOTE	396	n/a	n/a	1	n/a	n/a	n/a	n/a	n/a
2003407	REC_WORD	wordpools/wasnorm_wordpool_less_exclusions.txt	LTP179	ltpFR	0	8	1	NEPHEW	942	n/a	n/a	1	n/a	n/a	n/a	n/a	n/a
2005592	REC_WORD	wordpools/wasnorm_wordpool_less_exclusions.txt	LTP179	ltpFR	0	8	1	FAMILY	550	n/a	n/a	1	n/a	n/a	n/a	n/a	n/a
2007987	REC_WORD	wordpools/wasnorm_wordpool_less_exclusions.txt	LTP179	ltpFR	0	8	1	TROPHY	1509	n/a	n/a	0	n/a	n/a	n/a	n/a	n/a
2011823	REC_WORD	wordpools/wasnorm_wordpool_less_exclusions.txt	LTP179	ltpFR	0	8	1	BINDER	127	n/a	n/a	0	n/a	n/a	n/a	n/a	n/a
2013828	REC_WORD	wordpools/wasnorm_wordpool_less_exclusions.txt	LTP179	ltpFR	0	8	1	PAGE	1001	n/a	n/a	0	n/a	n/a	n/a	n/a	n/a
2076067	WORD	wordpools/wasnorm_wordpool_less_exclusions.txt	LTP179	ltpFR	0	9	0	VOLLEYBALL	1576	n/a	n/a	2	0.422607421875	0.5869140625	0	lower	zerothre.ttf
2078008	KEY_MSG	n/a	LTP179	ltpFR	0	9	n/a	n/a	n/a	n/a	n/a	n/a	n/a	n/a	n/a	n/a	n/a
2080374	WORD	wordpools/wasnorm_wordpool_less_exclusions.txt	LTP179	ltpFR	0	9	0	ANTENNA	28	n/a	n/a	2	0.422607421875	0.5869140625	0	lower	zerothre.ttf
2082465	KEY_MSG	n/a	LTP179	ltpFR	0	9	n/a	n/a	n/a	n/a	n/a	n/a	n/a	n/a	n/a	n/a	n/a
2084964	WORD	wordpools/wasnorm_wordpool_less_exclusions.txt	LTP179	ltpFR	0	9	0	STAMP	1370	n/a	n/a	0	0.422607421875	0.5869140625	0	lower	zerothre.ttf
2088879	WORD	wordpools/wasnorm_wordpool_less_exclusions.txt	LTP179	ltpFR	0	9	0	VASE	1549	n/a	n/a	0	0.422607421875	0.5869140625	0	lower	zerothre.ttf
2092794	WORD	wordpools/wasnorm_wordpool_less_exclusions.txt	LTP179	ltpFR	0	9	0	ORCHID	982	n/a	n/a	0	0.422607421875	0.5869140625	0	lower	zerothre.ttf
2096718	WORD	wordpools/wasnorm_wordpool_less_exclusions.txt	LTP179	ltpFR	0	9	0	CABLE	213	n/a	n/a	1	0.422607421875	0.5869140625	0	lower	zerothre.ttf
2100683	WORD	wordpools/wasnorm_wordpool_less_exclusions.txt	LTP179	ltpFR	0	9	0	THRONE	1461	n/a	n/a	1	0.422607421875	0.5869140625	0	lower	zerothre.ttf
2104507	WORD	wordpools/wasnorm_wordpool_less_exclusions.txt	LTP179	ltpFR	0	9	0	DICTIONARY	463	n/a	n/a	1	0.422607421875	0.5869140625	0	lower	zerothre.ttf
2108389	WORD	wordpools/wasnorm_wordpool_less_exclusions.txt	LTP179	ltpFR	0	9	0	BARREL	91	n/a	n/a	1	0.422607421875	0.5869140625	0	lower	zerothre.ttf
2112571	WORD	wordpools/wasnorm_wordpool_less_exclusions.txt	LTP179	ltpFR	0	9	0	FLASK	576	n/a	n/a	0	0.422607421875	0.5869140625	0	lower	zerothre.ttf
2116744	WORD	wordpools/wasnorm_wordpool_less_exclusions.txt	LTP179	ltpFR	0	9	0	PAD	998	n/a	n/a	0	0.422607421875	0.5869140625	0	lower	zerothre.ttf
2120910	WORD	wordpools/wasnorm_wordpool_less_exclusions.txt	LTP179	ltpFR	0	9	0	DESIGNER	451	n/a	n/a	1	0.422607421875	0.5869140625	0	lower	zerothre.ttf
2124866	WORD	wordpools/wasnorm_wordpool_less_exclusions.txt	LTP179	ltpFR	0	9	0	BUREAU	199	n/a	n/a	1	0.422607421875	0.5869140625	0	lower	zerothre.ttf
2128823	WORD	wordpools/wasnorm_wordpool_less_exclusions.txt	LTP179	ltpFR	0	9	0	CASHEW	253	n/a	n/a	0	0.422607421875	0.5869140625	0	lower	zerothre.ttf
2133022	WORD	wordpools/wasnorm_wordpool_less_exclusions.txt	LTP179	ltpFR	0	9	0	HELMET	702	n/a	n/a	1	0.422607421875	0.5869140625	0	lower	zerothre.ttf
2136995	WORD	wordpools/wasnorm_wordpool_less_exclusions.txt	LTP179	ltpFR	0	9	0	NOTE	958	n/a	n/a	0	0.422607421875	0.5869140625	0	lower	zerothre.ttf
2143019	REC_START	n/a	LTP179	ltpFR	0	9	n/a	n/a	n/a	n/a	n/a	n/a	n/a	n/a	n/a	n/a	n/a
2145987	REC_WORD	wordpools/wasnorm_wordpool_less_exclusions.txt	LTP179	ltpFR	0	9	0	BUREAU	199	n/a	n/a	1	n/a	n/a	n/a	n/a	n/a
2148187	REC_WORD	wordpools/wasnorm_wordpool_less_exclusions.txt	LTP179	ltpFR	0	9	0	DICTIONARY	463	n/a	n/a	1	n/a	n/a	n/a	n/a	n/a
2155271	REC_WORD	wordpools/wasnorm_wordpool_less_exclusions.txt	LTP179	ltpFR	0	9	0	FLASK	576	n/a	n/a	0	n/a	n/a	n/a	n/a	n/a
2167583	REC_WORD	wordpools/wasnorm_wordpool_less_exclusions.txt	LTP179	ltpFR	0	9	0	DESIGNER	451	n/a	n/a	1	n/a	n/a	n/a	n/a	n/a
2174143	REC_WORD	wordpools/wasnorm_wordpool_less_exclusions.txt	LTP179	ltpFR	0	9	0	BARREL	91	n/a	n/a	1	n/a	n/a	n/a	n/a	n/a
2186420	REC_WORD	wordpools/wasnorm_wordpool_less_exclusions.txt	LTP179	ltpFR	0	9	0	STAMP	1370	n/a	n/a	0	n/a	n/a	n/a	n/a	n/a
2227146	WORD	wordpools/wasnorm_wordpool_less_exclusions.txt	LTP179	ltpFR	0	10	0	TOAD	1470	n/a	n/a	0	0.422607421875	0.5869140625	0	lower	zerothre.ttf
2231262	WORD	wordpools/wasnorm_wordpool_less_exclusions.txt	LTP179	ltpFR	0	10	0	HERB	704	n/a	n/a	0	0.422607421875	0.5869140625	0	lower	zerothre.ttf
2235143	WORD	wordpools/wasnorm_wordpool_less_exclusions.txt	LTP179	ltpFR	0	10	0	KEG	770	n/a	n/a	1	0.422607421875	0.5869140625	0	lower	zerothre.ttf
2239084	WORD	wordpools/wasnorm_wordpool_less_exclusions.txt	LTP179	ltpFR	0	10	0	TAVERN	1437	n/a	n/a	1	0.422607421875	0.5869140625	0	lower	zerothre.ttf
2243091	WORD	wordpools/wasnorm_wordpool_less_exclusions.txt	LTP179	ltpFR	0	10	0	SCREEN	1253	n/a	n/a	1	0.422607421875	0.5869140625	0	lower	zerothre.ttf
2247298	WORD	wordpools/wasnorm_wordpool_less_exclusions.txt	LTP179	ltpFR	0	10	0	CABBAGE	210	n/a	n/a	0	0.422607421875	0.5869140625	0	lower	zerothre.ttf
2251405	WORD	wordpools/wasnorm_wordpool_less_exclusions.txt	LTP179	ltpFR	0	10	0	CORN	381	n/a	n/a	0	0.422607421875	0.5869140625	0	lower	zerothre.ttf
2255270	WORD	wordpools/wasnorm_wordpool_less_exclusions.txt	LTP179	ltpFR	0	10	0	CAN	225	n/a	n/a	0	0.422607421875	0.5869140625	0	lower	zerothre.ttf
2259269	WORD	wordpools/wasnorm_wordpool_less_exclusions.txt	LTP179	ltpFR	0	10	0	DUMP	505	n/a	n/a	1	0.422607421875	0.5869140625	0	lower	zerothre.ttf
2263326	WORD	wordpools/wasnorm_wordpool_less_exclusions.txt	LTP179	ltpFR	0	10	0	PEDAL	1037	n/a	n/a	0	0.422607421875	0.5869140625	0	lower	zerothre.ttf
2267249	WORD	wordpools/wasnorm_wordpool_less_exclusions.txt	LTP179	ltpFR	0	10	0	KANGAROO	768	n/a	n/a	1	0.422607421875	0.5869140625	0	lower	zerothre.ttf
2271323	WORD	wordpools/wasnorm_wordpool_less_exclusions.txt	LTP179	ltpFR	0	10	0	CELERY	266	n/a	n/a	0	0.422607421875	0.5869140625	0	lower	zerothre.ttf
2275363	WORD	wordpools/wasnorm_wordpool_less_exclusions.txt	LTP179	ltpFR	0	10	0	RAIL	1161	n/a	n/a	1	0.422607421875	0.5869140625	0	lower	zerothre.ttf
2279228	WORD	wordpools/wasnorm_wordpool_less_exclusions.txt	LTP179	ltpFR	0	10	0	SUGAR	1401	n/a	n/a	0	0.422607421875	0.5869140625	0	lower	zerothre.ttf
2283235	WORD	wordpools/wasnorm_wordpool_less_exclusions.txt	LTP179	ltpFR	0	10	0	VIDEO	1564	n/a	n/a	0	0.422607421875	0.5869140625	0	lower	zerothre.ttf
2287417	WORD	wordpools/wasnorm_wordpool_less_exclusions.txt	LTP179	ltpFR	0	10	0	PASTRY	1022	n/a	n/a	0	0.422607421875	0.5869140625	0	lower	zerothre.ttf
2293207	REC_START	n/a	LTP179	ltpFR	0	10	n/a	n/a	n/a	n/a	n/a	n/a	n/a	n/a	n/a	n/a	n/a
2295581	REC_WORD	wordpools/wasnorm_wordpool_less_exclusions.txt	LTP179	ltpFR	0	10	0	PASTRY	1022	n/a	n/a	0	n/a	n/a	n/a	n/a	n/a
2297936	REC_WORD	wordpools/wasnorm_wordpool_less_exclusions.txt	LTP179	ltpFR	0	10	0	RAIL	1161	n/a	n/a	1	n/a	n/a	n/a	n/a	n/a
2302560	REC_WORD	wordpools/wasnorm_wordpool_less_exclusions.txt	LTP179	ltpFR	0	10	0	CELERY	266	n/a	n/a	0	n/a	n/a	n/a	n/a	n/a
2305908	REC_WORD	wordpools/wasnorm_wordpool_less_exclusions.txt	LTP179	ltpFR	0	10	0	KANGAROO	768	n/a	n/a	1	n/a	n/a	n/a	n/a	n/a
2308382	REC_WORD	wordpools/wasnorm_wordpool_less_exclusions.txt	LTP179	ltpFR	0	10	0	CAN	225	n/a	n/a	0	n/a	n/a	n/a	n/a	n/a
2343822	REC_WORD	wordpools/wasnorm_wordpool_less_exclusions.txt	LTP179	ltpFR	0	10	0	VIDEO	1564	n/a	n/a	0	n/a	n/a	n/a	n/a	n/a
2376135	WORD	wordpools/wasnorm_wordpool_less_exclusions.txt	LTP179	ltpFR	0	11	0	STAPLER	1372	n/a	n/a	0	0.422607421875	0.5869140625	0	lower	zerothre.ttf
2380218	WORD	wordpools/wasnorm_wordpool_less_exclusions.txt	LTP179	ltpFR	0	11	0	CLIFF	322	n/a	n/a	1	0.422607421875	0.5869140625	0	lower	zerothre.ttf
2384225	WORD	wordpools/wasnorm_wordpool_less_exclusions.txt	LTP179	ltpFR	0	11	0	BALCONY	72	n/a	n/a	1	0.422607421875	0.5869140625	0	lower	zerothre.ttf
2388331	WORD	wordpools/wasnorm_wordpool_less_exclusions.txt	LTP179	ltpFR	0	11	0	TERMITE	1451	n/a	n/a	0	0.422607421875	0.5869140625	0	lower	zerothre.ttf
2392205	WORD	wordpools/wasnorm_wordpool_less_exclusions.txt	LTP179	ltpFR	0	11	0	DRAGON	492	n/a	n/a	1	0.422607421875	0.5869140625	0	lower	zerothre.ttf
2396362	WORD	wordpools/wasnorm_wordpool_less_exclusions.txt	LTP179	ltpFR	0	11	0	JOKER	759	n/a	n/a	1	0.422607421875	0.5869140625	0	lower	zerothre.ttf
2400452	WORD	wordpools/wasnorm_wordpool_less_exclusions.txt	LTP179	ltpFR	0	11	0	SCREW	1254	n/a	n/a	0	0.422607421875	0.5869140625	0	lower	zerothre.ttf
2404584	WORD	wordpools/wasnorm_wordpool_less_exclusions.txt	LTP179	ltpFR	0	11	0	PLIERS	1089	n/a	n/a	0	0.422607421875	0.5869140625	0	lower	zerothre.ttf
2408583	WORD	wordpools/wasnorm_wordpool_less_exclusions.txt	LTP179	ltpFR	0	11	0	UMBRELLA	1534	n/a	n/a	1	0.422607421875	0.5869140625	0	lower	zerothre.ttf
2412556	WORD	wordpools/wasnorm_wordpool_less_exclusions.txt	LTP179	ltpFR	0	11	0	KITE	779	n/a	n/a	1	0.422607421875	0.5869140625	0	lower	zerothre.ttf
2416488	WORD	wordpools/wasnorm_wordpool_less_exclusions.txt	LTP179	ltpFR	0	11	0	STAPLE	1371	n/a	n/a	0	0.422607421875	0.5869140625	0	lower	zerothre.ttf
2420445	WORD	wordpools/wasnorm_wordpool_less_exclusions.txt	LTP179	ltpFR	0	11	0	RAKE	1164	n/a	n/a	1	0.422607421875	0.5869140625	0	lower	zerothre.ttf
2424569	WORD	wordpools/wasnorm_wordpool_less_exclusions.txt	LTP179	ltpFR	0	11	0	BOUILLON	154	n/a	n/a	0	0.422607421875	0.5869140625	0	lower	zerothre.ttf
2428434	WORD	wordpools/wasnorm_wordpool_less_exclusions.txt	LTP179	ltpFR	0	11	0	JET	756	n/a	n/a	1	0.422607421875	0.5869140625	0	lower	zerothre.ttf
2432491	WORD	wordpools/wasnorm_wordpool_less_exclusions.txt	LTP179	ltpFR	0	11	0	PAVEMENT	1028	n/a	n/a	1	0.422607421875	0.5869140625	0	lower	zerothre.ttf
2436331	WORD	wordpools/wasnorm_wordpool_less_exclusions.txt	LTP179	ltpFR	0	11	0	SEAGULL	1261	n/a	n/a	1	0.422607421875	0.5869140625	0	lower	zerothre.ttf
2442413	REC_START	n/a	LTP179	ltpFR	0	11	n/a	n/a	n/a	n/a	n/a	n/a	n/a	n/a	n/a	n/a	n/a
2444193	REC_WORD	wordpools/wasnorm_wordpool_less_exclusions.txt	LTP179	ltpFR	0	11	0	STAPLE	1371	n/a	n/a	0	n/a	n/a	n/a	n/a	n/a
2446134	REC_WORD	wordpools/wasnorm_wordpool_less_exclusions.txt	LTP179	ltpFR	0	11	0	STAPLER	1372	n/a	n/a	0	n/a	n/a	n/a	n/a	n/a
2448614	REC_WORD	wordpools/wasnorm_wordpool_less_exclusions.txt	LTP179	ltpFR	0	11	0	BALCONY	72	n/a	n/a	1	n/a	n/a	n/a	n/a	n/a
2451083	REC_WORD	wordpools/wasnorm_wordpool_less_exclusions.txt	LTP179	ltpFR	0	11	0	CLIFF	322	n/a	n/a	1	n/a	n/a	n/a	n/a	n/a
2453896	REC_WORD	wordpools/wasnorm_wordpool_less_exclusions.txt	LTP179	ltpFR	0	11	0	SEAGULL	1261	n/a	n/a	1	n/a	n/a	n/a	n/a	n/a
2457224	REC_WORD	wordpools/wasnorm_wordpool_less_exclusions.txt	LTP179	ltpFR	0	11	0	RAKE	1164	n/a	n/a	1	n/a	n/a	n/a	n/a	n/a
2460531	REC_WORD	wordpools/wasnorm_wordpool_less_exclusions.txt	LTP179	ltpFR	0	11	0	PLIERS	1089	n/a	n/a	0	n/a	n/a	n/a	n/a	n/a
2467421	REC_WORD	wordpools/wasnorm_wordpool_less_exclusions.txt	LTP179	ltpFR	0	11	0	PAVEMENT	1028	n/a	n/a	1	n/a	n/a	n/a	n/a	n/a
2482048	REC_WORD	wordpools/wasnorm_wordpool_less_exclusions.txt	LTP179	ltpFR	0	11	0	UMBRELLA	1534	n/a	n/a	1	n/a	n/a	n/a	n/a	n/a
2509610	REC_WORD	wordpools/wasnorm_wordpool_less_exclusions.txt	LTP179	ltpFR	0	11	0	TERMITE	1451	n/a	n/a	0	n/a	n/a	n/a	n/a	n/a
2523392	WORD	wordpools/wasnorm_wordpool_less_exclusions.txt	LTP179	ltpFR	0	12	0	TICKET	1464	n/a	n/a	0	0.422607421875	0.5869140625	0	lower	zerothre.ttf
2527599	WORD	wordpools/wasnorm_wordpool_less_exclusions.txt	LTP179	ltpFR	0	12	0	FILM	565	n/a	n/a	0	0.422607421875	0.5869140625	0	lower	zerothre.ttf
2531514	WORD	wordpools/wasnorm_wordpool_less_exclusions.txt	LTP179	ltpFR	0	12	0	POCKETBOOK	1094	n/a	n/a	1	0.422607421875	0.5869140625	0	lower	zerothre.ttf
2535688	WORD	wordpools/wasnorm_wordpool_less_exclusions.txt	LTP179	ltpFR	0	12	0	MANAGER	863	n/a	n/a	1	0.422607421875	0.5869140625	0	lower	zerothre.ttf
2539545	WORD	wordpools/wasnorm_wordpool_less_exclusions.txt	LTP179	ltpFR	0	12	0	COTTAGE	384	n/a	n/a	1	0.422607421875	0.5869140625	0	lower	zerothre.ttf
2543660	WORD	wordpools/wasnorm_wordpool_less_exclusions.txt	LTP179	ltpFR	0	12	0	BRACELET	163	n/a	n/a	0	0.422607421875	0.5869140625	0	lower	zerothre.ttf
2547525	WORD	wordpools/wasnorm_wordpool_less_exclusions.txt	LTP179	ltpFR	0	12	0	HAYSTACK	694	n/a	n/a	1	0.422607421875	0.5869140625	0	lower	zerothre.ttf
2551557	WORD	wordpools/wasnorm_wordpool_less_exclusions.txt	LTP179	ltpFR	0	12	0	SPOOL	1356	n/a	n/a	0	0.422607421875	0.5869140625	0	lower	zerothre.ttf
2555422	WORD	wordpools/wasnorm_wordpool_less_exclusions.txt	LTP179	ltpFR	0	12	0	CELLAR	267	n/a	n/a	1	0.422607421875	0.5869140625	0	lower	zerothre.ttf
2559529	WORD	wordpools/wasnorm_wordpool_less_exclusions.txt	LTP179	ltpFR	0	12	0	TIDE	1465	n/a	n/a	1	0.422607421875	0.5869140625	0	lower	zerothre.ttf
2563369	WORD	wordpools/wasnorm_wordpool_less_exclusions.txt	LTP179	ltpFR	0	12	0	BUN	197	n/a	n/a	0	0.422607421875	0.5869140625	0	lower	zerothre.ttf
2567385	WORD	wordpools/wasnorm_wordpool_less_exclusions.txt	LTP179	ltpFR	0	12	0	CAFETERIA	217	n/a	n/a	1	0.422607421875	0.5869140625	0	lower	zerothre.ttf
2571208	WORD	wordpools/wasnorm_wordpool_less_exclusions.txt	LTP179	ltpFR	0	12	0	PORCH	1106	n/a	n/a	1	0.422607421875	0.5869140625	0	lower	zerothre.ttf
2575340	WORD	wordpools/wasnorm_wordpool_less_exclusions.txt	LTP179	ltpFR	0	12	0	BROOM	178	n/a	n/a	0	0.422607421875	0.5869140625	0	lower	zerothre.ttf
2579222	WORD	wordpools/wasnorm_wordpool_less_exclusions.txt	LTP179	ltpFR	0	12	0	SUPERVISOR	1410	n/a	n/a	1	0.422607421875	0.5869140625	0	lower	zerothre.ttf
2583337	WORD	wordpools/wasnorm_wordpool_less_exclusions.txt	LTP179	ltpFR	0	12	0	CORPORATION	382	n/a	n/a	1	0.422607421875	0.5869140625	0	lower	zerothre.ttf
2588994	REC_START	n/a	LTP179	ltpFR	0	12	n/a	n/a	n/a	n/a	n/a	n/a	n/a	n/a	n/a	n/a	n/a
2590984	REC_WORD	wordpools/wasnorm_wordpool_less_exclusions.txt	LTP179	ltpFR	0	12	0	BROOM	178	n/a	n/a	0	n/a	n/a	n/a	n/a	n/a
2593189	REC_WORD	wordpools/wasnorm_wordpool_less_exclusions.txt	LTP179	ltpFR	0	12	0	CORPORATION	382	n/a	n/a	1	n/a	n/a	n/a	n/a	n/a
2595434	REC_WORD	wordpools/wasnorm_wordpool_less_exclusions.txt	LTP179	ltpFR	0	12	0	MANAGER	863	n/a	n/a	1	n/a	n/a	n/a	n/a	n/a
2597325	REC_WORD	wordpools/wasnorm_wordpool_less_exclusions.txt	LTP179	ltpFR	0	12	0	SUPERVISOR	1410	n/a	n/a	1	n/a	n/a	n/a	n/a	n/a
2599784	REC_WORD	wordpools/wasnorm_wordpool_less_exclusions.txt	LTP179	ltpFR	0	12	0	TICKET	1464	n/a	n/a	0	n/a	n/a	n/a	n/a	n/a
2601420	REC_WORD	wordpools/wasnorm_wordpool_less_exclusions.txt	LTP179	ltpFR	0	12	0	FILM	565	n/a	n/a	0	n/a	n/a	n/a	n/a	n/a
2605032	REC_WORD	wordpools/wasnorm_wordpool_less_exclusions.txt	LTP179	ltpFR	0	12	0	BUN	197	n/a	n/a	0	n/a	n/a	n/a	n/a	n/a
2608938	REC_WORD	wordpools/wasnorm_wordpool_less_exclusions.txt	LTP179	ltpFR	0	12	0	CAFETERIA	217	n/a	n/a	1	n/a	n/a	n/a	n/a	n/a
2609938	REC_WORD_VV	wordpools/wasnorm_wordpool_less_exclusions.txt	LTP179	ltpFR	0	12	n/a	<>	-1	n/a	n/a	n/a	n/a	n/a	n/a	n/a	n/a
2610754	REC_WORD	wordpools/wasnorm_wordpool_less_exclusions.txt	LTP179	ltpFR	0	12	0	CELLAR	267	n/a	n/a	1	n/a	n/a	n/a	n/a	n/a
2612555	REC_WORD	wordpools/wasnorm_wordpool_less_exclusions.txt	LTP179	ltpFR	0	12	0	PORCH	1106	n/a	n/a	1	n/a	n/a	n/a	n/a	n/a
2664600	REST_REWET	n/a	LTP179	ltpFR	0	12	n/a	n/a	n/a	n/a	n/a	n/a	n/a	n/a	n/a	n/a	n/a
3047731	WORD	wordpools/wasnorm_wordpool_less_exclusions.txt	LTP179	ltpFR	0	13	0	WHALE	1601	n/a	n/a	1	0.422607421875	0.5869140625	0	lower	zerothre.ttf
3051846	WORD	wordpools/wasnorm_wordpool_less_exclusions.txt	LTP179	ltpFR	0	13	0	NECKLACE	940	n/a	n/a	n/a	0.422607421875	0.5869140625	0	lower	zerothre.ttf
3054870	SLOW_MSG	n/a	LTP179	ltpFR	0	13	n/a	n/a	n/a	n/a	n/a	n/a	n/a	n/a	n/a	n/a	n/a
3057236	WORD	wordpools/wasnorm_wordpool_less_exclusions.txt	LTP179	ltpFR	0	13	1	PURSE	1145	n/a	n/a	0	0.57763671875	0.412841796875	1	upper	amplitud.ttf
3061335	WORD	wordpools/wasnorm_wordpool_less_exclusions.txt	LTP179	ltpFR	0	13	1	CABIN	211	n/a	n/a	0	0.57763671875	0.412841796875	1	upper	amplitud.ttf
3065208	WORD	wordpools/wasnorm_wordpool_less_exclusions.txt	LTP179	ltpFR	0	13	1	BRICK	172	n/a	n/a	0	0.57763671875	0.412841796875	1	upper	amplitud.ttf
3069139	WORD	wordpools/wasnorm_wordpool_less_exclusions.txt	LTP179	ltpFR	0	13	1	MINER	896	n/a	n/a	1	0.57763671875	0.412841796875	1	upper	amplitud.ttf
3073297	WORD	wordpools/wasnorm_wordpool_less_exclusions.txt	LTP179	ltpFR	0	13	0	SISTER	1312	n/a	n/a	1	0.422607421875	0.5869140625	0	lower	zerothre.ttf
3077161	WORD	wordpools/wasnorm_wordpool_less_exclusions.txt	LTP179	ltpFR	0	13	0	TOILET	1475	n/a	n/a	1	0.422607421875	0.5869140625	0	lower	zerothre.ttf
3081311	WORD	wordpools/wasnorm_wordpool_less_exclusions.txt	LTP179	ltpFR	0	13	0	VET	1560	n/a	n/a	1	0.422607421875	0.5869140625	0	lower	zerothre.ttf
3085326	WORD	wordpools/wasnorm_wordpool_less_exclusions.txt	LTP179	ltpFR	0	13	0	PLANT	1083	n/a	n/a	1	0.422607421875	0.5869140625	0	lower	zerothre.ttf
3089375	WORD	wordpools/wasnorm_wordpool_less_exclusions.txt	LTP179	ltpFR	0	13	1	CUPBOARD	425	n/a	n/a	0	0.57763671875	0.412841796875	1	upper	amplitud.ttf
3093348	WORD	wordpools/wasnorm_wordpool_less_exclusions.txt	LTP179	ltpFR	0	13	1	SPOON	1357	n/a	n/a	0	0.57763671875	0.412841796875	1	upper	amplitud.ttf
3097171	WORD	wordpools/wasnorm_wordpool_less_exclusions.txt	LTP179	ltpFR	0	13	1	OCTOPUS	971	n/a	n/a	1	0.57763671875	0.412841796875	1	upper	amplitud.ttf
3101221	WORD	wordpools/wasnorm_wordpool_less_exclusions.txt	LTP179	ltpFR	0	13	1	BARRACUDA	90	n/a	n/a	1	0.57763671875	0.412841796875	1	upper	amplitud.ttf
3105377	WORD	wordpools/wasnorm_wordpool_less_exclusions.txt	LTP179	ltpFR	0	13	0	LUNCH	849	n/a	n/a	1	0.422607421875	0.5869140625	0	lower	zerothre.ttf
3109576	WORD	wordpools/wasnorm_wordpool_less_exclusions.txt	LTP179	ltpFR	0	13	0	BROTHER	179	n/a	n/a	n/a	0.422607421875	0.5869140625	0	lower	zerothre.ttf
3112600	SLOW_MSG	n/a	LTP179	ltpFR	0	13	n/a	n/a	n/a	n/a	n/a	n/a	n/a	n/a	n/a	n/a	n/a
3116857	REC_START	n/a	LTP179	ltpFR	0	13	n/a	n/a	n/a	n/a	n/a	n/a	n/a	n/a	n/a	n/a	n/a
3121531	REC_WORD_VV	wordpools/wasnorm_wordpool_less_exclusions.txt	LTP179	ltpFR	0	13	n/a	<>	-1	n/a	n/a	n/a	n/a	n/a	n/a	n/a	n/a
3122531	REC_WORD_VV	wordpools/wasnorm_wordpool_less_exclusions.txt	LTP179	ltpFR	0	13	n/a	<>	-1	n/a	n/a	n/a	n/a	n/a	n/a	n/a	n/a
3124400	REC_WORD	wordpools/wasnorm_wordpool_less_exclusions.txt	LTP179	ltpFR	0	13	1	BARRACUDA	90	n/a	n/a	1	n/a	n/a	n/a	n/a	n/a
3127273	REC_WORD	wordpools/wasnorm_wordpool_less_exclusions.txt	LTP179	ltpFR	0	13	0	SISTER	1312	n/a	n/a	1	n/a	n/a	n/a	n/a	n/a
3131119	REC_WORD	wordpools/wasnorm_wordpool_less_exclusions.txt	LTP179	ltpFR	0	13	0	LUNCH	849	n/a	n/a	1	n/a	n/a	n/a	n/a	n/a
3141286	REC_WORD	wordpools/wasnorm_wordpool_less_exclusions.txt	LTP179	ltpFR	0	13	0	VET	1560	n/a	n/a	1	n/a	n/a	n/a	n/a	n/a
3150869	REC_WORD	wordpools/wasnorm_wordpool_less_exclusions.txt	LTP179	ltpFR	0	13	0	WHALE	1601	n/a	n/a	1	n/a	n/a	n/a	n/a	n/a
3162378	REC_WORD	wordpools/wasnorm_wordpool_less_exclusions.txt	LTP179	ltpFR	0	13	0	LUNCH	849	n/a	n/a	1	n/a	n/a	n/a	n/a	n/a
3199961	WORD	wordpools/wasnorm_wordpool_less_exclusions.txt	LTP179	ltpFR	0	14	1	DOUGH	489	n/a	n/a	1	0.57763671875	0.412841796875	1	upper	amplitud.ttf
3203959	WORD	wordpools/wasnorm_wordpool_less_exclusions.txt	LTP179	ltpFR	0	14	1	LAMB	797	n/a	n/a	1	0.57763671875	0.412841796875	1	upper	amplitud.ttf
3207899	WORD	wordpools/wasnorm_wordpool_less_exclusions.txt	LTP179	ltpFR	0	14	1	SHEEP	1278	n/a	n/a	1	0.57763671875	0.412841796875	1	upper	amplitud.ttf
3212048	WORD	wordpools/wasnorm_wordpool_less_exclusions.txt	LTP179	ltpFR	0	14	1	CREATURE	403	n/a	n/a	1	0.57763671875	0.412841796875	1	upper	amplitud.ttf
3216171	WORD	wordpools/wasnorm_wordpool_less_exclusions.txt	LTP179	ltpFR	0	14	1	MINK	897	n/a	n/a	1	0.57763671875	0.412841796875	1	upper	amplitud.ttf
3220136	WORD	wordpools/wasnorm_wordpool_less_exclusions.txt	LTP179	ltpFR	0	14	0	COLLEGE	346	n/a	n/a	1	0.422607421875	0.5869140625	0	lower	zerothre.ttf
3224127	WORD	wordpools/wasnorm_wordpool_less_exclusions.txt	LTP179	ltpFR	0	14	0	MARBLE	867	n/a	n/a	1	0.422607421875	0.5869140625	0	lower	zerothre.ttf
3228092	WORD	wordpools/wasnorm_wordpool_less_exclusions.txt	LTP179	ltpFR	0	14	0	OUTFIT	988	n/a	n/a	1	0.422607421875	0.5869140625	0	lower	zerothre.ttf
3232249	WORD	wordpools/wasnorm_wordpool_less_exclusions.txt	LTP179	ltpFR	0	14	0	LINEN	825	n/a	n/a	1	0.422607421875	0.5869140625	0	lower	zerothre.ttf
3236439	WORD	wordpools/wasnorm_wordpool_less_exclusions.txt	LTP179	ltpFR	0	14	0	LOFT	840	n/a	n/a	1	0.422607421875	0.5869140625	0	lower	zerothre.ttf
3240588	WORD	wordpools/wasnorm_wordpool_less_exclusions.txt	LTP179	ltpFR	0	14	0	BISCUIT	130	n/a	n/a	0	0.422607421875	0.5869140625	0	lower	zerothre.ttf
3244695	WORD	wordpools/wasnorm_wordpool_less_exclusions.txt	LTP179	ltpFR	0	14	1	MAJOR	859	n/a	n/a	1	0.57763671875	0.412841796875	1	upper	amplitud.ttf
3248777	WORD	wordpools/wasnorm_wordpool_less_exclusions.txt	LTP179	ltpFR	0	14	1	GRADUATE	653	n/a	n/a	1	0.57763671875	0.412841796875	1	upper	amplitud.ttf
3252983	WORD	wordpools/wasnorm_wordpool_less_exclusions.txt	LTP179	ltpFR	0	14	1	RUG	1215	n/a	n/a	0	0.57763671875	0.412841796875	1	upper	amplitud.ttf
3257090	WORD	wordpools/wasnorm_wordpool_less_exclusions.txt	LTP179	ltpFR	0	14	0	TOWN	1491	n/a	n/a	1	0.422607421875	0.5869140625	0	lower	zerothre.ttf
3261255	WORD	wordpools/wasnorm_wordpool_less_exclusions.txt	LTP179	ltpFR	0	14	0	COW	393	n/a	n/a	1	0.422607421875	0.5869140625	0	lower	zerothre.ttf
3266946	REC_START	n/a	LTP179	ltpFR	0	14	n/a	n/a	n/a	n/a	n/a	n/a	n/a	n/a	n/a	n/a	n/a
3270518	REC_WORD	wordpools/wasnorm_wordpool_less_exclusions.txt	LTP179	ltpFR	0	14	1	GRADUATE	653	n/a	n/a	1	n/a	n/a	n/a	n/a	n/a
3273087	REC_WORD	wordpools/wasnorm_wordpool_less_exclusions.txt	LTP179	ltpFR	0	14	0	COLLEGE	346	n/a	n/a	1	n/a	n/a	n/a	n/a	n/a
3275032	REC_WORD	wordpools/wasnorm_wordpool_less_exclusions.txt	LTP179	ltpFR	0	14	1	MINK	897	n/a	n/a	1	n/a	n/a	n/a	n/a	n/a
3276734	REC_WORD	wordpools/wasnorm_wordpool_less_exclusions.txt	LTP179	ltpFR	0	14	1	SHEEP	1278	n/a	n/a	1	n/a	n/a	n/a	n/a	n/a
3280086	REC_WORD	wordpools/wasnorm_wordpool_less_exclusions.txt	LTP179	ltpFR	0	14	1	LAMB	797	n/a	n/a	1	n/a	n/a	n/a	n/a	n/a
3290397	REC_WORD	wordpools/wasnorm_wordpool_less_exclusions.txt	LTP179	ltpFR	0	14	0	BISCUIT	130	n/a	n/a	0	n/a	n/a	n/a	n/a	n/a
3350474	WORD	wordpools/wasnorm_wordpool_less_exclusions.txt	LTP179	ltpFR	0	15	1	BACK	65	n/a	n/a	1	0.57763671875	0.412841796875	1	upper	amplitud.ttf
3354681	WORD	wordpools/wasnorm_wordpool_less_exclusions.txt	LTP179	ltpFR	0	15	1	RIB	1188	n/a	n/a	1	0.57763671875	0.412841796875	1	upper	amplitud.ttf
3358588	WORD	wordpools/wasnorm_wordpool_less_exclusions.txt	LTP179	ltpFR	0	15	1	GOAT	644	n/a	n/a	1	0.57763671875	0.412841796875	1	upper	amplitud.ttf
3362561	WORD	wordpools/wasnorm_wordpool_less_exclusions.txt	LTP179	ltpFR	0	15	0	REEF	1177	n/a	n/a	1	0.422607421875	0.5869140625	0	lower	zerothre.ttf
3366510	WORD	wordpools/wasnorm_wordpool_less_exclusions.txt	LTP179	ltpFR	0	15	0	LOLLIPOP	842	n/a	n/a	0	0.422607421875	0.5869140625	0	lower	zerothre.ttf
3370533	WORD	wordpools/wasnorm_wordpool_less_exclusions.txt	LTP179	ltpFR	0	15	0	SEAL	1262	n/a	n/a	1	0.422607421875	0.5869140625	0	lower	zerothre.ttf
3374707	WORD	wordpools/wasnorm_wordpool_less_exclusions.txt	LTP179	ltpFR	0	15	0	TOOTHPASTE	1483	n/a	n/a	0	0.422607421875	0.5869140625	0	lower	zerothre.ttf
3378622	WORD	wordpools/wasnorm_wordpool_less_exclusions.txt	LTP179	ltpFR	0	15	0	BOX	159	n/a	n/a	1	0.422607421875	0.5869140625	0	lower	zerothre.ttf
3382521	WORD	wordpools/wasnorm_wordpool_less_exclusions.txt	LTP179	ltpFR	0	15	1	RUST	1219	n/a	n/a	0	0.57763671875	0.412841796875	1	upper	amplitud.ttf
3386528	WORD	wordpools/wasnorm_wordpool_less_exclusions.txt	LTP179	ltpFR	0	15	1	VAN	1548	n/a	n/a	0	0.57763671875	0.412841796875	1	upper	amplitud.ttf
3390618	WORD	wordpools/wasnorm_wordpool_less_exclusions.txt	LTP179	ltpFR	0	15	1	MILITARY	894	n/a	n/a	0	0.57763671875	0.412841796875	1	upper	amplitud.ttf
3394683	WORD	wordpools/wasnorm_wordpool_less_exclusions.txt	LTP179	ltpFR	0	15	0	SERGEANT	1269	n/a	n/a	1	0.422607421875	0.5869140625	0	lower	zerothre.ttf
3398540	WORD	wordpools/wasnorm_wordpool_less_exclusions.txt	LTP179	ltpFR	0	15	0	PIGMENT	1066	n/a	n/a	1	0.422607421875	0.5869140625	0	lower	zerothre.ttf
3402364	WORD	wordpools/wasnorm_wordpool_less_exclusions.txt	LTP179	ltpFR	0	15	0	LIME	823	n/a	n/a	0	0.422607421875	0.5869140625	0	lower	zerothre.ttf
3406178	WORD	wordpools/wasnorm_wordpool_less_exclusions.txt	LTP179	ltpFR	0	15	1	CORAL	378	n/a	n/a	0	0.57763671875	0.412841796875	1	upper	amplitud.ttf
3410336	WORD	wordpools/wasnorm_wordpool_less_exclusions.txt	LTP179	ltpFR	0	15	1	FLEA	577	n/a	n/a	1	0.57763671875	0.412841796875	1	upper	amplitud.ttf
3416150	REC_START	n/a	LTP179	ltpFR	0	15	n/a	n/a	n/a	n/a	n/a	n/a	n/a	n/a	n/a	n/a	n/a
3417771	REC_WORD	wordpools/wasnorm_wordpool_less_exclusions.txt	LTP179	ltpFR	0	15	1	CORAL	378	n/a	n/a	0	n/a	n/a	n/a	n/a	n/a
3420495	REC_WORD	wordpools/wasnorm_wordpool_less_exclusions.txt	LTP179	ltpFR	0	15	1	FLEA	577	n/a	n/a	1	n/a	n/a	n/a	n/a	n/a
3423104	REC_WORD	wordpools/wasnorm_wordpool_less_exclusions.txt	LTP179	ltpFR	0	15	1	MILITARY	894	n/a	n/a	0	n/a	n/a	n/a	n/a	n/a
3425409	REC_WORD	wordpools/wasnorm_wordpool_less_exclusions.txt	LTP179	ltpFR	0	15	0	SERGEANT	1269	n/a	n/a	1	n/a	n/a	n/a	n/a	n/a
3429175	REC_WORD	wordpools/wasnorm_wordpool_less_exclusions.txt	LTP179	ltpFR	0	15	0	BOX	159	n/a	n/a	1	n/a	n/a	n/a	n/a	n/a
3459332	REC_WORD	wordpools/wasnorm_wordpool_less_exclusions.txt	LTP179	ltpFR	0	15	1	RIB	1188	n/a	n/a	1	n/a	n/a	n/a	n/a	n/a
3500796	WORD	wordpools/wasnorm_wordpool_less_exclusions.txt	LTP179	ltpFR	0	16	0	REFRIGERATOR	1179	n/a	n/a	1	0.422607421875	0.5869140625	0	lower	zerothre.ttf
3504911	WORD	wordpools/wasnorm_wordpool_less_exclusions.txt	LTP179	ltpFR	0	16	0	HAM	678	n/a	n/a	1	0.422607421875	0.5869140625	0	lower	zerothre.ttf
3508909	WORD	wordpools/wasnorm_wordpool_less_exclusions.txt	LTP179	ltpFR	0	16	0	POND	1101	n/a	n/a	1	0.422607421875	0.5869140625	0	lower	zerothre.ttf
3513050	WORD	wordpools/wasnorm_wordpool_less_exclusions.txt	LTP179	ltpFR	0	16	0	CRUMB	416	n/a	n/a	0	0.422607421875	0.5869140625	0	lower	zerothre.ttf
3517172	WORD	wordpools/wasnorm_wordpool_less_exclusions.txt	LTP179	ltpFR	0	16	1	DICTATOR	462	n/a	n/a	1	0.57763671875	0.412841796875	1	upper	amplitud.ttf
3521146	WORD	wordpools/wasnorm_wordpool_less_exclusions.txt	LTP179	ltpFR	0	16	1	MARSH	874	n/a	n/a	1	0.57763671875	0.412841796875	1	upper	amplitud.ttf
3525020	WORD	wordpools/wasnorm_wordpool_less_exclusions.txt	LTP179	ltpFR	0	16	1	COLESLAW	344	n/a	n/a	0	0.57763671875	0.412841796875	1	upper	amplitud.ttf
3529176	WORD	wordpools/wasnorm_wordpool_less_exclusions.txt	LTP179	ltpFR	0	16	1	GRASS	655	n/a	n/a	1	0.57763671875	0.412841796875	1	upper	amplitud.ttf
3533334	WORD	wordpools/wasnorm_wordpool_less_exclusions.txt	LTP179	ltpFR	0	16	0	BANDANNA	80	n/a	n/a	0	0.422607421875	0.5869140625	0	lower	zerothre.ttf
3537441	WORD	wordpools/wasnorm_wordpool_less_exclusions.txt	LTP179	ltpFR	0	16	0	TROUT	1511	n/a	n/a	0	0.422607421875	0.5869140625	0	lower	zerothre.ttf
3541440	WORD	wordpools/wasnorm_wordpool_less_exclusions.txt	LTP179	ltpFR	0	16	0	FLIPPER	580	n/a	n/a	0	0.422607421875	0.5869140625	0	lower	zerothre.ttf
3545463	WORD	wordpools/wasnorm_wordpool_less_exclusions.txt	LTP179	ltpFR	0	16	0	SHOVEL	1295	n/a	n/a	1	0.422607421875	0.5869140625	0	lower	zerothre.ttf
3549328	WORD	wordpools/wasnorm_wordpool_less_exclusions.txt	LTP179	ltpFR	0	16	1	CREW	406	n/a	n/a	1	0.57763671875	0.412841796875	1	upper	amplitud.ttf
3553394	WORD	wordpools/wasnorm_wordpool_less_exclusions.txt	LTP179	ltpFR	0	16	1	PORT	1110	n/a	n/a	0	0.57763671875	0.412841796875	1	upper	amplitud.ttf
3557484	WORD	wordpools/wasnorm_wordpool_less_exclusions.txt	LTP179	ltpFR	0	16	1	SPINACH	1352	n/a	n/a	1	0.57763671875	0.412841796875	1	upper	amplitud.ttf
3561333	WORD	wordpools/wasnorm_wordpool_less_exclusions.txt	LTP179	ltpFR	0	16	1	HEAD	695	n/a	n/a	1	0.57763671875	0.412841796875	1	upper	amplitud.ttf
3567048	REC_START	n/a	LTP179	ltpFR	0	16	n/a	n/a	n/a	n/a	n/a	n/a	n/a	n/a	n/a	n/a	n/a
3569183	REC_WORD	wordpools/wasnorm_wordpool_less_exclusions.txt	LTP179	ltpFR	0	16	1	HEAD	695	n/a	n/a	1	n/a	n/a	n/a	n/a	n/a
3571058	REC_WORD	wordpools/wasnorm_wordpool_less_exclusions.txt	LTP179	ltpFR	0	16	1	SPINACH	1352	n/a	n/a	1	n/a	n/a	n/a	n/a	n/a
3573523	REC_WORD	wordpools/wasnorm_wordpool_less_exclusions.txt	LTP179	ltpFR	0	16	1	COLESLAW	344	n/a	n/a	0	n/a	n/a	n/a	n/a	n/a
3578247	REC_WORD	wordpools/wasnorm_wordpool_less_exclusions.txt	LTP179	ltpFR	0	16	1	CREW	406	n/a	n/a	1	n/a	n/a	n/a	n/a	n/a
3586519	REC_WORD	wordpools/wasnorm_wordpool_less_exclusions.txt	LTP179	ltpFR	0	16	0	BANDANNA	80	n/a	n/a	0	n/a	n/a	n/a	n/a	n/a
3603335	REC_WORD	wordpools/wasnorm_wordpool_less_exclusions.txt	LTP179	ltpFR	0	16	1	PORT	1110	n/a	n/a	0	n/a	n/a	n/a	n/a	n/a
3606388	REC_WORD	wordpools/wasnorm_wordpool_less_exclusions.txt	LTP179	ltpFR	0	16	0	CRUMB	416	n/a	n/a	0	n/a	n/a	n/a	n/a	n/a
3625605	REC_WORD	wordpools/wasnorm_wordpool_less_exclusions.txt	LTP179	ltpFR	0	16	0	SHOVEL	1295	n/a	n/a	1	n/a	n/a	n/a	n/a	n/a
3635283	REC_WORD	wordpools/wasnorm_wordpool_less_exclusions.txt	LTP179	ltpFR	0	16	1	CREW	406	n/a	n/a	1	n/a	n/a	n/a	n/a	n/a
3713721	REC_START	n/a	LTP179	ltpFR	0	n/a	n/a	n/a	n/a	n/a	n/a	n/a	n/a	n/a	n/a	n/a	n/a
3716824	FFR_REC_WORD	wordpools/wasnorm_wordpool_less_exclusions.txt	LTP179	ltpFR	0	n/a	1	EMPEROR	529	n/a	n/a	1	n/a	n/a	n/a	n/a	n/a
3718864	FFR_REC_WORD	wordpools/wasnorm_wordpool_less_exclusions.txt	LTP179	ltpFR	0	n/a	1	EMPIRE	530	n/a	n/a	0	n/a	n/a	n/a	n/a	n/a
3720340	FFR_REC_WORD	wordpools/wasnorm_wordpool_less_exclusions.txt	LTP179	ltpFR	0	n/a	1	DICTATOR	462	n/a	n/a	1	n/a	n/a	n/a	n/a	n/a
3722601	FFR_REC_WORD	wordpools/wasnorm_wordpool_less_exclusions.txt	LTP179	ltpFR	0	n/a	1	MILITARY	894	n/a	n/a	0	n/a	n/a	n/a	n/a	n/a
3726113	FFR_REC_WORD	wordpools/wasnorm_wordpool_less_exclusions.txt	LTP179	ltpFR	0	n/a	-1	RAFT	1159	n/a	n/a	-1	n/a	n/a	n/a	n/a	n/a
3728203	FFR_REC_WORD	wordpools/wasnorm_wordpool_less_exclusions.txt	LTP179	ltpFR	0	n/a	-1	COUSIN	392	n/a	n/a	-1	n/a	n/a	n/a	n/a	n/a
3730458	FFR_REC_WORD	wordpools/wasnorm_wordpool_less_exclusions.txt	LTP179	ltpFR	0	n/a	1	NEPHEW	942	n/a	n/a	1	n/a	n/a	n/a	n/a	n/a
3732398	FFR_REC_WORD	wordpools/wasnorm_wordpool_less_exclusions.txt	LTP179	ltpFR	0	n/a	n/a	PAWN	1030	n/a	n/a	n/a	n/a	n/a	n/a	n/a	n/a
3734289	FFR_REC_WORD	wordpools/wasnorm_wordpool_less_exclusions.txt	LTP179	ltpFR	0	n/a	0	CLIFF	322	n/a	n/a	1	n/a	n/a	n/a	n/a	n/a
3736175	FFR_REC_WORD	wordpools/wasnorm_wordpool_less_exclusions.txt	LTP179	ltpFR	0	n/a	0	BALCONY	72	n/a	n/a	1	n/a	n/a	n/a	n/a	n/a
3738135	FFR_REC_WORD	wordpools/wasnorm_wordpool_less_exclusions.txt	LTP179	ltpFR	0	n/a	0	PORCH	1106	n/a	n/a	1	n/a	n/a	n/a	n/a	n/a
3740994	FFR_REC_WORD	wordpools/wasnorm_wordpool_less_exclusions.txt	LTP179	ltpFR	0	n/a	0	CELLAR	267	n/a	n/a	1	n/a	n/a	n/a	n/a	n/a
3743393	FFR_REC_WORD	wordpools/wasnorm_wordpool_less_exclusions.txt	LTP179	ltpFR	0	n/a	0	CELERY	266	n/a	n/a	0	n/a	n/a	n/a	n/a	n/a
3747279	FFR_REC_WORD	wordpools/wasnorm_wordpool_less_exclusions.txt	LTP179	ltpFR	0	n/a	0	LUNCH	849	n/a	n/a	1	n/a	n/a	n/a	n/a	n/a
3749115	FFR_REC_WORD	wordpools/wasnorm_wordpool_less_exclusions.txt	LTP179	ltpFR	0	n/a	0	CRUMB	416	n/a	n/a	0	n/a	n/a	n/a	n/a	n/a
3750941	FFR_REC_WORD	wordpools/wasnorm_wordpool_less_exclusions.txt	LTP179	ltpFR	0	n/a	0	BUN	197	n/a	n/a	0	n/a	n/a	n/a	n/a	n/a
3754089	FFR_REC_WORD	wordpools/wasnorm_wordpool_less_exclusions.txt	LTP179	ltpFR	0	n/a	-1	RUBY	1214	n/a	n/a	-1	n/a	n/a	n/a	n/a	n/a
3755860	FFR_REC_WORD	wordpools/wasnorm_wordpool_less_exclusions.txt	LTP179	ltpFR	0	n/a	-1	ROUGE	1213	n/a	n/a	-1	n/a	n/a	n/a	n/a	n/a
3757601	FFR_REC_WORD	wordpools/wasnorm_wordpool_less_exclusions.txt	LTP179	ltpFR	0	n/a	-1	RING	1193	n/a	n/a	-1	n/a	n/a	n/a	n/a	n/a
3759547	FFR_REC_WORD	wordpools/wasnorm_wordpool_less_exclusions.txt	LTP179	ltpFR	0	n/a	-1	CHERRY	293	n/a	n/a	-1	n/a	n/a	n/a	n/a	n/a
3763447	FFR_REC_WORD	wordpools/wasnorm_wordpool_less_exclusions.txt	LTP179	ltpFR	0	n/a	n/a	STABLE	1363	n/a	n/a	n/a	n/a	n/a	n/a	n/a	n/a
3765448	FFR_REC_WORD	wordpools/wasnorm_wordpool_less_exclusions.txt	LTP179	ltpFR	0	n/a	0	STAPLER	1372	n/a	n/a	0	n/a	n/a	n/a	n/a	n/a
3767289	FFR_REC_WORD	wordpools/wasnorm_wordpool_less_exclusions.txt	LTP179	ltpFR	0	n/a	1	BINDER	127	n/a	n/a	0	n/a	n/a	n/a	n/a	n/a
3768975	FFR_REC_WORD	wordpools/wasnorm_wordpool_less_exclusions.txt	LTP179	ltpFR	0	n/a	1	PAGE	1001	n/a	n/a	0	n/a	n/a	n/a	n/a	n/a
3771839	FFR_REC_WORD	wordpools/wasnorm_wordpool_less_exclusions.txt	LTP179	ltpFR	0	n/a	n/a	TYPEWRITER	1531	n/a	n/a	n/a	n/a	n/a	n/a	n/a	n/a
3775850	FFR_REC_WORD	wordpools/wasnorm_wordpool_less_exclusions.txt	LTP179	ltpFR	0	n/a	-1	COMPUTER	359	n/a	n/a	-1	n/a	n/a	n/a	n/a	n/a
3777880	FFR_REC_WORD	wordpools/wasnorm_wordpool_less_exclusions.txt	LTP179	ltpFR	0	n/a	-1	DISC	473	n/a	n/a	-1	n/a	n/a	n/a	n/a	n/a
3781182	FFR_REC_WORD	wordpools/wasnorm_wordpool_less_exclusions.txt	LTP179	ltpFR	0	n/a	-1	PEDESTRIAN	1038	n/a	n/a	-1	n/a	n/a	n/a	n/a	n/a
3783397	FFR_REC_WORD	wordpools/wasnorm_wordpool_less_exclusions.txt	LTP179	ltpFR	0	n/a	-1	HUMAN	726	n/a	n/a	-1	n/a	n/a	n/a	n/a	n/a
3785124	FFR_REC_WORD	wordpools/wasnorm_wordpool_less_exclusions.txt	LTP179	ltpFR	0	n/a	-1	PUDDLE	1140	n/a	n/a	-1	n/a	n/a	n/a	n/a	n/a
3790112	FFR_REC_WORD	wordpools/wasnorm_wordpool_less_exclusions.txt	LTP179	ltpFR	0	n/a	1	SKUNK	1321	n/a	n/a	1	n/a	n/a	n/a	n/a	n/a
3792212	FFR_REC_WORD	wordpools/wasnorm_wordpool_less_exclusions.txt	LTP179	ltpFR	0	n/a	1	RABBIT	1152	n/a	n/a	1	n/a	n/a	n/a	n/a	n/a
3795829	FFR_REC_WORD	wordpools/wasnorm_wordpool_less_exclusions.txt	LTP179	ltpFR	0	n/a	n/a	RAT	1169	n/a	n/a	n/a	n/a	n/a	n/a	n/a	n/a
3798887	FFR_REC_WORD	wordpools/wasnorm_wordpool_less_exclusions.txt	LTP179	ltpFR	0	n/a	1	LIZARD	834	n/a	n/a	1	n/a	n/a	n/a	n/a	n/a
3800778	FFR_REC_WORD	wordpools/wasnorm_wordpool_less_exclusions.txt	LTP179	ltpFR	0	n/a	1	SERPENT	1270	n/a	n/a	1	n/a	n/a	n/a	n/a	n/a
3803676	FFR_REC_WORD	wordpools/wasnorm_wordpool_less_exclusions.txt	LTP179	ltpFR	0	n/a	0	KANGAROO	768	n/a	n/a	1	n/a	n/a	n/a	n/a	n/a
3807772	FFR_REC_WORD_VV	wordpools/wasnorm_wordpool_less_exclusions.txt	LTP179	ltpFR	0	n/a	n/a	<>	-1	n/a	n/a	n/a	n/a	n/a	n/a	n/a	n/a
3811563	FFR_REC_WORD	wordpools/wasnorm_wordpool_less_exclusions.txt	LTP179	ltpFR	0	n/a	0	TIDE	1465	n/a	n/a	1	n/a	n/a	n/a	n/a	n/a
3815933	FFR_REC_WORD	wordpools/wasnorm_wordpool_less_exclusions.txt	LTP179	ltpFR	0	n/a	1	PORT	1110	n/a	n/a	0	n/a	n/a	n/a	n/a	n/a
3817610	FFR_REC_WORD	wordpools/wasnorm_wordpool_less_exclusions.txt	LTP179	ltpFR	0	n/a	0	SEAGULL	1261	n/a	n/a	1	n/a	n/a	n/a	n/a	n/a
3826255	FFR_REC_WORD	wordpools/wasnorm_wordpool_less_exclusions.txt	LTP179	ltpFR	0	n/a	1	PALM	1007	n/a	n/a	1	n/a	n/a	n/a	n/a	n/a
3829253	FFR_REC_WORD	wordpools/wasnorm_wordpool_less_exclusions.txt	LTP179	ltpFR	0	n/a	1	RIB	1188	n/a	n/a	1	n/a	n/a	n/a	n/a	n/a
3831024	FFR_REC_WORD	wordpools/wasnorm_wordpool_less_exclusions.txt	LTP179	ltpFR	0	n/a	1	VEIN	1554	n/a	n/a	1	n/a	n/a	n/a	n/a	n/a
3840767	FFR_REC_WORD	wordpools/wasnorm_wordpool_less_exclusions.txt	LTP179	ltpFR	0	n/a	-1	MASCARA	875	n/a	n/a	-1	n/a	n/a	n/a	n/a	n/a
3842857	FFR_REC_WORD	wordpools/wasnorm_wordpool_less_exclusions.txt	LTP179	ltpFR	0	n/a	-1	GODDESS	646	n/a	n/a	-1	n/a	n/a	n/a	n/a	n/a
3844967	FFR_REC_WORD	wordpools/wasnorm_wordpool_less_exclusions.txt	LTP179	ltpFR	0	n/a	-1	HANDBAG	684	n/a	n/a	-1	n/a	n/a	n/a	n/a	n/a
3855169	FFR_REC_WORD	wordpools/wasnorm_wordpool_less_exclusions.txt	LTP179	ltpFR	0	n/a	-1	RAFT	1159	n/a	n/a	-1	n/a	n/a	n/a	n/a	n/a
3868698	FFR_REC_WORD	wordpools/wasnorm_wordpool_less_exclusions.txt	LTP179	ltpFR	0	n/a	0	SHOVEL	1295	n/a	n/a	1	n/a	n/a	n/a	n/a	n/a
3871088	FFR_REC_WORD	wordpools/wasnorm_wordpool_less_exclusions.txt	LTP179	ltpFR	0	n/a	0	RAKE	1164	n/a	n/a	1	n/a	n/a	n/a	n/a	n/a
3877099	FFR_REC_WORD	wordpools/wasnorm_wordpool_less_exclusions.txt	LTP179	ltpFR	0	n/a	0	KANGAROO	768	n/a	n/a	1	n/a	n/a	n/a	n/a	n/a
3888558	FFR_REC_WORD	wordpools/wasnorm_wordpool_less_exclusions.txt	LTP179	ltpFR	0	n/a	0	SEAL	1262	n/a	n/a	1	n/a	n/a	n/a	n/a	n/a
3895508	FFR_REC_WORD	wordpools/wasnorm_wordpool_less_exclusions.txt	LTP179	ltpFR	0	n/a	-1	LAWN	805	n/a	n/a	-1	n/a	n/a	n/a	n/a	n/a
3897817	FFR_REC_WORD	wordpools/wasnorm_wordpool_less_exclusions.txt	LTP179	ltpFR	0	n/a	-1	SHEARS	1276	n/a	n/a	-1	n/a	n/a	n/a	n/a	n/a
3901778	FFR_REC_WORD	wordpools/wasnorm_wordpool_less_exclusions.txt	LTP179	ltpFR	0	n/a	-1	THORN	1459	n/a	n/a	-1	n/a	n/a	n/a	n/a	n/a
3904577	FFR_REC_WORD	wordpools/wasnorm_wordpool_less_exclusions.txt	LTP179	ltpFR	0	n/a	-1	INSECT	740	n/a	n/a	-1	n/a	n/a	n/a	n/a	n/a
3912763	FFR_REC_WORD	wordpools/wasnorm_wordpool_less_exclusions.txt	LTP179	ltpFR	0	n/a	-1	BUILDER	190	n/a	n/a	-1	n/a	n/a	n/a	n/a	n/a
3914993	FFR_REC_WORD	wordpools/wasnorm_wordpool_less_exclusions.txt	LTP179	ltpFR	0	n/a	-1	GROUND	666	n/a	n/a	-1	n/a	n/a	n/a	n/a	n/a
3942531	FFR_REC_WORD	wordpools/wasnorm_wordpool_less_exclusions.txt	LTP179	ltpFR	0	n/a	1	PORT	1110	n/a	n/a	0	n/a	n/a	n/a	n/a	n/a
3950378	FFR_REC_WORD	wordpools/wasnorm_wordpool_less_exclusions.txt	LTP179	ltpFR	0	n/a	-1	COUCH	386	n/a	n/a	-1	n/a	n/a	n/a	n/a	n/a
3953561	FFR_REC_WORD	wordpools/wasnorm_wordpool_less_exclusions.txt	LTP179	ltpFR	0	n/a	1	NEPHEW	942	n/a	n/a	1	n/a	n/a	n/a	n/a	n/a
3956928	FFR_REC_WORD	wordpools/wasnorm_wordpool_less_exclusions.txt	LTP179	ltpFR	0	n/a	-1	COUSIN	392	n/a	n/a	-1	n/a	n/a	n/a	n/a	n/a
3978634	FFR_REC_WORD	wordpools/wasnorm_wordpool_less_exclusions.txt	LTP179	ltpFR	0	n/a	0	SERGEANT	1269	n/a	n/a	1	n/a	n/a	n/a	n/a	n/a
3995301	FFR_REC_WORD	wordpools/wasnorm_wordpool_less_exclusions.txt	LTP179	ltpFR	0	n/a	0	CRUMB	416	n/a	n/a	0	n/a	n/a	n/a	n/a	n/a
4001028	FFR_REC_WORD	wordpools/wasnorm_wordpool_less_exclusions.txt	LTP179	ltpFR	0	n/a	0	VIDEO	1564	n/a	n/a	0	n/a	n/a	n/a	n/a	n/a
4013295	FFR_REC_WORD	wordpools/wasnorm_wordpool_less_exclusions.txt	LTP179	ltpFR	0	n/a	0	PLANT	1083	n/a	n/a	1	n/a	n/a	n/a	n/a	n/a
4436365	REC_START	n/a	LTP179	ltpFR	0	1	n/a	n/a	n/a	n/a	n/a	n/a	n/a	n/a	n/a	n/a	n/a
4436406	RECOG_TARGET	n/a	LTP179	ltpFR	0	1	1	BULLETIN	195	1	5	0	n/a	n/a	n/a	n/a	n/a
4439920	RECOG_RESP	n/a	LTP179	ltpFR	0	1	1	BULLETIN	195	1	n/a	0	n/a	n/a	n/a	n/a	n/a
4445014	RECOG_CONF	n/a	LTP179	ltpFR	0	1	1	BULLETIN	195	n/a	5	0	n/a	n/a	n/a	n/a	n/a
4450101	RECOG_LURE	n/a	LTP179	ltpFR	0	1	n/a	WAX	1597	0	5	n/a	n/a	n/a	n/a	n/a	n/a
4456197	RECOG_RESP	n/a	LTP179	ltpFR	0	1	n/a	WAX	1597	0	n/a	n/a	n/a	n/a	n/a	n/a	n/a
4461522	RECOG_CONF	n/a	LTP179	ltpFR	0	1	n/a	WAX	1597	n/a	5	n/a	n/a	n/a	n/a	n/a	n/a
4467553	RECOG_TARGET	n/a	LTP179	ltpFR	0	1	1	SIREN	1310	1	3	0	n/a	n/a	n/a	n/a	n/a
4472713	RECOG_RESP	n/a	LTP179	ltpFR	0	1	1	SIREN	1310	1	n/a	0	n/a	n/a	n/a	n/a	n/a
4476868	RECOG_CONF	n/a	LTP179	ltpFR	0	1	1	SIREN	1310	n/a	3	0	n/a	n/a	n/a	n/a	n/a
4479440	RECOG_LURE	n/a	LTP179	ltpFR	0	1	n/a	CARPET	247	0	3	n/a	n/a	n/a	n/a	n/a	n/a
4482305	RECOG_RESP	n/a	LTP179	ltpFR	0	1	n/a	CARPET	247	0	n/a	n/a	n/a	n/a	n/a	n/a	n/a
4487096	RECOG_CONF	n/a	LTP179	ltpFR	0	1	n/a	CARPET	247	n/a	3	n/a	n/a	n/a	n/a	n/a	n/a
4489136	RECOG_TARGET	n/a	LTP179	ltpFR	0	1	0	LOLLIPOP	842	1	5	0	n/a	n/a	n/a	n/a	n/a
4490936	RECOG_RESP	n/a	LTP179	ltpFR	0	1	0	LOLLIPOP	842	1	n/a	0	n/a	n/a	n/a	n/a	n/a
4494054	RECOG_CONF	n/a	LTP179	ltpFR	0	1	0	LOLLIPOP	842	n/a	5	0	n/a	n/a	n/a	n/a	n/a
4496301	RECOG_LURE	n/a	LTP179	ltpFR	0	1	n/a	ASSOCIATE	49	0	2	n/a	n/a	n/a	n/a	n/a	n/a
4499678	RECOG_RESP	n/a	LTP179	ltpFR	0	1	n/a	ASSOCIATE	49	0	n/a	n/a	n/a	n/a	n/a	n/a	n/a
4503766	RECOG_CONF	n/a	LTP179	ltpFR	0	1	n/a	ASSOCIATE	49	n/a	2	n/a	n/a	n/a	n/a	n/a	n/a
4505923	RECOG_TARGET	n/a	LTP179	ltpFR	0	1	1	FLEA	577	1	5	1	n/a	n/a	n/a	n/a	n/a
4507667	RECOG_RESP	n/a	LTP179	ltpFR	0	1	1	FLEA	577	1	n/a	1	n/a	n/a	n/a	n/a	n/a
4510906	RECOG_CONF	n/a	LTP179	ltpFR	0	1	1	FLEA	577	n/a	5	1	n/a	n/a	n/a	n/a	n/a
4513161	RECOG_TARGET	n/a	LTP179	ltpFR	0	1	0	COW	393	1	4	1	n/a	n/a	n/a	n/a	n/a
4515100	RECOG_RESP	n/a	LTP179	ltpFR	0	1	0	COW	393	1	n/a	1	n/a	n/a	n/a	n/a	n/a
4518049	RECOG_CONF	n/a	LTP179	ltpFR	0	1	0	COW	393	n/a	4	1	n/a	n/a	n/a	n/a	n/a
4520443	RECOG_LURE	n/a	LTP179	ltpFR	0	1	n/a	CHILD	299	0	2	n/a	n/a	n/a	n/a	n/a	n/a
4523128	RECOG_RESP	n/a	LTP179	ltpFR	0	1	n/a	CHILD	299	0	n/a	n/a	n/a	n/a	n/a	n/a	n/a
4526818	RECOG_CONF	n/a	LTP179	ltpFR	0	1	n/a	CHILD	299	n/a	2	n/a	n/a	n/a	n/a	n/a	n/a
4529115	RECOG_LURE	n/a	LTP179	ltpFR	0	1	n/a	BAG	69	0	3	n/a	n/a	n/a	n/a	n/a	n/a
4532266	RECOG_RESP	n/a	LTP179	ltpFR	0	1	n/a	BAG	69	0	n/a	n/a	n/a	n/a	n/a	n/a	n/a
4535465	RECOG_CONF	n/a	LTP179	ltpFR	0	1	n/a	BAG	69	n/a	3	n/a	n/a	n/a	n/a	n/a	n/a
4537186	RECOG_LURE	n/a	LTP179	ltpFR	0	1	n/a	VAMPIRE	1547	0	4	n/a	n/a	n/a	n/a	n/a	n/a
4540919	RECOG_RESP	n/a	LTP179	ltpFR	0	1	n/a	VAMPIRE	1547	0	n/a	n/a	n/a	n/a	n/a	n/a	n/a
4543864	RECOG_CONF	n/a	LTP179	ltpFR	0	1	n/a	VAMPIRE	1547	n/a	4	n/a	n/a	n/a	n/a	n/a	n/a
4545809	RECOG_TARGET	n/a	LTP179	ltpFR	0	1	1	EMPIRE	530	1	5	0	n/a	n/a	n/a	n/a	n/a
4548959	RECOG_RESP	n/a	LTP179	ltpFR	0	1	1	EMPIRE	530	1	n/a	0	n/a	n/a	n/a	n/a	n/a
4551548	RECOG_CONF	n/a	LTP179	ltpFR	0	1	1	EMPIRE	530	n/a	5	0	n/a	n/a	n/a	n/a	n/a
4553256	RECOG_TARGET	n/a	LTP179	ltpFR	0	1	1	BINDER	127	1	5	0	n/a	n/a	n/a	n/a	n/a
4554938	RECOG_RESP	n/a	LTP179	ltpFR	0	1	1	BINDER	127	1	n/a	0	n/a	n/a	n/a	n/a	n/a
4558313	RECOG_CONF	n/a	LTP179	ltpFR	0	1	1	BINDER	127	n/a	5	0	n/a	n/a	n/a	n/a	n/a
4560129	RECOG_LURE	n/a	LTP179	ltpFR	0	1	n/a	LIGHTER	819	0	3	n/a	n/a	n/a	n/a	n/a	n/a
4561879	RECOG_RESP	n/a	LTP179	ltpFR	0	1	n/a	LIGHTER	819	0	n/a	n/a	n/a	n/a	n/a	n/a	n/a
4564227	RECOG_CONF	n/a	LTP179	ltpFR	0	1	n/a	LIGHTER	819	n/a	3	n/a	n/a	n/a	n/a	n/a	n/a
4565851	RECOG_TARGET	n/a	LTP179	ltpFR	0	1	-1	VALLEY	1545	0	3	-1	n/a	n/a	n/a	n/a	n/a
4568658	RECOG_RESP	n/a	LTP179	ltpFR	0	1	-1	VALLEY	1545	0	n/a	-1	n/a	n/a	n/a	n/a	n/a
4571433	RECOG_CONF	n/a	LTP179	ltpFR	0	1	-1	VALLEY	1545	n/a	3	-1	n/a	n/a	n/a	n/a	n/a
4573057	RECOG_TARGET	n/a	LTP179	ltpFR	0	1	0	STAMP	1370	1	5	0	n/a	n/a	n/a	n/a	n/a
4576671	RECOG_RESP	n/a	LTP179	ltpFR	0	1	0	STAMP	1370	1	n/a	0	n/a	n/a	n/a	n/a	n/a
4578859	RECOG_CONF	n/a	LTP179	ltpFR	0	1	0	STAMP	1370	n/a	5	0	n/a	n/a	n/a	n/a	n/a
4580946	RECOG_LURE	n/a	LTP179	ltpFR	0	1	n/a	ROOM	1206	0	2	n/a	n/a	n/a	n/a	n/a	n/a
4583485	RECOG_RESP	n/a	LTP179	ltpFR	0	1	n/a	ROOM	1206	0	n/a	n/a	n/a	n/a	n/a	n/a	n/a
4585525	RECOG_CONF	n/a	LTP179	ltpFR	0	1	n/a	ROOM	1206	n/a	2	n/a	n/a	n/a	n/a	n/a	n/a
4587185	RECOG_LURE	n/a	LTP179	ltpFR	0	1	n/a	ANTLER	29	0	5	n/a	n/a	n/a	n/a	n/a	n/a
4589252	RECOG_RESP	n/a	LTP179	ltpFR	0	1	n/a	ANTLER	29	0	n/a	n/a	n/a	n/a	n/a	n/a	n/a
4591339	RECOG_CONF	n/a	LTP179	ltpFR	0	1	n/a	ANTLER	29	n/a	5	n/a	n/a	n/a	n/a	n/a	n/a
4592959	RECOG_LURE	n/a	LTP179	ltpFR	0	1	n/a	PENNY	1045	0	4	n/a	n/a	n/a	n/a	n/a	n/a
4594948	RECOG_RESP	n/a	LTP179	ltpFR	0	1	n/a	PENNY	1045	0	n/a	n/a	n/a	n/a	n/a	n/a	n/a
4597733	RECOG_CONF	n/a	LTP179	ltpFR	0	1	n/a	PENNY	1045	n/a	4	n/a	n/a	n/a	n/a	n/a	n/a
4599306	RECOG_TARGET	n/a	LTP179	ltpFR	0	1	0	VIDEO	1564	1	5	0	n/a	n/a	n/a	n/a	n/a
4601096	RECOG_RESP	n/a	LTP179	ltpFR	0	1	0	VIDEO	1564	1	n/a	0	n/a	n/a	n/a	n/a	n/a
4603153	RECOG_CONF	n/a	LTP179	ltpFR	0	1	0	VIDEO	1564	n/a	5	0	n/a	n/a	n/a	n/a	n/a
4654615	REC_START	n/a	LTP179	ltpFR	0	2	n/a	n/a	n/a	n/a	n/a	n/a	n/a	n/a	n/a	n/a	n/a
4654653	RECOG_TARGET	n/a	LTP179	ltpFR	0	2	1	CORAL	378	1	5	0	n/a	n/a	n/a	n/a	n/a
4657123	RECOG_RESP	n/a	LTP179	ltpFR	0	2	1	CORAL	378	1	n/a	0	n/a	n/a	n/a	n/a	n/a
4660486	RECOG_CONF	n/a	LTP179	ltpFR	0	2	1	CORAL	378	n/a	5	0	n/a	n/a	n/a	n/a	n/a
4662326	RECOG_LURE	n/a	LTP179	ltpFR	0	2	n/a	TREE	1502	0	1	n/a	n/a	n/a	n/a	n/a	n/a
4666313	RECOG_RESP	n/a	LTP179	ltpFR	0	2	n/a	TREE	1502	0	n/a	n/a	n/a	n/a	n/a	n/a	n/a
4668073	RECOG_CONF	n/a	LTP179	ltpFR	0	2	n/a	TREE	1502	n/a	1	n/a	n/a	n/a	n/a	n/a	n/a
4669931	RECOG_TARGET	n/a	LTP179	ltpFR	0	2	0	BALCONY	72	1	5	1	n/a	n/a	n/a	n/a	n/a
4671571	RECOG_RESP	n/a	LTP179	ltpFR	0	2	0	BALCONY	72	1	n/a	1	n/a	n/a	n/a	n/a	n/a
4673786	RECOG_CONF	n/a	LTP179	ltpFR	0	2	0	BALCONY	72	n/a	5	1	n/a	n/a	n/a	n/a	n/a
4675671	RECOG_LURE	n/a	LTP179	ltpFR	0	2	n/a	MOTOR	922	0	2	n/a	n/a	n/a	n/a	n/a	n/a
4677252	RECOG_RESP	n/a	LTP179	ltpFR	0	2	n/a	MOTOR	922	0	n/a	n/a	n/a	n/a	n/a	n/a	n/a
4680149	RECOG_CONF	n/a	LTP179	ltpFR	0	2	n/a	MOTOR	922	n/a	2	n/a	n/a	n/a	n/a	n/a	n/a
4681852	RECOG_TARGET	n/a	LTP179	ltpFR	0	2	0	RAIL	1161	1	3	1	n/a	n/a	n/a	n/a	n/a
4683883	RECOG_RESP	n/a	LTP179	ltpFR	0	2	0	RAIL	1161	1	n/a	1	n/a	n/a	n/a	n/a	n/a
4686073	RECOG_CONF	n/a	LTP179	ltpFR	0	2	0	RAIL	1161	n/a	3	1	n/a	n/a	n/a	n/a	n/a
4687875	RECOG_TARGET	n/a	LTP179	ltpFR	0	2	-1	RUBY	1214	1	5	-1	n/a	n/a	n/a	n/a	n/a
4689406	RECOG_RESP	n/a	LTP179	ltpFR	0	2	-1	RUBY	1214	1	n/a	-1	n/a	n/a	n/a	n/a	n/a
4691688	RECOG_CONF	n/a	LTP179	ltpFR	0	2	-1	RUBY	1214	n/a	5	-1	n/a	n/a	n/a	n/a	n/a
4693465	RECOG_TARGET	n/a	LTP179	ltpFR	0	2	-1	BUTTERFLY	206	1	4	-1	n/a	n/a	n/a	n/a	n/a
4696015	RECOG_RESP_VV	n/a	LTP179	ltpFR	0	2	-1	BUTTERFLY	206	0	n/a	-1	n/a	n/a	n/a	n/a	n/a
4699953	RECOG_RESP	n/a	LTP179	ltpFR	0	2	-1	BUTTERFLY	206	1	n/a	-1	n/a	n/a	n/a	n/a	n/a
4701736	RECOG_CONF	n/a	LTP179	ltpFR	0	2	-1	BUTTERFLY	206	n/a	4	-1	n/a	n/a	n/a	n/a	n/a
4703503	RECOG_LURE	n/a	LTP179	ltpFR	0	2	n/a	PEPPER	1047	0	3	n/a	n/a	n/a	n/a	n/a	n/a
4705238	RECOG_RESP	n/a	LTP179	ltpFR	0	2	n/a	PEPPER	1047	0	n/a	n/a	n/a	n/a	n/a	n/a	n/a
4707569	RECOG_CONF	n/a	LTP179	ltpFR	0	2	n/a	PEPPER	1047	n/a	3	n/a	n/a	n/a	n/a	n/a	n/a
4709109	RECOG_LURE	n/a	LTP179	ltpFR	0	2	n/a	POTTERY	1116	1	2	n/a	n/a	n/a	n/a	n/a	n/a
4710779	RECOG_RESP_VV	n/a	LTP179	ltpFR	0	2	n/a	POTTERY	1116	0	n/a	n/a	n/a	n/a	n/a	n/a	n/a
4716623	RECOG_RESP	n/a	LTP179	ltpFR	0	2	n/a	POTTERY	1116	1	n/a	n/a	n/a	n/a	n/a	n/a	n/a
4718858	RECOG_CONF	n/a	LTP179	ltpFR	0	2	n/a	POTTERY	1116	n/a	2	n/a	n/a	n/a	n/a	n/a	n/a
4720697	RECOG_LURE	n/a	LTP179	ltpFR	0	2	n/a	COWARD	394	0	4	n/a	n/a	n/a	n/a	n/a	n/a
4722722	RECOG_RESP	n/a	LTP179	ltpFR	0	2	n/a	COWARD	394	0	n/a	n/a	n/a	n/a	n/a	n/a	n/a
4725161	RECOG_CONF	n/a	LTP179	ltpFR	0	2	n/a	COWARD	394	n/a	4	n/a	n/a	n/a	n/a	n/a	n/a
4726836	RECOG_TARGET	n/a	LTP179	ltpFR	0	2	1	SPINACH	1352	1	5	1	n/a	n/a	n/a	n/a	n/a
4728296	RECOG_RESP	n/a	LTP179	ltpFR	0	2	1	SPINACH	1352	1	n/a	1	n/a	n/a	n/a	n/a	n/a
4730073	RECOG_CONF	n/a	LTP179	ltpFR	0	2	1	SPINACH	1352	n/a	5	1	n/a	n/a	n/a	n/a	n/a
4731734	RECOG_LURE	n/a	LTP179	ltpFR	0	2	n/a	MOWER	928	0	2	n/a	n/a	n/a	n/a	n/a	n/a
4734698	RECOG_RESP	n/a	LTP179	ltpFR	0	2	n/a	MOWER	928	0	n/a	n/a	n/a	n/a	n/a	n/a	n/a
4736652	RECOG_CONF	n/a	LTP179	ltpFR	0	2	n/a	MOWER	928	n/a	2	n/a	n/a	n/a	n/a	n/a	n/a
4738307	RECOG_TARGET	n/a	LTP179	ltpFR	0	2	0	KANGAROO	768	1	5	1	n/a	n/a	n/a	n/a	n/a
4739709	RECOG_RESP	n/a	LTP179	ltpFR	0	2	0	KANGAROO	768	1	n/a	1	n/a	n/a	n/a	n/a	n/a
4741500	RECOG_CONF	n/a	LTP179	ltpFR	0	2	0	KANGAROO	768	n/a	5	1	n/a	n/a	n/a	n/a	n/a
4743414	RECOG_TARGET	n/a	LTP179	ltpFR	0	2	1	LUGGAGE	847	0	1	0	n/a	n/a	n/a	n/a	n/a
4748972	RECOG_RESP	n/a	LTP179	ltpFR	0	2	1	LUGGAGE	847	0	n/a	0	n/a	n/a	n/a	n/a	n/a
4750452	RECOG_CONF	n/a	LTP179	ltpFR	0	2	1	LUGGAGE	847	n/a	1	0	n/a	n/a	n/a	n/a	n/a
4752069	RECOG_LURE	n/a	LTP179	ltpFR	0	2	n/a	CONTINENT	367	0	2	n/a	n/a	n/a	n/a	n/a	n/a
4754604	RECOG_RESP	n/a	LTP179	ltpFR	0	2	n/a	CONTINENT	367	0	n/a	n/a	n/a	n/a	n/a	n/a	n/a
4756168	RECOG_CONF	n/a	LTP179	ltpFR	0	2	n/a	CONTINENT	367	n/a	2	n/a	n/a	n/a	n/a	n/a	n/a
4757883	RECOG_TARGET	n/a	LTP179	ltpFR	0	2	1	DOUGH	489	1	5	1	n/a	n/a	n/a	n/a	n/a
4759278	RECOG_RESP	n/a	LTP179	ltpFR	0	2	1	DOUGH	489	1	n/a	1	n/a	n/a	n/a	n/a	n/a
4760925	RECOG_CONF	n/a	LTP179	ltpFR	0	2	1	DOUGH	489	n/a	5	1	n/a	n/a	n/a	n/a	n/a
4762840	RECOG_TARGET	n/a	LTP179	ltpFR	0	2	1	TECHNICIAN	1443	1	3	1	n/a	n/a	n/a	n/a	n/a
4764842	RECOG_RESP	n/a	LTP179	ltpFR	0	2	1	TECHNICIAN	1443	1	n/a	1	n/a	n/a	n/a	n/a	n/a
4766257	RECOG_CONF	n/a	LTP179	ltpFR	0	2	1	TECHNICIAN	1443	n/a	3	1	n/a	n/a	n/a	n/a	n/a
4768030	RECOG_TARGET	n/a	LTP179	ltpFR	0	2	1	PURSE	1145	0	2	0	n/a	n/a	n/a	n/a	n/a
4771673	RECOG_RESP	n/a	LTP179	ltpFR	0	2	1	PURSE	1145	0	n/a	0	n/a	n/a	n/a	n/a	n/a
4773091	RECOG_CONF	n/a	LTP179	ltpFR	0	2	1	PURSE	1145	n/a	2	0	n/a	n/a	n/a	n/a	n/a
4774703	RECOG_LURE	n/a	LTP179	ltpFR	0	2	n/a	ELM	527	0	4	n/a	n/a	n/a	n/a	n/a	n/a
4776671	RECOG_RESP	n/a	LTP179	ltpFR	0	2	n/a	ELM	527	0	n/a	n/a	n/a	n/a	n/a	n/a	n/a
4777989	RECOG_CONF	n/a	LTP179	ltpFR	0	2	n/a	ELM	527	n/a	4	n/a	n/a	n/a	n/a	n/a	n/a
4779834	RECOG_TARGET	n/a	LTP179	ltpFR	0	2	0	CAN	225	1	5	0	n/a	n/a	n/a	n/a	n/a
4781948	RECOG_RESP	n/a	LTP179	ltpFR	0	2	0	CAN	225	1	n/a	0	n/a	n/a	n/a	n/a	n/a
4783738	RECOG_CONF	n/a	LTP179	ltpFR	0	2	0	CAN	225	n/a	5	0	n/a	n/a	n/a	n/a	n/a
4847157	REC_START	n/a	LTP179	ltpFR	0	3	n/a	n/a	n/a	n/a	n/a	n/a	n/a	n/a	n/a	n/a	n/a
4847202	RECOG_LURE	n/a	LTP179	ltpFR	0	3	n/a	YARD	1630	1	2	n/a	n/a	n/a	n/a	n/a	n/a
4850598	RECOG_RESP	n/a	LTP179	ltpFR	0	3	n/a	YARD	1630	1	n/a	n/a	n/a	n/a	n/a	n/a	n/a
4852424	RECOG_CONF	n/a	LTP179	ltpFR	0	3	n/a	YARD	1630	n/a	2	n/a	n/a	n/a	n/a	n/a	n/a
4854049	RECOG_TARGET	n/a	LTP179	ltpFR	0	3	-1	MOUNTAIN	924	1	4	-1	n/a	n/a	n/a	n/a	n/a
4856236	RECOG_RESP	n/a	LTP179	ltpFR	0	3	-1	MOUNTAIN	924	1	n/a	-1	n/a	n/a	n/a	n/a	n/a
4857848	RECOG_CONF	n/a	LTP179	ltpFR	0	3	-1	MOUNTAIN	924	n/a	4	-1	n/a	n/a	n/a	n/a	n/a
4859356	RECOG_LURE	n/a	LTP179	ltpFR	0	3	n/a	THIGH	1457	0	2	n/a	n/a	n/a	n/a	n/a	n/a
4861430	RECOG_RESP	n/a	LTP179	ltpFR	0	3	n/a	THIGH	1457	0	n/a	n/a	n/a	n/a	n/a	n/a	n/a
4863339	RECOG_CONF	n/a	LTP179	ltpFR	0	3	n/a	THIGH	1457	n/a	2	n/a	n/a	n/a	n/a	n/a	n/a
4865029	RECOG_TARGET	n/a	LTP179	ltpFR	0	3	-1	ROUGE	1213	1	5	-1	n/a	n/a	n/a	n/a	n/a
4866879	RECOG_RESP	n/a	LTP179	ltpFR	0	3	-1	ROUGE	1213	1	n/a	-1	n/a	n/a	n/a	n/a	n/a
4868523	RECOG_CONF	n/a	LTP179	ltpFR	0	3	-1	ROUGE	1213	n/a	5	-1	n/a	n/a	n/a	n/a	n/a
4870385	RECOG_TARGET	n/a	LTP179	ltpFR	0	3	0	CRUMB	416	1	4	0	n/a	n/a	n/a	n/a	n/a
4871853	RECOG_RESP	n/a	LTP179	ltpFR	0	3	0	CRUMB	416	1	n/a	0	n/a	n/a	n/a	n/a	n/a
4875364	RECOG_CONF	n/a	LTP179	ltpFR	0	3	0	CRUMB	416	n/a	4	0	n/a	n/a	n/a	n/a	n/a
4877116	RECOG_LURE	n/a	LTP179	ltpFR	0	3	n/a	GUEST	669	0	2	n/a	n/a	n/a	n/a	n/a	n/a
4878852	RECOG_RESP	n/a	LTP179	ltpFR	0	3	n/a	GUEST	669	0	n/a	n/a	n/a	n/a	n/a	n/a	n/a
4880456	RECOG_CONF	n/a	LTP179	ltpFR	0	3	n/a	GUEST	669	n/a	2	n/a	n/a	n/a	n/a	n/a	n/a
4882256	RECOG_TARGET	n/a	LTP179	ltpFR	0	3	1	BULB	192	1	5	1	n/a	n/a	n/a	n/a	n/a
4883889	RECOG_RESP	n/a	LTP179	ltpFR	0	3	1	BULB	192	1	n/a	1	n/a	n/a	n/a	n/a	n/a
4885508	RECOG_CONF	n/a	LTP179	ltpFR	0	3	1	BULB	192	n/a	5	1	n/a	n/a	n/a	n/a	n/a
4887221	RECOG_LURE	n/a	LTP179	ltpFR	0	3	n/a	RIVER	1194	0	2	n/a	n/a	n/a	n/a	n/a	n/a
4891721	RECOG_RESP	n/a	LTP179	ltpFR	0	3	n/a	RIVER	1194	0	n/a	n/a	n/a	n/a	n/a	n/a	n/a
4893067	RECOG_CONF	n/a	LTP179	ltpFR	0	3	n/a	RIVER	1194	n/a	2	n/a	n/a	n/a	n/a	n/a	n/a
4894727	RECOG_TARGET	n/a	LTP179	ltpFR	0	3	0	NOTE	958	1	5	0	n/a	n/a	n/a	n/a	n/a
4896551	RECOG_RESP	n/a	LTP179	ltpFR	0	3	0	NOTE	958	1	n/a	0	n/a	n/a	n/a	n/a	n/a
4898086	RECOG_CONF	n/a	LTP179	ltpFR	0	3	0	NOTE	958	n/a	5	0	n/a	n/a	n/a	n/a	n/a
4899700	RECOG_TARGET	n/a	LTP179	ltpFR	0	3	0	UMBRELLA	1534	1	5	1	n/a	n/a	n/a	n/a	n/a
4901498	RECOG_RESP	n/a	LTP179	ltpFR	0	3	0	UMBRELLA	1534	1	n/a	1	n/a	n/a	n/a	n/a	n/a
4902928	RECOG_CONF	n/a	LTP179	ltpFR	0	3	0	UMBRELLA	1534	n/a	5	1	n/a	n/a	n/a	n/a	n/a
4904848	RECOG_LURE	n/a	LTP179	ltpFR	0	3	n/a	MECHANIC	884	1	1	n/a	n/a	n/a	n/a	n/a	n/a
4912394	RECOG_RESP	n/a	LTP179	ltpFR	0	3	n/a	MECHANIC	884	1	n/a	n/a	n/a	n/a	n/a	n/a	n/a
4913690	RECOG_CONF	n/a	LTP179	ltpFR	0	3	n/a	MECHANIC	884	n/a	1	n/a	n/a	n/a	n/a	n/a	n/a
4915386	RECOG_TARGET	n/a	LTP179	ltpFR	0	3	1	FRIEND	606	1	5	1	n/a	n/a	n/a	n/a	n/a
4917239	RECOG_RESP	n/a	LTP179	ltpFR	0	3	1	FRIEND	606	1	n/a	1	n/a	n/a	n/a	n/a	n/a
4918794	RECOG_CONF	n/a	LTP179	ltpFR	0	3	1	FRIEND	606	n/a	5	1	n/a	n/a	n/a	n/a	n/a
4920567	RECOG_TARGET	n/a	LTP179	ltpFR	0	3	1	RIB	1188	1	4	1	n/a	n/a	n/a	n/a	n/a
4921944	RECOG_RESP	n/a	LTP179	ltpFR	0	3	1	RIB	1188	1	n/a	1	n/a	n/a	n/a	n/a	n/a
4923497	RECOG_CONF	n/a	LTP179	ltpFR	0	3	1	RIB	1188	n/a	4	1	n/a	n/a	n/a	n/a	n/a
4925181	RECOG_LURE	n/a	LTP179	ltpFR	0	3	n/a	RAT	1169	1	2	n/a	n/a	n/a	n/a	n/a	n/a
4926438	RECOG_RESP	n/a	LTP179	ltpFR	0	3	n/a	RAT	1169	1	n/a	n/a	n/a	n/a	n/a	n/a	n/a
4927905	RECOG_CONF	n/a	LTP179	ltpFR	0	3	n/a	RAT	1169	n/a	2	n/a	n/a	n/a	n/a	n/a	n/a
4929589	RECOG_TARGET	n/a	LTP179	ltpFR	0	3	0	DESIGNER	451	1	5	1	n/a	n/a	n/a	n/a	n/a
4931648	RECOG_RESP	n/a	LTP179	ltpFR	0	3	0	DESIGNER	451	1	n/a	1	n/a	n/a	n/a	n/a	n/a
4933304	RECOG_CONF	n/a	LTP179	ltpFR	0	3	0	DESIGNER	451	n/a	5	1	n/a	n/a	n/a	n/a	n/a
4935037	RECOG_LURE	n/a	LTP179	ltpFR	0	3	n/a	CARAVAN	242	0	3	n/a	n/a	n/a	n/a	n/a	n/a
4936653	RECOG_RESP	n/a	LTP179	ltpFR	0	3	n/a	CARAVAN	242	0	n/a	n/a	n/a	n/a	n/a	n/a	n/a
4938099	RECOG_CONF	n/a	LTP179	ltpFR	0	3	n/a	CARAVAN	242	n/a	3	n/a	n/a	n/a	n/a	n/a	n/a
4939911	RECOG_LURE	n/a	LTP179	ltpFR	0	3	n/a	PONY	1102	0	4	n/a	n/a	n/a	n/a	n/a	n/a
4941451	RECOG_RESP	n/a	LTP179	ltpFR	0	3	n/a	PONY	1102	0	n/a	n/a	n/a	n/a	n/a	n/a	n/a
4942940	RECOG_CONF	n/a	LTP179	ltpFR	0	3	n/a	PONY	1102	n/a	4	n/a	n/a	n/a	n/a	n/a	n/a
4944592	RECOG_LURE	n/a	LTP179	ltpFR	0	3	n/a	BANANA	77	0	1	n/a	n/a	n/a	n/a	n/a	n/a
4951478	RECOG_RESP	n/a	LTP179	ltpFR	0	3	n/a	BANANA	77	0	n/a	n/a	n/a	n/a	n/a	n/a	n/a
4953122	RECOG_CONF	n/a	LTP179	ltpFR	0	3	n/a	BANANA	77	n/a	1	n/a	n/a	n/a	n/a	n/a	n/a
4954922	RECOG_LURE	n/a	LTP179	ltpFR	0	3	n/a	ARTERY	41	0	4	n/a	n/a	n/a	n/a	n/a	n/a
4957185	RECOG_RESP	n/a	LTP179	ltpFR	0	3	n/a	ARTERY	41	0	n/a	n/a	n/a	n/a	n/a	n/a	n/a
4958974	RECOG_CONF	n/a	LTP179	ltpFR	0	3	n/a	ARTERY	41	n/a	4	n/a	n/a	n/a	n/a	n/a	n/a
4960703	RECOG_LURE	n/a	LTP179	ltpFR	0	3	n/a	CUE	422	0	3	n/a	n/a	n/a	n/a	n/a	n/a
4962248	RECOG_RESP	n/a	LTP179	ltpFR	0	3	n/a	CUE	422	0	n/a	n/a	n/a	n/a	n/a	n/a	n/a
4963601	RECOG_CONF	n/a	LTP179	ltpFR	0	3	n/a	CUE	422	n/a	3	n/a	n/a	n/a	n/a	n/a	n/a
5037139	REC_START	n/a	LTP179	ltpFR	0	4	n/a	n/a	n/a	n/a	n/a	n/a	n/a	n/a	n/a	n/a	n/a
5037175	RECOG_TARGET	n/a	LTP179	ltpFR	0	4	-1	RAFT	1159	1	5	-1	n/a	n/a	n/a	n/a	n/a
5039447	RECOG_RESP	n/a	LTP179	ltpFR	0	4	-1	RAFT	1159	1	n/a	-1	n/a	n/a	n/a	n/a	n/a
5041082	RECOG_CONF	n/a	LTP179	ltpFR	0	4	-1	RAFT	1159	n/a	5	-1	n/a	n/a	n/a	n/a	n/a
5042757	RECOG_LURE	n/a	LTP179	ltpFR	0	4	n/a	TACK	1428	0	2	n/a	n/a	n/a	n/a	n/a	n/a
5044597	RECOG_RESP	n/a	LTP179	ltpFR	0	4	n/a	TACK	1428	0	n/a	n/a	n/a	n/a	n/a	n/a	n/a
5045825	RECOG_CONF	n/a	LTP179	ltpFR	0	4	n/a	TACK	1428	n/a	2	n/a	n/a	n/a	n/a	n/a	n/a
5047498	RECOG_TARGET	n/a	LTP179	ltpFR	0	4	0	SUPERVISOR	1410	1	5	1	n/a	n/a	n/a	n/a	n/a
5048809	RECOG_RESP	n/a	LTP179	ltpFR	0	4	0	SUPERVISOR	1410	1	n/a	1	n/a	n/a	n/a	n/a	n/a
5050527	RECOG_CONF	n/a	LTP179	ltpFR	0	4	0	SUPERVISOR	1410	n/a	5	1	n/a	n/a	n/a	n/a	n/a
5052437	RECOG_LURE	n/a	LTP179	ltpFR	0	4	n/a	MOTH	920	0	1	n/a	n/a	n/a	n/a	n/a	n/a
5054321	RECOG_RESP	n/a	LTP179	ltpFR	0	4	n/a	MOTH	920	0	n/a	n/a	n/a	n/a	n/a	n/a	n/a
5055891	RECOG_CONF	n/a	LTP179	ltpFR	0	4	n/a	MOTH	920	n/a	1	n/a	n/a	n/a	n/a	n/a	n/a
5057577	RECOG_LURE	n/a	LTP179	ltpFR	0	4	n/a	CANDY	230	0	2	n/a	n/a	n/a	n/a	n/a	n/a
5059745	RECOG_RESP	n/a	LTP179	ltpFR	0	4	n/a	CANDY	230	0	n/a	n/a	n/a	n/a	n/a	n/a	n/a
5061169	RECOG_CONF	n/a	LTP179	ltpFR	0	4	n/a	CANDY	230	n/a	2	n/a	n/a	n/a	n/a	n/a	n/a
5062884	RECOG_LURE	n/a	LTP179	ltpFR	0	4	n/a	TOTE	1487	0	1	n/a	n/a	n/a	n/a	n/a	n/a
5066363	RECOG_RESP	n/a	LTP179	ltpFR	0	4	n/a	TOTE	1487	0	n/a	n/a	n/a	n/a	n/a	n/a	n/a
5067654	RECOG_CONF	n/a	LTP179	ltpFR	0	4	n/a	TOTE	1487	n/a	1	n/a	n/a	n/a	n/a	n/a	n/a
5069256	RECOG_TARGET	n/a	LTP179	ltpFR	0	4	-1	WHISKERS	1605	1	5	-1	n/a	n/a	n/a	n/a	n/a
5071391	RECOG_RESP	n/a	LTP179	ltpFR	0	4	-1	WHISKERS	1605	1	n/a	-1	n/a	n/a	n/a	n/a	n/a
5073250	RECOG_CONF	n/a	LTP179	ltpFR	0	4	-1	WHISKERS	1605	n/a	5	-1	n/a	n/a	n/a	n/a	n/a
5074963	RECOG_LURE	n/a	LTP179	ltpFR	0	4	n/a	CASHIER	254	0	2	n/a	n/a	n/a	n/a	n/a	n/a
5076516	RECOG_RESP	n/a	LTP179	ltpFR	0	4	n/a	CASHIER	254	0	n/a	n/a	n/a	n/a	n/a	n/a	n/a
5078415	RECOG_CONF	n/a	LTP179	ltpFR	0	4	n/a	CASHIER	254	n/a	2	n/a	n/a	n/a	n/a	n/a	n/a
5079986	RECOG_LURE	n/a	LTP179	ltpFR	0	4	n/a	MAILMAN	858	0	2	n/a	n/a	n/a	n/a	n/a	n/a
5081868	RECOG_RESP	n/a	LTP179	ltpFR	0	4	n/a	MAILMAN	858	0	n/a	n/a	n/a	n/a	n/a	n/a	n/a
5083529	RECOG_CONF	n/a	LTP179	ltpFR	0	4	n/a	MAILMAN	858	n/a	2	n/a	n/a	n/a	n/a	n/a	n/a
5085150	RECOG_TARGET	n/a	LTP179	ltpFR	0	4	1	BRIEFCASE	175	1	4	0	n/a	n/a	n/a	n/a	n/a
5087963	RECOG_RESP	n/a	LTP179	ltpFR	0	4	1	BRIEFCASE	175	1	n/a	0	n/a	n/a	n/a	n/a	n/a
5089479	RECOG_CONF	n/a	LTP179	ltpFR	0	4	1	BRIEFCASE	175	n/a	4	0	n/a	n/a	n/a	n/a	n/a
5091265	RECOG_LURE	n/a	LTP179	ltpFR	0	4	n/a	SATURN	1236	0	3	n/a	n/a	n/a	n/a	n/a	n/a
5092965	RECOG_RESP	n/a	LTP179	ltpFR	0	4	n/a	SATURN	1236	0	n/a	n/a	n/a	n/a	n/a	n/a	n/a
5094426	RECOG_CONF	n/a	LTP179	ltpFR	0	4	n/a	SATURN	1236	n/a	3	n/a	n/a	n/a	n/a	n/a	n/a
5096114	RECOG_LURE	n/a	LTP179	ltpFR	0	4	n/a	DIPLOMA	470	0	2	n/a	n/a	n/a	n/a	n/a	n/a
5098951	RECOG_RESP	n/a	LTP179	ltpFR	0	4	n/a	DIPLOMA	470	0	n/a	n/a	n/a	n/a	n/a	n/a	n/a
5100982	RECOG_CONF	n/a	LTP179	ltpFR	0	4	n/a	DIPLOMA	470	n/a	2	n/a	n/a	n/a	n/a	n/a	n/a
5102461	RECOG_LURE	n/a	LTP179	ltpFR	0	4	n/a	PROTRACTOR	1133	0	2	n/a	n/a	n/a	n/a	n/a	n/a
5104495	RECOG_RESP	n/a	LTP179	ltpFR	0	4	n/a	PROTRACTOR	1133	0	n/a	n/a	n/a	n/a	n/a	n/a	n/a
5106631	RECOG_CONF	n/a	LTP179	ltpFR	0	4	n/a	PROTRACTOR	1133	n/a	2	n/a	n/a	n/a	n/a	n/a	n/a
5108133	RECOG_TARGET	n/a	LTP179	ltpFR	0	4	0	RAKE	1164	1	4	1	n/a	n/a	n/a	n/a	n/a
5110479	RECOG_RESP	n/a	LTP179	ltpFR	0	4	0	RAKE	1164	1	n/a	1	n/a	n/a	n/a	n/a	n/a
5112852	RECOG_CONF	n/a	LTP179	ltpFR	0	4	0	RAKE	1164	n/a	4	1	n/a	n/a	n/a	n/a	n/a
5114449	RECOG_TARGET	n/a	LTP179	ltpFR	0	4	1	CATERPILLAR	259	1	5	1	n/a	n/a	n/a	n/a	n/a
5115833	RECOG_RESP	n/a	LTP179	ltpFR	0	4	1	CATERPILLAR	259	1	n/a	1	n/a	n/a	n/a	n/a	n/a
5117232	RECOG_CONF	n/a	LTP179	ltpFR	0	4	1	CATERPILLAR	259	n/a	5	1	n/a	n/a	n/a	n/a	n/a
5118806	RECOG_TARGET	n/a	LTP179	ltpFR	0	4	0	THRONE	1461	1	4	1	n/a	n/a	n/a	n/a	n/a
5120124	RECOG_RESP	n/a	LTP179	ltpFR	0	4	0	THRONE	1461	1	n/a	1	n/a	n/a	n/a	n/a	n/a
5121359	RECOG_CONF	n/a	LTP179	ltpFR	0	4	0	THRONE	1461	n/a	4	1	n/a	n/a	n/a	n/a	n/a
5123170	RECOG_LURE	n/a	LTP179	ltpFR	0	4	n/a	CASTLE	256	0	2	n/a	n/a	n/a	n/a	n/a	n/a
5126804	RECOG_RESP	n/a	LTP179	ltpFR	0	4	n/a	CASTLE	256	0	n/a	n/a	n/a	n/a	n/a	n/a	n/a
5128082	RECOG_CONF	n/a	LTP179	ltpFR	0	4	n/a	CASTLE	256	n/a	2	n/a	n/a	n/a	n/a	n/a	n/a
5129727	RECOG_TARGET	n/a	LTP179	ltpFR	0	4	1	CHICKEN	297	1	5	1	n/a	n/a	n/a	n/a	n/a
5132253	RECOG_RESP	n/a	LTP179	ltpFR	0	4	1	CHICKEN	297	1	n/a	1	n/a	n/a	n/a	n/a	n/a
5134044	RECOG_CONF	n/a	LTP179	ltpFR	0	4	1	CHICKEN	297	n/a	5	1	n/a	n/a	n/a	n/a	n/a
5135666	RECOG_LURE	n/a	LTP179	ltpFR	0	4	n/a	SHRUB	1299	0	3	n/a	n/a	n/a	n/a	n/a	n/a
5137287	RECOG_RESP	n/a	LTP179	ltpFR	0	4	n/a	SHRUB	1299	0	n/a	n/a	n/a	n/a	n/a	n/a	n/a
5139092	RECOG_CONF	n/a	LTP179	ltpFR	0	4	n/a	SHRUB	1299	n/a	3	n/a	n/a	n/a	n/a	n/a	n/a
5140773	RECOG_TARGET	n/a	LTP179	ltpFR	0	4	-1	COD	340	1	5	-1	n/a	n/a	n/a	n/a	n/a
5142177	RECOG_RESP	n/a	LTP179	ltpFR	0	4	-1	COD	340	1	n/a	-1	n/a	n/a	n/a	n/a	n/a
5143682	RECOG_CONF	n/a	LTP179	ltpFR	0	4	-1	COD	340	n/a	5	-1	n/a	n/a	n/a	n/a	n/a
5158979	REC_START	n/a	LTP179	ltpFR	0	5	n/a	n/a	n/a	n/a	n/a	n/a	n/a	n/a	n/a	n/a	n/a
5159016	RECOG_LURE	n/a	LTP179	ltpFR	0	5	n/a	PAINTING	1005	0	1	n/a	n/a	n/a	n/a	n/a	n/a
5160681	RECOG_RESP	n/a	LTP179	ltpFR	0	5	n/a	PAINTING	1005	0	n/a	n/a	n/a	n/a	n/a	n/a	n/a
5162510	RECOG_CONF	n/a	LTP179	ltpFR	0	5	n/a	PAINTING	1005	n/a	1	n/a	n/a	n/a	n/a	n/a	n/a
5164098	RECOG_LURE	n/a	LTP179	ltpFR	0	5	n/a	PADDING	999	0	2	n/a	n/a	n/a	n/a	n/a	n/a
5166038	RECOG_RESP	n/a	LTP179	ltpFR	0	5	n/a	PADDING	999	0	n/a	n/a	n/a	n/a	n/a	n/a	n/a
5167345	RECOG_CONF	n/a	LTP179	ltpFR	0	5	n/a	PADDING	999	n/a	2	n/a	n/a	n/a	n/a	n/a	n/a
5169046	RECOG_TARGET	n/a	LTP179	ltpFR	0	5	0	DRAGON	492	1	5	1	n/a	n/a	n/a	n/a	n/a
5170397	RECOG_RESP	n/a	LTP179	ltpFR	0	5	0	DRAGON	492	1	n/a	1	n/a	n/a	n/a	n/a	n/a
5171691	RECOG_CONF	n/a	LTP179	ltpFR	0	5	0	DRAGON	492	n/a	5	1	n/a	n/a	n/a	n/a	n/a
5173420	RECOG_LURE	n/a	LTP179	ltpFR	0	5	n/a	SECRETARY	1265	0	3	n/a	n/a	n/a	n/a	n/a	n/a
5175480	RECOG_RESP	n/a	LTP179	ltpFR	0	5	n/a	SECRETARY	1265	0	n/a	n/a	n/a	n/a	n/a	n/a	n/a
5176639	RECOG_CONF	n/a	LTP179	ltpFR	0	5	n/a	SECRETARY	1265	n/a	3	n/a	n/a	n/a	n/a	n/a	n/a
5178226	RECOG_TARGET	n/a	LTP179	ltpFR	0	5	0	VOLLEYBALL	1576	1	3	2	n/a	n/a	n/a	n/a	n/a
5179827	RECOG_RESP	n/a	LTP179	ltpFR	0	5	0	VOLLEYBALL	1576	1	n/a	2	n/a	n/a	n/a	n/a	n/a
5181739	RECOG_CONF	n/a	LTP179	ltpFR	0	5	0	VOLLEYBALL	1576	n/a	3	2	n/a	n/a	n/a	n/a	n/a
5183299	RECOG_LURE	n/a	LTP179	ltpFR	0	5	n/a	ROOMMATE	1207	0	1	n/a	n/a	n/a	n/a	n/a	n/a
5184919	RECOG_RESP	n/a	LTP179	ltpFR	0	5	n/a	ROOMMATE	1207	0	n/a	n/a	n/a	n/a	n/a	n/a	n/a
5186491	RECOG_CONF	n/a	LTP179	ltpFR	0	5	n/a	ROOMMATE	1207	n/a	1	n/a	n/a	n/a	n/a	n/a	n/a
5188147	RECOG_TARGET	n/a	LTP179	ltpFR	0	5	-1	MASCARA	875	1	5	-1	n/a	n/a	n/a	n/a	n/a
5190178	RECOG_RESP	n/a	LTP179	ltpFR	0	5	-1	MASCARA	875	1	n/a	-1	n/a	n/a	n/a	n/a	n/a
5191798	RECOG_CONF	n/a	LTP179	ltpFR	0	5	-1	MASCARA	875	n/a	5	-1	n/a	n/a	n/a	n/a	n/a
5193546	RECOG_LURE	n/a	LTP179	ltpFR	0	5	n/a	QUILT	1151	0	3	n/a	n/a	n/a	n/a	n/a	n/a
5194951	RECOG_RESP	n/a	LTP179	ltpFR	0	5	n/a	QUILT	1151	0	n/a	n/a	n/a	n/a	n/a	n/a	n/a
5196305	RECOG_CONF	n/a	LTP179	ltpFR	0	5	n/a	QUILT	1151	n/a	3	n/a	n/a	n/a	n/a	n/a	n/a
5197844	RECOG_TARGET	n/a	LTP179	ltpFR	0	5	0	TIDE	1465	1	5	1	n/a	n/a	n/a	n/a	n/a
5199738	RECOG_RESP	n/a	LTP179	ltpFR	0	5	0	TIDE	1465	1	n/a	1	n/a	n/a	n/a	n/a	n/a
5201856	RECOG_CONF	n/a	LTP179	ltpFR	0	5	0	TIDE	1465	n/a	5	1	n/a	n/a	n/a	n/a	n/a
5203409	RECOG_LURE	n/a	LTP179	ltpFR	0	5	n/a	TUB	1514	0	2	n/a	n/a	n/a	n/a	n/a	n/a
5205621	RECOG_RESP	n/a	LTP179	ltpFR	0	5	n/a	TUB	1514	0	n/a	n/a	n/a	n/a	n/a	n/a	n/a
5206954	RECOG_CONF	n/a	LTP179	ltpFR	0	5	n/a	TUB	1514	n/a	2	n/a	n/a	n/a	n/a	n/a	n/a
5208599	RECOG_TARGET	n/a	LTP179	ltpFR	0	5	0	FLIPPER	580	1	5	0	n/a	n/a	n/a	n/a	n/a
5210717	RECOG_RESP	n/a	LTP179	ltpFR	0	5	0	FLIPPER	580	1	n/a	0	n/a	n/a	n/a	n/a	n/a
5212552	RECOG_CONF	n/a	LTP179	ltpFR	0	5	0	FLIPPER	580	n/a	5	0	n/a	n/a	n/a	n/a	n/a
5214830	RECOG_TARGET	n/a	LTP179	ltpFR	0	5	-1	GROUND	666	1	3	-1	n/a	n/a	n/a	n/a	n/a
5216487	RECOG_RESP	n/a	LTP179	ltpFR	0	5	-1	GROUND	666	1	n/a	-1	n/a	n/a	n/a	n/a	n/a
5218294	RECOG_CONF	n/a	LTP179	ltpFR	0	5	-1	GROUND	666	n/a	3	-1	n/a	n/a	n/a	n/a	n/a
5220036	RECOG_LURE	n/a	LTP179	ltpFR	0	5	n/a	PENDULUM	1043	0	2	n/a	n/a	n/a	n/a	n/a	n/a
5221704	RECOG_RESP	n/a	LTP179	ltpFR	0	5	n/a	PENDULUM	1043	0	n/a	n/a	n/a	n/a	n/a	n/a	n/a
5223933	RECOG_CONF	n/a	LTP179	ltpFR	0	5	n/a	PENDULUM	1043	n/a	2	n/a	n/a	n/a	n/a	n/a	n/a
5225476	RECOG_LURE	n/a	LTP179	ltpFR	0	5	n/a	WALLET	1583	0	1	n/a	n/a	n/a	n/a	n/a	n/a
5229410	RECOG_RESP	n/a	LTP179	ltpFR	0	5	n/a	WALLET	1583	0	n/a	n/a	n/a	n/a	n/a	n/a	n/a
5231479	RECOG_CONF	n/a	LTP179	ltpFR	0	5	n/a	WALLET	1583	n/a	1	n/a	n/a	n/a	n/a	n/a	n/a
5233139	RECOG_TARGET	n/a	LTP179	ltpFR	0	5	1	VAN	1548	1	5	0	n/a	n/a	n/a	n/a	n/a
5234749	RECOG_RESP	n/a	LTP179	ltpFR	0	5	1	VAN	1548	1	n/a	0	n/a	n/a	n/a	n/a	n/a
5236298	RECOG_CONF	n/a	LTP179	ltpFR	0	5	1	VAN	1548	n/a	5	0	n/a	n/a	n/a	n/a	n/a
5238105	RECOG_TARGET	n/a	LTP179	ltpFR	0	5	-1	SNACK	1331	1	2	-1	n/a	n/a	n/a	n/a	n/a
5244190	RECOG_RESP	n/a	LTP179	ltpFR	0	5	-1	SNACK	1331	1	n/a	-1	n/a	n/a	n/a	n/a	n/a
5245466	RECOG_CONF	n/a	LTP179	ltpFR	0	5	-1	SNACK	1331	n/a	2	-1	n/a	n/a	n/a	n/a	n/a
5247192	RECOG_TARGET	n/a	LTP179	ltpFR	0	5	1	GRADUATE	653	1	5	1	n/a	n/a	n/a	n/a	n/a
5248537	RECOG_RESP	n/a	LTP179	ltpFR	0	5	1	GRADUATE	653	1	n/a	1	n/a	n/a	n/a	n/a	n/a
5249794	RECOG_CONF	n/a	LTP179	ltpFR	0	5	1	GRADUATE	653	n/a	5	1	n/a	n/a	n/a	n/a	n/a
5251509	RECOG_TARGET	n/a	LTP179	ltpFR	0	5	0	CLIFF	322	1	5	1	n/a	n/a	n/a	n/a	n/a
5252764	RECOG_RESP	n/a	LTP179	ltpFR	0	5	0	CLIFF	322	1	n/a	1	n/a	n/a	n/a	n/a	n/a
5254151	RECOG_CONF	n/a	LTP179	ltpFR	0	5	0	CLIFF	322	n/a	5	1	n/a	n/a	n/a	n/a	n/a
5255757	RECOG_LURE	n/a	LTP179	ltpFR	0	5	n/a	MOLECULE	905	0	3	n/a	n/a	n/a	n/a	n/a	n/a
5257213	RECOG_RESP	n/a	LTP179	ltpFR	0	5	n/a	MOLECULE	905	0	n/a	n/a	n/a	n/a	n/a	n/a	n/a
5258493	RECOG_CONF	n/a	LTP179	ltpFR	0	5	n/a	MOLECULE	905	n/a	3	n/a	n/a	n/a	n/a	n/a	n/a
5260179	RECOG_TARGET	n/a	LTP179	ltpFR	0	5	1	TROPHY	1509	1	5	0	n/a	n/a	n/a	n/a	n/a
5261554	RECOG_RESP	n/a	LTP179	ltpFR	0	5	1	TROPHY	1509	1	n/a	0	n/a	n/a	n/a	n/a	n/a
5263276	RECOG_CONF	n/a	LTP179	ltpFR	0	5	1	TROPHY	1509	n/a	5	0	n/a	n/a	n/a	n/a	n/a
5275951	REC_START	n/a	LTP179	ltpFR	0	6	n/a	n/a	n/a	n/a	n/a	n/a	n/a	n/a	n/a	n/a	n/a
5275983	RECOG_LURE	n/a	LTP179	ltpFR	0	6	n/a	HOUSE	725	0	3	n/a	n/a	n/a	n/a	n/a	n/a
5278282	RECOG_RESP	n/a	LTP179	ltpFR	0	6	n/a	HOUSE	725	0	n/a	n/a	n/a	n/a	n/a	n/a	n/a
5279792	RECOG_CONF	n/a	LTP179	ltpFR	0	6	n/a	HOUSE	725	n/a	3	n/a	n/a	n/a	n/a	n/a	n/a
5281456	RECOG_LURE	n/a	LTP179	ltpFR	0	6	n/a	BEARD	107	0	3	n/a	n/a	n/a	n/a	n/a	n/a
5282899	RECOG_RESP	n/a	LTP179	ltpFR	0	6	n/a	BEARD	107	0	n/a	n/a	n/a	n/a	n/a	n/a	n/a
5284989	RECOG_CONF	n/a	LTP179	ltpFR	0	6	n/a	BEARD	107	n/a	3	n/a	n/a	n/a	n/a	n/a	n/a
5286513	RECOG_TARGET	n/a	LTP179	ltpFR	0	6	1	CRAB	397	0	2	1	n/a	n/a	n/a	n/a	n/a
5289928	RECOG_RESP	n/a	LTP179	ltpFR	0	6	1	CRAB	397	0	n/a	1	n/a	n/a	n/a	n/a	n/a
5291155	RECOG_CONF	n/a	LTP179	ltpFR	0	6	1	CRAB	397	n/a	2	1	n/a	n/a	n/a	n/a	n/a
5292711	RECOG_TARGET	n/a	LTP179	ltpFR	0	6	-1	TRUMPET	1513	1	3	-1	n/a	n/a	n/a	n/a	n/a
5295119	RECOG_RESP	n/a	LTP179	ltpFR	0	6	-1	TRUMPET	1513	1	n/a	-1	n/a	n/a	n/a	n/a	n/a
5297131	RECOG_CONF	n/a	LTP179	ltpFR	0	6	-1	TRUMPET	1513	n/a	3	-1	n/a	n/a	n/a	n/a	n/a
5298792	RECOG_LURE	n/a	LTP179	ltpFR	0	6	n/a	DANDRUFF	439	0	5	n/a	n/a	n/a	n/a	n/a	n/a
5300149	RECOG_RESP	n/a	LTP179	ltpFR	0	6	n/a	DANDRUFF	439	0	n/a	n/a	n/a	n/a	n/a	n/a	n/a
5301420	RECOG_CONF	n/a	LTP179	ltpFR	0	6	n/a	DANDRUFF	439	n/a	5	n/a	n/a	n/a	n/a	n/a	n/a
5303049	RECOG_TARGET	n/a	LTP179	ltpFR	0	6	0	TAVERN	1437	0	1	1	n/a	n/a	n/a	n/a	n/a
5306851	RECOG_RESP	n/a	LTP179	ltpFR	0	6	0	TAVERN	1437	0	n/a	1	n/a	n/a	n/a	n/a	n/a
5308007	RECOG_CONF	n/a	LTP179	ltpFR	0	6	0	TAVERN	1437	n/a	1	1	n/a	n/a	n/a	n/a	n/a
5309721	RECOG_LURE	n/a	LTP179	ltpFR	0	6	n/a	LETTUCE	814	0	2	n/a	n/a	n/a	n/a	n/a	n/a
5311570	RECOG_RESP	n/a	LTP179	ltpFR	0	6	n/a	LETTUCE	814	0	n/a	n/a	n/a	n/a	n/a	n/a	n/a
5312738	RECOG_CONF	n/a	LTP179	ltpFR	0	6	n/a	LETTUCE	814	n/a	2	n/a	n/a	n/a	n/a	n/a	n/a
5314286	RECOG_LURE	n/a	LTP179	ltpFR	0	6	n/a	SLEEVE	1324	0	1	n/a	n/a	n/a	n/a	n/a	n/a
5316649	RECOG_RESP	n/a	LTP179	ltpFR	0	6	n/a	SLEEVE	1324	0	n/a	n/a	n/a	n/a	n/a	n/a	n/a
5317929	RECOG_CONF	n/a	LTP179	ltpFR	0	6	n/a	SLEEVE	1324	n/a	1	n/a	n/a	n/a	n/a	n/a	n/a
5319476	RECOG_LURE	n/a	LTP179	ltpFR	0	6	n/a	SPOUSE	1358	0	4	n/a	n/a	n/a	n/a	n/a	n/a
5321922	RECOG_RESP	n/a	LTP179	ltpFR	0	6	n/a	SPOUSE	1358	0	n/a	n/a	n/a	n/a	n/a	n/a	n/a
5323083	RECOG_CONF	n/a	LTP179	ltpFR	0	6	n/a	SPOUSE	1358	n/a	4	n/a	n/a	n/a	n/a	n/a	n/a
5324883	RECOG_LURE	n/a	LTP179	ltpFR	0	6	n/a	EMPLOYER	532	0	1	n/a	n/a	n/a	n/a	n/a	n/a
5328011	RECOG_RESP	n/a	LTP179	ltpFR	0	6	n/a	EMPLOYER	532	0	n/a	n/a	n/a	n/a	n/a	n/a	n/a
5329153	RECOG_CONF	n/a	LTP179	ltpFR	0	6	n/a	EMPLOYER	532	n/a	1	n/a	n/a	n/a	n/a	n/a	n/a
5330805	RECOG_TARGET	n/a	LTP179	ltpFR	0	6	1	CACTUS	215	1	5	1	n/a	n/a	n/a	n/a	n/a
5332684	RECOG_RESP	n/a	LTP179	ltpFR	0	6	1	CACTUS	215	1	n/a	1	n/a	n/a	n/a	n/a	n/a
5334590	RECOG_CONF	n/a	LTP179	ltpFR	0	6	1	CACTUS	215	n/a	5	1	n/a	n/a	n/a	n/a	n/a
5336362	RECOG_LURE	n/a	LTP179	ltpFR	0	6	n/a	EAR	513	0	1	n/a	n/a	n/a	n/a	n/a	n/a
5338200	RECOG_RESP	n/a	LTP179	ltpFR	0	6	n/a	EAR	513	0	n/a	n/a	n/a	n/a	n/a	n/a	n/a
5339858	RECOG_CONF	n/a	LTP179	ltpFR	0	6	n/a	EAR	513	n/a	1	n/a	n/a	n/a	n/a	n/a	n/a
5341485	RECOG_LURE	n/a	LTP179	ltpFR	0	6	n/a	LAUNDRY	803	0	4	n/a	n/a	n/a	n/a	n/a	n/a
5342605	RECOG_RESP	n/a	LTP179	ltpFR	0	6	n/a	LAUNDRY	803	0	n/a	n/a	n/a	n/a	n/a	n/a	n/a
5343851	RECOG_CONF	n/a	LTP179	ltpFR	0	6	n/a	LAUNDRY	803	n/a	4	n/a	n/a	n/a	n/a	n/a	n/a
5345459	RECOG_LURE	n/a	LTP179	ltpFR	0	6	n/a	BENCH	121	0	2	n/a	n/a	n/a	n/a	n/a	n/a
5347508	RECOG_RESP	n/a	LTP179	ltpFR	0	6	n/a	BENCH	121	0	n/a	n/a	n/a	n/a	n/a	n/a	n/a
5348879	RECOG_CONF	n/a	LTP179	ltpFR	0	6	n/a	BENCH	121	n/a	2	n/a	n/a	n/a	n/a	n/a	n/a
5350457	RECOG_LURE	n/a	LTP179	ltpFR	0	6	n/a	CANE	231	0	3	n/a	n/a	n/a	n/a	n/a	n/a
5352403	RECOG_RESP	n/a	LTP179	ltpFR	0	6	n/a	CANE	231	0	n/a	n/a	n/a	n/a	n/a	n/a	n/a
5353988	RECOG_CONF	n/a	LTP179	ltpFR	0	6	n/a	CANE	231	n/a	3	n/a	n/a	n/a	n/a	n/a	n/a
5355672	RECOG_TARGET	n/a	LTP179	ltpFR	0	6	1	INTESTINE	742	0	1	1	n/a	n/a	n/a	n/a	n/a
5364969	RECOG_RESP	n/a	LTP179	ltpFR	0	6	1	INTESTINE	742	0	n/a	1	n/a	n/a	n/a	n/a	n/a
5366098	RECOG_CONF	n/a	LTP179	ltpFR	0	6	1	INTESTINE	742	n/a	1	1	n/a	n/a	n/a	n/a	n/a
5367892	RECOG_TARGET	n/a	LTP179	ltpFR	0	6	1	CITIZEN	312	0	4	1	n/a	n/a	n/a	n/a	n/a
5369651	RECOG_RESP	n/a	LTP179	ltpFR	0	6	1	CITIZEN	312	0	n/a	1	n/a	n/a	n/a	n/a	n/a
5371388	RECOG_CONF	n/a	LTP179	ltpFR	0	6	1	CITIZEN	312	n/a	4	1	n/a	n/a	n/a	n/a	n/a
5373066	RECOG_TARGET	n/a	LTP179	ltpFR	0	6	0	TOAD	1470	1	5	0	n/a	n/a	n/a	n/a	n/a
5374663	RECOG_RESP	n/a	LTP179	ltpFR	0	6	0	TOAD	1470	1	n/a	0	n/a	n/a	n/a	n/a	n/a
5375959	RECOG_CONF	n/a	LTP179	ltpFR	0	6	0	TOAD	1470	n/a	5	0	n/a	n/a	n/a	n/a	n/a
5377581	RECOG_LURE	n/a	LTP179	ltpFR	0	6	n/a	BOULDER	155	1	1	n/a	n/a	n/a	n/a	n/a	n/a
5381419	RECOG_RESP	n/a	LTP179	ltpFR	0	6	n/a	BOULDER	155	1	n/a	n/a	n/a	n/a	n/a	n/a	n/a
5383541	RECOG_CONF	n/a	LTP179	ltpFR	0	6	n/a	BOULDER	155	n/a	1	n/a	n/a	n/a	n/a	n/a	n/a
5385261	RECOG_LURE	n/a	LTP179	ltpFR	0	6	n/a	LAGOON	795	0	2	n/a	n/a	n/a	n/a	n/a	n/a
5388649	RECOG_RESP	n/a	LTP179	ltpFR	0	6	n/a	LAGOON	795	0	n/a	n/a	n/a	n/a	n/a	n/a	n/a
5389922	RECOG_CONF	n/a	LTP179	ltpFR	0	6	n/a	LAGOON	795	n/a	2	n/a	n/a	n/a	n/a	n/a	n/a
5399889	REC_START	n/a	LTP179	ltpFR	0	7	n/a	n/a	n/a	n/a	n/a	n/a	n/a	n/a	n/a	n/a	n/a
5399923	RECOG_LURE	n/a	LTP179	ltpFR	0	7	n/a	LUNG	850	0	3	n/a	n/a	n/a	n/a	n/a	n/a
5401562	RECOG_RESP	n/a	LTP179	ltpFR	0	7	n/a	LUNG	850	0	n/a	n/a	n/a	n/a	n/a	n/a	n/a
5402837	RECOG_CONF	n/a	LTP179	ltpFR	0	7	n/a	LUNG	850	n/a	3	n/a	n/a	n/a	n/a	n/a	n/a
5404529	RECOG_TARGET	n/a	LTP179	ltpFR	0	7	0	SEAGULL	1261	1	5	1	n/a	n/a	n/a	n/a	n/a
5405969	RECOG_RESP	n/a	LTP179	ltpFR	0	7	0	SEAGULL	1261	1	n/a	1	n/a	n/a	n/a	n/a	n/a
5407347	RECOG_CONF	n/a	LTP179	ltpFR	0	7	0	SEAGULL	1261	n/a	5	1	n/a	n/a	n/a	n/a	n/a
5408961	RECOG_LURE	n/a	LTP179	ltpFR	0	7	n/a	POCKET	1093	0	2	n/a	n/a	n/a	n/a	n/a	n/a
5410749	RECOG_RESP	n/a	LTP179	ltpFR	0	7	n/a	POCKET	1093	0	n/a	n/a	n/a	n/a	n/a	n/a	n/a
5412097	RECOG_CONF	n/a	LTP179	ltpFR	0	7	n/a	POCKET	1093	n/a	2	n/a	n/a	n/a	n/a	n/a	n/a
5413593	RECOG_TARGET	n/a	LTP179	ltpFR	0	7	1	DINNER	468	0	1	0	n/a	n/a	n/a	n/a	n/a
5419685	RECOG_RESP	n/a	LTP179	ltpFR	0	7	1	DINNER	468	0	n/a	0	n/a	n/a	n/a	n/a	n/a
5420942	RECOG_CONF	n/a	LTP179	ltpFR	0	7	1	DINNER	468	n/a	1	0	n/a	n/a	n/a	n/a	n/a
5422598	RECOG_TARGET	n/a	LTP179	ltpFR	0	7	-1	COSTUME	383	1	5	-1	n/a	n/a	n/a	n/a	n/a
5425041	RECOG_RESP	n/a	LTP179	ltpFR	0	7	-1	COSTUME	383	1	n/a	-1	n/a	n/a	n/a	n/a	n/a
5426403	RECOG_CONF	n/a	LTP179	ltpFR	0	7	-1	COSTUME	383	n/a	5	-1	n/a	n/a	n/a	n/a	n/a
5428088	RECOG_LURE	n/a	LTP179	ltpFR	0	7	n/a	ZEBRA	1635	0	4	n/a	n/a	n/a	n/a	n/a	n/a
5429999	RECOG_RESP	n/a	LTP179	ltpFR	0	7	n/a	ZEBRA	1635	0	n/a	n/a	n/a	n/a	n/a	n/a	n/a
5431622	RECOG_CONF	n/a	LTP179	ltpFR	0	7	n/a	ZEBRA	1635	n/a	4	n/a	n/a	n/a	n/a	n/a	n/a
5433236	RECOG_TARGET	n/a	LTP179	ltpFR	0	7	0	CABBAGE	210	1	4	0	n/a	n/a	n/a	n/a	n/a
5435614	RECOG_RESP	n/a	LTP179	ltpFR	0	7	0	CABBAGE	210	1	n/a	0	n/a	n/a	n/a	n/a	n/a
5437728	RECOG_CONF	n/a	LTP179	ltpFR	0	7	0	CABBAGE	210	n/a	4	0	n/a	n/a	n/a	n/a	n/a
5439584	RECOG_LURE	n/a	LTP179	ltpFR	0	7	n/a	LACE	792	0	2	n/a	n/a	n/a	n/a	n/a	n/a
5441489	RECOG_RESP	n/a	LTP179	ltpFR	0	7	n/a	LACE	792	0	n/a	n/a	n/a	n/a	n/a	n/a	n/a
5443155	RECOG_CONF	n/a	LTP179	ltpFR	0	7	n/a	LACE	792	n/a	2	n/a	n/a	n/a	n/a	n/a	n/a
5444732	RECOG_LURE	n/a	LTP179	ltpFR	0	7	n/a	COFFIN	342	0	1	n/a	n/a	n/a	n/a	n/a	n/a
5446914	RECOG_RESP	n/a	LTP179	ltpFR	0	7	n/a	COFFIN	342	0	n/a	n/a	n/a	n/a	n/a	n/a	n/a
5448763	RECOG_CONF	n/a	LTP179	ltpFR	0	7	n/a	COFFIN	342	n/a	1	n/a	n/a	n/a	n/a	n/a	n/a
5450388	RECOG_LURE	n/a	LTP179	ltpFR	0	7	n/a	SHERIFF	1284	0	5	n/a	n/a	n/a	n/a	n/a	n/a
5452593	RECOG_RESP	n/a	LTP179	ltpFR	0	7	n/a	SHERIFF	1284	0	n/a	n/a	n/a	n/a	n/a	n/a	n/a
5454399	RECOG_CONF	n/a	LTP179	ltpFR	0	7	n/a	SHERIFF	1284	n/a	5	n/a	n/a	n/a	n/a	n/a	n/a
5455911	RECOG_LURE	n/a	LTP179	ltpFR	0	7	n/a	PELT	1040	0	2	n/a	n/a	n/a	n/a	n/a	n/a
5459632	RECOG_RESP	n/a	LTP179	ltpFR	0	7	n/a	PELT	1040	0	n/a	n/a	n/a	n/a	n/a	n/a	n/a
5460865	RECOG_CONF	n/a	LTP179	ltpFR	0	7	n/a	PELT	1040	n/a	2	n/a	n/a	n/a	n/a	n/a	n/a
5462484	RECOG_TARGET	n/a	LTP179	ltpFR	0	7	1	PALM	1007	1	4	1	n/a	n/a	n/a	n/a	n/a
5464387	RECOG_RESP	n/a	LTP179	ltpFR	0	7	1	PALM	1007	1	n/a	1	n/a	n/a	n/a	n/a	n/a
5465971	RECOG_CONF	n/a	LTP179	ltpFR	0	7	1	PALM	1007	n/a	4	1	n/a	n/a	n/a	n/a	n/a
5467740	RECOG_LURE	n/a	LTP179	ltpFR	0	7	n/a	ATTORNEY	58	0	2	n/a	n/a	n/a	n/a	n/a	n/a
5469746	RECOG_RESP	n/a	LTP179	ltpFR	0	7	n/a	ATTORNEY	58	0	n/a	n/a	n/a	n/a	n/a	n/a	n/a
5471279	RECOG_CONF	n/a	LTP179	ltpFR	0	7	n/a	ATTORNEY	58	n/a	2	n/a	n/a	n/a	n/a	n/a	n/a
5472830	RECOG_TARGET	n/a	LTP179	ltpFR	0	7	0	SEAL	1262	1	5	1	n/a	n/a	n/a	n/a	n/a
5474730	RECOG_RESP	n/a	LTP179	ltpFR	0	7	0	SEAL	1262	1	n/a	1	n/a	n/a	n/a	n/a	n/a
5476227	RECOG_CONF	n/a	LTP179	ltpFR	0	7	0	SEAL	1262	n/a	5	1	n/a	n/a	n/a	n/a	n/a
5478312	RECOG_LURE	n/a	LTP179	ltpFR	0	7	n/a	VITAMIN	1574	0	3	n/a	n/a	n/a	n/a	n/a	n/a
5479686	RECOG_RESP	n/a	LTP179	ltpFR	0	7	n/a	VITAMIN	1574	0	n/a	n/a	n/a	n/a	n/a	n/a	n/a
5481399	RECOG_CONF	n/a	LTP179	ltpFR	0	7	n/a	VITAMIN	1574	n/a	3	n/a	n/a	n/a	n/a	n/a	n/a
5483043	RECOG_LURE	n/a	LTP179	ltpFR	0	7	n/a	CUSTARD	429	0	2	n/a	n/a	n/a	n/a	n/a	n/a
5485105	RECOG_RESP	n/a	LTP179	ltpFR	0	7	n/a	CUSTARD	429	0	n/a	n/a	n/a	n/a	n/a	n/a	n/a
5486424	RECOG_CONF	n/a	LTP179	ltpFR	0	7	n/a	CUSTARD	429	n/a	2	n/a	n/a	n/a	n/a	n/a	n/a
5488108	RECOG_TARGET	n/a	LTP179	ltpFR	0	7	0	NECKLACE	940	0	4	n/a	n/a	n/a	n/a	n/a	n/a
