onset	duration	trial_type	sample	stim_file	subject	experiment	session	trial	item_name	item_num	list	answer	test_x	test_y	test_z
225.466	n/a	SESS_START	112733	n/a	LTP250	ltpFR2	5	n/a	n/a	n/a	n/a	n/a	0	0	0
238.162	n/a	START	119081	n/a	LTP250	ltpFR2	5	n/a	n/a	n/a	-1	n/a	n/a	n/a	n/a
238.194	n/a	PROB	119097	n/a	LTP250	ltpFR2	5	n/a	n/a	n/a	-1	10	2	6	2
240.312	n/a	PROB	120156	n/a	LTP250	ltpFR2	5	n/a	n/a	n/a	-1	17	2	6	9
242.296	n/a	PROB	121148	n/a	LTP250	ltpFR2	5	n/a	n/a	n/a	-1	12	3	7	2
243.582	n/a	PROB	121791	n/a	LTP250	ltpFR2	5	n/a	n/a	n/a	-1	14	7	5	2
246.002	n/a	PROB	123001	n/a	LTP250	ltpFR2	5	n/a	n/a	n/a	-1	14	4	5	5
247.468	n/a	PROB	123734	n/a	LTP250	ltpFR2	5	n/a	n/a	n/a	-1	11	1	6	4
250.162	n/a	STOP	125081	n/a	LTP250	ltpFR2	5	n/a	n/a	n/a	-1	n/a	n/a	n/a	n/a
280.264	n/a	WORD	140132	wordpools/wasnorm_wordpool_576.txt	LTP250	ltpFR2	5	1	BODY	145	n/a	n/a	0	0	0
283.082	n/a	WORD	141541	wordpools/wasnorm_wordpool_576.txt	LTP250	ltpFR2	5	1	HELMET	702	n/a	n/a	0	0	0
285.534	n/a	WORD	142767	wordpools/wasnorm_wordpool_576.txt	LTP250	ltpFR2	5	1	OINTMENT	974	n/a	n/a	0	0	0
288.054	n/a	WORD	144027	wordpools/wasnorm_wordpool_576.txt	LTP250	ltpFR2	5	1	BISON	131	n/a	n/a	0	0	0
290.504	n/a	WORD	145252	wordpools/wasnorm_wordpool_576.txt	LTP250	ltpFR2	5	1	SWIMMER	1420	n/a	n/a	0	0	0
293.29	n/a	WORD	146645	wordpools/wasnorm_wordpool_576.txt	LTP250	ltpFR2	5	1	KIDNEY	776	n/a	n/a	0	0	0
296.026	n/a	WORD	148013	wordpools/wasnorm_wordpool_576.txt	LTP250	ltpFR2	5	1	FINGER	567	n/a	n/a	0	0	0
298.512	n/a	WORD	149256	wordpools/wasnorm_wordpool_576.txt	LTP250	ltpFR2	5	1	MILDEW	893	n/a	n/a	0	0	0
301.032	n/a	WORD	150516	wordpools/wasnorm_wordpool_576.txt	LTP250	ltpFR2	5	1	CABBAGE	210	n/a	n/a	0	0	0
303.584	n/a	WORD	151792	wordpools/wasnorm_wordpool_576.txt	LTP250	ltpFR2	5	1	EXPERT	543	n/a	n/a	0	0	0
306.052	n/a	WORD	153026	wordpools/wasnorm_wordpool_576.txt	LTP250	ltpFR2	5	1	GAZELLE	628	n/a	n/a	0	0	0
308.738	n/a	WORD	154369	wordpools/wasnorm_wordpool_576.txt	LTP250	ltpFR2	5	1	GLOVE	642	n/a	n/a	0	0	0
311.356	n/a	WORD	155678	wordpools/wasnorm_wordpool_576.txt	LTP250	ltpFR2	5	1	CASKET	255	n/a	n/a	0	0	0
314.044	n/a	WORD	157022	wordpools/wasnorm_wordpool_576.txt	LTP250	ltpFR2	5	1	TOMBSTONE	1478	n/a	n/a	0	0	0
316.578	n/a	WORD	158289	wordpools/wasnorm_wordpool_576.txt	LTP250	ltpFR2	5	1	HUMAN	726	n/a	n/a	0	0	0
319.264	n/a	WORD	159632	wordpools/wasnorm_wordpool_576.txt	LTP250	ltpFR2	5	1	BARLEY	88	n/a	n/a	0	0	0
322.05	n/a	WORD	161025	wordpools/wasnorm_wordpool_576.txt	LTP250	ltpFR2	5	1	PRINCE	1124	n/a	n/a	0	0	0
324.534	n/a	WORD	162267	wordpools/wasnorm_wordpool_576.txt	LTP250	ltpFR2	5	1	SIBLING	1301	n/a	n/a	0	0	0
327.136	n/a	WORD	163568	wordpools/wasnorm_wordpool_576.txt	LTP250	ltpFR2	5	1	BULLET	194	n/a	n/a	0	0	0
329.788	n/a	WORD	164894	wordpools/wasnorm_wordpool_576.txt	LTP250	ltpFR2	5	1	LION	827	n/a	n/a	0	0	0
332.358	n/a	WORD	166179	wordpools/wasnorm_wordpool_576.txt	LTP250	ltpFR2	5	1	CLOCK	325	n/a	n/a	0	0	0
334.828	n/a	WORD	167414	wordpools/wasnorm_wordpool_576.txt	LTP250	ltpFR2	5	1	JUDGE	761	n/a	n/a	0	0	0
337.38	n/a	WORD	168690	wordpools/wasnorm_wordpool_576.txt	LTP250	ltpFR2	5	1	ARMY	39	n/a	n/a	0	0	0
339.898	n/a	WORD	169949	wordpools/wasnorm_wordpool_576.txt	LTP250	ltpFR2	5	1	OZONE	996	n/a	n/a	0	0	0
341.516	n/a	START	170758	n/a	LTP250	ltpFR2	5	n/a	n/a	n/a	1	n/a	n/a	n/a	n/a
342.678	n/a	DISTRACTOR	171339	n/a	LTP250	ltpFR2	5	1	n/a	n/a	n/a	n/a	0	0	0
342.7	n/a	PROB	171350	n/a	LTP250	ltpFR2	5	n/a	n/a	n/a	1	10	5	3	2
344.468	n/a	PROB	172234	n/a	LTP250	ltpFR2	5	n/a	n/a	n/a	1	10	1	2	7
345.838	n/a	PROB	172919	n/a	LTP250	ltpFR2	5	n/a	n/a	n/a	1	15	6	5	4
347.404	n/a	PROB	173702	n/a	LTP250	ltpFR2	5	n/a	n/a	n/a	1	17	6	3	8
349.406	n/a	PROB	174703	n/a	LTP250	ltpFR2	5	n/a	n/a	n/a	1	19	6	6	7
351.274	n/a	PROB	175637	n/a	LTP250	ltpFR2	5	n/a	n/a	n/a	1	11	9	1	1
352.658	n/a	PROB	176329	n/a	LTP250	ltpFR2	5	n/a	n/a	n/a	1	7	4	1	2
355.278	n/a	PROB	177639	n/a	LTP250	ltpFR2	5	n/a	n/a	n/a	1	9	2	4	3
357.98	n/a	PROB	178990	n/a	LTP250	ltpFR2	5	n/a	n/a	n/a	1	12	2	2	8
359.398	n/a	PROB	179699	n/a	LTP250	ltpFR2	5	n/a	n/a	n/a	1	8	2	3	3
361.084	n/a	PROB	180542	n/a	LTP250	ltpFR2	5	n/a	n/a	n/a	1	20	7	9	4
365.4	n/a	STOP	182700	n/a	LTP250	ltpFR2	5	n/a	n/a	n/a	1	n/a	n/a	n/a	n/a
367.438	n/a	REC_START	183719	n/a	LTP250	ltpFR2	5	1	n/a	n/a	n/a	n/a	0	0	0
368.394	n/a	REC_WORD	184197	wordpools/wasnorm_wordpool_576.txt	LTP250	ltpFR2	5	1	BODY	145	n/a	n/a	0	0	0
368.886	n/a	REC_WORD	184443	wordpools/wasnorm_wordpool_576.txt	LTP250	ltpFR2	5	1	HUMAN	726	n/a	n/a	0	0	0
369.586	n/a	REC_WORD	184793	wordpools/wasnorm_wordpool_576.txt	LTP250	ltpFR2	5	1	CASKET	255	n/a	n/a	0	0	0
370.342	n/a	REC_WORD	185171	wordpools/wasnorm_wordpool_576.txt	LTP250	ltpFR2	5	1	GLOVE	642	n/a	n/a	0	0	0
371.07	n/a	REC_WORD	185535	wordpools/wasnorm_wordpool_576.txt	LTP250	ltpFR2	5	1	TOMBSTONE	1478	n/a	n/a	0	0	0
372.148	n/a	REC_WORD	186074	wordpools/wasnorm_wordpool_576.txt	LTP250	ltpFR2	5	1	PRINCE	1124	n/a	n/a	0	0	0
372.898	n/a	REC_WORD	186449	wordpools/wasnorm_wordpool_576.txt	LTP250	ltpFR2	5	1	BARLEY	88	n/a	n/a	0	0	0
458.1	n/a	WORD	229050	wordpools/wasnorm_wordpool_576.txt	LTP250	ltpFR2	5	2	SCARECROW	1245	n/a	n/a	0	0	0
460.568	n/a	WORD	230284	wordpools/wasnorm_wordpool_576.txt	LTP250	ltpFR2	5	2	MARINE	869	n/a	n/a	0	0	0
463.236	n/a	WORD	231618	wordpools/wasnorm_wordpool_576.txt	LTP250	ltpFR2	5	2	DRUG	501	n/a	n/a	0	0	0
466.04	n/a	WORD	233020	wordpools/wasnorm_wordpool_576.txt	LTP250	ltpFR2	5	2	TUTU	1524	n/a	n/a	0	0	0
468.758	n/a	WORD	234379	wordpools/wasnorm_wordpool_576.txt	LTP250	ltpFR2	5	2	DANCER	437	n/a	n/a	0	0	0
471.478	n/a	WORD	235739	wordpools/wasnorm_wordpool_576.txt	LTP250	ltpFR2	5	2	OMELET	976	n/a	n/a	0	0	0
474.046	n/a	WORD	237023	wordpools/wasnorm_wordpool_576.txt	LTP250	ltpFR2	5	2	CIGAR	308	n/a	n/a	0	0	0
476.782	n/a	WORD	238391	wordpools/wasnorm_wordpool_576.txt	LTP250	ltpFR2	5	2	CRICKET	408	n/a	n/a	0	0	0
479.618	n/a	WORD	239809	wordpools/wasnorm_wordpool_576.txt	LTP250	ltpFR2	5	2	FARMER	553	n/a	n/a	0	0	0
482.122	n/a	WORD	241061	wordpools/wasnorm_wordpool_576.txt	LTP250	ltpFR2	5	2	DRAWING	494	n/a	n/a	0	0	0
484.822	n/a	WORD	242411	wordpools/wasnorm_wordpool_576.txt	LTP250	ltpFR2	5	2	TYPIST	1532	n/a	n/a	0	0	0
487.524	n/a	WORD	243762	wordpools/wasnorm_wordpool_576.txt	LTP250	ltpFR2	5	2	LAVA	804	n/a	n/a	0	0	0
490.01	n/a	WORD	245005	wordpools/wasnorm_wordpool_576.txt	LTP250	ltpFR2	5	2	PORTRAIT	1111	n/a	n/a	0	0	0
492.562	n/a	WORD	246281	wordpools/wasnorm_wordpool_576.txt	LTP250	ltpFR2	5	2	RACKET	1155	n/a	n/a	0	0	0
495.314	n/a	WORD	247657	wordpools/wasnorm_wordpool_576.txt	LTP250	ltpFR2	5	2	SEAL	1262	n/a	n/a	0	0	0
498.118	n/a	WORD	249059	wordpools/wasnorm_wordpool_576.txt	LTP250	ltpFR2	5	2	PORK	1108	n/a	n/a	0	0	0
500.602	n/a	WORD	250301	wordpools/wasnorm_wordpool_576.txt	LTP250	ltpFR2	5	2	HANDBAG	684	n/a	n/a	0	0	0
503.322	n/a	WORD	251661	wordpools/wasnorm_wordpool_576.txt	LTP250	ltpFR2	5	2	BUNNY	198	n/a	n/a	0	0	0
505.874	n/a	WORD	252937	wordpools/wasnorm_wordpool_576.txt	LTP250	ltpFR2	5	2	TORTOISE	1486	n/a	n/a	0	0	0
508.692	n/a	WORD	254346	wordpools/wasnorm_wordpool_576.txt	LTP250	ltpFR2	5	2	BUG	187	n/a	n/a	0	0	0
511.246	n/a	WORD	255623	wordpools/wasnorm_wordpool_576.txt	LTP250	ltpFR2	5	2	ROBIN	1199	n/a	n/a	0	0	0
513.698	n/a	WORD	256849	wordpools/wasnorm_wordpool_576.txt	LTP250	ltpFR2	5	2	MASK	876	n/a	n/a	0	0	0
516.366	n/a	WORD	258183	wordpools/wasnorm_wordpool_576.txt	LTP250	ltpFR2	5	2	POCKET	1093	n/a	n/a	0	0	0
519.086	n/a	WORD	259543	wordpools/wasnorm_wordpool_576.txt	LTP250	ltpFR2	5	2	HARP	689	n/a	n/a	0	0	0
520.704	n/a	START	260352	n/a	LTP250	ltpFR2	5	n/a	n/a	n/a	2	n/a	n/a	n/a	n/a
521.56	n/a	DISTRACTOR	260780	n/a	LTP250	ltpFR2	5	2	n/a	n/a	n/a	n/a	0	0	0
521.57	n/a	PROB	260785	n/a	LTP250	ltpFR2	5	n/a	n/a	n/a	2	12	3	6	3
523.622	n/a	PROB	261811	n/a	LTP250	ltpFR2	5	n/a	n/a	n/a	2	23	8	6	9
527.876	n/a	PROB	263938	n/a	LTP250	ltpFR2	5	n/a	n/a	n/a	2	18	4	5	9
529.678	n/a	PROB	264839	n/a	LTP250	ltpFR2	5	n/a	n/a	n/a	2	21	6	7	8
534.432	n/a	PROB	267216	n/a	LTP250	ltpFR2	5	n/a	n/a	n/a	2	14	6	3	5
538.734	n/a	PROB	269367	n/a	LTP250	ltpFR2	5	n/a	n/a	n/a	2	14	7	5	2
541.488	n/a	PROB	270744	n/a	LTP250	ltpFR2	5	n/a	n/a	n/a	2	11	2	4	5
543.582	n/a	STOP	271791	n/a	LTP250	ltpFR2	5	n/a	n/a	n/a	2	n/a	n/a	n/a	n/a
546.51	n/a	REC_START	273255	n/a	LTP250	ltpFR2	5	2	n/a	n/a	n/a	n/a	0	0	0
549.22	n/a	REC_WORD	274610	wordpools/wasnorm_wordpool_576.txt	LTP250	ltpFR2	5	2	TURTLE	1522	n/a	n/a	0	0	0
549.932	n/a	REC_WORD	274966	wordpools/wasnorm_wordpool_576.txt	LTP250	ltpFR2	5	2	HEART	697	n/a	n/a	0	0	0
552.43	n/a	REC_WORD	276215	wordpools/wasnorm_wordpool_576.txt	LTP250	ltpFR2	5	2	TORTOISE	1486	n/a	n/a	0	0	0
555.064	n/a	REC_WORD	277532	wordpools/wasnorm_wordpool_576.txt	LTP250	ltpFR2	5	2	OMELET	976	n/a	n/a	0	0	0
558.636	n/a	REC_WORD	279318	wordpools/wasnorm_wordpool_576.txt	LTP250	ltpFR2	5	2	CIGAR	308	n/a	n/a	0	0	0
559.63	n/a	REC_WORD	279815	wordpools/wasnorm_wordpool_576.txt	LTP250	ltpFR2	5	2	FARMER	553	n/a	n/a	0	0	0
562.556	n/a	REC_WORD	281278	wordpools/wasnorm_wordpool_576.txt	LTP250	ltpFR2	5	2	PORK	1108	n/a	n/a	0	0	0
563.626	n/a	REC_WORD	281813	wordpools/wasnorm_wordpool_576.txt	LTP250	ltpFR2	5	2	BUG	187	n/a	n/a	0	0	0
564.996	n/a	REC_WORD	282498	wordpools/wasnorm_wordpool_576.txt	LTP250	ltpFR2	5	2	ROBIN	1199	n/a	n/a	0	0	0
637.136	n/a	DISTRACTOR	318568	n/a	LTP250	ltpFR2	5	3	n/a	n/a	n/a	n/a	0	0	0
637.136	n/a	START	318568	n/a	LTP250	ltpFR2	5	n/a	n/a	n/a	3	n/a	n/a	n/a	n/a
637.17	n/a	PROB	318585	n/a	LTP250	ltpFR2	5	n/a	n/a	n/a	3	7	1	5	1
638.788	n/a	PROB	319394	n/a	LTP250	ltpFR2	5	n/a	n/a	n/a	3	14	8	2	4
640.622	n/a	PROB	320311	n/a	LTP250	ltpFR2	5	n/a	n/a	n/a	3	10	4	1	5
642.158	n/a	PROB	321079	n/a	LTP250	ltpFR2	5	n/a	n/a	n/a	3	18	6	8	4
643.626	n/a	PROB	321813	n/a	LTP250	ltpFR2	5	n/a	n/a	n/a	3	7	2	2	3
645.66	n/a	PROB	322830	n/a	LTP250	ltpFR2	5	n/a	n/a	n/a	3	10	2	4	4
647.462	n/a	PROB	323731	n/a	LTP250	ltpFR2	5	n/a	n/a	n/a	3	9	3	2	4
649.298	n/a	PROB	324649	n/a	LTP250	ltpFR2	5	n/a	n/a	n/a	3	11	2	6	3
651.8	n/a	PROB	325900	n/a	LTP250	ltpFR2	5	n/a	n/a	n/a	3	9	3	3	3
653.218	n/a	PROB	326609	n/a	LTP250	ltpFR2	5	n/a	n/a	n/a	3	17	8	5	4
656.27	n/a	PROB	328135	n/a	LTP250	ltpFR2	5	n/a	n/a	n/a	3	20	5	7	8
660.162	n/a	STOP	330081	n/a	LTP250	ltpFR2	5	n/a	n/a	n/a	3	n/a	n/a	n/a	n/a
662.11	n/a	WORD	331055	wordpools/wasnorm_wordpool_576.txt	LTP250	ltpFR2	5	3	TURNIP	1521	n/a	n/a	0	0	0
664.894	n/a	WORD	332447	wordpools/wasnorm_wordpool_576.txt	LTP250	ltpFR2	5	3	ICEBERG	731	n/a	n/a	0	0	0
667.58	n/a	WORD	333790	wordpools/wasnorm_wordpool_576.txt	LTP250	ltpFR2	5	3	SUNRISE	1407	n/a	n/a	0	0	0
670.066	n/a	WORD	335033	wordpools/wasnorm_wordpool_576.txt	LTP250	ltpFR2	5	3	ISLAND	745	n/a	n/a	0	0	0
672.768	n/a	WORD	336384	wordpools/wasnorm_wordpool_576.txt	LTP250	ltpFR2	5	3	BRANCH	168	n/a	n/a	0	0	0
675.302	n/a	WORD	337651	wordpools/wasnorm_wordpool_576.txt	LTP250	ltpFR2	5	3	SHRUB	1299	n/a	n/a	0	0	0
677.888	n/a	WORD	338944	wordpools/wasnorm_wordpool_576.txt	LTP250	ltpFR2	5	3	HOSTESS	723	n/a	n/a	0	0	0
680.54	n/a	WORD	340270	wordpools/wasnorm_wordpool_576.txt	LTP250	ltpFR2	5	3	LETTUCE	814	n/a	n/a	0	0	0
683.344	n/a	WORD	341672	wordpools/wasnorm_wordpool_576.txt	LTP250	ltpFR2	5	3	CITRUS	313	n/a	n/a	0	0	0
686.03	n/a	WORD	343015	wordpools/wasnorm_wordpool_576.txt	LTP250	ltpFR2	5	3	CARROT	249	n/a	n/a	0	0	0
688.548	n/a	WORD	344274	wordpools/wasnorm_wordpool_576.txt	LTP250	ltpFR2	5	3	BRACES	164	n/a	n/a	0	0	0
691.2	n/a	WORD	345600	wordpools/wasnorm_wordpool_576.txt	LTP250	ltpFR2	5	3	SHELTER	1282	n/a	n/a	0	0	0
693.736	n/a	WORD	346868	wordpools/wasnorm_wordpool_576.txt	LTP250	ltpFR2	5	3	STAPLE	1371	n/a	n/a	0	0	0
696.37	n/a	WORD	348185	wordpools/wasnorm_wordpool_576.txt	LTP250	ltpFR2	5	3	HOUND	724	n/a	n/a	0	0	0
698.958	n/a	WORD	349479	wordpools/wasnorm_wordpool_576.txt	LTP250	ltpFR2	5	3	DANDRUFF	439	n/a	n/a	0	0	0
701.626	n/a	WORD	350813	wordpools/wasnorm_wordpool_576.txt	LTP250	ltpFR2	5	3	IGLOO	734	n/a	n/a	0	0	0
704.412	n/a	WORD	352206	wordpools/wasnorm_wordpool_576.txt	LTP250	ltpFR2	5	3	SHARK	1275	n/a	n/a	0	0	0
706.93	n/a	WORD	353465	wordpools/wasnorm_wordpool_576.txt	LTP250	ltpFR2	5	3	VAGRANT	1544	n/a	n/a	0	0	0
709.682	n/a	WORD	354841	wordpools/wasnorm_wordpool_576.txt	LTP250	ltpFR2	5	3	COUCH	386	n/a	n/a	0	0	0
712.434	n/a	WORD	356217	wordpools/wasnorm_wordpool_576.txt	LTP250	ltpFR2	5	3	INMATE	738	n/a	n/a	0	0	0
714.988	n/a	WORD	357494	wordpools/wasnorm_wordpool_576.txt	LTP250	ltpFR2	5	3	FOOTBALL	591	n/a	n/a	0	0	0
717.806	n/a	WORD	358903	wordpools/wasnorm_wordpool_576.txt	LTP250	ltpFR2	5	3	FREEZER	604	n/a	n/a	0	0	0
720.576	n/a	WORD	360288	wordpools/wasnorm_wordpool_576.txt	LTP250	ltpFR2	5	3	BLUEPRINT	142	n/a	n/a	0	0	0
723.412	n/a	WORD	361706	wordpools/wasnorm_wordpool_576.txt	LTP250	ltpFR2	5	3	HORNET	718	n/a	n/a	0	0	0
725.03	n/a	START	362515	n/a	LTP250	ltpFR2	5	n/a	n/a	n/a	4	n/a	n/a	n/a	n/a
726.214	n/a	DISTRACTOR	363107	n/a	LTP250	ltpFR2	5	3	n/a	n/a	n/a	n/a	0	0	0
726.246	n/a	PROB	363123	n/a	LTP250	ltpFR2	5	n/a	n/a	n/a	4	18	2	7	9
729.766	n/a	PROB	364883	n/a	LTP250	ltpFR2	5	n/a	n/a	n/a	4	5	2	2	1
730.918	n/a	PROB	365459	n/a	LTP250	ltpFR2	5	n/a	n/a	n/a	4	10	4	4	2
733.686	n/a	PROB	366843	n/a	LTP250	ltpFR2	5	n/a	n/a	n/a	4	19	3	9	7
735.89	n/a	PROB	367945	n/a	LTP250	ltpFR2	5	n/a	n/a	n/a	4	6	2	2	2
737.256	n/a	PROB	368628	n/a	LTP250	ltpFR2	5	n/a	n/a	n/a	4	13	5	4	4
740.844	n/a	PROB	370422	n/a	LTP250	ltpFR2	5	n/a	n/a	n/a	4	10	2	2	6
742.544	n/a	PROB	371272	n/a	LTP250	ltpFR2	5	n/a	n/a	n/a	4	11	1	2	8
743.744	n/a	PROB	371872	n/a	LTP250	ltpFR2	5	n/a	n/a	n/a	4	14	4	7	3
745.246	n/a	PROB	372623	n/a	LTP250	ltpFR2	5	n/a	n/a	n/a	4	11	5	2	4
749.03	n/a	STOP	374515	n/a	LTP250	ltpFR2	5	n/a	n/a	n/a	4	n/a	n/a	n/a	n/a
750.968	n/a	REC_START	375484	n/a	LTP250	ltpFR2	5	3	n/a	n/a	n/a	n/a	0	0	0
752.648	n/a	REC_WORD	376324	wordpools/wasnorm_wordpool_576.txt	LTP250	ltpFR2	5	3	BUNNY	198	n/a	n/a	0	0	0
753.082	n/a	REC_WORD	376541	wordpools/wasnorm_wordpool_576.txt	LTP250	ltpFR2	5	3	CARROT	249	n/a	n/a	0	0	0
753.598	n/a	REC_WORD	376799	wordpools/wasnorm_wordpool_576.txt	LTP250	ltpFR2	5	3	LETTUCE	814	n/a	n/a	0	0	0
757.076	n/a	REC_WORD	378538	wordpools/wasnorm_wordpool_576.txt	LTP250	ltpFR2	5	3	IGLOO	734	n/a	n/a	0	0	0
757.864	n/a	REC_WORD	378932	wordpools/wasnorm_wordpool_576.txt	LTP250	ltpFR2	5	3	SHARK	1275	n/a	n/a	0	0	0
759.142	n/a	REC_WORD	379571	wordpools/wasnorm_wordpool_576.txt	LTP250	ltpFR2	5	3	DANDRUFF	439	n/a	n/a	0	0	0
760.178	n/a	REC_WORD	380089	wordpools/wasnorm_wordpool_576.txt	LTP250	ltpFR2	5	3	VAGRANT	1544	n/a	n/a	0	0	0
761.686	n/a	REC_WORD	380843	wordpools/wasnorm_wordpool_576.txt	LTP250	ltpFR2	5	3	SHELTER	1282	n/a	n/a	0	0	0
763.344	n/a	REC_WORD	381672	wordpools/wasnorm_wordpool_576.txt	LTP250	ltpFR2	5	3	BLUEPRINT	142	n/a	n/a	0	0	0
764.514	n/a	REC_WORD	382257	wordpools/wasnorm_wordpool_576.txt	LTP250	ltpFR2	5	3	COUCH	386	n/a	n/a	0	0	0
767.658	n/a	REC_WORD	383829	wordpools/wasnorm_wordpool_576.txt	LTP250	ltpFR2	5	3	CITRUS	313	n/a	n/a	0	0	0
841.446	n/a	DISTRACTOR	420723	n/a	LTP250	ltpFR2	5	4	n/a	n/a	n/a	n/a	0	0	0
841.446	n/a	START	420723	n/a	LTP250	ltpFR2	5	n/a	n/a	n/a	5	n/a	n/a	n/a	n/a
841.48	n/a	PROB	420740	n/a	LTP250	ltpFR2	5	n/a	n/a	n/a	5	13	9	2	2
843.714	n/a	PROB	421857	n/a	LTP250	ltpFR2	5	n/a	n/a	n/a	5	14	5	1	8
846.75	n/a	PROB	423375	n/a	LTP250	ltpFR2	5	n/a	n/a	n/a	5	16	4	9	3
849.468	n/a	PROB	424734	n/a	LTP250	ltpFR2	5	n/a	n/a	n/a	5	22	5	3	6
852.84	n/a	PROB	426420	n/a	LTP250	ltpFR2	5	n/a	n/a	n/a	5	18	5	4	9
855.424	n/a	PROB	427712	n/a	LTP250	ltpFR2	5	n/a	n/a	n/a	5	15	7	7	1
857.06	n/a	PROB	428530	n/a	LTP250	ltpFR2	5	n/a	n/a	n/a	5	8	2	2	4
859.012	n/a	PROB	429506	n/a	LTP250	ltpFR2	5	n/a	n/a	n/a	5	20	9	5	7
865.446	n/a	STOP	432723	n/a	LTP250	ltpFR2	5	n/a	n/a	n/a	5	n/a	n/a	n/a	n/a
866.534	n/a	WORD	433267	wordpools/wasnorm_wordpool_576.txt	LTP250	ltpFR2	5	4	SCALPEL	1243	n/a	n/a	0	0	0
869.202	n/a	WORD	434601	wordpools/wasnorm_wordpool_576.txt	LTP250	ltpFR2	5	4	COBRA	336	n/a	n/a	0	0	0
871.788	n/a	WORD	435894	wordpools/wasnorm_wordpool_576.txt	LTP250	ltpFR2	5	4	CHAPEL	280	n/a	n/a	0	0	0
874.574	n/a	WORD	437287	wordpools/wasnorm_wordpool_576.txt	LTP250	ltpFR2	5	4	JELLO	754	n/a	n/a	0	0	0
877.394	n/a	WORD	438697	wordpools/wasnorm_wordpool_576.txt	LTP250	ltpFR2	5	4	SPIDER	1351	n/a	n/a	0	0	0
880.08	n/a	WORD	440040	wordpools/wasnorm_wordpool_576.txt	LTP250	ltpFR2	5	4	SWORD	1423	n/a	n/a	0	0	0
882.764	n/a	WORD	441382	wordpools/wasnorm_wordpool_576.txt	LTP250	ltpFR2	5	4	SILK	1307	n/a	n/a	0	0	0
885.384	n/a	WORD	442692	wordpools/wasnorm_wordpool_576.txt	LTP250	ltpFR2	5	4	VELVET	1555	n/a	n/a	0	0	0
887.852	n/a	WORD	443926	wordpools/wasnorm_wordpool_576.txt	LTP250	ltpFR2	5	4	PACKAGE	997	n/a	n/a	0	0	0
890.638	n/a	WORD	445319	wordpools/wasnorm_wordpool_576.txt	LTP250	ltpFR2	5	4	SHOVEL	1295	n/a	n/a	0	0	0
893.358	n/a	WORD	446679	wordpools/wasnorm_wordpool_576.txt	LTP250	ltpFR2	5	4	GRAVEL	659	n/a	n/a	0	0	0
896.094	n/a	WORD	448047	wordpools/wasnorm_wordpool_576.txt	LTP250	ltpFR2	5	4	ACTRESS	6	n/a	n/a	0	0	0
898.662	n/a	WORD	449331	wordpools/wasnorm_wordpool_576.txt	LTP250	ltpFR2	5	4	BEAVER	109	n/a	n/a	0	0	0
901.18	n/a	WORD	450590	wordpools/wasnorm_wordpool_576.txt	LTP250	ltpFR2	5	4	FUNGUS	614	n/a	n/a	0	0	0
903.682	n/a	WORD	451841	wordpools/wasnorm_wordpool_576.txt	LTP250	ltpFR2	5	4	VIRUS	1572	n/a	n/a	0	0	0
906.468	n/a	WORD	453234	wordpools/wasnorm_wordpool_576.txt	LTP250	ltpFR2	5	4	STICKER	1382	n/a	n/a	0	0	0
909.288	n/a	WORD	454644	wordpools/wasnorm_wordpool_576.txt	LTP250	ltpFR2	5	4	CYCLONE	431	n/a	n/a	0	0	0
911.958	n/a	WORD	455979	wordpools/wasnorm_wordpool_576.txt	LTP250	ltpFR2	5	4	STONE	1385	n/a	n/a	0	0	0
914.458	n/a	WORD	457229	wordpools/wasnorm_wordpool_576.txt	LTP250	ltpFR2	5	4	ACTOR	5	n/a	n/a	0	0	0
917.078	n/a	WORD	458539	wordpools/wasnorm_wordpool_576.txt	LTP250	ltpFR2	5	4	RUG	1215	n/a	n/a	0	0	0
919.762	n/a	WORD	459881	wordpools/wasnorm_wordpool_576.txt	LTP250	ltpFR2	5	4	KLEENEX	782	n/a	n/a	0	0	0
922.582	n/a	WORD	461291	wordpools/wasnorm_wordpool_576.txt	LTP250	ltpFR2	5	4	ANTLER	29	n/a	n/a	0	0	0
925.102	n/a	WORD	462551	wordpools/wasnorm_wordpool_576.txt	LTP250	ltpFR2	5	4	BATHTUB	100	n/a	n/a	0	0	0
927.888	n/a	WORD	463944	wordpools/wasnorm_wordpool_576.txt	LTP250	ltpFR2	5	4	CLIMBER	323	n/a	n/a	0	0	0
929.506	n/a	START	464753	n/a	LTP250	ltpFR2	5	n/a	n/a	n/a	6	n/a	n/a	n/a	n/a
930.47	n/a	DISTRACTOR	465235	n/a	LTP250	ltpFR2	5	4	n/a	n/a	n/a	n/a	0	0	0
930.49	n/a	PROB	465245	n/a	LTP250	ltpFR2	5	n/a	n/a	n/a	6	17	6	8	3
932.774	n/a	PROB	466387	n/a	LTP250	ltpFR2	5	n/a	n/a	n/a	6	10	3	2	5
934.592	n/a	PROB	467296	n/a	LTP250	ltpFR2	5	n/a	n/a	n/a	6	19	8	7	4
938.948	n/a	PROB	469474	n/a	LTP250	ltpFR2	5	n/a	n/a	n/a	6	17	5	9	3
941.532	n/a	PROB	470766	n/a	LTP250	ltpFR2	5	n/a	n/a	n/a	6	19	5	7	7
943.484	n/a	PROB	471742	n/a	LTP250	ltpFR2	5	n/a	n/a	n/a	6	14	7	7	2
945.486	n/a	PROB	472743	n/a	LTP250	ltpFR2	5	n/a	n/a	n/a	6	14	5	4	5
947.336	n/a	PROB	473668	n/a	LTP250	ltpFR2	5	n/a	n/a	n/a	6	24	8	8	6
950.172	n/a	PROB	475086	n/a	LTP250	ltpFR2	5	n/a	n/a	n/a	6	18	9	6	3
952.362	n/a	STOP	476181	n/a	LTP250	ltpFR2	5	n/a	n/a	n/a	6	n/a	n/a	n/a	n/a
955.494	n/a	REC_START	477747	n/a	LTP250	ltpFR2	5	4	n/a	n/a	n/a	n/a	0	0	0
957.758	n/a	REC_WORD	478879	wordpools/wasnorm_wordpool_576.txt	LTP250	ltpFR2	5	4	BATHTUB	100	n/a	n/a	0	0	0
962.142	n/a	REC_WORD	481071	wordpools/wasnorm_wordpool_576.txt	LTP250	ltpFR2	5	4	ACTOR	5	n/a	n/a	0	0	0
962.816	n/a	REC_WORD	481408	wordpools/wasnorm_wordpool_576.txt	LTP250	ltpFR2	5	4	ACTRESS	6	n/a	n/a	0	0	0
963.462	n/a	REC_WORD	481731	wordpools/wasnorm_wordpool_576.txt	LTP250	ltpFR2	5	4	FUNGUS	614	n/a	n/a	0	0	0
964.376	n/a	REC_WORD	482188	wordpools/wasnorm_wordpool_576.txt	LTP250	ltpFR2	5	4	VIRUS	1572	n/a	n/a	0	0	0
1045.956	n/a	DISTRACTOR	522978	n/a	LTP250	ltpFR2	5	5	n/a	n/a	n/a	n/a	0	0	0
1045.956	n/a	START	522978	n/a	LTP250	ltpFR2	5	n/a	n/a	n/a	7	n/a	n/a	n/a	n/a
1045.972	n/a	PROB	522986	n/a	LTP250	ltpFR2	5	n/a	n/a	n/a	7	11	1	7	3
1047.622	n/a	PROB	523811	n/a	LTP250	ltpFR2	5	n/a	n/a	n/a	7	22	8	5	9
1052.226	n/a	PROB	526113	n/a	LTP250	ltpFR2	5	n/a	n/a	n/a	7	15	4	9	2
1054.73	n/a	PROB	527365	n/a	LTP250	ltpFR2	5	n/a	n/a	n/a	7	20	7	4	9
1056.748	n/a	PROB	528374	n/a	LTP250	ltpFR2	5	n/a	n/a	n/a	7	16	5	8	3
1059.232	n/a	PROB	529616	n/a	LTP250	ltpFR2	5	n/a	n/a	n/a	7	5	1	1	3
1060.45	n/a	PROB	530225	n/a	LTP250	ltpFR2	5	n/a	n/a	n/a	7	14	7	3	4
1061.952	n/a	PROB	530976	n/a	LTP250	ltpFR2	5	n/a	n/a	n/a	7	12	5	5	2
1063.52	n/a	PROB	531760	n/a	LTP250	ltpFR2	5	n/a	n/a	n/a	7	17	8	7	2
1065.706	n/a	PROB	532853	n/a	LTP250	ltpFR2	5	n/a	n/a	n/a	7	15	5	7	2
1069.958	n/a	STOP	534979	n/a	LTP250	ltpFR2	5	n/a	n/a	n/a	7	n/a	n/a	n/a	n/a
1070.826	n/a	WORD	535413	wordpools/wasnorm_wordpool_576.txt	LTP250	ltpFR2	5	5	SKETCH	1315	n/a	n/a	0	0	0
1073.612	n/a	WORD	536806	wordpools/wasnorm_wordpool_576.txt	LTP250	ltpFR2	5	5	BLOUSE	139	n/a	n/a	0	0	0
1076.282	n/a	WORD	538141	wordpools/wasnorm_wordpool_576.txt	LTP250	ltpFR2	5	5	DENIM	446	n/a	n/a	0	0	0
1078.968	n/a	WORD	539484	wordpools/wasnorm_wordpool_576.txt	LTP250	ltpFR2	5	5	CARRIAGE	248	n/a	n/a	0	0	0
1081.736	n/a	WORD	540868	wordpools/wasnorm_wordpool_576.txt	LTP250	ltpFR2	5	5	APPLE	33	n/a	n/a	0	0	0
1084.472	n/a	WORD	542236	wordpools/wasnorm_wordpool_576.txt	LTP250	ltpFR2	5	5	ROBBER	1197	n/a	n/a	0	0	0
1086.908	n/a	WORD	543454	wordpools/wasnorm_wordpool_576.txt	LTP250	ltpFR2	5	5	CURTAIN	427	n/a	n/a	0	0	0
1089.61	n/a	WORD	544805	wordpools/wasnorm_wordpool_576.txt	LTP250	ltpFR2	5	5	RECORD	1176	n/a	n/a	0	0	0
1092.112	n/a	WORD	546056	wordpools/wasnorm_wordpool_576.txt	LTP250	ltpFR2	5	5	BUTCHER	203	n/a	n/a	0	0	0
1094.58	n/a	WORD	547290	wordpools/wasnorm_wordpool_576.txt	LTP250	ltpFR2	5	5	HATCHET	691	n/a	n/a	0	0	0
1097.248	n/a	WORD	548624	wordpools/wasnorm_wordpool_576.txt	LTP250	ltpFR2	5	5	ORCHID	982	n/a	n/a	0	0	0
1099.702	n/a	WORD	549851	wordpools/wasnorm_wordpool_576.txt	LTP250	ltpFR2	5	5	LILY	821	n/a	n/a	0	0	0
1102.354	n/a	WORD	551177	wordpools/wasnorm_wordpool_576.txt	LTP250	ltpFR2	5	5	MEAT	883	n/a	n/a	0	0	0
1105.156	n/a	WORD	552578	wordpools/wasnorm_wordpool_576.txt	LTP250	ltpFR2	5	5	PICTURE	1061	n/a	n/a	0	0	0
1107.842	n/a	WORD	553921	wordpools/wasnorm_wordpool_576.txt	LTP250	ltpFR2	5	5	ORANGE	980	n/a	n/a	0	0	0
1110.394	n/a	WORD	555197	wordpools/wasnorm_wordpool_576.txt	LTP250	ltpFR2	5	5	XEROX	1628	n/a	n/a	0	0	0
1113.014	n/a	WORD	556507	wordpools/wasnorm_wordpool_576.txt	LTP250	ltpFR2	5	5	WRIST	1626	n/a	n/a	0	0	0
1115.648	n/a	WORD	557824	wordpools/wasnorm_wordpool_576.txt	LTP250	ltpFR2	5	5	AUTHOR	61	n/a	n/a	0	0	0
1118.468	n/a	WORD	559234	wordpools/wasnorm_wordpool_576.txt	LTP250	ltpFR2	5	5	REPORT	1184	n/a	n/a	0	0	0
1120.97	n/a	WORD	560485	wordpools/wasnorm_wordpool_576.txt	LTP250	ltpFR2	5	5	SLUG	1329	n/a	n/a	0	0	0
1123.788	n/a	WORD	561894	wordpools/wasnorm_wordpool_576.txt	LTP250	ltpFR2	5	5	PRINCESS	1125	n/a	n/a	0	0	0
1126.224	n/a	WORD	563112	wordpools/wasnorm_wordpool_576.txt	LTP250	ltpFR2	5	5	CEILING	265	n/a	n/a	0	0	0
1128.692	n/a	WORD	564346	wordpools/wasnorm_wordpool_576.txt	LTP250	ltpFR2	5	5	FRAGRANCE	599	n/a	n/a	0	0	0
1131.344	n/a	WORD	565672	wordpools/wasnorm_wordpool_576.txt	LTP250	ltpFR2	5	5	SURVEY	1414	n/a	n/a	0	0	0
1132.964	n/a	START	566482	n/a	LTP250	ltpFR2	5	n/a	n/a	n/a	8	n/a	n/a	n/a	n/a
1133.982	n/a	DISTRACTOR	566991	n/a	LTP250	ltpFR2	5	5	n/a	n/a	n/a	n/a	0	0	0
1133.998	n/a	PROB	566999	n/a	LTP250	ltpFR2	5	n/a	n/a	n/a	8	14	8	2	4
1135.682	n/a	PROB	567841	n/a	LTP250	ltpFR2	5	n/a	n/a	n/a	8	14	7	3	4
1137.068	n/a	PROB	568534	n/a	LTP250	ltpFR2	5	n/a	n/a	n/a	8	13	1	6	6
1138.552	n/a	PROB	569276	n/a	LTP250	ltpFR2	5	n/a	n/a	n/a	8	12	1	6	5
1141.938	n/a	PROB	570969	n/a	LTP250	ltpFR2	5	n/a	n/a	n/a	8	10	2	5	3
1144.024	n/a	PROB	572012	n/a	LTP250	ltpFR2	5	n/a	n/a	n/a	8	15	7	2	6
1146.308	n/a	PROB	573154	n/a	LTP250	ltpFR2	5	n/a	n/a	n/a	8	18	5	6	7
1149.012	n/a	PROB	574506	n/a	LTP250	ltpFR2	5	n/a	n/a	n/a	8	19	8	7	4
1156.964	n/a	STOP	578482	n/a	LTP250	ltpFR2	5	n/a	n/a	n/a	8	n/a	n/a	n/a	n/a
1158.936	n/a	REC_START	579468	n/a	LTP250	ltpFR2	5	5	n/a	n/a	n/a	n/a	0	0	0
1159.826	n/a	REC_WORD	579913	wordpools/wasnorm_wordpool_576.txt	LTP250	ltpFR2	5	5	ORCHID	982	n/a	n/a	0	0	0
1160.572	n/a	REC_WORD	580286	wordpools/wasnorm_wordpool_576.txt	LTP250	ltpFR2	5	5	LILY	821	n/a	n/a	0	0	0
1161.056	n/a	REC_WORD	580528	wordpools/wasnorm_wordpool_576.txt	LTP250	ltpFR2	5	5	CITRUS	313	n/a	n/a	0	0	0
1161.812	n/a	REC_WORD	580906	wordpools/wasnorm_wordpool_576.txt	LTP250	ltpFR2	5	5	FRAGRANCE	599	n/a	n/a	0	0	0
1162.73	n/a	REC_WORD	581365	wordpools/wasnorm_wordpool_576.txt	LTP250	ltpFR2	5	5	SKETCH	1315	n/a	n/a	0	0	0
1163.594	n/a	REC_WORD	581797	wordpools/wasnorm_wordpool_576.txt	LTP250	ltpFR2	5	5	DRAWING	494	n/a	n/a	0	0	0
1166.36	n/a	REC_WORD	583180	wordpools/wasnorm_wordpool_576.txt	LTP250	ltpFR2	5	5	MEAT	883	n/a	n/a	0	0	0
1171.828	n/a	REC_WORD	585914	wordpools/wasnorm_wordpool_576.txt	LTP250	ltpFR2	5	5	DENIM	446	n/a	n/a	0	0	0
1172.474	n/a	REC_WORD	586237	wordpools/wasnorm_wordpool_576.txt	LTP250	ltpFR2	5	5	BLOUSE	139	n/a	n/a	0	0	0
1249.396	n/a	DISTRACTOR	624698	n/a	LTP250	ltpFR2	5	6	n/a	n/a	n/a	n/a	0	0	0
1249.396	n/a	START	624698	n/a	LTP250	ltpFR2	5	n/a	n/a	n/a	9	n/a	n/a	n/a	n/a
1249.414	n/a	PROB	624707	n/a	LTP250	ltpFR2	5	n/a	n/a	n/a	9	17	3	7	7
1252.382	n/a	PROB	626191	n/a	LTP250	ltpFR2	5	n/a	n/a	n/a	9	21	6	3	8
1254.784	n/a	PROB	627392	n/a	LTP250	ltpFR2	5	n/a	n/a	n/a	9	15	7	1	7
1256.436	n/a	PROB	628218	n/a	LTP250	ltpFR2	5	n/a	n/a	n/a	9	12	1	3	8
1257.854	n/a	PROB	628927	n/a	LTP250	ltpFR2	5	n/a	n/a	n/a	9	13	6	3	4
1259.372	n/a	PROB	629686	n/a	LTP250	ltpFR2	5	n/a	n/a	n/a	9	10	1	1	8
1260.774	n/a	PROB	630387	n/a	LTP250	ltpFR2	5	n/a	n/a	n/a	9	16	4	6	6
1262.224	n/a	PROB	631112	n/a	LTP250	ltpFR2	5	n/a	n/a	n/a	9	12	1	9	2
1263.626	n/a	PROB	631813	n/a	LTP250	ltpFR2	5	n/a	n/a	n/a	9	9	3	5	1
1266.362	n/a	PROB	633181	n/a	LTP250	ltpFR2	5	n/a	n/a	n/a	9	14	4	2	8
1267.828	n/a	PROB	633914	n/a	LTP250	ltpFR2	5	n/a	n/a	n/a	9	14	4	7	3
1273.396	n/a	STOP	636698	n/a	LTP250	ltpFR2	5	n/a	n/a	n/a	9	n/a	n/a	n/a	n/a
1274.586	n/a	WORD	637293	wordpools/wasnorm_wordpool_576.txt	LTP250	ltpFR2	5	6	RAFT	1159	n/a	n/a	0	0	0
1277.322	n/a	WORD	638661	wordpools/wasnorm_wordpool_576.txt	LTP250	ltpFR2	5	6	COTTAGE	384	n/a	n/a	0	0	0
1279.79	n/a	WORD	639895	wordpools/wasnorm_wordpool_576.txt	LTP250	ltpFR2	5	6	WINDOW	1611	n/a	n/a	0	0	0
1282.458	n/a	WORD	641229	wordpools/wasnorm_wordpool_576.txt	LTP250	ltpFR2	5	6	GLASS	639	n/a	n/a	0	0	0
1284.962	n/a	WORD	642481	wordpools/wasnorm_wordpool_576.txt	LTP250	ltpFR2	5	6	CREVICE	405	n/a	n/a	0	0	0
1287.664	n/a	WORD	643832	wordpools/wasnorm_wordpool_576.txt	LTP250	ltpFR2	5	6	NOVEL	960	n/a	n/a	0	0	0
1290.466	n/a	WORD	645233	wordpools/wasnorm_wordpool_576.txt	LTP250	ltpFR2	5	6	PUPPY	1144	n/a	n/a	0	0	0
1292.952	n/a	WORD	646476	wordpools/wasnorm_wordpool_576.txt	LTP250	ltpFR2	5	6	MATTRESS	879	n/a	n/a	0	0	0
1295.736	n/a	WORD	647868	wordpools/wasnorm_wordpool_576.txt	LTP250	ltpFR2	5	6	GALLON	618	n/a	n/a	0	0	0
1298.372	n/a	WORD	649186	wordpools/wasnorm_wordpool_576.txt	LTP250	ltpFR2	5	6	CHILD	299	n/a	n/a	0	0	0
1300.908	n/a	WORD	650454	wordpools/wasnorm_wordpool_576.txt	LTP250	ltpFR2	5	6	SPOOL	1356	n/a	n/a	0	0	0
1303.56	n/a	WORD	651780	wordpools/wasnorm_wordpool_576.txt	LTP250	ltpFR2	5	6	BOUQUET	157	n/a	n/a	0	0	0
1306.096	n/a	WORD	653048	wordpools/wasnorm_wordpool_576.txt	LTP250	ltpFR2	5	6	PARENT	1013	n/a	n/a	0	0	0
1308.832	n/a	WORD	654416	wordpools/wasnorm_wordpool_576.txt	LTP250	ltpFR2	5	6	DIVER	476	n/a	n/a	0	0	0
1311.334	n/a	WORD	655667	wordpools/wasnorm_wordpool_576.txt	LTP250	ltpFR2	5	6	STAR	1373	n/a	n/a	0	0	0
1313.87	n/a	WORD	656935	wordpools/wasnorm_wordpool_576.txt	LTP250	ltpFR2	5	6	PICNIC	1060	n/a	n/a	0	0	0
1316.488	n/a	WORD	658244	wordpools/wasnorm_wordpool_576.txt	LTP250	ltpFR2	5	6	WAITRESS	1581	n/a	n/a	0	0	0
1318.958	n/a	WORD	659479	wordpools/wasnorm_wordpool_576.txt	LTP250	ltpFR2	5	6	PARTNER	1017	n/a	n/a	0	0	0
1321.408	n/a	WORD	660704	wordpools/wasnorm_wordpool_576.txt	LTP250	ltpFR2	5	6	MOTOR	922	n/a	n/a	0	0	0
1324.228	n/a	WORD	662114	wordpools/wasnorm_wordpool_576.txt	LTP250	ltpFR2	5	6	HIGHWAY	707	n/a	n/a	0	0	0
1326.78	n/a	WORD	663390	wordpools/wasnorm_wordpool_576.txt	LTP250	ltpFR2	5	6	PLAZA	1088	n/a	n/a	0	0	0
1329.448	n/a	WORD	664724	wordpools/wasnorm_wordpool_576.txt	LTP250	ltpFR2	5	6	MARKET	871	n/a	n/a	0	0	0
1331.902	n/a	WORD	665951	wordpools/wasnorm_wordpool_576.txt	LTP250	ltpFR2	5	6	PIANO	1057	n/a	n/a	0	0	0
1334.486	n/a	WORD	667243	wordpools/wasnorm_wordpool_576.txt	LTP250	ltpFR2	5	6	SUPPER	1411	n/a	n/a	0	0	0
1336.106	n/a	START	668053	n/a	LTP250	ltpFR2	5	n/a	n/a	n/a	10	n/a	n/a	n/a	n/a
1337.278	n/a	DISTRACTOR	668639	n/a	LTP250	ltpFR2	5	6	n/a	n/a	n/a	n/a	0	0	0
1337.288	n/a	PROB	668644	n/a	LTP250	ltpFR2	5	n/a	n/a	n/a	10	17	1	9	7
1339.29	n/a	PROB	669645	n/a	LTP250	ltpFR2	5	n/a	n/a	n/a	10	21	9	9	3
1341.492	n/a	PROB	670746	n/a	LTP250	ltpFR2	5	n/a	n/a	n/a	10	10	1	7	2
1343.046	n/a	PROB	671523	n/a	LTP250	ltpFR2	5	n/a	n/a	n/a	10	19	4	8	7
1345.58	n/a	PROB	672790	n/a	LTP250	ltpFR2	5	n/a	n/a	n/a	10	15	5	1	9
1347.664	n/a	PROB	673832	n/a	LTP250	ltpFR2	5	n/a	n/a	n/a	10	13	6	1	6
1350.268	n/a	PROB	675134	n/a	LTP250	ltpFR2	5	n/a	n/a	n/a	10	12	9	2	1
1352.168	n/a	PROB	676084	n/a	LTP250	ltpFR2	5	n/a	n/a	n/a	10	21	8	7	6
1354.488	n/a	PROB	677244	n/a	LTP250	ltpFR2	5	n/a	n/a	n/a	10	13	1	9	3
1356.056	n/a	PROB	678028	n/a	LTP250	ltpFR2	5	n/a	n/a	n/a	10	15	6	8	1
1358.598	n/a	STOP	679299	n/a	LTP250	ltpFR2	5	n/a	n/a	n/a	10	n/a	n/a	n/a	n/a
1362.044	n/a	REC_START	681022	n/a	LTP250	ltpFR2	5	6	n/a	n/a	n/a	n/a	0	0	0
1363.474	n/a	REC_WORD	681737	wordpools/wasnorm_wordpool_576.txt	LTP250	ltpFR2	5	6	RAFT	1159	n/a	n/a	0	0	0
1364.034	n/a	REC_WORD	682017	wordpools/wasnorm_wordpool_576.txt	LTP250	ltpFR2	5	6	MATTRESS	879	n/a	n/a	0	0	0
1364.862	n/a	REC_WORD	682431	wordpools/wasnorm_wordpool_576.txt	LTP250	ltpFR2	5	6	PUPPY	1144	n/a	n/a	0	0	0
1365.434	n/a	REC_WORD	682717	wordpools/wasnorm_wordpool_576.txt	LTP250	ltpFR2	5	6	CREVICE	405	n/a	n/a	0	0	0
1366.154	n/a	REC_WORD	683077	wordpools/wasnorm_wordpool_576.txt	LTP250	ltpFR2	5	6	GLASS	639	n/a	n/a	0	0	0
1366.858	n/a	REC_WORD	683429	wordpools/wasnorm_wordpool_576.txt	LTP250	ltpFR2	5	6	WINDOW	1611	n/a	n/a	0	0	0
1368.016	n/a	REC_WORD	684008	wordpools/wasnorm_wordpool_576.txt	LTP250	ltpFR2	5	6	CHILD	299	n/a	n/a	0	0	0
1368.892	n/a	REC_WORD	684446	wordpools/wasnorm_wordpool_576.txt	LTP250	ltpFR2	5	6	PARENT	1013	n/a	n/a	0	0	0
1372.69	n/a	REC_WORD	686345	wordpools/wasnorm_wordpool_576.txt	LTP250	ltpFR2	5	6	PICNIC	1060	n/a	n/a	0	0	0
1373.36	n/a	REC_WORD	686680	wordpools/wasnorm_wordpool_576.txt	LTP250	ltpFR2	5	6	SUPPER	1411	n/a	n/a	0	0	0
1374.35	n/a	REC_WORD	687175	wordpools/wasnorm_wordpool_576.txt	LTP250	ltpFR2	5	6	WAITRESS	1581	n/a	n/a	0	0	0
1376.452	n/a	REC_WORD	688226	wordpools/wasnorm_wordpool_576.txt	LTP250	ltpFR2	5	6	PARTNER	1017	n/a	n/a	0	0	0
1380.294	n/a	REC_WORD	690147	wordpools/wasnorm_wordpool_576.txt	LTP250	ltpFR2	5	6	STAR	1373	n/a	n/a	0	0	0
1388.524	n/a	REC_WORD	694262	wordpools/wasnorm_wordpool_576.txt	LTP250	ltpFR2	5	6	PIANO	1057	n/a	n/a	0	0	0
1452.738	n/a	WORD	726369	wordpools/wasnorm_wordpool_576.txt	LTP250	ltpFR2	5	7	TUBA	1515	n/a	n/a	0	0	0
1455.224	n/a	WORD	727612	wordpools/wasnorm_wordpool_576.txt	LTP250	ltpFR2	5	7	SNAIL	1332	n/a	n/a	0	0	0
1457.994	n/a	WORD	728997	wordpools/wasnorm_wordpool_576.txt	LTP250	ltpFR2	5	7	PEDAL	1037	n/a	n/a	0	0	0
1460.812	n/a	WORD	730406	wordpools/wasnorm_wordpool_576.txt	LTP250	ltpFR2	5	7	LACE	792	n/a	n/a	0	0	0
1463.514	n/a	WORD	731757	wordpools/wasnorm_wordpool_576.txt	LTP250	ltpFR2	5	7	DRESS	495	n/a	n/a	0	0	0
1466.068	n/a	WORD	733034	wordpools/wasnorm_wordpool_576.txt	LTP250	ltpFR2	5	7	AWARD	63	n/a	n/a	0	0	0
1468.686	n/a	WORD	734343	wordpools/wasnorm_wordpool_576.txt	LTP250	ltpFR2	5	7	CLOTHES	327	n/a	n/a	0	0	0
1471.154	n/a	WORD	735577	wordpools/wasnorm_wordpool_576.txt	LTP250	ltpFR2	5	7	LAGOON	795	n/a	n/a	0	0	0
1473.79	n/a	WORD	736895	wordpools/wasnorm_wordpool_576.txt	LTP250	ltpFR2	5	7	COOKBOOK	373	n/a	n/a	0	0	0
1476.526	n/a	WORD	738263	wordpools/wasnorm_wordpool_576.txt	LTP250	ltpFR2	5	7	DUST	508	n/a	n/a	0	0	0
1479.144	n/a	WORD	739572	wordpools/wasnorm_wordpool_576.txt	LTP250	ltpFR2	5	7	DUSTPAN	509	n/a	n/a	0	0	0
1481.964	n/a	WORD	740982	wordpools/wasnorm_wordpool_576.txt	LTP250	ltpFR2	5	7	GARLIC	624	n/a	n/a	0	0	0
1484.766	n/a	WORD	742383	wordpools/wasnorm_wordpool_576.txt	LTP250	ltpFR2	5	7	HUSBAND	728	n/a	n/a	0	0	0
1487.368	n/a	WORD	743684	wordpools/wasnorm_wordpool_576.txt	LTP250	ltpFR2	5	7	PADDLE	1000	n/a	n/a	0	0	0
1489.838	n/a	WORD	744919	wordpools/wasnorm_wordpool_576.txt	LTP250	ltpFR2	5	7	ROCKET	1202	n/a	n/a	0	0	0
1492.622	n/a	WORD	746311	wordpools/wasnorm_wordpool_576.txt	LTP250	ltpFR2	5	7	GYMNAST	675	n/a	n/a	0	0	0
1495.11	n/a	WORD	747555	wordpools/wasnorm_wordpool_576.txt	LTP250	ltpFR2	5	7	WIFE	1609	n/a	n/a	0	0	0
1497.744	n/a	WORD	748872	wordpools/wasnorm_wordpool_576.txt	LTP250	ltpFR2	5	7	PERFUME	1049	n/a	n/a	0	0	0
1500.446	n/a	WORD	750223	wordpools/wasnorm_wordpool_576.txt	LTP250	ltpFR2	5	7	REBEL	1172	n/a	n/a	0	0	0
1503.082	n/a	WORD	751541	wordpools/wasnorm_wordpool_576.txt	LTP250	ltpFR2	5	7	TURTLE	1522	n/a	n/a	0	0	0
1505.902	n/a	WORD	752951	wordpools/wasnorm_wordpool_576.txt	LTP250	ltpFR2	5	7	DOLPHIN	483	n/a	n/a	0	0	0
1508.602	n/a	WORD	754301	wordpools/wasnorm_wordpool_576.txt	LTP250	ltpFR2	5	7	LIGHTNING	820	n/a	n/a	0	0	0
1511.04	n/a	WORD	755520	wordpools/wasnorm_wordpool_576.txt	LTP250	ltpFR2	5	7	GLOBE	641	n/a	n/a	0	0	0
1513.74	n/a	WORD	756870	wordpools/wasnorm_wordpool_576.txt	LTP250	ltpFR2	5	7	BURGLAR	200	n/a	n/a	0	0	0
1515.358	n/a	START	757679	n/a	LTP250	ltpFR2	5	n/a	n/a	n/a	11	n/a	n/a	n/a	n/a
1516.28	n/a	DISTRACTOR	758140	n/a	LTP250	ltpFR2	5	7	n/a	n/a	n/a	n/a	0	0	0
1516.294	n/a	PROB	758147	n/a	LTP250	ltpFR2	5	n/a	n/a	n/a	11	13	4	4	5
1519.446	n/a	PROB	759723	n/a	LTP250	ltpFR2	5	n/a	n/a	n/a	11	13	3	7	3
1521.532	n/a	PROB	760766	n/a	LTP250	ltpFR2	5	n/a	n/a	n/a	11	7	2	1	4
1524.084	n/a	PROB	762042	n/a	LTP250	ltpFR2	5	n/a	n/a	n/a	11	13	3	9	1
1525.368	n/a	PROB	762684	n/a	LTP250	ltpFR2	5	n/a	n/a	n/a	11	19	8	5	6
1527.52	n/a	PROB	763760	n/a	LTP250	ltpFR2	5	n/a	n/a	n/a	11	13	2	9	2
1530.388	n/a	PROB	765194	n/a	LTP250	ltpFR2	5	n/a	n/a	n/a	11	16	7	1	8
1532.54	n/a	PROB	766270	n/a	LTP250	ltpFR2	5	n/a	n/a	n/a	11	5	3	1	1
1533.824	n/a	PROB	766912	n/a	LTP250	ltpFR2	5	n/a	n/a	n/a	11	23	9	7	7
1536.996	n/a	PROB	768498	n/a	LTP250	ltpFR2	5	n/a	n/a	n/a	11	14	6	6	2
1539.234	n/a	STOP	769617	n/a	LTP250	ltpFR2	5	n/a	n/a	n/a	11	n/a	n/a	n/a	n/a
1541.182	n/a	REC_START	770591	n/a	LTP250	ltpFR2	5	7	n/a	n/a	n/a	n/a	0	0	0
1542.44	n/a	REC_WORD	771220	wordpools/wasnorm_wordpool_576.txt	LTP250	ltpFR2	5	7	TURTLE	1522	n/a	n/a	0	0	0
1543.15	n/a	REC_WORD	771575	wordpools/wasnorm_wordpool_576.txt	LTP250	ltpFR2	5	7	MARKET	871	n/a	n/a	0	0	0
1544.014	n/a	REC_WORD	772007	wordpools/wasnorm_wordpool_576.txt	LTP250	ltpFR2	5	7	WIFE	1609	n/a	n/a	0	0	0
1544.682	n/a	REC_WORD	772341	wordpools/wasnorm_wordpool_576.txt	LTP250	ltpFR2	5	7	AWARD	63	n/a	n/a	0	0	0
1545.92	n/a	REC_WORD	772960	wordpools/wasnorm_wordpool_576.txt	LTP250	ltpFR2	5	7	LACE	792	n/a	n/a	0	0	0
1546.746	n/a	REC_WORD	773373	wordpools/wasnorm_wordpool_576.txt	LTP250	ltpFR2	5	7	DRESS	495	n/a	n/a	0	0	0
1547.616	n/a	REC_WORD	773808	wordpools/wasnorm_wordpool_576.txt	LTP250	ltpFR2	5	7	ROCKET	1202	n/a	n/a	0	0	0
1548.37	n/a	REC_WORD	774185	wordpools/wasnorm_wordpool_576.txt	LTP250	ltpFR2	5	7	GYMNAST	675	n/a	n/a	0	0	0
1559.124	n/a	REC_WORD	779562	wordpools/wasnorm_wordpool_576.txt	LTP250	ltpFR2	5	7	COOKBOOK	373	n/a	n/a	0	0	0
1631.826	n/a	WORD	815913	wordpools/wasnorm_wordpool_576.txt	LTP250	ltpFR2	5	8	FLASK	576	n/a	n/a	0	0	0
1634.544	n/a	WORD	817272	wordpools/wasnorm_wordpool_576.txt	LTP250	ltpFR2	5	8	BASEMENT	94	n/a	n/a	0	0	0
1637.198	n/a	WORD	818599	wordpools/wasnorm_wordpool_576.txt	LTP250	ltpFR2	5	8	SLOPE	1328	n/a	n/a	0	0	0
1639.984	n/a	WORD	819992	wordpools/wasnorm_wordpool_576.txt	LTP250	ltpFR2	5	8	SWITCH	1422	n/a	n/a	0	0	0
1642.736	n/a	WORD	821368	wordpools/wasnorm_wordpool_576.txt	LTP250	ltpFR2	5	8	PISTON	1076	n/a	n/a	0	0	0
1645.454	n/a	WORD	822727	wordpools/wasnorm_wordpool_576.txt	LTP250	ltpFR2	5	8	WAGON	1578	n/a	n/a	0	0	0
1648.29	n/a	WORD	824145	wordpools/wasnorm_wordpool_576.txt	LTP250	ltpFR2	5	8	RADISH	1158	n/a	n/a	0	0	0
1651.126	n/a	WORD	825563	wordpools/wasnorm_wordpool_576.txt	LTP250	ltpFR2	5	8	COWBOY	395	n/a	n/a	0	0	0
1653.594	n/a	WORD	826797	wordpools/wasnorm_wordpool_576.txt	LTP250	ltpFR2	5	8	TUNNEL	1519	n/a	n/a	0	0	0
1656.198	n/a	WORD	828099	wordpools/wasnorm_wordpool_576.txt	LTP250	ltpFR2	5	8	BANQUET	86	n/a	n/a	0	0	0
1659.018	n/a	WORD	829509	wordpools/wasnorm_wordpool_576.txt	LTP250	ltpFR2	5	8	DRESSER	496	n/a	n/a	0	0	0
1661.686	n/a	WORD	830843	wordpools/wasnorm_wordpool_576.txt	LTP250	ltpFR2	5	8	CASHIER	254	n/a	n/a	0	0	0
1664.204	n/a	WORD	832102	wordpools/wasnorm_wordpool_576.txt	LTP250	ltpFR2	5	8	CHEMIST	292	n/a	n/a	0	0	0
1667.008	n/a	WORD	833504	wordpools/wasnorm_wordpool_576.txt	LTP250	ltpFR2	5	8	INFANT	737	n/a	n/a	0	0	0
1669.658	n/a	WORD	834829	wordpools/wasnorm_wordpool_576.txt	LTP250	ltpFR2	5	8	CAFE	216	n/a	n/a	0	0	0
1672.494	n/a	WORD	836247	wordpools/wasnorm_wordpool_576.txt	LTP250	ltpFR2	5	8	OUTLAW	989	n/a	n/a	0	0	0
1675.33	n/a	WORD	837665	wordpools/wasnorm_wordpool_576.txt	LTP250	ltpFR2	5	8	SCARF	1246	n/a	n/a	0	0	0
1678.134	n/a	WORD	839067	wordpools/wasnorm_wordpool_576.txt	LTP250	ltpFR2	5	8	TROMBONE	1508	n/a	n/a	0	0	0
1680.618	n/a	WORD	840309	wordpools/wasnorm_wordpool_576.txt	LTP250	ltpFR2	5	8	WHISTLE	1606	n/a	n/a	0	0	0
1683.088	n/a	WORD	841544	wordpools/wasnorm_wordpool_576.txt	LTP250	ltpFR2	5	8	HOOK	715	n/a	n/a	0	0	0
1685.822	n/a	WORD	842911	wordpools/wasnorm_wordpool_576.txt	LTP250	ltpFR2	5	8	SALMON	1227	n/a	n/a	0	0	0
1688.274	n/a	WORD	844137	wordpools/wasnorm_wordpool_576.txt	LTP250	ltpFR2	5	8	SHERIFF	1284	n/a	n/a	0	0	0
1691.028	n/a	WORD	845514	wordpools/wasnorm_wordpool_576.txt	LTP250	ltpFR2	5	8	CONCERT	360	n/a	n/a	0	0	0
1693.83	n/a	WORD	846915	wordpools/wasnorm_wordpool_576.txt	LTP250	ltpFR2	5	8	BEEF	113	n/a	n/a	0	0	0
1695.43	n/a	START	847715	n/a	LTP250	ltpFR2	5	n/a	n/a	n/a	12	n/a	n/a	n/a	n/a
1696.376	n/a	DISTRACTOR	848188	n/a	LTP250	ltpFR2	5	8	n/a	n/a	n/a	n/a	0	0	0
1696.382	n/a	PROB	848191	n/a	LTP250	ltpFR2	5	n/a	n/a	n/a	12	11	3	2	6
1699.334	n/a	PROB	849667	n/a	LTP250	ltpFR2	5	n/a	n/a	n/a	12	17	9	1	7
1700.87	n/a	PROB	850435	n/a	LTP250	ltpFR2	5	n/a	n/a	n/a	12	9	3	5	1
1703.004	n/a	PROB	851502	n/a	LTP250	ltpFR2	5	n/a	n/a	n/a	12	20	5	7	8
1706.506	n/a	PROB	853253	n/a	LTP250	ltpFR2	5	n/a	n/a	n/a	12	17	3	6	8
1708.742	n/a	PROB	854371	n/a	LTP250	ltpFR2	5	n/a	n/a	n/a	12	22	5	9	8
1715.598	n/a	PROB	857799	n/a	LTP250	ltpFR2	5	n/a	n/a	n/a	12	18	2	8	8
1717.166	n/a	PROB	858583	n/a	LTP250	ltpFR2	5	n/a	n/a	n/a	12	14	9	4	1
1719.072	n/a	STOP	859536	n/a	LTP250	ltpFR2	5	n/a	n/a	n/a	12	n/a	n/a	n/a	n/a
1721.336	n/a	REC_START	860668	n/a	LTP250	ltpFR2	5	8	n/a	n/a	n/a	n/a	0	0	0
1721.67	n/a	REC_WORD	860835	wordpools/wasnorm_wordpool_576.txt	LTP250	ltpFR2	5	8	TROMBONE	1508	n/a	n/a	0	0	0
1722.39	n/a	REC_WORD	861195	wordpools/wasnorm_wordpool_576.txt	LTP250	ltpFR2	5	8	SALMON	1227	n/a	n/a	0	0	0
1722.97	n/a	REC_WORD	861485	wordpools/wasnorm_wordpool_576.txt	LTP250	ltpFR2	5	8	SHERIFF	1284	n/a	n/a	0	0	0
1727.194	n/a	REC_WORD	863597	wordpools/wasnorm_wordpool_576.txt	LTP250	ltpFR2	5	8	BEEF	113	n/a	n/a	0	0	0
1797.886	n/a	REST_REWET	898943	n/a	LTP250	ltpFR2	5	8	n/a	n/a	n/a	n/a	0	0	0
2333.046	n/a	WORD	1166523	wordpools/wasnorm_wordpool_576.txt	LTP250	ltpFR2	5	9	JURY	766	n/a	n/a	0	0	0
2335.564	n/a	WORD	1167782	wordpools/wasnorm_wordpool_576.txt	LTP250	ltpFR2	5	9	THIEF	1456	n/a	n/a	0	0	0
2338.25	n/a	WORD	1169125	wordpools/wasnorm_wordpool_576.txt	LTP250	ltpFR2	5	9	CASHEW	253	n/a	n/a	0	0	0
2340.768	n/a	WORD	1170384	wordpools/wasnorm_wordpool_576.txt	LTP250	ltpFR2	5	9	OX	994	n/a	n/a	0	0	0
2343.354	n/a	WORD	1171677	wordpools/wasnorm_wordpool_576.txt	LTP250	ltpFR2	5	9	KITCHEN	778	n/a	n/a	0	0	0
2345.89	n/a	WORD	1172945	wordpools/wasnorm_wordpool_576.txt	LTP250	ltpFR2	5	9	POWDER	1117	n/a	n/a	0	0	0
2348.71	n/a	WORD	1174355	wordpools/wasnorm_wordpool_576.txt	LTP250	ltpFR2	5	9	CLOUD	328	n/a	n/a	0	0	0
2351.246	n/a	WORD	1175623	wordpools/wasnorm_wordpool_576.txt	LTP250	ltpFR2	5	9	PUDDLE	1140	n/a	n/a	0	0	0
2353.68	n/a	WORD	1176840	wordpools/wasnorm_wordpool_576.txt	LTP250	ltpFR2	5	9	CLAM	315	n/a	n/a	0	0	0
2356.15	n/a	WORD	1178075	wordpools/wasnorm_wordpool_576.txt	LTP250	ltpFR2	5	9	CUSTARD	429	n/a	n/a	0	0	0
2358.886	n/a	WORD	1179443	wordpools/wasnorm_wordpool_576.txt	LTP250	ltpFR2	5	9	CATTLE	261	n/a	n/a	0	0	0
2361.638	n/a	WORD	1180819	wordpools/wasnorm_wordpool_576.txt	LTP250	ltpFR2	5	9	SKILLET	1317	n/a	n/a	0	0	0
2364.09	n/a	WORD	1182045	wordpools/wasnorm_wordpool_576.txt	LTP250	ltpFR2	5	9	PLASTER	1085	n/a	n/a	0	0	0
2366.574	n/a	WORD	1183287	wordpools/wasnorm_wordpool_576.txt	LTP250	ltpFR2	5	9	BABY	64	n/a	n/a	0	0	0
2369.194	n/a	WORD	1184597	wordpools/wasnorm_wordpool_576.txt	LTP250	ltpFR2	5	9	CRIB	407	n/a	n/a	0	0	0
2371.996	n/a	WORD	1185998	wordpools/wasnorm_wordpool_576.txt	LTP250	ltpFR2	5	9	CRAB	397	n/a	n/a	0	0	0
2374.464	n/a	WORD	1187232	wordpools/wasnorm_wordpool_576.txt	LTP250	ltpFR2	5	9	SANDWICH	1232	n/a	n/a	0	0	0
2377.018	n/a	WORD	1188509	wordpools/wasnorm_wordpool_576.txt	LTP250	ltpFR2	5	9	CONTRACT	368	n/a	n/a	0	0	0
2379.736	n/a	WORD	1189868	wordpools/wasnorm_wordpool_576.txt	LTP250	ltpFR2	5	9	COMET	353	n/a	n/a	0	0	0
2382.322	n/a	WORD	1191161	wordpools/wasnorm_wordpool_576.txt	LTP250	ltpFR2	5	9	PEANUT	1032	n/a	n/a	0	0	0
2385.042	n/a	WORD	1192521	wordpools/wasnorm_wordpool_576.txt	LTP250	ltpFR2	5	9	MUFFIN	929	n/a	n/a	0	0	0
2387.476	n/a	WORD	1193738	wordpools/wasnorm_wordpool_576.txt	LTP250	ltpFR2	5	9	SCULPTURE	1258	n/a	n/a	0	0	0
2390.212	n/a	WORD	1195106	wordpools/wasnorm_wordpool_576.txt	LTP250	ltpFR2	5	9	BANJO	82	n/a	n/a	0	0	0
2392.966	n/a	WORD	1196483	wordpools/wasnorm_wordpool_576.txt	LTP250	ltpFR2	5	9	LIPSTICK	829	n/a	n/a	0	0	0
2394.582	n/a	START	1197291	n/a	LTP250	ltpFR2	5	n/a	n/a	n/a	13	n/a	n/a	n/a	n/a
2395.396	n/a	DISTRACTOR	1197698	n/a	LTP250	ltpFR2	5	9	n/a	n/a	n/a	n/a	0	0	0
2395.416	n/a	PROB	1197708	n/a	LTP250	ltpFR2	5	n/a	n/a	n/a	13	19	8	7	4
2398.152	n/a	PROB	1199076	n/a	LTP250	ltpFR2	5	n/a	n/a	n/a	13	10	3	2	5
2399.686	n/a	PROB	1199843	n/a	LTP250	ltpFR2	5	n/a	n/a	n/a	13	11	1	1	9
2400.906	n/a	PROB	1200453	n/a	LTP250	ltpFR2	5	n/a	n/a	n/a	13	22	7	8	7
2402.974	n/a	PROB	1201487	n/a	LTP250	ltpFR2	5	n/a	n/a	n/a	13	13	6	6	1
2404.39	n/a	PROB	1202195	n/a	LTP250	ltpFR2	5	n/a	n/a	n/a	13	9	4	2	3
2406.792	n/a	PROB	1203396	n/a	LTP250	ltpFR2	5	n/a	n/a	n/a	13	14	5	6	3
2408.978	n/a	PROB	1204489	n/a	LTP250	ltpFR2	5	n/a	n/a	n/a	13	19	9	6	4
2411.046	n/a	PROB	1205523	n/a	LTP250	ltpFR2	5	n/a	n/a	n/a	13	8	3	3	2
2413.382	n/a	PROB	1206691	n/a	LTP250	ltpFR2	5	n/a	n/a	n/a	13	18	8	4	6
2414.95	n/a	PROB	1207475	n/a	LTP250	ltpFR2	5	n/a	n/a	n/a	13	8	1	4	3
2418.584	n/a	STOP	1209292	n/a	LTP250	ltpFR2	5	n/a	n/a	n/a	13	n/a	n/a	n/a	n/a
2420.522	n/a	REC_START	1210261	n/a	LTP250	ltpFR2	5	9	n/a	n/a	n/a	n/a	0	0	0
2420.82	n/a	REC_WORD	1210410	wordpools/wasnorm_wordpool_576.txt	LTP250	ltpFR2	5	9	SCULPTURE	1258	n/a	n/a	0	0	0
2421.704	n/a	REC_WORD	1210852	wordpools/wasnorm_wordpool_576.txt	LTP250	ltpFR2	5	9	BANJO	82	n/a	n/a	0	0	0
2422.42	n/a	REC_WORD	1211210	wordpools/wasnorm_wordpool_576.txt	LTP250	ltpFR2	5	9	PEANUT	1032	n/a	n/a	0	0	0
2423.134	n/a	REC_WORD	1211567	wordpools/wasnorm_wordpool_576.txt	LTP250	ltpFR2	5	9	MUFFIN	929	n/a	n/a	0	0	0
2425.648	n/a	REC_WORD	1212824	wordpools/wasnorm_wordpool_576.txt	LTP250	ltpFR2	5	9	JURY	766	n/a	n/a	0	0	0
2431.118	n/a	REC_WORD	1215559	wordpools/wasnorm_wordpool_576.txt	LTP250	ltpFR2	5	9	PEAR	1033	n/a	n/a	0	0	0
2511.0	n/a	WORD	1255500	wordpools/wasnorm_wordpool_576.txt	LTP250	ltpFR2	5	10	STATUE	1374	n/a	n/a	0	0	0
2513.734	n/a	WORD	1256867	wordpools/wasnorm_wordpool_576.txt	LTP250	ltpFR2	5	10	ASIA	46	n/a	n/a	0	0	0
2516.254	n/a	WORD	1258127	wordpools/wasnorm_wordpool_576.txt	LTP250	ltpFR2	5	10	PECAN	1036	n/a	n/a	0	0	0
2518.788	n/a	WORD	1259394	wordpools/wasnorm_wordpool_576.txt	LTP250	ltpFR2	5	10	LAKE	796	n/a	n/a	0	0	0
2521.424	n/a	WORD	1260712	wordpools/wasnorm_wordpool_576.txt	LTP250	ltpFR2	5	10	CONVICT	371	n/a	n/a	0	0	0
2523.912	n/a	WORD	1261956	wordpools/wasnorm_wordpool_576.txt	LTP250	ltpFR2	5	10	TABLE	1426	n/a	n/a	0	0	0
2526.362	n/a	WORD	1263181	wordpools/wasnorm_wordpool_576.txt	LTP250	ltpFR2	5	10	PLUTO	1092	n/a	n/a	0	0	0
2528.832	n/a	WORD	1264416	wordpools/wasnorm_wordpool_576.txt	LTP250	ltpFR2	5	10	CHAUFFEUR	283	n/a	n/a	0	0	0
2531.484	n/a	WORD	1265742	wordpools/wasnorm_wordpool_576.txt	LTP250	ltpFR2	5	10	HOOD	714	n/a	n/a	0	0	0
2534.17	n/a	WORD	1267085	wordpools/wasnorm_wordpool_576.txt	LTP250	ltpFR2	5	10	DRAGON	492	n/a	n/a	0	0	0
2536.788	n/a	WORD	1268394	wordpools/wasnorm_wordpool_576.txt	LTP250	ltpFR2	5	10	SNAKE	1333	n/a	n/a	0	0	0
2539.34	n/a	WORD	1269670	wordpools/wasnorm_wordpool_576.txt	LTP250	ltpFR2	5	10	SPOUSE	1358	n/a	n/a	0	0	0
2542.094	n/a	WORD	1271047	wordpools/wasnorm_wordpool_576.txt	LTP250	ltpFR2	5	10	HAMPER	682	n/a	n/a	0	0	0
2544.694	n/a	WORD	1272347	wordpools/wasnorm_wordpool_576.txt	LTP250	ltpFR2	5	10	COLONEL	348	n/a	n/a	0	0	0
2547.346	n/a	WORD	1273673	wordpools/wasnorm_wordpool_576.txt	LTP250	ltpFR2	5	10	MATCH	878	n/a	n/a	0	0	0
2550.15	n/a	WORD	1275075	wordpools/wasnorm_wordpool_576.txt	LTP250	ltpFR2	5	10	CRATER	400	n/a	n/a	0	0	0
2552.986	n/a	WORD	1276493	wordpools/wasnorm_wordpool_576.txt	LTP250	ltpFR2	5	10	FLOWER	584	n/a	n/a	0	0	0
2555.77	n/a	WORD	1277885	wordpools/wasnorm_wordpool_576.txt	LTP250	ltpFR2	5	10	FOOT	590	n/a	n/a	0	0	0
2558.39	n/a	WORD	1279195	wordpools/wasnorm_wordpool_576.txt	LTP250	ltpFR2	5	10	VENUS	1557	n/a	n/a	0	0	0
2561.144	n/a	WORD	1280572	wordpools/wasnorm_wordpool_576.txt	LTP250	ltpFR2	5	10	SPOON	1357	n/a	n/a	0	0	0
2563.878	n/a	WORD	1281939	wordpools/wasnorm_wordpool_576.txt	LTP250	ltpFR2	5	10	KNIFE	785	n/a	n/a	0	0	0
2566.496	n/a	WORD	1283248	wordpools/wasnorm_wordpool_576.txt	LTP250	ltpFR2	5	10	DENTIST	447	n/a	n/a	0	0	0
2569.3	n/a	WORD	1284650	wordpools/wasnorm_wordpool_576.txt	LTP250	ltpFR2	5	10	LEG	809	n/a	n/a	0	0	0
2571.952	n/a	WORD	1285976	wordpools/wasnorm_wordpool_576.txt	LTP250	ltpFR2	5	10	DAUGHTER	442	n/a	n/a	0	0	0
2573.57	n/a	START	1286785	n/a	LTP250	ltpFR2	5	n/a	n/a	n/a	14	n/a	n/a	n/a	n/a
2574.694	n/a	DISTRACTOR	1287347	n/a	LTP250	ltpFR2	5	10	n/a	n/a	n/a	n/a	0	0	0
2574.72	n/a	PROB	1287360	n/a	LTP250	ltpFR2	5	n/a	n/a	n/a	14	10	6	2	2
2576.406	n/a	PROB	1288203	n/a	LTP250	ltpFR2	5	n/a	n/a	n/a	14	10	2	4	4
2578.324	n/a	PROB	1289162	n/a	LTP250	ltpFR2	5	n/a	n/a	n/a	14	15	3	7	5
2580.06	n/a	PROB	1290030	n/a	LTP250	ltpFR2	5	n/a	n/a	n/a	14	8	2	2	4
2581.46	n/a	PROB	1290730	n/a	LTP250	ltpFR2	5	n/a	n/a	n/a	14	20	7	9	4
2583.744	n/a	PROB	1291872	n/a	LTP250	ltpFR2	5	n/a	n/a	n/a	14	15	5	5	5
2584.946	n/a	PROB	1292473	n/a	LTP250	ltpFR2	5	n/a	n/a	n/a	14	21	7	6	8
2588.582	n/a	PROB	1294291	n/a	LTP250	ltpFR2	5	n/a	n/a	n/a	14	15	2	7	6
2592.904	n/a	PROB	1296452	n/a	LTP250	ltpFR2	5	n/a	n/a	n/a	14	19	5	6	8
2595.006	n/a	PROB	1297503	n/a	LTP250	ltpFR2	5	n/a	n/a	n/a	14	12	4	4	4
2596.64	n/a	STOP	1298320	n/a	LTP250	ltpFR2	5	n/a	n/a	n/a	14	n/a	n/a	n/a	n/a
2599.408	n/a	REC_START	1299704	n/a	LTP250	ltpFR2	5	10	n/a	n/a	n/a	n/a	0	0	0
2600.298	n/a	REC_WORD	1300149	wordpools/wasnorm_wordpool_576.txt	LTP250	ltpFR2	5	10	HOOD	714	n/a	n/a	0	0	0
2600.948	n/a	REC_WORD	1300474	wordpools/wasnorm_wordpool_576.txt	LTP250	ltpFR2	5	10	DRAGON	492	n/a	n/a	0	0	0
2601.736	n/a	REC_WORD	1300868	wordpools/wasnorm_wordpool_576.txt	LTP250	ltpFR2	5	10	PLUTO	1092	n/a	n/a	0	0	0
2602.52	n/a	REC_WORD	1301260	wordpools/wasnorm_wordpool_576.txt	LTP250	ltpFR2	5	10	MARS	873	n/a	n/a	0	0	0
2606.664	n/a	REC_WORD	1303332	wordpools/wasnorm_wordpool_576.txt	LTP250	ltpFR2	5	10	DENTIST	447	n/a	n/a	0	0	0
2607.494	n/a	REC_WORD	1303747	wordpools/wasnorm_wordpool_576.txt	LTP250	ltpFR2	5	10	LEG	809	n/a	n/a	0	0	0
2609.806	n/a	REC_WORD	1304903	wordpools/wasnorm_wordpool_576.txt	LTP250	ltpFR2	5	10	JURY	766	n/a	n/a	0	0	0
2689.87	n/a	DISTRACTOR	1344935	n/a	LTP250	ltpFR2	5	11	n/a	n/a	n/a	n/a	0	0	0
2689.87	n/a	START	1344935	n/a	LTP250	ltpFR2	5	n/a	n/a	n/a	15	n/a	n/a	n/a	n/a
2689.886	n/a	PROB	1344943	n/a	LTP250	ltpFR2	5	n/a	n/a	n/a	15	10	4	3	3
2692.654	n/a	PROB	1346327	n/a	LTP250	ltpFR2	5	n/a	n/a	n/a	15	14	9	4	1
2694.174	n/a	PROB	1347087	n/a	LTP250	ltpFR2	5	n/a	n/a	n/a	15	23	6	7	9
2696.742	n/a	PROB	1348371	n/a	LTP250	ltpFR2	5	n/a	n/a	n/a	15	10	6	3	1
2699.262	n/a	PROB	1349631	n/a	LTP250	ltpFR2	5	n/a	n/a	n/a	15	16	9	3	4
2703.332	n/a	PROB	1351666	n/a	LTP250	ltpFR2	5	n/a	n/a	n/a	15	18	8	2	8
2704.866	n/a	PROB	1352433	n/a	LTP250	ltpFR2	5	n/a	n/a	n/a	15	19	9	1	9
2706.334	n/a	PROB	1353167	n/a	LTP250	ltpFR2	5	n/a	n/a	n/a	15	12	1	3	8
2707.986	n/a	PROB	1353993	n/a	LTP250	ltpFR2	5	n/a	n/a	n/a	15	13	4	4	5
2713.87	n/a	STOP	1356935	n/a	LTP250	ltpFR2	5	n/a	n/a	n/a	15	n/a	n/a	n/a	n/a
2714.858	n/a	WORD	1357429	wordpools/wasnorm_wordpool_576.txt	LTP250	ltpFR2	5	11	CHAMPAGNE	278	n/a	n/a	0	0	0
2717.426	n/a	WORD	1358713	wordpools/wasnorm_wordpool_576.txt	LTP250	ltpFR2	5	11	LADDER	793	n/a	n/a	0	0	0
2720.096	n/a	WORD	1360048	wordpools/wasnorm_wordpool_576.txt	LTP250	ltpFR2	5	11	PLATE	1086	n/a	n/a	0	0	0
2722.63	n/a	WORD	1361315	wordpools/wasnorm_wordpool_576.txt	LTP250	ltpFR2	5	11	ULCER	1533	n/a	n/a	0	0	0
2725.1	n/a	WORD	1362550	wordpools/wasnorm_wordpool_576.txt	LTP250	ltpFR2	5	11	DONOR	485	n/a	n/a	0	0	0
2727.818	n/a	WORD	1363909	wordpools/wasnorm_wordpool_576.txt	LTP250	ltpFR2	5	11	VICTIM	1562	n/a	n/a	0	0	0
2730.438	n/a	WORD	1365219	wordpools/wasnorm_wordpool_576.txt	LTP250	ltpFR2	5	11	RECEIPT	1173	n/a	n/a	0	0	0
2732.974	n/a	WORD	1366487	wordpools/wasnorm_wordpool_576.txt	LTP250	ltpFR2	5	11	COLLEGE	346	n/a	n/a	0	0	0
2735.542	n/a	WORD	1367771	wordpools/wasnorm_wordpool_576.txt	LTP250	ltpFR2	5	11	CANYON	235	n/a	n/a	0	0	0
2738.096	n/a	WORD	1369048	wordpools/wasnorm_wordpool_576.txt	LTP250	ltpFR2	5	11	VALLEY	1545	n/a	n/a	0	0	0
2740.714	n/a	WORD	1370357	wordpools/wasnorm_wordpool_576.txt	LTP250	ltpFR2	5	11	CAMEL	223	n/a	n/a	0	0	0
2743.432	n/a	WORD	1371716	wordpools/wasnorm_wordpool_576.txt	LTP250	ltpFR2	5	11	THRONE	1461	n/a	n/a	0	0	0
2746.086	n/a	WORD	1373043	wordpools/wasnorm_wordpool_576.txt	LTP250	ltpFR2	5	11	FRANCE	601	n/a	n/a	0	0	0
2748.77	n/a	WORD	1374385	wordpools/wasnorm_wordpool_576.txt	LTP250	ltpFR2	5	11	LEADER	807	n/a	n/a	0	0	0
2751.59	n/a	WORD	1375795	wordpools/wasnorm_wordpool_576.txt	LTP250	ltpFR2	5	11	PROTON	1132	n/a	n/a	0	0	0
2754.408	n/a	WORD	1377204	wordpools/wasnorm_wordpool_576.txt	LTP250	ltpFR2	5	11	SNACK	1331	n/a	n/a	0	0	0
2757.194	n/a	WORD	1378597	wordpools/wasnorm_wordpool_576.txt	LTP250	ltpFR2	5	11	TERMITE	1451	n/a	n/a	0	0	0
2759.696	n/a	WORD	1379848	wordpools/wasnorm_wordpool_576.txt	LTP250	ltpFR2	5	11	COCOON	339	n/a	n/a	0	0	0
2762.298	n/a	WORD	1381149	wordpools/wasnorm_wordpool_576.txt	LTP250	ltpFR2	5	11	CHURCH	307	n/a	n/a	0	0	0
2765.068	n/a	WORD	1382534	wordpools/wasnorm_wordpool_576.txt	LTP250	ltpFR2	5	11	TRUCK	1512	n/a	n/a	0	0	0
2767.82	n/a	WORD	1383910	wordpools/wasnorm_wordpool_576.txt	LTP250	ltpFR2	5	11	HEART	697	n/a	n/a	0	0	0
2770.372	n/a	WORD	1385186	wordpools/wasnorm_wordpool_576.txt	LTP250	ltpFR2	5	11	JELLY	755	n/a	n/a	0	0	0
2773.076	n/a	WORD	1386538	wordpools/wasnorm_wordpool_576.txt	LTP250	ltpFR2	5	11	DOUGHNUT	490	n/a	n/a	0	0	0
2775.826	n/a	WORD	1387913	wordpools/wasnorm_wordpool_576.txt	LTP250	ltpFR2	5	11	BANKER	84	n/a	n/a	0	0	0
2777.446	n/a	START	1388723	n/a	LTP250	ltpFR2	5	n/a	n/a	n/a	16	n/a	n/a	n/a	n/a
2778.274	n/a	DISTRACTOR	1389137	n/a	LTP250	ltpFR2	5	11	n/a	n/a	n/a	n/a	0	0	0
2778.296	n/a	PROB	1389148	n/a	LTP250	ltpFR2	5	n/a	n/a	n/a	16	19	4	9	6
2780.498	n/a	PROB	1390249	n/a	LTP250	ltpFR2	5	n/a	n/a	n/a	16	17	5	6	6
2783.334	n/a	PROB	1391667	n/a	LTP250	ltpFR2	5	n/a	n/a	n/a	16	10	3	3	4
2784.902	n/a	PROB	1392451	n/a	LTP250	ltpFR2	5	n/a	n/a	n/a	16	19	8	7	4
2787.786	n/a	PROB	1393893	n/a	LTP250	ltpFR2	5	n/a	n/a	n/a	16	25	7	9	9
2792.008	n/a	PROB	1396004	n/a	LTP250	ltpFR2	5	n/a	n/a	n/a	16	19	7	3	9
2793.458	n/a	PROB	1396729	n/a	LTP250	ltpFR2	5	n/a	n/a	n/a	16	21	8	5	8
2797.194	n/a	PROB	1398597	n/a	LTP250	ltpFR2	5	n/a	n/a	n/a	16	21	3	9	9
2801.446	n/a	STOP	1400723	n/a	LTP250	ltpFR2	5	n/a	n/a	n/a	16	n/a	n/a	n/a	n/a
2803.234	n/a	REC_START	1401617	n/a	LTP250	ltpFR2	5	11	n/a	n/a	n/a	n/a	0	0	0
2804.33	n/a	REC_WORD	1402165	wordpools/wasnorm_wordpool_576.txt	LTP250	ltpFR2	5	11	DONOR	485	n/a	n/a	0	0	0
2805.094	n/a	REC_WORD	1402547	wordpools/wasnorm_wordpool_576.txt	LTP250	ltpFR2	5	11	BANKER	84	n/a	n/a	0	0	0
2809.928	n/a	REC_WORD	1404964	wordpools/wasnorm_wordpool_576.txt	LTP250	ltpFR2	5	11	COCOON	339	n/a	n/a	0	0	0
2816.298	n/a	REC_WORD	1408149	wordpools/wasnorm_wordpool_576.txt	LTP250	ltpFR2	5	11	CHAMPAGNE	278	n/a	n/a	0	0	0
2893.862	n/a	DISTRACTOR	1446931	n/a	LTP250	ltpFR2	5	12	n/a	n/a	n/a	n/a	0	0	0
2893.862	n/a	START	1446931	n/a	LTP250	ltpFR2	5	n/a	n/a	n/a	17	n/a	n/a	n/a	n/a
2893.894	n/a	PROB	1446947	n/a	LTP250	ltpFR2	5	n/a	n/a	n/a	17	18	4	5	9
2896.296	n/a	PROB	1448148	n/a	LTP250	ltpFR2	5	n/a	n/a	n/a	17	12	3	3	6
2898.198	n/a	PROB	1449099	n/a	LTP250	ltpFR2	5	n/a	n/a	n/a	17	12	2	3	7
2901.534	n/a	PROB	1450767	n/a	LTP250	ltpFR2	5	n/a	n/a	n/a	17	9	1	3	5
2904.488	n/a	PROB	1452244	n/a	LTP250	ltpFR2	5	n/a	n/a	n/a	17	8	4	2	2
2905.89	n/a	PROB	1452945	n/a	LTP250	ltpFR2	5	n/a	n/a	n/a	17	11	7	1	3
2907.79	n/a	PROB	1453895	n/a	LTP250	ltpFR2	5	n/a	n/a	n/a	17	23	7	8	8
2910.376	n/a	PROB	1455188	n/a	LTP250	ltpFR2	5	n/a	n/a	n/a	17	17	8	2	7
2917.862	n/a	STOP	1458931	n/a	LTP250	ltpFR2	5	n/a	n/a	n/a	17	n/a	n/a	n/a	n/a
2918.85	n/a	WORD	1459425	wordpools/wasnorm_wordpool_576.txt	LTP250	ltpFR2	5	12	ROBOT	1200	n/a	n/a	0	0	0
2921.386	n/a	WORD	1460693	wordpools/wasnorm_wordpool_576.txt	LTP250	ltpFR2	5	12	PENGUIN	1044	n/a	n/a	0	0	0
2924.072	n/a	WORD	1462036	wordpools/wasnorm_wordpool_576.txt	LTP250	ltpFR2	5	12	APRON	35	n/a	n/a	0	0	0
2926.606	n/a	WORD	1463303	wordpools/wasnorm_wordpool_576.txt	LTP250	ltpFR2	5	12	CABIN	211	n/a	n/a	0	0	0
2929.342	n/a	WORD	1464671	wordpools/wasnorm_wordpool_576.txt	LTP250	ltpFR2	5	12	GRAPE	654	n/a	n/a	0	0	0
2932.096	n/a	WORD	1466048	wordpools/wasnorm_wordpool_576.txt	LTP250	ltpFR2	5	12	TRANSPLANT	1496	n/a	n/a	0	0	0
2934.662	n/a	WORD	1467331	wordpools/wasnorm_wordpool_576.txt	LTP250	ltpFR2	5	12	LIVER	833	n/a	n/a	0	0	0
2937.382	n/a	WORD	1468691	wordpools/wasnorm_wordpool_576.txt	LTP250	ltpFR2	5	12	COOK	372	n/a	n/a	0	0	0
2939.886	n/a	WORD	1469943	wordpools/wasnorm_wordpool_576.txt	LTP250	ltpFR2	5	12	MARSH	874	n/a	n/a	0	0	0
2942.438	n/a	WORD	1471219	wordpools/wasnorm_wordpool_576.txt	LTP250	ltpFR2	5	12	MARKER	870	n/a	n/a	0	0	0
2944.974	n/a	WORD	1472487	wordpools/wasnorm_wordpool_576.txt	LTP250	ltpFR2	5	12	PAPER	1011	n/a	n/a	0	0	0
2947.542	n/a	WORD	1473771	wordpools/wasnorm_wordpool_576.txt	LTP250	ltpFR2	5	12	GROUND	666	n/a	n/a	0	0	0
2950.36	n/a	WORD	1475180	wordpools/wasnorm_wordpool_576.txt	LTP250	ltpFR2	5	12	ONION	977	n/a	n/a	0	0	0
2953.064	n/a	WORD	1476532	wordpools/wasnorm_wordpool_576.txt	LTP250	ltpFR2	5	12	CHEST	295	n/a	n/a	0	0	0
2955.548	n/a	WORD	1477774	wordpools/wasnorm_wordpool_576.txt	LTP250	ltpFR2	5	12	NECKLACE	940	n/a	n/a	0	0	0
2958.35	n/a	WORD	1479175	wordpools/wasnorm_wordpool_576.txt	LTP250	ltpFR2	5	12	PATROL	1027	n/a	n/a	0	0	0
2960.92	n/a	WORD	1480460	wordpools/wasnorm_wordpool_576.txt	LTP250	ltpFR2	5	12	COUNTY	389	n/a	n/a	0	0	0
2963.688	n/a	WORD	1481844	wordpools/wasnorm_wordpool_576.txt	LTP250	ltpFR2	5	12	SCISSORS	1250	n/a	n/a	0	0	0
2966.174	n/a	WORD	1483087	wordpools/wasnorm_wordpool_576.txt	LTP250	ltpFR2	5	12	SUNSET	1408	n/a	n/a	0	0	0
2968.826	n/a	WORD	1484413	wordpools/wasnorm_wordpool_576.txt	LTP250	ltpFR2	5	12	MOTEL	919	n/a	n/a	0	0	0
2971.312	n/a	WORD	1485656	wordpools/wasnorm_wordpool_576.txt	LTP250	ltpFR2	5	12	HEDGE	699	n/a	n/a	0	0	0
2974.098	n/a	WORD	1487049	wordpools/wasnorm_wordpool_576.txt	LTP250	ltpFR2	5	12	CLAMP	316	n/a	n/a	0	0	0
2976.8	n/a	WORD	1488400	wordpools/wasnorm_wordpool_576.txt	LTP250	ltpFR2	5	12	FRUIT	610	n/a	n/a	0	0	0
2979.402	n/a	WORD	1489701	wordpools/wasnorm_wordpool_576.txt	LTP250	ltpFR2	5	12	PEACH	1031	n/a	n/a	0	0	0
2981.022	n/a	START	1490511	n/a	LTP250	ltpFR2	5	n/a	n/a	n/a	18	n/a	n/a	n/a	n/a
2982.01	n/a	DISTRACTOR	1491005	n/a	LTP250	ltpFR2	5	12	n/a	n/a	n/a	n/a	0	0	0
2982.022	n/a	PROB	1491011	n/a	LTP250	ltpFR2	5	n/a	n/a	n/a	18	11	2	6	3
2984.49	n/a	PROB	1492245	n/a	LTP250	ltpFR2	5	n/a	n/a	n/a	18	14	6	3	5
2987.476	n/a	PROB	1493738	n/a	LTP250	ltpFR2	5	n/a	n/a	n/a	18	21	6	9	6
2989.978	n/a	PROB	1494989	n/a	LTP250	ltpFR2	5	n/a	n/a	n/a	18	17	7	8	2
2991.58	n/a	PROB	1495790	n/a	LTP250	ltpFR2	5	n/a	n/a	n/a	18	14	1	6	7
2993.63	n/a	PROB	1496815	n/a	LTP250	ltpFR2	5	n/a	n/a	n/a	18	19	6	4	9
2995.298	n/a	PROB	1497649	n/a	LTP250	ltpFR2	5	n/a	n/a	n/a	18	14	4	4	6
2997.034	n/a	PROB	1498517	n/a	LTP250	ltpFR2	5	n/a	n/a	n/a	18	16	5	4	7
3000.236	n/a	PROB	1500118	n/a	LTP250	ltpFR2	5	n/a	n/a	n/a	18	13	9	1	3
3001.57	n/a	PROB	1500785	n/a	LTP250	ltpFR2	5	n/a	n/a	n/a	18	10	6	1	3
3004.3	n/a	STOP	1502150	n/a	LTP250	ltpFR2	5	n/a	n/a	n/a	18	n/a	n/a	n/a	n/a
3006.91	n/a	REC_START	1503455	n/a	LTP250	ltpFR2	5	12	n/a	n/a	n/a	n/a	0	0	0
3007.986	n/a	REC_WORD	1503993	wordpools/wasnorm_wordpool_576.txt	LTP250	ltpFR2	5	12	ROBOT	1200	n/a	n/a	0	0	0
3008.614	n/a	REC_WORD	1504307	wordpools/wasnorm_wordpool_576.txt	LTP250	ltpFR2	5	12	PENGUIN	1044	n/a	n/a	0	0	0
3011.596	n/a	REC_WORD	1505798	wordpools/wasnorm_wordpool_576.txt	LTP250	ltpFR2	5	12	APRON	35	n/a	n/a	0	0	0
3013.026	n/a	REC_WORD	1506513	wordpools/wasnorm_wordpool_576.txt	LTP250	ltpFR2	5	12	CLAMP	316	n/a	n/a	0	0	0
3013.69	n/a	REC_WORD	1506845	wordpools/wasnorm_wordpool_576.txt	LTP250	ltpFR2	5	12	FRUIT	610	n/a	n/a	0	0	0
3014.63	n/a	REC_WORD	1507315	wordpools/wasnorm_wordpool_576.txt	LTP250	ltpFR2	5	12	PEACH	1031	n/a	n/a	0	0	0
3097.554	n/a	DISTRACTOR	1548777	n/a	LTP250	ltpFR2	5	13	n/a	n/a	n/a	n/a	0	0	0
3097.554	n/a	START	1548777	n/a	LTP250	ltpFR2	5	n/a	n/a	n/a	19	n/a	n/a	n/a	n/a
3097.586	n/a	PROB	1548793	n/a	LTP250	ltpFR2	5	n/a	n/a	n/a	19	9	2	1	6
3099.238	n/a	PROB	1549619	n/a	LTP250	ltpFR2	5	n/a	n/a	n/a	19	14	1	6	7
3101.008	n/a	PROB	1550504	n/a	LTP250	ltpFR2	5	n/a	n/a	n/a	19	15	3	5	7
3103.842	n/a	PROB	1551921	n/a	LTP250	ltpFR2	5	n/a	n/a	n/a	19	21	8	6	9
3106.61	n/a	PROB	1553305	n/a	LTP250	ltpFR2	5	n/a	n/a	n/a	19	18	5	4	9
3108.73	n/a	PROB	1554365	n/a	LTP250	ltpFR2	5	n/a	n/a	n/a	19	11	1	9	1
3110.68	n/a	PROB	1555340	n/a	LTP250	ltpFR2	5	n/a	n/a	n/a	19	12	2	9	1
3111.866	n/a	PROB	1555933	n/a	LTP250	ltpFR2	5	n/a	n/a	n/a	19	13	3	7	3
3113.35	n/a	PROB	1556675	n/a	LTP250	ltpFR2	5	n/a	n/a	n/a	19	17	7	3	7
3116.07	n/a	PROB	1558035	n/a	LTP250	ltpFR2	5	n/a	n/a	n/a	19	15	2	5	8
3117.538	n/a	PROB	1558769	n/a	LTP250	ltpFR2	5	n/a	n/a	n/a	19	9	2	1	6
3119.372	n/a	PROB	1559686	n/a	LTP250	ltpFR2	5	n/a	n/a	n/a	19	13	6	6	1
3120.904	n/a	STOP	1560452	n/a	LTP250	ltpFR2	5	n/a	n/a	n/a	19	n/a	n/a	n/a	n/a
3122.492	n/a	WORD	1561246	wordpools/wasnorm_wordpool_576.txt	LTP250	ltpFR2	5	13	ELBOW	520	n/a	n/a	0	0	0
3125.096	n/a	WORD	1562548	wordpools/wasnorm_wordpool_576.txt	LTP250	ltpFR2	5	13	GARBAGE	622	n/a	n/a	0	0	0
3127.88	n/a	WORD	1563940	wordpools/wasnorm_wordpool_576.txt	LTP250	ltpFR2	5	13	ATOM	55	n/a	n/a	0	0	0
3130.616	n/a	WORD	1565308	wordpools/wasnorm_wordpool_576.txt	LTP250	ltpFR2	5	13	TILE	1468	n/a	n/a	0	0	0
3133.25	n/a	WORD	1566625	wordpools/wasnorm_wordpool_576.txt	LTP250	ltpFR2	5	13	ARM	38	n/a	n/a	0	0	0
3135.954	n/a	WORD	1567977	wordpools/wasnorm_wordpool_576.txt	LTP250	ltpFR2	5	13	LONDON	843	n/a	n/a	0	0	0
3138.772	n/a	WORD	1569386	wordpools/wasnorm_wordpool_576.txt	LTP250	ltpFR2	5	13	BOX	159	n/a	n/a	0	0	0
3141.44	n/a	WORD	1570720	wordpools/wasnorm_wordpool_576.txt	LTP250	ltpFR2	5	13	WRENCH	1625	n/a	n/a	0	0	0
3144.178	n/a	WORD	1572089	wordpools/wasnorm_wordpool_576.txt	LTP250	ltpFR2	5	13	TURKEY	1520	n/a	n/a	0	0	0
3146.914	n/a	WORD	1573457	wordpools/wasnorm_wordpool_576.txt	LTP250	ltpFR2	5	13	PUPIL	1143	n/a	n/a	0	0	0
3149.432	n/a	WORD	1574716	wordpools/wasnorm_wordpool_576.txt	LTP250	ltpFR2	5	13	BLACKBOARD	133	n/a	n/a	0	0	0
3152.152	n/a	WORD	1576076	wordpools/wasnorm_wordpool_576.txt	LTP250	ltpFR2	5	13	CELLAR	267	n/a	n/a	0	0	0
3154.586	n/a	WORD	1577293	wordpools/wasnorm_wordpool_576.txt	LTP250	ltpFR2	5	13	TRIBE	1505	n/a	n/a	0	0	0
3157.122	n/a	WORD	1578561	wordpools/wasnorm_wordpool_576.txt	LTP250	ltpFR2	5	13	BUCKET	184	n/a	n/a	0	0	0
3159.64	n/a	WORD	1579820	wordpools/wasnorm_wordpool_576.txt	LTP250	ltpFR2	5	13	SPARROW	1347	n/a	n/a	0	0	0
3162.26	n/a	WORD	1581130	wordpools/wasnorm_wordpool_576.txt	LTP250	ltpFR2	5	13	BROTHER	179	n/a	n/a	0	0	0
3164.962	n/a	WORD	1582481	wordpools/wasnorm_wordpool_576.txt	LTP250	ltpFR2	5	13	LEOPARD	812	n/a	n/a	0	0	0
3167.446	n/a	WORD	1583723	wordpools/wasnorm_wordpool_576.txt	LTP250	ltpFR2	5	13	CORAL	378	n/a	n/a	0	0	0
3170.216	n/a	WORD	1585108	wordpools/wasnorm_wordpool_576.txt	LTP250	ltpFR2	5	13	PEBBLE	1035	n/a	n/a	0	0	0
3173.036	n/a	WORD	1586518	wordpools/wasnorm_wordpool_576.txt	LTP250	ltpFR2	5	13	BARREL	91	n/a	n/a	0	0	0
3175.654	n/a	WORD	1587827	wordpools/wasnorm_wordpool_576.txt	LTP250	ltpFR2	5	13	POLICE	1098	n/a	n/a	0	0	0
3178.09	n/a	WORD	1589045	wordpools/wasnorm_wordpool_576.txt	LTP250	ltpFR2	5	13	BADGE	68	n/a	n/a	0	0	0
3180.824	n/a	WORD	1590412	wordpools/wasnorm_wordpool_576.txt	LTP250	ltpFR2	5	13	PIGMENT	1066	n/a	n/a	0	0	0
3183.478	n/a	WORD	1591739	wordpools/wasnorm_wordpool_576.txt	LTP250	ltpFR2	5	13	SWAMP	1416	n/a	n/a	0	0	0
3185.098	n/a	START	1592549	n/a	LTP250	ltpFR2	5	n/a	n/a	n/a	20	n/a	n/a	n/a	n/a
3186.248	n/a	DISTRACTOR	1593124	n/a	LTP250	ltpFR2	5	13	n/a	n/a	n/a	n/a	0	0	0
3186.264	n/a	PROB	1593132	n/a	LTP250	ltpFR2	5	n/a	n/a	n/a	20	20	4	8	8
3189.066	n/a	PROB	1594533	n/a	LTP250	ltpFR2	5	n/a	n/a	n/a	20	8	2	1	5
3191.268	n/a	PROB	1595634	n/a	LTP250	ltpFR2	5	n/a	n/a	n/a	20	15	9	1	5
3192.686	n/a	PROB	1596343	n/a	LTP250	ltpFR2	5	n/a	n/a	n/a	20	13	2	5	6
3194.704	n/a	PROB	1597352	n/a	LTP250	ltpFR2	5	n/a	n/a	n/a	20	18	8	1	9
3196.538	n/a	PROB	1598269	n/a	LTP250	ltpFR2	5	n/a	n/a	n/a	20	16	2	9	5
3199.126	n/a	PROB	1599563	n/a	LTP250	ltpFR2	5	n/a	n/a	n/a	20	17	2	6	9
3201.66	n/a	PROB	1600830	n/a	LTP250	ltpFR2	5	n/a	n/a	n/a	20	9	1	1	7
3202.996	n/a	PROB	1601498	n/a	LTP250	ltpFR2	5	n/a	n/a	n/a	20	17	5	9	3
3208.052	n/a	STOP	1604026	n/a	LTP250	ltpFR2	5	n/a	n/a	n/a	20	n/a	n/a	n/a	n/a
3211.002	n/a	REC_START	1605501	n/a	LTP250	ltpFR2	5	13	n/a	n/a	n/a	n/a	0	0	0
3211.466	n/a	REC_WORD	1605733	wordpools/wasnorm_wordpool_576.txt	LTP250	ltpFR2	5	13	CORAL	378	n/a	n/a	0	0	0
3212.118	n/a	REC_WORD	1606059	wordpools/wasnorm_wordpool_576.txt	LTP250	ltpFR2	5	13	POWDER	1117	n/a	n/a	0	0	0
3212.726	n/a	REC_WORD	1606363	wordpools/wasnorm_wordpool_576.txt	LTP250	ltpFR2	5	13	PEPPER	1047	n/a	n/a	0	0	0
3213.35	n/a	REC_WORD	1606675	wordpools/wasnorm_wordpool_576.txt	LTP250	ltpFR2	5	13	BEACH	-1	n/a	n/a	0	0	0
3218.582	n/a	REC_WORD	1609291	wordpools/wasnorm_wordpool_576.txt	LTP250	ltpFR2	5	13	ELBOW	520	n/a	n/a	0	0	0
3219.444	n/a	REC_WORD	1609722	wordpools/wasnorm_wordpool_576.txt	LTP250	ltpFR2	5	13	ARM	38	n/a	n/a	0	0	0
3301.63	n/a	DISTRACTOR	1650815	n/a	LTP250	ltpFR2	5	14	n/a	n/a	n/a	n/a	0	0	0
3301.63	n/a	START	1650815	n/a	LTP250	ltpFR2	5	n/a	n/a	n/a	21	n/a	n/a	n/a	n/a
3301.662	n/a	PROB	1650831	n/a	LTP250	ltpFR2	5	n/a	n/a	n/a	21	11	1	5	5
3303.314	n/a	PROB	1651657	n/a	LTP250	ltpFR2	5	n/a	n/a	n/a	21	13	3	4	6
3304.548	n/a	PROB	1652274	n/a	LTP250	ltpFR2	5	n/a	n/a	n/a	21	21	5	9	7
3307.468	n/a	PROB	1653734	n/a	LTP250	ltpFR2	5	n/a	n/a	n/a	21	9	3	2	4
3309.92	n/a	PROB	1654960	n/a	LTP250	ltpFR2	5	n/a	n/a	n/a	21	12	1	3	8
3311.338	n/a	PROB	1655669	n/a	LTP250	ltpFR2	5	n/a	n/a	n/a	21	20	6	5	9
3313.14	n/a	PROB	1656570	n/a	LTP250	ltpFR2	5	n/a	n/a	n/a	21	12	3	8	1
3315.158	n/a	PROB	1657579	n/a	LTP250	ltpFR2	5	n/a	n/a	n/a	21	14	3	6	5
3317.81	n/a	PROB	1658905	n/a	LTP250	ltpFR2	5	n/a	n/a	n/a	21	21	9	7	5
3319.694	n/a	PROB	1659847	n/a	LTP250	ltpFR2	5	n/a	n/a	n/a	21	21	8	7	6
3325.63	n/a	STOP	1662815	n/a	LTP250	ltpFR2	5	n/a	n/a	n/a	21	n/a	n/a	n/a	n/a
3326.534	n/a	WORD	1663267	wordpools/wasnorm_wordpool_576.txt	LTP250	ltpFR2	5	14	MISSILE	900	n/a	n/a	0	0	0
3329.07	n/a	WORD	1664535	wordpools/wasnorm_wordpool_576.txt	LTP250	ltpFR2	5	14	SLIME	1327	n/a	n/a	0	0	0
3331.522	n/a	WORD	1665761	wordpools/wasnorm_wordpool_576.txt	LTP250	ltpFR2	5	14	BRICK	172	n/a	n/a	0	0	0
3334.192	n/a	WORD	1667096	wordpools/wasnorm_wordpool_576.txt	LTP250	ltpFR2	5	14	BROOK	177	n/a	n/a	0	0	0
3336.676	n/a	WORD	1668338	wordpools/wasnorm_wordpool_576.txt	LTP250	ltpFR2	5	14	WASHER	1592	n/a	n/a	0	0	0
3339.212	n/a	WORD	1669606	wordpools/wasnorm_wordpool_576.txt	LTP250	ltpFR2	5	14	MARROW	872	n/a	n/a	0	0	0
3341.746	n/a	WORD	1670873	wordpools/wasnorm_wordpool_576.txt	LTP250	ltpFR2	5	14	SPONGE	1355	n/a	n/a	0	0	0
3344.184	n/a	WORD	1672092	wordpools/wasnorm_wordpool_576.txt	LTP250	ltpFR2	5	14	GAVEL	627	n/a	n/a	0	0	0
3346.668	n/a	WORD	1673334	wordpools/wasnorm_wordpool_576.txt	LTP250	ltpFR2	5	14	SUSPECT	1415	n/a	n/a	0	0	0
3349.286	n/a	WORD	1674643	wordpools/wasnorm_wordpool_576.txt	LTP250	ltpFR2	5	14	BOARD	143	n/a	n/a	0	0	0
3352.09	n/a	WORD	1676045	wordpools/wasnorm_wordpool_576.txt	LTP250	ltpFR2	5	14	DASHBOARD	441	n/a	n/a	0	0	0
3354.758	n/a	WORD	1677379	wordpools/wasnorm_wordpool_576.txt	LTP250	ltpFR2	5	14	AIRPLANE	12	n/a	n/a	0	0	0
3357.228	n/a	WORD	1678614	wordpools/wasnorm_wordpool_576.txt	LTP250	ltpFR2	5	14	AGENT	10	n/a	n/a	0	0	0
3359.796	n/a	WORD	1679898	wordpools/wasnorm_wordpool_576.txt	LTP250	ltpFR2	5	14	BINDER	127	n/a	n/a	0	0	0
3362.498	n/a	WORD	1681249	wordpools/wasnorm_wordpool_576.txt	LTP250	ltpFR2	5	14	OUTFIT	988	n/a	n/a	0	0	0
3365.284	n/a	WORD	1682642	wordpools/wasnorm_wordpool_576.txt	LTP250	ltpFR2	5	14	KNAPSACK	783	n/a	n/a	0	0	0
3367.736	n/a	WORD	1683868	wordpools/wasnorm_wordpool_576.txt	LTP250	ltpFR2	5	14	MACHINE	852	n/a	n/a	0	0	0
3370.322	n/a	WORD	1685161	wordpools/wasnorm_wordpool_576.txt	LTP250	ltpFR2	5	14	WIDOW	1608	n/a	n/a	0	0	0
3372.89	n/a	WORD	1686445	wordpools/wasnorm_wordpool_576.txt	LTP250	ltpFR2	5	14	HERO	706	n/a	n/a	0	0	0
3375.676	n/a	WORD	1687838	wordpools/wasnorm_wordpool_576.txt	LTP250	ltpFR2	5	14	IDOL	733	n/a	n/a	0	0	0
3378.428	n/a	WORD	1689214	wordpools/wasnorm_wordpool_576.txt	LTP250	ltpFR2	5	14	MILK	895	n/a	n/a	0	0	0
3380.998	n/a	WORD	1690499	wordpools/wasnorm_wordpool_576.txt	LTP250	ltpFR2	5	14	CRAYON	401	n/a	n/a	0	0	0
3383.666	n/a	WORD	1691833	wordpools/wasnorm_wordpool_576.txt	LTP250	ltpFR2	5	14	OYSTER	995	n/a	n/a	0	0	0
3386.352	n/a	WORD	1693176	wordpools/wasnorm_wordpool_576.txt	LTP250	ltpFR2	5	14	SCALLOP	1242	n/a	n/a	0	0	0
3387.954	n/a	START	1693977	n/a	LTP250	ltpFR2	5	n/a	n/a	n/a	22	n/a	n/a	n/a	n/a
3388.756	n/a	DISTRACTOR	1694378	n/a	LTP250	ltpFR2	5	14	n/a	n/a	n/a	n/a	0	0	0
3388.77	n/a	PROB	1694385	n/a	LTP250	ltpFR2	5	n/a	n/a	n/a	22	12	1	4	7
3390.29	n/a	PROB	1695145	n/a	LTP250	ltpFR2	5	n/a	n/a	n/a	22	2	7	5	1
3394.476	n/a	PROB	1697238	n/a	LTP250	ltpFR2	5	n/a	n/a	n/a	22	16	5	3	8
3396.912	n/a	PROB	1698456	n/a	LTP250	ltpFR2	5	n/a	n/a	n/a	22	17	8	7	2
3399.03	n/a	PROB	1699515	n/a	LTP250	ltpFR2	5	n/a	n/a	n/a	22	11	6	3	2
3401.132	n/a	PROB	1700566	n/a	LTP250	ltpFR2	5	n/a	n/a	n/a	22	14	5	8	1
3404.734	n/a	PROB	1702367	n/a	LTP250	ltpFR2	5	n/a	n/a	n/a	22	11	4	7	1
3406.536	n/a	PROB	1703268	n/a	LTP250	ltpFR2	5	n/a	n/a	n/a	22	14	4	9	1
3408.172	n/a	PROB	1704086	n/a	LTP250	ltpFR2	5	n/a	n/a	n/a	22	17	4	4	9
3410.356	n/a	PROB	1705178	n/a	LTP250	ltpFR2	5	n/a	n/a	n/a	22	13	5	5	3
3411.496	n/a	STOP	1705748	n/a	LTP250	ltpFR2	5	n/a	n/a	n/a	22	n/a	n/a	n/a	n/a
3413.776	n/a	REC_START	1706888	n/a	LTP250	ltpFR2	5	14	n/a	n/a	n/a	n/a	0	0	0
3415.454	n/a	REC_WORD	1707727	wordpools/wasnorm_wordpool_576.txt	LTP250	ltpFR2	5	14	OYSTER	995	n/a	n/a	0	0	0
3415.986	n/a	REC_WORD	1707993	wordpools/wasnorm_wordpool_576.txt	LTP250	ltpFR2	5	14	SCALLOP	1242	n/a	n/a	0	0	0
3416.89	n/a	REC_WORD	1708445	wordpools/wasnorm_wordpool_576.txt	LTP250	ltpFR2	5	14	MILK	895	n/a	n/a	0	0	0
3417.58	n/a	REC_WORD	1708790	wordpools/wasnorm_wordpool_576.txt	LTP250	ltpFR2	5	14	WIDOW	1608	n/a	n/a	0	0	0
3418.212	n/a	REC_WORD	1709106	wordpools/wasnorm_wordpool_576.txt	LTP250	ltpFR2	5	14	HERO	706	n/a	n/a	0	0	0
3418.906	n/a	REC_WORD	1709453	wordpools/wasnorm_wordpool_576.txt	LTP250	ltpFR2	5	14	IDOL	733	n/a	n/a	0	0	0
3419.502	n/a	REC_WORD	1709751	wordpools/wasnorm_wordpool_576.txt	LTP250	ltpFR2	5	14	SLIMEY	-1	n/a	n/a	0	0	0
3420.474	n/a	REC_WORD	1710237	wordpools/wasnorm_wordpool_576.txt	LTP250	ltpFR2	5	14	BROOK	177	n/a	n/a	0	0	0
3421.154	n/a	REC_WORD	1710577	wordpools/wasnorm_wordpool_576.txt	LTP250	ltpFR2	5	14	MARROW	872	n/a	n/a	0	0	0
3425.554	n/a	REC_WORD	1712777	wordpools/wasnorm_wordpool_576.txt	LTP250	ltpFR2	5	14	BRICK	172	n/a	n/a	0	0	0
3427.526	n/a	REC_WORD	1713763	wordpools/wasnorm_wordpool_576.txt	LTP250	ltpFR2	5	14	WASHER	1592	n/a	n/a	0	0	0
3428.336	n/a	REC_WORD	1714168	wordpools/wasnorm_wordpool_576.txt	LTP250	ltpFR2	5	14	MACHINE	852	n/a	n/a	0	0	0
3432.65	n/a	REC_WORD	1716325	wordpools/wasnorm_wordpool_576.txt	LTP250	ltpFR2	5	14	MISSILE	900	n/a	n/a	0	0	0
3504.354	n/a	WORD	1752177	wordpools/wasnorm_wordpool_576.txt	LTP250	ltpFR2	5	15	STALLION	1369	n/a	n/a	0	0	0
3507.19	n/a	WORD	1753595	wordpools/wasnorm_wordpool_576.txt	LTP250	ltpFR2	5	15	COUSIN	392	n/a	n/a	0	0	0
3510.01	n/a	WORD	1755005	wordpools/wasnorm_wordpool_576.txt	LTP250	ltpFR2	5	15	EYELASH	546	n/a	n/a	0	0	0
3512.478	n/a	WORD	1756239	wordpools/wasnorm_wordpool_576.txt	LTP250	ltpFR2	5	15	COCKTAIL	338	n/a	n/a	0	0	0
3514.996	n/a	WORD	1757498	wordpools/wasnorm_wordpool_576.txt	LTP250	ltpFR2	5	15	FOX	598	n/a	n/a	0	0	0
3517.748	n/a	WORD	1758874	wordpools/wasnorm_wordpool_576.txt	LTP250	ltpFR2	5	15	POSTAGE	1113	n/a	n/a	0	0	0
3520.35	n/a	WORD	1760175	wordpools/wasnorm_wordpool_576.txt	LTP250	ltpFR2	5	15	STAMP	1370	n/a	n/a	0	0	0
3523.07	n/a	WORD	1761535	wordpools/wasnorm_wordpool_576.txt	LTP250	ltpFR2	5	15	PLIERS	1089	n/a	n/a	0	0	0
3525.888	n/a	WORD	1762944	wordpools/wasnorm_wordpool_576.txt	LTP250	ltpFR2	5	15	GUARD	667	n/a	n/a	0	0	0
3528.508	n/a	WORD	1764254	wordpools/wasnorm_wordpool_576.txt	LTP250	ltpFR2	5	15	HEADBAND	696	n/a	n/a	0	0	0
3531.062	n/a	WORD	1765531	wordpools/wasnorm_wordpool_576.txt	LTP250	ltpFR2	5	15	MAPLE	866	n/a	n/a	0	0	0
3533.646	n/a	WORD	1766823	wordpools/wasnorm_wordpool_576.txt	LTP250	ltpFR2	5	15	UNCLE	1536	n/a	n/a	0	0	0
3536.364	n/a	WORD	1768182	wordpools/wasnorm_wordpool_576.txt	LTP250	ltpFR2	5	15	RIFLE	1192	n/a	n/a	0	0	0
3539.002	n/a	WORD	1769501	wordpools/wasnorm_wordpool_576.txt	LTP250	ltpFR2	5	15	PREACHER	1119	n/a	n/a	0	0	0
3541.486	n/a	WORD	1770743	wordpools/wasnorm_wordpool_576.txt	LTP250	ltpFR2	5	15	CROSS	413	n/a	n/a	0	0	0
3544.138	n/a	WORD	1772069	wordpools/wasnorm_wordpool_576.txt	LTP250	ltpFR2	5	15	BANK	83	n/a	n/a	0	0	0
3546.942	n/a	WORD	1773471	wordpools/wasnorm_wordpool_576.txt	LTP250	ltpFR2	5	15	PANTHER	1009	n/a	n/a	0	0	0
3549.426	n/a	WORD	1774713	wordpools/wasnorm_wordpool_576.txt	LTP250	ltpFR2	5	15	CHIPMUNK	304	n/a	n/a	0	0	0
3551.962	n/a	WORD	1775981	wordpools/wasnorm_wordpool_576.txt	LTP250	ltpFR2	5	15	GOBLIN	645	n/a	n/a	0	0	0
3554.78	n/a	WORD	1777390	wordpools/wasnorm_wordpool_576.txt	LTP250	ltpFR2	5	15	LUMBER	848	n/a	n/a	0	0	0
3557.398	n/a	WORD	1778699	wordpools/wasnorm_wordpool_576.txt	LTP250	ltpFR2	5	15	PIZZA	1079	n/a	n/a	0	0	0
3559.884	n/a	WORD	1779942	wordpools/wasnorm_wordpool_576.txt	LTP250	ltpFR2	5	15	SALAD	1224	n/a	n/a	0	0	0
3562.52	n/a	WORD	1781260	wordpools/wasnorm_wordpool_576.txt	LTP250	ltpFR2	5	15	FOREST	593	n/a	n/a	0	0	0
3565.058	n/a	WORD	1782529	wordpools/wasnorm_wordpool_576.txt	LTP250	ltpFR2	5	15	SPACE	1345	n/a	n/a	0	0	0
3566.674	n/a	START	1783337	n/a	LTP250	ltpFR2	5	n/a	n/a	n/a	23	n/a	n/a	n/a	n/a
3567.552	n/a	DISTRACTOR	1783776	n/a	LTP250	ltpFR2	5	15	n/a	n/a	n/a	n/a	0	0	0
3567.576	n/a	PROB	1783788	n/a	LTP250	ltpFR2	5	n/a	n/a	n/a	23	17	3	8	6
3570.244	n/a	PROB	1785122	n/a	LTP250	ltpFR2	5	n/a	n/a	n/a	23	22	8	7	7
3572.262	n/a	PROB	1786131	n/a	LTP250	ltpFR2	5	n/a	n/a	n/a	23	12	1	6	5
3574.264	n/a	PROB	1787132	n/a	LTP250	ltpFR2	5	n/a	n/a	n/a	23	14	3	4	7
3576.1	n/a	PROB	1788050	n/a	LTP250	ltpFR2	5	n/a	n/a	n/a	23	14	4	4	6
3577.984	n/a	PROB	1788992	n/a	LTP250	ltpFR2	5	n/a	n/a	n/a	23	8	5	1	2
3580.07	n/a	PROB	1790035	n/a	LTP250	ltpFR2	5	n/a	n/a	n/a	23	10	2	6	2
3581.654	n/a	PROB	1790827	n/a	LTP250	ltpFR2	5	n/a	n/a	n/a	23	20	6	7	7
3583.504	n/a	PROB	1791752	n/a	LTP250	ltpFR2	5	n/a	n/a	n/a	23	4	1	2	1
3584.806	n/a	PROB	1792403	n/a	LTP250	ltpFR2	5	n/a	n/a	n/a	23	15	1	8	6
3590.674	n/a	STOP	1795337	n/a	LTP250	ltpFR2	5	n/a	n/a	n/a	23	n/a	n/a	n/a	n/a
3592.546	n/a	REC_START	1796273	n/a	LTP250	ltpFR2	5	15	n/a	n/a	n/a	n/a	0	0	0
3594.158	n/a	REC_WORD	1797079	wordpools/wasnorm_wordpool_576.txt	LTP250	ltpFR2	5	15	POSTAGE	1113	n/a	n/a	0	0	0
3594.806	n/a	REC_WORD	1797403	wordpools/wasnorm_wordpool_576.txt	LTP250	ltpFR2	5	15	STAMP	1370	n/a	n/a	0	0	0
3595.572	n/a	REC_WORD	1797786	wordpools/wasnorm_wordpool_576.txt	LTP250	ltpFR2	5	15	UNCLE	1536	n/a	n/a	0	0	0
3596.188	n/a	REC_WORD	1798094	wordpools/wasnorm_wordpool_576.txt	LTP250	ltpFR2	5	15	COUSIN	392	n/a	n/a	0	0	0
3596.924	n/a	REC_WORD	1798462	wordpools/wasnorm_wordpool_576.txt	LTP250	ltpFR2	5	15	RIFLE	1192	n/a	n/a	0	0	0
3597.548	n/a	REC_WORD	1798774	wordpools/wasnorm_wordpool_576.txt	LTP250	ltpFR2	5	15	CHIPMUNK	304	n/a	n/a	0	0	0
3602.72	n/a	REC_WORD	1801360	wordpools/wasnorm_wordpool_576.txt	LTP250	ltpFR2	5	15	STALLION	1369	n/a	n/a	0	0	0
3614.11	n/a	REC_WORD	1807055	wordpools/wasnorm_wordpool_576.txt	LTP250	ltpFR2	5	15	PREACHER	1119	n/a	n/a	0	0	0
3683.008	n/a	DISTRACTOR	1841504	n/a	LTP250	ltpFR2	5	16	n/a	n/a	n/a	n/a	0	0	0
3683.008	n/a	START	1841504	n/a	LTP250	ltpFR2	5	n/a	n/a	n/a	24	n/a	n/a	n/a	n/a
3683.026	n/a	PROB	1841513	n/a	LTP250	ltpFR2	5	n/a	n/a	n/a	24	13	5	7	1
3687.378	n/a	PROB	1843689	n/a	LTP250	ltpFR2	5	n/a	n/a	n/a	24	11	6	1	4
3688.678	n/a	PROB	1844339	n/a	LTP250	ltpFR2	5	n/a	n/a	n/a	24	17	3	9	5
3691.248	n/a	PROB	1845624	n/a	LTP250	ltpFR2	5	n/a	n/a	n/a	24	13	5	1	7
3694.384	n/a	PROB	1847192	n/a	LTP250	ltpFR2	5	n/a	n/a	n/a	24	16	8	5	3
3696.652	n/a	PROB	1848326	n/a	LTP250	ltpFR2	5	n/a	n/a	n/a	24	16	7	1	8
3699.254	n/a	PROB	1849627	n/a	LTP250	ltpFR2	5	n/a	n/a	n/a	24	20	4	9	7
3701.124	n/a	PROB	1850562	n/a	LTP250	ltpFR2	5	n/a	n/a	n/a	24	18	4	6	8
3703.11	n/a	PROB	1851555	n/a	LTP250	ltpFR2	5	n/a	n/a	n/a	24	20	9	6	5
3707.01	n/a	STOP	1853505	n/a	LTP250	ltpFR2	5	n/a	n/a	n/a	24	n/a	n/a	n/a	n/a
3708.08	n/a	WORD	1854040	wordpools/wasnorm_wordpool_576.txt	LTP250	ltpFR2	5	16	MISTER	901	n/a	n/a	0	0	0
3710.898	n/a	WORD	1855449	wordpools/wasnorm_wordpool_576.txt	LTP250	ltpFR2	5	16	FEMALE	559	n/a	n/a	0	0	0
3713.6	n/a	WORD	1856800	wordpools/wasnorm_wordpool_576.txt	LTP250	ltpFR2	5	16	STOMACH	1384	n/a	n/a	0	0	0
3716.204	n/a	WORD	1858102	wordpools/wasnorm_wordpool_576.txt	LTP250	ltpFR2	5	16	DAISY	435	n/a	n/a	0	0	0
3718.738	n/a	WORD	1859369	wordpools/wasnorm_wordpool_576.txt	LTP250	ltpFR2	5	16	FLUTE	585	n/a	n/a	0	0	0
3721.324	n/a	WORD	1860662	wordpools/wasnorm_wordpool_576.txt	LTP250	ltpFR2	5	16	VIKING	1565	n/a	n/a	0	0	0
3724.026	n/a	WORD	1862013	wordpools/wasnorm_wordpool_576.txt	LTP250	ltpFR2	5	16	LADY	794	n/a	n/a	0	0	0
3726.728	n/a	WORD	1863364	wordpools/wasnorm_wordpool_576.txt	LTP250	ltpFR2	5	16	TEMPLE	1448	n/a	n/a	0	0	0
3729.164	n/a	WORD	1864582	wordpools/wasnorm_wordpool_576.txt	LTP250	ltpFR2	5	16	FRIAR	605	n/a	n/a	0	0	0
3731.95	n/a	WORD	1865975	wordpools/wasnorm_wordpool_576.txt	LTP250	ltpFR2	5	16	QUARTER	1148	n/a	n/a	0	0	0
3734.502	n/a	WORD	1867251	wordpools/wasnorm_wordpool_576.txt	LTP250	ltpFR2	5	16	RIVER	1194	n/a	n/a	0	0	0
3737.156	n/a	WORD	1868578	wordpools/wasnorm_wordpool_576.txt	LTP250	ltpFR2	5	16	FLEET	578	n/a	n/a	0	0	0
3739.64	n/a	WORD	1869820	wordpools/wasnorm_wordpool_576.txt	LTP250	ltpFR2	5	16	GANGSTER	620	n/a	n/a	0	0	0
3742.392	n/a	WORD	1871196	wordpools/wasnorm_wordpool_576.txt	LTP250	ltpFR2	5	16	FRIEND	606	n/a	n/a	0	0	0
3744.894	n/a	WORD	1872447	wordpools/wasnorm_wordpool_576.txt	LTP250	ltpFR2	5	16	LOVER	846	n/a	n/a	0	0	0
3747.646	n/a	WORD	1873823	wordpools/wasnorm_wordpool_576.txt	LTP250	ltpFR2	5	16	SMOG	1330	n/a	n/a	0	0	0
3750.298	n/a	WORD	1875149	wordpools/wasnorm_wordpool_576.txt	LTP250	ltpFR2	5	16	SUMMIT	1405	n/a	n/a	0	0	0
3752.884	n/a	WORD	1876442	wordpools/wasnorm_wordpool_576.txt	LTP250	ltpFR2	5	16	DINER	467	n/a	n/a	0	0	0
3755.32	n/a	WORD	1877660	wordpools/wasnorm_wordpool_576.txt	LTP250	ltpFR2	5	16	MAILBOX	857	n/a	n/a	0	0	0
3757.788	n/a	WORD	1878894	wordpools/wasnorm_wordpool_576.txt	LTP250	ltpFR2	5	16	WORLD	1622	n/a	n/a	0	0	0
3760.574	n/a	WORD	1880287	wordpools/wasnorm_wordpool_576.txt	LTP250	ltpFR2	5	16	CROWN	415	n/a	n/a	0	0	0
3763.194	n/a	WORD	1881597	wordpools/wasnorm_wordpool_576.txt	LTP250	ltpFR2	5	16	POPCORN	1104	n/a	n/a	0	0	0
3766.012	n/a	WORD	1883006	wordpools/wasnorm_wordpool_576.txt	LTP250	ltpFR2	5	16	WOMAN	1620	n/a	n/a	0	0	0
3768.798	n/a	WORD	1884399	wordpools/wasnorm_wordpool_576.txt	LTP250	ltpFR2	5	16	TEACHER	1440	n/a	n/a	0	0	0
3770.416	n/a	START	1885208	n/a	LTP250	ltpFR2	5	n/a	n/a	n/a	25	n/a	n/a	n/a	n/a
3771.492	n/a	DISTRACTOR	1885746	n/a	LTP250	ltpFR2	5	16	n/a	n/a	n/a	n/a	0	0	0
3771.518	n/a	PROB	1885759	n/a	LTP250	ltpFR2	5	n/a	n/a	n/a	25	19	7	3	9
3773.286	n/a	PROB	1886643	n/a	LTP250	ltpFR2	5	n/a	n/a	n/a	25	9	3	4	2
3775.204	n/a	PROB	1887602	n/a	LTP250	ltpFR2	5	n/a	n/a	n/a	25	7	1	4	2
3777.572	n/a	PROB	1888786	n/a	LTP250	ltpFR2	5	n/a	n/a	n/a	25	16	4	8	4
3779.608	n/a	PROB	1889804	n/a	LTP250	ltpFR2	5	n/a	n/a	n/a	25	11	3	2	6
3781.458	n/a	PROB	1890729	n/a	LTP250	ltpFR2	5	n/a	n/a	n/a	25	19	7	6	6
3783.278	n/a	PROB	1891639	n/a	LTP250	ltpFR2	5	n/a	n/a	n/a	25	14	6	7	1
3785.046	n/a	PROB	1892523	n/a	LTP250	ltpFR2	5	n/a	n/a	n/a	25	17	2	8	7
3786.514	n/a	PROB	1893257	n/a	LTP250	ltpFR2	5	n/a	n/a	n/a	25	13	2	9	2
3788.764	n/a	PROB	1894382	n/a	LTP250	ltpFR2	5	n/a	n/a	n/a	25	10	4	3	3
3790.35	n/a	PROB	1895175	n/a	LTP250	ltpFR2	5	n/a	n/a	n/a	25	16	8	3	5
3793.204	n/a	STOP	1896602	n/a	LTP250	ltpFR2	5	n/a	n/a	n/a	25	n/a	n/a	n/a	n/a
3796.206	n/a	REC_START	1898103	n/a	LTP250	ltpFR2	5	16	n/a	n/a	n/a	n/a	0	0	0
3801.938	n/a	REC_WORD	1900969	wordpools/wasnorm_wordpool_576.txt	LTP250	ltpFR2	5	16	FRIAR	605	n/a	n/a	0	0	0
3802.91	n/a	REC_WORD	1901455	wordpools/wasnorm_wordpool_576.txt	LTP250	ltpFR2	5	16	MISTRESS	-1	n/a	n/a	0	0	0
3804.064	n/a	REC_WORD	1902032	wordpools/wasnorm_wordpool_576.txt	LTP250	ltpFR2	5	16	LADY	794	n/a	n/a	0	0	0
3806.758	n/a	REC_WORD	1903379	wordpools/wasnorm_wordpool_576.txt	LTP250	ltpFR2	5	16	STOMACH	1384	n/a	n/a	0	0	0
3809.412	n/a	REC_WORD	1904706	wordpools/wasnorm_wordpool_576.txt	LTP250	ltpFR2	5	16	MISTER	901	n/a	n/a	0	0	0
3813.426	n/a	REC_WORD	1906713	wordpools/wasnorm_wordpool_576.txt	LTP250	ltpFR2	5	16	DAISY	435	n/a	n/a	0	0	0
3814.448	n/a	REC_WORD	1907224	wordpools/wasnorm_wordpool_576.txt	LTP250	ltpFR2	5	16	VIKING	1565	n/a	n/a	0	0	0
3815.412	n/a	REC_WORD	1907706	wordpools/wasnorm_wordpool_576.txt	LTP250	ltpFR2	5	16	FLEET	578	n/a	n/a	0	0	0
3819.632	n/a	REC_WORD	1909816	wordpools/wasnorm_wordpool_576.txt	LTP250	ltpFR2	5	16	BROOK	177	n/a	n/a	0	0	0
3828.742	n/a	REC_WORD	1914371	wordpools/wasnorm_wordpool_576.txt	LTP250	ltpFR2	5	16	FOG	-1	n/a	n/a	0	0	0
3831.992	n/a	REC_WORD	1915996	wordpools/wasnorm_wordpool_576.txt	LTP250	ltpFR2	5	16	SMOG	1330	n/a	n/a	0	0	0
3872.754	n/a	REST_REWET	1936377	n/a	LTP250	ltpFR2	5	16	n/a	n/a	n/a	n/a	0	0	0
4035.36	n/a	WORD	2017680	wordpools/wasnorm_wordpool_576.txt	LTP250	ltpFR2	5	17	MESSAGE	888	n/a	n/a	0	0	0
4037.896	n/a	WORD	2018948	wordpools/wasnorm_wordpool_576.txt	LTP250	ltpFR2	5	17	ROD	1203	n/a	n/a	0	0	0
4040.582	n/a	WORD	2020291	wordpools/wasnorm_wordpool_576.txt	LTP250	ltpFR2	5	17	SHIRT	1287	n/a	n/a	0	0	0
4043.168	n/a	WORD	2021584	wordpools/wasnorm_wordpool_576.txt	LTP250	ltpFR2	5	17	PASSAGE	1019	n/a	n/a	0	0	0
4046.004	n/a	WORD	2023002	wordpools/wasnorm_wordpool_576.txt	LTP250	ltpFR2	5	17	EGYPT	519	n/a	n/a	0	0	0
4048.622	n/a	WORD	2024311	wordpools/wasnorm_wordpool_576.txt	LTP250	ltpFR2	5	17	RELISH	1183	n/a	n/a	0	0	0
4051.126	n/a	WORD	2025563	wordpools/wasnorm_wordpool_576.txt	LTP250	ltpFR2	5	17	TART	1436	n/a	n/a	0	0	0
4053.944	n/a	WORD	2026972	wordpools/wasnorm_wordpool_576.txt	LTP250	ltpFR2	5	17	BACKBONE	66	n/a	n/a	0	0	0
4056.596	n/a	WORD	2028298	wordpools/wasnorm_wordpool_576.txt	LTP250	ltpFR2	5	17	MAILMAN	858	n/a	n/a	0	0	0
4059.048	n/a	WORD	2029524	wordpools/wasnorm_wordpool_576.txt	LTP250	ltpFR2	5	17	EAGLE	512	n/a	n/a	0	0	0
4061.666	n/a	WORD	2030833	wordpools/wasnorm_wordpool_576.txt	LTP250	ltpFR2	5	17	AIRPORT	13	n/a	n/a	0	0	0
4064.368	n/a	WORD	2032184	wordpools/wasnorm_wordpool_576.txt	LTP250	ltpFR2	5	17	UMPIRE	1535	n/a	n/a	0	0	0
4067.038	n/a	WORD	2033519	wordpools/wasnorm_wordpool_576.txt	LTP250	ltpFR2	5	17	BOYFRIEND	162	n/a	n/a	0	0	0
4069.756	n/a	WORD	2034878	wordpools/wasnorm_wordpool_576.txt	LTP250	ltpFR2	5	17	PRIMATE	1123	n/a	n/a	0	0	0
4072.392	n/a	WORD	2036196	wordpools/wasnorm_wordpool_576.txt	LTP250	ltpFR2	5	17	ZEBRA	1635	n/a	n/a	0	0	0
4075.228	n/a	WORD	2037614	wordpools/wasnorm_wordpool_576.txt	LTP250	ltpFR2	5	17	DONKEY	484	n/a	n/a	0	0	0
4077.998	n/a	WORD	2038999	wordpools/wasnorm_wordpool_576.txt	LTP250	ltpFR2	5	17	MOP	916	n/a	n/a	0	0	0
4080.548	n/a	WORD	2040274	wordpools/wasnorm_wordpool_576.txt	LTP250	ltpFR2	5	17	SKIRT	1319	n/a	n/a	0	0	0
4083.068	n/a	WORD	2041534	wordpools/wasnorm_wordpool_576.txt	LTP250	ltpFR2	5	17	DRIVER	499	n/a	n/a	0	0	0
4085.82	n/a	WORD	2042910	wordpools/wasnorm_wordpool_576.txt	LTP250	ltpFR2	5	17	ATLAS	53	n/a	n/a	0	0	0
4088.59	n/a	WORD	2044295	wordpools/wasnorm_wordpool_576.txt	LTP250	ltpFR2	5	17	GRILL	661	n/a	n/a	0	0	0
4091.276	n/a	WORD	2045638	wordpools/wasnorm_wordpool_576.txt	LTP250	ltpFR2	5	17	YARN	1631	n/a	n/a	0	0	0
4093.996	n/a	WORD	2046998	wordpools/wasnorm_wordpool_576.txt	LTP250	ltpFR2	5	17	THREAD	1460	n/a	n/a	0	0	0
4096.746	n/a	WORD	2048373	wordpools/wasnorm_wordpool_576.txt	LTP250	ltpFR2	5	17	SHORTCAKE	1292	n/a	n/a	0	0	0
4098.364	n/a	START	2049182	n/a	LTP250	ltpFR2	5	n/a	n/a	n/a	26	n/a	n/a	n/a	n/a
4099.328	n/a	DISTRACTOR	2049664	n/a	LTP250	ltpFR2	5	17	n/a	n/a	n/a	n/a	0	0	0
4099.348	n/a	PROB	2049674	n/a	LTP250	ltpFR2	5	n/a	n/a	n/a	26	19	6	6	7
4101.168	n/a	PROB	2050584	n/a	LTP250	ltpFR2	5	n/a	n/a	n/a	26	9	2	6	1
4102.686	n/a	PROB	2051343	n/a	LTP250	ltpFR2	5	n/a	n/a	n/a	26	14	7	5	2
4105.088	n/a	PROB	2052544	n/a	LTP250	ltpFR2	5	n/a	n/a	n/a	26	13	2	6	5
4108.256	n/a	PROB	2054128	n/a	LTP250	ltpFR2	5	n/a	n/a	n/a	26	17	4	8	5
4110.776	n/a	PROB	2055388	n/a	LTP250	ltpFR2	5	n/a	n/a	n/a	26	11	4	2	7
4112.526	n/a	PROB	2056263	n/a	LTP250	ltpFR2	5	n/a	n/a	n/a	26	18	5	5	8
4113.946	n/a	PROB	2056973	n/a	LTP250	ltpFR2	5	n/a	n/a	n/a	26	15	5	5	5
4114.98	n/a	PROB	2057490	n/a	LTP250	ltpFR2	5	n/a	n/a	n/a	26	20	8	7	6
4122.366	n/a	STOP	2061183	n/a	LTP250	ltpFR2	5	n/a	n/a	n/a	26	n/a	n/a	n/a	n/a
4124.32	n/a	REC_START	2062160	n/a	LTP250	ltpFR2	5	17	n/a	n/a	n/a	n/a	0	0	0
4125.782	n/a	REC_WORD	2062891	wordpools/wasnorm_wordpool_576.txt	LTP250	ltpFR2	5	17	ZEBRA	1635	n/a	n/a	0	0	0
4126.54	n/a	REC_WORD	2063270	wordpools/wasnorm_wordpool_576.txt	LTP250	ltpFR2	5	17	PRIMATE	1123	n/a	n/a	0	0	0
4129.354	n/a	REC_WORD	2064677	wordpools/wasnorm_wordpool_576.txt	LTP250	ltpFR2	5	17	MESSAGE	888	n/a	n/a	0	0	0
4130.552	n/a	REC_WORD	2065276	wordpools/wasnorm_wordpool_576.txt	LTP250	ltpFR2	5	17	SHIRT	1287	n/a	n/a	0	0	0
4131.576	n/a	REC_WORD	2065788	wordpools/wasnorm_wordpool_576.txt	LTP250	ltpFR2	5	17	ROD	1203	n/a	n/a	0	0	0
4133.22	n/a	REC_WORD	2066610	wordpools/wasnorm_wordpool_576.txt	LTP250	ltpFR2	5	17	EGYPT	519	n/a	n/a	0	0	0
4134.166	n/a	REC_WORD	2067083	wordpools/wasnorm_wordpool_576.txt	LTP250	ltpFR2	5	17	PASSAGE	1019	n/a	n/a	0	0	0
4136.222	n/a	REC_WORD	2068111	wordpools/wasnorm_wordpool_576.txt	LTP250	ltpFR2	5	17	TART	1436	n/a	n/a	0	0	0
4137.02	n/a	REC_WORD	2068510	wordpools/wasnorm_wordpool_576.txt	LTP250	ltpFR2	5	17	RELISH	1183	n/a	n/a	0	0	0
4137.642	n/a	REC_WORD	2068821	wordpools/wasnorm_wordpool_576.txt	LTP250	ltpFR2	5	17	SHORTCAKE	1292	n/a	n/a	0	0	0
4147.698	n/a	REC_WORD	2073849	wordpools/wasnorm_wordpool_576.txt	LTP250	ltpFR2	5	17	MAILMAN	858	n/a	n/a	0	0	0
4154.354	n/a	REC_WORD	2077177	wordpools/wasnorm_wordpool_576.txt	LTP250	ltpFR2	5	17	MESSENGER	-1	n/a	n/a	0	0	0
4214.814	n/a	WORD	2107407	wordpools/wasnorm_wordpool_576.txt	LTP250	ltpFR2	5	18	SIDEWALK	1303	n/a	n/a	0	0	0
4217.434	n/a	WORD	2108717	wordpools/wasnorm_wordpool_576.txt	LTP250	ltpFR2	5	18	GIRL	637	n/a	n/a	0	0	0
4220.054	n/a	WORD	2110027	wordpools/wasnorm_wordpool_576.txt	LTP250	ltpFR2	5	18	BELLY	119	n/a	n/a	0	0	0
4222.572	n/a	WORD	2111286	wordpools/wasnorm_wordpool_576.txt	LTP250	ltpFR2	5	18	LAMP	798	n/a	n/a	0	0	0
4225.226	n/a	WORD	2112613	wordpools/wasnorm_wordpool_576.txt	LTP250	ltpFR2	5	18	QUEEN	1149	n/a	n/a	0	0	0
4227.86	n/a	WORD	2113930	wordpools/wasnorm_wordpool_576.txt	LTP250	ltpFR2	5	18	RABBIT	1152	n/a	n/a	0	0	0
4230.346	n/a	WORD	2115173	wordpools/wasnorm_wordpool_576.txt	LTP250	ltpFR2	5	18	SERVANT	1271	n/a	n/a	0	0	0
4232.898	n/a	WORD	2116449	wordpools/wasnorm_wordpool_576.txt	LTP250	ltpFR2	5	18	PALACE	1006	n/a	n/a	0	0	0
4235.716	n/a	WORD	2117858	wordpools/wasnorm_wordpool_576.txt	LTP250	ltpFR2	5	18	TROUT	1511	n/a	n/a	0	0	0
4238.302	n/a	WORD	2119151	wordpools/wasnorm_wordpool_576.txt	LTP250	ltpFR2	5	18	KEEPER	769	n/a	n/a	0	0	0
4240.988	n/a	WORD	2120494	wordpools/wasnorm_wordpool_576.txt	LTP250	ltpFR2	5	18	FIDDLE	561	n/a	n/a	0	0	0
4243.606	n/a	WORD	2121803	wordpools/wasnorm_wordpool_576.txt	LTP250	ltpFR2	5	18	BRAKE	166	n/a	n/a	0	0	0
4246.308	n/a	WORD	2123154	wordpools/wasnorm_wordpool_576.txt	LTP250	ltpFR2	5	18	BLOCKADE	137	n/a	n/a	0	0	0
4248.978	n/a	WORD	2124489	wordpools/wasnorm_wordpool_576.txt	LTP250	ltpFR2	5	18	EUROPE	541	n/a	n/a	0	0	0
4251.73	n/a	WORD	2125865	wordpools/wasnorm_wordpool_576.txt	LTP250	ltpFR2	5	18	PASTA	1021	n/a	n/a	0	0	0
4254.498	n/a	WORD	2127249	wordpools/wasnorm_wordpool_576.txt	LTP250	ltpFR2	5	18	POET	1095	n/a	n/a	0	0	0
4257.12	n/a	WORD	2128560	wordpools/wasnorm_wordpool_576.txt	LTP250	ltpFR2	5	18	TWEEZERS	1526	n/a	n/a	0	0	0
4259.854	n/a	WORD	2129927	wordpools/wasnorm_wordpool_576.txt	LTP250	ltpFR2	5	18	RAZOR	1171	n/a	n/a	0	0	0
4262.556	n/a	WORD	2131278	wordpools/wasnorm_wordpool_576.txt	LTP250	ltpFR2	5	18	FLASHLIGHT	575	n/a	n/a	0	0	0
4265.226	n/a	WORD	2132613	wordpools/wasnorm_wordpool_576.txt	LTP250	ltpFR2	5	18	BUREAU	199	n/a	n/a	0	0	0
4267.894	n/a	WORD	2133947	wordpools/wasnorm_wordpool_576.txt	LTP250	ltpFR2	5	18	WARDROBE	1587	n/a	n/a	0	0	0
4270.53	n/a	WORD	2135265	wordpools/wasnorm_wordpool_576.txt	LTP250	ltpFR2	5	18	ANKLE	24	n/a	n/a	0	0	0
4273.2	n/a	WORD	2136600	wordpools/wasnorm_wordpool_576.txt	LTP250	ltpFR2	5	18	FOREHEAD	592	n/a	n/a	0	0	0
4275.65	n/a	WORD	2137825	wordpools/wasnorm_wordpool_576.txt	LTP250	ltpFR2	5	18	COUNTRY	388	n/a	n/a	0	0	0
4277.268	n/a	START	2138634	n/a	LTP250	ltpFR2	5	n/a	n/a	n/a	27	n/a	n/a	n/a	n/a
4278.326	n/a	DISTRACTOR	2139163	n/a	LTP250	ltpFR2	5	18	n/a	n/a	n/a	n/a	0	0	0
4278.352	n/a	PROB	2139176	n/a	LTP250	ltpFR2	5	n/a	n/a	n/a	27	23	7	8	8
4281.472	n/a	PROB	2140736	n/a	LTP250	ltpFR2	5	n/a	n/a	n/a	27	20	8	6	6
4283.658	n/a	PROB	2141829	n/a	LTP250	ltpFR2	5	n/a	n/a	n/a	27	17	6	2	9
4287.744	n/a	PROB	2143872	n/a	LTP250	ltpFR2	5	n/a	n/a	n/a	27	15	6	4	5
4288.878	n/a	PROB	2144439	n/a	LTP250	ltpFR2	5	n/a	n/a	n/a	27	17	9	2	6
4291.764	n/a	PROB	2145882	n/a	LTP250	ltpFR2	5	n/a	n/a	n/a	27	20	9	6	5
4294.052	n/a	PROB	2147026	n/a	LTP250	ltpFR2	5	n/a	n/a	n/a	27	17	8	2	7
4296.268	n/a	PROB	2148134	n/a	LTP250	ltpFR2	5	n/a	n/a	n/a	27	8	1	3	4
4301.27	n/a	STOP	2150635	n/a	LTP250	ltpFR2	5	n/a	n/a	n/a	27	n/a	n/a	n/a	n/a
4303.142	n/a	REC_START	2151571	n/a	LTP250	ltpFR2	5	18	n/a	n/a	n/a	n/a	0	0	0
4303.84	n/a	REC_WORD	2151920	wordpools/wasnorm_wordpool_576.txt	LTP250	ltpFR2	5	18	SIDEWALK	1303	n/a	n/a	0	0	0
4304.682	n/a	REC_WORD	2152341	wordpools/wasnorm_wordpool_576.txt	LTP250	ltpFR2	5	18	GIRL	637	n/a	n/a	0	0	0
4305.174	n/a	REC_WORD	2152587	wordpools/wasnorm_wordpool_576.txt	LTP250	ltpFR2	5	18	BELLY	119	n/a	n/a	0	0	0
4305.694	n/a	REC_WORD	2152847	wordpools/wasnorm_wordpool_576.txt	LTP250	ltpFR2	5	18	LAMP	798	n/a	n/a	0	0	0
4307.94	n/a	REC_WORD	2153970	wordpools/wasnorm_wordpool_576.txt	LTP250	ltpFR2	5	18	TWEEZERS	1526	n/a	n/a	0	0	0
4308.642	n/a	REC_WORD	2154321	wordpools/wasnorm_wordpool_576.txt	LTP250	ltpFR2	5	18	RAZOR	1171	n/a	n/a	0	0	0
4393.602	n/a	DISTRACTOR	2196801	n/a	LTP250	ltpFR2	5	19	n/a	n/a	n/a	n/a	0	0	0
4393.602	n/a	START	2196801	n/a	LTP250	ltpFR2	5	n/a	n/a	n/a	28	n/a	n/a	n/a	n/a
4393.618	n/a	PROB	2196809	n/a	LTP250	ltpFR2	5	n/a	n/a	n/a	28	16	3	8	5
4396.372	n/a	PROB	2198186	n/a	LTP250	ltpFR2	5	n/a	n/a	n/a	28	9	4	1	4
4398.324	n/a	PROB	2199162	n/a	LTP250	ltpFR2	5	n/a	n/a	n/a	28	15	8	5	2
4401.16	n/a	PROB	2200580	n/a	LTP250	ltpFR2	5	n/a	n/a	n/a	28	20	8	3	9
4403.144	n/a	PROB	2201572	n/a	LTP250	ltpFR2	5	n/a	n/a	n/a	28	18	5	7	6
4405.278	n/a	PROB	2202639	n/a	LTP250	ltpFR2	5	n/a	n/a	n/a	28	10	1	8	1
4406.696	n/a	PROB	2203348	n/a	LTP250	ltpFR2	5	n/a	n/a	n/a	28	12	7	2	4
4410.6	n/a	PROB	2205300	n/a	LTP250	ltpFR2	5	n/a	n/a	n/a	28	22	8	8	6
4414.77	n/a	PROB	2207385	n/a	LTP250	ltpFR2	5	n/a	n/a	n/a	28	7	5	1	1
4416.134	n/a	STOP	2208067	n/a	LTP250	ltpFR2	5	n/a	n/a	n/a	28	n/a	n/a	n/a	n/a
4418.84	n/a	WORD	2209420	wordpools/wasnorm_wordpool_576.txt	LTP250	ltpFR2	5	19	NIGHTGOWN	953	n/a	n/a	0	0	0
4421.392	n/a	WORD	2210696	wordpools/wasnorm_wordpool_576.txt	LTP250	ltpFR2	5	19	TABLET	1427	n/a	n/a	0	0	0
4424.162	n/a	WORD	2212081	wordpools/wasnorm_wordpool_576.txt	LTP250	ltpFR2	5	19	PARROT	1015	n/a	n/a	0	0	0
4426.764	n/a	WORD	2213382	wordpools/wasnorm_wordpool_576.txt	LTP250	ltpFR2	5	19	BUBBLE	183	n/a	n/a	0	0	0
4429.532	n/a	WORD	2214766	wordpools/wasnorm_wordpool_576.txt	LTP250	ltpFR2	5	19	COMPASS	358	n/a	n/a	0	0	0
4432.186	n/a	WORD	2216093	wordpools/wasnorm_wordpool_576.txt	LTP250	ltpFR2	5	19	COURSE	390	n/a	n/a	0	0	0
4434.722	n/a	WORD	2217361	wordpools/wasnorm_wordpool_576.txt	LTP250	ltpFR2	5	19	BALLOON	75	n/a	n/a	0	0	0
4437.44	n/a	WORD	2218720	wordpools/wasnorm_wordpool_576.txt	LTP250	ltpFR2	5	19	JAPAN	749	n/a	n/a	0	0	0
4440.144	n/a	WORD	2220072	wordpools/wasnorm_wordpool_576.txt	LTP250	ltpFR2	5	19	CRITIC	410	n/a	n/a	0	0	0
4442.578	n/a	WORD	2221289	wordpools/wasnorm_wordpool_576.txt	LTP250	ltpFR2	5	19	FILM	565	n/a	n/a	0	0	0
4445.098	n/a	WORD	2222549	wordpools/wasnorm_wordpool_576.txt	LTP250	ltpFR2	5	19	FIREMAN	569	n/a	n/a	0	0	0
4447.666	n/a	WORD	2223833	wordpools/wasnorm_wordpool_576.txt	LTP250	ltpFR2	5	19	PERMIT	1051	n/a	n/a	0	0	0
4450.45	n/a	WORD	2225225	wordpools/wasnorm_wordpool_576.txt	LTP250	ltpFR2	5	19	PAIL	1002	n/a	n/a	0	0	0
4453.238	n/a	WORD	2226619	wordpools/wasnorm_wordpool_576.txt	LTP250	ltpFR2	5	19	PUDDING	1139	n/a	n/a	0	0	0
4455.938	n/a	WORD	2227969	wordpools/wasnorm_wordpool_576.txt	LTP250	ltpFR2	5	19	BUGGY	188	n/a	n/a	0	0	0
4458.708	n/a	WORD	2229354	wordpools/wasnorm_wordpool_576.txt	LTP250	ltpFR2	5	19	BREAST	171	n/a	n/a	0	0	0
4461.344	n/a	WORD	2230672	wordpools/wasnorm_wordpool_576.txt	LTP250	ltpFR2	5	19	SISTER	1312	n/a	n/a	0	0	0
4463.98	n/a	WORD	2231990	wordpools/wasnorm_wordpool_576.txt	LTP250	ltpFR2	5	19	GUITAR	670	n/a	n/a	0	0	0
4466.732	n/a	WORD	2233366	wordpools/wasnorm_wordpool_576.txt	LTP250	ltpFR2	5	19	PATIENT	1024	n/a	n/a	0	0	0
4469.35	n/a	WORD	2234675	wordpools/wasnorm_wordpool_576.txt	LTP250	ltpFR2	5	19	LODGE	839	n/a	n/a	0	0	0
4472.088	n/a	WORD	2236044	wordpools/wasnorm_wordpool_576.txt	LTP250	ltpFR2	5	19	DORM	488	n/a	n/a	0	0	0
4474.656	n/a	WORD	2237328	wordpools/wasnorm_wordpool_576.txt	LTP250	ltpFR2	5	19	GREASE	660	n/a	n/a	0	0	0
4477.258	n/a	WORD	2238629	wordpools/wasnorm_wordpool_576.txt	LTP250	ltpFR2	5	19	PIGEON	1065	n/a	n/a	0	0	0
4479.826	n/a	WORD	2239913	wordpools/wasnorm_wordpool_576.txt	LTP250	ltpFR2	5	19	NOMAD	955	n/a	n/a	0	0	0
4481.444	n/a	START	2240722	n/a	LTP250	ltpFR2	5	n/a	n/a	n/a	29	n/a	n/a	n/a	n/a
4482.622	n/a	DISTRACTOR	2241311	n/a	LTP250	ltpFR2	5	19	n/a	n/a	n/a	n/a	0	0	0
4482.646	n/a	PROB	2241323	n/a	LTP250	ltpFR2	5	n/a	n/a	n/a	29	22	7	7	8
4486.032	n/a	PROB	2243016	n/a	LTP250	ltpFR2	5	n/a	n/a	n/a	29	14	4	1	9
4487.7	n/a	PROB	2243850	n/a	LTP250	ltpFR2	5	n/a	n/a	n/a	29	9	1	2	6
4489.634	n/a	PROB	2244817	n/a	LTP250	ltpFR2	5	n/a	n/a	n/a	29	11	5	2	4
4493.404	n/a	PROB	2246702	n/a	LTP250	ltpFR2	5	n/a	n/a	n/a	29	14	5	3	6
4495.74	n/a	PROB	2247870	n/a	LTP250	ltpFR2	5	n/a	n/a	n/a	29	12	3	8	1
4497.226	n/a	PROB	2248613	n/a	LTP250	ltpFR2	5	n/a	n/a	n/a	29	12	5	4	3
4499.292	n/a	PROB	2249646	n/a	LTP250	ltpFR2	5	n/a	n/a	n/a	29	11	9	1	1
4501.046	n/a	PROB	2250523	n/a	LTP250	ltpFR2	5	n/a	n/a	n/a	29	15	4	3	8
4505.446	n/a	STOP	2252723	n/a	LTP250	ltpFR2	5	n/a	n/a	n/a	29	n/a	n/a	n/a	n/a
4507.4	n/a	REC_START	2253700	n/a	LTP250	ltpFR2	5	19	n/a	n/a	n/a	n/a	0	0	0
4508.61	n/a	REC_WORD	2254305	wordpools/wasnorm_wordpool_576.txt	LTP250	ltpFR2	5	19	PAIL	1002	n/a	n/a	0	0	0
4509.208	n/a	REC_WORD	2254604	wordpools/wasnorm_wordpool_576.txt	LTP250	ltpFR2	5	19	PUDDING	1139	n/a	n/a	0	0	0
4509.822	n/a	REC_WORD	2254911	wordpools/wasnorm_wordpool_576.txt	LTP250	ltpFR2	5	19	BUGGY	188	n/a	n/a	0	0	0
4510.484	n/a	REC_WORD	2255242	wordpools/wasnorm_wordpool_576.txt	LTP250	ltpFR2	5	19	BREAST	171	n/a	n/a	0	0	0
4513.118	n/a	REC_WORD	2256559	wordpools/wasnorm_wordpool_576.txt	LTP250	ltpFR2	5	19	SISTER	1312	n/a	n/a	0	0	0
4514.512	n/a	REC_WORD	2257256	wordpools/wasnorm_wordpool_576.txt	LTP250	ltpFR2	5	19	NIGHTGOWN	953	n/a	n/a	0	0	0
4597.944	n/a	DISTRACTOR	2298972	n/a	LTP250	ltpFR2	5	20	n/a	n/a	n/a	n/a	0	0	0
4597.946	n/a	START	2298973	n/a	LTP250	ltpFR2	5	n/a	n/a	n/a	30	n/a	n/a	n/a	n/a
4597.962	n/a	PROB	2298981	n/a	LTP250	ltpFR2	5	n/a	n/a	n/a	30	9	1	6	2
4599.88	n/a	PROB	2299940	n/a	LTP250	ltpFR2	5	n/a	n/a	n/a	30	8	4	3	1
4602.016	n/a	PROB	2301008	n/a	LTP250	ltpFR2	5	n/a	n/a	n/a	30	17	4	6	7
4604.052	n/a	PROB	2302026	n/a	LTP250	ltpFR2	5	n/a	n/a	n/a	30	21	7	8	9
4606.202	n/a	PROB	2303101	n/a	LTP250	ltpFR2	5	n/a	n/a	n/a	30	13	2	2	9
4610.722	n/a	PROB	2305361	n/a	LTP250	ltpFR2	5	n/a	n/a	n/a	30	26	9	9	8
4613.708	n/a	PROB	2306854	n/a	LTP250	ltpFR2	5	n/a	n/a	n/a	30	9	1	3	5
4616.678	n/a	PROB	2308339	n/a	LTP250	ltpFR2	5	n/a	n/a	n/a	30	9	5	3	1
4617.928	n/a	PROB	2308964	n/a	LTP250	ltpFR2	5	n/a	n/a	n/a	30	16	7	6	3
4621.946	n/a	STOP	2310973	n/a	LTP250	ltpFR2	5	n/a	n/a	n/a	30	n/a	n/a	n/a	n/a
4622.916	n/a	WORD	2311458	wordpools/wasnorm_wordpool_576.txt	LTP250	ltpFR2	5	20	NURSE	963	n/a	n/a	0	0	0
4625.502	n/a	WORD	2312751	wordpools/wasnorm_wordpool_576.txt	LTP250	ltpFR2	5	20	BLADE	134	n/a	n/a	0	0	0
4628.304	n/a	WORD	2314152	wordpools/wasnorm_wordpool_576.txt	LTP250	ltpFR2	5	20	STOVE	1388	n/a	n/a	0	0	0
4631.09	n/a	WORD	2315545	wordpools/wasnorm_wordpool_576.txt	LTP250	ltpFR2	5	20	HORSE	719	n/a	n/a	0	0	0
4633.642	n/a	WORD	2316821	wordpools/wasnorm_wordpool_576.txt	LTP250	ltpFR2	5	20	LUGGAGE	847	n/a	n/a	0	0	0
4636.394	n/a	WORD	2318197	wordpools/wasnorm_wordpool_576.txt	LTP250	ltpFR2	5	20	BRIEFCASE	175	n/a	n/a	0	0	0
4639.048	n/a	WORD	2319524	wordpools/wasnorm_wordpool_576.txt	LTP250	ltpFR2	5	20	TOASTER	1472	n/a	n/a	0	0	0
4641.7	n/a	WORD	2320850	wordpools/wasnorm_wordpool_576.txt	LTP250	ltpFR2	5	20	CRUTCH	417	n/a	n/a	0	0	0
4644.136	n/a	WORD	2322068	wordpools/wasnorm_wordpool_576.txt	LTP250	ltpFR2	5	20	NEUTRON	947	n/a	n/a	0	0	0
4646.954	n/a	WORD	2323477	wordpools/wasnorm_wordpool_576.txt	LTP250	ltpFR2	5	20	POISON	1096	n/a	n/a	0	0	0
4649.59	n/a	WORD	2324795	wordpools/wasnorm_wordpool_576.txt	LTP250	ltpFR2	5	20	PLAYGROUND	1087	n/a	n/a	0	0	0
4652.142	n/a	WORD	2326071	wordpools/wasnorm_wordpool_576.txt	LTP250	ltpFR2	5	20	BEAKER	104	n/a	n/a	0	0	0
4654.644	n/a	WORD	2327322	wordpools/wasnorm_wordpool_576.txt	LTP250	ltpFR2	5	20	WITNESS	1618	n/a	n/a	0	0	0
4657.262	n/a	WORD	2328631	wordpools/wasnorm_wordpool_576.txt	LTP250	ltpFR2	5	20	SPHINX	1349	n/a	n/a	0	0	0
4660.048	n/a	WORD	2330024	wordpools/wasnorm_wordpool_576.txt	LTP250	ltpFR2	5	20	TWISTER	1530	n/a	n/a	0	0	0
4662.766	n/a	WORD	2331383	wordpools/wasnorm_wordpool_576.txt	LTP250	ltpFR2	5	20	SHOULDER	1294	n/a	n/a	0	0	0
4665.386	n/a	WORD	2332693	wordpools/wasnorm_wordpool_576.txt	LTP250	ltpFR2	5	20	BIKE	125	n/a	n/a	0	0	0
4668.156	n/a	WORD	2334078	wordpools/wasnorm_wordpool_576.txt	LTP250	ltpFR2	5	20	VALVE	1546	n/a	n/a	0	0	0
4670.824	n/a	WORD	2335412	wordpools/wasnorm_wordpool_576.txt	LTP250	ltpFR2	5	20	GRAVE	658	n/a	n/a	0	0	0
4673.36	n/a	WORD	2336680	wordpools/wasnorm_wordpool_576.txt	LTP250	ltpFR2	5	20	SERVER	1272	n/a	n/a	0	0	0
4675.846	n/a	WORD	2337923	wordpools/wasnorm_wordpool_576.txt	LTP250	ltpFR2	5	20	WAITER	1580	n/a	n/a	0	0	0
4678.58	n/a	WORD	2339290	wordpools/wasnorm_wordpool_576.txt	LTP250	ltpFR2	5	20	PILOT	1070	n/a	n/a	0	0	0
4681.018	n/a	WORD	2340509	wordpools/wasnorm_wordpool_576.txt	LTP250	ltpFR2	5	20	FLESH	579	n/a	n/a	0	0	0
4683.852	n/a	WORD	2341926	wordpools/wasnorm_wordpool_576.txt	LTP250	ltpFR2	5	20	CAPTIVE	240	n/a	n/a	0	0	0
4685.47	n/a	START	2342735	n/a	LTP250	ltpFR2	5	n/a	n/a	n/a	31	n/a	n/a	n/a	n/a
4686.278	n/a	DISTRACTOR	2343139	n/a	LTP250	ltpFR2	5	20	n/a	n/a	n/a	n/a	0	0	0
4686.288	n/a	PROB	2343144	n/a	LTP250	ltpFR2	5	n/a	n/a	n/a	31	17	8	4	5
4688.59	n/a	PROB	2344295	n/a	LTP250	ltpFR2	5	n/a	n/a	n/a	31	21	6	8	7
4691.726	n/a	PROB	2345863	n/a	LTP250	ltpFR2	5	n/a	n/a	n/a	31	11	6	2	3
4694.31	n/a	PROB	2347155	n/a	LTP250	ltpFR2	5	n/a	n/a	n/a	31	20	9	6	5
4696.278	n/a	PROB	2348139	n/a	LTP250	ltpFR2	5	n/a	n/a	n/a	31	8	3	1	4
4697.664	n/a	PROB	2348832	n/a	LTP250	ltpFR2	5	n/a	n/a	n/a	31	9	5	1	3
4699.598	n/a	PROB	2349799	n/a	LTP250	ltpFR2	5	n/a	n/a	n/a	31	13	3	9	1
4701.084	n/a	PROB	2350542	n/a	LTP250	ltpFR2	5	n/a	n/a	n/a	31	21	5	9	7
4705.22	n/a	PROB	2352610	n/a	LTP250	ltpFR2	5	n/a	n/a	n/a	31	19	3	8	8
4709.472	n/a	STOP	2354736	n/a	LTP250	ltpFR2	5	n/a	n/a	n/a	31	n/a	n/a	n/a	n/a
4711.342	n/a	REC_START	2355671	n/a	LTP250	ltpFR2	5	20	n/a	n/a	n/a	n/a	0	0	0
4715.83	n/a	REC_WORD	2357915	wordpools/wasnorm_wordpool_576.txt	LTP250	ltpFR2	5	20	SPHINX	1349	n/a	n/a	0	0	0
4716.806	n/a	REC_WORD	2358403	wordpools/wasnorm_wordpool_576.txt	LTP250	ltpFR2	5	20	FLESH	579	n/a	n/a	0	0	0
4719.652	n/a	REC_WORD	2359826	wordpools/wasnorm_wordpool_576.txt	LTP250	ltpFR2	5	20	GRAVE	658	n/a	n/a	0	0	0
4802.02	n/a	WORD	2401010	wordpools/wasnorm_wordpool_576.txt	LTP250	ltpFR2	5	21	COSTUME	383	n/a	n/a	0	0	0
4804.506	n/a	WORD	2402253	wordpools/wasnorm_wordpool_576.txt	LTP250	ltpFR2	5	21	SHELF	1280	n/a	n/a	0	0	0
4807.158	n/a	WORD	2403579	wordpools/wasnorm_wordpool_576.txt	LTP250	ltpFR2	5	21	JOURNAL	760	n/a	n/a	0	0	0
4809.944	n/a	WORD	2404972	wordpools/wasnorm_wordpool_576.txt	LTP250	ltpFR2	5	21	FLIPPER	580	n/a	n/a	0	0	0
4812.562	n/a	WORD	2406281	wordpools/wasnorm_wordpool_576.txt	LTP250	ltpFR2	5	21	WHISKERS	1605	n/a	n/a	0	0	0
4815.382	n/a	WORD	2407691	wordpools/wasnorm_wordpool_576.txt	LTP250	ltpFR2	5	21	PEPPER	1047	n/a	n/a	0	0	0
4817.986	n/a	WORD	2408993	wordpools/wasnorm_wordpool_576.txt	LTP250	ltpFR2	5	21	MONSTER	912	n/a	n/a	0	0	0
4820.586	n/a	WORD	2410293	wordpools/wasnorm_wordpool_576.txt	LTP250	ltpFR2	5	21	SOFTBALL	1343	n/a	n/a	0	0	0
4823.372	n/a	WORD	2411686	wordpools/wasnorm_wordpool_576.txt	LTP250	ltpFR2	5	21	SADDLE	1221	n/a	n/a	0	0	0
4825.958	n/a	WORD	2412979	wordpools/wasnorm_wordpool_576.txt	LTP250	ltpFR2	5	21	PIMPLE	1071	n/a	n/a	0	0	0
4828.61	n/a	WORD	2414305	wordpools/wasnorm_wordpool_576.txt	LTP250	ltpFR2	5	21	MUSTARD	935	n/a	n/a	0	0	0
4831.23	n/a	WORD	2415615	wordpools/wasnorm_wordpool_576.txt	LTP250	ltpFR2	5	21	KETCHUP	771	n/a	n/a	0	0	0
4833.78	n/a	WORD	2416890	wordpools/wasnorm_wordpool_576.txt	LTP250	ltpFR2	5	21	JEANS	752	n/a	n/a	0	0	0
4836.5	n/a	WORD	2418250	wordpools/wasnorm_wordpool_576.txt	LTP250	ltpFR2	5	21	PLAID	1080	n/a	n/a	0	0	0
4839.12	n/a	WORD	2419560	wordpools/wasnorm_wordpool_576.txt	LTP250	ltpFR2	5	21	SUBWAY	1400	n/a	n/a	0	0	0
4841.704	n/a	WORD	2420852	wordpools/wasnorm_wordpool_576.txt	LTP250	ltpFR2	5	21	EMPIRE	530	n/a	n/a	0	0	0
4844.44	n/a	WORD	2422220	wordpools/wasnorm_wordpool_576.txt	LTP250	ltpFR2	5	21	TAXI	1438	n/a	n/a	0	0	0
4847.06	n/a	WORD	2423530	wordpools/wasnorm_wordpool_576.txt	LTP250	ltpFR2	5	21	HAND	683	n/a	n/a	0	0	0
4849.528	n/a	WORD	2424764	wordpools/wasnorm_wordpool_576.txt	LTP250	ltpFR2	5	21	BACON	67	n/a	n/a	0	0	0
4852.032	n/a	WORD	2426016	wordpools/wasnorm_wordpool_576.txt	LTP250	ltpFR2	5	21	CATCHER	258	n/a	n/a	0	0	0
4854.498	n/a	WORD	2427249	wordpools/wasnorm_wordpool_576.txt	LTP250	ltpFR2	5	21	SEAGULL	1261	n/a	n/a	0	0	0
4857.036	n/a	WORD	2428518	wordpools/wasnorm_wordpool_576.txt	LTP250	ltpFR2	5	21	LASER	801	n/a	n/a	0	0	0
4859.67	n/a	WORD	2429835	wordpools/wasnorm_wordpool_576.txt	LTP250	ltpFR2	5	21	SAUSAGE	1238	n/a	n/a	0	0	0
4862.272	n/a	WORD	2431136	wordpools/wasnorm_wordpool_576.txt	LTP250	ltpFR2	5	21	TWIG	1527	n/a	n/a	0	0	0
4863.89	n/a	START	2431945	n/a	LTP250	ltpFR2	5	n/a	n/a	n/a	32	n/a	n/a	n/a	n/a
4864.866	n/a	DISTRACTOR	2432433	n/a	LTP250	ltpFR2	5	21	n/a	n/a	n/a	n/a	0	0	0
4864.874	n/a	PROB	2432437	n/a	LTP250	ltpFR2	5	n/a	n/a	n/a	32	17	5	5	7
4866.592	n/a	PROB	2433296	n/a	LTP250	ltpFR2	5	n/a	n/a	n/a	32	17	5	4	8
4869.528	n/a	PROB	2434764	n/a	LTP250	ltpFR2	5	n/a	n/a	n/a	32	20	8	6	6
4871.764	n/a	PROB	2435882	n/a	LTP250	ltpFR2	5	n/a	n/a	n/a	32	23	8	7	9
4874.566	n/a	PROB	2437283	n/a	LTP250	ltpFR2	5	n/a	n/a	n/a	32	20	9	3	8
4877.152	n/a	PROB	2438576	n/a	LTP250	ltpFR2	5	n/a	n/a	n/a	32	17	8	2	7
4879.386	n/a	PROB	2439693	n/a	LTP250	ltpFR2	5	n/a	n/a	n/a	32	17	6	2	9
4883.758	n/a	PROB	2441879	n/a	LTP250	ltpFR2	5	n/a	n/a	n/a	32	6	1	4	1
4884.992	n/a	PROB	2442496	n/a	LTP250	ltpFR2	5	n/a	n/a	n/a	32	17	7	8	2
4887.06	n/a	STOP	2443530	n/a	LTP250	ltpFR2	5	n/a	n/a	n/a	32	n/a	n/a	n/a	n/a
4889.762	n/a	REC_START	2444881	n/a	LTP250	ltpFR2	5	21	n/a	n/a	n/a	n/a	0	0	0
4890.154	n/a	REC_WORD	2445077	wordpools/wasnorm_wordpool_576.txt	LTP250	ltpFR2	5	21	CATCHER	258	n/a	n/a	0	0	0
