onset	duration	trial_type	sample	stim_file	subject	experiment	session	trial	item_name	item_num	list	answer	test_x	test_y	test_z
241.046	n/a	SESS_START	120523	n/a	LTP278	ltpFR2	15	n/a	n/a	n/a	n/a	n/a	0	0	0
254.934	n/a	START	127467	n/a	LTP278	ltpFR2	15	n/a	n/a	n/a	-1	n/a	n/a	n/a	n/a
254.984	n/a	PROB	127492	n/a	LTP278	ltpFR2	15	n/a	n/a	n/a	-1	11	2	7	2
256.406	n/a	PROB	128203	n/a	LTP278	ltpFR2	15	n/a	n/a	n/a	-1	11	2	7	2
257.36	n/a	PROB	128680	n/a	LTP278	ltpFR2	15	n/a	n/a	n/a	-1	8	2	1	5
258.882	n/a	PROB	129441	n/a	LTP278	ltpFR2	15	n/a	n/a	n/a	-1	11	1	4	6
260.104	n/a	PROB	130052	n/a	LTP278	ltpFR2	15	n/a	n/a	n/a	-1	20	9	2	9
263.35	n/a	PROB	131675	n/a	LTP278	ltpFR2	15	n/a	n/a	n/a	-1	12	2	3	7
265.432	n/a	STOP	132716	n/a	LTP278	ltpFR2	15	n/a	n/a	n/a	-1	n/a	n/a	n/a	n/a
302.3	n/a	DISTRACTOR	151150	n/a	LTP278	ltpFR2	15	1	n/a	n/a	n/a	n/a	0	0	0
302.3	n/a	START	151150	n/a	LTP278	ltpFR2	15	n/a	n/a	n/a	1	n/a	n/a	n/a	n/a
302.35	n/a	PROB	151175	n/a	LTP278	ltpFR2	15	n/a	n/a	n/a	1	7	4	2	1
303.988	n/a	PROB	151994	n/a	LTP278	ltpFR2	15	n/a	n/a	n/a	1	15	6	7	2
306.264	n/a	PROB	153132	n/a	LTP278	ltpFR2	15	n/a	n/a	n/a	1	15	5	4	6
307.67	n/a	PROB	153835	n/a	LTP278	ltpFR2	15	n/a	n/a	n/a	1	13	5	3	5
309.024	n/a	PROB	154512	n/a	LTP278	ltpFR2	15	n/a	n/a	n/a	1	14	4	8	2
310.464	n/a	PROB	155232	n/a	LTP278	ltpFR2	15	n/a	n/a	n/a	1	18	9	3	6
312.572	n/a	PROB	156286	n/a	LTP278	ltpFR2	15	n/a	n/a	n/a	1	19	3	9	7
314.076	n/a	PROB	157038	n/a	LTP278	ltpFR2	15	n/a	n/a	n/a	1	14	1	8	5
315.516	n/a	PROB	157758	n/a	LTP278	ltpFR2	15	n/a	n/a	n/a	1	21	7	8	8
317.608	n/a	PROB	158804	n/a	LTP278	ltpFR2	15	n/a	n/a	n/a	1	16	7	6	3
319.264	n/a	PROB	159632	n/a	LTP278	ltpFR2	15	n/a	n/a	n/a	1	17	8	3	6
321.588	n/a	PROB	160794	n/a	LTP278	ltpFR2	15	n/a	n/a	n/a	1	13	3	9	1
325.082	n/a	STOP	162541	n/a	LTP278	ltpFR2	15	n/a	n/a	n/a	1	n/a	n/a	n/a	n/a
327.128	n/a	WORD	163564	wordpools/wasnorm_wordpool_576.txt	LTP278	ltpFR2	15	1	PORTRAIT	1111	n/a	n/a	0	0	0
329.77	n/a	WORD	164885	wordpools/wasnorm_wordpool_576.txt	LTP278	ltpFR2	15	1	GREASE	660	n/a	n/a	0	0	0
332.478	n/a	WORD	166239	wordpools/wasnorm_wordpool_576.txt	LTP278	ltpFR2	15	1	FOREHEAD	592	n/a	n/a	0	0	0
335.02	n/a	WORD	167510	wordpools/wasnorm_wordpool_576.txt	LTP278	ltpFR2	15	1	CHEST	295	n/a	n/a	0	0	0
337.514	n/a	WORD	168757	wordpools/wasnorm_wordpool_576.txt	LTP278	ltpFR2	15	1	DRESSER	496	n/a	n/a	0	0	0
340.244	n/a	WORD	170122	wordpools/wasnorm_wordpool_576.txt	LTP278	ltpFR2	15	1	PARROT	1015	n/a	n/a	0	0	0
342.704	n/a	WORD	171352	wordpools/wasnorm_wordpool_576.txt	LTP278	ltpFR2	15	1	BREAST	171	n/a	n/a	0	0	0
345.432	n/a	WORD	172716	wordpools/wasnorm_wordpool_576.txt	LTP278	ltpFR2	15	1	ROOSTER	1209	n/a	n/a	0	0	0
348.19	n/a	WORD	174095	wordpools/wasnorm_wordpool_576.txt	LTP278	ltpFR2	15	1	BULLET	194	n/a	n/a	0	0	0
350.9	n/a	WORD	175450	wordpools/wasnorm_wordpool_576.txt	LTP278	ltpFR2	15	1	BANK	83	n/a	n/a	0	0	0
353.36	n/a	WORD	176680	wordpools/wasnorm_wordpool_576.txt	LTP278	ltpFR2	15	1	SISTER	1312	n/a	n/a	0	0	0
356.138	n/a	WORD	178069	wordpools/wasnorm_wordpool_576.txt	LTP278	ltpFR2	15	1	MATTRESS	879	n/a	n/a	0	0	0
358.798	n/a	WORD	179399	wordpools/wasnorm_wordpool_576.txt	LTP278	ltpFR2	15	1	TWISTER	1530	n/a	n/a	0	0	0
361.274	n/a	WORD	180637	wordpools/wasnorm_wordpool_576.txt	LTP278	ltpFR2	15	1	TABLE	1426	n/a	n/a	0	0	0
363.7	n/a	WORD	181850	wordpools/wasnorm_wordpool_576.txt	LTP278	ltpFR2	15	1	PEACH	1031	n/a	n/a	0	0	0
366.31	n/a	WORD	183155	wordpools/wasnorm_wordpool_576.txt	LTP278	ltpFR2	15	1	HARP	689	n/a	n/a	0	0	0
368.886	n/a	WORD	184443	wordpools/wasnorm_wordpool_576.txt	LTP278	ltpFR2	15	1	CHILD	299	n/a	n/a	0	0	0
371.464	n/a	WORD	185732	wordpools/wasnorm_wordpool_576.txt	LTP278	ltpFR2	15	1	PICTURE	1061	n/a	n/a	0	0	0
374.022	n/a	WORD	187011	wordpools/wasnorm_wordpool_576.txt	LTP278	ltpFR2	15	1	LADDER	793	n/a	n/a	0	0	0
376.532	n/a	WORD	188266	wordpools/wasnorm_wordpool_576.txt	LTP278	ltpFR2	15	1	CANYON	235	n/a	n/a	0	0	0
379.092	n/a	WORD	189546	wordpools/wasnorm_wordpool_576.txt	LTP278	ltpFR2	15	1	TAXI	1438	n/a	n/a	0	0	0
381.686	n/a	WORD	190843	wordpools/wasnorm_wordpool_576.txt	LTP278	ltpFR2	15	1	PLAYGROUND	1087	n/a	n/a	0	0	0
384.38	n/a	WORD	192190	wordpools/wasnorm_wordpool_576.txt	LTP278	ltpFR2	15	1	STAR	1373	n/a	n/a	0	0	0
387.022	n/a	WORD	193511	wordpools/wasnorm_wordpool_576.txt	LTP278	ltpFR2	15	1	MILDEW	893	n/a	n/a	0	0	0
388.63	n/a	START	194315	n/a	LTP278	ltpFR2	15	n/a	n/a	n/a	2	n/a	n/a	n/a	n/a
389.76	n/a	DISTRACTOR	194880	n/a	LTP278	ltpFR2	15	1	n/a	n/a	n/a	n/a	0	0	0
389.766	n/a	PROB	194883	n/a	LTP278	ltpFR2	15	n/a	n/a	n/a	2	7	1	1	5
398.314	n/a	PROB	199157	n/a	LTP278	ltpFR2	15	n/a	n/a	n/a	2	12	6	5	1
400.906	n/a	PROB	200453	n/a	LTP278	ltpFR2	15	n/a	n/a	n/a	2	18	1	8	9
402.194	n/a	PROB	201097	n/a	LTP278	ltpFR2	15	n/a	n/a	n/a	2	16	5	7	4
404.32	n/a	PROB	202160	n/a	LTP278	ltpFR2	15	n/a	n/a	n/a	2	7	1	1	5
405.376	n/a	PROB	202688	n/a	LTP278	ltpFR2	15	n/a	n/a	n/a	2	11	3	6	2
407.4	n/a	PROB	203700	n/a	LTP278	ltpFR2	15	n/a	n/a	n/a	2	14	7	5	2
409.14	n/a	PROB	204570	n/a	LTP278	ltpFR2	15	n/a	n/a	n/a	2	18	6	3	9
410.46	n/a	PROB	205230	n/a	LTP278	ltpFR2	15	n/a	n/a	n/a	2	13	9	3	1
411.576	n/a	STOP	205788	n/a	LTP278	ltpFR2	15	n/a	n/a	n/a	2	n/a	n/a	n/a	n/a
414.514	n/a	REC_START	207257	n/a	LTP278	ltpFR2	15	1	n/a	n/a	n/a	n/a	0	0	0
415.296	n/a	REC_WORD	207648	wordpools/wasnorm_wordpool_576.txt	LTP278	ltpFR2	15	1	TABLE	1426	n/a	n/a	0	0	0
416.086	n/a	REC_WORD	208043	wordpools/wasnorm_wordpool_576.txt	LTP278	ltpFR2	15	1	PEACH	1031	n/a	n/a	0	0	0
416.856	n/a	REC_WORD	208428	wordpools/wasnorm_wordpool_576.txt	LTP278	ltpFR2	15	1	TWISTER	1530	n/a	n/a	0	0	0
420.928	n/a	REC_WORD	210464	wordpools/wasnorm_wordpool_576.txt	LTP278	ltpFR2	15	1	GREASE	660	n/a	n/a	0	0	0
421.586	n/a	REC_WORD	210793	wordpools/wasnorm_wordpool_576.txt	LTP278	ltpFR2	15	1	PORTRAIT	1111	n/a	n/a	0	0	0
422.23	n/a	REC_WORD	211115	wordpools/wasnorm_wordpool_576.txt	LTP278	ltpFR2	15	1	FOREHEAD	592	n/a	n/a	0	0	0
423.582	n/a	REC_WORD	211791	wordpools/wasnorm_wordpool_576.txt	LTP278	ltpFR2	15	1	CHEST	295	n/a	n/a	0	0	0
505.592	n/a	WORD	252796	wordpools/wasnorm_wordpool_576.txt	LTP278	ltpFR2	15	2	LAGOON	795	n/a	n/a	0	0	0
508.37	n/a	WORD	254185	wordpools/wasnorm_wordpool_576.txt	LTP278	ltpFR2	15	2	SUNSET	1408	n/a	n/a	0	0	0
511.18	n/a	WORD	255590	wordpools/wasnorm_wordpool_576.txt	LTP278	ltpFR2	15	2	RIFLE	1192	n/a	n/a	0	0	0
513.874	n/a	WORD	256937	wordpools/wasnorm_wordpool_576.txt	LTP278	ltpFR2	15	2	POISON	1096	n/a	n/a	0	0	0
516.416	n/a	WORD	258208	wordpools/wasnorm_wordpool_576.txt	LTP278	ltpFR2	15	2	REPORT	1184	n/a	n/a	0	0	0
519.078	n/a	WORD	259539	wordpools/wasnorm_wordpool_576.txt	LTP278	ltpFR2	15	2	FIREMAN	569	n/a	n/a	0	0	0
521.718	n/a	WORD	260859	wordpools/wasnorm_wordpool_576.txt	LTP278	ltpFR2	15	2	DRILL	497	n/a	n/a	0	0	0
524.446	n/a	WORD	262223	wordpools/wasnorm_wordpool_576.txt	LTP278	ltpFR2	15	2	WASP	1593	n/a	n/a	0	0	0
527.008	n/a	WORD	263504	wordpools/wasnorm_wordpool_576.txt	LTP278	ltpFR2	15	2	EXPERT	543	n/a	n/a	0	0	0
529.484	n/a	WORD	264742	wordpools/wasnorm_wordpool_576.txt	LTP278	ltpFR2	15	2	BUNNY	198	n/a	n/a	0	0	0
532.312	n/a	WORD	266156	wordpools/wasnorm_wordpool_576.txt	LTP278	ltpFR2	15	2	DANCER	437	n/a	n/a	0	0	0
534.788	n/a	WORD	267394	wordpools/wasnorm_wordpool_576.txt	LTP278	ltpFR2	15	2	RECORD	1176	n/a	n/a	0	0	0
537.532	n/a	WORD	268766	wordpools/wasnorm_wordpool_576.txt	LTP278	ltpFR2	15	2	TORTOISE	1486	n/a	n/a	0	0	0
539.99	n/a	WORD	269995	wordpools/wasnorm_wordpool_576.txt	LTP278	ltpFR2	15	2	PEPPER	1047	n/a	n/a	0	0	0
542.65	n/a	WORD	271325	wordpools/wasnorm_wordpool_576.txt	LTP278	ltpFR2	15	2	SCRIBBLE	1256	n/a	n/a	0	0	0
545.294	n/a	WORD	272647	wordpools/wasnorm_wordpool_576.txt	LTP278	ltpFR2	15	2	NOTEBOOK	959	n/a	n/a	0	0	0
547.87	n/a	WORD	273935	wordpools/wasnorm_wordpool_576.txt	LTP278	ltpFR2	15	2	TILE	1468	n/a	n/a	0	0	0
550.43	n/a	WORD	275215	wordpools/wasnorm_wordpool_576.txt	LTP278	ltpFR2	15	2	RUG	1215	n/a	n/a	0	0	0
553.188	n/a	WORD	276594	wordpools/wasnorm_wordpool_576.txt	LTP278	ltpFR2	15	2	FRAME	600	n/a	n/a	0	0	0
555.868	n/a	WORD	277934	wordpools/wasnorm_wordpool_576.txt	LTP278	ltpFR2	15	2	PIMPLE	1071	n/a	n/a	0	0	0
558.612	n/a	WORD	279306	wordpools/wasnorm_wordpool_576.txt	LTP278	ltpFR2	15	2	GLOBE	641	n/a	n/a	0	0	0
561.152	n/a	WORD	280576	wordpools/wasnorm_wordpool_576.txt	LTP278	ltpFR2	15	2	BROTHER	179	n/a	n/a	0	0	0
563.766	n/a	WORD	281883	wordpools/wasnorm_wordpool_576.txt	LTP278	ltpFR2	15	2	CRIB	407	n/a	n/a	0	0	0
566.308	n/a	WORD	283154	wordpools/wasnorm_wordpool_576.txt	LTP278	ltpFR2	15	2	STREAM	1392	n/a	n/a	0	0	0
567.914	n/a	START	283957	n/a	LTP278	ltpFR2	15	n/a	n/a	n/a	3	n/a	n/a	n/a	n/a
568.738	n/a	DISTRACTOR	284369	n/a	LTP278	ltpFR2	15	2	n/a	n/a	n/a	n/a	0	0	0
568.75	n/a	PROB	284375	n/a	LTP278	ltpFR2	15	n/a	n/a	n/a	3	11	1	9	1
573.016	n/a	PROB	286508	n/a	LTP278	ltpFR2	15	n/a	n/a	n/a	3	11	1	2	8
574.388	n/a	PROB	287194	n/a	LTP278	ltpFR2	15	n/a	n/a	n/a	3	18	9	4	5
575.774	n/a	PROB	287887	n/a	LTP278	ltpFR2	15	n/a	n/a	n/a	3	25	8	8	7
577.282	n/a	PROB	288641	n/a	LTP278	ltpFR2	15	n/a	n/a	n/a	3	23	6	8	9
579.12	n/a	PROB	289560	n/a	LTP278	ltpFR2	15	n/a	n/a	n/a	3	17	6	5	6
581.164	n/a	PROB	290582	n/a	LTP278	ltpFR2	15	n/a	n/a	n/a	3	11	2	1	8
582.652	n/a	PROB	291326	n/a	LTP278	ltpFR2	15	n/a	n/a	n/a	3	15	5	3	7
584.562	n/a	PROB	292281	n/a	LTP278	ltpFR2	15	n/a	n/a	n/a	3	18	9	2	7
586.52	n/a	PROB	293260	n/a	LTP278	ltpFR2	15	n/a	n/a	n/a	3	7	2	2	3
588.292	n/a	PROB	294146	n/a	LTP278	ltpFR2	15	n/a	n/a	n/a	3	17	8	2	7
589.844	n/a	PROB	294922	n/a	LTP278	ltpFR2	15	n/a	n/a	n/a	3	18	6	5	7
591.864	n/a	STOP	295932	n/a	LTP278	ltpFR2	15	n/a	n/a	n/a	3	n/a	n/a	n/a	n/a
593.83	n/a	REC_START	296915	n/a	LTP278	ltpFR2	15	2	n/a	n/a	n/a	n/a	0	0	0
594.976	n/a	REC_WORD	297488	wordpools/wasnorm_wordpool_576.txt	LTP278	ltpFR2	15	2	LAGOON	795	n/a	n/a	0	0	0
596.334	n/a	REC_WORD	298167	wordpools/wasnorm_wordpool_576.txt	LTP278	ltpFR2	15	2	SUNSET	1408	n/a	n/a	0	0	0
684.928	n/a	DISTRACTOR	342464	n/a	LTP278	ltpFR2	15	3	n/a	n/a	n/a	n/a	0	0	0
684.928	n/a	START	342464	n/a	LTP278	ltpFR2	15	n/a	n/a	n/a	4	n/a	n/a	n/a	n/a
684.978	n/a	PROB	342489	n/a	LTP278	ltpFR2	15	n/a	n/a	n/a	4	18	4	5	9
686.502	n/a	PROB	343251	n/a	LTP278	ltpFR2	15	n/a	n/a	n/a	4	25	9	7	9
688.308	n/a	PROB	344154	n/a	LTP278	ltpFR2	15	n/a	n/a	n/a	4	12	2	7	3
690.382	n/a	PROB	345191	n/a	LTP278	ltpFR2	15	n/a	n/a	n/a	4	11	7	4	1
691.686	n/a	PROB	345843	n/a	LTP278	ltpFR2	15	n/a	n/a	n/a	4	21	9	7	5
694.414	n/a	PROB	347207	n/a	LTP278	ltpFR2	15	n/a	n/a	n/a	4	6	3	2	1
695.67	n/a	PROB	347835	n/a	LTP278	ltpFR2	15	n/a	n/a	n/a	4	6	2	1	3
697.138	n/a	PROB	348569	n/a	LTP278	ltpFR2	15	n/a	n/a	n/a	4	16	7	8	1
698.632	n/a	PROB	349316	n/a	LTP278	ltpFR2	15	n/a	n/a	n/a	4	24	8	7	9
703.382	n/a	PROB	351691	n/a	LTP278	ltpFR2	15	n/a	n/a	n/a	4	11	7	3	1
704.638	n/a	PROB	352319	n/a	LTP278	ltpFR2	15	n/a	n/a	n/a	4	20	7	4	9
706.444	n/a	PROB	353222	n/a	LTP278	ltpFR2	15	n/a	n/a	n/a	4	10	3	3	4
708.262	n/a	STOP	354131	n/a	LTP278	ltpFR2	15	n/a	n/a	n/a	4	n/a	n/a	n/a	n/a
709.974	n/a	WORD	354987	wordpools/wasnorm_wordpool_576.txt	LTP278	ltpFR2	15	3	ROCKET	1202	n/a	n/a	0	0	0
712.484	n/a	WORD	356242	wordpools/wasnorm_wordpool_576.txt	LTP278	ltpFR2	15	3	PERFUME	1049	n/a	n/a	0	0	0
715.01	n/a	WORD	357505	wordpools/wasnorm_wordpool_576.txt	LTP278	ltpFR2	15	3	GUARD	667	n/a	n/a	0	0	0
717.57	n/a	WORD	358785	wordpools/wasnorm_wordpool_576.txt	LTP278	ltpFR2	15	3	PATROL	1027	n/a	n/a	0	0	0
720.262	n/a	WORD	360131	wordpools/wasnorm_wordpool_576.txt	LTP278	ltpFR2	15	3	BEAKER	104	n/a	n/a	0	0	0
722.688	n/a	WORD	361344	wordpools/wasnorm_wordpool_576.txt	LTP278	ltpFR2	15	3	CHEMIST	292	n/a	n/a	0	0	0
725.332	n/a	WORD	362666	wordpools/wasnorm_wordpool_576.txt	LTP278	ltpFR2	15	3	RECEIPT	1173	n/a	n/a	0	0	0
727.858	n/a	WORD	363929	wordpools/wasnorm_wordpool_576.txt	LTP278	ltpFR2	15	3	EMPIRE	530	n/a	n/a	0	0	0
730.502	n/a	WORD	365251	wordpools/wasnorm_wordpool_576.txt	LTP278	ltpFR2	15	3	SIBLING	1301	n/a	n/a	0	0	0
733.294	n/a	WORD	366647	wordpools/wasnorm_wordpool_576.txt	LTP278	ltpFR2	15	3	KETCHUP	771	n/a	n/a	0	0	0
736.038	n/a	WORD	368019	wordpools/wasnorm_wordpool_576.txt	LTP278	ltpFR2	15	3	LAMP	798	n/a	n/a	0	0	0
738.768	n/a	WORD	369384	wordpools/wasnorm_wordpool_576.txt	LTP278	ltpFR2	15	3	COURSE	390	n/a	n/a	0	0	0
741.226	n/a	WORD	370613	wordpools/wasnorm_wordpool_576.txt	LTP278	ltpFR2	15	3	SKETCH	1315	n/a	n/a	0	0	0
743.802	n/a	WORD	371901	wordpools/wasnorm_wordpool_576.txt	LTP278	ltpFR2	15	3	PIANO	1057	n/a	n/a	0	0	0
746.544	n/a	WORD	373272	wordpools/wasnorm_wordpool_576.txt	LTP278	ltpFR2	15	3	GARLIC	624	n/a	n/a	0	0	0
748.972	n/a	WORD	374486	wordpools/wasnorm_wordpool_576.txt	LTP278	ltpFR2	15	3	SCULPTURE	1258	n/a	n/a	0	0	0
751.466	n/a	WORD	375733	wordpools/wasnorm_wordpool_576.txt	LTP278	ltpFR2	15	3	PISTOL	1075	n/a	n/a	0	0	0
754.092	n/a	WORD	377046	wordpools/wasnorm_wordpool_576.txt	LTP278	ltpFR2	15	3	VELVET	1555	n/a	n/a	0	0	0
756.852	n/a	WORD	378426	wordpools/wasnorm_wordpool_576.txt	LTP278	ltpFR2	15	3	PLAID	1080	n/a	n/a	0	0	0
759.53	n/a	WORD	379765	wordpools/wasnorm_wordpool_576.txt	LTP278	ltpFR2	15	3	WAGON	1578	n/a	n/a	0	0	0
762.256	n/a	WORD	381128	wordpools/wasnorm_wordpool_576.txt	LTP278	ltpFR2	15	3	DRAWING	494	n/a	n/a	0	0	0
764.78	n/a	WORD	382390	wordpools/wasnorm_wordpool_576.txt	LTP278	ltpFR2	15	3	PASSAGE	1019	n/a	n/a	0	0	0
767.326	n/a	WORD	383663	wordpools/wasnorm_wordpool_576.txt	LTP278	ltpFR2	15	3	EGYPT	519	n/a	n/a	0	0	0
770.088	n/a	WORD	385044	wordpools/wasnorm_wordpool_576.txt	LTP278	ltpFR2	15	3	LUMBER	848	n/a	n/a	0	0	0
771.694	n/a	START	385847	n/a	LTP278	ltpFR2	15	n/a	n/a	n/a	5	n/a	n/a	n/a	n/a
772.63	n/a	DISTRACTOR	386315	n/a	LTP278	ltpFR2	15	3	n/a	n/a	n/a	n/a	0	0	0
772.648	n/a	PROB	386324	n/a	LTP278	ltpFR2	15	n/a	n/a	n/a	5	12	6	4	2
774.738	n/a	PROB	387369	n/a	LTP278	ltpFR2	15	n/a	n/a	n/a	5	16	1	8	7
776.328	n/a	PROB	388164	n/a	LTP278	ltpFR2	15	n/a	n/a	n/a	5	15	3	5	7
777.766	n/a	PROB	388883	n/a	LTP278	ltpFR2	15	n/a	n/a	n/a	5	15	8	2	5
779.972	n/a	PROB	389986	n/a	LTP278	ltpFR2	15	n/a	n/a	n/a	5	10	2	4	4
782.3	n/a	PROB	391150	n/a	LTP278	ltpFR2	15	n/a	n/a	n/a	5	21	8	7	6
784.206	n/a	PROB	392103	n/a	LTP278	ltpFR2	15	n/a	n/a	n/a	5	17	8	5	4
785.944	n/a	PROB	392972	n/a	LTP278	ltpFR2	15	n/a	n/a	n/a	5	12	3	8	1
787.402	n/a	PROB	393701	n/a	LTP278	ltpFR2	15	n/a	n/a	n/a	5	13	4	1	8
790.18	n/a	PROB	395090	n/a	LTP278	ltpFR2	15	n/a	n/a	n/a	5	8	1	3	4
792.102	n/a	PROB	396051	n/a	LTP278	ltpFR2	15	n/a	n/a	n/a	5	15	5	4	6
794.148	n/a	STOP	397074	n/a	LTP278	ltpFR2	15	n/a	n/a	n/a	5	n/a	n/a	n/a	n/a
797.576	n/a	REC_START	398788	n/a	LTP278	ltpFR2	15	3	n/a	n/a	n/a	n/a	0	0	0
798.068	n/a	REC_WORD	399034	wordpools/wasnorm_wordpool_576.txt	LTP278	ltpFR2	15	3	PLAID	1080	n/a	n/a	0	0	0
799.216	n/a	REC_WORD	399608	wordpools/wasnorm_wordpool_576.txt	LTP278	ltpFR2	15	3	LUMBER	848	n/a	n/a	0	0	0
803.236	n/a	REC_WORD	401618	wordpools/wasnorm_wordpool_576.txt	LTP278	ltpFR2	15	3	ROCKET	1202	n/a	n/a	0	0	0
804.198	n/a	REC_WORD	402099	wordpools/wasnorm_wordpool_576.txt	LTP278	ltpFR2	15	3	PERFUME	1049	n/a	n/a	0	0	0
805.502	n/a	REC_WORD	402751	wordpools/wasnorm_wordpool_576.txt	LTP278	ltpFR2	15	3	GUARD	667	n/a	n/a	0	0	0
808.942	n/a	REC_WORD	404471	wordpools/wasnorm_wordpool_576.txt	LTP278	ltpFR2	15	3	CHEMIST	292	n/a	n/a	0	0	0
810.1	n/a	REC_WORD	405050	wordpools/wasnorm_wordpool_576.txt	LTP278	ltpFR2	15	3	BEAKER	104	n/a	n/a	0	0	0
888.608	n/a	DISTRACTOR	444304	n/a	LTP278	ltpFR2	15	4	n/a	n/a	n/a	n/a	0	0	0
888.608	n/a	START	444304	n/a	LTP278	ltpFR2	15	n/a	n/a	n/a	6	n/a	n/a	n/a	n/a
888.658	n/a	PROB	444329	n/a	LTP278	ltpFR2	15	n/a	n/a	n/a	6	13	8	1	4
890.666	n/a	PROB	445333	n/a	LTP278	ltpFR2	15	n/a	n/a	n/a	6	8	2	3	3
892.656	n/a	PROB	446328	n/a	LTP278	ltpFR2	15	n/a	n/a	n/a	6	15	1	8	6
894.194	n/a	PROB	447097	n/a	LTP278	ltpFR2	15	n/a	n/a	n/a	6	8	1	2	5
895.466	n/a	PROB	447733	n/a	LTP278	ltpFR2	15	n/a	n/a	n/a	6	13	5	3	5
896.7	n/a	PROB	448350	n/a	LTP278	ltpFR2	15	n/a	n/a	n/a	6	21	8	9	4
898.376	n/a	PROB	449188	n/a	LTP278	ltpFR2	15	n/a	n/a	n/a	6	15	8	7	2
900.954	n/a	PROB	450477	n/a	LTP278	ltpFR2	15	n/a	n/a	n/a	6	9	3	5	1
904.768	n/a	PROB	452384	n/a	LTP278	ltpFR2	15	n/a	n/a	n/a	6	25	8	8	7
906.76	n/a	PROB	453380	n/a	LTP278	ltpFR2	15	n/a	n/a	n/a	6	16	6	8	2
912.608	n/a	STOP	456304	n/a	LTP278	ltpFR2	15	n/a	n/a	n/a	6	n/a	n/a	n/a	n/a
913.652	n/a	WORD	456826	wordpools/wasnorm_wordpool_576.txt	LTP278	ltpFR2	15	4	CREATURE	403	n/a	n/a	0	0	0
916.292	n/a	WORD	458146	wordpools/wasnorm_wordpool_576.txt	LTP278	ltpFR2	15	4	ORANGE	980	n/a	n/a	0	0	0
918.822	n/a	WORD	459411	wordpools/wasnorm_wordpool_576.txt	LTP278	ltpFR2	15	4	FRUIT	610	n/a	n/a	0	0	0
921.398	n/a	WORD	460699	wordpools/wasnorm_wordpool_576.txt	LTP278	ltpFR2	15	4	PECAN	1036	n/a	n/a	0	0	0
924.108	n/a	WORD	462054	wordpools/wasnorm_wordpool_576.txt	LTP278	ltpFR2	15	4	COCKTAIL	338	n/a	n/a	0	0	0
926.736	n/a	WORD	463368	wordpools/wasnorm_wordpool_576.txt	LTP278	ltpFR2	15	4	CLAM	315	n/a	n/a	0	0	0
929.244	n/a	WORD	464622	wordpools/wasnorm_wordpool_576.txt	LTP278	ltpFR2	15	4	TURTLE	1522	n/a	n/a	0	0	0
932.022	n/a	WORD	466011	wordpools/wasnorm_wordpool_576.txt	LTP278	ltpFR2	15	4	STICKER	1382	n/a	n/a	0	0	0
934.78	n/a	WORD	467390	wordpools/wasnorm_wordpool_576.txt	LTP278	ltpFR2	15	4	BURGLAR	200	n/a	n/a	0	0	0
937.46	n/a	WORD	468730	wordpools/wasnorm_wordpool_576.txt	LTP278	ltpFR2	15	4	FINGER	567	n/a	n/a	0	0	0
939.886	n/a	WORD	469943	wordpools/wasnorm_wordpool_576.txt	LTP278	ltpFR2	15	4	NAPKIN	937	n/a	n/a	0	0	0
942.464	n/a	WORD	471232	wordpools/wasnorm_wordpool_576.txt	LTP278	ltpFR2	15	4	SLOPE	1328	n/a	n/a	0	0	0
944.988	n/a	WORD	472494	wordpools/wasnorm_wordpool_576.txt	LTP278	ltpFR2	15	4	PASTA	1021	n/a	n/a	0	0	0
947.48	n/a	WORD	473740	wordpools/wasnorm_wordpool_576.txt	LTP278	ltpFR2	15	4	PRINCE	1124	n/a	n/a	0	0	0
950.108	n/a	WORD	475054	wordpools/wasnorm_wordpool_576.txt	LTP278	ltpFR2	15	4	FILM	565	n/a	n/a	0	0	0
952.552	n/a	WORD	476276	wordpools/wasnorm_wordpool_576.txt	LTP278	ltpFR2	15	4	OUTLAW	989	n/a	n/a	0	0	0
955.292	n/a	WORD	477646	wordpools/wasnorm_wordpool_576.txt	LTP278	ltpFR2	15	4	GHETTO	633	n/a	n/a	0	0	0
958.038	n/a	WORD	479019	wordpools/wasnorm_wordpool_576.txt	LTP278	ltpFR2	15	4	CUSTARD	429	n/a	n/a	0	0	0
960.746	n/a	WORD	480373	wordpools/wasnorm_wordpool_576.txt	LTP278	ltpFR2	15	4	POET	1095	n/a	n/a	0	0	0
963.426	n/a	WORD	481713	wordpools/wasnorm_wordpool_576.txt	LTP278	ltpFR2	15	4	GLASS	639	n/a	n/a	0	0	0
966.032	n/a	WORD	483016	wordpools/wasnorm_wordpool_576.txt	LTP278	ltpFR2	15	4	CRICKET	408	n/a	n/a	0	0	0
968.742	n/a	WORD	484371	wordpools/wasnorm_wordpool_576.txt	LTP278	ltpFR2	15	4	HEADBAND	696	n/a	n/a	0	0	0
971.172	n/a	WORD	485586	wordpools/wasnorm_wordpool_576.txt	LTP278	ltpFR2	15	4	TRANSPLANT	1496	n/a	n/a	0	0	0
973.764	n/a	WORD	486882	wordpools/wasnorm_wordpool_576.txt	LTP278	ltpFR2	15	4	AUTHOR	61	n/a	n/a	0	0	0
975.372	n/a	START	487686	n/a	LTP278	ltpFR2	15	n/a	n/a	n/a	7	n/a	n/a	n/a	n/a
976.276	n/a	DISTRACTOR	488138	n/a	LTP278	ltpFR2	15	4	n/a	n/a	n/a	n/a	0	0	0
976.292	n/a	PROB	488146	n/a	LTP278	ltpFR2	15	n/a	n/a	n/a	7	8	4	1	3
978.098	n/a	PROB	489049	n/a	LTP278	ltpFR2	15	n/a	n/a	n/a	7	13	3	9	1
979.772	n/a	PROB	489886	n/a	LTP278	ltpFR2	15	n/a	n/a	n/a	7	15	9	4	2
982.998	n/a	PROB	491499	n/a	LTP278	ltpFR2	15	n/a	n/a	n/a	7	14	5	1	8
984.754	n/a	PROB	492377	n/a	LTP278	ltpFR2	15	n/a	n/a	n/a	7	16	1	8	7
986.262	n/a	PROB	493131	n/a	LTP278	ltpFR2	15	n/a	n/a	n/a	7	23	7	9	7
989.174	n/a	PROB	494587	n/a	LTP278	ltpFR2	15	n/a	n/a	n/a	7	10	3	1	6
990.58	n/a	PROB	495290	n/a	LTP278	ltpFR2	15	n/a	n/a	n/a	7	6	1	3	2
991.884	n/a	PROB	495942	n/a	LTP278	ltpFR2	15	n/a	n/a	n/a	7	20	9	9	2
993.656	n/a	PROB	496828	n/a	LTP278	ltpFR2	15	n/a	n/a	n/a	7	16	4	3	9
995.884	n/a	PROB	497942	n/a	LTP278	ltpFR2	15	n/a	n/a	n/a	7	8	1	2	5
997.152	n/a	PROB	498576	n/a	LTP278	ltpFR2	15	n/a	n/a	n/a	7	21	7	7	7
998.358	n/a	STOP	499179	n/a	LTP278	ltpFR2	15	n/a	n/a	n/a	7	n/a	n/a	n/a	n/a
1001.138	n/a	REC_START	500569	n/a	LTP278	ltpFR2	15	4	n/a	n/a	n/a	n/a	0	0	0
1001.844	n/a	REC_WORD	500922	wordpools/wasnorm_wordpool_576.txt	LTP278	ltpFR2	15	4	GLASS	639	n/a	n/a	0	0	0
1002.468	n/a	REC_WORD	501234	wordpools/wasnorm_wordpool_576.txt	LTP278	ltpFR2	15	4	CRICKET	408	n/a	n/a	0	0	0
1002.954	n/a	REC_WORD	501477	wordpools/wasnorm_wordpool_576.txt	LTP278	ltpFR2	15	4	HEADBAND	696	n/a	n/a	0	0	0
1008.1	n/a	REC_WORD	504050	wordpools/wasnorm_wordpool_576.txt	LTP278	ltpFR2	15	4	PICNIC	1060	n/a	n/a	0	0	0
1092.252	n/a	DISTRACTOR	546126	n/a	LTP278	ltpFR2	15	5	n/a	n/a	n/a	n/a	0	0	0
1092.252	n/a	START	546126	n/a	LTP278	ltpFR2	15	n/a	n/a	n/a	8	n/a	n/a	n/a	n/a
1092.302	n/a	PROB	546151	n/a	LTP278	ltpFR2	15	n/a	n/a	n/a	8	20	9	4	7
1094.222	n/a	PROB	547111	n/a	LTP278	ltpFR2	15	n/a	n/a	n/a	8	21	6	7	8
1096.802	n/a	PROB	548401	n/a	LTP278	ltpFR2	15	n/a	n/a	n/a	8	9	4	1	4
1098.14	n/a	PROB	549070	n/a	LTP278	ltpFR2	15	n/a	n/a	n/a	8	18	8	4	6
1100.098	n/a	PROB	550049	n/a	LTP278	ltpFR2	15	n/a	n/a	n/a	8	13	1	9	3
1103.226	n/a	PROB	551613	n/a	LTP278	ltpFR2	15	n/a	n/a	n/a	8	15	6	7	2
1105.702	n/a	PROB	552851	n/a	LTP278	ltpFR2	15	n/a	n/a	n/a	8	1	1	8	3
1107.478	n/a	PROB	553739	n/a	LTP278	ltpFR2	15	n/a	n/a	n/a	8	10	6	2	2
1109.146	n/a	PROB	554573	n/a	LTP278	ltpFR2	15	n/a	n/a	n/a	8	14	7	4	3
1110.722	n/a	PROB	555361	n/a	LTP278	ltpFR2	15	n/a	n/a	n/a	8	18	8	6	4
1112.344	n/a	PROB	556172	n/a	LTP278	ltpFR2	15	n/a	n/a	n/a	8	11	1	8	2
1114.86	n/a	STOP	557430	n/a	LTP278	ltpFR2	15	n/a	n/a	n/a	8	n/a	n/a	n/a	n/a
1117.412	n/a	WORD	558706	wordpools/wasnorm_wordpool_576.txt	LTP278	ltpFR2	15	5	CRATER	400	n/a	n/a	0	0	0
1120.124	n/a	WORD	560062	wordpools/wasnorm_wordpool_576.txt	LTP278	ltpFR2	15	5	FREEZER	604	n/a	n/a	0	0	0
1122.55	n/a	WORD	561275	wordpools/wasnorm_wordpool_576.txt	LTP278	ltpFR2	15	5	SALAD	1224	n/a	n/a	0	0	0
1125.294	n/a	WORD	562647	wordpools/wasnorm_wordpool_576.txt	LTP278	ltpFR2	15	5	MEDAL	885	n/a	n/a	0	0	0
1127.82	n/a	WORD	563910	wordpools/wasnorm_wordpool_576.txt	LTP278	ltpFR2	15	5	DENIM	446	n/a	n/a	0	0	0
1130.566	n/a	WORD	565283	wordpools/wasnorm_wordpool_576.txt	LTP278	ltpFR2	15	5	FLASK	576	n/a	n/a	0	0	0
1133.274	n/a	WORD	566637	wordpools/wasnorm_wordpool_576.txt	LTP278	ltpFR2	15	5	BARREL	91	n/a	n/a	0	0	0
1135.868	n/a	WORD	567934	wordpools/wasnorm_wordpool_576.txt	LTP278	ltpFR2	15	5	TROMBONE	1508	n/a	n/a	0	0	0
1138.612	n/a	WORD	569306	wordpools/wasnorm_wordpool_576.txt	LTP278	ltpFR2	15	5	PANTHER	1009	n/a	n/a	0	0	0
1141.272	n/a	WORD	570636	wordpools/wasnorm_wordpool_576.txt	LTP278	ltpFR2	15	5	SWITCH	1422	n/a	n/a	0	0	0
1144.032	n/a	WORD	572016	wordpools/wasnorm_wordpool_576.txt	LTP278	ltpFR2	15	5	HELMET	702	n/a	n/a	0	0	0
1146.608	n/a	WORD	573304	wordpools/wasnorm_wordpool_576.txt	LTP278	ltpFR2	15	5	BADGE	68	n/a	n/a	0	0	0
1149.32	n/a	WORD	574660	wordpools/wasnorm_wordpool_576.txt	LTP278	ltpFR2	15	5	ANKLE	24	n/a	n/a	0	0	0
1151.946	n/a	WORD	575973	wordpools/wasnorm_wordpool_576.txt	LTP278	ltpFR2	15	5	FOOT	590	n/a	n/a	0	0	0
1154.588	n/a	WORD	577294	wordpools/wasnorm_wordpool_576.txt	LTP278	ltpFR2	15	5	RADISH	1158	n/a	n/a	0	0	0
1157.046	n/a	WORD	578523	wordpools/wasnorm_wordpool_576.txt	LTP278	ltpFR2	15	5	POPCORN	1104	n/a	n/a	0	0	0
1159.492	n/a	WORD	579746	wordpools/wasnorm_wordpool_576.txt	LTP278	ltpFR2	15	5	CASHIER	254	n/a	n/a	0	0	0
1162.152	n/a	WORD	581076	wordpools/wasnorm_wordpool_576.txt	LTP278	ltpFR2	15	5	CABBAGE	210	n/a	n/a	0	0	0
1164.946	n/a	WORD	582473	wordpools/wasnorm_wordpool_576.txt	LTP278	ltpFR2	15	5	GRIZZLY	662	n/a	n/a	0	0	0
1167.64	n/a	WORD	583820	wordpools/wasnorm_wordpool_576.txt	LTP278	ltpFR2	15	5	BATHTUB	100	n/a	n/a	0	0	0
1170.4	n/a	WORD	585200	wordpools/wasnorm_wordpool_576.txt	LTP278	ltpFR2	15	5	PUDDLE	1140	n/a	n/a	0	0	0
1173.076	n/a	WORD	586538	wordpools/wasnorm_wordpool_576.txt	LTP278	ltpFR2	15	5	FUNGUS	614	n/a	n/a	0	0	0
1175.554	n/a	WORD	587777	wordpools/wasnorm_wordpool_576.txt	LTP278	ltpFR2	15	5	SNACK	1331	n/a	n/a	0	0	0
1178.11	n/a	WORD	589055	wordpools/wasnorm_wordpool_576.txt	LTP278	ltpFR2	15	5	COBRA	336	n/a	n/a	0	0	0
1179.718	n/a	START	589859	n/a	LTP278	ltpFR2	15	n/a	n/a	n/a	9	n/a	n/a	n/a	n/a
1180.544	n/a	DISTRACTOR	590272	n/a	LTP278	ltpFR2	15	5	n/a	n/a	n/a	n/a	0	0	0
1180.556	n/a	PROB	590278	n/a	LTP278	ltpFR2	15	n/a	n/a	n/a	9	17	8	1	8
1183.732	n/a	PROB	591866	n/a	LTP278	ltpFR2	15	n/a	n/a	n/a	9	15	5	7	3
1187.566	n/a	PROB	593783	n/a	LTP278	ltpFR2	15	n/a	n/a	n/a	9	20	8	7	5
1189.972	n/a	PROB	594986	n/a	LTP278	ltpFR2	15	n/a	n/a	n/a	9	6	1	2	3
1191.414	n/a	PROB	595707	n/a	LTP278	ltpFR2	15	n/a	n/a	n/a	9	8	2	2	4
1192.916	n/a	PROB	596458	n/a	LTP278	ltpFR2	15	n/a	n/a	n/a	9	15	6	4	5
1194.542	n/a	PROB	597271	n/a	LTP278	ltpFR2	15	n/a	n/a	n/a	9	17	6	2	9
1196.768	n/a	PROB	598384	n/a	LTP278	ltpFR2	15	n/a	n/a	n/a	9	16	5	6	5
1198.202	n/a	PROB	599101	n/a	LTP278	ltpFR2	15	n/a	n/a	n/a	9	18	9	1	8
1199.812	n/a	PROB	599906	n/a	LTP278	ltpFR2	15	n/a	n/a	n/a	9	16	2	5	9
1203.41	n/a	STOP	601705	n/a	LTP278	ltpFR2	15	n/a	n/a	n/a	9	n/a	n/a	n/a	n/a
1205.502	n/a	REC_START	602751	n/a	LTP278	ltpFR2	15	5	n/a	n/a	n/a	n/a	0	0	0
1206.14	n/a	REC_WORD	603070	wordpools/wasnorm_wordpool_576.txt	LTP278	ltpFR2	15	5	COBRA	336	n/a	n/a	0	0	0
1207.304	n/a	REC_WORD	603652	wordpools/wasnorm_wordpool_576.txt	LTP278	ltpFR2	15	5	DENIM	446	n/a	n/a	0	0	0
1208.238	n/a	REC_WORD	604119	wordpools/wasnorm_wordpool_576.txt	LTP278	ltpFR2	15	5	BARREL	91	n/a	n/a	0	0	0
1209.18	n/a	REC_WORD	604590	wordpools/wasnorm_wordpool_576.txt	LTP278	ltpFR2	15	5	FLASK	576	n/a	n/a	0	0	0
1296.55	n/a	WORD	648275	wordpools/wasnorm_wordpool_576.txt	LTP278	ltpFR2	15	6	VAGRANT	1544	n/a	n/a	0	0	0
1299.076	n/a	WORD	649538	wordpools/wasnorm_wordpool_576.txt	LTP278	ltpFR2	15	6	STOMACH	1384	n/a	n/a	0	0	0
1301.87	n/a	WORD	650935	wordpools/wasnorm_wordpool_576.txt	LTP278	ltpFR2	15	6	WHISKERS	1605	n/a	n/a	0	0	0
1304.63	n/a	WORD	652315	wordpools/wasnorm_wordpool_576.txt	LTP278	ltpFR2	15	6	FLASHLIGHT	575	n/a	n/a	0	0	0
1307.322	n/a	WORD	653661	wordpools/wasnorm_wordpool_576.txt	LTP278	ltpFR2	15	6	TWEEZERS	1526	n/a	n/a	0	0	0
1309.782	n/a	WORD	654891	wordpools/wasnorm_wordpool_576.txt	LTP278	ltpFR2	15	6	QUARTER	1148	n/a	n/a	0	0	0
1312.562	n/a	WORD	656281	wordpools/wasnorm_wordpool_576.txt	LTP278	ltpFR2	15	6	SUBWAY	1400	n/a	n/a	0	0	0
1315.036	n/a	WORD	657518	wordpools/wasnorm_wordpool_576.txt	LTP278	ltpFR2	15	6	PATIENT	1024	n/a	n/a	0	0	0
1317.546	n/a	WORD	658773	wordpools/wasnorm_wordpool_576.txt	LTP278	ltpFR2	15	6	NURSE	963	n/a	n/a	0	0	0
1320.172	n/a	WORD	660086	wordpools/wasnorm_wordpool_576.txt	LTP278	ltpFR2	15	6	FLUTE	585	n/a	n/a	0	0	0
1322.682	n/a	WORD	661341	wordpools/wasnorm_wordpool_576.txt	LTP278	ltpFR2	15	6	COTTAGE	384	n/a	n/a	0	0	0
1325.208	n/a	WORD	662604	wordpools/wasnorm_wordpool_576.txt	LTP278	ltpFR2	15	6	TRIBE	1505	n/a	n/a	0	0	0
1327.768	n/a	WORD	663884	wordpools/wasnorm_wordpool_576.txt	LTP278	ltpFR2	15	6	LASER	801	n/a	n/a	0	0	0
1330.228	n/a	WORD	665114	wordpools/wasnorm_wordpool_576.txt	LTP278	ltpFR2	15	6	HUMAN	726	n/a	n/a	0	0	0
1332.688	n/a	WORD	666344	wordpools/wasnorm_wordpool_576.txt	LTP278	ltpFR2	15	6	BODY	145	n/a	n/a	0	0	0
1335.43	n/a	WORD	667715	wordpools/wasnorm_wordpool_576.txt	LTP278	ltpFR2	15	6	LUNCH	849	n/a	n/a	0	0	0
1337.874	n/a	WORD	668937	wordpools/wasnorm_wordpool_576.txt	LTP278	ltpFR2	15	6	POCKET	1093	n/a	n/a	0	0	0
1340.332	n/a	WORD	670166	wordpools/wasnorm_wordpool_576.txt	LTP278	ltpFR2	15	6	HIKER	708	n/a	n/a	0	0	0
1342.758	n/a	WORD	671379	wordpools/wasnorm_wordpool_576.txt	LTP278	ltpFR2	15	6	MARS	873	n/a	n/a	0	0	0
1345.302	n/a	WORD	672651	wordpools/wasnorm_wordpool_576.txt	LTP278	ltpFR2	15	6	POSSUM	1112	n/a	n/a	0	0	0
1347.862	n/a	WORD	673931	wordpools/wasnorm_wordpool_576.txt	LTP278	ltpFR2	15	6	ITEM	746	n/a	n/a	0	0	0
1350.336	n/a	WORD	675168	wordpools/wasnorm_wordpool_576.txt	LTP278	ltpFR2	15	6	CAFE	216	n/a	n/a	0	0	0
1353.082	n/a	WORD	676541	wordpools/wasnorm_wordpool_576.txt	LTP278	ltpFR2	15	6	BLUEPRINT	142	n/a	n/a	0	0	0
1355.608	n/a	WORD	677804	wordpools/wasnorm_wordpool_576.txt	LTP278	ltpFR2	15	6	BISON	131	n/a	n/a	0	0	0
1357.214	n/a	START	678607	n/a	LTP278	ltpFR2	15	n/a	n/a	n/a	10	n/a	n/a	n/a	n/a
1358.224	n/a	DISTRACTOR	679112	n/a	LTP278	ltpFR2	15	6	n/a	n/a	n/a	n/a	0	0	0
1358.234	n/a	PROB	679117	n/a	LTP278	ltpFR2	15	n/a	n/a	n/a	10	19	9	1	9
1363.822	n/a	PROB	681911	n/a	LTP278	ltpFR2	15	n/a	n/a	n/a	10	6	4	1	1
1365.244	n/a	PROB	682622	n/a	LTP278	ltpFR2	15	n/a	n/a	n/a	10	12	7	1	4
1367.198	n/a	PROB	683599	n/a	LTP278	ltpFR2	15	n/a	n/a	n/a	10	17	5	5	7
1369.378	n/a	PROB	684689	n/a	LTP278	ltpFR2	15	n/a	n/a	n/a	10	15	9	1	5
1371.97	n/a	PROB	685985	n/a	LTP278	ltpFR2	15	n/a	n/a	n/a	10	6	1	4	1
1373.176	n/a	PROB	686588	n/a	LTP278	ltpFR2	15	n/a	n/a	n/a	10	15	1	7	7
1374.878	n/a	PROB	687439	n/a	LTP278	ltpFR2	15	n/a	n/a	n/a	10	15	9	2	4
1381.216	n/a	STOP	690608	n/a	LTP278	ltpFR2	15	n/a	n/a	n/a	10	n/a	n/a	n/a	n/a
1383.046	n/a	REC_START	691523	n/a	LTP278	ltpFR2	15	6	n/a	n/a	n/a	n/a	0	0	0
1386.024	n/a	REC_WORD	693012	wordpools/wasnorm_wordpool_576.txt	LTP278	ltpFR2	15	6	VAGRANT	1544	n/a	n/a	0	0	0
1386.79	n/a	REC_WORD	693395	wordpools/wasnorm_wordpool_576.txt	LTP278	ltpFR2	15	6	STOMACH	1384	n/a	n/a	0	0	0
1474.128	n/a	DISTRACTOR	737064	n/a	LTP278	ltpFR2	15	7	n/a	n/a	n/a	n/a	0	0	0
1474.128	n/a	START	737064	n/a	LTP278	ltpFR2	15	n/a	n/a	n/a	11	n/a	n/a	n/a	n/a
1474.178	n/a	PROB	737089	n/a	LTP278	ltpFR2	15	n/a	n/a	n/a	11	16	2	6	8
1477.938	n/a	PROB	738969	n/a	LTP278	ltpFR2	15	n/a	n/a	n/a	11	9	4	3	2
1480.55	n/a	PROB	740275	n/a	LTP278	ltpFR2	15	n/a	n/a	n/a	11	13	2	7	4
1482.206	n/a	PROB	741103	n/a	LTP278	ltpFR2	15	n/a	n/a	n/a	11	8	4	2	2
1483.344	n/a	PROB	741672	n/a	LTP278	ltpFR2	15	n/a	n/a	n/a	11	7	5	1	1
1484.38	n/a	PROB	742190	n/a	LTP278	ltpFR2	15	n/a	n/a	n/a	11	13	3	2	7
1485.62	n/a	PROB	742810	n/a	LTP278	ltpFR2	15	n/a	n/a	n/a	11	20	7	7	6
1487.596	n/a	PROB	743798	n/a	LTP278	ltpFR2	15	n/a	n/a	n/a	11	15	6	6	3
1489.952	n/a	PROB	744976	n/a	LTP278	ltpFR2	15	n/a	n/a	n/a	11	12	2	4	6
1491.66	n/a	PROB	745830	n/a	LTP278	ltpFR2	15	n/a	n/a	n/a	11	17	5	7	5
1493.046	n/a	PROB	746523	n/a	LTP278	ltpFR2	15	n/a	n/a	n/a	11	19	3	8	8
1494.706	n/a	PROB	747353	n/a	LTP278	ltpFR2	15	n/a	n/a	n/a	11	10	6	1	3
1496.074	n/a	PROB	748037	n/a	LTP278	ltpFR2	15	n/a	n/a	n/a	11	15	5	8	2
1497.368	n/a	STOP	748684	n/a	LTP278	ltpFR2	15	n/a	n/a	n/a	11	n/a	n/a	n/a	n/a
1499.038	n/a	WORD	749519	wordpools/wasnorm_wordpool_576.txt	LTP278	ltpFR2	15	7	SLIME	1327	n/a	n/a	0	0	0
1501.618	n/a	WORD	750809	wordpools/wasnorm_wordpool_576.txt	LTP278	ltpFR2	15	7	LIGHTNING	820	n/a	n/a	0	0	0
1504.344	n/a	WORD	752172	wordpools/wasnorm_wordpool_576.txt	LTP278	ltpFR2	15	7	OFFICE	972	n/a	n/a	0	0	0
1507.138	n/a	WORD	753569	wordpools/wasnorm_wordpool_576.txt	LTP278	ltpFR2	15	7	WORKER	1621	n/a	n/a	0	0	0
1509.71	n/a	WORD	754855	wordpools/wasnorm_wordpool_576.txt	LTP278	ltpFR2	15	7	MARINE	869	n/a	n/a	0	0	0
1512.19	n/a	WORD	756095	wordpools/wasnorm_wordpool_576.txt	LTP278	ltpFR2	15	7	SCALPEL	1243	n/a	n/a	0	0	0
1514.93	n/a	WORD	757465	wordpools/wasnorm_wordpool_576.txt	LTP278	ltpFR2	15	7	MARKER	870	n/a	n/a	0	0	0
1517.628	n/a	WORD	758814	wordpools/wasnorm_wordpool_576.txt	LTP278	ltpFR2	15	7	CLOCK	325	n/a	n/a	0	0	0
1520.318	n/a	WORD	760159	wordpools/wasnorm_wordpool_576.txt	LTP278	ltpFR2	15	7	TURNIP	1521	n/a	n/a	0	0	0
1522.998	n/a	WORD	761499	wordpools/wasnorm_wordpool_576.txt	LTP278	ltpFR2	15	7	MATCH	878	n/a	n/a	0	0	0
1525.774	n/a	WORD	762887	wordpools/wasnorm_wordpool_576.txt	LTP278	ltpFR2	15	7	CRUTCH	417	n/a	n/a	0	0	0
1528.586	n/a	WORD	764293	wordpools/wasnorm_wordpool_576.txt	LTP278	ltpFR2	15	7	DOUGHNUT	490	n/a	n/a	0	0	0
1531.012	n/a	WORD	765506	wordpools/wasnorm_wordpool_576.txt	LTP278	ltpFR2	15	7	AGENT	10	n/a	n/a	0	0	0
1533.738	n/a	WORD	766869	wordpools/wasnorm_wordpool_576.txt	LTP278	ltpFR2	15	7	ORCHID	982	n/a	n/a	0	0	0
1536.278	n/a	WORD	768139	wordpools/wasnorm_wordpool_576.txt	LTP278	ltpFR2	15	7	RAFT	1159	n/a	n/a	0	0	0
1538.792	n/a	WORD	769396	wordpools/wasnorm_wordpool_576.txt	LTP278	ltpFR2	15	7	DRIVER	499	n/a	n/a	0	0	0
1541.318	n/a	WORD	770659	wordpools/wasnorm_wordpool_576.txt	LTP278	ltpFR2	15	7	HONEY	713	n/a	n/a	0	0	0
1543.978	n/a	WORD	771989	wordpools/wasnorm_wordpool_576.txt	LTP278	ltpFR2	15	7	WIFE	1609	n/a	n/a	0	0	0
1546.636	n/a	WORD	773318	wordpools/wasnorm_wordpool_576.txt	LTP278	ltpFR2	15	7	SPOUSE	1358	n/a	n/a	0	0	0
1549.264	n/a	WORD	774632	wordpools/wasnorm_wordpool_576.txt	LTP278	ltpFR2	15	7	LIPSTICK	829	n/a	n/a	0	0	0
1552.042	n/a	WORD	776021	wordpools/wasnorm_wordpool_576.txt	LTP278	ltpFR2	15	7	CORAL	378	n/a	n/a	0	0	0
1554.652	n/a	WORD	777326	wordpools/wasnorm_wordpool_576.txt	LTP278	ltpFR2	15	7	PADDLE	1000	n/a	n/a	0	0	0
1557.278	n/a	WORD	778639	wordpools/wasnorm_wordpool_576.txt	LTP278	ltpFR2	15	7	MAILBOX	857	n/a	n/a	0	0	0
1560.086	n/a	WORD	780043	wordpools/wasnorm_wordpool_576.txt	LTP278	ltpFR2	15	7	COLONEL	348	n/a	n/a	0	0	0
1561.696	n/a	START	780848	n/a	LTP278	ltpFR2	15	n/a	n/a	n/a	12	n/a	n/a	n/a	n/a
1562.53	n/a	DISTRACTOR	781265	n/a	LTP278	ltpFR2	15	7	n/a	n/a	n/a	n/a	0	0	0
1562.546	n/a	PROB	781273	n/a	LTP278	ltpFR2	15	n/a	n/a	n/a	12	13	2	5	6
1566.662	n/a	PROB	783331	n/a	LTP278	ltpFR2	15	n/a	n/a	n/a	12	14	9	3	2
1568.288	n/a	PROB	784144	n/a	LTP278	ltpFR2	15	n/a	n/a	n/a	12	23	7	9	7
1570.442	n/a	PROB	785221	n/a	LTP278	ltpFR2	15	n/a	n/a	n/a	12	13	3	3	7
1571.934	n/a	PROB	785967	n/a	LTP278	ltpFR2	15	n/a	n/a	n/a	12	7	3	3	1
1574.676	n/a	PROB	787338	n/a	LTP278	ltpFR2	15	n/a	n/a	n/a	12	10	3	3	4
1576.368	n/a	PROB	788184	n/a	LTP278	ltpFR2	15	n/a	n/a	n/a	12	20	6	6	8
1578.088	n/a	PROB	789044	n/a	LTP278	ltpFR2	15	n/a	n/a	n/a	12	20	4	8	8
1581.334	n/a	PROB	790667	n/a	LTP278	ltpFR2	15	n/a	n/a	n/a	12	7	2	3	2
1585.698	n/a	STOP	792849	n/a	LTP278	ltpFR2	15	n/a	n/a	n/a	12	n/a	n/a	n/a	n/a
1587.63	n/a	REC_START	793815	n/a	LTP278	ltpFR2	15	7	n/a	n/a	n/a	n/a	0	0	0
1590.646	n/a	REC_WORD	795323	wordpools/wasnorm_wordpool_576.txt	LTP278	ltpFR2	15	7	CORAL	378	n/a	n/a	0	0	0
1607.856	n/a	REC_WORD	803928	wordpools/wasnorm_wordpool_576.txt	LTP278	ltpFR2	15	7	PADDLE	1000	n/a	n/a	0	0	0
1678.676	n/a	WORD	839338	wordpools/wasnorm_wordpool_576.txt	LTP278	ltpFR2	15	8	VALVE	1546	n/a	n/a	0	0	0
1681.218	n/a	WORD	840609	wordpools/wasnorm_wordpool_576.txt	LTP278	ltpFR2	15	8	MUMMY	932	n/a	n/a	0	0	0
1683.712	n/a	WORD	841856	wordpools/wasnorm_wordpool_576.txt	LTP278	ltpFR2	15	8	LETTUCE	814	n/a	n/a	0	0	0
1686.388	n/a	WORD	843194	wordpools/wasnorm_wordpool_576.txt	LTP278	ltpFR2	15	8	CUPBOARD	425	n/a	n/a	0	0	0
1688.816	n/a	WORD	844408	wordpools/wasnorm_wordpool_576.txt	LTP278	ltpFR2	15	8	TURKEY	1520	n/a	n/a	0	0	0
1691.574	n/a	WORD	845787	wordpools/wasnorm_wordpool_576.txt	LTP278	ltpFR2	15	8	TABLET	1427	n/a	n/a	0	0	0
1694.302	n/a	WORD	847151	wordpools/wasnorm_wordpool_576.txt	LTP278	ltpFR2	15	8	MOTOR	922	n/a	n/a	0	0	0
1697.012	n/a	WORD	848506	wordpools/wasnorm_wordpool_576.txt	LTP278	ltpFR2	15	8	CRAB	397	n/a	n/a	0	0	0
1699.604	n/a	WORD	849802	wordpools/wasnorm_wordpool_576.txt	LTP278	ltpFR2	15	8	BACON	67	n/a	n/a	0	0	0
1702.332	n/a	WORD	851166	wordpools/wasnorm_wordpool_576.txt	LTP278	ltpFR2	15	8	MISSILE	900	n/a	n/a	0	0	0
1704.992	n/a	WORD	852496	wordpools/wasnorm_wordpool_576.txt	LTP278	ltpFR2	15	8	ROD	1203	n/a	n/a	0	0	0
1707.588	n/a	WORD	853794	wordpools/wasnorm_wordpool_576.txt	LTP278	ltpFR2	15	8	WHISTLE	1606	n/a	n/a	0	0	0
1710.328	n/a	WORD	855164	wordpools/wasnorm_wordpool_576.txt	LTP278	ltpFR2	15	8	PAPER	1011	n/a	n/a	0	0	0
1712.87	n/a	WORD	856435	wordpools/wasnorm_wordpool_576.txt	LTP278	ltpFR2	15	8	MEAT	883	n/a	n/a	0	0	0
1715.382	n/a	WORD	857691	wordpools/wasnorm_wordpool_576.txt	LTP278	ltpFR2	15	8	SAUSAGE	1238	n/a	n/a	0	0	0
1717.892	n/a	WORD	858946	wordpools/wasnorm_wordpool_576.txt	LTP278	ltpFR2	15	8	HORNET	718	n/a	n/a	0	0	0
1720.4	n/a	WORD	860200	wordpools/wasnorm_wordpool_576.txt	LTP278	ltpFR2	15	8	STAPLE	1371	n/a	n/a	0	0	0
1723.128	n/a	WORD	861564	wordpools/wasnorm_wordpool_576.txt	LTP278	ltpFR2	15	8	GUITAR	670	n/a	n/a	0	0	0
1725.786	n/a	WORD	862893	wordpools/wasnorm_wordpool_576.txt	LTP278	ltpFR2	15	8	SANDWICH	1232	n/a	n/a	0	0	0
1728.518	n/a	WORD	864259	wordpools/wasnorm_wordpool_576.txt	LTP278	ltpFR2	15	8	COD	340	n/a	n/a	0	0	0
1730.976	n/a	WORD	865488	wordpools/wasnorm_wordpool_576.txt	LTP278	ltpFR2	15	8	BANQUET	86	n/a	n/a	0	0	0
1733.668	n/a	WORD	866834	wordpools/wasnorm_wordpool_576.txt	LTP278	ltpFR2	15	8	SHIRT	1287	n/a	n/a	0	0	0
1736.142	n/a	WORD	868071	wordpools/wasnorm_wordpool_576.txt	LTP278	ltpFR2	15	8	LAPEL	800	n/a	n/a	0	0	0
1738.672	n/a	WORD	869336	wordpools/wasnorm_wordpool_576.txt	LTP278	ltpFR2	15	8	FRIEND	606	n/a	n/a	0	0	0
1740.278	n/a	START	870139	n/a	LTP278	ltpFR2	15	n/a	n/a	n/a	13	n/a	n/a	n/a	n/a
1741.374	n/a	DISTRACTOR	870687	n/a	LTP278	ltpFR2	15	8	n/a	n/a	n/a	n/a	0	0	0
1741.382	n/a	PROB	870691	n/a	LTP278	ltpFR2	15	n/a	n/a	n/a	13	20	8	5	7
1744.392	n/a	PROB	872196	n/a	LTP278	ltpFR2	15	n/a	n/a	n/a	13	14	7	3	4
1747.352	n/a	PROB	873676	n/a	LTP278	ltpFR2	15	n/a	n/a	n/a	13	14	5	5	4
1748.642	n/a	PROB	874321	n/a	LTP278	ltpFR2	15	n/a	n/a	n/a	13	12	1	6	5
1750.196	n/a	PROB	875098	n/a	LTP278	ltpFR2	15	n/a	n/a	n/a	13	15	8	5	2
1751.69	n/a	PROB	875845	n/a	LTP278	ltpFR2	15	n/a	n/a	n/a	13	18	4	9	5
1753.576	n/a	PROB	876788	n/a	LTP278	ltpFR2	15	n/a	n/a	n/a	13	12	6	5	1
1754.73	n/a	PROB	877365	n/a	LTP278	ltpFR2	15	n/a	n/a	n/a	13	21	7	8	6
1756.754	n/a	PROB	878377	n/a	LTP278	ltpFR2	15	n/a	n/a	n/a	13	21	6	6	9
1760.068	n/a	PROB	880034	n/a	LTP278	ltpFR2	15	n/a	n/a	n/a	13	11	6	1	4
1761.49	n/a	PROB	880745	n/a	LTP278	ltpFR2	15	n/a	n/a	n/a	13	10	1	7	2
1762.762	n/a	PROB	881381	n/a	LTP278	ltpFR2	15	n/a	n/a	n/a	13	18	3	7	8
1764.04	n/a	STOP	882020	n/a	LTP278	ltpFR2	15	n/a	n/a	n/a	13	n/a	n/a	n/a	n/a
1766.044	n/a	REC_START	883022	n/a	LTP278	ltpFR2	15	8	n/a	n/a	n/a	n/a	0	0	0
1766.414	n/a	REC_WORD	883207	wordpools/wasnorm_wordpool_576.txt	LTP278	ltpFR2	15	8	LAPEL	800	n/a	n/a	0	0	0
1767.134	n/a	REC_WORD	883567	wordpools/wasnorm_wordpool_576.txt	LTP278	ltpFR2	15	8	FRIEND	606	n/a	n/a	0	0	0
1767.888	n/a	REC_WORD	883944	wordpools/wasnorm_wordpool_576.txt	LTP278	ltpFR2	15	8	MUMMY	932	n/a	n/a	0	0	0
1768.596	n/a	REC_WORD	884298	wordpools/wasnorm_wordpool_576.txt	LTP278	ltpFR2	15	8	VALVE	1546	n/a	n/a	0	0	0
1769.34	n/a	REC_WORD	884670	wordpools/wasnorm_wordpool_576.txt	LTP278	ltpFR2	15	8	LETTUCE	814	n/a	n/a	0	0	0
1842.82	n/a	REST_REWET	921410	n/a	LTP278	ltpFR2	15	8	n/a	n/a	n/a	n/a	0	0	0
2109.79	n/a	WORD	1054895	wordpools/wasnorm_wordpool_576.txt	LTP278	ltpFR2	15	9	ZIPPER	1636	n/a	n/a	0	0	0
2112.334	n/a	WORD	1056167	wordpools/wasnorm_wordpool_576.txt	LTP278	ltpFR2	15	9	PICNIC	1060	n/a	n/a	0	0	0
2115.094	n/a	WORD	1057547	wordpools/wasnorm_wordpool_576.txt	LTP278	ltpFR2	15	9	CLOUD	328	n/a	n/a	0	0	0
2117.588	n/a	WORD	1058794	wordpools/wasnorm_wordpool_576.txt	LTP278	ltpFR2	15	9	GRAPE	654	n/a	n/a	0	0	0
2120.146	n/a	WORD	1060073	wordpools/wasnorm_wordpool_576.txt	LTP278	ltpFR2	15	9	PARSLEY	1016	n/a	n/a	0	0	0
2122.79	n/a	WORD	1061395	wordpools/wasnorm_wordpool_576.txt	LTP278	ltpFR2	15	9	BARLEY	88	n/a	n/a	0	0	0
2125.566	n/a	WORD	1062783	wordpools/wasnorm_wordpool_576.txt	LTP278	ltpFR2	15	9	JELLO	754	n/a	n/a	0	0	0
2128.344	n/a	WORD	1064172	wordpools/wasnorm_wordpool_576.txt	LTP278	ltpFR2	15	9	PALACE	1006	n/a	n/a	0	0	0
2131.088	n/a	WORD	1065544	wordpools/wasnorm_wordpool_576.txt	LTP278	ltpFR2	15	9	FLOWER	584	n/a	n/a	0	0	0
2133.612	n/a	WORD	1066806	wordpools/wasnorm_wordpool_576.txt	LTP278	ltpFR2	15	9	BOUQUET	157	n/a	n/a	0	0	0
2136.342	n/a	WORD	1068171	wordpools/wasnorm_wordpool_576.txt	LTP278	ltpFR2	15	9	YACHT	1629	n/a	n/a	0	0	0
2138.852	n/a	WORD	1069426	wordpools/wasnorm_wordpool_576.txt	LTP278	ltpFR2	15	9	BABY	64	n/a	n/a	0	0	0
2141.278	n/a	WORD	1070639	wordpools/wasnorm_wordpool_576.txt	LTP278	ltpFR2	15	9	TREAT	1501	n/a	n/a	0	0	0
2143.688	n/a	WORD	1071844	wordpools/wasnorm_wordpool_576.txt	LTP278	ltpFR2	15	9	GRILL	661	n/a	n/a	0	0	0
2146.38	n/a	WORD	1073190	wordpools/wasnorm_wordpool_576.txt	LTP278	ltpFR2	15	9	ACTRESS	6	n/a	n/a	0	0	0
2149.056	n/a	WORD	1074528	wordpools/wasnorm_wordpool_576.txt	LTP278	ltpFR2	15	9	PUDDING	1139	n/a	n/a	0	0	0
2151.818	n/a	WORD	1075909	wordpools/wasnorm_wordpool_576.txt	LTP278	ltpFR2	15	9	ATOM	55	n/a	n/a	0	0	0
2154.612	n/a	WORD	1077306	wordpools/wasnorm_wordpool_576.txt	LTP278	ltpFR2	15	9	ANTLER	29	n/a	n/a	0	0	0
2157.338	n/a	WORD	1078669	wordpools/wasnorm_wordpool_576.txt	LTP278	ltpFR2	15	9	ATLAS	53	n/a	n/a	0	0	0
2159.764	n/a	WORD	1079882	wordpools/wasnorm_wordpool_576.txt	LTP278	ltpFR2	15	9	WORLD	1622	n/a	n/a	0	0	0
2162.358	n/a	WORD	1081179	wordpools/wasnorm_wordpool_576.txt	LTP278	ltpFR2	15	9	ISLAND	745	n/a	n/a	0	0	0
2164.984	n/a	WORD	1082492	wordpools/wasnorm_wordpool_576.txt	LTP278	ltpFR2	15	9	SERVER	1272	n/a	n/a	0	0	0
2167.712	n/a	WORD	1083856	wordpools/wasnorm_wordpool_576.txt	LTP278	ltpFR2	15	9	STAMP	1370	n/a	n/a	0	0	0
2170.234	n/a	WORD	1085117	wordpools/wasnorm_wordpool_576.txt	LTP278	ltpFR2	15	9	INFANT	737	n/a	n/a	0	0	0
2171.844	n/a	START	1085922	n/a	LTP278	ltpFR2	15	n/a	n/a	n/a	14	n/a	n/a	n/a	n/a
2172.812	n/a	DISTRACTOR	1086406	n/a	LTP278	ltpFR2	15	9	n/a	n/a	n/a	n/a	0	0	0
2172.83	n/a	PROB	1086415	n/a	LTP278	ltpFR2	15	n/a	n/a	n/a	14	19	3	8	8
2174.72	n/a	PROB	1087360	n/a	LTP278	ltpFR2	15	n/a	n/a	n/a	14	19	5	9	5
2176.81	n/a	PROB	1088405	n/a	LTP278	ltpFR2	15	n/a	n/a	n/a	14	13	9	2	2
2178.504	n/a	PROB	1089252	n/a	LTP278	ltpFR2	15	n/a	n/a	n/a	14	6	4	1	1
2179.838	n/a	PROB	1089919	n/a	LTP278	ltpFR2	15	n/a	n/a	n/a	14	16	5	7	4
2181.83	n/a	PROB	1090915	n/a	LTP278	ltpFR2	15	n/a	n/a	n/a	14	20	9	5	6
2183.938	n/a	PROB	1091969	n/a	LTP278	ltpFR2	15	n/a	n/a	n/a	14	16	7	2	7
2185.31	n/a	PROB	1092655	n/a	LTP278	ltpFR2	15	n/a	n/a	n/a	14	18	8	4	4
2186.682	n/a	PROB	1093341	n/a	LTP278	ltpFR2	15	n/a	n/a	n/a	14	14	1	7	6
2188.69	n/a	PROB	1094345	n/a	LTP278	ltpFR2	15	n/a	n/a	n/a	14	13	6	1	6
2189.976	n/a	PROB	1094988	n/a	LTP278	ltpFR2	15	n/a	n/a	n/a	14	15	3	4	8
2191.432	n/a	PROB	1095716	n/a	LTP278	ltpFR2	15	n/a	n/a	n/a	14	13	7	5	1
2192.922	n/a	PROB	1096461	n/a	LTP278	ltpFR2	15	n/a	n/a	n/a	14	10	1	1	8
2194.178	n/a	PROB	1097089	n/a	LTP278	ltpFR2	15	n/a	n/a	n/a	14	19	9	4	6
2195.592	n/a	STOP	1097796	n/a	LTP278	ltpFR2	15	n/a	n/a	n/a	14	n/a	n/a	n/a	n/a
2197.76	n/a	REC_START	1098880	n/a	LTP278	ltpFR2	15	9	n/a	n/a	n/a	n/a	0	0	0
2198.13	n/a	REC_WORD	1099065	wordpools/wasnorm_wordpool_576.txt	LTP278	ltpFR2	15	9	PARSLEY	1016	n/a	n/a	0	0	0
2199.66	n/a	REC_WORD	1099830	wordpools/wasnorm_wordpool_576.txt	LTP278	ltpFR2	15	9	BABY	64	n/a	n/a	0	0	0
2213.218	n/a	REC_WORD_VV	1106609	wordpools/wasnorm_wordpool_576.txt	LTP278	ltpFR2	15	9	<>	-1	n/a	n/a	0	0	0
2216.05	n/a	REC_WORD	1108025	wordpools/wasnorm_wordpool_576.txt	LTP278	ltpFR2	15	9	SOAP	1337	n/a	n/a	0	0	0
2288.824	n/a	WORD	1144412	wordpools/wasnorm_wordpool_576.txt	LTP278	ltpFR2	15	10	SOFTBALL	1343	n/a	n/a	0	0	0
2291.384	n/a	WORD	1145692	wordpools/wasnorm_wordpool_576.txt	LTP278	ltpFR2	15	10	SCARECROW	1245	n/a	n/a	0	0	0
2293.878	n/a	WORD	1146939	wordpools/wasnorm_wordpool_576.txt	LTP278	ltpFR2	15	10	CAMEL	223	n/a	n/a	0	0	0
2296.656	n/a	WORD	1148328	wordpools/wasnorm_wordpool_576.txt	LTP278	ltpFR2	15	10	SHARK	1275	n/a	n/a	0	0	0
2299.248	n/a	WORD	1149624	wordpools/wasnorm_wordpool_576.txt	LTP278	ltpFR2	15	10	SCALLOP	1242	n/a	n/a	0	0	0
2301.974	n/a	WORD	1150987	wordpools/wasnorm_wordpool_576.txt	LTP278	ltpFR2	15	10	OYSTER	995	n/a	n/a	0	0	0
2304.768	n/a	WORD	1152384	wordpools/wasnorm_wordpool_576.txt	LTP278	ltpFR2	15	10	MAMMAL	861	n/a	n/a	0	0	0
2307.494	n/a	WORD	1153747	wordpools/wasnorm_wordpool_576.txt	LTP278	ltpFR2	15	10	MAPLE	866	n/a	n/a	0	0	0
2310.056	n/a	WORD	1155028	wordpools/wasnorm_wordpool_576.txt	LTP278	ltpFR2	15	10	BRANDY	169	n/a	n/a	0	0	0
2312.7	n/a	WORD	1156350	wordpools/wasnorm_wordpool_576.txt	LTP278	ltpFR2	15	10	DONKEY	484	n/a	n/a	0	0	0
2315.292	n/a	WORD	1157646	wordpools/wasnorm_wordpool_576.txt	LTP278	ltpFR2	15	10	LOFT	840	n/a	n/a	0	0	0
2317.902	n/a	WORD	1158951	wordpools/wasnorm_wordpool_576.txt	LTP278	ltpFR2	15	10	SEAGULL	1261	n/a	n/a	0	0	0
2320.408	n/a	WORD	1160204	wordpools/wasnorm_wordpool_576.txt	LTP278	ltpFR2	15	10	CIGAR	308	n/a	n/a	0	0	0
2323.188	n/a	WORD	1161594	wordpools/wasnorm_wordpool_576.txt	LTP278	ltpFR2	15	10	GALLON	618	n/a	n/a	0	0	0
2326.0	n/a	WORD	1163000	wordpools/wasnorm_wordpool_576.txt	LTP278	ltpFR2	15	10	BRACES	164	n/a	n/a	0	0	0
2328.594	n/a	WORD	1164297	wordpools/wasnorm_wordpool_576.txt	LTP278	ltpFR2	15	10	DENTIST	447	n/a	n/a	0	0	0
2331.354	n/a	WORD	1165677	wordpools/wasnorm_wordpool_576.txt	LTP278	ltpFR2	15	10	CATCHER	258	n/a	n/a	0	0	0
2334.114	n/a	WORD	1167057	wordpools/wasnorm_wordpool_576.txt	LTP278	ltpFR2	15	10	RAZOR	1171	n/a	n/a	0	0	0
2336.824	n/a	WORD	1168412	wordpools/wasnorm_wordpool_576.txt	LTP278	ltpFR2	15	10	HAMPER	682	n/a	n/a	0	0	0
2339.348	n/a	WORD	1169674	wordpools/wasnorm_wordpool_576.txt	LTP278	ltpFR2	15	10	STALLION	1369	n/a	n/a	0	0	0
2341.844	n/a	WORD	1170922	wordpools/wasnorm_wordpool_576.txt	LTP278	ltpFR2	15	10	STONE	1385	n/a	n/a	0	0	0
2344.338	n/a	WORD	1172169	wordpools/wasnorm_wordpool_576.txt	LTP278	ltpFR2	15	10	TOASTER	1472	n/a	n/a	0	0	0
2346.896	n/a	WORD	1173448	wordpools/wasnorm_wordpool_576.txt	LTP278	ltpFR2	15	10	SHORTCAKE	1292	n/a	n/a	0	0	0
2349.49	n/a	WORD	1174745	wordpools/wasnorm_wordpool_576.txt	LTP278	ltpFR2	15	10	PUPIL	1143	n/a	n/a	0	0	0
2351.096	n/a	START	1175548	n/a	LTP278	ltpFR2	15	n/a	n/a	n/a	15	n/a	n/a	n/a	n/a
2351.988	n/a	DISTRACTOR	1175994	n/a	LTP278	ltpFR2	15	10	n/a	n/a	n/a	n/a	0	0	0
2352.0	n/a	PROB	1176000	n/a	LTP278	ltpFR2	15	n/a	n/a	n/a	15	20	8	9	3
2355.628	n/a	PROB	1177814	n/a	LTP278	ltpFR2	15	n/a	n/a	n/a	15	14	7	2	5
2358.522	n/a	PROB	1179261	n/a	LTP278	ltpFR2	15	n/a	n/a	n/a	15	16	9	1	6
2360.06	n/a	PROB	1180030	n/a	LTP278	ltpFR2	15	n/a	n/a	n/a	15	25	7	9	9
2361.85	n/a	PROB	1180925	n/a	LTP278	ltpFR2	15	n/a	n/a	n/a	15	19	6	8	5
2367.138	n/a	PROB	1183569	n/a	LTP278	ltpFR2	15	n/a	n/a	n/a	15	12	2	4	6
2368.86	n/a	PROB	1184430	n/a	LTP278	ltpFR2	15	n/a	n/a	n/a	15	13	2	6	5
2371.606	n/a	PROB	1185803	n/a	LTP278	ltpFR2	15	n/a	n/a	n/a	15	7	2	3	2
2374.016	n/a	STOP	1187008	n/a	LTP278	ltpFR2	15	n/a	n/a	n/a	15	n/a	n/a	n/a	n/a
2376.928	n/a	REC_START	1188464	n/a	LTP278	ltpFR2	15	10	n/a	n/a	n/a	n/a	0	0	0
2378.452	n/a	REC_WORD	1189226	wordpools/wasnorm_wordpool_576.txt	LTP278	ltpFR2	15	10	SOFTBALL	1343	n/a	n/a	0	0	0
2379.118	n/a	REC_WORD	1189559	wordpools/wasnorm_wordpool_576.txt	LTP278	ltpFR2	15	10	SCALLOP	1242	n/a	n/a	0	0	0
2379.708	n/a	REC_WORD	1189854	wordpools/wasnorm_wordpool_576.txt	LTP278	ltpFR2	15	10	SHARK	1275	n/a	n/a	0	0	0
2380.168	n/a	REC_WORD	1190084	wordpools/wasnorm_wordpool_576.txt	LTP278	ltpFR2	15	10	SCARECROW	1245	n/a	n/a	0	0	0
2467.976	n/a	WORD	1233988	wordpools/wasnorm_wordpool_576.txt	LTP278	ltpFR2	15	11	MOTEL	919	n/a	n/a	0	0	0
2470.468	n/a	WORD	1235234	wordpools/wasnorm_wordpool_576.txt	LTP278	ltpFR2	15	11	JURY	766	n/a	n/a	0	0	0
2473.128	n/a	WORD	1236564	wordpools/wasnorm_wordpool_576.txt	LTP278	ltpFR2	15	11	BRIEFCASE	175	n/a	n/a	0	0	0
2475.822	n/a	WORD	1237911	wordpools/wasnorm_wordpool_576.txt	LTP278	ltpFR2	15	11	CRITIC	410	n/a	n/a	0	0	0
2478.602	n/a	WORD	1239301	wordpools/wasnorm_wordpool_576.txt	LTP278	ltpFR2	15	11	PARTNER	1017	n/a	n/a	0	0	0
2481.224	n/a	WORD	1240612	wordpools/wasnorm_wordpool_576.txt	LTP278	ltpFR2	15	11	CONVICT	371	n/a	n/a	0	0	0
2483.904	n/a	WORD	1241952	wordpools/wasnorm_wordpool_576.txt	LTP278	ltpFR2	15	11	DUST	508	n/a	n/a	0	0	0
2486.648	n/a	WORD	1243324	wordpools/wasnorm_wordpool_576.txt	LTP278	ltpFR2	15	11	TEMPLE	1448	n/a	n/a	0	0	0
2489.458	n/a	WORD	1244729	wordpools/wasnorm_wordpool_576.txt	LTP278	ltpFR2	15	11	SADDLE	1221	n/a	n/a	0	0	0
2492.268	n/a	WORD	1246134	wordpools/wasnorm_wordpool_576.txt	LTP278	ltpFR2	15	11	ROBIN	1199	n/a	n/a	0	0	0
2494.996	n/a	WORD	1247498	wordpools/wasnorm_wordpool_576.txt	LTP278	ltpFR2	15	11	NOVEL	960	n/a	n/a	0	0	0
2497.506	n/a	WORD	1248753	wordpools/wasnorm_wordpool_576.txt	LTP278	ltpFR2	15	11	RELISH	1183	n/a	n/a	0	0	0
2500.032	n/a	WORD	1250016	wordpools/wasnorm_wordpool_576.txt	LTP278	ltpFR2	15	11	INMATE	738	n/a	n/a	0	0	0
2502.474	n/a	WORD	1251237	wordpools/wasnorm_wordpool_576.txt	LTP278	ltpFR2	15	11	CROSS	413	n/a	n/a	0	0	0
2505.182	n/a	WORD	1252591	wordpools/wasnorm_wordpool_576.txt	LTP278	ltpFR2	15	11	WARDROBE	1587	n/a	n/a	0	0	0
2507.712	n/a	WORD	1253856	wordpools/wasnorm_wordpool_576.txt	LTP278	ltpFR2	15	11	BUREAU	199	n/a	n/a	0	0	0
2510.154	n/a	WORD	1255077	wordpools/wasnorm_wordpool_576.txt	LTP278	ltpFR2	15	11	EAGLE	512	n/a	n/a	0	0	0
2512.664	n/a	WORD	1256332	wordpools/wasnorm_wordpool_576.txt	LTP278	ltpFR2	15	11	FRIAR	605	n/a	n/a	0	0	0
2515.27	n/a	WORD	1257635	wordpools/wasnorm_wordpool_576.txt	LTP278	ltpFR2	15	11	HUSBAND	728	n/a	n/a	0	0	0
2518.034	n/a	WORD	1259017	wordpools/wasnorm_wordpool_576.txt	LTP278	ltpFR2	15	11	TROUT	1511	n/a	n/a	0	0	0
2520.494	n/a	WORD	1260247	wordpools/wasnorm_wordpool_576.txt	LTP278	ltpFR2	15	11	OUTFIT	988	n/a	n/a	0	0	0
2523.086	n/a	WORD	1261543	wordpools/wasnorm_wordpool_576.txt	LTP278	ltpFR2	15	11	WASHER	1592	n/a	n/a	0	0	0
2525.814	n/a	WORD	1262907	wordpools/wasnorm_wordpool_576.txt	LTP278	ltpFR2	15	11	TOURIST	1488	n/a	n/a	0	0	0
2528.608	n/a	WORD	1264304	wordpools/wasnorm_wordpool_576.txt	LTP278	ltpFR2	15	11	PERMIT	1051	n/a	n/a	0	0	0
2530.214	n/a	START	1265107	n/a	LTP278	ltpFR2	15	n/a	n/a	n/a	16	n/a	n/a	n/a	n/a
2531.062	n/a	DISTRACTOR	1265531	n/a	LTP278	ltpFR2	15	11	n/a	n/a	n/a	n/a	0	0	0
2531.066	n/a	PROB	1265533	n/a	LTP278	ltpFR2	15	n/a	n/a	n/a	16	18	5	4	9
2540.852	n/a	PROB	1270426	n/a	LTP278	ltpFR2	15	n/a	n/a	n/a	16	22	6	8	8
2542.91	n/a	PROB	1271455	n/a	LTP278	ltpFR2	15	n/a	n/a	n/a	16	12	3	2	5
2544.314	n/a	PROB	1272157	n/a	LTP278	ltpFR2	15	n/a	n/a	n/a	16	14	4	8	2
2545.988	n/a	PROB	1272994	n/a	LTP278	ltpFR2	15	n/a	n/a	n/a	16	14	3	8	3
2547.412	n/a	PROB	1273706	n/a	LTP278	ltpFR2	15	n/a	n/a	n/a	16	21	8	7	6
2549.754	n/a	PROB	1274877	n/a	LTP278	ltpFR2	15	n/a	n/a	n/a	16	17	7	1	9
2551.492	n/a	PROB	1275746	n/a	LTP278	ltpFR2	15	n/a	n/a	n/a	16	16	6	4	6
2553.354	n/a	STOP	1276677	n/a	LTP278	ltpFR2	15	n/a	n/a	n/a	16	n/a	n/a	n/a	n/a
2556.03	n/a	REC_START	1278015	n/a	LTP278	ltpFR2	15	11	n/a	n/a	n/a	n/a	0	0	0
2557.988	n/a	REC_WORD_VV	1278994	wordpools/wasnorm_wordpool_576.txt	LTP278	ltpFR2	15	11	<>	-1	n/a	n/a	0	0	0
2559.444	n/a	REC_WORD	1279722	wordpools/wasnorm_wordpool_576.txt	LTP278	ltpFR2	15	11	ISLAND	745	n/a	n/a	0	0	0
2589.976	n/a	REC_WORD	1294988	wordpools/wasnorm_wordpool_576.txt	LTP278	ltpFR2	15	11	HOWL	-1	n/a	n/a	0	0	0
2647.11	n/a	DISTRACTOR	1323555	n/a	LTP278	ltpFR2	15	12	n/a	n/a	n/a	n/a	0	0	0
2647.112	n/a	START	1323556	n/a	LTP278	ltpFR2	15	n/a	n/a	n/a	17	n/a	n/a	n/a	n/a
2647.16	n/a	PROB	1323580	n/a	LTP278	ltpFR2	15	n/a	n/a	n/a	17	15	4	2	9
2655.442	n/a	PROB	1327721	n/a	LTP278	ltpFR2	15	n/a	n/a	n/a	17	20	7	4	9
2658.868	n/a	PROB	1329434	n/a	LTP278	ltpFR2	15	n/a	n/a	n/a	17	8	3	4	1
2660.106	n/a	PROB	1330053	n/a	LTP278	ltpFR2	15	n/a	n/a	n/a	17	15	2	7	6
2661.98	n/a	PROB	1330990	n/a	LTP278	ltpFR2	15	n/a	n/a	n/a	17	14	5	5	4
2663.086	n/a	PROB	1331543	n/a	LTP278	ltpFR2	15	n/a	n/a	n/a	17	23	6	9	8
2667.62	n/a	PROB	1333810	n/a	LTP278	ltpFR2	15	n/a	n/a	n/a	17	14	8	5	1
2669.276	n/a	PROB	1334638	n/a	LTP278	ltpFR2	15	n/a	n/a	n/a	17	17	5	3	9
2670.792	n/a	STOP	1335396	n/a	LTP278	ltpFR2	15	n/a	n/a	n/a	17	n/a	n/a	n/a	n/a
2672.056	n/a	WORD	1336028	wordpools/wasnorm_wordpool_576.txt	LTP278	ltpFR2	15	12	JOURNAL	760	n/a	n/a	0	0	0
2674.68	n/a	WORD	1337340	wordpools/wasnorm_wordpool_576.txt	LTP278	ltpFR2	15	12	EYELASH	546	n/a	n/a	0	0	0
2677.142	n/a	WORD	1338571	wordpools/wasnorm_wordpool_576.txt	LTP278	ltpFR2	15	12	SKILLET	1317	n/a	n/a	0	0	0
2679.936	n/a	WORD	1339968	wordpools/wasnorm_wordpool_576.txt	LTP278	ltpFR2	15	12	LIZARD	834	n/a	n/a	0	0	0
2682.444	n/a	WORD	1341222	wordpools/wasnorm_wordpool_576.txt	LTP278	ltpFR2	15	12	BUCKET	184	n/a	n/a	0	0	0
2684.872	n/a	WORD	1342436	wordpools/wasnorm_wordpool_576.txt	LTP278	ltpFR2	15	12	PERCH	1048	n/a	n/a	0	0	0
2687.33	n/a	WORD	1343665	wordpools/wasnorm_wordpool_576.txt	LTP278	ltpFR2	15	12	BUG	187	n/a	n/a	0	0	0
2689.94	n/a	WORD	1344970	wordpools/wasnorm_wordpool_576.txt	LTP278	ltpFR2	15	12	TERMITE	1451	n/a	n/a	0	0	0
2692.366	n/a	WORD	1346183	wordpools/wasnorm_wordpool_576.txt	LTP278	ltpFR2	15	12	CLOTHES	327	n/a	n/a	0	0	0
2694.96	n/a	WORD	1347480	wordpools/wasnorm_wordpool_576.txt	LTP278	ltpFR2	15	12	CROWN	415	n/a	n/a	0	0	0
2697.672	n/a	WORD	1348836	wordpools/wasnorm_wordpool_576.txt	LTP278	ltpFR2	15	12	SALT	1229	n/a	n/a	0	0	0
2700.28	n/a	WORD	1350140	wordpools/wasnorm_wordpool_576.txt	LTP278	ltpFR2	15	12	FLIPPER	580	n/a	n/a	0	0	0
2702.806	n/a	WORD	1351403	wordpools/wasnorm_wordpool_576.txt	LTP278	ltpFR2	15	12	FRAGRANCE	599	n/a	n/a	0	0	0
2705.35	n/a	WORD	1352675	wordpools/wasnorm_wordpool_576.txt	LTP278	ltpFR2	15	12	RATTLE	1170	n/a	n/a	0	0	0
2707.826	n/a	WORD	1353913	wordpools/wasnorm_wordpool_576.txt	LTP278	ltpFR2	15	12	GAZELLE	628	n/a	n/a	0	0	0
2710.588	n/a	WORD	1355294	wordpools/wasnorm_wordpool_576.txt	LTP278	ltpFR2	15	12	LEOPARD	812	n/a	n/a	0	0	0
2713.028	n/a	WORD	1356514	wordpools/wasnorm_wordpool_576.txt	LTP278	ltpFR2	15	12	PRINCESS	1125	n/a	n/a	0	0	0
2715.622	n/a	WORD	1357811	wordpools/wasnorm_wordpool_576.txt	LTP278	ltpFR2	15	12	QUEEN	1149	n/a	n/a	0	0	0
2718.098	n/a	WORD	1359049	wordpools/wasnorm_wordpool_576.txt	LTP278	ltpFR2	15	12	EUROPE	541	n/a	n/a	0	0	0
2720.842	n/a	WORD	1360421	wordpools/wasnorm_wordpool_576.txt	LTP278	ltpFR2	15	12	VICTIM	1562	n/a	n/a	0	0	0
2723.554	n/a	WORD	1361777	wordpools/wasnorm_wordpool_576.txt	LTP278	ltpFR2	15	12	BANKER	84	n/a	n/a	0	0	0
2725.978	n/a	WORD	1362989	wordpools/wasnorm_wordpool_576.txt	LTP278	ltpFR2	15	12	WAITRESS	1581	n/a	n/a	0	0	0
2728.404	n/a	WORD	1364202	wordpools/wasnorm_wordpool_576.txt	LTP278	ltpFR2	15	12	ONION	977	n/a	n/a	0	0	0
2730.848	n/a	WORD	1365424	wordpools/wasnorm_wordpool_576.txt	LTP278	ltpFR2	15	12	GIFT	635	n/a	n/a	0	0	0
2732.454	n/a	START	1366227	n/a	LTP278	ltpFR2	15	n/a	n/a	n/a	18	n/a	n/a	n/a	n/a
2733.392	n/a	DISTRACTOR	1366696	n/a	LTP278	ltpFR2	15	12	n/a	n/a	n/a	n/a	0	0	0
2733.406	n/a	PROB	1366703	n/a	LTP278	ltpFR2	15	n/a	n/a	n/a	18	13	2	4	7
2736.834	n/a	PROB	1368417	n/a	LTP278	ltpFR2	15	n/a	n/a	n/a	18	13	8	4	1
2738.172	n/a	PROB	1369086	n/a	LTP278	ltpFR2	15	n/a	n/a	n/a	18	19	5	8	6
2740.884	n/a	PROB	1370442	n/a	LTP278	ltpFR2	15	n/a	n/a	n/a	18	19	7	8	4
2742.89	n/a	PROB	1371445	n/a	LTP278	ltpFR2	15	n/a	n/a	n/a	18	19	2	9	8
2745.618	n/a	PROB	1372809	n/a	LTP278	ltpFR2	15	n/a	n/a	n/a	18	17	3	8	6
2755.964	n/a	STOP	1377982	n/a	LTP278	ltpFR2	15	n/a	n/a	n/a	18	n/a	n/a	n/a	n/a
2758.286	n/a	REC_START	1379143	n/a	LTP278	ltpFR2	15	12	n/a	n/a	n/a	n/a	0	0	0
2761.008	n/a	REC_WORD	1380504	wordpools/wasnorm_wordpool_576.txt	LTP278	ltpFR2	15	12	FLIPPER	580	n/a	n/a	0	0	0
2849.346	n/a	WORD	1424673	wordpools/wasnorm_wordpool_576.txt	LTP278	ltpFR2	15	13	NIGHTGOWN	953	n/a	n/a	0	0	0
2852.078	n/a	WORD	1426039	wordpools/wasnorm_wordpool_576.txt	LTP278	ltpFR2	15	13	FLEET	578	n/a	n/a	0	0	0
2854.888	n/a	WORD	1427444	wordpools/wasnorm_wordpool_576.txt	LTP278	ltpFR2	15	13	BOX	159	n/a	n/a	0	0	0
2857.566	n/a	WORD	1428783	wordpools/wasnorm_wordpool_576.txt	LTP278	ltpFR2	15	13	CARROT	249	n/a	n/a	0	0	0
2860.256	n/a	WORD	1430128	wordpools/wasnorm_wordpool_576.txt	LTP278	ltpFR2	15	13	YOLK	1633	n/a	n/a	0	0	0
2863.018	n/a	WORD	1431509	wordpools/wasnorm_wordpool_576.txt	LTP278	ltpFR2	15	13	YARN	1631	n/a	n/a	0	0	0
2865.714	n/a	WORD	1432857	wordpools/wasnorm_wordpool_576.txt	LTP278	ltpFR2	15	13	ICEBERG	731	n/a	n/a	0	0	0
2868.256	n/a	WORD	1434128	wordpools/wasnorm_wordpool_576.txt	LTP278	ltpFR2	15	13	HANDBAG	684	n/a	n/a	0	0	0
2870.716	n/a	WORD	1435358	wordpools/wasnorm_wordpool_576.txt	LTP278	ltpFR2	15	13	COFFEE	341	n/a	n/a	0	0	0
2873.358	n/a	WORD	1436679	wordpools/wasnorm_wordpool_576.txt	LTP278	ltpFR2	15	13	RABBIT	1152	n/a	n/a	0	0	0
2876.102	n/a	WORD	1438051	wordpools/wasnorm_wordpool_576.txt	LTP278	ltpFR2	15	13	BASEMENT	94	n/a	n/a	0	0	0
2878.812	n/a	WORD	1439406	wordpools/wasnorm_wordpool_576.txt	LTP278	ltpFR2	15	13	POLICE	1098	n/a	n/a	0	0	0
2881.338	n/a	WORD	1440669	wordpools/wasnorm_wordpool_576.txt	LTP278	ltpFR2	15	13	SHERIFF	1284	n/a	n/a	0	0	0
2883.916	n/a	WORD	1441958	wordpools/wasnorm_wordpool_576.txt	LTP278	ltpFR2	15	13	DORM	488	n/a	n/a	0	0	0
2886.576	n/a	WORD	1443288	wordpools/wasnorm_wordpool_576.txt	LTP278	ltpFR2	15	13	LODGE	839	n/a	n/a	0	0	0
2889.286	n/a	WORD	1444643	wordpools/wasnorm_wordpool_576.txt	LTP278	ltpFR2	15	13	HOOD	714	n/a	n/a	0	0	0
2891.996	n/a	WORD	1445998	wordpools/wasnorm_wordpool_576.txt	LTP278	ltpFR2	15	13	BEAST	108	n/a	n/a	0	0	0
2894.674	n/a	WORD	1447337	wordpools/wasnorm_wordpool_576.txt	LTP278	ltpFR2	15	13	SURVEY	1414	n/a	n/a	0	0	0
2897.1	n/a	WORD	1448550	wordpools/wasnorm_wordpool_576.txt	LTP278	ltpFR2	15	13	KITCHEN	778	n/a	n/a	0	0	0
2899.81	n/a	WORD	1449905	wordpools/wasnorm_wordpool_576.txt	LTP278	ltpFR2	15	13	SEAL	1262	n/a	n/a	0	0	0
2902.336	n/a	WORD	1451168	wordpools/wasnorm_wordpool_576.txt	LTP278	ltpFR2	15	13	MUFFIN	929	n/a	n/a	0	0	0
2905.096	n/a	WORD	1452548	wordpools/wasnorm_wordpool_576.txt	LTP278	ltpFR2	15	13	PORK	1108	n/a	n/a	0	0	0
2907.742	n/a	WORD	1453871	wordpools/wasnorm_wordpool_576.txt	LTP278	ltpFR2	15	13	ULCER	1533	n/a	n/a	0	0	0
2910.484	n/a	WORD	1455242	wordpools/wasnorm_wordpool_576.txt	LTP278	ltpFR2	15	13	LIVER	833	n/a	n/a	0	0	0
2912.104	n/a	START	1456052	n/a	LTP278	ltpFR2	15	n/a	n/a	n/a	19	n/a	n/a	n/a	n/a
2913.212	n/a	DISTRACTOR	1456606	n/a	LTP278	ltpFR2	15	13	n/a	n/a	n/a	n/a	0	0	0
2913.228	n/a	PROB	1456614	n/a	LTP278	ltpFR2	15	n/a	n/a	n/a	19	1	1	3	7
2918.044	n/a	PROB	1459022	n/a	LTP278	ltpFR2	15	n/a	n/a	n/a	19	16	5	6	5
2919.516	n/a	PROB	1459758	n/a	LTP278	ltpFR2	15	n/a	n/a	n/a	19	18	9	2	7
2922.326	n/a	PROB	1461163	n/a	LTP278	ltpFR2	15	n/a	n/a	n/a	19	8	1	6	1
2923.564	n/a	PROB	1461782	n/a	LTP278	ltpFR2	15	n/a	n/a	n/a	19	18	9	8	1
2927.064	n/a	PROB	1463532	n/a	LTP278	ltpFR2	15	n/a	n/a	n/a	19	6	1	1	4
2928.52	n/a	PROB	1464260	n/a	LTP278	ltpFR2	15	n/a	n/a	n/a	19	18	8	9	1
2932.532	n/a	PROB	1466266	n/a	LTP278	ltpFR2	15	n/a	n/a	n/a	19	11	3	7	1
2936.086	n/a	STOP	1468043	n/a	LTP278	ltpFR2	15	n/a	n/a	n/a	19	n/a	n/a	n/a	n/a
2938.04	n/a	REC_START	1469020	n/a	LTP278	ltpFR2	15	13	n/a	n/a	n/a	n/a	0	0	0
2939.912	n/a	REC_WORD	1469956	wordpools/wasnorm_wordpool_576.txt	LTP278	ltpFR2	15	13	ICEBERG	731	n/a	n/a	0	0	0
2950.234	n/a	REC_WORD	1475117	wordpools/wasnorm_wordpool_576.txt	LTP278	ltpFR2	15	13	STUDIO	-1	n/a	n/a	0	0	0
3029.088	n/a	DISTRACTOR	1514544	n/a	LTP278	ltpFR2	15	14	n/a	n/a	n/a	n/a	0	0	0
3029.088	n/a	START	1514544	n/a	LTP278	ltpFR2	15	n/a	n/a	n/a	20	n/a	n/a	n/a	n/a
3029.138	n/a	PROB	1514569	n/a	LTP278	ltpFR2	15	n/a	n/a	n/a	20	19	7	3	9
3030.608	n/a	PROB	1515304	n/a	LTP278	ltpFR2	15	n/a	n/a	n/a	20	25	8	9	8
3034.622	n/a	PROB	1517311	n/a	LTP278	ltpFR2	15	n/a	n/a	n/a	20	14	4	6	4
3036.478	n/a	PROB	1518239	n/a	LTP278	ltpFR2	15	n/a	n/a	n/a	20	13	6	3	4
3038.808	n/a	PROB	1519404	n/a	LTP278	ltpFR2	15	n/a	n/a	n/a	20	15	3	6	6
3040.696	n/a	PROB	1520348	n/a	LTP278	ltpFR2	15	n/a	n/a	n/a	20	13	4	6	3
3042.638	n/a	PROB	1521319	n/a	LTP278	ltpFR2	15	n/a	n/a	n/a	20	7	3	1	3
3044.112	n/a	PROB	1522056	n/a	LTP278	ltpFR2	15	n/a	n/a	n/a	20	15	4	5	6
3047.006	n/a	PROB	1523503	n/a	LTP278	ltpFR2	15	n/a	n/a	n/a	20	10	8	1	1
3048.408	n/a	PROB	1524204	n/a	LTP278	ltpFR2	15	n/a	n/a	n/a	20	15	3	3	9
3052.324	n/a	STOP	1526162	n/a	LTP278	ltpFR2	15	n/a	n/a	n/a	20	n/a	n/a	n/a	n/a
3054.3	n/a	WORD	1527150	wordpools/wasnorm_wordpool_576.txt	LTP278	ltpFR2	15	14	SCISSORS	1250	n/a	n/a	0	0	0
3056.944	n/a	WORD	1528472	wordpools/wasnorm_wordpool_576.txt	LTP278	ltpFR2	15	14	LAKE	796	n/a	n/a	0	0	0
3059.486	n/a	WORD	1529743	wordpools/wasnorm_wordpool_576.txt	LTP278	ltpFR2	15	14	SKIRT	1319	n/a	n/a	0	0	0
3062.264	n/a	WORD	1531132	wordpools/wasnorm_wordpool_576.txt	LTP278	ltpFR2	15	14	KIDNEY	776	n/a	n/a	0	0	0
3064.988	n/a	WORD	1532494	wordpools/wasnorm_wordpool_576.txt	LTP278	ltpFR2	15	14	BANJO	82	n/a	n/a	0	0	0
3067.534	n/a	WORD	1533767	wordpools/wasnorm_wordpool_576.txt	LTP278	ltpFR2	15	14	ASIA	46	n/a	n/a	0	0	0
3070.278	n/a	WORD	1535139	wordpools/wasnorm_wordpool_576.txt	LTP278	ltpFR2	15	14	JAPAN	749	n/a	n/a	0	0	0
3073.022	n/a	WORD	1536511	wordpools/wasnorm_wordpool_576.txt	LTP278	ltpFR2	15	14	LEADER	807	n/a	n/a	0	0	0
3075.714	n/a	WORD	1537857	wordpools/wasnorm_wordpool_576.txt	LTP278	ltpFR2	15	14	COLLEGE	346	n/a	n/a	0	0	0
3078.142	n/a	WORD	1539071	wordpools/wasnorm_wordpool_576.txt	LTP278	ltpFR2	15	14	TART	1436	n/a	n/a	0	0	0
3080.568	n/a	WORD	1540284	wordpools/wasnorm_wordpool_576.txt	LTP278	ltpFR2	15	14	GAVEL	627	n/a	n/a	0	0	0
3083.228	n/a	WORD	1541614	wordpools/wasnorm_wordpool_576.txt	LTP278	ltpFR2	15	14	BRANCH	168	n/a	n/a	0	0	0
3085.938	n/a	WORD	1542969	wordpools/wasnorm_wordpool_576.txt	LTP278	ltpFR2	15	14	SPIDER	1351	n/a	n/a	0	0	0
3088.414	n/a	WORD	1544207	wordpools/wasnorm_wordpool_576.txt	LTP278	ltpFR2	15	14	DRINK	498	n/a	n/a	0	0	0
3091.024	n/a	WORD	1545512	wordpools/wasnorm_wordpool_576.txt	LTP278	ltpFR2	15	14	SWIMMER	1420	n/a	n/a	0	0	0
3093.636	n/a	WORD	1546818	wordpools/wasnorm_wordpool_576.txt	LTP278	ltpFR2	15	14	TEACHER	1440	n/a	n/a	0	0	0
3096.344	n/a	WORD	1548172	wordpools/wasnorm_wordpool_576.txt	LTP278	ltpFR2	15	14	BUBBLE	183	n/a	n/a	0	0	0
3099.088	n/a	WORD	1549544	wordpools/wasnorm_wordpool_576.txt	LTP278	ltpFR2	15	14	ROBOT	1200	n/a	n/a	0	0	0
3101.632	n/a	WORD	1550816	wordpools/wasnorm_wordpool_576.txt	LTP278	ltpFR2	15	14	XEROX	1628	n/a	n/a	0	0	0
3104.208	n/a	WORD	1552104	wordpools/wasnorm_wordpool_576.txt	LTP278	ltpFR2	15	14	THRONE	1461	n/a	n/a	0	0	0
3106.968	n/a	WORD	1553484	wordpools/wasnorm_wordpool_576.txt	LTP278	ltpFR2	15	14	CONCERT	360	n/a	n/a	0	0	0
3109.544	n/a	WORD	1554772	wordpools/wasnorm_wordpool_576.txt	LTP278	ltpFR2	15	14	SUMMIT	1405	n/a	n/a	0	0	0
3112.004	n/a	WORD	1556002	wordpools/wasnorm_wordpool_576.txt	LTP278	ltpFR2	15	14	CLIMBER	323	n/a	n/a	0	0	0
3114.616	n/a	WORD	1557308	wordpools/wasnorm_wordpool_576.txt	LTP278	ltpFR2	15	14	SLUG	1329	n/a	n/a	0	0	0
3116.22	n/a	START	1558110	n/a	LTP278	ltpFR2	15	n/a	n/a	n/a	21	n/a	n/a	n/a	n/a
3117.314	n/a	DISTRACTOR	1558657	n/a	LTP278	ltpFR2	15	14	n/a	n/a	n/a	n/a	0	0	0
3117.324	n/a	PROB	1558662	n/a	LTP278	ltpFR2	15	n/a	n/a	n/a	21	13	3	7	3
3119.146	n/a	PROB	1559573	n/a	LTP278	ltpFR2	15	n/a	n/a	n/a	21	16	3	9	4
3121.756	n/a	PROB	1560878	n/a	LTP278	ltpFR2	15	n/a	n/a	n/a	21	16	6	1	9
3124.064	n/a	PROB	1562032	n/a	LTP278	ltpFR2	15	n/a	n/a	n/a	21	13	1	9	3
3125.552	n/a	PROB	1562776	n/a	LTP278	ltpFR2	15	n/a	n/a	n/a	21	14	5	5	4
3126.674	n/a	PROB	1563337	n/a	LTP278	ltpFR2	15	n/a	n/a	n/a	21	13	2	8	3
3128.082	n/a	PROB	1564041	n/a	LTP278	ltpFR2	15	n/a	n/a	n/a	21	22	8	5	9
3131.844	n/a	PROB	1565922	n/a	LTP278	ltpFR2	15	n/a	n/a	n/a	21	15	1	5	9
3133.5	n/a	PROB	1566750	n/a	LTP278	ltpFR2	15	n/a	n/a	n/a	21	16	8	4	4
3135.006	n/a	PROB	1567503	n/a	LTP278	ltpFR2	15	n/a	n/a	n/a	21	20	9	4	7
3137.768	n/a	PROB	1568884	n/a	LTP278	ltpFR2	15	n/a	n/a	n/a	21	14	6	3	5
3140.048	n/a	STOP	1570024	n/a	LTP278	ltpFR2	15	n/a	n/a	n/a	21	n/a	n/a	n/a	n/a
3142.102	n/a	REC_START	1571051	n/a	LTP278	ltpFR2	15	14	n/a	n/a	n/a	n/a	0	0	0
3143.292	n/a	REC_WORD	1571646	wordpools/wasnorm_wordpool_576.txt	LTP278	ltpFR2	15	14	XEROX	1628	n/a	n/a	0	0	0
3144.118	n/a	REC_WORD	1572059	wordpools/wasnorm_wordpool_576.txt	LTP278	ltpFR2	15	14	THRONE	1461	n/a	n/a	0	0	0
3144.812	n/a	REC_WORD	1572406	wordpools/wasnorm_wordpool_576.txt	LTP278	ltpFR2	15	14	SUMMIT	1405	n/a	n/a	0	0	0
3145.442	n/a	REC_WORD	1572721	wordpools/wasnorm_wordpool_576.txt	LTP278	ltpFR2	15	14	CLIMBER	323	n/a	n/a	0	0	0
3146.064	n/a	REC_WORD	1573032	wordpools/wasnorm_wordpool_576.txt	LTP278	ltpFR2	15	14	SLUG	1329	n/a	n/a	0	0	0
3146.98	n/a	REC_WORD	1573490	wordpools/wasnorm_wordpool_576.txt	LTP278	ltpFR2	15	14	CONCERT	360	n/a	n/a	0	0	0
3233.184	n/a	WORD	1616592	wordpools/wasnorm_wordpool_576.txt	LTP278	ltpFR2	15	15	COUNTRY	388	n/a	n/a	0	0	0
3235.928	n/a	WORD	1617964	wordpools/wasnorm_wordpool_576.txt	LTP278	ltpFR2	15	15	LONDON	843	n/a	n/a	0	0	0
3238.638	n/a	WORD	1619319	wordpools/wasnorm_wordpool_576.txt	LTP278	ltpFR2	15	15	JUDGE	761	n/a	n/a	0	0	0
3241.332	n/a	WORD	1620666	wordpools/wasnorm_wordpool_576.txt	LTP278	ltpFR2	15	15	PIGEON	1065	n/a	n/a	0	0	0
3243.792	n/a	WORD	1621896	wordpools/wasnorm_wordpool_576.txt	LTP278	ltpFR2	15	15	GRAVEL	659	n/a	n/a	0	0	0
3246.498	n/a	WORD	1623249	wordpools/wasnorm_wordpool_576.txt	LTP278	ltpFR2	15	15	SNAKE	1333	n/a	n/a	0	0	0
3249.312	n/a	WORD	1624656	wordpools/wasnorm_wordpool_576.txt	LTP278	ltpFR2	15	15	SLIDE	1326	n/a	n/a	0	0	0
3252.072	n/a	WORD	1626036	wordpools/wasnorm_wordpool_576.txt	LTP278	ltpFR2	15	15	VENUS	1557	n/a	n/a	0	0	0
3254.816	n/a	WORD	1627408	wordpools/wasnorm_wordpool_576.txt	LTP278	ltpFR2	15	15	PENGUIN	1044	n/a	n/a	0	0	0
3257.292	n/a	WORD	1628646	wordpools/wasnorm_wordpool_576.txt	LTP278	ltpFR2	15	15	POSTAGE	1113	n/a	n/a	0	0	0
3259.966	n/a	WORD	1629983	wordpools/wasnorm_wordpool_576.txt	LTP278	ltpFR2	15	15	BINDER	127	n/a	n/a	0	0	0
3262.58	n/a	WORD	1631290	wordpools/wasnorm_wordpool_576.txt	LTP278	ltpFR2	15	15	QUAIL	1147	n/a	n/a	0	0	0
3265.29	n/a	WORD	1632645	wordpools/wasnorm_wordpool_576.txt	LTP278	ltpFR2	15	15	BLOUSE	139	n/a	n/a	0	0	0
3267.966	n/a	WORD	1633983	wordpools/wasnorm_wordpool_576.txt	LTP278	ltpFR2	15	15	SHORTS	1293	n/a	n/a	0	0	0
3270.46	n/a	WORD	1635230	wordpools/wasnorm_wordpool_576.txt	LTP278	ltpFR2	15	15	CHAMPAGNE	278	n/a	n/a	0	0	0
3273.136	n/a	WORD	1636568	wordpools/wasnorm_wordpool_576.txt	LTP278	ltpFR2	15	15	HERO	706	n/a	n/a	0	0	0
3275.596	n/a	WORD	1637798	wordpools/wasnorm_wordpool_576.txt	LTP278	ltpFR2	15	15	ARMY	39	n/a	n/a	0	0	0
3278.322	n/a	WORD	1639161	wordpools/wasnorm_wordpool_576.txt	LTP278	ltpFR2	15	15	MISTER	901	n/a	n/a	0	0	0
3280.88	n/a	WORD	1640440	wordpools/wasnorm_wordpool_576.txt	LTP278	ltpFR2	15	15	OMELET	976	n/a	n/a	0	0	0
3283.678	n/a	WORD	1641839	wordpools/wasnorm_wordpool_576.txt	LTP278	ltpFR2	15	15	REBEL	1172	n/a	n/a	0	0	0
3286.254	n/a	WORD	1643127	wordpools/wasnorm_wordpool_576.txt	LTP278	ltpFR2	15	15	HIGHWAY	707	n/a	n/a	0	0	0
3288.68	n/a	WORD	1644340	wordpools/wasnorm_wordpool_576.txt	LTP278	ltpFR2	15	15	DAUGHTER	442	n/a	n/a	0	0	0
3291.27	n/a	WORD	1645635	wordpools/wasnorm_wordpool_576.txt	LTP278	ltpFR2	15	15	BACKBONE	66	n/a	n/a	0	0	0
3293.832	n/a	WORD	1646916	wordpools/wasnorm_wordpool_576.txt	LTP278	ltpFR2	15	15	AIRPLANE	12	n/a	n/a	0	0	0
3295.438	n/a	START	1647719	n/a	LTP278	ltpFR2	15	n/a	n/a	n/a	22	n/a	n/a	n/a	n/a
3296.628	n/a	DISTRACTOR	1648314	n/a	LTP278	ltpFR2	15	15	n/a	n/a	n/a	n/a	0	0	0
3296.644	n/a	PROB	1648322	n/a	LTP278	ltpFR2	15	n/a	n/a	n/a	22	25	9	7	9
3298.466	n/a	PROB	1649233	n/a	LTP278	ltpFR2	15	n/a	n/a	n/a	22	12	6	4	2
3299.954	n/a	PROB	1649977	n/a	LTP278	ltpFR2	15	n/a	n/a	n/a	22	22	4	9	9
3302.228	n/a	PROB	1651114	n/a	LTP278	ltpFR2	15	n/a	n/a	n/a	22	13	6	3	4
3304.002	n/a	PROB	1652001	n/a	LTP278	ltpFR2	15	n/a	n/a	n/a	22	15	3	5	7
3305.726	n/a	PROB	1652863	n/a	LTP278	ltpFR2	15	n/a	n/a	n/a	22	12	8	1	2
3307.014	n/a	PROB	1653507	n/a	LTP278	ltpFR2	15	n/a	n/a	n/a	22	20	6	5	9
3309.84	n/a	PROB	1654920	n/a	LTP278	ltpFR2	15	n/a	n/a	n/a	22	21	6	8	7
3312.702	n/a	PROB	1656351	n/a	LTP278	ltpFR2	15	n/a	n/a	n/a	22	19	7	9	3
3315.128	n/a	PROB	1657564	n/a	LTP278	ltpFR2	15	n/a	n/a	n/a	22	11	2	3	6
3319.44	n/a	STOP	1659720	n/a	LTP278	ltpFR2	15	n/a	n/a	n/a	22	n/a	n/a	n/a	n/a
3321.204	n/a	REC_START	1660602	n/a	LTP278	ltpFR2	15	15	n/a	n/a	n/a	n/a	0	0	0
3322.582	n/a	REC_WORD	1661291	wordpools/wasnorm_wordpool_576.txt	LTP278	ltpFR2	15	15	COUNTRY	388	n/a	n/a	0	0	0
3323.712	n/a	REC_WORD	1661856	wordpools/wasnorm_wordpool_576.txt	LTP278	ltpFR2	15	15	LONDON	843	n/a	n/a	0	0	0
3324.73	n/a	REC_WORD	1662365	wordpools/wasnorm_wordpool_576.txt	LTP278	ltpFR2	15	15	PIGEON	1065	n/a	n/a	0	0	0
3325.642	n/a	REC_WORD	1662821	wordpools/wasnorm_wordpool_576.txt	LTP278	ltpFR2	15	15	AIRPLANE	12	n/a	n/a	0	0	0
3326.604	n/a	REC_WORD	1663302	wordpools/wasnorm_wordpool_576.txt	LTP278	ltpFR2	15	15	BACKBONE	66	n/a	n/a	0	0	0
3412.25	n/a	WORD	1706125	wordpools/wasnorm_wordpool_576.txt	LTP278	ltpFR2	15	16	SUNRISE	1407	n/a	n/a	0	0	0
3414.73	n/a	WORD	1707365	wordpools/wasnorm_wordpool_576.txt	LTP278	ltpFR2	15	16	HORSE	719	n/a	n/a	0	0	0
3417.154	n/a	WORD	1708577	wordpools/wasnorm_wordpool_576.txt	LTP278	ltpFR2	15	16	FOREST	593	n/a	n/a	0	0	0
3419.664	n/a	WORD	1709832	wordpools/wasnorm_wordpool_576.txt	LTP278	ltpFR2	15	16	PLAZA	1088	n/a	n/a	0	0	0
3422.39	n/a	WORD	1711195	wordpools/wasnorm_wordpool_576.txt	LTP278	ltpFR2	15	16	WOMAN	1620	n/a	n/a	0	0	0
3424.816	n/a	WORD	1712408	wordpools/wasnorm_wordpool_576.txt	LTP278	ltpFR2	15	16	CYCLONE	431	n/a	n/a	0	0	0
3427.628	n/a	WORD	1713814	wordpools/wasnorm_wordpool_576.txt	LTP278	ltpFR2	15	16	FLESH	579	n/a	n/a	0	0	0
3430.336	n/a	WORD	1715168	wordpools/wasnorm_wordpool_576.txt	LTP278	ltpFR2	15	16	HEART	697	n/a	n/a	0	0	0
3432.796	n/a	WORD	1716398	wordpools/wasnorm_wordpool_576.txt	LTP278	ltpFR2	15	16	BRAKE	166	n/a	n/a	0	0	0
3435.49	n/a	WORD	1717745	wordpools/wasnorm_wordpool_576.txt	LTP278	ltpFR2	15	16	CLAMP	316	n/a	n/a	0	0	0
3438.0	n/a	WORD	1719000	wordpools/wasnorm_wordpool_576.txt	LTP278	ltpFR2	15	16	BUGGY	188	n/a	n/a	0	0	0
3440.576	n/a	WORD	1720288	wordpools/wasnorm_wordpool_576.txt	LTP278	ltpFR2	15	16	SPARROW	1347	n/a	n/a	0	0	0
3443.12	n/a	WORD	1721560	wordpools/wasnorm_wordpool_576.txt	LTP278	ltpFR2	15	16	ZEBRA	1635	n/a	n/a	0	0	0
3445.862	n/a	WORD	1722931	wordpools/wasnorm_wordpool_576.txt	LTP278	ltpFR2	15	16	CARRIAGE	248	n/a	n/a	0	0	0
3448.436	n/a	WORD	1724218	wordpools/wasnorm_wordpool_576.txt	LTP278	ltpFR2	15	16	TYPIST	1532	n/a	n/a	0	0	0
3451.168	n/a	WORD	1725584	wordpools/wasnorm_wordpool_576.txt	LTP278	ltpFR2	15	16	OINTMENT	974	n/a	n/a	0	0	0
3453.844	n/a	WORD	1726922	wordpools/wasnorm_wordpool_576.txt	LTP278	ltpFR2	15	16	PRIMATE	1123	n/a	n/a	0	0	0
3456.354	n/a	WORD	1728177	wordpools/wasnorm_wordpool_576.txt	LTP278	ltpFR2	15	16	MACHINE	852	n/a	n/a	0	0	0
3459.01	n/a	WORD	1729505	wordpools/wasnorm_wordpool_576.txt	LTP278	ltpFR2	15	16	LACE	792	n/a	n/a	0	0	0
3461.804	n/a	WORD	1730902	wordpools/wasnorm_wordpool_576.txt	LTP278	ltpFR2	15	16	DASHBOARD	441	n/a	n/a	0	0	0
3464.518	n/a	WORD	1732259	wordpools/wasnorm_wordpool_576.txt	LTP278	ltpFR2	15	16	CONTRACT	368	n/a	n/a	0	0	0
3466.976	n/a	WORD	1733488	wordpools/wasnorm_wordpool_576.txt	LTP278	ltpFR2	15	16	MONEY	908	n/a	n/a	0	0	0
3469.47	n/a	WORD	1734735	wordpools/wasnorm_wordpool_576.txt	LTP278	ltpFR2	15	16	CELLAR	267	n/a	n/a	0	0	0
3472.03	n/a	WORD	1736015	wordpools/wasnorm_wordpool_576.txt	LTP278	ltpFR2	15	16	BLOCKADE	137	n/a	n/a	0	0	0
3473.638	n/a	START	1736819	n/a	LTP278	ltpFR2	15	n/a	n/a	n/a	23	n/a	n/a	n/a	n/a
3474.602	n/a	DISTRACTOR	1737301	n/a	LTP278	ltpFR2	15	16	n/a	n/a	n/a	n/a	0	0	0
3474.608	n/a	PROB	1737304	n/a	LTP278	ltpFR2	15	n/a	n/a	n/a	23	7	2	4	1
3476.862	n/a	PROB	1738431	n/a	LTP278	ltpFR2	15	n/a	n/a	n/a	23	16	2	6	8
3478.72	n/a	PROB	1739360	n/a	LTP278	ltpFR2	15	n/a	n/a	n/a	23	18	8	3	7
3480.844	n/a	PROB	1740422	n/a	LTP278	ltpFR2	15	n/a	n/a	n/a	23	12	3	8	1
3483.006	n/a	PROB	1741503	n/a	LTP278	ltpFR2	15	n/a	n/a	n/a	23	7	3	2	2
3484.374	n/a	PROB	1742187	n/a	LTP278	ltpFR2	15	n/a	n/a	n/a	23	19	3	8	8
3486.232	n/a	PROB	1743116	n/a	LTP278	ltpFR2	15	n/a	n/a	n/a	23	11	7	3	1
3487.406	n/a	PROB	1743703	n/a	LTP278	ltpFR2	15	n/a	n/a	n/a	23	19	6	6	7
3489.026	n/a	PROB	1744513	n/a	LTP278	ltpFR2	15	n/a	n/a	n/a	23	14	8	3	3
3490.464	n/a	PROB	1745232	n/a	LTP278	ltpFR2	15	n/a	n/a	n/a	23	16	6	3	7
3497.638	n/a	STOP	1748819	n/a	LTP278	ltpFR2	15	n/a	n/a	n/a	23	n/a	n/a	n/a	n/a
3499.552	n/a	REC_START	1749776	n/a	LTP278	ltpFR2	15	16	n/a	n/a	n/a	n/a	0	0	0
3500.552	n/a	REC_WORD	1750276	wordpools/wasnorm_wordpool_576.txt	LTP278	ltpFR2	15	16	BLOCKADE	137	n/a	n/a	0	0	0
3501.696	n/a	REC_WORD	1750848	wordpools/wasnorm_wordpool_576.txt	LTP278	ltpFR2	15	16	CELLAR	267	n/a	n/a	0	0	0
3505.01	n/a	REC_WORD	1752505	wordpools/wasnorm_wordpool_576.txt	LTP278	ltpFR2	15	16	FOREST	593	n/a	n/a	0	0	0
3576.342	n/a	REST_REWET	1788171	n/a	LTP278	ltpFR2	15	16	n/a	n/a	n/a	n/a	0	0	0
3891.684	n/a	DISTRACTOR	1945842	n/a	LTP278	ltpFR2	15	17	n/a	n/a	n/a	n/a	0	0	0
3891.686	n/a	START	1945843	n/a	LTP278	ltpFR2	15	n/a	n/a	n/a	24	n/a	n/a	n/a	n/a
3891.734	n/a	PROB	1945867	n/a	LTP278	ltpFR2	15	n/a	n/a	n/a	24	16	1	6	9
3893.89	n/a	PROB	1946945	n/a	LTP278	ltpFR2	15	n/a	n/a	n/a	24	11	2	6	3
3895.612	n/a	PROB	1947806	n/a	LTP278	ltpFR2	15	n/a	n/a	n/a	24	16	1	9	6
3899.16	n/a	PROB	1949580	n/a	LTP278	ltpFR2	15	n/a	n/a	n/a	24	10	3	6	1
3900.348	n/a	PROB	1950174	n/a	LTP278	ltpFR2	15	n/a	n/a	n/a	24	16	1	9	6
3901.804	n/a	PROB	1950902	n/a	LTP278	ltpFR2	15	n/a	n/a	n/a	24	17	9	4	4
3904.948	n/a	PROB	1952474	n/a	LTP278	ltpFR2	15	n/a	n/a	n/a	24	19	9	7	3
3906.304	n/a	PROB	1953152	n/a	LTP278	ltpFR2	15	n/a	n/a	n/a	24	22	8	9	5
3909.182	n/a	PROB	1954591	n/a	LTP278	ltpFR2	15	n/a	n/a	n/a	24	19	6	6	7
3911.206	n/a	PROB	1955603	n/a	LTP278	ltpFR2	15	n/a	n/a	n/a	24	12	7	2	3
3915.686	n/a	STOP	1957843	n/a	LTP278	ltpFR2	15	n/a	n/a	n/a	24	n/a	n/a	n/a	n/a
3916.73	n/a	WORD	1958365	wordpools/wasnorm_wordpool_576.txt	LTP278	ltpFR2	15	17	BELLY	119	n/a	n/a	0	0	0
3919.156	n/a	WORD	1959578	wordpools/wasnorm_wordpool_576.txt	LTP278	ltpFR2	15	17	WRENCH	1625	n/a	n/a	0	0	0
3921.616	n/a	WORD	1960808	wordpools/wasnorm_wordpool_576.txt	LTP278	ltpFR2	15	17	PUPPY	1144	n/a	n/a	0	0	0
3924.258	n/a	WORD	1962129	wordpools/wasnorm_wordpool_576.txt	LTP278	ltpFR2	15	17	BEAVER	109	n/a	n/a	0	0	0
3926.936	n/a	WORD	1963468	wordpools/wasnorm_wordpool_576.txt	LTP278	ltpFR2	15	17	LION	827	n/a	n/a	0	0	0
3929.426	n/a	WORD	1964713	wordpools/wasnorm_wordpool_576.txt	LTP278	ltpFR2	15	17	SIDEWALK	1303	n/a	n/a	0	0	0
3931.87	n/a	WORD	1965935	wordpools/wasnorm_wordpool_576.txt	LTP278	ltpFR2	15	17	ARM	38	n/a	n/a	0	0	0
3934.58	n/a	WORD	1967290	wordpools/wasnorm_wordpool_576.txt	LTP278	ltpFR2	15	17	LUGGAGE	847	n/a	n/a	0	0	0
3937.108	n/a	WORD	1968554	wordpools/wasnorm_wordpool_576.txt	LTP278	ltpFR2	15	17	FIREPLACE	570	n/a	n/a	0	0	0
3939.584	n/a	WORD	1969792	wordpools/wasnorm_wordpool_576.txt	LTP278	ltpFR2	15	17	JUNGLE	764	n/a	n/a	0	0	0
3942.144	n/a	WORD	1971072	wordpools/wasnorm_wordpool_576.txt	LTP278	ltpFR2	15	17	FRANCE	601	n/a	n/a	0	0	0
3944.754	n/a	WORD	1972377	wordpools/wasnorm_wordpool_576.txt	LTP278	ltpFR2	15	17	CABIN	211	n/a	n/a	0	0	0
3947.244	n/a	WORD	1973622	wordpools/wasnorm_wordpool_576.txt	LTP278	ltpFR2	15	17	BOARD	143	n/a	n/a	0	0	0
3949.872	n/a	WORD	1974936	wordpools/wasnorm_wordpool_576.txt	LTP278	ltpFR2	15	17	LEG	809	n/a	n/a	0	0	0
3952.6	n/a	WORD	1976300	wordpools/wasnorm_wordpool_576.txt	LTP278	ltpFR2	15	17	STAKE	1368	n/a	n/a	0	0	0
3955.092	n/a	WORD	1977546	wordpools/wasnorm_wordpool_576.txt	LTP278	ltpFR2	15	17	STATUE	1374	n/a	n/a	0	0	0
3957.802	n/a	WORD	1978901	wordpools/wasnorm_wordpool_576.txt	LTP278	ltpFR2	15	17	BIKE	125	n/a	n/a	0	0	0
3960.53	n/a	WORD	1980265	wordpools/wasnorm_wordpool_576.txt	LTP278	ltpFR2	15	17	PEDAL	1037	n/a	n/a	0	0	0
3962.99	n/a	WORD	1981495	wordpools/wasnorm_wordpool_576.txt	LTP278	ltpFR2	15	17	FOX	598	n/a	n/a	0	0	0
3965.482	n/a	WORD	1982741	wordpools/wasnorm_wordpool_576.txt	LTP278	ltpFR2	15	17	HOUND	724	n/a	n/a	0	0	0
3968.126	n/a	WORD	1984063	wordpools/wasnorm_wordpool_576.txt	LTP278	ltpFR2	15	17	CATTLE	261	n/a	n/a	0	0	0
3970.87	n/a	WORD	1985435	wordpools/wasnorm_wordpool_576.txt	LTP278	ltpFR2	15	17	WRIST	1626	n/a	n/a	0	0	0
3973.312	n/a	WORD	1986656	wordpools/wasnorm_wordpool_576.txt	LTP278	ltpFR2	15	17	COUNTY	389	n/a	n/a	0	0	0
3975.836	n/a	WORD	1987918	wordpools/wasnorm_wordpool_576.txt	LTP278	ltpFR2	15	17	TUTU	1524	n/a	n/a	0	0	0
3977.446	n/a	START	1988723	n/a	LTP278	ltpFR2	15	n/a	n/a	n/a	25	n/a	n/a	n/a	n/a
3978.512	n/a	DISTRACTOR	1989256	n/a	LTP278	ltpFR2	15	17	n/a	n/a	n/a	n/a	0	0	0
3978.53	n/a	PROB	1989265	n/a	LTP278	ltpFR2	15	n/a	n/a	n/a	25	13	4	2	7
3980.706	n/a	PROB	1990353	n/a	LTP278	ltpFR2	15	n/a	n/a	n/a	25	14	5	5	4
3982.16	n/a	PROB	1991080	n/a	LTP278	ltpFR2	15	n/a	n/a	n/a	25	17	5	5	7
3983.498	n/a	PROB	1991749	n/a	LTP278	ltpFR2	15	n/a	n/a	n/a	25	22	4	9	9
3985.576	n/a	PROB	1992788	n/a	LTP278	ltpFR2	15	n/a	n/a	n/a	25	16	2	9	5
3987.584	n/a	PROB	1993792	n/a	LTP278	ltpFR2	15	n/a	n/a	n/a	25	20	6	6	8
3989.354	n/a	PROB	1994677	n/a	LTP278	ltpFR2	15	n/a	n/a	n/a	25	10	1	7	2
3990.778	n/a	PROB	1995389	n/a	LTP278	ltpFR2	15	n/a	n/a	n/a	25	16	6	2	8
3992.248	n/a	PROB	1996124	n/a	LTP278	ltpFR2	15	n/a	n/a	n/a	25	17	4	8	5
3995.244	n/a	PROB	1997622	n/a	LTP278	ltpFR2	15	n/a	n/a	n/a	25	12	4	2	6
3996.75	n/a	PROB	1998375	n/a	LTP278	ltpFR2	15	n/a	n/a	n/a	25	10	1	2	7
3997.97	n/a	PROB	1998985	n/a	LTP278	ltpFR2	15	n/a	n/a	n/a	25	14	5	5	4
3999.208	n/a	PROB	1999604	n/a	LTP278	ltpFR2	15	n/a	n/a	n/a	25	9	3	4	2
4000.926	n/a	STOP	2000463	n/a	LTP278	ltpFR2	15	n/a	n/a	n/a	25	n/a	n/a	n/a	n/a
4003.26	n/a	REC_START	2001630	n/a	LTP278	ltpFR2	15	17	n/a	n/a	n/a	n/a	0	0	0
4003.92	n/a	REC_WORD	2001960	wordpools/wasnorm_wordpool_576.txt	LTP278	ltpFR2	15	17	BELLY	119	n/a	n/a	0	0	0
4004.59	n/a	REC_WORD	2002295	wordpools/wasnorm_wordpool_576.txt	LTP278	ltpFR2	15	17	WRENCH	1625	n/a	n/a	0	0	0
4025.52	n/a	REC_WORD	2012760	wordpools/wasnorm_wordpool_576.txt	LTP278	ltpFR2	15	17	FOX	598	n/a	n/a	0	0	0
4033.21	n/a	REC_WORD	2016605	wordpools/wasnorm_wordpool_576.txt	LTP278	ltpFR2	15	17	PEDAL	1037	n/a	n/a	0	0	0
4033.986	n/a	REC_WORD	2016993	wordpools/wasnorm_wordpool_576.txt	LTP278	ltpFR2	15	17	BIKE	125	n/a	n/a	0	0	0
4094.308	n/a	DISTRACTOR	2047154	n/a	LTP278	ltpFR2	15	18	n/a	n/a	n/a	n/a	0	0	0
4094.308	n/a	START	2047154	n/a	LTP278	ltpFR2	15	n/a	n/a	n/a	26	n/a	n/a	n/a	n/a
4094.358	n/a	PROB	2047179	n/a	LTP278	ltpFR2	15	n/a	n/a	n/a	26	26	8	9	9
4096.366	n/a	PROB	2048183	n/a	LTP278	ltpFR2	15	n/a	n/a	n/a	26	14	2	8	4
4097.804	n/a	PROB	2048902	n/a	LTP278	ltpFR2	15	n/a	n/a	n/a	26	15	5	7	3
4099.976	n/a	PROB	2049988	n/a	LTP278	ltpFR2	15	n/a	n/a	n/a	26	23	9	7	7
4102.236	n/a	PROB	2051118	n/a	LTP278	ltpFR2	15	n/a	n/a	n/a	26	13	3	3	7
4103.59	n/a	PROB	2051795	n/a	LTP278	ltpFR2	15	n/a	n/a	n/a	26	16	3	5	8
4106.202	n/a	PROB	2053101	n/a	LTP278	ltpFR2	15	n/a	n/a	n/a	26	22	7	6	9
4107.924	n/a	PROB	2053962	n/a	LTP278	ltpFR2	15	n/a	n/a	n/a	26	16	1	7	4
4109.632	n/a	PROB	2054816	n/a	LTP278	ltpFR2	15	n/a	n/a	n/a	26	15	8	8	1
4118.308	n/a	STOP	2059154	n/a	LTP278	ltpFR2	15	n/a	n/a	n/a	26	n/a	n/a	n/a	n/a
4119.304	n/a	WORD	2059652	wordpools/wasnorm_wordpool_576.txt	LTP278	ltpFR2	15	18	HEDGE	699	n/a	n/a	0	0	0
4121.98	n/a	WORD	2060990	wordpools/wasnorm_wordpool_576.txt	LTP278	ltpFR2	15	18	TWIG	1527	n/a	n/a	0	0	0
4124.556	n/a	WORD	2062278	wordpools/wasnorm_wordpool_576.txt	LTP278	ltpFR2	15	18	KEEPER	769	n/a	n/a	0	0	0
4127.148	n/a	WORD	2063574	wordpools/wasnorm_wordpool_576.txt	LTP278	ltpFR2	15	18	TOMBSTONE	1478	n/a	n/a	0	0	0
4129.792	n/a	WORD	2064896	wordpools/wasnorm_wordpool_576.txt	LTP278	ltpFR2	15	18	PISTON	1076	n/a	n/a	0	0	0
4132.354	n/a	WORD	2066177	wordpools/wasnorm_wordpool_576.txt	LTP278	ltpFR2	15	18	GLOVE	642	n/a	n/a	0	0	0
4135.048	n/a	WORD	2067524	wordpools/wasnorm_wordpool_576.txt	LTP278	ltpFR2	15	18	HAND	683	n/a	n/a	0	0	0
4137.59	n/a	WORD	2068795	wordpools/wasnorm_wordpool_576.txt	LTP278	ltpFR2	15	18	PLASTER	1085	n/a	n/a	0	0	0
4140.15	n/a	WORD	2070075	wordpools/wasnorm_wordpool_576.txt	LTP278	ltpFR2	15	18	GARBAGE	622	n/a	n/a	0	0	0
4142.91	n/a	WORD	2071455	wordpools/wasnorm_wordpool_576.txt	LTP278	ltpFR2	15	18	PEANUT	1032	n/a	n/a	0	0	0
4145.504	n/a	WORD	2072752	wordpools/wasnorm_wordpool_576.txt	LTP278	ltpFR2	15	18	FARMER	553	n/a	n/a	0	0	0
4148.164	n/a	WORD	2074082	wordpools/wasnorm_wordpool_576.txt	LTP278	ltpFR2	15	18	BRICK	172	n/a	n/a	0	0	0
4150.974	n/a	WORD	2075487	wordpools/wasnorm_wordpool_576.txt	LTP278	ltpFR2	15	18	GANGSTER	620	n/a	n/a	0	0	0
4153.652	n/a	WORD	2076826	wordpools/wasnorm_wordpool_576.txt	LTP278	ltpFR2	15	18	PLATE	1086	n/a	n/a	0	0	0
4156.212	n/a	WORD	2078106	wordpools/wasnorm_wordpool_576.txt	LTP278	ltpFR2	15	18	RUST	1219	n/a	n/a	0	0	0
4158.772	n/a	WORD	2079386	wordpools/wasnorm_wordpool_576.txt	LTP278	ltpFR2	15	18	HOOK	715	n/a	n/a	0	0	0
4161.512	n/a	WORD	2080756	wordpools/wasnorm_wordpool_576.txt	LTP278	ltpFR2	15	18	PASTRY	1022	n/a	n/a	0	0	0
4164.192	n/a	WORD	2082096	wordpools/wasnorm_wordpool_576.txt	LTP278	ltpFR2	15	18	RIVER	1194	n/a	n/a	0	0	0
4166.834	n/a	WORD	2083417	wordpools/wasnorm_wordpool_576.txt	LTP278	ltpFR2	15	18	COOKBOOK	373	n/a	n/a	0	0	0
4169.53	n/a	WORD	2084765	wordpools/wasnorm_wordpool_576.txt	LTP278	ltpFR2	15	18	DRUG	501	n/a	n/a	0	0	0
4172.106	n/a	WORD	2086053	wordpools/wasnorm_wordpool_576.txt	LTP278	ltpFR2	15	18	COCOON	339	n/a	n/a	0	0	0
4174.834	n/a	WORD	2087417	wordpools/wasnorm_wordpool_576.txt	LTP278	ltpFR2	15	18	ACTOR	5	n/a	n/a	0	0	0
4177.642	n/a	WORD	2088821	wordpools/wasnorm_wordpool_576.txt	LTP278	ltpFR2	15	18	SWAMP	1416	n/a	n/a	0	0	0
4180.086	n/a	WORD	2090043	wordpools/wasnorm_wordpool_576.txt	LTP278	ltpFR2	15	18	BOYFRIEND	162	n/a	n/a	0	0	0
4181.694	n/a	START	2090847	n/a	LTP278	ltpFR2	15	n/a	n/a	n/a	27	n/a	n/a	n/a	n/a
4182.89	n/a	DISTRACTOR	2091445	n/a	LTP278	ltpFR2	15	18	n/a	n/a	n/a	n/a	0	0	0
4182.898	n/a	PROB	2091449	n/a	LTP278	ltpFR2	15	n/a	n/a	n/a	27	18	8	5	5
4184.568	n/a	PROB	2092284	n/a	LTP278	ltpFR2	15	n/a	n/a	n/a	27	22	5	8	9
4189.42	n/a	PROB	2094710	n/a	LTP278	ltpFR2	15	n/a	n/a	n/a	27	17	8	2	7
4191.242	n/a	PROB	2095621	n/a	LTP278	ltpFR2	15	n/a	n/a	n/a	27	17	3	9	5
4194.002	n/a	PROB	2097001	n/a	LTP278	ltpFR2	15	n/a	n/a	n/a	27	18	8	6	4
4195.442	n/a	PROB	2097721	n/a	LTP278	ltpFR2	15	n/a	n/a	n/a	27	21	5	8	8
4197.148	n/a	PROB	2098574	n/a	LTP278	ltpFR2	15	n/a	n/a	n/a	27	9	2	3	4
4200.26	n/a	PROB	2100130	n/a	LTP278	ltpFR2	15	n/a	n/a	n/a	27	9	4	1	2
4201.734	n/a	PROB	2100867	n/a	LTP278	ltpFR2	15	n/a	n/a	n/a	27	10	1	4	5
4203.51	n/a	PROB	2101755	n/a	LTP278	ltpFR2	15	n/a	n/a	n/a	27	16	2	8	6
4204.866	n/a	STOP	2102433	n/a	LTP278	ltpFR2	15	n/a	n/a	n/a	27	n/a	n/a	n/a	n/a
4207.526	n/a	REC_START	2103763	n/a	LTP278	ltpFR2	15	18	n/a	n/a	n/a	n/a	0	0	0
4208.578	n/a	REC_WORD	2104289	wordpools/wasnorm_wordpool_576.txt	LTP278	ltpFR2	15	18	BOYFRIEND	162	n/a	n/a	0	0	0
4209.312	n/a	REC_WORD	2104656	wordpools/wasnorm_wordpool_576.txt	LTP278	ltpFR2	15	18	COCOON	339	n/a	n/a	0	0	0
4210.354	n/a	REC_WORD	2105177	wordpools/wasnorm_wordpool_576.txt	LTP278	ltpFR2	15	18	ACTOR	5	n/a	n/a	0	0	0
4298.572	n/a	WORD	2149286	wordpools/wasnorm_wordpool_576.txt	LTP278	ltpFR2	15	19	OX	994	n/a	n/a	0	0	0
4300.996	n/a	WORD	2150498	wordpools/wasnorm_wordpool_576.txt	LTP278	ltpFR2	15	19	MILK	895	n/a	n/a	0	0	0
4303.558	n/a	WORD	2151779	wordpools/wasnorm_wordpool_576.txt	LTP278	ltpFR2	15	19	APPLE	33	n/a	n/a	0	0	0
4306.168	n/a	WORD	2153084	wordpools/wasnorm_wordpool_576.txt	LTP278	ltpFR2	15	19	BEEF	113	n/a	n/a	0	0	0
4308.696	n/a	WORD	2154348	wordpools/wasnorm_wordpool_576.txt	LTP278	ltpFR2	15	19	WINDOW	1611	n/a	n/a	0	0	0
4311.27	n/a	WORD	2155635	wordpools/wasnorm_wordpool_576.txt	LTP278	ltpFR2	15	19	CASHEW	253	n/a	n/a	0	0	0
4313.896	n/a	WORD	2156948	wordpools/wasnorm_wordpool_576.txt	LTP278	ltpFR2	15	19	SUITCASE	1403	n/a	n/a	0	0	0
4316.64	n/a	WORD	2158320	wordpools/wasnorm_wordpool_576.txt	LTP278	ltpFR2	15	19	DANDRUFF	439	n/a	n/a	0	0	0
4319.118	n/a	WORD	2159559	wordpools/wasnorm_wordpool_576.txt	LTP278	ltpFR2	15	19	CITRUS	313	n/a	n/a	0	0	0
4321.712	n/a	WORD	2160856	wordpools/wasnorm_wordpool_576.txt	LTP278	ltpFR2	15	19	GROUND	666	n/a	n/a	0	0	0
4324.438	n/a	WORD	2162219	wordpools/wasnorm_wordpool_576.txt	LTP278	ltpFR2	15	19	COUSIN	392	n/a	n/a	0	0	0
4326.896	n/a	WORD	2163448	wordpools/wasnorm_wordpool_576.txt	LTP278	ltpFR2	15	19	UNCLE	1536	n/a	n/a	0	0	0
4329.658	n/a	WORD	2164829	wordpools/wasnorm_wordpool_576.txt	LTP278	ltpFR2	15	19	LABEL	790	n/a	n/a	0	0	0
4332.218	n/a	WORD	2166109	wordpools/wasnorm_wordpool_576.txt	LTP278	ltpFR2	15	19	CAPTIVE	240	n/a	n/a	0	0	0
4334.662	n/a	WORD	2167331	wordpools/wasnorm_wordpool_576.txt	LTP278	ltpFR2	15	19	SHELF	1280	n/a	n/a	0	0	0
4337.404	n/a	WORD	2168702	wordpools/wasnorm_wordpool_576.txt	LTP278	ltpFR2	15	19	SHRUB	1299	n/a	n/a	0	0	0
4340.198	n/a	WORD	2170099	wordpools/wasnorm_wordpool_576.txt	LTP278	ltpFR2	15	19	APRON	35	n/a	n/a	0	0	0
4342.858	n/a	WORD	2171429	wordpools/wasnorm_wordpool_576.txt	LTP278	ltpFR2	15	19	SCARF	1246	n/a	n/a	0	0	0
4345.484	n/a	WORD	2172742	wordpools/wasnorm_wordpool_576.txt	LTP278	ltpFR2	15	19	SUSPECT	1415	n/a	n/a	0	0	0
4348.296	n/a	WORD	2174148	wordpools/wasnorm_wordpool_576.txt	LTP278	ltpFR2	15	19	SHOULDER	1294	n/a	n/a	0	0	0
4350.774	n/a	WORD	2175387	wordpools/wasnorm_wordpool_576.txt	LTP278	ltpFR2	15	19	PADDING	999	n/a	n/a	0	0	0
4353.416	n/a	WORD	2176708	wordpools/wasnorm_wordpool_576.txt	LTP278	ltpFR2	15	19	UMPIRE	1535	n/a	n/a	0	0	0
4356.19	n/a	WORD	2178095	wordpools/wasnorm_wordpool_576.txt	LTP278	ltpFR2	15	19	JELLY	755	n/a	n/a	0	0	0
4358.804	n/a	WORD	2179402	wordpools/wasnorm_wordpool_576.txt	LTP278	ltpFR2	15	19	PIZZA	1079	n/a	n/a	0	0	0
4360.408	n/a	START	2180204	n/a	LTP278	ltpFR2	15	n/a	n/a	n/a	28	n/a	n/a	n/a	n/a
4361.28	n/a	DISTRACTOR	2180640	n/a	LTP278	ltpFR2	15	19	n/a	n/a	n/a	n/a	0	0	0
4361.296	n/a	PROB	2180648	n/a	LTP278	ltpFR2	15	n/a	n/a	n/a	28	21	1	3	7
4363.2	n/a	PROB	2181600	n/a	LTP278	ltpFR2	15	n/a	n/a	n/a	28	17	5	5	7
4364.706	n/a	PROB	2182353	n/a	LTP278	ltpFR2	15	n/a	n/a	n/a	28	19	1	9	9
4366.412	n/a	PROB	2183206	n/a	LTP278	ltpFR2	15	n/a	n/a	n/a	28	18	5	7	6
4370.31	n/a	PROB	2185155	n/a	LTP278	ltpFR2	15	n/a	n/a	n/a	28	11	1	3	7
4371.87	n/a	PROB	2185935	n/a	LTP278	ltpFR2	15	n/a	n/a	n/a	28	10	4	3	3
4373.388	n/a	PROB	2186694	n/a	LTP278	ltpFR2	15	n/a	n/a	n/a	28	15	6	5	4
4375.128	n/a	PROB	2187564	n/a	LTP278	ltpFR2	15	n/a	n/a	n/a	28	5	1	3	1
4376.3	n/a	PROB	2188150	n/a	LTP278	ltpFR2	15	n/a	n/a	n/a	28	24	8	7	9
4378.576	n/a	PROB	2189288	n/a	LTP278	ltpFR2	15	n/a	n/a	n/a	28	20	9	7	4
4380.9	n/a	PROB	2190450	n/a	LTP278	ltpFR2	15	n/a	n/a	n/a	28	12	4	6	2
4382.776	n/a	PROB	2191388	n/a	LTP278	ltpFR2	15	n/a	n/a	n/a	28	13	4	4	5
4384.346	n/a	STOP	2192173	n/a	LTP278	ltpFR2	15	n/a	n/a	n/a	28	n/a	n/a	n/a	n/a
4386.224	n/a	REC_START	2193112	n/a	LTP278	ltpFR2	15	19	n/a	n/a	n/a	n/a	0	0	0
4388.178	n/a	REC_WORD	2194089	wordpools/wasnorm_wordpool_576.txt	LTP278	ltpFR2	15	19	OX	994	n/a	n/a	0	0	0
4389.036	n/a	REC_WORD	2194518	wordpools/wasnorm_wordpool_576.txt	LTP278	ltpFR2	15	19	APRON	35	n/a	n/a	0	0	0
4390.246	n/a	REC_WORD	2195123	wordpools/wasnorm_wordpool_576.txt	LTP278	ltpFR2	15	19	MILK	895	n/a	n/a	0	0	0
4391.77	n/a	REC_WORD	2195885	wordpools/wasnorm_wordpool_576.txt	LTP278	ltpFR2	15	19	APPLE	33	n/a	n/a	0	0	0
4392.936	n/a	REC_WORD	2196468	wordpools/wasnorm_wordpool_576.txt	LTP278	ltpFR2	15	19	BEEF	113	n/a	n/a	0	0	0
4400.754	n/a	REC_WORD	2200377	wordpools/wasnorm_wordpool_576.txt	LTP278	ltpFR2	15	19	SUSPECT	1415	n/a	n/a	0	0	0
4477.272	n/a	WORD	2238636	wordpools/wasnorm_wordpool_576.txt	LTP278	ltpFR2	15	20	WITNESS	1618	n/a	n/a	0	0	0
4480.048	n/a	WORD	2240024	wordpools/wasnorm_wordpool_576.txt	LTP278	ltpFR2	15	20	COWBOY	395	n/a	n/a	0	0	0
4482.64	n/a	WORD	2241320	wordpools/wasnorm_wordpool_576.txt	LTP278	ltpFR2	15	20	CURTAIN	427	n/a	n/a	0	0	0
4485.286	n/a	WORD	2242643	wordpools/wasnorm_wordpool_576.txt	LTP278	ltpFR2	15	20	DONOR	485	n/a	n/a	0	0	0
4487.83	n/a	WORD	2243915	wordpools/wasnorm_wordpool_576.txt	LTP278	ltpFR2	15	20	BLADE	134	n/a	n/a	0	0	0
4490.422	n/a	WORD	2245211	wordpools/wasnorm_wordpool_576.txt	LTP278	ltpFR2	15	20	BUTCHER	203	n/a	n/a	0	0	0
4492.928	n/a	WORD	2246464	wordpools/wasnorm_wordpool_576.txt	LTP278	ltpFR2	15	20	OZONE	996	n/a	n/a	0	0	0
4495.358	n/a	WORD	2247679	wordpools/wasnorm_wordpool_576.txt	LTP278	ltpFR2	15	20	SCOTCH	1251	n/a	n/a	0	0	0
4497.884	n/a	WORD	2248942	wordpools/wasnorm_wordpool_576.txt	LTP278	ltpFR2	15	20	SODA	1341	n/a	n/a	0	0	0
4500.646	n/a	WORD	2250323	wordpools/wasnorm_wordpool_576.txt	LTP278	ltpFR2	15	20	TUBA	1515	n/a	n/a	0	0	0
4503.42	n/a	WORD	2251710	wordpools/wasnorm_wordpool_576.txt	LTP278	ltpFR2	15	20	FIDDLE	561	n/a	n/a	0	0	0
4506.164	n/a	WORD	2253082	wordpools/wasnorm_wordpool_576.txt	LTP278	ltpFR2	15	20	BLACKBOARD	133	n/a	n/a	0	0	0
4508.794	n/a	WORD	2254397	wordpools/wasnorm_wordpool_576.txt	LTP278	ltpFR2	15	20	SHELTER	1282	n/a	n/a	0	0	0
4511.436	n/a	WORD	2255718	wordpools/wasnorm_wordpool_576.txt	LTP278	ltpFR2	15	20	LILY	821	n/a	n/a	0	0	0
4514.162	n/a	WORD	2257081	wordpools/wasnorm_wordpool_576.txt	LTP278	ltpFR2	15	20	NOMAD	955	n/a	n/a	0	0	0
4516.756	n/a	WORD	2258378	wordpools/wasnorm_wordpool_576.txt	LTP278	ltpFR2	15	20	SPHINX	1349	n/a	n/a	0	0	0
4519.4	n/a	WORD	2259700	wordpools/wasnorm_wordpool_576.txt	LTP278	ltpFR2	15	20	OUTDOORS	987	n/a	n/a	0	0	0
4522.178	n/a	WORD	2261089	wordpools/wasnorm_wordpool_576.txt	LTP278	ltpFR2	15	20	VIRUS	1572	n/a	n/a	0	0	0
4524.804	n/a	WORD	2262402	wordpools/wasnorm_wordpool_576.txt	LTP278	ltpFR2	15	20	MUSTARD	935	n/a	n/a	0	0	0
4527.48	n/a	WORD	2263740	wordpools/wasnorm_wordpool_576.txt	LTP278	ltpFR2	15	20	DRAGON	492	n/a	n/a	0	0	0
4529.99	n/a	WORD	2264995	wordpools/wasnorm_wordpool_576.txt	LTP278	ltpFR2	15	20	POWDER	1117	n/a	n/a	0	0	0
4532.416	n/a	WORD	2266208	wordpools/wasnorm_wordpool_576.txt	LTP278	ltpFR2	15	20	COUCH	386	n/a	n/a	0	0	0
4534.892	n/a	WORD	2267446	wordpools/wasnorm_wordpool_576.txt	LTP278	ltpFR2	15	20	GARDEN	623	n/a	n/a	0	0	0
4537.52	n/a	WORD	2268760	wordpools/wasnorm_wordpool_576.txt	LTP278	ltpFR2	15	20	BALLOON	75	n/a	n/a	0	0	0
4539.126	n/a	START	2269563	n/a	LTP278	ltpFR2	15	n/a	n/a	n/a	29	n/a	n/a	n/a	n/a
4540.232	n/a	DISTRACTOR	2270116	n/a	LTP278	ltpFR2	15	20	n/a	n/a	n/a	n/a	0	0	0
4540.246	n/a	PROB	2270123	n/a	LTP278	ltpFR2	15	n/a	n/a	n/a	29	11	3	6	2
4542.806	n/a	PROB	2271403	n/a	LTP278	ltpFR2	15	n/a	n/a	n/a	29	14	2	7	5
4548.726	n/a	PROB	2274363	n/a	LTP278	ltpFR2	15	n/a	n/a	n/a	29	20	5	8	7
4555.2	n/a	PROB	2277600	n/a	LTP278	ltpFR2	15	n/a	n/a	n/a	29	18	8	7	3
4556.824	n/a	PROB	2278412	n/a	LTP278	ltpFR2	15	n/a	n/a	n/a	29	26	8	9	9
4558.648	n/a	PROB	2279324	n/a	LTP278	ltpFR2	15	n/a	n/a	n/a	29	7	4	2	1
4560.856	n/a	PROB	2280428	n/a	LTP278	ltpFR2	15	n/a	n/a	n/a	29	15	7	6	2
4562.908	n/a	STOP	2281454	n/a	LTP278	ltpFR2	15	n/a	n/a	n/a	29	n/a	n/a	n/a	n/a
4564.924	n/a	REC_START	2282462	n/a	LTP278	ltpFR2	15	20	n/a	n/a	n/a	n/a	0	0	0
4565.362	n/a	REC_WORD	2282681	wordpools/wasnorm_wordpool_576.txt	LTP278	ltpFR2	15	20	BUTCHER	203	n/a	n/a	0	0	0
4655.956	n/a	DISTRACTOR	2327978	n/a	LTP278	ltpFR2	15	21	n/a	n/a	n/a	n/a	0	0	0
4655.956	n/a	START	2327978	n/a	LTP278	ltpFR2	15	n/a	n/a	n/a	30	n/a	n/a	n/a	n/a
4656.006	n/a	PROB	2328003	n/a	LTP278	ltpFR2	15	n/a	n/a	n/a	30	11	3	5	3
4658.546	n/a	PROB	2329273	n/a	LTP278	ltpFR2	15	n/a	n/a	n/a	30	15	2	9	4
4661.238	n/a	PROB	2330619	n/a	LTP278	ltpFR2	15	n/a	n/a	n/a	30	12	4	1	7
4662.56	n/a	PROB	2331280	n/a	LTP278	ltpFR2	15	n/a	n/a	n/a	30	13	1	8	7
4664.4	n/a	PROB	2332200	n/a	LTP278	ltpFR2	15	n/a	n/a	n/a	30	16	3	9	4
4666.744	n/a	PROB	2333372	n/a	LTP278	ltpFR2	15	n/a	n/a	n/a	30	23	5	9	9
4668.534	n/a	PROB	2334267	n/a	LTP278	ltpFR2	15	n/a	n/a	n/a	30	22	7	9	6
4670.86	n/a	PROB	2335430	n/a	LTP278	ltpFR2	15	n/a	n/a	n/a	30	9	2	2	5
4672.134	n/a	PROB	2336067	n/a	LTP278	ltpFR2	15	n/a	n/a	n/a	30	12	3	4	5
4674.092	n/a	PROB	2337046	n/a	LTP278	ltpFR2	15	n/a	n/a	n/a	30	10	5	2	3
4675.728	n/a	PROB	2337864	n/a	LTP278	ltpFR2	15	n/a	n/a	n/a	30	11	7	3	1
4676.948	n/a	PROB	2338474	n/a	LTP278	ltpFR2	15	n/a	n/a	n/a	30	16	9	4	3
4679.37	n/a	STOP	2339685	n/a	LTP278	ltpFR2	15	n/a	n/a	n/a	30	n/a	n/a	n/a	n/a
4681.1	n/a	WORD	2340550	wordpools/wasnorm_wordpool_576.txt	LTP278	ltpFR2	15	21	NECKLACE	940	n/a	n/a	0	0	0
4683.574	n/a	WORD	2341787	wordpools/wasnorm_wordpool_576.txt	LTP278	ltpFR2	15	21	CREVICE	405	n/a	n/a	0	0	0
4686.07	n/a	WORD	2343035	wordpools/wasnorm_wordpool_576.txt	LTP278	ltpFR2	15	21	MARSH	874	n/a	n/a	0	0	0
4688.494	n/a	WORD	2344247	wordpools/wasnorm_wordpool_576.txt	LTP278	ltpFR2	15	21	THIEF	1456	n/a	n/a	0	0	0
4691.27	n/a	WORD	2345635	wordpools/wasnorm_wordpool_576.txt	LTP278	ltpFR2	15	21	ROBBER	1197	n/a	n/a	0	0	0
4693.85	n/a	WORD	2346925	wordpools/wasnorm_wordpool_576.txt	LTP278	ltpFR2	15	21	GOBLIN	645	n/a	n/a	0	0	0
4696.574	n/a	WORD	2348287	wordpools/wasnorm_wordpool_576.txt	LTP278	ltpFR2	15	21	MONSTER	912	n/a	n/a	0	0	0
4699.27	n/a	WORD	2349635	wordpools/wasnorm_wordpool_576.txt	LTP278	ltpFR2	15	21	MARROW	872	n/a	n/a	0	0	0
4701.896	n/a	WORD	2350948	wordpools/wasnorm_wordpool_576.txt	LTP278	ltpFR2	15	21	TUNNEL	1519	n/a	n/a	0	0	0
4704.64	n/a	WORD	2352320	wordpools/wasnorm_wordpool_576.txt	LTP278	ltpFR2	15	21	BROOK	177	n/a	n/a	0	0	0
4707.064	n/a	WORD	2353532	wordpools/wasnorm_wordpool_576.txt	LTP278	ltpFR2	15	21	FEMALE	559	n/a	n/a	0	0	0
4709.762	n/a	WORD	2354881	wordpools/wasnorm_wordpool_576.txt	LTP278	ltpFR2	15	21	PILOT	1070	n/a	n/a	0	0	0
4712.552	n/a	WORD	2356276	wordpools/wasnorm_wordpool_576.txt	LTP278	ltpFR2	15	21	CHIPMUNK	304	n/a	n/a	0	0	0
4715.282	n/a	WORD	2357641	wordpools/wasnorm_wordpool_576.txt	LTP278	ltpFR2	15	21	PLIERS	1089	n/a	n/a	0	0	0
4717.708	n/a	WORD	2358854	wordpools/wasnorm_wordpool_576.txt	LTP278	ltpFR2	15	21	WAITER	1580	n/a	n/a	0	0	0
4720.3	n/a	WORD	2360150	wordpools/wasnorm_wordpool_576.txt	LTP278	ltpFR2	15	21	MARKET	871	n/a	n/a	0	0	0
4722.744	n/a	WORD	2361372	wordpools/wasnorm_wordpool_576.txt	LTP278	ltpFR2	15	21	ICING	732	n/a	n/a	0	0	0
4725.472	n/a	WORD	2362736	wordpools/wasnorm_wordpool_576.txt	LTP278	ltpFR2	15	21	DAISY	435	n/a	n/a	0	0	0
4728.248	n/a	WORD	2364124	wordpools/wasnorm_wordpool_576.txt	LTP278	ltpFR2	15	21	CANAL	226	n/a	n/a	0	0	0
4730.874	n/a	WORD	2365437	wordpools/wasnorm_wordpool_576.txt	LTP278	ltpFR2	15	21	THREAD	1460	n/a	n/a	0	0	0
4733.314	n/a	WORD	2366657	wordpools/wasnorm_wordpool_576.txt	LTP278	ltpFR2	15	21	FLAG	573	n/a	n/a	0	0	0
4735.778	n/a	WORD	2367889	wordpools/wasnorm_wordpool_576.txt	LTP278	ltpFR2	15	21	DINER	467	n/a	n/a	0	0	0
4738.554	n/a	WORD	2369277	wordpools/wasnorm_wordpool_576.txt	LTP278	ltpFR2	15	21	LADY	794	n/a	n/a	0	0	0
4741.18	n/a	WORD	2370590	wordpools/wasnorm_wordpool_576.txt	LTP278	ltpFR2	15	21	AIRPORT	13	n/a	n/a	0	0	0
4742.788	n/a	START	2371394	n/a	LTP278	ltpFR2	15	n/a	n/a	n/a	31	n/a	n/a	n/a	n/a
4743.686	n/a	DISTRACTOR	2371843	n/a	LTP278	ltpFR2	15	21	n/a	n/a	n/a	n/a	0	0	0
4743.692	n/a	PROB	2371846	n/a	LTP278	ltpFR2	15	n/a	n/a	n/a	31	19	4	7	8
4745.864	n/a	PROB	2372932	n/a	LTP278	ltpFR2	15	n/a	n/a	n/a	31	16	7	7	2
4747.506	n/a	PROB	2373753	n/a	LTP278	ltpFR2	15	n/a	n/a	n/a	31	14	5	5	4
4748.824	n/a	PROB	2374412	n/a	LTP278	ltpFR2	15	n/a	n/a	n/a	31	18	3	9	6
4750.766	n/a	PROB	2375383	n/a	LTP278	ltpFR2	15	n/a	n/a	n/a	31	5	1	3	1
4751.82	n/a	PROB	2375910	n/a	LTP278	ltpFR2	15	n/a	n/a	n/a	31	22	8	9	5
4755.282	n/a	PROB	2377641	n/a	LTP278	ltpFR2	15	n/a	n/a	n/a	31	15	2	7	6
4757.422	n/a	PROB	2378711	n/a	LTP278	ltpFR2	15	n/a	n/a	n/a	31	18	8	4	6
4758.978	n/a	PROB	2379489	n/a	LTP278	ltpFR2	15	n/a	n/a	n/a	31	15	7	1	7
4760.652	n/a	PROB	2380326	n/a	LTP278	ltpFR2	15	n/a	n/a	n/a	31	15	6	5	4
4762.894	n/a	PROB	2381447	n/a	LTP278	ltpFR2	15	n/a	n/a	n/a	31	11	8	2	1
4764.232	n/a	PROB	2382116	n/a	LTP278	ltpFR2	15	n/a	n/a	n/a	31	11	7	2	2
4765.672	n/a	STOP	2382836	n/a	LTP278	ltpFR2	15	n/a	n/a	n/a	31	n/a	n/a	n/a	n/a
4768.57	n/a	REC_START	2384285	n/a	LTP278	ltpFR2	15	21	n/a	n/a	n/a	n/a	0	0	0
4802.068	n/a	REC_WORD_VV	2401034	wordpools/wasnorm_wordpool_576.txt	LTP278	ltpFR2	15	21	<>	-1	n/a	n/a	0	0	0
4810.382	n/a	REC_WORD	2405191	wordpools/wasnorm_wordpool_576.txt	LTP278	ltpFR2	15	21	CREVICE	405	n/a	n/a	0	0	0
4810.9	n/a	REC_WORD	2405450	wordpools/wasnorm_wordpool_576.txt	LTP278	ltpFR2	15	21	MARSH	874	n/a	n/a	0	0	0
4811.456	n/a	REC_WORD	2405728	wordpools/wasnorm_wordpool_576.txt	LTP278	ltpFR2	15	21	GOBLIN	645	n/a	n/a	0	0	0
4811.93	n/a	REC_WORD	2405965	wordpools/wasnorm_wordpool_576.txt	LTP278	ltpFR2	15	21	ROBBER	1197	n/a	n/a	0	0	0
4812.966	n/a	REC_WORD	2406483	wordpools/wasnorm_wordpool_576.txt	LTP278	ltpFR2	15	21	NECKLACE	940	n/a	n/a	0	0	0
4816.144	n/a	REC_WORD	2408072	wordpools/wasnorm_wordpool_576.txt	LTP278	ltpFR2	15	21	THIEF	1456	n/a	n/a	0	0	0
4817.854	n/a	REC_WORD	2408927	wordpools/wasnorm_wordpool_576.txt	LTP278	ltpFR2	15	21	MONSTER	912	n/a	n/a	0	0	0
4827.822	n/a	REC_WORD	2413911	wordpools/wasnorm_wordpool_576.txt	LTP278	ltpFR2	15	21	MARROW	872	n/a	n/a	0	0	0
4859.6	n/a	DISTRACTOR	2429800	n/a	LTP278	ltpFR2	15	22	n/a	n/a	n/a	n/a	0	0	0
4859.6	n/a	START	2429800	n/a	LTP278	ltpFR2	15	n/a	n/a	n/a	32	n/a	n/a	n/a	n/a
4859.65	n/a	PROB	2429825	n/a	LTP278	ltpFR2	15	n/a	n/a	n/a	32	13	5	3	5
4862.492	n/a	PROB	2431246	n/a	LTP278	ltpFR2	15	n/a	n/a	n/a	32	15	4	2	9
4864.416	n/a	PROB	2432208	n/a	LTP278	ltpFR2	15	n/a	n/a	n/a	32	7	3	2	2
4865.856	n/a	PROB	2432928	n/a	LTP278	ltpFR2	15	n/a	n/a	n/a	32	11	5	1	5
4866.942	n/a	PROB	2433471	n/a	LTP278	ltpFR2	15	n/a	n/a	n/a	32	19	9	8	2
4868.28	n/a	PROB	2434140	n/a	LTP278	ltpFR2	15	n/a	n/a	n/a	32	26	9	9	8
4869.952	n/a	PROB	2434976	n/a	LTP278	ltpFR2	15	n/a	n/a	n/a	32	15	9	4	2
4871.408	n/a	PROB	2435704	n/a	LTP278	ltpFR2	15	n/a	n/a	n/a	32	5	2	1	2
4872.512	n/a	PROB	2436256	n/a	LTP278	ltpFR2	15	n/a	n/a	n/a	32	13	7	5	1
4874.068	n/a	PROB	2437034	n/a	LTP278	ltpFR2	15	n/a	n/a	n/a	32	17	7	7	3
4875.746	n/a	PROB	2437873	n/a	LTP278	ltpFR2	15	n/a	n/a	n/a	32	22	9	6	7
4877.734	n/a	PROB	2438867	n/a	LTP278	ltpFR2	15	n/a	n/a	n/a	32	15	4	2	9
4879.138	n/a	PROB	2439569	n/a	LTP278	ltpFR2	15	n/a	n/a	n/a	32	20	4	9	7
4881.012	n/a	PROB	2440506	n/a	LTP278	ltpFR2	15	n/a	n/a	n/a	32	12	5	4	3
4882.486	n/a	STOP	2441243	n/a	LTP278	ltpFR2	15	n/a	n/a	n/a	32	n/a	n/a	n/a	n/a
4884.746	n/a	WORD	2442373	wordpools/wasnorm_wordpool_576.txt	LTP278	ltpFR2	15	22	VALLEY	1545	n/a	n/a	0	0	0
4887.236	n/a	WORD	2443618	wordpools/wasnorm_wordpool_576.txt	LTP278	ltpFR2	15	22	PLUTO	1092	n/a	n/a	0	0	0
4889.75	n/a	WORD	2444875	wordpools/wasnorm_wordpool_576.txt	LTP278	ltpFR2	15	22	PACKAGE	997	n/a	n/a	0	0	0
4892.374	n/a	WORD	2446187	wordpools/wasnorm_wordpool_576.txt	LTP278	ltpFR2	15	22	DOLPHIN	483	n/a	n/a	0	0	0
4894.852	n/a	WORD	2447426	wordpools/wasnorm_wordpool_576.txt	LTP278	ltpFR2	15	22	DIVER	476	n/a	n/a	0	0	0
4897.508	n/a	WORD	2448754	wordpools/wasnorm_wordpool_576.txt	LTP278	ltpFR2	15	22	HOSTESS	723	n/a	n/a	0	0	0
4900.172	n/a	WORD	2450086	wordpools/wasnorm_wordpool_576.txt	LTP278	ltpFR2	15	22	COSTUME	383	n/a	n/a	0	0	0
4902.682	n/a	WORD	2451341	wordpools/wasnorm_wordpool_576.txt	LTP278	ltpFR2	15	22	CASKET	255	n/a	n/a	0	0	0
4905.24	n/a	WORD	2452620	wordpools/wasnorm_wordpool_576.txt	LTP278	ltpFR2	15	22	COOK	372	n/a	n/a	0	0	0
4907.802	n/a	WORD	2453901	wordpools/wasnorm_wordpool_576.txt	LTP278	ltpFR2	15	22	STOVE	1388	n/a	n/a	0	0	0
4910.29	n/a	WORD	2455145	wordpools/wasnorm_wordpool_576.txt	LTP278	ltpFR2	15	22	SPONGE	1355	n/a	n/a	0	0	0
4912.722	n/a	WORD	2456361	wordpools/wasnorm_wordpool_576.txt	LTP278	ltpFR2	15	22	TRACTOR	1493	n/a	n/a	0	0	0
4915.314	n/a	WORD	2457657	wordpools/wasnorm_wordpool_576.txt	LTP278	ltpFR2	15	22	HATCHET	691	n/a	n/a	0	0	0
4917.936	n/a	WORD	2458968	wordpools/wasnorm_wordpool_576.txt	LTP278	ltpFR2	15	22	VIKING	1565	n/a	n/a	0	0	0
4920.516	n/a	WORD	2460258	wordpools/wasnorm_wordpool_576.txt	LTP278	ltpFR2	15	22	AWARD	63	n/a	n/a	0	0	0
4923.072	n/a	WORD	2461536	wordpools/wasnorm_wordpool_576.txt	LTP278	ltpFR2	15	22	SPOON	1357	n/a	n/a	0	0	0
4925.686	n/a	WORD	2462843	wordpools/wasnorm_wordpool_576.txt	LTP278	ltpFR2	15	22	MAILMAN	858	n/a	n/a	0	0	0
4928.426	n/a	WORD	2464213	wordpools/wasnorm_wordpool_576.txt	LTP278	ltpFR2	15	22	CANDY	230	n/a	n/a	0	0	0
4931.174	n/a	WORD	2465587	wordpools/wasnorm_wordpool_576.txt	LTP278	ltpFR2	15	22	PAIL	1002	n/a	n/a	0	0	0
4933.718	n/a	WORD	2466859	wordpools/wasnorm_wordpool_576.txt	LTP278	ltpFR2	15	22	SILK	1307	n/a	n/a	0	0	0
4936.142	n/a	WORD	2468071	wordpools/wasnorm_wordpool_576.txt	LTP278	ltpFR2	15	22	PIGMENT	1066	n/a	n/a	0	0	0
4938.602	n/a	WORD	2469301	wordpools/wasnorm_wordpool_576.txt	LTP278	ltpFR2	15	22	COMET	353	n/a	n/a	0	0	0
4941.296	n/a	WORD	2470648	wordpools/wasnorm_wordpool_576.txt	LTP278	ltpFR2	15	22	SPACE	1345	n/a	n/a	0	0	0
4943.738	n/a	WORD	2471869	wordpools/wasnorm_wordpool_576.txt	LTP278	ltpFR2	15	22	SUPPER	1411	n/a	n/a	0	0	0
4945.344	n/a	START	2472672	n/a	LTP278	ltpFR2	15	n/a	n/a	n/a	33	n/a	n/a	n/a	n/a
4946.532	n/a	DISTRACTOR	2473266	n/a	LTP278	ltpFR2	15	22	n/a	n/a	n/a	n/a	0	0	0
4946.548	n/a	PROB	2473274	n/a	LTP278	ltpFR2	15	n/a	n/a	n/a	33	9	7	1	1
4948.236	n/a	PROB	2474118	n/a	LTP278	ltpFR2	15	n/a	n/a	n/a	33	14	3	8	3
4949.892	n/a	PROB	2474946	n/a	LTP278	ltpFR2	15	n/a	n/a	n/a	33	12	2	8	2
4952.118	n/a	PROB	2476059	n/a	LTP278	ltpFR2	15	n/a	n/a	n/a	33	21	7	6	8
4957.186	n/a	PROB	2478593	n/a	LTP278	ltpFR2	15	n/a	n/a	n/a	33	18	5	5	8
4958.592	n/a	PROB	2479296	n/a	LTP278	ltpFR2	15	n/a	n/a	n/a	33	12	5	5	2
4959.798	n/a	PROB	2479899	n/a	LTP278	ltpFR2	15	n/a	n/a	n/a	33	21	7	5	9
4961.486	n/a	PROB	2480743	n/a	LTP278	ltpFR2	15	n/a	n/a	n/a	33	17	8	5	4
4963.478	n/a	PROB	2481739	n/a	LTP278	ltpFR2	15	n/a	n/a	n/a	33	19	5	7	7
4965.42	n/a	PROB	2482710	n/a	LTP278	ltpFR2	15	n/a	n/a	n/a	33	15	3	3	9
4967.376	n/a	PROB	2483688	n/a	LTP278	ltpFR2	15	n/a	n/a	n/a	33	19	8	3	8
4969.258	n/a	STOP	2484629	n/a	LTP278	ltpFR2	15	n/a	n/a	n/a	33	n/a	n/a	n/a	n/a
4971.128	n/a	REC_START	2485564	n/a	LTP278	ltpFR2	15	22	n/a	n/a	n/a	n/a	0	0	0
5033.83	n/a	REC_WORD	2516915	wordpools/wasnorm_wordpool_576.txt	LTP278	ltpFR2	15	22	DOLPHIN	483	n/a	n/a	0	0	0
5034.376	n/a	REC_WORD	2517188	wordpools/wasnorm_wordpool_576.txt	LTP278	ltpFR2	15	22	CASKET	255	n/a	n/a	0	0	0
5034.978	n/a	REC_WORD	2517489	wordpools/wasnorm_wordpool_576.txt	LTP278	ltpFR2	15	22	COSTUME	383	n/a	n/a	0	0	0
5036.75	n/a	REC_WORD	2518375	wordpools/wasnorm_wordpool_576.txt	LTP278	ltpFR2	15	22	WAITRESS	1581	n/a	n/a	0	0	0
5037.428	n/a	REC_WORD	2518714	wordpools/wasnorm_wordpool_576.txt	LTP278	ltpFR2	15	22	HOSTESS	723	n/a	n/a	0	0	0
5039.312	n/a	REC_WORD	2519656	wordpools/wasnorm_wordpool_576.txt	LTP278	ltpFR2	15	22	DIVER	476	n/a	n/a	0	0	0
5062.156	n/a	DISTRACTOR	2531078	n/a	LTP278	ltpFR2	15	23	n/a	n/a	n/a	n/a	0	0	0
5062.158	n/a	START	2531079	n/a	LTP278	ltpFR2	15	n/a	n/a	n/a	34	n/a	n/a	n/a	n/a
5062.206	n/a	PROB	2531103	n/a	LTP278	ltpFR2	15	n/a	n/a	n/a	34	7	3	3	1
5065.186	n/a	PROB	2532593	n/a	LTP278	ltpFR2	15	n/a	n/a	n/a	34	12	2	5	5
5066.324	n/a	PROB	2533162	n/a	LTP278	ltpFR2	15	n/a	n/a	n/a	34	18	4	6	8
