onset	duration	trial_type	sample	stim_file	subject	experiment	session	trial	task	item_name	item_num	recog_conf	resp	color_b	color_g	color_r	case	font
715.784	n/a	SESS_START	357892	n/a	LTP089	ltpFR	1	n/a	n/a	n/a	n/a	1	n/a	n/a	n/a	n/a	n/a	n/a
778.53	n/a	WORD	389265	wordpools/wasnorm_wordpool.txt	LTP089	ltpFR	1	1	0	TORCH	1484	n/a	0	0	0.5869140625	0.422607421875	lower	../fonts/amplitud.ttf
782.518	n/a	WORD	391259	wordpools/wasnorm_wordpool.txt	LTP089	ltpFR	1	1	0	TACK	1428	n/a	0	0	0.5869140625	0.422607421875	lower	../fonts/amplitud.ttf
786.614	n/a	WORD	393307	wordpools/wasnorm_wordpool.txt	LTP089	ltpFR	1	1	0	KING	777	n/a	1	0	0.5869140625	0.422607421875	lower	../fonts/amplitud.ttf
790.434	n/a	WORD	395217	wordpools/wasnorm_wordpool.txt	LTP089	ltpFR	1	1	0	ASTEROID	50	n/a	1	0	0.5869140625	0.422607421875	lower	../fonts/amplitud.ttf
794.628	n/a	WORD	397314	wordpools/wasnorm_wordpool.txt	LTP089	ltpFR	1	1	1	TUB	1514	n/a	0	1	0.412841796875	0.57763671875	upper	../fonts/zerothre.ttf
798.442	n/a	WORD	399221	wordpools/wasnorm_wordpool.txt	LTP089	ltpFR	1	1	1	DAM	436	n/a	0	1	0.412841796875	0.57763671875	upper	../fonts/zerothre.ttf
802.546	n/a	WORD	401273	wordpools/wasnorm_wordpool.txt	LTP089	ltpFR	1	1	1	IRON	744	n/a	0	1	0.412841796875	0.57763671875	upper	../fonts/zerothre.ttf
806.524	n/a	WORD	403262	wordpools/wasnorm_wordpool.txt	LTP089	ltpFR	1	1	1	VISITOR	1573	n/a	1	1	0.412841796875	0.57763671875	upper	../fonts/zerothre.ttf
810.42	n/a	WORD	405210	wordpools/wasnorm_wordpool.txt	LTP089	ltpFR	1	1	0	EMPEROR	529	n/a	0	0	0.5869140625	0.422607421875	lower	../fonts/amplitud.ttf
814.482	n/a	WORD	407241	wordpools/wasnorm_wordpool.txt	LTP089	ltpFR	1	1	0	IDOL	733	n/a	1	0	0.5869140625	0.422607421875	lower	../fonts/amplitud.ttf
818.66	n/a	WORD	409330	wordpools/wasnorm_wordpool.txt	LTP089	ltpFR	1	1	0	CHIMNEY	301	n/a	1	0	0.5869140625	0.422607421875	lower	../fonts/amplitud.ttf
822.838	n/a	WORD	411419	wordpools/wasnorm_wordpool.txt	LTP089	ltpFR	1	1	0	VIOLA	1570	n/a	1	0	0.5869140625	0.422607421875	lower	../fonts/amplitud.ttf
826.884	n/a	WORD	413442	wordpools/wasnorm_wordpool.txt	LTP089	ltpFR	1	1	1	MICROPHONE	890	n/a	0	1	0.412841796875	0.57763671875	upper	../fonts/zerothre.ttf
830.83	n/a	WORD	415415	wordpools/wasnorm_wordpool.txt	LTP089	ltpFR	1	1	1	DISC	473	n/a	0	1	0.412841796875	0.57763671875	upper	../fonts/zerothre.ttf
834.8	n/a	WORD	417400	wordpools/wasnorm_wordpool.txt	LTP089	ltpFR	1	1	1	CLIMBER	323	n/a	1	1	0.412841796875	0.57763671875	upper	../fonts/zerothre.ttf
838.904	n/a	WORD	419452	wordpools/wasnorm_wordpool.txt	LTP089	ltpFR	1	1	1	SUMMIT	1405	n/a	0	1	0.412841796875	0.57763671875	upper	../fonts/zerothre.ttf
844.556	n/a	REC_START	422278	n/a	LTP089	ltpFR	1	1	n/a	n/a	n/a	n/a	n/a	n/a	n/a	n/a	n/a	n/a
847.15	n/a	REC_WORD	423575	wordpools/wasnorm_wordpool.txt	LTP089	ltpFR	1	1	1	CLIMBER	323	n/a	1	n/a	n/a	n/a	n/a	n/a
848.078	n/a	REC_WORD	424039	wordpools/wasnorm_wordpool.txt	LTP089	ltpFR	1	1	1	MICROPHONE	890	n/a	0	n/a	n/a	n/a	n/a	n/a
849.204	n/a	REC_WORD	424602	wordpools/wasnorm_wordpool.txt	LTP089	ltpFR	1	1	0	CHIMNEY	301	n/a	1	n/a	n/a	n/a	n/a	n/a
850.382	n/a	REC_WORD	425191	wordpools/wasnorm_wordpool.txt	LTP089	ltpFR	1	1	1	DISC	473	n/a	0	n/a	n/a	n/a	n/a	n/a
853.216	n/a	REC_WORD	426608	wordpools/wasnorm_wordpool.txt	LTP089	ltpFR	1	1	0	KING	777	n/a	1	n/a	n/a	n/a	n/a	n/a
854.568	n/a	REC_WORD	427284	wordpools/wasnorm_wordpool.txt	LTP089	ltpFR	1	1	0	EMPEROR	529	n/a	0	n/a	n/a	n/a	n/a	n/a
859.63	n/a	REC_WORD	429815	wordpools/wasnorm_wordpool.txt	LTP089	ltpFR	1	1	n/a	MATCH	878	n/a	n/a	n/a	n/a	n/a	n/a	n/a
929.54	n/a	WORD	464770	wordpools/wasnorm_wordpool.txt	LTP089	ltpFR	1	2	1	DICTATOR	462	n/a	0	1	0.412841796875	0.57763671875	upper	../fonts/zerothre.ttf
933.412	n/a	WORD	466706	wordpools/wasnorm_wordpool.txt	LTP089	ltpFR	1	2	1	DOVE	491	n/a	1	1	0.412841796875	0.57763671875	upper	../fonts/zerothre.ttf
937.256	n/a	WORD	468628	wordpools/wasnorm_wordpool.txt	LTP089	ltpFR	1	2	0	RUBY	1214	n/a	0	0	0.5869140625	0.422607421875	lower	../fonts/amplitud.ttf
941.386	n/a	WORD	470693	wordpools/wasnorm_wordpool.txt	LTP089	ltpFR	1	2	0	GUARD	667	n/a	1	0	0.5869140625	0.422607421875	lower	../fonts/amplitud.ttf
945.482	n/a	WORD	472741	wordpools/wasnorm_wordpool.txt	LTP089	ltpFR	1	2	0	TICK	1463	n/a	0	0	0.5869140625	0.422607421875	lower	../fonts/amplitud.ttf
949.402	n/a	WORD	474701	wordpools/wasnorm_wordpool.txt	LTP089	ltpFR	1	2	0	DEPUTY	450	n/a	1	0	0.5869140625	0.422607421875	lower	../fonts/amplitud.ttf
953.456	n/a	WORD	476728	wordpools/wasnorm_wordpool.txt	LTP089	ltpFR	1	2	1	SPY	1360	n/a	0	1	0.412841796875	0.57763671875	upper	../fonts/zerothre.ttf
957.342	n/a	WORD	478671	wordpools/wasnorm_wordpool.txt	LTP089	ltpFR	1	2	1	GENERAL	630	n/a	1	1	0.412841796875	0.57763671875	upper	../fonts/zerothre.ttf
961.454	n/a	WORD	480727	wordpools/wasnorm_wordpool.txt	LTP089	ltpFR	1	2	1	POLE	1097	n/a	0	1	0.412841796875	0.57763671875	upper	../fonts/zerothre.ttf
965.416	n/a	WORD	482708	wordpools/wasnorm_wordpool.txt	LTP089	ltpFR	1	2	1	PEARL	1034	n/a	0	1	0.412841796875	0.57763671875	upper	../fonts/zerothre.ttf
969.23	n/a	WORD	484615	wordpools/wasnorm_wordpool.txt	LTP089	ltpFR	1	2	0	CLASS	318	n/a	1	0	0.5869140625	0.422607421875	lower	../fonts/amplitud.ttf
973.2	n/a	WORD	486600	wordpools/wasnorm_wordpool.txt	LTP089	ltpFR	1	2	0	PIE	1062	n/a	0	0	0.5869140625	0.422607421875	lower	../fonts/amplitud.ttf
977.336	n/a	WORD	488668	wordpools/wasnorm_wordpool.txt	LTP089	ltpFR	1	2	0	FEATHER	557	n/a	0	0	0.5869140625	0.422607421875	lower	../fonts/amplitud.ttf
981.316	n/a	WORD	490658	wordpools/wasnorm_wordpool.txt	LTP089	ltpFR	1	2	0	PEANUT	1032	n/a	0	0	0.5869140625	0.422607421875	lower	../fonts/amplitud.ttf
985.26	n/a	WORD	492630	wordpools/wasnorm_wordpool.txt	LTP089	ltpFR	1	2	1	NUT	965	n/a	1	1	0.412841796875	0.57763671875	upper	../fonts/zerothre.ttf
989.464	n/a	WORD	494732	wordpools/wasnorm_wordpool.txt	LTP089	ltpFR	1	2	1	RECEIPT	1173	n/a	0	1	0.412841796875	0.57763671875	upper	../fonts/zerothre.ttf
995.44	n/a	REC_START	497720	n/a	LTP089	ltpFR	1	2	n/a	n/a	n/a	n/a	n/a	n/a	n/a	n/a	n/a	n/a
998.186	n/a	REC_WORD	499093	wordpools/wasnorm_wordpool.txt	LTP089	ltpFR	1	2	0	FEATHER	557	n/a	0	n/a	n/a	n/a	n/a	n/a
998.862	n/a	REC_WORD	499431	wordpools/wasnorm_wordpool.txt	LTP089	ltpFR	1	2	0	PEANUT	1032	n/a	0	n/a	n/a	n/a	n/a	n/a
1001.218	n/a	REC_WORD	500609	wordpools/wasnorm_wordpool.txt	LTP089	ltpFR	1	2	0	KING	777	n/a	1	n/a	n/a	n/a	n/a	n/a
1007.438	n/a	REC_WORD	503719	wordpools/wasnorm_wordpool.txt	LTP089	ltpFR	1	2	0	GUARD	667	n/a	1	n/a	n/a	n/a	n/a	n/a
1007.754	n/a	REC_WORD	503877	wordpools/wasnorm_wordpool.txt	LTP089	ltpFR	1	2	0	RUBY	1214	n/a	0	n/a	n/a	n/a	n/a	n/a
1008.152	n/a	REC_WORD	504076	wordpools/wasnorm_wordpool.txt	LTP089	ltpFR	1	2	1	PEARL	1034	n/a	0	n/a	n/a	n/a	n/a	n/a
1008.706	n/a	REC_WORD	504353	wordpools/wasnorm_wordpool.txt	LTP089	ltpFR	1	2	0	DEPUTY	450	n/a	1	n/a	n/a	n/a	n/a	n/a
1022.276	n/a	REC_WORD	511138	wordpools/wasnorm_wordpool.txt	LTP089	ltpFR	1	2	n/a	GRASSHOPPER	656	n/a	n/a	n/a	n/a	n/a	n/a	n/a
1030.092	n/a	REC_WORD	515046	wordpools/wasnorm_wordpool.txt	LTP089	ltpFR	1	2	0	PIE	1062	n/a	0	n/a	n/a	n/a	n/a	n/a
1031.624	n/a	REC_WORD	515812	wordpools/wasnorm_wordpool.txt	LTP089	ltpFR	1	2	0	PEANUT	1032	n/a	0	n/a	n/a	n/a	n/a	n/a
1033.41	n/a	REC_WORD	516705	wordpools/wasnorm_wordpool.txt	LTP089	ltpFR	1	2	0	FEATHER	557	n/a	0	n/a	n/a	n/a	n/a	n/a
1081.408	n/a	WORD	540704	wordpools/wasnorm_wordpool.txt	LTP089	ltpFR	1	3	1	LOAF	835	n/a	1	1	0.412841796875	0.57763671875	upper	../fonts/zerothre.ttf
1085.504	n/a	WORD	542752	wordpools/wasnorm_wordpool.txt	LTP089	ltpFR	1	3	1	LAGOON	795	n/a	0	1	0.412841796875	0.57763671875	upper	../fonts/zerothre.ttf
1089.376	n/a	WORD	544688	wordpools/wasnorm_wordpool.txt	LTP089	ltpFR	1	3	1	VET	1560	n/a	1	1	0.412841796875	0.57763671875	upper	../fonts/zerothre.ttf
1093.37	n/a	WORD	546685	wordpools/wasnorm_wordpool.txt	LTP089	ltpFR	1	3	1	COYOTE	396	n/a	1	1	0.412841796875	0.57763671875	upper	../fonts/zerothre.ttf
1097.49	n/a	WORD	548745	wordpools/wasnorm_wordpool.txt	LTP089	ltpFR	1	3	1	CONTAINER	366	n/a	0	1	0.412841796875	0.57763671875	upper	../fonts/zerothre.ttf
1101.66	n/a	WORD	550830	wordpools/wasnorm_wordpool.txt	LTP089	ltpFR	1	3	1	FIST	572	n/a	0	1	0.412841796875	0.57763671875	upper	../fonts/zerothre.ttf
1105.814	n/a	WORD	552907	wordpools/wasnorm_wordpool.txt	LTP089	ltpFR	1	3	1	PLATE	1086	n/a	0	1	0.412841796875	0.57763671875	upper	../fonts/zerothre.ttf
1109.86	n/a	WORD	554930	wordpools/wasnorm_wordpool.txt	LTP089	ltpFR	1	3	1	MINER	896	n/a	1	1	0.412841796875	0.57763671875	upper	../fonts/zerothre.ttf
1114.062	n/a	WORD	557031	wordpools/wasnorm_wordpool.txt	LTP089	ltpFR	1	3	1	CALF	222	n/a	1	1	0.412841796875	0.57763671875	upper	../fonts/zerothre.ttf
1118.09	n/a	WORD	559045	wordpools/wasnorm_wordpool.txt	LTP089	ltpFR	1	3	1	PUPPY	1144	n/a	1	1	0.412841796875	0.57763671875	upper	../fonts/zerothre.ttf
1122.062	n/a	WORD	561031	wordpools/wasnorm_wordpool.txt	LTP089	ltpFR	1	3	1	SHEPHERD	1283	n/a	1	1	0.412841796875	0.57763671875	upper	../fonts/zerothre.ttf
1125.94	n/a	WORD	562970	wordpools/wasnorm_wordpool.txt	LTP089	ltpFR	1	3	1	SPRINKLE	1359	n/a	0	1	0.412841796875	0.57763671875	upper	../fonts/zerothre.ttf
1129.836	n/a	WORD	564918	wordpools/wasnorm_wordpool.txt	LTP089	ltpFR	1	3	1	BROOK	177	n/a	0	1	0.412841796875	0.57763671875	upper	../fonts/zerothre.ttf
1133.948	n/a	WORD	566974	wordpools/wasnorm_wordpool.txt	LTP089	ltpFR	1	3	1	WATERFALL	1595	n/a	0	1	0.412841796875	0.57763671875	upper	../fonts/zerothre.ttf
1137.81	n/a	WORD	568905	wordpools/wasnorm_wordpool.txt	LTP089	ltpFR	1	3	1	CHIP	303	n/a	0	1	0.412841796875	0.57763671875	upper	../fonts/zerothre.ttf
1142.004	n/a	WORD	571002	wordpools/wasnorm_wordpool.txt	LTP089	ltpFR	1	3	1	BOWL	158	n/a	0	1	0.412841796875	0.57763671875	upper	../fonts/zerothre.ttf
1148.048	n/a	REC_START	574024	n/a	LTP089	ltpFR	1	3	n/a	n/a	n/a	n/a	n/a	n/a	n/a	n/a	n/a	n/a
1152.338	n/a	REC_WORD	576169	wordpools/wasnorm_wordpool.txt	LTP089	ltpFR	1	3	1	SHEPHERD	1283	n/a	1	n/a	n/a	n/a	n/a	n/a
1154.882	n/a	REC_WORD	577441	wordpools/wasnorm_wordpool.txt	LTP089	ltpFR	1	3	1	FIST	572	n/a	0	n/a	n/a	n/a	n/a	n/a
1155.76	n/a	REC_WORD	577880	wordpools/wasnorm_wordpool.txt	LTP089	ltpFR	1	3	1	PLATE	1086	n/a	0	n/a	n/a	n/a	n/a	n/a
1156.4	n/a	REC_WORD	578200	wordpools/wasnorm_wordpool.txt	LTP089	ltpFR	1	3	1	COYOTE	396	n/a	1	n/a	n/a	n/a	n/a	n/a
1157.522	n/a	REC_WORD	578761	wordpools/wasnorm_wordpool.txt	LTP089	ltpFR	1	3	1	CONTAINER	366	n/a	0	n/a	n/a	n/a	n/a	n/a
1158.45	n/a	REC_WORD	579225	wordpools/wasnorm_wordpool.txt	LTP089	ltpFR	1	3	1	VET	1560	n/a	1	n/a	n/a	n/a	n/a	n/a
1159.538	n/a	REC_WORD	579769	wordpools/wasnorm_wordpool.txt	LTP089	ltpFR	1	3	1	BROOK	177	n/a	0	n/a	n/a	n/a	n/a	n/a
1160.212	n/a	REC_WORD	580106	wordpools/wasnorm_wordpool.txt	LTP089	ltpFR	1	3	1	WATERFALL	1595	n/a	0	n/a	n/a	n/a	n/a	n/a
1162.556	n/a	REC_WORD	581278	wordpools/wasnorm_wordpool.txt	LTP089	ltpFR	1	3	1	LAGOON	795	n/a	0	n/a	n/a	n/a	n/a	n/a
1166.418	n/a	REC_WORD	583209	wordpools/wasnorm_wordpool.txt	LTP089	ltpFR	1	3	1	PUPPY	1144	n/a	1	n/a	n/a	n/a	n/a	n/a
1180.49	n/a	REC_WORD	590245	wordpools/wasnorm_wordpool.txt	LTP089	ltpFR	1	3	1	VET	1560	n/a	1	n/a	n/a	n/a	n/a	n/a
1234.65	n/a	WORD	617325	wordpools/wasnorm_wordpool.txt	LTP089	ltpFR	1	4	0	SUIT	1402	n/a	0	0	0.5869140625	0.422607421875	lower	../fonts/amplitud.ttf
1238.528	n/a	WORD	619264	wordpools/wasnorm_wordpool.txt	LTP089	ltpFR	1	4	0	TURKEY	1520	n/a	1	0	0.5869140625	0.422607421875	lower	../fonts/amplitud.ttf
1242.458	n/a	WORD	621229	wordpools/wasnorm_wordpool.txt	LTP089	ltpFR	1	4	1	PAVEMENT	1028	n/a	0	1	0.412841796875	0.57763671875	upper	../fonts/zerothre.ttf
1246.304	n/a	WORD	623152	wordpools/wasnorm_wordpool.txt	LTP089	ltpFR	1	4	1	RAIL	1161	n/a	0	1	0.412841796875	0.57763671875	upper	../fonts/zerothre.ttf
1250.282	n/a	WORD	625141	wordpools/wasnorm_wordpool.txt	LTP089	ltpFR	1	4	1	DELINQUENT	445	n/a	1	1	0.412841796875	0.57763671875	upper	../fonts/zerothre.ttf
1254.46	n/a	WORD	627230	wordpools/wasnorm_wordpool.txt	LTP089	ltpFR	1	4	1	PAGE	1001	n/a	0	1	0.412841796875	0.57763671875	upper	../fonts/zerothre.ttf
1258.514	n/a	WORD	629257	wordpools/wasnorm_wordpool.txt	LTP089	ltpFR	1	4	0	AGENT	10	n/a	1	0	0.5869140625	0.422607421875	lower	../fonts/amplitud.ttf
1262.66	n/a	WORD	631330	wordpools/wasnorm_wordpool.txt	LTP089	ltpFR	1	4	0	WHISTLE	1606	n/a	0	0	0.5869140625	0.422607421875	lower	../fonts/amplitud.ttf
1266.504	n/a	WORD	633252	wordpools/wasnorm_wordpool.txt	LTP089	ltpFR	1	4	0	SKIRT	1319	n/a	0	0	0.5869140625	0.422607421875	lower	../fonts/amplitud.ttf
1270.624	n/a	WORD	635312	wordpools/wasnorm_wordpool.txt	LTP089	ltpFR	1	4	0	FAMILY	550	n/a	1	0	0.5869140625	0.422607421875	lower	../fonts/amplitud.ttf
1274.77	n/a	WORD	637385	wordpools/wasnorm_wordpool.txt	LTP089	ltpFR	1	4	0	GYMNAST	675	n/a	1	0	0.5869140625	0.422607421875	lower	../fonts/amplitud.ttf
1278.616	n/a	WORD	639308	wordpools/wasnorm_wordpool.txt	LTP089	ltpFR	1	4	0	CIRCUS	311	n/a	1	0	0.5869140625	0.422607421875	lower	../fonts/amplitud.ttf
1282.486	n/a	WORD	641243	wordpools/wasnorm_wordpool.txt	LTP089	ltpFR	1	4	1	DOLL	481	n/a	0	1	0.412841796875	0.57763671875	upper	../fonts/zerothre.ttf
1286.59	n/a	WORD	643295	wordpools/wasnorm_wordpool.txt	LTP089	ltpFR	1	4	1	ATTIRE	57	n/a	0	1	0.412841796875	0.57763671875	upper	../fonts/zerothre.ttf
1290.744	n/a	WORD	645372	wordpools/wasnorm_wordpool.txt	LTP089	ltpFR	1	4	1	SWEATER	1419	n/a	0	1	0.412841796875	0.57763671875	upper	../fonts/zerothre.ttf
1294.93	n/a	WORD	647465	wordpools/wasnorm_wordpool.txt	LTP089	ltpFR	1	4	1	WRITER	1627	n/a	0	1	0.412841796875	0.57763671875	upper	../fonts/zerothre.ttf
1300.998	n/a	REC_START	650499	n/a	LTP089	ltpFR	1	4	n/a	n/a	n/a	n/a	n/a	n/a	n/a	n/a	n/a	n/a
1303.896	n/a	REC_WORD	651948	wordpools/wasnorm_wordpool.txt	LTP089	ltpFR	1	4	0	GYMNAST	675	n/a	1	n/a	n/a	n/a	n/a	n/a
1304.464	n/a	REC_WORD	652232	wordpools/wasnorm_wordpool.txt	LTP089	ltpFR	1	4	0	FAMILY	550	n/a	1	n/a	n/a	n/a	n/a	n/a
1305.034	n/a	REC_WORD	652517	wordpools/wasnorm_wordpool.txt	LTP089	ltpFR	1	4	1	ATTIRE	57	n/a	0	n/a	n/a	n/a	n/a	n/a
1305.852	n/a	REC_WORD	652926	wordpools/wasnorm_wordpool.txt	LTP089	ltpFR	1	4	0	TURKEY	1520	n/a	1	n/a	n/a	n/a	n/a	n/a
1306.382	n/a	REC_WORD	653191	wordpools/wasnorm_wordpool.txt	LTP089	ltpFR	1	4	0	SUIT	1402	n/a	0	n/a	n/a	n/a	n/a	n/a
1307.852	n/a	REC_WORD	653926	wordpools/wasnorm_wordpool.txt	LTP089	ltpFR	1	4	0	CIRCUS	311	n/a	1	n/a	n/a	n/a	n/a	n/a
1309.47	n/a	REC_WORD	654735	wordpools/wasnorm_wordpool.txt	LTP089	ltpFR	1	4	1	DOLL	481	n/a	0	n/a	n/a	n/a	n/a	n/a
1314.084	n/a	REC_WORD	657042	wordpools/wasnorm_wordpool.txt	LTP089	ltpFR	1	4	1	PAVEMENT	1028	n/a	0	n/a	n/a	n/a	n/a	n/a
1315.346	n/a	REC_WORD	657673	wordpools/wasnorm_wordpool.txt	LTP089	ltpFR	1	4	1	RAIL	1161	n/a	0	n/a	n/a	n/a	n/a	n/a
1386.642	n/a	WORD	693321	wordpools/wasnorm_wordpool.txt	LTP089	ltpFR	1	5	1	NOMAD	955	n/a	1	1	0.412841796875	0.57763671875	upper	../fonts/zerothre.ttf
1390.68	n/a	WORD	695340	wordpools/wasnorm_wordpool.txt	LTP089	ltpFR	1	5	1	TERRITORY	1452	n/a	0	1	0.412841796875	0.57763671875	upper	../fonts/zerothre.ttf
1394.708	n/a	WORD	697354	wordpools/wasnorm_wordpool.txt	LTP089	ltpFR	1	5	1	KITCHEN	778	n/a	0	1	0.412841796875	0.57763671875	upper	../fonts/zerothre.ttf
1398.678	n/a	WORD	699339	wordpools/wasnorm_wordpool.txt	LTP089	ltpFR	1	5	1	SALT	1229	n/a	0	1	0.412841796875	0.57763671875	upper	../fonts/zerothre.ttf
1402.732	n/a	WORD	701366	wordpools/wasnorm_wordpool.txt	LTP089	ltpFR	1	5	1	SUITE	1404	n/a	0	1	0.412841796875	0.57763671875	upper	../fonts/zerothre.ttf
1406.678	n/a	WORD	703339	wordpools/wasnorm_wordpool.txt	LTP089	ltpFR	1	5	1	SIGNATURE	1306	n/a	0	1	0.412841796875	0.57763671875	upper	../fonts/zerothre.ttf
1410.606	n/a	WORD	705303	wordpools/wasnorm_wordpool.txt	LTP089	ltpFR	1	5	1	TECHNICIAN	1443	n/a	1	1	0.412841796875	0.57763671875	upper	../fonts/zerothre.ttf
1414.576	n/a	WORD	707288	wordpools/wasnorm_wordpool.txt	LTP089	ltpFR	1	5	1	BANJO	82	n/a	0	1	0.412841796875	0.57763671875	upper	../fonts/zerothre.ttf
1418.472	n/a	WORD	709236	wordpools/wasnorm_wordpool.txt	LTP089	ltpFR	1	5	1	LOBBY	836	n/a	0	1	0.412841796875	0.57763671875	upper	../fonts/zerothre.ttf
1422.608	n/a	WORD	711304	wordpools/wasnorm_wordpool.txt	LTP089	ltpFR	1	5	1	VIKING	1565	n/a	1	1	0.412841796875	0.57763671875	upper	../fonts/zerothre.ttf
1426.68	n/a	WORD	713340	wordpools/wasnorm_wordpool.txt	LTP089	ltpFR	1	5	1	PORT	1110	n/a	0	1	0.412841796875	0.57763671875	upper	../fonts/zerothre.ttf
1430.808	n/a	WORD	715404	wordpools/wasnorm_wordpool.txt	LTP089	ltpFR	1	5	1	KEYBOARD	774	n/a	0	1	0.412841796875	0.57763671875	upper	../fonts/zerothre.ttf
1434.812	n/a	WORD	717406	wordpools/wasnorm_wordpool.txt	LTP089	ltpFR	1	5	1	YARD	1630	n/a	0	1	0.412841796875	0.57763671875	upper	../fonts/zerothre.ttf
1438.64	n/a	WORD	719320	wordpools/wasnorm_wordpool.txt	LTP089	ltpFR	1	5	1	ANIMAL	23	n/a	1	1	0.412841796875	0.57763671875	upper	../fonts/zerothre.ttf
1442.494	n/a	WORD	721247	wordpools/wasnorm_wordpool.txt	LTP089	ltpFR	1	5	1	PANTHER	1009	n/a	1	1	0.412841796875	0.57763671875	upper	../fonts/zerothre.ttf
1446.674	n/a	WORD	723337	wordpools/wasnorm_wordpool.txt	LTP089	ltpFR	1	5	1	DRILL	497	n/a	0	1	0.412841796875	0.57763671875	upper	../fonts/zerothre.ttf
1452.418	n/a	REC_START	726209	n/a	LTP089	ltpFR	1	5	n/a	n/a	n/a	n/a	n/a	n/a	n/a	n/a	n/a	n/a
1456.438	n/a	REC_WORD	728219	wordpools/wasnorm_wordpool.txt	LTP089	ltpFR	1	5	1	NOMAD	955	n/a	1	n/a	n/a	n/a	n/a	n/a
1457.506	n/a	REC_WORD	728753	wordpools/wasnorm_wordpool.txt	LTP089	ltpFR	1	5	n/a	DESSERT	453	n/a	n/a	n/a	n/a	n/a	n/a	n/a
1458.02	n/a	REC_WORD	729010	wordpools/wasnorm_wordpool.txt	LTP089	ltpFR	1	5	1	SALT	1229	n/a	0	n/a	n/a	n/a	n/a	n/a
1459.63	n/a	REC_WORD	729815	wordpools/wasnorm_wordpool.txt	LTP089	ltpFR	1	5	n/a	SWEET	-1	n/a	n/a	n/a	n/a	n/a	n/a	n/a
1461.332	n/a	REC_WORD	730666	wordpools/wasnorm_wordpool.txt	LTP089	ltpFR	1	5	1	VIKING	1565	n/a	1	n/a	n/a	n/a	n/a	n/a
1462.15	n/a	REC_WORD	731075	wordpools/wasnorm_wordpool.txt	LTP089	ltpFR	1	5	1	TECHNICIAN	1443	n/a	1	n/a	n/a	n/a	n/a	n/a
1462.954	n/a	REC_WORD	731477	wordpools/wasnorm_wordpool.txt	LTP089	ltpFR	1	5	1	BANJO	82	n/a	0	n/a	n/a	n/a	n/a	n/a
1463.636	n/a	REC_WORD	731818	wordpools/wasnorm_wordpool.txt	LTP089	ltpFR	1	5	1	KEYBOARD	774	n/a	0	n/a	n/a	n/a	n/a	n/a
1464.346	n/a	REC_WORD	732173	wordpools/wasnorm_wordpool.txt	LTP089	ltpFR	1	5	1	PORT	1110	n/a	0	n/a	n/a	n/a	n/a	n/a
1467.058	n/a	REC_WORD	733529	wordpools/wasnorm_wordpool.txt	LTP089	ltpFR	1	5	1	LOBBY	836	n/a	0	n/a	n/a	n/a	n/a	n/a
1477.536	n/a	REC_WORD	738768	wordpools/wasnorm_wordpool.txt	LTP089	ltpFR	1	5	1	ANIMAL	23	n/a	1	n/a	n/a	n/a	n/a	n/a
1477.99	n/a	REC_WORD	738995	wordpools/wasnorm_wordpool.txt	LTP089	ltpFR	1	5	1	PANTHER	1009	n/a	1	n/a	n/a	n/a	n/a	n/a
1537.578	n/a	WORD	768789	wordpools/wasnorm_wordpool.txt	LTP089	ltpFR	1	6	1	STADIUM	1364	n/a	0	1	0.412841796875	0.57763671875	upper	../fonts/zerothre.ttf
1541.456	n/a	WORD	770728	wordpools/wasnorm_wordpool.txt	LTP089	ltpFR	1	6	1	PERSON	1052	n/a	1	1	0.412841796875	0.57763671875	upper	../fonts/zerothre.ttf
1545.56	n/a	WORD	772780	wordpools/wasnorm_wordpool.txt	LTP089	ltpFR	1	6	1	ELK	526	n/a	1	1	0.412841796875	0.57763671875	upper	../fonts/zerothre.ttf
1549.696	n/a	WORD	774848	wordpools/wasnorm_wordpool.txt	LTP089	ltpFR	1	6	1	BEER	114	n/a	1	1	0.412841796875	0.57763671875	upper	../fonts/zerothre.ttf
1553.884	n/a	WORD	776942	wordpools/wasnorm_wordpool.txt	LTP089	ltpFR	1	6	0	PORK	1108	n/a	0	0	0.5869140625	0.422607421875	lower	../fonts/amplitud.ttf
1557.878	n/a	WORD	778939	wordpools/wasnorm_wordpool.txt	LTP089	ltpFR	1	6	0	LIEUTENANT	818	n/a	1	0	0.5869140625	0.422607421875	lower	../fonts/amplitud.ttf
1561.9	n/a	WORD	780950	wordpools/wasnorm_wordpool.txt	LTP089	ltpFR	1	6	1	CUSTOMER	430	n/a	1	1	0.412841796875	0.57763671875	upper	../fonts/zerothre.ttf
1565.878	n/a	WORD	782939	wordpools/wasnorm_wordpool.txt	LTP089	ltpFR	1	6	1	DOLLAR	482	n/a	0	1	0.412841796875	0.57763671875	upper	../fonts/zerothre.ttf
1569.84	n/a	WORD	784920	wordpools/wasnorm_wordpool.txt	LTP089	ltpFR	1	6	1	ARMY	39	n/a	1	1	0.412841796875	0.57763671875	upper	../fonts/zerothre.ttf
1573.702	n/a	WORD	786851	wordpools/wasnorm_wordpool.txt	LTP089	ltpFR	1	6	1	SAW	1239	n/a	0	1	0.412841796875	0.57763671875	upper	../fonts/zerothre.ttf
1577.814	n/a	WORD	788907	wordpools/wasnorm_wordpool.txt	LTP089	ltpFR	1	6	0	GANGSTER	620	n/a	1	0	0.5869140625	0.422607421875	lower	../fonts/amplitud.ttf
1581.752	n/a	WORD	790876	wordpools/wasnorm_wordpool.txt	LTP089	ltpFR	1	6	0	UMPIRE	1535	n/a	1	0	0.5869140625	0.422607421875	lower	../fonts/amplitud.ttf
1585.638	n/a	WORD	792819	wordpools/wasnorm_wordpool.txt	LTP089	ltpFR	1	6	0	LASER	801	n/a	n/a	0	0.5869140625	0.422607421875	lower	../fonts/amplitud.ttf
1588.66	n/a	SLOW_MSG	794330	n/a	LTP089	ltpFR	1	6	n/a	n/a	n/a	n/a	n/a	n/a	n/a	n/a	n/a	n/a
1591.258	n/a	WORD	795629	wordpools/wasnorm_wordpool.txt	LTP089	ltpFR	1	6	0	BULB	192	n/a	2	0	0.5869140625	0.422607421875	lower	../fonts/amplitud.ttf
1592.34	n/a	KEY_MSG	796170	n/a	LTP089	ltpFR	1	6	n/a	n/a	n/a	n/a	n/a	n/a	n/a	n/a	n/a	n/a
1595.428	n/a	WORD	797714	wordpools/wasnorm_wordpool.txt	LTP089	ltpFR	1	6	0	HANGER	687	n/a	3	0	0.5869140625	0.422607421875	lower	../fonts/amplitud.ttf
1597.3	n/a	KEY_MSG	798650	n/a	LTP089	ltpFR	1	6	n/a	n/a	n/a	n/a	n/a	n/a	n/a	n/a	n/a	n/a
1599.88	n/a	WORD	799940	wordpools/wasnorm_wordpool.txt	LTP089	ltpFR	1	6	0	RAG	1160	n/a	2	0	0.5869140625	0.422607421875	lower	../fonts/amplitud.ttf
1600.588	n/a	KEY_MSG	800294	n/a	LTP089	ltpFR	1	6	n/a	n/a	n/a	n/a	n/a	n/a	n/a	n/a	n/a	n/a
1605.65	n/a	REC_START	802825	n/a	LTP089	ltpFR	1	6	n/a	n/a	n/a	n/a	n/a	n/a	n/a	n/a	n/a	n/a
1608.772	n/a	REC_WORD_VV	804386	wordpools/wasnorm_wordpool.txt	LTP089	ltpFR	1	6	n/a	<>	-1	n/a	n/a	n/a	n/a	n/a	n/a	n/a
1611.362	n/a	REC_WORD	805681	wordpools/wasnorm_wordpool.txt	LTP089	ltpFR	1	6	1	PERSON	1052	n/a	1	n/a	n/a	n/a	n/a	n/a
1611.974	n/a	REC_WORD	805987	wordpools/wasnorm_wordpool.txt	LTP089	ltpFR	1	6	1	CUSTOMER	430	n/a	1	n/a	n/a	n/a	n/a	n/a
1612.754	n/a	REC_WORD	806377	wordpools/wasnorm_wordpool.txt	LTP089	ltpFR	1	6	1	DOLLAR	482	n/a	0	n/a	n/a	n/a	n/a	n/a
1614.006	n/a	REC_WORD	807003	wordpools/wasnorm_wordpool.txt	LTP089	ltpFR	1	6	0	LIEUTENANT	818	n/a	1	n/a	n/a	n/a	n/a	n/a
1614.908	n/a	REC_WORD	807454	wordpools/wasnorm_wordpool.txt	LTP089	ltpFR	1	6	1	ARMY	39	n/a	1	n/a	n/a	n/a	n/a	n/a
1615.438	n/a	REC_WORD	807719	wordpools/wasnorm_wordpool.txt	LTP089	ltpFR	1	6	1	SAW	1239	n/a	0	n/a	n/a	n/a	n/a	n/a
1616.63	n/a	REC_WORD	808315	wordpools/wasnorm_wordpool.txt	LTP089	ltpFR	1	6	1	ELK	526	n/a	1	n/a	n/a	n/a	n/a	n/a
1617.362	n/a	REC_WORD	808681	wordpools/wasnorm_wordpool.txt	LTP089	ltpFR	1	6	1	BEER	114	n/a	1	n/a	n/a	n/a	n/a	n/a
1618.11	n/a	REC_WORD	809055	wordpools/wasnorm_wordpool.txt	LTP089	ltpFR	1	6	1	STADIUM	1364	n/a	0	n/a	n/a	n/a	n/a	n/a
1636.02	n/a	REC_WORD	818010	wordpools/wasnorm_wordpool.txt	LTP089	ltpFR	1	6	0	GANGSTER	620	n/a	1	n/a	n/a	n/a	n/a	n/a
1661.338	n/a	REC_WORD	830669	wordpools/wasnorm_wordpool.txt	LTP089	ltpFR	1	6	1	ELK	526	n/a	1	n/a	n/a	n/a	n/a	n/a
1833.28	n/a	WORD	916640	wordpools/wasnorm_wordpool.txt	LTP089	ltpFR	1	7	0	GREASE	660	n/a	n/a	0	0.5869140625	0.422607421875	lower	../fonts/amplitud.ttf
1836.302	n/a	SLOW_MSG	918151	n/a	LTP089	ltpFR	1	7	n/a	n/a	n/a	n/a	n/a	n/a	n/a	n/a	n/a	n/a
1838.782	n/a	WORD	919391	wordpools/wasnorm_wordpool.txt	LTP089	ltpFR	1	7	0	DRIVEWAY	500	n/a	1	0	0.5869140625	0.422607421875	lower	../fonts/amplitud.ttf
1842.96	n/a	WORD	921480	wordpools/wasnorm_wordpool.txt	LTP089	ltpFR	1	7	0	PANTS	1010	n/a	0	0	0.5869140625	0.422607421875	lower	../fonts/amplitud.ttf
1846.922	n/a	WORD	923461	wordpools/wasnorm_wordpool.txt	LTP089	ltpFR	1	7	0	LIZARD	834	n/a	0	0	0.5869140625	0.422607421875	lower	../fonts/amplitud.ttf
1851.074	n/a	WORD	925537	wordpools/wasnorm_wordpool.txt	LTP089	ltpFR	1	7	0	PREDATOR	1120	n/a	1	0	0.5869140625	0.422607421875	lower	../fonts/amplitud.ttf
1855.062	n/a	WORD	927531	wordpools/wasnorm_wordpool.txt	LTP089	ltpFR	1	7	0	LIST	830	n/a	0	0	0.5869140625	0.422607421875	lower	../fonts/amplitud.ttf
1859.066	n/a	WORD	929533	wordpools/wasnorm_wordpool.txt	LTP089	ltpFR	1	7	0	STOVE	1388	n/a	1	0	0.5869140625	0.422607421875	lower	../fonts/amplitud.ttf
1862.946	n/a	WORD	931473	wordpools/wasnorm_wordpool.txt	LTP089	ltpFR	1	7	0	SEA	1259	n/a	0	0	0.5869140625	0.422607421875	lower	../fonts/amplitud.ttf
1866.874	n/a	WORD	933437	wordpools/wasnorm_wordpool.txt	LTP089	ltpFR	1	7	0	PERSONNEL	1053	n/a	1	0	0.5869140625	0.422607421875	lower	../fonts/amplitud.ttf
1870.928	n/a	WORD	935464	wordpools/wasnorm_wordpool.txt	LTP089	ltpFR	1	7	0	COMB	351	n/a	0	0	0.5869140625	0.422607421875	lower	../fonts/amplitud.ttf
1874.89	n/a	WORD	937445	wordpools/wasnorm_wordpool.txt	LTP089	ltpFR	1	7	0	PLAZA	1088	n/a	1	0	0.5869140625	0.422607421875	lower	../fonts/amplitud.ttf
1878.894	n/a	WORD	939447	wordpools/wasnorm_wordpool.txt	LTP089	ltpFR	1	7	0	COMMITTEE	355	n/a	1	0	0.5869140625	0.422607421875	lower	../fonts/amplitud.ttf
1882.724	n/a	WORD	941362	wordpools/wasnorm_wordpool.txt	LTP089	ltpFR	1	7	0	DENTIST	447	n/a	1	0	0.5869140625	0.422607421875	lower	../fonts/amplitud.ttf
1886.536	n/a	WORD	943268	wordpools/wasnorm_wordpool.txt	LTP089	ltpFR	1	7	0	PAWN	1030	n/a	0	0	0.5869140625	0.422607421875	lower	../fonts/amplitud.ttf
1890.648	n/a	WORD	945324	wordpools/wasnorm_wordpool.txt	LTP089	ltpFR	1	7	0	YOUTH	1634	n/a	1	0	0.5869140625	0.422607421875	lower	../fonts/amplitud.ttf
1894.692	n/a	WORD	947346	wordpools/wasnorm_wordpool.txt	LTP089	ltpFR	1	7	0	ADULT	8	n/a	1	0	0.5869140625	0.422607421875	lower	../fonts/amplitud.ttf
1900.62	n/a	REC_START	950310	n/a	LTP089	ltpFR	1	7	n/a	n/a	n/a	n/a	n/a	n/a	n/a	n/a	n/a	n/a
1902.1	n/a	REC_WORD	951050	wordpools/wasnorm_wordpool.txt	LTP089	ltpFR	1	7	0	PAWN	1030	n/a	0	n/a	n/a	n/a	n/a	n/a
1902.63	n/a	REC_WORD	951315	wordpools/wasnorm_wordpool.txt	LTP089	ltpFR	1	7	0	YOUTH	1634	n/a	1	n/a	n/a	n/a	n/a	n/a
1903.178	n/a	REC_WORD	951589	wordpools/wasnorm_wordpool.txt	LTP089	ltpFR	1	7	0	ADULT	8	n/a	1	n/a	n/a	n/a	n/a	n/a
1904.62	n/a	REC_WORD	952310	wordpools/wasnorm_wordpool.txt	LTP089	ltpFR	1	7	n/a	CHILD	299	n/a	n/a	n/a	n/a	n/a	n/a	n/a
1905.304	n/a	REC_WORD	952652	wordpools/wasnorm_wordpool.txt	LTP089	ltpFR	1	7	0	PERSONNEL	1053	n/a	1	n/a	n/a	n/a	n/a	n/a
1908.69	n/a	REC_WORD	954345	wordpools/wasnorm_wordpool.txt	LTP089	ltpFR	1	7	0	LIZARD	834	n/a	0	n/a	n/a	n/a	n/a	n/a
1909.066	n/a	REC_WORD	954533	wordpools/wasnorm_wordpool.txt	LTP089	ltpFR	1	7	0	PANTS	1010	n/a	0	n/a	n/a	n/a	n/a	n/a
1909.984	n/a	REC_WORD	954992	wordpools/wasnorm_wordpool.txt	LTP089	ltpFR	1	7	0	PREDATOR	1120	n/a	1	n/a	n/a	n/a	n/a	n/a
1910.586	n/a	REC_WORD	955293	wordpools/wasnorm_wordpool.txt	LTP089	ltpFR	1	7	0	LIST	830	n/a	0	n/a	n/a	n/a	n/a	n/a
1972.986	n/a	REC_WORD	986493	wordpools/wasnorm_wordpool.txt	LTP089	ltpFR	1	7	0	DRIVEWAY	500	n/a	1	n/a	n/a	n/a	n/a	n/a
1980.328	n/a	WORD	990164	wordpools/wasnorm_wordpool.txt	LTP089	ltpFR	1	8	1	DOUGH	489	n/a	0	1	0.412841796875	0.57763671875	upper	../fonts/zerothre.ttf
1984.34	n/a	WORD	992170	wordpools/wasnorm_wordpool.txt	LTP089	ltpFR	1	8	1	MARGARINE	868	n/a	0	1	0.412841796875	0.57763671875	upper	../fonts/zerothre.ttf
1988.526	n/a	WORD	994263	wordpools/wasnorm_wordpool.txt	LTP089	ltpFR	1	8	1	CITY	314	n/a	0	1	0.412841796875	0.57763671875	upper	../fonts/zerothre.ttf
1992.614	n/a	WORD	996307	wordpools/wasnorm_wordpool.txt	LTP089	ltpFR	1	8	0	CARPENTER	246	n/a	1	0	0.5869140625	0.422607421875	lower	../fonts/amplitud.ttf
1996.542	n/a	WORD	998271	wordpools/wasnorm_wordpool.txt	LTP089	ltpFR	1	8	0	BOYFRIEND	162	n/a	1	0	0.5869140625	0.422607421875	lower	../fonts/amplitud.ttf
2000.554	n/a	WORD	1000277	wordpools/wasnorm_wordpool.txt	LTP089	ltpFR	1	8	0	CAGE	218	n/a	1	0	0.5869140625	0.422607421875	lower	../fonts/amplitud.ttf
2004.482	n/a	WORD	1002241	wordpools/wasnorm_wordpool.txt	LTP089	ltpFR	1	8	0	COUNTY	389	n/a	1	0	0.5869140625	0.422607421875	lower	../fonts/amplitud.ttf
2008.296	n/a	WORD	1004148	wordpools/wasnorm_wordpool.txt	LTP089	ltpFR	1	8	0	JACKET	747	n/a	1	0	0.5869140625	0.422607421875	lower	../fonts/amplitud.ttf
2012.14	n/a	WORD	1006070	wordpools/wasnorm_wordpool.txt	LTP089	ltpFR	1	8	0	PREACHER	1119	n/a	1	0	0.5869140625	0.422607421875	lower	../fonts/amplitud.ttf
2016.344	n/a	WORD	1008172	wordpools/wasnorm_wordpool.txt	LTP089	ltpFR	1	8	1	BABY	64	n/a	1	1	0.412841796875	0.57763671875	upper	../fonts/zerothre.ttf
2020.422	n/a	WORD	1010211	wordpools/wasnorm_wordpool.txt	LTP089	ltpFR	1	8	1	MOOSE	915	n/a	1	1	0.412841796875	0.57763671875	upper	../fonts/zerothre.ttf
2024.37	n/a	WORD	1012185	wordpools/wasnorm_wordpool.txt	LTP089	ltpFR	1	8	0	PASTRY	1022	n/a	0	0	0.5869140625	0.422607421875	lower	../fonts/amplitud.ttf
2028.264	n/a	WORD	1014132	wordpools/wasnorm_wordpool.txt	LTP089	ltpFR	1	8	0	FRUIT	610	n/a	0	0	0.5869140625	0.422607421875	lower	../fonts/amplitud.ttf
2032.31	n/a	WORD	1016155	wordpools/wasnorm_wordpool.txt	LTP089	ltpFR	1	8	1	SKYSCRAPER	1322	n/a	0	1	0.412841796875	0.57763671875	upper	../fonts/zerothre.ttf
2036.256	n/a	WORD	1018128	wordpools/wasnorm_wordpool.txt	LTP089	ltpFR	1	8	1	STEW	1380	n/a	1	1	0.412841796875	0.57763671875	upper	../fonts/zerothre.ttf
2040.226	n/a	WORD	1020113	wordpools/wasnorm_wordpool.txt	LTP089	ltpFR	1	8	1	COLESLAW	344	n/a	0	1	0.412841796875	0.57763671875	upper	../fonts/zerothre.ttf
2045.954	n/a	REC_START	1022977	n/a	LTP089	ltpFR	1	8	n/a	n/a	n/a	n/a	n/a	n/a	n/a	n/a	n/a	n/a
2049.026	n/a	REC_WORD	1024513	wordpools/wasnorm_wordpool.txt	LTP089	ltpFR	1	8	0	CARPENTER	246	n/a	1	n/a	n/a	n/a	n/a	n/a
2049.616	n/a	REC_WORD	1024808	wordpools/wasnorm_wordpool.txt	LTP089	ltpFR	1	8	0	BOYFRIEND	162	n/a	1	n/a	n/a	n/a	n/a	n/a
2050.17	n/a	REC_WORD	1025085	wordpools/wasnorm_wordpool.txt	LTP089	ltpFR	1	8	1	CITY	314	n/a	0	n/a	n/a	n/a	n/a	n/a
2050.982	n/a	REC_WORD	1025491	wordpools/wasnorm_wordpool.txt	LTP089	ltpFR	1	8	0	PASTRY	1022	n/a	0	n/a	n/a	n/a	n/a	n/a
2051.666	n/a	REC_WORD	1025833	wordpools/wasnorm_wordpool.txt	LTP089	ltpFR	1	8	1	DOUGH	489	n/a	0	n/a	n/a	n/a	n/a	n/a
2052.228	n/a	REC_WORD	1026114	wordpools/wasnorm_wordpool.txt	LTP089	ltpFR	1	8	1	MARGARINE	868	n/a	0	n/a	n/a	n/a	n/a	n/a
2057.956	n/a	REC_WORD	1028978	wordpools/wasnorm_wordpool.txt	LTP089	ltpFR	1	8	0	PREACHER	1119	n/a	1	n/a	n/a	n/a	n/a	n/a
2058.464	n/a	REC_WORD	1029232	wordpools/wasnorm_wordpool.txt	LTP089	ltpFR	1	8	0	JACKET	747	n/a	1	n/a	n/a	n/a	n/a	n/a
2060.25	n/a	REC_WORD	1030125	wordpools/wasnorm_wordpool.txt	LTP089	ltpFR	1	8	0	COUNTY	389	n/a	1	n/a	n/a	n/a	n/a	n/a
2061.044	n/a	REC_WORD	1030522	wordpools/wasnorm_wordpool.txt	LTP089	ltpFR	1	8	1	SKYSCRAPER	1322	n/a	0	n/a	n/a	n/a	n/a	n/a
2100.68	n/a	REC_WORD	1050340	wordpools/wasnorm_wordpool.txt	LTP089	ltpFR	1	8	0	FRUIT	610	n/a	0	n/a	n/a	n/a	n/a	n/a
2102.186	n/a	REC_WORD	1051093	wordpools/wasnorm_wordpool.txt	LTP089	ltpFR	1	8	0	PASTRY	1022	n/a	0	n/a	n/a	n/a	n/a	n/a
2131.162	n/a	WORD	1065581	wordpools/wasnorm_wordpool.txt	LTP089	ltpFR	1	9	-1	SHELF	1280	n/a	-1	1	1.0	1.0	upper	../fonts/Verdana.ttf
2135.108	n/a	WORD	1067554	wordpools/wasnorm_wordpool.txt	LTP089	ltpFR	1	9	-1	BOOK	149	n/a	-1	1	1.0	1.0	upper	../fonts/Verdana.ttf
2139.11	n/a	WORD	1069555	wordpools/wasnorm_wordpool.txt	LTP089	ltpFR	1	9	-1	TEAPOT	1442	n/a	-1	1	1.0	1.0	upper	../fonts/Verdana.ttf
2142.95	n/a	WORD	1071475	wordpools/wasnorm_wordpool.txt	LTP089	ltpFR	1	9	-1	CREAM	402	n/a	-1	1	1.0	1.0	upper	../fonts/Verdana.ttf
2146.854	n/a	WORD	1073427	wordpools/wasnorm_wordpool.txt	LTP089	ltpFR	1	9	-1	STAKE	1368	n/a	-1	1	1.0	1.0	upper	../fonts/Verdana.ttf
2150.964	n/a	WORD	1075482	wordpools/wasnorm_wordpool.txt	LTP089	ltpFR	1	9	-1	LINEN	825	n/a	-1	1	1.0	1.0	upper	../fonts/Verdana.ttf
2155.092	n/a	WORD	1077546	wordpools/wasnorm_wordpool.txt	LTP089	ltpFR	1	9	-1	MONK	910	n/a	-1	1	1.0	1.0	upper	../fonts/Verdana.ttf
2159.23	n/a	WORD	1079615	wordpools/wasnorm_wordpool.txt	LTP089	ltpFR	1	9	-1	FLEET	578	n/a	-1	1	1.0	1.0	upper	../fonts/Verdana.ttf
2163.284	n/a	WORD	1081642	wordpools/wasnorm_wordpool.txt	LTP089	ltpFR	1	9	-1	CUFF	423	n/a	-1	1	1.0	1.0	upper	../fonts/Verdana.ttf
2167.464	n/a	WORD	1083732	wordpools/wasnorm_wordpool.txt	LTP089	ltpFR	1	9	-1	TUXEDO	1525	n/a	-1	1	1.0	1.0	upper	../fonts/Verdana.ttf
2171.284	n/a	WORD	1085642	wordpools/wasnorm_wordpool.txt	LTP089	ltpFR	1	9	-1	MEAT	883	n/a	-1	1	1.0	1.0	upper	../fonts/Verdana.ttf
2175.146	n/a	WORD	1087573	wordpools/wasnorm_wordpool.txt	LTP089	ltpFR	1	9	-1	VEAL	1551	n/a	-1	1	1.0	1.0	upper	../fonts/Verdana.ttf
2179.108	n/a	WORD	1089554	wordpools/wasnorm_wordpool.txt	LTP089	ltpFR	1	9	-1	DINER	467	n/a	-1	1	1.0	1.0	upper	../fonts/Verdana.ttf
2183.054	n/a	WORD	1091527	wordpools/wasnorm_wordpool.txt	LTP089	ltpFR	1	9	-1	LIVER	833	n/a	-1	1	1.0	1.0	upper	../fonts/Verdana.ttf
2187.132	n/a	WORD	1093566	wordpools/wasnorm_wordpool.txt	LTP089	ltpFR	1	9	-1	CANE	231	n/a	-1	1	1.0	1.0	upper	../fonts/Verdana.ttf
2191.278	n/a	WORD	1095639	wordpools/wasnorm_wordpool.txt	LTP089	ltpFR	1	9	-1	CAFETERIA	217	n/a	-1	1	1.0	1.0	upper	../fonts/Verdana.ttf
2197.07	n/a	REC_START	1098535	n/a	LTP089	ltpFR	1	9	n/a	n/a	n/a	n/a	n/a	n/a	n/a	n/a	n/a	n/a
2199.904	n/a	REC_WORD	1099952	wordpools/wasnorm_wordpool.txt	LTP089	ltpFR	1	9	-1	SHELF	1280	n/a	-1	n/a	n/a	n/a	n/a	n/a
2200.588	n/a	REC_WORD	1100294	wordpools/wasnorm_wordpool.txt	LTP089	ltpFR	1	9	-1	BOOK	149	n/a	-1	n/a	n/a	n/a	n/a	n/a
2200.986	n/a	REC_WORD	1100493	wordpools/wasnorm_wordpool.txt	LTP089	ltpFR	1	9	-1	TEAPOT	1442	n/a	-1	n/a	n/a	n/a	n/a	n/a
2201.466	n/a	REC_WORD	1100733	wordpools/wasnorm_wordpool.txt	LTP089	ltpFR	1	9	-1	CREAM	402	n/a	-1	n/a	n/a	n/a	n/a	n/a
2201.944	n/a	REC_WORD	1100972	wordpools/wasnorm_wordpool.txt	LTP089	ltpFR	1	9	-1	STAKE	1368	n/a	-1	n/a	n/a	n/a	n/a	n/a
2203.286	n/a	REC_WORD	1101643	wordpools/wasnorm_wordpool.txt	LTP089	ltpFR	1	9	-1	VEAL	1551	n/a	-1	n/a	n/a	n/a	n/a	n/a
2204.288	n/a	REC_WORD	1102144	wordpools/wasnorm_wordpool.txt	LTP089	ltpFR	1	9	-1	MEAT	883	n/a	-1	n/a	n/a	n/a	n/a	n/a
2205.696	n/a	REC_WORD	1102848	wordpools/wasnorm_wordpool.txt	LTP089	ltpFR	1	9	-1	LINEN	825	n/a	-1	n/a	n/a	n/a	n/a	n/a
2206.334	n/a	REC_WORD	1103167	wordpools/wasnorm_wordpool.txt	LTP089	ltpFR	1	9	-1	MONK	910	n/a	-1	n/a	n/a	n/a	n/a	n/a
2206.932	n/a	REC_WORD	1103466	wordpools/wasnorm_wordpool.txt	LTP089	ltpFR	1	9	-1	FLEET	578	n/a	-1	n/a	n/a	n/a	n/a	n/a
2207.552	n/a	REC_WORD	1103776	wordpools/wasnorm_wordpool.txt	LTP089	ltpFR	1	9	-1	CUFF	423	n/a	-1	n/a	n/a	n/a	n/a	n/a
2208.156	n/a	REC_WORD	1104078	wordpools/wasnorm_wordpool.txt	LTP089	ltpFR	1	9	-1	TUXEDO	1525	n/a	-1	n/a	n/a	n/a	n/a	n/a
2209.616	n/a	REC_WORD	1104808	wordpools/wasnorm_wordpool.txt	LTP089	ltpFR	1	9	-1	CAFETERIA	217	n/a	-1	n/a	n/a	n/a	n/a	n/a
2211.034	n/a	REC_WORD	1105517	wordpools/wasnorm_wordpool.txt	LTP089	ltpFR	1	9	-1	LIVER	833	n/a	-1	n/a	n/a	n/a	n/a	n/a
2211.692	n/a	REC_WORD	1105846	wordpools/wasnorm_wordpool.txt	LTP089	ltpFR	1	9	-1	CANE	231	n/a	-1	n/a	n/a	n/a	n/a	n/a
2227.65	n/a	REC_WORD	1113825	wordpools/wasnorm_wordpool.txt	LTP089	ltpFR	1	9	-1	TUXEDO	1525	n/a	-1	n/a	n/a	n/a	n/a	n/a
2286.726	n/a	WORD	1143363	wordpools/wasnorm_wordpool.txt	LTP089	ltpFR	1	10	0	ROCK	1201	n/a	0	0	0.5869140625	0.422607421875	lower	../fonts/amplitud.ttf
2290.73	n/a	WORD	1145365	wordpools/wasnorm_wordpool.txt	LTP089	ltpFR	1	10	0	BUTTON	207	n/a	0	0	0.5869140625	0.422607421875	lower	../fonts/amplitud.ttf
2294.576	n/a	WORD	1147288	wordpools/wasnorm_wordpool.txt	LTP089	ltpFR	1	10	0	SODA	1341	n/a	0	0	0.5869140625	0.422607421875	lower	../fonts/amplitud.ttf
2298.628	n/a	WORD	1149314	wordpools/wasnorm_wordpool.txt	LTP089	ltpFR	1	10	0	HAMPER	682	n/a	1	0	0.5869140625	0.422607421875	lower	../fonts/amplitud.ttf
2302.74	n/a	WORD	1151370	wordpools/wasnorm_wordpool.txt	LTP089	ltpFR	1	10	0	SKI	1316	n/a	1	0	0.5869140625	0.422607421875	lower	../fonts/amplitud.ttf
2306.794	n/a	WORD	1153397	wordpools/wasnorm_wordpool.txt	LTP089	ltpFR	1	10	0	MUSEUM	933	n/a	1	0	0.5869140625	0.422607421875	lower	../fonts/amplitud.ttf
2310.766	n/a	WORD	1155383	wordpools/wasnorm_wordpool.txt	LTP089	ltpFR	1	10	0	MACHINE	852	n/a	1	0	0.5869140625	0.422607421875	lower	../fonts/amplitud.ttf
2314.894	n/a	WORD	1157447	wordpools/wasnorm_wordpool.txt	LTP089	ltpFR	1	10	0	PEBBLE	1035	n/a	0	0	0.5869140625	0.422607421875	lower	../fonts/amplitud.ttf
2318.732	n/a	WORD	1159366	wordpools/wasnorm_wordpool.txt	LTP089	ltpFR	1	10	0	BANQUET	86	n/a	1	0	0.5869140625	0.422607421875	lower	../fonts/amplitud.ttf
2322.71	n/a	WORD	1161355	wordpools/wasnorm_wordpool.txt	LTP089	ltpFR	1	10	0	CRAB	397	n/a	0	0	0.5869140625	0.422607421875	lower	../fonts/amplitud.ttf
2326.564	n/a	WORD	1163282	wordpools/wasnorm_wordpool.txt	LTP089	ltpFR	1	10	0	FAN	551	n/a	0	0	0.5869140625	0.422607421875	lower	../fonts/amplitud.ttf
2330.684	n/a	WORD	1165342	wordpools/wasnorm_wordpool.txt	LTP089	ltpFR	1	10	0	LANDSCAPE	799	n/a	1	0	0.5869140625	0.422607421875	lower	../fonts/amplitud.ttf
2334.812	n/a	WORD	1167406	wordpools/wasnorm_wordpool.txt	LTP089	ltpFR	1	10	0	MOWER	928	n/a	1	0	0.5869140625	0.422607421875	lower	../fonts/amplitud.ttf
2339.024	n/a	WORD	1169512	wordpools/wasnorm_wordpool.txt	LTP089	ltpFR	1	10	0	UMBRELLA	1534	n/a	1	0	0.5869140625	0.422607421875	lower	../fonts/amplitud.ttf
2343.228	n/a	WORD	1171614	wordpools/wasnorm_wordpool.txt	LTP089	ltpFR	1	10	0	XEROX	1628	n/a	1	0	0.5869140625	0.422607421875	lower	../fonts/amplitud.ttf
2347.374	n/a	WORD	1173687	wordpools/wasnorm_wordpool.txt	LTP089	ltpFR	1	10	0	TOE	1473	n/a	1	0	0.5869140625	0.422607421875	lower	../fonts/amplitud.ttf
2353.276	n/a	REC_START	1176638	n/a	LTP089	ltpFR	1	10	n/a	n/a	n/a	n/a	n/a	n/a	n/a	n/a	n/a	n/a
2357.156	n/a	REC_WORD	1178578	wordpools/wasnorm_wordpool.txt	LTP089	ltpFR	1	10	0	LANDSCAPE	799	n/a	1	n/a	n/a	n/a	n/a	n/a
2358.348	n/a	REC_WORD	1179174	wordpools/wasnorm_wordpool.txt	LTP089	ltpFR	1	10	0	MUSEUM	933	n/a	1	n/a	n/a	n/a	n/a	n/a
2359.246	n/a	REC_WORD	1179623	wordpools/wasnorm_wordpool.txt	LTP089	ltpFR	1	10	0	BANQUET	86	n/a	1	n/a	n/a	n/a	n/a	n/a
2360.404	n/a	REC_WORD	1180202	wordpools/wasnorm_wordpool.txt	LTP089	ltpFR	1	10	0	CRAB	397	n/a	0	n/a	n/a	n/a	n/a	n/a
2360.982	n/a	REC_WORD	1180491	wordpools/wasnorm_wordpool.txt	LTP089	ltpFR	1	10	0	BUTTON	207	n/a	0	n/a	n/a	n/a	n/a	n/a
2361.662	n/a	REC_WORD	1180831	wordpools/wasnorm_wordpool.txt	LTP089	ltpFR	1	10	0	PEBBLE	1035	n/a	0	n/a	n/a	n/a	n/a	n/a
2362.4	n/a	REC_WORD	1181200	wordpools/wasnorm_wordpool.txt	LTP089	ltpFR	1	10	n/a	BEETLE	116	n/a	n/a	n/a	n/a	n/a	n/a	n/a
2364.464	n/a	REC_WORD	1182232	wordpools/wasnorm_wordpool.txt	LTP089	ltpFR	1	10	0	HAMPER	682	n/a	1	n/a	n/a	n/a	n/a	n/a
2448.598	n/a	WORD	1224299	wordpools/wasnorm_wordpool.txt	LTP089	ltpFR	1	11	-1	BOMB	147	n/a	-1	1	1.0	1.0	upper	../fonts/Verdana.ttf
2452.428	n/a	WORD	1226214	wordpools/wasnorm_wordpool.txt	LTP089	ltpFR	1	11	-1	DIAPER	459	n/a	-1	1	1.0	1.0	upper	../fonts/Verdana.ttf
2456.29	n/a	WORD	1228145	wordpools/wasnorm_wordpool.txt	LTP089	ltpFR	1	11	-1	SPINACH	1352	n/a	-1	1	1.0	1.0	upper	../fonts/Verdana.ttf
2460.118	n/a	WORD	1230059	wordpools/wasnorm_wordpool.txt	LTP089	ltpFR	1	11	-1	CAULIFLOWER	262	n/a	-1	1	1.0	1.0	upper	../fonts/Verdana.ttf
2463.964	n/a	WORD	1231982	wordpools/wasnorm_wordpool.txt	LTP089	ltpFR	1	11	-1	PASSAGE	1019	n/a	-1	1	1.0	1.0	upper	../fonts/Verdana.ttf
2468.16	n/a	WORD	1234080	wordpools/wasnorm_wordpool.txt	LTP089	ltpFR	1	11	-1	KNOB	787	n/a	-1	1	1.0	1.0	upper	../fonts/Verdana.ttf
2472.096	n/a	WORD	1236048	wordpools/wasnorm_wordpool.txt	LTP089	ltpFR	1	11	-1	DIAGRAM	456	n/a	-1	1	1.0	1.0	upper	../fonts/Verdana.ttf
2476.026	n/a	WORD	1238013	wordpools/wasnorm_wordpool.txt	LTP089	ltpFR	1	11	-1	MOUTH	926	n/a	-1	1	1.0	1.0	upper	../fonts/Verdana.ttf
2480.212	n/a	WORD	1240106	wordpools/wasnorm_wordpool.txt	LTP089	ltpFR	1	11	-1	CONTRACTOR	369	n/a	-1	1	1.0	1.0	upper	../fonts/Verdana.ttf
2484.366	n/a	WORD	1242183	wordpools/wasnorm_wordpool.txt	LTP089	ltpFR	1	11	-1	HEAD	695	n/a	-1	1	1.0	1.0	upper	../fonts/Verdana.ttf
2488.428	n/a	WORD	1244214	wordpools/wasnorm_wordpool.txt	LTP089	ltpFR	1	11	-1	POWDER	1117	n/a	-1	1	1.0	1.0	upper	../fonts/Verdana.ttf
2492.44	n/a	WORD	1246220	wordpools/wasnorm_wordpool.txt	LTP089	ltpFR	1	11	-1	GUEST	669	n/a	-1	1	1.0	1.0	upper	../fonts/Verdana.ttf
2496.428	n/a	WORD	1248214	wordpools/wasnorm_wordpool.txt	LTP089	ltpFR	1	11	-1	CRADLE	399	n/a	-1	1	1.0	1.0	upper	../fonts/Verdana.ttf
2500.356	n/a	WORD	1250178	wordpools/wasnorm_wordpool.txt	LTP089	ltpFR	1	11	-1	CHOCOLATE	306	n/a	-1	1	1.0	1.0	upper	../fonts/Verdana.ttf
2504.2	n/a	WORD	1252100	wordpools/wasnorm_wordpool.txt	LTP089	ltpFR	1	11	-1	BLACKBERRY	132	n/a	-1	1	1.0	1.0	upper	../fonts/Verdana.ttf
2508.03	n/a	WORD	1254015	wordpools/wasnorm_wordpool.txt	LTP089	ltpFR	1	11	-1	BEARD	107	n/a	-1	1	1.0	1.0	upper	../fonts/Verdana.ttf
2513.708	n/a	REC_START	1256854	n/a	LTP089	ltpFR	1	11	n/a	n/a	n/a	n/a	n/a	n/a	n/a	n/a	n/a	n/a
2516.332	n/a	REC_WORD	1258166	wordpools/wasnorm_wordpool.txt	LTP089	ltpFR	1	11	-1	BOMB	147	n/a	-1	n/a	n/a	n/a	n/a	n/a
2516.53	n/a	REC_WORD	1258265	wordpools/wasnorm_wordpool.txt	LTP089	ltpFR	1	11	-1	SPINACH	1352	n/a	-1	n/a	n/a	n/a	n/a	n/a
2517.06	n/a	REC_WORD	1258530	wordpools/wasnorm_wordpool.txt	LTP089	ltpFR	1	11	-1	CAULIFLOWER	262	n/a	-1	n/a	n/a	n/a	n/a	n/a
2517.708	n/a	REC_WORD	1258854	wordpools/wasnorm_wordpool.txt	LTP089	ltpFR	1	11	n/a	BERRY	122	n/a	n/a	n/a	n/a	n/a	n/a	n/a
2518.152	n/a	REC_WORD	1259076	wordpools/wasnorm_wordpool.txt	LTP089	ltpFR	1	11	-1	DIAPER	459	n/a	-1	n/a	n/a	n/a	n/a	n/a
2518.806	n/a	REC_WORD	1259403	wordpools/wasnorm_wordpool.txt	LTP089	ltpFR	1	11	-1	CRADLE	399	n/a	-1	n/a	n/a	n/a	n/a	n/a
2520.652	n/a	REC_WORD	1260326	wordpools/wasnorm_wordpool.txt	LTP089	ltpFR	1	11	-1	POWDER	1117	n/a	-1	n/a	n/a	n/a	n/a	n/a
2521.61	n/a	REC_WORD	1260805	wordpools/wasnorm_wordpool.txt	LTP089	ltpFR	1	11	-1	PASSAGE	1019	n/a	-1	n/a	n/a	n/a	n/a	n/a
2522.866	n/a	REC_WORD	1261433	wordpools/wasnorm_wordpool.txt	LTP089	ltpFR	1	11	-1	KNOB	787	n/a	-1	n/a	n/a	n/a	n/a	n/a
2523.704	n/a	REC_WORD	1261852	wordpools/wasnorm_wordpool.txt	LTP089	ltpFR	1	11	-1	DIAGRAM	456	n/a	-1	n/a	n/a	n/a	n/a	n/a
2524.308	n/a	REC_WORD	1262154	wordpools/wasnorm_wordpool.txt	LTP089	ltpFR	1	11	-1	CONTRACTOR	369	n/a	-1	n/a	n/a	n/a	n/a	n/a
2525.162	n/a	REC_WORD	1262581	wordpools/wasnorm_wordpool.txt	LTP089	ltpFR	1	11	-1	BEARD	107	n/a	-1	n/a	n/a	n/a	n/a	n/a
2582.182	n/a	REC_WORD	1291091	wordpools/wasnorm_wordpool.txt	LTP089	ltpFR	1	11	-1	MOUTH	926	n/a	-1	n/a	n/a	n/a	n/a	n/a
2600.858	n/a	WORD	1300429	wordpools/wasnorm_wordpool.txt	LTP089	ltpFR	1	12	0	SINK	1309	n/a	0	0	0.5869140625	0.422607421875	lower	../fonts/amplitud.ttf
2604.736	n/a	WORD	1302368	wordpools/wasnorm_wordpool.txt	LTP089	ltpFR	1	12	0	REEF	1177	n/a	1	0	0.5869140625	0.422607421875	lower	../fonts/amplitud.ttf
2608.64	n/a	WORD	1304320	wordpools/wasnorm_wordpool.txt	LTP089	ltpFR	1	12	0	HEADBAND	696	n/a	n/a	0	0.5869140625	0.422607421875	lower	../fonts/amplitud.ttf
2611.662	n/a	SLOW_MSG	1305831	n/a	LTP089	ltpFR	1	12	n/a	n/a	n/a	n/a	n/a	n/a	n/a	n/a	n/a	n/a
2614.216	n/a	WORD	1307108	wordpools/wasnorm_wordpool.txt	LTP089	ltpFR	1	12	0	BUFFALO	186	n/a	1	0	0.5869140625	0.422607421875	lower	../fonts/amplitud.ttf
2618.246	n/a	WORD	1309123	wordpools/wasnorm_wordpool.txt	LTP089	ltpFR	1	12	0	FOX	598	n/a	1	0	0.5869140625	0.422607421875	lower	../fonts/amplitud.ttf
2622.274	n/a	WORD	1311137	wordpools/wasnorm_wordpool.txt	LTP089	ltpFR	1	12	0	GARDEN	623	n/a	1	0	0.5869140625	0.422607421875	lower	../fonts/amplitud.ttf
2626.304	n/a	WORD	1313152	wordpools/wasnorm_wordpool.txt	LTP089	ltpFR	1	12	0	SLIME	1327	n/a	0	0	0.5869140625	0.422607421875	lower	../fonts/amplitud.ttf
2630.172	n/a	WORD	1315086	wordpools/wasnorm_wordpool.txt	LTP089	ltpFR	1	12	0	ASIA	46	n/a	1	0	0.5869140625	0.422607421875	lower	../fonts/amplitud.ttf
2634.068	n/a	WORD	1317034	wordpools/wasnorm_wordpool.txt	LTP089	ltpFR	1	12	0	DISH	474	n/a	0	0	0.5869140625	0.422607421875	lower	../fonts/amplitud.ttf
2638.206	n/a	WORD	1319103	wordpools/wasnorm_wordpool.txt	LTP089	ltpFR	1	12	0	SAGE	1222	n/a	1	0	0.5869140625	0.422607421875	lower	../fonts/amplitud.ttf
2642.41	n/a	WORD	1321205	wordpools/wasnorm_wordpool.txt	LTP089	ltpFR	1	12	0	PEPPER	1047	n/a	0	0	0.5869140625	0.422607421875	lower	../fonts/amplitud.ttf
2646.306	n/a	WORD	1323153	wordpools/wasnorm_wordpool.txt	LTP089	ltpFR	1	12	0	JAPAN	749	n/a	1	0	0.5869140625	0.422607421875	lower	../fonts/amplitud.ttf
2650.142	n/a	WORD	1325071	wordpools/wasnorm_wordpool.txt	LTP089	ltpFR	1	12	0	BRUNETTE	181	n/a	1	0	0.5869140625	0.422607421875	lower	../fonts/amplitud.ttf
2654.196	n/a	WORD	1327098	wordpools/wasnorm_wordpool.txt	LTP089	ltpFR	1	12	0	HOSE	720	n/a	0	0	0.5869140625	0.422607421875	lower	../fonts/amplitud.ttf
2658.132	n/a	WORD	1329066	wordpools/wasnorm_wordpool.txt	LTP089	ltpFR	1	12	0	THORN	1459	n/a	0	0	0.5869140625	0.422607421875	lower	../fonts/amplitud.ttf
2661.986	n/a	WORD	1330993	wordpools/wasnorm_wordpool.txt	LTP089	ltpFR	1	12	0	OFFICER	973	n/a	1	0	0.5869140625	0.422607421875	lower	../fonts/amplitud.ttf
2668.048	n/a	REC_START	1334024	n/a	LTP089	ltpFR	1	12	n/a	n/a	n/a	n/a	n/a	n/a	n/a	n/a	n/a	n/a
2671.66	n/a	REC_WORD	1335830	wordpools/wasnorm_wordpool.txt	LTP089	ltpFR	1	12	0	SAGE	1222	n/a	1	n/a	n/a	n/a	n/a	n/a
2672.762	n/a	REC_WORD	1336381	wordpools/wasnorm_wordpool.txt	LTP089	ltpFR	1	12	0	PEPPER	1047	n/a	0	n/a	n/a	n/a	n/a	n/a
2673.77	n/a	REC_WORD	1336885	wordpools/wasnorm_wordpool.txt	LTP089	ltpFR	1	12	0	OFFICER	973	n/a	1	n/a	n/a	n/a	n/a	n/a
2678.28	n/a	REC_WORD	1339140	wordpools/wasnorm_wordpool.txt	LTP089	ltpFR	1	12	0	GARDEN	623	n/a	1	n/a	n/a	n/a	n/a	n/a
2743.636	n/a	REST_REWET	1371818	n/a	LTP089	ltpFR	1	12	n/a	n/a	n/a	n/a	n/a	n/a	n/a	n/a	n/a	n/a
3260.342	n/a	WORD	1630171	wordpools/wasnorm_wordpool.txt	LTP089	ltpFR	1	13	-1	SILVERWARE	1308	n/a	-1	1	1.0	1.0	upper	../fonts/Verdana.ttf
3264.472	n/a	WORD	1632236	wordpools/wasnorm_wordpool.txt	LTP089	ltpFR	1	13	-1	CHERRY	293	n/a	-1	1	1.0	1.0	upper	../fonts/Verdana.ttf
3268.558	n/a	WORD	1634279	wordpools/wasnorm_wordpool.txt	LTP089	ltpFR	1	13	-1	RAISIN	1163	n/a	-1	1	1.0	1.0	upper	../fonts/Verdana.ttf
3272.454	n/a	WORD	1636227	wordpools/wasnorm_wordpool.txt	LTP089	ltpFR	1	13	-1	DAGGER	434	n/a	-1	1	1.0	1.0	upper	../fonts/Verdana.ttf
3276.432	n/a	WORD	1638216	wordpools/wasnorm_wordpool.txt	LTP089	ltpFR	1	13	-1	BUILDING	191	n/a	-1	1	1.0	1.0	upper	../fonts/Verdana.ttf
3280.278	n/a	WORD	1640139	wordpools/wasnorm_wordpool.txt	LTP089	ltpFR	1	13	-1	BRICK	172	n/a	-1	1	1.0	1.0	upper	../fonts/Verdana.ttf
3284.456	n/a	WORD	1642228	wordpools/wasnorm_wordpool.txt	LTP089	ltpFR	1	13	-1	BAY	102	n/a	-1	1	1.0	1.0	upper	../fonts/Verdana.ttf
3288.652	n/a	WORD	1644326	wordpools/wasnorm_wordpool.txt	LTP089	ltpFR	1	13	-1	LAKE	796	n/a	-1	1	1.0	1.0	upper	../fonts/Verdana.ttf
3292.846	n/a	WORD	1646423	wordpools/wasnorm_wordpool.txt	LTP089	ltpFR	1	13	-1	GRASS	655	n/a	-1	1	1.0	1.0	upper	../fonts/Verdana.ttf
3296.75	n/a	WORD	1648375	wordpools/wasnorm_wordpool.txt	LTP089	ltpFR	1	13	-1	APPLE	33	n/a	-1	1	1.0	1.0	upper	../fonts/Verdana.ttf
3300.77	n/a	WORD	1650385	wordpools/wasnorm_wordpool.txt	LTP089	ltpFR	1	13	-1	TREAD	1499	n/a	-1	1	1.0	1.0	upper	../fonts/Verdana.ttf
3304.692	n/a	WORD	1652346	wordpools/wasnorm_wordpool.txt	LTP089	ltpFR	1	13	-1	CONCRETE	361	n/a	-1	1	1.0	1.0	upper	../fonts/Verdana.ttf
3308.57	n/a	WORD	1654285	wordpools/wasnorm_wordpool.txt	LTP089	ltpFR	1	13	-1	GRILL	661	n/a	-1	1	1.0	1.0	upper	../fonts/Verdana.ttf
3312.632	n/a	WORD	1656316	wordpools/wasnorm_wordpool.txt	LTP089	ltpFR	1	13	-1	DOUGHNUT	490	n/a	-1	1	1.0	1.0	upper	../fonts/Verdana.ttf
3316.818	n/a	WORD	1658409	wordpools/wasnorm_wordpool.txt	LTP089	ltpFR	1	13	-1	HEDGE	699	n/a	-1	1	1.0	1.0	upper	../fonts/Verdana.ttf
3320.832	n/a	WORD	1660416	wordpools/wasnorm_wordpool.txt	LTP089	ltpFR	1	13	-1	CONSUMER	365	n/a	-1	1	1.0	1.0	upper	../fonts/Verdana.ttf
3326.584	n/a	REC_START	1663292	n/a	LTP089	ltpFR	1	13	n/a	n/a	n/a	n/a	n/a	n/a	n/a	n/a	n/a	n/a
3329.284	n/a	REC_WORD	1664642	wordpools/wasnorm_wordpool.txt	LTP089	ltpFR	1	13	-1	SILVERWARE	1308	n/a	-1	n/a	n/a	n/a	n/a	n/a
3329.95	n/a	REC_WORD	1664975	wordpools/wasnorm_wordpool.txt	LTP089	ltpFR	1	13	-1	CHERRY	293	n/a	-1	n/a	n/a	n/a	n/a	n/a
3330.44	n/a	REC_WORD	1665220	wordpools/wasnorm_wordpool.txt	LTP089	ltpFR	1	13	-1	RAISIN	1163	n/a	-1	n/a	n/a	n/a	n/a	n/a
3331.01	n/a	REC_WORD	1665505	wordpools/wasnorm_wordpool.txt	LTP089	ltpFR	1	13	-1	DAGGER	434	n/a	-1	n/a	n/a	n/a	n/a	n/a
3331.548	n/a	REC_WORD	1665774	wordpools/wasnorm_wordpool.txt	LTP089	ltpFR	1	13	-1	BRICK	172	n/a	-1	n/a	n/a	n/a	n/a	n/a
3332.516	n/a	REC_WORD	1666258	wordpools/wasnorm_wordpool.txt	LTP089	ltpFR	1	13	-1	BAY	102	n/a	-1	n/a	n/a	n/a	n/a	n/a
3333.318	n/a	REC_WORD	1666659	wordpools/wasnorm_wordpool.txt	LTP089	ltpFR	1	13	n/a	MEADOW	881	n/a	n/a	n/a	n/a	n/a	n/a	n/a
3334.312	n/a	REC_WORD	1667156	wordpools/wasnorm_wordpool.txt	LTP089	ltpFR	1	13	-1	GRASS	655	n/a	-1	n/a	n/a	n/a	n/a	n/a
3335.44	n/a	REC_WORD	1667720	wordpools/wasnorm_wordpool.txt	LTP089	ltpFR	1	13	n/a	TREE	1502	n/a	n/a	n/a	n/a	n/a	n/a	n/a
3335.918	n/a	REC_WORD	1667959	wordpools/wasnorm_wordpool.txt	LTP089	ltpFR	1	13	-1	APPLE	33	n/a	-1	n/a	n/a	n/a	n/a	n/a
3336.766	n/a	REC_WORD	1668383	wordpools/wasnorm_wordpool.txt	LTP089	ltpFR	1	13	-1	TREAD	1499	n/a	-1	n/a	n/a	n/a	n/a	n/a
3337.954	n/a	REC_WORD	1668977	wordpools/wasnorm_wordpool.txt	LTP089	ltpFR	1	13	-1	GRILL	661	n/a	-1	n/a	n/a	n/a	n/a	n/a
3339.09	n/a	REC_WORD	1669545	wordpools/wasnorm_wordpool.txt	LTP089	ltpFR	1	13	-1	CONSUMER	365	n/a	-1	n/a	n/a	n/a	n/a	n/a
3339.88	n/a	REC_WORD	1669940	wordpools/wasnorm_wordpool.txt	LTP089	ltpFR	1	13	-1	HEDGE	699	n/a	-1	n/a	n/a	n/a	n/a	n/a
3348.718	n/a	REC_WORD	1674359	wordpools/wasnorm_wordpool.txt	LTP089	ltpFR	1	13	-1	BRICK	172	n/a	-1	n/a	n/a	n/a	n/a	n/a
3405.368	n/a	WORD	1702684	wordpools/wasnorm_wordpool.txt	LTP089	ltpFR	1	14	-1	HOSTAGE	722	n/a	-1	1	1.0	1.0	upper	../fonts/Verdana.ttf
3409.238	n/a	WORD	1704619	wordpools/wasnorm_wordpool.txt	LTP089	ltpFR	1	14	-1	BLOCKADE	137	n/a	-1	1	1.0	1.0	upper	../fonts/Verdana.ttf
3413.1	n/a	WORD	1706550	wordpools/wasnorm_wordpool.txt	LTP089	ltpFR	1	14	-1	BOULEVARD	156	n/a	-1	1	1.0	1.0	upper	../fonts/Verdana.ttf
3416.914	n/a	WORD	1708457	wordpools/wasnorm_wordpool.txt	LTP089	ltpFR	1	14	-1	WOUND	1624	n/a	-1	1	1.0	1.0	upper	../fonts/Verdana.ttf
3421.024	n/a	WORD	1710512	wordpools/wasnorm_wordpool.txt	LTP089	ltpFR	1	14	-1	BANDAGE	79	n/a	-1	1	1.0	1.0	upper	../fonts/Verdana.ttf
3425.094	n/a	WORD	1712547	wordpools/wasnorm_wordpool.txt	LTP089	ltpFR	1	14	-1	TEMPLE	1448	n/a	-1	1	1.0	1.0	upper	../fonts/Verdana.ttf
3429.232	n/a	WORD	1714616	wordpools/wasnorm_wordpool.txt	LTP089	ltpFR	1	14	-1	PLUM	1090	n/a	-1	1	1.0	1.0	upper	../fonts/Verdana.ttf
3433.32	n/a	WORD	1716660	wordpools/wasnorm_wordpool.txt	LTP089	ltpFR	1	14	-1	CHEF	290	n/a	-1	1	1.0	1.0	upper	../fonts/Verdana.ttf
3437.298	n/a	WORD	1718649	wordpools/wasnorm_wordpool.txt	LTP089	ltpFR	1	14	-1	SOLDIER	1344	n/a	-1	1	1.0	1.0	upper	../fonts/Verdana.ttf
3441.11	n/a	WORD	1720555	wordpools/wasnorm_wordpool.txt	LTP089	ltpFR	1	14	-1	RIFLE	1192	n/a	-1	1	1.0	1.0	upper	../fonts/Verdana.ttf
3445.196	n/a	WORD	1722598	wordpools/wasnorm_wordpool.txt	LTP089	ltpFR	1	14	-1	DINNER	468	n/a	-1	1	1.0	1.0	upper	../fonts/Verdana.ttf
3449.242	n/a	WORD	1724621	wordpools/wasnorm_wordpool.txt	LTP089	ltpFR	1	14	-1	PEAR	1033	n/a	-1	1	1.0	1.0	upper	../fonts/Verdana.ttf
3453.136	n/a	WORD	1726568	wordpools/wasnorm_wordpool.txt	LTP089	ltpFR	1	14	-1	COCOON	339	n/a	-1	1	1.0	1.0	upper	../fonts/Verdana.ttf
3457.024	n/a	WORD	1728512	wordpools/wasnorm_wordpool.txt	LTP089	ltpFR	1	14	-1	MOTH	920	n/a	-1	1	1.0	1.0	upper	../fonts/Verdana.ttf
3460.986	n/a	WORD	1730493	wordpools/wasnorm_wordpool.txt	LTP089	ltpFR	1	14	-1	TYPEWRITER	1531	n/a	-1	1	1.0	1.0	upper	../fonts/Verdana.ttf
3465.082	n/a	WORD	1732541	wordpools/wasnorm_wordpool.txt	LTP089	ltpFR	1	14	-1	NAPKIN	937	n/a	-1	1	1.0	1.0	upper	../fonts/Verdana.ttf
3471.084	n/a	REC_START	1735542	n/a	LTP089	ltpFR	1	14	n/a	n/a	n/a	n/a	n/a	n/a	n/a	n/a	n/a	n/a
3473.818	n/a	REC_WORD_VV	1736909	wordpools/wasnorm_wordpool.txt	LTP089	ltpFR	1	14	n/a	<>	-1	n/a	n/a	n/a	n/a	n/a	n/a	n/a
3475.084	n/a	REC_WORD	1737542	wordpools/wasnorm_wordpool.txt	LTP089	ltpFR	1	14	-1	BLOCKADE	137	n/a	-1	n/a	n/a	n/a	n/a	n/a
3475.974	n/a	REC_WORD	1737987	wordpools/wasnorm_wordpool.txt	LTP089	ltpFR	1	14	-1	BOULEVARD	156	n/a	-1	n/a	n/a	n/a	n/a	n/a
3477.16	n/a	REC_WORD	1738580	wordpools/wasnorm_wordpool.txt	LTP089	ltpFR	1	14	-1	HOSTAGE	722	n/a	-1	n/a	n/a	n/a	n/a	n/a
3477.988	n/a	REC_WORD	1738994	wordpools/wasnorm_wordpool.txt	LTP089	ltpFR	1	14	-1	WOUND	1624	n/a	-1	n/a	n/a	n/a	n/a	n/a
3478.926	n/a	REC_WORD	1739463	wordpools/wasnorm_wordpool.txt	LTP089	ltpFR	1	14	-1	BANDAGE	79	n/a	-1	n/a	n/a	n/a	n/a	n/a
3479.564	n/a	REC_WORD	1739782	wordpools/wasnorm_wordpool.txt	LTP089	ltpFR	1	14	-1	CHEF	290	n/a	-1	n/a	n/a	n/a	n/a	n/a
3480.772	n/a	REC_WORD	1740386	wordpools/wasnorm_wordpool.txt	LTP089	ltpFR	1	14	-1	PLUM	1090	n/a	-1	n/a	n/a	n/a	n/a	n/a
3481.596	n/a	REC_WORD	1740798	wordpools/wasnorm_wordpool.txt	LTP089	ltpFR	1	14	-1	PEAR	1033	n/a	-1	n/a	n/a	n/a	n/a	n/a
3483.126	n/a	REC_WORD	1741563	wordpools/wasnorm_wordpool.txt	LTP089	ltpFR	1	14	-1	TYPEWRITER	1531	n/a	-1	n/a	n/a	n/a	n/a	n/a
3485.766	n/a	REC_WORD	1742883	wordpools/wasnorm_wordpool.txt	LTP089	ltpFR	1	14	-1	SOLDIER	1344	n/a	-1	n/a	n/a	n/a	n/a	n/a
3486.598	n/a	REC_WORD	1743299	wordpools/wasnorm_wordpool.txt	LTP089	ltpFR	1	14	-1	RIFLE	1192	n/a	-1	n/a	n/a	n/a	n/a	n/a
3487.526	n/a	REC_WORD	1743763	wordpools/wasnorm_wordpool.txt	LTP089	ltpFR	1	14	-1	BLOCKADE	137	n/a	-1	n/a	n/a	n/a	n/a	n/a
3488.63	n/a	REC_WORD	1744315	wordpools/wasnorm_wordpool.txt	LTP089	ltpFR	1	14	-1	BOULEVARD	156	n/a	-1	n/a	n/a	n/a	n/a	n/a
3495.558	n/a	REC_WORD	1747779	wordpools/wasnorm_wordpool.txt	LTP089	ltpFR	1	14	n/a	MEAL	882	n/a	n/a	n/a	n/a	n/a	n/a	n/a
3496.462	n/a	REC_WORD	1748231	wordpools/wasnorm_wordpool.txt	LTP089	ltpFR	1	14	-1	NAPKIN	937	n/a	-1	n/a	n/a	n/a	n/a	n/a
3498.298	n/a	REC_WORD	1749149	wordpools/wasnorm_wordpool.txt	LTP089	ltpFR	1	14	-1	TYPEWRITER	1531	n/a	-1	n/a	n/a	n/a	n/a	n/a
3554.814	n/a	WORD	1777407	wordpools/wasnorm_wordpool.txt	LTP089	ltpFR	1	15	0	SAUSAGE	1238	n/a	0	0	0.5869140625	0.422607421875	lower	../fonts/amplitud.ttf
3558.884	n/a	WORD	1779442	wordpools/wasnorm_wordpool.txt	LTP089	ltpFR	1	15	0	BLUEJAY	141	n/a	0	0	0.5869140625	0.422607421875	lower	../fonts/amplitud.ttf
3562.954	n/a	WORD	1781477	wordpools/wasnorm_wordpool.txt	LTP089	ltpFR	1	15	1	STAGE	1366	n/a	0	1	0.412841796875	0.57763671875	upper	../fonts/zerothre.ttf
3566.882	n/a	WORD	1783441	wordpools/wasnorm_wordpool.txt	LTP089	ltpFR	1	15	1	GROCERIES	663	n/a	0	1	0.412841796875	0.57763671875	upper	../fonts/zerothre.ttf
3570.804	n/a	WORD	1785402	wordpools/wasnorm_wordpool.txt	LTP089	ltpFR	1	15	1	OWL	992	n/a	1	1	0.412841796875	0.57763671875	upper	../fonts/zerothre.ttf
3574.906	n/a	WORD	1787453	wordpools/wasnorm_wordpool.txt	LTP089	ltpFR	1	15	0	MISTER	901	n/a	1	0	0.5869140625	0.422607421875	lower	../fonts/amplitud.ttf
3578.96	n/a	WORD	1789480	wordpools/wasnorm_wordpool.txt	LTP089	ltpFR	1	15	0	EXPLOSION	544	n/a	1	0	0.5869140625	0.422607421875	lower	../fonts/amplitud.ttf
3582.848	n/a	WORD	1791424	wordpools/wasnorm_wordpool.txt	LTP089	ltpFR	1	15	0	BUBBLE	183	n/a	0	0	0.5869140625	0.422607421875	lower	../fonts/amplitud.ttf
3586.718	n/a	WORD	1793359	wordpools/wasnorm_wordpool.txt	LTP089	ltpFR	1	15	0	MARS	873	n/a	1	0	0.5869140625	0.422607421875	lower	../fonts/amplitud.ttf
3590.614	n/a	WORD	1795307	wordpools/wasnorm_wordpool.txt	LTP089	ltpFR	1	15	1	UNIVERSE	1540	n/a	1	1	0.412841796875	0.57763671875	upper	../fonts/zerothre.ttf
3594.668	n/a	WORD	1797334	wordpools/wasnorm_wordpool.txt	LTP089	ltpFR	1	15	1	BELT	120	n/a	0	1	0.412841796875	0.57763671875	upper	../fonts/zerothre.ttf
3598.63	n/a	WORD	1799315	wordpools/wasnorm_wordpool.txt	LTP089	ltpFR	1	15	1	WAIST	1579	n/a	0	1	0.412841796875	0.57763671875	upper	../fonts/zerothre.ttf
3602.816	n/a	WORD	1801408	wordpools/wasnorm_wordpool.txt	LTP089	ltpFR	1	15	1	BARRACUDA	90	n/a	1	1	0.412841796875	0.57763671875	upper	../fonts/zerothre.ttf
3606.928	n/a	WORD	1803464	wordpools/wasnorm_wordpool.txt	LTP089	ltpFR	1	15	1	PELT	1040	n/a	0	1	0.412841796875	0.57763671875	upper	../fonts/zerothre.ttf
3611.008	n/a	WORD	1805504	wordpools/wasnorm_wordpool.txt	LTP089	ltpFR	1	15	0	BEAVER	109	n/a	1	0	0.5869140625	0.422607421875	lower	../fonts/amplitud.ttf
3615.184	n/a	WORD	1807592	wordpools/wasnorm_wordpool.txt	LTP089	ltpFR	1	15	0	BIRD	129	n/a	1	0	0.5869140625	0.422607421875	lower	../fonts/amplitud.ttf
3621.162	n/a	REC_START	1810581	n/a	LTP089	ltpFR	1	15	n/a	n/a	n/a	n/a	n/a	n/a	n/a	n/a	n/a	n/a
3625.756	n/a	REC_WORD	1812878	wordpools/wasnorm_wordpool.txt	LTP089	ltpFR	1	15	0	BLUEJAY	141	n/a	0	n/a	n/a	n/a	n/a	n/a
3626.614	n/a	REC_WORD	1813307	wordpools/wasnorm_wordpool.txt	LTP089	ltpFR	1	15	0	BUBBLE	183	n/a	0	n/a	n/a	n/a	n/a	n/a
3627.482	n/a	REC_WORD	1813741	wordpools/wasnorm_wordpool.txt	LTP089	ltpFR	1	15	1	OWL	992	n/a	1	n/a	n/a	n/a	n/a	n/a
3628.364	n/a	REC_WORD	1814182	wordpools/wasnorm_wordpool.txt	LTP089	ltpFR	1	15	0	SAUSAGE	1238	n/a	0	n/a	n/a	n/a	n/a	n/a
3629.388	n/a	REC_WORD	1814694	wordpools/wasnorm_wordpool.txt	LTP089	ltpFR	1	15	1	GROCERIES	663	n/a	0	n/a	n/a	n/a	n/a	n/a
3630.206	n/a	REC_WORD	1815103	wordpools/wasnorm_wordpool.txt	LTP089	ltpFR	1	15	1	STAGE	1366	n/a	0	n/a	n/a	n/a	n/a	n/a
3636.576	n/a	REC_WORD	1818288	wordpools/wasnorm_wordpool.txt	LTP089	ltpFR	1	15	0	MARS	873	n/a	1	n/a	n/a	n/a	n/a	n/a
3636.982	n/a	REC_WORD	1818491	wordpools/wasnorm_wordpool.txt	LTP089	ltpFR	1	15	1	UNIVERSE	1540	n/a	1	n/a	n/a	n/a	n/a	n/a
3637.514	n/a	REC_WORD	1818757	wordpools/wasnorm_wordpool.txt	LTP089	ltpFR	1	15	1	BELT	120	n/a	0	n/a	n/a	n/a	n/a	n/a
3637.83	n/a	REC_WORD	1818915	wordpools/wasnorm_wordpool.txt	LTP089	ltpFR	1	15	1	BARRACUDA	90	n/a	1	n/a	n/a	n/a	n/a	n/a
3638.404	n/a	REC_WORD	1819202	wordpools/wasnorm_wordpool.txt	LTP089	ltpFR	1	15	1	WAIST	1579	n/a	0	n/a	n/a	n/a	n/a	n/a
3649.886	n/a	REC_WORD	1824943	wordpools/wasnorm_wordpool.txt	LTP089	ltpFR	1	15	0	BIRD	129	n/a	1	n/a	n/a	n/a	n/a	n/a
3705.0	n/a	WORD	1852500	wordpools/wasnorm_wordpool.txt	LTP089	ltpFR	1	16	1	CANOE	233	n/a	n/a	1	0.412841796875	0.57763671875	upper	../fonts/zerothre.ttf
3708.02	n/a	SLOW_MSG	1854010	n/a	LTP089	ltpFR	1	16	n/a	n/a	n/a	n/a	n/a	n/a	n/a	n/a	n/a	n/a
3710.418	n/a	WORD	1855209	wordpools/wasnorm_wordpool.txt	LTP089	ltpFR	1	16	1	ANCHOR	21	n/a	0	1	0.412841796875	0.57763671875	upper	../fonts/zerothre.ttf
3714.472	n/a	WORD	1857236	wordpools/wasnorm_wordpool.txt	LTP089	ltpFR	1	16	1	BLADE	134	n/a	0	1	0.412841796875	0.57763671875	upper	../fonts/zerothre.ttf
3718.592	n/a	WORD	1859296	wordpools/wasnorm_wordpool.txt	LTP089	ltpFR	1	16	1	BEAST	108	n/a	1	1	0.412841796875	0.57763671875	upper	../fonts/zerothre.ttf
3722.43	n/a	WORD	1861215	wordpools/wasnorm_wordpool.txt	LTP089	ltpFR	1	16	1	ALLIGATOR	16	n/a	1	1	0.412841796875	0.57763671875	upper	../fonts/zerothre.ttf
3726.366	n/a	WORD	1863183	wordpools/wasnorm_wordpool.txt	LTP089	ltpFR	1	16	1	SWAN	1417	n/a	1	1	0.412841796875	0.57763671875	upper	../fonts/zerothre.ttf
3730.512	n/a	WORD	1865256	wordpools/wasnorm_wordpool.txt	LTP089	ltpFR	1	16	1	RICE	1190	n/a	0	1	0.412841796875	0.57763671875	upper	../fonts/zerothre.ttf
3734.598	n/a	WORD	1867299	wordpools/wasnorm_wordpool.txt	LTP089	ltpFR	1	16	1	CATHEDRAL	260	n/a	0	1	0.412841796875	0.57763671875	upper	../fonts/zerothre.ttf
3738.776	n/a	WORD	1869388	wordpools/wasnorm_wordpool.txt	LTP089	ltpFR	1	16	1	SUPPER	1411	n/a	0	1	0.412841796875	0.57763671875	upper	../fonts/zerothre.ttf
3742.814	n/a	WORD	1871407	wordpools/wasnorm_wordpool.txt	LTP089	ltpFR	1	16	1	ASTRONAUT	51	n/a	0	1	0.412841796875	0.57763671875	upper	../fonts/zerothre.ttf
3746.684	n/a	WORD	1873342	wordpools/wasnorm_wordpool.txt	LTP089	ltpFR	1	16	1	NEST	945	n/a	0	1	0.412841796875	0.57763671875	upper	../fonts/zerothre.ttf
3750.764	n/a	WORD	1875382	wordpools/wasnorm_wordpool.txt	LTP089	ltpFR	1	16	1	YOLK	1633	n/a	0	1	0.412841796875	0.57763671875	upper	../fonts/zerothre.ttf
3754.61	n/a	WORD	1877305	wordpools/wasnorm_wordpool.txt	LTP089	ltpFR	1	16	1	HOSTESS	723	n/a	1	1	0.412841796875	0.57763671875	upper	../fonts/zerothre.ttf
3758.722	n/a	WORD	1879361	wordpools/wasnorm_wordpool.txt	LTP089	ltpFR	1	16	1	CRATER	400	n/a	0	1	0.412841796875	0.57763671875	upper	../fonts/zerothre.ttf
3762.858	n/a	WORD	1881429	wordpools/wasnorm_wordpool.txt	LTP089	ltpFR	1	16	1	VAULT	1550	n/a	0	1	0.412841796875	0.57763671875	upper	../fonts/zerothre.ttf
3767.036	n/a	WORD	1883518	wordpools/wasnorm_wordpool.txt	LTP089	ltpFR	1	16	1	FRIAR	605	n/a	0	1	0.412841796875	0.57763671875	upper	../fonts/zerothre.ttf
3772.988	n/a	REC_START	1886494	n/a	LTP089	ltpFR	1	16	n/a	n/a	n/a	n/a	n/a	n/a	n/a	n/a	n/a	n/a
3776.148	n/a	REC_WORD	1888074	wordpools/wasnorm_wordpool.txt	LTP089	ltpFR	1	16	1	ANCHOR	21	n/a	0	n/a	n/a	n/a	n/a	n/a
3776.552	n/a	REC_WORD	1888276	wordpools/wasnorm_wordpool.txt	LTP089	ltpFR	1	16	1	CANOE	233	n/a	n/a	n/a	n/a	n/a	n/a	n/a
3776.968	n/a	REC_WORD	1888484	wordpools/wasnorm_wordpool.txt	LTP089	ltpFR	1	16	1	BLADE	134	n/a	0	n/a	n/a	n/a	n/a	n/a
3777.618	n/a	REC_WORD	1888809	wordpools/wasnorm_wordpool.txt	LTP089	ltpFR	1	16	1	BEAST	108	n/a	1	n/a	n/a	n/a	n/a	n/a
3778.43	n/a	REC_WORD	1889215	wordpools/wasnorm_wordpool.txt	LTP089	ltpFR	1	16	1	ALLIGATOR	16	n/a	1	n/a	n/a	n/a	n/a	n/a
3779.034	n/a	REC_WORD_VV	1889517	wordpools/wasnorm_wordpool.txt	LTP089	ltpFR	1	16	n/a	<>	-1	n/a	n/a	n/a	n/a	n/a	n/a	n/a
3780.078	n/a	REC_WORD	1890039	wordpools/wasnorm_wordpool.txt	LTP089	ltpFR	1	16	n/a	STEWARDESS	1381	n/a	n/a	n/a	n/a	n/a	n/a	n/a
3780.702	n/a	REC_WORD	1890351	wordpools/wasnorm_wordpool.txt	LTP089	ltpFR	1	16	1	HOSTESS	723	n/a	1	n/a	n/a	n/a	n/a	n/a
3782.058	n/a	REC_WORD	1891029	wordpools/wasnorm_wordpool.txt	LTP089	ltpFR	1	16	-1	MONK	910	n/a	-1	n/a	n/a	n/a	n/a	n/a
3784.882	n/a	REC_WORD_VV	1892441	wordpools/wasnorm_wordpool.txt	LTP089	ltpFR	1	16	n/a	<>	-1	n/a	n/a	n/a	n/a	n/a	n/a	n/a
3786.628	n/a	REC_WORD	1893314	wordpools/wasnorm_wordpool.txt	LTP089	ltpFR	1	16	n/a	MONASTERY	907	n/a	n/a	n/a	n/a	n/a	n/a	n/a
3787.202	n/a	REC_WORD_VV	1893601	wordpools/wasnorm_wordpool.txt	LTP089	ltpFR	1	16	n/a	<>	-1	n/a	n/a	n/a	n/a	n/a	n/a	n/a
3787.308	n/a	REC_WORD	1893654	wordpools/wasnorm_wordpool.txt	LTP089	ltpFR	1	16	n/a	CHURCH	307	n/a	n/a	n/a	n/a	n/a	n/a	n/a
3796.498	n/a	REC_WORD	1898249	wordpools/wasnorm_wordpool.txt	LTP089	ltpFR	1	16	1	RICE	1190	n/a	0	n/a	n/a	n/a	n/a	n/a
3862.594	n/a	REC_START	1931297	n/a	LTP089	ltpFR	1	n/a	n/a	n/a	n/a	n/a	n/a	n/a	n/a	n/a	n/a	n/a
3863.192	n/a	FFR_REC_WORD_VV	1931596	wordpools/wasnorm_wordpool.txt	LTP089	ltpFR	1	n/a	n/a	<>	-1	n/a	n/a	n/a	n/a	n/a	n/a	n/a
3864.192	n/a	FFR_REC_WORD_VV	1932096	wordpools/wasnorm_wordpool.txt	LTP089	ltpFR	1	n/a	n/a	<>	-1	n/a	n/a	n/a	n/a	n/a	n/a	n/a
3864.794	n/a	FFR_REC_WORD	1932397	wordpools/wasnorm_wordpool.txt	LTP089	ltpFR	1	n/a	1	BEAST	108	n/a	1	n/a	n/a	n/a	n/a	n/a
3865.452	n/a	FFR_REC_WORD	1932726	wordpools/wasnorm_wordpool.txt	LTP089	ltpFR	1	n/a	1	ALLIGATOR	16	n/a	1	n/a	n/a	n/a	n/a	n/a
3866.1	n/a	FFR_REC_WORD	1933050	wordpools/wasnorm_wordpool.txt	LTP089	ltpFR	1	n/a	1	HOSTESS	723	n/a	1	n/a	n/a	n/a	n/a	n/a
3866.88	n/a	FFR_REC_WORD	1933440	wordpools/wasnorm_wordpool.txt	LTP089	ltpFR	1	n/a	1	ANCHOR	21	n/a	0	n/a	n/a	n/a	n/a	n/a
3867.51	n/a	FFR_REC_WORD	1933755	wordpools/wasnorm_wordpool.txt	LTP089	ltpFR	1	n/a	1	BLADE	134	n/a	0	n/a	n/a	n/a	n/a	n/a
3868.13	n/a	FFR_REC_WORD	1934065	wordpools/wasnorm_wordpool.txt	LTP089	ltpFR	1	n/a	1	CANOE	233	n/a	n/a	n/a	n/a	n/a	n/a	n/a
3868.974	n/a	FFR_REC_WORD	1934487	wordpools/wasnorm_wordpool.txt	LTP089	ltpFR	1	n/a	n/a	CHURCH	307	n/a	n/a	n/a	n/a	n/a	n/a	n/a
3869.672	n/a	FFR_REC_WORD	1934836	wordpools/wasnorm_wordpool.txt	LTP089	ltpFR	1	n/a	-1	MONK	910	n/a	-1	n/a	n/a	n/a	n/a	n/a
3870.32	n/a	FFR_REC_WORD	1935160	wordpools/wasnorm_wordpool.txt	LTP089	ltpFR	1	n/a	n/a	MONASTERY	907	n/a	n/a	n/a	n/a	n/a	n/a	n/a
3871.294	n/a	FFR_REC_WORD	1935647	wordpools/wasnorm_wordpool.txt	LTP089	ltpFR	1	n/a	-1	BRICK	172	n/a	-1	n/a	n/a	n/a	n/a	n/a
3872.112	n/a	FFR_REC_WORD_VV	1936056	wordpools/wasnorm_wordpool.txt	LTP089	ltpFR	1	n/a	n/a	<>	-1	n/a	n/a	n/a	n/a	n/a	n/a	n/a
3872.466	n/a	FFR_REC_WORD	1936233	wordpools/wasnorm_wordpool.txt	LTP089	ltpFR	1	n/a	-1	SILVERWARE	1308	n/a	-1	n/a	n/a	n/a	n/a	n/a
3876.576	n/a	FFR_REC_WORD	1938288	wordpools/wasnorm_wordpool.txt	LTP089	ltpFR	1	n/a	-1	BLACKBERRY	132	n/a	-1	n/a	n/a	n/a	n/a	n/a
3877.928	n/a	FFR_REC_WORD	1938964	wordpools/wasnorm_wordpool.txt	LTP089	ltpFR	1	n/a	-1	CHERRY	293	n/a	-1	n/a	n/a	n/a	n/a	n/a
3878.696	n/a	FFR_REC_WORD	1939348	wordpools/wasnorm_wordpool.txt	LTP089	ltpFR	1	n/a	-1	RAISIN	1163	n/a	-1	n/a	n/a	n/a	n/a	n/a
3880.068	n/a	FFR_REC_WORD	1940034	wordpools/wasnorm_wordpool.txt	LTP089	ltpFR	1	n/a	n/a	BEACH	-1	n/a	n/a	n/a	n/a	n/a	n/a	n/a
3880.642	n/a	FFR_REC_WORD	1940321	wordpools/wasnorm_wordpool.txt	LTP089	ltpFR	1	n/a	n/a	SHORE	1291	n/a	n/a	n/a	n/a	n/a	n/a	n/a
3882.168	n/a	FFR_REC_WORD_VV	1941084	wordpools/wasnorm_wordpool.txt	LTP089	ltpFR	1	n/a	n/a	<>	-1	n/a	n/a	n/a	n/a	n/a	n/a	n/a
3885.236	n/a	FFR_REC_WORD	1942618	wordpools/wasnorm_wordpool.txt	LTP089	ltpFR	1	n/a	n/a	TRACK	-1	n/a	n/a	n/a	n/a	n/a	n/a	n/a
3886.698	n/a	FFR_REC_WORD	1943349	wordpools/wasnorm_wordpool.txt	LTP089	ltpFR	1	n/a	-1	APPLE	33	n/a	-1	n/a	n/a	n/a	n/a	n/a
3887.576	n/a	FFR_REC_WORD	1943788	wordpools/wasnorm_wordpool.txt	LTP089	ltpFR	1	n/a	n/a	TREE	1502	n/a	n/a	n/a	n/a	n/a	n/a	n/a
3889.862	n/a	FFR_REC_WORD	1944931	wordpools/wasnorm_wordpool.txt	LTP089	ltpFR	1	n/a	-1	DOUGHNUT	490	n/a	-1	n/a	n/a	n/a	n/a	n/a
3890.644	n/a	FFR_REC_WORD	1945322	wordpools/wasnorm_wordpool.txt	LTP089	ltpFR	1	n/a	-1	GRILL	661	n/a	-1	n/a	n/a	n/a	n/a	n/a
3892.34	n/a	FFR_REC_WORD	1946170	wordpools/wasnorm_wordpool.txt	LTP089	ltpFR	1	n/a	-1	CONSUMER	365	n/a	-1	n/a	n/a	n/a	n/a	n/a
3894.166	n/a	FFR_REC_WORD	1947083	wordpools/wasnorm_wordpool.txt	LTP089	ltpFR	1	n/a	-1	HEDGE	699	n/a	-1	n/a	n/a	n/a	n/a	n/a
3899.98	n/a	FFR_REC_WORD	1949990	wordpools/wasnorm_wordpool.txt	LTP089	ltpFR	1	n/a	0	CAGE	218	n/a	1	n/a	n/a	n/a	n/a	n/a
3908.934	n/a	FFR_REC_WORD	1954467	wordpools/wasnorm_wordpool.txt	LTP089	ltpFR	1	n/a	n/a	KITTEN	780	n/a	n/a	n/a	n/a	n/a	n/a	n/a
3909.538	n/a	FFR_REC_WORD	1954769	wordpools/wasnorm_wordpool.txt	LTP089	ltpFR	1	n/a	1	PUPPY	1144	n/a	1	n/a	n/a	n/a	n/a	n/a
3911.348	n/a	FFR_REC_WORD	1955674	wordpools/wasnorm_wordpool.txt	LTP089	ltpFR	1	n/a	1	WATERFALL	1595	n/a	0	n/a	n/a	n/a	n/a	n/a
3913.09	n/a	FFR_REC_WORD	1956545	wordpools/wasnorm_wordpool.txt	LTP089	ltpFR	1	n/a	n/a	GROVE	-1	n/a	n/a	n/a	n/a	n/a	n/a	n/a
3918.372	n/a	FFR_REC_WORD	1959186	wordpools/wasnorm_wordpool.txt	LTP089	ltpFR	1	n/a	n/a	CHEETAH	-1	n/a	n/a	n/a	n/a	n/a	n/a	n/a
3919.016	n/a	FFR_REC_WORD_VV	1959508	wordpools/wasnorm_wordpool.txt	LTP089	ltpFR	1	n/a	n/a	<>	-1	n/a	n/a	n/a	n/a	n/a	n/a	n/a
3920.354	n/a	FFR_REC_WORD	1960177	wordpools/wasnorm_wordpool.txt	LTP089	ltpFR	1	n/a	1	PANTHER	1009	n/a	1	n/a	n/a	n/a	n/a	n/a
3922.378	n/a	FFR_REC_WORD	1961189	wordpools/wasnorm_wordpool.txt	LTP089	ltpFR	1	n/a	1	PANTHER	1009	n/a	1	n/a	n/a	n/a	n/a	n/a
3923.386	n/a	FFR_REC_WORD	1961693	wordpools/wasnorm_wordpool.txt	LTP089	ltpFR	1	n/a	0	CAGE	218	n/a	1	n/a	n/a	n/a	n/a	n/a
3924.254	n/a	FFR_REC_WORD	1962127	wordpools/wasnorm_wordpool.txt	LTP089	ltpFR	1	n/a	1	FIST	572	n/a	0	n/a	n/a	n/a	n/a	n/a
3925.112	n/a	FFR_REC_WORD	1962556	wordpools/wasnorm_wordpool.txt	LTP089	ltpFR	1	n/a	1	PLATE	1086	n/a	0	n/a	n/a	n/a	n/a	n/a
3948.084	n/a	FFR_REC_WORD	1974042	wordpools/wasnorm_wordpool.txt	LTP089	ltpFR	1	n/a	0	BLUEJAY	141	n/a	0	n/a	n/a	n/a	n/a	n/a
3948.928	n/a	FFR_REC_WORD	1974464	wordpools/wasnorm_wordpool.txt	LTP089	ltpFR	1	n/a	1	OWL	992	n/a	1	n/a	n/a	n/a	n/a	n/a
3954.804	n/a	FFR_REC_WORD	1977402	wordpools/wasnorm_wordpool.txt	LTP089	ltpFR	1	n/a	-1	BOMB	147	n/a	-1	n/a	n/a	n/a	n/a	n/a
3955.722	n/a	FFR_REC_WORD	1977861	wordpools/wasnorm_wordpool.txt	LTP089	ltpFR	1	n/a	-1	DIAPER	459	n/a	-1	n/a	n/a	n/a	n/a	n/a
3956.69	n/a	FFR_REC_WORD	1978345	wordpools/wasnorm_wordpool.txt	LTP089	ltpFR	1	n/a	-1	CRADLE	399	n/a	-1	n/a	n/a	n/a	n/a	n/a
3959.134	n/a	FFR_REC_WORD	1979567	wordpools/wasnorm_wordpool.txt	LTP089	ltpFR	1	n/a	n/a	PASSAGEWAY	-1	n/a	n/a	n/a	n/a	n/a	n/a	n/a
3964.214	n/a	FFR_REC_WORD	1982107	wordpools/wasnorm_wordpool.txt	LTP089	ltpFR	1	n/a	-1	DIAGRAM	456	n/a	-1	n/a	n/a	n/a	n/a	n/a
3966.278	n/a	FFR_REC_WORD	1983139	wordpools/wasnorm_wordpool.txt	LTP089	ltpFR	1	n/a	n/a	CONTROLLER	-1	n/a	n/a	n/a	n/a	n/a	n/a	n/a
3967.388	n/a	FFR_REC_WORD	1983694	wordpools/wasnorm_wordpool.txt	LTP089	ltpFR	1	n/a	-1	BEARD	107	n/a	-1	n/a	n/a	n/a	n/a	n/a
3967.986	n/a	FFR_REC_WORD	1983993	wordpools/wasnorm_wordpool.txt	LTP089	ltpFR	1	n/a	-1	MOUTH	926	n/a	-1	n/a	n/a	n/a	n/a	n/a
3972.34	n/a	FFR_REC_WORD	1986170	wordpools/wasnorm_wordpool.txt	LTP089	ltpFR	1	n/a	-1	SPINACH	1352	n/a	-1	n/a	n/a	n/a	n/a	n/a
3973.208	n/a	FFR_REC_WORD	1986604	wordpools/wasnorm_wordpool.txt	LTP089	ltpFR	1	n/a	-1	CAULIFLOWER	262	n/a	-1	n/a	n/a	n/a	n/a	n/a
3975.992	n/a	FFR_REC_WORD	1987996	wordpools/wasnorm_wordpool.txt	LTP089	ltpFR	1	n/a	-1	BLACKBERRY	132	n/a	-1	n/a	n/a	n/a	n/a	n/a
3984.214	n/a	FFR_REC_WORD	1992107	wordpools/wasnorm_wordpool.txt	LTP089	ltpFR	1	n/a	-1	MONK	910	n/a	-1	n/a	n/a	n/a	n/a	n/a
3986.174	n/a	FFR_REC_WORD	1993087	wordpools/wasnorm_wordpool.txt	LTP089	ltpFR	1	n/a	n/a	SLEEVE	1324	n/a	n/a	n/a	n/a	n/a	n/a	n/a
3987.806	n/a	FFR_REC_WORD	1993903	wordpools/wasnorm_wordpool.txt	LTP089	ltpFR	1	n/a	-1	TUXEDO	1525	n/a	-1	n/a	n/a	n/a	n/a	n/a
3990.42	n/a	FFR_REC_WORD	1995210	wordpools/wasnorm_wordpool.txt	LTP089	ltpFR	1	n/a	-1	STAKE	1368	n/a	-1	n/a	n/a	n/a	n/a	n/a
3991.482	n/a	FFR_REC_WORD	1995741	wordpools/wasnorm_wordpool.txt	LTP089	ltpFR	1	n/a	-1	MEAT	883	n/a	-1	n/a	n/a	n/a	n/a	n/a
3993.498	n/a	FFR_REC_WORD	1996749	wordpools/wasnorm_wordpool.txt	LTP089	ltpFR	1	n/a	-1	SHELF	1280	n/a	-1	n/a	n/a	n/a	n/a	n/a
3994.436	n/a	FFR_REC_WORD	1997218	wordpools/wasnorm_wordpool.txt	LTP089	ltpFR	1	n/a	-1	BOOK	149	n/a	-1	n/a	n/a	n/a	n/a	n/a
3999.618	n/a	FFR_REC_WORD	1999809	wordpools/wasnorm_wordpool.txt	LTP089	ltpFR	1	n/a	-1	TEAPOT	1442	n/a	-1	n/a	n/a	n/a	n/a	n/a
4000.38	n/a	FFR_REC_WORD_VV	2000190	wordpools/wasnorm_wordpool.txt	LTP089	ltpFR	1	n/a	n/a	<>	-1	n/a	n/a	n/a	n/a	n/a	n/a	n/a
4001.38	n/a	FFR_REC_WORD_VV	2000690	wordpools/wasnorm_wordpool.txt	LTP089	ltpFR	1	n/a	n/a	<>	-1	n/a	n/a	n/a	n/a	n/a	n/a	n/a
4004.832	n/a	FFR_REC_WORD_VV	2002416	wordpools/wasnorm_wordpool.txt	LTP089	ltpFR	1	n/a	n/a	<>	-1	n/a	n/a	n/a	n/a	n/a	n/a	n/a
4010.558	n/a	FFR_REC_WORD	2005279	wordpools/wasnorm_wordpool.txt	LTP089	ltpFR	1	n/a	-1	VEAL	1551	n/a	-1	n/a	n/a	n/a	n/a	n/a
4047.57	n/a	FFR_REC_WORD	2023785	wordpools/wasnorm_wordpool.txt	LTP089	ltpFR	1	n/a	1	STADIUM	1364	n/a	0	n/a	n/a	n/a	n/a	n/a
4049.172	n/a	FFR_REC_WORD	2024586	wordpools/wasnorm_wordpool.txt	LTP089	ltpFR	1	n/a	1	PERSON	1052	n/a	1	n/a	n/a	n/a	n/a	n/a
4050.49	n/a	FFR_REC_WORD	2025245	wordpools/wasnorm_wordpool.txt	LTP089	ltpFR	1	n/a	n/a	CASH	252	n/a	n/a	n/a	n/a	n/a	n/a	n/a
4057.738	n/a	FFR_REC_WORD	2028869	wordpools/wasnorm_wordpool.txt	LTP089	ltpFR	1	n/a	1	ELK	526	n/a	1	n/a	n/a	n/a	n/a	n/a
4061.744	n/a	FFR_REC_WORD	2030872	wordpools/wasnorm_wordpool.txt	LTP089	ltpFR	1	n/a	1	FIST	572	n/a	0	n/a	n/a	n/a	n/a	n/a
4072.962	n/a	FFR_REC_WORD	2036481	wordpools/wasnorm_wordpool.txt	LTP089	ltpFR	1	n/a	0	LANDSCAPE	799	n/a	1	n/a	n/a	n/a	n/a	n/a
4109.994	n/a	FFR_REC_WORD	2054997	wordpools/wasnorm_wordpool.txt	LTP089	ltpFR	1	n/a	n/a	BEETLE	116	n/a	n/a	n/a	n/a	n/a	n/a	n/a
4110.338	n/a	FFR_REC_WORD	2055169	wordpools/wasnorm_wordpool.txt	LTP089	ltpFR	1	n/a	n/a	ANT	25	n/a	n/a	n/a	n/a	n/a	n/a	n/a
4179.546	n/a	REC_START	2089773	n/a	LTP089	ltpFR	1	1	n/a	n/a	n/a	n/a	n/a	n/a	n/a	n/a	n/a	n/a
4179.58	n/a	RECOG_TARGET	2089790	n/a	LTP089	ltpFR	1	1	-1	CAFETERIA	217	5	-1	n/a	n/a	n/a	n/a	n/a
4181.766	n/a	RECOG_RESP	2090883	n/a	LTP089	ltpFR	1	1	-1	CAFETERIA	217	n/a	-1	n/a	n/a	n/a	n/a	n/a
4182.706	n/a	RECOG_CONF	2091353	n/a	LTP089	ltpFR	1	1	-1	CAFETERIA	217	5	-1	n/a	n/a	n/a	n/a	n/a
4184.148	n/a	RECOG_LURE	2092074	n/a	LTP089	ltpFR	1	1	n/a	COTTON	385	5	n/a	n/a	n/a	n/a	n/a	n/a
4185.584	n/a	RECOG_RESP	2092792	n/a	LTP089	ltpFR	1	1	n/a	COTTON	385	n/a	n/a	n/a	n/a	n/a	n/a	n/a
4186.316	n/a	RECOG_CONF	2093158	n/a	LTP089	ltpFR	1	1	n/a	COTTON	385	5	n/a	n/a	n/a	n/a	n/a	n/a
4187.73	n/a	RECOG_LURE	2093865	n/a	LTP089	ltpFR	1	1	n/a	VAGRANT	1544	3	n/a	n/a	n/a	n/a	n/a	n/a
4189.41	n/a	RECOG_RESP	2094705	n/a	LTP089	ltpFR	1	1	n/a	VAGRANT	1544	n/a	n/a	n/a	n/a	n/a	n/a	n/a
4190.158	n/a	RECOG_CONF	2095079	n/a	LTP089	ltpFR	1	1	n/a	VAGRANT	1544	3	n/a	n/a	n/a	n/a	n/a	n/a
4191.658	n/a	RECOG_LURE	2095829	n/a	LTP089	ltpFR	1	1	n/a	CALCULATOR	220	5	n/a	n/a	n/a	n/a	n/a	n/a
4193.032	n/a	RECOG_RESP	2096516	n/a	LTP089	ltpFR	1	1	n/a	CALCULATOR	220	n/a	n/a	n/a	n/a	n/a	n/a	n/a
4193.7	n/a	RECOG_CONF	2096850	n/a	LTP089	ltpFR	1	1	n/a	CALCULATOR	220	5	n/a	n/a	n/a	n/a	n/a	n/a
4195.194	n/a	RECOG_TARGET	2097597	n/a	LTP089	ltpFR	1	1	0	ADULT	8	2	1	n/a	n/a	n/a	n/a	n/a
4196.844	n/a	RECOG_RESP	2098422	n/a	LTP089	ltpFR	1	1	0	ADULT	8	n/a	1	n/a	n/a	n/a	n/a	n/a
4197.562	n/a	RECOG_CONF	2098781	n/a	LTP089	ltpFR	1	1	0	ADULT	8	2	1	n/a	n/a	n/a	n/a	n/a
4198.908	n/a	RECOG_LURE	2099454	n/a	LTP089	ltpFR	1	1	n/a	ATOM	55	5	n/a	n/a	n/a	n/a	n/a	n/a
4200.384	n/a	RECOG_RESP	2100192	n/a	LTP089	ltpFR	1	1	n/a	ATOM	55	n/a	n/a	n/a	n/a	n/a	n/a	n/a
4201.094	n/a	RECOG_CONF	2100547	n/a	LTP089	ltpFR	1	1	n/a	ATOM	55	5	n/a	n/a	n/a	n/a	n/a	n/a
4202.528	n/a	RECOG_TARGET	2101264	n/a	LTP089	ltpFR	1	1	0	HANGER	687	5	3	n/a	n/a	n/a	n/a	n/a
4203.608	n/a	RECOG_RESP	2101804	n/a	LTP089	ltpFR	1	1	0	HANGER	687	n/a	3	n/a	n/a	n/a	n/a	n/a
4204.276	n/a	RECOG_CONF	2102138	n/a	LTP089	ltpFR	1	1	0	HANGER	687	5	3	n/a	n/a	n/a	n/a	n/a
4205.874	n/a	RECOG_TARGET	2102937	n/a	LTP089	ltpFR	1	1	1	DELINQUENT	445	5	1	n/a	n/a	n/a	n/a	n/a
4207.03	n/a	RECOG_RESP	2103515	n/a	LTP089	ltpFR	1	1	1	DELINQUENT	445	n/a	1	n/a	n/a	n/a	n/a	n/a
4207.718	n/a	RECOG_CONF	2103859	n/a	LTP089	ltpFR	1	1	1	DELINQUENT	445	5	1	n/a	n/a	n/a	n/a	n/a
4209.228	n/a	RECOG_TARGET	2104614	n/a	LTP089	ltpFR	1	1	1	DICTATOR	462	5	0	n/a	n/a	n/a	n/a	n/a
4210.172	n/a	RECOG_RESP	2105086	n/a	LTP089	ltpFR	1	1	1	DICTATOR	462	n/a	0	n/a	n/a	n/a	n/a	n/a
4210.862	n/a	RECOG_CONF	2105431	n/a	LTP089	ltpFR	1	1	1	DICTATOR	462	5	0	n/a	n/a	n/a	n/a	n/a
4212.35	n/a	RECOG_LURE	2106175	n/a	LTP089	ltpFR	1	1	n/a	POLYESTER	1100	5	n/a	n/a	n/a	n/a	n/a	n/a
4213.426	n/a	RECOG_RESP	2106713	n/a	LTP089	ltpFR	1	1	n/a	POLYESTER	1100	n/a	n/a	n/a	n/a	n/a	n/a	n/a
4214.134	n/a	RECOG_CONF	2107067	n/a	LTP089	ltpFR	1	1	n/a	POLYESTER	1100	5	n/a	n/a	n/a	n/a	n/a	n/a
4215.68	n/a	RECOG_LURE	2107840	n/a	LTP089	ltpFR	1	1	n/a	CRACKER	398	5	n/a	n/a	n/a	n/a	n/a	n/a
4216.608	n/a	RECOG_RESP	2108304	n/a	LTP089	ltpFR	1	1	n/a	CRACKER	398	n/a	n/a	n/a	n/a	n/a	n/a	n/a
4217.326	n/a	RECOG_CONF	2108663	n/a	LTP089	ltpFR	1	1	n/a	CRACKER	398	5	n/a	n/a	n/a	n/a	n/a	n/a
4218.81	n/a	RECOG_LURE	2109405	n/a	LTP089	ltpFR	1	1	n/a	CUP	424	2	n/a	n/a	n/a	n/a	n/a	n/a
4220.35	n/a	RECOG_RESP	2110175	n/a	LTP089	ltpFR	1	1	n/a	CUP	424	n/a	n/a	n/a	n/a	n/a	n/a	n/a
4221.278	n/a	RECOG_CONF	2110639	n/a	LTP089	ltpFR	1	1	n/a	CUP	424	2	n/a	n/a	n/a	n/a	n/a	n/a
4222.538	n/a	RECOG_LURE	2111269	n/a	LTP089	ltpFR	1	1	n/a	MEDICINE	886	2	n/a	n/a	n/a	n/a	n/a	n/a
4223.592	n/a	RECOG_RESP	2111796	n/a	LTP089	ltpFR	1	1	n/a	MEDICINE	886	n/a	n/a	n/a	n/a	n/a	n/a	n/a
4224.41	n/a	RECOG_CONF	2112205	n/a	LTP089	ltpFR	1	1	n/a	MEDICINE	886	2	n/a	n/a	n/a	n/a	n/a	n/a
4225.852	n/a	RECOG_LURE	2112926	n/a	LTP089	ltpFR	1	1	n/a	BADGE	68	2	n/a	n/a	n/a	n/a	n/a	n/a
4227.234	n/a	RECOG_RESP	2113617	n/a	LTP089	ltpFR	1	1	n/a	BADGE	68	n/a	n/a	n/a	n/a	n/a	n/a	n/a
4227.982	n/a	RECOG_CONF	2113991	n/a	LTP089	ltpFR	1	1	n/a	BADGE	68	2	n/a	n/a	n/a	n/a	n/a	n/a
4229.314	n/a	RECOG_LURE	2114657	n/a	LTP089	ltpFR	1	1	n/a	FOSSIL	596	2	n/a	n/a	n/a	n/a	n/a	n/a
4230.332	n/a	RECOG_RESP	2115166	n/a	LTP089	ltpFR	1	1	n/a	FOSSIL	596	n/a	n/a	n/a	n/a	n/a	n/a	n/a
4231.046	n/a	RECOG_CONF	2115523	n/a	LTP089	ltpFR	1	1	n/a	FOSSIL	596	2	n/a	n/a	n/a	n/a	n/a	n/a
4232.368	n/a	RECOG_TARGET	2116184	n/a	LTP089	ltpFR	1	1	1	BABY	64	2	1	n/a	n/a	n/a	n/a	n/a
4233.818	n/a	RECOG_RESP	2116909	n/a	LTP089	ltpFR	1	1	1	BABY	64	n/a	1	n/a	n/a	n/a	n/a	n/a
4234.548	n/a	RECOG_CONF	2117274	n/a	LTP089	ltpFR	1	1	1	BABY	64	2	1	n/a	n/a	n/a	n/a	n/a
4235.914	n/a	RECOG_TARGET	2117957	n/a	LTP089	ltpFR	1	1	-1	BAY	102	3	-1	n/a	n/a	n/a	n/a	n/a
4237.48	n/a	RECOG_RESP	2118740	n/a	LTP089	ltpFR	1	1	-1	BAY	102	n/a	-1	n/a	n/a	n/a	n/a	n/a
4238.13	n/a	RECOG_CONF	2119065	n/a	LTP089	ltpFR	1	1	-1	BAY	102	3	-1	n/a	n/a	n/a	n/a	n/a
4239.728	n/a	RECOG_TARGET	2119864	n/a	LTP089	ltpFR	1	1	-1	GRASS	655	5	-1	n/a	n/a	n/a	n/a	n/a
4240.534	n/a	RECOG_RESP	2120267	n/a	LTP089	ltpFR	1	1	-1	GRASS	655	n/a	-1	n/a	n/a	n/a	n/a	n/a
4241.112	n/a	RECOG_CONF	2120556	n/a	LTP089	ltpFR	1	1	-1	GRASS	655	5	-1	n/a	n/a	n/a	n/a	n/a
4242.674	n/a	RECOG_LURE	2121337	n/a	LTP089	ltpFR	1	1	n/a	CUBE	420	5	n/a	n/a	n/a	n/a	n/a	n/a
4244.066	n/a	RECOG_RESP	2122033	n/a	LTP089	ltpFR	1	1	n/a	CUBE	420	n/a	n/a	n/a	n/a	n/a	n/a	n/a
4244.674	n/a	RECOG_CONF	2122337	n/a	LTP089	ltpFR	1	1	n/a	CUBE	420	5	n/a	n/a	n/a	n/a	n/a	n/a
4246.136	n/a	RECOG_LURE	2123068	n/a	LTP089	ltpFR	1	1	n/a	TIGER	1467	5	n/a	n/a	n/a	n/a	n/a	n/a
4247.228	n/a	RECOG_RESP	2123614	n/a	LTP089	ltpFR	1	1	n/a	TIGER	1467	n/a	n/a	n/a	n/a	n/a	n/a	n/a
4247.868	n/a	RECOG_CONF	2123934	n/a	LTP089	ltpFR	1	1	n/a	TIGER	1467	5	n/a	n/a	n/a	n/a	n/a	n/a
4251.116	n/a	REC_START	2125558	n/a	LTP089	ltpFR	1	2	n/a	n/a	n/a	n/a	n/a	n/a	n/a	n/a	n/a	n/a
4251.146	n/a	RECOG_LURE	2125573	n/a	LTP089	ltpFR	1	2	n/a	UNCLE	1536	5	n/a	n/a	n/a	n/a	n/a	n/a
4252.946	n/a	RECOG_RESP	2126473	n/a	LTP089	ltpFR	1	2	n/a	UNCLE	1536	n/a	n/a	n/a	n/a	n/a	n/a	n/a
4253.624	n/a	RECOG_CONF	2126812	n/a	LTP089	ltpFR	1	2	n/a	UNCLE	1536	5	n/a	n/a	n/a	n/a	n/a	n/a
4255.068	n/a	RECOG_TARGET	2127534	n/a	LTP089	ltpFR	1	2	0	YOUTH	1634	2	1	n/a	n/a	n/a	n/a	n/a
4256.668	n/a	RECOG_RESP	2128334	n/a	LTP089	ltpFR	1	2	0	YOUTH	1634	n/a	1	n/a	n/a	n/a	n/a	n/a
4257.278	n/a	RECOG_CONF	2128639	n/a	LTP089	ltpFR	1	2	0	YOUTH	1634	2	1	n/a	n/a	n/a	n/a	n/a
4258.632	n/a	RECOG_TARGET	2129316	n/a	LTP089	ltpFR	1	2	-1	DINER	467	5	-1	n/a	n/a	n/a	n/a	n/a
4259.602	n/a	RECOG_RESP	2129801	n/a	LTP089	ltpFR	1	2	-1	DINER	467	n/a	-1	n/a	n/a	n/a	n/a	n/a
4260.21	n/a	RECOG_CONF	2130105	n/a	LTP089	ltpFR	1	2	-1	DINER	467	5	-1	n/a	n/a	n/a	n/a	n/a
4261.594	n/a	RECOG_LURE	2130797	n/a	LTP089	ltpFR	1	2	n/a	FURNITURE	616	5	n/a	n/a	n/a	n/a	n/a	n/a
4262.586	n/a	RECOG_RESP	2131293	n/a	LTP089	ltpFR	1	2	n/a	FURNITURE	616	n/a	n/a	n/a	n/a	n/a	n/a	n/a
4263.184	n/a	RECOG_CONF	2131592	n/a	LTP089	ltpFR	1	2	n/a	FURNITURE	616	5	n/a	n/a	n/a	n/a	n/a	n/a
4264.516	n/a	RECOG_LURE	2132258	n/a	LTP089	ltpFR	1	2	n/a	FACTORY	548	5	n/a	n/a	n/a	n/a	n/a	n/a
4266.058	n/a	RECOG_RESP	2133029	n/a	LTP089	ltpFR	1	2	n/a	FACTORY	548	n/a	n/a	n/a	n/a	n/a	n/a	n/a
4266.736	n/a	RECOG_CONF	2133368	n/a	LTP089	ltpFR	1	2	n/a	FACTORY	548	5	n/a	n/a	n/a	n/a	n/a	n/a
4268.012	n/a	RECOG_LURE	2134006	n/a	LTP089	ltpFR	1	2	n/a	SNEAKER	1334	5	n/a	n/a	n/a	n/a	n/a	n/a
4268.792	n/a	RECOG_RESP	2134396	n/a	LTP089	ltpFR	1	2	n/a	SNEAKER	1334	n/a	n/a	n/a	n/a	n/a	n/a	n/a
4269.38	n/a	RECOG_CONF	2134690	n/a	LTP089	ltpFR	1	2	n/a	SNEAKER	1334	5	n/a	n/a	n/a	n/a	n/a	n/a
4270.842	n/a	RECOG_LURE	2135421	n/a	LTP089	ltpFR	1	2	n/a	HURRICANE	727	5	n/a	n/a	n/a	n/a	n/a	n/a
4271.614	n/a	RECOG_RESP	2135807	n/a	LTP089	ltpFR	1	2	n/a	HURRICANE	727	n/a	n/a	n/a	n/a	n/a	n/a	n/a
4272.204	n/a	RECOG_CONF	2136102	n/a	LTP089	ltpFR	1	2	n/a	HURRICANE	727	5	n/a	n/a	n/a	n/a	n/a	n/a
4273.664	n/a	RECOG_LURE	2136832	n/a	LTP089	ltpFR	1	2	n/a	GHOST	634	5	n/a	n/a	n/a	n/a	n/a	n/a
4274.328	n/a	RECOG_RESP	2137164	n/a	LTP089	ltpFR	1	2	n/a	GHOST	634	n/a	n/a	n/a	n/a	n/a	n/a	n/a
4274.908	n/a	RECOG_CONF	2137454	n/a	LTP089	ltpFR	1	2	n/a	GHOST	634	5	n/a	n/a	n/a	n/a	n/a	n/a
4276.294	n/a	RECOG_LURE	2138147	n/a	LTP089	ltpFR	1	2	n/a	APPENDAGE	32	5	n/a	n/a	n/a	n/a	n/a	n/a
4277.622	n/a	RECOG_RESP	2138811	n/a	LTP089	ltpFR	1	2	n/a	APPENDAGE	32	n/a	n/a	n/a	n/a	n/a	n/a	n/a
4278.23	n/a	RECOG_CONF	2139115	n/a	LTP089	ltpFR	1	2	n/a	APPENDAGE	32	5	n/a	n/a	n/a	n/a	n/a	n/a
4279.706	n/a	RECOG_LURE	2139853	n/a	LTP089	ltpFR	1	2	n/a	PAN	1008	5	n/a	n/a	n/a	n/a	n/a	n/a
4281.134	n/a	RECOG_RESP	2140567	n/a	LTP089	ltpFR	1	2	n/a	PAN	1008	n/a	n/a	n/a	n/a	n/a	n/a	n/a
4281.762	n/a	RECOG_CONF	2140881	n/a	LTP089	ltpFR	1	2	n/a	PAN	1008	5	n/a	n/a	n/a	n/a	n/a	n/a
4283.102	n/a	RECOG_LURE	2141551	n/a	LTP089	ltpFR	1	2	n/a	GROOM	665	5	n/a	n/a	n/a	n/a	n/a	n/a
4283.866	n/a	RECOG_RESP	2141933	n/a	LTP089	ltpFR	1	2	n/a	GROOM	665	n/a	n/a	n/a	n/a	n/a	n/a	n/a
4284.456	n/a	RECOG_CONF	2142228	n/a	LTP089	ltpFR	1	2	n/a	GROOM	665	5	n/a	n/a	n/a	n/a	n/a	n/a
4285.816	n/a	RECOG_TARGET	2142908	n/a	LTP089	ltpFR	1	2	1	DISC	473	5	0	n/a	n/a	n/a	n/a	n/a
4286.48	n/a	RECOG_RESP	2143240	n/a	LTP089	ltpFR	1	2	1	DISC	473	n/a	0	n/a	n/a	n/a	n/a	n/a
4287.07	n/a	RECOG_CONF	2143535	n/a	LTP089	ltpFR	1	2	1	DISC	473	5	0	n/a	n/a	n/a	n/a	n/a
4288.43	n/a	RECOG_TARGET	2144215	n/a	LTP089	ltpFR	1	2	1	IRON	744	5	0	n/a	n/a	n/a	n/a	n/a
4290.022	n/a	RECOG_RESP	2145011	n/a	LTP089	ltpFR	1	2	1	IRON	744	n/a	0	n/a	n/a	n/a	n/a	n/a
4290.652	n/a	RECOG_CONF	2145326	n/a	LTP089	ltpFR	1	2	1	IRON	744	5	0	n/a	n/a	n/a	n/a	n/a
4291.96	n/a	RECOG_LURE	2145980	n/a	LTP089	ltpFR	1	2	n/a	ASPIRIN	47	5	n/a	n/a	n/a	n/a	n/a	n/a
4292.816	n/a	RECOG_RESP	2146408	n/a	LTP089	ltpFR	1	2	n/a	ASPIRIN	47	n/a	n/a	n/a	n/a	n/a	n/a	n/a
4293.446	n/a	RECOG_CONF	2146723	n/a	LTP089	ltpFR	1	2	n/a	ASPIRIN	47	5	n/a	n/a	n/a	n/a	n/a	n/a
4294.872	n/a	RECOG_LURE	2147436	n/a	LTP089	ltpFR	1	2	n/a	ROBE	1198	5	n/a	n/a	n/a	n/a	n/a	n/a
4295.69	n/a	RECOG_RESP	2147845	n/a	LTP089	ltpFR	1	2	n/a	ROBE	1198	n/a	n/a	n/a	n/a	n/a	n/a	n/a
4296.298	n/a	RECOG_CONF	2148149	n/a	LTP089	ltpFR	1	2	n/a	ROBE	1198	5	n/a	n/a	n/a	n/a	n/a	n/a
4297.71	n/a	RECOG_TARGET	2148855	n/a	LTP089	ltpFR	1	2	1	OWL	992	5	1	n/a	n/a	n/a	n/a	n/a
4299.486	n/a	RECOG_RESP	2149743	n/a	LTP089	ltpFR	1	2	1	OWL	992	n/a	1	n/a	n/a	n/a	n/a	n/a
4300.09	n/a	RECOG_CONF	2150045	n/a	LTP089	ltpFR	1	2	1	OWL	992	5	1	n/a	n/a	n/a	n/a	n/a
4301.432	n/a	RECOG_LURE	2150716	n/a	LTP089	ltpFR	1	2	n/a	PIKE	1067	5	n/a	n/a	n/a	n/a	n/a	n/a
4302.304	n/a	RECOG_RESP	2151152	n/a	LTP089	ltpFR	1	2	n/a	PIKE	1067	n/a	n/a	n/a	n/a	n/a	n/a	n/a
4302.874	n/a	RECOG_CONF	2151437	n/a	LTP089	ltpFR	1	2	n/a	PIKE	1067	5	n/a	n/a	n/a	n/a	n/a	n/a
4304.278	n/a	RECOG_TARGET	2152139	n/a	LTP089	ltpFR	1	2	-1	CONCRETE	361	5	-1	n/a	n/a	n/a	n/a	n/a
4305.274	n/a	RECOG_RESP	2152637	n/a	LTP089	ltpFR	1	2	-1	CONCRETE	361	n/a	-1	n/a	n/a	n/a	n/a	n/a
4305.846	n/a	RECOG_CONF	2152923	n/a	LTP089	ltpFR	1	2	-1	CONCRETE	361	5	-1	n/a	n/a	n/a	n/a	n/a
4307.332	n/a	RECOG_TARGET	2153666	n/a	LTP089	ltpFR	1	2	0	SAGE	1222	5	1	n/a	n/a	n/a	n/a	n/a
4308.63	n/a	RECOG_RESP	2154315	n/a	LTP089	ltpFR	1	2	0	SAGE	1222	n/a	1	n/a	n/a	n/a	n/a	n/a
4309.24	n/a	RECOG_CONF	2154620	n/a	LTP089	ltpFR	1	2	0	SAGE	1222	5	1	n/a	n/a	n/a	n/a	n/a
4310.67	n/a	RECOG_LURE	2155335	n/a	LTP089	ltpFR	1	2	n/a	TOWER	1490	5	n/a	n/a	n/a	n/a	n/a	n/a
4311.824	n/a	RECOG_RESP	2155912	n/a	LTP089	ltpFR	1	2	n/a	TOWER	1490	n/a	n/a	n/a	n/a	n/a	n/a	n/a
4312.412	n/a	RECOG_CONF	2156206	n/a	LTP089	ltpFR	1	2	n/a	TOWER	1490	5	n/a	n/a	n/a	n/a	n/a	n/a
4315.892	n/a	REC_START	2157946	n/a	LTP089	ltpFR	1	3	n/a	n/a	n/a	n/a	n/a	n/a	n/a	n/a	n/a	n/a
4315.922	n/a	RECOG_LURE	2157961	n/a	LTP089	ltpFR	1	3	n/a	ESSAY	540	5	n/a	n/a	n/a	n/a	n/a	n/a
4316.88	n/a	RECOG_RESP	2158440	n/a	LTP089	ltpFR	1	3	n/a	ESSAY	540	n/a	n/a	n/a	n/a	n/a	n/a	n/a
4317.412	n/a	RECOG_CONF	2158706	n/a	LTP089	ltpFR	1	3	n/a	ESSAY	540	5	n/a	n/a	n/a	n/a	n/a	n/a
4318.836	n/a	RECOG_LURE	2159418	n/a	LTP089	ltpFR	1	3	n/a	SCIENTIST	1249	5	n/a	n/a	n/a	n/a	n/a	n/a
4319.748	n/a	RECOG_RESP	2159874	n/a	LTP089	ltpFR	1	3	n/a	SCIENTIST	1249	n/a	n/a	n/a	n/a	n/a	n/a	n/a
4320.336	n/a	RECOG_CONF	2160168	n/a	LTP089	ltpFR	1	3	n/a	SCIENTIST	1249	5	n/a	n/a	n/a	n/a	n/a	n/a
4321.782	n/a	RECOG_TARGET	2160891	n/a	LTP089	ltpFR	1	3	1	CALF	222	2	1	n/a	n/a	n/a	n/a	n/a
4323.26	n/a	RECOG_RESP	2161630	n/a	LTP089	ltpFR	1	3	1	CALF	222	n/a	1	n/a	n/a	n/a	n/a	n/a
4324.058	n/a	RECOG_CONF	2162029	n/a	LTP089	ltpFR	1	3	1	CALF	222	2	1	n/a	n/a	n/a	n/a	n/a
4325.354	n/a	RECOG_TARGET	2162677	n/a	LTP089	ltpFR	1	3	1	SAW	1239	5	0	n/a	n/a	n/a	n/a	n/a
4326.502	n/a	RECOG_RESP	2163251	n/a	LTP089	ltpFR	1	3	1	SAW	1239	n/a	0	n/a	n/a	n/a	n/a	n/a
4327.06	n/a	RECOG_CONF	2163530	n/a	LTP089	ltpFR	1	3	1	SAW	1239	5	0	n/a	n/a	n/a	n/a	n/a
4328.484	n/a	RECOG_LURE	2164242	n/a	LTP089	ltpFR	1	3	n/a	CAPTIVE	240	2	n/a	n/a	n/a	n/a	n/a	n/a
4330.244	n/a	RECOG_RESP	2165122	n/a	LTP089	ltpFR	1	3	n/a	CAPTIVE	240	n/a	n/a	n/a	n/a	n/a	n/a	n/a
4330.934	n/a	RECOG_CONF	2165467	n/a	LTP089	ltpFR	1	3	n/a	CAPTIVE	240	2	n/a	n/a	n/a	n/a	n/a	n/a
4332.138	n/a	RECOG_LURE	2166069	n/a	LTP089	ltpFR	1	3	n/a	SHINGLE	1285	5	n/a	n/a	n/a	n/a	n/a	n/a
4333.308	n/a	RECOG_RESP	2166654	n/a	LTP089	ltpFR	1	3	n/a	SHINGLE	1285	n/a	n/a	n/a	n/a	n/a	n/a	n/a
4333.836	n/a	RECOG_CONF	2166918	n/a	LTP089	ltpFR	1	3	n/a	SHINGLE	1285	5	n/a	n/a	n/a	n/a	n/a	n/a
4335.31	n/a	RECOG_LURE	2167655	n/a	LTP089	ltpFR	1	3	n/a	WALL	1582	5	n/a	n/a	n/a	n/a	n/a	n/a
4336.38	n/a	RECOG_RESP	2168190	n/a	LTP089	ltpFR	1	3	n/a	WALL	1582	n/a	n/a	n/a	n/a	n/a	n/a	n/a
4336.98	n/a	RECOG_CONF	2168490	n/a	LTP089	ltpFR	1	3	n/a	WALL	1582	5	n/a	n/a	n/a	n/a	n/a	n/a
4338.44	n/a	RECOG_TARGET	2169220	n/a	LTP089	ltpFR	1	3	-1	BOOK	149	5	-1	n/a	n/a	n/a	n/a	n/a
4339.294	n/a	RECOG_RESP	2169647	n/a	LTP089	ltpFR	1	3	-1	BOOK	149	n/a	-1	n/a	n/a	n/a	n/a	n/a
4339.892	n/a	RECOG_CONF	2169946	n/a	LTP089	ltpFR	1	3	-1	BOOK	149	5	-1	n/a	n/a	n/a	n/a	n/a
4341.236	n/a	RECOG_LURE	2170618	n/a	LTP089	ltpFR	1	3	n/a	PROFESSIONAL	1130	5	n/a	n/a	n/a	n/a	n/a	n/a
4342.846	n/a	RECOG_RESP	2171423	n/a	LTP089	ltpFR	1	3	n/a	PROFESSIONAL	1130	n/a	n/a	n/a	n/a	n/a	n/a	n/a
4343.404	n/a	RECOG_CONF	2171702	n/a	LTP089	ltpFR	1	3	n/a	PROFESSIONAL	1130	5	n/a	n/a	n/a	n/a	n/a	n/a
4344.758	n/a	RECOG_LURE	2172379	n/a	LTP089	ltpFR	1	3	n/a	CEREAL	272	5	n/a	n/a	n/a	n/a	n/a	n/a
4345.584	n/a	RECOG_RESP	2172792	n/a	LTP089	ltpFR	1	3	n/a	CEREAL	272	n/a	n/a	n/a	n/a	n/a	n/a	n/a
4346.128	n/a	RECOG_CONF	2173064	n/a	LTP089	ltpFR	1	3	n/a	CEREAL	272	5	n/a	n/a	n/a	n/a	n/a	n/a
4347.546	n/a	RECOG_TARGET	2173773	n/a	LTP089	ltpFR	1	3	1	DAM	436	5	0	n/a	n/a	n/a	n/a	n/a
4349.172	n/a	RECOG_RESP	2174586	n/a	LTP089	ltpFR	1	3	1	DAM	436	n/a	0	n/a	n/a	n/a	n/a	n/a
4349.75	n/a	RECOG_CONF	2174875	n/a	LTP089	ltpFR	1	3	1	DAM	436	5	0	n/a	n/a	n/a	n/a	n/a
4351.25	n/a	RECOG_LURE	2175625	n/a	LTP089	ltpFR	1	3	n/a	TAVERN	1437	5	n/a	n/a	n/a	n/a	n/a	n/a
4352.768	n/a	RECOG_RESP	2176384	n/a	LTP089	ltpFR	1	3	n/a	TAVERN	1437	n/a	n/a	n/a	n/a	n/a	n/a	n/a
4353.202	n/a	RECOG_CONF	2176601	n/a	LTP089	ltpFR	1	3	n/a	TAVERN	1437	5	n/a	n/a	n/a	n/a	n/a	n/a
4354.662	n/a	RECOG_TARGET	2177331	n/a	LTP089	ltpFR	1	3	0	BIRD	129	5	1	n/a	n/a	n/a	n/a	n/a
4356.136	n/a	RECOG_RESP	2178068	n/a	LTP089	ltpFR	1	3	0	BIRD	129	n/a	1	n/a	n/a	n/a	n/a	n/a
4356.724	n/a	RECOG_CONF	2178362	n/a	LTP089	ltpFR	1	3	0	BIRD	129	5	1	n/a	n/a	n/a	n/a	n/a
4358.108	n/a	RECOG_TARGET	2179054	n/a	LTP089	ltpFR	1	3	-1	SILVERWARE	1308	5	-1	n/a	n/a	n/a	n/a	n/a
4358.88	n/a	RECOG_RESP	2179440	n/a	LTP089	ltpFR	1	3	-1	SILVERWARE	1308	n/a	-1	n/a	n/a	n/a	n/a	n/a
4359.508	n/a	RECOG_CONF	2179754	n/a	LTP089	ltpFR	1	3	-1	SILVERWARE	1308	5	-1	n/a	n/a	n/a	n/a	n/a
4360.888	n/a	RECOG_TARGET	2180444	n/a	LTP089	ltpFR	1	3	0	CAGE	218	5	1	n/a	n/a	n/a	n/a	n/a
4361.744	n/a	RECOG_RESP	2180872	n/a	LTP089	ltpFR	1	3	0	CAGE	218	n/a	1	n/a	n/a	n/a	n/a	n/a
4362.272	n/a	RECOG_CONF	2181136	n/a	LTP089	ltpFR	1	3	0	CAGE	218	5	1	n/a	n/a	n/a	n/a	n/a
4363.686	n/a	RECOG_LURE	2181843	n/a	LTP089	ltpFR	1	3	n/a	SWIMMER	1420	5	n/a	n/a	n/a	n/a	n/a	n/a
4364.646	n/a	RECOG_RESP	2182323	n/a	LTP089	ltpFR	1	3	n/a	SWIMMER	1420	n/a	n/a	n/a	n/a	n/a	n/a	n/a
4365.166	n/a	RECOG_CONF	2182583	n/a	LTP089	ltpFR	1	3	n/a	SWIMMER	1420	5	n/a	n/a	n/a	n/a	n/a	n/a
4366.632	n/a	RECOG_TARGET	2183316	n/a	LTP089	ltpFR	1	3	1	LOBBY	836	5	0	n/a	n/a	n/a	n/a	n/a
4367.456	n/a	RECOG_RESP	2183728	n/a	LTP089	ltpFR	1	3	1	LOBBY	836	n/a	0	n/a	n/a	n/a	n/a	n/a
4368.048	n/a	RECOG_CONF	2184024	n/a	LTP089	ltpFR	1	3	1	LOBBY	836	5	0	n/a	n/a	n/a	n/a	n/a
4369.454	n/a	RECOG_TARGET	2184727	n/a	LTP089	ltpFR	1	3	1	PANTHER	1009	5	1	n/a	n/a	n/a	n/a	n/a
4371.182	n/a	RECOG_RESP	2185591	n/a	LTP089	ltpFR	1	3	1	PANTHER	1009	n/a	1	n/a	n/a	n/a	n/a	n/a
4371.79	n/a	RECOG_CONF	2185895	n/a	LTP089	ltpFR	1	3	1	PANTHER	1009	5	1	n/a	n/a	n/a	n/a	n/a
4373.214	n/a	RECOG_LURE	2186607	n/a	LTP089	ltpFR	1	3	n/a	ORCHID	982	5	n/a	n/a	n/a	n/a	n/a	n/a
4374.214	n/a	RECOG_RESP	2187107	n/a	LTP089	ltpFR	1	3	n/a	ORCHID	982	n/a	n/a	n/a	n/a	n/a	n/a	n/a
4374.666	n/a	RECOG_CONF	2187333	n/a	LTP089	ltpFR	1	3	n/a	ORCHID	982	5	n/a	n/a	n/a	n/a	n/a	n/a
4376.304	n/a	RECOG_LURE	2188152	n/a	LTP089	ltpFR	1	3	n/a	PEDESTRIAN	1038	2	n/a	n/a	n/a	n/a	n/a	n/a
4378.296	n/a	RECOG_RESP	2189148	n/a	LTP089	ltpFR	1	3	n/a	PEDESTRIAN	1038	n/a	n/a	n/a	n/a	n/a	n/a	n/a
4378.834	n/a	RECOG_CONF	2189417	n/a	LTP089	ltpFR	1	3	n/a	PEDESTRIAN	1038	2	n/a	n/a	n/a	n/a	n/a	n/a
4383.75	n/a	REC_START	2191875	n/a	LTP089	ltpFR	1	4	n/a	n/a	n/a	n/a	n/a	n/a	n/a	n/a	n/a	n/a
4383.778	n/a	RECOG_LURE	2191889	n/a	LTP089	ltpFR	1	4	n/a	MAGICIAN	854	5	n/a	n/a	n/a	n/a	n/a	n/a
4384.628	n/a	RECOG_RESP	2192314	n/a	LTP089	ltpFR	1	4	n/a	MAGICIAN	854	n/a	n/a	n/a	n/a	n/a	n/a	n/a
4385.94	n/a	RECOG_CONF	2192970	n/a	LTP089	ltpFR	1	4	n/a	MAGICIAN	854	5	n/a	n/a	n/a	n/a	n/a	n/a
4387.432	n/a	RECOG_TARGET	2193716	n/a	LTP089	ltpFR	1	4	-1	STAKE	1368	5	-1	n/a	n/a	n/a	n/a	n/a
4388.32	n/a	RECOG_RESP	2194160	n/a	LTP089	ltpFR	1	4	-1	STAKE	1368	n/a	-1	n/a	n/a	n/a	n/a	n/a
4388.788	n/a	RECOG_CONF	2194394	n/a	LTP089	ltpFR	1	4	-1	STAKE	1368	5	-1	n/a	n/a	n/a	n/a	n/a
4390.178	n/a	RECOG_LURE	2195089	n/a	LTP089	ltpFR	1	4	n/a	TONGUE	1479	5	n/a	n/a	n/a	n/a	n/a	n/a
4391.886	n/a	RECOG_RESP	2195943	n/a	LTP089	ltpFR	1	4	n/a	TONGUE	1479	n/a	n/a	n/a	n/a	n/a	n/a	n/a
4392.486	n/a	RECOG_CONF	2196243	n/a	LTP089	ltpFR	1	4	n/a	TONGUE	1479	5	n/a	n/a	n/a	n/a	n/a	n/a
4393.916	n/a	RECOG_TARGET	2196958	n/a	LTP089	ltpFR	1	4	1	PORT	1110	5	0	n/a	n/a	n/a	n/a	n/a
4394.796	n/a	RECOG_RESP	2197398	n/a	LTP089	ltpFR	1	4	1	PORT	1110	n/a	0	n/a	n/a	n/a	n/a	n/a
4395.398	n/a	RECOG_CONF	2197699	n/a	LTP089	ltpFR	1	4	1	PORT	1110	5	0	n/a	n/a	n/a	n/a	n/a
4396.822	n/a	RECOG_LURE	2198411	n/a	LTP089	ltpFR	1	4	n/a	WINDSHIELD	1612	5	n/a	n/a	n/a	n/a	n/a	n/a
4398.148	n/a	RECOG_RESP	2199074	n/a	LTP089	ltpFR	1	4	n/a	WINDSHIELD	1612	n/a	n/a	n/a	n/a	n/a	n/a	n/a
4398.922	n/a	RECOG_CONF	2199461	n/a	LTP089	ltpFR	1	4	n/a	WINDSHIELD	1612	5	n/a	n/a	n/a	n/a	n/a	n/a
4400.326	n/a	RECOG_TARGET	2200163	n/a	LTP089	ltpFR	1	4	1	SUMMIT	1405	5	0	n/a	n/a	n/a	n/a	n/a
4401.666	n/a	RECOG_RESP	2200833	n/a	LTP089	ltpFR	1	4	1	SUMMIT	1405	n/a	0	n/a	n/a	n/a	n/a	n/a
4402.324	n/a	RECOG_CONF	2201162	n/a	LTP089	ltpFR	1	4	1	SUMMIT	1405	5	0	n/a	n/a	n/a	n/a	n/a
4403.506	n/a	RECOG_TARGET	2201753	n/a	LTP089	ltpFR	1	4	0	WHISTLE	1606	5	0	n/a	n/a	n/a	n/a	n/a
4404.714	n/a	RECOG_RESP	2202357	n/a	LTP089	ltpFR	1	4	0	WHISTLE	1606	n/a	0	n/a	n/a	n/a	n/a	n/a
4405.298	n/a	RECOG_CONF	2202649	n/a	LTP089	ltpFR	1	4	0	WHISTLE	1606	5	0	n/a	n/a	n/a	n/a	n/a
4406.678	n/a	RECOG_TARGET	2203339	n/a	LTP089	ltpFR	1	4	-1	CAULIFLOWER	262	5	-1	n/a	n/a	n/a	n/a	n/a
4407.538	n/a	RECOG_RESP	2203769	n/a	LTP089	ltpFR	1	4	-1	CAULIFLOWER	262	n/a	-1	n/a	n/a	n/a	n/a	n/a
4408.19	n/a	RECOG_CONF	2204095	n/a	LTP089	ltpFR	1	4	-1	CAULIFLOWER	262	5	-1	n/a	n/a	n/a	n/a	n/a
4409.65	n/a	RECOG_TARGET	2204825	n/a	LTP089	ltpFR	1	4	1	WATERFALL	1595	5	0	n/a	n/a	n/a	n/a	n/a
4410.38	n/a	RECOG_RESP	2205190	n/a	LTP089	ltpFR	1	4	1	WATERFALL	1595	n/a	0	n/a	n/a	n/a	n/a	n/a
4410.974	n/a	RECOG_CONF	2205487	n/a	LTP089	ltpFR	1	4	1	WATERFALL	1595	5	0	n/a	n/a	n/a	n/a	n/a
4412.438	n/a	RECOG_TARGET	2206219	n/a	LTP089	ltpFR	1	4	1	KEYBOARD	774	5	0	n/a	n/a	n/a	n/a	n/a
4413.224	n/a	RECOG_RESP	2206612	n/a	LTP089	ltpFR	1	4	1	KEYBOARD	774	n/a	0	n/a	n/a	n/a	n/a	n/a
4413.738	n/a	RECOG_CONF	2206869	n/a	LTP089	ltpFR	1	4	1	KEYBOARD	774	5	0	n/a	n/a	n/a	n/a	n/a
4415.268	n/a	RECOG_TARGET	2207634	n/a	LTP089	ltpFR	1	4	-1	TYPEWRITER	1531	5	-1	n/a	n/a	n/a	n/a	n/a
4416.546	n/a	RECOG_RESP	2208273	n/a	LTP089	ltpFR	1	4	-1	TYPEWRITER	1531	n/a	-1	n/a	n/a	n/a	n/a	n/a
4417.13	n/a	RECOG_CONF	2208565	n/a	LTP089	ltpFR	1	4	-1	TYPEWRITER	1531	5	-1	n/a	n/a	n/a	n/a	n/a
4418.506	n/a	RECOG_LURE	2209253	n/a	LTP089	ltpFR	1	4	n/a	SCHOOL	1248	5	n/a	n/a	n/a	n/a	n/a	n/a
4421.586	n/a	RECOG_RESP	2210793	n/a	LTP089	ltpFR	1	4	n/a	SCHOOL	1248	n/a	n/a	n/a	n/a	n/a	n/a	n/a
4422.268	n/a	RECOG_CONF	2211134	n/a	LTP089	ltpFR	1	4	n/a	SCHOOL	1248	5	n/a	n/a	n/a	n/a	n/a	n/a
4423.65	n/a	RECOG_LURE	2211825	n/a	LTP089	ltpFR	1	4	n/a	STRING	1394	5	n/a	n/a	n/a	n/a	n/a	n/a
4424.574	n/a	RECOG_RESP	2212287	n/a	LTP089	ltpFR	1	4	n/a	STRING	1394	n/a	n/a	n/a	n/a	n/a	n/a	n/a
4425.152	n/a	RECOG_CONF	2212576	n/a	LTP089	ltpFR	1	4	n/a	STRING	1394	5	n/a	n/a	n/a	n/a	n/a	n/a
4426.554	n/a	RECOG_TARGET	2213277	n/a	LTP089	ltpFR	1	4	-1	GUEST	669	1	-1	n/a	n/a	n/a	n/a	n/a
4429.542	n/a	RECOG_RESP	2214771	n/a	LTP089	ltpFR	1	4	-1	GUEST	669	n/a	-1	n/a	n/a	n/a	n/a	n/a
4430.41	n/a	RECOG_CONF	2215205	n/a	LTP089	ltpFR	1	4	-1	GUEST	669	1	-1	n/a	n/a	n/a	n/a	n/a
4431.666	n/a	RECOG_TARGET	2215833	n/a	LTP089	ltpFR	1	4	1	SWEATER	1419	5	0	n/a	n/a	n/a	n/a	n/a
4433.284	n/a	RECOG_RESP	2216642	n/a	LTP089	ltpFR	1	4	1	SWEATER	1419	n/a	0	n/a	n/a	n/a	n/a	n/a
4433.842	n/a	RECOG_CONF	2216921	n/a	LTP089	ltpFR	1	4	1	SWEATER	1419	5	0	n/a	n/a	n/a	n/a	n/a
4435.294	n/a	RECOG_LURE	2217647	n/a	LTP089	ltpFR	1	4	n/a	GARLIC	624	5	n/a	n/a	n/a	n/a	n/a	n/a
4436.296	n/a	RECOG_RESP	2218148	n/a	LTP089	ltpFR	1	4	n/a	GARLIC	624	n/a	n/a	n/a	n/a	n/a	n/a	n/a
4436.986	n/a	RECOG_CONF	2218493	n/a	LTP089	ltpFR	1	4	n/a	GARLIC	624	5	n/a	n/a	n/a	n/a	n/a	n/a
4438.6	n/a	RECOG_LURE	2219300	n/a	LTP089	ltpFR	1	4	n/a	ENGINEER	536	5	n/a	n/a	n/a	n/a	n/a	n/a
4439.834	n/a	RECOG_RESP	2219917	n/a	LTP089	ltpFR	1	4	n/a	ENGINEER	536	n/a	n/a	n/a	n/a	n/a	n/a	n/a
4440.488	n/a	RECOG_CONF	2220244	n/a	LTP089	ltpFR	1	4	n/a	ENGINEER	536	5	n/a	n/a	n/a	n/a	n/a	n/a
4441.904	n/a	RECOG_TARGET	2220952	n/a	LTP089	ltpFR	1	4	0	TACK	1428	5	0	n/a	n/a	n/a	n/a	n/a
4443.156	n/a	RECOG_RESP	2221578	n/a	LTP089	ltpFR	1	4	0	TACK	1428	n/a	0	n/a	n/a	n/a	n/a	n/a
4443.71	n/a	RECOG_CONF	2221855	n/a	LTP089	ltpFR	1	4	0	TACK	1428	5	0	n/a	n/a	n/a	n/a	n/a
4445.266	n/a	RECOG_LURE	2222633	n/a	LTP089	ltpFR	1	4	n/a	APE	31	5	n/a	n/a	n/a	n/a	n/a	n/a
4446.812	n/a	RECOG_RESP	2223406	n/a	LTP089	ltpFR	1	4	n/a	APE	31	n/a	n/a	n/a	n/a	n/a	n/a	n/a
4447.392	n/a	RECOG_CONF	2223696	n/a	LTP089	ltpFR	1	4	n/a	APE	31	5	n/a	n/a	n/a	n/a	n/a	n/a
4448.878	n/a	RECOG_TARGET	2224439	n/a	LTP089	ltpFR	1	4	0	LASER	801	5	n/a	n/a	n/a	n/a	n/a	n/a
4451.752	n/a	RECOG_RESP	2225876	n/a	LTP089	ltpFR	1	4	0	LASER	801	n/a	n/a	n/a	n/a	n/a	n/a	n/a
4452.55	n/a	RECOG_CONF	2226275	n/a	LTP089	ltpFR	1	4	0	LASER	801	5	n/a	n/a	n/a	n/a	n/a	n/a
4456.4	n/a	REC_START	2228200	n/a	LTP089	ltpFR	1	5	n/a	n/a	n/a	n/a	n/a	n/a	n/a	n/a	n/a	n/a
4456.428	n/a	RECOG_LURE	2228214	n/a	LTP089	ltpFR	1	5	n/a	AMBULANCE	19	5	n/a	n/a	n/a	n/a	n/a	n/a
4457.522	n/a	RECOG_RESP	2228761	n/a	LTP089	ltpFR	1	5	n/a	AMBULANCE	19	n/a	n/a	n/a	n/a	n/a	n/a	n/a
4458.17	n/a	RECOG_CONF	2229085	n/a	LTP089	ltpFR	1	5	n/a	AMBULANCE	19	5	n/a	n/a	n/a	n/a	n/a	n/a
4459.642	n/a	RECOG_TARGET	2229821	n/a	LTP089	ltpFR	1	5	0	PAWN	1030	5	0	n/a	n/a	n/a	n/a	n/a
4460.604	n/a	RECOG_RESP	2230302	n/a	LTP089	ltpFR	1	5	0	PAWN	1030	n/a	0	n/a	n/a	n/a	n/a	n/a
4461.214	n/a	RECOG_CONF	2230607	n/a	LTP089	ltpFR	1	5	0	PAWN	1030	5	0	n/a	n/a	n/a	n/a	n/a
4462.672	n/a	RECOG_LURE	2231336	n/a	LTP089	ltpFR	1	5	n/a	CHEMICAL	291	5	n/a	n/a	n/a	n/a	n/a	n/a
4463.668	n/a	RECOG_RESP	2231834	n/a	LTP089	ltpFR	1	5	n/a	CHEMICAL	291	n/a	n/a	n/a	n/a	n/a	n/a	n/a
4464.396	n/a	RECOG_CONF	2232198	n/a	LTP089	ltpFR	1	5	n/a	CHEMICAL	291	5	n/a	n/a	n/a	n/a	n/a	n/a
4465.768	n/a	RECOG_LURE	2232884	n/a	LTP089	ltpFR	1	5	n/a	WAITER	1580	5	n/a	n/a	n/a	n/a	n/a	n/a
4467.608	n/a	RECOG_RESP	2233804	n/a	LTP089	ltpFR	1	5	n/a	WAITER	1580	n/a	n/a	n/a	n/a	n/a	n/a	n/a
4468.318	n/a	RECOG_CONF	2234159	n/a	LTP089	ltpFR	1	5	n/a	WAITER	1580	5	n/a	n/a	n/a	n/a	n/a	n/a
4469.704	n/a	RECOG_TARGET	2234852	n/a	LTP089	ltpFR	1	5	0	PEANUT	1032	5	0	n/a	n/a	n/a	n/a	n/a
4472.788	n/a	RECOG_RESP	2236394	n/a	LTP089	ltpFR	1	5	0	PEANUT	1032	n/a	0	n/a	n/a	n/a	n/a	n/a
4473.486	n/a	RECOG_CONF	2236743	n/a	LTP089	ltpFR	1	5	0	PEANUT	1032	5	0	n/a	n/a	n/a	n/a	n/a
4475.024	n/a	RECOG_TARGET	2237512	n/a	LTP089	ltpFR	1	5	0	AGENT	10	5	1	n/a	n/a	n/a	n/a	n/a
4476.13	n/a	RECOG_RESP	2238065	n/a	LTP089	ltpFR	1	5	0	AGENT	10	n/a	1	n/a	n/a	n/a	n/a	n/a
4476.71	n/a	RECOG_CONF	2238355	n/a	LTP089	ltpFR	1	5	0	AGENT	10	5	1	n/a	n/a	n/a	n/a	n/a
4478.186	n/a	RECOG_LURE	2239093	n/a	LTP089	ltpFR	1	5	n/a	FRIEND	606	5	n/a	n/a	n/a	n/a	n/a	n/a
4479.244	n/a	RECOG_RESP	2239622	n/a	LTP089	ltpFR	1	5	n/a	FRIEND	606	n/a	n/a	n/a	n/a	n/a	n/a	n/a
4479.882	n/a	RECOG_CONF	2239941	n/a	LTP089	ltpFR	1	5	n/a	FRIEND	606	5	n/a	n/a	n/a	n/a	n/a	n/a
4481.376	n/a	RECOG_LURE	2240688	n/a	LTP089	ltpFR	1	5	n/a	RULER	1216	5	n/a	n/a	n/a	n/a	n/a	n/a
4482.974	n/a	RECOG_RESP	2241487	n/a	LTP089	ltpFR	1	5	n/a	RULER	1216	n/a	n/a	n/a	n/a	n/a	n/a	n/a
4483.654	n/a	RECOG_CONF	2241827	n/a	LTP089	ltpFR	1	5	n/a	RULER	1216	5	n/a	n/a	n/a	n/a	n/a	n/a
4485.08	n/a	RECOG_LURE	2242540	n/a	LTP089	ltpFR	1	5	n/a	PISTOL	1075	5	n/a	n/a	n/a	n/a	n/a	n/a
4486.318	n/a	RECOG_RESP	2243159	n/a	LTP089	ltpFR	1	5	n/a	PISTOL	1075	n/a	n/a	n/a	n/a	n/a	n/a	n/a
4486.936	n/a	RECOG_CONF	2243468	n/a	LTP089	ltpFR	1	5	n/a	PISTOL	1075	5	n/a	n/a	n/a	n/a	n/a	n/a
4488.334	n/a	RECOG_TARGET	2244167	n/a	LTP089	ltpFR	1	5	0	EXPLOSION	544	5	1	n/a	n/a	n/a	n/a	n/a
4489.39	n/a	RECOG_RESP	2244695	n/a	LTP089	ltpFR	1	5	0	EXPLOSION	544	n/a	1	n/a	n/a	n/a	n/a	n/a
4490.118	n/a	RECOG_CONF	2245059	n/a	LTP089	ltpFR	1	5	0	EXPLOSION	544	5	1	n/a	n/a	n/a	n/a	n/a
4491.614	n/a	RECOG_LURE	2245807	n/a	LTP089	ltpFR	1	5	n/a	TUBA	1515	5	n/a	n/a	n/a	n/a	n/a	n/a
4493.052	n/a	RECOG_RESP	2246526	n/a	LTP089	ltpFR	1	5	n/a	TUBA	1515	n/a	n/a	n/a	n/a	n/a	n/a	n/a
4493.68	n/a	RECOG_CONF	2246840	n/a	LTP089	ltpFR	1	5	n/a	TUBA	1515	5	n/a	n/a	n/a	n/a	n/a	n/a
4495.142	n/a	RECOG_LURE	2247571	n/a	LTP089	ltpFR	1	5	n/a	PIT	1077	5	n/a	n/a	n/a	n/a	n/a	n/a
4496.046	n/a	RECOG_RESP	2248023	n/a	LTP089	ltpFR	1	5	n/a	PIT	1077	n/a	n/a	n/a	n/a	n/a	n/a	n/a
4496.674	n/a	RECOG_CONF	2248337	n/a	LTP089	ltpFR	1	5	n/a	PIT	1077	5	n/a	n/a	n/a	n/a	n/a	n/a
4498.088	n/a	RECOG_TARGET	2249044	n/a	LTP089	ltpFR	1	5	0	BUFFALO	186	2	1	n/a	n/a	n/a	n/a	n/a
4501.074	n/a	RECOG_RESP	2250537	n/a	LTP089	ltpFR	1	5	0	BUFFALO	186	n/a	1	n/a	n/a	n/a	n/a	n/a
4501.882	n/a	RECOG_CONF	2250941	n/a	LTP089	ltpFR	1	5	0	BUFFALO	186	2	1	n/a	n/a	n/a	n/a	n/a
4503.326	n/a	RECOG_LURE	2251663	n/a	LTP089	ltpFR	1	5	n/a	DEODORANT	448	5	n/a	n/a	n/a	n/a	n/a	n/a
4504.326	n/a	RECOG_RESP	2252163	n/a	LTP089	ltpFR	1	5	n/a	DEODORANT	448	n/a	n/a	n/a	n/a	n/a	n/a	n/a
4504.944	n/a	RECOG_CONF	2252472	n/a	LTP089	ltpFR	1	5	n/a	DEODORANT	448	5	n/a	n/a	n/a	n/a	n/a	n/a
4506.454	n/a	RECOG_TARGET	2253227	n/a	LTP089	ltpFR	1	5	-1	CHERRY	293	5	-1	n/a	n/a	n/a	n/a	n/a
4507.25	n/a	RECOG_RESP	2253625	n/a	LTP089	ltpFR	1	5	-1	CHERRY	293	n/a	-1	n/a	n/a	n/a	n/a	n/a
4507.828	n/a	RECOG_CONF	2253914	n/a	LTP089	ltpFR	1	5	-1	CHERRY	293	5	-1	n/a	n/a	n/a	n/a	n/a
4509.284	n/a	RECOG_LURE	2254642	n/a	LTP089	ltpFR	1	5	n/a	DRESS	495	5	n/a	n/a	n/a	n/a	n/a	n/a
4510.214	n/a	RECOG_RESP	2255107	n/a	LTP089	ltpFR	1	5	n/a	DRESS	495	n/a	n/a	n/a	n/a	n/a	n/a	n/a
4510.872	n/a	RECOG_CONF	2255436	n/a	LTP089	ltpFR	1	5	n/a	DRESS	495	5	n/a	n/a	n/a	n/a	n/a	n/a
4512.314	n/a	RECOG_TARGET	2256157	n/a	LTP089	ltpFR	1	5	-1	BEARD	107	5	-1	n/a	n/a	n/a	n/a	n/a
4513.096	n/a	RECOG_RESP	2256548	n/a	LTP089	ltpFR	1	5	-1	BEARD	107	n/a	-1	n/a	n/a	n/a	n/a	n/a
4513.686	n/a	RECOG_CONF	2256843	n/a	LTP089	ltpFR	1	5	-1	BEARD	107	5	-1	n/a	n/a	n/a	n/a	n/a
4515.118	n/a	RECOG_TARGET	2257559	n/a	LTP089	ltpFR	1	5	0	TICK	1463	5	0	n/a	n/a	n/a	n/a	n/a
4516.11	n/a	RECOG_RESP	2258055	n/a	LTP089	ltpFR	1	5	0	TICK	1463	n/a	0	n/a	n/a	n/a	n/a	n/a
4516.748	n/a	RECOG_CONF	2258374	n/a	LTP089	ltpFR	1	5	0	TICK	1463	5	0	n/a	n/a	n/a	n/a	n/a
4518.148	n/a	RECOG_LURE	2259074	n/a	LTP089	ltpFR	1	5	n/a	SISTER	1312	5	n/a	n/a	n/a	n/a	n/a	n/a
4519.438	n/a	RECOG_RESP	2259719	n/a	LTP089	ltpFR	1	5	n/a	SISTER	1312	n/a	n/a	n/a	n/a	n/a	n/a	n/a
4520.07	n/a	RECOG_CONF	2260035	n/a	LTP089	ltpFR	1	5	n/a	SISTER	1312	5	n/a	n/a	n/a	n/a	n/a	n/a
4521.504	n/a	RECOG_TARGET	2260752	n/a	LTP089	ltpFR	1	5	1	GROCERIES	663	5	0	n/a	n/a	n/a	n/a	n/a
4522.496	n/a	RECOG_RESP	2261248	n/a	LTP089	ltpFR	1	5	1	GROCERIES	663	n/a	0	n/a	n/a	n/a	n/a	n/a
4523.104	n/a	RECOG_CONF	2261552	n/a	LTP089	ltpFR	1	5	1	GROCERIES	663	5	0	n/a	n/a	n/a	n/a	n/a
4527.046	n/a	REC_START	2263523	n/a	LTP089	ltpFR	1	6	n/a	n/a	n/a	n/a	n/a	n/a	n/a	n/a	n/a	n/a
4527.072	n/a	RECOG_LURE	2263536	n/a	LTP089	ltpFR	1	6	n/a	CART	250	5	n/a	n/a	n/a	n/a	n/a	n/a
4528.078	n/a	RECOG_RESP	2264039	n/a	LTP089	ltpFR	1	6	n/a	CART	250	n/a	n/a	n/a	n/a	n/a	n/a	n/a
4528.688	n/a	RECOG_CONF	2264344	n/a	LTP089	ltpFR	1	6	n/a	CART	250	5	n/a	n/a	n/a	n/a	n/a	n/a
4530.134	n/a	RECOG_TARGET	2265067	n/a	LTP089	ltpFR	1	6	1	CONTAINER	366	5	0	n/a	n/a	n/a	n/a	n/a
4531.292	n/a	RECOG_RESP	2265646	n/a	LTP089	ltpFR	1	6	1	CONTAINER	366	n/a	0	n/a	n/a	n/a	n/a	n/a
4531.94	n/a	RECOG_CONF	2265970	n/a	LTP089	ltpFR	1	6	1	CONTAINER	366	5	0	n/a	n/a	n/a	n/a	n/a
4533.332	n/a	RECOG_LURE	2266666	n/a	LTP089	ltpFR	1	6	n/a	CLIPPERS	324	5	n/a	n/a	n/a	n/a	n/a	n/a
4534.284	n/a	RECOG_RESP	2267142	n/a	LTP089	ltpFR	1	6	n/a	CLIPPERS	324	n/a	n/a	n/a	n/a	n/a	n/a	n/a
