mstime	trial_type	stim_file	subject	experiment	session	trial	task	item_name	item_num	recog_conf	resp	answer	test_x	test_y	test_z	color_b	color_g	color_r	case	font
0	SESS_START	n/a	LTP099	ltpFR	12	n/a	n/a	n/a	n/a	3	n/a	n/a	0	0	0	n/a	n/a	n/a	n/a	n/a
25180	START	n/a	LTP099	ltpFR	12	n/a	n/a	n/a	n/a	n/a	n/a	n/a	n/a	n/a	n/a	n/a	n/a	n/a	n/a	n/a
25205	PROB	n/a	LTP099	ltpFR	12	n/a	n/a	n/a	n/a	n/a	n/a	13	4	4	5	n/a	n/a	n/a	n/a	n/a
27430	PROB	n/a	LTP099	ltpFR	12	n/a	n/a	n/a	n/a	n/a	n/a	14	9	4	2	n/a	n/a	n/a	n/a	n/a
29080	PROB	n/a	LTP099	ltpFR	12	n/a	n/a	n/a	n/a	n/a	n/a	15	3	5	7	n/a	n/a	n/a	n/a	n/a
30446	PROB	n/a	LTP099	ltpFR	12	n/a	n/a	n/a	n/a	n/a	n/a	15	8	4	3	n/a	n/a	n/a	n/a	n/a
31829	PROB	n/a	LTP099	ltpFR	12	n/a	n/a	n/a	n/a	n/a	n/a	15	1	9	5	n/a	n/a	n/a	n/a	n/a
32928	PROB	n/a	LTP099	ltpFR	12	n/a	n/a	n/a	n/a	n/a	n/a	13	6	4	3	n/a	n/a	n/a	n/a	n/a
34104	PROB	n/a	LTP099	ltpFR	12	n/a	n/a	n/a	n/a	n/a	n/a	21	7	9	6	n/a	n/a	n/a	n/a	n/a
36121	PROB	n/a	LTP099	ltpFR	12	n/a	n/a	n/a	n/a	n/a	n/a	14	5	7	1	n/a	n/a	n/a	n/a	n/a
37612	PROB	n/a	LTP099	ltpFR	12	n/a	n/a	n/a	n/a	n/a	n/a	6	3	1	2	n/a	n/a	n/a	n/a	n/a
39221	PROB	n/a	LTP099	ltpFR	12	n/a	n/a	n/a	n/a	n/a	n/a	12	7	3	2	n/a	n/a	n/a	n/a	n/a
40287	PROB	n/a	LTP099	ltpFR	12	n/a	n/a	n/a	n/a	n/a	n/a	16	8	1	7	n/a	n/a	n/a	n/a	n/a
41987	PROB	n/a	LTP099	ltpFR	12	n/a	n/a	n/a	n/a	n/a	n/a	12	5	4	3	n/a	n/a	n/a	n/a	n/a
43504	PROB	n/a	LTP099	ltpFR	12	n/a	n/a	n/a	n/a	n/a	n/a	17	3	5	9	n/a	n/a	n/a	n/a	n/a
45049	STOP	n/a	LTP099	ltpFR	12	n/a	n/a	n/a	n/a	n/a	n/a	n/a	n/a	n/a	n/a	n/a	n/a	n/a	n/a	n/a
68826	START	n/a	LTP099	ltpFR	12	n/a	n/a	n/a	n/a	n/a	n/a	n/a	n/a	n/a	n/a	n/a	n/a	n/a	n/a	n/a
70335	PROB	n/a	LTP099	ltpFR	12	n/a	n/a	n/a	n/a	n/a	n/a	9	4	4	1	n/a	n/a	n/a	n/a	n/a
71934	PROB	n/a	LTP099	ltpFR	12	n/a	n/a	n/a	n/a	n/a	n/a	20	6	8	6	n/a	n/a	n/a	n/a	n/a
73360	PROB	n/a	LTP099	ltpFR	12	n/a	n/a	n/a	n/a	n/a	n/a	16	9	2	5	n/a	n/a	n/a	n/a	n/a
74892	PROB	n/a	LTP099	ltpFR	12	n/a	n/a	n/a	n/a	n/a	n/a	15	6	7	2	n/a	n/a	n/a	n/a	n/a
76393	STOP	n/a	LTP099	ltpFR	12	n/a	n/a	n/a	n/a	n/a	n/a	n/a	n/a	n/a	n/a	n/a	n/a	n/a	n/a	n/a
77668	WORD	wordpools/wasnorm_wordpool.txt	LTP099	ltpFR	12	1	0	EGYPT	519	n/a	0	n/a	0	0	0	1	0.412841796875	0.57763671875	lower	../fonts/amplitud.ttf
80676	START	n/a	LTP099	ltpFR	12	n/a	n/a	n/a	n/a	n/a	n/a	n/a	n/a	n/a	n/a	n/a	n/a	n/a	n/a	n/a
81576	PROB	n/a	LTP099	ltpFR	12	n/a	n/a	n/a	n/a	n/a	n/a	22	9	4	8	n/a	n/a	n/a	n/a	n/a
83417	PROB	n/a	LTP099	ltpFR	12	n/a	n/a	n/a	n/a	n/a	n/a	24	8	8	8	n/a	n/a	n/a	n/a	n/a
85000	PROB	n/a	LTP099	ltpFR	12	n/a	n/a	n/a	n/a	n/a	n/a	12	7	1	3	n/a	n/a	n/a	n/a	n/a
88676	STOP	n/a	LTP099	ltpFR	12	n/a	n/a	n/a	n/a	n/a	n/a	n/a	n/a	n/a	n/a	n/a	n/a	n/a	n/a	n/a
89800	WORD	wordpools/wasnorm_wordpool.txt	LTP099	ltpFR	12	1	0	MUMMY	932	n/a	1	n/a	0	0	0	1	0.412841796875	0.57763671875	lower	../fonts/amplitud.ttf
92808	START	n/a	LTP099	ltpFR	12	n/a	n/a	n/a	n/a	n/a	n/a	n/a	n/a	n/a	n/a	n/a	n/a	n/a	n/a	n/a
93658	PROB	n/a	LTP099	ltpFR	12	n/a	n/a	n/a	n/a	n/a	n/a	18	5	9	4	n/a	n/a	n/a	n/a	n/a
95333	PROB	n/a	LTP099	ltpFR	12	n/a	n/a	n/a	n/a	n/a	n/a	10	2	1	7	n/a	n/a	n/a	n/a	n/a
96433	PROB	n/a	LTP099	ltpFR	12	n/a	n/a	n/a	n/a	n/a	n/a	20	8	4	8	n/a	n/a	n/a	n/a	n/a
100808	STOP	n/a	LTP099	ltpFR	12	n/a	n/a	n/a	n/a	n/a	n/a	n/a	n/a	n/a	n/a	n/a	n/a	n/a	n/a	n/a
101699	WORD	wordpools/wasnorm_wordpool.txt	LTP099	ltpFR	12	1	1	CARTON	251	n/a	0	n/a	0	0	0	0	0.5869140625	0.422607421875	upper	../fonts/zerothre.ttf
104708	START	n/a	LTP099	ltpFR	12	n/a	n/a	n/a	n/a	n/a	n/a	n/a	n/a	n/a	n/a	n/a	n/a	n/a	n/a	n/a
105799	PROB	n/a	LTP099	ltpFR	12	n/a	n/a	n/a	n/a	n/a	n/a	13	3	6	4	n/a	n/a	n/a	n/a	n/a
107190	PROB	n/a	LTP099	ltpFR	12	n/a	n/a	n/a	n/a	n/a	n/a	20	7	6	7	n/a	n/a	n/a	n/a	n/a
108615	PROB	n/a	LTP099	ltpFR	12	n/a	n/a	n/a	n/a	n/a	n/a	11	6	1	4	n/a	n/a	n/a	n/a	n/a
110457	PROB	n/a	LTP099	ltpFR	12	n/a	n/a	n/a	n/a	n/a	n/a	5	2	1	2	n/a	n/a	n/a	n/a	n/a
111465	STOP	n/a	LTP099	ltpFR	12	n/a	n/a	n/a	n/a	n/a	n/a	n/a	n/a	n/a	n/a	n/a	n/a	n/a	n/a	n/a
113822	WORD	wordpools/wasnorm_wordpool.txt	LTP099	ltpFR	12	1	1	BAIT	70	n/a	0	n/a	0	0	0	0	0.5869140625	0.422607421875	upper	../fonts/zerothre.ttf
116831	START	n/a	LTP099	ltpFR	12	n/a	n/a	n/a	n/a	n/a	n/a	n/a	n/a	n/a	n/a	n/a	n/a	n/a	n/a	n/a
117673	PROB	n/a	LTP099	ltpFR	12	n/a	n/a	n/a	n/a	n/a	n/a	14	8	1	6	n/a	n/a	n/a	n/a	n/a
119039	PROB	n/a	LTP099	ltpFR	12	n/a	n/a	n/a	n/a	n/a	n/a	12	6	2	4	n/a	n/a	n/a	n/a	n/a
120289	PROB	n/a	LTP099	ltpFR	12	n/a	n/a	n/a	n/a	n/a	n/a	16	4	8	4	n/a	n/a	n/a	n/a	n/a
122264	PROB	n/a	LTP099	ltpFR	12	n/a	n/a	n/a	n/a	n/a	n/a	14	2	5	7	n/a	n/a	n/a	n/a	n/a
123441	STOP	n/a	LTP099	ltpFR	12	n/a	n/a	n/a	n/a	n/a	n/a	n/a	n/a	n/a	n/a	n/a	n/a	n/a	n/a	n/a
126039	WORD	wordpools/wasnorm_wordpool.txt	LTP099	ltpFR	12	1	1	CANDIDATE	228	n/a	1	n/a	0	0	0	0	0.5869140625	0.422607421875	upper	../fonts/zerothre.ttf
129047	START	n/a	LTP099	ltpFR	12	n/a	n/a	n/a	n/a	n/a	n/a	n/a	n/a	n/a	n/a	n/a	n/a	n/a	n/a	n/a
130105	PROB	n/a	LTP099	ltpFR	12	n/a	n/a	n/a	n/a	n/a	n/a	11	1	1	9	n/a	n/a	n/a	n/a	n/a
131255	PROB	n/a	LTP099	ltpFR	12	n/a	n/a	n/a	n/a	n/a	n/a	8	1	5	2	n/a	n/a	n/a	n/a	n/a
132912	PROB	n/a	LTP099	ltpFR	12	n/a	n/a	n/a	n/a	n/a	n/a	15	8	5	2	n/a	n/a	n/a	n/a	n/a
136017	STOP	n/a	LTP099	ltpFR	12	n/a	n/a	n/a	n/a	n/a	n/a	n/a	n/a	n/a	n/a	n/a	n/a	n/a	n/a	n/a
137945	WORD	wordpools/wasnorm_wordpool.txt	LTP099	ltpFR	12	1	0	DANDELION	438	n/a	0	n/a	0	0	0	1	0.412841796875	0.57763671875	lower	../fonts/amplitud.ttf
140954	START	n/a	LTP099	ltpFR	12	n/a	n/a	n/a	n/a	n/a	n/a	n/a	n/a	n/a	n/a	n/a	n/a	n/a	n/a	n/a
142088	PROB	n/a	LTP099	ltpFR	12	n/a	n/a	n/a	n/a	n/a	n/a	14	4	1	9	n/a	n/a	n/a	n/a	n/a
143396	PROB	n/a	LTP099	ltpFR	12	n/a	n/a	n/a	n/a	n/a	n/a	23	9	8	6	n/a	n/a	n/a	n/a	n/a
145878	PROB	n/a	LTP099	ltpFR	12	n/a	n/a	n/a	n/a	n/a	n/a	17	5	7	5	n/a	n/a	n/a	n/a	n/a
147196	PROB	n/a	LTP099	ltpFR	12	n/a	n/a	n/a	n/a	n/a	n/a	69	5	3	1	n/a	n/a	n/a	n/a	n/a
148761	STOP	n/a	LTP099	ltpFR	12	n/a	n/a	n/a	n/a	n/a	n/a	n/a	n/a	n/a	n/a	n/a	n/a	n/a	n/a	n/a
149987	WORD	wordpools/wasnorm_wordpool.txt	LTP099	ltpFR	12	1	0	CANYON	235	n/a	1	n/a	0	0	0	1	0.412841796875	0.57763671875	lower	../fonts/amplitud.ttf
152996	START	n/a	LTP099	ltpFR	12	n/a	n/a	n/a	n/a	n/a	n/a	n/a	n/a	n/a	n/a	n/a	n/a	n/a	n/a	n/a
154162	PROB	n/a	LTP099	ltpFR	12	n/a	n/a	n/a	n/a	n/a	n/a	18	6	9	3	n/a	n/a	n/a	n/a	n/a
155886	PROB	n/a	LTP099	ltpFR	12	n/a	n/a	n/a	n/a	n/a	n/a	17	3	6	8	n/a	n/a	n/a	n/a	n/a
157653	PROB	n/a	LTP099	ltpFR	12	n/a	n/a	n/a	n/a	n/a	n/a	18	4	5	9	n/a	n/a	n/a	n/a	n/a
158778	PROB	n/a	LTP099	ltpFR	12	n/a	n/a	n/a	n/a	n/a	n/a	14	4	8	2	n/a	n/a	n/a	n/a	n/a
159888	STOP	n/a	LTP099	ltpFR	12	n/a	n/a	n/a	n/a	n/a	n/a	n/a	n/a	n/a	n/a	n/a	n/a	n/a	n/a	n/a
161818	WORD	wordpools/wasnorm_wordpool.txt	LTP099	ltpFR	12	1	0	ROOMMATE	1207	n/a	1	n/a	0	0	0	1	0.412841796875	0.57763671875	lower	../fonts/amplitud.ttf
164819	START	n/a	LTP099	ltpFR	12	n/a	n/a	n/a	n/a	n/a	n/a	n/a	n/a	n/a	n/a	n/a	n/a	n/a	n/a	n/a
165826	PROB	n/a	LTP099	ltpFR	12	n/a	n/a	n/a	n/a	n/a	n/a	19	6	8	5	n/a	n/a	n/a	n/a	n/a
167344	PROB	n/a	LTP099	ltpFR	12	n/a	n/a	n/a	n/a	n/a	n/a	16	6	1	9	n/a	n/a	n/a	n/a	n/a
168594	PROB	n/a	LTP099	ltpFR	12	n/a	n/a	n/a	n/a	n/a	n/a	9	5	1	3	n/a	n/a	n/a	n/a	n/a
170219	PROB	n/a	LTP099	ltpFR	12	n/a	n/a	n/a	n/a	n/a	n/a	22	6	7	9	n/a	n/a	n/a	n/a	n/a
172633	STOP	n/a	LTP099	ltpFR	12	n/a	n/a	n/a	n/a	n/a	n/a	n/a	n/a	n/a	n/a	n/a	n/a	n/a	n/a	n/a
173694	WORD	wordpools/wasnorm_wordpool.txt	LTP099	ltpFR	12	1	1	LOBSTER	837	n/a	1	n/a	0	0	0	0	0.5869140625	0.422607421875	upper	../fonts/zerothre.ttf
176702	START	n/a	LTP099	ltpFR	12	n/a	n/a	n/a	n/a	n/a	n/a	n/a	n/a	n/a	n/a	n/a	n/a	n/a	n/a	n/a
177809	PROB	n/a	LTP099	ltpFR	12	n/a	n/a	n/a	n/a	n/a	n/a	18	5	7	6	n/a	n/a	n/a	n/a	n/a
180026	PROB	n/a	LTP099	ltpFR	12	n/a	n/a	n/a	n/a	n/a	n/a	16	3	6	7	n/a	n/a	n/a	n/a	n/a
182068	PROB	n/a	LTP099	ltpFR	12	n/a	n/a	n/a	n/a	n/a	n/a	11	4	2	5	n/a	n/a	n/a	n/a	n/a
183321	STOP	n/a	LTP099	ltpFR	12	n/a	n/a	n/a	n/a	n/a	n/a	n/a	n/a	n/a	n/a	n/a	n/a	n/a	n/a	n/a
185668	WORD	wordpools/wasnorm_wordpool.txt	LTP099	ltpFR	12	1	1	CREAM	402	n/a	0	n/a	0	0	0	0	0.5869140625	0.422607421875	upper	../fonts/zerothre.ttf
188676	START	n/a	LTP099	ltpFR	12	n/a	n/a	n/a	n/a	n/a	n/a	n/a	n/a	n/a	n/a	n/a	n/a	n/a	n/a	n/a
189841	PROB	n/a	LTP099	ltpFR	12	n/a	n/a	n/a	n/a	n/a	n/a	12	2	9	1	n/a	n/a	n/a	n/a	n/a
191517	PROB	n/a	LTP099	ltpFR	12	n/a	n/a	n/a	n/a	n/a	n/a	14	4	3	7	n/a	n/a	n/a	n/a	n/a
192775	PROB	n/a	LTP099	ltpFR	12	n/a	n/a	n/a	n/a	n/a	n/a	18	7	4	7	n/a	n/a	n/a	n/a	n/a
195489	STOP	n/a	LTP099	ltpFR	12	n/a	n/a	n/a	n/a	n/a	n/a	n/a	n/a	n/a	n/a	n/a	n/a	n/a	n/a	n/a
197807	WORD	wordpools/wasnorm_wordpool.txt	LTP099	ltpFR	12	1	1	CARD	243	n/a	0	n/a	0	0	0	0	0.5869140625	0.422607421875	upper	../fonts/zerothre.ttf
200808	START	n/a	LTP099	ltpFR	12	n/a	n/a	n/a	n/a	n/a	n/a	n/a	n/a	n/a	n/a	n/a	n/a	n/a	n/a	n/a
202000	PROB	n/a	LTP099	ltpFR	12	n/a	n/a	n/a	n/a	n/a	n/a	16	8	4	4	n/a	n/a	n/a	n/a	n/a
204416	PROB	n/a	LTP099	ltpFR	12	n/a	n/a	n/a	n/a	n/a	n/a	15	1	7	7	n/a	n/a	n/a	n/a	n/a
205708	PROB	n/a	LTP099	ltpFR	12	n/a	n/a	n/a	n/a	n/a	n/a	12	6	5	1	n/a	n/a	n/a	n/a	n/a
207952	STOP	n/a	LTP099	ltpFR	12	n/a	n/a	n/a	n/a	n/a	n/a	n/a	n/a	n/a	n/a	n/a	n/a	n/a	n/a	n/a
209915	WORD	wordpools/wasnorm_wordpool.txt	LTP099	ltpFR	12	1	1	VOLLEYBALL	1576	n/a	0	n/a	0	0	0	0	0.5869140625	0.422607421875	upper	../fonts/zerothre.ttf
212923	START	n/a	LTP099	ltpFR	12	n/a	n/a	n/a	n/a	n/a	n/a	n/a	n/a	n/a	n/a	n/a	n/a	n/a	n/a	n/a
213881	PROB	n/a	LTP099	ltpFR	12	n/a	n/a	n/a	n/a	n/a	n/a	18	6	5	7	n/a	n/a	n/a	n/a	n/a
215357	PROB	n/a	LTP099	ltpFR	12	n/a	n/a	n/a	n/a	n/a	n/a	18	3	6	9	n/a	n/a	n/a	n/a	n/a
216540	PROB	n/a	LTP099	ltpFR	12	n/a	n/a	n/a	n/a	n/a	n/a	22	8	8	7	n/a	n/a	n/a	n/a	n/a
218690	PROB	n/a	LTP099	ltpFR	12	n/a	n/a	n/a	n/a	n/a	n/a	18	9	8	1	n/a	n/a	n/a	n/a	n/a
219896	STOP	n/a	LTP099	ltpFR	12	n/a	n/a	n/a	n/a	n/a	n/a	n/a	n/a	n/a	n/a	n/a	n/a	n/a	n/a	n/a
221814	WORD	wordpools/wasnorm_wordpool.txt	LTP099	ltpFR	12	1	1	GOVERNOR	651	n/a	1	n/a	0	0	0	0	0.5869140625	0.422607421875	upper	../fonts/zerothre.ttf
224822	START	n/a	LTP099	ltpFR	12	n/a	n/a	n/a	n/a	n/a	n/a	n/a	n/a	n/a	n/a	n/a	n/a	n/a	n/a	n/a
226014	PROB	n/a	LTP099	ltpFR	12	n/a	n/a	n/a	n/a	n/a	n/a	15	4	9	2	n/a	n/a	n/a	n/a	n/a
227838	PROB	n/a	LTP099	ltpFR	12	n/a	n/a	n/a	n/a	n/a	n/a	13	2	7	4	n/a	n/a	n/a	n/a	n/a
229398	PROB	n/a	LTP099	ltpFR	12	n/a	n/a	n/a	n/a	n/a	n/a	16	4	7	5	n/a	n/a	n/a	n/a	n/a
232822	STOP	n/a	LTP099	ltpFR	12	n/a	n/a	n/a	n/a	n/a	n/a	n/a	n/a	n/a	n/a	n/a	n/a	n/a	n/a	n/a
233930	WORD	wordpools/wasnorm_wordpool.txt	LTP099	ltpFR	12	1	0	BAKER	71	n/a	0	n/a	0	0	0	1	0.412841796875	0.57763671875	lower	../fonts/amplitud.ttf
236938	START	n/a	LTP099	ltpFR	12	n/a	n/a	n/a	n/a	n/a	n/a	n/a	n/a	n/a	n/a	n/a	n/a	n/a	n/a	n/a
238005	PROB	n/a	LTP099	ltpFR	12	n/a	n/a	n/a	n/a	n/a	n/a	19	5	7	7	n/a	n/a	n/a	n/a	n/a
239547	PROB	n/a	LTP099	ltpFR	12	n/a	n/a	n/a	n/a	n/a	n/a	13	1	6	6	n/a	n/a	n/a	n/a	n/a
240921	PROB	n/a	LTP099	ltpFR	12	n/a	n/a	n/a	n/a	n/a	n/a	17	7	5	5	n/a	n/a	n/a	n/a	n/a
242105	PROB	n/a	LTP099	ltpFR	12	n/a	n/a	n/a	n/a	n/a	n/a	14	1	4	9	n/a	n/a	n/a	n/a	n/a
244938	STOP	n/a	LTP099	ltpFR	12	n/a	n/a	n/a	n/a	n/a	n/a	n/a	n/a	n/a	n/a	n/a	n/a	n/a	n/a	n/a
245796	WORD	wordpools/wasnorm_wordpool.txt	LTP099	ltpFR	12	1	0	BANKER	84	n/a	0	n/a	0	0	0	1	0.412841796875	0.57763671875	lower	../fonts/amplitud.ttf
248797	START	n/a	LTP099	ltpFR	12	n/a	n/a	n/a	n/a	n/a	n/a	n/a	n/a	n/a	n/a	n/a	n/a	n/a	n/a	n/a
249738	PROB	n/a	LTP099	ltpFR	12	n/a	n/a	n/a	n/a	n/a	n/a	19	7	7	5	n/a	n/a	n/a	n/a	n/a
251204	PROB	n/a	LTP099	ltpFR	12	n/a	n/a	n/a	n/a	n/a	n/a	18	8	1	9	n/a	n/a	n/a	n/a	n/a
252596	PROB	n/a	LTP099	ltpFR	12	n/a	n/a	n/a	n/a	n/a	n/a	14	6	4	4	n/a	n/a	n/a	n/a	n/a
254012	PROB	n/a	LTP099	ltpFR	12	n/a	n/a	n/a	n/a	n/a	n/a	11	6	5	1	n/a	n/a	n/a	n/a	n/a
255433	STOP	n/a	LTP099	ltpFR	12	n/a	n/a	n/a	n/a	n/a	n/a	n/a	n/a	n/a	n/a	n/a	n/a	n/a	n/a	n/a
257886	WORD	wordpools/wasnorm_wordpool.txt	LTP099	ltpFR	12	1	0	PAWN	1030	n/a	0	n/a	0	0	0	1	0.412841796875	0.57763671875	lower	../fonts/amplitud.ttf
260894	START	n/a	LTP099	ltpFR	12	n/a	n/a	n/a	n/a	n/a	n/a	n/a	n/a	n/a	n/a	n/a	n/a	n/a	n/a	n/a
261886	PROB	n/a	LTP099	ltpFR	12	n/a	n/a	n/a	n/a	n/a	n/a	12	5	2	5	n/a	n/a	n/a	n/a	n/a
263162	PROB	n/a	LTP099	ltpFR	12	n/a	n/a	n/a	n/a	n/a	n/a	6	2	3	1	n/a	n/a	n/a	n/a	n/a
264370	PROB	n/a	LTP099	ltpFR	12	n/a	n/a	n/a	n/a	n/a	n/a	10	7	2	1	n/a	n/a	n/a	n/a	n/a
265395	PROB	n/a	LTP099	ltpFR	12	n/a	n/a	n/a	n/a	n/a	n/a	11	3	3	5	n/a	n/a	n/a	n/a	n/a
267186	PROB	n/a	LTP099	ltpFR	12	n/a	n/a	n/a	n/a	n/a	n/a	11	5	2	4	n/a	n/a	n/a	n/a	n/a
268729	STOP	n/a	LTP099	ltpFR	12	n/a	n/a	n/a	n/a	n/a	n/a	n/a	n/a	n/a	n/a	n/a	n/a	n/a	n/a	n/a
270695	REC_START	n/a	LTP099	ltpFR	12	1	n/a	n/a	n/a	n/a	n/a	n/a	0	0	0	n/a	n/a	n/a	n/a	n/a
272211	REC_WORD	wordpools/wasnorm_wordpool.txt	LTP099	ltpFR	12	1	1	CARTON	251	n/a	0	n/a	0	0	0	n/a	n/a	n/a	n/a	n/a
273124	REC_WORD	wordpools/wasnorm_wordpool.txt	LTP099	ltpFR	12	1	0	EGYPT	519	n/a	0	n/a	0	0	0	n/a	n/a	n/a	n/a	n/a
274047	REC_WORD	wordpools/wasnorm_wordpool.txt	LTP099	ltpFR	12	1	n/a	TOMB	1477	n/a	n/a	n/a	0	0	0	n/a	n/a	n/a	n/a	n/a
275220	REC_WORD_VV	wordpools/wasnorm_wordpool.txt	LTP099	ltpFR	12	1	n/a	<>	-1	n/a	n/a	n/a	0	0	0	n/a	n/a	n/a	n/a	n/a
275495	REC_WORD	wordpools/wasnorm_wordpool.txt	LTP099	ltpFR	12	1	0	MUMMY	932	n/a	1	n/a	0	0	0	n/a	n/a	n/a	n/a	n/a
348305	WORD	wordpools/wasnorm_wordpool.txt	LTP099	ltpFR	12	2	1	KITTEN	780	n/a	1	n/a	0	0	0	0	0.5869140625	0.422607421875	upper	../fonts/zerothre.ttf
352388	WORD	wordpools/wasnorm_wordpool.txt	LTP099	ltpFR	12	2	1	BUTTON	207	n/a	0	n/a	0	0	0	0	0.5869140625	0.422607421875	upper	../fonts/zerothre.ttf
356221	WORD	wordpools/wasnorm_wordpool.txt	LTP099	ltpFR	12	2	1	STAR	1373	n/a	0	n/a	0	0	0	0	0.5869140625	0.422607421875	upper	../fonts/zerothre.ttf
360313	WORD	wordpools/wasnorm_wordpool.txt	LTP099	ltpFR	12	2	0	COP	376	n/a	1	n/a	0	0	0	1	0.412841796875	0.57763671875	lower	../fonts/amplitud.ttf
364471	WORD	wordpools/wasnorm_wordpool.txt	LTP099	ltpFR	12	2	0	NEEDLE	941	n/a	0	n/a	0	0	0	1	0.412841796875	0.57763671875	lower	../fonts/amplitud.ttf
368562	WORD	wordpools/wasnorm_wordpool.txt	LTP099	ltpFR	12	2	0	CRATER	400	n/a	1	n/a	0	0	0	1	0.412841796875	0.57763671875	lower	../fonts/amplitud.ttf
372570	WORD	wordpools/wasnorm_wordpool.txt	LTP099	ltpFR	12	2	0	MOON	914	n/a	1	n/a	0	0	0	1	0.412841796875	0.57763671875	lower	../fonts/amplitud.ttf
376678	WORD	wordpools/wasnorm_wordpool.txt	LTP099	ltpFR	12	2	0	JURY	766	n/a	0	n/a	0	0	0	1	0.412841796875	0.57763671875	lower	../fonts/amplitud.ttf
380736	WORD	wordpools/wasnorm_wordpool.txt	LTP099	ltpFR	12	2	1	COURT	391	n/a	0	n/a	0	0	0	0	0.5869140625	0.422607421875	upper	../fonts/zerothre.ttf
384786	WORD	wordpools/wasnorm_wordpool.txt	LTP099	ltpFR	12	2	1	GOOSE	649	n/a	1	n/a	0	0	0	0	0.5869140625	0.422607421875	upper	../fonts/zerothre.ttf
388926	WORD	wordpools/wasnorm_wordpool.txt	LTP099	ltpFR	12	2	1	MAILBOX	857	n/a	0	n/a	0	0	0	0	0.5869140625	0.422607421875	upper	../fonts/zerothre.ttf
392851	WORD	wordpools/wasnorm_wordpool.txt	LTP099	ltpFR	12	2	1	AGENT	10	n/a	1	n/a	0	0	0	0	0.5869140625	0.422607421875	upper	../fonts/zerothre.ttf
397018	WORD	wordpools/wasnorm_wordpool.txt	LTP099	ltpFR	12	2	1	METEOR	889	n/a	1	n/a	0	0	0	0	0.5869140625	0.422607421875	upper	../fonts/zerothre.ttf
401018	WORD	wordpools/wasnorm_wordpool.txt	LTP099	ltpFR	12	2	0	BILL	126	n/a	0	n/a	0	0	0	1	0.412841796875	0.57763671875	lower	../fonts/amplitud.ttf
404933	WORD	wordpools/wasnorm_wordpool.txt	LTP099	ltpFR	12	2	0	MITTEN	902	n/a	0	n/a	0	0	0	1	0.412841796875	0.57763671875	lower	../fonts/amplitud.ttf
408841	WORD	wordpools/wasnorm_wordpool.txt	LTP099	ltpFR	12	2	0	UMPIRE	1535	n/a	1	n/a	0	0	0	1	0.412841796875	0.57763671875	lower	../fonts/amplitud.ttf
411849	START	n/a	LTP099	ltpFR	12	n/a	n/a	n/a	n/a	n/a	n/a	n/a	n/a	n/a	n/a	n/a	n/a	n/a	n/a	n/a
413025	PROB	n/a	LTP099	ltpFR	12	n/a	n/a	n/a	n/a	n/a	n/a	10	2	4	4	n/a	n/a	n/a	n/a	n/a
414375	PROB	n/a	LTP099	ltpFR	12	n/a	n/a	n/a	n/a	n/a	n/a	13	5	5	3	n/a	n/a	n/a	n/a	n/a
415558	PROB	n/a	LTP099	ltpFR	12	n/a	n/a	n/a	n/a	n/a	n/a	15	3	8	4	n/a	n/a	n/a	n/a	n/a
417500	PROB	n/a	LTP099	ltpFR	12	n/a	n/a	n/a	n/a	n/a	n/a	10	3	6	1	n/a	n/a	n/a	n/a	n/a
419041	STOP	n/a	LTP099	ltpFR	12	n/a	n/a	n/a	n/a	n/a	n/a	n/a	n/a	n/a	n/a	n/a	n/a	n/a	n/a	n/a
421767	REC_START	n/a	LTP099	ltpFR	12	2	n/a	n/a	n/a	n/a	n/a	n/a	0	0	0	n/a	n/a	n/a	n/a	n/a
422231	REC_WORD	wordpools/wasnorm_wordpool.txt	LTP099	ltpFR	12	2	0	MITTEN	902	n/a	0	n/a	0	0	0	n/a	n/a	n/a	n/a	n/a
424426	REC_WORD	wordpools/wasnorm_wordpool.txt	LTP099	ltpFR	12	2	0	MITTEN	902	n/a	0	n/a	0	0	0	n/a	n/a	n/a	n/a	n/a
424980	REC_WORD	wordpools/wasnorm_wordpool.txt	LTP099	ltpFR	12	2	1	KITTEN	780	n/a	1	n/a	0	0	0	n/a	n/a	n/a	n/a	n/a
426790	REC_WORD	wordpools/wasnorm_wordpool.txt	LTP099	ltpFR	12	2	1	BUTTON	207	n/a	0	n/a	0	0	0	n/a	n/a	n/a	n/a	n/a
429315	REC_WORD	wordpools/wasnorm_wordpool.txt	LTP099	ltpFR	12	2	1	MAILBOX	857	n/a	0	n/a	0	0	0	n/a	n/a	n/a	n/a	n/a
430502	REC_WORD	wordpools/wasnorm_wordpool.txt	LTP099	ltpFR	12	2	1	AGENT	10	n/a	1	n/a	0	0	0	n/a	n/a	n/a	n/a	n/a
432742	REC_WORD	wordpools/wasnorm_wordpool.txt	LTP099	ltpFR	12	2	0	BILL	126	n/a	0	n/a	0	0	0	n/a	n/a	n/a	n/a	n/a
437047	REC_WORD	wordpools/wasnorm_wordpool.txt	LTP099	ltpFR	12	2	0	CRATER	400	n/a	1	n/a	0	0	0	n/a	n/a	n/a	n/a	n/a
438264	REC_WORD	wordpools/wasnorm_wordpool.txt	LTP099	ltpFR	12	2	0	MOON	914	n/a	1	n/a	0	0	0	n/a	n/a	n/a	n/a	n/a
439891	REC_WORD_VV	wordpools/wasnorm_wordpool.txt	LTP099	ltpFR	12	2	n/a	<>	-1	n/a	n/a	n/a	0	0	0	n/a	n/a	n/a	n/a	n/a
441068	REC_WORD	wordpools/wasnorm_wordpool.txt	LTP099	ltpFR	12	2	1	STAR	1373	n/a	0	n/a	0	0	0	n/a	n/a	n/a	n/a	n/a
443213	REC_WORD	wordpools/wasnorm_wordpool.txt	LTP099	ltpFR	12	2	n/a	OFFICER	973	n/a	n/a	n/a	0	0	0	n/a	n/a	n/a	n/a	n/a
445318	REC_WORD	wordpools/wasnorm_wordpool.txt	LTP099	ltpFR	12	2	0	NEEDLE	941	n/a	0	n/a	0	0	0	n/a	n/a	n/a	n/a	n/a
464585	REC_WORD	wordpools/wasnorm_wordpool.txt	LTP099	ltpFR	12	2	0	JURY	766	n/a	0	n/a	0	0	0	n/a	n/a	n/a	n/a	n/a
466999	REC_WORD	wordpools/wasnorm_wordpool.txt	LTP099	ltpFR	12	2	1	COURT	391	n/a	0	n/a	0	0	0	n/a	n/a	n/a	n/a	n/a
497951	START	n/a	LTP099	ltpFR	12	n/a	n/a	n/a	n/a	n/a	n/a	n/a	n/a	n/a	n/a	n/a	n/a	n/a	n/a	n/a
499452	PROB	n/a	LTP099	ltpFR	12	n/a	n/a	n/a	n/a	n/a	n/a	11	4	2	5	n/a	n/a	n/a	n/a	n/a
501552	PROB	n/a	LTP099	ltpFR	12	n/a	n/a	n/a	n/a	n/a	n/a	20	7	7	6	n/a	n/a	n/a	n/a	n/a
503152	PROB	n/a	LTP099	ltpFR	12	n/a	n/a	n/a	n/a	n/a	n/a	18	7	3	8	n/a	n/a	n/a	n/a	n/a
504493	PROB	n/a	LTP099	ltpFR	12	n/a	n/a	n/a	n/a	n/a	n/a	14	2	7	5	n/a	n/a	n/a	n/a	n/a
505925	PROB	n/a	LTP099	ltpFR	12	n/a	n/a	n/a	n/a	n/a	n/a	11	3	1	7	n/a	n/a	n/a	n/a	n/a
507076	PROB	n/a	LTP099	ltpFR	12	n/a	n/a	n/a	n/a	n/a	n/a	21	6	9	6	n/a	n/a	n/a	n/a	n/a
509018	PROB	n/a	LTP099	ltpFR	12	n/a	n/a	n/a	n/a	n/a	n/a	12	7	3	2	n/a	n/a	n/a	n/a	n/a
510193	PROB	n/a	LTP099	ltpFR	12	n/a	n/a	n/a	n/a	n/a	n/a	9	3	1	5	n/a	n/a	n/a	n/a	n/a
511925	PROB	n/a	LTP099	ltpFR	12	n/a	n/a	n/a	n/a	n/a	n/a	17	9	7	1	n/a	n/a	n/a	n/a	n/a
513537	STOP	n/a	LTP099	ltpFR	12	n/a	n/a	n/a	n/a	n/a	n/a	n/a	n/a	n/a	n/a	n/a	n/a	n/a	n/a	n/a
514933	WORD	wordpools/wasnorm_wordpool.txt	LTP099	ltpFR	12	3	1	OWNER	993	n/a	1	n/a	0	0	0	0	0.5869140625	0.422607421875	upper	../fonts/zerothre.ttf
517941	START	n/a	LTP099	ltpFR	12	n/a	n/a	n/a	n/a	n/a	n/a	n/a	n/a	n/a	n/a	n/a	n/a	n/a	n/a	n/a
518767	PROB	n/a	LTP099	ltpFR	12	n/a	n/a	n/a	n/a	n/a	n/a	23	8	9	5	n/a	n/a	n/a	n/a	n/a
521442	PROB	n/a	LTP099	ltpFR	12	n/a	n/a	n/a	n/a	n/a	n/a	19	1	9	9	n/a	n/a	n/a	n/a	n/a
523717	PROB	n/a	LTP099	ltpFR	12	n/a	n/a	n/a	n/a	n/a	n/a	14	2	5	7	n/a	n/a	n/a	n/a	n/a
526233	PROB	n/a	LTP099	ltpFR	12	n/a	n/a	n/a	n/a	n/a	n/a	12	9	2	1	n/a	n/a	n/a	n/a	n/a
527450	PROB	n/a	LTP099	ltpFR	12	n/a	n/a	n/a	n/a	n/a	n/a	5	3	2	2	n/a	n/a	n/a	n/a	n/a
528700	PROB	n/a	LTP099	ltpFR	12	n/a	n/a	n/a	n/a	n/a	n/a	11	1	3	8	n/a	n/a	n/a	n/a	n/a
530608	PROB	n/a	LTP099	ltpFR	12	n/a	n/a	n/a	n/a	n/a	n/a	27	9	9	9	n/a	n/a	n/a	n/a	n/a
532291	PROB	n/a	LTP099	ltpFR	12	n/a	n/a	n/a	n/a	n/a	n/a	18	6	5	7	n/a	n/a	n/a	n/a	n/a
533721	STOP	n/a	LTP099	ltpFR	12	n/a	n/a	n/a	n/a	n/a	n/a	n/a	n/a	n/a	n/a	n/a	n/a	n/a	n/a	n/a
534856	WORD	wordpools/wasnorm_wordpool.txt	LTP099	ltpFR	12	3	1	COW	393	n/a	1	n/a	0	0	0	0	0.5869140625	0.422607421875	upper	../fonts/zerothre.ttf
537857	START	n/a	LTP099	ltpFR	12	n/a	n/a	n/a	n/a	n/a	n/a	n/a	n/a	n/a	n/a	n/a	n/a	n/a	n/a	n/a
539040	PROB	n/a	LTP099	ltpFR	12	n/a	n/a	n/a	n/a	n/a	n/a	21	8	7	6	n/a	n/a	n/a	n/a	n/a
540707	PROB	n/a	LTP099	ltpFR	12	n/a	n/a	n/a	n/a	n/a	n/a	16	2	5	9	n/a	n/a	n/a	n/a	n/a
542774	PROB	n/a	LTP099	ltpFR	12	n/a	n/a	n/a	n/a	n/a	n/a	11	2	7	2	n/a	n/a	n/a	n/a	n/a
544332	PROB	n/a	LTP099	ltpFR	12	n/a	n/a	n/a	n/a	n/a	n/a	16	9	1	6	n/a	n/a	n/a	n/a	n/a
545540	PROB	n/a	LTP099	ltpFR	12	n/a	n/a	n/a	n/a	n/a	n/a	10	3	1	6	n/a	n/a	n/a	n/a	n/a
546939	PROB	n/a	LTP099	ltpFR	12	n/a	n/a	n/a	n/a	n/a	n/a	7	3	3	1	n/a	n/a	n/a	n/a	n/a
549240	PROB	n/a	LTP099	ltpFR	12	n/a	n/a	n/a	n/a	n/a	n/a	18	3	6	9	n/a	n/a	n/a	n/a	n/a
550665	PROB	n/a	LTP099	ltpFR	12	n/a	n/a	n/a	n/a	n/a	n/a	16	3	7	6	n/a	n/a	n/a	n/a	n/a
551805	PROB	n/a	LTP099	ltpFR	12	n/a	n/a	n/a	n/a	n/a	n/a	15	2	4	9	n/a	n/a	n/a	n/a	n/a
553033	STOP	n/a	LTP099	ltpFR	12	n/a	n/a	n/a	n/a	n/a	n/a	n/a	n/a	n/a	n/a	n/a	n/a	n/a	n/a	n/a
554838	WORD	wordpools/wasnorm_wordpool.txt	LTP099	ltpFR	12	3	1	MOTOR	922	n/a	0	n/a	0	0	0	0	0.5869140625	0.422607421875	upper	../fonts/zerothre.ttf
557847	START	n/a	LTP099	ltpFR	12	n/a	n/a	n/a	n/a	n/a	n/a	n/a	n/a	n/a	n/a	n/a	n/a	n/a	n/a	n/a
558855	PROB	n/a	LTP099	ltpFR	12	n/a	n/a	n/a	n/a	n/a	n/a	12	2	8	2	n/a	n/a	n/a	n/a	n/a
560230	PROB	n/a	LTP099	ltpFR	12	n/a	n/a	n/a	n/a	n/a	n/a	12	4	5	3	n/a	n/a	n/a	n/a	n/a
561904	PROB	n/a	LTP099	ltpFR	12	n/a	n/a	n/a	n/a	n/a	n/a	20	8	5	7	n/a	n/a	n/a	n/a	n/a
564014	PROB	n/a	LTP099	ltpFR	12	n/a	n/a	n/a	n/a	n/a	n/a	15	4	7	4	n/a	n/a	n/a	n/a	n/a
565430	PROB	n/a	LTP099	ltpFR	12	n/a	n/a	n/a	n/a	n/a	n/a	17	9	4	4	n/a	n/a	n/a	n/a	n/a
566705	PROB	n/a	LTP099	ltpFR	12	n/a	n/a	n/a	n/a	n/a	n/a	21	8	5	8	n/a	n/a	n/a	n/a	n/a
568563	PROB	n/a	LTP099	ltpFR	12	n/a	n/a	n/a	n/a	n/a	n/a	12	1	5	6	n/a	n/a	n/a	n/a	n/a
570030	PROB	n/a	LTP099	ltpFR	12	n/a	n/a	n/a	n/a	n/a	n/a	27	9	9	9	n/a	n/a	n/a	n/a	n/a
571238	PROB	n/a	LTP099	ltpFR	12	n/a	n/a	n/a	n/a	n/a	n/a	9	1	7	1	n/a	n/a	n/a	n/a	n/a
572993	STOP	n/a	LTP099	ltpFR	12	n/a	n/a	n/a	n/a	n/a	n/a	n/a	n/a	n/a	n/a	n/a	n/a	n/a	n/a	n/a
574912	WORD	wordpools/wasnorm_wordpool.txt	LTP099	ltpFR	12	3	1	PADDLE	1000	n/a	1	n/a	0	0	0	0	0.5869140625	0.422607421875	upper	../fonts/zerothre.ttf
577920	START	n/a	LTP099	ltpFR	12	n/a	n/a	n/a	n/a	n/a	n/a	n/a	n/a	n/a	n/a	n/a	n/a	n/a	n/a	n/a
578987	PROB	n/a	LTP099	ltpFR	12	n/a	n/a	n/a	n/a	n/a	n/a	12	1	2	9	n/a	n/a	n/a	n/a	n/a
580112	PROB	n/a	LTP099	ltpFR	12	n/a	n/a	n/a	n/a	n/a	n/a	9	4	3	2	n/a	n/a	n/a	n/a	n/a
581429	PROB	n/a	LTP099	ltpFR	12	n/a	n/a	n/a	n/a	n/a	n/a	18	6	6	6	n/a	n/a	n/a	n/a	n/a
583362	PROB	n/a	LTP099	ltpFR	12	n/a	n/a	n/a	n/a	n/a	n/a	6	4	1	1	n/a	n/a	n/a	n/a	n/a
584379	PROB	n/a	LTP099	ltpFR	12	n/a	n/a	n/a	n/a	n/a	n/a	13	8	1	4	n/a	n/a	n/a	n/a	n/a
586969	PROB	n/a	LTP099	ltpFR	12	n/a	n/a	n/a	n/a	n/a	n/a	10	3	5	2	n/a	n/a	n/a	n/a	n/a
588470	PROB	n/a	LTP099	ltpFR	12	n/a	n/a	n/a	n/a	n/a	n/a	15	3	8	5	n/a	n/a	n/a	n/a	n/a
590361	PROB	n/a	LTP099	ltpFR	12	n/a	n/a	n/a	n/a	n/a	n/a	16	7	9	9	n/a	n/a	n/a	n/a	n/a
592801	STOP	n/a	LTP099	ltpFR	12	n/a	n/a	n/a	n/a	n/a	n/a	n/a	n/a	n/a	n/a	n/a	n/a	n/a	n/a	n/a
594852	WORD	wordpools/wasnorm_wordpool.txt	LTP099	ltpFR	12	3	1	SURF	1412	n/a	0	n/a	0	0	0	0	0.5869140625	0.422607421875	upper	../fonts/zerothre.ttf
597860	START	n/a	LTP099	ltpFR	12	n/a	n/a	n/a	n/a	n/a	n/a	n/a	n/a	n/a	n/a	n/a	n/a	n/a	n/a	n/a
598843	PROB	n/a	LTP099	ltpFR	12	n/a	n/a	n/a	n/a	n/a	n/a	21	5	8	8	n/a	n/a	n/a	n/a	n/a
600302	PROB	n/a	LTP099	ltpFR	12	n/a	n/a	n/a	n/a	n/a	n/a	15	6	1	8	n/a	n/a	n/a	n/a	n/a
601611	PROB	n/a	LTP099	ltpFR	12	n/a	n/a	n/a	n/a	n/a	n/a	23	8	5	9	n/a	n/a	n/a	n/a	n/a
604352	PROB	n/a	LTP099	ltpFR	12	n/a	n/a	n/a	n/a	n/a	n/a	14	4	4	6	n/a	n/a	n/a	n/a	n/a
605669	PROB	n/a	LTP099	ltpFR	12	n/a	n/a	n/a	n/a	n/a	n/a	14	4	5	4	n/a	n/a	n/a	n/a	n/a
608052	PROB	n/a	LTP099	ltpFR	12	n/a	n/a	n/a	n/a	n/a	n/a	12	5	2	5	n/a	n/a	n/a	n/a	n/a
609202	PROB	n/a	LTP099	ltpFR	12	n/a	n/a	n/a	n/a	n/a	n/a	16	7	8	1	n/a	n/a	n/a	n/a	n/a
610834	PROB	n/a	LTP099	ltpFR	12	n/a	n/a	n/a	n/a	n/a	n/a	18	4	5	9	n/a	n/a	n/a	n/a	n/a
611985	PROB	n/a	LTP099	ltpFR	12	n/a	n/a	n/a	n/a	n/a	n/a	16	7	6	3	n/a	n/a	n/a	n/a	n/a
613377	STOP	n/a	LTP099	ltpFR	12	n/a	n/a	n/a	n/a	n/a	n/a	n/a	n/a	n/a	n/a	n/a	n/a	n/a	n/a	n/a
614693	WORD	wordpools/wasnorm_wordpool.txt	LTP099	ltpFR	12	3	1	PIER	1063	n/a	0	n/a	0	0	0	0	0.5869140625	0.422607421875	upper	../fonts/zerothre.ttf
617702	START	n/a	LTP099	ltpFR	12	n/a	n/a	n/a	n/a	n/a	n/a	n/a	n/a	n/a	n/a	n/a	n/a	n/a	n/a	n/a
618808	PROB	n/a	LTP099	ltpFR	12	n/a	n/a	n/a	n/a	n/a	n/a	9	3	1	5	n/a	n/a	n/a	n/a	n/a
621417	PROB	n/a	LTP099	ltpFR	12	n/a	n/a	n/a	n/a	n/a	n/a	7	2	4	1	n/a	n/a	n/a	n/a	n/a
622726	PROB	n/a	LTP099	ltpFR	12	n/a	n/a	n/a	n/a	n/a	n/a	16	6	9	1	n/a	n/a	n/a	n/a	n/a
623992	PROB	n/a	LTP099	ltpFR	12	n/a	n/a	n/a	n/a	n/a	n/a	17	9	3	5	n/a	n/a	n/a	n/a	n/a
625534	PROB	n/a	LTP099	ltpFR	12	n/a	n/a	n/a	n/a	n/a	n/a	9	4	4	1	n/a	n/a	n/a	n/a	n/a
627667	PROB	n/a	LTP099	ltpFR	12	n/a	n/a	n/a	n/a	n/a	n/a	17	7	7	3	n/a	n/a	n/a	n/a	n/a
629125	PROB	n/a	LTP099	ltpFR	12	n/a	n/a	n/a	n/a	n/a	n/a	16	6	8	2	n/a	n/a	n/a	n/a	n/a
630342	PROB	n/a	LTP099	ltpFR	12	n/a	n/a	n/a	n/a	n/a	n/a	7	1	4	2	n/a	n/a	n/a	n/a	n/a
632158	PROB	n/a	LTP099	ltpFR	12	n/a	n/a	n/a	n/a	n/a	n/a	15	1	8	6	n/a	n/a	n/a	n/a	n/a
633337	STOP	n/a	LTP099	ltpFR	12	n/a	n/a	n/a	n/a	n/a	n/a	n/a	n/a	n/a	n/a	n/a	n/a	n/a	n/a	n/a
634874	WORD	wordpools/wasnorm_wordpool.txt	LTP099	ltpFR	12	3	1	OX	994	n/a	0	n/a	0	0	0	0	0.5869140625	0.422607421875	upper	../fonts/zerothre.ttf
637882	START	n/a	LTP099	ltpFR	12	n/a	n/a	n/a	n/a	n/a	n/a	n/a	n/a	n/a	n/a	n/a	n/a	n/a	n/a	n/a
639008	PROB	n/a	LTP099	ltpFR	12	n/a	n/a	n/a	n/a	n/a	n/a	16	7	7	2	n/a	n/a	n/a	n/a	n/a
640391	PROB	n/a	LTP099	ltpFR	12	n/a	n/a	n/a	n/a	n/a	n/a	18	3	6	9	n/a	n/a	n/a	n/a	n/a
641474	PROB	n/a	LTP099	ltpFR	12	n/a	n/a	n/a	n/a	n/a	n/a	19	7	9	3	n/a	n/a	n/a	n/a	n/a
643082	PROB	n/a	LTP099	ltpFR	12	n/a	n/a	n/a	n/a	n/a	n/a	11	1	1	9	n/a	n/a	n/a	n/a	n/a
644299	PROB	n/a	LTP099	ltpFR	12	n/a	n/a	n/a	n/a	n/a	n/a	15	3	8	6	n/a	n/a	n/a	n/a	n/a
645923	PROB	n/a	LTP099	ltpFR	12	n/a	n/a	n/a	n/a	n/a	n/a	16	6	9	1	n/a	n/a	n/a	n/a	n/a
647082	PROB	n/a	LTP099	ltpFR	12	n/a	n/a	n/a	n/a	n/a	n/a	7	5	1	1	n/a	n/a	n/a	n/a	n/a
648040	PROB	n/a	LTP099	ltpFR	12	n/a	n/a	n/a	n/a	n/a	n/a	13	1	7	5	n/a	n/a	n/a	n/a	n/a
649715	PROB	n/a	LTP099	ltpFR	12	n/a	n/a	n/a	n/a	n/a	n/a	15	7	1	7	n/a	n/a	n/a	n/a	n/a
651098	PROB	n/a	LTP099	ltpFR	12	n/a	n/a	n/a	n/a	n/a	n/a	14	5	1	8	n/a	n/a	n/a	n/a	n/a
652888	STOP	n/a	LTP099	ltpFR	12	n/a	n/a	n/a	n/a	n/a	n/a	n/a	n/a	n/a	n/a	n/a	n/a	n/a	n/a	n/a
654914	WORD	wordpools/wasnorm_wordpool.txt	LTP099	ltpFR	12	3	1	BUGGY	188	n/a	0	n/a	0	0	0	0	0.5869140625	0.422607421875	upper	../fonts/zerothre.ttf
657922	START	n/a	LTP099	ltpFR	12	n/a	n/a	n/a	n/a	n/a	n/a	n/a	n/a	n/a	n/a	n/a	n/a	n/a	n/a	n/a
658914	PROB	n/a	LTP099	ltpFR	12	n/a	n/a	n/a	n/a	n/a	n/a	22	6	9	7	n/a	n/a	n/a	n/a	n/a
661398	PROB	n/a	LTP099	ltpFR	12	n/a	n/a	n/a	n/a	n/a	n/a	22	7	9	6	n/a	n/a	n/a	n/a	n/a
663331	PROB	n/a	LTP099	ltpFR	12	n/a	n/a	n/a	n/a	n/a	n/a	15	4	3	8	n/a	n/a	n/a	n/a	n/a
664838	PROB	n/a	LTP099	ltpFR	12	n/a	n/a	n/a	n/a	n/a	n/a	23	9	6	8	n/a	n/a	n/a	n/a	n/a
666905	PROB	n/a	LTP099	ltpFR	12	n/a	n/a	n/a	n/a	n/a	n/a	18	9	4	5	n/a	n/a	n/a	n/a	n/a
668564	PROB	n/a	LTP099	ltpFR	12	n/a	n/a	n/a	n/a	n/a	n/a	20	6	9	5	n/a	n/a	n/a	n/a	n/a
671564	PROB	n/a	LTP099	ltpFR	12	n/a	n/a	n/a	n/a	n/a	n/a	15	5	1	9	n/a	n/a	n/a	n/a	n/a
672785	STOP	n/a	LTP099	ltpFR	12	n/a	n/a	n/a	n/a	n/a	n/a	n/a	n/a	n/a	n/a	n/a	n/a	n/a	n/a	n/a
674937	WORD	wordpools/wasnorm_wordpool.txt	LTP099	ltpFR	12	3	1	TACK	1428	n/a	0	n/a	0	0	0	0	0.5869140625	0.422607421875	upper	../fonts/zerothre.ttf
677938	START	n/a	LTP099	ltpFR	12	n/a	n/a	n/a	n/a	n/a	n/a	n/a	n/a	n/a	n/a	n/a	n/a	n/a	n/a	n/a
678887	PROB	n/a	LTP099	ltpFR	12	n/a	n/a	n/a	n/a	n/a	n/a	15	4	2	9	n/a	n/a	n/a	n/a	n/a
680321	PROB	n/a	LTP099	ltpFR	12	n/a	n/a	n/a	n/a	n/a	n/a	10	2	6	2	n/a	n/a	n/a	n/a	n/a
681563	PROB	n/a	LTP099	ltpFR	12	n/a	n/a	n/a	n/a	n/a	n/a	15	6	5	4	n/a	n/a	n/a	n/a	n/a
683029	PROB	n/a	LTP099	ltpFR	12	n/a	n/a	n/a	n/a	n/a	n/a	14	4	4	6	n/a	n/a	n/a	n/a	n/a
684271	PROB	n/a	LTP099	ltpFR	12	n/a	n/a	n/a	n/a	n/a	n/a	17	9	1	7	n/a	n/a	n/a	n/a	n/a
685953	PROB	n/a	LTP099	ltpFR	12	n/a	n/a	n/a	n/a	n/a	n/a	13	3	4	5	n/a	n/a	n/a	n/a	n/a
687762	PROB	n/a	LTP099	ltpFR	12	n/a	n/a	n/a	n/a	n/a	n/a	21	8	7	4	n/a	n/a	n/a	n/a	n/a
690362	PROB	n/a	LTP099	ltpFR	12	n/a	n/a	n/a	n/a	n/a	n/a	14	6	3	5	n/a	n/a	n/a	n/a	n/a
692129	PROB	n/a	LTP099	ltpFR	12	n/a	n/a	n/a	n/a	n/a	n/a	21	7	7	7	n/a	n/a	n/a	n/a	n/a
693209	STOP	n/a	LTP099	ltpFR	12	n/a	n/a	n/a	n/a	n/a	n/a	n/a	n/a	n/a	n/a	n/a	n/a	n/a	n/a	n/a
695095	WORD	wordpools/wasnorm_wordpool.txt	LTP099	ltpFR	12	3	1	PEBBLE	1035	n/a	0	n/a	0	0	0	0	0.5869140625	0.422607421875	upper	../fonts/zerothre.ttf
698104	START	n/a	LTP099	ltpFR	12	n/a	n/a	n/a	n/a	n/a	n/a	n/a	n/a	n/a	n/a	n/a	n/a	n/a	n/a	n/a
698944	PROB	n/a	LTP099	ltpFR	12	n/a	n/a	n/a	n/a	n/a	n/a	15	7	4	4	n/a	n/a	n/a	n/a	n/a
700927	PROB	n/a	LTP099	ltpFR	12	n/a	n/a	n/a	n/a	n/a	n/a	17	4	6	7	n/a	n/a	n/a	n/a	n/a
702228	PROB	n/a	LTP099	ltpFR	12	n/a	n/a	n/a	n/a	n/a	n/a	24	8	9	7	n/a	n/a	n/a	n/a	n/a
704378	PROB	n/a	LTP099	ltpFR	12	n/a	n/a	n/a	n/a	n/a	n/a	16	3	6	7	n/a	n/a	n/a	n/a	n/a
706161	PROB	n/a	LTP099	ltpFR	12	n/a	n/a	n/a	n/a	n/a	n/a	20	4	7	9	n/a	n/a	n/a	n/a	n/a
708502	PROB	n/a	LTP099	ltpFR	12	n/a	n/a	n/a	n/a	n/a	n/a	7	1	4	2	n/a	n/a	n/a	n/a	n/a
710436	PROB	n/a	LTP099	ltpFR	12	n/a	n/a	n/a	n/a	n/a	n/a	15	3	6	6	n/a	n/a	n/a	n/a	n/a
714104	STOP	n/a	LTP099	ltpFR	12	n/a	n/a	n/a	n/a	n/a	n/a	n/a	n/a	n/a	n/a	n/a	n/a	n/a	n/a	n/a
715269	WORD	wordpools/wasnorm_wordpool.txt	LTP099	ltpFR	12	3	1	BOAT	144	n/a	0	n/a	0	0	0	0	0.5869140625	0.422607421875	upper	../fonts/zerothre.ttf
718277	START	n/a	LTP099	ltpFR	12	n/a	n/a	n/a	n/a	n/a	n/a	n/a	n/a	n/a	n/a	n/a	n/a	n/a	n/a	n/a
719193	PROB	n/a	LTP099	ltpFR	12	n/a	n/a	n/a	n/a	n/a	n/a	14	7	2	5	n/a	n/a	n/a	n/a	n/a
720710	PROB	n/a	LTP099	ltpFR	12	n/a	n/a	n/a	n/a	n/a	n/a	7	1	1	5	n/a	n/a	n/a	n/a	n/a
722126	PROB	n/a	LTP099	ltpFR	12	n/a	n/a	n/a	n/a	n/a	n/a	16	6	8	4	n/a	n/a	n/a	n/a	n/a
724259	PROB	n/a	LTP099	ltpFR	12	n/a	n/a	n/a	n/a	n/a	n/a	17	7	2	8	n/a	n/a	n/a	n/a	n/a
726018	PROB	n/a	LTP099	ltpFR	12	n/a	n/a	n/a	n/a	n/a	n/a	10	3	2	5	n/a	n/a	n/a	n/a	n/a
727401	PROB	n/a	LTP099	ltpFR	12	n/a	n/a	n/a	n/a	n/a	n/a	18	7	7	4	n/a	n/a	n/a	n/a	n/a
729875	PROB	n/a	LTP099	ltpFR	12	n/a	n/a	n/a	n/a	n/a	n/a	8	3	2	3	n/a	n/a	n/a	n/a	n/a
731542	PROB	n/a	LTP099	ltpFR	12	n/a	n/a	n/a	n/a	n/a	n/a	14	7	6	1	n/a	n/a	n/a	n/a	n/a
732840	STOP	n/a	LTP099	ltpFR	12	n/a	n/a	n/a	n/a	n/a	n/a	n/a	n/a	n/a	n/a	n/a	n/a	n/a	n/a	n/a
735284	WORD	wordpools/wasnorm_wordpool.txt	LTP099	ltpFR	12	3	1	VAULT	1550	n/a	0	n/a	0	0	0	0	0.5869140625	0.422607421875	upper	../fonts/zerothre.ttf
738292	START	n/a	LTP099	ltpFR	12	n/a	n/a	n/a	n/a	n/a	n/a	n/a	n/a	n/a	n/a	n/a	n/a	n/a	n/a	n/a
739217	PROB	n/a	LTP099	ltpFR	12	n/a	n/a	n/a	n/a	n/a	n/a	14	6	1	7	n/a	n/a	n/a	n/a	n/a
741075	PROB	n/a	LTP099	ltpFR	12	n/a	n/a	n/a	n/a	n/a	n/a	12	1	2	9	n/a	n/a	n/a	n/a	n/a
742475	PROB	n/a	LTP099	ltpFR	12	n/a	n/a	n/a	n/a	n/a	n/a	10	2	2	4	n/a	n/a	n/a	n/a	n/a
744000	PROB	n/a	LTP099	ltpFR	12	n/a	n/a	n/a	n/a	n/a	n/a	16	8	2	6	n/a	n/a	n/a	n/a	n/a
746316	PROB	n/a	LTP099	ltpFR	12	n/a	n/a	n/a	n/a	n/a	n/a	10	6	2	2	n/a	n/a	n/a	n/a	n/a
747341	PROB	n/a	LTP099	ltpFR	12	n/a	n/a	n/a	n/a	n/a	n/a	11	1	9	1	n/a	n/a	n/a	n/a	n/a
748416	PROB	n/a	LTP099	ltpFR	12	n/a	n/a	n/a	n/a	n/a	n/a	19	4	9	6	n/a	n/a	n/a	n/a	n/a
749691	PROB	n/a	LTP099	ltpFR	12	n/a	n/a	n/a	n/a	n/a	n/a	9	1	6	2	n/a	n/a	n/a	n/a	n/a
751132	PROB	n/a	LTP099	ltpFR	12	n/a	n/a	n/a	n/a	n/a	n/a	15	3	8	4	n/a	n/a	n/a	n/a	n/a
752516	PROB	n/a	LTP099	ltpFR	12	n/a	n/a	n/a	n/a	n/a	n/a	17	3	5	9	n/a	n/a	n/a	n/a	n/a
753729	STOP	n/a	LTP099	ltpFR	12	n/a	n/a	n/a	n/a	n/a	n/a	n/a	n/a	n/a	n/a	n/a	n/a	n/a	n/a	n/a
755191	WORD	wordpools/wasnorm_wordpool.txt	LTP099	ltpFR	12	3	1	SHOVEL	1295	n/a	0	n/a	0	0	0	0	0.5869140625	0.422607421875	upper	../fonts/zerothre.ttf
758199	START	n/a	LTP099	ltpFR	12	n/a	n/a	n/a	n/a	n/a	n/a	n/a	n/a	n/a	n/a	n/a	n/a	n/a	n/a	n/a
759099	PROB	n/a	LTP099	ltpFR	12	n/a	n/a	n/a	n/a	n/a	n/a	20	9	9	2	n/a	n/a	n/a	n/a	n/a
761257	PROB	n/a	LTP099	ltpFR	12	n/a	n/a	n/a	n/a	n/a	n/a	8	5	2	1	n/a	n/a	n/a	n/a	n/a
762365	PROB	n/a	LTP099	ltpFR	12	n/a	n/a	n/a	n/a	n/a	n/a	14	2	4	8	n/a	n/a	n/a	n/a	n/a
763557	PROB	n/a	LTP099	ltpFR	12	n/a	n/a	n/a	n/a	n/a	n/a	14	2	6	6	n/a	n/a	n/a	n/a	n/a
765573	PROB	n/a	LTP099	ltpFR	12	n/a	n/a	n/a	n/a	n/a	n/a	11	2	2	7	n/a	n/a	n/a	n/a	n/a
766798	PROB	n/a	LTP099	ltpFR	12	n/a	n/a	n/a	n/a	n/a	n/a	22	6	8	8	n/a	n/a	n/a	n/a	n/a
768264	PROB	n/a	LTP099	ltpFR	12	n/a	n/a	n/a	n/a	n/a	n/a	14	7	2	4	n/a	n/a	n/a	n/a	n/a
769739	PROB	n/a	LTP099	ltpFR	12	n/a	n/a	n/a	n/a	n/a	n/a	19	5	7	7	n/a	n/a	n/a	n/a	n/a
774199	STOP	n/a	LTP099	ltpFR	12	n/a	n/a	n/a	n/a	n/a	n/a	n/a	n/a	n/a	n/a	n/a	n/a	n/a	n/a	n/a
775331	WORD	wordpools/wasnorm_wordpool.txt	LTP099	ltpFR	12	3	1	CONSOLE	364	n/a	0	n/a	0	0	0	0	0.5869140625	0.422607421875	upper	../fonts/zerothre.ttf
778339	START	n/a	LTP099	ltpFR	12	n/a	n/a	n/a	n/a	n/a	n/a	n/a	n/a	n/a	n/a	n/a	n/a	n/a	n/a	n/a
779530	PROB	n/a	LTP099	ltpFR	12	n/a	n/a	n/a	n/a	n/a	n/a	16	6	1	9	n/a	n/a	n/a	n/a	n/a
780846	PROB	n/a	LTP099	ltpFR	12	n/a	n/a	n/a	n/a	n/a	n/a	18	7	1	9	n/a	n/a	n/a	n/a	n/a
782347	PROB	n/a	LTP099	ltpFR	12	n/a	n/a	n/a	n/a	n/a	n/a	20	6	7	7	n/a	n/a	n/a	n/a	n/a
784630	PROB	n/a	LTP099	ltpFR	12	n/a	n/a	n/a	n/a	n/a	n/a	9	3	1	5	n/a	n/a	n/a	n/a	n/a
785970	PROB	n/a	LTP099	ltpFR	12	n/a	n/a	n/a	n/a	n/a	n/a	15	8	5	2	n/a	n/a	n/a	n/a	n/a
787321	PROB	n/a	LTP099	ltpFR	12	n/a	n/a	n/a	n/a	n/a	n/a	23	9	6	9	n/a	n/a	n/a	n/a	n/a
789596	PROB	n/a	LTP099	ltpFR	12	n/a	n/a	n/a	n/a	n/a	n/a	13	5	5	3	n/a	n/a	n/a	n/a	n/a
791853	PROB	n/a	LTP099	ltpFR	12	n/a	n/a	n/a	n/a	n/a	n/a	12	1	2	9	n/a	n/a	n/a	n/a	n/a
792872	STOP	n/a	LTP099	ltpFR	12	n/a	n/a	n/a	n/a	n/a	n/a	n/a	n/a	n/a	n/a	n/a	n/a	n/a	n/a	n/a
795537	WORD	wordpools/wasnorm_wordpool.txt	LTP099	ltpFR	12	3	1	WOLF	1619	n/a	1	n/a	0	0	0	0	0.5869140625	0.422607421875	upper	../fonts/zerothre.ttf
798546	START	n/a	LTP099	ltpFR	12	n/a	n/a	n/a	n/a	n/a	n/a	n/a	n/a	n/a	n/a	n/a	n/a	n/a	n/a	n/a
799420	PROB	n/a	LTP099	ltpFR	12	n/a	n/a	n/a	n/a	n/a	n/a	10	2	2	6	n/a	n/a	n/a	n/a	n/a
800479	PROB	n/a	LTP099	ltpFR	12	n/a	n/a	n/a	n/a	n/a	n/a	13	5	6	2	n/a	n/a	n/a	n/a	n/a
802345	PROB	n/a	LTP099	ltpFR	12	n/a	n/a	n/a	n/a	n/a	n/a	10	4	1	5	n/a	n/a	n/a	n/a	n/a
804187	PROB	n/a	LTP099	ltpFR	12	n/a	n/a	n/a	n/a	n/a	n/a	20	4	7	9	n/a	n/a	n/a	n/a	n/a
806370	PROB	n/a	LTP099	ltpFR	12	n/a	n/a	n/a	n/a	n/a	n/a	15	3	8	2	n/a	n/a	n/a	n/a	n/a
807810	PROB	n/a	LTP099	ltpFR	12	n/a	n/a	n/a	n/a	n/a	n/a	13	4	8	1	n/a	n/a	n/a	n/a	n/a
809553	PROB	n/a	LTP099	ltpFR	12	n/a	n/a	n/a	n/a	n/a	n/a	4	1	2	1	n/a	n/a	n/a	n/a	n/a
811036	PROB	n/a	LTP099	ltpFR	12	n/a	n/a	n/a	n/a	n/a	n/a	12	4	6	2	n/a	n/a	n/a	n/a	n/a
812378	PROB	n/a	LTP099	ltpFR	12	n/a	n/a	n/a	n/a	n/a	n/a	16	4	3	9	n/a	n/a	n/a	n/a	n/a
813785	STOP	n/a	LTP099	ltpFR	12	n/a	n/a	n/a	n/a	n/a	n/a	n/a	n/a	n/a	n/a	n/a	n/a	n/a	n/a	n/a
815411	WORD	wordpools/wasnorm_wordpool.txt	LTP099	ltpFR	12	3	1	DOG	480	n/a	1	n/a	0	0	0	0	0.5869140625	0.422607421875	upper	../fonts/zerothre.ttf
818419	START	n/a	LTP099	ltpFR	12	n/a	n/a	n/a	n/a	n/a	n/a	n/a	n/a	n/a	n/a	n/a	n/a	n/a	n/a	n/a
819236	PROB	n/a	LTP099	ltpFR	12	n/a	n/a	n/a	n/a	n/a	n/a	17	5	4	8	n/a	n/a	n/a	n/a	n/a
820785	PROB	n/a	LTP099	ltpFR	12	n/a	n/a	n/a	n/a	n/a	n/a	20	9	2	9	n/a	n/a	n/a	n/a	n/a
822435	PROB	n/a	LTP099	ltpFR	12	n/a	n/a	n/a	n/a	n/a	n/a	20	7	9	3	n/a	n/a	n/a	n/a	n/a
824168	PROB	n/a	LTP099	ltpFR	12	n/a	n/a	n/a	n/a	n/a	n/a	20	9	5	6	n/a	n/a	n/a	n/a	n/a
827060	PROB	n/a	LTP099	ltpFR	12	n/a	n/a	n/a	n/a	n/a	n/a	78	3	4	1	n/a	n/a	n/a	n/a	n/a
828967	PROB	n/a	LTP099	ltpFR	12	n/a	n/a	n/a	n/a	n/a	n/a	13	3	3	7	n/a	n/a	n/a	n/a	n/a
834419	STOP	n/a	LTP099	ltpFR	12	n/a	n/a	n/a	n/a	n/a	n/a	n/a	n/a	n/a	n/a	n/a	n/a	n/a	n/a	n/a
836268	REC_START	n/a	LTP099	ltpFR	12	3	n/a	n/a	n/a	n/a	n/a	n/a	0	0	0	n/a	n/a	n/a	n/a	n/a
838119	REC_WORD	wordpools/wasnorm_wordpool.txt	LTP099	ltpFR	12	3	1	WOLF	1619	n/a	1	n/a	0	0	0	n/a	n/a	n/a	n/a	n/a
838982	REC_WORD	wordpools/wasnorm_wordpool.txt	LTP099	ltpFR	12	3	1	DOG	480	n/a	1	n/a	0	0	0	n/a	n/a	n/a	n/a	n/a
839710	REC_WORD	wordpools/wasnorm_wordpool.txt	LTP099	ltpFR	12	3	1	OX	994	n/a	0	n/a	0	0	0	n/a	n/a	n/a	n/a	n/a
840753	REC_WORD	wordpools/wasnorm_wordpool.txt	LTP099	ltpFR	12	3	1	BUGGY	188	n/a	0	n/a	0	0	0	n/a	n/a	n/a	n/a	n/a
855674	REC_WORD	wordpools/wasnorm_wordpool.txt	LTP099	ltpFR	12	3	1	CARTON	251	n/a	0	n/a	0	0	0	n/a	n/a	n/a	n/a	n/a
913762	WORD	wordpools/wasnorm_wordpool.txt	LTP099	ltpFR	12	4	1	LIMB	822	n/a	0	n/a	0	0	0	0	0.5869140625	0.422607421875	upper	../fonts/zerothre.ttf
917810	WORD	wordpools/wasnorm_wordpool.txt	LTP099	ltpFR	12	4	1	RAKE	1164	n/a	0	n/a	0	0	0	0	0.5869140625	0.422607421875	upper	../fonts/zerothre.ttf
921719	WORD	wordpools/wasnorm_wordpool.txt	LTP099	ltpFR	12	4	1	EMERALD	528	n/a	0	n/a	0	0	0	0	0.5869140625	0.422607421875	upper	../fonts/zerothre.ttf
925802	WORD	wordpools/wasnorm_wordpool.txt	LTP099	ltpFR	12	4	1	MONASTERY	907	n/a	0	n/a	0	0	0	0	0.5869140625	0.422607421875	upper	../fonts/zerothre.ttf
929619	WORD	wordpools/wasnorm_wordpool.txt	LTP099	ltpFR	12	4	1	SPIDER	1351	n/a	1	n/a	0	0	0	0	0.5869140625	0.422607421875	upper	../fonts/zerothre.ttf
933635	WORD	wordpools/wasnorm_wordpool.txt	LTP099	ltpFR	12	4	1	BUTTERFLY	206	n/a	1	n/a	0	0	0	0	0.5869140625	0.422607421875	upper	../fonts/zerothre.ttf
937568	WORD	wordpools/wasnorm_wordpool.txt	LTP099	ltpFR	12	4	1	WORLD	1622	n/a	1	n/a	0	0	0	0	0.5869140625	0.422607421875	upper	../fonts/zerothre.ttf
941568	WORD	wordpools/wasnorm_wordpool.txt	LTP099	ltpFR	12	4	1	NOTEBOOK	959	n/a	0	n/a	0	0	0	0	0.5869140625	0.422607421875	upper	../fonts/zerothre.ttf
945634	WORD	wordpools/wasnorm_wordpool.txt	LTP099	ltpFR	12	4	1	RADISH	1158	n/a	1	n/a	0	0	0	0	0.5869140625	0.422607421875	upper	../fonts/zerothre.ttf
949484	WORD	wordpools/wasnorm_wordpool.txt	LTP099	ltpFR	12	4	1	HAWK	692	n/a	1	n/a	0	0	0	0	0.5869140625	0.422607421875	upper	../fonts/zerothre.ttf
953484	WORD	wordpools/wasnorm_wordpool.txt	LTP099	ltpFR	12	4	1	BARTENDER	92	n/a	1	n/a	0	0	0	0	0.5869140625	0.422607421875	upper	../fonts/zerothre.ttf
957483	WORD	wordpools/wasnorm_wordpool.txt	LTP099	ltpFR	12	4	1	WINE	1613	n/a	1	n/a	0	0	0	0	0.5869140625	0.422607421875	upper	../fonts/zerothre.ttf
961416	WORD	wordpools/wasnorm_wordpool.txt	LTP099	ltpFR	12	4	1	POND	1101	n/a	0	n/a	0	0	0	0	0.5869140625	0.422607421875	upper	../fonts/zerothre.ttf
965258	WORD	wordpools/wasnorm_wordpool.txt	LTP099	ltpFR	12	4	1	SUMMIT	1405	n/a	0	n/a	0	0	0	0	0.5869140625	0.422607421875	upper	../fonts/zerothre.ttf
969141	WORD	wordpools/wasnorm_wordpool.txt	LTP099	ltpFR	12	4	1	AIRPLANE	12	n/a	1	n/a	0	0	0	0	0.5869140625	0.422607421875	upper	../fonts/zerothre.ttf
973265	WORD	wordpools/wasnorm_wordpool.txt	LTP099	ltpFR	12	4	1	MAP	865	n/a	0	n/a	0	0	0	0	0.5869140625	0.422607421875	upper	../fonts/zerothre.ttf
976265	START	n/a	LTP099	ltpFR	12	n/a	n/a	n/a	n/a	n/a	n/a	n/a	n/a	n/a	n/a	n/a	n/a	n/a	n/a	n/a
977440	PROB	n/a	LTP099	ltpFR	12	n/a	n/a	n/a	n/a	n/a	n/a	10	3	6	1	n/a	n/a	n/a	n/a	n/a
978864	PROB	n/a	LTP099	ltpFR	12	n/a	n/a	n/a	n/a	n/a	n/a	16	5	7	4	n/a	n/a	n/a	n/a	n/a
980922	PROB	n/a	LTP099	ltpFR	12	n/a	n/a	n/a	n/a	n/a	n/a	14	2	5	7	n/a	n/a	n/a	n/a	n/a
982215	PROB	n/a	LTP099	ltpFR	12	n/a	n/a	n/a	n/a	n/a	n/a	19	7	5	7	n/a	n/a	n/a	n/a	n/a
984164	PROB	n/a	LTP099	ltpFR	12	n/a	n/a	n/a	n/a	n/a	n/a	16	6	8	2	n/a	n/a	n/a	n/a	n/a
985947	PROB	n/a	LTP099	ltpFR	12	n/a	n/a	n/a	n/a	n/a	n/a	15	7	4	4	n/a	n/a	n/a	n/a	n/a
987989	PROB	n/a	LTP099	ltpFR	12	n/a	n/a	n/a	n/a	n/a	n/a	14	4	5	6	n/a	n/a	n/a	n/a	n/a
989447	PROB	n/a	LTP099	ltpFR	12	n/a	n/a	n/a	n/a	n/a	n/a	12	3	3	6	n/a	n/a	n/a	n/a	n/a
991593	STOP	n/a	LTP099	ltpFR	12	n/a	n/a	n/a	n/a	n/a	n/a	n/a	n/a	n/a	n/a	n/a	n/a	n/a	n/a	n/a
994131	REC_START	n/a	LTP099	ltpFR	12	4	n/a	n/a	n/a	n/a	n/a	n/a	0	0	0	n/a	n/a	n/a	n/a	n/a
998616	REC_WORD	wordpools/wasnorm_wordpool.txt	LTP099	ltpFR	12	4	1	BARTENDER	92	n/a	1	n/a	0	0	0	n/a	n/a	n/a	n/a	n/a
999573	REC_WORD	wordpools/wasnorm_wordpool.txt	LTP099	ltpFR	12	4	1	WINE	1613	n/a	1	n/a	0	0	0	n/a	n/a	n/a	n/a	n/a
1002143	REC_WORD	wordpools/wasnorm_wordpool.txt	LTP099	ltpFR	12	4	1	WORLD	1622	n/a	1	n/a	0	0	0	n/a	n/a	n/a	n/a	n/a
1004956	REC_WORD	wordpools/wasnorm_wordpool.txt	LTP099	ltpFR	12	4	1	POND	1101	n/a	0	n/a	0	0	0	n/a	n/a	n/a	n/a	n/a
1006238	REC_WORD	wordpools/wasnorm_wordpool.txt	LTP099	ltpFR	12	4	1	AIRPLANE	12	n/a	1	n/a	0	0	0	n/a	n/a	n/a	n/a	n/a
1007146	REC_WORD	wordpools/wasnorm_wordpool.txt	LTP099	ltpFR	12	4	1	MAP	865	n/a	0	n/a	0	0	0	n/a	n/a	n/a	n/a	n/a
1011846	REC_WORD	wordpools/wasnorm_wordpool.txt	LTP099	ltpFR	12	4	1	HAWK	692	n/a	1	n/a	0	0	0	n/a	n/a	n/a	n/a	n/a
1014071	REC_WORD_VV	wordpools/wasnorm_wordpool.txt	LTP099	ltpFR	12	4	n/a	<>	-1	n/a	n/a	n/a	0	0	0	n/a	n/a	n/a	n/a	n/a
1014272	REC_WORD	wordpools/wasnorm_wordpool.txt	LTP099	ltpFR	12	4	1	SUMMIT	1405	n/a	0	n/a	0	0	0	n/a	n/a	n/a	n/a	n/a
1042177	REC_WORD	wordpools/wasnorm_wordpool.txt	LTP099	ltpFR	12	4	n/a	TURNIP	1521	n/a	n/a	n/a	0	0	0	n/a	n/a	n/a	n/a	n/a
1071599	WORD	wordpools/wasnorm_wordpool.txt	LTP099	ltpFR	12	5	0	CLOTHES	327	n/a	0	n/a	0	0	0	1	0.412841796875	0.57763671875	lower	../fonts/amplitud.ttf
1075449	WORD	wordpools/wasnorm_wordpool.txt	LTP099	ltpFR	12	5	0	ASTEROID	50	n/a	1	n/a	0	0	0	1	0.412841796875	0.57763671875	lower	../fonts/amplitud.ttf
1079532	WORD	wordpools/wasnorm_wordpool.txt	LTP099	ltpFR	12	5	0	LAWYER	806	n/a	0	n/a	0	0	0	1	0.412841796875	0.57763671875	lower	../fonts/amplitud.ttf
1083349	WORD	wordpools/wasnorm_wordpool.txt	LTP099	ltpFR	12	5	1	CASHIER	254	n/a	0	n/a	0	0	0	0	0.5869140625	0.422607421875	upper	../fonts/zerothre.ttf
1087540	WORD	wordpools/wasnorm_wordpool.txt	LTP099	ltpFR	12	5	1	VEST	1559	n/a	0	n/a	0	0	0	0	0.5869140625	0.422607421875	upper	../fonts/zerothre.ttf
1091689	WORD	wordpools/wasnorm_wordpool.txt	LTP099	ltpFR	12	5	1	UNIVERSITY	1541	n/a	0	n/a	0	0	0	0	0.5869140625	0.422607421875	upper	../fonts/zerothre.ttf
1095581	WORD	wordpools/wasnorm_wordpool.txt	LTP099	ltpFR	12	5	0	HOOK	715	n/a	0	n/a	0	0	0	1	0.412841796875	0.57763671875	lower	../fonts/amplitud.ttf
1099547	WORD	wordpools/wasnorm_wordpool.txt	LTP099	ltpFR	12	5	0	WAIST	1579	n/a	0	n/a	0	0	0	1	0.412841796875	0.57763671875	lower	../fonts/amplitud.ttf
1103655	WORD	wordpools/wasnorm_wordpool.txt	LTP099	ltpFR	12	5	0	SCHOOL	1248	n/a	1	n/a	0	0	0	1	0.412841796875	0.57763671875	lower	../fonts/amplitud.ttf
1107655	WORD	wordpools/wasnorm_wordpool.txt	LTP099	ltpFR	12	5	0	VEIN	1554	n/a	0	n/a	0	0	0	1	0.412841796875	0.57763671875	lower	../fonts/amplitud.ttf
1111796	WORD	wordpools/wasnorm_wordpool.txt	LTP099	ltpFR	12	5	0	BUBBLE	183	n/a	0	n/a	0	0	0	1	0.412841796875	0.57763671875	lower	../fonts/amplitud.ttf
1115945	WORD	wordpools/wasnorm_wordpool.txt	LTP099	ltpFR	12	5	1	SHRIMP	1297	n/a	1	n/a	0	0	0	0	0.5869140625	0.422607421875	upper	../fonts/zerothre.ttf
1120104	WORD	wordpools/wasnorm_wordpool.txt	LTP099	ltpFR	12	5	1	FIN	566	n/a	0	n/a	0	0	0	0	0.5869140625	0.422607421875	upper	../fonts/zerothre.ttf
1123969	WORD	wordpools/wasnorm_wordpool.txt	LTP099	ltpFR	12	5	1	CUB	419	n/a	0	n/a	0	0	0	0	0.5869140625	0.422607421875	upper	../fonts/zerothre.ttf
1127811	WORD	wordpools/wasnorm_wordpool.txt	LTP099	ltpFR	12	5	1	CORPORATION	382	n/a	0	n/a	0	0	0	0	0.5869140625	0.422607421875	upper	../fonts/zerothre.ttf
1131960	WORD	wordpools/wasnorm_wordpool.txt	LTP099	ltpFR	12	5	1	OFFICE	972	n/a	0	n/a	0	0	0	0	0.5869140625	0.422607421875	upper	../fonts/zerothre.ttf
1137678	REC_START	n/a	LTP099	ltpFR	12	5	n/a	n/a	n/a	n/a	n/a	n/a	0	0	0	n/a	n/a	n/a	n/a	n/a
1138476	REC_WORD	wordpools/wasnorm_wordpool.txt	LTP099	ltpFR	12	5	1	OFFICE	972	n/a	0	n/a	0	0	0	n/a	n/a	n/a	n/a	n/a
1139110	REC_WORD	wordpools/wasnorm_wordpool.txt	LTP099	ltpFR	12	5	1	CORPORATION	382	n/a	0	n/a	0	0	0	n/a	n/a	n/a	n/a	n/a
1147979	REC_WORD	wordpools/wasnorm_wordpool.txt	LTP099	ltpFR	12	5	0	CLOTHES	327	n/a	0	n/a	0	0	0	n/a	n/a	n/a	n/a	n/a
1158116	REC_WORD	wordpools/wasnorm_wordpool.txt	LTP099	ltpFR	12	5	1	BUTTERFLY	206	n/a	1	n/a	0	0	0	n/a	n/a	n/a	n/a	n/a
1158944	REC_WORD_VV	wordpools/wasnorm_wordpool.txt	LTP099	ltpFR	12	5	n/a	<>	-1	n/a	n/a	n/a	0	0	0	n/a	n/a	n/a	n/a	n/a
1215113	WORD	wordpools/wasnorm_wordpool.txt	LTP099	ltpFR	12	6	0	MEDAL	885	n/a	0	n/a	0	0	0	1	0.412841796875	0.57763671875	lower	../fonts/amplitud.ttf
1219088	WORD	wordpools/wasnorm_wordpool.txt	LTP099	ltpFR	12	6	0	BRACELET	163	n/a	0	n/a	0	0	0	1	0.412841796875	0.57763671875	lower	../fonts/amplitud.ttf
1223154	WORD	wordpools/wasnorm_wordpool.txt	LTP099	ltpFR	12	6	0	TELEVISION	1447	n/a	1	n/a	0	0	0	1	0.412841796875	0.57763671875	lower	../fonts/amplitud.ttf
1227229	WORD	wordpools/wasnorm_wordpool.txt	LTP099	ltpFR	12	6	0	POPCORN	1104	n/a	0	n/a	0	0	0	1	0.412841796875	0.57763671875	lower	../fonts/amplitud.ttf
1231287	WORD	wordpools/wasnorm_wordpool.txt	LTP099	ltpFR	12	6	0	PONY	1102	n/a	0	n/a	0	0	0	1	0.412841796875	0.57763671875	lower	../fonts/amplitud.ttf
1235378	WORD	wordpools/wasnorm_wordpool.txt	LTP099	ltpFR	12	6	0	ZEBRA	1635	n/a	1	n/a	0	0	0	1	0.412841796875	0.57763671875	lower	../fonts/amplitud.ttf
1239303	WORD	wordpools/wasnorm_wordpool.txt	LTP099	ltpFR	12	6	0	CAP	236	n/a	0	n/a	0	0	0	1	0.412841796875	0.57763671875	lower	../fonts/amplitud.ttf
1243394	WORD	wordpools/wasnorm_wordpool.txt	LTP099	ltpFR	12	6	0	SPINE	1353	n/a	0	n/a	0	0	0	1	0.412841796875	0.57763671875	lower	../fonts/amplitud.ttf
1247602	WORD	wordpools/wasnorm_wordpool.txt	LTP099	ltpFR	12	6	0	ZIPPER	1636	n/a	0	n/a	0	0	0	1	0.412841796875	0.57763671875	lower	../fonts/amplitud.ttf
1251577	WORD	wordpools/wasnorm_wordpool.txt	LTP099	ltpFR	12	6	0	PRINTER	1126	n/a	1	n/a	0	0	0	1	0.412841796875	0.57763671875	lower	../fonts/amplitud.ttf
1255569	WORD	wordpools/wasnorm_wordpool.txt	LTP099	ltpFR	12	6	0	COBRA	336	n/a	0	n/a	0	0	0	1	0.412841796875	0.57763671875	lower	../fonts/amplitud.ttf
1259652	WORD	wordpools/wasnorm_wordpool.txt	LTP099	ltpFR	12	6	0	ANTENNA	28	n/a	0	n/a	0	0	0	1	0.412841796875	0.57763671875	lower	../fonts/amplitud.ttf
1263643	WORD	wordpools/wasnorm_wordpool.txt	LTP099	ltpFR	12	6	0	SHORTS	1293	n/a	0	n/a	0	0	0	1	0.412841796875	0.57763671875	lower	../fonts/amplitud.ttf
1267684	WORD	wordpools/wasnorm_wordpool.txt	LTP099	ltpFR	12	6	0	DISC	473	n/a	0	n/a	0	0	0	1	0.412841796875	0.57763671875	lower	../fonts/amplitud.ttf
1271559	WORD	wordpools/wasnorm_wordpool.txt	LTP099	ltpFR	12	6	0	ARENA	37	n/a	0	n/a	0	0	0	1	0.412841796875	0.57763671875	lower	../fonts/amplitud.ttf
1275567	WORD	wordpools/wasnorm_wordpool.txt	LTP099	ltpFR	12	6	0	SNOB	1335	n/a	0	n/a	0	0	0	1	0.412841796875	0.57763671875	lower	../fonts/amplitud.ttf
1278575	START	n/a	LTP099	ltpFR	12	n/a	n/a	n/a	n/a	n/a	n/a	n/a	n/a	n/a	n/a	n/a	n/a	n/a	n/a	n/a
1279517	PROB	n/a	LTP099	ltpFR	12	n/a	n/a	n/a	n/a	n/a	n/a	21	5	8	8	n/a	n/a	n/a	n/a	n/a
1281408	PROB	n/a	LTP099	ltpFR	12	n/a	n/a	n/a	n/a	n/a	n/a	9	7	1	1	n/a	n/a	n/a	n/a	n/a
1282641	PROB	n/a	LTP099	ltpFR	12	n/a	n/a	n/a	n/a	n/a	n/a	15	6	7	2	n/a	n/a	n/a	n/a	n/a
1284241	PROB	n/a	LTP099	ltpFR	12	n/a	n/a	n/a	n/a	n/a	n/a	21	9	5	7	n/a	n/a	n/a	n/a	n/a
1285985	STOP	n/a	LTP099	ltpFR	12	n/a	n/a	n/a	n/a	n/a	n/a	n/a	n/a	n/a	n/a	n/a	n/a	n/a	n/a	n/a
1288392	REC_START	n/a	LTP099	ltpFR	12	6	n/a	n/a	n/a	n/a	n/a	n/a	0	0	0	n/a	n/a	n/a	n/a	n/a
1288885	REC_WORD	wordpools/wasnorm_wordpool.txt	LTP099	ltpFR	12	6	0	SNOB	1335	n/a	0	n/a	0	0	0	n/a	n/a	n/a	n/a	n/a
1300499	REC_WORD	wordpools/wasnorm_wordpool.txt	LTP099	ltpFR	12	6	0	TELEVISION	1447	n/a	1	n/a	0	0	0	n/a	n/a	n/a	n/a	n/a
1301387	REC_WORD	wordpools/wasnorm_wordpool.txt	LTP099	ltpFR	12	6	0	ANTENNA	28	n/a	0	n/a	0	0	0	n/a	n/a	n/a	n/a	n/a
1306156	REC_WORD	wordpools/wasnorm_wordpool.txt	LTP099	ltpFR	12	6	0	SHORTS	1293	n/a	0	n/a	0	0	0	n/a	n/a	n/a	n/a	n/a
1308870	REC_WORD	wordpools/wasnorm_wordpool.txt	LTP099	ltpFR	12	6	0	BRACELET	163	n/a	0	n/a	0	0	0	n/a	n/a	n/a	n/a	n/a
1309539	REC_WORD	wordpools/wasnorm_wordpool.txt	LTP099	ltpFR	12	6	0	MEDAL	885	n/a	0	n/a	0	0	0	n/a	n/a	n/a	n/a	n/a
1369934	START	n/a	LTP099	ltpFR	12	n/a	n/a	n/a	n/a	n/a	n/a	n/a	n/a	n/a	n/a	n/a	n/a	n/a	n/a	n/a
1371443	PROB	n/a	LTP099	ltpFR	12	n/a	n/a	n/a	n/a	n/a	n/a	14	5	3	6	n/a	n/a	n/a	n/a	n/a
1373601	PROB	n/a	LTP099	ltpFR	12	n/a	n/a	n/a	n/a	n/a	n/a	20	9	5	6	n/a	n/a	n/a	n/a	n/a
1375701	PROB	n/a	LTP099	ltpFR	12	n/a	n/a	n/a	n/a	n/a	n/a	13	5	3	5	n/a	n/a	n/a	n/a	n/a
1377097	STOP	n/a	LTP099	ltpFR	12	n/a	n/a	n/a	n/a	n/a	n/a	n/a	n/a	n/a	n/a	n/a	n/a	n/a	n/a	n/a
1378776	WORD	wordpools/wasnorm_wordpool.txt	LTP099	ltpFR	12	7	1	COUNTRY	388	n/a	1	n/a	0	0	0	0	0.5869140625	0.422607421875	upper	../fonts/zerothre.ttf
1381784	START	n/a	LTP099	ltpFR	12	n/a	n/a	n/a	n/a	n/a	n/a	n/a	n/a	n/a	n/a	n/a	n/a	n/a	n/a	n/a
1382874	PROB	n/a	LTP099	ltpFR	12	n/a	n/a	n/a	n/a	n/a	n/a	23	9	6	8	n/a	n/a	n/a	n/a	n/a
1384824	PROB	n/a	LTP099	ltpFR	12	n/a	n/a	n/a	n/a	n/a	n/a	13	1	8	4	n/a	n/a	n/a	n/a	n/a
1386267	PROB	n/a	LTP099	ltpFR	12	n/a	n/a	n/a	n/a	n/a	n/a	6	1	3	2	n/a	n/a	n/a	n/a	n/a
1389784	STOP	n/a	LTP099	ltpFR	12	n/a	n/a	n/a	n/a	n/a	n/a	n/a	n/a	n/a	n/a	n/a	n/a	n/a	n/a	n/a
1390957	WORD	wordpools/wasnorm_wordpool.txt	LTP099	ltpFR	12	7	1	HIP	710	n/a	0	n/a	0	0	0	0	0.5869140625	0.422607421875	upper	../fonts/zerothre.ttf
1393966	START	n/a	LTP099	ltpFR	12	n/a	n/a	n/a	n/a	n/a	n/a	n/a	n/a	n/a	n/a	n/a	n/a	n/a	n/a	n/a
1395133	PROB	n/a	LTP099	ltpFR	12	n/a	n/a	n/a	n/a	n/a	n/a	20	8	5	7	n/a	n/a	n/a	n/a	n/a
1396749	PROB	n/a	LTP099	ltpFR	12	n/a	n/a	n/a	n/a	n/a	n/a	16	9	5	2	n/a	n/a	n/a	n/a	n/a
1398658	PROB	n/a	LTP099	ltpFR	12	n/a	n/a	n/a	n/a	n/a	n/a	22	8	9	4	n/a	n/a	n/a	n/a	n/a
1401233	STOP	n/a	LTP099	ltpFR	12	n/a	n/a	n/a	n/a	n/a	n/a	n/a	n/a	n/a	n/a	n/a	n/a	n/a	n/a	n/a
1403124	WORD	wordpools/wasnorm_wordpool.txt	LTP099	ltpFR	12	7	1	COB	334	n/a	0	n/a	0	0	0	0	0.5869140625	0.422607421875	upper	../fonts/zerothre.ttf
1406132	START	n/a	LTP099	ltpFR	12	n/a	n/a	n/a	n/a	n/a	n/a	n/a	n/a	n/a	n/a	n/a	n/a	n/a	n/a	n/a
1407090	PROB	n/a	LTP099	ltpFR	12	n/a	n/a	n/a	n/a	n/a	n/a	10	5	1	4	n/a	n/a	n/a	n/a	n/a
1408515	PROB	n/a	LTP099	ltpFR	12	n/a	n/a	n/a	n/a	n/a	n/a	22	8	9	5	n/a	n/a	n/a	n/a	n/a
1410515	PROB	n/a	LTP099	ltpFR	12	n/a	n/a	n/a	n/a	n/a	n/a	9	2	5	2	n/a	n/a	n/a	n/a	n/a
1414132	STOP	n/a	LTP099	ltpFR	12	n/a	n/a	n/a	n/a	n/a	n/a	n/a	n/a	n/a	n/a	n/a	n/a	n/a	n/a	n/a
1415023	WORD	wordpools/wasnorm_wordpool.txt	LTP099	ltpFR	12	7	0	FLOWER	584	n/a	0	n/a	0	0	0	1	0.412841796875	0.57763671875	lower	../fonts/amplitud.ttf
1418031	START	n/a	LTP099	ltpFR	12	n/a	n/a	n/a	n/a	n/a	n/a	n/a	n/a	n/a	n/a	n/a	n/a	n/a	n/a	n/a
1419181	PROB	n/a	LTP099	ltpFR	12	n/a	n/a	n/a	n/a	n/a	n/a	21	5	7	7	n/a	n/a	n/a	n/a	n/a
1422022	PROB	n/a	LTP099	ltpFR	12	n/a	n/a	n/a	n/a	n/a	n/a	11	1	6	4	n/a	n/a	n/a	n/a	n/a
1423481	PROB	n/a	LTP099	ltpFR	12	n/a	n/a	n/a	n/a	n/a	n/a	20	8	3	9	n/a	n/a	n/a	n/a	n/a
1425073	STOP	n/a	LTP099	ltpFR	12	n/a	n/a	n/a	n/a	n/a	n/a	n/a	n/a	n/a	n/a	n/a	n/a	n/a	n/a	n/a
1426963	WORD	wordpools/wasnorm_wordpool.txt	LTP099	ltpFR	12	7	0	ORCHID	982	n/a	0	n/a	0	0	0	1	0.412841796875	0.57763671875	lower	../fonts/amplitud.ttf
1429971	START	n/a	LTP099	ltpFR	12	n/a	n/a	n/a	n/a	n/a	n/a	n/a	n/a	n/a	n/a	n/a	n/a	n/a	n/a	n/a
1430812	PROB	n/a	LTP099	ltpFR	12	n/a	n/a	n/a	n/a	n/a	n/a	6	4	1	1	n/a	n/a	n/a	n/a	n/a
1431871	PROB	n/a	LTP099	ltpFR	12	n/a	n/a	n/a	n/a	n/a	n/a	22	8	6	8	n/a	n/a	n/a	n/a	n/a
1433580	PROB	n/a	LTP099	ltpFR	12	n/a	n/a	n/a	n/a	n/a	n/a	12	2	9	1	n/a	n/a	n/a	n/a	n/a
1434812	PROB	n/a	LTP099	ltpFR	12	n/a	n/a	n/a	n/a	n/a	n/a	12	3	1	8	n/a	n/a	n/a	n/a	n/a
1436505	STOP	n/a	LTP099	ltpFR	12	n/a	n/a	n/a	n/a	n/a	n/a	n/a	n/a	n/a	n/a	n/a	n/a	n/a	n/a	n/a
1439013	WORD	wordpools/wasnorm_wordpool.txt	LTP099	ltpFR	12	7	0	SWATTER	1418	n/a	0	n/a	0	0	0	1	0.412841796875	0.57763671875	lower	../fonts/amplitud.ttf
1442021	START	n/a	LTP099	ltpFR	12	n/a	n/a	n/a	n/a	n/a	n/a	n/a	n/a	n/a	n/a	n/a	n/a	n/a	n/a	n/a
1443071	PROB	n/a	LTP099	ltpFR	12	n/a	n/a	n/a	n/a	n/a	n/a	21	7	5	9	n/a	n/a	n/a	n/a	n/a
1444387	PROB	n/a	LTP099	ltpFR	12	n/a	n/a	n/a	n/a	n/a	n/a	13	3	3	7	n/a	n/a	n/a	n/a	n/a
1446387	PROB	n/a	LTP099	ltpFR	12	n/a	n/a	n/a	n/a	n/a	n/a	14	9	1	4	n/a	n/a	n/a	n/a	n/a
1447745	PROB	n/a	LTP099	ltpFR	12	n/a	n/a	n/a	n/a	n/a	n/a	15	4	6	5	n/a	n/a	n/a	n/a	n/a
1449097	STOP	n/a	LTP099	ltpFR	12	n/a	n/a	n/a	n/a	n/a	n/a	n/a	n/a	n/a	n/a	n/a	n/a	n/a	n/a	n/a
1450836	WORD	wordpools/wasnorm_wordpool.txt	LTP099	ltpFR	12	7	0	STEWARDESS	1381	n/a	1	n/a	0	0	0	1	0.412841796875	0.57763671875	lower	../fonts/amplitud.ttf
1453845	START	n/a	LTP099	ltpFR	12	n/a	n/a	n/a	n/a	n/a	n/a	n/a	n/a	n/a	n/a	n/a	n/a	n/a	n/a	n/a
1454703	PROB	n/a	LTP099	ltpFR	12	n/a	n/a	n/a	n/a	n/a	n/a	16	8	3	5	n/a	n/a	n/a	n/a	n/a
1456111	PROB	n/a	LTP099	ltpFR	12	n/a	n/a	n/a	n/a	n/a	n/a	15	2	9	4	n/a	n/a	n/a	n/a	n/a
1457486	PROB	n/a	LTP099	ltpFR	12	n/a	n/a	n/a	n/a	n/a	n/a	17	7	7	3	n/a	n/a	n/a	n/a	n/a
1459328	PROB	n/a	LTP099	ltpFR	12	n/a	n/a	n/a	n/a	n/a	n/a	13	1	5	7	n/a	n/a	n/a	n/a	n/a
1460808	STOP	n/a	LTP099	ltpFR	12	n/a	n/a	n/a	n/a	n/a	n/a	n/a	n/a	n/a	n/a	n/a	n/a	n/a	n/a	n/a
1462761	WORD	wordpools/wasnorm_wordpool.txt	LTP099	ltpFR	12	7	0	PERSONNEL	1053	n/a	0	n/a	0	0	0	1	0.412841796875	0.57763671875	lower	../fonts/amplitud.ttf
1465769	START	n/a	LTP099	ltpFR	12	n/a	n/a	n/a	n/a	n/a	n/a	n/a	n/a	n/a	n/a	n/a	n/a	n/a	n/a	n/a
1466586	PROB	n/a	LTP099	ltpFR	12	n/a	n/a	n/a	n/a	n/a	n/a	19	8	9	2	n/a	n/a	n/a	n/a	n/a
1468635	PROB	n/a	LTP099	ltpFR	12	n/a	n/a	n/a	n/a	n/a	n/a	10	2	3	5	n/a	n/a	n/a	n/a	n/a
1469769	PROB	n/a	LTP099	ltpFR	12	n/a	n/a	n/a	n/a	n/a	n/a	18	9	7	2	n/a	n/a	n/a	n/a	n/a
1471102	PROB	n/a	LTP099	ltpFR	12	n/a	n/a	n/a	n/a	n/a	n/a	12	4	1	7	n/a	n/a	n/a	n/a	n/a
1473377	STOP	n/a	LTP099	ltpFR	12	n/a	n/a	n/a	n/a	n/a	n/a	n/a	n/a	n/a	n/a	n/a	n/a	n/a	n/a	n/a
1474677	WORD	wordpools/wasnorm_wordpool.txt	LTP099	ltpFR	12	7	0	PERSON	1052	n/a	1	n/a	0	0	0	1	0.412841796875	0.57763671875	lower	../fonts/amplitud.ttf
1477685	START	n/a	LTP099	ltpFR	12	n/a	n/a	n/a	n/a	n/a	n/a	n/a	n/a	n/a	n/a	n/a	n/a	n/a	n/a	n/a
1478867	PROB	n/a	LTP099	ltpFR	12	n/a	n/a	n/a	n/a	n/a	n/a	18	8	8	2	n/a	n/a	n/a	n/a	n/a
1480618	PROB	n/a	LTP099	ltpFR	12	n/a	n/a	n/a	n/a	n/a	n/a	24	8	7	9	n/a	n/a	n/a	n/a	n/a
1482501	PROB	n/a	LTP099	ltpFR	12	n/a	n/a	n/a	n/a	n/a	n/a	16	7	5	6	n/a	n/a	n/a	n/a	n/a
1485685	STOP	n/a	LTP099	ltpFR	12	n/a	n/a	n/a	n/a	n/a	n/a	n/a	n/a	n/a	n/a	n/a	n/a	n/a	n/a	n/a
1486659	WORD	wordpools/wasnorm_wordpool.txt	LTP099	ltpFR	12	7	1	PLATE	1086	n/a	0	n/a	0	0	0	0	0.5869140625	0.422607421875	upper	../fonts/zerothre.ttf
1489668	START	n/a	LTP099	ltpFR	12	n/a	n/a	n/a	n/a	n/a	n/a	n/a	n/a	n/a	n/a	n/a	n/a	n/a	n/a	n/a
1490559	PROB	n/a	LTP099	ltpFR	12	n/a	n/a	n/a	n/a	n/a	n/a	12	5	2	5	n/a	n/a	n/a	n/a	n/a
1491767	PROB	n/a	LTP099	ltpFR	12	n/a	n/a	n/a	n/a	n/a	n/a	23	9	5	9	n/a	n/a	n/a	n/a	n/a
1493483	PROB	n/a	LTP099	ltpFR	12	n/a	n/a	n/a	n/a	n/a	n/a	12	2	7	3	n/a	n/a	n/a	n/a	n/a
1495617	PROB	n/a	LTP099	ltpFR	12	n/a	n/a	n/a	n/a	n/a	n/a	1	3	4	6	n/a	n/a	n/a	n/a	n/a
1496753	STOP	n/a	LTP099	ltpFR	12	n/a	n/a	n/a	n/a	n/a	n/a	n/a	n/a	n/a	n/a	n/a	n/a	n/a	n/a	n/a
1498525	WORD	wordpools/wasnorm_wordpool.txt	LTP099	ltpFR	12	7	1	JEWEL	757	n/a	0	n/a	0	0	0	0	0.5869140625	0.422607421875	upper	../fonts/zerothre.ttf
1501533	START	n/a	LTP099	ltpFR	12	n/a	n/a	n/a	n/a	n/a	n/a	n/a	n/a	n/a	n/a	n/a	n/a	n/a	n/a	n/a
1502400	PROB	n/a	LTP099	ltpFR	12	n/a	n/a	n/a	n/a	n/a	n/a	19	2	8	9	n/a	n/a	n/a	n/a	n/a
1504658	PROB	n/a	LTP099	ltpFR	12	n/a	n/a	n/a	n/a	n/a	n/a	13	6	1	6	n/a	n/a	n/a	n/a	n/a
1506091	PROB	n/a	LTP099	ltpFR	12	n/a	n/a	n/a	n/a	n/a	n/a	20	4	8	6	n/a	n/a	n/a	n/a	n/a
1507574	PROB	n/a	LTP099	ltpFR	12	n/a	n/a	n/a	n/a	n/a	n/a	13	3	2	8	n/a	n/a	n/a	n/a	n/a
1508808	STOP	n/a	LTP099	ltpFR	12	n/a	n/a	n/a	n/a	n/a	n/a	n/a	n/a	n/a	n/a	n/a	n/a	n/a	n/a	n/a
1510674	WORD	wordpools/wasnorm_wordpool.txt	LTP099	ltpFR	12	7	1	TOMB	1477	n/a	0	n/a	0	0	0	0	0.5869140625	0.422607421875	upper	../fonts/zerothre.ttf
1513682	START	n/a	LTP099	ltpFR	12	n/a	n/a	n/a	n/a	n/a	n/a	n/a	n/a	n/a	n/a	n/a	n/a	n/a	n/a	n/a
1514881	PROB	n/a	LTP099	ltpFR	12	n/a	n/a	n/a	n/a	n/a	n/a	14	1	5	8	n/a	n/a	n/a	n/a	n/a
1516457	PROB	n/a	LTP099	ltpFR	12	n/a	n/a	n/a	n/a	n/a	n/a	19	8	7	6	n/a	n/a	n/a	n/a	n/a
1518215	PROB	n/a	LTP099	ltpFR	12	n/a	n/a	n/a	n/a	n/a	n/a	13	6	7	6	n/a	n/a	n/a	n/a	n/a
1521682	STOP	n/a	LTP099	ltpFR	12	n/a	n/a	n/a	n/a	n/a	n/a	n/a	n/a	n/a	n/a	n/a	n/a	n/a	n/a	n/a
1522565	WORD	wordpools/wasnorm_wordpool.txt	LTP099	ltpFR	12	7	1	THORN	1459	n/a	0	n/a	0	0	0	0	0.5869140625	0.422607421875	upper	../fonts/zerothre.ttf
1525573	START	n/a	LTP099	ltpFR	12	n/a	n/a	n/a	n/a	n/a	n/a	n/a	n/a	n/a	n/a	n/a	n/a	n/a	n/a	n/a
1526589	PROB	n/a	LTP099	ltpFR	12	n/a	n/a	n/a	n/a	n/a	n/a	13	1	8	4	n/a	n/a	n/a	n/a	n/a
1528606	PROB	n/a	LTP099	ltpFR	12	n/a	n/a	n/a	n/a	n/a	n/a	26	9	9	8	n/a	n/a	n/a	n/a	n/a
1531347	PROB	n/a	LTP099	ltpFR	12	n/a	n/a	n/a	n/a	n/a	n/a	15	5	9	1	n/a	n/a	n/a	n/a	n/a
1532401	STOP	n/a	LTP099	ltpFR	12	n/a	n/a	n/a	n/a	n/a	n/a	n/a	n/a	n/a	n/a	n/a	n/a	n/a	n/a	n/a
1534564	WORD	wordpools/wasnorm_wordpool.txt	LTP099	ltpFR	12	7	1	NIGHTGOWN	953	n/a	0	n/a	0	0	0	0	0.5869140625	0.422607421875	upper	../fonts/zerothre.ttf
1537572	START	n/a	LTP099	ltpFR	12	n/a	n/a	n/a	n/a	n/a	n/a	n/a	n/a	n/a	n/a	n/a	n/a	n/a	n/a	n/a
1538513	PROB	n/a	LTP099	ltpFR	12	n/a	n/a	n/a	n/a	n/a	n/a	15	2	6	7	n/a	n/a	n/a	n/a	n/a
1539929	PROB	n/a	LTP099	ltpFR	12	n/a	n/a	n/a	n/a	n/a	n/a	19	5	6	8	n/a	n/a	n/a	n/a	n/a
1541196	PROB	n/a	LTP099	ltpFR	12	n/a	n/a	n/a	n/a	n/a	n/a	13	1	5	7	n/a	n/a	n/a	n/a	n/a
1543246	PROB	n/a	LTP099	ltpFR	12	n/a	n/a	n/a	n/a	n/a	n/a	13	3	4	6	n/a	n/a	n/a	n/a	n/a
1544233	STOP	n/a	LTP099	ltpFR	12	n/a	n/a	n/a	n/a	n/a	n/a	n/a	n/a	n/a	n/a	n/a	n/a	n/a	n/a	n/a
1546754	WORD	wordpools/wasnorm_wordpool.txt	LTP099	ltpFR	12	7	0	BEDROOM	111	n/a	0	n/a	0	0	0	1	0.412841796875	0.57763671875	lower	../fonts/amplitud.ttf
1549755	START	n/a	LTP099	ltpFR	12	n/a	n/a	n/a	n/a	n/a	n/a	n/a	n/a	n/a	n/a	n/a	n/a	n/a	n/a	n/a
1550811	PROB	n/a	LTP099	ltpFR	12	n/a	n/a	n/a	n/a	n/a	n/a	10	5	1	4	n/a	n/a	n/a	n/a	n/a
1552512	PROB	n/a	LTP099	ltpFR	12	n/a	n/a	n/a	n/a	n/a	n/a	8	1	1	6	n/a	n/a	n/a	n/a	n/a
1553654	PROB	n/a	LTP099	ltpFR	12	n/a	n/a	n/a	n/a	n/a	n/a	18	6	9	3	n/a	n/a	n/a	n/a	n/a
1555437	PROB	n/a	LTP099	ltpFR	12	n/a	n/a	n/a	n/a	n/a	n/a	4	2	1	1	n/a	n/a	n/a	n/a	n/a
1556457	STOP	n/a	LTP099	ltpFR	12	n/a	n/a	n/a	n/a	n/a	n/a	n/a	n/a	n/a	n/a	n/a	n/a	n/a	n/a	n/a
1558787	WORD	wordpools/wasnorm_wordpool.txt	LTP099	ltpFR	12	7	0	DIAMOND	458	n/a	0	n/a	0	0	0	1	0.412841796875	0.57763671875	lower	../fonts/amplitud.ttf
1561795	START	n/a	LTP099	ltpFR	12	n/a	n/a	n/a	n/a	n/a	n/a	n/a	n/a	n/a	n/a	n/a	n/a	n/a	n/a	n/a
1562894	PROB	n/a	LTP099	ltpFR	12	n/a	n/a	n/a	n/a	n/a	n/a	13	6	6	1	n/a	n/a	n/a	n/a	n/a
1564536	PROB	n/a	LTP099	ltpFR	12	n/a	n/a	n/a	n/a	n/a	n/a	16	1	7	8	n/a	n/a	n/a	n/a	n/a
1566311	PROB	n/a	LTP099	ltpFR	12	n/a	n/a	n/a	n/a	n/a	n/a	6	3	1	2	n/a	n/a	n/a	n/a	n/a
1568044	PROB	n/a	LTP099	ltpFR	12	n/a	n/a	n/a	n/a	n/a	n/a	17	6	6	5	n/a	n/a	n/a	n/a	n/a
1569761	STOP	n/a	LTP099	ltpFR	12	n/a	n/a	n/a	n/a	n/a	n/a	n/a	n/a	n/a	n/a	n/a	n/a	n/a	n/a	n/a
1571653	REC_START	n/a	LTP099	ltpFR	12	7	n/a	n/a	n/a	n/a	n/a	n/a	0	0	0	n/a	n/a	n/a	n/a	n/a
1572885	REC_WORD	wordpools/wasnorm_wordpool.txt	LTP099	ltpFR	12	7	1	NIGHTGOWN	953	n/a	0	n/a	0	0	0	n/a	n/a	n/a	n/a	n/a
1577454	REC_WORD	wordpools/wasnorm_wordpool.txt	LTP099	ltpFR	12	7	n/a	SWEATER	1419	n/a	n/a	n/a	0	0	0	n/a	n/a	n/a	n/a	n/a
1598562	REC_WORD	wordpools/wasnorm_wordpool.txt	LTP099	ltpFR	12	7	0	PERSONNEL	1053	n/a	0	n/a	0	0	0	n/a	n/a	n/a	n/a	n/a
1599340	REC_WORD	wordpools/wasnorm_wordpool.txt	LTP099	ltpFR	12	7	0	PERSON	1052	n/a	1	n/a	0	0	0	n/a	n/a	n/a	n/a	n/a
1632080	REC_WORD	wordpools/wasnorm_wordpool.txt	LTP099	ltpFR	12	7	0	STEWARDESS	1381	n/a	1	n/a	0	0	0	n/a	n/a	n/a	n/a	n/a
1649380	WORD	wordpools/wasnorm_wordpool.txt	LTP099	ltpFR	12	8	0	DISHWASHER	475	n/a	0	n/a	0	0	0	1	0.412841796875	0.57763671875	lower	../fonts/amplitud.ttf
1653405	WORD	wordpools/wasnorm_wordpool.txt	LTP099	ltpFR	12	8	0	SLIME	1327	n/a	0	n/a	0	0	0	1	0.412841796875	0.57763671875	lower	../fonts/amplitud.ttf
1657604	WORD	wordpools/wasnorm_wordpool.txt	LTP099	ltpFR	12	8	0	PAVEMENT	1028	n/a	0	n/a	0	0	0	1	0.412841796875	0.57763671875	lower	../fonts/amplitud.ttf
1661746	WORD	wordpools/wasnorm_wordpool.txt	LTP099	ltpFR	12	8	0	MUG	930	n/a	0	n/a	0	0	0	1	0.412841796875	0.57763671875	lower	../fonts/amplitud.ttf
1665828	WORD	wordpools/wasnorm_wordpool.txt	LTP099	ltpFR	12	8	0	SHED	1277	n/a	1	n/a	0	0	0	1	0.412841796875	0.57763671875	lower	../fonts/amplitud.ttf
1669703	WORD	wordpools/wasnorm_wordpool.txt	LTP099	ltpFR	12	8	0	SALESMAN	1225	n/a	1	n/a	0	0	0	1	0.412841796875	0.57763671875	lower	../fonts/amplitud.ttf
1673802	WORD	wordpools/wasnorm_wordpool.txt	LTP099	ltpFR	12	8	0	DONOR	485	n/a	1	n/a	0	0	0	1	0.412841796875	0.57763671875	lower	../fonts/amplitud.ttf
1677628	WORD	wordpools/wasnorm_wordpool.txt	LTP099	ltpFR	12	8	0	ARTERY	41	n/a	0	n/a	0	0	0	1	0.412841796875	0.57763671875	lower	../fonts/amplitud.ttf
1681702	WORD	wordpools/wasnorm_wordpool.txt	LTP099	ltpFR	12	8	0	VEHICLE	1553	n/a	1	n/a	0	0	0	1	0.412841796875	0.57763671875	lower	../fonts/amplitud.ttf
1685876	WORD	wordpools/wasnorm_wordpool.txt	LTP099	ltpFR	12	8	0	CELLAR	267	n/a	0	n/a	0	0	0	1	0.412841796875	0.57763671875	lower	../fonts/amplitud.ttf
1689752	WORD	wordpools/wasnorm_wordpool.txt	LTP099	ltpFR	12	8	0	VITAMIN	1574	n/a	0	n/a	0	0	0	1	0.412841796875	0.57763671875	lower	../fonts/amplitud.ttf
1693751	WORD	wordpools/wasnorm_wordpool.txt	LTP099	ltpFR	12	8	0	ASPIRIN	47	n/a	0	n/a	0	0	0	1	0.412841796875	0.57763671875	lower	../fonts/amplitud.ttf
1697701	WORD	wordpools/wasnorm_wordpool.txt	LTP099	ltpFR	12	8	0	LID	817	n/a	0	n/a	0	0	0	1	0.412841796875	0.57763671875	lower	../fonts/amplitud.ttf
1701883	WORD	wordpools/wasnorm_wordpool.txt	LTP099	ltpFR	12	8	0	BATH	98	n/a	1	n/a	0	0	0	1	0.412841796875	0.57763671875	lower	../fonts/amplitud.ttf
1705775	WORD	wordpools/wasnorm_wordpool.txt	LTP099	ltpFR	12	8	0	GAVEL	627	n/a	0	n/a	0	0	0	1	0.412841796875	0.57763671875	lower	../fonts/amplitud.ttf
1709733	WORD	wordpools/wasnorm_wordpool.txt	LTP099	ltpFR	12	8	0	SUSPECT	1415	n/a	1	n/a	0	0	0	1	0.412841796875	0.57763671875	lower	../fonts/amplitud.ttf
1715400	REC_START	n/a	LTP099	ltpFR	12	8	n/a	n/a	n/a	n/a	n/a	n/a	0	0	0	n/a	n/a	n/a	n/a	n/a
1716273	REC_WORD	wordpools/wasnorm_wordpool.txt	LTP099	ltpFR	12	8	0	LID	817	n/a	0	n/a	0	0	0	n/a	n/a	n/a	n/a	n/a
1716901	REC_WORD	wordpools/wasnorm_wordpool.txt	LTP099	ltpFR	12	8	0	GAVEL	627	n/a	0	n/a	0	0	0	n/a	n/a	n/a	n/a	n/a
1717370	REC_WORD	wordpools/wasnorm_wordpool.txt	LTP099	ltpFR	12	8	0	SUSPECT	1415	n/a	1	n/a	0	0	0	n/a	n/a	n/a	n/a	n/a
1725227	REC_WORD	wordpools/wasnorm_wordpool.txt	LTP099	ltpFR	12	8	0	MUG	930	n/a	0	n/a	0	0	0	n/a	n/a	n/a	n/a	n/a
1726420	REC_WORD	wordpools/wasnorm_wordpool.txt	LTP099	ltpFR	12	8	0	DISHWASHER	475	n/a	0	n/a	0	0	0	n/a	n/a	n/a	n/a	n/a
1727667	REC_WORD	wordpools/wasnorm_wordpool.txt	LTP099	ltpFR	12	8	0	SLIME	1327	n/a	0	n/a	0	0	0	n/a	n/a	n/a	n/a	n/a
1737455	REC_WORD	wordpools/wasnorm_wordpool.txt	LTP099	ltpFR	12	8	0	GAVEL	627	n/a	0	n/a	0	0	0	n/a	n/a	n/a	n/a	n/a
1792986	START	n/a	LTP099	ltpFR	12	n/a	n/a	n/a	n/a	n/a	n/a	n/a	n/a	n/a	n/a	n/a	n/a	n/a	n/a	n/a
1794494	PROB	n/a	LTP099	ltpFR	12	n/a	n/a	n/a	n/a	n/a	n/a	18	7	2	9	n/a	n/a	n/a	n/a	n/a
1795834	PROB	n/a	LTP099	ltpFR	12	n/a	n/a	n/a	n/a	n/a	n/a	11	2	2	7	n/a	n/a	n/a	n/a	n/a
1797135	PROB	n/a	LTP099	ltpFR	12	n/a	n/a	n/a	n/a	n/a	n/a	19	8	5	6	n/a	n/a	n/a	n/a	n/a
1799872	STOP	n/a	LTP099	ltpFR	12	n/a	n/a	n/a	n/a	n/a	n/a	n/a	n/a	n/a	n/a	n/a	n/a	n/a	n/a	n/a
1802085	WORD	wordpools/wasnorm_wordpool.txt	LTP099	ltpFR	12	9	0	QUARTER	1148	n/a	0	n/a	0	0	0	1	0.412841796875	0.57763671875	lower	../fonts/amplitud.ttf
1805093	START	n/a	LTP099	ltpFR	12	n/a	n/a	n/a	n/a	n/a	n/a	n/a	n/a	n/a	n/a	n/a	n/a	n/a	n/a	n/a
1806101	PROB	n/a	LTP099	ltpFR	12	n/a	n/a	n/a	n/a	n/a	n/a	8	2	5	1	n/a	n/a	n/a	n/a	n/a
1808226	PROB	n/a	LTP099	ltpFR	12	n/a	n/a	n/a	n/a	n/a	n/a	17	1	7	9	n/a	n/a	n/a	n/a	n/a
1810001	PROB	n/a	LTP099	ltpFR	12	n/a	n/a	n/a	n/a	n/a	n/a	6	3	1	2	n/a	n/a	n/a	n/a	n/a
1812049	STOP	n/a	LTP099	ltpFR	12	n/a	n/a	n/a	n/a	n/a	n/a	n/a	n/a	n/a	n/a	n/a	n/a	n/a	n/a	n/a
1814034	WORD	wordpools/wasnorm_wordpool.txt	LTP099	ltpFR	12	9	0	RACKET	1155	n/a	0	n/a	0	0	0	1	0.412841796875	0.57763671875	lower	../fonts/amplitud.ttf
1817042	START	n/a	LTP099	ltpFR	12	n/a	n/a	n/a	n/a	n/a	n/a	n/a	n/a	n/a	n/a	n/a	n/a	n/a	n/a	n/a
1817941	PROB	n/a	LTP099	ltpFR	12	n/a	n/a	n/a	n/a	n/a	n/a	14	3	2	9	n/a	n/a	n/a	n/a	n/a
1819866	PROB	n/a	LTP099	ltpFR	12	n/a	n/a	n/a	n/a	n/a	n/a	1	9	2	2	n/a	n/a	n/a	n/a	n/a
1821117	PROB	n/a	LTP099	ltpFR	12	n/a	n/a	n/a	n/a	n/a	n/a	18	1	8	9	n/a	n/a	n/a	n/a	n/a
1822516	PROB	n/a	LTP099	ltpFR	12	n/a	n/a	n/a	n/a	n/a	n/a	15	6	5	4	n/a	n/a	n/a	n/a	n/a
1824361	STOP	n/a	LTP099	ltpFR	12	n/a	n/a	n/a	n/a	n/a	n/a	n/a	n/a	n/a	n/a	n/a	n/a	n/a	n/a	n/a
1826083	WORD	wordpools/wasnorm_wordpool.txt	LTP099	ltpFR	12	9	0	SIRLOIN	1311	n/a	0	n/a	0	0	0	1	0.412841796875	0.57763671875	lower	../fonts/amplitud.ttf
1829091	START	n/a	LTP099	ltpFR	12	n/a	n/a	n/a	n/a	n/a	n/a	n/a	n/a	n/a	n/a	n/a	n/a	n/a	n/a	n/a
1830133	PROB	n/a	LTP099	ltpFR	12	n/a	n/a	n/a	n/a	n/a	n/a	15	7	9	6	n/a	n/a	n/a	n/a	n/a
1832791	PROB	n/a	LTP099	ltpFR	12	n/a	n/a	n/a	n/a	n/a	n/a	18	6	1	9	n/a	n/a	n/a	n/a	n/a
1834799	PROB	n/a	LTP099	ltpFR	12	n/a	n/a	n/a	n/a	n/a	n/a	8	1	4	2	n/a	n/a	n/a	n/a	n/a
1836193	STOP	n/a	LTP099	ltpFR	12	n/a	n/a	n/a	n/a	n/a	n/a	n/a	n/a	n/a	n/a	n/a	n/a	n/a	n/a	n/a
1837948	WORD	wordpools/wasnorm_wordpool.txt	LTP099	ltpFR	12	9	0	SKIN	1318	n/a	0	n/a	0	0	0	1	0.412841796875	0.57763671875	lower	../fonts/amplitud.ttf
1840956	START	n/a	LTP099	ltpFR	12	n/a	n/a	n/a	n/a	n/a	n/a	n/a	n/a	n/a	n/a	n/a	n/a	n/a	n/a	n/a
1842057	PROB	n/a	LTP099	ltpFR	12	n/a	n/a	n/a	n/a	n/a	n/a	10	3	2	5	n/a	n/a	n/a	n/a	n/a
1845006	PROB	n/a	LTP099	ltpFR	12	n/a	n/a	n/a	n/a	n/a	n/a	20	8	8	4	n/a	n/a	n/a	n/a	n/a
1846839	PROB	n/a	LTP099	ltpFR	12	n/a	n/a	n/a	n/a	n/a	n/a	19	9	1	9	n/a	n/a	n/a	n/a	n/a
1848089	STOP	n/a	LTP099	ltpFR	12	n/a	n/a	n/a	n/a	n/a	n/a	n/a	n/a	n/a	n/a	n/a	n/a	n/a	n/a	n/a
1850164	WORD	wordpools/wasnorm_wordpool.txt	LTP099	ltpFR	12	9	0	BOWL	158	n/a	0	n/a	0	0	0	1	0.412841796875	0.57763671875	lower	../fonts/amplitud.ttf
1853165	START	n/a	LTP099	ltpFR	12	n/a	n/a	n/a	n/a	n/a	n/a	n/a	n/a	n/a	n/a	n/a	n/a	n/a	n/a	n/a
1854172	PROB	n/a	LTP099	ltpFR	12	n/a	n/a	n/a	n/a	n/a	n/a	20	5	9	6	n/a	n/a	n/a	n/a	n/a
1855547	PROB	n/a	LTP099	ltpFR	12	n/a	n/a	n/a	n/a	n/a	n/a	18	3	9	6	n/a	n/a	n/a	n/a	n/a
1858055	PROB	n/a	LTP099	ltpFR	12	n/a	n/a	n/a	n/a	n/a	n/a	13	9	1	3	n/a	n/a	n/a	n/a	n/a
1861165	STOP	n/a	LTP099	ltpFR	12	n/a	n/a	n/a	n/a	n/a	n/a	n/a	n/a	n/a	n/a	n/a	n/a	n/a	n/a	n/a
1862313	WORD	wordpools/wasnorm_wordpool.txt	LTP099	ltpFR	12	9	0	CHAUFFEUR	283	n/a	1	n/a	0	0	0	1	0.412841796875	0.57763671875	lower	../fonts/amplitud.ttf
1865314	START	n/a	LTP099	ltpFR	12	n/a	n/a	n/a	n/a	n/a	n/a	n/a	n/a	n/a	n/a	n/a	n/a	n/a	n/a	n/a
1866455	PROB	n/a	LTP099	ltpFR	12	n/a	n/a	n/a	n/a	n/a	n/a	6	1	3	2	n/a	n/a	n/a	n/a	n/a
1868088	PROB	n/a	LTP099	ltpFR	12	n/a	n/a	n/a	n/a	n/a	n/a	12	5	5	2	n/a	n/a	n/a	n/a	n/a
1869246	PROB	n/a	LTP099	ltpFR	12	n/a	n/a	n/a	n/a	n/a	n/a	20	9	4	7	n/a	n/a	n/a	n/a	n/a
1873314	STOP	n/a	LTP099	ltpFR	12	n/a	n/a	n/a	n/a	n/a	n/a	n/a	n/a	n/a	n/a	n/a	n/a	n/a	n/a	n/a
1874504	WORD	wordpools/wasnorm_wordpool.txt	LTP099	ltpFR	12	9	0	BRAKE	166	n/a	0	n/a	0	0	0	1	0.412841796875	0.57763671875	lower	../fonts/amplitud.ttf
1877513	START	n/a	LTP099	ltpFR	12	n/a	n/a	n/a	n/a	n/a	n/a	n/a	n/a	n/a	n/a	n/a	n/a	n/a	n/a	n/a
1878587	PROB	n/a	LTP099	ltpFR	12	n/a	n/a	n/a	n/a	n/a	n/a	13	3	3	7	n/a	n/a	n/a	n/a	n/a
1879803	PROB	n/a	LTP099	ltpFR	12	n/a	n/a	n/a	n/a	n/a	n/a	14	5	4	5	n/a	n/a	n/a	n/a	n/a
1881220	PROB	n/a	LTP099	ltpFR	12	n/a	n/a	n/a	n/a	n/a	n/a	9	4	4	1	n/a	n/a	n/a	n/a	n/a
1883170	PROB	n/a	LTP099	ltpFR	12	n/a	n/a	n/a	n/a	n/a	n/a	16	9	2	3	n/a	n/a	n/a	n/a	n/a
1884753	STOP	n/a	LTP099	ltpFR	12	n/a	n/a	n/a	n/a	n/a	n/a	n/a	n/a	n/a	n/a	n/a	n/a	n/a	n/a	n/a
1886520	WORD	wordpools/wasnorm_wordpool.txt	LTP099	ltpFR	12	9	0	GRILL	661	n/a	0	n/a	0	0	0	1	0.412841796875	0.57763671875	lower	../fonts/amplitud.ttf
1889528	START	n/a	LTP099	ltpFR	12	n/a	n/a	n/a	n/a	n/a	n/a	n/a	n/a	n/a	n/a	n/a	n/a	n/a	n/a	n/a
1890403	PROB	n/a	LTP099	ltpFR	12	n/a	n/a	n/a	n/a	n/a	n/a	8	4	1	2	n/a	n/a	n/a	n/a	n/a
1891810	PROB	n/a	LTP099	ltpFR	12	n/a	n/a	n/a	n/a	n/a	n/a	11	9	1	1	n/a	n/a	n/a	n/a	n/a
1892960	PROB	n/a	LTP099	ltpFR	12	n/a	n/a	n/a	n/a	n/a	n/a	10	8	1	1	n/a	n/a	n/a	n/a	n/a
1894353	PROB	n/a	LTP099	ltpFR	12	n/a	n/a	n/a	n/a	n/a	n/a	17	8	1	8	n/a	n/a	n/a	n/a	n/a
1895818	PROB	n/a	LTP099	ltpFR	12	n/a	n/a	n/a	n/a	n/a	n/a	15	7	4	2	n/a	n/a	n/a	n/a	n/a
1897281	STOP	n/a	LTP099	ltpFR	12	n/a	n/a	n/a	n/a	n/a	n/a	n/a	n/a	n/a	n/a	n/a	n/a	n/a	n/a	n/a
1898436	WORD	wordpools/wasnorm_wordpool.txt	LTP099	ltpFR	12	9	0	CLOCK	325	n/a	0	n/a	0	0	0	1	0.412841796875	0.57763671875	lower	../fonts/amplitud.ttf
1901444	START	n/a	LTP099	ltpFR	12	n/a	n/a	n/a	n/a	n/a	n/a	n/a	n/a	n/a	n/a	n/a	n/a	n/a	n/a	n/a
1902269	PROB	n/a	LTP099	ltpFR	12	n/a	n/a	n/a	n/a	n/a	n/a	10	8	1	1	n/a	n/a	n/a	n/a	n/a
1903294	PROB	n/a	LTP099	ltpFR	12	n/a	n/a	n/a	n/a	n/a	n/a	20	5	9	6	n/a	n/a	n/a	n/a	n/a
1905343	PROB	n/a	LTP099	ltpFR	12	n/a	n/a	n/a	n/a	n/a	n/a	15	4	3	8	n/a	n/a	n/a	n/a	n/a
1906985	PROB	n/a	LTP099	ltpFR	12	n/a	n/a	n/a	n/a	n/a	n/a	18	6	7	5	n/a	n/a	n/a	n/a	n/a
1908601	STOP	n/a	LTP099	ltpFR	12	n/a	n/a	n/a	n/a	n/a	n/a	n/a	n/a	n/a	n/a	n/a	n/a	n/a	n/a	n/a
1910401	WORD	wordpools/wasnorm_wordpool.txt	LTP099	ltpFR	12	9	0	KETCHUP	771	n/a	0	n/a	0	0	0	1	0.412841796875	0.57763671875	lower	../fonts/amplitud.ttf
1913402	START	n/a	LTP099	ltpFR	12	n/a	n/a	n/a	n/a	n/a	n/a	n/a	n/a	n/a	n/a	n/a	n/a	n/a	n/a	n/a
1914326	PROB	n/a	LTP099	ltpFR	12	n/a	n/a	n/a	n/a	n/a	n/a	13	5	6	2	n/a	n/a	n/a	n/a	n/a
1915701	PROB	n/a	LTP099	ltpFR	12	n/a	n/a	n/a	n/a	n/a	n/a	11	6	1	4	n/a	n/a	n/a	n/a	n/a
1916900	PROB	n/a	LTP099	ltpFR	12	n/a	n/a	n/a	n/a	n/a	n/a	24	7	9	8	n/a	n/a	n/a	n/a	n/a
1919883	PROB	n/a	LTP099	ltpFR	12	n/a	n/a	n/a	n/a	n/a	n/a	16	2	7	7	n/a	n/a	n/a	n/a	n/a
1921385	STOP	n/a	LTP099	ltpFR	12	n/a	n/a	n/a	n/a	n/a	n/a	n/a	n/a	n/a	n/a	n/a	n/a	n/a	n/a	n/a
1922350	WORD	wordpools/wasnorm_wordpool.txt	LTP099	ltpFR	12	9	0	HAMBURGER	679	n/a	0	n/a	0	0	0	1	0.412841796875	0.57763671875	lower	../fonts/amplitud.ttf
1925359	START	n/a	LTP099	ltpFR	12	n/a	n/a	n/a	n/a	n/a	n/a	n/a	n/a	n/a	n/a	n/a	n/a	n/a	n/a	n/a
1926500	PROB	n/a	LTP099	ltpFR	12	n/a	n/a	n/a	n/a	n/a	n/a	17	8	7	2	n/a	n/a	n/a	n/a	n/a
1928350	PROB	n/a	LTP099	ltpFR	12	n/a	n/a	n/a	n/a	n/a	n/a	21	5	8	8	n/a	n/a	n/a	n/a	n/a
1929733	PROB	n/a	LTP099	ltpFR	12	n/a	n/a	n/a	n/a	n/a	n/a	16	4	7	4	n/a	n/a	n/a	n/a	n/a
1931816	STOP	n/a	LTP099	ltpFR	12	n/a	n/a	n/a	n/a	n/a	n/a	n/a	n/a	n/a	n/a	n/a	n/a	n/a	n/a	n/a
1934533	WORD	wordpools/wasnorm_wordpool.txt	LTP099	ltpFR	12	9	0	PENNY	1045	n/a	0	n/a	0	0	0	1	0.412841796875	0.57763671875	lower	../fonts/amplitud.ttf
1937541	START	n/a	LTP099	ltpFR	12	n/a	n/a	n/a	n/a	n/a	n/a	n/a	n/a	n/a	n/a	n/a	n/a	n/a	n/a	n/a
1938432	PROB	n/a	LTP099	ltpFR	12	n/a	n/a	n/a	n/a	n/a	n/a	13	2	5	6	n/a	n/a	n/a	n/a	n/a
1939791	PROB	n/a	LTP099	ltpFR	12	n/a	n/a	n/a	n/a	n/a	n/a	24	9	6	9	n/a	n/a	n/a	n/a	n/a
1942407	PROB	n/a	LTP099	ltpFR	12	n/a	n/a	n/a	n/a	n/a	n/a	15	5	6	4	n/a	n/a	n/a	n/a	n/a
1945540	STOP	n/a	LTP099	ltpFR	12	n/a	n/a	n/a	n/a	n/a	n/a	n/a	n/a	n/a	n/a	n/a	n/a	n/a	n/a	n/a
1946549	WORD	wordpools/wasnorm_wordpool.txt	LTP099	ltpFR	12	9	0	PAD	998	n/a	0	n/a	0	0	0	1	0.412841796875	0.57763671875	lower	../fonts/amplitud.ttf
1949557	START	n/a	LTP099	ltpFR	12	n/a	n/a	n/a	n/a	n/a	n/a	n/a	n/a	n/a	n/a	n/a	n/a	n/a	n/a	n/a
1950440	PROB	n/a	LTP099	ltpFR	12	n/a	n/a	n/a	n/a	n/a	n/a	16	5	6	5	n/a	n/a	n/a	n/a	n/a
1951706	PROB	n/a	LTP099	ltpFR	12	n/a	n/a	n/a	n/a	n/a	n/a	16	6	9	1	n/a	n/a	n/a	n/a	n/a
1952773	PROB	n/a	LTP099	ltpFR	12	n/a	n/a	n/a	n/a	n/a	n/a	14	9	4	1	n/a	n/a	n/a	n/a	n/a
1953972	PROB	n/a	LTP099	ltpFR	12	n/a	n/a	n/a	n/a	n/a	n/a	7	1	5	1	n/a	n/a	n/a	n/a	n/a
1955056	PROB	n/a	LTP099	ltpFR	12	n/a	n/a	n/a	n/a	n/a	n/a	16	9	3	4	n/a	n/a	n/a	n/a	n/a
1956273	STOP	n/a	LTP099	ltpFR	12	n/a	n/a	n/a	n/a	n/a	n/a	n/a	n/a	n/a	n/a	n/a	n/a	n/a	n/a	n/a
1958473	WORD	wordpools/wasnorm_wordpool.txt	LTP099	ltpFR	12	9	0	EDITOR	516	n/a	0	n/a	0	0	0	1	0.412841796875	0.57763671875	lower	../fonts/amplitud.ttf
1961481	START	n/a	LTP099	ltpFR	12	n/a	n/a	n/a	n/a	n/a	n/a	n/a	n/a	n/a	n/a	n/a	n/a	n/a	n/a	n/a
1962656	PROB	n/a	LTP099	ltpFR	12	n/a	n/a	n/a	n/a	n/a	n/a	12	1	4	7	n/a	n/a	n/a	n/a	n/a
1964297	PROB	n/a	LTP099	ltpFR	12	n/a	n/a	n/a	n/a	n/a	n/a	10	6	3	1	n/a	n/a	n/a	n/a	n/a
1965797	PROB	n/a	LTP099	ltpFR	12	n/a	n/a	n/a	n/a	n/a	n/a	19	4	7	8	n/a	n/a	n/a	n/a	n/a
1967305	PROB	n/a	LTP099	ltpFR	12	n/a	n/a	n/a	n/a	n/a	n/a	5	2	1	2	n/a	n/a	n/a	n/a	n/a
1968313	STOP	n/a	LTP099	ltpFR	12	n/a	n/a	n/a	n/a	n/a	n/a	n/a	n/a	n/a	n/a	n/a	n/a	n/a	n/a	n/a
1970305	WORD	wordpools/wasnorm_wordpool.txt	LTP099	ltpFR	12	9	0	LAUNDRY	803	n/a	0	n/a	0	0	0	1	0.412841796875	0.57763671875	lower	../fonts/amplitud.ttf
1973314	START	n/a	LTP099	ltpFR	12	n/a	n/a	n/a	n/a	n/a	n/a	n/a	n/a	n/a	n/a	n/a	n/a	n/a	n/a	n/a
1974305	PROB	n/a	LTP099	ltpFR	12	n/a	n/a	n/a	n/a	n/a	n/a	16	4	9	3	n/a	n/a	n/a	n/a	n/a
1975663	PROB	n/a	LTP099	ltpFR	12	n/a	n/a	n/a	n/a	n/a	n/a	18	1	9	8	n/a	n/a	n/a	n/a	n/a
1976771	PROB	n/a	LTP099	ltpFR	12	n/a	n/a	n/a	n/a	n/a	n/a	11	3	5	3	n/a	n/a	n/a	n/a	n/a
1979271	PROB	n/a	LTP099	ltpFR	12	n/a	n/a	n/a	n/a	n/a	n/a	15	4	3	8	n/a	n/a	n/a	n/a	n/a
1980513	STOP	n/a	LTP099	ltpFR	12	n/a	n/a	n/a	n/a	n/a	n/a	n/a	n/a	n/a	n/a	n/a	n/a	n/a	n/a	n/a
1982404	WORD	wordpools/wasnorm_wordpool.txt	LTP099	ltpFR	12	9	0	DICTATOR	462	n/a	1	n/a	0	0	0	1	0.412841796875	0.57763671875	lower	../fonts/amplitud.ttf
1985412	START	n/a	LTP099	ltpFR	12	n/a	n/a	n/a	n/a	n/a	n/a	n/a	n/a	n/a	n/a	n/a	n/a	n/a	n/a	n/a
1986320	PROB	n/a	LTP099	ltpFR	12	n/a	n/a	n/a	n/a	n/a	n/a	6	1	3	2	n/a	n/a	n/a	n/a	n/a
1987787	PROB	n/a	LTP099	ltpFR	12	n/a	n/a	n/a	n/a	n/a	n/a	12	4	1	7	n/a	n/a	n/a	n/a	n/a
1989395	PROB	n/a	LTP099	ltpFR	12	n/a	n/a	n/a	n/a	n/a	n/a	19	2	8	9	n/a	n/a	n/a	n/a	n/a
1990587	PROB	n/a	LTP099	ltpFR	12	n/a	n/a	n/a	n/a	n/a	n/a	14	5	2	7	n/a	n/a	n/a	n/a	n/a
1991894	PROB	n/a	LTP099	ltpFR	12	n/a	n/a	n/a	n/a	n/a	n/a	9	1	4	4	n/a	n/a	n/a	n/a	n/a
1993041	STOP	n/a	LTP099	ltpFR	12	n/a	n/a	n/a	n/a	n/a	n/a	n/a	n/a	n/a	n/a	n/a	n/a	n/a	n/a	n/a
1995229	REC_START	n/a	LTP099	ltpFR	12	9	n/a	n/a	n/a	n/a	n/a	n/a	0	0	0	n/a	n/a	n/a	n/a	n/a
1995862	REC_WORD	wordpools/wasnorm_wordpool.txt	LTP099	ltpFR	12	9	0	CHAUFFEUR	283	n/a	1	n/a	0	0	0	n/a	n/a	n/a	n/a	n/a
1997159	REC_WORD	wordpools/wasnorm_wordpool.txt	LTP099	ltpFR	12	9	0	DICTATOR	462	n/a	1	n/a	0	0	0	n/a	n/a	n/a	n/a	n/a
1997868	REC_WORD	wordpools/wasnorm_wordpool.txt	LTP099	ltpFR	12	9	0	SIRLOIN	1311	n/a	0	n/a	0	0	0	n/a	n/a	n/a	n/a	n/a
2008084	REC_WORD	wordpools/wasnorm_wordpool.txt	LTP099	ltpFR	12	9	0	LAUNDRY	803	n/a	0	n/a	0	0	0	n/a	n/a	n/a	n/a	n/a
2028349	REC_WORD	wordpools/wasnorm_wordpool.txt	LTP099	ltpFR	12	9	0	PENNY	1045	n/a	0	n/a	0	0	0	n/a	n/a	n/a	n/a	n/a
2032060	REC_WORD	wordpools/wasnorm_wordpool.txt	LTP099	ltpFR	12	9	0	QUARTER	1148	n/a	0	n/a	0	0	0	n/a	n/a	n/a	n/a	n/a
2072764	WORD	wordpools/wasnorm_wordpool.txt	LTP099	ltpFR	12	10	1	FUDGE	611	n/a	1	n/a	0	0	0	0	0.5869140625	0.422607421875	upper	../fonts/zerothre.ttf
2076688	WORD	wordpools/wasnorm_wordpool.txt	LTP099	ltpFR	12	10	1	BUG	187	n/a	0	n/a	0	0	0	0	0.5869140625	0.422607421875	upper	../fonts/zerothre.ttf
2080538	WORD	wordpools/wasnorm_wordpool.txt	LTP099	ltpFR	12	10	1	SLEEVE	1324	n/a	0	n/a	0	0	0	0	0.5869140625	0.422607421875	upper	../fonts/zerothre.ttf
2084521	WORD	wordpools/wasnorm_wordpool.txt	LTP099	ltpFR	12	10	1	BODY	145	n/a	1	n/a	0	0	0	0	0.5869140625	0.422607421875	upper	../fonts/zerothre.ttf
2088663	WORD	wordpools/wasnorm_wordpool.txt	LTP099	ltpFR	12	10	1	ANTEATER	26	n/a	1	n/a	0	0	0	0	0.5869140625	0.422607421875	upper	../fonts/zerothre.ttf
2092803	WORD	wordpools/wasnorm_wordpool.txt	LTP099	ltpFR	12	10	1	PAGE	1001	n/a	0	n/a	0	0	0	0	0.5869140625	0.422607421875	upper	../fonts/zerothre.ttf
2096687	WORD	wordpools/wasnorm_wordpool.txt	LTP099	ltpFR	12	10	1	ALMANAC	17	n/a	0	n/a	0	0	0	0	0.5869140625	0.422607421875	upper	../fonts/zerothre.ttf
2100528	WORD	wordpools/wasnorm_wordpool.txt	LTP099	ltpFR	12	10	1	SWAMP	1416	n/a	1	n/a	0	0	0	0	0.5869140625	0.422607421875	upper	../fonts/zerothre.ttf
2104545	WORD	wordpools/wasnorm_wordpool.txt	LTP099	ltpFR	12	10	1	DOCUMENT	479	n/a	0	n/a	0	0	0	0	0.5869140625	0.422607421875	upper	../fonts/zerothre.ttf
2108411	WORD	wordpools/wasnorm_wordpool.txt	LTP099	ltpFR	12	10	1	TROUT	1511	n/a	0	n/a	0	0	0	0	0.5869140625	0.422607421875	upper	../fonts/zerothre.ttf
2112611	WORD	wordpools/wasnorm_wordpool.txt	LTP099	ltpFR	12	10	1	NOSE	957	n/a	1	n/a	0	0	0	0	0.5869140625	0.422607421875	upper	../fonts/zerothre.ttf
2116444	WORD	wordpools/wasnorm_wordpool.txt	LTP099	ltpFR	12	10	1	LIPSTICK	829	n/a	0	n/a	0	0	0	0	0.5869140625	0.422607421875	upper	../fonts/zerothre.ttf
2120543	WORD	wordpools/wasnorm_wordpool.txt	LTP099	ltpFR	12	10	1	COD	340	n/a	1	n/a	0	0	0	0	0.5869140625	0.422607421875	upper	../fonts/zerothre.ttf
2124452	WORD	wordpools/wasnorm_wordpool.txt	LTP099	ltpFR	12	10	1	GRASS	655	n/a	0	n/a	0	0	0	0	0.5869140625	0.422607421875	upper	../fonts/zerothre.ttf
2128376	WORD	wordpools/wasnorm_wordpool.txt	LTP099	ltpFR	12	10	1	TWEEZERS	1526	n/a	0	n/a	0	0	0	0	0.5869140625	0.422607421875	upper	../fonts/zerothre.ttf
2132576	WORD	wordpools/wasnorm_wordpool.txt	LTP099	ltpFR	12	10	1	COMB	351	n/a	0	n/a	0	0	0	0	0.5869140625	0.422607421875	upper	../fonts/zerothre.ttf
2135584	START	n/a	LTP099	ltpFR	12	n/a	n/a	n/a	n/a	n/a	n/a	n/a	n/a	n/a	n/a	n/a	n/a	n/a	n/a	n/a
2136401	PROB	n/a	LTP099	ltpFR	12	n/a	n/a	n/a	n/a	n/a	n/a	15	5	1	9	n/a	n/a	n/a	n/a	n/a
2137849	PROB	n/a	LTP099	ltpFR	12	n/a	n/a	n/a	n/a	n/a	n/a	18	1	8	9	n/a	n/a	n/a	n/a	n/a
2139134	PROB	n/a	LTP099	ltpFR	12	n/a	n/a	n/a	n/a	n/a	n/a	19	6	5	8	n/a	n/a	n/a	n/a	n/a
2140467	PROB	n/a	LTP099	ltpFR	12	n/a	n/a	n/a	n/a	n/a	n/a	13	1	4	8	n/a	n/a	n/a	n/a	n/a
2142525	PROB	n/a	LTP099	ltpFR	12	n/a	n/a	n/a	n/a	n/a	n/a	19	4	9	6	n/a	n/a	n/a	n/a	n/a
2143957	PROB	n/a	LTP099	ltpFR	12	n/a	n/a	n/a	n/a	n/a	n/a	26	9	9	8	n/a	n/a	n/a	n/a	n/a
2146258	PROB	n/a	LTP099	ltpFR	12	n/a	n/a	n/a	n/a	n/a	n/a	15	1	9	5	n/a	n/a	n/a	n/a	n/a
2147591	PROB	n/a	LTP099	ltpFR	12	n/a	n/a	n/a	n/a	n/a	n/a	23	7	9	7	n/a	n/a	n/a	n/a	n/a
2151584	STOP	n/a	LTP099	ltpFR	12	n/a	n/a	n/a	n/a	n/a	n/a	n/a	n/a	n/a	n/a	n/a	n/a	n/a	n/a	n/a
2153375	REC_START	n/a	LTP099	ltpFR	12	10	n/a	n/a	n/a	n/a	n/a	n/a	0	0	0	n/a	n/a	n/a	n/a	n/a
2154078	REC_WORD	wordpools/wasnorm_wordpool.txt	LTP099	ltpFR	12	10	1	TROUT	1511	n/a	0	n/a	0	0	0	n/a	n/a	n/a	n/a	n/a
2154807	REC_WORD	wordpools/wasnorm_wordpool.txt	LTP099	ltpFR	12	10	1	SWAMP	1416	n/a	1	n/a	0	0	0	n/a	n/a	n/a	n/a	n/a
2156438	REC_WORD	wordpools/wasnorm_wordpool.txt	LTP099	ltpFR	12	10	1	COD	340	n/a	1	n/a	0	0	0	n/a	n/a	n/a	n/a	n/a
2167473	REC_WORD	wordpools/wasnorm_wordpool.txt	LTP099	ltpFR	12	10	1	GRASS	655	n/a	0	n/a	0	0	0	n/a	n/a	n/a	n/a	n/a
2173953	REC_WORD	wordpools/wasnorm_wordpool.txt	LTP099	ltpFR	12	10	1	PADDLE	1000	n/a	1	n/a	0	0	0	n/a	n/a	n/a	n/a	n/a
2228977	REST_REWET	n/a	LTP099	ltpFR	12	10	n/a	n/a	n/a	n/a	n/a	n/a	0	0	0	n/a	n/a	n/a	n/a	n/a
2664335	START	n/a	LTP099	ltpFR	12	n/a	n/a	n/a	n/a	n/a	n/a	n/a	n/a	n/a	n/a	n/a	n/a	n/a	n/a	n/a
2665842	PROB	n/a	LTP099	ltpFR	12	n/a	n/a	n/a	n/a	n/a	n/a	16	3	5	8	n/a	n/a	n/a	n/a	n/a
2667143	PROB	n/a	LTP099	ltpFR	12	n/a	n/a	n/a	n/a	n/a	n/a	18	5	4	9	n/a	n/a	n/a	n/a	n/a
2668401	PROB	n/a	LTP099	ltpFR	12	n/a	n/a	n/a	n/a	n/a	n/a	19	8	4	7	n/a	n/a	n/a	n/a	n/a
2669925	PROB	n/a	LTP099	ltpFR	12	n/a	n/a	n/a	n/a	n/a	n/a	19	1	9	9	n/a	n/a	n/a	n/a	n/a
2671793	PROB	n/a	LTP099	ltpFR	12	n/a	n/a	n/a	n/a	n/a	n/a	11	5	3	3	n/a	n/a	n/a	n/a	n/a
2673109	PROB	n/a	LTP099	ltpFR	12	n/a	n/a	n/a	n/a	n/a	n/a	13	6	6	1	n/a	n/a	n/a	n/a	n/a
2674692	PROB	n/a	LTP099	ltpFR	12	n/a	n/a	n/a	n/a	n/a	n/a	10	1	4	5	n/a	n/a	n/a	n/a	n/a
2675784	PROB	n/a	LTP099	ltpFR	12	n/a	n/a	n/a	n/a	n/a	n/a	10	1	6	3	n/a	n/a	n/a	n/a	n/a
2676966	PROB	n/a	LTP099	ltpFR	12	n/a	n/a	n/a	n/a	n/a	n/a	15	5	1	9	n/a	n/a	n/a	n/a	n/a
2678350	PROB	n/a	LTP099	ltpFR	12	n/a	n/a	n/a	n/a	n/a	n/a	13	1	8	4	n/a	n/a	n/a	n/a	n/a
2679705	STOP	n/a	LTP099	ltpFR	12	n/a	n/a	n/a	n/a	n/a	n/a	n/a	n/a	n/a	n/a	n/a	n/a	n/a	n/a	n/a
2681425	WORD	wordpools/wasnorm_wordpool.txt	LTP099	ltpFR	12	11	1	SILK	1307	n/a	0	n/a	0	0	0	0	0.5869140625	0.422607421875	upper	../fonts/zerothre.ttf
2684434	START	n/a	LTP099	ltpFR	12	n/a	n/a	n/a	n/a	n/a	n/a	n/a	n/a	n/a	n/a	n/a	n/a	n/a	n/a	n/a
2685300	PROB	n/a	LTP099	ltpFR	12	n/a	n/a	n/a	n/a	n/a	n/a	14	5	2	7	n/a	n/a	n/a	n/a	n/a
2687907	PROB	n/a	LTP099	ltpFR	12	n/a	n/a	n/a	n/a	n/a	n/a	21	3	9	9	n/a	n/a	n/a	n/a	n/a
2689608	PROB	n/a	LTP099	ltpFR	12	n/a	n/a	n/a	n/a	n/a	n/a	21	8	9	4	n/a	n/a	n/a	n/a	n/a
2692583	PROB	n/a	LTP099	ltpFR	12	n/a	n/a	n/a	n/a	n/a	n/a	12	3	2	7	n/a	n/a	n/a	n/a	n/a
2694566	PROB	n/a	LTP099	ltpFR	12	n/a	n/a	n/a	n/a	n/a	n/a	18	9	4	5	n/a	n/a	n/a	n/a	n/a
2695691	PROB	n/a	LTP099	ltpFR	12	n/a	n/a	n/a	n/a	n/a	n/a	1	3	7	3	n/a	n/a	n/a	n/a	n/a
2696999	PROB	n/a	LTP099	ltpFR	12	n/a	n/a	n/a	n/a	n/a	n/a	22	8	9	5	n/a	n/a	n/a	n/a	n/a
2699481	STOP	n/a	LTP099	ltpFR	12	n/a	n/a	n/a	n/a	n/a	n/a	n/a	n/a	n/a	n/a	n/a	n/a	n/a	n/a	n/a
2701482	WORD	wordpools/wasnorm_wordpool.txt	LTP099	ltpFR	12	11	1	LIVER	833	n/a	0	n/a	0	0	0	0	0.5869140625	0.422607421875	upper	../fonts/zerothre.ttf
2704491	START	n/a	LTP099	ltpFR	12	n/a	n/a	n/a	n/a	n/a	n/a	n/a	n/a	n/a	n/a	n/a	n/a	n/a	n/a	n/a
2705432	PROB	n/a	LTP099	ltpFR	12	n/a	n/a	n/a	n/a	n/a	n/a	18	9	5	4	n/a	n/a	n/a	n/a	n/a
2706648	PROB	n/a	LTP099	ltpFR	12	n/a	n/a	n/a	n/a	n/a	n/a	15	5	8	2	n/a	n/a	n/a	n/a	n/a
2707757	PROB	n/a	LTP099	ltpFR	12	n/a	n/a	n/a	n/a	n/a	n/a	18	6	5	7	n/a	n/a	n/a	n/a	n/a
2709231	PROB	n/a	LTP099	ltpFR	12	n/a	n/a	n/a	n/a	n/a	n/a	17	3	8	6	n/a	n/a	n/a	n/a	n/a
2711523	PROB	n/a	LTP099	ltpFR	12	n/a	n/a	n/a	n/a	n/a	n/a	16	5	6	5	n/a	n/a	n/a	n/a	n/a
2712830	PROB	n/a	LTP099	ltpFR	12	n/a	n/a	n/a	n/a	n/a	n/a	9	4	4	1	n/a	n/a	n/a	n/a	n/a
2714031	PROB	n/a	LTP099	ltpFR	12	n/a	n/a	n/a	n/a	n/a	n/a	15	1	8	5	n/a	n/a	n/a	n/a	n/a
2716098	PROB	n/a	LTP099	ltpFR	12	n/a	n/a	n/a	n/a	n/a	n/a	9	3	3	3	n/a	n/a	n/a	n/a	n/a
2717963	PROB	n/a	LTP099	ltpFR	12	n/a	n/a	n/a	n/a	n/a	n/a	14	4	4	6	n/a	n/a	n/a	n/a	n/a
2719265	STOP	n/a	LTP099	ltpFR	12	n/a	n/a	n/a	n/a	n/a	n/a	n/a	n/a	n/a	n/a	n/a	n/a	n/a	n/a	n/a
2721355	WORD	wordpools/wasnorm_wordpool.txt	LTP099	ltpFR	12	11	1	GROCERIES	663	n/a	0	n/a	0	0	0	0	0.5869140625	0.422607421875	upper	../fonts/zerothre.ttf
2724364	START	n/a	LTP099	ltpFR	12	n/a	n/a	n/a	n/a	n/a	n/a	n/a	n/a	n/a	n/a	n/a	n/a	n/a	n/a	n/a
2725430	PROB	n/a	LTP099	ltpFR	12	n/a	n/a	n/a	n/a	n/a	n/a	15	2	5	8	n/a	n/a	n/a	n/a	n/a
2726829	PROB	n/a	LTP099	ltpFR	12	n/a	n/a	n/a	n/a	n/a	n/a	13	3	8	2	n/a	n/a	n/a	n/a	n/a
2728613	PROB	n/a	LTP099	ltpFR	12	n/a	n/a	n/a	n/a	n/a	n/a	13	4	8	1	n/a	n/a	n/a	n/a	n/a
2730238	PROB	n/a	LTP099	ltpFR	12	n/a	n/a	n/a	n/a	n/a	n/a	14	8	4	2	n/a	n/a	n/a	n/a	n/a
2731862	PROB	n/a	LTP099	ltpFR	12	n/a	n/a	n/a	n/a	n/a	n/a	10	2	3	5	n/a	n/a	n/a	n/a	n/a
2733480	PROB	n/a	LTP099	ltpFR	12	n/a	n/a	n/a	n/a	n/a	n/a	12	3	6	3	n/a	n/a	n/a	n/a	n/a
2735571	PROB	n/a	LTP099	ltpFR	12	n/a	n/a	n/a	n/a	n/a	n/a	21	8	7	6	n/a	n/a	n/a	n/a	n/a
2737188	PROB	n/a	LTP099	ltpFR	12	n/a	n/a	n/a	n/a	n/a	n/a	11	2	2	7	n/a	n/a	n/a	n/a	n/a
2740364	STOP	n/a	LTP099	ltpFR	12	n/a	n/a	n/a	n/a	n/a	n/a	n/a	n/a	n/a	n/a	n/a	n/a	n/a	n/a	n/a
2741479	WORD	wordpools/wasnorm_wordpool.txt	LTP099	ltpFR	12	11	1	SECRETARY	1265	n/a	1	n/a	0	0	0	0	0.5869140625	0.422607421875	upper	../fonts/zerothre.ttf
2744487	START	n/a	LTP099	ltpFR	12	n/a	n/a	n/a	n/a	n/a	n/a	n/a	n/a	n/a	n/a	n/a	n/a	n/a	n/a	n/a
2745595	PROB	n/a	LTP099	ltpFR	12	n/a	n/a	n/a	n/a	n/a	n/a	22	7	9	6	n/a	n/a	n/a	n/a	n/a
2747844	PROB	n/a	LTP099	ltpFR	12	n/a	n/a	n/a	n/a	n/a	n/a	16	4	9	3	n/a	n/a	n/a	n/a	n/a
2749678	PROB	n/a	LTP099	ltpFR	12	n/a	n/a	n/a	n/a	n/a	n/a	8	1	4	2	n/a	n/a	n/a	n/a	n/a
2751120	PROB	n/a	LTP099	ltpFR	12	n/a	n/a	n/a	n/a	n/a	n/a	14	6	6	2	n/a	n/a	n/a	n/a	n/a
2753720	PROB	n/a	LTP099	ltpFR	12	n/a	n/a	n/a	n/a	n/a	n/a	14	5	2	7	n/a	n/a	n/a	n/a	n/a
2755877	PROB	n/a	LTP099	ltpFR	12	n/a	n/a	n/a	n/a	n/a	n/a	7	5	1	1	n/a	n/a	n/a	n/a	n/a
2757578	PROB	n/a	LTP099	ltpFR	12	n/a	n/a	n/a	n/a	n/a	n/a	20	8	7	5	n/a	n/a	n/a	n/a	n/a
2758978	PROB	n/a	LTP099	ltpFR	12	n/a	n/a	n/a	n/a	n/a	n/a	15	7	1	7	n/a	n/a	n/a	n/a	n/a
2760241	STOP	n/a	LTP099	ltpFR	12	n/a	n/a	n/a	n/a	n/a	n/a	n/a	n/a	n/a	n/a	n/a	n/a	n/a	n/a	n/a
2761394	WORD	wordpools/wasnorm_wordpool.txt	LTP099	ltpFR	12	11	0	ROCK	1201	n/a	0	n/a	0	0	0	1	0.412841796875	0.57763671875	lower	../fonts/amplitud.ttf
2764403	START	n/a	LTP099	ltpFR	12	n/a	n/a	n/a	n/a	n/a	n/a	n/a	n/a	n/a	n/a	n/a	n/a	n/a	n/a	n/a
2765544	PROB	n/a	LTP099	ltpFR	12	n/a	n/a	n/a	n/a	n/a	n/a	20	8	7	5	n/a	n/a	n/a	n/a	n/a
2766834	PROB	n/a	LTP099	ltpFR	12	n/a	n/a	n/a	n/a	n/a	n/a	21	8	9	4	n/a	n/a	n/a	n/a	n/a
2769402	PROB	n/a	LTP099	ltpFR	12	n/a	n/a	n/a	n/a	n/a	n/a	16	2	9	6	n/a	n/a	n/a	n/a	n/a
2771951	PROB	n/a	LTP099	ltpFR	12	n/a	n/a	n/a	n/a	n/a	n/a	9	1	1	7	n/a	n/a	n/a	n/a	n/a
2773410	PROB	n/a	LTP099	ltpFR	12	n/a	n/a	n/a	n/a	n/a	n/a	17	7	8	2	n/a	n/a	n/a	n/a	n/a
2774884	PROB	n/a	LTP099	ltpFR	12	n/a	n/a	n/a	n/a	n/a	n/a	16	4	6	5	n/a	n/a	n/a	n/a	n/a
2776651	PROB	n/a	LTP099	ltpFR	12	n/a	n/a	n/a	n/a	n/a	n/a	16	7	4	4	n/a	n/a	n/a	n/a	n/a
2780403	STOP	n/a	LTP099	ltpFR	12	n/a	n/a	n/a	n/a	n/a	n/a	n/a	n/a	n/a	n/a	n/a	n/a	n/a	n/a	n/a
2781434	WORD	wordpools/wasnorm_wordpool.txt	LTP099	ltpFR	12	11	0	LUNCH	849	n/a	0	n/a	0	0	0	1	0.412841796875	0.57763671875	lower	../fonts/amplitud.ttf
2784443	START	n/a	LTP099	ltpFR	12	n/a	n/a	n/a	n/a	n/a	n/a	n/a	n/a	n/a	n/a	n/a	n/a	n/a	n/a	n/a
2785251	PROB	n/a	LTP099	ltpFR	12	n/a	n/a	n/a	n/a	n/a	n/a	12	1	9	2	n/a	n/a	n/a	n/a	n/a
2786475	PROB	n/a	LTP099	ltpFR	12	n/a	n/a	n/a	n/a	n/a	n/a	16	8	2	6	n/a	n/a	n/a	n/a	n/a
2787600	PROB	n/a	LTP099	ltpFR	12	n/a	n/a	n/a	n/a	n/a	n/a	17	6	8	3	n/a	n/a	n/a	n/a	n/a
2789234	PROB	n/a	LTP099	ltpFR	12	n/a	n/a	n/a	n/a	n/a	n/a	9	3	2	4	n/a	n/a	n/a	n/a	n/a
2791100	PROB	n/a	LTP099	ltpFR	12	n/a	n/a	n/a	n/a	n/a	n/a	15	5	8	2	n/a	n/a	n/a	n/a	n/a
2792175	PROB	n/a	LTP099	ltpFR	12	n/a	n/a	n/a	n/a	n/a	n/a	11	2	2	7	n/a	n/a	n/a	n/a	n/a
2793350	PROB	n/a	LTP099	ltpFR	12	n/a	n/a	n/a	n/a	n/a	n/a	7	1	3	3	n/a	n/a	n/a	n/a	n/a
2794633	PROB	n/a	LTP099	ltpFR	12	n/a	n/a	n/a	n/a	n/a	n/a	18	8	7	3	n/a	n/a	n/a	n/a	n/a
2796116	PROB	n/a	LTP099	ltpFR	12	n/a	n/a	n/a	n/a	n/a	n/a	18	5	7	6	n/a	n/a	n/a	n/a	n/a
2797775	PROB	n/a	LTP099	ltpFR	12	n/a	n/a	n/a	n/a	n/a	n/a	187	8	7	1	n/a	n/a	n/a	n/a	n/a
2799521	STOP	n/a	LTP099	ltpFR	12	n/a	n/a	n/a	n/a	n/a	n/a	n/a	n/a	n/a	n/a	n/a	n/a	n/a	n/a	n/a
2801374	WORD	wordpools/wasnorm_wordpool.txt	LTP099	ltpFR	12	11	0	KITCHEN	778	n/a	1	n/a	0	0	0	1	0.412841796875	0.57763671875	lower	../fonts/amplitud.ttf
2804374	START	n/a	LTP099	ltpFR	12	n/a	n/a	n/a	n/a	n/a	n/a	n/a	n/a	n/a	n/a	n/a	n/a	n/a	n/a	n/a
2805541	PROB	n/a	LTP099	ltpFR	12	n/a	n/a	n/a	n/a	n/a	n/a	13	9	1	3	n/a	n/a	n/a	n/a	n/a
2806657	PROB	n/a	LTP099	ltpFR	12	n/a	n/a	n/a	n/a	n/a	n/a	11	9	1	1	n/a	n/a	n/a	n/a	n/a
2807790	PROB	n/a	LTP099	ltpFR	12	n/a	n/a	n/a	n/a	n/a	n/a	15	5	6	3	n/a	n/a	n/a	n/a	n/a
2809632	PROB	n/a	LTP099	ltpFR	12	n/a	n/a	n/a	n/a	n/a	n/a	15	3	5	7	n/a	n/a	n/a	n/a	n/a
2810906	PROB	n/a	LTP099	ltpFR	12	n/a	n/a	n/a	n/a	n/a	n/a	15	5	5	5	n/a	n/a	n/a	n/a	n/a
2812607	PROB	n/a	LTP099	ltpFR	12	n/a	n/a	n/a	n/a	n/a	n/a	22	9	8	5	n/a	n/a	n/a	n/a	n/a
2814782	PROB	n/a	LTP099	ltpFR	12	n/a	n/a	n/a	n/a	n/a	n/a	19	4	6	9	n/a	n/a	n/a	n/a	n/a
2816773	PROB	n/a	LTP099	ltpFR	12	n/a	n/a	n/a	n/a	n/a	n/a	21	4	9	8	n/a	n/a	n/a	n/a	n/a
2819113	STOP	n/a	LTP099	ltpFR	12	n/a	n/a	n/a	n/a	n/a	n/a	n/a	n/a	n/a	n/a	n/a	n/a	n/a	n/a	n/a
2821523	WORD	wordpools/wasnorm_wordpool.txt	LTP099	ltpFR	12	11	0	EMPLOYER	532	n/a	1	n/a	0	0	0	1	0.412841796875	0.57763671875	lower	../fonts/amplitud.ttf
2824531	START	n/a	LTP099	ltpFR	12	n/a	n/a	n/a	n/a	n/a	n/a	n/a	n/a	n/a	n/a	n/a	n/a	n/a	n/a	n/a
2825656	PROB	n/a	LTP099	ltpFR	12	n/a	n/a	n/a	n/a	n/a	n/a	10	3	6	1	n/a	n/a	n/a	n/a	n/a
2826880	PROB	n/a	LTP099	ltpFR	12	n/a	n/a	n/a	n/a	n/a	n/a	17	4	6	7	n/a	n/a	n/a	n/a	n/a
2828314	PROB	n/a	LTP099	ltpFR	12	n/a	n/a	n/a	n/a	n/a	n/a	14	6	5	3	n/a	n/a	n/a	n/a	n/a
2829730	PROB	n/a	LTP099	ltpFR	12	n/a	n/a	n/a	n/a	n/a	n/a	17	5	6	6	n/a	n/a	n/a	n/a	n/a
2831647	PROB	n/a	LTP099	ltpFR	12	n/a	n/a	n/a	n/a	n/a	n/a	18	8	8	2	n/a	n/a	n/a	n/a	n/a
2832946	PROB	n/a	LTP099	ltpFR	12	n/a	n/a	n/a	n/a	n/a	n/a	14	1	4	8	n/a	n/a	n/a	n/a	n/a
2834180	PROB	n/a	LTP099	ltpFR	12	n/a	n/a	n/a	n/a	n/a	n/a	9	4	3	2	n/a	n/a	n/a	n/a	n/a
2836887	PROB	n/a	LTP099	ltpFR	12	n/a	n/a	n/a	n/a	n/a	n/a	10	6	3	1	n/a	n/a	n/a	n/a	n/a
2837980	PROB	n/a	LTP099	ltpFR	12	n/a	n/a	n/a	n/a	n/a	n/a	11	1	8	2	n/a	n/a	n/a	n/a	n/a
2839185	STOP	n/a	LTP099	ltpFR	12	n/a	n/a	n/a	n/a	n/a	n/a	n/a	n/a	n/a	n/a	n/a	n/a	n/a	n/a	n/a
2841621	WORD	wordpools/wasnorm_wordpool.txt	LTP099	ltpFR	12	11	1	ROBIN	1199	n/a	1	n/a	0	0	0	0	0.5869140625	0.422607421875	upper	../fonts/zerothre.ttf
2844630	START	n/a	LTP099	ltpFR	12	n/a	n/a	n/a	n/a	n/a	n/a	n/a	n/a	n/a	n/a	n/a	n/a	n/a	n/a	n/a
2845763	PROB	n/a	LTP099	ltpFR	12	n/a	n/a	n/a	n/a	n/a	n/a	14	7	2	5	n/a	n/a	n/a	n/a	n/a
2847779	PROB	n/a	LTP099	ltpFR	12	n/a	n/a	n/a	n/a	n/a	n/a	16	5	6	5	n/a	n/a	n/a	n/a	n/a
2849137	PROB	n/a	LTP099	ltpFR	12	n/a	n/a	n/a	n/a	n/a	n/a	14	7	6	1	n/a	n/a	n/a	n/a	n/a
2851195	PROB	n/a	LTP099	ltpFR	12	n/a	n/a	n/a	n/a	n/a	n/a	7	1	3	3	n/a	n/a	n/a	n/a	n/a
2852362	PROB	n/a	LTP099	ltpFR	12	n/a	n/a	n/a	n/a	n/a	n/a	11	8	2	1	n/a	n/a	n/a	n/a	n/a
2853420	PROB	n/a	LTP099	ltpFR	12	n/a	n/a	n/a	n/a	n/a	n/a	21	9	6	6	n/a	n/a	n/a	n/a	n/a
2854911	PROB	n/a	LTP099	ltpFR	12	n/a	n/a	n/a	n/a	n/a	n/a	10	4	3	3	n/a	n/a	n/a	n/a	n/a
2856462	PROB	n/a	LTP099	ltpFR	12	n/a	n/a	n/a	n/a	n/a	n/a	17	5	3	9	n/a	n/a	n/a	n/a	n/a
2857852	PROB	n/a	LTP099	ltpFR	12	n/a	n/a	n/a	n/a	n/a	n/a	14	6	5	4	n/a	n/a	n/a	n/a	n/a
2859337	STOP	n/a	LTP099	ltpFR	12	n/a	n/a	n/a	n/a	n/a	n/a	n/a	n/a	n/a	n/a	n/a	n/a	n/a	n/a	n/a
2861686	WORD	wordpools/wasnorm_wordpool.txt	LTP099	ltpFR	12	11	1	PIGEON	1065	n/a	1	n/a	0	0	0	0	0.5869140625	0.422607421875	upper	../fonts/zerothre.ttf
2864695	START	n/a	LTP099	ltpFR	12	n/a	n/a	n/a	n/a	n/a	n/a	n/a	n/a	n/a	n/a	n/a	n/a	n/a	n/a	n/a
2865569	PROB	n/a	LTP099	ltpFR	12	n/a	n/a	n/a	n/a	n/a	n/a	14	9	3	5	n/a	n/a	n/a	n/a	n/a
2867527	PROB	n/a	LTP099	ltpFR	12	n/a	n/a	n/a	n/a	n/a	n/a	15	7	7	1	n/a	n/a	n/a	n/a	n/a
2869236	PROB	n/a	LTP099	ltpFR	12	n/a	n/a	n/a	n/a	n/a	n/a	14	4	3	7	n/a	n/a	n/a	n/a	n/a
2870477	PROB	n/a	LTP099	ltpFR	12	n/a	n/a	n/a	n/a	n/a	n/a	221	5	8	8	n/a	n/a	n/a	n/a	n/a
2873227	PROB	n/a	LTP099	ltpFR	12	n/a	n/a	n/a	n/a	n/a	n/a	15	5	6	4	n/a	n/a	n/a	n/a	n/a
2876127	PROB	n/a	LTP099	ltpFR	12	n/a	n/a	n/a	n/a	n/a	n/a	14	3	3	8	n/a	n/a	n/a	n/a	n/a
2877385	PROB	n/a	LTP099	ltpFR	12	n/a	n/a	n/a	n/a	n/a	n/a	17	1	8	8	n/a	n/a	n/a	n/a	n/a
2878892	PROB	n/a	LTP099	ltpFR	12	n/a	n/a	n/a	n/a	n/a	n/a	21	5	7	7	n/a	n/a	n/a	n/a	n/a
2880265	STOP	n/a	LTP099	ltpFR	12	n/a	n/a	n/a	n/a	n/a	n/a	n/a	n/a	n/a	n/a	n/a	n/a	n/a	n/a	n/a
2881801	WORD	wordpools/wasnorm_wordpool.txt	LTP099	ltpFR	12	11	0	COOK	372	n/a	0	n/a	0	0	0	1	0.412841796875	0.57763671875	lower	../fonts/amplitud.ttf
2884809	START	n/a	LTP099	ltpFR	12	n/a	n/a	n/a	n/a	n/a	n/a	n/a	n/a	n/a	n/a	n/a	n/a	n/a	n/a	n/a
2885651	PROB	n/a	LTP099	ltpFR	12	n/a	n/a	n/a	n/a	n/a	n/a	17	4	5	8	n/a	n/a	n/a	n/a	n/a
2887034	PROB	n/a	LTP099	ltpFR	12	n/a	n/a	n/a	n/a	n/a	n/a	17	5	8	4	n/a	n/a	n/a	n/a	n/a
2888734	PROB	n/a	LTP099	ltpFR	12	n/a	n/a	n/a	n/a	n/a	n/a	20	8	3	9	n/a	n/a	n/a	n/a	n/a
2890392	PROB	n/a	LTP099	ltpFR	12	n/a	n/a	n/a	n/a	n/a	n/a	21	7	4	5	n/a	n/a	n/a	n/a	n/a
2892359	PROB	n/a	LTP099	ltpFR	12	n/a	n/a	n/a	n/a	n/a	n/a	18	2	7	9	n/a	n/a	n/a	n/a	n/a
2893634	PROB	n/a	LTP099	ltpFR	12	n/a	n/a	n/a	n/a	n/a	n/a	12	2	5	5	n/a	n/a	n/a	n/a	n/a
2894667	PROB	n/a	LTP099	ltpFR	12	n/a	n/a	n/a	n/a	n/a	n/a	1	9	3	1	n/a	n/a	n/a	n/a	n/a
2895966	PROB	n/a	LTP099	ltpFR	12	n/a	n/a	n/a	n/a	n/a	n/a	17	8	6	3	n/a	n/a	n/a	n/a	n/a
2897966	PROB	n/a	LTP099	ltpFR	12	n/a	n/a	n/a	n/a	n/a	n/a	6	4	2	2	n/a	n/a	n/a	n/a	n/a
2899100	PROB	n/a	LTP099	ltpFR	12	n/a	n/a	n/a	n/a	n/a	n/a	9	3	2	4	n/a	n/a	n/a	n/a	n/a
2900617	STOP	n/a	LTP099	ltpFR	12	n/a	n/a	n/a	n/a	n/a	n/a	n/a	n/a	n/a	n/a	n/a	n/a	n/a	n/a	n/a
2902008	WORD	wordpools/wasnorm_wordpool.txt	LTP099	ltpFR	12	11	0	BUTCHER	203	n/a	1	n/a	0	0	0	1	0.412841796875	0.57763671875	lower	../fonts/amplitud.ttf
2905017	START	n/a	LTP099	ltpFR	12	n/a	n/a	n/a	n/a	n/a	n/a	n/a	n/a	n/a	n/a	n/a	n/a	n/a	n/a	n/a
2906175	PROB	n/a	LTP099	ltpFR	12	n/a	n/a	n/a	n/a	n/a	n/a	10	4	3	3	n/a	n/a	n/a	n/a	n/a
2907349	PROB	n/a	LTP099	ltpFR	12	n/a	n/a	n/a	n/a	n/a	n/a	12	3	2	7	n/a	n/a	n/a	n/a	n/a
2909016	PROB	n/a	LTP099	ltpFR	12	n/a	n/a	n/a	n/a	n/a	n/a	14	1	6	7	n/a	n/a	n/a	n/a	n/a
2910666	PROB	n/a	LTP099	ltpFR	12	n/a	n/a	n/a	n/a	n/a	n/a	20	9	4	7	n/a	n/a	n/a	n/a	n/a
2912182	PROB	n/a	LTP099	ltpFR	12	n/a	n/a	n/a	n/a	n/a	n/a	9	2	5	2	n/a	n/a	n/a	n/a	n/a
2913749	PROB	n/a	LTP099	ltpFR	12	n/a	n/a	n/a	n/a	n/a	n/a	9	2	1	6	n/a	n/a	n/a	n/a	n/a
2915074	PROB	n/a	LTP099	ltpFR	12	n/a	n/a	n/a	n/a	n/a	n/a	20	9	2	9	n/a	n/a	n/a	n/a	n/a
2916707	PROB	n/a	LTP099	ltpFR	12	n/a	n/a	n/a	n/a	n/a	n/a	22	8	9	5	n/a	n/a	n/a	n/a	n/a
2918674	PROB	n/a	LTP099	ltpFR	12	n/a	n/a	n/a	n/a	n/a	n/a	13	3	7	3	n/a	n/a	n/a	n/a	n/a
2919952	STOP	n/a	LTP099	ltpFR	12	n/a	n/a	n/a	n/a	n/a	n/a	n/a	n/a	n/a	n/a	n/a	n/a	n/a	n/a	n/a
2921939	WORD	wordpools/wasnorm_wordpool.txt	LTP099	ltpFR	12	11	0	HIGHWAY	707	n/a	1	n/a	0	0	0	1	0.412841796875	0.57763671875	lower	../fonts/amplitud.ttf
2924948	START	n/a	LTP099	ltpFR	12	n/a	n/a	n/a	n/a	n/a	n/a	n/a	n/a	n/a	n/a	n/a	n/a	n/a	n/a	n/a
2926048	PROB	n/a	LTP099	ltpFR	12	n/a	n/a	n/a	n/a	n/a	n/a	7	3	2	2	n/a	n/a	n/a	n/a	n/a
2928273	PROB	n/a	LTP099	ltpFR	12	n/a	n/a	n/a	n/a	n/a	n/a	8	1	2	5	n/a	n/a	n/a	n/a	n/a
2929414	PROB	n/a	LTP099	ltpFR	12	n/a	n/a	n/a	n/a	n/a	n/a	15	5	5	5	n/a	n/a	n/a	n/a	n/a
2931564	PROB	n/a	LTP099	ltpFR	12	n/a	n/a	n/a	n/a	n/a	n/a	15	2	5	8	n/a	n/a	n/a	n/a	n/a
2932781	PROB	n/a	LTP099	ltpFR	12	n/a	n/a	n/a	n/a	n/a	n/a	18	9	8	2	n/a	n/a	n/a	n/a	n/a
2934056	PROB	n/a	LTP099	ltpFR	12	n/a	n/a	n/a	n/a	n/a	n/a	16	6	4	6	n/a	n/a	n/a	n/a	n/a
2935871	PROB	n/a	LTP099	ltpFR	12	n/a	n/a	n/a	n/a	n/a	n/a	16	3	6	7	n/a	n/a	n/a	n/a	n/a
2937206	PROB	n/a	LTP099	ltpFR	12	n/a	n/a	n/a	n/a	n/a	n/a	14	1	5	8	n/a	n/a	n/a	n/a	n/a
2938530	PROB	n/a	LTP099	ltpFR	12	n/a	n/a	n/a	n/a	n/a	n/a	17	3	5	9	n/a	n/a	n/a	n/a	n/a
2939785	STOP	n/a	LTP099	ltpFR	12	n/a	n/a	n/a	n/a	n/a	n/a	n/a	n/a	n/a	n/a	n/a	n/a	n/a	n/a	n/a
2941896	WORD	wordpools/wasnorm_wordpool.txt	LTP099	ltpFR	12	11	0	DUSTPAN	509	n/a	0	n/a	0	0	0	1	0.412841796875	0.57763671875	lower	../fonts/amplitud.ttf
2944904	START	n/a	LTP099	ltpFR	12	n/a	n/a	n/a	n/a	n/a	n/a	n/a	n/a	n/a	n/a	n/a	n/a	n/a	n/a	n/a
2946046	PROB	n/a	LTP099	ltpFR	12	n/a	n/a	n/a	n/a	n/a	n/a	16	8	6	2	n/a	n/a	n/a	n/a	n/a
2947696	PROB	n/a	LTP099	ltpFR	12	n/a	n/a	n/a	n/a	n/a	n/a	12	5	5	2	n/a	n/a	n/a	n/a	n/a
2948845	PROB	n/a	LTP099	ltpFR	12	n/a	n/a	n/a	n/a	n/a	n/a	10	3	5	2	n/a	n/a	n/a	n/a	n/a
2950388	PROB	n/a	LTP099	ltpFR	12	n/a	n/a	n/a	n/a	n/a	n/a	8	2	1	5	n/a	n/a	n/a	n/a	n/a
2951563	PROB	n/a	LTP099	ltpFR	12	n/a	n/a	n/a	n/a	n/a	n/a	20	6	7	7	n/a	n/a	n/a	n/a	n/a
2952912	PROB	n/a	LTP099	ltpFR	12	n/a	n/a	n/a	n/a	n/a	n/a	11	2	4	5	n/a	n/a	n/a	n/a	n/a
2954371	PROB	n/a	LTP099	ltpFR	12	n/a	n/a	n/a	n/a	n/a	n/a	13	6	1	6	n/a	n/a	n/a	n/a	n/a
2955754	PROB	n/a	LTP099	ltpFR	12	n/a	n/a	n/a	n/a	n/a	n/a	25	8	8	9	n/a	n/a	n/a	n/a	n/a
2959287	PROB	n/a	LTP099	ltpFR	12	n/a	n/a	n/a	n/a	n/a	n/a	14	1	9	4	n/a	n/a	n/a	n/a	n/a
2960665	STOP	n/a	LTP099	ltpFR	12	n/a	n/a	n/a	n/a	n/a	n/a	n/a	n/a	n/a	n/a	n/a	n/a	n/a	n/a	n/a
2961979	WORD	wordpools/wasnorm_wordpool.txt	LTP099	ltpFR	12	11	1	JAPAN	749	n/a	0	n/a	0	0	0	0	0.5869140625	0.422607421875	upper	../fonts/zerothre.ttf
2964987	START	n/a	LTP099	ltpFR	12	n/a	n/a	n/a	n/a	n/a	n/a	n/a	n/a	n/a	n/a	n/a	n/a	n/a	n/a	n/a
2966053	PROB	n/a	LTP099	ltpFR	12	n/a	n/a	n/a	n/a	n/a	n/a	10	4	2	4	n/a	n/a	n/a	n/a	n/a
2967545	PROB	n/a	LTP099	ltpFR	12	n/a	n/a	n/a	n/a	n/a	n/a	12	3	6	3	n/a	n/a	n/a	n/a	n/a
2969328	PROB	n/a	LTP099	ltpFR	12	n/a	n/a	n/a	n/a	n/a	n/a	10	5	2	3	n/a	n/a	n/a	n/a	n/a
2970952	PROB	n/a	LTP099	ltpFR	12	n/a	n/a	n/a	n/a	n/a	n/a	12	3	5	4	n/a	n/a	n/a	n/a	n/a
2972835	PROB	n/a	LTP099	ltpFR	12	n/a	n/a	n/a	n/a	n/a	n/a	11	1	3	7	n/a	n/a	n/a	n/a	n/a
2974236	PROB	n/a	LTP099	ltpFR	12	n/a	n/a	n/a	n/a	n/a	n/a	19	3	8	8	n/a	n/a	n/a	n/a	n/a
2976028	PROB	n/a	LTP099	ltpFR	12	n/a	n/a	n/a	n/a	n/a	n/a	16	5	4	7	n/a	n/a	n/a	n/a	n/a
2977826	PROB	n/a	LTP099	ltpFR	12	n/a	n/a	n/a	n/a	n/a	n/a	16	2	6	8	n/a	n/a	n/a	n/a	n/a
2979864	STOP	n/a	LTP099	ltpFR	12	n/a	n/a	n/a	n/a	n/a	n/a	n/a	n/a	n/a	n/a	n/a	n/a	n/a	n/a	n/a
2982085	WORD	wordpools/wasnorm_wordpool.txt	LTP099	ltpFR	12	11	1	EUROPE	541	n/a	1	n/a	0	0	0	0	0.5869140625	0.422607421875	upper	../fonts/zerothre.ttf
2985085	START	n/a	LTP099	ltpFR	12	n/a	n/a	n/a	n/a	n/a	n/a	n/a	n/a	n/a	n/a	n/a	n/a	n/a	n/a	n/a
2985901	PROB	n/a	LTP099	ltpFR	12	n/a	n/a	n/a	n/a	n/a	n/a	18	4	6	8	n/a	n/a	n/a	n/a	n/a
2987318	PROB	n/a	LTP099	ltpFR	12	n/a	n/a	n/a	n/a	n/a	n/a	16	4	4	4	n/a	n/a	n/a	n/a	n/a
2988917	PROB	n/a	LTP099	ltpFR	12	n/a	n/a	n/a	n/a	n/a	n/a	15	5	7	3	n/a	n/a	n/a	n/a	n/a
2990900	PROB	n/a	LTP099	ltpFR	12	n/a	n/a	n/a	n/a	n/a	n/a	14	8	2	4	n/a	n/a	n/a	n/a	n/a
2991976	PROB	n/a	LTP099	ltpFR	12	n/a	n/a	n/a	n/a	n/a	n/a	7	5	1	1	n/a	n/a	n/a	n/a	n/a
2992984	PROB	n/a	LTP099	ltpFR	12	n/a	n/a	n/a	n/a	n/a	n/a	26	9	8	9	n/a	n/a	n/a	n/a	n/a
2995068	PROB	n/a	LTP099	ltpFR	12	n/a	n/a	n/a	n/a	n/a	n/a	10	2	4	4	n/a	n/a	n/a	n/a	n/a
2996334	PROB	n/a	LTP099	ltpFR	12	n/a	n/a	n/a	n/a	n/a	n/a	24	9	8	7	n/a	n/a	n/a	n/a	n/a
2998201	PROB	n/a	LTP099	ltpFR	12	n/a	n/a	n/a	n/a	n/a	n/a	17	9	7	1	n/a	n/a	n/a	n/a	n/a
2999872	STOP	n/a	LTP099	ltpFR	12	n/a	n/a	n/a	n/a	n/a	n/a	n/a	n/a	n/a	n/a	n/a	n/a	n/a	n/a	n/a
3002967	REC_START	n/a	LTP099	ltpFR	12	11	n/a	n/a	n/a	n/a	n/a	n/a	0	0	0	n/a	n/a	n/a	n/a	n/a
3003820	REC_WORD	wordpools/wasnorm_wordpool.txt	LTP099	ltpFR	12	11	1	EUROPE	541	n/a	1	n/a	0	0	0	n/a	n/a	n/a	n/a	n/a
3008310	REC_WORD	wordpools/wasnorm_wordpool.txt	LTP099	ltpFR	12	11	n/a	CHEF	290	n/a	n/a	n/a	0	0	0	n/a	n/a	n/a	n/a	n/a
3029227	REC_WORD	wordpools/wasnorm_wordpool.txt	LTP099	ltpFR	12	11	1	GROCERIES	663	n/a	0	n/a	0	0	0	n/a	n/a	n/a	n/a	n/a
3031462	REC_WORD	wordpools/wasnorm_wordpool.txt	LTP099	ltpFR	12	11	0	KITCHEN	778	n/a	1	n/a	0	0	0	n/a	n/a	n/a	n/a	n/a
3032993	REC_WORD	wordpools/wasnorm_wordpool.txt	LTP099	ltpFR	12	11	1	SECRETARY	1265	n/a	1	n/a	0	0	0	n/a	n/a	n/a	n/a	n/a
3080544	WORD	wordpools/wasnorm_wordpool.txt	LTP099	ltpFR	12	12	0	STEAM	1375	n/a	0	n/a	0	0	0	1	0.412841796875	0.57763671875	lower	../fonts/amplitud.ttf
3084494	WORD	wordpools/wasnorm_wordpool.txt	LTP099	ltpFR	12	12	0	CASTLE	256	n/a	1	n/a	0	0	0	1	0.412841796875	0.57763671875	lower	../fonts/amplitud.ttf
3088611	WORD	wordpools/wasnorm_wordpool.txt	LTP099	ltpFR	12	12	0	LITERATURE	831	n/a	0	n/a	0	0	0	1	0.412841796875	0.57763671875	lower	../fonts/amplitud.ttf
3092527	WORD	wordpools/wasnorm_wordpool.txt	LTP099	ltpFR	12	12	0	DRIVER	499	n/a	1	n/a	0	0	0	1	0.412841796875	0.57763671875	lower	../fonts/amplitud.ttf
3096610	WORD	wordpools/wasnorm_wordpool.txt	LTP099	ltpFR	12	12	1	VIOLA	1570	n/a	0	n/a	0	0	0	0	0.5869140625	0.422607421875	upper	../fonts/zerothre.ttf
3100817	WORD	wordpools/wasnorm_wordpool.txt	LTP099	ltpFR	12	12	1	ROSE	1212	n/a	1	n/a	0	0	0	0	0.5869140625	0.422607421875	upper	../fonts/zerothre.ttf
3104801	WORD	wordpools/wasnorm_wordpool.txt	LTP099	ltpFR	12	12	1	CARNIVAL	245	n/a	0	n/a	0	0	0	0	0.5869140625	0.422607421875	upper	../fonts/zerothre.ttf
3109009	WORD	wordpools/wasnorm_wordpool.txt	LTP099	ltpFR	12	12	1	PARTY	1018	n/a	0	n/a	0	0	0	0	0.5869140625	0.422607421875	upper	../fonts/zerothre.ttf
3113059	WORD	wordpools/wasnorm_wordpool.txt	LTP099	ltpFR	12	12	1	ARCHITECT	36	n/a	0	n/a	0	0	0	0	0.5869140625	0.422607421875	upper	../fonts/zerothre.ttf
3117267	WORD	wordpools/wasnorm_wordpool.txt	LTP099	ltpFR	12	12	0	CAPTAIN	239	n/a	1	n/a	0	0	0	1	0.412841796875	0.57763671875	lower	../fonts/amplitud.ttf
3121200	WORD	wordpools/wasnorm_wordpool.txt	LTP099	ltpFR	12	12	0	DOVE	491	n/a	0	n/a	0	0	0	1	0.412841796875	0.57763671875	lower	../fonts/amplitud.ttf
3125299	WORD	wordpools/wasnorm_wordpool.txt	LTP099	ltpFR	12	12	0	BLUEJAY	141	n/a	0	n/a	0	0	0	1	0.412841796875	0.57763671875	lower	../fonts/amplitud.ttf
3129216	WORD	wordpools/wasnorm_wordpool.txt	LTP099	ltpFR	12	12	0	DISH	474	n/a	0	n/a	0	0	0	1	0.412841796875	0.57763671875	lower	../fonts/amplitud.ttf
3133215	WORD	wordpools/wasnorm_wordpool.txt	LTP099	ltpFR	12	12	1	WASHER	1592	n/a	0	n/a	0	0	0	0	0.5869140625	0.422607421875	upper	../fonts/zerothre.ttf
3137373	WORD	wordpools/wasnorm_wordpool.txt	LTP099	ltpFR	12	12	1	GREASE	660	n/a	0	n/a	0	0	0	0	0.5869140625	0.422607421875	upper	../fonts/zerothre.ttf
3141256	WORD	wordpools/wasnorm_wordpool.txt	LTP099	ltpFR	12	12	1	BOOK	149	n/a	0	n/a	0	0	0	0	0.5869140625	0.422607421875	upper	../fonts/zerothre.ttf
3144265	START	n/a	LTP099	ltpFR	12	n/a	n/a	n/a	n/a	n/a	n/a	n/a	n/a	n/a	n/a	n/a	n/a	n/a	n/a	n/a
3145389	PROB	n/a	LTP099	ltpFR	12	n/a	n/a	n/a	n/a	n/a	n/a	10	8	1	1	n/a	n/a	n/a	n/a	n/a
3146748	PROB	n/a	LTP099	ltpFR	12	n/a	n/a	n/a	n/a	n/a	n/a	16	2	7	7	n/a	n/a	n/a	n/a	n/a
3149589	PROB	n/a	LTP099	ltpFR	12	n/a	n/a	n/a	n/a	n/a	n/a	10	1	5	3	n/a	n/a	n/a	n/a	n/a
3151449	STOP	n/a	LTP099	ltpFR	12	n/a	n/a	n/a	n/a	n/a	n/a	n/a	n/a	n/a	n/a	n/a	n/a	n/a	n/a	n/a
3153998	REC_START	n/a	LTP099	ltpFR	12	12	n/a	n/a	n/a	n/a	n/a	n/a	0	0	0	n/a	n/a	n/a	n/a	n/a
3154731	REC_WORD	wordpools/wasnorm_wordpool.txt	LTP099	ltpFR	12	12	1	WASHER	1592	n/a	0	n/a	0	0	0	n/a	n/a	n/a	n/a	n/a
3155549	REC_WORD	wordpools/wasnorm_wordpool.txt	LTP099	ltpFR	12	12	1	GREASE	660	n/a	0	n/a	0	0	0	n/a	n/a	n/a	n/a	n/a
3156617	REC_WORD	wordpools/wasnorm_wordpool.txt	LTP099	ltpFR	12	12	0	CASTLE	256	n/a	1	n/a	0	0	0	n/a	n/a	n/a	n/a	n/a
