mstime	trial_type	stim_file	subject	experiment	session	trial	task	item_name	item_num	recog_conf	resp	color_b	color_g	color_r	case	font
0	SESS_START	n/a	LTP218	ltpFR	4	n/a	n/a	n/a	n/a	2	n/a	n/a	n/a	n/a	n/a	n/a
238003	WORD	wordpools/wasnorm_wordpool_less_exclusions.txt	LTP218	ltpFR	4	1	0	TRAY	1498	n/a	0	1	0.412841796875	0.57763671875	upper	../fonts/zerothre.ttf
241997	WORD	wordpools/wasnorm_wordpool_less_exclusions.txt	LTP218	ltpFR	4	1	0	COOK	372	n/a	0	1	0.412841796875	0.57763671875	upper	../fonts/zerothre.ttf
246208	WORD	wordpools/wasnorm_wordpool_less_exclusions.txt	LTP218	ltpFR	4	1	0	SWAN	1417	n/a	0	1	0.412841796875	0.57763671875	upper	../fonts/zerothre.ttf
250069	WORD	wordpools/wasnorm_wordpool_less_exclusions.txt	LTP218	ltpFR	4	1	1	DANCER	437	n/a	1	0	0.5869140625	0.422607421875	lower	../fonts/amplitud.ttf
254129	WORD	wordpools/wasnorm_wordpool_less_exclusions.txt	LTP218	ltpFR	4	1	1	SCARF	1246	n/a	0	0	0.5869140625	0.422607421875	lower	../fonts/amplitud.ttf
258323	WORD	wordpools/wasnorm_wordpool_less_exclusions.txt	LTP218	ltpFR	4	1	0	EAGLE	512	n/a	1	1	0.412841796875	0.57763671875	upper	../fonts/zerothre.ttf
262300	WORD	wordpools/wasnorm_wordpool_less_exclusions.txt	LTP218	ltpFR	4	1	0	PIRATE	1074	n/a	1	1	0.412841796875	0.57763671875	upper	../fonts/zerothre.ttf
266295	WORD	wordpools/wasnorm_wordpool_less_exclusions.txt	LTP218	ltpFR	4	1	1	RIBBON	1189	n/a	0	0	0.5869140625	0.422607421875	lower	../fonts/amplitud.ttf
270355	WORD	wordpools/wasnorm_wordpool_less_exclusions.txt	LTP218	ltpFR	4	1	1	BIRD	129	n/a	0	0	0.5869140625	0.422607421875	lower	../fonts/amplitud.ttf
274482	WORD	wordpools/wasnorm_wordpool_less_exclusions.txt	LTP218	ltpFR	4	1	1	ERASER	538	n/a	0	0	0.5869140625	0.422607421875	lower	../fonts/amplitud.ttf
278326	WORD	wordpools/wasnorm_wordpool_less_exclusions.txt	LTP218	ltpFR	4	1	1	PROFESSIONAL	1130	n/a	1	0	0.5869140625	0.422607421875	lower	../fonts/amplitud.ttf
282470	WORD	wordpools/wasnorm_wordpool_less_exclusions.txt	LTP218	ltpFR	4	1	1	EXPERT	543	n/a	1	0	0.5869140625	0.422607421875	lower	../fonts/amplitud.ttf
286530	WORD	wordpools/wasnorm_wordpool_less_exclusions.txt	LTP218	ltpFR	4	1	1	AUDIENCE	59	n/a	1	0	0.5869140625	0.422607421875	lower	../fonts/amplitud.ttf
290691	WORD	wordpools/wasnorm_wordpool_less_exclusions.txt	LTP218	ltpFR	4	1	0	HAWK	692	n/a	1	1	0.412841796875	0.57763671875	upper	../fonts/zerothre.ttf
294918	WORD	wordpools/wasnorm_wordpool_less_exclusions.txt	LTP218	ltpFR	4	1	0	ACORN	3	n/a	0	1	0.412841796875	0.57763671875	upper	../fonts/zerothre.ttf
298929	WORD	wordpools/wasnorm_wordpool_less_exclusions.txt	LTP218	ltpFR	4	1	0	INSTRUCTOR	741	n/a	0	1	0.412841796875	0.57763671875	upper	../fonts/zerothre.ttf
304721	REC_START	n/a	LTP218	ltpFR	4	1	n/a	n/a	n/a	n/a	n/a	n/a	n/a	n/a	n/a	n/a
305563	REC_WORD	wordpools/wasnorm_wordpool_less_exclusions.txt	LTP218	ltpFR	4	1	0	INSTRUCTOR	741	n/a	0	n/a	n/a	n/a	n/a	n/a
306470	REC_WORD	wordpools/wasnorm_wordpool_less_exclusions.txt	LTP218	ltpFR	4	1	0	EAGLE	512	n/a	1	n/a	n/a	n/a	n/a	n/a
307724	REC_WORD	wordpools/wasnorm_wordpool_less_exclusions.txt	LTP218	ltpFR	4	1	1	BIRD	129	n/a	0	n/a	n/a	n/a	n/a	n/a
308537	REC_WORD	wordpools/wasnorm_wordpool_less_exclusions.txt	LTP218	ltpFR	4	1	1	AUDIENCE	59	n/a	1	n/a	n/a	n/a	n/a	n/a
310331	REC_WORD	wordpools/wasnorm_wordpool_less_exclusions.txt	LTP218	ltpFR	4	1	0	COOK	372	n/a	0	n/a	n/a	n/a	n/a	n/a
320685	REC_WORD	wordpools/wasnorm_wordpool_less_exclusions.txt	LTP218	ltpFR	4	1	1	EXPERT	543	n/a	1	n/a	n/a	n/a	n/a	n/a
325104	REC_WORD	wordpools/wasnorm_wordpool_less_exclusions.txt	LTP218	ltpFR	4	1	1	PROFESSIONAL	1130	n/a	1	n/a	n/a	n/a	n/a	n/a
333077	REC_WORD	wordpools/wasnorm_wordpool_less_exclusions.txt	LTP218	ltpFR	4	1	0	HAWK	692	n/a	1	n/a	n/a	n/a	n/a	n/a
385733	WORD	wordpools/wasnorm_wordpool_less_exclusions.txt	LTP218	ltpFR	4	2	1	FIG	563	n/a	0	0	0.5869140625	0.422607421875	lower	../fonts/amplitud.ttf
389843	WORD	wordpools/wasnorm_wordpool_less_exclusions.txt	LTP218	ltpFR	4	2	1	DILL	465	n/a	1	0	0.5869140625	0.422607421875	lower	../fonts/amplitud.ttf
393771	WORD	wordpools/wasnorm_wordpool_less_exclusions.txt	LTP218	ltpFR	4	2	0	LETTUCE	814	n/a	0	1	0.412841796875	0.57763671875	upper	../fonts/zerothre.ttf
397964	WORD	wordpools/wasnorm_wordpool_less_exclusions.txt	LTP218	ltpFR	4	2	0	BASKETBALL	96	n/a	0	1	0.412841796875	0.57763671875	upper	../fonts/zerothre.ttf
401792	WORD	wordpools/wasnorm_wordpool_less_exclusions.txt	LTP218	ltpFR	4	2	0	JEANS	752	n/a	1	1	0.412841796875	0.57763671875	upper	../fonts/zerothre.ttf
405753	WORD	wordpools/wasnorm_wordpool_less_exclusions.txt	LTP218	ltpFR	4	2	0	DWARF	510	n/a	0	1	0.412841796875	0.57763671875	upper	../fonts/zerothre.ttf
409913	WORD	wordpools/wasnorm_wordpool_less_exclusions.txt	LTP218	ltpFR	4	2	0	TRICYCLE	1506	n/a	0	1	0.412841796875	0.57763671875	upper	../fonts/zerothre.ttf
413874	WORD	wordpools/wasnorm_wordpool_less_exclusions.txt	LTP218	ltpFR	4	2	0	APPLE	33	n/a	0	1	0.412841796875	0.57763671875	upper	../fonts/zerothre.ttf
417718	WORD	wordpools/wasnorm_wordpool_less_exclusions.txt	LTP218	ltpFR	4	2	1	CANYON	235	n/a	0	0	0.5869140625	0.422607421875	lower	../fonts/amplitud.ttf
421679	WORD	wordpools/wasnorm_wordpool_less_exclusions.txt	LTP218	ltpFR	4	2	1	BASSINET	97	n/a	0	0	0.5869140625	0.422607421875	lower	../fonts/amplitud.ttf
425572	WORD	wordpools/wasnorm_wordpool_less_exclusions.txt	LTP218	ltpFR	4	2	0	BOUQUET	157	n/a	1	1	0.412841796875	0.57763671875	upper	../fonts/zerothre.ttf
429734	WORD	wordpools/wasnorm_wordpool_less_exclusions.txt	LTP218	ltpFR	4	2	0	TORTOISE	1486	n/a	1	1	0.412841796875	0.57763671875	upper	../fonts/zerothre.ttf
433744	WORD	wordpools/wasnorm_wordpool_less_exclusions.txt	LTP218	ltpFR	4	2	1	OYSTER	995	n/a	1	0	0.5869140625	0.422607421875	lower	../fonts/amplitud.ttf
437589	WORD	wordpools/wasnorm_wordpool_less_exclusions.txt	LTP218	ltpFR	4	2	1	CLIMBER	323	n/a	1	0	0.5869140625	0.422607421875	lower	../fonts/amplitud.ttf
441799	WORD	wordpools/wasnorm_wordpool_less_exclusions.txt	LTP218	ltpFR	4	2	1	UMBRELLA	1534	n/a	0	0	0.5869140625	0.422607421875	lower	../fonts/amplitud.ttf
445976	WORD	wordpools/wasnorm_wordpool_less_exclusions.txt	LTP218	ltpFR	4	2	1	PUDDLE	1140	n/a	0	0	0.5869140625	0.422607421875	lower	../fonts/amplitud.ttf
451901	REC_START	n/a	LTP218	ltpFR	4	2	n/a	n/a	n/a	n/a	n/a	n/a	n/a	n/a	n/a	n/a
452918	REC_WORD	wordpools/wasnorm_wordpool_less_exclusions.txt	LTP218	ltpFR	4	2	1	PUDDLE	1140	n/a	0	n/a	n/a	n/a	n/a	n/a
453418	REC_WORD	wordpools/wasnorm_wordpool_less_exclusions.txt	LTP218	ltpFR	4	2	1	OYSTER	995	n/a	1	n/a	n/a	n/a	n/a	n/a
454026	REC_WORD	wordpools/wasnorm_wordpool_less_exclusions.txt	LTP218	ltpFR	4	2	1	CLIMBER	323	n/a	1	n/a	n/a	n/a	n/a	n/a
491521	REC_WORD	wordpools/wasnorm_wordpool_less_exclusions.txt	LTP218	ltpFR	4	2	0	TORTOISE	1486	n/a	1	n/a	n/a	n/a	n/a	n/a
514763	REC_WORD	wordpools/wasnorm_wordpool_less_exclusions.txt	LTP218	ltpFR	4	2	1	FIG	563	n/a	0	n/a	n/a	n/a	n/a	n/a
531632	WORD	wordpools/wasnorm_wordpool_less_exclusions.txt	LTP218	ltpFR	4	3	1	ALBUM	14	n/a	0	0	0.5869140625	0.422607421875	lower	../fonts/amplitud.ttf
535541	WORD	wordpools/wasnorm_wordpool_less_exclusions.txt	LTP218	ltpFR	4	3	1	KNAPSACK	783	n/a	0	0	0.5869140625	0.422607421875	lower	../fonts/amplitud.ttf
539753	WORD	wordpools/wasnorm_wordpool_less_exclusions.txt	LTP218	ltpFR	4	3	1	ANTENNA	28	n/a	0	0	0.5869140625	0.422607421875	lower	../fonts/amplitud.ttf
543647	WORD	wordpools/wasnorm_wordpool_less_exclusions.txt	LTP218	ltpFR	4	3	1	GRASSHOPPER	656	n/a	1	0	0.5869140625	0.422607421875	lower	../fonts/amplitud.ttf
547824	WORD	wordpools/wasnorm_wordpool_less_exclusions.txt	LTP218	ltpFR	4	3	1	COW	393	n/a	1	0	0.5869140625	0.422607421875	lower	../fonts/amplitud.ttf
551868	WORD	wordpools/wasnorm_wordpool_less_exclusions.txt	LTP218	ltpFR	4	3	1	HERD	705	n/a	1	0	0.5869140625	0.422607421875	lower	../fonts/amplitud.ttf
555729	WORD	wordpools/wasnorm_wordpool_less_exclusions.txt	LTP218	ltpFR	4	3	1	SALT	1229	n/a	0	0	0.5869140625	0.422607421875	lower	../fonts/amplitud.ttf
559906	WORD	wordpools/wasnorm_wordpool_less_exclusions.txt	LTP218	ltpFR	4	3	1	DRAWING	494	n/a	0	0	0.5869140625	0.422607421875	lower	../fonts/amplitud.ttf
564000	WORD	wordpools/wasnorm_wordpool_less_exclusions.txt	LTP218	ltpFR	4	3	1	CHEERLEADER	288	n/a	1	0	0.5869140625	0.422607421875	lower	../fonts/amplitud.ttf
568060	WORD	wordpools/wasnorm_wordpool_less_exclusions.txt	LTP218	ltpFR	4	3	1	DICE	461	n/a	0	0	0.5869140625	0.422607421875	lower	../fonts/amplitud.ttf
572188	WORD	wordpools/wasnorm_wordpool_less_exclusions.txt	LTP218	ltpFR	4	3	1	TROPHY	1509	n/a	0	0	0.5869140625	0.422607421875	lower	../fonts/amplitud.ttf
576298	WORD	wordpools/wasnorm_wordpool_less_exclusions.txt	LTP218	ltpFR	4	3	1	NAPKIN	937	n/a	0	0	0.5869140625	0.422607421875	lower	../fonts/amplitud.ttf
580142	WORD	wordpools/wasnorm_wordpool_less_exclusions.txt	LTP218	ltpFR	4	3	1	HERB	704	n/a	0	0	0.5869140625	0.422607421875	lower	../fonts/amplitud.ttf
584220	WORD	wordpools/wasnorm_wordpool_less_exclusions.txt	LTP218	ltpFR	4	3	1	PAGE	1001	n/a	0	0	0.5869140625	0.422607421875	lower	../fonts/amplitud.ttf
588214	WORD	wordpools/wasnorm_wordpool_less_exclusions.txt	LTP218	ltpFR	4	3	1	EDITOR	516	n/a	1	0	0.5869140625	0.422607421875	lower	../fonts/amplitud.ttf
592091	WORD	wordpools/wasnorm_wordpool_less_exclusions.txt	LTP218	ltpFR	4	3	1	SUPERMARKET	1409	n/a	0	0	0.5869140625	0.422607421875	lower	../fonts/amplitud.ttf
597983	REC_START	n/a	LTP218	ltpFR	4	3	n/a	n/a	n/a	n/a	n/a	n/a	n/a	n/a	n/a	n/a
599390	REC_WORD	wordpools/wasnorm_wordpool_less_exclusions.txt	LTP218	ltpFR	4	3	1	SUPERMARKET	1409	n/a	0	n/a	n/a	n/a	n/a	n/a
601071	REC_WORD	wordpools/wasnorm_wordpool_less_exclusions.txt	LTP218	ltpFR	4	3	1	ANTENNA	28	n/a	0	n/a	n/a	n/a	n/a	n/a
601889	REC_WORD	wordpools/wasnorm_wordpool_less_exclusions.txt	LTP218	ltpFR	4	3	1	GRASSHOPPER	656	n/a	1	n/a	n/a	n/a	n/a	n/a
610494	REC_WORD	wordpools/wasnorm_wordpool_less_exclusions.txt	LTP218	ltpFR	4	3	1	KNAPSACK	783	n/a	0	n/a	n/a	n/a	n/a	n/a
611452	REC_WORD	wordpools/wasnorm_wordpool_less_exclusions.txt	LTP218	ltpFR	4	3	1	ALBUM	14	n/a	0	n/a	n/a	n/a	n/a	n/a
631103	REC_WORD	wordpools/wasnorm_wordpool_less_exclusions.txt	LTP218	ltpFR	4	3	1	CHEERLEADER	288	n/a	1	n/a	n/a	n/a	n/a	n/a
638695	REC_WORD	wordpools/wasnorm_wordpool_less_exclusions.txt	LTP218	ltpFR	4	3	1	ANTENNA	28	n/a	0	n/a	n/a	n/a	n/a	n/a
659548	REC_WORD	wordpools/wasnorm_wordpool_less_exclusions.txt	LTP218	ltpFR	4	3	1	PAGE	1001	n/a	0	n/a	n/a	n/a	n/a	n/a
677963	WORD	wordpools/wasnorm_wordpool_less_exclusions.txt	LTP218	ltpFR	4	4	-1	SKETCH	1315	n/a	-1	1	1.0	1.0	upper	../fonts/Verdana.ttf
681957	WORD	wordpools/wasnorm_wordpool_less_exclusions.txt	LTP218	ltpFR	4	4	-1	STOVE	1388	n/a	-1	1	1.0	1.0	upper	../fonts/Verdana.ttf
686151	WORD	wordpools/wasnorm_wordpool_less_exclusions.txt	LTP218	ltpFR	4	4	-1	PORT	1110	n/a	-1	1	1.0	1.0	upper	../fonts/Verdana.ttf
690028	WORD	wordpools/wasnorm_wordpool_less_exclusions.txt	LTP218	ltpFR	4	4	-1	CEREAL	272	n/a	-1	1	1.0	1.0	upper	../fonts/Verdana.ttf
693956	WORD	wordpools/wasnorm_wordpool_less_exclusions.txt	LTP218	ltpFR	4	4	-1	HAIL	676	n/a	-1	1	1.0	1.0	upper	../fonts/Verdana.ttf
698083	WORD	wordpools/wasnorm_wordpool_less_exclusions.txt	LTP218	ltpFR	4	4	-1	BENCH	121	n/a	-1	1	1.0	1.0	upper	../fonts/Verdana.ttf
702210	WORD	wordpools/wasnorm_wordpool_less_exclusions.txt	LTP218	ltpFR	4	4	-1	STOOL	1386	n/a	-1	1	1.0	1.0	upper	../fonts/Verdana.ttf
706254	WORD	wordpools/wasnorm_wordpool_less_exclusions.txt	LTP218	ltpFR	4	4	-1	WELL	1600	n/a	-1	1	1.0	1.0	upper	../fonts/Verdana.ttf
710348	WORD	wordpools/wasnorm_wordpool_less_exclusions.txt	LTP218	ltpFR	4	4	-1	PIGEON	1065	n/a	-1	1	1.0	1.0	upper	../fonts/Verdana.ttf
714557	WORD	wordpools/wasnorm_wordpool_less_exclusions.txt	LTP218	ltpFR	4	4	-1	CREW	406	n/a	-1	1	1.0	1.0	upper	../fonts/Verdana.ttf
718436	WORD	wordpools/wasnorm_wordpool_less_exclusions.txt	LTP218	ltpFR	4	4	-1	ROOF	1205	n/a	-1	1	1.0	1.0	upper	../fonts/Verdana.ttf
722529	WORD	wordpools/wasnorm_wordpool_less_exclusions.txt	LTP218	ltpFR	4	4	-1	CARPET	247	n/a	-1	1	1.0	1.0	upper	../fonts/Verdana.ttf
726740	WORD	wordpools/wasnorm_wordpool_less_exclusions.txt	LTP218	ltpFR	4	4	-1	TUB	1514	n/a	-1	1	1.0	1.0	upper	../fonts/Verdana.ttf
730901	WORD	wordpools/wasnorm_wordpool_less_exclusions.txt	LTP218	ltpFR	4	4	-1	BUNNY	198	n/a	-1	1	1.0	1.0	upper	../fonts/Verdana.ttf
734795	WORD	wordpools/wasnorm_wordpool_less_exclusions.txt	LTP218	ltpFR	4	4	-1	VALVE	1546	n/a	-1	1	1.0	1.0	upper	../fonts/Verdana.ttf
738889	WORD	wordpools/wasnorm_wordpool_less_exclusions.txt	LTP218	ltpFR	4	4	-1	MUSEUM	933	n/a	-1	1	1.0	1.0	upper	../fonts/Verdana.ttf
744614	REC_START	n/a	LTP218	ltpFR	4	4	n/a	n/a	n/a	n/a	n/a	n/a	n/a	n/a	n/a	n/a
745751	REC_WORD	wordpools/wasnorm_wordpool_less_exclusions.txt	LTP218	ltpFR	4	4	-1	BENCH	121	n/a	-1	n/a	n/a	n/a	n/a	n/a
746087	REC_WORD	wordpools/wasnorm_wordpool_less_exclusions.txt	LTP218	ltpFR	4	4	-1	STOOL	1386	n/a	-1	n/a	n/a	n/a	n/a	n/a
746608	REC_WORD	wordpools/wasnorm_wordpool_less_exclusions.txt	LTP218	ltpFR	4	4	-1	TUB	1514	n/a	-1	n/a	n/a	n/a	n/a	n/a
747015	REC_WORD	wordpools/wasnorm_wordpool_less_exclusions.txt	LTP218	ltpFR	4	4	-1	WELL	1600	n/a	-1	n/a	n/a	n/a	n/a	n/a
747692	REC_WORD	wordpools/wasnorm_wordpool_less_exclusions.txt	LTP218	ltpFR	4	4	-1	MUSEUM	933	n/a	-1	n/a	n/a	n/a	n/a	n/a
763890	REC_WORD	wordpools/wasnorm_wordpool_less_exclusions.txt	LTP218	ltpFR	4	4	-1	STOVE	1388	n/a	-1	n/a	n/a	n/a	n/a	n/a
776491	REC_WORD	wordpools/wasnorm_wordpool_less_exclusions.txt	LTP218	ltpFR	4	4	-1	CREW	406	n/a	-1	n/a	n/a	n/a	n/a	n/a
786494	REC_WORD	wordpools/wasnorm_wordpool_less_exclusions.txt	LTP218	ltpFR	4	4	-1	PIGEON	1065	n/a	-1	n/a	n/a	n/a	n/a	n/a
830219	WORD	wordpools/wasnorm_wordpool_less_exclusions.txt	LTP218	ltpFR	4	5	1	ASHTRAY	45	n/a	0	0	0.5869140625	0.422607421875	lower	../fonts/amplitud.ttf
834046	WORD	wordpools/wasnorm_wordpool_less_exclusions.txt	LTP218	ltpFR	4	5	1	LIGHTER	819	n/a	0	0	0.5869140625	0.422607421875	lower	../fonts/amplitud.ttf
838157	WORD	wordpools/wasnorm_wordpool_less_exclusions.txt	LTP218	ltpFR	4	5	1	SQUID	1361	n/a	1	0	0.5869140625	0.422607421875	lower	../fonts/amplitud.ttf
842218	WORD	wordpools/wasnorm_wordpool_less_exclusions.txt	LTP218	ltpFR	4	5	1	TAG	1429	n/a	0	0	0.5869140625	0.422607421875	lower	../fonts/amplitud.ttf
846228	WORD	wordpools/wasnorm_wordpool_less_exclusions.txt	LTP218	ltpFR	4	5	0	FROG	608	n/a	0	1	0.412841796875	0.57763671875	upper	../fonts/zerothre.ttf
850289	WORD	wordpools/wasnorm_wordpool_less_exclusions.txt	LTP218	ltpFR	4	5	0	CLIFF	322	n/a	1	1	0.412841796875	0.57763671875	upper	../fonts/zerothre.ttf
854349	WORD	wordpools/wasnorm_wordpool_less_exclusions.txt	LTP218	ltpFR	4	5	0	SCALPEL	1243	n/a	0	1	0.412841796875	0.57763671875	upper	../fonts/zerothre.ttf
858460	WORD	wordpools/wasnorm_wordpool_less_exclusions.txt	LTP218	ltpFR	4	5	0	OCTOPUS	971	n/a	1	1	0.412841796875	0.57763671875	upper	../fonts/zerothre.ttf
862454	WORD	wordpools/wasnorm_wordpool_less_exclusions.txt	LTP218	ltpFR	4	5	1	RACK	1154	n/a	0	0	0.5869140625	0.422607421875	lower	../fonts/amplitud.ttf
866381	WORD	wordpools/wasnorm_wordpool_less_exclusions.txt	LTP218	ltpFR	4	5	1	ROOST	1208	n/a	0	0	0.5869140625	0.422607421875	lower	../fonts/amplitud.ttf
870541	WORD	wordpools/wasnorm_wordpool_less_exclusions.txt	LTP218	ltpFR	4	5	1	CROW	414	n/a	1	0	0.5869140625	0.422607421875	lower	../fonts/amplitud.ttf
874485	WORD	wordpools/wasnorm_wordpool_less_exclusions.txt	LTP218	ltpFR	4	5	1	SHUTTER	1300	n/a	0	0	0.5869140625	0.422607421875	lower	../fonts/amplitud.ttf
878529	WORD	wordpools/wasnorm_wordpool_less_exclusions.txt	LTP218	ltpFR	4	5	0	PERSONNEL	1053	n/a	1	1	0.412841796875	0.57763671875	upper	../fonts/zerothre.ttf
882657	WORD	wordpools/wasnorm_wordpool_less_exclusions.txt	LTP218	ltpFR	4	5	0	SPY	1360	n/a	0	1	0.412841796875	0.57763671875	upper	../fonts/zerothre.ttf
886567	WORD	wordpools/wasnorm_wordpool_less_exclusions.txt	LTP218	ltpFR	4	5	0	WINDOW	1611	n/a	0	1	0.412841796875	0.57763671875	upper	../fonts/zerothre.ttf
890396	WORD	wordpools/wasnorm_wordpool_less_exclusions.txt	LTP218	ltpFR	4	5	0	UNDERWEAR	1537	n/a	0	1	0.412841796875	0.57763671875	upper	../fonts/zerothre.ttf
896104	REC_START	n/a	LTP218	ltpFR	4	5	n/a	n/a	n/a	n/a	n/a	n/a	n/a	n/a	n/a	n/a
896867	REC_WORD	wordpools/wasnorm_wordpool_less_exclusions.txt	LTP218	ltpFR	4	5	0	UNDERWEAR	1537	n/a	0	n/a	n/a	n/a	n/a	n/a
897710	REC_WORD	wordpools/wasnorm_wordpool_less_exclusions.txt	LTP218	ltpFR	4	5	0	CLIFF	322	n/a	1	n/a	n/a	n/a	n/a	n/a
976201	WORD	wordpools/wasnorm_wordpool_less_exclusions.txt	LTP218	ltpFR	4	6	1	TURTLE	1522	n/a	1	0	0.5869140625	0.422607421875	lower	../fonts/amplitud.ttf
980195	WORD	wordpools/wasnorm_wordpool_less_exclusions.txt	LTP218	ltpFR	4	6	1	PORPOISE	1109	n/a	1	0	0.5869140625	0.422607421875	lower	../fonts/amplitud.ttf
984022	WORD	wordpools/wasnorm_wordpool_less_exclusions.txt	LTP218	ltpFR	4	6	1	MIRROR	899	n/a	0	0	0.5869140625	0.422607421875	lower	../fonts/amplitud.ttf
987900	WORD	wordpools/wasnorm_wordpool_less_exclusions.txt	LTP218	ltpFR	4	6	1	HERO	706	n/a	1	0	0.5869140625	0.422607421875	lower	../fonts/amplitud.ttf
992110	WORD	wordpools/wasnorm_wordpool_less_exclusions.txt	LTP218	ltpFR	4	6	1	NUCLEUS	961	n/a	0	0	0.5869140625	0.422607421875	lower	../fonts/amplitud.ttf
996071	WORD	wordpools/wasnorm_wordpool_less_exclusions.txt	LTP218	ltpFR	4	6	1	DETERGENT	455	n/a	0	0	0.5869140625	0.422607421875	lower	../fonts/amplitud.ttf
1000148	WORD	wordpools/wasnorm_wordpool_less_exclusions.txt	LTP218	ltpFR	4	6	1	CHAMPION	279	n/a	1	0	0.5869140625	0.422607421875	lower	../fonts/amplitud.ttf
1003993	WORD	wordpools/wasnorm_wordpool_less_exclusions.txt	LTP218	ltpFR	4	6	1	NEUTRON	947	n/a	0	0	0.5869140625	0.422607421875	lower	../fonts/amplitud.ttf
1008003	WORD	wordpools/wasnorm_wordpool_less_exclusions.txt	LTP218	ltpFR	4	6	1	BANQUET	86	n/a	0	0	0.5869140625	0.422607421875	lower	../fonts/amplitud.ttf
1012214	WORD	wordpools/wasnorm_wordpool_less_exclusions.txt	LTP218	ltpFR	4	6	1	SHED	1277	n/a	0	0	0.5869140625	0.422607421875	lower	../fonts/amplitud.ttf
1016374	WORD	wordpools/wasnorm_wordpool_less_exclusions.txt	LTP218	ltpFR	4	6	1	CRAB	397	n/a	1	0	0.5869140625	0.422607421875	lower	../fonts/amplitud.ttf
1020352	WORD	wordpools/wasnorm_wordpool_less_exclusions.txt	LTP218	ltpFR	4	6	1	CLOTHES	327	n/a	0	0	0.5869140625	0.422607421875	lower	../fonts/amplitud.ttf
1024445	WORD	wordpools/wasnorm_wordpool_less_exclusions.txt	LTP218	ltpFR	4	6	1	FELLOW	558	n/a	1	0	0.5869140625	0.422607421875	lower	../fonts/amplitud.ttf
1028488	WORD	wordpools/wasnorm_wordpool_less_exclusions.txt	LTP218	ltpFR	4	6	1	STRANGER	1389	n/a	1	0	0.5869140625	0.422607421875	lower	../fonts/amplitud.ttf
1032384	WORD	wordpools/wasnorm_wordpool_less_exclusions.txt	LTP218	ltpFR	4	6	1	CUBE	420	n/a	0	0	0.5869140625	0.422607421875	lower	../fonts/amplitud.ttf
1036394	WORD	wordpools/wasnorm_wordpool_less_exclusions.txt	LTP218	ltpFR	4	6	1	CYLINDER	432	n/a	0	0	0.5869140625	0.422607421875	lower	../fonts/amplitud.ttf
1042186	REC_START	n/a	LTP218	ltpFR	4	6	n/a	n/a	n/a	n/a	n/a	n/a	n/a	n/a	n/a	n/a
1043308	REC_WORD	wordpools/wasnorm_wordpool_less_exclusions.txt	LTP218	ltpFR	4	6	1	BANQUET	86	n/a	0	n/a	n/a	n/a	n/a	n/a
1043857	REC_WORD	wordpools/wasnorm_wordpool_less_exclusions.txt	LTP218	ltpFR	4	6	1	SHED	1277	n/a	0	n/a	n/a	n/a	n/a	n/a
1044540	REC_WORD	wordpools/wasnorm_wordpool_less_exclusions.txt	LTP218	ltpFR	4	6	1	CYLINDER	432	n/a	0	n/a	n/a	n/a	n/a	n/a
1046790	REC_WORD	wordpools/wasnorm_wordpool_less_exclusions.txt	LTP218	ltpFR	4	6	1	HERO	706	n/a	1	n/a	n/a	n/a	n/a	n/a
1060389	REC_WORD	wordpools/wasnorm_wordpool_less_exclusions.txt	LTP218	ltpFR	4	6	1	PORPOISE	1109	n/a	1	n/a	n/a	n/a	n/a	n/a
1061791	REC_WORD	wordpools/wasnorm_wordpool_less_exclusions.txt	LTP218	ltpFR	4	6	1	SQUID	1361	n/a	1	n/a	n/a	n/a	n/a	n/a
1062530	REC_WORD	wordpools/wasnorm_wordpool_less_exclusions.txt	LTP218	ltpFR	4	6	0	OCTOPUS	971	n/a	1	n/a	n/a	n/a	n/a	n/a
1085665	REC_WORD	wordpools/wasnorm_wordpool_less_exclusions.txt	LTP218	ltpFR	4	6	1	STRANGER	1389	n/a	1	n/a	n/a	n/a	n/a	n/a
1121351	WORD	wordpools/wasnorm_wordpool_less_exclusions.txt	LTP218	ltpFR	4	7	-1	SCREWDRIVER	1255	n/a	-1	1	1.0	1.0	upper	../fonts/Verdana.ttf
1125261	WORD	wordpools/wasnorm_wordpool_less_exclusions.txt	LTP218	ltpFR	4	7	-1	ITEM	746	n/a	-1	1	1.0	1.0	upper	../fonts/Verdana.ttf
1129389	WORD	wordpools/wasnorm_wordpool_less_exclusions.txt	LTP218	ltpFR	4	7	-1	WAVE	1596	n/a	-1	1	1.0	1.0	upper	../fonts/Verdana.ttf
1133250	WORD	wordpools/wasnorm_wordpool_less_exclusions.txt	LTP218	ltpFR	4	7	-1	HEATER	698	n/a	-1	1	1.0	1.0	upper	../fonts/Verdana.ttf
1137360	WORD	wordpools/wasnorm_wordpool_less_exclusions.txt	LTP218	ltpFR	4	7	-1	KITCHEN	778	n/a	-1	1	1.0	1.0	upper	../fonts/Verdana.ttf
1141238	WORD	wordpools/wasnorm_wordpool_less_exclusions.txt	LTP218	ltpFR	4	7	-1	SUPPER	1411	n/a	-1	1	1.0	1.0	upper	../fonts/Verdana.ttf
1145132	WORD	wordpools/wasnorm_wordpool_less_exclusions.txt	LTP218	ltpFR	4	7	-1	PEAR	1033	n/a	-1	1	1.0	1.0	upper	../fonts/Verdana.ttf
1149292	WORD	wordpools/wasnorm_wordpool_less_exclusions.txt	LTP218	ltpFR	4	7	-1	BERRY	122	n/a	-1	1	1.0	1.0	upper	../fonts/Verdana.ttf
1153253	WORD	wordpools/wasnorm_wordpool_less_exclusions.txt	LTP218	ltpFR	4	7	-1	OCEAN	970	n/a	-1	1	1.0	1.0	upper	../fonts/Verdana.ttf
1157264	WORD	wordpools/wasnorm_wordpool_less_exclusions.txt	LTP218	ltpFR	4	7	-1	CHICKEN	297	n/a	-1	1	1.0	1.0	upper	../fonts/Verdana.ttf
1161224	WORD	wordpools/wasnorm_wordpool_less_exclusions.txt	LTP218	ltpFR	4	7	-1	MARINE	869	n/a	-1	1	1.0	1.0	upper	../fonts/Verdana.ttf
1165302	WORD	wordpools/wasnorm_wordpool_less_exclusions.txt	LTP218	ltpFR	4	7	-1	CHAMPAGNE	278	n/a	-1	1	1.0	1.0	upper	../fonts/Verdana.ttf
1169494	WORD	wordpools/wasnorm_wordpool_less_exclusions.txt	LTP218	ltpFR	4	7	-1	GRAPE	654	n/a	-1	1	1.0	1.0	upper	../fonts/Verdana.ttf
1173538	WORD	wordpools/wasnorm_wordpool_less_exclusions.txt	LTP218	ltpFR	4	7	-1	ATTORNEY	58	n/a	-1	1	1.0	1.0	upper	../fonts/Verdana.ttf
1177549	WORD	wordpools/wasnorm_wordpool_less_exclusions.txt	LTP218	ltpFR	4	7	-1	ALLEY	15	n/a	-1	1	1.0	1.0	upper	../fonts/Verdana.ttf
1181493	WORD	wordpools/wasnorm_wordpool_less_exclusions.txt	LTP218	ltpFR	4	7	-1	RECIPE	1175	n/a	-1	1	1.0	1.0	upper	../fonts/Verdana.ttf
1187501	REC_START	n/a	LTP218	ltpFR	4	7	n/a	n/a	n/a	n/a	n/a	n/a	n/a	n/a	n/a	n/a
1188362	REC_WORD	wordpools/wasnorm_wordpool_less_exclusions.txt	LTP218	ltpFR	4	7	-1	RECIPE	1175	n/a	-1	n/a	n/a	n/a	n/a	n/a
1189086	REC_WORD	wordpools/wasnorm_wordpool_less_exclusions.txt	LTP218	ltpFR	4	7	-1	CHICKEN	297	n/a	-1	n/a	n/a	n/a	n/a	n/a
1189836	REC_WORD	wordpools/wasnorm_wordpool_less_exclusions.txt	LTP218	ltpFR	4	7	-1	KITCHEN	778	n/a	-1	n/a	n/a	n/a	n/a	n/a
1190519	REC_WORD	wordpools/wasnorm_wordpool_less_exclusions.txt	LTP218	ltpFR	4	7	-1	SUPPER	1411	n/a	-1	n/a	n/a	n/a	n/a	n/a
1193317	REC_WORD	wordpools/wasnorm_wordpool_less_exclusions.txt	LTP218	ltpFR	4	7	-1	OCEAN	970	n/a	-1	n/a	n/a	n/a	n/a	n/a
1209127	REC_WORD	wordpools/wasnorm_wordpool_less_exclusions.txt	LTP218	ltpFR	4	7	-1	MARINE	869	n/a	-1	n/a	n/a	n/a	n/a	n/a
1266634	WORD	wordpools/wasnorm_wordpool_less_exclusions.txt	LTP218	ltpFR	4	8	-1	BEARD	107	n/a	-1	1	1.0	1.0	upper	../fonts/Verdana.ttf
1270661	WORD	wordpools/wasnorm_wordpool_less_exclusions.txt	LTP218	ltpFR	4	8	-1	BRANDY	169	n/a	-1	1	1.0	1.0	upper	../fonts/Verdana.ttf
1274488	WORD	wordpools/wasnorm_wordpool_less_exclusions.txt	LTP218	ltpFR	4	8	-1	COCKTAIL	338	n/a	-1	1	1.0	1.0	upper	../fonts/Verdana.ttf
1278349	WORD	wordpools/wasnorm_wordpool_less_exclusions.txt	LTP218	ltpFR	4	8	-1	SUIT	1402	n/a	-1	1	1.0	1.0	upper	../fonts/Verdana.ttf
1282377	WORD	wordpools/wasnorm_wordpool_less_exclusions.txt	LTP218	ltpFR	4	8	-1	CONTAINER	366	n/a	-1	1	1.0	1.0	upper	../fonts/Verdana.ttf
1286404	WORD	wordpools/wasnorm_wordpool_less_exclusions.txt	LTP218	ltpFR	4	8	-1	GROCERIES	663	n/a	-1	1	1.0	1.0	upper	../fonts/Verdana.ttf
1290465	WORD	wordpools/wasnorm_wordpool_less_exclusions.txt	LTP218	ltpFR	4	8	-1	DANDELION	438	n/a	-1	1	1.0	1.0	upper	../fonts/Verdana.ttf
1294475	WORD	wordpools/wasnorm_wordpool_less_exclusions.txt	LTP218	ltpFR	4	8	-1	SCULPTURE	1258	n/a	-1	1	1.0	1.0	upper	../fonts/Verdana.ttf
1298568	WORD	wordpools/wasnorm_wordpool_less_exclusions.txt	LTP218	ltpFR	4	8	-1	TELESCOPE	1446	n/a	-1	1	1.0	1.0	upper	../fonts/Verdana.ttf
1302447	WORD	wordpools/wasnorm_wordpool_less_exclusions.txt	LTP218	ltpFR	4	8	-1	SPACE	1345	n/a	-1	1	1.0	1.0	upper	../fonts/Verdana.ttf
1306474	WORD	wordpools/wasnorm_wordpool_less_exclusions.txt	LTP218	ltpFR	4	8	-1	PLIERS	1089	n/a	-1	1	1.0	1.0	upper	../fonts/Verdana.ttf
1310484	WORD	wordpools/wasnorm_wordpool_less_exclusions.txt	LTP218	ltpFR	4	8	-1	TRIANGLE	1504	n/a	-1	1	1.0	1.0	upper	../fonts/Verdana.ttf
1314629	WORD	wordpools/wasnorm_wordpool_less_exclusions.txt	LTP218	ltpFR	4	8	-1	PLAID	1080	n/a	-1	1	1.0	1.0	upper	../fonts/Verdana.ttf
1318505	WORD	wordpools/wasnorm_wordpool_less_exclusions.txt	LTP218	ltpFR	4	8	-1	SCREW	1254	n/a	-1	1	1.0	1.0	upper	../fonts/Verdana.ttf
1322650	WORD	wordpools/wasnorm_wordpool_less_exclusions.txt	LTP218	ltpFR	4	8	-1	PELT	1040	n/a	-1	1	1.0	1.0	upper	../fonts/Verdana.ttf
1326694	WORD	wordpools/wasnorm_wordpool_less_exclusions.txt	LTP218	ltpFR	4	8	-1	TUXEDO	1525	n/a	-1	1	1.0	1.0	upper	../fonts/Verdana.ttf
1332802	REC_START	n/a	LTP218	ltpFR	4	8	n/a	n/a	n/a	n/a	n/a	n/a	n/a	n/a	n/a	n/a
1333384	REC_WORD	wordpools/wasnorm_wordpool_less_exclusions.txt	LTP218	ltpFR	4	8	-1	TRIANGLE	1504	n/a	-1	n/a	n/a	n/a	n/a	n/a
1334418	REC_WORD	wordpools/wasnorm_wordpool_less_exclusions.txt	LTP218	ltpFR	4	8	-1	PLAID	1080	n/a	-1	n/a	n/a	n/a	n/a	n/a
1336448	REC_WORD	wordpools/wasnorm_wordpool_less_exclusions.txt	LTP218	ltpFR	4	8	-1	SPACE	1345	n/a	-1	n/a	n/a	n/a	n/a	n/a
1337280	REC_WORD	wordpools/wasnorm_wordpool_less_exclusions.txt	LTP218	ltpFR	4	8	-1	TUXEDO	1525	n/a	-1	n/a	n/a	n/a	n/a	n/a
1349624	REC_WORD	wordpools/wasnorm_wordpool_less_exclusions.txt	LTP218	ltpFR	4	8	-1	SUIT	1402	n/a	-1	n/a	n/a	n/a	n/a	n/a
1411967	WORD	wordpools/wasnorm_wordpool_less_exclusions.txt	LTP218	ltpFR	4	9	0	SPARROW	1347	n/a	0	1	0.412841796875	0.57763671875	upper	../fonts/zerothre.ttf
1415828	WORD	wordpools/wasnorm_wordpool_less_exclusions.txt	LTP218	ltpFR	4	9	0	MAID	856	n/a	0	1	0.412841796875	0.57763671875	upper	../fonts/zerothre.ttf
1419672	WORD	wordpools/wasnorm_wordpool_less_exclusions.txt	LTP218	ltpFR	4	9	0	HIGHWAY	707	n/a	1	1	0.412841796875	0.57763671875	upper	../fonts/zerothre.ttf
1423548	WORD	wordpools/wasnorm_wordpool_less_exclusions.txt	LTP218	ltpFR	4	9	0	PIE	1062	n/a	1	1	0.412841796875	0.57763671875	upper	../fonts/zerothre.ttf
1427443	WORD	wordpools/wasnorm_wordpool_less_exclusions.txt	LTP218	ltpFR	4	9	1	CUSTARD	429	n/a	0	0	0.5869140625	0.422607421875	lower	../fonts/amplitud.ttf
1431637	WORD	wordpools/wasnorm_wordpool_less_exclusions.txt	LTP218	ltpFR	4	9	1	COMMANDER	354	n/a	1	0	0.5869140625	0.422607421875	lower	../fonts/amplitud.ttf
1435781	WORD	wordpools/wasnorm_wordpool_less_exclusions.txt	LTP218	ltpFR	4	9	0	LAWYER	806	n/a	0	1	0.412841796875	0.57763671875	upper	../fonts/zerothre.ttf
1439758	WORD	wordpools/wasnorm_wordpool_less_exclusions.txt	LTP218	ltpFR	4	9	0	JUDGE	761	n/a	1	1	0.412841796875	0.57763671875	upper	../fonts/zerothre.ttf
1443702	WORD	wordpools/wasnorm_wordpool_less_exclusions.txt	LTP218	ltpFR	4	9	0	SWEATER	1419	n/a	0	1	0.412841796875	0.57763671875	upper	../fonts/zerothre.ttf
1447630	WORD	wordpools/wasnorm_wordpool_less_exclusions.txt	LTP218	ltpFR	4	9	0	RUG	1215	n/a	1	1	0.412841796875	0.57763671875	upper	../fonts/zerothre.ttf
1451774	WORD	wordpools/wasnorm_wordpool_less_exclusions.txt	LTP218	ltpFR	4	9	1	MAYONNAISE	880	n/a	0	0	0.5869140625	0.422607421875	lower	../fonts/amplitud.ttf
1455851	WORD	wordpools/wasnorm_wordpool_less_exclusions.txt	LTP218	ltpFR	4	9	1	FLESH	579	n/a	1	0	0.5869140625	0.422607421875	lower	../fonts/amplitud.ttf
1459962	WORD	wordpools/wasnorm_wordpool_less_exclusions.txt	LTP218	ltpFR	4	9	1	LOBSTER	837	n/a	1	0	0.5869140625	0.422607421875	lower	../fonts/amplitud.ttf
1464039	WORD	wordpools/wasnorm_wordpool_less_exclusions.txt	LTP218	ltpFR	4	9	1	JACKET	747	n/a	0	0	0.5869140625	0.422607421875	lower	../fonts/amplitud.ttf
1468266	WORD	wordpools/wasnorm_wordpool_less_exclusions.txt	LTP218	ltpFR	4	9	1	MUSTARD	935	n/a	0	0	0.5869140625	0.422607421875	lower	../fonts/amplitud.ttf
1472127	WORD	wordpools/wasnorm_wordpool_less_exclusions.txt	LTP218	ltpFR	4	9	1	TANK	1432	n/a	0	0	0.5869140625	0.422607421875	lower	../fonts/amplitud.ttf
1478052	REC_START	n/a	LTP218	ltpFR	4	9	n/a	n/a	n/a	n/a	n/a	n/a	n/a	n/a	n/a	n/a
1479074	REC_WORD	wordpools/wasnorm_wordpool_less_exclusions.txt	LTP218	ltpFR	4	9	1	LOBSTER	837	n/a	1	n/a	n/a	n/a	n/a	n/a
1479765	REC_WORD	wordpools/wasnorm_wordpool_less_exclusions.txt	LTP218	ltpFR	4	9	1	MUSTARD	935	n/a	0	n/a	n/a	n/a	n/a	n/a
1481733	REC_WORD	wordpools/wasnorm_wordpool_less_exclusions.txt	LTP218	ltpFR	4	9	1	TANK	1432	n/a	0	n/a	n/a	n/a	n/a	n/a
1483394	REC_WORD	wordpools/wasnorm_wordpool_less_exclusions.txt	LTP218	ltpFR	4	9	-1	ATTORNEY	58	n/a	-1	n/a	n/a	n/a	n/a	n/a
1484179	REC_WORD	wordpools/wasnorm_wordpool_less_exclusions.txt	LTP218	ltpFR	4	9	0	JUDGE	761	n/a	1	n/a	n/a	n/a	n/a	n/a
1484668	REC_WORD	wordpools/wasnorm_wordpool_less_exclusions.txt	LTP218	ltpFR	4	9	1	MAYONNAISE	880	n/a	0	n/a	n/a	n/a	n/a	n/a
1502337	REC_WORD	wordpools/wasnorm_wordpool_less_exclusions.txt	LTP218	ltpFR	4	9	0	SPARROW	1347	n/a	0	n/a	n/a	n/a	n/a	n/a
1528083	REC_WORD	wordpools/wasnorm_wordpool_less_exclusions.txt	LTP218	ltpFR	4	9	1	LOBSTER	837	n/a	1	n/a	n/a	n/a	n/a	n/a
1558930	WORD	wordpools/wasnorm_wordpool_less_exclusions.txt	LTP218	ltpFR	4	10	0	COLT	349	n/a	3	1	0.412841796875	0.57763671875	upper	../fonts/zerothre.ttf
1560878	KEY_MSG	n/a	LTP218	ltpFR	4	10	n/a	n/a	n/a	n/a	n/a	n/a	n/a	n/a	n/a	n/a
1563390	WORD	wordpools/wasnorm_wordpool_less_exclusions.txt	LTP218	ltpFR	4	10	0	COAT	333	n/a	0	1	0.412841796875	0.57763671875	upper	../fonts/zerothre.ttf
1567351	WORD	wordpools/wasnorm_wordpool_less_exclusions.txt	LTP218	ltpFR	4	10	0	WINDSHIELD	1612	n/a	0	1	0.412841796875	0.57763671875	upper	../fonts/zerothre.ttf
1571195	WORD	wordpools/wasnorm_wordpool_less_exclusions.txt	LTP218	ltpFR	4	10	0	DASHBOARD	441	n/a	0	1	0.412841796875	0.57763671875	upper	../fonts/zerothre.ttf
1575023	WORD	wordpools/wasnorm_wordpool_less_exclusions.txt	LTP218	ltpFR	4	10	0	GREASE	660	n/a	0	1	0.412841796875	0.57763671875	upper	../fonts/zerothre.ttf
1578934	WORD	wordpools/wasnorm_wordpool_less_exclusions.txt	LTP218	ltpFR	4	10	0	SHEET	1279	n/a	0	1	0.412841796875	0.57763671875	upper	../fonts/zerothre.ttf
1582811	WORD	wordpools/wasnorm_wordpool_less_exclusions.txt	LTP218	ltpFR	4	10	0	CURTAIN	427	n/a	0	1	0.412841796875	0.57763671875	upper	../fonts/zerothre.ttf
1586989	WORD	wordpools/wasnorm_wordpool_less_exclusions.txt	LTP218	ltpFR	4	10	0	SWAMP	1416	n/a	1	1	0.412841796875	0.57763671875	upper	../fonts/zerothre.ttf
1591099	WORD	wordpools/wasnorm_wordpool_less_exclusions.txt	LTP218	ltpFR	4	10	0	FAUCET	555	n/a	1	1	0.412841796875	0.57763671875	upper	../fonts/zerothre.ttf
1595259	WORD	wordpools/wasnorm_wordpool_less_exclusions.txt	LTP218	ltpFR	4	10	0	HOOD	714	n/a	1	1	0.412841796875	0.57763671875	upper	../fonts/zerothre.ttf
1599170	WORD	wordpools/wasnorm_wordpool_less_exclusions.txt	LTP218	ltpFR	4	10	0	MONKEY	911	n/a	1	1	0.412841796875	0.57763671875	upper	../fonts/zerothre.ttf
1603331	WORD	wordpools/wasnorm_wordpool_less_exclusions.txt	LTP218	ltpFR	4	10	0	JUG	762	n/a	1	1	0.412841796875	0.57763671875	upper	../fonts/zerothre.ttf
1607358	WORD	wordpools/wasnorm_wordpool_less_exclusions.txt	LTP218	ltpFR	4	10	0	PICKLE	1059	n/a	0	1	0.412841796875	0.57763671875	upper	../fonts/zerothre.ttf
1611369	WORD	wordpools/wasnorm_wordpool_less_exclusions.txt	LTP218	ltpFR	4	10	0	REFRIGERATOR	1179	n/a	1	1	0.412841796875	0.57763671875	upper	../fonts/zerothre.ttf
1615463	WORD	wordpools/wasnorm_wordpool_less_exclusions.txt	LTP218	ltpFR	4	10	0	CAP	236	n/a	0	1	0.412841796875	0.57763671875	upper	../fonts/zerothre.ttf
1619473	WORD	wordpools/wasnorm_wordpool_less_exclusions.txt	LTP218	ltpFR	4	10	0	HORSE	719	n/a	1	1	0.412841796875	0.57763671875	upper	../fonts/zerothre.ttf
1625465	REC_START	n/a	LTP218	ltpFR	4	10	n/a	n/a	n/a	n/a	n/a	n/a	n/a	n/a	n/a	n/a
1626059	REC_WORD	wordpools/wasnorm_wordpool_less_exclusions.txt	LTP218	ltpFR	4	10	0	HORSE	719	n/a	1	n/a	n/a	n/a	n/a	n/a
1626607	REC_WORD	wordpools/wasnorm_wordpool_less_exclusions.txt	LTP218	ltpFR	4	10	0	WINDSHIELD	1612	n/a	0	n/a	n/a	n/a	n/a	n/a
1627760	REC_WORD	wordpools/wasnorm_wordpool_less_exclusions.txt	LTP218	ltpFR	4	10	0	DASHBOARD	441	n/a	0	n/a	n/a	n/a	n/a	n/a
1629027	REC_WORD	wordpools/wasnorm_wordpool_less_exclusions.txt	LTP218	ltpFR	4	10	0	COAT	333	n/a	0	n/a	n/a	n/a	n/a	n/a
1629506	REC_WORD	wordpools/wasnorm_wordpool_less_exclusions.txt	LTP218	ltpFR	4	10	1	JACKET	747	n/a	0	n/a	n/a	n/a	n/a	n/a
1654070	REC_WORD	wordpools/wasnorm_wordpool_less_exclusions.txt	LTP218	ltpFR	4	10	0	MONKEY	911	n/a	1	n/a	n/a	n/a	n/a	n/a
1665214	REC_WORD	wordpools/wasnorm_wordpool_less_exclusions.txt	LTP218	ltpFR	4	10	0	JUDGE	761	n/a	1	n/a	n/a	n/a	n/a	n/a
1665953	REC_WORD	wordpools/wasnorm_wordpool_less_exclusions.txt	LTP218	ltpFR	4	10	0	LAWYER	806	n/a	0	n/a	n/a	n/a	n/a	n/a
1704545	WORD	wordpools/wasnorm_wordpool_less_exclusions.txt	LTP218	ltpFR	4	11	0	GOO	648	n/a	0	1	0.412841796875	0.57763671875	upper	../fonts/zerothre.ttf
1708457	WORD	wordpools/wasnorm_wordpool_less_exclusions.txt	LTP218	ltpFR	4	11	0	TIGER	1467	n/a	1	1	0.412841796875	0.57763671875	upper	../fonts/zerothre.ttf
1712567	WORD	wordpools/wasnorm_wordpool_less_exclusions.txt	LTP218	ltpFR	4	11	0	MONASTERY	907	n/a	1	1	0.412841796875	0.57763671875	upper	../fonts/zerothre.ttf
1716511	WORD	wordpools/wasnorm_wordpool_less_exclusions.txt	LTP218	ltpFR	4	11	0	PUCK	1138	n/a	0	1	0.412841796875	0.57763671875	upper	../fonts/zerothre.ttf
1720705	WORD	wordpools/wasnorm_wordpool_less_exclusions.txt	LTP218	ltpFR	4	11	0	MOOSE	915	n/a	1	1	0.412841796875	0.57763671875	upper	../fonts/zerothre.ttf
1724616	WORD	wordpools/wasnorm_wordpool_less_exclusions.txt	LTP218	ltpFR	4	11	0	PRIEST	1122	n/a	1	1	0.412841796875	0.57763671875	upper	../fonts/zerothre.ttf
1728477	WORD	wordpools/wasnorm_wordpool_less_exclusions.txt	LTP218	ltpFR	4	11	0	INFANT	737	n/a	0	1	0.412841796875	0.57763671875	upper	../fonts/zerothre.ttf
1732553	WORD	wordpools/wasnorm_wordpool_less_exclusions.txt	LTP218	ltpFR	4	11	0	KEEPER	769	n/a	0	1	0.412841796875	0.57763671875	upper	../fonts/zerothre.ttf
1736399	WORD	wordpools/wasnorm_wordpool_less_exclusions.txt	LTP218	ltpFR	4	11	0	FARM	552	n/a	1	1	0.412841796875	0.57763671875	upper	../fonts/zerothre.ttf
1740443	WORD	wordpools/wasnorm_wordpool_less_exclusions.txt	LTP218	ltpFR	4	11	0	CAMEL	223	n/a	1	1	0.412841796875	0.57763671875	upper	../fonts/zerothre.ttf
1744636	WORD	wordpools/wasnorm_wordpool_less_exclusions.txt	LTP218	ltpFR	4	11	0	HOSE	720	n/a	0	1	0.412841796875	0.57763671875	upper	../fonts/zerothre.ttf
1748714	WORD	wordpools/wasnorm_wordpool_less_exclusions.txt	LTP218	ltpFR	4	11	0	LIBRARY	816	n/a	1	1	0.412841796875	0.57763671875	upper	../fonts/zerothre.ttf
1752924	WORD	wordpools/wasnorm_wordpool_less_exclusions.txt	LTP218	ltpFR	4	11	0	SHELF	1280	n/a	0	1	0.412841796875	0.57763671875	upper	../fonts/zerothre.ttf
1757068	WORD	wordpools/wasnorm_wordpool_less_exclusions.txt	LTP218	ltpFR	4	11	0	MEAT	883	n/a	0	1	0.412841796875	0.57763671875	upper	../fonts/zerothre.ttf
1761012	WORD	wordpools/wasnorm_wordpool_less_exclusions.txt	LTP218	ltpFR	4	11	0	DANDRUFF	439	n/a	0	1	0.412841796875	0.57763671875	upper	../fonts/zerothre.ttf
1764973	WORD	wordpools/wasnorm_wordpool_less_exclusions.txt	LTP218	ltpFR	4	11	0	BRUNETTE	181	n/a	0	1	0.412841796875	0.57763671875	upper	../fonts/zerothre.ttf
1770931	REC_START	n/a	LTP218	ltpFR	4	11	n/a	n/a	n/a	n/a	n/a	n/a	n/a	n/a	n/a	n/a
1771753	REC_WORD	wordpools/wasnorm_wordpool_less_exclusions.txt	LTP218	ltpFR	4	11	0	BRUNETTE	181	n/a	0	n/a	n/a	n/a	n/a	n/a
1772437	REC_WORD	wordpools/wasnorm_wordpool_less_exclusions.txt	LTP218	ltpFR	4	11	0	MEAT	883	n/a	0	n/a	n/a	n/a	n/a	n/a
1772881	REC_WORD	wordpools/wasnorm_wordpool_less_exclusions.txt	LTP218	ltpFR	4	11	0	LIBRARY	816	n/a	1	n/a	n/a	n/a	n/a	n/a
1782335	REC_WORD	wordpools/wasnorm_wordpool_less_exclusions.txt	LTP218	ltpFR	4	11	0	SHELF	1280	n/a	0	n/a	n/a	n/a	n/a	n/a
1786461	REC_WORD	wordpools/wasnorm_wordpool_less_exclusions.txt	LTP218	ltpFR	4	11	0	GOO	648	n/a	0	n/a	n/a	n/a	n/a	n/a
1788326	REC_WORD	wordpools/wasnorm_wordpool_less_exclusions.txt	LTP218	ltpFR	4	11	0	TIGER	1467	n/a	1	n/a	n/a	n/a	n/a	n/a
1848298	WORD	wordpools/wasnorm_wordpool_less_exclusions.txt	LTP218	ltpFR	4	12	-1	OUTFIT	988	n/a	-1	1	1.0	1.0	upper	../fonts/Verdana.ttf
1852325	WORD	wordpools/wasnorm_wordpool_less_exclusions.txt	LTP218	ltpFR	4	12	-1	HANGER	687	n/a	-1	1	1.0	1.0	upper	../fonts/Verdana.ttf
1856551	WORD	wordpools/wasnorm_wordpool_less_exclusions.txt	LTP218	ltpFR	4	12	-1	DORM	488	n/a	-1	1	1.0	1.0	upper	../fonts/Verdana.ttf
1860430	WORD	wordpools/wasnorm_wordpool_less_exclusions.txt	LTP218	ltpFR	4	12	-1	DOLL	481	n/a	-1	1	1.0	1.0	upper	../fonts/Verdana.ttf
1864490	WORD	wordpools/wasnorm_wordpool_less_exclusions.txt	LTP218	ltpFR	4	12	-1	STREAM	1392	n/a	-1	1	1.0	1.0	upper	../fonts/Verdana.ttf
1868684	WORD	wordpools/wasnorm_wordpool_less_exclusions.txt	LTP218	ltpFR	4	12	-1	BELL	118	n/a	-1	1	1.0	1.0	upper	../fonts/Verdana.ttf
1872878	WORD	wordpools/wasnorm_wordpool_less_exclusions.txt	LTP218	ltpFR	4	12	-1	INSECT	740	n/a	-1	1	1.0	1.0	upper	../fonts/Verdana.ttf
1876922	WORD	wordpools/wasnorm_wordpool_less_exclusions.txt	LTP218	ltpFR	4	12	-1	TENT	1449	n/a	-1	1	1.0	1.0	upper	../fonts/Verdana.ttf
1881066	WORD	wordpools/wasnorm_wordpool_less_exclusions.txt	LTP218	ltpFR	4	12	-1	CHIEF	298	n/a	-1	1	1.0	1.0	upper	../fonts/Verdana.ttf
1885193	WORD	wordpools/wasnorm_wordpool_less_exclusions.txt	LTP218	ltpFR	4	12	-1	GOLD	647	n/a	-1	1	1.0	1.0	upper	../fonts/Verdana.ttf
1889204	WORD	wordpools/wasnorm_wordpool_less_exclusions.txt	LTP218	ltpFR	4	12	-1	TANGERINE	1431	n/a	-1	1	1.0	1.0	upper	../fonts/Verdana.ttf
1893131	WORD	wordpools/wasnorm_wordpool_less_exclusions.txt	LTP218	ltpFR	4	12	-1	DRESS	495	n/a	-1	1	1.0	1.0	upper	../fonts/Verdana.ttf
1897175	WORD	wordpools/wasnorm_wordpool_less_exclusions.txt	LTP218	ltpFR	4	12	-1	SUSPECT	1415	n/a	-1	1	1.0	1.0	upper	../fonts/Verdana.ttf
1901252	WORD	wordpools/wasnorm_wordpool_less_exclusions.txt	LTP218	ltpFR	4	12	-1	CATERPILLAR	259	n/a	-1	1	1.0	1.0	upper	../fonts/Verdana.ttf
1905363	WORD	wordpools/wasnorm_wordpool_less_exclusions.txt	LTP218	ltpFR	4	12	-1	CORD	379	n/a	-1	1	1.0	1.0	upper	../fonts/Verdana.ttf
1909423	WORD	wordpools/wasnorm_wordpool_less_exclusions.txt	LTP218	ltpFR	4	12	-1	COSTUME	383	n/a	-1	1	1.0	1.0	upper	../fonts/Verdana.ttf
1915166	REC_START	n/a	LTP218	ltpFR	4	12	n/a	n/a	n/a	n/a	n/a	n/a	n/a	n/a	n/a	n/a
1915759	REC_WORD	wordpools/wasnorm_wordpool_less_exclusions.txt	LTP218	ltpFR	4	12	-1	COSTUME	383	n/a	-1	n/a	n/a	n/a	n/a	n/a
1916362	REC_WORD	wordpools/wasnorm_wordpool_less_exclusions.txt	LTP218	ltpFR	4	12	-1	OUTFIT	988	n/a	-1	n/a	n/a	n/a	n/a	n/a
1916912	REC_WORD	wordpools/wasnorm_wordpool_less_exclusions.txt	LTP218	ltpFR	4	12	-1	TANGERINE	1431	n/a	-1	n/a	n/a	n/a	n/a	n/a
1922399	REC_WORD	wordpools/wasnorm_wordpool_less_exclusions.txt	LTP218	ltpFR	4	12	-1	GOLD	647	n/a	-1	n/a	n/a	n/a	n/a	n/a
1940179	REC_WORD	wordpools/wasnorm_wordpool_less_exclusions.txt	LTP218	ltpFR	4	12	-1	DOLL	481	n/a	-1	n/a	n/a	n/a	n/a	n/a
1951468	REC_WORD	wordpools/wasnorm_wordpool_less_exclusions.txt	LTP218	ltpFR	4	12	-1	HANGER	687	n/a	-1	n/a	n/a	n/a	n/a	n/a
1990769	REST_REWET	n/a	LTP218	ltpFR	4	12	n/a	n/a	n/a	n/a	n/a	n/a	n/a	n/a	n/a	n/a
2236484	WORD	wordpools/wasnorm_wordpool_less_exclusions.txt	LTP218	ltpFR	4	13	0	ZUCCHINI	1638	n/a	2	1	0.412841796875	0.57763671875	upper	../fonts/zerothre.ttf
2238199	KEY_MSG	n/a	LTP218	ltpFR	4	13	n/a	n/a	n/a	n/a	n/a	n/a	n/a	n/a	n/a	n/a
2240795	WORD	wordpools/wasnorm_wordpool_less_exclusions.txt	LTP218	ltpFR	4	13	0	TILE	1468	n/a	0	1	0.412841796875	0.57763671875	upper	../fonts/zerothre.ttf
2244823	WORD	wordpools/wasnorm_wordpool_less_exclusions.txt	LTP218	ltpFR	4	13	0	PLUMBER	1091	n/a	1	1	0.412841796875	0.57763671875	upper	../fonts/zerothre.ttf
2248950	WORD	wordpools/wasnorm_wordpool_less_exclusions.txt	LTP218	ltpFR	4	13	0	BRIDGE	174	n/a	1	1	0.412841796875	0.57763671875	upper	../fonts/zerothre.ttf
2253127	WORD	wordpools/wasnorm_wordpool_less_exclusions.txt	LTP218	ltpFR	4	13	0	TREAD	1499	n/a	0	1	0.412841796875	0.57763671875	upper	../fonts/zerothre.ttf
2257054	WORD	wordpools/wasnorm_wordpool_less_exclusions.txt	LTP218	ltpFR	4	13	0	BUGGY	188	n/a	0	1	0.412841796875	0.57763671875	upper	../fonts/zerothre.ttf
2261215	WORD	wordpools/wasnorm_wordpool_less_exclusions.txt	LTP218	ltpFR	4	13	0	LIMOUSINE	824	n/a	1	1	0.412841796875	0.57763671875	upper	../fonts/zerothre.ttf
2265142	WORD	wordpools/wasnorm_wordpool_less_exclusions.txt	LTP218	ltpFR	4	13	0	BARN	89	n/a	1	1	0.412841796875	0.57763671875	upper	../fonts/zerothre.ttf
2269020	WORD	wordpools/wasnorm_wordpool_less_exclusions.txt	LTP218	ltpFR	4	13	0	LAMB	797	n/a	0	1	0.412841796875	0.57763671875	upper	../fonts/zerothre.ttf
2272881	WORD	wordpools/wasnorm_wordpool_less_exclusions.txt	LTP218	ltpFR	4	13	0	COPIER	377	n/a	0	1	0.412841796875	0.57763671875	upper	../fonts/zerothre.ttf
2276858	WORD	wordpools/wasnorm_wordpool_less_exclusions.txt	LTP218	ltpFR	4	13	0	WEB	1598	n/a	0	1	0.412841796875	0.57763671875	upper	../fonts/zerothre.ttf
2281052	WORD	wordpools/wasnorm_wordpool_less_exclusions.txt	LTP218	ltpFR	4	13	0	CLAM	315	n/a	0	1	0.412841796875	0.57763671875	upper	../fonts/zerothre.ttf
2284896	WORD	wordpools/wasnorm_wordpool_less_exclusions.txt	LTP218	ltpFR	4	13	0	PEARL	1034	n/a	0	1	0.412841796875	0.57763671875	upper	../fonts/zerothre.ttf
2289090	WORD	wordpools/wasnorm_wordpool_less_exclusions.txt	LTP218	ltpFR	4	13	0	WALRUS	1585	n/a	1	1	0.412841796875	0.57763671875	upper	../fonts/zerothre.ttf
2293217	WORD	wordpools/wasnorm_wordpool_less_exclusions.txt	LTP218	ltpFR	4	13	0	CARRIAGE	248	n/a	1	1	0.412841796875	0.57763671875	upper	../fonts/zerothre.ttf
2297061	WORD	wordpools/wasnorm_wordpool_less_exclusions.txt	LTP218	ltpFR	4	13	0	VEGETABLE	1552	n/a	0	1	0.412841796875	0.57763671875	upper	../fonts/zerothre.ttf
2303036	REC_START	n/a	LTP218	ltpFR	4	13	n/a	n/a	n/a	n/a	n/a	n/a	n/a	n/a	n/a	n/a
2303679	REC_WORD	wordpools/wasnorm_wordpool_less_exclusions.txt	LTP218	ltpFR	4	13	0	BUGGY	188	n/a	0	n/a	n/a	n/a	n/a	n/a
2304143	REC_WORD	wordpools/wasnorm_wordpool_less_exclusions.txt	LTP218	ltpFR	4	13	0	CARRIAGE	248	n/a	1	n/a	n/a	n/a	n/a	n/a
2304757	REC_WORD	wordpools/wasnorm_wordpool_less_exclusions.txt	LTP218	ltpFR	4	13	0	VEGETABLE	1552	n/a	0	n/a	n/a	n/a	n/a	n/a
2305655	REC_WORD	wordpools/wasnorm_wordpool_less_exclusions.txt	LTP218	ltpFR	4	13	0	BARN	89	n/a	1	n/a	n/a	n/a	n/a	n/a
2312370	REC_WORD	wordpools/wasnorm_wordpool_less_exclusions.txt	LTP218	ltpFR	4	13	0	LIMOUSINE	824	n/a	1	n/a	n/a	n/a	n/a	n/a
2340650	REC_WORD	wordpools/wasnorm_wordpool_less_exclusions.txt	LTP218	ltpFR	4	13	0	VEGETABLE	1552	n/a	0	n/a	n/a	n/a	n/a	n/a
2346098	REC_WORD	wordpools/wasnorm_wordpool_less_exclusions.txt	LTP218	ltpFR	4	13	-1	BUNNY	198	n/a	-1	n/a	n/a	n/a	n/a	n/a
2383033	WORD	wordpools/wasnorm_wordpool_less_exclusions.txt	LTP218	ltpFR	4	14	0	TIMBER	1469	n/a	1	1	0.412841796875	0.57763671875	upper	../fonts/zerothre.ttf
2387160	WORD	wordpools/wasnorm_wordpool_less_exclusions.txt	LTP218	ltpFR	4	14	0	PIT	1077	n/a	1	1	0.412841796875	0.57763671875	upper	../fonts/zerothre.ttf
2391154	WORD	wordpools/wasnorm_wordpool_less_exclusions.txt	LTP218	ltpFR	4	14	0	GODDESS	646	n/a	1	1	0.412841796875	0.57763671875	upper	../fonts/zerothre.ttf
2395065	WORD	wordpools/wasnorm_wordpool_less_exclusions.txt	LTP218	ltpFR	4	14	0	WATERFALL	1595	n/a	1	1	0.412841796875	0.57763671875	upper	../fonts/zerothre.ttf
2398992	WORD	wordpools/wasnorm_wordpool_less_exclusions.txt	LTP218	ltpFR	4	14	1	CANARY	227	n/a	1	0	0.5869140625	0.422607421875	lower	../fonts/amplitud.ttf
2403169	WORD	wordpools/wasnorm_wordpool_less_exclusions.txt	LTP218	ltpFR	4	14	1	PELICAN	1039	n/a	1	0	0.5869140625	0.422607421875	lower	../fonts/amplitud.ttf
2407280	WORD	wordpools/wasnorm_wordpool_less_exclusions.txt	LTP218	ltpFR	4	14	1	BLOSSOM	138	n/a	0	0	0.5869140625	0.422607421875	lower	../fonts/amplitud.ttf
2411274	WORD	wordpools/wasnorm_wordpool_less_exclusions.txt	LTP218	ltpFR	4	14	1	CACTUS	215	n/a	1	0	0.5869140625	0.422607421875	lower	../fonts/amplitud.ttf
2415500	WORD	wordpools/wasnorm_wordpool_less_exclusions.txt	LTP218	ltpFR	4	14	1	JUPITER	765	n/a	1	0	0.5869140625	0.422607421875	lower	../fonts/amplitud.ttf
2419395	WORD	wordpools/wasnorm_wordpool_less_exclusions.txt	LTP218	ltpFR	4	14	0	ACROBAT	4	n/a	1	1	0.412841796875	0.57763671875	upper	../fonts/zerothre.ttf
2423256	WORD	wordpools/wasnorm_wordpool_less_exclusions.txt	LTP218	ltpFR	4	14	0	FEATHER	557	n/a	0	1	0.412841796875	0.57763671875	upper	../fonts/zerothre.ttf
2427433	WORD	wordpools/wasnorm_wordpool_less_exclusions.txt	LTP218	ltpFR	4	14	1	SWING	1421	n/a	0	0	0.5869140625	0.422607421875	lower	../fonts/amplitud.ttf
2431377	WORD	wordpools/wasnorm_wordpool_less_exclusions.txt	LTP218	ltpFR	4	14	1	SEED	1266	n/a	1	0	0.5869140625	0.422607421875	lower	../fonts/amplitud.ttf
2435338	WORD	wordpools/wasnorm_wordpool_less_exclusions.txt	LTP218	ltpFR	4	14	1	DISC	473	n/a	0	0	0.5869140625	0.422607421875	lower	../fonts/amplitud.ttf
2439547	WORD	wordpools/wasnorm_wordpool_less_exclusions.txt	LTP218	ltpFR	4	14	0	PENGUIN	1044	n/a	0	1	0.412841796875	0.57763671875	upper	../fonts/zerothre.ttf
2443692	WORD	wordpools/wasnorm_wordpool_less_exclusions.txt	LTP218	ltpFR	4	14	0	SHRUB	1299	n/a	0	1	0.412841796875	0.57763671875	upper	../fonts/zerothre.ttf
2449566	REC_START	n/a	LTP218	ltpFR	4	14	n/a	n/a	n/a	n/a	n/a	n/a	n/a	n/a	n/a	n/a
2450394	REC_WORD	wordpools/wasnorm_wordpool_less_exclusions.txt	LTP218	ltpFR	4	14	0	SHRUB	1299	n/a	0	n/a	n/a	n/a	n/a	n/a
2450903	REC_WORD	wordpools/wasnorm_wordpool_less_exclusions.txt	LTP218	ltpFR	4	14	1	SEED	1266	n/a	1	n/a	n/a	n/a	n/a	n/a
2453203	REC_WORD	wordpools/wasnorm_wordpool_less_exclusions.txt	LTP218	ltpFR	4	14	1	JUPITER	765	n/a	1	n/a	n/a	n/a	n/a	n/a
2454170	REC_WORD	wordpools/wasnorm_wordpool_less_exclusions.txt	LTP218	ltpFR	4	14	1	PELICAN	1039	n/a	1	n/a	n/a	n/a	n/a	n/a
2454814	REC_WORD	wordpools/wasnorm_wordpool_less_exclusions.txt	LTP218	ltpFR	4	14	1	CANARY	227	n/a	1	n/a	n/a	n/a	n/a	n/a
2477208	REC_WORD	wordpools/wasnorm_wordpool_less_exclusions.txt	LTP218	ltpFR	4	14	0	WALRUS	1585	n/a	1	n/a	n/a	n/a	n/a	n/a
2484701	REC_WORD	wordpools/wasnorm_wordpool_less_exclusions.txt	LTP218	ltpFR	4	14	0	PIT	1077	n/a	1	n/a	n/a	n/a	n/a	n/a
2487629	REC_WORD	wordpools/wasnorm_wordpool_less_exclusions.txt	LTP218	ltpFR	4	14	0	WATERFALL	1595	n/a	1	n/a	n/a	n/a	n/a	n/a
2528399	WORD	wordpools/wasnorm_wordpool_less_exclusions.txt	LTP218	ltpFR	4	15	1	CARROT	249	n/a	1	0	0.5869140625	0.422607421875	lower	../fonts/amplitud.ttf
2532558	WORD	wordpools/wasnorm_wordpool_less_exclusions.txt	LTP218	ltpFR	4	15	1	CELERY	266	n/a	1	0	0.5869140625	0.422607421875	lower	../fonts/amplitud.ttf
2536753	WORD	wordpools/wasnorm_wordpool_less_exclusions.txt	LTP218	ltpFR	4	15	1	TRASH	1497	n/a	0	0	0.5869140625	0.422607421875	lower	../fonts/amplitud.ttf
2540664	WORD	wordpools/wasnorm_wordpool_less_exclusions.txt	LTP218	ltpFR	4	15	1	REBEL	1172	n/a	1	0	0.5869140625	0.422607421875	lower	../fonts/amplitud.ttf
2544675	WORD	wordpools/wasnorm_wordpool_less_exclusions.txt	LTP218	ltpFR	4	15	1	HEAD	695	n/a	1	0	0.5869140625	0.422607421875	lower	../fonts/amplitud.ttf
2548735	WORD	wordpools/wasnorm_wordpool_less_exclusions.txt	LTP218	ltpFR	4	15	1	CARNIVAL	245	n/a	0	0	0.5869140625	0.422607421875	lower	../fonts/amplitud.ttf
2552746	WORD	wordpools/wasnorm_wordpool_less_exclusions.txt	LTP218	ltpFR	4	15	1	CLOWN	330	n/a	1	0	0.5869140625	0.422607421875	lower	../fonts/amplitud.ttf
2556740	WORD	wordpools/wasnorm_wordpool_less_exclusions.txt	LTP218	ltpFR	4	15	1	CHIPMUNK	304	n/a	1	0	0.5869140625	0.422607421875	lower	../fonts/amplitud.ttf
2560584	WORD	wordpools/wasnorm_wordpool_less_exclusions.txt	LTP218	ltpFR	4	15	1	SEAFOOD	1260	n/a	1	0	0.5869140625	0.422607421875	lower	../fonts/amplitud.ttf
2564428	WORD	wordpools/wasnorm_wordpool_less_exclusions.txt	LTP218	ltpFR	4	15	1	HEADBAND	696	n/a	0	0	0.5869140625	0.422607421875	lower	../fonts/amplitud.ttf
2568323	WORD	wordpools/wasnorm_wordpool_less_exclusions.txt	LTP218	ltpFR	4	15	1	TROUT	1511	n/a	1	0	0.5869140625	0.422607421875	lower	../fonts/amplitud.ttf
2572167	WORD	wordpools/wasnorm_wordpool_less_exclusions.txt	LTP218	ltpFR	4	15	1	SARDINE	1235	n/a	1	0	0.5869140625	0.422607421875	lower	../fonts/amplitud.ttf
2576244	WORD	wordpools/wasnorm_wordpool_less_exclusions.txt	LTP218	ltpFR	4	15	1	MAPLE	866	n/a	1	0	0.5869140625	0.422607421875	lower	../fonts/amplitud.ttf
2580455	WORD	wordpools/wasnorm_wordpool_less_exclusions.txt	LTP218	ltpFR	4	15	1	MAILMAN	858	n/a	1	0	0.5869140625	0.422607421875	lower	../fonts/amplitud.ttf
2584432	WORD	wordpools/wasnorm_wordpool_less_exclusions.txt	LTP218	ltpFR	4	15	1	WICK	1607	n/a	0	0	0.5869140625	0.422607421875	lower	../fonts/amplitud.ttf
2588476	WORD	wordpools/wasnorm_wordpool_less_exclusions.txt	LTP218	ltpFR	4	15	1	PATIO	1025	n/a	0	0	0.5869140625	0.422607421875	lower	../fonts/amplitud.ttf
2594384	REC_START	n/a	LTP218	ltpFR	4	15	n/a	n/a	n/a	n/a	n/a	n/a	n/a	n/a	n/a	n/a
2595102	REC_WORD	wordpools/wasnorm_wordpool_less_exclusions.txt	LTP218	ltpFR	4	15	1	SEAFOOD	1260	n/a	1	n/a	n/a	n/a	n/a	n/a
2595885	REC_WORD	wordpools/wasnorm_wordpool_less_exclusions.txt	LTP218	ltpFR	4	15	1	TROUT	1511	n/a	1	n/a	n/a	n/a	n/a	n/a
2598602	REC_WORD	wordpools/wasnorm_wordpool_less_exclusions.txt	LTP218	ltpFR	4	15	1	SARDINE	1235	n/a	1	n/a	n/a	n/a	n/a	n/a
2599567	REC_WORD	wordpools/wasnorm_wordpool_less_exclusions.txt	LTP218	ltpFR	4	15	1	PATIO	1025	n/a	0	n/a	n/a	n/a	n/a	n/a
2611070	REC_WORD	wordpools/wasnorm_wordpool_less_exclusions.txt	LTP218	ltpFR	4	15	1	HEAD	695	n/a	1	n/a	n/a	n/a	n/a	n/a
2673449	WORD	wordpools/wasnorm_wordpool_less_exclusions.txt	LTP218	ltpFR	4	16	1	PARSLEY	1016	n/a	0	0	0.5869140625	0.422607421875	lower	../fonts/amplitud.ttf
2677410	WORD	wordpools/wasnorm_wordpool_less_exclusions.txt	LTP218	ltpFR	4	16	1	VENT	1556	n/a	0	0	0.5869140625	0.422607421875	lower	../fonts/amplitud.ttf
2681587	WORD	wordpools/wasnorm_wordpool_less_exclusions.txt	LTP218	ltpFR	4	16	0	ELF	525	n/a	0	1	0.412841796875	0.57763671875	upper	../fonts/zerothre.ttf
2685631	WORD	wordpools/wasnorm_wordpool_less_exclusions.txt	LTP218	ltpFR	4	16	0	ANTLER	29	n/a	1	1	0.412841796875	0.57763671875	upper	../fonts/zerothre.ttf
2689658	WORD	wordpools/wasnorm_wordpool_less_exclusions.txt	LTP218	ltpFR	4	16	0	COMPANION	357	n/a	1	1	0.412841796875	0.57763671875	upper	../fonts/zerothre.ttf
2693485	WORD	wordpools/wasnorm_wordpool_less_exclusions.txt	LTP218	ltpFR	4	16	0	FRIEND	606	n/a	1	1	0.412841796875	0.57763671875	upper	../fonts/zerothre.ttf
2697430	WORD	wordpools/wasnorm_wordpool_less_exclusions.txt	LTP218	ltpFR	4	16	1	SNACK	1331	n/a	0	0	0.5869140625	0.422607421875	lower	../fonts/amplitud.ttf
2701640	WORD	wordpools/wasnorm_wordpool_less_exclusions.txt	LTP218	ltpFR	4	16	1	BLENDER	136	n/a	0	0	0.5869140625	0.422607421875	lower	../fonts/amplitud.ttf
2705718	WORD	wordpools/wasnorm_wordpool_less_exclusions.txt	LTP218	ltpFR	4	16	0	MARKET	871	n/a	1	1	0.412841796875	0.57763671875	upper	../fonts/zerothre.ttf
2709544	WORD	wordpools/wasnorm_wordpool_less_exclusions.txt	LTP218	ltpFR	4	16	0	ASH	44	n/a	0	1	0.412841796875	0.57763671875	upper	../fonts/zerothre.ttf
2713639	WORD	wordpools/wasnorm_wordpool_less_exclusions.txt	LTP218	ltpFR	4	16	0	PUMP	1141	n/a	0	1	0.412841796875	0.57763671875	upper	../fonts/zerothre.ttf
2717467	WORD	wordpools/wasnorm_wordpool_less_exclusions.txt	LTP218	ltpFR	4	16	0	BEGGAR	117	n/a	0	1	0.412841796875	0.57763671875	upper	../fonts/zerothre.ttf
2721560	WORD	wordpools/wasnorm_wordpool_less_exclusions.txt	LTP218	ltpFR	4	16	1	MOUTH	926	n/a	1	0	0.5869140625	0.422607421875	lower	../fonts/amplitud.ttf
2725621	WORD	wordpools/wasnorm_wordpool_less_exclusions.txt	LTP218	ltpFR	4	16	1	GUM	672	n/a	0	0	0.5869140625	0.422607421875	lower	../fonts/amplitud.ttf
2729498	WORD	wordpools/wasnorm_wordpool_less_exclusions.txt	LTP218	ltpFR	4	16	1	NICOTINE	951	n/a	0	0	0.5869140625	0.422607421875	lower	../fonts/amplitud.ttf
2733359	WORD	wordpools/wasnorm_wordpool_less_exclusions.txt	LTP218	ltpFR	4	16	1	ELECTRICIAN	521	n/a	1	0	0.5869140625	0.422607421875	lower	../fonts/amplitud.ttf
2739351	REC_START	n/a	LTP218	ltpFR	4	16	n/a	n/a	n/a	n/a	n/a	n/a	n/a	n/a	n/a	n/a
2740039	REC_WORD	wordpools/wasnorm_wordpool_less_exclusions.txt	LTP218	ltpFR	4	16	0	ASH	44	n/a	0	n/a	n/a	n/a	n/a	n/a
2740573	REC_WORD	wordpools/wasnorm_wordpool_less_exclusions.txt	LTP218	ltpFR	4	16	0	PUMP	1141	n/a	0	n/a	n/a	n/a	n/a	n/a
2740868	REC_WORD	wordpools/wasnorm_wordpool_less_exclusions.txt	LTP218	ltpFR	4	16	1	ELECTRICIAN	521	n/a	1	n/a	n/a	n/a	n/a	n/a
2742856	REC_WORD	wordpools/wasnorm_wordpool_less_exclusions.txt	LTP218	ltpFR	4	16	0	FRIEND	606	n/a	1	n/a	n/a	n/a	n/a	n/a
2743257	REC_WORD	wordpools/wasnorm_wordpool_less_exclusions.txt	LTP218	ltpFR	4	16	0	COMPANION	357	n/a	1	n/a	n/a	n/a	n/a	n/a
2748295	REC_WORD	wordpools/wasnorm_wordpool_less_exclusions.txt	LTP218	ltpFR	4	16	0	ELF	525	n/a	0	n/a	n/a	n/a	n/a	n/a
2778651	REC_WORD	wordpools/wasnorm_wordpool_less_exclusions.txt	LTP218	ltpFR	4	16	1	PARSLEY	1016	n/a	0	n/a	n/a	n/a	n/a	n/a
2836555	REC_START	n/a	LTP218	ltpFR	4	n/a	n/a	n/a	n/a	n/a	n/a	n/a	n/a	n/a	n/a	n/a
2837587	FFR_REC_WORD	wordpools/wasnorm_wordpool_less_exclusions.txt	LTP218	ltpFR	4	n/a	0	PENGUIN	1044	n/a	0	n/a	n/a	n/a	n/a	n/a
2838122	FFR_REC_WORD	wordpools/wasnorm_wordpool_less_exclusions.txt	LTP218	ltpFR	4	n/a	0	ELF	525	n/a	0	n/a	n/a	n/a	n/a	n/a
2840047	FFR_REC_WORD	wordpools/wasnorm_wordpool_less_exclusions.txt	LTP218	ltpFR	4	n/a	1	SARDINE	1235	n/a	1	n/a	n/a	n/a	n/a	n/a
2841982	FFR_REC_WORD	wordpools/wasnorm_wordpool_less_exclusions.txt	LTP218	ltpFR	4	n/a	0	CLAM	315	n/a	0	n/a	n/a	n/a	n/a	n/a
2842546	FFR_REC_WORD	wordpools/wasnorm_wordpool_less_exclusions.txt	LTP218	ltpFR	4	n/a	0	PEARL	1034	n/a	0	n/a	n/a	n/a	n/a	n/a
2844182	FFR_REC_WORD	wordpools/wasnorm_wordpool_less_exclusions.txt	LTP218	ltpFR	4	n/a	-1	ATTORNEY	58	n/a	-1	n/a	n/a	n/a	n/a	n/a
2844965	FFR_REC_WORD	wordpools/wasnorm_wordpool_less_exclusions.txt	LTP218	ltpFR	4	n/a	0	LAWYER	806	n/a	0	n/a	n/a	n/a	n/a	n/a
2846996	FFR_REC_WORD	wordpools/wasnorm_wordpool_less_exclusions.txt	LTP218	ltpFR	4	n/a	0	JUDGE	761	n/a	1	n/a	n/a	n/a	n/a	n/a
2847891	FFR_REC_WORD	wordpools/wasnorm_wordpool_less_exclusions.txt	LTP218	ltpFR	4	n/a	1	MAILMAN	858	n/a	1	n/a	n/a	n/a	n/a	n/a
2850902	FFR_REC_WORD	wordpools/wasnorm_wordpool_less_exclusions.txt	LTP218	ltpFR	4	n/a	1	HERD	705	n/a	1	n/a	n/a	n/a	n/a	n/a
2852424	FFR_REC_WORD	wordpools/wasnorm_wordpool_less_exclusions.txt	LTP218	ltpFR	4	n/a	0	MOOSE	915	n/a	1	n/a	n/a	n/a	n/a	n/a
2859368	FFR_REC_WORD	wordpools/wasnorm_wordpool_less_exclusions.txt	LTP218	ltpFR	4	n/a	0	CLIFF	322	n/a	1	n/a	n/a	n/a	n/a	n/a
2861239	FFR_REC_WORD	wordpools/wasnorm_wordpool_less_exclusions.txt	LTP218	ltpFR	4	n/a	-1	OCEAN	970	n/a	-1	n/a	n/a	n/a	n/a	n/a
2865095	FFR_REC_WORD	wordpools/wasnorm_wordpool_less_exclusions.txt	LTP218	ltpFR	4	n/a	1	SARDINE	1235	n/a	1	n/a	n/a	n/a	n/a	n/a
2869519	FFR_REC_WORD	wordpools/wasnorm_wordpool_less_exclusions.txt	LTP218	ltpFR	4	n/a	0	COMPANION	357	n/a	1	n/a	n/a	n/a	n/a	n/a
2870301	FFR_REC_WORD	wordpools/wasnorm_wordpool_less_exclusions.txt	LTP218	ltpFR	4	n/a	0	FRIEND	606	n/a	1	n/a	n/a	n/a	n/a	n/a
2874369	FFR_REC_WORD	wordpools/wasnorm_wordpool_less_exclusions.txt	LTP218	ltpFR	4	n/a	0	WATERFALL	1595	n/a	1	n/a	n/a	n/a	n/a	n/a
2885898	FFR_REC_WORD	wordpools/wasnorm_wordpool_less_exclusions.txt	LTP218	ltpFR	4	n/a	0	VEGETABLE	1552	n/a	0	n/a	n/a	n/a	n/a	n/a
2892732	FFR_REC_WORD	wordpools/wasnorm_wordpool_less_exclusions.txt	LTP218	ltpFR	4	n/a	-1	KITCHEN	778	n/a	-1	n/a	n/a	n/a	n/a	n/a
2893326	FFR_REC_WORD	wordpools/wasnorm_wordpool_less_exclusions.txt	LTP218	ltpFR	4	n/a	-1	SUPPER	1411	n/a	-1	n/a	n/a	n/a	n/a	n/a
2906620	FFR_REC_WORD	wordpools/wasnorm_wordpool_less_exclusions.txt	LTP218	ltpFR	4	n/a	1	NICOTINE	951	n/a	0	n/a	n/a	n/a	n/a	n/a
2925143	FFR_REC_WORD	wordpools/wasnorm_wordpool_less_exclusions.txt	LTP218	ltpFR	4	n/a	0	GOO	648	n/a	0	n/a	n/a	n/a	n/a	n/a
2954422	FFR_REC_WORD	wordpools/wasnorm_wordpool_less_exclusions.txt	LTP218	ltpFR	4	n/a	-1	BUNNY	198	n/a	-1	n/a	n/a	n/a	n/a	n/a
2958463	FFR_REC_WORD	wordpools/wasnorm_wordpool_less_exclusions.txt	LTP218	ltpFR	4	n/a	0	TIGER	1467	n/a	1	n/a	n/a	n/a	n/a	n/a
2988744	FFR_REC_WORD	wordpools/wasnorm_wordpool_less_exclusions.txt	LTP218	ltpFR	4	n/a	1	CHAMPION	279	n/a	1	n/a	n/a	n/a	n/a	n/a
2993154	FFR_REC_WORD	wordpools/wasnorm_wordpool_less_exclusions.txt	LTP218	ltpFR	4	n/a	0	BASKETBALL	96	n/a	0	n/a	n/a	n/a	n/a	n/a
3022845	FFR_REC_WORD	wordpools/wasnorm_wordpool_less_exclusions.txt	LTP218	ltpFR	4	n/a	0	OCTOPUS	971	n/a	1	n/a	n/a	n/a	n/a	n/a
3023944	FFR_REC_WORD	wordpools/wasnorm_wordpool_less_exclusions.txt	LTP218	ltpFR	4	n/a	1	SQUID	1361	n/a	1	n/a	n/a	n/a	n/a	n/a
3031676	FFR_REC_WORD	wordpools/wasnorm_wordpool_less_exclusions.txt	LTP218	ltpFR	4	n/a	0	PENGUIN	1044	n/a	0	n/a	n/a	n/a	n/a	n/a
3034156	FFR_REC_WORD	wordpools/wasnorm_wordpool_less_exclusions.txt	LTP218	ltpFR	4	n/a	1	PELICAN	1039	n/a	1	n/a	n/a	n/a	n/a	n/a
3035737	FFR_REC_WORD	wordpools/wasnorm_wordpool_less_exclusions.txt	LTP218	ltpFR	4	n/a	0	HAWK	692	n/a	1	n/a	n/a	n/a	n/a	n/a
3037385	FFR_REC_WORD	wordpools/wasnorm_wordpool_less_exclusions.txt	LTP218	ltpFR	4	n/a	0	EAGLE	512	n/a	1	n/a	n/a	n/a	n/a	n/a
3039454	FFR_REC_WORD	wordpools/wasnorm_wordpool_less_exclusions.txt	LTP218	ltpFR	4	n/a	0	SPARROW	1347	n/a	0	n/a	n/a	n/a	n/a	n/a
3051155	FFR_REC_WORD	wordpools/wasnorm_wordpool_less_exclusions.txt	LTP218	ltpFR	4	n/a	0	WALRUS	1585	n/a	1	n/a	n/a	n/a	n/a	n/a
3067335	FFR_REC_WORD	wordpools/wasnorm_wordpool_less_exclusions.txt	LTP218	ltpFR	4	n/a	1	HERD	705	n/a	1	n/a	n/a	n/a	n/a	n/a
3073601	FFR_REC_WORD	wordpools/wasnorm_wordpool_less_exclusions.txt	LTP218	ltpFR	4	n/a	0	LAMB	797	n/a	0	n/a	n/a	n/a	n/a	n/a
3083094	FFR_REC_WORD	wordpools/wasnorm_wordpool_less_exclusions.txt	LTP218	ltpFR	4	n/a	1	HEAD	695	n/a	1	n/a	n/a	n/a	n/a	n/a
3088298	FFR_REC_WORD	wordpools/wasnorm_wordpool_less_exclusions.txt	LTP218	ltpFR	4	n/a	1	CHEERLEADER	288	n/a	1	n/a	n/a	n/a	n/a	n/a
3113750	FFR_REC_WORD	wordpools/wasnorm_wordpool_less_exclusions.txt	LTP218	ltpFR	4	n/a	n/a	SATURN	1236	n/a	n/a	n/a	n/a	n/a	n/a	n/a
3116683	FFR_REC_WORD	wordpools/wasnorm_wordpool_less_exclusions.txt	LTP218	ltpFR	4	n/a	1	JUPITER	765	n/a	1	n/a	n/a	n/a	n/a	n/a
3220083	REC_START	n/a	LTP218	ltpFR	4	1	n/a	n/a	n/a	n/a	n/a	n/a	n/a	n/a	n/a	n/a
3220116	RECOG_TARGET	n/a	LTP218	ltpFR	4	1	-1	ALLEY	15	3	-1	n/a	n/a	n/a	n/a	n/a
3221796	RECOG_RESP	n/a	LTP218	ltpFR	4	1	-1	ALLEY	15	n/a	-1	n/a	n/a	n/a	n/a	n/a
3223115	RECOG_CONF	n/a	LTP218	ltpFR	4	1	-1	ALLEY	15	3	-1	n/a	n/a	n/a	n/a	n/a
3224959	RECOG_LURE	n/a	LTP218	ltpFR	4	1	n/a	BULLETIN	195	4	n/a	n/a	n/a	n/a	n/a	n/a
3226140	RECOG_RESP	n/a	LTP218	ltpFR	4	1	n/a	BULLETIN	195	n/a	n/a	n/a	n/a	n/a	n/a	n/a
3227222	RECOG_CONF	n/a	LTP218	ltpFR	4	1	n/a	BULLETIN	195	4	n/a	n/a	n/a	n/a	n/a	n/a
3229003	RECOG_TARGET	n/a	LTP218	ltpFR	4	1	1	TROUT	1511	3	1	n/a	n/a	n/a	n/a	n/a
3230702	RECOG_RESP	n/a	LTP218	ltpFR	4	1	1	TROUT	1511	n/a	1	n/a	n/a	n/a	n/a	n/a
3231971	RECOG_CONF	n/a	LTP218	ltpFR	4	1	1	TROUT	1511	3	1	n/a	n/a	n/a	n/a	n/a
3233762	RECOG_LURE	n/a	LTP218	ltpFR	4	1	n/a	CHIP	303	2	n/a	n/a	n/a	n/a	n/a	n/a
3234973	RECOG_RESP	n/a	LTP218	ltpFR	4	1	n/a	CHIP	303	n/a	n/a	n/a	n/a	n/a	n/a	n/a
3236171	RECOG_CONF	n/a	LTP218	ltpFR	4	1	n/a	CHIP	303	2	n/a	n/a	n/a	n/a	n/a	n/a
3237873	RECOG_TARGET	n/a	LTP218	ltpFR	4	1	1	CHEERLEADER	288	5	1	n/a	n/a	n/a	n/a	n/a
3238535	RECOG_RESP	n/a	LTP218	ltpFR	4	1	1	CHEERLEADER	288	n/a	1	n/a	n/a	n/a	n/a	n/a
3239558	RECOG_CONF	n/a	LTP218	ltpFR	4	1	1	CHEERLEADER	288	5	1	n/a	n/a	n/a	n/a	n/a
3241234	RECOG_LURE	n/a	LTP218	ltpFR	4	1	n/a	REGISTER	1180	3	n/a	n/a	n/a	n/a	n/a	n/a
3242766	RECOG_RESP	n/a	LTP218	ltpFR	4	1	n/a	REGISTER	1180	n/a	n/a	n/a	n/a	n/a	n/a	n/a
3243867	RECOG_CONF	n/a	LTP218	ltpFR	4	1	n/a	REGISTER	1180	3	n/a	n/a	n/a	n/a	n/a	n/a
3245661	RECOG_TARGET	n/a	LTP218	ltpFR	4	1	-1	COCKTAIL	338	4	-1	n/a	n/a	n/a	n/a	n/a
3246640	RECOG_RESP	n/a	LTP218	ltpFR	4	1	-1	COCKTAIL	338	n/a	-1	n/a	n/a	n/a	n/a	n/a
3247534	RECOG_CONF	n/a	LTP218	ltpFR	4	1	-1	COCKTAIL	338	4	-1	n/a	n/a	n/a	n/a	n/a
3249488	RECOG_TARGET	n/a	LTP218	ltpFR	4	1	0	MONASTERY	907	4	1	n/a	n/a	n/a	n/a	n/a
3250403	RECOG_RESP	n/a	LTP218	ltpFR	4	1	0	MONASTERY	907	n/a	1	n/a	n/a	n/a	n/a	n/a
3251566	RECOG_CONF	n/a	LTP218	ltpFR	4	1	0	MONASTERY	907	4	1	n/a	n/a	n/a	n/a	n/a
3253300	RECOG_TARGET	n/a	LTP218	ltpFR	4	1	1	HEAD	695	5	1	n/a	n/a	n/a	n/a	n/a
3253927	RECOG_RESP	n/a	LTP218	ltpFR	4	1	1	HEAD	695	n/a	1	n/a	n/a	n/a	n/a	n/a
3254941	RECOG_CONF	n/a	LTP218	ltpFR	4	1	1	HEAD	695	5	1	n/a	n/a	n/a	n/a	n/a
3256778	RECOG_TARGET	n/a	LTP218	ltpFR	4	1	-1	GRAPE	654	5	-1	n/a	n/a	n/a	n/a	n/a
3257365	RECOG_RESP	n/a	LTP218	ltpFR	4	1	-1	GRAPE	654	n/a	-1	n/a	n/a	n/a	n/a	n/a
3258880	RECOG_CONF	n/a	LTP218	ltpFR	4	1	-1	GRAPE	654	5	-1	n/a	n/a	n/a	n/a	n/a
3260738	RECOG_LURE	n/a	LTP218	ltpFR	4	1	n/a	GOBLIN	645	2	n/a	n/a	n/a	n/a	n/a	n/a
3262250	RECOG_RESP	n/a	LTP218	ltpFR	4	1	n/a	GOBLIN	645	n/a	n/a	n/a	n/a	n/a	n/a	n/a
3263366	RECOG_CONF	n/a	LTP218	ltpFR	4	1	n/a	GOBLIN	645	2	n/a	n/a	n/a	n/a	n/a	n/a
3265015	RECOG_TARGET	n/a	LTP218	ltpFR	4	1	1	SHUTTER	1300	3	0	n/a	n/a	n/a	n/a	n/a
3265740	RECOG_RESP	n/a	LTP218	ltpFR	4	1	1	SHUTTER	1300	n/a	0	n/a	n/a	n/a	n/a	n/a
3266780	RECOG_CONF	n/a	LTP218	ltpFR	4	1	1	SHUTTER	1300	3	0	n/a	n/a	n/a	n/a	n/a
3268460	RECOG_TARGET	n/a	LTP218	ltpFR	4	1	-1	ROOF	1205	4	-1	n/a	n/a	n/a	n/a	n/a
3269186	RECOG_RESP	n/a	LTP218	ltpFR	4	1	-1	ROOF	1205	n/a	-1	n/a	n/a	n/a	n/a	n/a
3270085	RECOG_CONF	n/a	LTP218	ltpFR	4	1	-1	ROOF	1205	4	-1	n/a	n/a	n/a	n/a	n/a
3271822	RECOG_LURE	n/a	LTP218	ltpFR	4	1	n/a	PERFUME	1049	2	n/a	n/a	n/a	n/a	n/a	n/a
3273215	RECOG_RESP	n/a	LTP218	ltpFR	4	1	n/a	PERFUME	1049	n/a	n/a	n/a	n/a	n/a	n/a	n/a
3274566	RECOG_CONF	n/a	LTP218	ltpFR	4	1	n/a	PERFUME	1049	2	n/a	n/a	n/a	n/a	n/a	n/a
3276249	RECOG_TARGET	n/a	LTP218	ltpFR	4	1	1	REBEL	1172	5	1	n/a	n/a	n/a	n/a	n/a
3277123	RECOG_RESP	n/a	LTP218	ltpFR	4	1	1	REBEL	1172	n/a	1	n/a	n/a	n/a	n/a	n/a
3278303	RECOG_CONF	n/a	LTP218	ltpFR	4	1	1	REBEL	1172	5	1	n/a	n/a	n/a	n/a	n/a
3280226	RECOG_LURE	n/a	LTP218	ltpFR	4	1	n/a	FLASK	576	2	n/a	n/a	n/a	n/a	n/a	n/a
3281269	RECOG_RESP	n/a	LTP218	ltpFR	4	1	n/a	FLASK	576	n/a	n/a	n/a	n/a	n/a	n/a	n/a
3282489	RECOG_CONF	n/a	LTP218	ltpFR	4	1	n/a	FLASK	576	2	n/a	n/a	n/a	n/a	n/a	n/a
3284170	RECOG_TARGET	n/a	LTP218	ltpFR	4	1	1	TURTLE	1522	4	1	n/a	n/a	n/a	n/a	n/a
3285044	RECOG_RESP	n/a	LTP218	ltpFR	4	1	1	TURTLE	1522	n/a	1	n/a	n/a	n/a	n/a	n/a
3285883	RECOG_CONF	n/a	LTP218	ltpFR	4	1	1	TURTLE	1522	4	1	n/a	n/a	n/a	n/a	n/a
3287831	RECOG_LURE	n/a	LTP218	ltpFR	4	1	n/a	HARE	688	2	n/a	n/a	n/a	n/a	n/a	n/a
3289278	RECOG_RESP	n/a	LTP218	ltpFR	4	1	n/a	HARE	688	n/a	n/a	n/a	n/a	n/a	n/a	n/a
3290495	RECOG_CONF	n/a	LTP218	ltpFR	4	1	n/a	HARE	688	2	n/a	n/a	n/a	n/a	n/a	n/a
3292158	RECOG_TARGET	n/a	LTP218	ltpFR	4	1	-1	RECIPE	1175	5	-1	n/a	n/a	n/a	n/a	n/a
3292829	RECOG_RESP	n/a	LTP218	ltpFR	4	1	-1	RECIPE	1175	n/a	-1	n/a	n/a	n/a	n/a	n/a
3293810	RECOG_CONF	n/a	LTP218	ltpFR	4	1	-1	RECIPE	1175	5	-1	n/a	n/a	n/a	n/a	n/a
3295670	RECOG_LURE	n/a	LTP218	ltpFR	4	1	n/a	SWATTER	1418	3	n/a	n/a	n/a	n/a	n/a	n/a
3297845	RECOG_RESP	n/a	LTP218	ltpFR	4	1	n/a	SWATTER	1418	n/a	n/a	n/a	n/a	n/a	n/a	n/a
3299274	RECOG_CONF	n/a	LTP218	ltpFR	4	1	n/a	SWATTER	1418	3	n/a	n/a	n/a	n/a	n/a	n/a
3304624	REC_START	n/a	LTP218	ltpFR	4	2	n/a	n/a	n/a	n/a	n/a	n/a	n/a	n/a	n/a	n/a
3304656	RECOG_TARGET	n/a	LTP218	ltpFR	4	2	0	MONKEY	911	4	1	n/a	n/a	n/a	n/a	n/a
3305586	RECOG_RESP	n/a	LTP218	ltpFR	4	2	0	MONKEY	911	n/a	1	n/a	n/a	n/a	n/a	n/a
3306513	RECOG_CONF	n/a	LTP218	ltpFR	4	2	0	MONKEY	911	4	1	n/a	n/a	n/a	n/a	n/a
3308234	RECOG_LURE	n/a	LTP218	ltpFR	4	2	n/a	ENGINE	535	2	n/a	n/a	n/a	n/a	n/a	n/a
3309362	RECOG_RESP	n/a	LTP218	ltpFR	4	2	n/a	ENGINE	535	n/a	n/a	n/a	n/a	n/a	n/a	n/a
3310565	RECOG_CONF	n/a	LTP218	ltpFR	4	2	n/a	ENGINE	535	2	n/a	n/a	n/a	n/a	n/a	n/a
3312245	RECOG_LURE	n/a	LTP218	ltpFR	4	2	n/a	CANE	231	2	n/a	n/a	n/a	n/a	n/a	n/a
3313140	RECOG_RESP	n/a	LTP218	ltpFR	4	2	n/a	CANE	231	n/a	n/a	n/a	n/a	n/a	n/a	n/a
3314374	RECOG_CONF	n/a	LTP218	ltpFR	4	2	n/a	CANE	231	2	n/a	n/a	n/a	n/a	n/a	n/a
3316139	RECOG_TARGET	n/a	LTP218	ltpFR	4	2	1	SQUID	1361	4	1	n/a	n/a	n/a	n/a	n/a
3316878	RECOG_RESP	n/a	LTP218	ltpFR	4	2	1	SQUID	1361	n/a	1	n/a	n/a	n/a	n/a	n/a
3318148	RECOG_CONF	n/a	LTP218	ltpFR	4	2	1	SQUID	1361	4	1	n/a	n/a	n/a	n/a	n/a
3320067	RECOG_LURE	n/a	LTP218	ltpFR	4	2	n/a	WASHCLOTH	1591	2	n/a	n/a	n/a	n/a	n/a	n/a
3321388	RECOG_RESP	n/a	LTP218	ltpFR	4	2	n/a	WASHCLOTH	1591	n/a	n/a	n/a	n/a	n/a	n/a	n/a
3322478	RECOG_CONF	n/a	LTP218	ltpFR	4	2	n/a	WASHCLOTH	1591	2	n/a	n/a	n/a	n/a	n/a	n/a
3324194	RECOG_LURE	n/a	LTP218	ltpFR	4	2	n/a	FUR	615	2	n/a	n/a	n/a	n/a	n/a	n/a
3325160	RECOG_RESP	n/a	LTP218	ltpFR	4	2	n/a	FUR	615	n/a	n/a	n/a	n/a	n/a	n/a	n/a
3326456	RECOG_CONF	n/a	LTP218	ltpFR	4	2	n/a	FUR	615	2	n/a	n/a	n/a	n/a	n/a	n/a
3328188	RECOG_TARGET	n/a	LTP218	ltpFR	4	2	-1	HEATER	698	4	-1	n/a	n/a	n/a	n/a	n/a
3329101	RECOG_RESP	n/a	LTP218	ltpFR	4	2	-1	HEATER	698	n/a	-1	n/a	n/a	n/a	n/a	n/a
3330490	RECOG_CONF	n/a	LTP218	ltpFR	4	2	-1	HEATER	698	4	-1	n/a	n/a	n/a	n/a	n/a
3332282	RECOG_TARGET	n/a	LTP218	ltpFR	4	2	1	SHED	1277	3	0	n/a	n/a	n/a	n/a	n/a
3333177	RECOG_RESP	n/a	LTP218	ltpFR	4	2	1	SHED	1277	n/a	0	n/a	n/a	n/a	n/a	n/a
3334137	RECOG_CONF	n/a	LTP218	ltpFR	4	2	1	SHED	1277	3	0	n/a	n/a	n/a	n/a	n/a
3336126	RECOG_TARGET	n/a	LTP218	ltpFR	4	2	0	ACORN	3	3	0	n/a	n/a	n/a	n/a	n/a
3336857	RECOG_RESP	n/a	LTP218	ltpFR	4	2	0	ACORN	3	n/a	0	n/a	n/a	n/a	n/a	n/a
3338073	RECOG_CONF	n/a	LTP218	ltpFR	4	2	0	ACORN	3	3	0	n/a	n/a	n/a	n/a	n/a
3339887	RECOG_LURE	n/a	LTP218	ltpFR	4	2	n/a	DINER	467	2	n/a	n/a	n/a	n/a	n/a	n/a
3341289	RECOG_RESP	n/a	LTP218	ltpFR	4	2	n/a	DINER	467	n/a	n/a	n/a	n/a	n/a	n/a	n/a
3342323	RECOG_CONF	n/a	LTP218	ltpFR	4	2	n/a	DINER	467	2	n/a	n/a	n/a	n/a	n/a	n/a
3344131	RECOG_TARGET	n/a	LTP218	ltpFR	4	2	0	CARRIAGE	248	4	1	n/a	n/a	n/a	n/a	n/a
3344901	RECOG_RESP	n/a	LTP218	ltpFR	4	2	0	CARRIAGE	248	n/a	1	n/a	n/a	n/a	n/a	n/a
3345860	RECOG_CONF	n/a	LTP218	ltpFR	4	2	0	CARRIAGE	248	4	1	n/a	n/a	n/a	n/a	n/a
3347742	RECOG_LURE	n/a	LTP218	ltpFR	4	2	n/a	STETHOSCOPE	1379	2	n/a	n/a	n/a	n/a	n/a	n/a
3349615	RECOG_RESP	n/a	LTP218	ltpFR	4	2	n/a	STETHOSCOPE	1379	n/a	n/a	n/a	n/a	n/a	n/a	n/a
3350719	RECOG_CONF	n/a	LTP218	ltpFR	4	2	n/a	STETHOSCOPE	1379	2	n/a	n/a	n/a	n/a	n/a	n/a
3352534	RECOG_TARGET	n/a	LTP218	ltpFR	4	2	-1	DANDELION	438	4	-1	n/a	n/a	n/a	n/a	n/a
3353495	RECOG_RESP	n/a	LTP218	ltpFR	4	2	-1	DANDELION	438	n/a	-1	n/a	n/a	n/a	n/a	n/a
3354339	RECOG_CONF	n/a	LTP218	ltpFR	4	2	-1	DANDELION	438	4	-1	n/a	n/a	n/a	n/a	n/a
3356262	RECOG_TARGET	n/a	LTP218	ltpFR	4	2	0	LIMOUSINE	824	4	1	n/a	n/a	n/a	n/a	n/a
3356981	RECOG_RESP	n/a	LTP218	ltpFR	4	2	0	LIMOUSINE	824	n/a	1	n/a	n/a	n/a	n/a	n/a
3357880	RECOG_CONF	n/a	LTP218	ltpFR	4	2	0	LIMOUSINE	824	4	1	n/a	n/a	n/a	n/a	n/a
3359674	RECOG_LURE	n/a	LTP218	ltpFR	4	2	n/a	WOMAN	1620	2	n/a	n/a	n/a	n/a	n/a	n/a
3360631	RECOG_RESP	n/a	LTP218	ltpFR	4	2	n/a	WOMAN	1620	n/a	n/a	n/a	n/a	n/a	n/a	n/a
3361706	RECOG_CONF	n/a	LTP218	ltpFR	4	2	n/a	WOMAN	1620	2	n/a	n/a	n/a	n/a	n/a	n/a
3363517	RECOG_TARGET	n/a	LTP218	ltpFR	4	2	1	DICE	461	2	0	n/a	n/a	n/a	n/a	n/a
3364353	RECOG_RESP	n/a	LTP218	ltpFR	4	2	1	DICE	461	n/a	0	n/a	n/a	n/a	n/a	n/a
3365828	RECOG_CONF	n/a	LTP218	ltpFR	4	2	1	DICE	461	2	0	n/a	n/a	n/a	n/a	n/a
3367511	RECOG_TARGET	n/a	LTP218	ltpFR	4	2	0	SPARROW	1347	4	0	n/a	n/a	n/a	n/a	n/a
3368233	RECOG_RESP	n/a	LTP218	ltpFR	4	2	0	SPARROW	1347	n/a	0	n/a	n/a	n/a	n/a	n/a
3369227	RECOG_CONF	n/a	LTP218	ltpFR	4	2	0	SPARROW	1347	4	0	n/a	n/a	n/a	n/a	n/a
3371174	RECOG_TARGET	n/a	LTP218	ltpFR	4	2	1	ROOST	1208	4	0	n/a	n/a	n/a	n/a	n/a
3371960	RECOG_RESP	n/a	LTP218	ltpFR	4	2	1	ROOST	1208	n/a	0	n/a	n/a	n/a	n/a	n/a
3372899	RECOG_CONF	n/a	LTP218	ltpFR	4	2	1	ROOST	1208	4	0	n/a	n/a	n/a	n/a	n/a
3374518	RECOG_LURE	n/a	LTP218	ltpFR	4	2	n/a	PIMPLE	1071	3	n/a	n/a	n/a	n/a	n/a	n/a
3375513	RECOG_RESP	n/a	LTP218	ltpFR	4	2	n/a	PIMPLE	1071	n/a	n/a	n/a	n/a	n/a	n/a	n/a
3376615	RECOG_CONF	n/a	LTP218	ltpFR	4	2	n/a	PIMPLE	1071	3	n/a	n/a	n/a	n/a	n/a	n/a
3378363	RECOG_LURE	n/a	LTP218	ltpFR	4	2	n/a	DOLPHIN	483	3	n/a	n/a	n/a	n/a	n/a	n/a
3379530	RECOG_RESP	n/a	LTP218	ltpFR	4	2	n/a	DOLPHIN	483	n/a	n/a	n/a	n/a	n/a	n/a	n/a
3380578	RECOG_CONF	n/a	LTP218	ltpFR	4	2	n/a	DOLPHIN	483	3	n/a	n/a	n/a	n/a	n/a	n/a
3385882	REC_START	n/a	LTP218	ltpFR	4	3	n/a	n/a	n/a	n/a	n/a	n/a	n/a	n/a	n/a	n/a
3385918	RECOG_TARGET	n/a	LTP218	ltpFR	4	3	0	BEGGAR	117	3	0	n/a	n/a	n/a	n/a	n/a
3386801	RECOG_RESP	n/a	LTP218	ltpFR	4	3	0	BEGGAR	117	n/a	0	n/a	n/a	n/a	n/a	n/a
3387968	RECOG_CONF	n/a	LTP218	ltpFR	4	3	0	BEGGAR	117	3	0	n/a	n/a	n/a	n/a	n/a
3389713	RECOG_LURE	n/a	LTP218	ltpFR	4	3	n/a	NOTE	958	2	n/a	n/a	n/a	n/a	n/a	n/a
3390712	RECOG_RESP	n/a	LTP218	ltpFR	4	3	n/a	NOTE	958	n/a	n/a	n/a	n/a	n/a	n/a	n/a
3391592	RECOG_CONF	n/a	LTP218	ltpFR	4	3	n/a	NOTE	958	2	n/a	n/a	n/a	n/a	n/a	n/a
3393224	RECOG_LURE	n/a	LTP218	ltpFR	4	3	n/a	OWNER	993	2	n/a	n/a	n/a	n/a	n/a	n/a
3394519	RECOG_RESP	n/a	LTP218	ltpFR	4	3	n/a	OWNER	993	n/a	n/a	n/a	n/a	n/a	n/a	n/a
3395626	RECOG_CONF	n/a	LTP218	ltpFR	4	3	n/a	OWNER	993	2	n/a	n/a	n/a	n/a	n/a	n/a
3397168	RECOG_TARGET	n/a	LTP218	ltpFR	4	3	1	TRASH	1497	4	0	n/a	n/a	n/a	n/a	n/a
3397934	RECOG_RESP	n/a	LTP218	ltpFR	4	3	1	TRASH	1497	n/a	0	n/a	n/a	n/a	n/a	n/a
3398977	RECOG_CONF	n/a	LTP218	ltpFR	4	3	1	TRASH	1497	4	0	n/a	n/a	n/a	n/a	n/a
3400746	RECOG_LURE	n/a	LTP218	ltpFR	4	3	n/a	THIGH	1457	2	n/a	n/a	n/a	n/a	n/a	n/a
3401802	RECOG_RESP	n/a	LTP218	ltpFR	4	3	n/a	THIGH	1457	n/a	n/a	n/a	n/a	n/a	n/a	n/a
3402871	RECOG_CONF	n/a	LTP218	ltpFR	4	3	n/a	THIGH	1457	2	n/a	n/a	n/a	n/a	n/a	n/a
3404489	RECOG_TARGET	n/a	LTP218	ltpFR	4	3	0	DANDRUFF	439	4	0	n/a	n/a	n/a	n/a	n/a
3405407	RECOG_RESP	n/a	LTP218	ltpFR	4	3	0	DANDRUFF	439	n/a	0	n/a	n/a	n/a	n/a	n/a
3406417	RECOG_CONF	n/a	LTP218	ltpFR	4	3	0	DANDRUFF	439	4	0	n/a	n/a	n/a	n/a	n/a
3408185	RECOG_TARGET	n/a	LTP218	ltpFR	4	3	1	DISC	473	5	0	n/a	n/a	n/a	n/a	n/a
3409187	RECOG_RESP	n/a	LTP218	ltpFR	4	3	1	DISC	473	n/a	0	n/a	n/a	n/a	n/a	n/a
3410162	RECOG_CONF	n/a	LTP218	ltpFR	4	3	1	DISC	473	5	0	n/a	n/a	n/a	n/a	n/a
3411879	RECOG_TARGET	n/a	LTP218	ltpFR	4	3	0	TORTOISE	1486	3	1	n/a	n/a	n/a	n/a	n/a
3412784	RECOG_RESP	n/a	LTP218	ltpFR	4	3	0	TORTOISE	1486	n/a	1	n/a	n/a	n/a	n/a	n/a
3413813	RECOG_CONF	n/a	LTP218	ltpFR	4	3	0	TORTOISE	1486	3	1	n/a	n/a	n/a	n/a	n/a
3415540	RECOG_LURE	n/a	LTP218	ltpFR	4	3	n/a	ROCK	1201	2	n/a	n/a	n/a	n/a	n/a	n/a
3416913	RECOG_RESP	n/a	LTP218	ltpFR	4	3	n/a	ROCK	1201	n/a	n/a	n/a	n/a	n/a	n/a	n/a
3418104	RECOG_CONF	n/a	LTP218	ltpFR	4	3	n/a	ROCK	1201	2	n/a	n/a	n/a	n/a	n/a	n/a
3419734	RECOG_LURE	n/a	LTP218	ltpFR	4	3	n/a	PIGMENT	1066	2	n/a	n/a	n/a	n/a	n/a	n/a
3420906	RECOG_RESP	n/a	LTP218	ltpFR	4	3	n/a	PIGMENT	1066	n/a	n/a	n/a	n/a	n/a	n/a	n/a
3421896	RECOG_CONF	n/a	LTP218	ltpFR	4	3	n/a	PIGMENT	1066	2	n/a	n/a	n/a	n/a	n/a	n/a
3423612	RECOG_TARGET	n/a	LTP218	ltpFR	4	3	-1	GROCERIES	663	4	-1	n/a	n/a	n/a	n/a	n/a
3424335	RECOG_RESP	n/a	LTP218	ltpFR	4	3	-1	GROCERIES	663	n/a	-1	n/a	n/a	n/a	n/a	n/a
3425318	RECOG_CONF	n/a	LTP218	ltpFR	4	3	-1	GROCERIES	663	4	-1	n/a	n/a	n/a	n/a	n/a
3427007	RECOG_LURE	n/a	LTP218	ltpFR	4	3	n/a	HARP	689	2	n/a	n/a	n/a	n/a	n/a	n/a
3428021	RECOG_RESP	n/a	LTP218	ltpFR	4	3	n/a	HARP	689	n/a	n/a	n/a	n/a	n/a	n/a	n/a
3429103	RECOG_CONF	n/a	LTP218	ltpFR	4	3	n/a	HARP	689	2	n/a	n/a	n/a	n/a	n/a	n/a
3430718	RECOG_TARGET	n/a	LTP218	ltpFR	4	3	1	PELICAN	1039	3	1	n/a	n/a	n/a	n/a	n/a
3431438	RECOG_RESP	n/a	LTP218	ltpFR	4	3	1	PELICAN	1039	n/a	1	n/a	n/a	n/a	n/a	n/a
3432860	RECOG_CONF	n/a	LTP218	ltpFR	4	3	1	PELICAN	1039	3	1	n/a	n/a	n/a	n/a	n/a
3434579	RECOG_TARGET	n/a	LTP218	ltpFR	4	3	-1	MARINE	869	5	-1	n/a	n/a	n/a	n/a	n/a
3435212	RECOG_RESP	n/a	LTP218	ltpFR	4	3	-1	MARINE	869	n/a	-1	n/a	n/a	n/a	n/a	n/a
3436296	RECOG_CONF	n/a	LTP218	ltpFR	4	3	-1	MARINE	869	5	-1	n/a	n/a	n/a	n/a	n/a
3438057	RECOG_LURE	n/a	LTP218	ltpFR	4	3	n/a	BRACES	164	2	n/a	n/a	n/a	n/a	n/a	n/a
3439038	RECOG_RESP	n/a	LTP218	ltpFR	4	3	n/a	BRACES	164	n/a	n/a	n/a	n/a	n/a	n/a	n/a
3440363	RECOG_CONF	n/a	LTP218	ltpFR	4	3	n/a	BRACES	164	2	n/a	n/a	n/a	n/a	n/a	n/a
3442184	RECOG_LURE	n/a	LTP218	ltpFR	4	3	n/a	LOCK	838	2	n/a	n/a	n/a	n/a	n/a	n/a
3443251	RECOG_RESP	n/a	LTP218	ltpFR	4	3	n/a	LOCK	838	n/a	n/a	n/a	n/a	n/a	n/a	n/a
3444659	RECOG_CONF	n/a	LTP218	ltpFR	4	3	n/a	LOCK	838	2	n/a	n/a	n/a	n/a	n/a	n/a
3446311	RECOG_TARGET	n/a	LTP218	ltpFR	4	3	1	CARNIVAL	245	4	0	n/a	n/a	n/a	n/a	n/a
3447110	RECOG_RESP	n/a	LTP218	ltpFR	4	3	1	CARNIVAL	245	n/a	0	n/a	n/a	n/a	n/a	n/a
3448115	RECOG_CONF	n/a	LTP218	ltpFR	4	3	1	CARNIVAL	245	4	0	n/a	n/a	n/a	n/a	n/a
3450106	RECOG_TARGET	n/a	LTP218	ltpFR	4	3	0	ELF	525	4	0	n/a	n/a	n/a	n/a	n/a
3451122	RECOG_RESP	n/a	LTP218	ltpFR	4	3	0	ELF	525	n/a	0	n/a	n/a	n/a	n/a	n/a
3452296	RECOG_CONF	n/a	LTP218	ltpFR	4	3	0	ELF	525	4	0	n/a	n/a	n/a	n/a	n/a
3453983	RECOG_TARGET	n/a	LTP218	ltpFR	4	3	1	SEAFOOD	1260	4	1	n/a	n/a	n/a	n/a	n/a
3454900	RECOG_RESP	n/a	LTP218	ltpFR	4	3	1	SEAFOOD	1260	n/a	1	n/a	n/a	n/a	n/a	n/a
3455888	RECOG_CONF	n/a	LTP218	ltpFR	4	3	1	SEAFOOD	1260	4	1	n/a	n/a	n/a	n/a	n/a
3457644	RECOG_LURE	n/a	LTP218	ltpFR	4	3	n/a	CLAMP	316	2	n/a	n/a	n/a	n/a	n/a	n/a
3458589	RECOG_RESP	n/a	LTP218	ltpFR	4	3	n/a	CLAMP	316	n/a	n/a	n/a	n/a	n/a	n/a	n/a
3459625	RECOG_CONF	n/a	LTP218	ltpFR	4	3	n/a	CLAMP	316	2	n/a	n/a	n/a	n/a	n/a	n/a
3464154	REC_START	n/a	LTP218	ltpFR	4	4	n/a	n/a	n/a	n/a	n/a	n/a	n/a	n/a	n/a	n/a
3464185	RECOG_LURE	n/a	LTP218	ltpFR	4	4	n/a	PERMIT	1051	2	n/a	n/a	n/a	n/a	n/a	n/a
3465346	RECOG_RESP	n/a	LTP218	ltpFR	4	4	n/a	PERMIT	1051	n/a	n/a	n/a	n/a	n/a	n/a	n/a
3466376	RECOG_CONF	n/a	LTP218	ltpFR	4	4	n/a	PERMIT	1051	2	n/a	n/a	n/a	n/a	n/a	n/a
3468079	RECOG_LURE	n/a	LTP218	ltpFR	4	4	n/a	AIRPORT	13	2	n/a	n/a	n/a	n/a	n/a	n/a
3468948	RECOG_RESP	n/a	LTP218	ltpFR	4	4	n/a	AIRPORT	13	n/a	n/a	n/a	n/a	n/a	n/a	n/a
3470108	RECOG_CONF	n/a	LTP218	ltpFR	4	4	n/a	AIRPORT	13	2	n/a	n/a	n/a	n/a	n/a	n/a
3471823	RECOG_TARGET	n/a	LTP218	ltpFR	4	4	0	PEARL	1034	4	0	n/a	n/a	n/a	n/a	n/a
3472590	RECOG_RESP	n/a	LTP218	ltpFR	4	4	0	PEARL	1034	n/a	0	n/a	n/a	n/a	n/a	n/a
3473484	RECOG_CONF	n/a	LTP218	ltpFR	4	4	0	PEARL	1034	4	0	n/a	n/a	n/a	n/a	n/a
3475268	RECOG_TARGET	n/a	LTP218	ltpFR	4	4	1	PUDDLE	1140	4	0	n/a	n/a	n/a	n/a	n/a
3475898	RECOG_RESP	n/a	LTP218	ltpFR	4	4	1	PUDDLE	1140	n/a	0	n/a	n/a	n/a	n/a	n/a
3476826	RECOG_CONF	n/a	LTP218	ltpFR	4	4	1	PUDDLE	1140	4	0	n/a	n/a	n/a	n/a	n/a
3478663	RECOG_TARGET	n/a	LTP218	ltpFR	4	4	1	JUPITER	765	2	1	n/a	n/a	n/a	n/a	n/a
3479449	RECOG_RESP	n/a	LTP218	ltpFR	4	4	1	JUPITER	765	n/a	1	n/a	n/a	n/a	n/a	n/a
3481541	RECOG_CONF	n/a	LTP218	ltpFR	4	4	1	JUPITER	765	2	1	n/a	n/a	n/a	n/a	n/a
3483239	RECOG_TARGET	n/a	LTP218	ltpFR	4	4	-1	STOOL	1386	4	-1	n/a	n/a	n/a	n/a	n/a
3484114	RECOG_RESP	n/a	LTP218	ltpFR	4	4	-1	STOOL	1386	n/a	-1	n/a	n/a	n/a	n/a	n/a
3485235	RECOG_CONF	n/a	LTP218	ltpFR	4	4	-1	STOOL	1386	4	-1	n/a	n/a	n/a	n/a	n/a
3486951	RECOG_TARGET	n/a	LTP218	ltpFR	4	4	1	GRASSHOPPER	656	4	1	n/a	n/a	n/a	n/a	n/a
3487694	RECOG_RESP	n/a	LTP218	ltpFR	4	4	1	GRASSHOPPER	656	n/a	1	n/a	n/a	n/a	n/a	n/a
3488768	RECOG_CONF	n/a	LTP218	ltpFR	4	4	1	GRASSHOPPER	656	4	1	n/a	n/a	n/a	n/a	n/a
3490395	RECOG_TARGET	n/a	LTP218	ltpFR	4	4	1	NUCLEUS	961	4	0	n/a	n/a	n/a	n/a	n/a
3491065	RECOG_RESP	n/a	LTP218	ltpFR	4	4	1	NUCLEUS	961	n/a	0	n/a	n/a	n/a	n/a	n/a
3492182	RECOG_CONF	n/a	LTP218	ltpFR	4	4	1	NUCLEUS	961	4	0	n/a	n/a	n/a	n/a	n/a
3493990	RECOG_LURE	n/a	LTP218	ltpFR	4	4	n/a	GRATE	657	2	n/a	n/a	n/a	n/a	n/a	n/a
3495517	RECOG_RESP	n/a	LTP218	ltpFR	4	4	n/a	GRATE	657	n/a	n/a	n/a	n/a	n/a	n/a	n/a
3496517	RECOG_CONF	n/a	LTP218	ltpFR	4	4	n/a	GRATE	657	2	n/a	n/a	n/a	n/a	n/a	n/a
3498234	RECOG_TARGET	n/a	LTP218	ltpFR	4	4	1	DETERGENT	455	2	0	n/a	n/a	n/a	n/a	n/a
3499190	RECOG_RESP	n/a	LTP218	ltpFR	4	4	1	DETERGENT	455	n/a	0	n/a	n/a	n/a	n/a	n/a
3500302	RECOG_CONF	n/a	LTP218	ltpFR	4	4	1	DETERGENT	455	2	0	n/a	n/a	n/a	n/a	n/a
3502061	RECOG_TARGET	n/a	LTP218	ltpFR	4	4	1	SUPERMARKET	1409	3	0	n/a	n/a	n/a	n/a	n/a
3503191	RECOG_RESP	n/a	LTP218	ltpFR	4	4	1	SUPERMARKET	1409	n/a	0	n/a	n/a	n/a	n/a	n/a
3504587	RECOG_CONF	n/a	LTP218	ltpFR	4	4	1	SUPERMARKET	1409	3	0	n/a	n/a	n/a	n/a	n/a
3506305	RECOG_LURE	n/a	LTP218	ltpFR	4	4	n/a	REEF	1177	2	n/a	n/a	n/a	n/a	n/a	n/a
3507563	RECOG_RESP	n/a	LTP218	ltpFR	4	4	n/a	REEF	1177	n/a	n/a	n/a	n/a	n/a	n/a	n/a
3508617	RECOG_CONF	n/a	LTP218	ltpFR	4	4	n/a	REEF	1177	2	n/a	n/a	n/a	n/a	n/a	n/a
3510299	RECOG_TARGET	n/a	LTP218	ltpFR	4	4	0	WATERFALL	1595	4	1	n/a	n/a	n/a	n/a	n/a
3511076	RECOG_RESP	n/a	LTP218	ltpFR	4	4	0	WATERFALL	1595	n/a	1	n/a	n/a	n/a	n/a	n/a
3512130	RECOG_CONF	n/a	LTP218	ltpFR	4	4	0	WATERFALL	1595	4	1	n/a	n/a	n/a	n/a	n/a
3513894	RECOG_LURE	n/a	LTP218	ltpFR	4	4	n/a	QUILL	1150	2	n/a	n/a	n/a	n/a	n/a	n/a
3515001	RECOG_RESP	n/a	LTP218	ltpFR	4	4	n/a	QUILL	1150	n/a	n/a	n/a	n/a	n/a	n/a	n/a
3516117	RECOG_CONF	n/a	LTP218	ltpFR	4	4	n/a	QUILL	1150	2	n/a	n/a	n/a	n/a	n/a	n/a
3517888	RECOG_TARGET	n/a	LTP218	ltpFR	4	4	0	PRIEST	1122	4	1	n/a	n/a	n/a	n/a	n/a
3518548	RECOG_RESP	n/a	LTP218	ltpFR	4	4	0	PRIEST	1122	n/a	1	n/a	n/a	n/a	n/a	n/a
3519454	RECOG_CONF	n/a	LTP218	ltpFR	4	4	0	PRIEST	1122	4	1	n/a	n/a	n/a	n/a	n/a
3521283	RECOG_LURE	n/a	LTP218	ltpFR	4	4	n/a	HAMBURGER	679	2	n/a	n/a	n/a	n/a	n/a	n/a
3522272	RECOG_RESP	n/a	LTP218	ltpFR	4	4	n/a	HAMBURGER	679	n/a	n/a	n/a	n/a	n/a	n/a	n/a
3523278	RECOG_CONF	n/a	LTP218	ltpFR	4	4	n/a	HAMBURGER	679	2	n/a	n/a	n/a	n/a	n/a	n/a
3524927	RECOG_LURE	n/a	LTP218	ltpFR	4	4	n/a	RAISIN	1163	2	n/a	n/a	n/a	n/a	n/a	n/a
3526024	RECOG_RESP	n/a	LTP218	ltpFR	4	4	n/a	RAISIN	1163	n/a	n/a	n/a	n/a	n/a	n/a	n/a
3527042	RECOG_CONF	n/a	LTP218	ltpFR	4	4	n/a	RAISIN	1163	2	n/a	n/a	n/a	n/a	n/a	n/a
3528688	RECOG_LURE	n/a	LTP218	ltpFR	4	4	n/a	TRIGGER	1507	2	n/a	n/a	n/a	n/a	n/a	n/a
3529733	RECOG_RESP	n/a	LTP218	ltpFR	4	4	n/a	TRIGGER	1507	n/a	n/a	n/a	n/a	n/a	n/a	n/a
3530792	RECOG_CONF	n/a	LTP218	ltpFR	4	4	n/a	TRIGGER	1507	2	n/a	n/a	n/a	n/a	n/a	n/a
3532532	RECOG_LURE	n/a	LTP218	ltpFR	4	4	n/a	PLANET	1082	2	n/a	n/a	n/a	n/a	n/a	n/a
3534746	RECOG_RESP	n/a	LTP218	ltpFR	4	4	n/a	PLANET	1082	n/a	n/a	n/a	n/a	n/a	n/a	n/a
3535956	RECOG_CONF	n/a	LTP218	ltpFR	4	4	n/a	PLANET	1082	2	n/a	n/a	n/a	n/a	n/a	n/a
3537608	RECOG_LURE	n/a	LTP218	ltpFR	4	4	n/a	PUBLISHER	1137	2	n/a	n/a	n/a	n/a	n/a	n/a
3538702	RECOG_RESP	n/a	LTP218	ltpFR	4	4	n/a	PUBLISHER	1137	n/a	n/a	n/a	n/a	n/a	n/a	n/a
3539803	RECOG_CONF	n/a	LTP218	ltpFR	4	4	n/a	PUBLISHER	1137	2	n/a	n/a	n/a	n/a	n/a	n/a
3544064	REC_START	n/a	LTP218	ltpFR	4	5	n/a	n/a	n/a	n/a	n/a	n/a	n/a	n/a	n/a	n/a
3544099	RECOG_TARGET	n/a	LTP218	ltpFR	4	5	1	ALBUM	14	4	0	n/a	n/a	n/a	n/a	n/a
3545020	RECOG_RESP	n/a	LTP218	ltpFR	4	5	1	ALBUM	14	n/a	0	n/a	n/a	n/a	n/a	n/a
3545875	RECOG_CONF	n/a	LTP218	ltpFR	4	5	1	ALBUM	14	4	0	n/a	n/a	n/a	n/a	n/a
3547576	RECOG_TARGET	n/a	LTP218	ltpFR	4	5	1	WICK	1607	3	0	n/a	n/a	n/a	n/a	n/a
3548622	RECOG_RESP	n/a	LTP218	ltpFR	4	5	1	WICK	1607	n/a	0	n/a	n/a	n/a	n/a	n/a
3550244	RECOG_CONF	n/a	LTP218	ltpFR	4	5	1	WICK	1607	3	0	n/a	n/a	n/a	n/a	n/a
3552087	RECOG_TARGET	n/a	LTP218	ltpFR	4	5	-1	OUTFIT	988	4	-1	n/a	n/a	n/a	n/a	n/a
3552969	RECOG_RESP	n/a	LTP218	ltpFR	4	5	-1	OUTFIT	988	n/a	-1	n/a	n/a	n/a	n/a	n/a
3554013	RECOG_CONF	n/a	LTP218	ltpFR	4	5	-1	OUTFIT	988	4	-1	n/a	n/a	n/a	n/a	n/a
3555931	RECOG_LURE	n/a	LTP218	ltpFR	4	5	n/a	CHAMBER	277	2	n/a	n/a	n/a	n/a	n/a	n/a
3557017	RECOG_RESP	n/a	LTP218	ltpFR	4	5	n/a	CHAMBER	277	n/a	n/a	n/a	n/a	n/a	n/a	n/a
3558046	RECOG_CONF	n/a	LTP218	ltpFR	4	5	n/a	CHAMBER	277	2	n/a	n/a	n/a	n/a	n/a	n/a
3559908	RECOG_LURE	n/a	LTP218	ltpFR	4	5	n/a	EUROPE	541	3	n/a	n/a	n/a	n/a	n/a	n/a
3560974	RECOG_RESP	n/a	LTP218	ltpFR	4	5	n/a	EUROPE	541	n/a	n/a	n/a	n/a	n/a	n/a	n/a
3562591	RECOG_CONF	n/a	LTP218	ltpFR	4	5	n/a	EUROPE	541	3	n/a	n/a	n/a	n/a	n/a	n/a
3564285	RECOG_TARGET	n/a	LTP218	ltpFR	4	5	-1	TENT	1449	4	-1	n/a	n/a	n/a	n/a	n/a
3565175	RECOG_RESP	n/a	LTP218	ltpFR	4	5	-1	TENT	1449	n/a	-1	n/a	n/a	n/a	n/a	n/a
3566198	RECOG_CONF	n/a	LTP218	ltpFR	4	5	-1	TENT	1449	4	-1	n/a	n/a	n/a	n/a	n/a
3568113	RECOG_TARGET	n/a	LTP218	ltpFR	4	5	-1	CEREAL	272	4	-1	n/a	n/a	n/a	n/a	n/a
3568941	RECOG_RESP	n/a	LTP218	ltpFR	4	5	-1	CEREAL	272	n/a	-1	n/a	n/a	n/a	n/a	n/a
3570004	RECOG_CONF	n/a	LTP218	ltpFR	4	5	-1	CEREAL	272	4	-1	n/a	n/a	n/a	n/a	n/a
3571774	RECOG_LURE	n/a	LTP218	ltpFR	4	5	n/a	BRAIN	165	3	n/a	n/a	n/a	n/a	n/a	n/a
3572766	RECOG_RESP	n/a	LTP218	ltpFR	4	5	n/a	BRAIN	165	n/a	n/a	n/a	n/a	n/a	n/a	n/a
3573879	RECOG_CONF	n/a	LTP218	ltpFR	4	5	n/a	BRAIN	165	3	n/a	n/a	n/a	n/a	n/a	n/a
3575718	RECOG_TARGET	n/a	LTP218	ltpFR	4	5	1	RIBBON	1189	5	0	n/a	n/a	n/a	n/a	n/a
3576788	RECOG_RESP	n/a	LTP218	ltpFR	4	5	1	RIBBON	1189	n/a	0	n/a	n/a	n/a	n/a	n/a
3577926	RECOG_CONF	n/a	LTP218	ltpFR	4	5	1	RIBBON	1189	5	0	n/a	n/a	n/a	n/a	n/a
3579895	RECOG_LURE	n/a	LTP218	ltpFR	4	5	n/a	COB	334	2	n/a	n/a	n/a	n/a	n/a	n/a
3580928	RECOG_RESP	n/a	LTP218	ltpFR	4	5	n/a	COB	334	n/a	n/a	n/a	n/a	n/a	n/a	n/a
3582019	RECOG_CONF	n/a	LTP218	ltpFR	4	5	n/a	COB	334	2	n/a	n/a	n/a	n/a	n/a	n/a
3583673	RECOG_TARGET	n/a	LTP218	ltpFR	4	5	0	WEB	1598	4	0	n/a	n/a	n/a	n/a	n/a
3584842	RECOG_RESP	n/a	LTP218	ltpFR	4	5	0	WEB	1598	n/a	0	n/a	n/a	n/a	n/a	n/a
3585840	RECOG_CONF	n/a	LTP218	ltpFR	4	5	0	WEB	1598	4	0	n/a	n/a	n/a	n/a	n/a
3587584	RECOG_LURE	n/a	LTP218	ltpFR	4	5	n/a	WILDERNESS	1610	2	n/a	n/a	n/a	n/a	n/a	n/a
3588661	RECOG_RESP	n/a	LTP218	ltpFR	4	5	n/a	WILDERNESS	1610	n/a	n/a	n/a	n/a	n/a	n/a	n/a
3589975	RECOG_CONF	n/a	LTP218	ltpFR	4	5	n/a	WILDERNESS	1610	2	n/a	n/a	n/a	n/a	n/a	n/a
3591777	RECOG_LURE	n/a	LTP218	ltpFR	4	5	n/a	VAULT	1550	2	n/a	n/a	n/a	n/a	n/a	n/a
3594083	RECOG_RESP	n/a	LTP218	ltpFR	4	5	n/a	VAULT	1550	n/a	n/a	n/a	n/a	n/a	n/a	n/a
3595568	RECOG_CONF	n/a	LTP218	ltpFR	4	5	n/a	VAULT	1550	2	n/a	n/a	n/a	n/a	n/a	n/a
3597386	RECOG_TARGET	n/a	LTP218	ltpFR	4	5	1	SNACK	1331	3	0	n/a	n/a	n/a	n/a	n/a
3598332	RECOG_RESP	n/a	LTP218	ltpFR	4	5	1	SNACK	1331	n/a	0	n/a	n/a	n/a	n/a	n/a
3599368	RECOG_CONF	n/a	LTP218	ltpFR	4	5	1	SNACK	1331	3	0	n/a	n/a	n/a	n/a	n/a
3601263	RECOG_TARGET	n/a	LTP218	ltpFR	4	5	-1	CONTAINER	366	3	-1	n/a	n/a	n/a	n/a	n/a
3602194	RECOG_RESP	n/a	LTP218	ltpFR	4	5	-1	CONTAINER	366	n/a	-1	n/a	n/a	n/a	n/a	n/a
3603272	RECOG_CONF	n/a	LTP218	ltpFR	4	5	-1	CONTAINER	366	3	-1	n/a	n/a	n/a	n/a	n/a
3605107	RECOG_TARGET	n/a	LTP218	ltpFR	4	5	0	TREAD	1499	2	0	n/a	n/a	n/a	n/a	n/a
3606893	RECOG_RESP	n/a	LTP218	ltpFR	4	5	0	TREAD	1499	n/a	0	n/a	n/a	n/a	n/a	n/a
3608320	RECOG_CONF	n/a	LTP218	ltpFR	4	5	0	TREAD	1499	2	0	n/a	n/a	n/a	n/a	n/a
3610266	RECOG_LURE	n/a	LTP218	ltpFR	4	5	n/a	MACHINE	852	2	n/a	n/a	n/a	n/a	n/a	n/a
3611215	RECOG_RESP	n/a	LTP218	ltpFR	4	5	n/a	MACHINE	852	n/a	n/a	n/a	n/a	n/a	n/a	n/a
3612629	RECOG_CONF	n/a	LTP218	ltpFR	4	5	n/a	MACHINE	852	2	n/a	n/a	n/a	n/a	n/a	n/a
3614327	RECOG_TARGET	n/a	LTP218	ltpFR	4	5	1	CHIPMUNK	304	3	1	n/a	n/a	n/a	n/a	n/a
3615155	RECOG_RESP	n/a	LTP218	ltpFR	4	5	1	CHIPMUNK	304	n/a	1	n/a	n/a	n/a	n/a	n/a
3616344	RECOG_CONF	n/a	LTP218	ltpFR	4	5	1	CHIPMUNK	304	3	1	n/a	n/a	n/a	n/a	n/a
3618138	RECOG_LURE	n/a	LTP218	ltpFR	4	5	n/a	RING	1193	2	n/a	n/a	n/a	n/a	n/a	n/a
3619456	RECOG_RESP	n/a	LTP218	ltpFR	4	5	n/a	RING	1193	n/a	n/a	n/a	n/a	n/a	n/a	n/a
3620480	RECOG_CONF	n/a	LTP218	ltpFR	4	5	n/a	RING	1193	2	n/a	n/a	n/a	n/a	n/a	n/a
3622215	RECOG_TARGET	n/a	LTP218	ltpFR	4	5	0	ANTLER	29	3	1	n/a	n/a	n/a	n/a	n/a
3623001	RECOG_RESP	n/a	LTP218	ltpFR	4	5	0	ANTLER	29	n/a	1	n/a	n/a	n/a	n/a	n/a
3624097	RECOG_CONF	n/a	LTP218	ltpFR	4	5	0	ANTLER	29	3	1	n/a	n/a	n/a	n/a	n/a
3628792	REC_START	n/a	LTP218	ltpFR	4	6	n/a	n/a	n/a	n/a	n/a	n/a	n/a	n/a	n/a	n/a
3628822	RECOG_LURE	n/a	LTP218	ltpFR	4	6	n/a	SLOPE	1328	2	n/a	n/a	n/a	n/a	n/a	n/a
3629960	RECOG_RESP	n/a	LTP218	ltpFR	4	6	n/a	SLOPE	1328	n/a	n/a	n/a	n/a	n/a	n/a	n/a
3630850	RECOG_CONF	n/a	LTP218	ltpFR	4	6	n/a	SLOPE	1328	2	n/a	n/a	n/a	n/a	n/a	n/a
3632467	RECOG_LURE	n/a	LTP218	ltpFR	4	6	n/a	CANOE	233	2	n/a	n/a	n/a	n/a	n/a	n/a
3633605	RECOG_RESP	n/a	LTP218	ltpFR	4	6	n/a	CANOE	233	n/a	n/a	n/a	n/a	n/a	n/a	n/a
3634780	RECOG_CONF	n/a	LTP218	ltpFR	4	6	n/a	CANOE	233	2	n/a	n/a	n/a	n/a	n/a	n/a
3636394	RECOG_LURE	n/a	LTP218	ltpFR	4	6	n/a	LEG	809	2	n/a	n/a	n/a	n/a	n/a	n/a
3637298	RECOG_RESP	n/a	LTP218	ltpFR	4	6	n/a	LEG	809	n/a	n/a	n/a	n/a	n/a	n/a	n/a
3638658	RECOG_CONF	n/a	LTP218	ltpFR	4	6	n/a	LEG	809	2	n/a	n/a	n/a	n/a	n/a	n/a
3640455	RECOG_TARGET	n/a	LTP218	ltpFR	4	6	1	TANK	1432	2	0	n/a	n/a	n/a	n/a	n/a
3641741	RECOG_RESP	n/a	LTP218	ltpFR	4	6	1	TANK	1432	n/a	0	n/a	n/a	n/a	n/a	n/a
3643249	RECOG_CONF	n/a	LTP218	ltpFR	4	6	1	TANK	1432	2	0	n/a	n/a	n/a	n/a	n/a
3645081	RECOG_TARGET	n/a	LTP218	ltpFR	4	6	1	UMBRELLA	1534	2	0	n/a	n/a	n/a	n/a	n/a
3646846	RECOG_RESP_VV	n/a	LTP218	ltpFR	4	6	1	UMBRELLA	1534	n/a	0	n/a	n/a	n/a	n/a	n/a
3647395	RECOG_RESP	n/a	LTP218	ltpFR	4	6	1	UMBRELLA	1534	n/a	0	n/a	n/a	n/a	n/a	n/a
3648771	RECOG_CONF	n/a	LTP218	ltpFR	4	6	1	UMBRELLA	1534	2	0	n/a	n/a	n/a	n/a	n/a
3650656	RECOG_TARGET	n/a	LTP218	ltpFR	4	6	-1	SCREWDRIVER	1255	4	-1	n/a	n/a	n/a	n/a	n/a
3651476	RECOG_RESP	n/a	LTP218	ltpFR	4	6	-1	SCREWDRIVER	1255	n/a	-1	n/a	n/a	n/a	n/a	n/a
3652420	RECOG_CONF	n/a	LTP218	ltpFR	4	6	-1	SCREWDRIVER	1255	4	-1	n/a	n/a	n/a	n/a	n/a
3654317	RECOG_TARGET	n/a	LTP218	ltpFR	4	6	1	PORPOISE	1109	4	1	n/a	n/a	n/a	n/a	n/a
3655003	RECOG_RESP	n/a	LTP218	ltpFR	4	6	1	PORPOISE	1109	n/a	1	n/a	n/a	n/a	n/a	n/a
3655937	RECOG_CONF	n/a	LTP218	ltpFR	4	6	1	PORPOISE	1109	4	1	n/a	n/a	n/a	n/a	n/a
3657845	RECOG_TARGET	n/a	LTP218	ltpFR	4	6	1	CANYON	235	2	0	n/a	n/a	n/a	n/a	n/a
3659262	RECOG_RESP	n/a	LTP218	ltpFR	4	6	1	CANYON	235	n/a	0	n/a	n/a	n/a	n/a	n/a
3660316	RECOG_CONF	n/a	LTP218	ltpFR	4	6	1	CANYON	235	2	0	n/a	n/a	n/a	n/a	n/a
3662072	RECOG_TARGET	n/a	LTP218	ltpFR	4	6	1	HERB	704	4	0	n/a	n/a	n/a	n/a	n/a
3662830	RECOG_RESP	n/a	LTP218	ltpFR	4	6	1	HERB	704	n/a	0	n/a	n/a	n/a	n/a	n/a
3663928	RECOG_CONF	n/a	LTP218	ltpFR	4	6	1	HERB	704	4	0	n/a	n/a	n/a	n/a	n/a
3665917	RECOG_TARGET	n/a	LTP218	ltpFR	4	6	0	OCTOPUS	971	5	1	n/a	n/a	n/a	n/a	n/a
3666817	RECOG_RESP	n/a	LTP218	ltpFR	4	6	0	OCTOPUS	971	n/a	1	n/a	n/a	n/a	n/a	n/a
3667878	RECOG_CONF	n/a	LTP218	ltpFR	4	6	0	OCTOPUS	971	5	1	n/a	n/a	n/a	n/a	n/a
3669694	RECOG_LURE	n/a	LTP218	ltpFR	4	6	n/a	CAR	241	2	n/a	n/a	n/a	n/a	n/a	n/a
3670799	RECOG_RESP	n/a	LTP218	ltpFR	4	6	n/a	CAR	241	n/a	n/a	n/a	n/a	n/a	n/a	n/a
3671939	RECOG_CONF	n/a	LTP218	ltpFR	4	6	n/a	CAR	241	2	n/a	n/a	n/a	n/a	n/a	n/a
3673639	RECOG_LURE	n/a	LTP218	ltpFR	4	6	n/a	POLE	1097	2	n/a	n/a	n/a	n/a	n/a	n/a
3674859	RECOG_RESP	n/a	LTP218	ltpFR	4	6	n/a	POLE	1097	n/a	n/a	n/a	n/a	n/a	n/a	n/a
3675961	RECOG_CONF	n/a	LTP218	ltpFR	4	6	n/a	POLE	1097	2	n/a	n/a	n/a	n/a	n/a	n/a
3677766	RECOG_LURE	n/a	LTP218	ltpFR	4	6	n/a	SATURN	1236	2	n/a	n/a	n/a	n/a	n/a	n/a
3678461	RECOG_RESP_VV	n/a	LTP218	ltpFR	4	6	n/a	SATURN	1236	n/a	n/a	n/a	n/a	n/a	n/a	n/a
3679794	RECOG_RESP	n/a	LTP218	ltpFR	4	6	n/a	SATURN	1236	n/a	n/a	n/a	n/a	n/a	n/a	n/a
3681193	RECOG_CONF	n/a	LTP218	ltpFR	4	6	n/a	SATURN	1236	2	n/a	n/a	n/a	n/a	n/a	n/a
3682958	RECOG_LURE	n/a	LTP218	ltpFR	4	6	n/a	SKIRT	1319	2	n/a	n/a	n/a	n/a	n/a	n/a
3684501	RECOG_RESP	n/a	LTP218	ltpFR	4	6	n/a	SKIRT	1319	n/a	n/a	n/a	n/a	n/a	n/a	n/a
3685705	RECOG_CONF	n/a	LTP218	ltpFR	4	6	n/a	SKIRT	1319	2	n/a	n/a	n/a	n/a	n/a	n/a
3687418	RECOG_TARGET	n/a	LTP218	ltpFR	4	6	-1	KITCHEN	778	4	-1	n/a	n/a	n/a	n/a	n/a
3688135	RECOG_RESP	n/a	LTP218	ltpFR	4	6	-1	KITCHEN	778	n/a	-1	n/a	n/a	n/a	n/a	n/a
3689064	RECOG_CONF	n/a	LTP218	ltpFR	4	6	-1	KITCHEN	778	4	-1	n/a	n/a	n/a	n/a	n/a
3690713	RECOG_TARGET	n/a	LTP218	ltpFR	4	6	1	ASHTRAY	45	4	0	n/a	n/a	n/a	n/a	n/a
3691574	RECOG_RESP	n/a	LTP218	ltpFR	4	6	1	ASHTRAY	45	n/a	0	n/a	n/a	n/a	n/a	n/a
3692655	RECOG_CONF	n/a	LTP218	ltpFR	4	6	1	ASHTRAY	45	4	0	n/a	n/a	n/a	n/a	n/a
3694374	RECOG_TARGET	n/a	LTP218	ltpFR	4	6	0	HORSE	719	3	1	n/a	n/a	n/a	n/a	n/a
3695086	RECOG_RESP	n/a	LTP218	ltpFR	4	6	0	HORSE	719	n/a	1	n/a	n/a	n/a	n/a	n/a
3696316	RECOG_CONF	n/a	LTP218	ltpFR	4	6	0	HORSE	719	3	1	n/a	n/a	n/a	n/a	n/a
3698019	RECOG_TARGET	n/a	LTP218	ltpFR	4	6	-1	HANGER	687	5	-1	n/a	n/a	n/a	n/a	n/a
3698655	RECOG_RESP	n/a	LTP218	ltpFR	4	6	-1	HANGER	687	n/a	-1	n/a	n/a	n/a	n/a	n/a
3699763	RECOG_CONF	n/a	LTP218	ltpFR	4	6	-1	HANGER	687	5	-1	n/a	n/a	n/a	n/a	n/a
3701680	RECOG_TARGET	n/a	LTP218	ltpFR	4	6	0	RUG	1215	5	1	n/a	n/a	n/a	n/a	n/a
3702303	RECOG_RESP	n/a	LTP218	ltpFR	4	6	0	RUG	1215	n/a	1	n/a	n/a	n/a	n/a	n/a
3703394	RECOG_CONF	n/a	LTP218	ltpFR	4	6	0	RUG	1215	5	1	n/a	n/a	n/a	n/a	n/a
3705125	RECOG_TARGET	n/a	LTP218	ltpFR	4	6	-1	STREAM	1392	5	-1	n/a	n/a	n/a	n/a	n/a
3705784	RECOG_RESP	n/a	LTP218	ltpFR	4	6	-1	STREAM	1392	n/a	-1	n/a	n/a	n/a	n/a	n/a
3706970	RECOG_CONF	n/a	LTP218	ltpFR	4	6	-1	STREAM	1392	5	-1	n/a	n/a	n/a	n/a	n/a
3712058	REC_START	n/a	LTP218	ltpFR	4	7	n/a	n/a	n/a	n/a	n/a	n/a	n/a	n/a	n/a	n/a
3712098	RECOG_TARGET	n/a	LTP218	ltpFR	4	7	-1	DRESS	495	2	-1	n/a	n/a	n/a	n/a	n/a
3712866	RECOG_RESP	n/a	LTP218	ltpFR	4	7	-1	DRESS	495	n/a	-1	n/a	n/a	n/a	n/a	n/a
3714132	RECOG_CONF	n/a	LTP218	ltpFR	4	7	-1	DRESS	495	2	-1	n/a	n/a	n/a	n/a	n/a
3715859	RECOG_TARGET	n/a	LTP218	ltpFR	4	7	1	FIG	563	4	0	n/a	n/a	n/a	n/a	n/a
3716496	RECOG_RESP	n/a	LTP218	ltpFR	4	7	1	FIG	563	n/a	0	n/a	n/a	n/a	n/a	n/a
3717526	RECOG_CONF	n/a	LTP218	ltpFR	4	7	1	FIG	563	4	0	n/a	n/a	n/a	n/a	n/a
3719354	RECOG_LURE	n/a	LTP218	ltpFR	4	7	n/a	HEEL	700	2	n/a	n/a	n/a	n/a	n/a	n/a
3720429	RECOG_RESP	n/a	LTP218	ltpFR	4	7	n/a	HEEL	700	n/a	n/a	n/a	n/a	n/a	n/a	n/a
3721550	RECOG_CONF	n/a	LTP218	ltpFR	4	7	n/a	HEEL	700	2	n/a	n/a	n/a	n/a	n/a	n/a
3723364	RECOG_TARGET	n/a	LTP218	ltpFR	4	7	-1	TUB	1514	4	-1	n/a	n/a	n/a	n/a	n/a
3724024	RECOG_RESP	n/a	LTP218	ltpFR	4	7	-1	TUB	1514	n/a	-1	n/a	n/a	n/a	n/a	n/a
3725106	RECOG_CONF	n/a	LTP218	ltpFR	4	7	-1	TUB	1514	4	-1	n/a	n/a	n/a	n/a	n/a
3726942	RECOG_TARGET	n/a	LTP218	ltpFR	4	7	0	DWARF	510	4	0	n/a	n/a	n/a	n/a	n/a
3727680	RECOG_RESP	n/a	LTP218	ltpFR	4	7	0	DWARF	510	n/a	0	n/a	n/a	n/a	n/a	n/a
3728789	RECOG_CONF	n/a	LTP218	ltpFR	4	7	0	DWARF	510	4	0	n/a	n/a	n/a	n/a	n/a
3730687	RECOG_TARGET	n/a	LTP218	ltpFR	4	7	0	LIBRARY	816	4	1	n/a	n/a	n/a	n/a	n/a
3731346	RECOG_RESP	n/a	LTP218	ltpFR	4	7	0	LIBRARY	816	n/a	1	n/a	n/a	n/a	n/a	n/a
3732528	RECOG_CONF	n/a	LTP218	ltpFR	4	7	0	LIBRARY	816	4	1	n/a	n/a	n/a	n/a	n/a
3734348	RECOG_TARGET	n/a	LTP218	ltpFR	4	7	-1	SUSPECT	1415	3	-1	n/a	n/a	n/a	n/a	n/a
3735223	RECOG_RESP	n/a	LTP218	ltpFR	4	7	-1	SUSPECT	1415	n/a	-1	n/a	n/a	n/a	n/a	n/a
3736307	RECOG_CONF	n/a	LTP218	ltpFR	4	7	-1	SUSPECT	1415	3	-1	n/a	n/a	n/a	n/a	n/a
3738292	RECOG_TARGET	n/a	LTP218	ltpFR	4	7	1	SCARF	1246	2	0	n/a	n/a	n/a	n/a	n/a
3739805	RECOG_RESP_VV	n/a	LTP218	ltpFR	4	7	1	SCARF	1246	n/a	0	n/a	n/a	n/a	n/a	n/a
3740351	RECOG_RESP	n/a	LTP218	ltpFR	4	7	1	SCARF	1246	n/a	0	n/a	n/a	n/a	n/a	n/a
3741537	RECOG_CONF	n/a	LTP218	ltpFR	4	7	1	SCARF	1246	2	0	n/a	n/a	n/a	n/a	n/a
3743451	RECOG_TARGET	n/a	LTP218	ltpFR	4	7	0	MARKET	871	3	1	n/a	n/a	n/a	n/a	n/a
3744209	RECOG_RESP	n/a	LTP218	ltpFR	4	7	0	MARKET	871	n/a	1	n/a	n/a	n/a	n/a	n/a
3745122	RECOG_CONF	n/a	LTP218	ltpFR	4	7	0	MARKET	871	3	1	n/a	n/a	n/a	n/a	n/a
3746779	RECOG_TARGET	n/a	LTP218	ltpFR	4	7	-1	PELT	1040	3	-1	n/a	n/a	n/a	n/a	n/a
3748010	RECOG_RESP	n/a	LTP218	ltpFR	4	7	-1	PELT	1040	n/a	-1	n/a	n/a	n/a	n/a	n/a
3749005	RECOG_CONF	n/a	LTP218	ltpFR	4	7	-1	PELT	1040	3	-1	n/a	n/a	n/a	n/a	n/a
3750757	RECOG_LURE	n/a	LTP218	ltpFR	4	7	n/a	CHAIRPERSON	275	2	n/a	n/a	n/a	n/a	n/a	n/a
3752155	RECOG_RESP	n/a	LTP218	ltpFR	4	7	n/a	CHAIRPERSON	275	n/a	n/a	n/a	n/a	n/a	n/a	n/a
3753179	RECOG_CONF	n/a	LTP218	ltpFR	4	7	n/a	CHAIRPERSON	275	2	n/a	n/a	n/a	n/a	n/a	n/a
3754817	RECOG_TARGET	n/a	LTP218	ltpFR	4	7	1	SALT	1229	3	0	n/a	n/a	n/a	n/a	n/a
3756231	RECOG_RESP	n/a	LTP218	ltpFR	4	7	1	SALT	1229	n/a	0	n/a	n/a	n/a	n/a	n/a
3757195	RECOG_CONF	n/a	LTP218	ltpFR	4	7	1	SALT	1229	3	0	n/a	n/a	n/a	n/a	n/a
3759078	RECOG_LURE	n/a	LTP218	ltpFR	4	7	n/a	YARN	1631	2	n/a	n/a	n/a	n/a	n/a	n/a
3760188	RECOG_RESP	n/a	LTP218	ltpFR	4	7	n/a	YARN	1631	n/a	n/a	n/a	n/a	n/a	n/a	n/a
3761357	RECOG_CONF	n/a	LTP218	ltpFR	4	7	n/a	YARN	1631	2	n/a	n/a	n/a	n/a	n/a	n/a
3762938	RECOG_TARGET	n/a	LTP218	ltpFR	4	7	0	LAWYER	806	4	0	n/a	n/a	n/a	n/a	n/a
3763714	RECOG_RESP	n/a	LTP218	ltpFR	4	7	0	LAWYER	806	n/a	0	n/a	n/a	n/a	n/a	n/a
3764761	RECOG_CONF	n/a	LTP218	ltpFR	4	7	0	LAWYER	806	4	0	n/a	n/a	n/a	n/a	n/a
3766483	RECOG_TARGET	n/a	LTP218	ltpFR	4	7	0	GREASE	660	3	0	n/a	n/a	n/a	n/a	n/a
3767198	RECOG_RESP	n/a	LTP218	ltpFR	4	7	0	GREASE	660	n/a	0	n/a	n/a	n/a	n/a	n/a
3768283	RECOG_CONF	n/a	LTP218	ltpFR	4	7	0	GREASE	660	3	0	n/a	n/a	n/a	n/a	n/a
3770061	RECOG_TARGET	n/a	LTP218	ltpFR	4	7	0	COPIER	377	4	0	n/a	n/a	n/a	n/a	n/a
3770926	RECOG_RESP	n/a	LTP218	ltpFR	4	7	0	COPIER	377	n/a	0	n/a	n/a	n/a	n/a	n/a
3772007	RECOG_CONF	n/a	LTP218	ltpFR	4	7	0	COPIER	377	4	0	n/a	n/a	n/a	n/a	n/a
3773889	RECOG_TARGET	n/a	LTP218	ltpFR	4	7	1	LIGHTER	819	4	0	n/a	n/a	n/a	n/a	n/a
3775087	RECOG_RESP	n/a	LTP218	ltpFR	4	7	1	LIGHTER	819	n/a	0	n/a	n/a	n/a	n/a	n/a
3776160	RECOG_CONF	n/a	LTP218	ltpFR	4	7	1	LIGHTER	819	4	0	n/a	n/a	n/a	n/a	n/a
3778066	RECOG_TARGET	n/a	LTP218	ltpFR	4	7	-1	CARPET	247	2	-1	n/a	n/a	n/a	n/a	n/a
3779583	RECOG_RESP_VV	n/a	LTP218	ltpFR	4	7	-1	CARPET	247	n/a	-1	n/a	n/a	n/a	n/a	n/a
3780055	RECOG_RESP	n/a	LTP218	ltpFR	4	7	-1	CARPET	247	n/a	-1	n/a	n/a	n/a	n/a	n/a
3781271	RECOG_CONF	n/a	LTP218	ltpFR	4	7	-1	CARPET	247	2	-1	n/a	n/a	n/a	n/a	n/a
3782892	RECOG_LURE	n/a	LTP218	ltpFR	4	7	n/a	GHETTO	633	3	n/a	n/a	n/a	n/a	n/a	n/a
3783957	RECOG_RESP	n/a	LTP218	ltpFR	4	7	n/a	GHETTO	633	n/a	n/a	n/a	n/a	n/a	n/a	n/a
3785815	RECOG_CONF	n/a	LTP218	ltpFR	4	7	n/a	GHETTO	633	3	n/a	n/a	n/a	n/a	n/a	n/a
3787602	RECOG_TARGET	n/a	LTP218	ltpFR	4	7	0	SHEET	1279	3	0	n/a	n/a	n/a	n/a	n/a
3789005	RECOG_RESP	n/a	LTP218	ltpFR	4	7	0	SHEET	1279	n/a	0	n/a	n/a	n/a	n/a	n/a
3789778	RECOG_CONF	n/a	LTP218	ltpFR	4	7	0	SHEET	1279	3	0	n/a	n/a	n/a	n/a	n/a
3794400	REC_START	n/a	LTP218	ltpFR	4	8	n/a	n/a	n/a	n/a	n/a	n/a	n/a	n/a	n/a	n/a
3794441	RECOG_TARGET	n/a	LTP218	ltpFR	4	8	0	TIMBER	1469	3	1	n/a	n/a	n/a	n/a	n/a
3795235	RECOG_RESP	n/a	LTP218	ltpFR	4	8	0	TIMBER	1469	n/a	1	n/a	n/a	n/a	n/a	n/a
3796081	RECOG_CONF	n/a	LTP218	ltpFR	4	8	0	TIMBER	1469	3	1	n/a	n/a	n/a	n/a	n/a
3797836	RECOG_LURE	n/a	LTP218	ltpFR	4	8	n/a	FOSSIL	596	2	n/a	n/a	n/a	n/a	n/a	n/a
3798828	RECOG_RESP	n/a	LTP218	ltpFR	4	8	n/a	FOSSIL	596	n/a	n/a	n/a	n/a	n/a	n/a	n/a
3800238	RECOG_CONF	n/a	LTP218	ltpFR	4	8	n/a	FOSSIL	596	2	n/a	n/a	n/a	n/a	n/a	n/a
3802030	RECOG_LURE	n/a	LTP218	ltpFR	4	8	n/a	LABEL	790	2	n/a	n/a	n/a	n/a	n/a	n/a
3803032	RECOG_RESP	n/a	LTP218	ltpFR	4	8	n/a	LABEL	790	n/a	n/a	n/a	n/a	n/a	n/a	n/a
3804409	RECOG_CONF	n/a	LTP218	ltpFR	4	8	n/a	LABEL	790	2	n/a	n/a	n/a	n/a	n/a	n/a
3806240	RECOG_TARGET	n/a	LTP218	ltpFR	4	8	-1	BELL	118	4	-1	n/a	n/a	n/a	n/a	n/a
3807417	RECOG_RESP	n/a	LTP218	ltpFR	4	8	-1	BELL	118	n/a	-1	n/a	n/a	n/a	n/a	n/a
3808333	RECOG_CONF	n/a	LTP218	ltpFR	4	8	-1	BELL	118	4	-1	n/a	n/a	n/a	n/a	n/a
3810035	RECOG_TARGET	n/a	LTP218	ltpFR	4	8	1	PAGE	1001	5	0	n/a	n/a	n/a	n/a	n/a
3810699	RECOG_RESP	n/a	LTP218	ltpFR	4	8	1	PAGE	1001	n/a	0	n/a	n/a	n/a	n/a	n/a
3811708	RECOG_CONF	n/a	LTP218	ltpFR	4	8	1	PAGE	1001	5	0	n/a	n/a	n/a	n/a	n/a
3813346	RECOG_LURE	n/a	LTP218	ltpFR	4	8	n/a	OREGANO	983	3	n/a	n/a	n/a	n/a	n/a	n/a
3814462	RECOG_RESP	n/a	LTP218	ltpFR	4	8	n/a	OREGANO	983	n/a	n/a	n/a	n/a	n/a	n/a	n/a
3815619	RECOG_CONF	n/a	LTP218	ltpFR	4	8	n/a	OREGANO	983	3	n/a	n/a	n/a	n/a	n/a	n/a
3817457	RECOG_LURE	n/a	LTP218	ltpFR	4	8	n/a	CLARINET	317	2	n/a	n/a	n/a	n/a	n/a	n/a
3818598	RECOG_RESP	n/a	LTP218	ltpFR	4	8	n/a	CLARINET	317	n/a	n/a	n/a	n/a	n/a	n/a	n/a
3819916	RECOG_CONF	n/a	LTP218	ltpFR	4	8	n/a	CLARINET	317	2	n/a	n/a	n/a	n/a	n/a	n/a
3821767	RECOG_TARGET	n/a	LTP218	ltpFR	4	8	1	EXPERT	543	3	1	n/a	n/a	n/a	n/a	n/a
3823104	RECOG_RESP	n/a	LTP218	ltpFR	4	8	1	EXPERT	543	n/a	1	n/a	n/a	n/a	n/a	n/a
3824243	RECOG_CONF	n/a	LTP218	ltpFR	4	8	1	EXPERT	543	3	1	n/a	n/a	n/a	n/a	n/a
3826094	RECOG_LURE	n/a	LTP218	ltpFR	4	8	n/a	SHEARS	1276	2	n/a	n/a	n/a	n/a	n/a	n/a
3827905	RECOG_RESP	n/a	LTP218	ltpFR	4	8	n/a	SHEARS	1276	n/a	n/a	n/a	n/a	n/a	n/a	n/a
3828914	RECOG_CONF	n/a	LTP218	ltpFR	4	8	n/a	SHEARS	1276	2	n/a	n/a	n/a	n/a	n/a	n/a
3830621	RECOG_TARGET	n/a	LTP218	ltpFR	4	8	1	CANARY	227	3	1	n/a	n/a	n/a	n/a	n/a
3831514	RECOG_RESP	n/a	LTP218	ltpFR	4	8	1	CANARY	227	n/a	1	n/a	n/a	n/a	n/a	n/a
3832468	RECOG_CONF	n/a	LTP218	ltpFR	4	8	1	CANARY	227	3	1	n/a	n/a	n/a	n/a	n/a
3834282	RECOG_TARGET	n/a	LTP218	ltpFR	4	8	1	HERO	706	3	1	n/a	n/a	n/a	n/a	n/a
3835009	RECOG_RESP	n/a	LTP218	ltpFR	4	8	1	HERO	706	n/a	1	n/a	n/a	n/a	n/a	n/a
3836061	RECOG_CONF	n/a	LTP218	ltpFR	4	8	1	HERO	706	3	1	n/a	n/a	n/a	n/a	n/a
3837610	RECOG_TARGET	n/a	LTP218	ltpFR	4	8	0	PUCK	1138	4	0	n/a	n/a	n/a	n/a	n/a
3838284	RECOG_RESP	n/a	LTP218	ltpFR	4	8	0	PUCK	1138	n/a	0	n/a	n/a	n/a	n/a	n/a
3839359	RECOG_CONF	n/a	LTP218	ltpFR	4	8	0	PUCK	1138	4	0	n/a	n/a	n/a	n/a	n/a
3841038	RECOG_LURE	n/a	LTP218	ltpFR	4	8	n/a	CAN	225	2	n/a	n/a	n/a	n/a	n/a	n/a
3842090	RECOG_RESP	n/a	LTP218	ltpFR	4	8	n/a	CAN	225	n/a	n/a	n/a	n/a	n/a	n/a	n/a
3843314	RECOG_CONF	n/a	LTP218	ltpFR	4	8	n/a	CAN	225	2	n/a	n/a	n/a	n/a	n/a	n/a
3844949	RECOG_TARGET	n/a	LTP218	ltpFR	4	8	-1	CATERPILLAR	259	4	-1	n/a	n/a	n/a	n/a	n/a
3845572	RECOG_RESP	n/a	LTP218	ltpFR	4	8	-1	CATERPILLAR	259	n/a	-1	n/a	n/a	n/a	n/a	n/a
3846567	RECOG_CONF	n/a	LTP218	ltpFR	4	8	-1	CATERPILLAR	259	4	-1	n/a	n/a	n/a	n/a	n/a
3848377	RECOG_LURE	n/a	LTP218	ltpFR	4	8	n/a	KIDNEY	776	2	n/a	n/a	n/a	n/a	n/a	n/a
3849456	RECOG_RESP	n/a	LTP218	ltpFR	4	8	n/a	KIDNEY	776	n/a	n/a	n/a	n/a	n/a	n/a	n/a
3850634	RECOG_CONF	n/a	LTP218	ltpFR	4	8	n/a	KIDNEY	776	2	n/a	n/a	n/a	n/a	n/a	n/a
3852322	RECOG_TARGET	n/a	LTP218	ltpFR	4	8	0	BUGGY	188	4	0	n/a	n/a	n/a	n/a	n/a
3853003	RECOG_RESP	n/a	LTP218	ltpFR	4	8	0	BUGGY	188	n/a	0	n/a	n/a	n/a	n/a	n/a
3854069	RECOG_CONF	n/a	LTP218	ltpFR	4	8	0	BUGGY	188	4	0	n/a	n/a	n/a	n/a	n/a
3855766	RECOG_TARGET	n/a	LTP218	ltpFR	4	8	1	HEADBAND	696	4	0	n/a	n/a	n/a	n/a	n/a
3857242	RECOG_RESP_VV	n/a	LTP218	ltpFR	4	8	1	HEADBAND	696	n/a	0	n/a	n/a	n/a	n/a	n/a
3857852	RECOG_RESP	n/a	LTP218	ltpFR	4	8	1	HEADBAND	696	n/a	0	n/a	n/a	n/a	n/a	n/a
3859117	RECOG_CONF	n/a	LTP218	ltpFR	4	8	1	HEADBAND	696	4	0	n/a	n/a	n/a	n/a	n/a
3861042	RECOG_TARGET	n/a	LTP218	ltpFR	4	8	-1	SCREW	1254	5	-1	n/a	n/a	n/a	n/a	n/a
3861934	RECOG_RESP	n/a	LTP218	ltpFR	4	8	-1	SCREW	1254	n/a	-1	n/a	n/a	n/a	n/a	n/a
3862918	RECOG_CONF	n/a	LTP218	ltpFR	4	8	-1	SCREW	1254	5	-1	n/a	n/a	n/a	n/a	n/a
3864686	RECOG_TARGET	n/a	LTP218	ltpFR	4	8	0	REFRIGERATOR	1179	5	1	n/a	n/a	n/a	n/a	n/a
3865538	RECOG_RESP	n/a	LTP218	ltpFR	4	8	0	REFRIGERATOR	1179	n/a	1	n/a	n/a	n/a	n/a	n/a
3866575	RECOG_CONF	n/a	LTP218	ltpFR	4	8	0	REFRIGERATOR	1179	5	1	n/a	n/a	n/a	n/a	n/a
3868431	RECOG_TARGET	n/a	LTP218	ltpFR	4	8	0	WALRUS	1585	5	1	n/a	n/a	n/a	n/a	n/a
3869105	RECOG_RESP	n/a	LTP218	ltpFR	4	8	0	WALRUS	1585	n/a	1	n/a	n/a	n/a	n/a	n/a
3870176	RECOG_CONF	n/a	LTP218	ltpFR	4	8	0	WALRUS	1585	5	1	n/a	n/a	n/a	n/a	n/a
3882019	REC_START	n/a	LTP218	ltpFR	4	9	n/a	n/a	n/a	n/a	n/a	n/a	n/a	n/a	n/a	n/a
3882044	RECOG_TARGET	n/a	LTP218	ltpFR	4	9	-1	WELL	1600	5	-1	n/a	n/a	n/a	n/a	n/a
3882987	RECOG_RESP	n/a	LTP218	ltpFR	4	9	-1	WELL	1600	n/a	-1	n/a	n/a	n/a	n/a	n/a
3884032	RECOG_CONF	n/a	LTP218	ltpFR	4	9	-1	WELL	1600	5	-1	n/a	n/a	n/a	n/a	n/a
3885905	RECOG_LURE	n/a	LTP218	ltpFR	4	9	n/a	CEILING	265	2	n/a	n/a	n/a	n/a	n/a	n/a
3886976	RECOG_RESP	n/a	LTP218	ltpFR	4	9	n/a	CEILING	265	n/a	n/a	n/a	n/a	n/a	n/a	n/a
3888195	RECOG_CONF	n/a	LTP218	ltpFR	4	9	n/a	CEILING	265	2	n/a	n/a	n/a	n/a	n/a	n/a
3889915	RECOG_TARGET	n/a	LTP218	ltpFR	4	9	-1	SCULPTURE	1258	3	-1	n/a	n/a	n/a	n/a	n/a
3891136	RECOG_RESP	n/a	LTP218	ltpFR	4	9	-1	SCULPTURE	1258	n/a	-1	n/a	n/a	n/a	n/a	n/a
3892358	RECOG_CONF	n/a	LTP218	ltpFR	4	9	-1	SCULPTURE	1258	3	-1	n/a	n/a	n/a	n/a	n/a
3894242	RECOG_LURE	n/a	LTP218	ltpFR	4	9	n/a	SOFTBALL	1343	2	n/a	n/a	n/a	n/a	n/a	n/a
3895271	RECOG_RESP	n/a	LTP218	ltpFR	4	9	n/a	SOFTBALL	1343	n/a	n/a	n/a	n/a	n/a	n/a	n/a
3896616	RECOG_CONF	n/a	LTP218	ltpFR	4	9	n/a	SOFTBALL	1343	2	n/a	n/a	n/a	n/a	n/a	n/a
3898552	RECOG_TARGET	n/a	LTP218	ltpFR	4	9	0	WINDOW	1611	4	0	n/a	n/a	n/a	n/a	n/a
3899384	RECOG_RESP	n/a	LTP218	ltpFR	4	9	0	WINDOW	1611	n/a	0	n/a	n/a	n/a	n/a	n/a
3900532	RECOG_CONF	n/a	LTP218	ltpFR	4	9	0	WINDOW	1611	4	0	n/a	n/a	n/a	n/a	n/a
3902264	RECOG_LURE	n/a	LTP218	ltpFR	4	9	n/a	WITNESS	1618	3	n/a	n/a	n/a	n/a	n/a	n/a
3903489	RECOG_RESP	n/a	LTP218	ltpFR	4	9	n/a	WITNESS	1618	n/a	n/a	n/a	n/a	n/a	n/a	n/a
3904792	RECOG_CONF	n/a	LTP218	ltpFR	4	9	n/a	WITNESS	1618	3	n/a	n/a	n/a	n/a	n/a	n/a
3906657	RECOG_LURE	n/a	LTP218	ltpFR	4	9	n/a	SUITCASE	1403	2	n/a	n/a	n/a	n/a	n/a	n/a
3907793	RECOG_RESP	n/a	LTP218	ltpFR	4	9	n/a	SUITCASE	1403	n/a	n/a	n/a	n/a	n/a	n/a	n/a
3908942	RECOG_CONF	n/a	LTP218	ltpFR	4	9	n/a	SUITCASE	1403	2	n/a	n/a	n/a	n/a	n/a	n/a
3910668	RECOG_LURE	n/a	LTP218	ltpFR	4	9	n/a	SPIDER	1351	2	n/a	n/a	n/a	n/a	n/a	n/a
3911925	RECOG_RESP	n/a	LTP218	ltpFR	4	9	n/a	SPIDER	1351	n/a	n/a	n/a	n/a	n/a	n/a	n/a
3913325	RECOG_CONF	n/a	LTP218	ltpFR	4	9	n/a	SPIDER	1351	2	n/a	n/a	n/a	n/a	n/a	n/a
3915194	RECOG_TARGET	n/a	LTP218	ltpFR	4	9	1	CROW	414	2	1	n/a	n/a	n/a	n/a	n/a
3915854	RECOG_RESP	n/a	LTP218	ltpFR	4	9	1	CROW	414	n/a	1	n/a	n/a	n/a	n/a	n/a
3917288	RECOG_CONF	n/a	LTP218	ltpFR	4	9	1	CROW	414	2	1	n/a	n/a	n/a	n/a	n/a
3919005	RECOG_LURE	n/a	LTP218	ltpFR	4	9	n/a	QUEEN	1149	3	n/a	n/a	n/a	n/a	n/a	n/a
