mstime	trial_type	stim_file	subject	experiment	session	trial	task	item_name	item_num	recog_conf	resp	color_b	color_g	color_r	case	font
0	SESS_START	n/a	LTP191	ltpFR	16	n/a	n/a	n/a	n/a	5	n/a	n/a	n/a	n/a	n/a	n/a
49974	WORD	wordpools/wasnorm_wordpool_less_exclusions.txt	LTP191	ltpFR	16	1	0	TURKEY	1520	n/a	1	1	0.412841796875	0.57763671875	lower	../fonts/zerothre.ttf
53956	WORD	wordpools/wasnorm_wordpool_less_exclusions.txt	LTP191	ltpFR	16	1	0	FISH	571	n/a	0	1	0.412841796875	0.57763671875	lower	../fonts/zerothre.ttf
58121	WORD	wordpools/wasnorm_wordpool_less_exclusions.txt	LTP191	ltpFR	16	1	0	TUNA	1518	n/a	0	1	0.412841796875	0.57763671875	lower	../fonts/zerothre.ttf
62220	WORD	wordpools/wasnorm_wordpool_less_exclusions.txt	LTP191	ltpFR	16	1	0	SILVERWARE	1308	n/a	0	1	0.412841796875	0.57763671875	lower	../fonts/zerothre.ttf
66068	WORD	wordpools/wasnorm_wordpool_less_exclusions.txt	LTP191	ltpFR	16	1	1	VALLEY	1545	n/a	0	0	0.5869140625	0.422607421875	upper	../fonts/amplitud.ttf
70066	WORD	wordpools/wasnorm_wordpool_less_exclusions.txt	LTP191	ltpFR	16	1	1	FOREST	593	n/a	0	0	0.5869140625	0.422607421875	upper	../fonts/amplitud.ttf
74092	WORD	wordpools/wasnorm_wordpool_less_exclusions.txt	LTP191	ltpFR	16	1	1	LIST	830	n/a	0	0	0.5869140625	0.422607421875	upper	../fonts/amplitud.ttf
78124	WORD	wordpools/wasnorm_wordpool_less_exclusions.txt	LTP191	ltpFR	16	1	0	PAN	1008	n/a	0	1	0.412841796875	0.57763671875	lower	../fonts/zerothre.ttf
82095	WORD	wordpools/wasnorm_wordpool_less_exclusions.txt	LTP191	ltpFR	16	1	0	HALL	677	n/a	1	1	0.412841796875	0.57763671875	lower	../fonts/zerothre.ttf
86171	WORD	wordpools/wasnorm_wordpool_less_exclusions.txt	LTP191	ltpFR	16	1	0	LOCK	838	n/a	0	1	0.412841796875	0.57763671875	lower	../fonts/zerothre.ttf
90226	WORD	wordpools/wasnorm_wordpool_less_exclusions.txt	LTP191	ltpFR	16	1	0	EMPLOYEE	531	n/a	1	1	0.412841796875	0.57763671875	lower	../fonts/zerothre.ttf
94376	WORD	wordpools/wasnorm_wordpool_less_exclusions.txt	LTP191	ltpFR	16	1	1	MAPLE	866	n/a	0	0	0.5869140625	0.422607421875	upper	../fonts/amplitud.ttf
98551	WORD	wordpools/wasnorm_wordpool_less_exclusions.txt	LTP191	ltpFR	16	1	1	FIG	563	n/a	1	0	0.5869140625	0.422607421875	upper	../fonts/amplitud.ttf
102767	WORD	wordpools/wasnorm_wordpool_less_exclusions.txt	LTP191	ltpFR	16	1	1	CABIN	211	n/a	0	0	0.5869140625	0.422607421875	upper	../fonts/amplitud.ttf
106838	WORD	wordpools/wasnorm_wordpool_less_exclusions.txt	LTP191	ltpFR	16	1	1	LOG	841	n/a	0	0	0.5869140625	0.422607421875	upper	../fonts/amplitud.ttf
111004	WORD	wordpools/wasnorm_wordpool_less_exclusions.txt	LTP191	ltpFR	16	1	1	HIKER	708	n/a	1	0	0.5869140625	0.422607421875	upper	../fonts/amplitud.ttf
116810	REC_START	n/a	LTP191	ltpFR	16	1	n/a	n/a	n/a	n/a	n/a	n/a	n/a	n/a	n/a	n/a
117598	REC_WORD	wordpools/wasnorm_wordpool_less_exclusions.txt	LTP191	ltpFR	16	1	1	HIKER	708	n/a	1	n/a	n/a	n/a	n/a	n/a
118920	REC_WORD	wordpools/wasnorm_wordpool_less_exclusions.txt	LTP191	ltpFR	16	1	1	CABIN	211	n/a	0	n/a	n/a	n/a	n/a	n/a
120426	REC_WORD	wordpools/wasnorm_wordpool_less_exclusions.txt	LTP191	ltpFR	16	1	1	FOREST	593	n/a	0	n/a	n/a	n/a	n/a	n/a
124976	REC_WORD	wordpools/wasnorm_wordpool_less_exclusions.txt	LTP191	ltpFR	16	1	n/a	TREE	1502	n/a	n/a	n/a	n/a	n/a	n/a	n/a
126352	REC_WORD	wordpools/wasnorm_wordpool_less_exclusions.txt	LTP191	ltpFR	16	1	1	FIG	563	n/a	1	n/a	n/a	n/a	n/a	n/a
127715	REC_WORD	wordpools/wasnorm_wordpool_less_exclusions.txt	LTP191	ltpFR	16	1	1	MAPLE	866	n/a	0	n/a	n/a	n/a	n/a	n/a
131551	REC_WORD	wordpools/wasnorm_wordpool_less_exclusions.txt	LTP191	ltpFR	16	1	n/a	DINNER	468	n/a	n/a	n/a	n/a	n/a	n/a	n/a
132732	REC_WORD	wordpools/wasnorm_wordpool_less_exclusions.txt	LTP191	ltpFR	16	1	0	SILVERWARE	1308	n/a	0	n/a	n/a	n/a	n/a	n/a
134804	REC_WORD	wordpools/wasnorm_wordpool_less_exclusions.txt	LTP191	ltpFR	16	1	0	TURKEY	1520	n/a	1	n/a	n/a	n/a	n/a	n/a
136015	REC_WORD	wordpools/wasnorm_wordpool_less_exclusions.txt	LTP191	ltpFR	16	1	0	FISH	571	n/a	0	n/a	n/a	n/a	n/a	n/a
138580	REC_WORD	wordpools/wasnorm_wordpool_less_exclusions.txt	LTP191	ltpFR	16	1	0	TUNA	1518	n/a	0	n/a	n/a	n/a	n/a	n/a
142127	REC_WORD	wordpools/wasnorm_wordpool_less_exclusions.txt	LTP191	ltpFR	16	1	n/a	HOUSE	725	n/a	n/a	n/a	n/a	n/a	n/a	n/a
143225	REC_WORD	wordpools/wasnorm_wordpool_less_exclusions.txt	LTP191	ltpFR	16	1	0	HALL	677	n/a	1	n/a	n/a	n/a	n/a	n/a
144267	REC_WORD	wordpools/wasnorm_wordpool_less_exclusions.txt	LTP191	ltpFR	16	1	0	LOCK	838	n/a	0	n/a	n/a	n/a	n/a	n/a
147275	REC_WORD	wordpools/wasnorm_wordpool_less_exclusions.txt	LTP191	ltpFR	16	1	1	LIST	830	n/a	0	n/a	n/a	n/a	n/a	n/a
163658	REC_WORD	wordpools/wasnorm_wordpool_less_exclusions.txt	LTP191	ltpFR	16	1	1	VALLEY	1545	n/a	0	n/a	n/a	n/a	n/a	n/a
176484	REC_WORD	wordpools/wasnorm_wordpool_less_exclusions.txt	LTP191	ltpFR	16	1	0	PAN	1008	n/a	0	n/a	n/a	n/a	n/a	n/a
203536	WORD	wordpools/wasnorm_wordpool_less_exclusions.txt	LTP191	ltpFR	16	2	1	SHACK	1273	n/a	0	0	0.5869140625	0.422607421875	upper	../fonts/amplitud.ttf
207395	WORD	wordpools/wasnorm_wordpool_less_exclusions.txt	LTP191	ltpFR	16	2	1	BRICK	172	n/a	0	0	0.5869140625	0.422607421875	upper	../fonts/amplitud.ttf
211417	WORD	wordpools/wasnorm_wordpool_less_exclusions.txt	LTP191	ltpFR	16	2	0	FLESH	579	n/a	0	1	0.412841796875	0.57763671875	lower	../fonts/zerothre.ttf
215274	WORD	wordpools/wasnorm_wordpool_less_exclusions.txt	LTP191	ltpFR	16	2	0	VAMPIRE	1547	n/a	1	1	0.412841796875	0.57763671875	lower	../fonts/zerothre.ttf
219391	WORD	wordpools/wasnorm_wordpool_less_exclusions.txt	LTP191	ltpFR	16	2	0	TRICYCLE	1506	n/a	1	1	0.412841796875	0.57763671875	lower	../fonts/zerothre.ttf
223322	WORD	wordpools/wasnorm_wordpool_less_exclusions.txt	LTP191	ltpFR	16	2	1	RUST	1219	n/a	0	0	0.5869140625	0.422607421875	upper	../fonts/amplitud.ttf
227410	WORD	wordpools/wasnorm_wordpool_less_exclusions.txt	LTP191	ltpFR	16	2	1	IGLOO	734	n/a	0	0	0.5869140625	0.422607421875	upper	../fonts/amplitud.ttf
231575	WORD	wordpools/wasnorm_wordpool_less_exclusions.txt	LTP191	ltpFR	16	2	1	KETTLE	772	n/a	0	0	0.5869140625	0.422607421875	upper	../fonts/amplitud.ttf
235418	WORD	wordpools/wasnorm_wordpool_less_exclusions.txt	LTP191	ltpFR	16	2	0	DONKEY	484	n/a	1	1	0.412841796875	0.57763671875	lower	../fonts/zerothre.ttf
239549	WORD	wordpools/wasnorm_wordpool_less_exclusions.txt	LTP191	ltpFR	16	2	0	KLEENEX	782	n/a	0	1	0.412841796875	0.57763671875	lower	../fonts/zerothre.ttf
243414	WORD	wordpools/wasnorm_wordpool_less_exclusions.txt	LTP191	ltpFR	16	2	0	BALLERINA	74	n/a	1	1	0.412841796875	0.57763671875	lower	../fonts/zerothre.ttf
247284	WORD	wordpools/wasnorm_wordpool_less_exclusions.txt	LTP191	ltpFR	16	2	0	CAPTAIN	239	n/a	1	1	0.412841796875	0.57763671875	lower	../fonts/zerothre.ttf
251367	WORD	wordpools/wasnorm_wordpool_less_exclusions.txt	LTP191	ltpFR	16	2	0	COLT	349	n/a	1	1	0.412841796875	0.57763671875	lower	../fonts/zerothre.ttf
255465	WORD	wordpools/wasnorm_wordpool_less_exclusions.txt	LTP191	ltpFR	16	2	1	COIN	343	n/a	0	0	0.5869140625	0.422607421875	upper	../fonts/amplitud.ttf
259448	WORD	wordpools/wasnorm_wordpool_less_exclusions.txt	LTP191	ltpFR	16	2	1	ICE	730	n/a	0	0	0.5869140625	0.422607421875	upper	../fonts/amplitud.ttf
263512	WORD	wordpools/wasnorm_wordpool_less_exclusions.txt	LTP191	ltpFR	16	2	1	REFRIGERATOR	1179	n/a	0	0	0.5869140625	0.422607421875	upper	../fonts/amplitud.ttf
269347	REC_START	n/a	LTP191	ltpFR	16	2	n/a	n/a	n/a	n/a	n/a	n/a	n/a	n/a	n/a	n/a
269841	REC_WORD	wordpools/wasnorm_wordpool_less_exclusions.txt	LTP191	ltpFR	16	2	1	REFRIGERATOR	1179	n/a	0	n/a	n/a	n/a	n/a	n/a
271153	REC_WORD	wordpools/wasnorm_wordpool_less_exclusions.txt	LTP191	ltpFR	16	2	1	ICE	730	n/a	0	n/a	n/a	n/a	n/a	n/a
272604	REC_WORD	wordpools/wasnorm_wordpool_less_exclusions.txt	LTP191	ltpFR	16	2	1	IGLOO	734	n/a	0	n/a	n/a	n/a	n/a	n/a
275667	REC_WORD	wordpools/wasnorm_wordpool_less_exclusions.txt	LTP191	ltpFR	16	2	0	DONKEY	484	n/a	1	n/a	n/a	n/a	n/a	n/a
276880	REC_WORD	wordpools/wasnorm_wordpool_less_exclusions.txt	LTP191	ltpFR	16	2	0	COLT	349	n/a	1	n/a	n/a	n/a	n/a	n/a
282307	REC_WORD	wordpools/wasnorm_wordpool_less_exclusions.txt	LTP191	ltpFR	16	2	0	KLEENEX	782	n/a	0	n/a	n/a	n/a	n/a	n/a
294210	REC_WORD	wordpools/wasnorm_wordpool_less_exclusions.txt	LTP191	ltpFR	16	2	0	BALLERINA	74	n/a	1	n/a	n/a	n/a	n/a	n/a
295343	REC_WORD	wordpools/wasnorm_wordpool_less_exclusions.txt	LTP191	ltpFR	16	2	0	CAPTAIN	239	n/a	1	n/a	n/a	n/a	n/a	n/a
311087	REC_WORD	wordpools/wasnorm_wordpool_less_exclusions.txt	LTP191	ltpFR	16	2	n/a	HOUSE	725	n/a	n/a	n/a	n/a	n/a	n/a	n/a
312838	REC_WORD	wordpools/wasnorm_wordpool_less_exclusions.txt	LTP191	ltpFR	16	2	1	BRICK	172	n/a	0	n/a	n/a	n/a	n/a	n/a
315108	REC_WORD	wordpools/wasnorm_wordpool_less_exclusions.txt	LTP191	ltpFR	16	2	1	SHACK	1273	n/a	0	n/a	n/a	n/a	n/a	n/a
316694	REC_WORD	wordpools/wasnorm_wordpool_less_exclusions.txt	LTP191	ltpFR	16	2	1	KETTLE	772	n/a	0	n/a	n/a	n/a	n/a	n/a
318161	REC_WORD	wordpools/wasnorm_wordpool_less_exclusions.txt	LTP191	ltpFR	16	2	1	RUST	1219	n/a	0	n/a	n/a	n/a	n/a	n/a
352983	WORD	wordpools/wasnorm_wordpool_less_exclusions.txt	LTP191	ltpFR	16	3	-1	KITE	779	n/a	-1	1	1.0	1.0	upper	../fonts/Verdana.ttf
357182	WORD	wordpools/wasnorm_wordpool_less_exclusions.txt	LTP191	ltpFR	16	3	-1	DIPLOMA	470	n/a	-1	1	1.0	1.0	upper	../fonts/Verdana.ttf
361090	WORD	wordpools/wasnorm_wordpool_less_exclusions.txt	LTP191	ltpFR	16	3	-1	PARTY	1018	n/a	-1	1	1.0	1.0	upper	../fonts/Verdana.ttf
364995	WORD	wordpools/wasnorm_wordpool_less_exclusions.txt	LTP191	ltpFR	16	3	-1	PALM	1007	n/a	-1	1	1.0	1.0	upper	../fonts/Verdana.ttf
368909	WORD	wordpools/wasnorm_wordpool_less_exclusions.txt	LTP191	ltpFR	16	3	-1	WAGON	1578	n/a	-1	1	1.0	1.0	upper	../fonts/Verdana.ttf
373085	WORD	wordpools/wasnorm_wordpool_less_exclusions.txt	LTP191	ltpFR	16	3	-1	UNICORN	1538	n/a	-1	1	1.0	1.0	upper	../fonts/Verdana.ttf
377073	WORD	wordpools/wasnorm_wordpool_less_exclusions.txt	LTP191	ltpFR	16	3	-1	FOOT	590	n/a	-1	1	1.0	1.0	upper	../fonts/Verdana.ttf
381122	WORD	wordpools/wasnorm_wordpool_less_exclusions.txt	LTP191	ltpFR	16	3	-1	TOENAIL	1474	n/a	-1	1	1.0	1.0	upper	../fonts/Verdana.ttf
385014	WORD	wordpools/wasnorm_wordpool_less_exclusions.txt	LTP191	ltpFR	16	3	-1	CAFE	216	n/a	-1	1	1.0	1.0	upper	../fonts/Verdana.ttf
389196	WORD	wordpools/wasnorm_wordpool_less_exclusions.txt	LTP191	ltpFR	16	3	-1	CONTAINER	366	n/a	-1	1	1.0	1.0	upper	../fonts/Verdana.ttf
393302	WORD	wordpools/wasnorm_wordpool_less_exclusions.txt	LTP191	ltpFR	16	3	-1	ROUGE	1213	n/a	-1	1	1.0	1.0	upper	../fonts/Verdana.ttf
397418	WORD	wordpools/wasnorm_wordpool_less_exclusions.txt	LTP191	ltpFR	16	3	-1	WORM	1623	n/a	-1	1	1.0	1.0	upper	../fonts/Verdana.ttf
401450	WORD	wordpools/wasnorm_wordpool_less_exclusions.txt	LTP191	ltpFR	16	3	-1	LASH	802	n/a	-1	1	1.0	1.0	upper	../fonts/Verdana.ttf
405598	WORD	wordpools/wasnorm_wordpool_less_exclusions.txt	LTP191	ltpFR	16	3	-1	ASSISTANT	48	n/a	-1	1	1.0	1.0	upper	../fonts/Verdana.ttf
409663	WORD	wordpools/wasnorm_wordpool_less_exclusions.txt	LTP191	ltpFR	16	3	-1	GLOVE	642	n/a	-1	1	1.0	1.0	upper	../fonts/Verdana.ttf
413561	WORD	wordpools/wasnorm_wordpool_less_exclusions.txt	LTP191	ltpFR	16	3	-1	SURVEY	1414	n/a	-1	1	1.0	1.0	upper	../fonts/Verdana.ttf
419601	REC_START	n/a	LTP191	ltpFR	16	3	n/a	n/a	n/a	n/a	n/a	n/a	n/a	n/a	n/a	n/a
420479	REC_WORD	wordpools/wasnorm_wordpool_less_exclusions.txt	LTP191	ltpFR	16	3	-1	SURVEY	1414	n/a	-1	n/a	n/a	n/a	n/a	n/a
421796	REC_WORD	wordpools/wasnorm_wordpool_less_exclusions.txt	LTP191	ltpFR	16	3	-1	GLOVE	642	n/a	-1	n/a	n/a	n/a	n/a	n/a
422604	REC_WORD	wordpools/wasnorm_wordpool_less_exclusions.txt	LTP191	ltpFR	16	3	-1	ASSISTANT	48	n/a	-1	n/a	n/a	n/a	n/a	n/a
425996	REC_WORD	wordpools/wasnorm_wordpool_less_exclusions.txt	LTP191	ltpFR	16	3	n/a	MAKEUP	-1	n/a	n/a	n/a	n/a	n/a	n/a	n/a
428076	REC_WORD	wordpools/wasnorm_wordpool_less_exclusions.txt	LTP191	ltpFR	16	3	-1	ROUGE	1213	n/a	-1	n/a	n/a	n/a	n/a	n/a
430721	REC_WORD	wordpools/wasnorm_wordpool_less_exclusions.txt	LTP191	ltpFR	16	3	-1	WORM	1623	n/a	-1	n/a	n/a	n/a	n/a	n/a
431748	REC_WORD	wordpools/wasnorm_wordpool_less_exclusions.txt	LTP191	ltpFR	16	3	-1	LASH	802	n/a	-1	n/a	n/a	n/a	n/a	n/a
436138	REC_WORD	wordpools/wasnorm_wordpool_less_exclusions.txt	LTP191	ltpFR	16	3	n/a	COFFEE	341	n/a	n/a	n/a	n/a	n/a	n/a	n/a
437834	REC_WORD	wordpools/wasnorm_wordpool_less_exclusions.txt	LTP191	ltpFR	16	3	-1	CAFE	216	n/a	-1	n/a	n/a	n/a	n/a	n/a
443901	REC_WORD	wordpools/wasnorm_wordpool_less_exclusions.txt	LTP191	ltpFR	16	3	-1	KITE	779	n/a	-1	n/a	n/a	n/a	n/a	n/a
444852	REC_WORD	wordpools/wasnorm_wordpool_less_exclusions.txt	LTP191	ltpFR	16	3	-1	DIPLOMA	470	n/a	-1	n/a	n/a	n/a	n/a	n/a
446086	REC_WORD	wordpools/wasnorm_wordpool_less_exclusions.txt	LTP191	ltpFR	16	3	-1	PARTY	1018	n/a	-1	n/a	n/a	n/a	n/a	n/a
466010	REC_WORD	wordpools/wasnorm_wordpool_less_exclusions.txt	LTP191	ltpFR	16	3	n/a	ROAD	1196	n/a	n/a	n/a	n/a	n/a	n/a	n/a
467487	REC_WORD	wordpools/wasnorm_wordpool_less_exclusions.txt	LTP191	ltpFR	16	3	-1	WAGON	1578	n/a	-1	n/a	n/a	n/a	n/a	n/a
472715	REC_WORD	wordpools/wasnorm_wordpool_less_exclusions.txt	LTP191	ltpFR	16	3	-1	PALM	1007	n/a	-1	n/a	n/a	n/a	n/a	n/a
477184	REC_WORD	wordpools/wasnorm_wordpool_less_exclusions.txt	LTP191	ltpFR	16	3	-1	FOOT	590	n/a	-1	n/a	n/a	n/a	n/a	n/a
480931	REC_WORD	wordpools/wasnorm_wordpool_less_exclusions.txt	LTP191	ltpFR	16	3	n/a	TOE	1473	n/a	n/a	n/a	n/a	n/a	n/a	n/a
490270	REC_WORD	wordpools/wasnorm_wordpool_less_exclusions.txt	LTP191	ltpFR	16	3	-1	TOENAIL	1474	n/a	-1	n/a	n/a	n/a	n/a	n/a
506170	WORD	wordpools/wasnorm_wordpool_less_exclusions.txt	LTP191	ltpFR	16	4	0	CHARCOAL	281	n/a	0	1	0.412841796875	0.57763671875	lower	../fonts/zerothre.ttf
510125	WORD	wordpools/wasnorm_wordpool_less_exclusions.txt	LTP191	ltpFR	16	4	0	BRAN	167	n/a	0	1	0.412841796875	0.57763671875	lower	../fonts/zerothre.ttf
514207	WORD	wordpools/wasnorm_wordpool_less_exclusions.txt	LTP191	ltpFR	16	4	1	TOAST	1471	n/a	0	0	0.5869140625	0.422607421875	upper	../fonts/amplitud.ttf
518424	WORD	wordpools/wasnorm_wordpool_less_exclusions.txt	LTP191	ltpFR	16	4	1	MARSH	874	n/a	0	0	0.5869140625	0.422607421875	upper	../fonts/amplitud.ttf
522649	WORD	wordpools/wasnorm_wordpool_less_exclusions.txt	LTP191	ltpFR	16	4	1	CANAL	226	n/a	0	0	0.5869140625	0.422607421875	upper	../fonts/amplitud.ttf
526698	WORD	wordpools/wasnorm_wordpool_less_exclusions.txt	LTP191	ltpFR	16	4	0	BEETLE	116	n/a	0	1	0.412841796875	0.57763671875	lower	../fonts/zerothre.ttf
530914	WORD	wordpools/wasnorm_wordpool_less_exclusions.txt	LTP191	ltpFR	16	4	0	BUTTERFLY	206	n/a	0	1	0.412841796875	0.57763671875	lower	../fonts/zerothre.ttf
534768	WORD	wordpools/wasnorm_wordpool_less_exclusions.txt	LTP191	ltpFR	16	4	1	FARM	552	n/a	0	0	0.5869140625	0.422607421875	upper	../fonts/amplitud.ttf
538749	WORD	wordpools/wasnorm_wordpool_less_exclusions.txt	LTP191	ltpFR	16	4	1	NOVEL	960	n/a	0	0	0.5869140625	0.422607421875	upper	../fonts/amplitud.ttf
542859	WORD	wordpools/wasnorm_wordpool_less_exclusions.txt	LTP191	ltpFR	16	4	1	SWAN	1417	n/a	1	0	0.5869140625	0.422607421875	upper	../fonts/amplitud.ttf
547014	WORD	wordpools/wasnorm_wordpool_less_exclusions.txt	LTP191	ltpFR	16	4	1	MONGOOSE	909	n/a	1	0	0.5869140625	0.422607421875	upper	../fonts/amplitud.ttf
550862	WORD	wordpools/wasnorm_wordpool_less_exclusions.txt	LTP191	ltpFR	16	4	1	POSTAGE	1113	n/a	0	0	0.5869140625	0.422607421875	upper	../fonts/amplitud.ttf
554810	WORD	wordpools/wasnorm_wordpool_less_exclusions.txt	LTP191	ltpFR	16	4	0	CASTLE	256	n/a	1	1	0.412841796875	0.57763671875	lower	../fonts/zerothre.ttf
558953	WORD	wordpools/wasnorm_wordpool_less_exclusions.txt	LTP191	ltpFR	16	4	0	GOOSE	649	n/a	1	1	0.412841796875	0.57763671875	lower	../fonts/zerothre.ttf
563091	WORD	wordpools/wasnorm_wordpool_less_exclusions.txt	LTP191	ltpFR	16	4	0	DUNGEON	507	n/a	1	1	0.412841796875	0.57763671875	lower	../fonts/zerothre.ttf
567039	WORD	wordpools/wasnorm_wordpool_less_exclusions.txt	LTP191	ltpFR	16	4	0	PUBLICATION	1136	n/a	0	1	0.412841796875	0.57763671875	lower	../fonts/zerothre.ttf
572873	REC_START	n/a	LTP191	ltpFR	16	4	n/a	n/a	n/a	n/a	n/a	n/a	n/a	n/a	n/a	n/a
574484	REC_WORD	wordpools/wasnorm_wordpool_less_exclusions.txt	LTP191	ltpFR	16	4	0	PUBLICATION	1136	n/a	0	n/a	n/a	n/a	n/a	n/a
576809	REC_WORD	wordpools/wasnorm_wordpool_less_exclusions.txt	LTP191	ltpFR	16	4	1	NOVEL	960	n/a	0	n/a	n/a	n/a	n/a	n/a
581049	REC_WORD	wordpools/wasnorm_wordpool_less_exclusions.txt	LTP191	ltpFR	16	4	n/a	COW	393	n/a	n/a	n/a	n/a	n/a	n/a	n/a
582236	REC_WORD	wordpools/wasnorm_wordpool_less_exclusions.txt	LTP191	ltpFR	16	4	1	FARM	552	n/a	0	n/a	n/a	n/a	n/a	n/a
587405	REC_WORD	wordpools/wasnorm_wordpool_less_exclusions.txt	LTP191	ltpFR	16	4	n/a	BUG	187	n/a	n/a	n/a	n/a	n/a	n/a	n/a
588692	REC_WORD	wordpools/wasnorm_wordpool_less_exclusions.txt	LTP191	ltpFR	16	4	0	BEETLE	116	n/a	0	n/a	n/a	n/a	n/a	n/a
589610	REC_WORD	wordpools/wasnorm_wordpool_less_exclusions.txt	LTP191	ltpFR	16	4	0	BUTTERFLY	206	n/a	0	n/a	n/a	n/a	n/a	n/a
592743	REC_WORD	wordpools/wasnorm_wordpool_less_exclusions.txt	LTP191	ltpFR	16	4	n/a	BIRD	129	n/a	n/a	n/a	n/a	n/a	n/a	n/a
593865	REC_WORD	wordpools/wasnorm_wordpool_less_exclusions.txt	LTP191	ltpFR	16	4	1	SWAN	1417	n/a	1	n/a	n/a	n/a	n/a	n/a
595656	REC_WORD	wordpools/wasnorm_wordpool_less_exclusions.txt	LTP191	ltpFR	16	4	0	GOOSE	649	n/a	1	n/a	n/a	n/a	n/a	n/a
597242	REC_WORD	wordpools/wasnorm_wordpool_less_exclusions.txt	LTP191	ltpFR	16	4	1	MONGOOSE	909	n/a	1	n/a	n/a	n/a	n/a	n/a
600595	REC_WORD	wordpools/wasnorm_wordpool_less_exclusions.txt	LTP191	ltpFR	16	4	1	POSTAGE	1113	n/a	0	n/a	n/a	n/a	n/a	n/a
601892	REC_WORD	wordpools/wasnorm_wordpool_less_exclusions.txt	LTP191	ltpFR	16	4	0	CASTLE	256	n/a	1	n/a	n/a	n/a	n/a	n/a
602870	REC_WORD	wordpools/wasnorm_wordpool_less_exclusions.txt	LTP191	ltpFR	16	4	0	DUNGEON	507	n/a	1	n/a	n/a	n/a	n/a	n/a
609973	REC_WORD	wordpools/wasnorm_wordpool_less_exclusions.txt	LTP191	ltpFR	16	4	1	MARSH	874	n/a	0	n/a	n/a	n/a	n/a	n/a
673351	WORD	wordpools/wasnorm_wordpool_less_exclusions.txt	LTP191	ltpFR	16	5	1	BEAVER	109	n/a	1	0	0.5869140625	0.422607421875	upper	../fonts/amplitud.ttf
677366	WORD	wordpools/wasnorm_wordpool_less_exclusions.txt	LTP191	ltpFR	16	5	1	SHERIFF	1284	n/a	1	0	0.5869140625	0.422607421875	upper	../fonts/amplitud.ttf
681438	WORD	wordpools/wasnorm_wordpool_less_exclusions.txt	LTP191	ltpFR	16	5	1	GALAXY	617	n/a	0	0	0.5869140625	0.422607421875	upper	../fonts/amplitud.ttf
685313	WORD	wordpools/wasnorm_wordpool_less_exclusions.txt	LTP191	ltpFR	16	5	1	FROG	608	n/a	1	0	0.5869140625	0.422607421875	upper	../fonts/amplitud.ttf
689143	WORD	wordpools/wasnorm_wordpool_less_exclusions.txt	LTP191	ltpFR	16	5	1	SODA	1341	n/a	0	0	0.5869140625	0.422607421875	upper	../fonts/amplitud.ttf
693316	WORD	wordpools/wasnorm_wordpool_less_exclusions.txt	LTP191	ltpFR	16	5	1	DEPUTY	450	n/a	1	0	0.5869140625	0.422607421875	upper	../fonts/amplitud.ttf
697531	WORD	wordpools/wasnorm_wordpool_less_exclusions.txt	LTP191	ltpFR	16	5	1	MILK	895	n/a	0	0	0.5869140625	0.422607421875	upper	../fonts/amplitud.ttf
701390	WORD	wordpools/wasnorm_wordpool_less_exclusions.txt	LTP191	ltpFR	16	5	1	CEREAL	272	n/a	0	0	0.5869140625	0.422607421875	upper	../fonts/amplitud.ttf
705494	WORD	wordpools/wasnorm_wordpool_less_exclusions.txt	LTP191	ltpFR	16	5	1	PAVEMENT	1028	n/a	0	0	0.5869140625	0.422607421875	upper	../fonts/amplitud.ttf
709476	WORD	wordpools/wasnorm_wordpool_less_exclusions.txt	LTP191	ltpFR	16	5	1	OWL	992	n/a	1	0	0.5869140625	0.422607421875	upper	../fonts/amplitud.ttf
713459	WORD	wordpools/wasnorm_wordpool_less_exclusions.txt	LTP191	ltpFR	16	5	1	FIDDLE	561	n/a	0	0	0.5869140625	0.422607421875	upper	../fonts/amplitud.ttf
717640	WORD	wordpools/wasnorm_wordpool_less_exclusions.txt	LTP191	ltpFR	16	5	1	TROMBONE	1508	n/a	0	0	0.5869140625	0.422607421875	upper	../fonts/amplitud.ttf
721482	WORD	wordpools/wasnorm_wordpool_less_exclusions.txt	LTP191	ltpFR	16	5	1	YOLK	1633	n/a	0	0	0.5869140625	0.422607421875	upper	../fonts/amplitud.ttf
725537	WORD	wordpools/wasnorm_wordpool_less_exclusions.txt	LTP191	ltpFR	16	5	1	FREEWAY	603	n/a	0	0	0.5869140625	0.422607421875	upper	../fonts/amplitud.ttf
729635	WORD	wordpools/wasnorm_wordpool_less_exclusions.txt	LTP191	ltpFR	16	5	1	SHARK	1275	n/a	1	0	0.5869140625	0.422607421875	upper	../fonts/amplitud.ttf
733567	WORD	wordpools/wasnorm_wordpool_less_exclusions.txt	LTP191	ltpFR	16	5	1	BRACES	164	n/a	0	0	0.5869140625	0.422607421875	upper	../fonts/amplitud.ttf
739490	REC_START	n/a	LTP191	ltpFR	16	5	n/a	n/a	n/a	n/a	n/a	n/a	n/a	n/a	n/a	n/a
740443	REC_WORD	wordpools/wasnorm_wordpool_less_exclusions.txt	LTP191	ltpFR	16	5	1	BRACES	164	n/a	0	n/a	n/a	n/a	n/a	n/a
741485	REC_WORD	wordpools/wasnorm_wordpool_less_exclusions.txt	LTP191	ltpFR	16	5	1	SHARK	1275	n/a	1	n/a	n/a	n/a	n/a	n/a
746549	REC_WORD	wordpools/wasnorm_wordpool_less_exclusions.txt	LTP191	ltpFR	16	5	n/a	BAND	78	n/a	n/a	n/a	n/a	n/a	n/a	n/a
747626	REC_WORD	wordpools/wasnorm_wordpool_less_exclusions.txt	LTP191	ltpFR	16	5	1	TROMBONE	1508	n/a	0	n/a	n/a	n/a	n/a	n/a
748839	REC_WORD	wordpools/wasnorm_wordpool_less_exclusions.txt	LTP191	ltpFR	16	5	1	FIDDLE	561	n/a	0	n/a	n/a	n/a	n/a	n/a
750704	REC_WORD	wordpools/wasnorm_wordpool_less_exclusions.txt	LTP191	ltpFR	16	5	1	OWL	992	n/a	1	n/a	n/a	n/a	n/a	n/a
753438	REC_WORD	wordpools/wasnorm_wordpool_less_exclusions.txt	LTP191	ltpFR	16	5	n/a	ROAD	1196	n/a	n/a	n/a	n/a	n/a	n/a	n/a
754338	REC_WORD	wordpools/wasnorm_wordpool_less_exclusions.txt	LTP191	ltpFR	16	5	1	FREEWAY	603	n/a	0	n/a	n/a	n/a	n/a	n/a
755658	REC_WORD	wordpools/wasnorm_wordpool_less_exclusions.txt	LTP191	ltpFR	16	5	1	PAVEMENT	1028	n/a	0	n/a	n/a	n/a	n/a	n/a
759988	REC_WORD	wordpools/wasnorm_wordpool_less_exclusions.txt	LTP191	ltpFR	16	5	n/a	POLICE	1098	n/a	n/a	n/a	n/a	n/a	n/a	n/a
761540	REC_WORD	wordpools/wasnorm_wordpool_less_exclusions.txt	LTP191	ltpFR	16	5	1	SHERIFF	1284	n/a	1	n/a	n/a	n/a	n/a	n/a
762911	REC_WORD	wordpools/wasnorm_wordpool_less_exclusions.txt	LTP191	ltpFR	16	5	1	DEPUTY	450	n/a	1	n/a	n/a	n/a	n/a	n/a
766448	REC_WORD	wordpools/wasnorm_wordpool_less_exclusions.txt	LTP191	ltpFR	16	5	1	MILK	895	n/a	0	n/a	n/a	n/a	n/a	n/a
766967	REC_WORD	wordpools/wasnorm_wordpool_less_exclusions.txt	LTP191	ltpFR	16	5	1	CEREAL	272	n/a	0	n/a	n/a	n/a	n/a	n/a
771098	REC_WORD	wordpools/wasnorm_wordpool_less_exclusions.txt	LTP191	ltpFR	16	5	1	BEAVER	109	n/a	1	n/a	n/a	n/a	n/a	n/a
781409	REC_WORD	wordpools/wasnorm_wordpool_less_exclusions.txt	LTP191	ltpFR	16	5	n/a	SPACE	1345	n/a	n/a	n/a	n/a	n/a	n/a	n/a
783445	REC_WORD	wordpools/wasnorm_wordpool_less_exclusions.txt	LTP191	ltpFR	16	5	1	GALAXY	617	n/a	0	n/a	n/a	n/a	n/a	n/a
786938	REC_WORD	wordpools/wasnorm_wordpool_less_exclusions.txt	LTP191	ltpFR	16	5	1	FROG	608	n/a	1	n/a	n/a	n/a	n/a	n/a
831513	WORD	wordpools/wasnorm_wordpool_less_exclusions.txt	LTP191	ltpFR	16	6	-1	PROTON	1132	n/a	-1	1	1.0	1.0	upper	../fonts/Verdana.ttf
835402	WORD	wordpools/wasnorm_wordpool_less_exclusions.txt	LTP191	ltpFR	16	6	-1	TOASTER	1472	n/a	-1	1	1.0	1.0	upper	../fonts/Verdana.ttf
839299	WORD	wordpools/wasnorm_wordpool_less_exclusions.txt	LTP191	ltpFR	16	6	-1	SUMMIT	1405	n/a	-1	1	1.0	1.0	upper	../fonts/Verdana.ttf
843342	WORD	wordpools/wasnorm_wordpool_less_exclusions.txt	LTP191	ltpFR	16	6	-1	CELLAR	267	n/a	-1	1	1.0	1.0	upper	../fonts/Verdana.ttf
847391	WORD	wordpools/wasnorm_wordpool_less_exclusions.txt	LTP191	ltpFR	16	6	-1	HOME	712	n/a	-1	1	1.0	1.0	upper	../fonts/Verdana.ttf
851555	WORD	wordpools/wasnorm_wordpool_less_exclusions.txt	LTP191	ltpFR	16	6	-1	ROOF	1205	n/a	-1	1	1.0	1.0	upper	../fonts/Verdana.ttf
855644	WORD	wordpools/wasnorm_wordpool_less_exclusions.txt	LTP191	ltpFR	16	6	-1	BANNER	85	n/a	-1	1	1.0	1.0	upper	../fonts/Verdana.ttf
859826	WORD	wordpools/wasnorm_wordpool_less_exclusions.txt	LTP191	ltpFR	16	6	-1	TEMPLE	1448	n/a	-1	1	1.0	1.0	upper	../fonts/Verdana.ttf
863908	WORD	wordpools/wasnorm_wordpool_less_exclusions.txt	LTP191	ltpFR	16	6	-1	MINK	897	n/a	-1	1	1.0	1.0	upper	../fonts/Verdana.ttf
868024	WORD	wordpools/wasnorm_wordpool_less_exclusions.txt	LTP191	ltpFR	16	6	-1	POLE	1097	n/a	-1	1	1.0	1.0	upper	../fonts/Verdana.ttf
872049	WORD	wordpools/wasnorm_wordpool_less_exclusions.txt	LTP191	ltpFR	16	6	-1	WINDSHIELD	1612	n/a	-1	1	1.0	1.0	upper	../fonts/Verdana.ttf
875880	WORD	wordpools/wasnorm_wordpool_less_exclusions.txt	LTP191	ltpFR	16	6	-1	GREASE	660	n/a	-1	1	1.0	1.0	upper	../fonts/Verdana.ttf
879946	WORD	wordpools/wasnorm_wordpool_less_exclusions.txt	LTP191	ltpFR	16	6	-1	SPARROW	1347	n/a	-1	1	1.0	1.0	upper	../fonts/Verdana.ttf
883793	WORD	wordpools/wasnorm_wordpool_less_exclusions.txt	LTP191	ltpFR	16	6	-1	SEAGULL	1261	n/a	-1	1	1.0	1.0	upper	../fonts/Verdana.ttf
887898	WORD	wordpools/wasnorm_wordpool_less_exclusions.txt	LTP191	ltpFR	16	6	-1	FRIAR	605	n/a	-1	1	1.0	1.0	upper	../fonts/Verdana.ttf
891930	WORD	wordpools/wasnorm_wordpool_less_exclusions.txt	LTP191	ltpFR	16	6	-1	BAIT	70	n/a	-1	1	1.0	1.0	upper	../fonts/Verdana.ttf
897971	REC_START	n/a	LTP191	ltpFR	16	6	n/a	n/a	n/a	n/a	n/a	n/a	n/a	n/a	n/a	n/a
898729	REC_WORD	wordpools/wasnorm_wordpool_less_exclusions.txt	LTP191	ltpFR	16	6	-1	BAIT	70	n/a	-1	n/a	n/a	n/a	n/a	n/a
899681	REC_WORD	wordpools/wasnorm_wordpool_less_exclusions.txt	LTP191	ltpFR	16	6	-1	FRIAR	605	n/a	-1	n/a	n/a	n/a	n/a	n/a
901308	REC_WORD	wordpools/wasnorm_wordpool_less_exclusions.txt	LTP191	ltpFR	16	6	-1	TEMPLE	1448	n/a	-1	n/a	n/a	n/a	n/a	n/a
903792	REC_WORD	wordpools/wasnorm_wordpool_less_exclusions.txt	LTP191	ltpFR	16	6	n/a	FLAG	573	n/a	n/a	n/a	n/a	n/a	n/a	n/a
905898	REC_WORD	wordpools/wasnorm_wordpool_less_exclusions.txt	LTP191	ltpFR	16	6	-1	POLE	1097	n/a	-1	n/a	n/a	n/a	n/a	n/a
906985	REC_WORD	wordpools/wasnorm_wordpool_less_exclusions.txt	LTP191	ltpFR	16	6	-1	BANNER	85	n/a	-1	n/a	n/a	n/a	n/a	n/a
909125	REC_WORD	wordpools/wasnorm_wordpool_less_exclusions.txt	LTP191	ltpFR	16	6	n/a	HOUSE	725	n/a	n/a	n/a	n/a	n/a	n/a	n/a
910125	REC_WORD_VV	wordpools/wasnorm_wordpool_less_exclusions.txt	LTP191	ltpFR	16	6	n/a	<>	-1	n/a	n/a	n/a	n/a	n/a	n/a	n/a
911036	REC_WORD	wordpools/wasnorm_wordpool_less_exclusions.txt	LTP191	ltpFR	16	6	-1	ROOF	1205	n/a	-1	n/a	n/a	n/a	n/a	n/a
913525	REC_WORD	wordpools/wasnorm_wordpool_less_exclusions.txt	LTP191	ltpFR	16	6	-1	HOME	712	n/a	-1	n/a	n/a	n/a	n/a	n/a
915078	REC_WORD	wordpools/wasnorm_wordpool_less_exclusions.txt	LTP191	ltpFR	16	6	-1	CELLAR	267	n/a	-1	n/a	n/a	n/a	n/a	n/a
922869	REC_WORD	wordpools/wasnorm_wordpool_less_exclusions.txt	LTP191	ltpFR	16	6	-1	SEAGULL	1261	n/a	-1	n/a	n/a	n/a	n/a	n/a
923702	REC_WORD	wordpools/wasnorm_wordpool_less_exclusions.txt	LTP191	ltpFR	16	6	-1	SPARROW	1347	n/a	-1	n/a	n/a	n/a	n/a	n/a
931539	REC_WORD	wordpools/wasnorm_wordpool_less_exclusions.txt	LTP191	ltpFR	16	6	n/a	MOUNTAIN	924	n/a	n/a	n/a	n/a	n/a	n/a	n/a
932841	REC_WORD	wordpools/wasnorm_wordpool_less_exclusions.txt	LTP191	ltpFR	16	6	-1	SUMMIT	1405	n/a	-1	n/a	n/a	n/a	n/a	n/a
934977	REC_WORD	wordpools/wasnorm_wordpool_less_exclusions.txt	LTP191	ltpFR	16	6	-1	TOASTER	1472	n/a	-1	n/a	n/a	n/a	n/a	n/a
936094	REC_WORD	wordpools/wasnorm_wordpool_less_exclusions.txt	LTP191	ltpFR	16	6	-1	PROTON	1132	n/a	-1	n/a	n/a	n/a	n/a	n/a
951165	REC_WORD	wordpools/wasnorm_wordpool_less_exclusions.txt	LTP191	ltpFR	16	6	-1	MINK	897	n/a	-1	n/a	n/a	n/a	n/a	n/a
985650	WORD	wordpools/wasnorm_wordpool_less_exclusions.txt	LTP191	ltpFR	16	7	-1	BUREAU	199	n/a	-1	1	1.0	1.0	upper	../fonts/Verdana.ttf
989676	WORD	wordpools/wasnorm_wordpool_less_exclusions.txt	LTP191	ltpFR	16	7	-1	PITCHFORK	1078	n/a	-1	1	1.0	1.0	upper	../fonts/Verdana.ttf
993864	WORD	wordpools/wasnorm_wordpool_less_exclusions.txt	LTP191	ltpFR	16	7	-1	UNDERWEAR	1537	n/a	-1	1	1.0	1.0	upper	../fonts/Verdana.ttf
997863	WORD	wordpools/wasnorm_wordpool_less_exclusions.txt	LTP191	ltpFR	16	7	-1	OX	994	n/a	-1	1	1.0	1.0	upper	../fonts/Verdana.ttf
1001972	WORD	wordpools/wasnorm_wordpool_less_exclusions.txt	LTP191	ltpFR	16	7	-1	BOLT	146	n/a	-1	1	1.0	1.0	upper	../fonts/Verdana.ttf
1005853	WORD	wordpools/wasnorm_wordpool_less_exclusions.txt	LTP191	ltpFR	16	7	-1	SERGEANT	1269	n/a	-1	1	1.0	1.0	upper	../fonts/Verdana.ttf
1010009	WORD	wordpools/wasnorm_wordpool_less_exclusions.txt	LTP191	ltpFR	16	7	-1	MAILBOX	857	n/a	-1	1	1.0	1.0	upper	../fonts/Verdana.ttf
1013856	WORD	wordpools/wasnorm_wordpool_less_exclusions.txt	LTP191	ltpFR	16	7	-1	MAILMAN	858	n/a	-1	1	1.0	1.0	upper	../fonts/Verdana.ttf
1018033	WORD	wordpools/wasnorm_wordpool_less_exclusions.txt	LTP191	ltpFR	16	7	-1	VIKING	1565	n/a	-1	1	1.0	1.0	upper	../fonts/Verdana.ttf
1022148	WORD	wordpools/wasnorm_wordpool_less_exclusions.txt	LTP191	ltpFR	16	7	-1	NAVIGATOR	938	n/a	-1	1	1.0	1.0	upper	../fonts/Verdana.ttf
1026147	WORD	wordpools/wasnorm_wordpool_less_exclusions.txt	LTP191	ltpFR	16	7	-1	CLOTHES	327	n/a	-1	1	1.0	1.0	upper	../fonts/Verdana.ttf
1030185	WORD	wordpools/wasnorm_wordpool_less_exclusions.txt	LTP191	ltpFR	16	7	-1	PORCUPINE	1107	n/a	-1	1	1.0	1.0	upper	../fonts/Verdana.ttf
1034402	WORD	wordpools/wasnorm_wordpool_less_exclusions.txt	LTP191	ltpFR	16	7	-1	HARP	689	n/a	-1	1	1.0	1.0	upper	../fonts/Verdana.ttf
1038616	WORD	wordpools/wasnorm_wordpool_less_exclusions.txt	LTP191	ltpFR	16	7	-1	SHEET	1279	n/a	-1	1	1.0	1.0	upper	../fonts/Verdana.ttf
1042498	WORD	wordpools/wasnorm_wordpool_less_exclusions.txt	LTP191	ltpFR	16	7	-1	CARD	243	n/a	-1	1	1.0	1.0	upper	../fonts/Verdana.ttf
1046674	WORD	wordpools/wasnorm_wordpool_less_exclusions.txt	LTP191	ltpFR	16	7	-1	STEREO	1378	n/a	-1	1	1.0	1.0	upper	../fonts/Verdana.ttf
1052314	REC_START	n/a	LTP191	ltpFR	16	7	n/a	n/a	n/a	n/a	n/a	n/a	n/a	n/a	n/a	n/a
1053046	REC_WORD	wordpools/wasnorm_wordpool_less_exclusions.txt	LTP191	ltpFR	16	7	-1	STEREO	1378	n/a	-1	n/a	n/a	n/a	n/a	n/a
1054424	REC_WORD	wordpools/wasnorm_wordpool_less_exclusions.txt	LTP191	ltpFR	16	7	-1	CARD	243	n/a	-1	n/a	n/a	n/a	n/a	n/a
1055282	REC_WORD	wordpools/wasnorm_wordpool_less_exclusions.txt	LTP191	ltpFR	16	7	-1	SHEET	1279	n/a	-1	n/a	n/a	n/a	n/a	n/a
1056514	REC_WORD	wordpools/wasnorm_wordpool_less_exclusions.txt	LTP191	ltpFR	16	7	-1	CLOTHES	327	n/a	-1	n/a	n/a	n/a	n/a	n/a
1060779	REC_WORD	wordpools/wasnorm_wordpool_less_exclusions.txt	LTP191	ltpFR	16	7	-1	VIKING	1565	n/a	-1	n/a	n/a	n/a	n/a	n/a
1063349	REC_WORD	wordpools/wasnorm_wordpool_less_exclusions.txt	LTP191	ltpFR	16	7	-1	NAVIGATOR	938	n/a	-1	n/a	n/a	n/a	n/a	n/a
1079871	REC_WORD	wordpools/wasnorm_wordpool_less_exclusions.txt	LTP191	ltpFR	16	7	-1	BUREAU	199	n/a	-1	n/a	n/a	n/a	n/a	n/a
1081657	REC_WORD	wordpools/wasnorm_wordpool_less_exclusions.txt	LTP191	ltpFR	16	7	-1	SERGEANT	1269	n/a	-1	n/a	n/a	n/a	n/a	n/a
1084466	REC_WORD	wordpools/wasnorm_wordpool_less_exclusions.txt	LTP191	ltpFR	16	7	-1	OX	994	n/a	-1	n/a	n/a	n/a	n/a	n/a
1085613	REC_WORD	wordpools/wasnorm_wordpool_less_exclusions.txt	LTP191	ltpFR	16	7	-1	BOLT	146	n/a	-1	n/a	n/a	n/a	n/a	n/a
1086611	REC_WORD	wordpools/wasnorm_wordpool_less_exclusions.txt	LTP191	ltpFR	16	7	-1	UNDERWEAR	1537	n/a	-1	n/a	n/a	n/a	n/a	n/a
1101008	REC_WORD	wordpools/wasnorm_wordpool_less_exclusions.txt	LTP191	ltpFR	16	7	-1	MAILBOX	857	n/a	-1	n/a	n/a	n/a	n/a	n/a
1101791	REC_WORD	wordpools/wasnorm_wordpool_less_exclusions.txt	LTP191	ltpFR	16	7	-1	MAILMAN	858	n/a	-1	n/a	n/a	n/a	n/a	n/a
1116952	REC_WORD	wordpools/wasnorm_wordpool_less_exclusions.txt	LTP191	ltpFR	16	7	-1	PITCHFORK	1078	n/a	-1	n/a	n/a	n/a	n/a	n/a
1130680	WORD	wordpools/wasnorm_wordpool_less_exclusions.txt	LTP191	ltpFR	16	8	-1	ASH	44	n/a	-1	1	1.0	1.0	upper	../fonts/Verdana.ttf
1134846	WORD	wordpools/wasnorm_wordpool_less_exclusions.txt	LTP191	ltpFR	16	8	-1	ASHTRAY	45	n/a	-1	1	1.0	1.0	upper	../fonts/Verdana.ttf
1138804	WORD	wordpools/wasnorm_wordpool_less_exclusions.txt	LTP191	ltpFR	16	8	-1	MOTOR	922	n/a	-1	1	1.0	1.0	upper	../fonts/Verdana.ttf
1142960	WORD	wordpools/wasnorm_wordpool_less_exclusions.txt	LTP191	ltpFR	16	8	-1	SALESMAN	1225	n/a	-1	1	1.0	1.0	upper	../fonts/Verdana.ttf
1147008	WORD	wordpools/wasnorm_wordpool_less_exclusions.txt	LTP191	ltpFR	16	8	-1	LIGHTER	819	n/a	-1	1	1.0	1.0	upper	../fonts/Verdana.ttf
1151201	WORD	wordpools/wasnorm_wordpool_less_exclusions.txt	LTP191	ltpFR	16	8	-1	SCREW	1254	n/a	-1	1	1.0	1.0	upper	../fonts/Verdana.ttf
1155351	WORD	wordpools/wasnorm_wordpool_less_exclusions.txt	LTP191	ltpFR	16	8	-1	SANDPAPER	1231	n/a	-1	1	1.0	1.0	upper	../fonts/Verdana.ttf
1159532	WORD	wordpools/wasnorm_wordpool_less_exclusions.txt	LTP191	ltpFR	16	8	-1	DRAGON	492	n/a	-1	1	1.0	1.0	upper	../fonts/Verdana.ttf
1163404	WORD	wordpools/wasnorm_wordpool_less_exclusions.txt	LTP191	ltpFR	16	8	-1	DOVE	491	n/a	-1	1	1.0	1.0	upper	../fonts/Verdana.ttf
1167603	WORD	wordpools/wasnorm_wordpool_less_exclusions.txt	LTP191	ltpFR	16	8	-1	WAIST	1579	n/a	-1	1	1.0	1.0	upper	../fonts/Verdana.ttf
1171595	WORD	wordpools/wasnorm_wordpool_less_exclusions.txt	LTP191	ltpFR	16	8	-1	CONE	363	n/a	-1	1	1.0	1.0	upper	../fonts/Verdana.ttf
1175817	WORD	wordpools/wasnorm_wordpool_less_exclusions.txt	LTP191	ltpFR	16	8	-1	HORSE	719	n/a	-1	1	1.0	1.0	upper	../fonts/Verdana.ttf
1179765	WORD	wordpools/wasnorm_wordpool_less_exclusions.txt	LTP191	ltpFR	16	8	-1	TRACTOR	1493	n/a	-1	1	1.0	1.0	upper	../fonts/Verdana.ttf
1183673	WORD	wordpools/wasnorm_wordpool_less_exclusions.txt	LTP191	ltpFR	16	8	-1	CROW	414	n/a	-1	1	1.0	1.0	upper	../fonts/Verdana.ttf
1187856	WORD	wordpools/wasnorm_wordpool_less_exclusions.txt	LTP191	ltpFR	16	8	-1	LUMBER	848	n/a	-1	1	1.0	1.0	upper	../fonts/Verdana.ttf
1192005	WORD	wordpools/wasnorm_wordpool_less_exclusions.txt	LTP191	ltpFR	16	8	-1	OLIVE	975	n/a	-1	1	1.0	1.0	upper	../fonts/Verdana.ttf
1197750	REC_START	n/a	LTP191	ltpFR	16	8	n/a	n/a	n/a	n/a	n/a	n/a	n/a	n/a	n/a	n/a
1198658	REC_WORD	wordpools/wasnorm_wordpool_less_exclusions.txt	LTP191	ltpFR	16	8	-1	OLIVE	975	n/a	-1	n/a	n/a	n/a	n/a	n/a
1199565	REC_WORD	wordpools/wasnorm_wordpool_less_exclusions.txt	LTP191	ltpFR	16	8	-1	LUMBER	848	n/a	-1	n/a	n/a	n/a	n/a	n/a
1202294	REC_WORD	wordpools/wasnorm_wordpool_less_exclusions.txt	LTP191	ltpFR	16	8	-1	ASH	44	n/a	-1	n/a	n/a	n/a	n/a	n/a
1203392	REC_WORD	wordpools/wasnorm_wordpool_less_exclusions.txt	LTP191	ltpFR	16	8	-1	ASHTRAY	45	n/a	-1	n/a	n/a	n/a	n/a	n/a
1204983	REC_WORD	wordpools/wasnorm_wordpool_less_exclusions.txt	LTP191	ltpFR	16	8	-1	MOTOR	922	n/a	-1	n/a	n/a	n/a	n/a	n/a
1205761	REC_WORD	wordpools/wasnorm_wordpool_less_exclusions.txt	LTP191	ltpFR	16	8	-1	SALESMAN	1225	n/a	-1	n/a	n/a	n/a	n/a	n/a
1208231	REC_WORD	wordpools/wasnorm_wordpool_less_exclusions.txt	LTP191	ltpFR	16	8	-1	LIGHTER	819	n/a	-1	n/a	n/a	n/a	n/a	n/a
1209597	REC_WORD	wordpools/wasnorm_wordpool_less_exclusions.txt	LTP191	ltpFR	16	8	-1	SCREW	1254	n/a	-1	n/a	n/a	n/a	n/a	n/a
1214107	REC_WORD	wordpools/wasnorm_wordpool_less_exclusions.txt	LTP191	ltpFR	16	8	-1	SANDPAPER	1231	n/a	-1	n/a	n/a	n/a	n/a	n/a
1216492	REC_WORD	wordpools/wasnorm_wordpool_less_exclusions.txt	LTP191	ltpFR	16	8	-1	DRAGON	492	n/a	-1	n/a	n/a	n/a	n/a	n/a
1217899	REC_WORD	wordpools/wasnorm_wordpool_less_exclusions.txt	LTP191	ltpFR	16	8	-1	DOVE	491	n/a	-1	n/a	n/a	n/a	n/a	n/a
1219575	REC_WORD	wordpools/wasnorm_wordpool_less_exclusions.txt	LTP191	ltpFR	16	8	-1	WAIST	1579	n/a	-1	n/a	n/a	n/a	n/a	n/a
1220772	REC_WORD	wordpools/wasnorm_wordpool_less_exclusions.txt	LTP191	ltpFR	16	8	-1	CONE	363	n/a	-1	n/a	n/a	n/a	n/a	n/a
1224070	REC_WORD	wordpools/wasnorm_wordpool_less_exclusions.txt	LTP191	ltpFR	16	8	-1	CROW	414	n/a	-1	n/a	n/a	n/a	n/a	n/a
1231709	REC_WORD	wordpools/wasnorm_wordpool_less_exclusions.txt	LTP191	ltpFR	16	8	1	FARM	552	n/a	0	n/a	n/a	n/a	n/a	n/a
1233433	REC_WORD	wordpools/wasnorm_wordpool_less_exclusions.txt	LTP191	ltpFR	16	8	-1	HORSE	719	n/a	-1	n/a	n/a	n/a	n/a	n/a
1234795	REC_WORD	wordpools/wasnorm_wordpool_less_exclusions.txt	LTP191	ltpFR	16	8	-1	TRACTOR	1493	n/a	-1	n/a	n/a	n/a	n/a	n/a
1258581	REC_WORD	wordpools/wasnorm_wordpool_less_exclusions.txt	LTP191	ltpFR	16	8	-1	LUMBER	848	n/a	-1	n/a	n/a	n/a	n/a	n/a
1288786	WORD	wordpools/wasnorm_wordpool_less_exclusions.txt	LTP191	ltpFR	16	9	0	LIP	828	n/a	0	1	0.412841796875	0.57763671875	lower	../fonts/zerothre.ttf
1292969	WORD	wordpools/wasnorm_wordpool_less_exclusions.txt	LTP191	ltpFR	16	9	0	MERMAID	887	n/a	1	1	0.412841796875	0.57763671875	lower	../fonts/zerothre.ttf
1297024	WORD	wordpools/wasnorm_wordpool_less_exclusions.txt	LTP191	ltpFR	16	9	0	TRAITOR	1495	n/a	1	1	0.412841796875	0.57763671875	lower	../fonts/zerothre.ttf
1300905	WORD	wordpools/wasnorm_wordpool_less_exclusions.txt	LTP191	ltpFR	16	9	0	DRIVEWAY	500	n/a	1	1	0.412841796875	0.57763671875	lower	../fonts/zerothre.ttf
1304769	WORD	wordpools/wasnorm_wordpool_less_exclusions.txt	LTP191	ltpFR	16	9	0	COOKBOOK	373	n/a	0	1	0.412841796875	0.57763671875	lower	../fonts/zerothre.ttf
1308684	WORD	wordpools/wasnorm_wordpool_less_exclusions.txt	LTP191	ltpFR	16	9	0	SANDWICH	1232	n/a	0	1	0.412841796875	0.57763671875	lower	../fonts/zerothre.ttf
1312676	WORD	wordpools/wasnorm_wordpool_less_exclusions.txt	LTP191	ltpFR	16	9	0	GARDEN	623	n/a	1	1	0.412841796875	0.57763671875	lower	../fonts/zerothre.ttf
1316731	WORD	wordpools/wasnorm_wordpool_less_exclusions.txt	LTP191	ltpFR	16	9	0	DAISY	435	n/a	0	1	0.412841796875	0.57763671875	lower	../fonts/zerothre.ttf
1320696	WORD	wordpools/wasnorm_wordpool_less_exclusions.txt	LTP191	ltpFR	16	9	0	BLUEBERRY	140	n/a	0	1	0.412841796875	0.57763671875	lower	../fonts/zerothre.ttf
1324694	WORD	wordpools/wasnorm_wordpool_less_exclusions.txt	LTP191	ltpFR	16	9	0	NOSE	957	n/a	0	1	0.412841796875	0.57763671875	lower	../fonts/zerothre.ttf
1328659	WORD	wordpools/wasnorm_wordpool_less_exclusions.txt	LTP191	ltpFR	16	9	0	PICK	1058	n/a	0	1	0.412841796875	0.57763671875	lower	../fonts/zerothre.ttf
1332859	WORD	wordpools/wasnorm_wordpool_less_exclusions.txt	LTP191	ltpFR	16	9	0	WAITRESS	1581	n/a	1	1	0.412841796875	0.57763671875	lower	../fonts/zerothre.ttf
1337058	WORD	wordpools/wasnorm_wordpool_less_exclusions.txt	LTP191	ltpFR	16	9	0	TRAY	1498	n/a	0	1	0.412841796875	0.57763671875	lower	../fonts/zerothre.ttf
1340939	WORD	wordpools/wasnorm_wordpool_less_exclusions.txt	LTP191	ltpFR	16	9	0	CURB	426	n/a	1	1	0.412841796875	0.57763671875	lower	../fonts/zerothre.ttf
1344770	WORD	wordpools/wasnorm_wordpool_less_exclusions.txt	LTP191	ltpFR	16	9	0	COBBLER	335	n/a	0	1	0.412841796875	0.57763671875	lower	../fonts/zerothre.ttf
1348869	WORD	wordpools/wasnorm_wordpool_less_exclusions.txt	LTP191	ltpFR	16	9	0	SPINACH	1352	n/a	0	1	0.412841796875	0.57763671875	lower	../fonts/zerothre.ttf
1354736	REC_START	n/a	LTP191	ltpFR	16	9	n/a	n/a	n/a	n/a	n/a	n/a	n/a	n/a	n/a	n/a
1355131	REC_WORD	wordpools/wasnorm_wordpool_less_exclusions.txt	LTP191	ltpFR	16	9	0	SPINACH	1352	n/a	0	n/a	n/a	n/a	n/a	n/a
1356462	REC_WORD	wordpools/wasnorm_wordpool_less_exclusions.txt	LTP191	ltpFR	16	9	0	COBBLER	335	n/a	0	n/a	n/a	n/a	n/a	n/a
1357490	REC_WORD	wordpools/wasnorm_wordpool_less_exclusions.txt	LTP191	ltpFR	16	9	0	CURB	426	n/a	1	n/a	n/a	n/a	n/a	n/a
1359061	REC_WORD	wordpools/wasnorm_wordpool_less_exclusions.txt	LTP191	ltpFR	16	9	0	WAITRESS	1581	n/a	1	n/a	n/a	n/a	n/a	n/a
1360213	REC_WORD	wordpools/wasnorm_wordpool_less_exclusions.txt	LTP191	ltpFR	16	9	0	PICK	1058	n/a	0	n/a	n/a	n/a	n/a	n/a
1361091	REC_WORD	wordpools/wasnorm_wordpool_less_exclusions.txt	LTP191	ltpFR	16	9	0	NOSE	957	n/a	0	n/a	n/a	n/a	n/a	n/a
1362019	REC_WORD	wordpools/wasnorm_wordpool_less_exclusions.txt	LTP191	ltpFR	16	9	0	LIP	828	n/a	0	n/a	n/a	n/a	n/a	n/a
1367053	REC_WORD	wordpools/wasnorm_wordpool_less_exclusions.txt	LTP191	ltpFR	16	9	n/a	YARD	1630	n/a	n/a	n/a	n/a	n/a	n/a	n/a
1368280	REC_WORD	wordpools/wasnorm_wordpool_less_exclusions.txt	LTP191	ltpFR	16	9	0	GARDEN	623	n/a	1	n/a	n/a	n/a	n/a	n/a
1371168	REC_WORD	wordpools/wasnorm_wordpool_less_exclusions.txt	LTP191	ltpFR	16	9	0	BLUEBERRY	140	n/a	0	n/a	n/a	n/a	n/a	n/a
1375334	REC_WORD	wordpools/wasnorm_wordpool_less_exclusions.txt	LTP191	ltpFR	16	9	0	WAITRESS	1581	n/a	1	n/a	n/a	n/a	n/a	n/a
1376491	REC_WORD	wordpools/wasnorm_wordpool_less_exclusions.txt	LTP191	ltpFR	16	9	0	TRAY	1498	n/a	0	n/a	n/a	n/a	n/a	n/a
1403455	REC_WORD	wordpools/wasnorm_wordpool_less_exclusions.txt	LTP191	ltpFR	16	9	n/a	OCEAN	970	n/a	n/a	n/a	n/a	n/a	n/a	n/a
1406563	REC_WORD	wordpools/wasnorm_wordpool_less_exclusions.txt	LTP191	ltpFR	16	9	0	MERMAID	887	n/a	1	n/a	n/a	n/a	n/a	n/a
1423075	REC_WORD	wordpools/wasnorm_wordpool_less_exclusions.txt	LTP191	ltpFR	16	9	0	CURB	426	n/a	1	n/a	n/a	n/a	n/a	n/a
1424093	REC_WORD	wordpools/wasnorm_wordpool_less_exclusions.txt	LTP191	ltpFR	16	9	0	DRIVEWAY	500	n/a	1	n/a	n/a	n/a	n/a	n/a
1441980	WORD	wordpools/wasnorm_wordpool_less_exclusions.txt	LTP191	ltpFR	16	10	1	SHORTCAKE	1292	n/a	0	0	0.5869140625	0.422607421875	upper	../fonts/amplitud.ttf
1445935	WORD	wordpools/wasnorm_wordpool_less_exclusions.txt	LTP191	ltpFR	16	10	1	CHEF	290	n/a	1	0	0.5869140625	0.422607421875	upper	../fonts/amplitud.ttf
1450151	WORD	wordpools/wasnorm_wordpool_less_exclusions.txt	LTP191	ltpFR	16	10	1	LABEL	790	n/a	0	0	0.5869140625	0.422607421875	upper	../fonts/amplitud.ttf
1454378	WORD	wordpools/wasnorm_wordpool_less_exclusions.txt	LTP191	ltpFR	16	10	1	CHIEF	298	n/a	1	0	0.5869140625	0.422607421875	upper	../fonts/amplitud.ttf
1458443	WORD	wordpools/wasnorm_wordpool_less_exclusions.txt	LTP191	ltpFR	16	10	1	SNAKE	1333	n/a	1	0	0.5869140625	0.422607421875	upper	../fonts/amplitud.ttf
1462425	WORD	wordpools/wasnorm_wordpool_less_exclusions.txt	LTP191	ltpFR	16	10	0	REPTILE	1185	n/a	0	1	0.412841796875	0.57763671875	lower	../fonts/zerothre.ttf
1466295	WORD	wordpools/wasnorm_wordpool_less_exclusions.txt	LTP191	ltpFR	16	10	0	PUMPKIN	1142	n/a	0	1	0.412841796875	0.57763671875	lower	../fonts/zerothre.ttf
1470372	WORD	wordpools/wasnorm_wordpool_less_exclusions.txt	LTP191	ltpFR	16	10	0	BOTTLE	153	n/a	0	1	0.412841796875	0.57763671875	lower	../fonts/zerothre.ttf
1474359	WORD	wordpools/wasnorm_wordpool_less_exclusions.txt	LTP191	ltpFR	16	10	1	INSTRUCTOR	741	n/a	1	0	0.5869140625	0.422607421875	upper	../fonts/amplitud.ttf
1478375	WORD	wordpools/wasnorm_wordpool_less_exclusions.txt	LTP191	ltpFR	16	10	1	SECRETARY	1265	n/a	1	0	0.5869140625	0.422607421875	upper	../fonts/amplitud.ttf
1482272	WORD	wordpools/wasnorm_wordpool_less_exclusions.txt	LTP191	ltpFR	16	10	1	TYPEWRITER	1531	n/a	1	0	0.5869140625	0.422607421875	upper	../fonts/amplitud.ttf
1486264	WORD	wordpools/wasnorm_wordpool_less_exclusions.txt	LTP191	ltpFR	16	10	0	TWINE	1529	n/a	0	1	0.412841796875	0.57763671875	lower	../fonts/zerothre.ttf
1490437	WORD	wordpools/wasnorm_wordpool_less_exclusions.txt	LTP191	ltpFR	16	10	0	PIANO	1057	n/a	1	1	0.412841796875	0.57763671875	lower	../fonts/zerothre.ttf
1494294	WORD	wordpools/wasnorm_wordpool_less_exclusions.txt	LTP191	ltpFR	16	10	0	RAILROAD	1162	n/a	1	1	0.412841796875	0.57763671875	lower	../fonts/zerothre.ttf
1498466	WORD	wordpools/wasnorm_wordpool_less_exclusions.txt	LTP191	ltpFR	16	10	0	BUILDER	190	n/a	1	1	0.412841796875	0.57763671875	lower	../fonts/zerothre.ttf
1502442	WORD	wordpools/wasnorm_wordpool_less_exclusions.txt	LTP191	ltpFR	16	10	0	COLESLAW	344	n/a	0	1	0.412841796875	0.57763671875	lower	../fonts/zerothre.ttf
1508499	REC_START	n/a	LTP191	ltpFR	16	10	n/a	n/a	n/a	n/a	n/a	n/a	n/a	n/a	n/a	n/a
1509027	REC_WORD	wordpools/wasnorm_wordpool_less_exclusions.txt	LTP191	ltpFR	16	10	0	COLESLAW	344	n/a	0	n/a	n/a	n/a	n/a	n/a
1510305	REC_WORD	wordpools/wasnorm_wordpool_less_exclusions.txt	LTP191	ltpFR	16	10	0	BUILDER	190	n/a	1	n/a	n/a	n/a	n/a	n/a
1511861	REC_WORD	wordpools/wasnorm_wordpool_less_exclusions.txt	LTP191	ltpFR	16	10	0	RAILROAD	1162	n/a	1	n/a	n/a	n/a	n/a	n/a
1515373	REC_WORD	wordpools/wasnorm_wordpool_less_exclusions.txt	LTP191	ltpFR	16	10	n/a	FOOD	-1	n/a	n/a	n/a	n/a	n/a	n/a	n/a
1518097	REC_WORD	wordpools/wasnorm_wordpool_less_exclusions.txt	LTP191	ltpFR	16	10	1	CHEF	290	n/a	1	n/a	n/a	n/a	n/a	n/a
1518945	REC_WORD	wordpools/wasnorm_wordpool_less_exclusions.txt	LTP191	ltpFR	16	10	1	SHORTCAKE	1292	n/a	0	n/a	n/a	n/a	n/a	n/a
1522168	REC_WORD	wordpools/wasnorm_wordpool_less_exclusions.txt	LTP191	ltpFR	16	10	1	CHIEF	298	n/a	1	n/a	n/a	n/a	n/a	n/a
1526044	REC_WORD	wordpools/wasnorm_wordpool_less_exclusions.txt	LTP191	ltpFR	16	10	1	LABEL	790	n/a	0	n/a	n/a	n/a	n/a	n/a
1527151	REC_WORD	wordpools/wasnorm_wordpool_less_exclusions.txt	LTP191	ltpFR	16	10	1	SNAKE	1333	n/a	1	n/a	n/a	n/a	n/a	n/a
1528189	REC_WORD	wordpools/wasnorm_wordpool_less_exclusions.txt	LTP191	ltpFR	16	10	0	PUMPKIN	1142	n/a	0	n/a	n/a	n/a	n/a	n/a
1529077	REC_WORD	wordpools/wasnorm_wordpool_less_exclusions.txt	LTP191	ltpFR	16	10	0	REPTILE	1185	n/a	0	n/a	n/a	n/a	n/a	n/a
1538161	REC_WORD	wordpools/wasnorm_wordpool_less_exclusions.txt	LTP191	ltpFR	16	10	n/a	STRING	1394	n/a	n/a	n/a	n/a	n/a	n/a	n/a
1544172	REC_WORD	wordpools/wasnorm_wordpool_less_exclusions.txt	LTP191	ltpFR	16	10	n/a	YARN	1631	n/a	n/a	n/a	n/a	n/a	n/a	n/a
1546720	REC_WORD	wordpools/wasnorm_wordpool_less_exclusions.txt	LTP191	ltpFR	16	10	0	TWINE	1529	n/a	0	n/a	n/a	n/a	n/a	n/a
1551696	REC_WORD	wordpools/wasnorm_wordpool_less_exclusions.txt	LTP191	ltpFR	16	10	1	TYPEWRITER	1531	n/a	1	n/a	n/a	n/a	n/a	n/a
1557297	REC_WORD	wordpools/wasnorm_wordpool_less_exclusions.txt	LTP191	ltpFR	16	10	1	SECRETARY	1265	n/a	1	n/a	n/a	n/a	n/a	n/a
1606624	WORD	wordpools/wasnorm_wordpool_less_exclusions.txt	LTP191	ltpFR	16	11	1	KEEPER	769	n/a	1	0	0.5869140625	0.422607421875	upper	../fonts/amplitud.ttf
1610656	WORD	wordpools/wasnorm_wordpool_less_exclusions.txt	LTP191	ltpFR	16	11	1	HEADBAND	696	n/a	0	0	0.5869140625	0.422607421875	upper	../fonts/amplitud.ttf
1614614	WORD	wordpools/wasnorm_wordpool_less_exclusions.txt	LTP191	ltpFR	16	11	1	RAFT	1159	n/a	0	0	0.5869140625	0.422607421875	upper	../fonts/amplitud.ttf
1618452	WORD	wordpools/wasnorm_wordpool_less_exclusions.txt	LTP191	ltpFR	16	11	1	EUROPE	541	n/a	0	0	0.5869140625	0.422607421875	upper	../fonts/amplitud.ttf
1622283	WORD	wordpools/wasnorm_wordpool_less_exclusions.txt	LTP191	ltpFR	16	11	1	BOOK	149	n/a	0	0	0.5869140625	0.422607421875	upper	../fonts/amplitud.ttf
1626281	WORD	wordpools/wasnorm_wordpool_less_exclusions.txt	LTP191	ltpFR	16	11	1	DICTIONARY	463	n/a	0	0	0.5869140625	0.422607421875	upper	../fonts/amplitud.ttf
1630162	WORD	wordpools/wasnorm_wordpool_less_exclusions.txt	LTP191	ltpFR	16	11	1	DANDRUFF	439	n/a	0	0	0.5869140625	0.422607421875	upper	../fonts/amplitud.ttf
1634261	WORD	wordpools/wasnorm_wordpool_less_exclusions.txt	LTP191	ltpFR	16	11	1	ROOM	1206	n/a	0	0	0.5869140625	0.422607421875	upper	../fonts/amplitud.ttf
1638411	WORD	wordpools/wasnorm_wordpool_less_exclusions.txt	LTP191	ltpFR	16	11	1	PERMIT	1051	n/a	0	0	0.5869140625	0.422607421875	upper	../fonts/amplitud.ttf
1642626	WORD	wordpools/wasnorm_wordpool_less_exclusions.txt	LTP191	ltpFR	16	11	1	TREAD	1499	n/a	0	0	0.5869140625	0.422607421875	upper	../fonts/amplitud.ttf
1646702	WORD	wordpools/wasnorm_wordpool_less_exclusions.txt	LTP191	ltpFR	16	11	1	DOCK	477	n/a	0	0	0.5869140625	0.422607421875	upper	../fonts/amplitud.ttf
1650907	WORD	wordpools/wasnorm_wordpool_less_exclusions.txt	LTP191	ltpFR	16	11	1	PORT	1110	n/a	0	0	0.5869140625	0.422607421875	upper	../fonts/amplitud.ttf
1654738	WORD	wordpools/wasnorm_wordpool_less_exclusions.txt	LTP191	ltpFR	16	11	1	KANGAROO	768	n/a	1	0	0.5869140625	0.422607421875	upper	../fonts/amplitud.ttf
1658787	WORD	wordpools/wasnorm_wordpool_less_exclusions.txt	LTP191	ltpFR	16	11	1	PROFESSIONAL	1130	n/a	1	0	0.5869140625	0.422607421875	upper	../fonts/amplitud.ttf
1662863	WORD	wordpools/wasnorm_wordpool_less_exclusions.txt	LTP191	ltpFR	16	11	1	COD	340	n/a	1	0	0.5869140625	0.422607421875	upper	../fonts/amplitud.ttf
1667001	WORD	wordpools/wasnorm_wordpool_less_exclusions.txt	LTP191	ltpFR	16	11	1	SCALLOP	1242	n/a	1	0	0.5869140625	0.422607421875	upper	../fonts/amplitud.ttf
1672985	REC_START	n/a	LTP191	ltpFR	16	11	n/a	n/a	n/a	n/a	n/a	n/a	n/a	n/a	n/a	n/a
1674032	REC_WORD	wordpools/wasnorm_wordpool_less_exclusions.txt	LTP191	ltpFR	16	11	1	SCALLOP	1242	n/a	1	n/a	n/a	n/a	n/a	n/a
1675210	REC_WORD	wordpools/wasnorm_wordpool_less_exclusions.txt	LTP191	ltpFR	16	11	1	COD	340	n/a	1	n/a	n/a	n/a	n/a	n/a
1679670	REC_WORD	wordpools/wasnorm_wordpool_less_exclusions.txt	LTP191	ltpFR	16	11	n/a	BOAT	144	n/a	n/a	n/a	n/a	n/a	n/a	n/a
1681340	REC_WORD	wordpools/wasnorm_wordpool_less_exclusions.txt	LTP191	ltpFR	16	11	1	PORT	1110	n/a	0	n/a	n/a	n/a	n/a	n/a
1684399	REC_WORD	wordpools/wasnorm_wordpool_less_exclusions.txt	LTP191	ltpFR	16	11	n/a	HARBOR	-1	n/a	n/a	n/a	n/a	n/a	n/a	n/a
1686040	REC_WORD	wordpools/wasnorm_wordpool_less_exclusions.txt	LTP191	ltpFR	16	11	1	DOCK	477	n/a	0	n/a	n/a	n/a	n/a	n/a
1693548	REC_WORD	wordpools/wasnorm_wordpool_less_exclusions.txt	LTP191	ltpFR	16	11	n/a	RIVER	1194	n/a	n/a	n/a	n/a	n/a	n/a	n/a
1694910	REC_WORD	wordpools/wasnorm_wordpool_less_exclusions.txt	LTP191	ltpFR	16	11	1	RAFT	1159	n/a	0	n/a	n/a	n/a	n/a	n/a
1701236	REC_WORD	wordpools/wasnorm_wordpool_less_exclusions.txt	LTP191	ltpFR	16	11	n/a	MAP	865	n/a	n/a	n/a	n/a	n/a	n/a	n/a
1702338	REC_WORD	wordpools/wasnorm_wordpool_less_exclusions.txt	LTP191	ltpFR	16	11	1	EUROPE	541	n/a	0	n/a	n/a	n/a	n/a	n/a
1704154	REC_WORD	wordpools/wasnorm_wordpool_less_exclusions.txt	LTP191	ltpFR	16	11	1	DICTIONARY	463	n/a	0	n/a	n/a	n/a	n/a	n/a
1705456	REC_WORD	wordpools/wasnorm_wordpool_less_exclusions.txt	LTP191	ltpFR	16	11	1	BOOK	149	n/a	0	n/a	n/a	n/a	n/a	n/a
1707122	REC_WORD	wordpools/wasnorm_wordpool_less_exclusions.txt	LTP191	ltpFR	16	11	1	DANDRUFF	439	n/a	0	n/a	n/a	n/a	n/a	n/a
1708065	REC_WORD	wordpools/wasnorm_wordpool_less_exclusions.txt	LTP191	ltpFR	16	11	1	ROOM	1206	n/a	0	n/a	n/a	n/a	n/a	n/a
1714421	REC_WORD	wordpools/wasnorm_wordpool_less_exclusions.txt	LTP191	ltpFR	16	11	1	PERMIT	1051	n/a	0	n/a	n/a	n/a	n/a	n/a
1715792	REC_WORD	wordpools/wasnorm_wordpool_less_exclusions.txt	LTP191	ltpFR	16	11	1	TREAD	1499	n/a	0	n/a	n/a	n/a	n/a	n/a
1729531	REC_WORD	wordpools/wasnorm_wordpool_less_exclusions.txt	LTP191	ltpFR	16	11	1	KANGAROO	768	n/a	1	n/a	n/a	n/a	n/a	n/a
1772559	WORD	wordpools/wasnorm_wordpool_less_exclusions.txt	LTP191	ltpFR	16	12	0	BEDROOM	111	n/a	1	1	0.412841796875	0.57763671875	lower	../fonts/zerothre.ttf
1776564	WORD	wordpools/wasnorm_wordpool_less_exclusions.txt	LTP191	ltpFR	16	12	0	TOURIST	1488	n/a	1	1	0.412841796875	0.57763671875	lower	../fonts/zerothre.ttf
1780690	WORD	wordpools/wasnorm_wordpool_less_exclusions.txt	LTP191	ltpFR	16	12	0	SNEAKER	1334	n/a	0	1	0.412841796875	0.57763671875	lower	../fonts/zerothre.ttf
1784862	WORD	wordpools/wasnorm_wordpool_less_exclusions.txt	LTP191	ltpFR	16	12	0	SHOELACE	1289	n/a	0	1	0.412841796875	0.57763671875	lower	../fonts/zerothre.ttf
1788743	WORD	wordpools/wasnorm_wordpool_less_exclusions.txt	LTP191	ltpFR	16	12	0	QUILT	1151	n/a	0	1	0.412841796875	0.57763671875	lower	../fonts/zerothre.ttf
1792869	WORD	wordpools/wasnorm_wordpool_less_exclusions.txt	LTP191	ltpFR	16	12	0	SPIDER	1351	n/a	0	1	0.412841796875	0.57763671875	lower	../fonts/zerothre.ttf
1796991	WORD	wordpools/wasnorm_wordpool_less_exclusions.txt	LTP191	ltpFR	16	12	0	WAREHOUSE	1588	n/a	1	1	0.412841796875	0.57763671875	lower	../fonts/zerothre.ttf
1801173	WORD	wordpools/wasnorm_wordpool_less_exclusions.txt	LTP191	ltpFR	16	12	0	MITTEN	902	n/a	0	1	0.412841796875	0.57763671875	lower	../fonts/zerothre.ttf
1805065	WORD	wordpools/wasnorm_wordpool_less_exclusions.txt	LTP191	ltpFR	16	12	0	TACK	1428	n/a	0	1	0.412841796875	0.57763671875	lower	../fonts/zerothre.ttf
1809120	WORD	wordpools/wasnorm_wordpool_less_exclusions.txt	LTP191	ltpFR	16	12	0	MOSQUITO	917	n/a	0	1	0.412841796875	0.57763671875	lower	../fonts/zerothre.ttf
1813185	WORD	wordpools/wasnorm_wordpool_less_exclusions.txt	LTP191	ltpFR	16	12	0	COBRA	336	n/a	0	1	0.412841796875	0.57763671875	lower	../fonts/zerothre.ttf
1817217	WORD	wordpools/wasnorm_wordpool_less_exclusions.txt	LTP191	ltpFR	16	12	0	MISSILE	900	n/a	1	1	0.412841796875	0.57763671875	lower	../fonts/zerothre.ttf
1821311	WORD	wordpools/wasnorm_wordpool_less_exclusions.txt	LTP191	ltpFR	16	12	0	NUT	965	n/a	0	1	0.412841796875	0.57763671875	lower	../fonts/zerothre.ttf
1825460	WORD	wordpools/wasnorm_wordpool_less_exclusions.txt	LTP191	ltpFR	16	12	0	NIECE	952	n/a	1	1	0.412841796875	0.57763671875	lower	../fonts/zerothre.ttf
1829530	WORD	wordpools/wasnorm_wordpool_less_exclusions.txt	LTP191	ltpFR	16	12	0	SCREEN	1253	n/a	0	1	0.412841796875	0.57763671875	lower	../fonts/zerothre.ttf
1833596	WORD	wordpools/wasnorm_wordpool_less_exclusions.txt	LTP191	ltpFR	16	12	0	TECHNICIAN	1443	n/a	1	1	0.412841796875	0.57763671875	lower	../fonts/zerothre.ttf
1839569	REC_START	n/a	LTP191	ltpFR	16	12	n/a	n/a	n/a	n/a	n/a	n/a	n/a	n/a	n/a	n/a
1840103	REC_WORD	wordpools/wasnorm_wordpool_less_exclusions.txt	LTP191	ltpFR	16	12	0	TECHNICIAN	1443	n/a	1	n/a	n/a	n/a	n/a	n/a
1841185	REC_WORD	wordpools/wasnorm_wordpool_less_exclusions.txt	LTP191	ltpFR	16	12	0	SCREEN	1253	n/a	0	n/a	n/a	n/a	n/a	n/a
1843395	REC_WORD	wordpools/wasnorm_wordpool_less_exclusions.txt	LTP191	ltpFR	16	12	0	NIECE	952	n/a	1	n/a	n/a	n/a	n/a	n/a
1844762	REC_WORD	wordpools/wasnorm_wordpool_less_exclusions.txt	LTP191	ltpFR	16	12	0	NUT	965	n/a	0	n/a	n/a	n/a	n/a	n/a
1848015	REC_WORD	wordpools/wasnorm_wordpool_less_exclusions.txt	LTP191	ltpFR	16	12	0	BEDROOM	111	n/a	1	n/a	n/a	n/a	n/a	n/a
1849980	REC_WORD	wordpools/wasnorm_wordpool_less_exclusions.txt	LTP191	ltpFR	16	12	0	WAREHOUSE	1588	n/a	1	n/a	n/a	n/a	n/a	n/a
1854091	REC_WORD	wordpools/wasnorm_wordpool_less_exclusions.txt	LTP191	ltpFR	16	12	n/a	BED	110	n/a	n/a	n/a	n/a	n/a	n/a	n/a
1855223	REC_WORD	wordpools/wasnorm_wordpool_less_exclusions.txt	LTP191	ltpFR	16	12	0	QUILT	1151	n/a	0	n/a	n/a	n/a	n/a	n/a
1859523	REC_WORD	wordpools/wasnorm_wordpool_less_exclusions.txt	LTP191	ltpFR	16	12	0	TOURIST	1488	n/a	1	n/a	n/a	n/a	n/a	n/a
1864327	REC_WORD	wordpools/wasnorm_wordpool_less_exclusions.txt	LTP191	ltpFR	16	12	0	SPIDER	1351	n/a	0	n/a	n/a	n/a	n/a	n/a
1865929	REC_WORD	wordpools/wasnorm_wordpool_less_exclusions.txt	LTP191	ltpFR	16	12	n/a	SHOE	1288	n/a	n/a	n/a	n/a	n/a	n/a	n/a
1868687	REC_WORD	wordpools/wasnorm_wordpool_less_exclusions.txt	LTP191	ltpFR	16	12	0	SNEAKER	1334	n/a	0	n/a	n/a	n/a	n/a	n/a
1870738	REC_WORD	wordpools/wasnorm_wordpool_less_exclusions.txt	LTP191	ltpFR	16	12	0	SHOELACE	1289	n/a	0	n/a	n/a	n/a	n/a	n/a
1915197	REST_REWET	n/a	LTP191	ltpFR	16	12	n/a	n/a	n/a	n/a	n/a	n/a	n/a	n/a	n/a	n/a
2294968	WORD	wordpools/wasnorm_wordpool_less_exclusions.txt	LTP191	ltpFR	16	13	1	GUM	672	n/a	0	0	0.5869140625	0.422607421875	upper	../fonts/amplitud.ttf
2298893	WORD	wordpools/wasnorm_wordpool_less_exclusions.txt	LTP191	ltpFR	16	13	1	BED	110	n/a	0	0	0.5869140625	0.422607421875	upper	../fonts/amplitud.ttf
2302764	WORD	wordpools/wasnorm_wordpool_less_exclusions.txt	LTP191	ltpFR	16	13	1	CAPE	237	n/a	0	0	0.5869140625	0.422607421875	upper	../fonts/amplitud.ttf
2306890	WORD	wordpools/wasnorm_wordpool_less_exclusions.txt	LTP191	ltpFR	16	13	1	PIGEON	1065	n/a	1	0	0.5869140625	0.422607421875	upper	../fonts/amplitud.ttf
2310905	WORD	wordpools/wasnorm_wordpool_less_exclusions.txt	LTP191	ltpFR	16	13	1	NICOTINE	951	n/a	0	0	0.5869140625	0.422607421875	upper	../fonts/amplitud.ttf
2314792	WORD	wordpools/wasnorm_wordpool_less_exclusions.txt	LTP191	ltpFR	16	13	1	FORK	594	n/a	0	0	0.5869140625	0.422607421875	upper	../fonts/amplitud.ttf
2318617	WORD	wordpools/wasnorm_wordpool_less_exclusions.txt	LTP191	ltpFR	16	13	1	FARMER	553	n/a	1	0	0.5869140625	0.422607421875	upper	../fonts/amplitud.ttf
2322616	WORD	wordpools/wasnorm_wordpool_less_exclusions.txt	LTP191	ltpFR	16	13	1	BULL	193	n/a	1	0	0.5869140625	0.422607421875	upper	../fonts/amplitud.ttf
2326520	WORD	wordpools/wasnorm_wordpool_less_exclusions.txt	LTP191	ltpFR	16	13	1	FOLLOWER	589	n/a	1	0	0.5869140625	0.422607421875	upper	../fonts/amplitud.ttf
2330362	WORD	wordpools/wasnorm_wordpool_less_exclusions.txt	LTP191	ltpFR	16	13	1	BANDANNA	80	n/a	0	0	0.5869140625	0.422607421875	upper	../fonts/amplitud.ttf
2334249	WORD	wordpools/wasnorm_wordpool_less_exclusions.txt	LTP191	ltpFR	16	13	1	FEATHER	557	n/a	0	0	0.5869140625	0.422607421875	upper	../fonts/amplitud.ttf
2338342	WORD	wordpools/wasnorm_wordpool_less_exclusions.txt	LTP191	ltpFR	16	13	1	ROBIN	1199	n/a	1	0	0.5869140625	0.422607421875	upper	../fonts/amplitud.ttf
2342463	WORD	wordpools/wasnorm_wordpool_less_exclusions.txt	LTP191	ltpFR	16	13	1	RASPBERRY	1168	n/a	1	0	0.5869140625	0.422607421875	upper	../fonts/amplitud.ttf
2346529	WORD	wordpools/wasnorm_wordpool_less_exclusions.txt	LTP191	ltpFR	16	13	1	SALIVA	1226	n/a	0	0	0.5869140625	0.422607421875	upper	../fonts/amplitud.ttf
2350494	WORD	wordpools/wasnorm_wordpool_less_exclusions.txt	LTP191	ltpFR	16	13	1	EAGLE	512	n/a	1	0	0.5869140625	0.422607421875	upper	../fonts/amplitud.ttf
2354509	WORD	wordpools/wasnorm_wordpool_less_exclusions.txt	LTP191	ltpFR	16	13	1	ROBE	1198	n/a	0	0	0.5869140625	0.422607421875	upper	../fonts/amplitud.ttf
2360316	REC_START	n/a	LTP191	ltpFR	16	13	n/a	n/a	n/a	n/a	n/a	n/a	n/a	n/a	n/a	n/a
2361079	REC_WORD	wordpools/wasnorm_wordpool_less_exclusions.txt	LTP191	ltpFR	16	13	1	ROBE	1198	n/a	0	n/a	n/a	n/a	n/a	n/a
2362296	REC_WORD	wordpools/wasnorm_wordpool_less_exclusions.txt	LTP191	ltpFR	16	13	1	CAPE	237	n/a	0	n/a	n/a	n/a	n/a	n/a
2365100	REC_WORD	wordpools/wasnorm_wordpool_less_exclusions.txt	LTP191	ltpFR	16	13	n/a	BIRD	129	n/a	n/a	n/a	n/a	n/a	n/a	n/a
2365858	REC_WORD	wordpools/wasnorm_wordpool_less_exclusions.txt	LTP191	ltpFR	16	13	1	FEATHER	557	n/a	0	n/a	n/a	n/a	n/a	n/a
2367125	REC_WORD	wordpools/wasnorm_wordpool_less_exclusions.txt	LTP191	ltpFR	16	13	1	EAGLE	512	n/a	1	n/a	n/a	n/a	n/a	n/a
2368637	REC_WORD	wordpools/wasnorm_wordpool_less_exclusions.txt	LTP191	ltpFR	16	13	1	ROBIN	1199	n/a	1	n/a	n/a	n/a	n/a	n/a
2369809	REC_WORD	wordpools/wasnorm_wordpool_less_exclusions.txt	LTP191	ltpFR	16	13	1	PIGEON	1065	n/a	1	n/a	n/a	n/a	n/a	n/a
2375591	REC_WORD	wordpools/wasnorm_wordpool_less_exclusions.txt	LTP191	ltpFR	16	13	1	BED	110	n/a	0	n/a	n/a	n/a	n/a	n/a
2385658	REC_WORD	wordpools/wasnorm_wordpool_less_exclusions.txt	LTP191	ltpFR	16	13	n/a	MOUTH	926	n/a	n/a	n/a	n/a	n/a	n/a	n/a
2386516	REC_WORD	wordpools/wasnorm_wordpool_less_exclusions.txt	LTP191	ltpFR	16	13	1	SALIVA	1226	n/a	0	n/a	n/a	n/a	n/a	n/a
2389958	REC_WORD	wordpools/wasnorm_wordpool_less_exclusions.txt	LTP191	ltpFR	16	13	1	NICOTINE	951	n/a	0	n/a	n/a	n/a	n/a	n/a
2399846	REC_WORD	wordpools/wasnorm_wordpool_less_exclusions.txt	LTP191	ltpFR	16	13	1	GUM	672	n/a	0	n/a	n/a	n/a	n/a	n/a
2426306	REC_WORD	wordpools/wasnorm_wordpool_less_exclusions.txt	LTP191	ltpFR	16	13	1	RASPBERRY	1168	n/a	1	n/a	n/a	n/a	n/a	n/a
2481388	WORD	wordpools/wasnorm_wordpool_less_exclusions.txt	LTP191	ltpFR	16	14	0	MASCARA	875	n/a	0	1	0.412841796875	0.57763671875	lower	../fonts/zerothre.ttf
2485353	WORD	wordpools/wasnorm_wordpool_less_exclusions.txt	LTP191	ltpFR	16	14	0	JOINT	758	n/a	0	1	0.412841796875	0.57763671875	lower	../fonts/zerothre.ttf
2489311	WORD	wordpools/wasnorm_wordpool_less_exclusions.txt	LTP191	ltpFR	16	14	0	VET	1560	n/a	1	1	0.412841796875	0.57763671875	lower	../fonts/zerothre.ttf
2493516	WORD	wordpools/wasnorm_wordpool_less_exclusions.txt	LTP191	ltpFR	16	14	0	ACTOR	5	n/a	1	1	0.412841796875	0.57763671875	lower	../fonts/zerothre.ttf
2497398	WORD	wordpools/wasnorm_wordpool_less_exclusions.txt	LTP191	ltpFR	16	14	0	PEBBLE	1035	n/a	0	1	0.412841796875	0.57763671875	lower	../fonts/zerothre.ttf
2501245	WORD	wordpools/wasnorm_wordpool_less_exclusions.txt	LTP191	ltpFR	16	14	0	STONE	1385	n/a	0	1	0.412841796875	0.57763671875	lower	../fonts/zerothre.ttf
2505345	WORD	wordpools/wasnorm_wordpool_less_exclusions.txt	LTP191	ltpFR	16	14	0	CIRCUS	311	n/a	1	1	0.412841796875	0.57763671875	lower	../fonts/zerothre.ttf
2509259	WORD	wordpools/wasnorm_wordpool_less_exclusions.txt	LTP191	ltpFR	16	14	0	CROOK	412	n/a	1	1	0.412841796875	0.57763671875	lower	../fonts/zerothre.ttf
2513392	WORD	wordpools/wasnorm_wordpool_less_exclusions.txt	LTP191	ltpFR	16	14	0	GYMNAST	675	n/a	1	1	0.412841796875	0.57763671875	lower	../fonts/zerothre.ttf
2517334	WORD	wordpools/wasnorm_wordpool_less_exclusions.txt	LTP191	ltpFR	16	14	0	BELT	120	n/a	0	1	0.412841796875	0.57763671875	lower	../fonts/zerothre.ttf
2521372	WORD	wordpools/wasnorm_wordpool_less_exclusions.txt	LTP191	ltpFR	16	14	0	ELBOW	520	n/a	0	1	0.412841796875	0.57763671875	lower	../fonts/zerothre.ttf
2525597	WORD	wordpools/wasnorm_wordpool_less_exclusions.txt	LTP191	ltpFR	16	14	0	FIST	572	n/a	0	1	0.412841796875	0.57763671875	lower	../fonts/zerothre.ttf
2529462	WORD	wordpools/wasnorm_wordpool_less_exclusions.txt	LTP191	ltpFR	16	14	0	THUMB	1462	n/a	0	1	0.412841796875	0.57763671875	lower	../fonts/zerothre.ttf
2533634	WORD	wordpools/wasnorm_wordpool_less_exclusions.txt	LTP191	ltpFR	16	14	0	POWDER	1117	n/a	0	1	0.412841796875	0.57763671875	lower	../fonts/zerothre.ttf
2537526	WORD	wordpools/wasnorm_wordpool_less_exclusions.txt	LTP191	ltpFR	16	14	0	SHIRT	1287	n/a	0	1	0.412841796875	0.57763671875	lower	../fonts/zerothre.ttf
2541624	WORD	wordpools/wasnorm_wordpool_less_exclusions.txt	LTP191	ltpFR	16	14	0	COTTON	385	n/a	0	1	0.412841796875	0.57763671875	lower	../fonts/zerothre.ttf
2547665	REC_START	n/a	LTP191	ltpFR	16	14	n/a	n/a	n/a	n/a	n/a	n/a	n/a	n/a	n/a	n/a
2548194	REC_WORD	wordpools/wasnorm_wordpool_less_exclusions.txt	LTP191	ltpFR	16	14	0	COTTON	385	n/a	0	n/a	n/a	n/a	n/a	n/a
2549216	REC_WORD	wordpools/wasnorm_wordpool_less_exclusions.txt	LTP191	ltpFR	16	14	0	SHIRT	1287	n/a	0	n/a	n/a	n/a	n/a	n/a
2550304	REC_WORD	wordpools/wasnorm_wordpool_less_exclusions.txt	LTP191	ltpFR	16	14	0	POWDER	1117	n/a	0	n/a	n/a	n/a	n/a	n/a
2551616	REC_WORD	wordpools/wasnorm_wordpool_less_exclusions.txt	LTP191	ltpFR	16	14	0	MASCARA	875	n/a	0	n/a	n/a	n/a	n/a	n/a
2555552	REC_WORD	wordpools/wasnorm_wordpool_less_exclusions.txt	LTP191	ltpFR	16	14	n/a	TENT	1449	n/a	n/a	n/a	n/a	n/a	n/a	n/a
2556390	REC_WORD	wordpools/wasnorm_wordpool_less_exclusions.txt	LTP191	ltpFR	16	14	0	CIRCUS	311	n/a	1	n/a	n/a	n/a	n/a	n/a
2557365	REC_WORD	wordpools/wasnorm_wordpool_less_exclusions.txt	LTP191	ltpFR	16	14	0	STONE	1385	n/a	0	n/a	n/a	n/a	n/a	n/a
2558655	REC_WORD	wordpools/wasnorm_wordpool_less_exclusions.txt	LTP191	ltpFR	16	14	0	PEBBLE	1035	n/a	0	n/a	n/a	n/a	n/a	n/a
2568722	REC_WORD	wordpools/wasnorm_wordpool_less_exclusions.txt	LTP191	ltpFR	16	14	n/a	ARM	38	n/a	n/a	n/a	n/a	n/a	n/a	n/a
2570568	REC_WORD	wordpools/wasnorm_wordpool_less_exclusions.txt	LTP191	ltpFR	16	14	0	ELBOW	520	n/a	0	n/a	n/a	n/a	n/a	n/a
2571880	REC_WORD	wordpools/wasnorm_wordpool_less_exclusions.txt	LTP191	ltpFR	16	14	0	JOINT	758	n/a	0	n/a	n/a	n/a	n/a	n/a
2573640	REC_WORD	wordpools/wasnorm_wordpool_less_exclusions.txt	LTP191	ltpFR	16	14	0	FIST	572	n/a	0	n/a	n/a	n/a	n/a	n/a
2575022	REC_WORD	wordpools/wasnorm_wordpool_less_exclusions.txt	LTP191	ltpFR	16	14	0	THUMB	1462	n/a	0	n/a	n/a	n/a	n/a	n/a
2576998	REC_WORD	wordpools/wasnorm_wordpool_less_exclusions.txt	LTP191	ltpFR	16	14	0	CROOK	412	n/a	1	n/a	n/a	n/a	n/a	n/a
2585224	REC_WORD	wordpools/wasnorm_wordpool_less_exclusions.txt	LTP191	ltpFR	16	14	0	GYMNAST	675	n/a	1	n/a	n/a	n/a	n/a	n/a
2587764	REC_WORD	wordpools/wasnorm_wordpool_less_exclusions.txt	LTP191	ltpFR	16	14	0	ACTOR	5	n/a	1	n/a	n/a	n/a	n/a	n/a
2590647	REC_WORD	wordpools/wasnorm_wordpool_less_exclusions.txt	LTP191	ltpFR	16	14	0	VET	1560	n/a	1	n/a	n/a	n/a	n/a	n/a
2638891	WORD	wordpools/wasnorm_wordpool_less_exclusions.txt	LTP191	ltpFR	16	15	0	SEED	1266	n/a	0	1	0.412841796875	0.57763671875	lower	../fonts/zerothre.ttf
2642879	WORD	wordpools/wasnorm_wordpool_less_exclusions.txt	LTP191	ltpFR	16	15	0	CATCHER	258	n/a	1	1	0.412841796875	0.57763671875	lower	../fonts/zerothre.ttf
2647044	WORD	wordpools/wasnorm_wordpool_less_exclusions.txt	LTP191	ltpFR	16	15	0	DESIGNER	451	n/a	1	1	0.412841796875	0.57763671875	lower	../fonts/zerothre.ttf
2651026	WORD	wordpools/wasnorm_wordpool_less_exclusions.txt	LTP191	ltpFR	16	15	0	DUST	508	n/a	0	1	0.412841796875	0.57763671875	lower	../fonts/zerothre.ttf
2655041	WORD	wordpools/wasnorm_wordpool_less_exclusions.txt	LTP191	ltpFR	16	15	1	PARIS	1014	n/a	1	0	0.5869140625	0.422607421875	upper	../fonts/amplitud.ttf
2659157	WORD	wordpools/wasnorm_wordpool_less_exclusions.txt	LTP191	ltpFR	16	15	1	JUNGLE	764	n/a	0	0	0.5869140625	0.422607421875	upper	../fonts/amplitud.ttf
2663239	WORD	wordpools/wasnorm_wordpool_less_exclusions.txt	LTP191	ltpFR	16	15	1	SARDINE	1235	n/a	1	0	0.5869140625	0.422607421875	upper	../fonts/amplitud.ttf
2667349	WORD	wordpools/wasnorm_wordpool_less_exclusions.txt	LTP191	ltpFR	16	15	1	HAT	690	n/a	0	0	0.5869140625	0.422607421875	upper	../fonts/amplitud.ttf
2671229	WORD	wordpools/wasnorm_wordpool_less_exclusions.txt	LTP191	ltpFR	16	15	0	REFEREE	1178	n/a	1	1	0.412841796875	0.57763671875	lower	../fonts/zerothre.ttf
2675284	WORD	wordpools/wasnorm_wordpool_less_exclusions.txt	LTP191	ltpFR	16	15	0	NAPKIN	937	n/a	0	1	0.412841796875	0.57763671875	lower	../fonts/zerothre.ttf
2679232	WORD	wordpools/wasnorm_wordpool_less_exclusions.txt	LTP191	ltpFR	16	15	0	STAPLE	1371	n/a	0	1	0.412841796875	0.57763671875	lower	../fonts/zerothre.ttf
2683258	WORD	wordpools/wasnorm_wordpool_less_exclusions.txt	LTP191	ltpFR	16	15	0	CHALK	276	n/a	0	1	0.412841796875	0.57763671875	lower	../fonts/zerothre.ttf
2687162	WORD	wordpools/wasnorm_wordpool_less_exclusions.txt	LTP191	ltpFR	16	15	1	BLACKBOARD	133	n/a	0	0	0.5869140625	0.422607421875	upper	../fonts/amplitud.ttf
2691171	WORD	wordpools/wasnorm_wordpool_less_exclusions.txt	LTP191	ltpFR	16	15	1	LOBBY	836	n/a	0	0	0.5869140625	0.422607421875	upper	../fonts/amplitud.ttf
2695059	WORD	wordpools/wasnorm_wordpool_less_exclusions.txt	LTP191	ltpFR	16	15	1	PLAZA	1088	n/a	0	0	0.5869140625	0.422607421875	upper	../fonts/amplitud.ttf
2699201	WORD	wordpools/wasnorm_wordpool_less_exclusions.txt	LTP191	ltpFR	16	15	1	SALMON	1227	n/a	1	0	0.5869140625	0.422607421875	upper	../fonts/amplitud.ttf
2705215	REC_START	n/a	LTP191	ltpFR	16	15	n/a	n/a	n/a	n/a	n/a	n/a	n/a	n/a	n/a	n/a
2705753	REC_WORD	wordpools/wasnorm_wordpool_less_exclusions.txt	LTP191	ltpFR	16	15	1	SALMON	1227	n/a	1	n/a	n/a	n/a	n/a	n/a
2706781	REC_WORD	wordpools/wasnorm_wordpool_less_exclusions.txt	LTP191	ltpFR	16	15	1	SARDINE	1235	n/a	1	n/a	n/a	n/a	n/a	n/a
2709011	REC_WORD	wordpools/wasnorm_wordpool_less_exclusions.txt	LTP191	ltpFR	16	15	1	PLAZA	1088	n/a	0	n/a	n/a	n/a	n/a	n/a
2710258	REC_WORD	wordpools/wasnorm_wordpool_less_exclusions.txt	LTP191	ltpFR	16	15	1	LOBBY	836	n/a	0	n/a	n/a	n/a	n/a	n/a
2733750	REC_WORD	wordpools/wasnorm_wordpool_less_exclusions.txt	LTP191	ltpFR	16	15	0	REFEREE	1178	n/a	1	n/a	n/a	n/a	n/a	n/a
2735651	REC_WORD	wordpools/wasnorm_wordpool_less_exclusions.txt	LTP191	ltpFR	16	15	0	CATCHER	258	n/a	1	n/a	n/a	n/a	n/a	n/a
2737087	REC_WORD	wordpools/wasnorm_wordpool_less_exclusions.txt	LTP191	ltpFR	16	15	0	SEED	1266	n/a	0	n/a	n/a	n/a	n/a	n/a
2748197	REC_WORD	wordpools/wasnorm_wordpool_less_exclusions.txt	LTP191	ltpFR	16	15	1	JUNGLE	764	n/a	0	n/a	n/a	n/a	n/a	n/a
2756593	REC_WORD	wordpools/wasnorm_wordpool_less_exclusions.txt	LTP191	ltpFR	16	15	1	PARIS	1014	n/a	1	n/a	n/a	n/a	n/a	n/a
2791901	WORD	wordpools/wasnorm_wordpool_less_exclusions.txt	LTP191	ltpFR	16	16	1	JEEP	753	n/a	0	0	0.5869140625	0.422607421875	upper	../fonts/amplitud.ttf
2795972	WORD	wordpools/wasnorm_wordpool_less_exclusions.txt	LTP191	ltpFR	16	16	1	LIMOUSINE	824	n/a	0	0	0.5869140625	0.422607421875	upper	../fonts/amplitud.ttf
2799914	WORD	wordpools/wasnorm_wordpool_less_exclusions.txt	LTP191	ltpFR	16	16	1	MEAL	882	n/a	0	0	0.5869140625	0.422607421875	upper	../fonts/amplitud.ttf
2803936	WORD	wordpools/wasnorm_wordpool_less_exclusions.txt	LTP191	ltpFR	16	16	0	BULLY	196	n/a	1	1	0.412841796875	0.57763671875	lower	../fonts/zerothre.ttf
2807800	WORD	wordpools/wasnorm_wordpool_less_exclusions.txt	LTP191	ltpFR	16	16	0	ELK	526	n/a	1	1	0.412841796875	0.57763671875	lower	../fonts/zerothre.ttf
2811709	WORD	wordpools/wasnorm_wordpool_less_exclusions.txt	LTP191	ltpFR	16	16	1	CAULIFLOWER	262	n/a	1	0	0.5869140625	0.422607421875	upper	../fonts/amplitud.ttf
2815697	WORD	wordpools/wasnorm_wordpool_less_exclusions.txt	LTP191	ltpFR	16	16	1	WAITER	1580	n/a	1	0	0.5869140625	0.422607421875	upper	../fonts/amplitud.ttf
2819806	WORD	wordpools/wasnorm_wordpool_less_exclusions.txt	LTP191	ltpFR	16	16	0	ANTELOPE	27	n/a	1	1	0.412841796875	0.57763671875	lower	../fonts/zerothre.ttf
2823671	WORD	wordpools/wasnorm_wordpool_less_exclusions.txt	LTP191	ltpFR	16	16	0	CHEMIST	292	n/a	1	1	0.412841796875	0.57763671875	lower	../fonts/zerothre.ttf
2827575	WORD	wordpools/wasnorm_wordpool_less_exclusions.txt	LTP191	ltpFR	16	16	0	EXPLOSION	544	n/a	1	1	0.412841796875	0.57763671875	lower	../fonts/zerothre.ttf
2831740	WORD	wordpools/wasnorm_wordpool_less_exclusions.txt	LTP191	ltpFR	16	16	0	MOLECULE	905	n/a	0	1	0.412841796875	0.57763671875	lower	../fonts/zerothre.ttf
2835756	WORD	wordpools/wasnorm_wordpool_less_exclusions.txt	LTP191	ltpFR	16	16	0	PANTHER	1009	n/a	1	1	0.412841796875	0.57763671875	lower	../fonts/zerothre.ttf
2839915	WORD	wordpools/wasnorm_wordpool_less_exclusions.txt	LTP191	ltpFR	16	16	0	WHISKERS	1605	n/a	0	1	0.412841796875	0.57763671875	lower	../fonts/zerothre.ttf
2843769	WORD	wordpools/wasnorm_wordpool_less_exclusions.txt	LTP191	ltpFR	16	16	1	VOLCANO	1575	n/a	0	0	0.5869140625	0.422607421875	upper	../fonts/amplitud.ttf
2847650	WORD	wordpools/wasnorm_wordpool_less_exclusions.txt	LTP191	ltpFR	16	16	1	CYLINDER	432	n/a	0	0	0.5869140625	0.422607421875	upper	../fonts/amplitud.ttf
2851515	WORD	wordpools/wasnorm_wordpool_less_exclusions.txt	LTP191	ltpFR	16	16	1	FEAST	556	n/a	0	0	0.5869140625	0.422607421875	upper	../fonts/amplitud.ttf
2857433	REC_START	n/a	LTP191	ltpFR	16	16	n/a	n/a	n/a	n/a	n/a	n/a	n/a	n/a	n/a	n/a
2858255	REC_WORD	wordpools/wasnorm_wordpool_less_exclusions.txt	LTP191	ltpFR	16	16	1	FEAST	556	n/a	0	n/a	n/a	n/a	n/a	n/a
2860042	REC_WORD	wordpools/wasnorm_wordpool_less_exclusions.txt	LTP191	ltpFR	16	16	1	MEAL	882	n/a	0	n/a	n/a	n/a	n/a	n/a
2861469	REC_WORD	wordpools/wasnorm_wordpool_less_exclusions.txt	LTP191	ltpFR	16	16	1	CAULIFLOWER	262	n/a	1	n/a	n/a	n/a	n/a	n/a
2862736	REC_WORD	wordpools/wasnorm_wordpool_less_exclusions.txt	LTP191	ltpFR	16	16	1	WAITER	1580	n/a	1	n/a	n/a	n/a	n/a	n/a
2869031	REC_WORD	wordpools/wasnorm_wordpool_less_exclusions.txt	LTP191	ltpFR	16	16	n/a	CAR	241	n/a	n/a	n/a	n/a	n/a	n/a	n/a
2871915	REC_WORD	wordpools/wasnorm_wordpool_less_exclusions.txt	LTP191	ltpFR	16	16	1	JEEP	753	n/a	0	n/a	n/a	n/a	n/a	n/a
2873072	REC_WORD	wordpools/wasnorm_wordpool_less_exclusions.txt	LTP191	ltpFR	16	16	1	LIMOUSINE	824	n/a	0	n/a	n/a	n/a	n/a	n/a
2877931	REC_WORD	wordpools/wasnorm_wordpool_less_exclusions.txt	LTP191	ltpFR	16	16	0	ELK	526	n/a	1	n/a	n/a	n/a	n/a	n/a
2879752	REC_WORD	wordpools/wasnorm_wordpool_less_exclusions.txt	LTP191	ltpFR	16	16	0	BULLY	196	n/a	1	n/a	n/a	n/a	n/a	n/a
2882546	REC_WORD	wordpools/wasnorm_wordpool_less_exclusions.txt	LTP191	ltpFR	16	16	0	ANTELOPE	27	n/a	1	n/a	n/a	n/a	n/a	n/a
2884042	REC_WORD	wordpools/wasnorm_wordpool_less_exclusions.txt	LTP191	ltpFR	16	16	0	CHEMIST	292	n/a	1	n/a	n/a	n/a	n/a	n/a
2884960	REC_WORD	wordpools/wasnorm_wordpool_less_exclusions.txt	LTP191	ltpFR	16	16	0	MOLECULE	905	n/a	0	n/a	n/a	n/a	n/a	n/a
2887459	REC_WORD	wordpools/wasnorm_wordpool_less_exclusions.txt	LTP191	ltpFR	16	16	0	EXPLOSION	544	n/a	1	n/a	n/a	n/a	n/a	n/a
2893206	REC_WORD	wordpools/wasnorm_wordpool_less_exclusions.txt	LTP191	ltpFR	16	16	1	VOLCANO	1575	n/a	0	n/a	n/a	n/a	n/a	n/a
2894723	REC_WORD	wordpools/wasnorm_wordpool_less_exclusions.txt	LTP191	ltpFR	16	16	1	CYLINDER	432	n/a	0	n/a	n/a	n/a	n/a	n/a
2901403	REC_WORD	wordpools/wasnorm_wordpool_less_exclusions.txt	LTP191	ltpFR	16	16	0	WHISKERS	1605	n/a	0	n/a	n/a	n/a	n/a	n/a
2902455	REC_WORD	wordpools/wasnorm_wordpool_less_exclusions.txt	LTP191	ltpFR	16	16	0	PANTHER	1009	n/a	1	n/a	n/a	n/a	n/a	n/a
2984501	REC_START	n/a	LTP191	ltpFR	16	1	n/a	n/a	n/a	n/a	n/a	n/a	n/a	n/a	n/a	n/a
2984550	RECOG_LURE	n/a	LTP191	ltpFR	16	1	n/a	STOOL	1386	4	n/a	n/a	n/a	n/a	n/a	n/a
2985835	RECOG_RESP	n/a	LTP191	ltpFR	16	1	n/a	STOOL	1386	n/a	n/a	n/a	n/a	n/a	n/a	n/a
2987060	RECOG_CONF	n/a	LTP191	ltpFR	16	1	n/a	STOOL	1386	4	n/a	n/a	n/a	n/a	n/a	n/a
2988950	RECOG_TARGET	n/a	LTP191	ltpFR	16	1	0	MOLECULE	905	5	0	n/a	n/a	n/a	n/a	n/a
2989605	RECOG_RESP	n/a	LTP191	ltpFR	16	1	0	MOLECULE	905	n/a	0	n/a	n/a	n/a	n/a	n/a
2990522	RECOG_CONF	n/a	LTP191	ltpFR	16	1	0	MOLECULE	905	5	0	n/a	n/a	n/a	n/a	n/a
2992279	RECOG_LURE	n/a	LTP191	ltpFR	16	1	n/a	POPE	1105	3	n/a	n/a	n/a	n/a	n/a	n/a
2992917	RECOG_RESP	n/a	LTP191	ltpFR	16	1	n/a	POPE	1105	n/a	n/a	n/a	n/a	n/a	n/a	n/a
2994174	RECOG_CONF	n/a	LTP191	ltpFR	16	1	n/a	POPE	1105	3	n/a	n/a	n/a	n/a	n/a	n/a
2995892	RECOG_TARGET	n/a	LTP191	ltpFR	16	1	1	LIMOUSINE	824	5	0	n/a	n/a	n/a	n/a	n/a
2996538	RECOG_RESP	n/a	LTP191	ltpFR	16	1	1	LIMOUSINE	824	n/a	0	n/a	n/a	n/a	n/a	n/a
2997188	RECOG_CONF	n/a	LTP191	ltpFR	16	1	1	LIMOUSINE	824	5	0	n/a	n/a	n/a	n/a	n/a
2999132	RECOG_LURE	n/a	LTP191	ltpFR	16	1	n/a	SEAFOOD	1260	4	n/a	n/a	n/a	n/a	n/a	n/a
2999925	RECOG_RESP	n/a	LTP191	ltpFR	16	1	n/a	SEAFOOD	1260	n/a	n/a	n/a	n/a	n/a	n/a	n/a
3000689	RECOG_CONF	n/a	LTP191	ltpFR	16	1	n/a	SEAFOOD	1260	4	n/a	n/a	n/a	n/a	n/a	n/a
3002300	RECOG_LURE	n/a	LTP191	ltpFR	16	1	n/a	VIDEO	1564	5	n/a	n/a	n/a	n/a	n/a	n/a
3002952	RECOG_RESP	n/a	LTP191	ltpFR	16	1	n/a	VIDEO	1564	n/a	n/a	n/a	n/a	n/a	n/a	n/a
3003703	RECOG_CONF	n/a	LTP191	ltpFR	16	1	n/a	VIDEO	1564	5	n/a	n/a	n/a	n/a	n/a	n/a
3005379	RECOG_TARGET	n/a	LTP191	ltpFR	16	1	1	FOREST	593	4	0	n/a	n/a	n/a	n/a	n/a
3006093	RECOG_RESP	n/a	LTP191	ltpFR	16	1	1	FOREST	593	n/a	0	n/a	n/a	n/a	n/a	n/a
3007045	RECOG_CONF	n/a	LTP191	ltpFR	16	1	1	FOREST	593	4	0	n/a	n/a	n/a	n/a	n/a
3008758	RECOG_LURE	n/a	LTP191	ltpFR	16	1	n/a	ATHLETE	52	4	n/a	n/a	n/a	n/a	n/a	n/a
3009510	RECOG_RESP	n/a	LTP191	ltpFR	16	1	n/a	ATHLETE	52	n/a	n/a	n/a	n/a	n/a	n/a	n/a
3010364	RECOG_CONF	n/a	LTP191	ltpFR	16	1	n/a	ATHLETE	52	4	n/a	n/a	n/a	n/a	n/a	n/a
3012030	RECOG_TARGET	n/a	LTP191	ltpFR	16	1	-1	LASH	802	5	-1	n/a	n/a	n/a	n/a	n/a
3012752	RECOG_RESP	n/a	LTP191	ltpFR	16	1	-1	LASH	802	n/a	-1	n/a	n/a	n/a	n/a	n/a
3013570	RECOG_CONF	n/a	LTP191	ltpFR	16	1	-1	LASH	802	5	-1	n/a	n/a	n/a	n/a	n/a
3015282	RECOG_LURE	n/a	LTP191	ltpFR	16	1	n/a	HAM	678	4	n/a	n/a	n/a	n/a	n/a	n/a
3015939	RECOG_RESP	n/a	LTP191	ltpFR	16	1	n/a	HAM	678	n/a	n/a	n/a	n/a	n/a	n/a	n/a
3016615	RECOG_CONF	n/a	LTP191	ltpFR	16	1	n/a	HAM	678	4	n/a	n/a	n/a	n/a	n/a	n/a
3018428	RECOG_LURE	n/a	LTP191	ltpFR	16	1	n/a	WOUND	1624	5	n/a	n/a	n/a	n/a	n/a	n/a
3019159	RECOG_RESP	n/a	LTP191	ltpFR	16	1	n/a	WOUND	1624	n/a	n/a	n/a	n/a	n/a	n/a	n/a
3019875	RECOG_CONF	n/a	LTP191	ltpFR	16	1	n/a	WOUND	1624	5	n/a	n/a	n/a	n/a	n/a	n/a
3021573	RECOG_TARGET	n/a	LTP191	ltpFR	16	1	0	MISSILE	900	4	1	n/a	n/a	n/a	n/a	n/a
3022421	RECOG_RESP	n/a	LTP191	ltpFR	16	1	0	MISSILE	900	n/a	1	n/a	n/a	n/a	n/a	n/a
3023258	RECOG_CONF	n/a	LTP191	ltpFR	16	1	0	MISSILE	900	4	1	n/a	n/a	n/a	n/a	n/a
3024829	RECOG_TARGET	n/a	LTP191	ltpFR	16	1	-1	PORCUPINE	1107	2	-1	n/a	n/a	n/a	n/a	n/a
3025942	RECOG_RESP	n/a	LTP191	ltpFR	16	1	-1	PORCUPINE	1107	n/a	-1	n/a	n/a	n/a	n/a	n/a
3027102	RECOG_CONF	n/a	LTP191	ltpFR	16	1	-1	PORCUPINE	1107	2	-1	n/a	n/a	n/a	n/a	n/a
3028883	RECOG_TARGET	n/a	LTP191	ltpFR	16	1	1	ROBE	1198	4	0	n/a	n/a	n/a	n/a	n/a
3029880	RECOG_RESP	n/a	LTP191	ltpFR	16	1	1	ROBE	1198	n/a	0	n/a	n/a	n/a	n/a	n/a
3030691	RECOG_CONF	n/a	LTP191	ltpFR	16	1	1	ROBE	1198	4	0	n/a	n/a	n/a	n/a	n/a
3032375	RECOG_TARGET	n/a	LTP191	ltpFR	16	1	0	FISH	571	4	0	n/a	n/a	n/a	n/a	n/a
3033017	RECOG_RESP	n/a	LTP191	ltpFR	16	1	0	FISH	571	n/a	0	n/a	n/a	n/a	n/a	n/a
3033794	RECOG_CONF	n/a	LTP191	ltpFR	16	1	0	FISH	571	4	0	n/a	n/a	n/a	n/a	n/a
3035436	RECOG_TARGET	n/a	LTP191	ltpFR	16	1	1	DEPUTY	450	5	1	n/a	n/a	n/a	n/a	n/a
3036045	RECOG_RESP	n/a	LTP191	ltpFR	16	1	1	DEPUTY	450	n/a	1	n/a	n/a	n/a	n/a	n/a
3036697	RECOG_CONF	n/a	LTP191	ltpFR	16	1	1	DEPUTY	450	5	1	n/a	n/a	n/a	n/a	n/a
3038454	RECOG_TARGET	n/a	LTP191	ltpFR	16	1	0	STONE	1385	5	0	n/a	n/a	n/a	n/a	n/a
3038983	RECOG_RESP	n/a	LTP191	ltpFR	16	1	0	STONE	1385	n/a	0	n/a	n/a	n/a	n/a	n/a
3039700	RECOG_CONF	n/a	LTP191	ltpFR	16	1	0	STONE	1385	5	0	n/a	n/a	n/a	n/a	n/a
3041365	RECOG_TARGET	n/a	LTP191	ltpFR	16	1	-1	SEAGULL	1261	5	-1	n/a	n/a	n/a	n/a	n/a
3042226	RECOG_RESP	n/a	LTP191	ltpFR	16	1	-1	SEAGULL	1261	n/a	-1	n/a	n/a	n/a	n/a	n/a
3042923	RECOG_CONF	n/a	LTP191	ltpFR	16	1	-1	SEAGULL	1261	5	-1	n/a	n/a	n/a	n/a	n/a
3044626	RECOG_LURE	n/a	LTP191	ltpFR	16	1	n/a	FEMALE	559	5	n/a	n/a	n/a	n/a	n/a	n/a
3045247	RECOG_RESP	n/a	LTP191	ltpFR	16	1	n/a	FEMALE	559	n/a	n/a	n/a	n/a	n/a	n/a	n/a
3045927	RECOG_CONF	n/a	LTP191	ltpFR	16	1	n/a	FEMALE	559	5	n/a	n/a	n/a	n/a	n/a	n/a
3047704	RECOG_LURE	n/a	LTP191	ltpFR	16	1	n/a	CHEESE	289	5	n/a	n/a	n/a	n/a	n/a	n/a
3048429	RECOG_RESP	n/a	LTP191	ltpFR	16	1	n/a	CHEESE	289	n/a	n/a	n/a	n/a	n/a	n/a	n/a
3049070	RECOG_CONF	n/a	LTP191	ltpFR	16	1	n/a	CHEESE	289	5	n/a	n/a	n/a	n/a	n/a	n/a
3052345	REC_START	n/a	LTP191	ltpFR	16	2	n/a	n/a	n/a	n/a	n/a	n/a	n/a	n/a	n/a	n/a
3052400	RECOG_TARGET	n/a	LTP191	ltpFR	16	2	0	REPTILE	1185	5	0	n/a	n/a	n/a	n/a	n/a
3053018	RECOG_RESP	n/a	LTP191	ltpFR	16	2	0	REPTILE	1185	n/a	0	n/a	n/a	n/a	n/a	n/a
3053737	RECOG_CONF	n/a	LTP191	ltpFR	16	2	0	REPTILE	1185	5	0	n/a	n/a	n/a	n/a	n/a
3055368	RECOG_TARGET	n/a	LTP191	ltpFR	16	2	0	CASTLE	256	5	1	n/a	n/a	n/a	n/a	n/a
3055931	RECOG_RESP	n/a	LTP191	ltpFR	16	2	0	CASTLE	256	n/a	1	n/a	n/a	n/a	n/a	n/a
3056545	RECOG_CONF	n/a	LTP191	ltpFR	16	2	0	CASTLE	256	5	1	n/a	n/a	n/a	n/a	n/a
3058294	RECOG_TARGET	n/a	LTP191	ltpFR	16	2	-1	PALM	1007	5	-1	n/a	n/a	n/a	n/a	n/a
3058959	RECOG_RESP	n/a	LTP191	ltpFR	16	2	-1	PALM	1007	n/a	-1	n/a	n/a	n/a	n/a	n/a
3059663	RECOG_CONF	n/a	LTP191	ltpFR	16	2	-1	PALM	1007	5	-1	n/a	n/a	n/a	n/a	n/a
3061255	RECOG_TARGET	n/a	LTP191	ltpFR	16	2	-1	HORSE	719	5	-1	n/a	n/a	n/a	n/a	n/a
3061835	RECOG_RESP	n/a	LTP191	ltpFR	16	2	-1	HORSE	719	n/a	-1	n/a	n/a	n/a	n/a	n/a
3062547	RECOG_CONF	n/a	LTP191	ltpFR	16	2	-1	HORSE	719	5	-1	n/a	n/a	n/a	n/a	n/a
3064133	RECOG_TARGET	n/a	LTP191	ltpFR	16	2	1	RAFT	1159	5	0	n/a	n/a	n/a	n/a	n/a
3065632	RECOG_RESP	n/a	LTP191	ltpFR	16	2	1	RAFT	1159	n/a	0	n/a	n/a	n/a	n/a	n/a
3066378	RECOG_CONF	n/a	LTP191	ltpFR	16	2	1	RAFT	1159	5	0	n/a	n/a	n/a	n/a	n/a
3068092	RECOG_TARGET	n/a	LTP191	ltpFR	16	2	0	PUBLICATION	1136	3	0	n/a	n/a	n/a	n/a	n/a
3068953	RECOG_RESP	n/a	LTP191	ltpFR	16	2	0	PUBLICATION	1136	n/a	0	n/a	n/a	n/a	n/a	n/a
3071131	RECOG_CONF	n/a	LTP191	ltpFR	16	2	0	PUBLICATION	1136	3	0	n/a	n/a	n/a	n/a	n/a
3072883	RECOG_LURE	n/a	LTP191	ltpFR	16	2	n/a	CASHIER	254	3	n/a	n/a	n/a	n/a	n/a	n/a
3074154	RECOG_RESP	n/a	LTP191	ltpFR	16	2	n/a	CASHIER	254	n/a	n/a	n/a	n/a	n/a	n/a	n/a
3075003	RECOG_CONF	n/a	LTP191	ltpFR	16	2	n/a	CASHIER	254	3	n/a	n/a	n/a	n/a	n/a	n/a
3076781	RECOG_TARGET	n/a	LTP191	ltpFR	16	2	-1	SPARROW	1347	4	-1	n/a	n/a	n/a	n/a	n/a
3077473	RECOG_RESP	n/a	LTP191	ltpFR	16	2	-1	SPARROW	1347	n/a	-1	n/a	n/a	n/a	n/a	n/a
3078091	RECOG_CONF	n/a	LTP191	ltpFR	16	2	-1	SPARROW	1347	4	-1	n/a	n/a	n/a	n/a	n/a
3079909	RECOG_LURE	n/a	LTP191	ltpFR	16	2	n/a	BANQUET	86	3	n/a	n/a	n/a	n/a	n/a	n/a
3080682	RECOG_RESP	n/a	LTP191	ltpFR	16	2	n/a	BANQUET	86	n/a	n/a	n/a	n/a	n/a	n/a	n/a
3081694	RECOG_CONF	n/a	LTP191	ltpFR	16	2	n/a	BANQUET	86	3	n/a	n/a	n/a	n/a	n/a	n/a
3083390	RECOG_LURE	n/a	LTP191	ltpFR	16	2	n/a	CHECK	284	3	n/a	n/a	n/a	n/a	n/a	n/a
3084128	RECOG_RESP	n/a	LTP191	ltpFR	16	2	n/a	CHECK	284	n/a	n/a	n/a	n/a	n/a	n/a	n/a
3084906	RECOG_CONF	n/a	LTP191	ltpFR	16	2	n/a	CHECK	284	3	n/a	n/a	n/a	n/a	n/a	n/a
3086584	RECOG_LURE	n/a	LTP191	ltpFR	16	2	n/a	PREDATOR	1120	5	n/a	n/a	n/a	n/a	n/a	n/a
3087394	RECOG_RESP	n/a	LTP191	ltpFR	16	2	n/a	PREDATOR	1120	n/a	n/a	n/a	n/a	n/a	n/a	n/a
3088079	RECOG_CONF	n/a	LTP191	ltpFR	16	2	n/a	PREDATOR	1120	5	n/a	n/a	n/a	n/a	n/a	n/a
3089930	RECOG_TARGET	n/a	LTP191	ltpFR	16	2	0	THUMB	1462	5	0	n/a	n/a	n/a	n/a	n/a
3090602	RECOG_RESP	n/a	LTP191	ltpFR	16	2	0	THUMB	1462	n/a	0	n/a	n/a	n/a	n/a	n/a
3091311	RECOG_CONF	n/a	LTP191	ltpFR	16	2	0	THUMB	1462	5	0	n/a	n/a	n/a	n/a	n/a
3093002	RECOG_TARGET	n/a	LTP191	ltpFR	16	2	0	TURKEY	1520	5	1	n/a	n/a	n/a	n/a	n/a
3093602	RECOG_RESP	n/a	LTP191	ltpFR	16	2	0	TURKEY	1520	n/a	1	n/a	n/a	n/a	n/a	n/a
3094344	RECOG_CONF	n/a	LTP191	ltpFR	16	2	0	TURKEY	1520	5	1	n/a	n/a	n/a	n/a	n/a
3096114	RECOG_TARGET	n/a	LTP191	ltpFR	16	2	0	CHEMIST	292	5	1	n/a	n/a	n/a	n/a	n/a
3096694	RECOG_RESP	n/a	LTP191	ltpFR	16	2	0	CHEMIST	292	n/a	1	n/a	n/a	n/a	n/a	n/a
3097351	RECOG_CONF	n/a	LTP191	ltpFR	16	2	0	CHEMIST	292	5	1	n/a	n/a	n/a	n/a	n/a
3098998	RECOG_LURE	n/a	LTP191	ltpFR	16	2	n/a	MOUTH	926	5	n/a	n/a	n/a	n/a	n/a	n/a
3099652	RECOG_RESP	n/a	LTP191	ltpFR	16	2	n/a	MOUTH	926	n/a	n/a	n/a	n/a	n/a	n/a	n/a
3100351	RECOG_CONF	n/a	LTP191	ltpFR	16	2	n/a	MOUTH	926	5	n/a	n/a	n/a	n/a	n/a	n/a
3102026	RECOG_LURE	n/a	LTP191	ltpFR	16	2	n/a	PENNY	1045	3	n/a	n/a	n/a	n/a	n/a	n/a
3103189	RECOG_RESP	n/a	LTP191	ltpFR	16	2	n/a	PENNY	1045	n/a	n/a	n/a	n/a	n/a	n/a	n/a
3103894	RECOG_CONF	n/a	LTP191	ltpFR	16	2	n/a	PENNY	1045	3	n/a	n/a	n/a	n/a	n/a	n/a
3105606	RECOG_TARGET	n/a	LTP191	ltpFR	16	2	0	MERMAID	887	4	1	n/a	n/a	n/a	n/a	n/a
3106490	RECOG_RESP	n/a	LTP191	ltpFR	16	2	0	MERMAID	887	n/a	1	n/a	n/a	n/a	n/a	n/a
3107490	RECOG_CONF	n/a	LTP191	ltpFR	16	2	0	MERMAID	887	4	1	n/a	n/a	n/a	n/a	n/a
3109270	RECOG_LURE	n/a	LTP191	ltpFR	16	2	n/a	THIGH	1457	4	n/a	n/a	n/a	n/a	n/a	n/a
3110043	RECOG_RESP	n/a	LTP191	ltpFR	16	2	n/a	THIGH	1457	n/a	n/a	n/a	n/a	n/a	n/a	n/a
3110684	RECOG_CONF	n/a	LTP191	ltpFR	16	2	n/a	THIGH	1457	4	n/a	n/a	n/a	n/a	n/a	n/a
3112559	RECOG_LURE	n/a	LTP191	ltpFR	16	2	n/a	TANK	1432	4	n/a	n/a	n/a	n/a	n/a	n/a
3113348	RECOG_RESP	n/a	LTP191	ltpFR	16	2	n/a	TANK	1432	n/a	n/a	n/a	n/a	n/a	n/a	n/a
3114037	RECOG_CONF	n/a	LTP191	ltpFR	16	2	n/a	TANK	1432	4	n/a	n/a	n/a	n/a	n/a	n/a
3115895	RECOG_LURE	n/a	LTP191	ltpFR	16	2	n/a	GRIZZLY	662	4	n/a	n/a	n/a	n/a	n/a	n/a
3116685	RECOG_RESP	n/a	LTP191	ltpFR	16	2	n/a	GRIZZLY	662	n/a	n/a	n/a	n/a	n/a	n/a	n/a
3117422	RECOG_CONF	n/a	LTP191	ltpFR	16	2	n/a	GRIZZLY	662	4	n/a	n/a	n/a	n/a	n/a	n/a
3161930	REC_START	n/a	LTP191	ltpFR	16	3	n/a	n/a	n/a	n/a	n/a	n/a	n/a	n/a	n/a	n/a
3161985	RECOG_LURE	n/a	LTP191	ltpFR	16	3	n/a	ALBUM	14	4	n/a	n/a	n/a	n/a	n/a	n/a
3162702	RECOG_RESP	n/a	LTP191	ltpFR	16	3	n/a	ALBUM	14	n/a	n/a	n/a	n/a	n/a	n/a	n/a
3163406	RECOG_CONF	n/a	LTP191	ltpFR	16	3	n/a	ALBUM	14	4	n/a	n/a	n/a	n/a	n/a	n/a
3165047	RECOG_TARGET	n/a	LTP191	ltpFR	16	3	-1	BAIT	70	4	-1	n/a	n/a	n/a	n/a	n/a
3165732	RECOG_RESP	n/a	LTP191	ltpFR	16	3	-1	BAIT	70	n/a	-1	n/a	n/a	n/a	n/a	n/a
3166504	RECOG_CONF	n/a	LTP191	ltpFR	16	3	-1	BAIT	70	4	-1	n/a	n/a	n/a	n/a	n/a
3168052	RECOG_LURE	n/a	LTP191	ltpFR	16	3	n/a	PUCK	1138	5	n/a	n/a	n/a	n/a	n/a	n/a
3168703	RECOG_RESP	n/a	LTP191	ltpFR	16	3	n/a	PUCK	1138	n/a	n/a	n/a	n/a	n/a	n/a	n/a
3169228	RECOG_CONF	n/a	LTP191	ltpFR	16	3	n/a	PUCK	1138	5	n/a	n/a	n/a	n/a	n/a	n/a
3170969	RECOG_LURE	n/a	LTP191	ltpFR	16	3	n/a	CRUTCH	417	3	n/a	n/a	n/a	n/a	n/a	n/a
3171641	RECOG_RESP	n/a	LTP191	ltpFR	16	3	n/a	CRUTCH	417	n/a	n/a	n/a	n/a	n/a	n/a	n/a
3172290	RECOG_CONF	n/a	LTP191	ltpFR	16	3	n/a	CRUTCH	417	3	n/a	n/a	n/a	n/a	n/a	n/a
3173957	RECOG_LURE	n/a	LTP191	ltpFR	16	3	n/a	HAY	693	3	n/a	n/a	n/a	n/a	n/a	n/a
3174594	RECOG_RESP	n/a	LTP191	ltpFR	16	3	n/a	HAY	693	n/a	n/a	n/a	n/a	n/a	n/a	n/a
3175226	RECOG_CONF	n/a	LTP191	ltpFR	16	3	n/a	HAY	693	3	n/a	n/a	n/a	n/a	n/a	n/a
3177069	RECOG_TARGET	n/a	LTP191	ltpFR	16	3	1	PAVEMENT	1028	5	0	n/a	n/a	n/a	n/a	n/a
3177990	RECOG_RESP	n/a	LTP191	ltpFR	16	3	1	PAVEMENT	1028	n/a	0	n/a	n/a	n/a	n/a	n/a
3178687	RECOG_CONF	n/a	LTP191	ltpFR	16	3	1	PAVEMENT	1028	5	0	n/a	n/a	n/a	n/a	n/a
3180372	RECOG_TARGET	n/a	LTP191	ltpFR	16	3	1	FIDDLE	561	5	0	n/a	n/a	n/a	n/a	n/a
3181030	RECOG_RESP	n/a	LTP191	ltpFR	16	3	1	FIDDLE	561	n/a	0	n/a	n/a	n/a	n/a	n/a
3181651	RECOG_CONF	n/a	LTP191	ltpFR	16	3	1	FIDDLE	561	5	0	n/a	n/a	n/a	n/a	n/a
3183444	RECOG_LURE	n/a	LTP191	ltpFR	16	3	n/a	ATOM	55	3	n/a	n/a	n/a	n/a	n/a	n/a
3184031	RECOG_RESP_VV	n/a	LTP191	ltpFR	16	3	n/a	ATOM	55	n/a	n/a	n/a	n/a	n/a	n/a	n/a
3184566	RECOG_RESP	n/a	LTP191	ltpFR	16	3	n/a	ATOM	55	n/a	n/a	n/a	n/a	n/a	n/a	n/a
3185398	RECOG_CONF	n/a	LTP191	ltpFR	16	3	n/a	ATOM	55	3	n/a	n/a	n/a	n/a	n/a	n/a
3187090	RECOG_LURE	n/a	LTP191	ltpFR	16	3	n/a	PRINTER	1126	4	n/a	n/a	n/a	n/a	n/a	n/a
3187819	RECOG_RESP	n/a	LTP191	ltpFR	16	3	n/a	PRINTER	1126	n/a	n/a	n/a	n/a	n/a	n/a	n/a
3188347	RECOG_CONF	n/a	LTP191	ltpFR	16	3	n/a	PRINTER	1126	4	n/a	n/a	n/a	n/a	n/a	n/a
3190275	RECOG_TARGET	n/a	LTP191	ltpFR	16	3	-1	DRAGON	492	5	-1	n/a	n/a	n/a	n/a	n/a
3190986	RECOG_RESP	n/a	LTP191	ltpFR	16	3	-1	DRAGON	492	n/a	-1	n/a	n/a	n/a	n/a	n/a
3191717	RECOG_CONF	n/a	LTP191	ltpFR	16	3	-1	DRAGON	492	5	-1	n/a	n/a	n/a	n/a	n/a
3193438	RECOG_LURE	n/a	LTP191	ltpFR	16	3	n/a	FINGER	567	5	n/a	n/a	n/a	n/a	n/a	n/a
3194193	RECOG_RESP	n/a	LTP191	ltpFR	16	3	n/a	FINGER	567	n/a	n/a	n/a	n/a	n/a	n/a	n/a
3194821	RECOG_CONF	n/a	LTP191	ltpFR	16	3	n/a	FINGER	567	5	n/a	n/a	n/a	n/a	n/a	n/a
3196492	RECOG_LURE	n/a	LTP191	ltpFR	16	3	n/a	SWATTER	1418	4	n/a	n/a	n/a	n/a	n/a	n/a
3197233	RECOG_RESP	n/a	LTP191	ltpFR	16	3	n/a	SWATTER	1418	n/a	n/a	n/a	n/a	n/a	n/a	n/a
3197953	RECOG_CONF	n/a	LTP191	ltpFR	16	3	n/a	SWATTER	1418	4	n/a	n/a	n/a	n/a	n/a	n/a
3199621	RECOG_LURE	n/a	LTP191	ltpFR	16	3	n/a	BISCUIT	130	5	n/a	n/a	n/a	n/a	n/a	n/a
3200308	RECOG_RESP	n/a	LTP191	ltpFR	16	3	n/a	BISCUIT	130	n/a	n/a	n/a	n/a	n/a	n/a	n/a
3200939	RECOG_CONF	n/a	LTP191	ltpFR	16	3	n/a	BISCUIT	130	5	n/a	n/a	n/a	n/a	n/a	n/a
3202649	RECOG_TARGET	n/a	LTP191	ltpFR	16	3	-1	HOME	712	5	-1	n/a	n/a	n/a	n/a	n/a
3203536	RECOG_RESP	n/a	LTP191	ltpFR	16	3	-1	HOME	712	n/a	-1	n/a	n/a	n/a	n/a	n/a
3204299	RECOG_CONF	n/a	LTP191	ltpFR	16	3	-1	HOME	712	5	-1	n/a	n/a	n/a	n/a	n/a
3205967	RECOG_LURE	n/a	LTP191	ltpFR	16	3	n/a	CASHEW	253	4	n/a	n/a	n/a	n/a	n/a	n/a
3206584	RECOG_RESP	n/a	LTP191	ltpFR	16	3	n/a	CASHEW	253	n/a	n/a	n/a	n/a	n/a	n/a	n/a
3207142	RECOG_CONF	n/a	LTP191	ltpFR	16	3	n/a	CASHEW	253	4	n/a	n/a	n/a	n/a	n/a	n/a
3208995	RECOG_LURE	n/a	LTP191	ltpFR	16	3	n/a	COLLAR	345	4	n/a	n/a	n/a	n/a	n/a	n/a
3209708	RECOG_RESP	n/a	LTP191	ltpFR	16	3	n/a	COLLAR	345	n/a	n/a	n/a	n/a	n/a	n/a	n/a
3210375	RECOG_CONF	n/a	LTP191	ltpFR	16	3	n/a	COLLAR	345	4	n/a	n/a	n/a	n/a	n/a	n/a
3212107	RECOG_TARGET	n/a	LTP191	ltpFR	16	3	0	SILVERWARE	1308	5	0	n/a	n/a	n/a	n/a	n/a
3212735	RECOG_RESP	n/a	LTP191	ltpFR	16	3	0	SILVERWARE	1308	n/a	0	n/a	n/a	n/a	n/a	n/a
3213448	RECOG_CONF	n/a	LTP191	ltpFR	16	3	0	SILVERWARE	1308	5	0	n/a	n/a	n/a	n/a	n/a
3215119	RECOG_LURE	n/a	LTP191	ltpFR	16	3	n/a	TEAM	1441	5	n/a	n/a	n/a	n/a	n/a	n/a
3215709	RECOG_RESP	n/a	LTP191	ltpFR	16	3	n/a	TEAM	1441	n/a	n/a	n/a	n/a	n/a	n/a	n/a
3216431	RECOG_CONF	n/a	LTP191	ltpFR	16	3	n/a	TEAM	1441	5	n/a	n/a	n/a	n/a	n/a	n/a
3218030	RECOG_LURE	n/a	LTP191	ltpFR	16	3	n/a	STOVE	1388	3	n/a	n/a	n/a	n/a	n/a	n/a
3218874	RECOG_RESP	n/a	LTP191	ltpFR	16	3	n/a	STOVE	1388	n/a	n/a	n/a	n/a	n/a	n/a	n/a
3219555	RECOG_CONF	n/a	LTP191	ltpFR	16	3	n/a	STOVE	1388	3	n/a	n/a	n/a	n/a	n/a	n/a
3221175	RECOG_TARGET	n/a	LTP191	ltpFR	16	3	1	VALLEY	1545	5	0	n/a	n/a	n/a	n/a	n/a
3221912	RECOG_RESP	n/a	LTP191	ltpFR	16	3	1	VALLEY	1545	n/a	0	n/a	n/a	n/a	n/a	n/a
3222607	RECOG_CONF	n/a	LTP191	ltpFR	16	3	1	VALLEY	1545	5	0	n/a	n/a	n/a	n/a	n/a
3232866	REC_START	n/a	LTP191	ltpFR	16	4	n/a	n/a	n/a	n/a	n/a	n/a	n/a	n/a	n/a	n/a
3232919	RECOG_TARGET	n/a	LTP191	ltpFR	16	4	0	BALLERINA	74	5	1	n/a	n/a	n/a	n/a	n/a
3233696	RECOG_RESP	n/a	LTP191	ltpFR	16	4	0	BALLERINA	74	n/a	1	n/a	n/a	n/a	n/a	n/a
3234278	RECOG_CONF	n/a	LTP191	ltpFR	16	4	0	BALLERINA	74	5	1	n/a	n/a	n/a	n/a	n/a
3236014	RECOG_LURE	n/a	LTP191	ltpFR	16	4	n/a	CHAPEL	280	4	n/a	n/a	n/a	n/a	n/a	n/a
3236649	RECOG_RESP	n/a	LTP191	ltpFR	16	4	n/a	CHAPEL	280	n/a	n/a	n/a	n/a	n/a	n/a	n/a
3237296	RECOG_CONF	n/a	LTP191	ltpFR	16	4	n/a	CHAPEL	280	4	n/a	n/a	n/a	n/a	n/a	n/a
3238908	RECOG_TARGET	n/a	LTP191	ltpFR	16	4	-1	SUMMIT	1405	5	-1	n/a	n/a	n/a	n/a	n/a
3239474	RECOG_RESP	n/a	LTP191	ltpFR	16	4	-1	SUMMIT	1405	n/a	-1	n/a	n/a	n/a	n/a	n/a
3240134	RECOG_CONF	n/a	LTP191	ltpFR	16	4	-1	SUMMIT	1405	5	-1	n/a	n/a	n/a	n/a	n/a
3241796	RECOG_LURE	n/a	LTP191	ltpFR	16	4	n/a	COURT	391	4	n/a	n/a	n/a	n/a	n/a	n/a
3242417	RECOG_RESP	n/a	LTP191	ltpFR	16	4	n/a	COURT	391	n/a	n/a	n/a	n/a	n/a	n/a	n/a
3243056	RECOG_CONF	n/a	LTP191	ltpFR	16	4	n/a	COURT	391	4	n/a	n/a	n/a	n/a	n/a	n/a
3244780	RECOG_LURE	n/a	LTP191	ltpFR	16	4	n/a	SOCKET	1340	3	n/a	n/a	n/a	n/a	n/a	n/a
3245632	RECOG_RESP	n/a	LTP191	ltpFR	16	4	n/a	SOCKET	1340	n/a	n/a	n/a	n/a	n/a	n/a	n/a
3246331	RECOG_CONF	n/a	LTP191	ltpFR	16	4	n/a	SOCKET	1340	3	n/a	n/a	n/a	n/a	n/a	n/a
3248087	RECOG_LURE	n/a	LTP191	ltpFR	16	4	n/a	MAN	862	5	n/a	n/a	n/a	n/a	n/a	n/a
3248685	RECOG_RESP	n/a	LTP191	ltpFR	16	4	n/a	MAN	862	n/a	n/a	n/a	n/a	n/a	n/a	n/a
3249343	RECOG_CONF	n/a	LTP191	ltpFR	16	4	n/a	MAN	862	5	n/a	n/a	n/a	n/a	n/a	n/a
3251037	RECOG_LURE	n/a	LTP191	ltpFR	16	4	n/a	LEG	809	3	n/a	n/a	n/a	n/a	n/a	n/a
3251704	RECOG_RESP	n/a	LTP191	ltpFR	16	4	n/a	LEG	809	n/a	n/a	n/a	n/a	n/a	n/a	n/a
3252424	RECOG_CONF	n/a	LTP191	ltpFR	16	4	n/a	LEG	809	3	n/a	n/a	n/a	n/a	n/a	n/a
3254082	RECOG_LURE	n/a	LTP191	ltpFR	16	4	n/a	PILOT	1070	3	n/a	n/a	n/a	n/a	n/a	n/a
3254787	RECOG_RESP	n/a	LTP191	ltpFR	16	4	n/a	PILOT	1070	n/a	n/a	n/a	n/a	n/a	n/a	n/a
3255523	RECOG_CONF	n/a	LTP191	ltpFR	16	4	n/a	PILOT	1070	3	n/a	n/a	n/a	n/a	n/a	n/a
3257177	RECOG_TARGET	n/a	LTP191	ltpFR	16	4	0	TWINE	1529	5	0	n/a	n/a	n/a	n/a	n/a
3257869	RECOG_RESP	n/a	LTP191	ltpFR	16	4	0	TWINE	1529	n/a	0	n/a	n/a	n/a	n/a	n/a
3258562	RECOG_CONF	n/a	LTP191	ltpFR	16	4	0	TWINE	1529	5	0	n/a	n/a	n/a	n/a	n/a
3260255	RECOG_LURE	n/a	LTP191	ltpFR	16	4	n/a	CAVE	263	4	n/a	n/a	n/a	n/a	n/a	n/a
3260931	RECOG_RESP	n/a	LTP191	ltpFR	16	4	n/a	CAVE	263	n/a	n/a	n/a	n/a	n/a	n/a	n/a
3261532	RECOG_CONF	n/a	LTP191	ltpFR	16	4	n/a	CAVE	263	4	n/a	n/a	n/a	n/a	n/a	n/a
3263300	RECOG_LURE	n/a	LTP191	ltpFR	16	4	n/a	DUMP	505	4	n/a	n/a	n/a	n/a	n/a	n/a
3263983	RECOG_RESP	n/a	LTP191	ltpFR	16	4	n/a	DUMP	505	n/a	n/a	n/a	n/a	n/a	n/a	n/a
3264587	RECOG_CONF	n/a	LTP191	ltpFR	16	4	n/a	DUMP	505	4	n/a	n/a	n/a	n/a	n/a	n/a
3266390	RECOG_LURE	n/a	LTP191	ltpFR	16	4	n/a	STRANGER	1389	3	n/a	n/a	n/a	n/a	n/a	n/a
3267042	RECOG_RESP	n/a	LTP191	ltpFR	16	4	n/a	STRANGER	1389	n/a	n/a	n/a	n/a	n/a	n/a	n/a
3267718	RECOG_CONF	n/a	LTP191	ltpFR	16	4	n/a	STRANGER	1389	3	n/a	n/a	n/a	n/a	n/a	n/a
3269424	RECOG_LURE	n/a	LTP191	ltpFR	16	4	n/a	MOTHER	921	4	n/a	n/a	n/a	n/a	n/a	n/a
3270130	RECOG_RESP	n/a	LTP191	ltpFR	16	4	n/a	MOTHER	921	n/a	n/a	n/a	n/a	n/a	n/a	n/a
3270825	RECOG_CONF	n/a	LTP191	ltpFR	16	4	n/a	MOTHER	921	4	n/a	n/a	n/a	n/a	n/a	n/a
3272518	RECOG_LURE	n/a	LTP191	ltpFR	16	4	n/a	CROWN	415	4	n/a	n/a	n/a	n/a	n/a	n/a
3273211	RECOG_RESP	n/a	LTP191	ltpFR	16	4	n/a	CROWN	415	n/a	n/a	n/a	n/a	n/a	n/a	n/a
3273858	RECOG_CONF	n/a	LTP191	ltpFR	16	4	n/a	CROWN	415	4	n/a	n/a	n/a	n/a	n/a	n/a
3275430	RECOG_TARGET	n/a	LTP191	ltpFR	16	4	1	PARIS	1014	5	1	n/a	n/a	n/a	n/a	n/a
3276098	RECOG_RESP	n/a	LTP191	ltpFR	16	4	1	PARIS	1014	n/a	1	n/a	n/a	n/a	n/a	n/a
3276801	RECOG_CONF	n/a	LTP191	ltpFR	16	4	1	PARIS	1014	5	1	n/a	n/a	n/a	n/a	n/a
3278508	RECOG_TARGET	n/a	LTP191	ltpFR	16	4	0	BLUEBERRY	140	5	0	n/a	n/a	n/a	n/a	n/a
3279056	RECOG_RESP	n/a	LTP191	ltpFR	16	4	0	BLUEBERRY	140	n/a	0	n/a	n/a	n/a	n/a	n/a
3279774	RECOG_CONF	n/a	LTP191	ltpFR	16	4	0	BLUEBERRY	140	5	0	n/a	n/a	n/a	n/a	n/a
3281502	RECOG_TARGET	n/a	LTP191	ltpFR	16	4	-1	BUREAU	199	5	-1	n/a	n/a	n/a	n/a	n/a
3282131	RECOG_RESP	n/a	LTP191	ltpFR	16	4	-1	BUREAU	199	n/a	-1	n/a	n/a	n/a	n/a	n/a
3282837	RECOG_CONF	n/a	LTP191	ltpFR	16	4	-1	BUREAU	199	5	-1	n/a	n/a	n/a	n/a	n/a
3284524	RECOG_LURE	n/a	LTP191	ltpFR	16	4	n/a	SUBURB	1399	4	n/a	n/a	n/a	n/a	n/a	n/a
3285222	RECOG_RESP	n/a	LTP191	ltpFR	16	4	n/a	SUBURB	1399	n/a	n/a	n/a	n/a	n/a	n/a	n/a
3285784	RECOG_CONF	n/a	LTP191	ltpFR	16	4	n/a	SUBURB	1399	4	n/a	n/a	n/a	n/a	n/a	n/a
3287468	RECOG_LURE	n/a	LTP191	ltpFR	16	4	n/a	MARS	873	4	n/a	n/a	n/a	n/a	n/a	n/a
3288053	RECOG_RESP	n/a	LTP191	ltpFR	16	4	n/a	MARS	873	n/a	n/a	n/a	n/a	n/a	n/a	n/a
3288644	RECOG_CONF	n/a	LTP191	ltpFR	16	4	n/a	MARS	873	4	n/a	n/a	n/a	n/a	n/a	n/a
3290285	RECOG_LURE	n/a	LTP191	ltpFR	16	4	n/a	PLANT	1083	3	n/a	n/a	n/a	n/a	n/a	n/a
3290927	RECOG_RESP	n/a	LTP191	ltpFR	16	4	n/a	PLANT	1083	n/a	n/a	n/a	n/a	n/a	n/a	n/a
3291618	RECOG_CONF	n/a	LTP191	ltpFR	16	4	n/a	PLANT	1083	3	n/a	n/a	n/a	n/a	n/a	n/a
3296139	REC_START	n/a	LTP191	ltpFR	16	5	n/a	n/a	n/a	n/a	n/a	n/a	n/a	n/a	n/a	n/a
3296191	RECOG_TARGET	n/a	LTP191	ltpFR	16	5	0	CURB	426	5	1	n/a	n/a	n/a	n/a	n/a
3296950	RECOG_RESP	n/a	LTP191	ltpFR	16	5	0	CURB	426	n/a	1	n/a	n/a	n/a	n/a	n/a
3297670	RECOG_CONF	n/a	LTP191	ltpFR	16	5	0	CURB	426	5	1	n/a	n/a	n/a	n/a	n/a
3299252	RECOG_LURE	n/a	LTP191	ltpFR	16	5	n/a	SOLDIER	1344	3	n/a	n/a	n/a	n/a	n/a	n/a
3299917	RECOG_RESP_VV	n/a	LTP191	ltpFR	16	5	n/a	SOLDIER	1344	n/a	n/a	n/a	n/a	n/a	n/a	n/a
3300469	RECOG_RESP	n/a	LTP191	ltpFR	16	5	n/a	SOLDIER	1344	n/a	n/a	n/a	n/a	n/a	n/a	n/a
3301588	RECOG_CONF	n/a	LTP191	ltpFR	16	5	n/a	SOLDIER	1344	3	n/a	n/a	n/a	n/a	n/a	n/a
3303244	RECOG_TARGET	n/a	LTP191	ltpFR	16	5	0	PANTHER	1009	5	1	n/a	n/a	n/a	n/a	n/a
3304009	RECOG_RESP	n/a	LTP191	ltpFR	16	5	0	PANTHER	1009	n/a	1	n/a	n/a	n/a	n/a	n/a
3304573	RECOG_CONF	n/a	LTP191	ltpFR	16	5	0	PANTHER	1009	5	1	n/a	n/a	n/a	n/a	n/a
3306347	RECOG_TARGET	n/a	LTP191	ltpFR	16	5	1	SALMON	1227	5	1	n/a	n/a	n/a	n/a	n/a
3306878	RECOG_RESP	n/a	LTP191	ltpFR	16	5	1	SALMON	1227	n/a	1	n/a	n/a	n/a	n/a	n/a
3307568	RECOG_CONF	n/a	LTP191	ltpFR	16	5	1	SALMON	1227	5	1	n/a	n/a	n/a	n/a	n/a
3309308	RECOG_LURE	n/a	LTP191	ltpFR	16	5	n/a	STEAM	1375	3	n/a	n/a	n/a	n/a	n/a	n/a
3310042	RECOG_RESP	n/a	LTP191	ltpFR	16	5	n/a	STEAM	1375	n/a	n/a	n/a	n/a	n/a	n/a	n/a
3310716	RECOG_CONF	n/a	LTP191	ltpFR	16	5	n/a	STEAM	1375	3	n/a	n/a	n/a	n/a	n/a	n/a
3312336	RECOG_LURE	n/a	LTP191	ltpFR	16	5	n/a	STAPLER	1372	3	n/a	n/a	n/a	n/a	n/a	n/a
3313184	RECOG_RESP	n/a	LTP191	ltpFR	16	5	n/a	STAPLER	1372	n/a	n/a	n/a	n/a	n/a	n/a	n/a
3314242	RECOG_CONF	n/a	LTP191	ltpFR	16	5	n/a	STAPLER	1372	3	n/a	n/a	n/a	n/a	n/a	n/a
3315982	RECOG_TARGET	n/a	LTP191	ltpFR	16	5	-1	UNDERWEAR	1537	5	-1	n/a	n/a	n/a	n/a	n/a
3316643	RECOG_RESP	n/a	LTP191	ltpFR	16	5	-1	UNDERWEAR	1537	n/a	-1	n/a	n/a	n/a	n/a	n/a
3317366	RECOG_CONF	n/a	LTP191	ltpFR	16	5	-1	UNDERWEAR	1537	5	-1	n/a	n/a	n/a	n/a	n/a
3319111	RECOG_LURE	n/a	LTP191	ltpFR	16	5	n/a	RANCH	1166	4	n/a	n/a	n/a	n/a	n/a	n/a
3319740	RECOG_RESP	n/a	LTP191	ltpFR	16	5	n/a	RANCH	1166	n/a	n/a	n/a	n/a	n/a	n/a	n/a
3320628	RECOG_CONF	n/a	LTP191	ltpFR	16	5	n/a	RANCH	1166	4	n/a	n/a	n/a	n/a	n/a	n/a
3322189	RECOG_LURE	n/a	LTP191	ltpFR	16	5	n/a	PELICAN	1039	3	n/a	n/a	n/a	n/a	n/a	n/a
3323033	RECOG_RESP	n/a	LTP191	ltpFR	16	5	n/a	PELICAN	1039	n/a	n/a	n/a	n/a	n/a	n/a	n/a
3323711	RECOG_CONF	n/a	LTP191	ltpFR	16	5	n/a	PELICAN	1039	3	n/a	n/a	n/a	n/a	n/a	n/a
3325345	RECOG_LURE	n/a	LTP191	ltpFR	16	5	n/a	FLUTE	585	4	n/a	n/a	n/a	n/a	n/a	n/a
3325910	RECOG_RESP	n/a	LTP191	ltpFR	16	5	n/a	FLUTE	585	n/a	n/a	n/a	n/a	n/a	n/a	n/a
3326451	RECOG_CONF	n/a	LTP191	ltpFR	16	5	n/a	FLUTE	585	4	n/a	n/a	n/a	n/a	n/a	n/a
3328380	RECOG_LURE	n/a	LTP191	ltpFR	16	5	n/a	DESK	452	4	n/a	n/a	n/a	n/a	n/a	n/a
3329455	RECOG_RESP	n/a	LTP191	ltpFR	16	5	n/a	DESK	452	n/a	n/a	n/a	n/a	n/a	n/a	n/a
3330157	RECOG_CONF	n/a	LTP191	ltpFR	16	5	n/a	DESK	452	4	n/a	n/a	n/a	n/a	n/a	n/a
3331718	RECOG_LURE	n/a	LTP191	ltpFR	16	5	n/a	PROTRACTOR	1133	5	n/a	n/a	n/a	n/a	n/a	n/a
3332418	RECOG_RESP	n/a	LTP191	ltpFR	16	5	n/a	PROTRACTOR	1133	n/a	n/a	n/a	n/a	n/a	n/a	n/a
3333100	RECOG_CONF	n/a	LTP191	ltpFR	16	5	n/a	PROTRACTOR	1133	5	n/a	n/a	n/a	n/a	n/a	n/a
3334652	RECOG_TARGET	n/a	LTP191	ltpFR	16	5	1	CANAL	226	3	0	n/a	n/a	n/a	n/a	n/a
3336113	RECOG_RESP	n/a	LTP191	ltpFR	16	5	1	CANAL	226	n/a	0	n/a	n/a	n/a	n/a	n/a
3337206	RECOG_CONF	n/a	LTP191	ltpFR	16	5	1	CANAL	226	3	0	n/a	n/a	n/a	n/a	n/a
3338885	RECOG_LURE	n/a	LTP191	ltpFR	16	5	n/a	HUMAN	726	5	n/a	n/a	n/a	n/a	n/a	n/a
3339635	RECOG_RESP	n/a	LTP191	ltpFR	16	5	n/a	HUMAN	726	n/a	n/a	n/a	n/a	n/a	n/a	n/a
3340249	RECOG_CONF	n/a	LTP191	ltpFR	16	5	n/a	HUMAN	726	5	n/a	n/a	n/a	n/a	n/a	n/a
3341896	RECOG_TARGET	n/a	LTP191	ltpFR	16	5	1	TYPEWRITER	1531	5	1	n/a	n/a	n/a	n/a	n/a
3342839	RECOG_RESP	n/a	LTP191	ltpFR	16	5	1	TYPEWRITER	1531	n/a	1	n/a	n/a	n/a	n/a	n/a
3343566	RECOG_CONF	n/a	LTP191	ltpFR	16	5	1	TYPEWRITER	1531	5	1	n/a	n/a	n/a	n/a	n/a
3345192	RECOG_LURE	n/a	LTP191	ltpFR	16	5	n/a	SCRIBBLE	1256	3	n/a	n/a	n/a	n/a	n/a	n/a
3345943	RECOG_RESP	n/a	LTP191	ltpFR	16	5	n/a	SCRIBBLE	1256	n/a	n/a	n/a	n/a	n/a	n/a	n/a
3346708	RECOG_CONF	n/a	LTP191	ltpFR	16	5	n/a	SCRIBBLE	1256	3	n/a	n/a	n/a	n/a	n/a	n/a
3348405	RECOG_LURE	n/a	LTP191	ltpFR	16	5	n/a	NOOSE	956	5	n/a	n/a	n/a	n/a	n/a	n/a
3349474	RECOG_RESP	n/a	LTP191	ltpFR	16	5	n/a	NOOSE	956	n/a	n/a	n/a	n/a	n/a	n/a	n/a
3350031	RECOG_CONF	n/a	LTP191	ltpFR	16	5	n/a	NOOSE	956	5	n/a	n/a	n/a	n/a	n/a	n/a
3351911	RECOG_TARGET	n/a	LTP191	ltpFR	16	5	1	SHARK	1275	5	1	n/a	n/a	n/a	n/a	n/a
3352622	RECOG_RESP	n/a	LTP191	ltpFR	16	5	1	SHARK	1275	n/a	1	n/a	n/a	n/a	n/a	n/a
3353224	RECOG_CONF	n/a	LTP191	ltpFR	16	5	1	SHARK	1275	5	1	n/a	n/a	n/a	n/a	n/a
3354929	RECOG_LURE	n/a	LTP191	ltpFR	16	5	n/a	QUAIL	1147	4	n/a	n/a	n/a	n/a	n/a	n/a
3355515	RECOG_RESP	n/a	LTP191	ltpFR	16	5	n/a	QUAIL	1147	n/a	n/a	n/a	n/a	n/a	n/a	n/a
3356131	RECOG_CONF	n/a	LTP191	ltpFR	16	5	n/a	QUAIL	1147	4	n/a	n/a	n/a	n/a	n/a	n/a
3357834	RECOG_TARGET	n/a	LTP191	ltpFR	16	5	-1	FRIAR	605	4	-1	n/a	n/a	n/a	n/a	n/a
3358378	RECOG_RESP	n/a	LTP191	ltpFR	16	5	-1	FRIAR	605	n/a	-1	n/a	n/a	n/a	n/a	n/a
3359141	RECOG_CONF	n/a	LTP191	ltpFR	16	5	-1	FRIAR	605	4	-1	n/a	n/a	n/a	n/a	n/a
3370859	REC_START	n/a	LTP191	ltpFR	16	6	n/a	n/a	n/a	n/a	n/a	n/a	n/a	n/a	n/a	n/a
3370906	RECOG_LURE	n/a	LTP191	ltpFR	16	6	n/a	JET	756	5	n/a	n/a	n/a	n/a	n/a	n/a
3371601	RECOG_RESP	n/a	LTP191	ltpFR	16	6	n/a	JET	756	n/a	n/a	n/a	n/a	n/a	n/a	n/a
3372221	RECOG_CONF	n/a	LTP191	ltpFR	16	6	n/a	JET	756	5	n/a	n/a	n/a	n/a	n/a	n/a
3373817	RECOG_LURE	n/a	LTP191	ltpFR	16	6	n/a	MOON	914	5	n/a	n/a	n/a	n/a	n/a	n/a
3374334	RECOG_RESP	n/a	LTP191	ltpFR	16	6	n/a	MOON	914	n/a	n/a	n/a	n/a	n/a	n/a	n/a
3374974	RECOG_CONF	n/a	LTP191	ltpFR	16	6	n/a	MOON	914	5	n/a	n/a	n/a	n/a	n/a	n/a
3376654	RECOG_TARGET	n/a	LTP191	ltpFR	16	6	0	NAPKIN	937	4	0	n/a	n/a	n/a	n/a	n/a
3377549	RECOG_RESP	n/a	LTP191	ltpFR	16	6	0	NAPKIN	937	n/a	0	n/a	n/a	n/a	n/a	n/a
3378247	RECOG_CONF	n/a	LTP191	ltpFR	16	6	0	NAPKIN	937	4	0	n/a	n/a	n/a	n/a	n/a
3379772	RECOG_LURE	n/a	LTP191	ltpFR	16	6	n/a	APPENDAGE	32	4	n/a	n/a	n/a	n/a	n/a	n/a
3380550	RECOG_RESP	n/a	LTP191	ltpFR	16	6	n/a	APPENDAGE	32	n/a	n/a	n/a	n/a	n/a	n/a	n/a
3381294	RECOG_CONF	n/a	LTP191	ltpFR	16	6	n/a	APPENDAGE	32	4	n/a	n/a	n/a	n/a	n/a	n/a
3382945	RECOG_LURE	n/a	LTP191	ltpFR	16	6	n/a	BAND	78	3	n/a	n/a	n/a	n/a	n/a	n/a
3383992	RECOG_RESP_VV	n/a	LTP191	ltpFR	16	6	n/a	BAND	78	n/a	n/a	n/a	n/a	n/a	n/a	n/a
3384568	RECOG_RESP	n/a	LTP191	ltpFR	16	6	n/a	BAND	78	n/a	n/a	n/a	n/a	n/a	n/a	n/a
3385645	RECOG_CONF	n/a	LTP191	ltpFR	16	6	n/a	BAND	78	3	n/a	n/a	n/a	n/a	n/a	n/a
3387312	RECOG_TARGET	n/a	LTP191	ltpFR	16	6	1	LIST	830	4	0	n/a	n/a	n/a	n/a	n/a
3388003	RECOG_RESP	n/a	LTP191	ltpFR	16	6	1	LIST	830	n/a	0	n/a	n/a	n/a	n/a	n/a
3388783	RECOG_CONF	n/a	LTP191	ltpFR	16	6	1	LIST	830	4	0	n/a	n/a	n/a	n/a	n/a
3390262	RECOG_TARGET	n/a	LTP191	ltpFR	16	6	-1	PITCHFORK	1078	5	-1	n/a	n/a	n/a	n/a	n/a
3390827	RECOG_RESP	n/a	LTP191	ltpFR	16	6	-1	PITCHFORK	1078	n/a	-1	n/a	n/a	n/a	n/a	n/a
3391439	RECOG_CONF	n/a	LTP191	ltpFR	16	6	-1	PITCHFORK	1078	5	-1	n/a	n/a	n/a	n/a	n/a
3393273	RECOG_LURE	n/a	LTP191	ltpFR	16	6	n/a	STAGE	1366	3	n/a	n/a	n/a	n/a	n/a	n/a
3393858	RECOG_RESP	n/a	LTP191	ltpFR	16	6	n/a	STAGE	1366	n/a	n/a	n/a	n/a	n/a	n/a	n/a
3394556	RECOG_CONF	n/a	LTP191	ltpFR	16	6	n/a	STAGE	1366	3	n/a	n/a	n/a	n/a	n/a	n/a
3396319	RECOG_LURE	n/a	LTP191	ltpFR	16	6	n/a	CHEMICAL	291	2	n/a	n/a	n/a	n/a	n/a	n/a
3397119	RECOG_RESP	n/a	LTP191	ltpFR	16	6	n/a	CHEMICAL	291	n/a	n/a	n/a	n/a	n/a	n/a	n/a
3397826	RECOG_CONF	n/a	LTP191	ltpFR	16	6	n/a	CHEMICAL	291	2	n/a	n/a	n/a	n/a	n/a	n/a
3399480	RECOG_TARGET	n/a	LTP191	ltpFR	16	6	0	VAMPIRE	1547	4	1	n/a	n/a	n/a	n/a	n/a
3400169	RECOG_RESP	n/a	LTP191	ltpFR	16	6	0	VAMPIRE	1547	n/a	1	n/a	n/a	n/a	n/a	n/a
3400945	RECOG_CONF	n/a	LTP191	ltpFR	16	6	0	VAMPIRE	1547	4	1	n/a	n/a	n/a	n/a	n/a
3402652	RECOG_LURE	n/a	LTP191	ltpFR	16	6	n/a	DENTIST	447	4	n/a	n/a	n/a	n/a	n/a	n/a
3403269	RECOG_RESP	n/a	LTP191	ltpFR	16	6	n/a	DENTIST	447	n/a	n/a	n/a	n/a	n/a	n/a	n/a
3403922	RECOG_CONF	n/a	LTP191	ltpFR	16	6	n/a	DENTIST	447	4	n/a	n/a	n/a	n/a	n/a	n/a
3405714	RECOG_LURE	n/a	LTP191	ltpFR	16	6	n/a	BULLET	194	5	n/a	n/a	n/a	n/a	n/a	n/a
3406482	RECOG_RESP	n/a	LTP191	ltpFR	16	6	n/a	BULLET	194	n/a	n/a	n/a	n/a	n/a	n/a	n/a
3407252	RECOG_CONF	n/a	LTP191	ltpFR	16	6	n/a	BULLET	194	5	n/a	n/a	n/a	n/a	n/a	n/a
3409066	RECOG_LURE	n/a	LTP191	ltpFR	16	6	n/a	UMPIRE	1535	2	n/a	n/a	n/a	n/a	n/a	n/a
3410528	RECOG_RESP	n/a	LTP191	ltpFR	16	6	n/a	UMPIRE	1535	n/a	n/a	n/a	n/a	n/a	n/a	n/a
3411905	RECOG_CONF	n/a	LTP191	ltpFR	16	6	n/a	UMPIRE	1535	2	n/a	n/a	n/a	n/a	n/a	n/a
3413811	RECOG_LURE	n/a	LTP191	ltpFR	16	6	n/a	SKIRT	1319	4	n/a	n/a	n/a	n/a	n/a	n/a
3414788	RECOG_RESP	n/a	LTP191	ltpFR	16	6	n/a	SKIRT	1319	n/a	n/a	n/a	n/a	n/a	n/a	n/a
3415494	RECOG_CONF	n/a	LTP191	ltpFR	16	6	n/a	SKIRT	1319	4	n/a	n/a	n/a	n/a	n/a	n/a
3417274	RECOG_LURE	n/a	LTP191	ltpFR	16	6	n/a	CHAMPAGNE	278	5	n/a	n/a	n/a	n/a	n/a	n/a
3417983	RECOG_RESP	n/a	LTP191	ltpFR	16	6	n/a	CHAMPAGNE	278	n/a	n/a	n/a	n/a	n/a	n/a	n/a
3418534	RECOG_CONF	n/a	LTP191	ltpFR	16	6	n/a	CHAMPAGNE	278	5	n/a	n/a	n/a	n/a	n/a	n/a
3420337	RECOG_LURE	n/a	LTP191	ltpFR	16	6	n/a	EARTH	515	3	n/a	n/a	n/a	n/a	n/a	n/a
3421029	RECOG_RESP	n/a	LTP191	ltpFR	16	6	n/a	EARTH	515	n/a	n/a	n/a	n/a	n/a	n/a	n/a
3422171	RECOG_CONF	n/a	LTP191	ltpFR	16	6	n/a	EARTH	515	3	n/a	n/a	n/a	n/a	n/a	n/a
3423999	RECOG_LURE	n/a	LTP191	ltpFR	16	6	n/a	ALMOND	18	4	n/a	n/a	n/a	n/a	n/a	n/a
3424706	RECOG_RESP	n/a	LTP191	ltpFR	16	6	n/a	ALMOND	18	n/a	n/a	n/a	n/a	n/a	n/a	n/a
