onset	duration	trial_type	sample	stim_file	subject	experiment	session	trial	item_name	item_num	list	answer	test_x	test_y	test_z
199.814453125	n/a	SESS_START	409220	n/a	LTP357	ltpFR2	11	n/a	n/a	n/a	n/a	n/a	0	0	0
213.74560546875	n/a	START	437751	n/a	LTP357	ltpFR2	11	n/a	n/a	n/a	-1	n/a	n/a	n/a	n/a
213.7744140625	n/a	PROB	437810	n/a	LTP357	ltpFR2	11	n/a	n/a	n/a	-1	17	9	2	6
215.75634765625	n/a	PROB	441869	n/a	LTP357	ltpFR2	11	n/a	n/a	n/a	-1	11	6	4	1
216.75634765625	n/a	PROB	443917	n/a	LTP357	ltpFR2	11	n/a	n/a	n/a	-1	9	3	2	4
217.939453125	n/a	PROB	446340	n/a	LTP357	ltpFR2	11	n/a	n/a	n/a	-1	15	5	1	9
219.271484375	n/a	PROB	449068	n/a	LTP357	ltpFR2	11	n/a	n/a	n/a	-1	10	7	2	1
220.48779296875	n/a	PROB	451559	n/a	LTP357	ltpFR2	11	n/a	n/a	n/a	-1	11	3	6	2
221.970703125	n/a	PROB	454596	n/a	LTP357	ltpFR2	11	n/a	n/a	n/a	-1	19	5	6	8
223.45361328125	n/a	PROB	457633	n/a	LTP357	ltpFR2	11	n/a	n/a	n/a	-1	14	4	9	1
224.7685546875	n/a	STOP	460326	n/a	LTP357	ltpFR2	11	n/a	n/a	n/a	-1	n/a	n/a	n/a	n/a
261.66796875	n/a	DISTRACTOR	535896	n/a	LTP357	ltpFR2	11	1	n/a	n/a	n/a	n/a	0	0	0
261.66796875	n/a	START	535896	n/a	LTP357	ltpFR2	11	n/a	n/a	n/a	1	n/a	n/a	n/a	n/a
261.68505859375	n/a	PROB	535931	n/a	LTP357	ltpFR2	11	n/a	n/a	n/a	1	8	5	2	1
263.18408203125	n/a	PROB	539001	n/a	LTP357	ltpFR2	11	n/a	n/a	n/a	1	8	4	2	2
264.4169921875	n/a	PROB	541526	n/a	LTP357	ltpFR2	11	n/a	n/a	n/a	1	16	1	7	8
265.5830078125	n/a	PROB	543914	n/a	LTP357	ltpFR2	11	n/a	n/a	n/a	1	12	6	5	1
266.73193359375	n/a	PROB	546267	n/a	LTP357	ltpFR2	11	n/a	n/a	n/a	1	22	9	9	3
268.2978515625	n/a	PROB	549474	n/a	LTP357	ltpFR2	11	n/a	n/a	n/a	1	13	5	6	2
269.61376953125	n/a	PROB	552169	n/a	LTP357	ltpFR2	11	n/a	n/a	n/a	1	16	6	2	8
270.81298828125	n/a	PROB	554625	n/a	LTP357	ltpFR2	11	n/a	n/a	n/a	1	13	8	2	3
272.31298828125	n/a	PROB	557697	n/a	LTP357	ltpFR2	11	n/a	n/a	n/a	1	17	8	2	7
273.3447265625	n/a	PROB	559810	n/a	LTP357	ltpFR2	11	n/a	n/a	n/a	1	7	5	1	1
275.34375	n/a	PROB	563904	n/a	LTP357	ltpFR2	11	n/a	n/a	n/a	1	14	2	7	5
276.84375	n/a	PROB	566976	n/a	LTP357	ltpFR2	11	n/a	n/a	n/a	1	13	3	2	7
278.091796875	n/a	PROB	569532	n/a	LTP357	ltpFR2	11	n/a	n/a	n/a	1	5	2	1	2
279.42578125	n/a	PROB	572264	n/a	LTP357	ltpFR2	11	n/a	n/a	n/a	1	20	6	7	7
281.89111328125	n/a	PROB	577313	n/a	LTP357	ltpFR2	11	n/a	n/a	n/a	1	8	2	2	4
283.0068359375	n/a	PROB	579598	n/a	LTP357	ltpFR2	11	n/a	n/a	n/a	1	23	9	6	8
284.80908203125	n/a	STOP	583289	n/a	LTP357	ltpFR2	11	n/a	n/a	n/a	1	n/a	n/a	n/a	n/a
286.7548828125	n/a	WORD	587274	wordpools/wasnorm_wordpool_576.txt	LTP357	ltpFR2	11	1	OUTDOORS	987	n/a	n/a	0	0	0
289.537109375	n/a	WORD	592972	wordpools/wasnorm_wordpool_576.txt	LTP357	ltpFR2	11	1	CARRIAGE	248	n/a	n/a	0	0	0
292.203125	n/a	WORD	598432	wordpools/wasnorm_wordpool_576.txt	LTP357	ltpFR2	11	1	BACKBONE	66	n/a	n/a	0	0	0
294.78515625	n/a	WORD	603720	wordpools/wasnorm_wordpool_576.txt	LTP357	ltpFR2	11	1	SHARK	1275	n/a	n/a	0	0	0
297.51708984375	n/a	WORD	609315	wordpools/wasnorm_wordpool_576.txt	LTP357	ltpFR2	11	1	LODGE	839	n/a	n/a	0	0	0
300.26513671875	n/a	WORD	614943	wordpools/wasnorm_wordpool_576.txt	LTP357	ltpFR2	11	1	ASIA	46	n/a	n/a	0	0	0
302.93115234375	n/a	WORD	620403	wordpools/wasnorm_wordpool_576.txt	LTP357	ltpFR2	11	1	SIBLING	1301	n/a	n/a	0	0	0
305.38037109375	n/a	WORD	625419	wordpools/wasnorm_wordpool_576.txt	LTP357	ltpFR2	11	1	EXPERT	543	n/a	n/a	0	0	0
307.89501953125	n/a	WORD	630569	wordpools/wasnorm_wordpool_576.txt	LTP357	ltpFR2	11	1	TEACHER	1440	n/a	n/a	0	0	0
310.66015625	n/a	WORD	636232	wordpools/wasnorm_wordpool_576.txt	LTP357	ltpFR2	11	1	OUTFIT	988	n/a	n/a	0	0	0
313.22607421875	n/a	WORD	641487	wordpools/wasnorm_wordpool_576.txt	LTP357	ltpFR2	11	1	CLOTHES	327	n/a	n/a	0	0	0
315.94140625	n/a	WORD	647048	wordpools/wasnorm_wordpool_576.txt	LTP357	ltpFR2	11	1	CUPBOARD	425	n/a	n/a	0	0	0
318.47314453125	n/a	WORD	652233	wordpools/wasnorm_wordpool_576.txt	LTP357	ltpFR2	11	1	THRONE	1461	n/a	n/a	0	0	0
321.1552734375	n/a	WORD	657726	wordpools/wasnorm_wordpool_576.txt	LTP357	ltpFR2	11	1	DAUGHTER	442	n/a	n/a	0	0	0
323.58740234375	n/a	WORD	662707	wordpools/wasnorm_wordpool_576.txt	LTP357	ltpFR2	11	1	PIGMENT	1066	n/a	n/a	0	0	0
326.203125	n/a	WORD	668064	wordpools/wasnorm_wordpool_576.txt	LTP357	ltpFR2	11	1	HELMET	702	n/a	n/a	0	0	0
328.80126953125	n/a	WORD	673385	wordpools/wasnorm_wordpool_576.txt	LTP357	ltpFR2	11	1	AUTHOR	61	n/a	n/a	0	0	0
331.4501953125	n/a	WORD	678810	wordpools/wasnorm_wordpool_576.txt	LTP357	ltpFR2	11	1	JUNGLE	764	n/a	n/a	0	0	0
334.18212890625	n/a	WORD	684405	wordpools/wasnorm_wordpool_576.txt	LTP357	ltpFR2	11	1	SPARROW	1347	n/a	n/a	0	0	0
336.91455078125	n/a	WORD	690001	wordpools/wasnorm_wordpool_576.txt	LTP357	ltpFR2	11	1	BULLET	194	n/a	n/a	0	0	0
339.646484375	n/a	WORD	695596	wordpools/wasnorm_wordpool_576.txt	LTP357	ltpFR2	11	1	GANGSTER	620	n/a	n/a	0	0	0
342.3115234375	n/a	WORD	701054	wordpools/wasnorm_wordpool_576.txt	LTP357	ltpFR2	11	1	PASTA	1021	n/a	n/a	0	0	0
344.8935546875	n/a	WORD	706342	wordpools/wasnorm_wordpool_576.txt	LTP357	ltpFR2	11	1	COFFEE	341	n/a	n/a	0	0	0
347.642578125	n/a	WORD	711972	wordpools/wasnorm_wordpool_576.txt	LTP357	ltpFR2	11	1	SALMON	1227	n/a	n/a	0	0	0
349.25830078125	n/a	START	715281	n/a	LTP357	ltpFR2	11	n/a	n/a	n/a	2	n/a	n/a	n/a	n/a
350.3984375	n/a	DISTRACTOR	717616	n/a	LTP357	ltpFR2	11	1	n/a	n/a	n/a	n/a	0	0	0
350.4072265625	n/a	PROB	717634	n/a	LTP357	ltpFR2	11	n/a	n/a	n/a	2	20	9	7	4
352.3232421875	n/a	PROB	721558	n/a	LTP357	ltpFR2	11	n/a	n/a	n/a	2	16	4	5	7
353.556640625	n/a	PROB	724084	n/a	LTP357	ltpFR2	11	n/a	n/a	n/a	2	18	2	8	8
354.73828125	n/a	PROB	726504	n/a	LTP357	ltpFR2	11	n/a	n/a	n/a	2	13	2	5	6
356.4873046875	n/a	PROB	730086	n/a	LTP357	ltpFR2	11	n/a	n/a	n/a	2	17	6	9	2
357.970703125	n/a	PROB	733124	n/a	LTP357	ltpFR2	11	n/a	n/a	n/a	2	16	2	9	5
359.66943359375	n/a	PROB	736603	n/a	LTP357	ltpFR2	11	n/a	n/a	n/a	2	17	2	7	8
361.78564453125	n/a	PROB	740937	n/a	LTP357	ltpFR2	11	n/a	n/a	n/a	2	20	7	9	4
364.1845703125	n/a	PROB	745850	n/a	LTP357	ltpFR2	11	n/a	n/a	n/a	2	15	2	7	6
365.50048828125	n/a	PROB	748545	n/a	LTP357	ltpFR2	11	n/a	n/a	n/a	2	18	6	2	8
366.732421875	n/a	PROB	751068	n/a	LTP357	ltpFR2	11	n/a	n/a	n/a	2	17	4	9	4
368.5654296875	n/a	PROB	754822	n/a	LTP357	ltpFR2	11	n/a	n/a	n/a	2	21	8	5	8
370.3974609375	n/a	PROB	758574	n/a	LTP357	ltpFR2	11	n/a	n/a	n/a	2	12	6	1	5
372.849609375	n/a	STOP	763596	n/a	LTP357	ltpFR2	11	n/a	n/a	n/a	2	n/a	n/a	n/a	n/a
375.0625	n/a	REC_START	768128	n/a	LTP357	ltpFR2	11	1	n/a	n/a	n/a	n/a	0	0	0
376.31982421875	n/a	REC_WORD	770703	wordpools/wasnorm_wordpool_576.txt	LTP357	ltpFR2	11	1	OUTDOORS	987	n/a	n/a	0	0	0
377.6806640625	n/a	REC_WORD	773490	wordpools/wasnorm_wordpool_576.txt	LTP357	ltpFR2	11	1	ASIA	46	n/a	n/a	0	0	0
381.28955078125	n/a	REC_WORD	780881	wordpools/wasnorm_wordpool_576.txt	LTP357	ltpFR2	11	1	CARRIAGE	248	n/a	n/a	0	0	0
382.32958984375	n/a	REC_WORD	783011	wordpools/wasnorm_wordpool_576.txt	LTP357	ltpFR2	11	1	BACKBONE	66	n/a	n/a	0	0	0
383.33154296875	n/a	REC_WORD	785063	wordpools/wasnorm_wordpool_576.txt	LTP357	ltpFR2	11	1	SHARK	1275	n/a	n/a	0	0	0
385.20166015625	n/a	REC_WORD	788893	wordpools/wasnorm_wordpool_576.txt	LTP357	ltpFR2	11	1	SIBLING	1301	n/a	n/a	0	0	0
386.95849609375	n/a	REC_WORD	792491	wordpools/wasnorm_wordpool_576.txt	LTP357	ltpFR2	11	1	TEACHER	1440	n/a	n/a	0	0	0
388.59375	n/a	REC_WORD	795840	wordpools/wasnorm_wordpool_576.txt	LTP357	ltpFR2	11	1	EXPERT	543	n/a	n/a	0	0	0
389.65478515625	n/a	REC_WORD	798013	wordpools/wasnorm_wordpool_576.txt	LTP357	ltpFR2	11	1	AUTHOR	61	n/a	n/a	0	0	0
391.21875	n/a	REC_WORD	801216	wordpools/wasnorm_wordpool_576.txt	LTP357	ltpFR2	11	1	DAUGHTER	442	n/a	n/a	0	0	0
393.1826171875	n/a	REC_WORD	805238	wordpools/wasnorm_wordpool_576.txt	LTP357	ltpFR2	11	1	BULLET	194	n/a	n/a	0	0	0
394.36865234375	n/a	REC_WORD	807667	wordpools/wasnorm_wordpool_576.txt	LTP357	ltpFR2	11	1	COFFEE	341	n/a	n/a	0	0	0
395.9599609375	n/a	REC_WORD	810926	wordpools/wasnorm_wordpool_576.txt	LTP357	ltpFR2	11	1	SALMON	1227	n/a	n/a	0	0	0
403.78564453125	n/a	REC_WORD	826953	wordpools/wasnorm_wordpool_576.txt	LTP357	ltpFR2	11	1	GANGSTER	620	n/a	n/a	0	0	0
404.923828125	n/a	REC_WORD	829284	wordpools/wasnorm_wordpool_576.txt	LTP357	ltpFR2	11	1	PASTA	1021	n/a	n/a	0	0	0
413.9130859375	n/a	REC_WORD	847694	wordpools/wasnorm_wordpool_576.txt	LTP357	ltpFR2	11	1	CLOTHES	327	n/a	n/a	0	0	0
465.51806640625	n/a	DISTRACTOR	953381	n/a	LTP357	ltpFR2	11	2	n/a	n/a	n/a	n/a	0	0	0
465.51806640625	n/a	START	953381	n/a	LTP357	ltpFR2	11	n/a	n/a	n/a	3	n/a	n/a	n/a	n/a
465.5341796875	n/a	PROB	953414	n/a	LTP357	ltpFR2	11	n/a	n/a	n/a	3	18	6	5	7
466.984375	n/a	PROB	956384	n/a	LTP357	ltpFR2	11	n/a	n/a	n/a	3	22	7	9	6
469.033203125	n/a	PROB	960580	n/a	LTP357	ltpFR2	11	n/a	n/a	n/a	3	10	4	1	5
470.68212890625	n/a	PROB	963957	n/a	LTP357	ltpFR2	11	n/a	n/a	n/a	3	6	2	1	3
471.8154296875	n/a	PROB	966278	n/a	LTP357	ltpFR2	11	n/a	n/a	n/a	3	14	3	9	2
473.88037109375	n/a	PROB	970507	n/a	LTP357	ltpFR2	11	n/a	n/a	n/a	3	21	8	5	8
476.46240234375	n/a	PROB	975795	n/a	LTP357	ltpFR2	11	n/a	n/a	n/a	3	20	9	8	3
478.01123046875	n/a	PROB	978967	n/a	LTP357	ltpFR2	11	n/a	n/a	n/a	3	18	8	1	9
479.26123046875	n/a	PROB	981527	n/a	LTP357	ltpFR2	11	n/a	n/a	n/a	3	19	5	6	8
480.7275390625	n/a	PROB	984530	n/a	LTP357	ltpFR2	11	n/a	n/a	n/a	3	9	4	4	1
482.576171875	n/a	PROB	988316	n/a	LTP357	ltpFR2	11	n/a	n/a	n/a	3	17	2	9	6
484.158203125	n/a	PROB	991556	n/a	LTP357	ltpFR2	11	n/a	n/a	n/a	3	8	2	2	4
485.42431640625	n/a	PROB	994149	n/a	LTP357	ltpFR2	11	n/a	n/a	n/a	3	12	3	5	4
486.857421875	n/a	PROB	997084	n/a	LTP357	ltpFR2	11	n/a	n/a	n/a	3	19	3	9	7
488.38623046875	n/a	STOP	1000215	n/a	LTP357	ltpFR2	11	n/a	n/a	n/a	3	n/a	n/a	n/a	n/a
490.58935546875	n/a	WORD	1004727	wordpools/wasnorm_wordpool_576.txt	LTP357	ltpFR2	11	2	LUNCH	849	n/a	n/a	0	0	0
493.17138671875	n/a	WORD	1010015	wordpools/wasnorm_wordpool_576.txt	LTP357	ltpFR2	11	2	BLOCKADE	137	n/a	n/a	0	0	0
495.70361328125	n/a	WORD	1015201	wordpools/wasnorm_wordpool_576.txt	LTP357	ltpFR2	11	2	GHETTO	633	n/a	n/a	0	0	0
498.3515625	n/a	WORD	1020624	wordpools/wasnorm_wordpool_576.txt	LTP357	ltpFR2	11	2	HIGHWAY	707	n/a	n/a	0	0	0
501.05029296875	n/a	WORD	1026151	wordpools/wasnorm_wordpool_576.txt	LTP357	ltpFR2	11	2	POCKET	1093	n/a	n/a	0	0	0
503.63232421875	n/a	WORD	1031439	wordpools/wasnorm_wordpool_576.txt	LTP357	ltpFR2	11	2	ONION	977	n/a	n/a	0	0	0
506.11328125	n/a	WORD	1036520	wordpools/wasnorm_wordpool_576.txt	LTP357	ltpFR2	11	2	SUPPER	1411	n/a	n/a	0	0	0
508.8466796875	n/a	WORD	1042118	wordpools/wasnorm_wordpool_576.txt	LTP357	ltpFR2	11	2	BRAKE	166	n/a	n/a	0	0	0
511.3623046875	n/a	WORD	1047270	wordpools/wasnorm_wordpool_576.txt	LTP357	ltpFR2	11	2	CRITIC	410	n/a	n/a	0	0	0
514.07763671875	n/a	WORD	1052831	wordpools/wasnorm_wordpool_576.txt	LTP357	ltpFR2	11	2	ORCHID	982	n/a	n/a	0	0	0
516.62646484375	n/a	WORD	1058051	wordpools/wasnorm_wordpool_576.txt	LTP357	ltpFR2	11	2	MOTEL	919	n/a	n/a	0	0	0
519.15869140625	n/a	WORD	1063237	wordpools/wasnorm_wordpool_576.txt	LTP357	ltpFR2	11	2	HEADBAND	696	n/a	n/a	0	0	0
521.65673828125	n/a	WORD	1068353	wordpools/wasnorm_wordpool_576.txt	LTP357	ltpFR2	11	2	SCISSORS	1250	n/a	n/a	0	0	0
524.3388671875	n/a	WORD	1073846	wordpools/wasnorm_wordpool_576.txt	LTP357	ltpFR2	11	2	CLOCK	325	n/a	n/a	0	0	0
527.15478515625	n/a	WORD	1079613	wordpools/wasnorm_wordpool_576.txt	LTP357	ltpFR2	11	2	PAPER	1011	n/a	n/a	0	0	0
529.8525390625	n/a	WORD	1085138	wordpools/wasnorm_wordpool_576.txt	LTP357	ltpFR2	11	2	REPORT	1184	n/a	n/a	0	0	0
532.58447265625	n/a	WORD	1090733	wordpools/wasnorm_wordpool_576.txt	LTP357	ltpFR2	11	2	EGYPT	519	n/a	n/a	0	0	0
535.33349609375	n/a	WORD	1096363	wordpools/wasnorm_wordpool_576.txt	LTP357	ltpFR2	11	2	TEMPLE	1448	n/a	n/a	0	0	0
537.89892578125	n/a	WORD	1101617	wordpools/wasnorm_wordpool_576.txt	LTP357	ltpFR2	11	2	BALLOON	75	n/a	n/a	0	0	0
540.64794921875	n/a	WORD	1107247	wordpools/wasnorm_wordpool_576.txt	LTP357	ltpFR2	11	2	DASHBOARD	441	n/a	n/a	0	0	0
543.3798828125	n/a	WORD	1112842	wordpools/wasnorm_wordpool_576.txt	LTP357	ltpFR2	11	2	HORNET	718	n/a	n/a	0	0	0
545.94482421875	n/a	WORD	1118095	wordpools/wasnorm_wordpool_576.txt	LTP357	ltpFR2	11	2	CONTRACT	368	n/a	n/a	0	0	0
548.56103515625	n/a	WORD	1123453	wordpools/wasnorm_wordpool_576.txt	LTP357	ltpFR2	11	2	OZONE	996	n/a	n/a	0	0	0
551.19287109375	n/a	WORD	1128843	wordpools/wasnorm_wordpool_576.txt	LTP357	ltpFR2	11	2	CANDY	230	n/a	n/a	0	0	0
552.80859375	n/a	START	1132152	n/a	LTP357	ltpFR2	11	n/a	n/a	n/a	4	n/a	n/a	n/a	n/a
553.73779296875	n/a	DISTRACTOR	1134055	n/a	LTP357	ltpFR2	11	2	n/a	n/a	n/a	n/a	0	0	0
553.74169921875	n/a	PROB	1134063	n/a	LTP357	ltpFR2	11	n/a	n/a	n/a	4	18	6	9	3
555.49072265625	n/a	PROB	1137645	n/a	LTP357	ltpFR2	11	n/a	n/a	n/a	4	13	9	3	1
556.623046875	n/a	PROB	1139964	n/a	LTP357	ltpFR2	11	n/a	n/a	n/a	4	10	3	2	5
559.955078125	n/a	PROB	1146788	n/a	LTP357	ltpFR2	11	n/a	n/a	n/a	4	7	1	3	3
561.27099609375	n/a	PROB	1149483	n/a	LTP357	ltpFR2	11	n/a	n/a	n/a	4	14	8	3	3
562.537109375	n/a	PROB	1152076	n/a	LTP357	ltpFR2	11	n/a	n/a	n/a	4	21	5	7	9
563.85302734375	n/a	PROB	1154771	n/a	LTP357	ltpFR2	11	n/a	n/a	n/a	4	13	4	1	8
565.1689453125	n/a	PROB	1157466	n/a	LTP357	ltpFR2	11	n/a	n/a	n/a	4	15	8	1	6
566.46875	n/a	PROB	1160128	n/a	LTP357	ltpFR2	11	n/a	n/a	n/a	4	15	3	6	6
568.201171875	n/a	PROB	1163676	n/a	LTP357	ltpFR2	11	n/a	n/a	n/a	4	6	2	2	2
569.15087890625	n/a	PROB	1165621	n/a	LTP357	ltpFR2	11	n/a	n/a	n/a	4	23	8	9	6
570.60009765625	n/a	PROB	1168589	n/a	LTP357	ltpFR2	11	n/a	n/a	n/a	4	15	6	8	1
572.64892578125	n/a	PROB	1172785	n/a	LTP357	ltpFR2	11	n/a	n/a	n/a	4	11	4	6	1
573.6650390625	n/a	PROB	1174866	n/a	LTP357	ltpFR2	11	n/a	n/a	n/a	4	1	9	7	3
575.458984375	n/a	STOP	1178540	n/a	LTP357	ltpFR2	11	n/a	n/a	n/a	4	n/a	n/a	n/a	n/a
578.6630859375	n/a	REC_START	1185102	n/a	LTP357	ltpFR2	11	2	n/a	n/a	n/a	n/a	0	0	0
581.9189453125	n/a	REC_WORD	1191770	wordpools/wasnorm_wordpool_576.txt	LTP357	ltpFR2	11	2	LUNCH	849	n/a	n/a	0	0	0
583.06982421875	n/a	REC_WORD	1194127	wordpools/wasnorm_wordpool_576.txt	LTP357	ltpFR2	11	2	BLOCKADE	137	n/a	n/a	0	0	0
584.18212890625	n/a	REC_WORD	1196405	wordpools/wasnorm_wordpool_576.txt	LTP357	ltpFR2	11	2	HIGHWAY	707	n/a	n/a	0	0	0
585.63427734375	n/a	REC_WORD	1199379	wordpools/wasnorm_wordpool_576.txt	LTP357	ltpFR2	11	2	GHETTO	633	n/a	n/a	0	0	0
586.73828125	n/a	REC_WORD	1201640	wordpools/wasnorm_wordpool_576.txt	LTP357	ltpFR2	11	2	POCKET	1093	n/a	n/a	0	0	0
587.77587890625	n/a	REC_WORD	1203765	wordpools/wasnorm_wordpool_576.txt	LTP357	ltpFR2	11	2	ONION	977	n/a	n/a	0	0	0
588.8330078125	n/a	REC_WORD	1205930	wordpools/wasnorm_wordpool_576.txt	LTP357	ltpFR2	11	2	SUPPER	1411	n/a	n/a	0	0	0
590.6689453125	n/a	REC_WORD	1209690	wordpools/wasnorm_wordpool_576.txt	LTP357	ltpFR2	11	2	CRITIC	410	n/a	n/a	0	0	0
591.8701171875	n/a	REC_WORD	1212150	wordpools/wasnorm_wordpool_576.txt	LTP357	ltpFR2	11	2	BRAKE	166	n/a	n/a	0	0	0
594.19189453125	n/a	REC_WORD	1216905	wordpools/wasnorm_wordpool_576.txt	LTP357	ltpFR2	11	2	ORCHID	982	n/a	n/a	0	0	0
595.13525390625	n/a	REC_WORD	1218837	wordpools/wasnorm_wordpool_576.txt	LTP357	ltpFR2	11	2	MOTEL	919	n/a	n/a	0	0	0
596.68017578125	n/a	REC_WORD	1222001	wordpools/wasnorm_wordpool_576.txt	LTP357	ltpFR2	11	2	TEMPLE	1448	n/a	n/a	0	0	0
599.083984375	n/a	REC_WORD	1226924	wordpools/wasnorm_wordpool_576.txt	LTP357	ltpFR2	11	2	CLOCK	325	n/a	n/a	0	0	0
600.18212890625	n/a	REC_WORD	1229173	wordpools/wasnorm_wordpool_576.txt	LTP357	ltpFR2	11	2	LETTER	813	n/a	n/a	0	0	0
604.40234375	n/a	REC_WORD_VV	1237816	wordpools/wasnorm_wordpool_576.txt	LTP357	ltpFR2	11	2	<>	-1	n/a	n/a	0	0	0
605.13525390625	n/a	REC_WORD_VV	1239317	wordpools/wasnorm_wordpool_576.txt	LTP357	ltpFR2	11	2	<>	-1	n/a	n/a	0	0	0
605.9599609375	n/a	REC_WORD	1241006	wordpools/wasnorm_wordpool_576.txt	LTP357	ltpFR2	11	2	PAPER	1011	n/a	n/a	0	0	0
606.80517578125	n/a	REC_WORD	1242737	wordpools/wasnorm_wordpool_576.txt	LTP357	ltpFR2	11	2	REPORT	1184	n/a	n/a	0	0	0
608.34716796875	n/a	REC_WORD	1245895	wordpools/wasnorm_wordpool_576.txt	LTP357	ltpFR2	11	2	EGYPT	519	n/a	n/a	0	0	0
610.201171875	n/a	REC_WORD	1249692	wordpools/wasnorm_wordpool_576.txt	LTP357	ltpFR2	11	2	BALLOON	75	n/a	n/a	0	0	0
611.42041015625	n/a	REC_WORD	1252189	wordpools/wasnorm_wordpool_576.txt	LTP357	ltpFR2	11	2	DASHBOARD	441	n/a	n/a	0	0	0
669.11767578125	n/a	WORD	1370353	wordpools/wasnorm_wordpool_576.txt	LTP357	ltpFR2	11	3	ACTOR	5	n/a	n/a	0	0	0
671.61669921875	n/a	WORD	1375471	wordpools/wasnorm_wordpool_576.txt	LTP357	ltpFR2	11	3	BEAST	108	n/a	n/a	0	0	0
674.3154296875	n/a	WORD	1380998	wordpools/wasnorm_wordpool_576.txt	LTP357	ltpFR2	11	3	HUMAN	726	n/a	n/a	0	0	0
677.064453125	n/a	WORD	1386628	wordpools/wasnorm_wordpool_576.txt	LTP357	ltpFR2	11	3	LETTUCE	814	n/a	n/a	0	0	0
679.52978515625	n/a	WORD	1391677	wordpools/wasnorm_wordpool_576.txt	LTP357	ltpFR2	11	3	BATHTUB	100	n/a	n/a	0	0	0
682.0615234375	n/a	WORD	1396862	wordpools/wasnorm_wordpool_576.txt	LTP357	ltpFR2	11	3	SUBWAY	1400	n/a	n/a	0	0	0
684.52783203125	n/a	WORD	1401913	wordpools/wasnorm_wordpool_576.txt	LTP357	ltpFR2	11	3	MASK	876	n/a	n/a	0	0	0
687.15966796875	n/a	WORD	1407303	wordpools/wasnorm_wordpool_576.txt	LTP357	ltpFR2	11	3	CELLAR	267	n/a	n/a	0	0	0
689.62451171875	n/a	WORD	1412351	wordpools/wasnorm_wordpool_576.txt	LTP357	ltpFR2	11	3	BUBBLE	183	n/a	n/a	0	0	0
692.43994140625	n/a	WORD	1418117	wordpools/wasnorm_wordpool_576.txt	LTP357	ltpFR2	11	3	PILOT	1070	n/a	n/a	0	0	0
694.93896484375	n/a	WORD	1423235	wordpools/wasnorm_wordpool_576.txt	LTP357	ltpFR2	11	3	TREAT	1501	n/a	n/a	0	0	0
697.68798828125	n/a	WORD	1428865	wordpools/wasnorm_wordpool_576.txt	LTP357	ltpFR2	11	3	APPLE	33	n/a	n/a	0	0	0
700.36962890625	n/a	WORD	1434357	wordpools/wasnorm_wordpool_576.txt	LTP357	ltpFR2	11	3	FIREPLACE	570	n/a	n/a	0	0	0
703.11669921875	n/a	WORD	1439983	wordpools/wasnorm_wordpool_576.txt	LTP357	ltpFR2	11	3	POSTAGE	1113	n/a	n/a	0	0	0
705.7998046875	n/a	WORD	1445478	wordpools/wasnorm_wordpool_576.txt	LTP357	ltpFR2	11	3	PACKAGE	997	n/a	n/a	0	0	0
708.431640625	n/a	WORD	1450868	wordpools/wasnorm_wordpool_576.txt	LTP357	ltpFR2	11	3	BURGLAR	200	n/a	n/a	0	0	0
711.1298828125	n/a	WORD	1456394	wordpools/wasnorm_wordpool_576.txt	LTP357	ltpFR2	11	3	PASSAGE	1019	n/a	n/a	0	0	0
713.69677734375	n/a	WORD	1461651	wordpools/wasnorm_wordpool_576.txt	LTP357	ltpFR2	11	3	POISON	1096	n/a	n/a	0	0	0
716.52783203125	n/a	WORD	1467449	wordpools/wasnorm_wordpool_576.txt	LTP357	ltpFR2	11	3	COBRA	336	n/a	n/a	0	0	0
718.9599609375	n/a	WORD	1472430	wordpools/wasnorm_wordpool_576.txt	LTP357	ltpFR2	11	3	ULCER	1533	n/a	n/a	0	0	0
721.54296875	n/a	WORD	1477720	wordpools/wasnorm_wordpool_576.txt	LTP357	ltpFR2	11	3	BODY	145	n/a	n/a	0	0	0
724.10693359375	n/a	WORD	1482971	wordpools/wasnorm_wordpool_576.txt	LTP357	ltpFR2	11	3	FIREMAN	569	n/a	n/a	0	0	0
726.89013671875	n/a	WORD	1488671	wordpools/wasnorm_wordpool_576.txt	LTP357	ltpFR2	11	3	BLACKBOARD	133	n/a	n/a	0	0	0
729.68896484375	n/a	WORD	1494403	wordpools/wasnorm_wordpool_576.txt	LTP357	ltpFR2	11	3	SOFTBALL	1343	n/a	n/a	0	0	0
731.30517578125	n/a	START	1497713	n/a	LTP357	ltpFR2	11	n/a	n/a	n/a	5	n/a	n/a	n/a	n/a
732.451171875	n/a	DISTRACTOR	1500060	n/a	LTP357	ltpFR2	11	3	n/a	n/a	n/a	n/a	0	0	0
732.4541015625	n/a	PROB	1500066	n/a	LTP357	ltpFR2	11	n/a	n/a	n/a	5	16	5	8	3
734.0361328125	n/a	PROB	1503306	n/a	LTP357	ltpFR2	11	n/a	n/a	n/a	5	11	6	3	2
735.31884765625	n/a	PROB	1505933	n/a	LTP357	ltpFR2	11	n/a	n/a	n/a	5	25	8	8	9
736.63525390625	n/a	PROB	1508629	n/a	LTP357	ltpFR2	11	n/a	n/a	n/a	5	21	9	3	9
739.10009765625	n/a	PROB	1513677	n/a	LTP357	ltpFR2	11	n/a	n/a	n/a	5	20	4	8	8
740.64990234375	n/a	PROB	1516851	n/a	LTP357	ltpFR2	11	n/a	n/a	n/a	5	17	5	6	6
742.06591796875	n/a	PROB	1519751	n/a	LTP357	ltpFR2	11	n/a	n/a	n/a	5	15	3	8	4
743.34814453125	n/a	PROB	1522377	n/a	LTP357	ltpFR2	11	n/a	n/a	n/a	5	23	7	7	9
745.18115234375	n/a	PROB	1526131	n/a	LTP357	ltpFR2	11	n/a	n/a	n/a	5	19	6	8	5
746.54736328125	n/a	PROB	1528929	n/a	LTP357	ltpFR2	11	n/a	n/a	n/a	5	13	3	6	4
748.0791015625	n/a	PROB	1532066	n/a	LTP357	ltpFR2	11	n/a	n/a	n/a	5	10	2	5	3
749.6953125	n/a	PROB	1535376	n/a	LTP357	ltpFR2	11	n/a	n/a	n/a	5	10	7	2	1
751.361328125	n/a	PROB	1538788	n/a	LTP357	ltpFR2	11	n/a	n/a	n/a	5	11	6	3	1
752.76025390625	n/a	PROB	1541653	n/a	LTP357	ltpFR2	11	n/a	n/a	n/a	5	12	3	4	5
755.251953125	n/a	STOP	1546756	n/a	LTP357	ltpFR2	11	n/a	n/a	n/a	5	n/a	n/a	n/a	n/a
757.1591796875	n/a	REC_START	1550662	n/a	LTP357	ltpFR2	11	3	n/a	n/a	n/a	n/a	0	0	0
759.88525390625	n/a	REC_WORD	1556245	wordpools/wasnorm_wordpool_576.txt	LTP357	ltpFR2	11	3	ACTOR	5	n/a	n/a	0	0	0
761.17626953125	n/a	REC_WORD	1558889	wordpools/wasnorm_wordpool_576.txt	LTP357	ltpFR2	11	3	BEAST	108	n/a	n/a	0	0	0
762.326171875	n/a	REC_WORD	1561244	wordpools/wasnorm_wordpool_576.txt	LTP357	ltpFR2	11	3	HUMAN	726	n/a	n/a	0	0	0
764.25341796875	n/a	REC_WORD	1565191	wordpools/wasnorm_wordpool_576.txt	LTP357	ltpFR2	11	3	LETTUCE	814	n/a	n/a	0	0	0
765.8134765625	n/a	REC_WORD	1568386	wordpools/wasnorm_wordpool_576.txt	LTP357	ltpFR2	11	3	BATHTUB	100	n/a	n/a	0	0	0
767.46337890625	n/a	REC_WORD	1571765	wordpools/wasnorm_wordpool_576.txt	LTP357	ltpFR2	11	3	SUBWAY	1400	n/a	n/a	0	0	0
768.982421875	n/a	REC_WORD	1574876	wordpools/wasnorm_wordpool_576.txt	LTP357	ltpFR2	11	3	PASSAGE	1019	n/a	n/a	0	0	0
772.12451171875	n/a	REC_WORD	1581311	wordpools/wasnorm_wordpool_576.txt	LTP357	ltpFR2	11	3	PACKAGE	997	n/a	n/a	0	0	0
773.49951171875	n/a	REC_WORD	1584127	wordpools/wasnorm_wordpool_576.txt	LTP357	ltpFR2	11	3	POSTAGE	1113	n/a	n/a	0	0	0
779.45947265625	n/a	REC_WORD	1596333	wordpools/wasnorm_wordpool_576.txt	LTP357	ltpFR2	11	3	APPLE	33	n/a	n/a	0	0	0
780.4775390625	n/a	REC_WORD	1598418	wordpools/wasnorm_wordpool_576.txt	LTP357	ltpFR2	11	3	MASK	876	n/a	n/a	0	0	0
781.58544921875	n/a	REC_WORD	1600687	wordpools/wasnorm_wordpool_576.txt	LTP357	ltpFR2	11	3	CELLAR	267	n/a	n/a	0	0	0
784.2021484375	n/a	REC_WORD	1606046	wordpools/wasnorm_wordpool_576.txt	LTP357	ltpFR2	11	3	PILOT	1070	n/a	n/a	0	0	0
787.2412109375	n/a	REC_WORD	1612270	wordpools/wasnorm_wordpool_576.txt	LTP357	ltpFR2	11	3	ULCER	1533	n/a	n/a	0	0	0
788.1591796875	n/a	REC_WORD	1614150	wordpools/wasnorm_wordpool_576.txt	LTP357	ltpFR2	11	3	BODY	145	n/a	n/a	0	0	0
789.2802734375	n/a	REC_WORD	1616446	wordpools/wasnorm_wordpool_576.txt	LTP357	ltpFR2	11	3	POISON	1096	n/a	n/a	0	0	0
796.8583984375	n/a	REC_WORD	1631966	wordpools/wasnorm_wordpool_576.txt	LTP357	ltpFR2	11	3	FIREMAN	569	n/a	n/a	0	0	0
847.59765625	n/a	DISTRACTOR	1735880	n/a	LTP357	ltpFR2	11	4	n/a	n/a	n/a	n/a	0	0	0
847.59765625	n/a	START	1735880	n/a	LTP357	ltpFR2	11	n/a	n/a	n/a	6	n/a	n/a	n/a	n/a
847.61376953125	n/a	PROB	1735913	n/a	LTP357	ltpFR2	11	n/a	n/a	n/a	6	23	9	9	5
849.32958984375	n/a	PROB	1739427	n/a	LTP357	ltpFR2	11	n/a	n/a	n/a	6	10	2	5	3
850.57958984375	n/a	PROB	1741987	n/a	LTP357	ltpFR2	11	n/a	n/a	n/a	6	15	3	8	4
852.927734375	n/a	PROB	1746796	n/a	LTP357	ltpFR2	11	n/a	n/a	n/a	6	12	6	5	1
854.2607421875	n/a	PROB	1749526	n/a	LTP357	ltpFR2	11	n/a	n/a	n/a	6	13	3	6	4
855.56005859375	n/a	PROB	1752187	n/a	LTP357	ltpFR2	11	n/a	n/a	n/a	6	18	2	8	8
856.82568359375	n/a	PROB	1754779	n/a	LTP357	ltpFR2	11	n/a	n/a	n/a	6	17	3	6	8
859.0419921875	n/a	PROB	1759318	n/a	LTP357	ltpFR2	11	n/a	n/a	n/a	6	15	9	5	1
860.5078125	n/a	PROB	1762320	n/a	LTP357	ltpFR2	11	n/a	n/a	n/a	6	12	4	7	1
862.2900390625	n/a	PROB	1765970	n/a	LTP357	ltpFR2	11	n/a	n/a	n/a	6	14	1	5	8
863.73974609375	n/a	PROB	1768939	n/a	LTP357	ltpFR2	11	n/a	n/a	n/a	6	12	4	5	3
865.23876953125	n/a	PROB	1772009	n/a	LTP357	ltpFR2	11	n/a	n/a	n/a	6	20	8	8	4
866.671875	n/a	PROB	1774944	n/a	LTP357	ltpFR2	11	n/a	n/a	n/a	6	20	7	7	6
868.0537109375	n/a	PROB	1777774	n/a	LTP357	ltpFR2	11	n/a	n/a	n/a	6	19	8	2	9
869.38671875	n/a	PROB	1780504	n/a	LTP357	ltpFR2	11	n/a	n/a	n/a	6	16	5	4	7
870.6689453125	n/a	STOP	1783130	n/a	LTP357	ltpFR2	11	n/a	n/a	n/a	6	n/a	n/a	n/a	n/a
872.65185546875	n/a	WORD	1787191	wordpools/wasnorm_wordpool_576.txt	LTP357	ltpFR2	11	4	PIMPLE	1071	n/a	n/a	0	0	0
875.083984375	n/a	WORD	1792172	wordpools/wasnorm_wordpool_576.txt	LTP357	ltpFR2	11	4	STAKE	1368	n/a	n/a	0	0	0
877.64892578125	n/a	WORD	1797425	wordpools/wasnorm_wordpool_576.txt	LTP357	ltpFR2	11	4	TRIBE	1505	n/a	n/a	0	0	0
880.39794921875	n/a	WORD	1803055	wordpools/wasnorm_wordpool_576.txt	LTP357	ltpFR2	11	4	LADDER	793	n/a	n/a	0	0	0
882.9130859375	n/a	WORD	1808206	wordpools/wasnorm_wordpool_576.txt	LTP357	ltpFR2	11	4	CARROT	249	n/a	n/a	0	0	0
885.544921875	n/a	WORD	1813596	wordpools/wasnorm_wordpool_576.txt	LTP357	ltpFR2	11	4	SODA	1341	n/a	n/a	0	0	0
888.17724609375	n/a	WORD	1818987	wordpools/wasnorm_wordpool_576.txt	LTP357	ltpFR2	11	4	FRECKLE	602	n/a	n/a	0	0	0
890.77587890625	n/a	WORD	1824309	wordpools/wasnorm_wordpool_576.txt	LTP357	ltpFR2	11	4	PARTNER	1017	n/a	n/a	0	0	0
893.22509765625	n/a	WORD	1829325	wordpools/wasnorm_wordpool_576.txt	LTP357	ltpFR2	11	4	CAFE	216	n/a	n/a	0	0	0
895.97412109375	n/a	WORD	1834955	wordpools/wasnorm_wordpool_576.txt	LTP357	ltpFR2	11	4	RUG	1215	n/a	n/a	0	0	0
898.55615234375	n/a	WORD	1840243	wordpools/wasnorm_wordpool_576.txt	LTP357	ltpFR2	11	4	YARN	1631	n/a	n/a	0	0	0
901.37109375	n/a	WORD	1846008	wordpools/wasnorm_wordpool_576.txt	LTP357	ltpFR2	11	4	THIEF	1456	n/a	n/a	0	0	0
903.8701171875	n/a	WORD	1851126	wordpools/wasnorm_wordpool_576.txt	LTP357	ltpFR2	11	4	SUSPECT	1415	n/a	n/a	0	0	0
906.3349609375	n/a	WORD	1856174	wordpools/wasnorm_wordpool_576.txt	LTP357	ltpFR2	11	4	HUSBAND	728	n/a	n/a	0	0	0
909.083984375	n/a	WORD	1861804	wordpools/wasnorm_wordpool_576.txt	LTP357	ltpFR2	11	4	FLASHLIGHT	575	n/a	n/a	0	0	0
911.88232421875	n/a	WORD	1867535	wordpools/wasnorm_wordpool_576.txt	LTP357	ltpFR2	11	4	FLASK	576	n/a	n/a	0	0	0
914.43115234375	n/a	WORD	1872755	wordpools/wasnorm_wordpool_576.txt	LTP357	ltpFR2	11	4	BUTCHER	203	n/a	n/a	0	0	0
917.24609375	n/a	WORD	1878520	wordpools/wasnorm_wordpool_576.txt	LTP357	ltpFR2	11	4	MEAT	883	n/a	n/a	0	0	0
919.828125	n/a	WORD	1883808	wordpools/wasnorm_wordpool_576.txt	LTP357	ltpFR2	11	4	JEANS	752	n/a	n/a	0	0	0
922.34423828125	n/a	WORD	1888961	wordpools/wasnorm_wordpool_576.txt	LTP357	ltpFR2	11	4	PRINCESS	1125	n/a	n/a	0	0	0
925.1083984375	n/a	WORD	1894622	wordpools/wasnorm_wordpool_576.txt	LTP357	ltpFR2	11	4	COCOON	339	n/a	n/a	0	0	0
927.89111328125	n/a	WORD	1900321	wordpools/wasnorm_wordpool_576.txt	LTP357	ltpFR2	11	4	PLUTO	1092	n/a	n/a	0	0	0
930.62353515625	n/a	WORD	1905917	wordpools/wasnorm_wordpool_576.txt	LTP357	ltpFR2	11	4	ZIPPER	1636	n/a	n/a	0	0	0
933.30517578125	n/a	WORD	1911409	wordpools/wasnorm_wordpool_576.txt	LTP357	ltpFR2	11	4	SPONGE	1355	n/a	n/a	0	0	0
934.92138671875	n/a	START	1914719	n/a	LTP357	ltpFR2	11	n/a	n/a	n/a	7	n/a	n/a	n/a	n/a
935.96337890625	n/a	DISTRACTOR	1916853	n/a	LTP357	ltpFR2	11	4	n/a	n/a	n/a	n/a	0	0	0
935.97021484375	n/a	PROB	1916867	n/a	LTP357	ltpFR2	11	n/a	n/a	n/a	7	14	3	3	8
937.37060546875	n/a	PROB	1919735	n/a	LTP357	ltpFR2	11	n/a	n/a	n/a	7	19	4	7	8
939.11865234375	n/a	PROB	1923315	n/a	LTP357	ltpFR2	11	n/a	n/a	n/a	7	13	6	5	2
940.45263671875	n/a	PROB	1926047	n/a	LTP357	ltpFR2	11	n/a	n/a	n/a	7	23	7	9	8
942.53466796875	n/a	PROB	1930311	n/a	LTP357	ltpFR2	11	n/a	n/a	n/a	7	14	3	9	2
944.49951171875	n/a	PROB	1934335	n/a	LTP357	ltpFR2	11	n/a	n/a	n/a	7	12	3	8	1
945.9326171875	n/a	PROB	1937270	n/a	LTP357	ltpFR2	11	n/a	n/a	n/a	7	16	6	3	7
947.1982421875	n/a	PROB	1939862	n/a	LTP357	ltpFR2	11	n/a	n/a	n/a	7	18	7	7	4
948.3984375	n/a	PROB	1942320	n/a	LTP357	ltpFR2	11	n/a	n/a	n/a	7	19	4	7	8
949.7802734375	n/a	PROB	1945150	n/a	LTP357	ltpFR2	11	n/a	n/a	n/a	7	15	1	6	8
951.5966796875	n/a	PROB	1948870	n/a	LTP357	ltpFR2	11	n/a	n/a	n/a	7	21	9	8	4
953.91259765625	n/a	PROB	1953613	n/a	LTP357	ltpFR2	11	n/a	n/a	n/a	7	17	5	5	7
955.09375	n/a	PROB	1956032	n/a	LTP357	ltpFR2	11	n/a	n/a	n/a	7	20	6	7	7
956.66064453125	n/a	PROB	1959241	n/a	LTP357	ltpFR2	11	n/a	n/a	n/a	7	12	2	4	6
957.78173828125	n/a	STOP	1961537	n/a	LTP357	ltpFR2	11	n/a	n/a	n/a	7	n/a	n/a	n/a	n/a
960.8427734375	n/a	REC_START	1967806	n/a	LTP357	ltpFR2	11	4	n/a	n/a	n/a	n/a	0	0	0
964.2158203125	n/a	REC_WORD	1974714	wordpools/wasnorm_wordpool_576.txt	LTP357	ltpFR2	11	4	BUTCHER	203	n/a	n/a	0	0	0
965.49462890625	n/a	REC_WORD	1977333	wordpools/wasnorm_wordpool_576.txt	LTP357	ltpFR2	11	4	MEAT	883	n/a	n/a	0	0	0
969.52978515625	n/a	REC_WORD	1985597	wordpools/wasnorm_wordpool_576.txt	LTP357	ltpFR2	11	4	TRIBE	1505	n/a	n/a	0	0	0
970.58056640625	n/a	REC_WORD	1987749	wordpools/wasnorm_wordpool_576.txt	LTP357	ltpFR2	11	4	STAKE	1368	n/a	n/a	0	0	0
972.36572265625	n/a	REC_WORD	1991405	wordpools/wasnorm_wordpool_576.txt	LTP357	ltpFR2	11	4	CARROT	249	n/a	n/a	0	0	0
973.3017578125	n/a	REC_WORD	1993322	wordpools/wasnorm_wordpool_576.txt	LTP357	ltpFR2	11	4	SODA	1341	n/a	n/a	0	0	0
986.1328125	n/a	REC_WORD	2019600	wordpools/wasnorm_wordpool_576.txt	LTP357	ltpFR2	11	4	THIEF	1456	n/a	n/a	0	0	0
987.1337890625	n/a	REC_WORD	2021650	wordpools/wasnorm_wordpool_576.txt	LTP357	ltpFR2	11	4	SUSPECT	1415	n/a	n/a	0	0	0
988.3046875	n/a	REC_WORD	2024048	wordpools/wasnorm_wordpool_576.txt	LTP357	ltpFR2	11	4	HUSBAND	728	n/a	n/a	0	0	0
999.39794921875	n/a	REC_WORD	2046767	wordpools/wasnorm_wordpool_576.txt	LTP357	ltpFR2	11	4	PARTNER	1017	n/a	n/a	0	0	0
1000.509765625	n/a	REC_WORD	2049044	wordpools/wasnorm_wordpool_576.txt	LTP357	ltpFR2	11	4	RUG	1215	n/a	n/a	0	0	0
1001.52197265625	n/a	REC_WORD	2051117	wordpools/wasnorm_wordpool_576.txt	LTP357	ltpFR2	11	4	YARN	1631	n/a	n/a	0	0	0
1061.04345703125	n/a	WORD	2173017	wordpools/wasnorm_wordpool_576.txt	LTP357	ltpFR2	11	5	FRUIT	610	n/a	n/a	0	0	0
1063.67529296875	n/a	WORD	2178407	wordpools/wasnorm_wordpool_576.txt	LTP357	ltpFR2	11	5	MACHINE	852	n/a	n/a	0	0	0
1066.4404296875	n/a	WORD	2184070	wordpools/wasnorm_wordpool_576.txt	LTP357	ltpFR2	11	5	FILM	565	n/a	n/a	0	0	0
1069.2724609375	n/a	WORD	2189870	wordpools/wasnorm_wordpool_576.txt	LTP357	ltpFR2	11	5	FLUTE	585	n/a	n/a	0	0	0
1071.787109375	n/a	WORD	2195020	wordpools/wasnorm_wordpool_576.txt	LTP357	ltpFR2	11	5	BISON	131	n/a	n/a	0	0	0
1074.486328125	n/a	WORD	2200548	wordpools/wasnorm_wordpool_576.txt	LTP357	ltpFR2	11	5	OX	994	n/a	n/a	0	0	0
1077.1005859375	n/a	WORD	2205902	wordpools/wasnorm_wordpool_576.txt	LTP357	ltpFR2	11	5	TORTOISE	1486	n/a	n/a	0	0	0
1079.6171875	n/a	WORD	2211056	wordpools/wasnorm_wordpool_576.txt	LTP357	ltpFR2	11	5	HAND	683	n/a	n/a	0	0	0
1082.4326171875	n/a	WORD	2216822	wordpools/wasnorm_wordpool_576.txt	LTP357	ltpFR2	11	5	SUITCASE	1403	n/a	n/a	0	0	0
1085.09619140625	n/a	WORD	2222277	wordpools/wasnorm_wordpool_576.txt	LTP357	ltpFR2	11	5	COOK	372	n/a	n/a	0	0	0
1087.896484375	n/a	WORD	2228012	wordpools/wasnorm_wordpool_576.txt	LTP357	ltpFR2	11	5	GALLON	618	n/a	n/a	0	0	0
1090.67822265625	n/a	WORD	2233709	wordpools/wasnorm_wordpool_576.txt	LTP357	ltpFR2	11	5	STOVE	1388	n/a	n/a	0	0	0
1093.16064453125	n/a	WORD	2238793	wordpools/wasnorm_wordpool_576.txt	LTP357	ltpFR2	11	5	SKILLET	1317	n/a	n/a	0	0	0
1095.92529296875	n/a	WORD	2244455	wordpools/wasnorm_wordpool_576.txt	LTP357	ltpFR2	11	5	MARKET	871	n/a	n/a	0	0	0
1098.74169921875	n/a	WORD	2250223	wordpools/wasnorm_wordpool_576.txt	LTP357	ltpFR2	11	5	SHORTCAKE	1292	n/a	n/a	0	0	0
1101.48974609375	n/a	WORD	2255851	wordpools/wasnorm_wordpool_576.txt	LTP357	ltpFR2	11	5	PUDDLE	1140	n/a	n/a	0	0	0
1104.3046875	n/a	WORD	2261616	wordpools/wasnorm_wordpool_576.txt	LTP357	ltpFR2	11	5	DRILL	497	n/a	n/a	0	0	0
1106.970703125	n/a	WORD	2267076	wordpools/wasnorm_wordpool_576.txt	LTP357	ltpFR2	11	5	NAPKIN	937	n/a	n/a	0	0	0
1109.7197265625	n/a	WORD	2272706	wordpools/wasnorm_wordpool_576.txt	LTP357	ltpFR2	11	5	DONKEY	484	n/a	n/a	0	0	0
1112.33447265625	n/a	WORD	2278061	wordpools/wasnorm_wordpool_576.txt	LTP357	ltpFR2	11	5	UNCLE	1536	n/a	n/a	0	0	0
1114.849609375	n/a	WORD	2283212	wordpools/wasnorm_wordpool_576.txt	LTP357	ltpFR2	11	5	MARSH	874	n/a	n/a	0	0	0
1117.431640625	n/a	WORD	2288500	wordpools/wasnorm_wordpool_576.txt	LTP357	ltpFR2	11	5	GRILL	661	n/a	n/a	0	0	0
1119.8974609375	n/a	WORD	2293550	wordpools/wasnorm_wordpool_576.txt	LTP357	ltpFR2	11	5	HOSTESS	723	n/a	n/a	0	0	0
1122.57958984375	n/a	WORD	2299043	wordpools/wasnorm_wordpool_576.txt	LTP357	ltpFR2	11	5	ANKLE	24	n/a	n/a	0	0	0
1124.19580078125	n/a	START	2302353	n/a	LTP357	ltpFR2	11	n/a	n/a	n/a	8	n/a	n/a	n/a	n/a
1125.11962890625	n/a	DISTRACTOR	2304245	n/a	LTP357	ltpFR2	11	5	n/a	n/a	n/a	n/a	0	0	0
1125.12646484375	n/a	PROB	2304259	n/a	LTP357	ltpFR2	11	n/a	n/a	n/a	8	15	1	9	5
1126.427734375	n/a	PROB	2306924	n/a	LTP357	ltpFR2	11	n/a	n/a	n/a	8	18	6	3	9
1127.61083984375	n/a	PROB	2309347	n/a	LTP357	ltpFR2	11	n/a	n/a	n/a	8	19	9	2	8
1129.90869140625	n/a	PROB	2314053	n/a	LTP357	ltpFR2	11	n/a	n/a	n/a	8	20	5	7	8
1131.35888671875	n/a	PROB	2317023	n/a	LTP357	ltpFR2	11	n/a	n/a	n/a	8	10	5	3	3
1133.04052734375	n/a	PROB	2320467	n/a	LTP357	ltpFR2	11	n/a	n/a	n/a	8	10	2	1	7
1134.70654296875	n/a	PROB	2323879	n/a	LTP357	ltpFR2	11	n/a	n/a	n/a	8	16	2	7	7
1136.23974609375	n/a	PROB	2327019	n/a	LTP357	ltpFR2	11	n/a	n/a	n/a	8	20	7	6	7
1137.60595703125	n/a	PROB	2329817	n/a	LTP357	ltpFR2	11	n/a	n/a	n/a	8	4	1	1	2
1138.587890625	n/a	PROB	2331828	n/a	LTP357	ltpFR2	11	n/a	n/a	n/a	8	22	9	9	4
1140.78662109375	n/a	PROB	2336331	n/a	LTP357	ltpFR2	11	n/a	n/a	n/a	8	15	3	7	5
1145.86767578125	n/a	PROB	2346737	n/a	LTP357	ltpFR2	11	n/a	n/a	n/a	8	19	9	5	5
1147.2626953125	n/a	STOP	2349594	n/a	LTP357	ltpFR2	11	n/a	n/a	n/a	8	n/a	n/a	n/a	n/a
1150.03271484375	n/a	REC_START	2355267	n/a	LTP357	ltpFR2	11	5	n/a	n/a	n/a	n/a	0	0	0
1152.53564453125	n/a	REC_WORD	2360393	wordpools/wasnorm_wordpool_576.txt	LTP357	ltpFR2	11	5	ANKLE	24	n/a	n/a	0	0	0
1153.8408203125	n/a	REC_WORD	2363066	wordpools/wasnorm_wordpool_576.txt	LTP357	ltpFR2	11	5	HAND	683	n/a	n/a	0	0	0
1154.77880859375	n/a	REC_WORD	2364987	wordpools/wasnorm_wordpool_576.txt	LTP357	ltpFR2	11	5	SUITCASE	1403	n/a	n/a	0	0	0
1156.81591796875	n/a	REC_WORD	2369159	wordpools/wasnorm_wordpool_576.txt	LTP357	ltpFR2	11	5	COOK	372	n/a	n/a	0	0	0
1157.4716796875	n/a	REC_WORD	2370502	wordpools/wasnorm_wordpool_576.txt	LTP357	ltpFR2	11	5	STOVE	1388	n/a	n/a	0	0	0
1158.68505859375	n/a	REC_WORD	2372987	wordpools/wasnorm_wordpool_576.txt	LTP357	ltpFR2	11	5	GALLON	618	n/a	n/a	0	0	0
1159.45703125	n/a	REC_WORD	2374568	wordpools/wasnorm_wordpool_576.txt	LTP357	ltpFR2	11	5	SKILLET	1317	n/a	n/a	0	0	0
1160.82275390625	n/a	REC_WORD	2377365	wordpools/wasnorm_wordpool_576.txt	LTP357	ltpFR2	11	5	GRILL	661	n/a	n/a	0	0	0
1161.81884765625	n/a	REC_WORD	2379405	wordpools/wasnorm_wordpool_576.txt	LTP357	ltpFR2	11	5	HOSTESS	723	n/a	n/a	0	0	0
1162.96875	n/a	REC_WORD	2381760	wordpools/wasnorm_wordpool_576.txt	LTP357	ltpFR2	11	5	NAPKIN	937	n/a	n/a	0	0	0
1166.5537109375	n/a	REC_WORD	2389102	wordpools/wasnorm_wordpool_576.txt	LTP357	ltpFR2	11	5	DRILL	497	n/a	n/a	0	0	0
1181.18798828125	n/a	REC_WORD	2419073	wordpools/wasnorm_wordpool_576.txt	LTP357	ltpFR2	11	5	MARKET	871	n/a	n/a	0	0	0
1183.35791015625	n/a	REC_WORD	2423517	wordpools/wasnorm_wordpool_576.txt	LTP357	ltpFR2	11	5	SHORTCAKE	1292	n/a	n/a	0	0	0
1240.48828125	n/a	DISTRACTOR	2540520	n/a	LTP357	ltpFR2	11	6	n/a	n/a	n/a	n/a	0	0	0
1240.48828125	n/a	START	2540520	n/a	LTP357	ltpFR2	11	n/a	n/a	n/a	9	n/a	n/a	n/a	n/a
1240.50537109375	n/a	PROB	2540555	n/a	LTP357	ltpFR2	11	n/a	n/a	n/a	9	13	5	2	6
1241.9375	n/a	PROB	2543488	n/a	LTP357	ltpFR2	11	n/a	n/a	n/a	9	11	1	4	6
1243.1025390625	n/a	PROB	2545874	n/a	LTP357	ltpFR2	11	n/a	n/a	n/a	9	11	8	1	2
1244.33642578125	n/a	PROB	2548401	n/a	LTP357	ltpFR2	11	n/a	n/a	n/a	9	22	4	9	9
1245.70263671875	n/a	PROB	2551199	n/a	LTP357	ltpFR2	11	n/a	n/a	n/a	9	14	5	6	3
1247.25146484375	n/a	PROB	2554371	n/a	LTP357	ltpFR2	11	n/a	n/a	n/a	9	12	1	3	8
1248.41748046875	n/a	PROB	2556759	n/a	LTP357	ltpFR2	11	n/a	n/a	n/a	9	20	8	4	8
1250.11572265625	n/a	PROB	2560237	n/a	LTP357	ltpFR2	11	n/a	n/a	n/a	9	13	3	8	2
1251.49951171875	n/a	PROB	2563071	n/a	LTP357	ltpFR2	11	n/a	n/a	n/a	9	17	7	2	8
1252.8486328125	n/a	PROB	2565834	n/a	LTP357	ltpFR2	11	n/a	n/a	n/a	9	14	5	5	4
1253.931640625	n/a	PROB	2568052	n/a	LTP357	ltpFR2	11	n/a	n/a	n/a	9	6	2	2	2
1254.86474609375	n/a	PROB	2569963	n/a	LTP357	ltpFR2	11	n/a	n/a	n/a	9	12	4	1	7
1256.1474609375	n/a	PROB	2572590	n/a	LTP357	ltpFR2	11	n/a	n/a	n/a	9	15	1	6	8
1257.8134765625	n/a	PROB	2576002	n/a	LTP357	ltpFR2	11	n/a	n/a	n/a	9	11	8	2	1
1258.87939453125	n/a	PROB	2578185	n/a	LTP357	ltpFR2	11	n/a	n/a	n/a	9	17	4	8	5
1260.21142578125	n/a	PROB	2580913	n/a	LTP357	ltpFR2	11	n/a	n/a	n/a	9	15	7	5	3
1261.57763671875	n/a	PROB	2583711	n/a	LTP357	ltpFR2	11	n/a	n/a	n/a	9	17	6	8	3
1264.48876953125	n/a	STOP	2589673	n/a	LTP357	ltpFR2	11	n/a	n/a	n/a	9	n/a	n/a	n/a	n/a
1265.5927734375	n/a	WORD	2591934	wordpools/wasnorm_wordpool_576.txt	LTP357	ltpFR2	11	6	SERVER	1272	n/a	n/a	0	0	0
1268.07470703125	n/a	WORD	2597017	wordpools/wasnorm_wordpool_576.txt	LTP357	ltpFR2	11	6	PECAN	1036	n/a	n/a	0	0	0
1270.8564453125	n/a	WORD	2602714	wordpools/wasnorm_wordpool_576.txt	LTP357	ltpFR2	11	6	ARM	38	n/a	n/a	0	0	0
1273.4384765625	n/a	WORD	2608002	wordpools/wasnorm_wordpool_576.txt	LTP357	ltpFR2	11	6	CRUTCH	417	n/a	n/a	0	0	0
1276.0546875	n/a	WORD	2613360	wordpools/wasnorm_wordpool_576.txt	LTP357	ltpFR2	11	6	PLAZA	1088	n/a	n/a	0	0	0
1278.552734375	n/a	WORD	2618476	wordpools/wasnorm_wordpool_576.txt	LTP357	ltpFR2	11	6	NIGHTGOWN	953	n/a	n/a	0	0	0
1281.08447265625	n/a	WORD	2623661	wordpools/wasnorm_wordpool_576.txt	LTP357	ltpFR2	11	6	COSTUME	383	n/a	n/a	0	0	0
1283.81689453125	n/a	WORD	2629257	wordpools/wasnorm_wordpool_576.txt	LTP357	ltpFR2	11	6	WARDROBE	1587	n/a	n/a	0	0	0
1286.64892578125	n/a	WORD	2635057	wordpools/wasnorm_wordpool_576.txt	LTP357	ltpFR2	11	6	TRANSPLANT	1496	n/a	n/a	0	0	0
1289.1298828125	n/a	WORD	2640138	wordpools/wasnorm_wordpool_576.txt	LTP357	ltpFR2	11	6	RIVER	1194	n/a	n/a	0	0	0
1291.7626953125	n/a	WORD	2645530	wordpools/wasnorm_wordpool_576.txt	LTP357	ltpFR2	11	6	MARINE	869	n/a	n/a	0	0	0
1294.52880859375	n/a	WORD	2651195	wordpools/wasnorm_wordpool_576.txt	LTP357	ltpFR2	11	6	PRINCE	1124	n/a	n/a	0	0	0
1297.2939453125	n/a	WORD	2656858	wordpools/wasnorm_wordpool_576.txt	LTP357	ltpFR2	11	6	WASHER	1592	n/a	n/a	0	0	0
1299.759765625	n/a	WORD	2661908	wordpools/wasnorm_wordpool_576.txt	LTP357	ltpFR2	11	6	COIN	343	n/a	n/a	0	0	0
1302.2919921875	n/a	WORD	2667094	wordpools/wasnorm_wordpool_576.txt	LTP357	ltpFR2	11	6	FLOWER	584	n/a	n/a	0	0	0
1304.98974609375	n/a	WORD	2672619	wordpools/wasnorm_wordpool_576.txt	LTP357	ltpFR2	11	6	DUSTPAN	509	n/a	n/a	0	0	0
1307.65576171875	n/a	WORD	2678079	wordpools/wasnorm_wordpool_576.txt	LTP357	ltpFR2	11	6	DRINK	498	n/a	n/a	0	0	0
1310.470703125	n/a	WORD	2683844	wordpools/wasnorm_wordpool_576.txt	LTP357	ltpFR2	11	6	PADDLE	1000	n/a	n/a	0	0	0
1313.06982421875	n/a	WORD	2689167	wordpools/wasnorm_wordpool_576.txt	LTP357	ltpFR2	11	6	HIKER	708	n/a	n/a	0	0	0
1315.8349609375	n/a	WORD	2694830	wordpools/wasnorm_wordpool_576.txt	LTP357	ltpFR2	11	6	VALLEY	1545	n/a	n/a	0	0	0
1318.533203125	n/a	WORD	2700356	wordpools/wasnorm_wordpool_576.txt	LTP357	ltpFR2	11	6	PEACH	1031	n/a	n/a	0	0	0
1321.2158203125	n/a	WORD	2705850	wordpools/wasnorm_wordpool_576.txt	LTP357	ltpFR2	11	6	PERFUME	1049	n/a	n/a	0	0	0
1323.9638671875	n/a	WORD	2711478	wordpools/wasnorm_wordpool_576.txt	LTP357	ltpFR2	11	6	TUBA	1515	n/a	n/a	0	0	0
1326.580078125	n/a	WORD	2716836	wordpools/wasnorm_wordpool_576.txt	LTP357	ltpFR2	11	6	BARLEY	88	n/a	n/a	0	0	0
1328.19580078125	n/a	START	2720145	n/a	LTP357	ltpFR2	11	n/a	n/a	n/a	10	n/a	n/a	n/a	n/a
1329.1298828125	n/a	DISTRACTOR	2722058	n/a	LTP357	ltpFR2	11	6	n/a	n/a	n/a	n/a	0	0	0
1329.14404296875	n/a	PROB	2722087	n/a	LTP357	ltpFR2	11	n/a	n/a	n/a	10	15	1	6	9
1331.35986328125	n/a	PROB	2726625	n/a	LTP357	ltpFR2	11	n/a	n/a	n/a	10	14	2	6	4
1332.91015625	n/a	PROB	2729800	n/a	LTP357	ltpFR2	11	n/a	n/a	n/a	10	10	1	4	5
1334.50927734375	n/a	PROB	2733075	n/a	LTP357	ltpFR2	11	n/a	n/a	n/a	10	22	8	7	7
1335.84228515625	n/a	PROB	2735805	n/a	LTP357	ltpFR2	11	n/a	n/a	n/a	10	11	8	2	1
1337.27392578125	n/a	PROB	2738737	n/a	LTP357	ltpFR2	11	n/a	n/a	n/a	10	18	4	7	7
1338.60693359375	n/a	PROB	2741467	n/a	LTP357	ltpFR2	11	n/a	n/a	n/a	10	14	6	4	4
1339.72314453125	n/a	PROB	2743753	n/a	LTP357	ltpFR2	11	n/a	n/a	n/a	10	20	8	3	9
1341.822265625	n/a	PROB	2748052	n/a	LTP357	ltpFR2	11	n/a	n/a	n/a	10	22	8	9	5
1345.119140625	n/a	PROB	2754804	n/a	LTP357	ltpFR2	11	n/a	n/a	n/a	10	18	9	1	8
1346.453125	n/a	PROB	2757536	n/a	LTP357	ltpFR2	11	n/a	n/a	n/a	10	18	5	5	8
1347.501953125	n/a	PROB	2759684	n/a	LTP357	ltpFR2	11	n/a	n/a	n/a	10	14	4	4	6
1349.05224609375	n/a	PROB	2762859	n/a	LTP357	ltpFR2	11	n/a	n/a	n/a	10	12	1	7	5
1351.55224609375	n/a	STOP	2767979	n/a	LTP357	ltpFR2	11	n/a	n/a	n/a	10	n/a	n/a	n/a	n/a
1354.05029296875	n/a	REC_START	2773095	n/a	LTP357	ltpFR2	11	6	n/a	n/a	n/a	n/a	0	0	0
1360.5830078125	n/a	REC_WORD	2786474	wordpools/wasnorm_wordpool_576.txt	LTP357	ltpFR2	11	6	MARINE	869	n/a	n/a	0	0	0
1363.04345703125	n/a	REC_WORD	2791513	wordpools/wasnorm_wordpool_576.txt	LTP357	ltpFR2	11	6	PRINCE	1124	n/a	n/a	0	0	0
1367.6865234375	n/a	REC_WORD	2801022	wordpools/wasnorm_wordpool_576.txt	LTP357	ltpFR2	11	6	NIGHTGOWN	953	n/a	n/a	0	0	0
1368.615234375	n/a	REC_WORD	2802924	wordpools/wasnorm_wordpool_576.txt	LTP357	ltpFR2	11	6	WOMAN	1620	n/a	n/a	0	0	0
1369.33349609375	n/a	REC_WORD	2804395	wordpools/wasnorm_wordpool_576.txt	LTP357	ltpFR2	11	6	NIGHTGOWN	953	n/a	n/a	0	0	0
1371.09130859375	n/a	REC_WORD	2807995	wordpools/wasnorm_wordpool_576.txt	LTP357	ltpFR2	11	6	COSTUME	383	n/a	n/a	0	0	0
1372.1015625	n/a	REC_WORD	2810064	wordpools/wasnorm_wordpool_576.txt	LTP357	ltpFR2	11	6	WARDROBE	1587	n/a	n/a	0	0	0
1373.482421875	n/a	REC_WORD	2812892	wordpools/wasnorm_wordpool_576.txt	LTP357	ltpFR2	11	6	SERVER	1272	n/a	n/a	0	0	0
1376.44140625	n/a	REC_WORD	2818952	wordpools/wasnorm_wordpool_576.txt	LTP357	ltpFR2	11	6	ARM	38	n/a	n/a	0	0	0
1444.52197265625	n/a	WORD	2958381	wordpools/wasnorm_wordpool_576.txt	LTP357	ltpFR2	11	7	CRICKET	408	n/a	n/a	0	0	0
1447.27099609375	n/a	WORD	2964011	wordpools/wasnorm_wordpool_576.txt	LTP357	ltpFR2	11	7	PROTON	1132	n/a	n/a	0	0	0
1450.0029296875	n/a	WORD	2969606	wordpools/wasnorm_wordpool_576.txt	LTP357	ltpFR2	11	7	NEUTRON	947	n/a	n/a	0	0	0
1452.53466796875	n/a	WORD	2974791	wordpools/wasnorm_wordpool_576.txt	LTP357	ltpFR2	11	7	SLOPE	1328	n/a	n/a	0	0	0
1455.216796875	n/a	WORD	2980284	wordpools/wasnorm_wordpool_576.txt	LTP357	ltpFR2	11	7	THREAD	1460	n/a	n/a	0	0	0
1457.98193359375	n/a	WORD	2985947	wordpools/wasnorm_wordpool_576.txt	LTP357	ltpFR2	11	7	COMPASS	358	n/a	n/a	0	0	0
1460.64697265625	n/a	WORD	2991405	wordpools/wasnorm_wordpool_576.txt	LTP357	ltpFR2	11	7	PIANO	1057	n/a	n/a	0	0	0
1463.345703125	n/a	WORD	2996932	wordpools/wasnorm_wordpool_576.txt	LTP357	ltpFR2	11	7	WAGON	1578	n/a	n/a	0	0	0
1465.89501953125	n/a	WORD	3002153	wordpools/wasnorm_wordpool_576.txt	LTP357	ltpFR2	11	7	SUNRISE	1407	n/a	n/a	0	0	0
1468.54296875	n/a	WORD	3007576	wordpools/wasnorm_wordpool_576.txt	LTP357	ltpFR2	11	7	TART	1436	n/a	n/a	0	0	0
1471.0087890625	n/a	WORD	3012626	wordpools/wasnorm_wordpool_576.txt	LTP357	ltpFR2	11	7	PASTRY	1022	n/a	n/a	0	0	0
1473.6572265625	n/a	WORD	3018050	wordpools/wasnorm_wordpool_576.txt	LTP357	ltpFR2	11	7	LAMP	798	n/a	n/a	0	0	0
1476.15625	n/a	WORD	3023168	wordpools/wasnorm_wordpool_576.txt	LTP357	ltpFR2	11	7	LAGOON	795	n/a	n/a	0	0	0
1478.587890625	n/a	WORD	3028148	wordpools/wasnorm_wordpool_576.txt	LTP357	ltpFR2	11	7	VALVE	1546	n/a	n/a	0	0	0
1481.31982421875	n/a	WORD	3033743	wordpools/wasnorm_wordpool_576.txt	LTP357	ltpFR2	11	7	FINGER	567	n/a	n/a	0	0	0
1484.001953125	n/a	WORD	3039236	wordpools/wasnorm_wordpool_576.txt	LTP357	ltpFR2	11	7	STAPLE	1371	n/a	n/a	0	0	0
1486.73388671875	n/a	WORD	3044831	wordpools/wasnorm_wordpool_576.txt	LTP357	ltpFR2	11	7	RECORD	1176	n/a	n/a	0	0	0
1489.4501953125	n/a	WORD	3050394	wordpools/wasnorm_wordpool_576.txt	LTP357	ltpFR2	11	7	COLLEGE	346	n/a	n/a	0	0	0
1492.04833984375	n/a	WORD	3055715	wordpools/wasnorm_wordpool_576.txt	LTP357	ltpFR2	11	7	CONCERT	360	n/a	n/a	0	0	0
1494.84716796875	n/a	WORD	3061447	wordpools/wasnorm_wordpool_576.txt	LTP357	ltpFR2	11	7	PALACE	1006	n/a	n/a	0	0	0
1497.662109375	n/a	WORD	3067212	wordpools/wasnorm_wordpool_576.txt	LTP357	ltpFR2	11	7	SHIRT	1287	n/a	n/a	0	0	0
1500.21142578125	n/a	WORD	3072433	wordpools/wasnorm_wordpool_576.txt	LTP357	ltpFR2	11	7	CABBAGE	210	n/a	n/a	0	0	0
1502.7431640625	n/a	WORD	3077618	wordpools/wasnorm_wordpool_576.txt	LTP357	ltpFR2	11	7	GUITAR	670	n/a	n/a	0	0	0
1505.47509765625	n/a	WORD	3083213	wordpools/wasnorm_wordpool_576.txt	LTP357	ltpFR2	11	7	WIDOW	1608	n/a	n/a	0	0	0
1507.09033203125	n/a	START	3086521	n/a	LTP357	ltpFR2	11	n/a	n/a	n/a	11	n/a	n/a	n/a	n/a
1507.9013671875	n/a	DISTRACTOR	3088182	n/a	LTP357	ltpFR2	11	7	n/a	n/a	n/a	n/a	0	0	0
1507.9072265625	n/a	PROB	3088194	n/a	LTP357	ltpFR2	11	n/a	n/a	n/a	11	17	6	5	6
1509.34033203125	n/a	PROB	3091129	n/a	LTP357	ltpFR2	11	n/a	n/a	n/a	11	18	4	6	8
1510.42333984375	n/a	PROB	3093347	n/a	LTP357	ltpFR2	11	n/a	n/a	n/a	11	25	8	9	8
1511.9384765625	n/a	PROB	3096450	n/a	LTP357	ltpFR2	11	n/a	n/a	n/a	11	16	7	3	6
1513.05517578125	n/a	PROB	3098737	n/a	LTP357	ltpFR2	11	n/a	n/a	n/a	11	12	1	2	9
1514.8544921875	n/a	PROB	3102422	n/a	LTP357	ltpFR2	11	n/a	n/a	n/a	11	20	4	7	9
1516.75341796875	n/a	PROB	3106311	n/a	LTP357	ltpFR2	11	n/a	n/a	n/a	11	12	3	2	7
1517.96923828125	n/a	PROB	3108801	n/a	LTP357	ltpFR2	11	n/a	n/a	n/a	11	13	4	3	6
1519.2685546875	n/a	PROB	3111462	n/a	LTP357	ltpFR2	11	n/a	n/a	n/a	11	15	5	3	7
1520.8515625	n/a	PROB	3114704	n/a	LTP357	ltpFR2	11	n/a	n/a	n/a	11	16	3	7	6
1522.63330078125	n/a	PROB	3118353	n/a	LTP357	ltpFR2	11	n/a	n/a	n/a	11	9	1	4	4
1525.88232421875	n/a	PROB	3125007	n/a	LTP357	ltpFR2	11	n/a	n/a	n/a	11	10	3	6	1
1527.064453125	n/a	PROB	3127428	n/a	LTP357	ltpFR2	11	n/a	n/a	n/a	11	12	1	5	6
1528.34716796875	n/a	PROB	3130055	n/a	LTP357	ltpFR2	11	n/a	n/a	n/a	11	19	7	7	5
1529.68115234375	n/a	STOP	3132787	n/a	LTP357	ltpFR2	11	n/a	n/a	n/a	11	n/a	n/a	n/a	n/a
1532.9453125	n/a	REC_START	3139472	n/a	LTP357	ltpFR2	11	7	n/a	n/a	n/a	n/a	0	0	0
1534.8564453125	n/a	REC_WORD	3143386	wordpools/wasnorm_wordpool_576.txt	LTP357	ltpFR2	11	7	SUNRISE	1407	n/a	n/a	0	0	0
1535.859375	n/a	REC_WORD	3145440	wordpools/wasnorm_wordpool_576.txt	LTP357	ltpFR2	11	7	LAMP	798	n/a	n/a	0	0	0
1538.50634765625	n/a	REC_WORD	3150861	wordpools/wasnorm_wordpool_576.txt	LTP357	ltpFR2	11	7	PASTRY	1022	n/a	n/a	0	0	0
1539.82958984375	n/a	REC_WORD	3153571	wordpools/wasnorm_wordpool_576.txt	LTP357	ltpFR2	11	7	TART	1436	n/a	n/a	0	0	0
1559.91064453125	n/a	REC_WORD	3194697	wordpools/wasnorm_wordpool_576.txt	LTP357	ltpFR2	11	7	COMPASS	358	n/a	n/a	0	0	0
1560.95654296875	n/a	REC_WORD	3196839	wordpools/wasnorm_wordpool_576.txt	LTP357	ltpFR2	11	7	THREAD	1460	n/a	n/a	0	0	0
1562.61376953125	n/a	REC_WORD	3200233	wordpools/wasnorm_wordpool_576.txt	LTP357	ltpFR2	11	7	CRICKET	408	n/a	n/a	0	0	0
1563.29638671875	n/a	REC_WORD	3201631	wordpools/wasnorm_wordpool_576.txt	LTP357	ltpFR2	11	7	PROTON	1132	n/a	n/a	0	0	0
1564.15673828125	n/a	REC_WORD	3203393	wordpools/wasnorm_wordpool_576.txt	LTP357	ltpFR2	11	7	NEUTRON	947	n/a	n/a	0	0	0
1570.181640625	n/a	REC_WORD	3215732	wordpools/wasnorm_wordpool_576.txt	LTP357	ltpFR2	11	7	SUNSET	1408	n/a	n/a	0	0	0
1623.3837890625	n/a	DISTRACTOR	3324690	n/a	LTP357	ltpFR2	11	8	n/a	n/a	n/a	n/a	0	0	0
1623.3837890625	n/a	START	3324690	n/a	LTP357	ltpFR2	11	n/a	n/a	n/a	12	n/a	n/a	n/a	n/a
1623.40087890625	n/a	PROB	3324725	n/a	LTP357	ltpFR2	11	n/a	n/a	n/a	12	20	7	8	5
1624.9169921875	n/a	PROB	3327830	n/a	LTP357	ltpFR2	11	n/a	n/a	n/a	12	16	3	5	8
1626.4990234375	n/a	PROB	3331070	n/a	LTP357	ltpFR2	11	n/a	n/a	n/a	12	14	6	7	1
1627.81494140625	n/a	PROB	3333765	n/a	LTP357	ltpFR2	11	n/a	n/a	n/a	12	15	3	3	9
1629.03125	n/a	PROB	3336256	n/a	LTP357	ltpFR2	11	n/a	n/a	n/a	12	12	9	2	1
1630.4638671875	n/a	PROB	3339190	n/a	LTP357	ltpFR2	11	n/a	n/a	n/a	12	12	2	4	6
1632.0302734375	n/a	PROB	3342398	n/a	LTP357	ltpFR2	11	n/a	n/a	n/a	12	13	4	4	5
1633.4619140625	n/a	PROB	3345330	n/a	LTP357	ltpFR2	11	n/a	n/a	n/a	12	15	7	3	5
1634.56201171875	n/a	PROB	3347583	n/a	LTP357	ltpFR2	11	n/a	n/a	n/a	12	17	7	7	3
1636.5439453125	n/a	PROB	3351642	n/a	LTP357	ltpFR2	11	n/a	n/a	n/a	12	11	8	1	2
1638.44287109375	n/a	PROB	3355531	n/a	LTP357	ltpFR2	11	n/a	n/a	n/a	12	8	1	2	5
1640.72509765625	n/a	PROB	3360205	n/a	LTP357	ltpFR2	11	n/a	n/a	n/a	12	13	7	5	1
1642.0751953125	n/a	PROB	3362970	n/a	LTP357	ltpFR2	11	n/a	n/a	n/a	12	18	8	2	8
1643.291015625	n/a	PROB	3365460	n/a	LTP357	ltpFR2	11	n/a	n/a	n/a	12	12	3	5	4
1644.57421875	n/a	PROB	3368088	n/a	LTP357	ltpFR2	11	n/a	n/a	n/a	12	19	5	7	7
1645.9140625	n/a	STOP	3370832	n/a	LTP357	ltpFR2	11	n/a	n/a	n/a	12	n/a	n/a	n/a	n/a
1648.3720703125	n/a	WORD	3375866	wordpools/wasnorm_wordpool_576.txt	LTP357	ltpFR2	11	8	SCALPEL	1243	n/a	n/a	0	0	0
1650.9541015625	n/a	WORD	3381154	wordpools/wasnorm_wordpool_576.txt	LTP357	ltpFR2	11	8	TROUT	1511	n/a	n/a	0	0	0
1653.5693359375	n/a	WORD	3386510	wordpools/wasnorm_wordpool_576.txt	LTP357	ltpFR2	11	8	STAMP	1370	n/a	n/a	0	0	0
1656.18408203125	n/a	WORD	3391865	wordpools/wasnorm_wordpool_576.txt	LTP357	ltpFR2	11	8	BANK	83	n/a	n/a	0	0	0
1658.650390625	n/a	WORD	3396916	wordpools/wasnorm_wordpool_576.txt	LTP357	ltpFR2	11	8	SCULPTURE	1258	n/a	n/a	0	0	0
1661.21533203125	n/a	WORD	3402169	wordpools/wasnorm_wordpool_576.txt	LTP357	ltpFR2	11	8	IDOL	733	n/a	n/a	0	0	0
1663.697265625	n/a	WORD	3407252	wordpools/wasnorm_wordpool_576.txt	LTP357	ltpFR2	11	8	STICKER	1382	n/a	n/a	0	0	0
1666.1630859375	n/a	WORD	3412302	wordpools/wasnorm_wordpool_576.txt	LTP357	ltpFR2	11	8	SWAMP	1416	n/a	n/a	0	0	0
1668.978515625	n/a	WORD	3418068	wordpools/wasnorm_wordpool_576.txt	LTP357	ltpFR2	11	8	HORSE	719	n/a	n/a	0	0	0
1671.77734375	n/a	WORD	3423800	wordpools/wasnorm_wordpool_576.txt	LTP357	ltpFR2	11	8	ZEBRA	1635	n/a	n/a	0	0	0
1674.392578125	n/a	WORD	3429156	wordpools/wasnorm_wordpool_576.txt	LTP357	ltpFR2	11	8	BANKER	84	n/a	n/a	0	0	0
1676.95849609375	n/a	WORD	3434411	wordpools/wasnorm_wordpool_576.txt	LTP357	ltpFR2	11	8	FLAG	573	n/a	n/a	0	0	0
1679.6064453125	n/a	WORD	3439834	wordpools/wasnorm_wordpool_576.txt	LTP357	ltpFR2	11	8	COUSIN	392	n/a	n/a	0	0	0
1682.12158203125	n/a	WORD	3444985	wordpools/wasnorm_wordpool_576.txt	LTP357	ltpFR2	11	8	MATTRESS	879	n/a	n/a	0	0	0
1684.63720703125	n/a	WORD	3450137	wordpools/wasnorm_wordpool_576.txt	LTP357	ltpFR2	11	8	CAMEL	223	n/a	n/a	0	0	0
1687.25244140625	n/a	WORD	3455493	wordpools/wasnorm_wordpool_576.txt	LTP357	ltpFR2	11	8	ROBBER	1197	n/a	n/a	0	0	0
1689.9013671875	n/a	WORD	3460918	wordpools/wasnorm_wordpool_576.txt	LTP357	ltpFR2	11	8	PORTRAIT	1111	n/a	n/a	0	0	0
1692.58349609375	n/a	WORD	3466411	wordpools/wasnorm_wordpool_576.txt	LTP357	ltpFR2	11	8	COMET	353	n/a	n/a	0	0	0
1695.0654296875	n/a	WORD	3471494	wordpools/wasnorm_wordpool_576.txt	LTP357	ltpFR2	11	8	LASER	801	n/a	n/a	0	0	0
1697.71435546875	n/a	WORD	3476919	wordpools/wasnorm_wordpool_576.txt	LTP357	ltpFR2	11	8	CREVICE	405	n/a	n/a	0	0	0
1700.37939453125	n/a	WORD	3482377	wordpools/wasnorm_wordpool_576.txt	LTP357	ltpFR2	11	8	COUCH	386	n/a	n/a	0	0	0
1703.1103515625	n/a	WORD	3487970	wordpools/wasnorm_wordpool_576.txt	LTP357	ltpFR2	11	8	SKETCH	1315	n/a	n/a	0	0	0
1705.71044921875	n/a	WORD	3493295	wordpools/wasnorm_wordpool_576.txt	LTP357	ltpFR2	11	8	DRESSER	496	n/a	n/a	0	0	0
1708.37548828125	n/a	WORD	3498753	wordpools/wasnorm_wordpool_576.txt	LTP357	ltpFR2	11	8	CHEST	295	n/a	n/a	0	0	0
1709.99169921875	n/a	START	3502063	n/a	LTP357	ltpFR2	11	n/a	n/a	n/a	13	n/a	n/a	n/a	n/a
1711.056640625	n/a	DISTRACTOR	3504244	n/a	LTP357	ltpFR2	11	8	n/a	n/a	n/a	n/a	0	0	0
1711.07470703125	n/a	PROB	3504281	n/a	LTP357	ltpFR2	11	n/a	n/a	n/a	13	10	2	5	3
1712.6064453125	n/a	PROB	3507418	n/a	LTP357	ltpFR2	11	n/a	n/a	n/a	13	13	9	3	1
1714.189453125	n/a	PROB	3510660	n/a	LTP357	ltpFR2	11	n/a	n/a	n/a	13	21	6	6	9
1715.53857421875	n/a	PROB	3513423	n/a	LTP357	ltpFR2	11	n/a	n/a	n/a	13	11	8	1	2
1716.771484375	n/a	PROB	3515948	n/a	LTP357	ltpFR2	11	n/a	n/a	n/a	13	22	7	6	9
1719.50341796875	n/a	PROB	3521543	n/a	LTP357	ltpFR2	11	n/a	n/a	n/a	13	22	6	7	8
1723.0517578125	n/a	PROB	3528810	n/a	LTP357	ltpFR2	11	n/a	n/a	n/a	13	11	1	5	5
1724.11669921875	n/a	PROB	3530991	n/a	LTP357	ltpFR2	11	n/a	n/a	n/a	13	22	6	9	7
1726.15087890625	n/a	PROB	3535157	n/a	LTP357	ltpFR2	11	n/a	n/a	n/a	13	9	3	1	5
1727.5166015625	n/a	PROB	3537954	n/a	LTP357	ltpFR2	11	n/a	n/a	n/a	13	15	5	9	1
1728.74951171875	n/a	PROB	3540479	n/a	LTP357	ltpFR2	11	n/a	n/a	n/a	13	11	1	5	5
1729.8486328125	n/a	PROB	3542730	n/a	LTP357	ltpFR2	11	n/a	n/a	n/a	13	20	7	4	9
1731.5478515625	n/a	PROB	3546210	n/a	LTP357	ltpFR2	11	n/a	n/a	n/a	13	16	8	6	2
1732.94677734375	n/a	STOP	3549075	n/a	LTP357	ltpFR2	11	n/a	n/a	n/a	13	n/a	n/a	n/a	n/a
1735.8798828125	n/a	REC_START	3555082	n/a	LTP357	ltpFR2	11	8	n/a	n/a	n/a	n/a	0	0	0
1736.28466796875	n/a	REC_WORD	3555911	wordpools/wasnorm_wordpool_576.txt	LTP357	ltpFR2	11	8	ZEBRA	1635	n/a	n/a	0	0	0
1737.43359375	n/a	REC_WORD	3558264	wordpools/wasnorm_wordpool_576.txt	LTP357	ltpFR2	11	8	BANKER	84	n/a	n/a	0	0	0
1738.53271484375	n/a	REC_WORD	3560515	wordpools/wasnorm_wordpool_576.txt	LTP357	ltpFR2	11	8	FLAG	573	n/a	n/a	0	0	0
1740.4765625	n/a	REC_WORD	3564496	wordpools/wasnorm_wordpool_576.txt	LTP357	ltpFR2	11	8	MATTRESS	879	n/a	n/a	0	0	0
1741.95361328125	n/a	REC_WORD	3567521	wordpools/wasnorm_wordpool_576.txt	LTP357	ltpFR2	11	8	BANK	83	n/a	n/a	0	0	0
1742.8828125	n/a	REC_WORD	3569424	wordpools/wasnorm_wordpool_576.txt	LTP357	ltpFR2	11	8	SCALPEL	1243	n/a	n/a	0	0	0
1743.95263671875	n/a	REC_WORD	3571615	wordpools/wasnorm_wordpool_576.txt	LTP357	ltpFR2	11	8	TROUT	1511	n/a	n/a	0	0	0
1753.22998046875	n/a	REC_WORD	3590615	wordpools/wasnorm_wordpool_576.txt	LTP357	ltpFR2	11	8	CREVICE	405	n/a	n/a	0	0	0
1754.4951171875	n/a	REC_WORD	3593206	wordpools/wasnorm_wordpool_576.txt	LTP357	ltpFR2	11	8	LASER	801	n/a	n/a	0	0	0
1755.59375	n/a	REC_WORD	3595456	wordpools/wasnorm_wordpool_576.txt	LTP357	ltpFR2	11	8	COMET	353	n/a	n/a	0	0	0
1812.42529296875	n/a	REST_REWET	3711847	n/a	LTP357	ltpFR2	11	8	n/a	n/a	n/a	n/a	0	0	0
1967.79833984375	n/a	WORD	4030051	wordpools/wasnorm_wordpool_576.txt	LTP357	ltpFR2	11	9	KNAPSACK	783	n/a	n/a	0	0	0
1970.3974609375	n/a	WORD	4035374	wordpools/wasnorm_wordpool_576.txt	LTP357	ltpFR2	11	9	PATROL	1027	n/a	n/a	0	0	0
1973.16259765625	n/a	WORD	4041037	wordpools/wasnorm_wordpool_576.txt	LTP357	ltpFR2	11	9	AIRPORT	13	n/a	n/a	0	0	0
1975.66162109375	n/a	WORD	4046155	wordpools/wasnorm_wordpool_576.txt	LTP357	ltpFR2	11	9	MAILBOX	857	n/a	n/a	0	0	0
1978.21044921875	n/a	WORD	4051375	wordpools/wasnorm_wordpool_576.txt	LTP357	ltpFR2	11	9	SEAL	1262	n/a	n/a	0	0	0
1980.92529296875	n/a	WORD	4056935	wordpools/wasnorm_wordpool_576.txt	LTP357	ltpFR2	11	9	RAZOR	1171	n/a	n/a	0	0	0
1983.62451171875	n/a	WORD	4062463	wordpools/wasnorm_wordpool_576.txt	LTP357	ltpFR2	11	9	ATLAS	53	n/a	n/a	0	0	0
1986.12255859375	n/a	WORD	4067579	wordpools/wasnorm_wordpool_576.txt	LTP357	ltpFR2	11	9	HONEY	713	n/a	n/a	0	0	0
1988.8212890625	n/a	WORD	4073106	wordpools/wasnorm_wordpool_576.txt	LTP357	ltpFR2	11	9	LABEL	790	n/a	n/a	0	0	0
1991.28759765625	n/a	WORD	4078157	wordpools/wasnorm_wordpool_576.txt	LTP357	ltpFR2	11	9	JUGGLER	763	n/a	n/a	0	0	0
1994.11865234375	n/a	WORD	4083955	wordpools/wasnorm_wordpool_576.txt	LTP357	ltpFR2	11	9	DENTIST	447	n/a	n/a	0	0	0
1996.95166015625	n/a	WORD	4089757	wordpools/wasnorm_wordpool_576.txt	LTP357	ltpFR2	11	9	BACON	67	n/a	n/a	0	0	0
1999.58349609375	n/a	WORD	4095147	wordpools/wasnorm_wordpool_576.txt	LTP357	ltpFR2	11	9	HOOK	715	n/a	n/a	0	0	0
2002.11474609375	n/a	WORD	4100331	wordpools/wasnorm_wordpool_576.txt	LTP357	ltpFR2	11	9	PLAYGROUND	1087	n/a	n/a	0	0	0
2004.84765625	n/a	WORD	4105928	wordpools/wasnorm_wordpool_576.txt	LTP357	ltpFR2	11	9	PREACHER	1119	n/a	n/a	0	0	0
2007.46240234375	n/a	WORD	4111283	wordpools/wasnorm_wordpool_576.txt	LTP357	ltpFR2	11	9	JELLY	755	n/a	n/a	0	0	0
2010.177734375	n/a	WORD	4116844	wordpools/wasnorm_wordpool_576.txt	LTP357	ltpFR2	11	9	TOMBSTONE	1478	n/a	n/a	0	0	0
2012.62646484375	n/a	WORD	4121859	wordpools/wasnorm_wordpool_576.txt	LTP357	ltpFR2	11	9	WORLD	1622	n/a	n/a	0	0	0
2015.42578125	n/a	WORD	4127592	wordpools/wasnorm_wordpool_576.txt	LTP357	ltpFR2	11	9	AIRPLANE	12	n/a	n/a	0	0	0
2018.02490234375	n/a	WORD	4132915	wordpools/wasnorm_wordpool_576.txt	LTP357	ltpFR2	11	9	COCKTAIL	338	n/a	n/a	0	0	0
2020.8056640625	n/a	WORD	4138610	wordpools/wasnorm_wordpool_576.txt	LTP357	ltpFR2	11	9	CHAMPAGNE	278	n/a	n/a	0	0	0
2023.28857421875	n/a	WORD	4143695	wordpools/wasnorm_wordpool_576.txt	LTP357	ltpFR2	11	9	SLIDE	1326	n/a	n/a	0	0	0
2025.87060546875	n/a	WORD	4148983	wordpools/wasnorm_wordpool_576.txt	LTP357	ltpFR2	11	9	TABLE	1426	n/a	n/a	0	0	0
2028.45263671875	n/a	WORD	4154271	wordpools/wasnorm_wordpool_576.txt	LTP357	ltpFR2	11	9	BUREAU	199	n/a	n/a	0	0	0
2030.06884765625	n/a	START	4157581	n/a	LTP357	ltpFR2	11	n/a	n/a	n/a	14	n/a	n/a	n/a	n/a
2031.103515625	n/a	DISTRACTOR	4159700	n/a	LTP357	ltpFR2	11	9	n/a	n/a	n/a	n/a	0	0	0
2031.11669921875	n/a	PROB	4159727	n/a	LTP357	ltpFR2	11	n/a	n/a	n/a	14	13	7	2	4
2032.78369140625	n/a	PROB	4163141	n/a	LTP357	ltpFR2	11	n/a	n/a	n/a	14	25	7	8	8
2034.6826171875	n/a	PROB	4167030	n/a	LTP357	ltpFR2	11	n/a	n/a	n/a	14	17	5	8	4
2036.28173828125	n/a	PROB	4170305	n/a	LTP357	ltpFR2	11	n/a	n/a	n/a	14	20	7	4	9
2037.61474609375	n/a	PROB	4173035	n/a	LTP357	ltpFR2	11	n/a	n/a	n/a	14	14	9	4	1
2041.24560546875	n/a	PROB	4180471	n/a	LTP357	ltpFR2	11	n/a	n/a	n/a	14	7	2	2	3
2042.845703125	n/a	PROB	4183748	n/a	LTP357	ltpFR2	11	n/a	n/a	n/a	14	17	6	5	6
2044.27783203125	n/a	PROB	4186681	n/a	LTP357	ltpFR2	11	n/a	n/a	n/a	14	13	7	2	4
2045.56103515625	n/a	PROB	4189309	n/a	LTP357	ltpFR2	11	n/a	n/a	n/a	14	14	1	8	5
2046.99365234375	n/a	PROB	4192243	n/a	LTP357	ltpFR2	11	n/a	n/a	n/a	14	11	1	1	9
2048.3427734375	n/a	PROB	4195006	n/a	LTP357	ltpFR2	11	n/a	n/a	n/a	14	14	3	8	3
2050.19189453125	n/a	PROB	4198793	n/a	LTP357	ltpFR2	11	n/a	n/a	n/a	14	20	9	7	4
2052.0078125	n/a	PROB	4202512	n/a	LTP357	ltpFR2	11	n/a	n/a	n/a	14	20	5	7	8
2053.6689453125	n/a	STOP	4205914	n/a	LTP357	ltpFR2	11	n/a	n/a	n/a	14	n/a	n/a	n/a	n/a
2055.90673828125	n/a	REC_START	4210497	n/a	LTP357	ltpFR2	11	9	n/a	n/a	n/a	n/a	0	0	0
2057.32080078125	n/a	REC_WORD	4213393	wordpools/wasnorm_wordpool_576.txt	LTP357	ltpFR2	11	9	KNAPSACK	783	n/a	n/a	0	0	0
2060.29296875	n/a	REC_WORD	4219480	wordpools/wasnorm_wordpool_576.txt	LTP357	ltpFR2	11	9	LABEL	790	n/a	n/a	0	0	0
2060.97314453125	n/a	REC_WORD	4220873	wordpools/wasnorm_wordpool_576.txt	LTP357	ltpFR2	11	9	HONEY	713	n/a	n/a	0	0	0
2061.71484375	n/a	REC_WORD	4222392	wordpools/wasnorm_wordpool_576.txt	LTP357	ltpFR2	11	9	JUGGLER	763	n/a	n/a	0	0	0
2062.55615234375	n/a	REC_WORD	4224115	wordpools/wasnorm_wordpool_576.txt	LTP357	ltpFR2	11	9	DENTIST	447	n/a	n/a	0	0	0
2064.36474609375	n/a	REC_WORD	4227819	wordpools/wasnorm_wordpool_576.txt	LTP357	ltpFR2	11	9	RAZOR	1171	n/a	n/a	0	0	0
2065.2041015625	n/a	REC_WORD	4229538	wordpools/wasnorm_wordpool_576.txt	LTP357	ltpFR2	11	9	ATLAS	53	n/a	n/a	0	0	0
2065.85986328125	n/a	REC_WORD	4230881	wordpools/wasnorm_wordpool_576.txt	LTP357	ltpFR2	11	9	WORLD	1622	n/a	n/a	0	0	0
2072.462890625	n/a	REC_WORD	4244404	wordpools/wasnorm_wordpool_576.txt	LTP357	ltpFR2	11	9	SEAL	1262	n/a	n/a	0	0	0
2073.57080078125	n/a	REC_WORD	4246673	wordpools/wasnorm_wordpool_576.txt	LTP357	ltpFR2	11	9	MAILBOX	857	n/a	n/a	0	0	0
2074.57080078125	n/a	REC_WORD_VV	4248721	wordpools/wasnorm_wordpool_576.txt	LTP357	ltpFR2	11	9	<>	-1	n/a	n/a	0	0	0
2075.22705078125	n/a	REC_WORD	4250065	wordpools/wasnorm_wordpool_576.txt	LTP357	ltpFR2	11	9	PATROL	1027	n/a	n/a	0	0	0
2076.0419921875	n/a	REC_WORD	4251734	wordpools/wasnorm_wordpool_576.txt	LTP357	ltpFR2	11	9	AIRPORT	13	n/a	n/a	0	0	0
2077.56201171875	n/a	REC_WORD	4254847	wordpools/wasnorm_wordpool_576.txt	LTP357	ltpFR2	11	9	AIRPLANE	12	n/a	n/a	0	0	0
2078.283203125	n/a	REC_WORD	4256324	wordpools/wasnorm_wordpool_576.txt	LTP357	ltpFR2	11	9	PREACHER	1119	n/a	n/a	0	0	0
2082.55712890625	n/a	REC_WORD	4265077	wordpools/wasnorm_wordpool_576.txt	LTP357	ltpFR2	11	9	PLAYGROUND	1087	n/a	n/a	0	0	0
2084.88232421875	n/a	REC_WORD	4269839	wordpools/wasnorm_wordpool_576.txt	LTP357	ltpFR2	11	9	JELLY	755	n/a	n/a	0	0	0
2086.236328125	n/a	REC_WORD	4272612	wordpools/wasnorm_wordpool_576.txt	LTP357	ltpFR2	11	9	TOMBSTONE	1478	n/a	n/a	0	0	0
2146.361328125	n/a	WORD	4395748	wordpools/wasnorm_wordpool_576.txt	LTP357	ltpFR2	11	10	ORANGE	980	n/a	n/a	0	0	0
2149.15966796875	n/a	WORD	4401479	wordpools/wasnorm_wordpool_576.txt	LTP357	ltpFR2	11	10	INFANT	737	n/a	n/a	0	0	0
2151.82568359375	n/a	WORD	4406939	wordpools/wasnorm_wordpool_576.txt	LTP357	ltpFR2	11	10	SLUG	1329	n/a	n/a	0	0	0
2154.5234375	n/a	WORD	4412464	wordpools/wasnorm_wordpool_576.txt	LTP357	ltpFR2	11	10	JURY	766	n/a	n/a	0	0	0
2157.3056640625	n/a	WORD	4418162	wordpools/wasnorm_wordpool_576.txt	LTP357	ltpFR2	11	10	MOP	916	n/a	n/a	0	0	0
2160.03759765625	n/a	WORD	4423757	wordpools/wasnorm_wordpool_576.txt	LTP357	ltpFR2	11	10	BREAST	171	n/a	n/a	0	0	0
2162.63671875	n/a	WORD	4429080	wordpools/wasnorm_wordpool_576.txt	LTP357	ltpFR2	11	10	HANDBAG	684	n/a	n/a	0	0	0
2165.08544921875	n/a	WORD	4434095	wordpools/wasnorm_wordpool_576.txt	LTP357	ltpFR2	11	10	CREATURE	403	n/a	n/a	0	0	0
2167.6005859375	n/a	WORD	4439246	wordpools/wasnorm_wordpool_576.txt	LTP357	ltpFR2	11	10	TURKEY	1520	n/a	n/a	0	0	0
2170.23291015625	n/a	WORD	4444637	wordpools/wasnorm_wordpool_576.txt	LTP357	ltpFR2	11	10	FRIEND	606	n/a	n/a	0	0	0
2172.8818359375	n/a	WORD	4450062	wordpools/wasnorm_wordpool_576.txt	LTP357	ltpFR2	11	10	LOVER	846	n/a	n/a	0	0	0
2175.630859375	n/a	WORD	4455692	wordpools/wasnorm_wordpool_576.txt	LTP357	ltpFR2	11	10	PICTURE	1061	n/a	n/a	0	0	0
2178.4287109375	n/a	WORD	4461422	wordpools/wasnorm_wordpool_576.txt	LTP357	ltpFR2	11	10	CATCHER	258	n/a	n/a	0	0	0
2180.927734375	n/a	WORD	4466540	wordpools/wasnorm_wordpool_576.txt	LTP357	ltpFR2	11	10	SERVANT	1271	n/a	n/a	0	0	0
2183.759765625	n/a	WORD	4472340	wordpools/wasnorm_wordpool_576.txt	LTP357	ltpFR2	11	10	SNAIL	1332	n/a	n/a	0	0	0
2186.30859375	n/a	WORD	4477560	wordpools/wasnorm_wordpool_576.txt	LTP357	ltpFR2	11	10	FRANCE	601	n/a	n/a	0	0	0
2188.95703125	n/a	WORD	4482984	wordpools/wasnorm_wordpool_576.txt	LTP357	ltpFR2	11	10	PLASTER	1085	n/a	n/a	0	0	0
2191.72265625	n/a	WORD	4488648	wordpools/wasnorm_wordpool_576.txt	LTP357	ltpFR2	11	10	BINDER	127	n/a	n/a	0	0	0
2194.32080078125	n/a	WORD	4493969	wordpools/wasnorm_wordpool_576.txt	LTP357	ltpFR2	11	10	ROBOT	1200	n/a	n/a	0	0	0
2196.88671875	n/a	WORD	4499224	wordpools/wasnorm_wordpool_576.txt	LTP357	ltpFR2	11	10	GAZELLE	628	n/a	n/a	0	0	0
2199.43505859375	n/a	WORD	4504443	wordpools/wasnorm_wordpool_576.txt	LTP357	ltpFR2	11	10	CYCLONE	431	n/a	n/a	0	0	0
2202.05078125	n/a	WORD	4509800	wordpools/wasnorm_wordpool_576.txt	LTP357	ltpFR2	11	10	DOLPHIN	483	n/a	n/a	0	0	0
2204.666015625	n/a	WORD	4515156	wordpools/wasnorm_wordpool_576.txt	LTP357	ltpFR2	11	10	DIVER	476	n/a	n/a	0	0	0
2207.1650390625	n/a	WORD	4520274	wordpools/wasnorm_wordpool_576.txt	LTP357	ltpFR2	11	10	FOX	598	n/a	n/a	0	0	0
2208.78076171875	n/a	START	4523583	n/a	LTP357	ltpFR2	11	n/a	n/a	n/a	15	n/a	n/a	n/a	n/a
2209.8447265625	n/a	DISTRACTOR	4525762	n/a	LTP357	ltpFR2	11	10	n/a	n/a	n/a	n/a	0	0	0
2209.84716796875	n/a	PROB	4525767	n/a	LTP357	ltpFR2	11	n/a	n/a	n/a	15	18	8	2	8
2211.0947265625	n/a	PROB	4528322	n/a	LTP357	ltpFR2	11	n/a	n/a	n/a	15	15	5	6	4
2212.62890625	n/a	PROB	4531464	n/a	LTP357	ltpFR2	11	n/a	n/a	n/a	15	17	5	8	4
2213.94482421875	n/a	PROB	4534159	n/a	LTP357	ltpFR2	11	n/a	n/a	n/a	15	18	6	3	9
2215.31103515625	n/a	PROB	4536957	n/a	LTP357	ltpFR2	11	n/a	n/a	n/a	15	18	3	6	9
2216.509765625	n/a	PROB	4539412	n/a	LTP357	ltpFR2	11	n/a	n/a	n/a	15	19	6	4	9
2217.576171875	n/a	PROB	4541596	n/a	LTP357	ltpFR2	11	n/a	n/a	n/a	15	24	6	9	9
2219.2587890625	n/a	PROB	4545042	n/a	LTP357	ltpFR2	11	n/a	n/a	n/a	15	12	6	3	3
2221.30810546875	n/a	PROB	4549239	n/a	LTP357	ltpFR2	11	n/a	n/a	n/a	15	19	9	6	4
2222.70703125	n/a	PROB	4552104	n/a	LTP357	ltpFR2	11	n/a	n/a	n/a	15	15	8	6	1
2224.22314453125	n/a	PROB	4555209	n/a	LTP357	ltpFR2	11	n/a	n/a	n/a	15	16	6	4	6
2226.0390625	n/a	PROB	4558928	n/a	LTP357	ltpFR2	11	n/a	n/a	n/a	15	11	6	3	2
2227.60498046875	n/a	PROB	4562135	n/a	LTP357	ltpFR2	11	n/a	n/a	n/a	15	13	5	5	3
2228.68798828125	n/a	PROB	4564353	n/a	LTP357	ltpFR2	11	n/a	n/a	n/a	15	9	1	4	4
2230.13623046875	n/a	PROB	4567319	n/a	LTP357	ltpFR2	11	n/a	n/a	n/a	15	15	8	1	6
2231.63818359375	n/a	STOP	4570395	n/a	LTP357	ltpFR2	11	n/a	n/a	n/a	15	n/a	n/a	n/a	n/a
2234.60205078125	n/a	REC_START	4576465	n/a	LTP357	ltpFR2	11	10	n/a	n/a	n/a	n/a	0	0	0
2238.77294921875	n/a	REC_WORD	4585007	wordpools/wasnorm_wordpool_576.txt	LTP357	ltpFR2	11	10	MOP	916	n/a	n/a	0	0	0
2239.92333984375	n/a	REC_WORD	4587363	wordpools/wasnorm_wordpool_576.txt	LTP357	ltpFR2	11	10	JURY	766	n/a	n/a	0	0	0
2241.0302734375	n/a	REC_WORD	4589630	wordpools/wasnorm_wordpool_576.txt	LTP357	ltpFR2	11	10	SLUG	1329	n/a	n/a	0	0	0
2242.333984375	n/a	REC_WORD	4592300	wordpools/wasnorm_wordpool_576.txt	LTP357	ltpFR2	11	10	BABY	64	n/a	n/a	0	0	0
2244.34326171875	n/a	REC_WORD	4596415	wordpools/wasnorm_wordpool_576.txt	LTP357	ltpFR2	11	10	INFANT	737	n/a	n/a	0	0	0
2246.18603515625	n/a	REC_WORD	4600189	wordpools/wasnorm_wordpool_576.txt	LTP357	ltpFR2	11	10	ORANGE	980	n/a	n/a	0	0	0
2252.04833984375	n/a	REC_WORD	4612195	wordpools/wasnorm_wordpool_576.txt	LTP357	ltpFR2	11	10	LOVER	846	n/a	n/a	0	0	0
2253.232421875	n/a	REC_WORD	4614620	wordpools/wasnorm_wordpool_576.txt	LTP357	ltpFR2	11	10	CATCHER	258	n/a	n/a	0	0	0
2325.04052734375	n/a	DISTRACTOR	4761683	n/a	LTP357	ltpFR2	11	11	n/a	n/a	n/a	n/a	0	0	0
2325.04052734375	n/a	START	4761683	n/a	LTP357	ltpFR2	11	n/a	n/a	n/a	16	n/a	n/a	n/a	n/a
2325.056640625	n/a	PROB	4761716	n/a	LTP357	ltpFR2	11	n/a	n/a	n/a	16	14	4	1	9
2326.48974609375	n/a	PROB	4764651	n/a	LTP357	ltpFR2	11	n/a	n/a	n/a	16	12	7	1	4
2327.888671875	n/a	PROB	4767516	n/a	LTP357	ltpFR2	11	n/a	n/a	n/a	16	6	4	1	1
2328.87158203125	n/a	PROB	4769529	n/a	LTP357	ltpFR2	11	n/a	n/a	n/a	16	12	2	2	8
2330.0048828125	n/a	PROB	4771850	n/a	LTP357	ltpFR2	11	n/a	n/a	n/a	16	21	5	7	9
2331.15380859375	n/a	PROB	4774203	n/a	LTP357	ltpFR2	11	n/a	n/a	n/a	16	19	9	5	7
2332.65380859375	n/a	PROB	4777275	n/a	LTP357	ltpFR2	11	n/a	n/a	n/a	16	16	2	8	6
2333.81982421875	n/a	PROB	4779663	n/a	LTP357	ltpFR2	11	n/a	n/a	n/a	16	19	7	6	3
2335.45166015625	n/a	PROB	4783005	n/a	LTP357	ltpFR2	11	n/a	n/a	n/a	16	14	1	9	4
2337.41796875	n/a	PROB	4787032	n/a	LTP357	ltpFR2	11	n/a	n/a	n/a	16	11	1	6	4
2338.7666015625	n/a	PROB	4789794	n/a	LTP357	ltpFR2	11	n/a	n/a	n/a	16	12	2	8	2
2339.7998046875	n/a	PROB	4791910	n/a	LTP357	ltpFR2	11	n/a	n/a	n/a	16	11	2	6	3
2341.8818359375	n/a	PROB	4796174	n/a	LTP357	ltpFR2	11	n/a	n/a	n/a	16	18	8	7	3
2343.23193359375	n/a	PROB	4798939	n/a	LTP357	ltpFR2	11	n/a	n/a	n/a	16	14	5	4	5
2344.763671875	n/a	PROB	4802076	n/a	LTP357	ltpFR2	11	n/a	n/a	n/a	16	19	2	8	9
2345.9970703125	n/a	PROB	4804602	n/a	LTP357	ltpFR2	11	n/a	n/a	n/a	16	18	6	4	8
2346.9970703125	n/a	PROB	4806650	n/a	LTP357	ltpFR2	11	n/a	n/a	n/a	16	10	2	1	7
2348.712890625	n/a	STOP	4810164	n/a	LTP357	ltpFR2	11	n/a	n/a	n/a	16	n/a	n/a	n/a	n/a
2349.94482421875	n/a	WORD	4812687	wordpools/wasnorm_wordpool_576.txt	LTP357	ltpFR2	11	11	PADDING	999	n/a	n/a	0	0	0
2352.376953125	n/a	WORD	4817668	wordpools/wasnorm_wordpool_576.txt	LTP357	ltpFR2	11	11	CEILING	265	n/a	n/a	0	0	0
2354.90869140625	n/a	WORD	4822853	wordpools/wasnorm_wordpool_576.txt	LTP357	ltpFR2	11	11	CUSTARD	429	n/a	n/a	0	0	0
2357.57470703125	n/a	WORD	4828313	wordpools/wasnorm_wordpool_576.txt	LTP357	ltpFR2	11	11	SPOOL	1356	n/a	n/a	0	0	0
2360.07275390625	n/a	WORD	4833429	wordpools/wasnorm_wordpool_576.txt	LTP357	ltpFR2	11	11	AGENT	10	n/a	n/a	0	0	0
2362.7548828125	n/a	WORD	4838922	wordpools/wasnorm_wordpool_576.txt	LTP357	ltpFR2	11	11	OYSTER	995	n/a	n/a	0	0	0
2365.37109375	n/a	WORD	4844280	wordpools/wasnorm_wordpool_576.txt	LTP357	ltpFR2	11	11	SCRIBBLE	1256	n/a	n/a	0	0	0
2367.90283203125	n/a	WORD	4849465	wordpools/wasnorm_wordpool_576.txt	LTP357	ltpFR2	11	11	MISTER	901	n/a	n/a	0	0	0
2370.56787109375	n/a	WORD	4854923	wordpools/wasnorm_wordpool_576.txt	LTP357	ltpFR2	11	11	FLIPPER	580	n/a	n/a	0	0	0
2373.18310546875	n/a	WORD	4860279	wordpools/wasnorm_wordpool_576.txt	LTP357	ltpFR2	11	11	FARMER	553	n/a	n/a	0	0	0
2375.94921875	n/a	WORD	4865944	wordpools/wasnorm_wordpool_576.txt	LTP357	ltpFR2	11	11	FREEZER	604	n/a	n/a	0	0	0
2378.7470703125	n/a	WORD	4871674	wordpools/wasnorm_wordpool_576.txt	LTP357	ltpFR2	11	11	KLEENEX	782	n/a	n/a	0	0	0
2381.34619140625	n/a	WORD	4876997	wordpools/wasnorm_wordpool_576.txt	LTP357	ltpFR2	11	11	DRESS	495	n/a	n/a	0	0	0
2384.1611328125	n/a	WORD	4882762	wordpools/wasnorm_wordpool_576.txt	LTP357	ltpFR2	11	11	ATOM	55	n/a	n/a	0	0	0
2386.66015625	n/a	WORD	4887880	wordpools/wasnorm_wordpool_576.txt	LTP357	ltpFR2	11	11	SHELF	1280	n/a	n/a	0	0	0
2389.2919921875	n/a	WORD	4893270	wordpools/wasnorm_wordpool_576.txt	LTP357	ltpFR2	11	11	CLOUD	328	n/a	n/a	0	0	0
2391.82421875	n/a	WORD	4898456	wordpools/wasnorm_wordpool_576.txt	LTP357	ltpFR2	11	11	DENIM	446	n/a	n/a	0	0	0
2394.64013671875	n/a	WORD	4904223	wordpools/wasnorm_wordpool_576.txt	LTP357	ltpFR2	11	11	SHORTS	1293	n/a	n/a	0	0	0
2397.1552734375	n/a	WORD	4909374	wordpools/wasnorm_wordpool_576.txt	LTP357	ltpFR2	11	11	LIGHTNING	820	n/a	n/a	0	0	0
2399.97021484375	n/a	WORD	4915139	wordpools/wasnorm_wordpool_576.txt	LTP357	ltpFR2	11	11	BLENDER	136	n/a	n/a	0	0	0
2402.5693359375	n/a	WORD	4920462	wordpools/wasnorm_wordpool_576.txt	LTP357	ltpFR2	11	11	CATTLE	261	n/a	n/a	0	0	0
2405.201171875	n/a	WORD	4925852	wordpools/wasnorm_wordpool_576.txt	LTP357	ltpFR2	11	11	FEMALE	559	n/a	n/a	0	0	0
2407.75048828125	n/a	WORD	4931073	wordpools/wasnorm_wordpool_576.txt	LTP357	ltpFR2	11	11	GRAVE	658	n/a	n/a	0	0	0
2410.38232421875	n/a	WORD	4936463	wordpools/wasnorm_wordpool_576.txt	LTP357	ltpFR2	11	11	MAMMAL	861	n/a	n/a	0	0	0
2411.99853515625	n/a	START	4939773	n/a	LTP357	ltpFR2	11	n/a	n/a	n/a	17	n/a	n/a	n/a	n/a
2413.08837890625	n/a	DISTRACTOR	4942005	n/a	LTP357	ltpFR2	11	11	n/a	n/a	n/a	n/a	0	0	0
2413.09619140625	n/a	PROB	4942021	n/a	LTP357	ltpFR2	11	n/a	n/a	n/a	17	14	4	3	7
2414.43017578125	n/a	PROB	4944753	n/a	LTP357	ltpFR2	11	n/a	n/a	n/a	17	16	6	3	7
2416.0625	n/a	PROB	4948096	n/a	LTP357	ltpFR2	11	n/a	n/a	n/a	17	18	8	7	3
2417.2783203125	n/a	PROB	4950586	n/a	LTP357	ltpFR2	11	n/a	n/a	n/a	17	21	7	5	9
2418.71142578125	n/a	PROB	4953521	n/a	LTP357	ltpFR2	11	n/a	n/a	n/a	17	18	4	7	7
2420.060546875	n/a	PROB	4956284	n/a	LTP357	ltpFR2	11	n/a	n/a	n/a	17	14	4	3	7
2421.42626953125	n/a	PROB	4959081	n/a	LTP357	ltpFR2	11	n/a	n/a	n/a	17	13	3	4	6
2422.9755859375	n/a	PROB	4962254	n/a	LTP357	ltpFR2	11	n/a	n/a	n/a	17	8	1	1	6
2424.94140625	n/a	PROB	4966280	n/a	LTP357	ltpFR2	11	n/a	n/a	n/a	17	23	8	6	9
2427.1064453125	n/a	PROB	4970714	n/a	LTP357	ltpFR2	11	n/a	n/a	n/a	17	28	9	5	4
2429.17236328125	n/a	PROB	4974945	n/a	LTP357	ltpFR2	11	n/a	n/a	n/a	17	9	2	6	1
2431.3056640625	n/a	PROB	4979314	n/a	LTP357	ltpFR2	11	n/a	n/a	n/a	17	15	3	8	4
2432.63720703125	n/a	PROB	4982041	n/a	LTP357	ltpFR2	11	n/a	n/a	n/a	17	16	6	9	1
2433.87060546875	n/a	PROB	4984567	n/a	LTP357	ltpFR2	11	n/a	n/a	n/a	17	14	5	7	2
2435.76025390625	n/a	STOP	4988437	n/a	LTP357	ltpFR2	11	n/a	n/a	n/a	17	n/a	n/a	n/a	n/a
2437.8037109375	n/a	REC_START	4992622	n/a	LTP357	ltpFR2	11	11	n/a	n/a	n/a	n/a	0	0	0
2438.986328125	n/a	REC_WORD	4995044	wordpools/wasnorm_wordpool_576.txt	LTP357	ltpFR2	11	11	FLIPPER	580	n/a	n/a	0	0	0
2439.8896484375	n/a	REC_WORD	4996894	wordpools/wasnorm_wordpool_576.txt	LTP357	ltpFR2	11	11	FEMALE	559	n/a	n/a	0	0	0
2441.04638671875	n/a	REC_WORD	4999263	wordpools/wasnorm_wordpool_576.txt	LTP357	ltpFR2	11	11	MAMMAL	861	n/a	n/a	0	0	0
2444.55859375	n/a	REC_WORD	5006456	wordpools/wasnorm_wordpool_576.txt	LTP357	ltpFR2	11	11	FARMER	553	n/a	n/a	0	0	0
2445.55859375	n/a	REC_WORD_VV	5008504	wordpools/wasnorm_wordpool_576.txt	LTP357	ltpFR2	11	11	<>	-1	n/a	n/a	0	0	0
2446.3505859375	n/a	REC_WORD	5010126	wordpools/wasnorm_wordpool_576.txt	LTP357	ltpFR2	11	11	FREEZER	604	n/a	n/a	0	0	0
2452.79541015625	n/a	REC_WORD	5023325	wordpools/wasnorm_wordpool_576.txt	LTP357	ltpFR2	11	11	ATOM	55	n/a	n/a	0	0	0
2528.25830078125	n/a	WORD	5177873	wordpools/wasnorm_wordpool_576.txt	LTP357	ltpFR2	11	12	LAVA	804	n/a	n/a	0	0	0
2530.7900390625	n/a	WORD	5183058	wordpools/wasnorm_wordpool_576.txt	LTP357	ltpFR2	11	12	ELBOW	520	n/a	n/a	0	0	0
2533.2880859375	n/a	WORD	5188174	wordpools/wasnorm_wordpool_576.txt	LTP357	ltpFR2	11	12	TURNIP	1521	n/a	n/a	0	0	0
2535.75390625	n/a	WORD	5193224	wordpools/wasnorm_wordpool_576.txt	LTP357	ltpFR2	11	12	NOMAD	955	n/a	n/a	0	0	0
2538.3193359375	n/a	WORD	5198478	wordpools/wasnorm_wordpool_576.txt	LTP357	ltpFR2	11	12	XEROX	1628	n/a	n/a	0	0	0
2541.13427734375	n/a	WORD	5204243	wordpools/wasnorm_wordpool_576.txt	LTP357	ltpFR2	11	12	BASEMENT	94	n/a	n/a	0	0	0
2543.71630859375	n/a	WORD	5209531	wordpools/wasnorm_wordpool_576.txt	LTP357	ltpFR2	11	12	CABIN	211	n/a	n/a	0	0	0
2546.365234375	n/a	WORD	5214956	wordpools/wasnorm_wordpool_576.txt	LTP357	ltpFR2	11	12	GLOVE	642	n/a	n/a	0	0	0
2549.064453125	n/a	WORD	5220484	wordpools/wasnorm_wordpool_576.txt	LTP357	ltpFR2	11	12	PERCH	1048	n/a	n/a	0	0	0
2551.54638671875	n/a	WORD	5225567	wordpools/wasnorm_wordpool_576.txt	LTP357	ltpFR2	11	12	CRATER	400	n/a	n/a	0	0	0
2554.1953125	n/a	WORD	5230992	wordpools/wasnorm_wordpool_576.txt	LTP357	ltpFR2	11	12	WASP	1593	n/a	n/a	0	0	0
2556.66015625	n/a	WORD	5236040	wordpools/wasnorm_wordpool_576.txt	LTP357	ltpFR2	11	12	SLIME	1327	n/a	n/a	0	0	0
2559.359375	n/a	WORD	5241568	wordpools/wasnorm_wordpool_576.txt	LTP357	ltpFR2	11	12	INMATE	738	n/a	n/a	0	0	0
2562.1572265625	n/a	WORD	5247298	wordpools/wasnorm_wordpool_576.txt	LTP357	ltpFR2	11	12	OUTLAW	989	n/a	n/a	0	0	0
2564.70654296875	n/a	WORD	5252519	wordpools/wasnorm_wordpool_576.txt	LTP357	ltpFR2	11	12	REBEL	1172	n/a	n/a	0	0	0
2567.23828125	n/a	WORD	5257704	wordpools/wasnorm_wordpool_576.txt	LTP357	ltpFR2	11	12	CAPTIVE	240	n/a	n/a	0	0	0
2569.7373046875	n/a	WORD	5262822	wordpools/wasnorm_wordpool_576.txt	LTP357	ltpFR2	11	12	DRAGON	492	n/a	n/a	0	0	0
2572.16943359375	n/a	WORD	5267803	wordpools/wasnorm_wordpool_576.txt	LTP357	ltpFR2	11	12	PARSLEY	1016	n/a	n/a	0	0	0
2574.7353515625	n/a	WORD	5273058	wordpools/wasnorm_wordpool_576.txt	LTP357	ltpFR2	11	12	ARMY	39	n/a	n/a	0	0	0
2577.33349609375	n/a	WORD	5278379	wordpools/wasnorm_wordpool_576.txt	LTP357	ltpFR2	11	12	WAITER	1580	n/a	n/a	0	0	0
2579.8154296875	n/a	WORD	5283462	wordpools/wasnorm_wordpool_576.txt	LTP357	ltpFR2	11	12	PARROT	1015	n/a	n/a	0	0	0
2582.58154296875	n/a	WORD	5289127	wordpools/wasnorm_wordpool_576.txt	LTP357	ltpFR2	11	12	SWIMMER	1420	n/a	n/a	0	0	0
2585.3466796875	n/a	WORD	5294790	wordpools/wasnorm_wordpool_576.txt	LTP357	ltpFR2	11	12	LAKE	796	n/a	n/a	0	0	0
2587.91162109375	n/a	WORD	5300043	wordpools/wasnorm_wordpool_576.txt	LTP357	ltpFR2	11	12	MESSAGE	888	n/a	n/a	0	0	0
2589.52734375	n/a	START	5303352	n/a	LTP357	ltpFR2	11	n/a	n/a	n/a	18	n/a	n/a	n/a	n/a
2590.63427734375	n/a	DISTRACTOR	5305619	n/a	LTP357	ltpFR2	11	12	n/a	n/a	n/a	n/a	0	0	0
2590.6435546875	n/a	PROB	5305638	n/a	LTP357	ltpFR2	11	n/a	n/a	n/a	18	14	6	1	7
2592.359375	n/a	PROB	5309152	n/a	LTP357	ltpFR2	11	n/a	n/a	n/a	18	13	2	7	4
2593.92529296875	n/a	PROB	5312359	n/a	LTP357	ltpFR2	11	n/a	n/a	n/a	18	21	9	7	5
2597.25732421875	n/a	PROB	5319183	n/a	LTP357	ltpFR2	11	n/a	n/a	n/a	18	9	2	4	3
2598.5234375	n/a	PROB	5321776	n/a	LTP357	ltpFR2	11	n/a	n/a	n/a	18	23	9	5	9
2600.3056640625	n/a	PROB	5325426	n/a	LTP357	ltpFR2	11	n/a	n/a	n/a	18	13	2	7	6
2601.888671875	n/a	PROB	5328668	n/a	LTP357	ltpFR2	11	n/a	n/a	n/a	18	16	1	7	8
2604.353515625	n/a	PROB	5333716	n/a	LTP357	ltpFR2	11	n/a	n/a	n/a	18	15	3	8	4
2605.78662109375	n/a	PROB	5336651	n/a	LTP357	ltpFR2	11	n/a	n/a	n/a	18	15	2	8	5
2606.96875	n/a	PROB	5339072	n/a	LTP357	ltpFR2	11	n/a	n/a	n/a	18	15	5	6	4
2611.23388671875	n/a	PROB	5347807	n/a	LTP357	ltpFR2	11	n/a	n/a	n/a	18	16	4	9	3
2612.81787109375	n/a	STOP	5351051	n/a	LTP357	ltpFR2	11	n/a	n/a	n/a	18	n/a	n/a	n/a	n/a
2615.349609375	n/a	REC_START	5356236	n/a	LTP357	ltpFR2	11	12	n/a	n/a	n/a	n/a	0	0	0
2616.86572265625	n/a	REC_WORD	5359341	wordpools/wasnorm_wordpool_576.txt	LTP357	ltpFR2	11	12	REBEL	1172	n/a	n/a	0	0	0
2618.0546875	n/a	REC_WORD	5361776	wordpools/wasnorm_wordpool_576.txt	LTP357	ltpFR2	11	12	OUTLAW	989	n/a	n/a	0	0	0
2619.24951171875	n/a	REC_WORD	5364223	wordpools/wasnorm_wordpool_576.txt	LTP357	ltpFR2	11	12	CAPTIVE	240	n/a	n/a	0	0	0
2620.44384765625	n/a	REC_WORD	5366669	wordpools/wasnorm_wordpool_576.txt	LTP357	ltpFR2	11	12	INMATE	738	n/a	n/a	0	0	0
2624.17578125	n/a	REC_WORD	5374312	wordpools/wasnorm_wordpool_576.txt	LTP357	ltpFR2	11	12	ARMY	39	n/a	n/a	0	0	0
2627.31396484375	n/a	REC_WORD	5380739	wordpools/wasnorm_wordpool_576.txt	LTP357	ltpFR2	11	12	DRAGON	492	n/a	n/a	0	0	0
2650.98095703125	n/a	REC_WORD	5429209	wordpools/wasnorm_wordpool_576.txt	LTP357	ltpFR2	11	12	TURNIP	1521	n/a	n/a	0	0	0
2652.22998046875	n/a	REC_WORD	5431767	wordpools/wasnorm_wordpool_576.txt	LTP357	ltpFR2	11	12	ELBOW	520	n/a	n/a	0	0	0
2714.49951171875	n/a	DISTRACTOR	5559295	n/a	LTP357	ltpFR2	11	13	n/a	n/a	n/a	n/a	0	0	0
2714.50048828125	n/a	START	5559297	n/a	LTP357	ltpFR2	11	n/a	n/a	n/a	19	n/a	n/a	n/a	n/a
2714.51611328125	n/a	PROB	5559329	n/a	LTP357	ltpFR2	11	n/a	n/a	n/a	19	21	6	6	9
2716.482421875	n/a	PROB	5563356	n/a	LTP357	ltpFR2	11	n/a	n/a	n/a	19	19	7	9	3
2718.1474609375	n/a	PROB	5566766	n/a	LTP357	ltpFR2	11	n/a	n/a	n/a	19	10	2	6	2
2720.01318359375	n/a	PROB	5570587	n/a	LTP357	ltpFR2	11	n/a	n/a	n/a	19	12	4	5	3
2722.029296875	n/a	PROB	5574716	n/a	LTP357	ltpFR2	11	n/a	n/a	n/a	19	16	8	6	5
2723.32861328125	n/a	PROB	5577377	n/a	LTP357	ltpFR2	11	n/a	n/a	n/a	19	19	7	4	8
2725.74462890625	n/a	PROB	5582325	n/a	LTP357	ltpFR2	11	n/a	n/a	n/a	19	17	7	1	9
2727.24365234375	n/a	PROB	5585395	n/a	LTP357	ltpFR2	11	n/a	n/a	n/a	19	16	8	2	6
2728.42626953125	n/a	PROB	5587817	n/a	LTP357	ltpFR2	11	n/a	n/a	n/a	19	21	7	8	6
2729.908203125	n/a	PROB	5590852	n/a	LTP357	ltpFR2	11	n/a	n/a	n/a	19	16	4	5	7
2731.2744140625	n/a	PROB	5593650	n/a	LTP357	ltpFR2	11	n/a	n/a	n/a	19	23	5	9	9
2733.2236328125	n/a	PROB	5597642	n/a	LTP357	ltpFR2	11	n/a	n/a	n/a	19	15	3	9	3
2734.7392578125	n/a	PROB	5600746	n/a	LTP357	ltpFR2	11	n/a	n/a	n/a	19	15	6	3	6
2736.0224609375	n/a	PROB	5603374	n/a	LTP357	ltpFR2	11	n/a	n/a	n/a	19	19	7	4	8
2737.314453125	n/a	STOP	5606020	n/a	LTP357	ltpFR2	11	n/a	n/a	n/a	19	n/a	n/a	n/a	n/a
2739.404296875	n/a	WORD	5610300	wordpools/wasnorm_wordpool_576.txt	LTP357	ltpFR2	11	13	LONDON	843	n/a	n/a	0	0	0
2742.03662109375	n/a	WORD	5615691	wordpools/wasnorm_wordpool_576.txt	LTP357	ltpFR2	11	13	SPACE	1345	n/a	n/a	0	0	0
2744.71875	n/a	WORD	5621184	wordpools/wasnorm_wordpool_576.txt	LTP357	ltpFR2	11	13	CHEMIST	292	n/a	n/a	0	0	0
2747.28369140625	n/a	WORD	5626437	wordpools/wasnorm_wordpool_576.txt	LTP357	ltpFR2	11	13	BIKE	125	n/a	n/a	0	0	0
2749.8486328125	n/a	WORD	5631690	wordpools/wasnorm_wordpool_576.txt	LTP357	ltpFR2	11	13	LIPSTICK	829	n/a	n/a	0	0	0
2752.3974609375	n/a	WORD	5636910	wordpools/wasnorm_wordpool_576.txt	LTP357	ltpFR2	11	13	MILK	895	n/a	n/a	0	0	0
2754.86376953125	n/a	WORD	5641961	wordpools/wasnorm_wordpool_576.txt	LTP357	ltpFR2	11	13	LEG	809	n/a	n/a	0	0	0
2757.61181640625	n/a	WORD	5647589	wordpools/wasnorm_wordpool_576.txt	LTP357	ltpFR2	11	13	BROOK	177	n/a	n/a	0	0	0
2760.177734375	n/a	WORD	5652844	wordpools/wasnorm_wordpool_576.txt	LTP357	ltpFR2	11	13	KETCHUP	771	n/a	n/a	0	0	0
2762.94287109375	n/a	WORD	5658507	wordpools/wasnorm_wordpool_576.txt	LTP357	ltpFR2	11	13	RELISH	1183	n/a	n/a	0	0	0
2765.474609375	n/a	WORD	5663692	wordpools/wasnorm_wordpool_576.txt	LTP357	ltpFR2	11	13	BUGGY	188	n/a	n/a	0	0	0
2767.90673828125	n/a	WORD	5668673	wordpools/wasnorm_wordpool_576.txt	LTP357	ltpFR2	11	13	TAXI	1438	n/a	n/a	0	0	0
2770.62255859375	n/a	WORD	5674235	wordpools/wasnorm_wordpool_576.txt	LTP357	ltpFR2	11	13	MATCH	878	n/a	n/a	0	0	0
2773.1875	n/a	WORD	5679488	wordpools/wasnorm_wordpool_576.txt	LTP357	ltpFR2	11	13	MUMMY	932	n/a	n/a	0	0	0
2775.919921875	n/a	WORD	5685084	wordpools/wasnorm_wordpool_576.txt	LTP357	ltpFR2	11	13	GRIZZLY	662	n/a	n/a	0	0	0
2778.53466796875	n/a	WORD	5690439	wordpools/wasnorm_wordpool_576.txt	LTP357	ltpFR2	11	13	NECKLACE	940	n/a	n/a	0	0	0
2781.083984375	n/a	WORD	5695660	wordpools/wasnorm_wordpool_576.txt	LTP357	ltpFR2	11	13	RACKET	1155	n/a	n/a	0	0	0
2783.56591796875	n/a	WORD	5700743	wordpools/wasnorm_wordpool_576.txt	LTP357	ltpFR2	11	13	TROMBONE	1508	n/a	n/a	0	0	0
2786.0478515625	n/a	WORD	5705826	wordpools/wasnorm_wordpool_576.txt	LTP357	ltpFR2	11	13	TILE	1468	n/a	n/a	0	0	0
2788.546875	n/a	WORD	5710944	wordpools/wasnorm_wordpool_576.txt	LTP357	ltpFR2	11	13	SHRUB	1299	n/a	n/a	0	0	0
2791.095703125	n/a	WORD	5716164	wordpools/wasnorm_wordpool_576.txt	LTP357	ltpFR2	11	13	EUROPE	541	n/a	n/a	0	0	0
2793.5439453125	n/a	WORD	5721178	wordpools/wasnorm_wordpool_576.txt	LTP357	ltpFR2	11	13	BADGE	68	n/a	n/a	0	0	0
2796.259765625	n/a	WORD	5726740	wordpools/wasnorm_wordpool_576.txt	LTP357	ltpFR2	11	13	COUNTY	389	n/a	n/a	0	0	0
2798.82470703125	n/a	WORD	5731993	wordpools/wasnorm_wordpool_576.txt	LTP357	ltpFR2	11	13	WRIST	1626	n/a	n/a	0	0	0
2800.44091796875	n/a	START	5735303	n/a	LTP357	ltpFR2	11	n/a	n/a	n/a	20	n/a	n/a	n/a	n/a
2801.51513671875	n/a	DISTRACTOR	5737503	n/a	LTP357	ltpFR2	11	13	n/a	n/a	n/a	n/a	0	0	0
2801.52392578125	n/a	PROB	5737521	n/a	LTP357	ltpFR2	11	n/a	n/a	n/a	20	8	2	4	2
2802.9560546875	n/a	PROB	5740454	n/a	LTP357	ltpFR2	11	n/a	n/a	n/a	20	15	4	6	5
2804.07275390625	n/a	PROB	5742741	n/a	LTP357	ltpFR2	11	n/a	n/a	n/a	20	18	8	5	5
2805.2890625	n/a	PROB	5745232	n/a	LTP357	ltpFR2	11	n/a	n/a	n/a	20	18	8	7	3
2806.80517578125	n/a	PROB	5748337	n/a	LTP357	ltpFR2	11	n/a	n/a	n/a	20	11	6	1	4
2808.1357421875	n/a	PROB	5751062	n/a	LTP357	ltpFR2	11	n/a	n/a	n/a	20	14	2	8	4
2809.48681640625	n/a	PROB	5753829	n/a	LTP357	ltpFR2	11	n/a	n/a	n/a	20	15	4	6	5
2810.71875	n/a	PROB	5756352	n/a	LTP357	ltpFR2	11	n/a	n/a	n/a	20	12	3	2	7
2813.384765625	n/a	PROB	5761812	n/a	LTP357	ltpFR2	11	n/a	n/a	n/a	20	16	7	1	8
2814.9169921875	n/a	PROB	5764950	n/a	LTP357	ltpFR2	11	n/a	n/a	n/a	20	12	3	3	6
2816.31591796875	n/a	PROB	5767815	n/a	LTP357	ltpFR2	11	n/a	n/a	n/a	20	19	9	3	7
2818.14794921875	n/a	PROB	5771567	n/a	LTP357	ltpFR2	11	n/a	n/a	n/a	20	14	4	1	9
2819.4482421875	n/a	PROB	5774230	n/a	LTP357	ltpFR2	11	n/a	n/a	n/a	20	14	5	1	8
2821.546875	n/a	PROB	5778528	n/a	LTP357	ltpFR2	11	n/a	n/a	n/a	20	22	7	6	9
2823.955078125	n/a	STOP	5783460	n/a	LTP357	ltpFR2	11	n/a	n/a	n/a	20	n/a	n/a	n/a	n/a
2826.2119140625	n/a	REC_START	5788082	n/a	LTP357	ltpFR2	11	13	n/a	n/a	n/a	n/a	0	0	0
2827.9521484375	n/a	REC_WORD	5791646	wordpools/wasnorm_wordpool_576.txt	LTP357	ltpFR2	11	13	ANGEL	22	n/a	n/a	0	0	0
2828.71533203125	n/a	REC_WORD	5793209	wordpools/wasnorm_wordpool_576.txt	LTP357	ltpFR2	11	13	BADGE	68	n/a	n/a	0	0	0
2829.85693359375	n/a	REC_WORD	5795547	wordpools/wasnorm_wordpool_576.txt	LTP357	ltpFR2	11	13	COUNTY	389	n/a	n/a	0	0	0
2832.7958984375	n/a	REC_WORD	5801566	wordpools/wasnorm_wordpool_576.txt	LTP357	ltpFR2	11	13	LONDON	843	n/a	n/a	0	0	0
2833.6171875	n/a	REC_WORD	5803248	wordpools/wasnorm_wordpool_576.txt	LTP357	ltpFR2	11	13	SPACE	1345	n/a	n/a	0	0	0
2835.18603515625	n/a	REC_WORD	5806461	wordpools/wasnorm_wordpool_576.txt	LTP357	ltpFR2	11	13	CHEMIST	292	n/a	n/a	0	0	0
2836.34521484375	n/a	REC_WORD	5808835	wordpools/wasnorm_wordpool_576.txt	LTP357	ltpFR2	11	13	LIPSTICK	829	n/a	n/a	0	0	0
2837.43505859375	n/a	REC_WORD	5811067	wordpools/wasnorm_wordpool_576.txt	LTP357	ltpFR2	11	13	BIKE	125	n/a	n/a	0	0	0
2838.88037109375	n/a	REC_WORD	5814027	wordpools/wasnorm_wordpool_576.txt	LTP357	ltpFR2	11	13	LEG	809	n/a	n/a	0	0	0
2916.68359375	n/a	WORD	5973368	wordpools/wasnorm_wordpool_576.txt	LTP357	ltpFR2	11	14	CONVICT	371	n/a	n/a	0	0	0
2919.14892578125	n/a	WORD	5978417	wordpools/wasnorm_wordpool_576.txt	LTP357	ltpFR2	11	14	RABBIT	1152	n/a	n/a	0	0	0
2921.96484375	n/a	WORD	5984184	wordpools/wasnorm_wordpool_576.txt	LTP357	ltpFR2	11	14	EYELASH	546	n/a	n/a	0	0	0
2924.57958984375	n/a	WORD	5989539	wordpools/wasnorm_wordpool_576.txt	LTP357	ltpFR2	11	14	POWDER	1117	n/a	n/a	0	0	0
2927.07861328125	n/a	WORD	5994657	wordpools/wasnorm_wordpool_576.txt	LTP357	ltpFR2	11	14	RADISH	1158	n/a	n/a	0	0	0
2929.7939453125	n/a	WORD	6000218	wordpools/wasnorm_wordpool_576.txt	LTP357	ltpFR2	11	14	SHELTER	1282	n/a	n/a	0	0	0
2932.4267578125	n/a	WORD	6005610	wordpools/wasnorm_wordpool_576.txt	LTP357	ltpFR2	11	14	SCALLOP	1242	n/a	n/a	0	0	0
2935.091796875	n/a	WORD	6011068	wordpools/wasnorm_wordpool_576.txt	LTP357	ltpFR2	11	14	SHOULDER	1294	n/a	n/a	0	0	0
2937.7236328125	n/a	WORD	6016458	wordpools/wasnorm_wordpool_576.txt	LTP357	ltpFR2	11	14	RATTLE	1170	n/a	n/a	0	0	0
2940.5390625	n/a	WORD	6022224	wordpools/wasnorm_wordpool_576.txt	LTP357	ltpFR2	11	14	DUST	508	n/a	n/a	0	0	0
2943.3037109375	n/a	WORD	6027886	wordpools/wasnorm_wordpool_576.txt	LTP357	ltpFR2	11	14	CIGAR	308	n/a	n/a	0	0	0
2946.10205078125	n/a	WORD	6033617	wordpools/wasnorm_wordpool_576.txt	LTP357	ltpFR2	11	14	TURTLE	1522	n/a	n/a	0	0	0
2948.8017578125	n/a	WORD	6039146	wordpools/wasnorm_wordpool_576.txt	LTP357	ltpFR2	11	14	PAIL	1002	n/a	n/a	0	0	0
2951.51708984375	n/a	WORD	6044707	wordpools/wasnorm_wordpool_576.txt	LTP357	ltpFR2	11	14	OMELET	976	n/a	n/a	0	0	0
2954.28173828125	n/a	WORD	6050369	wordpools/wasnorm_wordpool_576.txt	LTP357	ltpFR2	11	14	STATUE	1374	n/a	n/a	0	0	0
2956.9638671875	n/a	WORD	6055862	wordpools/wasnorm_wordpool_576.txt	LTP357	ltpFR2	11	14	DRUG	501	n/a	n/a	0	0	0
2959.76318359375	n/a	WORD	6061595	wordpools/wasnorm_wordpool_576.txt	LTP357	ltpFR2	11	14	TABLET	1427	n/a	n/a	0	0	0
2962.56201171875	n/a	WORD	6067327	wordpools/wasnorm_wordpool_576.txt	LTP357	ltpFR2	11	14	VIKING	1565	n/a	n/a	0	0	0
2965.0771484375	n/a	WORD	6072478	wordpools/wasnorm_wordpool_576.txt	LTP357	ltpFR2	11	14	YACHT	1629	n/a	n/a	0	0	0
2967.50927734375	n/a	WORD	6077459	wordpools/wasnorm_wordpool_576.txt	LTP357	ltpFR2	11	14	COTTAGE	384	n/a	n/a	0	0	0
2970.041015625	n/a	WORD	6082644	wordpools/wasnorm_wordpool_576.txt	LTP357	ltpFR2	11	14	QUAIL	1147	n/a	n/a	0	0	0
2972.58984375	n/a	WORD	6087864	wordpools/wasnorm_wordpool_576.txt	LTP357	ltpFR2	11	14	SEAFOOD	1260	n/a	n/a	0	0	0
2975.322265625	n/a	WORD	6093460	wordpools/wasnorm_wordpool_576.txt	LTP357	ltpFR2	11	14	SPHINX	1349	n/a	n/a	0	0	0
2977.9541015625	n/a	WORD	6098850	wordpools/wasnorm_wordpool_576.txt	LTP357	ltpFR2	11	14	MAILMAN	858	n/a	n/a	0	0	0
2979.5703125	n/a	START	6102160	n/a	LTP357	ltpFR2	11	n/a	n/a	n/a	21	n/a	n/a	n/a	n/a
2980.45703125	n/a	DISTRACTOR	6103976	n/a	LTP357	ltpFR2	11	14	n/a	n/a	n/a	n/a	0	0	0
2980.46923828125	n/a	PROB	6104001	n/a	LTP357	ltpFR2	11	n/a	n/a	n/a	21	19	9	7	3
2981.76904296875	n/a	PROB	6106663	n/a	LTP357	ltpFR2	11	n/a	n/a	n/a	21	22	5	8	7
2983.484375	n/a	PROB	6110176	n/a	LTP357	ltpFR2	11	n/a	n/a	n/a	21	16	2	5	9
2985.0673828125	n/a	PROB	6113418	n/a	LTP357	ltpFR2	11	n/a	n/a	n/a	21	13	1	4	8
2987.69921875	n/a	PROB	6118808	n/a	LTP357	ltpFR2	11	n/a	n/a	n/a	21	11	1	1	9
2989.04833984375	n/a	PROB	6121571	n/a	LTP357	ltpFR2	11	n/a	n/a	n/a	21	19	6	9	4
2990.59814453125	n/a	PROB	6124745	n/a	LTP357	ltpFR2	11	n/a	n/a	n/a	21	13	4	7	2
2992.36328125	n/a	PROB	6128360	n/a	LTP357	ltpFR2	11	n/a	n/a	n/a	21	21	5	9	7
2993.81298828125	n/a	PROB	6131329	n/a	LTP357	ltpFR2	11	n/a	n/a	n/a	21	22	4	9	8
2995.56201171875	n/a	PROB	6134911	n/a	LTP357	ltpFR2	11	n/a	n/a	n/a	21	12	3	1	9
2996.96142578125	n/a	PROB	6137777	n/a	LTP357	ltpFR2	11	n/a	n/a	n/a	21	12	3	6	3
2998.81005859375	n/a	PROB	6141563	n/a	LTP357	ltpFR2	11	n/a	n/a	n/a	21	14	2	7	5
3001.30908203125	n/a	PROB	6146681	n/a	LTP357	ltpFR2	11	n/a	n/a	n/a	21	15	5	4	6
3002.47607421875	n/a	STOP	6149071	n/a	LTP357	ltpFR2	11	n/a	n/a	n/a	21	n/a	n/a	n/a	n/a
3005.50927734375	n/a	REC_START	6155283	n/a	LTP357	ltpFR2	11	14	n/a	n/a	n/a	n/a	0	0	0
3007.47607421875	n/a	REC_WORD	6159311	wordpools/wasnorm_wordpool_576.txt	LTP357	ltpFR2	11	14	QUAIL	1147	n/a	n/a	0	0	0
3008.69140625	n/a	REC_WORD	6161800	wordpools/wasnorm_wordpool_576.txt	LTP357	ltpFR2	11	14	SEAFOOD	1260	n/a	n/a	0	0	0
3009.69140625	n/a	REC_WORD_VV	6163848	wordpools/wasnorm_wordpool_576.txt	LTP357	ltpFR2	11	14	<>	-1	n/a	n/a	0	0	0
3014.79150390625	n/a	REC_WORD	6174293	wordpools/wasnorm_wordpool_576.txt	LTP357	ltpFR2	11	14	MAILMAN	858	n/a	n/a	0	0	0
3060.11865234375	n/a	REC_WORD	6267123	wordpools/wasnorm_wordpool_576.txt	LTP357	ltpFR2	11	14	CONVICT	371	n/a	n/a	0	0	0
3061.7734375	n/a	REC_WORD	6270512	wordpools/wasnorm_wordpool_576.txt	LTP357	ltpFR2	11	14	RABBIT	1152	n/a	n/a	0	0	0
3063.1396484375	n/a	REC_WORD	6273310	wordpools/wasnorm_wordpool_576.txt	LTP357	ltpFR2	11	14	RATTLE	1170	n/a	n/a	0	0	0
3066.9189453125	n/a	REC_WORD	6281050	wordpools/wasnorm_wordpool_576.txt	LTP357	ltpFR2	11	14	SHOULDER	1294	n/a	n/a	0	0	0
3067.74462890625	n/a	REC_WORD	6282741	wordpools/wasnorm_wordpool_576.txt	LTP357	ltpFR2	11	14	SCALLOP	1242	n/a	n/a	0	0	0
3071.82666015625	n/a	REC_WORD	6291101	wordpools/wasnorm_wordpool_576.txt	LTP357	ltpFR2	11	14	STATUE	1374	n/a	n/a	0	0	0
3072.82666015625	n/a	REC_WORD_VV	6293149	wordpools/wasnorm_wordpool_576.txt	LTP357	ltpFR2	11	14	<>	-1	n/a	n/a	0	0	0
3073.212890625	n/a	REC_WORD	6293940	wordpools/wasnorm_wordpool_576.txt	LTP357	ltpFR2	11	14	DRUG	501	n/a	n/a	0	0	0
3095.97998046875	n/a	WORD	6340567	wordpools/wasnorm_wordpool_576.txt	LTP357	ltpFR2	11	15	UMPIRE	1535	n/a	n/a	0	0	0
3098.77783203125	n/a	WORD	6346297	wordpools/wasnorm_wordpool_576.txt	LTP357	ltpFR2	11	15	GARBAGE	622	n/a	n/a	0	0	0
3101.44384765625	n/a	WORD	6351757	wordpools/wasnorm_wordpool_576.txt	LTP357	ltpFR2	11	15	CASHIER	254	n/a	n/a	0	0	0
3104.05908203125	n/a	WORD	6357113	wordpools/wasnorm_wordpool_576.txt	LTP357	ltpFR2	11	15	WOMAN	1620	n/a	n/a	0	0	0
3106.5078125	n/a	WORD	6362128	wordpools/wasnorm_wordpool_576.txt	LTP357	ltpFR2	11	15	FOOTBALL	591	n/a	n/a	0	0	0
3109.0068359375	n/a	WORD	6367246	wordpools/wasnorm_wordpool_576.txt	LTP357	ltpFR2	11	15	BROTHER	179	n/a	n/a	0	0	0
3111.6220703125	n/a	WORD	6372602	wordpools/wasnorm_wordpool_576.txt	LTP357	ltpFR2	11	15	CITRUS	313	n/a	n/a	0	0	0
3114.22119140625	n/a	WORD	6377925	wordpools/wasnorm_wordpool_576.txt	LTP357	ltpFR2	11	15	CLAMP	316	n/a	n/a	0	0	0
3116.65283203125	n/a	WORD	6382905	wordpools/wasnorm_wordpool_576.txt	LTP357	ltpFR2	11	15	HATCHET	691	n/a	n/a	0	0	0
3119.3681640625	n/a	WORD	6388466	wordpools/wasnorm_wordpool_576.txt	LTP357	ltpFR2	11	15	DRAWING	494	n/a	n/a	0	0	0
3121.8330078125	n/a	WORD	6393514	wordpools/wasnorm_wordpool_576.txt	LTP357	ltpFR2	11	15	CRAYON	401	n/a	n/a	0	0	0
3124.44921875	n/a	WORD	6398872	wordpools/wasnorm_wordpool_576.txt	LTP357	ltpFR2	11	15	LADY	794	n/a	n/a	0	0	0
3127.23095703125	n/a	WORD	6404569	wordpools/wasnorm_wordpool_576.txt	LTP357	ltpFR2	11	15	POSSUM	1112	n/a	n/a	0	0	0
3129.712890625	n/a	WORD	6409652	wordpools/wasnorm_wordpool_576.txt	LTP357	ltpFR2	11	15	TWEEZERS	1526	n/a	n/a	0	0	0
3132.17822265625	n/a	WORD	6414701	wordpools/wasnorm_wordpool_576.txt	LTP357	ltpFR2	11	15	BOX	159	n/a	n/a	0	0	0
3134.994140625	n/a	WORD	6420468	wordpools/wasnorm_wordpool_576.txt	LTP357	ltpFR2	11	15	STUDENT	1395	n/a	n/a	0	0	0
3137.5263671875	n/a	WORD	6425654	wordpools/wasnorm_wordpool_576.txt	LTP357	ltpFR2	11	15	APRON	35	n/a	n/a	0	0	0
3140.07421875	n/a	WORD	6430872	wordpools/wasnorm_wordpool_576.txt	LTP357	ltpFR2	11	15	COOKBOOK	373	n/a	n/a	0	0	0
3142.89013671875	n/a	WORD	6436639	wordpools/wasnorm_wordpool_576.txt	LTP357	ltpFR2	11	15	BANQUET	86	n/a	n/a	0	0	0
3145.38818359375	n/a	WORD	6441755	wordpools/wasnorm_wordpool_576.txt	LTP357	ltpFR2	11	15	PICNIC	1060	n/a	n/a	0	0	0
3148.2041015625	n/a	WORD	6447522	wordpools/wasnorm_wordpool_576.txt	LTP357	ltpFR2	11	15	SMOG	1330	n/a	n/a	0	0	0
3150.986328125	n/a	WORD	6453220	wordpools/wasnorm_wordpool_576.txt	LTP357	ltpFR2	11	15	SALT	1229	n/a	n/a	0	0	0
3153.80126953125	n/a	WORD	6458985	wordpools/wasnorm_wordpool_576.txt	LTP357	ltpFR2	11	15	POLICE	1098	n/a	n/a	0	0	0
3156.55029296875	n/a	WORD	6464615	wordpools/wasnorm_wordpool_576.txt	LTP357	ltpFR2	11	15	DRIVER	499	n/a	n/a	0	0	0
3158.16650390625	n/a	START	6467925	n/a	LTP357	ltpFR2	11	n/a	n/a	n/a	22	n/a	n/a	n/a	n/a
3159.01513671875	n/a	DISTRACTOR	6469663	n/a	LTP357	ltpFR2	11	15	n/a	n/a	n/a	n/a	0	0	0
3159.0322265625	n/a	PROB	6469698	n/a	LTP357	ltpFR2	11	n/a	n/a	n/a	22	23	6	9	8
3161.314453125	n/a	PROB	6474372	n/a	LTP357	ltpFR2	11	n/a	n/a	n/a	22	9	3	3	3
3163.24658203125	n/a	PROB	6478329	n/a	LTP357	ltpFR2	11	n/a	n/a	n/a	22	12	4	6	2
3164.34619140625	n/a	PROB	6480581	n/a	LTP357	ltpFR2	11	n/a	n/a	n/a	22	24	6	8	8
3166.3115234375	n/a	PROB	6484606	n/a	LTP357	ltpFR2	11	n/a	n/a	n/a	22	8	5	1	2
3167.8115234375	n/a	PROB	6487678	n/a	LTP357	ltpFR2	11	n/a	n/a	n/a	22	15	2	7	6
3169.193359375	n/a	PROB	6490508	n/a	LTP357	ltpFR2	11	n/a	n/a	n/a	22	22	6	7	9
3171.3095703125	n/a	PROB	6494842	n/a	LTP357	ltpFR2	11	n/a	n/a	n/a	22	20	4	9	7
3173.30859375	n/a	PROB	6498936	n/a	LTP357	ltpFR2	11	n/a	n/a	n/a	22	14	5	3	6
3174.59130859375	n/a	PROB	6501563	n/a	LTP357	ltpFR2	11	n/a	n/a	n/a	22	11	7	2	2
3175.857421875	n/a	PROB	6504156	n/a	LTP357	ltpFR2	11	n/a	n/a	n/a	22	13	6	1	6
3177.53955078125	n/a	PROB	6507601	n/a	LTP357	ltpFR2	11	n/a	n/a	n/a	22	10	5	3	2
3178.85546875	n/a	PROB	6510296	n/a	LTP357	ltpFR2	11	n/a	n/a	n/a	22	16	6	4	6
3179.83837890625	n/a	PROB	6512309	n/a	LTP357	ltpFR2	11	n/a	n/a	n/a	22	13	6	2	5
3181.09326171875	n/a	STOP	6514879	n/a	LTP357	ltpFR2	11	n/a	n/a	n/a	22	n/a	n/a	n/a	n/a
3184.021484375	n/a	REC_START	6520876	n/a	LTP357	ltpFR2	11	15	n/a	n/a	n/a	n/a	0	0	0
3188.513671875	n/a	REC_WORD	6530076	wordpools/wasnorm_wordpool_576.txt	LTP357	ltpFR2	11	15	UMPIRE	1535	n/a	n/a	0	0	0
3189.24365234375	n/a	REC_WORD	6531571	wordpools/wasnorm_wordpool_576.txt	LTP357	ltpFR2	11	15	FOOTBALL	591	n/a	n/a	0	0	0
3190.5517578125	n/a	REC_WORD	6534250	wordpools/wasnorm_wordpool_576.txt	LTP357	ltpFR2	11	15	GARBAGE	622	n/a	n/a	0	0	0
3191.36474609375	n/a	REC_WORD	6535915	wordpools/wasnorm_wordpool_576.txt	LTP357	ltpFR2	11	15	CASHIER	254	n/a	n/a	0	0	0
3192.8857421875	n/a	REC_WORD	6539030	wordpools/wasnorm_wordpool_576.txt	LTP357	ltpFR2	11	15	BROTHER	179	n/a	n/a	0	0	0
3195.318359375	n/a	REC_WORD	6544012	wordpools/wasnorm_wordpool_576.txt	LTP357	ltpFR2	11	15	POSSUM	1112	n/a	n/a	0	0	0
3196.29443359375	n/a	REC_WORD	6546011	wordpools/wasnorm_wordpool_576.txt	LTP357	ltpFR2	11	15	BOX	159	n/a	n/a	0	0	0
3197.5166015625	n/a	REC_WORD	6548514	wordpools/wasnorm_wordpool_576.txt	LTP357	ltpFR2	11	15	CITRUS	313	n/a	n/a	0	0	0
3198.90283203125	n/a	REC_WORD	6551353	wordpools/wasnorm_wordpool_576.txt	LTP357	ltpFR2	11	15	HATCHET	691	n/a	n/a	0	0	0
3200.73876953125	n/a	REC_WORD	6555113	wordpools/wasnorm_wordpool_576.txt	LTP357	ltpFR2	11	15	DRAWING	494	n/a	n/a	0	0	0
3201.7333984375	n/a	REC_WORD	6557150	wordpools/wasnorm_wordpool_576.txt	LTP357	ltpFR2	11	15	CRAYON	401	n/a	n/a	0	0	0
3203.3876953125	n/a	REC_WORD	6560538	wordpools/wasnorm_wordpool_576.txt	LTP357	ltpFR2	11	15	LADY	794	n/a	n/a	0	0	0
3209.1865234375	n/a	REC_WORD	6572414	wordpools/wasnorm_wordpool_576.txt	LTP357	ltpFR2	11	15	TWEEZERS	1526	n/a	n/a	0	0	0
3211.66259765625	n/a	REC_WORD	6577485	wordpools/wasnorm_wordpool_576.txt	LTP357	ltpFR2	11	15	APRON	35	n/a	n/a	0	0	0
3212.48974609375	n/a	REC_WORD	6579179	wordpools/wasnorm_wordpool_576.txt	LTP357	ltpFR2	11	15	COOKBOOK	373	n/a	n/a	0	0	0
3213.73291015625	n/a	REC_WORD	6581725	wordpools/wasnorm_wordpool_576.txt	LTP357	ltpFR2	11	15	BANQUET	86	n/a	n/a	0	0	0
3214.7109375	n/a	REC_WORD	6583728	wordpools/wasnorm_wordpool_576.txt	LTP357	ltpFR2	11	15	PICNIC	1060	n/a	n/a	0	0	0
3217.44677734375	n/a	REC_WORD	6589331	wordpools/wasnorm_wordpool_576.txt	LTP357	ltpFR2	11	15	POLICE	1098	n/a	n/a	0	0	0
3274.458984375	n/a	DISTRACTOR	6706092	n/a	LTP357	ltpFR2	11	16	n/a	n/a	n/a	n/a	0	0	0
3274.458984375	n/a	START	6706092	n/a	LTP357	ltpFR2	11	n/a	n/a	n/a	23	n/a	n/a	n/a	n/a
3274.47509765625	n/a	PROB	6706125	n/a	LTP357	ltpFR2	11	n/a	n/a	n/a	23	22	9	5	8
3277.22412109375	n/a	PROB	6711755	n/a	LTP357	ltpFR2	11	n/a	n/a	n/a	23	15	3	6	6
3278.490234375	n/a	PROB	6714348	n/a	LTP357	ltpFR2	11	n/a	n/a	n/a	23	25	9	7	9
3280.1552734375	n/a	PROB	6717758	n/a	LTP357	ltpFR2	11	n/a	n/a	n/a	23	19	6	7	6
3283.0380859375	n/a	PROB	6723662	n/a	LTP357	ltpFR2	11	n/a	n/a	n/a	23	17	6	5	6
3284.63720703125	n/a	PROB	6726937	n/a	LTP357	ltpFR2	11	n/a	n/a	n/a	23	18	5	9	4
3285.986328125	n/a	PROB	6729700	n/a	LTP357	ltpFR2	11	n/a	n/a	n/a	23	18	7	4	7
3287.30224609375	n/a	PROB	6732395	n/a	LTP357	ltpFR2	11	n/a	n/a	n/a	23	8	2	2	4
3288.40234375	n/a	PROB	6734648	n/a	LTP357	ltpFR2	11	n/a	n/a	n/a	23	21	9	7	5
3291.8330078125	n/a	PROB	6741674	n/a	LTP357	ltpFR2	11	n/a	n/a	n/a	23	11	1	5	5
3294.232421875	n/a	PROB	6746588	n/a	LTP357	ltpFR2	11	n/a	n/a	n/a	23	19	5	9	5
3296.1982421875	n/a	PROB	6750614	n/a	LTP357	ltpFR2	11	n/a	n/a	n/a	23	18	4	5	9
3297.7744140625	n/a	STOP	6753842	n/a	LTP357	ltpFR2	11	n/a	n/a	n/a	23	n/a	n/a	n/a	n/a
3299.48046875	n/a	WORD	6757336	wordpools/wasnorm_wordpool_576.txt	LTP357	ltpFR2	11	16	PEDAL	1037	n/a	n/a	0	0	0
3301.912109375	n/a	WORD	6762316	wordpools/wasnorm_wordpool_576.txt	LTP357	ltpFR2	11	16	BUCKET	184	n/a	n/a	0	0	0
3304.4775390625	n/a	WORD	6767570	wordpools/wasnorm_wordpool_576.txt	LTP357	ltpFR2	11	16	KIDNEY	776	n/a	n/a	0	0	0
3307.25927734375	n/a	WORD	6773267	wordpools/wasnorm_wordpool_576.txt	LTP357	ltpFR2	11	16	PLIERS	1089	n/a	n/a	0	0	0
3310.05810546875	n/a	WORD	6778999	wordpools/wasnorm_wordpool_576.txt	LTP357	ltpFR2	11	16	LOFT	840	n/a	n/a	0	0	0
3312.84033203125	n/a	WORD	6784697	wordpools/wasnorm_wordpool_576.txt	LTP357	ltpFR2	11	16	DORM	488	n/a	n/a	0	0	0
3315.48828125	n/a	WORD	6790120	wordpools/wasnorm_wordpool_576.txt	LTP357	ltpFR2	11	16	WAITRESS	1581	n/a	n/a	0	0	0
3317.95458984375	n/a	WORD	6795171	wordpools/wasnorm_wordpool_576.txt	LTP357	ltpFR2	11	16	SANDWICH	1232	n/a	n/a	0	0	0
3320.71923828125	n/a	WORD	6800833	wordpools/wasnorm_wordpool_576.txt	LTP357	ltpFR2	11	16	IGLOO	734	n/a	n/a	0	0	0
3323.30126953125	n/a	WORD	6806121	wordpools/wasnorm_wordpool_576.txt	LTP357	ltpFR2	11	16	ICEBERG	731	n/a	n/a	0	0	0
3326.0166015625	n/a	WORD	6811682	wordpools/wasnorm_wordpool_576.txt	LTP357	ltpFR2	11	16	ANTLER	29	n/a	n/a	0	0	0
3328.8154296875	n/a	WORD	6817414	wordpools/wasnorm_wordpool_576.txt	LTP357	ltpFR2	11	16	HAMPER	682	n/a	n/a	0	0	0
3331.5302734375	n/a	WORD	6822974	wordpools/wasnorm_wordpool_576.txt	LTP357	ltpFR2	11	16	FRIAR	605	n/a	n/a	0	0	0
3334.32958984375	n/a	WORD	6828707	wordpools/wasnorm_wordpool_576.txt	LTP357	ltpFR2	11	16	WORKER	1621	n/a	n/a	0	0	0
3336.99462890625	n/a	WORD	6834165	wordpools/wasnorm_wordpool_576.txt	LTP357	ltpFR2	11	16	COLONEL	348	n/a	n/a	0	0	0
3339.7265625	n/a	WORD	6839760	wordpools/wasnorm_wordpool_576.txt	LTP357	ltpFR2	11	16	WRENCH	1625	n/a	n/a	0	0	0
3342.45849609375	n/a	WORD	6845355	wordpools/wasnorm_wordpool_576.txt	LTP357	ltpFR2	11	16	CANYON	235	n/a	n/a	0	0	0
3345.15673828125	n/a	WORD	6850881	wordpools/wasnorm_wordpool_576.txt	LTP357	ltpFR2	11	16	BEAVER	109	n/a	n/a	0	0	0
3347.83935546875	n/a	WORD	6856375	wordpools/wasnorm_wordpool_576.txt	LTP357	ltpFR2	11	16	HEDGE	699	n/a	n/a	0	0	0
3350.32177734375	n/a	WORD	6861459	wordpools/wasnorm_wordpool_576.txt	LTP357	ltpFR2	11	16	BEEF	113	n/a	n/a	0	0	0
3352.75341796875	n/a	WORD	6866439	wordpools/wasnorm_wordpool_576.txt	LTP357	ltpFR2	11	16	FLEET	578	n/a	n/a	0	0	0
3355.23583984375	n/a	WORD	6871523	wordpools/wasnorm_wordpool_576.txt	LTP357	ltpFR2	11	16	QUEEN	1149	n/a	n/a	0	0	0
3357.9677734375	n/a	WORD	6877118	wordpools/wasnorm_wordpool_576.txt	LTP357	ltpFR2	11	16	SNAKE	1333	n/a	n/a	0	0	0
3360.39990234375	n/a	WORD	6882099	wordpools/wasnorm_wordpool_576.txt	LTP357	ltpFR2	11	16	TYPIST	1532	n/a	n/a	0	0	0
3362.015625	n/a	START	6885408	n/a	LTP357	ltpFR2	11	n/a	n/a	n/a	24	n/a	n/a	n/a	n/a
3363.10791015625	n/a	DISTRACTOR	6887645	n/a	LTP357	ltpFR2	11	16	n/a	n/a	n/a	n/a	0	0	0
3363.11474609375	n/a	PROB	6887659	n/a	LTP357	ltpFR2	11	n/a	n/a	n/a	24	24	9	8	7
3365.0478515625	n/a	PROB	6891618	n/a	LTP357	ltpFR2	11	n/a	n/a	n/a	24	9	4	1	4
3366.28076171875	n/a	PROB	6894143	n/a	LTP357	ltpFR2	11	n/a	n/a	n/a	24	8	1	6	1
3367.3134765625	n/a	PROB	6896258	n/a	LTP357	ltpFR2	11	n/a	n/a	n/a	24	16	6	6	4
3368.66259765625	n/a	PROB	6899021	n/a	LTP357	ltpFR2	11	n/a	n/a	n/a	24	11	2	1	8
3369.845703125	n/a	PROB	6901444	n/a	LTP357	ltpFR2	11	n/a	n/a	n/a	24	10	3	1	6
3371.19482421875	n/a	PROB	6904207	n/a	LTP357	ltpFR2	11	n/a	n/a	n/a	24	16	8	4	4
3372.6435546875	n/a	PROB	6907174	n/a	LTP357	ltpFR2	11	n/a	n/a	n/a	24	14	2	5	7
3374.35986328125	n/a	PROB	6910689	n/a	LTP357	ltpFR2	11	n/a	n/a	n/a	24	7	3	1	3
3376.40869140625	n/a	PROB	6914885	n/a	LTP357	ltpFR2	11	n/a	n/a	n/a	24	8	1	5	2
3378.10693359375	n/a	PROB	6918363	n/a	LTP357	ltpFR2	11	n/a	n/a	n/a	24	13	1	3	9
3379.60791015625	n/a	PROB	6921437	n/a	LTP357	ltpFR2	11	n/a	n/a	n/a	24	21	9	3	9
3381.7060546875	n/a	PROB	6925734	n/a	LTP357	ltpFR2	11	n/a	n/a	n/a	24	22	9	7	6
3383.505859375	n/a	PROB	6929420	n/a	LTP357	ltpFR2	11	n/a	n/a	n/a	24	12	7	2	3
3385.7666015625	n/a	STOP	6934050	n/a	LTP357	ltpFR2	11	n/a	n/a	n/a	24	n/a	n/a	n/a	n/a
3387.77099609375	n/a	REC_START	6938155	n/a	LTP357	ltpFR2	11	16	n/a	n/a	n/a	n/a	0	0	0
3388.74462890625	n/a	REC_WORD	6940149	wordpools/wasnorm_wordpool_576.txt	LTP357	ltpFR2	11	16	FRIAR	605	n/a	n/a	0	0	0
3389.45068359375	n/a	REC_WORD	6941595	wordpools/wasnorm_wordpool_576.txt	LTP357	ltpFR2	11	16	HEDGE	699	n/a	n/a	0	0	0
3390.35498046875	n/a	REC_WORD	6943447	wordpools/wasnorm_wordpool_576.txt	LTP357	ltpFR2	11	16	QUEEN	1149	n/a	n/a	0	0	0
3393.6611328125	n/a	REC_WORD	6950218	wordpools/wasnorm_wordpool_576.txt	LTP357	ltpFR2	11	16	PAIL	1002	n/a	n/a	0	0	0
3394.8388671875	n/a	REC_WORD	6952630	wordpools/wasnorm_wordpool_576.txt	LTP357	ltpFR2	11	16	PEDAL	1037	n/a	n/a	0	0	0
