mstime	trial_type	stim_file	subject	experiment	session	trial	item_name	item_num	list	answer	test_x	test_y	test_z
0	SESS_START	n/a	LTP290	ltpFR2	13	n/a	n/a	n/a	n/a	n/a	0	0	0
14302	START	n/a	LTP290	ltpFR2	13	n/a	n/a	n/a	-1	n/a	n/a	n/a	n/a
14352	PROB	n/a	LTP290	ltpFR2	13	n/a	n/a	n/a	-1	20	7	7	6
16405	PROB	n/a	LTP290	ltpFR2	13	n/a	n/a	n/a	-1	18	7	9	2
18095	PROB	n/a	LTP290	ltpFR2	13	n/a	n/a	n/a	-1	12	4	3	5
19287	PROB	n/a	LTP290	ltpFR2	13	n/a	n/a	n/a	-1	14	5	2	7
20910	PROB	n/a	LTP290	ltpFR2	13	n/a	n/a	n/a	-1	13	8	3	2
22617	PROB	n/a	LTP290	ltpFR2	13	n/a	n/a	n/a	-1	15	5	7	3
26302	STOP	n/a	LTP290	ltpFR2	13	n/a	n/a	n/a	-1	n/a	n/a	n/a	n/a
56829	DISTRACTOR	n/a	LTP290	ltpFR2	13	1	n/a	n/a	n/a	n/a	0	0	0
56829	START	n/a	LTP290	ltpFR2	13	n/a	n/a	n/a	1	n/a	n/a	n/a	n/a
56879	PROB	n/a	LTP290	ltpFR2	13	n/a	n/a	n/a	1	12	2	3	7
58033	PROB	n/a	LTP290	ltpFR2	13	n/a	n/a	n/a	1	16	6	6	4
59573	PROB	n/a	LTP290	ltpFR2	13	n/a	n/a	n/a	1	20	9	9	2
61028	PROB	n/a	LTP290	ltpFR2	13	n/a	n/a	n/a	1	15	8	6	1
62484	PROB	n/a	LTP290	ltpFR2	13	n/a	n/a	n/a	1	21	6	8	7
64257	PROB	n/a	LTP290	ltpFR2	13	n/a	n/a	n/a	1	4	2	1	1
65406	PROB	n/a	LTP290	ltpFR2	13	n/a	n/a	n/a	1	16	9	6	1
67101	PROB	n/a	LTP290	ltpFR2	13	n/a	n/a	n/a	1	18	9	4	5
69159	PROB	n/a	LTP290	ltpFR2	13	n/a	n/a	n/a	1	23	8	6	9
71032	PROB	n/a	LTP290	ltpFR2	13	n/a	n/a	n/a	1	17	5	7	5
72851	PROB	n/a	LTP290	ltpFR2	13	n/a	n/a	n/a	1	7	1	4	2
75243	PROB	n/a	LTP290	ltpFR2	13	n/a	n/a	n/a	1	10	5	3	2
77490	PROB	n/a	LTP290	ltpFR2	13	n/a	n/a	n/a	1	24	8	9	7
79141	PROB	n/a	LTP290	ltpFR2	13	n/a	n/a	n/a	1	12	3	2	7
80235	STOP	n/a	LTP290	ltpFR2	13	n/a	n/a	n/a	1	n/a	n/a	n/a	n/a
82041	WORD	wordpools/wasnorm_wordpool_576.txt	LTP290	ltpFR2	13	1	OX	994	n/a	n/a	0	0	0
84716	WORD	wordpools/wasnorm_wordpool_576.txt	LTP290	ltpFR2	13	1	GANGSTER	620	n/a	n/a	0	0	0
87528	WORD	wordpools/wasnorm_wordpool_576.txt	LTP290	ltpFR2	13	1	RUG	1215	n/a	n/a	0	0	0
90350	WORD	wordpools/wasnorm_wordpool_576.txt	LTP290	ltpFR2	13	1	CREATURE	403	n/a	n/a	0	0	0
92848	WORD	wordpools/wasnorm_wordpool_576.txt	LTP290	ltpFR2	13	1	TOMBSTONE	1478	n/a	n/a	0	0	0
95642	WORD	wordpools/wasnorm_wordpool_576.txt	LTP290	ltpFR2	13	1	CITRUS	313	n/a	n/a	0	0	0
98402	WORD	wordpools/wasnorm_wordpool_576.txt	LTP290	ltpFR2	13	1	KNIFE	785	n/a	n/a	0	0	0
101062	WORD	wordpools/wasnorm_wordpool_576.txt	LTP290	ltpFR2	13	1	VICTIM	1562	n/a	n/a	0	0	0
103666	WORD	wordpools/wasnorm_wordpool_576.txt	LTP290	ltpFR2	13	1	CATTLE	261	n/a	n/a	0	0	0
106248	WORD	wordpools/wasnorm_wordpool_576.txt	LTP290	ltpFR2	13	1	COCOON	339	n/a	n/a	0	0	0
109026	WORD	wordpools/wasnorm_wordpool_576.txt	LTP290	ltpFR2	13	1	PLUTO	1092	n/a	n/a	0	0	0
111580	WORD	wordpools/wasnorm_wordpool_576.txt	LTP290	ltpFR2	13	1	TURKEY	1520	n/a	n/a	0	0	0
114240	WORD	wordpools/wasnorm_wordpool_576.txt	LTP290	ltpFR2	13	1	CRUTCH	417	n/a	n/a	0	0	0
116738	WORD	wordpools/wasnorm_wordpool_576.txt	LTP290	ltpFR2	13	1	POPCORN	1104	n/a	n/a	0	0	0
119527	WORD	wordpools/wasnorm_wordpool_576.txt	LTP290	ltpFR2	13	1	ACTRESS	6	n/a	n/a	0	0	0
122304	WORD	wordpools/wasnorm_wordpool_576.txt	LTP290	ltpFR2	13	1	NAPKIN	937	n/a	n/a	0	0	0
125019	WORD	wordpools/wasnorm_wordpool_576.txt	LTP290	ltpFR2	13	1	FLESH	579	n/a	n/a	0	0	0
127678	WORD	wordpools/wasnorm_wordpool_576.txt	LTP290	ltpFR2	13	1	CARROT	249	n/a	n/a	0	0	0
130105	WORD	wordpools/wasnorm_wordpool_576.txt	LTP290	ltpFR2	13	1	BUNNY	198	n/a	n/a	0	0	0
132827	WORD	wordpools/wasnorm_wordpool_576.txt	LTP290	ltpFR2	13	1	SHELF	1280	n/a	n/a	0	0	0
135308	WORD	wordpools/wasnorm_wordpool_576.txt	LTP290	ltpFR2	13	1	BIKE	125	n/a	n/a	0	0	0
138068	WORD	wordpools/wasnorm_wordpool_576.txt	LTP290	ltpFR2	13	1	BASEMENT	94	n/a	n/a	0	0	0
140829	WORD	wordpools/wasnorm_wordpool_576.txt	LTP290	ltpFR2	13	1	SALT	1229	n/a	n/a	0	0	0
143405	WORD	wordpools/wasnorm_wordpool_576.txt	LTP290	ltpFR2	13	1	MAMMAL	861	n/a	n/a	0	0	0
145011	START	n/a	LTP290	ltpFR2	13	n/a	n/a	n/a	2	n/a	n/a	n/a	n/a
145814	DISTRACTOR	n/a	LTP290	ltpFR2	13	1	n/a	n/a	n/a	n/a	0	0	0
145831	PROB	n/a	LTP290	ltpFR2	13	n/a	n/a	n/a	2	15	1	9	5
147270	PROB	n/a	LTP290	ltpFR2	13	n/a	n/a	n/a	2	10	8	1	1
148453	PROB	n/a	LTP290	ltpFR2	13	n/a	n/a	n/a	2	19	7	3	9
149673	PROB	n/a	LTP290	ltpFR2	13	n/a	n/a	n/a	2	21	9	3	9
151753	PROB	n/a	LTP290	ltpFR2	13	n/a	n/a	n/a	2	19	4	7	8
153438	PROB	n/a	LTP290	ltpFR2	13	n/a	n/a	n/a	2	17	9	6	2
155144	PROB	n/a	LTP290	ltpFR2	13	n/a	n/a	n/a	2	20	9	8	3
156834	PROB	n/a	LTP290	ltpFR2	13	n/a	n/a	n/a	2	11	1	3	7
157972	PROB	n/a	LTP290	ltpFR2	13	n/a	n/a	n/a	2	14	4	3	7
159711	PROB	n/a	LTP290	ltpFR2	13	n/a	n/a	n/a	2	15	3	4	8
161268	PROB	n/a	LTP290	ltpFR2	13	n/a	n/a	n/a	2	11	3	5	3
163426	PROB	n/a	LTP290	ltpFR2	13	n/a	n/a	n/a	2	9	2	5	2
165132	PROB	n/a	LTP290	ltpFR2	13	n/a	n/a	n/a	2	14	3	4	7
166437	PROB	n/a	LTP290	ltpFR2	13	n/a	n/a	n/a	2	17	3	8	6
167851	STOP	n/a	LTP290	ltpFR2	13	n/a	n/a	n/a	2	n/a	n/a	n/a	n/a
170888	REC_START	n/a	LTP290	ltpFR2	13	1	n/a	n/a	n/a	n/a	0	0	0
172041	REC_WORD	wordpools/wasnorm_wordpool_576.txt	LTP290	ltpFR2	13	1	OX	994	n/a	n/a	0	0	0
172603	REC_WORD	wordpools/wasnorm_wordpool_576.txt	LTP290	ltpFR2	13	1	GANGSTER	620	n/a	n/a	0	0	0
173485	REC_WORD	wordpools/wasnorm_wordpool_576.txt	LTP290	ltpFR2	13	1	RUG	1215	n/a	n/a	0	0	0
175840	REC_WORD	wordpools/wasnorm_wordpool_576.txt	LTP290	ltpFR2	13	1	CREATURE	403	n/a	n/a	0	0	0
176520	REC_WORD	wordpools/wasnorm_wordpool_576.txt	LTP290	ltpFR2	13	1	TOMBSTONE	1478	n/a	n/a	0	0	0
177818	REC_WORD	wordpools/wasnorm_wordpool_576.txt	LTP290	ltpFR2	13	1	BUNNY	198	n/a	n/a	0	0	0
178980	REC_WORD	wordpools/wasnorm_wordpool_576.txt	LTP290	ltpFR2	13	1	CARROT	249	n/a	n/a	0	0	0
179590	REC_WORD	wordpools/wasnorm_wordpool_576.txt	LTP290	ltpFR2	13	1	SHELF	1280	n/a	n/a	0	0	0
261935	WORD	wordpools/wasnorm_wordpool_576.txt	LTP290	ltpFR2	13	2	MOTEL	919	n/a	n/a	0	0	0
264612	WORD	wordpools/wasnorm_wordpool_576.txt	LTP290	ltpFR2	13	2	WRENCH	1625	n/a	n/a	0	0	0
267289	WORD	wordpools/wasnorm_wordpool_576.txt	LTP290	ltpFR2	13	2	TOASTER	1472	n/a	n/a	0	0	0
269882	WORD	wordpools/wasnorm_wordpool_576.txt	LTP290	ltpFR2	13	2	BUGGY	188	n/a	n/a	0	0	0
272592	WORD	wordpools/wasnorm_wordpool_576.txt	LTP290	ltpFR2	13	2	CURTAIN	427	n/a	n/a	0	0	0
275097	WORD	wordpools/wasnorm_wordpool_576.txt	LTP290	ltpFR2	13	2	WINDOW	1611	n/a	n/a	0	0	0
277644	WORD	wordpools/wasnorm_wordpool_576.txt	LTP290	ltpFR2	13	2	TRUCK	1512	n/a	n/a	0	0	0
280204	WORD	wordpools/wasnorm_wordpool_576.txt	LTP290	ltpFR2	13	2	MUFFIN	929	n/a	n/a	0	0	0
282657	WORD	wordpools/wasnorm_wordpool_576.txt	LTP290	ltpFR2	13	2	TEACHER	1440	n/a	n/a	0	0	0
285252	WORD	wordpools/wasnorm_wordpool_576.txt	LTP290	ltpFR2	13	2	IGLOO	734	n/a	n/a	0	0	0
287766	WORD	wordpools/wasnorm_wordpool_576.txt	LTP290	ltpFR2	13	2	MESSAGE	888	n/a	n/a	0	0	0
290275	WORD	wordpools/wasnorm_wordpool_576.txt	LTP290	ltpFR2	13	2	LADDER	793	n/a	n/a	0	0	0
292931	WORD	wordpools/wasnorm_wordpool_576.txt	LTP290	ltpFR2	13	2	HEADBAND	696	n/a	n/a	0	0	0
295690	WORD	wordpools/wasnorm_wordpool_576.txt	LTP290	ltpFR2	13	2	CHEST	295	n/a	n/a	0	0	0
298468	WORD	wordpools/wasnorm_wordpool_576.txt	LTP290	ltpFR2	13	2	CREVICE	405	n/a	n/a	0	0	0
300999	WORD	wordpools/wasnorm_wordpool_576.txt	LTP290	ltpFR2	13	2	WAGON	1578	n/a	n/a	0	0	0
303810	WORD	wordpools/wasnorm_wordpool_576.txt	LTP290	ltpFR2	13	2	BEAKER	104	n/a	n/a	0	0	0
306319	WORD	wordpools/wasnorm_wordpool_576.txt	LTP290	ltpFR2	13	2	CASKET	255	n/a	n/a	0	0	0
308829	WORD	wordpools/wasnorm_wordpool_576.txt	LTP290	ltpFR2	13	2	STUDENT	1395	n/a	n/a	0	0	0
311639	WORD	wordpools/wasnorm_wordpool_576.txt	LTP290	ltpFR2	13	2	MAILBOX	857	n/a	n/a	0	0	0
314328	WORD	wordpools/wasnorm_wordpool_576.txt	LTP290	ltpFR2	13	2	LAPEL	800	n/a	n/a	0	0	0
317093	WORD	wordpools/wasnorm_wordpool_576.txt	LTP290	ltpFR2	13	2	DENIM	446	n/a	n/a	0	0	0
319920	WORD	wordpools/wasnorm_wordpool_576.txt	LTP290	ltpFR2	13	2	BRAKE	166	n/a	n/a	0	0	0
322559	WORD	wordpools/wasnorm_wordpool_576.txt	LTP290	ltpFR2	13	2	POCKET	1093	n/a	n/a	0	0	0
324170	START	n/a	LTP290	ltpFR2	13	n/a	n/a	n/a	3	n/a	n/a	n/a	n/a
325280	DISTRACTOR	n/a	LTP290	ltpFR2	13	2	n/a	n/a	n/a	n/a	0	0	0
325291	PROB	n/a	LTP290	ltpFR2	13	n/a	n/a	n/a	3	12	6	2	4
327344	PROB	n/a	LTP290	ltpFR2	13	n/a	n/a	n/a	3	13	4	1	8
328664	PROB	n/a	LTP290	ltpFR2	13	n/a	n/a	n/a	3	14	2	7	5
330137	PROB	n/a	LTP290	ltpFR2	13	n/a	n/a	n/a	3	13	4	6	3
331258	PROB	n/a	LTP290	ltpFR2	13	n/a	n/a	n/a	3	15	6	6	3
332580	PROB	n/a	LTP290	ltpFR2	13	n/a	n/a	n/a	3	15	8	2	5
334136	PROB	n/a	LTP290	ltpFR2	13	n/a	n/a	n/a	3	15	7	2	6
336165	PROB	n/a	LTP290	ltpFR2	13	n/a	n/a	n/a	3	14	4	4	6
337900	PROB	n/a	LTP290	ltpFR2	13	n/a	n/a	n/a	3	18	8	9	1
339372	PROB	n/a	LTP290	ltpFR2	13	n/a	n/a	n/a	3	17	5	5	7
340828	PROB	n/a	LTP290	ltpFR2	13	n/a	n/a	n/a	3	13	6	3	4
342874	PROB	n/a	LTP290	ltpFR2	13	n/a	n/a	n/a	3	25	8	8	9
344642	PROB	n/a	LTP290	ltpFR2	13	n/a	n/a	n/a	3	16	9	4	3
346616	PROB	n/a	LTP290	ltpFR2	13	n/a	n/a	n/a	3	12	3	5	4
347859	STOP	n/a	LTP290	ltpFR2	13	n/a	n/a	n/a	3	n/a	n/a	n/a	n/a
350047	REC_START	n/a	LTP290	ltpFR2	13	2	n/a	n/a	n/a	n/a	0	0	0
356573	REC_WORD_VV	wordpools/wasnorm_wordpool_576.txt	LTP290	ltpFR2	13	2	<>	-1	n/a	n/a	0	0	0
357233	REC_WORD	wordpools/wasnorm_wordpool_576.txt	LTP290	ltpFR2	13	2	TOASTER	1472	n/a	n/a	0	0	0
357742	REC_WORD	wordpools/wasnorm_wordpool_576.txt	LTP290	ltpFR2	13	2	CURTAIN	427	n/a	n/a	0	0	0
358379	REC_WORD	wordpools/wasnorm_wordpool_576.txt	LTP290	ltpFR2	13	2	WINDOW	1611	n/a	n/a	0	0	0
359105	REC_WORD	wordpools/wasnorm_wordpool_576.txt	LTP290	ltpFR2	13	2	BUGGY	188	n/a	n/a	0	0	0
363345	REC_WORD	wordpools/wasnorm_wordpool_576.txt	LTP290	ltpFR2	13	2	TRUCK	1512	n/a	n/a	0	0	0
364879	REC_WORD	wordpools/wasnorm_wordpool_576.txt	LTP290	ltpFR2	13	2	MUFFIN	929	n/a	n/a	0	0	0
365339	REC_WORD	wordpools/wasnorm_wordpool_576.txt	LTP290	ltpFR2	13	2	TEACHER	1440	n/a	n/a	0	0	0
366034	REC_WORD	wordpools/wasnorm_wordpool_576.txt	LTP290	ltpFR2	13	2	IGLOO	734	n/a	n/a	0	0	0
368287	REC_WORD	wordpools/wasnorm_wordpool_576.txt	LTP290	ltpFR2	13	2	MESSAGE	888	n/a	n/a	0	0	0
371693	REC_WORD	wordpools/wasnorm_wordpool_576.txt	LTP290	ltpFR2	13	2	LADDER	793	n/a	n/a	0	0	0
372100	REC_WORD	wordpools/wasnorm_wordpool_576.txt	LTP290	ltpFR2	13	2	HEADBAND	696	n/a	n/a	0	0	0
372694	REC_WORD	wordpools/wasnorm_wordpool_576.txt	LTP290	ltpFR2	13	2	CHEST	295	n/a	n/a	0	0	0
373208	REC_WORD	wordpools/wasnorm_wordpool_576.txt	LTP290	ltpFR2	13	2	CREVICE	405	n/a	n/a	0	0	0
441127	DISTRACTOR	n/a	LTP290	ltpFR2	13	3	n/a	n/a	n/a	n/a	0	0	0
441127	START	n/a	LTP290	ltpFR2	13	n/a	n/a	n/a	4	n/a	n/a	n/a	n/a
441177	PROB	n/a	LTP290	ltpFR2	13	n/a	n/a	n/a	4	14	2	5	7
442644	PROB	n/a	LTP290	ltpFR2	13	n/a	n/a	n/a	4	18	9	6	3
444189	PROB	n/a	LTP290	ltpFR2	13	n/a	n/a	n/a	4	15	6	6	3
445539	PROB	n/a	LTP290	ltpFR2	13	n/a	n/a	n/a	4	13	1	8	4
450546	PROB	n/a	LTP290	ltpFR2	13	n/a	n/a	n/a	4	17	8	7	2
453051	PROB	n/a	LTP290	ltpFR2	13	n/a	n/a	n/a	4	13	2	7	4
457116	PROB	n/a	LTP290	ltpFR2	13	n/a	n/a	n/a	4	17	5	6	6
458588	PROB	n/a	LTP290	ltpFR2	13	n/a	n/a	n/a	4	24	6	9	6
460211	PROB	n/a	LTP290	ltpFR2	13	n/a	n/a	n/a	4	10	2	1	7
461767	PROB	n/a	LTP290	ltpFR2	13	n/a	n/a	n/a	4	13	1	8	4
463356	PROB	n/a	LTP290	ltpFR2	13	n/a	n/a	n/a	4	15	9	2	4
464555	STOP	n/a	LTP290	ltpFR2	13	n/a	n/a	n/a	4	n/a	n/a	n/a	n/a
466105	WORD	wordpools/wasnorm_wordpool_576.txt	LTP290	ltpFR2	13	3	BINDER	127	n/a	n/a	0	0	0
468832	WORD	wordpools/wasnorm_wordpool_576.txt	LTP290	ltpFR2	13	3	SIBLING	1301	n/a	n/a	0	0	0
471475	WORD	wordpools/wasnorm_wordpool_576.txt	LTP290	ltpFR2	13	3	QUARTER	1148	n/a	n/a	0	0	0
474063	WORD	wordpools/wasnorm_wordpool_576.txt	LTP290	ltpFR2	13	3	DIME	466	n/a	n/a	0	0	0
476778	WORD	wordpools/wasnorm_wordpool_576.txt	LTP290	ltpFR2	13	3	EMPIRE	530	n/a	n/a	0	0	0
479305	WORD	wordpools/wasnorm_wordpool_576.txt	LTP290	ltpFR2	13	3	GAVEL	627	n/a	n/a	0	0	0
482060	WORD	wordpools/wasnorm_wordpool_576.txt	LTP290	ltpFR2	13	3	PASTRY	1022	n/a	n/a	0	0	0
484758	WORD	wordpools/wasnorm_wordpool_576.txt	LTP290	ltpFR2	13	3	ROBIN	1199	n/a	n/a	0	0	0
487251	WORD	wordpools/wasnorm_wordpool_576.txt	LTP290	ltpFR2	13	3	DAUGHTER	442	n/a	n/a	0	0	0
489704	WORD	wordpools/wasnorm_wordpool_576.txt	LTP290	ltpFR2	13	3	JEANS	752	n/a	n/a	0	0	0
492165	WORD	wordpools/wasnorm_wordpool_576.txt	LTP290	ltpFR2	13	3	KNAPSACK	783	n/a	n/a	0	0	0
494975	WORD	wordpools/wasnorm_wordpool_576.txt	LTP290	ltpFR2	13	3	RELISH	1183	n/a	n/a	0	0	0
497635	WORD	wordpools/wasnorm_wordpool_576.txt	LTP290	ltpFR2	13	3	PUDDING	1139	n/a	n/a	0	0	0
500195	WORD	wordpools/wasnorm_wordpool_576.txt	LTP290	ltpFR2	13	3	GROUND	666	n/a	n/a	0	0	0
502653	WORD	wordpools/wasnorm_wordpool_576.txt	LTP290	ltpFR2	13	3	VIRUS	1572	n/a	n/a	0	0	0
505085	WORD	wordpools/wasnorm_wordpool_576.txt	LTP290	ltpFR2	13	3	BANQUET	86	n/a	n/a	0	0	0
507640	WORD	wordpools/wasnorm_wordpool_576.txt	LTP290	ltpFR2	13	3	CUPBOARD	425	n/a	n/a	0	0	0
510288	WORD	wordpools/wasnorm_wordpool_576.txt	LTP290	ltpFR2	13	3	DANCER	437	n/a	n/a	0	0	0
513015	WORD	wordpools/wasnorm_wordpool_576.txt	LTP290	ltpFR2	13	3	DRIVER	499	n/a	n/a	0	0	0
515641	WORD	wordpools/wasnorm_wordpool_576.txt	LTP290	ltpFR2	13	3	HIGHWAY	707	n/a	n/a	0	0	0
518280	WORD	wordpools/wasnorm_wordpool_576.txt	LTP290	ltpFR2	13	3	TUTU	1524	n/a	n/a	0	0	0
521028	WORD	wordpools/wasnorm_wordpool_576.txt	LTP290	ltpFR2	13	3	GRAVEL	659	n/a	n/a	0	0	0
523538	WORD	wordpools/wasnorm_wordpool_576.txt	LTP290	ltpFR2	13	3	SCARECROW	1245	n/a	n/a	0	0	0
525997	WORD	wordpools/wasnorm_wordpool_576.txt	LTP290	ltpFR2	13	3	FRAGRANCE	599	n/a	n/a	0	0	0
527603	START	n/a	LTP290	ltpFR2	13	n/a	n/a	n/a	5	n/a	n/a	n/a	n/a
528753	DISTRACTOR	n/a	LTP290	ltpFR2	13	3	n/a	n/a	n/a	n/a	0	0	0
528769	PROB	n/a	LTP290	ltpFR2	13	n/a	n/a	n/a	5	16	1	7	8
531100	PROB	n/a	LTP290	ltpFR2	13	n/a	n/a	n/a	5	19	9	2	8
532683	PROB	n/a	LTP290	ltpFR2	13	n/a	n/a	n/a	5	16	9	5	2
534245	PROB	n/a	LTP290	ltpFR2	13	n/a	n/a	n/a	5	15	2	7	6
535699	PROB	n/a	LTP290	ltpFR2	13	n/a	n/a	n/a	5	12	7	1	4
537017	PROB	n/a	LTP290	ltpFR2	13	n/a	n/a	n/a	5	10	2	3	5
539844	PROB	n/a	LTP290	ltpFR2	13	n/a	n/a	n/a	5	17	4	4	9
541635	PROB	n/a	LTP290	ltpFR2	13	n/a	n/a	n/a	5	6	3	1	2
545499	PROB	n/a	LTP290	ltpFR2	13	n/a	n/a	n/a	5	16	3	8	5
548276	PROB	n/a	LTP290	ltpFR2	13	n/a	n/a	n/a	5	14	3	5	6
550803	STOP	n/a	LTP290	ltpFR2	13	n/a	n/a	n/a	5	n/a	n/a	n/a	n/a
553396	REC_START	n/a	LTP290	ltpFR2	13	3	n/a	n/a	n/a	n/a	0	0	0
555403	REC_WORD_VV	wordpools/wasnorm_wordpool_576.txt	LTP290	ltpFR2	13	3	<>	-1	n/a	n/a	0	0	0
556023	REC_WORD	wordpools/wasnorm_wordpool_576.txt	LTP290	ltpFR2	13	3	RELISH	1183	n/a	n/a	0	0	0
556537	REC_WORD	wordpools/wasnorm_wordpool_576.txt	LTP290	ltpFR2	13	3	PUDDING	1139	n/a	n/a	0	0	0
557049	REC_WORD	wordpools/wasnorm_wordpool_576.txt	LTP290	ltpFR2	13	3	GROUND	666	n/a	n/a	0	0	0
557686	REC_WORD	wordpools/wasnorm_wordpool_576.txt	LTP290	ltpFR2	13	3	VIRUS	1572	n/a	n/a	0	0	0
644444	WORD	wordpools/wasnorm_wordpool_576.txt	LTP290	ltpFR2	13	4	GAZELLE	628	n/a	n/a	0	0	0
647166	WORD	wordpools/wasnorm_wordpool_576.txt	LTP290	ltpFR2	13	4	PALACE	1006	n/a	n/a	0	0	0
649948	WORD	wordpools/wasnorm_wordpool_576.txt	LTP290	ltpFR2	13	4	CRAB	397	n/a	n/a	0	0	0
652524	WORD	wordpools/wasnorm_wordpool_576.txt	LTP290	ltpFR2	13	4	DINER	467	n/a	n/a	0	0	0
655134	WORD	wordpools/wasnorm_wordpool_576.txt	LTP290	ltpFR2	13	4	TRANSPLANT	1496	n/a	n/a	0	0	0
657610	WORD	wordpools/wasnorm_wordpool_576.txt	LTP290	ltpFR2	13	4	PERFUME	1049	n/a	n/a	0	0	0
660052	WORD	wordpools/wasnorm_wordpool_576.txt	LTP290	ltpFR2	13	4	BUG	187	n/a	n/a	0	0	0
662863	WORD	wordpools/wasnorm_wordpool_576.txt	LTP290	ltpFR2	13	4	YACHT	1629	n/a	n/a	0	0	0
665656	WORD	wordpools/wasnorm_wordpool_576.txt	LTP290	ltpFR2	13	4	COD	340	n/a	n/a	0	0	0
668216	WORD	wordpools/wasnorm_wordpool_576.txt	LTP290	ltpFR2	13	4	DANDRUFF	439	n/a	n/a	0	0	0
670793	WORD	wordpools/wasnorm_wordpool_576.txt	LTP290	ltpFR2	13	4	MARROW	872	n/a	n/a	0	0	0
673369	WORD	wordpools/wasnorm_wordpool_576.txt	LTP290	ltpFR2	13	4	SNACK	1331	n/a	n/a	0	0	0
675807	WORD	wordpools/wasnorm_wordpool_576.txt	LTP290	ltpFR2	13	4	GHETTO	633	n/a	n/a	0	0	0
678433	WORD	wordpools/wasnorm_wordpool_576.txt	LTP290	ltpFR2	13	4	BEAVER	109	n/a	n/a	0	0	0
681182	WORD	wordpools/wasnorm_wordpool_576.txt	LTP290	ltpFR2	13	4	EGYPT	519	n/a	n/a	0	0	0
683707	WORD	wordpools/wasnorm_wordpool_576.txt	LTP290	ltpFR2	13	4	SPHINX	1349	n/a	n/a	0	0	0
686452	WORD	wordpools/wasnorm_wordpool_576.txt	LTP290	ltpFR2	13	4	SPIDER	1351	n/a	n/a	0	0	0
689174	WORD	wordpools/wasnorm_wordpool_576.txt	LTP290	ltpFR2	13	4	GYMNAST	675	n/a	n/a	0	0	0
691704	WORD	wordpools/wasnorm_wordpool_576.txt	LTP290	ltpFR2	13	4	MEDAL	885	n/a	n/a	0	0	0
694159	WORD	wordpools/wasnorm_wordpool_576.txt	LTP290	ltpFR2	13	4	TERMITE	1451	n/a	n/a	0	0	0
696774	WORD	wordpools/wasnorm_wordpool_576.txt	LTP290	ltpFR2	13	4	BARLEY	88	n/a	n/a	0	0	0
699484	WORD	wordpools/wasnorm_wordpool_576.txt	LTP290	ltpFR2	13	4	MAILMAN	858	n/a	n/a	0	0	0
702144	WORD	wordpools/wasnorm_wordpool_576.txt	LTP290	ltpFR2	13	4	CYCLONE	431	n/a	n/a	0	0	0
704804	WORD	wordpools/wasnorm_wordpool_576.txt	LTP290	ltpFR2	13	4	SLIME	1327	n/a	n/a	0	0	0
706411	START	n/a	LTP290	ltpFR2	13	n/a	n/a	n/a	6	n/a	n/a	n/a	n/a
707403	DISTRACTOR	n/a	LTP290	ltpFR2	13	4	n/a	n/a	n/a	n/a	0	0	0
707414	PROB	n/a	LTP290	ltpFR2	13	n/a	n/a	n/a	6	12	6	4	2
708764	PROB	n/a	LTP290	ltpFR2	13	n/a	n/a	n/a	6	15	2	5	8
709957	PROB	n/a	LTP290	ltpFR2	13	n/a	n/a	n/a	6	18	6	6	6
711341	PROB	n/a	LTP290	ltpFR2	13	n/a	n/a	n/a	6	13	1	9	3
714235	PROB	n/a	LTP290	ltpFR2	13	n/a	n/a	n/a	6	8	2	2	4
717096	PROB	n/a	LTP290	ltpFR2	13	n/a	n/a	n/a	6	21	4	9	9
718769	PROB	n/a	LTP290	ltpFR2	13	n/a	n/a	n/a	6	13	4	2	7
721450	PROB	n/a	LTP290	ltpFR2	13	n/a	n/a	n/a	6	11	7	1	3
722784	PROB	n/a	LTP290	ltpFR2	13	n/a	n/a	n/a	6	16	4	7	5
724110	PROB	n/a	LTP290	ltpFR2	13	n/a	n/a	n/a	6	24	9	7	8
726849	PROB	n/a	LTP290	ltpFR2	13	n/a	n/a	n/a	6	22	5	9	8
728455	PROB	n/a	LTP290	ltpFR2	13	n/a	n/a	n/a	6	20	8	5	7
730363	STOP	n/a	LTP290	ltpFR2	13	n/a	n/a	n/a	6	n/a	n/a	n/a	n/a
732225	REC_START	n/a	LTP290	ltpFR2	13	4	n/a	n/a	n/a	n/a	0	0	0
732478	REC_WORD_VV	wordpools/wasnorm_wordpool_576.txt	LTP290	ltpFR2	13	4	<>	-1	n/a	n/a	0	0	0
733640	REC_WORD	wordpools/wasnorm_wordpool_576.txt	LTP290	ltpFR2	13	4	GAZELLE	628	n/a	n/a	0	0	0
823251	DISTRACTOR	n/a	LTP290	ltpFR2	13	5	n/a	n/a	n/a	n/a	0	0	0
823251	START	n/a	LTP290	ltpFR2	13	n/a	n/a	n/a	7	n/a	n/a	n/a	n/a
823301	PROB	n/a	LTP290	ltpFR2	13	n/a	n/a	n/a	7	17	3	8	6
824885	PROB	n/a	LTP290	ltpFR2	13	n/a	n/a	n/a	7	15	8	2	5
825894	PROB	n/a	LTP290	ltpFR2	13	n/a	n/a	n/a	7	23	9	8	6
829006	PROB	n/a	LTP290	ltpFR2	13	n/a	n/a	n/a	7	19	7	4	8
830540	PROB	n/a	LTP290	ltpFR2	13	n/a	n/a	n/a	7	14	7	2	5
832435	PROB	n/a	LTP290	ltpFR2	13	n/a	n/a	n/a	7	12	3	7	2
833590	PROB	n/a	LTP290	ltpFR2	13	n/a	n/a	n/a	7	19	8	4	7
838002	PROB	n/a	LTP290	ltpFR2	13	n/a	n/a	n/a	7	13	4	2	7
839194	PROB	n/a	LTP290	ltpFR2	13	n/a	n/a	n/a	7	19	3	9	7
841398	PROB	n/a	LTP290	ltpFR2	13	n/a	n/a	n/a	7	14	5	2	7
843054	PROB	n/a	LTP290	ltpFR2	13	n/a	n/a	n/a	7	11	5	5	1
844091	PROB	n/a	LTP290	ltpFR2	13	n/a	n/a	n/a	7	21	7	7	7
845250	PROB	n/a	LTP290	ltpFR2	13	n/a	n/a	n/a	7	20	8	4	8
846555	STOP	n/a	LTP290	ltpFR2	13	n/a	n/a	n/a	7	n/a	n/a	n/a	n/a
848161	WORD	wordpools/wasnorm_wordpool_576.txt	LTP290	ltpFR2	13	5	VELVET	1555	n/a	n/a	0	0	0
850805	WORD	wordpools/wasnorm_wordpool_576.txt	LTP290	ltpFR2	13	5	RACKET	1155	n/a	n/a	0	0	0
853281	WORD	wordpools/wasnorm_wordpool_576.txt	LTP290	ltpFR2	13	5	KITCHEN	778	n/a	n/a	0	0	0
855769	WORD	wordpools/wasnorm_wordpool_576.txt	LTP290	ltpFR2	13	5	TURTLE	1522	n/a	n/a	0	0	0
858350	WORD	wordpools/wasnorm_wordpool_576.txt	LTP290	ltpFR2	13	5	SUMMIT	1405	n/a	n/a	0	0	0
860955	WORD	wordpools/wasnorm_wordpool_576.txt	LTP290	ltpFR2	13	5	EXPERT	543	n/a	n/a	0	0	0
863686	WORD	wordpools/wasnorm_wordpool_576.txt	LTP290	ltpFR2	13	5	LETTUCE	814	n/a	n/a	0	0	0
866280	WORD	wordpools/wasnorm_wordpool_576.txt	LTP290	ltpFR2	13	5	CLAMP	316	n/a	n/a	0	0	0
868721	WORD	wordpools/wasnorm_wordpool_576.txt	LTP290	ltpFR2	13	5	SWITCH	1422	n/a	n/a	0	0	0
871466	WORD	wordpools/wasnorm_wordpool_576.txt	LTP290	ltpFR2	13	5	BLOUSE	139	n/a	n/a	0	0	0
873975	WORD	wordpools/wasnorm_wordpool_576.txt	LTP290	ltpFR2	13	5	SCARF	1246	n/a	n/a	0	0	0
876518	WORD	wordpools/wasnorm_wordpool_576.txt	LTP290	ltpFR2	13	5	SCRIBBLE	1256	n/a	n/a	0	0	0
879128	WORD	wordpools/wasnorm_wordpool_576.txt	LTP290	ltpFR2	13	5	YARN	1631	n/a	n/a	0	0	0
881554	WORD	wordpools/wasnorm_wordpool_576.txt	LTP290	ltpFR2	13	5	SLUG	1329	n/a	n/a	0	0	0
884030	WORD	wordpools/wasnorm_wordpool_576.txt	LTP290	ltpFR2	13	5	COOKBOOK	373	n/a	n/a	0	0	0
886774	WORD	wordpools/wasnorm_wordpool_576.txt	LTP290	ltpFR2	13	5	PREACHER	1119	n/a	n/a	0	0	0
889501	WORD	wordpools/wasnorm_wordpool_576.txt	LTP290	ltpFR2	13	5	MOP	916	n/a	n/a	0	0	0
891926	WORD	wordpools/wasnorm_wordpool_576.txt	LTP290	ltpFR2	13	5	TILE	1468	n/a	n/a	0	0	0
894515	WORD	wordpools/wasnorm_wordpool_576.txt	LTP290	ltpFR2	13	5	TAXI	1438	n/a	n/a	0	0	0
896995	WORD	wordpools/wasnorm_wordpool_576.txt	LTP290	ltpFR2	13	5	MOTOR	922	n/a	n/a	0	0	0
899450	WORD	wordpools/wasnorm_wordpool_576.txt	LTP290	ltpFR2	13	5	COUSIN	392	n/a	n/a	0	0	0
902060	WORD	wordpools/wasnorm_wordpool_576.txt	LTP290	ltpFR2	13	5	LIGHTNING	820	n/a	n/a	0	0	0
904791	WORD	wordpools/wasnorm_wordpool_576.txt	LTP290	ltpFR2	13	5	PARSLEY	1016	n/a	n/a	0	0	0
907279	WORD	wordpools/wasnorm_wordpool_576.txt	LTP290	ltpFR2	13	5	LAMP	798	n/a	n/a	0	0	0
908891	START	n/a	LTP290	ltpFR2	13	n/a	n/a	n/a	8	n/a	n/a	n/a	n/a
909898	DISTRACTOR	n/a	LTP290	ltpFR2	13	5	n/a	n/a	n/a	n/a	0	0	0
909911	PROB	n/a	LTP290	ltpFR2	13	n/a	n/a	n/a	8	18	1	9	8
911729	PROB	n/a	LTP290	ltpFR2	13	n/a	n/a	n/a	8	18	4	9	5
913854	PROB	n/a	LTP290	ltpFR2	13	n/a	n/a	n/a	8	15	1	9	5
915193	PROB	n/a	LTP290	ltpFR2	13	n/a	n/a	n/a	8	9	1	6	2
917924	PROB	n/a	LTP290	ltpFR2	13	n/a	n/a	n/a	8	14	6	7	1
919341	PROB	n/a	LTP290	ltpFR2	13	n/a	n/a	n/a	8	19	5	9	5
920679	PROB	n/a	LTP290	ltpFR2	13	n/a	n/a	n/a	8	10	5	2	3
922604	PROB	n/a	LTP290	ltpFR2	13	n/a	n/a	n/a	8	17	9	3	5
924595	PROB	n/a	LTP290	ltpFR2	13	n/a	n/a	n/a	8	16	7	1	8
925950	PROB	n/a	LTP290	ltpFR2	13	n/a	n/a	n/a	8	25	7	9	9
927611	PROB	n/a	LTP290	ltpFR2	13	n/a	n/a	n/a	8	18	6	8	3
929413	PROB	n/a	LTP290	ltpFR2	13	n/a	n/a	n/a	8	11	5	3	3
931320	PROB	n/a	LTP290	ltpFR2	13	n/a	n/a	n/a	8	5	1	2	2
932371	STOP	n/a	LTP290	ltpFR2	13	n/a	n/a	n/a	8	n/a	n/a	n/a	n/a
934789	REC_START	n/a	LTP290	ltpFR2	13	5	n/a	n/a	n/a	n/a	0	0	0
950665	REC_WORD	wordpools/wasnorm_wordpool_576.txt	LTP290	ltpFR2	13	5	SUMMIT	1405	n/a	n/a	0	0	0
953708	REC_WORD	wordpools/wasnorm_wordpool_576.txt	LTP290	ltpFR2	13	5	LETTUCE	814	n/a	n/a	0	0	0
954386	REC_WORD	wordpools/wasnorm_wordpool_576.txt	LTP290	ltpFR2	13	5	EXPERT	543	n/a	n/a	0	0	0
955126	REC_WORD	wordpools/wasnorm_wordpool_576.txt	LTP290	ltpFR2	13	5	CLAMP	316	n/a	n/a	0	0	0
956259	REC_WORD	wordpools/wasnorm_wordpool_576.txt	LTP290	ltpFR2	13	5	BLOUSE	139	n/a	n/a	0	0	0
956616	REC_WORD	wordpools/wasnorm_wordpool_576.txt	LTP290	ltpFR2	13	5	SCARF	1246	n/a	n/a	0	0	0
967602	REC_WORD	wordpools/wasnorm_wordpool_576.txt	LTP290	ltpFR2	13	5	SWITCH	1422	n/a	n/a	0	0	0
1025831	WORD	wordpools/wasnorm_wordpool_576.txt	LTP290	ltpFR2	13	6	LION	827	n/a	n/a	0	0	0
1028486	WORD	wordpools/wasnorm_wordpool_576.txt	LTP290	ltpFR2	13	6	PARROT	1015	n/a	n/a	0	0	0
1031000	WORD	wordpools/wasnorm_wordpool_576.txt	LTP290	ltpFR2	13	6	JURY	766	n/a	n/a	0	0	0
1033594	WORD	wordpools/wasnorm_wordpool_576.txt	LTP290	ltpFR2	13	6	CRIB	407	n/a	n/a	0	0	0
1036053	WORD	wordpools/wasnorm_wordpool_576.txt	LTP290	ltpFR2	13	6	CARRIAGE	248	n/a	n/a	0	0	0
1038830	WORD	wordpools/wasnorm_wordpool_576.txt	LTP290	ltpFR2	13	6	CHILD	299	n/a	n/a	0	0	0
1041557	WORD	wordpools/wasnorm_wordpool_576.txt	LTP290	ltpFR2	13	6	LEADER	807	n/a	n/a	0	0	0
1044368	WORD	wordpools/wasnorm_wordpool_576.txt	LTP290	ltpFR2	13	6	PRINCE	1124	n/a	n/a	0	0	0
1047145	WORD	wordpools/wasnorm_wordpool_576.txt	LTP290	ltpFR2	13	6	HONEY	713	n/a	n/a	0	0	0
1049888	WORD	wordpools/wasnorm_wordpool_576.txt	LTP290	ltpFR2	13	6	WASP	1593	n/a	n/a	0	0	0
1052443	WORD	wordpools/wasnorm_wordpool_576.txt	LTP290	ltpFR2	13	6	WORKER	1621	n/a	n/a	0	0	0
1054907	WORD	wordpools/wasnorm_wordpool_576.txt	LTP290	ltpFR2	13	6	BUTCHER	203	n/a	n/a	0	0	0
1057584	WORD	wordpools/wasnorm_wordpool_576.txt	LTP290	ltpFR2	13	6	SPARROW	1347	n/a	n/a	0	0	0
1060022	WORD	wordpools/wasnorm_wordpool_576.txt	LTP290	ltpFR2	13	6	WIFE	1609	n/a	n/a	0	0	0
1062581	WORD	wordpools/wasnorm_wordpool_576.txt	LTP290	ltpFR2	13	6	PLAZA	1088	n/a	n/a	0	0	0
1065230	WORD	wordpools/wasnorm_wordpool_576.txt	LTP290	ltpFR2	13	6	FILM	565	n/a	n/a	0	0	0
1067940	WORD	wordpools/wasnorm_wordpool_576.txt	LTP290	ltpFR2	13	6	VENUS	1557	n/a	n/a	0	0	0
1070666	WORD	wordpools/wasnorm_wordpool_576.txt	LTP290	ltpFR2	13	6	COCKTAIL	338	n/a	n/a	0	0	0
1073226	WORD	wordpools/wasnorm_wordpool_576.txt	LTP290	ltpFR2	13	6	SHORTCAKE	1292	n/a	n/a	0	0	0
1075668	WORD	wordpools/wasnorm_wordpool_576.txt	LTP290	ltpFR2	13	6	LUMBER	848	n/a	n/a	0	0	0
1078229	WORD	wordpools/wasnorm_wordpool_576.txt	LTP290	ltpFR2	13	6	DRINK	498	n/a	n/a	0	0	0
1080822	WORD	wordpools/wasnorm_wordpool_576.txt	LTP290	ltpFR2	13	6	BROOK	177	n/a	n/a	0	0	0
1083482	WORD	wordpools/wasnorm_wordpool_576.txt	LTP290	ltpFR2	13	6	BANKER	84	n/a	n/a	0	0	0
1085941	WORD	wordpools/wasnorm_wordpool_576.txt	LTP290	ltpFR2	13	6	HEDGE	699	n/a	n/a	0	0	0
1087547	START	n/a	LTP290	ltpFR2	13	n/a	n/a	n/a	9	n/a	n/a	n/a	n/a
1088649	DISTRACTOR	n/a	LTP290	ltpFR2	13	6	n/a	n/a	n/a	n/a	0	0	0
1088667	PROB	n/a	LTP290	ltpFR2	13	n/a	n/a	n/a	9	12	3	5	4
1090236	PROB	n/a	LTP290	ltpFR2	13	n/a	n/a	n/a	9	15	4	4	7
1091892	PROB	n/a	LTP290	ltpFR2	13	n/a	n/a	n/a	9	19	2	9	8
1093498	PROB	n/a	LTP290	ltpFR2	13	n/a	n/a	n/a	9	18	7	4	7
1096743	PROB	n/a	LTP290	ltpFR2	13	n/a	n/a	n/a	9	25	8	9	8
1102314	PROB	n/a	LTP290	ltpFR2	13	n/a	n/a	n/a	9	16	9	4	3
1103992	PROB	n/a	LTP290	ltpFR2	13	n/a	n/a	n/a	9	8	2	5	1
1105945	PROB	n/a	LTP290	ltpFR2	13	n/a	n/a	n/a	9	15	5	3	7
1109759	PROB	n/a	LTP290	ltpFR2	13	n/a	n/a	n/a	9	14	3	7	4
1111507	STOP	n/a	LTP290	ltpFR2	13	n/a	n/a	n/a	9	n/a	n/a	n/a	n/a
1113378	REC_START	n/a	LTP290	ltpFR2	13	6	n/a	n/a	n/a	n/a	0	0	0
1115227	REC_WORD	wordpools/wasnorm_wordpool_576.txt	LTP290	ltpFR2	13	6	BUTCHER	203	n/a	n/a	0	0	0
1115701	REC_WORD	wordpools/wasnorm_wordpool_576.txt	LTP290	ltpFR2	13	6	WIFE	1609	n/a	n/a	0	0	0
1116133	REC_WORD	wordpools/wasnorm_wordpool_576.txt	LTP290	ltpFR2	13	6	PLAZA	1088	n/a	n/a	0	0	0
1116602	REC_WORD	wordpools/wasnorm_wordpool_576.txt	LTP290	ltpFR2	13	6	FILM	565	n/a	n/a	0	0	0
1118832	REC_WORD	wordpools/wasnorm_wordpool_576.txt	LTP290	ltpFR2	13	6	ACTRESS	6	n/a	n/a	0	0	0
1119587	REC_WORD	wordpools/wasnorm_wordpool_576.txt	LTP290	ltpFR2	13	6	COCKTAIL	338	n/a	n/a	0	0	0
1120193	REC_WORD	wordpools/wasnorm_wordpool_576.txt	LTP290	ltpFR2	13	6	SHORTCAKE	1292	n/a	n/a	0	0	0
1120874	REC_WORD	wordpools/wasnorm_wordpool_576.txt	LTP290	ltpFR2	13	6	VENUS	1557	n/a	n/a	0	0	0
1128360	REC_WORD	wordpools/wasnorm_wordpool_576.txt	LTP290	ltpFR2	13	6	SPARROW	1347	n/a	n/a	0	0	0
1129994	REC_WORD	wordpools/wasnorm_wordpool_576.txt	LTP290	ltpFR2	13	6	HONEY	713	n/a	n/a	0	0	0
1132374	REC_WORD	wordpools/wasnorm_wordpool_576.txt	LTP290	ltpFR2	13	6	PRINCE	1124	n/a	n/a	0	0	0
1133064	REC_WORD	wordpools/wasnorm_wordpool_576.txt	LTP290	ltpFR2	13	6	WASP	1593	n/a	n/a	0	0	0
1133627	REC_WORD	wordpools/wasnorm_wordpool_576.txt	LTP290	ltpFR2	13	6	WORKER	1621	n/a	n/a	0	0	0
1204471	WORD	wordpools/wasnorm_wordpool_576.txt	LTP290	ltpFR2	13	7	FINGER	567	n/a	n/a	0	0	0
1207243	WORD	wordpools/wasnorm_wordpool_576.txt	LTP290	ltpFR2	13	7	GLOVE	642	n/a	n/a	0	0	0
1209685	WORD	wordpools/wasnorm_wordpool_576.txt	LTP290	ltpFR2	13	7	OUTDOORS	987	n/a	n/a	0	0	0
1212351	WORD	wordpools/wasnorm_wordpool_576.txt	LTP290	ltpFR2	13	7	SPOOL	1356	n/a	n/a	0	0	0
1215123	WORD	wordpools/wasnorm_wordpool_576.txt	LTP290	ltpFR2	13	7	BOARD	143	n/a	n/a	0	0	0
1217838	WORD	wordpools/wasnorm_wordpool_576.txt	LTP290	ltpFR2	13	7	UMPIRE	1535	n/a	n/a	0	0	0
1220498	WORD	wordpools/wasnorm_wordpool_576.txt	LTP290	ltpFR2	13	7	GRAVE	658	n/a	n/a	0	0	0
1222941	WORD	wordpools/wasnorm_wordpool_576.txt	LTP290	ltpFR2	13	7	JAPAN	749	n/a	n/a	0	0	0
1225517	WORD	wordpools/wasnorm_wordpool_576.txt	LTP290	ltpFR2	13	7	VALVE	1546	n/a	n/a	0	0	0
1228077	WORD	wordpools/wasnorm_wordpool_576.txt	LTP290	ltpFR2	13	7	PEPPER	1047	n/a	n/a	0	0	0
1230502	WORD	wordpools/wasnorm_wordpool_576.txt	LTP290	ltpFR2	13	7	LIVER	833	n/a	n/a	0	0	0
1233275	WORD	wordpools/wasnorm_wordpool_576.txt	LTP290	ltpFR2	13	7	STAKE	1368	n/a	n/a	0	0	0
1235990	WORD	wordpools/wasnorm_wordpool_576.txt	LTP290	ltpFR2	13	7	SWAMP	1416	n/a	n/a	0	0	0
1238494	WORD	wordpools/wasnorm_wordpool_576.txt	LTP290	ltpFR2	13	7	SHARK	1275	n/a	n/a	0	0	0
1241238	WORD	wordpools/wasnorm_wordpool_576.txt	LTP290	ltpFR2	13	7	TRACTOR	1493	n/a	n/a	0	0	0
1243836	WORD	wordpools/wasnorm_wordpool_576.txt	LTP290	ltpFR2	13	7	PUPPY	1144	n/a	n/a	0	0	0
1246257	WORD	wordpools/wasnorm_wordpool_576.txt	LTP290	ltpFR2	13	7	LAVA	804	n/a	n/a	0	0	0
1248750	WORD	wordpools/wasnorm_wordpool_576.txt	LTP290	ltpFR2	13	7	COBRA	336	n/a	n/a	0	0	0
1251548	WORD	wordpools/wasnorm_wordpool_576.txt	LTP290	ltpFR2	13	7	CHAUFFEUR	283	n/a	n/a	0	0	0
1254275	WORD	wordpools/wasnorm_wordpool_576.txt	LTP290	ltpFR2	13	7	FARMER	553	n/a	n/a	0	0	0
1256885	WORD	wordpools/wasnorm_wordpool_576.txt	LTP290	ltpFR2	13	7	POLICE	1098	n/a	n/a	0	0	0
1259361	WORD	wordpools/wasnorm_wordpool_576.txt	LTP290	ltpFR2	13	7	AGENT	10	n/a	n/a	0	0	0
1262055	WORD	wordpools/wasnorm_wordpool_576.txt	LTP290	ltpFR2	13	7	PIZZA	1079	n/a	n/a	0	0	0
1264547	WORD	wordpools/wasnorm_wordpool_576.txt	LTP290	ltpFR2	13	7	COSTUME	383	n/a	n/a	0	0	0
1266154	START	n/a	LTP290	ltpFR2	13	n/a	n/a	n/a	10	n/a	n/a	n/a	n/a
1267036	DISTRACTOR	n/a	LTP290	ltpFR2	13	7	n/a	n/a	n/a	n/a	0	0	0
1267052	PROB	n/a	LTP290	ltpFR2	13	n/a	n/a	n/a	10	16	4	7	5
1268524	PROB	n/a	LTP290	ltpFR2	13	n/a	n/a	n/a	10	15	7	5	3
1270431	PROB	n/a	LTP290	ltpFR2	13	n/a	n/a	n/a	10	15	6	6	3
1272009	PROB	n/a	LTP290	ltpFR2	13	n/a	n/a	n/a	10	9	2	4	3
1273526	PROB	n/a	LTP290	ltpFR2	13	n/a	n/a	n/a	10	14	3	8	3
1274982	PROB	n/a	LTP290	ltpFR2	13	n/a	n/a	n/a	10	12	7	3	2
1276342	PROB	n/a	LTP290	ltpFR2	13	n/a	n/a	n/a	10	18	8	6	4
1278182	PROB	n/a	LTP290	ltpFR2	13	n/a	n/a	n/a	10	16	6	4	6
1279382	PROB	n/a	LTP290	ltpFR2	13	n/a	n/a	n/a	10	10	4	4	2
1280754	PROB	n/a	LTP290	ltpFR2	13	n/a	n/a	n/a	10	14	5	1	8
1282109	PROB	n/a	LTP290	ltpFR2	13	n/a	n/a	n/a	10	17	4	6	7
1283464	PROB	n/a	LTP290	ltpFR2	13	n/a	n/a	n/a	10	16	7	7	5
1284735	PROB	n/a	LTP290	ltpFR2	13	n/a	n/a	n/a	10	13	6	5	2
1286157	PROB	n/a	LTP290	ltpFR2	13	n/a	n/a	n/a	10	13	2	3	8
1290153	STOP	n/a	LTP290	ltpFR2	13	n/a	n/a	n/a	10	n/a	n/a	n/a	n/a
1292064	REC_START	n/a	LTP290	ltpFR2	13	7	n/a	n/a	n/a	n/a	0	0	0
1295144	REC_WORD	wordpools/wasnorm_wordpool_576.txt	LTP290	ltpFR2	13	7	FARMER	553	n/a	n/a	0	0	0
1295689	REC_WORD	wordpools/wasnorm_wordpool_576.txt	LTP290	ltpFR2	13	7	POLICE	1098	n/a	n/a	0	0	0
1383128	WORD	wordpools/wasnorm_wordpool_576.txt	LTP290	ltpFR2	13	8	CRICKET	408	n/a	n/a	0	0	0
1385620	WORD	wordpools/wasnorm_wordpool_576.txt	LTP290	ltpFR2	13	8	PEBBLE	1035	n/a	n/a	0	0	0
1388364	WORD	wordpools/wasnorm_wordpool_576.txt	LTP290	ltpFR2	13	8	STONE	1385	n/a	n/a	0	0	0
1391124	WORD	wordpools/wasnorm_wordpool_576.txt	LTP290	ltpFR2	13	8	GLASS	639	n/a	n/a	0	0	0
1393763	WORD	wordpools/wasnorm_wordpool_576.txt	LTP290	ltpFR2	13	8	LAGOON	795	n/a	n/a	0	0	0
1396444	WORD	wordpools/wasnorm_wordpool_576.txt	LTP290	ltpFR2	13	8	STICKER	1382	n/a	n/a	0	0	0
1399021	WORD	wordpools/wasnorm_wordpool_576.txt	LTP290	ltpFR2	13	8	STATUE	1374	n/a	n/a	0	0	0
1401748	WORD	wordpools/wasnorm_wordpool_576.txt	LTP290	ltpFR2	13	8	TROMBONE	1508	n/a	n/a	0	0	0
1404570	WORD	wordpools/wasnorm_wordpool_576.txt	LTP290	ltpFR2	13	8	MARINE	869	n/a	n/a	0	0	0
1407285	WORD	wordpools/wasnorm_wordpool_576.txt	LTP290	ltpFR2	13	8	TWIG	1527	n/a	n/a	0	0	0
1409710	WORD	wordpools/wasnorm_wordpool_576.txt	LTP290	ltpFR2	13	8	SEAGULL	1261	n/a	n/a	0	0	0
1412154	WORD	wordpools/wasnorm_wordpool_576.txt	LTP290	ltpFR2	13	8	SPOUSE	1358	n/a	n/a	0	0	0
1414730	WORD	wordpools/wasnorm_wordpool_576.txt	LTP290	ltpFR2	13	8	SPONGE	1355	n/a	n/a	0	0	0
1417273	WORD	wordpools/wasnorm_wordpool_576.txt	LTP290	ltpFR2	13	8	BRANDY	169	n/a	n/a	0	0	0
1420050	WORD	wordpools/wasnorm_wordpool_576.txt	LTP290	ltpFR2	13	8	GRAPE	654	n/a	n/a	0	0	0
1422721	WORD	wordpools/wasnorm_wordpool_576.txt	LTP290	ltpFR2	13	8	OUTFIT	988	n/a	n/a	0	0	0
1425203	WORD	wordpools/wasnorm_wordpool_576.txt	LTP290	ltpFR2	13	8	ZEBRA	1635	n/a	n/a	0	0	0
1428014	WORD	wordpools/wasnorm_wordpool_576.txt	LTP290	ltpFR2	13	8	BEAST	108	n/a	n/a	0	0	0
1430824	WORD	wordpools/wasnorm_wordpool_576.txt	LTP290	ltpFR2	13	8	NIGHTGOWN	953	n/a	n/a	0	0	0
1433501	WORD	wordpools/wasnorm_wordpool_576.txt	LTP290	ltpFR2	13	8	PLASTER	1085	n/a	n/a	0	0	0
1436039	WORD	wordpools/wasnorm_wordpool_576.txt	LTP290	ltpFR2	13	8	TWISTER	1530	n/a	n/a	0	0	0
1438838	WORD	wordpools/wasnorm_wordpool_576.txt	LTP290	ltpFR2	13	8	PORTRAIT	1111	n/a	n/a	0	0	0
1441643	WORD	wordpools/wasnorm_wordpool_576.txt	LTP290	ltpFR2	13	8	POWDER	1117	n/a	n/a	0	0	0
1444420	WORD	wordpools/wasnorm_wordpool_576.txt	LTP290	ltpFR2	13	8	ISLAND	745	n/a	n/a	0	0	0
1446032	START	n/a	LTP290	ltpFR2	13	n/a	n/a	n/a	11	n/a	n/a	n/a	n/a
1446962	DISTRACTOR	n/a	LTP290	ltpFR2	13	8	n/a	n/a	n/a	n/a	0	0	0
1446980	PROB	n/a	LTP290	ltpFR2	13	n/a	n/a	n/a	11	19	7	5	7
1448636	PROB	n/a	LTP290	ltpFR2	13	n/a	n/a	n/a	11	11	8	2	1
1449913	PROB	n/a	LTP290	ltpFR2	13	n/a	n/a	n/a	11	12	6	4	2
1451497	PROB	n/a	LTP290	ltpFR2	13	n/a	n/a	n/a	11	10	1	2	7
1452735	PROB	n/a	LTP290	ltpFR2	13	n/a	n/a	n/a	11	16	5	9	2
1454191	PROB	n/a	LTP290	ltpFR2	13	n/a	n/a	n/a	11	20	5	8	7
1455717	PROB	n/a	LTP290	ltpFR2	13	n/a	n/a	n/a	11	7	1	3	3
1457118	PROB	n/a	LTP290	ltpFR2	13	n/a	n/a	n/a	11	13	3	9	1
1458724	PROB	n/a	LTP290	ltpFR2	13	n/a	n/a	n/a	11	13	1	6	6
1460213	PROB	n/a	LTP290	ltpFR2	13	n/a	n/a	n/a	11	20	6	5	9
1461936	PROB	n/a	LTP290	ltpFR2	13	n/a	n/a	n/a	11	14	2	9	3
1463480	PROB	n/a	LTP290	ltpFR2	13	n/a	n/a	n/a	11	16	1	9	6
1464769	PROB	n/a	LTP290	ltpFR2	13	n/a	n/a	n/a	11	12	6	4	2
1466670	PROB	n/a	LTP290	ltpFR2	13	n/a	n/a	n/a	11	17	2	9	6
1468282	PROB	n/a	LTP290	ltpFR2	13	n/a	n/a	n/a	11	15	2	8	5
1469411	STOP	n/a	LTP290	ltpFR2	13	n/a	n/a	n/a	11	n/a	n/a	n/a	n/a
1471858	REC_START	n/a	LTP290	ltpFR2	13	8	n/a	n/a	n/a	n/a	0	0	0
1473498	REC_WORD	wordpools/wasnorm_wordpool_576.txt	LTP290	ltpFR2	13	8	NIGHTGOWN	953	n/a	n/a	0	0	0
1496782	REC_WORD_VV	wordpools/wasnorm_wordpool_576.txt	LTP290	ltpFR2	13	8	<>	-1	n/a	n/a	0	0	0
1548630	REST_REWET	n/a	LTP290	ltpFR2	13	8	n/a	n/a	n/a	n/a	0	0	0
1905329	DISTRACTOR	n/a	LTP290	ltpFR2	13	9	n/a	n/a	n/a	n/a	0	0	0
1905329	START	n/a	LTP290	ltpFR2	13	n/a	n/a	n/a	12	n/a	n/a	n/a	n/a
1905379	PROB	n/a	LTP290	ltpFR2	13	n/a	n/a	n/a	12	11	7	2	2
1906567	PROB	n/a	LTP290	ltpFR2	13	n/a	n/a	n/a	12	7	1	5	1
1907839	PROB	n/a	LTP290	ltpFR2	13	n/a	n/a	n/a	12	15	4	2	9
1909607	PROB	n/a	LTP290	ltpFR2	13	n/a	n/a	n/a	12	14	9	4	1
1912200	PROB	n/a	LTP290	ltpFR2	13	n/a	n/a	n/a	12	16	6	5	5
1913539	PROB	n/a	LTP290	ltpFR2	13	n/a	n/a	n/a	12	11	5	4	2
1915463	PROB	n/a	LTP290	ltpFR2	13	n/a	n/a	n/a	12	17	4	6	7
1916822	PROB	n/a	LTP290	ltpFR2	13	n/a	n/a	n/a	12	13	4	6	3
1918474	PROB	n/a	LTP290	ltpFR2	13	n/a	n/a	n/a	12	13	8	4	1
1920214	PROB	n/a	LTP290	ltpFR2	13	n/a	n/a	n/a	12	19	6	9	4
1921887	PROB	n/a	LTP290	ltpFR2	13	n/a	n/a	n/a	12	19	4	9	6
1929329	STOP	n/a	LTP290	ltpFR2	13	n/a	n/a	n/a	12	n/a	n/a	n/a	n/a
1930469	WORD	wordpools/wasnorm_wordpool_576.txt	LTP290	ltpFR2	13	9	GOBLIN	645	n/a	n/a	0	0	0
1933101	WORD	wordpools/wasnorm_wordpool_576.txt	LTP290	ltpFR2	13	9	MONSTER	912	n/a	n/a	0	0	0
1935588	WORD	wordpools/wasnorm_wordpool_576.txt	LTP290	ltpFR2	13	9	DONOR	485	n/a	n/a	0	0	0
1938153	WORD	wordpools/wasnorm_wordpool_576.txt	LTP290	ltpFR2	13	9	HEART	697	n/a	n/a	0	0	0
1940808	WORD	wordpools/wasnorm_wordpool_576.txt	LTP290	ltpFR2	13	9	MAPLE	866	n/a	n/a	0	0	0
1943317	WORD	wordpools/wasnorm_wordpool_576.txt	LTP290	ltpFR2	13	9	CASHEW	253	n/a	n/a	0	0	0
1945748	WORD	wordpools/wasnorm_wordpool_576.txt	LTP290	ltpFR2	13	9	CLAM	315	n/a	n/a	0	0	0
1948286	WORD	wordpools/wasnorm_wordpool_576.txt	LTP290	ltpFR2	13	9	XEROX	1628	n/a	n/a	0	0	0
1951085	WORD	wordpools/wasnorm_wordpool_576.txt	LTP290	ltpFR2	13	9	BISON	131	n/a	n/a	0	0	0
1953594	WORD	wordpools/wasnorm_wordpool_576.txt	LTP290	ltpFR2	13	9	PANTHER	1009	n/a	n/a	0	0	0
1956221	WORD	wordpools/wasnorm_wordpool_576.txt	LTP290	ltpFR2	13	9	FOREST	593	n/a	n/a	0	0	0
1958726	WORD	wordpools/wasnorm_wordpool_576.txt	LTP290	ltpFR2	13	9	UNCLE	1536	n/a	n/a	0	0	0
1961307	WORD	wordpools/wasnorm_wordpool_576.txt	LTP290	ltpFR2	13	9	THRONE	1461	n/a	n/a	0	0	0
1963979	WORD	wordpools/wasnorm_wordpool_576.txt	LTP290	ltpFR2	13	9	SEAFOOD	1260	n/a	n/a	0	0	0
1966610	WORD	wordpools/wasnorm_wordpool_576.txt	LTP290	ltpFR2	13	9	PERMIT	1051	n/a	n/a	0	0	0
1969253	WORD	wordpools/wasnorm_wordpool_576.txt	LTP290	ltpFR2	13	9	HAMPER	682	n/a	n/a	0	0	0
1971930	WORD	wordpools/wasnorm_wordpool_576.txt	LTP290	ltpFR2	13	9	DENTIST	447	n/a	n/a	0	0	0
1974456	WORD	wordpools/wasnorm_wordpool_576.txt	LTP290	ltpFR2	13	9	CIGAR	308	n/a	n/a	0	0	0
1977128	WORD	wordpools/wasnorm_wordpool_576.txt	LTP290	ltpFR2	13	9	WITNESS	1618	n/a	n/a	0	0	0
1979675	WORD	wordpools/wasnorm_wordpool_576.txt	LTP290	ltpFR2	13	9	STREAM	1392	n/a	n/a	0	0	0
1982415	WORD	wordpools/wasnorm_wordpool_576.txt	LTP290	ltpFR2	13	9	COMPASS	358	n/a	n/a	0	0	0
1985113	WORD	wordpools/wasnorm_wordpool_576.txt	LTP290	ltpFR2	13	9	MUMMY	932	n/a	n/a	0	0	0
1987551	WORD	wordpools/wasnorm_wordpool_576.txt	LTP290	ltpFR2	13	9	WAITRESS	1581	n/a	n/a	0	0	0
1990299	WORD	wordpools/wasnorm_wordpool_576.txt	LTP290	ltpFR2	13	9	COWBOY	395	n/a	n/a	0	0	0
1991906	START	n/a	LTP290	ltpFR2	13	n/a	n/a	n/a	13	n/a	n/a	n/a	n/a
1992903	DISTRACTOR	n/a	LTP290	ltpFR2	13	9	n/a	n/a	n/a	n/a	0	0	0
1992921	PROB	n/a	LTP290	ltpFR2	13	n/a	n/a	n/a	13	16	5	4	7
1994510	PROB	n/a	LTP290	ltpFR2	13	n/a	n/a	n/a	13	16	6	1	9
1996473	PROB	n/a	LTP290	ltpFR2	13	n/a	n/a	n/a	13	19	6	8	5
1998497	PROB	n/a	LTP290	ltpFR2	13	n/a	n/a	n/a	13	8	3	4	1
1999948	PROB	n/a	LTP290	ltpFR2	13	n/a	n/a	n/a	13	15	6	1	8
2001269	PROB	n/a	LTP290	ltpFR2	13	n/a	n/a	n/a	13	16	4	7	5
2002591	PROB	n/a	LTP290	ltpFR2	13	n/a	n/a	n/a	13	15	1	9	5
2003996	PROB	n/a	LTP290	ltpFR2	13	n/a	n/a	n/a	13	12	6	1	5
2006171	PROB	n/a	LTP290	ltpFR2	13	n/a	n/a	n/a	13	18	8	8	2
2007849	PROB	n/a	LTP290	ltpFR2	13	n/a	n/a	n/a	13	13	7	5	1
2009472	PROB	n/a	LTP290	ltpFR2	13	n/a	n/a	n/a	13	10	3	5	2
2011173	PROB	n/a	LTP290	ltpFR2	13	n/a	n/a	n/a	13	19	9	1	9
2012997	PROB	n/a	LTP290	ltpFR2	13	n/a	n/a	n/a	13	9	3	1	5
2014571	STOP	n/a	LTP290	ltpFR2	13	n/a	n/a	n/a	13	n/a	n/a	n/a	n/a
2017837	REC_START	n/a	LTP290	ltpFR2	13	9	n/a	n/a	n/a	n/a	0	0	0
2019601	REC_WORD	wordpools/wasnorm_wordpool_576.txt	LTP290	ltpFR2	13	9	GOBLIN	645	n/a	n/a	0	0	0
2020057	REC_WORD	wordpools/wasnorm_wordpool_576.txt	LTP290	ltpFR2	13	9	MONSTER	912	n/a	n/a	0	0	0
2025526	REC_WORD	wordpools/wasnorm_wordpool_576.txt	LTP290	ltpFR2	13	9	HEART	697	n/a	n/a	0	0	0
2026043	REC_WORD	wordpools/wasnorm_wordpool_576.txt	LTP290	ltpFR2	13	9	MAPLE	866	n/a	n/a	0	0	0
2026636	REC_WORD	wordpools/wasnorm_wordpool_576.txt	LTP290	ltpFR2	13	9	CASHEW	253	n/a	n/a	0	0	0
2027233	REC_WORD	wordpools/wasnorm_wordpool_576.txt	LTP290	ltpFR2	13	9	CLAM	315	n/a	n/a	0	0	0
2028529	REC_WORD	wordpools/wasnorm_wordpool_576.txt	LTP290	ltpFR2	13	9	BISON	131	n/a	n/a	0	0	0
2029032	REC_WORD	wordpools/wasnorm_wordpool_576.txt	LTP290	ltpFR2	13	9	PANTHER	1009	n/a	n/a	0	0	0
2029552	REC_WORD	wordpools/wasnorm_wordpool_576.txt	LTP290	ltpFR2	13	9	XEROX	1628	n/a	n/a	0	0	0
2108863	DISTRACTOR	n/a	LTP290	ltpFR2	13	10	n/a	n/a	n/a	n/a	0	0	0
2108863	START	n/a	LTP290	ltpFR2	13	n/a	n/a	n/a	14	n/a	n/a	n/a	n/a
2108913	PROB	n/a	LTP290	ltpFR2	13	n/a	n/a	n/a	14	13	5	5	3
2110184	PROB	n/a	LTP290	ltpFR2	13	n/a	n/a	n/a	14	15	9	4	2
2112655	PROB	n/a	LTP290	ltpFR2	13	n/a	n/a	n/a	14	13	4	5	4
2114128	PROB	n/a	LTP290	ltpFR2	13	n/a	n/a	n/a	14	20	9	9	2
2115399	PROB	n/a	LTP290	ltpFR2	13	n/a	n/a	n/a	14	14	7	2	5
2117127	PROB	n/a	LTP290	ltpFR2	13	n/a	n/a	n/a	14	13	7	5	1
2118846	PROB	n/a	LTP290	ltpFR2	13	n/a	n/a	n/a	14	4	2	1	1
2119916	PROB	n/a	LTP290	ltpFR2	13	n/a	n/a	n/a	14	14	1	6	7
2121193	PROB	n/a	LTP290	ltpFR2	13	n/a	n/a	n/a	14	16	6	5	5
2122543	PROB	n/a	LTP290	ltpFR2	13	n/a	n/a	n/a	14	21	5	9	7
2123965	PROB	n/a	LTP290	ltpFR2	13	n/a	n/a	n/a	14	21	7	9	5
2125554	PROB	n/a	LTP290	ltpFR2	13	n/a	n/a	n/a	14	12	4	4	4
2126792	PROB	n/a	LTP290	ltpFR2	13	n/a	n/a	n/a	14	12	2	1	9
2128064	PROB	n/a	LTP290	ltpFR2	13	n/a	n/a	n/a	14	18	2	8	8
2129357	PROB	n/a	LTP290	ltpFR2	13	n/a	n/a	n/a	14	15	6	4	5
2132863	STOP	n/a	LTP290	ltpFR2	13	n/a	n/a	n/a	14	n/a	n/a	n/a	n/a
2133869	WORD	wordpools/wasnorm_wordpool_576.txt	LTP290	ltpFR2	13	10	POSSUM	1112	n/a	n/a	0	0	0
2136367	WORD	wordpools/wasnorm_wordpool_576.txt	LTP290	ltpFR2	13	10	HAWK	692	n/a	n/a	0	0	0
2138809	WORD	wordpools/wasnorm_wordpool_576.txt	LTP290	ltpFR2	13	10	CABIN	211	n/a	n/a	0	0	0
2141319	WORD	wordpools/wasnorm_wordpool_576.txt	LTP290	ltpFR2	13	10	MARKER	870	n/a	n/a	0	0	0
2143945	WORD	wordpools/wasnorm_wordpool_576.txt	LTP290	ltpFR2	13	10	AIRPORT	13	n/a	n/a	0	0	0
2146522	WORD	wordpools/wasnorm_wordpool_576.txt	LTP290	ltpFR2	13	10	LEOPARD	812	n/a	n/a	0	0	0
2149048	WORD	wordpools/wasnorm_wordpool_576.txt	LTP290	ltpFR2	13	10	CHIPMUNK	304	n/a	n/a	0	0	0
2151540	WORD	wordpools/wasnorm_wordpool_576.txt	LTP290	ltpFR2	13	10	FLAG	573	n/a	n/a	0	0	0
2154083	WORD	wordpools/wasnorm_wordpool_576.txt	LTP290	ltpFR2	13	10	FIDDLE	561	n/a	n/a	0	0	0
2156543	WORD	wordpools/wasnorm_wordpool_576.txt	LTP290	ltpFR2	13	10	PIGMENT	1066	n/a	n/a	0	0	0
2159030	WORD	wordpools/wasnorm_wordpool_576.txt	LTP290	ltpFR2	13	10	TOURIST	1488	n/a	n/a	0	0	0
2161595	WORD	wordpools/wasnorm_wordpool_576.txt	LTP290	ltpFR2	13	10	LODGE	839	n/a	n/a	0	0	0
2164355	WORD	wordpools/wasnorm_wordpool_576.txt	LTP290	ltpFR2	13	10	SHELTER	1282	n/a	n/a	0	0	0
2167015	WORD	wordpools/wasnorm_wordpool_576.txt	LTP290	ltpFR2	13	10	PENGUIN	1044	n/a	n/a	0	0	0
2169703	WORD	wordpools/wasnorm_wordpool_576.txt	LTP290	ltpFR2	13	10	DRAWING	494	n/a	n/a	0	0	0
2172381	WORD	wordpools/wasnorm_wordpool_576.txt	LTP290	ltpFR2	13	10	AIRPLANE	12	n/a	n/a	0	0	0
2174828	WORD	wordpools/wasnorm_wordpool_576.txt	LTP290	ltpFR2	13	10	PLAID	1080	n/a	n/a	0	0	0
2177567	WORD	wordpools/wasnorm_wordpool_576.txt	LTP290	ltpFR2	13	10	SKIRT	1319	n/a	n/a	0	0	0
2180048	WORD	wordpools/wasnorm_wordpool_576.txt	LTP290	ltpFR2	13	10	MACHINE	852	n/a	n/a	0	0	0
2182673	WORD	wordpools/wasnorm_wordpool_576.txt	LTP290	ltpFR2	13	10	OMELET	976	n/a	n/a	0	0	0
2185112	WORD	wordpools/wasnorm_wordpool_576.txt	LTP290	ltpFR2	13	10	ACTOR	5	n/a	n/a	0	0	0
2187822	WORD	wordpools/wasnorm_wordpool_576.txt	LTP290	ltpFR2	13	10	PARENT	1013	n/a	n/a	0	0	0
2190270	WORD	wordpools/wasnorm_wordpool_576.txt	LTP290	ltpFR2	13	10	FRANCE	601	n/a	n/a	0	0	0
2192813	WORD	wordpools/wasnorm_wordpool_576.txt	LTP290	ltpFR2	13	10	KIDNEY	776	n/a	n/a	0	0	0
2194419	START	n/a	LTP290	ltpFR2	13	n/a	n/a	n/a	15	n/a	n/a	n/a	n/a
2195576	DISTRACTOR	n/a	LTP290	ltpFR2	13	10	n/a	n/a	n/a	n/a	0	0	0
2195590	PROB	n/a	LTP290	ltpFR2	13	n/a	n/a	n/a	15	15	4	9	2
2198011	PROB	n/a	LTP290	ltpFR2	13	n/a	n/a	n/a	15	17	7	7	3
2199488	PROB	n/a	LTP290	ltpFR2	13	n/a	n/a	n/a	15	15	8	5	2
2200888	PROB	n/a	LTP290	ltpFR2	13	n/a	n/a	n/a	15	11	6	2	3
2202277	PROB	n/a	LTP290	ltpFR2	13	n/a	n/a	n/a	15	14	4	3	7
2203565	PROB	n/a	LTP290	ltpFR2	13	n/a	n/a	n/a	15	22	6	9	7
2205054	PROB	n/a	LTP290	ltpFR2	13	n/a	n/a	n/a	15	20	8	6	6
2206877	PROB	n/a	LTP290	ltpFR2	13	n/a	n/a	n/a	15	21	8	9	4
2208472	PROB	n/a	LTP290	ltpFR2	13	n/a	n/a	n/a	15	12	3	6	3
2211947	PROB	n/a	LTP290	ltpFR2	13	n/a	n/a	n/a	15	12	7	1	4
2213407	PROB	n/a	LTP290	ltpFR2	13	n/a	n/a	n/a	15	14	4	9	1
2215811	PROB	n/a	LTP290	ltpFR2	13	n/a	n/a	n/a	15	13	8	3	2
2217115	STOP	n/a	LTP290	ltpFR2	13	n/a	n/a	n/a	15	n/a	n/a	n/a	n/a
2220195	REC_START	n/a	LTP290	ltpFR2	13	10	n/a	n/a	n/a	n/a	0	0	0
2221685	REC_WORD	wordpools/wasnorm_wordpool_576.txt	LTP290	ltpFR2	13	10	PLAID	1080	n/a	n/a	0	0	0
2222051	REC_WORD	wordpools/wasnorm_wordpool_576.txt	LTP290	ltpFR2	13	10	AIRPLANE	12	n/a	n/a	0	0	0
2224152	REC_WORD	wordpools/wasnorm_wordpool_576.txt	LTP290	ltpFR2	13	10	PENGUIN	1044	n/a	n/a	0	0	0
2224570	REC_WORD	wordpools/wasnorm_wordpool_576.txt	LTP290	ltpFR2	13	10	DRAWING	494	n/a	n/a	0	0	0
2225626	REC_WORD	wordpools/wasnorm_wordpool_576.txt	LTP290	ltpFR2	13	10	PARENT	1013	n/a	n/a	0	0	0
2228737	REC_WORD	wordpools/wasnorm_wordpool_576.txt	LTP290	ltpFR2	13	10	FRANCE	601	n/a	n/a	0	0	0
2311209	DISTRACTOR	n/a	LTP290	ltpFR2	13	11	n/a	n/a	n/a	n/a	0	0	0
2311209	START	n/a	LTP290	ltpFR2	13	n/a	n/a	n/a	16	n/a	n/a	n/a	n/a
2311259	PROB	n/a	LTP290	ltpFR2	13	n/a	n/a	n/a	16	16	5	6	5
2312647	PROB	n/a	LTP290	ltpFR2	13	n/a	n/a	n/a	16	24	9	6	9
2314199	PROB	n/a	LTP290	ltpFR2	13	n/a	n/a	n/a	16	14	9	4	1
2316373	PROB	n/a	LTP290	ltpFR2	13	n/a	n/a	n/a	16	13	6	5	2
2318197	PROB	n/a	LTP290	ltpFR2	13	n/a	n/a	n/a	16	11	4	5	2
2319607	PROB	n/a	LTP290	ltpFR2	13	n/a	n/a	n/a	16	21	8	4	9
2322279	PROB	n/a	LTP290	ltpFR2	13	n/a	n/a	n/a	16	14	7	3	4
2323606	PROB	n/a	LTP290	ltpFR2	13	n/a	n/a	n/a	16	20	8	8	4
2324860	PROB	n/a	LTP290	ltpFR2	13	n/a	n/a	n/a	16	9	1	2	6
2326144	PROB	n/a	LTP290	ltpFR2	13	n/a	n/a	n/a	16	18	9	1	8
2327566	PROB	n/a	LTP290	ltpFR2	13	n/a	n/a	n/a	16	16	3	7	9
2328820	PROB	n/a	LTP290	ltpFR2	13	n/a	n/a	n/a	16	15	6	5	4
2330448	PROB	n/a	LTP290	ltpFR2	13	n/a	n/a	n/a	16	10	8	1	1
2331535	PROB	n/a	LTP290	ltpFR2	13	n/a	n/a	n/a	16	18	8	3	7
2333488	PROB	n/a	LTP290	ltpFR2	13	n/a	n/a	n/a	16	12	2	5	5
2334811	STOP	n/a	LTP290	ltpFR2	13	n/a	n/a	n/a	16	n/a	n/a	n/a	n/a
2336287	WORD	wordpools/wasnorm_wordpool_576.txt	LTP290	ltpFR2	13	11	CAMEL	223	n/a	n/a	0	0	0
2338930	WORD	wordpools/wasnorm_wordpool_576.txt	LTP290	ltpFR2	13	11	BLENDER	136	n/a	n/a	0	0	0
2341685	WORD	wordpools/wasnorm_wordpool_576.txt	LTP290	ltpFR2	13	11	NOMAD	955	n/a	n/a	0	0	0
2344283	WORD	wordpools/wasnorm_wordpool_576.txt	LTP290	ltpFR2	13	11	PASTA	1021	n/a	n/a	0	0	0
2346922	WORD	wordpools/wasnorm_wordpool_576.txt	LTP290	ltpFR2	13	11	FLUTE	585	n/a	n/a	0	0	0
2349615	WORD	wordpools/wasnorm_wordpool_576.txt	LTP290	ltpFR2	13	11	PEACH	1031	n/a	n/a	0	0	0
2352359	WORD	wordpools/wasnorm_wordpool_576.txt	LTP290	ltpFR2	13	11	TURNIP	1521	n/a	n/a	0	0	0
2354902	WORD	wordpools/wasnorm_wordpool_576.txt	LTP290	ltpFR2	13	11	RAZOR	1171	n/a	n/a	0	0	0
2357378	WORD	wordpools/wasnorm_wordpool_576.txt	LTP290	ltpFR2	13	11	SPOON	1357	n/a	n/a	0	0	0
2359876	WORD	wordpools/wasnorm_wordpool_576.txt	LTP290	ltpFR2	13	11	PEDAL	1037	n/a	n/a	0	0	0
2362464	WORD	wordpools/wasnorm_wordpool_576.txt	LTP290	ltpFR2	13	11	BURGLAR	200	n/a	n/a	0	0	0
2364995	WORD	wordpools/wasnorm_wordpool_576.txt	LTP290	ltpFR2	13	11	BUREAU	199	n/a	n/a	0	0	0
2367488	WORD	wordpools/wasnorm_wordpool_576.txt	LTP290	ltpFR2	13	11	PECAN	1036	n/a	n/a	0	0	0
2370031	WORD	wordpools/wasnorm_wordpool_576.txt	LTP290	ltpFR2	13	11	SANDWICH	1232	n/a	n/a	0	0	0
2372706	WORD	wordpools/wasnorm_wordpool_576.txt	LTP290	ltpFR2	13	11	TRIBE	1505	n/a	n/a	0	0	0
2375133	WORD	wordpools/wasnorm_wordpool_576.txt	LTP290	ltpFR2	13	11	PIGEON	1065	n/a	n/a	0	0	0
2377708	WORD	wordpools/wasnorm_wordpool_576.txt	LTP290	ltpFR2	13	11	DOLPHIN	483	n/a	n/a	0	0	0
2380515	WORD	wordpools/wasnorm_wordpool_576.txt	LTP290	ltpFR2	13	11	TEMPLE	1448	n/a	n/a	0	0	0
2383130	WORD	wordpools/wasnorm_wordpool_576.txt	LTP290	ltpFR2	13	11	SISTER	1312	n/a	n/a	0	0	0
2385650	WORD	wordpools/wasnorm_wordpool_576.txt	LTP290	ltpFR2	13	11	SCALLOP	1242	n/a	n/a	0	0	0
2388400	WORD	wordpools/wasnorm_wordpool_576.txt	LTP290	ltpFR2	13	11	OYSTER	995	n/a	n/a	0	0	0
2390892	WORD	wordpools/wasnorm_wordpool_576.txt	LTP290	ltpFR2	13	11	GARDEN	623	n/a	n/a	0	0	0
2393586	WORD	wordpools/wasnorm_wordpool_576.txt	LTP290	ltpFR2	13	11	ASIA	46	n/a	n/a	0	0	0
2396107	WORD	wordpools/wasnorm_wordpool_576.txt	LTP290	ltpFR2	13	11	ATLAS	53	n/a	n/a	0	0	0
2397718	START	n/a	LTP290	ltpFR2	13	n/a	n/a	n/a	17	n/a	n/a	n/a	n/a
2398775	DISTRACTOR	n/a	LTP290	ltpFR2	13	11	n/a	n/a	n/a	n/a	0	0	0
2398789	PROB	n/a	LTP290	ltpFR2	13	n/a	n/a	n/a	17	21	8	4	9
2401449	PROB	n/a	LTP290	ltpFR2	13	n/a	n/a	n/a	17	15	5	4	6
2403184	PROB	n/a	LTP290	ltpFR2	13	n/a	n/a	n/a	17	22	5	9	8
2404807	PROB	n/a	LTP290	ltpFR2	13	n/a	n/a	n/a	17	13	3	6	4
2406229	PROB	n/a	LTP290	ltpFR2	13	n/a	n/a	n/a	17	9	2	1	6
2407584	PROB	n/a	LTP290	ltpFR2	13	n/a	n/a	n/a	17	15	7	6	2
2411248	PROB	n/a	LTP290	ltpFR2	13	n/a	n/a	n/a	17	14	4	2	8
2412787	PROB	n/a	LTP290	ltpFR2	13	n/a	n/a	n/a	17	22	8	7	7
2414510	PROB	n/a	LTP290	ltpFR2	13	n/a	n/a	n/a	17	16	9	5	2
2416183	PROB	n/a	LTP290	ltpFR2	13	n/a	n/a	n/a	17	18	7	7	4
2418324	PROB	n/a	LTP290	ltpFR2	13	n/a	n/a	n/a	17	14	3	3	8
2420131	PROB	n/a	LTP290	ltpFR2	13	n/a	n/a	n/a	17	10	6	2	2
2421563	STOP	n/a	LTP290	ltpFR2	13	n/a	n/a	n/a	17	n/a	n/a	n/a	n/a
2423683	REC_START	n/a	LTP290	ltpFR2	13	11	n/a	n/a	n/a	n/a	0	0	0
2424713	REC_WORD	wordpools/wasnorm_wordpool_576.txt	LTP290	ltpFR2	13	11	ASIA	46	n/a	n/a	0	0	0
2514708	DISTRACTOR	n/a	LTP290	ltpFR2	13	12	n/a	n/a	n/a	n/a	0	0	0
2514708	START	n/a	LTP290	ltpFR2	13	n/a	n/a	n/a	18	n/a	n/a	n/a	n/a
2514759	PROB	n/a	LTP290	ltpFR2	13	n/a	n/a	n/a	18	23	8	8	7
2518234	PROB	n/a	LTP290	ltpFR2	13	n/a	n/a	n/a	18	16	1	8	7
2519857	PROB	n/a	LTP290	ltpFR2	13	n/a	n/a	n/a	18	16	2	7	7
2521736	PROB	n/a	LTP290	ltpFR2	13	n/a	n/a	n/a	18	19	5	7	7
2523509	PROB	n/a	LTP290	ltpFR2	13	n/a	n/a	n/a	18	14	6	1	7
2525428	PROB	n/a	LTP290	ltpFR2	13	n/a	n/a	n/a	18	14	2	7	5
2527541	PROB	n/a	LTP290	ltpFR2	13	n/a	n/a	n/a	18	14	3	9	2
2529242	PROB	n/a	LTP290	ltpFR2	13	n/a	n/a	n/a	18	16	7	5	4
2531116	PROB	n/a	LTP290	ltpFR2	13	n/a	n/a	n/a	18	24	6	9	6
2533442	PROB	n/a	LTP290	ltpFR2	13	n/a	n/a	n/a	18	21	8	7	6
2535466	PROB	n/a	LTP290	ltpFR2	13	n/a	n/a	n/a	18	6	2	2	2
2538707	STOP	n/a	LTP290	ltpFR2	13	n/a	n/a	n/a	18	n/a	n/a	n/a	n/a
2539799	WORD	wordpools/wasnorm_wordpool_576.txt	LTP290	ltpFR2	13	12	NOTEBOOK	959	n/a	n/a	0	0	0
2542375	WORD	wordpools/wasnorm_wordpool_576.txt	LTP290	ltpFR2	13	12	RUST	1219	n/a	n/a	0	0	0
2544873	WORD	wordpools/wasnorm_wordpool_576.txt	LTP290	ltpFR2	13	12	FIREPLACE	570	n/a	n/a	0	0	0
2547666	WORD	wordpools/wasnorm_wordpool_576.txt	LTP290	ltpFR2	13	12	STOMACH	1384	n/a	n/a	0	0	0
2550422	WORD	wordpools/wasnorm_wordpool_576.txt	LTP290	ltpFR2	13	12	BELLY	119	n/a	n/a	0	0	0
2553154	WORD	wordpools/wasnorm_wordpool_576.txt	LTP290	ltpFR2	13	12	WAITER	1580	n/a	n/a	0	0	0
2555893	WORD	wordpools/wasnorm_wordpool_576.txt	LTP290	ltpFR2	13	12	PAIL	1002	n/a	n/a	0	0	0
2558369	WORD	wordpools/wasnorm_wordpool_576.txt	LTP290	ltpFR2	13	12	PAPER	1011	n/a	n/a	0	0	0
2561113	WORD	wordpools/wasnorm_wordpool_576.txt	LTP290	ltpFR2	13	12	PERCH	1048	n/a	n/a	0	0	0
2563659	WORD	wordpools/wasnorm_wordpool_576.txt	LTP290	ltpFR2	13	12	WASHER	1592	n/a	n/a	0	0	0
2566337	WORD	wordpools/wasnorm_wordpool_576.txt	LTP290	ltpFR2	13	12	DUSTPAN	509	n/a	n/a	0	0	0
2569114	WORD	wordpools/wasnorm_wordpool_576.txt	LTP290	ltpFR2	13	12	SHERIFF	1284	n/a	n/a	0	0	0
2571690	WORD	wordpools/wasnorm_wordpool_576.txt	LTP290	ltpFR2	13	12	GRIZZLY	662	n/a	n/a	0	0	0
2574346	WORD	wordpools/wasnorm_wordpool_576.txt	LTP290	ltpFR2	13	12	RATTLE	1170	n/a	n/a	0	0	0
2576843	WORD	wordpools/wasnorm_wordpool_576.txt	LTP290	ltpFR2	13	12	SLIDE	1326	n/a	n/a	0	0	0
2579520	WORD	wordpools/wasnorm_wordpool_576.txt	LTP290	ltpFR2	13	12	DRESSER	496	n/a	n/a	0	0	0
2582008	WORD	wordpools/wasnorm_wordpool_576.txt	LTP290	ltpFR2	13	12	AWARD	63	n/a	n/a	0	0	0
2584773	WORD	wordpools/wasnorm_wordpool_576.txt	LTP290	ltpFR2	13	12	ROBOT	1200	n/a	n/a	0	0	0
2587534	WORD	wordpools/wasnorm_wordpool_576.txt	LTP290	ltpFR2	13	12	PIMPLE	1071	n/a	n/a	0	0	0
2590244	WORD	wordpools/wasnorm_wordpool_576.txt	LTP290	ltpFR2	13	12	SHORTS	1293	n/a	n/a	0	0	0
2592837	WORD	wordpools/wasnorm_wordpool_576.txt	LTP290	ltpFR2	13	12	DRESS	495	n/a	n/a	0	0	0
2595291	WORD	wordpools/wasnorm_wordpool_576.txt	LTP290	ltpFR2	13	12	STAPLE	1371	n/a	n/a	0	0	0
2597772	WORD	wordpools/wasnorm_wordpool_576.txt	LTP290	ltpFR2	13	12	TABLET	1427	n/a	n/a	0	0	0
2600382	WORD	wordpools/wasnorm_wordpool_576.txt	LTP290	ltpFR2	13	12	CLIMBER	323	n/a	n/a	0	0	0
2601988	START	n/a	LTP290	ltpFR2	13	n/a	n/a	n/a	19	n/a	n/a	n/a	n/a
2602989	DISTRACTOR	n/a	LTP290	ltpFR2	13	12	n/a	n/a	n/a	n/a	0	0	0
2603004	PROB	n/a	LTP290	ltpFR2	13	n/a	n/a	n/a	19	16	6	7	3
2605384	PROB	n/a	LTP290	ltpFR2	13	n/a	n/a	n/a	19	24	9	8	7
2607086	PROB	n/a	LTP290	ltpFR2	13	n/a	n/a	n/a	19	18	5	7	6
2608558	PROB	n/a	LTP290	ltpFR2	13	n/a	n/a	n/a	19	14	1	6	7
2609829	PROB	n/a	LTP290	ltpFR2	13	n/a	n/a	n/a	19	18	3	8	7
2611168	PROB	n/a	LTP290	ltpFR2	13	n/a	n/a	n/a	19	22	8	8	6
2616605	PROB	n/a	LTP290	ltpFR2	13	n/a	n/a	n/a	19	11	7	2	2
2617960	PROB	n/a	LTP290	ltpFR2	13	n/a	n/a	n/a	19	6	2	1	3
2619621	PROB	n/a	LTP290	ltpFR2	13	n/a	n/a	n/a	19	21	7	5	9
2621707	PROB	n/a	LTP290	ltpFR2	13	n/a	n/a	n/a	19	14	2	7	5
2623364	PROB	n/a	LTP290	ltpFR2	13	n/a	n/a	n/a	19	9	2	6	1
2624674	STOP	n/a	LTP290	ltpFR2	13	n/a	n/a	n/a	19	n/a	n/a	n/a	n/a
2627798	REC_START	n/a	LTP290	ltpFR2	13	12	n/a	n/a	n/a	n/a	0	0	0
2630050	REC_WORD	wordpools/wasnorm_wordpool_576.txt	LTP290	ltpFR2	13	12	GRIZZLY	662	n/a	n/a	0	0	0
2630555	REC_WORD	wordpools/wasnorm_wordpool_576.txt	LTP290	ltpFR2	13	12	SHERIFF	1284	n/a	n/a	0	0	0
2631175	REC_WORD	wordpools/wasnorm_wordpool_576.txt	LTP290	ltpFR2	13	12	RATTLE	1170	n/a	n/a	0	0	0
2632079	REC_WORD	wordpools/wasnorm_wordpool_576.txt	LTP290	ltpFR2	13	12	DRESSER	496	n/a	n/a	0	0	0
2632565	REC_WORD	wordpools/wasnorm_wordpool_576.txt	LTP290	ltpFR2	13	12	AWARD	63	n/a	n/a	0	0	0
2633300	REC_WORD	wordpools/wasnorm_wordpool_576.txt	LTP290	ltpFR2	13	12	PIMPLE	1071	n/a	n/a	0	0	0
2633785	REC_WORD	wordpools/wasnorm_wordpool_576.txt	LTP290	ltpFR2	13	12	SHORTS	1293	n/a	n/a	0	0	0
2634503	REC_WORD	wordpools/wasnorm_wordpool_576.txt	LTP290	ltpFR2	13	12	DRESSER	496	n/a	n/a	0	0	0
2637102	REC_WORD	wordpools/wasnorm_wordpool_576.txt	LTP290	ltpFR2	13	12	DRESS	495	n/a	n/a	0	0	0
2637555	REC_WORD	wordpools/wasnorm_wordpool_576.txt	LTP290	ltpFR2	13	12	STAPLER	1372	n/a	n/a	0	0	0
2640411	REC_WORD	wordpools/wasnorm_wordpool_576.txt	LTP290	ltpFR2	13	12	TABLET	1427	n/a	n/a	0	0	0
2718845	DISTRACTOR	n/a	LTP290	ltpFR2	13	13	n/a	n/a	n/a	n/a	0	0	0
2718845	START	n/a	LTP290	ltpFR2	13	n/a	n/a	n/a	20	n/a	n/a	n/a	n/a
2718895	PROB	n/a	LTP290	ltpFR2	13	n/a	n/a	n/a	20	24	8	7	9
2722170	PROB	n/a	LTP290	ltpFR2	13	n/a	n/a	n/a	20	18	6	3	9
2723446	PROB	n/a	LTP290	ltpFR2	13	n/a	n/a	n/a	20	15	3	3	9
2725766	PROB	n/a	LTP290	ltpFR2	13	n/a	n/a	n/a	20	19	6	4	9
2727389	PROB	n/a	LTP290	ltpFR2	13	n/a	n/a	n/a	20	11	2	4	5
2728778	PROB	n/a	LTP290	ltpFR2	13	n/a	n/a	n/a	20	17	9	2	6
2730451	PROB	n/a	LTP290	ltpFR2	13	n/a	n/a	n/a	20	10	6	2	2
2732241	PROB	n/a	LTP290	ltpFR2	13	n/a	n/a	n/a	20	23	7	8	8
2736223	PROB	n/a	LTP290	ltpFR2	13	n/a	n/a	n/a	20	24	8	7	6
2742844	STOP	n/a	LTP290	ltpFR2	13	n/a	n/a	n/a	20	n/a	n/a	n/a	n/a
2743957	WORD	wordpools/wasnorm_wordpool_576.txt	LTP290	ltpFR2	13	13	FLASHLIGHT	575	n/a	n/a	0	0	0
2746678	WORD	wordpools/wasnorm_wordpool_576.txt	LTP290	ltpFR2	13	13	THIEF	1456	n/a	n/a	0	0	0
2749272	WORD	wordpools/wasnorm_wordpool_576.txt	LTP290	ltpFR2	13	13	SNAIL	1332	n/a	n/a	0	0	0
2752082	WORD	wordpools/wasnorm_wordpool_576.txt	LTP290	ltpFR2	13	13	PUPIL	1143	n/a	n/a	0	0	0
2754776	WORD	wordpools/wasnorm_wordpool_576.txt	LTP290	ltpFR2	13	13	LABEL	790	n/a	n/a	0	0	0
2757586	WORD	wordpools/wasnorm_wordpool_576.txt	LTP290	ltpFR2	13	13	LOFT	840	n/a	n/a	0	0	0
2760318	WORD	wordpools/wasnorm_wordpool_576.txt	LTP290	ltpFR2	13	13	FEMALE	559	n/a	n/a	0	0	0
2762945	WORD	wordpools/wasnorm_wordpool_576.txt	LTP290	ltpFR2	13	13	PIANO	1057	n/a	n/a	0	0	0
2765605	WORD	wordpools/wasnorm_wordpool_576.txt	LTP290	ltpFR2	13	13	GALLON	618	n/a	n/a	0	0	0
2768081	WORD	wordpools/wasnorm_wordpool_576.txt	LTP290	ltpFR2	13	13	THREAD	1460	n/a	n/a	0	0	0
2770523	WORD	wordpools/wasnorm_wordpool_576.txt	LTP290	ltpFR2	13	13	PISTOL	1075	n/a	n/a	0	0	0
2773150	WORD	wordpools/wasnorm_wordpool_576.txt	LTP290	ltpFR2	13	13	TART	1436	n/a	n/a	0	0	0
2775805	WORD	wordpools/wasnorm_wordpool_576.txt	LTP290	ltpFR2	13	13	TREAT	1501	n/a	n/a	0	0	0
2778336	WORD	wordpools/wasnorm_wordpool_576.txt	LTP290	ltpFR2	13	13	CANDY	230	n/a	n/a	0	0	0
2781159	WORD	wordpools/wasnorm_wordpool_576.txt	LTP290	ltpFR2	13	13	BUBBLE	183	n/a	n/a	0	0	0
2783924	WORD	wordpools/wasnorm_wordpool_576.txt	LTP290	ltpFR2	13	13	FLOWER	584	n/a	n/a	0	0	0
2786534	WORD	wordpools/wasnorm_wordpool_576.txt	LTP290	ltpFR2	13	13	SOFTBALL	1343	n/a	n/a	0	0	0
2789227	WORD	wordpools/wasnorm_wordpool_576.txt	LTP290	ltpFR2	13	13	RECORD	1176	n/a	n/a	0	0	0
2791753	WORD	wordpools/wasnorm_wordpool_576.txt	LTP290	ltpFR2	13	13	TUNNEL	1519	n/a	n/a	0	0	0
2794442	WORD	wordpools/wasnorm_wordpool_576.txt	LTP290	ltpFR2	13	13	PLIERS	1089	n/a	n/a	0	0	0
2797040	WORD	wordpools/wasnorm_wordpool_576.txt	LTP290	ltpFR2	13	13	LADY	794	n/a	n/a	0	0	0
2799649	WORD	wordpools/wasnorm_wordpool_576.txt	LTP290	ltpFR2	13	13	WOMAN	1620	n/a	n/a	0	0	0
2802071	WORD	wordpools/wasnorm_wordpool_576.txt	LTP290	ltpFR2	13	13	MATTRESS	879	n/a	n/a	0	0	0
2804518	WORD	wordpools/wasnorm_wordpool_576.txt	LTP290	ltpFR2	13	13	WHISKERS	1605	n/a	n/a	0	0	0
2806124	START	n/a	LTP290	ltpFR2	13	n/a	n/a	n/a	21	n/a	n/a	n/a	n/a
2807120	DISTRACTOR	n/a	LTP290	ltpFR2	13	13	n/a	n/a	n/a	n/a	0	0	0
2807128	PROB	n/a	LTP290	ltpFR2	13	n/a	n/a	n/a	21	16	8	2	6
2808695	PROB	n/a	LTP290	ltpFR2	13	n/a	n/a	n/a	21	21	7	6	9
2810503	PROB	n/a	LTP290	ltpFR2	13	n/a	n/a	n/a	21	8	1	5	2
2812293	PROB	n/a	LTP290	ltpFR2	13	n/a	n/a	n/a	21	20	8	7	5
2813680	PROB	n/a	LTP290	ltpFR2	13	n/a	n/a	n/a	21	10	2	5	3
2815153	PROB	n/a	LTP290	ltpFR2	13	n/a	n/a	n/a	21	14	9	2	3
2816592	PROB	n/a	LTP290	ltpFR2	13	n/a	n/a	n/a	21	6	3	1	2
2818550	PROB	n/a	LTP290	ltpFR2	13	n/a	n/a	n/a	21	16	1	6	9
2819938	PROB	n/a	LTP290	ltpFR2	13	n/a	n/a	n/a	21	13	4	4	5
2822013	PROB	n/a	LTP290	ltpFR2	13	n/a	n/a	n/a	21	10	1	5	4
2823485	PROB	n/a	LTP290	ltpFR2	13	n/a	n/a	n/a	21	15	2	6	7
2825492	PROB	n/a	LTP290	ltpFR2	13	n/a	n/a	n/a	21	9	5	1	3
2827232	PROB	n/a	LTP290	ltpFR2	13	n/a	n/a	n/a	21	9	6	2	1
2828537	PROB	n/a	LTP290	ltpFR2	13	n/a	n/a	n/a	21	20	7	4	9
2829899	STOP	n/a	LTP290	ltpFR2	13	n/a	n/a	n/a	21	n/a	n/a	n/a	n/a
2831884	REC_START	n/a	LTP290	ltpFR2	13	13	n/a	n/a	n/a	n/a	0	0	0
2838704	REC_WORD_VV	wordpools/wasnorm_wordpool_576.txt	LTP290	ltpFR2	13	13	<>	-1	n/a	n/a	0	0	0
2839489	REC_WORD	wordpools/wasnorm_wordpool_576.txt	LTP290	ltpFR2	13	13	PLIERS	1089	n/a	n/a	0	0	0
2922914	DISTRACTOR	n/a	LTP290	ltpFR2	13	14	n/a	n/a	n/a	n/a	0	0	0
2922915	START	n/a	LTP290	ltpFR2	13	n/a	n/a	n/a	22	n/a	n/a	n/a	n/a
2922965	PROB	n/a	LTP290	ltpFR2	13	n/a	n/a	n/a	22	22	7	8	7
2926377	PROB	n/a	LTP290	ltpFR2	13	n/a	n/a	n/a	22	17	1	7	9
2928151	PROB	n/a	LTP290	ltpFR2	13	n/a	n/a	n/a	22	5	1	2	2
2929991	PROB	n/a	LTP290	ltpFR2	13	n/a	n/a	n/a	22	19	8	2	9
2932479	PROB	n/a	LTP290	ltpFR2	13	n/a	n/a	n/a	22	12	1	5	6
2933682	PROB	n/a	LTP290	ltpFR2	13	n/a	n/a	n/a	22	10	4	5	1
2935022	PROB	n/a	LTP290	ltpFR2	13	n/a	n/a	n/a	22	12	8	2	2
2936260	PROB	n/a	LTP290	ltpFR2	13	n/a	n/a	n/a	22	8	3	2	3
2938451	PROB	n/a	LTP290	ltpFR2	13	n/a	n/a	n/a	22	22	6	8	8
2940024	PROB	n/a	LTP290	ltpFR2	13	n/a	n/a	n/a	22	20	6	7	7
2942053	PROB	n/a	LTP290	ltpFR2	13	n/a	n/a	n/a	22	11	2	4	5
2943687	PROB	n/a	LTP290	ltpFR2	13	n/a	n/a	n/a	22	15	8	2	5
2946179	STOP	n/a	LTP290	ltpFR2	13	n/a	n/a	n/a	22	n/a	n/a	n/a	n/a
2947975	WORD	wordpools/wasnorm_wordpool_576.txt	LTP290	ltpFR2	13	14	FOREHEAD	592	n/a	n/a	0	0	0
2950535	WORD	wordpools/wasnorm_wordpool_576.txt	LTP290	ltpFR2	13	14	LONDON	843	n/a	n/a	0	0	0
2953296	WORD	wordpools/wasnorm_wordpool_576.txt	LTP290	ltpFR2	13	14	CHURCH	307	n/a	n/a	0	0	0
2955884	WORD	wordpools/wasnorm_wordpool_576.txt	LTP290	ltpFR2	13	14	RIFLE	1192	n/a	n/a	0	0	0
2958648	WORD	wordpools/wasnorm_wordpool_576.txt	LTP290	ltpFR2	13	14	CANYON	235	n/a	n/a	0	0	0
2961321	WORD	wordpools/wasnorm_wordpool_576.txt	LTP290	ltpFR2	13	14	COUNTY	389	n/a	n/a	0	0	0
2963919	WORD	wordpools/wasnorm_wordpool_576.txt	LTP290	ltpFR2	13	14	JOURNAL	760	n/a	n/a	0	0	0
2966462	WORD	wordpools/wasnorm_wordpool_576.txt	LTP290	ltpFR2	13	14	AUTHOR	61	n/a	n/a	0	0	0
2968971	WORD	wordpools/wasnorm_wordpool_576.txt	LTP290	ltpFR2	13	14	SHRUB	1299	n/a	n/a	0	0	0
2971514	WORD	wordpools/wasnorm_wordpool_576.txt	LTP290	ltpFR2	13	14	ICING	732	n/a	n/a	0	0	0
2974124	WORD	wordpools/wasnorm_wordpool_576.txt	LTP290	ltpFR2	13	14	ORANGE	980	n/a	n/a	0	0	0
2976617	WORD	wordpools/wasnorm_wordpool_576.txt	LTP290	ltpFR2	13	14	COMET	353	n/a	n/a	0	0	0
2979172	WORD	wordpools/wasnorm_wordpool_576.txt	LTP290	ltpFR2	13	14	JUGGLER	763	n/a	n/a	0	0	0
2981920	WORD	wordpools/wasnorm_wordpool_576.txt	LTP290	ltpFR2	13	14	KLEENEX	782	n/a	n/a	0	0	0
2984446	WORD	wordpools/wasnorm_wordpool_576.txt	LTP290	ltpFR2	13	14	LIPSTICK	829	n/a	n/a	0	0	0
2986905	WORD	wordpools/wasnorm_wordpool_576.txt	LTP290	ltpFR2	13	14	CHAPEL	280	n/a	n/a	0	0	0
2989549	WORD	wordpools/wasnorm_wordpool_576.txt	LTP290	ltpFR2	13	14	LEG	809	n/a	n/a	0	0	0
2992326	WORD	wordpools/wasnorm_wordpool_576.txt	LTP290	ltpFR2	13	14	ANKLE	24	n/a	n/a	0	0	0
2995031	WORD	wordpools/wasnorm_wordpool_576.txt	LTP290	ltpFR2	13	14	KETCHUP	771	n/a	n/a	0	0	0
2997608	WORD	wordpools/wasnorm_wordpool_576.txt	LTP290	ltpFR2	13	14	GUARD	667	n/a	n/a	0	0	0
3000038	WORD	wordpools/wasnorm_wordpool_576.txt	LTP290	ltpFR2	13	14	OUTLAW	989	n/a	n/a	0	0	0
3002526	WORD	wordpools/wasnorm_wordpool_576.txt	LTP290	ltpFR2	13	14	COURSE	390	n/a	n/a	0	0	0
3005158	WORD	wordpools/wasnorm_wordpool_576.txt	LTP290	ltpFR2	13	14	COIN	343	n/a	n/a	0	0	0
3007695	WORD	wordpools/wasnorm_wordpool_576.txt	LTP290	ltpFR2	13	14	IDOL	733	n/a	n/a	0	0	0
3009307	START	n/a	LTP290	ltpFR2	13	n/a	n/a	n/a	23	n/a	n/a	n/a	n/a
3010477	DISTRACTOR	n/a	LTP290	ltpFR2	13	14	n/a	n/a	n/a	n/a	0	0	0
3010494	PROB	n/a	LTP290	ltpFR2	13	n/a	n/a	n/a	23	11	6	4	1
3012502	PROB	n/a	LTP290	ltpFR2	13	n/a	n/a	n/a	23	21	5	9	7
3013986	PROB	n/a	LTP290	ltpFR2	13	n/a	n/a	n/a	23	15	5	5	5
3015107	PROB	n/a	LTP290	ltpFR2	13	n/a	n/a	n/a	23	15	2	7	6
3016479	PROB	n/a	LTP290	ltpFR2	13	n/a	n/a	n/a	23	5	2	1	2
3017856	PROB	n/a	LTP290	ltpFR2	13	n/a	n/a	n/a	23	17	2	8	7
3019278	PROB	n/a	LTP290	ltpFR2	13	n/a	n/a	n/a	23	18	4	6	8
3020444	PROB	n/a	LTP290	ltpFR2	13	n/a	n/a	n/a	23	17	9	3	5
3022718	PROB	n/a	LTP290	ltpFR2	13	n/a	n/a	n/a	23	16	3	5	8
3024096	PROB	n/a	LTP290	ltpFR2	13	n/a	n/a	n/a	23	16	7	3	6
3025479	PROB	n/a	LTP290	ltpFR2	13	n/a	n/a	n/a	23	17	5	4	8
3026952	PROB	n/a	LTP290	ltpFR2	13	n/a	n/a	n/a	23	16	7	4	5
3028307	PROB	n/a	LTP290	ltpFR2	13	n/a	n/a	n/a	23	14	8	3	3
3030231	PROB	n/a	LTP290	ltpFR2	13	n/a	n/a	n/a	23	19	7	5	5
3032931	STOP	n/a	LTP290	ltpFR2	13	n/a	n/a	n/a	23	n/a	n/a	n/a	n/a
3035116	REC_START	n/a	LTP290	ltpFR2	13	14	n/a	n/a	n/a	n/a	0	0	0
3038372	REC_WORD	wordpools/wasnorm_wordpool_576.txt	LTP290	ltpFR2	13	14	OUTLAW	989	n/a	n/a	0	0	0
3038913	REC_WORD	wordpools/wasnorm_wordpool_576.txt	LTP290	ltpFR2	13	14	COIN	343	n/a	n/a	0	0	0
3040979	REC_WORD	wordpools/wasnorm_wordpool_576.txt	LTP290	ltpFR2	13	14	LIPSTICK	829	n/a	n/a	0	0	0
3041519	REC_WORD	wordpools/wasnorm_wordpool_576.txt	LTP290	ltpFR2	13	14	CHAPEL	280	n/a	n/a	0	0	0
3043437	REC_WORD	wordpools/wasnorm_wordpool_576.txt	LTP290	ltpFR2	13	14	KLEENEX	782	n/a	n/a	0	0	0
3044037	REC_WORD	wordpools/wasnorm_wordpool_576.txt	LTP290	ltpFR2	13	14	JUGGLER	763	n/a	n/a	0	0	0
3126180	WORD	wordpools/wasnorm_wordpool_576.txt	LTP290	ltpFR2	13	15	ROD	1203	n/a	n/a	0	0	0
3128857	WORD	wordpools/wasnorm_wordpool_576.txt	LTP290	ltpFR2	13	15	BOYFRIEND	162	n/a	n/a	0	0	0
3131434	WORD	wordpools/wasnorm_wordpool_576.txt	LTP290	ltpFR2	13	15	LOVER	846	n/a	n/a	0	0	0
3134144	WORD	wordpools/wasnorm_wordpool_576.txt	LTP290	ltpFR2	13	15	JUDGE	761	n/a	n/a	0	0	0
3136799	WORD	wordpools/wasnorm_wordpool_576.txt	LTP290	ltpFR2	13	15	CRAYON	401	n/a	n/a	0	0	0
3139447	WORD	wordpools/wasnorm_wordpool_576.txt	LTP290	ltpFR2	13	15	JELLY	755	n/a	n/a	0	0	0
3141873	WORD	wordpools/wasnorm_wordpool_576.txt	LTP290	ltpFR2	13	15	FOOT	590	n/a	n/a	0	0	0
3144511	WORD	wordpools/wasnorm_wordpool_576.txt	LTP290	ltpFR2	13	15	KEEPER	769	n/a	n/a	0	0	0
3147171	WORD	wordpools/wasnorm_wordpool_576.txt	LTP290	ltpFR2	13	15	ZIPPER	1636	n/a	n/a	0	0	0
3149831	WORD	wordpools/wasnorm_wordpool_576.txt	LTP290	ltpFR2	13	15	PADDING	999	n/a	n/a	0	0	0
3152358	WORD	wordpools/wasnorm_wordpool_576.txt	LTP290	ltpFR2	13	15	PARTNER	1017	n/a	n/a	0	0	0
3155018	WORD	wordpools/wasnorm_wordpool_576.txt	LTP290	ltpFR2	13	15	BROTHER	179	n/a	n/a	0	0	0
3157749	WORD	wordpools/wasnorm_wordpool_576.txt	LTP290	ltpFR2	13	15	PLAYGROUND	1087	n/a	n/a	0	0	0
3160443	WORD	wordpools/wasnorm_wordpool_576.txt	LTP290	ltpFR2	13	15	CLOCK	325	n/a	n/a	0	0	0
3163237	WORD	wordpools/wasnorm_wordpool_576.txt	LTP290	ltpFR2	13	15	ROBBER	1197	n/a	n/a	0	0	0
3165830	WORD	wordpools/wasnorm_wordpool_576.txt	LTP290	ltpFR2	13	15	SUSPECT	1415	n/a	n/a	0	0	0
3168423	WORD	wordpools/wasnorm_wordpool_576.txt	LTP290	ltpFR2	13	15	TORTOISE	1486	n/a	n/a	0	0	0
3170861	WORD	wordpools/wasnorm_wordpool_576.txt	LTP290	ltpFR2	13	15	SUNRISE	1407	n/a	n/a	0	0	0
3173475	WORD	wordpools/wasnorm_wordpool_576.txt	LTP290	ltpFR2	13	15	POSTAGE	1113	n/a	n/a	0	0	0
3176236	WORD	wordpools/wasnorm_wordpool_576.txt	LTP290	ltpFR2	13	15	HANDBAG	684	n/a	n/a	0	0	0
3178729	WORD	wordpools/wasnorm_wordpool_576.txt	LTP290	ltpFR2	13	15	SILK	1307	n/a	n/a	0	0	0
3181522	WORD	wordpools/wasnorm_wordpool_576.txt	LTP290	ltpFR2	13	15	SHIRT	1287	n/a	n/a	0	0	0
3184182	WORD	wordpools/wasnorm_wordpool_576.txt	LTP290	ltpFR2	13	15	LUGGAGE	847	n/a	n/a	0	0	0
3186976	WORD	wordpools/wasnorm_wordpool_576.txt	LTP290	ltpFR2	13	15	CORAL	378	n/a	n/a	0	0	0
3188583	START	n/a	LTP290	ltpFR2	13	n/a	n/a	n/a	24	n/a	n/a	n/a	n/a
3189389	DISTRACTOR	n/a	LTP290	ltpFR2	13	15	n/a	n/a	n/a	n/a	0	0	0
3189402	PROB	n/a	LTP290	ltpFR2	13	n/a	n/a	n/a	24	11	4	6	1
3190701	PROB	n/a	LTP290	ltpFR2	13	n/a	n/a	n/a	24	19	7	6	6
3192542	PROB	n/a	LTP290	ltpFR2	13	n/a	n/a	n/a	24	18	8	8	2
3194215	PROB	n/a	LTP290	ltpFR2	13	n/a	n/a	n/a	24	12	2	8	2
3195537	PROB	n/a	LTP290	ltpFR2	13	n/a	n/a	n/a	24	19	8	3	8
3197394	PROB	n/a	LTP290	ltpFR2	13	n/a	n/a	n/a	24	10	4	4	2
3199373	PROB	n/a	LTP290	ltpFR2	13	n/a	n/a	n/a	24	18	6	8	4
3201325	PROB	n/a	LTP290	ltpFR2	13	n/a	n/a	n/a	24	14	1	8	5
3202646	PROB	n/a	LTP290	ltpFR2	13	n/a	n/a	n/a	24	12	5	4	3
3203919	PROB	n/a	LTP290	ltpFR2	13	n/a	n/a	n/a	24	18	1	9	8
3206177	PROB	n/a	LTP290	ltpFR2	13	n/a	n/a	n/a	24	23	9	8	6
3208636	PROB	n/a	LTP290	ltpFR2	13	n/a	n/a	n/a	24	17	6	3	8
3210632	PROB	n/a	LTP290	ltpFR2	13	n/a	n/a	n/a	24	18	9	1	8
3212051	STOP	n/a	LTP290	ltpFR2	13	n/a	n/a	n/a	24	n/a	n/a	n/a	n/a
3214442	REC_START	n/a	LTP290	ltpFR2	13	15	n/a	n/a	n/a	n/a	0	0	0
3237486	REC_WORD	wordpools/wasnorm_wordpool_576.txt	LTP290	ltpFR2	13	15	ROD	1203	n/a	n/a	0	0	0
3237970	REC_WORD	wordpools/wasnorm_wordpool_576.txt	LTP290	ltpFR2	13	15	BOYFRIEND	162	n/a	n/a	0	0	0
3238384	REC_WORD	wordpools/wasnorm_wordpool_576.txt	LTP290	ltpFR2	13	15	LOVER	846	n/a	n/a	0	0	0
3305506	WORD	wordpools/wasnorm_wordpool_576.txt	LTP290	ltpFR2	13	16	HOUND	724	n/a	n/a	0	0	0
3308128	WORD	wordpools/wasnorm_wordpool_576.txt	LTP290	ltpFR2	13	16	BRICK	172	n/a	n/a	0	0	0
3310893	WORD	wordpools/wasnorm_wordpool_576.txt	LTP290	ltpFR2	13	16	COTTAGE	384	n/a	n/a	0	0	0
3313436	WORD	wordpools/wasnorm_wordpool_576.txt	LTP290	ltpFR2	13	16	BARREL	91	n/a	n/a	0	0	0
3316146	WORD	wordpools/wasnorm_wordpool_576.txt	LTP290	ltpFR2	13	16	FLASK	576	n/a	n/a	0	0	0
3318873	WORD	wordpools/wasnorm_wordpool_576.txt	LTP290	ltpFR2	13	16	TROUT	1511	n/a	n/a	0	0	0
3321584	WORD	wordpools/wasnorm_wordpool_576.txt	LTP290	ltpFR2	13	16	FOX	598	n/a	n/a	0	0	0
3324105	WORD	wordpools/wasnorm_wordpool_576.txt	LTP290	ltpFR2	13	16	MATCH	878	n/a	n/a	0	0	0
3326770	WORD	wordpools/wasnorm_wordpool_576.txt	LTP290	ltpFR2	13	16	LAKE	796	n/a	n/a	0	0	0
3329442	WORD	wordpools/wasnorm_wordpool_576.txt	LTP290	ltpFR2	13	16	BATHTUB	100	n/a	n/a	0	0	0
3332118	WORD	wordpools/wasnorm_wordpool_576.txt	LTP290	ltpFR2	13	16	APRON	35	n/a	n/a	0	0	0
3334800	WORD	wordpools/wasnorm_wordpool_576.txt	LTP290	ltpFR2	13	16	SUNSET	1408	n/a	n/a	0	0	0
3337372	WORD	wordpools/wasnorm_wordpool_576.txt	LTP290	ltpFR2	13	16	CHAMPAGNE	278	n/a	n/a	0	0	0
3340120	WORD	wordpools/wasnorm_wordpool_576.txt	LTP290	ltpFR2	13	16	SEAL	1262	n/a	n/a	0	0	0
3342563	WORD	wordpools/wasnorm_wordpool_576.txt	LTP290	ltpFR2	13	16	BREAST	171	n/a	n/a	0	0	0
3345290	WORD	wordpools/wasnorm_wordpool_576.txt	LTP290	ltpFR2	13	16	HORSE	719	n/a	n/a	0	0	0
3347866	WORD	wordpools/wasnorm_wordpool_576.txt	LTP290	ltpFR2	13	16	RADISH	1158	n/a	n/a	0	0	0
3350359	WORD	wordpools/wasnorm_wordpool_576.txt	LTP290	ltpFR2	13	16	CROSS	413	n/a	n/a	0	0	0
3352868	WORD	wordpools/wasnorm_wordpool_576.txt	LTP290	ltpFR2	13	16	RABBIT	1152	n/a	n/a	0	0	0
3355511	WORD	wordpools/wasnorm_wordpool_576.txt	LTP290	ltpFR2	13	16	TYPIST	1532	n/a	n/a	0	0	0
3358267	WORD	wordpools/wasnorm_wordpool_576.txt	LTP290	ltpFR2	13	16	GLOBE	641	n/a	n/a	0	0	0
3360865	WORD	wordpools/wasnorm_wordpool_576.txt	LTP290	ltpFR2	13	16	LIZARD	834	n/a	n/a	0	0	0
3363658	WORD	wordpools/wasnorm_wordpool_576.txt	LTP290	ltpFR2	13	16	CASHIER	254	n/a	n/a	0	0	0
3366436	WORD	wordpools/wasnorm_wordpool_576.txt	LTP290	ltpFR2	13	16	QUEEN	1149	n/a	n/a	0	0	0
3368042	START	n/a	LTP290	ltpFR2	13	n/a	n/a	n/a	25	n/a	n/a	n/a	n/a
3369119	DISTRACTOR	n/a	LTP290	ltpFR2	13	16	n/a	n/a	n/a	n/a	0	0	0
3369129	PROB	n/a	LTP290	ltpFR2	13	n/a	n/a	n/a	25	15	2	6	7
3371650	PROB	n/a	LTP290	ltpFR2	13	n/a	n/a	n/a	25	14	1	7	6
3373575	PROB	n/a	LTP290	ltpFR2	13	n/a	n/a	n/a	25	17	6	8	3
3375097	PROB	n/a	LTP290	ltpFR2	13	n/a	n/a	n/a	25	13	1	3	9
3376737	PROB	n/a	LTP290	ltpFR2	13	n/a	n/a	n/a	25	20	7	9	4
3378911	PROB	n/a	LTP290	ltpFR2	13	n/a	n/a	n/a	25	11	4	2	5
3380300	PROB	n/a	LTP290	ltpFR2	13	n/a	n/a	n/a	25	13	4	5	4
3381823	PROB	n/a	LTP290	ltpFR2	13	n/a	n/a	n/a	25	8	1	2	5
3383567	PROB	n/a	LTP290	ltpFR2	13	n/a	n/a	n/a	25	15	7	4	4
3385536	PROB	n/a	LTP290	ltpFR2	13	n/a	n/a	n/a	25	7	2	1	4
3387164	PROB	n/a	LTP290	ltpFR2	13	n/a	n/a	n/a	25	20	8	4	8
3392041	STOP	n/a	LTP290	ltpFR2	13	n/a	n/a	n/a	25	n/a	n/a	n/a	n/a
3393902	REC_START	n/a	LTP290	ltpFR2	13	16	n/a	n/a	n/a	n/a	0	0	0
3395345	REC_WORD	wordpools/wasnorm_wordpool_576.txt	LTP290	ltpFR2	13	16	APRON	35	n/a	n/a	0	0	0
3395872	REC_WORD	wordpools/wasnorm_wordpool_576.txt	LTP290	ltpFR2	13	16	SUNSET	1408	n/a	n/a	0	0	0
3399407	REC_WORD	wordpools/wasnorm_wordpool_576.txt	LTP290	ltpFR2	13	16	TYPIST	1532	n/a	n/a	0	0	0
3470661	REST_REWET	n/a	LTP290	ltpFR2	13	16	n/a	n/a	n/a	n/a	0	0	0
3837913	DISTRACTOR	n/a	LTP290	ltpFR2	13	17	n/a	n/a	n/a	n/a	0	0	0
3837913	START	n/a	LTP290	ltpFR2	13	n/a	n/a	n/a	26	n/a	n/a	n/a	n/a
3837963	PROB	n/a	LTP290	ltpFR2	13	n/a	n/a	n/a	26	10	3	4	3
3839430	PROB	n/a	LTP290	ltpFR2	13	n/a	n/a	n/a	26	19	8	6	5
3841008	PROB	n/a	LTP290	ltpFR2	13	n/a	n/a	n/a	26	18	9	8	1
3842793	PROB	n/a	LTP290	ltpFR2	13	n/a	n/a	n/a	26	10	2	5	3
3844098	PROB	n/a	LTP290	ltpFR2	13	n/a	n/a	n/a	26	10	3	5	2
3845637	PROB	n/a	LTP290	ltpFR2	13	n/a	n/a	n/a	26	18	8	2	8
3846997	PROB	n/a	LTP290	ltpFR2	13	n/a	n/a	n/a	26	20	7	7	6
3848766	PROB	n/a	LTP290	ltpFR2	13	n/a	n/a	n/a	26	20	7	8	5
3850472	PROB	n/a	LTP290	ltpFR2	13	n/a	n/a	n/a	26	6	2	1	3
3851777	PROB	n/a	LTP290	ltpFR2	13	n/a	n/a	n/a	26	15	3	6	6
3853266	PROB	n/a	LTP290	ltpFR2	13	n/a	n/a	n/a	26	12	3	2	7
3854776	PROB	n/a	LTP290	ltpFR2	13	n/a	n/a	n/a	26	24	7	8	9
3858022	PROB	n/a	LTP290	ltpFR2	13	n/a	n/a	n/a	26	14	2	8	4
3859694	PROB	n/a	LTP290	ltpFR2	13	n/a	n/a	n/a	26	13	4	4	5
3861859	STOP	n/a	LTP290	ltpFR2	13	n/a	n/a	n/a	26	n/a	n/a	n/a	n/a
3862974	WORD	wordpools/wasnorm_wordpool_576.txt	LTP290	ltpFR2	13	17	TABLE	1426	n/a	n/a	0	0	0
3865617	WORD	wordpools/wasnorm_wordpool_576.txt	LTP290	ltpFR2	13	17	CONTRACT	368	n/a	n/a	0	0	0
3868210	WORD	wordpools/wasnorm_wordpool_576.txt	LTP290	ltpFR2	13	17	HORNET	718	n/a	n/a	0	0	0
3870636	WORD	wordpools/wasnorm_wordpool_576.txt	LTP290	ltpFR2	13	17	COUCH	386	n/a	n/a	0	0	0
3873096	WORD	wordpools/wasnorm_wordpool_576.txt	LTP290	ltpFR2	13	17	COOK	372	n/a	n/a	0	0	0
3875902	WORD	wordpools/wasnorm_wordpool_576.txt	LTP290	ltpFR2	13	17	COLONEL	348	n/a	n/a	0	0	0
3878377	WORD	wordpools/wasnorm_wordpool_576.txt	LTP290	ltpFR2	13	17	RECEIPT	1173	n/a	n/a	0	0	0
3881176	WORD	wordpools/wasnorm_wordpool_576.txt	LTP290	ltpFR2	13	17	BULLET	194	n/a	n/a	0	0	0
3883798	WORD	wordpools/wasnorm_wordpool_576.txt	LTP290	ltpFR2	13	17	SCULPTURE	1258	n/a	n/a	0	0	0
3886580	WORD	wordpools/wasnorm_wordpool_576.txt	LTP290	ltpFR2	13	17	DRILL	497	n/a	n/a	0	0	0
3889156	WORD	wordpools/wasnorm_wordpool_576.txt	LTP290	ltpFR2	13	17	OINTMENT	974	n/a	n/a	0	0	0
3891945	WORD	wordpools/wasnorm_wordpool_576.txt	LTP290	ltpFR2	13	17	DAISY	435	n/a	n/a	0	0	0
3894756	WORD	wordpools/wasnorm_wordpool_576.txt	LTP290	ltpFR2	13	17	ORCHID	982	n/a	n/a	0	0	0
3897533	WORD	wordpools/wasnorm_wordpool_576.txt	LTP290	ltpFR2	13	17	SKETCH	1315	n/a	n/a	0	0	0
3900348	WORD	wordpools/wasnorm_wordpool_576.txt	LTP290	ltpFR2	13	17	MUSTARD	935	n/a	n/a	0	0	0
3902908	WORD	wordpools/wasnorm_wordpool_576.txt	LTP290	ltpFR2	13	17	SUBWAY	1400	n/a	n/a	0	0	0
3905350	WORD	wordpools/wasnorm_wordpool_576.txt	LTP290	ltpFR2	13	17	SCISSORS	1250	n/a	n/a	0	0	0
3908106	WORD	wordpools/wasnorm_wordpool_576.txt	LTP290	ltpFR2	13	17	GRILL	661	n/a	n/a	0	0	0
3910883	WORD	wordpools/wasnorm_wordpool_576.txt	LTP290	ltpFR2	13	17	MEAT	883	n/a	n/a	0	0	0
3913314	WORD	wordpools/wasnorm_wordpool_576.txt	LTP290	ltpFR2	13	17	PISTON	1076	n/a	n/a	0	0	0
3916120	WORD	wordpools/wasnorm_wordpool_576.txt	LTP290	ltpFR2	13	17	SURVEY	1414	n/a	n/a	0	0	0
3918930	WORD	wordpools/wasnorm_wordpool_576.txt	LTP290	ltpFR2	13	17	BRACES	164	n/a	n/a	0	0	0
3921478	WORD	wordpools/wasnorm_wordpool_576.txt	LTP290	ltpFR2	13	17	FRIAR	605	n/a	n/a	0	0	0
3924255	WORD	wordpools/wasnorm_wordpool_576.txt	LTP290	ltpFR2	13	17	INMATE	738	n/a	n/a	0	0	0
3925861	START	n/a	LTP290	ltpFR2	13	n/a	n/a	n/a	27	n/a	n/a	n/a	n/a
3927019	DISTRACTOR	n/a	LTP290	ltpFR2	13	17	n/a	n/a	n/a	n/a	0	0	0
3927032	PROB	n/a	LTP290	ltpFR2	13	n/a	n/a	n/a	27	11	2	5	4
3928332	PROB	n/a	LTP290	ltpFR2	13	n/a	n/a	n/a	27	15	4	9	2
3930345	PROB	n/a	LTP290	ltpFR2	13	n/a	n/a	n/a	27	16	7	5	4
3931812	PROB	n/a	LTP290	ltpFR2	13	n/a	n/a	n/a	27	19	3	8	8
3933937	PROB	n/a	LTP290	ltpFR2	13	n/a	n/a	n/a	27	12	3	4	5
3935308	PROB	n/a	LTP290	ltpFR2	13	n/a	n/a	n/a	27	9	2	3	4
3937483	PROB	n/a	LTP290	ltpFR2	13	n/a	n/a	n/a	27	14	6	4	4
3938720	PROB	n/a	LTP290	ltpFR2	13	n/a	n/a	n/a	27	17	5	9	3
3940612	PROB	n/a	LTP290	ltpFR2	13	n/a	n/a	n/a	27	15	6	2	7
3942486	PROB	n/a	LTP290	ltpFR2	13	n/a	n/a	n/a	27	15	6	1	8
3944192	PROB	n/a	LTP290	ltpFR2	13	n/a	n/a	n/a	27	10	2	4	4
3945848	PROB	n/a	LTP290	ltpFR2	13	n/a	n/a	n/a	27	20	6	8	6
3947856	PROB	n/a	LTP290	ltpFR2	13	n/a	n/a	n/a	27	17	8	7	2
3949491	STOP	n/a	LTP290	ltpFR2	13	n/a	n/a	n/a	27	n/a	n/a	n/a	n/a
3951653	REC_START	n/a	LTP290	ltpFR2	13	17	n/a	n/a	n/a	n/a	0	0	0
3954120	REC_WORD	wordpools/wasnorm_wordpool_576.txt	LTP290	ltpFR2	13	17	INMATE	738	n/a	n/a	0	0	0
3954645	REC_WORD	wordpools/wasnorm_wordpool_576.txt	LTP290	ltpFR2	13	17	FRIAR	605	n/a	n/a	0	0	0
3956798	REC_WORD	wordpools/wasnorm_wordpool_576.txt	LTP290	ltpFR2	13	17	ORCHID	982	n/a	n/a	0	0	0
4042684	WORD	wordpools/wasnorm_wordpool_576.txt	LTP290	ltpFR2	13	18	PASSAGE	1019	n/a	n/a	0	0	0
4045361	WORD	wordpools/wasnorm_wordpool_576.txt	LTP290	ltpFR2	13	18	FLIPPER	580	n/a	n/a	0	0	0
4047955	WORD	wordpools/wasnorm_wordpool_576.txt	LTP290	ltpFR2	13	18	NECKLACE	940	n/a	n/a	0	0	0
4050531	WORD	wordpools/wasnorm_wordpool_576.txt	LTP290	ltpFR2	13	18	VIKING	1565	n/a	n/a	0	0	0
4053057	WORD	wordpools/wasnorm_wordpool_576.txt	LTP290	ltpFR2	13	18	MONEY	908	n/a	n/a	0	0	0
4055683	WORD	wordpools/wasnorm_wordpool_576.txt	LTP290	ltpFR2	13	18	SNAKE	1333	n/a	n/a	0	0	0
4058210	WORD	wordpools/wasnorm_wordpool_576.txt	LTP290	ltpFR2	13	18	DUST	508	n/a	n/a	0	0	0
4060820	WORD	wordpools/wasnorm_wordpool_576.txt	LTP290	ltpFR2	13	18	MILDEW	893	n/a	n/a	0	0	0
4063463	WORD	wordpools/wasnorm_wordpool_576.txt	LTP290	ltpFR2	13	18	MISSILE	900	n/a	n/a	0	0	0
4065972	WORD	wordpools/wasnorm_wordpool_576.txt	LTP290	ltpFR2	13	18	TRENCH	1503	n/a	n/a	0	0	0
4068544	WORD	wordpools/wasnorm_wordpool_576.txt	LTP290	ltpFR2	13	18	PICNIC	1060	n/a	n/a	0	0	0
4071104	WORD	wordpools/wasnorm_wordpool_576.txt	LTP290	ltpFR2	13	18	SUPPER	1411	n/a	n/a	0	0	0
4073785	WORD	wordpools/wasnorm_wordpool_576.txt	LTP290	ltpFR2	13	18	HIKER	708	n/a	n/a	0	0	0
4076228	WORD	wordpools/wasnorm_wordpool_576.txt	LTP290	ltpFR2	13	18	HOOK	715	n/a	n/a	0	0	0
4078703	WORD	wordpools/wasnorm_wordpool_576.txt	LTP290	ltpFR2	13	18	MILK	895	n/a	n/a	0	0	0
4081197	WORD	wordpools/wasnorm_wordpool_576.txt	LTP290	ltpFR2	13	18	EUROPE	541	n/a	n/a	0	0	0
4083823	WORD	wordpools/wasnorm_wordpool_576.txt	LTP290	ltpFR2	13	18	PRINCESS	1125	n/a	n/a	0	0	0
4086466	WORD	wordpools/wasnorm_wordpool_576.txt	LTP290	ltpFR2	13	18	ONION	977	n/a	n/a	0	0	0
4089021	WORD	wordpools/wasnorm_wordpool_576.txt	LTP290	ltpFR2	13	18	OZONE	996	n/a	n/a	0	0	0
4091552	WORD	wordpools/wasnorm_wordpool_576.txt	LTP290	ltpFR2	13	18	BALLOON	75	n/a	n/a	0	0	0
4094179	WORD	wordpools/wasnorm_wordpool_576.txt	LTP290	ltpFR2	13	18	BANK	83	n/a	n/a	0	0	0
4096822	WORD	wordpools/wasnorm_wordpool_576.txt	LTP290	ltpFR2	13	18	GIFT	635	n/a	n/a	0	0	0
4099499	WORD	wordpools/wasnorm_wordpool_576.txt	LTP290	ltpFR2	13	18	POISON	1096	n/a	n/a	0	0	0
4102092	WORD	wordpools/wasnorm_wordpool_576.txt	LTP290	ltpFR2	13	18	GIRL	637	n/a	n/a	0	0	0
4103709	START	n/a	LTP290	ltpFR2	13	n/a	n/a	n/a	28	n/a	n/a	n/a	n/a
4104887	DISTRACTOR	n/a	LTP290	ltpFR2	13	18	n/a	n/a	n/a	n/a	0	0	0
4104902	PROB	n/a	LTP290	ltpFR2	13	n/a	n/a	n/a	28	15	8	6	1
4106855	PROB	n/a	LTP290	ltpFR2	13	n/a	n/a	n/a	28	12	5	3	4
4108110	PROB	n/a	LTP290	ltpFR2	13	n/a	n/a	n/a	28	13	8	1	4
4109487	PROB	n/a	LTP290	ltpFR2	13	n/a	n/a	n/a	28	11	6	3	2
4110725	PROB	n/a	LTP290	ltpFR2	13	n/a	n/a	n/a	28	14	6	7	1
4112309	PROB	n/a	LTP290	ltpFR2	13	n/a	n/a	n/a	28	13	5	3	5
4113999	PROB	n/a	LTP290	ltpFR2	13	n/a	n/a	n/a	28	14	4	7	3
4115939	PROB	n/a	LTP290	ltpFR2	13	n/a	n/a	n/a	28	8	4	2	2
4117349	PROB	n/a	LTP290	ltpFR2	13	n/a	n/a	n/a	28	19	5	8	6
4119374	PROB	n/a	LTP290	ltpFR2	13	n/a	n/a	n/a	28	18	5	8	5
4120841	PROB	n/a	LTP290	ltpFR2	13	n/a	n/a	n/a	28	13	2	8	3
4122519	PROB	n/a	LTP290	ltpFR2	13	n/a	n/a	n/a	28	21	4	8	9
4124488	PROB	n/a	LTP290	ltpFR2	13	n/a	n/a	n/a	28	14	9	3	2
4125843	PROB	n/a	LTP290	ltpFR2	13	n/a	n/a	n/a	28	13	9	1	3
4126899	STOP	n/a	LTP290	ltpFR2	13	n/a	n/a	n/a	28	n/a	n/a	n/a	n/a
4129541	REC_START	n/a	LTP290	ltpFR2	13	18	n/a	n/a	n/a	n/a	0	0	0
4220605	WORD	wordpools/wasnorm_wordpool_576.txt	LTP290	ltpFR2	13	19	SWIMMER	1420	n/a	n/a	0	0	0
4223115	WORD	wordpools/wasnorm_wordpool_576.txt	LTP290	ltpFR2	13	19	LACE	792	n/a	n/a	0	0	0
4225657	WORD	wordpools/wasnorm_wordpool_576.txt	LTP290	ltpFR2	13	19	GUITAR	670	n/a	n/a	0	0	0
4228368	WORD	wordpools/wasnorm_wordpool_576.txt	LTP290	ltpFR2	13	19	HERO	706	n/a	n/a	0	0	0
4231128	WORD	wordpools/wasnorm_wordpool_576.txt	LTP290	ltpFR2	13	19	FRAME	600	n/a	n/a	0	0	0
4233867	WORD	wordpools/wasnorm_wordpool_576.txt	LTP290	ltpFR2	13	19	PICTURE	1061	n/a	n/a	0	0	0
4236677	WORD	wordpools/wasnorm_wordpool_576.txt	LTP290	ltpFR2	13	19	BADGE	68	n/a	n/a	0	0	0
4239120	WORD	wordpools/wasnorm_wordpool_576.txt	LTP290	ltpFR2	13	19	SADDLE	1221	n/a	n/a	0	0	0
4241869	WORD	wordpools/wasnorm_wordpool_576.txt	LTP290	ltpFR2	13	19	DONKEY	484	n/a	n/a	0	0	0
4244673	WORD	wordpools/wasnorm_wordpool_576.txt	LTP290	ltpFR2	13	19	BUCKET	184	n/a	n/a	0	0	0
4247435	WORD	wordpools/wasnorm_wordpool_576.txt	LTP290	ltpFR2	13	19	VALLEY	1545	n/a	n/a	0	0	0
4249899	WORD	wordpools/wasnorm_wordpool_576.txt	LTP290	ltpFR2	13	19	HELMET	702	n/a	n/a	0	0	0
4252459	WORD	wordpools/wasnorm_wordpool_576.txt	LTP290	ltpFR2	13	19	BOX	159	n/a	n/a	0	0	0
4255119	WORD	wordpools/wasnorm_wordpool_576.txt	LTP290	ltpFR2	13	19	STALLION	1369	n/a	n/a	0	0	0
4257862	WORD	wordpools/wasnorm_wordpool_576.txt	LTP290	ltpFR2	13	19	FRECKLE	602	n/a	n/a	0	0	0
4260472	WORD	wordpools/wasnorm_wordpool_576.txt	LTP290	ltpFR2	13	19	BACON	67	n/a	n/a	0	0	0
4263044	WORD	wordpools/wasnorm_wordpool_576.txt	LTP290	ltpFR2	13	19	PATROL	1027	n/a	n/a	0	0	0
4265474	WORD	wordpools/wasnorm_wordpool_576.txt	LTP290	ltpFR2	13	19	PILOT	1070	n/a	n/a	0	0	0
4267996	WORD	wordpools/wasnorm_wordpool_576.txt	LTP290	ltpFR2	13	19	FIREMAN	569	n/a	n/a	0	0	0
4270676	WORD	wordpools/wasnorm_wordpool_576.txt	LTP290	ltpFR2	13	19	FRIEND	606	n/a	n/a	0	0	0
4273287	WORD	wordpools/wasnorm_wordpool_576.txt	LTP290	ltpFR2	13	19	EYELASH	546	n/a	n/a	0	0	0
4276098	WORD	wordpools/wasnorm_wordpool_576.txt	LTP290	ltpFR2	13	19	DRUG	501	n/a	n/a	0	0	0
4278775	WORD	wordpools/wasnorm_wordpool_576.txt	LTP290	ltpFR2	13	19	ATOM	55	n/a	n/a	0	0	0
4281468	WORD	wordpools/wasnorm_wordpool_576.txt	LTP290	ltpFR2	13	19	CHEMIST	292	n/a	n/a	0	0	0
4283074	START	n/a	LTP290	ltpFR2	13	n/a	n/a	n/a	29	n/a	n/a	n/a	n/a
4284109	DISTRACTOR	n/a	LTP290	ltpFR2	13	19	n/a	n/a	n/a	n/a	0	0	0
4284123	PROB	n/a	LTP290	ltpFR2	13	n/a	n/a	n/a	29	10	1	6	3
4285344	PROB	n/a	LTP290	ltpFR2	13	n/a	n/a	n/a	29	10	2	4	4
4286872	PROB	n/a	LTP290	ltpFR2	13	n/a	n/a	n/a	29	15	6	4	5
4288874	PROB	n/a	LTP290	ltpFR2	13	n/a	n/a	n/a	29	14	6	7	1
4290218	PROB	n/a	LTP290	ltpFR2	13	n/a	n/a	n/a	29	25	7	9	9
4292142	PROB	n/a	LTP290	ltpFR2	13	n/a	n/a	n/a	29	15	4	3	8
4293430	PROB	n/a	LTP290	ltpFR2	13	n/a	n/a	n/a	29	19	6	6	7
4295253	PROB	n/a	LTP290	ltpFR2	13	n/a	n/a	n/a	29	11	1	6	4
4296653	PROB	n/a	LTP290	ltpFR2	13	n/a	n/a	n/a	29	15	2	9	4
4298176	PROB	n/a	LTP290	ltpFR2	13	n/a	n/a	n/a	29	11	7	2	2
4299436	PROB	n/a	LTP290	ltpFR2	13	n/a	n/a	n/a	29	16	5	4	7
4301104	PROB	n/a	LTP290	ltpFR2	13	n/a	n/a	n/a	29	24	9	9	6
4303630	PROB	n/a	LTP290	ltpFR2	13	n/a	n/a	n/a	29	15	9	2	4
4305539	STOP	n/a	LTP290	ltpFR2	13	n/a	n/a	n/a	29	n/a	n/a	n/a	n/a
4308872	REC_START	n/a	LTP290	ltpFR2	13	19	n/a	n/a	n/a	n/a	0	0	0
4310786	REC_WORD	wordpools/wasnorm_wordpool_576.txt	LTP290	ltpFR2	13	19	SWIMMER	1420	n/a	n/a	0	0	0
4311416	REC_WORD	wordpools/wasnorm_wordpool_576.txt	LTP290	ltpFR2	13	19	LACE	792	n/a	n/a	0	0	0
4399931	WORD	wordpools/wasnorm_wordpool_576.txt	LTP290	ltpFR2	13	20	HOSTESS	723	n/a	n/a	0	0	0
4402707	WORD	wordpools/wasnorm_wordpool_576.txt	LTP290	ltpFR2	13	20	SODA	1341	n/a	n/a	0	0	0
4405201	WORD	wordpools/wasnorm_wordpool_576.txt	LTP290	ltpFR2	13	20	SIDEWALK	1303	n/a	n/a	0	0	0
4407924	WORD	wordpools/wasnorm_wordpool_576.txt	LTP290	ltpFR2	13	20	WHISTLE	1606	n/a	n/a	0	0	0
4410504	WORD	wordpools/wasnorm_wordpool_576.txt	LTP290	ltpFR2	13	20	GREASE	660	n/a	n/a	0	0	0
4412942	WORD	wordpools/wasnorm_wordpool_576.txt	LTP290	ltpFR2	13	20	DASHBOARD	441	n/a	n/a	0	0	0
4415485	WORD	wordpools/wasnorm_wordpool_576.txt	LTP290	ltpFR2	13	20	SUITCASE	1403	n/a	n/a	0	0	0
4418300	WORD	wordpools/wasnorm_wordpool_576.txt	LTP290	ltpFR2	13	20	BOUQUET	157	n/a	n/a	0	0	0
4420905	WORD	wordpools/wasnorm_wordpool_576.txt	LTP290	ltpFR2	13	20	BABY	64	n/a	n/a	0	0	0
4423336	WORD	wordpools/wasnorm_wordpool_576.txt	LTP290	ltpFR2	13	20	INFANT	737	n/a	n/a	0	0	0
4425908	WORD	wordpools/wasnorm_wordpool_576.txt	LTP290	ltpFR2	13	20	CRITIC	410	n/a	n/a	0	0	0
4428522	WORD	wordpools/wasnorm_wordpool_576.txt	LTP290	ltpFR2	13	20	BODY	145	n/a	n/a	0	0	0
4430965	WORD	wordpools/wasnorm_wordpool_576.txt	LTP290	ltpFR2	13	20	ULCER	1533	n/a	n/a	0	0	0
4433674	WORD	wordpools/wasnorm_wordpool_576.txt	LTP290	ltpFR2	13	20	REPORT	1184	n/a	n/a	0	0	0
4436402	WORD	wordpools/wasnorm_wordpool_576.txt	LTP290	ltpFR2	13	20	BACKBONE	66	n/a	n/a	0	0	0
4439212	WORD	wordpools/wasnorm_wordpool_576.txt	LTP290	ltpFR2	13	20	HUMAN	726	n/a	n/a	0	0	0
4441772	WORD	wordpools/wasnorm_wordpool_576.txt	LTP290	ltpFR2	13	20	BLOCKADE	137	n/a	n/a	0	0	0
4444482	WORD	wordpools/wasnorm_wordpool_576.txt	LTP290	ltpFR2	13	20	PORK	1108	n/a	n/a	0	0	0
4447076	WORD	wordpools/wasnorm_wordpool_576.txt	LTP290	ltpFR2	13	20	BEEF	113	n/a	n/a	0	0	0
4449614	WORD	wordpools/wasnorm_wordpool_576.txt	LTP290	ltpFR2	13	20	SHOVEL	1295	n/a	n/a	0	0	0
4452278	WORD	wordpools/wasnorm_wordpool_576.txt	LTP290	ltpFR2	13	20	TUBA	1515	n/a	n/a	0	0	0
4455039	WORD	wordpools/wasnorm_wordpool_576.txt	LTP290	ltpFR2	13	20	SERVER	1272	n/a	n/a	0	0	0
4457477	WORD	wordpools/wasnorm_wordpool_576.txt	LTP290	ltpFR2	13	20	MISTER	901	n/a	n/a	0	0	0
4460208	WORD	wordpools/wasnorm_wordpool_576.txt	LTP290	ltpFR2	13	20	WIDOW	1608	n/a	n/a	0	0	0
4461815	START	n/a	LTP290	ltpFR2	13	n/a	n/a	n/a	30	n/a	n/a	n/a	n/a
4462874	DISTRACTOR	n/a	LTP290	ltpFR2	13	20	n/a	n/a	n/a	n/a	0	0	0
4462885	PROB	n/a	LTP290	ltpFR2	13	n/a	n/a	n/a	30	20	6	8	6
4465127	PROB	n/a	LTP290	ltpFR2	13	n/a	n/a	n/a	30	17	8	7	2
4467063	PROB	n/a	LTP290	ltpFR2	13	n/a	n/a	n/a	30	13	3	8	5
4469723	PROB	n/a	LTP290	ltpFR2	13	n/a	n/a	n/a	30	21	9	9	3
4471898	PROB	n/a	LTP290	ltpFR2	13	n/a	n/a	n/a	30	12	4	5	3
4473922	PROB	n/a	LTP290	ltpFR2	13	n/a	n/a	n/a	30	16	1	7	8
4475428	PROB	n/a	LTP290	ltpFR2	13	n/a	n/a	n/a	30	20	7	5	8
4476766	PROB	n/a	LTP290	ltpFR2	13	n/a	n/a	n/a	30	21	4	9	8
4480869	PROB	n/a	LTP290	ltpFR2	13	n/a	n/a	n/a	30	11	1	1	9
4481952	PROB	n/a	LTP290	ltpFR2	13	n/a	n/a	n/a	30	15	5	2	8
4483207	PROB	n/a	LTP290	ltpFR2	13	n/a	n/a	n/a	30	18	8	5	5
4484371	STOP	n/a	LTP290	ltpFR2	13	n/a	n/a	n/a	30	n/a	n/a	n/a	n/a
4487673	REC_START	n/a	LTP290	ltpFR2	13	20	n/a	n/a	n/a	n/a	0	0	0
4491716	REC_WORD	wordpools/wasnorm_wordpool_576.txt	LTP290	ltpFR2	13	20	HOSTESS	723	n/a	n/a	0	0	0
4492423	REC_WORD	wordpools/wasnorm_wordpool_576.txt	LTP290	ltpFR2	13	20	SODA	1341	n/a	n/a	0	0	0
4493017	REC_WORD	wordpools/wasnorm_wordpool_576.txt	LTP290	ltpFR2	13	20	SIDEWALK	1303	n/a	n/a	0	0	0
4493970	REC_WORD	wordpools/wasnorm_wordpool_576.txt	LTP290	ltpFR2	13	20	GREASE	660	n/a	n/a	0	0	0
4494658	REC_WORD	wordpools/wasnorm_wordpool_576.txt	LTP290	ltpFR2	13	20	WHISTLE	1606	n/a	n/a	0	0	0
4496903	REC_WORD	wordpools/wasnorm_wordpool_576.txt	LTP290	ltpFR2	13	20	SERVER	1272	n/a	n/a	0	0	0
4497594	REC_WORD	wordpools/wasnorm_wordpool_576.txt	LTP290	ltpFR2	13	20	TUBA	1515	n/a	n/a	0	0	0
4499803	REC_WORD	wordpools/wasnorm_wordpool_576.txt	LTP290	ltpFR2	13	20	MISTER	901	n/a	n/a	0	0	0
4578721	DISTRACTOR	n/a	LTP290	ltpFR2	13	21	n/a	n/a	n/a	n/a	0	0	0
4578721	START	n/a	LTP290	ltpFR2	13	n/a	n/a	n/a	31	n/a	n/a	n/a	n/a
4578772	PROB	n/a	LTP290	ltpFR2	13	n/a	n/a	n/a	31	17	4	6	7
4580273	PROB	n/a	LTP290	ltpFR2	13	n/a	n/a	n/a	31	12	4	3	5
4581900	PROB	n/a	LTP290	ltpFR2	13	n/a	n/a	n/a	31	19	4	8	7
4584221	PROB	n/a	LTP290	ltpFR2	13	n/a	n/a	n/a	31	14	6	7	1
4585697	PROB	n/a	LTP290	ltpFR2	13	n/a	n/a	n/a	31	17	4	6	7
4587282	PROB	n/a	LTP290	ltpFR2	13	n/a	n/a	n/a	31	11	5	5	1
4588353	PROB	n/a	LTP290	ltpFR2	13	n/a	n/a	n/a	31	11	2	3	6
4590812	PROB	n/a	LTP290	ltpFR2	13	n/a	n/a	n/a	31	14	8	4	2
4592469	PROB	n/a	LTP290	ltpFR2	13	n/a	n/a	n/a	31	14	7	4	3
4594225	PROB	n/a	LTP290	ltpFR2	13	n/a	n/a	n/a	31	11	3	1	7
4595903	PROB	n/a	LTP290	ltpFR2	13	n/a	n/a	n/a	31	19	9	6	4
4597504	PROB	n/a	LTP290	ltpFR2	13	n/a	n/a	n/a	31	12	2	1	8
4598792	PROB	n/a	LTP290	ltpFR2	13	n/a	n/a	n/a	31	9	1	7	1
4600047	PROB	n/a	LTP290	ltpFR2	13	n/a	n/a	n/a	31	14	6	3	5
4602371	STOP	n/a	LTP290	ltpFR2	13	n/a	n/a	n/a	31	n/a	n/a	n/a	n/a
4603749	WORD	wordpools/wasnorm_wordpool_576.txt	LTP290	ltpFR2	13	21	HATCHET	691	n/a	n/a	0	0	0
4606209	WORD	wordpools/wasnorm_wordpool_576.txt	LTP290	ltpFR2	13	21	STOVE	1388	n/a	n/a	0	0	0
4608802	WORD	wordpools/wasnorm_wordpool_576.txt	LTP290	ltpFR2	13	21	PATIENT	1024	n/a	n/a	0	0	0
4611562	WORD	wordpools/wasnorm_wordpool_576.txt	LTP290	ltpFR2	13	21	GARBAGE	622	n/a	n/a	0	0	0
4614256	WORD	wordpools/wasnorm_wordpool_576.txt	LTP290	ltpFR2	13	21	CONVICT	371	n/a	n/a	0	0	0
4616911	WORD	wordpools/wasnorm_wordpool_576.txt	LTP290	ltpFR2	13	21	YOLK	1633	n/a	n/a	0	0	0
4619576	WORD	wordpools/wasnorm_wordpool_576.txt	LTP290	ltpFR2	13	21	LASER	801	n/a	n/a	0	0	0
4622114	WORD	wordpools/wasnorm_wordpool_576.txt	LTP290	ltpFR2	13	21	CATCHER	258	n/a	n/a	0	0	0
4624573	WORD	wordpools/wasnorm_wordpool_576.txt	LTP290	ltpFR2	13	21	SLOPE	1328	n/a	n/a	0	0	0
4627188	WORD	wordpools/wasnorm_wordpool_576.txt	LTP290	ltpFR2	13	21	EAGLE	512	n/a	n/a	0	0	0
4629797	WORD	wordpools/wasnorm_wordpool_576.txt	LTP290	ltpFR2	13	21	QUAIL	1147	n/a	n/a	0	0	0
4632324	WORD	wordpools/wasnorm_wordpool_576.txt	LTP290	ltpFR2	13	21	NOVEL	960	n/a	n/a	0	0	0
4634845	WORD	wordpools/wasnorm_wordpool_576.txt	LTP290	ltpFR2	13	21	ITEM	746	n/a	n/a	0	0	0
4637543	WORD	wordpools/wasnorm_wordpool_576.txt	LTP290	ltpFR2	13	21	CAPTIVE	240	n/a	n/a	0	0	0
4640349	WORD	wordpools/wasnorm_wordpool_576.txt	LTP290	ltpFR2	13	21	BANJO	82	n/a	n/a	0	0	0
4643114	WORD	wordpools/wasnorm_wordpool_576.txt	LTP290	ltpFR2	13	21	SKILLET	1317	n/a	n/a	0	0	0
4645841	WORD	wordpools/wasnorm_wordpool_576.txt	LTP290	ltpFR2	13	21	BRANCH	168	n/a	n/a	0	0	0
4648518	WORD	wordpools/wasnorm_wordpool_576.txt	LTP290	ltpFR2	13	21	DIVER	476	n/a	n/a	0	0	0
4650956	WORD	wordpools/wasnorm_wordpool_576.txt	LTP290	ltpFR2	13	21	MARSH	874	n/a	n/a	0	0	0
4653420	WORD	wordpools/wasnorm_wordpool_576.txt	LTP290	ltpFR2	13	21	CEILING	265	n/a	n/a	0	0	0
4656058	WORD	wordpools/wasnorm_wordpool_576.txt	LTP290	ltpFR2	13	21	DORM	488	n/a	n/a	0	0	0
4658689	WORD	wordpools/wasnorm_wordpool_576.txt	LTP290	ltpFR2	13	21	OFFICE	972	n/a	n/a	0	0	0
4661467	WORD	wordpools/wasnorm_wordpool_576.txt	LTP290	ltpFR2	13	21	CROWN	415	n/a	n/a	0	0	0
4663926	WORD	wordpools/wasnorm_wordpool_576.txt	LTP290	ltpFR2	13	21	LILY	821	n/a	n/a	0	0	0
4665532	START	n/a	LTP290	ltpFR2	13	n/a	n/a	n/a	32	n/a	n/a	n/a	n/a
4666601	DISTRACTOR	n/a	LTP290	ltpFR2	13	21	n/a	n/a	n/a	n/a	0	0	0
4666615	PROB	n/a	LTP290	ltpFR2	13	n/a	n/a	n/a	32	12	5	2	5
4668589	PROB	n/a	LTP290	ltpFR2	13	n/a	n/a	n/a	32	19	4	6	9
4669894	PROB	n/a	LTP290	ltpFR2	13	n/a	n/a	n/a	32	17	3	6	8
4671399	PROB	n/a	LTP290	ltpFR2	13	n/a	n/a	n/a	32	13	1	9	3
4672687	PROB	n/a	LTP290	ltpFR2	13	n/a	n/a	n/a	32	19	8	8	3
4675180	PROB	n/a	LTP290	ltpFR2	13	n/a	n/a	n/a	32	11	1	3	7
4676452	PROB	n/a	LTP290	ltpFR2	13	n/a	n/a	n/a	32	19	7	3	9
4677773	PROB	n/a	LTP290	ltpFR2	13	n/a	n/a	n/a	32	14	2	5	7
4679150	PROB	n/a	LTP290	ltpFR2	13	n/a	n/a	n/a	32	19	8	8	3
4681103	PROB	n/a	LTP290	ltpFR2	13	n/a	n/a	n/a	32	11	3	1	7
4682429	PROB	n/a	LTP290	ltpFR2	13	n/a	n/a	n/a	32	17	7	6	4
4684047	PROB	n/a	LTP290	ltpFR2	13	n/a	n/a	n/a	32	14	2	4	8
4685758	PROB	n/a	LTP290	ltpFR2	13	n/a	n/a	n/a	32	10	2	1	7
4686975	PROB	n/a	LTP290	ltpFR2	13	n/a	n/a	n/a	32	18	4	6	8
4688091	STOP	n/a	LTP290	ltpFR2	13	n/a	n/a	n/a	32	n/a	n/a	n/a	n/a
4691409	REC_START	n/a	LTP290	ltpFR2	13	21	n/a	n/a	n/a	n/a	0	0	0
4692310	REC_WORD	wordpools/wasnorm_wordpool_576.txt	LTP290	ltpFR2	13	21	BANJO	82	n/a	n/a	0	0	0
4692905	REC_WORD	wordpools/wasnorm_wordpool_576.txt	LTP290	ltpFR2	13	21	CAPTIVE	240	n/a	n/a	0	0	0
4782439	DISTRACTOR	n/a	LTP290	ltpFR2	13	22	n/a	n/a	n/a	n/a	0	0	0
4782440	START	n/a	LTP290	ltpFR2	13	n/a	n/a	n/a	33	n/a	n/a	n/a	n/a
4782490	PROB	n/a	LTP290	ltpFR2	13	n/a	n/a	n/a	33	12	1	6	5
4784258	PROB	n/a	LTP290	ltpFR2	13	n/a	n/a	n/a	33	8	3	2	3
4785847	PROB	n/a	LTP290	ltpFR2	13	n/a	n/a	n/a	33	12	9	2	1
4787286	PROB	n/a	LTP290	ltpFR2	13	n/a	n/a	n/a	33	15	2	8	5
4788909	PROB	n/a	LTP290	ltpFR2	13	n/a	n/a	n/a	33	22	8	7	7
4795254	PROB	n/a	LTP290	ltpFR2	13	n/a	n/a	n/a	33	18	5	5	8
4796521	PROB	n/a	LTP290	ltpFR2	13	n/a	n/a	n/a	33	18	8	5	8
4797679	PROB	n/a	LTP290	ltpFR2	13	n/a	n/a	n/a	33	16	2	6	8
4799265	PROB	n/a	LTP290	ltpFR2	13	n/a	n/a	n/a	33	18	9	3	6
4801774	PROB	n/a	LTP290	ltpFR2	13	n/a	n/a	n/a	33	14	1	7	6
4803815	PROB	n/a	LTP290	ltpFR2	13	n/a	n/a	n/a	33	19	3	7	9
4804867	STOP	n/a	LTP290	ltpFR2	13	n/a	n/a	n/a	33	n/a	n/a	n/a	n/a
4807634	WORD	wordpools/wasnorm_wordpool_576.txt	LTP290	ltpFR2	13	22	BLADE	134	n/a	n/a	0	0	0
4810445	WORD	wordpools/wasnorm_wordpool_576.txt	LTP290	ltpFR2	13	22	STAR	1373	n/a	n/a	0	0	0
4812954	WORD	wordpools/wasnorm_wordpool_576.txt	LTP290	ltpFR2	13	22	COFFEE	341	n/a	n/a	0	0	0
4815676	WORD	wordpools/wasnorm_wordpool_576.txt	LTP290	ltpFR2	13	22	PROTON	1132	n/a	n/a	0	0	0
4818325	WORD	wordpools/wasnorm_wordpool_576.txt	LTP290	ltpFR2	13	22	SCOTCH	1251	n/a	n/a	0	0	0
4820868	WORD	wordpools/wasnorm_wordpool_576.txt	LTP290	ltpFR2	13	22	FOOTBALL	591	n/a	n/a	0	0	0
4823623	WORD	wordpools/wasnorm_wordpool_576.txt	LTP290	ltpFR2	13	22	SCALPEL	1243	n/a	n/a	0	0	0
4826271	WORD	wordpools/wasnorm_wordpool_576.txt	LTP290	ltpFR2	13	22	NEUTRON	947	n/a	n/a	0	0	0
4828708	WORD	wordpools/wasnorm_wordpool_576.txt	LTP290	ltpFR2	13	22	SALAD	1224	n/a	n/a	0	0	0
4831524	WORD	wordpools/wasnorm_wordpool_576.txt	LTP290	ltpFR2	13	22	SWORD	1423	n/a	n/a	0	0	0
4834335	WORD	wordpools/wasnorm_wordpool_576.txt	LTP290	ltpFR2	13	22	HAND	683	n/a	n/a	0	0	0
4837062	WORD	wordpools/wasnorm_wordpool_576.txt	LTP290	ltpFR2	13	22	WRIST	1626	n/a	n/a	0	0	0
4839622	WORD	wordpools/wasnorm_wordpool_576.txt	LTP290	ltpFR2	13	22	BLACKBOARD	133	n/a	n/a	0	0	0
4842315	WORD	wordpools/wasnorm_wordpool_576.txt	LTP290	ltpFR2	13	22	COLLEGE	346	n/a	n/a	0	0	0
4845092	WORD	wordpools/wasnorm_wordpool_576.txt	LTP290	ltpFR2	13	22	PLATE	1086	n/a	n/a	0	0	0
4847718	WORD	wordpools/wasnorm_wordpool_576.txt	LTP290	ltpFR2	13	22	SERVANT	1271	n/a	n/a	0	0	0
4850529	WORD	wordpools/wasnorm_wordpool_576.txt	LTP290	ltpFR2	13	22	DRAGON	492	n/a	n/a	0	0	0
4853084	WORD	wordpools/wasnorm_wordpool_576.txt	LTP290	ltpFR2	13	22	APPLE	33	n/a	n/a	0	0	0
4855664	WORD	wordpools/wasnorm_wordpool_576.txt	LTP290	ltpFR2	13	22	SPACE	1345	n/a	n/a	0	0	0
4858237	WORD	wordpools/wasnorm_wordpool_576.txt	LTP290	ltpFR2	13	22	ROCKET	1202	n/a	n/a	0	0	0
4860813	WORD	wordpools/wasnorm_wordpool_576.txt	LTP290	ltpFR2	13	22	CABBAGE	210	n/a	n/a	0	0	0
4863440	WORD	wordpools/wasnorm_wordpool_576.txt	LTP290	ltpFR2	13	22	MARS	873	n/a	n/a	0	0	0
4866016	WORD	wordpools/wasnorm_wordpool_576.txt	LTP290	ltpFR2	13	22	BRIEFCASE	175	n/a	n/a	0	0	0
4868832	WORD	wordpools/wasnorm_wordpool_576.txt	LTP290	ltpFR2	13	22	ELBOW	520	n/a	n/a	0	0	0
4870438	START	n/a	LTP290	ltpFR2	13	n/a	n/a	n/a	34	n/a	n/a	n/a	n/a
4871526	DISTRACTOR	n/a	LTP290	ltpFR2	13	22	n/a	n/a	n/a	n/a	0	0	0
4871542	PROB	n/a	LTP290	ltpFR2	13	n/a	n/a	n/a	34	9	5	1	3
4873694	PROB	n/a	LTP290	ltpFR2	13	n/a	n/a	n/a	34	16	4	9	3
4875485	PROB	n/a	LTP290	ltpFR2	13	n/a	n/a	n/a	34	16	8	3	5
4876874	PROB	n/a	LTP290	ltpFR2	13	n/a	n/a	n/a	34	19	8	5	6
4878764	PROB	n/a	LTP290	ltpFR2	13	n/a	n/a	n/a	34	14	7	4	3
4880103	PROB	n/a	LTP290	ltpFR2	13	n/a	n/a	n/a	34	18	8	4	6
4881458	PROB	n/a	LTP290	ltpFR2	13	n/a	n/a	n/a	34	18	5	7	6
4883449	PROB	n/a	LTP290	ltpFR2	13	n/a	n/a	n/a	34	15	4	5	6
4885021	PROB	n/a	LTP290	ltpFR2	13	n/a	n/a	n/a	34	8	3	4	1
4886611	PROB	n/a	LTP290	ltpFR2	13	n/a	n/a	n/a	34	19	2	8	9
4888200	PROB	n/a	LTP290	ltpFR2	13	n/a	n/a	n/a	34	14	3	4	7
4890396	PROB	n/a	LTP290	ltpFR2	13	n/a	n/a	n/a	34	14	3	2	9
4891885	PROB	n/a	LTP290	ltpFR2	13	n/a	n/a	n/a	34	20	2	9	9
4893187	STOP	n/a	LTP290	ltpFR2	13	n/a	n/a	n/a	34	n/a	n/a	n/a	n/a
4896315	REC_START	n/a	LTP290	ltpFR2	13	22	n/a	n/a	n/a	n/a	0	0	0
4897872	REC_WORD	wordpools/wasnorm_wordpool_576.txt	LTP290	ltpFR2	13	22	ELBOW	520	n/a	n/a	0	0	0
4987345	WORD	wordpools/wasnorm_wordpool_576.txt	LTP290	ltpFR2	13	23	PUDDLE	1140	n/a	n/a	0	0	0
4989938	WORD	wordpools/wasnorm_wordpool_576.txt	LTP290	ltpFR2	13	23	JUNGLE	764	n/a	n/a	0	0	0
4992664	WORD	wordpools/wasnorm_wordpool_576.txt	LTP290	ltpFR2	13	23	PEANUT	1032	n/a	n/a	0	0	0
4995426	WORD	wordpools/wasnorm_wordpool_576.txt	LTP290	ltpFR2	13	23	CUSTARD	429	n/a	n/a	0	0	0
4998052	WORD	wordpools/wasnorm_wordpool_576.txt	LTP290	ltpFR2	13	23	HUSBAND	728	n/a	n/a	0	0	0
5000661	WORD	wordpools/wasnorm_wordpool_576.txt	LTP290	ltpFR2	13	23	GARLIC	624	n/a	n/a	0	0	0
5003116	WORD	wordpools/wasnorm_wordpool_576.txt	LTP290	ltpFR2	13	23	HOOD	714	n/a	n/a	0	0	0
5005882	WORD	wordpools/wasnorm_wordpool_576.txt	LTP290	ltpFR2	13	23	ARMY	39	n/a	n/a	0	0	0
5008369	WORD	wordpools/wasnorm_wordpool_576.txt	LTP290	ltpFR2	13	23	NURSE	963	n/a	n/a	0	0	0
5011163	WORD	wordpools/wasnorm_wordpool_576.txt	LTP290	ltpFR2	13	23	ANTLER	29	n/a	n/a	0	0	0
5013693	WORD	wordpools/wasnorm_wordpool_576.txt	LTP290	ltpFR2	13	23	FUNGUS	614	n/a	n/a	0	0	0
5016237	WORD	wordpools/wasnorm_wordpool_576.txt	LTP290	ltpFR2	13	23	FLEET	578	n/a	n/a	0	0	0
5019014	WORD	wordpools/wasnorm_wordpool_576.txt	LTP290	ltpFR2	13	23	CONCERT	360	n/a	n/a	0	0	0
5021641	WORD	wordpools/wasnorm_wordpool_576.txt	LTP290	ltpFR2	13	23	PRIMATE	1123	n/a	n/a	0	0	0
5024330	WORD	wordpools/wasnorm_wordpool_576.txt	LTP290	ltpFR2	13	23	POET	1095	n/a	n/a	0	0	0
5027095	WORD	wordpools/wasnorm_wordpool_576.txt	LTP290	ltpFR2	13	23	HARP	689	n/a	n/a	0	0	0
5029533	WORD	wordpools/wasnorm_wordpool_576.txt	LTP290	ltpFR2	13	23	REBEL	1172	n/a	n/a	0	0	0
5032343	WORD	wordpools/wasnorm_wordpool_576.txt	LTP290	ltpFR2	13	23	CELLAR	267	n/a	n/a	0	0	0
5035075	WORD	wordpools/wasnorm_wordpool_576.txt	LTP290	ltpFR2	13	23	VAGRANT	1544	n/a	n/a	0	0	0
5037785	WORD	wordpools/wasnorm_wordpool_576.txt	LTP290	ltpFR2	13	23	RIVER	1194	n/a	n/a	0	0	0
5040479	WORD	wordpools/wasnorm_wordpool_576.txt	LTP290	ltpFR2	13	23	FREEZER	604	n/a	n/a	0	0	0
5043134	WORD	wordpools/wasnorm_wordpool_576.txt	LTP290	ltpFR2	13	23	ICEBERG	731	n/a	n/a	0	0	0
5045749	WORD	wordpools/wasnorm_wordpool_576.txt	LTP290	ltpFR2	13	23	STAMP	1370	n/a	n/a	0	0	0
5048275	WORD	wordpools/wasnorm_wordpool_576.txt	LTP290	ltpFR2	13	23	PACKAGE	997	n/a	n/a	0	0	0
5049881	START	n/a	LTP290	ltpFR2	13	n/a	n/a	n/a	35	n/a	n/a	n/a	n/a
5050737	DISTRACTOR	n/a	LTP290	ltpFR2	13	23	n/a	n/a	n/a	n/a	0	0	0
5050751	PROB	n/a	LTP290	ltpFR2	13	n/a	n/a	n/a	35	13	2	9	2
5053372	PROB	n/a	LTP290	ltpFR2	13	n/a	n/a	n/a	35	15	7	5	3
5055280	PROB	n/a	LTP290	ltpFR2	13	n/a	n/a	n/a	35	20	9	3	8
5057794	PROB	n/a	LTP290	ltpFR2	13	n/a	n/a	n/a	35	15	8	2	5
5059077	PROB	n/a	LTP290	ltpFR2	13	n/a	n/a	n/a	35	14	4	1	9
5060917	PROB	n/a	LTP290	ltpFR2	13	n/a	n/a	n/a	35	17	6	5	6
5062457	PROB	n/a	LTP290	ltpFR2	13	n/a	n/a	n/a	35	13	9	3	1
5063946	PROB	n/a	LTP290	ltpFR2	13	n/a	n/a	n/a	35	10	2	3	5
5065607	PROB	n/a	LTP290	ltpFR2	13	n/a	n/a	n/a	35	18	2	8	8
5066990	PROB	n/a	LTP290	ltpFR2	13	n/a	n/a	n/a	35	17	3	6	8
5068886	PROB	n/a	LTP290	ltpFR2	13	n/a	n/a	n/a	35	20	9	3	8
5070726	PROB	n/a	LTP290	ltpFR2	13	n/a	n/a	n/a	35	23	6	8	9
5072682	STOP	n/a	LTP290	ltpFR2	13	n/a	n/a	n/a	35	n/a	n/a	n/a	n/a
5075746	REC_START	n/a	LTP290	ltpFR2	13	23	n/a	n/a	n/a	n/a	0	0	0
5081868	REC_WORD	wordpools/wasnorm_wordpool_576.txt	LTP290	ltpFR2	13	23	PUDDLE	1140	n/a	n/a	0	0	0
5082277	REC_WORD	wordpools/wasnorm_wordpool_576.txt	LTP290	ltpFR2	13	23	JUNGLE	764	n/a	n/a	0	0	0
5166805	WORD	wordpools/wasnorm_wordpool_576.txt	LTP290	ltpFR2	13	24	WORLD	1622	n/a	n/a	0	0	0
5169515	WORD	wordpools/wasnorm_wordpool_576.txt	LTP290	ltpFR2	13	24	COUNTRY	388	n/a	n/a	0	0	0
5172192	WORD	wordpools/wasnorm_wordpool_576.txt	LTP290	ltpFR2	13	24	PADDLE	1000	n/a	n/a	0	0	0
5174852	WORD	wordpools/wasnorm_wordpool_576.txt	LTP290	ltpFR2	13	24	LUNCH	849	n/a	n/a	0	0	0
5177607	WORD	wordpools/wasnorm_wordpool_576.txt	LTP290	ltpFR2	13	24	JELLO	754	n/a	n/a	0	0	0
5180351	WORD	wordpools/wasnorm_wordpool_576.txt	LTP290	ltpFR2	13	24	SMOG	1330	n/a	n/a	0	0	0
5182966	WORD	wordpools/wasnorm_wordpool_576.txt	LTP290	ltpFR2	13	24	MASK	876	n/a	n/a	0	0	0
5185509	WORD	wordpools/wasnorm_wordpool_576.txt	LTP290	ltpFR2	13	24	DOUGHNUT	490	n/a	n/a	0	0	0
5187968	WORD	wordpools/wasnorm_wordpool_576.txt	LTP290	ltpFR2	13	24	CRATER	400	n/a	n/a	0	0	0
5190394	WORD	wordpools/wasnorm_wordpool_576.txt	LTP290	ltpFR2	13	24	RAFT	1159	n/a	n/a	0	0	0
5193049	WORD	wordpools/wasnorm_wordpool_576.txt	LTP290	ltpFR2	13	24	MARKET	871	n/a	n/a	0	0	0
5195479	WORD	wordpools/wasnorm_wordpool_576.txt	LTP290	ltpFR2	13	24	BLUEPRINT	142	n/a	n/a	0	0	0
5198202	WORD	wordpools/wasnorm_wordpool_576.txt	LTP290	ltpFR2	13	24	CLOTHES	327	n/a	n/a	0	0	0
5200710	WORD	wordpools/wasnorm_wordpool_576.txt	LTP290	ltpFR2	13	24	WARDROBE	1587	n/a	n/a	0	0	0
5203438	WORD	wordpools/wasnorm_wordpool_576.txt	LTP290	ltpFR2	13	24	SHOULDER	1294	n/a	n/a	0	0	0
5205885	WORD	wordpools/wasnorm_wordpool_576.txt	LTP290	ltpFR2	13	24	CAFE	216	n/a	n/a	0	0	0
5208378	WORD	wordpools/wasnorm_wordpool_576.txt	LTP290	ltpFR2	13	24	FRUIT	610	n/a	n/a	0	0	0
5210954	WORD	wordpools/wasnorm_wordpool_576.txt	LTP290	ltpFR2	13	24	SALMON	1227	n/a	n/a	0	0	0
5213676	WORD	wordpools/wasnorm_wordpool_576.txt	LTP290	ltpFR2	13	24	ROOSTER	1209	n/a	n/a	0	0	0
5216487	WORD	wordpools/wasnorm_wordpool_576.txt	LTP290	ltpFR2	13	24	CLOUD	328	n/a	n/a	0	0	0
5219236	WORD	wordpools/wasnorm_wordpool_576.txt	LTP290	ltpFR2	13	24	SAUSAGE	1238	n/a	n/a	0	0	0
5221862	WORD	wordpools/wasnorm_wordpool_576.txt	LTP290	ltpFR2	13	24	ARM	38	n/a	n/a	0	0	0
5224405	WORD	wordpools/wasnorm_wordpool_576.txt	LTP290	ltpFR2	13	24	TWEEZERS	1526	n/a	n/a	0	0	0
5226965	WORD	wordpools/wasnorm_wordpool_576.txt	LTP290	ltpFR2	13	24	CANAL	226	n/a	n/a	0	0	0
5228571	START	n/a	LTP290	ltpFR2	13	n/a	n/a	n/a	36	n/a	n/a	n/a	n/a
5229462	DISTRACTOR	n/a	LTP290	ltpFR2	13	24	n/a	n/a	n/a	n/a	0	0	0
5229474	PROB	n/a	LTP290	ltpFR2	13	n/a	n/a	n/a	36	21	5	9	7
5232397	PROB	n/a	LTP290	ltpFR2	13	n/a	n/a	n/a	36	13	1	8	4
5233958	PROB	n/a	LTP290	ltpFR2	13	n/a	n/a	n/a	36	16	6	2	8
5235647	PROB	n/a	LTP290	ltpFR2	13	n/a	n/a	n/a	36	20	8	6	6
5237287	PROB	n/a	LTP290	ltpFR2	13	n/a	n/a	n/a	36	18	1	8	9
5238575	PROB	n/a	LTP290	ltpFR2	13	n/a	n/a	n/a	36	19	9	8	2
5239992	PROB	n/a	LTP290	ltpFR2	13	n/a	n/a	n/a	36	13	4	2	7
5241431	PROB	n/a	LTP290	ltpFR2	13	n/a	n/a	n/a	36	16	4	7	5
5243109	PROB	n/a	LTP290	ltpFR2	13	n/a	n/a	n/a	36	17	7	6	4
5244526	PROB	n/a	LTP290	ltpFR2	13	n/a	n/a	n/a	36	24	7	9	8
5246321	PROB	n/a	LTP290	ltpFR2	13	n/a	n/a	n/a	36	13	7	5	1
5248592	PROB	n/a	LTP290	ltpFR2	13	n/a	n/a	n/a	36	10	4	2	4
5250298	PROB	n/a	LTP290	ltpFR2	13	n/a	n/a	n/a	36	17	9	6	2
5251939	STOP	n/a	LTP290	ltpFR2	13	n/a	n/a	n/a	36	n/a	n/a	n/a	n/a
5254503	REC_START	n/a	LTP290	ltpFR2	13	24	n/a	n/a	n/a	n/a	0	0	0
5256234	REC_WORD	wordpools/wasnorm_wordpool_576.txt	LTP290	ltpFR2	13	24	TWEEZERS	1526	n/a	n/a	0	0	0
5256875	REC_WORD	wordpools/wasnorm_wordpool_576.txt	LTP290	ltpFR2	13	24	ARM	38	n/a	n/a	0	0	0
5257285	REC_WORD	wordpools/wasnorm_wordpool_576.txt	LTP290	ltpFR2	13	24	CANAL	226	n/a	n/a	0	0	0
5258384	REC_WORD	wordpools/wasnorm_wordpool_576.txt	LTP290	ltpFR2	13	24	WORLD	1622	n/a	n/a	0	0	0
5258856	REC_WORD	wordpools/wasnorm_wordpool_576.txt	LTP290	ltpFR2	13	24	COUNTRY	388	n/a	n/a	0	0	0
