onset	duration	trial_type	sample	stim_file	subject	experiment	session	trial	task	item_name	item_num	recog_resp	recog_conf	resp	answer	test_x	test_y	test_z	color_r	color_g	color_b	case	font
210.096	n/a	SESS_START	105048	n/a	LTP227	ltpFR	14	n/a	n/a	n/a	n/a	1	4	n/a	n/a	0	0	0	n/a	n/a	n/a	n/a	n/a
224.742	n/a	START	112371	n/a	LTP227	ltpFR	14	n/a	n/a	n/a	n/a	n/a	n/a	n/a	n/a	n/a	n/a	n/a	n/a	n/a	n/a	n/a	n/a
224.792	n/a	PROB	112396	n/a	LTP227	ltpFR	14	n/a	n/a	n/a	n/a	n/a	n/a	n/a	21	9	4	8	n/a	n/a	n/a	n/a	n/a
226.934	n/a	PROB	113467	n/a	LTP227	ltpFR	14	n/a	n/a	n/a	n/a	n/a	n/a	n/a	17	9	7	1	n/a	n/a	n/a	n/a	n/a
228.556	n/a	PROB	114278	n/a	LTP227	ltpFR	14	n/a	n/a	n/a	n/a	n/a	n/a	n/a	12	1	9	2	n/a	n/a	n/a	n/a	n/a
229.644	n/a	PROB	114822	n/a	LTP227	ltpFR	14	n/a	n/a	n/a	n/a	n/a	n/a	n/a	20	9	8	5	n/a	n/a	n/a	n/a	n/a
231.798	n/a	PROB	115899	n/a	LTP227	ltpFR	14	n/a	n/a	n/a	n/a	n/a	n/a	n/a	14	2	7	5	n/a	n/a	n/a	n/a	n/a
233.694	n/a	PROB	116847	n/a	LTP227	ltpFR	14	n/a	n/a	n/a	n/a	n/a	n/a	n/a	26	9	9	8	n/a	n/a	n/a	n/a	n/a
235.7	n/a	PROB	117850	n/a	LTP227	ltpFR	14	n/a	n/a	n/a	n/a	n/a	n/a	n/a	16	5	5	6	n/a	n/a	n/a	n/a	n/a
237.072	n/a	PROB	118536	n/a	LTP227	ltpFR	14	n/a	n/a	n/a	n/a	n/a	n/a	n/a	13	7	5	1	n/a	n/a	n/a	n/a	n/a
239.85	n/a	PROB	119925	n/a	LTP227	ltpFR	14	n/a	n/a	n/a	n/a	n/a	n/a	n/a	13	1	8	4	n/a	n/a	n/a	n/a	n/a
241.306	n/a	PROB	120653	n/a	LTP227	ltpFR	14	n/a	n/a	n/a	n/a	n/a	n/a	n/a	21	9	6	6	n/a	n/a	n/a	n/a	n/a
244.744	n/a	STOP	122372	n/a	LTP227	ltpFR	14	n/a	n/a	n/a	n/a	n/a	n/a	n/a	n/a	n/a	n/a	n/a	n/a	n/a	n/a	n/a	n/a
260.914	n/a	START	130457	n/a	LTP227	ltpFR	14	n/a	n/a	n/a	n/a	n/a	n/a	n/a	n/a	n/a	n/a	n/a	n/a	n/a	n/a	n/a	n/a
262.42	n/a	PROB	131210	n/a	LTP227	ltpFR	14	n/a	n/a	n/a	n/a	n/a	n/a	n/a	11	2	6	3	n/a	n/a	n/a	n/a	n/a
264.728	n/a	PROB	132364	n/a	LTP227	ltpFR	14	n/a	n/a	n/a	n/a	n/a	n/a	n/a	13	8	4	1	n/a	n/a	n/a	n/a	n/a
266.35	n/a	PROB	133175	n/a	LTP227	ltpFR	14	n/a	n/a	n/a	n/a	n/a	n/a	n/a	16	8	8	8	n/a	n/a	n/a	n/a	n/a
267.888	n/a	STOP	133944	n/a	LTP227	ltpFR	14	n/a	n/a	n/a	n/a	n/a	n/a	n/a	n/a	n/a	n/a	n/a	n/a	n/a	n/a	n/a	n/a
269.848	n/a	WORD	134924	wordpools/wasnorm_wordpool_less_exclusions.txt	LTP227	ltpFR	14	1	0	HUMAN	726	1	n/a	1	n/a	0	0	0	0.57763671875	0.412841796875	1	upper	zerothre.ttf
272.86	n/a	START	136430	n/a	LTP227	ltpFR	14	n/a	n/a	n/a	n/a	n/a	n/a	n/a	n/a	n/a	n/a	n/a	n/a	n/a	n/a	n/a	n/a
273.812	n/a	PROB	136906	n/a	LTP227	ltpFR	14	n/a	n/a	n/a	n/a	n/a	n/a	n/a	7	2	4	1	n/a	n/a	n/a	n/a	n/a
277.26	n/a	PROB	138630	n/a	LTP227	ltpFR	14	n/a	n/a	n/a	n/a	n/a	n/a	n/a	10	1	5	4	n/a	n/a	n/a	n/a	n/a
279.066	n/a	PROB	139533	n/a	LTP227	ltpFR	14	n/a	n/a	n/a	n/a	n/a	n/a	n/a	18	5	8	5	n/a	n/a	n/a	n/a	n/a
280.336	n/a	STOP	140168	n/a	LTP227	ltpFR	14	n/a	n/a	n/a	n/a	n/a	n/a	n/a	n/a	n/a	n/a	n/a	n/a	n/a	n/a	n/a	n/a
281.692	n/a	WORD	140846	wordpools/wasnorm_wordpool_less_exclusions.txt	LTP227	ltpFR	14	1	0	ZOO	1637	n/a	n/a	1	n/a	0	0	0	0.57763671875	0.412841796875	1	upper	zerothre.ttf
284.704	n/a	START	142352	n/a	LTP227	ltpFR	14	n/a	n/a	n/a	n/a	n/a	n/a	n/a	n/a	n/a	n/a	n/a	n/a	n/a	n/a	n/a	n/a
285.608	n/a	PROB	142804	n/a	LTP227	ltpFR	14	n/a	n/a	n/a	n/a	n/a	n/a	n/a	11	1	2	8	n/a	n/a	n/a	n/a	n/a
288.384	n/a	PROB	144192	n/a	LTP227	ltpFR	14	n/a	n/a	n/a	n/a	n/a	n/a	n/a	17	2	7	8	n/a	n/a	n/a	n/a	n/a
292.706	n/a	STOP	146353	n/a	LTP227	ltpFR	14	n/a	n/a	n/a	n/a	n/a	n/a	n/a	n/a	n/a	n/a	n/a	n/a	n/a	n/a	n/a	n/a
293.702	n/a	WORD	146851	wordpools/wasnorm_wordpool_less_exclusions.txt	LTP227	ltpFR	14	1	0	SWAMP	1416	n/a	n/a	1	n/a	0	0	0	0.57763671875	0.412841796875	1	upper	zerothre.ttf
296.718	n/a	START	148359	n/a	LTP227	ltpFR	14	n/a	n/a	n/a	n/a	n/a	n/a	n/a	n/a	n/a	n/a	n/a	n/a	n/a	n/a	n/a	n/a
297.638	n/a	PROB	148819	n/a	LTP227	ltpFR	14	n/a	n/a	n/a	n/a	n/a	n/a	n/a	13	4	2	7	n/a	n/a	n/a	n/a	n/a
300.246	n/a	PROB	150123	n/a	LTP227	ltpFR	14	n/a	n/a	n/a	n/a	n/a	n/a	n/a	13	3	7	3	n/a	n/a	n/a	n/a	n/a
302.12	n/a	PROB	151060	n/a	LTP227	ltpFR	14	n/a	n/a	n/a	n/a	n/a	n/a	n/a	16	6	2	8	n/a	n/a	n/a	n/a	n/a
303.658	n/a	STOP	151829	n/a	LTP227	ltpFR	14	n/a	n/a	n/a	n/a	n/a	n/a	n/a	n/a	n/a	n/a	n/a	n/a	n/a	n/a	n/a	n/a
305.932	n/a	WORD	152966	wordpools/wasnorm_wordpool_less_exclusions.txt	LTP227	ltpFR	14	1	0	PUDDLE	1140	n/a	n/a	1	n/a	0	0	0	0.57763671875	0.412841796875	1	upper	zerothre.ttf
308.948	n/a	START	154474	n/a	LTP227	ltpFR	14	n/a	n/a	n/a	n/a	n/a	n/a	n/a	n/a	n/a	n/a	n/a	n/a	n/a	n/a	n/a	n/a
309.784	n/a	PROB	154892	n/a	LTP227	ltpFR	14	n/a	n/a	n/a	n/a	n/a	n/a	n/a	24	9	8	7	n/a	n/a	n/a	n/a	n/a
311.34	n/a	PROB	155670	n/a	LTP227	ltpFR	14	n/a	n/a	n/a	n/a	n/a	n/a	n/a	15	2	4	9	n/a	n/a	n/a	n/a	n/a
314.434	n/a	PROB	157217	n/a	LTP227	ltpFR	14	n/a	n/a	n/a	n/a	n/a	n/a	n/a	8	3	4	1	n/a	n/a	n/a	n/a	n/a
315.714	n/a	STOP	157857	n/a	LTP227	ltpFR	14	n/a	n/a	n/a	n/a	n/a	n/a	n/a	n/a	n/a	n/a	n/a	n/a	n/a	n/a	n/a	n/a
317.982	n/a	WORD	158991	wordpools/wasnorm_wordpool_less_exclusions.txt	LTP227	ltpFR	14	1	1	GRADUATE	653	n/a	n/a	0	n/a	0	0	0	0.422607421875	0.5869140625	0	lower	amplitud.ttf
320.994	n/a	START	160497	n/a	LTP227	ltpFR	14	n/a	n/a	n/a	n/a	n/a	n/a	n/a	n/a	n/a	n/a	n/a	n/a	n/a	n/a	n/a	n/a
321.912	n/a	PROB	160956	n/a	LTP227	ltpFR	14	n/a	n/a	n/a	n/a	n/a	n/a	n/a	23	5	8	9	n/a	n/a	n/a	n/a	n/a
326.242	n/a	PROB	163121	n/a	LTP227	ltpFR	14	n/a	n/a	n/a	n/a	n/a	n/a	n/a	21	5	6	7	n/a	n/a	n/a	n/a	n/a
328.356	n/a	STOP	164178	n/a	LTP227	ltpFR	14	n/a	n/a	n/a	n/a	n/a	n/a	n/a	n/a	n/a	n/a	n/a	n/a	n/a	n/a	n/a	n/a
329.994	n/a	WORD	164997	wordpools/wasnorm_wordpool_less_exclusions.txt	LTP227	ltpFR	14	1	1	BAIT	70	n/a	n/a	0	n/a	0	0	0	0.422607421875	0.5869140625	0	lower	amplitud.ttf
333.006	n/a	START	166503	n/a	LTP227	ltpFR	14	n/a	n/a	n/a	n/a	n/a	n/a	n/a	n/a	n/a	n/a	n/a	n/a	n/a	n/a	n/a	n/a
334.194	n/a	PROB	167097	n/a	LTP227	ltpFR	14	n/a	n/a	n/a	n/a	n/a	n/a	n/a	15	5	3	7	n/a	n/a	n/a	n/a	n/a
341.006	n/a	STOP	170503	n/a	LTP227	ltpFR	14	n/a	n/a	n/a	n/a	n/a	n/a	n/a	n/a	n/a	n/a	n/a	n/a	n/a	n/a	n/a	n/a
342.002	n/a	WORD	171001	wordpools/wasnorm_wordpool_less_exclusions.txt	LTP227	ltpFR	14	1	1	HAMBURGER	679	n/a	n/a	0	n/a	0	0	0	0.422607421875	0.5869140625	0	lower	amplitud.ttf
345.018	n/a	START	172509	n/a	LTP227	ltpFR	14	n/a	n/a	n/a	n/a	n/a	n/a	n/a	n/a	n/a	n/a	n/a	n/a	n/a	n/a	n/a	n/a
345.938	n/a	PROB	172969	n/a	LTP227	ltpFR	14	n/a	n/a	n/a	n/a	n/a	n/a	n/a	8	3	2	3	n/a	n/a	n/a	n/a	n/a
347.858	n/a	PROB	173929	n/a	LTP227	ltpFR	14	n/a	n/a	n/a	n/a	n/a	n/a	n/a	8	3	1	4	n/a	n/a	n/a	n/a	n/a
349.318	n/a	PROB	174659	n/a	LTP227	ltpFR	14	n/a	n/a	n/a	n/a	n/a	n/a	n/a	9	4	3	2	n/a	n/a	n/a	n/a	n/a
350.82	n/a	PROB	175410	n/a	LTP227	ltpFR	14	n/a	n/a	n/a	n/a	n/a	n/a	n/a	11	2	3	6	n/a	n/a	n/a	n/a	n/a
352.5	n/a	STOP	176250	n/a	LTP227	ltpFR	14	n/a	n/a	n/a	n/a	n/a	n/a	n/a	n/a	n/a	n/a	n/a	n/a	n/a	n/a	n/a	n/a
354.182	n/a	WORD	177091	wordpools/wasnorm_wordpool_less_exclusions.txt	LTP227	ltpFR	14	1	1	BUTTER	205	n/a	n/a	0	n/a	0	0	0	0.422607421875	0.5869140625	0	lower	amplitud.ttf
357.198	n/a	START	178599	n/a	LTP227	ltpFR	14	n/a	n/a	n/a	n/a	n/a	n/a	n/a	n/a	n/a	n/a	n/a	n/a	n/a	n/a	n/a	n/a
358.084	n/a	PROB	179042	n/a	LTP227	ltpFR	14	n/a	n/a	n/a	n/a	n/a	n/a	n/a	13	5	3	5	n/a	n/a	n/a	n/a	n/a
359.286	n/a	PROB	179643	n/a	LTP227	ltpFR	14	n/a	n/a	n/a	n/a	n/a	n/a	n/a	17	3	7	7	n/a	n/a	n/a	n/a	n/a
361.56	n/a	PROB	180780	n/a	LTP227	ltpFR	14	n/a	n/a	n/a	n/a	n/a	n/a	n/a	9	1	6	2	n/a	n/a	n/a	n/a	n/a
363.054	n/a	PROB	181527	n/a	LTP227	ltpFR	14	n/a	n/a	n/a	n/a	n/a	n/a	n/a	14	4	2	8	n/a	n/a	n/a	n/a	n/a
364.268	n/a	STOP	182134	n/a	LTP227	ltpFR	14	n/a	n/a	n/a	n/a	n/a	n/a	n/a	n/a	n/a	n/a	n/a	n/a	n/a	n/a	n/a	n/a
366.3	n/a	WORD	183150	wordpools/wasnorm_wordpool_less_exclusions.txt	LTP227	ltpFR	14	1	0	FLIPPER	580	n/a	n/a	0	n/a	0	0	0	0.57763671875	0.412841796875	1	upper	zerothre.ttf
369.312	n/a	START	184656	n/a	LTP227	ltpFR	14	n/a	n/a	n/a	n/a	n/a	n/a	n/a	n/a	n/a	n/a	n/a	n/a	n/a	n/a	n/a	n/a
370.428	n/a	PROB	185214	n/a	LTP227	ltpFR	14	n/a	n/a	n/a	n/a	n/a	n/a	n/a	20	7	7	6	n/a	n/a	n/a	n/a	n/a
372.188	n/a	PROB	186094	n/a	LTP227	ltpFR	14	n/a	n/a	n/a	n/a	n/a	n/a	n/a	17	7	2	8	n/a	n/a	n/a	n/a	n/a
373.708	n/a	PROB	186854	n/a	LTP227	ltpFR	14	n/a	n/a	n/a	n/a	n/a	n/a	n/a	14	3	6	5	n/a	n/a	n/a	n/a	n/a
376.142	n/a	STOP	188071	n/a	LTP227	ltpFR	14	n/a	n/a	n/a	n/a	n/a	n/a	n/a	n/a	n/a	n/a	n/a	n/a	n/a	n/a	n/a	n/a
378.158	n/a	WORD	189079	wordpools/wasnorm_wordpool_less_exclusions.txt	LTP227	ltpFR	14	1	0	DRYER	503	n/a	n/a	1	n/a	0	0	0	0.57763671875	0.412841796875	1	upper	zerothre.ttf
381.174	n/a	START	190587	n/a	LTP227	ltpFR	14	n/a	n/a	n/a	n/a	n/a	n/a	n/a	n/a	n/a	n/a	n/a	n/a	n/a	n/a	n/a	n/a
382.276	n/a	PROB	191138	n/a	LTP227	ltpFR	14	n/a	n/a	n/a	n/a	n/a	n/a	n/a	23	5	9	9	n/a	n/a	n/a	n/a	n/a
385.754	n/a	PROB	192877	n/a	LTP227	ltpFR	14	n/a	n/a	n/a	n/a	n/a	n/a	n/a	17	4	5	8	n/a	n/a	n/a	n/a	n/a
388.662	n/a	STOP	194331	n/a	LTP227	ltpFR	14	n/a	n/a	n/a	n/a	n/a	n/a	n/a	n/a	n/a	n/a	n/a	n/a	n/a	n/a	n/a	n/a
390.188	n/a	WORD	195094	wordpools/wasnorm_wordpool_less_exclusions.txt	LTP227	ltpFR	14	1	0	VIKING	1565	n/a	n/a	1	n/a	0	0	0	0.57763671875	0.412841796875	1	upper	zerothre.ttf
393.202	n/a	START	196601	n/a	LTP227	ltpFR	14	n/a	n/a	n/a	n/a	n/a	n/a	n/a	n/a	n/a	n/a	n/a	n/a	n/a	n/a	n/a	n/a
394.122	n/a	PROB	197061	n/a	LTP227	ltpFR	14	n/a	n/a	n/a	n/a	n/a	n/a	n/a	16	6	8	2	n/a	n/a	n/a	n/a	n/a
395.692	n/a	PROB	197846	n/a	LTP227	ltpFR	14	n/a	n/a	n/a	n/a	n/a	n/a	n/a	13	3	7	3	n/a	n/a	n/a	n/a	n/a
396.896	n/a	PROB	198448	n/a	LTP227	ltpFR	14	n/a	n/a	n/a	n/a	n/a	n/a	n/a	17	6	4	7	n/a	n/a	n/a	n/a	n/a
401.202	n/a	STOP	200601	n/a	LTP227	ltpFR	14	n/a	n/a	n/a	n/a	n/a	n/a	n/a	n/a	n/a	n/a	n/a	n/a	n/a	n/a	n/a	n/a
402.254	n/a	WORD	201127	wordpools/wasnorm_wordpool_less_exclusions.txt	LTP227	ltpFR	14	1	0	DEPUTY	450	n/a	n/a	1	n/a	0	0	0	0.57763671875	0.412841796875	1	upper	zerothre.ttf
405.266	n/a	START	202633	n/a	LTP227	ltpFR	14	n/a	n/a	n/a	n/a	n/a	n/a	n/a	n/a	n/a	n/a	n/a	n/a	n/a	n/a	n/a	n/a
406.352	n/a	PROB	203176	n/a	LTP227	ltpFR	14	n/a	n/a	n/a	n/a	n/a	n/a	n/a	21	5	7	9	n/a	n/a	n/a	n/a	n/a
408.746	n/a	PROB	204373	n/a	LTP227	ltpFR	14	n/a	n/a	n/a	n/a	n/a	n/a	n/a	16	9	3	4	n/a	n/a	n/a	n/a	n/a
413.266	n/a	STOP	206633	n/a	LTP227	ltpFR	14	n/a	n/a	n/a	n/a	n/a	n/a	n/a	n/a	n/a	n/a	n/a	n/a	n/a	n/a	n/a	n/a
414.266	n/a	WORD	207133	wordpools/wasnorm_wordpool_less_exclusions.txt	LTP227	ltpFR	14	1	1	PATROL	1027	n/a	n/a	0	n/a	0	0	0	0.422607421875	0.5869140625	0	lower	amplitud.ttf
417.278	n/a	START	208639	n/a	LTP227	ltpFR	14	n/a	n/a	n/a	n/a	n/a	n/a	n/a	n/a	n/a	n/a	n/a	n/a	n/a	n/a	n/a	n/a
418.282	n/a	PROB	209141	n/a	LTP227	ltpFR	14	n/a	n/a	n/a	n/a	n/a	n/a	n/a	14	2	4	8	n/a	n/a	n/a	n/a	n/a
419.75	n/a	PROB	209875	n/a	LTP227	ltpFR	14	n/a	n/a	n/a	n/a	n/a	n/a	n/a	12	5	2	5	n/a	n/a	n/a	n/a	n/a
421.054	n/a	PROB	210527	n/a	LTP227	ltpFR	14	n/a	n/a	n/a	n/a	n/a	n/a	n/a	19	2	9	8	n/a	n/a	n/a	n/a	n/a
422.612	n/a	PROB	211306	n/a	LTP227	ltpFR	14	n/a	n/a	n/a	n/a	n/a	n/a	n/a	10	3	4	3	n/a	n/a	n/a	n/a	n/a
424.552	n/a	STOP	212276	n/a	LTP227	ltpFR	14	n/a	n/a	n/a	n/a	n/a	n/a	n/a	n/a	n/a	n/a	n/a	n/a	n/a	n/a	n/a	n/a
426.162	n/a	WORD	213081	wordpools/wasnorm_wordpool_less_exclusions.txt	LTP227	ltpFR	14	1	1	CRAB	397	n/a	n/a	1	n/a	0	0	0	0.422607421875	0.5869140625	0	lower	amplitud.ttf
429.174	n/a	START	214587	n/a	LTP227	ltpFR	14	n/a	n/a	n/a	n/a	n/a	n/a	n/a	n/a	n/a	n/a	n/a	n/a	n/a	n/a	n/a	n/a
430.126	n/a	PROB	215063	n/a	LTP227	ltpFR	14	n/a	n/a	n/a	n/a	n/a	n/a	n/a	12	6	4	2	n/a	n/a	n/a	n/a	n/a
431.412	n/a	PROB	215706	n/a	LTP227	ltpFR	14	n/a	n/a	n/a	n/a	n/a	n/a	n/a	6	2	2	2	n/a	n/a	n/a	n/a	n/a
433.018	n/a	PROB	216509	n/a	LTP227	ltpFR	14	n/a	n/a	n/a	n/a	n/a	n/a	n/a	11	3	6	2	n/a	n/a	n/a	n/a	n/a
435.076	n/a	PROB	217538	n/a	LTP227	ltpFR	14	n/a	n/a	n/a	n/a	n/a	n/a	n/a	19	2	8	9	n/a	n/a	n/a	n/a	n/a
436.296	n/a	STOP	218148	n/a	LTP227	ltpFR	14	n/a	n/a	n/a	n/a	n/a	n/a	n/a	n/a	n/a	n/a	n/a	n/a	n/a	n/a	n/a	n/a
438.358	n/a	WORD	219179	wordpools/wasnorm_wordpool_less_exclusions.txt	LTP227	ltpFR	14	1	1	RELISH	1183	n/a	n/a	0	n/a	0	0	0	0.422607421875	0.5869140625	0	lower	amplitud.ttf
441.37	n/a	START	220685	n/a	LTP227	ltpFR	14	n/a	n/a	n/a	n/a	n/a	n/a	n/a	n/a	n/a	n/a	n/a	n/a	n/a	n/a	n/a	n/a
442.256	n/a	PROB	221128	n/a	LTP227	ltpFR	14	n/a	n/a	n/a	n/a	n/a	n/a	n/a	13	3	1	9	n/a	n/a	n/a	n/a	n/a
443.81	n/a	PROB	221905	n/a	LTP227	ltpFR	14	n/a	n/a	n/a	n/a	n/a	n/a	n/a	12	5	6	1	n/a	n/a	n/a	n/a	n/a
446.034	n/a	PROB	223017	n/a	LTP227	ltpFR	14	n/a	n/a	n/a	n/a	n/a	n/a	n/a	20	8	4	8	n/a	n/a	n/a	n/a	n/a
448.114	n/a	STOP	224057	n/a	LTP227	ltpFR	14	n/a	n/a	n/a	n/a	n/a	n/a	n/a	n/a	n/a	n/a	n/a	n/a	n/a	n/a	n/a	n/a
450.538	n/a	WORD	225269	wordpools/wasnorm_wordpool_less_exclusions.txt	LTP227	ltpFR	14	1	1	WATERFALL	1595	n/a	n/a	0	n/a	0	0	0	0.422607421875	0.5869140625	0	lower	amplitud.ttf
453.548	n/a	START	226774	n/a	LTP227	ltpFR	14	n/a	n/a	n/a	n/a	n/a	n/a	n/a	n/a	n/a	n/a	n/a	n/a	n/a	n/a	n/a	n/a
454.62	n/a	PROB	227310	n/a	LTP227	ltpFR	14	n/a	n/a	n/a	n/a	n/a	n/a	n/a	10	1	5	4	n/a	n/a	n/a	n/a	n/a
457.56	n/a	PROB	228780	n/a	LTP227	ltpFR	14	n/a	n/a	n/a	n/a	n/a	n/a	n/a	20	8	8	4	n/a	n/a	n/a	n/a	n/a
459.69	n/a	PROB	229845	n/a	LTP227	ltpFR	14	n/a	n/a	n/a	n/a	n/a	n/a	n/a	8	2	2	4	n/a	n/a	n/a	n/a	n/a
461.098	n/a	STOP	230549	n/a	LTP227	ltpFR	14	n/a	n/a	n/a	n/a	n/a	n/a	n/a	n/a	n/a	n/a	n/a	n/a	n/a	n/a	n/a	n/a
463.322	n/a	REC_START	231661	n/a	LTP227	ltpFR	14	1	n/a	n/a	n/a	n/a	n/a	n/a	n/a	0	0	0	n/a	n/a	n/a	n/a	n/a
463.894	n/a	REC_WORD	231947	wordpools/wasnorm_wordpool_less_exclusions.txt	LTP227	ltpFR	14	1	1	RELISH	1183	n/a	n/a	0	n/a	0	0	0	n/a	n/a	n/a	n/a	n/a
464.762	n/a	REC_WORD	232381	wordpools/wasnorm_wordpool_less_exclusions.txt	LTP227	ltpFR	14	1	1	WATERFALL	1595	n/a	n/a	0	n/a	0	0	0	n/a	n/a	n/a	n/a	n/a
465.666	n/a	REC_WORD	232833	wordpools/wasnorm_wordpool_less_exclusions.txt	LTP227	ltpFR	14	1	1	CRAB	397	n/a	n/a	1	n/a	0	0	0	n/a	n/a	n/a	n/a	n/a
466.584	n/a	REC_WORD	233292	wordpools/wasnorm_wordpool_less_exclusions.txt	LTP227	ltpFR	14	1	0	FLIPPER	580	n/a	n/a	0	n/a	0	0	0	n/a	n/a	n/a	n/a	n/a
467.542	n/a	REC_WORD	233771	wordpools/wasnorm_wordpool_less_exclusions.txt	LTP227	ltpFR	14	1	0	VIKING	1565	n/a	n/a	1	n/a	0	0	0	n/a	n/a	n/a	n/a	n/a
469.318	n/a	REC_WORD	234659	wordpools/wasnorm_wordpool_less_exclusions.txt	LTP227	ltpFR	14	1	0	PUDDLE	1140	n/a	n/a	1	n/a	0	0	0	n/a	n/a	n/a	n/a	n/a
470.604	n/a	REC_WORD	235302	wordpools/wasnorm_wordpool_less_exclusions.txt	LTP227	ltpFR	14	1	0	SWAMP	1416	n/a	n/a	1	n/a	0	0	0	n/a	n/a	n/a	n/a	n/a
484.404	n/a	REC_WORD	242202	wordpools/wasnorm_wordpool_less_exclusions.txt	LTP227	ltpFR	14	1	1	PATROL	1027	n/a	n/a	0	n/a	0	0	0	n/a	n/a	n/a	n/a	n/a
487.856	n/a	REC_WORD	243928	wordpools/wasnorm_wordpool_less_exclusions.txt	LTP227	ltpFR	14	1	1	GRADUATE	653	n/a	n/a	0	n/a	0	0	0	n/a	n/a	n/a	n/a	n/a
489.448	n/a	REC_WORD	244724	wordpools/wasnorm_wordpool_less_exclusions.txt	LTP227	ltpFR	14	1	1	GRADUATE	653	n/a	n/a	0	n/a	0	0	0	n/a	n/a	n/a	n/a	n/a
503.278	n/a	REC_WORD	251639	wordpools/wasnorm_wordpool_less_exclusions.txt	LTP227	ltpFR	14	1	0	HUMAN	726	n/a	n/a	1	n/a	0	0	0	n/a	n/a	n/a	n/a	n/a
527.578	n/a	REC_WORD	263789	wordpools/wasnorm_wordpool_less_exclusions.txt	LTP227	ltpFR	14	1	1	BAIT	70	n/a	n/a	0	n/a	0	0	0	n/a	n/a	n/a	n/a	n/a
547.19	n/a	WORD	273595	wordpools/wasnorm_wordpool_less_exclusions.txt	LTP227	ltpFR	14	2	1	CROW	414	n/a	n/a	1	n/a	0	0	0	0.422607421875	0.5869140625	0	lower	amplitud.ttf
551.37	n/a	WORD	275685	wordpools/wasnorm_wordpool_less_exclusions.txt	LTP227	ltpFR	14	2	1	SEA	1259	n/a	n/a	0	n/a	0	0	0	0.422607421875	0.5869140625	0	lower	amplitud.ttf
555.422	n/a	WORD	277711	wordpools/wasnorm_wordpool_less_exclusions.txt	LTP227	ltpFR	14	2	1	SALMON	1227	n/a	n/a	1	n/a	0	0	0	0.422607421875	0.5869140625	0	lower	amplitud.ttf
559.422	n/a	WORD	279711	wordpools/wasnorm_wordpool_less_exclusions.txt	LTP227	ltpFR	14	2	1	ZEBRA	1635	n/a	n/a	1	n/a	0	0	0	0.422607421875	0.5869140625	0	lower	amplitud.ttf
563.566	n/a	WORD	281783	wordpools/wasnorm_wordpool_less_exclusions.txt	LTP227	ltpFR	14	2	1	CITRUS	313	n/a	n/a	0	n/a	0	0	0	0.422607421875	0.5869140625	0	lower	amplitud.ttf
567.414	n/a	WORD	283707	wordpools/wasnorm_wordpool_less_exclusions.txt	LTP227	ltpFR	14	2	1	VEST	1559	n/a	n/a	0	n/a	0	0	0	0.422607421875	0.5869140625	0	lower	amplitud.ttf
571.366	n/a	WORD	285683	wordpools/wasnorm_wordpool_less_exclusions.txt	LTP227	ltpFR	14	2	1	CRACKER	398	n/a	n/a	0	n/a	0	0	0	0.422607421875	0.5869140625	0	lower	amplitud.ttf
575.332	n/a	WORD	287666	wordpools/wasnorm_wordpool_less_exclusions.txt	LTP227	ltpFR	14	2	1	FOLLOWER	589	n/a	n/a	1	n/a	0	0	0	0.422607421875	0.5869140625	0	lower	amplitud.ttf
579.53	n/a	WORD	289765	wordpools/wasnorm_wordpool_less_exclusions.txt	LTP227	ltpFR	14	2	1	DICTATOR	462	n/a	n/a	1	n/a	0	0	0	0.422607421875	0.5869140625	0	lower	amplitud.ttf
583.58	n/a	WORD	291790	wordpools/wasnorm_wordpool_less_exclusions.txt	LTP227	ltpFR	14	2	1	CHEESE	289	n/a	n/a	0	n/a	0	0	0	0.422607421875	0.5869140625	0	lower	amplitud.ttf
587.728	n/a	WORD	293864	wordpools/wasnorm_wordpool_less_exclusions.txt	LTP227	ltpFR	14	2	1	CREATURE	403	n/a	n/a	1	n/a	0	0	0	0.422607421875	0.5869140625	0	lower	amplitud.ttf
591.824	n/a	WORD	295912	wordpools/wasnorm_wordpool_less_exclusions.txt	LTP227	ltpFR	14	2	1	CIRCUS	311	n/a	n/a	0	n/a	0	0	0	0.422607421875	0.5869140625	0	lower	amplitud.ttf
596.044	n/a	WORD	298022	wordpools/wasnorm_wordpool_less_exclusions.txt	LTP227	ltpFR	14	2	1	ORANGE	980	n/a	n/a	1	n/a	0	0	0	0.422607421875	0.5869140625	0	lower	amplitud.ttf
600.244	n/a	WORD	300122	wordpools/wasnorm_wordpool_less_exclusions.txt	LTP227	ltpFR	14	2	1	LADY	794	n/a	n/a	1	n/a	0	0	0	0.422607421875	0.5869140625	0	lower	amplitud.ttf
604.242	n/a	WORD	302121	wordpools/wasnorm_wordpool_less_exclusions.txt	LTP227	ltpFR	14	2	1	CAVE	263	n/a	n/a	0	n/a	0	0	0	0.422607421875	0.5869140625	0	lower	amplitud.ttf
608.07	n/a	WORD	304035	wordpools/wasnorm_wordpool_less_exclusions.txt	LTP227	ltpFR	14	2	1	BRIEFCASE	175	n/a	n/a	0	n/a	0	0	0	0.422607421875	0.5869140625	0	lower	amplitud.ttf
611.086	n/a	START	305543	n/a	LTP227	ltpFR	14	n/a	n/a	n/a	n/a	n/a	n/a	n/a	n/a	n/a	n/a	n/a	n/a	n/a	n/a	n/a	n/a
612.052	n/a	PROB	306026	n/a	LTP227	ltpFR	14	n/a	n/a	n/a	n/a	n/a	n/a	n/a	20	8	3	9	n/a	n/a	n/a	n/a	n/a
615.084	n/a	PROB	307542	n/a	LTP227	ltpFR	14	n/a	n/a	n/a	n/a	n/a	n/a	n/a	11	7	1	3	n/a	n/a	n/a	n/a	n/a
616.468	n/a	PROB	308234	n/a	LTP227	ltpFR	14	n/a	n/a	n/a	n/a	n/a	n/a	n/a	13	5	5	3	n/a	n/a	n/a	n/a	n/a
617.53	n/a	STOP	308765	n/a	LTP227	ltpFR	14	n/a	n/a	n/a	n/a	n/a	n/a	n/a	n/a	n/a	n/a	n/a	n/a	n/a	n/a	n/a	n/a
620.924	n/a	REC_START	310462	n/a	LTP227	ltpFR	14	2	n/a	n/a	n/a	n/a	n/a	n/a	n/a	0	0	0	n/a	n/a	n/a	n/a	n/a
626.046	n/a	REC_WORD	313023	wordpools/wasnorm_wordpool_less_exclusions.txt	LTP227	ltpFR	14	2	1	CREATURE	403	n/a	n/a	1	n/a	0	0	0	n/a	n/a	n/a	n/a	n/a
626.884	n/a	REC_WORD	313442	wordpools/wasnorm_wordpool_less_exclusions.txt	LTP227	ltpFR	14	2	1	LADY	794	n/a	n/a	1	n/a	0	0	0	n/a	n/a	n/a	n/a	n/a
627.688	n/a	REC_WORD	313844	wordpools/wasnorm_wordpool_less_exclusions.txt	LTP227	ltpFR	14	2	1	CAVE	263	n/a	n/a	0	n/a	0	0	0	n/a	n/a	n/a	n/a	n/a
628.58	n/a	REC_WORD	314290	wordpools/wasnorm_wordpool_less_exclusions.txt	LTP227	ltpFR	14	2	1	ORANGE	980	n/a	n/a	1	n/a	0	0	0	n/a	n/a	n/a	n/a	n/a
629.424	n/a	REC_WORD	314712	wordpools/wasnorm_wordpool_less_exclusions.txt	LTP227	ltpFR	14	2	1	ZEBRA	1635	n/a	n/a	1	n/a	0	0	0	n/a	n/a	n/a	n/a	n/a
634.324	n/a	REC_WORD	317162	wordpools/wasnorm_wordpool_less_exclusions.txt	LTP227	ltpFR	14	2	1	SALMON	1227	n/a	n/a	1	n/a	0	0	0	n/a	n/a	n/a	n/a	n/a
635.68	n/a	REC_WORD	317840	wordpools/wasnorm_wordpool_less_exclusions.txt	LTP227	ltpFR	14	2	1	FOLLOWER	589	n/a	n/a	1	n/a	0	0	0	n/a	n/a	n/a	n/a	n/a
636.508	n/a	REC_WORD	318254	wordpools/wasnorm_wordpool_less_exclusions.txt	LTP227	ltpFR	14	2	1	DICTATOR	462	n/a	n/a	1	n/a	0	0	0	n/a	n/a	n/a	n/a	n/a
637.866	n/a	REC_WORD	318933	wordpools/wasnorm_wordpool_less_exclusions.txt	LTP227	ltpFR	14	2	1	CROW	414	n/a	n/a	1	n/a	0	0	0	n/a	n/a	n/a	n/a	n/a
638.668	n/a	REC_WORD	319334	wordpools/wasnorm_wordpool_less_exclusions.txt	LTP227	ltpFR	14	2	1	SEA	1259	n/a	n/a	0	n/a	0	0	0	n/a	n/a	n/a	n/a	n/a
641.114	n/a	REC_WORD	320557	wordpools/wasnorm_wordpool_less_exclusions.txt	LTP227	ltpFR	14	2	1	BRIEFCASE	175	n/a	n/a	0	n/a	0	0	0	n/a	n/a	n/a	n/a	n/a
642.634	n/a	REC_WORD	321317	wordpools/wasnorm_wordpool_less_exclusions.txt	LTP227	ltpFR	14	2	1	VEST	1559	n/a	n/a	0	n/a	0	0	0	n/a	n/a	n/a	n/a	n/a
656.066	n/a	REC_WORD	328033	wordpools/wasnorm_wordpool_less_exclusions.txt	LTP227	ltpFR	14	2	n/a	SUIT	1402	n/a	n/a	n/a	n/a	0	0	0	n/a	n/a	n/a	n/a	n/a
665.504	n/a	REC_WORD	332752	wordpools/wasnorm_wordpool_less_exclusions.txt	LTP227	ltpFR	14	2	1	CITRUS	313	n/a	n/a	0	n/a	0	0	0	n/a	n/a	n/a	n/a	n/a
708.524	n/a	WORD	354262	wordpools/wasnorm_wordpool_less_exclusions.txt	LTP227	ltpFR	14	3	1	SPONGE	1355	n/a	n/a	0	n/a	0	0	0	0.422607421875	0.5869140625	0	lower	amplitud.ttf
712.724	n/a	WORD	356362	wordpools/wasnorm_wordpool_less_exclusions.txt	LTP227	ltpFR	14	3	1	DIVER	476	n/a	n/a	1	n/a	0	0	0	0.422607421875	0.5869140625	0	lower	amplitud.ttf
716.584	n/a	WORD	358292	wordpools/wasnorm_wordpool_less_exclusions.txt	LTP227	ltpFR	14	3	0	WRIST	1626	n/a	n/a	0	n/a	0	0	0	0.57763671875	0.412841796875	1	upper	zerothre.ttf
720.532	n/a	WORD	360266	wordpools/wasnorm_wordpool_less_exclusions.txt	LTP227	ltpFR	14	3	0	VOLLEYBALL	1576	n/a	n/a	2	n/a	0	0	0	0.57763671875	0.412841796875	1	upper	zerothre.ttf
721.908	n/a	KEY_MSG	360954	n/a	LTP227	ltpFR	14	3	n/a	n/a	n/a	n/a	n/a	n/a	n/a	0	0	0	n/a	n/a	n/a	n/a	n/a
724.686	n/a	WORD	362343	wordpools/wasnorm_wordpool_less_exclusions.txt	LTP227	ltpFR	14	3	0	TEAM	1441	n/a	n/a	1	n/a	0	0	0	0.57763671875	0.412841796875	1	upper	zerothre.ttf
728.836	n/a	WORD	364418	wordpools/wasnorm_wordpool_less_exclusions.txt	LTP227	ltpFR	14	3	1	NET	946	n/a	n/a	0	n/a	0	0	0	0.422607421875	0.5869140625	0	lower	amplitud.ttf
732.8	n/a	WORD	366400	wordpools/wasnorm_wordpool_less_exclusions.txt	LTP227	ltpFR	14	3	1	BLUEJAY	141	n/a	n/a	1	n/a	0	0	0	0.422607421875	0.5869140625	0	lower	amplitud.ttf
736.928	n/a	WORD	368464	wordpools/wasnorm_wordpool_less_exclusions.txt	LTP227	ltpFR	14	3	1	TURKEY	1520	n/a	n/a	1	n/a	0	0	0	0.422607421875	0.5869140625	0	lower	amplitud.ttf
741.078	n/a	WORD	370539	wordpools/wasnorm_wordpool_less_exclusions.txt	LTP227	ltpFR	14	3	1	DOVE	491	n/a	n/a	1	n/a	0	0	0	0.422607421875	0.5869140625	0	lower	amplitud.ttf
745.03	n/a	WORD	372515	wordpools/wasnorm_wordpool_less_exclusions.txt	LTP227	ltpFR	14	3	1	SHOWER	1296	n/a	n/a	0	n/a	0	0	0	0.422607421875	0.5869140625	0	lower	amplitud.ttf
748.908	n/a	WORD	374454	wordpools/wasnorm_wordpool_less_exclusions.txt	LTP227	ltpFR	14	3	1	MOVIE	927	n/a	n/a	0	n/a	0	0	0	0.422607421875	0.5869140625	0	lower	amplitud.ttf
752.894	n/a	WORD	376447	wordpools/wasnorm_wordpool_less_exclusions.txt	LTP227	ltpFR	14	3	0	CHESS	294	n/a	n/a	0	n/a	0	0	0	0.57763671875	0.412841796875	1	upper	zerothre.ttf
756.976	n/a	WORD	378488	wordpools/wasnorm_wordpool_less_exclusions.txt	LTP227	ltpFR	14	3	0	ORCHESTRA	981	n/a	n/a	1	n/a	0	0	0	0.57763671875	0.412841796875	1	upper	zerothre.ttf
761.154	n/a	WORD	380577	wordpools/wasnorm_wordpool_less_exclusions.txt	LTP227	ltpFR	14	3	0	PARROT	1015	n/a	n/a	1	n/a	0	0	0	0.57763671875	0.412841796875	1	upper	zerothre.ttf
765.292	n/a	WORD	382646	wordpools/wasnorm_wordpool_less_exclusions.txt	LTP227	ltpFR	14	3	0	ROBE	1198	n/a	n/a	1	n/a	0	0	0	0.57763671875	0.412841796875	1	upper	zerothre.ttf
769.256	n/a	WORD	384628	wordpools/wasnorm_wordpool_less_exclusions.txt	LTP227	ltpFR	14	3	0	RADIO	1157	n/a	n/a	0	n/a	0	0	0	0.57763671875	0.412841796875	1	upper	zerothre.ttf
772.268	n/a	START	386134	n/a	LTP227	ltpFR	14	n/a	n/a	n/a	n/a	n/a	n/a	n/a	n/a	n/a	n/a	n/a	n/a	n/a	n/a	n/a	n/a
773.354	n/a	PROB	386677	n/a	LTP227	ltpFR	14	n/a	n/a	n/a	n/a	n/a	n/a	n/a	20	5	8	7	n/a	n/a	n/a	n/a	n/a
779.156	n/a	PROB	389578	n/a	LTP227	ltpFR	14	n/a	n/a	n/a	n/a	n/a	n/a	n/a	18	7	4	7	n/a	n/a	n/a	n/a	n/a
782.172	n/a	PROB	391086	n/a	LTP227	ltpFR	14	n/a	n/a	n/a	n/a	n/a	n/a	n/a	12	1	7	4	n/a	n/a	n/a	n/a	n/a
784.912	n/a	PROB	392456	n/a	LTP227	ltpFR	14	n/a	n/a	n/a	n/a	n/a	n/a	n/a	21	9	7	5	n/a	n/a	n/a	n/a	n/a
787.092	n/a	STOP	393546	n/a	LTP227	ltpFR	14	n/a	n/a	n/a	n/a	n/a	n/a	n/a	n/a	n/a	n/a	n/a	n/a	n/a	n/a	n/a	n/a
790.15	n/a	REC_START	395075	n/a	LTP227	ltpFR	14	3	n/a	n/a	n/a	n/a	n/a	n/a	n/a	0	0	0	n/a	n/a	n/a	n/a	n/a
794.744	n/a	REC_WORD	397372	wordpools/wasnorm_wordpool_less_exclusions.txt	LTP227	ltpFR	14	3	1	SPONGE	1355	n/a	n/a	0	n/a	0	0	0	n/a	n/a	n/a	n/a	n/a
796.256	n/a	REC_WORD	398128	wordpools/wasnorm_wordpool_less_exclusions.txt	LTP227	ltpFR	14	3	1	DIVER	476	n/a	n/a	1	n/a	0	0	0	n/a	n/a	n/a	n/a	n/a
798.684	n/a	REC_WORD	399342	wordpools/wasnorm_wordpool_less_exclusions.txt	LTP227	ltpFR	14	3	0	WRIST	1626	n/a	n/a	0	n/a	0	0	0	n/a	n/a	n/a	n/a	n/a
800.626	n/a	REC_WORD	400313	wordpools/wasnorm_wordpool_less_exclusions.txt	LTP227	ltpFR	14	3	0	VOLLEYBALL	1576	n/a	n/a	2	n/a	0	0	0	n/a	n/a	n/a	n/a	n/a
802.752	n/a	REC_WORD	401376	wordpools/wasnorm_wordpool_less_exclusions.txt	LTP227	ltpFR	14	3	0	TEAM	1441	n/a	n/a	1	n/a	0	0	0	n/a	n/a	n/a	n/a	n/a
806.592	n/a	REC_WORD	403296	wordpools/wasnorm_wordpool_less_exclusions.txt	LTP227	ltpFR	14	3	1	BLUEJAY	141	n/a	n/a	1	n/a	0	0	0	n/a	n/a	n/a	n/a	n/a
807.516	n/a	REC_WORD	403758	wordpools/wasnorm_wordpool_less_exclusions.txt	LTP227	ltpFR	14	3	1	TURKEY	1520	n/a	n/a	1	n/a	0	0	0	n/a	n/a	n/a	n/a	n/a
809.412	n/a	REC_WORD	404706	wordpools/wasnorm_wordpool_less_exclusions.txt	LTP227	ltpFR	14	3	1	MOVIE	927	n/a	n/a	0	n/a	0	0	0	n/a	n/a	n/a	n/a	n/a
810.264	n/a	REC_WORD	405132	wordpools/wasnorm_wordpool_less_exclusions.txt	LTP227	ltpFR	14	3	1	SHOWER	1296	n/a	n/a	0	n/a	0	0	0	n/a	n/a	n/a	n/a	n/a
840.264	n/a	REC_WORD	420132	wordpools/wasnorm_wordpool_less_exclusions.txt	LTP227	ltpFR	14	3	0	PARROT	1015	n/a	n/a	1	n/a	0	0	0	n/a	n/a	n/a	n/a	n/a
841.87	n/a	REC_WORD	420935	wordpools/wasnorm_wordpool_less_exclusions.txt	LTP227	ltpFR	14	3	0	ROBE	1198	n/a	n/a	1	n/a	0	0	0	n/a	n/a	n/a	n/a	n/a
875.258	n/a	START	437629	n/a	LTP227	ltpFR	14	n/a	n/a	n/a	n/a	n/a	n/a	n/a	n/a	n/a	n/a	n/a	n/a	n/a	n/a	n/a	n/a
876.768	n/a	PROB	438384	n/a	LTP227	ltpFR	14	n/a	n/a	n/a	n/a	n/a	n/a	n/a	3	1	1	1	n/a	n/a	n/a	n/a	n/a
877.738	n/a	PROB	438869	n/a	LTP227	ltpFR	14	n/a	n/a	n/a	n/a	n/a	n/a	n/a	13	8	1	4	n/a	n/a	n/a	n/a	n/a
879.458	n/a	PROB	439729	n/a	LTP227	ltpFR	14	n/a	n/a	n/a	n/a	n/a	n/a	n/a	11	5	4	2	n/a	n/a	n/a	n/a	n/a
881.532	n/a	PROB	440766	n/a	LTP227	ltpFR	14	n/a	n/a	n/a	n/a	n/a	n/a	n/a	19	6	4	9	n/a	n/a	n/a	n/a	n/a
883.372	n/a	PROB	441686	n/a	LTP227	ltpFR	14	n/a	n/a	n/a	n/a	n/a	n/a	n/a	14	7	5	2	n/a	n/a	n/a	n/a	n/a
885.066	n/a	PROB	442533	n/a	LTP227	ltpFR	14	n/a	n/a	n/a	n/a	n/a	n/a	n/a	15	8	6	1	n/a	n/a	n/a	n/a	n/a
886.802	n/a	PROB	443401	n/a	LTP227	ltpFR	14	n/a	n/a	n/a	n/a	n/a	n/a	n/a	5	2	1	2	n/a	n/a	n/a	n/a	n/a
888.444	n/a	PROB	444222	n/a	LTP227	ltpFR	14	n/a	n/a	n/a	n/a	n/a	n/a	n/a	17	8	3	6	n/a	n/a	n/a	n/a	n/a
890.768	n/a	STOP	445384	n/a	LTP227	ltpFR	14	n/a	n/a	n/a	n/a	n/a	n/a	n/a	n/a	n/a	n/a	n/a	n/a	n/a	n/a	n/a	n/a
892.142	n/a	WORD	446071	wordpools/wasnorm_wordpool_less_exclusions.txt	LTP227	ltpFR	14	4	0	TIE	1466	n/a	n/a	0	n/a	0	0	0	0.57763671875	0.412841796875	1	upper	zerothre.ttf
895.154	n/a	START	447577	n/a	LTP227	ltpFR	14	n/a	n/a	n/a	n/a	n/a	n/a	n/a	n/a	n/a	n/a	n/a	n/a	n/a	n/a	n/a	n/a
896.342	n/a	PROB	448171	n/a	LTP227	ltpFR	14	n/a	n/a	n/a	n/a	n/a	n/a	n/a	15	3	9	3	n/a	n/a	n/a	n/a	n/a
899.802	n/a	PROB	449901	n/a	LTP227	ltpFR	14	n/a	n/a	n/a	n/a	n/a	n/a	n/a	13	2	9	2	n/a	n/a	n/a	n/a	n/a
902.812	n/a	PROB	451406	n/a	LTP227	ltpFR	14	n/a	n/a	n/a	n/a	n/a	n/a	n/a	12	8	2	2	n/a	n/a	n/a	n/a	n/a
904.654	n/a	PROB	452327	n/a	LTP227	ltpFR	14	n/a	n/a	n/a	n/a	n/a	n/a	n/a	13	3	7	3	n/a	n/a	n/a	n/a	n/a
905.74	n/a	PROB	452870	n/a	LTP227	ltpFR	14	n/a	n/a	n/a	n/a	n/a	n/a	n/a	8	2	4	2	n/a	n/a	n/a	n/a	n/a
911.154	n/a	STOP	455577	n/a	LTP227	ltpFR	14	n/a	n/a	n/a	n/a	n/a	n/a	n/a	n/a	n/a	n/a	n/a	n/a	n/a	n/a	n/a	n/a
912.37	n/a	WORD	456185	wordpools/wasnorm_wordpool_less_exclusions.txt	LTP227	ltpFR	14	4	0	SUIT	1402	n/a	n/a	1	n/a	0	0	0	0.57763671875	0.412841796875	1	upper	zerothre.ttf
915.382	n/a	START	457691	n/a	LTP227	ltpFR	14	n/a	n/a	n/a	n/a	n/a	n/a	n/a	n/a	n/a	n/a	n/a	n/a	n/a	n/a	n/a	n/a
916.436	n/a	PROB	458218	n/a	LTP227	ltpFR	14	n/a	n/a	n/a	n/a	n/a	n/a	n/a	19	7	4	8	n/a	n/a	n/a	n/a	n/a
919.464	n/a	PROB	459732	n/a	LTP227	ltpFR	14	n/a	n/a	n/a	n/a	n/a	n/a	n/a	12	5	4	3	n/a	n/a	n/a	n/a	n/a
922.588	n/a	PROB	461294	n/a	LTP227	ltpFR	14	n/a	n/a	n/a	n/a	n/a	n/a	n/a	11	8	2	1	n/a	n/a	n/a	n/a	n/a
923.746	n/a	PROB	461873	n/a	LTP227	ltpFR	14	n/a	n/a	n/a	n/a	n/a	n/a	n/a	15	7	5	3	n/a	n/a	n/a	n/a	n/a
926.252	n/a	PROB	463126	n/a	LTP227	ltpFR	14	n/a	n/a	n/a	n/a	n/a	n/a	n/a	20	9	6	5	n/a	n/a	n/a	n/a	n/a
930.058	n/a	STOP	465029	n/a	LTP227	ltpFR	14	n/a	n/a	n/a	n/a	n/a	n/a	n/a	n/a	n/a	n/a	n/a	n/a	n/a	n/a	n/a	n/a
932.376	n/a	WORD	466188	wordpools/wasnorm_wordpool_less_exclusions.txt	LTP227	ltpFR	14	4	0	CRITIC	410	n/a	n/a	1	n/a	0	0	0	0.57763671875	0.412841796875	1	upper	zerothre.ttf
935.392	n/a	START	467696	n/a	LTP227	ltpFR	14	n/a	n/a	n/a	n/a	n/a	n/a	n/a	n/a	n/a	n/a	n/a	n/a	n/a	n/a	n/a	n/a
936.294	n/a	PROB	468147	n/a	LTP227	ltpFR	14	n/a	n/a	n/a	n/a	n/a	n/a	n/a	4	2	1	1	n/a	n/a	n/a	n/a	n/a
937.918	n/a	PROB	468959	n/a	LTP227	ltpFR	14	n/a	n/a	n/a	n/a	n/a	n/a	n/a	6	1	3	2	n/a	n/a	n/a	n/a	n/a
939.572	n/a	PROB	469786	n/a	LTP227	ltpFR	14	n/a	n/a	n/a	n/a	n/a	n/a	n/a	24	9	7	8	n/a	n/a	n/a	n/a	n/a
941.46	n/a	PROB	470730	n/a	LTP227	ltpFR	14	n/a	n/a	n/a	n/a	n/a	n/a	n/a	16	8	3	5	n/a	n/a	n/a	n/a	n/a
944.404	n/a	PROB	472202	n/a	LTP227	ltpFR	14	n/a	n/a	n/a	n/a	n/a	n/a	n/a	24	9	7	8	n/a	n/a	n/a	n/a	n/a
945.826	n/a	PROB	472913	n/a	LTP227	ltpFR	14	n/a	n/a	n/a	n/a	n/a	n/a	n/a	15	3	6	6	n/a	n/a	n/a	n/a	n/a
947.484	n/a	PROB	473742	n/a	LTP227	ltpFR	14	n/a	n/a	n/a	n/a	n/a	n/a	n/a	11	1	2	8	n/a	n/a	n/a	n/a	n/a
948.892	n/a	PROB	474446	n/a	LTP227	ltpFR	14	n/a	n/a	n/a	n/a	n/a	n/a	n/a	9	3	5	1	n/a	n/a	n/a	n/a	n/a
951.02	n/a	STOP	475510	n/a	LTP227	ltpFR	14	n/a	n/a	n/a	n/a	n/a	n/a	n/a	n/a	n/a	n/a	n/a	n/a	n/a	n/a	n/a	n/a
952.424	n/a	WORD	476212	wordpools/wasnorm_wordpool_less_exclusions.txt	LTP227	ltpFR	14	4	1	TOOTHBRUSH	1482	n/a	n/a	0	n/a	0	0	0	0.422607421875	0.5869140625	0	lower	amplitud.ttf
955.436	n/a	START	477718	n/a	LTP227	ltpFR	14	n/a	n/a	n/a	n/a	n/a	n/a	n/a	n/a	n/a	n/a	n/a	n/a	n/a	n/a	n/a	n/a
956.468	n/a	PROB	478234	n/a	LTP227	ltpFR	14	n/a	n/a	n/a	n/a	n/a	n/a	n/a	19	5	8	6	n/a	n/a	n/a	n/a	n/a
959.78	n/a	PROB	479890	n/a	LTP227	ltpFR	14	n/a	n/a	n/a	n/a	n/a	n/a	n/a	17	3	6	8	n/a	n/a	n/a	n/a	n/a
962.144	n/a	PROB	481072	n/a	LTP227	ltpFR	14	n/a	n/a	n/a	n/a	n/a	n/a	n/a	16	7	3	6	n/a	n/a	n/a	n/a	n/a
963.512	n/a	PROB	481756	n/a	LTP227	ltpFR	14	n/a	n/a	n/a	n/a	n/a	n/a	n/a	17	7	7	3	n/a	n/a	n/a	n/a	n/a
965.0	n/a	PROB	482500	n/a	LTP227	ltpFR	14	n/a	n/a	n/a	n/a	n/a	n/a	n/a	18	7	6	5	n/a	n/a	n/a	n/a	n/a
967.158	n/a	PROB	483579	n/a	LTP227	ltpFR	14	n/a	n/a	n/a	n/a	n/a	n/a	n/a	17	6	7	4	n/a	n/a	n/a	n/a	n/a
969.988	n/a	STOP	484994	n/a	LTP227	ltpFR	14	n/a	n/a	n/a	n/a	n/a	n/a	n/a	n/a	n/a	n/a	n/a	n/a	n/a	n/a	n/a	n/a
972.65	n/a	WORD	486325	wordpools/wasnorm_wordpool_less_exclusions.txt	LTP227	ltpFR	14	4	1	LAPEL	800	n/a	n/a	0	n/a	0	0	0	0.422607421875	0.5869140625	0	lower	amplitud.ttf
975.662	n/a	START	487831	n/a	LTP227	ltpFR	14	n/a	n/a	n/a	n/a	n/a	n/a	n/a	n/a	n/a	n/a	n/a	n/a	n/a	n/a	n/a	n/a
976.512	n/a	PROB	488256	n/a	LTP227	ltpFR	14	n/a	n/a	n/a	n/a	n/a	n/a	n/a	4	1	1	2	n/a	n/a	n/a	n/a	n/a
978.118	n/a	PROB	489059	n/a	LTP227	ltpFR	14	n/a	n/a	n/a	n/a	n/a	n/a	n/a	21	9	9	3	n/a	n/a	n/a	n/a	n/a
981.496	n/a	PROB	490748	n/a	LTP227	ltpFR	14	n/a	n/a	n/a	n/a	n/a	n/a	n/a	18	4	6	8	n/a	n/a	n/a	n/a	n/a
983.206	n/a	PROB	491603	n/a	LTP227	ltpFR	14	n/a	n/a	n/a	n/a	n/a	n/a	n/a	26	9	8	9	n/a	n/a	n/a	n/a	n/a
987.084	n/a	PROB	493542	n/a	LTP227	ltpFR	14	n/a	n/a	n/a	n/a	n/a	n/a	n/a	13	8	1	4	n/a	n/a	n/a	n/a	n/a
988.874	n/a	PROB	494437	n/a	LTP227	ltpFR	14	n/a	n/a	n/a	n/a	n/a	n/a	n/a	13	2	3	8	n/a	n/a	n/a	n/a	n/a
991.078	n/a	STOP	495539	n/a	LTP227	ltpFR	14	n/a	n/a	n/a	n/a	n/a	n/a	n/a	n/a	n/a	n/a	n/a	n/a	n/a	n/a	n/a	n/a
992.66	n/a	WORD	496330	wordpools/wasnorm_wordpool_less_exclusions.txt	LTP227	ltpFR	14	4	1	NIGHTGOWN	953	n/a	n/a	0	n/a	0	0	0	0.422607421875	0.5869140625	0	lower	amplitud.ttf
995.672	n/a	START	497836	n/a	LTP227	ltpFR	14	n/a	n/a	n/a	n/a	n/a	n/a	n/a	n/a	n/a	n/a	n/a	n/a	n/a	n/a	n/a	n/a
996.642	n/a	PROB	498321	n/a	LTP227	ltpFR	14	n/a	n/a	n/a	n/a	n/a	n/a	n/a	10	7	2	1	n/a	n/a	n/a	n/a	n/a
998.344	n/a	PROB	499172	n/a	LTP227	ltpFR	14	n/a	n/a	n/a	n/a	n/a	n/a	n/a	14	1	6	7	n/a	n/a	n/a	n/a	n/a
1000.568	n/a	PROB	500284	n/a	LTP227	ltpFR	14	n/a	n/a	n/a	n/a	n/a	n/a	n/a	20	6	9	5	n/a	n/a	n/a	n/a	n/a
1003.212	n/a	PROB	501606	n/a	LTP227	ltpFR	14	n/a	n/a	n/a	n/a	n/a	n/a	n/a	14	2	6	6	n/a	n/a	n/a	n/a	n/a
1004.752	n/a	PROB	502376	n/a	LTP227	ltpFR	14	n/a	n/a	n/a	n/a	n/a	n/a	n/a	17	7	5	5	n/a	n/a	n/a	n/a	n/a
1006.342	n/a	PROB	503171	n/a	LTP227	ltpFR	14	n/a	n/a	n/a	n/a	n/a	n/a	n/a	8	1	5	2	n/a	n/a	n/a	n/a	n/a
1008.214	n/a	PROB	504107	n/a	LTP227	ltpFR	14	n/a	n/a	n/a	n/a	n/a	n/a	n/a	24	9	8	7	n/a	n/a	n/a	n/a	n/a
1009.588	n/a	PROB	504794	n/a	LTP227	ltpFR	14	n/a	n/a	n/a	n/a	n/a	n/a	n/a	15	7	2	6	n/a	n/a	n/a	n/a	n/a
1011.416	n/a	STOP	505708	n/a	LTP227	ltpFR	14	n/a	n/a	n/a	n/a	n/a	n/a	n/a	n/a	n/a	n/a	n/a	n/a	n/a	n/a	n/a	n/a
1012.888	n/a	WORD	506444	wordpools/wasnorm_wordpool_less_exclusions.txt	LTP227	ltpFR	14	4	1	GRATE	657	n/a	n/a	0	n/a	0	0	0	0.422607421875	0.5869140625	0	lower	amplitud.ttf
1015.9	n/a	START	507950	n/a	LTP227	ltpFR	14	n/a	n/a	n/a	n/a	n/a	n/a	n/a	n/a	n/a	n/a	n/a	n/a	n/a	n/a	n/a	n/a
1016.982	n/a	PROB	508491	n/a	LTP227	ltpFR	14	n/a	n/a	n/a	n/a	n/a	n/a	n/a	13	4	5	3	n/a	n/a	n/a	n/a	n/a
1019.68	n/a	PROB	509840	n/a	LTP227	ltpFR	14	n/a	n/a	n/a	n/a	n/a	n/a	n/a	21	6	6	9	n/a	n/a	n/a	n/a	n/a
1022.524	n/a	PROB	511262	n/a	LTP227	ltpFR	14	n/a	n/a	n/a	n/a	n/a	n/a	n/a	20	9	5	6	n/a	n/a	n/a	n/a	n/a
1025.732	n/a	PROB	512866	n/a	LTP227	ltpFR	14	n/a	n/a	n/a	n/a	n/a	n/a	n/a	21	7	5	9	n/a	n/a	n/a	n/a	n/a
1030.666	n/a	STOP	515333	n/a	LTP227	ltpFR	14	n/a	n/a	n/a	n/a	n/a	n/a	n/a	n/a	n/a	n/a	n/a	n/a	n/a	n/a	n/a	n/a
1032.914	n/a	WORD	516457	wordpools/wasnorm_wordpool_less_exclusions.txt	LTP227	ltpFR	14	4	0	CABIN	211	n/a	n/a	1	n/a	0	0	0	0.57763671875	0.412841796875	1	upper	zerothre.ttf
1035.926	n/a	START	517963	n/a	LTP227	ltpFR	14	n/a	n/a	n/a	n/a	n/a	n/a	n/a	n/a	n/a	n/a	n/a	n/a	n/a	n/a	n/a	n/a
1036.762	n/a	PROB	518381	n/a	LTP227	ltpFR	14	n/a	n/a	n/a	n/a	n/a	n/a	n/a	13	8	3	2	n/a	n/a	n/a	n/a	n/a
1038.748	n/a	PROB	519374	n/a	LTP227	ltpFR	14	n/a	n/a	n/a	n/a	n/a	n/a	n/a	9	1	6	2	n/a	n/a	n/a	n/a	n/a
1040.642	n/a	PROB	520321	n/a	LTP227	ltpFR	14	n/a	n/a	n/a	n/a	n/a	n/a	n/a	17	8	5	4	n/a	n/a	n/a	n/a	n/a
1043.834	n/a	PROB	521917	n/a	LTP227	ltpFR	14	n/a	n/a	n/a	n/a	n/a	n/a	n/a	16	2	8	6	n/a	n/a	n/a	n/a	n/a
1045.14	n/a	PROB	522570	n/a	LTP227	ltpFR	14	n/a	n/a	n/a	n/a	n/a	n/a	n/a	19	8	3	8	n/a	n/a	n/a	n/a	n/a
1048.32	n/a	PROB	524160	n/a	LTP227	ltpFR	14	n/a	n/a	n/a	n/a	n/a	n/a	n/a	12	5	1	6	n/a	n/a	n/a	n/a	n/a
1051.926	n/a	STOP	525963	n/a	LTP227	ltpFR	14	n/a	n/a	n/a	n/a	n/a	n/a	n/a	n/a	n/a	n/a	n/a	n/a	n/a	n/a	n/a	n/a
1053.008	n/a	WORD	526504	wordpools/wasnorm_wordpool_less_exclusions.txt	LTP227	ltpFR	14	4	0	CONTRACTOR	369	n/a	n/a	1	n/a	0	0	0	0.57763671875	0.412841796875	1	upper	zerothre.ttf
1056.018	n/a	START	528009	n/a	LTP227	ltpFR	14	n/a	n/a	n/a	n/a	n/a	n/a	n/a	n/a	n/a	n/a	n/a	n/a	n/a	n/a	n/a	n/a
1057.206	n/a	PROB	528603	n/a	LTP227	ltpFR	14	n/a	n/a	n/a	n/a	n/a	n/a	n/a	12	3	3	6	n/a	n/a	n/a	n/a	n/a
1059.896	n/a	PROB	529948	n/a	LTP227	ltpFR	14	n/a	n/a	n/a	n/a	n/a	n/a	n/a	8	2	5	1	n/a	n/a	n/a	n/a	n/a
1061.79	n/a	PROB	530895	n/a	LTP227	ltpFR	14	n/a	n/a	n/a	n/a	n/a	n/a	n/a	15	7	2	6	n/a	n/a	n/a	n/a	n/a
1063.626	n/a	PROB	531813	n/a	LTP227	ltpFR	14	n/a	n/a	n/a	n/a	n/a	n/a	n/a	14	2	7	4	n/a	n/a	n/a	n/a	n/a
1066.806	n/a	PROB	533403	n/a	LTP227	ltpFR	14	n/a	n/a	n/a	n/a	n/a	n/a	n/a	22	8	7	7	n/a	n/a	n/a	n/a	n/a
1070.946	n/a	STOP	535473	n/a	LTP227	ltpFR	14	n/a	n/a	n/a	n/a	n/a	n/a	n/a	n/a	n/a	n/a	n/a	n/a	n/a	n/a	n/a	n/a
1073.084	n/a	WORD	536542	wordpools/wasnorm_wordpool_less_exclusions.txt	LTP227	ltpFR	14	4	0	ACTRESS	6	n/a	n/a	1	n/a	0	0	0	0.57763671875	0.412841796875	1	upper	zerothre.ttf
1076.096	n/a	START	538048	n/a	LTP227	ltpFR	14	n/a	n/a	n/a	n/a	n/a	n/a	n/a	n/a	n/a	n/a	n/a	n/a	n/a	n/a	n/a	n/a
1077.216	n/a	PROB	538608	n/a	LTP227	ltpFR	14	n/a	n/a	n/a	n/a	n/a	n/a	n/a	20	7	6	7	n/a	n/a	n/a	n/a	n/a
1078.672	n/a	PROB	539336	n/a	LTP227	ltpFR	14	n/a	n/a	n/a	n/a	n/a	n/a	n/a	13	9	2	2	n/a	n/a	n/a	n/a	n/a
1080.892	n/a	PROB	540446	n/a	LTP227	ltpFR	14	n/a	n/a	n/a	n/a	n/a	n/a	n/a	10	7	2	1	n/a	n/a	n/a	n/a	n/a
1082.366	n/a	PROB	541183	n/a	LTP227	ltpFR	14	n/a	n/a	n/a	n/a	n/a	n/a	n/a	19	7	6	5	n/a	n/a	n/a	n/a	n/a
1087.824	n/a	PROB	543912	n/a	LTP227	ltpFR	14	n/a	n/a	n/a	n/a	n/a	n/a	n/a	21	3	9	9	n/a	n/a	n/a	n/a	n/a
1090.464	n/a	PROB	545232	n/a	LTP227	ltpFR	14	n/a	n/a	n/a	n/a	n/a	n/a	n/a	11	7	2	2	n/a	n/a	n/a	n/a	n/a
1092.02	n/a	STOP	546010	n/a	LTP227	ltpFR	14	n/a	n/a	n/a	n/a	n/a	n/a	n/a	n/a	n/a	n/a	n/a	n/a	n/a	n/a	n/a	n/a
1093.126	n/a	WORD	546563	wordpools/wasnorm_wordpool_less_exclusions.txt	LTP227	ltpFR	14	4	1	MOTORCYCLE	923	n/a	n/a	0	n/a	0	0	0	0.422607421875	0.5869140625	0	lower	amplitud.ttf
1096.138	n/a	START	548069	n/a	LTP227	ltpFR	14	n/a	n/a	n/a	n/a	n/a	n/a	n/a	n/a	n/a	n/a	n/a	n/a	n/a	n/a	n/a	n/a
1097.242	n/a	PROB	548621	n/a	LTP227	ltpFR	14	n/a	n/a	n/a	n/a	n/a	n/a	n/a	3	1	1	1	n/a	n/a	n/a	n/a	n/a
1099.43	n/a	PROB	549715	n/a	LTP227	ltpFR	14	n/a	n/a	n/a	n/a	n/a	n/a	n/a	15	7	3	5	n/a	n/a	n/a	n/a	n/a
1100.686	n/a	PROB	550343	n/a	LTP227	ltpFR	14	n/a	n/a	n/a	n/a	n/a	n/a	n/a	10	1	7	2	n/a	n/a	n/a	n/a	n/a
1102.776	n/a	PROB	551388	n/a	LTP227	ltpFR	14	n/a	n/a	n/a	n/a	n/a	n/a	n/a	16	8	1	7	n/a	n/a	n/a	n/a	n/a
1104.55	n/a	PROB	552275	n/a	LTP227	ltpFR	14	n/a	n/a	n/a	n/a	n/a	n/a	n/a	17	2	9	6	n/a	n/a	n/a	n/a	n/a
1107.478	n/a	PROB	553739	n/a	LTP227	ltpFR	14	n/a	n/a	n/a	n/a	n/a	n/a	n/a	13	7	4	2	n/a	n/a	n/a	n/a	n/a
1112.14	n/a	STOP	556070	n/a	LTP227	ltpFR	14	n/a	n/a	n/a	n/a	n/a	n/a	n/a	n/a	n/a	n/a	n/a	n/a	n/a	n/a	n/a	n/a
1113.204	n/a	WORD	556602	wordpools/wasnorm_wordpool_less_exclusions.txt	LTP227	ltpFR	14	4	1	BRACES	164	n/a	n/a	0	n/a	0	0	0	0.422607421875	0.5869140625	0	lower	amplitud.ttf
1116.216	n/a	START	558108	n/a	LTP227	ltpFR	14	n/a	n/a	n/a	n/a	n/a	n/a	n/a	n/a	n/a	n/a	n/a	n/a	n/a	n/a	n/a	n/a
1117.052	n/a	PROB	558526	n/a	LTP227	ltpFR	14	n/a	n/a	n/a	n/a	n/a	n/a	n/a	7	2	2	3	n/a	n/a	n/a	n/a	n/a
1118.72	n/a	PROB	559360	n/a	LTP227	ltpFR	14	n/a	n/a	n/a	n/a	n/a	n/a	n/a	15	6	4	5	n/a	n/a	n/a	n/a	n/a
1120.226	n/a	PROB	560113	n/a	LTP227	ltpFR	14	n/a	n/a	n/a	n/a	n/a	n/a	n/a	14	8	2	4	n/a	n/a	n/a	n/a	n/a
1121.536	n/a	PROB	560768	n/a	LTP227	ltpFR	14	n/a	n/a	n/a	n/a	n/a	n/a	n/a	21	7	7	7	n/a	n/a	n/a	n/a	n/a
1122.92	n/a	PROB	561460	n/a	LTP227	ltpFR	14	n/a	n/a	n/a	n/a	n/a	n/a	n/a	15	9	3	3	n/a	n/a	n/a	n/a	n/a
1124.778	n/a	PROB	562389	n/a	LTP227	ltpFR	14	n/a	n/a	n/a	n/a	n/a	n/a	n/a	24	9	8	7	n/a	n/a	n/a	n/a	n/a
1126.238	n/a	PROB	563119	n/a	LTP227	ltpFR	14	n/a	n/a	n/a	n/a	n/a	n/a	n/a	19	8	9	2	n/a	n/a	n/a	n/a	n/a
1127.924	n/a	PROB	563962	n/a	LTP227	ltpFR	14	n/a	n/a	n/a	n/a	n/a	n/a	n/a	13	6	4	3	n/a	n/a	n/a	n/a	n/a
1132.216	n/a	STOP	566108	n/a	LTP227	ltpFR	14	n/a	n/a	n/a	n/a	n/a	n/a	n/a	n/a	n/a	n/a	n/a	n/a	n/a	n/a	n/a	n/a
1133.444	n/a	WORD	566722	wordpools/wasnorm_wordpool_less_exclusions.txt	LTP227	ltpFR	14	4	1	HOME	712	n/a	n/a	0	n/a	0	0	0	0.422607421875	0.5869140625	0	lower	amplitud.ttf
1136.46	n/a	START	568230	n/a	LTP227	ltpFR	14	n/a	n/a	n/a	n/a	n/a	n/a	n/a	n/a	n/a	n/a	n/a	n/a	n/a	n/a	n/a	n/a
1137.426	n/a	PROB	568713	n/a	LTP227	ltpFR	14	n/a	n/a	n/a	n/a	n/a	n/a	n/a	16	1	9	6	n/a	n/a	n/a	n/a	n/a
1138.952	n/a	PROB	569476	n/a	LTP227	ltpFR	14	n/a	n/a	n/a	n/a	n/a	n/a	n/a	17	3	5	9	n/a	n/a	n/a	n/a	n/a
1141.876	n/a	PROB	570938	n/a	LTP227	ltpFR	14	n/a	n/a	n/a	n/a	n/a	n/a	n/a	15	6	4	5	n/a	n/a	n/a	n/a	n/a
1143.164	n/a	PROB	571582	n/a	LTP227	ltpFR	14	n/a	n/a	n/a	n/a	n/a	n/a	n/a	23	8	7	6	n/a	n/a	n/a	n/a	n/a
1145.674	n/a	PROB	572837	n/a	LTP227	ltpFR	14	n/a	n/a	n/a	n/a	n/a	n/a	n/a	9	5	1	3	n/a	n/a	n/a	n/a	n/a
1148.568	n/a	PROB	574284	n/a	LTP227	ltpFR	14	n/a	n/a	n/a	n/a	n/a	n/a	n/a	10	2	6	2	n/a	n/a	n/a	n/a	n/a
1151.23	n/a	STOP	575615	n/a	LTP227	ltpFR	14	n/a	n/a	n/a	n/a	n/a	n/a	n/a	n/a	n/a	n/a	n/a	n/a	n/a	n/a	n/a	n/a
1153.408	n/a	WORD	576704	wordpools/wasnorm_wordpool_less_exclusions.txt	LTP227	ltpFR	14	4	1	ARCHITECT	36	n/a	n/a	1	n/a	0	0	0	0.422607421875	0.5869140625	0	lower	amplitud.ttf
1156.42	n/a	START	578210	n/a	LTP227	ltpFR	14	n/a	n/a	n/a	n/a	n/a	n/a	n/a	n/a	n/a	n/a	n/a	n/a	n/a	n/a	n/a	n/a
1157.456	n/a	PROB	578728	n/a	LTP227	ltpFR	14	n/a	n/a	n/a	n/a	n/a	n/a	n/a	9	4	2	3	n/a	n/a	n/a	n/a	n/a
1159.494	n/a	PROB	579747	n/a	LTP227	ltpFR	14	n/a	n/a	n/a	n/a	n/a	n/a	n/a	15	7	4	4	n/a	n/a	n/a	n/a	n/a
1161.3	n/a	PROB	580650	n/a	LTP227	ltpFR	14	n/a	n/a	n/a	n/a	n/a	n/a	n/a	15	5	5	5	n/a	n/a	n/a	n/a	n/a
1162.506	n/a	PROB	581253	n/a	LTP227	ltpFR	14	n/a	n/a	n/a	n/a	n/a	n/a	n/a	15	4	4	7	n/a	n/a	n/a	n/a	n/a
1164.282	n/a	PROB	582141	n/a	LTP227	ltpFR	14	n/a	n/a	n/a	n/a	n/a	n/a	n/a	13	5	6	2	n/a	n/a	n/a	n/a	n/a
1167.556	n/a	PROB	583778	n/a	LTP227	ltpFR	14	n/a	n/a	n/a	n/a	n/a	n/a	n/a	17	6	3	8	n/a	n/a	n/a	n/a	n/a
1170.418	n/a	PROB	585209	n/a	LTP227	ltpFR	14	n/a	n/a	n/a	n/a	n/a	n/a	n/a	16	4	7	5	n/a	n/a	n/a	n/a	n/a
1172.056	n/a	STOP	586028	n/a	LTP227	ltpFR	14	n/a	n/a	n/a	n/a	n/a	n/a	n/a	n/a	n/a	n/a	n/a	n/a	n/a	n/a	n/a	n/a
1173.35	n/a	WORD	586675	wordpools/wasnorm_wordpool_less_exclusions.txt	LTP227	ltpFR	14	4	0	VISITOR	1573	n/a	n/a	1	n/a	0	0	0	0.57763671875	0.412841796875	1	upper	zerothre.ttf
1176.362	n/a	START	588181	n/a	LTP227	ltpFR	14	n/a	n/a	n/a	n/a	n/a	n/a	n/a	n/a	n/a	n/a	n/a	n/a	n/a	n/a	n/a	n/a
1177.366	n/a	PROB	588683	n/a	LTP227	ltpFR	14	n/a	n/a	n/a	n/a	n/a	n/a	n/a	15	5	7	3	n/a	n/a	n/a	n/a	n/a
1178.768	n/a	PROB	589384	n/a	LTP227	ltpFR	14	n/a	n/a	n/a	n/a	n/a	n/a	n/a	14	7	5	2	n/a	n/a	n/a	n/a	n/a
1181.712	n/a	PROB	590856	n/a	LTP227	ltpFR	14	n/a	n/a	n/a	n/a	n/a	n/a	n/a	13	1	6	6	n/a	n/a	n/a	n/a	n/a
1183.368	n/a	PROB	591684	n/a	LTP227	ltpFR	14	n/a	n/a	n/a	n/a	n/a	n/a	n/a	17	4	7	6	n/a	n/a	n/a	n/a	n/a
1185.242	n/a	PROB	592621	n/a	LTP227	ltpFR	14	n/a	n/a	n/a	n/a	n/a	n/a	n/a	16	6	8	2	n/a	n/a	n/a	n/a	n/a
1186.836	n/a	PROB	593418	n/a	LTP227	ltpFR	14	n/a	n/a	n/a	n/a	n/a	n/a	n/a	17	6	4	7	n/a	n/a	n/a	n/a	n/a
1188.324	n/a	PROB	594162	n/a	LTP227	ltpFR	14	n/a	n/a	n/a	n/a	n/a	n/a	n/a	17	9	6	2	n/a	n/a	n/a	n/a	n/a
1192.362	n/a	STOP	596181	n/a	LTP227	ltpFR	14	n/a	n/a	n/a	n/a	n/a	n/a	n/a	n/a	n/a	n/a	n/a	n/a	n/a	n/a	n/a	n/a
1193.394	n/a	WORD	596697	wordpools/wasnorm_wordpool_less_exclusions.txt	LTP227	ltpFR	14	4	0	PATIO	1025	n/a	n/a	1	n/a	0	0	0	0.57763671875	0.412841796875	1	upper	zerothre.ttf
1196.404	n/a	START	598202	n/a	LTP227	ltpFR	14	n/a	n/a	n/a	n/a	n/a	n/a	n/a	n/a	n/a	n/a	n/a	n/a	n/a	n/a	n/a	n/a
1197.492	n/a	PROB	598746	n/a	LTP227	ltpFR	14	n/a	n/a	n/a	n/a	n/a	n/a	n/a	15	1	8	6	n/a	n/a	n/a	n/a	n/a
1199.246	n/a	PROB	599623	n/a	LTP227	ltpFR	14	n/a	n/a	n/a	n/a	n/a	n/a	n/a	11	6	3	2	n/a	n/a	n/a	n/a	n/a
1202.558	n/a	PROB	601279	n/a	LTP227	ltpFR	14	n/a	n/a	n/a	n/a	n/a	n/a	n/a	17	5	6	6	n/a	n/a	n/a	n/a	n/a
1206.29	n/a	PROB	603145	n/a	LTP227	ltpFR	14	n/a	n/a	n/a	n/a	n/a	n/a	n/a	12	7	1	4	n/a	n/a	n/a	n/a	n/a
1212.406	n/a	STOP	606203	n/a	LTP227	ltpFR	14	n/a	n/a	n/a	n/a	n/a	n/a	n/a	n/a	n/a	n/a	n/a	n/a	n/a	n/a	n/a	n/a
1214.358	n/a	REC_START	607179	n/a	LTP227	ltpFR	14	4	n/a	n/a	n/a	n/a	n/a	n/a	n/a	0	0	0	n/a	n/a	n/a	n/a	n/a
1216.138	n/a	REC_WORD	608069	wordpools/wasnorm_wordpool_less_exclusions.txt	LTP227	ltpFR	14	4	0	SUIT	1402	n/a	n/a	1	n/a	0	0	0	n/a	n/a	n/a	n/a	n/a
1217.112	n/a	REC_WORD	608556	wordpools/wasnorm_wordpool_less_exclusions.txt	LTP227	ltpFR	14	4	0	TIE	1466	n/a	n/a	0	n/a	0	0	0	n/a	n/a	n/a	n/a	n/a
1218.12	n/a	REC_WORD	609060	wordpools/wasnorm_wordpool_less_exclusions.txt	LTP227	ltpFR	14	4	0	CRITIC	410	n/a	n/a	1	n/a	0	0	0	n/a	n/a	n/a	n/a	n/a
1219.172	n/a	REC_WORD	609586	wordpools/wasnorm_wordpool_less_exclusions.txt	LTP227	ltpFR	14	4	0	ACTRESS	6	n/a	n/a	1	n/a	0	0	0	n/a	n/a	n/a	n/a	n/a
1220.234	n/a	REC_WORD	610117	wordpools/wasnorm_wordpool_less_exclusions.txt	LTP227	ltpFR	14	4	1	HOME	712	n/a	n/a	0	n/a	0	0	0	n/a	n/a	n/a	n/a	n/a
1221.322	n/a	REC_WORD	610661	wordpools/wasnorm_wordpool_less_exclusions.txt	LTP227	ltpFR	14	4	1	LAPEL	800	n/a	n/a	0	n/a	0	0	0	n/a	n/a	n/a	n/a	n/a
1225.028	n/a	REC_WORD	612514	wordpools/wasnorm_wordpool_less_exclusions.txt	LTP227	ltpFR	14	4	1	BRACES	164	n/a	n/a	0	n/a	0	0	0	n/a	n/a	n/a	n/a	n/a
1248.582	n/a	REC_WORD	624291	wordpools/wasnorm_wordpool_less_exclusions.txt	LTP227	ltpFR	14	4	1	ARCHITECT	36	n/a	n/a	1	n/a	0	0	0	n/a	n/a	n/a	n/a	n/a
1284.672	n/a	REC_WORD	642336	wordpools/wasnorm_wordpool_less_exclusions.txt	LTP227	ltpFR	14	4	1	MOTORCYCLE	923	n/a	n/a	0	n/a	0	0	0	n/a	n/a	n/a	n/a	n/a
1299.398	n/a	WORD	649699	wordpools/wasnorm_wordpool_less_exclusions.txt	LTP227	ltpFR	14	5	0	ICEBERG	731	n/a	n/a	1	n/a	0	0	0	0.57763671875	0.412841796875	1	upper	zerothre.ttf
1303.464	n/a	WORD	651732	wordpools/wasnorm_wordpool_less_exclusions.txt	LTP227	ltpFR	14	5	0	JACKET	747	n/a	n/a	1	n/a	0	0	0	0.57763671875	0.412841796875	1	upper	zerothre.ttf
1307.362	n/a	WORD	653681	wordpools/wasnorm_wordpool_less_exclusions.txt	LTP227	ltpFR	14	5	0	CENT	270	n/a	n/a	0	n/a	0	0	0	0.57763671875	0.412841796875	1	upper	zerothre.ttf
1311.21	n/a	WORD	655605	wordpools/wasnorm_wordpool_less_exclusions.txt	LTP227	ltpFR	14	5	0	SHRUB	1299	n/a	n/a	1	n/a	0	0	0	0.57763671875	0.412841796875	1	upper	zerothre.ttf
1315.344	n/a	WORD	657672	wordpools/wasnorm_wordpool_less_exclusions.txt	LTP227	ltpFR	14	5	0	WATER	1594	n/a	n/a	1	n/a	0	0	0	0.57763671875	0.412841796875	1	upper	zerothre.ttf
1319.354	n/a	WORD	659677	wordpools/wasnorm_wordpool_less_exclusions.txt	LTP227	ltpFR	14	5	0	MILITARY	894	n/a	n/a	1	n/a	0	0	0	0.57763671875	0.412841796875	1	upper	zerothre.ttf
1323.406	n/a	WORD	661703	wordpools/wasnorm_wordpool_less_exclusions.txt	LTP227	ltpFR	14	5	0	SERGEANT	1269	n/a	n/a	1	n/a	0	0	0	0.57763671875	0.412841796875	1	upper	zerothre.ttf
1327.588	n/a	WORD	663794	wordpools/wasnorm_wordpool_less_exclusions.txt	LTP227	ltpFR	14	5	0	BARN	89	n/a	n/a	1	n/a	0	0	0	0.57763671875	0.412841796875	1	upper	zerothre.ttf
1331.722	n/a	WORD	665861	wordpools/wasnorm_wordpool_less_exclusions.txt	LTP227	ltpFR	14	5	0	QUARTER	1148	n/a	n/a	0	n/a	0	0	0	0.57763671875	0.412841796875	1	upper	zerothre.ttf
1335.872	n/a	WORD	667936	wordpools/wasnorm_wordpool_less_exclusions.txt	LTP227	ltpFR	14	5	0	CAMEL	223	n/a	n/a	1	n/a	0	0	0	0.57763671875	0.412841796875	1	upper	zerothre.ttf
1340.054	n/a	WORD	670027	wordpools/wasnorm_wordpool_less_exclusions.txt	LTP227	ltpFR	14	5	0	ARMY	39	n/a	n/a	1	n/a	0	0	0	0.57763671875	0.412841796875	1	upper	zerothre.ttf
1343.986	n/a	WORD	671993	wordpools/wasnorm_wordpool_less_exclusions.txt	LTP227	ltpFR	14	5	0	MACARONI	851	n/a	n/a	0	n/a	0	0	0	0.57763671875	0.412841796875	1	upper	zerothre.ttf
1348.034	n/a	WORD	674017	wordpools/wasnorm_wordpool_less_exclusions.txt	LTP227	ltpFR	14	5	0	WELL	1600	n/a	n/a	0	n/a	0	0	0	0.57763671875	0.412841796875	1	upper	zerothre.ttf
1352.0	n/a	WORD	676000	wordpools/wasnorm_wordpool_less_exclusions.txt	LTP227	ltpFR	14	5	0	FARM	552	n/a	n/a	1	n/a	0	0	0	0.57763671875	0.412841796875	1	upper	zerothre.ttf
1356.066	n/a	WORD	678033	wordpools/wasnorm_wordpool_less_exclusions.txt	LTP227	ltpFR	14	5	0	SWATTER	1418	n/a	n/a	0	n/a	0	0	0	0.57763671875	0.412841796875	1	upper	zerothre.ttf
1360.18	n/a	WORD	680090	wordpools/wasnorm_wordpool_less_exclusions.txt	LTP227	ltpFR	14	5	0	CATERPILLAR	259	n/a	n/a	0	n/a	0	0	0	0.57763671875	0.412841796875	1	upper	zerothre.ttf
1366.1	n/a	REC_START	683050	n/a	LTP227	ltpFR	14	5	n/a	n/a	n/a	n/a	n/a	n/a	n/a	0	0	0	n/a	n/a	n/a	n/a	n/a
1366.774	n/a	REC_WORD	683387	wordpools/wasnorm_wordpool_less_exclusions.txt	LTP227	ltpFR	14	5	0	CATERPILLAR	259	n/a	n/a	0	n/a	0	0	0	n/a	n/a	n/a	n/a	n/a
1367.726	n/a	REC_WORD	683863	wordpools/wasnorm_wordpool_less_exclusions.txt	LTP227	ltpFR	14	5	n/a	SWAP	-1	n/a	n/a	n/a	n/a	0	0	0	n/a	n/a	n/a	n/a	n/a
1368.64	n/a	REC_WORD_VV	684320	wordpools/wasnorm_wordpool_less_exclusions.txt	LTP227	ltpFR	14	5	n/a	<>	-1	n/a	n/a	n/a	n/a	0	0	0	n/a	n/a	n/a	n/a	n/a
1368.954	n/a	REC_WORD	684477	wordpools/wasnorm_wordpool_less_exclusions.txt	LTP227	ltpFR	14	5	0	SWATTER	1418	n/a	n/a	0	n/a	0	0	0	n/a	n/a	n/a	n/a	n/a
1371.594	n/a	REC_WORD	685797	wordpools/wasnorm_wordpool_less_exclusions.txt	LTP227	ltpFR	14	5	0	MILITARY	894	n/a	n/a	1	n/a	0	0	0	n/a	n/a	n/a	n/a	n/a
1372.936	n/a	REC_WORD	686468	wordpools/wasnorm_wordpool_less_exclusions.txt	LTP227	ltpFR	14	5	0	ARMY	39	n/a	n/a	1	n/a	0	0	0	n/a	n/a	n/a	n/a	n/a
1373.928	n/a	REC_WORD	686964	wordpools/wasnorm_wordpool_less_exclusions.txt	LTP227	ltpFR	14	5	0	BARN	89	n/a	n/a	1	n/a	0	0	0	n/a	n/a	n/a	n/a	n/a
1375.026	n/a	REC_WORD	687513	wordpools/wasnorm_wordpool_less_exclusions.txt	LTP227	ltpFR	14	5	0	FARM	552	n/a	n/a	1	n/a	0	0	0	n/a	n/a	n/a	n/a	n/a
1379.616	n/a	REC_WORD	689808	wordpools/wasnorm_wordpool_less_exclusions.txt	LTP227	ltpFR	14	5	0	WELL	1600	n/a	n/a	0	n/a	0	0	0	n/a	n/a	n/a	n/a	n/a
1383.626	n/a	REC_WORD	691813	wordpools/wasnorm_wordpool_less_exclusions.txt	LTP227	ltpFR	14	5	0	ICEBERG	731	n/a	n/a	1	n/a	0	0	0	n/a	n/a	n/a	n/a	n/a
1385.278	n/a	REC_WORD	692639	wordpools/wasnorm_wordpool_less_exclusions.txt	LTP227	ltpFR	14	5	0	JACKET	747	n/a	n/a	1	n/a	0	0	0	n/a	n/a	n/a	n/a	n/a
1386.934	n/a	REC_WORD	693467	wordpools/wasnorm_wordpool_less_exclusions.txt	LTP227	ltpFR	14	5	0	QUARTER	1148	n/a	n/a	0	n/a	0	0	0	n/a	n/a	n/a	n/a	n/a
1388.566	n/a	REC_WORD	694283	wordpools/wasnorm_wordpool_less_exclusions.txt	LTP227	ltpFR	14	5	0	SHRUB	1299	n/a	n/a	1	n/a	0	0	0	n/a	n/a	n/a	n/a	n/a
1389.944	n/a	REC_WORD	694972	wordpools/wasnorm_wordpool_less_exclusions.txt	LTP227	ltpFR	14	5	0	CENT	270	n/a	n/a	0	n/a	0	0	0	n/a	n/a	n/a	n/a	n/a
1399.632	n/a	REC_WORD	699816	wordpools/wasnorm_wordpool_less_exclusions.txt	LTP227	ltpFR	14	5	0	SERGEANT	1269	n/a	n/a	1	n/a	0	0	0	n/a	n/a	n/a	n/a	n/a
1402.24	n/a	REC_WORD	701120	wordpools/wasnorm_wordpool_less_exclusions.txt	LTP227	ltpFR	14	5	0	CAMEL	223	n/a	n/a	1	n/a	0	0	0	n/a	n/a	n/a	n/a	n/a
1443.5	n/a	START	721750	n/a	LTP227	ltpFR	14	n/a	n/a	n/a	n/a	n/a	n/a	n/a	n/a	n/a	n/a	n/a	n/a	n/a	n/a	n/a	n/a
1445.006	n/a	PROB	722503	n/a	LTP227	ltpFR	14	n/a	n/a	n/a	n/a	n/a	n/a	n/a	11	4	2	5	n/a	n/a	n/a	n/a	n/a
1447.514	n/a	PROB	723757	n/a	LTP227	ltpFR	14	n/a	n/a	n/a	n/a	n/a	n/a	n/a	9	2	3	4	n/a	n/a	n/a	n/a	n/a
1450.072	n/a	STOP	725036	n/a	LTP227	ltpFR	14	n/a	n/a	n/a	n/a	n/a	n/a	n/a	n/a	n/a	n/a	n/a	n/a	n/a	n/a	n/a	n/a
1452.35	n/a	WORD	726175	wordpools/wasnorm_wordpool_less_exclusions.txt	LTP227	ltpFR	14	6	0	POLYESTER	1100	n/a	n/a	0	n/a	0	0	0	0.57763671875	0.412841796875	1	upper	zerothre.ttf
1455.362	n/a	START	727681	n/a	LTP227	ltpFR	14	n/a	n/a	n/a	n/a	n/a	n/a	n/a	n/a	n/a	n/a	n/a	n/a	n/a	n/a	n/a	n/a
1456.348	n/a	PROB	728174	n/a	LTP227	ltpFR	14	n/a	n/a	n/a	n/a	n/a	n/a	n/a	17	6	6	5	n/a	n/a	n/a	n/a	n/a
1463.362	n/a	STOP	731681	n/a	LTP227	ltpFR	14	n/a	n/a	n/a	n/a	n/a	n/a	n/a	n/a	n/a	n/a	n/a	n/a	n/a	n/a	n/a	n/a
1464.396	n/a	WORD	732198	wordpools/wasnorm_wordpool_less_exclusions.txt	LTP227	ltpFR	14	6	0	STAPLER	1372	n/a	n/a	0	n/a	0	0	0	0.57763671875	0.412841796875	1	upper	zerothre.ttf
1467.408	n/a	START	733704	n/a	LTP227	ltpFR	14	n/a	n/a	n/a	n/a	n/a	n/a	n/a	n/a	n/a	n/a	n/a	n/a	n/a	n/a	n/a	n/a
1468.462	n/a	PROB	734231	n/a	LTP227	ltpFR	14	n/a	n/a	n/a	n/a	n/a	n/a	n/a	10	3	4	3	n/a	n/a	n/a	n/a	n/a
1470.348	n/a	PROB	735174	n/a	LTP227	ltpFR	14	n/a	n/a	n/a	n/a	n/a	n/a	n/a	14	3	9	2	n/a	n/a	n/a	n/a	n/a
1472.61	n/a	PROB	736305	n/a	LTP227	ltpFR	14	n/a	n/a	n/a	n/a	n/a	n/a	n/a	20	6	7	7	n/a	n/a	n/a	n/a	n/a
1473.92	n/a	STOP	736960	n/a	LTP227	ltpFR	14	n/a	n/a	n/a	n/a	n/a	n/a	n/a	n/a	n/a	n/a	n/a	n/a	n/a	n/a	n/a	n/a
1476.622	n/a	WORD	738311	wordpools/wasnorm_wordpool_less_exclusions.txt	LTP227	ltpFR	14	6	1	CLERK	321	n/a	n/a	3	n/a	0	0	0	0.422607421875	0.5869140625	0	lower	amplitud.ttf
1477.78	n/a	KEY_MSG	738890	n/a	LTP227	ltpFR	14	6	n/a	n/a	n/a	n/a	n/a	n/a	n/a	0	0	0	n/a	n/a	n/a	n/a	n/a
1479.638	n/a	START	739819	n/a	LTP227	ltpFR	14	n/a	n/a	n/a	n/a	n/a	n/a	n/a	n/a	n/a	n/a	n/a	n/a	n/a	n/a	n/a	n/a
1480.474	n/a	PROB	740237	n/a	LTP227	ltpFR	14	n/a	n/a	n/a	n/a	n/a	n/a	n/a	13	1	7	5	n/a	n/a	n/a	n/a	n/a
1484.134	n/a	PROB	742067	n/a	LTP227	ltpFR	14	n/a	n/a	n/a	n/a	n/a	n/a	n/a	14	1	4	9	n/a	n/a	n/a	n/a	n/a
1487.638	n/a	STOP	743819	n/a	LTP227	ltpFR	14	n/a	n/a	n/a	n/a	n/a	n/a	n/a	n/a	n/a	n/a	n/a	n/a	n/a	n/a	n/a	n/a
1488.756	n/a	WORD	744378	wordpools/wasnorm_wordpool_less_exclusions.txt	LTP227	ltpFR	14	6	1	LIPSTICK	829	n/a	n/a	0	n/a	0	0	0	0.422607421875	0.5869140625	0	lower	amplitud.ttf
1491.768	n/a	START	745884	n/a	LTP227	ltpFR	14	n/a	n/a	n/a	n/a	n/a	n/a	n/a	n/a	n/a	n/a	n/a	n/a	n/a	n/a	n/a	n/a
1492.688	n/a	PROB	746344	n/a	LTP227	ltpFR	14	n/a	n/a	n/a	n/a	n/a	n/a	n/a	11	1	1	9	n/a	n/a	n/a	n/a	n/a
1494.24	n/a	PROB	747120	n/a	LTP227	ltpFR	14	n/a	n/a	n/a	n/a	n/a	n/a	n/a	17	6	3	8	n/a	n/a	n/a	n/a	n/a
1496.87	n/a	PROB	748435	n/a	LTP227	ltpFR	14	n/a	n/a	n/a	n/a	n/a	n/a	n/a	14	1	7	6	n/a	n/a	n/a	n/a	n/a
1499.64	n/a	STOP	749820	n/a	LTP227	ltpFR	14	n/a	n/a	n/a	n/a	n/a	n/a	n/a	n/a	n/a	n/a	n/a	n/a	n/a	n/a	n/a	n/a
1500.752	n/a	WORD	750376	wordpools/wasnorm_wordpool_less_exclusions.txt	LTP227	ltpFR	14	6	1	BACKBONE	66	n/a	n/a	0	n/a	0	0	0	0.422607421875	0.5869140625	0	lower	amplitud.ttf
1503.764	n/a	START	751882	n/a	LTP227	ltpFR	14	n/a	n/a	n/a	n/a	n/a	n/a	n/a	n/a	n/a	n/a	n/a	n/a	n/a	n/a	n/a	n/a
1504.948	n/a	PROB	752474	n/a	LTP227	ltpFR	14	n/a	n/a	n/a	n/a	n/a	n/a	n/a	19	5	8	6	n/a	n/a	n/a	n/a	n/a
1511.764	n/a	STOP	755882	n/a	LTP227	ltpFR	14	n/a	n/a	n/a	n/a	n/a	n/a	n/a	n/a	n/a	n/a	n/a	n/a	n/a	n/a	n/a	n/a
1512.914	n/a	WORD	756457	wordpools/wasnorm_wordpool_less_exclusions.txt	LTP227	ltpFR	14	6	1	BALL	73	n/a	n/a	0	n/a	0	0	0	0.422607421875	0.5869140625	0	lower	amplitud.ttf
1515.926	n/a	START	757963	n/a	LTP227	ltpFR	14	n/a	n/a	n/a	n/a	n/a	n/a	n/a	n/a	n/a	n/a	n/a	n/a	n/a	n/a	n/a	n/a
1516.858	n/a	PROB	758429	n/a	LTP227	ltpFR	14	n/a	n/a	n/a	n/a	n/a	n/a	n/a	16	1	7	8	n/a	n/a	n/a	n/a	n/a
1519.234	n/a	PROB	759617	n/a	LTP227	ltpFR	14	n/a	n/a	n/a	n/a	n/a	n/a	n/a	16	8	4	4	n/a	n/a	n/a	n/a	n/a
1523.928	n/a	STOP	761964	n/a	LTP227	ltpFR	14	n/a	n/a	n/a	n/a	n/a	n/a	n/a	n/a	n/a	n/a	n/a	n/a	n/a	n/a	n/a	n/a
1525.094	n/a	WORD	762547	wordpools/wasnorm_wordpool_less_exclusions.txt	LTP227	ltpFR	14	6	0	KIWI	781	n/a	n/a	0	n/a	0	0	0	0.57763671875	0.412841796875	1	upper	zerothre.ttf
1528.106	n/a	START	764053	n/a	LTP227	ltpFR	14	n/a	n/a	n/a	n/a	n/a	n/a	n/a	n/a	n/a	n/a	n/a	n/a	n/a	n/a	n/a	n/a
1528.938	n/a	PROB	764469	n/a	LTP227	ltpFR	14	n/a	n/a	n/a	n/a	n/a	n/a	n/a	16	5	8	3	n/a	n/a	n/a	n/a	n/a
1530.812	n/a	PROB	765406	n/a	LTP227	ltpFR	14	n/a	n/a	n/a	n/a	n/a	n/a	n/a	11	3	7	1	n/a	n/a	n/a	n/a	n/a
1536.106	n/a	STOP	768053	n/a	LTP227	ltpFR	14	n/a	n/a	n/a	n/a	n/a	n/a	n/a	n/a	n/a	n/a	n/a	n/a	n/a	n/a	n/a	n/a
1537.29	n/a	WORD	768645	wordpools/wasnorm_wordpool_less_exclusions.txt	LTP227	ltpFR	14	6	0	YARD	1630	n/a	n/a	1	n/a	0	0	0	0.57763671875	0.412841796875	1	upper	zerothre.ttf
1540.304	n/a	START	770152	n/a	LTP227	ltpFR	14	n/a	n/a	n/a	n/a	n/a	n/a	n/a	n/a	n/a	n/a	n/a	n/a	n/a	n/a	n/a	n/a
1541.354	n/a	PROB	770677	n/a	LTP227	ltpFR	14	n/a	n/a	n/a	n/a	n/a	n/a	n/a	23	9	7	7	n/a	n/a	n/a	n/a	n/a
1543.36	n/a	PROB	771680	n/a	LTP227	ltpFR	14	n/a	n/a	n/a	n/a	n/a	n/a	n/a	24	8	7	9	n/a	n/a	n/a	n/a	n/a
1546.572	n/a	PROB	773286	n/a	LTP227	ltpFR	14	n/a	n/a	n/a	n/a	n/a	n/a	n/a	16	6	5	5	n/a	n/a	n/a	n/a	n/a
1547.78	n/a	STOP	773890	n/a	LTP227	ltpFR	14	n/a	n/a	n/a	n/a	n/a	n/a	n/a	n/a	n/a	n/a	n/a	n/a	n/a	n/a	n/a	n/a
1549.32	n/a	WORD	774660	wordpools/wasnorm_wordpool_less_exclusions.txt	LTP227	ltpFR	14	6	0	LAWN	805	n/a	n/a	1	n/a	0	0	0	0.57763671875	0.412841796875	1	upper	zerothre.ttf
1552.332	n/a	START	776166	n/a	LTP227	ltpFR	14	n/a	n/a	n/a	n/a	n/a	n/a	n/a	n/a	n/a	n/a	n/a	n/a	n/a	n/a	n/a	n/a
1553.402	n/a	PROB	776701	n/a	LTP227	ltpFR	14	n/a	n/a	n/a	n/a	n/a	n/a	n/a	14	4	7	3	n/a	n/a	n/a	n/a	n/a
1554.754	n/a	PROB	777377	n/a	LTP227	ltpFR	14	n/a	n/a	n/a	n/a	n/a	n/a	n/a	13	5	2	6	n/a	n/a	n/a	n/a	n/a
1560.262	n/a	STOP	780131	n/a	LTP227	ltpFR	14	n/a	n/a	n/a	n/a	n/a	n/a	n/a	n/a	n/a	n/a	n/a	n/a	n/a	n/a	n/a	n/a
1561.232	n/a	WORD	780616	wordpools/wasnorm_wordpool_less_exclusions.txt	LTP227	ltpFR	14	6	0	SWEATER	1419	n/a	n/a	0	n/a	0	0	0	0.57763671875	0.412841796875	1	upper	zerothre.ttf
1564.244	n/a	START	782122	n/a	LTP227	ltpFR	14	n/a	n/a	n/a	n/a	n/a	n/a	n/a	n/a	n/a	n/a	n/a	n/a	n/a	n/a	n/a	n/a
1565.098	n/a	PROB	782549	n/a	LTP227	ltpFR	14	n/a	n/a	n/a	n/a	n/a	n/a	n/a	15	3	5	7	n/a	n/a	n/a	n/a	n/a
1566.754	n/a	PROB	783377	n/a	LTP227	ltpFR	14	n/a	n/a	n/a	n/a	n/a	n/a	n/a	18	8	1	9	n/a	n/a	n/a	n/a	n/a
1568.59	n/a	PROB	784295	n/a	LTP227	ltpFR	14	n/a	n/a	n/a	n/a	n/a	n/a	n/a	13	1	3	9	n/a	n/a	n/a	n/a	n/a
1570.346	n/a	PROB	785173	n/a	LTP227	ltpFR	14	n/a	n/a	n/a	n/a	n/a	n/a	n/a	7	1	5	1	n/a	n/a	n/a	n/a	n/a
1571.83	n/a	STOP	785915	n/a	LTP227	ltpFR	14	n/a	n/a	n/a	n/a	n/a	n/a	n/a	n/a	n/a	n/a	n/a	n/a	n/a	n/a	n/a	n/a
1573.378	n/a	WORD	786689	wordpools/wasnorm_wordpool_less_exclusions.txt	LTP227	ltpFR	14	6	1	SHEEP	1278	n/a	n/a	1	n/a	0	0	0	0.422607421875	0.5869140625	0	lower	amplitud.ttf
1576.392	n/a	START	788196	n/a	LTP227	ltpFR	14	n/a	n/a	n/a	n/a	n/a	n/a	n/a	n/a	n/a	n/a	n/a	n/a	n/a	n/a	n/a	n/a
1577.228	n/a	PROB	788614	n/a	LTP227	ltpFR	14	n/a	n/a	n/a	n/a	n/a	n/a	n/a	16	6	5	5	n/a	n/a	n/a	n/a	n/a
1578.444	n/a	PROB	789222	n/a	LTP227	ltpFR	14	n/a	n/a	n/a	n/a	n/a	n/a	n/a	24	7	8	9	n/a	n/a	n/a	n/a	n/a
1580.156	n/a	PROB	790078	n/a	LTP227	ltpFR	14	n/a	n/a	n/a	n/a	n/a	n/a	n/a	12	2	8	2	n/a	n/a	n/a	n/a	n/a
1581.426	n/a	PROB	790713	n/a	LTP227	ltpFR	14	n/a	n/a	n/a	n/a	n/a	n/a	n/a	9	2	4	3	n/a	n/a	n/a	n/a	n/a
1583.222	n/a	STOP	791611	n/a	LTP227	ltpFR	14	n/a	n/a	n/a	n/a	n/a	n/a	n/a	n/a	n/a	n/a	n/a	n/a	n/a	n/a	n/a	n/a
1585.492	n/a	WORD	792746	wordpools/wasnorm_wordpool_less_exclusions.txt	LTP227	ltpFR	14	6	1	BUCKET	184	n/a	n/a	0	n/a	0	0	0	0.422607421875	0.5869140625	0	lower	amplitud.ttf
1588.504	n/a	START	794252	n/a	LTP227	ltpFR	14	n/a	n/a	n/a	n/a	n/a	n/a	n/a	n/a	n/a	n/a	n/a	n/a	n/a	n/a	n/a	n/a
1589.67	n/a	PROB	794835	n/a	LTP227	ltpFR	14	n/a	n/a	n/a	n/a	n/a	n/a	n/a	18	7	6	5	n/a	n/a	n/a	n/a	n/a
1592.482	n/a	PROB	796241	n/a	LTP227	ltpFR	14	n/a	n/a	n/a	n/a	n/a	n/a	n/a	14	2	9	3	n/a	n/a	n/a	n/a	n/a
1594.506	n/a	PROB	797253	n/a	LTP227	ltpFR	14	n/a	n/a	n/a	n/a	n/a	n/a	n/a	14	1	8	5	n/a	n/a	n/a	n/a	n/a
1596.182	n/a	STOP	798091	n/a	LTP227	ltpFR	14	n/a	n/a	n/a	n/a	n/a	n/a	n/a	n/a	n/a	n/a	n/a	n/a	n/a	n/a	n/a	n/a
1597.488	n/a	WORD	798744	wordpools/wasnorm_wordpool_less_exclusions.txt	LTP227	ltpFR	14	6	1	FEMALE	559	n/a	n/a	1	n/a	0	0	0	0.422607421875	0.5869140625	0	lower	amplitud.ttf
1600.5	n/a	START	800250	n/a	LTP227	ltpFR	14	n/a	n/a	n/a	n/a	n/a	n/a	n/a	n/a	n/a	n/a	n/a	n/a	n/a	n/a	n/a	n/a
1601.37	n/a	PROB	800685	n/a	LTP227	ltpFR	14	n/a	n/a	n/a	n/a	n/a	n/a	n/a	17	8	3	8	n/a	n/a	n/a	n/a	n/a
1604.026	n/a	PROB	802013	n/a	LTP227	ltpFR	14	n/a	n/a	n/a	n/a	n/a	n/a	n/a	18	1	9	8	n/a	n/a	n/a	n/a	n/a
1605.548	n/a	PROB	802774	n/a	LTP227	ltpFR	14	n/a	n/a	n/a	n/a	n/a	n/a	n/a	16	7	2	7	n/a	n/a	n/a	n/a	n/a
1607.2	n/a	STOP	803600	n/a	LTP227	ltpFR	14	n/a	n/a	n/a	n/a	n/a	n/a	n/a	n/a	n/a	n/a	n/a	n/a	n/a	n/a	n/a	n/a
1609.45	n/a	WORD	804725	wordpools/wasnorm_wordpool_less_exclusions.txt	LTP227	ltpFR	14	6	1	BANANA	77	n/a	n/a	n/a	n/a	0	0	0	0.422607421875	0.5869140625	0	lower	amplitud.ttf
1612.494	n/a	SLOW_MSG	806247	n/a	LTP227	ltpFR	14	6	n/a	n/a	n/a	n/a	n/a	n/a	n/a	0	0	0	n/a	n/a	n/a	n/a	n/a
1614.018	n/a	START	807009	n/a	LTP227	ltpFR	14	n/a	n/a	n/a	n/a	n/a	n/a	n/a	n/a	n/a	n/a	n/a	n/a	n/a	n/a	n/a	n/a
1614.838	n/a	PROB	807419	n/a	LTP227	ltpFR	14	n/a	n/a	n/a	n/a	n/a	n/a	n/a	19	4	7	8	n/a	n/a	n/a	n/a	n/a
1622.018	n/a	STOP	811009	n/a	LTP227	ltpFR	14	n/a	n/a	n/a	n/a	n/a	n/a	n/a	n/a	n/a	n/a	n/a	n/a	n/a	n/a	n/a	n/a
1622.902	n/a	WORD	811451	wordpools/wasnorm_wordpool_less_exclusions.txt	LTP227	ltpFR	14	6	0	MARROW	872	n/a	n/a	0	n/a	0	0	0	0.57763671875	0.412841796875	1	upper	zerothre.ttf
1625.914	n/a	START	812957	n/a	LTP227	ltpFR	14	n/a	n/a	n/a	n/a	n/a	n/a	n/a	n/a	n/a	n/a	n/a	n/a	n/a	n/a	n/a	n/a
1626.984	n/a	PROB	813492	n/a	LTP227	ltpFR	14	n/a	n/a	n/a	n/a	n/a	n/a	n/a	22	7	8	7	n/a	n/a	n/a	n/a	n/a
1629.476	n/a	PROB	814738	n/a	LTP227	ltpFR	14	n/a	n/a	n/a	n/a	n/a	n/a	n/a	17	6	3	8	n/a	n/a	n/a	n/a	n/a
1632.986	n/a	STOP	816493	n/a	LTP227	ltpFR	14	n/a	n/a	n/a	n/a	n/a	n/a	n/a	n/a	n/a	n/a	n/a	n/a	n/a	n/a	n/a	n/a
1634.998	n/a	WORD	817499	wordpools/wasnorm_wordpool_less_exclusions.txt	LTP227	ltpFR	14	6	0	IDOL	733	n/a	n/a	1	n/a	0	0	0	0.57763671875	0.412841796875	1	upper	zerothre.ttf
1638.01	n/a	START	819005	n/a	LTP227	ltpFR	14	n/a	n/a	n/a	n/a	n/a	n/a	n/a	n/a	n/a	n/a	n/a	n/a	n/a	n/a	n/a	n/a
1639.096	n/a	PROB	819548	n/a	LTP227	ltpFR	14	n/a	n/a	n/a	n/a	n/a	n/a	n/a	13	6	4	3	n/a	n/a	n/a	n/a	n/a
1640.498	n/a	PROB	820249	n/a	LTP227	ltpFR	14	n/a	n/a	n/a	n/a	n/a	n/a	n/a	14	1	7	6	n/a	n/a	n/a	n/a	n/a
1642.422	n/a	PROB	821211	n/a	LTP227	ltpFR	14	n/a	n/a	n/a	n/a	n/a	n/a	n/a	14	4	1	9	n/a	n/a	n/a	n/a	n/a
1646.01	n/a	STOP	823005	n/a	LTP227	ltpFR	14	n/a	n/a	n/a	n/a	n/a	n/a	n/a	n/a	n/a	n/a	n/a	n/a	n/a	n/a	n/a	n/a
1647.776	n/a	REC_START	823888	n/a	LTP227	ltpFR	14	6	n/a	n/a	n/a	n/a	n/a	n/a	n/a	0	0	0	n/a	n/a	n/a	n/a	n/a
1651.412	n/a	REC_WORD	825706	wordpools/wasnorm_wordpool_less_exclusions.txt	LTP227	ltpFR	14	6	0	MARROW	872	n/a	n/a	0	n/a	0	0	0	n/a	n/a	n/a	n/a	n/a
1685.292	n/a	REC_WORD	842646	wordpools/wasnorm_wordpool_less_exclusions.txt	LTP227	ltpFR	14	6	0	YARD	1630	n/a	n/a	1	n/a	0	0	0	n/a	n/a	n/a	n/a	n/a
1690.468	n/a	REC_WORD	845234	wordpools/wasnorm_wordpool_less_exclusions.txt	LTP227	ltpFR	14	6	0	KIWI	781	n/a	n/a	0	n/a	0	0	0	n/a	n/a	n/a	n/a	n/a
1710.568	n/a	REC_WORD	855284	wordpools/wasnorm_wordpool_less_exclusions.txt	LTP227	ltpFR	14	6	1	BACKBONE	66	n/a	n/a	0	n/a	0	0	0	n/a	n/a	n/a	n/a	n/a
1727.232	n/a	WORD	863616	wordpools/wasnorm_wordpool_less_exclusions.txt	LTP227	ltpFR	14	7	0	VITAMIN	1574	n/a	n/a	0	n/a	0	0	0	0.57763671875	0.412841796875	1	upper	zerothre.ttf
1731.116	n/a	WORD	865558	wordpools/wasnorm_wordpool_less_exclusions.txt	LTP227	ltpFR	14	7	0	ATTIRE	57	n/a	n/a	1	n/a	0	0	0	0.57763671875	0.412841796875	1	upper	zerothre.ttf
1735.13	n/a	WORD	867565	wordpools/wasnorm_wordpool_less_exclusions.txt	LTP227	ltpFR	14	7	0	JAM	748	n/a	n/a	0	n/a	0	0	0	0.57763671875	0.412841796875	1	upper	zerothre.ttf
1739.33	n/a	WORD	869665	wordpools/wasnorm_wordpool_less_exclusions.txt	LTP227	ltpFR	14	7	0	SACK	1220	n/a	n/a	0	n/a	0	0	0	0.57763671875	0.412841796875	1	upper	zerothre.ttf
1743.428	n/a	WORD	871714	wordpools/wasnorm_wordpool_less_exclusions.txt	LTP227	ltpFR	14	7	0	GUEST	669	n/a	n/a	1	n/a	0	0	0	0.57763671875	0.412841796875	1	upper	zerothre.ttf
1747.278	n/a	WORD	873639	wordpools/wasnorm_wordpool_less_exclusions.txt	LTP227	ltpFR	14	7	0	FELLOW	558	n/a	n/a	1	n/a	0	0	0	0.57763671875	0.412841796875	1	upper	zerothre.ttf
1751.392	n/a	WORD	875696	wordpools/wasnorm_wordpool_less_exclusions.txt	LTP227	ltpFR	14	7	0	PADDING	999	n/a	n/a	0	n/a	0	0	0	0.57763671875	0.412841796875	1	upper	zerothre.ttf
1755.392	n/a	WORD	877696	wordpools/wasnorm_wordpool_less_exclusions.txt	LTP227	ltpFR	14	7	0	CARAVAN	242	n/a	n/a	1	n/a	0	0	0	0.57763671875	0.412841796875	1	upper	zerothre.ttf
1759.372	n/a	WORD	879686	wordpools/wasnorm_wordpool_less_exclusions.txt	LTP227	ltpFR	14	7	0	TRAY	1498	n/a	n/a	0	n/a	0	0	0	0.57763671875	0.412841796875	1	upper	zerothre.ttf
1763.504	n/a	WORD	881752	wordpools/wasnorm_wordpool_less_exclusions.txt	LTP227	ltpFR	14	7	0	BALCONY	72	n/a	n/a	1	n/a	0	0	0	0.57763671875	0.412841796875	1	upper	zerothre.ttf
1767.37	n/a	WORD	883685	wordpools/wasnorm_wordpool_less_exclusions.txt	LTP227	ltpFR	14	7	0	VALVE	1546	n/a	n/a	0	n/a	0	0	0	0.57763671875	0.412841796875	1	upper	zerothre.ttf
1771.502	n/a	WORD	885751	wordpools/wasnorm_wordpool_less_exclusions.txt	LTP227	ltpFR	14	7	0	LAUNDRY	803	n/a	n/a	1	n/a	0	0	0	0.57763671875	0.412841796875	1	upper	zerothre.ttf
1775.484	n/a	WORD	887742	wordpools/wasnorm_wordpool_less_exclusions.txt	LTP227	ltpFR	14	7	0	LEVER	815	n/a	n/a	0	n/a	0	0	0	0.57763671875	0.412841796875	1	upper	zerothre.ttf
1779.432	n/a	WORD	889716	wordpools/wasnorm_wordpool_less_exclusions.txt	LTP227	ltpFR	14	7	0	FURNITURE	616	n/a	n/a	1	n/a	0	0	0	0.57763671875	0.412841796875	1	upper	zerothre.ttf
1783.498	n/a	WORD	891749	wordpools/wasnorm_wordpool_less_exclusions.txt	LTP227	ltpFR	14	7	0	RECIPE	1175	n/a	n/a	0	n/a	0	0	0	0.57763671875	0.412841796875	1	upper	zerothre.ttf
1787.498	n/a	WORD	893749	wordpools/wasnorm_wordpool_less_exclusions.txt	LTP227	ltpFR	14	7	0	POTATO	1115	n/a	n/a	0	n/a	0	0	0	0.57763671875	0.412841796875	1	upper	zerothre.ttf
1790.508	n/a	START	895254	n/a	LTP227	ltpFR	14	n/a	n/a	n/a	n/a	n/a	n/a	n/a	n/a	n/a	n/a	n/a	n/a	n/a	n/a	n/a	n/a
1791.646	n/a	PROB	895823	n/a	LTP227	ltpFR	14	n/a	n/a	n/a	n/a	n/a	n/a	n/a	13	7	4	2	n/a	n/a	n/a	n/a	n/a
1793.884	n/a	PROB	896942	n/a	LTP227	ltpFR	14	n/a	n/a	n/a	n/a	n/a	n/a	n/a	18	4	5	9	n/a	n/a	n/a	n/a	n/a
1797.314	n/a	STOP	898657	n/a	LTP227	ltpFR	14	n/a	n/a	n/a	n/a	n/a	n/a	n/a	n/a	n/a	n/a	n/a	n/a	n/a	n/a	n/a	n/a
1800.296	n/a	REC_START	900148	n/a	LTP227	ltpFR	14	7	n/a	n/a	n/a	n/a	n/a	n/a	n/a	0	0	0	n/a	n/a	n/a	n/a	n/a
1800.71	n/a	REC_WORD	900355	wordpools/wasnorm_wordpool_less_exclusions.txt	LTP227	ltpFR	14	7	0	POTATO	1115	n/a	n/a	0	n/a	0	0	0	n/a	n/a	n/a	n/a	n/a
1801.614	n/a	REC_WORD	900807	wordpools/wasnorm_wordpool_less_exclusions.txt	LTP227	ltpFR	14	7	0	PATIO	1025	n/a	n/a	1	n/a	0	0	0	n/a	n/a	n/a	n/a	n/a
1802.562	n/a	REC_WORD	901281	wordpools/wasnorm_wordpool_less_exclusions.txt	LTP227	ltpFR	14	7	0	BALCONY	72	n/a	n/a	1	n/a	0	0	0	n/a	n/a	n/a	n/a	n/a
1804.956	n/a	REC_WORD	902478	wordpools/wasnorm_wordpool_less_exclusions.txt	LTP227	ltpFR	14	7	0	RECIPE	1175	n/a	n/a	0	n/a	0	0	0	n/a	n/a	n/a	n/a	n/a
1832.19	n/a	REC_WORD	916095	wordpools/wasnorm_wordpool_less_exclusions.txt	LTP227	ltpFR	14	7	0	ATTIRE	57	n/a	n/a	1	n/a	0	0	0	n/a	n/a	n/a	n/a	n/a
1868.162	n/a	REC_WORD	934081	wordpools/wasnorm_wordpool_less_exclusions.txt	LTP227	ltpFR	14	7	0	JAM	748	n/a	n/a	0	n/a	0	0	0	n/a	n/a	n/a	n/a	n/a
1873.598	n/a	REC_WORD	936799	wordpools/wasnorm_wordpool_less_exclusions.txt	LTP227	ltpFR	14	7	0	VITAMIN	1574	n/a	n/a	0	n/a	0	0	0	n/a	n/a	n/a	n/a	n/a
1896.112	n/a	WORD	948056	wordpools/wasnorm_wordpool_less_exclusions.txt	LTP227	ltpFR	14	8	1	KING	777	n/a	n/a	1	n/a	0	0	0	0.422607421875	0.5869140625	0	lower	amplitud.ttf
1900.044	n/a	WORD	950022	wordpools/wasnorm_wordpool_less_exclusions.txt	LTP227	ltpFR	14	8	1	CROWN	415	n/a	n/a	0	n/a	0	0	0	0.422607421875	0.5869140625	0	lower	amplitud.ttf
1904.022	n/a	WORD	952011	wordpools/wasnorm_wordpool_less_exclusions.txt	LTP227	ltpFR	14	8	1	DEODORANT	448	n/a	n/a	0	n/a	0	0	0	0.422607421875	0.5869140625	0	lower	amplitud.ttf
1908.208	n/a	WORD	954104	wordpools/wasnorm_wordpool_less_exclusions.txt	LTP227	ltpFR	14	8	1	MULE	931	n/a	n/a	1	n/a	0	0	0	0.422607421875	0.5869140625	0	lower	amplitud.ttf
1912.27	n/a	WORD	956135	wordpools/wasnorm_wordpool_less_exclusions.txt	LTP227	ltpFR	14	8	1	LASER	801	n/a	n/a	0	n/a	0	0	0	0.422607421875	0.5869140625	0	lower	amplitud.ttf
1916.238	n/a	WORD	958119	wordpools/wasnorm_wordpool_less_exclusions.txt	LTP227	ltpFR	14	8	1	CORAL	378	n/a	n/a	1	n/a	0	0	0	0.422607421875	0.5869140625	0	lower	amplitud.ttf
1920.388	n/a	WORD	960194	wordpools/wasnorm_wordpool_less_exclusions.txt	LTP227	ltpFR	14	8	1	RADISH	1158	n/a	n/a	0	n/a	0	0	0	0.422607421875	0.5869140625	0	lower	amplitud.ttf
1924.568	n/a	WORD	962284	wordpools/wasnorm_wordpool_less_exclusions.txt	LTP227	ltpFR	14	8	1	WAGON	1578	n/a	n/a	0	n/a	0	0	0	0.422607421875	0.5869140625	0	lower	amplitud.ttf
1928.67	n/a	WORD	964335	wordpools/wasnorm_wordpool_less_exclusions.txt	LTP227	ltpFR	14	8	1	FEATHER	557	n/a	n/a	0	n/a	0	0	0	0.422607421875	0.5869140625	0	lower	amplitud.ttf
1932.768	n/a	WORD	966384	wordpools/wasnorm_wordpool_less_exclusions.txt	LTP227	ltpFR	14	8	1	STALLION	1369	n/a	n/a	1	n/a	0	0	0	0.422607421875	0.5869140625	0	lower	amplitud.ttf
1936.664	n/a	WORD	968332	wordpools/wasnorm_wordpool_less_exclusions.txt	LTP227	ltpFR	14	8	1	ARTIST	43	n/a	n/a	1	n/a	0	0	0	0.422607421875	0.5869140625	0	lower	amplitud.ttf
1940.75	n/a	WORD	970375	wordpools/wasnorm_wordpool_less_exclusions.txt	LTP227	ltpFR	14	8	1	FUGITIVE	612	n/a	n/a	1	n/a	0	0	0	0.422607421875	0.5869140625	0	lower	amplitud.ttf
1944.882	n/a	WORD	972441	wordpools/wasnorm_wordpool_less_exclusions.txt	LTP227	ltpFR	14	8	1	WICK	1607	n/a	n/a	0	n/a	0	0	0	0.422607421875	0.5869140625	0	lower	amplitud.ttf
1948.88	n/a	WORD	974440	wordpools/wasnorm_wordpool_less_exclusions.txt	LTP227	ltpFR	14	8	1	OCTOPUS	971	n/a	n/a	1	n/a	0	0	0	0.422607421875	0.5869140625	0	lower	amplitud.ttf
1952.812	n/a	WORD	976406	wordpools/wasnorm_wordpool_less_exclusions.txt	LTP227	ltpFR	14	8	1	BLUEPRINT	142	n/a	n/a	0	n/a	0	0	0	0.422607421875	0.5869140625	0	lower	amplitud.ttf
1956.996	n/a	WORD	978498	wordpools/wasnorm_wordpool_less_exclusions.txt	LTP227	ltpFR	14	8	1	REPORT	1184	n/a	n/a	0	n/a	0	0	0	0.422607421875	0.5869140625	0	lower	amplitud.ttf
1962.934	n/a	REC_START	981467	n/a	LTP227	ltpFR	14	8	n/a	n/a	n/a	n/a	n/a	n/a	n/a	0	0	0	n/a	n/a	n/a	n/a	n/a
1964.282	n/a	REC_WORD	982141	wordpools/wasnorm_wordpool_less_exclusions.txt	LTP227	ltpFR	14	8	1	KING	777	n/a	n/a	1	n/a	0	0	0	n/a	n/a	n/a	n/a	n/a
1965.468	n/a	REC_WORD	982734	wordpools/wasnorm_wordpool_less_exclusions.txt	LTP227	ltpFR	14	8	1	CROWN	415	n/a	n/a	0	n/a	0	0	0	n/a	n/a	n/a	n/a	n/a
1966.986	n/a	REC_WORD	983493	wordpools/wasnorm_wordpool_less_exclusions.txt	LTP227	ltpFR	14	8	1	BLUEPRINT	142	n/a	n/a	0	n/a	0	0	0	n/a	n/a	n/a	n/a	n/a
1968.6	n/a	REC_WORD	984300	wordpools/wasnorm_wordpool_less_exclusions.txt	LTP227	ltpFR	14	8	1	REPORT	1184	n/a	n/a	0	n/a	0	0	0	n/a	n/a	n/a	n/a	n/a
1979.314	n/a	REC_WORD	989657	wordpools/wasnorm_wordpool_less_exclusions.txt	LTP227	ltpFR	14	8	1	RADISH	1158	n/a	n/a	0	n/a	0	0	0	n/a	n/a	n/a	n/a	n/a
1979.976	n/a	REC_WORD_VV	989988	wordpools/wasnorm_wordpool_less_exclusions.txt	LTP227	ltpFR	14	8	n/a	<>	-1	n/a	n/a	n/a	n/a	0	0	0	n/a	n/a	n/a	n/a	n/a
1980.276	n/a	REC_WORD	990138	wordpools/wasnorm_wordpool_less_exclusions.txt	LTP227	ltpFR	14	8	1	RADISH	1158	n/a	n/a	0	n/a	0	0	0	n/a	n/a	n/a	n/a	n/a
1982.914	n/a	REC_WORD	991457	wordpools/wasnorm_wordpool_less_exclusions.txt	LTP227	ltpFR	14	8	1	WAGON	1578	n/a	n/a	0	n/a	0	0	0	n/a	n/a	n/a	n/a	n/a
1984.296	n/a	REC_WORD	992148	wordpools/wasnorm_wordpool_less_exclusions.txt	LTP227	ltpFR	14	8	1	FEATHER	557	n/a	n/a	0	n/a	0	0	0	n/a	n/a	n/a	n/a	n/a
1985.394	n/a	REC_WORD	992697	wordpools/wasnorm_wordpool_less_exclusions.txt	LTP227	ltpFR	14	8	1	STALLION	1369	n/a	n/a	1	n/a	0	0	0	n/a	n/a	n/a	n/a	n/a
1989.37	n/a	REC_WORD	994685	wordpools/wasnorm_wordpool_less_exclusions.txt	LTP227	ltpFR	14	8	1	MULE	931	n/a	n/a	1	n/a	0	0	0	n/a	n/a	n/a	n/a	n/a
1990.342	n/a	REC_WORD	995171	wordpools/wasnorm_wordpool_less_exclusions.txt	LTP227	ltpFR	14	8	1	DEODORANT	448	n/a	n/a	0	n/a	0	0	0	n/a	n/a	n/a	n/a	n/a
2041.6	n/a	WORD	1020800	wordpools/wasnorm_wordpool_less_exclusions.txt	LTP227	ltpFR	14	9	1	PAN	1008	n/a	n/a	0	n/a	0	0	0	0.422607421875	0.5869140625	0	lower	amplitud.ttf
2045.716	n/a	WORD	1022858	wordpools/wasnorm_wordpool_less_exclusions.txt	LTP227	ltpFR	14	9	1	COP	376	n/a	n/a	1	n/a	0	0	0	0.422607421875	0.5869140625	0	lower	amplitud.ttf
2049.666	n/a	WORD	1024833	wordpools/wasnorm_wordpool_less_exclusions.txt	LTP227	ltpFR	14	9	1	CHIPMUNK	304	n/a	n/a	1	n/a	0	0	0	0.422607421875	0.5869140625	0	lower	amplitud.ttf
2053.814	n/a	WORD	1026907	wordpools/wasnorm_wordpool_less_exclusions.txt	LTP227	ltpFR	14	9	1	JOINT	758	n/a	n/a	0	n/a	0	0	0	0.422607421875	0.5869140625	0	lower	amplitud.ttf
2057.73	n/a	WORD	1028865	wordpools/wasnorm_wordpool_less_exclusions.txt	LTP227	ltpFR	14	9	1	PROTRACTOR	1133	n/a	n/a	0	n/a	0	0	0	0.422607421875	0.5869140625	0	lower	amplitud.ttf
2061.744	n/a	WORD	1030872	wordpools/wasnorm_wordpool_less_exclusions.txt	LTP227	ltpFR	14	9	0	CAFETERIA	217	n/a	n/a	1	n/a	0	0	0	0.57763671875	0.412841796875	1	upper	zerothre.ttf
2065.744	n/a	WORD	1032872	wordpools/wasnorm_wordpool_less_exclusions.txt	LTP227	ltpFR	14	9	0	STEW	1380	n/a	n/a	1	n/a	0	0	0	0.57763671875	0.412841796875	1	upper	zerothre.ttf
2069.756	n/a	WORD	1034878	wordpools/wasnorm_wordpool_less_exclusions.txt	LTP227	ltpFR	14	9	0	BANDIT	81	n/a	n/a	1	n/a	0	0	0	0.57763671875	0.412841796875	1	upper	zerothre.ttf
2073.758	n/a	WORD	1036879	wordpools/wasnorm_wordpool_less_exclusions.txt	LTP227	ltpFR	14	9	0	CROOK	412	n/a	n/a	1	n/a	0	0	0	0.57763671875	0.412841796875	1	upper	zerothre.ttf
2077.69	n/a	WORD	1038845	wordpools/wasnorm_wordpool_less_exclusions.txt	LTP227	ltpFR	14	9	1	BEAVER	109	n/a	n/a	1	n/a	0	0	0	0.422607421875	0.5869140625	0	lower	amplitud.ttf
2081.872	n/a	WORD	1040936	wordpools/wasnorm_wordpool_less_exclusions.txt	LTP227	ltpFR	14	9	1	SHEET	1279	n/a	n/a	0	n/a	0	0	0	0.422607421875	0.5869140625	0	lower	amplitud.ttf
2085.716	n/a	WORD	1042858	wordpools/wasnorm_wordpool_less_exclusions.txt	LTP227	ltpFR	14	9	1	OCEAN	970	n/a	n/a	0	n/a	0	0	0	0.422607421875	0.5869140625	0	lower	amplitud.ttf
2089.77	n/a	WORD	1044885	wordpools/wasnorm_wordpool_less_exclusions.txt	LTP227	ltpFR	14	9	0	CLOCK	325	n/a	n/a	0	n/a	0	0	0	0.57763671875	0.412841796875	1	upper	zerothre.ttf
2093.75	n/a	WORD	1046875	wordpools/wasnorm_wordpool_less_exclusions.txt	LTP227	ltpFR	14	9	0	VELVET	1555	n/a	n/a	1	n/a	0	0	0	0.57763671875	0.412841796875	1	upper	zerothre.ttf
2097.85	n/a	WORD	1048925	wordpools/wasnorm_wordpool_less_exclusions.txt	LTP227	ltpFR	14	9	0	CUSHION	428	n/a	n/a	1	n/a	0	0	0	0.57763671875	0.412841796875	1	upper	zerothre.ttf
2101.882	n/a	WORD	1050941	wordpools/wasnorm_wordpool_less_exclusions.txt	LTP227	ltpFR	14	9	0	COPIER	377	n/a	n/a	1	n/a	0	0	0	0.57763671875	0.412841796875	1	upper	zerothre.ttf
2104.894	n/a	START	1052447	n/a	LTP227	ltpFR	14	n/a	n/a	n/a	n/a	n/a	n/a	n/a	n/a	n/a	n/a	n/a	n/a	n/a	n/a	n/a	n/a
2105.892	n/a	PROB	1052946	n/a	LTP227	ltpFR	14	n/a	n/a	n/a	n/a	n/a	n/a	n/a	15	8	5	2	n/a	n/a	n/a	n/a	n/a
2107.282	n/a	PROB	1053641	n/a	LTP227	ltpFR	14	n/a	n/a	n/a	n/a	n/a	n/a	n/a	5	2	2	1	n/a	n/a	n/a	n/a	n/a
2108.538	n/a	PROB	1054269	n/a	LTP227	ltpFR	14	n/a	n/a	n/a	n/a	n/a	n/a	n/a	15	8	6	1	n/a	n/a	n/a	n/a	n/a
2110.662	n/a	PROB	1055331	n/a	LTP227	ltpFR	14	n/a	n/a	n/a	n/a	n/a	n/a	n/a	20	9	5	6	n/a	n/a	n/a	n/a	n/a
2112.67	n/a	PROB	1056335	n/a	LTP227	ltpFR	14	n/a	n/a	n/a	n/a	n/a	n/a	n/a	18	5	8	5	n/a	n/a	n/a	n/a	n/a
2113.94	n/a	PROB	1056970	n/a	LTP227	ltpFR	14	n/a	n/a	n/a	n/a	n/a	n/a	n/a	13	7	5	1	n/a	n/a	n/a	n/a	n/a
2115.848	n/a	PROB	1057924	n/a	LTP227	ltpFR	14	n/a	n/a	n/a	n/a	n/a	n/a	n/a	16	9	3	4	n/a	n/a	n/a	n/a	n/a
2117.756	n/a	PROB	1058878	n/a	LTP227	ltpFR	14	n/a	n/a	n/a	n/a	n/a	n/a	n/a	14	4	2	8	n/a	n/a	n/a	n/a	n/a
2120.894	n/a	STOP	1060447	n/a	LTP227	ltpFR	14	n/a	n/a	n/a	n/a	n/a	n/a	n/a	n/a	n/a	n/a	n/a	n/a	n/a	n/a	n/a	n/a
2122.762	n/a	REC_START	1061381	n/a	LTP227	ltpFR	14	9	n/a	n/a	n/a	n/a	n/a	n/a	n/a	0	0	0	n/a	n/a	n/a	n/a	n/a
2125.052	n/a	REC_WORD	1062526	wordpools/wasnorm_wordpool_less_exclusions.txt	LTP227	ltpFR	14	9	0	VELVET	1555	n/a	n/a	1	n/a	0	0	0	n/a	n/a	n/a	n/a	n/a
2128.474	n/a	REC_WORD	1064237	wordpools/wasnorm_wordpool_less_exclusions.txt	LTP227	ltpFR	14	9	1	COP	376	n/a	n/a	1	n/a	0	0	0	n/a	n/a	n/a	n/a	n/a
2129.262	n/a	REC_WORD	1064631	wordpools/wasnorm_wordpool_less_exclusions.txt	LTP227	ltpFR	14	9	1	PAN	1008	n/a	n/a	0	n/a	0	0	0	n/a	n/a	n/a	n/a	n/a
2130.17	n/a	REC_WORD	1065085	wordpools/wasnorm_wordpool_less_exclusions.txt	LTP227	ltpFR	14	9	1	CHIPMUNK	304	n/a	n/a	1	n/a	0	0	0	n/a	n/a	n/a	n/a	n/a
2131.462	n/a	REC_WORD	1065731	wordpools/wasnorm_wordpool_less_exclusions.txt	LTP227	ltpFR	14	9	1	BEAVER	109	n/a	n/a	1	n/a	0	0	0	n/a	n/a	n/a	n/a	n/a
2132.476	n/a	REC_WORD	1066238	wordpools/wasnorm_wordpool_less_exclusions.txt	LTP227	ltpFR	14	9	0	CROOK	412	n/a	n/a	1	n/a	0	0	0	n/a	n/a	n/a	n/a	n/a
2133.384	n/a	REC_WORD	1066692	wordpools/wasnorm_wordpool_less_exclusions.txt	LTP227	ltpFR	14	9	0	BANDIT	81	n/a	n/a	1	n/a	0	0	0	n/a	n/a	n/a	n/a	n/a
2167.482	n/a	REC_WORD	1083741	wordpools/wasnorm_wordpool_less_exclusions.txt	LTP227	ltpFR	14	9	0	CAFETERIA	217	n/a	n/a	1	n/a	0	0	0	n/a	n/a	n/a	n/a	n/a
2168.86	n/a	REC_WORD	1084430	wordpools/wasnorm_wordpool_less_exclusions.txt	LTP227	ltpFR	14	9	0	STEW	1380	n/a	n/a	1	n/a	0	0	0	n/a	n/a	n/a	n/a	n/a
2199.638	n/a	START	1099819	n/a	LTP227	ltpFR	14	n/a	n/a	n/a	n/a	n/a	n/a	n/a	n/a	n/a	n/a	n/a	n/a	n/a	n/a	n/a	n/a
2201.144	n/a	PROB	1100572	n/a	LTP227	ltpFR	14	n/a	n/a	n/a	n/a	n/a	n/a	n/a	15	1	8	6	n/a	n/a	n/a	n/a	n/a
2202.628	n/a	PROB	1101314	n/a	LTP227	ltpFR	14	n/a	n/a	n/a	n/a	n/a	n/a	n/a	6	4	1	1	n/a	n/a	n/a	n/a	n/a
2204.436	n/a	PROB	1102218	n/a	LTP227	ltpFR	14	n/a	n/a	n/a	n/a	n/a	n/a	n/a	16	6	2	8	n/a	n/a	n/a	n/a	n/a
2205.946	n/a	PROB	1102973	n/a	LTP227	ltpFR	14	n/a	n/a	n/a	n/a	n/a	n/a	n/a	16	2	7	6	n/a	n/a	n/a	n/a	n/a
2209.292	n/a	PROB	1104646	n/a	LTP227	ltpFR	14	n/a	n/a	n/a	n/a	n/a	n/a	n/a	17	6	2	9	n/a	n/a	n/a	n/a	n/a
2212.5	n/a	PROB	1106250	n/a	LTP227	ltpFR	14	n/a	n/a	n/a	n/a	n/a	n/a	n/a	14	4	7	3	n/a	n/a	n/a	n/a	n/a
2215.638	n/a	STOP	1107819	n/a	LTP227	ltpFR	14	n/a	n/a	n/a	n/a	n/a	n/a	n/a	n/a	n/a	n/a	n/a	n/a	n/a	n/a	n/a	n/a
2216.536	n/a	WORD	1108268	wordpools/wasnorm_wordpool_less_exclusions.txt	LTP227	ltpFR	14	10	0	VEHICLE	1553	n/a	n/a	1	n/a	0	0	0	0.57763671875	0.412841796875	1	upper	zerothre.ttf
2219.55	n/a	START	1109775	n/a	LTP227	ltpFR	14	n/a	n/a	n/a	n/a	n/a	n/a	n/a	n/a	n/a	n/a	n/a	n/a	n/a	n/a	n/a	n/a
2220.736	n/a	PROB	1110368	n/a	LTP227	ltpFR	14	n/a	n/a	n/a	n/a	n/a	n/a	n/a	5	2	1	2	n/a	n/a	n/a	n/a	n/a
2222.256	n/a	PROB	1111128	n/a	LTP227	ltpFR	14	n/a	n/a	n/a	n/a	n/a	n/a	n/a	16	4	7	5	n/a	n/a	n/a	n/a	n/a
2223.81	n/a	PROB	1111905	n/a	LTP227	ltpFR	14	n/a	n/a	n/a	n/a	n/a	n/a	n/a	18	4	5	9	n/a	n/a	n/a	n/a	n/a
2225.868	n/a	PROB	1112934	n/a	LTP227	ltpFR	14	n/a	n/a	n/a	n/a	n/a	n/a	n/a	16	2	6	8	n/a	n/a	n/a	n/a	n/a
2227.592	n/a	PROB	1113796	n/a	LTP227	ltpFR	14	n/a	n/a	n/a	n/a	n/a	n/a	n/a	7	2	1	4	n/a	n/a	n/a	n/a	n/a
2230.574	n/a	PROB	1115287	n/a	LTP227	ltpFR	14	n/a	n/a	n/a	n/a	n/a	n/a	n/a	16	9	1	6	n/a	n/a	n/a	n/a	n/a
2232.012	n/a	PROB	1116006	n/a	LTP227	ltpFR	14	n/a	n/a	n/a	n/a	n/a	n/a	n/a	8	4	1	3	n/a	n/a	n/a	n/a	n/a
2235.548	n/a	STOP	1117774	n/a	LTP227	ltpFR	14	n/a	n/a	n/a	n/a	n/a	n/a	n/a	n/a	n/a	n/a	n/a	n/a	n/a	n/a	n/a	n/a
2236.462	n/a	WORD	1118231	wordpools/wasnorm_wordpool_less_exclusions.txt	LTP227	ltpFR	14	10	0	SCREW	1254	n/a	n/a	0	n/a	0	0	0	0.57763671875	0.412841796875	1	upper	zerothre.ttf
2239.476	n/a	START	1119738	n/a	LTP227	ltpFR	14	n/a	n/a	n/a	n/a	n/a	n/a	n/a	n/a	n/a	n/a	n/a	n/a	n/a	n/a	n/a	n/a
2240.662	n/a	PROB	1120331	n/a	LTP227	ltpFR	14	n/a	n/a	n/a	n/a	n/a	n/a	n/a	10	8	1	1	n/a	n/a	n/a	n/a	n/a
2241.93	n/a	PROB	1120965	n/a	LTP227	ltpFR	14	n/a	n/a	n/a	n/a	n/a	n/a	n/a	18	7	3	8	n/a	n/a	n/a	n/a	n/a
2243.268	n/a	PROB	1121634	n/a	LTP227	ltpFR	14	n/a	n/a	n/a	n/a	n/a	n/a	n/a	17	3	7	7	n/a	n/a	n/a	n/a	n/a
2244.762	n/a	PROB	1122381	n/a	LTP227	ltpFR	14	n/a	n/a	n/a	n/a	n/a	n/a	n/a	16	5	2	9	n/a	n/a	n/a	n/a	n/a
2246.682	n/a	PROB	1123341	n/a	LTP227	ltpFR	14	n/a	n/a	n/a	n/a	n/a	n/a	n/a	13	3	3	8	n/a	n/a	n/a	n/a	n/a
2248.672	n/a	PROB	1124336	n/a	LTP227	ltpFR	14	n/a	n/a	n/a	n/a	n/a	n/a	n/a	13	5	4	4	n/a	n/a	n/a	n/a	n/a
2252.67	n/a	PROB	1126335	n/a	LTP227	ltpFR	14	n/a	n/a	n/a	n/a	n/a	n/a	n/a	13	8	2	3	n/a	n/a	n/a	n/a	n/a
2255.218	n/a	STOP	1127609	n/a	LTP227	ltpFR	14	n/a	n/a	n/a	n/a	n/a	n/a	n/a	n/a	n/a	n/a	n/a	n/a	n/a	n/a	n/a	n/a
2256.354	n/a	WORD	1128177	wordpools/wasnorm_wordpool_less_exclusions.txt	LTP227	ltpFR	14	10	0	OFFICE	972	n/a	n/a	1	n/a	0	0	0	0.57763671875	0.412841796875	1	upper	zerothre.ttf
2259.368	n/a	START	1129684	n/a	LTP227	ltpFR	14	n/a	n/a	n/a	n/a	n/a	n/a	n/a	n/a	n/a	n/a	n/a	n/a	n/a	n/a	n/a	n/a
2260.304	n/a	PROB	1130152	n/a	LTP227	ltpFR	14	n/a	n/a	n/a	n/a	n/a	n/a	n/a	14	2	8	4	n/a	n/a	n/a	n/a	n/a
2261.572	n/a	PROB	1130786	n/a	LTP227	ltpFR	14	n/a	n/a	n/a	n/a	n/a	n/a	n/a	17	7	5	5	n/a	n/a	n/a	n/a	n/a
2262.96	n/a	PROB	1131480	n/a	LTP227	ltpFR	14	n/a	n/a	n/a	n/a	n/a	n/a	n/a	13	5	7	1	n/a	n/a	n/a	n/a	n/a
2265.854	n/a	PROB	1132927	n/a	LTP227	ltpFR	14	n/a	n/a	n/a	n/a	n/a	n/a	n/a	23	9	9	5	n/a	n/a	n/a	n/a	n/a
2268.518	n/a	PROB	1134259	n/a	LTP227	ltpFR	14	n/a	n/a	n/a	n/a	n/a	n/a	n/a	22	6	8	8	n/a	n/a	n/a	n/a	n/a
2270.538	n/a	PROB	1135269	n/a	LTP227	ltpFR	14	n/a	n/a	n/a	n/a	n/a	n/a	n/a	12	6	3	3	n/a	n/a	n/a	n/a	n/a
2275.368	n/a	STOP	1137684	n/a	LTP227	ltpFR	14	n/a	n/a	n/a	n/a	n/a	n/a	n/a	n/a	n/a	n/a	n/a	n/a	n/a	n/a	n/a	n/a
2276.516	n/a	WORD	1138258	wordpools/wasnorm_wordpool_less_exclusions.txt	LTP227	ltpFR	14	10	0	PAPER	1011	n/a	n/a	0	n/a	0	0	0	0.57763671875	0.412841796875	1	upper	zerothre.ttf
2279.528	n/a	START	1139764	n/a	LTP227	ltpFR	14	n/a	n/a	n/a	n/a	n/a	n/a	n/a	n/a	n/a	n/a	n/a	n/a	n/a	n/a	n/a	n/a
2280.448	n/a	PROB	1140224	n/a	LTP227	ltpFR	14	n/a	n/a	n/a	n/a	n/a	n/a	n/a	11	5	3	3	n/a	n/a	n/a	n/a	n/a
2282.352	n/a	PROB	1141176	n/a	LTP227	ltpFR	14	n/a	n/a	n/a	n/a	n/a	n/a	n/a	8	1	6	1	n/a	n/a	n/a	n/a	n/a
2283.856	n/a	PROB	1141928	n/a	LTP227	ltpFR	14	n/a	n/a	n/a	n/a	n/a	n/a	n/a	17	2	7	8	n/a	n/a	n/a	n/a	n/a
2286.25	n/a	PROB	1143125	n/a	LTP227	ltpFR	14	n/a	n/a	n/a	n/a	n/a	n/a	n/a	17	1	7	9	n/a	n/a	n/a	n/a	n/a
2288.006	n/a	PROB	1144003	n/a	LTP227	ltpFR	14	n/a	n/a	n/a	n/a	n/a	n/a	n/a	20	2	9	9	n/a	n/a	n/a	n/a	n/a
2289.678	n/a	PROB	1144839	n/a	LTP227	ltpFR	14	n/a	n/a	n/a	n/a	n/a	n/a	n/a	18	5	7	6	n/a	n/a	n/a	n/a	n/a
2292.44	n/a	PROB	1146220	n/a	LTP227	ltpFR	14	n/a	n/a	n/a	n/a	n/a	n/a	n/a	16	8	7	1	n/a	n/a	n/a	n/a	n/a
2294.228	n/a	STOP	1147114	n/a	LTP227	ltpFR	14	n/a	n/a	n/a	n/a	n/a	n/a	n/a	n/a	n/a	n/a	n/a	n/a	n/a	n/a	n/a	n/a
2296.74	n/a	WORD	1148370	wordpools/wasnorm_wordpool_less_exclusions.txt	LTP227	ltpFR	14	10	0	SADDLE	1221	n/a	n/a	1	n/a	0	0	0	0.57763671875	0.412841796875	1	upper	zerothre.ttf
2299.756	n/a	START	1149878	n/a	LTP227	ltpFR	14	n/a	n/a	n/a	n/a	n/a	n/a	n/a	n/a	n/a	n/a	n/a	n/a	n/a	n/a	n/a	n/a
2300.942	n/a	PROB	1150471	n/a	LTP227	ltpFR	14	n/a	n/a	n/a	n/a	n/a	n/a	n/a	15	9	4	2	n/a	n/a	n/a	n/a	n/a
2302.598	n/a	PROB	1151299	n/a	LTP227	ltpFR	14	n/a	n/a	n/a	n/a	n/a	n/a	n/a	13	8	4	1	n/a	n/a	n/a	n/a	n/a
2304.958	n/a	PROB	1152479	n/a	LTP227	ltpFR	14	n/a	n/a	n/a	n/a	n/a	n/a	n/a	8	3	2	3	n/a	n/a	n/a	n/a	n/a
2308.234	n/a	PROB	1154117	n/a	LTP227	ltpFR	14	n/a	n/a	n/a	n/a	n/a	n/a	n/a	12	7	4	1	n/a	n/a	n/a	n/a	n/a
2313.068	n/a	PROB	1156534	n/a	LTP227	ltpFR	14	n/a	n/a	n/a	n/a	n/a	n/a	n/a	20	8	6	6	n/a	n/a	n/a	n/a	n/a
2314.878	n/a	STOP	1157439	n/a	LTP227	ltpFR	14	n/a	n/a	n/a	n/a	n/a	n/a	n/a	n/a	n/a	n/a	n/a	n/a	n/a	n/a	n/a	n/a
2316.686	n/a	WORD	1158343	wordpools/wasnorm_wordpool_less_exclusions.txt	LTP227	ltpFR	14	10	0	SICKLE	1302	n/a	n/a	1	n/a	0	0	0	0.57763671875	0.412841796875	1	upper	zerothre.ttf
2319.698	n/a	START	1159849	n/a	LTP227	ltpFR	14	n/a	n/a	n/a	n/a	n/a	n/a	n/a	n/a	n/a	n/a	n/a	n/a	n/a	n/a	n/a	n/a
2320.55	n/a	PROB	1160275	n/a	LTP227	ltpFR	14	n/a	n/a	n/a	n/a	n/a	n/a	n/a	9	1	1	7	n/a	n/a	n/a	n/a	n/a
2322.136	n/a	PROB	1161068	n/a	LTP227	ltpFR	14	n/a	n/a	n/a	n/a	n/a	n/a	n/a	18	8	1	9	n/a	n/a	n/a	n/a	n/a
2323.76	n/a	PROB	1161880	n/a	LTP227	ltpFR	14	n/a	n/a	n/a	n/a	n/a	n/a	n/a	17	6	3	8	n/a	n/a	n/a	n/a	n/a
2326.134	n/a	PROB	1163067	n/a	LTP227	ltpFR	14	n/a	n/a	n/a	n/a	n/a	n/a	n/a	21	7	6	9	n/a	n/a	n/a	n/a	n/a
2330.25	n/a	PROB	1165125	n/a	LTP227	ltpFR	14	n/a	n/a	n/a	n/a	n/a	n/a	n/a	10	3	6	1	n/a	n/a	n/a	n/a	n/a
2332.442	n/a	PROB	1166221	n/a	LTP227	ltpFR	14	n/a	n/a	n/a	n/a	n/a	n/a	n/a	16	1	6	9	n/a	n/a	n/a	n/a	n/a
2335.7	n/a	STOP	1167850	n/a	LTP227	ltpFR	14	n/a	n/a	n/a	n/a	n/a	n/a	n/a	n/a	n/a	n/a	n/a	n/a	n/a	n/a	n/a	n/a
2336.612	n/a	WORD	1168306	wordpools/wasnorm_wordpool_less_exclusions.txt	LTP227	ltpFR	14	10	0	VAN	1548	n/a	n/a	1	n/a	0	0	0	0.57763671875	0.412841796875	1	upper	zerothre.ttf
2339.624	n/a	START	1169812	n/a	LTP227	ltpFR	14	n/a	n/a	n/a	n/a	n/a	n/a	n/a	n/a	n/a	n/a	n/a	n/a	n/a	n/a	n/a	n/a
2340.622	n/a	PROB	1170311	n/a	LTP227	ltpFR	14	n/a	n/a	n/a	n/a	n/a	n/a	n/a	15	3	3	9	n/a	n/a	n/a	n/a	n/a
2342.45	n/a	PROB	1171225	n/a	LTP227	ltpFR	14	n/a	n/a	n/a	n/a	n/a	n/a	n/a	12	5	2	5	n/a	n/a	n/a	n/a	n/a
2343.718	n/a	PROB	1171859	n/a	LTP227	ltpFR	14	n/a	n/a	n/a	n/a	n/a	n/a	n/a	16	9	2	5	n/a	n/a	n/a	n/a	n/a
2345.978	n/a	PROB	1172989	n/a	LTP227	ltpFR	14	n/a	n/a	n/a	n/a	n/a	n/a	n/a	9	1	6	2	n/a	n/a	n/a	n/a	n/a
2348.068	n/a	PROB	1174034	n/a	LTP227	ltpFR	14	n/a	n/a	n/a	n/a	n/a	n/a	n/a	19	6	9	4	n/a	n/a	n/a	n/a	n/a
2349.958	n/a	PROB	1174979	n/a	LTP227	ltpFR	14	n/a	n/a	n/a	n/a	n/a	n/a	n/a	12	6	1	5	n/a	n/a	n/a	n/a	n/a
2351.682	n/a	PROB	1175841	n/a	LTP227	ltpFR	14	n/a	n/a	n/a	n/a	n/a	n/a	n/a	11	1	9	1	n/a	n/a	n/a	n/a	n/a
2352.988	n/a	PROB	1176494	n/a	LTP227	ltpFR	14	n/a	n/a	n/a	n/a	n/a	n/a	n/a	14	2	8	4	n/a	n/a	n/a	n/a	n/a
2354.112	n/a	STOP	1177056	n/a	LTP227	ltpFR	14	n/a	n/a	n/a	n/a	n/a	n/a	n/a	n/a	n/a	n/a	n/a	n/a	n/a	n/a	n/a	n/a
2356.822	n/a	WORD	1178411	wordpools/wasnorm_wordpool_less_exclusions.txt	LTP227	ltpFR	14	10	0	APE	31	n/a	n/a	1	n/a	0	0	0	0.57763671875	0.412841796875	1	upper	zerothre.ttf
2359.834	n/a	START	1179917	n/a	LTP227	ltpFR	14	n/a	n/a	n/a	n/a	n/a	n/a	n/a	n/a	n/a	n/a	n/a	n/a	n/a	n/a	n/a	n/a
2360.968	n/a	PROB	1180484	n/a	LTP227	ltpFR	14	n/a	n/a	n/a	n/a	n/a	n/a	n/a	22	6	8	8	n/a	n/a	n/a	n/a	n/a
2362.64	n/a	PROB	1181320	n/a	LTP227	ltpFR	14	n/a	n/a	n/a	n/a	n/a	n/a	n/a	9	3	2	4	n/a	n/a	n/a	n/a	n/a
2364.23	n/a	PROB	1182115	n/a	LTP227	ltpFR	14	n/a	n/a	n/a	n/a	n/a	n/a	n/a	13	2	7	4	n/a	n/a	n/a	n/a	n/a
2366.342	n/a	PROB	1183171	n/a	LTP227	ltpFR	14	n/a	n/a	n/a	n/a	n/a	n/a	n/a	16	8	2	6	n/a	n/a	n/a	n/a	n/a
2367.546	n/a	PROB	1183773	n/a	LTP227	ltpFR	14	n/a	n/a	n/a	n/a	n/a	n/a	n/a	15	7	5	3	n/a	n/a	n/a	n/a	n/a
2369.2	n/a	PROB	1184600	n/a	LTP227	ltpFR	14	n/a	n/a	n/a	n/a	n/a	n/a	n/a	25	8	8	9	n/a	n/a	n/a	n/a	n/a
2371.044	n/a	PROB	1185522	n/a	LTP227	ltpFR	14	n/a	n/a	n/a	n/a	n/a	n/a	n/a	23	9	9	6	n/a	n/a	n/a	n/a	n/a
2374.84	n/a	STOP	1187420	n/a	LTP227	ltpFR	14	n/a	n/a	n/a	n/a	n/a	n/a	n/a	n/a	n/a	n/a	n/a	n/a	n/a	n/a	n/a	n/a
2376.732	n/a	WORD	1188366	wordpools/wasnorm_wordpool_less_exclusions.txt	LTP227	ltpFR	14	10	0	BASKET	95	n/a	n/a	1	n/a	0	0	0	0.57763671875	0.412841796875	1	upper	zerothre.ttf
2379.744	n/a	START	1189872	n/a	LTP227	ltpFR	14	n/a	n/a	n/a	n/a	n/a	n/a	n/a	n/a	n/a	n/a	n/a	n/a	n/a	n/a	n/a	n/a
2380.898	n/a	PROB	1190449	n/a	LTP227	ltpFR	14	n/a	n/a	n/a	n/a	n/a	n/a	n/a	16	5	5	6	n/a	n/a	n/a	n/a	n/a
2382.082	n/a	PROB	1191041	n/a	LTP227	ltpFR	14	n/a	n/a	n/a	n/a	n/a	n/a	n/a	23	8	9	6	n/a	n/a	n/a	n/a	n/a
2384.44	n/a	PROB	1192220	n/a	LTP227	ltpFR	14	n/a	n/a	n/a	n/a	n/a	n/a	n/a	11	7	3	1	n/a	n/a	n/a	n/a	n/a
2385.75	n/a	PROB	1192875	n/a	LTP227	ltpFR	14	n/a	n/a	n/a	n/a	n/a	n/a	n/a	8	3	3	2	n/a	n/a	n/a	n/a	n/a
2387.486	n/a	PROB	1193743	n/a	LTP227	ltpFR	14	n/a	n/a	n/a	n/a	n/a	n/a	n/a	6	2	1	3	n/a	n/a	n/a	n/a	n/a
2389.748	n/a	PROB	1194874	n/a	LTP227	ltpFR	14	n/a	n/a	n/a	n/a	n/a	n/a	n/a	18	8	7	4	n/a	n/a	n/a	n/a	n/a
2392.86	n/a	PROB	1196430	n/a	LTP227	ltpFR	14	n/a	n/a	n/a	n/a	n/a	n/a	n/a	17	6	4	7	n/a	n/a	n/a	n/a	n/a
2394.266	n/a	STOP	1197133	n/a	LTP227	ltpFR	14	n/a	n/a	n/a	n/a	n/a	n/a	n/a	n/a	n/a	n/a	n/a	n/a	n/a	n/a	n/a	n/a
2396.676	n/a	WORD	1198338	wordpools/wasnorm_wordpool_less_exclusions.txt	LTP227	ltpFR	14	10	0	BUTTERFLY	206	n/a	n/a	0	n/a	0	0	0	0.57763671875	0.412841796875	1	upper	zerothre.ttf
2399.686	n/a	START	1199843	n/a	LTP227	ltpFR	14	n/a	n/a	n/a	n/a	n/a	n/a	n/a	n/a	n/a	n/a	n/a	n/a	n/a	n/a	n/a	n/a
2400.638	n/a	PROB	1200319	n/a	LTP227	ltpFR	14	n/a	n/a	n/a	n/a	n/a	n/a	n/a	21	9	4	8	n/a	n/a	n/a	n/a	n/a
2404.066	n/a	PROB	1202033	n/a	LTP227	ltpFR	14	n/a	n/a	n/a	n/a	n/a	n/a	n/a	17	1	8	8	n/a	n/a	n/a	n/a	n/a
2405.94	n/a	PROB	1202970	n/a	LTP227	ltpFR	14	n/a	n/a	n/a	n/a	n/a	n/a	n/a	25	8	8	9	n/a	n/a	n/a	n/a	n/a
2408.264	n/a	PROB	1204132	n/a	LTP227	ltpFR	14	n/a	n/a	n/a	n/a	n/a	n/a	n/a	12	4	4	6	n/a	n/a	n/a	n/a	n/a
2411.278	n/a	PROB	1205639	n/a	LTP227	ltpFR	14	n/a	n/a	n/a	n/a	n/a	n/a	n/a	9	6	2	1	n/a	n/a	n/a	n/a	n/a
2413.556	n/a	PROB	1206778	n/a	LTP227	ltpFR	14	n/a	n/a	n/a	n/a	n/a	n/a	n/a	16	8	2	6	n/a	n/a	n/a	n/a	n/a
2414.89	n/a	STOP	1207445	n/a	LTP227	ltpFR	14	n/a	n/a	n/a	n/a	n/a	n/a	n/a	n/a	n/a	n/a	n/a	n/a	n/a	n/a	n/a	n/a
2416.748	n/a	WORD	1208374	wordpools/wasnorm_wordpool_less_exclusions.txt	LTP227	ltpFR	14	10	0	TERMITE	1451	n/a	n/a	0	n/a	0	0	0	0.57763671875	0.412841796875	1	upper	zerothre.ttf
2419.764	n/a	START	1209882	n/a	LTP227	ltpFR	14	n/a	n/a	n/a	n/a	n/a	n/a	n/a	n/a	n/a	n/a	n/a	n/a	n/a	n/a	n/a	n/a
2420.628	n/a	PROB	1210314	n/a	LTP227	ltpFR	14	n/a	n/a	n/a	n/a	n/a	n/a	n/a	18	2	9	7	n/a	n/a	n/a	n/a	n/a
2423.126	n/a	PROB	1211563	n/a	LTP227	ltpFR	14	n/a	n/a	n/a	n/a	n/a	n/a	n/a	17	3	6	8	n/a	n/a	n/a	n/a	n/a
2424.896	n/a	PROB	1212448	n/a	LTP227	ltpFR	14	n/a	n/a	n/a	n/a	n/a	n/a	n/a	16	8	6	2	n/a	n/a	n/a	n/a	n/a
2428.008	n/a	PROB	1214004	n/a	LTP227	ltpFR	14	n/a	n/a	n/a	n/a	n/a	n/a	n/a	15	4	9	2	n/a	n/a	n/a	n/a	n/a
2430.102	n/a	PROB	1215051	n/a	LTP227	ltpFR	14	n/a	n/a	n/a	n/a	n/a	n/a	n/a	18	6	6	6	n/a	n/a	n/a	n/a	n/a
2432.608	n/a	PROB	1216304	n/a	LTP227	ltpFR	14	n/a	n/a	n/a	n/a	n/a	n/a	n/a	11	2	6	3	n/a	n/a	n/a	n/a	n/a
2435.116	n/a	STOP	1217558	n/a	LTP227	ltpFR	14	n/a	n/a	n/a	n/a	n/a	n/a	n/a	n/a	n/a	n/a	n/a	n/a	n/a	n/a	n/a	n/a
2436.762	n/a	WORD	1218381	wordpools/wasnorm_wordpool_less_exclusions.txt	LTP227	ltpFR	14	10	0	GREASE	660	n/a	n/a	0	n/a	0	0	0	0.57763671875	0.412841796875	1	upper	zerothre.ttf
2439.774	n/a	START	1219887	n/a	LTP227	ltpFR	14	n/a	n/a	n/a	n/a	n/a	n/a	n/a	n/a	n/a	n/a	n/a	n/a	n/a	n/a	n/a	n/a
2440.76	n/a	PROB	1220380	n/a	LTP227	ltpFR	14	n/a	n/a	n/a	n/a	n/a	n/a	n/a	5	2	1	2	n/a	n/a	n/a	n/a	n/a
2442.332	n/a	PROB	1221166	n/a	LTP227	ltpFR	14	n/a	n/a	n/a	n/a	n/a	n/a	n/a	12	8	1	3	n/a	n/a	n/a	n/a	n/a
2445.478	n/a	PROB	1222739	n/a	LTP227	ltpFR	14	n/a	n/a	n/a	n/a	n/a	n/a	n/a	17	5	5	7	n/a	n/a	n/a	n/a	n/a
2446.628	n/a	PROB	1223314	n/a	LTP227	ltpFR	14	n/a	n/a	n/a	n/a	n/a	n/a	n/a	8	1	4	3	n/a	n/a	n/a	n/a	n/a
2447.984	n/a	PROB	1223992	n/a	LTP227	ltpFR	14	n/a	n/a	n/a	n/a	n/a	n/a	n/a	6	2	1	3	n/a	n/a	n/a	n/a	n/a
2449.376	n/a	PROB	1224688	n/a	LTP227	ltpFR	14	n/a	n/a	n/a	n/a	n/a	n/a	n/a	17	8	2	7	n/a	n/a	n/a	n/a	n/a
2450.528	n/a	PROB	1225264	n/a	LTP227	ltpFR	14	n/a	n/a	n/a	n/a	n/a	n/a	n/a	14	6	2	6	n/a	n/a	n/a	n/a	n/a
2454.34	n/a	STOP	1227170	n/a	LTP227	ltpFR	14	n/a	n/a	n/a	n/a	n/a	n/a	n/a	n/a	n/a	n/a	n/a	n/a	n/a	n/a	n/a	n/a
2456.62	n/a	WORD	1228310	wordpools/wasnorm_wordpool_less_exclusions.txt	LTP227	ltpFR	14	10	0	DIAMOND	458	n/a	n/a	n/a	n/a	0	0	0	0.57763671875	0.412841796875	1	upper	zerothre.ttf
2459.666	n/a	SLOW_MSG	1229833	n/a	LTP227	ltpFR	14	10	n/a	n/a	n/a	n/a	n/a	n/a	n/a	0	0	0	n/a	n/a	n/a	n/a	n/a
2461.188	n/a	START	1230594	n/a	LTP227	ltpFR	14	n/a	n/a	n/a	n/a	n/a	n/a	n/a	n/a	n/a	n/a	n/a	n/a	n/a	n/a	n/a	n/a
2462.358	n/a	PROB	1231179	n/a	LTP227	ltpFR	14	n/a	n/a	n/a	n/a	n/a	n/a	n/a	16	8	6	2	n/a	n/a	n/a	n/a	n/a
2464.614	n/a	PROB	1232307	n/a	LTP227	ltpFR	14	n/a	n/a	n/a	n/a	n/a	n/a	n/a	16	4	4	8	n/a	n/a	n/a	n/a	n/a
2466.17	n/a	PROB	1233085	n/a	LTP227	ltpFR	14	n/a	n/a	n/a	n/a	n/a	n/a	n/a	24	8	8	8	n/a	n/a	n/a	n/a	n/a
2467.994	n/a	PROB	1233997	n/a	LTP227	ltpFR	14	n/a	n/a	n/a	n/a	n/a	n/a	n/a	23	8	9	5	n/a	n/a	n/a	n/a	n/a
2472.176	n/a	PROB	1236088	n/a	LTP227	ltpFR	14	n/a	n/a	n/a	n/a	n/a	n/a	n/a	11	8	1	2	n/a	n/a	n/a	n/a	n/a
2474.302	n/a	PROB	1237151	n/a	LTP227	ltpFR	14	n/a	n/a	n/a	n/a	n/a	n/a	n/a	16	7	3	6	n/a	n/a	n/a	n/a	n/a
2475.488	n/a	PROB	1237744	n/a	LTP227	ltpFR	14	n/a	n/a	n/a	n/a	n/a	n/a	n/a	12	7	3	2	n/a	n/a	n/a	n/a	n/a
2476.598	n/a	STOP	1238299	n/a	LTP227	ltpFR	14	n/a	n/a	n/a	n/a	n/a	n/a	n/a	n/a	n/a	n/a	n/a	n/a	n/a	n/a	n/a	n/a
2478.12	n/a	WORD	1239060	wordpools/wasnorm_wordpool_less_exclusions.txt	LTP227	ltpFR	14	10	0	BRACELET	163	n/a	n/a	0	n/a	0	0	0	0.57763671875	0.412841796875	1	upper	zerothre.ttf
2481.132	n/a	START	1240566	n/a	LTP227	ltpFR	14	n/a	n/a	n/a	n/a	n/a	n/a	n/a	n/a	n/a	n/a	n/a	n/a	n/a	n/a	n/a	n/a
2482.268	n/a	PROB	1241134	n/a	LTP227	ltpFR	14	n/a	n/a	n/a	n/a	n/a	n/a	n/a	11	1	6	4	n/a	n/a	n/a	n/a	n/a
2483.82	n/a	PROB	1241910	n/a	LTP227	ltpFR	14	n/a	n/a	n/a	n/a	n/a	n/a	n/a	22	7	8	7	n/a	n/a	n/a	n/a	n/a
2485.644	n/a	PROB	1242822	n/a	LTP227	ltpFR	14	n/a	n/a	n/a	n/a	n/a	n/a	n/a	16	5	2	9	n/a	n/a	n/a	n/a	n/a
2488.74	n/a	PROB	1244370	n/a	LTP227	ltpFR	14	n/a	n/a	n/a	n/a	n/a	n/a	n/a	20	8	9	3	n/a	n/a	n/a	n/a	n/a
2491.354	n/a	PROB	1245677	n/a	LTP227	ltpFR	14	n/a	n/a	n/a	n/a	n/a	n/a	n/a	17	8	5	4	n/a	n/a	n/a	n/a	n/a
2494.194	n/a	PROB	1247097	n/a	LTP227	ltpFR	14	n/a	n/a	n/a	n/a	n/a	n/a	n/a	8	2	1	5	n/a	n/a	n/a	n/a	n/a
2496.222	n/a	STOP	1248111	n/a	LTP227	ltpFR	14	n/a	n/a	n/a	n/a	n/a	n/a	n/a	n/a	n/a	n/a	n/a	n/a	n/a	n/a	n/a	n/a
2498.128	n/a	WORD	1249064	wordpools/wasnorm_wordpool_less_exclusions.txt	LTP227	ltpFR	14	10	0	OPERA	978	n/a	n/a	1	n/a	0	0	0	0.57763671875	0.412841796875	1	upper	zerothre.ttf
2501.14	n/a	START	1250570	n/a	LTP227	ltpFR	14	n/a	n/a	n/a	n/a	n/a	n/a	n/a	n/a	n/a	n/a	n/a	n/a	n/a	n/a	n/a	n/a
2502.178	n/a	PROB	1251089	n/a	LTP227	ltpFR	14	n/a	n/a	n/a	n/a	n/a	n/a	n/a	15	3	9	3	n/a	n/a	n/a	n/a	n/a
2504.6	n/a	PROB	1252300	n/a	LTP227	ltpFR	14	n/a	n/a	n/a	n/a	n/a	n/a	n/a	13	1	6	6	n/a	n/a	n/a	n/a	n/a
2506.14	n/a	PROB	1253070	n/a	LTP227	ltpFR	14	n/a	n/a	n/a	n/a	n/a	n/a	n/a	10	1	3	6	n/a	n/a	n/a	n/a	n/a
2507.916	n/a	PROB	1253958	n/a	LTP227	ltpFR	14	n/a	n/a	n/a	n/a	n/a	n/a	n/a	9	5	3	1	n/a	n/a	n/a	n/a	n/a
2509.89	n/a	PROB	1254945	n/a	LTP227	ltpFR	14	n/a	n/a	n/a	n/a	n/a	n/a	n/a	16	2	7	7	n/a	n/a	n/a	n/a	n/a
2511.444	n/a	PROB	1255722	n/a	LTP227	ltpFR	14	n/a	n/a	n/a	n/a	n/a	n/a	n/a	13	3	3	7	n/a	n/a	n/a	n/a	n/a
2513.032	n/a	PROB	1256516	n/a	LTP227	ltpFR	14	n/a	n/a	n/a	n/a	n/a	n/a	n/a	20	8	7	5	n/a	n/a	n/a	n/a	n/a
2514.922	n/a	PROB	1257461	n/a	LTP227	ltpFR	14	n/a	n/a	n/a	n/a	n/a	n/a	n/a	17	4	6	7	n/a	n/a	n/a	n/a	n/a
2516.232	n/a	STOP	1258116	n/a	LTP227	ltpFR	14	n/a	n/a	n/a	n/a	n/a	n/a	n/a	n/a	n/a	n/a	n/a	n/a	n/a	n/a	n/a	n/a
2518.038	n/a	WORD	1259019	wordpools/wasnorm_wordpool_less_exclusions.txt	LTP227	ltpFR	14	10	0	VAGRANT	1544	n/a	n/a	1	n/a	0	0	0	0.57763671875	0.412841796875	1	upper	zerothre.ttf
2521.05	n/a	START	1260525	n/a	LTP227	ltpFR	14	n/a	n/a	n/a	n/a	n/a	n/a	n/a	n/a	n/a	n/a	n/a	n/a	n/a	n/a	n/a	n/a
2522.154	n/a	PROB	1261077	n/a	LTP227	ltpFR	14	n/a	n/a	n/a	n/a	n/a	n/a	n/a	10	5	3	2	n/a	n/a	n/a	n/a	n/a
2524.142	n/a	PROB	1262071	n/a	LTP227	ltpFR	14	n/a	n/a	n/a	n/a	n/a	n/a	n/a	10	3	3	4	n/a	n/a	n/a	n/a	n/a
2525.866	n/a	PROB	1262933	n/a	LTP227	ltpFR	14	n/a	n/a	n/a	n/a	n/a	n/a	n/a	25	8	8	9	n/a	n/a	n/a	n/a	n/a
2527.554	n/a	PROB	1263777	n/a	LTP227	ltpFR	14	n/a	n/a	n/a	n/a	n/a	n/a	n/a	16	7	2	7	n/a	n/a	n/a	n/a	n/a
2529.58	n/a	PROB	1264790	n/a	LTP227	ltpFR	14	n/a	n/a	n/a	n/a	n/a	n/a	n/a	20	8	9	3	n/a	n/a	n/a	n/a	n/a
2532.812	n/a	PROB	1266406	n/a	LTP227	ltpFR	14	n/a	n/a	n/a	n/a	n/a	n/a	n/a	9	4	2	3	n/a	n/a	n/a	n/a	n/a
2534.564	n/a	PROB	1267282	n/a	LTP227	ltpFR	14	n/a	n/a	n/a	n/a	n/a	n/a	n/a	20	6	7	5	n/a	n/a	n/a	n/a	n/a
2536.656	n/a	STOP	1268328	n/a	LTP227	ltpFR	14	n/a	n/a	n/a	n/a	n/a	n/a	n/a	n/a	n/a	n/a	n/a	n/a	n/a	n/a	n/a	n/a
2538.948	n/a	REC_START	1269474	n/a	LTP227	ltpFR	14	10	n/a	n/a	n/a	n/a	n/a	n/a	n/a	0	0	0	n/a	n/a	n/a	n/a	n/a
2542.112	n/a	REC_WORD	1271056	wordpools/wasnorm_wordpool_less_exclusions.txt	LTP227	ltpFR	14	10	0	VEHICLE	1553	n/a	n/a	1	n/a	0	0	0	n/a	n/a	n/a	n/a	n/a
2542.964	n/a	REC_WORD	1271482	wordpools/wasnorm_wordpool_less_exclusions.txt	LTP227	ltpFR	14	10	0	SCREW	1254	n/a	n/a	0	n/a	0	0	0	n/a	n/a	n/a	n/a	n/a
2544.018	n/a	REC_WORD	1272009	wordpools/wasnorm_wordpool_less_exclusions.txt	LTP227	ltpFR	14	10	0	VAGRANT	1544	n/a	n/a	1	n/a	0	0	0	n/a	n/a	n/a	n/a	n/a
2551.844	n/a	REC_WORD	1275922	wordpools/wasnorm_wordpool_less_exclusions.txt	LTP227	ltpFR	14	10	0	BUTTERFLY	206	n/a	n/a	0	n/a	0	0	0	n/a	n/a	n/a	n/a	n/a
2561.788	n/a	REC_WORD	1280894	wordpools/wasnorm_wordpool_less_exclusions.txt	LTP227	ltpFR	14	10	0	BRACELET	163	n/a	n/a	0	n/a	0	0	0	n/a	n/a	n/a	n/a	n/a
2572.22	n/a	REC_WORD	1286110	wordpools/wasnorm_wordpool_less_exclusions.txt	LTP227	ltpFR	14	10	0	BASKET	95	n/a	n/a	1	n/a	0	0	0	n/a	n/a	n/a	n/a	n/a
2607.042	n/a	REC_WORD	1303521	wordpools/wasnorm_wordpool_less_exclusions.txt	LTP227	ltpFR	14	10	0	MACARONI	851	n/a	n/a	0	n/a	0	0	0	n/a	n/a	n/a	n/a	n/a
2612.704	n/a	REC_WORD	1306352	wordpools/wasnorm_wordpool_less_exclusions.txt	LTP227	ltpFR	14	10	0	GUEST	669	n/a	n/a	1	n/a	0	0	0	n/a	n/a	n/a	n/a	n/a
2614.59	n/a	REST_REWET	1307295	n/a	LTP227	ltpFR	14	10	n/a	n/a	n/a	n/a	n/a	n/a	n/a	0	0	0	n/a	n/a	n/a	n/a	n/a
2885.076	n/a	START	1442538	n/a	LTP227	ltpFR	14	n/a	n/a	n/a	n/a	n/a	n/a	n/a	n/a	n/a	n/a	n/a	n/a	n/a	n/a	n/a	n/a
2886.58	n/a	PROB	1443290	n/a	LTP227	ltpFR	14	n/a	n/a	n/a	n/a	n/a	n/a	n/a	7	2	3	2	n/a	n/a	n/a	n/a	n/a
2888.304	n/a	PROB	1444152	n/a	LTP227	ltpFR	14	n/a	n/a	n/a	n/a	n/a	n/a	n/a	15	5	9	1	n/a	n/a	n/a	n/a	n/a
2889.488	n/a	PROB	1444744	n/a	LTP227	ltpFR	14	n/a	n/a	n/a	n/a	n/a	n/a	n/a	24	9	7	8	n/a	n/a	n/a	n/a	n/a
2891.508	n/a	STOP	1445754	n/a	LTP227	ltpFR	14	n/a	n/a	n/a	n/a	n/a	n/a	n/a	n/a	n/a	n/a	n/a	n/a	n/a	n/a	n/a	n/a
2894.122	n/a	WORD	1447061	wordpools/wasnorm_wordpool_less_exclusions.txt	LTP227	ltpFR	14	11	1	WAND	1586	n/a	n/a	0	n/a	0	0	0	0.422607421875	0.5869140625	0	lower	amplitud.ttf
2897.138	n/a	START	1448569	n/a	LTP227	ltpFR	14	n/a	n/a	n/a	n/a	n/a	n/a	n/a	n/a	n/a	n/a	n/a	n/a	n/a	n/a	n/a	n/a
2897.974	n/a	PROB	1448987	n/a	LTP227	ltpFR	14	n/a	n/a	n/a	n/a	n/a	n/a	n/a	14	4	6	4	n/a	n/a	n/a	n/a	n/a
2899.426	n/a	PROB	1449713	n/a	LTP227	ltpFR	14	n/a	n/a	n/a	n/a	n/a	n/a	n/a	16	5	2	9	n/a	n/a	n/a	n/a	n/a
2901.918	n/a	PROB	1450959	n/a	LTP227	ltpFR	14	n/a	n/a	n/a	n/a	n/a	n/a	n/a	10	1	5	4	n/a	n/a	n/a	n/a	n/a
2903.772	n/a	STOP	1451886	n/a	LTP227	ltpFR	14	n/a	n/a	n/a	n/a	n/a	n/a	n/a	n/a	n/a	n/a	n/a	n/a	n/a	n/a	n/a	n/a
2906.222	n/a	WORD	1453111	wordpools/wasnorm_wordpool_less_exclusions.txt	LTP227	ltpFR	14	11	1	INVENTOR	743	n/a	n/a	1	n/a	0	0	0	0.422607421875	0.5869140625	0	lower	amplitud.ttf
2909.234	n/a	START	1454617	n/a	LTP227	ltpFR	14	n/a	n/a	n/a	n/a	n/a	n/a	n/a	n/a	n/a	n/a	n/a	n/a	n/a	n/a	n/a	n/a
2910.234	n/a	PROB	1455117	n/a	LTP227	ltpFR	14	n/a	n/a	n/a	n/a	n/a	n/a	n/a	23	7	7	9	n/a	n/a	n/a	n/a	n/a
2912.01	n/a	PROB	1456005	n/a	LTP227	ltpFR	14	n/a	n/a	n/a	n/a	n/a	n/a	n/a	23	9	6	7	n/a	n/a	n/a	n/a	n/a
2917.234	n/a	STOP	1458617	n/a	LTP227	ltpFR	14	n/a	n/a	n/a	n/a	n/a	n/a	n/a	n/a	n/a	n/a	n/a	n/a	n/a	n/a	n/a	n/a
2918.118	n/a	WORD	1459059	wordpools/wasnorm_wordpool_less_exclusions.txt	LTP227	ltpFR	14	11	1	PHILOSOPHER	1054	n/a	n/a	1	n/a	0	0	0	0.422607421875	0.5869140625	0	lower	amplitud.ttf
2921.13	n/a	START	1460565	n/a	LTP227	ltpFR	14	n/a	n/a	n/a	n/a	n/a	n/a	n/a	n/a	n/a	n/a	n/a	n/a	n/a	n/a	n/a	n/a
2922.134	n/a	PROB	1461067	n/a	LTP227	ltpFR	14	n/a	n/a	n/a	n/a	n/a	n/a	n/a	20	4	9	7	n/a	n/a	n/a	n/a	n/a
2924.906	n/a	PROB	1462453	n/a	LTP227	ltpFR	14	n/a	n/a	n/a	n/a	n/a	n/a	n/a	16	6	8	2	n/a	n/a	n/a	n/a	n/a
2926.178	n/a	PROB	1463089	n/a	LTP227	ltpFR	14	n/a	n/a	n/a	n/a	n/a	n/a	n/a	13	6	7	2	n/a	n/a	n/a	n/a	n/a
2928.668	n/a	STOP	1464334	n/a	LTP227	ltpFR	14	n/a	n/a	n/a	n/a	n/a	n/a	n/a	n/a	n/a	n/a	n/a	n/a	n/a	n/a	n/a	n/a
2930.08	n/a	WORD	1465040	wordpools/wasnorm_wordpool_less_exclusions.txt	LTP227	ltpFR	14	11	0	SCOUT	1252	n/a	n/a	1	n/a	0	0	0	0.57763671875	0.412841796875	1	upper	zerothre.ttf
2933.092	n/a	START	1466546	n/a	LTP227	ltpFR	14	n/a	n/a	n/a	n/a	n/a	n/a	n/a	n/a	n/a	n/a	n/a	n/a	n/a	n/a	n/a	n/a
2934.228	n/a	PROB	1467114	n/a	LTP227	ltpFR	14	n/a	n/a	n/a	n/a	n/a	n/a	n/a	12	9	1	2	n/a	n/a	n/a	n/a	n/a
2935.48	n/a	PROB	1467740	n/a	LTP227	ltpFR	14	n/a	n/a	n/a	n/a	n/a	n/a	n/a	13	4	3	6	n/a	n/a	n/a	n/a	n/a
2939.742	n/a	STOP	1469871	n/a	LTP227	ltpFR	14	n/a	n/a	n/a	n/a	n/a	n/a	n/a	n/a	n/a	n/a	n/a	n/a	n/a	n/a	n/a	n/a
2942.29	n/a	WORD	1471145	wordpools/wasnorm_wordpool_less_exclusions.txt	LTP227	ltpFR	14	11	0	PLASTER	1085	n/a	n/a	0	n/a	0	0	0	0.57763671875	0.412841796875	1	upper	zerothre.ttf
2945.306	n/a	START	1472653	n/a	LTP227	ltpFR	14	n/a	n/a	n/a	n/a	n/a	n/a	n/a	n/a	n/a	n/a	n/a	n/a	n/a	n/a	n/a	n/a
2946.258	n/a	PROB	1473129	n/a	LTP227	ltpFR	14	n/a	n/a	n/a	n/a	n/a	n/a	n/a	14	7	4	3	n/a	n/a	n/a	n/a	n/a
2947.662	n/a	PROB	1473831	n/a	LTP227	ltpFR	14	n/a	n/a	n/a	n/a	n/a	n/a	n/a	15	8	5	2	n/a	n/a	n/a	n/a	n/a
2948.952	n/a	PROB	1474476	n/a	LTP227	ltpFR	14	n/a	n/a	n/a	n/a	n/a	n/a	n/a	12	4	6	2	n/a	n/a	n/a	n/a	n/a
2950.202	n/a	PROB	1475101	n/a	LTP227	ltpFR	14	n/a	n/a	n/a	n/a	n/a	n/a	n/a	14	7	2	5	n/a	n/a	n/a	n/a	n/a
2951.902	n/a	STOP	1475951	n/a	LTP227	ltpFR	14	n/a	n/a	n/a	n/a	n/a	n/a	n/a	n/a	n/a	n/a	n/a	n/a	n/a	n/a	n/a	n/a
2954.284	n/a	WORD	1477142	wordpools/wasnorm_wordpool_less_exclusions.txt	LTP227	ltpFR	14	11	0	BANKER	84	n/a	n/a	1	n/a	0	0	0	0.57763671875	0.412841796875	1	upper	zerothre.ttf
2957.3	n/a	START	1478650	n/a	LTP227	ltpFR	14	n/a	n/a	n/a	n/a	n/a	n/a	n/a	n/a	n/a	n/a	n/a	n/a	n/a	n/a	n/a	n/a
2958.288	n/a	PROB	1479144	n/a	LTP227	ltpFR	14	n/a	n/a	n/a	n/a	n/a	n/a	n/a	24	6	7	8	n/a	n/a	n/a	n/a	n/a
2960.028	n/a	PROB	1480014	n/a	LTP227	ltpFR	14	n/a	n/a	n/a	n/a	n/a	n/a	n/a	13	3	3	7	n/a	n/a	n/a	n/a	n/a
2961.584	n/a	PROB	1480792	n/a	LTP227	ltpFR	14	n/a	n/a	n/a	n/a	n/a	n/a	n/a	8	3	3	2	n/a	n/a	n/a	n/a	n/a
2964.616	n/a	STOP	1482308	n/a	LTP227	ltpFR	14	n/a	n/a	n/a	n/a	n/a	n/a	n/a	n/a	n/a	n/a	n/a	n/a	n/a	n/a	n/a	n/a
2966.268	n/a	WORD	1483134	wordpools/wasnorm_wordpool_less_exclusions.txt	LTP227	ltpFR	14	11	0	MONEY	908	n/a	n/a	0	n/a	0	0	0	0.57763671875	0.412841796875	1	upper	zerothre.ttf
2969.28	n/a	START	1484640	n/a	LTP227	ltpFR	14	n/a	n/a	n/a	n/a	n/a	n/a	n/a	n/a	n/a	n/a	n/a	n/a	n/a	n/a	n/a	n/a
2970.434	n/a	PROB	1485217	n/a	LTP227	ltpFR	14	n/a	n/a	n/a	n/a	n/a	n/a	n/a	11	1	7	3	n/a	n/a	n/a	n/a	n/a
2971.718	n/a	PROB	1485859	n/a	LTP227	ltpFR	14	n/a	n/a	n/a	n/a	n/a	n/a	n/a	16	7	4	5	n/a	n/a	n/a	n/a	n/a
2974.144	n/a	PROB	1487072	n/a	LTP227	ltpFR	14	n/a	n/a	n/a	n/a	n/a	n/a	n/a	16	3	9	4	n/a	n/a	n/a	n/a	n/a
2976.272	n/a	STOP	1488136	n/a	LTP227	ltpFR	14	n/a	n/a	n/a	n/a	n/a	n/a	n/a	n/a	n/a	n/a	n/a	n/a	n/a	n/a	n/a	n/a
