mstime	trial_type	stim_file	subject	experiment	session	trial	item_name	item_num	list	answer	test_x	test_y	test_z
0	SESS_START	n/a	LTP236	ltpFR2	18	n/a	n/a	n/a	n/a	n/a	0	0	0
12863	START	n/a	LTP236	ltpFR2	18	n/a	n/a	n/a	-1	n/a	n/a	n/a	n/a
12878	PROB	n/a	LTP236	ltpFR2	18	n/a	n/a	n/a	-1	20	9	9	2
14312	PROB	n/a	LTP236	ltpFR2	18	n/a	n/a	n/a	-1	18	4	9	5
15514	PROB	n/a	LTP236	ltpFR2	18	n/a	n/a	n/a	-1	16	8	7	1
16448	PROB	n/a	LTP236	ltpFR2	18	n/a	n/a	n/a	-1	17	6	8	3
17531	PROB	n/a	LTP236	ltpFR2	18	n/a	n/a	n/a	-1	9	6	1	2
19533	PROB	n/a	LTP236	ltpFR2	18	n/a	n/a	n/a	-1	9	3	3	3
20401	PROB	n/a	LTP236	ltpFR2	18	n/a	n/a	n/a	-1	13	1	4	8
21435	PROB	n/a	LTP236	ltpFR2	18	n/a	n/a	n/a	-1	16	6	6	4
22870	PROB	n/a	LTP236	ltpFR2	18	n/a	n/a	n/a	-1	15	6	4	5
23691	STOP	n/a	LTP236	ltpFR2	18	n/a	n/a	n/a	-1	n/a	n/a	n/a	n/a
54447	DISTRACTOR	n/a	LTP236	ltpFR2	18	1	n/a	n/a	n/a	n/a	0	0	0
54448	START	n/a	LTP236	ltpFR2	18	n/a	n/a	n/a	1	n/a	n/a	n/a	n/a
54464	PROB	n/a	LTP236	ltpFR2	18	n/a	n/a	n/a	1	21	3	9	9
56383	PROB	n/a	LTP236	ltpFR2	18	n/a	n/a	n/a	1	10	3	5	2
57500	PROB	n/a	LTP236	ltpFR2	18	n/a	n/a	n/a	1	11	5	3	3
59152	PROB	n/a	LTP236	ltpFR2	18	n/a	n/a	n/a	1	13	3	8	2
60685	PROB	n/a	LTP236	ltpFR2	18	n/a	n/a	n/a	1	12	3	1	8
61636	PROB	n/a	LTP236	ltpFR2	18	n/a	n/a	n/a	1	16	8	4	4
62670	PROB	n/a	LTP236	ltpFR2	18	n/a	n/a	n/a	1	11	6	3	2
63655	PROB	n/a	LTP236	ltpFR2	18	n/a	n/a	n/a	1	13	2	4	7
64622	PROB	n/a	LTP236	ltpFR2	18	n/a	n/a	n/a	1	16	5	3	8
65656	PROB	n/a	LTP236	ltpFR2	18	n/a	n/a	n/a	1	19	5	5	9
66607	PROB	n/a	LTP236	ltpFR2	18	n/a	n/a	n/a	1	19	6	5	8
67842	PROB	n/a	LTP236	ltpFR2	18	n/a	n/a	n/a	1	17	4	4	9
68994	PROB	n/a	LTP236	ltpFR2	18	n/a	n/a	n/a	1	16	4	8	4
69944	PROB	n/a	LTP236	ltpFR2	18	n/a	n/a	n/a	1	17	6	6	5
71195	PROB	n/a	LTP236	ltpFR2	18	n/a	n/a	n/a	1	16	7	1	8
72480	PROB	n/a	LTP236	ltpFR2	18	n/a	n/a	n/a	1	18	9	3	6
73514	PROB	n/a	LTP236	ltpFR2	18	n/a	n/a	n/a	1	16	3	7	6
74448	PROB	n/a	LTP236	ltpFR2	18	n/a	n/a	n/a	1	17	2	8	7
75349	PROB	n/a	LTP236	ltpFR2	18	n/a	n/a	n/a	1	18	7	4	7
76250	PROB	n/a	LTP236	ltpFR2	18	n/a	n/a	n/a	1	13	8	3	2
77102	STOP	n/a	LTP236	ltpFR2	18	n/a	n/a	n/a	1	n/a	n/a	n/a	n/a
79568	WORD	wordpools/wasnorm_wordpool_576.txt	LTP236	ltpFR2	18	1	OYSTER	995	n/a	n/a	0	0	0
82388	WORD	wordpools/wasnorm_wordpool_576.txt	LTP236	ltpFR2	18	1	DIVER	476	n/a	n/a	0	0	0
85058	WORD	wordpools/wasnorm_wordpool_576.txt	LTP236	ltpFR2	18	1	CRICKET	408	n/a	n/a	0	0	0
87725	WORD	wordpools/wasnorm_wordpool_576.txt	LTP236	ltpFR2	18	1	FIDDLE	561	n/a	n/a	0	0	0
90379	WORD	wordpools/wasnorm_wordpool_576.txt	LTP236	ltpFR2	18	1	WIFE	1609	n/a	n/a	0	0	0
92848	WORD	wordpools/wasnorm_wordpool_576.txt	LTP236	ltpFR2	18	1	PATROL	1027	n/a	n/a	0	0	0
95566	WORD	wordpools/wasnorm_wordpool_576.txt	LTP236	ltpFR2	18	1	PLASTER	1085	n/a	n/a	0	0	0
98052	WORD	wordpools/wasnorm_wordpool_576.txt	LTP236	ltpFR2	18	1	BULLET	194	n/a	n/a	0	0	0
100888	WORD	wordpools/wasnorm_wordpool_576.txt	LTP236	ltpFR2	18	1	GARDEN	623	n/a	n/a	0	0	0
103623	WORD	wordpools/wasnorm_wordpool_576.txt	LTP236	ltpFR2	18	1	PEDAL	1037	n/a	n/a	0	0	0
106276	WORD	wordpools/wasnorm_wordpool_576.txt	LTP236	ltpFR2	18	1	STATUE	1374	n/a	n/a	0	0	0
108962	WORD	wordpools/wasnorm_wordpool_576.txt	LTP236	ltpFR2	18	1	COURSE	390	n/a	n/a	0	0	0
111497	WORD	wordpools/wasnorm_wordpool_576.txt	LTP236	ltpFR2	18	1	SHIRT	1287	n/a	n/a	0	0	0
114133	WORD	wordpools/wasnorm_wordpool_576.txt	LTP236	ltpFR2	18	1	DRESS	495	n/a	n/a	0	0	0
116935	WORD	wordpools/wasnorm_wordpool_576.txt	LTP236	ltpFR2	18	1	CAPTIVE	240	n/a	n/a	0	0	0
119488	WORD	wordpools/wasnorm_wordpool_576.txt	LTP236	ltpFR2	18	1	STREAM	1392	n/a	n/a	0	0	0
121990	WORD	wordpools/wasnorm_wordpool_576.txt	LTP236	ltpFR2	18	1	SLIDE	1326	n/a	n/a	0	0	0
124775	WORD	wordpools/wasnorm_wordpool_576.txt	LTP236	ltpFR2	18	1	DORM	488	n/a	n/a	0	0	0
127461	WORD	wordpools/wasnorm_wordpool_576.txt	LTP236	ltpFR2	18	1	BUCKET	184	n/a	n/a	0	0	0
129963	WORD	wordpools/wasnorm_wordpool_576.txt	LTP236	ltpFR2	18	1	SPONGE	1355	n/a	n/a	0	0	0
132466	WORD	wordpools/wasnorm_wordpool_576.txt	LTP236	ltpFR2	18	1	SHERIFF	1284	n/a	n/a	0	0	0
134934	WORD	wordpools/wasnorm_wordpool_576.txt	LTP236	ltpFR2	18	1	CROSS	413	n/a	n/a	0	0	0
137403	WORD	wordpools/wasnorm_wordpool_576.txt	LTP236	ltpFR2	18	1	REPORT	1184	n/a	n/a	0	0	0
140072	WORD	wordpools/wasnorm_wordpool_576.txt	LTP236	ltpFR2	18	1	FREEZER	604	n/a	n/a	0	0	0
141689	START	n/a	LTP236	ltpFR2	18	n/a	n/a	n/a	2	n/a	n/a	n/a	n/a
142826	DISTRACTOR	n/a	LTP236	ltpFR2	18	1	n/a	n/a	n/a	n/a	0	0	0
142841	PROB	n/a	LTP236	ltpFR2	18	n/a	n/a	n/a	2	13	2	6	5
144359	PROB	n/a	LTP236	ltpFR2	18	n/a	n/a	n/a	2	17	7	9	1
145443	PROB	n/a	LTP236	ltpFR2	18	n/a	n/a	n/a	2	21	7	8	6
146511	PROB	n/a	LTP236	ltpFR2	18	n/a	n/a	n/a	2	17	4	9	4
147529	PROB	n/a	LTP236	ltpFR2	18	n/a	n/a	n/a	2	13	6	2	5
148446	PROB	n/a	LTP236	ltpFR2	18	n/a	n/a	n/a	2	24	8	7	9
149596	PROB	n/a	LTP236	ltpFR2	18	n/a	n/a	n/a	2	13	4	2	7
150515	PROB	n/a	LTP236	ltpFR2	18	n/a	n/a	n/a	2	12	4	1	7
151415	PROB	n/a	LTP236	ltpFR2	18	n/a	n/a	n/a	2	11	1	3	7
152883	PROB	n/a	LTP236	ltpFR2	18	n/a	n/a	n/a	2	4	1	2	1
153801	PROB	n/a	LTP236	ltpFR2	18	n/a	n/a	n/a	2	16	9	7	3
155285	PROB	n/a	LTP236	ltpFR2	18	n/a	n/a	n/a	2	24	8	8	8
156403	PROB	n/a	LTP236	ltpFR2	18	n/a	n/a	n/a	2	11	2	8	1
157304	PROB	n/a	LTP236	ltpFR2	18	n/a	n/a	n/a	2	19	6	6	7
158571	PROB	n/a	LTP236	ltpFR2	18	n/a	n/a	n/a	2	12	4	8	2
159422	PROB	n/a	LTP236	ltpFR2	18	n/a	n/a	n/a	2	15	8	1	6
160630	PROB	n/a	LTP236	ltpFR2	18	n/a	n/a	n/a	2	21	8	7	6
161662	PROB	n/a	LTP236	ltpFR2	18	n/a	n/a	n/a	2	13	5	6	2
162547	PROB	n/a	LTP236	ltpFR2	18	n/a	n/a	n/a	2	11	1	3	7
163432	PROB	n/a	LTP236	ltpFR2	18	n/a	n/a	n/a	2	16	9	5	2
164592	STOP	n/a	LTP236	ltpFR2	18	n/a	n/a	n/a	2	n/a	n/a	n/a	n/a
167604	REC_START	n/a	LTP236	ltpFR2	18	1	n/a	n/a	n/a	n/a	0	0	0
167983	REC_WORD	wordpools/wasnorm_wordpool_576.txt	LTP236	ltpFR2	18	1	SHERIFF	1284	n/a	n/a	0	0	0
168874	REC_WORD	wordpools/wasnorm_wordpool_576.txt	LTP236	ltpFR2	18	1	CROSS	413	n/a	n/a	0	0	0
169498	REC_WORD	wordpools/wasnorm_wordpool_576.txt	LTP236	ltpFR2	18	1	REPORT	1184	n/a	n/a	0	0	0
170260	REC_WORD	wordpools/wasnorm_wordpool_576.txt	LTP236	ltpFR2	18	1	FREEZER	604	n/a	n/a	0	0	0
171107	REC_WORD	wordpools/wasnorm_wordpool_576.txt	LTP236	ltpFR2	18	1	PATROL	1027	n/a	n/a	0	0	0
172042	REC_WORD	wordpools/wasnorm_wordpool_576.txt	LTP236	ltpFR2	18	1	DORM	488	n/a	n/a	0	0	0
172756	REC_WORD	wordpools/wasnorm_wordpool_576.txt	LTP236	ltpFR2	18	1	BUCKET	184	n/a	n/a	0	0	0
173271	REC_WORD	wordpools/wasnorm_wordpool_576.txt	LTP236	ltpFR2	18	1	SPONGE	1355	n/a	n/a	0	0	0
174066	REC_WORD	wordpools/wasnorm_wordpool_576.txt	LTP236	ltpFR2	18	1	SHIRT	1287	n/a	n/a	0	0	0
175093	REC_WORD	wordpools/wasnorm_wordpool_576.txt	LTP236	ltpFR2	18	1	DRESS	495	n/a	n/a	0	0	0
176200	REC_WORD	wordpools/wasnorm_wordpool_576.txt	LTP236	ltpFR2	18	1	CAPTIVE	240	n/a	n/a	0	0	0
177002	REC_WORD	wordpools/wasnorm_wordpool_576.txt	LTP236	ltpFR2	18	1	WIFE	1609	n/a	n/a	0	0	0
178780	REC_WORD	wordpools/wasnorm_wordpool_576.txt	LTP236	ltpFR2	18	1	STATUE	1374	n/a	n/a	0	0	0
179774	REC_WORD	wordpools/wasnorm_wordpool_576.txt	LTP236	ltpFR2	18	1	GARDEN	623	n/a	n/a	0	0	0
180489	REC_WORD	wordpools/wasnorm_wordpool_576.txt	LTP236	ltpFR2	18	1	PLASTER	1085	n/a	n/a	0	0	0
182628	REC_WORD	wordpools/wasnorm_wordpool_576.txt	LTP236	ltpFR2	18	1	CRICKET	408	n/a	n/a	0	0	0
183185	REC_WORD	wordpools/wasnorm_wordpool_576.txt	LTP236	ltpFR2	18	1	FIDDLE	561	n/a	n/a	0	0	0
183994	REC_WORD	wordpools/wasnorm_wordpool_576.txt	LTP236	ltpFR2	18	1	STREAM	1392	n/a	n/a	0	0	0
187007	REC_WORD	wordpools/wasnorm_wordpool_576.txt	LTP236	ltpFR2	18	1	SLIDE	1326	n/a	n/a	0	0	0
189117	REC_WORD	wordpools/wasnorm_wordpool_576.txt	LTP236	ltpFR2	18	1	DIVER	476	n/a	n/a	0	0	0
189949	REC_WORD	wordpools/wasnorm_wordpool_576.txt	LTP236	ltpFR2	18	1	OYSTER	995	n/a	n/a	0	0	0
258058	WORD	wordpools/wasnorm_wordpool_576.txt	LTP236	ltpFR2	18	2	SHRUB	1299	n/a	n/a	0	0	0
260593	WORD	wordpools/wasnorm_wordpool_576.txt	LTP236	ltpFR2	18	2	PARSLEY	1016	n/a	n/a	0	0	0
263130	WORD	wordpools/wasnorm_wordpool_576.txt	LTP236	ltpFR2	18	2	KETCHUP	771	n/a	n/a	0	0	0
265848	WORD	wordpools/wasnorm_wordpool_576.txt	LTP236	ltpFR2	18	2	MARSH	874	n/a	n/a	0	0	0
268487	WORD	wordpools/wasnorm_wordpool_576.txt	LTP236	ltpFR2	18	2	WASHER	1592	n/a	n/a	0	0	0
271036	WORD	wordpools/wasnorm_wordpool_576.txt	LTP236	ltpFR2	18	2	CHIPMUNK	304	n/a	n/a	0	0	0
273569	WORD	wordpools/wasnorm_wordpool_576.txt	LTP236	ltpFR2	18	2	DRAGON	492	n/a	n/a	0	0	0
275993	WORD	wordpools/wasnorm_wordpool_576.txt	LTP236	ltpFR2	18	2	SWORD	1423	n/a	n/a	0	0	0
278758	WORD	wordpools/wasnorm_wordpool_576.txt	LTP236	ltpFR2	18	2	LABEL	790	n/a	n/a	0	0	0
281361	WORD	wordpools/wasnorm_wordpool_576.txt	LTP236	ltpFR2	18	2	HOOD	714	n/a	n/a	0	0	0
283829	WORD	wordpools/wasnorm_wordpool_576.txt	LTP236	ltpFR2	18	2	BUG	187	n/a	n/a	0	0	0
286581	WORD	wordpools/wasnorm_wordpool_576.txt	LTP236	ltpFR2	18	2	WHISKERS	1605	n/a	n/a	0	0	0
289238	WORD	wordpools/wasnorm_wordpool_576.txt	LTP236	ltpFR2	18	2	DRESSER	496	n/a	n/a	0	0	0
292003	WORD	wordpools/wasnorm_wordpool_576.txt	LTP236	ltpFR2	18	2	BUREAU	199	n/a	n/a	0	0	0
294687	WORD	wordpools/wasnorm_wordpool_576.txt	LTP236	ltpFR2	18	2	TOMBSTONE	1478	n/a	n/a	0	0	0
297361	WORD	wordpools/wasnorm_wordpool_576.txt	LTP236	ltpFR2	18	2	WIDOW	1608	n/a	n/a	0	0	0
300009	WORD	wordpools/wasnorm_wordpool_576.txt	LTP236	ltpFR2	18	2	PISTON	1076	n/a	n/a	0	0	0
302599	WORD	wordpools/wasnorm_wordpool_576.txt	LTP236	ltpFR2	18	2	RUST	1219	n/a	n/a	0	0	0
305297	WORD	wordpools/wasnorm_wordpool_576.txt	LTP236	ltpFR2	18	2	POWDER	1117	n/a	n/a	0	0	0
307799	WORD	wordpools/wasnorm_wordpool_576.txt	LTP236	ltpFR2	18	2	FILM	565	n/a	n/a	0	0	0
310605	WORD	wordpools/wasnorm_wordpool_576.txt	LTP236	ltpFR2	18	2	WARDROBE	1587	n/a	n/a	0	0	0
313052	WORD	wordpools/wasnorm_wordpool_576.txt	LTP236	ltpFR2	18	2	SNACK	1331	n/a	n/a	0	0	0
315636	WORD	wordpools/wasnorm_wordpool_576.txt	LTP236	ltpFR2	18	2	ICEBERG	731	n/a	n/a	0	0	0
318257	WORD	wordpools/wasnorm_wordpool_576.txt	LTP236	ltpFR2	18	2	LADY	794	n/a	n/a	0	0	0
319866	START	n/a	LTP236	ltpFR2	18	n/a	n/a	n/a	3	n/a	n/a	n/a	n/a
320873	DISTRACTOR	n/a	LTP236	ltpFR2	18	2	n/a	n/a	n/a	n/a	0	0	0
320883	PROB	n/a	LTP236	ltpFR2	18	n/a	n/a	n/a	3	22	6	7	9
323478	PROB	n/a	LTP236	ltpFR2	18	n/a	n/a	n/a	3	12	6	5	1
324745	PROB	n/a	LTP236	ltpFR2	18	n/a	n/a	n/a	3	6	2	3	1
325695	PROB	n/a	LTP236	ltpFR2	18	n/a	n/a	n/a	3	13	6	5	2
326679	PROB	n/a	LTP236	ltpFR2	18	n/a	n/a	n/a	3	10	6	1	2
327847	PROB	n/a	LTP236	ltpFR2	18	n/a	n/a	n/a	3	16	1	8	7
329031	PROB	n/a	LTP236	ltpFR2	18	n/a	n/a	n/a	3	14	7	5	2
330016	PROB	n/a	LTP236	ltpFR2	18	n/a	n/a	n/a	3	16	1	7	8
330932	PROB	n/a	LTP236	ltpFR2	18	n/a	n/a	n/a	3	17	6	7	4
332167	PROB	n/a	LTP236	ltpFR2	18	n/a	n/a	n/a	3	15	2	7	6
333251	PROB	n/a	LTP236	ltpFR2	18	n/a	n/a	n/a	3	10	6	1	3
334617	PROB	n/a	LTP236	ltpFR2	18	n/a	n/a	n/a	3	24	9	9	6
335735	PROB	n/a	LTP236	ltpFR2	18	n/a	n/a	n/a	3	13	6	6	1
336853	PROB	n/a	LTP236	ltpFR2	18	n/a	n/a	n/a	3	14	5	7	2
337805	PROB	n/a	LTP236	ltpFR2	18	n/a	n/a	n/a	3	13	6	6	1
338655	PROB	n/a	LTP236	ltpFR2	18	n/a	n/a	n/a	3	10	6	2	2
339739	PROB	n/a	LTP236	ltpFR2	18	n/a	n/a	n/a	3	7	1	5	1
340655	PROB	n/a	LTP236	ltpFR2	18	n/a	n/a	n/a	3	13	9	2	2
342159	PROB	n/a	LTP236	ltpFR2	18	n/a	n/a	n/a	3	5	1	2	3
343176	STOP	n/a	LTP236	ltpFR2	18	n/a	n/a	n/a	3	n/a	n/a	n/a	n/a
345743	REC_START	n/a	LTP236	ltpFR2	18	2	n/a	n/a	n/a	n/a	0	0	0
346552	REC_WORD	wordpools/wasnorm_wordpool_576.txt	LTP236	ltpFR2	18	2	LADY	794	n/a	n/a	0	0	0
347297	REC_WORD	wordpools/wasnorm_wordpool_576.txt	LTP236	ltpFR2	18	2	WIDOW	1608	n/a	n/a	0	0	0
347805	REC_WORD	wordpools/wasnorm_wordpool_576.txt	LTP236	ltpFR2	18	2	SNACK	1331	n/a	n/a	0	0	0
348888	REC_WORD	wordpools/wasnorm_wordpool_576.txt	LTP236	ltpFR2	18	2	TOMBSTONE	1478	n/a	n/a	0	0	0
351442	REC_WORD	wordpools/wasnorm_wordpool_576.txt	LTP236	ltpFR2	18	2	ICEBERG	731	n/a	n/a	0	0	0
352725	REC_WORD	wordpools/wasnorm_wordpool_576.txt	LTP236	ltpFR2	18	2	PARSLEY	1016	n/a	n/a	0	0	0
353394	REC_WORD	wordpools/wasnorm_wordpool_576.txt	LTP236	ltpFR2	18	2	KETCHUP	771	n/a	n/a	0	0	0
355814	REC_WORD	wordpools/wasnorm_wordpool_576.txt	LTP236	ltpFR2	18	2	POWDER	1117	n/a	n/a	0	0	0
357338	REC_WORD	wordpools/wasnorm_wordpool_576.txt	LTP236	ltpFR2	18	2	DRESSER	496	n/a	n/a	0	0	0
357946	REC_WORD	wordpools/wasnorm_wordpool_576.txt	LTP236	ltpFR2	18	2	WARDROBE	1587	n/a	n/a	0	0	0
360063	REC_WORD	wordpools/wasnorm_wordpool_576.txt	LTP236	ltpFR2	18	2	BUG	187	n/a	n/a	0	0	0
360622	REC_WORD	wordpools/wasnorm_wordpool_576.txt	LTP236	ltpFR2	18	2	WHISKERS	1605	n/a	n/a	0	0	0
362627	REC_WORD	wordpools/wasnorm_wordpool_576.txt	LTP236	ltpFR2	18	2	DRAGON	492	n/a	n/a	0	0	0
363355	REC_WORD	wordpools/wasnorm_wordpool_576.txt	LTP236	ltpFR2	18	2	SWORD	1423	n/a	n/a	0	0	0
364807	REC_WORD	wordpools/wasnorm_wordpool_576.txt	LTP236	ltpFR2	18	2	HOOD	714	n/a	n/a	0	0	0
365447	REC_WORD	wordpools/wasnorm_wordpool_576.txt	LTP236	ltpFR2	18	2	CHIPMUNK	304	n/a	n/a	0	0	0
366373	REC_WORD	wordpools/wasnorm_wordpool_576.txt	LTP236	ltpFR2	18	2	MARSH	874	n/a	n/a	0	0	0
374700	REC_WORD	wordpools/wasnorm_wordpool_576.txt	LTP236	ltpFR2	18	2	BUREAU	199	n/a	n/a	0	0	0
378213	REC_WORD	wordpools/wasnorm_wordpool_576.txt	LTP236	ltpFR2	18	2	LABEL	790	n/a	n/a	0	0	0
436185	DISTRACTOR	n/a	LTP236	ltpFR2	18	3	n/a	n/a	n/a	n/a	0	0	0
436185	START	n/a	LTP236	ltpFR2	18	n/a	n/a	n/a	4	n/a	n/a	n/a	n/a
436202	PROB	n/a	LTP236	ltpFR2	18	n/a	n/a	n/a	4	15	6	5	4
437598	PROB	n/a	LTP236	ltpFR2	18	n/a	n/a	n/a	4	16	7	5	4
438820	PROB	n/a	LTP236	ltpFR2	18	n/a	n/a	n/a	4	12	8	2	2
439785	PROB	n/a	LTP236	ltpFR2	18	n/a	n/a	n/a	4	22	5	9	8
441039	PROB	n/a	LTP236	ltpFR2	18	n/a	n/a	n/a	4	25	9	8	8
442589	PROB	n/a	LTP236	ltpFR2	18	n/a	n/a	n/a	4	11	4	2	5
443589	PROB	n/a	LTP236	ltpFR2	18	n/a	n/a	n/a	4	19	9	2	8
444641	PROB	n/a	LTP236	ltpFR2	18	n/a	n/a	n/a	4	19	2	9	8
445673	PROB	n/a	LTP236	ltpFR2	18	n/a	n/a	n/a	4	16	6	4	6
446624	PROB	n/a	LTP236	ltpFR2	18	n/a	n/a	n/a	4	13	1	8	4
447660	PROB	n/a	LTP236	ltpFR2	18	n/a	n/a	n/a	4	20	9	8	3
448928	PROB	n/a	LTP236	ltpFR2	18	n/a	n/a	n/a	4	17	4	6	7
449961	PROB	n/a	LTP236	ltpFR2	18	n/a	n/a	n/a	4	13	3	7	3
451779	PROB	n/a	LTP236	ltpFR2	18	n/a	n/a	n/a	4	17	5	9	3
452882	PROB	n/a	LTP236	ltpFR2	18	n/a	n/a	n/a	4	15	3	3	9
453882	PROB	n/a	LTP236	ltpFR2	18	n/a	n/a	n/a	4	19	5	7	7
455467	PROB	n/a	LTP236	ltpFR2	18	n/a	n/a	n/a	4	24	6	9	9
456833	PROB	n/a	LTP236	ltpFR2	18	n/a	n/a	n/a	4	24	6	9	9
457834	PROB	n/a	LTP236	ltpFR2	18	n/a	n/a	n/a	4	12	4	7	1
458757	STOP	n/a	LTP236	ltpFR2	18	n/a	n/a	n/a	4	n/a	n/a	n/a	n/a
461072	WORD	wordpools/wasnorm_wordpool_576.txt	LTP236	ltpFR2	18	3	ASIA	46	n/a	n/a	0	0	0
463841	WORD	wordpools/wasnorm_wordpool_576.txt	LTP236	ltpFR2	18	3	MILDEW	893	n/a	n/a	0	0	0
466443	WORD	wordpools/wasnorm_wordpool_576.txt	LTP236	ltpFR2	18	3	PEBBLE	1035	n/a	n/a	0	0	0
469029	WORD	wordpools/wasnorm_wordpool_576.txt	LTP236	ltpFR2	18	3	CEILING	265	n/a	n/a	0	0	0
471696	WORD	wordpools/wasnorm_wordpool_576.txt	LTP236	ltpFR2	18	3	APRON	35	n/a	n/a	0	0	0
474148	WORD	wordpools/wasnorm_wordpool_576.txt	LTP236	ltpFR2	18	3	TOASTER	1472	n/a	n/a	0	0	0
476784	WORD	wordpools/wasnorm_wordpool_576.txt	LTP236	ltpFR2	18	3	SHOVEL	1295	n/a	n/a	0	0	0
479353	WORD	wordpools/wasnorm_wordpool_576.txt	LTP236	ltpFR2	18	3	COUNTRY	388	n/a	n/a	0	0	0
481888	WORD	wordpools/wasnorm_wordpool_576.txt	LTP236	ltpFR2	18	3	PERCH	1048	n/a	n/a	0	0	0
484474	WORD	wordpools/wasnorm_wordpool_576.txt	LTP236	ltpFR2	18	3	GRIZZLY	662	n/a	n/a	0	0	0
487276	WORD	wordpools/wasnorm_wordpool_576.txt	LTP236	ltpFR2	18	3	MAILMAN	858	n/a	n/a	0	0	0
489778	WORD	wordpools/wasnorm_wordpool_576.txt	LTP236	ltpFR2	18	3	HANDBAG	684	n/a	n/a	0	0	0
492313	WORD	wordpools/wasnorm_wordpool_576.txt	LTP236	ltpFR2	18	3	BRIEFCASE	175	n/a	n/a	0	0	0
494783	WORD	wordpools/wasnorm_wordpool_576.txt	LTP236	ltpFR2	18	3	DASHBOARD	441	n/a	n/a	0	0	0
497337	WORD	wordpools/wasnorm_wordpool_576.txt	LTP236	ltpFR2	18	3	SHARK	1275	n/a	n/a	0	0	0
500053	WORD	wordpools/wasnorm_wordpool_576.txt	LTP236	ltpFR2	18	3	FLUTE	585	n/a	n/a	0	0	0
502755	WORD	wordpools/wasnorm_wordpool_576.txt	LTP236	ltpFR2	18	3	MOP	916	n/a	n/a	0	0	0
505223	WORD	wordpools/wasnorm_wordpool_576.txt	LTP236	ltpFR2	18	3	HOOK	715	n/a	n/a	0	0	0
507942	WORD	wordpools/wasnorm_wordpool_576.txt	LTP236	ltpFR2	18	3	TAXI	1438	n/a	n/a	0	0	0
510644	WORD	wordpools/wasnorm_wordpool_576.txt	LTP236	ltpFR2	18	3	DAISY	435	n/a	n/a	0	0	0
513379	WORD	wordpools/wasnorm_wordpool_576.txt	LTP236	ltpFR2	18	3	LILY	821	n/a	n/a	0	0	0
515948	WORD	wordpools/wasnorm_wordpool_576.txt	LTP236	ltpFR2	18	3	FLIPPER	580	n/a	n/a	0	0	0
518371	WORD	wordpools/wasnorm_wordpool_576.txt	LTP236	ltpFR2	18	3	SCULPTURE	1258	n/a	n/a	0	0	0
521090	WORD	wordpools/wasnorm_wordpool_576.txt	LTP236	ltpFR2	18	3	DRUG	501	n/a	n/a	0	0	0
522704	START	n/a	LTP236	ltpFR2	18	n/a	n/a	n/a	5	n/a	n/a	n/a	n/a
523707	DISTRACTOR	n/a	LTP236	ltpFR2	18	3	n/a	n/a	n/a	n/a	0	0	0
523721	PROB	n/a	LTP236	ltpFR2	18	n/a	n/a	n/a	5	20	4	7	9
527173	PROB	n/a	LTP236	ltpFR2	18	n/a	n/a	n/a	5	12	4	6	2
528175	PROB	n/a	LTP236	ltpFR2	18	n/a	n/a	n/a	5	24	9	9	6
529275	PROB	n/a	LTP236	ltpFR2	18	n/a	n/a	n/a	5	13	1	4	8
531276	PROB	n/a	LTP236	ltpFR2	18	n/a	n/a	n/a	5	18	4	8	6
532760	PROB	n/a	LTP236	ltpFR2	18	n/a	n/a	n/a	5	12	3	2	7
533678	PROB	n/a	LTP236	ltpFR2	18	n/a	n/a	n/a	5	21	4	9	8
534713	PROB	n/a	LTP236	ltpFR2	18	n/a	n/a	n/a	5	14	9	2	3
535662	PROB	n/a	LTP236	ltpFR2	18	n/a	n/a	n/a	5	17	4	4	9
537049	PROB	n/a	LTP236	ltpFR2	18	n/a	n/a	n/a	5	15	2	4	9
537965	PROB	n/a	LTP236	ltpFR2	18	n/a	n/a	n/a	5	5	2	2	1
538765	PROB	n/a	LTP236	ltpFR2	18	n/a	n/a	n/a	5	3	1	1	1
539533	PROB	n/a	LTP236	ltpFR2	18	n/a	n/a	n/a	5	19	8	2	9
540368	PROB	n/a	LTP236	ltpFR2	18	n/a	n/a	n/a	5	19	9	1	9
541236	PROB	n/a	LTP236	ltpFR2	18	n/a	n/a	n/a	5	178	6	7	4
542318	PROB	n/a	LTP236	ltpFR2	18	n/a	n/a	n/a	5	2	5	6	9
543937	PROB	n/a	LTP236	ltpFR2	18	n/a	n/a	n/a	5	15	6	1	8
546704	STOP	n/a	LTP236	ltpFR2	18	n/a	n/a	n/a	5	n/a	n/a	n/a	n/a
548556	REC_START	n/a	LTP236	ltpFR2	18	3	n/a	n/a	n/a	n/a	0	0	0
549117	REC_WORD	wordpools/wasnorm_wordpool_576.txt	LTP236	ltpFR2	18	3	FLIPPER	580	n/a	n/a	0	0	0
549777	REC_WORD	wordpools/wasnorm_wordpool_576.txt	LTP236	ltpFR2	18	3	SCULPTURE	1258	n/a	n/a	0	0	0
550740	REC_WORD	wordpools/wasnorm_wordpool_576.txt	LTP236	ltpFR2	18	3	DRUG	501	n/a	n/a	0	0	0
552698	REC_WORD	wordpools/wasnorm_wordpool_576.txt	LTP236	ltpFR2	18	3	DAISY	435	n/a	n/a	0	0	0
553302	REC_WORD	wordpools/wasnorm_wordpool_576.txt	LTP236	ltpFR2	18	3	LILY	821	n/a	n/a	0	0	0
553986	REC_WORD	wordpools/wasnorm_wordpool_576.txt	LTP236	ltpFR2	18	3	TAXI	1438	n/a	n/a	0	0	0
554729	REC_WORD	wordpools/wasnorm_wordpool_576.txt	LTP236	ltpFR2	18	3	MAILMAN	858	n/a	n/a	0	0	0
555325	REC_WORD	wordpools/wasnorm_wordpool_576.txt	LTP236	ltpFR2	18	3	SHOVEL	1295	n/a	n/a	0	0	0
556017	REC_WORD	wordpools/wasnorm_wordpool_576.txt	LTP236	ltpFR2	18	3	MOP	916	n/a	n/a	0	0	0
556828	REC_WORD	wordpools/wasnorm_wordpool_576.txt	LTP236	ltpFR2	18	3	MILDEW	893	n/a	n/a	0	0	0
557493	REC_WORD	wordpools/wasnorm_wordpool_576.txt	LTP236	ltpFR2	18	3	CEILING	265	n/a	n/a	0	0	0
558394	REC_WORD	wordpools/wasnorm_wordpool_576.txt	LTP236	ltpFR2	18	3	PERCH	1048	n/a	n/a	0	0	0
560008	REC_WORD	wordpools/wasnorm_wordpool_576.txt	LTP236	ltpFR2	18	3	APRON	35	n/a	n/a	0	0	0
567756	REC_WORD	wordpools/wasnorm_wordpool_576.txt	LTP236	ltpFR2	18	3	BRIEFCASE	175	n/a	n/a	0	0	0
568624	REC_WORD	wordpools/wasnorm_wordpool_576.txt	LTP236	ltpFR2	18	3	HANDBAG	684	n/a	n/a	0	0	0
572058	REC_WORD	wordpools/wasnorm_wordpool_576.txt	LTP236	ltpFR2	18	3	GRIZZLY	662	n/a	n/a	0	0	0
578545	REC_WORD	wordpools/wasnorm_wordpool_576.txt	LTP236	ltpFR2	18	3	FLUTE	585	n/a	n/a	0	0	0
580702	REC_WORD	wordpools/wasnorm_wordpool_576.txt	LTP236	ltpFR2	18	3	DASHBOARD	441	n/a	n/a	0	0	0
583369	REC_WORD	wordpools/wasnorm_wordpool_576.txt	LTP236	ltpFR2	18	3	FLIPPER	580	n/a	n/a	0	0	0
593954	REC_WORD	wordpools/wasnorm_wordpool_576.txt	LTP236	ltpFR2	18	3	SHARK	1275	n/a	n/a	0	0	0
599689	REC_WORD	wordpools/wasnorm_wordpool_576.txt	LTP236	ltpFR2	18	3	PEBBLE	1035	n/a	n/a	0	0	0
638981	DISTRACTOR	n/a	LTP236	ltpFR2	18	4	n/a	n/a	n/a	n/a	0	0	0
638982	START	n/a	LTP236	ltpFR2	18	n/a	n/a	n/a	6	n/a	n/a	n/a	n/a
638996	PROB	n/a	LTP236	ltpFR2	18	n/a	n/a	n/a	6	16	4	8	4
641613	PROB	n/a	LTP236	ltpFR2	18	n/a	n/a	n/a	6	8	1	3	4
642649	PROB	n/a	LTP236	ltpFR2	18	n/a	n/a	n/a	6	18	7	2	9
643917	PROB	n/a	LTP236	ltpFR2	18	n/a	n/a	n/a	6	16	2	9	5
645236	PROB	n/a	LTP236	ltpFR2	18	n/a	n/a	n/a	6	12	1	4	7
646115	PROB	n/a	LTP236	ltpFR2	18	n/a	n/a	n/a	6	23	6	9	8
647206	PROB	n/a	LTP236	ltpFR2	18	n/a	n/a	n/a	6	13	3	1	9
648120	PROB	n/a	LTP236	ltpFR2	18	n/a	n/a	n/a	6	11	6	3	2
649184	PROB	n/a	LTP236	ltpFR2	18	n/a	n/a	n/a	6	19	6	8	5
650555	PROB	n/a	LTP236	ltpFR2	18	n/a	n/a	n/a	6	10	6	2	2
651640	PROB	n/a	LTP236	ltpFR2	18	n/a	n/a	n/a	6	12	3	1	8
652520	PROB	n/a	LTP236	ltpFR2	18	n/a	n/a	n/a	6	15	5	7	3
653404	PROB	n/a	LTP236	ltpFR2	18	n/a	n/a	n/a	6	20	7	5	8
655495	PROB	n/a	LTP236	ltpFR2	18	n/a	n/a	n/a	6	18	5	4	9
656445	PROB	n/a	LTP236	ltpFR2	18	n/a	n/a	n/a	6	15	7	6	2
659414	PROB	n/a	LTP236	ltpFR2	18	n/a	n/a	n/a	6	16	5	7	4
660448	PROB	n/a	LTP236	ltpFR2	18	n/a	n/a	n/a	6	11	1	4	6
662982	STOP	n/a	LTP236	ltpFR2	18	n/a	n/a	n/a	6	n/a	n/a	n/a	n/a
664115	WORD	wordpools/wasnorm_wordpool_576.txt	LTP236	ltpFR2	18	4	SCALPEL	1243	n/a	n/a	0	0	0
666917	WORD	wordpools/wasnorm_wordpool_576.txt	LTP236	ltpFR2	18	4	SPACE	1345	n/a	n/a	0	0	0
669436	WORD	wordpools/wasnorm_wordpool_576.txt	LTP236	ltpFR2	18	4	MARKER	870	n/a	n/a	0	0	0
672138	WORD	wordpools/wasnorm_wordpool_576.txt	LTP236	ltpFR2	18	4	TURTLE	1522	n/a	n/a	0	0	0
674589	WORD	wordpools/wasnorm_wordpool_576.txt	LTP236	ltpFR2	18	4	KEEPER	769	n/a	n/a	0	0	0
677293	WORD	wordpools/wasnorm_wordpool_576.txt	LTP236	ltpFR2	18	4	CRIB	407	n/a	n/a	0	0	0
679845	WORD	wordpools/wasnorm_wordpool_576.txt	LTP236	ltpFR2	18	4	ITEM	746	n/a	n/a	0	0	0
682613	WORD	wordpools/wasnorm_wordpool_576.txt	LTP236	ltpFR2	18	4	FUNGUS	614	n/a	n/a	0	0	0
685417	WORD	wordpools/wasnorm_wordpool_576.txt	LTP236	ltpFR2	18	4	TERMITE	1451	n/a	n/a	0	0	0
687936	WORD	wordpools/wasnorm_wordpool_576.txt	LTP236	ltpFR2	18	4	PICTURE	1061	n/a	n/a	0	0	0
690670	WORD	wordpools/wasnorm_wordpool_576.txt	LTP236	ltpFR2	18	4	PORTRAIT	1111	n/a	n/a	0	0	0
693290	WORD	wordpools/wasnorm_wordpool_576.txt	LTP236	ltpFR2	18	4	SKETCH	1315	n/a	n/a	0	0	0
696009	WORD	wordpools/wasnorm_wordpool_576.txt	LTP236	ltpFR2	18	4	LETTUCE	814	n/a	n/a	0	0	0
698711	WORD	wordpools/wasnorm_wordpool_576.txt	LTP236	ltpFR2	18	4	SCISSORS	1250	n/a	n/a	0	0	0
701164	WORD	wordpools/wasnorm_wordpool_576.txt	LTP236	ltpFR2	18	4	BATHTUB	100	n/a	n/a	0	0	0
703783	WORD	wordpools/wasnorm_wordpool_576.txt	LTP236	ltpFR2	18	4	KIDNEY	776	n/a	n/a	0	0	0
706452	WORD	wordpools/wasnorm_wordpool_576.txt	LTP236	ltpFR2	18	4	BEAST	108	n/a	n/a	0	0	0
708887	WORD	wordpools/wasnorm_wordpool_576.txt	LTP236	ltpFR2	18	4	FRIAR	605	n/a	n/a	0	0	0
711456	WORD	wordpools/wasnorm_wordpool_576.txt	LTP236	ltpFR2	18	4	PRINCESS	1125	n/a	n/a	0	0	0
714224	WORD	wordpools/wasnorm_wordpool_576.txt	LTP236	ltpFR2	18	4	GLASS	639	n/a	n/a	0	0	0
716843	WORD	wordpools/wasnorm_wordpool_576.txt	LTP236	ltpFR2	18	4	WINDOW	1611	n/a	n/a	0	0	0
719345	WORD	wordpools/wasnorm_wordpool_576.txt	LTP236	ltpFR2	18	4	MONEY	908	n/a	n/a	0	0	0
722014	WORD	wordpools/wasnorm_wordpool_576.txt	LTP236	ltpFR2	18	4	LUGGAGE	847	n/a	n/a	0	0	0
724749	WORD	wordpools/wasnorm_wordpool_576.txt	LTP236	ltpFR2	18	4	SNAIL	1332	n/a	n/a	0	0	0
726368	START	n/a	LTP236	ltpFR2	18	n/a	n/a	n/a	7	n/a	n/a	n/a	n/a
727221	DISTRACTOR	n/a	LTP236	ltpFR2	18	4	n/a	n/a	n/a	n/a	0	0	0
727235	PROB	n/a	LTP236	ltpFR2	18	n/a	n/a	n/a	7	10	1	2	7
728986	PROB	n/a	LTP236	ltpFR2	18	n/a	n/a	n/a	7	20	9	6	5
730155	PROB	n/a	LTP236	ltpFR2	18	n/a	n/a	n/a	7	8	5	1	2
731304	PROB	n/a	LTP236	ltpFR2	18	n/a	n/a	n/a	7	14	1	9	4
732271	PROB	n/a	LTP236	ltpFR2	18	n/a	n/a	n/a	7	21	9	9	3
733322	PROB	n/a	LTP236	ltpFR2	18	n/a	n/a	n/a	7	13	1	4	8
734290	PROB	n/a	LTP236	ltpFR2	18	n/a	n/a	n/a	7	14	7	5	2
735206	PROB	n/a	LTP236	ltpFR2	18	n/a	n/a	n/a	7	15	6	5	4
736192	PROB	n/a	LTP236	ltpFR2	18	n/a	n/a	n/a	7	24	8	8	8
737258	PROB	n/a	LTP236	ltpFR2	18	n/a	n/a	n/a	7	11	2	6	3
738226	PROB	n/a	LTP236	ltpFR2	18	n/a	n/a	n/a	7	12	3	6	3
739311	PROB	n/a	LTP236	ltpFR2	18	n/a	n/a	n/a	7	23	7	7	9
740494	PROB	n/a	LTP236	ltpFR2	18	n/a	n/a	n/a	7	7	5	1	1
741661	PROB	n/a	LTP236	ltpFR2	18	n/a	n/a	n/a	7	10	3	1	6
742679	PROB	n/a	LTP236	ltpFR2	18	n/a	n/a	n/a	7	9	2	1	6
743930	PROB	n/a	LTP236	ltpFR2	18	n/a	n/a	n/a	7	9	1	7	1
744947	PROB	n/a	LTP236	ltpFR2	18	n/a	n/a	n/a	7	15	8	5	2
745948	PROB	n/a	LTP236	ltpFR2	18	n/a	n/a	n/a	7	14	6	4	4
746865	PROB	n/a	LTP236	ltpFR2	18	n/a	n/a	n/a	7	17	8	4	5
748117	PROB	n/a	LTP236	ltpFR2	18	n/a	n/a	n/a	7	12	7	2	3
749840	STOP	n/a	LTP236	ltpFR2	18	n/a	n/a	n/a	7	n/a	n/a	n/a	n/a
752104	REC_START	n/a	LTP236	ltpFR2	18	4	n/a	n/a	n/a	n/a	0	0	0
752726	REC_WORD	wordpools/wasnorm_wordpool_576.txt	LTP236	ltpFR2	18	4	SNAIL	1332	n/a	n/a	0	0	0
753645	REC_WORD	wordpools/wasnorm_wordpool_576.txt	LTP236	ltpFR2	18	4	TURTLE	1522	n/a	n/a	0	0	0
754451	REC_WORD	wordpools/wasnorm_wordpool_576.txt	LTP236	ltpFR2	18	4	LUGGAGE	847	n/a	n/a	0	0	0
755543	REC_WORD	wordpools/wasnorm_wordpool_576.txt	LTP236	ltpFR2	18	4	BEAST	108	n/a	n/a	0	0	0
756238	REC_WORD	wordpools/wasnorm_wordpool_576.txt	LTP236	ltpFR2	18	4	PRINCESS	1125	n/a	n/a	0	0	0
757047	REC_WORD	wordpools/wasnorm_wordpool_576.txt	LTP236	ltpFR2	18	4	FRIAR	605	n/a	n/a	0	0	0
759614	REC_WORD	wordpools/wasnorm_wordpool_576.txt	LTP236	ltpFR2	18	4	MOLD	-1	n/a	n/a	0	0	0
760981	REC_WORD	wordpools/wasnorm_wordpool_576.txt	LTP236	ltpFR2	18	4	TERMITE	1451	n/a	n/a	0	0	0
763404	REC_WORD	wordpools/wasnorm_wordpool_576.txt	LTP236	ltpFR2	18	4	FUNGUS	614	n/a	n/a	0	0	0
764682	REC_WORD	wordpools/wasnorm_wordpool_576.txt	LTP236	ltpFR2	18	4	CRIB	407	n/a	n/a	0	0	0
765428	REC_WORD	wordpools/wasnorm_wordpool_576.txt	LTP236	ltpFR2	18	4	BATHTUB	100	n/a	n/a	0	0	0
766239	REC_WORD	wordpools/wasnorm_wordpool_576.txt	LTP236	ltpFR2	18	4	GLASS	639	n/a	n/a	0	0	0
766812	REC_WORD	wordpools/wasnorm_wordpool_576.txt	LTP236	ltpFR2	18	4	WINDOW	1611	n/a	n/a	0	0	0
772434	REC_WORD	wordpools/wasnorm_wordpool_576.txt	LTP236	ltpFR2	18	4	MONEY	908	n/a	n/a	0	0	0
781406	REC_WORD	wordpools/wasnorm_wordpool_576.txt	LTP236	ltpFR2	18	4	SCALPEL	1243	n/a	n/a	0	0	0
782558	REC_WORD	wordpools/wasnorm_wordpool_576.txt	LTP236	ltpFR2	18	4	MARKER	870	n/a	n/a	0	0	0
783488	REC_WORD	wordpools/wasnorm_wordpool_576.txt	LTP236	ltpFR2	18	4	ITEM	746	n/a	n/a	0	0	0
784320	REC_WORD	wordpools/wasnorm_wordpool_576.txt	LTP236	ltpFR2	18	4	SPACE	1345	n/a	n/a	0	0	0
785866	REC_WORD	wordpools/wasnorm_wordpool_576.txt	LTP236	ltpFR2	18	4	KEEPER	769	n/a	n/a	0	0	0
786708	REC_WORD	wordpools/wasnorm_wordpool_576.txt	LTP236	ltpFR2	18	4	TURTLE	1522	n/a	n/a	0	0	0
787371	REC_WORD	wordpools/wasnorm_wordpool_576.txt	LTP236	ltpFR2	18	4	SNAIL	1332	n/a	n/a	0	0	0
800157	REC_WORD	wordpools/wasnorm_wordpool_576.txt	LTP236	ltpFR2	18	4	PICTURE	1061	n/a	n/a	0	0	0
800867	REC_WORD	wordpools/wasnorm_wordpool_576.txt	LTP236	ltpFR2	18	4	PORTRAIT	1111	n/a	n/a	0	0	0
801530	REC_WORD	wordpools/wasnorm_wordpool_576.txt	LTP236	ltpFR2	18	4	SKETCH	1315	n/a	n/a	0	0	0
842541	WORD	wordpools/wasnorm_wordpool_576.txt	LTP236	ltpFR2	18	5	SPOUSE	1358	n/a	n/a	0	0	0
845280	WORD	wordpools/wasnorm_wordpool_576.txt	LTP236	ltpFR2	18	5	BRANDY	169	n/a	n/a	0	0	0
847908	WORD	wordpools/wasnorm_wordpool_576.txt	LTP236	ltpFR2	18	5	RUG	1215	n/a	n/a	0	0	0
850510	WORD	wordpools/wasnorm_wordpool_576.txt	LTP236	ltpFR2	18	5	VELVET	1555	n/a	n/a	0	0	0
853296	WORD	wordpools/wasnorm_wordpool_576.txt	LTP236	ltpFR2	18	5	STAMP	1370	n/a	n/a	0	0	0
855988	WORD	wordpools/wasnorm_wordpool_576.txt	LTP236	ltpFR2	18	5	SWAMP	1416	n/a	n/a	0	0	0
858616	WORD	wordpools/wasnorm_wordpool_576.txt	LTP236	ltpFR2	18	5	SANDWICH	1232	n/a	n/a	0	0	0
861286	WORD	wordpools/wasnorm_wordpool_576.txt	LTP236	ltpFR2	18	5	RAZOR	1171	n/a	n/a	0	0	0
863727	WORD	wordpools/wasnorm_wordpool_576.txt	LTP236	ltpFR2	18	5	HUSBAND	728	n/a	n/a	0	0	0
866375	WORD	wordpools/wasnorm_wordpool_576.txt	LTP236	ltpFR2	18	5	CANAL	226	n/a	n/a	0	0	0
868877	WORD	wordpools/wasnorm_wordpool_576.txt	LTP236	ltpFR2	18	5	DANCER	437	n/a	n/a	0	0	0
871529	WORD	wordpools/wasnorm_wordpool_576.txt	LTP236	ltpFR2	18	5	TART	1436	n/a	n/a	0	0	0
874236	WORD	wordpools/wasnorm_wordpool_576.txt	LTP236	ltpFR2	18	5	SUITCASE	1403	n/a	n/a	0	0	0
876850	WORD	wordpools/wasnorm_wordpool_576.txt	LTP236	ltpFR2	18	5	KNAPSACK	783	n/a	n/a	0	0	0
879524	WORD	wordpools/wasnorm_wordpool_576.txt	LTP236	ltpFR2	18	5	SKIRT	1319	n/a	n/a	0	0	0
882026	WORD	wordpools/wasnorm_wordpool_576.txt	LTP236	ltpFR2	18	5	BLOUSE	139	n/a	n/a	0	0	0
884544	WORD	wordpools/wasnorm_wordpool_576.txt	LTP236	ltpFR2	18	5	PIMPLE	1071	n/a	n/a	0	0	0
887292	WORD	wordpools/wasnorm_wordpool_576.txt	LTP236	ltpFR2	18	5	LONDON	843	n/a	n/a	0	0	0
889726	WORD	wordpools/wasnorm_wordpool_576.txt	LTP236	ltpFR2	18	5	DUST	508	n/a	n/a	0	0	0
892446	WORD	wordpools/wasnorm_wordpool_576.txt	LTP236	ltpFR2	18	5	BODY	145	n/a	n/a	0	0	0
895250	WORD	wordpools/wasnorm_wordpool_576.txt	LTP236	ltpFR2	18	5	NIGHTGOWN	953	n/a	n/a	0	0	0
897785	WORD	wordpools/wasnorm_wordpool_576.txt	LTP236	ltpFR2	18	5	SUNRISE	1407	n/a	n/a	0	0	0
900487	WORD	wordpools/wasnorm_wordpool_576.txt	LTP236	ltpFR2	18	5	PRINCE	1124	n/a	n/a	0	0	0
902940	WORD	wordpools/wasnorm_wordpool_576.txt	LTP236	ltpFR2	18	5	TOURIST	1488	n/a	n/a	0	0	0
904558	START	n/a	LTP236	ltpFR2	18	n/a	n/a	n/a	8	n/a	n/a	n/a	n/a
905739	DISTRACTOR	n/a	LTP236	ltpFR2	18	5	n/a	n/a	n/a	n/a	0	0	0
905744	PROB	n/a	LTP236	ltpFR2	18	n/a	n/a	n/a	8	7	3	2	2
907280	PROB	n/a	LTP236	ltpFR2	18	n/a	n/a	n/a	8	18	1	9	8
908276	PROB	n/a	LTP236	ltpFR2	18	n/a	n/a	n/a	8	19	1	9	9
909629	PROB	n/a	LTP236	ltpFR2	18	n/a	n/a	n/a	8	17	6	3	8
910681	PROB	n/a	LTP236	ltpFR2	18	n/a	n/a	n/a	8	14	2	4	8
912297	PROB	n/a	LTP236	ltpFR2	18	n/a	n/a	n/a	8	22	6	4	9
915149	PROB	n/a	LTP236	ltpFR2	18	n/a	n/a	n/a	8	19	7	7	5
916667	PROB	n/a	LTP236	ltpFR2	18	n/a	n/a	n/a	8	12	1	9	2
917670	PROB	n/a	LTP236	ltpFR2	18	n/a	n/a	n/a	8	21	5	9	7
919189	PROB	n/a	LTP236	ltpFR2	18	n/a	n/a	n/a	8	15	9	4	3
920137	PROB	n/a	LTP236	ltpFR2	18	n/a	n/a	n/a	8	17	9	2	6
921437	PROB	n/a	LTP236	ltpFR2	18	n/a	n/a	n/a	8	10	5	4	1
922856	PROB	n/a	LTP236	ltpFR2	18	n/a	n/a	n/a	8	24	9	9	6
924026	PROB	n/a	LTP236	ltpFR2	18	n/a	n/a	n/a	8	12	2	1	9
924977	PROB	n/a	LTP236	ltpFR2	18	n/a	n/a	n/a	8	11	2	7	2
926293	PROB	n/a	LTP236	ltpFR2	18	n/a	n/a	n/a	8	18	9	1	8
927175	STOP	n/a	LTP236	ltpFR2	18	n/a	n/a	n/a	8	n/a	n/a	n/a	n/a
930332	REC_START	n/a	LTP236	ltpFR2	18	5	n/a	n/a	n/a	n/a	0	0	0
930744	REC_WORD	wordpools/wasnorm_wordpool_576.txt	LTP236	ltpFR2	18	5	SUNRISE	1407	n/a	n/a	0	0	0
931702	REC_WORD	wordpools/wasnorm_wordpool_576.txt	LTP236	ltpFR2	18	5	PRINCE	1124	n/a	n/a	0	0	0
932451	REC_WORD	wordpools/wasnorm_wordpool_576.txt	LTP236	ltpFR2	18	5	TOURIST	1488	n/a	n/a	0	0	0
933404	REC_WORD	wordpools/wasnorm_wordpool_576.txt	LTP236	ltpFR2	18	5	BODY	145	n/a	n/a	0	0	0
934107	REC_WORD	wordpools/wasnorm_wordpool_576.txt	LTP236	ltpFR2	18	5	NIGHTGOWN	953	n/a	n/a	0	0	0
936625	REC_WORD	wordpools/wasnorm_wordpool_576.txt	LTP236	ltpFR2	18	5	HUSBAND	728	n/a	n/a	0	0	0
937350	REC_WORD	wordpools/wasnorm_wordpool_576.txt	LTP236	ltpFR2	18	5	SPOUSE	1358	n/a	n/a	0	0	0
939015	REC_WORD	wordpools/wasnorm_wordpool_576.txt	LTP236	ltpFR2	18	5	BLOUSE	139	n/a	n/a	0	0	0
940126	REC_WORD	wordpools/wasnorm_wordpool_576.txt	LTP236	ltpFR2	18	5	SKIRT	1319	n/a	n/a	0	0	0
942064	REC_WORD	wordpools/wasnorm_wordpool_576.txt	LTP236	ltpFR2	18	5	DANCER	437	n/a	n/a	0	0	0
944846	REC_WORD	wordpools/wasnorm_wordpool_576.txt	LTP236	ltpFR2	18	5	DUST	508	n/a	n/a	0	0	0
945701	REC_WORD	wordpools/wasnorm_wordpool_576.txt	LTP236	ltpFR2	18	5	LONDON	843	n/a	n/a	0	0	0
953272	REC_WORD	wordpools/wasnorm_wordpool_576.txt	LTP236	ltpFR2	18	5	TART	1436	n/a	n/a	0	0	0
958395	REC_WORD	wordpools/wasnorm_wordpool_576.txt	LTP236	ltpFR2	18	5	SUITCASE	1403	n/a	n/a	0	0	0
960254	REC_WORD	wordpools/wasnorm_wordpool_576.txt	LTP236	ltpFR2	18	5	KNAPSACK	783	n/a	n/a	0	0	0
962947	REC_WORD	wordpools/wasnorm_wordpool_576.txt	LTP236	ltpFR2	18	5	PIMPLE	1071	n/a	n/a	0	0	0
1001057	REC_WORD	wordpools/wasnorm_wordpool_576.txt	LTP236	ltpFR2	18	5	VELVET	1555	n/a	n/a	0	0	0
1003320	REC_WORD	wordpools/wasnorm_wordpool_576.txt	LTP236	ltpFR2	18	5	RUG	1215	n/a	n/a	0	0	0
1020769	WORD	wordpools/wasnorm_wordpool_576.txt	LTP236	ltpFR2	18	6	GALLON	618	n/a	n/a	0	0	0
1023210	WORD	wordpools/wasnorm_wordpool_576.txt	LTP236	ltpFR2	18	6	SEAFOOD	1260	n/a	n/a	0	0	0
1025975	WORD	wordpools/wasnorm_wordpool_576.txt	LTP236	ltpFR2	18	6	GRAPE	654	n/a	n/a	0	0	0
1028742	WORD	wordpools/wasnorm_wordpool_576.txt	LTP236	ltpFR2	18	6	SPARROW	1347	n/a	n/a	0	0	0
1031385	WORD	wordpools/wasnorm_wordpool_576.txt	LTP236	ltpFR2	18	6	PARENT	1013	n/a	n/a	0	0	0
1034047	WORD	wordpools/wasnorm_wordpool_576.txt	LTP236	ltpFR2	18	6	COUSIN	392	n/a	n/a	0	0	0
1036515	WORD	wordpools/wasnorm_wordpool_576.txt	LTP236	ltpFR2	18	6	GREASE	660	n/a	n/a	0	0	0
1038968	WORD	wordpools/wasnorm_wordpool_576.txt	LTP236	ltpFR2	18	6	ISLAND	745	n/a	n/a	0	0	0
1041519	WORD	wordpools/wasnorm_wordpool_576.txt	LTP236	ltpFR2	18	6	CANDY	230	n/a	n/a	0	0	0
1044273	WORD	wordpools/wasnorm_wordpool_576.txt	LTP236	ltpFR2	18	6	SCARF	1246	n/a	n/a	0	0	0
1046975	WORD	wordpools/wasnorm_wordpool_576.txt	LTP236	ltpFR2	18	6	CABIN	211	n/a	n/a	0	0	0
1049444	WORD	wordpools/wasnorm_wordpool_576.txt	LTP236	ltpFR2	18	6	BUNNY	198	n/a	n/a	0	0	0
1052112	WORD	wordpools/wasnorm_wordpool_576.txt	LTP236	ltpFR2	18	6	DAUGHTER	442	n/a	n/a	0	0	0
1054737	WORD	wordpools/wasnorm_wordpool_576.txt	LTP236	ltpFR2	18	6	LASER	801	n/a	n/a	0	0	0
1057458	WORD	wordpools/wasnorm_wordpool_576.txt	LTP236	ltpFR2	18	6	MATCH	878	n/a	n/a	0	0	0
1060160	WORD	wordpools/wasnorm_wordpool_576.txt	LTP236	ltpFR2	18	6	JUDGE	761	n/a	n/a	0	0	0
1062636	WORD	wordpools/wasnorm_wordpool_576.txt	LTP236	ltpFR2	18	6	GAVEL	627	n/a	n/a	0	0	0
1065373	WORD	wordpools/wasnorm_wordpool_576.txt	LTP236	ltpFR2	18	6	NEUTRON	947	n/a	n/a	0	0	0
1067800	WORD	wordpools/wasnorm_wordpool_576.txt	LTP236	ltpFR2	18	6	PADDLE	1000	n/a	n/a	0	0	0
1070369	WORD	wordpools/wasnorm_wordpool_576.txt	LTP236	ltpFR2	18	6	LAVA	804	n/a	n/a	0	0	0
1073171	WORD	wordpools/wasnorm_wordpool_576.txt	LTP236	ltpFR2	18	6	SLOPE	1328	n/a	n/a	0	0	0
1075974	WORD	wordpools/wasnorm_wordpool_576.txt	LTP236	ltpFR2	18	6	RAFT	1159	n/a	n/a	0	0	0
1078675	WORD	wordpools/wasnorm_wordpool_576.txt	LTP236	ltpFR2	18	6	MARKET	871	n/a	n/a	0	0	0
1081194	WORD	wordpools/wasnorm_wordpool_576.txt	LTP236	ltpFR2	18	6	BANKER	84	n/a	n/a	0	0	0
1082804	START	n/a	LTP236	ltpFR2	18	n/a	n/a	n/a	9	n/a	n/a	n/a	n/a
1083640	DISTRACTOR	n/a	LTP236	ltpFR2	18	6	n/a	n/a	n/a	n/a	0	0	0
1083646	PROB	n/a	LTP236	ltpFR2	18	n/a	n/a	n/a	9	15	4	2	9
1086405	PROB	n/a	LTP236	ltpFR2	18	n/a	n/a	n/a	9	19	3	8	8
1087757	PROB	n/a	LTP236	ltpFR2	18	n/a	n/a	n/a	9	14	4	7	3
1089357	PROB	n/a	LTP236	ltpFR2	18	n/a	n/a	n/a	9	13	7	4	2
1090825	PROB	n/a	LTP236	ltpFR2	18	n/a	n/a	n/a	9	16	7	1	8
1091992	PROB	n/a	LTP236	ltpFR2	18	n/a	n/a	n/a	9	14	1	5	8
1093027	PROB	n/a	LTP236	ltpFR2	18	n/a	n/a	n/a	9	5	1	3	1
1093877	PROB	n/a	LTP236	ltpFR2	18	n/a	n/a	n/a	9	16	2	5	9
1094879	PROB	n/a	LTP236	ltpFR2	18	n/a	n/a	n/a	9	13	1	4	8
1095830	PROB	n/a	LTP236	ltpFR2	18	n/a	n/a	n/a	9	10	1	8	1
1096765	PROB	n/a	LTP236	ltpFR2	18	n/a	n/a	n/a	9	20	8	6	6
1097848	PROB	n/a	LTP236	ltpFR2	18	n/a	n/a	n/a	9	20	9	9	2
1100100	PROB	n/a	LTP236	ltpFR2	18	n/a	n/a	n/a	9	11	6	3	2
1101152	PROB	n/a	LTP236	ltpFR2	18	n/a	n/a	n/a	9	14	4	4	6
1102367	PROB	n/a	LTP236	ltpFR2	18	n/a	n/a	n/a	9	19	2	8	9
1103335	PROB	n/a	LTP236	ltpFR2	18	n/a	n/a	n/a	9	18	4	9	5
1104619	PROB	n/a	LTP236	ltpFR2	18	n/a	n/a	n/a	9	17	7	9	1
1105911	STOP	n/a	LTP236	ltpFR2	18	n/a	n/a	n/a	9	n/a	n/a	n/a	n/a
1108572	REC_START	n/a	LTP236	ltpFR2	18	6	n/a	n/a	n/a	n/a	0	0	0
1109928	REC_WORD	wordpools/wasnorm_wordpool_576.txt	LTP236	ltpFR2	18	6	BANKER	84	n/a	n/a	0	0	0
1110727	REC_WORD	wordpools/wasnorm_wordpool_576.txt	LTP236	ltpFR2	18	6	JUDGE	761	n/a	n/a	0	0	0
1111630	REC_WORD	wordpools/wasnorm_wordpool_576.txt	LTP236	ltpFR2	18	6	MARKET	871	n/a	n/a	0	0	0
1112501	REC_WORD	wordpools/wasnorm_wordpool_576.txt	LTP236	ltpFR2	18	6	LOFT	840	n/a	n/a	0	0	0
1113463	REC_WORD	wordpools/wasnorm_wordpool_576.txt	LTP236	ltpFR2	18	6	PADDLE	1000	n/a	n/a	0	0	0
1116008	REC_WORD	wordpools/wasnorm_wordpool_576.txt	LTP236	ltpFR2	18	6	RAFT	1159	n/a	n/a	0	0	0
1118687	REC_WORD	wordpools/wasnorm_wordpool_576.txt	LTP236	ltpFR2	18	6	ISLAND	745	n/a	n/a	0	0	0
1119510	REC_WORD	wordpools/wasnorm_wordpool_576.txt	LTP236	ltpFR2	18	6	BUNNY	198	n/a	n/a	0	0	0
1120446	REC_WORD	wordpools/wasnorm_wordpool_576.txt	LTP236	ltpFR2	18	6	COUSIN	392	n/a	n/a	0	0	0
1121413	REC_WORD	wordpools/wasnorm_wordpool_576.txt	LTP236	ltpFR2	18	6	PARENT	1013	n/a	n/a	0	0	0
1122550	REC_WORD	wordpools/wasnorm_wordpool_576.txt	LTP236	ltpFR2	18	6	DAUGHTER	442	n/a	n/a	0	0	0
1124420	REC_WORD	wordpools/wasnorm_wordpool_576.txt	LTP236	ltpFR2	18	6	LAVA	804	n/a	n/a	0	0	0
1125449	REC_WORD	wordpools/wasnorm_wordpool_576.txt	LTP236	ltpFR2	18	6	GAVEL	627	n/a	n/a	0	0	0
1145362	REC_WORD	wordpools/wasnorm_wordpool_576.txt	LTP236	ltpFR2	18	6	SPARROW	1347	n/a	n/a	0	0	0
1146617	REC_WORD	wordpools/wasnorm_wordpool_576.txt	LTP236	ltpFR2	18	6	SEAFOOD	1260	n/a	n/a	0	0	0
1148500	REC_WORD	wordpools/wasnorm_wordpool_576.txt	LTP236	ltpFR2	18	6	GREASE	660	n/a	n/a	0	0	0
1149258	REC_WORD	wordpools/wasnorm_wordpool_576.txt	LTP236	ltpFR2	18	6	CANDY	230	n/a	n/a	0	0	0
1155399	REC_WORD	wordpools/wasnorm_wordpool_576.txt	LTP236	ltpFR2	18	6	GRAPE	654	n/a	n/a	0	0	0
1157030	REC_WORD	wordpools/wasnorm_wordpool_576.txt	LTP236	ltpFR2	18	6	GALLON	618	n/a	n/a	0	0	0
1199031	DISTRACTOR	n/a	LTP236	ltpFR2	18	7	n/a	n/a	n/a	n/a	0	0	0
1199031	START	n/a	LTP236	ltpFR2	18	n/a	n/a	n/a	10	n/a	n/a	n/a	n/a
1199045	PROB	n/a	LTP236	ltpFR2	18	n/a	n/a	n/a	10	12	1	4	7
1201047	PROB	n/a	LTP236	ltpFR2	18	n/a	n/a	n/a	10	13	5	7	1
1202014	PROB	n/a	LTP236	ltpFR2	18	n/a	n/a	n/a	10	16	6	1	9
1203116	PROB	n/a	LTP236	ltpFR2	18	n/a	n/a	n/a	10	20	7	5	8
1204250	PROB	n/a	LTP236	ltpFR2	18	n/a	n/a	n/a	10	14	1	7	6
1206168	PROB	n/a	LTP236	ltpFR2	18	n/a	n/a	n/a	10	21	9	4	8
1207386	PROB	n/a	LTP236	ltpFR2	18	n/a	n/a	n/a	10	16	8	5	3
1208437	PROB	n/a	LTP236	ltpFR2	18	n/a	n/a	n/a	10	12	4	7	1
1210037	PROB	n/a	LTP236	ltpFR2	18	n/a	n/a	n/a	10	12	4	6	2
1211105	PROB	n/a	LTP236	ltpFR2	18	n/a	n/a	n/a	10	12	5	3	4
1212124	PROB	n/a	LTP236	ltpFR2	18	n/a	n/a	n/a	10	12	4	3	5
1213208	PROB	n/a	LTP236	ltpFR2	18	n/a	n/a	n/a	10	23	8	9	6
1215158	PROB	n/a	LTP236	ltpFR2	18	n/a	n/a	n/a	10	12	4	5	3
1216143	PROB	n/a	LTP236	ltpFR2	18	n/a	n/a	n/a	10	15	6	4	5
1217193	PROB	n/a	LTP236	ltpFR2	18	n/a	n/a	n/a	10	10	2	5	3
1218811	PROB	n/a	LTP236	ltpFR2	18	n/a	n/a	n/a	10	14	5	7	2
1219897	PROB	n/a	LTP236	ltpFR2	18	n/a	n/a	n/a	10	16	5	4	7
1221031	PROB	n/a	LTP236	ltpFR2	18	n/a	n/a	n/a	10	16	4	8	4
1221987	STOP	n/a	LTP236	ltpFR2	18	n/a	n/a	n/a	10	n/a	n/a	n/a	n/a
1224049	WORD	wordpools/wasnorm_wordpool_576.txt	LTP236	ltpFR2	18	7	CATTLE	261	n/a	n/a	0	0	0
1226753	WORD	wordpools/wasnorm_wordpool_576.txt	LTP236	ltpFR2	18	7	LOFT	840	n/a	n/a	0	0	0
1229521	WORD	wordpools/wasnorm_wordpool_576.txt	LTP236	ltpFR2	18	7	BINDER	127	n/a	n/a	0	0	0
1232040	WORD	wordpools/wasnorm_wordpool_576.txt	LTP236	ltpFR2	18	7	JURY	766	n/a	n/a	0	0	0
1234858	WORD	wordpools/wasnorm_wordpool_576.txt	LTP236	ltpFR2	18	7	SUPPER	1411	n/a	n/a	0	0	0
1237411	WORD	wordpools/wasnorm_wordpool_576.txt	LTP236	ltpFR2	18	7	CELLAR	267	n/a	n/a	0	0	0
1239996	WORD	wordpools/wasnorm_wordpool_576.txt	LTP236	ltpFR2	18	7	SILK	1307	n/a	n/a	0	0	0
1242700	WORD	wordpools/wasnorm_wordpool_576.txt	LTP236	ltpFR2	18	7	CROWN	415	n/a	n/a	0	0	0
1245284	WORD	wordpools/wasnorm_wordpool_576.txt	LTP236	ltpFR2	18	7	EUROPE	541	n/a	n/a	0	0	0
1247891	WORD	wordpools/wasnorm_wordpool_576.txt	LTP236	ltpFR2	18	7	CREVICE	405	n/a	n/a	0	0	0
1250455	WORD	wordpools/wasnorm_wordpool_576.txt	LTP236	ltpFR2	18	7	WRIST	1626	n/a	n/a	0	0	0
1252945	WORD	wordpools/wasnorm_wordpool_576.txt	LTP236	ltpFR2	18	7	GLOVE	642	n/a	n/a	0	0	0
1255442	WORD	wordpools/wasnorm_wordpool_576.txt	LTP236	ltpFR2	18	7	DONOR	485	n/a	n/a	0	0	0
1258065	WORD	wordpools/wasnorm_wordpool_576.txt	LTP236	ltpFR2	18	7	QUEEN	1149	n/a	n/a	0	0	0
1260818	WORD	wordpools/wasnorm_wordpool_576.txt	LTP236	ltpFR2	18	7	POSSUM	1112	n/a	n/a	0	0	0
1263432	WORD	wordpools/wasnorm_wordpool_576.txt	LTP236	ltpFR2	18	7	SEAGULL	1261	n/a	n/a	0	0	0
1265989	WORD	wordpools/wasnorm_wordpool_576.txt	LTP236	ltpFR2	18	7	GUITAR	670	n/a	n/a	0	0	0
1268486	WORD	wordpools/wasnorm_wordpool_576.txt	LTP236	ltpFR2	18	7	WAITER	1580	n/a	n/a	0	0	0
1271055	WORD	wordpools/wasnorm_wordpool_576.txt	LTP236	ltpFR2	18	7	HUMAN	726	n/a	n/a	0	0	0
1273479	WORD	wordpools/wasnorm_wordpool_576.txt	LTP236	ltpFR2	18	7	JUNGLE	764	n/a	n/a	0	0	0
1276281	WORD	wordpools/wasnorm_wordpool_576.txt	LTP236	ltpFR2	18	7	SLUG	1329	n/a	n/a	0	0	0
1278917	WORD	wordpools/wasnorm_wordpool_576.txt	LTP236	ltpFR2	18	7	SPIDER	1351	n/a	n/a	0	0	0
1281396	WORD	wordpools/wasnorm_wordpool_576.txt	LTP236	ltpFR2	18	7	TABLE	1426	n/a	n/a	0	0	0
1284115	WORD	wordpools/wasnorm_wordpool_576.txt	LTP236	ltpFR2	18	7	COUCH	386	n/a	n/a	0	0	0
1285723	START	n/a	LTP236	ltpFR2	18	n/a	n/a	n/a	11	n/a	n/a	n/a	n/a
1286921	DISTRACTOR	n/a	LTP236	ltpFR2	18	7	n/a	n/a	n/a	n/a	0	0	0
1286933	PROB	n/a	LTP236	ltpFR2	18	n/a	n/a	n/a	11	15	5	8	2
1289184	PROB	n/a	LTP236	ltpFR2	18	n/a	n/a	n/a	11	16	8	7	1
1290502	PROB	n/a	LTP236	ltpFR2	18	n/a	n/a	n/a	11	16	8	1	7
1291670	PROB	n/a	LTP236	ltpFR2	18	n/a	n/a	n/a	11	18	6	3	9
1292754	PROB	n/a	LTP236	ltpFR2	18	n/a	n/a	n/a	11	15	3	3	9
1293939	PROB	n/a	LTP236	ltpFR2	18	n/a	n/a	n/a	11	17	3	7	7
1295005	PROB	n/a	LTP236	ltpFR2	18	n/a	n/a	n/a	11	17	2	7	8
1296258	PROB	n/a	LTP236	ltpFR2	18	n/a	n/a	n/a	11	10	5	3	2
1299310	PROB	n/a	LTP236	ltpFR2	18	n/a	n/a	n/a	11	19	4	6	9
1300294	PROB	n/a	LTP236	ltpFR2	18	n/a	n/a	n/a	11	11	5	5	1
1301211	PROB	n/a	LTP236	ltpFR2	18	n/a	n/a	n/a	11	12	4	6	2
1302262	PROB	n/a	LTP236	ltpFR2	18	n/a	n/a	n/a	11	20	5	6	9
1303913	PROB	n/a	LTP236	ltpFR2	18	n/a	n/a	n/a	11	12	3	5	4
1305147	PROB	n/a	LTP236	ltpFR2	18	n/a	n/a	n/a	11	11	2	5	4
1306415	PROB	n/a	LTP236	ltpFR2	18	n/a	n/a	n/a	11	18	5	5	8
1307384	PROB	n/a	LTP236	ltpFR2	18	n/a	n/a	n/a	11	1	2	3	8
1309167	STOP	n/a	LTP236	ltpFR2	18	n/a	n/a	n/a	11	n/a	n/a	n/a	n/a
1311618	REC_START	n/a	LTP236	ltpFR2	18	7	n/a	n/a	n/a	n/a	0	0	0
1312228	REC_WORD	wordpools/wasnorm_wordpool_576.txt	LTP236	ltpFR2	18	7	WAITER	1580	n/a	n/a	0	0	0
1312963	REC_WORD	wordpools/wasnorm_wordpool_576.txt	LTP236	ltpFR2	18	7	QUEEN	1149	n/a	n/a	0	0	0
1313822	REC_WORD	wordpools/wasnorm_wordpool_576.txt	LTP236	ltpFR2	18	7	TABLE	1426	n/a	n/a	0	0	0
1314540	REC_WORD	wordpools/wasnorm_wordpool_576.txt	LTP236	ltpFR2	18	7	SLUG	1329	n/a	n/a	0	0	0
1318056	REC_WORD	wordpools/wasnorm_wordpool_576.txt	LTP236	ltpFR2	18	7	JUNGLE	764	n/a	n/a	0	0	0
1320689	REC_WORD	wordpools/wasnorm_wordpool_576.txt	LTP236	ltpFR2	18	7	COUCH	386	n/a	n/a	0	0	0
1322458	REC_WORD	wordpools/wasnorm_wordpool_576.txt	LTP236	ltpFR2	18	7	HUMAN	726	n/a	n/a	0	0	0
1323862	REC_WORD	wordpools/wasnorm_wordpool_576.txt	LTP236	ltpFR2	18	7	CREVICE	405	n/a	n/a	0	0	0
1402075	WORD	wordpools/wasnorm_wordpool_576.txt	LTP236	ltpFR2	18	8	PENGUIN	1044	n/a	n/a	0	0	0
1404844	WORD	wordpools/wasnorm_wordpool_576.txt	LTP236	ltpFR2	18	8	CANYON	235	n/a	n/a	0	0	0
1407662	WORD	wordpools/wasnorm_wordpool_576.txt	LTP236	ltpFR2	18	8	CLAM	315	n/a	n/a	0	0	0
1410465	WORD	wordpools/wasnorm_wordpool_576.txt	LTP236	ltpFR2	18	8	CRAB	397	n/a	n/a	0	0	0
1413150	WORD	wordpools/wasnorm_wordpool_576.txt	LTP236	ltpFR2	18	8	QUAIL	1147	n/a	n/a	0	0	0
1415903	WORD	wordpools/wasnorm_wordpool_576.txt	LTP236	ltpFR2	18	8	CATCHER	258	n/a	n/a	0	0	0
1418421	WORD	wordpools/wasnorm_wordpool_576.txt	LTP236	ltpFR2	18	8	TREAT	1501	n/a	n/a	0	0	0
1420924	WORD	wordpools/wasnorm_wordpool_576.txt	LTP236	ltpFR2	18	8	FRANCE	601	n/a	n/a	0	0	0
1423476	WORD	wordpools/wasnorm_wordpool_576.txt	LTP236	ltpFR2	18	8	DONKEY	484	n/a	n/a	0	0	0
1426045	WORD	wordpools/wasnorm_wordpool_576.txt	LTP236	ltpFR2	18	8	BABY	64	n/a	n/a	0	0	0
1428597	WORD	wordpools/wasnorm_wordpool_576.txt	LTP236	ltpFR2	18	8	TROMBONE	1508	n/a	n/a	0	0	0
1431166	WORD	wordpools/wasnorm_wordpool_576.txt	LTP236	ltpFR2	18	8	MACHINE	852	n/a	n/a	0	0	0
1433985	WORD	wordpools/wasnorm_wordpool_576.txt	LTP236	ltpFR2	18	8	ROBOT	1200	n/a	n/a	0	0	0
1436504	WORD	wordpools/wasnorm_wordpool_576.txt	LTP236	ltpFR2	18	8	PUDDING	1139	n/a	n/a	0	0	0
1438989	WORD	wordpools/wasnorm_wordpool_576.txt	LTP236	ltpFR2	18	8	INFANT	737	n/a	n/a	0	0	0
1441524	WORD	wordpools/wasnorm_wordpool_576.txt	LTP236	ltpFR2	18	8	SUMMIT	1405	n/a	n/a	0	0	0
1444277	WORD	wordpools/wasnorm_wordpool_576.txt	LTP236	ltpFR2	18	8	TYPIST	1532	n/a	n/a	0	0	0
1446711	WORD	wordpools/wasnorm_wordpool_576.txt	LTP236	ltpFR2	18	8	BEEF	113	n/a	n/a	0	0	0
1449263	WORD	wordpools/wasnorm_wordpool_576.txt	LTP236	ltpFR2	18	8	COIN	343	n/a	n/a	0	0	0
1451883	WORD	wordpools/wasnorm_wordpool_576.txt	LTP236	ltpFR2	18	8	DRILL	497	n/a	n/a	0	0	0
1454584	WORD	wordpools/wasnorm_wordpool_576.txt	LTP236	ltpFR2	18	8	TURKEY	1520	n/a	n/a	0	0	0
1457387	WORD	wordpools/wasnorm_wordpool_576.txt	LTP236	ltpFR2	18	8	LION	827	n/a	n/a	0	0	0
1460139	WORD	wordpools/wasnorm_wordpool_576.txt	LTP236	ltpFR2	18	8	BOX	159	n/a	n/a	0	0	0
1462891	WORD	wordpools/wasnorm_wordpool_576.txt	LTP236	ltpFR2	18	8	MAILBOX	857	n/a	n/a	0	0	0
1464497	START	n/a	LTP236	ltpFR2	18	n/a	n/a	n/a	12	n/a	n/a	n/a	n/a
1465405	DISTRACTOR	n/a	LTP236	ltpFR2	18	8	n/a	n/a	n/a	n/a	0	0	0
1465410	PROB	n/a	LTP236	ltpFR2	18	n/a	n/a	n/a	12	13	6	4	3
1467194	PROB	n/a	LTP236	ltpFR2	18	n/a	n/a	n/a	12	7	5	1	1
1468195	PROB	n/a	LTP236	ltpFR2	18	n/a	n/a	n/a	12	12	4	2	6
1469278	PROB	n/a	LTP236	ltpFR2	18	n/a	n/a	n/a	12	7	4	2	2
1470545	PROB	n/a	LTP236	ltpFR2	18	n/a	n/a	n/a	12	17	6	9	2
1472481	PROB	n/a	LTP236	ltpFR2	18	n/a	n/a	n/a	12	10	6	2	2
1473648	PROB	n/a	LTP236	ltpFR2	18	n/a	n/a	n/a	12	12	3	4	5
1474533	PROB	n/a	LTP236	ltpFR2	18	n/a	n/a	n/a	12	16	7	6	3
1475667	PROB	n/a	LTP236	ltpFR2	18	n/a	n/a	n/a	12	10	2	5	3
1476986	PROB	n/a	LTP236	ltpFR2	18	n/a	n/a	n/a	12	11	1	4	6
1478002	PROB	n/a	LTP236	ltpFR2	18	n/a	n/a	n/a	12	24	9	8	7
1479270	PROB	n/a	LTP236	ltpFR2	18	n/a	n/a	n/a	12	14	2	8	4
1480272	PROB	n/a	LTP236	ltpFR2	18	n/a	n/a	n/a	12	17	3	6	8
1481338	PROB	n/a	LTP236	ltpFR2	18	n/a	n/a	n/a	12	11	3	2	6
1483223	PROB	n/a	LTP236	ltpFR2	18	n/a	n/a	n/a	12	15	3	5	7
1484759	PROB	n/a	LTP236	ltpFR2	18	n/a	n/a	n/a	12	18	6	6	6
1486990	STOP	n/a	LTP236	ltpFR2	18	n/a	n/a	n/a	12	n/a	n/a	n/a	n/a
1490429	REC_START	n/a	LTP236	ltpFR2	18	8	n/a	n/a	n/a	n/a	0	0	0
1491034	REC_WORD	wordpools/wasnorm_wordpool_576.txt	LTP236	ltpFR2	18	8	LION	827	n/a	n/a	0	0	0
1492030	REC_WORD	wordpools/wasnorm_wordpool_576.txt	LTP236	ltpFR2	18	8	BOX	159	n/a	n/a	0	0	0
1493038	REC_WORD	wordpools/wasnorm_wordpool_576.txt	LTP236	ltpFR2	18	8	MAILBOX	857	n/a	n/a	0	0	0
1494201	REC_WORD	wordpools/wasnorm_wordpool_576.txt	LTP236	ltpFR2	18	8	TROMBONE	1508	n/a	n/a	0	0	0
1498820	REC_WORD	wordpools/wasnorm_wordpool_576.txt	LTP236	ltpFR2	18	8	BABY	64	n/a	n/a	0	0	0
1499631	REC_WORD	wordpools/wasnorm_wordpool_576.txt	LTP236	ltpFR2	18	8	INFANT	737	n/a	n/a	0	0	0
1500373	REC_WORD	wordpools/wasnorm_wordpool_576.txt	LTP236	ltpFR2	18	8	FRANCE	601	n/a	n/a	0	0	0
1508764	REC_WORD	wordpools/wasnorm_wordpool_576.txt	LTP236	ltpFR2	18	8	TURKEY	1520	n/a	n/a	0	0	0
1509856	REC_WORD	wordpools/wasnorm_wordpool_576.txt	LTP236	ltpFR2	18	8	BEEF	113	n/a	n/a	0	0	0
1510760	REC_WORD	wordpools/wasnorm_wordpool_576.txt	LTP236	ltpFR2	18	8	PUDDING	1139	n/a	n/a	0	0	0
1560690	REC_WORD	wordpools/wasnorm_wordpool_576.txt	LTP236	ltpFR2	18	8	PENGUIN	1044	n/a	n/a	0	0	0
1566968	REST_REWET	n/a	LTP236	ltpFR2	18	8	n/a	n/a	n/a	n/a	0	0	0
1862329	DISTRACTOR	n/a	LTP236	ltpFR2	18	9	n/a	n/a	n/a	n/a	0	0	0
1862329	START	n/a	LTP236	ltpFR2	18	n/a	n/a	n/a	13	n/a	n/a	n/a	n/a
1862344	PROB	n/a	LTP236	ltpFR2	18	n/a	n/a	n/a	13	15	7	7	1
1863742	PROB	n/a	LTP236	ltpFR2	18	n/a	n/a	n/a	13	13	5	6	2
1864797	PROB	n/a	LTP236	ltpFR2	18	n/a	n/a	n/a	13	6	1	3	2
1865994	PROB	n/a	LTP236	ltpFR2	18	n/a	n/a	n/a	13	11	6	2	3
1866945	PROB	n/a	LTP236	ltpFR2	18	n/a	n/a	n/a	13	15	8	1	6
1868113	PROB	n/a	LTP236	ltpFR2	18	n/a	n/a	n/a	13	13	3	6	4
1869263	PROB	n/a	LTP236	ltpFR2	18	n/a	n/a	n/a	13	17	7	9	1
1870919	PROB	n/a	LTP236	ltpFR2	18	n/a	n/a	n/a	13	20	9	9	2
1872049	PROB	n/a	LTP236	ltpFR2	18	n/a	n/a	n/a	13	21	9	7	5
1873133	PROB	n/a	LTP236	ltpFR2	18	n/a	n/a	n/a	13	18	9	2	7
1874567	PROB	n/a	LTP236	ltpFR2	18	n/a	n/a	n/a	13	19	7	6	6
1875684	PROB	n/a	LTP236	ltpFR2	18	n/a	n/a	n/a	13	17	9	6	2
1876805	PROB	n/a	LTP236	ltpFR2	18	n/a	n/a	n/a	13	20	8	7	5
1877887	PROB	n/a	LTP236	ltpFR2	18	n/a	n/a	n/a	13	19	8	8	3
1878892	PROB	n/a	LTP236	ltpFR2	18	n/a	n/a	n/a	13	18	8	1	9
1879989	PROB	n/a	LTP236	ltpFR2	18	n/a	n/a	n/a	13	14	3	8	3
1880960	PROB	n/a	LTP236	ltpFR2	18	n/a	n/a	n/a	13	23	7	8	8
1882158	PROB	n/a	LTP236	ltpFR2	18	n/a	n/a	n/a	13	19	9	2	8
1883125	PROB	n/a	LTP236	ltpFR2	18	n/a	n/a	n/a	13	21	8	9	4
1885253	STOP	n/a	LTP236	ltpFR2	18	n/a	n/a	n/a	13	n/a	n/a	n/a	n/a
1887414	WORD	wordpools/wasnorm_wordpool_576.txt	LTP236	ltpFR2	18	9	COOK	372	n/a	n/a	0	0	0
1889866	WORD	wordpools/wasnorm_wordpool_576.txt	LTP236	ltpFR2	18	9	CAFE	216	n/a	n/a	0	0	0
1892302	WORD	wordpools/wasnorm_wordpool_576.txt	LTP236	ltpFR2	18	9	BEAKER	104	n/a	n/a	0	0	0
1894904	WORD	wordpools/wasnorm_wordpool_576.txt	LTP236	ltpFR2	18	9	POPCORN	1104	n/a	n/a	0	0	0
1897522	WORD	wordpools/wasnorm_wordpool_576.txt	LTP236	ltpFR2	18	9	BUGGY	188	n/a	n/a	0	0	0
1900142	WORD	wordpools/wasnorm_wordpool_576.txt	LTP236	ltpFR2	18	9	BARLEY	88	n/a	n/a	0	0	0
1902793	WORD	wordpools/wasnorm_wordpool_576.txt	LTP236	ltpFR2	18	9	BREAST	171	n/a	n/a	0	0	0
1905530	WORD	wordpools/wasnorm_wordpool_576.txt	LTP236	ltpFR2	18	9	ROOSTER	1209	n/a	n/a	0	0	0
1907965	WORD	wordpools/wasnorm_wordpool_576.txt	LTP236	ltpFR2	18	9	DRAWING	494	n/a	n/a	0	0	0
1910665	WORD	wordpools/wasnorm_wordpool_576.txt	LTP236	ltpFR2	18	9	RECORD	1176	n/a	n/a	0	0	0
1913136	WORD	wordpools/wasnorm_wordpool_576.txt	LTP236	ltpFR2	18	9	GRILL	661	n/a	n/a	0	0	0
1915838	WORD	wordpools/wasnorm_wordpool_576.txt	LTP236	ltpFR2	18	9	TWIG	1527	n/a	n/a	0	0	0
1918556	WORD	wordpools/wasnorm_wordpool_576.txt	LTP236	ltpFR2	18	9	FRECKLE	602	n/a	n/a	0	0	0
1921209	WORD	wordpools/wasnorm_wordpool_576.txt	LTP236	ltpFR2	18	9	FIREMAN	569	n/a	n/a	0	0	0
1924011	WORD	wordpools/wasnorm_wordpool_576.txt	LTP236	ltpFR2	18	9	BANQUET	86	n/a	n/a	0	0	0
1926830	WORD	wordpools/wasnorm_wordpool_576.txt	LTP236	ltpFR2	18	9	OZONE	996	n/a	n/a	0	0	0
1929615	WORD	wordpools/wasnorm_wordpool_576.txt	LTP236	ltpFR2	18	9	MISTER	901	n/a	n/a	0	0	0
1932418	WORD	wordpools/wasnorm_wordpool_576.txt	LTP236	ltpFR2	18	9	BACKBONE	66	n/a	n/a	0	0	0
1935170	WORD	wordpools/wasnorm_wordpool_576.txt	LTP236	ltpFR2	18	9	FLEET	578	n/a	n/a	0	0	0
1937939	WORD	wordpools/wasnorm_wordpool_576.txt	LTP236	ltpFR2	18	9	FIREPLACE	570	n/a	n/a	0	0	0
1940508	WORD	wordpools/wasnorm_wordpool_576.txt	LTP236	ltpFR2	18	9	BOARD	143	n/a	n/a	0	0	0
1943043	WORD	wordpools/wasnorm_wordpool_576.txt	LTP236	ltpFR2	18	9	FRAME	600	n/a	n/a	0	0	0
1945728	WORD	wordpools/wasnorm_wordpool_576.txt	LTP236	ltpFR2	18	9	FLESH	579	n/a	n/a	0	0	0
1948314	WORD	wordpools/wasnorm_wordpool_576.txt	LTP236	ltpFR2	18	9	BEAVER	109	n/a	n/a	0	0	0
1949919	START	n/a	LTP236	ltpFR2	18	n/a	n/a	n/a	14	n/a	n/a	n/a	n/a
1951104	DISTRACTOR	n/a	LTP236	ltpFR2	18	9	n/a	n/a	n/a	n/a	0	0	0
1951116	PROB	n/a	LTP236	ltpFR2	18	n/a	n/a	n/a	14	14	8	3	3
1952967	PROB	n/a	LTP236	ltpFR2	18	n/a	n/a	n/a	14	22	7	9	6
1955019	PROB	n/a	LTP236	ltpFR2	18	n/a	n/a	n/a	14	14	5	3	6
1956086	PROB	n/a	LTP236	ltpFR2	18	n/a	n/a	n/a	14	19	4	7	8
1957154	PROB	n/a	LTP236	ltpFR2	18	n/a	n/a	n/a	14	11	7	3	1
1958653	PROB	n/a	LTP236	ltpFR2	18	n/a	n/a	n/a	14	11	5	4	2
1960523	PROB	n/a	LTP236	ltpFR2	18	n/a	n/a	n/a	14	13	9	2	2
1962241	PROB	n/a	LTP236	ltpFR2	18	n/a	n/a	n/a	14	18	6	3	9
1963425	PROB	n/a	LTP236	ltpFR2	18	n/a	n/a	n/a	14	11	2	5	4
1965677	PROB	n/a	LTP236	ltpFR2	18	n/a	n/a	n/a	14	12	3	8	1
1967312	PROB	n/a	LTP236	ltpFR2	18	n/a	n/a	n/a	14	9	3	1	5
1968445	PROB	n/a	LTP236	ltpFR2	18	n/a	n/a	n/a	14	12	5	1	6
1969864	PROB	n/a	LTP236	ltpFR2	18	n/a	n/a	n/a	14	12	2	7	3
1972265	PROB	n/a	LTP236	ltpFR2	18	n/a	n/a	n/a	14	14	3	9	2
1973329	STOP	n/a	LTP236	ltpFR2	18	n/a	n/a	n/a	14	n/a	n/a	n/a	n/a
1975719	REC_START	n/a	LTP236	ltpFR2	18	9	n/a	n/a	n/a	n/a	0	0	0
1976519	REC_WORD	wordpools/wasnorm_wordpool_576.txt	LTP236	ltpFR2	18	9	BOARD	143	n/a	n/a	0	0	0
1977045	REC_WORD	wordpools/wasnorm_wordpool_576.txt	LTP236	ltpFR2	18	9	FRAME	600	n/a	n/a	0	0	0
1977834	REC_WORD	wordpools/wasnorm_wordpool_576.txt	LTP236	ltpFR2	18	9	FLESH	579	n/a	n/a	0	0	0
1979041	REC_WORD	wordpools/wasnorm_wordpool_576.txt	LTP236	ltpFR2	18	9	BEAVER	109	n/a	n/a	0	0	0
1980097	REC_WORD	wordpools/wasnorm_wordpool_576.txt	LTP236	ltpFR2	18	9	BEAKER	104	n/a	n/a	0	0	0
1980814	REC_WORD	wordpools/wasnorm_wordpool_576.txt	LTP236	ltpFR2	18	9	FIREMAN	569	n/a	n/a	0	0	0
1981686	REC_WORD	wordpools/wasnorm_wordpool_576.txt	LTP236	ltpFR2	18	9	FIREPLACE	570	n/a	n/a	0	0	0
1984273	REC_WORD	wordpools/wasnorm_wordpool_576.txt	LTP236	ltpFR2	18	9	BANQUET	86	n/a	n/a	0	0	0
1986612	REC_WORD	wordpools/wasnorm_wordpool_576.txt	LTP236	ltpFR2	18	9	FLEET	578	n/a	n/a	0	0	0
2066157	WORD	wordpools/wasnorm_wordpool_576.txt	LTP236	ltpFR2	18	10	GHETTO	633	n/a	n/a	0	0	0
2068621	WORD	wordpools/wasnorm_wordpool_576.txt	LTP236	ltpFR2	18	10	CASHIER	254	n/a	n/a	0	0	0
2071291	WORD	wordpools/wasnorm_wordpool_576.txt	LTP236	ltpFR2	18	10	BROOK	177	n/a	n/a	0	0	0
2073893	WORD	wordpools/wasnorm_wordpool_576.txt	LTP236	ltpFR2	18	10	UMPIRE	1535	n/a	n/a	0	0	0
2076533	WORD	wordpools/wasnorm_wordpool_576.txt	LTP236	ltpFR2	18	10	COLONEL	348	n/a	n/a	0	0	0
2078964	WORD	wordpools/wasnorm_wordpool_576.txt	LTP236	ltpFR2	18	10	RIVER	1194	n/a	n/a	0	0	0
2081586	WORD	wordpools/wasnorm_wordpool_576.txt	LTP236	ltpFR2	18	10	YACHT	1629	n/a	n/a	0	0	0
2084373	WORD	wordpools/wasnorm_wordpool_576.txt	LTP236	ltpFR2	18	10	COCKTAIL	338	n/a	n/a	0	0	0
2087171	WORD	wordpools/wasnorm_wordpool_576.txt	LTP236	ltpFR2	18	10	GROUND	666	n/a	n/a	0	0	0
2089923	WORD	wordpools/wasnorm_wordpool_576.txt	LTP236	ltpFR2	18	10	WORKER	1621	n/a	n/a	0	0	0
2092642	WORD	wordpools/wasnorm_wordpool_576.txt	LTP236	ltpFR2	18	10	SERVER	1272	n/a	n/a	0	0	0
2095361	WORD	wordpools/wasnorm_wordpool_576.txt	LTP236	ltpFR2	18	10	HOSTESS	723	n/a	n/a	0	0	0
2097997	WORD	wordpools/wasnorm_wordpool_576.txt	LTP236	ltpFR2	18	10	HAMPER	682	n/a	n/a	0	0	0
2100615	WORD	wordpools/wasnorm_wordpool_576.txt	LTP236	ltpFR2	18	10	COSTUME	383	n/a	n/a	0	0	0
2103368	WORD	wordpools/wasnorm_wordpool_576.txt	LTP236	ltpFR2	18	10	MATTRESS	879	n/a	n/a	0	0	0
2105954	WORD	wordpools/wasnorm_wordpool_576.txt	LTP236	ltpFR2	18	10	JELLO	754	n/a	n/a	0	0	0
2108572	WORD	wordpools/wasnorm_wordpool_576.txt	LTP236	ltpFR2	18	10	LIPSTICK	829	n/a	n/a	0	0	0
2111125	WORD	wordpools/wasnorm_wordpool_576.txt	LTP236	ltpFR2	18	10	MAPLE	866	n/a	n/a	0	0	0
2113777	WORD	wordpools/wasnorm_wordpool_576.txt	LTP236	ltpFR2	18	10	RACKET	1155	n/a	n/a	0	0	0
2116562	WORD	wordpools/wasnorm_wordpool_576.txt	LTP236	ltpFR2	18	10	HOUND	724	n/a	n/a	0	0	0
2119232	WORD	wordpools/wasnorm_wordpool_576.txt	LTP236	ltpFR2	18	10	MARINE	869	n/a	n/a	0	0	0
2121885	WORD	wordpools/wasnorm_wordpool_576.txt	LTP236	ltpFR2	18	10	EXPERT	543	n/a	n/a	0	0	0
2124520	WORD	wordpools/wasnorm_wordpool_576.txt	LTP236	ltpFR2	18	10	NURSE	963	n/a	n/a	0	0	0
2127089	WORD	wordpools/wasnorm_wordpool_576.txt	LTP236	ltpFR2	18	10	PUPPY	1144	n/a	n/a	0	0	0
2128707	START	n/a	LTP236	ltpFR2	18	n/a	n/a	n/a	15	n/a	n/a	n/a	n/a
2129552	DISTRACTOR	n/a	LTP236	ltpFR2	18	10	n/a	n/a	n/a	n/a	0	0	0
2129557	PROB	n/a	LTP236	ltpFR2	18	n/a	n/a	n/a	15	14	9	1	4
2131227	PROB	n/a	LTP236	ltpFR2	18	n/a	n/a	n/a	15	17	8	8	1
2132310	PROB	n/a	LTP236	ltpFR2	18	n/a	n/a	n/a	15	10	1	4	5
2133277	PROB	n/a	LTP236	ltpFR2	18	n/a	n/a	n/a	15	17	8	8	1
2134314	PROB	n/a	LTP236	ltpFR2	18	n/a	n/a	n/a	15	17	1	9	7
2135664	PROB	n/a	LTP236	ltpFR2	18	n/a	n/a	n/a	15	18	9	4	5
2137547	PROB	n/a	LTP236	ltpFR2	18	n/a	n/a	n/a	15	16	4	6	6
2138782	PROB	n/a	LTP236	ltpFR2	18	n/a	n/a	n/a	15	24	8	7	9
2140300	PROB	n/a	LTP236	ltpFR2	18	n/a	n/a	n/a	15	14	2	9	3
2141336	PROB	n/a	LTP236	ltpFR2	18	n/a	n/a	n/a	15	16	7	4	5
2142886	PROB	n/a	LTP236	ltpFR2	18	n/a	n/a	n/a	15	25	8	8	9
2144922	PROB	n/a	LTP236	ltpFR2	18	n/a	n/a	n/a	15	18	8	2	8
2145922	PROB	n/a	LTP236	ltpFR2	18	n/a	n/a	n/a	15	16	4	5	7
2147342	PROB	n/a	LTP236	ltpFR2	18	n/a	n/a	n/a	15	12	4	7	1
2148357	PROB	n/a	LTP236	ltpFR2	18	n/a	n/a	n/a	15	8	5	1	2
2149376	PROB	n/a	LTP236	ltpFR2	18	n/a	n/a	n/a	15	14	2	7	5
2151535	STOP	n/a	LTP236	ltpFR2	18	n/a	n/a	n/a	15	n/a	n/a	n/a	n/a
2154514	REC_START	n/a	LTP236	ltpFR2	18	10	n/a	n/a	n/a	n/a	0	0	0
2155272	REC_WORD	wordpools/wasnorm_wordpool_576.txt	LTP236	ltpFR2	18	10	HOUND	724	n/a	n/a	0	0	0
2156073	REC_WORD	wordpools/wasnorm_wordpool_576.txt	LTP236	ltpFR2	18	10	GROUND	666	n/a	n/a	0	0	0
2156774	REC_WORD	wordpools/wasnorm_wordpool_576.txt	LTP236	ltpFR2	18	10	PUPPY	1144	n/a	n/a	0	0	0
2157602	REC_WORD	wordpools/wasnorm_wordpool_576.txt	LTP236	ltpFR2	18	10	EXPERT	543	n/a	n/a	0	0	0
2159192	REC_WORD	wordpools/wasnorm_wordpool_576.txt	LTP236	ltpFR2	18	10	WORKER	1621	n/a	n/a	0	0	0
2160600	REC_WORD	wordpools/wasnorm_wordpool_576.txt	LTP236	ltpFR2	18	10	NURSE	963	n/a	n/a	0	0	0
2161481	REC_WORD	wordpools/wasnorm_wordpool_576.txt	LTP236	ltpFR2	18	10	CASHIER	254	n/a	n/a	0	0	0
2162348	REC_WORD	wordpools/wasnorm_wordpool_576.txt	LTP236	ltpFR2	18	10	SERVER	1272	n/a	n/a	0	0	0
2163202	REC_WORD	wordpools/wasnorm_wordpool_576.txt	LTP236	ltpFR2	18	10	HOSTESS	723	n/a	n/a	0	0	0
2164104	REC_WORD	wordpools/wasnorm_wordpool_576.txt	LTP236	ltpFR2	18	10	COLONEL	348	n/a	n/a	0	0	0
2166035	REC_WORD	wordpools/wasnorm_wordpool_576.txt	LTP236	ltpFR2	18	10	GHETTO	633	n/a	n/a	0	0	0
2169663	REC_WORD	wordpools/wasnorm_wordpool_576.txt	LTP236	ltpFR2	18	10	RIVER	1194	n/a	n/a	0	0	0
2170466	REC_WORD	wordpools/wasnorm_wordpool_576.txt	LTP236	ltpFR2	18	10	YACHT	1629	n/a	n/a	0	0	0
2173398	REC_WORD	wordpools/wasnorm_wordpool_576.txt	LTP236	ltpFR2	18	10	LIPSTICK	829	n/a	n/a	0	0	0
2174204	REC_WORD	wordpools/wasnorm_wordpool_576.txt	LTP236	ltpFR2	18	10	MATTRESS	879	n/a	n/a	0	0	0
2175024	REC_WORD	wordpools/wasnorm_wordpool_576.txt	LTP236	ltpFR2	18	10	MAPLE	866	n/a	n/a	0	0	0
2183619	REC_WORD	wordpools/wasnorm_wordpool_576.txt	LTP236	ltpFR2	18	10	UMPIRE	1535	n/a	n/a	0	0	0
2244935	DISTRACTOR	n/a	LTP236	ltpFR2	18	11	n/a	n/a	n/a	n/a	0	0	0
2244935	START	n/a	LTP236	ltpFR2	18	n/a	n/a	n/a	16	n/a	n/a	n/a	n/a
2244951	PROB	n/a	LTP236	ltpFR2	18	n/a	n/a	n/a	16	10	3	2	5
2246534	PROB	n/a	LTP236	ltpFR2	18	n/a	n/a	n/a	16	9	3	3	3
2247569	PROB	n/a	LTP236	ltpFR2	18	n/a	n/a	n/a	16	11	6	1	4
2249438	PROB	n/a	LTP236	ltpFR2	18	n/a	n/a	n/a	16	20	9	8	3
2251507	PROB	n/a	LTP236	ltpFR2	18	n/a	n/a	n/a	16	16	7	2	7
2254657	PROB	n/a	LTP236	ltpFR2	18	n/a	n/a	n/a	16	20	6	6	8
2257227	PROB	n/a	LTP236	ltpFR2	18	n/a	n/a	n/a	16	19	4	7	8
2260012	PROB	n/a	LTP236	ltpFR2	18	n/a	n/a	n/a	16	12	7	3	2
2261147	PROB	n/a	LTP236	ltpFR2	18	n/a	n/a	n/a	16	18	3	8	7
2262581	PROB	n/a	LTP236	ltpFR2	18	n/a	n/a	n/a	16	16	5	6	5
2263682	PROB	n/a	LTP236	ltpFR2	18	n/a	n/a	n/a	16	19	8	2	9
2264718	PROB	n/a	LTP236	ltpFR2	18	n/a	n/a	n/a	16	20	5	6	9
2265851	PROB	n/a	LTP236	ltpFR2	18	n/a	n/a	n/a	16	10	2	2	6
2266784	PROB	n/a	LTP236	ltpFR2	18	n/a	n/a	n/a	16	12	3	5	4
2267876	STOP	n/a	LTP236	ltpFR2	18	n/a	n/a	n/a	16	n/a	n/a	n/a	n/a
2270106	WORD	wordpools/wasnorm_wordpool_576.txt	LTP236	ltpFR2	18	11	CITRUS	313	n/a	n/a	0	0	0
2272699	WORD	wordpools/wasnorm_wordpool_576.txt	LTP236	ltpFR2	18	11	DRINK	498	n/a	n/a	0	0	0
2275268	WORD	wordpools/wasnorm_wordpool_576.txt	LTP236	ltpFR2	18	11	MILK	895	n/a	n/a	0	0	0
2277879	WORD	wordpools/wasnorm_wordpool_576.txt	LTP236	ltpFR2	18	11	ATLAS	53	n/a	n/a	0	0	0
2280630	WORD	wordpools/wasnorm_wordpool_576.txt	LTP236	ltpFR2	18	11	BARREL	91	n/a	n/a	0	0	0
2283075	WORD	wordpools/wasnorm_wordpool_576.txt	LTP236	ltpFR2	18	11	JEANS	752	n/a	n/a	0	0	0
2285734	WORD	wordpools/wasnorm_wordpool_576.txt	LTP236	ltpFR2	18	11	RIFLE	1192	n/a	n/a	0	0	0
2288180	WORD	wordpools/wasnorm_wordpool_576.txt	LTP236	ltpFR2	18	11	RELISH	1183	n/a	n/a	0	0	0
2290906	WORD	wordpools/wasnorm_wordpool_576.txt	LTP236	ltpFR2	18	11	LIZARD	834	n/a	n/a	0	0	0
2293458	WORD	wordpools/wasnorm_wordpool_576.txt	LTP236	ltpFR2	18	11	CHAMPAGNE	278	n/a	n/a	0	0	0
2295910	WORD	wordpools/wasnorm_wordpool_576.txt	LTP236	ltpFR2	18	11	SCOTCH	1251	n/a	n/a	0	0	0
2298529	WORD	wordpools/wasnorm_wordpool_576.txt	LTP236	ltpFR2	18	11	HAWK	692	n/a	n/a	0	0	0
2301081	WORD	wordpools/wasnorm_wordpool_576.txt	LTP236	ltpFR2	18	11	EYELASH	546	n/a	n/a	0	0	0
2303842	WORD	wordpools/wasnorm_wordpool_576.txt	LTP236	ltpFR2	18	11	FLOWER	584	n/a	n/a	0	0	0
2306279	WORD	wordpools/wasnorm_wordpool_576.txt	LTP236	ltpFR2	18	11	PLAYGROUND	1087	n/a	n/a	0	0	0
2308848	WORD	wordpools/wasnorm_wordpool_576.txt	LTP236	ltpFR2	18	11	PADDING	999	n/a	n/a	0	0	0
2311316	WORD	wordpools/wasnorm_wordpool_576.txt	LTP236	ltpFR2	18	11	STAR	1373	n/a	n/a	0	0	0
2314068	WORD	wordpools/wasnorm_wordpool_576.txt	LTP236	ltpFR2	18	11	TABLET	1427	n/a	n/a	0	0	0
2316493	WORD	wordpools/wasnorm_wordpool_576.txt	LTP236	ltpFR2	18	11	ROBIN	1199	n/a	n/a	0	0	0
2319156	WORD	wordpools/wasnorm_wordpool_576.txt	LTP236	ltpFR2	18	11	SHORTS	1293	n/a	n/a	0	0	0
2321596	WORD	wordpools/wasnorm_wordpool_576.txt	LTP236	ltpFR2	18	11	ORCHID	982	n/a	n/a	0	0	0
2324411	WORD	wordpools/wasnorm_wordpool_576.txt	LTP236	ltpFR2	18	11	THIEF	1456	n/a	n/a	0	0	0
2326950	WORD	wordpools/wasnorm_wordpool_576.txt	LTP236	ltpFR2	18	11	SUSPECT	1415	n/a	n/a	0	0	0
2329565	WORD	wordpools/wasnorm_wordpool_576.txt	LTP236	ltpFR2	18	11	MOTEL	919	n/a	n/a	0	0	0
2331171	START	n/a	LTP236	ltpFR2	18	n/a	n/a	n/a	17	n/a	n/a	n/a	n/a
2332014	DISTRACTOR	n/a	LTP236	ltpFR2	18	11	n/a	n/a	n/a	n/a	0	0	0
2332022	PROB	n/a	LTP236	ltpFR2	18	n/a	n/a	n/a	17	20	8	8	4
2334240	PROB	n/a	LTP236	ltpFR2	18	n/a	n/a	n/a	17	13	1	9	3
2335158	PROB	n/a	LTP236	ltpFR2	18	n/a	n/a	n/a	17	12	5	5	2
2336174	PROB	n/a	LTP236	ltpFR2	18	n/a	n/a	n/a	17	16	7	3	6
2337093	PROB	n/a	LTP236	ltpFR2	18	n/a	n/a	n/a	17	15	2	8	5
2338027	PROB	n/a	LTP236	ltpFR2	18	n/a	n/a	n/a	17	10	1	4	5
2339077	PROB	n/a	LTP236	ltpFR2	18	n/a	n/a	n/a	17	15	5	6	4
2340196	PROB	n/a	LTP236	ltpFR2	18	n/a	n/a	n/a	17	16	3	8	5
2341545	PROB	n/a	LTP236	ltpFR2	18	n/a	n/a	n/a	17	15	5	2	8
2343147	PROB	n/a	LTP236	ltpFR2	18	n/a	n/a	n/a	17	13	8	3	2
2345044	PROB	n/a	LTP236	ltpFR2	18	n/a	n/a	n/a	17	22	6	7	9
2346146	PROB	n/a	LTP236	ltpFR2	18	n/a	n/a	n/a	17	6	1	4	1
2347450	PROB	n/a	LTP236	ltpFR2	18	n/a	n/a	n/a	17	6	4	1	1
2348347	PROB	n/a	LTP236	ltpFR2	18	n/a	n/a	n/a	17	18	3	8	7
2349386	PROB	n/a	LTP236	ltpFR2	18	n/a	n/a	n/a	17	18	3	9	6
2350933	PROB	n/a	LTP236	ltpFR2	18	n/a	n/a	n/a	17	9	1	7	1
2351753	PROB	n/a	LTP236	ltpFR2	18	n/a	n/a	n/a	17	11	5	4	2
2352667	PROB	n/a	LTP236	ltpFR2	18	n/a	n/a	n/a	17	10	2	1	7
2353618	PROB	n/a	LTP236	ltpFR2	18	n/a	n/a	n/a	17	13	3	4	6
2354567	STOP	n/a	LTP236	ltpFR2	18	n/a	n/a	n/a	17	n/a	n/a	n/a	n/a
2357006	REC_START	n/a	LTP236	ltpFR2	18	11	n/a	n/a	n/a	n/a	0	0	0
2357527	REC_WORD	wordpools/wasnorm_wordpool_576.txt	LTP236	ltpFR2	18	11	THIEF	1456	n/a	n/a	0	0	0
2358254	REC_WORD	wordpools/wasnorm_wordpool_576.txt	LTP236	ltpFR2	18	11	SUSPECT	1415	n/a	n/a	0	0	0
2359325	REC_WORD	wordpools/wasnorm_wordpool_576.txt	LTP236	ltpFR2	18	11	TABLET	1427	n/a	n/a	0	0	0
2360022	REC_WORD	wordpools/wasnorm_wordpool_576.txt	LTP236	ltpFR2	18	11	MOTEL	919	n/a	n/a	0	0	0
2363552	REC_WORD	wordpools/wasnorm_wordpool_576.txt	LTP236	ltpFR2	18	11	HAWK	692	n/a	n/a	0	0	0
2366498	REC_WORD	wordpools/wasnorm_wordpool_576.txt	LTP236	ltpFR2	18	11	ROBIN	1199	n/a	n/a	0	0	0
2367591	REC_WORD	wordpools/wasnorm_wordpool_576.txt	LTP236	ltpFR2	18	11	EYELASH	546	n/a	n/a	0	0	0
2387703	REC_WORD	wordpools/wasnorm_wordpool_576.txt	LTP236	ltpFR2	18	11	ORCHID	982	n/a	n/a	0	0	0
2388312	REC_WORD	wordpools/wasnorm_wordpool_576.txt	LTP236	ltpFR2	18	11	FLOWER	584	n/a	n/a	0	0	0
2397974	REC_WORD	wordpools/wasnorm_wordpool_576.txt	LTP236	ltpFR2	18	11	JEANS	752	n/a	n/a	0	0	0
2399022	REC_WORD	wordpools/wasnorm_wordpool_576.txt	LTP236	ltpFR2	18	11	SHORTS	1293	n/a	n/a	0	0	0
2447447	WORD	wordpools/wasnorm_wordpool_576.txt	LTP236	ltpFR2	18	12	FLAG	573	n/a	n/a	0	0	0
2450233	WORD	wordpools/wasnorm_wordpool_576.txt	LTP236	ltpFR2	18	12	CIGAR	308	n/a	n/a	0	0	0
2452969	WORD	wordpools/wasnorm_wordpool_576.txt	LTP236	ltpFR2	18	12	LAPEL	800	n/a	n/a	0	0	0
2455775	WORD	wordpools/wasnorm_wordpool_576.txt	LTP236	ltpFR2	18	12	NAPKIN	937	n/a	n/a	0	0	0
2458207	WORD	wordpools/wasnorm_wordpool_576.txt	LTP236	ltpFR2	18	12	IDOL	733	n/a	n/a	0	0	0
2460930	WORD	wordpools/wasnorm_wordpool_576.txt	LTP236	ltpFR2	18	12	SOFTBALL	1343	n/a	n/a	0	0	0
2463682	WORD	wordpools/wasnorm_wordpool_576.txt	LTP236	ltpFR2	18	12	WOMAN	1620	n/a	n/a	0	0	0
2466362	WORD	wordpools/wasnorm_wordpool_576.txt	LTP236	ltpFR2	18	12	LODGE	839	n/a	n/a	0	0	0
2469065	WORD	wordpools/wasnorm_wordpool_576.txt	LTP236	ltpFR2	18	12	VIRUS	1572	n/a	n/a	0	0	0
2471801	WORD	wordpools/wasnorm_wordpool_576.txt	LTP236	ltpFR2	18	12	ARMY	39	n/a	n/a	0	0	0
2474486	WORD	wordpools/wasnorm_wordpool_576.txt	LTP236	ltpFR2	18	12	VENUS	1557	n/a	n/a	0	0	0
2477144	WORD	wordpools/wasnorm_wordpool_576.txt	LTP236	ltpFR2	18	12	STAKE	1368	n/a	n/a	0	0	0
2479679	WORD	wordpools/wasnorm_wordpool_576.txt	LTP236	ltpFR2	18	12	LUMBER	848	n/a	n/a	0	0	0
2482258	WORD	wordpools/wasnorm_wordpool_576.txt	LTP236	ltpFR2	18	12	TUTU	1524	n/a	n/a	0	0	0
2484693	WORD	wordpools/wasnorm_wordpool_576.txt	LTP236	ltpFR2	18	12	UNCLE	1536	n/a	n/a	0	0	0
2487336	WORD	wordpools/wasnorm_wordpool_576.txt	LTP236	ltpFR2	18	12	COMET	353	n/a	n/a	0	0	0
2489754	WORD	wordpools/wasnorm_wordpool_576.txt	LTP236	ltpFR2	18	12	TWISTER	1530	n/a	n/a	0	0	0
2492391	WORD	wordpools/wasnorm_wordpool_576.txt	LTP236	ltpFR2	18	12	CAMEL	223	n/a	n/a	0	0	0
2494852	WORD	wordpools/wasnorm_wordpool_576.txt	LTP236	ltpFR2	18	12	CONCERT	360	n/a	n/a	0	0	0
2497537	WORD	wordpools/wasnorm_wordpool_576.txt	LTP236	ltpFR2	18	12	POET	1095	n/a	n/a	0	0	0
2500331	WORD	wordpools/wasnorm_wordpool_576.txt	LTP236	ltpFR2	18	12	GIFT	635	n/a	n/a	0	0	0
2503059	WORD	wordpools/wasnorm_wordpool_576.txt	LTP236	ltpFR2	18	12	PACKAGE	997	n/a	n/a	0	0	0
2505785	WORD	wordpools/wasnorm_wordpool_576.txt	LTP236	ltpFR2	18	12	REBEL	1172	n/a	n/a	0	0	0
2508330	WORD	wordpools/wasnorm_wordpool_576.txt	LTP236	ltpFR2	18	12	VALLEY	1545	n/a	n/a	0	0	0
2509940	START	n/a	LTP236	ltpFR2	18	n/a	n/a	n/a	18	n/a	n/a	n/a	n/a
2510893	DISTRACTOR	n/a	LTP236	ltpFR2	18	12	n/a	n/a	n/a	n/a	0	0	0
2510899	PROB	n/a	LTP236	ltpFR2	18	n/a	n/a	n/a	18	14	6	2	6
2513933	PROB	n/a	LTP236	ltpFR2	18	n/a	n/a	n/a	18	15	1	5	9
2515436	PROB	n/a	LTP236	ltpFR2	18	n/a	n/a	n/a	18	10	2	4	4
2517070	PROB	n/a	LTP236	ltpFR2	18	n/a	n/a	n/a	18	8	6	1	1
2517970	PROB	n/a	LTP236	ltpFR2	18	n/a	n/a	n/a	18	15	8	3	4
2518921	PROB	n/a	LTP236	ltpFR2	18	n/a	n/a	n/a	18	17	4	6	7
2520272	PROB	n/a	LTP236	ltpFR2	18	n/a	n/a	n/a	18	20	8	3	9
2521455	PROB	n/a	LTP236	ltpFR2	18	n/a	n/a	n/a	18	8	4	3	1
2522490	PROB	n/a	LTP236	ltpFR2	18	n/a	n/a	n/a	18	11	1	3	7
2523573	PROB	n/a	LTP236	ltpFR2	18	n/a	n/a	n/a	18	4	1	1	2
2524491	PROB	n/a	LTP236	ltpFR2	18	n/a	n/a	n/a	18	12	7	4	1
2525692	PROB	n/a	LTP236	ltpFR2	18	n/a	n/a	n/a	18	13	9	2	2
2526927	PROB	n/a	LTP236	ltpFR2	18	n/a	n/a	n/a	18	11	1	4	6
2527929	PROB	n/a	LTP236	ltpFR2	18	n/a	n/a	n/a	18	9	5	2	2
2528828	PROB	n/a	LTP236	ltpFR2	18	n/a	n/a	n/a	18	6	2	2	2
2529711	PROB	n/a	LTP236	ltpFR2	18	n/a	n/a	n/a	18	20	7	6	7
2530847	PROB	n/a	LTP236	ltpFR2	18	n/a	n/a	n/a	18	16	7	4	2
2531831	PROB	n/a	LTP236	ltpFR2	18	n/a	n/a	n/a	18	17	3	5	9
2533247	STOP	n/a	LTP236	ltpFR2	18	n/a	n/a	n/a	18	n/a	n/a	n/a	n/a
2535784	REC_START	n/a	LTP236	ltpFR2	18	12	n/a	n/a	n/a	n/a	0	0	0
2536337	REC_WORD	wordpools/wasnorm_wordpool_576.txt	LTP236	ltpFR2	18	12	ARMY	39	n/a	n/a	0	0	0
2537011	REC_WORD	wordpools/wasnorm_wordpool_576.txt	LTP236	ltpFR2	18	12	VALLEY	1545	n/a	n/a	0	0	0
2537650	REC_WORD	wordpools/wasnorm_wordpool_576.txt	LTP236	ltpFR2	18	12	VIRUS	1572	n/a	n/a	0	0	0
2538450	REC_WORD	wordpools/wasnorm_wordpool_576.txt	LTP236	ltpFR2	18	12	COMET	353	n/a	n/a	0	0	0
2539154	REC_WORD	wordpools/wasnorm_wordpool_576.txt	LTP236	ltpFR2	18	12	VENUS	1557	n/a	n/a	0	0	0
2539838	REC_WORD	wordpools/wasnorm_wordpool_576.txt	LTP236	ltpFR2	18	12	TWISTER	1530	n/a	n/a	0	0	0
2542907	REC_WORD	wordpools/wasnorm_wordpool_576.txt	LTP236	ltpFR2	18	12	GIFT	635	n/a	n/a	0	0	0
2543612	REC_WORD	wordpools/wasnorm_wordpool_576.txt	LTP236	ltpFR2	18	12	UNCLE	1536	n/a	n/a	0	0	0
2544828	REC_WORD	wordpools/wasnorm_wordpool_576.txt	LTP236	ltpFR2	18	12	PACKAGE	997	n/a	n/a	0	0	0
2549727	REC_WORD	wordpools/wasnorm_wordpool_576.txt	LTP236	ltpFR2	18	12	CONCERT	360	n/a	n/a	0	0	0
2550681	REC_WORD	wordpools/wasnorm_wordpool_576.txt	LTP236	ltpFR2	18	12	IDOL	733	n/a	n/a	0	0	0
2551409	REC_WORD	wordpools/wasnorm_wordpool_576.txt	LTP236	ltpFR2	18	12	TUTU	1524	n/a	n/a	0	0	0
2553025	REC_WORD	wordpools/wasnorm_wordpool_576.txt	LTP236	ltpFR2	18	12	LODGE	839	n/a	n/a	0	0	0
2553847	REC_WORD	wordpools/wasnorm_wordpool_576.txt	LTP236	ltpFR2	18	12	LUMBER	848	n/a	n/a	0	0	0
2554655	REC_WORD	wordpools/wasnorm_wordpool_576.txt	LTP236	ltpFR2	18	12	FLAG	573	n/a	n/a	0	0	0
2556169	REC_WORD	wordpools/wasnorm_wordpool_576.txt	LTP236	ltpFR2	18	12	SOFTBALL	1343	n/a	n/a	0	0	0
2557418	REC_WORD	wordpools/wasnorm_wordpool_576.txt	LTP236	ltpFR2	18	12	CIGAR	308	n/a	n/a	0	0	0
2558433	REC_WORD	wordpools/wasnorm_wordpool_576.txt	LTP236	ltpFR2	18	12	NAPKIN	937	n/a	n/a	0	0	0
2571457	REC_WORD	wordpools/wasnorm_wordpool_576.txt	LTP236	ltpFR2	18	12	ARMY	39	n/a	n/a	0	0	0
2607050	REC_WORD	wordpools/wasnorm_wordpool_576.txt	LTP236	ltpFR2	18	12	POET	1095	n/a	n/a	0	0	0
2626241	DISTRACTOR	n/a	LTP236	ltpFR2	18	13	n/a	n/a	n/a	n/a	0	0	0
2626242	START	n/a	LTP236	ltpFR2	18	n/a	n/a	n/a	19	n/a	n/a	n/a	n/a
2626257	PROB	n/a	LTP236	ltpFR2	18	n/a	n/a	n/a	19	23	8	7	8
2629526	PROB	n/a	LTP236	ltpFR2	18	n/a	n/a	n/a	19	16	4	9	3
2630594	PROB	n/a	LTP236	ltpFR2	18	n/a	n/a	n/a	19	12	4	2	6
2631661	PROB	n/a	LTP236	ltpFR2	18	n/a	n/a	n/a	19	12	2	4	6
2632563	PROB	n/a	LTP236	ltpFR2	18	n/a	n/a	n/a	19	26	9	9	8
2633962	PROB	n/a	LTP236	ltpFR2	18	n/a	n/a	n/a	19	15	3	3	9
2635483	PROB	n/a	LTP236	ltpFR2	18	n/a	n/a	n/a	19	15	2	9	4
2637199	PROB	n/a	LTP236	ltpFR2	18	n/a	n/a	n/a	19	20	2	9	9
2638549	PROB	n/a	LTP236	ltpFR2	18	n/a	n/a	n/a	19	14	5	4	8
2639583	PROB	n/a	LTP236	ltpFR2	18	n/a	n/a	n/a	19	10	3	3	4
2640835	PROB	n/a	LTP236	ltpFR2	18	n/a	n/a	n/a	19	27	9	2	9
2642403	PROB	n/a	LTP236	ltpFR2	18	n/a	n/a	n/a	19	19	2	9	8
2644371	PROB	n/a	LTP236	ltpFR2	18	n/a	n/a	n/a	19	15	7	3	5
2645522	PROB	n/a	LTP236	ltpFR2	18	n/a	n/a	n/a	19	18	8	9	1
2647125	PROB	n/a	LTP236	ltpFR2	18	n/a	n/a	n/a	19	9	5	1	3
2648590	PROB	n/a	LTP236	ltpFR2	18	n/a	n/a	n/a	19	14	7	6	1
2649508	STOP	n/a	LTP236	ltpFR2	18	n/a	n/a	n/a	19	n/a	n/a	n/a	n/a
2651094	WORD	wordpools/wasnorm_wordpool_576.txt	LTP236	ltpFR2	18	13	RATTLE	1170	n/a	n/a	0	0	0
2653596	WORD	wordpools/wasnorm_wordpool_576.txt	LTP236	ltpFR2	18	13	CARRIAGE	248	n/a	n/a	0	0	0
2656131	WORD	wordpools/wasnorm_wordpool_576.txt	LTP236	ltpFR2	18	13	BANJO	82	n/a	n/a	0	0	0
2658867	WORD	wordpools/wasnorm_wordpool_576.txt	LTP236	ltpFR2	18	13	COCOON	339	n/a	n/a	0	0	0
2661602	WORD	wordpools/wasnorm_wordpool_576.txt	LTP236	ltpFR2	18	13	SLIME	1327	n/a	n/a	0	0	0
2664122	WORD	wordpools/wasnorm_wordpool_576.txt	LTP236	ltpFR2	18	13	SALT	1229	n/a	n/a	0	0	0
2666774	WORD	wordpools/wasnorm_wordpool_576.txt	LTP236	ltpFR2	18	13	TURNIP	1521	n/a	n/a	0	0	0
2669575	WORD	wordpools/wasnorm_wordpool_576.txt	LTP236	ltpFR2	18	13	LUNCH	849	n/a	n/a	0	0	0
2672011	WORD	wordpools/wasnorm_wordpool_576.txt	LTP236	ltpFR2	18	13	PLATE	1086	n/a	n/a	0	0	0
2674446	WORD	wordpools/wasnorm_wordpool_576.txt	LTP236	ltpFR2	18	13	PLIERS	1089	n/a	n/a	0	0	0
2677066	WORD	wordpools/wasnorm_wordpool_576.txt	LTP236	ltpFR2	18	13	TROUT	1511	n/a	n/a	0	0	0
2679521	WORD	wordpools/wasnorm_wordpool_576.txt	LTP236	ltpFR2	18	13	GLOBE	641	n/a	n/a	0	0	0
2682123	WORD	wordpools/wasnorm_wordpool_576.txt	LTP236	ltpFR2	18	13	FARMER	553	n/a	n/a	0	0	0
2684824	WORD	wordpools/wasnorm_wordpool_576.txt	LTP236	ltpFR2	18	13	PALACE	1006	n/a	n/a	0	0	0
2687340	WORD	wordpools/wasnorm_wordpool_576.txt	LTP236	ltpFR2	18	13	THRONE	1461	n/a	n/a	0	0	0
2689892	WORD	wordpools/wasnorm_wordpool_576.txt	LTP236	ltpFR2	18	13	WRENCH	1625	n/a	n/a	0	0	0
2692677	WORD	wordpools/wasnorm_wordpool_576.txt	LTP236	ltpFR2	18	13	RADISH	1158	n/a	n/a	0	0	0
2695147	WORD	wordpools/wasnorm_wordpool_576.txt	LTP236	ltpFR2	18	13	HEDGE	699	n/a	n/a	0	0	0
2697920	WORD	wordpools/wasnorm_wordpool_576.txt	LTP236	ltpFR2	18	13	CARROT	249	n/a	n/a	0	0	0
2700733	WORD	wordpools/wasnorm_wordpool_576.txt	LTP236	ltpFR2	18	13	FOREST	593	n/a	n/a	0	0	0
2703386	WORD	wordpools/wasnorm_wordpool_576.txt	LTP236	ltpFR2	18	13	HIKER	708	n/a	n/a	0	0	0
2706122	WORD	wordpools/wasnorm_wordpool_576.txt	LTP236	ltpFR2	18	13	COWBOY	395	n/a	n/a	0	0	0
2708662	WORD	wordpools/wasnorm_wordpool_576.txt	LTP236	ltpFR2	18	13	PLUTO	1092	n/a	n/a	0	0	0
2711382	WORD	wordpools/wasnorm_wordpool_576.txt	LTP236	ltpFR2	18	13	RECEIPT	1173	n/a	n/a	0	0	0
2712995	START	n/a	LTP236	ltpFR2	18	n/a	n/a	n/a	20	n/a	n/a	n/a	n/a
2714031	DISTRACTOR	n/a	LTP236	ltpFR2	18	13	n/a	n/a	n/a	n/a	0	0	0
2714044	PROB	n/a	LTP236	ltpFR2	18	n/a	n/a	n/a	20	20	6	6	8
2717013	PROB	n/a	LTP236	ltpFR2	18	n/a	n/a	n/a	20	13	1	9	2
2720633	PROB	n/a	LTP236	ltpFR2	18	n/a	n/a	n/a	20	13	6	5	2
2721816	PROB	n/a	LTP236	ltpFR2	18	n/a	n/a	n/a	20	21	7	5	9
2725637	PROB	n/a	LTP236	ltpFR2	18	n/a	n/a	n/a	20	8	3	3	2
2727688	PROB	n/a	LTP236	ltpFR2	18	n/a	n/a	n/a	20	26	8	9	9
2730356	PROB	n/a	LTP236	ltpFR2	18	n/a	n/a	n/a	20	10	2	5	3
2733526	PROB	n/a	LTP236	ltpFR2	18	n/a	n/a	n/a	20	15	4	6	5
2734593	PROB	n/a	LTP236	ltpFR2	18	n/a	n/a	n/a	20	18	8	7	3
2735855	STOP	n/a	LTP236	ltpFR2	18	n/a	n/a	n/a	20	n/a	n/a	n/a	n/a
2738814	REC_START	n/a	LTP236	ltpFR2	18	13	n/a	n/a	n/a	n/a	0	0	0
2739860	REC_WORD	wordpools/wasnorm_wordpool_576.txt	LTP236	ltpFR2	18	13	GLOBE	641	n/a	n/a	0	0	0
2740701	REC_WORD	wordpools/wasnorm_wordpool_576.txt	LTP236	ltpFR2	18	13	PLUTO	1092	n/a	n/a	0	0	0
2741507	REC_WORD	wordpools/wasnorm_wordpool_576.txt	LTP236	ltpFR2	18	13	FARMER	553	n/a	n/a	0	0	0
2742559	REC_WORD	wordpools/wasnorm_wordpool_576.txt	LTP236	ltpFR2	18	13	COWBOY	395	n/a	n/a	0	0	0
2743449	REC_WORD	wordpools/wasnorm_wordpool_576.txt	LTP236	ltpFR2	18	13	RECEIPT	1173	n/a	n/a	0	0	0
2744808	REC_WORD	wordpools/wasnorm_wordpool_576.txt	LTP236	ltpFR2	18	13	PALACE	1006	n/a	n/a	0	0	0
2746099	REC_WORD	wordpools/wasnorm_wordpool_576.txt	LTP236	ltpFR2	18	13	THRONE	1461	n/a	n/a	0	0	0
2747624	REC_WORD	wordpools/wasnorm_wordpool_576.txt	LTP236	ltpFR2	18	13	RADISH	1158	n/a	n/a	0	0	0
2748373	REC_WORD	wordpools/wasnorm_wordpool_576.txt	LTP236	ltpFR2	18	13	TURNIP	1521	n/a	n/a	0	0	0
2749254	REC_WORD	wordpools/wasnorm_wordpool_576.txt	LTP236	ltpFR2	18	13	CARROT	249	n/a	n/a	0	0	0
2750050	REC_WORD	wordpools/wasnorm_wordpool_576.txt	LTP236	ltpFR2	18	13	SLIME	1327	n/a	n/a	0	0	0
2751144	REC_WORD	wordpools/wasnorm_wordpool_576.txt	LTP236	ltpFR2	18	13	PLATE	1086	n/a	n/a	0	0	0
2752197	REC_WORD	wordpools/wasnorm_wordpool_576.txt	LTP236	ltpFR2	18	13	TROUT	1511	n/a	n/a	0	0	0
2753224	REC_WORD	wordpools/wasnorm_wordpool_576.txt	LTP236	ltpFR2	18	13	LUNCH	849	n/a	n/a	0	0	0
2760938	REC_WORD	wordpools/wasnorm_wordpool_576.txt	LTP236	ltpFR2	18	13	WRENCH	1625	n/a	n/a	0	0	0
2761668	REC_WORD	wordpools/wasnorm_wordpool_576.txt	LTP236	ltpFR2	18	13	PLIERS	1089	n/a	n/a	0	0	0
2764960	REC_WORD	wordpools/wasnorm_wordpool_576.txt	LTP236	ltpFR2	18	13	HEDGE	699	n/a	n/a	0	0	0
2765834	REC_WORD	wordpools/wasnorm_wordpool_576.txt	LTP236	ltpFR2	18	13	FOREST	593	n/a	n/a	0	0	0
2829269	WORD	wordpools/wasnorm_wordpool_576.txt	LTP236	ltpFR2	18	14	ELBOW	520	n/a	n/a	0	0	0
2831769	WORD	wordpools/wasnorm_wordpool_576.txt	LTP236	ltpFR2	18	14	PORK	1108	n/a	n/a	0	0	0
2834339	WORD	wordpools/wasnorm_wordpool_576.txt	LTP236	ltpFR2	18	14	SAUSAGE	1238	n/a	n/a	0	0	0
2837057	WORD	wordpools/wasnorm_wordpool_576.txt	LTP236	ltpFR2	18	14	ANKLE	24	n/a	n/a	0	0	0
2839760	WORD	wordpools/wasnorm_wordpool_576.txt	LTP236	ltpFR2	18	14	STOMACH	1384	n/a	n/a	0	0	0
2842577	WORD	wordpools/wasnorm_wordpool_576.txt	LTP236	ltpFR2	18	14	TWEEZERS	1526	n/a	n/a	0	0	0
2845382	WORD	wordpools/wasnorm_wordpool_576.txt	LTP236	ltpFR2	18	14	MEAT	883	n/a	n/a	0	0	0
2848018	WORD	wordpools/wasnorm_wordpool_576.txt	LTP236	ltpFR2	18	14	PEANUT	1032	n/a	n/a	0	0	0
2850704	WORD	wordpools/wasnorm_wordpool_576.txt	LTP236	ltpFR2	18	14	CASHEW	253	n/a	n/a	0	0	0
2853456	WORD	wordpools/wasnorm_wordpool_576.txt	LTP236	ltpFR2	18	14	PLAZA	1088	n/a	n/a	0	0	0
2856258	WORD	wordpools/wasnorm_wordpool_576.txt	LTP236	ltpFR2	18	14	HORNET	718	n/a	n/a	0	0	0
2858826	WORD	wordpools/wasnorm_wordpool_576.txt	LTP236	ltpFR2	18	14	QUARTER	1148	n/a	n/a	0	0	0
2861330	WORD	wordpools/wasnorm_wordpool_576.txt	LTP236	ltpFR2	18	14	LEOPARD	812	n/a	n/a	0	0	0
2863965	WORD	wordpools/wasnorm_wordpool_576.txt	LTP236	ltpFR2	18	14	BRAKE	166	n/a	n/a	0	0	0
2866466	WORD	wordpools/wasnorm_wordpool_576.txt	LTP236	ltpFR2	18	14	OUTLAW	989	n/a	n/a	0	0	0
2868901	WORD	wordpools/wasnorm_wordpool_576.txt	LTP236	ltpFR2	18	14	COFFEE	341	n/a	n/a	0	0	0
2871437	WORD	wordpools/wasnorm_wordpool_576.txt	LTP236	ltpFR2	18	14	DUSTPAN	509	n/a	n/a	0	0	0
2874040	WORD	wordpools/wasnorm_wordpool_576.txt	LTP236	ltpFR2	18	14	CLOTHES	327	n/a	n/a	0	0	0
2876658	WORD	wordpools/wasnorm_wordpool_576.txt	LTP236	ltpFR2	18	14	BUTCHER	203	n/a	n/a	0	0	0
2879378	WORD	wordpools/wasnorm_wordpool_576.txt	LTP236	ltpFR2	18	14	AWARD	63	n/a	n/a	0	0	0
2881996	WORD	wordpools/wasnorm_wordpool_576.txt	LTP236	ltpFR2	18	14	BRICK	172	n/a	n/a	0	0	0
2884580	WORD	wordpools/wasnorm_wordpool_576.txt	LTP236	ltpFR2	18	14	TILE	1468	n/a	n/a	0	0	0
2887333	WORD	wordpools/wasnorm_wordpool_576.txt	LTP236	ltpFR2	18	14	SCARECROW	1245	n/a	n/a	0	0	0
2890153	WORD	wordpools/wasnorm_wordpool_576.txt	LTP236	ltpFR2	18	14	CYCLONE	431	n/a	n/a	0	0	0
2891771	START	n/a	LTP236	ltpFR2	18	n/a	n/a	n/a	21	n/a	n/a	n/a	n/a
2892827	DISTRACTOR	n/a	LTP236	ltpFR2	18	14	n/a	n/a	n/a	n/a	0	0	0
2892838	PROB	n/a	LTP236	ltpFR2	18	n/a	n/a	n/a	21	13	7	5	1
2894989	PROB	n/a	LTP236	ltpFR2	18	n/a	n/a	n/a	21	12	5	1	6
2896240	PROB	n/a	LTP236	ltpFR2	18	n/a	n/a	n/a	21	13	7	3	3
2897192	PROB	n/a	LTP236	ltpFR2	18	n/a	n/a	n/a	21	18	7	5	6
2898293	PROB	n/a	LTP236	ltpFR2	18	n/a	n/a	n/a	21	13	3	3	7
2899459	PROB	n/a	LTP236	ltpFR2	18	n/a	n/a	n/a	21	16	7	6	3
2900660	PROB	n/a	LTP236	ltpFR2	18	n/a	n/a	n/a	21	16	9	3	4
2902345	PROB	n/a	LTP236	ltpFR2	18	n/a	n/a	n/a	21	21	6	7	8
2903413	PROB	n/a	LTP236	ltpFR2	18	n/a	n/a	n/a	21	16	6	1	9
2904481	PROB	n/a	LTP236	ltpFR2	18	n/a	n/a	n/a	21	13	7	4	2
2905949	PROB	n/a	LTP236	ltpFR2	18	n/a	n/a	n/a	21	15	9	5	1
2907098	PROB	n/a	LTP236	ltpFR2	18	n/a	n/a	n/a	21	22	6	7	9
2908317	PROB	n/a	LTP236	ltpFR2	18	n/a	n/a	n/a	21	18	5	9	4
2909401	PROB	n/a	LTP236	ltpFR2	18	n/a	n/a	n/a	21	8	4	1	3
2910569	PROB	n/a	LTP236	ltpFR2	18	n/a	n/a	n/a	21	16	2	6	8
2911701	PROB	n/a	LTP236	ltpFR2	18	n/a	n/a	n/a	21	13	4	7	2
2912736	PROB	n/a	LTP236	ltpFR2	18	n/a	n/a	n/a	21	13	3	5	5
2913703	PROB	n/a	LTP236	ltpFR2	18	n/a	n/a	n/a	21	20	7	8	5
2914669	STOP	n/a	LTP236	ltpFR2	18	n/a	n/a	n/a	21	n/a	n/a	n/a	n/a
2917574	REC_START	n/a	LTP236	ltpFR2	18	14	n/a	n/a	n/a	n/a	0	0	0
2917995	REC_WORD	wordpools/wasnorm_wordpool_576.txt	LTP236	ltpFR2	18	14	CYCLONE	431	n/a	n/a	0	0	0
2919177	REC_WORD	wordpools/wasnorm_wordpool_576.txt	LTP236	ltpFR2	18	14	BRAKE	166	n/a	n/a	0	0	0
2920086	REC_WORD	wordpools/wasnorm_wordpool_576.txt	LTP236	ltpFR2	18	14	TILE	1468	n/a	n/a	0	0	0
2925160	REC_WORD	wordpools/wasnorm_wordpool_576.txt	LTP236	ltpFR2	18	14	DUSTPAN	509	n/a	n/a	0	0	0
2926162	REC_WORD	wordpools/wasnorm_wordpool_576.txt	LTP236	ltpFR2	18	14	COFFEE	341	n/a	n/a	0	0	0
2927038	REC_WORD	wordpools/wasnorm_wordpool_576.txt	LTP236	ltpFR2	18	14	CLOTHES	327	n/a	n/a	0	0	0
2927720	REC_WORD	wordpools/wasnorm_wordpool_576.txt	LTP236	ltpFR2	18	14	SCARECROW	1245	n/a	n/a	0	0	0
2928731	REC_WORD	wordpools/wasnorm_wordpool_576.txt	LTP236	ltpFR2	18	14	BUTCHER	203	n/a	n/a	0	0	0
2929438	REC_WORD	wordpools/wasnorm_wordpool_576.txt	LTP236	ltpFR2	18	14	MEAT	883	n/a	n/a	0	0	0
2930133	REC_WORD	wordpools/wasnorm_wordpool_576.txt	LTP236	ltpFR2	18	14	PORK	1108	n/a	n/a	0	0	0
2930750	REC_WORD	wordpools/wasnorm_wordpool_576.txt	LTP236	ltpFR2	18	14	SAUSAGE	1238	n/a	n/a	0	0	0
2946016	REC_WORD	wordpools/wasnorm_wordpool_576.txt	LTP236	ltpFR2	18	14	ANKLE	24	n/a	n/a	0	0	0
2947167	REC_WORD	wordpools/wasnorm_wordpool_576.txt	LTP236	ltpFR2	18	14	WRIST	1626	n/a	n/a	0	0	0
2951429	REC_WORD	wordpools/wasnorm_wordpool_576.txt	LTP236	ltpFR2	18	14	STOMACH	1384	n/a	n/a	0	0	0
2952583	REC_WORD	wordpools/wasnorm_wordpool_576.txt	LTP236	ltpFR2	18	14	TWEEZERS	1526	n/a	n/a	0	0	0
2956524	REC_WORD	wordpools/wasnorm_wordpool_576.txt	LTP236	ltpFR2	18	14	PEANUT	1032	n/a	n/a	0	0	0
2957375	REC_WORD	wordpools/wasnorm_wordpool_576.txt	LTP236	ltpFR2	18	14	CASHEW	253	n/a	n/a	0	0	0
3008012	WORD	wordpools/wasnorm_wordpool_576.txt	LTP236	ltpFR2	18	15	OINTMENT	974	n/a	n/a	0	0	0
3010598	WORD	wordpools/wasnorm_wordpool_576.txt	LTP236	ltpFR2	18	15	PEPPER	1047	n/a	n/a	0	0	0
3013244	WORD	wordpools/wasnorm_wordpool_576.txt	LTP236	ltpFR2	18	15	COOKBOOK	373	n/a	n/a	0	0	0
3015829	WORD	wordpools/wasnorm_wordpool_576.txt	LTP236	ltpFR2	18	15	PEACH	1031	n/a	n/a	0	0	0
3018582	WORD	wordpools/wasnorm_wordpool_576.txt	LTP236	ltpFR2	18	15	APPLE	33	n/a	n/a	0	0	0
3021325	WORD	wordpools/wasnorm_wordpool_576.txt	LTP236	ltpFR2	18	15	NECKLACE	940	n/a	n/a	0	0	0
3023886	WORD	wordpools/wasnorm_wordpool_576.txt	LTP236	ltpFR2	18	15	MEDAL	885	n/a	n/a	0	0	0
3026628	WORD	wordpools/wasnorm_wordpool_576.txt	LTP236	ltpFR2	18	15	FOOTBALL	591	n/a	n/a	0	0	0
3029264	WORD	wordpools/wasnorm_wordpool_576.txt	LTP236	ltpFR2	18	15	TRUCK	1512	n/a	n/a	0	0	0
3031960	WORD	wordpools/wasnorm_wordpool_576.txt	LTP236	ltpFR2	18	15	BELLY	119	n/a	n/a	0	0	0
3034679	WORD	wordpools/wasnorm_wordpool_576.txt	LTP236	ltpFR2	18	15	LOVER	846	n/a	n/a	0	0	0
3037132	WORD	wordpools/wasnorm_wordpool_576.txt	LTP236	ltpFR2	18	15	GUARD	667	n/a	n/a	0	0	0
3039566	WORD	wordpools/wasnorm_wordpool_576.txt	LTP236	ltpFR2	18	15	GARBAGE	622	n/a	n/a	0	0	0
3042353	WORD	wordpools/wasnorm_wordpool_576.txt	LTP236	ltpFR2	18	15	PASTA	1021	n/a	n/a	0	0	0
3045123	WORD	wordpools/wasnorm_wordpool_576.txt	LTP236	ltpFR2	18	15	FEMALE	559	n/a	n/a	0	0	0
3047740	WORD	wordpools/wasnorm_wordpool_576.txt	LTP236	ltpFR2	18	15	FRIEND	606	n/a	n/a	0	0	0
3050210	WORD	wordpools/wasnorm_wordpool_576.txt	LTP236	ltpFR2	18	15	SHELTER	1282	n/a	n/a	0	0	0
3052912	WORD	wordpools/wasnorm_wordpool_576.txt	LTP236	ltpFR2	18	15	PARTNER	1017	n/a	n/a	0	0	0
3055431	WORD	wordpools/wasnorm_wordpool_576.txt	LTP236	ltpFR2	18	15	YOLK	1633	n/a	n/a	0	0	0
3058084	WORD	wordpools/wasnorm_wordpool_576.txt	LTP236	ltpFR2	18	15	CREATURE	403	n/a	n/a	0	0	0
3060869	WORD	wordpools/wasnorm_wordpool_576.txt	LTP236	ltpFR2	18	15	TORTOISE	1486	n/a	n/a	0	0	0
3063321	WORD	wordpools/wasnorm_wordpool_576.txt	LTP236	ltpFR2	18	15	PIGEON	1065	n/a	n/a	0	0	0
3066041	WORD	wordpools/wasnorm_wordpool_576.txt	LTP236	ltpFR2	18	15	ULCER	1533	n/a	n/a	0	0	0
3068796	WORD	wordpools/wasnorm_wordpool_576.txt	LTP236	ltpFR2	18	15	COUNTY	389	n/a	n/a	0	0	0
3070412	START	n/a	LTP236	ltpFR2	18	n/a	n/a	n/a	22	n/a	n/a	n/a	n/a
3071265	DISTRACTOR	n/a	LTP236	ltpFR2	18	15	n/a	n/a	n/a	n/a	0	0	0
3071278	PROB	n/a	LTP236	ltpFR2	18	n/a	n/a	n/a	22	12	3	7	1
3074580	PROB	n/a	LTP236	ltpFR2	18	n/a	n/a	n/a	22	18	7	3	8
3076848	PROB	n/a	LTP236	ltpFR2	18	n/a	n/a	n/a	22	23	8	9	6
3078550	PROB	n/a	LTP236	ltpFR2	18	n/a	n/a	n/a	22	8	6	1	1
3079451	PROB	n/a	LTP236	ltpFR2	18	n/a	n/a	n/a	22	10	2	1	7
3080534	PROB	n/a	LTP236	ltpFR2	18	n/a	n/a	n/a	22	18	5	5	8
3081770	PROB	n/a	LTP236	ltpFR2	18	n/a	n/a	n/a	22	16	1	8	7
3084922	PROB	n/a	LTP236	ltpFR2	18	n/a	n/a	n/a	22	18	8	4	6
3086040	PROB	n/a	LTP236	ltpFR2	18	n/a	n/a	n/a	22	14	4	6	4
3086944	PROB	n/a	LTP236	ltpFR2	18	n/a	n/a	n/a	22	16	6	3	7
3088777	PROB	n/a	LTP236	ltpFR2	18	n/a	n/a	n/a	22	23	7	9	7
3090512	PROB	n/a	LTP236	ltpFR2	18	n/a	n/a	n/a	22	18	8	9	1
3091813	PROB	n/a	LTP236	ltpFR2	18	n/a	n/a	n/a	22	8	2	3	3
3093037	STOP	n/a	LTP236	ltpFR2	18	n/a	n/a	n/a	22	n/a	n/a	n/a	n/a
3096285	REC_START	n/a	LTP236	ltpFR2	18	15	n/a	n/a	n/a	n/a	0	0	0
3096993	REC_WORD	wordpools/wasnorm_wordpool_576.txt	LTP236	ltpFR2	18	15	TORTOISE	1486	n/a	n/a	0	0	0
3097776	REC_WORD	wordpools/wasnorm_wordpool_576.txt	LTP236	ltpFR2	18	15	PIGEON	1065	n/a	n/a	0	0	0
3098541	REC_WORD	wordpools/wasnorm_wordpool_576.txt	LTP236	ltpFR2	18	15	COUNTY	389	n/a	n/a	0	0	0
3099389	REC_WORD	wordpools/wasnorm_wordpool_576.txt	LTP236	ltpFR2	18	15	ULCER	1533	n/a	n/a	0	0	0
3101091	REC_WORD	wordpools/wasnorm_wordpool_576.txt	LTP236	ltpFR2	18	15	CREATURE	403	n/a	n/a	0	0	0
3104242	REC_WORD	wordpools/wasnorm_wordpool_576.txt	LTP236	ltpFR2	18	15	FEMALE	559	n/a	n/a	0	0	0
3104761	REC_WORD	wordpools/wasnorm_wordpool_576.txt	LTP236	ltpFR2	18	15	FRIEND	606	n/a	n/a	0	0	0
3105393	REC_WORD	wordpools/wasnorm_wordpool_576.txt	LTP236	ltpFR2	18	15	LOVER	846	n/a	n/a	0	0	0
3106051	REC_WORD	wordpools/wasnorm_wordpool_576.txt	LTP236	ltpFR2	18	15	PARTNER	1017	n/a	n/a	0	0	0
3111473	REC_WORD	wordpools/wasnorm_wordpool_576.txt	LTP236	ltpFR2	18	15	COOKBOOK	373	n/a	n/a	0	0	0
3112389	REC_WORD	wordpools/wasnorm_wordpool_576.txt	LTP236	ltpFR2	18	15	PASTA	1021	n/a	n/a	0	0	0
3113221	REC_WORD	wordpools/wasnorm_wordpool_576.txt	LTP236	ltpFR2	18	15	GARBAGE	622	n/a	n/a	0	0	0
3113937	REC_WORD	wordpools/wasnorm_wordpool_576.txt	LTP236	ltpFR2	18	15	YOLK	1633	n/a	n/a	0	0	0
3115932	REC_WORD	wordpools/wasnorm_wordpool_576.txt	LTP236	ltpFR2	18	15	SHELTER	1282	n/a	n/a	0	0	0
3118359	REC_WORD	wordpools/wasnorm_wordpool_576.txt	LTP236	ltpFR2	18	15	PEPPER	1047	n/a	n/a	0	0	0
3122451	REC_WORD	wordpools/wasnorm_wordpool_576.txt	LTP236	ltpFR2	18	15	PEACH	1031	n/a	n/a	0	0	0
3123247	REC_WORD	wordpools/wasnorm_wordpool_576.txt	LTP236	ltpFR2	18	15	APPLE	33	n/a	n/a	0	0	0
3124096	REC_WORD	wordpools/wasnorm_wordpool_576.txt	LTP236	ltpFR2	18	15	OINTMENT	974	n/a	n/a	0	0	0
3128402	REC_WORD	wordpools/wasnorm_wordpool_576.txt	LTP236	ltpFR2	18	15	FOOTBALL	591	n/a	n/a	0	0	0
3186707	DISTRACTOR	n/a	LTP236	ltpFR2	18	16	n/a	n/a	n/a	n/a	0	0	0
3186707	START	n/a	LTP236	ltpFR2	18	n/a	n/a	n/a	23	n/a	n/a	n/a	n/a
3186722	PROB	n/a	LTP236	ltpFR2	18	n/a	n/a	n/a	23	12	7	4	1
3188792	PROB	n/a	LTP236	ltpFR2	18	n/a	n/a	n/a	23	9	4	4	1
3189759	PROB	n/a	LTP236	ltpFR2	18	n/a	n/a	n/a	23	21	9	5	7
3192161	PROB	n/a	LTP236	ltpFR2	18	n/a	n/a	n/a	23	18	2	7	9
3193428	PROB	n/a	LTP236	ltpFR2	18	n/a	n/a	n/a	23	17	5	9	3
3194580	PROB	n/a	LTP236	ltpFR2	18	n/a	n/a	n/a	23	15	1	8	6
3195645	PROB	n/a	LTP236	ltpFR2	18	n/a	n/a	n/a	23	21	9	5	7
3197663	PROB	n/a	LTP236	ltpFR2	18	n/a	n/a	n/a	23	13	1	4	8
3199416	PROB	n/a	LTP236	ltpFR2	18	n/a	n/a	n/a	23	17	4	9	4
3201217	PROB	n/a	LTP236	ltpFR2	18	n/a	n/a	n/a	23	17	8	1	8
3202869	PROB	n/a	LTP236	ltpFR2	18	n/a	n/a	n/a	23	6	4	1	1
3203853	PROB	n/a	LTP236	ltpFR2	18	n/a	n/a	n/a	23	13	5	6	2
3204856	PROB	n/a	LTP236	ltpFR2	18	n/a	n/a	n/a	23	16	4	4	8
3207555	PROB	n/a	LTP236	ltpFR2	18	n/a	n/a	n/a	23	11	6	1	4
3210707	STOP	n/a	LTP236	ltpFR2	18	n/a	n/a	n/a	23	n/a	n/a	n/a	n/a
3211885	WORD	wordpools/wasnorm_wordpool_576.txt	LTP236	ltpFR2	18	16	CHEMIST	292	n/a	n/a	0	0	0
3214386	WORD	wordpools/wasnorm_wordpool_576.txt	LTP236	ltpFR2	18	16	LAKE	796	n/a	n/a	0	0	0
3216982	WORD	wordpools/wasnorm_wordpool_576.txt	LTP236	ltpFR2	18	16	VALVE	1546	n/a	n/a	0	0	0
3219550	WORD	wordpools/wasnorm_wordpool_576.txt	LTP236	ltpFR2	18	16	GAZELLE	628	n/a	n/a	0	0	0
3222302	WORD	wordpools/wasnorm_wordpool_576.txt	LTP236	ltpFR2	18	16	SUBWAY	1400	n/a	n/a	0	0	0
3225045	WORD	wordpools/wasnorm_wordpool_576.txt	LTP236	ltpFR2	18	16	CHAPEL	280	n/a	n/a	0	0	0
3227523	WORD	wordpools/wasnorm_wordpool_576.txt	LTP236	ltpFR2	18	16	PRIMATE	1123	n/a	n/a	0	0	0
3230234	WORD	wordpools/wasnorm_wordpool_576.txt	LTP236	ltpFR2	18	16	BLADE	134	n/a	n/a	0	0	0
3232994	WORD	wordpools/wasnorm_wordpool_576.txt	LTP236	ltpFR2	18	16	CHURCH	307	n/a	n/a	0	0	0
3235737	WORD	wordpools/wasnorm_wordpool_576.txt	LTP236	ltpFR2	18	16	HORSE	719	n/a	n/a	0	0	0
3238365	WORD	wordpools/wasnorm_wordpool_576.txt	LTP236	ltpFR2	18	16	HONEY	713	n/a	n/a	0	0	0
3241151	WORD	wordpools/wasnorm_wordpool_576.txt	LTP236	ltpFR2	18	16	DANDRUFF	439	n/a	n/a	0	0	0
3243762	WORD	wordpools/wasnorm_wordpool_576.txt	LTP236	ltpFR2	18	16	BLOCKADE	137	n/a	n/a	0	0	0
3246189	WORD	wordpools/wasnorm_wordpool_576.txt	LTP236	ltpFR2	18	16	GARLIC	624	n/a	n/a	0	0	0
3248748	WORD	wordpools/wasnorm_wordpool_576.txt	LTP236	ltpFR2	18	16	PERFUME	1049	n/a	n/a	0	0	0
3251352	WORD	wordpools/wasnorm_wordpool_576.txt	LTP236	ltpFR2	18	16	CONVICT	371	n/a	n/a	0	0	0
3254011	WORD	wordpools/wasnorm_wordpool_576.txt	LTP236	ltpFR2	18	16	INMATE	738	n/a	n/a	0	0	0
3256472	WORD	wordpools/wasnorm_wordpool_576.txt	LTP236	ltpFR2	18	16	TUNNEL	1519	n/a	n/a	0	0	0
3259275	WORD	wordpools/wasnorm_wordpool_576.txt	LTP236	ltpFR2	18	16	VAGRANT	1544	n/a	n/a	0	0	0
3261878	WORD	wordpools/wasnorm_wordpool_576.txt	LTP236	ltpFR2	18	16	TRACTOR	1493	n/a	n/a	0	0	0
3264645	WORD	wordpools/wasnorm_wordpool_576.txt	LTP236	ltpFR2	18	16	CRITIC	410	n/a	n/a	0	0	0
3267439	WORD	wordpools/wasnorm_wordpool_576.txt	LTP236	ltpFR2	18	16	ANTLER	29	n/a	n/a	0	0	0
3270141	WORD	wordpools/wasnorm_wordpool_576.txt	LTP236	ltpFR2	18	16	TRENCH	1503	n/a	n/a	0	0	0
3272843	WORD	wordpools/wasnorm_wordpool_576.txt	LTP236	ltpFR2	18	16	ONION	977	n/a	n/a	0	0	0
3274456	START	n/a	LTP236	ltpFR2	18	n/a	n/a	n/a	24	n/a	n/a	n/a	n/a
3275603	DISTRACTOR	n/a	LTP236	ltpFR2	18	16	n/a	n/a	n/a	n/a	0	0	0
3275611	PROB	n/a	LTP236	ltpFR2	18	n/a	n/a	n/a	24	12	5	2	5
3277313	PROB	n/a	LTP236	ltpFR2	18	n/a	n/a	n/a	24	15	6	4	5
3278997	PROB	n/a	LTP236	ltpFR2	18	n/a	n/a	n/a	24	15	8	3	4
3282049	PROB	n/a	LTP236	ltpFR2	18	n/a	n/a	n/a	24	14	5	4	5
3283468	PROB	n/a	LTP236	ltpFR2	18	n/a	n/a	n/a	24	17	8	7	2
3286821	PROB	n/a	LTP236	ltpFR2	18	n/a	n/a	n/a	24	13	7	2	4
3289172	PROB	n/a	LTP236	ltpFR2	18	n/a	n/a	n/a	24	9	4	4	1
3290140	PROB	n/a	LTP236	ltpFR2	18	n/a	n/a	n/a	24	13	2	4	7
3291441	PROB	n/a	LTP236	ltpFR2	18	n/a	n/a	n/a	24	18	8	6	4
3292642	PROB	n/a	LTP236	ltpFR2	18	n/a	n/a	n/a	24	11	1	2	8
3293658	PROB	n/a	LTP236	ltpFR2	18	n/a	n/a	n/a	24	12	1	6	5
3295128	PROB	n/a	LTP236	ltpFR2	18	n/a	n/a	n/a	24	12	1	8	3
3298456	STOP	n/a	LTP236	ltpFR2	18	n/a	n/a	n/a	24	n/a	n/a	n/a	n/a
3300366	REC_START	n/a	LTP236	ltpFR2	18	16	n/a	n/a	n/a	n/a	0	0	0
3300908	REC_WORD	wordpools/wasnorm_wordpool_576.txt	LTP236	ltpFR2	18	16	TRENCH	1503	n/a	n/a	0	0	0
3302000	REC_WORD	wordpools/wasnorm_wordpool_576.txt	LTP236	ltpFR2	18	16	ONION	977	n/a	n/a	0	0	0
3303347	REC_WORD	wordpools/wasnorm_wordpool_576.txt	LTP236	ltpFR2	18	16	PERFUME	1049	n/a	n/a	0	0	0
3305440	REC_WORD	wordpools/wasnorm_wordpool_576.txt	LTP236	ltpFR2	18	16	CONVICT	371	n/a	n/a	0	0	0
3306421	REC_WORD	wordpools/wasnorm_wordpool_576.txt	LTP236	ltpFR2	18	16	INMATE	738	n/a	n/a	0	0	0
3307504	REC_WORD	wordpools/wasnorm_wordpool_576.txt	LTP236	ltpFR2	18	16	PRIMATE	1123	n/a	n/a	0	0	0
3309458	REC_WORD	wordpools/wasnorm_wordpool_576.txt	LTP236	ltpFR2	18	16	TUNNEL	1519	n/a	n/a	0	0	0
3341484	REC_WORD	wordpools/wasnorm_wordpool_576.txt	LTP236	ltpFR2	18	16	SUBWAY	1400	n/a	n/a	0	0	0
3345339	REC_WORD	wordpools/wasnorm_wordpool_576.txt	LTP236	ltpFR2	18	16	TRACTOR	1493	n/a	n/a	0	0	0
3347063	REC_WORD	wordpools/wasnorm_wordpool_576.txt	LTP236	ltpFR2	18	16	BLADE	134	n/a	n/a	0	0	0
3348012	REC_WORD	wordpools/wasnorm_wordpool_576.txt	LTP236	ltpFR2	18	16	ANTLER	29	n/a	n/a	0	0	0
3363950	REC_WORD	wordpools/wasnorm_wordpool_576.txt	LTP236	ltpFR2	18	16	CHAPEL	280	n/a	n/a	0	0	0
3365068	REC_WORD	wordpools/wasnorm_wordpool_576.txt	LTP236	ltpFR2	18	16	CHURCH	307	n/a	n/a	0	0	0
3376909	REST_REWET	n/a	LTP236	ltpFR2	18	16	n/a	n/a	n/a	n/a	0	0	0
3705238	WORD	wordpools/wasnorm_wordpool_576.txt	LTP236	ltpFR2	18	17	OMELET	976	n/a	n/a	0	0	0
3708033	WORD	wordpools/wasnorm_wordpool_576.txt	LTP236	ltpFR2	18	17	POLICE	1098	n/a	n/a	0	0	0
3710710	WORD	wordpools/wasnorm_wordpool_576.txt	LTP236	ltpFR2	18	17	PANTHER	1009	n/a	n/a	0	0	0
3713363	WORD	wordpools/wasnorm_wordpool_576.txt	LTP236	ltpFR2	18	17	GOBLIN	645	n/a	n/a	0	0	0
3715924	WORD	wordpools/wasnorm_wordpool_576.txt	LTP236	ltpFR2	18	17	MONSTER	912	n/a	n/a	0	0	0
3718408	WORD	wordpools/wasnorm_wordpool_576.txt	LTP236	ltpFR2	18	17	SURVEY	1414	n/a	n/a	0	0	0
3721002	WORD	wordpools/wasnorm_wordpool_576.txt	LTP236	ltpFR2	18	17	LIVER	833	n/a	n/a	0	0	0
3723537	WORD	wordpools/wasnorm_wordpool_576.txt	LTP236	ltpFR2	18	17	EMPIRE	530	n/a	n/a	0	0	0
3726165	WORD	wordpools/wasnorm_wordpool_576.txt	LTP236	ltpFR2	18	17	OUTFIT	988	n/a	n/a	0	0	0
3728724	WORD	wordpools/wasnorm_wordpool_576.txt	LTP236	ltpFR2	18	17	MUFFIN	929	n/a	n/a	0	0	0
3731203	WORD	wordpools/wasnorm_wordpool_576.txt	LTP236	ltpFR2	18	17	PASTRY	1022	n/a	n/a	0	0	0
3733979	WORD	wordpools/wasnorm_wordpool_576.txt	LTP236	ltpFR2	18	17	SWIMMER	1420	n/a	n/a	0	0	0
3736457	WORD	wordpools/wasnorm_wordpool_576.txt	LTP236	ltpFR2	18	17	AIRPORT	13	n/a	n/a	0	0	0
3739159	WORD	wordpools/wasnorm_wordpool_576.txt	LTP236	ltpFR2	18	17	HATCHET	691	n/a	n/a	0	0	0
3741886	WORD	wordpools/wasnorm_wordpool_576.txt	LTP236	ltpFR2	18	17	STOVE	1388	n/a	n/a	0	0	0
3744499	WORD	wordpools/wasnorm_wordpool_576.txt	LTP236	ltpFR2	18	17	NOTEBOOK	959	n/a	n/a	0	0	0
3747117	WORD	wordpools/wasnorm_wordpool_576.txt	LTP236	ltpFR2	18	17	VICTIM	1562	n/a	n/a	0	0	0
3749852	WORD	wordpools/wasnorm_wordpool_576.txt	LTP236	ltpFR2	18	17	FRUIT	610	n/a	n/a	0	0	0
3752644	WORD	wordpools/wasnorm_wordpool_576.txt	LTP236	ltpFR2	18	17	ORANGE	980	n/a	n/a	0	0	0
3755375	WORD	wordpools/wasnorm_wordpool_576.txt	LTP236	ltpFR2	18	17	BACON	67	n/a	n/a	0	0	0
3757899	WORD	wordpools/wasnorm_wordpool_576.txt	LTP236	ltpFR2	18	17	HEART	697	n/a	n/a	0	0	0
3760645	WORD	wordpools/wasnorm_wordpool_576.txt	LTP236	ltpFR2	18	17	FOX	598	n/a	n/a	0	0	0
3763282	WORD	wordpools/wasnorm_wordpool_576.txt	LTP236	ltpFR2	18	17	SMOG	1330	n/a	n/a	0	0	0
3765732	WORD	wordpools/wasnorm_wordpool_576.txt	LTP236	ltpFR2	18	17	WITNESS	1618	n/a	n/a	0	0	0
3767341	START	n/a	LTP236	ltpFR2	18	n/a	n/a	n/a	25	n/a	n/a	n/a	n/a
3768540	DISTRACTOR	n/a	LTP236	ltpFR2	18	17	n/a	n/a	n/a	n/a	0	0	0
3768551	PROB	n/a	LTP236	ltpFR2	18	n/a	n/a	n/a	25	12	9	1	2
3770257	PROB	n/a	LTP236	ltpFR2	18	n/a	n/a	n/a	25	19	6	8	5
3771876	PROB	n/a	LTP236	ltpFR2	18	n/a	n/a	n/a	25	11	3	6	2
3772876	PROB	n/a	LTP236	ltpFR2	18	n/a	n/a	n/a	25	20	8	6	6
3774294	PROB	n/a	LTP236	ltpFR2	18	n/a	n/a	n/a	25	19	5	9	5
3775560	PROB	n/a	LTP236	ltpFR2	18	n/a	n/a	n/a	25	18	6	7	5
3776580	PROB	n/a	LTP236	ltpFR2	18	n/a	n/a	n/a	25	12	5	4	3
3778064	PROB	n/a	LTP236	ltpFR2	18	n/a	n/a	n/a	25	11	9	1	1
3778899	PROB	n/a	LTP236	ltpFR2	18	n/a	n/a	n/a	25	16	3	9	4
3779850	PROB	n/a	LTP236	ltpFR2	18	n/a	n/a	n/a	25	12	2	3	7
3780718	PROB	n/a	LTP236	ltpFR2	18	n/a	n/a	n/a	25	19	3	7	9
3784049	PROB	n/a	LTP236	ltpFR2	18	n/a	n/a	n/a	25	1	3	2	6
3785182	PROB	n/a	LTP236	ltpFR2	18	n/a	n/a	n/a	25	16	3	5	5
3786555	PROB	n/a	LTP236	ltpFR2	18	n/a	n/a	n/a	25	4	1	2	1
3789169	PROB	n/a	LTP236	ltpFR2	18	n/a	n/a	n/a	25	18	8	6	4
3790560	STOP	n/a	LTP236	ltpFR2	18	n/a	n/a	n/a	25	n/a	n/a	n/a	n/a
3793275	REC_START	n/a	LTP236	ltpFR2	18	17	n/a	n/a	n/a	n/a	0	0	0
3794373	REC_WORD	wordpools/wasnorm_wordpool_576.txt	LTP236	ltpFR2	18	17	FOX	598	n/a	n/a	0	0	0
3795093	REC_WORD	wordpools/wasnorm_wordpool_576.txt	LTP236	ltpFR2	18	17	SMOG	1330	n/a	n/a	0	0	0
3795769	REC_WORD	wordpools/wasnorm_wordpool_576.txt	LTP236	ltpFR2	18	17	WITNESS	1618	n/a	n/a	0	0	0
3796551	REC_WORD	wordpools/wasnorm_wordpool_576.txt	LTP236	ltpFR2	18	17	AIRPORT	13	n/a	n/a	0	0	0
3798504	REC_WORD	wordpools/wasnorm_wordpool_576.txt	LTP236	ltpFR2	18	17	VICTIM	1562	n/a	n/a	0	0	0
3801082	REC_WORD	wordpools/wasnorm_wordpool_576.txt	LTP236	ltpFR2	18	17	STOVE	1388	n/a	n/a	0	0	0
3802200	REC_WORD	wordpools/wasnorm_wordpool_576.txt	LTP236	ltpFR2	18	17	BACON	67	n/a	n/a	0	0	0
3802854	REC_WORD	wordpools/wasnorm_wordpool_576.txt	LTP236	ltpFR2	18	17	HEART	697	n/a	n/a	0	0	0
3803899	REC_WORD	wordpools/wasnorm_wordpool_576.txt	LTP236	ltpFR2	18	17	FRUIT	610	n/a	n/a	0	0	0
3805490	REC_WORD	wordpools/wasnorm_wordpool_576.txt	LTP236	ltpFR2	18	17	ORANGE	980	n/a	n/a	0	0	0
3811056	REC_WORD	wordpools/wasnorm_wordpool_576.txt	LTP236	ltpFR2	18	17	MUFFIN	929	n/a	n/a	0	0	0
3813207	REC_WORD	wordpools/wasnorm_wordpool_576.txt	LTP236	ltpFR2	18	17	PASTRY	1022	n/a	n/a	0	0	0
3816247	REC_WORD	wordpools/wasnorm_wordpool_576.txt	LTP236	ltpFR2	18	17	LIVER	833	n/a	n/a	0	0	0
3818610	REC_WORD	wordpools/wasnorm_wordpool_576.txt	LTP236	ltpFR2	18	17	ORGAN	984	n/a	n/a	0	0	0
3823965	REC_WORD	wordpools/wasnorm_wordpool_576.txt	LTP236	ltpFR2	18	17	SURVEY	1414	n/a	n/a	0	0	0
3824970	REC_WORD	wordpools/wasnorm_wordpool_576.txt	LTP236	ltpFR2	18	17	NOTEBOOK	959	n/a	n/a	0	0	0
3830869	REC_WORD	wordpools/wasnorm_wordpool_576.txt	LTP236	ltpFR2	18	17	MONSTER	912	n/a	n/a	0	0	0
3883730	WORD	wordpools/wasnorm_wordpool_576.txt	LTP236	ltpFR2	18	18	ACTRESS	6	n/a	n/a	0	0	0
3886452	WORD	wordpools/wasnorm_wordpool_576.txt	LTP236	ltpFR2	18	18	PISTOL	1075	n/a	n/a	0	0	0
3889171	WORD	wordpools/wasnorm_wordpool_576.txt	LTP236	ltpFR2	18	18	WAGON	1578	n/a	n/a	0	0	0
3891591	WORD	wordpools/wasnorm_wordpool_576.txt	LTP236	ltpFR2	18	18	MESSAGE	888	n/a	n/a	0	0	0
3894346	WORD	wordpools/wasnorm_wordpool_576.txt	LTP236	ltpFR2	18	18	CRUTCH	417	n/a	n/a	0	0	0
3896843	WORD	wordpools/wasnorm_wordpool_576.txt	LTP236	ltpFR2	18	18	LEG	809	n/a	n/a	0	0	0
3899611	WORD	wordpools/wasnorm_wordpool_576.txt	LTP236	ltpFR2	18	18	POISON	1096	n/a	n/a	0	0	0
3902030	WORD	wordpools/wasnorm_wordpool_576.txt	LTP236	ltpFR2	18	18	FOOT	590	n/a	n/a	0	0	0
3904666	WORD	wordpools/wasnorm_wordpool_576.txt	LTP236	ltpFR2	18	18	CONTRACT	368	n/a	n/a	0	0	0
3907157	WORD	wordpools/wasnorm_wordpool_576.txt	LTP236	ltpFR2	18	18	DIME	466	n/a	n/a	0	0	0
3909821	WORD	wordpools/wasnorm_wordpool_576.txt	LTP236	ltpFR2	18	18	BRACES	164	n/a	n/a	0	0	0
3912506	WORD	wordpools/wasnorm_wordpool_576.txt	LTP236	ltpFR2	18	18	CURTAIN	427	n/a	n/a	0	0	0
3915225	WORD	wordpools/wasnorm_wordpool_576.txt	LTP236	ltpFR2	18	18	ROD	1203	n/a	n/a	0	0	0
3917894	WORD	wordpools/wasnorm_wordpool_576.txt	LTP236	ltpFR2	18	18	MOTOR	922	n/a	n/a	0	0	0
3920379	WORD	wordpools/wasnorm_wordpool_576.txt	LTP236	ltpFR2	18	18	CABBAGE	210	n/a	n/a	0	0	0
3923004	WORD	wordpools/wasnorm_wordpool_576.txt	LTP236	ltpFR2	18	18	FLASK	576	n/a	n/a	0	0	0
3925505	WORD	wordpools/wasnorm_wordpool_576.txt	LTP236	ltpFR2	18	18	WORLD	1622	n/a	n/a	0	0	0
3928236	WORD	wordpools/wasnorm_wordpool_576.txt	LTP236	ltpFR2	18	18	DENTIST	447	n/a	n/a	0	0	0
3930787	WORD	wordpools/wasnorm_wordpool_576.txt	LTP236	ltpFR2	18	18	FLASHLIGHT	575	n/a	n/a	0	0	0
3933396	WORD	wordpools/wasnorm_wordpool_576.txt	LTP236	ltpFR2	18	18	STAPLE	1371	n/a	n/a	0	0	0
3935975	WORD	wordpools/wasnorm_wordpool_576.txt	LTP236	ltpFR2	18	18	CLAMP	316	n/a	n/a	0	0	0
3938494	WORD	wordpools/wasnorm_wordpool_576.txt	LTP236	ltpFR2	18	18	MASK	876	n/a	n/a	0	0	0
3940935	WORD	wordpools/wasnorm_wordpool_576.txt	LTP236	ltpFR2	18	18	FOREHEAD	592	n/a	n/a	0	0	0
3943580	WORD	wordpools/wasnorm_wordpool_576.txt	LTP236	ltpFR2	18	18	SADDLE	1221	n/a	n/a	0	0	0
3945190	START	n/a	LTP236	ltpFR2	18	n/a	n/a	n/a	26	n/a	n/a	n/a	n/a
3946166	DISTRACTOR	n/a	LTP236	ltpFR2	18	18	n/a	n/a	n/a	n/a	0	0	0
3946174	PROB	n/a	LTP236	ltpFR2	18	n/a	n/a	n/a	26	18	4	5	9
3948150	PROB	n/a	LTP236	ltpFR2	18	n/a	n/a	n/a	26	18	5	5	8
3949234	PROB	n/a	LTP236	ltpFR2	18	n/a	n/a	n/a	26	17	6	3	8
3952388	PROB	n/a	LTP236	ltpFR2	18	n/a	n/a	n/a	26	18	8	1	9
3954173	PROB	n/a	LTP236	ltpFR2	18	n/a	n/a	n/a	26	10	1	8	1
3955139	PROB	n/a	LTP236	ltpFR2	18	n/a	n/a	n/a	26	10	1	8	1
3956442	PROB	n/a	LTP236	ltpFR2	18	n/a	n/a	n/a	26	21	8	4	9
3960042	PROB	n/a	LTP236	ltpFR2	18	n/a	n/a	n/a	26	16	4	4	8
3961278	PROB	n/a	LTP236	ltpFR2	18	n/a	n/a	n/a	26	8	3	3	2
3962195	PROB	n/a	LTP236	ltpFR2	18	n/a	n/a	n/a	26	13	8	1	4
3963413	PROB	n/a	LTP236	ltpFR2	18	n/a	n/a	n/a	26	18	7	2	9
3964379	PROB	n/a	LTP236	ltpFR2	18	n/a	n/a	n/a	26	15	1	6	8
3965330	PROB	n/a	LTP236	ltpFR2	18	n/a	n/a	n/a	26	14	5	5	4
3966266	PROB	n/a	LTP236	ltpFR2	18	n/a	n/a	n/a	26	16	5	8	3
3967316	PROB	n/a	LTP236	ltpFR2	18	n/a	n/a	n/a	26	21	9	4	8
3968384	STOP	n/a	LTP236	ltpFR2	18	n/a	n/a	n/a	26	n/a	n/a	n/a	n/a
3971035	REC_START	n/a	LTP236	ltpFR2	18	18	n/a	n/a	n/a	n/a	0	0	0
3971714	REC_WORD	wordpools/wasnorm_wordpool_576.txt	LTP236	ltpFR2	18	18	FOREHEAD	592	n/a	n/a	0	0	0
3972703	REC_WORD	wordpools/wasnorm_wordpool_576.txt	LTP236	ltpFR2	18	18	SADDLE	1221	n/a	n/a	0	0	0
3973636	REC_WORD	wordpools/wasnorm_wordpool_576.txt	LTP236	ltpFR2	18	18	FLASHLIGHT	575	n/a	n/a	0	0	0
3974945	REC_WORD	wordpools/wasnorm_wordpool_576.txt	LTP236	ltpFR2	18	18	MASK	876	n/a	n/a	0	0	0
3977433	REC_WORD	wordpools/wasnorm_wordpool_576.txt	LTP236	ltpFR2	18	18	DENTIST	447	n/a	n/a	0	0	0
3978827	REC_WORD	wordpools/wasnorm_wordpool_576.txt	LTP236	ltpFR2	18	18	STAPLE	1371	n/a	n/a	0	0	0
3987644	REC_WORD	wordpools/wasnorm_wordpool_576.txt	LTP236	ltpFR2	18	18	WORLD	1622	n/a	n/a	0	0	0
4061492	DISTRACTOR	n/a	LTP236	ltpFR2	18	19	n/a	n/a	n/a	n/a	0	0	0
4061492	START	n/a	LTP236	ltpFR2	18	n/a	n/a	n/a	27	n/a	n/a	n/a	n/a
4061509	PROB	n/a	LTP236	ltpFR2	18	n/a	n/a	n/a	27	16	8	2	6
4062844	PROB	n/a	LTP236	ltpFR2	18	n/a	n/a	n/a	27	8	4	3	1
4063827	PROB	n/a	LTP236	ltpFR2	18	n/a	n/a	n/a	27	15	7	7	4
4064945	PROB	n/a	LTP236	ltpFR2	18	n/a	n/a	n/a	27	14	3	7	4
4067012	PROB	n/a	LTP236	ltpFR2	18	n/a	n/a	n/a	27	19	3	8	8
4068498	PROB	n/a	LTP236	ltpFR2	18	n/a	n/a	n/a	27	12	4	7	1
4069497	PROB	n/a	LTP236	ltpFR2	18	n/a	n/a	n/a	27	20	4	7	9
4071899	PROB	n/a	LTP236	ltpFR2	18	n/a	n/a	n/a	27	18	7	2	9
4073285	PROB	n/a	LTP236	ltpFR2	18	n/a	n/a	n/a	27	11	3	7	1
4074203	PROB	n/a	LTP236	ltpFR2	18	n/a	n/a	n/a	27	5	1	1	3
