onset	duration	trial_type	sample	stim_file	subject	experiment	session	trial	task	item_name	item_num	recog_conf	resp	color_b	color_g	color_r	case	font
255.442	n/a	SESS_START	127721	n/a	LTP144	ltpFR	4	n/a	n/a	n/a	n/a	3	n/a	n/a	n/a	n/a	n/a	n/a
354.92	n/a	WORD	177460	wordpools/wasnorm_wordpool.txt	LTP144	ltpFR	4	1	0	MONEY	908	n/a	0	0	0.5869140625	0.422607421875	upper	../fonts/amplitud.ttf
358.842	n/a	WORD	179421	wordpools/wasnorm_wordpool.txt	LTP144	ltpFR	4	1	0	CRAYON	401	n/a	0	0	0.5869140625	0.422607421875	upper	../fonts/amplitud.ttf
362.726	n/a	WORD	181363	wordpools/wasnorm_wordpool.txt	LTP144	ltpFR	4	1	1	CASH	252	n/a	0	1	0.412841796875	0.57763671875	lower	../fonts/zerothre.ttf
366.74	n/a	WORD	183370	wordpools/wasnorm_wordpool.txt	LTP144	ltpFR	4	1	1	POTTERY	1116	n/a	0	1	0.412841796875	0.57763671875	lower	../fonts/zerothre.ttf
370.614	n/a	WORD	185307	wordpools/wasnorm_wordpool.txt	LTP144	ltpFR	4	1	1	CELLO	268	n/a	1	1	0.412841796875	0.57763671875	lower	../fonts/zerothre.ttf
374.804	n/a	WORD	187402	wordpools/wasnorm_wordpool.txt	LTP144	ltpFR	4	1	1	RECORD	1176	n/a	0	1	0.412841796875	0.57763671875	lower	../fonts/zerothre.ttf
378.736	n/a	WORD	189368	wordpools/wasnorm_wordpool.txt	LTP144	ltpFR	4	1	1	POT	1114	n/a	0	1	0.412841796875	0.57763671875	lower	../fonts/zerothre.ttf
382.568	n/a	WORD	191284	wordpools/wasnorm_wordpool.txt	LTP144	ltpFR	4	1	0	REGISTER	1180	n/a	0	0	0.5869140625	0.422607421875	upper	../fonts/amplitud.ttf
386.66	n/a	WORD	193330	wordpools/wasnorm_wordpool.txt	LTP144	ltpFR	4	1	0	PORK	1108	n/a	1	0	0.5869140625	0.422607421875	upper	../fonts/amplitud.ttf
390.49	n/a	WORD	195245	wordpools/wasnorm_wordpool.txt	LTP144	ltpFR	4	1	0	WHALE	1601	n/a	1	0	0.5869140625	0.422607421875	upper	../fonts/amplitud.ttf
394.34	n/a	WORD	197170	wordpools/wasnorm_wordpool.txt	LTP144	ltpFR	4	1	0	DICE	461	n/a	0	0	0.5869140625	0.422607421875	upper	../fonts/amplitud.ttf
398.488	n/a	WORD	199244	wordpools/wasnorm_wordpool.txt	LTP144	ltpFR	4	1	1	CHEERLEADER	288	n/a	1	1	0.412841796875	0.57763671875	lower	../fonts/zerothre.ttf
402.48	n/a	WORD	201240	wordpools/wasnorm_wordpool.txt	LTP144	ltpFR	4	1	1	VALLEY	1545	n/a	1	1	0.412841796875	0.57763671875	lower	../fonts/zerothre.ttf
406.602	n/a	WORD	203301	wordpools/wasnorm_wordpool.txt	LTP144	ltpFR	4	1	1	CLIMBER	323	n/a	1	1	0.412841796875	0.57763671875	lower	../fonts/zerothre.ttf
410.502	n/a	WORD	205251	wordpools/wasnorm_wordpool.txt	LTP144	ltpFR	4	1	0	CANARY	227	n/a	0	0	0.5869140625	0.422607421875	upper	../fonts/amplitud.ttf
414.65	n/a	WORD	207325	wordpools/wasnorm_wordpool.txt	LTP144	ltpFR	4	1	0	COD	340	n/a	1	0	0.5869140625	0.422607421875	upper	../fonts/amplitud.ttf
420.516	n/a	REC_START	210258	n/a	LTP144	ltpFR	4	1	n/a	n/a	n/a	n/a	n/a	n/a	n/a	n/a	n/a	n/a
422.372	n/a	REC_WORD	211186	wordpools/wasnorm_wordpool.txt	LTP144	ltpFR	4	1	0	CANARY	227	n/a	0	n/a	n/a	n/a	n/a	n/a
423.116	n/a	REC_WORD	211558	wordpools/wasnorm_wordpool.txt	LTP144	ltpFR	4	1	0	COD	340	n/a	1	n/a	n/a	n/a	n/a	n/a
424.732	n/a	REC_WORD	212366	wordpools/wasnorm_wordpool.txt	LTP144	ltpFR	4	1	1	CLIMBER	323	n/a	1	n/a	n/a	n/a	n/a	n/a
425.674	n/a	REC_WORD	212837	wordpools/wasnorm_wordpool.txt	LTP144	ltpFR	4	1	1	VALLEY	1545	n/a	1	n/a	n/a	n/a	n/a	n/a
426.836	n/a	REC_WORD	213418	wordpools/wasnorm_wordpool.txt	LTP144	ltpFR	4	1	1	CHEERLEADER	288	n/a	1	n/a	n/a	n/a	n/a	n/a
429.796	n/a	REC_WORD	214898	wordpools/wasnorm_wordpool.txt	LTP144	ltpFR	4	1	0	MONEY	908	n/a	0	n/a	n/a	n/a	n/a	n/a
430.658	n/a	REC_WORD	215329	wordpools/wasnorm_wordpool.txt	LTP144	ltpFR	4	1	1	CASH	252	n/a	0	n/a	n/a	n/a	n/a	n/a
431.532	n/a	REC_WORD	215766	wordpools/wasnorm_wordpool.txt	LTP144	ltpFR	4	1	1	POTTERY	1116	n/a	0	n/a	n/a	n/a	n/a	n/a
432.954	n/a	REC_WORD	216477	wordpools/wasnorm_wordpool.txt	LTP144	ltpFR	4	1	1	POT	1114	n/a	0	n/a	n/a	n/a	n/a	n/a
441.58	n/a	REC_WORD	220790	wordpools/wasnorm_wordpool.txt	LTP144	ltpFR	4	1	0	WHALE	1601	n/a	1	n/a	n/a	n/a	n/a	n/a
445.884	n/a	REC_WORD	222942	wordpools/wasnorm_wordpool.txt	LTP144	ltpFR	4	1	0	PORK	1108	n/a	1	n/a	n/a	n/a	n/a	n/a
468.13	n/a	REC_WORD	234065	wordpools/wasnorm_wordpool.txt	LTP144	ltpFR	4	1	1	CELLO	268	n/a	1	n/a	n/a	n/a	n/a	n/a
468.958	n/a	REC_WORD	234479	wordpools/wasnorm_wordpool.txt	LTP144	ltpFR	4	1	1	RECORD	1176	n/a	0	n/a	n/a	n/a	n/a	n/a
483.492	n/a	REC_WORD	241746	wordpools/wasnorm_wordpool.txt	LTP144	ltpFR	4	1	0	REGISTER	1180	n/a	0	n/a	n/a	n/a	n/a	n/a
507.556	n/a	WORD	253778	wordpools/wasnorm_wordpool.txt	LTP144	ltpFR	4	2	1	SAUCER	1237	n/a	0	1	0.412841796875	0.57763671875	lower	../fonts/zerothre.ttf
511.714	n/a	WORD	255857	wordpools/wasnorm_wordpool.txt	LTP144	ltpFR	4	2	1	TELEPHONE	1445	n/a	0	1	0.412841796875	0.57763671875	lower	../fonts/zerothre.ttf
515.846	n/a	WORD	257923	wordpools/wasnorm_wordpool.txt	LTP144	ltpFR	4	2	1	DAM	436	n/a	0	1	0.412841796875	0.57763671875	lower	../fonts/zerothre.ttf
519.786	n/a	WORD	259893	wordpools/wasnorm_wordpool.txt	LTP144	ltpFR	4	2	0	OATMEAL	967	n/a	0	0	0.5869140625	0.422607421875	upper	../fonts/amplitud.ttf
523.642	n/a	WORD	261821	wordpools/wasnorm_wordpool.txt	LTP144	ltpFR	4	2	0	KEEPER	769	n/a	1	0	0.5869140625	0.422607421875	upper	../fonts/amplitud.ttf
527.666	n/a	WORD	263833	wordpools/wasnorm_wordpool.txt	LTP144	ltpFR	4	2	0	SWING	1421	n/a	1	0	0.5869140625	0.422607421875	upper	../fonts/amplitud.ttf
531.716	n/a	WORD	265858	wordpools/wasnorm_wordpool.txt	LTP144	ltpFR	4	2	1	RIVER	1194	n/a	0	1	0.412841796875	0.57763671875	lower	../fonts/zerothre.ttf
535.674	n/a	WORD	267837	wordpools/wasnorm_wordpool.txt	LTP144	ltpFR	4	2	1	FIREMAN	569	n/a	1	1	0.412841796875	0.57763671875	lower	../fonts/zerothre.ttf
539.73	n/a	WORD	269865	wordpools/wasnorm_wordpool.txt	LTP144	ltpFR	4	2	1	MATCH	878	n/a	0	1	0.412841796875	0.57763671875	lower	../fonts/zerothre.ttf
543.92	n/a	WORD	271960	wordpools/wasnorm_wordpool.txt	LTP144	ltpFR	4	2	0	PLAID	1080	n/a	0	0	0.5869140625	0.422607421875	upper	../fonts/amplitud.ttf
548.018	n/a	WORD	274009	wordpools/wasnorm_wordpool.txt	LTP144	ltpFR	4	2	0	FUNGUS	614	n/a	0	0	0.5869140625	0.422607421875	upper	../fonts/amplitud.ttf
552.026	n/a	WORD	276013	wordpools/wasnorm_wordpool.txt	LTP144	ltpFR	4	2	0	CELERY	266	n/a	0	0	0.5869140625	0.422607421875	upper	../fonts/amplitud.ttf
555.908	n/a	WORD	277954	wordpools/wasnorm_wordpool.txt	LTP144	ltpFR	4	2	0	COOKBOOK	373	n/a	0	0	0.5869140625	0.422607421875	upper	../fonts/amplitud.ttf
559.766	n/a	WORD	279883	wordpools/wasnorm_wordpool.txt	LTP144	ltpFR	4	2	0	BARREL	91	n/a	1	0	0.5869140625	0.422607421875	upper	../fonts/amplitud.ttf
563.83	n/a	WORD	281915	wordpools/wasnorm_wordpool.txt	LTP144	ltpFR	4	2	1	BARTENDER	92	n/a	1	1	0.412841796875	0.57763671875	lower	../fonts/zerothre.ttf
567.922	n/a	WORD	283961	wordpools/wasnorm_wordpool.txt	LTP144	ltpFR	4	2	1	MANAGER	863	n/a	1	1	0.412841796875	0.57763671875	lower	../fonts/zerothre.ttf
573.978	n/a	REC_START	286989	n/a	LTP144	ltpFR	4	2	n/a	n/a	n/a	n/a	n/a	n/a	n/a	n/a	n/a	n/a
575.326	n/a	REC_WORD	287663	wordpools/wasnorm_wordpool.txt	LTP144	ltpFR	4	2	1	BARTENDER	92	n/a	1	n/a	n/a	n/a	n/a	n/a
576.368	n/a	REC_WORD	288184	wordpools/wasnorm_wordpool.txt	LTP144	ltpFR	4	2	1	MANAGER	863	n/a	1	n/a	n/a	n/a	n/a	n/a
581.462	n/a	REC_WORD	290731	wordpools/wasnorm_wordpool.txt	LTP144	ltpFR	4	2	0	COOKBOOK	373	n/a	0	n/a	n/a	n/a	n/a	n/a
588.37	n/a	REC_WORD	294185	wordpools/wasnorm_wordpool.txt	LTP144	ltpFR	4	2	1	FIREMAN	569	n/a	1	n/a	n/a	n/a	n/a	n/a
589.264	n/a	REC_WORD	294632	wordpools/wasnorm_wordpool.txt	LTP144	ltpFR	4	2	1	MATCH	878	n/a	0	n/a	n/a	n/a	n/a	n/a
595.27	n/a	REC_WORD	297635	wordpools/wasnorm_wordpool.txt	LTP144	ltpFR	4	2	1	RIVER	1194	n/a	0	n/a	n/a	n/a	n/a	n/a
602.48	n/a	REC_WORD	301240	wordpools/wasnorm_wordpool.txt	LTP144	ltpFR	4	2	0	OATMEAL	967	n/a	0	n/a	n/a	n/a	n/a	n/a
607.942	n/a	REC_WORD	303971	wordpools/wasnorm_wordpool.txt	LTP144	ltpFR	4	2	0	PLAID	1080	n/a	0	n/a	n/a	n/a	n/a	n/a
619.432	n/a	REC_WORD	309716	wordpools/wasnorm_wordpool.txt	LTP144	ltpFR	4	2	0	KEEPER	769	n/a	1	n/a	n/a	n/a	n/a	n/a
636.1	n/a	REC_WORD	318050	wordpools/wasnorm_wordpool.txt	LTP144	ltpFR	4	2	0	BARREL	91	n/a	1	n/a	n/a	n/a	n/a	n/a
674.898	n/a	WORD	337449	wordpools/wasnorm_wordpool.txt	LTP144	ltpFR	4	3	0	TUBE	1516	n/a	1	0	0.5869140625	0.422607421875	upper	../fonts/amplitud.ttf
678.722	n/a	WORD	339361	wordpools/wasnorm_wordpool.txt	LTP144	ltpFR	4	3	0	BRANCH	168	n/a	1	0	0.5869140625	0.422607421875	upper	../fonts/amplitud.ttf
682.694	n/a	WORD	341347	wordpools/wasnorm_wordpool.txt	LTP144	ltpFR	4	3	0	MACARONI	851	n/a	0	0	0.5869140625	0.422607421875	upper	../fonts/amplitud.ttf
686.576	n/a	WORD	343288	wordpools/wasnorm_wordpool.txt	LTP144	ltpFR	4	3	0	TIMBER	1469	n/a	1	0	0.5869140625	0.422607421875	upper	../fonts/amplitud.ttf
690.684	n/a	WORD	345342	wordpools/wasnorm_wordpool.txt	LTP144	ltpFR	4	3	0	FAUCET	555	n/a	0	0	0.5869140625	0.422607421875	upper	../fonts/amplitud.ttf
694.574	n/a	WORD	347287	wordpools/wasnorm_wordpool.txt	LTP144	ltpFR	4	3	0	RODENT	1204	n/a	0	0	0.5869140625	0.422607421875	upper	../fonts/amplitud.ttf
698.664	n/a	WORD	349332	wordpools/wasnorm_wordpool.txt	LTP144	ltpFR	4	3	0	TRENCH	1503	n/a	1	0	0.5869140625	0.422607421875	upper	../fonts/amplitud.ttf
702.806	n/a	WORD	351403	wordpools/wasnorm_wordpool.txt	LTP144	ltpFR	4	3	0	CAGE	218	n/a	1	0	0.5869140625	0.422607421875	upper	../fonts/amplitud.ttf
706.688	n/a	WORD	353344	wordpools/wasnorm_wordpool.txt	LTP144	ltpFR	4	3	0	MONGOOSE	909	n/a	0	0	0.5869140625	0.422607421875	upper	../fonts/amplitud.ttf
710.82	n/a	WORD	355410	wordpools/wasnorm_wordpool.txt	LTP144	ltpFR	4	3	0	LEAF	808	n/a	0	0	0.5869140625	0.422607421875	upper	../fonts/amplitud.ttf
714.926	n/a	WORD	357463	wordpools/wasnorm_wordpool.txt	LTP144	ltpFR	4	3	0	BEETLE	116	n/a	0	0	0.5869140625	0.422607421875	upper	../fonts/amplitud.ttf
718.976	n/a	WORD	359488	wordpools/wasnorm_wordpool.txt	LTP144	ltpFR	4	3	0	GRASSHOPPER	656	n/a	0	0	0.5869140625	0.422607421875	upper	../fonts/amplitud.ttf
722.816	n/a	WORD	361408	wordpools/wasnorm_wordpool.txt	LTP144	ltpFR	4	3	0	WATER	1594	n/a	0	0	0.5869140625	0.422607421875	upper	../fonts/amplitud.ttf
726.766	n/a	WORD	363383	wordpools/wasnorm_wordpool.txt	LTP144	ltpFR	4	3	0	CONTINENT	367	n/a	1	0	0.5869140625	0.422607421875	upper	../fonts/amplitud.ttf
730.822	n/a	WORD	365411	wordpools/wasnorm_wordpool.txt	LTP144	ltpFR	4	3	0	WAX	1597	n/a	0	0	0.5869140625	0.422607421875	upper	../fonts/amplitud.ttf
734.762	n/a	WORD	367381	wordpools/wasnorm_wordpool.txt	LTP144	ltpFR	4	3	0	SHINGLE	1285	n/a	n/a	0	0.5869140625	0.422607421875	upper	../fonts/amplitud.ttf
737.786	n/a	SLOW_MSG	368893	n/a	LTP144	ltpFR	4	3	n/a	n/a	n/a	n/a	n/a	n/a	n/a	n/a	n/a	n/a
742.06	n/a	REC_START	371030	n/a	LTP144	ltpFR	4	3	n/a	n/a	n/a	n/a	n/a	n/a	n/a	n/a	n/a	n/a
743.464	n/a	REC_WORD	371732	wordpools/wasnorm_wordpool.txt	LTP144	ltpFR	4	3	0	SHINGLE	1285	n/a	n/a	n/a	n/a	n/a	n/a	n/a
746.386	n/a	REC_WORD	373193	wordpools/wasnorm_wordpool.txt	LTP144	ltpFR	4	3	0	BRANCH	168	n/a	1	n/a	n/a	n/a	n/a	n/a
747.25	n/a	REC_WORD	373625	wordpools/wasnorm_wordpool.txt	LTP144	ltpFR	4	3	0	TIMBER	1469	n/a	1	n/a	n/a	n/a	n/a	n/a
747.978	n/a	REC_WORD	373989	wordpools/wasnorm_wordpool.txt	LTP144	ltpFR	4	3	0	LEAF	808	n/a	0	n/a	n/a	n/a	n/a	n/a
748.766	n/a	REC_WORD	374383	wordpools/wasnorm_wordpool.txt	LTP144	ltpFR	4	3	0	TRENCH	1503	n/a	1	n/a	n/a	n/a	n/a	n/a
751.096	n/a	REC_WORD	375548	wordpools/wasnorm_wordpool.txt	LTP144	ltpFR	4	3	0	BEETLE	116	n/a	0	n/a	n/a	n/a	n/a	n/a
751.664	n/a	REC_WORD	375832	wordpools/wasnorm_wordpool.txt	LTP144	ltpFR	4	3	0	GRASSHOPPER	656	n/a	0	n/a	n/a	n/a	n/a	n/a
763.154	n/a	REC_WORD	381577	wordpools/wasnorm_wordpool.txt	LTP144	ltpFR	4	3	0	CONTINENT	367	n/a	1	n/a	n/a	n/a	n/a	n/a
773.91	n/a	REC_WORD	386955	wordpools/wasnorm_wordpool.txt	LTP144	ltpFR	4	3	0	MACARONI	851	n/a	0	n/a	n/a	n/a	n/a	n/a
864.372	n/a	WORD	432186	wordpools/wasnorm_wordpool.txt	LTP144	ltpFR	4	4	1	PLATE	1086	n/a	0	1	0.412841796875	0.57763671875	lower	../fonts/zerothre.ttf
868.296	n/a	WORD	434148	wordpools/wasnorm_wordpool.txt	LTP144	ltpFR	4	4	1	RUBY	1214	n/a	0	1	0.412841796875	0.57763671875	lower	../fonts/zerothre.ttf
872.394	n/a	WORD	436197	wordpools/wasnorm_wordpool.txt	LTP144	ltpFR	4	4	1	DIAMOND	458	n/a	0	1	0.412841796875	0.57763671875	lower	../fonts/zerothre.ttf
876.502	n/a	WORD	438251	wordpools/wasnorm_wordpool.txt	LTP144	ltpFR	4	4	1	STEW	1380	n/a	0	1	0.412841796875	0.57763671875	lower	../fonts/zerothre.ttf
880.534	n/a	WORD	440267	wordpools/wasnorm_wordpool.txt	LTP144	ltpFR	4	4	1	DESSERT	453	n/a	0	1	0.412841796875	0.57763671875	lower	../fonts/zerothre.ttf
884.692	n/a	WORD	442346	wordpools/wasnorm_wordpool.txt	LTP144	ltpFR	4	4	0	SUPPER	1411	n/a	1	0	0.5869140625	0.422607421875	upper	../fonts/amplitud.ttf
888.69	n/a	WORD	444345	wordpools/wasnorm_wordpool.txt	LTP144	ltpFR	4	4	0	ROOSTER	1209	n/a	1	0	0.5869140625	0.422607421875	upper	../fonts/amplitud.ttf
892.69	n/a	WORD	446345	wordpools/wasnorm_wordpool.txt	LTP144	ltpFR	4	4	0	BOUILLON	154	n/a	0	0	0.5869140625	0.422607421875	upper	../fonts/amplitud.ttf
896.722	n/a	WORD	448361	wordpools/wasnorm_wordpool.txt	LTP144	ltpFR	4	4	0	ANGEL	22	n/a	1	0	0.5869140625	0.422607421875	upper	../fonts/amplitud.ttf
900.562	n/a	WORD	450281	wordpools/wasnorm_wordpool.txt	LTP144	ltpFR	4	4	0	WAITRESS	1581	n/a	1	0	0.5869140625	0.422607421875	upper	../fonts/amplitud.ttf
904.46	n/a	WORD	452230	wordpools/wasnorm_wordpool.txt	LTP144	ltpFR	4	4	0	LAWN	805	n/a	1	0	0.5869140625	0.422607421875	upper	../fonts/amplitud.ttf
908.392	n/a	WORD	454196	wordpools/wasnorm_wordpool.txt	LTP144	ltpFR	4	4	1	NITROGEN	954	n/a	0	1	0.412841796875	0.57763671875	lower	../fonts/zerothre.ttf
912.55	n/a	WORD	456275	wordpools/wasnorm_wordpool.txt	LTP144	ltpFR	4	4	1	FIG	563	n/a	1	1	0.412841796875	0.57763671875	lower	../fonts/zerothre.ttf
916.44	n/a	WORD	458220	wordpools/wasnorm_wordpool.txt	LTP144	ltpFR	4	4	1	WIDOW	1608	n/a	0	1	0.412841796875	0.57763671875	lower	../fonts/zerothre.ttf
920.298	n/a	WORD	460149	wordpools/wasnorm_wordpool.txt	LTP144	ltpFR	4	4	0	LIVER	833	n/a	1	0	0.5869140625	0.422607421875	upper	../fonts/amplitud.ttf
924.28	n/a	WORD	462140	wordpools/wasnorm_wordpool.txt	LTP144	ltpFR	4	4	0	TWIG	1527	n/a	0	0	0.5869140625	0.422607421875	upper	../fonts/amplitud.ttf
929.97	n/a	REC_START	464985	n/a	LTP144	ltpFR	4	4	n/a	n/a	n/a	n/a	n/a	n/a	n/a	n/a	n/a	n/a
931.672	n/a	REC_WORD	465836	wordpools/wasnorm_wordpool.txt	LTP144	ltpFR	4	4	0	TWIG	1527	n/a	0	n/a	n/a	n/a	n/a	n/a
932.226	n/a	REC_WORD	466113	wordpools/wasnorm_wordpool.txt	LTP144	ltpFR	4	4	0	LIVER	833	n/a	1	n/a	n/a	n/a	n/a	n/a
933.184	n/a	REC_WORD	466592	wordpools/wasnorm_wordpool.txt	LTP144	ltpFR	4	4	1	FIG	563	n/a	1	n/a	n/a	n/a	n/a	n/a
934.362	n/a	REC_WORD	467181	wordpools/wasnorm_wordpool.txt	LTP144	ltpFR	4	4	1	WIDOW	1608	n/a	0	n/a	n/a	n/a	n/a	n/a
937.554	n/a	REC_WORD	468777	wordpools/wasnorm_wordpool.txt	LTP144	ltpFR	4	4	0	SUPPER	1411	n/a	1	n/a	n/a	n/a	n/a	n/a
938.442	n/a	REC_WORD	469221	wordpools/wasnorm_wordpool.txt	LTP144	ltpFR	4	4	1	STEW	1380	n/a	0	n/a	n/a	n/a	n/a	n/a
940.252	n/a	REC_WORD	470126	wordpools/wasnorm_wordpool.txt	LTP144	ltpFR	4	4	0	WAITRESS	1581	n/a	1	n/a	n/a	n/a	n/a	n/a
942.154	n/a	REC_WORD	471077	wordpools/wasnorm_wordpool.txt	LTP144	ltpFR	4	4	1	PLATE	1086	n/a	0	n/a	n/a	n/a	n/a	n/a
944.418	n/a	REC_WORD	472209	wordpools/wasnorm_wordpool.txt	LTP144	ltpFR	4	4	1	DIAMOND	458	n/a	0	n/a	n/a	n/a	n/a	n/a
945.142	n/a	REC_WORD	472571	wordpools/wasnorm_wordpool.txt	LTP144	ltpFR	4	4	1	RUBY	1214	n/a	0	n/a	n/a	n/a	n/a	n/a
946.758	n/a	REC_WORD	473379	wordpools/wasnorm_wordpool.txt	LTP144	ltpFR	4	4	1	DESSERT	453	n/a	0	n/a	n/a	n/a	n/a	n/a
971.28	n/a	REC_WORD	485640	wordpools/wasnorm_wordpool.txt	LTP144	ltpFR	4	4	0	TWIG	1527	n/a	0	n/a	n/a	n/a	n/a	n/a
990.258	n/a	REC_WORD	495129	wordpools/wasnorm_wordpool.txt	LTP144	ltpFR	4	4	0	BOUILLON	154	n/a	0	n/a	n/a	n/a	n/a	n/a
1021.742	n/a	WORD	510871	wordpools/wasnorm_wordpool.txt	LTP144	ltpFR	4	5	1	TOOTHBRUSH	1482	n/a	0	1	0.412841796875	0.57763671875	lower	../fonts/zerothre.ttf
1025.7	n/a	WORD	512850	wordpools/wasnorm_wordpool.txt	LTP144	ltpFR	4	5	1	BRACES	164	n/a	0	1	0.412841796875	0.57763671875	lower	../fonts/zerothre.ttf
1029.564	n/a	WORD	514782	wordpools/wasnorm_wordpool.txt	LTP144	ltpFR	4	5	1	GUEST	669	n/a	1	1	0.412841796875	0.57763671875	lower	../fonts/zerothre.ttf
1033.414	n/a	WORD	516707	wordpools/wasnorm_wordpool.txt	LTP144	ltpFR	4	5	1	COMPANION	357	n/a	1	1	0.412841796875	0.57763671875	lower	../fonts/zerothre.ttf
1037.47	n/a	WORD	518735	wordpools/wasnorm_wordpool.txt	LTP144	ltpFR	4	5	1	CHEST	295	n/a	0	1	0.412841796875	0.57763671875	lower	../fonts/zerothre.ttf
1041.56	n/a	WORD	520780	wordpools/wasnorm_wordpool.txt	LTP144	ltpFR	4	5	1	DIPLOMA	470	n/a	0	1	0.412841796875	0.57763671875	lower	../fonts/zerothre.ttf
1045.76	n/a	WORD	522880	wordpools/wasnorm_wordpool.txt	LTP144	ltpFR	4	5	1	MANSION	864	n/a	0	1	0.412841796875	0.57763671875	lower	../fonts/zerothre.ttf
1049.852	n/a	WORD	524926	wordpools/wasnorm_wordpool.txt	LTP144	ltpFR	4	5	1	BRUNETTE	181	n/a	1	1	0.412841796875	0.57763671875	lower	../fonts/zerothre.ttf
1053.784	n/a	WORD	526892	wordpools/wasnorm_wordpool.txt	LTP144	ltpFR	4	5	1	FELLOW	558	n/a	1	1	0.412841796875	0.57763671875	lower	../fonts/zerothre.ttf
1057.856	n/a	WORD	528928	wordpools/wasnorm_wordpool.txt	LTP144	ltpFR	4	5	1	BULLY	196	n/a	1	1	0.412841796875	0.57763671875	lower	../fonts/zerothre.ttf
1061.946	n/a	WORD	530973	wordpools/wasnorm_wordpool.txt	LTP144	ltpFR	4	5	1	DART	440	n/a	0	1	0.412841796875	0.57763671875	lower	../fonts/zerothre.ttf
1066.138	n/a	WORD	533069	wordpools/wasnorm_wordpool.txt	LTP144	ltpFR	4	5	1	BALL	73	n/a	0	1	0.412841796875	0.57763671875	lower	../fonts/zerothre.ttf
1070.286	n/a	WORD	535143	wordpools/wasnorm_wordpool.txt	LTP144	ltpFR	4	5	1	LAPEL	800	n/a	0	1	0.412841796875	0.57763671875	lower	../fonts/zerothre.ttf
1074.186	n/a	WORD	537093	wordpools/wasnorm_wordpool.txt	LTP144	ltpFR	4	5	1	SKIRT	1319	n/a	0	1	0.412841796875	0.57763671875	lower	../fonts/zerothre.ttf
1078.05	n/a	WORD	539025	wordpools/wasnorm_wordpool.txt	LTP144	ltpFR	4	5	1	TREAD	1499	n/a	0	1	0.412841796875	0.57763671875	lower	../fonts/zerothre.ttf
1081.916	n/a	WORD	540958	wordpools/wasnorm_wordpool.txt	LTP144	ltpFR	4	5	1	SWORD	1423	n/a	0	1	0.412841796875	0.57763671875	lower	../fonts/zerothre.ttf
1087.724	n/a	REC_START	543862	n/a	LTP144	ltpFR	4	5	n/a	n/a	n/a	n/a	n/a	n/a	n/a	n/a	n/a	n/a
1088.83	n/a	REC_WORD	544415	wordpools/wasnorm_wordpool.txt	LTP144	ltpFR	4	5	1	SWORD	1423	n/a	0	n/a	n/a	n/a	n/a	n/a
1089.634	n/a	REC_WORD	544817	wordpools/wasnorm_wordpool.txt	LTP144	ltpFR	4	5	1	LAPEL	800	n/a	0	n/a	n/a	n/a	n/a	n/a
1090.202	n/a	REC_WORD	545101	wordpools/wasnorm_wordpool.txt	LTP144	ltpFR	4	5	1	SKIRT	1319	n/a	0	n/a	n/a	n/a	n/a	n/a
1094.258	n/a	REC_WORD	547129	wordpools/wasnorm_wordpool.txt	LTP144	ltpFR	4	5	1	TREAD	1499	n/a	0	n/a	n/a	n/a	n/a	n/a
1096.528	n/a	REC_WORD	548264	wordpools/wasnorm_wordpool.txt	LTP144	ltpFR	4	5	1	COMPANION	357	n/a	1	n/a	n/a	n/a	n/a	n/a
1097.54	n/a	REC_WORD	548770	wordpools/wasnorm_wordpool.txt	LTP144	ltpFR	4	5	1	GUEST	669	n/a	1	n/a	n/a	n/a	n/a	n/a
1110.982	n/a	REC_WORD	555491	wordpools/wasnorm_wordpool.txt	LTP144	ltpFR	4	5	1	BALL	73	n/a	0	n/a	n/a	n/a	n/a	n/a
1197.738	n/a	WORD	598869	wordpools/wasnorm_wordpool.txt	LTP144	ltpFR	4	6	-1	COOK	372	n/a	-1	1	1.0	1.0	upper	../fonts/Verdana.ttf
1201.562	n/a	WORD	600781	wordpools/wasnorm_wordpool.txt	LTP144	ltpFR	4	6	-1	TUSK	1523	n/a	-1	1	1.0	1.0	upper	../fonts/Verdana.ttf
1205.586	n/a	WORD	602793	wordpools/wasnorm_wordpool.txt	LTP144	ltpFR	4	6	-1	DWARF	510	n/a	-1	1	1.0	1.0	upper	../fonts/Verdana.ttf
1209.602	n/a	WORD	604801	wordpools/wasnorm_wordpool.txt	LTP144	ltpFR	4	6	-1	PATROL	1027	n/a	-1	1	1.0	1.0	upper	../fonts/Verdana.ttf
1213.8	n/a	WORD	606900	wordpools/wasnorm_wordpool.txt	LTP144	ltpFR	4	6	-1	OFFICER	973	n/a	-1	1	1.0	1.0	upper	../fonts/Verdana.ttf
1217.716	n/a	WORD	608858	wordpools/wasnorm_wordpool.txt	LTP144	ltpFR	4	6	-1	BLUEPRINT	142	n/a	-1	1	1.0	1.0	upper	../fonts/Verdana.ttf
1221.866	n/a	WORD	610933	wordpools/wasnorm_wordpool.txt	LTP144	ltpFR	4	6	-1	MAPLE	866	n/a	-1	1	1.0	1.0	upper	../fonts/Verdana.ttf
1225.814	n/a	WORD	612907	wordpools/wasnorm_wordpool.txt	LTP144	ltpFR	4	6	-1	ANTENNA	28	n/a	-1	1	1.0	1.0	upper	../fonts/Verdana.ttf
1229.722	n/a	WORD	614861	wordpools/wasnorm_wordpool.txt	LTP144	ltpFR	4	6	-1	COPIER	377	n/a	-1	1	1.0	1.0	upper	../fonts/Verdana.ttf
1233.878	n/a	WORD	616939	wordpools/wasnorm_wordpool.txt	LTP144	ltpFR	4	6	-1	STOVE	1388	n/a	-1	1	1.0	1.0	upper	../fonts/Verdana.ttf
1238.01	n/a	WORD	619005	wordpools/wasnorm_wordpool.txt	LTP144	ltpFR	4	6	-1	ELM	527	n/a	-1	1	1.0	1.0	upper	../fonts/Verdana.ttf
1241.842	n/a	WORD	620921	wordpools/wasnorm_wordpool.txt	LTP144	ltpFR	4	6	-1	BULLET	194	n/a	-1	1	1.0	1.0	upper	../fonts/Verdana.ttf
1246.05	n/a	WORD	623025	wordpools/wasnorm_wordpool.txt	LTP144	ltpFR	4	6	-1	VAGRANT	1544	n/a	-1	1	1.0	1.0	upper	../fonts/Verdana.ttf
1250.214	n/a	WORD	625107	wordpools/wasnorm_wordpool.txt	LTP144	ltpFR	4	6	-1	WAVE	1596	n/a	-1	1	1.0	1.0	upper	../fonts/Verdana.ttf
1254.196	n/a	WORD	627098	wordpools/wasnorm_wordpool.txt	LTP144	ltpFR	4	6	-1	PUDDLE	1140	n/a	-1	1	1.0	1.0	upper	../fonts/Verdana.ttf
1258.172	n/a	WORD	629086	wordpools/wasnorm_wordpool.txt	LTP144	ltpFR	4	6	-1	BEER	114	n/a	-1	1	1.0	1.0	upper	../fonts/Verdana.ttf
1264.144	n/a	REC_START	632072	n/a	LTP144	ltpFR	4	6	n/a	n/a	n/a	n/a	n/a	n/a	n/a	n/a	n/a	n/a
1265.302	n/a	REC_WORD	632651	wordpools/wasnorm_wordpool.txt	LTP144	ltpFR	4	6	-1	BEER	114	n/a	-1	n/a	n/a	n/a	n/a	n/a
1266.22	n/a	REC_WORD	633110	wordpools/wasnorm_wordpool.txt	LTP144	ltpFR	4	6	-1	PUDDLE	1140	n/a	-1	n/a	n/a	n/a	n/a	n/a
1266.972	n/a	REC_WORD	633486	wordpools/wasnorm_wordpool.txt	LTP144	ltpFR	4	6	-1	WAVE	1596	n/a	-1	n/a	n/a	n/a	n/a	n/a
1270.036	n/a	REC_WORD_VV	635018	wordpools/wasnorm_wordpool.txt	LTP144	ltpFR	4	6	n/a	<>	-1	n/a	n/a	n/a	n/a	n/a	n/a	n/a
1271.562	n/a	REC_WORD	635781	wordpools/wasnorm_wordpool.txt	LTP144	ltpFR	4	6	-1	COOK	372	n/a	-1	n/a	n/a	n/a	n/a	n/a
1280.318	n/a	REC_WORD	640159	wordpools/wasnorm_wordpool.txt	LTP144	ltpFR	4	6	-1	TUSK	1523	n/a	-1	n/a	n/a	n/a	n/a	n/a
1281.256	n/a	REC_WORD	640628	wordpools/wasnorm_wordpool.txt	LTP144	ltpFR	4	6	-1	DWARF	510	n/a	-1	n/a	n/a	n/a	n/a	n/a
1288.25	n/a	REC_WORD	644125	wordpools/wasnorm_wordpool.txt	LTP144	ltpFR	4	6	-1	OFFICER	973	n/a	-1	n/a	n/a	n/a	n/a	n/a
1289.154	n/a	REC_WORD	644577	wordpools/wasnorm_wordpool.txt	LTP144	ltpFR	4	6	-1	PATROL	1027	n/a	-1	n/a	n/a	n/a	n/a	n/a
1290.116	n/a	REC_WORD	645058	wordpools/wasnorm_wordpool.txt	LTP144	ltpFR	4	6	-1	BULLET	194	n/a	-1	n/a	n/a	n/a	n/a	n/a
1290.934	n/a	REC_WORD	645467	wordpools/wasnorm_wordpool.txt	LTP144	ltpFR	4	6	-1	VAGRANT	1544	n/a	-1	n/a	n/a	n/a	n/a	n/a
1311.23	n/a	REC_WORD	655615	wordpools/wasnorm_wordpool.txt	LTP144	ltpFR	4	6	-1	ELM	527	n/a	-1	n/a	n/a	n/a	n/a	n/a
1312.088	n/a	REC_WORD	656044	wordpools/wasnorm_wordpool.txt	LTP144	ltpFR	4	6	-1	MAPLE	866	n/a	-1	n/a	n/a	n/a	n/a	n/a
1313.086	n/a	REC_WORD	656543	wordpools/wasnorm_wordpool.txt	LTP144	ltpFR	4	6	-1	BLUEPRINT	142	n/a	-1	n/a	n/a	n/a	n/a	n/a
1323.114	n/a	REC_WORD	661557	wordpools/wasnorm_wordpool.txt	LTP144	ltpFR	4	6	-1	STOVE	1388	n/a	-1	n/a	n/a	n/a	n/a	n/a
1376.818	n/a	WORD	688409	wordpools/wasnorm_wordpool.txt	LTP144	ltpFR	4	7	1	HUMAN	726	n/a	1	1	0.412841796875	0.57763671875	lower	../fonts/zerothre.ttf
1380.7	n/a	WORD	690350	wordpools/wasnorm_wordpool.txt	LTP144	ltpFR	4	7	1	CITIZEN	312	n/a	1	1	0.412841796875	0.57763671875	lower	../fonts/zerothre.ttf
1384.808	n/a	WORD	692404	wordpools/wasnorm_wordpool.txt	LTP144	ltpFR	4	7	1	FORK	594	n/a	0	1	0.412841796875	0.57763671875	lower	../fonts/zerothre.ttf
1388.84	n/a	WORD	694420	wordpools/wasnorm_wordpool.txt	LTP144	ltpFR	4	7	1	RIDER	1191	n/a	1	1	0.412841796875	0.57763671875	lower	../fonts/zerothre.ttf
1392.68	n/a	WORD	696340	wordpools/wasnorm_wordpool.txt	LTP144	ltpFR	4	7	1	HORSE	719	n/a	1	1	0.412841796875	0.57763671875	lower	../fonts/zerothre.ttf
1396.712	n/a	WORD	698356	wordpools/wasnorm_wordpool.txt	LTP144	ltpFR	4	7	1	SPOUSE	1358	n/a	1	1	0.412841796875	0.57763671875	lower	../fonts/zerothre.ttf
1400.552	n/a	WORD	700276	wordpools/wasnorm_wordpool.txt	LTP144	ltpFR	4	7	1	LETTUCE	814	n/a	0	1	0.412841796875	0.57763671875	lower	../fonts/zerothre.ttf
1404.608	n/a	WORD	702304	wordpools/wasnorm_wordpool.txt	LTP144	ltpFR	4	7	1	ICING	732	n/a	0	1	0.412841796875	0.57763671875	lower	../fonts/zerothre.ttf
1408.49	n/a	WORD	704245	wordpools/wasnorm_wordpool.txt	LTP144	ltpFR	4	7	1	HUSBAND	728	n/a	1	1	0.412841796875	0.57763671875	lower	../fonts/zerothre.ttf
1412.674	n/a	WORD	706337	wordpools/wasnorm_wordpool.txt	LTP144	ltpFR	4	7	1	TICK	1463	n/a	0	1	0.412841796875	0.57763671875	lower	../fonts/zerothre.ttf
1416.874	n/a	WORD	708437	wordpools/wasnorm_wordpool.txt	LTP144	ltpFR	4	7	1	PASSAGE	1019	n/a	0	1	0.412841796875	0.57763671875	lower	../fonts/zerothre.ttf
1420.788	n/a	WORD	710394	wordpools/wasnorm_wordpool.txt	LTP144	ltpFR	4	7	1	RANCH	1166	n/a	0	1	0.412841796875	0.57763671875	lower	../fonts/zerothre.ttf
1424.636	n/a	WORD	712318	wordpools/wasnorm_wordpool.txt	LTP144	ltpFR	4	7	1	BEEF	113	n/a	0	1	0.412841796875	0.57763671875	lower	../fonts/zerothre.ttf
1428.602	n/a	WORD	714301	wordpools/wasnorm_wordpool.txt	LTP144	ltpFR	4	7	1	CHIP	303	n/a	0	1	0.412841796875	0.57763671875	lower	../fonts/zerothre.ttf
1432.45	n/a	WORD	716225	wordpools/wasnorm_wordpool.txt	LTP144	ltpFR	4	7	1	HATCHET	691	n/a	0	1	0.412841796875	0.57763671875	lower	../fonts/zerothre.ttf
1436.6	n/a	WORD	718300	wordpools/wasnorm_wordpool.txt	LTP144	ltpFR	4	7	1	MASCARA	875	n/a	0	1	0.412841796875	0.57763671875	lower	../fonts/zerothre.ttf
1442.39	n/a	REC_START	721195	n/a	LTP144	ltpFR	4	7	n/a	n/a	n/a	n/a	n/a	n/a	n/a	n/a	n/a	n/a
1443.636	n/a	REC_WORD	721818	wordpools/wasnorm_wordpool.txt	LTP144	ltpFR	4	7	1	MASCARA	875	n/a	0	n/a	n/a	n/a	n/a	n/a
1444.306	n/a	REC_WORD	722153	wordpools/wasnorm_wordpool.txt	LTP144	ltpFR	4	7	1	HATCHET	691	n/a	0	n/a	n/a	n/a	n/a	n/a
1445.248	n/a	REC_WORD	722624	wordpools/wasnorm_wordpool.txt	LTP144	ltpFR	4	7	1	HUMAN	726	n/a	1	n/a	n/a	n/a	n/a	n/a
1447.144	n/a	REC_WORD	723572	wordpools/wasnorm_wordpool.txt	LTP144	ltpFR	4	7	1	CITIZEN	312	n/a	1	n/a	n/a	n/a	n/a	n/a
1448.656	n/a	REC_WORD	724328	wordpools/wasnorm_wordpool.txt	LTP144	ltpFR	4	7	1	SPOUSE	1358	n/a	1	n/a	n/a	n/a	n/a	n/a
1449.554	n/a	REC_WORD	724777	wordpools/wasnorm_wordpool.txt	LTP144	ltpFR	4	7	1	HUSBAND	728	n/a	1	n/a	n/a	n/a	n/a	n/a
1453.35	n/a	REC_WORD	726675	wordpools/wasnorm_wordpool.txt	LTP144	ltpFR	4	7	1	RANCH	1166	n/a	0	n/a	n/a	n/a	n/a	n/a
1456.184	n/a	REC_WORD	728092	wordpools/wasnorm_wordpool.txt	LTP144	ltpFR	4	7	1	LETTUCE	814	n/a	0	n/a	n/a	n/a	n/a	n/a
1457.292	n/a	REC_WORD	728646	wordpools/wasnorm_wordpool.txt	LTP144	ltpFR	4	7	n/a	ICEBERG	731	n/a	n/a	n/a	n/a	n/a	n/a	n/a
1463.548	n/a	REC_WORD_VV	731774	wordpools/wasnorm_wordpool.txt	LTP144	ltpFR	4	7	n/a	<>	-1	n/a	n/a	n/a	n/a	n/a	n/a	n/a
1463.976	n/a	REC_WORD	731988	wordpools/wasnorm_wordpool.txt	LTP144	ltpFR	4	7	1	ICING	732	n/a	0	n/a	n/a	n/a	n/a	n/a
1464.468	n/a	REC_WORD_VV	732234	wordpools/wasnorm_wordpool.txt	LTP144	ltpFR	4	7	n/a	<>	-1	n/a	n/a	n/a	n/a	n/a	n/a	n/a
1465.194	n/a	REC_WORD	732597	wordpools/wasnorm_wordpool.txt	LTP144	ltpFR	4	7	1	ICING	732	n/a	0	n/a	n/a	n/a	n/a	n/a
1467.888	n/a	REC_WORD_VV	733944	wordpools/wasnorm_wordpool.txt	LTP144	ltpFR	4	7	n/a	<>	-1	n/a	n/a	n/a	n/a	n/a	n/a	n/a
1490.404	n/a	REC_WORD	745202	wordpools/wasnorm_wordpool.txt	LTP144	ltpFR	4	7	0	BRANCH	168	n/a	1	n/a	n/a	n/a	n/a	n/a
1498.69	n/a	REC_WORD	749345	wordpools/wasnorm_wordpool.txt	LTP144	ltpFR	4	7	1	CHIP	303	n/a	0	n/a	n/a	n/a	n/a	n/a
1501.778	n/a	REC_WORD	750889	wordpools/wasnorm_wordpool.txt	LTP144	ltpFR	4	7	1	BEEF	113	n/a	0	n/a	n/a	n/a	n/a	n/a
1563.778	n/a	WORD	781889	wordpools/wasnorm_wordpool.txt	LTP144	ltpFR	4	8	1	BIRD	129	n/a	1	1	0.412841796875	0.57763671875	lower	../fonts/zerothre.ttf
1567.668	n/a	WORD	783834	wordpools/wasnorm_wordpool.txt	LTP144	ltpFR	4	8	1	STALLION	1369	n/a	1	1	0.412841796875	0.57763671875	lower	../fonts/zerothre.ttf
1571.868	n/a	WORD	785934	wordpools/wasnorm_wordpool.txt	LTP144	ltpFR	4	8	0	HAWK	692	n/a	1	0	0.5869140625	0.422607421875	upper	../fonts/amplitud.ttf
1576.0	n/a	WORD	788000	wordpools/wasnorm_wordpool.txt	LTP144	ltpFR	4	8	0	SWAN	1417	n/a	1	0	0.5869140625	0.422607421875	upper	../fonts/amplitud.ttf
1580.098	n/a	WORD	790049	wordpools/wasnorm_wordpool.txt	LTP144	ltpFR	4	8	0	ROSE	1212	n/a	1	0	0.5869140625	0.422607421875	upper	../fonts/amplitud.ttf
1583.94	n/a	WORD	791970	wordpools/wasnorm_wordpool.txt	LTP144	ltpFR	4	8	1	FLOWER	584	n/a	1	1	0.412841796875	0.57763671875	lower	../fonts/zerothre.ttf
1587.914	n/a	WORD	793957	wordpools/wasnorm_wordpool.txt	LTP144	ltpFR	4	8	1	HAY	693	n/a	1	1	0.412841796875	0.57763671875	lower	../fonts/zerothre.ttf
1592.004	n/a	WORD	796002	wordpools/wasnorm_wordpool.txt	LTP144	ltpFR	4	8	1	SCAPEGOAT	1244	n/a	1	1	0.412841796875	0.57763671875	lower	../fonts/zerothre.ttf
1596.018	n/a	WORD	798009	wordpools/wasnorm_wordpool.txt	LTP144	ltpFR	4	8	0	ZOO	1637	n/a	1	0	0.5869140625	0.422607421875	upper	../fonts/amplitud.ttf
1599.96	n/a	WORD	799980	wordpools/wasnorm_wordpool.txt	LTP144	ltpFR	4	8	0	MOTORCYCLE	923	n/a	1	0	0.5869140625	0.422607421875	upper	../fonts/amplitud.ttf
1603.8	n/a	WORD	801900	wordpools/wasnorm_wordpool.txt	LTP144	ltpFR	4	8	0	OTTER	986	n/a	1	0	0.5869140625	0.422607421875	upper	../fonts/amplitud.ttf
1607.99	n/a	WORD	803995	wordpools/wasnorm_wordpool.txt	LTP144	ltpFR	4	8	0	FARM	552	n/a	1	0	0.5869140625	0.422607421875	upper	../fonts/amplitud.ttf
1611.972	n/a	WORD	805986	wordpools/wasnorm_wordpool.txt	LTP144	ltpFR	4	8	0	DRILL	497	n/a	1	0	0.5869140625	0.422607421875	upper	../fonts/amplitud.ttf
1615.988	n/a	WORD	807994	wordpools/wasnorm_wordpool.txt	LTP144	ltpFR	4	8	1	MINER	896	n/a	1	1	0.412841796875	0.57763671875	lower	../fonts/zerothre.ttf
1619.854	n/a	WORD	809927	wordpools/wasnorm_wordpool.txt	LTP144	ltpFR	4	8	1	SWEATER	1419	n/a	0	1	0.412841796875	0.57763671875	lower	../fonts/zerothre.ttf
1623.944	n/a	WORD	811972	wordpools/wasnorm_wordpool.txt	LTP144	ltpFR	4	8	1	PATIO	1025	n/a	1	1	0.412841796875	0.57763671875	lower	../fonts/zerothre.ttf
1630.018	n/a	REC_START	815009	n/a	LTP144	ltpFR	4	8	n/a	n/a	n/a	n/a	n/a	n/a	n/a	n/a	n/a	n/a
1631.534	n/a	REC_WORD	815767	wordpools/wasnorm_wordpool.txt	LTP144	ltpFR	4	8	1	PATIO	1025	n/a	1	n/a	n/a	n/a	n/a	n/a
1633.09	n/a	REC_WORD	816545	wordpools/wasnorm_wordpool.txt	LTP144	ltpFR	4	8	0	FARM	552	n/a	1	n/a	n/a	n/a	n/a	n/a
1633.908	n/a	REC_WORD	816954	wordpools/wasnorm_wordpool.txt	LTP144	ltpFR	4	8	n/a	HAYSTACK	694	n/a	n/a	n/a	n/a	n/a	n/a	n/a
1634.826	n/a	REC_WORD	817413	wordpools/wasnorm_wordpool.txt	LTP144	ltpFR	4	8	1	STALLION	1369	n/a	1	n/a	n/a	n/a	n/a	n/a
1636.972	n/a	REC_WORD	818486	wordpools/wasnorm_wordpool.txt	LTP144	ltpFR	4	8	0	ZOO	1637	n/a	1	n/a	n/a	n/a	n/a	n/a
1637.976	n/a	REC_WORD	818988	wordpools/wasnorm_wordpool.txt	LTP144	ltpFR	4	8	0	OTTER	986	n/a	1	n/a	n/a	n/a	n/a	n/a
1640.564	n/a	REC_WORD	820282	wordpools/wasnorm_wordpool.txt	LTP144	ltpFR	4	8	1	BIRD	129	n/a	1	n/a	n/a	n/a	n/a	n/a
1641.752	n/a	REC_WORD	820876	wordpools/wasnorm_wordpool.txt	LTP144	ltpFR	4	8	0	HAWK	692	n/a	1	n/a	n/a	n/a	n/a	n/a
1644.112	n/a	REC_WORD	822056	wordpools/wasnorm_wordpool.txt	LTP144	ltpFR	4	8	0	SWAN	1417	n/a	1	n/a	n/a	n/a	n/a	n/a
1658.39	n/a	REC_WORD	829195	wordpools/wasnorm_wordpool.txt	LTP144	ltpFR	4	8	1	MINER	896	n/a	1	n/a	n/a	n/a	n/a	n/a
1801.572	n/a	WORD	900786	wordpools/wasnorm_wordpool.txt	LTP144	ltpFR	4	9	-1	SHARK	1275	n/a	-1	1	1.0	1.0	upper	../fonts/Verdana.ttf
1805.554	n/a	WORD	902777	wordpools/wasnorm_wordpool.txt	LTP144	ltpFR	4	9	-1	PUPPY	1144	n/a	-1	1	1.0	1.0	upper	../fonts/Verdana.ttf
1809.596	n/a	WORD	904798	wordpools/wasnorm_wordpool.txt	LTP144	ltpFR	4	9	-1	DASHBOARD	441	n/a	-1	1	1.0	1.0	upper	../fonts/Verdana.ttf
1813.736	n/a	WORD	906868	wordpools/wasnorm_wordpool.txt	LTP144	ltpFR	4	9	-1	PAINTING	1005	n/a	-1	1	1.0	1.0	upper	../fonts/Verdana.ttf
1817.55	n/a	WORD	908775	wordpools/wasnorm_wordpool.txt	LTP144	ltpFR	4	9	-1	CABIN	211	n/a	-1	1	1.0	1.0	upper	../fonts/Verdana.ttf
1821.592	n/a	WORD	910796	wordpools/wasnorm_wordpool.txt	LTP144	ltpFR	4	9	-1	ROOF	1205	n/a	-1	1	1.0	1.0	upper	../fonts/Verdana.ttf
1825.414	n/a	WORD	912707	wordpools/wasnorm_wordpool.txt	LTP144	ltpFR	4	9	-1	UNIVERSE	1540	n/a	-1	1	1.0	1.0	upper	../fonts/Verdana.ttf
1829.54	n/a	WORD	914770	wordpools/wasnorm_wordpool.txt	LTP144	ltpFR	4	9	-1	PAW	1029	n/a	-1	1	1.0	1.0	upper	../fonts/Verdana.ttf
1833.504	n/a	WORD	916752	wordpools/wasnorm_wordpool.txt	LTP144	ltpFR	4	9	-1	FRIES	607	n/a	-1	1	1.0	1.0	upper	../fonts/Verdana.ttf
1837.528	n/a	WORD	918764	wordpools/wasnorm_wordpool.txt	LTP144	ltpFR	4	9	-1	PASTRY	1022	n/a	-1	1	1.0	1.0	upper	../fonts/Verdana.ttf
1841.71	n/a	WORD	920855	wordpools/wasnorm_wordpool.txt	LTP144	ltpFR	4	9	-1	AGENT	10	n/a	-1	1	1.0	1.0	upper	../fonts/Verdana.ttf
1845.692	n/a	WORD	922846	wordpools/wasnorm_wordpool.txt	LTP144	ltpFR	4	9	-1	SIREN	1310	n/a	-1	1	1.0	1.0	upper	../fonts/Verdana.ttf
1849.592	n/a	WORD	924796	wordpools/wasnorm_wordpool.txt	LTP144	ltpFR	4	9	-1	TUBA	1515	n/a	-1	1	1.0	1.0	upper	../fonts/Verdana.ttf
1853.49	n/a	WORD	926745	wordpools/wasnorm_wordpool.txt	LTP144	ltpFR	4	9	-1	SAXOPHONE	1240	n/a	-1	1	1.0	1.0	upper	../fonts/Verdana.ttf
1857.68	n/a	WORD	928840	wordpools/wasnorm_wordpool.txt	LTP144	ltpFR	4	9	-1	VILLAGE	1566	n/a	-1	1	1.0	1.0	upper	../fonts/Verdana.ttf
1861.588	n/a	WORD	930794	wordpools/wasnorm_wordpool.txt	LTP144	ltpFR	4	9	-1	SUMMIT	1405	n/a	-1	1	1.0	1.0	upper	../fonts/Verdana.ttf
1867.304	n/a	REC_START	933652	n/a	LTP144	ltpFR	4	9	n/a	n/a	n/a	n/a	n/a	n/a	n/a	n/a	n/a	n/a
1869.124	n/a	REC_WORD	934562	wordpools/wasnorm_wordpool.txt	LTP144	ltpFR	4	9	-1	SUMMIT	1405	n/a	-1	n/a	n/a	n/a	n/a	n/a
1869.882	n/a	REC_WORD	934941	wordpools/wasnorm_wordpool.txt	LTP144	ltpFR	4	9	-1	VILLAGE	1566	n/a	-1	n/a	n/a	n/a	n/a	n/a
1872.188	n/a	REC_WORD	936094	wordpools/wasnorm_wordpool.txt	LTP144	ltpFR	4	9	-1	CABIN	211	n/a	-1	n/a	n/a	n/a	n/a	n/a
1873.11	n/a	REC_WORD	936555	wordpools/wasnorm_wordpool.txt	LTP144	ltpFR	4	9	-1	ROOF	1205	n/a	-1	n/a	n/a	n/a	n/a	n/a
1873.978	n/a	REC_WORD	936989	wordpools/wasnorm_wordpool.txt	LTP144	ltpFR	4	9	-1	PAINTING	1005	n/a	-1	n/a	n/a	n/a	n/a	n/a
1876.548	n/a	REC_WORD	938274	wordpools/wasnorm_wordpool.txt	LTP144	ltpFR	4	9	-1	SHARK	1275	n/a	-1	n/a	n/a	n/a	n/a	n/a
1878.448	n/a	REC_WORD	939224	wordpools/wasnorm_wordpool.txt	LTP144	ltpFR	4	9	-1	PUPPY	1144	n/a	-1	n/a	n/a	n/a	n/a	n/a
1879.32	n/a	REC_WORD	939660	wordpools/wasnorm_wordpool.txt	LTP144	ltpFR	4	9	-1	PAW	1029	n/a	-1	n/a	n/a	n/a	n/a	n/a
1880.772	n/a	REC_WORD	940386	wordpools/wasnorm_wordpool.txt	LTP144	ltpFR	4	9	-1	TUBA	1515	n/a	-1	n/a	n/a	n/a	n/a	n/a
1881.51	n/a	REC_WORD	940755	wordpools/wasnorm_wordpool.txt	LTP144	ltpFR	4	9	-1	SAXOPHONE	1240	n/a	-1	n/a	n/a	n/a	n/a	n/a
1932.388	n/a	REC_WORD	966194	wordpools/wasnorm_wordpool.txt	LTP144	ltpFR	4	9	-1	DASHBOARD	441	n/a	-1	n/a	n/a	n/a	n/a	n/a
1977.054	n/a	WORD	988527	wordpools/wasnorm_wordpool.txt	LTP144	ltpFR	4	10	-1	SUITE	1404	n/a	-1	1	1.0	1.0	upper	../fonts/Verdana.ttf
1980.994	n/a	WORD	990497	wordpools/wasnorm_wordpool.txt	LTP144	ltpFR	4	10	-1	HOUSE	725	n/a	-1	1	1.0	1.0	upper	../fonts/Verdana.ttf
1985.094	n/a	WORD	992547	wordpools/wasnorm_wordpool.txt	LTP144	ltpFR	4	10	-1	FOUNTAIN	597	n/a	-1	1	1.0	1.0	upper	../fonts/Verdana.ttf
1989.242	n/a	WORD	994621	wordpools/wasnorm_wordpool.txt	LTP144	ltpFR	4	10	-1	PAIL	1002	n/a	-1	1	1.0	1.0	upper	../fonts/Verdana.ttf
1993.098	n/a	WORD	996549	wordpools/wasnorm_wordpool.txt	LTP144	ltpFR	4	10	-1	DORM	488	n/a	-1	1	1.0	1.0	upper	../fonts/Verdana.ttf
1997.014	n/a	WORD	998507	wordpools/wasnorm_wordpool.txt	LTP144	ltpFR	4	10	-1	PATRIOT	1026	n/a	-1	1	1.0	1.0	upper	../fonts/Verdana.ttf
2001.106	n/a	WORD	1000553	wordpools/wasnorm_wordpool.txt	LTP144	ltpFR	4	10	-1	PIRATE	1074	n/a	-1	1	1.0	1.0	upper	../fonts/Verdana.ttf
2005.054	n/a	WORD	1002527	wordpools/wasnorm_wordpool.txt	LTP144	ltpFR	4	10	-1	BOXER	160	n/a	-1	1	1.0	1.0	upper	../fonts/Verdana.ttf
2008.96	n/a	WORD	1004480	wordpools/wasnorm_wordpool.txt	LTP144	ltpFR	4	10	-1	ANCHOR	21	n/a	-1	1	1.0	1.0	upper	../fonts/Verdana.ttf
2013.126	n/a	WORD	1006563	wordpools/wasnorm_wordpool.txt	LTP144	ltpFR	4	10	-1	MECHANIC	884	n/a	-1	1	1.0	1.0	upper	../fonts/Verdana.ttf
2017.0	n/a	WORD	1008500	wordpools/wasnorm_wordpool.txt	LTP144	ltpFR	4	10	-1	DEPUTY	450	n/a	-1	1	1.0	1.0	upper	../fonts/Verdana.ttf
2020.94	n/a	WORD	1010470	wordpools/wasnorm_wordpool.txt	LTP144	ltpFR	4	10	-1	CREW	406	n/a	-1	1	1.0	1.0	upper	../fonts/Verdana.ttf
2024.898	n/a	WORD	1012449	wordpools/wasnorm_wordpool.txt	LTP144	ltpFR	4	10	-1	SOLDIER	1344	n/a	-1	1	1.0	1.0	upper	../fonts/Verdana.ttf
2028.888	n/a	WORD	1014444	wordpools/wasnorm_wordpool.txt	LTP144	ltpFR	4	10	-1	LEOPARD	812	n/a	-1	1	1.0	1.0	upper	../fonts/Verdana.ttf
2032.786	n/a	WORD	1016393	wordpools/wasnorm_wordpool.txt	LTP144	ltpFR	4	10	-1	BISON	131	n/a	-1	1	1.0	1.0	upper	../fonts/Verdana.ttf
2036.676	n/a	WORD	1018338	wordpools/wasnorm_wordpool.txt	LTP144	ltpFR	4	10	-1	COUSIN	392	n/a	-1	1	1.0	1.0	upper	../fonts/Verdana.ttf
2042.3	n/a	REC_START	1021150	n/a	LTP144	ltpFR	4	10	n/a	n/a	n/a	n/a	n/a	n/a	n/a	n/a	n/a	n/a
2043.408	n/a	REC_WORD	1021704	wordpools/wasnorm_wordpool.txt	LTP144	ltpFR	4	10	-1	COUSIN	392	n/a	-1	n/a	n/a	n/a	n/a	n/a
2044.296	n/a	REC_WORD	1022148	wordpools/wasnorm_wordpool.txt	LTP144	ltpFR	4	10	-1	LEOPARD	812	n/a	-1	n/a	n/a	n/a	n/a	n/a
2045.294	n/a	REC_WORD	1022647	wordpools/wasnorm_wordpool.txt	LTP144	ltpFR	4	10	-1	BISON	131	n/a	-1	n/a	n/a	n/a	n/a	n/a
2047.968	n/a	REC_WORD	1023984	wordpools/wasnorm_wordpool.txt	LTP144	ltpFR	4	10	-1	SOLDIER	1344	n/a	-1	n/a	n/a	n/a	n/a	n/a
2049.23	n/a	REC_WORD	1024615	wordpools/wasnorm_wordpool.txt	LTP144	ltpFR	4	10	-1	CREW	406	n/a	-1	n/a	n/a	n/a	n/a	n/a
2050.178	n/a	REC_WORD	1025089	wordpools/wasnorm_wordpool.txt	LTP144	ltpFR	4	10	-1	PATRIOT	1026	n/a	-1	n/a	n/a	n/a	n/a	n/a
2053.49	n/a	REC_WORD	1026745	wordpools/wasnorm_wordpool.txt	LTP144	ltpFR	4	10	-1	PIRATE	1074	n/a	-1	n/a	n/a	n/a	n/a	n/a
2060.834	n/a	REC_WORD	1030417	wordpools/wasnorm_wordpool.txt	LTP144	ltpFR	4	10	-1	SUITE	1404	n/a	-1	n/a	n/a	n/a	n/a	n/a
2062.55	n/a	REC_WORD	1031275	wordpools/wasnorm_wordpool.txt	LTP144	ltpFR	4	10	-1	HOUSE	725	n/a	-1	n/a	n/a	n/a	n/a	n/a
2063.254	n/a	REC_WORD	1031627	wordpools/wasnorm_wordpool.txt	LTP144	ltpFR	4	10	-1	FOUNTAIN	597	n/a	-1	n/a	n/a	n/a	n/a	n/a
2064.402	n/a	REC_WORD	1032201	wordpools/wasnorm_wordpool.txt	LTP144	ltpFR	4	10	-1	DORM	488	n/a	-1	n/a	n/a	n/a	n/a	n/a
2097.478	n/a	REC_WORD	1048739	wordpools/wasnorm_wordpool.txt	LTP144	ltpFR	4	10	-1	COUSIN	392	n/a	-1	n/a	n/a	n/a	n/a	n/a
2106.238	n/a	REC_WORD	1053119	wordpools/wasnorm_wordpool.txt	LTP144	ltpFR	4	10	-1	PAIL	1002	n/a	-1	n/a	n/a	n/a	n/a	n/a
2154.44	n/a	WORD	1077220	wordpools/wasnorm_wordpool.txt	LTP144	ltpFR	4	11	0	EYE	545	n/a	0	0	0.5869140625	0.422607421875	upper	../fonts/amplitud.ttf
2158.614	n/a	WORD	1079307	wordpools/wasnorm_wordpool.txt	LTP144	ltpFR	4	11	0	DUSTPAN	509	n/a	0	0	0.5869140625	0.422607421875	upper	../fonts/amplitud.ttf
2162.514	n/a	WORD	1081257	wordpools/wasnorm_wordpool.txt	LTP144	ltpFR	4	11	0	TURNIP	1521	n/a	0	0	0.5869140625	0.422607421875	upper	../fonts/amplitud.ttf
2166.496	n/a	WORD	1083248	wordpools/wasnorm_wordpool.txt	LTP144	ltpFR	4	11	0	PEPPER	1047	n/a	0	0	0.5869140625	0.422607421875	upper	../fonts/amplitud.ttf
2170.528	n/a	WORD	1085264	wordpools/wasnorm_wordpool.txt	LTP144	ltpFR	4	11	1	GARLIC	624	n/a	0	1	0.412841796875	0.57763671875	lower	../fonts/zerothre.ttf
2174.652	n/a	WORD	1087326	wordpools/wasnorm_wordpool.txt	LTP144	ltpFR	4	11	1	LASH	802	n/a	0	1	0.412841796875	0.57763671875	lower	../fonts/zerothre.ttf
2178.658	n/a	WORD	1089329	wordpools/wasnorm_wordpool.txt	LTP144	ltpFR	4	11	1	DEER	444	n/a	1	1	0.412841796875	0.57763671875	lower	../fonts/zerothre.ttf
2182.524	n/a	WORD	1091262	wordpools/wasnorm_wordpool.txt	LTP144	ltpFR	4	11	1	MINK	897	n/a	1	1	0.412841796875	0.57763671875	lower	../fonts/zerothre.ttf
2186.73	n/a	WORD	1093365	wordpools/wasnorm_wordpool.txt	LTP144	ltpFR	4	11	0	DENIM	446	n/a	0	0	0.5869140625	0.422607421875	upper	../fonts/amplitud.ttf
2190.58	n/a	WORD	1095290	wordpools/wasnorm_wordpool.txt	LTP144	ltpFR	4	11	0	ELK	526	n/a	1	0	0.5869140625	0.422607421875	upper	../fonts/amplitud.ttf
2194.628	n/a	WORD	1097314	wordpools/wasnorm_wordpool.txt	LTP144	ltpFR	4	11	0	SODA	1341	n/a	0	0	0.5869140625	0.422607421875	upper	../fonts/amplitud.ttf
2198.452	n/a	WORD	1099226	wordpools/wasnorm_wordpool.txt	LTP144	ltpFR	4	11	0	BUTTON	207	n/a	0	0	0.5869140625	0.422607421875	upper	../fonts/amplitud.ttf
2202.526	n/a	WORD	1101263	wordpools/wasnorm_wordpool.txt	LTP144	ltpFR	4	11	1	DIGGER	464	n/a	1	1	0.412841796875	0.57763671875	lower	../fonts/zerothre.ttf
2206.7	n/a	WORD	1103350	wordpools/wasnorm_wordpool.txt	LTP144	ltpFR	4	11	1	CHAUFFEUR	283	n/a	1	1	0.412841796875	0.57763671875	lower	../fonts/zerothre.ttf
2210.74	n/a	WORD	1105370	wordpools/wasnorm_wordpool.txt	LTP144	ltpFR	4	11	1	MAP	865	n/a	0	1	0.412841796875	0.57763671875	lower	../fonts/zerothre.ttf
2214.556	n/a	WORD	1107278	wordpools/wasnorm_wordpool.txt	LTP144	ltpFR	4	11	1	WORLD	1622	n/a	0	1	0.412841796875	0.57763671875	lower	../fonts/zerothre.ttf
2220.438	n/a	REC_START	1110219	n/a	LTP144	ltpFR	4	11	n/a	n/a	n/a	n/a	n/a	n/a	n/a	n/a	n/a	n/a
2221.774	n/a	REC_WORD	1110887	wordpools/wasnorm_wordpool.txt	LTP144	ltpFR	4	11	1	WORLD	1622	n/a	0	n/a	n/a	n/a	n/a	n/a
2222.698	n/a	REC_WORD	1111349	wordpools/wasnorm_wordpool.txt	LTP144	ltpFR	4	11	1	MAP	865	n/a	0	n/a	n/a	n/a	n/a	n/a
2228.49	n/a	REC_WORD	1114245	wordpools/wasnorm_wordpool.txt	LTP144	ltpFR	4	11	0	DUSTPAN	509	n/a	0	n/a	n/a	n/a	n/a	n/a
2230.884	n/a	REC_WORD	1115442	wordpools/wasnorm_wordpool.txt	LTP144	ltpFR	4	11	0	PEPPER	1047	n/a	0	n/a	n/a	n/a	n/a	n/a
2233.164	n/a	REC_WORD	1116582	wordpools/wasnorm_wordpool.txt	LTP144	ltpFR	4	11	0	TURNIP	1521	n/a	0	n/a	n/a	n/a	n/a	n/a
2245.542	n/a	REC_WORD	1122771	wordpools/wasnorm_wordpool.txt	LTP144	ltpFR	4	11	0	EYE	545	n/a	0	n/a	n/a	n/a	n/a	n/a
2253.844	n/a	REC_WORD	1126922	wordpools/wasnorm_wordpool.txt	LTP144	ltpFR	4	11	1	DEER	444	n/a	1	n/a	n/a	n/a	n/a	n/a
2254.606	n/a	REC_WORD	1127303	wordpools/wasnorm_wordpool.txt	LTP144	ltpFR	4	11	0	ELK	526	n/a	1	n/a	n/a	n/a	n/a	n/a
2255.514	n/a	REC_WORD	1127757	wordpools/wasnorm_wordpool.txt	LTP144	ltpFR	4	11	1	MINK	897	n/a	1	n/a	n/a	n/a	n/a	n/a
2259.656	n/a	REC_WORD	1129828	wordpools/wasnorm_wordpool.txt	LTP144	ltpFR	4	11	1	DIGGER	464	n/a	1	n/a	n/a	n/a	n/a	n/a
2361.946	n/a	WORD	1180973	wordpools/wasnorm_wordpool.txt	LTP144	ltpFR	4	12	-1	MOVIE	927	n/a	-1	1	1.0	1.0	upper	../fonts/Verdana.ttf
2366.144	n/a	WORD	1183072	wordpools/wasnorm_wordpool.txt	LTP144	ltpFR	4	12	-1	FIDDLE	561	n/a	-1	1	1.0	1.0	upper	../fonts/Verdana.ttf
2369.968	n/a	WORD	1184984	wordpools/wasnorm_wordpool.txt	LTP144	ltpFR	4	12	-1	CLASS	318	n/a	-1	1	1.0	1.0	upper	../fonts/Verdana.ttf
2374.124	n/a	WORD	1187062	wordpools/wasnorm_wordpool.txt	LTP144	ltpFR	4	12	-1	DESK	452	n/a	-1	1	1.0	1.0	upper	../fonts/Verdana.ttf
2378.224	n/a	WORD	1189112	wordpools/wasnorm_wordpool.txt	LTP144	ltpFR	4	12	-1	SUPERVISOR	1410	n/a	-1	1	1.0	1.0	upper	../fonts/Verdana.ttf
2382.106	n/a	WORD	1191053	wordpools/wasnorm_wordpool.txt	LTP144	ltpFR	4	12	-1	ASSISTANT	48	n/a	-1	1	1.0	1.0	upper	../fonts/Verdana.ttf
2386.122	n/a	WORD	1193061	wordpools/wasnorm_wordpool.txt	LTP144	ltpFR	4	12	-1	BUILDER	190	n/a	-1	1	1.0	1.0	upper	../fonts/Verdana.ttf
2390.254	n/a	WORD	1195127	wordpools/wasnorm_wordpool.txt	LTP144	ltpFR	4	12	-1	PUB	1135	n/a	-1	1	1.0	1.0	upper	../fonts/Verdana.ttf
2394.228	n/a	WORD	1197114	wordpools/wasnorm_wordpool.txt	LTP144	ltpFR	4	12	-1	SHUTTER	1300	n/a	-1	1	1.0	1.0	upper	../fonts/Verdana.ttf
2398.3	n/a	WORD	1199150	wordpools/wasnorm_wordpool.txt	LTP144	ltpFR	4	12	-1	BRIEFCASE	175	n/a	-1	1	1.0	1.0	upper	../fonts/Verdana.ttf
2402.192	n/a	WORD	1201096	wordpools/wasnorm_wordpool.txt	LTP144	ltpFR	4	12	-1	COMET	353	n/a	-1	1	1.0	1.0	upper	../fonts/Verdana.ttf
2406.008	n/a	WORD	1203004	wordpools/wasnorm_wordpool.txt	LTP144	ltpFR	4	12	-1	TRUMPET	1513	n/a	-1	1	1.0	1.0	upper	../fonts/Verdana.ttf
2410.014	n/a	WORD	1205007	wordpools/wasnorm_wordpool.txt	LTP144	ltpFR	4	12	-1	KNAPSACK	783	n/a	-1	1	1.0	1.0	upper	../fonts/Verdana.ttf
2414.012	n/a	WORD	1207006	wordpools/wasnorm_wordpool.txt	LTP144	ltpFR	4	12	-1	ROOM	1206	n/a	-1	1	1.0	1.0	upper	../fonts/Verdana.ttf
2418.062	n/a	WORD	1209031	wordpools/wasnorm_wordpool.txt	LTP144	ltpFR	4	12	-1	CASTLE	256	n/a	-1	1	1.0	1.0	upper	../fonts/Verdana.ttf
2422.228	n/a	WORD	1211114	wordpools/wasnorm_wordpool.txt	LTP144	ltpFR	4	12	-1	KING	777	n/a	-1	1	1.0	1.0	upper	../fonts/Verdana.ttf
2428.184	n/a	REC_START	1214092	n/a	LTP144	ltpFR	4	12	n/a	n/a	n/a	n/a	n/a	n/a	n/a	n/a	n/a	n/a
2430.164	n/a	REC_WORD	1215082	wordpools/wasnorm_wordpool.txt	LTP144	ltpFR	4	12	-1	KING	777	n/a	-1	n/a	n/a	n/a	n/a	n/a
2430.934	n/a	REC_WORD	1215467	wordpools/wasnorm_wordpool.txt	LTP144	ltpFR	4	12	-1	CASTLE	256	n/a	-1	n/a	n/a	n/a	n/a	n/a
2431.91	n/a	REC_WORD	1215955	wordpools/wasnorm_wordpool.txt	LTP144	ltpFR	4	12	-1	ROOM	1206	n/a	-1	n/a	n/a	n/a	n/a	n/a
2434.09	n/a	REC_WORD	1217045	wordpools/wasnorm_wordpool.txt	LTP144	ltpFR	4	12	-1	FIDDLE	561	n/a	-1	n/a	n/a	n/a	n/a	n/a
2435.208	n/a	REC_WORD	1217604	wordpools/wasnorm_wordpool.txt	LTP144	ltpFR	4	12	-1	MOVIE	927	n/a	-1	n/a	n/a	n/a	n/a	n/a
2436.894	n/a	REC_WORD	1218447	wordpools/wasnorm_wordpool.txt	LTP144	ltpFR	4	12	-1	SUPERVISOR	1410	n/a	-1	n/a	n/a	n/a	n/a	n/a
2437.896	n/a	REC_WORD_VV	1218948	wordpools/wasnorm_wordpool.txt	LTP144	ltpFR	4	12	n/a	<>	-1	n/a	n/a	n/a	n/a	n/a	n/a	n/a
2438.328	n/a	REC_WORD	1219164	wordpools/wasnorm_wordpool.txt	LTP144	ltpFR	4	12	-1	ASSISTANT	48	n/a	-1	n/a	n/a	n/a	n/a	n/a
2503.77	n/a	REST_REWET	1251885	n/a	LTP144	ltpFR	4	12	n/a	n/a	n/a	n/a	n/a	n/a	n/a	n/a	n/a	n/a
2907.18	n/a	WORD	1453590	wordpools/wasnorm_wordpool.txt	LTP144	ltpFR	4	13	1	COMMANDER	354	n/a	1	1	0.412841796875	0.57763671875	lower	../fonts/zerothre.ttf
2911.386	n/a	WORD	1455693	wordpools/wasnorm_wordpool.txt	LTP144	ltpFR	4	13	1	COLONEL	348	n/a	1	1	0.412841796875	0.57763671875	lower	../fonts/zerothre.ttf
2915.236	n/a	WORD	1457618	wordpools/wasnorm_wordpool.txt	LTP144	ltpFR	4	13	1	STEWARDESS	1381	n/a	1	1	0.412841796875	0.57763671875	lower	../fonts/zerothre.ttf
2919.136	n/a	WORD	1459568	wordpools/wasnorm_wordpool.txt	LTP144	ltpFR	4	13	1	INSTRUCTOR	741	n/a	1	1	0.412841796875	0.57763671875	lower	../fonts/zerothre.ttf
2923.0	n/a	WORD	1461500	wordpools/wasnorm_wordpool.txt	LTP144	ltpFR	4	13	1	CRUMB	416	n/a	0	1	0.412841796875	0.57763671875	lower	../fonts/zerothre.ttf
2927.082	n/a	WORD	1463541	wordpools/wasnorm_wordpool.txt	LTP144	ltpFR	4	13	1	OVAL	990	n/a	0	1	0.412841796875	0.57763671875	lower	../fonts/zerothre.ttf
2931.298	n/a	WORD	1465649	wordpools/wasnorm_wordpool.txt	LTP144	ltpFR	4	13	1	TYPEWRITER	1531	n/a	0	1	0.412841796875	0.57763671875	lower	../fonts/zerothre.ttf
2935.454	n/a	WORD	1467727	wordpools/wasnorm_wordpool.txt	LTP144	ltpFR	4	13	1	TERMINAL	1450	n/a	0	1	0.412841796875	0.57763671875	lower	../fonts/zerothre.ttf
2939.404	n/a	WORD	1469702	wordpools/wasnorm_wordpool.txt	LTP144	ltpFR	4	13	1	SHORTCAKE	1292	n/a	0	1	0.412841796875	0.57763671875	lower	../fonts/zerothre.ttf
2943.568	n/a	WORD	1471784	wordpools/wasnorm_wordpool.txt	LTP144	ltpFR	4	13	1	CONE	363	n/a	0	1	0.412841796875	0.57763671875	lower	../fonts/zerothre.ttf
2947.618	n/a	WORD	1473809	wordpools/wasnorm_wordpool.txt	LTP144	ltpFR	4	13	1	SHIP	1286	n/a	0	1	0.412841796875	0.57763671875	lower	../fonts/zerothre.ttf
2951.642	n/a	WORD	1475821	wordpools/wasnorm_wordpool.txt	LTP144	ltpFR	4	13	1	CANOE	233	n/a	0	1	0.412841796875	0.57763671875	lower	../fonts/zerothre.ttf
2955.756	n/a	WORD	1477878	wordpools/wasnorm_wordpool.txt	LTP144	ltpFR	4	13	1	PROFESSIONAL	1130	n/a	1	1	0.412841796875	0.57763671875	lower	../fonts/zerothre.ttf
2959.798	n/a	WORD	1479899	wordpools/wasnorm_wordpool.txt	LTP144	ltpFR	4	13	1	STUDENT	1395	n/a	1	1	0.412841796875	0.57763671875	lower	../fonts/zerothre.ttf
2963.738	n/a	WORD	1481869	wordpools/wasnorm_wordpool.txt	LTP144	ltpFR	4	13	1	GROUND	666	n/a	0	1	0.412841796875	0.57763671875	lower	../fonts/zerothre.ttf
2967.928	n/a	WORD	1483964	wordpools/wasnorm_wordpool.txt	LTP144	ltpFR	4	13	1	MOON	914	n/a	0	1	0.412841796875	0.57763671875	lower	../fonts/zerothre.ttf
2973.768	n/a	REC_START	1486884	n/a	LTP144	ltpFR	4	13	n/a	n/a	n/a	n/a	n/a	n/a	n/a	n/a	n/a	n/a
2975.49	n/a	REC_WORD	1487745	wordpools/wasnorm_wordpool.txt	LTP144	ltpFR	4	13	1	MOON	914	n/a	0	n/a	n/a	n/a	n/a	n/a
2978.672	n/a	REC_WORD	1489336	wordpools/wasnorm_wordpool.txt	LTP144	ltpFR	4	13	1	COMMANDER	354	n/a	1	n/a	n/a	n/a	n/a	n/a
2979.74	n/a	REC_WORD	1489870	wordpools/wasnorm_wordpool.txt	LTP144	ltpFR	4	13	1	COLONEL	348	n/a	1	n/a	n/a	n/a	n/a	n/a
2981.81	n/a	REC_WORD	1490905	wordpools/wasnorm_wordpool.txt	LTP144	ltpFR	4	13	1	SHIP	1286	n/a	0	n/a	n/a	n/a	n/a	n/a
2982.872	n/a	REC_WORD	1491436	wordpools/wasnorm_wordpool.txt	LTP144	ltpFR	4	13	1	CANOE	233	n/a	0	n/a	n/a	n/a	n/a	n/a
2984.638	n/a	REC_WORD	1492319	wordpools/wasnorm_wordpool.txt	LTP144	ltpFR	4	13	1	INSTRUCTOR	741	n/a	1	n/a	n/a	n/a	n/a	n/a
2985.876	n/a	REC_WORD	1492938	wordpools/wasnorm_wordpool.txt	LTP144	ltpFR	4	13	1	PROFESSIONAL	1130	n/a	1	n/a	n/a	n/a	n/a	n/a
2986.918	n/a	REC_WORD	1493459	wordpools/wasnorm_wordpool.txt	LTP144	ltpFR	4	13	1	STUDENT	1395	n/a	1	n/a	n/a	n/a	n/a	n/a
2990.442	n/a	REC_WORD	1495221	wordpools/wasnorm_wordpool.txt	LTP144	ltpFR	4	13	1	CRUMB	416	n/a	0	n/a	n/a	n/a	n/a	n/a
3019.89	n/a	REC_WORD	1509945	wordpools/wasnorm_wordpool.txt	LTP144	ltpFR	4	13	1	SHORTCAKE	1292	n/a	0	n/a	n/a	n/a	n/a	n/a
3026.306	n/a	REC_WORD	1513153	wordpools/wasnorm_wordpool.txt	LTP144	ltpFR	4	13	1	TERMINAL	1450	n/a	0	n/a	n/a	n/a	n/a	n/a
3078.61	n/a	WORD	1539305	wordpools/wasnorm_wordpool.txt	LTP144	ltpFR	4	14	0	MARBLE	867	n/a	0	0	0.5869140625	0.422607421875	upper	../fonts/amplitud.ttf
3082.702	n/a	WORD	1541351	wordpools/wasnorm_wordpool.txt	LTP144	ltpFR	4	14	0	INFANT	737	n/a	0	0	0.5869140625	0.422607421875	upper	../fonts/amplitud.ttf
3086.692	n/a	WORD	1543346	wordpools/wasnorm_wordpool.txt	LTP144	ltpFR	4	14	0	SENATOR	1268	n/a	1	0	0.5869140625	0.422607421875	upper	../fonts/amplitud.ttf
3090.55	n/a	WORD	1545275	wordpools/wasnorm_wordpool.txt	LTP144	ltpFR	4	14	0	DOUGHNUT	490	n/a	0	0	0.5869140625	0.422607421875	upper	../fonts/amplitud.ttf
3094.39	n/a	WORD	1547195	wordpools/wasnorm_wordpool.txt	LTP144	ltpFR	4	14	0	DONKEY	484	n/a	1	0	0.5869140625	0.422607421875	upper	../fonts/amplitud.ttf
3098.538	n/a	WORD	1549269	wordpools/wasnorm_wordpool.txt	LTP144	ltpFR	4	14	0	FATHER	554	n/a	1	0	0.5869140625	0.422607421875	upper	../fonts/amplitud.ttf
3102.72	n/a	WORD	1551360	wordpools/wasnorm_wordpool.txt	LTP144	ltpFR	4	14	0	SCOUT	1252	n/a	1	0	0.5869140625	0.422607421875	upper	../fonts/amplitud.ttf
3106.752	n/a	WORD	1553376	wordpools/wasnorm_wordpool.txt	LTP144	ltpFR	4	14	0	CROCODILE	411	n/a	1	0	0.5869140625	0.422607421875	upper	../fonts/amplitud.ttf
3110.96	n/a	WORD	1555480	wordpools/wasnorm_wordpool.txt	LTP144	ltpFR	4	14	0	FACE	547	n/a	0	0	0.5869140625	0.422607421875	upper	../fonts/amplitud.ttf
3114.802	n/a	WORD	1557401	wordpools/wasnorm_wordpool.txt	LTP144	ltpFR	4	14	0	ISLAND	745	n/a	1	0	0.5869140625	0.422607421875	upper	../fonts/amplitud.ttf
3118.74	n/a	WORD	1559370	wordpools/wasnorm_wordpool.txt	LTP144	ltpFR	4	14	0	POLITICIAN	1099	n/a	1	0	0.5869140625	0.422607421875	upper	../fonts/amplitud.ttf
3122.598	n/a	WORD	1561299	wordpools/wasnorm_wordpool.txt	LTP144	ltpFR	4	14	0	SWATTER	1418	n/a	0	0	0.5869140625	0.422607421875	upper	../fonts/amplitud.ttf
3126.68	n/a	WORD	1563340	wordpools/wasnorm_wordpool.txt	LTP144	ltpFR	4	14	0	AIRPLANE	12	n/a	1	0	0.5869140625	0.422607421875	upper	../fonts/amplitud.ttf
3130.578	n/a	WORD	1565289	wordpools/wasnorm_wordpool.txt	LTP144	ltpFR	4	14	0	CROW	414	n/a	0	0	0.5869140625	0.422607421875	upper	../fonts/amplitud.ttf
3134.56	n/a	WORD	1567280	wordpools/wasnorm_wordpool.txt	LTP144	ltpFR	4	14	0	COMB	351	n/a	0	0	0.5869140625	0.422607421875	upper	../fonts/amplitud.ttf
3138.51	n/a	WORD	1569255	wordpools/wasnorm_wordpool.txt	LTP144	ltpFR	4	14	0	BUFFALO	186	n/a	1	0	0.5869140625	0.422607421875	upper	../fonts/amplitud.ttf
3144.35	n/a	REC_START	1572175	n/a	LTP144	ltpFR	4	14	n/a	n/a	n/a	n/a	n/a	n/a	n/a	n/a	n/a	n/a
3145.388	n/a	REC_WORD	1572694	wordpools/wasnorm_wordpool.txt	LTP144	ltpFR	4	14	0	BUFFALO	186	n/a	1	n/a	n/a	n/a	n/a	n/a
3146.34	n/a	REC_WORD	1573170	wordpools/wasnorm_wordpool.txt	LTP144	ltpFR	4	14	0	CROW	414	n/a	0	n/a	n/a	n/a	n/a	n/a
3147.044	n/a	REC_WORD	1573522	wordpools/wasnorm_wordpool.txt	LTP144	ltpFR	4	14	0	COMB	351	n/a	0	n/a	n/a	n/a	n/a	n/a
3150.81	n/a	REC_WORD_VV	1575405	wordpools/wasnorm_wordpool.txt	LTP144	ltpFR	4	14	n/a	<>	-1	n/a	n/a	n/a	n/a	n/a	n/a	n/a
3151.168	n/a	REC_WORD	1575584	wordpools/wasnorm_wordpool.txt	LTP144	ltpFR	4	14	0	MARBLE	867	n/a	0	n/a	n/a	n/a	n/a	n/a
3151.978	n/a	REC_WORD	1575989	wordpools/wasnorm_wordpool.txt	LTP144	ltpFR	4	14	0	INFANT	737	n/a	0	n/a	n/a	n/a	n/a	n/a
3153.958	n/a	REC_WORD	1576979	wordpools/wasnorm_wordpool.txt	LTP144	ltpFR	4	14	0	FATHER	554	n/a	1	n/a	n/a	n/a	n/a	n/a
3156.154	n/a	REC_WORD	1578077	wordpools/wasnorm_wordpool.txt	LTP144	ltpFR	4	14	0	FACE	547	n/a	0	n/a	n/a	n/a	n/a	n/a
3157.066	n/a	REC_WORD	1578533	wordpools/wasnorm_wordpool.txt	LTP144	ltpFR	4	14	0	SENATOR	1268	n/a	1	n/a	n/a	n/a	n/a	n/a
3158.304	n/a	REC_WORD	1579152	wordpools/wasnorm_wordpool.txt	LTP144	ltpFR	4	14	0	POLITICIAN	1099	n/a	1	n/a	n/a	n/a	n/a	n/a
3183.094	n/a	REC_WORD	1591547	wordpools/wasnorm_wordpool.txt	LTP144	ltpFR	4	14	0	CROCODILE	411	n/a	1	n/a	n/a	n/a	n/a	n/a
3252.666	n/a	WORD	1626333	wordpools/wasnorm_wordpool.txt	LTP144	ltpFR	4	15	0	SEAT	1264	n/a	1	0	0.5869140625	0.422607421875	upper	../fonts/amplitud.ttf
3256.826	n/a	WORD	1628413	wordpools/wasnorm_wordpool.txt	LTP144	ltpFR	4	15	0	SUGAR	1401	n/a	0	0	0.5869140625	0.422607421875	upper	../fonts/amplitud.ttf
3260.782	n/a	WORD	1630391	wordpools/wasnorm_wordpool.txt	LTP144	ltpFR	4	15	0	MAGICIAN	854	n/a	1	0	0.5869140625	0.422607421875	upper	../fonts/amplitud.ttf
3264.704	n/a	WORD	1632352	wordpools/wasnorm_wordpool.txt	LTP144	ltpFR	4	15	0	BANDANNA	80	n/a	0	0	0.5869140625	0.422607421875	upper	../fonts/amplitud.ttf
3268.62	n/a	WORD	1634310	wordpools/wasnorm_wordpool.txt	LTP144	ltpFR	4	15	0	SCARECROW	1245	n/a	1	0	0.5869140625	0.422607421875	upper	../fonts/amplitud.ttf
3272.694	n/a	WORD	1636347	wordpools/wasnorm_wordpool.txt	LTP144	ltpFR	4	15	0	SWITCH	1422	n/a	0	0	0.5869140625	0.422607421875	upper	../fonts/amplitud.ttf
3276.684	n/a	WORD	1638342	wordpools/wasnorm_wordpool.txt	LTP144	ltpFR	4	15	0	FLASHLIGHT	575	n/a	0	0	0.5869140625	0.422607421875	upper	../fonts/amplitud.ttf
3280.884	n/a	WORD	1640442	wordpools/wasnorm_wordpool.txt	LTP144	ltpFR	4	15	0	BAY	102	n/a	1	0	0.5869140625	0.422607421875	upper	../fonts/amplitud.ttf
3285.082	n/a	WORD	1642541	wordpools/wasnorm_wordpool.txt	LTP144	ltpFR	4	15	0	CANAL	226	n/a	1	0	0.5869140625	0.422607421875	upper	../fonts/amplitud.ttf
3289.032	n/a	WORD	1644516	wordpools/wasnorm_wordpool.txt	LTP144	ltpFR	4	15	0	ORGAN	984	n/a	1	0	0.5869140625	0.422607421875	upper	../fonts/amplitud.ttf
3292.846	n/a	WORD	1646423	wordpools/wasnorm_wordpool.txt	LTP144	ltpFR	4	15	0	FLAG	573	n/a	1	0	0.5869140625	0.422607421875	upper	../fonts/amplitud.ttf
3297.03	n/a	WORD	1648515	wordpools/wasnorm_wordpool.txt	LTP144	ltpFR	4	15	0	MILITARY	894	n/a	1	0	0.5869140625	0.422607421875	upper	../fonts/amplitud.ttf
3301.144	n/a	WORD	1650572	wordpools/wasnorm_wordpool.txt	LTP144	ltpFR	4	15	0	BASKET	95	n/a	1	0	0.5869140625	0.422607421875	upper	../fonts/amplitud.ttf
3305.102	n/a	WORD	1652551	wordpools/wasnorm_wordpool.txt	LTP144	ltpFR	4	15	0	COMEDIAN	352	n/a	1	0	0.5869140625	0.422607421875	upper	../fonts/amplitud.ttf
3309.292	n/a	WORD	1654646	wordpools/wasnorm_wordpool.txt	LTP144	ltpFR	4	15	0	SICKLE	1302	n/a	0	0	0.5869140625	0.422607421875	upper	../fonts/amplitud.ttf
3313.448	n/a	WORD	1656724	wordpools/wasnorm_wordpool.txt	LTP144	ltpFR	4	15	0	HEAD	695	n/a	1	0	0.5869140625	0.422607421875	upper	../fonts/amplitud.ttf
3319.364	n/a	REC_START	1659682	n/a	LTP144	ltpFR	4	15	n/a	n/a	n/a	n/a	n/a	n/a	n/a	n/a	n/a	n/a
3320.804	n/a	REC_WORD	1660402	wordpools/wasnorm_wordpool.txt	LTP144	ltpFR	4	15	0	HEAD	695	n/a	1	n/a	n/a	n/a	n/a	n/a
3321.474	n/a	REC_WORD	1660737	wordpools/wasnorm_wordpool.txt	LTP144	ltpFR	4	15	0	SICKLE	1302	n/a	0	n/a	n/a	n/a	n/a	n/a
3322.56	n/a	REC_WORD	1661280	wordpools/wasnorm_wordpool.txt	LTP144	ltpFR	4	15	0	COMEDIAN	352	n/a	1	n/a	n/a	n/a	n/a	n/a
3323.574	n/a	REC_WORD	1661787	wordpools/wasnorm_wordpool.txt	LTP144	ltpFR	4	15	0	MAGICIAN	854	n/a	1	n/a	n/a	n/a	n/a	n/a
3325.22	n/a	REC_WORD	1662610	wordpools/wasnorm_wordpool.txt	LTP144	ltpFR	4	15	0	SEAT	1264	n/a	1	n/a	n/a	n/a	n/a	n/a
3326.054	n/a	REC_WORD	1663027	wordpools/wasnorm_wordpool.txt	LTP144	ltpFR	4	15	0	SUGAR	1401	n/a	0	n/a	n/a	n/a	n/a	n/a
3327.854	n/a	REC_WORD	1663927	wordpools/wasnorm_wordpool.txt	LTP144	ltpFR	4	15	0	MILITARY	894	n/a	1	n/a	n/a	n/a	n/a	n/a
3329.52	n/a	REC_WORD	1664760	wordpools/wasnorm_wordpool.txt	LTP144	ltpFR	4	15	0	BAY	102	n/a	1	n/a	n/a	n/a	n/a	n/a
3330.304	n/a	REC_WORD	1665152	wordpools/wasnorm_wordpool.txt	LTP144	ltpFR	4	15	0	CANAL	226	n/a	1	n/a	n/a	n/a	n/a	n/a
3360.95	n/a	REC_WORD_VV	1680475	wordpools/wasnorm_wordpool.txt	LTP144	ltpFR	4	15	n/a	<>	-1	n/a	n/a	n/a	n/a	n/a	n/a	n/a
3361.728	n/a	REC_WORD_VV	1680864	wordpools/wasnorm_wordpool.txt	LTP144	ltpFR	4	15	n/a	<>	-1	n/a	n/a	n/a	n/a	n/a	n/a	n/a
3424.258	n/a	WORD	1712129	wordpools/wasnorm_wordpool.txt	LTP144	ltpFR	4	16	0	PEN	1041	n/a	0	0	0.5869140625	0.422607421875	upper	../fonts/amplitud.ttf
3428.43	n/a	WORD	1714215	wordpools/wasnorm_wordpool.txt	LTP144	ltpFR	4	16	0	SHELTER	1282	n/a	1	0	0.5869140625	0.422607421875	upper	../fonts/amplitud.ttf
3432.42	n/a	WORD	1716210	wordpools/wasnorm_wordpool.txt	LTP144	ltpFR	4	16	0	REFEREE	1178	n/a	1	0	0.5869140625	0.422607421875	upper	../fonts/amplitud.ttf
3436.594	n/a	WORD	1718297	wordpools/wasnorm_wordpool.txt	LTP144	ltpFR	4	16	1	SHERIFF	1284	n/a	1	1	0.412841796875	0.57763671875	lower	../fonts/zerothre.ttf
3440.718	n/a	WORD	1720359	wordpools/wasnorm_wordpool.txt	LTP144	ltpFR	4	16	1	DETECTIVE	454	n/a	1	1	0.412841796875	0.57763671875	lower	../fonts/zerothre.ttf
3444.826	n/a	WORD	1722413	wordpools/wasnorm_wordpool.txt	LTP144	ltpFR	4	16	0	CATCHER	258	n/a	1	0	0.5869140625	0.422607421875	upper	../fonts/amplitud.ttf
3448.774	n/a	WORD	1724387	wordpools/wasnorm_wordpool.txt	LTP144	ltpFR	4	16	0	COMMUNITY	356	n/a	1	0	0.5869140625	0.422607421875	upper	../fonts/amplitud.ttf
3452.84	n/a	WORD	1726420	wordpools/wasnorm_wordpool.txt	LTP144	ltpFR	4	16	1	CHESS	294	n/a	0	1	0.412841796875	0.57763671875	lower	../fonts/zerothre.ttf
3456.88	n/a	WORD	1728440	wordpools/wasnorm_wordpool.txt	LTP144	ltpFR	4	16	1	ESSAY	540	n/a	0	1	0.412841796875	0.57763671875	lower	../fonts/zerothre.ttf
3461.022	n/a	WORD	1730511	wordpools/wasnorm_wordpool.txt	LTP144	ltpFR	4	16	1	DRESS	495	n/a	0	1	0.412841796875	0.57763671875	lower	../fonts/zerothre.ttf
3464.986	n/a	WORD	1732493	wordpools/wasnorm_wordpool.txt	LTP144	ltpFR	4	16	1	VEST	1559	n/a	0	1	0.412841796875	0.57763671875	lower	../fonts/zerothre.ttf
3469.052	n/a	WORD	1734526	wordpools/wasnorm_wordpool.txt	LTP144	ltpFR	4	16	1	VOLUNTEER	1577	n/a	1	1	0.412841796875	0.57763671875	lower	../fonts/zerothre.ttf
3473.01	n/a	WORD	1736505	wordpools/wasnorm_wordpool.txt	LTP144	ltpFR	4	16	1	SIGNATURE	1306	n/a	0	1	0.412841796875	0.57763671875	lower	../fonts/zerothre.ttf
3476.874	n/a	WORD	1738437	wordpools/wasnorm_wordpool.txt	LTP144	ltpFR	4	16	0	POWDER	1117	n/a	0	0	0.5869140625	0.422607421875	upper	../fonts/amplitud.ttf
3480.74	n/a	WORD	1740370	wordpools/wasnorm_wordpool.txt	LTP144	ltpFR	4	16	0	BASSINET	97	n/a	1	0	0.5869140625	0.422607421875	upper	../fonts/amplitud.ttf
3484.78	n/a	WORD	1742390	wordpools/wasnorm_wordpool.txt	LTP144	ltpFR	4	16	0	LABEL	790	n/a	0	0	0.5869140625	0.422607421875	upper	../fonts/amplitud.ttf
3490.454	n/a	REC_START	1745227	n/a	LTP144	ltpFR	4	16	n/a	n/a	n/a	n/a	n/a	n/a	n/a	n/a	n/a	n/a
3491.546	n/a	REC_WORD	1745773	wordpools/wasnorm_wordpool.txt	LTP144	ltpFR	4	16	0	LABEL	790	n/a	0	n/a	n/a	n/a	n/a	n/a
3492.594	n/a	REC_WORD	1746297	wordpools/wasnorm_wordpool.txt	LTP144	ltpFR	4	16	0	BASSINET	97	n/a	1	n/a	n/a	n/a	n/a	n/a
3495.282	n/a	REC_WORD	1747641	wordpools/wasnorm_wordpool.txt	LTP144	ltpFR	4	16	0	COMMUNITY	356	n/a	1	n/a	n/a	n/a	n/a	n/a
3496.13	n/a	REC_WORD	1748065	wordpools/wasnorm_wordpool.txt	LTP144	ltpFR	4	16	0	SHELTER	1282	n/a	1	n/a	n/a	n/a	n/a	n/a
3518.246	n/a	REC_WORD	1759123	wordpools/wasnorm_wordpool.txt	LTP144	ltpFR	4	16	1	VOLUNTEER	1577	n/a	1	n/a	n/a	n/a	n/a	n/a
3519.438	n/a	REC_WORD	1759719	wordpools/wasnorm_wordpool.txt	LTP144	ltpFR	4	16	1	SIGNATURE	1306	n/a	0	n/a	n/a	n/a	n/a	n/a
3522.382	n/a	REC_WORD	1761191	wordpools/wasnorm_wordpool.txt	LTP144	ltpFR	4	16	1	CHESS	294	n/a	0	n/a	n/a	n/a	n/a	n/a
3524.328	n/a	REC_WORD	1762164	wordpools/wasnorm_wordpool.txt	LTP144	ltpFR	4	16	1	ESSAY	540	n/a	0	n/a	n/a	n/a	n/a	n/a
3525.854	n/a	REC_WORD	1762927	wordpools/wasnorm_wordpool.txt	LTP144	ltpFR	4	16	1	VEST	1559	n/a	0	n/a	n/a	n/a	n/a	n/a
3526.822	n/a	REC_WORD	1763411	wordpools/wasnorm_wordpool.txt	LTP144	ltpFR	4	16	1	DRESS	495	n/a	0	n/a	n/a	n/a	n/a	n/a
3541.71	n/a	REC_WORD	1770855	wordpools/wasnorm_wordpool.txt	LTP144	ltpFR	4	16	1	DETECTIVE	454	n/a	1	n/a	n/a	n/a	n/a	n/a
3543.336	n/a	REC_WORD	1771668	wordpools/wasnorm_wordpool.txt	LTP144	ltpFR	4	16	1	SHERIFF	1284	n/a	1	n/a	n/a	n/a	n/a	n/a
3594.14	n/a	REC_START	1797070	n/a	LTP144	ltpFR	4	1	n/a	n/a	n/a	n/a	n/a	n/a	n/a	n/a	n/a	n/a
3594.172	n/a	RECOG_TARGET	1797086	n/a	LTP144	ltpFR	4	1	1	SKIRT	1319	n/a	0	n/a	n/a	n/a	n/a	n/a
3595.548	n/a	RECOG_RESP	1797774	n/a	LTP144	ltpFR	4	1	1	SKIRT	1319	n/a	0	n/a	n/a	n/a	n/a	n/a
3597.52	n/a	RECOG_TARGET	1798760	n/a	LTP144	ltpFR	4	1	1	CELLO	268	3	1	n/a	n/a	n/a	n/a	n/a
3599.516	n/a	RECOG_RESP	1799758	n/a	LTP144	ltpFR	4	1	1	CELLO	268	n/a	1	n/a	n/a	n/a	n/a	n/a
3600.872	n/a	RECOG_CONF	1800436	n/a	LTP144	ltpFR	4	1	1	CELLO	268	3	1	n/a	n/a	n/a	n/a	n/a
3602.288	n/a	RECOG_TARGET	1801144	n/a	LTP144	ltpFR	4	1	0	LAWN	805	5	1	n/a	n/a	n/a	n/a	n/a
3603.31	n/a	RECOG_RESP	1801655	n/a	LTP144	ltpFR	4	1	0	LAWN	805	n/a	1	n/a	n/a	n/a	n/a	n/a
3604.528	n/a	RECOG_CONF	1802264	n/a	LTP144	ltpFR	4	1	0	LAWN	805	5	1	n/a	n/a	n/a	n/a	n/a
3606.094	n/a	RECOG_LURE	1803047	n/a	LTP144	ltpFR	4	1	n/a	CLOUD	328	5	n/a	n/a	n/a	n/a	n/a	n/a
3606.884	n/a	RECOG_RESP	1803442	n/a	LTP144	ltpFR	4	1	n/a	CLOUD	328	n/a	n/a	n/a	n/a	n/a	n/a	n/a
3607.802	n/a	RECOG_CONF	1803901	n/a	LTP144	ltpFR	4	1	n/a	CLOUD	328	5	n/a	n/a	n/a	n/a	n/a	n/a
3609.376	n/a	RECOG_TARGET	1804688	n/a	LTP144	ltpFR	4	1	1	MOON	914	5	0	n/a	n/a	n/a	n/a	n/a
3610.242	n/a	RECOG_RESP	1805121	n/a	LTP144	ltpFR	4	1	1	MOON	914	n/a	0	n/a	n/a	n/a	n/a	n/a
3611.326	n/a	RECOG_CONF	1805663	n/a	LTP144	ltpFR	4	1	1	MOON	914	5	0	n/a	n/a	n/a	n/a	n/a
3612.884	n/a	RECOG_TARGET	1806442	n/a	LTP144	ltpFR	4	1	0	ROOSTER	1209	3	1	n/a	n/a	n/a	n/a	n/a
3613.826	n/a	RECOG_RESP	1806913	n/a	LTP144	ltpFR	4	1	0	ROOSTER	1209	n/a	1	n/a	n/a	n/a	n/a	n/a
3615.378	n/a	RECOG_CONF	1807689	n/a	LTP144	ltpFR	4	1	0	ROOSTER	1209	3	1	n/a	n/a	n/a	n/a	n/a
3616.824	n/a	RECOG_TARGET	1808412	n/a	LTP144	ltpFR	4	1	0	BAY	102	5	1	n/a	n/a	n/a	n/a	n/a
3617.62	n/a	RECOG_RESP	1808810	n/a	LTP144	ltpFR	4	1	0	BAY	102	n/a	1	n/a	n/a	n/a	n/a	n/a
3618.66	n/a	RECOG_CONF	1809330	n/a	LTP144	ltpFR	4	1	0	BAY	102	5	1	n/a	n/a	n/a	n/a	n/a
3620.556	n/a	RECOG_TARGET	1810278	n/a	LTP144	ltpFR	4	1	1	COMMANDER	354	1	1	n/a	n/a	n/a	n/a	n/a
3622.226	n/a	RECOG_RESP	1811113	n/a	LTP144	ltpFR	4	1	1	COMMANDER	354	n/a	1	n/a	n/a	n/a	n/a	n/a
3623.93	n/a	RECOG_CONF	1811965	n/a	LTP144	ltpFR	4	1	1	COMMANDER	354	1	1	n/a	n/a	n/a	n/a	n/a
3625.48	n/a	RECOG_TARGET	1812740	n/a	LTP144	ltpFR	4	1	-1	WAVE	1596	5	-1	n/a	n/a	n/a	n/a	n/a
3626.38	n/a	RECOG_RESP	1813190	n/a	LTP144	ltpFR	4	1	-1	WAVE	1596	n/a	-1	n/a	n/a	n/a	n/a	n/a
3627.216	n/a	RECOG_CONF	1813608	n/a	LTP144	ltpFR	4	1	-1	WAVE	1596	5	-1	n/a	n/a	n/a	n/a	n/a
3628.846	n/a	RECOG_TARGET	1814423	n/a	LTP144	ltpFR	4	1	1	DIGGER	464	5	1	n/a	n/a	n/a	n/a	n/a
3629.586	n/a	RECOG_RESP	1814793	n/a	LTP144	ltpFR	4	1	1	DIGGER	464	n/a	1	n/a	n/a	n/a	n/a	n/a
3630.554	n/a	RECOG_CONF	1815277	n/a	LTP144	ltpFR	4	1	1	DIGGER	464	5	1	n/a	n/a	n/a	n/a	n/a
3632.194	n/a	RECOG_TARGET	1816097	n/a	LTP144	ltpFR	4	1	0	BANDANNA	80	5	0	n/a	n/a	n/a	n/a	n/a
3633.278	n/a	RECOG_RESP	1816639	n/a	LTP144	ltpFR	4	1	0	BANDANNA	80	n/a	0	n/a	n/a	n/a	n/a	n/a
3634.362	n/a	RECOG_CONF	1817181	n/a	LTP144	ltpFR	4	1	0	BANDANNA	80	5	0	n/a	n/a	n/a	n/a	n/a
3636.152	n/a	RECOG_TARGET	1818076	n/a	LTP144	ltpFR	4	1	0	COD	340	5	1	n/a	n/a	n/a	n/a	n/a
3637.026	n/a	RECOG_RESP	1818513	n/a	LTP144	ltpFR	4	1	0	COD	340	n/a	1	n/a	n/a	n/a	n/a	n/a
3638.004	n/a	RECOG_CONF	1819002	n/a	LTP144	ltpFR	4	1	0	COD	340	5	1	n/a	n/a	n/a	n/a	n/a
3639.6	n/a	RECOG_TARGET	1819800	n/a	LTP144	ltpFR	4	1	0	BEETLE	116	5	0	n/a	n/a	n/a	n/a	n/a
3640.39	n/a	RECOG_RESP	1820195	n/a	LTP144	ltpFR	4	1	0	BEETLE	116	n/a	0	n/a	n/a	n/a	n/a	n/a
3641.394	n/a	RECOG_CONF	1820697	n/a	LTP144	ltpFR	4	1	0	BEETLE	116	5	0	n/a	n/a	n/a	n/a	n/a
3643.034	n/a	RECOG_TARGET	1821517	n/a	LTP144	ltpFR	4	1	0	MILITARY	894	5	1	n/a	n/a	n/a	n/a	n/a
3643.852	n/a	RECOG_RESP	1821926	n/a	LTP144	ltpFR	4	1	0	MILITARY	894	n/a	1	n/a	n/a	n/a	n/a	n/a
3644.802	n/a	RECOG_CONF	1822401	n/a	LTP144	ltpFR	4	1	0	MILITARY	894	5	1	n/a	n/a	n/a	n/a	n/a
3646.298	n/a	RECOG_LURE	1823149	n/a	LTP144	ltpFR	4	1	n/a	LOUNGE	845	2	n/a	n/a	n/a	n/a	n/a	n/a
3647.12	n/a	RECOG_RESP	1823560	n/a	LTP144	ltpFR	4	1	n/a	LOUNGE	845	n/a	n/a	n/a	n/a	n/a	n/a	n/a
3648.296	n/a	RECOG_CONF	1824148	n/a	LTP144	ltpFR	4	1	n/a	LOUNGE	845	2	n/a	n/a	n/a	n/a	n/a	n/a
3649.772	n/a	RECOG_TARGET	1824886	n/a	LTP144	ltpFR	4	1	-1	COPIER	377	2	-1	n/a	n/a	n/a	n/a	n/a
3651.036	n/a	RECOG_RESP	1825518	n/a	LTP144	ltpFR	4	1	-1	COPIER	377	n/a	-1	n/a	n/a	n/a	n/a	n/a
3652.678	n/a	RECOG_CONF	1826339	n/a	LTP144	ltpFR	4	1	-1	COPIER	377	2	-1	n/a	n/a	n/a	n/a	n/a
3654.138	n/a	RECOG_TARGET	1827069	n/a	LTP144	ltpFR	4	1	-1	PATROL	1027	5	-1	n/a	n/a	n/a	n/a	n/a
3655.102	n/a	RECOG_RESP	1827551	n/a	LTP144	ltpFR	4	1	-1	PATROL	1027	n/a	-1	n/a	n/a	n/a	n/a	n/a
3656.41	n/a	RECOG_CONF	1828205	n/a	LTP144	ltpFR	4	1	-1	PATROL	1027	5	-1	n/a	n/a	n/a	n/a	n/a
3657.97	n/a	RECOG_TARGET	1828985	n/a	LTP144	ltpFR	4	1	0	FATHER	554	5	1	n/a	n/a	n/a	n/a	n/a
3658.67	n/a	RECOG_RESP	1829335	n/a	LTP144	ltpFR	4	1	0	FATHER	554	n/a	1	n/a	n/a	n/a	n/a	n/a
3659.582	n/a	RECOG_CONF	1829791	n/a	LTP144	ltpFR	4	1	0	FATHER	554	5	1	n/a	n/a	n/a	n/a	n/a
3661.144	n/a	RECOG_LURE	1830572	n/a	LTP144	ltpFR	4	1	n/a	FORT	595	3	n/a	n/a	n/a	n/a	n/a	n/a
3662.106	n/a	RECOG_RESP	1831053	n/a	LTP144	ltpFR	4	1	n/a	FORT	595	n/a	n/a	n/a	n/a	n/a	n/a	n/a
3663.16	n/a	RECOG_CONF	1831580	n/a	LTP144	ltpFR	4	1	n/a	FORT	595	3	n/a	n/a	n/a	n/a	n/a	n/a
3664.592	n/a	RECOG_LURE	1832296	n/a	LTP144	ltpFR	4	1	n/a	BARK	87	5	n/a	n/a	n/a	n/a	n/a	n/a
3665.6	n/a	RECOG_RESP	1832800	n/a	LTP144	ltpFR	4	1	n/a	BARK	87	n/a	n/a	n/a	n/a	n/a	n/a	n/a
3666.568	n/a	RECOG_CONF	1833284	n/a	LTP144	ltpFR	4	1	n/a	BARK	87	5	n/a	n/a	n/a	n/a	n/a	n/a
3695.148	n/a	REC_START	1847574	n/a	LTP144	ltpFR	4	2	n/a	n/a	n/a	n/a	n/a	n/a	n/a	n/a	n/a	n/a
3695.176	n/a	RECOG_TARGET	1847588	n/a	LTP144	ltpFR	4	2	-1	FRIES	607	4	-1	n/a	n/a	n/a	n/a	n/a
3696.034	n/a	RECOG_RESP	1848017	n/a	LTP144	ltpFR	4	2	-1	FRIES	607	n/a	-1	n/a	n/a	n/a	n/a	n/a
3697.218	n/a	RECOG_CONF	1848609	n/a	LTP144	ltpFR	4	2	-1	FRIES	607	4	-1	n/a	n/a	n/a	n/a	n/a
3698.816	n/a	RECOG_LURE	1849408	n/a	LTP144	ltpFR	4	2	n/a	GRASS	655	3	n/a	n/a	n/a	n/a	n/a	n/a
3700.032	n/a	RECOG_RESP	1850016	n/a	LTP144	ltpFR	4	2	n/a	GRASS	655	n/a	n/a	n/a	n/a	n/a	n/a	n/a
3701.378	n/a	RECOG_CONF	1850689	n/a	LTP144	ltpFR	4	2	n/a	GRASS	655	3	n/a	n/a	n/a	n/a	n/a	n/a
3702.814	n/a	RECOG_TARGET	1851407	n/a	LTP144	ltpFR	4	2	0	BOUILLON	154	5	0	n/a	n/a	n/a	n/a	n/a
3703.628	n/a	RECOG_RESP	1851814	n/a	LTP144	ltpFR	4	2	0	BOUILLON	154	n/a	0	n/a	n/a	n/a	n/a	n/a
3704.596	n/a	RECOG_CONF	1852298	n/a	LTP144	ltpFR	4	2	0	BOUILLON	154	5	0	n/a	n/a	n/a	n/a	n/a
3706.28	n/a	RECOG_TARGET	1853140	n/a	LTP144	ltpFR	4	2	1	TREAD	1499	5	0	n/a	n/a	n/a	n/a	n/a
3707.038	n/a	RECOG_RESP	1853519	n/a	LTP144	ltpFR	4	2	1	TREAD	1499	n/a	0	n/a	n/a	n/a	n/a	n/a
3708.324	n/a	RECOG_CONF	1854162	n/a	LTP144	ltpFR	4	2	1	TREAD	1499	5	0	n/a	n/a	n/a	n/a	n/a
3709.878	n/a	RECOG_TARGET	1854939	n/a	LTP144	ltpFR	4	2	0	WAITRESS	1581	5	1	n/a	n/a	n/a	n/a	n/a
3710.652	n/a	RECOG_RESP	1855326	n/a	LTP144	ltpFR	4	2	0	WAITRESS	1581	n/a	1	n/a	n/a	n/a	n/a	n/a
3711.874	n/a	RECOG_CONF	1855937	n/a	LTP144	ltpFR	4	2	0	WAITRESS	1581	5	1	n/a	n/a	n/a	n/a	n/a
3713.386	n/a	RECOG_TARGET	1856693	n/a	LTP144	ltpFR	4	2	-1	PUPPY	1144	5	-1	n/a	n/a	n/a	n/a	n/a
3714.096	n/a	RECOG_RESP	1857048	n/a	LTP144	ltpFR	4	2	-1	PUPPY	1144	n/a	-1	n/a	n/a	n/a	n/a	n/a
3715.078	n/a	RECOG_CONF	1857539	n/a	LTP144	ltpFR	4	2	-1	PUPPY	1144	5	-1	n/a	n/a	n/a	n/a	n/a
3716.644	n/a	RECOG_TARGET	1858322	n/a	LTP144	ltpFR	4	2	0	INFANT	737	3	0	n/a	n/a	n/a	n/a	n/a
3717.824	n/a	RECOG_RESP	1858912	n/a	LTP144	ltpFR	4	2	0	INFANT	737	n/a	0	n/a	n/a	n/a	n/a	n/a
3719.092	n/a	RECOG_CONF	1859546	n/a	LTP144	ltpFR	4	2	0	INFANT	737	3	0	n/a	n/a	n/a	n/a	n/a
3720.584	n/a	RECOG_LURE	1860292	n/a	LTP144	ltpFR	4	2	n/a	ACORN	3	5	n/a	n/a	n/a	n/a	n/a	n/a
3721.442	n/a	RECOG_RESP	1860721	n/a	LTP144	ltpFR	4	2	n/a	ACORN	3	n/a	n/a	n/a	n/a	n/a	n/a	n/a
3722.278	n/a	RECOG_CONF	1861139	n/a	LTP144	ltpFR	4	2	n/a	ACORN	3	5	n/a	n/a	n/a	n/a	n/a	n/a
3723.876	n/a	RECOG_LURE	1861938	n/a	LTP144	ltpFR	4	2	n/a	LOLLIPOP	842	5	n/a	n/a	n/a	n/a	n/a	n/a
3724.644	n/a	RECOG_RESP	1862322	n/a	LTP144	ltpFR	4	2	n/a	LOLLIPOP	842	n/a	n/a	n/a	n/a	n/a	n/a	n/a
3725.472	n/a	RECOG_CONF	1862736	n/a	LTP144	ltpFR	4	2	n/a	LOLLIPOP	842	5	n/a	n/a	n/a	n/a	n/a	n/a
3727.066	n/a	RECOG_TARGET	1863533	n/a	LTP144	ltpFR	4	2	1	STEWARDESS	1381	4	1	n/a	n/a	n/a	n/a	n/a
3728.142	n/a	RECOG_RESP	1864071	n/a	LTP144	ltpFR	4	2	1	STEWARDESS	1381	n/a	1	n/a	n/a	n/a	n/a	n/a
3729.052	n/a	RECOG_CONF	1864526	n/a	LTP144	ltpFR	4	2	1	STEWARDESS	1381	4	1	n/a	n/a	n/a	n/a	n/a
3730.63	n/a	RECOG_TARGET	1865315	n/a	LTP144	ltpFR	4	2	-1	COOK	372	5	-1	n/a	n/a	n/a	n/a	n/a
3731.53	n/a	RECOG_RESP	1865765	n/a	LTP144	ltpFR	4	2	-1	COOK	372	n/a	-1	n/a	n/a	n/a	n/a	n/a
3732.46	n/a	RECOG_CONF	1866230	n/a	LTP144	ltpFR	4	2	-1	COOK	372	5	-1	n/a	n/a	n/a	n/a	n/a
3734.056	n/a	RECOG_TARGET	1867028	n/a	LTP144	ltpFR	4	2	-1	PIRATE	1074	5	-1	n/a	n/a	n/a	n/a	n/a
3734.784	n/a	RECOG_RESP	1867392	n/a	LTP144	ltpFR	4	2	-1	PIRATE	1074	n/a	-1	n/a	n/a	n/a	n/a	n/a
3735.984	n/a	RECOG_CONF	1867992	n/a	LTP144	ltpFR	4	2	-1	PIRATE	1074	5	-1	n/a	n/a	n/a	n/a	n/a
3737.636	n/a	RECOG_TARGET	1868818	n/a	LTP144	ltpFR	4	2	-1	BISON	131	5	-1	n/a	n/a	n/a	n/a	n/a
3738.358	n/a	RECOG_RESP	1869179	n/a	LTP144	ltpFR	4	2	-1	BISON	131	n/a	-1	n/a	n/a	n/a	n/a	n/a
3739.314	n/a	RECOG_CONF	1869657	n/a	LTP144	ltpFR	4	2	-1	BISON	131	5	-1	n/a	n/a	n/a	n/a	n/a
3740.854	n/a	RECOG_LURE	1870427	n/a	LTP144	ltpFR	4	2	n/a	CONCRETE	361	3	n/a	n/a	n/a	n/a	n/a	n/a
3741.784	n/a	RECOG_RESP	1870892	n/a	LTP144	ltpFR	4	2	n/a	CONCRETE	361	n/a	n/a	n/a	n/a	n/a	n/a	n/a
3743.564	n/a	RECOG_CONF	1871782	n/a	LTP144	ltpFR	4	2	n/a	CONCRETE	361	3	n/a	n/a	n/a	n/a	n/a	n/a
3744.994	n/a	RECOG_TARGET	1872497	n/a	LTP144	ltpFR	4	2	0	DENIM	446	5	0	n/a	n/a	n/a	n/a	n/a
3745.876	n/a	RECOG_RESP	1872938	n/a	LTP144	ltpFR	4	2	0	DENIM	446	n/a	0	n/a	n/a	n/a	n/a	n/a
3746.846	n/a	RECOG_CONF	1873423	n/a	LTP144	ltpFR	4	2	0	DENIM	446	5	0	n/a	n/a	n/a	n/a	n/a
3748.434	n/a	RECOG_TARGET	1874217	n/a	LTP144	ltpFR	4	2	0	OATMEAL	967	5	0	n/a	n/a	n/a	n/a	n/a
3749.144	n/a	RECOG_RESP	1874572	n/a	LTP144	ltpFR	4	2	0	OATMEAL	967	n/a	0	n/a	n/a	n/a	n/a	n/a
3750.062	n/a	RECOG_CONF	1875031	n/a	LTP144	ltpFR	4	2	0	OATMEAL	967	5	0	n/a	n/a	n/a	n/a	n/a
3751.65	n/a	RECOG_TARGET	1875825	n/a	LTP144	ltpFR	4	2	-1	BUILDER	190	1	-1	n/a	n/a	n/a	n/a	n/a
3754.148	n/a	RECOG_RESP	1877074	n/a	LTP144	ltpFR	4	2	-1	BUILDER	190	n/a	-1	n/a	n/a	n/a	n/a	n/a
3756.076	n/a	RECOG_CONF	1878038	n/a	LTP144	ltpFR	4	2	-1	BUILDER	190	1	-1	n/a	n/a	n/a	n/a	n/a
3757.614	n/a	RECOG_LURE	1878807	n/a	LTP144	ltpFR	4	2	n/a	RAKE	1164	3	n/a	n/a	n/a	n/a	n/a	n/a
3758.804	n/a	RECOG_RESP	1879402	n/a	LTP144	ltpFR	4	2	n/a	RAKE	1164	n/a	n/a	n/a	n/a	n/a	n/a	n/a
3760.474	n/a	RECOG_CONF	1880237	n/a	LTP144	ltpFR	4	2	n/a	RAKE	1164	3	n/a	n/a	n/a	n/a	n/a	n/a
3761.938	n/a	RECOG_LURE	1880969	n/a	LTP144	ltpFR	4	2	n/a	OINTMENT	974	5	n/a	n/a	n/a	n/a	n/a	n/a
3762.95	n/a	RECOG_RESP	1881475	n/a	LTP144	ltpFR	4	2	n/a	OINTMENT	974	n/a	n/a	n/a	n/a	n/a	n/a	n/a
3763.874	n/a	RECOG_CONF	1881937	n/a	LTP144	ltpFR	4	2	n/a	OINTMENT	974	5	n/a	n/a	n/a	n/a	n/a	n/a
3765.452	n/a	RECOG_TARGET	1882726	n/a	LTP144	ltpFR	4	2	-1	FOUNTAIN	597	5	-1	n/a	n/a	n/a	n/a	n/a
3766.266	n/a	RECOG_RESP	1883133	n/a	LTP144	ltpFR	4	2	-1	FOUNTAIN	597	n/a	-1	n/a	n/a	n/a	n/a	n/a
3767.418	n/a	RECOG_CONF	1883709	n/a	LTP144	ltpFR	4	2	-1	FOUNTAIN	597	5	-1	n/a	n/a	n/a	n/a	n/a
3780.166	n/a	REC_START	1890083	n/a	LTP144	ltpFR	4	3	n/a	n/a	n/a	n/a	n/a	n/a	n/a	n/a	n/a	n/a
3780.2	n/a	RECOG_TARGET	1890100	n/a	LTP144	ltpFR	4	3	1	WIDOW	1608	5	0	n/a	n/a	n/a	n/a	n/a
3781.036	n/a	RECOG_RESP	1890518	n/a	LTP144	ltpFR	4	3	1	WIDOW	1608	n/a	0	n/a	n/a	n/a	n/a	n/a
3782.34	n/a	RECOG_CONF	1891170	n/a	LTP144	ltpFR	4	3	1	WIDOW	1608	5	0	n/a	n/a	n/a	n/a	n/a
3783.814	n/a	RECOG_LURE	1891907	n/a	LTP144	ltpFR	4	3	n/a	PEACH	1031	5	n/a	n/a	n/a	n/a	n/a	n/a
3784.642	n/a	RECOG_RESP	1892321	n/a	LTP144	ltpFR	4	3	n/a	PEACH	1031	n/a	n/a	n/a	n/a	n/a	n/a	n/a
3786.086	n/a	RECOG_CONF	1893043	n/a	LTP144	ltpFR	4	3	n/a	PEACH	1031	5	n/a	n/a	n/a	n/a	n/a	n/a
3787.646	n/a	RECOG_TARGET	1893823	n/a	LTP144	ltpFR	4	3	0	BASSINET	97	5	1	n/a	n/a	n/a	n/a	n/a
3788.518	n/a	RECOG_RESP	1894259	n/a	LTP144	ltpFR	4	3	0	BASSINET	97	n/a	1	n/a	n/a	n/a	n/a	n/a
3789.716	n/a	RECOG_CONF	1894858	n/a	LTP144	ltpFR	4	3	0	BASSINET	97	5	1	n/a	n/a	n/a	n/a	n/a
3791.256	n/a	RECOG_TARGET	1895628	n/a	LTP144	ltpFR	4	3	0	LABEL	790	1	0	n/a	n/a	n/a	n/a	n/a
3792.098	n/a	RECOG_RESP	1896049	n/a	LTP144	ltpFR	4	3	0	LABEL	790	n/a	0	n/a	n/a	n/a	n/a	n/a
3794.598	n/a	RECOG_CONF	1897299	n/a	LTP144	ltpFR	4	3	0	LABEL	790	1	0	n/a	n/a	n/a	n/a	n/a
3796.078	n/a	RECOG_TARGET	1898039	n/a	LTP144	ltpFR	4	3	1	GUEST	669	5	1	n/a	n/a	n/a	n/a	n/a
3796.968	n/a	RECOG_RESP	1898484	n/a	LTP144	ltpFR	4	3	1	GUEST	669	n/a	1	n/a	n/a	n/a	n/a	n/a
3798.304	n/a	RECOG_CONF	1899152	n/a	LTP144	ltpFR	4	3	1	GUEST	669	5	1	n/a	n/a	n/a	n/a	n/a
3799.81	n/a	RECOG_TARGET	1899905	n/a	LTP144	ltpFR	4	3	-1	SHUTTER	1300	5	-1	n/a	n/a	n/a	n/a	n/a
3801.198	n/a	RECOG_RESP	1900599	n/a	LTP144	ltpFR	4	3	-1	SHUTTER	1300	n/a	-1	n/a	n/a	n/a	n/a	n/a
3802.368	n/a	RECOG_CONF	1901184	n/a	LTP144	ltpFR	4	3	-1	SHUTTER	1300	5	-1	n/a	n/a	n/a	n/a	n/a
3803.908	n/a	RECOG_TARGET	1901954	n/a	LTP144	ltpFR	4	3	-1	AGENT	10	5	-1	n/a	n/a	n/a	n/a	n/a
3804.68	n/a	RECOG_RESP	1902340	n/a	LTP144	ltpFR	4	3	-1	AGENT	10	n/a	-1	n/a	n/a	n/a	n/a	n/a
3806.082	n/a	RECOG_CONF	1903041	n/a	LTP144	ltpFR	4	3	-1	AGENT	10	5	-1	n/a	n/a	n/a	n/a	n/a
3807.666	n/a	RECOG_TARGET	1903833	n/a	LTP144	ltpFR	4	3	1	DIAMOND	458	5	0	n/a	n/a	n/a	n/a	n/a
3808.452	n/a	RECOG_RESP	1904226	n/a	LTP144	ltpFR	4	3	1	DIAMOND	458	n/a	0	n/a	n/a	n/a	n/a	n/a
3809.62	n/a	RECOG_CONF	1904810	n/a	LTP144	ltpFR	4	3	1	DIAMOND	458	5	0	n/a	n/a	n/a	n/a	n/a
3811.116	n/a	RECOG_TARGET	1905558	n/a	LTP144	ltpFR	4	3	0	COMEDIAN	352	5	1	n/a	n/a	n/a	n/a	n/a
3811.892	n/a	RECOG_RESP	1905946	n/a	LTP144	ltpFR	4	3	0	COMEDIAN	352	n/a	1	n/a	n/a	n/a	n/a	n/a
3812.922	n/a	RECOG_CONF	1906461	n/a	LTP144	ltpFR	4	3	0	COMEDIAN	352	5	1	n/a	n/a	n/a	n/a	n/a
3814.572	n/a	RECOG_TARGET	1907286	n/a	LTP144	ltpFR	4	3	1	VALLEY	1545	5	1	n/a	n/a	n/a	n/a	n/a
3815.4	n/a	RECOG_RESP	1907700	n/a	LTP144	ltpFR	4	3	1	VALLEY	1545	n/a	1	n/a	n/a	n/a	n/a	n/a
3816.688	n/a	RECOG_CONF	1908344	n/a	LTP144	ltpFR	4	3	1	VALLEY	1545	5	1	n/a	n/a	n/a	n/a	n/a
3818.628	n/a	RECOG_LURE	1909314	n/a	LTP144	ltpFR	4	3	n/a	CONVICT	371	5	n/a	n/a	n/a	n/a	n/a	n/a
3819.442	n/a	RECOG_RESP	1909721	n/a	LTP144	ltpFR	4	3	n/a	CONVICT	371	n/a	n/a	n/a	n/a	n/a	n/a	n/a
3820.45	n/a	RECOG_CONF	1910225	n/a	LTP144	ltpFR	4	3	n/a	CONVICT	371	5	n/a	n/a	n/a	n/a	n/a	n/a
3822.062	n/a	RECOG_TARGET	1911031	n/a	LTP144	ltpFR	4	3	0	AIRPLANE	12	5	1	n/a	n/a	n/a	n/a	n/a
3823.156	n/a	RECOG_RESP	1911578	n/a	LTP144	ltpFR	4	3	0	AIRPLANE	12	n/a	1	n/a	n/a	n/a	n/a	n/a
3824.432	n/a	RECOG_CONF	1912216	n/a	LTP144	ltpFR	4	3	0	AIRPLANE	12	5	1	n/a	n/a	n/a	n/a	n/a
3825.902	n/a	RECOG_TARGET	1912951	n/a	LTP144	ltpFR	4	3	-1	DWARF	510	5	-1	n/a	n/a	n/a	n/a	n/a
3826.682	n/a	RECOG_RESP	1913341	n/a	LTP144	ltpFR	4	3	-1	DWARF	510	n/a	-1	n/a	n/a	n/a	n/a	n/a
3827.906	n/a	RECOG_CONF	1913953	n/a	LTP144	ltpFR	4	3	-1	DWARF	510	5	-1	n/a	n/a	n/a	n/a	n/a
3829.5	n/a	RECOG_TARGET	1914750	n/a	LTP144	ltpFR	4	3	1	RIDER	1191	5	1	n/a	n/a	n/a	n/a	n/a
3830.668	n/a	RECOG_RESP	1915334	n/a	LTP144	ltpFR	4	3	1	RIDER	1191	n/a	1	n/a	n/a	n/a	n/a	n/a
3832.318	n/a	RECOG_CONF	1916159	n/a	LTP144	ltpFR	4	3	1	RIDER	1191	5	1	n/a	n/a	n/a	n/a	n/a
3833.916	n/a	RECOG_TARGET	1916958	n/a	LTP144	ltpFR	4	3	1	FIREMAN	569	5	1	n/a	n/a	n/a	n/a	n/a
3834.932	n/a	RECOG_RESP	1917466	n/a	LTP144	ltpFR	4	3	1	FIREMAN	569	n/a	1	n/a	n/a	n/a	n/a	n/a
3835.99	n/a	RECOG_CONF	1917995	n/a	LTP144	ltpFR	4	3	1	FIREMAN	569	5	1	n/a	n/a	n/a	n/a	n/a
3837.64	n/a	RECOG_TARGET	1918820	n/a	LTP144	ltpFR	4	3	1	CITIZEN	312	5	1	n/a	n/a	n/a	n/a	n/a
3838.478	n/a	RECOG_RESP	1919239	n/a	LTP144	ltpFR	4	3	1	CITIZEN	312	n/a	1	n/a	n/a	n/a	n/a	n/a
3839.526	n/a	RECOG_CONF	1919763	n/a	LTP144	ltpFR	4	3	1	CITIZEN	312	5	1	n/a	n/a	n/a	n/a	n/a
3841.064	n/a	RECOG_TARGET	1920532	n/a	LTP144	ltpFR	4	3	-1	TRUMPET	1513	3	-1	n/a	n/a	n/a	n/a	n/a
3842.204	n/a	RECOG_RESP	1921102	n/a	LTP144	ltpFR	4	3	-1	TRUMPET	1513	n/a	-1	n/a	n/a	n/a	n/a	n/a
3843.412	n/a	RECOG_CONF	1921706	n/a	LTP144	ltpFR	4	3	-1	TRUMPET	1513	3	-1	n/a	n/a	n/a	n/a	n/a
3844.888	n/a	RECOG_TARGET	1922444	n/a	LTP144	ltpFR	4	3	-1	MECHANIC	884	3	-1	n/a	n/a	n/a	n/a	n/a
3846.812	n/a	RECOG_RESP	1923406	n/a	LTP144	ltpFR	4	3	-1	MECHANIC	884	n/a	-1	n/a	n/a	n/a	n/a	n/a
3848.258	n/a	RECOG_CONF	1924129	n/a	LTP144	ltpFR	4	3	-1	MECHANIC	884	3	-1	n/a	n/a	n/a	n/a	n/a
3849.712	n/a	RECOG_TARGET	1924856	n/a	LTP144	ltpFR	4	3	1	LETTUCE	814	5	0	n/a	n/a	n/a	n/a	n/a
3850.644	n/a	RECOG_RESP	1925322	n/a	LTP144	ltpFR	4	3	1	LETTUCE	814	n/a	0	n/a	n/a	n/a	n/a	n/a
3852.16	n/a	RECOG_CONF	1926080	n/a	LTP144	ltpFR	4	3	1	LETTUCE	814	5	0	n/a	n/a	n/a	n/a	n/a
3853.71	n/a	RECOG_TARGET	1926855	n/a	LTP144	ltpFR	4	3	1	DEER	444	5	1	n/a	n/a	n/a	n/a	n/a
3854.502	n/a	RECOG_RESP	1927251	n/a	LTP144	ltpFR	4	3	1	DEER	444	n/a	1	n/a	n/a	n/a	n/a	n/a
3855.582	n/a	RECOG_CONF	1927791	n/a	LTP144	ltpFR	4	3	1	DEER	444	5	1	n/a	n/a	n/a	n/a	n/a
3870.528	n/a	REC_START	1935264	n/a	LTP144	ltpFR	4	4	n/a	n/a	n/a	n/a	n/a	n/a	n/a	n/a	n/a	n/a
3870.564	n/a	RECOG_TARGET	1935282	n/a	LTP144	ltpFR	4	4	-1	OFFICER	973	3	-1	n/a	n/a	n/a	n/a	n/a
3871.548	n/a	RECOG_RESP	1935774	n/a	LTP144	ltpFR	4	4	-1	OFFICER	973	n/a	-1	n/a	n/a	n/a	n/a	n/a
3873.084	n/a	RECOG_CONF	1936542	n/a	LTP144	ltpFR	4	4	-1	OFFICER	973	3	-1	n/a	n/a	n/a	n/a	n/a
3874.612	n/a	RECOG_TARGET	1937306	n/a	LTP144	ltpFR	4	4	1	MANAGER	863	1	1	n/a	n/a	n/a	n/a	n/a
3876.97	n/a	RECOG_RESP	1938485	n/a	LTP144	ltpFR	4	4	1	MANAGER	863	n/a	1	n/a	n/a	n/a	n/a	n/a
3878.294	n/a	RECOG_CONF	1939147	n/a	LTP144	ltpFR	4	4	1	MANAGER	863	1	1	n/a	n/a	n/a	n/a	n/a
3879.878	n/a	RECOG_TARGET	1939939	n/a	LTP144	ltpFR	4	4	0	DONKEY	484	3	1	n/a	n/a	n/a	n/a	n/a
3881.3	n/a	RECOG_RESP	1940650	n/a	LTP144	ltpFR	4	4	0	DONKEY	484	n/a	1	n/a	n/a	n/a	n/a	n/a
3882.856	n/a	RECOG_CONF	1941428	n/a	LTP144	ltpFR	4	4	0	DONKEY	484	3	1	n/a	n/a	n/a	n/a	n/a
3884.368	n/a	RECOG_TARGET	1942184	n/a	LTP144	ltpFR	4	4	1	TYPEWRITER	1531	4	0	n/a	n/a	n/a	n/a	n/a
3885.274	n/a	RECOG_RESP	1942637	n/a	LTP144	ltpFR	4	4	1	TYPEWRITER	1531	n/a	0	n/a	n/a	n/a	n/a	n/a
3886.32	n/a	RECOG_CONF	1943160	n/a	LTP144	ltpFR	4	4	1	TYPEWRITER	1531	4	0	n/a	n/a	n/a	n/a	n/a
3887.792	n/a	RECOG_TARGET	1943896	n/a	LTP144	ltpFR	4	4	0	MOTORCYCLE	923	5	1	n/a	n/a	n/a	n/a	n/a
3888.574	n/a	RECOG_RESP	1944287	n/a	LTP144	ltpFR	4	4	0	MOTORCYCLE	923	n/a	1	n/a	n/a	n/a	n/a	n/a
3889.486	n/a	RECOG_CONF	1944743	n/a	LTP144	ltpFR	4	4	0	MOTORCYCLE	923	5	1	n/a	n/a	n/a	n/a	n/a
3891.008	n/a	RECOG_LURE	1945504	n/a	LTP144	ltpFR	4	4	n/a	BIBLE	124	5	n/a	n/a	n/a	n/a	n/a	n/a
3891.792	n/a	RECOG_RESP	1945896	n/a	LTP144	ltpFR	4	4	n/a	BIBLE	124	n/a	n/a	n/a	n/a	n/a	n/a	n/a
3892.694	n/a	RECOG_CONF	1946347	n/a	LTP144	ltpFR	4	4	n/a	BIBLE	124	5	n/a	n/a	n/a	n/a	n/a	n/a
3894.248	n/a	RECOG_LURE	1947124	n/a	LTP144	ltpFR	4	4	n/a	BANDAGE	79	2	n/a	n/a	n/a	n/a	n/a	n/a
3895.258	n/a	RECOG_RESP	1947629	n/a	LTP144	ltpFR	4	4	n/a	BANDAGE	79	n/a	n/a	n/a	n/a	n/a	n/a	n/a
3896.374	n/a	RECOG_CONF	1948187	n/a	LTP144	ltpFR	4	4	n/a	BANDAGE	79	2	n/a	n/a	n/a	n/a	n/a	n/a
3897.856	n/a	RECOG_TARGET	1948928	n/a	LTP144	ltpFR	4	4	0	WAX	1597	5	0	n/a	n/a	n/a	n/a	n/a
3898.808	n/a	RECOG_RESP	1949404	n/a	LTP144	ltpFR	4	4	0	WAX	1597	n/a	0	n/a	n/a	n/a	n/a	n/a
3900.148	n/a	RECOG_CONF	1950074	n/a	LTP144	ltpFR	4	4	0	WAX	1597	5	0	n/a	n/a	n/a	n/a	n/a
3901.712	n/a	RECOG_TARGET	1950856	n/a	LTP144	ltpFR	4	4	0	DRILL	497	3	1	n/a	n/a	n/a	n/a	n/a
3903.772	n/a	RECOG_RESP	1951886	n/a	LTP144	ltpFR	4	4	0	DRILL	497	n/a	1	n/a	n/a	n/a	n/a	n/a
3905.052	n/a	RECOG_CONF	1952526	n/a	LTP144	ltpFR	4	4	0	DRILL	497	3	1	n/a	n/a	n/a	n/a	n/a
3906.436	n/a	RECOG_TARGET	1953218	n/a	LTP144	ltpFR	4	4	-1	PUB	1135	4	-1	n/a	n/a	n/a	n/a	n/a
3907.278	n/a	RECOG_RESP	1953639	n/a	LTP144	ltpFR	4	4	-1	PUB	1135	n/a	-1	n/a	n/a	n/a	n/a	n/a
3908.326	n/a	RECOG_CONF	1954163	n/a	LTP144	ltpFR	4	4	-1	PUB	1135	4	-1	n/a	n/a	n/a	n/a	n/a
3909.718	n/a	RECOG_TARGET	1954859	n/a	LTP144	ltpFR	4	4	0	BASKET	95	5	1	n/a	n/a	n/a	n/a	n/a
3910.556	n/a	RECOG_RESP	1955278	n/a	LTP144	ltpFR	4	4	0	BASKET	95	n/a	1	n/a	n/a	n/a	n/a	n/a
3911.398	n/a	RECOG_CONF	1955699	n/a	LTP144	ltpFR	4	4	0	BASKET	95	5	1	n/a	n/a	n/a	n/a	n/a
3913.034	n/a	RECOG_TARGET	1956517	n/a	LTP144	ltpFR	4	4	-1	BEER	114	5	-1	n/a	n/a	n/a	n/a	n/a
3913.82	n/a	RECOG_RESP	1956910	n/a	LTP144	ltpFR	4	4	-1	BEER	114	n/a	-1	n/a	n/a	n/a	n/a	n/a
3914.794	n/a	RECOG_CONF	1957397	n/a	LTP144	ltpFR	4	4	-1	BEER	114	5	-1	n/a	n/a	n/a	n/a	n/a
3916.366	n/a	RECOG_TARGET	1958183	n/a	LTP144	ltpFR	4	4	-1	ASSISTANT	48	4	-1	n/a	n/a	n/a	n/a	n/a
3917.332	n/a	RECOG_RESP	1958666	n/a	LTP144	ltpFR	4	4	-1	ASSISTANT	48	n/a	-1	n/a	n/a	n/a	n/a	n/a
3918.5	n/a	RECOG_CONF	1959250	n/a	LTP144	ltpFR	4	4	-1	ASSISTANT	48	4	-1	n/a	n/a	n/a	n/a	n/a
3920.008	n/a	RECOG_TARGET	1960004	n/a	LTP144	ltpFR	4	4	-1	MAPLE	866	5	-1	n/a	n/a	n/a	n/a	n/a
3920.804	n/a	RECOG_RESP	1960402	n/a	LTP144	ltpFR	4	4	-1	MAPLE	866	n/a	-1	n/a	n/a	n/a	n/a	n/a
3921.928	n/a	RECOG_CONF	1960964	n/a	LTP144	ltpFR	4	4	-1	MAPLE	866	5	-1	n/a	n/a	n/a	n/a	n/a
3923.356	n/a	RECOG_TARGET	1961678	n/a	LTP144	ltpFR	4	4	0	FARM	552	5	1	n/a	n/a	n/a	n/a	n/a
3924.188	n/a	RECOG_RESP	1962094	n/a	LTP144	ltpFR	4	4	0	FARM	552	n/a	1	n/a	n/a	n/a	n/a	n/a
3925.136	n/a	RECOG_CONF	1962568	n/a	LTP144	ltpFR	4	4	0	FARM	552	5	1	n/a	n/a	n/a	n/a	n/a
3926.704	n/a	RECOG_TARGET	1963352	n/a	LTP144	ltpFR	4	4	1	CANOE	233	5	0	n/a	n/a	n/a	n/a	n/a
3928.228	n/a	RECOG_RESP	1964114	n/a	LTP144	ltpFR	4	4	1	CANOE	233	n/a	0	n/a	n/a	n/a	n/a	n/a
3930.096	n/a	RECOG_CONF	1965048	n/a	LTP144	ltpFR	4	4	1	CANOE	233	5	0	n/a	n/a	n/a	n/a	n/a
3931.612	n/a	RECOG_TARGET	1965806	n/a	LTP144	ltpFR	4	4	0	LIVER	833	5	1	n/a	n/a	n/a	n/a	n/a
3932.338	n/a	RECOG_RESP	1966169	n/a	LTP144	ltpFR	4	4	0	LIVER	833	n/a	1	n/a	n/a	n/a	n/a	n/a
3933.31	n/a	RECOG_CONF	1966655	n/a	LTP144	ltpFR	4	4	0	LIVER	833	5	1	n/a	n/a	n/a	n/a	n/a
3934.87	n/a	RECOG_LURE	1967435	n/a	LTP144	ltpFR	4	4	n/a	CASHEW	253	2	n/a	n/a	n/a	n/a	n/a	n/a
3936.604	n/a	RECOG_RESP	1968302	n/a	LTP144	ltpFR	4	4	n/a	CASHEW	253	n/a	n/a	n/a	n/a	n/a	n/a	n/a
3938.036	n/a	RECOG_CONF	1969018	n/a	LTP144	ltpFR	4	4	n/a	CASHEW	253	2	n/a	n/a	n/a	n/a	n/a	n/a
3939.484	n/a	RECOG_TARGET	1969742	n/a	LTP144	ltpFR	4	4	1	HUMAN	726	5	1	n/a	n/a	n/a	n/a	n/a
3940.372	n/a	RECOG_RESP	1970186	n/a	LTP144	ltpFR	4	4	1	HUMAN	726	n/a	1	n/a	n/a	n/a	n/a	n/a
3941.42	n/a	RECOG_CONF	1970710	n/a	LTP144	ltpFR	4	4	1	HUMAN	726	5	1	n/a	n/a	n/a	n/a	n/a
3942.942	n/a	RECOG_LURE	1971471	n/a	LTP144	ltpFR	4	4	n/a	CHEEK	287	4	n/a	n/a	n/a	n/a	n/a	n/a
3944.114	n/a	RECOG_RESP	1972057	n/a	LTP144	ltpFR	4	4	n/a	CHEEK	287	n/a	n/a	n/a	n/a	n/a	n/a	n/a
3945.164	n/a	RECOG_CONF	1972582	n/a	LTP144	ltpFR	4	4	n/a	CHEEK	287	4	n/a	n/a	n/a	n/a	n/a	n/a
3954.858	n/a	REC_START	1977429	n/a	LTP144	ltpFR	4	5	n/a	n/a	n/a	n/a	n/a	n/a	n/a	n/a	n/a	n/a
3954.896	n/a	RECOG_TARGET	1977448	n/a	LTP144	ltpFR	4	5	1	TELEPHONE	1445	2	0	n/a	n/a	n/a	n/a	n/a
3956.282	n/a	RECOG_RESP	1978141	n/a	LTP144	ltpFR	4	5	1	TELEPHONE	1445	n/a	0	n/a	n/a	n/a	n/a	n/a
3957.392	n/a	RECOG_CONF	1978696	n/a	LTP144	ltpFR	4	5	1	TELEPHONE	1445	2	0	n/a	n/a	n/a	n/a	n/a
3958.802	n/a	RECOG_TARGET	1979401	n/a	LTP144	ltpFR	4	5	1	COMPANION	357	5	1	n/a	n/a	n/a	n/a	n/a
3959.58	n/a	RECOG_RESP	1979790	n/a	LTP144	ltpFR	4	5	1	COMPANION	357	n/a	1	n/a	n/a	n/a	n/a	n/a
3960.79	n/a	RECOG_CONF	1980395	n/a	LTP144	ltpFR	4	5	1	COMPANION	357	5	1	n/a	n/a	n/a	n/a	n/a
3962.346	n/a	RECOG_TARGET	1981173	n/a	LTP144	ltpFR	4	5	0	DUSTPAN	509	4	0	n/a	n/a	n/a	n/a	n/a
3963.518	n/a	RECOG_RESP	1981759	n/a	LTP144	ltpFR	4	5	0	DUSTPAN	509	n/a	0	n/a	n/a	n/a	n/a	n/a
3964.952	n/a	RECOG_CONF	1982476	n/a	LTP144	ltpFR	4	5	0	DUSTPAN	509	4	0	n/a	n/a	n/a	n/a	n/a
3966.518	n/a	RECOG_TARGET	1983259	n/a	LTP144	ltpFR	4	5	1	MINER	896	5	1	n/a	n/a	n/a	n/a	n/a
3967.45	n/a	RECOG_RESP	1983725	n/a	LTP144	ltpFR	4	5	1	MINER	896	n/a	1	n/a	n/a	n/a	n/a	n/a
3968.474	n/a	RECOG_CONF	1984237	n/a	LTP144	ltpFR	4	5	1	MINER	896	5	1	n/a	n/a	n/a	n/a	n/a
3970.026	n/a	RECOG_TARGET	1985013	n/a	LTP144	ltpFR	4	5	1	BEEF	113	5	0	n/a	n/a	n/a	n/a	n/a
3971.782	n/a	RECOG_RESP	1985891	n/a	LTP144	ltpFR	4	5	1	BEEF	113	n/a	0	n/a	n/a	n/a	n/a	n/a
3973.534	n/a	RECOG_CONF	1986767	n/a	LTP144	ltpFR	4	5	1	BEEF	113	5	0	n/a	n/a	n/a	n/a	n/a
3974.974	n/a	RECOG_LURE	1987487	n/a	LTP144	ltpFR	4	5	n/a	CARROT	249	4	n/a	n/a	n/a	n/a	n/a	n/a
3976.062	n/a	RECOG_RESP	1988031	n/a	LTP144	ltpFR	4	5	n/a	CARROT	249	n/a	n/a	n/a	n/a	n/a	n/a	n/a
3977.498	n/a	RECOG_CONF	1988749	n/a	LTP144	ltpFR	4	5	n/a	CARROT	249	4	n/a	n/a	n/a	n/a	n/a	n/a
3979.166	n/a	RECOG_TARGET	1989583	n/a	LTP144	ltpFR	4	5	0	ANGEL	22	5	1	n/a	n/a	n/a	n/a	n/a
3980.224	n/a	RECOG_RESP	1990112	n/a	LTP144	ltpFR	4	5	0	ANGEL	22	n/a	1	n/a	n/a	n/a	n/a	n/a
3981.634	n/a	RECOG_CONF	1990817	n/a	LTP144	ltpFR	4	5	0	ANGEL	22	5	1	n/a	n/a	n/a	n/a	n/a
3983.148	n/a	RECOG_TARGET	1991574	n/a	LTP144	ltpFR	4	5	1	MANSION	864	5	0	n/a	n/a	n/a	n/a	n/a
3983.936	n/a	RECOG_RESP	1991968	n/a	LTP144	ltpFR	4	5	1	MANSION	864	n/a	0	n/a	n/a	n/a	n/a	n/a
3985.332	n/a	RECOG_CONF	1992666	n/a	LTP144	ltpFR	4	5	1	MANSION	864	5	0	n/a	n/a	n/a	n/a	n/a
3986.92	n/a	RECOG_TARGET	1993460	n/a	LTP144	ltpFR	4	5	0	FLAG	573	5	1	n/a	n/a	n/a	n/a	n/a
3988.648	n/a	RECOG_RESP	1994324	n/a	LTP144	ltpFR	4	5	0	FLAG	573	n/a	1	n/a	n/a	n/a	n/a	n/a
3989.854	n/a	RECOG_CONF	1994927	n/a	LTP144	ltpFR	4	5	0	FLAG	573	5	1	n/a	n/a	n/a	n/a	n/a
3991.526	n/a	RECOG_TARGET	1995763	n/a	LTP144	ltpFR	4	5	-1	DESK	452	2	-1	n/a	n/a	n/a	n/a	n/a
3993.676	n/a	RECOG_RESP	1996838	n/a	LTP144	ltpFR	4	5	-1	DESK	452	n/a	-1	n/a	n/a	n/a	n/a	n/a
3994.916	n/a	RECOG_CONF	1997458	n/a	LTP144	ltpFR	4	5	-1	DESK	452	2	-1	n/a	n/a	n/a	n/a	n/a
3996.432	n/a	RECOG_LURE	1998216	n/a	LTP144	ltpFR	4	5	n/a	HEEL	700	3	n/a	n/a	n/a	n/a	n/a	n/a
3997.41	n/a	RECOG_RESP	1998705	n/a	LTP144	ltpFR	4	5	n/a	HEEL	700	n/a	n/a	n/a	n/a	n/a	n/a	n/a
3998.768	n/a	RECOG_CONF	1999384	n/a	LTP144	ltpFR	4	5	n/a	HEEL	700	3	n/a	n/a	n/a	n/a	n/a	n/a
4000.234	n/a	RECOG_TARGET	2000117	n/a	LTP144	ltpFR	4	5	-1	COMET	353	2	-1	n/a	n/a	n/a	n/a	n/a
4001.34	n/a	RECOG_RESP	2000670	n/a	LTP144	ltpFR	4	5	-1	COMET	353	n/a	-1	n/a	n/a	n/a	n/a	n/a
4002.526	n/a	RECOG_CONF	2001263	n/a	LTP144	ltpFR	4	5	-1	COMET	353	2	-1	n/a	n/a	n/a	n/a	n/a
4004.032	n/a	RECOG_TARGET	2002016	n/a	LTP144	ltpFR	4	5	0	REGISTER	1180	3	0	n/a	n/a	n/a	n/a	n/a
4006.01	n/a	RECOG_RESP	2003005	n/a	LTP144	ltpFR	4	5	0	REGISTER	1180	n/a	0	n/a	n/a	n/a	n/a	n/a
4007.39	n/a	RECOG_CONF	2003695	n/a	LTP144	ltpFR	4	5	0	REGISTER	1180	3	0	n/a	n/a	n/a	n/a	n/a
4008.872	n/a	RECOG_TARGET	2004436	n/a	LTP144	ltpFR	4	5	-1	PATRIOT	1026	5	-1	n/a	n/a	n/a	n/a	n/a
4009.958	n/a	RECOG_RESP	2004979	n/a	LTP144	ltpFR	4	5	-1	PATRIOT	1026	n/a	-1	n/a	n/a	n/a	n/a	n/a
4011.064	n/a	RECOG_CONF	2005532	n/a	LTP144	ltpFR	4	5	-1	PATRIOT	1026	5	-1	n/a	n/a	n/a	n/a	n/a
4012.736	n/a	RECOG_TARGET	2006368	n/a	LTP144	ltpFR	4	5	-1	SOLDIER	1344	5	-1	n/a	n/a	n/a	n/a	n/a
4013.656	n/a	RECOG_RESP	2006828	n/a	LTP144	ltpFR	4	5	-1	SOLDIER	1344	n/a	-1	n/a	n/a	n/a	n/a	n/a
4014.976	n/a	RECOG_CONF	2007488	n/a	LTP144	ltpFR	4	5	-1	SOLDIER	1344	5	-1	n/a	n/a	n/a	n/a	n/a
4016.518	n/a	RECOG_TARGET	2008259	n/a	LTP144	ltpFR	4	5	1	CHEST	295	5	0	n/a	n/a	n/a	n/a	n/a
4017.826	n/a	RECOG_RESP	2008913	n/a	LTP144	ltpFR	4	5	1	CHEST	295	n/a	0	n/a	n/a	n/a	n/a	n/a
4019.144	n/a	RECOG_CONF	2009572	n/a	LTP144	ltpFR	4	5	1	CHEST	295	5	0	n/a	n/a	n/a	n/a	n/a
4020.702	n/a	RECOG_TARGET	2010351	n/a	LTP144	ltpFR	4	5	0	TWIG	1527	5	0	n/a	n/a	n/a	n/a	n/a
4021.496	n/a	RECOG_RESP	2010748	n/a	LTP144	ltpFR	4	5	0	TWIG	1527	n/a	0	n/a	n/a	n/a	n/a	n/a
4022.904	n/a	RECOG_CONF	2011452	n/a	LTP144	ltpFR	4	5	0	TWIG	1527	5	0	n/a	n/a	n/a	n/a	n/a
4024.474	n/a	RECOG_TARGET	2012237	n/a	LTP144	ltpFR	4	5	1	VOLUNTEER	1577	5	1	n/a	n/a	n/a	n/a	n/a
4025.214	n/a	RECOG_RESP	2012607	n/a	LTP144	ltpFR	4	5	1	VOLUNTEER	1577	n/a	1	n/a	n/a	n/a	n/a	n/a
4026.584	n/a	RECOG_CONF	2013292	n/a	LTP144	ltpFR	4	5	1	VOLUNTEER	1577	5	1	n/a	n/a	n/a	n/a	n/a
4028.05	n/a	RECOG_TARGET	2014025	n/a	LTP144	ltpFR	4	5	1	SIGNATURE	1306	5	0	n/a	n/a	n/a	n/a	n/a
4028.782	n/a	RECOG_RESP	2014391	n/a	LTP144	ltpFR	4	5	1	SIGNATURE	1306	n/a	0	n/a	n/a	n/a	n/a	n/a
4030.314	n/a	RECOG_CONF	2015157	n/a	LTP144	ltpFR	4	5	1	SIGNATURE	1306	5	0	n/a	n/a	n/a	n/a	n/a
4032.048	n/a	RECOG_TARGET	2016024	n/a	LTP144	ltpFR	4	5	0	SUGAR	1401	5	0	n/a	n/a	n/a	n/a	n/a
4032.806	n/a	RECOG_RESP	2016403	n/a	LTP144	ltpFR	4	5	0	SUGAR	1401	n/a	0	n/a	n/a	n/a	n/a	n/a
4033.982	n/a	RECOG_CONF	2016991	n/a	LTP144	ltpFR	4	5	0	SUGAR	1401	5	0	n/a	n/a	n/a	n/a	n/a
4042.112	n/a	REC_START	2021056	n/a	LTP144	ltpFR	4	6	n/a	n/a	n/a	n/a	n/a	n/a	n/a	n/a	n/a	n/a
4042.146	n/a	RECOG_TARGET	2021073	n/a	LTP144	ltpFR	4	6	1	MINK	897	5	1	n/a	n/a	n/a	n/a	n/a
4043.006	n/a	RECOG_RESP	2021503	n/a	LTP144	ltpFR	4	6	1	MINK	897	n/a	1	n/a	n/a	n/a	n/a	n/a
4044.1	n/a	RECOG_CONF	2022050	n/a	LTP144	ltpFR	4	6	1	MINK	897	5	1	n/a	n/a	n/a	n/a	n/a
4045.586	n/a	RECOG_TARGET	2022793	n/a	LTP144	ltpFR	4	6	0	ROSE	1212	5	1	n/a	n/a	n/a	n/a	n/a
4046.464	n/a	RECOG_RESP	2023232	n/a	LTP144	ltpFR	4	6	0	ROSE	1212	n/a	1	n/a	n/a	n/a	n/a	n/a
4047.742	n/a	RECOG_CONF	2023871	n/a	LTP144	ltpFR	4	6	0	ROSE	1212	5	1	n/a	n/a	n/a	n/a	n/a
4049.234	n/a	RECOG_TARGET	2024617	n/a	LTP144	ltpFR	4	6	0	KEEPER	769	5	1	n/a	n/a	n/a	n/a	n/a
4050.04	n/a	RECOG_RESP	2025020	n/a	LTP144	ltpFR	4	6	0	KEEPER	769	n/a	1	n/a	n/a	n/a	n/a	n/a
4051.326	n/a	RECOG_CONF	2025663	n/a	LTP144	ltpFR	4	6	0	KEEPER	769	5	1	n/a	n/a	n/a	n/a	n/a
4052.816	n/a	RECOG_TARGET	2026408	n/a	LTP144	ltpFR	4	6	0	FAUCET	555	5	0	n/a	n/a	n/a	n/a	n/a
4053.7	n/a	RECOG_RESP	2026850	n/a	LTP144	ltpFR	4	6	0	FAUCET	555	n/a	0	n/a	n/a	n/a	n/a	n/a
4055.258	n/a	RECOG_CONF	2027629	n/a	LTP144	ltpFR	4	6	0	FAUCET	555	5	0	n/a	n/a	n/a	n/a	n/a
4056.84	n/a	RECOG_TARGET	2028420	n/a	LTP144	ltpFR	4	6	0	SWING	1421	5	1	n/a	n/a	n/a	n/a	n/a
4057.824	n/a	RECOG_RESP	2028912	n/a	LTP144	ltpFR	4	6	0	SWING	1421	n/a	1	n/a	n/a	n/a	n/a	n/a
4059.29	n/a	RECOG_CONF	2029645	n/a	LTP144	ltpFR	4	6	0	SWING	1421	5	1	n/a	n/a	n/a	n/a	n/a
4060.822	n/a	RECOG_LURE	2030411	n/a	LTP144	ltpFR	4	6	n/a	WOUND	1624	3	n/a	n/a	n/a	n/a	n/a	n/a
4061.728	n/a	RECOG_RESP	2030864	n/a	LTP144	ltpFR	4	6	n/a	WOUND	1624	n/a	n/a	n/a	n/a	n/a	n/a	n/a
4063.206	n/a	RECOG_CONF	2031603	n/a	LTP144	ltpFR	4	6	n/a	WOUND	1624	3	n/a	n/a	n/a	n/a	n/a	n/a
4064.622	n/a	RECOG_TARGET	2032311	n/a	LTP144	ltpFR	4	6	1	DETECTIVE	454	5	1	n/a	n/a	n/a	n/a	n/a
4065.506	n/a	RECOG_RESP	2032753	n/a	LTP144	ltpFR	4	6	1	DETECTIVE	454	n/a	1	n/a	n/a	n/a	n/a	n/a
4066.772	n/a	RECOG_CONF	2033386	n/a	LTP144	ltpFR	4	6	1	DETECTIVE	454	5	1	n/a	n/a	n/a	n/a	n/a
4068.354	n/a	RECOG_LURE	2034177	n/a	LTP144	ltpFR	4	6	n/a	CORN	381	3	n/a	n/a	n/a	n/a	n/a	n/a
4069.52	n/a	RECOG_RESP	2034760	n/a	LTP144	ltpFR	4	6	n/a	CORN	381	n/a	n/a	n/a	n/a	n/a	n/a	n/a
4070.774	n/a	RECOG_CONF	2035387	n/a	LTP144	ltpFR	4	6	n/a	CORN	381	3	n/a	n/a	n/a	n/a	n/a	n/a
4072.344	n/a	RECOG_TARGET	2036172	n/a	LTP144	ltpFR	4	6	1	RUBY	1214	5	0	n/a	n/a	n/a	n/a	n/a
4073.152	n/a	RECOG_RESP	2036576	n/a	LTP144	ltpFR	4	6	1	RUBY	1214	n/a	0	n/a	n/a	n/a	n/a	n/a
4074.31	n/a	RECOG_CONF	2037155	n/a	LTP144	ltpFR	4	6	1	RUBY	1214	5	0	n/a	n/a	n/a	n/a	n/a
4075.902	n/a	RECOG_TARGET	2037951	n/a	LTP144	ltpFR	4	6	0	FUNGUS	614	5	0	n/a	n/a	n/a	n/a	n/a
4076.726	n/a	RECOG_RESP	2038363	n/a	LTP144	ltpFR	4	6	0	FUNGUS	614	n/a	0	n/a	n/a	n/a	n/a	n/a
4077.978	n/a	RECOG_CONF	2038989	n/a	LTP144	ltpFR	4	6	0	FUNGUS	614	5	0	n/a	n/a	n/a	n/a	n/a
4079.6	n/a	RECOG_TARGET	2039800	n/a	LTP144	ltpFR	4	6	0	PEPPER	1047	5	0	n/a	n/a	n/a	n/a	n/a
4080.384	n/a	RECOG_RESP	2040192	n/a	LTP144	ltpFR	4	6	0	PEPPER	1047	n/a	0	n/a	n/a	n/a	n/a	n/a
4081.504	n/a	RECOG_CONF	2040752	n/a	LTP144	ltpFR	4	6	0	PEPPER	1047	5	0	n/a	n/a	n/a	n/a	n/a
4083.1	n/a	RECOG_TARGET	2041550	n/a	LTP144	ltpFR	4	6	0	CANARY	227	4	0	n/a	n/a	n/a	n/a	n/a
4083.878	n/a	RECOG_RESP	2041939	n/a	LTP144	ltpFR	4	6	0	CANARY	227	n/a	0	n/a	n/a	n/a	n/a	n/a
4084.91	n/a	RECOG_CONF	2042455	n/a	LTP144	ltpFR	4	6	0	CANARY	227	4	0	n/a	n/a	n/a	n/a	n/a
4086.506	n/a	RECOG_LURE	2043253	n/a	LTP144	ltpFR	4	6	n/a	MALL	860	5	n/a	n/a	n/a	n/a	n/a	n/a
4087.354	n/a	RECOG_RESP	2043677	n/a	LTP144	ltpFR	4	6	n/a	MALL	860	n/a	n/a	n/a	n/a	n/a	n/a	n/a
4088.392	n/a	RECOG_CONF	2044196	n/a	LTP144	ltpFR	4	6	n/a	MALL	860	5	n/a	n/a	n/a	n/a	n/a	n/a
4089.956	n/a	RECOG_TARGET	2044978	n/a	LTP144	ltpFR	4	6	1	MAP	865	5	0	n/a	n/a	n/a	n/a	n/a
4090.762	n/a	RECOG_RESP	2045381	n/a	LTP144	ltpFR	4	6	1	MAP	865	n/a	0	n/a	n/a	n/a	n/a	n/a
4091.776	n/a	RECOG_CONF	2045888	n/a	LTP144	ltpFR	4	6	1	MAP	865	5	0	n/a	n/a	n/a	n/a	n/a
4093.512	n/a	RECOG_TARGET	2046756	n/a	LTP144	ltpFR	4	6	-1	CREW	406	5	-1	n/a	n/a	n/a	n/a	n/a
4096.208	n/a	RECOG_RESP	2048104	n/a	LTP144	ltpFR	4	6	-1	CREW	406	n/a	-1	n/a	n/a	n/a	n/a	n/a
4097.17	n/a	RECOG_CONF	2048585	n/a	LTP144	ltpFR	4	6	-1	CREW	406	5	-1	n/a	n/a	n/a	n/a	n/a
4098.778	n/a	RECOG_TARGET	2049389	n/a	LTP144	ltpFR	4	6	0	ZOO	1637	5	1	n/a	n/a	n/a	n/a	n/a
4100.144	n/a	RECOG_RESP	2050072	n/a	LTP144	ltpFR	4	6	0	ZOO	1637	n/a	1	n/a	n/a	n/a	n/a	n/a
4101.336	n/a	RECOG_CONF	2050668	n/a	LTP144	ltpFR	4	6	0	ZOO	1637	5	1	n/a	n/a	n/a	n/a	n/a
4102.96	n/a	RECOG_TARGET	2051480	n/a	LTP144	ltpFR	4	6	1	BRUNETTE	181	5	1	n/a	n/a	n/a	n/a	n/a
4104.054	n/a	RECOG_RESP	2052027	n/a	LTP144	ltpFR	4	6	1	BRUNETTE	181	n/a	1	n/a	n/a	n/a	n/a	n/a
4105.486	n/a	RECOG_CONF	2052743	n/a	LTP144	ltpFR	4	6	1	BRUNETTE	181	5	1	n/a	n/a	n/a	n/a	n/a
4107.118	n/a	RECOG_TARGET	2053559	n/a	LTP144	ltpFR	4	6	-1	BULLET	194	5	-1	n/a	n/a	n/a	n/a	n/a
4107.972	n/a	RECOG_RESP	2053986	n/a	LTP144	ltpFR	4	6	-1	BULLET	194	n/a	-1	n/a	n/a	n/a	n/a	n/a
4109.06	n/a	RECOG_CONF	2054530	n/a	LTP144	ltpFR	4	6	-1	BULLET	194	5	-1	n/a	n/a	n/a	n/a	n/a
4110.706	n/a	RECOG_TARGET	2055353	n/a	LTP144	ltpFR	4	6	0	MONEY	908	5	0	n/a	n/a	n/a	n/a	n/a
4111.624	n/a	RECOG_RESP	2055812	n/a	LTP144	ltpFR	4	6	0	MONEY	908	n/a	0	n/a	n/a	n/a	n/a	n/a
4112.616	n/a	RECOG_CONF	2056308	n/a	LTP144	ltpFR	4	6	0	MONEY	908	5	0	n/a	n/a	n/a	n/a	n/a
4114.15	n/a	RECOG_TARGET	2057075	n/a	LTP144	ltpFR	4	6	-1	SAXOPHONE	1240	5	-1	n/a	n/a	n/a	n/a	n/a
4115.316	n/a	RECOG_RESP	2057658	n/a	LTP144	ltpFR	4	6	-1	SAXOPHONE	1240	n/a	-1	n/a	n/a	n/a	n/a	n/a
4116.722	n/a	RECOG_CONF	2058361	n/a	LTP144	ltpFR	4	6	-1	SAXOPHONE	1240	5	-1	n/a	n/a	n/a	n/a	n/a
4139.38	n/a	REC_START	2069690	n/a	LTP144	ltpFR	4	7	n/a	n/a	n/a	n/a	n/a	n/a	n/a	n/a	n/a	n/a
4139.416	n/a	RECOG_TARGET	2069708	n/a	LTP144	ltpFR	4	7	0	HEAD	695	5	1	n/a	n/a	n/a	n/a	n/a
4140.286	n/a	RECOG_RESP	2070143	n/a	LTP144	ltpFR	4	7	0	HEAD	695	n/a	1	n/a	n/a	n/a	n/a	n/a
4141.372	n/a	RECOG_CONF	2070686	n/a	LTP144	ltpFR	4	7	0	HEAD	695	5	1	n/a	n/a	n/a	n/a	n/a
4143.024	n/a	RECOG_LURE	2071512	n/a	LTP144	ltpFR	4	7	n/a	SNAIL	1332	5	n/a	n/a	n/a	n/a	n/a	n/a
4143.852	n/a	RECOG_RESP	2071926	n/a	LTP144	ltpFR	4	7	n/a	SNAIL	1332	n/a	n/a	n/a	n/a	n/a	n/a	n/a
4144.838	n/a	RECOG_CONF	2072419	n/a	LTP144	ltpFR	4	7	n/a	SNAIL	1332	5	n/a	n/a	n/a	n/a	n/a	n/a
4146.488	n/a	RECOG_TARGET	2073244	n/a	LTP144	ltpFR	4	7	0	SEAT	1264	5	1	n/a	n/a	n/a	n/a	n/a
4147.614	n/a	RECOG_RESP	2073807	n/a	LTP144	ltpFR	4	7	0	SEAT	1264	n/a	1	n/a	n/a	n/a	n/a	n/a
4148.888	n/a	RECOG_CONF	2074444	n/a	LTP144	ltpFR	4	7	0	SEAT	1264	5	1	n/a	n/a	n/a	n/a	n/a
4150.57	n/a	RECOG_TARGET	2075285	n/a	LTP144	ltpFR	4	7	1	PASSAGE	1019	4	0	n/a	n/a	n/a	n/a	n/a
4151.832	n/a	RECOG_RESP	2075916	n/a	LTP144	ltpFR	4	7	1	PASSAGE	1019	n/a	0	n/a	n/a	n/a	n/a	n/a
4153.242	n/a	RECOG_CONF	2076621	n/a	LTP144	ltpFR	4	7	1	PASSAGE	1019	4	0	n/a	n/a	n/a	n/a	n/a
4154.836	n/a	RECOG_TARGET	2077418	n/a	LTP144	ltpFR	4	7	-1	SUITE	1404	5	-1	n/a	n/a	n/a	n/a	n/a
4155.644	n/a	RECOG_RESP	2077822	n/a	LTP144	ltpFR	4	7	-1	SUITE	1404	n/a	-1	n/a	n/a	n/a	n/a	n/a
4156.756	n/a	RECOG_CONF	2078378	n/a	LTP144	ltpFR	4	7	-1	SUITE	1404	5	-1	n/a	n/a	n/a	n/a	n/a
4158.442	n/a	RECOG_TARGET	2079221	n/a	LTP144	ltpFR	4	7	0	CAGE	218	5	1	n/a	n/a	n/a	n/a	n/a
4159.222	n/a	RECOG_RESP	2079611	n/a	LTP144	ltpFR	4	7	0	CAGE	218	n/a	1	n/a	n/a	n/a	n/a	n/a
4160.518	n/a	RECOG_CONF	2080259	n/a	LTP144	ltpFR	4	7	0	CAGE	218	5	1	n/a	n/a	n/a	n/a	n/a
4162.15	n/a	RECOG_TARGET	2081075	n/a	LTP144	ltpFR	4	7	1	SWEATER	1419	3	0	n/a	n/a	n/a	n/a	n/a
4164.19	n/a	RECOG_RESP	2082095	n/a	LTP144	ltpFR	4	7	1	SWEATER	1419	n/a	0	n/a	n/a	n/a	n/a	n/a
4165.83	n/a	RECOG_CONF	2082915	n/a	LTP144	ltpFR	4	7	1	SWEATER	1419	3	0	n/a	n/a	n/a	n/a	n/a
4167.324	n/a	RECOG_TARGET	2083662	n/a	LTP144	ltpFR	4	7	1	INSTRUCTOR	741	5	1	n/a	n/a	n/a	n/a	n/a
4168.534	n/a	RECOG_RESP	2084267	n/a	LTP144	ltpFR	4	7	1	INSTRUCTOR	741	n/a	1	n/a	n/a	n/a	n/a	n/a
4169.736	n/a	RECOG_CONF	2084868	n/a	LTP144	ltpFR	4	7	1	INSTRUCTOR	741	5	1	n/a	n/a	n/a	n/a	n/a
4171.316	n/a	RECOG_TARGET	2085658	n/a	LTP144	ltpFR	4	7	-1	BLUEPRINT	142	5	-1	n/a	n/a	n/a	n/a	n/a
4172.208	n/a	RECOG_RESP	2086104	n/a	LTP144	ltpFR	4	7	-1	BLUEPRINT	142	n/a	-1	n/a	n/a	n/a	n/a	n/a
4173.71	n/a	RECOG_CONF	2086855	n/a	LTP144	ltpFR	4	7	-1	BLUEPRINT	142	5	-1	n/a	n/a	n/a	n/a	n/a
4175.122	n/a	RECOG_TARGET	2087561	n/a	LTP144	ltpFR	4	7	1	HATCHET	691	5	0	n/a	n/a	n/a	n/a	n/a
4176.194	n/a	RECOG_RESP	2088097	n/a	LTP144	ltpFR	4	7	1	HATCHET	691	n/a	0	n/a	n/a	n/a	n/a	n/a
4177.62	n/a	RECOG_CONF	2088810	n/a	LTP144	ltpFR	4	7	1	HATCHET	691	5	0	n/a	n/a	n/a	n/a	n/a
4179.12	n/a	RECOG_TARGET	2089560	n/a	LTP144	ltpFR	4	7	-1	TUBA	1515	5	-1	n/a	n/a	n/a	n/a	n/a
4179.966	n/a	RECOG_RESP	2089983	n/a	LTP144	ltpFR	4	7	-1	TUBA	1515	n/a	-1	n/a	n/a	n/a	n/a	n/a
4181.088	n/a	RECOG_CONF	2090544	n/a	LTP144	ltpFR	4	7	-1	TUBA	1515	5	-1	n/a	n/a	n/a	n/a	n/a
4182.852	n/a	RECOG_TARGET	2091426	n/a	LTP144	ltpFR	4	7	-1	BOXER	160	3	-1	n/a	n/a	n/a	n/a	n/a
4184.284	n/a	RECOG_RESP	2092142	n/a	LTP144	ltpFR	4	7	-1	BOXER	160	n/a	-1	n/a	n/a	n/a	n/a	n/a
4185.81	n/a	RECOG_CONF	2092905	n/a	LTP144	ltpFR	4	7	-1	BOXER	160	3	-1	n/a	n/a	n/a	n/a	n/a
4187.45	n/a	RECOG_TARGET	2093725	n/a	LTP144	ltpFR	4	7	1	SHIP	1286	5	0	n/a	n/a	n/a	n/a	n/a
4188.234	n/a	RECOG_RESP	2094117	n/a	LTP144	ltpFR	4	7	1	SHIP	1286	n/a	0	n/a	n/a	n/a	n/a	n/a
4189.508	n/a	RECOG_CONF	2094754	n/a	LTP144	ltpFR	4	7	1	SHIP	1286	5	0	n/a	n/a	n/a	n/a	n/a
4191.326	n/a	RECOG_TARGET	2095663	n/a	LTP144	ltpFR	4	7	-1	DEPUTY	450	1	-1	n/a	n/a	n/a	n/a	n/a
4192.314	n/a	RECOG_RESP	2096157	n/a	LTP144	ltpFR	4	7	-1	DEPUTY	450	n/a	-1	n/a	n/a	n/a	n/a	n/a
4193.454	n/a	RECOG_CONF	2096727	n/a	LTP144	ltpFR	4	7	-1	DEPUTY	450	1	-1	n/a	n/a	n/a	n/a	n/a
4194.958	n/a	RECOG_TARGET	2097479	n/a	LTP144	ltpFR	4	7	0	MACARONI	851	5	0	n/a	n/a	n/a	n/a	n/a
4196.302	n/a	RECOG_RESP	2098151	n/a	LTP144	ltpFR	4	7	0	MACARONI	851	n/a	0	n/a	n/a	n/a	n/a	n/a
4197.476	n/a	RECOG_CONF	2098738	n/a	LTP144	ltpFR	4	7	0	MACARONI	851	5	0	n/a	n/a	n/a	n/a	n/a
4199.24	n/a	RECOG_TARGET	2099620	n/a	LTP144	ltpFR	4	7	1	CLIMBER	323	5	1	n/a	n/a	n/a	n/a	n/a
4199.968	n/a	RECOG_RESP	2099984	n/a	LTP144	ltpFR	4	7	1	CLIMBER	323	n/a	1	n/a	n/a	n/a	n/a	n/a
4201.004	n/a	RECOG_CONF	2100502	n/a	LTP144	ltpFR	4	7	1	CLIMBER	323	5	1	n/a	n/a	n/a	n/a	n/a
4202.638	n/a	RECOG_TARGET	2101319	n/a	LTP144	ltpFR	4	7	0	EYE	545	5	0	n/a	n/a	n/a	n/a	n/a
4203.392	n/a	RECOG_RESP	2101696	n/a	LTP144	ltpFR	4	7	0	EYE	545	n/a	0	n/a	n/a	n/a	n/a	n/a
4204.36	n/a	RECOG_CONF	2102180	n/a	LTP144	ltpFR	4	7	0	EYE	545	5	0	n/a	n/a	n/a	n/a	n/a
4206.52	n/a	RECOG_TARGET	2103260	n/a	LTP144	ltpFR	4	7	-1	PAW	1029	5	-1	n/a	n/a	n/a	n/a	n/a
4207.408	n/a	RECOG_RESP	2103704	n/a	LTP144	ltpFR	4	7	-1	PAW	1029	n/a	-1	n/a	n/a	n/a	n/a	n/a
4208.42	n/a	RECOG_CONF	2104210	n/a	LTP144	ltpFR	4	7	-1	PAW	1029	5	-1	n/a	n/a	n/a	n/a	n/a
4210.012	n/a	RECOG_TARGET	2105006	n/a	LTP144	ltpFR	4	7	1	OVAL	990	5	0	n/a	n/a	n/a	n/a	n/a
4211.282	n/a	RECOG_RESP	2105641	n/a	LTP144	ltpFR	4	7	1	OVAL	990	n/a	0	n/a	n/a	n/a	n/a	n/a
4212.534	n/a	RECOG_CONF	2106267	n/a	LTP144	ltpFR	4	7	1	OVAL	990	5	0	n/a	n/a	n/a	n/a	n/a
4214.218	n/a	RECOG_LURE	2107109	n/a	LTP144	ltpFR	4	7	n/a	PREACHER	1119	5	n/a	n/a	n/a	n/a	n/a	n/a
4215.142	n/a	RECOG_RESP	2107571	n/a	LTP144	ltpFR	4	7	n/a	PREACHER	1119	n/a	n/a	n/a	n/a	n/a	n/a	n/a
4216.124	n/a	RECOG_CONF	2108062	n/a	LTP144	ltpFR	4	7	n/a	PREACHER	1119	5	n/a	n/a	n/a	n/a	n/a	n/a
