onset	duration	trial_type	sample	stim_file	subject	experiment	session	trial	task	item_name	item_num	recog_resp	recog_conf	resp	color_r	color_g	color_b	case	font
317.848	n/a	SESS_START	158924	n/a	LTP208	ltpFR	3	n/a	n/a	n/a	n/a	1	3	n/a	n/a	n/a	n/a	n/a	n/a
434.496	n/a	WORD	217248	wordpools/wasnorm_wordpool_less_exclusions.txt	LTP208	ltpFR	3	1	0	COLONEL	348	0	n/a	3	0.422607421875	0.5869140625	0	upper	zerothre.ttf
437.01	n/a	KEY_MSG	218505	n/a	LTP208	ltpFR	3	1	n/a	n/a	n/a	n/a	n/a	n/a	n/a	n/a	n/a	n/a	n/a
439.656	n/a	WORD	219828	wordpools/wasnorm_wordpool_less_exclusions.txt	LTP208	ltpFR	3	1	0	UNIFORM	1539	n/a	n/a	1	0.422607421875	0.5869140625	0	upper	zerothre.ttf
443.782	n/a	WORD	221891	wordpools/wasnorm_wordpool_less_exclusions.txt	LTP208	ltpFR	3	1	0	PIGEON	1065	n/a	n/a	0	0.422607421875	0.5869140625	0	upper	zerothre.ttf
447.978	n/a	WORD	223989	wordpools/wasnorm_wordpool_less_exclusions.txt	LTP208	ltpFR	3	1	1	CABOOSE	214	n/a	n/a	1	0.57763671875	0.412841796875	1	lower	amplitud.ttf
451.94	n/a	WORD	225970	wordpools/wasnorm_wordpool_less_exclusions.txt	LTP208	ltpFR	3	1	1	BUS	201	n/a	n/a	0	0.57763671875	0.412841796875	1	lower	amplitud.ttf
456.1	n/a	WORD	228050	wordpools/wasnorm_wordpool_less_exclusions.txt	LTP208	ltpFR	3	1	0	FUGITIVE	612	n/a	n/a	1	0.422607421875	0.5869140625	0	upper	zerothre.ttf
460.01	n/a	WORD	230005	wordpools/wasnorm_wordpool_less_exclusions.txt	LTP208	ltpFR	3	1	0	PELICAN	1039	n/a	n/a	1	0.422607421875	0.5869140625	0	upper	zerothre.ttf
464.104	n/a	WORD	232052	wordpools/wasnorm_wordpool_less_exclusions.txt	LTP208	ltpFR	3	1	0	ICEBERG	731	n/a	n/a	1	0.422607421875	0.5869140625	0	upper	zerothre.ttf
468.266	n/a	WORD	234133	wordpools/wasnorm_wordpool_less_exclusions.txt	LTP208	ltpFR	3	1	0	WHEAT	1602	n/a	n/a	3	0.422607421875	0.5869140625	0	upper	zerothre.ttf
470.262	n/a	KEY_MSG	235131	n/a	LTP208	ltpFR	3	1	n/a	n/a	n/a	n/a	n/a	n/a	n/a	n/a	n/a	n/a	n/a
472.658	n/a	WORD	236329	wordpools/wasnorm_wordpool_less_exclusions.txt	LTP208	ltpFR	3	1	0	EAGLE	512	n/a	n/a	3	0.422607421875	0.5869140625	0	upper	zerothre.ttf
473.956	n/a	KEY_MSG	236978	n/a	LTP208	ltpFR	3	1	n/a	n/a	n/a	n/a	n/a	n/a	n/a	n/a	n/a	n/a	n/a
476.502	n/a	WORD	238251	wordpools/wasnorm_wordpool_less_exclusions.txt	LTP208	ltpFR	3	1	1	TONGUE	1479	n/a	n/a	1	0.57763671875	0.412841796875	1	lower	amplitud.ttf
480.662	n/a	WORD	240331	wordpools/wasnorm_wordpool_less_exclusions.txt	LTP208	ltpFR	3	1	1	JAW	751	n/a	n/a	1	0.57763671875	0.412841796875	1	lower	amplitud.ttf
484.59	n/a	WORD	242295	wordpools/wasnorm_wordpool_less_exclusions.txt	LTP208	ltpFR	3	1	1	SEED	1266	n/a	n/a	0	0.57763671875	0.412841796875	1	lower	amplitud.ttf
488.584	n/a	WORD	244292	wordpools/wasnorm_wordpool_less_exclusions.txt	LTP208	ltpFR	3	1	1	KITCHEN	778	n/a	n/a	1	0.57763671875	0.412841796875	1	lower	amplitud.ttf
492.628	n/a	WORD	246314	wordpools/wasnorm_wordpool_less_exclusions.txt	LTP208	ltpFR	3	1	1	SEAT	1264	n/a	n/a	0	0.57763671875	0.412841796875	1	lower	amplitud.ttf
496.572	n/a	WORD	248286	wordpools/wasnorm_wordpool_less_exclusions.txt	LTP208	ltpFR	3	1	1	CACTUS	215	n/a	n/a	1	0.57763671875	0.412841796875	1	lower	amplitud.ttf
502.348	n/a	REC_START	251174	n/a	LTP208	ltpFR	3	1	n/a	n/a	n/a	n/a	n/a	n/a	n/a	n/a	n/a	n/a	n/a
503.49	n/a	REC_WORD	251745	wordpools/wasnorm_wordpool_less_exclusions.txt	LTP208	ltpFR	3	1	1	CACTUS	215	n/a	n/a	1	n/a	n/a	n/a	n/a	n/a
504.872	n/a	REC_WORD	252436	wordpools/wasnorm_wordpool_less_exclusions.txt	LTP208	ltpFR	3	1	1	KITCHEN	778	n/a	n/a	1	n/a	n/a	n/a	n/a	n/a
505.71	n/a	REC_WORD	252855	wordpools/wasnorm_wordpool_less_exclusions.txt	LTP208	ltpFR	3	1	1	SEAT	1264	n/a	n/a	0	n/a	n/a	n/a	n/a	n/a
506.942	n/a	REC_WORD	253471	wordpools/wasnorm_wordpool_less_exclusions.txt	LTP208	ltpFR	3	1	0	PELICAN	1039	n/a	n/a	1	n/a	n/a	n/a	n/a	n/a
508.468	n/a	REC_WORD	254234	wordpools/wasnorm_wordpool_less_exclusions.txt	LTP208	ltpFR	3	1	0	COLONEL	348	n/a	n/a	3	n/a	n/a	n/a	n/a	n/a
517.418	n/a	REC_WORD	258709	wordpools/wasnorm_wordpool_less_exclusions.txt	LTP208	ltpFR	3	1	n/a	OCEAN	970	n/a	n/a	n/a	n/a	n/a	n/a	n/a	n/a
526.068	n/a	REC_WORD	263034	wordpools/wasnorm_wordpool_less_exclusions.txt	LTP208	ltpFR	3	1	0	PIGEON	1065	n/a	n/a	0	n/a	n/a	n/a	n/a	n/a
533.362	n/a	REC_WORD	266681	wordpools/wasnorm_wordpool_less_exclusions.txt	LTP208	ltpFR	3	1	n/a	CORN	381	n/a	n/a	n/a	n/a	n/a	n/a	n/a	n/a
544.212	n/a	REC_WORD	272106	wordpools/wasnorm_wordpool_less_exclusions.txt	LTP208	ltpFR	3	1	n/a	DOOR	486	n/a	n/a	n/a	n/a	n/a	n/a	n/a	n/a
582.428	n/a	WORD	291214	wordpools/wasnorm_wordpool_less_exclusions.txt	LTP208	ltpFR	3	2	1	PATRIOT	1026	n/a	n/a	1	0.57763671875	0.412841796875	1	lower	amplitud.ttf
586.522	n/a	WORD	293261	wordpools/wasnorm_wordpool_less_exclusions.txt	LTP208	ltpFR	3	2	1	CHIMPANZEE	302	n/a	n/a	1	0.57763671875	0.412841796875	1	lower	amplitud.ttf
590.45	n/a	WORD	295225	wordpools/wasnorm_wordpool_less_exclusions.txt	LTP208	ltpFR	3	2	1	GARLIC	624	n/a	n/a	0	0.57763671875	0.412841796875	1	lower	amplitud.ttf
594.394	n/a	WORD	297197	wordpools/wasnorm_wordpool_less_exclusions.txt	LTP208	ltpFR	3	2	1	PARSLEY	1016	n/a	n/a	0	0.57763671875	0.412841796875	1	lower	amplitud.ttf
598.388	n/a	WORD	299194	wordpools/wasnorm_wordpool_less_exclusions.txt	LTP208	ltpFR	3	2	0	LEAF	808	n/a	n/a	1	0.422607421875	0.5869140625	0	upper	zerothre.ttf
602.234	n/a	WORD	301117	wordpools/wasnorm_wordpool_less_exclusions.txt	LTP208	ltpFR	3	2	0	LANDSCAPE	799	n/a	n/a	1	0.422607421875	0.5869140625	0	upper	zerothre.ttf
606.178	n/a	WORD	303089	wordpools/wasnorm_wordpool_less_exclusions.txt	LTP208	ltpFR	3	2	0	SAILOR	1223	n/a	n/a	1	0.422607421875	0.5869140625	0	upper	zerothre.ttf
610.206	n/a	WORD	305103	wordpools/wasnorm_wordpool_less_exclusions.txt	LTP208	ltpFR	3	2	0	CLOWN	330	n/a	n/a	3	0.422607421875	0.5869140625	0	upper	zerothre.ttf
611.918	n/a	KEY_MSG	305959	n/a	LTP208	ltpFR	3	2	n/a	n/a	n/a	n/a	n/a	n/a	n/a	n/a	n/a	n/a	n/a
614.48	n/a	WORD	307240	wordpools/wasnorm_wordpool_less_exclusions.txt	LTP208	ltpFR	3	2	1	CANAL	226	n/a	n/a	0	0.57763671875	0.412841796875	1	lower	amplitud.ttf
618.542	n/a	WORD	309271	wordpools/wasnorm_wordpool_less_exclusions.txt	LTP208	ltpFR	3	2	1	PUDDLE	1140	n/a	n/a	0	0.57763671875	0.412841796875	1	lower	amplitud.ttf
622.402	n/a	WORD	311201	wordpools/wasnorm_wordpool_less_exclusions.txt	LTP208	ltpFR	3	2	1	LIMOUSINE	824	n/a	n/a	0	0.57763671875	0.412841796875	1	lower	amplitud.ttf
626.43	n/a	WORD	313215	wordpools/wasnorm_wordpool_less_exclusions.txt	LTP208	ltpFR	3	2	1	VEST	1559	n/a	n/a	0	0.57763671875	0.412841796875	1	lower	amplitud.ttf
630.358	n/a	WORD	315179	wordpools/wasnorm_wordpool_less_exclusions.txt	LTP208	ltpFR	3	2	0	POCKET	1093	n/a	n/a	0	0.422607421875	0.5869140625	0	upper	zerothre.ttf
634.334	n/a	WORD	317167	wordpools/wasnorm_wordpool_less_exclusions.txt	LTP208	ltpFR	3	2	0	ORNAMENT	985	n/a	n/a	0	0.422607421875	0.5869140625	0	upper	zerothre.ttf
638.396	n/a	WORD	319198	wordpools/wasnorm_wordpool_less_exclusions.txt	LTP208	ltpFR	3	2	0	PLANT	1083	n/a	n/a	0	0.422607421875	0.5869140625	0	upper	zerothre.ttf
642.556	n/a	WORD	321278	wordpools/wasnorm_wordpool_less_exclusions.txt	LTP208	ltpFR	3	2	0	CIRCUS	311	n/a	n/a	1	0.422607421875	0.5869140625	0	upper	zerothre.ttf
648.648	n/a	REC_START	324324	n/a	LTP208	ltpFR	3	2	n/a	n/a	n/a	n/a	n/a	n/a	n/a	n/a	n/a	n/a	n/a
649.7	n/a	REC_WORD	324850	wordpools/wasnorm_wordpool_less_exclusions.txt	LTP208	ltpFR	3	2	n/a	BIG	-1	n/a	n/a	n/a	n/a	n/a	n/a	n/a	n/a
650.494	n/a	REC_WORD	325247	wordpools/wasnorm_wordpool_less_exclusions.txt	LTP208	ltpFR	3	2	0	CIRCUS	311	n/a	n/a	1	n/a	n/a	n/a	n/a	n/a
651.58	n/a	REC_WORD	325790	wordpools/wasnorm_wordpool_less_exclusions.txt	LTP208	ltpFR	3	2	0	PLANT	1083	n/a	n/a	0	n/a	n/a	n/a	n/a	n/a
652.888	n/a	REC_WORD	326444	wordpools/wasnorm_wordpool_less_exclusions.txt	LTP208	ltpFR	3	2	0	LEAF	808	n/a	n/a	1	n/a	n/a	n/a	n/a	n/a
654.18	n/a	REC_WORD	327090	wordpools/wasnorm_wordpool_less_exclusions.txt	LTP208	ltpFR	3	2	0	ORNAMENT	985	n/a	n/a	0	n/a	n/a	n/a	n/a	n/a
656.5	n/a	REC_WORD	328250	wordpools/wasnorm_wordpool_less_exclusions.txt	LTP208	ltpFR	3	2	0	CLOWN	330	n/a	n/a	3	n/a	n/a	n/a	n/a	n/a
660.874	n/a	REC_WORD	330437	wordpools/wasnorm_wordpool_less_exclusions.txt	LTP208	ltpFR	3	2	1	CHIMPANZEE	302	n/a	n/a	1	n/a	n/a	n/a	n/a	n/a
661.874	n/a	REC_WORD_VV	330937	wordpools/wasnorm_wordpool_less_exclusions.txt	LTP208	ltpFR	3	2	n/a	<>	-1	n/a	n/a	n/a	n/a	n/a	n/a	n/a	n/a
673.482	n/a	REC_WORD	336741	wordpools/wasnorm_wordpool_less_exclusions.txt	LTP208	ltpFR	3	2	0	LEAF	808	n/a	n/a	1	n/a	n/a	n/a	n/a	n/a
675.626	n/a	REC_WORD	337813	wordpools/wasnorm_wordpool_less_exclusions.txt	LTP208	ltpFR	3	2	0	LANDSCAPE	799	n/a	n/a	1	n/a	n/a	n/a	n/a	n/a
678.25	n/a	REC_WORD	339125	wordpools/wasnorm_wordpool_less_exclusions.txt	LTP208	ltpFR	3	2	1	VEST	1559	n/a	n/a	0	n/a	n/a	n/a	n/a	n/a
679.384	n/a	REC_WORD	339692	wordpools/wasnorm_wordpool_less_exclusions.txt	LTP208	ltpFR	3	2	0	POCKET	1093	n/a	n/a	0	n/a	n/a	n/a	n/a	n/a
688.872	n/a	REC_WORD	344436	wordpools/wasnorm_wordpool_less_exclusions.txt	LTP208	ltpFR	3	2	0	CIRCUS	311	n/a	n/a	1	n/a	n/a	n/a	n/a	n/a
696.364	n/a	REC_WORD	348182	wordpools/wasnorm_wordpool_less_exclusions.txt	LTP208	ltpFR	3	2	0	CLOWN	330	n/a	n/a	3	n/a	n/a	n/a	n/a	n/a
727.73	n/a	WORD	363865	wordpools/wasnorm_wordpool_less_exclusions.txt	LTP208	ltpFR	3	3	0	SICKLE	1302	n/a	n/a	3	0.422607421875	0.5869140625	0	upper	zerothre.ttf
729.128	n/a	KEY_MSG	364564	n/a	LTP208	ltpFR	3	3	n/a	n/a	n/a	n/a	n/a	n/a	n/a	n/a	n/a	n/a	n/a
731.906	n/a	WORD	365953	wordpools/wasnorm_wordpool_less_exclusions.txt	LTP208	ltpFR	3	3	0	SHED	1277	n/a	n/a	1	0.422607421875	0.5869140625	0	upper	zerothre.ttf
735.75	n/a	WORD	367875	wordpools/wasnorm_wordpool_less_exclusions.txt	LTP208	ltpFR	3	3	0	GRAVEL	659	n/a	n/a	0	0.422607421875	0.5869140625	0	upper	zerothre.ttf
739.878	n/a	WORD	369939	wordpools/wasnorm_wordpool_less_exclusions.txt	LTP208	ltpFR	3	3	0	TAR	1435	n/a	n/a	1	0.422607421875	0.5869140625	0	upper	zerothre.ttf
744.058	n/a	WORD	372029	wordpools/wasnorm_wordpool_less_exclusions.txt	LTP208	ltpFR	3	3	0	SEAGULL	1261	n/a	n/a	1	0.422607421875	0.5869140625	0	upper	zerothre.ttf
748.184	n/a	WORD	374092	wordpools/wasnorm_wordpool_less_exclusions.txt	LTP208	ltpFR	3	3	0	PORCH	1106	n/a	n/a	1	0.422607421875	0.5869140625	0	upper	zerothre.ttf
752.196	n/a	WORD	376098	wordpools/wasnorm_wordpool_less_exclusions.txt	LTP208	ltpFR	3	3	0	FIELD	562	n/a	n/a	1	0.422607421875	0.5869140625	0	upper	zerothre.ttf
756.022	n/a	WORD	378011	wordpools/wasnorm_wordpool_less_exclusions.txt	LTP208	ltpFR	3	3	0	OATS	968	n/a	n/a	0	0.422607421875	0.5869140625	0	upper	zerothre.ttf
759.9	n/a	WORD	379950	wordpools/wasnorm_wordpool_less_exclusions.txt	LTP208	ltpFR	3	3	0	NEST	945	n/a	n/a	0	0.422607421875	0.5869140625	0	upper	zerothre.ttf
764.028	n/a	WORD	382014	wordpools/wasnorm_wordpool_less_exclusions.txt	LTP208	ltpFR	3	3	0	ROOT	1210	n/a	n/a	0	0.422607421875	0.5869140625	0	upper	zerothre.ttf
768.172	n/a	WORD	384086	wordpools/wasnorm_wordpool_less_exclusions.txt	LTP208	ltpFR	3	3	0	PLASTER	1085	n/a	n/a	0	0.422607421875	0.5869140625	0	upper	zerothre.ttf
772.098	n/a	WORD	386049	wordpools/wasnorm_wordpool_less_exclusions.txt	LTP208	ltpFR	3	3	0	PUPPY	1144	n/a	n/a	1	0.422607421875	0.5869140625	0	upper	zerothre.ttf
776.01	n/a	WORD	388005	wordpools/wasnorm_wordpool_less_exclusions.txt	LTP208	ltpFR	3	3	0	CORN	381	n/a	n/a	0	0.422607421875	0.5869140625	0	upper	zerothre.ttf
779.986	n/a	WORD	389993	wordpools/wasnorm_wordpool_less_exclusions.txt	LTP208	ltpFR	3	3	0	POOL	1103	n/a	n/a	1	0.422607421875	0.5869140625	0	upper	zerothre.ttf
784.064	n/a	WORD	392032	wordpools/wasnorm_wordpool_less_exclusions.txt	LTP208	ltpFR	3	3	0	MOWER	928	n/a	n/a	1	0.422607421875	0.5869140625	0	upper	zerothre.ttf
787.89	n/a	WORD	393945	wordpools/wasnorm_wordpool_less_exclusions.txt	LTP208	ltpFR	3	3	0	WEED	1599	n/a	n/a	0	0.422607421875	0.5869140625	0	upper	zerothre.ttf
793.482	n/a	REC_START	396741	n/a	LTP208	ltpFR	3	3	n/a	n/a	n/a	n/a	n/a	n/a	n/a	n/a	n/a	n/a	n/a
794.032	n/a	REC_WORD	397016	wordpools/wasnorm_wordpool_less_exclusions.txt	LTP208	ltpFR	3	3	0	WEED	1599	n/a	n/a	0	n/a	n/a	n/a	n/a	n/a
794.814	n/a	REC_WORD	397407	wordpools/wasnorm_wordpool_less_exclusions.txt	LTP208	ltpFR	3	3	0	GRAVEL	659	n/a	n/a	0	n/a	n/a	n/a	n/a	n/a
796.52	n/a	REC_WORD	398260	wordpools/wasnorm_wordpool_less_exclusions.txt	LTP208	ltpFR	3	3	0	POOL	1103	n/a	n/a	1	n/a	n/a	n/a	n/a	n/a
803.334	n/a	REC_WORD	401667	wordpools/wasnorm_wordpool_less_exclusions.txt	LTP208	ltpFR	3	3	0	CORN	381	n/a	n/a	0	n/a	n/a	n/a	n/a	n/a
806.254	n/a	REC_WORD	403127	wordpools/wasnorm_wordpool_less_exclusions.txt	LTP208	ltpFR	3	3	0	WHEAT	1602	n/a	n/a	3	n/a	n/a	n/a	n/a	n/a
807.974	n/a	REC_WORD	403987	wordpools/wasnorm_wordpool_less_exclusions.txt	LTP208	ltpFR	3	3	0	OATS	968	n/a	n/a	0	n/a	n/a	n/a	n/a	n/a
810.838	n/a	REC_WORD	405419	wordpools/wasnorm_wordpool_less_exclusions.txt	LTP208	ltpFR	3	3	0	GRAVEL	659	n/a	n/a	0	n/a	n/a	n/a	n/a	n/a
812.31	n/a	REC_WORD	406155	wordpools/wasnorm_wordpool_less_exclusions.txt	LTP208	ltpFR	3	3	0	SICKLE	1302	n/a	n/a	3	n/a	n/a	n/a	n/a	n/a
813.682	n/a	REC_WORD	406841	wordpools/wasnorm_wordpool_less_exclusions.txt	LTP208	ltpFR	3	3	0	SEAGULL	1261	n/a	n/a	1	n/a	n/a	n/a	n/a	n/a
818.74	n/a	REC_WORD	409370	wordpools/wasnorm_wordpool_less_exclusions.txt	LTP208	ltpFR	3	3	n/a	YARD	1630	n/a	n/a	n/a	n/a	n/a	n/a	n/a	n/a
830.458	n/a	REC_WORD	415229	wordpools/wasnorm_wordpool_less_exclusions.txt	LTP208	ltpFR	3	3	n/a	BLADE	134	n/a	n/a	n/a	n/a	n/a	n/a	n/a	n/a
839.744	n/a	REC_WORD	419872	wordpools/wasnorm_wordpool_less_exclusions.txt	LTP208	ltpFR	3	3	0	PUPPY	1144	n/a	n/a	1	n/a	n/a	n/a	n/a	n/a
878.324	n/a	WORD	439162	wordpools/wasnorm_wordpool_less_exclusions.txt	LTP208	ltpFR	3	4	0	WHALE	1601	n/a	n/a	1	0.422607421875	0.5869140625	0	upper	zerothre.ttf
882.268	n/a	WORD	441134	wordpools/wasnorm_wordpool_less_exclusions.txt	LTP208	ltpFR	3	4	0	RICE	1190	n/a	n/a	0	0.422607421875	0.5869140625	0	upper	zerothre.ttf
886.096	n/a	WORD	443048	wordpools/wasnorm_wordpool_less_exclusions.txt	LTP208	ltpFR	3	4	0	ANIMAL	23	n/a	n/a	1	0.422607421875	0.5869140625	0	upper	zerothre.ttf
890.04	n/a	WORD	445020	wordpools/wasnorm_wordpool_less_exclusions.txt	LTP208	ltpFR	3	4	0	FRAME	600	n/a	n/a	0	0.422607421875	0.5869140625	0	upper	zerothre.ttf
894.152	n/a	WORD	447076	wordpools/wasnorm_wordpool_less_exclusions.txt	LTP208	ltpFR	3	4	0	ARTICLE	42	n/a	n/a	0	0.422607421875	0.5869140625	0	upper	zerothre.ttf
898.178	n/a	WORD	449089	wordpools/wasnorm_wordpool_less_exclusions.txt	LTP208	ltpFR	3	4	0	SAXOPHONE	1240	n/a	n/a	1	0.422607421875	0.5869140625	0	upper	zerothre.ttf
902.24	n/a	WORD	451120	wordpools/wasnorm_wordpool_less_exclusions.txt	LTP208	ltpFR	3	4	0	COMB	351	n/a	n/a	0	0.422607421875	0.5869140625	0	upper	zerothre.ttf
906.234	n/a	WORD	453117	wordpools/wasnorm_wordpool_less_exclusions.txt	LTP208	ltpFR	3	4	0	KIWI	781	n/a	n/a	0	0.422607421875	0.5869140625	0	upper	zerothre.ttf
910.426	n/a	WORD	455213	wordpools/wasnorm_wordpool_less_exclusions.txt	LTP208	ltpFR	3	4	0	LETTUCE	814	n/a	n/a	0	0.422607421875	0.5869140625	0	upper	zerothre.ttf
914.272	n/a	WORD	457136	wordpools/wasnorm_wordpool_less_exclusions.txt	LTP208	ltpFR	3	4	0	PORTRAIT	1111	n/a	n/a	1	0.422607421875	0.5869140625	0	upper	zerothre.ttf
918.166	n/a	WORD	459083	wordpools/wasnorm_wordpool_less_exclusions.txt	LTP208	ltpFR	3	4	0	SEAL	1262	n/a	n/a	1	0.422607421875	0.5869140625	0	upper	zerothre.ttf
922.01	n/a	WORD	461005	wordpools/wasnorm_wordpool_less_exclusions.txt	LTP208	ltpFR	3	4	0	ISLAND	745	n/a	n/a	1	0.422607421875	0.5869140625	0	upper	zerothre.ttf
926.07	n/a	WORD	463035	wordpools/wasnorm_wordpool_less_exclusions.txt	LTP208	ltpFR	3	4	0	REEF	1177	n/a	n/a	1	0.422607421875	0.5869140625	0	upper	zerothre.ttf
930.198	n/a	WORD	465099	wordpools/wasnorm_wordpool_less_exclusions.txt	LTP208	ltpFR	3	4	0	LETTER	813	n/a	n/a	0	0.422607421875	0.5869140625	0	upper	zerothre.ttf
934.076	n/a	WORD	467038	wordpools/wasnorm_wordpool_less_exclusions.txt	LTP208	ltpFR	3	4	0	STAMP	1370	n/a	n/a	0	0.422607421875	0.5869140625	0	upper	zerothre.ttf
937.918	n/a	WORD	468959	wordpools/wasnorm_wordpool_less_exclusions.txt	LTP208	ltpFR	3	4	0	EWE	542	n/a	n/a	0	0.422607421875	0.5869140625	0	upper	zerothre.ttf
943.994	n/a	REC_START	471997	n/a	LTP208	ltpFR	3	4	n/a	n/a	n/a	n/a	n/a	n/a	n/a	n/a	n/a	n/a	n/a
944.484	n/a	REC_WORD	472242	wordpools/wasnorm_wordpool_less_exclusions.txt	LTP208	ltpFR	3	4	0	EWE	542	n/a	n/a	0	n/a	n/a	n/a	n/a	n/a
945.212	n/a	REC_WORD	472606	wordpools/wasnorm_wordpool_less_exclusions.txt	LTP208	ltpFR	3	4	0	STAMP	1370	n/a	n/a	0	n/a	n/a	n/a	n/a	n/a
946.23	n/a	REC_WORD	473115	wordpools/wasnorm_wordpool_less_exclusions.txt	LTP208	ltpFR	3	4	0	LETTER	813	n/a	n/a	0	n/a	n/a	n/a	n/a	n/a
947.396	n/a	REC_WORD	473698	wordpools/wasnorm_wordpool_less_exclusions.txt	LTP208	ltpFR	3	4	0	REEF	1177	n/a	n/a	1	n/a	n/a	n/a	n/a	n/a
949.636	n/a	REC_WORD	474818	wordpools/wasnorm_wordpool_less_exclusions.txt	LTP208	ltpFR	3	4	0	COMB	351	n/a	n/a	0	n/a	n/a	n/a	n/a	n/a
972.586	n/a	REC_WORD	486293	wordpools/wasnorm_wordpool_less_exclusions.txt	LTP208	ltpFR	3	4	0	ARTICLE	42	n/a	n/a	0	n/a	n/a	n/a	n/a	n/a
978.012	n/a	REC_WORD	489006	wordpools/wasnorm_wordpool_less_exclusions.txt	LTP208	ltpFR	3	4	n/a	LAND	-1	n/a	n/a	n/a	n/a	n/a	n/a	n/a	n/a
1023.758	n/a	WORD	511879	wordpools/wasnorm_wordpool_less_exclusions.txt	LTP208	ltpFR	3	5	-1	BRAN	167	n/a	n/a	-1	1.0	1.0	1	upper	Verdana.ttf
1027.786	n/a	WORD	513893	wordpools/wasnorm_wordpool_less_exclusions.txt	LTP208	ltpFR	3	5	-1	LIEUTENANT	818	n/a	n/a	-1	1.0	1.0	1	upper	Verdana.ttf
1031.762	n/a	WORD	515881	wordpools/wasnorm_wordpool_less_exclusions.txt	LTP208	ltpFR	3	5	-1	COMPASS	358	n/a	n/a	-1	1.0	1.0	1	upper	Verdana.ttf
1035.84	n/a	WORD	517920	wordpools/wasnorm_wordpool_less_exclusions.txt	LTP208	ltpFR	3	5	-1	POND	1101	n/a	n/a	-1	1.0	1.0	1	upper	Verdana.ttf
1039.884	n/a	WORD	519942	wordpools/wasnorm_wordpool_less_exclusions.txt	LTP208	ltpFR	3	5	-1	GLACIER	638	n/a	n/a	-1	1.0	1.0	1	upper	Verdana.ttf
1043.846	n/a	WORD	521923	wordpools/wasnorm_wordpool_less_exclusions.txt	LTP208	ltpFR	3	5	-1	KEG	770	n/a	n/a	-1	1.0	1.0	1	upper	Verdana.ttf
1047.94	n/a	WORD	523970	wordpools/wasnorm_wordpool_less_exclusions.txt	LTP208	ltpFR	3	5	-1	PUB	1135	n/a	n/a	-1	1.0	1.0	1	upper	Verdana.ttf
1051.884	n/a	WORD	525942	wordpools/wasnorm_wordpool_less_exclusions.txt	LTP208	ltpFR	3	5	-1	SIRLOIN	1311	n/a	n/a	-1	1.0	1.0	1	upper	Verdana.ttf
1055.878	n/a	WORD	527939	wordpools/wasnorm_wordpool_less_exclusions.txt	LTP208	ltpFR	3	5	-1	SWING	1421	n/a	n/a	-1	1.0	1.0	1	upper	Verdana.ttf
1059.838	n/a	WORD	529919	wordpools/wasnorm_wordpool_less_exclusions.txt	LTP208	ltpFR	3	5	-1	FENCE	560	n/a	n/a	-1	1.0	1.0	1	upper	Verdana.ttf
1063.782	n/a	WORD	531891	wordpools/wasnorm_wordpool_less_exclusions.txt	LTP208	ltpFR	3	5	-1	DIGGER	464	n/a	n/a	-1	1.0	1.0	1	upper	Verdana.ttf
1067.644	n/a	WORD	533822	wordpools/wasnorm_wordpool_less_exclusions.txt	LTP208	ltpFR	3	5	-1	HOE	711	n/a	n/a	-1	1.0	1.0	1	upper	Verdana.ttf
1071.57	n/a	WORD	535785	wordpools/wasnorm_wordpool_less_exclusions.txt	LTP208	ltpFR	3	5	-1	FARMER	553	n/a	n/a	-1	1.0	1.0	1	upper	Verdana.ttf
1075.416	n/a	WORD	537708	wordpools/wasnorm_wordpool_less_exclusions.txt	LTP208	ltpFR	3	5	-1	ELEPHANT	523	n/a	n/a	-1	1.0	1.0	1	upper	Verdana.ttf
1079.608	n/a	WORD	539804	wordpools/wasnorm_wordpool_less_exclusions.txt	LTP208	ltpFR	3	5	-1	MILITARY	894	n/a	n/a	-1	1.0	1.0	1	upper	Verdana.ttf
1083.554	n/a	WORD	541777	wordpools/wasnorm_wordpool_less_exclusions.txt	LTP208	ltpFR	3	5	-1	GRILL	661	n/a	n/a	-1	1.0	1.0	1	upper	Verdana.ttf
1089.512	n/a	REC_START	544756	n/a	LTP208	ltpFR	3	5	n/a	n/a	n/a	n/a	n/a	n/a	n/a	n/a	n/a	n/a	n/a
1090.27	n/a	REC_WORD	545135	wordpools/wasnorm_wordpool_less_exclusions.txt	LTP208	ltpFR	3	5	-1	GRILL	661	n/a	n/a	-1	n/a	n/a	n/a	n/a	n/a
1091.396	n/a	REC_WORD	545698	wordpools/wasnorm_wordpool_less_exclusions.txt	LTP208	ltpFR	3	5	-1	LIEUTENANT	818	n/a	n/a	-1	n/a	n/a	n/a	n/a	n/a
1092.54	n/a	REC_WORD	546270	wordpools/wasnorm_wordpool_less_exclusions.txt	LTP208	ltpFR	3	5	0	COLONEL	348	n/a	n/a	3	n/a	n/a	n/a	n/a	n/a
1093.836	n/a	REC_WORD	546918	wordpools/wasnorm_wordpool_less_exclusions.txt	LTP208	ltpFR	3	5	-1	KEG	770	n/a	n/a	-1	n/a	n/a	n/a	n/a	n/a
1097.788	n/a	REC_WORD	548894	wordpools/wasnorm_wordpool_less_exclusions.txt	LTP208	ltpFR	3	5	-1	FARMER	553	n/a	n/a	-1	n/a	n/a	n/a	n/a	n/a
1099.224	n/a	REC_WORD	549612	wordpools/wasnorm_wordpool_less_exclusions.txt	LTP208	ltpFR	3	5	-1	HOE	711	n/a	n/a	-1	n/a	n/a	n/a	n/a	n/a
1111.196	n/a	REC_WORD	555598	wordpools/wasnorm_wordpool_less_exclusions.txt	LTP208	ltpFR	3	5	-1	DIGGER	464	n/a	n/a	-1	n/a	n/a	n/a	n/a	n/a
1115.268	n/a	REC_WORD	557634	wordpools/wasnorm_wordpool_less_exclusions.txt	LTP208	ltpFR	3	5	-1	ELEPHANT	523	n/a	n/a	-1	n/a	n/a	n/a	n/a	n/a
1145.978	n/a	REC_WORD	572989	wordpools/wasnorm_wordpool_less_exclusions.txt	LTP208	ltpFR	3	5	n/a	SOLDIER	1344	n/a	n/a	n/a	n/a	n/a	n/a	n/a	n/a
1168.51	n/a	WORD	584255	wordpools/wasnorm_wordpool_less_exclusions.txt	LTP208	ltpFR	3	6	1	PORCUPINE	1107	n/a	n/a	1	0.57763671875	0.412841796875	1	lower	amplitud.ttf
1172.388	n/a	WORD	586194	wordpools/wasnorm_wordpool_less_exclusions.txt	LTP208	ltpFR	3	6	1	FARM	552	n/a	n/a	0	0.57763671875	0.412841796875	1	lower	amplitud.ttf
1176.348	n/a	WORD	588174	wordpools/wasnorm_wordpool_less_exclusions.txt	LTP208	ltpFR	3	6	1	STAPLE	1371	n/a	n/a	0	0.57763671875	0.412841796875	1	lower	amplitud.ttf
1180.36	n/a	WORD	590180	wordpools/wasnorm_wordpool_less_exclusions.txt	LTP208	ltpFR	3	6	1	MAILBOX	857	n/a	n/a	0	0.57763671875	0.412841796875	1	lower	amplitud.ttf
1184.254	n/a	WORD	592127	wordpools/wasnorm_wordpool_less_exclusions.txt	LTP208	ltpFR	3	6	1	NOTE	958	n/a	n/a	0	0.57763671875	0.412841796875	1	lower	amplitud.ttf
1188.25	n/a	WORD	594125	wordpools/wasnorm_wordpool_less_exclusions.txt	LTP208	ltpFR	3	6	1	TURKEY	1520	n/a	n/a	1	0.57763671875	0.412841796875	1	lower	amplitud.ttf
1192.41	n/a	WORD	596205	wordpools/wasnorm_wordpool_less_exclusions.txt	LTP208	ltpFR	3	6	1	SUIT	1402	n/a	n/a	0	0.57763671875	0.412841796875	1	lower	amplitud.ttf
1196.386	n/a	WORD	598193	wordpools/wasnorm_wordpool_less_exclusions.txt	LTP208	ltpFR	3	6	1	PARIS	1014	n/a	n/a	0	0.57763671875	0.412841796875	1	lower	amplitud.ttf
1200.414	n/a	WORD	600207	wordpools/wasnorm_wordpool_less_exclusions.txt	LTP208	ltpFR	3	6	1	TAG	1429	n/a	n/a	0	0.57763671875	0.412841796875	1	lower	amplitud.ttf
1204.292	n/a	WORD	602146	wordpools/wasnorm_wordpool_less_exclusions.txt	LTP208	ltpFR	3	6	1	DESIGNER	451	n/a	n/a	1	0.57763671875	0.412841796875	1	lower	amplitud.ttf
1208.27	n/a	WORD	604135	wordpools/wasnorm_wordpool_less_exclusions.txt	LTP208	ltpFR	3	6	1	PAPER	1011	n/a	n/a	0	0.57763671875	0.412841796875	1	lower	amplitud.ttf
1212.28	n/a	WORD	606140	wordpools/wasnorm_wordpool_less_exclusions.txt	LTP208	ltpFR	3	6	1	BUCKLE	185	n/a	n/a	0	0.57763671875	0.412841796875	1	lower	amplitud.ttf
1216.258	n/a	WORD	608129	wordpools/wasnorm_wordpool_less_exclusions.txt	LTP208	ltpFR	3	6	1	HORNET	718	n/a	n/a	1	0.57763671875	0.412841796875	1	lower	amplitud.ttf
1220.168	n/a	WORD	610084	wordpools/wasnorm_wordpool_less_exclusions.txt	LTP208	ltpFR	3	6	1	CHICKEN	297	n/a	n/a	1	0.57763671875	0.412841796875	1	lower	amplitud.ttf
1224.062	n/a	WORD	612031	wordpools/wasnorm_wordpool_less_exclusions.txt	LTP208	ltpFR	3	6	1	BEETLE	116	n/a	n/a	1	0.57763671875	0.412841796875	1	lower	amplitud.ttf
1228.074	n/a	WORD	614037	wordpools/wasnorm_wordpool_less_exclusions.txt	LTP208	ltpFR	3	6	1	THERMOMETER	1453	n/a	n/a	0	0.57763671875	0.412841796875	1	lower	amplitud.ttf
1234.066	n/a	REC_START	617033	n/a	LTP208	ltpFR	3	6	n/a	n/a	n/a	n/a	n/a	n/a	n/a	n/a	n/a	n/a	n/a
1234.718	n/a	REC_WORD	617359	wordpools/wasnorm_wordpool_less_exclusions.txt	LTP208	ltpFR	3	6	1	THERMOMETER	1453	n/a	n/a	0	n/a	n/a	n/a	n/a	n/a
1236.434	n/a	REC_WORD	618217	wordpools/wasnorm_wordpool_less_exclusions.txt	LTP208	ltpFR	3	6	1	HORNET	718	n/a	n/a	1	n/a	n/a	n/a	n/a	n/a
1239.848	n/a	REC_WORD	619924	wordpools/wasnorm_wordpool_less_exclusions.txt	LTP208	ltpFR	3	6	-1	FARMER	553	n/a	n/a	-1	n/a	n/a	n/a	n/a	n/a
1245.564	n/a	REC_WORD	622782	wordpools/wasnorm_wordpool_less_exclusions.txt	LTP208	ltpFR	3	6	1	PORCUPINE	1107	n/a	n/a	1	n/a	n/a	n/a	n/a	n/a
1246.564	n/a	REC_WORD_VV	623282	wordpools/wasnorm_wordpool_less_exclusions.txt	LTP208	ltpFR	3	6	n/a	<>	-1	n/a	n/a	n/a	n/a	n/a	n/a	n/a	n/a
1254.644	n/a	REC_WORD	627322	wordpools/wasnorm_wordpool_less_exclusions.txt	LTP208	ltpFR	3	6	1	PARIS	1014	n/a	n/a	0	n/a	n/a	n/a	n/a	n/a
1257.242	n/a	REC_WORD	628621	wordpools/wasnorm_wordpool_less_exclusions.txt	LTP208	ltpFR	3	6	1	DESIGNER	451	n/a	n/a	1	n/a	n/a	n/a	n/a	n/a
1261.568	n/a	REC_WORD	630784	wordpools/wasnorm_wordpool_less_exclusions.txt	LTP208	ltpFR	3	6	1	BUCKLE	185	n/a	n/a	0	n/a	n/a	n/a	n/a	n/a
1293.402	n/a	REC_WORD	646701	wordpools/wasnorm_wordpool_less_exclusions.txt	LTP208	ltpFR	3	6	1	HORNET	718	n/a	n/a	1	n/a	n/a	n/a	n/a	n/a
1294.154	n/a	REC_WORD	647077	wordpools/wasnorm_wordpool_less_exclusions.txt	LTP208	ltpFR	3	6	1	BEETLE	116	n/a	n/a	1	n/a	n/a	n/a	n/a	n/a
1301.144	n/a	REC_WORD	650572	wordpools/wasnorm_wordpool_less_exclusions.txt	LTP208	ltpFR	3	6	1	THERMOMETER	1453	n/a	n/a	0	n/a	n/a	n/a	n/a	n/a
1313.412	n/a	WORD	656706	wordpools/wasnorm_wordpool_less_exclusions.txt	LTP208	ltpFR	3	7	0	PICKLE	1059	n/a	n/a	0	0.422607421875	0.5869140625	0	upper	zerothre.ttf
1317.474	n/a	WORD	658737	wordpools/wasnorm_wordpool_less_exclusions.txt	LTP208	ltpFR	3	7	0	UNCLE	1536	n/a	n/a	3	0.422607421875	0.5869140625	0	upper	zerothre.ttf
1319.804	n/a	KEY_MSG	659902	n/a	LTP208	ltpFR	3	7	n/a	n/a	n/a	n/a	n/a	n/a	n/a	n/a	n/a	n/a	n/a
1322.332	n/a	WORD	661166	wordpools/wasnorm_wordpool_less_exclusions.txt	LTP208	ltpFR	3	7	0	CROSS	413	n/a	n/a	0	0.422607421875	0.5869140625	0	upper	zerothre.ttf
1326.326	n/a	WORD	663163	wordpools/wasnorm_wordpool_less_exclusions.txt	LTP208	ltpFR	3	7	0	VAGRANT	1544	n/a	n/a	0	0.422607421875	0.5869140625	0	upper	zerothre.ttf
1330.404	n/a	WORD	665202	wordpools/wasnorm_wordpool_less_exclusions.txt	LTP208	ltpFR	3	7	0	OVAL	990	n/a	n/a	0	0.422607421875	0.5869140625	0	upper	zerothre.ttf
1334.448	n/a	WORD	667224	wordpools/wasnorm_wordpool_less_exclusions.txt	LTP208	ltpFR	3	7	0	LIZARD	834	n/a	n/a	1	0.422607421875	0.5869140625	0	upper	zerothre.ttf
1338.376	n/a	WORD	669188	wordpools/wasnorm_wordpool_less_exclusions.txt	LTP208	ltpFR	3	7	0	BIBLE	124	n/a	n/a	0	0.422607421875	0.5869140625	0	upper	zerothre.ttf
1342.254	n/a	WORD	671127	wordpools/wasnorm_wordpool_less_exclusions.txt	LTP208	ltpFR	3	7	0	MUSEUM	933	n/a	n/a	1	0.422607421875	0.5869140625	0	upper	zerothre.ttf
1346.314	n/a	WORD	673157	wordpools/wasnorm_wordpool_less_exclusions.txt	LTP208	ltpFR	3	7	0	ELECTRICIAN	521	n/a	n/a	0	0.422607421875	0.5869140625	0	upper	zerothre.ttf
1350.244	n/a	WORD	675122	wordpools/wasnorm_wordpool_less_exclusions.txt	LTP208	ltpFR	3	7	0	OPERATOR	979	n/a	n/a	1	0.422607421875	0.5869140625	0	upper	zerothre.ttf
1354.32	n/a	WORD	677160	wordpools/wasnorm_wordpool_less_exclusions.txt	LTP208	ltpFR	3	7	0	FAMILY	550	n/a	n/a	1	0.422607421875	0.5869140625	0	upper	zerothre.ttf
1358.214	n/a	WORD	679107	wordpools/wasnorm_wordpool_less_exclusions.txt	LTP208	ltpFR	3	7	0	POWDER	1117	n/a	n/a	0	0.422607421875	0.5869140625	0	upper	zerothre.ttf
1362.44	n/a	WORD	681220	wordpools/wasnorm_wordpool_less_exclusions.txt	LTP208	ltpFR	3	7	0	FRECKLE	602	n/a	n/a	0	0.422607421875	0.5869140625	0	upper	zerothre.ttf
1366.418	n/a	WORD	683209	wordpools/wasnorm_wordpool_less_exclusions.txt	LTP208	ltpFR	3	7	0	CRYSTAL	418	n/a	n/a	0	0.422607421875	0.5869140625	0	upper	zerothre.ttf
1370.612	n/a	WORD	685306	wordpools/wasnorm_wordpool_less_exclusions.txt	LTP208	ltpFR	3	7	0	CANVAS	234	n/a	n/a	0	0.422607421875	0.5869140625	0	upper	zerothre.ttf
1374.672	n/a	WORD	687336	wordpools/wasnorm_wordpool_less_exclusions.txt	LTP208	ltpFR	3	7	0	PAINTING	1005	n/a	n/a	1	0.422607421875	0.5869140625	0	upper	zerothre.ttf
1380.414	n/a	REC_START	690207	n/a	LTP208	ltpFR	3	7	n/a	n/a	n/a	n/a	n/a	n/a	n/a	n/a	n/a	n/a	n/a
1381.202	n/a	REC_WORD	690601	wordpools/wasnorm_wordpool_less_exclusions.txt	LTP208	ltpFR	3	7	0	PAINTING	1005	n/a	n/a	1	n/a	n/a	n/a	n/a	n/a
1382.206	n/a	REC_WORD	691103	wordpools/wasnorm_wordpool_less_exclusions.txt	LTP208	ltpFR	3	7	0	VAGRANT	1544	n/a	n/a	0	n/a	n/a	n/a	n/a	n/a
1383.064	n/a	REC_WORD	691532	wordpools/wasnorm_wordpool_less_exclusions.txt	LTP208	ltpFR	3	7	0	FAMILY	550	n/a	n/a	1	n/a	n/a	n/a	n/a	n/a
1384.21	n/a	REC_WORD	692105	wordpools/wasnorm_wordpool_less_exclusions.txt	LTP208	ltpFR	3	7	0	FRECKLE	602	n/a	n/a	0	n/a	n/a	n/a	n/a	n/a
1393.37	n/a	REC_WORD	696685	wordpools/wasnorm_wordpool_less_exclusions.txt	LTP208	ltpFR	3	7	0	MUSEUM	933	n/a	n/a	1	n/a	n/a	n/a	n/a	n/a
1398.134	n/a	REC_WORD	699067	wordpools/wasnorm_wordpool_less_exclusions.txt	LTP208	ltpFR	3	7	0	PAINTING	1005	n/a	n/a	1	n/a	n/a	n/a	n/a	n/a
1418.868	n/a	REC_WORD	709434	wordpools/wasnorm_wordpool_less_exclusions.txt	LTP208	ltpFR	3	7	0	PICKLE	1059	n/a	n/a	0	n/a	n/a	n/a	n/a	n/a
1464.422	n/a	WORD	732211	wordpools/wasnorm_wordpool_less_exclusions.txt	LTP208	ltpFR	3	8	-1	SUPPER	1411	n/a	n/a	-1	1.0	1.0	1	upper	Verdana.ttf
1468.45	n/a	WORD	734225	wordpools/wasnorm_wordpool_less_exclusions.txt	LTP208	ltpFR	3	8	-1	PICNIC	1060	n/a	n/a	-1	1.0	1.0	1	upper	Verdana.ttf
1472.51	n/a	WORD	736255	wordpools/wasnorm_wordpool_less_exclusions.txt	LTP208	ltpFR	3	8	-1	PUMPKIN	1142	n/a	n/a	-1	1.0	1.0	1	upper	Verdana.ttf
1476.472	n/a	WORD	738236	wordpools/wasnorm_wordpool_less_exclusions.txt	LTP208	ltpFR	3	8	-1	CUSTARD	429	n/a	n/a	-1	1.0	1.0	1	upper	Verdana.ttf
1480.532	n/a	WORD	740266	wordpools/wasnorm_wordpool_less_exclusions.txt	LTP208	ltpFR	3	8	-1	SCENERY	1247	n/a	n/a	-1	1.0	1.0	1	upper	Verdana.ttf
1484.394	n/a	WORD	742197	wordpools/wasnorm_wordpool_less_exclusions.txt	LTP208	ltpFR	3	8	-1	FREEWAY	603	n/a	n/a	-1	1.0	1.0	1	upper	Verdana.ttf
1488.272	n/a	WORD	744136	wordpools/wasnorm_wordpool_less_exclusions.txt	LTP208	ltpFR	3	8	-1	LAMP	798	n/a	n/a	-1	1.0	1.0	1	upper	Verdana.ttf
1492.448	n/a	WORD	746224	wordpools/wasnorm_wordpool_less_exclusions.txt	LTP208	ltpFR	3	8	-1	MICROPHONE	890	n/a	n/a	-1	1.0	1.0	1	upper	Verdana.ttf
1496.626	n/a	WORD	748313	wordpools/wasnorm_wordpool_less_exclusions.txt	LTP208	ltpFR	3	8	-1	PAVEMENT	1028	n/a	n/a	-1	1.0	1.0	1	upper	Verdana.ttf
1500.486	n/a	WORD	750243	wordpools/wasnorm_wordpool_less_exclusions.txt	LTP208	ltpFR	3	8	-1	CRITIC	410	n/a	n/a	-1	1.0	1.0	1	upper	Verdana.ttf
1504.58	n/a	WORD	752290	wordpools/wasnorm_wordpool_less_exclusions.txt	LTP208	ltpFR	3	8	-1	OPERA	978	n/a	n/a	-1	1.0	1.0	1	upper	Verdana.ttf
1508.558	n/a	WORD	754279	wordpools/wasnorm_wordpool_less_exclusions.txt	LTP208	ltpFR	3	8	-1	HANDKERCHIEF	686	n/a	n/a	-1	1.0	1.0	1	upper	Verdana.ttf
1512.534	n/a	WORD	756267	wordpools/wasnorm_wordpool_less_exclusions.txt	LTP208	ltpFR	3	8	-1	NOTEBOOK	959	n/a	n/a	-1	1.0	1.0	1	upper	Verdana.ttf
1516.546	n/a	WORD	758273	wordpools/wasnorm_wordpool_less_exclusions.txt	LTP208	ltpFR	3	8	-1	CARPET	247	n/a	n/a	-1	1.0	1.0	1	upper	Verdana.ttf
1520.456	n/a	WORD	760228	wordpools/wasnorm_wordpool_less_exclusions.txt	LTP208	ltpFR	3	8	-1	REFRIGERATOR	1179	n/a	n/a	-1	1.0	1.0	1	upper	Verdana.ttf
1524.45	n/a	WORD	762225	wordpools/wasnorm_wordpool_less_exclusions.txt	LTP208	ltpFR	3	8	-1	DIAMOND	458	n/a	n/a	-1	1.0	1.0	1	upper	Verdana.ttf
1530.36	n/a	REC_START	765180	n/a	LTP208	ltpFR	3	8	n/a	n/a	n/a	n/a	n/a	n/a	n/a	n/a	n/a	n/a	n/a
1531.062	n/a	REC_WORD	765531	wordpools/wasnorm_wordpool_less_exclusions.txt	LTP208	ltpFR	3	8	-1	DIAMOND	458	n/a	n/a	-1	n/a	n/a	n/a	n/a	n/a
1531.85	n/a	REC_WORD	765925	wordpools/wasnorm_wordpool_less_exclusions.txt	LTP208	ltpFR	3	8	-1	REFRIGERATOR	1179	n/a	n/a	-1	n/a	n/a	n/a	n/a	n/a
1532.85	n/a	REC_WORD_VV	766425	wordpools/wasnorm_wordpool_less_exclusions.txt	LTP208	ltpFR	3	8	n/a	<>	-1	n/a	n/a	n/a	n/a	n/a	n/a	n/a	n/a
1533.142	n/a	REC_WORD	766571	wordpools/wasnorm_wordpool_less_exclusions.txt	LTP208	ltpFR	3	8	-1	FREEWAY	603	n/a	n/a	-1	n/a	n/a	n/a	n/a	n/a
1534.774	n/a	REC_WORD	767387	wordpools/wasnorm_wordpool_less_exclusions.txt	LTP208	ltpFR	3	8	-1	PAVEMENT	1028	n/a	n/a	-1	n/a	n/a	n/a	n/a	n/a
1536.83	n/a	REC_WORD	768415	wordpools/wasnorm_wordpool_less_exclusions.txt	LTP208	ltpFR	3	8	-1	PUMPKIN	1142	n/a	n/a	-1	n/a	n/a	n/a	n/a	n/a
1538.056	n/a	REC_WORD	769028	wordpools/wasnorm_wordpool_less_exclusions.txt	LTP208	ltpFR	3	8	-1	CUSTARD	429	n/a	n/a	-1	n/a	n/a	n/a	n/a	n/a
1539.434	n/a	REC_WORD	769717	wordpools/wasnorm_wordpool_less_exclusions.txt	LTP208	ltpFR	3	8	-1	PICNIC	1060	n/a	n/a	-1	n/a	n/a	n/a	n/a	n/a
1541.016	n/a	REC_WORD	770508	wordpools/wasnorm_wordpool_less_exclusions.txt	LTP208	ltpFR	3	8	-1	REFRIGERATOR	1179	n/a	n/a	-1	n/a	n/a	n/a	n/a	n/a
1542.016	n/a	REC_WORD_VV	771008	wordpools/wasnorm_wordpool_less_exclusions.txt	LTP208	ltpFR	3	8	n/a	<>	-1	n/a	n/a	n/a	n/a	n/a	n/a	n/a	n/a
1546.766	n/a	REC_WORD	773383	wordpools/wasnorm_wordpool_less_exclusions.txt	LTP208	ltpFR	3	8	-1	DIAMOND	458	n/a	n/a	-1	n/a	n/a	n/a	n/a	n/a
1576.36	n/a	REC_WORD	788180	wordpools/wasnorm_wordpool_less_exclusions.txt	LTP208	ltpFR	3	8	-1	REFRIGERATOR	1179	n/a	n/a	-1	n/a	n/a	n/a	n/a	n/a
1611.572	n/a	WORD	805786	wordpools/wasnorm_wordpool_less_exclusions.txt	LTP208	ltpFR	3	9	1	DIME	466	n/a	n/a	1	0.57763671875	0.412841796875	1	lower	amplitud.ttf
1615.532	n/a	WORD	807766	wordpools/wasnorm_wordpool_less_exclusions.txt	LTP208	ltpFR	3	9	1	CLERK	321	n/a	n/a	1	0.57763671875	0.412841796875	1	lower	amplitud.ttf
1619.442	n/a	WORD	809721	wordpools/wasnorm_wordpool_less_exclusions.txt	LTP208	ltpFR	3	9	1	NUT	965	n/a	n/a	0	0.57763671875	0.412841796875	1	lower	amplitud.ttf
1623.454	n/a	WORD	811727	wordpools/wasnorm_wordpool_less_exclusions.txt	LTP208	ltpFR	3	9	1	SHERIFF	1284	n/a	n/a	1	0.57763671875	0.412841796875	1	lower	amplitud.ttf
1627.514	n/a	WORD	813757	wordpools/wasnorm_wordpool_less_exclusions.txt	LTP208	ltpFR	3	9	1	CLAW	319	n/a	n/a	0	0.57763671875	0.412841796875	1	lower	amplitud.ttf
1631.692	n/a	WORD	815846	wordpools/wasnorm_wordpool_less_exclusions.txt	LTP208	ltpFR	3	9	1	WALLET	1583	n/a	n/a	0	0.57763671875	0.412841796875	1	lower	amplitud.ttf
1635.736	n/a	WORD	817868	wordpools/wasnorm_wordpool_less_exclusions.txt	LTP208	ltpFR	3	9	1	BANANA	77	n/a	n/a	0	0.57763671875	0.412841796875	1	lower	amplitud.ttf
1639.564	n/a	WORD	819782	wordpools/wasnorm_wordpool_less_exclusions.txt	LTP208	ltpFR	3	9	1	BROTHER	179	n/a	n/a	1	0.57763671875	0.412841796875	1	lower	amplitud.ttf
1643.442	n/a	WORD	821721	wordpools/wasnorm_wordpool_less_exclusions.txt	LTP208	ltpFR	3	9	1	TWIN	1528	n/a	n/a	1	0.57763671875	0.412841796875	1	lower	amplitud.ttf
1647.452	n/a	WORD	823726	wordpools/wasnorm_wordpool_less_exclusions.txt	LTP208	ltpFR	3	9	1	WOLF	1619	n/a	n/a	1	0.57763671875	0.412841796875	1	lower	amplitud.ttf
1651.33	n/a	WORD	825665	wordpools/wasnorm_wordpool_less_exclusions.txt	LTP208	ltpFR	3	9	1	CASTLE	256	n/a	n/a	0	0.57763671875	0.412841796875	1	lower	amplitud.ttf
1655.292	n/a	WORD	827646	wordpools/wasnorm_wordpool_less_exclusions.txt	LTP208	ltpFR	3	9	1	ATTIC	56	n/a	n/a	0	0.57763671875	0.412841796875	1	lower	amplitud.ttf
1659.384	n/a	WORD	829692	wordpools/wasnorm_wordpool_less_exclusions.txt	LTP208	ltpFR	3	9	1	RAZOR	1171	n/a	n/a	0	0.57763671875	0.412841796875	1	lower	amplitud.ttf
1663.412	n/a	WORD	831706	wordpools/wasnorm_wordpool_less_exclusions.txt	LTP208	ltpFR	3	9	1	SCALPEL	1243	n/a	n/a	0	0.57763671875	0.412841796875	1	lower	amplitud.ttf
1667.306	n/a	WORD	833653	wordpools/wasnorm_wordpool_less_exclusions.txt	LTP208	ltpFR	3	9	1	CINNAMON	310	n/a	n/a	0	0.57763671875	0.412841796875	1	lower	amplitud.ttf
1671.482	n/a	WORD	835741	wordpools/wasnorm_wordpool_less_exclusions.txt	LTP208	ltpFR	3	9	1	DESK	452	n/a	n/a	0	0.57763671875	0.412841796875	1	lower	amplitud.ttf
1677.442	n/a	REC_START	838721	n/a	LTP208	ltpFR	3	9	n/a	n/a	n/a	n/a	n/a	n/a	n/a	n/a	n/a	n/a	n/a
1677.96	n/a	REC_WORD	838980	wordpools/wasnorm_wordpool_less_exclusions.txt	LTP208	ltpFR	3	9	1	DESK	452	n/a	n/a	0	n/a	n/a	n/a	n/a	n/a
1678.518	n/a	REC_WORD	839259	wordpools/wasnorm_wordpool_less_exclusions.txt	LTP208	ltpFR	3	9	1	CINNAMON	310	n/a	n/a	0	n/a	n/a	n/a	n/a	n/a
1679.9	n/a	REC_WORD	839950	wordpools/wasnorm_wordpool_less_exclusions.txt	LTP208	ltpFR	3	9	1	CASTLE	256	n/a	n/a	0	n/a	n/a	n/a	n/a	n/a
1683.922	n/a	REC_WORD	841961	wordpools/wasnorm_wordpool_less_exclusions.txt	LTP208	ltpFR	3	9	1	ATTIC	56	n/a	n/a	0	n/a	n/a	n/a	n/a	n/a
1688.65	n/a	REC_WORD	844325	wordpools/wasnorm_wordpool_less_exclusions.txt	LTP208	ltpFR	3	9	1	BROTHER	179	n/a	n/a	1	n/a	n/a	n/a	n/a	n/a
1717.796	n/a	REC_WORD	858898	wordpools/wasnorm_wordpool_less_exclusions.txt	LTP208	ltpFR	3	9	1	CINNAMON	310	n/a	n/a	0	n/a	n/a	n/a	n/a	n/a
1747.772	n/a	REC_WORD	873886	wordpools/wasnorm_wordpool_less_exclusions.txt	LTP208	ltpFR	3	9	1	BROTHER	179	n/a	n/a	1	n/a	n/a	n/a	n/a	n/a
1751.224	n/a	REC_WORD	875612	wordpools/wasnorm_wordpool_less_exclusions.txt	LTP208	ltpFR	3	9	1	ATTIC	56	n/a	n/a	0	n/a	n/a	n/a	n/a	n/a
1762.664	n/a	WORD	881332	wordpools/wasnorm_wordpool_less_exclusions.txt	LTP208	ltpFR	3	10	0	PLUTO	1092	n/a	n/a	1	0.422607421875	0.5869140625	0	upper	zerothre.ttf
1766.774	n/a	WORD	883387	wordpools/wasnorm_wordpool_less_exclusions.txt	LTP208	ltpFR	3	10	0	STOOL	1386	n/a	n/a	0	0.422607421875	0.5869140625	0	upper	zerothre.ttf
1770.852	n/a	WORD	885426	wordpools/wasnorm_wordpool_less_exclusions.txt	LTP208	ltpFR	3	10	0	DISH	474	n/a	n/a	0	0.422607421875	0.5869140625	0	upper	zerothre.ttf
1774.946	n/a	WORD	887473	wordpools/wasnorm_wordpool_less_exclusions.txt	LTP208	ltpFR	3	10	1	CAGE	218	n/a	n/a	0	0.57763671875	0.412841796875	1	lower	amplitud.ttf
1779.024	n/a	WORD	889512	wordpools/wasnorm_wordpool_less_exclusions.txt	LTP208	ltpFR	3	10	1	CAR	241	n/a	n/a	1	0.57763671875	0.412841796875	1	lower	amplitud.ttf
1783.236	n/a	WORD	891618	wordpools/wasnorm_wordpool_less_exclusions.txt	LTP208	ltpFR	3	10	0	HERD	705	n/a	n/a	1	0.422607421875	0.5869140625	0	upper	zerothre.ttf
1787.328	n/a	WORD	893664	wordpools/wasnorm_wordpool_less_exclusions.txt	LTP208	ltpFR	3	10	0	RAM	1165	n/a	n/a	1	0.422607421875	0.5869140625	0	upper	zerothre.ttf
1791.322	n/a	WORD	895661	wordpools/wasnorm_wordpool_less_exclusions.txt	LTP208	ltpFR	3	10	0	DESSERT	453	n/a	n/a	1	0.422607421875	0.5869140625	0	upper	zerothre.ttf
1795.218	n/a	WORD	897609	wordpools/wasnorm_wordpool_less_exclusions.txt	LTP208	ltpFR	3	10	0	HARP	689	n/a	n/a	1	0.422607421875	0.5869140625	0	upper	zerothre.ttf
1799.046	n/a	WORD	899523	wordpools/wasnorm_wordpool_less_exclusions.txt	LTP208	ltpFR	3	10	0	FLUTE	585	n/a	n/a	1	0.422607421875	0.5869140625	0	upper	zerothre.ttf
1803.056	n/a	WORD	901528	wordpools/wasnorm_wordpool_less_exclusions.txt	LTP208	ltpFR	3	10	1	PROFESSIONAL	1130	n/a	n/a	1	0.57763671875	0.412841796875	1	lower	amplitud.ttf
1807.0	n/a	WORD	903500	wordpools/wasnorm_wordpool_less_exclusions.txt	LTP208	ltpFR	3	10	1	BOX	159	n/a	n/a	0	0.57763671875	0.412841796875	1	lower	amplitud.ttf
1811.11	n/a	WORD	905555	wordpools/wasnorm_wordpool_less_exclusions.txt	LTP208	ltpFR	3	10	1	TRASH	1497	n/a	n/a	0	0.57763671875	0.412841796875	1	lower	amplitud.ttf
1815.054	n/a	WORD	907527	wordpools/wasnorm_wordpool_less_exclusions.txt	LTP208	ltpFR	3	10	1	MONGOOSE	909	n/a	n/a	0	0.57763671875	0.412841796875	1	lower	amplitud.ttf
1819.198	n/a	WORD	909599	wordpools/wasnorm_wordpool_less_exclusions.txt	LTP208	ltpFR	3	10	1	RUNNER	1218	n/a	n/a	1	0.57763671875	0.412841796875	1	lower	amplitud.ttf
1823.26	n/a	WORD	911630	wordpools/wasnorm_wordpool_less_exclusions.txt	LTP208	ltpFR	3	10	1	CAKE	219	n/a	n/a	1	0.57763671875	0.412841796875	1	lower	amplitud.ttf
1829.218	n/a	REC_START	914609	n/a	LTP208	ltpFR	3	10	n/a	n/a	n/a	n/a	n/a	n/a	n/a	n/a	n/a	n/a	n/a
1829.672	n/a	REC_WORD	914836	wordpools/wasnorm_wordpool_less_exclusions.txt	LTP208	ltpFR	3	10	1	CAKE	219	n/a	n/a	1	n/a	n/a	n/a	n/a	n/a
1830.444	n/a	REC_WORD	915222	wordpools/wasnorm_wordpool_less_exclusions.txt	LTP208	ltpFR	3	10	0	DESSERT	453	n/a	n/a	1	n/a	n/a	n/a	n/a	n/a
1831.886	n/a	REC_WORD	915943	wordpools/wasnorm_wordpool_less_exclusions.txt	LTP208	ltpFR	3	10	n/a	RUNNING	-1	n/a	n/a	n/a	n/a	n/a	n/a	n/a	n/a
1833.044	n/a	REC_WORD	916522	wordpools/wasnorm_wordpool_less_exclusions.txt	LTP208	ltpFR	3	10	n/a	MONGREL	-1	n/a	n/a	n/a	n/a	n/a	n/a	n/a	n/a
1835.542	n/a	REC_WORD	917771	wordpools/wasnorm_wordpool_less_exclusions.txt	LTP208	ltpFR	3	10	1	CABOOSE	214	n/a	n/a	1	n/a	n/a	n/a	n/a	n/a
1841.036	n/a	REC_WORD	920518	wordpools/wasnorm_wordpool_less_exclusions.txt	LTP208	ltpFR	3	10	0	DESSERT	453	n/a	n/a	1	n/a	n/a	n/a	n/a	n/a
1845.306	n/a	REC_WORD	922653	wordpools/wasnorm_wordpool_less_exclusions.txt	LTP208	ltpFR	3	10	1	CAKE	219	n/a	n/a	1	n/a	n/a	n/a	n/a	n/a
1870.17	n/a	REC_WORD	935085	wordpools/wasnorm_wordpool_less_exclusions.txt	LTP208	ltpFR	3	10	n/a	ANTELOPE	27	n/a	n/a	n/a	n/a	n/a	n/a	n/a	n/a
1875.354	n/a	REC_WORD	937677	wordpools/wasnorm_wordpool_less_exclusions.txt	LTP208	ltpFR	3	10	0	BIBLE	124	n/a	n/a	0	n/a	n/a	n/a	n/a	n/a
1877.434	n/a	REC_WORD_VV	938717	wordpools/wasnorm_wordpool_less_exclusions.txt	LTP208	ltpFR	3	10	n/a	<>	-1	n/a	n/a	n/a	n/a	n/a	n/a	n/a	n/a
1914.29	n/a	WORD	957145	wordpools/wasnorm_wordpool_less_exclusions.txt	LTP208	ltpFR	3	11	1	LIGHTER	819	n/a	n/a	0	0.57763671875	0.412841796875	1	lower	amplitud.ttf
1918.234	n/a	WORD	959117	wordpools/wasnorm_wordpool_less_exclusions.txt	LTP208	ltpFR	3	11	1	PIPE	1073	n/a	n/a	0	0.57763671875	0.412841796875	1	lower	amplitud.ttf
1922.428	n/a	WORD	961214	wordpools/wasnorm_wordpool_less_exclusions.txt	LTP208	ltpFR	3	11	1	VALVE	1546	n/a	n/a	0	0.57763671875	0.412841796875	1	lower	amplitud.ttf
1926.388	n/a	WORD	963194	wordpools/wasnorm_wordpool_less_exclusions.txt	LTP208	ltpFR	3	11	0	TREE	1502	n/a	n/a	1	0.422607421875	0.5869140625	0	upper	zerothre.ttf
1930.6	n/a	WORD	965300	wordpools/wasnorm_wordpool_less_exclusions.txt	LTP208	ltpFR	3	11	0	FLOWER	584	n/a	n/a	0	0.422607421875	0.5869140625	0	upper	zerothre.ttf
1934.46	n/a	WORD	967230	wordpools/wasnorm_wordpool_less_exclusions.txt	LTP208	ltpFR	3	11	0	FIG	563	n/a	n/a	0	0.422607421875	0.5869140625	0	upper	zerothre.ttf
1938.454	n/a	WORD	969227	wordpools/wasnorm_wordpool_less_exclusions.txt	LTP208	ltpFR	3	11	0	BERRY	122	n/a	n/a	0	0.422607421875	0.5869140625	0	upper	zerothre.ttf
1942.616	n/a	WORD	971308	wordpools/wasnorm_wordpool_less_exclusions.txt	LTP208	ltpFR	3	11	0	JACKET	747	n/a	n/a	1	0.422607421875	0.5869140625	0	upper	zerothre.ttf
1946.46	n/a	WORD	973230	wordpools/wasnorm_wordpool_less_exclusions.txt	LTP208	ltpFR	3	11	0	OWNER	993	n/a	n/a	1	0.422607421875	0.5869140625	0	upper	zerothre.ttf
1950.42	n/a	WORD	975210	wordpools/wasnorm_wordpool_less_exclusions.txt	LTP208	ltpFR	3	11	1	SQUID	1361	n/a	n/a	1	0.57763671875	0.412841796875	1	lower	amplitud.ttf
1954.598	n/a	WORD	977299	wordpools/wasnorm_wordpool_less_exclusions.txt	LTP208	ltpFR	3	11	1	CRUMB	416	n/a	n/a	0	0.57763671875	0.412841796875	1	lower	amplitud.ttf
1958.424	n/a	WORD	979212	wordpools/wasnorm_wordpool_less_exclusions.txt	LTP208	ltpFR	3	11	0	FLANNEL	574	n/a	n/a	1	0.422607421875	0.5869140625	0	upper	zerothre.ttf
1962.552	n/a	WORD	981276	wordpools/wasnorm_wordpool_less_exclusions.txt	LTP208	ltpFR	3	11	0	SARDINE	1235	n/a	n/a	0	0.422607421875	0.5869140625	0	upper	zerothre.ttf
1966.462	n/a	WORD	983231	wordpools/wasnorm_wordpool_less_exclusions.txt	LTP208	ltpFR	3	11	1	PRAIRIE	1118	n/a	n/a	0	0.57763671875	0.412841796875	1	lower	amplitud.ttf
1970.358	n/a	WORD	985179	wordpools/wasnorm_wordpool_less_exclusions.txt	LTP208	ltpFR	3	11	1	BUFFALO	186	n/a	n/a	1	0.57763671875	0.412841796875	1	lower	amplitud.ttf
1974.484	n/a	WORD	987242	wordpools/wasnorm_wordpool_less_exclusions.txt	LTP208	ltpFR	3	11	1	DONKEY	484	n/a	n/a	1	0.57763671875	0.412841796875	1	lower	amplitud.ttf
1980.26	n/a	REC_START	990130	n/a	LTP208	ltpFR	3	11	n/a	n/a	n/a	n/a	n/a	n/a	n/a	n/a	n/a	n/a	n/a
1980.998	n/a	REC_WORD	990499	wordpools/wasnorm_wordpool_less_exclusions.txt	LTP208	ltpFR	3	11	1	PRAIRIE	1118	n/a	n/a	0	n/a	n/a	n/a	n/a	n/a
1981.922	n/a	REC_WORD	990961	wordpools/wasnorm_wordpool_less_exclusions.txt	LTP208	ltpFR	3	11	1	BUFFALO	186	n/a	n/a	1	n/a	n/a	n/a	n/a	n/a
1983.084	n/a	REC_WORD	991542	wordpools/wasnorm_wordpool_less_exclusions.txt	LTP208	ltpFR	3	11	1	DONKEY	484	n/a	n/a	1	n/a	n/a	n/a	n/a	n/a
1985.608	n/a	REC_WORD	992804	wordpools/wasnorm_wordpool_less_exclusions.txt	LTP208	ltpFR	3	11	1	CRUMB	416	n/a	n/a	0	n/a	n/a	n/a	n/a	n/a
1992.148	n/a	REC_WORD	996074	wordpools/wasnorm_wordpool_less_exclusions.txt	LTP208	ltpFR	3	11	0	TREE	1502	n/a	n/a	1	n/a	n/a	n/a	n/a	n/a
1994.264	n/a	REC_WORD	997132	wordpools/wasnorm_wordpool_less_exclusions.txt	LTP208	ltpFR	3	11	0	FLOWER	584	n/a	n/a	0	n/a	n/a	n/a	n/a	n/a
1995.42	n/a	REC_WORD	997710	wordpools/wasnorm_wordpool_less_exclusions.txt	LTP208	ltpFR	3	11	1	LIGHTER	819	n/a	n/a	0	n/a	n/a	n/a	n/a	n/a
1999.212	n/a	REC_WORD	999606	wordpools/wasnorm_wordpool_less_exclusions.txt	LTP208	ltpFR	3	11	0	JACKET	747	n/a	n/a	1	n/a	n/a	n/a	n/a	n/a
2011.136	n/a	REC_WORD	1005568	wordpools/wasnorm_wordpool_less_exclusions.txt	LTP208	ltpFR	3	11	-1	NOTEBOOK	959	n/a	n/a	-1	n/a	n/a	n/a	n/a	n/a
2012.136	n/a	REC_WORD_VV	1006068	wordpools/wasnorm_wordpool_less_exclusions.txt	LTP208	ltpFR	3	11	n/a	<>	-1	n/a	n/a	n/a	n/a	n/a	n/a	n/a	n/a
2060.756	n/a	WORD	1030378	wordpools/wasnorm_wordpool_less_exclusions.txt	LTP208	ltpFR	3	12	1	GLUE	643	n/a	n/a	0	0.57763671875	0.412841796875	1	lower	amplitud.ttf
2064.784	n/a	WORD	1032392	wordpools/wasnorm_wordpool_less_exclusions.txt	LTP208	ltpFR	3	12	1	PEOPLE	1046	n/a	n/a	1	0.57763671875	0.412841796875	1	lower	amplitud.ttf
2068.628	n/a	WORD	1034314	wordpools/wasnorm_wordpool_less_exclusions.txt	LTP208	ltpFR	3	12	1	COMMUNITY	356	n/a	n/a	1	0.57763671875	0.412841796875	1	lower	amplitud.ttf
2072.488	n/a	WORD	1036244	wordpools/wasnorm_wordpool_less_exclusions.txt	LTP208	ltpFR	3	12	1	POSSUM	1112	n/a	n/a	1	0.57763671875	0.412841796875	1	lower	amplitud.ttf
2076.7	n/a	WORD	1038350	wordpools/wasnorm_wordpool_less_exclusions.txt	LTP208	ltpFR	3	12	1	SPIDER	1351	n/a	n/a	1	0.57763671875	0.412841796875	1	lower	amplitud.ttf
2080.778	n/a	WORD	1040389	wordpools/wasnorm_wordpool_less_exclusions.txt	LTP208	ltpFR	3	12	1	VENT	1556	n/a	n/a	0	0.57763671875	0.412841796875	1	lower	amplitud.ttf
2084.822	n/a	WORD	1042411	wordpools/wasnorm_wordpool_less_exclusions.txt	LTP208	ltpFR	3	12	1	SADDLE	1221	n/a	n/a	0	0.57763671875	0.412841796875	1	lower	amplitud.ttf
2088.65	n/a	WORD	1044325	wordpools/wasnorm_wordpool_less_exclusions.txt	LTP208	ltpFR	3	12	1	WARDROBE	1587	n/a	n/a	0	0.57763671875	0.412841796875	1	lower	amplitud.ttf
2092.71	n/a	WORD	1046355	wordpools/wasnorm_wordpool_less_exclusions.txt	LTP208	ltpFR	3	12	1	WARRIOR	1589	n/a	n/a	1	0.57763671875	0.412841796875	1	lower	amplitud.ttf
2096.92	n/a	WORD	1048460	wordpools/wasnorm_wordpool_less_exclusions.txt	LTP208	ltpFR	3	12	1	SUPERVISOR	1410	n/a	n/a	1	0.57763671875	0.412841796875	1	lower	amplitud.ttf
2100.764	n/a	WORD	1050382	wordpools/wasnorm_wordpool_less_exclusions.txt	LTP208	ltpFR	3	12	1	TYPEWRITER	1531	n/a	n/a	0	0.57763671875	0.412841796875	1	lower	amplitud.ttf
2104.626	n/a	WORD	1052313	wordpools/wasnorm_wordpool_less_exclusions.txt	LTP208	ltpFR	3	12	1	OZONE	996	n/a	n/a	0	0.57763671875	0.412841796875	1	lower	amplitud.ttf
2108.52	n/a	WORD	1054260	wordpools/wasnorm_wordpool_less_exclusions.txt	LTP208	ltpFR	3	12	1	COAT	333	n/a	n/a	0	0.57763671875	0.412841796875	1	lower	amplitud.ttf
2112.58	n/a	WORD	1056290	wordpools/wasnorm_wordpool_less_exclusions.txt	LTP208	ltpFR	3	12	1	UNICORN	1538	n/a	n/a	1	0.57763671875	0.412841796875	1	lower	amplitud.ttf
2116.74	n/a	WORD	1058370	wordpools/wasnorm_wordpool_less_exclusions.txt	LTP208	ltpFR	3	12	1	JET	756	n/a	n/a	0	0.57763671875	0.412841796875	1	lower	amplitud.ttf
2120.702	n/a	WORD	1060351	wordpools/wasnorm_wordpool_less_exclusions.txt	LTP208	ltpFR	3	12	1	TERMINAL	1450	n/a	n/a	0	0.57763671875	0.412841796875	1	lower	amplitud.ttf
2126.536	n/a	REC_START	1063268	n/a	LTP208	ltpFR	3	12	n/a	n/a	n/a	n/a	n/a	n/a	n/a	n/a	n/a	n/a	n/a
2127.104	n/a	REC_WORD	1063552	wordpools/wasnorm_wordpool_less_exclusions.txt	LTP208	ltpFR	3	12	1	JET	756	n/a	n/a	0	n/a	n/a	n/a	n/a	n/a
2127.768	n/a	REC_WORD	1063884	wordpools/wasnorm_wordpool_less_exclusions.txt	LTP208	ltpFR	3	12	1	TERMINAL	1450	n/a	n/a	0	n/a	n/a	n/a	n/a	n/a
2128.566	n/a	REC_WORD	1064283	wordpools/wasnorm_wordpool_less_exclusions.txt	LTP208	ltpFR	3	12	1	PEOPLE	1046	n/a	n/a	1	n/a	n/a	n/a	n/a	n/a
2129.334	n/a	REC_WORD	1064667	wordpools/wasnorm_wordpool_less_exclusions.txt	LTP208	ltpFR	3	12	1	COMMUNITY	356	n/a	n/a	1	n/a	n/a	n/a	n/a	n/a
2130.334	n/a	REC_WORD_VV	1065167	wordpools/wasnorm_wordpool_less_exclusions.txt	LTP208	ltpFR	3	12	n/a	<>	-1	n/a	n/a	n/a	n/a	n/a	n/a	n/a	n/a
2135.65	n/a	REC_WORD_VV	1067825	wordpools/wasnorm_wordpool_less_exclusions.txt	LTP208	ltpFR	3	12	n/a	<>	-1	n/a	n/a	n/a	n/a	n/a	n/a	n/a	n/a
2140.13	n/a	REC_WORD	1070065	wordpools/wasnorm_wordpool_less_exclusions.txt	LTP208	ltpFR	3	12	1	TERMINAL	1450	n/a	n/a	0	n/a	n/a	n/a	n/a	n/a
2151.4	n/a	REC_WORD	1075700	wordpools/wasnorm_wordpool_less_exclusions.txt	LTP208	ltpFR	3	12	n/a	SETTING	-1	n/a	n/a	n/a	n/a	n/a	n/a	n/a	n/a
2161.412	n/a	REC_WORD	1080706	wordpools/wasnorm_wordpool_less_exclusions.txt	LTP208	ltpFR	3	12	n/a	AIRPORT	13	n/a	n/a	n/a	n/a	n/a	n/a	n/a	n/a
2175.456	n/a	REC_WORD	1087728	wordpools/wasnorm_wordpool_less_exclusions.txt	LTP208	ltpFR	3	12	1	PEOPLE	1046	n/a	n/a	1	n/a	n/a	n/a	n/a	n/a
2184.728	n/a	REC_WORD	1092364	wordpools/wasnorm_wordpool_less_exclusions.txt	LTP208	ltpFR	3	12	1	UNICORN	1538	n/a	n/a	1	n/a	n/a	n/a	n/a	n/a
2202.082	n/a	REST_REWET	1101041	n/a	LTP208	ltpFR	3	12	n/a	n/a	n/a	n/a	n/a	n/a	n/a	n/a	n/a	n/a	n/a
2588.624	n/a	WORD	1294312	wordpools/wasnorm_wordpool_less_exclusions.txt	LTP208	ltpFR	3	13	-1	SHOVEL	1295	n/a	n/a	-1	1.0	1.0	1	upper	Verdana.ttf
2592.486	n/a	WORD	1296243	wordpools/wasnorm_wordpool_less_exclusions.txt	LTP208	ltpFR	3	13	-1	BRANDY	169	n/a	n/a	-1	1.0	1.0	1	upper	Verdana.ttf
2596.648	n/a	WORD	1298324	wordpools/wasnorm_wordpool_less_exclusions.txt	LTP208	ltpFR	3	13	-1	HORSE	719	n/a	n/a	-1	1.0	1.0	1	upper	Verdana.ttf
2600.858	n/a	WORD	1300429	wordpools/wasnorm_wordpool_less_exclusions.txt	LTP208	ltpFR	3	13	-1	CELERY	266	n/a	n/a	-1	1.0	1.0	1	upper	Verdana.ttf
2605.086	n/a	WORD	1302543	wordpools/wasnorm_wordpool_less_exclusions.txt	LTP208	ltpFR	3	13	-1	TURNIP	1521	n/a	n/a	-1	1.0	1.0	1	upper	Verdana.ttf
2609.23	n/a	WORD	1304615	wordpools/wasnorm_wordpool_less_exclusions.txt	LTP208	ltpFR	3	13	-1	DANDELION	438	n/a	n/a	-1	1.0	1.0	1	upper	Verdana.ttf
2613.406	n/a	WORD	1306703	wordpools/wasnorm_wordpool_less_exclusions.txt	LTP208	ltpFR	3	13	-1	DRINK	498	n/a	n/a	-1	1.0	1.0	1	upper	Verdana.ttf
2617.45	n/a	WORD	1308725	wordpools/wasnorm_wordpool_less_exclusions.txt	LTP208	ltpFR	3	13	-1	SWAMP	1416	n/a	n/a	-1	1.0	1.0	1	upper	Verdana.ttf
2621.51	n/a	WORD	1310755	wordpools/wasnorm_wordpool_less_exclusions.txt	LTP208	ltpFR	3	13	-1	TRACTOR	1493	n/a	n/a	-1	1.0	1.0	1	upper	Verdana.ttf
2625.438	n/a	WORD	1312719	wordpools/wasnorm_wordpool_less_exclusions.txt	LTP208	ltpFR	3	13	-1	BACK	65	n/a	n/a	-1	1.0	1.0	1	upper	Verdana.ttf
2629.332	n/a	WORD	1314666	wordpools/wasnorm_wordpool_less_exclusions.txt	LTP208	ltpFR	3	13	-1	TART	1436	n/a	n/a	-1	1.0	1.0	1	upper	Verdana.ttf
2633.508	n/a	WORD	1316754	wordpools/wasnorm_wordpool_less_exclusions.txt	LTP208	ltpFR	3	13	-1	BANDANNA	80	n/a	n/a	-1	1.0	1.0	1	upper	Verdana.ttf
2637.436	n/a	WORD	1318718	wordpools/wasnorm_wordpool_less_exclusions.txt	LTP208	ltpFR	3	13	-1	BLENDER	136	n/a	n/a	-1	1.0	1.0	1	upper	Verdana.ttf
2641.33	n/a	WORD	1320665	wordpools/wasnorm_wordpool_less_exclusions.txt	LTP208	ltpFR	3	13	-1	CAFETERIA	217	n/a	n/a	-1	1.0	1.0	1	upper	Verdana.ttf
2645.458	n/a	WORD	1322729	wordpools/wasnorm_wordpool_less_exclusions.txt	LTP208	ltpFR	3	13	-1	TACK	1428	n/a	n/a	-1	1.0	1.0	1	upper	Verdana.ttf
2649.534	n/a	WORD	1324767	wordpools/wasnorm_wordpool_less_exclusions.txt	LTP208	ltpFR	3	13	-1	NAIL	936	n/a	n/a	-1	1.0	1.0	1	upper	Verdana.ttf
2655.594	n/a	REC_START	1327797	n/a	LTP208	ltpFR	3	13	n/a	n/a	n/a	n/a	n/a	n/a	n/a	n/a	n/a	n/a	n/a
2656.282	n/a	REC_WORD	1328141	wordpools/wasnorm_wordpool_less_exclusions.txt	LTP208	ltpFR	3	13	-1	TACK	1428	n/a	n/a	-1	n/a	n/a	n/a	n/a	n/a
2657.154	n/a	REC_WORD	1328577	wordpools/wasnorm_wordpool_less_exclusions.txt	LTP208	ltpFR	3	13	-1	SHOVEL	1295	n/a	n/a	-1	n/a	n/a	n/a	n/a	n/a
2658.278	n/a	REC_WORD	1329139	wordpools/wasnorm_wordpool_less_exclusions.txt	LTP208	ltpFR	3	13	-1	BRANDY	169	n/a	n/a	-1	n/a	n/a	n/a	n/a	n/a
2659.694	n/a	REC_WORD	1329847	wordpools/wasnorm_wordpool_less_exclusions.txt	LTP208	ltpFR	3	13	-1	NAIL	936	n/a	n/a	-1	n/a	n/a	n/a	n/a	n/a
2661.25	n/a	REC_WORD	1330625	wordpools/wasnorm_wordpool_less_exclusions.txt	LTP208	ltpFR	3	13	-1	CAFETERIA	217	n/a	n/a	-1	n/a	n/a	n/a	n/a	n/a
2662.25	n/a	REC_WORD_VV	1331125	wordpools/wasnorm_wordpool_less_exclusions.txt	LTP208	ltpFR	3	13	n/a	<>	-1	n/a	n/a	n/a	n/a	n/a	n/a	n/a	n/a
2663.27	n/a	REC_WORD	1331635	wordpools/wasnorm_wordpool_less_exclusions.txt	LTP208	ltpFR	3	13	-1	TURNIP	1521	n/a	n/a	-1	n/a	n/a	n/a	n/a	n/a
2671.114	n/a	REC_WORD	1335557	wordpools/wasnorm_wordpool_less_exclusions.txt	LTP208	ltpFR	3	13	-1	TRACTOR	1493	n/a	n/a	-1	n/a	n/a	n/a	n/a	n/a
2682.818	n/a	REC_WORD	1341409	wordpools/wasnorm_wordpool_less_exclusions.txt	LTP208	ltpFR	3	13	-1	SHOVEL	1295	n/a	n/a	-1	n/a	n/a	n/a	n/a	n/a
2697.758	n/a	REC_WORD	1348879	wordpools/wasnorm_wordpool_less_exclusions.txt	LTP208	ltpFR	3	13	-1	TACK	1428	n/a	n/a	-1	n/a	n/a	n/a	n/a	n/a
2712.61	n/a	REC_WORD	1356305	wordpools/wasnorm_wordpool_less_exclusions.txt	LTP208	ltpFR	3	13	-1	BACK	65	n/a	n/a	-1	n/a	n/a	n/a	n/a	n/a
2758.424	n/a	WORD	1379212	wordpools/wasnorm_wordpool_less_exclusions.txt	LTP208	ltpFR	3	14	1	WINDOW	1611	n/a	n/a	0	0.57763671875	0.412841796875	1	lower	amplitud.ttf
2762.552	n/a	WORD	1381276	wordpools/wasnorm_wordpool_less_exclusions.txt	LTP208	ltpFR	3	14	1	GARDEN	623	n/a	n/a	1	0.57763671875	0.412841796875	1	lower	amplitud.ttf
2766.528	n/a	WORD	1383264	wordpools/wasnorm_wordpool_less_exclusions.txt	LTP208	ltpFR	3	14	1	NEWSPAPER	948	n/a	n/a	0	0.57763671875	0.412841796875	1	lower	amplitud.ttf
2770.406	n/a	WORD	1385203	wordpools/wasnorm_wordpool_less_exclusions.txt	LTP208	ltpFR	3	14	1	NOVEL	960	n/a	n/a	0	0.57763671875	0.412841796875	1	lower	amplitud.ttf
2774.4	n/a	WORD	1387200	wordpools/wasnorm_wordpool_less_exclusions.txt	LTP208	ltpFR	3	14	0	WASP	1593	n/a	n/a	1	0.422607421875	0.5869140625	0	upper	zerothre.ttf
2778.61	n/a	WORD	1389305	wordpools/wasnorm_wordpool_less_exclusions.txt	LTP208	ltpFR	3	14	0	JUG	762	n/a	n/a	0	0.422607421875	0.5869140625	0	upper	zerothre.ttf
2782.788	n/a	WORD	1391394	wordpools/wasnorm_wordpool_less_exclusions.txt	LTP208	ltpFR	3	14	0	BROCCOLI	176	n/a	n/a	0	0.422607421875	0.5869140625	0	upper	zerothre.ttf
2786.766	n/a	WORD	1393383	wordpools/wasnorm_wordpool_less_exclusions.txt	LTP208	ltpFR	3	14	0	BURGLAR	200	n/a	n/a	1	0.422607421875	0.5869140625	0	upper	zerothre.ttf
2790.626	n/a	WORD	1395313	wordpools/wasnorm_wordpool_less_exclusions.txt	LTP208	ltpFR	3	14	1	ANTEATER	26	n/a	n/a	0	0.57763671875	0.412841796875	1	lower	amplitud.ttf
2794.82	n/a	WORD	1397410	wordpools/wasnorm_wordpool_less_exclusions.txt	LTP208	ltpFR	3	14	1	DAISY	435	n/a	n/a	1	0.57763671875	0.412841796875	1	lower	amplitud.ttf
2798.814	n/a	WORD	1399407	wordpools/wasnorm_wordpool_less_exclusions.txt	LTP208	ltpFR	3	14	1	BAY	102	n/a	n/a	0	0.57763671875	0.412841796875	1	lower	amplitud.ttf
2802.658	n/a	WORD	1401329	wordpools/wasnorm_wordpool_less_exclusions.txt	LTP208	ltpFR	3	14	1	SEA	1259	n/a	n/a	0	0.57763671875	0.412841796875	1	lower	amplitud.ttf
2806.702	n/a	WORD	1403351	wordpools/wasnorm_wordpool_less_exclusions.txt	LTP208	ltpFR	3	14	0	TIDE	1465	n/a	n/a	0	0.422607421875	0.5869140625	0	upper	zerothre.ttf
2810.612	n/a	WORD	1405306	wordpools/wasnorm_wordpool_less_exclusions.txt	LTP208	ltpFR	3	14	0	NOMAD	955	n/a	n/a	1	0.422607421875	0.5869140625	0	upper	zerothre.ttf
2814.79	n/a	WORD	1407395	wordpools/wasnorm_wordpool_less_exclusions.txt	LTP208	ltpFR	3	14	0	PISTON	1076	n/a	n/a	0	0.422607421875	0.5869140625	0	upper	zerothre.ttf
2818.752	n/a	WORD	1409376	wordpools/wasnorm_wordpool_less_exclusions.txt	LTP208	ltpFR	3	14	0	BATTERY	101	n/a	n/a	0	0.422607421875	0.5869140625	0	upper	zerothre.ttf
2824.676	n/a	REC_START	1412338	n/a	LTP208	ltpFR	3	14	n/a	n/a	n/a	n/a	n/a	n/a	n/a	n/a	n/a	n/a	n/a
2825.23	n/a	REC_WORD	1412615	wordpools/wasnorm_wordpool_less_exclusions.txt	LTP208	ltpFR	3	14	0	PISTON	1076	n/a	n/a	0	n/a	n/a	n/a	n/a	n/a
2826.418	n/a	REC_WORD	1413209	wordpools/wasnorm_wordpool_less_exclusions.txt	LTP208	ltpFR	3	14	0	BATTERY	101	n/a	n/a	0	n/a	n/a	n/a	n/a	n/a
2829.092	n/a	REC_WORD	1414546	wordpools/wasnorm_wordpool_less_exclusions.txt	LTP208	ltpFR	3	14	1	SEA	1259	n/a	n/a	0	n/a	n/a	n/a	n/a	n/a
2856.384	n/a	REC_WORD	1428192	wordpools/wasnorm_wordpool_less_exclusions.txt	LTP208	ltpFR	3	14	1	HORNET	718	n/a	n/a	1	n/a	n/a	n/a	n/a	n/a
2911.182	n/a	WORD	1455591	wordpools/wasnorm_wordpool_less_exclusions.txt	LTP208	ltpFR	3	15	0	PECAN	1036	n/a	n/a	0	0.422607421875	0.5869140625	0	upper	zerothre.ttf
2915.11	n/a	WORD	1457555	wordpools/wasnorm_wordpool_less_exclusions.txt	LTP208	ltpFR	3	15	0	THRONE	1461	n/a	n/a	1	0.422607421875	0.5869140625	0	upper	zerothre.ttf
2919.17	n/a	WORD	1459585	wordpools/wasnorm_wordpool_less_exclusions.txt	LTP208	ltpFR	3	15	0	LONDON	843	n/a	n/a	1	0.422607421875	0.5869140625	0	upper	zerothre.ttf
2923.098	n/a	WORD	1461549	wordpools/wasnorm_wordpool_less_exclusions.txt	LTP208	ltpFR	3	15	1	PUZZLE	1146	n/a	n/a	0	0.57763671875	0.412841796875	1	lower	amplitud.ttf
2927.242	n/a	WORD	1463621	wordpools/wasnorm_wordpool_less_exclusions.txt	LTP208	ltpFR	3	15	1	EMPEROR	529	n/a	n/a	1	0.57763671875	0.412841796875	1	lower	amplitud.ttf
2931.452	n/a	WORD	1465726	wordpools/wasnorm_wordpool_less_exclusions.txt	LTP208	ltpFR	3	15	1	ELK	526	n/a	n/a	1	0.57763671875	0.412841796875	1	lower	amplitud.ttf
2935.362	n/a	WORD	1467681	wordpools/wasnorm_wordpool_less_exclusions.txt	LTP208	ltpFR	3	15	1	MOOSE	915	n/a	n/a	1	0.57763671875	0.412841796875	1	lower	amplitud.ttf
2939.372	n/a	WORD	1469686	wordpools/wasnorm_wordpool_less_exclusions.txt	LTP208	ltpFR	3	15	1	CYLINDER	432	n/a	n/a	0	0.57763671875	0.412841796875	1	lower	amplitud.ttf
2943.582	n/a	WORD	1471791	wordpools/wasnorm_wordpool_less_exclusions.txt	LTP208	ltpFR	3	15	1	GARBAGE	622	n/a	n/a	0	0.57763671875	0.412841796875	1	lower	amplitud.ttf
2947.76	n/a	WORD	1473880	wordpools/wasnorm_wordpool_less_exclusions.txt	LTP208	ltpFR	3	15	0	CITY	314	n/a	n/a	1	0.422607421875	0.5869140625	0	upper	zerothre.ttf
2951.838	n/a	WORD	1475919	wordpools/wasnorm_wordpool_less_exclusions.txt	LTP208	ltpFR	3	15	0	ACORN	3	n/a	n/a	0	0.422607421875	0.5869140625	0	upper	zerothre.ttf
2955.682	n/a	WORD	1477841	wordpools/wasnorm_wordpool_less_exclusions.txt	LTP208	ltpFR	3	15	0	OCEAN	970	n/a	n/a	1	0.422607421875	0.5869140625	0	upper	zerothre.ttf
2959.56	n/a	WORD	1479780	wordpools/wasnorm_wordpool_less_exclusions.txt	LTP208	ltpFR	3	15	1	FISH	571	n/a	n/a	1	0.57763671875	0.412841796875	1	lower	amplitud.ttf
2963.454	n/a	WORD	1481727	wordpools/wasnorm_wordpool_less_exclusions.txt	LTP208	ltpFR	3	15	1	CONSOLE	364	n/a	n/a	0	0.57763671875	0.412841796875	1	lower	amplitud.ttf
2967.614	n/a	WORD	1483807	wordpools/wasnorm_wordpool_less_exclusions.txt	LTP208	ltpFR	3	15	0	DETERGENT	455	n/a	n/a	1	0.422607421875	0.5869140625	0	upper	zerothre.ttf
2971.808	n/a	WORD	1485904	wordpools/wasnorm_wordpool_less_exclusions.txt	LTP208	ltpFR	3	15	0	POTATO	1115	n/a	n/a	1	0.422607421875	0.5869140625	0	upper	zerothre.ttf
2977.6	n/a	REC_START	1488800	n/a	LTP208	ltpFR	3	15	n/a	n/a	n/a	n/a	n/a	n/a	n/a	n/a	n/a	n/a	n/a
2978.194	n/a	REC_WORD	1489097	wordpools/wasnorm_wordpool_less_exclusions.txt	LTP208	ltpFR	3	15	0	POTATO	1115	n/a	n/a	1	n/a	n/a	n/a	n/a	n/a
2979.032	n/a	REC_WORD	1489516	wordpools/wasnorm_wordpool_less_exclusions.txt	LTP208	ltpFR	3	15	0	THRONE	1461	n/a	n/a	1	n/a	n/a	n/a	n/a	n/a
2980.32	n/a	REC_WORD	1490160	wordpools/wasnorm_wordpool_less_exclusions.txt	LTP208	ltpFR	3	15	1	EMPEROR	529	n/a	n/a	1	n/a	n/a	n/a	n/a	n/a
2984.116	n/a	REC_WORD	1492058	wordpools/wasnorm_wordpool_less_exclusions.txt	LTP208	ltpFR	3	15	n/a	ENGLAND	-1	n/a	n/a	n/a	n/a	n/a	n/a	n/a	n/a
2987.188	n/a	REC_WORD	1493594	wordpools/wasnorm_wordpool_less_exclusions.txt	LTP208	ltpFR	3	15	0	PECAN	1036	n/a	n/a	0	n/a	n/a	n/a	n/a	n/a
2990.726	n/a	REC_WORD	1495363	wordpools/wasnorm_wordpool_less_exclusions.txt	LTP208	ltpFR	3	15	0	ACORN	3	n/a	n/a	0	n/a	n/a	n/a	n/a	n/a
2994.028	n/a	REC_WORD	1497014	wordpools/wasnorm_wordpool_less_exclusions.txt	LTP208	ltpFR	3	15	n/a	ANTELOPE	27	n/a	n/a	n/a	n/a	n/a	n/a	n/a	n/a
2995.304	n/a	REC_WORD	1497652	wordpools/wasnorm_wordpool_less_exclusions.txt	LTP208	ltpFR	3	15	1	MOOSE	915	n/a	n/a	1	n/a	n/a	n/a	n/a	n/a
2999.55	n/a	REC_WORD	1499775	wordpools/wasnorm_wordpool_less_exclusions.txt	LTP208	ltpFR	3	15	0	THRONE	1461	n/a	n/a	1	n/a	n/a	n/a	n/a	n/a
3008.604	n/a	REC_WORD	1504302	wordpools/wasnorm_wordpool_less_exclusions.txt	LTP208	ltpFR	3	15	n/a	ELM	527	n/a	n/a	n/a	n/a	n/a	n/a	n/a	n/a
3025.178	n/a	REC_WORD	1512589	wordpools/wasnorm_wordpool_less_exclusions.txt	LTP208	ltpFR	3	15	0	CITY	314	n/a	n/a	1	n/a	n/a	n/a	n/a	n/a
3028.7	n/a	REC_WORD	1514350	wordpools/wasnorm_wordpool_less_exclusions.txt	LTP208	ltpFR	3	15	1	GARBAGE	622	n/a	n/a	0	n/a	n/a	n/a	n/a	n/a
3037.264	n/a	REC_WORD	1518632	wordpools/wasnorm_wordpool_less_exclusions.txt	LTP208	ltpFR	3	15	1	TRASH	1497	n/a	n/a	0	n/a	n/a	n/a	n/a	n/a
3056.716	n/a	WORD	1528358	wordpools/wasnorm_wordpool_less_exclusions.txt	LTP208	ltpFR	3	16	-1	CANDY	230	n/a	n/a	-1	1.0	1.0	1	upper	Verdana.ttf
3060.894	n/a	WORD	1530447	wordpools/wasnorm_wordpool_less_exclusions.txt	LTP208	ltpFR	3	16	-1	BOWL	158	n/a	n/a	-1	1.0	1.0	1	upper	Verdana.ttf
3065.038	n/a	WORD	1532519	wordpools/wasnorm_wordpool_less_exclusions.txt	LTP208	ltpFR	3	16	-1	BENCH	121	n/a	n/a	-1	1.0	1.0	1	upper	Verdana.ttf
3068.864	n/a	WORD	1534432	wordpools/wasnorm_wordpool_less_exclusions.txt	LTP208	ltpFR	3	16	-1	TABLET	1427	n/a	n/a	-1	1.0	1.0	1	upper	Verdana.ttf
3072.776	n/a	WORD	1536388	wordpools/wasnorm_wordpool_less_exclusions.txt	LTP208	ltpFR	3	16	-1	SPIT	1354	n/a	n/a	-1	1.0	1.0	1	upper	Verdana.ttf
3076.886	n/a	WORD	1538443	wordpools/wasnorm_wordpool_less_exclusions.txt	LTP208	ltpFR	3	16	-1	SWIMMER	1420	n/a	n/a	-1	1.0	1.0	1	upper	Verdana.ttf
3080.764	n/a	WORD	1540382	wordpools/wasnorm_wordpool_less_exclusions.txt	LTP208	ltpFR	3	16	-1	SCROLL	1257	n/a	n/a	-1	1.0	1.0	1	upper	Verdana.ttf
3084.724	n/a	WORD	1542362	wordpools/wasnorm_wordpool_less_exclusions.txt	LTP208	ltpFR	3	16	-1	CHAIR	274	n/a	n/a	-1	1.0	1.0	1	upper	Verdana.ttf
3088.934	n/a	WORD	1544467	wordpools/wasnorm_wordpool_less_exclusions.txt	LTP208	ltpFR	3	16	-1	STRAWBERRY	1391	n/a	n/a	-1	1.0	1.0	1	upper	Verdana.ttf
3092.778	n/a	WORD	1546389	wordpools/wasnorm_wordpool_less_exclusions.txt	LTP208	ltpFR	3	16	-1	AIRPORT	13	n/a	n/a	-1	1.0	1.0	1	upper	Verdana.ttf
3096.624	n/a	WORD	1548312	wordpools/wasnorm_wordpool_less_exclusions.txt	LTP208	ltpFR	3	16	-1	BIOLOGIST	128	n/a	n/a	-1	1.0	1.0	1	upper	Verdana.ttf
3100.834	n/a	WORD	1550417	wordpools/wasnorm_wordpool_less_exclusions.txt	LTP208	ltpFR	3	16	-1	MICROSCOPE	891	n/a	n/a	-1	1.0	1.0	1	upper	Verdana.ttf
3105.028	n/a	WORD	1552514	wordpools/wasnorm_wordpool_less_exclusions.txt	LTP208	ltpFR	3	16	-1	DOLLAR	482	n/a	n/a	-1	1.0	1.0	1	upper	Verdana.ttf
3108.904	n/a	WORD	1554452	wordpools/wasnorm_wordpool_less_exclusions.txt	LTP208	ltpFR	3	16	-1	ASHTRAY	45	n/a	n/a	-1	1.0	1.0	1	upper	Verdana.ttf
3112.968	n/a	WORD	1556484	wordpools/wasnorm_wordpool_less_exclusions.txt	LTP208	ltpFR	3	16	-1	PADDLE	1000	n/a	n/a	-1	1.0	1.0	1	upper	Verdana.ttf
3116.928	n/a	WORD	1558464	wordpools/wasnorm_wordpool_less_exclusions.txt	LTP208	ltpFR	3	16	-1	CREW	406	n/a	n/a	-1	1.0	1.0	1	upper	Verdana.ttf
3122.868	n/a	REC_START	1561434	n/a	LTP208	ltpFR	3	16	n/a	n/a	n/a	n/a	n/a	n/a	n/a	n/a	n/a	n/a	n/a
3123.502	n/a	REC_WORD	1561751	wordpools/wasnorm_wordpool_less_exclusions.txt	LTP208	ltpFR	3	16	-1	CREW	406	n/a	n/a	-1	n/a	n/a	n/a	n/a	n/a
3124.29	n/a	REC_WORD	1562145	wordpools/wasnorm_wordpool_less_exclusions.txt	LTP208	ltpFR	3	16	-1	PADDLE	1000	n/a	n/a	-1	n/a	n/a	n/a	n/a	n/a
3125.498	n/a	REC_WORD	1562749	wordpools/wasnorm_wordpool_less_exclusions.txt	LTP208	ltpFR	3	16	-1	CANDY	230	n/a	n/a	-1	n/a	n/a	n/a	n/a	n/a
3126.39	n/a	REC_WORD	1563195	wordpools/wasnorm_wordpool_less_exclusions.txt	LTP208	ltpFR	3	16	-1	STRAWBERRY	1391	n/a	n/a	-1	n/a	n/a	n/a	n/a	n/a
3132.356	n/a	REC_WORD	1566178	wordpools/wasnorm_wordpool_less_exclusions.txt	LTP208	ltpFR	3	16	0	DISH	474	n/a	n/a	0	n/a	n/a	n/a	n/a	n/a
3137.216	n/a	REC_WORD	1568608	wordpools/wasnorm_wordpool_less_exclusions.txt	LTP208	ltpFR	3	16	-1	CREW	406	n/a	n/a	-1	n/a	n/a	n/a	n/a	n/a
3141.042	n/a	REC_WORD	1570521	wordpools/wasnorm_wordpool_less_exclusions.txt	LTP208	ltpFR	3	16	-1	SWIMMER	1420	n/a	n/a	-1	n/a	n/a	n/a	n/a	n/a
3144.444	n/a	REC_WORD	1572222	wordpools/wasnorm_wordpool_less_exclusions.txt	LTP208	ltpFR	3	16	-1	AIRPORT	13	n/a	n/a	-1	n/a	n/a	n/a	n/a	n/a
3154.522	n/a	REC_WORD	1577261	wordpools/wasnorm_wordpool_less_exclusions.txt	LTP208	ltpFR	3	16	-1	PADDLE	1000	n/a	n/a	-1	n/a	n/a	n/a	n/a	n/a
3171.972	n/a	REC_WORD	1585986	wordpools/wasnorm_wordpool_less_exclusions.txt	LTP208	ltpFR	3	16	-1	DOLLAR	482	n/a	n/a	-1	n/a	n/a	n/a	n/a	n/a
3192.576	n/a	REC_WORD	1596288	wordpools/wasnorm_wordpool_less_exclusions.txt	LTP208	ltpFR	3	16	1	EMPEROR	529	n/a	n/a	1	n/a	n/a	n/a	n/a	n/a
3225.184	n/a	REC_START	1612592	n/a	LTP208	ltpFR	3	n/a	n/a	n/a	n/a	n/a	n/a	n/a	n/a	n/a	n/a	n/a	n/a
3235.276	n/a	FFR_REC_WORD	1617638	wordpools/wasnorm_wordpool_less_exclusions.txt	LTP208	ltpFR	3	n/a	-1	STRAWBERRY	1391	n/a	n/a	-1	n/a	n/a	n/a	n/a	n/a
3237.606	n/a	FFR_REC_WORD	1618803	wordpools/wasnorm_wordpool_less_exclusions.txt	LTP208	ltpFR	3	n/a	-1	DOLLAR	482	n/a	n/a	-1	n/a	n/a	n/a	n/a	n/a
3242.246	n/a	FFR_REC_WORD	1621123	wordpools/wasnorm_wordpool_less_exclusions.txt	LTP208	ltpFR	3	n/a	n/a	DEER	444	n/a	n/a	n/a	n/a	n/a	n/a	n/a	n/a
3245.044	n/a	FFR_REC_WORD	1622522	wordpools/wasnorm_wordpool_less_exclusions.txt	LTP208	ltpFR	3	n/a	-1	AIRPORT	13	n/a	n/a	-1	n/a	n/a	n/a	n/a	n/a
3248.276	n/a	FFR_REC_WORD	1624138	wordpools/wasnorm_wordpool_less_exclusions.txt	LTP208	ltpFR	3	n/a	-1	SWIMMER	1420	n/a	n/a	-1	n/a	n/a	n/a	n/a	n/a
3253.614	n/a	FFR_REC_WORD	1626807	wordpools/wasnorm_wordpool_less_exclusions.txt	LTP208	ltpFR	3	n/a	0	ACORN	3	n/a	n/a	0	n/a	n/a	n/a	n/a	n/a
3255.82	n/a	FFR_REC_WORD	1627910	wordpools/wasnorm_wordpool_less_exclusions.txt	LTP208	ltpFR	3	n/a	n/a	ELM	527	n/a	n/a	n/a	n/a	n/a	n/a	n/a	n/a
3260.554	n/a	FFR_REC_WORD	1630277	wordpools/wasnorm_wordpool_less_exclusions.txt	LTP208	ltpFR	3	n/a	-1	PUMPKIN	1142	n/a	n/a	-1	n/a	n/a	n/a	n/a	n/a
3262.46	n/a	FFR_REC_WORD	1631230	wordpools/wasnorm_wordpool_less_exclusions.txt	LTP208	ltpFR	3	n/a	-1	CUSTARD	429	n/a	n/a	-1	n/a	n/a	n/a	n/a	n/a
3264.136	n/a	FFR_REC_WORD	1632068	wordpools/wasnorm_wordpool_less_exclusions.txt	LTP208	ltpFR	3	n/a	-1	STRAWBERRY	1391	n/a	n/a	-1	n/a	n/a	n/a	n/a	n/a
3265.136	n/a	FFR_REC_WORD_VV	1632568	wordpools/wasnorm_wordpool_less_exclusions.txt	LTP208	ltpFR	3	n/a	n/a	<>	-1	n/a	n/a	n/a	n/a	n/a	n/a	n/a	n/a
3267.42	n/a	FFR_REC_WORD	1633710	wordpools/wasnorm_wordpool_less_exclusions.txt	LTP208	ltpFR	3	n/a	n/a	SOLDIER	1344	n/a	n/a	n/a	n/a	n/a	n/a	n/a	n/a
3276.07	n/a	FFR_REC_WORD	1638035	wordpools/wasnorm_wordpool_less_exclusions.txt	LTP208	ltpFR	3	n/a	-1	AIRPORT	13	n/a	n/a	-1	n/a	n/a	n/a	n/a	n/a
3277.232	n/a	FFR_REC_WORD	1638616	wordpools/wasnorm_wordpool_less_exclusions.txt	LTP208	ltpFR	3	n/a	1	TERMINAL	1450	n/a	n/a	0	n/a	n/a	n/a	n/a	n/a
3280.13	n/a	FFR_REC_WORD	1640065	wordpools/wasnorm_wordpool_less_exclusions.txt	LTP208	ltpFR	3	n/a	1	BROTHER	179	n/a	n/a	1	n/a	n/a	n/a	n/a	n/a
3281.782	n/a	FFR_REC_WORD	1640891	wordpools/wasnorm_wordpool_less_exclusions.txt	LTP208	ltpFR	3	n/a	0	FAMILY	550	n/a	n/a	1	n/a	n/a	n/a	n/a	n/a
3283.264	n/a	FFR_REC_WORD	1641632	wordpools/wasnorm_wordpool_less_exclusions.txt	LTP208	ltpFR	3	n/a	1	COMMUNITY	356	n/a	n/a	1	n/a	n/a	n/a	n/a	n/a
3285.928	n/a	FFR_REC_WORD	1642964	wordpools/wasnorm_wordpool_less_exclusions.txt	LTP208	ltpFR	3	n/a	-1	NAIL	936	n/a	n/a	-1	n/a	n/a	n/a	n/a	n/a
3288.522	n/a	FFR_REC_WORD	1644261	wordpools/wasnorm_wordpool_less_exclusions.txt	LTP208	ltpFR	3	n/a	-1	TACK	1428	n/a	n/a	-1	n/a	n/a	n/a	n/a	n/a
3290.212	n/a	FFR_REC_WORD	1645106	wordpools/wasnorm_wordpool_less_exclusions.txt	LTP208	ltpFR	3	n/a	-1	SHOVEL	1295	n/a	n/a	-1	n/a	n/a	n/a	n/a	n/a
3291.63	n/a	FFR_REC_WORD	1645815	wordpools/wasnorm_wordpool_less_exclusions.txt	LTP208	ltpFR	3	n/a	-1	HOE	711	n/a	n/a	-1	n/a	n/a	n/a	n/a	n/a
3296.392	n/a	FFR_REC_WORD	1648196	wordpools/wasnorm_wordpool_less_exclusions.txt	LTP208	ltpFR	3	n/a	1	FARM	552	n/a	n/a	0	n/a	n/a	n/a	n/a	n/a
3297.392	n/a	FFR_REC_WORD_VV	1648696	wordpools/wasnorm_wordpool_less_exclusions.txt	LTP208	ltpFR	3	n/a	n/a	<>	-1	n/a	n/a	n/a	n/a	n/a	n/a	n/a	n/a
3303.332	n/a	FFR_REC_WORD	1651666	wordpools/wasnorm_wordpool_less_exclusions.txt	LTP208	ltpFR	3	n/a	n/a	CABIN	211	n/a	n/a	n/a	n/a	n/a	n/a	n/a	n/a
3307.138	n/a	FFR_REC_WORD	1653569	wordpools/wasnorm_wordpool_less_exclusions.txt	LTP208	ltpFR	3	n/a	-1	TURNIP	1521	n/a	n/a	-1	n/a	n/a	n/a	n/a	n/a
3310.038	n/a	FFR_REC_WORD	1655019	wordpools/wasnorm_wordpool_less_exclusions.txt	LTP208	ltpFR	3	n/a	1	PARSLEY	1016	n/a	n/a	0	n/a	n/a	n/a	n/a	n/a
3318.174	n/a	FFR_REC_WORD_VV	1659087	wordpools/wasnorm_wordpool_less_exclusions.txt	LTP208	ltpFR	3	n/a	n/a	<>	-1	n/a	n/a	n/a	n/a	n/a	n/a	n/a	n/a
3334.746	n/a	FFR_REC_WORD	1667373	wordpools/wasnorm_wordpool_less_exclusions.txt	LTP208	ltpFR	3	n/a	0	JACKET	747	n/a	n/a	1	n/a	n/a	n/a	n/a	n/a
3347.274	n/a	FFR_REC_WORD	1673637	wordpools/wasnorm_wordpool_less_exclusions.txt	LTP208	ltpFR	3	n/a	1	EMPEROR	529	n/a	n/a	1	n/a	n/a	n/a	n/a	n/a
3352.782	n/a	FFR_REC_WORD	1676391	wordpools/wasnorm_wordpool_less_exclusions.txt	LTP208	ltpFR	3	n/a	1	ATTIC	56	n/a	n/a	0	n/a	n/a	n/a	n/a	n/a
3364.982	n/a	FFR_REC_WORD	1682491	wordpools/wasnorm_wordpool_less_exclusions.txt	LTP208	ltpFR	3	n/a	n/a	DIRT	472	n/a	n/a	n/a	n/a	n/a	n/a	n/a	n/a
3365.258	n/a	FFR_REC_WORD	1682629	wordpools/wasnorm_wordpool_less_exclusions.txt	LTP208	ltpFR	3	n/a	-1	SHOVEL	1295	n/a	n/a	-1	n/a	n/a	n/a	n/a	n/a
3365.908	n/a	FFR_REC_WORD	1682954	wordpools/wasnorm_wordpool_less_exclusions.txt	LTP208	ltpFR	3	n/a	-1	HOE	711	n/a	n/a	-1	n/a	n/a	n/a	n/a	n/a
3370.516	n/a	FFR_REC_WORD	1685258	wordpools/wasnorm_wordpool_less_exclusions.txt	LTP208	ltpFR	3	n/a	-1	MICROSCOPE	891	n/a	n/a	-1	n/a	n/a	n/a	n/a	n/a
3371.516	n/a	FFR_REC_WORD_VV	1685758	wordpools/wasnorm_wordpool_less_exclusions.txt	LTP208	ltpFR	3	n/a	n/a	<>	-1	n/a	n/a	n/a	n/a	n/a	n/a	n/a	n/a
3372.84	n/a	FFR_REC_WORD	1686420	wordpools/wasnorm_wordpool_less_exclusions.txt	LTP208	ltpFR	3	n/a	-1	BIOLOGIST	128	n/a	n/a	-1	n/a	n/a	n/a	n/a	n/a
3373.84	n/a	FFR_REC_WORD_VV	1686920	wordpools/wasnorm_wordpool_less_exclusions.txt	LTP208	ltpFR	3	n/a	n/a	<>	-1	n/a	n/a	n/a	n/a	n/a	n/a	n/a	n/a
3378.648	n/a	FFR_REC_WORD	1689324	wordpools/wasnorm_wordpool_less_exclusions.txt	LTP208	ltpFR	3	n/a	0	UNCLE	1536	n/a	n/a	3	n/a	n/a	n/a	n/a	n/a
3391.708	n/a	FFR_REC_WORD	1695854	wordpools/wasnorm_wordpool_less_exclusions.txt	LTP208	ltpFR	3	n/a	1	TYPEWRITER	1531	n/a	n/a	0	n/a	n/a	n/a	n/a	n/a
3499.7	n/a	FFR_REC_WORD_VV	1749850	wordpools/wasnorm_wordpool_less_exclusions.txt	LTP208	ltpFR	3	n/a	n/a	<>	-1	n/a	n/a	n/a	n/a	n/a	n/a	n/a	n/a
3500.7	n/a	FFR_REC_WORD_VV	1750350	wordpools/wasnorm_wordpool_less_exclusions.txt	LTP208	ltpFR	3	n/a	n/a	<>	-1	n/a	n/a	n/a	n/a	n/a	n/a	n/a	n/a
3501.7	n/a	FFR_REC_WORD_VV	1750850	wordpools/wasnorm_wordpool_less_exclusions.txt	LTP208	ltpFR	3	n/a	n/a	<>	-1	n/a	n/a	n/a	n/a	n/a	n/a	n/a	n/a
3502.7	n/a	FFR_REC_WORD_VV	1751350	wordpools/wasnorm_wordpool_less_exclusions.txt	LTP208	ltpFR	3	n/a	n/a	<>	-1	n/a	n/a	n/a	n/a	n/a	n/a	n/a	n/a
3503.7	n/a	FFR_REC_WORD_VV	1751850	wordpools/wasnorm_wordpool_less_exclusions.txt	LTP208	ltpFR	3	n/a	n/a	<>	-1	n/a	n/a	n/a	n/a	n/a	n/a	n/a	n/a
3504.7	n/a	FFR_REC_WORD_VV	1752350	wordpools/wasnorm_wordpool_less_exclusions.txt	LTP208	ltpFR	3	n/a	n/a	<>	-1	n/a	n/a	n/a	n/a	n/a	n/a	n/a	n/a
3505.7	n/a	FFR_REC_WORD_VV	1752850	wordpools/wasnorm_wordpool_less_exclusions.txt	LTP208	ltpFR	3	n/a	n/a	<>	-1	n/a	n/a	n/a	n/a	n/a	n/a	n/a	n/a
3506.7	n/a	FFR_REC_WORD_VV	1753350	wordpools/wasnorm_wordpool_less_exclusions.txt	LTP208	ltpFR	3	n/a	n/a	<>	-1	n/a	n/a	n/a	n/a	n/a	n/a	n/a	n/a
3507.7	n/a	FFR_REC_WORD_VV	1753850	wordpools/wasnorm_wordpool_less_exclusions.txt	LTP208	ltpFR	3	n/a	n/a	<>	-1	n/a	n/a	n/a	n/a	n/a	n/a	n/a	n/a
3508.7	n/a	FFR_REC_WORD_VV	1754350	wordpools/wasnorm_wordpool_less_exclusions.txt	LTP208	ltpFR	3	n/a	n/a	<>	-1	n/a	n/a	n/a	n/a	n/a	n/a	n/a	n/a
3509.7	n/a	FFR_REC_WORD_VV	1754850	wordpools/wasnorm_wordpool_less_exclusions.txt	LTP208	ltpFR	3	n/a	n/a	<>	-1	n/a	n/a	n/a	n/a	n/a	n/a	n/a	n/a
3510.7	n/a	FFR_REC_WORD_VV	1755350	wordpools/wasnorm_wordpool_less_exclusions.txt	LTP208	ltpFR	3	n/a	n/a	<>	-1	n/a	n/a	n/a	n/a	n/a	n/a	n/a	n/a
3511.7	n/a	FFR_REC_WORD_VV	1755850	wordpools/wasnorm_wordpool_less_exclusions.txt	LTP208	ltpFR	3	n/a	n/a	<>	-1	n/a	n/a	n/a	n/a	n/a	n/a	n/a	n/a
3512.7	n/a	FFR_REC_WORD_VV	1756350	wordpools/wasnorm_wordpool_less_exclusions.txt	LTP208	ltpFR	3	n/a	n/a	<>	-1	n/a	n/a	n/a	n/a	n/a	n/a	n/a	n/a
3513.7	n/a	FFR_REC_WORD_VV	1756850	wordpools/wasnorm_wordpool_less_exclusions.txt	LTP208	ltpFR	3	n/a	n/a	<>	-1	n/a	n/a	n/a	n/a	n/a	n/a	n/a	n/a
3514.7	n/a	FFR_REC_WORD_VV	1757350	wordpools/wasnorm_wordpool_less_exclusions.txt	LTP208	ltpFR	3	n/a	n/a	<>	-1	n/a	n/a	n/a	n/a	n/a	n/a	n/a	n/a
3515.7	n/a	FFR_REC_WORD_VV	1757850	wordpools/wasnorm_wordpool_less_exclusions.txt	LTP208	ltpFR	3	n/a	n/a	<>	-1	n/a	n/a	n/a	n/a	n/a	n/a	n/a	n/a
3516.7	n/a	FFR_REC_WORD_VV	1758350	wordpools/wasnorm_wordpool_less_exclusions.txt	LTP208	ltpFR	3	n/a	n/a	<>	-1	n/a	n/a	n/a	n/a	n/a	n/a	n/a	n/a
3517.7	n/a	FFR_REC_WORD_VV	1758850	wordpools/wasnorm_wordpool_less_exclusions.txt	LTP208	ltpFR	3	n/a	n/a	<>	-1	n/a	n/a	n/a	n/a	n/a	n/a	n/a	n/a
3518.7	n/a	FFR_REC_WORD_VV	1759350	wordpools/wasnorm_wordpool_less_exclusions.txt	LTP208	ltpFR	3	n/a	n/a	<>	-1	n/a	n/a	n/a	n/a	n/a	n/a	n/a	n/a
3519.7	n/a	FFR_REC_WORD_VV	1759850	wordpools/wasnorm_wordpool_less_exclusions.txt	LTP208	ltpFR	3	n/a	n/a	<>	-1	n/a	n/a	n/a	n/a	n/a	n/a	n/a	n/a
3520.7	n/a	FFR_REC_WORD_VV	1760350	wordpools/wasnorm_wordpool_less_exclusions.txt	LTP208	ltpFR	3	n/a	n/a	<>	-1	n/a	n/a	n/a	n/a	n/a	n/a	n/a	n/a
3521.7	n/a	FFR_REC_WORD_VV	1760850	wordpools/wasnorm_wordpool_less_exclusions.txt	LTP208	ltpFR	3	n/a	n/a	<>	-1	n/a	n/a	n/a	n/a	n/a	n/a	n/a	n/a
3522.7	n/a	FFR_REC_WORD_VV	1761350	wordpools/wasnorm_wordpool_less_exclusions.txt	LTP208	ltpFR	3	n/a	n/a	<>	-1	n/a	n/a	n/a	n/a	n/a	n/a	n/a	n/a
3523.7	n/a	FFR_REC_WORD_VV	1761850	wordpools/wasnorm_wordpool_less_exclusions.txt	LTP208	ltpFR	3	n/a	n/a	<>	-1	n/a	n/a	n/a	n/a	n/a	n/a	n/a	n/a
3524.7	n/a	FFR_REC_WORD_VV	1762350	wordpools/wasnorm_wordpool_less_exclusions.txt	LTP208	ltpFR	3	n/a	n/a	<>	-1	n/a	n/a	n/a	n/a	n/a	n/a	n/a	n/a
3587.83	n/a	REC_START	1793915	n/a	LTP208	ltpFR	3	1	n/a	n/a	n/a	n/a	n/a	n/a	n/a	n/a	n/a	n/a	n/a
3587.862	n/a	RECOG_LURE	1793931	n/a	LTP208	ltpFR	3	1	n/a	VESSEL	1558	0	4	n/a	n/a	n/a	n/a	n/a	n/a
3589.09	n/a	RECOG_RESP	1794545	n/a	LTP208	ltpFR	3	1	n/a	VESSEL	1558	0	n/a	n/a	n/a	n/a	n/a	n/a	n/a
3590.024	n/a	RECOG_RESP_VV	1795012	n/a	LTP208	ltpFR	3	1	n/a	VESSEL	1558	n/a	4	n/a	n/a	n/a	n/a	n/a	n/a
3592.056	n/a	RECOG_CONF	1796028	n/a	LTP208	ltpFR	3	1	n/a	VESSEL	1558	n/a	4	n/a	n/a	n/a	n/a	n/a	n/a
3593.954	n/a	RECOG_LURE	1796977	n/a	LTP208	ltpFR	3	1	n/a	BIKE	125	0	3	n/a	n/a	n/a	n/a	n/a	n/a
3595.26	n/a	RECOG_RESP	1797630	n/a	LTP208	ltpFR	3	1	n/a	BIKE	125	0	n/a	n/a	n/a	n/a	n/a	n/a	n/a
3596.398	n/a	RECOG_CONF	1798199	n/a	LTP208	ltpFR	3	1	n/a	BIKE	125	n/a	3	n/a	n/a	n/a	n/a	n/a	n/a
3598.364	n/a	RECOG_TARGET	1799182	n/a	LTP208	ltpFR	3	1	1	ELK	526	1	5	1	n/a	n/a	n/a	n/a	n/a
3599.458	n/a	RECOG_RESP	1799729	n/a	LTP208	ltpFR	3	1	1	ELK	526	1	n/a	1	n/a	n/a	n/a	n/a	n/a
3600.412	n/a	RECOG_CONF	1800206	n/a	LTP208	ltpFR	3	1	1	ELK	526	n/a	5	1	n/a	n/a	n/a	n/a	n/a
3602.01	n/a	RECOG_TARGET	1801005	n/a	LTP208	ltpFR	3	1	1	EMPEROR	529	1	5	1	n/a	n/a	n/a	n/a	n/a
3602.72	n/a	RECOG_RESP	1801360	n/a	LTP208	ltpFR	3	1	1	EMPEROR	529	1	n/a	1	n/a	n/a	n/a	n/a	n/a
3603.582	n/a	RECOG_CONF	1801791	n/a	LTP208	ltpFR	3	1	1	EMPEROR	529	n/a	5	1	n/a	n/a	n/a	n/a	n/a
3605.47	n/a	RECOG_TARGET	1802735	n/a	LTP208	ltpFR	3	1	0	PELICAN	1039	1	4	1	n/a	n/a	n/a	n/a	n/a
3606.158	n/a	RECOG_RESP	1803079	n/a	LTP208	ltpFR	3	1	0	PELICAN	1039	1	n/a	1	n/a	n/a	n/a	n/a	n/a
3607.228	n/a	RECOG_CONF	1803614	n/a	LTP208	ltpFR	3	1	0	PELICAN	1039	n/a	4	1	n/a	n/a	n/a	n/a	n/a
3608.898	n/a	RECOG_TARGET	1804449	n/a	LTP208	ltpFR	3	1	0	CIRCUS	311	1	5	1	n/a	n/a	n/a	n/a	n/a
3609.68	n/a	RECOG_RESP	1804840	n/a	LTP208	ltpFR	3	1	0	CIRCUS	311	1	n/a	1	n/a	n/a	n/a	n/a	n/a
3610.614	n/a	RECOG_CONF	1805307	n/a	LTP208	ltpFR	3	1	0	CIRCUS	311	n/a	5	1	n/a	n/a	n/a	n/a	n/a
3612.492	n/a	RECOG_TARGET	1806246	n/a	LTP208	ltpFR	3	1	0	PLASTER	1085	1	5	0	n/a	n/a	n/a	n/a	n/a
3613.126	n/a	RECOG_RESP	1806563	n/a	LTP208	ltpFR	3	1	0	PLASTER	1085	1	n/a	0	n/a	n/a	n/a	n/a	n/a
3614.046	n/a	RECOG_CONF	1807023	n/a	LTP208	ltpFR	3	1	0	PLASTER	1085	n/a	5	0	n/a	n/a	n/a	n/a	n/a
3615.838	n/a	RECOG_LURE	1807919	n/a	LTP208	ltpFR	3	1	n/a	KID	775	0	4	n/a	n/a	n/a	n/a	n/a	n/a
3616.528	n/a	RECOG_RESP	1808264	n/a	LTP208	ltpFR	3	1	n/a	KID	775	0	n/a	n/a	n/a	n/a	n/a	n/a	n/a
3617.462	n/a	RECOG_CONF	1808731	n/a	LTP208	ltpFR	3	1	n/a	KID	775	n/a	4	n/a	n/a	n/a	n/a	n/a	n/a
3619.332	n/a	RECOG_TARGET	1809666	n/a	LTP208	ltpFR	3	1	0	SHED	1277	1	5	1	n/a	n/a	n/a	n/a	n/a
3620.018	n/a	RECOG_RESP	1810009	n/a	LTP208	ltpFR	3	1	0	SHED	1277	1	n/a	1	n/a	n/a	n/a	n/a	n/a
3620.906	n/a	RECOG_CONF	1810453	n/a	LTP208	ltpFR	3	1	0	SHED	1277	n/a	5	1	n/a	n/a	n/a	n/a	n/a
3622.744	n/a	RECOG_TARGET	1811372	n/a	LTP208	ltpFR	3	1	0	DETERGENT	455	1	5	1	n/a	n/a	n/a	n/a	n/a
3623.49	n/a	RECOG_RESP	1811745	n/a	LTP208	ltpFR	3	1	0	DETERGENT	455	1	n/a	1	n/a	n/a	n/a	n/a	n/a
3624.382	n/a	RECOG_CONF	1812191	n/a	LTP208	ltpFR	3	1	0	DETERGENT	455	n/a	5	1	n/a	n/a	n/a	n/a	n/a
3626.14	n/a	RECOG_LURE	1813070	n/a	LTP208	ltpFR	3	1	n/a	ORCHID	982	0	4	n/a	n/a	n/a	n/a	n/a	n/a
3627.234	n/a	RECOG_RESP	1813617	n/a	LTP208	ltpFR	3	1	n/a	ORCHID	982	0	n/a	n/a	n/a	n/a	n/a	n/a	n/a
3628.124	n/a	RECOG_CONF	1814062	n/a	LTP208	ltpFR	3	1	n/a	ORCHID	982	n/a	4	n/a	n/a	n/a	n/a	n/a	n/a
3629.95	n/a	RECOG_TARGET	1814975	n/a	LTP208	ltpFR	3	1	-1	NOTEBOOK	959	1	5	-1	n/a	n/a	n/a	n/a	n/a
3630.618	n/a	RECOG_RESP	1815309	n/a	LTP208	ltpFR	3	1	-1	NOTEBOOK	959	1	n/a	-1	n/a	n/a	n/a	n/a	n/a
3631.458	n/a	RECOG_CONF	1815729	n/a	LTP208	ltpFR	3	1	-1	NOTEBOOK	959	n/a	5	-1	n/a	n/a	n/a	n/a	n/a
3633.23	n/a	RECOG_LURE	1816615	n/a	LTP208	ltpFR	3	1	n/a	RACKET	1155	0	4	n/a	n/a	n/a	n/a	n/a	n/a
3634.212	n/a	RECOG_RESP	1817106	n/a	LTP208	ltpFR	3	1	n/a	RACKET	1155	0	n/a	n/a	n/a	n/a	n/a	n/a	n/a
3635.168	n/a	RECOG_CONF	1817584	n/a	LTP208	ltpFR	3	1	n/a	RACKET	1155	n/a	4	n/a	n/a	n/a	n/a	n/a	n/a
3636.958	n/a	RECOG_TARGET	1818479	n/a	LTP208	ltpFR	3	1	0	WHALE	1601	1	4	1	n/a	n/a	n/a	n/a	n/a
3638.616	n/a	RECOG_RESP	1819308	n/a	LTP208	ltpFR	3	1	0	WHALE	1601	1	n/a	1	n/a	n/a	n/a	n/a	n/a
3639.472	n/a	RECOG_CONF	1819736	n/a	LTP208	ltpFR	3	1	0	WHALE	1601	n/a	4	1	n/a	n/a	n/a	n/a	n/a
3641.136	n/a	RECOG_LURE	1820568	n/a	LTP208	ltpFR	3	1	n/a	TOMB	1477	0	4	n/a	n/a	n/a	n/a	n/a	n/a
3642.064	n/a	RECOG_RESP	1821032	n/a	LTP208	ltpFR	3	1	n/a	TOMB	1477	0	n/a	n/a	n/a	n/a	n/a	n/a	n/a
3643.08	n/a	RECOG_CONF	1821540	n/a	LTP208	ltpFR	3	1	n/a	TOMB	1477	n/a	4	n/a	n/a	n/a	n/a	n/a	n/a
3645.096	n/a	RECOG_TARGET	1822548	n/a	LTP208	ltpFR	3	1	0	POCKET	1093	1	5	0	n/a	n/a	n/a	n/a	n/a
3645.682	n/a	RECOG_RESP	1822841	n/a	LTP208	ltpFR	3	1	0	POCKET	1093	1	n/a	0	n/a	n/a	n/a	n/a	n/a
3646.622	n/a	RECOG_CONF	1823311	n/a	LTP208	ltpFR	3	1	0	POCKET	1093	n/a	5	0	n/a	n/a	n/a	n/a	n/a
3648.606	n/a	RECOG_TARGET	1824303	n/a	LTP208	ltpFR	3	1	-1	MICROSCOPE	891	1	5	-1	n/a	n/a	n/a	n/a	n/a
3649.27	n/a	RECOG_RESP	1824635	n/a	LTP208	ltpFR	3	1	-1	MICROSCOPE	891	1	n/a	-1	n/a	n/a	n/a	n/a	n/a
3650.162	n/a	RECOG_CONF	1825081	n/a	LTP208	ltpFR	3	1	-1	MICROSCOPE	891	n/a	5	-1	n/a	n/a	n/a	n/a	n/a
3652.118	n/a	RECOG_TARGET	1826059	n/a	LTP208	ltpFR	3	1	-1	FARMER	553	1	5	-1	n/a	n/a	n/a	n/a	n/a
3652.804	n/a	RECOG_RESP	1826402	n/a	LTP208	ltpFR	3	1	-1	FARMER	553	1	n/a	-1	n/a	n/a	n/a	n/a	n/a
3653.682	n/a	RECOG_CONF	1826841	n/a	LTP208	ltpFR	3	1	-1	FARMER	553	n/a	5	-1	n/a	n/a	n/a	n/a	n/a
3655.68	n/a	RECOG_TARGET	1827840	n/a	LTP208	ltpFR	3	1	1	BANANA	77	1	4	0	n/a	n/a	n/a	n/a	n/a
3656.96	n/a	RECOG_RESP	1828480	n/a	LTP208	ltpFR	3	1	1	BANANA	77	1	n/a	0	n/a	n/a	n/a	n/a	n/a
3657.944	n/a	RECOG_CONF	1828972	n/a	LTP208	ltpFR	3	1	1	BANANA	77	n/a	4	0	n/a	n/a	n/a	n/a	n/a
3660.008	n/a	RECOG_LURE	1830004	n/a	LTP208	ltpFR	3	1	n/a	SUBWAY	1400	0	4	n/a	n/a	n/a	n/a	n/a	n/a
3661.036	n/a	RECOG_RESP	1830518	n/a	LTP208	ltpFR	3	1	n/a	SUBWAY	1400	0	n/a	n/a	n/a	n/a	n/a	n/a	n/a
3662.018	n/a	RECOG_CONF	1831009	n/a	LTP208	ltpFR	3	1	n/a	SUBWAY	1400	n/a	4	n/a	n/a	n/a	n/a	n/a	n/a
3668.914	n/a	REC_START	1834457	n/a	LTP208	ltpFR	3	2	n/a	n/a	n/a	n/a	n/a	n/a	n/a	n/a	n/a	n/a	n/a
3668.942	n/a	RECOG_LURE	1834471	n/a	LTP208	ltpFR	3	2	n/a	CEREAL	272	0	4	n/a	n/a	n/a	n/a	n/a	n/a
3670.068	n/a	RECOG_RESP	1835034	n/a	LTP208	ltpFR	3	2	n/a	CEREAL	272	0	n/a	n/a	n/a	n/a	n/a	n/a	n/a
3671.04	n/a	RECOG_CONF	1835520	n/a	LTP208	ltpFR	3	2	n/a	CEREAL	272	n/a	4	n/a	n/a	n/a	n/a	n/a	n/a
3672.754	n/a	RECOG_TARGET	1836377	n/a	LTP208	ltpFR	3	2	1	HORNET	718	1	5	1	n/a	n/a	n/a	n/a	n/a
3673.606	n/a	RECOG_RESP	1836803	n/a	LTP208	ltpFR	3	2	1	HORNET	718	1	n/a	1	n/a	n/a	n/a	n/a	n/a
3674.506	n/a	RECOG_CONF	1837253	n/a	LTP208	ltpFR	3	2	1	HORNET	718	n/a	5	1	n/a	n/a	n/a	n/a	n/a
3676.682	n/a	RECOG_TARGET	1838341	n/a	LTP208	ltpFR	3	2	0	CANVAS	234	1	4	0	n/a	n/a	n/a	n/a	n/a
3677.518	n/a	RECOG_RESP	1838759	n/a	LTP208	ltpFR	3	2	0	CANVAS	234	1	n/a	0	n/a	n/a	n/a	n/a	n/a
3678.324	n/a	RECOG_CONF	1839162	n/a	LTP208	ltpFR	3	2	0	CANVAS	234	n/a	4	0	n/a	n/a	n/a	n/a	n/a
3680.36	n/a	RECOG_LURE	1840180	n/a	LTP208	ltpFR	3	2	n/a	CYCLONE	431	1	4	n/a	n/a	n/a	n/a	n/a	n/a
3681.242	n/a	RECOG_RESP	1840621	n/a	LTP208	ltpFR	3	2	n/a	CYCLONE	431	1	n/a	n/a	n/a	n/a	n/a	n/a	n/a
3682.342	n/a	RECOG_CONF	1841171	n/a	LTP208	ltpFR	3	2	n/a	CYCLONE	431	n/a	4	n/a	n/a	n/a	n/a	n/a	n/a
3684.27	n/a	RECOG_TARGET	1842135	n/a	LTP208	ltpFR	3	2	0	LANDSCAPE	799	1	5	1	n/a	n/a	n/a	n/a	n/a
3685.032	n/a	RECOG_RESP	1842516	n/a	LTP208	ltpFR	3	2	0	LANDSCAPE	799	1	n/a	1	n/a	n/a	n/a	n/a	n/a
3685.99	n/a	RECOG_CONF	1842995	n/a	LTP208	ltpFR	3	2	0	LANDSCAPE	799	n/a	5	1	n/a	n/a	n/a	n/a	n/a
3688.082	n/a	RECOG_LURE	1844041	n/a	LTP208	ltpFR	3	2	n/a	CALCULATOR	220	0	4	n/a	n/a	n/a	n/a	n/a	n/a
3689.222	n/a	RECOG_RESP	1844611	n/a	LTP208	ltpFR	3	2	n/a	CALCULATOR	220	0	n/a	n/a	n/a	n/a	n/a	n/a	n/a
3690.13	n/a	RECOG_CONF	1845065	n/a	LTP208	ltpFR	3	2	n/a	CALCULATOR	220	n/a	4	n/a	n/a	n/a	n/a	n/a	n/a
3692.026	n/a	RECOG_TARGET	1846013	n/a	LTP208	ltpFR	3	2	0	JACKET	747	1	5	1	n/a	n/a	n/a	n/a	n/a
3692.722	n/a	RECOG_RESP	1846361	n/a	LTP208	ltpFR	3	2	0	JACKET	747	1	n/a	1	n/a	n/a	n/a	n/a	n/a
3693.484	n/a	RECOG_CONF	1846742	n/a	LTP208	ltpFR	3	2	0	JACKET	747	n/a	5	1	n/a	n/a	n/a	n/a	n/a
3695.404	n/a	RECOG_LURE	1847702	n/a	LTP208	ltpFR	3	2	n/a	GRIZZLY	662	0	4	n/a	n/a	n/a	n/a	n/a	n/a
3696.296	n/a	RECOG_RESP	1848148	n/a	LTP208	ltpFR	3	2	n/a	GRIZZLY	662	0	n/a	n/a	n/a	n/a	n/a	n/a	n/a
3697.296	n/a	RECOG_CONF	1848648	n/a	LTP208	ltpFR	3	2	n/a	GRIZZLY	662	n/a	4	n/a	n/a	n/a	n/a	n/a	n/a
3699.298	n/a	RECOG_TARGET	1849649	n/a	LTP208	ltpFR	3	2	1	ANTEATER	26	1	5	0	n/a	n/a	n/a	n/a	n/a
3700.192	n/a	RECOG_RESP	1850096	n/a	LTP208	ltpFR	3	2	1	ANTEATER	26	1	n/a	0	n/a	n/a	n/a	n/a	n/a
3701.076	n/a	RECOG_CONF	1850538	n/a	LTP208	ltpFR	3	2	1	ANTEATER	26	n/a	5	0	n/a	n/a	n/a	n/a	n/a
3703.01	n/a	RECOG_TARGET	1851505	n/a	LTP208	ltpFR	3	2	-1	ELEPHANT	523	1	5	-1	n/a	n/a	n/a	n/a	n/a
3703.772	n/a	RECOG_RESP	1851886	n/a	LTP208	ltpFR	3	2	-1	ELEPHANT	523	1	n/a	-1	n/a	n/a	n/a	n/a	n/a
3704.636	n/a	RECOG_CONF	1852318	n/a	LTP208	ltpFR	3	2	-1	ELEPHANT	523	n/a	5	-1	n/a	n/a	n/a	n/a	n/a
3706.504	n/a	RECOG_LURE	1853252	n/a	LTP208	ltpFR	3	2	n/a	DISHWASHER	475	0	4	n/a	n/a	n/a	n/a	n/a	n/a
3707.686	n/a	RECOG_RESP	1853843	n/a	LTP208	ltpFR	3	2	n/a	DISHWASHER	475	0	n/a	n/a	n/a	n/a	n/a	n/a	n/a
3708.81	n/a	RECOG_CONF	1854405	n/a	LTP208	ltpFR	3	2	n/a	DISHWASHER	475	n/a	4	n/a	n/a	n/a	n/a	n/a	n/a
3710.682	n/a	RECOG_TARGET	1855341	n/a	LTP208	ltpFR	3	2	0	KIWI	781	1	5	0	n/a	n/a	n/a	n/a	n/a
3711.548	n/a	RECOG_RESP	1855774	n/a	LTP208	ltpFR	3	2	0	KIWI	781	1	n/a	0	n/a	n/a	n/a	n/a	n/a
3712.456	n/a	RECOG_CONF	1856228	n/a	LTP208	ltpFR	3	2	0	KIWI	781	n/a	5	0	n/a	n/a	n/a	n/a	n/a
3714.228	n/a	RECOG_TARGET	1857114	n/a	LTP208	ltpFR	3	2	-1	BRAN	167	1	4	-1	n/a	n/a	n/a	n/a	n/a
3715.234	n/a	RECOG_RESP	1857617	n/a	LTP208	ltpFR	3	2	-1	BRAN	167	1	n/a	-1	n/a	n/a	n/a	n/a	n/a
3716.246	n/a	RECOG_CONF	1858123	n/a	LTP208	ltpFR	3	2	-1	BRAN	167	n/a	4	-1	n/a	n/a	n/a	n/a	n/a
3718.038	n/a	RECOG_TARGET	1859019	n/a	LTP208	ltpFR	3	2	1	CHICKEN	297	1	4	1	n/a	n/a	n/a	n/a	n/a
3718.808	n/a	RECOG_RESP	1859404	n/a	LTP208	ltpFR	3	2	1	CHICKEN	297	1	n/a	1	n/a	n/a	n/a	n/a	n/a
3719.776	n/a	RECOG_CONF	1859888	n/a	LTP208	ltpFR	3	2	1	CHICKEN	297	n/a	4	1	n/a	n/a	n/a	n/a	n/a
3721.632	n/a	RECOG_LURE	1860816	n/a	LTP208	ltpFR	3	2	n/a	MAT	877	0	4	n/a	n/a	n/a	n/a	n/a	n/a
3722.628	n/a	RECOG_RESP	1861314	n/a	LTP208	ltpFR	3	2	n/a	MAT	877	0	n/a	n/a	n/a	n/a	n/a	n/a	n/a
3723.63	n/a	RECOG_CONF	1861815	n/a	LTP208	ltpFR	3	2	n/a	MAT	877	n/a	4	n/a	n/a	n/a	n/a	n/a	n/a
3725.31	n/a	RECOG_TARGET	1862655	n/a	LTP208	ltpFR	3	2	-1	PADDLE	1000	1	5	-1	n/a	n/a	n/a	n/a	n/a
3726.18	n/a	RECOG_RESP	1863090	n/a	LTP208	ltpFR	3	2	-1	PADDLE	1000	1	n/a	-1	n/a	n/a	n/a	n/a	n/a
3726.996	n/a	RECOG_CONF	1863498	n/a	LTP208	ltpFR	3	2	-1	PADDLE	1000	n/a	5	-1	n/a	n/a	n/a	n/a	n/a
3728.938	n/a	RECOG_TARGET	1864469	n/a	LTP208	ltpFR	3	2	-1	SCROLL	1257	1	3	-1	n/a	n/a	n/a	n/a	n/a
3729.99	n/a	RECOG_RESP	1864995	n/a	LTP208	ltpFR	3	2	-1	SCROLL	1257	1	n/a	-1	n/a	n/a	n/a	n/a	n/a
3730.8	n/a	RECOG_CONF	1865400	n/a	LTP208	ltpFR	3	2	-1	SCROLL	1257	n/a	3	-1	n/a	n/a	n/a	n/a	n/a
3732.666	n/a	RECOG_TARGET	1866333	n/a	LTP208	ltpFR	3	2	0	PUPPY	1144	1	5	1	n/a	n/a	n/a	n/a	n/a
3733.36	n/a	RECOG_RESP	1866680	n/a	LTP208	ltpFR	3	2	0	PUPPY	1144	1	n/a	1	n/a	n/a	n/a	n/a	n/a
3734.144	n/a	RECOG_CONF	1867072	n/a	LTP208	ltpFR	3	2	0	PUPPY	1144	n/a	5	1	n/a	n/a	n/a	n/a	n/a
3736.162	n/a	RECOG_TARGET	1868081	n/a	LTP208	ltpFR	3	2	0	COLONEL	348	1	5	3	n/a	n/a	n/a	n/a	n/a
3736.824	n/a	RECOG_RESP	1868412	n/a	LTP208	ltpFR	3	2	0	COLONEL	348	1	n/a	3	n/a	n/a	n/a	n/a	n/a
3737.694	n/a	RECOG_CONF	1868847	n/a	LTP208	ltpFR	3	2	0	COLONEL	348	n/a	5	3	n/a	n/a	n/a	n/a	n/a
3739.654	n/a	RECOG_TARGET	1869827	n/a	LTP208	ltpFR	3	2	1	TYPEWRITER	1531	1	5	0	n/a	n/a	n/a	n/a	n/a
3740.398	n/a	RECOG_RESP	1870199	n/a	LTP208	ltpFR	3	2	1	TYPEWRITER	1531	1	n/a	0	n/a	n/a	n/a	n/a	n/a
3741.334	n/a	RECOG_CONF	1870667	n/a	LTP208	ltpFR	3	2	1	TYPEWRITER	1531	n/a	5	0	n/a	n/a	n/a	n/a	n/a
3746.038	n/a	REC_START	1873019	n/a	LTP208	ltpFR	3	3	n/a	n/a	n/a	n/a	n/a	n/a	n/a	n/a	n/a	n/a	n/a
3746.08	n/a	RECOG_TARGET	1873040	n/a	LTP208	ltpFR	3	3	0	UNIFORM	1539	1	4	1	n/a	n/a	n/a	n/a	n/a
3747.224	n/a	RECOG_RESP	1873612	n/a	LTP208	ltpFR	3	3	0	UNIFORM	1539	1	n/a	1	n/a	n/a	n/a	n/a	n/a
3748.108	n/a	RECOG_CONF	1874054	n/a	LTP208	ltpFR	3	3	0	UNIFORM	1539	n/a	4	1	n/a	n/a	n/a	n/a	n/a
3749.956	n/a	RECOG_TARGET	1874978	n/a	LTP208	ltpFR	3	3	1	CASTLE	256	1	5	0	n/a	n/a	n/a	n/a	n/a
3750.684	n/a	RECOG_RESP	1875342	n/a	LTP208	ltpFR	3	3	1	CASTLE	256	1	n/a	0	n/a	n/a	n/a	n/a	n/a
3751.49	n/a	RECOG_CONF	1875745	n/a	LTP208	ltpFR	3	3	1	CASTLE	256	n/a	5	0	n/a	n/a	n/a	n/a	n/a
3753.352	n/a	RECOG_TARGET	1876676	n/a	LTP208	ltpFR	3	3	1	ATTIC	56	1	5	0	n/a	n/a	n/a	n/a	n/a
3754.034	n/a	RECOG_RESP	1877017	n/a	LTP208	ltpFR	3	3	1	ATTIC	56	1	n/a	0	n/a	n/a	n/a	n/a	n/a
3754.868	n/a	RECOG_CONF	1877434	n/a	LTP208	ltpFR	3	3	1	ATTIC	56	n/a	5	0	n/a	n/a	n/a	n/a	n/a
3756.896	n/a	RECOG_TARGET	1878448	n/a	LTP208	ltpFR	3	3	1	BAY	102	0	4	0	n/a	n/a	n/a	n/a	n/a
3758.116	n/a	RECOG_RESP	1879058	n/a	LTP208	ltpFR	3	3	1	BAY	102	0	n/a	0	n/a	n/a	n/a	n/a	n/a
3759.074	n/a	RECOG_CONF	1879537	n/a	LTP208	ltpFR	3	3	1	BAY	102	n/a	4	0	n/a	n/a	n/a	n/a	n/a
3760.94	n/a	RECOG_TARGET	1880470	n/a	LTP208	ltpFR	3	3	1	CABOOSE	214	1	5	1	n/a	n/a	n/a	n/a	n/a
3761.66	n/a	RECOG_RESP	1880830	n/a	LTP208	ltpFR	3	3	1	CABOOSE	214	1	n/a	1	n/a	n/a	n/a	n/a	n/a
3762.586	n/a	RECOG_CONF	1881293	n/a	LTP208	ltpFR	3	3	1	CABOOSE	214	n/a	5	1	n/a	n/a	n/a	n/a	n/a
3764.468	n/a	RECOG_TARGET	1882234	n/a	LTP208	ltpFR	3	3	0	TAR	1435	1	3	1	n/a	n/a	n/a	n/a	n/a
3765.578	n/a	RECOG_RESP	1882789	n/a	LTP208	ltpFR	3	3	0	TAR	1435	1	n/a	1	n/a	n/a	n/a	n/a	n/a
3766.398	n/a	RECOG_CONF	1883199	n/a	LTP208	ltpFR	3	3	0	TAR	1435	n/a	3	1	n/a	n/a	n/a	n/a	n/a
3768.196	n/a	RECOG_LURE	1884098	n/a	LTP208	ltpFR	3	3	n/a	CHAMPION	279	0	4	n/a	n/a	n/a	n/a	n/a	n/a
3769.614	n/a	RECOG_RESP	1884807	n/a	LTP208	ltpFR	3	3	n/a	CHAMPION	279	0	n/a	n/a	n/a	n/a	n/a	n/a	n/a
3770.966	n/a	RECOG_CONF	1885483	n/a	LTP208	ltpFR	3	3	n/a	CHAMPION	279	n/a	4	n/a	n/a	n/a	n/a	n/a	n/a
3772.572	n/a	RECOG_TARGET	1886286	n/a	LTP208	ltpFR	3	3	0	STOOL	1386	1	4	0	n/a	n/a	n/a	n/a	n/a
3773.506	n/a	RECOG_RESP	1886753	n/a	LTP208	ltpFR	3	3	0	STOOL	1386	1	n/a	0	n/a	n/a	n/a	n/a	n/a
3774.25	n/a	RECOG_CONF	1887125	n/a	LTP208	ltpFR	3	3	0	STOOL	1386	n/a	4	0	n/a	n/a	n/a	n/a	n/a
3775.818	n/a	RECOG_TARGET	1887909	n/a	LTP208	ltpFR	3	3	0	PORTRAIT	1111	0	4	1	n/a	n/a	n/a	n/a	n/a
3776.844	n/a	RECOG_RESP	1888422	n/a	LTP208	ltpFR	3	3	0	PORTRAIT	1111	0	n/a	1	n/a	n/a	n/a	n/a	n/a
3777.702	n/a	RECOG_CONF	1888851	n/a	LTP208	ltpFR	3	3	0	PORTRAIT	1111	n/a	4	1	n/a	n/a	n/a	n/a	n/a
3779.812	n/a	RECOG_TARGET	1889906	n/a	LTP208	ltpFR	3	3	1	CAR	241	1	4	1	n/a	n/a	n/a	n/a	n/a
3780.972	n/a	RECOG_RESP	1890486	n/a	LTP208	ltpFR	3	3	1	CAR	241	1	n/a	1	n/a	n/a	n/a	n/a	n/a
3781.774	n/a	RECOG_CONF	1890887	n/a	LTP208	ltpFR	3	3	1	CAR	241	n/a	4	1	n/a	n/a	n/a	n/a	n/a
3783.606	n/a	RECOG_TARGET	1891803	n/a	LTP208	ltpFR	3	3	-1	REFRIGERATOR	1179	1	4	-1	n/a	n/a	n/a	n/a	n/a
3784.274	n/a	RECOG_RESP	1892137	n/a	LTP208	ltpFR	3	3	-1	REFRIGERATOR	1179	1	n/a	-1	n/a	n/a	n/a	n/a	n/a
3785.148	n/a	RECOG_CONF	1892574	n/a	LTP208	ltpFR	3	3	-1	REFRIGERATOR	1179	n/a	4	-1	n/a	n/a	n/a	n/a	n/a
3786.918	n/a	RECOG_LURE	1893459	n/a	LTP208	ltpFR	3	3	n/a	CONVENT	370	1	3	n/a	n/a	n/a	n/a	n/a	n/a
3787.74	n/a	RECOG_RESP	1893870	n/a	LTP208	ltpFR	3	3	n/a	CONVENT	370	1	n/a	n/a	n/a	n/a	n/a	n/a	n/a
3788.762	n/a	RECOG_CONF	1894381	n/a	LTP208	ltpFR	3	3	n/a	CONVENT	370	n/a	3	n/a	n/a	n/a	n/a	n/a	n/a
3790.662	n/a	RECOG_LURE	1895331	n/a	LTP208	ltpFR	3	3	n/a	FOUNTAIN	597	1	3	n/a	n/a	n/a	n/a	n/a	n/a
3791.666	n/a	RECOG_RESP	1895833	n/a	LTP208	ltpFR	3	3	n/a	FOUNTAIN	597	1	n/a	n/a	n/a	n/a	n/a	n/a	n/a
3792.858	n/a	RECOG_CONF	1896429	n/a	LTP208	ltpFR	3	3	n/a	FOUNTAIN	597	n/a	3	n/a	n/a	n/a	n/a	n/a	n/a
3794.74	n/a	RECOG_LURE	1897370	n/a	LTP208	ltpFR	3	3	n/a	PANTS	1010	0	3	n/a	n/a	n/a	n/a	n/a	n/a
3797.034	n/a	RECOG_RESP	1898517	n/a	LTP208	ltpFR	3	3	n/a	PANTS	1010	0	n/a	n/a	n/a	n/a	n/a	n/a	n/a
3797.696	n/a	RECOG_CONF	1898848	n/a	LTP208	ltpFR	3	3	n/a	PANTS	1010	n/a	3	n/a	n/a	n/a	n/a	n/a	n/a
3799.434	n/a	RECOG_TARGET	1899717	n/a	LTP208	ltpFR	3	3	0	EAGLE	512	1	2	3	n/a	n/a	n/a	n/a	n/a
3801.55	n/a	RECOG_RESP	1900775	n/a	LTP208	ltpFR	3	3	0	EAGLE	512	1	n/a	3	n/a	n/a	n/a	n/a	n/a
3803.284	n/a	RECOG_CONF	1901642	n/a	LTP208	ltpFR	3	3	0	EAGLE	512	n/a	2	3	n/a	n/a	n/a	n/a	n/a
3805.076	n/a	RECOG_LURE	1902538	n/a	LTP208	ltpFR	3	3	n/a	STAIRS	1367	1	3	n/a	n/a	n/a	n/a	n/a	n/a
3805.884	n/a	RECOG_RESP	1902942	n/a	LTP208	ltpFR	3	3	n/a	STAIRS	1367	1	n/a	n/a	n/a	n/a	n/a	n/a	n/a
3806.65	n/a	RECOG_CONF	1903325	n/a	LTP208	ltpFR	3	3	n/a	STAIRS	1367	n/a	3	n/a	n/a	n/a	n/a	n/a	n/a
3808.502	n/a	RECOG_TARGET	1904251	n/a	LTP208	ltpFR	3	3	-1	HANDKERCHIEF	686	1	5	-1	n/a	n/a	n/a	n/a	n/a
3809.584	n/a	RECOG_RESP	1904792	n/a	LTP208	ltpFR	3	3	-1	HANDKERCHIEF	686	1	n/a	-1	n/a	n/a	n/a	n/a	n/a
3811.084	n/a	RECOG_CONF	1905542	n/a	LTP208	ltpFR	3	3	-1	HANDKERCHIEF	686	n/a	5	-1	n/a	n/a	n/a	n/a	n/a
3813.048	n/a	RECOG_TARGET	1906524	n/a	LTP208	ltpFR	3	3	0	ELECTRICIAN	521	1	4	0	n/a	n/a	n/a	n/a	n/a
3813.956	n/a	RECOG_RESP	1906978	n/a	LTP208	ltpFR	3	3	0	ELECTRICIAN	521	1	n/a	0	n/a	n/a	n/a	n/a	n/a
3815.162	n/a	RECOG_CONF	1907581	n/a	LTP208	ltpFR	3	3	0	ELECTRICIAN	521	n/a	4	0	n/a	n/a	n/a	n/a	n/a
3817.074	n/a	RECOG_TARGET	1908537	n/a	LTP208	ltpFR	3	3	1	WINDOW	1611	1	3	0	n/a	n/a	n/a	n/a	n/a
3818.316	n/a	RECOG_RESP	1909158	n/a	LTP208	ltpFR	3	3	1	WINDOW	1611	1	n/a	0	n/a	n/a	n/a	n/a	n/a
3819.13	n/a	RECOG_CONF	1909565	n/a	LTP208	ltpFR	3	3	1	WINDOW	1611	n/a	3	0	n/a	n/a	n/a	n/a	n/a
3821.036	n/a	RECOG_TARGET	1910518	n/a	LTP208	ltpFR	3	3	-1	CRITIC	410	1	3	-1	n/a	n/a	n/a	n/a	n/a
3821.982	n/a	RECOG_RESP	1910991	n/a	LTP208	ltpFR	3	3	-1	CRITIC	410	1	n/a	-1	n/a	n/a	n/a	n/a	n/a
3822.874	n/a	RECOG_CONF	1911437	n/a	LTP208	ltpFR	3	3	-1	CRITIC	410	n/a	3	-1	n/a	n/a	n/a	n/a	n/a
3829.03	n/a	REC_START	1914515	n/a	LTP208	ltpFR	3	4	n/a	n/a	n/a	n/a	n/a	n/a	n/a	n/a	n/a	n/a	n/a
3829.056	n/a	RECOG_TARGET	1914528	n/a	LTP208	ltpFR	3	4	0	MOWER	928	1	5	1	n/a	n/a	n/a	n/a	n/a
3830.5	n/a	RECOG_RESP	1915250	n/a	LTP208	ltpFR	3	4	0	MOWER	928	1	n/a	1	n/a	n/a	n/a	n/a	n/a
3831.18	n/a	RECOG_CONF	1915590	n/a	LTP208	ltpFR	3	4	0	MOWER	928	n/a	5	1	n/a	n/a	n/a	n/a	n/a
3832.8	n/a	RECOG_LURE	1916400	n/a	LTP208	ltpFR	3	4	n/a	VINEGAR	1569	1	3	n/a	n/a	n/a	n/a	n/a	n/a
3833.882	n/a	RECOG_RESP	1916941	n/a	LTP208	ltpFR	3	4	n/a	VINEGAR	1569	1	n/a	n/a	n/a	n/a	n/a	n/a	n/a
3834.94	n/a	RECOG_CONF	1917470	n/a	LTP208	ltpFR	3	4	n/a	VINEGAR	1569	n/a	3	n/a	n/a	n/a	n/a	n/a	n/a
3837.062	n/a	RECOG_TARGET	1918531	n/a	LTP208	ltpFR	3	4	0	BROCCOLI	176	1	4	0	n/a	n/a	n/a	n/a	n/a
3837.972	n/a	RECOG_RESP	1918986	n/a	LTP208	ltpFR	3	4	0	BROCCOLI	176	1	n/a	0	n/a	n/a	n/a	n/a	n/a
3839.206	n/a	RECOG_CONF	1919603	n/a	LTP208	ltpFR	3	4	0	BROCCOLI	176	n/a	4	0	n/a	n/a	n/a	n/a	n/a
3841.038	n/a	RECOG_TARGET	1920519	n/a	LTP208	ltpFR	3	4	0	POWDER	1117	1	3	0	n/a	n/a	n/a	n/a	n/a
3841.912	n/a	RECOG_RESP	1920956	n/a	LTP208	ltpFR	3	4	0	POWDER	1117	1	n/a	0	n/a	n/a	n/a	n/a	n/a
3842.696	n/a	RECOG_CONF	1921348	n/a	LTP208	ltpFR	3	4	0	POWDER	1117	n/a	3	0	n/a	n/a	n/a	n/a	n/a
3844.766	n/a	RECOG_TARGET	1922383	n/a	LTP208	ltpFR	3	4	0	TIDE	1465	1	4	0	n/a	n/a	n/a	n/a	n/a
3845.41	n/a	RECOG_RESP	1922705	n/a	LTP208	ltpFR	3	4	0	TIDE	1465	1	n/a	0	n/a	n/a	n/a	n/a	n/a
3846.43	n/a	RECOG_CONF	1923215	n/a	LTP208	ltpFR	3	4	0	TIDE	1465	n/a	4	0	n/a	n/a	n/a	n/a	n/a
3848.426	n/a	RECOG_TARGET	1924213	n/a	LTP208	ltpFR	3	4	-1	SWAMP	1416	1	3	-1	n/a	n/a	n/a	n/a	n/a
3849.026	n/a	RECOG_RESP	1924513	n/a	LTP208	ltpFR	3	4	-1	SWAMP	1416	1	n/a	-1	n/a	n/a	n/a	n/a	n/a
3850.24	n/a	RECOG_CONF	1925120	n/a	LTP208	ltpFR	3	4	-1	SWAMP	1416	n/a	3	-1	n/a	n/a	n/a	n/a	n/a
3852.106	n/a	RECOG_TARGET	1926053	n/a	LTP208	ltpFR	3	4	-1	CARPET	247	1	5	-1	n/a	n/a	n/a	n/a	n/a
3852.746	n/a	RECOG_RESP	1926373	n/a	LTP208	ltpFR	3	4	-1	CARPET	247	1	n/a	-1	n/a	n/a	n/a	n/a	n/a
3853.738	n/a	RECOG_CONF	1926869	n/a	LTP208	ltpFR	3	4	-1	CARPET	247	n/a	5	-1	n/a	n/a	n/a	n/a	n/a
3855.734	n/a	RECOG_TARGET	1927867	n/a	LTP208	ltpFR	3	4	0	NEST	945	1	5	0	n/a	n/a	n/a	n/a	n/a
3856.334	n/a	RECOG_RESP	1928167	n/a	LTP208	ltpFR	3	4	0	NEST	945	1	n/a	0	n/a	n/a	n/a	n/a	n/a
3857.368	n/a	RECOG_CONF	1928684	n/a	LTP208	ltpFR	3	4	0	NEST	945	n/a	5	0	n/a	n/a	n/a	n/a	n/a
3859.246	n/a	RECOG_TARGET	1929623	n/a	LTP208	ltpFR	3	4	-1	HOE	711	1	5	-1	n/a	n/a	n/a	n/a	n/a
3859.96	n/a	RECOG_RESP	1929980	n/a	LTP208	ltpFR	3	4	-1	HOE	711	1	n/a	-1	n/a	n/a	n/a	n/a	n/a
3860.976	n/a	RECOG_CONF	1930488	n/a	LTP208	ltpFR	3	4	-1	HOE	711	n/a	5	-1	n/a	n/a	n/a	n/a	n/a
3862.956	n/a	RECOG_LURE	1931478	n/a	LTP208	ltpFR	3	4	n/a	DOCTOR	478	0	3	n/a	n/a	n/a	n/a	n/a	n/a
3864.266	n/a	RECOG_RESP	1932133	n/a	LTP208	ltpFR	3	4	n/a	DOCTOR	478	0	n/a	n/a	n/a	n/a	n/a	n/a	n/a
3865.504	n/a	RECOG_CONF	1932752	n/a	LTP208	ltpFR	3	4	n/a	DOCTOR	478	n/a	3	n/a	n/a	n/a	n/a	n/a	n/a
3867.3	n/a	RECOG_LURE	1933650	n/a	LTP208	ltpFR	3	4	n/a	GAVEL	627	1	3	n/a	n/a	n/a	n/a	n/a	n/a
3868.14	n/a	RECOG_RESP	1934070	n/a	LTP208	ltpFR	3	4	n/a	GAVEL	627	1	n/a	n/a	n/a	n/a	n/a	n/a	n/a
3869.16	n/a	RECOG_CONF	1934580	n/a	LTP208	ltpFR	3	4	n/a	GAVEL	627	n/a	3	n/a	n/a	n/a	n/a	n/a	n/a
3870.978	n/a	RECOG_LURE	1935489	n/a	LTP208	ltpFR	3	4	n/a	MAYONNAISE	880	1	4	n/a	n/a	n/a	n/a	n/a	n/a
3871.964	n/a	RECOG_RESP	1935982	n/a	LTP208	ltpFR	3	4	n/a	MAYONNAISE	880	1	n/a	n/a	n/a	n/a	n/a	n/a	n/a
3872.986	n/a	RECOG_CONF	1936493	n/a	LTP208	ltpFR	3	4	n/a	MAYONNAISE	880	n/a	4	n/a	n/a	n/a	n/a	n/a	n/a
3874.738	n/a	RECOG_TARGET	1937369	n/a	LTP208	ltpFR	3	4	-1	PAVEMENT	1028	1	5	-1	n/a	n/a	n/a	n/a	n/a
3875.654	n/a	RECOG_RESP	1937827	n/a	LTP208	ltpFR	3	4	-1	PAVEMENT	1028	1	n/a	-1	n/a	n/a	n/a	n/a	n/a
3876.732	n/a	RECOG_CONF	1938366	n/a	LTP208	ltpFR	3	4	-1	PAVEMENT	1028	n/a	5	-1	n/a	n/a	n/a	n/a	n/a
3878.782	n/a	RECOG_LURE	1939391	n/a	LTP208	ltpFR	3	4	n/a	MOAT	903	0	3	n/a	n/a	n/a	n/a	n/a	n/a
3879.838	n/a	RECOG_RESP	1939919	n/a	LTP208	ltpFR	3	4	n/a	MOAT	903	0	n/a	n/a	n/a	n/a	n/a	n/a	n/a
3881.058	n/a	RECOG_CONF	1940529	n/a	LTP208	ltpFR	3	4	n/a	MOAT	903	n/a	3	n/a	n/a	n/a	n/a	n/a	n/a
3882.794	n/a	RECOG_TARGET	1941397	n/a	LTP208	ltpFR	3	4	-1	PUMPKIN	1142	1	5	-1	n/a	n/a	n/a	n/a	n/a
3883.61	n/a	RECOG_RESP	1941805	n/a	LTP208	ltpFR	3	4	-1	PUMPKIN	1142	1	n/a	-1	n/a	n/a	n/a	n/a	n/a
3884.524	n/a	RECOG_CONF	1942262	n/a	LTP208	ltpFR	3	4	-1	PUMPKIN	1142	n/a	5	-1	n/a	n/a	n/a	n/a	n/a
3886.354	n/a	RECOG_TARGET	1943177	n/a	LTP208	ltpFR	3	4	1	PARIS	1014	1	5	0	n/a	n/a	n/a	n/a	n/a
3887.208	n/a	RECOG_RESP	1943604	n/a	LTP208	ltpFR	3	4	1	PARIS	1014	1	n/a	0	n/a	n/a	n/a	n/a	n/a
3888.124	n/a	RECOG_CONF	1944062	n/a	LTP208	ltpFR	3	4	1	PARIS	1014	n/a	5	0	n/a	n/a	n/a	n/a	n/a
3890.084	n/a	RECOG_LURE	1945042	n/a	LTP208	ltpFR	3	4	n/a	AUTOMOBILE	62	1	4	n/a	n/a	n/a	n/a	n/a	n/a
3891.2	n/a	RECOG_RESP	1945600	n/a	LTP208	ltpFR	3	4	n/a	AUTOMOBILE	62	1	n/a	n/a	n/a	n/a	n/a	n/a	n/a
3892.312	n/a	RECOG_CONF	1946156	n/a	LTP208	ltpFR	3	4	n/a	AUTOMOBILE	62	n/a	4	n/a	n/a	n/a	n/a	n/a	n/a
3894.06	n/a	RECOG_TARGET	1947030	n/a	LTP208	ltpFR	3	4	0	OWNER	993	1	4	1	n/a	n/a	n/a	n/a	n/a
3894.902	n/a	RECOG_RESP	1947451	n/a	LTP208	ltpFR	3	4	0	OWNER	993	1	n/a	1	n/a	n/a	n/a	n/a	n/a
3895.886	n/a	RECOG_CONF	1947943	n/a	LTP208	ltpFR	3	4	0	OWNER	993	n/a	4	1	n/a	n/a	n/a	n/a	n/a
3897.67	n/a	RECOG_TARGET	1948835	n/a	LTP208	ltpFR	3	4	0	FAMILY	550	1	5	1	n/a	n/a	n/a	n/a	n/a
3898.35	n/a	RECOG_RESP	1949175	n/a	LTP208	ltpFR	3	4	0	FAMILY	550	1	n/a	1	n/a	n/a	n/a	n/a	n/a
3899.304	n/a	RECOG_CONF	1949652	n/a	LTP208	ltpFR	3	4	0	FAMILY	550	n/a	5	1	n/a	n/a	n/a	n/a	n/a
3901.416	n/a	RECOG_TARGET	1950708	n/a	LTP208	ltpFR	3	4	-1	DOLLAR	482	1	5	-1	n/a	n/a	n/a	n/a	n/a
3902.142	n/a	RECOG_RESP	1951071	n/a	LTP208	ltpFR	3	4	-1	DOLLAR	482	1	n/a	-1	n/a	n/a	n/a	n/a	n/a
3903.05	n/a	RECOG_CONF	1951525	n/a	LTP208	ltpFR	3	4	-1	DOLLAR	482	n/a	5	-1	n/a	n/a	n/a	n/a	n/a
3907.38	n/a	REC_START	1953690	n/a	LTP208	ltpFR	3	5	n/a	n/a	n/a	n/a	n/a	n/a	n/a	n/a	n/a	n/a	n/a
3907.406	n/a	RECOG_LURE	1953703	n/a	LTP208	ltpFR	3	5	n/a	MARROW	872	0	3	n/a	n/a	n/a	n/a	n/a	n/a
3908.59	n/a	RECOG_RESP	1954295	n/a	LTP208	ltpFR	3	5	n/a	MARROW	872	0	n/a	n/a	n/a	n/a	n/a	n/a	n/a
3909.806	n/a	RECOG_CONF	1954903	n/a	LTP208	ltpFR	3	5	n/a	MARROW	872	n/a	3	n/a	n/a	n/a	n/a	n/a	n/a
3911.932	n/a	RECOG_TARGET	1955966	n/a	LTP208	ltpFR	3	5	1	DONKEY	484	1	4	1	n/a	n/a	n/a	n/a	n/a
3913.164	n/a	RECOG_RESP	1956582	n/a	LTP208	ltpFR	3	5	1	DONKEY	484	1	n/a	1	n/a	n/a	n/a	n/a	n/a
3914.148	n/a	RECOG_CONF	1957074	n/a	LTP208	ltpFR	3	5	1	DONKEY	484	n/a	4	1	n/a	n/a	n/a	n/a	n/a
3915.978	n/a	RECOG_LURE	1957989	n/a	LTP208	ltpFR	3	5	n/a	WINNER	1615	0	4	n/a	n/a	n/a	n/a	n/a	n/a
3917.05	n/a	RECOG_RESP	1958525	n/a	LTP208	ltpFR	3	5	n/a	WINNER	1615	0	n/a	n/a	n/a	n/a	n/a	n/a	n/a
3918.068	n/a	RECOG_CONF	1959034	n/a	LTP208	ltpFR	3	5	n/a	WINNER	1615	n/a	4	n/a	n/a	n/a	n/a	n/a	n/a
3919.854	n/a	RECOG_TARGET	1959927	n/a	LTP208	ltpFR	3	5	0	PLANT	1083	1	5	0	n/a	n/a	n/a	n/a	n/a
3920.724	n/a	RECOG_RESP	1960362	n/a	LTP208	ltpFR	3	5	0	PLANT	1083	1	n/a	0	n/a	n/a	n/a	n/a	n/a
3921.58	n/a	RECOG_CONF	1960790	n/a	LTP208	ltpFR	3	5	0	PLANT	1083	n/a	5	0	n/a	n/a	n/a	n/a	n/a
3923.766	n/a	RECOG_TARGET	1961883	n/a	LTP208	ltpFR	3	5	1	BUFFALO	186	0	3	1	n/a	n/a	n/a	n/a	n/a
3924.656	n/a	RECOG_RESP	1962328	n/a	LTP208	ltpFR	3	5	1	BUFFALO	186	0	n/a	1	n/a	n/a	n/a	n/a	n/a
3925.68	n/a	RECOG_CONF	1962840	n/a	LTP208	ltpFR	3	5	1	BUFFALO	186	n/a	3	1	n/a	n/a	n/a	n/a	n/a
3927.61	n/a	RECOG_LURE	1963805	n/a	LTP208	ltpFR	3	5	n/a	MILDEW	893	0	4	n/a	n/a	n/a	n/a	n/a	n/a
3929.082	n/a	RECOG_RESP	1964541	n/a	LTP208	ltpFR	3	5	n/a	MILDEW	893	0	n/a	n/a	n/a	n/a	n/a	n/a	n/a
3930.364	n/a	RECOG_CONF	1965182	n/a	LTP208	ltpFR	3	5	n/a	MILDEW	893	n/a	4	n/a	n/a	n/a	n/a	n/a	n/a
3932.304	n/a	RECOG_TARGET	1966152	n/a	LTP208	ltpFR	3	5	0	ROOT	1210	1	4	0	n/a	n/a	n/a	n/a	n/a
3933.1	n/a	RECOG_RESP	1966550	n/a	LTP208	ltpFR	3	5	0	ROOT	1210	1	n/a	0	n/a	n/a	n/a	n/a	n/a
3934.474	n/a	RECOG_CONF	1967237	n/a	LTP208	ltpFR	3	5	0	ROOT	1210	n/a	4	0	n/a	n/a	n/a	n/a	n/a
3936.348	n/a	RECOG_TARGET	1968174	n/a	LTP208	ltpFR	3	5	1	PUZZLE	1146	0	4	0	n/a	n/a	n/a	n/a	n/a
3937.324	n/a	RECOG_RESP	1968662	n/a	LTP208	ltpFR	3	5	1	PUZZLE	1146	0	n/a	0	n/a	n/a	n/a	n/a	n/a
3938.594	n/a	RECOG_CONF	1969297	n/a	LTP208	ltpFR	3	5	1	PUZZLE	1146	n/a	4	0	n/a	n/a	n/a	n/a	n/a
3940.64	n/a	RECOG_TARGET	1970320	n/a	LTP208	ltpFR	3	5	0	PISTON	1076	1	5	0	n/a	n/a	n/a	n/a	n/a
