onset	duration	trial_type	sample	stim_file	subject	experiment	session	trial	item_name	item_num	list	answer	test_x	test_y	test_z
249.734	n/a	SESS_START	124867	n/a	LTP283	ltpFR2	10	n/a	n/a	n/a	n/a	n/a	0	0	0
267.954	n/a	START	133977	n/a	LTP283	ltpFR2	10	n/a	n/a	n/a	-1	n/a	n/a	n/a	n/a
268.004	n/a	PROB	134002	n/a	LTP283	ltpFR2	10	n/a	n/a	n/a	-1	11	2	6	3
271.116	n/a	PROB	135558	n/a	LTP283	ltpFR2	10	n/a	n/a	n/a	-1	14	8	2	4
272.502	n/a	PROB	136251	n/a	LTP283	ltpFR2	10	n/a	n/a	n/a	-1	4	2	1	1
273.64	n/a	PROB	136820	n/a	LTP283	ltpFR2	10	n/a	n/a	n/a	-1	13	3	3	7
275.23	n/a	PROB	137615	n/a	LTP283	ltpFR2	10	n/a	n/a	n/a	-1	15	7	5	3
279.954	n/a	STOP	139977	n/a	LTP283	ltpFR2	10	n/a	n/a	n/a	-1	n/a	n/a	n/a	n/a
315.734	n/a	WORD	157867	wordpools/wasnorm_wordpool_576.txt	LTP283	ltpFR2	10	1	JUNGLE	764	n/a	n/a	0	0	0
318.308	n/a	WORD	159154	wordpools/wasnorm_wordpool_576.txt	LTP283	ltpFR2	10	1	CITRUS	313	n/a	n/a	0	0	0
320.972	n/a	WORD	160486	wordpools/wasnorm_wordpool_576.txt	LTP283	ltpFR2	10	1	EMPIRE	530	n/a	n/a	0	0	0
323.748	n/a	WORD	161874	wordpools/wasnorm_wordpool_576.txt	LTP283	ltpFR2	10	1	DUST	508	n/a	n/a	0	0	0
326.242	n/a	WORD	163121	wordpools/wasnorm_wordpool_576.txt	LTP283	ltpFR2	10	1	PALACE	1006	n/a	n/a	0	0	0
328.818	n/a	WORD	164409	wordpools/wasnorm_wordpool_576.txt	LTP283	ltpFR2	10	1	PRIMATE	1123	n/a	n/a	0	0	0
331.596	n/a	WORD	165798	wordpools/wasnorm_wordpool_576.txt	LTP283	ltpFR2	10	1	BABY	64	n/a	n/a	0	0	0
334.156	n/a	WORD	167078	wordpools/wasnorm_wordpool_576.txt	LTP283	ltpFR2	10	1	PRINCE	1124	n/a	n/a	0	0	0
336.664	n/a	WORD	168332	wordpools/wasnorm_wordpool_576.txt	LTP283	ltpFR2	10	1	CYCLONE	431	n/a	n/a	0	0	0
339.154	n/a	WORD	169577	wordpools/wasnorm_wordpool_576.txt	LTP283	ltpFR2	10	1	BLENDER	136	n/a	n/a	0	0	0
341.87	n/a	WORD	170935	wordpools/wasnorm_wordpool_576.txt	LTP283	ltpFR2	10	1	BEAST	108	n/a	n/a	0	0	0
344.562	n/a	WORD	172281	wordpools/wasnorm_wordpool_576.txt	LTP283	ltpFR2	10	1	COCOON	339	n/a	n/a	0	0	0
347.152	n/a	WORD	173576	wordpools/wasnorm_wordpool_576.txt	LTP283	ltpFR2	10	1	TURNIP	1521	n/a	n/a	0	0	0
349.63	n/a	WORD	174815	wordpools/wasnorm_wordpool_576.txt	LTP283	ltpFR2	10	1	KITCHEN	778	n/a	n/a	0	0	0
352.376	n/a	WORD	176188	wordpools/wasnorm_wordpool_576.txt	LTP283	ltpFR2	10	1	SUPPER	1411	n/a	n/a	0	0	0
355.182	n/a	WORD	177591	wordpools/wasnorm_wordpool_576.txt	LTP283	ltpFR2	10	1	MOP	916	n/a	n/a	0	0	0
357.656	n/a	WORD	178828	wordpools/wasnorm_wordpool_576.txt	LTP283	ltpFR2	10	1	CABBAGE	210	n/a	n/a	0	0	0
360.34	n/a	WORD	180170	wordpools/wasnorm_wordpool_576.txt	LTP283	ltpFR2	10	1	SWIMMER	1420	n/a	n/a	0	0	0
363.112	n/a	WORD	181556	wordpools/wasnorm_wordpool_576.txt	LTP283	ltpFR2	10	1	RAFT	1159	n/a	n/a	0	0	0
365.924	n/a	WORD	182962	wordpools/wasnorm_wordpool_576.txt	LTP283	ltpFR2	10	1	CANYON	235	n/a	n/a	0	0	0
368.386	n/a	WORD	184193	wordpools/wasnorm_wordpool_576.txt	LTP283	ltpFR2	10	1	WHISKERS	1605	n/a	n/a	0	0	0
371.092	n/a	WORD	185546	wordpools/wasnorm_wordpool_576.txt	LTP283	ltpFR2	10	1	MONEY	908	n/a	n/a	0	0	0
373.818	n/a	WORD	186909	wordpools/wasnorm_wordpool_576.txt	LTP283	ltpFR2	10	1	GREASE	660	n/a	n/a	0	0	0
376.246	n/a	WORD	188123	wordpools/wasnorm_wordpool_576.txt	LTP283	ltpFR2	10	1	STONE	1385	n/a	n/a	0	0	0
377.856	n/a	START	188928	n/a	LTP283	ltpFR2	10	n/a	n/a	n/a	1	n/a	n/a	n/a	n/a
378.898	n/a	DISTRACTOR	189449	n/a	LTP283	ltpFR2	10	1	n/a	n/a	n/a	n/a	0	0	0
378.91	n/a	PROB	189455	n/a	LTP283	ltpFR2	10	n/a	n/a	n/a	1	15	4	8	3
381.036	n/a	PROB	190518	n/a	LTP283	ltpFR2	10	n/a	n/a	n/a	1	14	6	4	4
382.306	n/a	PROB	191153	n/a	LTP283	ltpFR2	10	n/a	n/a	n/a	1	11	2	6	3
383.892	n/a	PROB	191946	n/a	LTP283	ltpFR2	10	n/a	n/a	n/a	1	9	1	3	5
385.284	n/a	PROB	192642	n/a	LTP283	ltpFR2	10	n/a	n/a	n/a	1	14	4	6	4
386.538	n/a	PROB	193269	n/a	LTP283	ltpFR2	10	n/a	n/a	n/a	1	11	7	1	3
387.706	n/a	PROB	193853	n/a	LTP283	ltpFR2	10	n/a	n/a	n/a	1	11	5	3	3
389.566	n/a	PROB	194783	n/a	LTP283	ltpFR2	10	n/a	n/a	n/a	1	22	9	4	9
391.09	n/a	PROB	195545	n/a	LTP283	ltpFR2	10	n/a	n/a	n/a	1	17	3	6	8
392.64	n/a	PROB	196320	n/a	LTP283	ltpFR2	10	n/a	n/a	n/a	1	9	6	2	1
393.934	n/a	PROB	196967	n/a	LTP283	ltpFR2	10	n/a	n/a	n/a	1	11	2	2	7
395.402	n/a	PROB	197701	n/a	LTP283	ltpFR2	10	n/a	n/a	n/a	1	24	8	7	9
399.016	n/a	PROB	199508	n/a	LTP283	ltpFR2	10	n/a	n/a	n/a	1	13	1	7	5
400.576	n/a	STOP	200288	n/a	LTP283	ltpFR2	10	n/a	n/a	n/a	1	n/a	n/a	n/a	n/a
403.756	n/a	REC_START	201878	n/a	LTP283	ltpFR2	10	1	n/a	n/a	n/a	n/a	0	0	0
407.27	n/a	REC_WORD	203635	wordpools/wasnorm_wordpool_576.txt	LTP283	ltpFR2	10	1	JUNGLE	764	n/a	n/a	0	0	0
408.28	n/a	REC_WORD	204140	wordpools/wasnorm_wordpool_576.txt	LTP283	ltpFR2	10	1	PRIMATE	1123	n/a	n/a	0	0	0
409.824	n/a	REC_WORD	204912	wordpools/wasnorm_wordpool_576.txt	LTP283	ltpFR2	10	1	CITRUS	313	n/a	n/a	0	0	0
410.864	n/a	REC_WORD	205432	wordpools/wasnorm_wordpool_576.txt	LTP283	ltpFR2	10	1	PALACE	1006	n/a	n/a	0	0	0
411.918	n/a	REC_WORD	205959	wordpools/wasnorm_wordpool_576.txt	LTP283	ltpFR2	10	1	DUST	508	n/a	n/a	0	0	0
413.774	n/a	REC_WORD	206887	wordpools/wasnorm_wordpool_576.txt	LTP283	ltpFR2	10	1	PRINCE	1124	n/a	n/a	0	0	0
414.66	n/a	REC_WORD	207330	wordpools/wasnorm_wordpool_576.txt	LTP283	ltpFR2	10	1	BABY	64	n/a	n/a	0	0	0
416.872	n/a	REC_WORD	208436	wordpools/wasnorm_wordpool_576.txt	LTP283	ltpFR2	10	1	CYCLONE	431	n/a	n/a	0	0	0
418.688	n/a	REC_WORD	209344	wordpools/wasnorm_wordpool_576.txt	LTP283	ltpFR2	10	1	BLENDER	136	n/a	n/a	0	0	0
419.594	n/a	REC_WORD	209797	wordpools/wasnorm_wordpool_576.txt	LTP283	ltpFR2	10	1	BEAST	108	n/a	n/a	0	0	0
422.708	n/a	REC_WORD	211354	wordpools/wasnorm_wordpool_576.txt	LTP283	ltpFR2	10	1	COCOON	339	n/a	n/a	0	0	0
425.556	n/a	REC_WORD	212778	wordpools/wasnorm_wordpool_576.txt	LTP283	ltpFR2	10	1	TURNIP	1521	n/a	n/a	0	0	0
426.272	n/a	REC_WORD	213136	wordpools/wasnorm_wordpool_576.txt	LTP283	ltpFR2	10	1	KITCHEN	778	n/a	n/a	0	0	0
438.826	n/a	REC_WORD	219413	wordpools/wasnorm_wordpool_576.txt	LTP283	ltpFR2	10	1	RAFT	1159	n/a	n/a	0	0	0
441.742	n/a	REC_WORD	220871	wordpools/wasnorm_wordpool_576.txt	LTP283	ltpFR2	10	1	SWIMMER	1420	n/a	n/a	0	0	0
443.092	n/a	REC_WORD	221546	wordpools/wasnorm_wordpool_576.txt	LTP283	ltpFR2	10	1	STONE	1385	n/a	n/a	0	0	0
444.516	n/a	REC_WORD	222258	wordpools/wasnorm_wordpool_576.txt	LTP283	ltpFR2	10	1	CANYON	235	n/a	n/a	0	0	0
446.332	n/a	REC_WORD	223166	wordpools/wasnorm_wordpool_576.txt	LTP283	ltpFR2	10	1	WHISKERS	1605	n/a	n/a	0	0	0
447.332	n/a	REC_WORD_VV	223666	wordpools/wasnorm_wordpool_576.txt	LTP283	ltpFR2	10	1	<>	-1	n/a	n/a	0	0	0
448.046	n/a	REC_WORD	224023	wordpools/wasnorm_wordpool_576.txt	LTP283	ltpFR2	10	1	GREASE	660	n/a	n/a	0	0	0
494.938	n/a	WORD	247469	wordpools/wasnorm_wordpool_576.txt	LTP283	ltpFR2	10	2	SNAKE	1333	n/a	n/a	0	0	0
497.73	n/a	WORD	248865	wordpools/wasnorm_wordpool_576.txt	LTP283	ltpFR2	10	2	POISON	1096	n/a	n/a	0	0	0
500.39	n/a	WORD	250195	wordpools/wasnorm_wordpool_576.txt	LTP283	ltpFR2	10	2	DRUG	501	n/a	n/a	0	0	0
502.85	n/a	WORD	251425	wordpools/wasnorm_wordpool_576.txt	LTP283	ltpFR2	10	2	SHRUB	1299	n/a	n/a	0	0	0
505.51	n/a	WORD	252755	wordpools/wasnorm_wordpool_576.txt	LTP283	ltpFR2	10	2	CUPBOARD	425	n/a	n/a	0	0	0
508.088	n/a	WORD	254044	wordpools/wasnorm_wordpool_576.txt	LTP283	ltpFR2	10	2	STOMACH	1384	n/a	n/a	0	0	0
510.546	n/a	WORD	255273	wordpools/wasnorm_wordpool_576.txt	LTP283	ltpFR2	10	2	DANCER	437	n/a	n/a	0	0	0
513.258	n/a	WORD	256629	wordpools/wasnorm_wordpool_576.txt	LTP283	ltpFR2	10	2	IDOL	733	n/a	n/a	0	0	0
515.682	n/a	WORD	257841	wordpools/wasnorm_wordpool_576.txt	LTP283	ltpFR2	10	2	CASHEW	253	n/a	n/a	0	0	0
518.322	n/a	WORD	259161	wordpools/wasnorm_wordpool_576.txt	LTP283	ltpFR2	10	2	BATHTUB	100	n/a	n/a	0	0	0
520.92	n/a	WORD	260460	wordpools/wasnorm_wordpool_576.txt	LTP283	ltpFR2	10	2	BEAVER	109	n/a	n/a	0	0	0
523.444	n/a	WORD	261722	wordpools/wasnorm_wordpool_576.txt	LTP283	ltpFR2	10	2	QUEEN	1149	n/a	n/a	0	0	0
526.152	n/a	WORD	263076	wordpools/wasnorm_wordpool_576.txt	LTP283	ltpFR2	10	2	TOURIST	1488	n/a	n/a	0	0	0
528.968	n/a	WORD	264484	wordpools/wasnorm_wordpool_576.txt	LTP283	ltpFR2	10	2	FIREPLACE	570	n/a	n/a	0	0	0
531.644	n/a	WORD	265822	wordpools/wasnorm_wordpool_576.txt	LTP283	ltpFR2	10	2	TWIG	1527	n/a	n/a	0	0	0
534.288	n/a	WORD	267144	wordpools/wasnorm_wordpool_576.txt	LTP283	ltpFR2	10	2	FARMER	553	n/a	n/a	0	0	0
536.742	n/a	WORD	268371	wordpools/wasnorm_wordpool_576.txt	LTP283	ltpFR2	10	2	LAMP	798	n/a	n/a	0	0	0
539.29	n/a	WORD	269645	wordpools/wasnorm_wordpool_576.txt	LTP283	ltpFR2	10	2	HEART	697	n/a	n/a	0	0	0
541.95	n/a	WORD	270975	wordpools/wasnorm_wordpool_576.txt	LTP283	ltpFR2	10	2	BUBBLE	183	n/a	n/a	0	0	0
544.76	n/a	WORD	272380	wordpools/wasnorm_wordpool_576.txt	LTP283	ltpFR2	10	2	COCKTAIL	338	n/a	n/a	0	0	0
547.454	n/a	WORD	273727	wordpools/wasnorm_wordpool_576.txt	LTP283	ltpFR2	10	2	SWORD	1423	n/a	n/a	0	0	0
550.198	n/a	WORD	275099	wordpools/wasnorm_wordpool_576.txt	LTP283	ltpFR2	10	2	HATCHET	691	n/a	n/a	0	0	0
552.892	n/a	WORD	276446	wordpools/wasnorm_wordpool_576.txt	LTP283	ltpFR2	10	2	TEACHER	1440	n/a	n/a	0	0	0
555.518	n/a	WORD	277759	wordpools/wasnorm_wordpool_576.txt	LTP283	ltpFR2	10	2	PORK	1108	n/a	n/a	0	0	0
557.124	n/a	START	278562	n/a	LTP283	ltpFR2	10	n/a	n/a	n/a	2	n/a	n/a	n/a	n/a
557.99	n/a	DISTRACTOR	278995	n/a	LTP283	ltpFR2	10	2	n/a	n/a	n/a	n/a	0	0	0
558.012	n/a	PROB	279006	n/a	LTP283	ltpFR2	10	n/a	n/a	n/a	2	11	3	2	6
559.562	n/a	PROB	279781	n/a	LTP283	ltpFR2	10	n/a	n/a	n/a	2	16	3	7	6
560.986	n/a	PROB	280493	n/a	LTP283	ltpFR2	10	n/a	n/a	n/a	2	17	6	9	2
563.7	n/a	PROB	281850	n/a	LTP283	ltpFR2	10	n/a	n/a	n/a	2	22	9	7	6
566.724	n/a	PROB	283362	n/a	LTP283	ltpFR2	10	n/a	n/a	n/a	2	15	6	7	2
568.464	n/a	PROB	284232	n/a	LTP283	ltpFR2	10	n/a	n/a	n/a	2	17	9	7	1
569.954	n/a	PROB	284977	n/a	LTP283	ltpFR2	10	n/a	n/a	n/a	2	11	5	2	4
571.878	n/a	PROB	285939	n/a	LTP283	ltpFR2	10	n/a	n/a	n/a	2	16	9	1	6
573.166	n/a	PROB	286583	n/a	LTP283	ltpFR2	10	n/a	n/a	n/a	2	14	6	3	5
575.044	n/a	PROB	287522	n/a	LTP283	ltpFR2	10	n/a	n/a	n/a	2	15	8	5	2
576.328	n/a	PROB	288164	n/a	LTP283	ltpFR2	10	n/a	n/a	n/a	2	11	1	7	3
577.498	n/a	PROB	288749	n/a	LTP283	ltpFR2	10	n/a	n/a	n/a	2	17	6	2	9
579.458	n/a	PROB	289729	n/a	LTP283	ltpFR2	10	n/a	n/a	n/a	2	10	5	4	1
580.738	n/a	STOP	290369	n/a	LTP283	ltpFR2	10	n/a	n/a	n/a	2	n/a	n/a	n/a	n/a
582.954	n/a	REC_START	291477	n/a	LTP283	ltpFR2	10	2	n/a	n/a	n/a	n/a	0	0	0
584.446	n/a	REC_WORD	292223	wordpools/wasnorm_wordpool_576.txt	LTP283	ltpFR2	10	2	TEACHER	1440	n/a	n/a	0	0	0
585.326	n/a	REC_WORD	292663	wordpools/wasnorm_wordpool_576.txt	LTP283	ltpFR2	10	2	PORK	1108	n/a	n/a	0	0	0
586.028	n/a	REC_WORD	293014	wordpools/wasnorm_wordpool_576.txt	LTP283	ltpFR2	10	2	SWORD	1423	n/a	n/a	0	0	0
587.162	n/a	REC_WORD	293581	wordpools/wasnorm_wordpool_576.txt	LTP283	ltpFR2	10	2	COCKTAIL	338	n/a	n/a	0	0	0
589.302	n/a	REC_WORD	294651	wordpools/wasnorm_wordpool_576.txt	LTP283	ltpFR2	10	2	HATCHET	691	n/a	n/a	0	0	0
608.048	n/a	REC_WORD	304024	wordpools/wasnorm_wordpool_576.txt	LTP283	ltpFR2	10	2	SNAKE	1333	n/a	n/a	0	0	0
609.276	n/a	REC_WORD	304638	wordpools/wasnorm_wordpool_576.txt	LTP283	ltpFR2	10	2	POISON	1096	n/a	n/a	0	0	0
610.894	n/a	REC_WORD	305447	wordpools/wasnorm_wordpool_576.txt	LTP283	ltpFR2	10	2	DRUG	501	n/a	n/a	0	0	0
611.762	n/a	REC_WORD	305881	wordpools/wasnorm_wordpool_576.txt	LTP283	ltpFR2	10	2	CUPBOARD	425	n/a	n/a	0	0	0
614.266	n/a	REC_WORD	307133	wordpools/wasnorm_wordpool_576.txt	LTP283	ltpFR2	10	2	DANCER	437	n/a	n/a	0	0	0
617.05	n/a	REC_WORD	308525	wordpools/wasnorm_wordpool_576.txt	LTP283	ltpFR2	10	2	BATHTUB	100	n/a	n/a	0	0	0
618.636	n/a	REC_WORD	309318	wordpools/wasnorm_wordpool_576.txt	LTP283	ltpFR2	10	2	HEART	697	n/a	n/a	0	0	0
626.444	n/a	REC_WORD	313222	wordpools/wasnorm_wordpool_576.txt	LTP283	ltpFR2	10	2	BUBBLE	183	n/a	n/a	0	0	0
630.482	n/a	REC_WORD	315241	wordpools/wasnorm_wordpool_576.txt	LTP283	ltpFR2	10	2	CASHEW	253	n/a	n/a	0	0	0
635.376	n/a	REC_WORD	317688	wordpools/wasnorm_wordpool_576.txt	LTP283	ltpFR2	10	2	FARMER	553	n/a	n/a	0	0	0
673.97	n/a	DISTRACTOR	336985	n/a	LTP283	ltpFR2	10	3	n/a	n/a	n/a	n/a	0	0	0
673.972	n/a	START	336986	n/a	LTP283	ltpFR2	10	n/a	n/a	n/a	3	n/a	n/a	n/a	n/a
674.022	n/a	PROB	337011	n/a	LTP283	ltpFR2	10	n/a	n/a	n/a	3	13	7	1	5
675.912	n/a	PROB	337956	n/a	LTP283	ltpFR2	10	n/a	n/a	n/a	3	10	3	3	4
677.28	n/a	PROB	338640	n/a	LTP283	ltpFR2	10	n/a	n/a	n/a	3	11	4	1	6
678.468	n/a	PROB	339234	n/a	LTP283	ltpFR2	10	n/a	n/a	n/a	3	18	6	5	7
680.894	n/a	PROB	340447	n/a	LTP283	ltpFR2	10	n/a	n/a	n/a	3	16	6	9	1
682.186	n/a	PROB	341093	n/a	LTP283	ltpFR2	10	n/a	n/a	n/a	3	18	8	2	8
683.62	n/a	PROB	341810	n/a	LTP283	ltpFR2	10	n/a	n/a	n/a	3	13	3	6	4
685.114	n/a	PROB	342557	n/a	LTP283	ltpFR2	10	n/a	n/a	n/a	3	8	2	1	5
686.418	n/a	PROB	343209	n/a	LTP283	ltpFR2	10	n/a	n/a	n/a	3	17	5	7	5
687.908	n/a	PROB	343954	n/a	LTP283	ltpFR2	10	n/a	n/a	n/a	3	16	9	3	4
689.676	n/a	PROB	344838	n/a	LTP283	ltpFR2	10	n/a	n/a	n/a	3	7	3	2	2
691.182	n/a	PROB	345591	n/a	LTP283	ltpFR2	10	n/a	n/a	n/a	3	23	8	9	6
694.196	n/a	PROB	347098	n/a	LTP283	ltpFR2	10	n/a	n/a	n/a	3	11	2	3	6
695.55	n/a	PROB	347775	n/a	LTP283	ltpFR2	10	n/a	n/a	n/a	3	16	9	3	4
696.922	n/a	STOP	348461	n/a	LTP283	ltpFR2	10	n/a	n/a	n/a	3	n/a	n/a	n/a	n/a
698.968	n/a	WORD	349484	wordpools/wasnorm_wordpool_576.txt	LTP283	ltpFR2	10	3	DRESSER	496	n/a	n/a	0	0	0
701.542	n/a	WORD	350771	wordpools/wasnorm_wordpool_576.txt	LTP283	ltpFR2	10	3	CROWN	415	n/a	n/a	0	0	0
704.338	n/a	WORD	352169	wordpools/wasnorm_wordpool_576.txt	LTP283	ltpFR2	10	3	PRINCESS	1125	n/a	n/a	0	0	0
706.864	n/a	WORD	353432	wordpools/wasnorm_wordpool_576.txt	LTP283	ltpFR2	10	3	SADDLE	1221	n/a	n/a	0	0	0
709.302	n/a	WORD	354651	wordpools/wasnorm_wordpool_576.txt	LTP283	ltpFR2	10	3	HORSE	719	n/a	n/a	0	0	0
711.916	n/a	WORD	355958	wordpools/wasnorm_wordpool_576.txt	LTP283	ltpFR2	10	3	DRIVER	499	n/a	n/a	0	0	0
714.504	n/a	WORD	357252	wordpools/wasnorm_wordpool_576.txt	LTP283	ltpFR2	10	3	CRUTCH	417	n/a	n/a	0	0	0
716.936	n/a	WORD	358468	wordpools/wasnorm_wordpool_576.txt	LTP283	ltpFR2	10	3	TRANSPLANT	1496	n/a	n/a	0	0	0
719.562	n/a	WORD	359781	wordpools/wasnorm_wordpool_576.txt	LTP283	ltpFR2	10	3	OUTLAW	989	n/a	n/a	0	0	0
722.072	n/a	WORD	361036	wordpools/wasnorm_wordpool_576.txt	LTP283	ltpFR2	10	3	BULLET	194	n/a	n/a	0	0	0
724.73	n/a	WORD	362365	wordpools/wasnorm_wordpool_576.txt	LTP283	ltpFR2	10	3	CHILD	299	n/a	n/a	0	0	0
727.424	n/a	WORD	363712	wordpools/wasnorm_wordpool_576.txt	LTP283	ltpFR2	10	3	SHARK	1275	n/a	n/a	0	0	0
730.186	n/a	WORD	365093	wordpools/wasnorm_wordpool_576.txt	LTP283	ltpFR2	10	3	PIZZA	1079	n/a	n/a	0	0	0
732.712	n/a	WORD	366356	wordpools/wasnorm_wordpool_576.txt	LTP283	ltpFR2	10	3	INMATE	738	n/a	n/a	0	0	0
735.168	n/a	WORD	367584	wordpools/wasnorm_wordpool_576.txt	LTP283	ltpFR2	10	3	AIRPLANE	12	n/a	n/a	0	0	0
737.61	n/a	WORD	368805	wordpools/wasnorm_wordpool_576.txt	LTP283	ltpFR2	10	3	PUDDING	1139	n/a	n/a	0	0	0
740.108	n/a	WORD	370054	wordpools/wasnorm_wordpool_576.txt	LTP283	ltpFR2	10	3	HAMPER	682	n/a	n/a	0	0	0
742.784	n/a	WORD	371392	wordpools/wasnorm_wordpool_576.txt	LTP283	ltpFR2	10	3	BUREAU	199	n/a	n/a	0	0	0
745.426	n/a	WORD	372713	wordpools/wasnorm_wordpool_576.txt	LTP283	ltpFR2	10	3	POPCORN	1104	n/a	n/a	0	0	0
748.134	n/a	WORD	374067	wordpools/wasnorm_wordpool_576.txt	LTP283	ltpFR2	10	3	THREAD	1460	n/a	n/a	0	0	0
750.748	n/a	WORD	375374	wordpools/wasnorm_wordpool_576.txt	LTP283	ltpFR2	10	3	LION	827	n/a	n/a	0	0	0
753.354	n/a	WORD	376677	wordpools/wasnorm_wordpool_576.txt	LTP283	ltpFR2	10	3	HELMET	702	n/a	n/a	0	0	0
755.884	n/a	WORD	377942	wordpools/wasnorm_wordpool_576.txt	LTP283	ltpFR2	10	3	SALMON	1227	n/a	n/a	0	0	0
758.41	n/a	WORD	379205	wordpools/wasnorm_wordpool_576.txt	LTP283	ltpFR2	10	3	GUARD	667	n/a	n/a	0	0	0
760.018	n/a	START	380009	n/a	LTP283	ltpFR2	10	n/a	n/a	n/a	4	n/a	n/a	n/a	n/a
761.018	n/a	DISTRACTOR	380509	n/a	LTP283	ltpFR2	10	3	n/a	n/a	n/a	n/a	0	0	0
761.034	n/a	PROB	380517	n/a	LTP283	ltpFR2	10	n/a	n/a	n/a	4	25	8	8	9
763.258	n/a	PROB	381629	n/a	LTP283	ltpFR2	10	n/a	n/a	n/a	4	14	6	7	1
764.646	n/a	PROB	382323	n/a	LTP283	ltpFR2	10	n/a	n/a	n/a	4	18	7	7	4
766.156	n/a	PROB	383078	n/a	LTP283	ltpFR2	10	n/a	n/a	n/a	4	8	4	1	3
767.358	n/a	PROB	383679	n/a	LTP283	ltpFR2	10	n/a	n/a	n/a	4	17	3	6	8
768.88	n/a	PROB	384440	n/a	LTP283	ltpFR2	10	n/a	n/a	n/a	4	19	6	5	8
770.77	n/a	PROB	385385	n/a	LTP283	ltpFR2	10	n/a	n/a	n/a	4	10	3	3	4
772.076	n/a	PROB	386038	n/a	LTP283	ltpFR2	10	n/a	n/a	n/a	4	21	8	7	6
773.686	n/a	PROB	386843	n/a	LTP283	ltpFR2	10	n/a	n/a	n/a	4	21	8	7	6
774.822	n/a	PROB	387411	n/a	LTP283	ltpFR2	10	n/a	n/a	n/a	4	14	2	4	8
776.174	n/a	PROB	388087	n/a	LTP283	ltpFR2	10	n/a	n/a	n/a	4	16	9	3	4
777.982	n/a	PROB	388991	n/a	LTP283	ltpFR2	10	n/a	n/a	n/a	4	11	2	3	6
779.206	n/a	PROB	389603	n/a	LTP283	ltpFR2	10	n/a	n/a	n/a	4	13	8	1	4
784.018	n/a	STOP	392009	n/a	LTP283	ltpFR2	10	n/a	n/a	n/a	4	n/a	n/a	n/a	n/a
785.916	n/a	REC_START	392958	n/a	LTP283	ltpFR2	10	3	n/a	n/a	n/a	n/a	0	0	0
789.514	n/a	REC_WORD	394757	wordpools/wasnorm_wordpool_576.txt	LTP283	ltpFR2	10	3	PRINCESS	1125	n/a	n/a	0	0	0
790.402	n/a	REC_WORD	395201	wordpools/wasnorm_wordpool_576.txt	LTP283	ltpFR2	10	3	CROWN	415	n/a	n/a	0	0	0
791.122	n/a	REC_WORD	395561	wordpools/wasnorm_wordpool_576.txt	LTP283	ltpFR2	10	3	DRESSER	496	n/a	n/a	0	0	0
791.936	n/a	REC_WORD	395968	wordpools/wasnorm_wordpool_576.txt	LTP283	ltpFR2	10	3	BUREAU	199	n/a	n/a	0	0	0
802.748	n/a	REC_WORD	401374	wordpools/wasnorm_wordpool_576.txt	LTP283	ltpFR2	10	3	SALMON	1227	n/a	n/a	0	0	0
805.946	n/a	REC_WORD	402973	wordpools/wasnorm_wordpool_576.txt	LTP283	ltpFR2	10	3	GUARD	667	n/a	n/a	0	0	0
821.676	n/a	REC_WORD	410838	wordpools/wasnorm_wordpool_576.txt	LTP283	ltpFR2	10	3	TRANSPLANT	1496	n/a	n/a	0	0	0
822.714	n/a	REC_WORD	411357	wordpools/wasnorm_wordpool_576.txt	LTP283	ltpFR2	10	3	OUTLAW	989	n/a	n/a	0	0	0
823.544	n/a	REC_WORD	411772	wordpools/wasnorm_wordpool_576.txt	LTP283	ltpFR2	10	3	INMATE	738	n/a	n/a	0	0	0
824.224	n/a	REC_WORD	412112	wordpools/wasnorm_wordpool_576.txt	LTP283	ltpFR2	10	3	PUDDING	1139	n/a	n/a	0	0	0
825.102	n/a	REC_WORD	412551	wordpools/wasnorm_wordpool_576.txt	LTP283	ltpFR2	10	3	POPCORN	1104	n/a	n/a	0	0	0
876.946	n/a	DISTRACTOR	438473	n/a	LTP283	ltpFR2	10	4	n/a	n/a	n/a	n/a	0	0	0
876.948	n/a	START	438474	n/a	LTP283	ltpFR2	10	n/a	n/a	n/a	5	n/a	n/a	n/a	n/a
876.998	n/a	PROB	438499	n/a	LTP283	ltpFR2	10	n/a	n/a	n/a	5	14	5	4	5
878.402	n/a	PROB	439201	n/a	LTP283	ltpFR2	10	n/a	n/a	n/a	5	14	2	5	7
880.172	n/a	PROB	440086	n/a	LTP283	ltpFR2	10	n/a	n/a	n/a	5	18	4	8	6
881.58	n/a	PROB	440790	n/a	LTP283	ltpFR2	10	n/a	n/a	n/a	5	11	1	1	9
882.748	n/a	PROB	441374	n/a	LTP283	ltpFR2	10	n/a	n/a	n/a	5	13	1	3	9
883.89	n/a	PROB	441945	n/a	LTP283	ltpFR2	10	n/a	n/a	n/a	5	17	4	7	6
885.358	n/a	PROB	442679	n/a	LTP283	ltpFR2	10	n/a	n/a	n/a	5	9	3	5	1
886.814	n/a	PROB	443407	n/a	LTP283	ltpFR2	10	n/a	n/a	n/a	5	22	8	7	7
889.19	n/a	PROB	444595	n/a	LTP283	ltpFR2	10	n/a	n/a	n/a	5	24	7	9	8
891.398	n/a	PROB	445699	n/a	LTP283	ltpFR2	10	n/a	n/a	n/a	5	18	2	7	9
893.054	n/a	PROB	446527	n/a	LTP283	ltpFR2	10	n/a	n/a	n/a	5	16	9	4	3
894.442	n/a	PROB	447221	n/a	LTP283	ltpFR2	10	n/a	n/a	n/a	5	21	6	7	9
896.94	n/a	PROB	448470	n/a	LTP283	ltpFR2	10	n/a	n/a	n/a	5	22	9	9	4
898.944	n/a	PROB	449472	n/a	LTP283	ltpFR2	10	n/a	n/a	n/a	5	18	8	6	4
900.18	n/a	STOP	450090	n/a	LTP283	ltpFR2	10	n/a	n/a	n/a	5	n/a	n/a	n/a	n/a
902.01	n/a	WORD	451005	wordpools/wasnorm_wordpool_576.txt	LTP283	ltpFR2	10	4	MACHINE	852	n/a	n/a	0	0	0
904.48	n/a	WORD	452240	wordpools/wasnorm_wordpool_576.txt	LTP283	ltpFR2	10	4	WOMAN	1620	n/a	n/a	0	0	0
907.112	n/a	WORD	453556	wordpools/wasnorm_wordpool_576.txt	LTP283	ltpFR2	10	4	HONEY	713	n/a	n/a	0	0	0
909.754	n/a	WORD	454877	wordpools/wasnorm_wordpool_576.txt	LTP283	ltpFR2	10	4	GAVEL	627	n/a	n/a	0	0	0
912.498	n/a	WORD	456249	wordpools/wasnorm_wordpool_576.txt	LTP283	ltpFR2	10	4	MAILMAN	858	n/a	n/a	0	0	0
915.26	n/a	WORD	457630	wordpools/wasnorm_wordpool_576.txt	LTP283	ltpFR2	10	4	HIGHWAY	707	n/a	n/a	0	0	0
917.938	n/a	WORD	458969	wordpools/wasnorm_wordpool_576.txt	LTP283	ltpFR2	10	4	JUDGE	761	n/a	n/a	0	0	0
920.458	n/a	WORD	460229	wordpools/wasnorm_wordpool_576.txt	LTP283	ltpFR2	10	4	KEEPER	769	n/a	n/a	0	0	0
922.936	n/a	WORD	461468	wordpools/wasnorm_wordpool_576.txt	LTP283	ltpFR2	10	4	MATCH	878	n/a	n/a	0	0	0
925.666	n/a	WORD	462833	wordpools/wasnorm_wordpool_576.txt	LTP283	ltpFR2	10	4	JAPAN	749	n/a	n/a	0	0	0
928.344	n/a	WORD	464172	wordpools/wasnorm_wordpool_576.txt	LTP283	ltpFR2	10	4	BUCKET	184	n/a	n/a	0	0	0
931.038	n/a	WORD	465519	wordpools/wasnorm_wordpool_576.txt	LTP283	ltpFR2	10	4	NOTEBOOK	959	n/a	n/a	0	0	0
933.512	n/a	WORD	466756	wordpools/wasnorm_wordpool_576.txt	LTP283	ltpFR2	10	4	COLLEGE	346	n/a	n/a	0	0	0
936.056	n/a	WORD	468028	wordpools/wasnorm_wordpool_576.txt	LTP283	ltpFR2	10	4	QUAIL	1147	n/a	n/a	0	0	0
938.782	n/a	WORD	469391	wordpools/wasnorm_wordpool_576.txt	LTP283	ltpFR2	10	4	TURKEY	1520	n/a	n/a	0	0	0
941.576	n/a	WORD	470788	wordpools/wasnorm_wordpool_576.txt	LTP283	ltpFR2	10	4	SHORTCAKE	1292	n/a	n/a	0	0	0
944.318	n/a	WORD	472159	wordpools/wasnorm_wordpool_576.txt	LTP283	ltpFR2	10	4	APPLE	33	n/a	n/a	0	0	0
946.948	n/a	WORD	473474	wordpools/wasnorm_wordpool_576.txt	LTP283	ltpFR2	10	4	DAISY	435	n/a	n/a	0	0	0
949.474	n/a	WORD	474737	wordpools/wasnorm_wordpool_576.txt	LTP283	ltpFR2	10	4	WASHER	1592	n/a	n/a	0	0	0
952.15	n/a	WORD	476075	wordpools/wasnorm_wordpool_576.txt	LTP283	ltpFR2	10	4	GHETTO	633	n/a	n/a	0	0	0
954.874	n/a	WORD	477437	wordpools/wasnorm_wordpool_576.txt	LTP283	ltpFR2	10	4	BROOK	177	n/a	n/a	0	0	0
957.554	n/a	WORD	478777	wordpools/wasnorm_wordpool_576.txt	LTP283	ltpFR2	10	4	SWAMP	1416	n/a	n/a	0	0	0
959.998	n/a	WORD	479999	wordpools/wasnorm_wordpool_576.txt	LTP283	ltpFR2	10	4	COFFEE	341	n/a	n/a	0	0	0
962.456	n/a	WORD	481228	wordpools/wasnorm_wordpool_576.txt	LTP283	ltpFR2	10	4	FIREMAN	569	n/a	n/a	0	0	0
964.064	n/a	START	482032	n/a	LTP283	ltpFR2	10	n/a	n/a	n/a	6	n/a	n/a	n/a	n/a
965.136	n/a	DISTRACTOR	482568	n/a	LTP283	ltpFR2	10	4	n/a	n/a	n/a	n/a	0	0	0
965.15	n/a	PROB	482575	n/a	LTP283	ltpFR2	10	n/a	n/a	n/a	6	15	4	4	7
967.406	n/a	PROB	483703	n/a	LTP283	ltpFR2	10	n/a	n/a	n/a	6	10	5	4	1
969.078	n/a	PROB	484539	n/a	LTP283	ltpFR2	10	n/a	n/a	n/a	6	7	2	3	2
970.968	n/a	PROB	485484	n/a	LTP283	ltpFR2	10	n/a	n/a	n/a	6	18	3	8	7
973.214	n/a	PROB	486607	n/a	LTP283	ltpFR2	10	n/a	n/a	n/a	6	15	5	6	4
974.738	n/a	PROB	487369	n/a	LTP283	ltpFR2	10	n/a	n/a	n/a	6	1	2	2	9
978.298	n/a	PROB	489149	n/a	LTP283	ltpFR2	10	n/a	n/a	n/a	6	21	6	7	8
980.238	n/a	PROB	490119	n/a	LTP283	ltpFR2	10	n/a	n/a	n/a	6	18	3	9	6
981.714	n/a	PROB	490857	n/a	LTP283	ltpFR2	10	n/a	n/a	n/a	6	17	4	7	6
983.2	n/a	PROB	491600	n/a	LTP283	ltpFR2	10	n/a	n/a	n/a	6	12	4	3	5
985.01	n/a	PROB	492505	n/a	LTP283	ltpFR2	10	n/a	n/a	n/a	6	20	5	6	9
986.432	n/a	PROB	493216	n/a	LTP283	ltpFR2	10	n/a	n/a	n/a	6	12	8	3	1
987.864	n/a	STOP	493932	n/a	LTP283	ltpFR2	10	n/a	n/a	n/a	6	n/a	n/a	n/a	n/a
990.012	n/a	REC_START	495006	n/a	LTP283	ltpFR2	10	4	n/a	n/a	n/a	n/a	0	0	0
995.576	n/a	REC_WORD	497788	wordpools/wasnorm_wordpool_576.txt	LTP283	ltpFR2	10	4	WASHER	1592	n/a	n/a	0	0	0
1081.06	n/a	WORD	540530	wordpools/wasnorm_wordpool_576.txt	LTP283	ltpFR2	10	5	BASEMENT	94	n/a	n/a	0	0	0
1083.732	n/a	WORD	541866	wordpools/wasnorm_wordpool_576.txt	LTP283	ltpFR2	10	5	PISTOL	1075	n/a	n/a	0	0	0
1086.548	n/a	WORD	543274	wordpools/wasnorm_wordpool_576.txt	LTP283	ltpFR2	10	5	STALLION	1369	n/a	n/a	0	0	0
1089.272	n/a	WORD	544636	wordpools/wasnorm_wordpool_576.txt	LTP283	ltpFR2	10	5	WAGON	1578	n/a	n/a	0	0	0
1091.818	n/a	WORD	545909	wordpools/wasnorm_wordpool_576.txt	LTP283	ltpFR2	10	5	SCALLOP	1242	n/a	n/a	0	0	0
1094.324	n/a	WORD	547162	wordpools/wasnorm_wordpool_576.txt	LTP283	ltpFR2	10	5	LAGOON	795	n/a	n/a	0	0	0
1097.122	n/a	WORD	548561	wordpools/wasnorm_wordpool_576.txt	LTP283	ltpFR2	10	5	PUDDLE	1140	n/a	n/a	0	0	0
1099.916	n/a	WORD	549958	wordpools/wasnorm_wordpool_576.txt	LTP283	ltpFR2	10	5	SCOTCH	1251	n/a	n/a	0	0	0
1102.376	n/a	WORD	551188	wordpools/wasnorm_wordpool_576.txt	LTP283	ltpFR2	10	5	DANDRUFF	439	n/a	n/a	0	0	0
1104.92	n/a	WORD	552460	wordpools/wasnorm_wordpool_576.txt	LTP283	ltpFR2	10	5	MUSTARD	935	n/a	n/a	0	0	0
1107.562	n/a	WORD	553781	wordpools/wasnorm_wordpool_576.txt	LTP283	ltpFR2	10	5	SALT	1229	n/a	n/a	0	0	0
1110.106	n/a	WORD	555053	wordpools/wasnorm_wordpool_576.txt	LTP283	ltpFR2	10	5	SHOVEL	1295	n/a	n/a	0	0	0
1112.832	n/a	WORD	556416	wordpools/wasnorm_wordpool_576.txt	LTP283	ltpFR2	10	5	CORAL	378	n/a	n/a	0	0	0
1115.524	n/a	WORD	557762	wordpools/wasnorm_wordpool_576.txt	LTP283	ltpFR2	10	5	HEADBAND	696	n/a	n/a	0	0	0
1118.252	n/a	WORD	559126	wordpools/wasnorm_wordpool_576.txt	LTP283	ltpFR2	10	5	ROD	1203	n/a	n/a	0	0	0
1120.706	n/a	WORD	560353	wordpools/wasnorm_wordpool_576.txt	LTP283	ltpFR2	10	5	WASP	1593	n/a	n/a	0	0	0
1123.206	n/a	WORD	561603	wordpools/wasnorm_wordpool_576.txt	LTP283	ltpFR2	10	5	SLOPE	1328	n/a	n/a	0	0	0
1125.912	n/a	WORD	562956	wordpools/wasnorm_wordpool_576.txt	LTP283	ltpFR2	10	5	COD	340	n/a	n/a	0	0	0
1128.642	n/a	WORD	564321	wordpools/wasnorm_wordpool_576.txt	LTP283	ltpFR2	10	5	DIVER	476	n/a	n/a	0	0	0
1131.37	n/a	WORD	565685	wordpools/wasnorm_wordpool_576.txt	LTP283	ltpFR2	10	5	DRILL	497	n/a	n/a	0	0	0
1133.876	n/a	WORD	566938	wordpools/wasnorm_wordpool_576.txt	LTP283	ltpFR2	10	5	RADISH	1158	n/a	n/a	0	0	0
1136.406	n/a	WORD	568203	wordpools/wasnorm_wordpool_576.txt	LTP283	ltpFR2	10	5	PEPPER	1047	n/a	n/a	0	0	0
1138.932	n/a	WORD	569466	wordpools/wasnorm_wordpool_576.txt	LTP283	ltpFR2	10	5	PLUTO	1092	n/a	n/a	0	0	0
1141.638	n/a	WORD	570819	wordpools/wasnorm_wordpool_576.txt	LTP283	ltpFR2	10	5	BLOUSE	139	n/a	n/a	0	0	0
1143.25	n/a	START	571625	n/a	LTP283	ltpFR2	10	n/a	n/a	n/a	7	n/a	n/a	n/a	n/a
1144.376	n/a	DISTRACTOR	572188	n/a	LTP283	ltpFR2	10	5	n/a	n/a	n/a	n/a	0	0	0
1144.386	n/a	PROB	572193	n/a	LTP283	ltpFR2	10	n/a	n/a	n/a	7	15	1	7	7
1146.156	n/a	PROB	573078	n/a	LTP283	ltpFR2	10	n/a	n/a	n/a	7	18	6	3	9
1147.442	n/a	PROB	573721	n/a	LTP283	ltpFR2	10	n/a	n/a	n/a	7	8	5	2	1
1148.618	n/a	PROB	574309	n/a	LTP283	ltpFR2	10	n/a	n/a	n/a	7	21	6	9	6
1150.288	n/a	PROB	575144	n/a	LTP283	ltpFR2	10	n/a	n/a	n/a	7	15	6	4	5
1152.112	n/a	PROB	576056	n/a	LTP283	ltpFR2	10	n/a	n/a	n/a	7	20	4	7	9
1153.582	n/a	PROB	576791	n/a	LTP283	ltpFR2	10	n/a	n/a	n/a	7	9	6	2	1
1154.804	n/a	PROB	577402	n/a	LTP283	ltpFR2	10	n/a	n/a	n/a	7	16	3	5	8
1156.548	n/a	PROB	578274	n/a	LTP283	ltpFR2	10	n/a	n/a	n/a	7	21	4	9	8
1157.97	n/a	PROB	578985	n/a	LTP283	ltpFR2	10	n/a	n/a	n/a	7	20	7	6	7
1159.572	n/a	PROB	579786	n/a	LTP283	ltpFR2	10	n/a	n/a	n/a	7	18	7	6	5
1167.25	n/a	STOP	583625	n/a	LTP283	ltpFR2	10	n/a	n/a	n/a	7	n/a	n/a	n/a	n/a
1169.128	n/a	REC_START	584564	n/a	LTP283	ltpFR2	10	5	n/a	n/a	n/a	n/a	0	0	0
1172.698	n/a	REC_WORD	586349	wordpools/wasnorm_wordpool_576.txt	LTP283	ltpFR2	10	5	BASEMENT	94	n/a	n/a	0	0	0
1173.404	n/a	REC_WORD	586702	wordpools/wasnorm_wordpool_576.txt	LTP283	ltpFR2	10	5	PISTOL	1075	n/a	n/a	0	0	0
1175.292	n/a	REC_WORD	587646	wordpools/wasnorm_wordpool_576.txt	LTP283	ltpFR2	10	5	STALLION	1369	n/a	n/a	0	0	0
1176.164	n/a	REC_WORD	588082	wordpools/wasnorm_wordpool_576.txt	LTP283	ltpFR2	10	5	SCALLOP	1242	n/a	n/a	0	0	0
1177.164	n/a	REC_WORD_VV	588582	wordpools/wasnorm_wordpool_576.txt	LTP283	ltpFR2	10	5	<>	-1	n/a	n/a	0	0	0
1180.034	n/a	REC_WORD	590017	wordpools/wasnorm_wordpool_576.txt	LTP283	ltpFR2	10	5	RADISH	1158	n/a	n/a	0	0	0
1180.72	n/a	REC_WORD	590360	wordpools/wasnorm_wordpool_576.txt	LTP283	ltpFR2	10	5	PEPPER	1047	n/a	n/a	0	0	0
1181.302	n/a	REC_WORD	590651	wordpools/wasnorm_wordpool_576.txt	LTP283	ltpFR2	10	5	SALT	1229	n/a	n/a	0	0	0
1188.704	n/a	REC_WORD	594352	wordpools/wasnorm_wordpool_576.txt	LTP283	ltpFR2	10	5	SADDLE	1221	n/a	n/a	0	0	0
1260.178	n/a	DISTRACTOR	630089	n/a	LTP283	ltpFR2	10	6	n/a	n/a	n/a	n/a	0	0	0
1260.178	n/a	START	630089	n/a	LTP283	ltpFR2	10	n/a	n/a	n/a	8	n/a	n/a	n/a	n/a
1260.228	n/a	PROB	630114	n/a	LTP283	ltpFR2	10	n/a	n/a	n/a	8	21	4	8	9
1261.65	n/a	PROB	630825	n/a	LTP283	ltpFR2	10	n/a	n/a	n/a	8	10	2	3	5
1262.968	n/a	PROB	631484	n/a	LTP283	ltpFR2	10	n/a	n/a	n/a	8	15	2	6	7
1265.114	n/a	PROB	632557	n/a	LTP283	ltpFR2	10	n/a	n/a	n/a	8	24	8	7	9
1268.454	n/a	PROB	634227	n/a	LTP283	ltpFR2	10	n/a	n/a	n/a	8	21	9	5	7
1270.364	n/a	PROB	635182	n/a	LTP283	ltpFR2	10	n/a	n/a	n/a	8	22	5	9	8
1272.89	n/a	PROB	636445	n/a	LTP283	ltpFR2	10	n/a	n/a	n/a	8	9	6	2	1
1274.112	n/a	PROB	637056	n/a	LTP283	ltpFR2	10	n/a	n/a	n/a	8	13	2	3	8
1275.716	n/a	PROB	637858	n/a	LTP283	ltpFR2	10	n/a	n/a	n/a	8	13	7	5	1
1277.708	n/a	PROB	638854	n/a	LTP283	ltpFR2	10	n/a	n/a	n/a	8	13	3	4	6
1279.514	n/a	PROB	639757	n/a	LTP283	ltpFR2	10	n/a	n/a	n/a	8	13	5	1	7
1281.372	n/a	PROB	640686	n/a	LTP283	ltpFR2	10	n/a	n/a	n/a	8	15	5	8	2
1282.624	n/a	STOP	641312	n/a	LTP283	ltpFR2	10	n/a	n/a	n/a	8	n/a	n/a	n/a	n/a
1285.392	n/a	WORD	642696	wordpools/wasnorm_wordpool_576.txt	LTP283	ltpFR2	10	6	CAFE	216	n/a	n/a	0	0	0
1287.93	n/a	WORD	643965	wordpools/wasnorm_wordpool_576.txt	LTP283	ltpFR2	10	6	PERFUME	1049	n/a	n/a	0	0	0
1290.456	n/a	WORD	645228	wordpools/wasnorm_wordpool_576.txt	LTP283	ltpFR2	10	6	SPHINX	1349	n/a	n/a	0	0	0
1292.916	n/a	WORD	646458	wordpools/wasnorm_wordpool_576.txt	LTP283	ltpFR2	10	6	EGYPT	519	n/a	n/a	0	0	0
1295.476	n/a	WORD	647738	wordpools/wasnorm_wordpool_576.txt	LTP283	ltpFR2	10	6	MEDAL	885	n/a	n/a	0	0	0
1298.19	n/a	WORD	649095	wordpools/wasnorm_wordpool_576.txt	LTP283	ltpFR2	10	6	SPOON	1357	n/a	n/a	0	0	0
1300.934	n/a	WORD	650467	wordpools/wasnorm_wordpool_576.txt	LTP283	ltpFR2	10	6	ZEBRA	1635	n/a	n/a	0	0	0
1303.572	n/a	WORD	651786	wordpools/wasnorm_wordpool_576.txt	LTP283	ltpFR2	10	6	LILY	821	n/a	n/a	0	0	0
1306.266	n/a	WORD	653133	wordpools/wasnorm_wordpool_576.txt	LTP283	ltpFR2	10	6	TABLET	1427	n/a	n/a	0	0	0
1308.73	n/a	WORD	654365	wordpools/wasnorm_wordpool_576.txt	LTP283	ltpFR2	10	6	PERCH	1048	n/a	n/a	0	0	0
1311.186	n/a	WORD	655593	wordpools/wasnorm_wordpool_576.txt	LTP283	ltpFR2	10	6	DENIM	446	n/a	n/a	0	0	0
1313.728	n/a	WORD	656864	wordpools/wasnorm_wordpool_576.txt	LTP283	ltpFR2	10	6	CURTAIN	427	n/a	n/a	0	0	0
1316.31	n/a	WORD	658155	wordpools/wasnorm_wordpool_576.txt	LTP283	ltpFR2	10	6	SAUSAGE	1238	n/a	n/a	0	0	0
1318.768	n/a	WORD	659384	wordpools/wasnorm_wordpool_576.txt	LTP283	ltpFR2	10	6	GARDEN	623	n/a	n/a	0	0	0
1321.212	n/a	WORD	660606	wordpools/wasnorm_wordpool_576.txt	LTP283	ltpFR2	10	6	PARSLEY	1016	n/a	n/a	0	0	0
1323.704	n/a	WORD	661852	wordpools/wasnorm_wordpool_576.txt	LTP283	ltpFR2	10	6	ANTLER	29	n/a	n/a	0	0	0
1326.464	n/a	WORD	663232	wordpools/wasnorm_wordpool_576.txt	LTP283	ltpFR2	10	6	CATCHER	258	n/a	n/a	0	0	0
1329.238	n/a	WORD	664619	wordpools/wasnorm_wordpool_576.txt	LTP283	ltpFR2	10	6	BACON	67	n/a	n/a	0	0	0
1331.886	n/a	WORD	665943	wordpools/wasnorm_wordpool_576.txt	LTP283	ltpFR2	10	6	TEMPLE	1448	n/a	n/a	0	0	0
1334.676	n/a	WORD	667338	wordpools/wasnorm_wordpool_576.txt	LTP283	ltpFR2	10	6	MISTER	901	n/a	n/a	0	0	0
1337.274	n/a	WORD	668637	wordpools/wasnorm_wordpool_576.txt	LTP283	ltpFR2	10	6	CARRIAGE	248	n/a	n/a	0	0	0
1340.0	n/a	WORD	670000	wordpools/wasnorm_wordpool_576.txt	LTP283	ltpFR2	10	6	CRIB	407	n/a	n/a	0	0	0
1342.576	n/a	WORD	671288	wordpools/wasnorm_wordpool_576.txt	LTP283	ltpFR2	10	6	JEANS	752	n/a	n/a	0	0	0
1345.102	n/a	WORD	672551	wordpools/wasnorm_wordpool_576.txt	LTP283	ltpFR2	10	6	GALLON	618	n/a	n/a	0	0	0
1346.708	n/a	START	673354	n/a	LTP283	ltpFR2	10	n/a	n/a	n/a	9	n/a	n/a	n/a	n/a
1347.756	n/a	DISTRACTOR	673878	n/a	LTP283	ltpFR2	10	6	n/a	n/a	n/a	n/a	0	0	0
1347.762	n/a	PROB	673881	n/a	LTP283	ltpFR2	10	n/a	n/a	n/a	9	14	3	8	3
1350.408	n/a	PROB	675204	n/a	LTP283	ltpFR2	10	n/a	n/a	n/a	9	14	8	4	2
1352.114	n/a	PROB	676057	n/a	LTP283	ltpFR2	10	n/a	n/a	n/a	9	15	8	3	4
1354.254	n/a	PROB	677127	n/a	LTP283	ltpFR2	10	n/a	n/a	n/a	9	12	8	1	3
1355.672	n/a	PROB	677836	n/a	LTP283	ltpFR2	10	n/a	n/a	n/a	9	13	8	4	1
1357.146	n/a	PROB	678573	n/a	LTP283	ltpFR2	10	n/a	n/a	n/a	9	100	5	4	1
1359.136	n/a	PROB	679568	n/a	LTP283	ltpFR2	10	n/a	n/a	n/a	9	4	9	2	2
1360.724	n/a	PROB	680362	n/a	LTP283	ltpFR2	10	n/a	n/a	n/a	9	12	4	5	3
1363.272	n/a	PROB	681636	n/a	LTP283	ltpFR2	10	n/a	n/a	n/a	9	20	9	8	3
1364.522	n/a	PROB	682261	n/a	LTP283	ltpFR2	10	n/a	n/a	n/a	9	9	3	3	3
1365.678	n/a	PROB	682839	n/a	LTP283	ltpFR2	10	n/a	n/a	n/a	9	19	8	2	9
1367.0	n/a	PROB	683500	n/a	LTP283	ltpFR2	10	n/a	n/a	n/a	9	12	4	7	1
1370.71	n/a	STOP	685355	n/a	LTP283	ltpFR2	10	n/a	n/a	n/a	9	n/a	n/a	n/a	n/a
1372.488	n/a	REC_START	686244	n/a	LTP283	ltpFR2	10	6	n/a	n/a	n/a	n/a	0	0	0
1389.112	n/a	REC_WORD	694556	wordpools/wasnorm_wordpool_576.txt	LTP283	ltpFR2	10	6	BACON	67	n/a	n/a	0	0	0
1391.858	n/a	REC_WORD	695929	wordpools/wasnorm_wordpool_576.txt	LTP283	ltpFR2	10	6	CARRIAGE	248	n/a	n/a	0	0	0
1408.936	n/a	REC_WORD_VV	704468	wordpools/wasnorm_wordpool_576.txt	LTP283	ltpFR2	10	6	<>	-1	n/a	n/a	0	0	0
1409.936	n/a	REC_WORD_VV	704968	wordpools/wasnorm_wordpool_576.txt	LTP283	ltpFR2	10	6	<>	-1	n/a	n/a	0	0	0
1463.538	n/a	WORD	731769	wordpools/wasnorm_wordpool_576.txt	LTP283	ltpFR2	10	7	CRITIC	410	n/a	n/a	0	0	0
1465.982	n/a	WORD	732991	wordpools/wasnorm_wordpool_576.txt	LTP283	ltpFR2	10	7	LEOPARD	812	n/a	n/a	0	0	0
1468.574	n/a	WORD	734287	wordpools/wasnorm_wordpool_576.txt	LTP283	ltpFR2	10	7	CLAM	315	n/a	n/a	0	0	0
1471.114	n/a	WORD	735557	wordpools/wasnorm_wordpool_576.txt	LTP283	ltpFR2	10	7	CIGAR	308	n/a	n/a	0	0	0
1473.542	n/a	WORD	736771	wordpools/wasnorm_wordpool_576.txt	LTP283	ltpFR2	10	7	REBEL	1172	n/a	n/a	0	0	0
1476.204	n/a	WORD	738102	wordpools/wasnorm_wordpool_576.txt	LTP283	ltpFR2	10	7	KLEENEX	782	n/a	n/a	0	0	0
1478.88	n/a	WORD	739440	wordpools/wasnorm_wordpool_576.txt	LTP283	ltpFR2	10	7	TROMBONE	1508	n/a	n/a	0	0	0
1481.674	n/a	WORD	740837	wordpools/wasnorm_wordpool_576.txt	LTP283	ltpFR2	10	7	SKETCH	1315	n/a	n/a	0	0	0
1484.252	n/a	WORD	742126	wordpools/wasnorm_wordpool_576.txt	LTP283	ltpFR2	10	7	BOUQUET	157	n/a	n/a	0	0	0
1487.03	n/a	WORD	743515	wordpools/wasnorm_wordpool_576.txt	LTP283	ltpFR2	10	7	ELBOW	520	n/a	n/a	0	0	0
1489.852	n/a	WORD	744926	wordpools/wasnorm_wordpool_576.txt	LTP283	ltpFR2	10	7	ANKLE	24	n/a	n/a	0	0	0
1492.382	n/a	WORD	746191	wordpools/wasnorm_wordpool_576.txt	LTP283	ltpFR2	10	7	ACTRESS	6	n/a	n/a	0	0	0
1495.126	n/a	WORD	747563	wordpools/wasnorm_wordpool_576.txt	LTP283	ltpFR2	10	7	ROBBER	1197	n/a	n/a	0	0	0
1497.922	n/a	WORD	748961	wordpools/wasnorm_wordpool_576.txt	LTP283	ltpFR2	10	7	HUSBAND	728	n/a	n/a	0	0	0
1500.414	n/a	WORD	750207	wordpools/wasnorm_wordpool_576.txt	LTP283	ltpFR2	10	7	BURGLAR	200	n/a	n/a	0	0	0
1503.006	n/a	WORD	751503	wordpools/wasnorm_wordpool_576.txt	LTP283	ltpFR2	10	7	SCRIBBLE	1256	n/a	n/a	0	0	0
1505.666	n/a	WORD	752833	wordpools/wasnorm_wordpool_576.txt	LTP283	ltpFR2	10	7	SNAIL	1332	n/a	n/a	0	0	0
1508.31	n/a	WORD	754155	wordpools/wasnorm_wordpool_576.txt	LTP283	ltpFR2	10	7	SLUG	1329	n/a	n/a	0	0	0
1510.954	n/a	WORD	755477	wordpools/wasnorm_wordpool_576.txt	LTP283	ltpFR2	10	7	SIDEWALK	1303	n/a	n/a	0	0	0
1513.392	n/a	WORD	756696	wordpools/wasnorm_wordpool_576.txt	LTP283	ltpFR2	10	7	GARLIC	624	n/a	n/a	0	0	0
1515.906	n/a	WORD	757953	wordpools/wasnorm_wordpool_576.txt	LTP283	ltpFR2	10	7	THIEF	1456	n/a	n/a	0	0	0
1518.482	n/a	WORD	759241	wordpools/wasnorm_wordpool_576.txt	LTP283	ltpFR2	10	7	PLAID	1080	n/a	n/a	0	0	0
1521.188	n/a	WORD	760594	wordpools/wasnorm_wordpool_576.txt	LTP283	ltpFR2	10	7	FLESH	579	n/a	n/a	0	0	0
1523.982	n/a	WORD	761991	wordpools/wasnorm_wordpool_576.txt	LTP283	ltpFR2	10	7	PARTNER	1017	n/a	n/a	0	0	0
1525.592	n/a	START	762796	n/a	LTP283	ltpFR2	10	n/a	n/a	n/a	10	n/a	n/a	n/a	n/a
1526.422	n/a	DISTRACTOR	763211	n/a	LTP283	ltpFR2	10	7	n/a	n/a	n/a	n/a	0	0	0
1526.43	n/a	PROB	763215	n/a	LTP283	ltpFR2	10	n/a	n/a	n/a	10	14	6	7	1
1528.32	n/a	PROB	764160	n/a	LTP283	ltpFR2	10	n/a	n/a	n/a	10	18	1	8	9
1529.824	n/a	PROB	764912	n/a	LTP283	ltpFR2	10	n/a	n/a	n/a	10	19	4	8	7
1532.218	n/a	PROB	766109	n/a	LTP283	ltpFR2	10	n/a	n/a	n/a	10	16	3	5	8
1533.886	n/a	PROB	766943	n/a	LTP283	ltpFR2	10	n/a	n/a	n/a	10	14	9	4	1
1535.176	n/a	PROB	767588	n/a	LTP283	ltpFR2	10	n/a	n/a	n/a	10	18	5	5	8
1536.434	n/a	PROB	768217	n/a	LTP283	ltpFR2	10	n/a	n/a	n/a	10	23	8	6	9
1540.082	n/a	PROB	770041	n/a	LTP283	ltpFR2	10	n/a	n/a	n/a	10	16	2	5	9
1541.854	n/a	PROB	770927	n/a	LTP283	ltpFR2	10	n/a	n/a	n/a	10	19	5	9	5
1543.29	n/a	PROB	771645	n/a	LTP283	ltpFR2	10	n/a	n/a	n/a	10	12	7	4	1
1544.828	n/a	PROB	772414	n/a	LTP283	ltpFR2	10	n/a	n/a	n/a	10	15	3	4	8
1546.552	n/a	PROB	773276	n/a	LTP283	ltpFR2	10	n/a	n/a	n/a	10	19	9	6	4
1547.94	n/a	PROB	773970	n/a	LTP283	ltpFR2	10	n/a	n/a	n/a	10	19	8	8	3
1549.494	n/a	STOP	774747	n/a	LTP283	ltpFR2	10	n/a	n/a	n/a	10	n/a	n/a	n/a	n/a
1551.438	n/a	REC_START	775719	n/a	LTP283	ltpFR2	10	7	n/a	n/a	n/a	n/a	0	0	0
1555.84	n/a	REC_WORD	777920	wordpools/wasnorm_wordpool_576.txt	LTP283	ltpFR2	10	7	SCRIBBLE	1256	n/a	n/a	0	0	0
1556.768	n/a	REC_WORD	778384	wordpools/wasnorm_wordpool_576.txt	LTP283	ltpFR2	10	7	HUSBAND	728	n/a	n/a	0	0	0
1557.912	n/a	REC_WORD	778956	wordpools/wasnorm_wordpool_576.txt	LTP283	ltpFR2	10	7	THIEF	1456	n/a	n/a	0	0	0
1558.856	n/a	REC_WORD	779428	wordpools/wasnorm_wordpool_576.txt	LTP283	ltpFR2	10	7	ROBBER	1197	n/a	n/a	0	0	0
1559.59	n/a	REC_WORD	779795	wordpools/wasnorm_wordpool_576.txt	LTP283	ltpFR2	10	7	BURGLAR	200	n/a	n/a	0	0	0
1560.48	n/a	REC_WORD	780240	wordpools/wasnorm_wordpool_576.txt	LTP283	ltpFR2	10	7	ELBOW	520	n/a	n/a	0	0	0
1561.272	n/a	REC_WORD	780636	wordpools/wasnorm_wordpool_576.txt	LTP283	ltpFR2	10	7	ANKLE	24	n/a	n/a	0	0	0
1562.002	n/a	REC_WORD	781001	wordpools/wasnorm_wordpool_576.txt	LTP283	ltpFR2	10	7	BOUQUET	157	n/a	n/a	0	0	0
1642.472	n/a	DISTRACTOR	821236	n/a	LTP283	ltpFR2	10	8	n/a	n/a	n/a	n/a	0	0	0
1642.472	n/a	START	821236	n/a	LTP283	ltpFR2	10	n/a	n/a	n/a	11	n/a	n/a	n/a	n/a
1642.522	n/a	PROB	821261	n/a	LTP283	ltpFR2	10	n/a	n/a	n/a	11	14	3	7	4
1645.43	n/a	PROB	822715	n/a	LTP283	ltpFR2	10	n/a	n/a	n/a	11	15	4	5	6
1647.672	n/a	PROB	823836	n/a	LTP283	ltpFR2	10	n/a	n/a	n/a	11	19	6	8	5
1649.784	n/a	PROB	824892	n/a	LTP283	ltpFR2	10	n/a	n/a	n/a	11	18	5	8	5
1651.102	n/a	PROB	825551	n/a	LTP283	ltpFR2	10	n/a	n/a	n/a	11	8	2	2	4
1652.306	n/a	PROB	826153	n/a	LTP283	ltpFR2	10	n/a	n/a	n/a	11	23	8	7	8
1654.748	n/a	PROB	827374	n/a	LTP283	ltpFR2	10	n/a	n/a	n/a	11	17	1	7	9
1656.138	n/a	PROB	828069	n/a	LTP283	ltpFR2	10	n/a	n/a	n/a	11	12	1	9	2
1657.61	n/a	PROB	828805	n/a	LTP283	ltpFR2	10	n/a	n/a	n/a	11	12	2	4	6
1659.266	n/a	PROB	829633	n/a	LTP283	ltpFR2	10	n/a	n/a	n/a	11	11	7	2	2
1660.704	n/a	PROB	830352	n/a	LTP283	ltpFR2	10	n/a	n/a	n/a	11	16	2	6	8
1662.312	n/a	PROB	831156	n/a	LTP283	ltpFR2	10	n/a	n/a	n/a	11	19	1	9	9
1663.666	n/a	PROB	831833	n/a	LTP283	ltpFR2	10	n/a	n/a	n/a	11	23	8	6	9
1665.958	n/a	STOP	832979	n/a	LTP283	ltpFR2	10	n/a	n/a	n/a	11	n/a	n/a	n/a	n/a
1667.436	n/a	WORD	833718	wordpools/wasnorm_wordpool_576.txt	LTP283	ltpFR2	10	8	LONDON	843	n/a	n/a	0	0	0
1670.212	n/a	WORD	835106	wordpools/wasnorm_wordpool_576.txt	LTP283	ltpFR2	10	8	PORTRAIT	1111	n/a	n/a	0	0	0
1673.024	n/a	WORD	836512	wordpools/wasnorm_wordpool_576.txt	LTP283	ltpFR2	10	8	CASKET	255	n/a	n/a	0	0	0
1675.566	n/a	WORD	837783	wordpools/wasnorm_wordpool_576.txt	LTP283	ltpFR2	10	8	EUROPE	541	n/a	n/a	0	0	0
1678.142	n/a	WORD	839071	wordpools/wasnorm_wordpool_576.txt	LTP283	ltpFR2	10	8	MUFFIN	929	n/a	n/a	0	0	0
1680.734	n/a	WORD	840367	wordpools/wasnorm_wordpool_576.txt	LTP283	ltpFR2	10	8	STUDENT	1395	n/a	n/a	0	0	0
1683.508	n/a	WORD	841754	wordpools/wasnorm_wordpool_576.txt	LTP283	ltpFR2	10	8	NOMAD	955	n/a	n/a	0	0	0
1686.19	n/a	WORD	843095	wordpools/wasnorm_wordpool_576.txt	LTP283	ltpFR2	10	8	FILM	565	n/a	n/a	0	0	0
1688.816	n/a	WORD	844408	wordpools/wasnorm_wordpool_576.txt	LTP283	ltpFR2	10	8	PARROT	1015	n/a	n/a	0	0	0
1691.36	n/a	WORD	845680	wordpools/wasnorm_wordpool_576.txt	LTP283	ltpFR2	10	8	COIN	343	n/a	n/a	0	0	0
1694.054	n/a	WORD	847027	wordpools/wasnorm_wordpool_576.txt	LTP283	ltpFR2	10	8	GYMNAST	675	n/a	n/a	0	0	0
1696.578	n/a	WORD	848289	wordpools/wasnorm_wordpool_576.txt	LTP283	ltpFR2	10	8	CLOUD	328	n/a	n/a	0	0	0
1699.086	n/a	WORD	849543	wordpools/wasnorm_wordpool_576.txt	LTP283	ltpFR2	10	8	MESSAGE	888	n/a	n/a	0	0	0
1701.678	n/a	WORD	850839	wordpools/wasnorm_wordpool_576.txt	LTP283	ltpFR2	10	8	FLIPPER	580	n/a	n/a	0	0	0
1704.126	n/a	WORD	852063	wordpools/wasnorm_wordpool_576.txt	LTP283	ltpFR2	10	8	TORTOISE	1486	n/a	n/a	0	0	0
1706.836	n/a	WORD	853418	wordpools/wasnorm_wordpool_576.txt	LTP283	ltpFR2	10	8	MILK	895	n/a	n/a	0	0	0
1709.562	n/a	WORD	854781	wordpools/wasnorm_wordpool_576.txt	LTP283	ltpFR2	10	8	FRANCE	601	n/a	n/a	0	0	0
1712.068	n/a	WORD	856034	wordpools/wasnorm_wordpool_576.txt	LTP283	ltpFR2	10	8	SMOG	1330	n/a	n/a	0	0	0
1714.882	n/a	WORD	857441	wordpools/wasnorm_wordpool_576.txt	LTP283	ltpFR2	10	8	BODY	145	n/a	n/a	0	0	0
1717.476	n/a	WORD	858738	wordpools/wasnorm_wordpool_576.txt	LTP283	ltpFR2	10	8	XEROX	1628	n/a	n/a	0	0	0
1720.138	n/a	WORD	860069	wordpools/wasnorm_wordpool_576.txt	LTP283	ltpFR2	10	8	WORLD	1622	n/a	n/a	0	0	0
1722.596	n/a	WORD	861298	wordpools/wasnorm_wordpool_576.txt	LTP283	ltpFR2	10	8	GLOBE	641	n/a	n/a	0	0	0
1725.14	n/a	WORD	862570	wordpools/wasnorm_wordpool_576.txt	LTP283	ltpFR2	10	8	MARROW	872	n/a	n/a	0	0	0
1727.564	n/a	WORD	863782	wordpools/wasnorm_wordpool_576.txt	LTP283	ltpFR2	10	8	BACKBONE	66	n/a	n/a	0	0	0
1729.172	n/a	START	864586	n/a	LTP283	ltpFR2	10	n/a	n/a	n/a	12	n/a	n/a	n/a	n/a
1730.184	n/a	DISTRACTOR	865092	n/a	LTP283	ltpFR2	10	8	n/a	n/a	n/a	n/a	0	0	0
1730.192	n/a	PROB	865096	n/a	LTP283	ltpFR2	10	n/a	n/a	n/a	12	15	7	7	1
1732.43	n/a	PROB	866215	n/a	LTP283	ltpFR2	10	n/a	n/a	n/a	12	10	1	5	4
1733.666	n/a	PROB	866833	n/a	LTP283	ltpFR2	10	n/a	n/a	n/a	12	12	5	3	4
1735.428	n/a	PROB	867714	n/a	LTP283	ltpFR2	10	n/a	n/a	n/a	12	9	1	5	3
1736.678	n/a	PROB	868339	n/a	LTP283	ltpFR2	10	n/a	n/a	n/a	12	17	9	6	2
1738.942	n/a	PROB	869471	n/a	LTP283	ltpFR2	10	n/a	n/a	n/a	12	16	5	6	5
1740.244	n/a	PROB	870122	n/a	LTP283	ltpFR2	10	n/a	n/a	n/a	12	12	7	3	2
1741.932	n/a	PROB	870966	n/a	LTP283	ltpFR2	10	n/a	n/a	n/a	12	19	4	6	9
1743.388	n/a	PROB	871694	n/a	LTP283	ltpFR2	10	n/a	n/a	n/a	12	24	8	9	7
1745.43	n/a	PROB	872715	n/a	LTP283	ltpFR2	10	n/a	n/a	n/a	12	17	4	8	5
1747.558	n/a	PROB	873779	n/a	LTP283	ltpFR2	10	n/a	n/a	n/a	12	2	5	9	7
1750.598	n/a	PROB	875299	n/a	LTP283	ltpFR2	10	n/a	n/a	n/a	12	10	1	4	5
1752.354	n/a	STOP	876177	n/a	LTP283	ltpFR2	10	n/a	n/a	n/a	12	n/a	n/a	n/a	n/a
1754.966	n/a	REC_START	877483	n/a	LTP283	ltpFR2	10	8	n/a	n/a	n/a	n/a	0	0	0
1756.43	n/a	REC_WORD_VV	878215	wordpools/wasnorm_wordpool_576.txt	LTP283	ltpFR2	10	8	<>	-1	n/a	n/a	0	0	0
1764.348	n/a	REC_WORD_VV	882174	wordpools/wasnorm_wordpool_576.txt	LTP283	ltpFR2	10	8	<>	-1	n/a	n/a	0	0	0
1766.452	n/a	REC_WORD_VV	883226	wordpools/wasnorm_wordpool_576.txt	LTP283	ltpFR2	10	8	<>	-1	n/a	n/a	0	0	0
1815.538	n/a	REC_WORD_VV	907769	wordpools/wasnorm_wordpool_576.txt	LTP283	ltpFR2	10	8	<>	-1	n/a	n/a	0	0	0
1831.778	n/a	REST_REWET	915889	n/a	LTP283	ltpFR2	10	8	n/a	n/a	n/a	n/a	0	0	0
2472.948	n/a	DISTRACTOR	1236474	n/a	LTP283	ltpFR2	10	9	n/a	n/a	n/a	n/a	0	0	0
2472.948	n/a	START	1236474	n/a	LTP283	ltpFR2	10	n/a	n/a	n/a	13	n/a	n/a	n/a	n/a
2472.998	n/a	PROB	1236499	n/a	LTP283	ltpFR2	10	n/a	n/a	n/a	13	14	4	8	2
2474.466	n/a	PROB	1237233	n/a	LTP283	ltpFR2	10	n/a	n/a	n/a	13	19	4	9	6
2476.59	n/a	PROB	1238295	n/a	LTP283	ltpFR2	10	n/a	n/a	n/a	13	13	8	3	2
2478.364	n/a	PROB	1239182	n/a	LTP283	ltpFR2	10	n/a	n/a	n/a	13	14	5	3	6
2481.192	n/a	PROB	1240596	n/a	LTP283	ltpFR2	10	n/a	n/a	n/a	13	17	5	5	7
2482.562	n/a	PROB	1241281	n/a	LTP283	ltpFR2	10	n/a	n/a	n/a	13	13	1	4	8
2484.252	n/a	PROB	1242126	n/a	LTP283	ltpFR2	10	n/a	n/a	n/a	13	17	3	7	7
2485.558	n/a	PROB	1242779	n/a	LTP283	ltpFR2	10	n/a	n/a	n/a	13	5	1	1	3
2486.682	n/a	PROB	1243341	n/a	LTP283	ltpFR2	10	n/a	n/a	n/a	13	7	1	5	1
2487.866	n/a	PROB	1243933	n/a	LTP283	ltpFR2	10	n/a	n/a	n/a	13	17	7	1	9
2489.206	n/a	PROB	1244603	n/a	LTP283	ltpFR2	10	n/a	n/a	n/a	13	11	4	6	1
2490.33	n/a	PROB	1245165	n/a	LTP283	ltpFR2	10	n/a	n/a	n/a	13	16	8	1	7
2492.35	n/a	PROB	1246175	n/a	LTP283	ltpFR2	10	n/a	n/a	n/a	13	15	2	6	7
2493.756	n/a	PROB	1246878	n/a	LTP283	ltpFR2	10	n/a	n/a	n/a	13	10	4	5	1
2494.91	n/a	PROB	1247455	n/a	LTP283	ltpFR2	10	n/a	n/a	n/a	13	18	5	7	6
2496.592	n/a	STOP	1248296	n/a	LTP283	ltpFR2	10	n/a	n/a	n/a	13	n/a	n/a	n/a	n/a
2497.804	n/a	WORD	1248902	wordpools/wasnorm_wordpool_576.txt	LTP283	ltpFR2	10	9	FOOTBALL	591	n/a	n/a	0	0	0
2500.252	n/a	WORD	1250126	wordpools/wasnorm_wordpool_576.txt	LTP283	ltpFR2	10	9	LUNCH	849	n/a	n/a	0	0	0
2502.86	n/a	WORD	1251430	wordpools/wasnorm_wordpool_576.txt	LTP283	ltpFR2	10	9	MARKET	871	n/a	n/a	0	0	0
2505.554	n/a	WORD	1252777	wordpools/wasnorm_wordpool_576.txt	LTP283	ltpFR2	10	9	LODGE	839	n/a	n/a	0	0	0
2508.266	n/a	WORD	1254133	wordpools/wasnorm_wordpool_576.txt	LTP283	ltpFR2	10	9	PADDING	999	n/a	n/a	0	0	0
2510.804	n/a	WORD	1255402	wordpools/wasnorm_wordpool_576.txt	LTP283	ltpFR2	10	9	SHELF	1280	n/a	n/a	0	0	0
2513.418	n/a	WORD	1256709	wordpools/wasnorm_wordpool_576.txt	LTP283	ltpFR2	10	9	TUNNEL	1519	n/a	n/a	0	0	0
2516.078	n/a	WORD	1258039	wordpools/wasnorm_wordpool_576.txt	LTP283	ltpFR2	10	9	BANQUET	86	n/a	n/a	0	0	0
2518.62	n/a	WORD	1259310	wordpools/wasnorm_wordpool_576.txt	LTP283	ltpFR2	10	9	COSTUME	383	n/a	n/a	0	0	0
2521.098	n/a	WORD	1260549	wordpools/wasnorm_wordpool_576.txt	LTP283	ltpFR2	10	9	SERVER	1272	n/a	n/a	0	0	0
2523.69	n/a	WORD	1261845	wordpools/wasnorm_wordpool_576.txt	LTP283	ltpFR2	10	9	MOTEL	919	n/a	n/a	0	0	0
2526.352	n/a	WORD	1263176	wordpools/wasnorm_wordpool_576.txt	LTP283	ltpFR2	10	9	WARDROBE	1587	n/a	n/a	0	0	0
2528.806	n/a	WORD	1264403	wordpools/wasnorm_wordpool_576.txt	LTP283	ltpFR2	10	9	PEDAL	1037	n/a	n/a	0	0	0
2531.37	n/a	WORD	1265685	wordpools/wasnorm_wordpool_576.txt	LTP283	ltpFR2	10	9	ORCHID	982	n/a	n/a	0	0	0
2533.998	n/a	WORD	1266999	wordpools/wasnorm_wordpool_576.txt	LTP283	ltpFR2	10	9	FLOWER	584	n/a	n/a	0	0	0
2536.752	n/a	WORD	1268376	wordpools/wasnorm_wordpool_576.txt	LTP283	ltpFR2	10	9	TUTU	1524	n/a	n/a	0	0	0
2539.25	n/a	WORD	1269625	wordpools/wasnorm_wordpool_576.txt	LTP283	ltpFR2	10	9	STAKE	1368	n/a	n/a	0	0	0
2541.978	n/a	WORD	1270989	wordpools/wasnorm_wordpool_576.txt	LTP283	ltpFR2	10	9	COUNTRY	388	n/a	n/a	0	0	0
2544.772	n/a	WORD	1272386	wordpools/wasnorm_wordpool_576.txt	LTP283	ltpFR2	10	9	SCISSORS	1250	n/a	n/a	0	0	0
2547.56	n/a	WORD	1273780	wordpools/wasnorm_wordpool_576.txt	LTP283	ltpFR2	10	9	LAPEL	800	n/a	n/a	0	0	0
2550.172	n/a	WORD	1275086	wordpools/wasnorm_wordpool_576.txt	LTP283	ltpFR2	10	9	BIKE	125	n/a	n/a	0	0	0
2552.954	n/a	WORD	1276477	wordpools/wasnorm_wordpool_576.txt	LTP283	ltpFR2	10	9	ONION	977	n/a	n/a	0	0	0
2555.578	n/a	WORD	1277789	wordpools/wasnorm_wordpool_576.txt	LTP283	ltpFR2	10	9	VELVET	1555	n/a	n/a	0	0	0
2558.352	n/a	WORD	1279176	wordpools/wasnorm_wordpool_576.txt	LTP283	ltpFR2	10	9	BOYFRIEND	162	n/a	n/a	0	0	0
2559.964	n/a	START	1279982	n/a	LTP283	ltpFR2	10	n/a	n/a	n/a	14	n/a	n/a	n/a	n/a
2561.094	n/a	DISTRACTOR	1280547	n/a	LTP283	ltpFR2	10	9	n/a	n/a	n/a	n/a	0	0	0
2561.102	n/a	PROB	1280551	n/a	LTP283	ltpFR2	10	n/a	n/a	n/a	14	10	5	3	2
2562.536	n/a	PROB	1281268	n/a	LTP283	ltpFR2	10	n/a	n/a	n/a	14	10	2	4	4
2563.894	n/a	PROB	1281947	n/a	LTP283	ltpFR2	10	n/a	n/a	n/a	14	16	8	7	1
2565.434	n/a	PROB	1282717	n/a	LTP283	ltpFR2	10	n/a	n/a	n/a	14	16	5	6	5
2566.704	n/a	PROB	1283352	n/a	LTP283	ltpFR2	10	n/a	n/a	n/a	14	14	3	7	4
2568.108	n/a	PROB	1284054	n/a	LTP283	ltpFR2	10	n/a	n/a	n/a	14	18	5	8	5
2569.328	n/a	PROB	1284664	n/a	LTP283	ltpFR2	10	n/a	n/a	n/a	14	18	9	1	8
2570.582	n/a	PROB	1285291	n/a	LTP283	ltpFR2	10	n/a	n/a	n/a	14	22	8	6	8
2572.54	n/a	PROB	1286270	n/a	LTP283	ltpFR2	10	n/a	n/a	n/a	14	6	3	2	1
2573.996	n/a	PROB	1286998	n/a	LTP283	ltpFR2	10	n/a	n/a	n/a	14	10	6	1	3
2575.384	n/a	PROB	1287692	n/a	LTP283	ltpFR2	10	n/a	n/a	n/a	14	19	4	6	9
2576.922	n/a	PROB	1288461	n/a	LTP283	ltpFR2	10	n/a	n/a	n/a	14	23	8	6	9
2579.284	n/a	PROB	1289642	n/a	LTP283	ltpFR2	10	n/a	n/a	n/a	14	18	5	7	6
2583.964	n/a	STOP	1291982	n/a	LTP283	ltpFR2	10	n/a	n/a	n/a	14	n/a	n/a	n/a	n/a
2585.88	n/a	REC_START	1292940	n/a	LTP283	ltpFR2	10	9	n/a	n/a	n/a	n/a	0	0	0
2590.116	n/a	REC_WORD	1295058	wordpools/wasnorm_wordpool_576.txt	LTP283	ltpFR2	10	9	FOOTBALL	591	n/a	n/a	0	0	0
2591.11	n/a	REC_WORD	1295555	wordpools/wasnorm_wordpool_576.txt	LTP283	ltpFR2	10	9	LUNCH	849	n/a	n/a	0	0	0
2592.128	n/a	REC_WORD	1296064	wordpools/wasnorm_wordpool_576.txt	LTP283	ltpFR2	10	9	MARKET	871	n/a	n/a	0	0	0
2593.232	n/a	REC_WORD	1296616	wordpools/wasnorm_wordpool_576.txt	LTP283	ltpFR2	10	9	LODGE	839	n/a	n/a	0	0	0
2595.708	n/a	REC_WORD	1297854	wordpools/wasnorm_wordpool_576.txt	LTP283	ltpFR2	10	9	PADDING	999	n/a	n/a	0	0	0
2596.486	n/a	REC_WORD	1298243	wordpools/wasnorm_wordpool_576.txt	LTP283	ltpFR2	10	9	TUNNEL	1519	n/a	n/a	0	0	0
2597.292	n/a	REC_WORD	1298646	wordpools/wasnorm_wordpool_576.txt	LTP283	ltpFR2	10	9	BANQUET	86	n/a	n/a	0	0	0
2604.63	n/a	REC_WORD	1302315	wordpools/wasnorm_wordpool_576.txt	LTP283	ltpFR2	10	9	SERVER	1272	n/a	n/a	0	0	0
2605.472	n/a	REC_WORD	1302736	wordpools/wasnorm_wordpool_576.txt	LTP283	ltpFR2	10	9	COSTUME	383	n/a	n/a	0	0	0
2606.284	n/a	REC_WORD	1303142	wordpools/wasnorm_wordpool_576.txt	LTP283	ltpFR2	10	9	TUTU	1524	n/a	n/a	0	0	0
2610.446	n/a	REC_WORD	1305223	wordpools/wasnorm_wordpool_576.txt	LTP283	ltpFR2	10	9	STAKE	1368	n/a	n/a	0	0	0
2613.498	n/a	REC_WORD	1306749	wordpools/wasnorm_wordpool_576.txt	LTP283	ltpFR2	10	9	MOTEL	919	n/a	n/a	0	0	0
2617.076	n/a	REC_WORD	1308538	wordpools/wasnorm_wordpool_576.txt	LTP283	ltpFR2	10	9	BOYFRIEND	162	n/a	n/a	0	0	0
2617.83	n/a	REC_WORD	1308915	wordpools/wasnorm_wordpool_576.txt	LTP283	ltpFR2	10	9	ONION	977	n/a	n/a	0	0	0
2620.896	n/a	REC_WORD	1310448	wordpools/wasnorm_wordpool_576.txt	LTP283	ltpFR2	10	9	WARDROBE	1587	n/a	n/a	0	0	0
2621.672	n/a	REC_WORD	1310836	wordpools/wasnorm_wordpool_576.txt	LTP283	ltpFR2	10	9	SCISSORS	1250	n/a	n/a	0	0	0
2622.71	n/a	REC_WORD	1311355	wordpools/wasnorm_wordpool_576.txt	LTP283	ltpFR2	10	9	LAPEL	800	n/a	n/a	0	0	0
2626.618	n/a	REC_WORD	1313309	wordpools/wasnorm_wordpool_576.txt	LTP283	ltpFR2	10	9	COUNTRY	388	n/a	n/a	0	0	0
2630.574	n/a	REC_WORD	1315287	wordpools/wasnorm_wordpool_576.txt	LTP283	ltpFR2	10	9	BIKE	125	n/a	n/a	0	0	0
2646.522	n/a	REC_WORD	1323261	wordpools/wasnorm_wordpool_576.txt	LTP283	ltpFR2	10	9	COSTUME	383	n/a	n/a	0	0	0
2676.944	n/a	WORD	1338472	wordpools/wasnorm_wordpool_576.txt	LTP283	ltpFR2	10	10	ATLAS	53	n/a	n/a	0	0	0
2679.532	n/a	WORD	1339766	wordpools/wasnorm_wordpool_576.txt	LTP283	ltpFR2	10	10	UNCLE	1536	n/a	n/a	0	0	0
2682.214	n/a	WORD	1341107	wordpools/wasnorm_wordpool_576.txt	LTP283	ltpFR2	10	10	COUSIN	392	n/a	n/a	0	0	0
2685.008	n/a	WORD	1342504	wordpools/wasnorm_wordpool_576.txt	LTP283	ltpFR2	10	10	VIRUS	1572	n/a	n/a	0	0	0
2687.55	n/a	WORD	1343775	wordpools/wasnorm_wordpool_576.txt	LTP283	ltpFR2	10	10	GUITAR	670	n/a	n/a	0	0	0
2690.06	n/a	WORD	1345030	wordpools/wasnorm_wordpool_576.txt	LTP283	ltpFR2	10	10	BUTCHER	203	n/a	n/a	0	0	0
2692.57	n/a	WORD	1346285	wordpools/wasnorm_wordpool_576.txt	LTP283	ltpFR2	10	10	PUPPY	1144	n/a	n/a	0	0	0
2695.064	n/a	WORD	1347532	wordpools/wasnorm_wordpool_576.txt	LTP283	ltpFR2	10	10	EYELASH	546	n/a	n/a	0	0	0
2697.836	n/a	WORD	1348918	wordpools/wasnorm_wordpool_576.txt	LTP283	ltpFR2	10	10	DRESS	495	n/a	n/a	0	0	0
2700.334	n/a	WORD	1350167	wordpools/wasnorm_wordpool_576.txt	LTP283	ltpFR2	10	10	RUST	1219	n/a	n/a	0	0	0
2703.076	n/a	WORD	1351538	wordpools/wasnorm_wordpool_576.txt	LTP283	ltpFR2	10	10	MARINE	869	n/a	n/a	0	0	0
2705.668	n/a	WORD	1352834	wordpools/wasnorm_wordpool_576.txt	LTP283	ltpFR2	10	10	STATUE	1374	n/a	n/a	0	0	0
2708.18	n/a	WORD	1354090	wordpools/wasnorm_wordpool_576.txt	LTP283	ltpFR2	10	10	DASHBOARD	441	n/a	n/a	0	0	0
2710.718	n/a	WORD	1355359	wordpools/wasnorm_wordpool_576.txt	LTP283	ltpFR2	10	10	PANTHER	1009	n/a	n/a	0	0	0
2713.228	n/a	WORD	1356614	wordpools/wasnorm_wordpool_576.txt	LTP283	ltpFR2	10	10	NURSE	963	n/a	n/a	0	0	0
2715.742	n/a	WORD	1357871	wordpools/wasnorm_wordpool_576.txt	LTP283	ltpFR2	10	10	PIGMENT	1066	n/a	n/a	0	0	0
2718.302	n/a	WORD	1359151	wordpools/wasnorm_wordpool_576.txt	LTP283	ltpFR2	10	10	NOVEL	960	n/a	n/a	0	0	0
2720.722	n/a	WORD	1360361	wordpools/wasnorm_wordpool_576.txt	LTP283	ltpFR2	10	10	PASSAGE	1019	n/a	n/a	0	0	0
2723.516	n/a	WORD	1361758	wordpools/wasnorm_wordpool_576.txt	LTP283	ltpFR2	10	10	SHELTER	1282	n/a	n/a	0	0	0
2726.178	n/a	WORD	1363089	wordpools/wasnorm_wordpool_576.txt	LTP283	ltpFR2	10	10	WHISTLE	1606	n/a	n/a	0	0	0
2728.976	n/a	WORD	1364488	wordpools/wasnorm_wordpool_576.txt	LTP283	ltpFR2	10	10	THRONE	1461	n/a	n/a	0	0	0
2731.586	n/a	WORD	1365793	wordpools/wasnorm_wordpool_576.txt	LTP283	ltpFR2	10	10	VIKING	1565	n/a	n/a	0	0	0
2734.28	n/a	WORD	1367140	wordpools/wasnorm_wordpool_576.txt	LTP283	ltpFR2	10	10	SUITCASE	1403	n/a	n/a	0	0	0
2737.056	n/a	WORD	1368528	wordpools/wasnorm_wordpool_576.txt	LTP283	ltpFR2	10	10	LACE	792	n/a	n/a	0	0	0
2738.662	n/a	START	1369331	n/a	LTP283	ltpFR2	10	n/a	n/a	n/a	15	n/a	n/a	n/a	n/a
2739.702	n/a	DISTRACTOR	1369851	n/a	LTP283	ltpFR2	10	10	n/a	n/a	n/a	n/a	0	0	0
2739.716	n/a	PROB	1369858	n/a	LTP283	ltpFR2	10	n/a	n/a	n/a	15	20	8	4	8
2741.502	n/a	PROB	1370751	n/a	LTP283	ltpFR2	10	n/a	n/a	n/a	15	22	9	5	8
2744.162	n/a	PROB	1372081	n/a	LTP283	ltpFR2	10	n/a	n/a	n/a	15	9	1	6	2
2745.368	n/a	PROB	1372684	n/a	LTP283	ltpFR2	10	n/a	n/a	n/a	15	14	4	2	8
2746.756	n/a	PROB	1373378	n/a	LTP283	ltpFR2	10	n/a	n/a	n/a	15	15	9	4	2
2748.434	n/a	PROB	1374217	n/a	LTP283	ltpFR2	10	n/a	n/a	n/a	15	11	1	9	1
2749.666	n/a	PROB	1374833	n/a	LTP283	ltpFR2	10	n/a	n/a	n/a	15	12	2	8	2
2751.074	n/a	PROB	1375537	n/a	LTP283	ltpFR2	10	n/a	n/a	n/a	15	5	2	1	2
2752.328	n/a	PROB	1376164	n/a	LTP283	ltpFR2	10	n/a	n/a	n/a	15	22	5	9	8
2754.34	n/a	PROB	1377170	n/a	LTP283	ltpFR2	10	n/a	n/a	n/a	15	12	3	8	1
2755.576	n/a	PROB	1377788	n/a	LTP283	ltpFR2	10	n/a	n/a	n/a	15	10	4	3	3
2756.844	n/a	PROB	1378422	n/a	LTP283	ltpFR2	10	n/a	n/a	n/a	15	16	8	5	3
2758.334	n/a	PROB	1379167	n/a	LTP283	ltpFR2	10	n/a	n/a	n/a	15	13	1	4	8
2759.822	n/a	PROB	1379911	n/a	LTP283	ltpFR2	10	n/a	n/a	n/a	15	17	3	5	9
2761.6	n/a	STOP	1380800	n/a	LTP283	ltpFR2	10	n/a	n/a	n/a	15	n/a	n/a	n/a	n/a
2764.458	n/a	REC_START	1382229	n/a	LTP283	ltpFR2	10	10	n/a	n/a	n/a	n/a	0	0	0
2767.514	n/a	REC_WORD	1383757	wordpools/wasnorm_wordpool_576.txt	LTP283	ltpFR2	10	10	NOVEL	960	n/a	n/a	0	0	0
2768.382	n/a	REC_WORD	1384191	wordpools/wasnorm_wordpool_576.txt	LTP283	ltpFR2	10	10	PASSAGE	1019	n/a	n/a	0	0	0
2769.412	n/a	REC_WORD	1384706	wordpools/wasnorm_wordpool_576.txt	LTP283	ltpFR2	10	10	UNCLE	1536	n/a	n/a	0	0	0
2769.97	n/a	REC_WORD	1384985	wordpools/wasnorm_wordpool_576.txt	LTP283	ltpFR2	10	10	COUSIN	392	n/a	n/a	0	0	0
2770.62	n/a	REC_WORD	1385310	wordpools/wasnorm_wordpool_576.txt	LTP283	ltpFR2	10	10	ATLAS	53	n/a	n/a	0	0	0
2772.448	n/a	REC_WORD	1386224	wordpools/wasnorm_wordpool_576.txt	LTP283	ltpFR2	10	10	BUTCHER	203	n/a	n/a	0	0	0
2773.418	n/a	REC_WORD	1386709	wordpools/wasnorm_wordpool_576.txt	LTP283	ltpFR2	10	10	PUPPY	1144	n/a	n/a	0	0	0
2773.982	n/a	REC_WORD	1386991	wordpools/wasnorm_wordpool_576.txt	LTP283	ltpFR2	10	10	EYELASH	546	n/a	n/a	0	0	0
2782.434	n/a	REC_WORD	1391217	wordpools/wasnorm_wordpool_576.txt	LTP283	ltpFR2	10	10	SHELTER	1282	n/a	n/a	0	0	0
2783.482	n/a	REC_WORD	1391741	wordpools/wasnorm_wordpool_576.txt	LTP283	ltpFR2	10	10	VIKING	1565	n/a	n/a	0	0	0
2784.296	n/a	REC_WORD	1392148	wordpools/wasnorm_wordpool_576.txt	LTP283	ltpFR2	10	10	THRONE	1461	n/a	n/a	0	0	0
2785.5	n/a	REC_WORD	1392750	wordpools/wasnorm_wordpool_576.txt	LTP283	ltpFR2	10	10	BRIEFCASE	175	n/a	n/a	0	0	0
2788.486	n/a	REC_WORD	1394243	wordpools/wasnorm_wordpool_576.txt	LTP283	ltpFR2	10	10	MARINE	869	n/a	n/a	0	0	0
2789.434	n/a	REC_WORD	1394717	wordpools/wasnorm_wordpool_576.txt	LTP283	ltpFR2	10	10	STATUE	1374	n/a	n/a	0	0	0
2790.434	n/a	REC_WORD_VV	1395217	wordpools/wasnorm_wordpool_576.txt	LTP283	ltpFR2	10	10	<>	-1	n/a	n/a	0	0	0
2791.726	n/a	REC_WORD	1395863	wordpools/wasnorm_wordpool_576.txt	LTP283	ltpFR2	10	10	RUST	1219	n/a	n/a	0	0	0
2792.692	n/a	REC_WORD	1396346	wordpools/wasnorm_wordpool_576.txt	LTP283	ltpFR2	10	10	DRESS	495	n/a	n/a	0	0	0
2794.62	n/a	REC_WORD	1397310	wordpools/wasnorm_wordpool_576.txt	LTP283	ltpFR2	10	10	NURSE	963	n/a	n/a	0	0	0
2795.356	n/a	REC_WORD	1397678	wordpools/wasnorm_wordpool_576.txt	LTP283	ltpFR2	10	10	PIGMENT	1066	n/a	n/a	0	0	0
2796.022	n/a	REC_WORD	1398011	wordpools/wasnorm_wordpool_576.txt	LTP283	ltpFR2	10	10	DASHBOARD	441	n/a	n/a	0	0	0
2796.88	n/a	REC_WORD	1398440	wordpools/wasnorm_wordpool_576.txt	LTP283	ltpFR2	10	10	PANTHER	1009	n/a	n/a	0	0	0
2855.492	n/a	DISTRACTOR	1427746	n/a	LTP283	ltpFR2	10	11	n/a	n/a	n/a	n/a	0	0	0
2855.492	n/a	START	1427746	n/a	LTP283	ltpFR2	10	n/a	n/a	n/a	16	n/a	n/a	n/a	n/a
2855.542	n/a	PROB	1427771	n/a	LTP283	ltpFR2	10	n/a	n/a	n/a	16	7	1	2	4
2857.818	n/a	PROB	1428909	n/a	LTP283	ltpFR2	10	n/a	n/a	n/a	16	15	5	8	2
2859.688	n/a	PROB	1429844	n/a	LTP283	ltpFR2	10	n/a	n/a	n/a	16	10	5	1	4
2860.994	n/a	PROB	1430497	n/a	LTP283	ltpFR2	10	n/a	n/a	n/a	16	13	7	5	1
2862.598	n/a	PROB	1431299	n/a	LTP283	ltpFR2	10	n/a	n/a	n/a	16	14	8	3	3
2864.122	n/a	PROB	1432061	n/a	LTP283	ltpFR2	10	n/a	n/a	n/a	16	24	8	9	7
2866.68	n/a	PROB	1433340	n/a	LTP283	ltpFR2	10	n/a	n/a	n/a	16	17	8	2	7
2868.372	n/a	PROB	1434186	n/a	LTP283	ltpFR2	10	n/a	n/a	n/a	16	22	5	8	9
2870.282	n/a	PROB	1435141	n/a	LTP283	ltpFR2	10	n/a	n/a	n/a	16	19	6	4	9
2871.8	n/a	PROB	1435900	n/a	LTP283	ltpFR2	10	n/a	n/a	n/a	16	16	4	4	8
2873.274	n/a	PROB	1436637	n/a	LTP283	ltpFR2	10	n/a	n/a	n/a	16	8	2	4	2
2874.526	n/a	PROB	1437263	n/a	LTP283	ltpFR2	10	n/a	n/a	n/a	16	26	9	8	9
2877.912	n/a	PROB	1438956	n/a	LTP283	ltpFR2	10	n/a	n/a	n/a	16	19	4	9	6
2879.28	n/a	STOP	1439640	n/a	LTP283	ltpFR2	10	n/a	n/a	n/a	16	n/a	n/a	n/a	n/a
2880.688	n/a	WORD	1440344	wordpools/wasnorm_wordpool_576.txt	LTP283	ltpFR2	10	11	CHEMIST	292	n/a	n/a	0	0	0
2883.4	n/a	WORD	1441700	wordpools/wasnorm_wordpool_576.txt	LTP283	ltpFR2	10	11	MAPLE	866	n/a	n/a	0	0	0
2886.156	n/a	WORD	1443078	wordpools/wasnorm_wordpool_576.txt	LTP283	ltpFR2	10	11	LEG	809	n/a	n/a	0	0	0
2888.92	n/a	WORD	1444460	wordpools/wasnorm_wordpool_576.txt	LTP283	ltpFR2	10	11	WRIST	1626	n/a	n/a	0	0	0
2891.558	n/a	WORD	1445779	wordpools/wasnorm_wordpool_576.txt	LTP283	ltpFR2	10	11	STOVE	1388	n/a	n/a	0	0	0
2894.308	n/a	WORD	1447154	wordpools/wasnorm_wordpool_576.txt	LTP283	ltpFR2	10	11	HIKER	708	n/a	n/a	0	0	0
2896.766	n/a	WORD	1448383	wordpools/wasnorm_wordpool_576.txt	LTP283	ltpFR2	10	11	GRIZZLY	662	n/a	n/a	0	0	0
2899.458	n/a	WORD	1449729	wordpools/wasnorm_wordpool_576.txt	LTP283	ltpFR2	10	11	STAMP	1370	n/a	n/a	0	0	0
2902.1	n/a	WORD	1451050	wordpools/wasnorm_wordpool_576.txt	LTP283	ltpFR2	10	11	MARKER	870	n/a	n/a	0	0	0
2904.676	n/a	WORD	1452338	wordpools/wasnorm_wordpool_576.txt	LTP283	ltpFR2	10	11	TWISTER	1530	n/a	n/a	0	0	0
2907.374	n/a	WORD	1453687	wordpools/wasnorm_wordpool_576.txt	LTP283	ltpFR2	10	11	WINDOW	1611	n/a	n/a	0	0	0
2910.084	n/a	WORD	1455042	wordpools/wasnorm_wordpool_576.txt	LTP283	ltpFR2	10	11	CELLAR	267	n/a	n/a	0	0	0
2912.576	n/a	WORD	1456288	wordpools/wasnorm_wordpool_576.txt	LTP283	ltpFR2	10	11	HAND	683	n/a	n/a	0	0	0
2915.322	n/a	WORD	1457661	wordpools/wasnorm_wordpool_576.txt	LTP283	ltpFR2	10	11	HOUND	724	n/a	n/a	0	0	0
2917.982	n/a	WORD	1458991	wordpools/wasnorm_wordpool_576.txt	LTP283	ltpFR2	10	11	ASIA	46	n/a	n/a	0	0	0
2920.792	n/a	WORD	1460396	wordpools/wasnorm_wordpool_576.txt	LTP283	ltpFR2	10	11	PECAN	1036	n/a	n/a	0	0	0
2923.586	n/a	WORD	1461793	wordpools/wasnorm_wordpool_576.txt	LTP283	ltpFR2	10	11	SUMMIT	1405	n/a	n/a	0	0	0
2926.36	n/a	WORD	1463180	wordpools/wasnorm_wordpool_576.txt	LTP283	ltpFR2	10	11	BOX	159	n/a	n/a	0	0	0
2928.888	n/a	WORD	1464444	wordpools/wasnorm_wordpool_576.txt	LTP283	ltpFR2	10	11	ROCKET	1202	n/a	n/a	0	0	0
2931.696	n/a	WORD	1465848	wordpools/wasnorm_wordpool_576.txt	LTP283	ltpFR2	10	11	DENTIST	447	n/a	n/a	0	0	0
2934.278	n/a	WORD	1467139	wordpools/wasnorm_wordpool_576.txt	LTP283	ltpFR2	10	11	TOASTER	1472	n/a	n/a	0	0	0
2936.954	n/a	WORD	1468477	wordpools/wasnorm_wordpool_576.txt	LTP283	ltpFR2	10	11	JUGGLER	763	n/a	n/a	0	0	0
2939.676	n/a	WORD	1469838	wordpools/wasnorm_wordpool_576.txt	LTP283	ltpFR2	10	11	GLOVE	642	n/a	n/a	0	0	0
2942.124	n/a	WORD	1471062	wordpools/wasnorm_wordpool_576.txt	LTP283	ltpFR2	10	11	FINGER	567	n/a	n/a	0	0	0
2943.742	n/a	START	1471871	n/a	LTP283	ltpFR2	10	n/a	n/a	n/a	17	n/a	n/a	n/a	n/a
2944.824	n/a	DISTRACTOR	1472412	n/a	LTP283	ltpFR2	10	11	n/a	n/a	n/a	n/a	0	0	0
2944.834	n/a	PROB	1472417	n/a	LTP283	ltpFR2	10	n/a	n/a	n/a	17	16	6	8	2
2946.504	n/a	PROB	1473252	n/a	LTP283	ltpFR2	10	n/a	n/a	n/a	17	8	5	2	1
2947.706	n/a	PROB	1473853	n/a	LTP283	ltpFR2	10	n/a	n/a	n/a	17	18	3	9	6
2949.23	n/a	PROB	1474615	n/a	LTP283	ltpFR2	10	n/a	n/a	n/a	17	22	6	9	7
2953.848	n/a	PROB	1476924	n/a	LTP283	ltpFR2	10	n/a	n/a	n/a	17	7	2	1	4
2955.052	n/a	PROB	1477526	n/a	LTP283	ltpFR2	10	n/a	n/a	n/a	17	12	2	9	1
2956.442	n/a	PROB	1478221	n/a	LTP283	ltpFR2	10	n/a	n/a	n/a	17	24	9	8	7
2958.766	n/a	PROB	1479383	n/a	LTP283	ltpFR2	10	n/a	n/a	n/a	17	14	4	6	4
2960.172	n/a	PROB	1480086	n/a	LTP283	ltpFR2	10	n/a	n/a	n/a	17	18	2	8	8
2961.478	n/a	PROB	1480739	n/a	LTP283	ltpFR2	10	n/a	n/a	n/a	17	20	4	9	7
2963.02	n/a	PROB	1481510	n/a	LTP283	ltpFR2	10	n/a	n/a	n/a	17	17	5	9	3
2964.588	n/a	PROB	1482294	n/a	LTP283	ltpFR2	10	n/a	n/a	n/a	17	18	8	3	7
2965.926	n/a	PROB	1482963	n/a	LTP283	ltpFR2	10	n/a	n/a	n/a	17	11	5	3	3
2967.618	n/a	STOP	1483809	n/a	LTP283	ltpFR2	10	n/a	n/a	n/a	17	n/a	n/a	n/a	n/a
2969.508	n/a	REC_START	1484754	n/a	LTP283	ltpFR2	10	11	n/a	n/a	n/a	n/a	0	0	0
2971.77	n/a	REC_WORD	1485885	wordpools/wasnorm_wordpool_576.txt	LTP283	ltpFR2	10	11	CHEMIST	292	n/a	n/a	0	0	0
2972.452	n/a	REC_WORD	1486226	wordpools/wasnorm_wordpool_576.txt	LTP283	ltpFR2	10	11	MAPLE	866	n/a	n/a	0	0	0
2974.37	n/a	REC_WORD	1487185	wordpools/wasnorm_wordpool_576.txt	LTP283	ltpFR2	10	11	ARM	38	n/a	n/a	0	0	0
2976.378	n/a	REC_WORD	1488189	wordpools/wasnorm_wordpool_576.txt	LTP283	ltpFR2	10	11	LEG	809	n/a	n/a	0	0	0
2976.982	n/a	REC_WORD	1488491	wordpools/wasnorm_wordpool_576.txt	LTP283	ltpFR2	10	11	STOVE	1388	n/a	n/a	0	0	0
2978.098	n/a	REC_WORD	1489049	wordpools/wasnorm_wordpool_576.txt	LTP283	ltpFR2	10	11	HAND	683	n/a	n/a	0	0	0
2979.686	n/a	REC_WORD	1489843	wordpools/wasnorm_wordpool_576.txt	LTP283	ltpFR2	10	11	GLOVE	642	n/a	n/a	0	0	0
2980.158	n/a	REC_WORD	1490079	wordpools/wasnorm_wordpool_576.txt	LTP283	ltpFR2	10	11	FINGER	567	n/a	n/a	0	0	0
2983.104	n/a	REC_WORD	1491552	wordpools/wasnorm_wordpool_576.txt	LTP283	ltpFR2	10	11	HIKER	708	n/a	n/a	0	0	0
2983.784	n/a	REC_WORD	1491892	wordpools/wasnorm_wordpool_576.txt	LTP283	ltpFR2	10	11	GRIZZLY	662	n/a	n/a	0	0	0
2985.846	n/a	REC_WORD	1492923	wordpools/wasnorm_wordpool_576.txt	LTP283	ltpFR2	10	11	TWISTER	1530	n/a	n/a	0	0	0
2986.474	n/a	REC_WORD	1493237	wordpools/wasnorm_wordpool_576.txt	LTP283	ltpFR2	10	11	WINDOW	1611	n/a	n/a	0	0	0
2986.902	n/a	REC_WORD	1493451	wordpools/wasnorm_wordpool_576.txt	LTP283	ltpFR2	10	11	CELLAR	267	n/a	n/a	0	0	0
2989.128	n/a	REC_WORD	1494564	wordpools/wasnorm_wordpool_576.txt	LTP283	ltpFR2	10	11	JUGGLER	763	n/a	n/a	0	0	0
2989.654	n/a	REC_WORD	1494827	wordpools/wasnorm_wordpool_576.txt	LTP283	ltpFR2	10	11	TOASTER	1472	n/a	n/a	0	0	0
2992.7	n/a	REC_WORD	1496350	wordpools/wasnorm_wordpool_576.txt	LTP283	ltpFR2	10	11	DENTIST	447	n/a	n/a	0	0	0
2993.87	n/a	REC_WORD	1496935	wordpools/wasnorm_wordpool_576.txt	LTP283	ltpFR2	10	11	SUMMIT	1405	n/a	n/a	0	0	0
2995.54	n/a	REC_WORD	1497770	wordpools/wasnorm_wordpool_576.txt	LTP283	ltpFR2	10	11	BOX	159	n/a	n/a	0	0	0
2996.028	n/a	REC_WORD	1498014	wordpools/wasnorm_wordpool_576.txt	LTP283	ltpFR2	10	11	HOUND	724	n/a	n/a	0	0	0
2998.14	n/a	REC_WORD	1499070	wordpools/wasnorm_wordpool_576.txt	LTP283	ltpFR2	10	11	ROCKET	1202	n/a	n/a	0	0	0
3017.16	n/a	REC_WORD	1508580	wordpools/wasnorm_wordpool_576.txt	LTP283	ltpFR2	10	11	ASIA	46	n/a	n/a	0	0	0
3018.292	n/a	REC_WORD	1509146	wordpools/wasnorm_wordpool_576.txt	LTP283	ltpFR2	10	11	PECAN	1036	n/a	n/a	0	0	0
3031.36	n/a	REC_WORD	1515680	wordpools/wasnorm_wordpool_576.txt	LTP283	ltpFR2	10	11	STOVE	1388	n/a	n/a	0	0	0
3037.938	n/a	REC_WORD	1518969	wordpools/wasnorm_wordpool_576.txt	LTP283	ltpFR2	10	11	WINDOW	1611	n/a	n/a	0	0	0
3060.542	n/a	DISTRACTOR	1530271	n/a	LTP283	ltpFR2	10	12	n/a	n/a	n/a	n/a	0	0	0
3060.542	n/a	START	1530271	n/a	LTP283	ltpFR2	10	n/a	n/a	n/a	18	n/a	n/a	n/a	n/a
3060.592	n/a	PROB	1530296	n/a	LTP283	ltpFR2	10	n/a	n/a	n/a	18	20	6	7	7
3062.982	n/a	PROB	1531491	n/a	LTP283	ltpFR2	10	n/a	n/a	n/a	18	14	7	2	5
3064.658	n/a	PROB	1532329	n/a	LTP283	ltpFR2	10	n/a	n/a	n/a	18	24	7	8	9
3066.462	n/a	PROB	1533231	n/a	LTP283	ltpFR2	10	n/a	n/a	n/a	18	12	9	1	2
3067.636	n/a	PROB	1533818	n/a	LTP283	ltpFR2	10	n/a	n/a	n/a	18	19	8	6	7
3070.928	n/a	PROB	1535464	n/a	LTP283	ltpFR2	10	n/a	n/a	n/a	18	24	7	9	8
3072.652	n/a	PROB	1536326	n/a	LTP283	ltpFR2	10	n/a	n/a	n/a	18	20	5	8	7
3075.312	n/a	PROB	1537656	n/a	LTP283	ltpFR2	10	n/a	n/a	n/a	18	20	7	4	9
3077.036	n/a	PROB	1538518	n/a	LTP283	ltpFR2	10	n/a	n/a	n/a	18	16	8	5	3
3078.39	n/a	PROB	1539195	n/a	LTP283	ltpFR2	10	n/a	n/a	n/a	18	6	1	3	2
3079.578	n/a	PROB	1539789	n/a	LTP283	ltpFR2	10	n/a	n/a	n/a	18	12	6	2	4
3080.832	n/a	PROB	1540416	n/a	LTP283	ltpFR2	10	n/a	n/a	n/a	18	27	9	9	9
3082.256	n/a	PROB	1541128	n/a	LTP283	ltpFR2	10	n/a	n/a	n/a	18	6	4	1	1
3083.45	n/a	STOP	1541725	n/a	LTP283	ltpFR2	10	n/a	n/a	n/a	18	n/a	n/a	n/a	n/a
3085.738	n/a	WORD	1542869	wordpools/wasnorm_wordpool_576.txt	LTP283	ltpFR2	10	12	HERO	706	n/a	n/a	0	0	0
3088.434	n/a	WORD	1544217	wordpools/wasnorm_wordpool_576.txt	LTP283	ltpFR2	10	12	STAR	1373	n/a	n/a	0	0	0
3091.072	n/a	WORD	1545536	wordpools/wasnorm_wordpool_576.txt	LTP283	ltpFR2	10	12	PLAYGROUND	1087	n/a	n/a	0	0	0
3093.866	n/a	WORD	1546933	wordpools/wasnorm_wordpool_576.txt	LTP283	ltpFR2	10	12	POLICE	1098	n/a	n/a	0	0	0
3096.664	n/a	WORD	1548332	wordpools/wasnorm_wordpool_576.txt	LTP283	ltpFR2	10	12	FOX	598	n/a	n/a	0	0	0
3099.392	n/a	WORD	1549696	wordpools/wasnorm_wordpool_576.txt	LTP283	ltpFR2	10	12	KIDNEY	776	n/a	n/a	0	0	0
3101.834	n/a	WORD	1550917	wordpools/wasnorm_wordpool_576.txt	LTP283	ltpFR2	10	12	DUSTPAN	509	n/a	n/a	0	0	0
3104.394	n/a	WORD	1552197	wordpools/wasnorm_wordpool_576.txt	LTP283	ltpFR2	10	12	BALLOON	75	n/a	n/a	0	0	0
3107.104	n/a	WORD	1553552	wordpools/wasnorm_wordpool_576.txt	LTP283	ltpFR2	10	12	NIGHTGOWN	953	n/a	n/a	0	0	0
3109.848	n/a	WORD	1554924	wordpools/wasnorm_wordpool_576.txt	LTP283	ltpFR2	10	12	LAVA	804	n/a	n/a	0	0	0
3112.608	n/a	WORD	1556304	wordpools/wasnorm_wordpool_576.txt	LTP283	ltpFR2	10	12	UMPIRE	1535	n/a	n/a	0	0	0
3115.236	n/a	WORD	1557618	wordpools/wasnorm_wordpool_576.txt	LTP283	ltpFR2	10	12	DIME	466	n/a	n/a	0	0	0
3117.944	n/a	WORD	1558972	wordpools/wasnorm_wordpool_576.txt	LTP283	ltpFR2	10	12	DINER	467	n/a	n/a	0	0	0
3120.752	n/a	WORD	1560376	wordpools/wasnorm_wordpool_576.txt	LTP283	ltpFR2	10	12	CHAMPAGNE	278	n/a	n/a	0	0	0
3123.262	n/a	WORD	1561631	wordpools/wasnorm_wordpool_576.txt	LTP283	ltpFR2	10	12	FLASK	576	n/a	n/a	0	0	0
3125.758	n/a	WORD	1562879	wordpools/wasnorm_wordpool_576.txt	LTP283	ltpFR2	10	12	SLIDE	1326	n/a	n/a	0	0	0
3128.268	n/a	WORD	1564134	wordpools/wasnorm_wordpool_576.txt	LTP283	ltpFR2	10	12	SUNRISE	1407	n/a	n/a	0	0	0
3130.996	n/a	WORD	1565498	wordpools/wasnorm_wordpool_576.txt	LTP283	ltpFR2	10	12	LAKE	796	n/a	n/a	0	0	0
3133.418	n/a	WORD	1566709	wordpools/wasnorm_wordpool_576.txt	LTP283	ltpFR2	10	12	SPONGE	1355	n/a	n/a	0	0	0
3136.098	n/a	WORD	1568049	wordpools/wasnorm_wordpool_576.txt	LTP283	ltpFR2	10	12	HUMAN	726	n/a	n/a	0	0	0
3138.726	n/a	WORD	1569363	wordpools/wasnorm_wordpool_576.txt	LTP283	ltpFR2	10	12	PLAZA	1088	n/a	n/a	0	0	0
3141.416	n/a	WORD	1570708	wordpools/wasnorm_wordpool_576.txt	LTP283	ltpFR2	10	12	SOFTBALL	1343	n/a	n/a	0	0	0
3143.894	n/a	WORD	1571947	wordpools/wasnorm_wordpool_576.txt	LTP283	ltpFR2	10	12	GIRL	637	n/a	n/a	0	0	0
3146.706	n/a	WORD	1573353	wordpools/wasnorm_wordpool_576.txt	LTP283	ltpFR2	10	12	CRICKET	408	n/a	n/a	0	0	0
3148.312	n/a	START	1574156	n/a	LTP283	ltpFR2	10	n/a	n/a	n/a	19	n/a	n/a	n/a	n/a
3149.432	n/a	DISTRACTOR	1574716	n/a	LTP283	ltpFR2	10	12	n/a	n/a	n/a	n/a	0	0	0
3149.45	n/a	PROB	1574725	n/a	LTP283	ltpFR2	10	n/a	n/a	n/a	19	16	5	6	5
3150.9	n/a	PROB	1575450	n/a	LTP283	ltpFR2	10	n/a	n/a	n/a	19	12	4	2	6
3152.19	n/a	PROB	1576095	n/a	LTP283	ltpFR2	10	n/a	n/a	n/a	19	14	1	8	5
3154.016	n/a	PROB	1577008	n/a	LTP283	ltpFR2	10	n/a	n/a	n/a	19	24	7	9	8
3155.506	n/a	PROB	1577753	n/a	LTP283	ltpFR2	10	n/a	n/a	n/a	19	15	2	4	9
3157.61	n/a	PROB	1578805	n/a	LTP283	ltpFR2	10	n/a	n/a	n/a	19	12	4	4	4
3158.784	n/a	PROB	1579392	n/a	LTP283	ltpFR2	10	n/a	n/a	n/a	19	11	1	7	3
3159.968	n/a	PROB	1579984	n/a	LTP283	ltpFR2	10	n/a	n/a	n/a	19	5	1	3	1
3161.09	n/a	PROB	1580545	n/a	LTP283	ltpFR2	10	n/a	n/a	n/a	19	12	2	3	7
3162.4	n/a	PROB	1581200	n/a	LTP283	ltpFR2	10	n/a	n/a	n/a	19	21	8	4	9
3164.218	n/a	PROB	1582109	n/a	LTP283	ltpFR2	10	n/a	n/a	n/a	19	21	6	6	9
3166.912	n/a	PROB	1583456	n/a	LTP283	ltpFR2	10	n/a	n/a	n/a	19	23	6	9	8
3168.986	n/a	PROB	1584493	n/a	LTP283	ltpFR2	10	n/a	n/a	n/a	19	14	6	6	2
3170.358	n/a	PROB	1585179	n/a	LTP283	ltpFR2	10	n/a	n/a	n/a	19	12	6	2	4
3171.79	n/a	STOP	1585895	n/a	LTP283	ltpFR2	10	n/a	n/a	n/a	19	n/a	n/a	n/a	n/a
3174.162	n/a	REC_START	1587081	n/a	LTP283	ltpFR2	10	12	n/a	n/a	n/a	n/a	0	0	0
3177.462	n/a	REC_WORD	1588731	wordpools/wasnorm_wordpool_576.txt	LTP283	ltpFR2	10	12	LAVA	804	n/a	n/a	0	0	0
3178.398	n/a	REC_WORD	1589199	wordpools/wasnorm_wordpool_576.txt	LTP283	ltpFR2	10	12	UMPIRE	1535	n/a	n/a	0	0	0
3179.304	n/a	REC_WORD	1589652	wordpools/wasnorm_wordpool_576.txt	LTP283	ltpFR2	10	12	SLIDE	1326	n/a	n/a	0	0	0
3180.688	n/a	REC_WORD	1590344	wordpools/wasnorm_wordpool_576.txt	LTP283	ltpFR2	10	12	DIME	466	n/a	n/a	0	0	0
3181.368	n/a	REC_WORD	1590684	wordpools/wasnorm_wordpool_576.txt	LTP283	ltpFR2	10	12	DINER	467	n/a	n/a	0	0	0
3182.064	n/a	REC_WORD	1591032	wordpools/wasnorm_wordpool_576.txt	LTP283	ltpFR2	10	12	CHAMPAGNE	278	n/a	n/a	0	0	0
3182.952	n/a	REC_WORD	1591476	wordpools/wasnorm_wordpool_576.txt	LTP283	ltpFR2	10	12	FLASK	576	n/a	n/a	0	0	0
3186.304	n/a	REC_WORD	1593152	wordpools/wasnorm_wordpool_576.txt	LTP283	ltpFR2	10	12	NIGHTGOWN	953	n/a	n/a	0	0	0
3188.688	n/a	REC_WORD	1594344	wordpools/wasnorm_wordpool_576.txt	LTP283	ltpFR2	10	12	SUNRISE	1407	n/a	n/a	0	0	0
3189.688	n/a	REC_WORD_VV	1594844	wordpools/wasnorm_wordpool_576.txt	LTP283	ltpFR2	10	12	<>	-1	n/a	n/a	0	0	0
3191.19	n/a	REC_WORD	1595595	wordpools/wasnorm_wordpool_576.txt	LTP283	ltpFR2	10	12	PLAYGROUND	1087	n/a	n/a	0	0	0
3199.486	n/a	REC_WORD	1599743	wordpools/wasnorm_wordpool_576.txt	LTP283	ltpFR2	10	12	LAKE	796	n/a	n/a	0	0	0
3200.118	n/a	REC_WORD	1600059	wordpools/wasnorm_wordpool_576.txt	LTP283	ltpFR2	10	12	HUMAN	726	n/a	n/a	0	0	0
3200.858	n/a	REC_WORD	1600429	wordpools/wasnorm_wordpool_576.txt	LTP283	ltpFR2	10	12	PLAZA	1088	n/a	n/a	0	0	0
3202.052	n/a	REC_WORD	1601026	wordpools/wasnorm_wordpool_576.txt	LTP283	ltpFR2	10	12	SPONGE	1355	n/a	n/a	0	0	0
3223.682	n/a	REC_WORD	1611841	wordpools/wasnorm_wordpool_576.txt	LTP283	ltpFR2	10	12	GIRL	637	n/a	n/a	0	0	0
3224.132	n/a	REC_WORD	1612066	wordpools/wasnorm_wordpool_576.txt	LTP283	ltpFR2	10	12	SOFTBALL	1343	n/a	n/a	0	0	0
3225.372	n/a	REC_WORD	1612686	wordpools/wasnorm_wordpool_576.txt	LTP283	ltpFR2	10	12	CRICKET	408	n/a	n/a	0	0	0
3265.192	n/a	DISTRACTOR	1632596	n/a	LTP283	ltpFR2	10	13	n/a	n/a	n/a	n/a	0	0	0
3265.192	n/a	START	1632596	n/a	LTP283	ltpFR2	10	n/a	n/a	n/a	20	n/a	n/a	n/a	n/a
3265.242	n/a	PROB	1632621	n/a	LTP283	ltpFR2	10	n/a	n/a	n/a	20	16	6	6	4
3266.608	n/a	PROB	1633304	n/a	LTP283	ltpFR2	10	n/a	n/a	n/a	20	10	2	2	6
3267.796	n/a	PROB	1633898	n/a	LTP283	ltpFR2	10	n/a	n/a	n/a	20	18	3	6	9
3269.17	n/a	PROB	1634585	n/a	LTP283	ltpFR2	10	n/a	n/a	n/a	20	18	3	9	6
3270.708	n/a	PROB	1635354	n/a	LTP283	ltpFR2	10	n/a	n/a	n/a	20	19	3	7	9
3272.166	n/a	PROB	1636083	n/a	LTP283	ltpFR2	10	n/a	n/a	n/a	20	17	2	7	8
3273.72	n/a	PROB	1636860	n/a	LTP283	ltpFR2	10	n/a	n/a	n/a	20	14	4	1	9
3275.31	n/a	PROB	1637655	n/a	LTP283	ltpFR2	10	n/a	n/a	n/a	20	7	1	4	2
3276.686	n/a	PROB	1638343	n/a	LTP283	ltpFR2	10	n/a	n/a	n/a	20	17	9	4	4
3278.49	n/a	PROB	1639245	n/a	LTP283	ltpFR2	10	n/a	n/a	n/a	20	13	4	4	5
3279.944	n/a	PROB	1639972	n/a	LTP283	ltpFR2	10	n/a	n/a	n/a	20	12	5	1	6
3281.098	n/a	PROB	1640549	n/a	LTP283	ltpFR2	10	n/a	n/a	n/a	20	17	8	2	7
3282.608	n/a	PROB	1641304	n/a	LTP283	ltpFR2	10	n/a	n/a	n/a	20	14	2	6	6
3284.378	n/a	PROB	1642189	n/a	LTP283	ltpFR2	10	n/a	n/a	n/a	20	9	5	3	1
3285.87	n/a	PROB	1642935	n/a	LTP283	ltpFR2	10	n/a	n/a	n/a	20	23	9	7	7
3287.34	n/a	PROB	1643670	n/a	LTP283	ltpFR2	10	n/a	n/a	n/a	20	16	9	4	3
3288.828	n/a	STOP	1644414	n/a	LTP283	ltpFR2	10	n/a	n/a	n/a	20	n/a	n/a	n/a	n/a
3290.272	n/a	WORD	1645136	wordpools/wasnorm_wordpool_576.txt	LTP283	ltpFR2	10	13	DOLPHIN	483	n/a	n/a	0	0	0
3293.078	n/a	WORD	1646539	wordpools/wasnorm_wordpool_576.txt	LTP283	ltpFR2	10	13	COUNTY	389	n/a	n/a	0	0	0
3295.774	n/a	WORD	1647887	wordpools/wasnorm_wordpool_576.txt	LTP283	ltpFR2	10	13	TRUCK	1512	n/a	n/a	0	0	0
3298.486	n/a	WORD	1649243	wordpools/wasnorm_wordpool_576.txt	LTP283	ltpFR2	10	13	MARSH	874	n/a	n/a	0	0	0
3300.94	n/a	WORD	1650470	wordpools/wasnorm_wordpool_576.txt	LTP283	ltpFR2	10	13	TWEEZERS	1526	n/a	n/a	0	0	0
3303.368	n/a	WORD	1651684	wordpools/wasnorm_wordpool_576.txt	LTP283	ltpFR2	10	13	WITNESS	1618	n/a	n/a	0	0	0
3305.846	n/a	WORD	1652923	wordpools/wasnorm_wordpool_576.txt	LTP283	ltpFR2	10	13	TRIBE	1505	n/a	n/a	0	0	0
3308.408	n/a	WORD	1654204	wordpools/wasnorm_wordpool_576.txt	LTP283	ltpFR2	10	13	OFFICE	972	n/a	n/a	0	0	0
3311.0	n/a	WORD	1655500	wordpools/wasnorm_wordpool_576.txt	LTP283	ltpFR2	10	13	PAPER	1011	n/a	n/a	0	0	0
3313.69	n/a	WORD	1656845	wordpools/wasnorm_wordpool_576.txt	LTP283	ltpFR2	10	13	BANJO	82	n/a	n/a	0	0	0
3316.438	n/a	WORD	1658219	wordpools/wasnorm_wordpool_576.txt	LTP283	ltpFR2	10	13	JURY	766	n/a	n/a	0	0	0
3319.182	n/a	WORD	1659591	wordpools/wasnorm_wordpool_576.txt	LTP283	ltpFR2	10	13	BEEF	113	n/a	n/a	0	0	0
3321.74	n/a	WORD	1660870	wordpools/wasnorm_wordpool_576.txt	LTP283	ltpFR2	10	13	PLIERS	1089	n/a	n/a	0	0	0
3324.2	n/a	WORD	1662100	wordpools/wasnorm_wordpool_576.txt	LTP283	ltpFR2	10	13	PISTON	1076	n/a	n/a	0	0	0
3326.91	n/a	WORD	1663455	wordpools/wasnorm_wordpool_576.txt	LTP283	ltpFR2	10	13	TAXI	1438	n/a	n/a	0	0	0
3329.718	n/a	WORD	1664859	wordpools/wasnorm_wordpool_576.txt	LTP283	ltpFR2	10	13	DRAWING	494	n/a	n/a	0	0	0
3332.462	n/a	WORD	1666231	wordpools/wasnorm_wordpool_576.txt	LTP283	ltpFR2	10	13	PICTURE	1061	n/a	n/a	0	0	0
3334.958	n/a	WORD	1667479	wordpools/wasnorm_wordpool_576.txt	LTP283	ltpFR2	10	13	BEAKER	104	n/a	n/a	0	0	0
3337.718	n/a	WORD	1668859	wordpools/wasnorm_wordpool_576.txt	LTP283	ltpFR2	10	13	HEDGE	699	n/a	n/a	0	0	0
3340.196	n/a	WORD	1670098	wordpools/wasnorm_wordpool_576.txt	LTP283	ltpFR2	10	13	TERMITE	1451	n/a	n/a	0	0	0
3342.686	n/a	WORD	1671343	wordpools/wasnorm_wordpool_576.txt	LTP283	ltpFR2	10	13	HOOD	714	n/a	n/a	0	0	0
3345.332	n/a	WORD	1672666	wordpools/wasnorm_wordpool_576.txt	LTP283	ltpFR2	10	13	LIPSTICK	829	n/a	n/a	0	0	0
3348.138	n/a	WORD	1674069	wordpools/wasnorm_wordpool_576.txt	LTP283	ltpFR2	10	13	FRECKLE	602	n/a	n/a	0	0	0
3350.736	n/a	WORD	1675368	wordpools/wasnorm_wordpool_576.txt	LTP283	ltpFR2	10	13	ACTOR	5	n/a	n/a	0	0	0
3352.342	n/a	START	1676171	n/a	LTP283	ltpFR2	10	n/a	n/a	n/a	21	n/a	n/a	n/a	n/a
3353.252	n/a	DISTRACTOR	1676626	n/a	LTP283	ltpFR2	10	13	n/a	n/a	n/a	n/a	0	0	0
3353.262	n/a	PROB	1676631	n/a	LTP283	ltpFR2	10	n/a	n/a	n/a	21	13	2	2	9
3355.5	n/a	PROB	1677750	n/a	LTP283	ltpFR2	10	n/a	n/a	n/a	21	12	1	7	4
3356.904	n/a	PROB	1678452	n/a	LTP283	ltpFR2	10	n/a	n/a	n/a	21	10	8	1	1
3358.226	n/a	PROB	1679113	n/a	LTP283	ltpFR2	10	n/a	n/a	n/a	21	23	9	6	8
3359.664	n/a	PROB	1679832	n/a	LTP283	ltpFR2	10	n/a	n/a	n/a	21	23	7	8	8
3362.576	n/a	PROB	1681288	n/a	LTP283	ltpFR2	10	n/a	n/a	n/a	21	18	2	8	8
3363.948	n/a	PROB	1681974	n/a	LTP283	ltpFR2	10	n/a	n/a	n/a	21	16	6	1	9
3365.254	n/a	PROB	1682627	n/a	LTP283	ltpFR2	10	n/a	n/a	n/a	21	18	6	5	7
3367.378	n/a	PROB	1683689	n/a	LTP283	ltpFR2	10	n/a	n/a	n/a	21	9	3	2	4
3369.436	n/a	PROB	1684718	n/a	LTP283	ltpFR2	10	n/a	n/a	n/a	21	17	6	3	8
3370.924	n/a	PROB	1685462	n/a	LTP283	ltpFR2	10	n/a	n/a	n/a	21	14	3	4	7
3372.298	n/a	PROB	1686149	n/a	LTP283	ltpFR2	10	n/a	n/a	n/a	21	12	1	5	6
3373.518	n/a	PROB	1686759	n/a	LTP283	ltpFR2	10	n/a	n/a	n/a	21	13	2	8	3
3374.84	n/a	STOP	1687420	n/a	LTP283	ltpFR2	10	n/a	n/a	n/a	21	n/a	n/a	n/a	n/a
3378.254	n/a	REC_START	1689127	n/a	LTP283	ltpFR2	10	13	n/a	n/a	n/a	n/a	0	0	0
3379.37	n/a	REC_WORD	1689685	wordpools/wasnorm_wordpool_576.txt	LTP283	ltpFR2	10	13	ACTOR	5	n/a	n/a	0	0	0
3380.112	n/a	REC_WORD	1690056	wordpools/wasnorm_wordpool_576.txt	LTP283	ltpFR2	10	13	DOLPHIN	483	n/a	n/a	0	0	0
3381.038	n/a	REC_WORD	1690519	wordpools/wasnorm_wordpool_576.txt	LTP283	ltpFR2	10	13	COUNTY	389	n/a	n/a	0	0	0
3382.17	n/a	REC_WORD	1691085	wordpools/wasnorm_wordpool_576.txt	LTP283	ltpFR2	10	13	TRUCK	1512	n/a	n/a	0	0	0
3382.808	n/a	REC_WORD	1691404	wordpools/wasnorm_wordpool_576.txt	LTP283	ltpFR2	10	13	MARSH	874	n/a	n/a	0	0	0
3384.682	n/a	REC_WORD	1692341	wordpools/wasnorm_wordpool_576.txt	LTP283	ltpFR2	10	13	TWEEZERS	1526	n/a	n/a	0	0	0
3385.408	n/a	REC_WORD	1692704	wordpools/wasnorm_wordpool_576.txt	LTP283	ltpFR2	10	13	PLIERS	1089	n/a	n/a	0	0	0
3386.098	n/a	REC_WORD	1693049	wordpools/wasnorm_wordpool_576.txt	LTP283	ltpFR2	10	13	PISTON	1076	n/a	n/a	0	0	0
3389.08	n/a	REC_WORD	1694540	wordpools/wasnorm_wordpool_576.txt	LTP283	ltpFR2	10	13	OFFICE	972	n/a	n/a	0	0	0
3390.038	n/a	REC_WORD	1695019	wordpools/wasnorm_wordpool_576.txt	LTP283	ltpFR2	10	13	PAPER	1011	n/a	n/a	0	0	0
3392.472	n/a	REC_WORD	1696236	wordpools/wasnorm_wordpool_576.txt	LTP283	ltpFR2	10	13	BEEF	113	n/a	n/a	0	0	0
3393.194	n/a	REC_WORD	1696597	wordpools/wasnorm_wordpool_576.txt	LTP283	ltpFR2	10	13	JURY	766	n/a	n/a	0	0	0
3396.676	n/a	REC_WORD	1698338	wordpools/wasnorm_wordpool_576.txt	LTP283	ltpFR2	10	13	TAXI	1438	n/a	n/a	0	0	0
3406.632	n/a	REC_WORD	1703316	wordpools/wasnorm_wordpool_576.txt	LTP283	ltpFR2	10	13	DRAWING	494	n/a	n/a	0	0	0
3407.222	n/a	REC_WORD	1703611	wordpools/wasnorm_wordpool_576.txt	LTP283	ltpFR2	10	13	BEAKER	104	n/a	n/a	0	0	0
3409.632	n/a	REC_WORD	1704816	wordpools/wasnorm_wordpool_576.txt	LTP283	ltpFR2	10	13	HEDGE	699	n/a	n/a	0	0	0
3421.318	n/a	REC_WORD	1710659	wordpools/wasnorm_wordpool_576.txt	LTP283	ltpFR2	10	13	SWAMP	1416	n/a	n/a	0	0	0
3422.08	n/a	REC_WORD	1711040	wordpools/wasnorm_wordpool_576.txt	LTP283	ltpFR2	10	13	MARSH	874	n/a	n/a	0	0	0
3469.322	n/a	DISTRACTOR	1734661	n/a	LTP283	ltpFR2	10	14	n/a	n/a	n/a	n/a	0	0	0
3469.322	n/a	START	1734661	n/a	LTP283	ltpFR2	10	n/a	n/a	n/a	22	n/a	n/a	n/a	n/a
3469.372	n/a	PROB	1734686	n/a	LTP283	ltpFR2	10	n/a	n/a	n/a	22	9	6	1	2
3470.56	n/a	PROB	1735280	n/a	LTP283	ltpFR2	10	n/a	n/a	n/a	22	13	3	8	2
3471.96	n/a	PROB	1735980	n/a	LTP283	ltpFR2	10	n/a	n/a	n/a	22	17	3	6	8
3473.616	n/a	PROB	1736808	n/a	LTP283	ltpFR2	10	n/a	n/a	n/a	22	1	6	7	3
3474.906	n/a	PROB	1737453	n/a	LTP283	ltpFR2	10	n/a	n/a	n/a	22	6	1	2	3
3476.112	n/a	PROB	1738056	n/a	LTP283	ltpFR2	10	n/a	n/a	n/a	22	14	1	7	6
3477.466	n/a	PROB	1738733	n/a	LTP283	ltpFR2	10	n/a	n/a	n/a	22	22	9	8	5
3479.508	n/a	PROB	1739754	n/a	LTP283	ltpFR2	10	n/a	n/a	n/a	22	15	6	5	4
3480.794	n/a	PROB	1740397	n/a	LTP283	ltpFR2	10	n/a	n/a	n/a	22	19	2	9	8
3482.15	n/a	PROB	1741075	n/a	LTP283	ltpFR2	10	n/a	n/a	n/a	22	10	2	5	3
3483.656	n/a	PROB	1741828	n/a	LTP283	ltpFR2	10	n/a	n/a	n/a	22	9	5	2	2
3485.012	n/a	PROB	1742506	n/a	LTP283	ltpFR2	10	n/a	n/a	n/a	22	16	9	6	1
3486.2	n/a	PROB	1743100	n/a	LTP283	ltpFR2	10	n/a	n/a	n/a	22	12	1	2	9
3487.47	n/a	PROB	1743735	n/a	LTP283	ltpFR2	10	n/a	n/a	n/a	22	15	6	4	5
3488.824	n/a	PROB	1744412	n/a	LTP283	ltpFR2	10	n/a	n/a	n/a	22	13	6	5	2
3490.85	n/a	PROB	1745425	n/a	LTP283	ltpFR2	10	n/a	n/a	n/a	22	23	7	7	9
3492.816	n/a	STOP	1746408	n/a	LTP283	ltpFR2	10	n/a	n/a	n/a	22	n/a	n/a	n/a	n/a
3494.168	n/a	WORD	1747084	wordpools/wasnorm_wordpool_576.txt	LTP283	ltpFR2	10	14	LASER	801	n/a	n/a	0	0	0
3496.626	n/a	WORD	1748313	wordpools/wasnorm_wordpool_576.txt	LTP283	ltpFR2	10	14	SWITCH	1422	n/a	n/a	0	0	0
3499.154	n/a	WORD	1749577	wordpools/wasnorm_wordpool_576.txt	LTP283	ltpFR2	10	14	RATTLE	1170	n/a	n/a	0	0	0
3501.728	n/a	WORD	1750864	wordpools/wasnorm_wordpool_576.txt	LTP283	ltpFR2	10	14	SHOULDER	1294	n/a	n/a	0	0	0
3504.47	n/a	WORD	1752235	wordpools/wasnorm_wordpool_576.txt	LTP283	ltpFR2	10	14	LOFT	840	n/a	n/a	0	0	0
3507.0	n/a	WORD	1753500	wordpools/wasnorm_wordpool_576.txt	LTP283	ltpFR2	10	14	MATTRESS	879	n/a	n/a	0	0	0
3509.81	n/a	WORD	1754905	wordpools/wasnorm_wordpool_576.txt	LTP283	ltpFR2	10	14	SCARF	1246	n/a	n/a	0	0	0
3512.6	n/a	WORD	1756300	wordpools/wasnorm_wordpool_576.txt	LTP283	ltpFR2	10	14	OUTFIT	988	n/a	n/a	0	0	0
3515.398	n/a	WORD	1757699	wordpools/wasnorm_wordpool_576.txt	LTP283	ltpFR2	10	14	WAITER	1580	n/a	n/a	0	0	0
3517.84	n/a	WORD	1758920	wordpools/wasnorm_wordpool_576.txt	LTP283	ltpFR2	10	14	ICEBERG	731	n/a	n/a	0	0	0
3520.384	n/a	WORD	1760192	wordpools/wasnorm_wordpool_576.txt	LTP283	ltpFR2	10	14	SERVANT	1271	n/a	n/a	0	0	0
3522.972	n/a	WORD	1761486	wordpools/wasnorm_wordpool_576.txt	LTP283	ltpFR2	10	14	POWDER	1117	n/a	n/a	0	0	0
3525.466	n/a	WORD	1762733	wordpools/wasnorm_wordpool_576.txt	LTP283	ltpFR2	10	14	FREEZER	604	n/a	n/a	0	0	0
3528.164	n/a	WORD	1764082	wordpools/wasnorm_wordpool_576.txt	LTP283	ltpFR2	10	14	ITEM	746	n/a	n/a	0	0	0
3530.954	n/a	WORD	1765477	wordpools/wasnorm_wordpool_576.txt	LTP283	ltpFR2	10	14	ROBIN	1199	n/a	n/a	0	0	0
3533.534	n/a	WORD	1766767	wordpools/wasnorm_wordpool_576.txt	LTP283	ltpFR2	10	14	SILK	1307	n/a	n/a	0	0	0
3536.006	n/a	WORD	1768003	wordpools/wasnorm_wordpool_576.txt	LTP283	ltpFR2	10	14	AUTHOR	61	n/a	n/a	0	0	0
3538.62	n/a	WORD	1769310	wordpools/wasnorm_wordpool_576.txt	LTP283	ltpFR2	10	14	FRAME	600	n/a	n/a	0	0	0
3541.192	n/a	WORD	1770596	wordpools/wasnorm_wordpool_576.txt	LTP283	ltpFR2	10	14	LUGGAGE	847	n/a	n/a	0	0	0
3543.772	n/a	WORD	1771886	wordpools/wasnorm_wordpool_576.txt	LTP283	ltpFR2	10	14	SCULPTURE	1258	n/a	n/a	0	0	0
3546.25	n/a	WORD	1773125	wordpools/wasnorm_wordpool_576.txt	LTP283	ltpFR2	10	14	PASTA	1021	n/a	n/a	0	0	0
3548.758	n/a	WORD	1774379	wordpools/wasnorm_wordpool_576.txt	LTP283	ltpFR2	10	14	WAITRESS	1581	n/a	n/a	0	0	0
3551.37	n/a	WORD	1775685	wordpools/wasnorm_wordpool_576.txt	LTP283	ltpFR2	10	14	LIVER	833	n/a	n/a	0	0	0
3553.978	n/a	WORD	1776989	wordpools/wasnorm_wordpool_576.txt	LTP283	ltpFR2	10	14	TRENCH	1503	n/a	n/a	0	0	0
3555.584	n/a	START	1777792	n/a	LTP283	ltpFR2	10	n/a	n/a	n/a	23	n/a	n/a	n/a	n/a
3556.75	n/a	DISTRACTOR	1778375	n/a	LTP283	ltpFR2	10	14	n/a	n/a	n/a	n/a	0	0	0
3556.768	n/a	PROB	1778384	n/a	LTP283	ltpFR2	10	n/a	n/a	n/a	23	13	3	6	4
3558.464	n/a	PROB	1779232	n/a	LTP283	ltpFR2	10	n/a	n/a	n/a	23	13	3	8	2
3559.864	n/a	PROB	1779932	n/a	LTP283	ltpFR2	10	n/a	n/a	n/a	23	9	5	3	1
3561.156	n/a	PROB	1780578	n/a	LTP283	ltpFR2	10	n/a	n/a	n/a	23	11	3	5	3
3562.574	n/a	PROB	1781287	n/a	LTP283	ltpFR2	10	n/a	n/a	n/a	23	12	1	8	3
3563.896	n/a	PROB	1781948	n/a	LTP283	ltpFR2	10	n/a	n/a	n/a	23	18	3	9	6
3565.718	n/a	PROB	1782859	n/a	LTP283	ltpFR2	10	n/a	n/a	n/a	23	13	2	2	9
3567.226	n/a	PROB	1783613	n/a	LTP283	ltpFR2	10	n/a	n/a	n/a	23	20	7	6	7
3568.848	n/a	PROB	1784424	n/a	LTP283	ltpFR2	10	n/a	n/a	n/a	23	15	6	8	1
3570.438	n/a	PROB	1785219	n/a	LTP283	ltpFR2	10	n/a	n/a	n/a	23	15	7	1	7
3571.642	n/a	PROB	1785821	n/a	LTP283	ltpFR2	10	n/a	n/a	n/a	23	14	4	7	3
3572.934	n/a	PROB	1786467	n/a	LTP283	ltpFR2	10	n/a	n/a	n/a	23	19	4	7	8
3576.594	n/a	PROB	1788297	n/a	LTP283	ltpFR2	10	n/a	n/a	n/a	23	9	2	3	4
3578.188	n/a	STOP	1789094	n/a	LTP283	ltpFR2	10	n/a	n/a	n/a	23	n/a	n/a	n/a	n/a
3581.348	n/a	REC_START	1790674	n/a	LTP283	ltpFR2	10	14	n/a	n/a	n/a	n/a	0	0	0
3589.006	n/a	REC_WORD	1794503	wordpools/wasnorm_wordpool_576.txt	LTP283	ltpFR2	10	14	RATTLE	1170	n/a	n/a	0	0	0
3589.734	n/a	REC_WORD	1794867	wordpools/wasnorm_wordpool_576.txt	LTP283	ltpFR2	10	14	LASER	801	n/a	n/a	0	0	0
3590.484	n/a	REC_WORD	1795242	wordpools/wasnorm_wordpool_576.txt	LTP283	ltpFR2	10	14	SWITCH	1422	n/a	n/a	0	0	0
3591.484	n/a	REC_WORD_VV	1795742	wordpools/wasnorm_wordpool_576.txt	LTP283	ltpFR2	10	14	<>	-1	n/a	n/a	0	0	0
3591.816	n/a	REC_WORD	1795908	wordpools/wasnorm_wordpool_576.txt	LTP283	ltpFR2	10	14	ITEM	746	n/a	n/a	0	0	0
3593.214	n/a	REC_WORD	1796607	wordpools/wasnorm_wordpool_576.txt	LTP283	ltpFR2	10	14	LOFT	840	n/a	n/a	0	0	0
3594.054	n/a	REC_WORD	1797027	wordpools/wasnorm_wordpool_576.txt	LTP283	ltpFR2	10	14	SHOULDER	1294	n/a	n/a	0	0	0
3595.054	n/a	REC_WORD_VV	1797527	wordpools/wasnorm_wordpool_576.txt	LTP283	ltpFR2	10	14	<>	-1	n/a	n/a	0	0	0
3596.942	n/a	REC_WORD	1798471	wordpools/wasnorm_wordpool_576.txt	LTP283	ltpFR2	10	14	SCARF	1246	n/a	n/a	0	0	0
3597.71	n/a	REC_WORD	1798855	wordpools/wasnorm_wordpool_576.txt	LTP283	ltpFR2	10	14	SILK	1307	n/a	n/a	0	0	0
3601.536	n/a	REC_WORD	1800768	wordpools/wasnorm_wordpool_576.txt	LTP283	ltpFR2	10	14	SERVANT	1271	n/a	n/a	0	0	0
3602.52	n/a	REC_WORD	1801260	wordpools/wasnorm_wordpool_576.txt	LTP283	ltpFR2	10	14	WAITRESS	1581	n/a	n/a	0	0	0
3603.52	n/a	REC_WORD_VV	1801760	wordpools/wasnorm_wordpool_576.txt	LTP283	ltpFR2	10	14	<>	-1	n/a	n/a	0	0	0
3604.572	n/a	REC_WORD_VV	1802286	wordpools/wasnorm_wordpool_576.txt	LTP283	ltpFR2	10	14	<>	-1	n/a	n/a	0	0	0
3609.74	n/a	REC_WORD	1804870	wordpools/wasnorm_wordpool_576.txt	LTP283	ltpFR2	10	14	LUGGAGE	847	n/a	n/a	0	0	0
3610.65	n/a	REC_WORD	1805325	wordpools/wasnorm_wordpool_576.txt	LTP283	ltpFR2	10	14	FRAME	600	n/a	n/a	0	0	0
3616.59	n/a	REC_WORD	1808295	wordpools/wasnorm_wordpool_576.txt	LTP283	ltpFR2	10	14	OUTFIT	988	n/a	n/a	0	0	0
3621.456	n/a	REC_WORD	1810728	wordpools/wasnorm_wordpool_576.txt	LTP283	ltpFR2	10	14	ROBIN	1199	n/a	n/a	0	0	0
3622.47	n/a	REC_WORD	1811235	wordpools/wasnorm_wordpool_576.txt	LTP283	ltpFR2	10	14	FREEZER	604	n/a	n/a	0	0	0
3623.668	n/a	REC_WORD	1811834	wordpools/wasnorm_wordpool_576.txt	LTP283	ltpFR2	10	14	POWDER	1117	n/a	n/a	0	0	0
3628.96	n/a	REC_WORD	1814480	wordpools/wasnorm_wordpool_576.txt	LTP283	ltpFR2	10	14	AUTHOR	61	n/a	n/a	0	0	0
3672.412	n/a	WORD	1836206	wordpools/wasnorm_wordpool_576.txt	LTP283	ltpFR2	10	15	FRAGRANCE	599	n/a	n/a	0	0	0
3675.072	n/a	WORD	1837536	wordpools/wasnorm_wordpool_576.txt	LTP283	ltpFR2	10	15	CRAB	397	n/a	n/a	0	0	0
3677.568	n/a	WORD	1838784	wordpools/wasnorm_wordpool_576.txt	LTP283	ltpFR2	10	15	BOARD	143	n/a	n/a	0	0	0
3680.074	n/a	WORD	1840037	wordpools/wasnorm_wordpool_576.txt	LTP283	ltpFR2	10	15	GLASS	639	n/a	n/a	0	0	0
3682.504	n/a	WORD	1841252	wordpools/wasnorm_wordpool_576.txt	LTP283	ltpFR2	10	15	ICING	732	n/a	n/a	0	0	0
3685.026	n/a	WORD	1842513	wordpools/wasnorm_wordpool_576.txt	LTP283	ltpFR2	10	15	CONTRACT	368	n/a	n/a	0	0	0
3687.456	n/a	WORD	1843728	wordpools/wasnorm_wordpool_576.txt	LTP283	ltpFR2	10	15	BANKER	84	n/a	n/a	0	0	0
3690.066	n/a	WORD	1845033	wordpools/wasnorm_wordpool_576.txt	LTP283	ltpFR2	10	15	BLACKBOARD	133	n/a	n/a	0	0	0
3692.876	n/a	WORD	1846438	wordpools/wasnorm_wordpool_576.txt	LTP283	ltpFR2	10	15	BRICK	172	n/a	n/a	0	0	0
3695.516	n/a	WORD	1847758	wordpools/wasnorm_wordpool_576.txt	LTP283	ltpFR2	10	15	MUMMY	932	n/a	n/a	0	0	0
3698.014	n/a	WORD	1849007	wordpools/wasnorm_wordpool_576.txt	LTP283	ltpFR2	10	15	RELISH	1183	n/a	n/a	0	0	0
3700.64	n/a	WORD	1850320	wordpools/wasnorm_wordpool_576.txt	LTP283	ltpFR2	10	15	SLIME	1327	n/a	n/a	0	0	0
3703.35	n/a	WORD	1851675	wordpools/wasnorm_wordpool_576.txt	LTP283	ltpFR2	10	15	FUNGUS	614	n/a	n/a	0	0	0
3706.01	n/a	WORD	1853005	wordpools/wasnorm_wordpool_576.txt	LTP283	ltpFR2	10	15	TROUT	1511	n/a	n/a	0	0	0
3708.702	n/a	WORD	1854351	wordpools/wasnorm_wordpool_576.txt	LTP283	ltpFR2	10	15	SCARECROW	1245	n/a	n/a	0	0	0
3711.23	n/a	WORD	1855615	wordpools/wasnorm_wordpool_576.txt	LTP283	ltpFR2	10	15	PENGUIN	1044	n/a	n/a	0	0	0
3713.972	n/a	WORD	1856986	wordpools/wasnorm_wordpool_576.txt	LTP283	ltpFR2	10	15	REPORT	1184	n/a	n/a	0	0	0
3716.75	n/a	WORD	1858375	wordpools/wasnorm_wordpool_576.txt	LTP283	ltpFR2	10	15	AWARD	63	n/a	n/a	0	0	0
3719.492	n/a	WORD	1859746	wordpools/wasnorm_wordpool_576.txt	LTP283	ltpFR2	10	15	MISSILE	900	n/a	n/a	0	0	0
3722.206	n/a	WORD	1861103	wordpools/wasnorm_wordpool_576.txt	LTP283	ltpFR2	10	15	BARLEY	88	n/a	n/a	0	0	0
3724.764	n/a	WORD	1862382	wordpools/wasnorm_wordpool_576.txt	LTP283	ltpFR2	10	15	BUG	187	n/a	n/a	0	0	0
3727.342	n/a	WORD	1863671	wordpools/wasnorm_wordpool_576.txt	LTP283	ltpFR2	10	15	PROTON	1132	n/a	n/a	0	0	0
3729.83	n/a	WORD	1864915	wordpools/wasnorm_wordpool_576.txt	LTP283	ltpFR2	10	15	PASTRY	1022	n/a	n/a	0	0	0
3732.444	n/a	WORD	1866222	wordpools/wasnorm_wordpool_576.txt	LTP283	ltpFR2	10	15	SNACK	1331	n/a	n/a	0	0	0
3734.05	n/a	START	1867025	n/a	LTP283	ltpFR2	10	n/a	n/a	n/a	24	n/a	n/a	n/a	n/a
3735.154	n/a	DISTRACTOR	1867577	n/a	LTP283	ltpFR2	10	15	n/a	n/a	n/a	n/a	0	0	0
3735.172	n/a	PROB	1867586	n/a	LTP283	ltpFR2	10	n/a	n/a	n/a	24	14	2	8	4
3737.276	n/a	PROB	1868638	n/a	LTP283	ltpFR2	10	n/a	n/a	n/a	24	14	3	8	3
3739.272	n/a	PROB	1869636	n/a	LTP283	ltpFR2	10	n/a	n/a	n/a	24	18	7	3	8
3740.506	n/a	PROB	1870253	n/a	LTP283	ltpFR2	10	n/a	n/a	n/a	24	10	2	5	3
3741.662	n/a	PROB	1870831	n/a	LTP283	ltpFR2	10	n/a	n/a	n/a	24	19	1	9	9
3742.934	n/a	PROB	1871467	n/a	LTP283	ltpFR2	10	n/a	n/a	n/a	24	15	2	9	4
3744.636	n/a	PROB	1872318	n/a	LTP283	ltpFR2	10	n/a	n/a	n/a	24	13	4	1	8
3746.31	n/a	PROB	1873155	n/a	LTP283	ltpFR2	10	n/a	n/a	n/a	24	22	7	7	8
3747.936	n/a	PROB	1873968	n/a	LTP283	ltpFR2	10	n/a	n/a	n/a	24	11	2	3	6
3749.304	n/a	PROB	1874652	n/a	LTP283	ltpFR2	10	n/a	n/a	n/a	24	7	3	2	2
3750.91	n/a	PROB	1875455	n/a	LTP283	ltpFR2	10	n/a	n/a	n/a	24	17	5	8	4
3753.424	n/a	PROB	1876712	n/a	LTP283	ltpFR2	10	n/a	n/a	n/a	24	9	2	3	2
3755.014	n/a	PROB	1877507	n/a	LTP283	ltpFR2	10	n/a	n/a	n/a	24	13	6	4	3
3756.694	n/a	STOP	1878347	n/a	LTP283	ltpFR2	10	n/a	n/a	n/a	24	n/a	n/a	n/a	n/a
3759.832	n/a	REC_START	1879916	n/a	LTP283	ltpFR2	10	15	n/a	n/a	n/a	n/a	0	0	0
3760.97	n/a	REC_WORD	1880485	wordpools/wasnorm_wordpool_576.txt	LTP283	ltpFR2	10	15	SNACK	1331	n/a	n/a	0	0	0
3761.864	n/a	REC_WORD	1880932	wordpools/wasnorm_wordpool_576.txt	LTP283	ltpFR2	10	15	PASTRY	1022	n/a	n/a	0	0	0
3765.528	n/a	REC_WORD	1882764	wordpools/wasnorm_wordpool_576.txt	LTP283	ltpFR2	10	15	FRAGRANCE	599	n/a	n/a	0	0	0
3766.48	n/a	REC_WORD	1883240	wordpools/wasnorm_wordpool_576.txt	LTP283	ltpFR2	10	15	CRAB	397	n/a	n/a	0	0	0
3767.786	n/a	REC_WORD	1883893	wordpools/wasnorm_wordpool_576.txt	LTP283	ltpFR2	10	15	BOARD	143	n/a	n/a	0	0	0
3768.336	n/a	REC_WORD	1884168	wordpools/wasnorm_wordpool_576.txt	LTP283	ltpFR2	10	15	GLASS	639	n/a	n/a	0	0	0
3771.71	n/a	REC_WORD	1885855	wordpools/wasnorm_wordpool_576.txt	LTP283	ltpFR2	10	15	BLACKBOARD	133	n/a	n/a	0	0	0
3774.554	n/a	REC_WORD	1887277	wordpools/wasnorm_wordpool_576.txt	LTP283	ltpFR2	10	15	AWARD	63	n/a	n/a	0	0	0
3775.252	n/a	REC_WORD	1887626	wordpools/wasnorm_wordpool_576.txt	LTP283	ltpFR2	10	15	REPORT	1184	n/a	n/a	0	0	0
3778.054	n/a	REC_WORD	1889027	wordpools/wasnorm_wordpool_576.txt	LTP283	ltpFR2	10	15	MUMMY	932	n/a	n/a	0	0	0
3778.75	n/a	REC_WORD	1889375	wordpools/wasnorm_wordpool_576.txt	LTP283	ltpFR2	10	15	SLIME	1327	n/a	n/a	0	0	0
3779.466	n/a	REC_WORD	1889733	wordpools/wasnorm_wordpool_576.txt	LTP283	ltpFR2	10	15	RELISH	1183	n/a	n/a	0	0	0
3780.352	n/a	REC_WORD	1890176	wordpools/wasnorm_wordpool_576.txt	LTP283	ltpFR2	10	15	FUNGUS	614	n/a	n/a	0	0	0
3782.558	n/a	REC_WORD	1891279	wordpools/wasnorm_wordpool_576.txt	LTP283	ltpFR2	10	15	PENGUIN	1044	n/a	n/a	0	0	0
3787.794	n/a	REC_WORD_VV	1893897	wordpools/wasnorm_wordpool_576.txt	LTP283	ltpFR2	10	15	<>	-1	n/a	n/a	0	0	0
3788.592	n/a	REC_WORD	1894296	wordpools/wasnorm_wordpool_576.txt	LTP283	ltpFR2	10	15	TROUT	1511	n/a	n/a	0	0	0
3797.608	n/a	REC_WORD	1898804	wordpools/wasnorm_wordpool_576.txt	LTP283	ltpFR2	10	15	SCARECROW	1245	n/a	n/a	0	0	0
3799.016	n/a	REC_WORD	1899508	wordpools/wasnorm_wordpool_576.txt	LTP283	ltpFR2	10	15	BUG	187	n/a	n/a	0	0	0
3799.57	n/a	REC_WORD	1899785	wordpools/wasnorm_wordpool_576.txt	LTP283	ltpFR2	10	15	BARLEY	88	n/a	n/a	0	0	0
3800.148	n/a	REC_WORD	1900074	wordpools/wasnorm_wordpool_576.txt	LTP283	ltpFR2	10	15	MISSILE	900	n/a	n/a	0	0	0
3850.88	n/a	WORD	1925440	wordpools/wasnorm_wordpool_576.txt	LTP283	ltpFR2	10	16	SCALPEL	1243	n/a	n/a	0	0	0
3853.492	n/a	WORD	1926746	wordpools/wasnorm_wordpool_576.txt	LTP283	ltpFR2	10	16	CAPTIVE	240	n/a	n/a	0	0	0
3856.018	n/a	WORD	1928009	wordpools/wasnorm_wordpool_576.txt	LTP283	ltpFR2	10	16	VICTIM	1562	n/a	n/a	0	0	0
3858.692	n/a	WORD	1929346	wordpools/wasnorm_wordpool_576.txt	LTP283	ltpFR2	10	16	CHEST	295	n/a	n/a	0	0	0
3861.254	n/a	WORD	1930627	wordpools/wasnorm_wordpool_576.txt	LTP283	ltpFR2	10	16	BRIEFCASE	175	n/a	n/a	0	0	0
3863.812	n/a	WORD	1931906	wordpools/wasnorm_wordpool_576.txt	LTP283	ltpFR2	10	16	LABEL	790	n/a	n/a	0	0	0
3866.608	n/a	WORD	1933304	wordpools/wasnorm_wordpool_576.txt	LTP283	ltpFR2	10	16	SPACE	1345	n/a	n/a	0	0	0
3869.352	n/a	WORD	1934676	wordpools/wasnorm_wordpool_576.txt	LTP283	ltpFR2	10	16	COMET	353	n/a	n/a	0	0	0
3871.826	n/a	WORD	1935913	wordpools/wasnorm_wordpool_576.txt	LTP283	ltpFR2	10	16	SEAL	1262	n/a	n/a	0	0	0
3874.27	n/a	WORD	1937135	wordpools/wasnorm_wordpool_576.txt	LTP283	ltpFR2	10	16	APRON	35	n/a	n/a	0	0	0
3876.912	n/a	WORD	1938456	wordpools/wasnorm_wordpool_576.txt	LTP283	ltpFR2	10	16	VAGRANT	1544	n/a	n/a	0	0	0
3879.59	n/a	WORD	1939795	wordpools/wasnorm_wordpool_576.txt	LTP283	ltpFR2	10	16	CREVICE	405	n/a	n/a	0	0	0
3882.3	n/a	WORD	1941150	wordpools/wasnorm_wordpool_576.txt	LTP283	ltpFR2	10	16	PUPIL	1143	n/a	n/a	0	0	0
3885.112	n/a	WORD	1942556	wordpools/wasnorm_wordpool_576.txt	LTP283	ltpFR2	10	16	EAGLE	512	n/a	n/a	0	0	0
3887.754	n/a	WORD	1943877	wordpools/wasnorm_wordpool_576.txt	LTP283	ltpFR2	10	16	CONVICT	371	n/a	n/a	0	0	0
3890.546	n/a	WORD	1945273	wordpools/wasnorm_wordpool_576.txt	LTP283	ltpFR2	10	16	HOSTESS	723	n/a	n/a	0	0	0
3892.97	n/a	WORD	1946485	wordpools/wasnorm_wordpool_576.txt	LTP283	ltpFR2	10	16	ISLAND	745	n/a	n/a	0	0	0
3895.73	n/a	WORD	1947865	wordpools/wasnorm_wordpool_576.txt	LTP283	ltpFR2	10	16	CANAL	226	n/a	n/a	0	0	0
3898.496	n/a	WORD	1949248	wordpools/wasnorm_wordpool_576.txt	LTP283	ltpFR2	10	16	GAZELLE	628	n/a	n/a	0	0	0
3901.222	n/a	WORD	1950611	wordpools/wasnorm_wordpool_576.txt	LTP283	ltpFR2	10	16	BRANDY	169	n/a	n/a	0	0	0
3903.8	n/a	WORD	1951900	wordpools/wasnorm_wordpool_576.txt	LTP283	ltpFR2	10	16	FRIAR	605	n/a	n/a	0	0	0
3906.59	n/a	WORD	1953295	wordpools/wasnorm_wordpool_576.txt	LTP283	ltpFR2	10	16	BRACES	164	n/a	n/a	0	0	0
3909.12	n/a	WORD	1954560	wordpools/wasnorm_wordpool_576.txt	LTP283	ltpFR2	10	16	SUSPECT	1415	n/a	n/a	0	0	0
3911.858	n/a	WORD	1955929	wordpools/wasnorm_wordpool_576.txt	LTP283	ltpFR2	10	16	CASHIER	254	n/a	n/a	0	0	0
3913.47	n/a	START	1956735	n/a	LTP283	ltpFR2	10	n/a	n/a	n/a	25	n/a	n/a	n/a	n/a
3914.404	n/a	DISTRACTOR	1957202	n/a	LTP283	ltpFR2	10	16	n/a	n/a	n/a	n/a	0	0	0
3914.42	n/a	PROB	1957210	n/a	LTP283	ltpFR2	10	n/a	n/a	n/a	25	13	4	5	4
3916.648	n/a	PROB	1958324	n/a	LTP283	ltpFR2	10	n/a	n/a	n/a	25	17	4	8	5
3918.968	n/a	PROB	1959484	n/a	LTP283	ltpFR2	10	n/a	n/a	n/a	25	15	7	3	5
3920.546	n/a	PROB	1960273	n/a	LTP283	ltpFR2	10	n/a	n/a	n/a	25	10	5	2	3
3921.768	n/a	PROB	1960884	n/a	LTP283	ltpFR2	10	n/a	n/a	n/a	25	11	3	3	5
3923.224	n/a	PROB	1961612	n/a	LTP283	ltpFR2	10	n/a	n/a	n/a	25	6	2	3	1
3924.378	n/a	PROB	1962189	n/a	LTP283	ltpFR2	10	n/a	n/a	n/a	25	19	4	8	7
3925.85	n/a	PROB	1962925	n/a	LTP283	ltpFR2	10	n/a	n/a	n/a	25	26	6	8	8
3927.736	n/a	PROB	1963868	n/a	LTP283	ltpFR2	10	n/a	n/a	n/a	25	11	8	2	1
3929.894	n/a	PROB	1964947	n/a	LTP283	ltpFR2	10	n/a	n/a	n/a	25	8	2	5	1
3932.02	n/a	PROB	1966010	n/a	LTP283	ltpFR2	10	n/a	n/a	n/a	25	19	1	9	9
3933.258	n/a	PROB	1966629	n/a	LTP283	ltpFR2	10	n/a	n/a	n/a	25	16	9	5	2
3934.946	n/a	PROB	1967473	n/a	LTP283	ltpFR2	10	n/a	n/a	n/a	25	15	7	5	3
3936.072	n/a	STOP	1968036	n/a	LTP283	ltpFR2	10	n/a	n/a	n/a	25	n/a	n/a	n/a	n/a
3939.302	n/a	REC_START	1969651	n/a	LTP283	ltpFR2	10	16	n/a	n/a	n/a	n/a	0	0	0
3941.718	n/a	REC_WORD	1970859	wordpools/wasnorm_wordpool_576.txt	LTP283	ltpFR2	10	16	SCALPEL	1243	n/a	n/a	0	0	0
3942.718	n/a	REC_WORD_VV	1971359	wordpools/wasnorm_wordpool_576.txt	LTP283	ltpFR2	10	16	<>	-1	n/a	n/a	0	0	0
3943.198	n/a	REC_WORD	1971599	wordpools/wasnorm_wordpool_576.txt	LTP283	ltpFR2	10	16	VAGRANT	1544	n/a	n/a	0	0	0
3944.934	n/a	REC_WORD	1972467	wordpools/wasnorm_wordpool_576.txt	LTP283	ltpFR2	10	16	VICTIM	1562	n/a	n/a	0	0	0
3945.606	n/a	REC_WORD	1972803	wordpools/wasnorm_wordpool_576.txt	LTP283	ltpFR2	10	16	CAPTIVE	240	n/a	n/a	0	0	0
3946.456	n/a	REC_WORD	1973228	wordpools/wasnorm_wordpool_576.txt	LTP283	ltpFR2	10	16	CHEST	295	n/a	n/a	0	0	0
3947.972	n/a	REC_WORD	1973986	wordpools/wasnorm_wordpool_576.txt	LTP283	ltpFR2	10	16	BRIEFCASE	175	n/a	n/a	0	0	0
3948.706	n/a	REC_WORD	1974353	wordpools/wasnorm_wordpool_576.txt	LTP283	ltpFR2	10	16	LABEL	790	n/a	n/a	0	0	0
3949.22	n/a	REC_WORD	1974610	wordpools/wasnorm_wordpool_576.txt	LTP283	ltpFR2	10	16	SEAL	1262	n/a	n/a	0	0	0
3950.22	n/a	REC_WORD	1975110	wordpools/wasnorm_wordpool_576.txt	LTP283	ltpFR2	10	16	CREVICE	405	n/a	n/a	0	0	0
3957.326	n/a	REC_WORD	1978663	wordpools/wasnorm_wordpool_576.txt	LTP283	ltpFR2	10	16	HOSTESS	723	n/a	n/a	0	0	0
3959.186	n/a	REC_WORD	1979593	wordpools/wasnorm_wordpool_576.txt	LTP283	ltpFR2	10	16	FRIAR	605	n/a	n/a	0	0	0
3960.582	n/a	REC_WORD	1980291	wordpools/wasnorm_wordpool_576.txt	LTP283	ltpFR2	10	16	CASHIER	254	n/a	n/a	0	0	0
3963.956	n/a	REC_WORD	1981978	wordpools/wasnorm_wordpool_576.txt	LTP283	ltpFR2	10	16	BRACES	164	n/a	n/a	0	0	0
3991.74	n/a	REC_WORD	1995870	wordpools/wasnorm_wordpool_576.txt	LTP283	ltpFR2	10	16	ISLAND	745	n/a	n/a	0	0	0
3992.48	n/a	REC_WORD	1996240	wordpools/wasnorm_wordpool_576.txt	LTP283	ltpFR2	10	16	CANAL	226	n/a	n/a	0	0	0
3993.282	n/a	REC_WORD	1996641	wordpools/wasnorm_wordpool_576.txt	LTP283	ltpFR2	10	16	PUPIL	1143	n/a	n/a	0	0	0
4007.0	n/a	REC_WORD	2003500	wordpools/wasnorm_wordpool_576.txt	LTP283	ltpFR2	10	16	GAZELLE	628	n/a	n/a	0	0	0
4016.08	n/a	REST_REWET	2008040	n/a	LTP283	ltpFR2	10	16	n/a	n/a	n/a	n/a	0	0	0
4311.492	n/a	DISTRACTOR	2155746	n/a	LTP283	ltpFR2	10	17	n/a	n/a	n/a	n/a	0	0	0
4311.492	n/a	START	2155746	n/a	LTP283	ltpFR2	10	n/a	n/a	n/a	26	n/a	n/a	n/a	n/a
4311.542	n/a	PROB	2155771	n/a	LTP283	ltpFR2	10	n/a	n/a	n/a	26	18	9	6	3
4313.198	n/a	PROB	2156599	n/a	LTP283	ltpFR2	10	n/a	n/a	n/a	26	20	5	8	7
4315.072	n/a	PROB	2157536	n/a	LTP283	ltpFR2	10	n/a	n/a	n/a	26	13	4	5	4
4317.71	n/a	PROB	2158855	n/a	LTP283	ltpFR2	10	n/a	n/a	n/a	26	14	5	5	4
4319.184	n/a	PROB	2159592	n/a	LTP283	ltpFR2	10	n/a	n/a	n/a	26	9	1	1	7
4320.422	n/a	PROB	2160211	n/a	LTP283	ltpFR2	10	n/a	n/a	n/a	26	11	8	2	1
4321.576	n/a	PROB	2160788	n/a	LTP283	ltpFR2	10	n/a	n/a	n/a	26	17	2	8	7
4323.064	n/a	PROB	2161532	n/a	LTP283	ltpFR2	10	n/a	n/a	n/a	26	23	9	5	9
4325.256	n/a	PROB	2162628	n/a	LTP283	ltpFR2	10	n/a	n/a	n/a	26	18	8	1	9
4326.894	n/a	PROB	2163447	n/a	LTP283	ltpFR2	10	n/a	n/a	n/a	26	16	9	3	4
4328.422	n/a	PROB	2164211	n/a	LTP283	ltpFR2	10	n/a	n/a	n/a	26	23	7	8	8
4330.262	n/a	PROB	2165131	n/a	LTP283	ltpFR2	10	n/a	n/a	n/a	26	16	4	9	3
4331.78	n/a	PROB	2165890	n/a	LTP283	ltpFR2	10	n/a	n/a	n/a	26	16	4	7	5
4334.238	n/a	STOP	2167119	n/a	LTP283	ltpFR2	10	n/a	n/a	n/a	26	n/a	n/a	n/a	n/a
4336.332	n/a	WORD	2168166	wordpools/wasnorm_wordpool_576.txt	LTP283	ltpFR2	10	17	LETTUCE	814	n/a	n/a	0	0	0
4339.064	n/a	WORD	2169532	wordpools/wasnorm_wordpool_576.txt	LTP283	ltpFR2	10	17	ARMY	39	n/a	n/a	0	0	0
4341.824	n/a	WORD	2170912	wordpools/wasnorm_wordpool_576.txt	LTP283	ltpFR2	10	17	HORNET	718	n/a	n/a	0	0	0
4344.4	n/a	WORD	2172200	wordpools/wasnorm_wordpool_576.txt	LTP283	ltpFR2	10	17	FRUIT	610	n/a	n/a	0	0	0
4347.106	n/a	WORD	2173553	wordpools/wasnorm_wordpool_576.txt	LTP283	ltpFR2	10	17	CREATURE	403	n/a	n/a	0	0	0
4349.748	n/a	WORD	2174874	wordpools/wasnorm_wordpool_576.txt	LTP283	ltpFR2	10	17	MAMMAL	861	n/a	n/a	0	0	0
4352.264	n/a	WORD	2176132	wordpools/wasnorm_wordpool_576.txt	LTP283	ltpFR2	10	17	DAUGHTER	442	n/a	n/a	0	0	0
4354.822	n/a	WORD	2177411	wordpools/wasnorm_wordpool_576.txt	LTP283	ltpFR2	10	17	CROSS	413	n/a	n/a	0	0	0
4357.534	n/a	WORD	2178767	wordpools/wasnorm_wordpool_576.txt	LTP283	ltpFR2	10	17	CONCERT	360	n/a	n/a	0	0	0
4360.178	n/a	WORD	2180089	wordpools/wasnorm_wordpool_576.txt	LTP283	ltpFR2	10	17	PEBBLE	1035	n/a	n/a	0	0	0
4362.732	n/a	WORD	2181366	wordpools/wasnorm_wordpool_576.txt	LTP283	ltpFR2	10	17	ORANGE	980	n/a	n/a	0	0	0
4365.246	n/a	WORD	2182623	wordpools/wasnorm_wordpool_576.txt	LTP283	ltpFR2	10	17	CHAUFFEUR	283	n/a	n/a	0	0	0
4368.058	n/a	WORD	2184029	wordpools/wasnorm_wordpool_576.txt	LTP283	ltpFR2	10	17	CANDY	230	n/a	n/a	0	0	0
4370.65	n/a	WORD	2185325	wordpools/wasnorm_wordpool_576.txt	LTP283	ltpFR2	10	17	BELLY	119	n/a	n/a	0	0	0
4373.258	n/a	WORD	2186629	wordpools/wasnorm_wordpool_576.txt	LTP283	ltpFR2	10	17	PARENT	1013	n/a	n/a	0	0	0
4375.752	n/a	WORD	2187876	wordpools/wasnorm_wordpool_576.txt	LTP283	ltpFR2	10	17	NEUTRON	947	n/a	n/a	0	0	0
4378.464	n/a	WORD	2189232	wordpools/wasnorm_wordpool_576.txt	LTP283	ltpFR2	10	17	ATOM	55	n/a	n/a	0	0	0
4380.884	n/a	WORD	2190442	wordpools/wasnorm_wordpool_576.txt	LTP283	ltpFR2	10	17	STICKER	1382	n/a	n/a	0	0	0
4383.428	n/a	WORD	2191714	wordpools/wasnorm_wordpool_576.txt	LTP283	ltpFR2	10	17	OINTMENT	974	n/a	n/a	0	0	0
4386.024	n/a	WORD	2193012	wordpools/wasnorm_wordpool_576.txt	LTP283	ltpFR2	10	17	DOUGHNUT	490	n/a	n/a	0	0	0
4388.47	n/a	WORD	2194235	wordpools/wasnorm_wordpool_576.txt	LTP283	ltpFR2	10	17	CATTLE	261	n/a	n/a	0	0	0
4391.076	n/a	WORD	2195538	wordpools/wasnorm_wordpool_576.txt	LTP283	ltpFR2	10	17	LIZARD	834	n/a	n/a	0	0	0
4393.622	n/a	WORD	2196811	wordpools/wasnorm_wordpool_576.txt	LTP283	ltpFR2	10	17	BREAST	171	n/a	n/a	0	0	0
