onset	duration	trial_type	sample	stim_file	subject	experiment	session	trial	task	item_name	item_num	recog_resp	recog_conf	resp	color_r	color_g	color_b	case	font
247.69	n/a	SESS_START	123845	n/a	LTP142	ltpFR	17	n/a	n/a	n/a	n/a	1	4	n/a	n/a	n/a	n/a	n/a	n/a
332.456	n/a	WORD	166228	wordpools/wasnorm_wordpool.txt	LTP142	ltpFR	17	1	0	DANDRUFF	439	0	n/a	0	0.57763671875	0.412841796875	1	upper	amplitud.ttf
336.296	n/a	WORD	168148	wordpools/wasnorm_wordpool.txt	LTP142	ltpFR	17	1	0	CONTRACTOR	369	n/a	n/a	1	0.57763671875	0.412841796875	1	upper	amplitud.ttf
340.32	n/a	WORD	170160	wordpools/wasnorm_wordpool.txt	LTP142	ltpFR	17	1	1	NEST	945	n/a	n/a	0	0.422607421875	0.5869140625	0	lower	zerothre.ttf
344.462	n/a	WORD	172231	wordpools/wasnorm_wordpool.txt	LTP142	ltpFR	17	1	1	JET	756	n/a	n/a	0	0.422607421875	0.5869140625	0	lower	zerothre.ttf
348.318	n/a	WORD	174159	wordpools/wasnorm_wordpool.txt	LTP142	ltpFR	17	1	1	SMOG	1330	n/a	n/a	0	0.422607421875	0.5869140625	0	lower	zerothre.ttf
352.408	n/a	WORD	176204	wordpools/wasnorm_wordpool.txt	LTP142	ltpFR	17	1	1	NICOTINE	951	n/a	n/a	0	0.422607421875	0.5869140625	0	lower	zerothre.ttf
356.508	n/a	WORD	178254	wordpools/wasnorm_wordpool.txt	LTP142	ltpFR	17	1	1	DOVE	491	n/a	n/a	1	0.422607421875	0.5869140625	0	lower	zerothre.ttf
360.564	n/a	WORD	180282	wordpools/wasnorm_wordpool.txt	LTP142	ltpFR	17	1	0	PRIEST	1122	n/a	n/a	1	0.57763671875	0.412841796875	1	upper	amplitud.ttf
364.396	n/a	WORD	182198	wordpools/wasnorm_wordpool.txt	LTP142	ltpFR	17	1	0	FRIAR	605	n/a	n/a	1	0.57763671875	0.412841796875	1	upper	amplitud.ttf
368.346	n/a	WORD	184173	wordpools/wasnorm_wordpool.txt	LTP142	ltpFR	17	1	0	SNORKEL	1336	n/a	n/a	0	0.57763671875	0.412841796875	1	upper	amplitud.ttf
372.368	n/a	WORD	186184	wordpools/wasnorm_wordpool.txt	LTP142	ltpFR	17	1	1	STEAM	1375	n/a	n/a	0	0.422607421875	0.5869140625	0	lower	zerothre.ttf
376.226	n/a	WORD	188113	wordpools/wasnorm_wordpool.txt	LTP142	ltpFR	17	1	1	PROTON	1132	n/a	n/a	0	0.422607421875	0.5869140625	0	lower	zerothre.ttf
380.276	n/a	WORD	190138	wordpools/wasnorm_wordpool.txt	LTP142	ltpFR	17	1	1	SISTER	1312	n/a	n/a	1	0.422607421875	0.5869140625	0	lower	zerothre.ttf
384.332	n/a	WORD	192166	wordpools/wasnorm_wordpool.txt	LTP142	ltpFR	17	1	0	SQUIRREL	1362	n/a	n/a	0	0.57763671875	0.412841796875	1	upper	amplitud.ttf
388.174	n/a	WORD	194087	wordpools/wasnorm_wordpool.txt	LTP142	ltpFR	17	1	0	BRUNETTE	181	n/a	n/a	1	0.57763671875	0.412841796875	1	upper	amplitud.ttf
392.37	n/a	WORD	196185	wordpools/wasnorm_wordpool.txt	LTP142	ltpFR	17	1	0	HUT	729	n/a	n/a	1	0.57763671875	0.412841796875	1	upper	amplitud.ttf
398.038	n/a	REC_START	199019	n/a	LTP142	ltpFR	17	1	n/a	n/a	n/a	n/a	n/a	n/a	n/a	n/a	n/a	n/a	n/a
398.396	n/a	REC_WORD	199198	wordpools/wasnorm_wordpool.txt	LTP142	ltpFR	17	1	0	HUT	729	n/a	n/a	1	n/a	n/a	n/a	n/a	n/a
399.36	n/a	REC_WORD	199680	wordpools/wasnorm_wordpool.txt	LTP142	ltpFR	17	1	0	BRUNETTE	181	n/a	n/a	1	n/a	n/a	n/a	n/a	n/a
400.202	n/a	REC_WORD	200101	wordpools/wasnorm_wordpool.txt	LTP142	ltpFR	17	1	0	SQUIRREL	1362	n/a	n/a	0	n/a	n/a	n/a	n/a	n/a
402.154	n/a	REC_WORD	201077	wordpools/wasnorm_wordpool.txt	LTP142	ltpFR	17	1	1	SMOG	1330	n/a	n/a	0	n/a	n/a	n/a	n/a	n/a
403.362	n/a	REC_WORD	201681	wordpools/wasnorm_wordpool.txt	LTP142	ltpFR	17	1	1	JET	756	n/a	n/a	0	n/a	n/a	n/a	n/a	n/a
404.08	n/a	REC_WORD	202040	wordpools/wasnorm_wordpool.txt	LTP142	ltpFR	17	1	1	NICOTINE	951	n/a	n/a	0	n/a	n/a	n/a	n/a	n/a
405.376	n/a	REC_WORD	202688	wordpools/wasnorm_wordpool.txt	LTP142	ltpFR	17	1	1	DOVE	491	n/a	n/a	1	n/a	n/a	n/a	n/a	n/a
405.92	n/a	REC_WORD	202960	wordpools/wasnorm_wordpool.txt	LTP142	ltpFR	17	1	1	NEST	945	n/a	n/a	0	n/a	n/a	n/a	n/a	n/a
406.714	n/a	REC_WORD	203357	wordpools/wasnorm_wordpool.txt	LTP142	ltpFR	17	1	0	FRIAR	605	n/a	n/a	1	n/a	n/a	n/a	n/a	n/a
408.728	n/a	REC_WORD	204364	wordpools/wasnorm_wordpool.txt	LTP142	ltpFR	17	1	0	PRIEST	1122	n/a	n/a	1	n/a	n/a	n/a	n/a	n/a
411.154	n/a	REC_WORD	205577	wordpools/wasnorm_wordpool.txt	LTP142	ltpFR	17	1	n/a	MONK	910	n/a	n/a	n/a	n/a	n/a	n/a	n/a	n/a
415.104	n/a	REC_WORD	207552	wordpools/wasnorm_wordpool.txt	LTP142	ltpFR	17	1	0	CONTRACTOR	369	n/a	n/a	1	n/a	n/a	n/a	n/a	n/a
416.104	n/a	REC_WORD_VV	208052	wordpools/wasnorm_wordpool.txt	LTP142	ltpFR	17	1	n/a	<>	-1	n/a	n/a	n/a	n/a	n/a	n/a	n/a	n/a
418.592	n/a	REC_WORD	209296	wordpools/wasnorm_wordpool.txt	LTP142	ltpFR	17	1	0	DANDRUFF	439	n/a	n/a	0	n/a	n/a	n/a	n/a	n/a
429.782	n/a	REC_WORD	214891	wordpools/wasnorm_wordpool.txt	LTP142	ltpFR	17	1	1	STEAM	1375	n/a	n/a	0	n/a	n/a	n/a	n/a	n/a
444.056	n/a	REC_WORD	222028	wordpools/wasnorm_wordpool.txt	LTP142	ltpFR	17	1	n/a	ELECTRON	522	n/a	n/a	n/a	n/a	n/a	n/a	n/a	n/a
483.094	n/a	WORD	241547	wordpools/wasnorm_wordpool.txt	LTP142	ltpFR	17	2	1	OWNER	993	n/a	n/a	1	0.422607421875	0.5869140625	0	lower	zerothre.ttf
487.084	n/a	WORD	243542	wordpools/wasnorm_wordpool.txt	LTP142	ltpFR	17	2	1	PAIL	1002	n/a	n/a	0	0.422607421875	0.5869140625	0	lower	zerothre.ttf
491.158	n/a	WORD	245579	wordpools/wasnorm_wordpool.txt	LTP142	ltpFR	17	2	1	BOAT	144	n/a	n/a	0	0.422607421875	0.5869140625	0	lower	zerothre.ttf
495.008	n/a	WORD	247504	wordpools/wasnorm_wordpool.txt	LTP142	ltpFR	17	2	1	TAXI	1438	n/a	n/a	0	0.422607421875	0.5869140625	0	lower	zerothre.ttf
499.098	n/a	WORD	249549	wordpools/wasnorm_wordpool.txt	LTP142	ltpFR	17	2	1	CITRUS	313	n/a	n/a	0	0.422607421875	0.5869140625	0	lower	zerothre.ttf
503.23	n/a	WORD	251615	wordpools/wasnorm_wordpool.txt	LTP142	ltpFR	17	2	0	LINT	826	n/a	n/a	n/a	0.57763671875	0.412841796875	1	upper	amplitud.ttf
506.254	n/a	SLOW_MSG	253127	n/a	LTP142	ltpFR	17	2	n/a	n/a	n/a	n/a	n/a	n/a	n/a	n/a	n/a	n/a	n/a
508.828	n/a	WORD	254414	wordpools/wasnorm_wordpool.txt	LTP142	ltpFR	17	2	0	ZEBRA	1635	n/a	n/a	1	0.57763671875	0.412841796875	1	upper	amplitud.ttf
512.994	n/a	WORD	256497	wordpools/wasnorm_wordpool.txt	LTP142	ltpFR	17	2	1	GIRAFFE	636	n/a	n/a	1	0.422607421875	0.5869140625	0	lower	zerothre.ttf
516.868	n/a	WORD	258434	wordpools/wasnorm_wordpool.txt	LTP142	ltpFR	17	2	1	AUTHOR	61	n/a	n/a	1	0.422607421875	0.5869140625	0	lower	zerothre.ttf
521.008	n/a	WORD	260504	wordpools/wasnorm_wordpool.txt	LTP142	ltpFR	17	2	1	DIARY	460	n/a	n/a	0	0.422607421875	0.5869140625	0	lower	zerothre.ttf
524.874	n/a	WORD	262437	wordpools/wasnorm_wordpool.txt	LTP142	ltpFR	17	2	0	DIRT	472	n/a	n/a	0	0.57763671875	0.412841796875	1	upper	amplitud.ttf
528.714	n/a	WORD	264357	wordpools/wasnorm_wordpool.txt	LTP142	ltpFR	17	2	0	DECK	443	n/a	n/a	1	0.57763671875	0.412841796875	1	upper	amplitud.ttf
532.63	n/a	WORD	266315	wordpools/wasnorm_wordpool.txt	LTP142	ltpFR	17	2	0	ICE	730	n/a	n/a	0	0.57763671875	0.412841796875	1	upper	amplitud.ttf
536.712	n/a	WORD	268356	wordpools/wasnorm_wordpool.txt	LTP142	ltpFR	17	2	0	TREAD	1499	n/a	n/a	0	0.57763671875	0.412841796875	1	upper	amplitud.ttf
540.728	n/a	WORD	270364	wordpools/wasnorm_wordpool.txt	LTP142	ltpFR	17	2	0	FAUCET	555	n/a	n/a	0	0.57763671875	0.412841796875	1	upper	amplitud.ttf
544.684	n/a	WORD	272342	wordpools/wasnorm_wordpool.txt	LTP142	ltpFR	17	2	0	TURKEY	1520	n/a	n/a	1	0.57763671875	0.412841796875	1	upper	amplitud.ttf
550.582	n/a	REC_START	275291	n/a	LTP142	ltpFR	17	2	n/a	n/a	n/a	n/a	n/a	n/a	n/a	n/a	n/a	n/a	n/a
551.336	n/a	REC_WORD	275668	wordpools/wasnorm_wordpool.txt	LTP142	ltpFR	17	2	0	TURKEY	1520	n/a	n/a	1	n/a	n/a	n/a	n/a	n/a
552.458	n/a	REC_WORD	276229	wordpools/wasnorm_wordpool.txt	LTP142	ltpFR	17	2	0	FAUCET	555	n/a	n/a	0	n/a	n/a	n/a	n/a	n/a
553.89	n/a	REC_WORD	276945	wordpools/wasnorm_wordpool.txt	LTP142	ltpFR	17	2	1	CITRUS	313	n/a	n/a	0	n/a	n/a	n/a	n/a	n/a
554.974	n/a	REC_WORD	277487	wordpools/wasnorm_wordpool.txt	LTP142	ltpFR	17	2	1	TAXI	1438	n/a	n/a	0	n/a	n/a	n/a	n/a	n/a
556.16	n/a	REC_WORD	278080	wordpools/wasnorm_wordpool.txt	LTP142	ltpFR	17	2	1	OWNER	993	n/a	n/a	1	n/a	n/a	n/a	n/a	n/a
557.154	n/a	REC_WORD	278577	wordpools/wasnorm_wordpool.txt	LTP142	ltpFR	17	2	1	PAIL	1002	n/a	n/a	0	n/a	n/a	n/a	n/a	n/a
559.502	n/a	REC_WORD	279751	wordpools/wasnorm_wordpool.txt	LTP142	ltpFR	17	2	0	LINT	826	n/a	n/a	n/a	n/a	n/a	n/a	n/a	n/a
560.446	n/a	REC_WORD	280223	wordpools/wasnorm_wordpool.txt	LTP142	ltpFR	17	2	0	DIRT	472	n/a	n/a	0	n/a	n/a	n/a	n/a	n/a
566.796	n/a	REC_WORD	283398	wordpools/wasnorm_wordpool.txt	LTP142	ltpFR	17	2	1	SMOG	1330	n/a	n/a	0	n/a	n/a	n/a	n/a	n/a
633.508	n/a	WORD	316754	wordpools/wasnorm_wordpool.txt	LTP142	ltpFR	17	3	-1	CHIP	303	n/a	n/a	-1	1.0	1.0	1	upper	Verdana.ttf
637.388	n/a	WORD	318694	wordpools/wasnorm_wordpool.txt	LTP142	ltpFR	17	3	-1	HAMBURGER	679	n/a	n/a	-1	1.0	1.0	1	upper	Verdana.ttf
641.462	n/a	WORD	320731	wordpools/wasnorm_wordpool.txt	LTP142	ltpFR	17	3	-1	PERSONNEL	1053	n/a	n/a	-1	1.0	1.0	1	upper	Verdana.ttf
645.368	n/a	WORD	322684	wordpools/wasnorm_wordpool.txt	LTP142	ltpFR	17	3	-1	WAVE	1596	n/a	n/a	-1	1.0	1.0	1	upper	Verdana.ttf
649.236	n/a	WORD	324618	wordpools/wasnorm_wordpool.txt	LTP142	ltpFR	17	3	-1	SHEET	1279	n/a	n/a	-1	1.0	1.0	1	upper	Verdana.ttf
653.308	n/a	WORD	326654	wordpools/wasnorm_wordpool.txt	LTP142	ltpFR	17	3	-1	WORKER	1621	n/a	n/a	-1	1.0	1.0	1	upper	Verdana.ttf
657.274	n/a	WORD	328637	wordpools/wasnorm_wordpool.txt	LTP142	ltpFR	17	3	-1	SCHOOL	1248	n/a	n/a	-1	1.0	1.0	1	upper	Verdana.ttf
661.298	n/a	WORD	330649	wordpools/wasnorm_wordpool.txt	LTP142	ltpFR	17	3	-1	TIDE	1465	n/a	n/a	-1	1.0	1.0	1	upper	Verdana.ttf
665.214	n/a	WORD	332607	wordpools/wasnorm_wordpool.txt	LTP142	ltpFR	17	3	-1	PEARL	1034	n/a	n/a	-1	1.0	1.0	1	upper	Verdana.ttf
669.146	n/a	WORD	334573	wordpools/wasnorm_wordpool.txt	LTP142	ltpFR	17	3	-1	PAPER	1011	n/a	n/a	-1	1.0	1.0	1	upper	Verdana.ttf
673.02	n/a	WORD	336510	wordpools/wasnorm_wordpool.txt	LTP142	ltpFR	17	3	-1	LIEUTENANT	818	n/a	n/a	-1	1.0	1.0	1	upper	Verdana.ttf
676.86	n/a	WORD	338430	wordpools/wasnorm_wordpool.txt	LTP142	ltpFR	17	3	-1	TANK	1432	n/a	n/a	-1	1.0	1.0	1	upper	Verdana.ttf
680.834	n/a	WORD	340417	wordpools/wasnorm_wordpool.txt	LTP142	ltpFR	17	3	-1	PATIO	1025	n/a	n/a	-1	1.0	1.0	1	upper	Verdana.ttf
685.016	n/a	WORD	342508	wordpools/wasnorm_wordpool.txt	LTP142	ltpFR	17	3	-1	CLASS	318	n/a	n/a	-1	1.0	1.0	1	upper	Verdana.ttf
688.908	n/a	WORD	344454	wordpools/wasnorm_wordpool.txt	LTP142	ltpFR	17	3	-1	MOAT	903	n/a	n/a	-1	1.0	1.0	1	upper	Verdana.ttf
692.806	n/a	WORD	346403	wordpools/wasnorm_wordpool.txt	LTP142	ltpFR	17	3	-1	CANAL	226	n/a	n/a	-1	1.0	1.0	1	upper	Verdana.ttf
698.822	n/a	REC_START	349411	n/a	LTP142	ltpFR	17	3	n/a	n/a	n/a	n/a	n/a	n/a	n/a	n/a	n/a	n/a	n/a
699.28	n/a	REC_WORD	349640	wordpools/wasnorm_wordpool.txt	LTP142	ltpFR	17	3	-1	CANAL	226	n/a	n/a	-1	n/a	n/a	n/a	n/a	n/a
700.252	n/a	REC_WORD	350126	wordpools/wasnorm_wordpool.txt	LTP142	ltpFR	17	3	-1	MOAT	903	n/a	n/a	-1	n/a	n/a	n/a	n/a	n/a
701.126	n/a	REC_WORD	350563	wordpools/wasnorm_wordpool.txt	LTP142	ltpFR	17	3	-1	CHIP	303	n/a	n/a	-1	n/a	n/a	n/a	n/a	n/a
701.8	n/a	REC_WORD	350900	wordpools/wasnorm_wordpool.txt	LTP142	ltpFR	17	3	-1	HAMBURGER	679	n/a	n/a	-1	n/a	n/a	n/a	n/a	n/a
703.168	n/a	REC_WORD	351584	wordpools/wasnorm_wordpool.txt	LTP142	ltpFR	17	3	-1	LIEUTENANT	818	n/a	n/a	-1	n/a	n/a	n/a	n/a	n/a
704.16	n/a	REC_WORD	352080	wordpools/wasnorm_wordpool.txt	LTP142	ltpFR	17	3	-1	PERSONNEL	1053	n/a	n/a	-1	n/a	n/a	n/a	n/a	n/a
706.654	n/a	REC_WORD	353327	wordpools/wasnorm_wordpool.txt	LTP142	ltpFR	17	3	-1	TIDE	1465	n/a	n/a	-1	n/a	n/a	n/a	n/a	n/a
707.508	n/a	REC_WORD	353754	wordpools/wasnorm_wordpool.txt	LTP142	ltpFR	17	3	-1	WAVE	1596	n/a	n/a	-1	n/a	n/a	n/a	n/a	n/a
709.044	n/a	REC_WORD	354522	wordpools/wasnorm_wordpool.txt	LTP142	ltpFR	17	3	n/a	OCEAN	970	n/a	n/a	n/a	n/a	n/a	n/a	n/a	n/a
713.06	n/a	REC_WORD	356530	wordpools/wasnorm_wordpool.txt	LTP142	ltpFR	17	3	-1	SCHOOL	1248	n/a	n/a	-1	n/a	n/a	n/a	n/a	n/a
717.39	n/a	REC_WORD	358695	wordpools/wasnorm_wordpool.txt	LTP142	ltpFR	17	3	1	TAXI	1438	n/a	n/a	0	n/a	n/a	n/a	n/a	n/a
778.68	n/a	WORD	389340	wordpools/wasnorm_wordpool.txt	LTP142	ltpFR	17	4	1	DRINK	498	n/a	n/a	0	0.422607421875	0.5869140625	0	lower	zerothre.ttf
782.778	n/a	WORD	391389	wordpools/wasnorm_wordpool.txt	LTP142	ltpFR	17	4	1	EDITORIAL	517	n/a	n/a	0	0.422607421875	0.5869140625	0	lower	zerothre.ttf
786.694	n/a	WORD	393347	wordpools/wasnorm_wordpool.txt	LTP142	ltpFR	17	4	1	BLACKBOARD	133	n/a	n/a	0	0.422607421875	0.5869140625	0	lower	zerothre.ttf
790.61	n/a	WORD	395305	wordpools/wasnorm_wordpool.txt	LTP142	ltpFR	17	4	1	EMPLOYER	532	n/a	n/a	1	0.422607421875	0.5869140625	0	lower	zerothre.ttf
794.516	n/a	WORD	397258	wordpools/wasnorm_wordpool.txt	LTP142	ltpFR	17	4	1	CHIEF	298	n/a	n/a	1	0.422607421875	0.5869140625	0	lower	zerothre.ttf
798.64	n/a	WORD	399320	wordpools/wasnorm_wordpool.txt	LTP142	ltpFR	17	4	1	STEW	1380	n/a	n/a	0	0.422607421875	0.5869140625	0	lower	zerothre.ttf
802.582	n/a	WORD	401291	wordpools/wasnorm_wordpool.txt	LTP142	ltpFR	17	4	1	ROBIN	1199	n/a	n/a	1	0.422607421875	0.5869140625	0	lower	zerothre.ttf
806.42	n/a	WORD	403210	wordpools/wasnorm_wordpool.txt	LTP142	ltpFR	17	4	1	COACH	331	n/a	n/a	1	0.422607421875	0.5869140625	0	lower	zerothre.ttf
810.504	n/a	WORD	405252	wordpools/wasnorm_wordpool.txt	LTP142	ltpFR	17	4	1	SEAFOOD	1260	n/a	n/a	0	0.422607421875	0.5869140625	0	lower	zerothre.ttf
814.66	n/a	WORD	407330	wordpools/wasnorm_wordpool.txt	LTP142	ltpFR	17	4	1	CREW	406	n/a	n/a	1	0.422607421875	0.5869140625	0	lower	zerothre.ttf
818.668	n/a	WORD	409334	wordpools/wasnorm_wordpool.txt	LTP142	ltpFR	17	4	1	OAR	966	n/a	n/a	0	0.422607421875	0.5869140625	0	lower	zerothre.ttf
822.5	n/a	WORD	411250	wordpools/wasnorm_wordpool.txt	LTP142	ltpFR	17	4	1	BANNER	85	n/a	n/a	0	0.422607421875	0.5869140625	0	lower	zerothre.ttf
826.656	n/a	WORD	413328	wordpools/wasnorm_wordpool.txt	LTP142	ltpFR	17	4	1	UMPIRE	1535	n/a	n/a	1	0.422607421875	0.5869140625	0	lower	zerothre.ttf
830.58	n/a	WORD	415290	wordpools/wasnorm_wordpool.txt	LTP142	ltpFR	17	4	1	WINGS	1614	n/a	n/a	0	0.422607421875	0.5869140625	0	lower	zerothre.ttf
834.42	n/a	WORD	417210	wordpools/wasnorm_wordpool.txt	LTP142	ltpFR	17	4	1	AMBULANCE	19	n/a	n/a	0	0.422607421875	0.5869140625	0	lower	zerothre.ttf
838.32	n/a	WORD	419160	wordpools/wasnorm_wordpool.txt	LTP142	ltpFR	17	4	1	VOLUNTEER	1577	n/a	n/a	1	0.422607421875	0.5869140625	0	lower	zerothre.ttf
844.128	n/a	REC_START	422064	n/a	LTP142	ltpFR	17	4	n/a	n/a	n/a	n/a	n/a	n/a	n/a	n/a	n/a	n/a	n/a
844.69	n/a	REC_WORD	422345	wordpools/wasnorm_wordpool.txt	LTP142	ltpFR	17	4	1	VOLUNTEER	1577	n/a	n/a	1	n/a	n/a	n/a	n/a	n/a
845.69	n/a	REC_WORD_VV	422845	wordpools/wasnorm_wordpool.txt	LTP142	ltpFR	17	4	n/a	<>	-1	n/a	n/a	n/a	n/a	n/a	n/a	n/a	n/a
845.788	n/a	REC_WORD	422894	wordpools/wasnorm_wordpool.txt	LTP142	ltpFR	17	4	1	AMBULANCE	19	n/a	n/a	0	n/a	n/a	n/a	n/a	n/a
846.788	n/a	REC_WORD_VV	423394	wordpools/wasnorm_wordpool.txt	LTP142	ltpFR	17	4	n/a	<>	-1	n/a	n/a	n/a	n/a	n/a	n/a	n/a	n/a
847.016	n/a	REC_WORD	423508	wordpools/wasnorm_wordpool.txt	LTP142	ltpFR	17	4	1	OAR	966	n/a	n/a	0	n/a	n/a	n/a	n/a	n/a
847.874	n/a	REC_WORD	423937	wordpools/wasnorm_wordpool.txt	LTP142	ltpFR	17	4	1	WINGS	1614	n/a	n/a	0	n/a	n/a	n/a	n/a	n/a
849.894	n/a	REC_WORD	424947	wordpools/wasnorm_wordpool.txt	LTP142	ltpFR	17	4	1	COACH	331	n/a	n/a	1	n/a	n/a	n/a	n/a	n/a
850.932	n/a	REC_WORD	425466	wordpools/wasnorm_wordpool.txt	LTP142	ltpFR	17	4	1	ROBIN	1199	n/a	n/a	1	n/a	n/a	n/a	n/a	n/a
853.586	n/a	REC_WORD	426793	wordpools/wasnorm_wordpool.txt	LTP142	ltpFR	17	4	1	CREW	406	n/a	n/a	1	n/a	n/a	n/a	n/a	n/a
857.458	n/a	REC_WORD	428729	wordpools/wasnorm_wordpool.txt	LTP142	ltpFR	17	4	1	CHIEF	298	n/a	n/a	1	n/a	n/a	n/a	n/a	n/a
858.45	n/a	REC_WORD	429225	wordpools/wasnorm_wordpool.txt	LTP142	ltpFR	17	4	1	EDITORIAL	517	n/a	n/a	0	n/a	n/a	n/a	n/a	n/a
859.45	n/a	REC_WORD_VV	429725	wordpools/wasnorm_wordpool.txt	LTP142	ltpFR	17	4	n/a	<>	-1	n/a	n/a	n/a	n/a	n/a	n/a	n/a	n/a
859.918	n/a	REC_WORD	429959	wordpools/wasnorm_wordpool.txt	LTP142	ltpFR	17	4	1	BLACKBOARD	133	n/a	n/a	0	n/a	n/a	n/a	n/a	n/a
860.994	n/a	REC_WORD	430497	wordpools/wasnorm_wordpool.txt	LTP142	ltpFR	17	4	1	DRINK	498	n/a	n/a	0	n/a	n/a	n/a	n/a	n/a
862.58	n/a	REC_WORD	431290	wordpools/wasnorm_wordpool.txt	LTP142	ltpFR	17	4	1	STEW	1380	n/a	n/a	0	n/a	n/a	n/a	n/a	n/a
932.308	n/a	WORD	466154	wordpools/wasnorm_wordpool.txt	LTP142	ltpFR	17	5	0	CLERK	321	n/a	n/a	1	0.57763671875	0.412841796875	1	upper	amplitud.ttf
936.148	n/a	WORD	468074	wordpools/wasnorm_wordpool.txt	LTP142	ltpFR	17	5	0	TANGERINE	1431	n/a	n/a	0	0.57763671875	0.412841796875	1	upper	amplitud.ttf
940.09	n/a	WORD	470045	wordpools/wasnorm_wordpool.txt	LTP142	ltpFR	17	5	0	MASK	876	n/a	n/a	0	0.57763671875	0.412841796875	1	upper	amplitud.ttf
944.222	n/a	WORD	472111	wordpools/wasnorm_wordpool.txt	LTP142	ltpFR	17	5	0	CARAVAN	242	n/a	n/a	1	0.57763671875	0.412841796875	1	upper	amplitud.ttf
948.112	n/a	WORD	474056	wordpools/wasnorm_wordpool.txt	LTP142	ltpFR	17	5	0	COMMITTEE	355	n/a	n/a	1	0.57763671875	0.412841796875	1	upper	amplitud.ttf
951.936	n/a	WORD	475968	wordpools/wasnorm_wordpool.txt	LTP142	ltpFR	17	5	0	MARKET	871	n/a	n/a	1	0.57763671875	0.412841796875	1	upper	amplitud.ttf
955.802	n/a	WORD	477901	wordpools/wasnorm_wordpool.txt	LTP142	ltpFR	17	5	0	FEAST	556	n/a	n/a	1	0.57763671875	0.412841796875	1	upper	amplitud.ttf
959.724	n/a	WORD	479862	wordpools/wasnorm_wordpool.txt	LTP142	ltpFR	17	5	0	FRUIT	610	n/a	n/a	0	0.57763671875	0.412841796875	1	upper	amplitud.ttf
963.806	n/a	WORD	481903	wordpools/wasnorm_wordpool.txt	LTP142	ltpFR	17	5	0	CATERPILLAR	259	n/a	n/a	0	0.57763671875	0.412841796875	1	upper	amplitud.ttf
967.848	n/a	WORD	483924	wordpools/wasnorm_wordpool.txt	LTP142	ltpFR	17	5	0	BUG	187	n/a	n/a	0	0.57763671875	0.412841796875	1	upper	amplitud.ttf
971.988	n/a	WORD	485994	wordpools/wasnorm_wordpool.txt	LTP142	ltpFR	17	5	0	BENCH	121	n/a	n/a	1	0.57763671875	0.412841796875	1	upper	amplitud.ttf
976.146	n/a	WORD	488073	wordpools/wasnorm_wordpool.txt	LTP142	ltpFR	17	5	0	BLACKBERRY	132	n/a	n/a	0	0.57763671875	0.412841796875	1	upper	amplitud.ttf
980.302	n/a	WORD	490151	wordpools/wasnorm_wordpool.txt	LTP142	ltpFR	17	5	0	COSTUME	383	n/a	n/a	1	0.57763671875	0.412841796875	1	upper	amplitud.ttf
984.416	n/a	WORD	492208	wordpools/wasnorm_wordpool.txt	LTP142	ltpFR	17	5	0	LIST	830	n/a	n/a	0	0.57763671875	0.412841796875	1	upper	amplitud.ttf
988.408	n/a	WORD	494204	wordpools/wasnorm_wordpool.txt	LTP142	ltpFR	17	5	0	KEG	770	n/a	n/a	1	0.57763671875	0.412841796875	1	upper	amplitud.ttf
992.606	n/a	WORD	496303	wordpools/wasnorm_wordpool.txt	LTP142	ltpFR	17	5	0	UNICORN	1538	n/a	n/a	1	0.57763671875	0.412841796875	1	upper	amplitud.ttf
998.488	n/a	REC_START	499244	n/a	LTP142	ltpFR	17	5	n/a	n/a	n/a	n/a	n/a	n/a	n/a	n/a	n/a	n/a	n/a
999.526	n/a	REC_WORD	499763	wordpools/wasnorm_wordpool.txt	LTP142	ltpFR	17	5	0	KEG	770	n/a	n/a	1	n/a	n/a	n/a	n/a	n/a
1000.344	n/a	REC_WORD	500172	wordpools/wasnorm_wordpool.txt	LTP142	ltpFR	17	5	n/a	UNIFORM	1539	n/a	n/a	n/a	n/a	n/a	n/a	n/a	n/a
1001.344	n/a	REC_WORD_VV	500672	wordpools/wasnorm_wordpool.txt	LTP142	ltpFR	17	5	n/a	<>	-1	n/a	n/a	n/a	n/a	n/a	n/a	n/a	n/a
1003.552	n/a	REC_WORD	501776	wordpools/wasnorm_wordpool.txt	LTP142	ltpFR	17	5	0	CARAVAN	242	n/a	n/a	1	n/a	n/a	n/a	n/a	n/a
1004.98	n/a	REC_WORD	502490	wordpools/wasnorm_wordpool.txt	LTP142	ltpFR	17	5	0	CLERK	321	n/a	n/a	1	n/a	n/a	n/a	n/a	n/a
1005.878	n/a	REC_WORD	502939	wordpools/wasnorm_wordpool.txt	LTP142	ltpFR	17	5	0	COSTUME	383	n/a	n/a	1	n/a	n/a	n/a	n/a	n/a
1007.064	n/a	REC_WORD	503532	wordpools/wasnorm_wordpool.txt	LTP142	ltpFR	17	5	0	MASK	876	n/a	n/a	0	n/a	n/a	n/a	n/a	n/a
1008.766	n/a	REC_WORD	504383	wordpools/wasnorm_wordpool.txt	LTP142	ltpFR	17	5	0	TANGERINE	1431	n/a	n/a	0	n/a	n/a	n/a	n/a	n/a
1010.088	n/a	REC_WORD	505044	wordpools/wasnorm_wordpool.txt	LTP142	ltpFR	17	5	0	BLACKBERRY	132	n/a	n/a	0	n/a	n/a	n/a	n/a	n/a
1011.534	n/a	REC_WORD	505767	wordpools/wasnorm_wordpool.txt	LTP142	ltpFR	17	5	0	BUG	187	n/a	n/a	0	n/a	n/a	n/a	n/a	n/a
1021.488	n/a	REC_WORD	510744	wordpools/wasnorm_wordpool.txt	LTP142	ltpFR	17	5	0	COMMITTEE	355	n/a	n/a	1	n/a	n/a	n/a	n/a	n/a
1086.196	n/a	WORD	543098	wordpools/wasnorm_wordpool.txt	LTP142	ltpFR	17	6	-1	SIBLING	1301	n/a	n/a	-1	1.0	1.0	1	upper	Verdana.ttf
1090.144	n/a	WORD	545072	wordpools/wasnorm_wordpool.txt	LTP142	ltpFR	17	6	-1	COMET	353	n/a	n/a	-1	1.0	1.0	1	upper	Verdana.ttf
1093.992	n/a	WORD	546996	wordpools/wasnorm_wordpool.txt	LTP142	ltpFR	17	6	-1	PLATE	1086	n/a	n/a	-1	1.0	1.0	1	upper	Verdana.ttf
1098.1	n/a	WORD	549050	wordpools/wasnorm_wordpool.txt	LTP142	ltpFR	17	6	-1	SKILLET	1317	n/a	n/a	-1	1.0	1.0	1	upper	Verdana.ttf
1102.032	n/a	WORD	551016	wordpools/wasnorm_wordpool.txt	LTP142	ltpFR	17	6	-1	FARMER	553	n/a	n/a	-1	1.0	1.0	1	upper	Verdana.ttf
1105.898	n/a	WORD	552949	wordpools/wasnorm_wordpool.txt	LTP142	ltpFR	17	6	-1	FIELD	562	n/a	n/a	-1	1.0	1.0	1	upper	Verdana.ttf
1109.996	n/a	WORD	554998	wordpools/wasnorm_wordpool.txt	LTP142	ltpFR	17	6	-1	DRESSER	496	n/a	n/a	-1	1.0	1.0	1	upper	Verdana.ttf
1114.02	n/a	WORD	557010	wordpools/wasnorm_wordpool.txt	LTP142	ltpFR	17	6	-1	MOWER	928	n/a	n/a	-1	1.0	1.0	1	upper	Verdana.ttf
1117.902	n/a	WORD	558951	wordpools/wasnorm_wordpool.txt	LTP142	ltpFR	17	6	-1	CELERY	266	n/a	n/a	-1	1.0	1.0	1	upper	Verdana.ttf
1122.102	n/a	WORD	561051	wordpools/wasnorm_wordpool.txt	LTP142	ltpFR	17	6	-1	SALAD	1224	n/a	n/a	-1	1.0	1.0	1	upper	Verdana.ttf
1126.166	n/a	WORD	563083	wordpools/wasnorm_wordpool.txt	LTP142	ltpFR	17	6	-1	LASH	802	n/a	n/a	-1	1.0	1.0	1	upper	Verdana.ttf
1130.082	n/a	WORD	565041	wordpools/wasnorm_wordpool.txt	LTP142	ltpFR	17	6	-1	BUCKET	184	n/a	n/a	-1	1.0	1.0	1	upper	Verdana.ttf
1134.088	n/a	WORD	567044	wordpools/wasnorm_wordpool.txt	LTP142	ltpFR	17	6	-1	TOOTHPASTE	1483	n/a	n/a	-1	1.0	1.0	1	upper	Verdana.ttf
1138.296	n/a	WORD	569148	wordpools/wasnorm_wordpool.txt	LTP142	ltpFR	17	6	-1	MOON	914	n/a	n/a	-1	1.0	1.0	1	upper	Verdana.ttf
1142.368	n/a	WORD	571184	wordpools/wasnorm_wordpool.txt	LTP142	ltpFR	17	6	-1	PARSLEY	1016	n/a	n/a	-1	1.0	1.0	1	upper	Verdana.ttf
1146.476	n/a	WORD	573238	wordpools/wasnorm_wordpool.txt	LTP142	ltpFR	17	6	-1	FAMILY	550	n/a	n/a	-1	1.0	1.0	1	upper	Verdana.ttf
1152.374	n/a	REC_START	576187	n/a	LTP142	ltpFR	17	6	n/a	n/a	n/a	n/a	n/a	n/a	n/a	n/a	n/a	n/a	n/a
1153.148	n/a	REC_WORD	576574	wordpools/wasnorm_wordpool.txt	LTP142	ltpFR	17	6	-1	FAMILY	550	n/a	n/a	-1	n/a	n/a	n/a	n/a	n/a
1154.146	n/a	REC_WORD	577073	wordpools/wasnorm_wordpool.txt	LTP142	ltpFR	17	6	-1	TOOTHPASTE	1483	n/a	n/a	-1	n/a	n/a	n/a	n/a	n/a
1155.146	n/a	REC_WORD_VV	577573	wordpools/wasnorm_wordpool.txt	LTP142	ltpFR	17	6	n/a	<>	-1	n/a	n/a	n/a	n/a	n/a	n/a	n/a	n/a
1155.472	n/a	REC_WORD	577736	wordpools/wasnorm_wordpool.txt	LTP142	ltpFR	17	6	-1	CELERY	266	n/a	n/a	-1	n/a	n/a	n/a	n/a	n/a
1156.58	n/a	REC_WORD	578290	wordpools/wasnorm_wordpool.txt	LTP142	ltpFR	17	6	-1	SALAD	1224	n/a	n/a	-1	n/a	n/a	n/a	n/a	n/a
1158.172	n/a	REC_WORD	579086	wordpools/wasnorm_wordpool.txt	LTP142	ltpFR	17	6	-1	PARSLEY	1016	n/a	n/a	-1	n/a	n/a	n/a	n/a	n/a
1160.376	n/a	REC_WORD	580188	wordpools/wasnorm_wordpool.txt	LTP142	ltpFR	17	6	-1	FARMER	553	n/a	n/a	-1	n/a	n/a	n/a	n/a	n/a
1161.42	n/a	REC_WORD	580710	wordpools/wasnorm_wordpool.txt	LTP142	ltpFR	17	6	-1	FIELD	562	n/a	n/a	-1	n/a	n/a	n/a	n/a	n/a
1162.502	n/a	REC_WORD	581251	wordpools/wasnorm_wordpool.txt	LTP142	ltpFR	17	6	-1	MOWER	928	n/a	n/a	-1	n/a	n/a	n/a	n/a	n/a
1165.086	n/a	REC_WORD	582543	wordpools/wasnorm_wordpool.txt	LTP142	ltpFR	17	6	-1	PLATE	1086	n/a	n/a	-1	n/a	n/a	n/a	n/a	n/a
1166.13	n/a	REC_WORD	583065	wordpools/wasnorm_wordpool.txt	LTP142	ltpFR	17	6	-1	COMET	353	n/a	n/a	-1	n/a	n/a	n/a	n/a	n/a
1196.596	n/a	REC_WORD	598298	wordpools/wasnorm_wordpool.txt	LTP142	ltpFR	17	6	-1	BUCKET	184	n/a	n/a	-1	n/a	n/a	n/a	n/a	n/a
1200.194	n/a	REC_WORD	600097	wordpools/wasnorm_wordpool.txt	LTP142	ltpFR	17	6	1	PAIL	1002	n/a	n/a	0	n/a	n/a	n/a	n/a	n/a
1231.776	n/a	WORD	615888	wordpools/wasnorm_wordpool.txt	LTP142	ltpFR	17	7	0	HARE	688	n/a	n/a	1	0.57763671875	0.412841796875	1	upper	amplitud.ttf
1235.634	n/a	WORD	617817	wordpools/wasnorm_wordpool.txt	LTP142	ltpFR	17	7	0	BUNNY	198	n/a	n/a	1	0.57763671875	0.412841796875	1	upper	amplitud.ttf
1239.774	n/a	WORD	619887	wordpools/wasnorm_wordpool.txt	LTP142	ltpFR	17	7	0	CONSOLE	364	n/a	n/a	1	0.57763671875	0.412841796875	1	upper	amplitud.ttf
1243.856	n/a	WORD	621928	wordpools/wasnorm_wordpool.txt	LTP142	ltpFR	17	7	0	CABLE	213	n/a	n/a	0	0.57763671875	0.412841796875	1	upper	amplitud.ttf
1248.046	n/a	WORD	624023	wordpools/wasnorm_wordpool.txt	LTP142	ltpFR	17	7	0	CORPORATION	382	n/a	n/a	1	0.57763671875	0.412841796875	1	upper	amplitud.ttf
1251.904	n/a	WORD	625952	wordpools/wasnorm_wordpool.txt	LTP142	ltpFR	17	7	1	NURSE	963	n/a	n/a	1	0.422607421875	0.5869140625	0	lower	zerothre.ttf
1255.718	n/a	WORD	627859	wordpools/wasnorm_wordpool.txt	LTP142	ltpFR	17	7	1	LAUNDRY	803	n/a	n/a	1	0.422607421875	0.5869140625	0	lower	zerothre.ttf
1259.76	n/a	WORD	629880	wordpools/wasnorm_wordpool.txt	LTP142	ltpFR	17	7	1	PICNIC	1060	n/a	n/a	0	0.422607421875	0.5869140625	0	lower	zerothre.ttf
1263.592	n/a	WORD	631796	wordpools/wasnorm_wordpool.txt	LTP142	ltpFR	17	7	0	HOSTESS	723	n/a	n/a	1	0.57763671875	0.412841796875	1	upper	amplitud.ttf
1267.69	n/a	WORD	633845	wordpools/wasnorm_wordpool.txt	LTP142	ltpFR	17	7	0	LIGHTER	819	n/a	n/a	0	0.57763671875	0.412841796875	1	upper	amplitud.ttf
1271.68	n/a	WORD	635840	wordpools/wasnorm_wordpool.txt	LTP142	ltpFR	17	7	0	HAYSTACK	694	n/a	n/a	1	0.57763671875	0.412841796875	1	upper	amplitud.ttf
1275.854	n/a	WORD	637927	wordpools/wasnorm_wordpool.txt	LTP142	ltpFR	17	7	1	DOCTOR	478	n/a	n/a	1	0.422607421875	0.5869140625	0	lower	zerothre.ttf
1280.062	n/a	WORD	640031	wordpools/wasnorm_wordpool.txt	LTP142	ltpFR	17	7	1	LOG	841	n/a	n/a	0	0.422607421875	0.5869140625	0	lower	zerothre.ttf
1284.21	n/a	WORD	642105	wordpools/wasnorm_wordpool.txt	LTP142	ltpFR	17	7	1	FACTORY	548	n/a	n/a	0	0.422607421875	0.5869140625	0	lower	zerothre.ttf
1288.25	n/a	WORD	644125	wordpools/wasnorm_wordpool.txt	LTP142	ltpFR	17	7	1	CANDLE	229	n/a	n/a	0	0.422607421875	0.5869140625	0	lower	zerothre.ttf
1292.398	n/a	WORD	646199	wordpools/wasnorm_wordpool.txt	LTP142	ltpFR	17	7	1	RIBBON	1189	n/a	n/a	0	0.422607421875	0.5869140625	0	lower	zerothre.ttf
1298.174	n/a	REC_START	649087	n/a	LTP142	ltpFR	17	7	n/a	n/a	n/a	n/a	n/a	n/a	n/a	n/a	n/a	n/a	n/a
1298.688	n/a	REC_WORD	649344	wordpools/wasnorm_wordpool.txt	LTP142	ltpFR	17	7	1	RIBBON	1189	n/a	n/a	0	n/a	n/a	n/a	n/a	n/a
1299.55	n/a	REC_WORD	649775	wordpools/wasnorm_wordpool.txt	LTP142	ltpFR	17	7	1	CANDLE	229	n/a	n/a	0	n/a	n/a	n/a	n/a	n/a
1301.586	n/a	REC_WORD	650793	wordpools/wasnorm_wordpool.txt	LTP142	ltpFR	17	7	0	LIGHTER	819	n/a	n/a	0	n/a	n/a	n/a	n/a	n/a
1303.146	n/a	REC_WORD	651573	wordpools/wasnorm_wordpool.txt	LTP142	ltpFR	17	7	0	HAYSTACK	694	n/a	n/a	1	n/a	n/a	n/a	n/a	n/a
1304.594	n/a	REC_WORD	652297	wordpools/wasnorm_wordpool.txt	LTP142	ltpFR	17	7	n/a	FIRE	-1	n/a	n/a	n/a	n/a	n/a	n/a	n/a	n/a
1311.868	n/a	REC_WORD	655934	wordpools/wasnorm_wordpool.txt	LTP142	ltpFR	17	7	1	DOCTOR	478	n/a	n/a	1	n/a	n/a	n/a	n/a	n/a
1320.07	n/a	REC_WORD	660035	wordpools/wasnorm_wordpool.txt	LTP142	ltpFR	17	7	1	RIBBON	1189	n/a	n/a	0	n/a	n/a	n/a	n/a	n/a
1329.962	n/a	REC_WORD	664981	wordpools/wasnorm_wordpool.txt	LTP142	ltpFR	17	7	1	AMBULANCE	19	n/a	n/a	0	n/a	n/a	n/a	n/a	n/a
1330.962	n/a	REC_WORD_VV	665481	wordpools/wasnorm_wordpool.txt	LTP142	ltpFR	17	7	n/a	<>	-1	n/a	n/a	n/a	n/a	n/a	n/a	n/a	n/a
1369.68	n/a	REC_WORD	684840	wordpools/wasnorm_wordpool.txt	LTP142	ltpFR	17	7	1	PICNIC	1060	n/a	n/a	0	n/a	n/a	n/a	n/a	n/a
1379.938	n/a	WORD	689969	wordpools/wasnorm_wordpool.txt	LTP142	ltpFR	17	8	1	ANGEL	22	n/a	n/a	0	0.422607421875	0.5869140625	0	lower	zerothre.ttf
1383.772	n/a	WORD	691886	wordpools/wasnorm_wordpool.txt	LTP142	ltpFR	17	8	1	TROMBONE	1508	n/a	n/a	0	0.422607421875	0.5869140625	0	lower	zerothre.ttf
1387.878	n/a	WORD	693939	wordpools/wasnorm_wordpool.txt	LTP142	ltpFR	17	8	0	HALL	677	n/a	n/a	1	0.57763671875	0.412841796875	1	upper	amplitud.ttf
1391.828	n/a	WORD	695914	wordpools/wasnorm_wordpool.txt	LTP142	ltpFR	17	8	0	TIGER	1467	n/a	n/a	1	0.57763671875	0.412841796875	1	upper	amplitud.ttf
1395.718	n/a	WORD	697859	wordpools/wasnorm_wordpool.txt	LTP142	ltpFR	17	8	0	JUDGE	761	n/a	n/a	1	0.57763671875	0.412841796875	1	upper	amplitud.ttf
1399.632	n/a	WORD	699816	wordpools/wasnorm_wordpool.txt	LTP142	ltpFR	17	8	1	ANIMAL	23	n/a	n/a	1	0.422607421875	0.5869140625	0	lower	zerothre.ttf
1403.608	n/a	WORD	701804	wordpools/wasnorm_wordpool.txt	LTP142	ltpFR	17	8	1	MICROWAVE	892	n/a	n/a	0	0.422607421875	0.5869140625	0	lower	zerothre.ttf
1407.614	n/a	WORD	703807	wordpools/wasnorm_wordpool.txt	LTP142	ltpFR	17	8	0	MAT	877	n/a	n/a	1	0.57763671875	0.412841796875	1	upper	amplitud.ttf
1411.654	n/a	WORD	705827	wordpools/wasnorm_wordpool.txt	LTP142	ltpFR	17	8	0	CHESS	294	n/a	n/a	0	0.57763671875	0.412841796875	1	upper	amplitud.ttf
1415.736	n/a	WORD	707868	wordpools/wasnorm_wordpool.txt	LTP142	ltpFR	17	8	0	DICE	461	n/a	n/a	0	0.57763671875	0.412841796875	1	upper	amplitud.ttf
1419.676	n/a	WORD	709838	wordpools/wasnorm_wordpool.txt	LTP142	ltpFR	17	8	0	ANTELOPE	27	n/a	n/a	1	0.57763671875	0.412841796875	1	upper	amplitud.ttf
1423.502	n/a	WORD	711751	wordpools/wasnorm_wordpool.txt	LTP142	ltpFR	17	8	0	ALLIGATOR	16	n/a	n/a	1	0.57763671875	0.412841796875	1	upper	amplitud.ttf
1427.416	n/a	WORD	713708	wordpools/wasnorm_wordpool.txt	LTP142	ltpFR	17	8	1	FLEA	577	n/a	n/a	0	0.422607421875	0.5869140625	0	lower	zerothre.ttf
1431.422	n/a	WORD	715711	wordpools/wasnorm_wordpool.txt	LTP142	ltpFR	17	8	1	CAT	257	n/a	n/a	1	0.422607421875	0.5869140625	0	lower	zerothre.ttf
1435.354	n/a	WORD	717677	wordpools/wasnorm_wordpool.txt	LTP142	ltpFR	17	8	1	LIVER	833	n/a	n/a	0	0.422607421875	0.5869140625	0	lower	zerothre.ttf
1439.53	n/a	WORD	719765	wordpools/wasnorm_wordpool.txt	LTP142	ltpFR	17	8	1	GUITAR	670	n/a	n/a	0	0.422607421875	0.5869140625	0	lower	zerothre.ttf
1445.546	n/a	REC_START	722773	n/a	LTP142	ltpFR	17	8	n/a	n/a	n/a	n/a	n/a	n/a	n/a	n/a	n/a	n/a	n/a
1446.288	n/a	REC_WORD	723144	wordpools/wasnorm_wordpool.txt	LTP142	ltpFR	17	8	1	ANGEL	22	n/a	n/a	0	n/a	n/a	n/a	n/a	n/a
1447.68	n/a	REC_WORD	723840	wordpools/wasnorm_wordpool.txt	LTP142	ltpFR	17	8	1	TROMBONE	1508	n/a	n/a	0	n/a	n/a	n/a	n/a	n/a
1448.678	n/a	REC_WORD	724339	wordpools/wasnorm_wordpool.txt	LTP142	ltpFR	17	8	1	GUITAR	670	n/a	n/a	0	n/a	n/a	n/a	n/a	n/a
1450.474	n/a	REC_WORD	725237	wordpools/wasnorm_wordpool.txt	LTP142	ltpFR	17	8	0	HALL	677	n/a	n/a	1	n/a	n/a	n/a	n/a	n/a
1451.422	n/a	REC_WORD	725711	wordpools/wasnorm_wordpool.txt	LTP142	ltpFR	17	8	0	TIGER	1467	n/a	n/a	1	n/a	n/a	n/a	n/a	n/a
1452.464	n/a	REC_WORD	726232	wordpools/wasnorm_wordpool.txt	LTP142	ltpFR	17	8	0	ANTELOPE	27	n/a	n/a	1	n/a	n/a	n/a	n/a	n/a
1456.774	n/a	REC_WORD	728387	wordpools/wasnorm_wordpool.txt	LTP142	ltpFR	17	8	1	CAT	257	n/a	n/a	1	n/a	n/a	n/a	n/a	n/a
1457.414	n/a	REC_WORD	728707	wordpools/wasnorm_wordpool.txt	LTP142	ltpFR	17	8	1	FLEA	577	n/a	n/a	0	n/a	n/a	n/a	n/a	n/a
1458.576	n/a	REC_WORD	729288	wordpools/wasnorm_wordpool.txt	LTP142	ltpFR	17	8	1	ANIMAL	23	n/a	n/a	1	n/a	n/a	n/a	n/a	n/a
1547.23	n/a	WORD	773615	wordpools/wasnorm_wordpool.txt	LTP142	ltpFR	17	9	0	VILLAGE	1566	n/a	n/a	1	0.57763671875	0.412841796875	1	upper	amplitud.ttf
1551.444	n/a	WORD	775722	wordpools/wasnorm_wordpool.txt	LTP142	ltpFR	17	9	0	BUREAU	199	n/a	n/a	1	0.57763671875	0.412841796875	1	upper	amplitud.ttf
1555.628	n/a	WORD	777814	wordpools/wasnorm_wordpool.txt	LTP142	ltpFR	17	9	0	ATTORNEY	58	n/a	n/a	1	0.57763671875	0.412841796875	1	upper	amplitud.ttf
1559.794	n/a	WORD	779897	wordpools/wasnorm_wordpool.txt	LTP142	ltpFR	17	9	0	EYELASH	546	n/a	n/a	0	0.57763671875	0.412841796875	1	upper	amplitud.ttf
1563.85	n/a	WORD	781925	wordpools/wasnorm_wordpool.txt	LTP142	ltpFR	17	9	0	DUNGEON	507	n/a	n/a	1	0.57763671875	0.412841796875	1	upper	amplitud.ttf
1567.666	n/a	WORD	783833	wordpools/wasnorm_wordpool.txt	LTP142	ltpFR	17	9	0	GRASS	655	n/a	n/a	0	0.57763671875	0.412841796875	1	upper	amplitud.ttf
1571.666	n/a	WORD	785833	wordpools/wasnorm_wordpool.txt	LTP142	ltpFR	17	9	0	BUTTERFLY	206	n/a	n/a	0	0.57763671875	0.412841796875	1	upper	amplitud.ttf
1575.846	n/a	WORD	787923	wordpools/wasnorm_wordpool.txt	LTP142	ltpFR	17	9	0	TOE	1473	n/a	n/a	0	0.57763671875	0.412841796875	1	upper	amplitud.ttf
1579.912	n/a	WORD	789956	wordpools/wasnorm_wordpool.txt	LTP142	ltpFR	17	9	0	FOOT	590	n/a	n/a	1	0.57763671875	0.412841796875	1	upper	amplitud.ttf
1584.002	n/a	WORD	792001	wordpools/wasnorm_wordpool.txt	LTP142	ltpFR	17	9	0	SLIME	1327	n/a	n/a	0	0.57763671875	0.412841796875	1	upper	amplitud.ttf
1587.934	n/a	WORD	793967	wordpools/wasnorm_wordpool.txt	LTP142	ltpFR	17	9	0	CORD	379	n/a	n/a	0	0.57763671875	0.412841796875	1	upper	amplitud.ttf
1592.1	n/a	WORD	796050	wordpools/wasnorm_wordpool.txt	LTP142	ltpFR	17	9	0	TELEVISION	1447	n/a	n/a	1	0.57763671875	0.412841796875	1	upper	amplitud.ttf
1596.1	n/a	WORD	798050	wordpools/wasnorm_wordpool.txt	LTP142	ltpFR	17	9	0	BRIEFCASE	175	n/a	n/a	0	0.57763671875	0.412841796875	1	upper	amplitud.ttf
1600.206	n/a	WORD	800103	wordpools/wasnorm_wordpool.txt	LTP142	ltpFR	17	9	0	NEWSSTAND	949	n/a	n/a	1	0.57763671875	0.412841796875	1	upper	amplitud.ttf
1604.188	n/a	WORD	802094	wordpools/wasnorm_wordpool.txt	LTP142	ltpFR	17	9	0	DISC	473	n/a	n/a	0	0.57763671875	0.412841796875	1	upper	amplitud.ttf
1608.004	n/a	WORD	804002	wordpools/wasnorm_wordpool.txt	LTP142	ltpFR	17	9	0	SPIDER	1351	n/a	n/a	1	0.57763671875	0.412841796875	1	upper	amplitud.ttf
1613.962	n/a	REC_START	806981	n/a	LTP142	ltpFR	17	9	n/a	n/a	n/a	n/a	n/a	n/a	n/a	n/a	n/a	n/a	n/a
1614.274	n/a	REC_WORD	807137	wordpools/wasnorm_wordpool.txt	LTP142	ltpFR	17	9	0	SPIDER	1351	n/a	n/a	1	n/a	n/a	n/a	n/a	n/a
1615.244	n/a	REC_WORD	807622	wordpools/wasnorm_wordpool.txt	LTP142	ltpFR	17	9	0	DISC	473	n/a	n/a	0	n/a	n/a	n/a	n/a	n/a
1615.862	n/a	REC_WORD	807931	wordpools/wasnorm_wordpool.txt	LTP142	ltpFR	17	9	0	ATTORNEY	58	n/a	n/a	1	n/a	n/a	n/a	n/a	n/a
1616.76	n/a	REC_WORD	808380	wordpools/wasnorm_wordpool.txt	LTP142	ltpFR	17	9	0	VILLAGE	1566	n/a	n/a	1	n/a	n/a	n/a	n/a	n/a
1617.554	n/a	REC_WORD	808777	wordpools/wasnorm_wordpool.txt	LTP142	ltpFR	17	9	0	BUREAU	199	n/a	n/a	1	n/a	n/a	n/a	n/a	n/a
1622.162	n/a	REC_WORD	811081	wordpools/wasnorm_wordpool.txt	LTP142	ltpFR	17	9	0	SLIME	1327	n/a	n/a	0	n/a	n/a	n/a	n/a	n/a
1626.936	n/a	REC_WORD	813468	wordpools/wasnorm_wordpool.txt	LTP142	ltpFR	17	9	0	EYELASH	546	n/a	n/a	0	n/a	n/a	n/a	n/a	n/a
1629.262	n/a	REC_WORD	814631	wordpools/wasnorm_wordpool.txt	LTP142	ltpFR	17	9	0	BRIEFCASE	175	n/a	n/a	0	n/a	n/a	n/a	n/a	n/a
1630.236	n/a	REC_WORD	815118	wordpools/wasnorm_wordpool.txt	LTP142	ltpFR	17	9	0	TELEVISION	1447	n/a	n/a	1	n/a	n/a	n/a	n/a	n/a
1694.484	n/a	WORD	847242	wordpools/wasnorm_wordpool.txt	LTP142	ltpFR	17	10	-1	NAPKIN	937	n/a	n/a	-1	1.0	1.0	1	upper	Verdana.ttf
1698.518	n/a	WORD	849259	wordpools/wasnorm_wordpool.txt	LTP142	ltpFR	17	10	-1	DRUM	502	n/a	n/a	-1	1.0	1.0	1	upper	Verdana.ttf
1702.498	n/a	WORD	851249	wordpools/wasnorm_wordpool.txt	LTP142	ltpFR	17	10	-1	STONE	1385	n/a	n/a	-1	1.0	1.0	1	upper	Verdana.ttf
1706.498	n/a	WORD	853249	wordpools/wasnorm_wordpool.txt	LTP142	ltpFR	17	10	-1	SCRIBBLE	1256	n/a	n/a	-1	1.0	1.0	1	upper	Verdana.ttf
1710.38	n/a	WORD	855190	wordpools/wasnorm_wordpool.txt	LTP142	ltpFR	17	10	-1	HARP	689	n/a	n/a	-1	1.0	1.0	1	upper	Verdana.ttf
1714.312	n/a	WORD	857156	wordpools/wasnorm_wordpool.txt	LTP142	ltpFR	17	10	-1	SWIMMER	1420	n/a	n/a	-1	1.0	1.0	1	upper	Verdana.ttf
1718.244	n/a	WORD	859122	wordpools/wasnorm_wordpool.txt	LTP142	ltpFR	17	10	-1	LEG	809	n/a	n/a	-1	1.0	1.0	1	upper	Verdana.ttf
1722.376	n/a	WORD	861188	wordpools/wasnorm_wordpool.txt	LTP142	ltpFR	17	10	-1	ARMY	39	n/a	n/a	-1	1.0	1.0	1	upper	Verdana.ttf
1726.45	n/a	WORD	863225	wordpools/wasnorm_wordpool.txt	LTP142	ltpFR	17	10	-1	WRENCH	1625	n/a	n/a	-1	1.0	1.0	1	upper	Verdana.ttf
1730.44	n/a	WORD	865220	wordpools/wasnorm_wordpool.txt	LTP142	ltpFR	17	10	-1	TWEEZERS	1526	n/a	n/a	-1	1.0	1.0	1	upper	Verdana.ttf
1734.59	n/a	WORD	867295	wordpools/wasnorm_wordpool.txt	LTP142	ltpFR	17	10	-1	SPONGE	1355	n/a	n/a	-1	1.0	1.0	1	upper	Verdana.ttf
1738.454	n/a	WORD	869227	wordpools/wasnorm_wordpool.txt	LTP142	ltpFR	17	10	-1	BLUEJAY	141	n/a	n/a	-1	1.0	1.0	1	upper	Verdana.ttf
1742.454	n/a	WORD	871227	wordpools/wasnorm_wordpool.txt	LTP142	ltpFR	17	10	-1	QUAIL	1147	n/a	n/a	-1	1.0	1.0	1	upper	Verdana.ttf
1746.296	n/a	WORD	873148	wordpools/wasnorm_wordpool.txt	LTP142	ltpFR	17	10	-1	UNIFORM	1539	n/a	n/a	-1	1.0	1.0	1	upper	Verdana.ttf
1750.41	n/a	WORD	875205	wordpools/wasnorm_wordpool.txt	LTP142	ltpFR	17	10	-1	FOLDER	588	n/a	n/a	-1	1.0	1.0	1	upper	Verdana.ttf
1754.292	n/a	WORD	877146	wordpools/wasnorm_wordpool.txt	LTP142	ltpFR	17	10	-1	PUBLISHER	1137	n/a	n/a	-1	1.0	1.0	1	upper	Verdana.ttf
1760.058	n/a	REC_START	880029	n/a	LTP142	ltpFR	17	10	n/a	n/a	n/a	n/a	n/a	n/a	n/a	n/a	n/a	n/a	n/a
1760.806	n/a	REC_WORD	880403	wordpools/wasnorm_wordpool.txt	LTP142	ltpFR	17	10	-1	PUBLISHER	1137	n/a	n/a	-1	n/a	n/a	n/a	n/a	n/a
1761.94	n/a	REC_WORD	880970	wordpools/wasnorm_wordpool.txt	LTP142	ltpFR	17	10	-1	QUAIL	1147	n/a	n/a	-1	n/a	n/a	n/a	n/a	n/a
1766.708	n/a	REC_WORD	883354	wordpools/wasnorm_wordpool.txt	LTP142	ltpFR	17	10	-1	DRUM	502	n/a	n/a	-1	n/a	n/a	n/a	n/a	n/a
1767.446	n/a	REC_WORD	883723	wordpools/wasnorm_wordpool.txt	LTP142	ltpFR	17	10	-1	STONE	1385	n/a	n/a	-1	n/a	n/a	n/a	n/a	n/a
1768.474	n/a	REC_WORD	884237	wordpools/wasnorm_wordpool.txt	LTP142	ltpFR	17	10	-1	NAPKIN	937	n/a	n/a	-1	n/a	n/a	n/a	n/a	n/a
1769.408	n/a	REC_WORD	884704	wordpools/wasnorm_wordpool.txt	LTP142	ltpFR	17	10	-1	SCRIBBLE	1256	n/a	n/a	-1	n/a	n/a	n/a	n/a	n/a
1778.636	n/a	REC_WORD	889318	wordpools/wasnorm_wordpool.txt	LTP142	ltpFR	17	10	-1	TWEEZERS	1526	n/a	n/a	-1	n/a	n/a	n/a	n/a	n/a
1780.228	n/a	REC_WORD	890114	wordpools/wasnorm_wordpool.txt	LTP142	ltpFR	17	10	0	MAT	877	n/a	n/a	1	n/a	n/a	n/a	n/a	n/a
1791.772	n/a	REC_WORD	895886	wordpools/wasnorm_wordpool.txt	LTP142	ltpFR	17	10	0	VILLAGE	1566	n/a	n/a	1	n/a	n/a	n/a	n/a	n/a
1844.94	n/a	WORD	922470	wordpools/wasnorm_wordpool.txt	LTP142	ltpFR	17	11	-1	COMB	351	n/a	n/a	-1	1.0	1.0	1	upper	Verdana.ttf
1848.98	n/a	WORD	924490	wordpools/wasnorm_wordpool.txt	LTP142	ltpFR	17	11	-1	ASSOCIATE	49	n/a	n/a	-1	1.0	1.0	1	upper	Verdana.ttf
1853.162	n/a	WORD	926581	wordpools/wasnorm_wordpool.txt	LTP142	ltpFR	17	11	-1	TAPE	1433	n/a	n/a	-1	1.0	1.0	1	upper	Verdana.ttf
1857.32	n/a	WORD	928660	wordpools/wasnorm_wordpool.txt	LTP142	ltpFR	17	11	-1	MOSS	918	n/a	n/a	-1	1.0	1.0	1	upper	Verdana.ttf
1861.46	n/a	WORD	930730	wordpools/wasnorm_wordpool.txt	LTP142	ltpFR	17	11	-1	CHERRY	293	n/a	n/a	-1	1.0	1.0	1	upper	Verdana.ttf
1865.642	n/a	WORD	932821	wordpools/wasnorm_wordpool.txt	LTP142	ltpFR	17	11	-1	WOLF	1619	n/a	n/a	-1	1.0	1.0	1	upper	Verdana.ttf
1869.648	n/a	WORD	934824	wordpools/wasnorm_wordpool.txt	LTP142	ltpFR	17	11	-1	DANCER	437	n/a	n/a	-1	1.0	1.0	1	upper	Verdana.ttf
1873.724	n/a	WORD	936862	wordpools/wasnorm_wordpool.txt	LTP142	ltpFR	17	11	-1	BALLERINA	74	n/a	n/a	-1	1.0	1.0	1	upper	Verdana.ttf
1877.93	n/a	WORD	938965	wordpools/wasnorm_wordpool.txt	LTP142	ltpFR	17	11	-1	FOE	587	n/a	n/a	-1	1.0	1.0	1	upper	Verdana.ttf
1882.062	n/a	WORD	941031	wordpools/wasnorm_wordpool.txt	LTP142	ltpFR	17	11	-1	SHED	1277	n/a	n/a	-1	1.0	1.0	1	upper	Verdana.ttf
1886.252	n/a	WORD	943126	wordpools/wasnorm_wordpool.txt	LTP142	ltpFR	17	11	-1	PANTHER	1009	n/a	n/a	-1	1.0	1.0	1	upper	Verdana.ttf
1890.45	n/a	WORD	945225	wordpools/wasnorm_wordpool.txt	LTP142	ltpFR	17	11	-1	KNOB	787	n/a	n/a	-1	1.0	1.0	1	upper	Verdana.ttf
1894.642	n/a	WORD	947321	wordpools/wasnorm_wordpool.txt	LTP142	ltpFR	17	11	-1	STOVE	1388	n/a	n/a	-1	1.0	1.0	1	upper	Verdana.ttf
1898.548	n/a	WORD	949274	wordpools/wasnorm_wordpool.txt	LTP142	ltpFR	17	11	-1	RACCOON	1153	n/a	n/a	-1	1.0	1.0	1	upper	Verdana.ttf
1902.664	n/a	WORD	951332	wordpools/wasnorm_wordpool.txt	LTP142	ltpFR	17	11	-1	PREDATOR	1120	n/a	n/a	-1	1.0	1.0	1	upper	Verdana.ttf
1906.738	n/a	WORD	953369	wordpools/wasnorm_wordpool.txt	LTP142	ltpFR	17	11	-1	POCKET	1093	n/a	n/a	-1	1.0	1.0	1	upper	Verdana.ttf
1912.612	n/a	REC_START	956306	n/a	LTP142	ltpFR	17	11	n/a	n/a	n/a	n/a	n/a	n/a	n/a	n/a	n/a	n/a	n/a
1913.21	n/a	REC_WORD	956605	wordpools/wasnorm_wordpool.txt	LTP142	ltpFR	17	11	-1	RACCOON	1153	n/a	n/a	-1	n/a	n/a	n/a	n/a	n/a
1914.374	n/a	REC_WORD	957187	wordpools/wasnorm_wordpool.txt	LTP142	ltpFR	17	11	-1	PREDATOR	1120	n/a	n/a	-1	n/a	n/a	n/a	n/a	n/a
1915.322	n/a	REC_WORD	957661	wordpools/wasnorm_wordpool.txt	LTP142	ltpFR	17	11	-1	POCKET	1093	n/a	n/a	-1	n/a	n/a	n/a	n/a	n/a
1916.902	n/a	REC_WORD	958451	wordpools/wasnorm_wordpool.txt	LTP142	ltpFR	17	11	n/a	GARAGE	621	n/a	n/a	n/a	n/a	n/a	n/a	n/a	n/a
1922.5	n/a	REC_WORD	961250	wordpools/wasnorm_wordpool.txt	LTP142	ltpFR	17	11	-1	ASSOCIATE	49	n/a	n/a	-1	n/a	n/a	n/a	n/a	n/a
1926.266	n/a	REC_WORD	963133	wordpools/wasnorm_wordpool.txt	LTP142	ltpFR	17	11	-1	MOSS	918	n/a	n/a	-1	n/a	n/a	n/a	n/a	n/a
1927.284	n/a	REC_WORD	963642	wordpools/wasnorm_wordpool.txt	LTP142	ltpFR	17	11	-1	TAPE	1433	n/a	n/a	-1	n/a	n/a	n/a	n/a	n/a
1928.196	n/a	REC_WORD	964098	wordpools/wasnorm_wordpool.txt	LTP142	ltpFR	17	11	-1	COMB	351	n/a	n/a	-1	n/a	n/a	n/a	n/a	n/a
1932.592	n/a	REC_WORD	966296	wordpools/wasnorm_wordpool.txt	LTP142	ltpFR	17	11	-1	BALLERINA	74	n/a	n/a	-1	n/a	n/a	n/a	n/a	n/a
1935.84	n/a	REC_WORD	967920	wordpools/wasnorm_wordpool.txt	LTP142	ltpFR	17	11	-1	FOE	587	n/a	n/a	-1	n/a	n/a	n/a	n/a	n/a
1998.36	n/a	WORD	999180	wordpools/wasnorm_wordpool.txt	LTP142	ltpFR	17	12	1	OUTLAW	989	n/a	n/a	1	0.422607421875	0.5869140625	0	lower	zerothre.ttf
2002.234	n/a	WORD	1001117	wordpools/wasnorm_wordpool.txt	LTP142	ltpFR	17	12	1	TOASTER	1472	n/a	n/a	0	0.422607421875	0.5869140625	0	lower	zerothre.ttf
2006.266	n/a	WORD	1003133	wordpools/wasnorm_wordpool.txt	LTP142	ltpFR	17	12	1	ARENA	37	n/a	n/a	0	0.422607421875	0.5869140625	0	lower	zerothre.ttf
2010.19	n/a	WORD	1005095	wordpools/wasnorm_wordpool.txt	LTP142	ltpFR	17	12	1	DETERGENT	455	n/a	n/a	0	0.422607421875	0.5869140625	0	lower	zerothre.ttf
2014.356	n/a	WORD	1007178	wordpools/wasnorm_wordpool.txt	LTP142	ltpFR	17	12	1	BATH	98	n/a	n/a	0	0.422607421875	0.5869140625	0	lower	zerothre.ttf
2018.562	n/a	WORD	1009281	wordpools/wasnorm_wordpool.txt	LTP142	ltpFR	17	12	1	SUBURB	1399	n/a	n/a	0	0.422607421875	0.5869140625	0	lower	zerothre.ttf
2022.518	n/a	WORD	1011259	wordpools/wasnorm_wordpool.txt	LTP142	ltpFR	17	12	1	STALLION	1369	n/a	n/a	1	0.422607421875	0.5869140625	0	lower	zerothre.ttf
2026.536	n/a	WORD	1013268	wordpools/wasnorm_wordpool.txt	LTP142	ltpFR	17	12	1	DELINQUENT	445	n/a	n/a	1	0.422607421875	0.5869140625	0	lower	zerothre.ttf
2030.45	n/a	WORD	1015225	wordpools/wasnorm_wordpool.txt	LTP142	ltpFR	17	12	1	DESSERT	453	n/a	n/a	0	0.422607421875	0.5869140625	0	lower	zerothre.ttf
2034.432	n/a	WORD	1017216	wordpools/wasnorm_wordpool.txt	LTP142	ltpFR	17	12	1	GARDEN	623	n/a	n/a	0	0.422607421875	0.5869140625	0	lower	zerothre.ttf
2038.264	n/a	WORD	1019132	wordpools/wasnorm_wordpool.txt	LTP142	ltpFR	17	12	1	CACTUS	215	n/a	n/a	1	0.422607421875	0.5869140625	0	lower	zerothre.ttf
2042.438	n/a	WORD	1021219	wordpools/wasnorm_wordpool.txt	LTP142	ltpFR	17	12	1	CART	250	n/a	n/a	0	0.422607421875	0.5869140625	0	lower	zerothre.ttf
2046.612	n/a	WORD	1023306	wordpools/wasnorm_wordpool.txt	LTP142	ltpFR	17	12	1	PUPPY	1144	n/a	n/a	1	0.422607421875	0.5869140625	0	lower	zerothre.ttf
2050.678	n/a	WORD	1025339	wordpools/wasnorm_wordpool.txt	LTP142	ltpFR	17	12	1	TOWN	1491	n/a	n/a	0	0.422607421875	0.5869140625	0	lower	zerothre.ttf
2054.818	n/a	WORD	1027409	wordpools/wasnorm_wordpool.txt	LTP142	ltpFR	17	12	1	COP	376	n/a	n/a	1	0.422607421875	0.5869140625	0	lower	zerothre.ttf
2059.0	n/a	WORD	1029500	wordpools/wasnorm_wordpool.txt	LTP142	ltpFR	17	12	1	PIG	1064	n/a	n/a	1	0.422607421875	0.5869140625	0	lower	zerothre.ttf
2064.974	n/a	REC_START	1032487	n/a	LTP142	ltpFR	17	12	n/a	n/a	n/a	n/a	n/a	n/a	n/a	n/a	n/a	n/a	n/a
2066.086	n/a	REC_WORD	1033043	wordpools/wasnorm_wordpool.txt	LTP142	ltpFR	17	12	1	COP	376	n/a	n/a	1	n/a	n/a	n/a	n/a	n/a
2067.034	n/a	REC_WORD	1033517	wordpools/wasnorm_wordpool.txt	LTP142	ltpFR	17	12	1	PIG	1064	n/a	n/a	1	n/a	n/a	n/a	n/a	n/a
2068.002	n/a	REC_WORD	1034001	wordpools/wasnorm_wordpool.txt	LTP142	ltpFR	17	12	1	GARDEN	623	n/a	n/a	0	n/a	n/a	n/a	n/a	n/a
2076.842	n/a	REC_WORD	1038421	wordpools/wasnorm_wordpool.txt	LTP142	ltpFR	17	12	1	PUPPY	1144	n/a	n/a	1	n/a	n/a	n/a	n/a	n/a
2079.098	n/a	REC_WORD	1039549	wordpools/wasnorm_wordpool.txt	LTP142	ltpFR	17	12	1	CAT	257	n/a	n/a	1	n/a	n/a	n/a	n/a	n/a
2111.0	n/a	REC_WORD	1055500	wordpools/wasnorm_wordpool.txt	LTP142	ltpFR	17	12	-1	ASSOCIATE	49	n/a	n/a	-1	n/a	n/a	n/a	n/a	n/a
2129.784	n/a	REC_WORD	1064892	wordpools/wasnorm_wordpool.txt	LTP142	ltpFR	17	12	0	NEWSSTAND	949	n/a	n/a	1	n/a	n/a	n/a	n/a	n/a
2140.56	n/a	REST_REWET	1070280	n/a	LTP142	ltpFR	17	12	n/a	n/a	n/a	n/a	n/a	n/a	n/a	n/a	n/a	n/a	n/a
2454.478	n/a	WORD	1227239	wordpools/wasnorm_wordpool.txt	LTP142	ltpFR	17	13	0	SPIT	1354	n/a	n/a	0	0.57763671875	0.412841796875	1	upper	amplitud.ttf
2458.562	n/a	WORD	1229281	wordpools/wasnorm_wordpool.txt	LTP142	ltpFR	17	13	0	FLIPPER	580	n/a	n/a	1	0.57763671875	0.412841796875	1	upper	amplitud.ttf
2462.762	n/a	WORD	1231381	wordpools/wasnorm_wordpool.txt	LTP142	ltpFR	17	13	0	JEANS	752	n/a	n/a	1	0.57763671875	0.412841796875	1	upper	amplitud.ttf
2466.644	n/a	WORD	1233322	wordpools/wasnorm_wordpool.txt	LTP142	ltpFR	17	13	1	TROUSERS	1510	n/a	n/a	0	0.422607421875	0.5869140625	0	lower	zerothre.ttf
2470.726	n/a	WORD	1235363	wordpools/wasnorm_wordpool.txt	LTP142	ltpFR	17	13	1	BALL	73	n/a	n/a	0	0.422607421875	0.5869140625	0	lower	zerothre.ttf
2474.698	n/a	WORD	1237349	wordpools/wasnorm_wordpool.txt	LTP142	ltpFR	17	13	1	PARENT	1013	n/a	n/a	1	0.422607421875	0.5869140625	0	lower	zerothre.ttf
2478.856	n/a	WORD	1239428	wordpools/wasnorm_wordpool.txt	LTP142	ltpFR	17	13	1	OUTFIT	988	n/a	n/a	0	0.422607421875	0.5869140625	0	lower	zerothre.ttf
2482.822	n/a	WORD	1241411	wordpools/wasnorm_wordpool.txt	LTP142	ltpFR	17	13	1	INMATE	738	n/a	n/a	1	0.422607421875	0.5869140625	0	lower	zerothre.ttf
2486.762	n/a	WORD	1243381	wordpools/wasnorm_wordpool.txt	LTP142	ltpFR	17	13	0	PIN	1072	n/a	n/a	0	0.57763671875	0.412841796875	1	upper	amplitud.ttf
2490.602	n/a	WORD	1245301	wordpools/wasnorm_wordpool.txt	LTP142	ltpFR	17	13	0	KID	775	n/a	n/a	1	0.57763671875	0.412841796875	1	upper	amplitud.ttf
2494.676	n/a	WORD	1247338	wordpools/wasnorm_wordpool.txt	LTP142	ltpFR	17	13	1	LAKE	796	n/a	n/a	0	0.422607421875	0.5869140625	0	lower	zerothre.ttf
2498.758	n/a	WORD	1249379	wordpools/wasnorm_wordpool.txt	LTP142	ltpFR	17	13	1	TROUT	1511	n/a	n/a	1	0.422607421875	0.5869140625	0	lower	zerothre.ttf
2502.832	n/a	WORD	1251416	wordpools/wasnorm_wordpool.txt	LTP142	ltpFR	17	13	1	UNDERWEAR	1537	n/a	n/a	0	0.422607421875	0.5869140625	0	lower	zerothre.ttf
2506.706	n/a	WORD	1253353	wordpools/wasnorm_wordpool.txt	LTP142	ltpFR	17	13	0	BAKER	71	n/a	n/a	1	0.57763671875	0.412841796875	1	upper	amplitud.ttf
2510.754	n/a	WORD	1255377	wordpools/wasnorm_wordpool.txt	LTP142	ltpFR	17	13	0	BUN	197	n/a	n/a	n/a	0.57763671875	0.412841796875	1	upper	amplitud.ttf
2513.778	n/a	SLOW_MSG	1256889	n/a	LTP142	ltpFR	17	13	n/a	n/a	n/a	n/a	n/a	n/a	n/a	n/a	n/a	n/a	n/a
2516.278	n/a	WORD	1258139	wordpools/wasnorm_wordpool.txt	LTP142	ltpFR	17	13	0	NOSE	957	n/a	n/a	0	0.57763671875	0.412841796875	1	upper	amplitud.ttf
2522.028	n/a	REC_START	1261014	n/a	LTP142	ltpFR	17	13	n/a	n/a	n/a	n/a	n/a	n/a	n/a	n/a	n/a	n/a	n/a
2522.906	n/a	REC_WORD	1261453	wordpools/wasnorm_wordpool.txt	LTP142	ltpFR	17	13	1	PARENT	1013	n/a	n/a	1	n/a	n/a	n/a	n/a	n/a
2523.862	n/a	REC_WORD	1261931	wordpools/wasnorm_wordpool.txt	LTP142	ltpFR	17	13	0	FLIPPER	580	n/a	n/a	1	n/a	n/a	n/a	n/a	n/a
2524.846	n/a	REC_WORD	1262423	wordpools/wasnorm_wordpool.txt	LTP142	ltpFR	17	13	0	JEANS	752	n/a	n/a	1	n/a	n/a	n/a	n/a	n/a
2526.672	n/a	REC_WORD	1263336	wordpools/wasnorm_wordpool.txt	LTP142	ltpFR	17	13	1	TROUSERS	1510	n/a	n/a	0	n/a	n/a	n/a	n/a	n/a
2527.672	n/a	REC_WORD_VV	1263836	wordpools/wasnorm_wordpool.txt	LTP142	ltpFR	17	13	n/a	<>	-1	n/a	n/a	n/a	n/a	n/a	n/a	n/a	n/a
2528.752	n/a	REC_WORD	1264376	wordpools/wasnorm_wordpool.txt	LTP142	ltpFR	17	13	1	OUTFIT	988	n/a	n/a	0	n/a	n/a	n/a	n/a	n/a
2529.67	n/a	REC_WORD	1264835	wordpools/wasnorm_wordpool.txt	LTP142	ltpFR	17	13	1	INMATE	738	n/a	n/a	1	n/a	n/a	n/a	n/a	n/a
2546.254	n/a	REC_WORD	1273127	wordpools/wasnorm_wordpool.txt	LTP142	ltpFR	17	13	0	KID	775	n/a	n/a	1	n/a	n/a	n/a	n/a	n/a
2559.08	n/a	REC_WORD	1279540	wordpools/wasnorm_wordpool.txt	LTP142	ltpFR	17	13	-1	PARSLEY	1016	n/a	n/a	-1	n/a	n/a	n/a	n/a	n/a
2572.106	n/a	REC_WORD	1286053	wordpools/wasnorm_wordpool.txt	LTP142	ltpFR	17	13	1	JET	756	n/a	n/a	0	n/a	n/a	n/a	n/a	n/a
2583.84	n/a	REC_WORD	1291920	wordpools/wasnorm_wordpool.txt	LTP142	ltpFR	17	13	1	BALL	73	n/a	n/a	0	n/a	n/a	n/a	n/a	n/a
2602.46	n/a	WORD	1301230	wordpools/wasnorm_wordpool.txt	LTP142	ltpFR	17	14	1	SHRIMP	1297	n/a	n/a	1	0.422607421875	0.5869140625	0	lower	zerothre.ttf
2606.368	n/a	WORD	1303184	wordpools/wasnorm_wordpool.txt	LTP142	ltpFR	17	14	1	SHELL	1281	n/a	n/a	0	0.422607421875	0.5869140625	0	lower	zerothre.ttf
2610.226	n/a	WORD	1305113	wordpools/wasnorm_wordpool.txt	LTP142	ltpFR	17	14	0	HAND	683	n/a	n/a	1	0.57763671875	0.412841796875	1	upper	amplitud.ttf
2614.348	n/a	WORD	1307174	wordpools/wasnorm_wordpool.txt	LTP142	ltpFR	17	14	0	TAR	1435	n/a	n/a	1	0.57763671875	0.412841796875	1	upper	amplitud.ttf
2618.538	n/a	WORD	1309269	wordpools/wasnorm_wordpool.txt	LTP142	ltpFR	17	14	0	WARRIOR	1589	n/a	n/a	1	0.57763671875	0.412841796875	1	upper	amplitud.ttf
2622.63	n/a	WORD	1311315	wordpools/wasnorm_wordpool.txt	LTP142	ltpFR	17	14	1	NICKEL	950	n/a	n/a	0	0.422607421875	0.5869140625	0	lower	zerothre.ttf
2626.486	n/a	WORD	1313243	wordpools/wasnorm_wordpool.txt	LTP142	ltpFR	17	14	1	ARTIST	43	n/a	n/a	1	0.422607421875	0.5869140625	0	lower	zerothre.ttf
2630.686	n/a	WORD	1315343	wordpools/wasnorm_wordpool.txt	LTP142	ltpFR	17	14	1	PAINTER	1004	n/a	n/a	1	0.422607421875	0.5869140625	0	lower	zerothre.ttf
2634.626	n/a	WORD	1317313	wordpools/wasnorm_wordpool.txt	LTP142	ltpFR	17	14	1	CLAW	319	n/a	n/a	0	0.422607421875	0.5869140625	0	lower	zerothre.ttf
2638.524	n/a	WORD	1319262	wordpools/wasnorm_wordpool.txt	LTP142	ltpFR	17	14	1	FIGHTER	564	n/a	n/a	1	0.422607421875	0.5869140625	0	lower	zerothre.ttf
2642.538	n/a	WORD	1321269	wordpools/wasnorm_wordpool.txt	LTP142	ltpFR	17	14	1	CURB	426	n/a	n/a	0	0.422607421875	0.5869140625	0	lower	zerothre.ttf
2646.504	n/a	WORD	1323252	wordpools/wasnorm_wordpool.txt	LTP142	ltpFR	17	14	0	SUGAR	1401	n/a	n/a	0	0.57763671875	0.412841796875	1	upper	amplitud.ttf
2650.404	n/a	WORD	1325202	wordpools/wasnorm_wordpool.txt	LTP142	ltpFR	17	14	0	FOUNTAIN	597	n/a	n/a	1	0.57763671875	0.412841796875	1	upper	amplitud.ttf
2654.528	n/a	WORD	1327264	wordpools/wasnorm_wordpool.txt	LTP142	ltpFR	17	14	0	IGLOO	734	n/a	n/a	1	0.57763671875	0.412841796875	1	upper	amplitud.ttf
2658.484	n/a	WORD	1329242	wordpools/wasnorm_wordpool.txt	LTP142	ltpFR	17	14	0	MATCH	878	n/a	n/a	1	0.57763671875	0.412841796875	1	upper	amplitud.ttf
2662.44	n/a	WORD	1331220	wordpools/wasnorm_wordpool.txt	LTP142	ltpFR	17	14	0	FIREPLACE	570	n/a	n/a	1	0.57763671875	0.412841796875	1	upper	amplitud.ttf
2668.234	n/a	REC_START	1334117	n/a	LTP142	ltpFR	17	14	n/a	n/a	n/a	n/a	n/a	n/a	n/a	n/a	n/a	n/a	n/a
2668.522	n/a	REC_WORD	1334261	wordpools/wasnorm_wordpool.txt	LTP142	ltpFR	17	14	0	FIREPLACE	570	n/a	n/a	1	n/a	n/a	n/a	n/a	n/a
2669.522	n/a	REC_WORD_VV	1334761	wordpools/wasnorm_wordpool.txt	LTP142	ltpFR	17	14	n/a	<>	-1	n/a	n/a	n/a	n/a	n/a	n/a	n/a	n/a
2669.85	n/a	REC_WORD	1334925	wordpools/wasnorm_wordpool.txt	LTP142	ltpFR	17	14	0	MATCH	878	n/a	n/a	1	n/a	n/a	n/a	n/a	n/a
2670.926	n/a	REC_WORD	1335463	wordpools/wasnorm_wordpool.txt	LTP142	ltpFR	17	14	n/a	GLUE	643	n/a	n/a	n/a	n/a	n/a	n/a	n/a	n/a
2673.452	n/a	REC_WORD	1336726	wordpools/wasnorm_wordpool.txt	LTP142	ltpFR	17	14	n/a	PAINTING	1005	n/a	n/a	n/a	n/a	n/a	n/a	n/a	n/a
2674.908	n/a	REC_WORD	1337454	wordpools/wasnorm_wordpool.txt	LTP142	ltpFR	17	14	1	ARTIST	43	n/a	n/a	1	n/a	n/a	n/a	n/a	n/a
2676.38	n/a	REC_WORD	1338190	wordpools/wasnorm_wordpool.txt	LTP142	ltpFR	17	14	1	FIGHTER	564	n/a	n/a	1	n/a	n/a	n/a	n/a	n/a
2679.248	n/a	REC_WORD	1339624	wordpools/wasnorm_wordpool.txt	LTP142	ltpFR	17	14	1	SHRIMP	1297	n/a	n/a	1	n/a	n/a	n/a	n/a	n/a
2680.24	n/a	REC_WORD	1340120	wordpools/wasnorm_wordpool.txt	LTP142	ltpFR	17	14	1	SHELL	1281	n/a	n/a	0	n/a	n/a	n/a	n/a	n/a
2681.408	n/a	REC_WORD	1340704	wordpools/wasnorm_wordpool.txt	LTP142	ltpFR	17	14	0	TAR	1435	n/a	n/a	1	n/a	n/a	n/a	n/a	n/a
2682.306	n/a	REC_WORD	1341153	wordpools/wasnorm_wordpool.txt	LTP142	ltpFR	17	14	0	HAND	683	n/a	n/a	1	n/a	n/a	n/a	n/a	n/a
2747.9	n/a	WORD	1373950	wordpools/wasnorm_wordpool.txt	LTP142	ltpFR	17	15	0	PISTON	1076	n/a	n/a	0	0.57763671875	0.412841796875	1	upper	amplitud.ttf
2752.056	n/a	WORD	1376028	wordpools/wasnorm_wordpool.txt	LTP142	ltpFR	17	15	0	GROCERY	664	n/a	n/a	1	0.57763671875	0.412841796875	1	upper	amplitud.ttf
2756.056	n/a	WORD	1378028	wordpools/wasnorm_wordpool.txt	LTP142	ltpFR	17	15	0	HAY	693	n/a	n/a	0	0.57763671875	0.412841796875	1	upper	amplitud.ttf
2760.188	n/a	WORD	1380094	wordpools/wasnorm_wordpool.txt	LTP142	ltpFR	17	15	0	GREASE	660	n/a	n/a	0	0.57763671875	0.412841796875	1	upper	amplitud.ttf
2764.096	n/a	WORD	1382048	wordpools/wasnorm_wordpool.txt	LTP142	ltpFR	17	15	0	GHOST	634	n/a	n/a	1	0.57763671875	0.412841796875	1	upper	amplitud.ttf
2768.16	n/a	WORD	1384080	wordpools/wasnorm_wordpool.txt	LTP142	ltpFR	17	15	0	SPY	1360	n/a	n/a	1	0.57763671875	0.412841796875	1	upper	amplitud.ttf
2772.0	n/a	WORD	1386000	wordpools/wasnorm_wordpool.txt	LTP142	ltpFR	17	15	0	WRIST	1626	n/a	n/a	0	0.57763671875	0.412841796875	1	upper	amplitud.ttf
2776.032	n/a	WORD	1388016	wordpools/wasnorm_wordpool.txt	LTP142	ltpFR	17	15	0	SILVERWARE	1308	n/a	n/a	0	0.57763671875	0.412841796875	1	upper	amplitud.ttf
2779.948	n/a	WORD	1389974	wordpools/wasnorm_wordpool.txt	LTP142	ltpFR	17	15	0	MOSQUITO	917	n/a	n/a	0	0.57763671875	0.412841796875	1	upper	amplitud.ttf
2783.814	n/a	WORD	1391907	wordpools/wasnorm_wordpool.txt	LTP142	ltpFR	17	15	0	SHERIFF	1284	n/a	n/a	1	0.57763671875	0.412841796875	1	upper	amplitud.ttf
2787.912	n/a	WORD	1393956	wordpools/wasnorm_wordpool.txt	LTP142	ltpFR	17	15	0	HORSE	719	n/a	n/a	1	0.57763671875	0.412841796875	1	upper	amplitud.ttf
2791.962	n/a	WORD	1395981	wordpools/wasnorm_wordpool.txt	LTP142	ltpFR	17	15	0	FELLOW	558	n/a	n/a	1	0.57763671875	0.412841796875	1	upper	amplitud.ttf
2796.134	n/a	WORD	1398067	wordpools/wasnorm_wordpool.txt	LTP142	ltpFR	17	15	0	COMPANION	357	n/a	n/a	1	0.57763671875	0.412841796875	1	upper	amplitud.ttf
2800.018	n/a	WORD	1400009	wordpools/wasnorm_wordpool.txt	LTP142	ltpFR	17	15	0	ZIPPER	1636	n/a	n/a	0	0.57763671875	0.412841796875	1	upper	amplitud.ttf
2803.932	n/a	WORD	1401966	wordpools/wasnorm_wordpool.txt	LTP142	ltpFR	17	15	0	BLOUSE	139	n/a	n/a	1	0.57763671875	0.412841796875	1	upper	amplitud.ttf
2808.082	n/a	WORD	1404041	wordpools/wasnorm_wordpool.txt	LTP142	ltpFR	17	15	0	THREAD	1460	n/a	n/a	1	0.57763671875	0.412841796875	1	upper	amplitud.ttf
2813.938	n/a	REC_START	1406969	n/a	LTP142	ltpFR	17	15	n/a	n/a	n/a	n/a	n/a	n/a	n/a	n/a	n/a	n/a	n/a
2814.486	n/a	REC_WORD	1407243	wordpools/wasnorm_wordpool.txt	LTP142	ltpFR	17	15	0	THREAD	1460	n/a	n/a	1	n/a	n/a	n/a	n/a	n/a
2815.176	n/a	REC_WORD	1407588	wordpools/wasnorm_wordpool.txt	LTP142	ltpFR	17	15	0	HORSE	719	n/a	n/a	1	n/a	n/a	n/a	n/a	n/a
2815.888	n/a	REC_WORD	1407944	wordpools/wasnorm_wordpool.txt	LTP142	ltpFR	17	15	0	FELLOW	558	n/a	n/a	1	n/a	n/a	n/a	n/a	n/a
2816.448	n/a	REC_WORD	1408224	wordpools/wasnorm_wordpool.txt	LTP142	ltpFR	17	15	0	SHERIFF	1284	n/a	n/a	1	n/a	n/a	n/a	n/a	n/a
2817.316	n/a	REC_WORD	1408658	wordpools/wasnorm_wordpool.txt	LTP142	ltpFR	17	15	0	COMPANION	357	n/a	n/a	1	n/a	n/a	n/a	n/a	n/a
2819.262	n/a	REC_WORD	1409631	wordpools/wasnorm_wordpool.txt	LTP142	ltpFR	17	15	0	WRIST	1626	n/a	n/a	0	n/a	n/a	n/a	n/a	n/a
2819.886	n/a	REC_WORD	1409943	wordpools/wasnorm_wordpool.txt	LTP142	ltpFR	17	15	0	SILVERWARE	1308	n/a	n/a	0	n/a	n/a	n/a	n/a	n/a
2820.886	n/a	REC_WORD_VV	1410443	wordpools/wasnorm_wordpool.txt	LTP142	ltpFR	17	15	n/a	<>	-1	n/a	n/a	n/a	n/a	n/a	n/a	n/a	n/a
2822.898	n/a	REC_WORD	1411449	wordpools/wasnorm_wordpool.txt	LTP142	ltpFR	17	15	0	THREAD	1460	n/a	n/a	1	n/a	n/a	n/a	n/a	n/a
2831.718	n/a	REC_WORD	1415859	wordpools/wasnorm_wordpool.txt	LTP142	ltpFR	17	15	0	HAY	693	n/a	n/a	0	n/a	n/a	n/a	n/a	n/a
2850.112	n/a	REC_WORD	1425056	wordpools/wasnorm_wordpool.txt	LTP142	ltpFR	17	15	0	GROCERY	664	n/a	n/a	1	n/a	n/a	n/a	n/a	n/a
2892.972	n/a	WORD	1446486	wordpools/wasnorm_wordpool.txt	LTP142	ltpFR	17	16	1	CHEST	295	n/a	n/a	0	0.422607421875	0.5869140625	0	lower	zerothre.ttf
2896.788	n/a	WORD	1448394	wordpools/wasnorm_wordpool.txt	LTP142	ltpFR	17	16	1	SERGEANT	1269	n/a	n/a	1	0.422607421875	0.5869140625	0	lower	zerothre.ttf
2900.846	n/a	WORD	1450423	wordpools/wasnorm_wordpool.txt	LTP142	ltpFR	17	16	1	COUNTY	389	n/a	n/a	0	0.422607421875	0.5869140625	0	lower	zerothre.ttf
2904.718	n/a	WORD	1452359	wordpools/wasnorm_wordpool.txt	LTP142	ltpFR	17	16	1	PIGEON	1065	n/a	n/a	1	0.422607421875	0.5869140625	0	lower	zerothre.ttf
2908.876	n/a	WORD	1454438	wordpools/wasnorm_wordpool.txt	LTP142	ltpFR	17	16	1	CABINET	212	n/a	n/a	1	0.422607421875	0.5869140625	0	lower	zerothre.ttf
2913.008	n/a	WORD	1456504	wordpools/wasnorm_wordpool.txt	LTP142	ltpFR	17	16	1	ANTLER	29	n/a	n/a	0	0.422607421875	0.5869140625	0	lower	zerothre.ttf
2917.032	n/a	WORD	1458516	wordpools/wasnorm_wordpool.txt	LTP142	ltpFR	17	16	1	SPOON	1357	n/a	n/a	0	0.422607421875	0.5869140625	0	lower	zerothre.ttf
2920.93	n/a	WORD	1460465	wordpools/wasnorm_wordpool.txt	LTP142	ltpFR	17	16	1	BUTTER	205	n/a	n/a	0	0.422607421875	0.5869140625	0	lower	zerothre.ttf
2924.804	n/a	WORD	1462402	wordpools/wasnorm_wordpool.txt	LTP142	ltpFR	17	16	1	BISCUIT	130	n/a	n/a	1	0.422607421875	0.5869140625	0	lower	zerothre.ttf
2929.002	n/a	WORD	1464501	wordpools/wasnorm_wordpool.txt	LTP142	ltpFR	17	16	1	SPATULA	1348	n/a	n/a	0	0.422607421875	0.5869140625	0	lower	zerothre.ttf
2933.06	n/a	WORD	1466530	wordpools/wasnorm_wordpool.txt	LTP142	ltpFR	17	16	1	COTTAGE	384	n/a	n/a	0	0.422607421875	0.5869140625	0	lower	zerothre.ttf
2936.934	n/a	WORD	1468467	wordpools/wasnorm_wordpool.txt	LTP142	ltpFR	17	16	1	BUILDER	190	n/a	n/a	1	0.422607421875	0.5869140625	0	lower	zerothre.ttf
2940.932	n/a	WORD	1470466	wordpools/wasnorm_wordpool.txt	LTP142	ltpFR	17	16	1	CANARY	227	n/a	n/a	1	0.422607421875	0.5869140625	0	lower	zerothre.ttf
2945.006	n/a	WORD	1472503	wordpools/wasnorm_wordpool.txt	LTP142	ltpFR	17	16	1	ROOST	1208	n/a	n/a	1	0.422607421875	0.5869140625	0	lower	zerothre.ttf
2948.838	n/a	WORD	1474419	wordpools/wasnorm_wordpool.txt	LTP142	ltpFR	17	16	1	RAKE	1164	n/a	n/a	0	0.422607421875	0.5869140625	0	lower	zerothre.ttf
2952.862	n/a	WORD	1476431	wordpools/wasnorm_wordpool.txt	LTP142	ltpFR	17	16	1	MOOSE	915	n/a	n/a	1	0.422607421875	0.5869140625	0	lower	zerothre.ttf
2958.762	n/a	REC_START	1479381	n/a	LTP142	ltpFR	17	16	n/a	n/a	n/a	n/a	n/a	n/a	n/a	n/a	n/a	n/a	n/a
2959.454	n/a	REC_WORD	1479727	wordpools/wasnorm_wordpool.txt	LTP142	ltpFR	17	16	1	ROOST	1208	n/a	n/a	1	n/a	n/a	n/a	n/a	n/a
2960.548	n/a	REC_WORD	1480274	wordpools/wasnorm_wordpool.txt	LTP142	ltpFR	17	16	1	MOOSE	915	n/a	n/a	1	n/a	n/a	n/a	n/a	n/a
2962.204	n/a	REC_WORD	1481102	wordpools/wasnorm_wordpool.txt	LTP142	ltpFR	17	16	1	CANARY	227	n/a	n/a	1	n/a	n/a	n/a	n/a	n/a
2963.42	n/a	REC_WORD	1481710	wordpools/wasnorm_wordpool.txt	LTP142	ltpFR	17	16	1	BUILDER	190	n/a	n/a	1	n/a	n/a	n/a	n/a	n/a
2971.828	n/a	REC_WORD	1485914	wordpools/wasnorm_wordpool.txt	LTP142	ltpFR	17	16	1	CHEST	295	n/a	n/a	0	n/a	n/a	n/a	n/a	n/a
2976.052	n/a	REC_WORD	1488026	wordpools/wasnorm_wordpool.txt	LTP142	ltpFR	17	16	1	SERGEANT	1269	n/a	n/a	1	n/a	n/a	n/a	n/a	n/a
2982.214	n/a	REC_WORD	1491107	wordpools/wasnorm_wordpool.txt	LTP142	ltpFR	17	16	1	ANTLER	29	n/a	n/a	0	n/a	n/a	n/a	n/a	n/a
3024.62	n/a	REC_WORD	1512310	wordpools/wasnorm_wordpool.txt	LTP142	ltpFR	17	16	0	MARKET	871	n/a	n/a	1	n/a	n/a	n/a	n/a	n/a
3031.246	n/a	REC_WORD	1515623	wordpools/wasnorm_wordpool.txt	LTP142	ltpFR	17	16	1	JET	756	n/a	n/a	0	n/a	n/a	n/a	n/a	n/a
3065.478	n/a	REC_START	1532739	n/a	LTP142	ltpFR	17	1	n/a	n/a	n/a	n/a	n/a	n/a	n/a	n/a	n/a	n/a	n/a
3065.512	n/a	RECOG_TARGET	1532756	n/a	LTP142	ltpFR	17	1	0	ICE	730	1	5	0	n/a	n/a	n/a	n/a	n/a
3066.368	n/a	RECOG_RESP	1533184	n/a	LTP142	ltpFR	17	1	0	ICE	730	1	n/a	0	n/a	n/a	n/a	n/a	n/a
3067.806	n/a	RECOG_CONF	1533903	n/a	LTP142	ltpFR	17	1	0	ICE	730	n/a	5	0	n/a	n/a	n/a	n/a	n/a
3069.286	n/a	RECOG_TARGET	1534643	n/a	LTP142	ltpFR	17	1	-1	SPONGE	1355	1	5	-1	n/a	n/a	n/a	n/a	n/a
3069.976	n/a	RECOG_RESP	1534988	n/a	LTP142	ltpFR	17	1	-1	SPONGE	1355	1	n/a	-1	n/a	n/a	n/a	n/a	n/a
3070.82	n/a	RECOG_CONF	1535410	n/a	LTP142	ltpFR	17	1	-1	SPONGE	1355	n/a	5	-1	n/a	n/a	n/a	n/a	n/a
3072.176	n/a	RECOG_TARGET	1536088	n/a	LTP142	ltpFR	17	1	0	HOSTESS	723	0	5	1	n/a	n/a	n/a	n/a	n/a
3073.114	n/a	RECOG_RESP	1536557	n/a	LTP142	ltpFR	17	1	0	HOSTESS	723	0	n/a	1	n/a	n/a	n/a	n/a	n/a
3073.934	n/a	RECOG_CONF	1536967	n/a	LTP142	ltpFR	17	1	0	HOSTESS	723	n/a	5	1	n/a	n/a	n/a	n/a	n/a
3075.158	n/a	RECOG_TARGET	1537579	n/a	LTP142	ltpFR	17	1	1	CAT	257	1	5	1	n/a	n/a	n/a	n/a	n/a
3075.978	n/a	RECOG_RESP	1537989	n/a	LTP142	ltpFR	17	1	1	CAT	257	1	n/a	1	n/a	n/a	n/a	n/a	n/a
3076.772	n/a	RECOG_CONF	1538386	n/a	LTP142	ltpFR	17	1	1	CAT	257	n/a	5	1	n/a	n/a	n/a	n/a	n/a
3078.05	n/a	RECOG_TARGET	1539025	n/a	LTP142	ltpFR	17	1	0	COMMITTEE	355	1	5	1	n/a	n/a	n/a	n/a	n/a
3078.74	n/a	RECOG_RESP	1539370	n/a	LTP142	ltpFR	17	1	0	COMMITTEE	355	1	n/a	1	n/a	n/a	n/a	n/a	n/a
3079.444	n/a	RECOG_CONF	1539722	n/a	LTP142	ltpFR	17	1	0	COMMITTEE	355	n/a	5	1	n/a	n/a	n/a	n/a	n/a
3080.756	n/a	RECOG_TARGET	1540378	n/a	LTP142	ltpFR	17	1	1	CLAW	319	1	5	0	n/a	n/a	n/a	n/a	n/a
3081.184	n/a	RECOG_RESP	1540592	n/a	LTP142	ltpFR	17	1	1	CLAW	319	1	n/a	0	n/a	n/a	n/a	n/a	n/a
3082.174	n/a	RECOG_CONF	1541087	n/a	LTP142	ltpFR	17	1	1	CLAW	319	n/a	5	0	n/a	n/a	n/a	n/a	n/a
3083.398	n/a	RECOG_LURE	1541699	n/a	LTP142	ltpFR	17	1	n/a	SACK	1220	1	1	n/a	n/a	n/a	n/a	n/a	n/a
3084.246	n/a	RECOG_RESP	1542123	n/a	LTP142	ltpFR	17	1	n/a	SACK	1220	1	n/a	n/a	n/a	n/a	n/a	n/a	n/a
3085.036	n/a	RECOG_CONF	1542518	n/a	LTP142	ltpFR	17	1	n/a	SACK	1220	n/a	1	n/a	n/a	n/a	n/a	n/a	n/a
3086.23	n/a	RECOG_LURE	1543115	n/a	LTP142	ltpFR	17	1	n/a	WARDROBE	1587	0	1	n/a	n/a	n/a	n/a	n/a	n/a
3087.112	n/a	RECOG_RESP	1543556	n/a	LTP142	ltpFR	17	1	n/a	WARDROBE	1587	0	n/a	n/a	n/a	n/a	n/a	n/a	n/a
3087.784	n/a	RECOG_CONF	1543892	n/a	LTP142	ltpFR	17	1	n/a	WARDROBE	1587	n/a	1	n/a	n/a	n/a	n/a	n/a	n/a
3089.214	n/a	RECOG_TARGET	1544607	n/a	LTP142	ltpFR	17	1	0	THREAD	1460	1	1	1	n/a	n/a	n/a	n/a	n/a
3090.15	n/a	RECOG_RESP	1545075	n/a	LTP142	ltpFR	17	1	0	THREAD	1460	1	n/a	1	n/a	n/a	n/a	n/a	n/a
3091.058	n/a	RECOG_CONF	1545529	n/a	LTP142	ltpFR	17	1	0	THREAD	1460	n/a	1	1	n/a	n/a	n/a	n/a	n/a
3092.552	n/a	RECOG_TARGET	1546276	n/a	LTP142	ltpFR	17	1	0	DECK	443	1	4	1	n/a	n/a	n/a	n/a	n/a
3093.376	n/a	RECOG_RESP	1546688	n/a	LTP142	ltpFR	17	1	0	DECK	443	1	n/a	1	n/a	n/a	n/a	n/a	n/a
3094.2	n/a	RECOG_CONF	1547100	n/a	LTP142	ltpFR	17	1	0	DECK	443	n/a	4	1	n/a	n/a	n/a	n/a	n/a
3095.468	n/a	RECOG_TARGET	1547734	n/a	LTP142	ltpFR	17	1	1	DELINQUENT	445	1	5	1	n/a	n/a	n/a	n/a	n/a
3096.214	n/a	RECOG_RESP	1548107	n/a	LTP142	ltpFR	17	1	1	DELINQUENT	445	1	n/a	1	n/a	n/a	n/a	n/a	n/a
3097.03	n/a	RECOG_CONF	1548515	n/a	LTP142	ltpFR	17	1	1	DELINQUENT	445	n/a	5	1	n/a	n/a	n/a	n/a	n/a
3098.376	n/a	RECOG_LURE	1549188	n/a	LTP142	ltpFR	17	1	n/a	EGG	518	1	1	n/a	n/a	n/a	n/a	n/a	n/a
3099.27	n/a	RECOG_RESP	1549635	n/a	LTP142	ltpFR	17	1	n/a	EGG	518	1	n/a	n/a	n/a	n/a	n/a	n/a	n/a
3100.006	n/a	RECOG_CONF	1550003	n/a	LTP142	ltpFR	17	1	n/a	EGG	518	n/a	1	n/a	n/a	n/a	n/a	n/a	n/a
3101.21	n/a	RECOG_TARGET	1550605	n/a	LTP142	ltpFR	17	1	1	NICOTINE	951	1	5	0	n/a	n/a	n/a	n/a	n/a
3101.818	n/a	RECOG_RESP	1550909	n/a	LTP142	ltpFR	17	1	1	NICOTINE	951	1	n/a	0	n/a	n/a	n/a	n/a	n/a
3102.596	n/a	RECOG_CONF	1551298	n/a	LTP142	ltpFR	17	1	1	NICOTINE	951	n/a	5	0	n/a	n/a	n/a	n/a	n/a
3103.908	n/a	RECOG_TARGET	1551954	n/a	LTP142	ltpFR	17	1	1	STALLION	1369	1	5	1	n/a	n/a	n/a	n/a	n/a
3104.652	n/a	RECOG_RESP	1552326	n/a	LTP142	ltpFR	17	1	1	STALLION	1369	1	n/a	1	n/a	n/a	n/a	n/a	n/a
3105.464	n/a	RECOG_CONF	1552732	n/a	LTP142	ltpFR	17	1	1	STALLION	1369	n/a	5	1	n/a	n/a	n/a	n/a	n/a
3106.832	n/a	RECOG_TARGET	1553416	n/a	LTP142	ltpFR	17	1	0	BUG	187	1	5	0	n/a	n/a	n/a	n/a	n/a
3107.512	n/a	RECOG_RESP	1553756	n/a	LTP142	ltpFR	17	1	0	BUG	187	1	n/a	0	n/a	n/a	n/a	n/a	n/a
3108.548	n/a	RECOG_CONF	1554274	n/a	LTP142	ltpFR	17	1	0	BUG	187	n/a	5	0	n/a	n/a	n/a	n/a	n/a
3109.89	n/a	RECOG_TARGET	1554945	n/a	LTP142	ltpFR	17	1	-1	CELERY	266	1	5	-1	n/a	n/a	n/a	n/a	n/a
3110.448	n/a	RECOG_RESP	1555224	n/a	LTP142	ltpFR	17	1	-1	CELERY	266	1	n/a	-1	n/a	n/a	n/a	n/a	n/a
3111.262	n/a	RECOG_CONF	1555631	n/a	LTP142	ltpFR	17	1	-1	CELERY	266	n/a	5	-1	n/a	n/a	n/a	n/a	n/a
3112.572	n/a	RECOG_LURE	1556286	n/a	LTP142	ltpFR	17	1	n/a	TIE	1466	1	1	n/a	n/a	n/a	n/a	n/a	n/a
3113.578	n/a	RECOG_RESP	1556789	n/a	LTP142	ltpFR	17	1	n/a	TIE	1466	1	n/a	n/a	n/a	n/a	n/a	n/a	n/a
3114.288	n/a	RECOG_CONF	1557144	n/a	LTP142	ltpFR	17	1	n/a	TIE	1466	n/a	1	n/a	n/a	n/a	n/a	n/a	n/a
3115.446	n/a	RECOG_TARGET	1557723	n/a	LTP142	ltpFR	17	1	1	RIBBON	1189	1	2	0	n/a	n/a	n/a	n/a	n/a
3116.37	n/a	RECOG_RESP	1558185	n/a	LTP142	ltpFR	17	1	1	RIBBON	1189	1	n/a	0	n/a	n/a	n/a	n/a	n/a
3117.144	n/a	RECOG_CONF	1558572	n/a	LTP142	ltpFR	17	1	1	RIBBON	1189	n/a	2	0	n/a	n/a	n/a	n/a	n/a
3118.42	n/a	RECOG_TARGET	1559210	n/a	LTP142	ltpFR	17	1	1	WINGS	1614	1	5	0	n/a	n/a	n/a	n/a	n/a
3119.124	n/a	RECOG_RESP	1559562	n/a	LTP142	ltpFR	17	1	1	WINGS	1614	1	n/a	0	n/a	n/a	n/a	n/a	n/a
3119.912	n/a	RECOG_CONF	1559956	n/a	LTP142	ltpFR	17	1	1	WINGS	1614	n/a	5	0	n/a	n/a	n/a	n/a	n/a
3121.22	n/a	RECOG_LURE	1560610	n/a	LTP142	ltpFR	17	1	n/a	ENGINEER	536	0	2	n/a	n/a	n/a	n/a	n/a	n/a
3122.25	n/a	RECOG_RESP	1561125	n/a	LTP142	ltpFR	17	1	n/a	ENGINEER	536	0	n/a	n/a	n/a	n/a	n/a	n/a	n/a
3122.954	n/a	RECOG_CONF	1561477	n/a	LTP142	ltpFR	17	1	n/a	ENGINEER	536	n/a	2	n/a	n/a	n/a	n/a	n/a	n/a
3126.204	n/a	REC_START	1563102	n/a	LTP142	ltpFR	17	2	n/a	n/a	n/a	n/a	n/a	n/a	n/a	n/a	n/a	n/a	n/a
3126.236	n/a	RECOG_TARGET	1563118	n/a	LTP142	ltpFR	17	2	1	LIVER	833	1	5	0	n/a	n/a	n/a	n/a	n/a
3126.858	n/a	RECOG_RESP	1563429	n/a	LTP142	ltpFR	17	2	1	LIVER	833	1	n/a	0	n/a	n/a	n/a	n/a	n/a
3127.616	n/a	RECOG_CONF	1563808	n/a	LTP142	ltpFR	17	2	1	LIVER	833	n/a	5	0	n/a	n/a	n/a	n/a	n/a
3128.892	n/a	RECOG_LURE	1564446	n/a	LTP142	ltpFR	17	2	n/a	DAISY	435	1	1	n/a	n/a	n/a	n/a	n/a	n/a
3129.572	n/a	RECOG_RESP	1564786	n/a	LTP142	ltpFR	17	2	n/a	DAISY	435	1	n/a	n/a	n/a	n/a	n/a	n/a	n/a
3130.696	n/a	RECOG_CONF	1565348	n/a	LTP142	ltpFR	17	2	n/a	DAISY	435	n/a	1	n/a	n/a	n/a	n/a	n/a	n/a
3132.05	n/a	RECOG_TARGET	1566025	n/a	LTP142	ltpFR	17	2	1	BANNER	85	1	5	0	n/a	n/a	n/a	n/a	n/a
3132.814	n/a	RECOG_RESP	1566407	n/a	LTP142	ltpFR	17	2	1	BANNER	85	1	n/a	0	n/a	n/a	n/a	n/a	n/a
3133.562	n/a	RECOG_CONF	1566781	n/a	LTP142	ltpFR	17	2	1	BANNER	85	n/a	5	0	n/a	n/a	n/a	n/a	n/a
3134.832	n/a	RECOG_TARGET	1567416	n/a	LTP142	ltpFR	17	2	-1	SKILLET	1317	1	5	-1	n/a	n/a	n/a	n/a	n/a
3135.694	n/a	RECOG_RESP	1567847	n/a	LTP142	ltpFR	17	2	-1	SKILLET	1317	1	n/a	-1	n/a	n/a	n/a	n/a	n/a
3136.298	n/a	RECOG_CONF	1568149	n/a	LTP142	ltpFR	17	2	-1	SKILLET	1317	n/a	5	-1	n/a	n/a	n/a	n/a	n/a
3137.656	n/a	RECOG_TARGET	1568828	n/a	LTP142	ltpFR	17	2	0	HAND	683	0	1	1	n/a	n/a	n/a	n/a	n/a
3139.176	n/a	RECOG_RESP	1569588	n/a	LTP142	ltpFR	17	2	0	HAND	683	0	n/a	1	n/a	n/a	n/a	n/a	n/a
3140.018	n/a	RECOG_CONF	1570009	n/a	LTP142	ltpFR	17	2	0	HAND	683	n/a	1	1	n/a	n/a	n/a	n/a	n/a
3141.398	n/a	RECOG_LURE	1570699	n/a	LTP142	ltpFR	17	2	n/a	MARROW	872	0	5	n/a	n/a	n/a	n/a	n/a	n/a
3142.142	n/a	RECOG_RESP	1571071	n/a	LTP142	ltpFR	17	2	n/a	MARROW	872	0	n/a	n/a	n/a	n/a	n/a	n/a	n/a
3142.768	n/a	RECOG_CONF	1571384	n/a	LTP142	ltpFR	17	2	n/a	MARROW	872	n/a	5	n/a	n/a	n/a	n/a	n/a	n/a
3144.172	n/a	RECOG_TARGET	1572086	n/a	LTP142	ltpFR	17	2	0	CHESS	294	1	5	0	n/a	n/a	n/a	n/a	n/a
3144.89	n/a	RECOG_RESP	1572445	n/a	LTP142	ltpFR	17	2	0	CHESS	294	1	n/a	0	n/a	n/a	n/a	n/a	n/a
3145.522	n/a	RECOG_CONF	1572761	n/a	LTP142	ltpFR	17	2	0	CHESS	294	n/a	5	0	n/a	n/a	n/a	n/a	n/a
3146.878	n/a	RECOG_TARGET	1573439	n/a	LTP142	ltpFR	17	2	0	BUNNY	198	1	5	1	n/a	n/a	n/a	n/a	n/a
3147.59	n/a	RECOG_RESP	1573795	n/a	LTP142	ltpFR	17	2	0	BUNNY	198	1	n/a	1	n/a	n/a	n/a	n/a	n/a
3148.27	n/a	RECOG_CONF	1574135	n/a	LTP142	ltpFR	17	2	0	BUNNY	198	n/a	5	1	n/a	n/a	n/a	n/a	n/a
3149.536	n/a	RECOG_TARGET	1574768	n/a	LTP142	ltpFR	17	2	1	BLACKBOARD	133	1	5	0	n/a	n/a	n/a	n/a	n/a
3150.22	n/a	RECOG_RESP	1575110	n/a	LTP142	ltpFR	17	2	1	BLACKBOARD	133	1	n/a	0	n/a	n/a	n/a	n/a	n/a
3150.848	n/a	RECOG_CONF	1575424	n/a	LTP142	ltpFR	17	2	1	BLACKBOARD	133	n/a	5	0	n/a	n/a	n/a	n/a	n/a
3152.176	n/a	RECOG_TARGET	1576088	n/a	LTP142	ltpFR	17	2	0	TELEVISION	1447	1	5	1	n/a	n/a	n/a	n/a	n/a
3152.818	n/a	RECOG_RESP	1576409	n/a	LTP142	ltpFR	17	2	0	TELEVISION	1447	1	n/a	1	n/a	n/a	n/a	n/a	n/a
3153.44	n/a	RECOG_CONF	1576720	n/a	LTP142	ltpFR	17	2	0	TELEVISION	1447	n/a	5	1	n/a	n/a	n/a	n/a	n/a
3154.742	n/a	RECOG_TARGET	1577371	n/a	LTP142	ltpFR	17	2	1	BUTTER	205	1	5	0	n/a	n/a	n/a	n/a	n/a
3155.398	n/a	RECOG_RESP	1577699	n/a	LTP142	ltpFR	17	2	1	BUTTER	205	1	n/a	0	n/a	n/a	n/a	n/a	n/a
3156.054	n/a	RECOG_CONF	1578027	n/a	LTP142	ltpFR	17	2	1	BUTTER	205	n/a	5	0	n/a	n/a	n/a	n/a	n/a
3157.36	n/a	RECOG_LURE	1578680	n/a	LTP142	ltpFR	17	2	n/a	COMPASS	358	0	2	n/a	n/a	n/a	n/a	n/a	n/a
3158.156	n/a	RECOG_RESP	1579078	n/a	LTP142	ltpFR	17	2	n/a	COMPASS	358	0	n/a	n/a	n/a	n/a	n/a	n/a	n/a
3158.8	n/a	RECOG_CONF	1579400	n/a	LTP142	ltpFR	17	2	n/a	COMPASS	358	n/a	2	n/a	n/a	n/a	n/a	n/a	n/a
3160.108	n/a	RECOG_TARGET	1580054	n/a	LTP142	ltpFR	17	2	0	BRUNETTE	181	1	5	1	n/a	n/a	n/a	n/a	n/a
3160.746	n/a	RECOG_RESP	1580373	n/a	LTP142	ltpFR	17	2	0	BRUNETTE	181	1	n/a	1	n/a	n/a	n/a	n/a	n/a
3161.42	n/a	RECOG_CONF	1580710	n/a	LTP142	ltpFR	17	2	0	BRUNETTE	181	n/a	5	1	n/a	n/a	n/a	n/a	n/a
3162.774	n/a	RECOG_TARGET	1581387	n/a	LTP142	ltpFR	17	2	0	CLERK	321	1	5	1	n/a	n/a	n/a	n/a	n/a
3163.366	n/a	RECOG_RESP	1581683	n/a	LTP142	ltpFR	17	2	0	CLERK	321	1	n/a	1	n/a	n/a	n/a	n/a	n/a
3164.066	n/a	RECOG_CONF	1582033	n/a	LTP142	ltpFR	17	2	0	CLERK	321	n/a	5	1	n/a	n/a	n/a	n/a	n/a
3165.29	n/a	RECOG_TARGET	1582645	n/a	LTP142	ltpFR	17	2	0	FOOT	590	0	5	1	n/a	n/a	n/a	n/a	n/a
3165.974	n/a	RECOG_RESP	1582987	n/a	LTP142	ltpFR	17	2	0	FOOT	590	0	n/a	1	n/a	n/a	n/a	n/a	n/a
3166.554	n/a	RECOG_CONF	1583277	n/a	LTP142	ltpFR	17	2	0	FOOT	590	n/a	5	1	n/a	n/a	n/a	n/a	n/a
3167.722	n/a	RECOG_TARGET	1583861	n/a	LTP142	ltpFR	17	2	1	DRINK	498	1	1	0	n/a	n/a	n/a	n/a	n/a
3168.624	n/a	RECOG_RESP_VV	1584312	n/a	LTP142	ltpFR	17	2	1	DRINK	498	0	n/a	0	n/a	n/a	n/a	n/a	n/a
3169.54	n/a	RECOG_RESP	1584770	n/a	LTP142	ltpFR	17	2	1	DRINK	498	1	n/a	0	n/a	n/a	n/a	n/a	n/a
3170.348	n/a	RECOG_CONF	1585174	n/a	LTP142	ltpFR	17	2	1	DRINK	498	n/a	1	0	n/a	n/a	n/a	n/a	n/a
3171.67	n/a	RECOG_TARGET	1585835	n/a	LTP142	ltpFR	17	2	1	ARTIST	43	1	5	1	n/a	n/a	n/a	n/a	n/a
3172.394	n/a	RECOG_RESP	1586197	n/a	LTP142	ltpFR	17	2	1	ARTIST	43	1	n/a	1	n/a	n/a	n/a	n/a	n/a
3173.052	n/a	RECOG_CONF	1586526	n/a	LTP142	ltpFR	17	2	1	ARTIST	43	n/a	5	1	n/a	n/a	n/a	n/a	n/a
3174.436	n/a	RECOG_TARGET	1587218	n/a	LTP142	ltpFR	17	2	0	MASK	876	1	5	0	n/a	n/a	n/a	n/a	n/a
3175.134	n/a	RECOG_RESP	1587567	n/a	LTP142	ltpFR	17	2	0	MASK	876	1	n/a	0	n/a	n/a	n/a	n/a	n/a
3176.148	n/a	RECOG_CONF	1588074	n/a	LTP142	ltpFR	17	2	0	MASK	876	n/a	5	0	n/a	n/a	n/a	n/a	n/a
3177.628	n/a	RECOG_LURE	1588814	n/a	LTP142	ltpFR	17	2	n/a	SHOVEL	1295	0	1	n/a	n/a	n/a	n/a	n/a	n/a
3179.14	n/a	RECOG_RESP	1589570	n/a	LTP142	ltpFR	17	2	n/a	SHOVEL	1295	0	n/a	n/a	n/a	n/a	n/a	n/a	n/a
3179.756	n/a	RECOG_CONF	1589878	n/a	LTP142	ltpFR	17	2	n/a	SHOVEL	1295	n/a	1	n/a	n/a	n/a	n/a	n/a	n/a
3181.102	n/a	RECOG_TARGET	1590551	n/a	LTP142	ltpFR	17	2	1	GARDEN	623	1	5	0	n/a	n/a	n/a	n/a	n/a
3181.714	n/a	RECOG_RESP	1590857	n/a	LTP142	ltpFR	17	2	1	GARDEN	623	1	n/a	0	n/a	n/a	n/a	n/a	n/a
3182.354	n/a	RECOG_CONF	1591177	n/a	LTP142	ltpFR	17	2	1	GARDEN	623	n/a	5	0	n/a	n/a	n/a	n/a	n/a
3184.988	n/a	REC_START	1592494	n/a	LTP142	ltpFR	17	3	n/a	n/a	n/a	n/a	n/a	n/a	n/a	n/a	n/a	n/a	n/a
3185.026	n/a	RECOG_TARGET	1592513	n/a	LTP142	ltpFR	17	3	1	EDITORIAL	517	1	5	0	n/a	n/a	n/a	n/a	n/a
3185.596	n/a	RECOG_RESP	1592798	n/a	LTP142	ltpFR	17	3	1	EDITORIAL	517	1	n/a	0	n/a	n/a	n/a	n/a	n/a
3186.344	n/a	RECOG_CONF	1593172	n/a	LTP142	ltpFR	17	3	1	EDITORIAL	517	n/a	5	0	n/a	n/a	n/a	n/a	n/a
3187.766	n/a	RECOG_LURE	1593883	n/a	LTP142	ltpFR	17	3	n/a	DICTIONARY	463	0	5	n/a	n/a	n/a	n/a	n/a	n/a
3189.094	n/a	RECOG_RESP	1594547	n/a	LTP142	ltpFR	17	3	n/a	DICTIONARY	463	0	n/a	n/a	n/a	n/a	n/a	n/a	n/a
3189.624	n/a	RECOG_CONF	1594812	n/a	LTP142	ltpFR	17	3	n/a	DICTIONARY	463	n/a	5	n/a	n/a	n/a	n/a	n/a	n/a
3191.09	n/a	RECOG_TARGET	1595545	n/a	LTP142	ltpFR	17	3	1	STEAM	1375	1	5	0	n/a	n/a	n/a	n/a	n/a
3191.67	n/a	RECOG_RESP	1595835	n/a	LTP142	ltpFR	17	3	1	STEAM	1375	1	n/a	0	n/a	n/a	n/a	n/a	n/a
3192.318	n/a	RECOG_CONF	1596159	n/a	LTP142	ltpFR	17	3	1	STEAM	1375	n/a	5	0	n/a	n/a	n/a	n/a	n/a
3193.73	n/a	RECOG_TARGET	1596865	n/a	LTP142	ltpFR	17	3	-1	SALAD	1224	1	5	-1	n/a	n/a	n/a	n/a	n/a
3194.324	n/a	RECOG_RESP	1597162	n/a	LTP142	ltpFR	17	3	-1	SALAD	1224	1	n/a	-1	n/a	n/a	n/a	n/a	n/a
3194.964	n/a	RECOG_CONF	1597482	n/a	LTP142	ltpFR	17	3	-1	SALAD	1224	n/a	5	-1	n/a	n/a	n/a	n/a	n/a
3196.306	n/a	RECOG_LURE	1598153	n/a	LTP142	ltpFR	17	3	n/a	EWE	542	0	5	n/a	n/a	n/a	n/a	n/a	n/a
3197.01	n/a	RECOG_RESP	1598505	n/a	LTP142	ltpFR	17	3	n/a	EWE	542	0	n/a	n/a	n/a	n/a	n/a	n/a	n/a
3197.666	n/a	RECOG_CONF	1598833	n/a	LTP142	ltpFR	17	3	n/a	EWE	542	n/a	5	n/a	n/a	n/a	n/a	n/a	n/a
3199.022	n/a	RECOG_TARGET	1599511	n/a	LTP142	ltpFR	17	3	1	CART	250	1	5	0	n/a	n/a	n/a	n/a	n/a
3199.762	n/a	RECOG_RESP	1599881	n/a	LTP142	ltpFR	17	3	1	CART	250	1	n/a	0	n/a	n/a	n/a	n/a	n/a
3200.486	n/a	RECOG_CONF	1600243	n/a	LTP142	ltpFR	17	3	1	CART	250	n/a	5	0	n/a	n/a	n/a	n/a	n/a
3201.746	n/a	RECOG_TARGET	1600873	n/a	LTP142	ltpFR	17	3	-1	CLASS	318	1	1	-1	n/a	n/a	n/a	n/a	n/a
3202.644	n/a	RECOG_RESP	1601322	n/a	LTP142	ltpFR	17	3	-1	CLASS	318	1	n/a	-1	n/a	n/a	n/a	n/a	n/a
3203.398	n/a	RECOG_CONF	1601699	n/a	LTP142	ltpFR	17	3	-1	CLASS	318	n/a	1	-1	n/a	n/a	n/a	n/a	n/a
3204.636	n/a	RECOG_LURE	1602318	n/a	LTP142	ltpFR	17	3	n/a	GRIZZLY	662	0	5	n/a	n/a	n/a	n/a	n/a	n/a
3205.31	n/a	RECOG_RESP	1602655	n/a	LTP142	ltpFR	17	3	n/a	GRIZZLY	662	0	n/a	n/a	n/a	n/a	n/a	n/a	n/a
3205.886	n/a	RECOG_CONF	1602943	n/a	LTP142	ltpFR	17	3	n/a	GRIZZLY	662	n/a	5	n/a	n/a	n/a	n/a	n/a	n/a
3207.252	n/a	RECOG_LURE	1603626	n/a	LTP142	ltpFR	17	3	n/a	FIST	572	0	5	n/a	n/a	n/a	n/a	n/a	n/a
3208.062	n/a	RECOG_RESP	1604031	n/a	LTP142	ltpFR	17	3	n/a	FIST	572	0	n/a	n/a	n/a	n/a	n/a	n/a	n/a
3208.82	n/a	RECOG_CONF	1604410	n/a	LTP142	ltpFR	17	3	n/a	FIST	572	n/a	5	n/a	n/a	n/a	n/a	n/a	n/a
3210.192	n/a	RECOG_TARGET	1605096	n/a	LTP142	ltpFR	17	3	1	CURB	426	1	4	0	n/a	n/a	n/a	n/a	n/a
3210.842	n/a	RECOG_RESP	1605421	n/a	LTP142	ltpFR	17	3	1	CURB	426	1	n/a	0	n/a	n/a	n/a	n/a	n/a
3211.506	n/a	RECOG_CONF	1605753	n/a	LTP142	ltpFR	17	3	1	CURB	426	n/a	4	0	n/a	n/a	n/a	n/a	n/a
3212.884	n/a	RECOG_TARGET	1606442	n/a	LTP142	ltpFR	17	3	1	CITRUS	313	1	2	0	n/a	n/a	n/a	n/a	n/a
3213.512	n/a	RECOG_RESP	1606756	n/a	LTP142	ltpFR	17	3	1	CITRUS	313	1	n/a	0	n/a	n/a	n/a	n/a	n/a
3214.278	n/a	RECOG_CONF	1607139	n/a	LTP142	ltpFR	17	3	1	CITRUS	313	n/a	2	0	n/a	n/a	n/a	n/a	n/a
3215.566	n/a	RECOG_TARGET	1607783	n/a	LTP142	ltpFR	17	3	-1	COMET	353	1	5	-1	n/a	n/a	n/a	n/a	n/a
3216.204	n/a	RECOG_RESP	1608102	n/a	LTP142	ltpFR	17	3	-1	COMET	353	1	n/a	-1	n/a	n/a	n/a	n/a	n/a
3216.85	n/a	RECOG_CONF	1608425	n/a	LTP142	ltpFR	17	3	-1	COMET	353	n/a	5	-1	n/a	n/a	n/a	n/a	n/a
3218.166	n/a	RECOG_TARGET	1609083	n/a	LTP142	ltpFR	17	3	1	SHELL	1281	1	5	0	n/a	n/a	n/a	n/a	n/a
3218.922	n/a	RECOG_RESP	1609461	n/a	LTP142	ltpFR	17	3	1	SHELL	1281	1	n/a	0	n/a	n/a	n/a	n/a	n/a
3219.564	n/a	RECOG_CONF	1609782	n/a	LTP142	ltpFR	17	3	1	SHELL	1281	n/a	5	0	n/a	n/a	n/a	n/a	n/a
3220.882	n/a	RECOG_TARGET	1610441	n/a	LTP142	ltpFR	17	3	-1	QUAIL	1147	1	5	-1	n/a	n/a	n/a	n/a	n/a
3221.47	n/a	RECOG_RESP	1610735	n/a	LTP142	ltpFR	17	3	-1	QUAIL	1147	1	n/a	-1	n/a	n/a	n/a	n/a	n/a
3222.116	n/a	RECOG_CONF	1611058	n/a	LTP142	ltpFR	17	3	-1	QUAIL	1147	n/a	5	-1	n/a	n/a	n/a	n/a	n/a
3223.446	n/a	RECOG_TARGET	1611723	n/a	LTP142	ltpFR	17	3	1	COUNTY	389	1	5	0	n/a	n/a	n/a	n/a	n/a
3224.022	n/a	RECOG_RESP	1612011	n/a	LTP142	ltpFR	17	3	1	COUNTY	389	1	n/a	0	n/a	n/a	n/a	n/a	n/a
3224.836	n/a	RECOG_CONF	1612418	n/a	LTP142	ltpFR	17	3	1	COUNTY	389	n/a	5	0	n/a	n/a	n/a	n/a	n/a
3226.188	n/a	RECOG_LURE	1613094	n/a	LTP142	ltpFR	17	3	n/a	THIMBLE	1458	1	5	n/a	n/a	n/a	n/a	n/a	n/a
3227.338	n/a	RECOG_RESP	1613669	n/a	LTP142	ltpFR	17	3	n/a	THIMBLE	1458	1	n/a	n/a	n/a	n/a	n/a	n/a	n/a
3228.058	n/a	RECOG_CONF	1614029	n/a	LTP142	ltpFR	17	3	n/a	THIMBLE	1458	n/a	5	n/a	n/a	n/a	n/a	n/a	n/a
3229.404	n/a	RECOG_TARGET	1614702	n/a	LTP142	ltpFR	17	3	-1	MOSS	918	1	5	-1	n/a	n/a	n/a	n/a	n/a
3230.128	n/a	RECOG_RESP	1615064	n/a	LTP142	ltpFR	17	3	-1	MOSS	918	1	n/a	-1	n/a	n/a	n/a	n/a	n/a
3230.82	n/a	RECOG_CONF	1615410	n/a	LTP142	ltpFR	17	3	-1	MOSS	918	n/a	5	-1	n/a	n/a	n/a	n/a	n/a
3232.152	n/a	RECOG_TARGET	1616076	n/a	LTP142	ltpFR	17	3	-1	WAVE	1596	1	5	-1	n/a	n/a	n/a	n/a	n/a
3233.222	n/a	RECOG_RESP	1616611	n/a	LTP142	ltpFR	17	3	-1	WAVE	1596	1	n/a	-1	n/a	n/a	n/a	n/a	n/a
3233.83	n/a	RECOG_CONF	1616915	n/a	LTP142	ltpFR	17	3	-1	WAVE	1596	n/a	5	-1	n/a	n/a	n/a	n/a	n/a
3235.244	n/a	RECOG_TARGET	1617622	n/a	LTP142	ltpFR	17	3	1	SERGEANT	1269	1	5	1	n/a	n/a	n/a	n/a	n/a
3235.84	n/a	RECOG_RESP	1617920	n/a	LTP142	ltpFR	17	3	1	SERGEANT	1269	1	n/a	1	n/a	n/a	n/a	n/a	n/a
3236.59	n/a	RECOG_CONF	1618295	n/a	LTP142	ltpFR	17	3	1	SERGEANT	1269	n/a	5	1	n/a	n/a	n/a	n/a	n/a
3238.292	n/a	RECOG_TARGET	1619146	n/a	LTP142	ltpFR	17	3	1	NEST	945	1	5	0	n/a	n/a	n/a	n/a	n/a
3238.928	n/a	RECOG_RESP	1619464	n/a	LTP142	ltpFR	17	3	1	NEST	945	1	n/a	0	n/a	n/a	n/a	n/a	n/a
3239.58	n/a	RECOG_CONF	1619790	n/a	LTP142	ltpFR	17	3	1	NEST	945	n/a	5	0	n/a	n/a	n/a	n/a	n/a
3242.53	n/a	REC_START	1621265	n/a	LTP142	ltpFR	17	4	n/a	n/a	n/a	n/a	n/a	n/a	n/a	n/a	n/a	n/a	n/a
3242.566	n/a	RECOG_TARGET	1621283	n/a	LTP142	ltpFR	17	4	0	MOSQUITO	917	1	5	0	n/a	n/a	n/a	n/a	n/a
3243.232	n/a	RECOG_RESP	1621616	n/a	LTP142	ltpFR	17	4	0	MOSQUITO	917	1	n/a	0	n/a	n/a	n/a	n/a	n/a
3243.972	n/a	RECOG_CONF	1621986	n/a	LTP142	ltpFR	17	4	0	MOSQUITO	917	n/a	5	0	n/a	n/a	n/a	n/a	n/a
3245.332	n/a	RECOG_LURE	1622666	n/a	LTP142	ltpFR	17	4	n/a	PIRATE	1074	0	5	n/a	n/a	n/a	n/a	n/a	n/a
3246.042	n/a	RECOG_RESP	1623021	n/a	LTP142	ltpFR	17	4	n/a	PIRATE	1074	0	n/a	n/a	n/a	n/a	n/a	n/a	n/a
3246.77	n/a	RECOG_CONF	1623385	n/a	LTP142	ltpFR	17	4	n/a	PIRATE	1074	n/a	5	n/a	n/a	n/a	n/a	n/a	n/a
3248.056	n/a	RECOG_TARGET	1624028	n/a	LTP142	ltpFR	17	4	-1	BLUEJAY	141	1	2	-1	n/a	n/a	n/a	n/a	n/a
3248.82	n/a	RECOG_RESP	1624410	n/a	LTP142	ltpFR	17	4	-1	BLUEJAY	141	1	n/a	-1	n/a	n/a	n/a	n/a	n/a
3249.668	n/a	RECOG_CONF	1624834	n/a	LTP142	ltpFR	17	4	-1	BLUEJAY	141	n/a	2	-1	n/a	n/a	n/a	n/a	n/a
3251.056	n/a	RECOG_LURE	1625528	n/a	LTP142	ltpFR	17	4	n/a	HAMMER	680	1	1	n/a	n/a	n/a	n/a	n/a	n/a
3251.664	n/a	RECOG_RESP	1625832	n/a	LTP142	ltpFR	17	4	n/a	HAMMER	680	1	n/a	n/a	n/a	n/a	n/a	n/a	n/a
3252.696	n/a	RECOG_CONF	1626348	n/a	LTP142	ltpFR	17	4	n/a	HAMMER	680	n/a	1	n/a	n/a	n/a	n/a	n/a	n/a
3254.08	n/a	RECOG_TARGET	1627040	n/a	LTP142	ltpFR	17	4	-1	PAPER	1011	0	5	-1	n/a	n/a	n/a	n/a	n/a
3255.264	n/a	RECOG_RESP	1627632	n/a	LTP142	ltpFR	17	4	-1	PAPER	1011	0	n/a	-1	n/a	n/a	n/a	n/a	n/a
3255.974	n/a	RECOG_CONF	1627987	n/a	LTP142	ltpFR	17	4	-1	PAPER	1011	n/a	5	-1	n/a	n/a	n/a	n/a	n/a
3257.354	n/a	RECOG_TARGET	1628677	n/a	LTP142	ltpFR	17	4	0	HUT	729	0	3	1	n/a	n/a	n/a	n/a	n/a
3258.072	n/a	RECOG_RESP	1629036	n/a	LTP142	ltpFR	17	4	0	HUT	729	0	n/a	1	n/a	n/a	n/a	n/a	n/a
3258.732	n/a	RECOG_CONF	1629366	n/a	LTP142	ltpFR	17	4	0	HUT	729	n/a	3	1	n/a	n/a	n/a	n/a	n/a
3260.036	n/a	RECOG_TARGET	1630018	n/a	LTP142	ltpFR	17	4	0	VILLAGE	1566	1	5	1	n/a	n/a	n/a	n/a	n/a
3260.824	n/a	RECOG_RESP	1630412	n/a	LTP142	ltpFR	17	4	0	VILLAGE	1566	1	n/a	1	n/a	n/a	n/a	n/a	n/a
3261.494	n/a	RECOG_CONF	1630747	n/a	LTP142	ltpFR	17	4	0	VILLAGE	1566	n/a	5	1	n/a	n/a	n/a	n/a	n/a
3262.786	n/a	RECOG_LURE	1631393	n/a	LTP142	ltpFR	17	4	n/a	POSTAGE	1113	0	2	n/a	n/a	n/a	n/a	n/a	n/a
3263.624	n/a	RECOG_RESP	1631812	n/a	LTP142	ltpFR	17	4	n/a	POSTAGE	1113	0	n/a	n/a	n/a	n/a	n/a	n/a	n/a
3264.296	n/a	RECOG_CONF	1632148	n/a	LTP142	ltpFR	17	4	n/a	POSTAGE	1113	n/a	2	n/a	n/a	n/a	n/a	n/a	n/a
3265.6	n/a	RECOG_TARGET	1632800	n/a	LTP142	ltpFR	17	4	1	ROBIN	1199	1	5	1	n/a	n/a	n/a	n/a	n/a
3266.316	n/a	RECOG_RESP	1633158	n/a	LTP142	ltpFR	17	4	1	ROBIN	1199	1	n/a	1	n/a	n/a	n/a	n/a	n/a
3266.99	n/a	RECOG_CONF	1633495	n/a	LTP142	ltpFR	17	4	1	ROBIN	1199	n/a	5	1	n/a	n/a	n/a	n/a	n/a
3268.234	n/a	RECOG_LURE	1634117	n/a	LTP142	ltpFR	17	4	n/a	SHEEP	1278	0	1	n/a	n/a	n/a	n/a	n/a	n/a
3269.29	n/a	RECOG_RESP	1634645	n/a	LTP142	ltpFR	17	4	n/a	SHEEP	1278	0	n/a	n/a	n/a	n/a	n/a	n/a	n/a
3269.922	n/a	RECOG_CONF	1634961	n/a	LTP142	ltpFR	17	4	n/a	SHEEP	1278	n/a	1	n/a	n/a	n/a	n/a	n/a	n/a
3271.208	n/a	RECOG_TARGET	1635604	n/a	LTP142	ltpFR	17	4	0	SUGAR	1401	1	5	0	n/a	n/a	n/a	n/a	n/a
3271.892	n/a	RECOG_RESP	1635946	n/a	LTP142	ltpFR	17	4	0	SUGAR	1401	1	n/a	0	n/a	n/a	n/a	n/a	n/a
3272.606	n/a	RECOG_CONF	1636303	n/a	LTP142	ltpFR	17	4	0	SUGAR	1401	n/a	5	0	n/a	n/a	n/a	n/a	n/a
3273.94	n/a	RECOG_TARGET	1636970	n/a	LTP142	ltpFR	17	4	0	FRUIT	610	1	1	0	n/a	n/a	n/a	n/a	n/a
3274.692	n/a	RECOG_RESP	1637346	n/a	LTP142	ltpFR	17	4	0	FRUIT	610	1	n/a	0	n/a	n/a	n/a	n/a	n/a
3275.408	n/a	RECOG_CONF	1637704	n/a	LTP142	ltpFR	17	4	0	FRUIT	610	n/a	1	0	n/a	n/a	n/a	n/a	n/a
3276.79	n/a	RECOG_TARGET	1638395	n/a	LTP142	ltpFR	17	4	1	PARENT	1013	1	5	1	n/a	n/a	n/a	n/a	n/a
3277.436	n/a	RECOG_RESP	1638718	n/a	LTP142	ltpFR	17	4	1	PARENT	1013	1	n/a	1	n/a	n/a	n/a	n/a	n/a
3278.12	n/a	RECOG_CONF	1639060	n/a	LTP142	ltpFR	17	4	1	PARENT	1013	n/a	5	1	n/a	n/a	n/a	n/a	n/a
3279.43	n/a	RECOG_TARGET	1639715	n/a	LTP142	ltpFR	17	4	0	KID	775	1	5	1	n/a	n/a	n/a	n/a	n/a
3280.16	n/a	RECOG_RESP	1640080	n/a	LTP142	ltpFR	17	4	0	KID	775	1	n/a	1	n/a	n/a	n/a	n/a	n/a
3280.796	n/a	RECOG_CONF	1640398	n/a	LTP142	ltpFR	17	4	0	KID	775	n/a	5	1	n/a	n/a	n/a	n/a	n/a
3282.08	n/a	RECOG_LURE	1641040	n/a	LTP142	ltpFR	17	4	n/a	NOTE	958	0	2	n/a	n/a	n/a	n/a	n/a	n/a
3282.772	n/a	RECOG_RESP	1641386	n/a	LTP142	ltpFR	17	4	n/a	NOTE	958	0	n/a	n/a	n/a	n/a	n/a	n/a	n/a
3283.386	n/a	RECOG_CONF	1641693	n/a	LTP142	ltpFR	17	4	n/a	NOTE	958	n/a	2	n/a	n/a	n/a	n/a	n/a	n/a
3284.604	n/a	RECOG_TARGET	1642302	n/a	LTP142	ltpFR	17	4	0	WRIST	1626	1	5	0	n/a	n/a	n/a	n/a	n/a
3285.148	n/a	RECOG_RESP	1642574	n/a	LTP142	ltpFR	17	4	0	WRIST	1626	1	n/a	0	n/a	n/a	n/a	n/a	n/a
3285.828	n/a	RECOG_CONF	1642914	n/a	LTP142	ltpFR	17	4	0	WRIST	1626	n/a	5	0	n/a	n/a	n/a	n/a	n/a
3287.152	n/a	RECOG_TARGET	1643576	n/a	LTP142	ltpFR	17	4	0	CONTRACTOR	369	1	5	1	n/a	n/a	n/a	n/a	n/a
3287.778	n/a	RECOG_RESP	1643889	n/a	LTP142	ltpFR	17	4	0	CONTRACTOR	369	1	n/a	1	n/a	n/a	n/a	n/a	n/a
3288.58	n/a	RECOG_CONF	1644290	n/a	LTP142	ltpFR	17	4	0	CONTRACTOR	369	n/a	5	1	n/a	n/a	n/a	n/a	n/a
3290.036	n/a	RECOG_TARGET	1645018	n/a	LTP142	ltpFR	17	4	1	CHEST	295	1	5	0	n/a	n/a	n/a	n/a	n/a
3290.546	n/a	RECOG_RESP	1645273	n/a	LTP142	ltpFR	17	4	1	CHEST	295	1	n/a	0	n/a	n/a	n/a	n/a	n/a
3291.218	n/a	RECOG_CONF	1645609	n/a	LTP142	ltpFR	17	4	1	CHEST	295	n/a	5	0	n/a	n/a	n/a	n/a	n/a
3292.834	n/a	RECOG_TARGET	1646417	n/a	LTP142	ltpFR	17	4	-1	WORKER	1621	0	2	-1	n/a	n/a	n/a	n/a	n/a
3293.824	n/a	RECOG_RESP	1646912	n/a	LTP142	ltpFR	17	4	-1	WORKER	1621	0	n/a	-1	n/a	n/a	n/a	n/a	n/a
3294.484	n/a	RECOG_CONF	1647242	n/a	LTP142	ltpFR	17	4	-1	WORKER	1621	n/a	2	-1	n/a	n/a	n/a	n/a	n/a
3295.768	n/a	RECOG_TARGET	1647884	n/a	LTP142	ltpFR	17	4	0	SNORKEL	1336	1	5	0	n/a	n/a	n/a	n/a	n/a
3296.27	n/a	RECOG_RESP	1648135	n/a	LTP142	ltpFR	17	4	0	SNORKEL	1336	1	n/a	0	n/a	n/a	n/a	n/a	n/a
3296.952	n/a	RECOG_CONF	1648476	n/a	LTP142	ltpFR	17	4	0	SNORKEL	1336	n/a	5	0	n/a	n/a	n/a	n/a	n/a
3299.784	n/a	REC_START	1649892	n/a	LTP142	ltpFR	17	5	n/a	n/a	n/a	n/a	n/a	n/a	n/a	n/a	n/a	n/a	n/a
3299.816	n/a	RECOG_TARGET	1649908	n/a	LTP142	ltpFR	17	5	-1	KNOB	787	1	1	-1	n/a	n/a	n/a	n/a	n/a
3300.516	n/a	RECOG_RESP	1650258	n/a	LTP142	ltpFR	17	5	-1	KNOB	787	1	n/a	-1	n/a	n/a	n/a	n/a	n/a
3301.21	n/a	RECOG_CONF	1650605	n/a	LTP142	ltpFR	17	5	-1	KNOB	787	n/a	1	-1	n/a	n/a	n/a	n/a	n/a
3302.464	n/a	RECOG_LURE	1651232	n/a	LTP142	ltpFR	17	5	n/a	KITTEN	780	0	5	n/a	n/a	n/a	n/a	n/a	n/a
3303.14	n/a	RECOG_RESP_VV	1651570	n/a	LTP142	ltpFR	17	5	n/a	KITTEN	780	1	n/a	n/a	n/a	n/a	n/a	n/a	n/a
3303.834	n/a	RECOG_RESP	1651917	n/a	LTP142	ltpFR	17	5	n/a	KITTEN	780	0	n/a	n/a	n/a	n/a	n/a	n/a	n/a
3304.598	n/a	RECOG_CONF	1652299	n/a	LTP142	ltpFR	17	5	n/a	KITTEN	780	n/a	5	n/a	n/a	n/a	n/a	n/a	n/a
3305.946	n/a	RECOG_TARGET	1652973	n/a	LTP142	ltpFR	17	5	0	PIN	1072	1	5	0	n/a	n/a	n/a	n/a	n/a
3306.748	n/a	RECOG_RESP	1653374	n/a	LTP142	ltpFR	17	5	0	PIN	1072	1	n/a	0	n/a	n/a	n/a	n/a	n/a
3307.496	n/a	RECOG_CONF	1653748	n/a	LTP142	ltpFR	17	5	0	PIN	1072	n/a	5	0	n/a	n/a	n/a	n/a	n/a
3308.83	n/a	RECOG_TARGET	1654415	n/a	LTP142	ltpFR	17	5	-1	POCKET	1093	0	1	-1	n/a	n/a	n/a	n/a	n/a
3309.778	n/a	RECOG_RESP	1654889	n/a	LTP142	ltpFR	17	5	-1	POCKET	1093	0	n/a	-1	n/a	n/a	n/a	n/a	n/a
3310.382	n/a	RECOG_CONF	1655191	n/a	LTP142	ltpFR	17	5	-1	POCKET	1093	n/a	1	-1	n/a	n/a	n/a	n/a	n/a
3311.696	n/a	RECOG_TARGET	1655848	n/a	LTP142	ltpFR	17	5	0	FRIAR	605	1	5	1	n/a	n/a	n/a	n/a	n/a
3312.416	n/a	RECOG_RESP	1656208	n/a	LTP142	ltpFR	17	5	0	FRIAR	605	1	n/a	1	n/a	n/a	n/a	n/a	n/a
3313.04	n/a	RECOG_CONF	1656520	n/a	LTP142	ltpFR	17	5	0	FRIAR	605	n/a	5	1	n/a	n/a	n/a	n/a	n/a
3314.244	n/a	RECOG_TARGET	1657122	n/a	LTP142	ltpFR	17	5	-1	SCHOOL	1248	1	2	-1	n/a	n/a	n/a	n/a	n/a
3315.444	n/a	RECOG_RESP	1657722	n/a	LTP142	ltpFR	17	5	-1	SCHOOL	1248	1	n/a	-1	n/a	n/a	n/a	n/a	n/a
3316.106	n/a	RECOG_CONF	1658053	n/a	LTP142	ltpFR	17	5	-1	SCHOOL	1248	n/a	2	-1	n/a	n/a	n/a	n/a	n/a
3317.444	n/a	RECOG_TARGET	1658722	n/a	LTP142	ltpFR	17	5	-1	MOON	914	0	3	-1	n/a	n/a	n/a	n/a	n/a
3318.216	n/a	RECOG_RESP	1659108	n/a	LTP142	ltpFR	17	5	-1	MOON	914	0	n/a	-1	n/a	n/a	n/a	n/a	n/a
3318.898	n/a	RECOG_CONF	1659449	n/a	LTP142	ltpFR	17	5	-1	MOON	914	n/a	3	-1	n/a	n/a	n/a	n/a	n/a
3320.21	n/a	RECOG_TARGET	1660105	n/a	LTP142	ltpFR	17	5	0	FIREPLACE	570	1	5	1	n/a	n/a	n/a	n/a	n/a
3320.84	n/a	RECOG_RESP	1660420	n/a	LTP142	ltpFR	17	5	0	FIREPLACE	570	1	n/a	1	n/a	n/a	n/a	n/a	n/a
3321.52	n/a	RECOG_CONF	1660760	n/a	LTP142	ltpFR	17	5	0	FIREPLACE	570	n/a	5	1	n/a	n/a	n/a	n/a	n/a
3322.892	n/a	RECOG_TARGET	1661446	n/a	LTP142	ltpFR	17	5	1	MICROWAVE	892	1	5	0	n/a	n/a	n/a	n/a	n/a
3323.556	n/a	RECOG_RESP	1661778	n/a	LTP142	ltpFR	17	5	1	MICROWAVE	892	1	n/a	0	n/a	n/a	n/a	n/a	n/a
3324.258	n/a	RECOG_CONF	1662129	n/a	LTP142	ltpFR	17	5	1	MICROWAVE	892	n/a	5	0	n/a	n/a	n/a	n/a	n/a
3325.582	n/a	RECOG_TARGET	1662791	n/a	LTP142	ltpFR	17	5	1	TROUT	1511	1	5	1	n/a	n/a	n/a	n/a	n/a
3326.156	n/a	RECOG_RESP	1663078	n/a	LTP142	ltpFR	17	5	1	TROUT	1511	1	n/a	1	n/a	n/a	n/a	n/a	n/a
3326.834	n/a	RECOG_CONF	1663417	n/a	LTP142	ltpFR	17	5	1	TROUT	1511	n/a	5	1	n/a	n/a	n/a	n/a	n/a
3328.258	n/a	RECOG_TARGET	1664129	n/a	LTP142	ltpFR	17	5	1	EMPLOYER	532	1	2	1	n/a	n/a	n/a	n/a	n/a
3328.946	n/a	RECOG_RESP	1664473	n/a	LTP142	ltpFR	17	5	1	EMPLOYER	532	1	n/a	1	n/a	n/a	n/a	n/a	n/a
3329.64	n/a	RECOG_CONF	1664820	n/a	LTP142	ltpFR	17	5	1	EMPLOYER	532	n/a	2	1	n/a	n/a	n/a	n/a	n/a
3331.098	n/a	RECOG_TARGET	1665549	n/a	LTP142	ltpFR	17	5	1	INMATE	738	1	5	1	n/a	n/a	n/a	n/a	n/a
3331.78	n/a	RECOG_RESP	1665890	n/a	LTP142	ltpFR	17	5	1	INMATE	738	1	n/a	1	n/a	n/a	n/a	n/a	n/a
3332.404	n/a	RECOG_CONF	1666202	n/a	LTP142	ltpFR	17	5	1	INMATE	738	n/a	5	1	n/a	n/a	n/a	n/a	n/a
3333.73	n/a	RECOG_TARGET	1666865	n/a	LTP142	ltpFR	17	5	0	UNICORN	1538	1	5	1	n/a	n/a	n/a	n/a	n/a
3334.346	n/a	RECOG_RESP	1667173	n/a	LTP142	ltpFR	17	5	0	UNICORN	1538	1	n/a	1	n/a	n/a	n/a	n/a	n/a
3335.026	n/a	RECOG_CONF	1667513	n/a	LTP142	ltpFR	17	5	0	UNICORN	1538	n/a	5	1	n/a	n/a	n/a	n/a	n/a
3336.346	n/a	RECOG_TARGET	1668173	n/a	LTP142	ltpFR	17	5	-1	MOWER	928	1	5	-1	n/a	n/a	n/a	n/a	n/a
3336.904	n/a	RECOG_RESP	1668452	n/a	LTP142	ltpFR	17	5	-1	MOWER	928	1	n/a	-1	n/a	n/a	n/a	n/a	n/a
3337.586	n/a	RECOG_CONF	1668793	n/a	LTP142	ltpFR	17	5	-1	MOWER	928	n/a	5	-1	n/a	n/a	n/a	n/a	n/a
3338.912	n/a	RECOG_TARGET	1669456	n/a	LTP142	ltpFR	17	5	0	TREAD	1499	1	5	0	n/a	n/a	n/a	n/a	n/a
3339.81	n/a	RECOG_RESP	1669905	n/a	LTP142	ltpFR	17	5	0	TREAD	1499	1	n/a	0	n/a	n/a	n/a	n/a	n/a
3340.52	n/a	RECOG_CONF	1670260	n/a	LTP142	ltpFR	17	5	0	TREAD	1499	n/a	5	0	n/a	n/a	n/a	n/a	n/a
3341.836	n/a	RECOG_TARGET	1670918	n/a	LTP142	ltpFR	17	5	-1	PUBLISHER	1137	0	2	-1	n/a	n/a	n/a	n/a	n/a
3342.662	n/a	RECOG_RESP	1671331	n/a	LTP142	ltpFR	17	5	-1	PUBLISHER	1137	0	n/a	-1	n/a	n/a	n/a	n/a	n/a
3343.416	n/a	RECOG_CONF	1671708	n/a	LTP142	ltpFR	17	5	-1	PUBLISHER	1137	n/a	2	-1	n/a	n/a	n/a	n/a	n/a
3344.726	n/a	RECOG_LURE	1672363	n/a	LTP142	ltpFR	17	5	n/a	ACTOR	5	1	1	n/a	n/a	n/a	n/a	n/a	n/a
3345.43	n/a	RECOG_RESP	1672715	n/a	LTP142	ltpFR	17	5	n/a	ACTOR	5	1	n/a	n/a	n/a	n/a	n/a	n/a	n/a
3346.182	n/a	RECOG_CONF	1673091	n/a	LTP142	ltpFR	17	5	n/a	ACTOR	5	n/a	1	n/a	n/a	n/a	n/a	n/a	n/a
3347.386	n/a	RECOG_TARGET	1673693	n/a	LTP142	ltpFR	17	5	1	BISCUIT	130	1	5	1	n/a	n/a	n/a	n/a	n/a
3348.132	n/a	RECOG_RESP	1674066	n/a	LTP142	ltpFR	17	5	1	BISCUIT	130	1	n/a	1	n/a	n/a	n/a	n/a	n/a
3348.764	n/a	RECOG_CONF	1674382	n/a	LTP142	ltpFR	17	5	1	BISCUIT	130	n/a	5	1	n/a	n/a	n/a	n/a	n/a
3350.16	n/a	RECOG_TARGET	1675080	n/a	LTP142	ltpFR	17	5	0	HARE	688	1	5	1	n/a	n/a	n/a	n/a	n/a
3350.748	n/a	RECOG_RESP	1675374	n/a	LTP142	ltpFR	17	5	0	HARE	688	1	n/a	1	n/a	n/a	n/a	n/a	n/a
3351.476	n/a	RECOG_CONF	1675738	n/a	LTP142	ltpFR	17	5	0	HARE	688	n/a	5	1	n/a	n/a	n/a	n/a	n/a
3352.808	n/a	RECOG_TARGET	1676404	n/a	LTP142	ltpFR	17	5	1	OWNER	993	1	5	1	n/a	n/a	n/a	n/a	n/a
3353.842	n/a	RECOG_RESP	1676921	n/a	LTP142	ltpFR	17	5	1	OWNER	993	1	n/a	1	n/a	n/a	n/a	n/a	n/a
3354.48	n/a	RECOG_CONF	1677240	n/a	LTP142	ltpFR	17	5	1	OWNER	993	n/a	5	1	n/a	n/a	n/a	n/a	n/a
3357.274	n/a	REC_START	1678637	n/a	LTP142	ltpFR	17	6	n/a	n/a	n/a	n/a	n/a	n/a	n/a	n/a	n/a	n/a	n/a
3357.306	n/a	RECOG_LURE	1678653	n/a	LTP142	ltpFR	17	6	n/a	DIRECTOR	471	0	1	n/a	n/a	n/a	n/a	n/a	n/a
3358.448	n/a	RECOG_RESP	1679224	n/a	LTP142	ltpFR	17	6	n/a	DIRECTOR	471	0	n/a	n/a	n/a	n/a	n/a	n/a	n/a
3359.174	n/a	RECOG_CONF	1679587	n/a	LTP142	ltpFR	17	6	n/a	DIRECTOR	471	n/a	1	n/a	n/a	n/a	n/a	n/a	n/a
3360.48	n/a	RECOG_TARGET	1680240	n/a	LTP142	ltpFR	17	6	0	DIRT	472	1	5	0	n/a	n/a	n/a	n/a	n/a
3361.168	n/a	RECOG_RESP	1680584	n/a	LTP142	ltpFR	17	6	0	DIRT	472	1	n/a	0	n/a	n/a	n/a	n/a	n/a
3361.774	n/a	RECOG_CONF	1680887	n/a	LTP142	ltpFR	17	6	0	DIRT	472	n/a	5	0	n/a	n/a	n/a	n/a	n/a
3363.08	n/a	RECOG_TARGET	1681540	n/a	LTP142	ltpFR	17	6	0	BUREAU	199	1	5	1	n/a	n/a	n/a	n/a	n/a
3363.676	n/a	RECOG_RESP	1681838	n/a	LTP142	ltpFR	17	6	0	BUREAU	199	1	n/a	1	n/a	n/a	n/a	n/a	n/a
3364.392	n/a	RECOG_CONF	1682196	n/a	LTP142	ltpFR	17	6	0	BUREAU	199	n/a	5	1	n/a	n/a	n/a	n/a	n/a
3365.688	n/a	RECOG_TARGET	1682844	n/a	LTP142	ltpFR	17	6	0	SPIDER	1351	1	5	1	n/a	n/a	n/a	n/a	n/a
3366.246	n/a	RECOG_RESP	1683123	n/a	LTP142	ltpFR	17	6	0	SPIDER	1351	1	n/a	1	n/a	n/a	n/a	n/a	n/a
3366.86	n/a	RECOG_CONF	1683430	n/a	LTP142	ltpFR	17	6	0	SPIDER	1351	n/a	5	1	n/a	n/a	n/a	n/a	n/a
3368.228	n/a	RECOG_LURE	1684114	n/a	LTP142	ltpFR	17	6	n/a	ASTRONAUT	51	0	2	n/a	n/a	n/a	n/a	n/a	n/a
3369.026	n/a	RECOG_RESP	1684513	n/a	LTP142	ltpFR	17	6	n/a	ASTRONAUT	51	0	n/a	n/a	n/a	n/a	n/a	n/a	n/a
3369.654	n/a	RECOG_CONF	1684827	n/a	LTP142	ltpFR	17	6	n/a	ASTRONAUT	51	n/a	2	n/a	n/a	n/a	n/a	n/a	n/a
3370.96	n/a	RECOG_TARGET	1685480	n/a	LTP142	ltpFR	17	6	-1	PERSONNEL	1053	1	5	-1	n/a	n/a	n/a	n/a	n/a
3371.562	n/a	RECOG_RESP	1685781	n/a	LTP142	ltpFR	17	6	-1	PERSONNEL	1053	1	n/a	-1	n/a	n/a	n/a	n/a	n/a
3372.28	n/a	RECOG_CONF	1686140	n/a	LTP142	ltpFR	17	6	-1	PERSONNEL	1053	n/a	5	-1	n/a	n/a	n/a	n/a	n/a
3373.518	n/a	RECOG_LURE	1686759	n/a	LTP142	ltpFR	17	6	n/a	FRIEND	606	0	1	n/a	n/a	n/a	n/a	n/a	n/a
3374.654	n/a	RECOG_RESP	1687327	n/a	LTP142	ltpFR	17	6	n/a	FRIEND	606	0	n/a	n/a	n/a	n/a	n/a	n/a	n/a
3375.182	n/a	RECOG_CONF	1687591	n/a	LTP142	ltpFR	17	6	n/a	FRIEND	606	n/a	1	n/a	n/a	n/a	n/a	n/a	n/a
3376.534	n/a	RECOG_TARGET	1688267	n/a	LTP142	ltpFR	17	6	0	CABLE	213	1	5	0	n/a	n/a	n/a	n/a	n/a
3377.356	n/a	RECOG_RESP	1688678	n/a	LTP142	ltpFR	17	6	0	CABLE	213	1	n/a	0	n/a	n/a	n/a	n/a	n/a
3378.03	n/a	RECOG_CONF	1689015	n/a	LTP142	ltpFR	17	6	0	CABLE	213	n/a	5	0	n/a	n/a	n/a	n/a	n/a
3379.35	n/a	RECOG_TARGET	1689675	n/a	LTP142	ltpFR	17	6	1	CANARY	227	1	5	1	n/a	n/a	n/a	n/a	n/a
3379.92	n/a	RECOG_RESP	1689960	n/a	LTP142	ltpFR	17	6	1	CANARY	227	1	n/a	1	n/a	n/a	n/a	n/a	n/a
3380.608	n/a	RECOG_CONF	1690304	n/a	LTP142	ltpFR	17	6	1	CANARY	227	n/a	5	1	n/a	n/a	n/a	n/a	n/a
3381.966	n/a	RECOG_LURE	1690983	n/a	LTP142	ltpFR	17	6	n/a	GERM	632	0	5	n/a	n/a	n/a	n/a	n/a	n/a
3382.724	n/a	RECOG_RESP	1691362	n/a	LTP142	ltpFR	17	6	n/a	GERM	632	0	n/a	n/a	n/a	n/a	n/a	n/a	n/a
3383.33	n/a	RECOG_CONF	1691665	n/a	LTP142	ltpFR	17	6	n/a	GERM	632	n/a	5	n/a	n/a	n/a	n/a	n/a	n/a
3384.682	n/a	RECOG_TARGET	1692341	n/a	LTP142	ltpFR	17	6	1	TROUSERS	1510	1	5	0	n/a	n/a	n/a	n/a	n/a
3385.368	n/a	RECOG_RESP	1692684	n/a	LTP142	ltpFR	17	6	1	TROUSERS	1510	1	n/a	0	n/a	n/a	n/a	n/a	n/a
3386.09	n/a	RECOG_CONF	1693045	n/a	LTP142	ltpFR	17	6	1	TROUSERS	1510	n/a	5	0	n/a	n/a	n/a	n/a	n/a
3387.398	n/a	RECOG_TARGET	1693699	n/a	LTP142	ltpFR	17	6	1	PIG	1064	1	1	1	n/a	n/a	n/a	n/a	n/a
3388.004	n/a	RECOG_RESP	1694002	n/a	LTP142	ltpFR	17	6	1	PIG	1064	1	n/a	1	n/a	n/a	n/a	n/a	n/a
3388.74	n/a	RECOG_CONF	1694370	n/a	LTP142	ltpFR	17	6	1	PIG	1064	n/a	1	1	n/a	n/a	n/a	n/a	n/a
3390.022	n/a	RECOG_TARGET	1695011	n/a	LTP142	ltpFR	17	6	1	CACTUS	215	1	5	1	n/a	n/a	n/a	n/a	n/a
3390.566	n/a	RECOG_RESP	1695283	n/a	LTP142	ltpFR	17	6	1	CACTUS	215	1	n/a	1	n/a	n/a	n/a	n/a	n/a
3391.258	n/a	RECOG_CONF	1695629	n/a	LTP142	ltpFR	17	6	1	CACTUS	215	n/a	5	1	n/a	n/a	n/a	n/a	n/a
3392.586	n/a	RECOG_TARGET	1696293	n/a	LTP142	ltpFR	17	6	1	AUTHOR	61	0	5	1	n/a	n/a	n/a	n/a	n/a
3393.404	n/a	RECOG_RESP	1696702	n/a	LTP142	ltpFR	17	6	1	AUTHOR	61	0	n/a	1	n/a	n/a	n/a	n/a	n/a
3394.032	n/a	RECOG_CONF	1697016	n/a	LTP142	ltpFR	17	6	1	AUTHOR	61	n/a	5	1	n/a	n/a	n/a	n/a	n/a
3395.296	n/a	RECOG_TARGET	1697648	n/a	LTP142	ltpFR	17	6	1	CABINET	212	1	5	1	n/a	n/a	n/a	n/a	n/a
3395.918	n/a	RECOG_RESP	1697959	n/a	LTP142	ltpFR	17	6	1	CABINET	212	1	n/a	1	n/a	n/a	n/a	n/a	n/a
3396.574	n/a	RECOG_CONF	1698287	n/a	LTP142	ltpFR	17	6	1	CABINET	212	n/a	5	1	n/a	n/a	n/a	n/a	n/a
3397.994	n/a	RECOG_TARGET	1698997	n/a	LTP142	ltpFR	17	6	0	BRIEFCASE	175	1	5	0	n/a	n/a	n/a	n/a	n/a
3398.602	n/a	RECOG_RESP	1699301	n/a	LTP142	ltpFR	17	6	0	BRIEFCASE	175	1	n/a	0	n/a	n/a	n/a	n/a	n/a
3399.394	n/a	RECOG_CONF	1699697	n/a	LTP142	ltpFR	17	6	0	BRIEFCASE	175	n/a	5	0	n/a	n/a	n/a	n/a	n/a
3400.668	n/a	RECOG_TARGET	1700334	n/a	LTP142	ltpFR	17	6	-1	PARSLEY	1016	1	5	-1	n/a	n/a	n/a	n/a	n/a
3401.242	n/a	RECOG_RESP	1700621	n/a	LTP142	ltpFR	17	6	-1	PARSLEY	1016	1	n/a	-1	n/a	n/a	n/a	n/a	n/a
3401.952	n/a	RECOG_CONF	1700976	n/a	LTP142	ltpFR	17	6	-1	PARSLEY	1016	n/a	5	-1	n/a	n/a	n/a	n/a	n/a
3403.394	n/a	RECOG_TARGET	1701697	n/a	LTP142	ltpFR	17	6	1	PAINTER	1004	1	2	1	n/a	n/a	n/a	n/a	n/a
3404.04	n/a	RECOG_RESP	1702020	n/a	LTP142	ltpFR	17	6	1	PAINTER	1004	1	n/a	1	n/a	n/a	n/a	n/a	n/a
3404.742	n/a	RECOG_CONF	1702371	n/a	LTP142	ltpFR	17	6	1	PAINTER	1004	n/a	2	1	n/a	n/a	n/a	n/a	n/a
3406.158	n/a	RECOG_LURE	1703079	n/a	LTP142	ltpFR	17	6	n/a	VAN	1548	0	4	n/a	n/a	n/a	n/a	n/a	n/a
3407.07	n/a	RECOG_RESP	1703535	n/a	LTP142	ltpFR	17	6	n/a	VAN	1548	0	n/a	n/a	n/a	n/a	n/a	n/a	n/a
3407.896	n/a	RECOG_CONF	1703948	n/a	LTP142	ltpFR	17	6	n/a	VAN	1548	n/a	4	n/a	n/a	n/a	n/a	n/a	n/a
3409.242	n/a	RECOG_LURE	1704621	n/a	LTP142	ltpFR	17	6	n/a	ENGINE	535	1	1	n/a	n/a	n/a	n/a	n/a	n/a
3410.542	n/a	RECOG_RESP	1705271	n/a	LTP142	ltpFR	17	6	n/a	ENGINE	535	1	n/a	n/a	n/a	n/a	n/a	n/a	n/a
3411.298	n/a	RECOG_CONF	1705649	n/a	LTP142	ltpFR	17	6	n/a	ENGINE	535	n/a	1	n/a	n/a	n/a	n/a	n/a	n/a
3414.484	n/a	REC_START	1707242	n/a	LTP142	ltpFR	17	7	n/a	n/a	n/a	n/a	n/a	n/a	n/a	n/a	n/a	n/a	n/a
3414.514	n/a	RECOG_LURE	1707257	n/a	LTP142	ltpFR	17	7	n/a	JELLO	754	0	5	n/a	n/a	n/a	n/a	n/a	n/a
3415.29	n/a	RECOG_RESP	1707645	n/a	LTP142	ltpFR	17	7	n/a	JELLO	754	0	n/a	n/a	n/a	n/a	n/a	n/a	n/a
3416.042	n/a	RECOG_CONF	1708021	n/a	LTP142	ltpFR	17	7	n/a	JELLO	754	n/a	5	n/a	n/a	n/a	n/a	n/a	n/a
3417.38	n/a	RECOG_TARGET	1708690	n/a	LTP142	ltpFR	17	7	-1	SHEET	1279	1	5	-1	n/a	n/a	n/a	n/a	n/a
3418.16	n/a	RECOG_RESP	1709080	n/a	LTP142	ltpFR	17	7	-1	SHEET	1279	1	n/a	-1	n/a	n/a	n/a	n/a	n/a
3418.934	n/a	RECOG_CONF	1709467	n/a	LTP142	ltpFR	17	7	-1	SHEET	1279	n/a	5	-1	n/a	n/a	n/a	n/a	n/a
3420.054	n/a	RECOG_LURE	1710027	n/a	LTP142	ltpFR	17	7	n/a	SARDINE	1235	0	5	n/a	n/a	n/a	n/a	n/a	n/a
3420.774	n/a	RECOG_RESP	1710387	n/a	LTP142	ltpFR	17	7	n/a	SARDINE	1235	0	n/a	n/a	n/a	n/a	n/a	n/a	n/a
3421.356	n/a	RECOG_CONF	1710678	n/a	LTP142	ltpFR	17	7	n/a	SARDINE	1235	n/a	5	n/a	n/a	n/a	n/a	n/a	n/a
3422.896	n/a	RECOG_TARGET	1711448	n/a	LTP142	ltpFR	17	7	0	TOE	1473	1	5	0	n/a	n/a	n/a	n/a	n/a
3423.572	n/a	RECOG_RESP	1711786	n/a	LTP142	ltpFR	17	7	0	TOE	1473	1	n/a	0	n/a	n/a	n/a	n/a	n/a
3424.338	n/a	RECOG_CONF	1712169	n/a	LTP142	ltpFR	17	7	0	TOE	1473	n/a	5	0	n/a	n/a	n/a	n/a	n/a
3425.628	n/a	RECOG_TARGET	1712814	n/a	LTP142	ltpFR	17	7	1	DOCTOR	478	1	5	1	n/a	n/a	n/a	n/a	n/a
3426.492	n/a	RECOG_RESP	1713246	n/a	LTP142	ltpFR	17	7	1	DOCTOR	478	1	n/a	1	n/a	n/a	n/a	n/a	n/a
3427.108	n/a	RECOG_CONF	1713554	n/a	LTP142	ltpFR	17	7	1	DOCTOR	478	n/a	5	1	n/a	n/a	n/a	n/a	n/a
3428.394	n/a	RECOG_TARGET	1714197	n/a	LTP142	ltpFR	17	7	1	PROTON	1132	1	5	0	n/a	n/a	n/a	n/a	n/a
3429.38	n/a	RECOG_RESP	1714690	n/a	LTP142	ltpFR	17	7	1	PROTON	1132	1	n/a	0	n/a	n/a	n/a	n/a	n/a
3430.044	n/a	RECOG_CONF	1715022	n/a	LTP142	ltpFR	17	7	1	PROTON	1132	n/a	5	0	n/a	n/a	n/a	n/a	n/a
3431.466	n/a	RECOG_LURE	1715733	n/a	LTP142	ltpFR	17	7	n/a	FROST	609	1	1	n/a	n/a	n/a	n/a	n/a	n/a
3433.146	n/a	RECOG_RESP	1716573	n/a	LTP142	ltpFR	17	7	n/a	FROST	609	1	n/a	n/a	n/a	n/a	n/a	n/a	n/a
3433.75	n/a	RECOG_CONF	1716875	n/a	LTP142	ltpFR	17	7	n/a	FROST	609	n/a	1	n/a	n/a	n/a	n/a	n/a	n/a
3435.132	n/a	RECOG_TARGET	1717566	n/a	LTP142	ltpFR	17	7	1	DESSERT	453	1	5	0	n/a	n/a	n/a	n/a	n/a
3435.8	n/a	RECOG_RESP	1717900	n/a	LTP142	ltpFR	17	7	1	DESSERT	453	1	n/a	0	n/a	n/a	n/a	n/a	n/a
3436.51	n/a	RECOG_CONF	1718255	n/a	LTP142	ltpFR	17	7	1	DESSERT	453	n/a	5	0	n/a	n/a	n/a	n/a	n/a
3437.956	n/a	RECOG_TARGET	1718978	n/a	LTP142	ltpFR	17	7	1	NICKEL	950	0	1	0	n/a	n/a	n/a	n/a	n/a
3438.838	n/a	RECOG_RESP	1719419	n/a	LTP142	ltpFR	17	7	1	NICKEL	950	0	n/a	0	n/a	n/a	n/a	n/a	n/a
3439.454	n/a	RECOG_CONF	1719727	n/a	LTP142	ltpFR	17	7	1	NICKEL	950	n/a	1	0	n/a	n/a	n/a	n/a	n/a
3440.69	n/a	RECOG_LURE	1720345	n/a	LTP142	ltpFR	17	7	n/a	BILL	126	0	2	n/a	n/a	n/a	n/a	n/a	n/a
3441.498	n/a	RECOG_RESP	1720749	n/a	LTP142	ltpFR	17	7	n/a	BILL	126	0	n/a	n/a	n/a	n/a	n/a	n/a	n/a
3442.144	n/a	RECOG_CONF	1721072	n/a	LTP142	ltpFR	17	7	n/a	BILL	126	n/a	2	n/a	n/a	n/a	n/a	n/a	n/a
3443.414	n/a	RECOG_TARGET	1721707	n/a	LTP142	ltpFR	17	7	-1	LIEUTENANT	818	1	1	-1	n/a	n/a	n/a	n/a	n/a
3444.308	n/a	RECOG_RESP	1722154	n/a	LTP142	ltpFR	17	7	-1	LIEUTENANT	818	1	n/a	-1	n/a	n/a	n/a	n/a	n/a
3444.926	n/a	RECOG_CONF	1722463	n/a	LTP142	ltpFR	17	7	-1	LIEUTENANT	818	n/a	1	-1	n/a	n/a	n/a	n/a	n/a
3446.246	n/a	RECOG_LURE	1723123	n/a	LTP142	ltpFR	17	7	n/a	POTATO	1115	0	2	n/a	n/a	n/a	n/a	n/a	n/a
3447.08	n/a	RECOG_RESP	1723540	n/a	LTP142	ltpFR	17	7	n/a	POTATO	1115	0	n/a	n/a	n/a	n/a	n/a	n/a	n/a
3447.756	n/a	RECOG_CONF	1723878	n/a	LTP142	ltpFR	17	7	n/a	POTATO	1115	n/a	2	n/a	n/a	n/a	n/a	n/a	n/a
3448.978	n/a	RECOG_TARGET	1724489	n/a	LTP142	ltpFR	17	7	1	DIARY	460	1	1	0	n/a	n/a	n/a	n/a	n/a
3449.838	n/a	RECOG_RESP	1724919	n/a	LTP142	ltpFR	17	7	1	DIARY	460	1	n/a	0	n/a	n/a	n/a	n/a	n/a
3450.608	n/a	RECOG_CONF	1725304	n/a	LTP142	ltpFR	17	7	1	DIARY	460	n/a	1	0	n/a	n/a	n/a	n/a	n/a
3451.87	n/a	RECOG_TARGET	1725935	n/a	LTP142	ltpFR	17	7	1	TOWN	1491	0	1	0	n/a	n/a	n/a	n/a	n/a
3452.778	n/a	RECOG_RESP	1726389	n/a	LTP142	ltpFR	17	7	1	TOWN	1491	0	n/a	0	n/a	n/a	n/a	n/a	n/a
3453.474	n/a	RECOG_CONF	1726737	n/a	LTP142	ltpFR	17	7	1	TOWN	1491	n/a	1	0	n/a	n/a	n/a	n/a	n/a
3455.118	n/a	RECOG_TARGET	1727559	n/a	LTP142	ltpFR	17	7	1	ANGEL	22	1	5	0	n/a	n/a	n/a	n/a	n/a
3455.784	n/a	RECOG_RESP	1727892	n/a	LTP142	ltpFR	17	7	1	ANGEL	22	1	n/a	0	n/a	n/a	n/a	n/a	n/a
3456.526	n/a	RECOG_CONF	1728263	n/a	LTP142	ltpFR	17	7	1	ANGEL	22	n/a	5	0	n/a	n/a	n/a	n/a	n/a
3457.81	n/a	RECOG_LURE	1728905	n/a	LTP142	ltpFR	17	7	n/a	CARPET	247	1	5	n/a	n/a	n/a	n/a	n/a	n/a
3458.554	n/a	RECOG_RESP	1729277	n/a	LTP142	ltpFR	17	7	n/a	CARPET	247	1	n/a	n/a	n/a	n/a	n/a	n/a	n/a
3459.37	n/a	RECOG_CONF	1729685	n/a	LTP142	ltpFR	17	7	n/a	CARPET	247	n/a	5	n/a	n/a	n/a	n/a	n/a	n/a
3460.726	n/a	RECOG_TARGET	1730363	n/a	LTP142	ltpFR	17	7	-1	WOLF	1619	1	1	-1	n/a	n/a	n/a	n/a	n/a
3461.518	n/a	RECOG_RESP	1730759	n/a	LTP142	ltpFR	17	7	-1	WOLF	1619	1	n/a	-1	n/a	n/a	n/a	n/a	n/a
3462.178	n/a	RECOG_CONF	1731089	n/a	LTP142	ltpFR	17	7	-1	WOLF	1619	n/a	1	-1	n/a	n/a	n/a	n/a	n/a
3463.49	n/a	RECOG_TARGET	1731745	n/a	LTP142	ltpFR	17	7	0	ATTORNEY	58	1	5	1	n/a	n/a	n/a	n/a	n/a
3464.178	n/a	RECOG_RESP	1732089	n/a	LTP142	ltpFR	17	7	0	ATTORNEY	58	1	n/a	1	n/a	n/a	n/a	n/a	n/a
3464.818	n/a	RECOG_CONF	1732409	n/a	LTP142	ltpFR	17	7	0	ATTORNEY	58	n/a	5	1	n/a	n/a	n/a	n/a	n/a
