onset	duration	trial_type	sample	stim_file	subject	experiment	session	trial	item_name	item_num	list	answer	test_x	test_y	test_z
199.70361328125	n/a	SESS_START	408993	n/a	LTP334	ltpFR2	22	n/a	n/a	n/a	n/a	n/a	0	0	0
212.9482421875	n/a	START	436118	n/a	LTP334	ltpFR2	22	n/a	n/a	n/a	-1	n/a	n/a	n/a	n/a
212.96240234375	n/a	PROB	436147	n/a	LTP334	ltpFR2	22	n/a	n/a	n/a	-1	17	9	5	3
215.47119140625	n/a	PROB	441285	n/a	LTP334	ltpFR2	22	n/a	n/a	n/a	-1	18	1	8	9
217.06005859375	n/a	PROB	444539	n/a	LTP334	ltpFR2	22	n/a	n/a	n/a	-1	7	3	2	2
218.73095703125	n/a	PROB	447961	n/a	LTP334	ltpFR2	22	n/a	n/a	n/a	-1	21	8	5	9
220.955078125	n/a	PROB	452516	n/a	LTP334	ltpFR2	22	n/a	n/a	n/a	-1	16	6	5	5
222.22607421875	n/a	PROB	455119	n/a	LTP334	ltpFR2	22	n/a	n/a	n/a	-1	14	1	7	6
223.6357421875	n/a	STOP	458006	n/a	LTP334	ltpFR2	22	n/a	n/a	n/a	-1	n/a	n/a	n/a	n/a
250.51611328125	n/a	WORD	513057	wordpools/wasnorm_wordpool_576.txt	LTP334	ltpFR2	22	1	SPOOL	1356	n/a	n/a	0	0	0
253.14306640625	n/a	WORD	518437	wordpools/wasnorm_wordpool_576.txt	LTP334	ltpFR2	22	1	POSSUM	1112	n/a	n/a	0	0	0
255.7001953125	n/a	WORD	523674	wordpools/wasnorm_wordpool_576.txt	LTP334	ltpFR2	22	1	MARS	873	n/a	n/a	0	0	0
258.42529296875	n/a	WORD	529255	wordpools/wasnorm_wordpool_576.txt	LTP334	ltpFR2	22	1	SERVER	1272	n/a	n/a	0	0	0
261.2177734375	n/a	WORD	534974	wordpools/wasnorm_wordpool_576.txt	LTP334	ltpFR2	22	1	WAITRESS	1581	n/a	n/a	0	0	0
263.77587890625	n/a	WORD	540213	wordpools/wasnorm_wordpool_576.txt	LTP334	ltpFR2	22	1	WARDROBE	1587	n/a	n/a	0	0	0
266.41796875	n/a	WORD	545624	wordpools/wasnorm_wordpool_576.txt	LTP334	ltpFR2	22	1	LADDER	793	n/a	n/a	0	0	0
269.0439453125	n/a	WORD	551002	wordpools/wasnorm_wordpool_576.txt	LTP334	ltpFR2	22	1	LUMBER	848	n/a	n/a	0	0	0
271.73486328125	n/a	WORD	556513	wordpools/wasnorm_wordpool_576.txt	LTP334	ltpFR2	22	1	CABIN	211	n/a	n/a	0	0	0
274.49365234375	n/a	WORD	562163	wordpools/wasnorm_wordpool_576.txt	LTP334	ltpFR2	22	1	DENIM	446	n/a	n/a	0	0	0
277.11962890625	n/a	WORD	567541	wordpools/wasnorm_wordpool_576.txt	LTP334	ltpFR2	22	1	BRAKE	166	n/a	n/a	0	0	0
279.8447265625	n/a	WORD	573122	wordpools/wasnorm_wordpool_576.txt	LTP334	ltpFR2	22	1	MAMMAL	861	n/a	n/a	0	0	0
282.3525390625	n/a	WORD	578258	wordpools/wasnorm_wordpool_576.txt	LTP334	ltpFR2	22	1	FLASHLIGHT	575	n/a	n/a	0	0	0
284.92724609375	n/a	WORD	583531	wordpools/wasnorm_wordpool_576.txt	LTP334	ltpFR2	22	1	DRAGON	492	n/a	n/a	0	0	0
287.63623046875	n/a	WORD	589079	wordpools/wasnorm_wordpool_576.txt	LTP334	ltpFR2	22	1	SWIMMER	1420	n/a	n/a	0	0	0
290.09521484375	n/a	WORD	594115	wordpools/wasnorm_wordpool_576.txt	LTP334	ltpFR2	22	1	CHAMPAGNE	278	n/a	n/a	0	0	0
292.63525390625	n/a	WORD	599317	wordpools/wasnorm_wordpool_576.txt	LTP334	ltpFR2	22	1	BELLY	119	n/a	n/a	0	0	0
295.06103515625	n/a	WORD	604285	wordpools/wasnorm_wordpool_576.txt	LTP334	ltpFR2	22	1	SMOG	1330	n/a	n/a	0	0	0
297.80224609375	n/a	WORD	609899	wordpools/wasnorm_wordpool_576.txt	LTP334	ltpFR2	22	1	RECEIPT	1173	n/a	n/a	0	0	0
300.22607421875	n/a	WORD	614863	wordpools/wasnorm_wordpool_576.txt	LTP334	ltpFR2	22	1	BEAVER	109	n/a	n/a	0	0	0
302.76806640625	n/a	WORD	620069	wordpools/wasnorm_wordpool_576.txt	LTP334	ltpFR2	22	1	QUARTER	1148	n/a	n/a	0	0	0
305.47705078125	n/a	WORD	625617	wordpools/wasnorm_wordpool_576.txt	LTP334	ltpFR2	22	1	LAKE	796	n/a	n/a	0	0	0
307.98486328125	n/a	WORD	630753	wordpools/wasnorm_wordpool_576.txt	LTP334	ltpFR2	22	1	BACKBONE	66	n/a	n/a	0	0	0
310.7265625	n/a	WORD	636368	wordpools/wasnorm_wordpool_576.txt	LTP334	ltpFR2	22	1	STATUE	1374	n/a	n/a	0	0	0
312.33251953125	n/a	START	639657	n/a	LTP334	ltpFR2	22	n/a	n/a	n/a	1	n/a	n/a	n/a	n/a
313.41357421875	n/a	DISTRACTOR	641871	n/a	LTP334	ltpFR2	22	1	n/a	n/a	n/a	n/a	0	0	0
313.41845703125	n/a	PROB	641881	n/a	LTP334	ltpFR2	22	n/a	n/a	n/a	1	9	2	3	4
315.0234375	n/a	PROB	645168	n/a	LTP334	ltpFR2	22	n/a	n/a	n/a	1	11	2	1	8
316.177734375	n/a	PROB	647532	n/a	LTP334	ltpFR2	22	n/a	n/a	n/a	1	20	4	9	7
317.53173828125	n/a	PROB	650305	n/a	LTP334	ltpFR2	22	n/a	n/a	n/a	1	12	6	3	3
318.8525390625	n/a	PROB	653010	n/a	LTP334	ltpFR2	22	n/a	n/a	n/a	1	6	1	4	1
320.1904296875	n/a	PROB	655750	n/a	LTP334	ltpFR2	22	n/a	n/a	n/a	1	12	4	6	2
321.611328125	n/a	PROB	658660	n/a	LTP334	ltpFR2	22	n/a	n/a	n/a	1	9	1	6	2
322.865234375	n/a	PROB	661228	n/a	LTP334	ltpFR2	22	n/a	n/a	n/a	1	14	7	6	1
324.12109375	n/a	PROB	663800	n/a	LTP334	ltpFR2	22	n/a	n/a	n/a	1	18	4	6	8
325.45751953125	n/a	PROB	666537	n/a	LTP334	ltpFR2	22	n/a	n/a	n/a	1	13	1	6	6
326.72802734375	n/a	PROB	669139	n/a	LTP334	ltpFR2	22	n/a	n/a	n/a	1	10	1	7	2
327.982421875	n/a	PROB	671708	n/a	LTP334	ltpFR2	22	n/a	n/a	n/a	1	11	2	5	4
329.73828125	n/a	PROB	675304	n/a	LTP334	ltpFR2	22	n/a	n/a	n/a	1	16	8	5	3
332.98193359375	n/a	PROB	681947	n/a	LTP334	ltpFR2	22	n/a	n/a	n/a	1	14	4	5	5
334.21923828125	n/a	PROB	684481	n/a	LTP334	ltpFR2	22	n/a	n/a	n/a	1	12	2	4	6
335.5810546875	n/a	STOP	687270	n/a	LTP334	ltpFR2	22	n/a	n/a	n/a	1	n/a	n/a	n/a	n/a
338.26611328125	n/a	REC_START	692769	n/a	LTP334	ltpFR2	22	1	n/a	n/a	n/a	n/a	0	0	0
340.091796875	n/a	REC_WORD_VV	696508	wordpools/wasnorm_wordpool_576.txt	LTP334	ltpFR2	22	1	<>	-1	n/a	n/a	0	0	0
342.6220703125	n/a	REC_WORD	701690	wordpools/wasnorm_wordpool_576.txt	LTP334	ltpFR2	22	1	BELLY	119	n/a	n/a	0	0	0
343.06787109375	n/a	REC_WORD	702603	wordpools/wasnorm_wordpool_576.txt	LTP334	ltpFR2	22	1	CHAMPAGNE	278	n/a	n/a	0	0	0
344.06689453125	n/a	REC_WORD	704649	wordpools/wasnorm_wordpool_576.txt	LTP334	ltpFR2	22	1	LADDER	793	n/a	n/a	0	0	0
345.07958984375	n/a	REC_WORD	706723	wordpools/wasnorm_wordpool_576.txt	LTP334	ltpFR2	22	1	LUMBER	848	n/a	n/a	0	0	0
345.47900390625	n/a	REC_WORD	707541	wordpools/wasnorm_wordpool_576.txt	LTP334	ltpFR2	22	1	CABIN	211	n/a	n/a	0	0	0
346.3115234375	n/a	REC_WORD	709246	wordpools/wasnorm_wordpool_576.txt	LTP334	ltpFR2	22	1	FLASHLIGHT	575	n/a	n/a	0	0	0
346.91796875	n/a	REC_WORD	710488	wordpools/wasnorm_wordpool_576.txt	LTP334	ltpFR2	22	1	SPOOL	1356	n/a	n/a	0	0	0
348.21875	n/a	REC_WORD	713152	wordpools/wasnorm_wordpool_576.txt	LTP334	ltpFR2	22	1	SWIMMER	1420	n/a	n/a	0	0	0
349.1865234375	n/a	REC_WORD	715134	wordpools/wasnorm_wordpool_576.txt	LTP334	ltpFR2	22	1	MAMMAL	861	n/a	n/a	0	0	0
349.66064453125	n/a	REC_WORD	716105	wordpools/wasnorm_wordpool_576.txt	LTP334	ltpFR2	22	1	DRAGON	492	n/a	n/a	0	0	0
350.89453125	n/a	REC_WORD	718632	wordpools/wasnorm_wordpool_576.txt	LTP334	ltpFR2	22	1	WAITRESS	1581	n/a	n/a	0	0	0
353.17041015625	n/a	REC_WORD_VV	723293	wordpools/wasnorm_wordpool_576.txt	LTP334	ltpFR2	22	1	<>	-1	n/a	n/a	0	0	0
356.74462890625	n/a	REC_WORD	730613	wordpools/wasnorm_wordpool_576.txt	LTP334	ltpFR2	22	1	QUARTER	1148	n/a	n/a	0	0	0
389.21484375	n/a	REC_WORD	797112	wordpools/wasnorm_wordpool_576.txt	LTP334	ltpFR2	22	1	BRAKE	166	n/a	n/a	0	0	0
390.9814453125	n/a	REC_WORD	800730	wordpools/wasnorm_wordpool_576.txt	LTP334	ltpFR2	22	1	BRAKE	166	n/a	n/a	0	0	0
428.70556640625	n/a	DISTRACTOR	877989	n/a	LTP334	ltpFR2	22	2	n/a	n/a	n/a	n/a	0	0	0
428.70556640625	n/a	START	877989	n/a	LTP334	ltpFR2	22	n/a	n/a	n/a	2	n/a	n/a	n/a	n/a
428.72265625	n/a	PROB	878024	n/a	LTP334	ltpFR2	22	n/a	n/a	n/a	2	25	7	9	9
430.46142578125	n/a	PROB	881585	n/a	LTP334	ltpFR2	22	n/a	n/a	n/a	2	12	6	5	1
431.58154296875	n/a	PROB	883879	n/a	LTP334	ltpFR2	22	n/a	n/a	n/a	2	14	8	6	3
433.17138671875	n/a	PROB	887135	n/a	LTP334	ltpFR2	22	n/a	n/a	n/a	2	17	2	9	6
434.79248046875	n/a	PROB	890455	n/a	LTP334	ltpFR2	22	n/a	n/a	n/a	2	19	3	7	9
436.21337890625	n/a	PROB	893365	n/a	LTP334	ltpFR2	22	n/a	n/a	n/a	2	5	1	2	2
437.33349609375	n/a	PROB	895659	n/a	LTP334	ltpFR2	22	n/a	n/a	n/a	2	22	6	7	8
439.04052734375	n/a	PROB	899155	n/a	LTP334	ltpFR2	22	n/a	n/a	n/a	2	20	9	2	9
440.4931640625	n/a	PROB	902130	n/a	LTP334	ltpFR2	22	n/a	n/a	n/a	2	24	9	6	9
442.10009765625	n/a	PROB	905421	n/a	LTP334	ltpFR2	22	n/a	n/a	n/a	2	7	1	1	5
443.25244140625	n/a	PROB	907781	n/a	LTP334	ltpFR2	22	n/a	n/a	n/a	2	12	6	3	3
444.43994140625	n/a	PROB	910213	n/a	LTP334	ltpFR2	22	n/a	n/a	n/a	2	9	4	4	1
445.54296875	n/a	PROB	912472	n/a	LTP334	ltpFR2	22	n/a	n/a	n/a	2	16	7	1	8
446.84716796875	n/a	PROB	915143	n/a	LTP334	ltpFR2	22	n/a	n/a	n/a	2	16	1	6	9
448.369140625	n/a	PROB	918260	n/a	LTP334	ltpFR2	22	n/a	n/a	n/a	2	20	8	3	9
449.80712890625	n/a	PROB	921205	n/a	LTP334	ltpFR2	22	n/a	n/a	n/a	2	11	7	1	3
451.18115234375	n/a	STOP	924019	n/a	LTP334	ltpFR2	22	n/a	n/a	n/a	2	n/a	n/a	n/a	n/a
453.7197265625	n/a	WORD	929218	wordpools/wasnorm_wordpool_576.txt	LTP334	ltpFR2	22	2	SALAD	1224	n/a	n/a	0	0	0
456.3447265625	n/a	WORD	934594	wordpools/wasnorm_wordpool_576.txt	LTP334	ltpFR2	22	2	FARMER	553	n/a	n/a	0	0	0
458.8359375	n/a	WORD	939696	wordpools/wasnorm_wordpool_576.txt	LTP334	ltpFR2	22	2	GHETTO	633	n/a	n/a	0	0	0
461.5615234375	n/a	WORD	945278	wordpools/wasnorm_wordpool_576.txt	LTP334	ltpFR2	22	2	DRAWING	494	n/a	n/a	0	0	0
464.3037109375	n/a	WORD	950894	wordpools/wasnorm_wordpool_576.txt	LTP334	ltpFR2	22	2	SALMON	1227	n/a	n/a	0	0	0
466.82861328125	n/a	WORD	956065	wordpools/wasnorm_wordpool_576.txt	LTP334	ltpFR2	22	2	SALT	1229	n/a	n/a	0	0	0
469.5703125	n/a	WORD	961680	wordpools/wasnorm_wordpool_576.txt	LTP334	ltpFR2	22	2	BADGE	68	n/a	n/a	0	0	0
472.24560546875	n/a	WORD	967159	wordpools/wasnorm_wordpool_576.txt	LTP334	ltpFR2	22	2	JUGGLER	763	n/a	n/a	0	0	0
474.9375	n/a	WORD	972672	wordpools/wasnorm_wordpool_576.txt	LTP334	ltpFR2	22	2	GYMNAST	675	n/a	n/a	0	0	0
477.74609375	n/a	WORD	978424	wordpools/wasnorm_wordpool_576.txt	LTP334	ltpFR2	22	2	ULCER	1533	n/a	n/a	0	0	0
480.22119140625	n/a	WORD	983493	wordpools/wasnorm_wordpool_576.txt	LTP334	ltpFR2	22	2	HONEY	713	n/a	n/a	0	0	0
482.830078125	n/a	WORD	988836	wordpools/wasnorm_wordpool_576.txt	LTP334	ltpFR2	22	2	GROUND	666	n/a	n/a	0	0	0
485.5888671875	n/a	WORD	994486	wordpools/wasnorm_wordpool_576.txt	LTP334	ltpFR2	22	2	BRANDY	169	n/a	n/a	0	0	0
488.3310546875	n/a	WORD	1000102	wordpools/wasnorm_wordpool_576.txt	LTP334	ltpFR2	22	2	SHORTS	1293	n/a	n/a	0	0	0
490.98876953125	n/a	WORD	1005545	wordpools/wasnorm_wordpool_576.txt	LTP334	ltpFR2	22	2	JEANS	752	n/a	n/a	0	0	0
493.6650390625	n/a	WORD	1011026	wordpools/wasnorm_wordpool_576.txt	LTP334	ltpFR2	22	2	POLICE	1098	n/a	n/a	0	0	0
496.22265625	n/a	WORD	1016264	wordpools/wasnorm_wordpool_576.txt	LTP334	ltpFR2	22	2	HORSE	719	n/a	n/a	0	0	0
498.7646484375	n/a	WORD	1021470	wordpools/wasnorm_wordpool_576.txt	LTP334	ltpFR2	22	2	FINGER	567	n/a	n/a	0	0	0
501.20556640625	n/a	WORD	1026469	wordpools/wasnorm_wordpool_576.txt	LTP334	ltpFR2	22	2	GALLON	618	n/a	n/a	0	0	0
503.71337890625	n/a	WORD	1031605	wordpools/wasnorm_wordpool_576.txt	LTP334	ltpFR2	22	2	FLASK	576	n/a	n/a	0	0	0
506.3056640625	n/a	WORD	1036914	wordpools/wasnorm_wordpool_576.txt	LTP334	ltpFR2	22	2	LION	827	n/a	n/a	0	0	0
508.82958984375	n/a	WORD	1042083	wordpools/wasnorm_wordpool_576.txt	LTP334	ltpFR2	22	2	BRIEFCASE	175	n/a	n/a	0	0	0
511.55517578125	n/a	WORD	1047665	wordpools/wasnorm_wordpool_576.txt	LTP334	ltpFR2	22	2	BOX	159	n/a	n/a	0	0	0
514.04736328125	n/a	WORD	1052769	wordpools/wasnorm_wordpool_576.txt	LTP334	ltpFR2	22	2	WASP	1593	n/a	n/a	0	0	0
515.65234375	n/a	START	1056056	n/a	LTP334	ltpFR2	22	n/a	n/a	n/a	3	n/a	n/a	n/a	n/a
516.50830078125	n/a	DISTRACTOR	1057809	n/a	LTP334	ltpFR2	22	2	n/a	n/a	n/a	n/a	0	0	0
516.521484375	n/a	PROB	1057836	n/a	LTP334	ltpFR2	22	n/a	n/a	n/a	3	15	6	2	7
518.04443359375	n/a	PROB	1060955	n/a	LTP334	ltpFR2	22	n/a	n/a	n/a	3	15	9	4	2
519.46435546875	n/a	PROB	1063863	n/a	LTP334	ltpFR2	22	n/a	n/a	n/a	3	14	3	8	3
521.13720703125	n/a	PROB	1067289	n/a	LTP334	ltpFR2	22	n/a	n/a	n/a	3	15	6	4	5
522.30615234375	n/a	PROB	1069683	n/a	LTP334	ltpFR2	22	n/a	n/a	n/a	3	12	8	2	2
524.59716796875	n/a	PROB	1074375	n/a	LTP334	ltpFR2	22	n/a	n/a	n/a	3	14	5	5	4
525.96826171875	n/a	PROB	1077183	n/a	LTP334	ltpFR2	22	n/a	n/a	n/a	3	25	9	7	9
528.02490234375	n/a	PROB	1081395	n/a	LTP334	ltpFR2	22	n/a	n/a	n/a	3	12	5	1	6
529.31201171875	n/a	PROB	1084031	n/a	LTP334	ltpFR2	22	n/a	n/a	n/a	3	19	7	9	3
530.91796875	n/a	PROB	1087320	n/a	LTP334	ltpFR2	22	n/a	n/a	n/a	3	17	5	5	7
532.10595703125	n/a	PROB	1089753	n/a	LTP334	ltpFR2	22	n/a	n/a	n/a	3	19	5	5	9
533.224609375	n/a	PROB	1092044	n/a	LTP334	ltpFR2	22	n/a	n/a	n/a	3	9	5	1	3
535.31494140625	n/a	PROB	1096325	n/a	LTP334	ltpFR2	22	n/a	n/a	n/a	3	14	7	1	6
536.6357421875	n/a	PROB	1099030	n/a	LTP334	ltpFR2	22	n/a	n/a	n/a	3	14	7	5	2
538.228515625	n/a	STOP	1102292	n/a	LTP334	ltpFR2	22	n/a	n/a	n/a	3	n/a	n/a	n/a	n/a
541.552734375	n/a	REC_START	1109100	n/a	LTP334	ltpFR2	22	2	n/a	n/a	n/a	n/a	0	0	0
542.91259765625	n/a	REC_WORD	1111885	wordpools/wasnorm_wordpool_576.txt	LTP334	ltpFR2	22	2	BRIEFCASE	175	n/a	n/a	0	0	0
545.21044921875	n/a	REC_WORD_VV	1116591	wordpools/wasnorm_wordpool_576.txt	LTP334	ltpFR2	22	2	<>	-1	n/a	n/a	0	0	0
552.236328125	n/a	REC_WORD	1130980	wordpools/wasnorm_wordpool_576.txt	LTP334	ltpFR2	22	2	JEANS	752	n/a	n/a	0	0	0
554.21923828125	n/a	REC_WORD_VV	1135041	wordpools/wasnorm_wordpool_576.txt	LTP334	ltpFR2	22	2	<>	-1	n/a	n/a	0	0	0
554.689453125	n/a	REC_WORD	1136004	wordpools/wasnorm_wordpool_576.txt	LTP334	ltpFR2	22	2	BRANDY	169	n/a	n/a	0	0	0
555.54638671875	n/a	REC_WORD	1137759	wordpools/wasnorm_wordpool_576.txt	LTP334	ltpFR2	22	2	ULCER	1533	n/a	n/a	0	0	0
556.29931640625	n/a	REC_WORD	1139301	wordpools/wasnorm_wordpool_576.txt	LTP334	ltpFR2	22	2	POLICE	1098	n/a	n/a	0	0	0
557.92626953125	n/a	REC_WORD_VV	1142633	wordpools/wasnorm_wordpool_576.txt	LTP334	ltpFR2	22	2	<>	-1	n/a	n/a	0	0	0
559.18505859375	n/a	REC_WORD	1145211	wordpools/wasnorm_wordpool_576.txt	LTP334	ltpFR2	22	2	SALAD	1224	n/a	n/a	0	0	0
560.0693359375	n/a	REC_WORD	1147022	wordpools/wasnorm_wordpool_576.txt	LTP334	ltpFR2	22	2	FARMER	553	n/a	n/a	0	0	0
560.89501953125	n/a	REC_WORD	1148713	wordpools/wasnorm_wordpool_576.txt	LTP334	ltpFR2	22	2	GHETTO	633	n/a	n/a	0	0	0
561.8310546875	n/a	REC_WORD	1150630	wordpools/wasnorm_wordpool_576.txt	LTP334	ltpFR2	22	2	HORSE	719	n/a	n/a	0	0	0
562.3369140625	n/a	REC_WORD	1151666	wordpools/wasnorm_wordpool_576.txt	LTP334	ltpFR2	22	2	GALLON	618	n/a	n/a	0	0	0
563.173828125	n/a	REC_WORD	1153380	wordpools/wasnorm_wordpool_576.txt	LTP334	ltpFR2	22	2	FINGER	567	n/a	n/a	0	0	0
564.994140625	n/a	REC_WORD_VV	1157108	wordpools/wasnorm_wordpool_576.txt	LTP334	ltpFR2	22	2	<>	-1	n/a	n/a	0	0	0
575.28271484375	n/a	REC_WORD	1178179	wordpools/wasnorm_wordpool_576.txt	LTP334	ltpFR2	22	2	BOX	159	n/a	n/a	0	0	0
579.53955078125	n/a	REC_WORD	1186897	wordpools/wasnorm_wordpool_576.txt	LTP334	ltpFR2	22	2	BRIEFCASE	175	n/a	n/a	0	0	0
632.00927734375	n/a	WORD	1294355	wordpools/wasnorm_wordpool_576.txt	LTP334	ltpFR2	22	3	MILK	895	n/a	n/a	0	0	0
634.6513671875	n/a	WORD	1299766	wordpools/wasnorm_wordpool_576.txt	LTP334	ltpFR2	22	3	PLASTER	1085	n/a	n/a	0	0	0
637.326171875	n/a	WORD	1305244	wordpools/wasnorm_wordpool_576.txt	LTP334	ltpFR2	22	3	GRAVE	658	n/a	n/a	0	0	0
639.85107421875	n/a	WORD	1310415	wordpools/wasnorm_wordpool_576.txt	LTP334	ltpFR2	22	3	SEAGULL	1261	n/a	n/a	0	0	0
642.35888671875	n/a	WORD	1315551	wordpools/wasnorm_wordpool_576.txt	LTP334	ltpFR2	22	3	ISLAND	745	n/a	n/a	0	0	0
644.966796875	n/a	WORD	1320892	wordpools/wasnorm_wordpool_576.txt	LTP334	ltpFR2	22	3	SILK	1307	n/a	n/a	0	0	0
647.72607421875	n/a	WORD	1326543	wordpools/wasnorm_wordpool_576.txt	LTP334	ltpFR2	22	3	DIVER	476	n/a	n/a	0	0	0
650.3349609375	n/a	WORD	1331886	wordpools/wasnorm_wordpool_576.txt	LTP334	ltpFR2	22	3	AWARD	63	n/a	n/a	0	0	0
652.8427734375	n/a	WORD	1337022	wordpools/wasnorm_wordpool_576.txt	LTP334	ltpFR2	22	3	PLUTO	1092	n/a	n/a	0	0	0
655.28369140625	n/a	WORD	1342021	wordpools/wasnorm_wordpool_576.txt	LTP334	ltpFR2	22	3	VENUS	1557	n/a	n/a	0	0	0
658.07763671875	n/a	WORD	1347743	wordpools/wasnorm_wordpool_576.txt	LTP334	ltpFR2	22	3	TRENCH	1503	n/a	n/a	0	0	0
660.66748046875	n/a	WORD	1353047	wordpools/wasnorm_wordpool_576.txt	LTP334	ltpFR2	22	3	QUEEN	1149	n/a	n/a	0	0	0
663.16064453125	n/a	WORD	1358153	wordpools/wasnorm_wordpool_576.txt	LTP334	ltpFR2	22	3	CROSS	413	n/a	n/a	0	0	0
665.8173828125	n/a	WORD	1363594	wordpools/wasnorm_wordpool_576.txt	LTP334	ltpFR2	22	3	MARSH	874	n/a	n/a	0	0	0
668.6103515625	n/a	WORD	1369314	wordpools/wasnorm_wordpool_576.txt	LTP334	ltpFR2	22	3	DRESS	495	n/a	n/a	0	0	0
671.35205078125	n/a	WORD	1374929	wordpools/wasnorm_wordpool_576.txt	LTP334	ltpFR2	22	3	WASHER	1592	n/a	n/a	0	0	0
673.9599609375	n/a	WORD	1380270	wordpools/wasnorm_wordpool_576.txt	LTP334	ltpFR2	22	3	RABBIT	1152	n/a	n/a	0	0	0
676.51904296875	n/a	WORD	1385511	wordpools/wasnorm_wordpool_576.txt	LTP334	ltpFR2	22	3	TORTOISE	1486	n/a	n/a	0	0	0
679.1611328125	n/a	WORD	1390922	wordpools/wasnorm_wordpool_576.txt	LTP334	ltpFR2	22	3	HIKER	708	n/a	n/a	0	0	0
681.90283203125	n/a	WORD	1396537	wordpools/wasnorm_wordpool_576.txt	LTP334	ltpFR2	22	3	KIDNEY	776	n/a	n/a	0	0	0
684.376953125	n/a	WORD	1401604	wordpools/wasnorm_wordpool_576.txt	LTP334	ltpFR2	22	3	SKILLET	1317	n/a	n/a	0	0	0
687.0537109375	n/a	WORD	1407086	wordpools/wasnorm_wordpool_576.txt	LTP334	ltpFR2	22	3	HOOK	715	n/a	n/a	0	0	0
689.74462890625	n/a	WORD	1412597	wordpools/wasnorm_wordpool_576.txt	LTP334	ltpFR2	22	3	CRATER	400	n/a	n/a	0	0	0
692.302734375	n/a	WORD	1417836	wordpools/wasnorm_wordpool_576.txt	LTP334	ltpFR2	22	3	YOLK	1633	n/a	n/a	0	0	0
693.90869140625	n/a	START	1421125	n/a	LTP334	ltpFR2	22	n/a	n/a	n/a	4	n/a	n/a	n/a	n/a
695.03662109375	n/a	DISTRACTOR	1423435	n/a	LTP334	ltpFR2	22	3	n/a	n/a	n/a	n/a	0	0	0
695.04541015625	n/a	PROB	1423453	n/a	LTP334	ltpFR2	22	n/a	n/a	n/a	4	10	7	1	2
696.099609375	n/a	PROB	1425612	n/a	LTP334	ltpFR2	22	n/a	n/a	n/a	4	11	4	1	6
697.16845703125	n/a	PROB	1427801	n/a	LTP334	ltpFR2	22	n/a	n/a	n/a	4	18	1	8	9
698.79052734375	n/a	PROB	1431123	n/a	LTP334	ltpFR2	22	n/a	n/a	n/a	4	10	3	3	4
700.2783203125	n/a	PROB	1434170	n/a	LTP334	ltpFR2	22	n/a	n/a	n/a	4	10	4	4	2
701.74951171875	n/a	PROB	1437183	n/a	LTP334	ltpFR2	22	n/a	n/a	n/a	4	16	6	2	8
703.90625	n/a	PROB	1441600	n/a	LTP334	ltpFR2	22	n/a	n/a	n/a	4	19	6	8	5
705.478515625	n/a	PROB	1444820	n/a	LTP334	ltpFR2	22	n/a	n/a	n/a	4	13	6	4	3
706.68212890625	n/a	PROB	1447285	n/a	LTP334	ltpFR2	22	n/a	n/a	n/a	4	12	7	5	1
707.80224609375	n/a	PROB	1449579	n/a	LTP334	ltpFR2	22	n/a	n/a	n/a	4	20	9	2	9
709.1240234375	n/a	PROB	1452286	n/a	LTP334	ltpFR2	22	n/a	n/a	n/a	4	14	6	6	2
710.29443359375	n/a	PROB	1454683	n/a	LTP334	ltpFR2	22	n/a	n/a	n/a	4	7	1	5	1
711.43115234375	n/a	PROB	1457011	n/a	LTP334	ltpFR2	22	n/a	n/a	n/a	4	20	7	6	7
712.76806640625	n/a	PROB	1459749	n/a	LTP334	ltpFR2	22	n/a	n/a	n/a	4	16	5	4	7
715.26025390625	n/a	PROB	1464853	n/a	LTP334	ltpFR2	22	n/a	n/a	n/a	4	14	6	4	4
717.908203125	n/a	STOP	1470276	n/a	LTP334	ltpFR2	22	n/a	n/a	n/a	4	n/a	n/a	n/a	n/a
719.65771484375	n/a	REC_START	1473859	n/a	LTP334	ltpFR2	22	3	n/a	n/a	n/a	n/a	0	0	0
719.84814453125	n/a	REC_WORD	1474249	wordpools/wasnorm_wordpool_576.txt	LTP334	ltpFR2	22	3	SKILLET	1317	n/a	n/a	0	0	0
720.880859375	n/a	REC_WORD	1476364	wordpools/wasnorm_wordpool_576.txt	LTP334	ltpFR2	22	3	KIDNEY	776	n/a	n/a	0	0	0
721.5888671875	n/a	REC_WORD	1477814	wordpools/wasnorm_wordpool_576.txt	LTP334	ltpFR2	22	3	AWARD	63	n/a	n/a	0	0	0
723.10302734375	n/a	REC_WORD_VV	1480915	wordpools/wasnorm_wordpool_576.txt	LTP334	ltpFR2	22	3	<>	-1	n/a	n/a	0	0	0
724.7060546875	n/a	REC_WORD	1484198	wordpools/wasnorm_wordpool_576.txt	LTP334	ltpFR2	22	3	MILK	895	n/a	n/a	0	0	0
725.64990234375	n/a	REC_WORD	1486131	wordpools/wasnorm_wordpool_576.txt	LTP334	ltpFR2	22	3	SILK	1307	n/a	n/a	0	0	0
727.7265625	n/a	REC_WORD_VV	1490384	wordpools/wasnorm_wordpool_576.txt	LTP334	ltpFR2	22	3	<>	-1	n/a	n/a	0	0	0
730.3828125	n/a	REC_WORD	1495824	wordpools/wasnorm_wordpool_576.txt	LTP334	ltpFR2	22	3	ISLAND	745	n/a	n/a	0	0	0
731.4814453125	n/a	REC_WORD	1498074	wordpools/wasnorm_wordpool_576.txt	LTP334	ltpFR2	22	3	DIVER	476	n/a	n/a	0	0	0
732.0234375	n/a	REC_WORD	1499184	wordpools/wasnorm_wordpool_576.txt	LTP334	ltpFR2	22	3	TRENCH	1503	n/a	n/a	0	0	0
735.513671875	n/a	REC_WORD_VV	1506332	wordpools/wasnorm_wordpool_576.txt	LTP334	ltpFR2	22	3	<>	-1	n/a	n/a	0	0	0
752.67919921875	n/a	REC_WORD_VV	1541487	wordpools/wasnorm_wordpool_576.txt	LTP334	ltpFR2	22	3	<>	-1	n/a	n/a	0	0	0
753.6611328125	n/a	REC_WORD	1543498	wordpools/wasnorm_wordpool_576.txt	LTP334	ltpFR2	22	3	RABBIT	1152	n/a	n/a	0	0	0
754.49609375	n/a	REC_WORD	1545208	wordpools/wasnorm_wordpool_576.txt	LTP334	ltpFR2	22	3	TORTOISE	1486	n/a	n/a	0	0	0
810.11572265625	n/a	WORD	1659117	wordpools/wasnorm_wordpool_576.txt	LTP334	ltpFR2	22	4	LIVER	833	n/a	n/a	0	0	0
812.5224609375	n/a	WORD	1664046	wordpools/wasnorm_wordpool_576.txt	LTP334	ltpFR2	22	4	COMET	353	n/a	n/a	0	0	0
815.0654296875	n/a	WORD	1669254	wordpools/wasnorm_wordpool_576.txt	LTP334	ltpFR2	22	4	ROCKET	1202	n/a	n/a	0	0	0
817.50537109375	n/a	WORD	1674251	wordpools/wasnorm_wordpool_576.txt	LTP334	ltpFR2	22	4	BANJO	82	n/a	n/a	0	0	0
820.0654296875	n/a	WORD	1679494	wordpools/wasnorm_wordpool_576.txt	LTP334	ltpFR2	22	4	PADDLE	1000	n/a	n/a	0	0	0
822.75537109375	n/a	WORD	1685003	wordpools/wasnorm_wordpool_576.txt	LTP334	ltpFR2	22	4	CAMEL	223	n/a	n/a	0	0	0
825.48095703125	n/a	WORD	1690585	wordpools/wasnorm_wordpool_576.txt	LTP334	ltpFR2	22	4	LACE	792	n/a	n/a	0	0	0
828.1572265625	n/a	WORD	1696066	wordpools/wasnorm_wordpool_576.txt	LTP334	ltpFR2	22	4	RECORD	1176	n/a	n/a	0	0	0
830.7138671875	n/a	WORD	1701302	wordpools/wasnorm_wordpool_576.txt	LTP334	ltpFR2	22	4	TUTU	1524	n/a	n/a	0	0	0
833.3388671875	n/a	WORD	1706678	wordpools/wasnorm_wordpool_576.txt	LTP334	ltpFR2	22	4	DORM	488	n/a	n/a	0	0	0
835.86376953125	n/a	WORD	1711849	wordpools/wasnorm_wordpool_576.txt	LTP334	ltpFR2	22	4	CONCERT	360	n/a	n/a	0	0	0
838.3720703125	n/a	WORD	1716986	wordpools/wasnorm_wordpool_576.txt	LTP334	ltpFR2	22	4	MUSTARD	935	n/a	n/a	0	0	0
840.81298828125	n/a	WORD	1721985	wordpools/wasnorm_wordpool_576.txt	LTP334	ltpFR2	22	4	BLUEPRINT	142	n/a	n/a	0	0	0
843.2705078125	n/a	WORD	1727018	wordpools/wasnorm_wordpool_576.txt	LTP334	ltpFR2	22	4	SISTER	1312	n/a	n/a	0	0	0
845.74560546875	n/a	WORD	1732087	wordpools/wasnorm_wordpool_576.txt	LTP334	ltpFR2	22	4	PRINCESS	1125	n/a	n/a	0	0	0
848.2705078125	n/a	WORD	1737258	wordpools/wasnorm_wordpool_576.txt	LTP334	ltpFR2	22	4	CIGAR	308	n/a	n/a	0	0	0
850.8115234375	n/a	WORD	1742462	wordpools/wasnorm_wordpool_576.txt	LTP334	ltpFR2	22	4	TERMITE	1451	n/a	n/a	0	0	0
853.53759765625	n/a	WORD	1748045	wordpools/wasnorm_wordpool_576.txt	LTP334	ltpFR2	22	4	FLIPPER	580	n/a	n/a	0	0	0
856.029296875	n/a	WORD	1753148	wordpools/wasnorm_wordpool_576.txt	LTP334	ltpFR2	22	4	FIDDLE	561	n/a	n/a	0	0	0
858.58740234375	n/a	WORD	1758387	wordpools/wasnorm_wordpool_576.txt	LTP334	ltpFR2	22	4	INFANT	737	n/a	n/a	0	0	0
861.26220703125	n/a	WORD	1763865	wordpools/wasnorm_wordpool_576.txt	LTP334	ltpFR2	22	4	CRIB	407	n/a	n/a	0	0	0
864.05517578125	n/a	WORD	1769585	wordpools/wasnorm_wordpool_576.txt	LTP334	ltpFR2	22	4	RAFT	1159	n/a	n/a	0	0	0
866.72998046875	n/a	WORD	1775063	wordpools/wasnorm_wordpool_576.txt	LTP334	ltpFR2	22	4	CORAL	378	n/a	n/a	0	0	0
869.22119140625	n/a	WORD	1780165	wordpools/wasnorm_wordpool_576.txt	LTP334	ltpFR2	22	4	ROOSTER	1209	n/a	n/a	0	0	0
870.8271484375	n/a	START	1783454	n/a	LTP334	ltpFR2	22	n/a	n/a	n/a	5	n/a	n/a	n/a	n/a
871.80908203125	n/a	DISTRACTOR	1785465	n/a	LTP334	ltpFR2	22	4	n/a	n/a	n/a	n/a	0	0	0
871.81298828125	n/a	PROB	1785473	n/a	LTP334	ltpFR2	22	n/a	n/a	n/a	5	24	8	8	8
873.134765625	n/a	PROB	1788180	n/a	LTP334	ltpFR2	22	n/a	n/a	n/a	5	16	8	1	7
874.5048828125	n/a	PROB	1790986	n/a	LTP334	ltpFR2	22	n/a	n/a	n/a	5	13	5	6	2
876.19384765625	n/a	PROB	1794445	n/a	LTP334	ltpFR2	22	n/a	n/a	n/a	5	13	6	1	6
877.380859375	n/a	PROB	1796876	n/a	LTP334	ltpFR2	22	n/a	n/a	n/a	5	10	4	4	2
878.6015625	n/a	PROB	1799376	n/a	LTP334	ltpFR2	22	n/a	n/a	n/a	5	18	8	5	5
879.7548828125	n/a	PROB	1801738	n/a	LTP334	ltpFR2	22	n/a	n/a	n/a	5	20	5	8	6
882.27978515625	n/a	PROB	1806909	n/a	LTP334	ltpFR2	22	n/a	n/a	n/a	5	19	9	5	5
883.349609375	n/a	PROB	1809100	n/a	LTP334	ltpFR2	22	n/a	n/a	n/a	5	22	7	9	6
885.5908203125	n/a	PROB	1813690	n/a	LTP334	ltpFR2	22	n/a	n/a	n/a	5	21	9	6	6
887.11279296875	n/a	PROB	1816807	n/a	LTP334	ltpFR2	22	n/a	n/a	n/a	5	16	9	6	1
889.36962890625	n/a	PROB	1821429	n/a	LTP334	ltpFR2	22	n/a	n/a	n/a	5	5	1	3	1
890.37255859375	n/a	PROB	1823483	n/a	LTP334	ltpFR2	22	n/a	n/a	n/a	5	10	4	3	3
891.79345703125	n/a	PROB	1826393	n/a	LTP334	ltpFR2	22	n/a	n/a	n/a	5	18	2	9	7
893.2314453125	n/a	PROB	1829338	n/a	LTP334	ltpFR2	22	n/a	n/a	n/a	5	19	9	8	2
894.58251953125	n/a	STOP	1832105	n/a	LTP334	ltpFR2	22	n/a	n/a	n/a	5	n/a	n/a	n/a	n/a
896.62646484375	n/a	REC_START	1836291	n/a	LTP334	ltpFR2	22	4	n/a	n/a	n/a	n/a	0	0	0
898.21044921875	n/a	REC_WORD_VV	1839535	wordpools/wasnorm_wordpool_576.txt	LTP334	ltpFR2	22	4	<>	-1	n/a	n/a	0	0	0
899.154296875	n/a	REC_WORD	1841468	wordpools/wasnorm_wordpool_576.txt	LTP334	ltpFR2	22	4	FLIPPER	580	n/a	n/a	0	0	0
902.21337890625	n/a	REC_WORD_VV	1847733	wordpools/wasnorm_wordpool_576.txt	LTP334	ltpFR2	22	4	<>	-1	n/a	n/a	0	0	0
902.55224609375	n/a	REC_WORD	1848427	wordpools/wasnorm_wordpool_576.txt	LTP334	ltpFR2	22	4	RAFT	1159	n/a	n/a	0	0	0
905.47998046875	n/a	REC_WORD_VV	1854423	wordpools/wasnorm_wordpool_576.txt	LTP334	ltpFR2	22	4	<>	-1	n/a	n/a	0	0	0
905.66015625	n/a	REC_WORD	1854792	wordpools/wasnorm_wordpool_576.txt	LTP334	ltpFR2	22	4	INFANT	737	n/a	n/a	0	0	0
906.533203125	n/a	REC_WORD	1856580	wordpools/wasnorm_wordpool_576.txt	LTP334	ltpFR2	22	4	CRIB	407	n/a	n/a	0	0	0
907.1171875	n/a	REC_WORD	1857776	wordpools/wasnorm_wordpool_576.txt	LTP334	ltpFR2	22	4	BROOK	177	n/a	n/a	0	0	0
907.7490234375	n/a	REC_WORD_VV	1859070	wordpools/wasnorm_wordpool_576.txt	LTP334	ltpFR2	22	4	<>	-1	n/a	n/a	0	0	0
909.29296875	n/a	REC_WORD_VV	1862232	wordpools/wasnorm_wordpool_576.txt	LTP334	ltpFR2	22	4	<>	-1	n/a	n/a	0	0	0
912.28369140625	n/a	REC_WORD	1868357	wordpools/wasnorm_wordpool_576.txt	LTP334	ltpFR2	22	4	ROOSTER	1209	n/a	n/a	0	0	0
913.3408203125	n/a	REC_WORD	1870522	wordpools/wasnorm_wordpool_576.txt	LTP334	ltpFR2	22	4	CORAL	378	n/a	n/a	0	0	0
915.1826171875	n/a	REC_WORD_VV	1874294	wordpools/wasnorm_wordpool_576.txt	LTP334	ltpFR2	22	4	<>	-1	n/a	n/a	0	0	0
919.1025390625	n/a	REC_WORD	1882322	wordpools/wasnorm_wordpool_576.txt	LTP334	ltpFR2	22	4	FIDDLE	561	n/a	n/a	0	0	0
919.7587890625	n/a	REC_WORD	1883666	wordpools/wasnorm_wordpool_576.txt	LTP334	ltpFR2	22	4	BANJO	82	n/a	n/a	0	0	0
920.50048828125	n/a	REC_WORD	1885185	wordpools/wasnorm_wordpool_576.txt	LTP334	ltpFR2	22	4	RECORD	1176	n/a	n/a	0	0	0
921.302734375	n/a	REC_WORD	1886828	wordpools/wasnorm_wordpool_576.txt	LTP334	ltpFR2	22	4	DORM	488	n/a	n/a	0	0	0
922.14453125	n/a	REC_WORD	1888552	wordpools/wasnorm_wordpool_576.txt	LTP334	ltpFR2	22	4	CONCERT	360	n/a	n/a	0	0	0
924.55078125	n/a	REC_WORD_VV	1893480	wordpools/wasnorm_wordpool_576.txt	LTP334	ltpFR2	22	4	<>	-1	n/a	n/a	0	0	0
930.5205078125	n/a	REC_WORD	1905706	wordpools/wasnorm_wordpool_576.txt	LTP334	ltpFR2	22	4	LIVER	833	n/a	n/a	0	0	0
932.98046875	n/a	REC_WORD	1910744	wordpools/wasnorm_wordpool_576.txt	LTP334	ltpFR2	22	4	CIGAR	308	n/a	n/a	0	0	0
936.033203125	n/a	REC_WORD_VV	1916996	wordpools/wasnorm_wordpool_576.txt	LTP334	ltpFR2	22	4	<>	-1	n/a	n/a	0	0	0
940.26416015625	n/a	REC_WORD	1925661	wordpools/wasnorm_wordpool_576.txt	LTP334	ltpFR2	22	4	SISTER	1312	n/a	n/a	0	0	0
940.89208984375	n/a	REC_WORD	1926947	wordpools/wasnorm_wordpool_576.txt	LTP334	ltpFR2	22	4	PRINCESS	1125	n/a	n/a	0	0	0
943.76513671875	n/a	REC_WORD	1932831	wordpools/wasnorm_wordpool_576.txt	LTP334	ltpFR2	22	4	TUTU	1524	n/a	n/a	0	0	0
944.2841796875	n/a	REC_WORD	1933894	wordpools/wasnorm_wordpool_576.txt	LTP334	ltpFR2	22	4	LACE	792	n/a	n/a	0	0	0
987.083984375	n/a	WORD	2021548	wordpools/wasnorm_wordpool_576.txt	LTP334	ltpFR2	22	5	PENGUIN	1044	n/a	n/a	0	0	0
989.60791015625	n/a	WORD	2026717	wordpools/wasnorm_wordpool_576.txt	LTP334	ltpFR2	22	5	DENTIST	447	n/a	n/a	0	0	0
992.03369140625	n/a	WORD	2031685	wordpools/wasnorm_wordpool_576.txt	LTP334	ltpFR2	22	5	PADDING	999	n/a	n/a	0	0	0
994.640625	n/a	WORD	2037024	wordpools/wasnorm_wordpool_576.txt	LTP334	ltpFR2	22	5	SPIDER	1351	n/a	n/a	0	0	0
997.3154296875	n/a	WORD	2042502	wordpools/wasnorm_wordpool_576.txt	LTP334	ltpFR2	22	5	FRIAR	605	n/a	n/a	0	0	0
999.8408203125	n/a	WORD	2047674	wordpools/wasnorm_wordpool_576.txt	LTP334	ltpFR2	22	5	BARLEY	88	n/a	n/a	0	0	0
1002.54931640625	n/a	WORD	2053221	wordpools/wasnorm_wordpool_576.txt	LTP334	ltpFR2	22	5	FLEET	578	n/a	n/a	0	0	0
1005.29150390625	n/a	WORD	2058837	wordpools/wasnorm_wordpool_576.txt	LTP334	ltpFR2	22	5	NIGHTGOWN	953	n/a	n/a	0	0	0
1007.8662109375	n/a	WORD	2064110	wordpools/wasnorm_wordpool_576.txt	LTP334	ltpFR2	22	5	WITNESS	1618	n/a	n/a	0	0	0
1010.32421875	n/a	WORD	2069144	wordpools/wasnorm_wordpool_576.txt	LTP334	ltpFR2	22	5	CONVICT	371	n/a	n/a	0	0	0
1012.9833984375	n/a	WORD	2074590	wordpools/wasnorm_wordpool_576.txt	LTP334	ltpFR2	22	5	PEANUT	1032	n/a	n/a	0	0	0
1015.67529296875	n/a	WORD	2080103	wordpools/wasnorm_wordpool_576.txt	LTP334	ltpFR2	22	5	MEDAL	885	n/a	n/a	0	0	0
1018.2001953125	n/a	WORD	2085274	wordpools/wasnorm_wordpool_576.txt	LTP334	ltpFR2	22	5	SLIDE	1326	n/a	n/a	0	0	0
1020.72412109375	n/a	WORD	2090443	wordpools/wasnorm_wordpool_576.txt	LTP334	ltpFR2	22	5	SUNSET	1408	n/a	n/a	0	0	0
1023.31591796875	n/a	WORD	2095751	wordpools/wasnorm_wordpool_576.txt	LTP334	ltpFR2	22	5	COLONEL	348	n/a	n/a	0	0	0
1026.02587890625	n/a	WORD	2101301	wordpools/wasnorm_wordpool_576.txt	LTP334	ltpFR2	22	5	MACHINE	852	n/a	n/a	0	0	0
1028.716796875	n/a	WORD	2106812	wordpools/wasnorm_wordpool_576.txt	LTP334	ltpFR2	22	5	BUCKET	184	n/a	n/a	0	0	0
1031.35888671875	n/a	WORD	2112223	wordpools/wasnorm_wordpool_576.txt	LTP334	ltpFR2	22	5	COCOON	339	n/a	n/a	0	0	0
1033.7998046875	n/a	WORD	2117222	wordpools/wasnorm_wordpool_576.txt	LTP334	ltpFR2	22	5	PAIL	1002	n/a	n/a	0	0	0
1036.341796875	n/a	WORD	2122428	wordpools/wasnorm_wordpool_576.txt	LTP334	ltpFR2	22	5	STREAM	1392	n/a	n/a	0	0	0
1039.0673828125	n/a	WORD	2128010	wordpools/wasnorm_wordpool_576.txt	LTP334	ltpFR2	22	5	POSTAGE	1113	n/a	n/a	0	0	0
1041.82568359375	n/a	WORD	2133659	wordpools/wasnorm_wordpool_576.txt	LTP334	ltpFR2	22	5	FOREHEAD	592	n/a	n/a	0	0	0
1044.5673828125	n/a	WORD	2139274	wordpools/wasnorm_wordpool_576.txt	LTP334	ltpFR2	22	5	SCARF	1246	n/a	n/a	0	0	0
1047.060546875	n/a	WORD	2144380	wordpools/wasnorm_wordpool_576.txt	LTP334	ltpFR2	22	5	PLIERS	1089	n/a	n/a	0	0	0
1048.66455078125	n/a	START	2147665	n/a	LTP334	ltpFR2	22	n/a	n/a	n/a	6	n/a	n/a	n/a	n/a
1049.67431640625	n/a	DISTRACTOR	2149733	n/a	LTP334	ltpFR2	22	5	n/a	n/a	n/a	n/a	0	0	0
1049.68408203125	n/a	PROB	2149753	n/a	LTP334	ltpFR2	22	n/a	n/a	n/a	6	11	1	3	7
1052.51025390625	n/a	PROB	2155541	n/a	LTP334	ltpFR2	22	n/a	n/a	n/a	6	15	1	6	8
1057.47607421875	n/a	PROB	2165711	n/a	LTP334	ltpFR2	22	n/a	n/a	n/a	6	17	3	9	5
1058.8642578125	n/a	PROB	2168554	n/a	LTP334	ltpFR2	22	n/a	n/a	n/a	6	23	8	6	9
1060.43505859375	n/a	PROB	2171771	n/a	LTP334	ltpFR2	22	n/a	n/a	n/a	6	13	5	1	8
1062.30810546875	n/a	PROB	2175607	n/a	LTP334	ltpFR2	22	n/a	n/a	n/a	6	16	6	6	4
1064.01416015625	n/a	PROB	2179101	n/a	LTP334	ltpFR2	22	n/a	n/a	n/a	6	13	1	5	7
1065.98681640625	n/a	PROB	2183141	n/a	LTP334	ltpFR2	22	n/a	n/a	n/a	6	15	4	7	4
1067.7255859375	n/a	PROB	2186702	n/a	LTP334	ltpFR2	22	n/a	n/a	n/a	6	18	9	7	2
1070.083984375	n/a	PROB	2191532	n/a	LTP334	ltpFR2	22	n/a	n/a	n/a	6	20	7	5	8
1071.462890625	n/a	STOP	2194356	n/a	LTP334	ltpFR2	22	n/a	n/a	n/a	6	n/a	n/a	n/a	n/a
1074.61474609375	n/a	REC_START	2200811	n/a	LTP334	ltpFR2	22	5	n/a	n/a	n/a	n/a	0	0	0
1074.75048828125	n/a	REC_WORD	2201089	wordpools/wasnorm_wordpool_576.txt	LTP334	ltpFR2	22	5	POSTAGE	1113	n/a	n/a	0	0	0
1075.70068359375	n/a	REC_WORD	2203035	wordpools/wasnorm_wordpool_576.txt	LTP334	ltpFR2	22	5	PLIERS	1089	n/a	n/a	0	0	0
1076.82666015625	n/a	REC_WORD	2205341	wordpools/wasnorm_wordpool_576.txt	LTP334	ltpFR2	22	5	MAIL	-1	n/a	n/a	0	0	0
1078.1005859375	n/a	REC_WORD_VV	2207950	wordpools/wasnorm_wordpool_576.txt	LTP334	ltpFR2	22	5	<>	-1	n/a	n/a	0	0	0
1079.8046875	n/a	REC_WORD	2211440	wordpools/wasnorm_wordpool_576.txt	LTP334	ltpFR2	22	5	FRIAR	605	n/a	n/a	0	0	0
1080.7236328125	n/a	REC_WORD	2213322	wordpools/wasnorm_wordpool_576.txt	LTP334	ltpFR2	22	5	DENTIST	447	n/a	n/a	0	0	0
1081.5625	n/a	REC_WORD	2215040	wordpools/wasnorm_wordpool_576.txt	LTP334	ltpFR2	22	5	SPIDER	1351	n/a	n/a	0	0	0
1082.490234375	n/a	REC_WORD	2216940	wordpools/wasnorm_wordpool_576.txt	LTP334	ltpFR2	22	5	PADDING	999	n/a	n/a	0	0	0
1084.11962890625	n/a	REC_WORD_VV	2220277	wordpools/wasnorm_wordpool_576.txt	LTP334	ltpFR2	22	5	<>	-1	n/a	n/a	0	0	0
1085.05419921875	n/a	REC_WORD	2222191	wordpools/wasnorm_wordpool_576.txt	LTP334	ltpFR2	22	5	PENGUIN	1044	n/a	n/a	0	0	0
1098.916015625	n/a	REC_WORD_VV	2250580	wordpools/wasnorm_wordpool_576.txt	LTP334	ltpFR2	22	5	<>	-1	n/a	n/a	0	0	0
1165.072265625	n/a	WORD	2386068	wordpools/wasnorm_wordpool_576.txt	LTP334	ltpFR2	22	6	BUREAU	199	n/a	n/a	0	0	0
1167.8642578125	n/a	WORD	2391786	wordpools/wasnorm_wordpool_576.txt	LTP334	ltpFR2	22	6	CHEST	295	n/a	n/a	0	0	0
1170.65625	n/a	WORD	2397504	wordpools/wasnorm_wordpool_576.txt	LTP334	ltpFR2	22	6	PLAID	1080	n/a	n/a	0	0	0
1173.43212890625	n/a	WORD	2403189	wordpools/wasnorm_wordpool_576.txt	LTP334	ltpFR2	22	6	SPACE	1345	n/a	n/a	0	0	0
1176.20703125	n/a	WORD	2408872	wordpools/wasnorm_wordpool_576.txt	LTP334	ltpFR2	22	6	LEADER	807	n/a	n/a	0	0	0
1178.68212890625	n/a	WORD	2413941	wordpools/wasnorm_wordpool_576.txt	LTP334	ltpFR2	22	6	PLAZA	1088	n/a	n/a	0	0	0
1181.23974609375	n/a	WORD	2419179	wordpools/wasnorm_wordpool_576.txt	LTP334	ltpFR2	22	6	MARKET	871	n/a	n/a	0	0	0
1184.03369140625	n/a	WORD	2424901	wordpools/wasnorm_wordpool_576.txt	LTP334	ltpFR2	22	6	CHIPMUNK	304	n/a	n/a	0	0	0
1186.60791015625	n/a	WORD	2430173	wordpools/wasnorm_wordpool_576.txt	LTP334	ltpFR2	22	6	STAR	1373	n/a	n/a	0	0	0
1189.2998046875	n/a	WORD	2435686	wordpools/wasnorm_wordpool_576.txt	LTP334	ltpFR2	22	6	JURY	766	n/a	n/a	0	0	0
1191.74072265625	n/a	WORD	2440685	wordpools/wasnorm_wordpool_576.txt	LTP334	ltpFR2	22	6	RACKET	1155	n/a	n/a	0	0	0
1194.36572265625	n/a	WORD	2446061	wordpools/wasnorm_wordpool_576.txt	LTP334	ltpFR2	22	6	GUARD	667	n/a	n/a	0	0	0
1196.9404296875	n/a	WORD	2451334	wordpools/wasnorm_wordpool_576.txt	LTP334	ltpFR2	22	6	BISON	131	n/a	n/a	0	0	0
1199.7333984375	n/a	WORD	2457054	wordpools/wasnorm_wordpool_576.txt	LTP334	ltpFR2	22	6	NOMAD	955	n/a	n/a	0	0	0
1202.3583984375	n/a	WORD	2462430	wordpools/wasnorm_wordpool_576.txt	LTP334	ltpFR2	22	6	CHEMIST	292	n/a	n/a	0	0	0
1204.96630859375	n/a	WORD	2467771	wordpools/wasnorm_wordpool_576.txt	LTP334	ltpFR2	22	6	CYCLONE	431	n/a	n/a	0	0	0
1207.72509765625	n/a	WORD	2473421	wordpools/wasnorm_wordpool_576.txt	LTP334	ltpFR2	22	6	SHIRT	1287	n/a	n/a	0	0	0
1210.4169921875	n/a	WORD	2478934	wordpools/wasnorm_wordpool_576.txt	LTP334	ltpFR2	22	6	OZONE	996	n/a	n/a	0	0	0
1212.8251953125	n/a	WORD	2483866	wordpools/wasnorm_wordpool_576.txt	LTP334	ltpFR2	22	6	CRAYON	401	n/a	n/a	0	0	0
1215.4169921875	n/a	WORD	2489174	wordpools/wasnorm_wordpool_576.txt	LTP334	ltpFR2	22	6	SUBWAY	1400	n/a	n/a	0	0	0
1217.8408203125	n/a	WORD	2494138	wordpools/wasnorm_wordpool_576.txt	LTP334	ltpFR2	22	6	AGENT	10	n/a	n/a	0	0	0
1220.39990234375	n/a	WORD	2499379	wordpools/wasnorm_wordpool_576.txt	LTP334	ltpFR2	22	6	HAWK	692	n/a	n/a	0	0	0
1222.99072265625	n/a	WORD	2504685	wordpools/wasnorm_wordpool_576.txt	LTP334	ltpFR2	22	6	SCALPEL	1243	n/a	n/a	0	0	0
1225.716796875	n/a	WORD	2510268	wordpools/wasnorm_wordpool_576.txt	LTP334	ltpFR2	22	6	MOTEL	919	n/a	n/a	0	0	0
1227.32177734375	n/a	START	2513555	n/a	LTP334	ltpFR2	22	n/a	n/a	n/a	7	n/a	n/a	n/a	n/a
1228.42041015625	n/a	DISTRACTOR	2515805	n/a	LTP334	ltpFR2	22	6	n/a	n/a	n/a	n/a	0	0	0
1228.4248046875	n/a	PROB	2515814	n/a	LTP334	ltpFR2	22	n/a	n/a	n/a	7	23	5	9	9
1229.8466796875	n/a	PROB	2518726	n/a	LTP334	ltpFR2	22	n/a	n/a	n/a	7	21	9	4	8
1231.46875	n/a	PROB	2522048	n/a	LTP334	ltpFR2	22	n/a	n/a	n/a	7	10	1	3	6
1232.5712890625	n/a	PROB	2524306	n/a	LTP334	ltpFR2	22	n/a	n/a	n/a	7	22	9	6	7
1235.9326171875	n/a	PROB	2531190	n/a	LTP334	ltpFR2	22	n/a	n/a	n/a	7	13	3	1	9
1239.42724609375	n/a	PROB	2538347	n/a	LTP334	ltpFR2	22	n/a	n/a	n/a	7	19	7	4	8
1240.9482421875	n/a	PROB	2541462	n/a	LTP334	ltpFR2	22	n/a	n/a	n/a	7	13	3	2	8
1242.33642578125	n/a	PROB	2544305	n/a	LTP334	ltpFR2	22	n/a	n/a	n/a	7	14	5	6	3
1243.875	n/a	PROB	2547456	n/a	LTP334	ltpFR2	22	n/a	n/a	n/a	7	11	5	4	2
1245.3291015625	n/a	PROB	2550434	n/a	LTP334	ltpFR2	22	n/a	n/a	n/a	7	16	6	4	6
1246.43310546875	n/a	PROB	2552695	n/a	LTP334	ltpFR2	22	n/a	n/a	n/a	7	21	9	5	7
1248.171875	n/a	PROB	2556256	n/a	LTP334	ltpFR2	22	n/a	n/a	n/a	7	13	9	1	3
1249.60986328125	n/a	PROB	2559201	n/a	LTP334	ltpFR2	22	n/a	n/a	n/a	7	13	2	5	6
1250.88720703125	n/a	STOP	2561817	n/a	LTP334	ltpFR2	22	n/a	n/a	n/a	7	n/a	n/a	n/a	n/a
1253.07275390625	n/a	REC_START	2566293	n/a	LTP334	ltpFR2	22	6	n/a	n/a	n/a	n/a	0	0	0
1253.375	n/a	REC_WORD	2566912	wordpools/wasnorm_wordpool_576.txt	LTP334	ltpFR2	22	6	SCALPEL	1243	n/a	n/a	0	0	0
1254.84375	n/a	REC_WORD_VV	2569920	wordpools/wasnorm_wordpool_576.txt	LTP334	ltpFR2	22	6	<>	-1	n/a	n/a	0	0	0
1258.81103515625	n/a	REC_WORD	2578045	wordpools/wasnorm_wordpool_576.txt	LTP334	ltpFR2	22	6	HAWK	692	n/a	n/a	0	0	0
1261.52294921875	n/a	REC_WORD_VV	2583599	wordpools/wasnorm_wordpool_576.txt	LTP334	ltpFR2	22	6	<>	-1	n/a	n/a	0	0	0
1265.22265625	n/a	REC_WORD_VV	2591176	wordpools/wasnorm_wordpool_576.txt	LTP334	ltpFR2	22	6	<>	-1	n/a	n/a	0	0	0
1266.66748046875	n/a	REC_WORD	2594135	wordpools/wasnorm_wordpool_576.txt	LTP334	ltpFR2	22	6	CHIPMUNK	304	n/a	n/a	0	0	0
1267.99072265625	n/a	REC_WORD	2596845	wordpools/wasnorm_wordpool_576.txt	LTP334	ltpFR2	22	6	JURY	766	n/a	n/a	0	0	0
1269.78173828125	n/a	REC_WORD	2600513	wordpools/wasnorm_wordpool_576.txt	LTP334	ltpFR2	22	6	BUREAU	199	n/a	n/a	0	0	0
1272.5205078125	n/a	REC_WORD_VV	2606122	wordpools/wasnorm_wordpool_576.txt	LTP334	ltpFR2	22	6	<>	-1	n/a	n/a	0	0	0
1275.54638671875	n/a	REC_WORD_VV	2612319	wordpools/wasnorm_wordpool_576.txt	LTP334	ltpFR2	22	6	<>	-1	n/a	n/a	0	0	0
1278.56005859375	n/a	REC_WORD	2618491	wordpools/wasnorm_wordpool_576.txt	LTP334	ltpFR2	22	6	TABLE	1426	n/a	n/a	0	0	0
1281.10205078125	n/a	REC_WORD_VV	2623697	wordpools/wasnorm_wordpool_576.txt	LTP334	ltpFR2	22	6	<>	-1	n/a	n/a	0	0	0
1284.35009765625	n/a	REC_WORD	2630349	wordpools/wasnorm_wordpool_576.txt	LTP334	ltpFR2	22	6	CHEMIST	292	n/a	n/a	0	0	0
1287.09326171875	n/a	REC_WORD_VV	2635967	wordpools/wasnorm_wordpool_576.txt	LTP334	ltpFR2	22	6	<>	-1	n/a	n/a	0	0	0
1295.7998046875	n/a	REC_WORD_VV	2653798	wordpools/wasnorm_wordpool_576.txt	LTP334	ltpFR2	22	6	<>	-1	n/a	n/a	0	0	0
1322.1962890625	n/a	REC_WORD	2707858	wordpools/wasnorm_wordpool_576.txt	LTP334	ltpFR2	22	6	SCALPEL	1243	n/a	n/a	0	0	0
1343.54443359375	n/a	WORD	2751579	wordpools/wasnorm_wordpool_576.txt	LTP334	ltpFR2	22	7	DIME	466	n/a	n/a	0	0	0
1345.986328125	n/a	WORD	2756580	wordpools/wasnorm_wordpool_576.txt	LTP334	ltpFR2	22	7	GLOVE	642	n/a	n/a	0	0	0
1348.71142578125	n/a	WORD	2762161	wordpools/wasnorm_wordpool_576.txt	LTP334	ltpFR2	22	7	DANCER	437	n/a	n/a	0	0	0
1351.15234375	n/a	WORD	2767160	wordpools/wasnorm_wordpool_576.txt	LTP334	ltpFR2	22	7	SKIRT	1319	n/a	n/a	0	0	0
1353.861328125	n/a	WORD	2772708	wordpools/wasnorm_wordpool_576.txt	LTP334	ltpFR2	22	7	CARRIAGE	248	n/a	n/a	0	0	0
1356.453125	n/a	WORD	2778016	wordpools/wasnorm_wordpool_576.txt	LTP334	ltpFR2	22	7	LEOPARD	812	n/a	n/a	0	0	0
1359.0791015625	n/a	WORD	2783394	wordpools/wasnorm_wordpool_576.txt	LTP334	ltpFR2	22	7	KETCHUP	771	n/a	n/a	0	0	0
1361.501953125	n/a	WORD	2788356	wordpools/wasnorm_wordpool_576.txt	LTP334	ltpFR2	22	7	RELISH	1183	n/a	n/a	0	0	0
1363.994140625	n/a	WORD	2793460	wordpools/wasnorm_wordpool_576.txt	LTP334	ltpFR2	22	7	MOTOR	922	n/a	n/a	0	0	0
1366.56884765625	n/a	WORD	2798733	wordpools/wasnorm_wordpool_576.txt	LTP334	ltpFR2	22	7	SCARECROW	1245	n/a	n/a	0	0	0
1369.2939453125	n/a	WORD	2804314	wordpools/wasnorm_wordpool_576.txt	LTP334	ltpFR2	22	7	CUPBOARD	425	n/a	n/a	0	0	0
1372.03759765625	n/a	WORD	2809933	wordpools/wasnorm_wordpool_576.txt	LTP334	ltpFR2	22	7	HOOD	714	n/a	n/a	0	0	0
1374.52783203125	n/a	WORD	2815033	wordpools/wasnorm_wordpool_576.txt	LTP334	ltpFR2	22	7	CITRUS	313	n/a	n/a	0	0	0
1377.2197265625	n/a	WORD	2820546	wordpools/wasnorm_wordpool_576.txt	LTP334	ltpFR2	22	7	MARKER	870	n/a	n/a	0	0	0
1380.02978515625	n/a	WORD	2826301	wordpools/wasnorm_wordpool_576.txt	LTP334	ltpFR2	22	7	CROWN	415	n/a	n/a	0	0	0
1382.603515625	n/a	WORD	2831572	wordpools/wasnorm_wordpool_576.txt	LTP334	ltpFR2	22	7	BEEF	113	n/a	n/a	0	0	0
1385.3125	n/a	WORD	2837120	wordpools/wasnorm_wordpool_576.txt	LTP334	ltpFR2	22	7	CATTLE	261	n/a	n/a	0	0	0
1387.78759765625	n/a	WORD	2842189	wordpools/wasnorm_wordpool_576.txt	LTP334	ltpFR2	22	7	ASIA	46	n/a	n/a	0	0	0
1390.42919921875	n/a	WORD	2847599	wordpools/wasnorm_wordpool_576.txt	LTP334	ltpFR2	22	7	WORKER	1621	n/a	n/a	0	0	0
1392.953125	n/a	WORD	2852768	wordpools/wasnorm_wordpool_576.txt	LTP334	ltpFR2	22	7	PICTURE	1061	n/a	n/a	0	0	0
1395.4951171875	n/a	WORD	2857974	wordpools/wasnorm_wordpool_576.txt	LTP334	ltpFR2	22	7	PLATE	1086	n/a	n/a	0	0	0
1397.93603515625	n/a	WORD	2862973	wordpools/wasnorm_wordpool_576.txt	LTP334	ltpFR2	22	7	DONKEY	484	n/a	n/a	0	0	0
1400.7451171875	n/a	WORD	2868726	wordpools/wasnorm_wordpool_576.txt	LTP334	ltpFR2	22	7	ZEBRA	1635	n/a	n/a	0	0	0
1403.35400390625	n/a	WORD	2874069	wordpools/wasnorm_wordpool_576.txt	LTP334	ltpFR2	22	7	STALLION	1369	n/a	n/a	0	0	0
1404.958984375	n/a	START	2877356	n/a	LTP334	ltpFR2	22	n/a	n/a	n/a	8	n/a	n/a	n/a	n/a
1405.78173828125	n/a	DISTRACTOR	2879041	n/a	LTP334	ltpFR2	22	7	n/a	n/a	n/a	n/a	0	0	0
1405.794921875	n/a	PROB	2879068	n/a	LTP334	ltpFR2	22	n/a	n/a	n/a	8	11	5	3	3
1406.9990234375	n/a	PROB	2881534	n/a	LTP334	ltpFR2	22	n/a	n/a	n/a	8	17	7	5	5
1408.2197265625	n/a	PROB	2884034	n/a	LTP334	ltpFR2	22	n/a	n/a	n/a	8	22	8	5	9
1410.8779296875	n/a	PROB	2889478	n/a	LTP334	ltpFR2	22	n/a	n/a	n/a	8	18	5	6	7
1412.599609375	n/a	PROB	2893004	n/a	LTP334	ltpFR2	22	n/a	n/a	n/a	8	12	3	3	6
1413.61962890625	n/a	PROB	2895093	n/a	LTP334	ltpFR2	22	n/a	n/a	n/a	8	9	4	4	1
1414.77392578125	n/a	PROB	2897457	n/a	LTP334	ltpFR2	22	n/a	n/a	n/a	8	22	9	9	4
1416.24462890625	n/a	PROB	2900469	n/a	LTP334	ltpFR2	22	n/a	n/a	n/a	8	13	4	8	1
1417.41552734375	n/a	PROB	2902867	n/a	LTP334	ltpFR2	22	n/a	n/a	n/a	8	20	9	9	2
1418.70263671875	n/a	PROB	2905503	n/a	LTP334	ltpFR2	22	n/a	n/a	n/a	8	11	1	6	4
1420.62548828125	n/a	PROB	2909441	n/a	LTP334	ltpFR2	22	n/a	n/a	n/a	8	7	3	3	1
1422.2646484375	n/a	PROB	2912798	n/a	LTP334	ltpFR2	22	n/a	n/a	n/a	8	10	8	1	1
1423.25048828125	n/a	PROB	2914817	n/a	LTP334	ltpFR2	22	n/a	n/a	n/a	8	13	3	1	9
1424.7392578125	n/a	PROB	2917866	n/a	LTP334	ltpFR2	22	n/a	n/a	n/a	8	20	8	4	8
1426.34423828125	n/a	PROB	2921153	n/a	LTP334	ltpFR2	22	n/a	n/a	n/a	8	12	5	3	4
1428.24755859375	n/a	STOP	2925051	n/a	LTP334	ltpFR2	22	n/a	n/a	n/a	8	n/a	n/a	n/a	n/a
1430.80908203125	n/a	REC_START	2930297	n/a	LTP334	ltpFR2	22	7	n/a	n/a	n/a	n/a	0	0	0
1431.1884765625	n/a	REC_WORD	2931074	wordpools/wasnorm_wordpool_576.txt	LTP334	ltpFR2	22	7	RELISH	1183	n/a	n/a	0	0	0
1431.87646484375	n/a	REC_WORD	2932483	wordpools/wasnorm_wordpool_576.txt	LTP334	ltpFR2	22	7	KETCHUP	771	n/a	n/a	0	0	0
1432.68408203125	n/a	REC_WORD	2934137	wordpools/wasnorm_wordpool_576.txt	LTP334	ltpFR2	22	7	DIME	466	n/a	n/a	0	0	0
1433.525390625	n/a	REC_WORD_VV	2935860	wordpools/wasnorm_wordpool_576.txt	LTP334	ltpFR2	22	7	<>	-1	n/a	n/a	0	0	0
1436.39208984375	n/a	REC_WORD	2941731	wordpools/wasnorm_wordpool_576.txt	LTP334	ltpFR2	22	7	STALLION	1369	n/a	n/a	0	0	0
1437.658203125	n/a	REC_WORD	2944324	wordpools/wasnorm_wordpool_576.txt	LTP334	ltpFR2	22	7	ZEBRA	1635	n/a	n/a	0	0	0
1440.43310546875	n/a	REC_WORD_VV	2950007	wordpools/wasnorm_wordpool_576.txt	LTP334	ltpFR2	22	7	<>	-1	n/a	n/a	0	0	0
1442.15380859375	n/a	REC_WORD	2953531	wordpools/wasnorm_wordpool_576.txt	LTP334	ltpFR2	22	7	LEOPARD	812	n/a	n/a	0	0	0
1442.998046875	n/a	REC_WORD	2955260	wordpools/wasnorm_wordpool_576.txt	LTP334	ltpFR2	22	7	CARRIAGE	248	n/a	n/a	0	0	0
1443.755859375	n/a	REC_WORD	2956812	wordpools/wasnorm_wordpool_576.txt	LTP334	ltpFR2	22	7	DANCER	437	n/a	n/a	0	0	0
1444.72216796875	n/a	REC_WORD	2958791	wordpools/wasnorm_wordpool_576.txt	LTP334	ltpFR2	22	7	GLOVE	642	n/a	n/a	0	0	0
1448.0078125	n/a	REC_WORD_VV	2965520	wordpools/wasnorm_wordpool_576.txt	LTP334	ltpFR2	22	7	<>	-1	n/a	n/a	0	0	0
1468.8271484375	n/a	REC_WORD	3008158	wordpools/wasnorm_wordpool_576.txt	LTP334	ltpFR2	22	7	SKIRT	1319	n/a	n/a	0	0	0
1471.81201171875	n/a	REC_WORD_VV	3014271	wordpools/wasnorm_wordpool_576.txt	LTP334	ltpFR2	22	7	<>	-1	n/a	n/a	0	0	0
1521.2490234375	n/a	DISTRACTOR	3115518	n/a	LTP334	ltpFR2	22	8	n/a	n/a	n/a	n/a	0	0	0
1521.2490234375	n/a	START	3115518	n/a	LTP334	ltpFR2	22	n/a	n/a	n/a	9	n/a	n/a	n/a	n/a
1521.26611328125	n/a	PROB	3115553	n/a	LTP334	ltpFR2	22	n/a	n/a	n/a	9	20	3	9	8
1522.720703125	n/a	PROB	3118532	n/a	LTP334	ltpFR2	22	n/a	n/a	n/a	9	21	8	5	8
1524.54296875	n/a	PROB	3122264	n/a	LTP334	ltpFR2	22	n/a	n/a	n/a	9	9	3	2	4
1526.2490234375	n/a	PROB	3125758	n/a	LTP334	ltpFR2	22	n/a	n/a	n/a	9	13	3	5	5
1527.23486328125	n/a	PROB	3127777	n/a	LTP334	ltpFR2	22	n/a	n/a	n/a	9	13	6	5	2
1528.5556640625	n/a	PROB	3130482	n/a	LTP334	ltpFR2	22	n/a	n/a	n/a	9	20	7	7	6
1530.07861328125	n/a	PROB	3133601	n/a	LTP334	ltpFR2	22	n/a	n/a	n/a	9	16	7	6	3
1531.5654296875	n/a	PROB	3136646	n/a	LTP334	ltpFR2	22	n/a	n/a	n/a	9	15	4	6	5
1533.03759765625	n/a	PROB	3139661	n/a	LTP334	ltpFR2	22	n/a	n/a	n/a	9	16	8	7	1
1534.5244140625	n/a	PROB	3142706	n/a	LTP334	ltpFR2	22	n/a	n/a	n/a	9	8	1	7	2
1535.94677734375	n/a	PROB	3145619	n/a	LTP334	ltpFR2	22	n/a	n/a	n/a	9	15	7	6	2
1537.96923828125	n/a	PROB	3149761	n/a	LTP334	ltpFR2	22	n/a	n/a	n/a	9	18	1	9	8
1539.34033203125	n/a	PROB	3152569	n/a	LTP334	ltpFR2	22	n/a	n/a	n/a	9	21	7	6	8
1541.74853515625	n/a	PROB	3157501	n/a	LTP334	ltpFR2	22	n/a	n/a	n/a	9	10	5	3	2
1543.1201171875	n/a	PROB	3160310	n/a	LTP334	ltpFR2	22	n/a	n/a	n/a	9	18	5	9	4
1544.81640625	n/a	STOP	3163784	n/a	LTP334	ltpFR2	22	n/a	n/a	n/a	9	n/a	n/a	n/a	n/a
1546.4130859375	n/a	WORD	3167054	wordpools/wasnorm_wordpool_576.txt	LTP334	ltpFR2	22	8	DASHBOARD	441	n/a	n/a	0	0	0
1549.22216796875	n/a	WORD	3172807	wordpools/wasnorm_wordpool_576.txt	LTP334	ltpFR2	22	8	FEMALE	559	n/a	n/a	0	0	0
1551.9140625	n/a	WORD	3178320	wordpools/wasnorm_wordpool_576.txt	LTP334	ltpFR2	22	8	PARTNER	1017	n/a	n/a	0	0	0
1554.68994140625	n/a	WORD	3184005	wordpools/wasnorm_wordpool_576.txt	LTP334	ltpFR2	22	8	COCKTAIL	338	n/a	n/a	0	0	0
1557.1650390625	n/a	WORD	3189074	wordpools/wasnorm_wordpool_576.txt	LTP334	ltpFR2	22	8	DUST	508	n/a	n/a	0	0	0
1559.95703125	n/a	WORD	3194792	wordpools/wasnorm_wordpool_576.txt	LTP334	ltpFR2	22	8	OINTMENT	974	n/a	n/a	0	0	0
1562.48193359375	n/a	WORD	3199963	wordpools/wasnorm_wordpool_576.txt	LTP334	ltpFR2	22	8	SCOTCH	1251	n/a	n/a	0	0	0
1565.173828125	n/a	WORD	3205476	wordpools/wasnorm_wordpool_576.txt	LTP334	ltpFR2	22	8	RUG	1215	n/a	n/a	0	0	0
1567.8486328125	n/a	WORD	3210954	wordpools/wasnorm_wordpool_576.txt	LTP334	ltpFR2	22	8	SEAFOOD	1260	n/a	n/a	0	0	0
1570.4736328125	n/a	WORD	3216330	wordpools/wasnorm_wordpool_576.txt	LTP334	ltpFR2	22	8	OYSTER	995	n/a	n/a	0	0	0
1573.232421875	n/a	WORD	3221980	wordpools/wasnorm_wordpool_576.txt	LTP334	ltpFR2	22	8	JUDGE	761	n/a	n/a	0	0	0
1575.974609375	n/a	WORD	3227596	wordpools/wasnorm_wordpool_576.txt	LTP334	ltpFR2	22	8	GAVEL	627	n/a	n/a	0	0	0
1578.4326171875	n/a	WORD	3232630	wordpools/wasnorm_wordpool_576.txt	LTP334	ltpFR2	22	8	ROBOT	1200	n/a	n/a	0	0	0
1581.20849609375	n/a	WORD	3238315	wordpools/wasnorm_wordpool_576.txt	LTP334	ltpFR2	22	8	DUSTPAN	509	n/a	n/a	0	0	0
1583.71630859375	n/a	WORD	3243451	wordpools/wasnorm_wordpool_576.txt	LTP334	ltpFR2	22	8	CURTAIN	427	n/a	n/a	0	0	0
1586.3251953125	n/a	WORD	3248794	wordpools/wasnorm_wordpool_576.txt	LTP334	ltpFR2	22	8	ARM	38	n/a	n/a	0	0	0
1588.7490234375	n/a	WORD	3253758	wordpools/wasnorm_wordpool_576.txt	LTP334	ltpFR2	22	8	STUDENT	1395	n/a	n/a	0	0	0
1591.34130859375	n/a	WORD	3259067	wordpools/wasnorm_wordpool_576.txt	LTP334	ltpFR2	22	8	HEART	697	n/a	n/a	0	0	0
1594.14990234375	n/a	WORD	3264819	wordpools/wasnorm_wordpool_576.txt	LTP334	ltpFR2	22	8	GLASS	639	n/a	n/a	0	0	0
1596.82470703125	n/a	WORD	3270297	wordpools/wasnorm_wordpool_576.txt	LTP334	ltpFR2	22	8	PORK	1108	n/a	n/a	0	0	0
1599.583984375	n/a	WORD	3275948	wordpools/wasnorm_wordpool_576.txt	LTP334	ltpFR2	22	8	MONSTER	912	n/a	n/a	0	0	0
1602.142578125	n/a	WORD	3281188	wordpools/wasnorm_wordpool_576.txt	LTP334	ltpFR2	22	8	VIRUS	1572	n/a	n/a	0	0	0
1604.80078125	n/a	WORD	3286632	wordpools/wasnorm_wordpool_576.txt	LTP334	ltpFR2	22	8	POPCORN	1104	n/a	n/a	0	0	0
1607.32568359375	n/a	WORD	3291803	wordpools/wasnorm_wordpool_576.txt	LTP334	ltpFR2	22	8	SPONGE	1355	n/a	n/a	0	0	0
1608.9306640625	n/a	START	3295090	n/a	LTP334	ltpFR2	22	n/a	n/a	n/a	10	n/a	n/a	n/a	n/a
1609.78955078125	n/a	DISTRACTOR	3296849	n/a	LTP334	ltpFR2	22	8	n/a	n/a	n/a	n/a	0	0	0
1609.80078125	n/a	PROB	3296872	n/a	LTP334	ltpFR2	22	n/a	n/a	n/a	10	18	4	7	7
1611.50537109375	n/a	PROB	3300363	n/a	LTP334	ltpFR2	22	n/a	n/a	n/a	10	23	9	6	8
1613.177734375	n/a	PROB	3303788	n/a	LTP334	ltpFR2	22	n/a	n/a	n/a	10	14	2	5	7
1615.3515625	n/a	PROB	3308240	n/a	LTP334	ltpFR2	22	n/a	n/a	n/a	10	9	4	2	3
1616.7392578125	n/a	PROB	3311082	n/a	LTP334	ltpFR2	22	n/a	n/a	n/a	10	8	1	4	3
1618.244140625	n/a	PROB	3314164	n/a	LTP334	ltpFR2	22	n/a	n/a	n/a	10	16	4	8	4
1619.84912109375	n/a	PROB	3317451	n/a	LTP334	ltpFR2	22	n/a	n/a	n/a	10	17	9	2	6
1621.63818359375	n/a	PROB	3321115	n/a	LTP334	ltpFR2	22	n/a	n/a	n/a	10	15	3	5	7
1623.193359375	n/a	PROB	3324300	n/a	LTP334	ltpFR2	22	n/a	n/a	n/a	10	8	2	3	3
1625.0673828125	n/a	PROB	3328138	n/a	LTP334	ltpFR2	22	n/a	n/a	n/a	10	17	7	9	1
1626.43701171875	n/a	PROB	3330943	n/a	LTP334	ltpFR2	22	n/a	n/a	n/a	10	19	6	8	5
1628.0771484375	n/a	PROB	3334302	n/a	LTP334	ltpFR2	22	n/a	n/a	n/a	10	18	6	5	7
1629.68115234375	n/a	PROB	3337587	n/a	LTP334	ltpFR2	22	n/a	n/a	n/a	10	19	4	8	7
1632.93017578125	n/a	STOP	3344241	n/a	LTP334	ltpFR2	22	n/a	n/a	n/a	10	n/a	n/a	n/a	n/a
1634.69775390625	n/a	REC_START	3347861	n/a	LTP334	ltpFR2	22	8	n/a	n/a	n/a	n/a	0	0	0
1635.56689453125	n/a	REC_WORD	3349641	wordpools/wasnorm_wordpool_576.txt	LTP334	ltpFR2	22	8	PORK	1108	n/a	n/a	0	0	0
1636.43994140625	n/a	REC_WORD	3351429	wordpools/wasnorm_wordpool_576.txt	LTP334	ltpFR2	22	8	MONSTER	912	n/a	n/a	0	0	0
1637.25	n/a	REC_WORD	3353088	wordpools/wasnorm_wordpool_576.txt	LTP334	ltpFR2	22	8	VIRUS	1572	n/a	n/a	0	0	0
1638.61279296875	n/a	REC_WORD	3355879	wordpools/wasnorm_wordpool_576.txt	LTP334	ltpFR2	22	8	OYSTER	995	n/a	n/a	0	0	0
1640.86279296875	n/a	REC_WORD_VV	3360487	wordpools/wasnorm_wordpool_576.txt	LTP334	ltpFR2	22	8	<>	-1	n/a	n/a	0	0	0
1641.06787109375	n/a	REC_WORD	3360907	wordpools/wasnorm_wordpool_576.txt	LTP334	ltpFR2	22	8	FEMALE	559	n/a	n/a	0	0	0
1642.11865234375	n/a	REC_WORD	3363059	wordpools/wasnorm_wordpool_576.txt	LTP334	ltpFR2	22	8	PARTNER	1017	n/a	n/a	0	0	0
1644.20263671875	n/a	REC_WORD	3367327	wordpools/wasnorm_wordpool_576.txt	LTP334	ltpFR2	22	8	ARM	38	n/a	n/a	0	0	0
1645.10546875	n/a	REC_WORD	3369176	wordpools/wasnorm_wordpool_576.txt	LTP334	ltpFR2	22	8	SPONGE	1355	n/a	n/a	0	0	0
1645.853515625	n/a	REC_WORD	3370708	wordpools/wasnorm_wordpool_576.txt	LTP334	ltpFR2	22	8	HEART	697	n/a	n/a	0	0	0
1646.98583984375	n/a	REC_WORD	3373027	wordpools/wasnorm_wordpool_576.txt	LTP334	ltpFR2	22	8	GLASS	639	n/a	n/a	0	0	0
1648.29736328125	n/a	REC_WORD	3375713	wordpools/wasnorm_wordpool_576.txt	LTP334	ltpFR2	22	8	DUSTPAN	509	n/a	n/a	0	0	0
1649.30859375	n/a	REC_WORD	3377784	wordpools/wasnorm_wordpool_576.txt	LTP334	ltpFR2	22	8	DASHBOARD	441	n/a	n/a	0	0	0
1651.0625	n/a	REC_WORD_VV	3381376	wordpools/wasnorm_wordpool_576.txt	LTP334	ltpFR2	22	8	<>	-1	n/a	n/a	0	0	0
1653.28466796875	n/a	REC_WORD	3385927	wordpools/wasnorm_wordpool_576.txt	LTP334	ltpFR2	22	8	POPCORN	1104	n/a	n/a	0	0	0
1655.0166015625	n/a	REC_WORD	3389474	wordpools/wasnorm_wordpool_576.txt	LTP334	ltpFR2	22	8	SPONGE	1355	n/a	n/a	0	0	0
1658.4404296875	n/a	REC_WORD_VV	3396486	wordpools/wasnorm_wordpool_576.txt	LTP334	ltpFR2	22	8	<>	-1	n/a	n/a	0	0	0
1662.29931640625	n/a	REC_WORD	3404389	wordpools/wasnorm_wordpool_576.txt	LTP334	ltpFR2	22	8	ROBOT	1200	n/a	n/a	0	0	0
1663.2392578125	n/a	REC_WORD	3406314	wordpools/wasnorm_wordpool_576.txt	LTP334	ltpFR2	22	8	CURTAIN	427	n/a	n/a	0	0	0
1667.14990234375	n/a	REC_WORD_VV	3414323	wordpools/wasnorm_wordpool_576.txt	LTP334	ltpFR2	22	8	<>	-1	n/a	n/a	0	0	0
1668.94482421875	n/a	REC_WORD	3417999	wordpools/wasnorm_wordpool_576.txt	LTP334	ltpFR2	22	8	STUDENT	1395	n/a	n/a	0	0	0
1711.22607421875	n/a	REST_REWET	3504591	n/a	LTP334	ltpFR2	22	8	n/a	n/a	n/a	n/a	0	0	0
1792.0869140625	n/a	DISTRACTOR	3670194	n/a	LTP334	ltpFR2	22	9	n/a	n/a	n/a	n/a	0	0	0
1792.0869140625	n/a	START	3670194	n/a	LTP334	ltpFR2	22	n/a	n/a	n/a	11	n/a	n/a	n/a	n/a
1792.10400390625	n/a	PROB	3670229	n/a	LTP334	ltpFR2	22	n/a	n/a	n/a	11	15	5	3	7
1793.8916015625	n/a	PROB	3673890	n/a	LTP334	ltpFR2	22	n/a	n/a	n/a	11	19	5	6	8
1795.52978515625	n/a	PROB	3677245	n/a	LTP334	ltpFR2	22	n/a	n/a	n/a	11	10	3	3	4
1796.80078125	n/a	PROB	3679848	n/a	LTP334	ltpFR2	22	n/a	n/a	n/a	11	18	3	6	9
1798.7734375	n/a	PROB	3683888	n/a	LTP334	ltpFR2	22	n/a	n/a	n/a	11	7	2	4	1
1800.0126953125	n/a	PROB	3686426	n/a	LTP334	ltpFR2	22	n/a	n/a	n/a	11	15	7	4	4
1801.599609375	n/a	PROB	3689676	n/a	LTP334	ltpFR2	22	n/a	n/a	n/a	11	20	5	6	9
1803.03857421875	n/a	PROB	3692623	n/a	LTP334	ltpFR2	22	n/a	n/a	n/a	11	13	4	2	7
1804.25830078125	n/a	PROB	3695121	n/a	LTP334	ltpFR2	22	n/a	n/a	n/a	11	13	2	6	5
1805.86328125	n/a	PROB	3698408	n/a	LTP334	ltpFR2	22	n/a	n/a	n/a	11	20	6	9	5
1807.3515625	n/a	PROB	3701456	n/a	LTP334	ltpFR2	22	n/a	n/a	n/a	11	12	3	6	3
1808.58837890625	n/a	PROB	3703989	n/a	LTP334	ltpFR2	22	n/a	n/a	n/a	11	15	8	6	1
1809.8935546875	n/a	PROB	3706662	n/a	LTP334	ltpFR2	22	n/a	n/a	n/a	11	20	2	9	9
1811.08154296875	n/a	PROB	3709095	n/a	LTP334	ltpFR2	22	n/a	n/a	n/a	11	15	7	6	2
1812.38427734375	n/a	PROB	3711763	n/a	LTP334	ltpFR2	22	n/a	n/a	n/a	11	12	2	7	3
1814.42431640625	n/a	PROB	3715941	n/a	LTP334	ltpFR2	22	n/a	n/a	n/a	11	10	2	7	1
1815.54443359375	n/a	STOP	3718235	n/a	LTP334	ltpFR2	22	n/a	n/a	n/a	11	n/a	n/a	n/a	n/a
1817.01708984375	n/a	WORD	3721251	wordpools/wasnorm_wordpool_576.txt	LTP334	ltpFR2	22	9	POCKET	1093	n/a	n/a	0	0	0
1819.75830078125	n/a	WORD	3726865	wordpools/wasnorm_wordpool_576.txt	LTP334	ltpFR2	22	9	BANK	83	n/a	n/a	0	0	0
1822.3330078125	n/a	WORD	3732138	wordpools/wasnorm_wordpool_576.txt	LTP334	ltpFR2	22	9	VALLEY	1545	n/a	n/a	0	0	0
1824.97509765625	n/a	WORD	3737549	wordpools/wasnorm_wordpool_576.txt	LTP334	ltpFR2	22	9	OUTLAW	989	n/a	n/a	0	0	0
1827.69970703125	n/a	WORD	3743129	wordpools/wasnorm_wordpool_576.txt	LTP334	ltpFR2	22	9	PREACHER	1119	n/a	n/a	0	0	0
1830.5087890625	n/a	WORD	3748882	wordpools/wasnorm_wordpool_576.txt	LTP334	ltpFR2	22	9	COD	340	n/a	n/a	0	0	0
1833.20068359375	n/a	WORD	3754395	wordpools/wasnorm_wordpool_576.txt	LTP334	ltpFR2	22	9	CONTRACT	368	n/a	n/a	0	0	0
1835.95947265625	n/a	WORD	3760045	wordpools/wasnorm_wordpool_576.txt	LTP334	ltpFR2	22	9	GARDEN	623	n/a	n/a	0	0	0
1838.6357421875	n/a	WORD	3765526	wordpools/wasnorm_wordpool_576.txt	LTP334	ltpFR2	22	9	VIKING	1565	n/a	n/a	0	0	0
1841.1435546875	n/a	WORD	3770662	wordpools/wasnorm_wordpool_576.txt	LTP334	ltpFR2	22	9	SHELTER	1282	n/a	n/a	0	0	0
1843.83544921875	n/a	WORD	3776175	wordpools/wasnorm_wordpool_576.txt	LTP334	ltpFR2	22	9	BOYFRIEND	162	n/a	n/a	0	0	0
1846.560546875	n/a	WORD	3781756	wordpools/wasnorm_wordpool_576.txt	LTP334	ltpFR2	22	9	TUNNEL	1519	n/a	n/a	0	0	0
1849.15234375	n/a	WORD	3787064	wordpools/wasnorm_wordpool_576.txt	LTP334	ltpFR2	22	9	CASKET	255	n/a	n/a	0	0	0
1851.71044921875	n/a	WORD	3792303	wordpools/wasnorm_wordpool_576.txt	LTP334	ltpFR2	22	9	VICTIM	1562	n/a	n/a	0	0	0
1854.2021484375	n/a	WORD	3797406	wordpools/wasnorm_wordpool_576.txt	LTP334	ltpFR2	22	9	CAPTIVE	240	n/a	n/a	0	0	0
1856.72705078125	n/a	WORD	3802577	wordpools/wasnorm_wordpool_576.txt	LTP334	ltpFR2	22	9	HIGHWAY	707	n/a	n/a	0	0	0
1859.15087890625	n/a	WORD	3807541	wordpools/wasnorm_wordpool_576.txt	LTP334	ltpFR2	22	9	SIDEWALK	1303	n/a	n/a	0	0	0
1861.8427734375	n/a	WORD	3813054	wordpools/wasnorm_wordpool_576.txt	LTP334	ltpFR2	22	9	PECAN	1036	n/a	n/a	0	0	0
1864.31787109375	n/a	WORD	3818123	wordpools/wasnorm_wordpool_576.txt	LTP334	ltpFR2	22	9	WAGON	1578	n/a	n/a	0	0	0
1867.11083984375	n/a	WORD	3823843	wordpools/wasnorm_wordpool_576.txt	LTP334	ltpFR2	22	9	PARSLEY	1016	n/a	n/a	0	0	0
1869.55078125	n/a	WORD	3828840	wordpools/wasnorm_wordpool_576.txt	LTP334	ltpFR2	22	9	COSTUME	383	n/a	n/a	0	0	0
1871.99267578125	n/a	WORD	3833841	wordpools/wasnorm_wordpool_576.txt	LTP334	ltpFR2	22	9	PEACH	1031	n/a	n/a	0	0	0
1874.58349609375	n/a	WORD	3839147	wordpools/wasnorm_wordpool_576.txt	LTP334	ltpFR2	22	9	SOFTBALL	1343	n/a	n/a	0	0	0
1877.12646484375	n/a	WORD	3844355	wordpools/wasnorm_wordpool_576.txt	LTP334	ltpFR2	22	9	TROUT	1511	n/a	n/a	0	0	0
1878.73046875	n/a	START	3847640	n/a	LTP334	ltpFR2	22	n/a	n/a	n/a	12	n/a	n/a	n/a	n/a
1879.86328125	n/a	DISTRACTOR	3849960	n/a	LTP334	ltpFR2	22	9	n/a	n/a	n/a	n/a	0	0	0
1879.86767578125	n/a	PROB	3849969	n/a	LTP334	ltpFR2	22	n/a	n/a	n/a	12	13	8	2	3
1881.4892578125	n/a	PROB	3853290	n/a	LTP334	ltpFR2	22	n/a	n/a	n/a	12	17	7	6	4
1883.1455078125	n/a	PROB	3856682	n/a	LTP334	ltpFR2	22	n/a	n/a	n/a	12	14	2	8	4
1884.5166015625	n/a	PROB	3859490	n/a	LTP334	ltpFR2	22	n/a	n/a	n/a	12	23	9	7	7
1886.072265625	n/a	PROB	3862676	n/a	LTP334	ltpFR2	22	n/a	n/a	n/a	12	12	4	4	4
1887.55908203125	n/a	PROB	3865721	n/a	LTP334	ltpFR2	22	n/a	n/a	n/a	12	10	8	1	1
1888.478515625	n/a	PROB	3867604	n/a	LTP334	ltpFR2	22	n/a	n/a	n/a	12	19	4	9	6
1890.21728515625	n/a	PROB	3871165	n/a	LTP334	ltpFR2	22	n/a	n/a	n/a	12	6	1	1	4
1891.3212890625	n/a	PROB	3873426	n/a	LTP334	ltpFR2	22	n/a	n/a	n/a	12	11	8	7	4
1892.9091796875	n/a	PROB	3876678	n/a	LTP334	ltpFR2	22	n/a	n/a	n/a	12	19	8	9	2
1895.0009765625	n/a	PROB	3880962	n/a	LTP334	ltpFR2	22	n/a	n/a	n/a	12	17	7	1	9
1896.62109375	n/a	PROB	3884280	n/a	LTP334	ltpFR2	22	n/a	n/a	n/a	12	12	7	3	2
1898.11083984375	n/a	PROB	3887331	n/a	LTP334	ltpFR2	22	n/a	n/a	n/a	12	14	5	8	1
1900.3330078125	n/a	PROB	3891882	n/a	LTP334	ltpFR2	22	n/a	n/a	n/a	12	15	3	5	7
1901.72900390625	n/a	STOP	3894741	n/a	LTP334	ltpFR2	22	n/a	n/a	n/a	12	n/a	n/a	n/a	n/a
1904.5986328125	n/a	REC_START	3900618	n/a	LTP334	ltpFR2	22	9	n/a	n/a	n/a	n/a	0	0	0
1905.53173828125	n/a	REC_WORD	3902529	wordpools/wasnorm_wordpool_576.txt	LTP334	ltpFR2	22	9	COD	340	n/a	n/a	0	0	0
1906.0166015625	n/a	REC_WORD	3903522	wordpools/wasnorm_wordpool_576.txt	LTP334	ltpFR2	22	9	TROUT	1511	n/a	n/a	0	0	0
1907.11767578125	n/a	REC_WORD_VV	3905777	wordpools/wasnorm_wordpool_576.txt	LTP334	ltpFR2	22	9	<>	-1	n/a	n/a	0	0	0
1909.474609375	n/a	REC_WORD	3910604	wordpools/wasnorm_wordpool_576.txt	LTP334	ltpFR2	22	9	VALLEY	1545	n/a	n/a	0	0	0
1911.02783203125	n/a	REC_WORD	3913785	wordpools/wasnorm_wordpool_576.txt	LTP334	ltpFR2	22	9	CAPTIVE	240	n/a	n/a	0	0	0
1911.9384765625	n/a	REC_WORD	3915650	wordpools/wasnorm_wordpool_576.txt	LTP334	ltpFR2	22	9	OUTLAW	989	n/a	n/a	0	0	0
1912.8984375	n/a	REC_WORD	3917616	wordpools/wasnorm_wordpool_576.txt	LTP334	ltpFR2	22	9	VICTIM	1562	n/a	n/a	0	0	0
1913.37548828125	n/a	REC_WORD	3918593	wordpools/wasnorm_wordpool_576.txt	LTP334	ltpFR2	22	9	CASKET	255	n/a	n/a	0	0	0
1914.3974609375	n/a	REC_WORD	3920686	wordpools/wasnorm_wordpool_576.txt	LTP334	ltpFR2	22	9	PREACHER	1119	n/a	n/a	0	0	0
1915.11181640625	n/a	REC_WORD	3922149	wordpools/wasnorm_wordpool_576.txt	LTP334	ltpFR2	22	9	HIGHWAY	707	n/a	n/a	0	0	0
1915.8955078125	n/a	REC_WORD	3923754	wordpools/wasnorm_wordpool_576.txt	LTP334	ltpFR2	22	9	TUNNEL	1519	n/a	n/a	0	0	0
1916.4287109375	n/a	REC_WORD	3924846	wordpools/wasnorm_wordpool_576.txt	LTP334	ltpFR2	22	9	WAGON	1578	n/a	n/a	0	0	0
1917.36865234375	n/a	REC_WORD	3926771	wordpools/wasnorm_wordpool_576.txt	LTP334	ltpFR2	22	9	PARSLEY	1016	n/a	n/a	0	0	0
1918.890625	n/a	REC_WORD_VV	3929888	wordpools/wasnorm_wordpool_576.txt	LTP334	ltpFR2	22	9	<>	-1	n/a	n/a	0	0	0
1925.8193359375	n/a	REC_WORD_VV	3944078	wordpools/wasnorm_wordpool_576.txt	LTP334	ltpFR2	22	9	<>	-1	n/a	n/a	0	0	0
1932.7939453125	n/a	REC_WORD	3958362	wordpools/wasnorm_wordpool_576.txt	LTP334	ltpFR2	22	9	POCKET	1093	n/a	n/a	0	0	0
1934.5751953125	n/a	REC_WORD_VV	3962010	wordpools/wasnorm_wordpool_576.txt	LTP334	ltpFR2	22	9	<>	-1	n/a	n/a	0	0	0
1938.7119140625	n/a	REC_WORD	3970482	wordpools/wasnorm_wordpool_576.txt	LTP334	ltpFR2	22	9	BANK	83	n/a	n/a	0	0	0
1941.427734375	n/a	REC_WORD_VV	3976044	wordpools/wasnorm_wordpool_576.txt	LTP334	ltpFR2	22	9	<>	-1	n/a	n/a	0	0	0
1950.69287109375	n/a	REC_WORD	3995019	wordpools/wasnorm_wordpool_576.txt	LTP334	ltpFR2	22	9	GARDEN	623	n/a	n/a	0	0	0
1995.03857421875	n/a	DISTRACTOR	4085839	n/a	LTP334	ltpFR2	22	10	n/a	n/a	n/a	n/a	0	0	0
1995.03857421875	n/a	START	4085839	n/a	LTP334	ltpFR2	22	n/a	n/a	n/a	13	n/a	n/a	n/a	n/a
1995.0556640625	n/a	PROB	4085874	n/a	LTP334	ltpFR2	22	n/a	n/a	n/a	13	14	2	5	7
1996.87646484375	n/a	PROB	4089603	n/a	LTP334	ltpFR2	22	n/a	n/a	n/a	13	22	9	5	8
1999.869140625	n/a	PROB	4095732	n/a	LTP334	ltpFR2	22	n/a	n/a	n/a	13	12	2	1	9
2000.8564453125	n/a	PROB	4097754	n/a	LTP334	ltpFR2	22	n/a	n/a	n/a	13	12	7	1	4
2002.0615234375	n/a	PROB	4100222	n/a	LTP334	ltpFR2	22	n/a	n/a	n/a	13	25	8	8	7
2004.21728515625	n/a	PROB	4104637	n/a	LTP334	ltpFR2	22	n/a	n/a	n/a	13	9	3	1	5
2006.0244140625	n/a	PROB	4108338	n/a	LTP334	ltpFR2	22	n/a	n/a	n/a	13	9	1	6	2
2007.6611328125	n/a	PROB	4111690	n/a	LTP334	ltpFR2	22	n/a	n/a	n/a	13	11	7	2	2
2008.9150390625	n/a	PROB	4114258	n/a	LTP334	ltpFR2	22	n/a	n/a	n/a	13	5	1	3	1
2009.85205078125	n/a	PROB	4116177	n/a	LTP334	ltpFR2	22	n/a	n/a	n/a	13	11	1	2	8
2010.93896484375	n/a	PROB	4118403	n/a	LTP334	ltpFR2	22	n/a	n/a	n/a	13	13	2	6	5
2012.1591796875	n/a	PROB	4120902	n/a	LTP334	ltpFR2	22	n/a	n/a	n/a	13	17	8	3	6
2014.14892578125	n/a	PROB	4124977	n/a	LTP334	ltpFR2	22	n/a	n/a	n/a	13	10	4	2	4
2015.453125	n/a	PROB	4127648	n/a	LTP334	ltpFR2	22	n/a	n/a	n/a	13	9	1	4	4
2016.48974609375	n/a	PROB	4129771	n/a	LTP334	ltpFR2	22	n/a	n/a	n/a	13	10	2	2	4
2017.81689453125	n/a	STOP	4132489	n/a	LTP334	ltpFR2	22	n/a	n/a	n/a	13	n/a	n/a	n/a	n/a
2019.90087890625	n/a	WORD	4136757	wordpools/wasnorm_wordpool_576.txt	LTP334	ltpFR2	22	10	ROD	1203	n/a	n/a	0	0	0
2022.40869140625	n/a	WORD	4141893	wordpools/wasnorm_wordpool_576.txt	LTP334	ltpFR2	22	10	BRANCH	168	n/a	n/a	0	0	0
2025.1845703125	n/a	WORD	4147578	wordpools/wasnorm_wordpool_576.txt	LTP334	ltpFR2	22	10	MEAT	883	n/a	n/a	0	0	0
2027.87646484375	n/a	WORD	4153091	wordpools/wasnorm_wordpool_576.txt	LTP334	ltpFR2	22	10	ICING	732	n/a	n/a	0	0	0
2030.685546875	n/a	WORD	4158844	wordpools/wasnorm_wordpool_576.txt	LTP334	ltpFR2	22	10	MUFFIN	929	n/a	n/a	0	0	0
2033.17626953125	n/a	WORD	4163945	wordpools/wasnorm_wordpool_576.txt	LTP334	ltpFR2	22	10	PERCH	1048	n/a	n/a	0	0	0
2035.685546875	n/a	WORD	4169084	wordpools/wasnorm_wordpool_576.txt	LTP334	ltpFR2	22	10	MOP	916	n/a	n/a	0	0	0
2038.193359375	n/a	WORD	4174220	wordpools/wasnorm_wordpool_576.txt	LTP334	ltpFR2	22	10	CLOUD	328	n/a	n/a	0	0	0
2040.68408203125	n/a	WORD	4179321	wordpools/wasnorm_wordpool_576.txt	LTP334	ltpFR2	22	10	POWDER	1117	n/a	n/a	0	0	0
2043.2421875	n/a	WORD	4184560	wordpools/wasnorm_wordpool_576.txt	LTP334	ltpFR2	22	10	MILDEW	893	n/a	n/a	0	0	0
2045.7841796875	n/a	WORD	4189766	wordpools/wasnorm_wordpool_576.txt	LTP334	ltpFR2	22	10	LIGHTNING	820	n/a	n/a	0	0	0
2048.3759765625	n/a	WORD	4195074	wordpools/wasnorm_wordpool_576.txt	LTP334	ltpFR2	22	10	LUNCH	849	n/a	n/a	0	0	0
2051.0849609375	n/a	WORD	4200622	wordpools/wasnorm_wordpool_576.txt	LTP334	ltpFR2	22	10	SHERIFF	1284	n/a	n/a	0	0	0
2053.55908203125	n/a	WORD	4205689	wordpools/wasnorm_wordpool_576.txt	LTP334	ltpFR2	22	10	PATROL	1027	n/a	n/a	0	0	0
2056.1337890625	n/a	WORD	4210962	wordpools/wasnorm_wordpool_576.txt	LTP334	ltpFR2	22	10	CHURCH	307	n/a	n/a	0	0	0
2058.82568359375	n/a	WORD	4216475	wordpools/wasnorm_wordpool_576.txt	LTP334	ltpFR2	22	10	CHILD	299	n/a	n/a	0	0	0
2061.31787109375	n/a	WORD	4221579	wordpools/wasnorm_wordpool_576.txt	LTP334	ltpFR2	22	10	RAZOR	1171	n/a	n/a	0	0	0
2063.92578125	n/a	WORD	4226920	wordpools/wasnorm_wordpool_576.txt	LTP334	ltpFR2	22	10	SPOON	1357	n/a	n/a	0	0	0
2066.634765625	n/a	WORD	4232468	wordpools/wasnorm_wordpool_576.txt	LTP334	ltpFR2	22	10	CLOCK	325	n/a	n/a	0	0	0
2069.17578125	n/a	WORD	4237672	wordpools/wasnorm_wordpool_576.txt	LTP334	ltpFR2	22	10	HOSTESS	723	n/a	n/a	0	0	0
2071.78466796875	n/a	WORD	4243015	wordpools/wasnorm_wordpool_576.txt	LTP334	ltpFR2	22	10	FLAG	573	n/a	n/a	0	0	0
2074.4921875	n/a	WORD	4248560	wordpools/wasnorm_wordpool_576.txt	LTP334	ltpFR2	22	10	GLOBE	641	n/a	n/a	0	0	0
2077.185546875	n/a	WORD	4254076	wordpools/wasnorm_wordpool_576.txt	LTP334	ltpFR2	22	10	SLIME	1327	n/a	n/a	0	0	0
2079.8603515625	n/a	WORD	4259554	wordpools/wasnorm_wordpool_576.txt	LTP334	ltpFR2	22	10	EUROPE	541	n/a	n/a	0	0	0
2081.46533203125	n/a	START	4262841	n/a	LTP334	ltpFR2	22	n/a	n/a	n/a	14	n/a	n/a	n/a	n/a
2082.572265625	n/a	DISTRACTOR	4265108	n/a	LTP334	ltpFR2	22	10	n/a	n/a	n/a	n/a	0	0	0
2082.5849609375	n/a	PROB	4265134	n/a	LTP334	ltpFR2	22	n/a	n/a	n/a	14	21	9	9	3
2085.0283203125	n/a	PROB	4270138	n/a	LTP334	ltpFR2	22	n/a	n/a	n/a	14	11	2	3	6
2086.43115234375	n/a	PROB	4273011	n/a	LTP334	ltpFR2	22	n/a	n/a	n/a	14	11	2	6	3
2088.9560546875	n/a	PROB	4278182	n/a	LTP334	ltpFR2	22	n/a	n/a	n/a	14	16	3	4	9
2090.5107421875	n/a	PROB	4281366	n/a	LTP334	ltpFR2	22	n/a	n/a	n/a	14	14	2	3	9
2092.81884765625	n/a	PROB	4286093	n/a	LTP334	ltpFR2	22	n/a	n/a	n/a	14	24	6	8	8
2094.60791015625	n/a	PROB	4289757	n/a	LTP334	ltpFR2	22	n/a	n/a	n/a	14	11	3	6	2
2096.64697265625	n/a	PROB	4293933	n/a	LTP334	ltpFR2	22	n/a	n/a	n/a	14	8	2	3	3
2098.4697265625	n/a	PROB	4297666	n/a	LTP334	ltpFR2	22	n/a	n/a	n/a	14	8	1	2	5
2099.7578125	n/a	PROB	4300304	n/a	LTP334	ltpFR2	22	n/a	n/a	n/a	14	21	5	9	7
2101.66357421875	n/a	PROB	4304207	n/a	LTP334	ltpFR2	22	n/a	n/a	n/a	14	16	9	4	3
2103.435546875	n/a	PROB	4307836	n/a	LTP334	ltpFR2	22	n/a	n/a	n/a	14	14	7	3	4
2104.56982421875	n/a	STOP	4310159	n/a	LTP334	ltpFR2	22	n/a	n/a	n/a	14	n/a	n/a	n/a	n/a
2107.3154296875	n/a	REC_START	4315782	n/a	LTP334	ltpFR2	22	10	n/a	n/a	n/a	n/a	0	0	0
2108.00048828125	n/a	REC_WORD	4317185	wordpools/wasnorm_wordpool_576.txt	LTP334	ltpFR2	22	10	RAZOR	1171	n/a	n/a	0	0	0
2108.74365234375	n/a	REC_WORD	4318707	wordpools/wasnorm_wordpool_576.txt	LTP334	ltpFR2	22	10	SPOON	1357	n/a	n/a	0	0	0
2109.49853515625	n/a	REC_WORD	4320253	wordpools/wasnorm_wordpool_576.txt	LTP334	ltpFR2	22	10	HOSTESS	723	n/a	n/a	0	0	0
2110.32666015625	n/a	REC_WORD	4321949	wordpools/wasnorm_wordpool_576.txt	LTP334	ltpFR2	22	10	SLIME	1327	n/a	n/a	0	0	0
2110.9912109375	n/a	REC_WORD	4323310	wordpools/wasnorm_wordpool_576.txt	LTP334	ltpFR2	22	10	EUROPE	541	n/a	n/a	0	0	0
2111.681640625	n/a	REC_WORD	4324724	wordpools/wasnorm_wordpool_576.txt	LTP334	ltpFR2	22	10	GLOBE	641	n/a	n/a	0	0	0
2112.21240234375	n/a	REC_WORD	4325811	wordpools/wasnorm_wordpool_576.txt	LTP334	ltpFR2	22	10	FLAG	573	n/a	n/a	0	0	0
2114.00048828125	n/a	REC_WORD_VV	4329473	wordpools/wasnorm_wordpool_576.txt	LTP334	ltpFR2	22	10	<>	-1	n/a	n/a	0	0	0
2120.9423828125	n/a	REC_WORD	4343690	wordpools/wasnorm_wordpool_576.txt	LTP334	ltpFR2	22	10	CLOCK	325	n/a	n/a	0	0	0
2127.7587890625	n/a	REC_WORD_VV	4357650	wordpools/wasnorm_wordpool_576.txt	LTP334	ltpFR2	22	10	<>	-1	n/a	n/a	0	0	0
2133.1220703125	n/a	REC_WORD	4368634	wordpools/wasnorm_wordpool_576.txt	LTP334	ltpFR2	22	10	CHURCH	307	n/a	n/a	0	0	0
2133.87890625	n/a	REC_WORD	4370184	wordpools/wasnorm_wordpool_576.txt	LTP334	ltpFR2	22	10	CHILD	299	n/a	n/a	0	0	0
2136.095703125	n/a	REC_WORD	4374724	wordpools/wasnorm_wordpool_576.txt	LTP334	ltpFR2	22	10	SHERIFF	1284	n/a	n/a	0	0	0
2137.15576171875	n/a	REC_WORD	4376895	wordpools/wasnorm_wordpool_576.txt	LTP334	ltpFR2	22	10	PATROL	1027	n/a	n/a	0	0	0
2142.2294921875	n/a	REC_WORD_VV	4387286	wordpools/wasnorm_wordpool_576.txt	LTP334	ltpFR2	22	10	<>	-1	n/a	n/a	0	0	0
2197.75537109375	n/a	DISTRACTOR	4501003	n/a	LTP334	ltpFR2	22	11	n/a	n/a	n/a	n/a	0	0	0
2197.75634765625	n/a	START	4501005	n/a	LTP334	ltpFR2	22	n/a	n/a	n/a	15	n/a	n/a	n/a	n/a
2197.77197265625	n/a	PROB	4501037	n/a	LTP334	ltpFR2	22	n/a	n/a	n/a	15	14	4	4	6
2199.34423828125	n/a	PROB	4504257	n/a	LTP334	ltpFR2	22	n/a	n/a	n/a	15	15	6	1	8
2200.88232421875	n/a	PROB	4507407	n/a	LTP334	ltpFR2	22	n/a	n/a	n/a	15	15	5	8	2
2202.037109375	n/a	PROB	4509772	n/a	LTP334	ltpFR2	22	n/a	n/a	n/a	15	19	7	7	5
2203.9931640625	n/a	PROB	4513778	n/a	LTP334	ltpFR2	22	n/a	n/a	n/a	15	16	5	7	4
2205.6640625	n/a	PROB	4517200	n/a	LTP334	ltpFR2	22	n/a	n/a	n/a	15	20	6	8	6
2207.26904296875	n/a	PROB	4520487	n/a	LTP334	ltpFR2	22	n/a	n/a	n/a	15	24	8	8	8
2209.27587890625	n/a	PROB	4524597	n/a	LTP334	ltpFR2	22	n/a	n/a	n/a	15	11	4	6	1
2210.36279296875	n/a	PROB	4526823	n/a	LTP334	ltpFR2	22	n/a	n/a	n/a	15	12	1	5	6
2212.75390625	n/a	PROB	4531720	n/a	LTP334	ltpFR2	22	n/a	n/a	n/a	15	14	3	3	8
2214.7099609375	n/a	PROB	4535726	n/a	LTP334	ltpFR2	22	n/a	n/a	n/a	15	15	5	8	2
2215.83056640625	n/a	PROB	4538021	n/a	LTP334	ltpFR2	22	n/a	n/a	n/a	15	16	5	6	5
2217.20166015625	n/a	PROB	4540829	n/a	LTP334	ltpFR2	22	n/a	n/a	n/a	15	14	8	1	5
2219.20751953125	n/a	PROB	4544937	n/a	LTP334	ltpFR2	22	n/a	n/a	n/a	15	11	4	3	4
2220.62548828125	n/a	STOP	4547841	n/a	LTP334	ltpFR2	22	n/a	n/a	n/a	15	n/a	n/a	n/a	n/a
2222.75244140625	n/a	WORD	4552197	wordpools/wasnorm_wordpool_576.txt	LTP334	ltpFR2	22	11	TWISTER	1530	n/a	n/a	0	0	0
2225.310546875	n/a	WORD	4557436	wordpools/wasnorm_wordpool_576.txt	LTP334	ltpFR2	22	11	HEADBAND	696	n/a	n/a	0	0	0
2227.80224609375	n/a	WORD	4562539	wordpools/wasnorm_wordpool_576.txt	LTP334	ltpFR2	22	11	BLOUSE	139	n/a	n/a	0	0	0
2230.3935546875	n/a	WORD	4567846	wordpools/wasnorm_wordpool_576.txt	LTP334	ltpFR2	22	11	THIEF	1456	n/a	n/a	0	0	0
2233.0361328125	n/a	WORD	4573258	wordpools/wasnorm_wordpool_576.txt	LTP334	ltpFR2	22	11	TURNIP	1521	n/a	n/a	0	0	0
2235.626953125	n/a	WORD	4578564	wordpools/wasnorm_wordpool_576.txt	LTP334	ltpFR2	22	11	SHORTCAKE	1292	n/a	n/a	0	0	0
2238.369140625	n/a	WORD	4584180	wordpools/wasnorm_wordpool_576.txt	LTP334	ltpFR2	22	11	PILOT	1070	n/a	n/a	0	0	0
2240.94384765625	n/a	WORD	4589453	wordpools/wasnorm_wordpool_576.txt	LTP334	ltpFR2	22	11	IDOL	733	n/a	n/a	0	0	0
2243.7197265625	n/a	WORD	4595138	wordpools/wasnorm_wordpool_576.txt	LTP334	ltpFR2	22	11	DOLPHIN	483	n/a	n/a	0	0	0
2246.27783203125	n/a	WORD	4600377	wordpools/wasnorm_wordpool_576.txt	LTP334	ltpFR2	22	11	PASTRY	1022	n/a	n/a	0	0	0
2249.087890625	n/a	WORD	4606132	wordpools/wasnorm_wordpool_576.txt	LTP334	ltpFR2	22	11	NOTEBOOK	959	n/a	n/a	0	0	0
2251.64599609375	n/a	WORD	4611371	wordpools/wasnorm_wordpool_576.txt	LTP334	ltpFR2	22	11	REPORT	1184	n/a	n/a	0	0	0
2254.169921875	n/a	WORD	4616540	wordpools/wasnorm_wordpool_576.txt	LTP334	ltpFR2	22	11	BOARD	143	n/a	n/a	0	0	0
2256.79443359375	n/a	WORD	4621915	wordpools/wasnorm_wordpool_576.txt	LTP334	ltpFR2	22	11	CANYON	235	n/a	n/a	0	0	0
2259.48779296875	n/a	WORD	4627431	wordpools/wasnorm_wordpool_576.txt	LTP334	ltpFR2	22	11	TEMPLE	1448	n/a	n/a	0	0	0
2262.07958984375	n/a	WORD	4632739	wordpools/wasnorm_wordpool_576.txt	LTP334	ltpFR2	22	11	INMATE	738	n/a	n/a	0	0	0
2264.6533203125	n/a	WORD	4638010	wordpools/wasnorm_wordpool_576.txt	LTP334	ltpFR2	22	11	MISSILE	900	n/a	n/a	0	0	0
2267.42919921875	n/a	WORD	4643695	wordpools/wasnorm_wordpool_576.txt	LTP334	ltpFR2	22	11	WIDOW	1608	n/a	n/a	0	0	0
2270.00537109375	n/a	WORD	4648971	wordpools/wasnorm_wordpool_576.txt	LTP334	ltpFR2	22	11	ANKLE	24	n/a	n/a	0	0	0
2272.51220703125	n/a	WORD	4654105	wordpools/wasnorm_wordpool_576.txt	LTP334	ltpFR2	22	11	FUNGUS	614	n/a	n/a	0	0	0
2275.27099609375	n/a	WORD	4659755	wordpools/wasnorm_wordpool_576.txt	LTP334	ltpFR2	22	11	ORCHID	982	n/a	n/a	0	0	0
2278.0810546875	n/a	WORD	4665510	wordpools/wasnorm_wordpool_576.txt	LTP334	ltpFR2	22	11	KNAPSACK	783	n/a	n/a	0	0	0
2280.88916015625	n/a	WORD	4671261	wordpools/wasnorm_wordpool_576.txt	LTP334	ltpFR2	22	11	FIREMAN	569	n/a	n/a	0	0	0
2283.4638671875	n/a	WORD	4676534	wordpools/wasnorm_wordpool_576.txt	LTP334	ltpFR2	22	11	DRILL	497	n/a	n/a	0	0	0
2285.07080078125	n/a	START	4679825	n/a	LTP334	ltpFR2	22	n/a	n/a	n/a	16	n/a	n/a	n/a	n/a
2286.18701171875	n/a	DISTRACTOR	4682111	n/a	LTP334	ltpFR2	22	11	n/a	n/a	n/a	n/a	0	0	0
2286.18994140625	n/a	PROB	4682117	n/a	LTP334	ltpFR2	22	n/a	n/a	n/a	16	13	2	9	2
2287.9287109375	n/a	PROB	4685678	n/a	LTP334	ltpFR2	22	n/a	n/a	n/a	16	21	9	4	7
2289.61669921875	n/a	PROB	4689135	n/a	LTP334	ltpFR2	22	n/a	n/a	n/a	16	6	4	1	1
2290.70361328125	n/a	PROB	4691361	n/a	LTP334	ltpFR2	22	n/a	n/a	n/a	16	16	5	6	5
2292.2255859375	n/a	PROB	4694478	n/a	LTP334	ltpFR2	22	n/a	n/a	n/a	16	11	2	3	6
2293.462890625	n/a	PROB	4697012	n/a	LTP334	ltpFR2	22	n/a	n/a	n/a	16	13	3	4	6
2294.70068359375	n/a	PROB	4699547	n/a	LTP334	ltpFR2	22	n/a	n/a	n/a	16	20	9	7	4
2296.10546875	n/a	PROB	4702424	n/a	LTP334	ltpFR2	22	n/a	n/a	n/a	16	13	3	2	8
2297.943359375	n/a	PROB	4706188	n/a	LTP334	ltpFR2	22	n/a	n/a	n/a	16	21	9	5	7
2299.63232421875	n/a	PROB	4709647	n/a	LTP334	ltpFR2	22	n/a	n/a	n/a	16	13	5	4	4
2301.7392578125	n/a	PROB	4713962	n/a	LTP334	ltpFR2	22	n/a	n/a	n/a	16	19	3	8	8
2303.16064453125	n/a	PROB	4716873	n/a	LTP334	ltpFR2	22	n/a	n/a	n/a	16	10	1	4	5
2304.21435546875	n/a	PROB	4719031	n/a	LTP334	ltpFR2	22	n/a	n/a	n/a	16	11	1	2	8
2305.451171875	n/a	PROB	4721564	n/a	LTP334	ltpFR2	22	n/a	n/a	n/a	16	20	6	5	9
2306.72216796875	n/a	PROB	4724167	n/a	LTP334	ltpFR2	22	n/a	n/a	n/a	16	19	2	9	8
2308.59326171875	n/a	STOP	4727999	n/a	LTP334	ltpFR2	22	n/a	n/a	n/a	16	n/a	n/a	n/a	n/a
2310.869140625	n/a	REC_START	4732660	n/a	LTP334	ltpFR2	22	11	n/a	n/a	n/a	n/a	0	0	0
2312.373046875	n/a	REC_WORD	4735740	wordpools/wasnorm_wordpool_576.txt	LTP334	ltpFR2	22	11	TEMPLE	1448	n/a	n/a	0	0	0
2313.13818359375	n/a	REC_WORD	4737307	wordpools/wasnorm_wordpool_576.txt	LTP334	ltpFR2	22	11	CANYON	235	n/a	n/a	0	0	0
2313.84326171875	n/a	REC_WORD	4738751	wordpools/wasnorm_wordpool_576.txt	LTP334	ltpFR2	22	11	WIDOW	1608	n/a	n/a	0	0	0
2314.43017578125	n/a	REC_WORD	4739953	wordpools/wasnorm_wordpool_576.txt	LTP334	ltpFR2	22	11	ANKLE	24	n/a	n/a	0	0	0
2315.14111328125	n/a	REC_WORD	4741409	wordpools/wasnorm_wordpool_576.txt	LTP334	ltpFR2	22	11	INMATE	738	n/a	n/a	0	0	0
2316.35888671875	n/a	REC_WORD_VV	4743903	wordpools/wasnorm_wordpool_576.txt	LTP334	ltpFR2	22	11	<>	-1	n/a	n/a	0	0	0
2319.0322265625	n/a	REC_WORD	4749378	wordpools/wasnorm_wordpool_576.txt	LTP334	ltpFR2	22	11	NOTEBOOK	959	n/a	n/a	0	0	0
2319.5068359375	n/a	REC_WORD	4750350	wordpools/wasnorm_wordpool_576.txt	LTP334	ltpFR2	22	11	REPORT	1184	n/a	n/a	0	0	0
2320.73974609375	n/a	REC_WORD_VV	4752875	wordpools/wasnorm_wordpool_576.txt	LTP334	ltpFR2	22	11	<>	-1	n/a	n/a	0	0	0
2321.09912109375	n/a	REC_WORD	4753611	wordpools/wasnorm_wordpool_576.txt	LTP334	ltpFR2	22	11	ORCHID	982	n/a	n/a	0	0	0
2321.83984375	n/a	REC_WORD	4755128	wordpools/wasnorm_wordpool_576.txt	LTP334	ltpFR2	22	11	FUNGUS	614	n/a	n/a	0	0	0
2325.14794921875	n/a	REC_WORD_VV	4761903	wordpools/wasnorm_wordpool_576.txt	LTP334	ltpFR2	22	11	<>	-1	n/a	n/a	0	0	0
2334.431640625	n/a	REC_WORD	4780916	wordpools/wasnorm_wordpool_576.txt	LTP334	ltpFR2	22	11	KNAPSACK	783	n/a	n/a	0	0	0
2342.38916015625	n/a	REC_WORD_VV	4797213	wordpools/wasnorm_wordpool_576.txt	LTP334	ltpFR2	22	11	<>	-1	n/a	n/a	0	0	0
2370.58544921875	n/a	REC_WORD_VV	4854959	wordpools/wasnorm_wordpool_576.txt	LTP334	ltpFR2	22	11	<>	-1	n/a	n/a	0	0	0
2401.31005859375	n/a	DISTRACTOR	4917883	n/a	LTP334	ltpFR2	22	12	n/a	n/a	n/a	n/a	0	0	0
2401.31005859375	n/a	START	4917883	n/a	LTP334	ltpFR2	22	n/a	n/a	n/a	17	n/a	n/a	n/a	n/a
2401.32568359375	n/a	PROB	4917915	n/a	LTP334	ltpFR2	22	n/a	n/a	n/a	17	9	3	5	1
2403.03271484375	n/a	PROB	4921411	n/a	LTP334	ltpFR2	22	n/a	n/a	n/a	17	19	6	7	6
2404.90478515625	n/a	PROB	4925245	n/a	LTP334	ltpFR2	22	n/a	n/a	n/a	17	22	8	8	6
2406.810546875	n/a	PROB	4929148	n/a	LTP334	ltpFR2	22	n/a	n/a	n/a	17	18	8	1	9
2408.21484375	n/a	PROB	4932024	n/a	LTP334	ltpFR2	22	n/a	n/a	n/a	17	19	8	8	3
2409.5185546875	n/a	PROB	4934694	n/a	LTP334	ltpFR2	22	n/a	n/a	n/a	17	14	4	8	2
2411.1083984375	n/a	PROB	4937950	n/a	LTP334	ltpFR2	22	n/a	n/a	n/a	17	22	9	6	7
2413.0146484375	n/a	PROB	4941854	n/a	LTP334	ltpFR2	22	n/a	n/a	n/a	17	20	9	6	5
2414.41845703125	n/a	PROB	4944729	n/a	LTP334	ltpFR2	22	n/a	n/a	n/a	17	13	8	4	1
2415.90625	n/a	PROB	4947776	n/a	LTP334	ltpFR2	22	n/a	n/a	n/a	17	10	2	2	6
2417.46142578125	n/a	PROB	4950961	n/a	LTP334	ltpFR2	22	n/a	n/a	n/a	17	17	8	4	5
2419.55126953125	n/a	PROB	4955241	n/a	LTP334	ltpFR2	22	n/a	n/a	n/a	17	23	8	7	8
2422.06005859375	n/a	PROB	4960379	n/a	LTP334	ltpFR2	22	n/a	n/a	n/a	17	13	3	6	4
2423.1142578125	n/a	PROB	4962538	n/a	LTP334	ltpFR2	22	n/a	n/a	n/a	17	16	9	1	6
2424.17041015625	n/a	STOP	4964701	n/a	LTP334	ltpFR2	22	n/a	n/a	n/a	17	n/a	n/a	n/a	n/a
2426.43994140625	n/a	WORD	4969349	wordpools/wasnorm_wordpool_576.txt	LTP334	ltpFR2	22	12	HUSBAND	728	n/a	n/a	0	0	0
2428.9990234375	n/a	WORD	4974590	wordpools/wasnorm_wordpool_576.txt	LTP334	ltpFR2	22	12	GRILL	661	n/a	n/a	0	0	0
2431.6572265625	n/a	WORD	4980034	wordpools/wasnorm_wordpool_576.txt	LTP334	ltpFR2	22	12	BUTCHER	203	n/a	n/a	0	0	0
2434.08203125	n/a	WORD	4985000	wordpools/wasnorm_wordpool_576.txt	LTP334	ltpFR2	22	12	ROBIN	1199	n/a	n/a	0	0	0
2436.505859375	n/a	WORD	4989964	wordpools/wasnorm_wordpool_576.txt	LTP334	ltpFR2	22	12	LAVA	804	n/a	n/a	0	0	0
2439.2646484375	n/a	WORD	4995614	wordpools/wasnorm_wordpool_576.txt	LTP334	ltpFR2	22	12	NOVEL	960	n/a	n/a	0	0	0
2441.87255859375	n/a	WORD	5000955	wordpools/wasnorm_wordpool_576.txt	LTP334	ltpFR2	22	12	TEACHER	1440	n/a	n/a	0	0	0
2444.5986328125	n/a	WORD	5006538	wordpools/wasnorm_wordpool_576.txt	LTP334	ltpFR2	22	12	SNAIL	1332	n/a	n/a	0	0	0
2447.20654296875	n/a	WORD	5011879	wordpools/wasnorm_wordpool_576.txt	LTP334	ltpFR2	22	12	TOMBSTONE	1478	n/a	n/a	0	0	0
2449.8154296875	n/a	WORD	5017222	wordpools/wasnorm_wordpool_576.txt	LTP334	ltpFR2	22	12	GARLIC	624	n/a	n/a	0	0	0
2452.3564453125	n/a	WORD	5022426	wordpools/wasnorm_wordpool_576.txt	LTP334	ltpFR2	22	12	SPHINX	1349	n/a	n/a	0	0	0
2454.79736328125	n/a	WORD	5027425	wordpools/wasnorm_wordpool_576.txt	LTP334	ltpFR2	22	12	STICKER	1382	n/a	n/a	0	0	0
2457.37255859375	n/a	WORD	5032699	wordpools/wasnorm_wordpool_576.txt	LTP334	ltpFR2	22	12	STONE	1385	n/a	n/a	0	0	0
2459.79736328125	n/a	WORD	5037665	wordpools/wasnorm_wordpool_576.txt	LTP334	ltpFR2	22	12	HORNET	718	n/a	n/a	0	0	0
2462.23828125	n/a	WORD	5042664	wordpools/wasnorm_wordpool_576.txt	LTP334	ltpFR2	22	12	COLLEGE	346	n/a	n/a	0	0	0
2464.96435546875	n/a	WORD	5048247	wordpools/wasnorm_wordpool_576.txt	LTP334	ltpFR2	22	12	FREEZER	604	n/a	n/a	0	0	0
2467.68896484375	n/a	WORD	5053827	wordpools/wasnorm_wordpool_576.txt	LTP334	ltpFR2	22	12	IGLOO	734	n/a	n/a	0	0	0
2470.28125	n/a	WORD	5059136	wordpools/wasnorm_wordpool_576.txt	LTP334	ltpFR2	22	12	PUPIL	1143	n/a	n/a	0	0	0
2473.0068359375	n/a	WORD	5064718	wordpools/wasnorm_wordpool_576.txt	LTP334	ltpFR2	22	12	COURSE	390	n/a	n/a	0	0	0
2475.71484375	n/a	WORD	5070264	wordpools/wasnorm_wordpool_576.txt	LTP334	ltpFR2	22	12	FOOT	590	n/a	n/a	0	0	0
2478.20703125	n/a	WORD	5075368	wordpools/wasnorm_wordpool_576.txt	LTP334	ltpFR2	22	12	HAND	683	n/a	n/a	0	0	0
2480.66455078125	n/a	WORD	5080401	wordpools/wasnorm_wordpool_576.txt	LTP334	ltpFR2	22	12	TWIG	1527	n/a	n/a	0	0	0
2483.22265625	n/a	WORD	5085640	wordpools/wasnorm_wordpool_576.txt	LTP334	ltpFR2	22	12	ONION	977	n/a	n/a	0	0	0
2485.73046875	n/a	WORD	5090776	wordpools/wasnorm_wordpool_576.txt	LTP334	ltpFR2	22	12	CHAUFFEUR	283	n/a	n/a	0	0	0
2487.33544921875	n/a	START	5094063	n/a	LTP334	ltpFR2	22	n/a	n/a	n/a	18	n/a	n/a	n/a	n/a
2488.41259765625	n/a	DISTRACTOR	5096269	n/a	LTP334	ltpFR2	22	12	n/a	n/a	n/a	n/a	0	0	0
2488.42236328125	n/a	PROB	5096289	n/a	LTP334	ltpFR2	22	n/a	n/a	n/a	18	10	3	2	5
2489.4423828125	n/a	PROB	5098378	n/a	LTP334	ltpFR2	22	n/a	n/a	n/a	18	16	9	4	3
2490.88037109375	n/a	PROB	5101323	n/a	LTP334	ltpFR2	22	n/a	n/a	n/a	18	18	7	9	2
2492.80322265625	n/a	PROB	5105261	n/a	LTP334	ltpFR2	22	n/a	n/a	n/a	18	23	6	9	8
2494.44140625	n/a	PROB	5108616	n/a	LTP334	ltpFR2	22	n/a	n/a	n/a	18	9	6	2	1
2495.66259765625	n/a	PROB	5111117	n/a	LTP334	ltpFR2	22	n/a	n/a	n/a	18	13	3	9	1
2497.00146484375	n/a	PROB	5113859	n/a	LTP334	ltpFR2	22	n/a	n/a	n/a	18	13	3	4	6
2498.25439453125	n/a	PROB	5116425	n/a	LTP334	ltpFR2	22	n/a	n/a	n/a	18	9	7	1	1
2499.3740234375	n/a	PROB	5118718	n/a	LTP334	ltpFR2	22	n/a	n/a	n/a	18	6	2	1	3
2500.56103515625	n/a	PROB	5121149	n/a	LTP334	ltpFR2	22	n/a	n/a	n/a	18	14	4	2	9
2503.7880859375	n/a	PROB	5127758	n/a	LTP334	ltpFR2	22	n/a	n/a	n/a	18	21	5	7	9
2506.01318359375	n/a	PROB	5132315	n/a	LTP334	ltpFR2	22	n/a	n/a	n/a	18	14	7	2	5
2508.10302734375	n/a	PROB	5136595	n/a	LTP334	ltpFR2	22	n/a	n/a	n/a	18	18	8	8	2
2509.80810546875	n/a	PROB	5140087	n/a	LTP334	ltpFR2	22	n/a	n/a	n/a	18	15	3	6	6
2510.9951171875	n/a	STOP	5142518	n/a	LTP334	ltpFR2	22	n/a	n/a	n/a	18	n/a	n/a	n/a	n/a
2513.1357421875	n/a	REC_START	5146902	n/a	LTP334	ltpFR2	22	12	n/a	n/a	n/a	n/a	0	0	0
2513.3876953125	n/a	REC_WORD	5147418	wordpools/wasnorm_wordpool_576.txt	LTP334	ltpFR2	22	12	TWIG	1527	n/a	n/a	0	0	0
2513.798828125	n/a	REC_WORD	5148260	wordpools/wasnorm_wordpool_576.txt	LTP334	ltpFR2	22	12	CHAUFFEUR	283	n/a	n/a	0	0	0
2514.6748046875	n/a	REC_WORD	5150054	wordpools/wasnorm_wordpool_576.txt	LTP334	ltpFR2	22	12	ONION	977	n/a	n/a	0	0	0
2515.27099609375	n/a	REC_WORD	5151275	wordpools/wasnorm_wordpool_576.txt	LTP334	ltpFR2	22	12	GARLIC	624	n/a	n/a	0	0	0
2515.77880859375	n/a	REC_WORD	5152315	wordpools/wasnorm_wordpool_576.txt	LTP334	ltpFR2	22	12	SPHINX	1349	n/a	n/a	0	0	0
2516.12158203125	n/a	REC_WORD	5153017	wordpools/wasnorm_wordpool_576.txt	LTP334	ltpFR2	22	12	STONE	1385	n/a	n/a	0	0	0
2516.73583984375	n/a	REC_WORD	5154275	wordpools/wasnorm_wordpool_576.txt	LTP334	ltpFR2	22	12	LAVA	804	n/a	n/a	0	0	0
2518.27197265625	n/a	REC_WORD_VV	5157421	wordpools/wasnorm_wordpool_576.txt	LTP334	ltpFR2	22	12	<>	-1	n/a	n/a	0	0	0
2518.8818359375	n/a	REC_WORD	5158670	wordpools/wasnorm_wordpool_576.txt	LTP334	ltpFR2	22	12	TEACHER	1440	n/a	n/a	0	0	0
2519.6865234375	n/a	REC_WORD	5160318	wordpools/wasnorm_wordpool_576.txt	LTP334	ltpFR2	22	12	PUPIL	1143	n/a	n/a	0	0	0
2521.25146484375	n/a	REC_WORD	5163523	wordpools/wasnorm_wordpool_576.txt	LTP334	ltpFR2	22	12	COLLEGE	346	n/a	n/a	0	0	0
2522.099609375	n/a	REC_WORD	5165260	wordpools/wasnorm_wordpool_576.txt	LTP334	ltpFR2	22	12	COURSE	390	n/a	n/a	0	0	0
2523.21484375	n/a	REC_WORD_VV	5167544	wordpools/wasnorm_wordpool_576.txt	LTP334	ltpFR2	22	12	<>	-1	n/a	n/a	0	0	0
2525.16552734375	n/a	REC_WORD	5171539	wordpools/wasnorm_wordpool_576.txt	LTP334	ltpFR2	22	12	STICKER	1382	n/a	n/a	0	0	0
2527.4404296875	n/a	REC_WORD_VV	5176198	wordpools/wasnorm_wordpool_576.txt	LTP334	ltpFR2	22	12	<>	-1	n/a	n/a	0	0	0
2527.66552734375	n/a	REC_WORD	5176659	wordpools/wasnorm_wordpool_576.txt	LTP334	ltpFR2	22	12	NOVEL	960	n/a	n/a	0	0	0
2529.92236328125	n/a	REC_WORD	5181281	wordpools/wasnorm_wordpool_576.txt	LTP334	ltpFR2	22	12	STONE	1385	n/a	n/a	0	0	0
2530.62255859375	n/a	REC_WORD_VV	5182715	wordpools/wasnorm_wordpool_576.txt	LTP334	ltpFR2	22	12	<>	-1	n/a	n/a	0	0	0
2530.92236328125	n/a	REC_WORD	5183329	wordpools/wasnorm_wordpool_576.txt	LTP334	ltpFR2	22	12	GRILL	661	n/a	n/a	0	0	0
2531.3505859375	n/a	REC_WORD	5184206	wordpools/wasnorm_wordpool_576.txt	LTP334	ltpFR2	22	12	BUTCHER	203	n/a	n/a	0	0	0
2531.90234375	n/a	REC_WORD	5185336	wordpools/wasnorm_wordpool_576.txt	LTP334	ltpFR2	22	12	HUSBAND	728	n/a	n/a	0	0	0
2534.00732421875	n/a	REC_WORD_VV	5189647	wordpools/wasnorm_wordpool_576.txt	LTP334	ltpFR2	22	12	<>	-1	n/a	n/a	0	0	0
2534.26416015625	n/a	REC_WORD	5190173	wordpools/wasnorm_wordpool_576.txt	LTP334	ltpFR2	22	12	SPHINX	1349	n/a	n/a	0	0	0
2535.05419921875	n/a	REC_WORD	5191791	wordpools/wasnorm_wordpool_576.txt	LTP334	ltpFR2	22	12	SNAIL	1332	n/a	n/a	0	0	0
2536.033203125	n/a	REC_WORD	5193796	wordpools/wasnorm_wordpool_576.txt	LTP334	ltpFR2	22	12	ROBIN	1199	n/a	n/a	0	0	0
2538.8154296875	n/a	REC_WORD_VV	5199494	wordpools/wasnorm_wordpool_576.txt	LTP334	ltpFR2	22	12	<>	-1	n/a	n/a	0	0	0
2554.99072265625	n/a	REC_WORD	5232621	wordpools/wasnorm_wordpool_576.txt	LTP334	ltpFR2	22	12	HAND	683	n/a	n/a	0	0	0
2556.08984375	n/a	REC_WORD	5234872	wordpools/wasnorm_wordpool_576.txt	LTP334	ltpFR2	22	12	FEET	-1	n/a	n/a	0	0	0
2557.3466796875	n/a	REC_WORD_VV	5237446	wordpools/wasnorm_wordpool_576.txt	LTP334	ltpFR2	22	12	<>	-1	n/a	n/a	0	0	0
2557.431640625	n/a	REC_WORD	5237620	wordpools/wasnorm_wordpool_576.txt	LTP334	ltpFR2	22	12	FOOT	590	n/a	n/a	0	0	0
2559.95263671875	n/a	REC_WORD_VV	5242783	wordpools/wasnorm_wordpool_576.txt	LTP334	ltpFR2	22	12	<>	-1	n/a	n/a	0	0	0
2603.57568359375	n/a	DISTRACTOR	5332123	n/a	LTP334	ltpFR2	22	13	n/a	n/a	n/a	n/a	0	0	0
2603.57666015625	n/a	START	5332125	n/a	LTP334	ltpFR2	22	n/a	n/a	n/a	19	n/a	n/a	n/a	n/a
2603.59228515625	n/a	PROB	5332157	n/a	LTP334	ltpFR2	22	n/a	n/a	n/a	19	17	7	7	3
2605.7666015625	n/a	PROB	5336610	n/a	LTP334	ltpFR2	22	n/a	n/a	n/a	19	18	6	4	8
2607.2373046875	n/a	PROB	5339622	n/a	LTP334	ltpFR2	22	n/a	n/a	n/a	19	10	4	5	1
2608.67529296875	n/a	PROB	5342567	n/a	LTP334	ltpFR2	22	n/a	n/a	n/a	19	20	6	8	6
2611.9873046875	n/a	PROB	5349350	n/a	LTP334	ltpFR2	22	n/a	n/a	n/a	19	15	1	7	7
2613.17333984375	n/a	PROB	5351779	n/a	LTP334	ltpFR2	22	n/a	n/a	n/a	19	13	3	3	7
2614.46142578125	n/a	PROB	5354417	n/a	LTP334	ltpFR2	22	n/a	n/a	n/a	19	8	2	1	5
2615.83203125	n/a	PROB	5357224	n/a	LTP334	ltpFR2	22	n/a	n/a	n/a	19	10	2	5	3
2617.4541015625	n/a	PROB	5360546	n/a	LTP334	ltpFR2	22	n/a	n/a	n/a	19	12	2	4	6
2618.6240234375	n/a	PROB	5362942	n/a	LTP334	ltpFR2	22	n/a	n/a	n/a	19	15	8	3	4
2620.17919921875	n/a	PROB	5366127	n/a	LTP334	ltpFR2	22	n/a	n/a	n/a	19	11	2	5	4
2622.47021484375	n/a	PROB	5370819	n/a	LTP334	ltpFR2	22	n/a	n/a	n/a	19	18	5	6	7
2623.9921875	n/a	PROB	5373936	n/a	LTP334	ltpFR2	22	n/a	n/a	n/a	19	15	2	9	4
2625.51318359375	n/a	PROB	5377051	n/a	LTP334	ltpFR2	22	n/a	n/a	n/a	19	18	7	4	7
2627.40283203125	n/a	STOP	5380921	n/a	LTP334	ltpFR2	22	n/a	n/a	n/a	19	n/a	n/a	n/a	n/a
2628.57275390625	n/a	WORD	5383317	wordpools/wasnorm_wordpool_576.txt	LTP334	ltpFR2	22	13	LEG	809	n/a	n/a	0	0	0
2631.2646484375	n/a	WORD	5388830	wordpools/wasnorm_wordpool_576.txt	LTP334	ltpFR2	22	13	MARINE	869	n/a	n/a	0	0	0
2633.755859375	n/a	WORD	5393932	wordpools/wasnorm_wordpool_576.txt	LTP334	ltpFR2	22	13	FIREPLACE	570	n/a	n/a	0	0	0
2636.53173828125	n/a	WORD	5399617	wordpools/wasnorm_wordpool_576.txt	LTP334	ltpFR2	22	13	MATCH	878	n/a	n/a	0	0	0
2639.1904296875	n/a	WORD	5405062	wordpools/wasnorm_wordpool_576.txt	LTP334	ltpFR2	22	13	GIFT	635	n/a	n/a	0	0	0
2641.8984375	n/a	WORD	5410608	wordpools/wasnorm_wordpool_576.txt	LTP334	ltpFR2	22	13	PACKAGE	997	n/a	n/a	0	0	0
2644.62451171875	n/a	WORD	5416191	wordpools/wasnorm_wordpool_576.txt	LTP334	ltpFR2	22	13	BATHTUB	100	n/a	n/a	0	0	0
2647.06640625	n/a	WORD	5421192	wordpools/wasnorm_wordpool_576.txt	LTP334	ltpFR2	22	13	MASK	876	n/a	n/a	0	0	0
2649.62353515625	n/a	WORD	5426429	wordpools/wasnorm_wordpool_576.txt	LTP334	ltpFR2	22	13	CANDY	230	n/a	n/a	0	0	0
2652.416015625	n/a	WORD	5432148	wordpools/wasnorm_wordpool_576.txt	LTP334	ltpFR2	22	13	LOFT	840	n/a	n/a	0	0	0
2654.89111328125	n/a	WORD	5437217	wordpools/wasnorm_wordpool_576.txt	LTP334	ltpFR2	22	13	JELLY	755	n/a	n/a	0	0	0
2657.54931640625	n/a	WORD	5442661	wordpools/wasnorm_wordpool_576.txt	LTP334	ltpFR2	22	13	TILE	1468	n/a	n/a	0	0	0
2660.19091796875	n/a	WORD	5448071	wordpools/wasnorm_wordpool_576.txt	LTP334	ltpFR2	22	13	BASEMENT	94	n/a	n/a	0	0	0
2662.68212890625	n/a	WORD	5453173	wordpools/wasnorm_wordpool_576.txt	LTP334	ltpFR2	22	13	ARMY	39	n/a	n/a	0	0	0
2665.3740234375	n/a	WORD	5458686	wordpools/wasnorm_wordpool_576.txt	LTP334	ltpFR2	22	13	TYPIST	1532	n/a	n/a	0	0	0
2668.0009765625	n/a	WORD	5464066	wordpools/wasnorm_wordpool_576.txt	LTP334	ltpFR2	22	13	TRANSPLANT	1496	n/a	n/a	0	0	0
2670.625	n/a	WORD	5469440	wordpools/wasnorm_wordpool_576.txt	LTP334	ltpFR2	22	13	COIN	343	n/a	n/a	0	0	0
2673.11572265625	n/a	WORD	5474541	wordpools/wasnorm_wordpool_576.txt	LTP334	ltpFR2	22	13	SANDWICH	1232	n/a	n/a	0	0	0
2675.82470703125	n/a	WORD	5480089	wordpools/wasnorm_wordpool_576.txt	LTP334	ltpFR2	22	13	CRICKET	408	n/a	n/a	0	0	0
2678.38232421875	n/a	WORD	5485327	wordpools/wasnorm_wordpool_576.txt	LTP334	ltpFR2	22	13	ACTRESS	6	n/a	n/a	0	0	0
2681.12451171875	n/a	WORD	5490943	wordpools/wasnorm_wordpool_576.txt	LTP334	ltpFR2	22	13	CRITIC	410	n/a	n/a	0	0	0
2683.56640625	n/a	WORD	5495944	wordpools/wasnorm_wordpool_576.txt	LTP334	ltpFR2	22	13	SHARK	1275	n/a	n/a	0	0	0
2686.34130859375	n/a	WORD	5501627	wordpools/wasnorm_wordpool_576.txt	LTP334	ltpFR2	22	13	STOMACH	1384	n/a	n/a	0	0	0
2688.88330078125	n/a	WORD	5506833	wordpools/wasnorm_wordpool_576.txt	LTP334	ltpFR2	22	13	DONOR	485	n/a	n/a	0	0	0
2690.48828125	n/a	START	5510120	n/a	LTP334	ltpFR2	22	n/a	n/a	n/a	20	n/a	n/a	n/a	n/a
2691.5302734375	n/a	DISTRACTOR	5512254	n/a	LTP334	ltpFR2	22	13	n/a	n/a	n/a	n/a	0	0	0
2691.541015625	n/a	PROB	5512276	n/a	LTP334	ltpFR2	22	n/a	n/a	n/a	20	12	2	5	5
2692.662109375	n/a	PROB	5514572	n/a	LTP334	ltpFR2	22	n/a	n/a	n/a	20	15	2	9	3
2695.93896484375	n/a	PROB	5521283	n/a	LTP334	ltpFR2	22	n/a	n/a	n/a	20	9	5	1	3
2698.31298828125	n/a	PROB	5526145	n/a	LTP334	ltpFR2	22	n/a	n/a	n/a	20	14	6	5	3
2699.884765625	n/a	PROB	5529364	n/a	LTP334	ltpFR2	22	n/a	n/a	n/a	20	21	6	6	9
2702.4267578125	n/a	PROB	5534570	n/a	LTP334	ltpFR2	22	n/a	n/a	n/a	20	8	1	2	5
2703.69677734375	n/a	PROB	5537171	n/a	LTP334	ltpFR2	22	n/a	n/a	n/a	20	8	5	2	1
2704.93505859375	n/a	PROB	5539707	n/a	LTP334	ltpFR2	22	n/a	n/a	n/a	20	19	8	4	7
2706.69091796875	n/a	PROB	5543303	n/a	LTP334	ltpFR2	22	n/a	n/a	n/a	20	20	7	6	7
2708.19482421875	n/a	PROB	5546383	n/a	LTP334	ltpFR2	22	n/a	n/a	n/a	20	16	7	1	8
2709.64990234375	n/a	PROB	5549363	n/a	LTP334	ltpFR2	22	n/a	n/a	n/a	20	16	7	3	6
2711.12158203125	n/a	PROB	5552377	n/a	LTP334	ltpFR2	22	n/a	n/a	n/a	20	15	5	3	7
2712.62548828125	n/a	PROB	5555457	n/a	LTP334	ltpFR2	22	n/a	n/a	n/a	20	8	4	2	2
2713.75439453125	n/a	STOP	5557769	n/a	LTP334	ltpFR2	22	n/a	n/a	n/a	20	n/a	n/a	n/a	n/a
2716.28857421875	n/a	REC_START	5562959	n/a	LTP334	ltpFR2	22	13	n/a	n/a	n/a	n/a	0	0	0
2717.275390625	n/a	REC_WORD	5564980	wordpools/wasnorm_wordpool_576.txt	LTP334	ltpFR2	22	13	BAND	78	n/a	n/a	0	0	0
2717.62060546875	n/a	REC_WORD	5565687	wordpools/wasnorm_wordpool_576.txt	LTP334	ltpFR2	22	13	LOFT	840	n/a	n/a	0	0	0
2718.70361328125	n/a	REC_WORD	5567905	wordpools/wasnorm_wordpool_576.txt	LTP334	ltpFR2	22	13	CANDY	230	n/a	n/a	0	0	0
2719.0625	n/a	REC_WORD	5568640	wordpools/wasnorm_wordpool_576.txt	LTP334	ltpFR2	22	13	JELLY	755	n/a	n/a	0	0	0
2719.8564453125	n/a	REC_WORD	5570266	wordpools/wasnorm_wordpool_576.txt	LTP334	ltpFR2	22	13	ARMY	39	n/a	n/a	0	0	0
2720.4443359375	n/a	REC_WORD	5571470	wordpools/wasnorm_wordpool_576.txt	LTP334	ltpFR2	22	13	DONOR	485	n/a	n/a	0	0	0
2720.990234375	n/a	REC_WORD	5572588	wordpools/wasnorm_wordpool_576.txt	LTP334	ltpFR2	22	13	TRANSPLANT	1496	n/a	n/a	0	0	0
2721.82861328125	n/a	REC_WORD	5574305	wordpools/wasnorm_wordpool_576.txt	LTP334	ltpFR2	22	13	LEG	809	n/a	n/a	0	0	0
2722.8662109375	n/a	REC_WORD	5576430	wordpools/wasnorm_wordpool_576.txt	LTP334	ltpFR2	22	13	FIREPLACE	570	n/a	n/a	0	0	0
2723.37646484375	n/a	REC_WORD	5577475	wordpools/wasnorm_wordpool_576.txt	LTP334	ltpFR2	22	13	MATCH	878	n/a	n/a	0	0	0
2724.4443359375	n/a	REC_WORD	5579662	wordpools/wasnorm_wordpool_576.txt	LTP334	ltpFR2	22	13	GIFT	635	n/a	n/a	0	0	0
2724.9521484375	n/a	REC_WORD	5580702	wordpools/wasnorm_wordpool_576.txt	LTP334	ltpFR2	22	13	PACKAGE	997	n/a	n/a	0	0	0
2727.31103515625	n/a	REC_WORD	5585533	wordpools/wasnorm_wordpool_576.txt	LTP334	ltpFR2	22	13	MARINE	869	n/a	n/a	0	0	0
2748.07763671875	n/a	REC_WORD	5628063	wordpools/wasnorm_wordpool_576.txt	LTP334	ltpFR2	22	13	COIN	343	n/a	n/a	0	0	0
2748.36083984375	n/a	REC_WORD	5628643	wordpools/wasnorm_wordpool_576.txt	LTP334	ltpFR2	22	13	SANDWICH	1232	n/a	n/a	0	0	0
2750.6376953125	n/a	REC_WORD	5633306	wordpools/wasnorm_wordpool_576.txt	LTP334	ltpFR2	22	13	STOMACH	1384	n/a	n/a	0	0	0
2766.873046875	n/a	REC_WORD_VV	5666556	wordpools/wasnorm_wordpool_576.txt	LTP334	ltpFR2	22	13	<>	-1	n/a	n/a	0	0	0
2806.7451171875	n/a	WORD	5748214	wordpools/wasnorm_wordpool_576.txt	LTP334	ltpFR2	22	14	SCISSORS	1250	n/a	n/a	0	0	0
2809.50390625	n/a	WORD	5753864	wordpools/wasnorm_wordpool_576.txt	LTP334	ltpFR2	22	14	HATCHET	691	n/a	n/a	0	0	0
2812.162109375	n/a	WORD	5759308	wordpools/wasnorm_wordpool_576.txt	LTP334	ltpFR2	22	14	BARREL	91	n/a	n/a	0	0	0
2814.90478515625	n/a	WORD	5764925	wordpools/wasnorm_wordpool_576.txt	LTP334	ltpFR2	22	14	LASER	801	n/a	n/a	0	0	0
2817.49609375	n/a	WORD	5770232	wordpools/wasnorm_wordpool_576.txt	LTP334	ltpFR2	22	14	TWEEZERS	1526	n/a	n/a	0	0	0
2819.970703125	n/a	WORD	5775300	wordpools/wasnorm_wordpool_576.txt	LTP334	ltpFR2	22	14	THREAD	1460	n/a	n/a	0	0	0
2822.64599609375	n/a	WORD	5780779	wordpools/wasnorm_wordpool_576.txt	LTP334	ltpFR2	22	14	CEILING	265	n/a	n/a	0	0	0
2825.2548828125	n/a	WORD	5786122	wordpools/wasnorm_wordpool_576.txt	LTP334	ltpFR2	22	14	CARROT	249	n/a	n/a	0	0	0
2828.064453125	n/a	WORD	5791876	wordpools/wasnorm_wordpool_576.txt	LTP334	ltpFR2	22	14	BUG	187	n/a	n/a	0	0	0
2830.7724609375	n/a	WORD	5797422	wordpools/wasnorm_wordpool_576.txt	LTP334	ltpFR2	22	14	COUNTRY	388	n/a	n/a	0	0	0
2833.263671875	n/a	WORD	5802524	wordpools/wasnorm_wordpool_576.txt	LTP334	ltpFR2	22	14	JAPAN	749	n/a	n/a	0	0	0
2835.8056640625	n/a	WORD	5807730	wordpools/wasnorm_wordpool_576.txt	LTP334	ltpFR2	22	14	LODGE	839	n/a	n/a	0	0	0
2838.5302734375	n/a	WORD	5813310	wordpools/wasnorm_wordpool_576.txt	LTP334	ltpFR2	22	14	MAILBOX	857	n/a	n/a	0	0	0
2841.25634765625	n/a	WORD	5818893	wordpools/wasnorm_wordpool_576.txt	LTP334	ltpFR2	22	14	BOUQUET	157	n/a	n/a	0	0	0
2843.71435546875	n/a	WORD	5823927	wordpools/wasnorm_wordpool_576.txt	LTP334	ltpFR2	22	14	THRONE	1461	n/a	n/a	0	0	0
2846.30517578125	n/a	WORD	5829233	wordpools/wasnorm_wordpool_576.txt	LTP334	ltpFR2	22	14	VAGRANT	1544	n/a	n/a	0	0	0
2848.72998046875	n/a	WORD	5834199	wordpools/wasnorm_wordpool_576.txt	LTP334	ltpFR2	22	14	YARN	1631	n/a	n/a	0	0	0
2851.40478515625	n/a	WORD	5839677	wordpools/wasnorm_wordpool_576.txt	LTP334	ltpFR2	22	14	BRICK	172	n/a	n/a	0	0	0
2853.998046875	n/a	WORD	5844988	wordpools/wasnorm_wordpool_576.txt	LTP334	ltpFR2	22	14	RADISH	1158	n/a	n/a	0	0	0
2856.7060546875	n/a	WORD	5850534	wordpools/wasnorm_wordpool_576.txt	LTP334	ltpFR2	22	14	SHOULDER	1294	n/a	n/a	0	0	0
2859.380859375	n/a	WORD	5856012	wordpools/wasnorm_wordpool_576.txt	LTP334	ltpFR2	22	14	SWITCH	1422	n/a	n/a	0	0	0
2861.93896484375	n/a	WORD	5861251	wordpools/wasnorm_wordpool_576.txt	LTP334	ltpFR2	22	14	BANKER	84	n/a	n/a	0	0	0
2864.7646484375	n/a	WORD	5867038	wordpools/wasnorm_wordpool_576.txt	LTP334	ltpFR2	22	14	HANDBAG	684	n/a	n/a	0	0	0
2867.306640625	n/a	WORD	5872244	wordpools/wasnorm_wordpool_576.txt	LTP334	ltpFR2	22	14	DAISY	435	n/a	n/a	0	0	0
2868.91162109375	n/a	START	5875531	n/a	LTP334	ltpFR2	22	n/a	n/a	n/a	21	n/a	n/a	n/a	n/a
2870.02734375	n/a	DISTRACTOR	5877816	n/a	LTP334	ltpFR2	22	14	n/a	n/a	n/a	n/a	0	0	0
2870.03271484375	n/a	PROB	5877827	n/a	LTP334	ltpFR2	22	n/a	n/a	n/a	21	18	1	8	9
2871.98828125	n/a	PROB	5881832	n/a	LTP334	ltpFR2	22	n/a	n/a	n/a	21	13	9	3	1
2873.32568359375	n/a	PROB	5884571	n/a	LTP334	ltpFR2	22	n/a	n/a	n/a	21	6	2	1	3
2874.54638671875	n/a	PROB	5887071	n/a	LTP334	ltpFR2	22	n/a	n/a	n/a	21	6	2	1	3
2875.49951171875	n/a	PROB	5889023	n/a	LTP334	ltpFR2	22	n/a	n/a	n/a	21	9	5	1	3
2877.35546875	n/a	PROB	5892824	n/a	LTP334	ltpFR2	22	n/a	n/a	n/a	21	15	2	8	5
2879.361328125	n/a	PROB	5896932	n/a	LTP334	ltpFR2	22	n/a	n/a	n/a	21	18	4	5	9
2881.10107421875	n/a	PROB	5900495	n/a	LTP334	ltpFR2	22	n/a	n/a	n/a	21	18	5	5	8
2882.42138671875	n/a	PROB	5903199	n/a	LTP334	ltpFR2	22	n/a	n/a	n/a	21	18	6	4	8
2883.525390625	n/a	PROB	5905460	n/a	LTP334	ltpFR2	22	n/a	n/a	n/a	21	14	2	5	7
2886.21728515625	n/a	PROB	5910973	n/a	LTP334	ltpFR2	22	n/a	n/a	n/a	21	21	5	7	9
2889.16015625	n/a	PROB	5917000	n/a	LTP334	ltpFR2	22	n/a	n/a	n/a	21	13	2	7	4
2891.1328125	n/a	PROB	5921040	n/a	LTP334	ltpFR2	22	n/a	n/a	n/a	21	7	4	1	2
2892.6748046875	n/a	STOP	5924198	n/a	LTP334	ltpFR2	22	n/a	n/a	n/a	21	n/a	n/a	n/a	n/a
2894.7958984375	n/a	REC_START	5928542	n/a	LTP334	ltpFR2	22	14	n/a	n/a	n/a	n/a	0	0	0
2895.171875	n/a	REC_WORD	5929312	wordpools/wasnorm_wordpool_576.txt	LTP334	ltpFR2	22	14	RADISH	1158	n/a	n/a	0	0	0
2895.74365234375	n/a	REC_WORD	5930483	wordpools/wasnorm_wordpool_576.txt	LTP334	ltpFR2	22	14	DAISY	435	n/a	n/a	0	0	0
2896.35693359375	n/a	REC_WORD	5931739	wordpools/wasnorm_wordpool_576.txt	LTP334	ltpFR2	22	14	HANDBAG	684	n/a	n/a	0	0	0
2898.46484375	n/a	REC_WORD_VV	5936056	wordpools/wasnorm_wordpool_576.txt	LTP334	ltpFR2	22	14	<>	-1	n/a	n/a	0	0	0
2899.65087890625	n/a	REC_WORD	5938485	wordpools/wasnorm_wordpool_576.txt	LTP334	ltpFR2	22	14	YARN	1631	n/a	n/a	0	0	0
2900.56982421875	n/a	REC_WORD	5940367	wordpools/wasnorm_wordpool_576.txt	LTP334	ltpFR2	22	14	THRONE	1461	n/a	n/a	0	0	0
2901.515625	n/a	REC_WORD	5942304	wordpools/wasnorm_wordpool_576.txt	LTP334	ltpFR2	22	14	VAGRANT	1544	n/a	n/a	0	0	0
2903.17578125	n/a	REC_WORD_VV	5945704	wordpools/wasnorm_wordpool_576.txt	LTP334	ltpFR2	22	14	<>	-1	n/a	n/a	0	0	0
2904.03271484375	n/a	REC_WORD	5947459	wordpools/wasnorm_wordpool_576.txt	LTP334	ltpFR2	22	14	BOUQUET	157	n/a	n/a	0	0	0
2906.32177734375	n/a	REC_WORD_VV	5952147	wordpools/wasnorm_wordpool_576.txt	LTP334	ltpFR2	22	14	<>	-1	n/a	n/a	0	0	0
2911.87353515625	n/a	REC_WORD	5963517	wordpools/wasnorm_wordpool_576.txt	LTP334	ltpFR2	22	14	TWEEZERS	1526	n/a	n/a	0	0	0
2913.29833984375	n/a	REC_WORD	5966435	wordpools/wasnorm_wordpool_576.txt	LTP334	ltpFR2	22	14	THREAD	1460	n/a	n/a	0	0	0
2915.66552734375	n/a	REC_WORD_VV	5971283	wordpools/wasnorm_wordpool_576.txt	LTP334	ltpFR2	22	14	<>	-1	n/a	n/a	0	0	0
2935.798828125	n/a	REC_WORD_VV	6012516	wordpools/wasnorm_wordpool_576.txt	LTP334	ltpFR2	22	14	<>	-1	n/a	n/a	0	0	0
2985.25146484375	n/a	WORD	6113795	wordpools/wasnorm_wordpool_576.txt	LTP334	ltpFR2	22	15	BROTHER	179	n/a	n/a	0	0	0
2987.8095703125	n/a	WORD	6119034	wordpools/wasnorm_wordpool_576.txt	LTP334	ltpFR2	22	15	LIPSTICK	829	n/a	n/a	0	0	0
2990.46826171875	n/a	WORD	6124479	wordpools/wasnorm_wordpool_576.txt	LTP334	ltpFR2	22	15	EXPERT	543	n/a	n/a	0	0	0
2993.16015625	n/a	WORD	6129992	wordpools/wasnorm_wordpool_576.txt	LTP334	ltpFR2	22	15	FRIEND	606	n/a	n/a	0	0	0
2995.6513671875	n/a	WORD	6135094	wordpools/wasnorm_wordpool_576.txt	LTP334	ltpFR2	22	15	PISTON	1076	n/a	n/a	0	0	0
2998.3603515625	n/a	WORD	6140642	wordpools/wasnorm_wordpool_576.txt	LTP334	ltpFR2	22	15	LAGOON	795	n/a	n/a	0	0	0
3000.986328125	n/a	WORD	6146020	wordpools/wasnorm_wordpool_576.txt	LTP334	ltpFR2	22	15	SWAMP	1416	n/a	n/a	0	0	0
3003.7109375	n/a	WORD	6151600	wordpools/wasnorm_wordpool_576.txt	LTP334	ltpFR2	22	15	PIANO	1057	n/a	n/a	0	0	0
3006.35302734375	n/a	WORD	6157011	wordpools/wasnorm_wordpool_576.txt	LTP334	ltpFR2	22	15	KLEENEX	782	n/a	n/a	0	0	0
3008.99609375	n/a	WORD	6162424	wordpools/wasnorm_wordpool_576.txt	LTP334	ltpFR2	22	15	PEPPER	1047	n/a	n/a	0	0	0
3011.70263671875	n/a	WORD	6167967	wordpools/wasnorm_wordpool_576.txt	LTP334	ltpFR2	22	15	SUNRISE	1407	n/a	n/a	0	0	0
3014.2275390625	n/a	WORD	6173138	wordpools/wasnorm_wordpool_576.txt	LTP334	ltpFR2	22	15	COUCH	386	n/a	n/a	0	0	0
3016.970703125	n/a	WORD	6178756	wordpools/wasnorm_wordpool_576.txt	LTP334	ltpFR2	22	15	STAKE	1368	n/a	n/a	0	0	0
3019.728515625	n/a	WORD	6184404	wordpools/wasnorm_wordpool_576.txt	LTP334	ltpFR2	22	15	WRENCH	1625	n/a	n/a	0	0	0
3022.53759765625	n/a	WORD	6190157	wordpools/wasnorm_wordpool_576.txt	LTP334	ltpFR2	22	15	OFFICE	972	n/a	n/a	0	0	0
3025.0634765625	n/a	WORD	6195330	wordpools/wasnorm_wordpool_576.txt	LTP334	ltpFR2	22	15	BALLOON	75	n/a	n/a	0	0	0
3027.83837890625	n/a	WORD	6201013	wordpools/wasnorm_wordpool_576.txt	LTP334	ltpFR2	22	15	TABLE	1426	n/a	n/a	0	0	0
3030.49755859375	n/a	WORD	6206459	wordpools/wasnorm_wordpool_576.txt	LTP334	ltpFR2	22	15	SERVANT	1271	n/a	n/a	0	0	0
3033.08935546875	n/a	WORD	6211767	wordpools/wasnorm_wordpool_576.txt	LTP334	ltpFR2	22	15	GRIZZLY	662	n/a	n/a	0	0	0
3035.79736328125	n/a	WORD	6217313	wordpools/wasnorm_wordpool_576.txt	LTP334	ltpFR2	22	15	COTTAGE	384	n/a	n/a	0	0	0
3038.4892578125	n/a	WORD	6222826	wordpools/wasnorm_wordpool_576.txt	LTP334	ltpFR2	22	15	RUST	1219	n/a	n/a	0	0	0
3041.248046875	n/a	WORD	6228476	wordpools/wasnorm_wordpool_576.txt	LTP334	ltpFR2	22	15	DRUG	501	n/a	n/a	0	0	0
3043.85595703125	n/a	WORD	6233817	wordpools/wasnorm_wordpool_576.txt	LTP334	ltpFR2	22	15	PROTON	1132	n/a	n/a	0	0	0
3046.58203125	n/a	WORD	6239400	wordpools/wasnorm_wordpool_576.txt	LTP334	ltpFR2	22	15	NEUTRON	947	n/a	n/a	0	0	0
3048.18701171875	n/a	START	6242687	n/a	LTP334	ltpFR2	22	n/a	n/a	n/a	22	n/a	n/a	n/a	n/a
3049.099609375	n/a	DISTRACTOR	6244556	n/a	LTP334	ltpFR2	22	15	n/a	n/a	n/a	n/a	0	0	0
3049.10693359375	n/a	PROB	6244571	n/a	LTP334	ltpFR2	22	n/a	n/a	n/a	22	16	6	8	2
3050.4609375	n/a	PROB	6247344	n/a	LTP334	ltpFR2	22	n/a	n/a	n/a	22	16	3	5	8
3051.8486328125	n/a	PROB	6250186	n/a	LTP334	ltpFR2	22	n/a	n/a	n/a	22	21	8	9	4
3053.87158203125	n/a	PROB	6254329	n/a	LTP334	ltpFR2	22	n/a	n/a	n/a	22	23	8	7	8
3057.56640625	n/a	PROB	6261896	n/a	LTP334	ltpFR2	22	n/a	n/a	n/a	22	19	9	8	2
3058.8544921875	n/a	PROB	6264534	n/a	LTP334	ltpFR2	22	n/a	n/a	n/a	22	16	1	7	8
3060.3095703125	n/a	PROB	6267514	n/a	LTP334	ltpFR2	22	n/a	n/a	n/a	22	13	2	4	7
3061.7802734375	n/a	PROB	6270526	n/a	LTP334	ltpFR2	22	n/a	n/a	n/a	22	19	4	6	9
