mstime	trial_type	stim_file	subject	experiment	session	trial	task	item_name	item_num	recog_conf	resp	color_b	color_g	color_r	case	font
0	SESS_START	n/a	LTP075	ltpFR	1	n/a	n/a	n/a	n/a	1	n/a	n/a	n/a	n/a	n/a	n/a
115406	WORD	wordpools/wasnorm_wordpool.txt	LTP075	ltpFR	1	1	0	VOLLEYBALL	1576	n/a	1	0	0.5869140625	0.422607421875	lower	../fonts/zerothre.ttf
119289	WORD	wordpools/wasnorm_wordpool.txt	LTP075	ltpFR	1	1	0	CATCHER	258	n/a	1	0	0.5869140625	0.422607421875	lower	../fonts/zerothre.ttf
123230	WORD	wordpools/wasnorm_wordpool.txt	LTP075	ltpFR	1	1	0	UNIFORM	1539	n/a	0	0	0.5869140625	0.422607421875	lower	../fonts/zerothre.ttf
127197	WORD	wordpools/wasnorm_wordpool.txt	LTP075	ltpFR	1	1	1	TICKET	1464	n/a	0	1	0.412841796875	0.57763671875	upper	../fonts/amplitud.ttf
131255	WORD	wordpools/wasnorm_wordpool.txt	LTP075	ltpFR	1	1	1	SEAGULL	1261	n/a	1	1	0.412841796875	0.57763671875	upper	../fonts/amplitud.ttf
135238	WORD	wordpools/wasnorm_wordpool.txt	LTP075	ltpFR	1	1	1	SERVANT	1271	n/a	1	1	0.412841796875	0.57763671875	upper	../fonts/amplitud.ttf
139429	WORD	wordpools/wasnorm_wordpool.txt	LTP075	ltpFR	1	1	1	STEREO	1378	n/a	0	1	0.412841796875	0.57763671875	upper	../fonts/amplitud.ttf
143287	WORD	wordpools/wasnorm_wordpool.txt	LTP075	ltpFR	1	1	1	STATUE	1374	n/a	0	1	0.412841796875	0.57763671875	upper	../fonts/amplitud.ttf
147462	WORD	wordpools/wasnorm_wordpool.txt	LTP075	ltpFR	1	1	1	CANARY	227	n/a	1	1	0.412841796875	0.57763671875	upper	../fonts/amplitud.ttf
151496	WORD	wordpools/wasnorm_wordpool.txt	LTP075	ltpFR	1	1	0	PERSON	1052	n/a	1	0	0.5869140625	0.422607421875	lower	../fonts/zerothre.ttf
155496	WORD	wordpools/wasnorm_wordpool.txt	LTP075	ltpFR	1	1	0	HUMAN	726	n/a	1	0	0.5869140625	0.422607421875	lower	../fonts/zerothre.ttf
159378	WORD	wordpools/wasnorm_wordpool.txt	LTP075	ltpFR	1	1	0	HERD	705	n/a	1	0	0.5869140625	0.422607421875	lower	../fonts/zerothre.ttf
163587	WORD	wordpools/wasnorm_wordpool.txt	LTP075	ltpFR	1	1	1	DUNE	506	n/a	0	1	0.412841796875	0.57763671875	upper	../fonts/amplitud.ttf
167737	WORD	wordpools/wasnorm_wordpool.txt	LTP075	ltpFR	1	1	1	VEAL	1551	n/a	0	1	0.412841796875	0.57763671875	upper	../fonts/amplitud.ttf
171578	WORD	wordpools/wasnorm_wordpool.txt	LTP075	ltpFR	1	1	0	CALF	222	n/a	1	0	0.5869140625	0.422607421875	lower	../fonts/zerothre.ttf
175460	WORD	wordpools/wasnorm_wordpool.txt	LTP075	ltpFR	1	1	0	MICROPHONE	890	n/a	0	0	0.5869140625	0.422607421875	lower	../fonts/zerothre.ttf
181352	REC_START	n/a	LTP075	ltpFR	1	1	n/a	n/a	n/a	n/a	n/a	n/a	n/a	n/a	n/a	n/a
181873	REC_WORD	wordpools/wasnorm_wordpool.txt	LTP075	ltpFR	1	1	0	CALF	222	n/a	1	n/a	n/a	n/a	n/a	n/a
182864	REC_WORD	wordpools/wasnorm_wordpool.txt	LTP075	ltpFR	1	1	0	MICROPHONE	890	n/a	0	n/a	n/a	n/a	n/a	n/a
184114	REC_WORD	wordpools/wasnorm_wordpool.txt	LTP075	ltpFR	1	1	0	PERSON	1052	n/a	1	n/a	n/a	n/a	n/a	n/a
185560	REC_WORD	wordpools/wasnorm_wordpool.txt	LTP075	ltpFR	1	1	0	HUMAN	726	n/a	1	n/a	n/a	n/a	n/a	n/a
186560	REC_WORD_VV	wordpools/wasnorm_wordpool.txt	LTP075	ltpFR	1	1	n/a	<>	-1	n/a	n/a	n/a	n/a	n/a	n/a	n/a
188085	REC_WORD	wordpools/wasnorm_wordpool.txt	LTP075	ltpFR	1	1	1	CANARY	227	n/a	1	n/a	n/a	n/a	n/a	n/a
203449	REC_WORD	wordpools/wasnorm_wordpool.txt	LTP075	ltpFR	1	1	1	STATUE	1374	n/a	0	n/a	n/a	n/a	n/a	n/a
208622	REC_WORD	wordpools/wasnorm_wordpool.txt	LTP075	ltpFR	1	1	1	VEAL	1551	n/a	0	n/a	n/a	n/a	n/a	n/a
210909	REC_WORD	wordpools/wasnorm_wordpool.txt	LTP075	ltpFR	1	1	1	STEREO	1378	n/a	0	n/a	n/a	n/a	n/a	n/a
260605	WORD	wordpools/wasnorm_wordpool.txt	LTP075	ltpFR	1	2	1	ZUCCHINI	1638	n/a	1	1	0.412841796875	0.57763671875	upper	../fonts/amplitud.ttf
264538	WORD	wordpools/wasnorm_wordpool.txt	LTP075	ltpFR	1	2	1	ZOO	1637	n/a	0	1	0.412841796875	0.57763671875	upper	../fonts/amplitud.ttf
268613	WORD	wordpools/wasnorm_wordpool.txt	LTP075	ltpFR	1	2	0	TANK	1432	n/a	1	0	0.5869140625	0.422607421875	lower	../fonts/zerothre.ttf
272486	WORD	wordpools/wasnorm_wordpool.txt	LTP075	ltpFR	1	2	0	COD	340	n/a	0	0	0.5869140625	0.422607421875	lower	../fonts/zerothre.ttf
276336	WORD	wordpools/wasnorm_wordpool.txt	LTP075	ltpFR	1	2	0	SUPERMARKET	1409	n/a	1	0	0.5869140625	0.422607421875	lower	../fonts/zerothre.ttf
280377	WORD	wordpools/wasnorm_wordpool.txt	LTP075	ltpFR	1	2	1	SUPERVISOR	1410	n/a	1	1	0.412841796875	0.57763671875	upper	../fonts/amplitud.ttf
284235	WORD	wordpools/wasnorm_wordpool.txt	LTP075	ltpFR	1	2	1	CROSS	413	n/a	0	1	0.412841796875	0.57763671875	upper	../fonts/amplitud.ttf
288293	WORD	wordpools/wasnorm_wordpool.txt	LTP075	ltpFR	1	2	0	LOLLIPOP	842	n/a	0	0	0.5869140625	0.422607421875	lower	../fonts/zerothre.ttf
292318	WORD	wordpools/wasnorm_wordpool.txt	LTP075	ltpFR	1	2	0	FLOUR	583	n/a	0	0	0.5869140625	0.422607421875	lower	../fonts/zerothre.ttf
296502	WORD	wordpools/wasnorm_wordpool.txt	LTP075	ltpFR	1	2	0	WRITER	1627	n/a	1	0	0.5869140625	0.422607421875	lower	../fonts/zerothre.ttf
300484	WORD	wordpools/wasnorm_wordpool.txt	LTP075	ltpFR	1	2	0	GRIZZLY	662	n/a	1	0	0.5869140625	0.422607421875	lower	../fonts/zerothre.ttf
304543	WORD	wordpools/wasnorm_wordpool.txt	LTP075	ltpFR	1	2	0	LASH	802	n/a	1	0	0.5869140625	0.422607421875	lower	../fonts/zerothre.ttf
308425	WORD	wordpools/wasnorm_wordpool.txt	LTP075	ltpFR	1	2	1	WHIP	1604	n/a	0	1	0.412841796875	0.57763671875	upper	../fonts/amplitud.ttf
312450	WORD	wordpools/wasnorm_wordpool.txt	LTP075	ltpFR	1	2	1	CAULIFLOWER	262	n/a	1	1	0.412841796875	0.57763671875	upper	../fonts/amplitud.ttf
316551	WORD	wordpools/wasnorm_wordpool.txt	LTP075	ltpFR	1	2	1	CHIMPANZEE	302	n/a	1	1	0.412841796875	0.57763671875	upper	../fonts/amplitud.ttf
320750	WORD	wordpools/wasnorm_wordpool.txt	LTP075	ltpFR	1	2	1	PUBLISHER	1137	n/a	1	1	0.412841796875	0.57763671875	upper	../fonts/amplitud.ttf
326551	REC_START	n/a	LTP075	ltpFR	1	2	n/a	n/a	n/a	n/a	n/a	n/a	n/a	n/a	n/a	n/a
327080	REC_WORD	wordpools/wasnorm_wordpool.txt	LTP075	ltpFR	1	2	1	PUBLISHER	1137	n/a	1	n/a	n/a	n/a	n/a	n/a
328431	REC_WORD	wordpools/wasnorm_wordpool.txt	LTP075	ltpFR	1	2	1	CHIMPANZEE	302	n/a	1	n/a	n/a	n/a	n/a	n/a
330973	REC_WORD	wordpools/wasnorm_wordpool.txt	LTP075	ltpFR	1	2	0	LASH	802	n/a	1	n/a	n/a	n/a	n/a	n/a
333305	REC_WORD	wordpools/wasnorm_wordpool.txt	LTP075	ltpFR	1	2	0	COD	340	n/a	0	n/a	n/a	n/a	n/a	n/a
341705	REC_WORD	wordpools/wasnorm_wordpool.txt	LTP075	ltpFR	1	2	0	GRIZZLY	662	n/a	1	n/a	n/a	n/a	n/a	n/a
352234	REC_WORD	wordpools/wasnorm_wordpool.txt	LTP075	ltpFR	1	2	0	SUPERMARKET	1409	n/a	1	n/a	n/a	n/a	n/a	n/a
362420	REC_WORD	wordpools/wasnorm_wordpool.txt	LTP075	ltpFR	1	2	0	LOLLIPOP	842	n/a	0	n/a	n/a	n/a	n/a	n/a
405943	WORD	wordpools/wasnorm_wordpool.txt	LTP075	ltpFR	1	3	1	BROTHER	179	n/a	3	1	0.412841796875	0.57763671875	upper	../fonts/amplitud.ttf
407001	KEY_MSG	n/a	LTP075	ltpFR	1	3	n/a	n/a	n/a	n/a	n/a	n/a	n/a	n/a	n/a	n/a
409761	WORD	wordpools/wasnorm_wordpool.txt	LTP075	ltpFR	1	3	1	RELATIVE	1182	n/a	1	1	0.412841796875	0.57763671875	upper	../fonts/amplitud.ttf
413834	WORD	wordpools/wasnorm_wordpool.txt	LTP075	ltpFR	1	3	1	CHIPMUNK	304	n/a	1	1	0.412841796875	0.57763671875	upper	../fonts/amplitud.ttf
417693	WORD	wordpools/wasnorm_wordpool.txt	LTP075	ltpFR	1	3	1	WAVE	1596	n/a	0	1	0.412841796875	0.57763671875	upper	../fonts/amplitud.ttf
421900	WORD	wordpools/wasnorm_wordpool.txt	LTP075	ltpFR	1	3	1	PACKAGE	997	n/a	0	1	0.412841796875	0.57763671875	upper	../fonts/amplitud.ttf
425900	WORD	wordpools/wasnorm_wordpool.txt	LTP075	ltpFR	1	3	1	CIGAR	308	n/a	0	1	0.412841796875	0.57763671875	upper	../fonts/amplitud.ttf
429734	WORD	wordpools/wasnorm_wordpool.txt	LTP075	ltpFR	1	3	1	ASHTRAY	45	n/a	0	1	0.412841796875	0.57763671875	upper	../fonts/amplitud.ttf
433725	WORD	wordpools/wasnorm_wordpool.txt	LTP075	ltpFR	1	3	1	BAKER	71	n/a	1	1	0.412841796875	0.57763671875	upper	../fonts/amplitud.ttf
437882	WORD	wordpools/wasnorm_wordpool.txt	LTP075	ltpFR	1	3	1	GUEST	669	n/a	1	1	0.412841796875	0.57763671875	upper	../fonts/amplitud.ttf
442074	WORD	wordpools/wasnorm_wordpool.txt	LTP075	ltpFR	1	3	1	STRANGER	1389	n/a	1	1	0.412841796875	0.57763671875	upper	../fonts/amplitud.ttf
446115	WORD	wordpools/wasnorm_wordpool.txt	LTP075	ltpFR	1	3	1	PRIEST	1122	n/a	1	1	0.412841796875	0.57763671875	upper	../fonts/amplitud.ttf
450090	WORD	wordpools/wasnorm_wordpool.txt	LTP075	ltpFR	1	3	1	LOUNGE	845	n/a	0	1	0.412841796875	0.57763671875	upper	../fonts/amplitud.ttf
454198	WORD	wordpools/wasnorm_wordpool.txt	LTP075	ltpFR	1	3	1	STEW	1380	n/a	0	1	0.412841796875	0.57763671875	upper	../fonts/amplitud.ttf
458214	WORD	wordpools/wasnorm_wordpool.txt	LTP075	ltpFR	1	3	1	CATHEDRAL	260	n/a	0	1	0.412841796875	0.57763671875	upper	../fonts/amplitud.ttf
462114	WORD	wordpools/wasnorm_wordpool.txt	LTP075	ltpFR	1	3	1	VENT	1556	n/a	0	1	0.412841796875	0.57763671875	upper	../fonts/amplitud.ttf
466247	WORD	wordpools/wasnorm_wordpool.txt	LTP075	ltpFR	1	3	1	BRANDY	169	n/a	0	1	0.412841796875	0.57763671875	upper	../fonts/amplitud.ttf
472056	REC_START	n/a	LTP075	ltpFR	1	3	n/a	n/a	n/a	n/a	n/a	n/a	n/a	n/a	n/a	n/a
472617	REC_WORD	wordpools/wasnorm_wordpool.txt	LTP075	ltpFR	1	3	1	CATHEDRAL	260	n/a	0	n/a	n/a	n/a	n/a	n/a
474413	REC_WORD	wordpools/wasnorm_wordpool.txt	LTP075	ltpFR	1	3	1	VENT	1556	n/a	0	n/a	n/a	n/a	n/a	n/a
475520	REC_WORD	wordpools/wasnorm_wordpool.txt	LTP075	ltpFR	1	3	1	BRANDY	169	n/a	0	n/a	n/a	n/a	n/a	n/a
476883	REC_WORD	wordpools/wasnorm_wordpool.txt	LTP075	ltpFR	1	3	1	RELATIVE	1182	n/a	1	n/a	n/a	n/a	n/a	n/a
478171	REC_WORD	wordpools/wasnorm_wordpool.txt	LTP075	ltpFR	1	3	1	STEW	1380	n/a	0	n/a	n/a	n/a	n/a	n/a
487719	REC_WORD	wordpools/wasnorm_wordpool.txt	LTP075	ltpFR	1	3	1	CHIPMUNK	304	n/a	1	n/a	n/a	n/a	n/a	n/a
497873	REC_WORD	wordpools/wasnorm_wordpool.txt	LTP075	ltpFR	1	3	1	BROTHER	179	n/a	3	n/a	n/a	n/a	n/a	n/a
500723	REC_WORD	wordpools/wasnorm_wordpool.txt	LTP075	ltpFR	1	3	1	GUEST	669	n/a	1	n/a	n/a	n/a	n/a	n/a
556432	WORD	wordpools/wasnorm_wordpool.txt	LTP075	ltpFR	1	4	0	PITCHFORK	1078	n/a	1	0	0.5869140625	0.422607421875	lower	../fonts/zerothre.ttf
560616	WORD	wordpools/wasnorm_wordpool.txt	LTP075	ltpFR	1	4	0	SWAMP	1416	n/a	1	0	0.5869140625	0.422607421875	lower	../fonts/zerothre.ttf
564798	WORD	wordpools/wasnorm_wordpool.txt	LTP075	ltpFR	1	4	1	FOLDER	588	n/a	0	1	0.412841796875	0.57763671875	upper	../fonts/amplitud.ttf
569006	WORD	wordpools/wasnorm_wordpool.txt	LTP075	ltpFR	1	4	1	STEAM	1375	n/a	0	1	0.412841796875	0.57763671875	upper	../fonts/amplitud.ttf
572873	WORD	wordpools/wasnorm_wordpool.txt	LTP075	ltpFR	1	4	1	KETTLE	772	n/a	0	1	0.412841796875	0.57763671875	upper	../fonts/amplitud.ttf
576740	WORD	wordpools/wasnorm_wordpool.txt	LTP075	ltpFR	1	4	1	CROCODILE	411	n/a	1	1	0.412841796875	0.57763671875	upper	../fonts/amplitud.ttf
580947	WORD	wordpools/wasnorm_wordpool.txt	LTP075	ltpFR	1	4	0	LION	827	n/a	1	0	0.5869140625	0.422607421875	lower	../fonts/zerothre.ttf
584955	WORD	wordpools/wasnorm_wordpool.txt	LTP075	ltpFR	1	4	0	CAT	257	n/a	1	0	0.5869140625	0.422607421875	lower	../fonts/zerothre.ttf
588972	WORD	wordpools/wasnorm_wordpool.txt	LTP075	ltpFR	1	4	0	CHAMPAGNE	278	n/a	1	0	0.5869140625	0.422607421875	lower	../fonts/zerothre.ttf
592996	WORD	wordpools/wasnorm_wordpool.txt	LTP075	ltpFR	1	4	1	RUM	1217	n/a	0	1	0.412841796875	0.57763671875	upper	../fonts/amplitud.ttf
597163	WORD	wordpools/wasnorm_wordpool.txt	LTP075	ltpFR	1	4	1	BINDER	127	n/a	0	1	0.412841796875	0.57763671875	upper	../fonts/amplitud.ttf
601012	WORD	wordpools/wasnorm_wordpool.txt	LTP075	ltpFR	1	4	1	SPONGE	1355	n/a	0	1	0.412841796875	0.57763671875	upper	../fonts/amplitud.ttf
605120	WORD	wordpools/wasnorm_wordpool.txt	LTP075	ltpFR	1	4	1	OX	994	n/a	1	1	0.412841796875	0.57763671875	upper	../fonts/amplitud.ttf
609253	WORD	wordpools/wasnorm_wordpool.txt	LTP075	ltpFR	1	4	0	CHAMPION	279	n/a	1	0	0.5869140625	0.422607421875	lower	../fonts/zerothre.ttf
613270	WORD	wordpools/wasnorm_wordpool.txt	LTP075	ltpFR	1	4	0	WARRIOR	1589	n/a	1	0	0.5869140625	0.422607421875	lower	../fonts/zerothre.ttf
617186	WORD	wordpools/wasnorm_wordpool.txt	LTP075	ltpFR	1	4	0	TOTE	1487	n/a	0	0	0.5869140625	0.422607421875	lower	../fonts/zerothre.ttf
623136	REC_START	n/a	LTP075	ltpFR	1	4	n/a	n/a	n/a	n/a	n/a	n/a	n/a	n/a	n/a	n/a
623692	REC_WORD	wordpools/wasnorm_wordpool.txt	LTP075	ltpFR	1	4	0	CHAMPION	279	n/a	1	n/a	n/a	n/a	n/a	n/a
624719	REC_WORD	wordpools/wasnorm_wordpool.txt	LTP075	ltpFR	1	4	0	WARRIOR	1589	n/a	1	n/a	n/a	n/a	n/a	n/a
626892	REC_WORD	wordpools/wasnorm_wordpool.txt	LTP075	ltpFR	1	4	0	TOTE	1487	n/a	0	n/a	n/a	n/a	n/a	n/a
627723	REC_WORD	wordpools/wasnorm_wordpool.txt	LTP075	ltpFR	1	4	0	LION	827	n/a	1	n/a	n/a	n/a	n/a	n/a
628954	REC_WORD	wordpools/wasnorm_wordpool.txt	LTP075	ltpFR	1	4	1	BINDER	127	n/a	0	n/a	n/a	n/a	n/a	n/a
630879	REC_WORD	wordpools/wasnorm_wordpool.txt	LTP075	ltpFR	1	4	1	FOLDER	588	n/a	0	n/a	n/a	n/a	n/a	n/a
632369	REC_WORD	wordpools/wasnorm_wordpool.txt	LTP075	ltpFR	1	4	1	KETTLE	772	n/a	0	n/a	n/a	n/a	n/a	n/a
633888	REC_WORD	wordpools/wasnorm_wordpool.txt	LTP075	ltpFR	1	4	1	STEAM	1375	n/a	0	n/a	n/a	n/a	n/a	n/a
635382	REC_WORD	wordpools/wasnorm_wordpool.txt	LTP075	ltpFR	1	4	0	CAT	257	n/a	1	n/a	n/a	n/a	n/a	n/a
637037	REC_WORD	wordpools/wasnorm_wordpool.txt	LTP075	ltpFR	1	4	0	CHAMPAGNE	278	n/a	1	n/a	n/a	n/a	n/a	n/a
639182	REC_WORD	wordpools/wasnorm_wordpool.txt	LTP075	ltpFR	1	4	1	RUM	1217	n/a	0	n/a	n/a	n/a	n/a	n/a
704388	WORD	wordpools/wasnorm_wordpool.txt	LTP075	ltpFR	1	5	1	MEAL	882	n/a	0	1	0.412841796875	0.57763671875	upper	../fonts/amplitud.ttf
708438	WORD	wordpools/wasnorm_wordpool.txt	LTP075	ltpFR	1	5	1	VEIN	1554	n/a	1	1	0.412841796875	0.57763671875	upper	../fonts/amplitud.ttf
712362	WORD	wordpools/wasnorm_wordpool.txt	LTP075	ltpFR	1	5	1	BARRACUDA	90	n/a	1	1	0.412841796875	0.57763671875	upper	../fonts/amplitud.ttf
716379	WORD	wordpools/wasnorm_wordpool.txt	LTP075	ltpFR	1	5	1	CANAL	226	n/a	0	1	0.412841796875	0.57763671875	upper	../fonts/amplitud.ttf
720345	WORD	wordpools/wasnorm_wordpool.txt	LTP075	ltpFR	1	5	1	CREW	406	n/a	1	1	0.412841796875	0.57763671875	upper	../fonts/amplitud.ttf
724353	WORD	wordpools/wasnorm_wordpool.txt	LTP075	ltpFR	1	5	1	CLAM	315	n/a	1	1	0.412841796875	0.57763671875	upper	../fonts/amplitud.ttf
728286	WORD	wordpools/wasnorm_wordpool.txt	LTP075	ltpFR	1	5	0	BROOM	178	n/a	1	0	0.5869140625	0.422607421875	lower	../fonts/zerothre.ttf
732495	WORD	wordpools/wasnorm_wordpool.txt	LTP075	ltpFR	1	5	0	FLANNEL	574	n/a	0	0	0.5869140625	0.422607421875	lower	../fonts/zerothre.ttf
736344	WORD	wordpools/wasnorm_wordpool.txt	LTP075	ltpFR	1	5	0	PASTRY	1022	n/a	0	0	0.5869140625	0.422607421875	lower	../fonts/zerothre.ttf
740419	WORD	wordpools/wasnorm_wordpool.txt	LTP075	ltpFR	1	5	1	EMPLOYER	532	n/a	1	1	0.412841796875	0.57763671875	upper	../fonts/amplitud.ttf
744611	WORD	wordpools/wasnorm_wordpool.txt	LTP075	ltpFR	1	5	1	SECRETARY	1265	n/a	1	1	0.412841796875	0.57763671875	upper	../fonts/amplitud.ttf
748644	WORD	wordpools/wasnorm_wordpool.txt	LTP075	ltpFR	1	5	0	SHRIMP	1297	n/a	0	0	0.5869140625	0.422607421875	lower	../fonts/zerothre.ttf
752843	WORD	wordpools/wasnorm_wordpool.txt	LTP075	ltpFR	1	5	0	DUST	508	n/a	0	0	0.5869140625	0.422607421875	lower	../fonts/zerothre.ttf
757001	WORD	wordpools/wasnorm_wordpool.txt	LTP075	ltpFR	1	5	0	DIRT	472	n/a	0	0	0.5869140625	0.422607421875	lower	../fonts/zerothre.ttf
760976	WORD	wordpools/wasnorm_wordpool.txt	LTP075	ltpFR	1	5	0	MOUNTAIN	924	n/a	1	0	0.5869140625	0.422607421875	lower	../fonts/zerothre.ttf
765050	WORD	wordpools/wasnorm_wordpool.txt	LTP075	ltpFR	1	5	0	TUNA	1518	n/a	0	0	0.5869140625	0.422607421875	lower	../fonts/zerothre.ttf
770710	REC_START	n/a	LTP075	ltpFR	1	5	n/a	n/a	n/a	n/a	n/a	n/a	n/a	n/a	n/a	n/a
771445	REC_WORD	wordpools/wasnorm_wordpool.txt	LTP075	ltpFR	1	5	0	TUNA	1518	n/a	0	n/a	n/a	n/a	n/a	n/a
772520	REC_WORD	wordpools/wasnorm_wordpool.txt	LTP075	ltpFR	1	5	0	DUST	508	n/a	0	n/a	n/a	n/a	n/a	n/a
773322	REC_WORD	wordpools/wasnorm_wordpool.txt	LTP075	ltpFR	1	5	0	DIRT	472	n/a	0	n/a	n/a	n/a	n/a	n/a
774470	REC_WORD	wordpools/wasnorm_wordpool.txt	LTP075	ltpFR	1	5	0	MOUNTAIN	924	n/a	1	n/a	n/a	n/a	n/a	n/a
775990	REC_WORD	wordpools/wasnorm_wordpool.txt	LTP075	ltpFR	1	5	1	EMPLOYER	532	n/a	1	n/a	n/a	n/a	n/a	n/a
777732	REC_WORD	wordpools/wasnorm_wordpool.txt	LTP075	ltpFR	1	5	1	SECRETARY	1265	n/a	1	n/a	n/a	n/a	n/a	n/a
779750	REC_WORD	wordpools/wasnorm_wordpool.txt	LTP075	ltpFR	1	5	1	VEIN	1554	n/a	1	n/a	n/a	n/a	n/a	n/a
787957	REC_WORD	wordpools/wasnorm_wordpool.txt	LTP075	ltpFR	1	5	n/a	FISH	571	n/a	n/a	n/a	n/a	n/a	n/a	n/a
793740	REC_WORD	wordpools/wasnorm_wordpool.txt	LTP075	ltpFR	1	5	0	TUNA	1518	n/a	0	n/a	n/a	n/a	n/a	n/a
797446	REC_WORD	wordpools/wasnorm_wordpool.txt	LTP075	ltpFR	1	5	1	CANAL	226	n/a	0	n/a	n/a	n/a	n/a	n/a
804698	REC_WORD	wordpools/wasnorm_wordpool.txt	LTP075	ltpFR	1	5	1	CREW	406	n/a	1	n/a	n/a	n/a	n/a	n/a
850361	WORD	wordpools/wasnorm_wordpool.txt	LTP075	ltpFR	1	6	-1	CAVE	263	n/a	-1	1	1.0	1.0	upper	../fonts/Verdana.ttf
854444	WORD	wordpools/wasnorm_wordpool.txt	LTP075	ltpFR	1	6	-1	SUBURB	1399	n/a	-1	1	1.0	1.0	upper	../fonts/Verdana.ttf
858385	WORD	wordpools/wasnorm_wordpool.txt	LTP075	ltpFR	1	6	-1	PATIO	1025	n/a	-1	1	1.0	1.0	upper	../fonts/Verdana.ttf
862218	WORD	wordpools/wasnorm_wordpool.txt	LTP075	ltpFR	1	6	-1	WAND	1586	n/a	-1	1	1.0	1.0	upper	../fonts/Verdana.ttf
866051	WORD	wordpools/wasnorm_wordpool.txt	LTP075	ltpFR	1	6	-1	CAFETERIA	217	n/a	-1	1	1.0	1.0	upper	../fonts/Verdana.ttf
869984	WORD	wordpools/wasnorm_wordpool.txt	LTP075	ltpFR	1	6	-1	COWBOY	395	n/a	-1	1	1.0	1.0	upper	../fonts/Verdana.ttf
873917	WORD	wordpools/wasnorm_wordpool.txt	LTP075	ltpFR	1	6	-1	PENNY	1045	n/a	-1	1	1.0	1.0	upper	../fonts/Verdana.ttf
878109	WORD	wordpools/wasnorm_wordpool.txt	LTP075	ltpFR	1	6	-1	QUARTER	1148	n/a	-1	1	1.0	1.0	upper	../fonts/Verdana.ttf
882158	WORD	wordpools/wasnorm_wordpool.txt	LTP075	ltpFR	1	6	-1	MASCARA	875	n/a	-1	1	1.0	1.0	upper	../fonts/Verdana.ttf
886216	WORD	wordpools/wasnorm_wordpool.txt	LTP075	ltpFR	1	6	-1	MILDEW	893	n/a	-1	1	1.0	1.0	upper	../fonts/Verdana.ttf
890233	WORD	wordpools/wasnorm_wordpool.txt	LTP075	ltpFR	1	6	-1	CUCUMBER	421	n/a	-1	1	1.0	1.0	upper	../fonts/Verdana.ttf
894132	WORD	wordpools/wasnorm_wordpool.txt	LTP075	ltpFR	1	6	-1	EYELASH	546	n/a	-1	1	1.0	1.0	upper	../fonts/Verdana.ttf
897966	WORD	wordpools/wasnorm_wordpool.txt	LTP075	ltpFR	1	6	-1	SHACK	1273	n/a	-1	1	1.0	1.0	upper	../fonts/Verdana.ttf
901807	WORD	wordpools/wasnorm_wordpool.txt	LTP075	ltpFR	1	6	-1	COCOON	339	n/a	-1	1	1.0	1.0	upper	../fonts/Verdana.ttf
905890	WORD	wordpools/wasnorm_wordpool.txt	LTP075	ltpFR	1	6	-1	CRITIC	410	n/a	-1	1	1.0	1.0	upper	../fonts/Verdana.ttf
910023	WORD	wordpools/wasnorm_wordpool.txt	LTP075	ltpFR	1	6	-1	EUROPE	541	n/a	-1	1	1.0	1.0	upper	../fonts/Verdana.ttf
915956	REC_START	n/a	LTP075	ltpFR	1	6	n/a	n/a	n/a	n/a	n/a	n/a	n/a	n/a	n/a	n/a
916526	REC_WORD	wordpools/wasnorm_wordpool.txt	LTP075	ltpFR	1	6	-1	EUROPE	541	n/a	-1	n/a	n/a	n/a	n/a	n/a
917320	REC_WORD	wordpools/wasnorm_wordpool.txt	LTP075	ltpFR	1	6	-1	CRITIC	410	n/a	-1	n/a	n/a	n/a	n/a	n/a
918512	REC_WORD	wordpools/wasnorm_wordpool.txt	LTP075	ltpFR	1	6	-1	CAVE	263	n/a	-1	n/a	n/a	n/a	n/a	n/a
919624	REC_WORD	wordpools/wasnorm_wordpool.txt	LTP075	ltpFR	1	6	-1	EYELASH	546	n/a	-1	n/a	n/a	n/a	n/a	n/a
920956	REC_WORD	wordpools/wasnorm_wordpool.txt	LTP075	ltpFR	1	6	-1	MASCARA	875	n/a	-1	n/a	n/a	n/a	n/a	n/a
937594	REC_WORD	wordpools/wasnorm_wordpool.txt	LTP075	ltpFR	1	6	-1	CUCUMBER	421	n/a	-1	n/a	n/a	n/a	n/a	n/a
939642	REC_WORD	wordpools/wasnorm_wordpool.txt	LTP075	ltpFR	1	6	-1	MILDEW	893	n/a	-1	n/a	n/a	n/a	n/a	n/a
995900	WORD	wordpools/wasnorm_wordpool.txt	LTP075	ltpFR	1	7	-1	TOWER	1490	n/a	-1	1	1.0	1.0	upper	../fonts/Verdana.ttf
999891	WORD	wordpools/wasnorm_wordpool.txt	LTP075	ltpFR	1	7	-1	RAZOR	1171	n/a	-1	1	1.0	1.0	upper	../fonts/Verdana.ttf
1003799	WORD	wordpools/wasnorm_wordpool.txt	LTP075	ltpFR	1	7	-1	HINGE	709	n/a	-1	1	1.0	1.0	upper	../fonts/Verdana.ttf
1007866	WORD	wordpools/wasnorm_wordpool.txt	LTP075	ltpFR	1	7	-1	TORCH	1484	n/a	-1	1	1.0	1.0	upper	../fonts/Verdana.ttf
1011982	WORD	wordpools/wasnorm_wordpool.txt	LTP075	ltpFR	1	7	-1	DOCK	477	n/a	-1	1	1.0	1.0	upper	../fonts/Verdana.ttf
1015840	WORD	wordpools/wasnorm_wordpool.txt	LTP075	ltpFR	1	7	-1	JURY	766	n/a	-1	1	1.0	1.0	upper	../fonts/Verdana.ttf
1019932	WORD	wordpools/wasnorm_wordpool.txt	LTP075	ltpFR	1	7	-1	SCISSORS	1250	n/a	-1	1	1.0	1.0	upper	../fonts/Verdana.ttf
1023848	WORD	wordpools/wasnorm_wordpool.txt	LTP075	ltpFR	1	7	-1	VESSEL	1558	n/a	-1	1	1.0	1.0	upper	../fonts/Verdana.ttf
1027889	WORD	wordpools/wasnorm_wordpool.txt	LTP075	ltpFR	1	7	-1	CREVICE	405	n/a	-1	1	1.0	1.0	upper	../fonts/Verdana.ttf
1031707	WORD	wordpools/wasnorm_wordpool.txt	LTP075	ltpFR	1	7	-1	HERO	706	n/a	-1	1	1.0	1.0	upper	../fonts/Verdana.ttf
1035922	WORD	wordpools/wasnorm_wordpool.txt	LTP075	ltpFR	1	7	-1	GHOST	634	n/a	-1	1	1.0	1.0	upper	../fonts/Verdana.ttf
1039872	WORD	wordpools/wasnorm_wordpool.txt	LTP075	ltpFR	1	7	-1	PUPPY	1144	n/a	-1	1	1.0	1.0	upper	../fonts/Verdana.ttf
1043838	WORD	wordpools/wasnorm_wordpool.txt	LTP075	ltpFR	1	7	-1	CABINET	212	n/a	-1	1	1.0	1.0	upper	../fonts/Verdana.ttf
1047880	WORD	wordpools/wasnorm_wordpool.txt	LTP075	ltpFR	1	7	-1	KNOB	787	n/a	-1	1	1.0	1.0	upper	../fonts/Verdana.ttf
1051705	WORD	wordpools/wasnorm_wordpool.txt	LTP075	ltpFR	1	7	-1	DEPARTMENT	449	n/a	-1	1	1.0	1.0	upper	../fonts/Verdana.ttf
1055904	WORD	wordpools/wasnorm_wordpool.txt	LTP075	ltpFR	1	7	-1	MARKET	871	n/a	-1	1	1.0	1.0	upper	../fonts/Verdana.ttf
1061854	REC_START	n/a	LTP075	ltpFR	1	7	n/a	n/a	n/a	n/a	n/a	n/a	n/a	n/a	n/a	n/a
1062313	REC_WORD	wordpools/wasnorm_wordpool.txt	LTP075	ltpFR	1	7	-1	MARKET	871	n/a	-1	n/a	n/a	n/a	n/a	n/a
1063245	REC_WORD	wordpools/wasnorm_wordpool.txt	LTP075	ltpFR	1	7	-1	DEPARTMENT	449	n/a	-1	n/a	n/a	n/a	n/a	n/a
1064358	REC_WORD	wordpools/wasnorm_wordpool.txt	LTP075	ltpFR	1	7	-1	KNOB	787	n/a	-1	n/a	n/a	n/a	n/a	n/a
1065597	REC_WORD	wordpools/wasnorm_wordpool.txt	LTP075	ltpFR	1	7	-1	TOWER	1490	n/a	-1	n/a	n/a	n/a	n/a	n/a
1067678	REC_WORD	wordpools/wasnorm_wordpool.txt	LTP075	ltpFR	1	7	-1	GHOST	634	n/a	-1	n/a	n/a	n/a	n/a	n/a
1080418	REC_WORD	wordpools/wasnorm_wordpool.txt	LTP075	ltpFR	1	7	-1	HINGE	709	n/a	-1	n/a	n/a	n/a	n/a	n/a
1086251	REC_WORD	wordpools/wasnorm_wordpool.txt	LTP075	ltpFR	1	7	n/a	DOOR	486	n/a	n/a	n/a	n/a	n/a	n/a	n/a
1091722	REC_WORD	wordpools/wasnorm_wordpool.txt	LTP075	ltpFR	1	7	-1	SCISSORS	1250	n/a	-1	n/a	n/a	n/a	n/a	n/a
1113703	REC_WORD	wordpools/wasnorm_wordpool.txt	LTP075	ltpFR	1	7	n/a	MOON	914	n/a	n/a	n/a	n/a	n/a	n/a	n/a
1142707	WORD	wordpools/wasnorm_wordpool.txt	LTP075	ltpFR	1	8	0	MILITARY	894	n/a	1	0	0.5869140625	0.422607421875	lower	../fonts/zerothre.ttf
1146598	WORD	wordpools/wasnorm_wordpool.txt	LTP075	ltpFR	1	8	0	SPARROW	1347	n/a	0	0	0.5869140625	0.422607421875	lower	../fonts/zerothre.ttf
1150447	WORD	wordpools/wasnorm_wordpool.txt	LTP075	ltpFR	1	8	0	FIREPLACE	570	n/a	1	0	0.5869140625	0.422607421875	lower	../fonts/zerothre.ttf
1154606	WORD	wordpools/wasnorm_wordpool.txt	LTP075	ltpFR	1	8	0	FUR	615	n/a	1	0	0.5869140625	0.422607421875	lower	../fonts/zerothre.ttf
1158522	WORD	wordpools/wasnorm_wordpool.txt	LTP075	ltpFR	1	8	0	GENTLEMAN	631	n/a	1	0	0.5869140625	0.422607421875	lower	../fonts/zerothre.ttf
1162506	WORD	wordpools/wasnorm_wordpool.txt	LTP075	ltpFR	1	8	0	GIRL	637	n/a	1	0	0.5869140625	0.422607421875	lower	../fonts/zerothre.ttf
1166338	WORD	wordpools/wasnorm_wordpool.txt	LTP075	ltpFR	1	8	0	LOOP	844	n/a	0	0	0.5869140625	0.422607421875	lower	../fonts/zerothre.ttf
1170221	WORD	wordpools/wasnorm_wordpool.txt	LTP075	ltpFR	1	8	0	CUBE	420	n/a	0	0	0.5869140625	0.422607421875	lower	../fonts/zerothre.ttf
1174195	WORD	wordpools/wasnorm_wordpool.txt	LTP075	ltpFR	1	8	0	CHEESE	289	n/a	0	0	0.5869140625	0.422607421875	lower	../fonts/zerothre.ttf
1178212	WORD	wordpools/wasnorm_wordpool.txt	LTP075	ltpFR	1	8	0	ELECTRICIAN	521	n/a	1	0	0.5869140625	0.422607421875	lower	../fonts/zerothre.ttf
1182328	WORD	wordpools/wasnorm_wordpool.txt	LTP075	ltpFR	1	8	0	KIWI	781	n/a	0	0	0.5869140625	0.422607421875	lower	../fonts/zerothre.ttf
1186353	WORD	wordpools/wasnorm_wordpool.txt	LTP075	ltpFR	1	8	0	BILL	126	n/a	0	0	0.5869140625	0.422607421875	lower	../fonts/zerothre.ttf
1190528	WORD	wordpools/wasnorm_wordpool.txt	LTP075	ltpFR	1	8	0	SERGEANT	1269	n/a	1	0	0.5869140625	0.422607421875	lower	../fonts/zerothre.ttf
1194670	WORD	wordpools/wasnorm_wordpool.txt	LTP075	ltpFR	1	8	0	LAMP	798	n/a	1	0	0.5869140625	0.422607421875	lower	../fonts/zerothre.ttf
1198794	WORD	wordpools/wasnorm_wordpool.txt	LTP075	ltpFR	1	8	0	NICOTINE	951	n/a	0	0	0.5869140625	0.422607421875	lower	../fonts/zerothre.ttf
1202952	WORD	wordpools/wasnorm_wordpool.txt	LTP075	ltpFR	1	8	0	CIGARETTE	309	n/a	0	0	0.5869140625	0.422607421875	lower	../fonts/zerothre.ttf
1208860	REC_START	n/a	LTP075	ltpFR	1	8	n/a	n/a	n/a	n/a	n/a	n/a	n/a	n/a	n/a	n/a
1209684	REC_WORD	wordpools/wasnorm_wordpool.txt	LTP075	ltpFR	1	8	0	NICOTINE	951	n/a	0	n/a	n/a	n/a	n/a	n/a
1210757	REC_WORD	wordpools/wasnorm_wordpool.txt	LTP075	ltpFR	1	8	0	CIGARETTE	309	n/a	0	n/a	n/a	n/a	n/a	n/a
1213406	REC_WORD	wordpools/wasnorm_wordpool.txt	LTP075	ltpFR	1	8	0	LAMP	798	n/a	1	n/a	n/a	n/a	n/a	n/a
1215250	REC_WORD	wordpools/wasnorm_wordpool.txt	LTP075	ltpFR	1	8	0	GIRL	637	n/a	1	n/a	n/a	n/a	n/a	n/a
1218863	REC_WORD	wordpools/wasnorm_wordpool.txt	LTP075	ltpFR	1	8	0	SERGEANT	1269	n/a	1	n/a	n/a	n/a	n/a	n/a
1276290	REC_WORD	wordpools/wasnorm_wordpool.txt	LTP075	ltpFR	1	8	0	CUBE	420	n/a	0	n/a	n/a	n/a	n/a	n/a
1288420	WORD	wordpools/wasnorm_wordpool.txt	LTP075	ltpFR	1	9	0	YARD	1630	n/a	1	0	0.5869140625	0.422607421875	lower	../fonts/zerothre.ttf
1292412	WORD	wordpools/wasnorm_wordpool.txt	LTP075	ltpFR	1	9	0	BRICK	172	n/a	0	0	0.5869140625	0.422607421875	lower	../fonts/zerothre.ttf
1296436	WORD	wordpools/wasnorm_wordpool.txt	LTP075	ltpFR	1	9	0	PEANUT	1032	n/a	0	0	0.5869140625	0.422607421875	lower	../fonts/zerothre.ttf
1300545	WORD	wordpools/wasnorm_wordpool.txt	LTP075	ltpFR	1	9	0	BOLT	146	n/a	0	0	0.5869140625	0.422607421875	lower	../fonts/zerothre.ttf
1304737	WORD	wordpools/wasnorm_wordpool.txt	LTP075	ltpFR	1	9	0	PAINTER	1004	n/a	1	0	0.5869140625	0.422607421875	lower	../fonts/zerothre.ttf
1308802	WORD	wordpools/wasnorm_wordpool.txt	LTP075	ltpFR	1	9	0	TOOTH	1481	n/a	0	0	0.5869140625	0.422607421875	lower	../fonts/zerothre.ttf
1312952	WORD	wordpools/wasnorm_wordpool.txt	LTP075	ltpFR	1	9	0	CHESS	294	n/a	1	0	0.5869140625	0.422607421875	lower	../fonts/zerothre.ttf
1317027	WORD	wordpools/wasnorm_wordpool.txt	LTP075	ltpFR	1	9	0	SWIMMER	1420	n/a	1	0	0.5869140625	0.422607421875	lower	../fonts/zerothre.ttf
1320893	WORD	wordpools/wasnorm_wordpool.txt	LTP075	ltpFR	1	9	0	SCREWDRIVER	1255	n/a	0	0	0.5869140625	0.422607421875	lower	../fonts/zerothre.ttf
1325026	WORD	wordpools/wasnorm_wordpool.txt	LTP075	ltpFR	1	9	0	TAPE	1433	n/a	0	0	0.5869140625	0.422607421875	lower	../fonts/zerothre.ttf
1328917	WORD	wordpools/wasnorm_wordpool.txt	LTP075	ltpFR	1	9	0	CELLO	268	n/a	1	0	0.5869140625	0.422607421875	lower	../fonts/zerothre.ttf
1332760	WORD	wordpools/wasnorm_wordpool.txt	LTP075	ltpFR	1	9	0	TACK	1428	n/a	0	0	0.5869140625	0.422607421875	lower	../fonts/zerothre.ttf
1336751	WORD	wordpools/wasnorm_wordpool.txt	LTP075	ltpFR	1	9	0	SCREEN	1253	n/a	1	0	0.5869140625	0.422607421875	lower	../fonts/zerothre.ttf
1340941	WORD	wordpools/wasnorm_wordpool.txt	LTP075	ltpFR	1	9	0	TUXEDO	1525	n/a	1	0	0.5869140625	0.422607421875	lower	../fonts/zerothre.ttf
1344916	WORD	wordpools/wasnorm_wordpool.txt	LTP075	ltpFR	1	9	0	FLASK	576	n/a	0	0	0.5869140625	0.422607421875	lower	../fonts/zerothre.ttf
1348833	WORD	wordpools/wasnorm_wordpool.txt	LTP075	ltpFR	1	9	0	COTTAGE	384	n/a	1	0	0.5869140625	0.422607421875	lower	../fonts/zerothre.ttf
1354433	REC_START	n/a	LTP075	ltpFR	1	9	n/a	n/a	n/a	n/a	n/a	n/a	n/a	n/a	n/a	n/a
1355090	REC_WORD	wordpools/wasnorm_wordpool.txt	LTP075	ltpFR	1	9	0	COTTAGE	384	n/a	1	n/a	n/a	n/a	n/a	n/a
1356671	REC_WORD	wordpools/wasnorm_wordpool.txt	LTP075	ltpFR	1	9	0	FLASK	576	n/a	0	n/a	n/a	n/a	n/a	n/a
1358576	REC_WORD	wordpools/wasnorm_wordpool.txt	LTP075	ltpFR	1	9	0	SCREWDRIVER	1255	n/a	0	n/a	n/a	n/a	n/a	n/a
1360102	REC_WORD	wordpools/wasnorm_wordpool.txt	LTP075	ltpFR	1	9	0	BOLT	146	n/a	0	n/a	n/a	n/a	n/a	n/a
1361173	REC_WORD	wordpools/wasnorm_wordpool.txt	LTP075	ltpFR	1	9	0	YARD	1630	n/a	1	n/a	n/a	n/a	n/a	n/a
1363270	REC_WORD	wordpools/wasnorm_wordpool.txt	LTP075	ltpFR	1	9	0	BRICK	172	n/a	0	n/a	n/a	n/a	n/a	n/a
1364949	REC_WORD	wordpools/wasnorm_wordpool.txt	LTP075	ltpFR	1	9	0	SWIMMER	1420	n/a	1	n/a	n/a	n/a	n/a	n/a
1379298	REC_WORD	wordpools/wasnorm_wordpool.txt	LTP075	ltpFR	1	9	0	TACK	1428	n/a	0	n/a	n/a	n/a	n/a	n/a
1382007	REC_WORD	wordpools/wasnorm_wordpool.txt	LTP075	ltpFR	1	9	n/a	FARM	552	n/a	n/a	n/a	n/a	n/a	n/a	n/a
1389561	REC_WORD	wordpools/wasnorm_wordpool.txt	LTP075	ltpFR	1	9	0	TUXEDO	1525	n/a	1	n/a	n/a	n/a	n/a	n/a
1392622	REC_WORD	wordpools/wasnorm_wordpool.txt	LTP075	ltpFR	1	9	0	FLASK	576	n/a	0	n/a	n/a	n/a	n/a	n/a
1433901	WORD	wordpools/wasnorm_wordpool.txt	LTP075	ltpFR	1	10	0	KNAPSACK	783	n/a	1	0	0.5869140625	0.422607421875	lower	../fonts/zerothre.ttf
1438009	WORD	wordpools/wasnorm_wordpool.txt	LTP075	ltpFR	1	10	0	TRAY	1498	n/a	1	0	0.5869140625	0.422607421875	lower	../fonts/zerothre.ttf
1441992	WORD	wordpools/wasnorm_wordpool.txt	LTP075	ltpFR	1	10	0	POTATO	1115	n/a	0	0	0.5869140625	0.422607421875	lower	../fonts/zerothre.ttf
1446067	WORD	wordpools/wasnorm_wordpool.txt	LTP075	ltpFR	1	10	0	SALOON	1228	n/a	1	0	0.5869140625	0.422607421875	lower	../fonts/zerothre.ttf
1450267	WORD	wordpools/wasnorm_wordpool.txt	LTP075	ltpFR	1	10	0	SERVER	1272	n/a	1	0	0.5869140625	0.422607421875	lower	../fonts/zerothre.ttf
1454291	WORD	wordpools/wasnorm_wordpool.txt	LTP075	ltpFR	1	10	0	SHOP	1290	n/a	1	0	0.5869140625	0.422607421875	lower	../fonts/zerothre.ttf
1458225	WORD	wordpools/wasnorm_wordpool.txt	LTP075	ltpFR	1	10	0	CART	250	n/a	1	0	0.5869140625	0.422607421875	lower	../fonts/zerothre.ttf
1462174	WORD	wordpools/wasnorm_wordpool.txt	LTP075	ltpFR	1	10	0	SUITCASE	1403	n/a	1	0	0.5869140625	0.422607421875	lower	../fonts/zerothre.ttf
1466032	WORD	wordpools/wasnorm_wordpool.txt	LTP075	ltpFR	1	10	0	CHIME	300	n/a	0	0	0.5869140625	0.422607421875	lower	../fonts/zerothre.ttf
1470132	WORD	wordpools/wasnorm_wordpool.txt	LTP075	ltpFR	1	10	0	HAWK	692	n/a	1	0	0.5869140625	0.422607421875	lower	../fonts/zerothre.ttf
1474207	WORD	wordpools/wasnorm_wordpool.txt	LTP075	ltpFR	1	10	0	BOOTH	151	n/a	1	0	0.5869140625	0.422607421875	lower	../fonts/zerothre.ttf
1478165	WORD	wordpools/wasnorm_wordpool.txt	LTP075	ltpFR	1	10	0	ATOM	55	n/a	0	0	0.5869140625	0.422607421875	lower	../fonts/zerothre.ttf
1481990	WORD	wordpools/wasnorm_wordpool.txt	LTP075	ltpFR	1	10	0	MOLECULE	905	n/a	0	0	0.5869140625	0.422607421875	lower	../fonts/zerothre.ttf
1485956	WORD	wordpools/wasnorm_wordpool.txt	LTP075	ltpFR	1	10	0	BEEF	113	n/a	1	0	0.5869140625	0.422607421875	lower	../fonts/zerothre.ttf
1489790	WORD	wordpools/wasnorm_wordpool.txt	LTP075	ltpFR	1	10	0	BEARD	107	n/a	0	0	0.5869140625	0.422607421875	lower	../fonts/zerothre.ttf
1493872	WORD	wordpools/wasnorm_wordpool.txt	LTP075	ltpFR	1	10	0	WAITRESS	1581	n/a	1	0	0.5869140625	0.422607421875	lower	../fonts/zerothre.ttf
1499797	REC_START	n/a	LTP075	ltpFR	1	10	n/a	n/a	n/a	n/a	n/a	n/a	n/a	n/a	n/a	n/a
1500278	REC_WORD	wordpools/wasnorm_wordpool.txt	LTP075	ltpFR	1	10	0	WAITRESS	1581	n/a	1	n/a	n/a	n/a	n/a	n/a
1501568	REC_WORD	wordpools/wasnorm_wordpool.txt	LTP075	ltpFR	1	10	0	BEEF	113	n/a	1	n/a	n/a	n/a	n/a	n/a
1502999	REC_WORD	wordpools/wasnorm_wordpool.txt	LTP075	ltpFR	1	10	0	BEARD	107	n/a	0	n/a	n/a	n/a	n/a	n/a
1504498	REC_WORD	wordpools/wasnorm_wordpool.txt	LTP075	ltpFR	1	10	0	ATOM	55	n/a	0	n/a	n/a	n/a	n/a	n/a
1506291	REC_WORD	wordpools/wasnorm_wordpool.txt	LTP075	ltpFR	1	10	0	MOLECULE	905	n/a	0	n/a	n/a	n/a	n/a	n/a
1532832	REC_WORD	wordpools/wasnorm_wordpool.txt	LTP075	ltpFR	1	10	0	TOOTH	1481	n/a	0	n/a	n/a	n/a	n/a	n/a
1579816	WORD	wordpools/wasnorm_wordpool.txt	LTP075	ltpFR	1	11	1	ROBIN	1199	n/a	1	1	0.412841796875	0.57763671875	upper	../fonts/amplitud.ttf
1583865	WORD	wordpools/wasnorm_wordpool.txt	LTP075	ltpFR	1	11	1	RABBIT	1152	n/a	1	1	0.412841796875	0.57763671875	upper	../fonts/amplitud.ttf
1587940	WORD	wordpools/wasnorm_wordpool.txt	LTP075	ltpFR	1	11	1	SALMON	1227	n/a	1	1	0.412841796875	0.57763671875	upper	../fonts/amplitud.ttf
1592148	WORD	wordpools/wasnorm_wordpool.txt	LTP075	ltpFR	1	11	1	MOAT	903	n/a	0	1	0.412841796875	0.57763671875	upper	../fonts/amplitud.ttf
1596306	WORD	wordpools/wasnorm_wordpool.txt	LTP075	ltpFR	1	11	1	IRON	744	n/a	0	1	0.412841796875	0.57763671875	upper	../fonts/amplitud.ttf
1600472	WORD	wordpools/wasnorm_wordpool.txt	LTP075	ltpFR	1	11	1	GULL	671	n/a	1	1	0.412841796875	0.57763671875	upper	../fonts/amplitud.ttf
1604607	WORD	wordpools/wasnorm_wordpool.txt	LTP075	ltpFR	1	11	1	BARREL	91	n/a	0	1	0.412841796875	0.57763671875	upper	../fonts/amplitud.ttf
1608540	WORD	wordpools/wasnorm_wordpool.txt	LTP075	ltpFR	1	11	1	JUG	762	n/a	0	1	0.412841796875	0.57763671875	upper	../fonts/amplitud.ttf
1612681	WORD	wordpools/wasnorm_wordpool.txt	LTP075	ltpFR	1	11	1	VIOLA	1570	n/a	1	1	0.412841796875	0.57763671875	upper	../fonts/amplitud.ttf
1616656	WORD	wordpools/wasnorm_wordpool.txt	LTP075	ltpFR	1	11	1	GUITAR	670	n/a	0	1	0.412841796875	0.57763671875	upper	../fonts/amplitud.ttf
1620722	WORD	wordpools/wasnorm_wordpool.txt	LTP075	ltpFR	1	11	1	SEAFOOD	1260	n/a	0	1	0.412841796875	0.57763671875	upper	../fonts/amplitud.ttf
1624663	WORD	wordpools/wasnorm_wordpool.txt	LTP075	ltpFR	1	11	1	OYSTER	995	n/a	1	1	0.412841796875	0.57763671875	upper	../fonts/amplitud.ttf
1628588	WORD	wordpools/wasnorm_wordpool.txt	LTP075	ltpFR	1	11	1	WRIST	1626	n/a	0	1	0.412841796875	0.57763671875	upper	../fonts/amplitud.ttf
1632588	WORD	wordpools/wasnorm_wordpool.txt	LTP075	ltpFR	1	11	1	WATER	1594	n/a	0	1	0.412841796875	0.57763671875	upper	../fonts/amplitud.ttf
1636428	WORD	wordpools/wasnorm_wordpool.txt	LTP075	ltpFR	1	11	1	FENCE	560	n/a	0	1	0.412841796875	0.57763671875	upper	../fonts/amplitud.ttf
1640504	WORD	wordpools/wasnorm_wordpool.txt	LTP075	ltpFR	1	11	1	BARN	89	n/a	0	1	0.412841796875	0.57763671875	upper	../fonts/amplitud.ttf
1646478	REC_START	n/a	LTP075	ltpFR	1	11	n/a	n/a	n/a	n/a	n/a	n/a	n/a	n/a	n/a	n/a
1647067	REC_WORD	wordpools/wasnorm_wordpool.txt	LTP075	ltpFR	1	11	1	WATER	1594	n/a	0	n/a	n/a	n/a	n/a	n/a
1648071	REC_WORD	wordpools/wasnorm_wordpool.txt	LTP075	ltpFR	1	11	1	FENCE	560	n/a	0	n/a	n/a	n/a	n/a	n/a
1650128	REC_WORD	wordpools/wasnorm_wordpool.txt	LTP075	ltpFR	1	11	1	BARN	89	n/a	0	n/a	n/a	n/a	n/a	n/a
1651361	REC_WORD	wordpools/wasnorm_wordpool.txt	LTP075	ltpFR	1	11	1	MOAT	903	n/a	0	n/a	n/a	n/a	n/a	n/a
1652796	REC_WORD	wordpools/wasnorm_wordpool.txt	LTP075	ltpFR	1	11	1	SALMON	1227	n/a	1	n/a	n/a	n/a	n/a	n/a
1654810	REC_WORD	wordpools/wasnorm_wordpool.txt	LTP075	ltpFR	1	11	1	SEAFOOD	1260	n/a	0	n/a	n/a	n/a	n/a	n/a
1657161	REC_WORD	wordpools/wasnorm_wordpool.txt	LTP075	ltpFR	1	11	1	OYSTER	995	n/a	1	n/a	n/a	n/a	n/a	n/a
1668079	REC_WORD	wordpools/wasnorm_wordpool.txt	LTP075	ltpFR	1	11	1	RABBIT	1152	n/a	1	n/a	n/a	n/a	n/a	n/a
1671903	REC_WORD	wordpools/wasnorm_wordpool.txt	LTP075	ltpFR	1	11	1	ROBIN	1199	n/a	1	n/a	n/a	n/a	n/a	n/a
1725888	WORD	wordpools/wasnorm_wordpool.txt	LTP075	ltpFR	1	12	1	SAW	1239	n/a	0	1	0.412841796875	0.57763671875	upper	../fonts/amplitud.ttf
1730013	WORD	wordpools/wasnorm_wordpool.txt	LTP075	ltpFR	1	12	1	CHISEL	305	n/a	0	1	0.412841796875	0.57763671875	upper	../fonts/amplitud.ttf
1733888	WORD	wordpools/wasnorm_wordpool.txt	LTP075	ltpFR	1	12	1	ASSISTANT	48	n/a	1	1	0.412841796875	0.57763671875	upper	../fonts/amplitud.ttf
1737763	WORD	wordpools/wasnorm_wordpool.txt	LTP075	ltpFR	1	12	1	SINK	1309	n/a	0	1	0.412841796875	0.57763671875	upper	../fonts/amplitud.ttf
1741929	WORD	wordpools/wasnorm_wordpool.txt	LTP075	ltpFR	1	12	1	REFRIGERATOR	1179	n/a	0	1	0.412841796875	0.57763671875	upper	../fonts/amplitud.ttf
1746128	WORD	wordpools/wasnorm_wordpool.txt	LTP075	ltpFR	1	12	1	BLANKET	135	n/a	0	1	0.412841796875	0.57763671875	upper	../fonts/amplitud.ttf
1750236	WORD	wordpools/wasnorm_wordpool.txt	LTP075	ltpFR	1	12	1	BUG	187	n/a	1	1	0.412841796875	0.57763671875	upper	../fonts/amplitud.ttf
1754145	WORD	wordpools/wasnorm_wordpool.txt	LTP075	ltpFR	1	12	1	MARBLE	867	n/a	0	1	0.412841796875	0.57763671875	upper	../fonts/amplitud.ttf
1758319	WORD	wordpools/wasnorm_wordpool.txt	LTP075	ltpFR	1	12	1	STONE	1385	n/a	0	1	0.412841796875	0.57763671875	upper	../fonts/amplitud.ttf
1762402	WORD	wordpools/wasnorm_wordpool.txt	LTP075	ltpFR	1	12	1	SUBWAY	1400	n/a	0	1	0.412841796875	0.57763671875	upper	../fonts/amplitud.ttf
1766260	WORD	wordpools/wasnorm_wordpool.txt	LTP075	ltpFR	1	12	1	WINGS	1614	n/a	0	1	0.412841796875	0.57763671875	upper	../fonts/amplitud.ttf
1770177	WORD	wordpools/wasnorm_wordpool.txt	LTP075	ltpFR	1	12	1	NOTE	958	n/a	0	1	0.412841796875	0.57763671875	upper	../fonts/amplitud.ttf
1774251	WORD	wordpools/wasnorm_wordpool.txt	LTP075	ltpFR	1	12	1	GARLIC	624	n/a	0	1	0.412841796875	0.57763671875	upper	../fonts/amplitud.ttf
1778418	WORD	wordpools/wasnorm_wordpool.txt	LTP075	ltpFR	1	12	1	CONDUCTOR	362	n/a	1	1	0.412841796875	0.57763671875	upper	../fonts/amplitud.ttf
1782351	WORD	wordpools/wasnorm_wordpool.txt	LTP075	ltpFR	1	12	1	PILLOW	1069	n/a	0	1	0.412841796875	0.57763671875	upper	../fonts/amplitud.ttf
1786267	WORD	wordpools/wasnorm_wordpool.txt	LTP075	ltpFR	1	12	1	RECEPTIONIST	1174	n/a	1	1	0.412841796875	0.57763671875	upper	../fonts/amplitud.ttf
1792217	REC_START	n/a	LTP075	ltpFR	1	12	n/a	n/a	n/a	n/a	n/a	n/a	n/a	n/a	n/a	n/a
1792647	REC_WORD	wordpools/wasnorm_wordpool.txt	LTP075	ltpFR	1	12	1	RECEPTIONIST	1174	n/a	1	n/a	n/a	n/a	n/a	n/a
1794111	REC_WORD	wordpools/wasnorm_wordpool.txt	LTP075	ltpFR	1	12	1	CONDUCTOR	362	n/a	1	n/a	n/a	n/a	n/a	n/a
1795466	REC_WORD	wordpools/wasnorm_wordpool.txt	LTP075	ltpFR	1	12	1	PILLOW	1069	n/a	0	n/a	n/a	n/a	n/a	n/a
1797091	REC_WORD	wordpools/wasnorm_wordpool.txt	LTP075	ltpFR	1	12	1	ASSISTANT	48	n/a	1	n/a	n/a	n/a	n/a	n/a
1867803	REST_REWET	n/a	LTP075	ltpFR	1	12	n/a	n/a	n/a	n/a	n/a	n/a	n/a	n/a	n/a	n/a
2401339	WORD	wordpools/wasnorm_wordpool.txt	LTP075	ltpFR	1	13	1	ELECTRON	522	n/a	1	1	0.412841796875	0.57763671875	upper	../fonts/amplitud.ttf
2405239	WORD	wordpools/wasnorm_wordpool.txt	LTP075	ltpFR	1	13	1	PARTY	1018	n/a	0	1	0.412841796875	0.57763671875	upper	../fonts/amplitud.ttf
2409422	WORD	wordpools/wasnorm_wordpool.txt	LTP075	ltpFR	1	13	0	SIBLING	1301	n/a	1	0	0.5869140625	0.422607421875	lower	../fonts/zerothre.ttf
2413363	WORD	wordpools/wasnorm_wordpool.txt	LTP075	ltpFR	1	13	0	FRIEND	606	n/a	1	0	0.5869140625	0.422607421875	lower	../fonts/zerothre.ttf
2417346	WORD	wordpools/wasnorm_wordpool.txt	LTP075	ltpFR	1	13	0	BATH	98	n/a	1	0	0.5869140625	0.422607421875	lower	../fonts/zerothre.ttf
2421479	WORD	wordpools/wasnorm_wordpool.txt	LTP075	ltpFR	1	13	0	REPORT	1184	n/a	0	0	0.5869140625	0.422607421875	lower	../fonts/zerothre.ttf
2425613	WORD	wordpools/wasnorm_wordpool.txt	LTP075	ltpFR	1	13	0	GYM	674	n/a	1	0	0.5869140625	0.422607421875	lower	../fonts/zerothre.ttf
2429721	WORD	wordpools/wasnorm_wordpool.txt	LTP075	ltpFR	1	13	0	COFFIN	342	n/a	1	0	0.5869140625	0.422607421875	lower	../fonts/zerothre.ttf
2433853	WORD	wordpools/wasnorm_wordpool.txt	LTP075	ltpFR	1	13	1	TOMB	1477	n/a	0	1	0.412841796875	0.57763671875	upper	../fonts/amplitud.ttf
2438053	WORD	wordpools/wasnorm_wordpool.txt	LTP075	ltpFR	1	13	1	RIVER	1194	n/a	0	1	0.412841796875	0.57763671875	upper	../fonts/amplitud.ttf
2442228	WORD	wordpools/wasnorm_wordpool.txt	LTP075	ltpFR	1	13	1	DAM	436	n/a	0	1	0.412841796875	0.57763671875	upper	../fonts/amplitud.ttf
2446294	WORD	wordpools/wasnorm_wordpool.txt	LTP075	ltpFR	1	13	1	FISH	571	n/a	1	1	0.412841796875	0.57763671875	upper	../fonts/amplitud.ttf
2450135	WORD	wordpools/wasnorm_wordpool.txt	LTP075	ltpFR	1	13	0	PAD	998	n/a	0	0	0.5869140625	0.422607421875	lower	../fonts/zerothre.ttf
2454060	WORD	wordpools/wasnorm_wordpool.txt	LTP075	ltpFR	1	13	0	VALVE	1546	n/a	0	0	0.5869140625	0.422607421875	lower	../fonts/zerothre.ttf
2458251	WORD	wordpools/wasnorm_wordpool.txt	LTP075	ltpFR	1	13	1	WHALE	1601	n/a	1	1	0.412841796875	0.57763671875	upper	../fonts/amplitud.ttf
2462168	WORD	wordpools/wasnorm_wordpool.txt	LTP075	ltpFR	1	13	1	RASPBERRY	1168	n/a	1	1	0.412841796875	0.57763671875	upper	../fonts/amplitud.ttf
2468160	REC_START	n/a	LTP075	ltpFR	1	13	n/a	n/a	n/a	n/a	n/a	n/a	n/a	n/a	n/a	n/a
2468846	REC_WORD	wordpools/wasnorm_wordpool.txt	LTP075	ltpFR	1	13	1	RASPBERRY	1168	n/a	1	n/a	n/a	n/a	n/a	n/a
2470357	REC_WORD	wordpools/wasnorm_wordpool.txt	LTP075	ltpFR	1	13	1	WHALE	1601	n/a	1	n/a	n/a	n/a	n/a	n/a
2471906	REC_WORD	wordpools/wasnorm_wordpool.txt	LTP075	ltpFR	1	13	0	PAD	998	n/a	0	n/a	n/a	n/a	n/a	n/a
2473283	REC_WORD	wordpools/wasnorm_wordpool.txt	LTP075	ltpFR	1	13	0	COFFIN	342	n/a	1	n/a	n/a	n/a	n/a	n/a
2475298	REC_WORD	wordpools/wasnorm_wordpool.txt	LTP075	ltpFR	1	13	0	FRIEND	606	n/a	1	n/a	n/a	n/a	n/a	n/a
2477574	REC_WORD	wordpools/wasnorm_wordpool.txt	LTP075	ltpFR	1	13	1	FISH	571	n/a	1	n/a	n/a	n/a	n/a	n/a
2479587	REC_WORD	wordpools/wasnorm_wordpool.txt	LTP075	ltpFR	1	13	1	RIVER	1194	n/a	0	n/a	n/a	n/a	n/a	n/a
2483741	REC_WORD	wordpools/wasnorm_wordpool.txt	LTP075	ltpFR	1	13	1	DAM	436	n/a	0	n/a	n/a	n/a	n/a	n/a
2488190	REC_WORD	wordpools/wasnorm_wordpool.txt	LTP075	ltpFR	1	13	1	RELATIVE	1182	n/a	1	n/a	n/a	n/a	n/a	n/a
2547928	WORD	wordpools/wasnorm_wordpool.txt	LTP075	ltpFR	1	14	-1	FAIRY	549	n/a	-1	1	1.0	1.0	upper	../fonts/Verdana.ttf
2552120	WORD	wordpools/wasnorm_wordpool.txt	LTP075	ltpFR	1	14	-1	MAGICIAN	854	n/a	-1	1	1.0	1.0	upper	../fonts/Verdana.ttf
2556244	WORD	wordpools/wasnorm_wordpool.txt	LTP075	ltpFR	1	14	-1	ACTOR	5	n/a	-1	1	1.0	1.0	upper	../fonts/Verdana.ttf
2560086	WORD	wordpools/wasnorm_wordpool.txt	LTP075	ltpFR	1	14	-1	IDOL	733	n/a	-1	1	1.0	1.0	upper	../fonts/Verdana.ttf
2564019	WORD	wordpools/wasnorm_wordpool.txt	LTP075	ltpFR	1	14	-1	HONEY	713	n/a	-1	1	1.0	1.0	upper	../fonts/Verdana.ttf
2567893	WORD	wordpools/wasnorm_wordpool.txt	LTP075	ltpFR	1	14	-1	HIP	710	n/a	-1	1	1.0	1.0	upper	../fonts/Verdana.ttf
2571810	WORD	wordpools/wasnorm_wordpool.txt	LTP075	ltpFR	1	14	-1	SLIME	1327	n/a	-1	1	1.0	1.0	upper	../fonts/Verdana.ttf
2575652	WORD	wordpools/wasnorm_wordpool.txt	LTP075	ltpFR	1	14	-1	OAR	966	n/a	-1	1	1.0	1.0	upper	../fonts/Verdana.ttf
2579777	WORD	wordpools/wasnorm_wordpool.txt	LTP075	ltpFR	1	14	-1	CANOE	233	n/a	-1	1	1.0	1.0	upper	../fonts/Verdana.ttf
2583850	WORD	wordpools/wasnorm_wordpool.txt	LTP075	ltpFR	1	14	-1	CANDIDATE	228	n/a	-1	1	1.0	1.0	upper	../fonts/Verdana.ttf
2587959	WORD	wordpools/wasnorm_wordpool.txt	LTP075	ltpFR	1	14	-1	TOMATO	1476	n/a	-1	1	1.0	1.0	upper	../fonts/Verdana.ttf
2592067	WORD	wordpools/wasnorm_wordpool.txt	LTP075	ltpFR	1	14	-1	TUBE	1516	n/a	-1	1	1.0	1.0	upper	../fonts/Verdana.ttf
2595958	WORD	wordpools/wasnorm_wordpool.txt	LTP075	ltpFR	1	14	-1	LIMB	822	n/a	-1	1	1.0	1.0	upper	../fonts/Verdana.ttf
2600149	WORD	wordpools/wasnorm_wordpool.txt	LTP075	ltpFR	1	14	-1	SPINACH	1352	n/a	-1	1	1.0	1.0	upper	../fonts/Verdana.ttf
2604016	WORD	wordpools/wasnorm_wordpool.txt	LTP075	ltpFR	1	14	-1	JEEP	753	n/a	-1	1	1.0	1.0	upper	../fonts/Verdana.ttf
2608024	WORD	wordpools/wasnorm_wordpool.txt	LTP075	ltpFR	1	14	-1	HOUSE	725	n/a	-1	1	1.0	1.0	upper	../fonts/Verdana.ttf
2613633	REC_START	n/a	LTP075	ltpFR	1	14	n/a	n/a	n/a	n/a	n/a	n/a	n/a	n/a	n/a	n/a
2614155	REC_WORD	wordpools/wasnorm_wordpool.txt	LTP075	ltpFR	1	14	-1	SPINACH	1352	n/a	-1	n/a	n/a	n/a	n/a	n/a
2615483	REC_WORD	wordpools/wasnorm_wordpool.txt	LTP075	ltpFR	1	14	-1	JEEP	753	n/a	-1	n/a	n/a	n/a	n/a	n/a
2616607	REC_WORD	wordpools/wasnorm_wordpool.txt	LTP075	ltpFR	1	14	-1	HOUSE	725	n/a	-1	n/a	n/a	n/a	n/a	n/a
2618114	REC_WORD	wordpools/wasnorm_wordpool.txt	LTP075	ltpFR	1	14	-1	LIMB	822	n/a	-1	n/a	n/a	n/a	n/a	n/a
2619318	REC_WORD	wordpools/wasnorm_wordpool.txt	LTP075	ltpFR	1	14	-1	OAR	966	n/a	-1	n/a	n/a	n/a	n/a	n/a
2621401	REC_WORD	wordpools/wasnorm_wordpool.txt	LTP075	ltpFR	1	14	-1	CANOE	233	n/a	-1	n/a	n/a	n/a	n/a	n/a
2623543	REC_WORD	wordpools/wasnorm_wordpool.txt	LTP075	ltpFR	1	14	-1	TOMATO	1476	n/a	-1	n/a	n/a	n/a	n/a	n/a
2627158	REC_WORD	wordpools/wasnorm_wordpool.txt	LTP075	ltpFR	1	14	-1	SLIME	1327	n/a	-1	n/a	n/a	n/a	n/a	n/a
2637880	REC_WORD	wordpools/wasnorm_wordpool.txt	LTP075	ltpFR	1	14	-1	CANDIDATE	228	n/a	-1	n/a	n/a	n/a	n/a	n/a
2694593	WORD	wordpools/wasnorm_wordpool.txt	LTP075	ltpFR	1	15	0	SPATULA	1348	n/a	0	0	0.5869140625	0.422607421875	lower	../fonts/zerothre.ttf
2698535	WORD	wordpools/wasnorm_wordpool.txt	LTP075	ltpFR	1	15	0	KITCHEN	778	n/a	n/a	0	0.5869140625	0.422607421875	lower	../fonts/zerothre.ttf
2701560	SLOW_MSG	n/a	LTP075	ltpFR	1	15	n/a	n/a	n/a	n/a	n/a	n/a	n/a	n/a	n/a	n/a
2704150	WORD	wordpools/wasnorm_wordpool.txt	LTP075	ltpFR	1	15	0	DIGGER	464	n/a	1	0	0.5869140625	0.422607421875	lower	../fonts/zerothre.ttf
2708158	WORD	wordpools/wasnorm_wordpool.txt	LTP075	ltpFR	1	15	0	SHOVEL	1295	n/a	1	0	0.5869140625	0.422607421875	lower	../fonts/zerothre.ttf
2712091	WORD	wordpools/wasnorm_wordpool.txt	LTP075	ltpFR	1	15	1	STAR	1373	n/a	0	1	0.412841796875	0.57763671875	upper	../fonts/amplitud.ttf
2715982	WORD	wordpools/wasnorm_wordpool.txt	LTP075	ltpFR	1	15	1	ATLAS	53	n/a	0	1	0.412841796875	0.57763671875	upper	../fonts/amplitud.ttf
2720066	WORD	wordpools/wasnorm_wordpool.txt	LTP075	ltpFR	1	15	1	SKUNK	1321	n/a	1	1	0.412841796875	0.57763671875	upper	../fonts/amplitud.ttf
2724107	WORD	wordpools/wasnorm_wordpool.txt	LTP075	ltpFR	1	15	1	TRACTOR	1493	n/a	0	1	0.412841796875	0.57763671875	upper	../fonts/amplitud.ttf
2727965	WORD	wordpools/wasnorm_wordpool.txt	LTP075	ltpFR	1	15	1	JOKER	759	n/a	0	1	0.412841796875	0.57763671875	upper	../fonts/amplitud.ttf
2732165	WORD	wordpools/wasnorm_wordpool.txt	LTP075	ltpFR	1	15	0	PANTS	1010	n/a	0	0	0.5869140625	0.422607421875	lower	../fonts/zerothre.ttf
2736123	WORD	wordpools/wasnorm_wordpool.txt	LTP075	ltpFR	1	15	0	PRAIRIE	1118	n/a	1	0	0.5869140625	0.422607421875	lower	../fonts/zerothre.ttf
2740256	WORD	wordpools/wasnorm_wordpool.txt	LTP075	ltpFR	1	15	0	PANTHER	1009	n/a	1	0	0.5869140625	0.422607421875	lower	../fonts/zerothre.ttf
2744205	WORD	wordpools/wasnorm_wordpool.txt	LTP075	ltpFR	1	15	0	RODENT	1204	n/a	0	0	0.5869140625	0.422607421875	lower	../fonts/zerothre.ttf
2748238	WORD	wordpools/wasnorm_wordpool.txt	LTP075	ltpFR	1	15	1	DEODORANT	448	n/a	0	1	0.412841796875	0.57763671875	upper	../fonts/amplitud.ttf
2752396	WORD	wordpools/wasnorm_wordpool.txt	LTP075	ltpFR	1	15	1	CEREAL	272	n/a	0	1	0.412841796875	0.57763671875	upper	../fonts/amplitud.ttf
2756564	WORD	wordpools/wasnorm_wordpool.txt	LTP075	ltpFR	1	15	1	PLAID	1080	n/a	0	1	0.412841796875	0.57763671875	upper	../fonts/amplitud.ttf
2762363	REC_START	n/a	LTP075	ltpFR	1	15	n/a	n/a	n/a	n/a	n/a	n/a	n/a	n/a	n/a	n/a
2762884	REC_WORD	wordpools/wasnorm_wordpool.txt	LTP075	ltpFR	1	15	1	PLAID	1080	n/a	0	n/a	n/a	n/a	n/a	n/a
2764185	REC_WORD	wordpools/wasnorm_wordpool.txt	LTP075	ltpFR	1	15	1	CEREAL	272	n/a	0	n/a	n/a	n/a	n/a	n/a
2765634	REC_WORD	wordpools/wasnorm_wordpool.txt	LTP075	ltpFR	1	15	0	RODENT	1204	n/a	0	n/a	n/a	n/a	n/a	n/a
2766845	REC_WORD	wordpools/wasnorm_wordpool.txt	LTP075	ltpFR	1	15	1	TRACTOR	1493	n/a	0	n/a	n/a	n/a	n/a	n/a
2768318	REC_WORD	wordpools/wasnorm_wordpool.txt	LTP075	ltpFR	1	15	0	DIGGER	464	n/a	1	n/a	n/a	n/a	n/a	n/a
2769979	REC_WORD	wordpools/wasnorm_wordpool.txt	LTP075	ltpFR	1	15	0	SHOVEL	1295	n/a	1	n/a	n/a	n/a	n/a	n/a
2773535	REC_WORD	wordpools/wasnorm_wordpool.txt	LTP075	ltpFR	1	15	1	STAR	1373	n/a	0	n/a	n/a	n/a	n/a	n/a
2780354	REC_WORD	wordpools/wasnorm_wordpool.txt	LTP075	ltpFR	1	15	1	CEREAL	272	n/a	0	n/a	n/a	n/a	n/a	n/a
2782531	REC_WORD	wordpools/wasnorm_wordpool.txt	LTP075	ltpFR	1	15	0	KITCHEN	778	n/a	n/a	n/a	n/a	n/a	n/a	n/a
2783602	REC_WORD	wordpools/wasnorm_wordpool.txt	LTP075	ltpFR	1	15	0	SPATULA	1348	n/a	0	n/a	n/a	n/a	n/a	n/a
2843273	WORD	wordpools/wasnorm_wordpool.txt	LTP075	ltpFR	1	16	-1	CANNON	232	n/a	-1	1	1.0	1.0	upper	../fonts/Verdana.ttf
2847131	WORD	wordpools/wasnorm_wordpool.txt	LTP075	ltpFR	1	16	-1	VETERAN	1561	n/a	-1	1	1.0	1.0	upper	../fonts/Verdana.ttf
2851156	WORD	wordpools/wasnorm_wordpool.txt	LTP075	ltpFR	1	16	-1	SEED	1266	n/a	-1	1	1.0	1.0	upper	../fonts/Verdana.ttf
2855047	WORD	wordpools/wasnorm_wordpool.txt	LTP075	ltpFR	1	16	-1	PILOT	1070	n/a	-1	1	1.0	1.0	upper	../fonts/Verdana.ttf
2858980	WORD	wordpools/wasnorm_wordpool.txt	LTP075	ltpFR	1	16	-1	AIRCRAFT	11	n/a	-1	1	1.0	1.0	upper	../fonts/Verdana.ttf
2863163	WORD	wordpools/wasnorm_wordpool.txt	LTP075	ltpFR	1	16	-1	JET	756	n/a	-1	1	1.0	1.0	upper	../fonts/Verdana.ttf
2867338	WORD	wordpools/wasnorm_wordpool.txt	LTP075	ltpFR	1	16	-1	GROCERIES	663	n/a	-1	1	1.0	1.0	upper	../fonts/Verdana.ttf
2871271	WORD	wordpools/wasnorm_wordpool.txt	LTP075	ltpFR	1	16	-1	BROOK	177	n/a	-1	1	1.0	1.0	upper	../fonts/Verdana.ttf
2875179	WORD	wordpools/wasnorm_wordpool.txt	LTP075	ltpFR	1	16	-1	BEAST	108	n/a	-1	1	1.0	1.0	upper	../fonts/Verdana.ttf
2879229	WORD	wordpools/wasnorm_wordpool.txt	LTP075	ltpFR	1	16	-1	SHRUB	1299	n/a	-1	1	1.0	1.0	upper	../fonts/Verdana.ttf
2883379	WORD	wordpools/wasnorm_wordpool.txt	LTP075	ltpFR	1	16	-1	CAMEL	223	n/a	-1	1	1.0	1.0	upper	../fonts/Verdana.ttf
2887453	WORD	wordpools/wasnorm_wordpool.txt	LTP075	ltpFR	1	16	-1	FEAST	556	n/a	-1	1	1.0	1.0	upper	../fonts/Verdana.ttf
2891311	WORD	wordpools/wasnorm_wordpool.txt	LTP075	ltpFR	1	16	-1	WOUND	1624	n/a	-1	1	1.0	1.0	upper	../fonts/Verdana.ttf
2895369	WORD	wordpools/wasnorm_wordpool.txt	LTP075	ltpFR	1	16	-1	ENGINE	535	n/a	-1	1	1.0	1.0	upper	../fonts/Verdana.ttf
2899419	WORD	wordpools/wasnorm_wordpool.txt	LTP075	ltpFR	1	16	-1	FUNGUS	614	n/a	-1	1	1.0	1.0	upper	../fonts/Verdana.ttf
2903427	WORD	wordpools/wasnorm_wordpool.txt	LTP075	ltpFR	1	16	-1	WEED	1599	n/a	-1	1	1.0	1.0	upper	../fonts/Verdana.ttf
2909269	REC_START	n/a	LTP075	ltpFR	1	16	n/a	n/a	n/a	n/a	n/a	n/a	n/a	n/a	n/a	n/a
2909611	REC_WORD	wordpools/wasnorm_wordpool.txt	LTP075	ltpFR	1	16	-1	WEED	1599	n/a	-1	n/a	n/a	n/a	n/a	n/a
2911237	REC_WORD	wordpools/wasnorm_wordpool.txt	LTP075	ltpFR	1	16	-1	FUNGUS	614	n/a	-1	n/a	n/a	n/a	n/a	n/a
2912917	REC_WORD	wordpools/wasnorm_wordpool.txt	LTP075	ltpFR	1	16	-1	BROOK	177	n/a	-1	n/a	n/a	n/a	n/a	n/a
2915384	REC_WORD	wordpools/wasnorm_wordpool.txt	LTP075	ltpFR	1	16	-1	AIRCRAFT	11	n/a	-1	n/a	n/a	n/a	n/a	n/a
2916639	REC_WORD	wordpools/wasnorm_wordpool.txt	LTP075	ltpFR	1	16	-1	JET	756	n/a	-1	n/a	n/a	n/a	n/a	n/a
2918128	REC_WORD	wordpools/wasnorm_wordpool.txt	LTP075	ltpFR	1	16	-1	PILOT	1070	n/a	-1	n/a	n/a	n/a	n/a	n/a
2920145	REC_WORD	wordpools/wasnorm_wordpool.txt	LTP075	ltpFR	1	16	-1	BEAST	108	n/a	-1	n/a	n/a	n/a	n/a	n/a
2923040	REC_WORD	wordpools/wasnorm_wordpool.txt	LTP075	ltpFR	1	16	-1	SEED	1266	n/a	-1	n/a	n/a	n/a	n/a	n/a
2932896	REC_WORD	wordpools/wasnorm_wordpool.txt	LTP075	ltpFR	1	16	-1	CAMEL	223	n/a	-1	n/a	n/a	n/a	n/a	n/a
3001037	REC_START	n/a	LTP075	ltpFR	1	n/a	n/a	n/a	n/a	n/a	n/a	n/a	n/a	n/a	n/a	n/a
3001905	FFR_REC_WORD	wordpools/wasnorm_wordpool.txt	LTP075	ltpFR	1	n/a	-1	CAMEL	223	n/a	-1	n/a	n/a	n/a	n/a	n/a
3003087	FFR_REC_WORD	wordpools/wasnorm_wordpool.txt	LTP075	ltpFR	1	n/a	-1	SEED	1266	n/a	-1	n/a	n/a	n/a	n/a	n/a
3005292	FFR_REC_WORD	wordpools/wasnorm_wordpool.txt	LTP075	ltpFR	1	n/a	-1	BEAST	108	n/a	-1	n/a	n/a	n/a	n/a	n/a
3008584	FFR_REC_WORD	wordpools/wasnorm_wordpool.txt	LTP075	ltpFR	1	n/a	n/a	FARM	552	n/a	n/a	n/a	n/a	n/a	n/a	n/a
3010909	FFR_REC_WORD	wordpools/wasnorm_wordpool.txt	LTP075	ltpFR	1	n/a	-1	BROOK	177	n/a	-1	n/a	n/a	n/a	n/a	n/a
3013354	FFR_REC_WORD	wordpools/wasnorm_wordpool.txt	LTP075	ltpFR	1	n/a	1	WAVE	1596	n/a	0	n/a	n/a	n/a	n/a	n/a
3014915	FFR_REC_WORD	wordpools/wasnorm_wordpool.txt	LTP075	ltpFR	1	n/a	n/a	OCEAN	970	n/a	n/a	n/a	n/a	n/a	n/a	n/a
3016137	FFR_REC_WORD	wordpools/wasnorm_wordpool.txt	LTP075	ltpFR	1	n/a	1	FISH	571	n/a	1	n/a	n/a	n/a	n/a	n/a
3017779	FFR_REC_WORD	wordpools/wasnorm_wordpool.txt	LTP075	ltpFR	1	n/a	1	SALMON	1227	n/a	1	n/a	n/a	n/a	n/a	n/a
3020418	FFR_REC_WORD	wordpools/wasnorm_wordpool.txt	LTP075	ltpFR	1	n/a	1	CANARY	227	n/a	1	n/a	n/a	n/a	n/a	n/a
3023162	FFR_REC_WORD	wordpools/wasnorm_wordpool.txt	LTP075	ltpFR	1	n/a	1	STAR	1373	n/a	0	n/a	n/a	n/a	n/a	n/a
3029991	FFR_REC_WORD	wordpools/wasnorm_wordpool.txt	LTP075	ltpFR	1	n/a	0	CHAMPAGNE	278	n/a	1	n/a	n/a	n/a	n/a	n/a
3031712	FFR_REC_WORD	wordpools/wasnorm_wordpool.txt	LTP075	ltpFR	1	n/a	1	RUM	1217	n/a	0	n/a	n/a	n/a	n/a	n/a
3034022	FFR_REC_WORD	wordpools/wasnorm_wordpool.txt	LTP075	ltpFR	1	n/a	1	STATUE	1374	n/a	0	n/a	n/a	n/a	n/a	n/a
3035584	FFR_REC_WORD	wordpools/wasnorm_wordpool.txt	LTP075	ltpFR	1	n/a	1	RECEPTIONIST	1174	n/a	1	n/a	n/a	n/a	n/a	n/a
3036970	FFR_REC_WORD	wordpools/wasnorm_wordpool.txt	LTP075	ltpFR	1	n/a	1	ASSISTANT	48	n/a	1	n/a	n/a	n/a	n/a	n/a
3042702	FFR_REC_WORD	wordpools/wasnorm_wordpool.txt	LTP075	ltpFR	1	n/a	1	CEREAL	272	n/a	0	n/a	n/a	n/a	n/a	n/a
3043685	FFR_REC_WORD	wordpools/wasnorm_wordpool.txt	LTP075	ltpFR	1	n/a	0	SPATULA	1348	n/a	0	n/a	n/a	n/a	n/a	n/a
3045142	FFR_REC_WORD	wordpools/wasnorm_wordpool.txt	LTP075	ltpFR	1	n/a	0	KITCHEN	778	n/a	n/a	n/a	n/a	n/a	n/a	n/a
3051387	FFR_REC_WORD	wordpools/wasnorm_wordpool.txt	LTP075	ltpFR	1	n/a	1	SEAFOOD	1260	n/a	0	n/a	n/a	n/a	n/a	n/a
3052929	FFR_REC_WORD	wordpools/wasnorm_wordpool.txt	LTP075	ltpFR	1	n/a	1	OYSTER	995	n/a	1	n/a	n/a	n/a	n/a	n/a
3057728	FFR_REC_WORD	wordpools/wasnorm_wordpool.txt	LTP075	ltpFR	1	n/a	-1	CANOE	233	n/a	-1	n/a	n/a	n/a	n/a	n/a
3062063	FFR_REC_WORD	wordpools/wasnorm_wordpool.txt	LTP075	ltpFR	1	n/a	-1	OAR	966	n/a	-1	n/a	n/a	n/a	n/a	n/a
3063694	FFR_REC_WORD	wordpools/wasnorm_wordpool.txt	LTP075	ltpFR	1	n/a	-1	PILOT	1070	n/a	-1	n/a	n/a	n/a	n/a	n/a
3064612	FFR_REC_WORD	wordpools/wasnorm_wordpool.txt	LTP075	ltpFR	1	n/a	-1	JET	756	n/a	-1	n/a	n/a	n/a	n/a	n/a
3067326	FFR_REC_WORD	wordpools/wasnorm_wordpool.txt	LTP075	ltpFR	1	n/a	-1	AIRCRAFT	11	n/a	-1	n/a	n/a	n/a	n/a	n/a
3070738	FFR_REC_WORD	wordpools/wasnorm_wordpool.txt	LTP075	ltpFR	1	n/a	-1	VETERAN	1561	n/a	-1	n/a	n/a	n/a	n/a	n/a
3073362	FFR_REC_WORD	wordpools/wasnorm_wordpool.txt	LTP075	ltpFR	1	n/a	-1	CANDIDATE	228	n/a	-1	n/a	n/a	n/a	n/a	n/a
3091651	FFR_REC_WORD	wordpools/wasnorm_wordpool.txt	LTP075	ltpFR	1	n/a	1	RABBIT	1152	n/a	1	n/a	n/a	n/a	n/a	n/a
3095462	FFR_REC_WORD	wordpools/wasnorm_wordpool.txt	LTP075	ltpFR	1	n/a	0	HAWK	692	n/a	1	n/a	n/a	n/a	n/a	n/a
3097128	FFR_REC_WORD	wordpools/wasnorm_wordpool.txt	LTP075	ltpFR	1	n/a	0	SCREWDRIVER	1255	n/a	0	n/a	n/a	n/a	n/a	n/a
3100181	FFR_REC_WORD	wordpools/wasnorm_wordpool.txt	LTP075	ltpFR	1	n/a	0	BOLT	146	n/a	0	n/a	n/a	n/a	n/a	n/a
3103175	FFR_REC_WORD	wordpools/wasnorm_wordpool.txt	LTP075	ltpFR	1	n/a	0	DIGGER	464	n/a	1	n/a	n/a	n/a	n/a	n/a
3105425	FFR_REC_WORD	wordpools/wasnorm_wordpool.txt	LTP075	ltpFR	1	n/a	n/a	TRAILER	-1	n/a	n/a	n/a	n/a	n/a	n/a	n/a
3108612	FFR_REC_WORD	wordpools/wasnorm_wordpool.txt	LTP075	ltpFR	1	n/a	n/a	ARCHITECT	36	n/a	n/a	n/a	n/a	n/a	n/a	n/a
3114494	FFR_REC_WORD	wordpools/wasnorm_wordpool.txt	LTP075	ltpFR	1	n/a	-1	BEAST	108	n/a	-1	n/a	n/a	n/a	n/a	n/a
3119074	FFR_REC_WORD	wordpools/wasnorm_wordpool.txt	LTP075	ltpFR	1	n/a	1	WHALE	1601	n/a	1	n/a	n/a	n/a	n/a	n/a
3122955	FFR_REC_WORD	wordpools/wasnorm_wordpool.txt	LTP075	ltpFR	1	n/a	0	GIRL	637	n/a	1	n/a	n/a	n/a	n/a	n/a
3123987	FFR_REC_WORD	wordpools/wasnorm_wordpool.txt	LTP075	ltpFR	1	n/a	n/a	BOY	161	n/a	n/a	n/a	n/a	n/a	n/a	n/a
3125060	FFR_REC_WORD	wordpools/wasnorm_wordpool.txt	LTP075	ltpFR	1	n/a	0	HUMAN	726	n/a	1	n/a	n/a	n/a	n/a	n/a
3127225	FFR_REC_WORD	wordpools/wasnorm_wordpool.txt	LTP075	ltpFR	1	n/a	1	RELATIVE	1182	n/a	1	n/a	n/a	n/a	n/a	n/a
3164660	FFR_REC_WORD	wordpools/wasnorm_wordpool.txt	LTP075	ltpFR	1	n/a	1	VEAL	1551	n/a	0	n/a	n/a	n/a	n/a	n/a
3167673	FFR_REC_WORD	wordpools/wasnorm_wordpool.txt	LTP075	ltpFR	1	n/a	0	BEEF	113	n/a	1	n/a	n/a	n/a	n/a	n/a
3175191	FFR_REC_WORD	wordpools/wasnorm_wordpool.txt	LTP075	ltpFR	1	n/a	0	PRAIRIE	1118	n/a	1	n/a	n/a	n/a	n/a	n/a
3176957	FFR_REC_WORD	wordpools/wasnorm_wordpool.txt	LTP075	ltpFR	1	n/a	n/a	FARM	552	n/a	n/a	n/a	n/a	n/a	n/a	n/a
3179471	FFR_REC_WORD	wordpools/wasnorm_wordpool.txt	LTP075	ltpFR	1	n/a	1	BARN	89	n/a	0	n/a	n/a	n/a	n/a	n/a
3196084	FFR_REC_WORD	wordpools/wasnorm_wordpool.txt	LTP075	ltpFR	1	n/a	0	DUST	508	n/a	0	n/a	n/a	n/a	n/a	n/a
3197206	FFR_REC_WORD	wordpools/wasnorm_wordpool.txt	LTP075	ltpFR	1	n/a	0	DIRT	472	n/a	0	n/a	n/a	n/a	n/a	n/a
3198378	FFR_REC_WORD	wordpools/wasnorm_wordpool.txt	LTP075	ltpFR	1	n/a	n/a	FEATHER	557	n/a	n/a	n/a	n/a	n/a	n/a	n/a
3213354	FFR_REC_WORD	wordpools/wasnorm_wordpool.txt	LTP075	ltpFR	1	n/a	1	SEAFOOD	1260	n/a	0	n/a	n/a	n/a	n/a	n/a
3226764	FFR_REC_WORD	wordpools/wasnorm_wordpool.txt	LTP075	ltpFR	1	n/a	1	WATER	1594	n/a	0	n/a	n/a	n/a	n/a	n/a
3236237	FFR_REC_WORD	wordpools/wasnorm_wordpool.txt	LTP075	ltpFR	1	n/a	1	ZOO	1637	n/a	0	n/a	n/a	n/a	n/a	n/a
3238318	FFR_REC_WORD	wordpools/wasnorm_wordpool.txt	LTP075	ltpFR	1	n/a	1	PARTY	1018	n/a	0	n/a	n/a	n/a	n/a	n/a
3245766	FFR_REC_WORD	wordpools/wasnorm_wordpool.txt	LTP075	ltpFR	1	n/a	0	ATOM	55	n/a	0	n/a	n/a	n/a	n/a	n/a
3247981	FFR_REC_WORD	wordpools/wasnorm_wordpool.txt	LTP075	ltpFR	1	n/a	n/a	NEURON	-1	n/a	n/a	n/a	n/a	n/a	n/a	n/a
3277084	FFR_REC_WORD	wordpools/wasnorm_wordpool.txt	LTP075	ltpFR	1	n/a	n/a	BUSH	202	n/a	n/a	n/a	n/a	n/a	n/a	n/a
3286593	FFR_REC_WORD	wordpools/wasnorm_wordpool.txt	LTP075	ltpFR	1	n/a	-1	SHRUB	1299	n/a	-1	n/a	n/a	n/a	n/a	n/a
3287406	FFR_REC_WORD	wordpools/wasnorm_wordpool.txt	LTP075	ltpFR	1	n/a	-1	SHRUB	1299	n/a	-1	n/a	n/a	n/a	n/a	n/a
3350904	REC_START	n/a	LTP075	ltpFR	1	1	n/a	n/a	n/a	n/a	n/a	n/a	n/a	n/a	n/a	n/a
3350936	RECOG_TARGET	n/a	LTP075	ltpFR	1	1	1	STEREO	1378	2	0	n/a	n/a	n/a	n/a	n/a
3352795	RECOG_RESP	n/a	LTP075	ltpFR	1	1	1	STEREO	1378	n/a	0	n/a	n/a	n/a	n/a	n/a
3354191	RECOG_CONF	n/a	LTP075	ltpFR	1	1	1	STEREO	1378	2	0	n/a	n/a	n/a	n/a	n/a
3355961	RECOG_TARGET	n/a	LTP075	ltpFR	1	1	1	CROCODILE	411	5	1	n/a	n/a	n/a	n/a	n/a
3357204	RECOG_RESP	n/a	LTP075	ltpFR	1	1	1	CROCODILE	411	n/a	1	n/a	n/a	n/a	n/a	n/a
3358531	RECOG_CONF	n/a	LTP075	ltpFR	1	1	1	CROCODILE	411	5	1	n/a	n/a	n/a	n/a	n/a
3360027	RECOG_LURE	n/a	LTP075	ltpFR	1	1	n/a	BOULDER	155	3	n/a	n/a	n/a	n/a	n/a	n/a
3361016	RECOG_RESP	n/a	LTP075	ltpFR	1	1	n/a	BOULDER	155	n/a	n/a	n/a	n/a	n/a	n/a	n/a
3362193	RECOG_CONF	n/a	LTP075	ltpFR	1	1	n/a	BOULDER	155	3	n/a	n/a	n/a	n/a	n/a	n/a
3363644	RECOG_TARGET	n/a	LTP075	ltpFR	1	1	-1	PILOT	1070	5	-1	n/a	n/a	n/a	n/a	n/a
3364678	RECOG_RESP	n/a	LTP075	ltpFR	1	1	-1	PILOT	1070	n/a	-1	n/a	n/a	n/a	n/a	n/a
3365915	RECOG_CONF	n/a	LTP075	ltpFR	1	1	-1	PILOT	1070	5	-1	n/a	n/a	n/a	n/a	n/a
3367451	RECOG_LURE	n/a	LTP075	ltpFR	1	1	n/a	PLUMBER	1091	4	n/a	n/a	n/a	n/a	n/a	n/a
3368778	RECOG_RESP	n/a	LTP075	ltpFR	1	1	n/a	PLUMBER	1091	n/a	n/a	n/a	n/a	n/a	n/a	n/a
3369846	RECOG_CONF	n/a	LTP075	ltpFR	1	1	n/a	PLUMBER	1091	4	n/a	n/a	n/a	n/a	n/a	n/a
3371143	RECOG_TARGET	n/a	LTP075	ltpFR	1	1	0	FUR	615	5	1	n/a	n/a	n/a	n/a	n/a
3372101	RECOG_RESP	n/a	LTP075	ltpFR	1	1	0	FUR	615	n/a	1	n/a	n/a	n/a	n/a	n/a
3373238	RECOG_CONF	n/a	LTP075	ltpFR	1	1	0	FUR	615	5	1	n/a	n/a	n/a	n/a	n/a
3374710	RECOG_TARGET	n/a	LTP075	ltpFR	1	1	1	VEIN	1554	5	1	n/a	n/a	n/a	n/a	n/a
3375812	RECOG_RESP	n/a	LTP075	ltpFR	1	1	1	VEIN	1554	n/a	1	n/a	n/a	n/a	n/a	n/a
3377139	RECOG_CONF	n/a	LTP075	ltpFR	1	1	1	VEIN	1554	5	1	n/a	n/a	n/a	n/a	n/a
3378801	RECOG_TARGET	n/a	LTP075	ltpFR	1	1	0	SCREEN	1253	5	1	n/a	n/a	n/a	n/a	n/a
3379953	RECOG_RESP	n/a	LTP075	ltpFR	1	1	0	SCREEN	1253	n/a	1	n/a	n/a	n/a	n/a	n/a
3381350	RECOG_CONF	n/a	LTP075	ltpFR	1	1	0	SCREEN	1253	5	1	n/a	n/a	n/a	n/a	n/a
3382760	RECOG_LURE	n/a	LTP075	ltpFR	1	1	n/a	GRASSHOPPER	656	3	n/a	n/a	n/a	n/a	n/a	n/a
3383694	RECOG_RESP	n/a	LTP075	ltpFR	1	1	n/a	GRASSHOPPER	656	n/a	n/a	n/a	n/a	n/a	n/a	n/a
3384912	RECOG_CONF	n/a	LTP075	ltpFR	1	1	n/a	GRASSHOPPER	656	3	n/a	n/a	n/a	n/a	n/a	n/a
3386225	RECOG_TARGET	n/a	LTP075	ltpFR	1	1	-1	MARKET	871	5	-1	n/a	n/a	n/a	n/a	n/a
3387052	RECOG_RESP	n/a	LTP075	ltpFR	1	1	-1	MARKET	871	n/a	-1	n/a	n/a	n/a	n/a	n/a
3388424	RECOG_CONF	n/a	LTP075	ltpFR	1	1	-1	MARKET	871	5	-1	n/a	n/a	n/a	n/a	n/a
3389858	RECOG_LURE	n/a	LTP075	ltpFR	1	1	n/a	ADOLESCENT	7	4	n/a	n/a	n/a	n/a	n/a	n/a
3390788	RECOG_RESP	n/a	LTP075	ltpFR	1	1	n/a	ADOLESCENT	7	n/a	n/a	n/a	n/a	n/a	n/a	n/a
3392015	RECOG_CONF	n/a	LTP075	ltpFR	1	1	n/a	ADOLESCENT	7	4	n/a	n/a	n/a	n/a	n/a	n/a
3393366	RECOG_TARGET	n/a	LTP075	ltpFR	1	1	0	BATH	98	3	1	n/a	n/a	n/a	n/a	n/a
3394789	RECOG_RESP	n/a	LTP075	ltpFR	1	1	0	BATH	98	n/a	1	n/a	n/a	n/a	n/a	n/a
3395976	RECOG_CONF	n/a	LTP075	ltpFR	1	1	0	BATH	98	3	1	n/a	n/a	n/a	n/a	n/a
3397308	RECOG_TARGET	n/a	LTP075	ltpFR	1	1	0	SALOON	1228	4	1	n/a	n/a	n/a	n/a	n/a
3398221	RECOG_RESP	n/a	LTP075	ltpFR	1	1	0	SALOON	1228	n/a	1	n/a	n/a	n/a	n/a	n/a
3399538	RECOG_CONF	n/a	LTP075	ltpFR	1	1	0	SALOON	1228	4	1	n/a	n/a	n/a	n/a	n/a
3400891	RECOG_LURE	n/a	LTP075	ltpFR	1	1	n/a	BUSH	202	5	n/a	n/a	n/a	n/a	n/a	n/a
3401803	RECOG_RESP	n/a	LTP075	ltpFR	1	1	n/a	BUSH	202	n/a	n/a	n/a	n/a	n/a	n/a	n/a
3402931	RECOG_CONF	n/a	LTP075	ltpFR	1	1	n/a	BUSH	202	5	n/a	n/a	n/a	n/a	n/a	n/a
3404265	RECOG_TARGET	n/a	LTP075	ltpFR	1	1	1	MARBLE	867	5	0	n/a	n/a	n/a	n/a	n/a
3405585	RECOG_RESP	n/a	LTP075	ltpFR	1	1	1	MARBLE	867	n/a	0	n/a	n/a	n/a	n/a	n/a
3406732	RECOG_CONF	n/a	LTP075	ltpFR	1	1	1	MARBLE	867	5	0	n/a	n/a	n/a	n/a	n/a
3408124	RECOG_TARGET	n/a	LTP075	ltpFR	1	1	0	FLASK	576	5	0	n/a	n/a	n/a	n/a	n/a
3408927	RECOG_RESP	n/a	LTP075	ltpFR	1	1	0	FLASK	576	n/a	0	n/a	n/a	n/a	n/a	n/a
3410094	RECOG_CONF	n/a	LTP075	ltpFR	1	1	0	FLASK	576	5	0	n/a	n/a	n/a	n/a	n/a
3411583	RECOG_LURE	n/a	LTP075	ltpFR	1	1	n/a	ARTERY	41	1	n/a	n/a	n/a	n/a	n/a	n/a
3413497	RECOG_RESP	n/a	LTP075	ltpFR	1	1	n/a	ARTERY	41	n/a	n/a	n/a	n/a	n/a	n/a	n/a
3414804	RECOG_CONF	n/a	LTP075	ltpFR	1	1	n/a	ARTERY	41	1	n/a	n/a	n/a	n/a	n/a	n/a
3416156	RECOG_TARGET	n/a	LTP075	ltpFR	1	1	-1	CREVICE	405	2	-1	n/a	n/a	n/a	n/a	n/a
3417228	RECOG_RESP	n/a	LTP075	ltpFR	1	1	-1	CREVICE	405	n/a	-1	n/a	n/a	n/a	n/a	n/a
3418904	RECOG_CONF	n/a	LTP075	ltpFR	1	1	-1	CREVICE	405	2	-1	n/a	n/a	n/a	n/a	n/a
3420298	RECOG_TARGET	n/a	LTP075	ltpFR	1	1	0	TACK	1428	5	0	n/a	n/a	n/a	n/a	n/a
3421199	RECOG_RESP	n/a	LTP075	ltpFR	1	1	0	TACK	1428	n/a	0	n/a	n/a	n/a	n/a	n/a
3422466	RECOG_CONF	n/a	LTP075	ltpFR	1	1	0	TACK	1428	5	0	n/a	n/a	n/a	n/a	n/a
3423847	RECOG_LURE	n/a	LTP075	ltpFR	1	1	n/a	LEG	809	3	n/a	n/a	n/a	n/a	n/a	n/a
3425469	RECOG_RESP	n/a	LTP075	ltpFR	1	1	n/a	LEG	809	n/a	n/a	n/a	n/a	n/a	n/a	n/a
3426607	RECOG_CONF	n/a	LTP075	ltpFR	1	1	n/a	LEG	809	3	n/a	n/a	n/a	n/a	n/a	n/a
3433009	REC_START	n/a	LTP075	ltpFR	1	2	n/a	n/a	n/a	n/a	n/a	n/a	n/a	n/a	n/a	n/a
3433038	RECOG_TARGET	n/a	LTP075	ltpFR	1	2	0	LOOP	844	5	0	n/a	n/a	n/a	n/a	n/a
3433912	RECOG_RESP	n/a	LTP075	ltpFR	1	2	0	LOOP	844	n/a	0	n/a	n/a	n/a	n/a	n/a
3435279	RECOG_CONF	n/a	LTP075	ltpFR	1	2	0	LOOP	844	5	0	n/a	n/a	n/a	n/a	n/a
3436631	RECOG_TARGET	n/a	LTP075	ltpFR	1	2	1	WAVE	1596	5	0	n/a	n/a	n/a	n/a	n/a
3437334	RECOG_RESP	n/a	LTP075	ltpFR	1	2	1	WAVE	1596	n/a	0	n/a	n/a	n/a	n/a	n/a
3438332	RECOG_CONF	n/a	LTP075	ltpFR	1	2	1	WAVE	1596	5	0	n/a	n/a	n/a	n/a	n/a
3439522	RECOG_TARGET	n/a	LTP075	ltpFR	1	2	0	HAWK	692	5	1	n/a	n/a	n/a	n/a	n/a
3440217	RECOG_RESP	n/a	LTP075	ltpFR	1	2	0	HAWK	692	n/a	1	n/a	n/a	n/a	n/a	n/a
3441145	RECOG_CONF	n/a	LTP075	ltpFR	1	2	0	HAWK	692	5	1	n/a	n/a	n/a	n/a	n/a
3442438	RECOG_TARGET	n/a	LTP075	ltpFR	1	2	1	CHIMPANZEE	302	3	1	n/a	n/a	n/a	n/a	n/a
3443719	RECOG_RESP	n/a	LTP075	ltpFR	1	2	1	CHIMPANZEE	302	n/a	1	n/a	n/a	n/a	n/a	n/a
3444687	RECOG_CONF	n/a	LTP075	ltpFR	1	2	1	CHIMPANZEE	302	3	1	n/a	n/a	n/a	n/a	n/a
3445962	RECOG_TARGET	n/a	LTP075	ltpFR	1	2	0	TUXEDO	1525	5	1	n/a	n/a	n/a	n/a	n/a
3446713	RECOG_RESP	n/a	LTP075	ltpFR	1	2	0	TUXEDO	1525	n/a	1	n/a	n/a	n/a	n/a	n/a
3447581	RECOG_CONF	n/a	LTP075	ltpFR	1	2	0	TUXEDO	1525	5	1	n/a	n/a	n/a	n/a	n/a
3448954	RECOG_TARGET	n/a	LTP075	ltpFR	1	2	0	WARRIOR	1589	2	1	n/a	n/a	n/a	n/a	n/a
3449995	RECOG_RESP	n/a	LTP075	ltpFR	1	2	0	WARRIOR	1589	n/a	1	n/a	n/a	n/a	n/a	n/a
3450943	RECOG_CONF	n/a	LTP075	ltpFR	1	2	0	WARRIOR	1589	2	1	n/a	n/a	n/a	n/a	n/a
3452304	RECOG_TARGET	n/a	LTP075	ltpFR	1	2	1	PUBLISHER	1137	5	1	n/a	n/a	n/a	n/a	n/a
3452998	RECOG_RESP	n/a	LTP075	ltpFR	1	2	1	PUBLISHER	1137	n/a	1	n/a	n/a	n/a	n/a	n/a
3453866	RECOG_CONF	n/a	LTP075	ltpFR	1	2	1	PUBLISHER	1137	5	1	n/a	n/a	n/a	n/a	n/a
3455112	RECOG_TARGET	n/a	LTP075	ltpFR	1	2	-1	SUBURB	1399	4	-1	n/a	n/a	n/a	n/a	n/a
3456061	RECOG_RESP	n/a	LTP075	ltpFR	1	2	-1	SUBURB	1399	n/a	-1	n/a	n/a	n/a	n/a	n/a
3457049	RECOG_CONF	n/a	LTP075	ltpFR	1	2	-1	SUBURB	1399	4	-1	n/a	n/a	n/a	n/a	n/a
3458278	RECOG_LURE	n/a	LTP075	ltpFR	1	2	n/a	PAGE	1001	4	n/a	n/a	n/a	n/a	n/a	n/a
3459304	RECOG_RESP	n/a	LTP075	ltpFR	1	2	n/a	PAGE	1001	n/a	n/a	n/a	n/a	n/a	n/a	n/a
3460262	RECOG_CONF	n/a	LTP075	ltpFR	1	2	n/a	PAGE	1001	4	n/a	n/a	n/a	n/a	n/a	n/a
3461521	RECOG_TARGET	n/a	LTP075	ltpFR	1	2	0	TRAY	1498	5	1	n/a	n/a	n/a	n/a	n/a
3462417	RECOG_RESP	n/a	LTP075	ltpFR	1	2	0	TRAY	1498	n/a	1	n/a	n/a	n/a	n/a	n/a
3463734	RECOG_CONF	n/a	LTP075	ltpFR	1	2	0	TRAY	1498	5	1	n/a	n/a	n/a	n/a	n/a
3465278	RECOG_TARGET	n/a	LTP075	ltpFR	1	2	-1	DEPARTMENT	449	5	-1	n/a	n/a	n/a	n/a	n/a
3466149	RECOG_RESP	n/a	LTP075	ltpFR	1	2	-1	DEPARTMENT	449	n/a	-1	n/a	n/a	n/a	n/a	n/a
3467246	RECOG_CONF	n/a	LTP075	ltpFR	1	2	-1	DEPARTMENT	449	5	-1	n/a	n/a	n/a	n/a	n/a
3468745	RECOG_TARGET	n/a	LTP075	ltpFR	1	2	-1	SPINACH	1352	5	-1	n/a	n/a	n/a	n/a	n/a
3469670	RECOG_RESP	n/a	LTP075	ltpFR	1	2	-1	SPINACH	1352	n/a	-1	n/a	n/a	n/a	n/a	n/a
3470768	RECOG_CONF	n/a	LTP075	ltpFR	1	2	-1	SPINACH	1352	5	-1	n/a	n/a	n/a	n/a	n/a
3472185	RECOG_TARGET	n/a	LTP075	ltpFR	1	2	1	ZOO	1637	5	0	n/a	n/a	n/a	n/a	n/a
3472933	RECOG_RESP	n/a	LTP075	ltpFR	1	2	1	ZOO	1637	n/a	0	n/a	n/a	n/a	n/a	n/a
3474031	RECOG_CONF	n/a	LTP075	ltpFR	1	2	1	ZOO	1637	5	0	n/a	n/a	n/a	n/a	n/a
3475419	RECOG_LURE	n/a	LTP075	ltpFR	1	2	n/a	BALCONY	72	4	n/a	n/a	n/a	n/a	n/a	n/a
3476295	RECOG_RESP	n/a	LTP075	ltpFR	1	2	n/a	BALCONY	72	n/a	n/a	n/a	n/a	n/a	n/a	n/a
3477323	RECOG_CONF	n/a	LTP075	ltpFR	1	2	n/a	BALCONY	72	4	n/a	n/a	n/a	n/a	n/a	n/a
3478736	RECOG_LURE	n/a	LTP075	ltpFR	1	2	n/a	TOE	1473	5	n/a	n/a	n/a	n/a	n/a	n/a
3479718	RECOG_RESP	n/a	LTP075	ltpFR	1	2	n/a	TOE	1473	n/a	n/a	n/a	n/a	n/a	n/a	n/a
3480725	RECOG_CONF	n/a	LTP075	ltpFR	1	2	n/a	TOE	1473	5	n/a	n/a	n/a	n/a	n/a	n/a
3482176	RECOG_TARGET	n/a	LTP075	ltpFR	1	2	1	NOTE	958	5	0	n/a	n/a	n/a	n/a	n/a
3483449	RECOG_RESP	n/a	LTP075	ltpFR	1	2	1	NOTE	958	n/a	0	n/a	n/a	n/a	n/a	n/a
3484547	RECOG_CONF	n/a	LTP075	ltpFR	1	2	1	NOTE	958	5	0	n/a	n/a	n/a	n/a	n/a
3485934	RECOG_TARGET	n/a	LTP075	ltpFR	1	2	1	OX	994	5	1	n/a	n/a	n/a	n/a	n/a
3486782	RECOG_RESP	n/a	LTP075	ltpFR	1	2	1	OX	994	n/a	1	n/a	n/a	n/a	n/a	n/a
3487799	RECOG_CONF	n/a	LTP075	ltpFR	1	2	1	OX	994	5	1	n/a	n/a	n/a	n/a	n/a
3489218	RECOG_TARGET	n/a	LTP075	ltpFR	1	2	-1	RAZOR	1171	5	-1	n/a	n/a	n/a	n/a	n/a
3490383	RECOG_RESP	n/a	LTP075	ltpFR	1	2	-1	RAZOR	1171	n/a	-1	n/a	n/a	n/a	n/a	n/a
3491591	RECOG_CONF	n/a	LTP075	ltpFR	1	2	-1	RAZOR	1171	5	-1	n/a	n/a	n/a	n/a	n/a
3493051	RECOG_TARGET	n/a	LTP075	ltpFR	1	2	0	LION	827	3	1	n/a	n/a	n/a	n/a	n/a
3494225	RECOG_RESP	n/a	LTP075	ltpFR	1	2	0	LION	827	n/a	1	n/a	n/a	n/a	n/a	n/a
3495212	RECOG_CONF	n/a	LTP075	ltpFR	1	2	0	LION	827	3	1	n/a	n/a	n/a	n/a	n/a
3496560	RECOG_TARGET	n/a	LTP075	ltpFR	1	2	1	DEODORANT	448	5	0	n/a	n/a	n/a	n/a	n/a
3497487	RECOG_RESP	n/a	LTP075	ltpFR	1	2	1	DEODORANT	448	n/a	0	n/a	n/a	n/a	n/a	n/a
3498505	RECOG_CONF	n/a	LTP075	ltpFR	1	2	1	DEODORANT	448	5	0	n/a	n/a	n/a	n/a	n/a
3502024	REC_START	n/a	LTP075	ltpFR	1	3	n/a	n/a	n/a	n/a	n/a	n/a	n/a	n/a	n/a	n/a
3502058	RECOG_LURE	n/a	LTP075	ltpFR	1	3	n/a	REEF	1177	2	n/a	n/a	n/a	n/a	n/a	n/a
3503256	RECOG_RESP	n/a	LTP075	ltpFR	1	3	n/a	REEF	1177	n/a	n/a	n/a	n/a	n/a	n/a	n/a
3504214	RECOG_CONF	n/a	LTP075	ltpFR	1	3	n/a	REEF	1177	2	n/a	n/a	n/a	n/a	n/a	n/a
3505617	RECOG_TARGET	n/a	LTP075	ltpFR	1	3	0	GIRL	637	5	1	n/a	n/a	n/a	n/a	n/a
3506598	RECOG_RESP	n/a	LTP075	ltpFR	1	3	0	GIRL	637	n/a	1	n/a	n/a	n/a	n/a	n/a
3507686	RECOG_CONF	n/a	LTP075	ltpFR	1	3	0	GIRL	637	5	1	n/a	n/a	n/a	n/a	n/a
3509083	RECOG_LURE	n/a	LTP075	ltpFR	1	3	n/a	SAXOPHONE	1240	2	n/a	n/a	n/a	n/a	n/a	n/a
3510160	RECOG_RESP	n/a	LTP075	ltpFR	1	3	n/a	SAXOPHONE	1240	n/a	n/a	n/a	n/a	n/a	n/a	n/a
3511437	RECOG_CONF	n/a	LTP075	ltpFR	1	3	n/a	SAXOPHONE	1240	2	n/a	n/a	n/a	n/a	n/a	n/a
3512767	RECOG_TARGET	n/a	LTP075	ltpFR	1	3	0	SHRIMP	1297	5	0	n/a	n/a	n/a	n/a	n/a
3513593	RECOG_RESP	n/a	LTP075	ltpFR	1	3	0	SHRIMP	1297	n/a	0	n/a	n/a	n/a	n/a	n/a
3514490	RECOG_CONF	n/a	LTP075	ltpFR	1	3	0	SHRIMP	1297	5	0	n/a	n/a	n/a	n/a	n/a
3515916	RECOG_TARGET	n/a	LTP075	ltpFR	1	3	1	RUM	1217	5	0	n/a	n/a	n/a	n/a	n/a
3516616	RECOG_RESP	n/a	LTP075	ltpFR	1	3	1	RUM	1217	n/a	0	n/a	n/a	n/a	n/a	n/a
3517663	RECOG_CONF	n/a	LTP075	ltpFR	1	3	1	RUM	1217	5	0	n/a	n/a	n/a	n/a	n/a
3519032	RECOG_TARGET	n/a	LTP075	ltpFR	1	3	-1	PENNY	1045	4	-1	n/a	n/a	n/a	n/a	n/a
3519848	RECOG_RESP	n/a	LTP075	ltpFR	1	3	-1	PENNY	1045	n/a	-1	n/a	n/a	n/a	n/a	n/a
3520856	RECOG_CONF	n/a	LTP075	ltpFR	1	3	-1	PENNY	1045	4	-1	n/a	n/a	n/a	n/a	n/a
3522282	RECOG_LURE	n/a	LTP075	ltpFR	1	3	n/a	PORPOISE	1109	5	n/a	n/a	n/a	n/a	n/a	n/a
3523251	RECOG_RESP	n/a	LTP075	ltpFR	1	3	n/a	PORPOISE	1109	n/a	n/a	n/a	n/a	n/a	n/a	n/a
3524139	RECOG_CONF	n/a	LTP075	ltpFR	1	3	n/a	PORPOISE	1109	5	n/a	n/a	n/a	n/a	n/a	n/a
3525508	RECOG_TARGET	n/a	LTP075	ltpFR	1	3	0	BRICK	172	5	0	n/a	n/a	n/a	n/a	n/a
3526314	RECOG_RESP	n/a	LTP075	ltpFR	1	3	0	BRICK	172	n/a	0	n/a	n/a	n/a	n/a	n/a
3527321	RECOG_CONF	n/a	LTP075	ltpFR	1	3	0	BRICK	172	5	0	n/a	n/a	n/a	n/a	n/a
3528716	RECOG_LURE	n/a	LTP075	ltpFR	1	3	n/a	COACH	331	4	n/a	n/a	n/a	n/a	n/a	n/a
3529486	RECOG_RESP	n/a	LTP075	ltpFR	1	3	n/a	COACH	331	n/a	n/a	n/a	n/a	n/a	n/a	n/a
3530684	RECOG_CONF	n/a	LTP075	ltpFR	1	3	n/a	COACH	331	4	n/a	n/a	n/a	n/a	n/a	n/a
3532156	RECOG_TARGET	n/a	LTP075	ltpFR	1	3	0	FIREPLACE	570	5	1	n/a	n/a	n/a	n/a	n/a
3533587	RECOG_RESP	n/a	LTP075	ltpFR	1	3	0	FIREPLACE	570	n/a	1	n/a	n/a	n/a	n/a	n/a
3534655	RECOG_CONF	n/a	LTP075	ltpFR	1	3	0	FIREPLACE	570	5	1	n/a	n/a	n/a	n/a	n/a
3536139	RECOG_LURE	n/a	LTP075	ltpFR	1	3	n/a	SCRIBBLE	1256	5	n/a	n/a	n/a	n/a	n/a	n/a
3536999	RECOG_RESP	n/a	LTP075	ltpFR	1	3	n/a	SCRIBBLE	1256	n/a	n/a	n/a	n/a	n/a	n/a	n/a
3537937	RECOG_CONF	n/a	LTP075	ltpFR	1	3	n/a	SCRIBBLE	1256	5	n/a	n/a	n/a	n/a	n/a	n/a
3539397	RECOG_TARGET	n/a	LTP075	ltpFR	1	3	-1	SCISSORS	1250	5	-1	n/a	n/a	n/a	n/a	n/a
3540182	RECOG_RESP	n/a	LTP075	ltpFR	1	3	-1	SCISSORS	1250	n/a	-1	n/a	n/a	n/a	n/a	n/a
3541270	RECOG_CONF	n/a	LTP075	ltpFR	1	3	-1	SCISSORS	1250	5	-1	n/a	n/a	n/a	n/a	n/a
3542715	RECOG_TARGET	n/a	LTP075	ltpFR	1	3	0	SIBLING	1301	2	1	n/a	n/a	n/a	n/a	n/a
3543644	RECOG_RESP	n/a	LTP075	ltpFR	1	3	0	SIBLING	1301	n/a	1	n/a	n/a	n/a	n/a	n/a
3544951	RECOG_CONF	n/a	LTP075	ltpFR	1	3	0	SIBLING	1301	2	1	n/a	n/a	n/a	n/a	n/a
3546313	RECOG_TARGET	n/a	LTP075	ltpFR	1	3	-1	TORCH	1484	4	-1	n/a	n/a	n/a	n/a	n/a
3547376	RECOG_RESP	n/a	LTP075	ltpFR	1	3	-1	TORCH	1484	n/a	-1	n/a	n/a	n/a	n/a	n/a
3548354	RECOG_CONF	n/a	LTP075	ltpFR	1	3	-1	TORCH	1484	4	-1	n/a	n/a	n/a	n/a	n/a
3549672	RECOG_TARGET	n/a	LTP075	ltpFR	1	3	0	MICROPHONE	890	5	0	n/a	n/a	n/a	n/a	n/a
3550598	RECOG_RESP	n/a	LTP075	ltpFR	1	3	0	MICROPHONE	890	n/a	0	n/a	n/a	n/a	n/a	n/a
3551726	RECOG_CONF	n/a	LTP075	ltpFR	1	3	0	MICROPHONE	890	5	0	n/a	n/a	n/a	n/a	n/a
3553213	RECOG_LURE	n/a	LTP075	ltpFR	1	3	n/a	BRAN	167	2	n/a	n/a	n/a	n/a	n/a	n/a
3554899	RECOG_RESP	n/a	LTP075	ltpFR	1	3	n/a	BRAN	167	n/a	n/a	n/a	n/a	n/a	n/a	n/a
3555896	RECOG_CONF	n/a	LTP075	ltpFR	1	3	n/a	BRAN	167	2	n/a	n/a	n/a	n/a	n/a	n/a
3557288	RECOG_LURE	n/a	LTP075	ltpFR	1	3	n/a	GLUE	643	1	n/a	n/a	n/a	n/a	n/a	n/a
3558231	RECOG_RESP	n/a	LTP075	ltpFR	1	3	n/a	GLUE	643	n/a	n/a	n/a	n/a	n/a	n/a	n/a
3559408	RECOG_CONF	n/a	LTP075	ltpFR	1	3	n/a	GLUE	643	1	n/a	n/a	n/a	n/a	n/a	n/a
3560829	RECOG_LURE	n/a	LTP075	ltpFR	1	3	n/a	ALMANAC	17	5	n/a	n/a	n/a	n/a	n/a	n/a
3561793	RECOG_RESP	n/a	LTP075	ltpFR	1	3	n/a	ALMANAC	17	n/a	n/a	n/a	n/a	n/a	n/a	n/a
3562801	RECOG_CONF	n/a	LTP075	ltpFR	1	3	n/a	ALMANAC	17	5	n/a	n/a	n/a	n/a	n/a	n/a
3564245	RECOG_TARGET	n/a	LTP075	ltpFR	1	3	1	RELATIVE	1182	5	1	n/a	n/a	n/a	n/a	n/a
3565195	RECOG_RESP	n/a	LTP075	ltpFR	1	3	1	RELATIVE	1182	n/a	1	n/a	n/a	n/a	n/a	n/a
3566283	RECOG_CONF	n/a	LTP075	ltpFR	1	3	1	RELATIVE	1182	5	1	n/a	n/a	n/a	n/a	n/a
3567638	RECOG_TARGET	n/a	LTP075	ltpFR	1	3	1	KETTLE	772	2	0	n/a	n/a	n/a	n/a	n/a
3568797	RECOG_RESP	n/a	LTP075	ltpFR	1	3	1	KETTLE	772	n/a	0	n/a	n/a	n/a	n/a	n/a
3569984	RECOG_CONF	n/a	LTP075	ltpFR	1	3	1	KETTLE	772	2	0	n/a	n/a	n/a	n/a	n/a
3574125	REC_START	n/a	LTP075	ltpFR	1	4	n/a	n/a	n/a	n/a	n/a	n/a	n/a	n/a	n/a	n/a
3574161	RECOG_LURE	n/a	LTP075	ltpFR	1	4	n/a	FOSSIL	596	2	n/a	n/a	n/a	n/a	n/a	n/a
3575527	RECOG_RESP	n/a	LTP075	ltpFR	1	4	n/a	FOSSIL	596	n/a	n/a	n/a	n/a	n/a	n/a	n/a
3576524	RECOG_CONF	n/a	LTP075	ltpFR	1	4	n/a	FOSSIL	596	2	n/a	n/a	n/a	n/a	n/a	n/a
3577919	RECOG_TARGET	n/a	LTP075	ltpFR	1	4	1	DAM	436	5	0	n/a	n/a	n/a	n/a	n/a
3578839	RECOG_RESP	n/a	LTP075	ltpFR	1	4	1	DAM	436	n/a	0	n/a	n/a	n/a	n/a	n/a
3579867	RECOG_CONF	n/a	LTP075	ltpFR	1	4	1	DAM	436	5	0	n/a	n/a	n/a	n/a	n/a
3581194	RECOG_TARGET	n/a	LTP075	ltpFR	1	4	0	SUPERMARKET	1409	5	1	n/a	n/a	n/a	n/a	n/a
3582042	RECOG_RESP	n/a	LTP075	ltpFR	1	4	0	SUPERMARKET	1409	n/a	1	n/a	n/a	n/a	n/a	n/a
3583050	RECOG_CONF	n/a	LTP075	ltpFR	1	4	0	SUPERMARKET	1409	5	1	n/a	n/a	n/a	n/a	n/a
3584402	RECOG_TARGET	n/a	LTP075	ltpFR	1	4	0	HUMAN	726	5	1	n/a	n/a	n/a	n/a	n/a
3585454	RECOG_RESP	n/a	LTP075	ltpFR	1	4	0	HUMAN	726	n/a	1	n/a	n/a	n/a	n/a	n/a
3586472	RECOG_CONF	n/a	LTP075	ltpFR	1	4	0	HUMAN	726	5	1	n/a	n/a	n/a	n/a	n/a
3587794	RECOG_LURE	n/a	LTP075	ltpFR	1	4	n/a	POND	1101	3	n/a	n/a	n/a	n/a	n/a	n/a
3589136	RECOG_RESP	n/a	LTP075	ltpFR	1	4	n/a	POND	1101	n/a	n/a	n/a	n/a	n/a	n/a	n/a
3590183	RECOG_CONF	n/a	LTP075	ltpFR	1	4	n/a	POND	1101	3	n/a	n/a	n/a	n/a	n/a	n/a
3591611	RECOG_LURE	n/a	LTP075	ltpFR	1	4	n/a	POISON	1096	5	n/a	n/a	n/a	n/a	n/a	n/a
3592468	RECOG_RESP	n/a	LTP075	ltpFR	1	4	n/a	POISON	1096	n/a	n/a	n/a	n/a	n/a	n/a	n/a
3593466	RECOG_CONF	n/a	LTP075	ltpFR	1	4	n/a	POISON	1096	5	n/a	n/a	n/a	n/a	n/a	n/a
3594818	RECOG_TARGET	n/a	LTP075	ltpFR	1	4	1	STEW	1380	1	0	n/a	n/a	n/a	n/a	n/a
3596210	RECOG_RESP	n/a	LTP075	ltpFR	1	4	1	STEW	1380	n/a	0	n/a	n/a	n/a	n/a	n/a
3597596	RECOG_CONF	n/a	LTP075	ltpFR	1	4	1	STEW	1380	1	0	n/a	n/a	n/a	n/a	n/a
3598935	RECOG_TARGET	n/a	LTP075	ltpFR	1	4	0	LOLLIPOP	842	5	0	n/a	n/a	n/a	n/a	n/a
3599831	RECOG_RESP	n/a	LTP075	ltpFR	1	4	0	LOLLIPOP	842	n/a	0	n/a	n/a	n/a	n/a	n/a
3600939	RECOG_CONF	n/a	LTP075	ltpFR	1	4	0	LOLLIPOP	842	5	0	n/a	n/a	n/a	n/a	n/a
3602468	RECOG_TARGET	n/a	LTP075	ltpFR	1	4	-1	FAIRY	549	5	-1	n/a	n/a	n/a	n/a	n/a
3603832	RECOG_RESP	n/a	LTP075	ltpFR	1	4	-1	FAIRY	549	n/a	-1	n/a	n/a	n/a	n/a	n/a
3604970	RECOG_CONF	n/a	LTP075	ltpFR	1	4	-1	FAIRY	549	5	-1	n/a	n/a	n/a	n/a	n/a
3606292	RECOG_TARGET	n/a	LTP075	ltpFR	1	4	1	RIVER	1194	4	0	n/a	n/a	n/a	n/a	n/a
3607314	RECOG_RESP	n/a	LTP075	ltpFR	1	4	1	RIVER	1194	n/a	0	n/a	n/a	n/a	n/a	n/a
3608312	RECOG_CONF	n/a	LTP075	ltpFR	1	4	1	RIVER	1194	4	0	n/a	n/a	n/a	n/a	n/a
3609610	RECOG_TARGET	n/a	LTP075	ltpFR	1	4	1	BARREL	91	5	0	n/a	n/a	n/a	n/a	n/a
3610667	RECOG_RESP	n/a	LTP075	ltpFR	1	4	1	BARREL	91	n/a	0	n/a	n/a	n/a	n/a	n/a
3611655	RECOG_CONF	n/a	LTP075	ltpFR	1	4	1	BARREL	91	5	0	n/a	n/a	n/a	n/a	n/a
3613150	RECOG_TARGET	n/a	LTP075	ltpFR	1	4	-1	MILDEW	893	5	-1	n/a	n/a	n/a	n/a	n/a
3613939	RECOG_RESP	n/a	LTP075	ltpFR	1	4	-1	MILDEW	893	n/a	-1	n/a	n/a	n/a	n/a	n/a
3614867	RECOG_CONF	n/a	LTP075	ltpFR	1	4	-1	MILDEW	893	5	-1	n/a	n/a	n/a	n/a	n/a
3616125	RECOG_TARGET	n/a	LTP075	ltpFR	1	4	-1	CAVE	263	5	-1	n/a	n/a	n/a	n/a	n/a
3617072	RECOG_RESP	n/a	LTP075	ltpFR	1	4	-1	CAVE	263	n/a	-1	n/a	n/a	n/a	n/a	n/a
3618140	RECOG_CONF	n/a	LTP075	ltpFR	1	4	-1	CAVE	263	5	-1	n/a	n/a	n/a	n/a	n/a
3619166	RECOG_LURE	n/a	LTP075	ltpFR	1	4	n/a	COMPASS	358	2	n/a	n/a	n/a	n/a	n/a	n/a
3620904	RECOG_RESP	n/a	LTP075	ltpFR	1	4	n/a	COMPASS	358	n/a	n/a	n/a	n/a	n/a	n/a	n/a
3621921	RECOG_CONF	n/a	LTP075	ltpFR	1	4	n/a	COMPASS	358	2	n/a	n/a	n/a	n/a	n/a	n/a
3623208	RECOG_TARGET	n/a	LTP075	ltpFR	1	4	1	BINDER	127	3	0	n/a	n/a	n/a	n/a	n/a
3624565	RECOG_RESP	n/a	LTP075	ltpFR	1	4	1	BINDER	127	n/a	0	n/a	n/a	n/a	n/a	n/a
3625543	RECOG_CONF	n/a	LTP075	ltpFR	1	4	1	BINDER	127	3	0	n/a	n/a	n/a	n/a	n/a
3626841	RECOG_LURE	n/a	LTP075	ltpFR	1	4	n/a	HOUND	724	1	n/a	n/a	n/a	n/a	n/a	n/a
3628237	RECOG_RESP	n/a	LTP075	ltpFR	1	4	n/a	HOUND	724	n/a	n/a	n/a	n/a	n/a	n/a	n/a
3629284	RECOG_CONF	n/a	LTP075	ltpFR	1	4	n/a	HOUND	724	1	n/a	n/a	n/a	n/a	n/a	n/a
3630617	RECOG_TARGET	n/a	LTP075	ltpFR	1	4	1	CLAM	315	2	1	n/a	n/a	n/a	n/a	n/a
3631899	RECOG_RESP	n/a	LTP075	ltpFR	1	4	1	CLAM	315	n/a	1	n/a	n/a	n/a	n/a	n/a
3632946	RECOG_CONF	n/a	LTP075	ltpFR	1	4	1	CLAM	315	2	1	n/a	n/a	n/a	n/a	n/a
3634332	RECOG_TARGET	n/a	LTP075	ltpFR	1	4	0	SPATULA	1348	5	0	n/a	n/a	n/a	n/a	n/a
3635231	RECOG_RESP	n/a	LTP075	ltpFR	1	4	0	SPATULA	1348	n/a	0	n/a	n/a	n/a	n/a	n/a
3636189	RECOG_CONF	n/a	LTP075	ltpFR	1	4	0	SPATULA	1348	5	0	n/a	n/a	n/a	n/a	n/a
3637691	RECOG_TARGET	n/a	LTP075	ltpFR	1	4	-1	BROOK	177	5	-1	n/a	n/a	n/a	n/a	n/a
3638384	RECOG_RESP	n/a	LTP075	ltpFR	1	4	-1	BROOK	177	n/a	-1	n/a	n/a	n/a	n/a	n/a
3639431	RECOG_CONF	n/a	LTP075	ltpFR	1	4	-1	BROOK	177	5	-1	n/a	n/a	n/a	n/a	n/a
3640782	RECOG_TARGET	n/a	LTP075	ltpFR	1	4	0	DIGGER	464	5	1	n/a	n/a	n/a	n/a	n/a
3641487	RECOG_RESP	n/a	LTP075	ltpFR	1	4	0	DIGGER	464	n/a	1	n/a	n/a	n/a	n/a	n/a
3642584	RECOG_CONF	n/a	LTP075	ltpFR	1	4	0	DIGGER	464	5	1	n/a	n/a	n/a	n/a	n/a
3646557	REC_START	n/a	LTP075	ltpFR	1	5	n/a	n/a	n/a	n/a	n/a	n/a	n/a	n/a	n/a	n/a
3646590	RECOG_LURE	n/a	LTP075	ltpFR	1	5	n/a	MOSQUITO	917	2	n/a	n/a	n/a	n/a	n/a	n/a
3647415	RECOG_RESP	n/a	LTP075	ltpFR	1	5	n/a	MOSQUITO	917	n/a	n/a	n/a	n/a	n/a	n/a	n/a
3648677	RECOG_CONF	n/a	LTP075	ltpFR	1	5	n/a	MOSQUITO	917	2	n/a	n/a	n/a	n/a	n/a	n/a
3650122	RECOG_LURE	n/a	LTP075	ltpFR	1	5	n/a	VOLUNTEER	1577	3	n/a	n/a	n/a	n/a	n/a	n/a
3651481	RECOG_RESP	n/a	LTP075	ltpFR	1	5	n/a	VOLUNTEER	1577	n/a	n/a	n/a	n/a	n/a	n/a	n/a
3652798	RECOG_CONF	n/a	LTP075	ltpFR	1	5	n/a	VOLUNTEER	1577	3	n/a	n/a	n/a	n/a	n/a	n/a
3654122	RECOG_TARGET	n/a	LTP075	ltpFR	1	5	-1	CUCUMBER	421	1	-1	n/a	n/a	n/a	n/a	n/a
3655382	RECOG_RESP	n/a	LTP075	ltpFR	1	5	-1	CUCUMBER	421	n/a	-1	n/a	n/a	n/a	n/a	n/a
3656639	RECOG_CONF	n/a	LTP075	ltpFR	1	5	-1	CUCUMBER	421	1	-1	n/a	n/a	n/a	n/a	n/a
3658055	RECOG_TARGET	n/a	LTP075	ltpFR	1	5	0	SUITCASE	1403	4	1	n/a	n/a	n/a	n/a	n/a
3659423	RECOG_RESP	n/a	LTP075	ltpFR	1	5	0	SUITCASE	1403	n/a	1	n/a	n/a	n/a	n/a	n/a
3660520	RECOG_CONF	n/a	LTP075	ltpFR	1	5	0	SUITCASE	1403	4	1	n/a	n/a	n/a	n/a	n/a
3661863	RECOG_LURE	n/a	LTP075	ltpFR	1	5	n/a	OINTMENT	974	5	n/a	n/a	n/a	n/a	n/a	n/a
3662755	RECOG_RESP	n/a	LTP075	ltpFR	1	5	n/a	OINTMENT	974	n/a	n/a	n/a	n/a	n/a	n/a	n/a
3663902	RECOG_CONF	n/a	LTP075	ltpFR	1	5	n/a	OINTMENT	974	5	n/a	n/a	n/a	n/a	n/a	n/a
3665355	RECOG_TARGET	n/a	LTP075	ltpFR	1	5	-1	CABINET	212	3	-1	n/a	n/a	n/a	n/a	n/a
3666287	RECOG_RESP	n/a	LTP075	ltpFR	1	5	-1	CABINET	212	n/a	-1	n/a	n/a	n/a	n/a	n/a
3667634	RECOG_CONF	n/a	LTP075	ltpFR	1	5	-1	CABINET	212	3	-1	n/a	n/a	n/a	n/a	n/a
3669088	RECOG_LURE	n/a	LTP075	ltpFR	1	5	n/a	WINDOW	1611	2	n/a	n/a	n/a	n/a	n/a	n/a
3670368	RECOG_RESP	n/a	LTP075	ltpFR	1	5	n/a	WINDOW	1611	n/a	n/a	n/a	n/a	n/a	n/a	n/a
3671465	RECOG_CONF	n/a	LTP075	ltpFR	1	5	n/a	WINDOW	1611	2	n/a	n/a	n/a	n/a	n/a	n/a
3672862	RECOG_TARGET	n/a	LTP075	ltpFR	1	5	1	TICKET	1464	4	0	n/a	n/a	n/a	n/a	n/a
3673720	RECOG_RESP	n/a	LTP075	ltpFR	1	5	1	TICKET	1464	n/a	0	n/a	n/a	n/a	n/a	n/a
3674698	RECOG_CONF	n/a	LTP075	ltpFR	1	5	1	TICKET	1464	4	0	n/a	n/a	n/a	n/a	n/a
3676046	RECOG_TARGET	n/a	LTP075	ltpFR	1	5	1	STRANGER	1389	5	1	n/a	n/a	n/a	n/a	n/a
3676833	RECOG_RESP	n/a	LTP075	ltpFR	1	5	1	STRANGER	1389	n/a	1	n/a	n/a	n/a	n/a	n/a
3678000	RECOG_CONF	n/a	LTP075	ltpFR	1	5	1	STRANGER	1389	5	1	n/a	n/a	n/a	n/a	n/a
3679487	RECOG_TARGET	n/a	LTP075	ltpFR	1	5	1	SKUNK	1321	5	1	n/a	n/a	n/a	n/a	n/a
3680804	RECOG_RESP	n/a	LTP075	ltpFR	1	5	1	SKUNK	1321	n/a	1	n/a	n/a	n/a	n/a	n/a
3682041	RECOG_CONF	n/a	LTP075	ltpFR	1	5	1	SKUNK	1321	5	1	n/a	n/a	n/a	n/a	n/a
3683462	RECOG_TARGET	n/a	LTP075	ltpFR	1	5	1	PRIEST	1122	5	1	n/a	n/a	n/a	n/a	n/a
3684326	RECOG_RESP	n/a	LTP075	ltpFR	1	5	1	PRIEST	1122	n/a	1	n/a	n/a	n/a	n/a	n/a
3685453	RECOG_CONF	n/a	LTP075	ltpFR	1	5	1	PRIEST	1122	5	1	n/a	n/a	n/a	n/a	n/a
3686861	RECOG_TARGET	n/a	LTP075	ltpFR	1	5	0	SWIMMER	1420	5	1	n/a	n/a	n/a	n/a	n/a
3688247	RECOG_RESP	n/a	LTP075	ltpFR	1	5	0	SWIMMER	1420	n/a	1	n/a	n/a	n/a	n/a	n/a
3689325	RECOG_CONF	n/a	LTP075	ltpFR	1	5	0	SWIMMER	1420	5	1	n/a	n/a	n/a	n/a	n/a
3690836	RECOG_LURE	n/a	LTP075	ltpFR	1	5	n/a	COFFEE	341	3	n/a	n/a	n/a	n/a	n/a	n/a
3692138	RECOG_RESP	n/a	LTP075	ltpFR	1	5	n/a	COFFEE	341	n/a	n/a	n/a	n/a	n/a	n/a	n/a
3693176	RECOG_CONF	n/a	LTP075	ltpFR	1	5	n/a	COFFEE	341	3	n/a	n/a	n/a	n/a	n/a	n/a
3694545	RECOG_LURE	n/a	LTP075	ltpFR	1	5	n/a	PREDATOR	1120	5	n/a	n/a	n/a	n/a	n/a	n/a
3695311	RECOG_RESP	n/a	LTP075	ltpFR	1	5	n/a	PREDATOR	1120	n/a	n/a	n/a	n/a	n/a	n/a	n/a
3696468	RECOG_CONF	n/a	LTP075	ltpFR	1	5	n/a	PREDATOR	1120	5	n/a	n/a	n/a	n/a	n/a	n/a
3697902	RECOG_TARGET	n/a	LTP075	ltpFR	1	5	0	SPARROW	1347	5	0	n/a	n/a	n/a	n/a	n/a
3698683	RECOG_RESP	n/a	LTP075	ltpFR	1	5	0	SPARROW	1347	n/a	0	n/a	n/a	n/a	n/a	n/a
3699671	RECOG_CONF	n/a	LTP075	ltpFR	1	5	0	SPARROW	1347	5	0	n/a	n/a	n/a	n/a	n/a
3700994	RECOG_TARGET	n/a	LTP075	ltpFR	1	5	-1	HONEY	713	5	-1	n/a	n/a	n/a	n/a	n/a
3701866	RECOG_RESP	n/a	LTP075	ltpFR	1	5	-1	HONEY	713	n/a	-1	n/a	n/a	n/a	n/a	n/a
3702884	RECOG_CONF	n/a	LTP075	ltpFR	1	5	-1	HONEY	713	5	-1	n/a	n/a	n/a	n/a	n/a
3704377	RECOG_LURE	n/a	LTP075	ltpFR	1	5	n/a	PORK	1108	4	n/a	n/a	n/a	n/a	n/a	n/a
3705368	RECOG_RESP	n/a	LTP075	ltpFR	1	5	n/a	PORK	1108	n/a	n/a	n/a	n/a	n/a	n/a	n/a
3706336	RECOG_CONF	n/a	LTP075	ltpFR	1	5	n/a	PORK	1108	4	n/a	n/a	n/a	n/a	n/a	n/a
3707594	RECOG_LURE	n/a	LTP075	ltpFR	1	5	n/a	CATTLE	261	2	n/a	n/a	n/a	n/a	n/a	n/a
3708421	RECOG_RESP	n/a	LTP075	ltpFR	1	5	n/a	CATTLE	261	n/a	n/a	n/a	n/a	n/a	n/a	n/a
3709698	RECOG_CONF	n/a	LTP075	ltpFR	1	5	n/a	CATTLE	261	2	n/a	n/a	n/a	n/a	n/a	n/a
3710951	RECOG_LURE	n/a	LTP075	ltpFR	1	5	n/a	ADULT	8	3	n/a	n/a	n/a	n/a	n/a	n/a
3711943	RECOG_RESP	n/a	LTP075	ltpFR	1	5	n/a	ADULT	8	n/a	n/a	n/a	n/a	n/a	n/a	n/a
3712911	RECOG_CONF	n/a	LTP075	ltpFR	1	5	n/a	ADULT	8	3	n/a	n/a	n/a	n/a	n/a	n/a
3714184	RECOG_LURE	n/a	LTP075	ltpFR	1	5	n/a	SPOON	1357	3	n/a	n/a	n/a	n/a	n/a	n/a
3715146	RECOG_RESP	n/a	LTP075	ltpFR	1	5	n/a	SPOON	1357	n/a	n/a	n/a	n/a	n/a	n/a	n/a
3716094	RECOG_CONF	n/a	LTP075	ltpFR	1	5	n/a	SPOON	1357	3	n/a	n/a	n/a	n/a	n/a	n/a
3722683	REC_START	n/a	LTP075	ltpFR	1	6	n/a	n/a	n/a	n/a	n/a	n/a	n/a	n/a	n/a	n/a
3722727	RECOG_TARGET	n/a	LTP075	ltpFR	1	6	1	RECEPTIONIST	1174	5	1	n/a	n/a	n/a	n/a	n/a
3723705	RECOG_RESP	n/a	LTP075	ltpFR	1	6	1	RECEPTIONIST	1174	n/a	1	n/a	n/a	n/a	n/a	n/a
3724833	RECOG_CONF	n/a	LTP075	ltpFR	1	6	1	RECEPTIONIST	1174	5	1	n/a	n/a	n/a	n/a	n/a
3726175	RECOG_TARGET	n/a	LTP075	ltpFR	1	6	1	FENCE	560	5	0	n/a	n/a	n/a	n/a	n/a
3727168	RECOG_RESP	n/a	LTP075	ltpFR	1	6	1	FENCE	560	n/a	0	n/a	n/a	n/a	n/a	n/a
3728235	RECOG_CONF	n/a	LTP075	ltpFR	1	6	1	FENCE	560	5	0	n/a	n/a	n/a	n/a	n/a
3729493	RECOG_TARGET	n/a	LTP075	ltpFR	1	6	1	PILLOW	1069	5	0	n/a	n/a	n/a	n/a	n/a
3730340	RECOG_RESP	n/a	LTP075	ltpFR	1	6	1	PILLOW	1069	n/a	0	n/a	n/a	n/a	n/a	n/a
3731368	RECOG_CONF	n/a	LTP075	ltpFR	1	6	1	PILLOW	1069	5	0	n/a	n/a	n/a	n/a	n/a
3732592	RECOG_TARGET	n/a	LTP075	ltpFR	1	6	0	SERVER	1272	4	1	n/a	n/a	n/a	n/a	n/a
3733553	RECOG_RESP	n/a	LTP075	ltpFR	1	6	0	SERVER	1272	n/a	1	n/a	n/a	n/a	n/a	n/a
3734601	RECOG_CONF	n/a	LTP075	ltpFR	1	6	0	SERVER	1272	4	1	n/a	n/a	n/a	n/a	n/a
3736024	RECOG_TARGET	n/a	LTP075	ltpFR	1	6	0	VALVE	1546	5	0	n/a	n/a	n/a	n/a	n/a
3736816	RECOG_RESP	n/a	LTP075	ltpFR	1	6	0	VALVE	1546	n/a	0	n/a	n/a	n/a	n/a	n/a
3737893	RECOG_CONF	n/a	LTP075	ltpFR	1	6	0	VALVE	1546	5	0	n/a	n/a	n/a	n/a	n/a
3739291	RECOG_TARGET	n/a	LTP075	ltpFR	1	6	0	GYM	674	4	1	n/a	n/a	n/a	n/a	n/a
3740358	RECOG_RESP	n/a	LTP075	ltpFR	1	6	0	GYM	674	n/a	1	n/a	n/a	n/a	n/a	n/a
3741345	RECOG_CONF	n/a	LTP075	ltpFR	1	6	0	GYM	674	4	1	n/a	n/a	n/a	n/a	n/a
3742733	RECOG_TARGET	n/a	LTP075	ltpFR	1	6	1	SECRETARY	1265	5	1	n/a	n/a	n/a	n/a	n/a
3743510	RECOG_RESP	n/a	LTP075	ltpFR	1	6	1	SECRETARY	1265	n/a	1	n/a	n/a	n/a	n/a	n/a
3744538	RECOG_CONF	n/a	LTP075	ltpFR	1	6	1	SECRETARY	1265	5	1	n/a	n/a	n/a	n/a	n/a
3745990	RECOG_TARGET	n/a	LTP075	ltpFR	1	6	1	LOUNGE	845	5	0	n/a	n/a	n/a	n/a	n/a
3746753	RECOG_RESP	n/a	LTP075	ltpFR	1	6	1	LOUNGE	845	n/a	0	n/a	n/a	n/a	n/a	n/a
3747960	RECOG_CONF	n/a	LTP075	ltpFR	1	6	1	LOUNGE	845	5	0	n/a	n/a	n/a	n/a	n/a
3749398	RECOG_TARGET	n/a	LTP075	ltpFR	1	6	1	BRANDY	169	5	0	n/a	n/a	n/a	n/a	n/a
3750096	RECOG_RESP	n/a	LTP075	ltpFR	1	6	1	BRANDY	169	n/a	0	n/a	n/a	n/a	n/a	n/a
3751223	RECOG_CONF	n/a	LTP075	ltpFR	1	6	1	BRANDY	169	5	0	n/a	n/a	n/a	n/a	n/a
3752599	RECOG_TARGET	n/a	LTP075	ltpFR	1	6	0	PAINTER	1004	4	1	n/a	n/a	n/a	n/a	n/a
3753588	RECOG_RESP	n/a	LTP075	ltpFR	1	6	0	PAINTER	1004	n/a	1	n/a	n/a	n/a	n/a	n/a
3754745	RECOG_CONF	n/a	LTP075	ltpFR	1	6	0	PAINTER	1004	4	1	n/a	n/a	n/a	n/a	n/a
3756065	RECOG_TARGET	n/a	LTP075	ltpFR	1	6	1	SAW	1239	5	0	n/a	n/a	n/a	n/a	n/a
3756800	RECOG_RESP	n/a	LTP075	ltpFR	1	6	1	SAW	1239	n/a	0	n/a	n/a	n/a	n/a	n/a
3757978	RECOG_CONF	n/a	LTP075	ltpFR	1	6	1	SAW	1239	5	0	n/a	n/a	n/a	n/a	n/a
3759364	RECOG_TARGET	n/a	LTP075	ltpFR	1	6	-1	PUPPY	1144	3	-1	n/a	n/a	n/a	n/a	n/a
3760223	RECOG_RESP	n/a	LTP075	ltpFR	1	6	-1	PUPPY	1144	n/a	-1	n/a	n/a	n/a	n/a	n/a
3761210	RECOG_CONF	n/a	LTP075	ltpFR	1	6	-1	PUPPY	1144	3	-1	n/a	n/a	n/a	n/a	n/a
3762649	RECOG_LURE	n/a	LTP075	ltpFR	1	6	n/a	FIELD	562	3	n/a	n/a	n/a	n/a	n/a	n/a
3763535	RECOG_RESP	n/a	LTP075	ltpFR	1	6	n/a	FIELD	562	n/a	n/a	n/a	n/a	n/a	n/a	n/a
3764533	RECOG_CONF	n/a	LTP075	ltpFR	1	6	n/a	FIELD	562	3	n/a	n/a	n/a	n/a	n/a	n/a
3765922	RECOG_TARGET	n/a	LTP075	ltpFR	1	6	1	BARRACUDA	90	2	1	n/a	n/a	n/a	n/a	n/a
3767117	RECOG_RESP	n/a	LTP075	ltpFR	1	6	1	BARRACUDA	90	n/a	1	n/a	n/a	n/a	n/a	n/a
3768055	RECOG_CONF	n/a	LTP075	ltpFR	1	6	1	BARRACUDA	90	2	1	n/a	n/a	n/a	n/a	n/a
3769414	RECOG_TARGET	n/a	LTP075	ltpFR	1	6	0	PEANUT	1032	5	0	n/a	n/a	n/a	n/a	n/a
3770150	RECOG_RESP	n/a	LTP075	ltpFR	1	6	0	PEANUT	1032	n/a	0	n/a	n/a	n/a	n/a	n/a
3771198	RECOG_CONF	n/a	LTP075	ltpFR	1	6	0	PEANUT	1032	5	0	n/a	n/a	n/a	n/a	n/a
3772665	RECOG_TARGET	n/a	LTP075	ltpFR	1	6	1	CANAL	226	5	0	n/a	n/a	n/a	n/a	n/a
3773303	RECOG_RESP	n/a	LTP075	ltpFR	1	6	1	CANAL	226	n/a	0	n/a	n/a	n/a	n/a	n/a
3774410	RECOG_CONF	n/a	LTP075	ltpFR	1	6	1	CANAL	226	5	0	n/a	n/a	n/a	n/a	n/a
3775698	RECOG_LURE	n/a	LTP075	ltpFR	1	6	n/a	ROOMMATE	1207	3	n/a	n/a	n/a	n/a	n/a	n/a
3776496	RECOG_RESP	n/a	LTP075	ltpFR	1	6	n/a	ROOMMATE	1207	n/a	n/a	n/a	n/a	n/a	n/a	n/a
3777623	RECOG_CONF	n/a	LTP075	ltpFR	1	6	n/a	ROOMMATE	1207	3	n/a	n/a	n/a	n/a	n/a	n/a
3778888	RECOG_TARGET	n/a	LTP075	ltpFR	1	6	0	CIGARETTE	309	5	0	n/a	n/a	n/a	n/a	n/a
3779908	RECOG_RESP	n/a	LTP075	ltpFR	1	6	0	CIGARETTE	309	n/a	0	n/a	n/a	n/a	n/a	n/a
3781095	RECOG_CONF	n/a	LTP075	ltpFR	1	6	0	CIGARETTE	309	5	0	n/a	n/a	n/a	n/a	n/a
3782505	RECOG_LURE	n/a	LTP075	ltpFR	1	6	n/a	MATCH	878	2	n/a	n/a	n/a	n/a	n/a	n/a
3783450	RECOG_RESP	n/a	LTP075	ltpFR	1	6	n/a	MATCH	878	n/a	n/a	n/a	n/a	n/a	n/a	n/a
3784517	RECOG_CONF	n/a	LTP075	ltpFR	1	6	n/a	MATCH	878	2	n/a	n/a	n/a	n/a	n/a	n/a
3785904	RECOG_LURE	n/a	LTP075	ltpFR	1	6	n/a	SENATOR	1268	5	n/a	n/a	n/a	n/a	n/a	n/a
3786832	RECOG_RESP	n/a	LTP075	ltpFR	1	6	n/a	SENATOR	1268	n/a	n/a	n/a	n/a	n/a	n/a	n/a
3787820	RECOG_CONF	n/a	LTP075	ltpFR	1	6	n/a	SENATOR	1268	5	n/a	n/a	n/a	n/a	n/a	n/a
3793126	REC_START	n/a	LTP075	ltpFR	1	7	n/a	n/a	n/a	n/a	n/a	n/a	n/a	n/a	n/a	n/a
3793162	RECOG_LURE	n/a	LTP075	ltpFR	1	7	n/a	SEAT	1264	4	n/a	n/a	n/a	n/a	n/a	n/a
3794158	RECOG_RESP	n/a	LTP075	ltpFR	1	7	n/a	SEAT	1264	n/a	n/a	n/a	n/a	n/a	n/a	n/a
3795196	RECOG_CONF	n/a	LTP075	ltpFR	1	7	n/a	SEAT	1264	4	n/a	n/a	n/a	n/a	n/a	n/a
3796462	RECOG_TARGET	n/a	LTP075	ltpFR	1	7	1	CREW	406	5	1	n/a	n/a	n/a	n/a	n/a
3797162	RECOG_RESP	n/a	LTP075	ltpFR	1	7	1	CREW	406	n/a	1	n/a	n/a	n/a	n/a	n/a
3798179	RECOG_CONF	n/a	LTP075	ltpFR	1	7	1	CREW	406	5	1	n/a	n/a	n/a	n/a	n/a
3799521	RECOG_TARGET	n/a	LTP075	ltpFR	1	7	1	SERVANT	1271	5	1	n/a	n/a	n/a	n/a	n/a
3800344	RECOG_RESP	n/a	LTP075	ltpFR	1	7	1	SERVANT	1271	n/a	1	n/a	n/a	n/a	n/a	n/a
3801312	RECOG_CONF	n/a	LTP075	ltpFR	1	7	1	SERVANT	1271	5	1	n/a	n/a	n/a	n/a	n/a
3802579	RECOG_LURE	n/a	LTP075	ltpFR	1	7	n/a	SUN	1406	2	n/a	n/a	n/a	n/a	n/a	n/a
3803308	RECOG_RESP	n/a	LTP075	ltpFR	1	7	n/a	SUN	1406	n/a	n/a	n/a	n/a	n/a	n/a	n/a
3804595	RECOG_CONF	n/a	LTP075	ltpFR	1	7	n/a	SUN	1406	2	n/a	n/a	n/a	n/a	n/a	n/a
3805878	RECOG_TARGET	n/a	LTP075	ltpFR	1	7	1	MOAT	903	5	0	n/a	n/a	n/a	n/a	n/a
3806630	RECOG_RESP	n/a	LTP075	ltpFR	1	7	1	MOAT	903	n/a	0	n/a	n/a	n/a	n/a	n/a
3807797	RECOG_CONF	n/a	LTP075	ltpFR	1	7	1	MOAT	903	5	0	n/a	n/a	n/a	n/a	n/a
3809186	RECOG_TARGET	n/a	LTP075	ltpFR	1	7	0	KNAPSACK	783	4	1	n/a	n/a	n/a	n/a	n/a
3810342	RECOG_RESP	n/a	LTP075	ltpFR	1	7	0	KNAPSACK	783	n/a	1	n/a	n/a	n/a	n/a	n/a
3811329	RECOG_CONF	n/a	LTP075	ltpFR	1	7	0	KNAPSACK	783	4	1	n/a	n/a	n/a	n/a	n/a
3812678	RECOG_TARGET	n/a	LTP075	ltpFR	1	7	0	WAITRESS	1581	4	1	n/a	n/a	n/a	n/a	n/a
3813465	RECOG_RESP	n/a	LTP075	ltpFR	1	7	0	WAITRESS	1581	n/a	1	n/a	n/a	n/a	n/a	n/a
3814323	RECOG_CONF	n/a	LTP075	ltpFR	1	7	0	WAITRESS	1581	4	1	n/a	n/a	n/a	n/a	n/a
3815586	RECOG_TARGET	n/a	LTP075	ltpFR	1	7	-1	TOWER	1490	5	-1	n/a	n/a	n/a	n/a	n/a
3816518	RECOG_RESP	n/a	LTP075	ltpFR	1	7	-1	TOWER	1490	n/a	-1	n/a	n/a	n/a	n/a	n/a
3817555	RECOG_CONF	n/a	LTP075	ltpFR	1	7	-1	TOWER	1490	5	-1	n/a	n/a	n/a	n/a	n/a
3819060	RECOG_TARGET	n/a	LTP075	ltpFR	1	7	-1	JEEP	753	5	-1	n/a	n/a	n/a	n/a	n/a
3819760	RECOG_RESP	n/a	LTP075	ltpFR	1	7	-1	JEEP	753	n/a	-1	n/a	n/a	n/a	n/a	n/a
3820838	RECOG_CONF	n/a	LTP075	ltpFR	1	7	-1	JEEP	753	5	-1	n/a	n/a	n/a	n/a	n/a
3822235	RECOG_TARGET	n/a	LTP075	ltpFR	1	7	1	REFRIGERATOR	1179	5	0	n/a	n/a	n/a	n/a	n/a
3823003	RECOG_RESP	n/a	LTP075	ltpFR	1	7	1	REFRIGERATOR	1179	n/a	0	n/a	n/a	n/a	n/a	n/a
3824090	RECOG_CONF	n/a	LTP075	ltpFR	1	7	1	REFRIGERATOR	1179	5	0	n/a	n/a	n/a	n/a	n/a
3825476	RECOG_TARGET	n/a	LTP075	ltpFR	1	7	-1	CAFETERIA	217	2	-1	n/a	n/a	n/a	n/a	n/a
3826455	RECOG_RESP	n/a	LTP075	ltpFR	1	7	-1	CAFETERIA	217	n/a	-1	n/a	n/a	n/a	n/a	n/a
3827393	RECOG_CONF	n/a	LTP075	ltpFR	1	7	-1	CAFETERIA	217	2	-1	n/a	n/a	n/a	n/a	n/a
3828769	RECOG_TARGET	n/a	LTP075	ltpFR	1	7	-1	WOUND	1624	5	-1	n/a	n/a	n/a	n/a	n/a
3829558	RECOG_RESP	n/a	LTP075	ltpFR	1	7	-1	WOUND	1624	n/a	-1	n/a	n/a	n/a	n/a	n/a
3830616	RECOG_CONF	n/a	LTP075	ltpFR	1	7	-1	WOUND	1624	5	-1	n/a	n/a	n/a	n/a	n/a
3832026	RECOG_TARGET	n/a	LTP075	ltpFR	1	7	1	FISH	571	5	1	n/a	n/a	n/a	n/a	n/a
3832731	RECOG_RESP	n/a	LTP075	ltpFR	1	7	1	FISH	571	n/a	1	n/a	n/a	n/a	n/a	n/a
3833808	RECOG_CONF	n/a	LTP075	ltpFR	1	7	1	FISH	571	5	1	n/a	n/a	n/a	n/a	n/a
3835176	RECOG_TARGET	n/a	LTP075	ltpFR	1	7	1	MEAL	882	2	0	n/a	n/a	n/a	n/a	n/a
3835983	RECOG_RESP	n/a	LTP075	ltpFR	1	7	1	MEAL	882	n/a	0	n/a	n/a	n/a	n/a	n/a
3836971	RECOG_CONF	n/a	LTP075	ltpFR	1	7	1	MEAL	882	2	0	n/a	n/a	n/a	n/a	n/a
3838267	RECOG_TARGET	n/a	LTP075	ltpFR	1	7	-1	CANNON	232	5	-1	n/a	n/a	n/a	n/a	n/a
3838887	RECOG_RESP	n/a	LTP075	ltpFR	1	7	-1	CANNON	232	n/a	-1	n/a	n/a	n/a	n/a	n/a
3839914	RECOG_CONF	n/a	LTP075	ltpFR	1	7	-1	CANNON	232	5	-1	n/a	n/a	n/a	n/a	n/a
3841392	RECOG_TARGET	n/a	LTP075	ltpFR	1	7	0	CELLO	268	1	1	n/a	n/a	n/a	n/a	n/a
3842379	RECOG_RESP	n/a	LTP075	ltpFR	1	7	0	CELLO	268	n/a	1	n/a	n/a	n/a	n/a	n/a
3843866	RECOG_CONF	n/a	LTP075	ltpFR	1	7	0	CELLO	268	1	1	n/a	n/a	n/a	n/a	n/a
3845233	RECOG_TARGET	n/a	LTP075	ltpFR	1	7	0	FLANNEL	574	5	0	n/a	n/a	n/a	n/a	n/a
3845911	RECOG_RESP	n/a	LTP075	ltpFR	1	7	0	FLANNEL	574	n/a	0	n/a	n/a	n/a	n/a	n/a
3847078	RECOG_CONF	n/a	LTP075	ltpFR	1	7	0	FLANNEL	574	5	0	n/a	n/a	n/a	n/a	n/a
3848559	RECOG_TARGET	n/a	LTP075	ltpFR	1	7	-1	TUBE	1516	5	-1	n/a	n/a	n/a	n/a	n/a
3849902	RECOG_RESP	n/a	LTP075	ltpFR	1	7	-1	TUBE	1516	n/a	-1	n/a	n/a	n/a	n/a	n/a
3850969	RECOG_CONF	n/a	LTP075	ltpFR	1	7	-1	TUBE	1516	5	-1	n/a	n/a	n/a	n/a	n/a
3852274	RECOG_TARGET	n/a	LTP075	ltpFR	1	7	0	CUBE	420	5	0	n/a	n/a	n/a	n/a	n/a
3853065	RECOG_RESP	n/a	LTP075	ltpFR	1	7	0	CUBE	420	n/a	0	n/a	n/a	n/a	n/a	n/a
3854222	RECOG_CONF	n/a	LTP075	ltpFR	1	7	0	CUBE	420	5	0	n/a	n/a	n/a	n/a	n/a
3855642	RECOG_LURE	n/a	LTP075	ltpFR	1	7	n/a	VELVET	1555	5	n/a	n/a	n/a	n/a	n/a	n/a
3856686	RECOG_RESP	n/a	LTP075	ltpFR	1	7	n/a	VELVET	1555	n/a	n/a	n/a	n/a	n/a	n/a	n/a
3857694	RECOG_CONF	n/a	LTP075	ltpFR	1	7	n/a	VELVET	1555	5	n/a	n/a	n/a	n/a	n/a	n/a
3862551	REC_START	n/a	LTP075	ltpFR	1	8	n/a	n/a	n/a	n/a	n/a	n/a	n/a	n/a	n/a	n/a
3862583	RECOG_TARGET	n/a	LTP075	ltpFR	1	8	-1	IDOL	733	5	-1	n/a	n/a	n/a	n/a	n/a
3863224	RECOG_RESP	n/a	LTP075	ltpFR	1	8	-1	IDOL	733	n/a	-1	n/a	n/a	n/a	n/a	n/a
3864232	RECOG_CONF	n/a	LTP075	ltpFR	1	8	-1	IDOL	733	5	-1	n/a	n/a	n/a	n/a	n/a
3865649	RECOG_TARGET	n/a	LTP075	ltpFR	1	8	-1	SHRUB	1299	5	-1	n/a	n/a	n/a	n/a	n/a
3866307	RECOG_RESP	n/a	LTP075	ltpFR	1	8	-1	SHRUB	1299	n/a	-1	n/a	n/a	n/a	n/a	n/a
3867365	RECOG_CONF	n/a	LTP075	ltpFR	1	8	-1	SHRUB	1299	5	-1	n/a	n/a	n/a	n/a	n/a
3868707	RECOG_TARGET	n/a	LTP075	ltpFR	1	8	1	WINGS	1614	5	0	n/a	n/a	n/a	n/a	n/a
3869450	RECOG_RESP	n/a	LTP075	ltpFR	1	8	1	WINGS	1614	n/a	0	n/a	n/a	n/a	n/a	n/a
3870408	RECOG_CONF	n/a	LTP075	ltpFR	1	8	1	WINGS	1614	5	0	n/a	n/a	n/a	n/a	n/a
3871749	RECOG_LURE	n/a	LTP075	ltpFR	1	8	n/a	PIT	1077	3	n/a	n/a	n/a	n/a	n/a	n/a
3872583	RECOG_RESP	n/a	LTP075	ltpFR	1	8	n/a	PIT	1077	n/a	n/a	n/a	n/a	n/a	n/a	n/a
3873571	RECOG_CONF	n/a	LTP075	ltpFR	1	8	n/a	PIT	1077	3	n/a	n/a	n/a	n/a	n/a	n/a
3874823	RECOG_LURE	n/a	LTP075	ltpFR	1	8	n/a	ICING	732	2	n/a	n/a	n/a	n/a	n/a	n/a
3875616	RECOG_RESP	n/a	LTP075	ltpFR	1	8	n/a	ICING	732	n/a	n/a	n/a	n/a	n/a	n/a	n/a
3876764	RECOG_CONF	n/a	LTP075	ltpFR	1	8	n/a	ICING	732	2	n/a	n/a	n/a	n/a	n/a	n/a
3878197	RECOG_TARGET	n/a	LTP075	ltpFR	1	8	1	BLANKET	135	4	0	n/a	n/a	n/a	n/a	n/a
3878909	RECOG_RESP	n/a	LTP075	ltpFR	1	8	1	BLANKET	135	n/a	0	n/a	n/a	n/a	n/a	n/a
3880116	RECOG_CONF	n/a	LTP075	ltpFR	1	8	1	BLANKET	135	4	0	n/a	n/a	n/a	n/a	n/a
3881464	RECOG_LURE	n/a	LTP075	ltpFR	1	8	n/a	RUG	1215	3	n/a	n/a	n/a	n/a	n/a	n/a
3882251	RECOG_RESP	n/a	LTP075	ltpFR	1	8	n/a	RUG	1215	n/a	n/a	n/a	n/a	n/a	n/a	n/a
3883259	RECOG_CONF	n/a	LTP075	ltpFR	1	8	n/a	RUG	1215	3	n/a	n/a	n/a	n/a	n/a	n/a
3884606	RECOG_LURE	n/a	LTP075	ltpFR	1	8	n/a	MARGARINE	868	5	n/a	n/a	n/a	n/a	n/a	n/a
3885653	RECOG_RESP	n/a	LTP075	ltpFR	1	8	n/a	MARGARINE	868	n/a	n/a	n/a	n/a	n/a	n/a	n/a
3886481	RECOG_CONF	n/a	LTP075	ltpFR	1	8	n/a	MARGARINE	868	5	n/a	n/a	n/a	n/a	n/a	n/a
3888055	RECOG_TARGET	n/a	LTP075	ltpFR	1	8	0	TOOTH	1481	5	0	n/a	n/a	n/a	n/a	n/a
3889145	RECOG_RESP	n/a	LTP075	ltpFR	1	8	0	TOOTH	1481	n/a	0	n/a	n/a	n/a	n/a	n/a
3890113	RECOG_CONF	n/a	LTP075	ltpFR	1	8	0	TOOTH	1481	5	0	n/a	n/a	n/a	n/a	n/a
3891531	RECOG_LURE	n/a	LTP075	ltpFR	1	8	n/a	CRICKET	408	2	n/a	n/a	n/a	n/a	n/a	n/a
3892807	RECOG_RESP	n/a	LTP075	ltpFR	1	8	n/a	CRICKET	408	n/a	n/a	n/a	n/a	n/a	n/a	n/a
3894174	RECOG_CONF	n/a	LTP075	ltpFR	1	8	n/a	CRICKET	408	2	n/a	n/a	n/a	n/a	n/a	n/a
3895589	RECOG_LURE	n/a	LTP075	ltpFR	1	8	n/a	COMET	353	4	n/a	n/a	n/a	n/a	n/a	n/a
3896818	RECOG_RESP	n/a	LTP075	ltpFR	1	8	n/a	COMET	353	n/a	n/a	n/a	n/a	n/a	n/a	n/a
3897696	RECOG_CONF	n/a	LTP075	ltpFR	1	8	n/a	COMET	353	4	n/a	n/a	n/a	n/a	n/a	n/a
3899079	RECOG_TARGET	n/a	LTP075	ltpFR	1	8	0	FLOUR	583	5	0	n/a	n/a	n/a	n/a	n/a
3899911	RECOG_RESP	n/a	LTP075	ltpFR	1	8	0	FLOUR	583	n/a	0	n/a	n/a	n/a	n/a	n/a
3900929	RECOG_CONF	n/a	LTP075	ltpFR	1	8	0	FLOUR	583	5	0	n/a	n/a	n/a	n/a	n/a
3902304	RECOG_TARGET	n/a	LTP075	ltpFR	1	8	0	CATCHER	258	5	1	n/a	n/a	n/a	n/a	n/a
3903243	RECOG_RESP	n/a	LTP075	ltpFR	1	8	0	CATCHER	258	n/a	1	n/a	n/a	n/a	n/a	n/a
3904291	RECOG_CONF	n/a	LTP075	ltpFR	1	8	0	CATCHER	258	5	1	n/a	n/a	n/a	n/a	n/a
3905646	RECOG_TARGET	n/a	LTP075	ltpFR	1	8	0	ATOM	55	5	0	n/a	n/a	n/a	n/a	n/a
3906496	RECOG_RESP	n/a	LTP075	ltpFR	1	8	0	ATOM	55	n/a	0	n/a	n/a	n/a	n/a	n/a
3907613	RECOG_CONF	n/a	LTP075	ltpFR	1	8	0	ATOM	55	5	0	n/a	n/a	n/a	n/a	n/a
3908970	RECOG_LURE	n/a	LTP075	ltpFR	1	8	n/a	CONSOLE	364	4	n/a	n/a	n/a	n/a	n/a	n/a
3909868	RECOG_RESP	n/a	LTP075	ltpFR	1	8	n/a	CONSOLE	364	n/a	n/a	n/a	n/a	n/a	n/a	n/a
3910896	RECOG_CONF	n/a	LTP075	ltpFR	1	8	n/a	CONSOLE	364	4	n/a	n/a	n/a	n/a	n/a	n/a
3912395	RECOG_TARGET	n/a	LTP075	ltpFR	1	8	0	PANTHER	1009	5	1	n/a	n/a	n/a	n/a	n/a
3913181	RECOG_RESP	n/a	LTP075	ltpFR	1	8	0	PANTHER	1009	n/a	1	n/a	n/a	n/a	n/a	n/a
3914268	RECOG_CONF	n/a	LTP075	ltpFR	1	8	0	PANTHER	1009	5	1	n/a	n/a	n/a	n/a	n/a
3915729	RECOG_TARGET	n/a	LTP075	ltpFR	1	8	0	MILITARY	894	5	1	n/a	n/a	n/a	n/a	n/a
3916872	RECOG_RESP	n/a	LTP075	ltpFR	1	8	0	MILITARY	894	n/a	1	n/a	n/a	n/a	n/a	n/a
3917930	RECOG_CONF	n/a	LTP075	ltpFR	1	8	0	MILITARY	894	5	1	n/a	n/a	n/a	n/a	n/a
3919261	RECOG_TARGET	n/a	LTP075	ltpFR	1	8	0	SHOVEL	1295	5	1	n/a	n/a	n/a	n/a	n/a
3919985	RECOG_RESP	n/a	LTP075	ltpFR	1	8	0	SHOVEL	1295	n/a	1	n/a	n/a	n/a	n/a	n/a
3921203	RECOG_CONF	n/a	LTP075	ltpFR	1	8	0	SHOVEL	1295	5	1	n/a	n/a	n/a	n/a	n/a
3922662	RECOG_TARGET	n/a	LTP075	ltpFR	1	8	0	CHAMPION	279	5	1	n/a	n/a	n/a	n/a	n/a
3923577	RECOG_RESP	n/a	LTP075	ltpFR	1	8	0	CHAMPION	279	n/a	1	n/a	n/a	n/a	n/a	n/a
3924834	RECOG_CONF	n/a	LTP075	ltpFR	1	8	0	CHAMPION	279	5	1	n/a	n/a	n/a	n/a	n/a
3926161	RECOG_TARGET	n/a	LTP075	ltpFR	1	8	1	JUG	762	4	0	n/a	n/a	n/a	n/a	n/a
3926989	RECOG_RESP	n/a	LTP075	ltpFR	1	8	1	JUG	762	n/a	0	n/a	n/a	n/a	n/a	n/a
3927957	RECOG_CONF	n/a	LTP075	ltpFR	1	8	1	JUG	762	4	0	n/a	n/a	n/a	n/a	n/a
3935659	REC_START	n/a	LTP075	ltpFR	1	9	n/a	n/a	n/a	n/a	n/a	n/a	n/a	n/a	n/a	n/a
3935694	RECOG_TARGET	n/a	LTP075	ltpFR	1	9	1	ROBIN	1199	5	1	n/a	n/a	n/a	n/a	n/a
3936562	RECOG_RESP	n/a	LTP075	ltpFR	1	9	1	ROBIN	1199	n/a	1	n/a	n/a	n/a	n/a	n/a
3937719	RECOG_CONF	n/a	LTP075	ltpFR	1	9	1	ROBIN	1199	5	1	n/a	n/a	n/a	n/a	n/a
3939018	RECOG_TARGET	n/a	LTP075	ltpFR	1	9	0	YARD	1630	5	1	n/a	n/a	n/a	n/a	n/a
3939705	RECOG_RESP	n/a	LTP075	ltpFR	1	9	0	YARD	1630	n/a	1	n/a	n/a	n/a	n/a	n/a
3940762	RECOG_CONF	n/a	LTP075	ltpFR	1	9	0	YARD	1630	5	1	n/a	n/a	n/a	n/a	n/a
3942118	RECOG_TARGET	n/a	LTP075	ltpFR	1	9	1	CIGAR	308	5	0	n/a	n/a	n/a	n/a	n/a
3943326	RECOG_RESP	n/a	LTP075	ltpFR	1	9	1	CIGAR	308	n/a	0	n/a	n/a	n/a	n/a	n/a
3944484	RECOG_CONF	n/a	LTP075	ltpFR	1	9	1	CIGAR	308	5	0	n/a	n/a	n/a	n/a	n/a
3945976	RECOG_TARGET	n/a	LTP075	ltpFR	1	9	1	SEAFOOD	1260	5	0	n/a	n/a	n/a	n/a	n/a
3946699	RECOG_RESP	n/a	LTP075	ltpFR	1	9	1	SEAFOOD	1260	n/a	0	n/a	n/a	n/a	n/a	n/a
3947936	RECOG_CONF	n/a	LTP075	ltpFR	1	9	1	SEAFOOD	1260	5	0	n/a	n/a	n/a	n/a	n/a
3949309	RECOG_LURE	n/a	LTP075	ltpFR	1	9	n/a	JAW	751	4	n/a	n/a	n/a	n/a	n/a	n/a
3950186	RECOG_RESP	n/a	LTP075	ltpFR	1	9	n/a	JAW	751	n/a	n/a	n/a	n/a	n/a	n/a	n/a
3951268	RECOG_CONF	n/a	LTP075	ltpFR	1	9	n/a	JAW	751	4	n/a	n/a	n/a	n/a	n/a	n/a
3952585	RECOG_LURE	n/a	LTP075	ltpFR	1	9	n/a	FLUTE	585	3	n/a	n/a	n/a	n/a	n/a	n/a
3953553	RECOG_RESP	n/a	LTP075	ltpFR	1	9	n/a	FLUTE	585	n/a	n/a	n/a	n/a	n/a	n/a	n/a
3954571	RECOG_CONF	n/a	LTP075	ltpFR	1	9	n/a	FLUTE	585	3	n/a	n/a	n/a	n/a	n/a	n/a
3955933	RECOG_LURE	n/a	LTP075	ltpFR	1	9	n/a	CERAMICS	271	5	n/a	n/a	n/a	n/a	n/a	n/a
3956796	RECOG_RESP	n/a	LTP075	ltpFR	1	9	n/a	CERAMICS	271	n/a	n/a	n/a	n/a	n/a	n/a	n/a
3957843	RECOG_CONF	n/a	LTP075	ltpFR	1	9	n/a	CERAMICS	271	5	n/a	n/a	n/a	n/a	n/a	n/a
3959241	RECOG_TARGET	n/a	LTP075	ltpFR	1	9	0	KIWI	781	5	0	n/a	n/a	n/a	n/a	n/a
3959939	RECOG_RESP	n/a	LTP075	ltpFR	1	9	0	KIWI	781	n/a	0	n/a	n/a	n/a	n/a	n/a
3961246	RECOG_CONF	n/a	LTP075	ltpFR	1	9	0	KIWI	781	5	0	n/a	n/a	n/a	n/a	n/a
3962416	RECOG_LURE	n/a	LTP075	ltpFR	1	9	n/a	BANANA	77	3	n/a	n/a	n/a	n/a	n/a	n/a
3963371	RECOG_RESP	n/a	LTP075	ltpFR	1	9	n/a	BANANA	77	n/a	n/a	n/a	n/a	n/a	n/a	n/a
3964428	RECOG_CONF	n/a	LTP075	ltpFR	1	9	n/a	BANANA	77	3	n/a	n/a	n/a	n/a	n/a	n/a
3965759	RECOG_TARGET	n/a	LTP075	ltpFR	1	9	1	CANARY	227	5	1	n/a	n/a	n/a	n/a	n/a
3966384	RECOG_RESP	n/a	LTP075	ltpFR	1	9	1	CANARY	227	n/a	1	n/a	n/a	n/a	n/a	n/a
3967561	RECOG_CONF	n/a	LTP075	ltpFR	1	9	1	CANARY	227	5	1	n/a	n/a	n/a	n/a	n/a
3969049	RECOG_LURE	n/a	LTP075	ltpFR	1	9	n/a	RAILROAD	1162	2	n/a	n/a	n/a	n/a	n/a	n/a
3970295	RECOG_RESP	n/a	LTP075	ltpFR	1	9	n/a	RAILROAD	1162	n/a	n/a	n/a	n/a	n/a	n/a	n/a
3971293	RECOG_CONF	n/a	LTP075	ltpFR	1	9	n/a	RAILROAD	1162	2	n/a	n/a	n/a	n/a	n/a	n/a
3972658	RECOG_TARGET	n/a	LTP075	ltpFR	1	9	1	BUG	187	2	1	n/a	n/a	n/a	n/a	n/a
3973877	RECOG_RESP	n/a	LTP075	ltpFR	1	9	1	BUG	187	n/a	1	n/a	n/a	n/a	n/a	n/a
3974915	RECOG_CONF	n/a	LTP075	ltpFR	1	9	1	BUG	187	2	1	n/a	n/a	n/a	n/a	n/a
3976257	RECOG_TARGET	n/a	LTP075	ltpFR	1	9	-1	WAND	1586	4	-1	n/a	n/a	n/a	n/a	n/a
3977409	RECOG_RESP	n/a	LTP075	ltpFR	1	9	-1	WAND	1586	n/a	-1	n/a	n/a	n/a	n/a	n/a
3978357	RECOG_CONF	n/a	LTP075	ltpFR	1	9	-1	WAND	1586	4	-1	n/a	n/a	n/a	n/a	n/a
3979724	RECOG_LURE	n/a	LTP075	ltpFR	1	9	n/a	STOMACH	1384	5	n/a	n/a	n/a	n/a	n/a	n/a
3980572	RECOG_RESP	n/a	LTP075	ltpFR	1	9	n/a	STOMACH	1384	n/a	n/a	n/a	n/a	n/a	n/a	n/a
3981559	RECOG_CONF	n/a	LTP075	ltpFR	1	9	n/a	STOMACH	1384	5	n/a	n/a	n/a	n/a	n/a	n/a
3983006	RECOG_TARGET	n/a	LTP075	ltpFR	1	9	0	WRITER	1627	5	1	n/a	n/a	n/a	n/a	n/a
3983844	RECOG_RESP	n/a	LTP075	ltpFR	1	9	0	WRITER	1627	n/a	1	n/a	n/a	n/a	n/a	n/a
3984882	RECOG_CONF	n/a	LTP075	ltpFR	1	9	0	WRITER	1627	5	1	n/a	n/a	n/a	n/a	n/a
3986306	RECOG_TARGET	n/a	LTP075	ltpFR	1	9	0	CHEESE	289	5	0	n/a	n/a	n/a	n/a	n/a
3987336	RECOG_RESP	n/a	LTP075	ltpFR	1	9	0	CHEESE	289	n/a	0	n/a	n/a	n/a	n/a	n/a
3988394	RECOG_CONF	n/a	LTP075	ltpFR	1	9	0	CHEESE	289	5	0	n/a	n/a	n/a	n/a	n/a
3989814	RECOG_TARGET	n/a	LTP075	ltpFR	1	9	-1	ACTOR	5	4	-1	n/a	n/a	n/a	n/a	n/a
3990629	RECOG_RESP	n/a	LTP075	ltpFR	1	9	-1	ACTOR	5	n/a	-1	n/a	n/a	n/a	n/a	n/a
3991527	RECOG_CONF	n/a	LTP075	ltpFR	1	9	-1	ACTOR	5	4	-1	n/a	n/a	n/a	n/a	n/a
3992847	RECOG_TARGET	n/a	LTP075	ltpFR	1	9	0	GENTLEMAN	631	4	1	n/a	n/a	n/a	n/a	n/a
3993622	RECOG_RESP	n/a	LTP075	ltpFR	1	9	0	GENTLEMAN	631	n/a	1	n/a	n/a	n/a	n/a	n/a
