onset	duration	trial_type	sample	stim_file	subject	experiment	session	trial	item_name	item_num	list	answer	test_x	test_y	test_z
210.56982421875	n/a	SESS_START	431247	n/a	LTP361	ltpFR2	4	n/a	n/a	n/a	n/a	n/a	0	0	0
237.7099609375	n/a	START	486830	n/a	LTP361	ltpFR2	4	n/a	n/a	n/a	-1	n/a	n/a	n/a	n/a
237.7236328125	n/a	PROB	486858	n/a	LTP361	ltpFR2	4	n/a	n/a	n/a	-1	11	2	8	1
240.09765625	n/a	PROB	491720	n/a	LTP361	ltpFR2	4	n/a	n/a	n/a	-1	17	7	1	9
241.9365234375	n/a	PROB	495486	n/a	LTP361	ltpFR2	4	n/a	n/a	n/a	-1	9	2	5	2
243.40869140625	n/a	PROB	498501	n/a	LTP361	ltpFR2	4	n/a	n/a	n/a	-1	15	7	3	5
244.6298828125	n/a	PROB	501002	n/a	LTP361	ltpFR2	4	n/a	n/a	n/a	-1	15	8	3	4
246.11767578125	n/a	PROB	504049	n/a	LTP361	ltpFR2	4	n/a	n/a	n/a	-1	18	9	4	5
247.7724609375	n/a	PROB	507438	n/a	LTP361	ltpFR2	4	n/a	n/a	n/a	-1	15	3	5	7
249.45166015625	n/a	STOP	510877	n/a	LTP361	ltpFR2	4	n/a	n/a	n/a	-1	n/a	n/a	n/a	n/a
299.72314453125	n/a	DISTRACTOR	613833	n/a	LTP361	ltpFR2	4	1	n/a	n/a	n/a	n/a	0	0	0
299.72314453125	n/a	START	613833	n/a	LTP361	ltpFR2	4	n/a	n/a	n/a	1	n/a	n/a	n/a	n/a
299.7392578125	n/a	PROB	613866	n/a	LTP361	ltpFR2	4	n/a	n/a	n/a	1	17	7	3	7
301.9970703125	n/a	PROB	618490	n/a	LTP361	ltpFR2	4	n/a	n/a	n/a	1	20	9	7	4
304.40380859375	n/a	PROB	623419	n/a	LTP361	ltpFR2	4	n/a	n/a	n/a	1	18	9	4	5
305.64208984375	n/a	PROB	625955	n/a	LTP361	ltpFR2	4	n/a	n/a	n/a	1	10	2	2	6
307.27978515625	n/a	PROB	629309	n/a	LTP361	ltpFR2	4	n/a	n/a	n/a	1	12	5	6	3
309.23681640625	n/a	PROB	633317	n/a	LTP361	ltpFR2	4	n/a	n/a	n/a	1	20	4	7	9
311.259765625	n/a	PROB	637460	n/a	LTP361	ltpFR2	4	n/a	n/a	n/a	1	12	3	1	8
312.9658203125	n/a	PROB	640954	n/a	LTP361	ltpFR2	4	n/a	n/a	n/a	1	9	7	1	1
314.1689453125	n/a	PROB	643418	n/a	LTP361	ltpFR2	4	n/a	n/a	n/a	1	20	5	9	6
315.7236328125	n/a	PROB	646602	n/a	LTP361	ltpFR2	4	n/a	n/a	n/a	1	19	3	7	9
317.095703125	n/a	PROB	649412	n/a	LTP361	ltpFR2	4	n/a	n/a	n/a	1	15	5	3	7
318.650390625	n/a	PROB	652596	n/a	LTP361	ltpFR2	4	n/a	n/a	n/a	1	18	1	8	9
320.138671875	n/a	PROB	655644	n/a	LTP361	ltpFR2	4	n/a	n/a	n/a	1	9	1	5	3
321.32568359375	n/a	PROB	658075	n/a	LTP361	ltpFR2	4	n/a	n/a	n/a	1	7	2	3	2
322.49169921875	n/a	STOP	660463	n/a	LTP361	ltpFR2	4	n/a	n/a	n/a	1	n/a	n/a	n/a	n/a
324.8203125	n/a	WORD	665232	wordpools/wasnorm_wordpool_576.txt	LTP361	ltpFR2	4	1	KNIFE	785	n/a	n/a	0	0	0
327.42822265625	n/a	WORD	670573	wordpools/wasnorm_wordpool_576.txt	LTP361	ltpFR2	4	1	MESSAGE	888	n/a	n/a	0	0	0
330.00341796875	n/a	WORD	675847	wordpools/wasnorm_wordpool_576.txt	LTP361	ltpFR2	4	1	OZONE	996	n/a	n/a	0	0	0
332.79541015625	n/a	WORD	681565	wordpools/wasnorm_wordpool_576.txt	LTP361	ltpFR2	4	1	PEACH	1031	n/a	n/a	0	0	0
335.4541015625	n/a	WORD	687010	wordpools/wasnorm_wordpool_576.txt	LTP361	ltpFR2	4	1	PLIERS	1089	n/a	n/a	0	0	0
338.09619140625	n/a	WORD	692421	wordpools/wasnorm_wordpool_576.txt	LTP361	ltpFR2	4	1	CHAUFFEUR	283	n/a	n/a	0	0	0
340.87109375	n/a	WORD	698104	wordpools/wasnorm_wordpool_576.txt	LTP361	ltpFR2	4	1	CROWN	415	n/a	n/a	0	0	0
343.3798828125	n/a	WORD	703242	wordpools/wasnorm_wordpool_576.txt	LTP361	ltpFR2	4	1	RECEIPT	1173	n/a	n/a	0	0	0
346.087890625	n/a	WORD	708788	wordpools/wasnorm_wordpool_576.txt	LTP361	ltpFR2	4	1	COOKBOOK	373	n/a	n/a	0	0	0
348.57958984375	n/a	WORD	713891	wordpools/wasnorm_wordpool_576.txt	LTP361	ltpFR2	4	1	SNAKE	1333	n/a	n/a	0	0	0
351.1044921875	n/a	WORD	719062	wordpools/wasnorm_wordpool_576.txt	LTP361	ltpFR2	4	1	GYMNAST	675	n/a	n/a	0	0	0
353.595703125	n/a	WORD	724164	wordpools/wasnorm_wordpool_576.txt	LTP361	ltpFR2	4	1	MARROW	872	n/a	n/a	0	0	0
356.20458984375	n/a	WORD	729507	wordpools/wasnorm_wordpool_576.txt	LTP361	ltpFR2	4	1	MAPLE	866	n/a	n/a	0	0	0
359.013671875	n/a	WORD	735260	wordpools/wasnorm_wordpool_576.txt	LTP361	ltpFR2	4	1	SUMMIT	1405	n/a	n/a	0	0	0
361.78857421875	n/a	WORD	740943	wordpools/wasnorm_wordpool_576.txt	LTP361	ltpFR2	4	1	SLOPE	1328	n/a	n/a	0	0	0
364.2802734375	n/a	WORD	746046	wordpools/wasnorm_wordpool_576.txt	LTP361	ltpFR2	4	1	CRAYON	401	n/a	n/a	0	0	0
367.0390625	n/a	WORD	751696	wordpools/wasnorm_wordpool_576.txt	LTP361	ltpFR2	4	1	TREAT	1501	n/a	n/a	0	0	0
369.8310546875	n/a	WORD	757414	wordpools/wasnorm_wordpool_576.txt	LTP361	ltpFR2	4	1	SIBLING	1301	n/a	n/a	0	0	0
372.322265625	n/a	WORD	762516	wordpools/wasnorm_wordpool_576.txt	LTP361	ltpFR2	4	1	BROTHER	179	n/a	n/a	0	0	0
374.93115234375	n/a	WORD	767859	wordpools/wasnorm_wordpool_576.txt	LTP361	ltpFR2	4	1	MONSTER	912	n/a	n/a	0	0	0
377.623046875	n/a	WORD	773372	wordpools/wasnorm_wordpool_576.txt	LTP361	ltpFR2	4	1	LAVA	804	n/a	n/a	0	0	0
380.23193359375	n/a	WORD	778715	wordpools/wasnorm_wordpool_576.txt	LTP361	ltpFR2	4	1	GRILL	661	n/a	n/a	0	0	0
382.73974609375	n/a	WORD	783851	wordpools/wasnorm_wordpool_576.txt	LTP361	ltpFR2	4	1	MARKER	870	n/a	n/a	0	0	0
385.53173828125	n/a	WORD	789569	wordpools/wasnorm_wordpool_576.txt	LTP361	ltpFR2	4	1	PAPER	1011	n/a	n/a	0	0	0
387.13671875	n/a	START	792856	n/a	LTP361	ltpFR2	4	n/a	n/a	n/a	2	n/a	n/a	n/a	n/a
388.2568359375	n/a	DISTRACTOR	795150	n/a	LTP361	ltpFR2	4	1	n/a	n/a	n/a	n/a	0	0	0
388.2734375	n/a	PROB	795184	n/a	LTP361	ltpFR2	4	n/a	n/a	n/a	2	8	6	1	1
390.11376953125	n/a	PROB	798953	n/a	LTP361	ltpFR2	4	n/a	n/a	n/a	2	11	2	7	2
391.55078125	n/a	PROB	801896	n/a	LTP361	ltpFR2	4	n/a	n/a	n/a	2	24	9	6	9
393.189453125	n/a	PROB	805252	n/a	LTP361	ltpFR2	4	n/a	n/a	n/a	2	8	1	6	1
394.29345703125	n/a	PROB	807513	n/a	LTP361	ltpFR2	4	n/a	n/a	n/a	2	11	1	7	3
395.48046875	n/a	PROB	809944	n/a	LTP361	ltpFR2	4	n/a	n/a	n/a	2	17	7	8	2
396.91845703125	n/a	PROB	812889	n/a	LTP361	ltpFR2	4	n/a	n/a	n/a	2	13	4	5	4
399.025390625	n/a	PROB	817204	n/a	LTP361	ltpFR2	4	n/a	n/a	n/a	2	10	7	2	1
400.697265625	n/a	PROB	820628	n/a	LTP361	ltpFR2	4	n/a	n/a	n/a	2	15	5	2	8
402.2021484375	n/a	PROB	823710	n/a	LTP361	ltpFR2	4	n/a	n/a	n/a	2	7	2	3	2
403.35546875	n/a	PROB	826072	n/a	LTP361	ltpFR2	4	n/a	n/a	n/a	2	16	2	7	7
404.89404296875	n/a	PROB	829223	n/a	LTP361	ltpFR2	4	n/a	n/a	n/a	2	13	4	7	2
406.44921875	n/a	PROB	832408	n/a	LTP361	ltpFR2	4	n/a	n/a	n/a	2	16	7	5	4
408.421875	n/a	PROB	836448	n/a	LTP361	ltpFR2	4	n/a	n/a	n/a	2	10	2	7	1
410.03515625	n/a	STOP	839752	n/a	LTP361	ltpFR2	4	n/a	n/a	n/a	2	n/a	n/a	n/a	n/a
412.919921875	n/a	REC_START	845660	n/a	LTP361	ltpFR2	4	1	n/a	n/a	n/a	n/a	0	0	0
413.6748046875	n/a	REC_WORD	847206	wordpools/wasnorm_wordpool_576.txt	LTP361	ltpFR2	4	1	SIBLING	1301	n/a	n/a	0	0	0
414.60107421875	n/a	REC_WORD	849103	wordpools/wasnorm_wordpool_576.txt	LTP361	ltpFR2	4	1	BROTHER	179	n/a	n/a	0	0	0
415.57275390625	n/a	REC_WORD	851093	wordpools/wasnorm_wordpool_576.txt	LTP361	ltpFR2	4	1	PAPER	1011	n/a	n/a	0	0	0
416.31298828125	n/a	REC_WORD	852609	wordpools/wasnorm_wordpool_576.txt	LTP361	ltpFR2	4	1	SUMMIT	1405	n/a	n/a	0	0	0
417.35107421875	n/a	REC_WORD	854735	wordpools/wasnorm_wordpool_576.txt	LTP361	ltpFR2	4	1	SLOPE	1328	n/a	n/a	0	0	0
418.28173828125	n/a	REC_WORD	856641	wordpools/wasnorm_wordpool_576.txt	LTP361	ltpFR2	4	1	LAVA	804	n/a	n/a	0	0	0
419.11572265625	n/a	REC_WORD	858349	wordpools/wasnorm_wordpool_576.txt	LTP361	ltpFR2	4	1	GRILL	661	n/a	n/a	0	0	0
420.2109375	n/a	REC_WORD	860592	wordpools/wasnorm_wordpool_576.txt	LTP361	ltpFR2	4	1	CRAYON	401	n/a	n/a	0	0	0
421.14453125	n/a	REC_WORD	862504	wordpools/wasnorm_wordpool_576.txt	LTP361	ltpFR2	4	1	MARKER	870	n/a	n/a	0	0	0
422.15478515625	n/a	REC_WORD	864573	wordpools/wasnorm_wordpool_576.txt	LTP361	ltpFR2	4	1	CHAUFFEUR	283	n/a	n/a	0	0	0
423.4375	n/a	REC_WORD	867200	wordpools/wasnorm_wordpool_576.txt	LTP361	ltpFR2	4	1	CROWN	415	n/a	n/a	0	0	0
445.22314453125	n/a	REC_WORD	911817	wordpools/wasnorm_wordpool_576.txt	LTP361	ltpFR2	4	1	PLIERS	1089	n/a	n/a	0	0	0
446.10205078125	n/a	REC_WORD	913617	wordpools/wasnorm_wordpool_576.txt	LTP361	ltpFR2	4	1	COOKBOOK	373	n/a	n/a	0	0	0
448.16796875	n/a	REC_WORD	917848	wordpools/wasnorm_wordpool_576.txt	LTP361	ltpFR2	4	1	PEACH	1031	n/a	n/a	0	0	0
451.06103515625	n/a	REC_WORD	923773	wordpools/wasnorm_wordpool_576.txt	LTP361	ltpFR2	4	1	PEACH	1031	n/a	n/a	0	0	0
503.37646484375	n/a	WORD	1030915	wordpools/wasnorm_wordpool_576.txt	LTP361	ltpFR2	4	2	COTTAGE	384	n/a	n/a	0	0	0
506.03564453125	n/a	WORD	1036361	wordpools/wasnorm_wordpool_576.txt	LTP361	ltpFR2	4	2	FRANCE	601	n/a	n/a	0	0	0
508.59326171875	n/a	WORD	1041599	wordpools/wasnorm_wordpool_576.txt	LTP361	ltpFR2	4	2	GANGSTER	620	n/a	n/a	0	0	0
511.2021484375	n/a	WORD	1046942	wordpools/wasnorm_wordpool_576.txt	LTP361	ltpFR2	4	2	HARP	689	n/a	n/a	0	0	0
513.96142578125	n/a	WORD	1052593	wordpools/wasnorm_wordpool_576.txt	LTP361	ltpFR2	4	2	PLATE	1086	n/a	n/a	0	0	0
516.4521484375	n/a	WORD	1057694	wordpools/wasnorm_wordpool_576.txt	LTP361	ltpFR2	4	2	COMPASS	358	n/a	n/a	0	0	0
519.0771484375	n/a	WORD	1063070	wordpools/wasnorm_wordpool_576.txt	LTP361	ltpFR2	4	2	RATTLE	1170	n/a	n/a	0	0	0
521.619140625	n/a	WORD	1068276	wordpools/wasnorm_wordpool_576.txt	LTP361	ltpFR2	4	2	FIREMAN	569	n/a	n/a	0	0	0
524.16015625	n/a	WORD	1073480	wordpools/wasnorm_wordpool_576.txt	LTP361	ltpFR2	4	2	DRILL	497	n/a	n/a	0	0	0
526.60205078125	n/a	WORD	1078481	wordpools/wasnorm_wordpool_576.txt	LTP361	ltpFR2	4	2	BLOUSE	139	n/a	n/a	0	0	0
529.142578125	n/a	WORD	1083684	wordpools/wasnorm_wordpool_576.txt	LTP361	ltpFR2	4	2	LACE	792	n/a	n/a	0	0	0
531.6845703125	n/a	WORD	1088890	wordpools/wasnorm_wordpool_576.txt	LTP361	ltpFR2	4	2	DOUGHNUT	490	n/a	n/a	0	0	0
534.15869140625	n/a	WORD	1093957	wordpools/wasnorm_wordpool_576.txt	LTP361	ltpFR2	4	2	DORM	488	n/a	n/a	0	0	0
536.91748046875	n/a	WORD	1099607	wordpools/wasnorm_wordpool_576.txt	LTP361	ltpFR2	4	2	JAPAN	749	n/a	n/a	0	0	0
539.54345703125	n/a	WORD	1104985	wordpools/wasnorm_wordpool_576.txt	LTP361	ltpFR2	4	2	BULLET	194	n/a	n/a	0	0	0
542.2685546875	n/a	WORD	1110566	wordpools/wasnorm_wordpool_576.txt	LTP361	ltpFR2	4	2	SHARK	1275	n/a	n/a	0	0	0
544.6923828125	n/a	WORD	1115530	wordpools/wasnorm_wordpool_576.txt	LTP361	ltpFR2	4	2	EUROPE	541	n/a	n/a	0	0	0
547.21728515625	n/a	WORD	1120701	wordpools/wasnorm_wordpool_576.txt	LTP361	ltpFR2	4	2	CHAPEL	280	n/a	n/a	0	0	0
549.6923828125	n/a	WORD	1125770	wordpools/wasnorm_wordpool_576.txt	LTP361	ltpFR2	4	2	STONE	1385	n/a	n/a	0	0	0
552.25	n/a	WORD	1131008	wordpools/wasnorm_wordpool_576.txt	LTP361	ltpFR2	4	2	LUGGAGE	847	n/a	n/a	0	0	0
554.958984375	n/a	WORD	1136556	wordpools/wasnorm_wordpool_576.txt	LTP361	ltpFR2	4	2	CONTRACT	368	n/a	n/a	0	0	0
557.39990234375	n/a	WORD	1141555	wordpools/wasnorm_wordpool_576.txt	LTP361	ltpFR2	4	2	JUNGLE	764	n/a	n/a	0	0	0
560.17578125	n/a	WORD	1147240	wordpools/wasnorm_wordpool_576.txt	LTP361	ltpFR2	4	2	FLEET	578	n/a	n/a	0	0	0
562.833984375	n/a	WORD	1152684	wordpools/wasnorm_wordpool_576.txt	LTP361	ltpFR2	4	2	COLONEL	348	n/a	n/a	0	0	0
564.43994140625	n/a	START	1155973	n/a	LTP361	ltpFR2	4	n/a	n/a	n/a	3	n/a	n/a	n/a	n/a
565.32470703125	n/a	DISTRACTOR	1157785	n/a	LTP361	ltpFR2	4	2	n/a	n/a	n/a	n/a	0	0	0
565.32568359375	n/a	PROB	1157787	n/a	LTP361	ltpFR2	4	n/a	n/a	n/a	3	19	8	9	2
567.06494140625	n/a	PROB	1161349	n/a	LTP361	ltpFR2	4	n/a	n/a	n/a	3	10	6	2	2
568.669921875	n/a	PROB	1164636	n/a	LTP361	ltpFR2	4	n/a	n/a	n/a	3	7	2	4	1
570.49267578125	n/a	PROB	1168369	n/a	LTP361	ltpFR2	4	n/a	n/a	n/a	3	17	5	9	3
572.09765625	n/a	PROB	1171656	n/a	LTP361	ltpFR2	4	n/a	n/a	n/a	3	18	6	8	4
573.76953125	n/a	PROB	1175080	n/a	LTP361	ltpFR2	4	n/a	n/a	n/a	3	17	7	5	5
576.6455078125	n/a	PROB	1180970	n/a	LTP361	ltpFR2	4	n/a	n/a	n/a	3	7	1	2	4
578.033203125	n/a	PROB	1183812	n/a	LTP361	ltpFR2	4	n/a	n/a	n/a	3	21	9	3	8
579.88916015625	n/a	PROB	1187613	n/a	LTP361	ltpFR2	4	n/a	n/a	n/a	3	17	8	3	6
583.50146484375	n/a	PROB	1195011	n/a	LTP361	ltpFR2	4	n/a	n/a	n/a	3	27	9	9	8
588.43896484375	n/a	STOP	1205123	n/a	LTP361	ltpFR2	4	n/a	n/a	n/a	3	n/a	n/a	n/a	n/a
590.1728515625	n/a	REC_START	1208674	n/a	LTP361	ltpFR2	4	2	n/a	n/a	n/a	n/a	0	0	0
593.14892578125	n/a	REC_WORD	1214769	wordpools/wasnorm_wordpool_576.txt	LTP361	ltpFR2	4	2	COTTAGE	384	n/a	n/a	0	0	0
594.3310546875	n/a	REC_WORD	1217190	wordpools/wasnorm_wordpool_576.txt	LTP361	ltpFR2	4	2	GANGSTER	620	n/a	n/a	0	0	0
595.6689453125	n/a	REC_WORD	1219930	wordpools/wasnorm_wordpool_576.txt	LTP361	ltpFR2	4	2	PISTOL	1075	n/a	n/a	0	0	0
596.72412109375	n/a	REC_WORD	1222091	wordpools/wasnorm_wordpool_576.txt	LTP361	ltpFR2	4	2	BULLET	194	n/a	n/a	0	0	0
598.57275390625	n/a	REC_WORD	1225877	wordpools/wasnorm_wordpool_576.txt	LTP361	ltpFR2	4	2	PLATE	1086	n/a	n/a	0	0	0
599.6416015625	n/a	REC_WORD	1228066	wordpools/wasnorm_wordpool_576.txt	LTP361	ltpFR2	4	2	COMPASS	358	n/a	n/a	0	0	0
602.15771484375	n/a	REC_WORD	1233219	wordpools/wasnorm_wordpool_576.txt	LTP361	ltpFR2	4	2	FIREMAN	569	n/a	n/a	0	0	0
603.33349609375	n/a	REC_WORD	1235627	wordpools/wasnorm_wordpool_576.txt	LTP361	ltpFR2	4	2	RATTLE	1170	n/a	n/a	0	0	0
604.3876953125	n/a	REC_WORD	1237786	wordpools/wasnorm_wordpool_576.txt	LTP361	ltpFR2	4	2	HARP	689	n/a	n/a	0	0	0
605.3896484375	n/a	REC_WORD	1239838	wordpools/wasnorm_wordpool_576.txt	LTP361	ltpFR2	4	2	BLOUSE	139	n/a	n/a	0	0	0
606.29052734375	n/a	REC_WORD	1241683	wordpools/wasnorm_wordpool_576.txt	LTP361	ltpFR2	4	2	LACE	792	n/a	n/a	0	0	0
612.28466796875	n/a	REC_WORD	1253959	wordpools/wasnorm_wordpool_576.txt	LTP361	ltpFR2	4	2	FOREST	593	n/a	n/a	0	0	0
619.04150390625	n/a	REC_WORD	1267797	wordpools/wasnorm_wordpool_576.txt	LTP361	ltpFR2	4	2	FLEET	578	n/a	n/a	0	0	0
619.861328125	n/a	REC_WORD	1269476	wordpools/wasnorm_wordpool_576.txt	LTP361	ltpFR2	4	2	COLONEL	348	n/a	n/a	0	0	0
628.240234375	n/a	REC_WORD	1286636	wordpools/wasnorm_wordpool_576.txt	LTP361	ltpFR2	4	2	EUROPE	541	n/a	n/a	0	0	0
629.0380859375	n/a	REC_WORD	1288270	wordpools/wasnorm_wordpool_576.txt	LTP361	ltpFR2	4	2	JAPAN	749	n/a	n/a	0	0	0
641.49658203125	n/a	REC_WORD	1313785	wordpools/wasnorm_wordpool_576.txt	LTP361	ltpFR2	4	2	CONTRACT	368	n/a	n/a	0	0	0
642.47265625	n/a	REC_WORD	1315784	wordpools/wasnorm_wordpool_576.txt	LTP361	ltpFR2	4	2	CHAPEL	280	n/a	n/a	0	0	0
643.216796875	n/a	REC_WORD	1317308	wordpools/wasnorm_wordpool_576.txt	LTP361	ltpFR2	4	2	STONE	1385	n/a	n/a	0	0	0
644.6455078125	n/a	REC_WORD	1320234	wordpools/wasnorm_wordpool_576.txt	LTP361	ltpFR2	4	2	LUGGAGE	847	n/a	n/a	0	0	0
680.62939453125	n/a	WORD	1393929	wordpools/wasnorm_wordpool_576.txt	LTP361	ltpFR2	4	3	SHOVEL	1295	n/a	n/a	0	0	0
683.154296875	n/a	WORD	1399100	wordpools/wasnorm_wordpool_576.txt	LTP361	ltpFR2	4	3	DIME	466	n/a	n/a	0	0	0
685.779296875	n/a	WORD	1404476	wordpools/wasnorm_wordpool_576.txt	LTP361	ltpFR2	4	3	LILY	821	n/a	n/a	0	0	0
688.45458984375	n/a	WORD	1409955	wordpools/wasnorm_wordpool_576.txt	LTP361	ltpFR2	4	3	CREATURE	403	n/a	n/a	0	0	0
690.96240234375	n/a	WORD	1415091	wordpools/wasnorm_wordpool_576.txt	LTP361	ltpFR2	4	3	LIZARD	834	n/a	n/a	0	0	0
693.43701171875	n/a	WORD	1420159	wordpools/wasnorm_wordpool_576.txt	LTP361	ltpFR2	4	3	SNACK	1331	n/a	n/a	0	0	0
695.97900390625	n/a	WORD	1425365	wordpools/wasnorm_wordpool_576.txt	LTP361	ltpFR2	4	3	BANQUET	86	n/a	n/a	0	0	0
698.62109375	n/a	WORD	1430776	wordpools/wasnorm_wordpool_576.txt	LTP361	ltpFR2	4	3	DASHBOARD	441	n/a	n/a	0	0	0
701.078125	n/a	WORD	1435808	wordpools/wasnorm_wordpool_576.txt	LTP361	ltpFR2	4	3	HAND	683	n/a	n/a	0	0	0
703.82080078125	n/a	WORD	1441425	wordpools/wasnorm_wordpool_576.txt	LTP361	ltpFR2	4	3	ROBIN	1199	n/a	n/a	0	0	0
706.4130859375	n/a	WORD	1446734	wordpools/wasnorm_wordpool_576.txt	LTP361	ltpFR2	4	3	GUARD	667	n/a	n/a	0	0	0
708.9208984375	n/a	WORD	1451870	wordpools/wasnorm_wordpool_576.txt	LTP361	ltpFR2	4	3	GRIZZLY	662	n/a	n/a	0	0	0
711.51171875	n/a	WORD	1457176	wordpools/wasnorm_wordpool_576.txt	LTP361	ltpFR2	4	3	BRANCH	168	n/a	n/a	0	0	0
714.12060546875	n/a	WORD	1462519	wordpools/wasnorm_wordpool_576.txt	LTP361	ltpFR2	4	3	BLENDER	136	n/a	n/a	0	0	0
716.8955078125	n/a	WORD	1468202	wordpools/wasnorm_wordpool_576.txt	LTP361	ltpFR2	4	3	BACON	67	n/a	n/a	0	0	0
719.521484375	n/a	WORD	1473580	wordpools/wasnorm_wordpool_576.txt	LTP361	ltpFR2	4	3	MARINE	869	n/a	n/a	0	0	0
722.16259765625	n/a	WORD	1478989	wordpools/wasnorm_wordpool_576.txt	LTP361	ltpFR2	4	3	QUEEN	1149	n/a	n/a	0	0	0
724.92138671875	n/a	WORD	1484639	wordpools/wasnorm_wordpool_576.txt	LTP361	ltpFR2	4	3	PRINCESS	1125	n/a	n/a	0	0	0
727.5634765625	n/a	WORD	1490050	wordpools/wasnorm_wordpool_576.txt	LTP361	ltpFR2	4	3	PEDAL	1037	n/a	n/a	0	0	0
730.22216796875	n/a	WORD	1495495	wordpools/wasnorm_wordpool_576.txt	LTP361	ltpFR2	4	3	PLAYGROUND	1087	n/a	n/a	0	0	0
732.88037109375	n/a	WORD	1500939	wordpools/wasnorm_wordpool_576.txt	LTP361	ltpFR2	4	3	RACKET	1155	n/a	n/a	0	0	0
735.60595703125	n/a	WORD	1506521	wordpools/wasnorm_wordpool_576.txt	LTP361	ltpFR2	4	3	PATROL	1027	n/a	n/a	0	0	0
738.130859375	n/a	WORD	1511692	wordpools/wasnorm_wordpool_576.txt	LTP361	ltpFR2	4	3	BALLOON	75	n/a	n/a	0	0	0
740.72314453125	n/a	WORD	1517001	wordpools/wasnorm_wordpool_576.txt	LTP361	ltpFR2	4	3	FINGER	567	n/a	n/a	0	0	0
742.328125	n/a	START	1520288	n/a	LTP361	ltpFR2	4	n/a	n/a	n/a	4	n/a	n/a	n/a	n/a
743.498046875	n/a	DISTRACTOR	1522684	n/a	LTP361	ltpFR2	4	3	n/a	n/a	n/a	n/a	0	0	0
743.5146484375	n/a	PROB	1522718	n/a	LTP361	ltpFR2	4	n/a	n/a	n/a	4	7	2	2	3
745.48779296875	n/a	PROB	1526759	n/a	LTP361	ltpFR2	4	n/a	n/a	n/a	4	18	6	5	7
747.376953125	n/a	PROB	1530628	n/a	LTP361	ltpFR2	4	n/a	n/a	n/a	4	22	8	7	7
749.16650390625	n/a	PROB	1534293	n/a	LTP361	ltpFR2	4	n/a	n/a	n/a	4	19	8	7	4
751.28955078125	n/a	PROB	1538641	n/a	LTP361	ltpFR2	4	n/a	n/a	n/a	4	22	9	8	5
753.58056640625	n/a	PROB	1543333	n/a	LTP361	ltpFR2	4	n/a	n/a	n/a	4	11	7	1	3
754.96875	n/a	PROB	1546176	n/a	LTP361	ltpFR2	4	n/a	n/a	n/a	4	15	7	7	1
756.22265625	n/a	PROB	1548744	n/a	LTP361	ltpFR2	4	n/a	n/a	n/a	4	17	8	6	3
758.16162109375	n/a	PROB	1552715	n/a	LTP361	ltpFR2	4	n/a	n/a	n/a	4	12	6	5	1
759.7001953125	n/a	PROB	1555866	n/a	LTP361	ltpFR2	4	n/a	n/a	n/a	4	16	7	6	3
761.30517578125	n/a	PROB	1559153	n/a	LTP361	ltpFR2	4	n/a	n/a	n/a	4	14	3	8	3
762.76025390625	n/a	PROB	1562133	n/a	LTP361	ltpFR2	4	n/a	n/a	n/a	4	14	2	7	5
764.4482421875	n/a	PROB	1565590	n/a	LTP361	ltpFR2	4	n/a	n/a	n/a	4	19	2	8	9
766.04443359375	n/a	STOP	1568859	n/a	LTP361	ltpFR2	4	n/a	n/a	n/a	4	n/a	n/a	n/a	n/a
768.26123046875	n/a	REC_START	1573399	n/a	LTP361	ltpFR2	4	3	n/a	n/a	n/a	n/a	0	0	0
770.17333984375	n/a	REC_WORD	1577315	wordpools/wasnorm_wordpool_576.txt	LTP361	ltpFR2	4	3	LILY	821	n/a	n/a	0	0	0
771.05517578125	n/a	REC_WORD	1579121	wordpools/wasnorm_wordpool_576.txt	LTP361	ltpFR2	4	3	SHOVEL	1295	n/a	n/a	0	0	0
772.171875	n/a	REC_WORD	1581408	wordpools/wasnorm_wordpool_576.txt	LTP361	ltpFR2	4	3	DIME	466	n/a	n/a	0	0	0
774.01513671875	n/a	REC_WORD	1585183	wordpools/wasnorm_wordpool_576.txt	LTP361	ltpFR2	4	3	DASHBOARD	441	n/a	n/a	0	0	0
774.953125	n/a	REC_WORD	1587104	wordpools/wasnorm_wordpool_576.txt	LTP361	ltpFR2	4	3	HAND	683	n/a	n/a	0	0	0
775.76513671875	n/a	REC_WORD	1588767	wordpools/wasnorm_wordpool_576.txt	LTP361	ltpFR2	4	3	ROBIN	1199	n/a	n/a	0	0	0
777.23193359375	n/a	REC_WORD	1591771	wordpools/wasnorm_wordpool_576.txt	LTP361	ltpFR2	4	3	BANQUET	86	n/a	n/a	0	0	0
778.0478515625	n/a	REC_WORD	1593442	wordpools/wasnorm_wordpool_576.txt	LTP361	ltpFR2	4	3	GUARD	667	n/a	n/a	0	0	0
778.86669921875	n/a	REC_WORD	1595119	wordpools/wasnorm_wordpool_576.txt	LTP361	ltpFR2	4	3	GRIZZLY	662	n/a	n/a	0	0	0
779.6826171875	n/a	REC_WORD	1596790	wordpools/wasnorm_wordpool_576.txt	LTP361	ltpFR2	4	3	PRINCESS	1125	n/a	n/a	0	0	0
780.5439453125	n/a	REC_WORD	1598554	wordpools/wasnorm_wordpool_576.txt	LTP361	ltpFR2	4	3	QUEEN	1149	n/a	n/a	0	0	0
781.40869140625	n/a	REC_WORD	1600325	wordpools/wasnorm_wordpool_576.txt	LTP361	ltpFR2	4	3	MARINE	869	n/a	n/a	0	0	0
782.7216796875	n/a	REC_WORD	1603014	wordpools/wasnorm_wordpool_576.txt	LTP361	ltpFR2	4	3	PEDAL	1037	n/a	n/a	0	0	0
783.56591796875	n/a	REC_WORD	1604743	wordpools/wasnorm_wordpool_576.txt	LTP361	ltpFR2	4	3	PLAYGROUND	1087	n/a	n/a	0	0	0
787.630859375	n/a	REC_WORD	1613068	wordpools/wasnorm_wordpool_576.txt	LTP361	ltpFR2	4	3	CREATURE	403	n/a	n/a	0	0	0
788.41845703125	n/a	REC_WORD	1614681	wordpools/wasnorm_wordpool_576.txt	LTP361	ltpFR2	4	3	LIZARD	834	n/a	n/a	0	0	0
793.57568359375	n/a	REC_WORD	1625243	wordpools/wasnorm_wordpool_576.txt	LTP361	ltpFR2	4	3	BLENDER	136	n/a	n/a	0	0	0
794.474609375	n/a	REC_WORD	1627084	wordpools/wasnorm_wordpool_576.txt	LTP361	ltpFR2	4	3	BRANCH	168	n/a	n/a	0	0	0
795.92138671875	n/a	REC_WORD	1630047	wordpools/wasnorm_wordpool_576.txt	LTP361	ltpFR2	4	3	BACON	67	n/a	n/a	0	0	0
858.70166015625	n/a	DISTRACTOR	1758621	n/a	LTP361	ltpFR2	4	4	n/a	n/a	n/a	n/a	0	0	0
858.70166015625	n/a	START	1758621	n/a	LTP361	ltpFR2	4	n/a	n/a	n/a	5	n/a	n/a	n/a	n/a
858.71875	n/a	PROB	1758656	n/a	LTP361	ltpFR2	4	n/a	n/a	n/a	5	13	4	5	4
860.7744140625	n/a	PROB	1762866	n/a	LTP361	ltpFR2	4	n/a	n/a	n/a	5	18	5	5	8
862.04541015625	n/a	PROB	1765469	n/a	LTP361	ltpFR2	4	n/a	n/a	n/a	5	18	5	6	7
863.50048828125	n/a	PROB	1768449	n/a	LTP361	ltpFR2	4	n/a	n/a	n/a	5	5	2	2	1
864.9384765625	n/a	PROB	1771394	n/a	LTP361	ltpFR2	4	n/a	n/a	n/a	5	22	9	4	9
867.96435546875	n/a	PROB	1777591	n/a	LTP361	ltpFR2	4	n/a	n/a	n/a	5	9	5	2	2
869.369140625	n/a	PROB	1780468	n/a	LTP361	ltpFR2	4	n/a	n/a	n/a	5	14	9	3	2
871.45947265625	n/a	PROB	1784749	n/a	LTP361	ltpFR2	4	n/a	n/a	n/a	5	14	7	5	2
873.8671875	n/a	PROB	1789680	n/a	LTP361	ltpFR2	4	n/a	n/a	n/a	5	22	7	7	8
875.42236328125	n/a	PROB	1792865	n/a	LTP361	ltpFR2	4	n/a	n/a	n/a	5	16	5	4	7
877.2783203125	n/a	PROB	1796666	n/a	LTP361	ltpFR2	4	n/a	n/a	n/a	5	15	1	9	5
878.54833984375	n/a	PROB	1799267	n/a	LTP361	ltpFR2	4	n/a	n/a	n/a	5	24	9	7	8
880.72216796875	n/a	PROB	1803719	n/a	LTP361	ltpFR2	4	n/a	n/a	n/a	5	18	8	1	9
882.412109375	n/a	STOP	1807180	n/a	LTP361	ltpFR2	4	n/a	n/a	n/a	5	n/a	n/a	n/a	n/a
883.89892578125	n/a	WORD	1810225	wordpools/wasnorm_wordpool_576.txt	LTP361	ltpFR2	4	4	BABY	64	n/a	n/a	0	0	0
886.47412109375	n/a	WORD	1815499	wordpools/wasnorm_wordpool_576.txt	LTP361	ltpFR2	4	4	PATIENT	1024	n/a	n/a	0	0	0
889.11572265625	n/a	WORD	1820909	wordpools/wasnorm_wordpool_576.txt	LTP361	ltpFR2	4	4	HEADBAND	696	n/a	n/a	0	0	0
891.8408203125	n/a	WORD	1826490	wordpools/wasnorm_wordpool_576.txt	LTP361	ltpFR2	4	4	BODY	145	n/a	n/a	0	0	0
894.31591796875	n/a	WORD	1831559	wordpools/wasnorm_wordpool_576.txt	LTP361	ltpFR2	4	4	CHAMPAGNE	278	n/a	n/a	0	0	0
896.90771484375	n/a	WORD	1836867	wordpools/wasnorm_wordpool_576.txt	LTP361	ltpFR2	4	4	GOBLIN	645	n/a	n/a	0	0	0
899.71630859375	n/a	WORD	1842619	wordpools/wasnorm_wordpool_576.txt	LTP361	ltpFR2	4	4	ULCER	1533	n/a	n/a	0	0	0
902.45849609375	n/a	WORD	1848235	wordpools/wasnorm_wordpool_576.txt	LTP361	ltpFR2	4	4	HERO	706	n/a	n/a	0	0	0
905.2001953125	n/a	WORD	1853850	wordpools/wasnorm_wordpool_576.txt	LTP361	ltpFR2	4	4	DINER	467	n/a	n/a	0	0	0
907.87646484375	n/a	WORD	1859331	wordpools/wasnorm_wordpool_576.txt	LTP361	ltpFR2	4	4	WAITER	1580	n/a	n/a	0	0	0
910.30029296875	n/a	WORD	1864295	wordpools/wasnorm_wordpool_576.txt	LTP361	ltpFR2	4	4	AWARD	63	n/a	n/a	0	0	0
913.00927734375	n/a	WORD	1869843	wordpools/wasnorm_wordpool_576.txt	LTP361	ltpFR2	4	4	LASER	801	n/a	n/a	0	0	0
915.60107421875	n/a	WORD	1875151	wordpools/wasnorm_wordpool_576.txt	LTP361	ltpFR2	4	4	THREAD	1460	n/a	n/a	0	0	0
918.1259765625	n/a	WORD	1880322	wordpools/wasnorm_wordpool_576.txt	LTP361	ltpFR2	4	4	FRIAR	605	n/a	n/a	0	0	0
920.73388671875	n/a	WORD	1885663	wordpools/wasnorm_wordpool_576.txt	LTP361	ltpFR2	4	4	DRINK	498	n/a	n/a	0	0	0
923.27587890625	n/a	WORD	1890869	wordpools/wasnorm_wordpool_576.txt	LTP361	ltpFR2	4	4	PASSAGE	1019	n/a	n/a	0	0	0
926.0009765625	n/a	WORD	1896450	wordpools/wasnorm_wordpool_576.txt	LTP361	ltpFR2	4	4	ELBOW	520	n/a	n/a	0	0	0
928.60986328125	n/a	WORD	1901793	wordpools/wasnorm_wordpool_576.txt	LTP361	ltpFR2	4	4	REPORT	1184	n/a	n/a	0	0	0
931.20068359375	n/a	WORD	1907099	wordpools/wasnorm_wordpool_576.txt	LTP361	ltpFR2	4	4	PERCH	1048	n/a	n/a	0	0	0
933.87646484375	n/a	WORD	1912579	wordpools/wasnorm_wordpool_576.txt	LTP361	ltpFR2	4	4	EMPIRE	530	n/a	n/a	0	0	0
936.3173828125	n/a	WORD	1917578	wordpools/wasnorm_wordpool_576.txt	LTP361	ltpFR2	4	4	SHIRT	1287	n/a	n/a	0	0	0
938.775390625	n/a	WORD	1922612	wordpools/wasnorm_wordpool_576.txt	LTP361	ltpFR2	4	4	CROSS	413	n/a	n/a	0	0	0
941.4501953125	n/a	WORD	1928090	wordpools/wasnorm_wordpool_576.txt	LTP361	ltpFR2	4	4	AIRPORT	13	n/a	n/a	0	0	0
944.04248046875	n/a	WORD	1933399	wordpools/wasnorm_wordpool_576.txt	LTP361	ltpFR2	4	4	PILOT	1070	n/a	n/a	0	0	0
945.6474609375	n/a	START	1936686	n/a	LTP361	ltpFR2	4	n/a	n/a	n/a	6	n/a	n/a	n/a	n/a
946.6630859375	n/a	DISTRACTOR	1938766	n/a	LTP361	ltpFR2	4	4	n/a	n/a	n/a	n/a	0	0	0
946.66748046875	n/a	PROB	1938775	n/a	LTP361	ltpFR2	4	n/a	n/a	n/a	6	12	8	1	3
949.05810546875	n/a	PROB	1943671	n/a	LTP361	ltpFR2	4	n/a	n/a	n/a	6	18	9	2	7
951.04833984375	n/a	PROB	1947747	n/a	LTP361	ltpFR2	4	n/a	n/a	n/a	6	14	5	3	4
953.1708984375	n/a	PROB	1952094	n/a	LTP361	ltpFR2	4	n/a	n/a	n/a	6	6	1	1	4
955.01123046875	n/a	PROB	1955863	n/a	LTP361	ltpFR2	4	n/a	n/a	n/a	6	17	4	9	4
956.7158203125	n/a	PROB	1959354	n/a	LTP361	ltpFR2	4	n/a	n/a	n/a	6	10	2	4	4
958.0869140625	n/a	PROB	1962162	n/a	LTP361	ltpFR2	4	n/a	n/a	n/a	6	14	3	7	4
959.49169921875	n/a	PROB	1965039	n/a	LTP361	ltpFR2	4	n/a	n/a	n/a	6	16	5	6	5
961.14697265625	n/a	PROB	1968429	n/a	LTP361	ltpFR2	4	n/a	n/a	n/a	6	13	3	4	6
962.6015625	n/a	PROB	1971408	n/a	LTP361	ltpFR2	4	n/a	n/a	n/a	6	19	3	9	7
964.49072265625	n/a	PROB	1975277	n/a	LTP361	ltpFR2	4	n/a	n/a	n/a	6	17	3	8	6
966.71484375	n/a	PROB	1979832	n/a	LTP361	ltpFR2	4	n/a	n/a	n/a	6	8	3	3	2
969.62841796875	n/a	STOP	1985799	n/a	LTP361	ltpFR2	4	n/a	n/a	n/a	6	n/a	n/a	n/a	n/a
971.46435546875	n/a	REC_START	1989559	n/a	LTP361	ltpFR2	4	4	n/a	n/a	n/a	n/a	0	0	0
973.54443359375	n/a	REC_WORD	1993819	wordpools/wasnorm_wordpool_576.txt	LTP361	ltpFR2	4	4	BABY	64	n/a	n/a	0	0	0
974.470703125	n/a	REC_WORD	1995716	wordpools/wasnorm_wordpool_576.txt	LTP361	ltpFR2	4	4	PATIENT	1024	n/a	n/a	0	0	0
975.1865234375	n/a	REC_WORD	1997182	wordpools/wasnorm_wordpool_576.txt	LTP361	ltpFR2	4	4	HEADBAND	696	n/a	n/a	0	0	0
976.0986328125	n/a	REC_WORD	1999050	wordpools/wasnorm_wordpool_576.txt	LTP361	ltpFR2	4	4	GOBLIN	645	n/a	n/a	0	0	0
977.37548828125	n/a	REC_WORD	2001665	wordpools/wasnorm_wordpool_576.txt	LTP361	ltpFR2	4	4	AWARD	63	n/a	n/a	0	0	0
979.68310546875	n/a	REC_WORD	2006391	wordpools/wasnorm_wordpool_576.txt	LTP361	ltpFR2	4	4	LASER	801	n/a	n/a	0	0	0
980.55810546875	n/a	REC_WORD	2008183	wordpools/wasnorm_wordpool_576.txt	LTP361	ltpFR2	4	4	WAITER	1580	n/a	n/a	0	0	0
981.80029296875	n/a	REC_WORD	2010727	wordpools/wasnorm_wordpool_576.txt	LTP361	ltpFR2	4	4	THREAD	1460	n/a	n/a	0	0	0
982.6640625	n/a	REC_WORD	2012496	wordpools/wasnorm_wordpool_576.txt	LTP361	ltpFR2	4	4	FRIAR	605	n/a	n/a	0	0	0
984.373046875	n/a	REC_WORD	2015996	wordpools/wasnorm_wordpool_576.txt	LTP361	ltpFR2	4	4	ELBOW	520	n/a	n/a	0	0	0
986.0693359375	n/a	REC_WORD	2019470	wordpools/wasnorm_wordpool_576.txt	LTP361	ltpFR2	4	4	REPORT	1184	n/a	n/a	0	0	0
987.1611328125	n/a	REC_WORD	2021706	wordpools/wasnorm_wordpool_576.txt	LTP361	ltpFR2	4	4	PERCH	1048	n/a	n/a	0	0	0
992.34619140625	n/a	REC_WORD	2032325	wordpools/wasnorm_wordpool_576.txt	LTP361	ltpFR2	4	4	DINER	467	n/a	n/a	0	0	0
993.63916015625	n/a	REC_WORD	2034973	wordpools/wasnorm_wordpool_576.txt	LTP361	ltpFR2	4	4	WAITER	1580	n/a	n/a	0	0	0
1046.09228515625	n/a	REC_WORD	2142397	wordpools/wasnorm_wordpool_576.txt	LTP361	ltpFR2	4	4	PILOT	1070	n/a	n/a	0	0	0
1230.111328125	n/a	DISTRACTOR	2519268	n/a	LTP361	ltpFR2	4	5	n/a	n/a	n/a	n/a	0	0	0
1230.111328125	n/a	START	2519268	n/a	LTP361	ltpFR2	4	n/a	n/a	n/a	7	n/a	n/a	n/a	n/a
1230.12744140625	n/a	PROB	2519301	n/a	LTP361	ltpFR2	4	n/a	n/a	n/a	7	25	9	8	9
1232.97021484375	n/a	PROB	2525123	n/a	LTP361	ltpFR2	4	n/a	n/a	n/a	7	12	7	3	2
1236.4482421875	n/a	PROB	2532246	n/a	LTP361	ltpFR2	4	n/a	n/a	n/a	7	11	1	9	1
1237.6181640625	n/a	PROB	2534642	n/a	LTP361	ltpFR2	4	n/a	n/a	n/a	7	15	5	6	4
1238.83837890625	n/a	PROB	2537141	n/a	LTP361	ltpFR2	4	n/a	n/a	n/a	7	11	7	1	3
1240.16015625	n/a	PROB	2539848	n/a	LTP361	ltpFR2	4	n/a	n/a	n/a	7	123	7	3	3
1243.001953125	n/a	PROB	2545668	n/a	LTP361	ltpFR2	4	n/a	n/a	n/a	7	13	1	3	9
1247.28271484375	n/a	PROB	2554435	n/a	LTP361	ltpFR2	4	n/a	n/a	n/a	7	22	9	5	8
1249.806640625	n/a	PROB	2559604	n/a	LTP361	ltpFR2	4	n/a	n/a	n/a	7	11	8	1	2
1251.24560546875	n/a	PROB	2562551	n/a	LTP361	ltpFR2	4	n/a	n/a	n/a	7	15	7	5	3
1252.74072265625	n/a	STOP	2565613	n/a	LTP361	ltpFR2	4	n/a	n/a	n/a	7	n/a	n/a	n/a	n/a
1255.1416015625	n/a	WORD	2570530	wordpools/wasnorm_wordpool_576.txt	LTP361	ltpFR2	4	5	CASKET	255	n/a	n/a	0	0	0
1257.6494140625	n/a	WORD	2575666	wordpools/wasnorm_wordpool_576.txt	LTP361	ltpFR2	4	5	CAFE	216	n/a	n/a	0	0	0
1260.07373046875	n/a	WORD	2580631	wordpools/wasnorm_wordpool_576.txt	LTP361	ltpFR2	4	5	CELLAR	267	n/a	n/a	0	0	0
1262.88232421875	n/a	WORD	2586383	wordpools/wasnorm_wordpool_576.txt	LTP361	ltpFR2	4	5	LION	827	n/a	n/a	0	0	0
1265.54150390625	n/a	WORD	2591829	wordpools/wasnorm_wordpool_576.txt	LTP361	ltpFR2	4	5	LOFT	840	n/a	n/a	0	0	0
1268.3173828125	n/a	WORD	2597514	wordpools/wasnorm_wordpool_576.txt	LTP361	ltpFR2	4	5	HAWK	692	n/a	n/a	0	0	0
1270.9423828125	n/a	WORD	2602890	wordpools/wasnorm_wordpool_576.txt	LTP361	ltpFR2	4	5	KEEPER	769	n/a	n/a	0	0	0
1273.5341796875	n/a	WORD	2608198	wordpools/wasnorm_wordpool_576.txt	LTP361	ltpFR2	4	5	SALMON	1227	n/a	n/a	0	0	0
1276.30908203125	n/a	WORD	2613881	wordpools/wasnorm_wordpool_576.txt	LTP361	ltpFR2	4	5	MAILMAN	858	n/a	n/a	0	0	0
1278.98486328125	n/a	WORD	2619361	wordpools/wasnorm_wordpool_576.txt	LTP361	ltpFR2	4	5	SISTER	1312	n/a	n/a	0	0	0
1281.54296875	n/a	WORD	2624600	wordpools/wasnorm_wordpool_576.txt	LTP361	ltpFR2	4	5	BLACKBOARD	133	n/a	n/a	0	0	0
1284.23486328125	n/a	WORD	2630113	wordpools/wasnorm_wordpool_576.txt	LTP361	ltpFR2	4	5	SCISSORS	1250	n/a	n/a	0	0	0
1286.94384765625	n/a	WORD	2635661	wordpools/wasnorm_wordpool_576.txt	LTP361	ltpFR2	4	5	BEAVER	109	n/a	n/a	0	0	0
1289.53466796875	n/a	WORD	2640967	wordpools/wasnorm_wordpool_576.txt	LTP361	ltpFR2	4	5	TRUCK	1512	n/a	n/a	0	0	0
1292.1435546875	n/a	WORD	2646310	wordpools/wasnorm_wordpool_576.txt	LTP361	ltpFR2	4	5	DRIVER	499	n/a	n/a	0	0	0
1294.58447265625	n/a	WORD	2651309	wordpools/wasnorm_wordpool_576.txt	LTP361	ltpFR2	4	5	PEPPER	1047	n/a	n/a	0	0	0
1297.3935546875	n/a	WORD	2657062	wordpools/wasnorm_wordpool_576.txt	LTP361	ltpFR2	4	5	LUNCH	849	n/a	n/a	0	0	0
1299.9013671875	n/a	WORD	2662198	wordpools/wasnorm_wordpool_576.txt	LTP361	ltpFR2	4	5	GRAVE	658	n/a	n/a	0	0	0
1302.46044921875	n/a	WORD	2667439	wordpools/wasnorm_wordpool_576.txt	LTP361	ltpFR2	4	5	SEAL	1262	n/a	n/a	0	0	0
1305.03515625	n/a	WORD	2672712	wordpools/wasnorm_wordpool_576.txt	LTP361	ltpFR2	4	5	COMET	353	n/a	n/a	0	0	0
1307.6103515625	n/a	WORD	2677986	wordpools/wasnorm_wordpool_576.txt	LTP361	ltpFR2	4	5	STUDENT	1395	n/a	n/a	0	0	0
1310.38525390625	n/a	WORD	2683669	wordpools/wasnorm_wordpool_576.txt	LTP361	ltpFR2	4	5	SPONGE	1355	n/a	n/a	0	0	0
1312.9599609375	n/a	WORD	2688942	wordpools/wasnorm_wordpool_576.txt	LTP361	ltpFR2	4	5	MARSH	874	n/a	n/a	0	0	0
1315.5849609375	n/a	WORD	2694318	wordpools/wasnorm_wordpool_576.txt	LTP361	ltpFR2	4	5	PORK	1108	n/a	n/a	0	0	0
1317.19091796875	n/a	START	2697607	n/a	LTP361	ltpFR2	4	n/a	n/a	n/a	8	n/a	n/a	n/a	n/a
1318.32177734375	n/a	DISTRACTOR	2699923	n/a	LTP361	ltpFR2	4	5	n/a	n/a	n/a	n/a	0	0	0
1318.328125	n/a	PROB	2699936	n/a	LTP361	ltpFR2	4	n/a	n/a	n/a	8	18	7	2	9
1320.65185546875	n/a	PROB	2704695	n/a	LTP361	ltpFR2	4	n/a	n/a	n/a	8	21	8	9	3
1322.306640625	n/a	PROB	2708084	n/a	LTP361	ltpFR2	4	n/a	n/a	n/a	8	15	1	9	5
1325.25	n/a	PROB	2714112	n/a	LTP361	ltpFR2	4	n/a	n/a	n/a	8	16	3	6	7
1326.93896484375	n/a	PROB	2717571	n/a	LTP361	ltpFR2	4	n/a	n/a	n/a	8	18	2	8	8
1328.89453125	n/a	PROB	2721576	n/a	LTP361	ltpFR2	4	n/a	n/a	n/a	8	20	6	5	9
1330.80078125	n/a	PROB	2725480	n/a	LTP361	ltpFR2	4	n/a	n/a	n/a	8	26	9	8	9
1332.6904296875	n/a	PROB	2729350	n/a	LTP361	ltpFR2	4	n/a	n/a	n/a	8	15	8	4	3
1334.24560546875	n/a	PROB	2732535	n/a	LTP361	ltpFR2	4	n/a	n/a	n/a	8	8	1	4	3
1335.68359375	n/a	PROB	2735480	n/a	LTP361	ltpFR2	4	n/a	n/a	n/a	8	10	4	3	3
1337.42236328125	n/a	PROB	2739041	n/a	LTP361	ltpFR2	4	n/a	n/a	n/a	8	13	1	8	4
1339.0771484375	n/a	PROB	2742430	n/a	LTP361	ltpFR2	4	n/a	n/a	n/a	8	10	6	1	3
1340.4931640625	n/a	STOP	2745330	n/a	LTP361	ltpFR2	4	n/a	n/a	n/a	8	n/a	n/a	n/a	n/a
1343.04150390625	n/a	REC_START	2750549	n/a	LTP361	ltpFR2	4	5	n/a	n/a	n/a	n/a	0	0	0
1344.17724609375	n/a	REC_WORD	2752875	wordpools/wasnorm_wordpool_576.txt	LTP361	ltpFR2	4	5	CASKET	255	n/a	n/a	0	0	0
1345.71728515625	n/a	REC_WORD	2756029	wordpools/wasnorm_wordpool_576.txt	LTP361	ltpFR2	4	5	CELLAR	267	n/a	n/a	0	0	0
1347.30615234375	n/a	REC_WORD	2759283	wordpools/wasnorm_wordpool_576.txt	LTP361	ltpFR2	4	5	GRAVE	658	n/a	n/a	0	0	0
1350.69189453125	n/a	REC_WORD	2766217	wordpools/wasnorm_wordpool_576.txt	LTP361	ltpFR2	4	5	LION	827	n/a	n/a	0	0	0
1352.125	n/a	REC_WORD	2769152	wordpools/wasnorm_wordpool_576.txt	LTP361	ltpFR2	4	5	LEDGE	-1	n/a	n/a	0	0	0
1354.0068359375	n/a	REC_WORD	2773006	wordpools/wasnorm_wordpool_576.txt	LTP361	ltpFR2	4	5	HAWK	692	n/a	n/a	0	0	0
1355.052734375	n/a	REC_WORD	2775148	wordpools/wasnorm_wordpool_576.txt	LTP361	ltpFR2	4	5	SALMON	1227	n/a	n/a	0	0	0
1356.20068359375	n/a	REC_WORD	2777499	wordpools/wasnorm_wordpool_576.txt	LTP361	ltpFR2	4	5	KEEPER	769	n/a	n/a	0	0	0
1357.85791015625	n/a	REC_WORD	2780893	wordpools/wasnorm_wordpool_576.txt	LTP361	ltpFR2	4	5	TRUCK	1512	n/a	n/a	0	0	0
1359.0078125	n/a	REC_WORD	2783248	wordpools/wasnorm_wordpool_576.txt	LTP361	ltpFR2	4	5	DRIVER	499	n/a	n/a	0	0	0
1765.7314453125	n/a	DISTRACTOR	3616218	n/a	LTP361	ltpFR2	4	6	n/a	n/a	n/a	n/a	0	0	0
1765.7314453125	n/a	START	3616218	n/a	LTP361	ltpFR2	4	n/a	n/a	n/a	9	n/a	n/a	n/a	n/a
1765.74755859375	n/a	PROB	3616251	n/a	LTP361	ltpFR2	4	n/a	n/a	n/a	9	25	9	7	9
1768.92431640625	n/a	PROB	3622757	n/a	LTP361	ltpFR2	4	n/a	n/a	n/a	9	15	3	9	3
1770.6806640625	n/a	PROB	3626354	n/a	LTP361	ltpFR2	4	n/a	n/a	n/a	9	6	2	3	1
1772.16845703125	n/a	PROB	3629401	n/a	LTP361	ltpFR2	4	n/a	n/a	n/a	9	16	3	8	5
1773.64013671875	n/a	PROB	3632415	n/a	LTP361	ltpFR2	4	n/a	n/a	n/a	9	8	1	2	5
1775.12841796875	n/a	PROB	3635463	n/a	LTP361	ltpFR2	4	n/a	n/a	n/a	9	13	1	9	3
1776.46533203125	n/a	PROB	3638201	n/a	LTP361	ltpFR2	4	n/a	n/a	n/a	9	15	5	3	7
1777.80224609375	n/a	PROB	3640939	n/a	LTP361	ltpFR2	4	n/a	n/a	n/a	9	15	7	3	5
1779.8603515625	n/a	PROB	3645154	n/a	LTP361	ltpFR2	4	n/a	n/a	n/a	9	15	8	1	6
1781.48193359375	n/a	PROB	3648475	n/a	LTP361	ltpFR2	4	n/a	n/a	n/a	9	22	5	9	8
1784.6591796875	n/a	PROB	3654982	n/a	LTP361	ltpFR2	4	n/a	n/a	n/a	9	15	4	9	2
1786.1298828125	n/a	PROB	3657994	n/a	LTP361	ltpFR2	4	n/a	n/a	n/a	9	13	5	2	6
1789.73095703125	n/a	STOP	3665369	n/a	LTP361	ltpFR2	4	n/a	n/a	n/a	9	n/a	n/a	n/a	n/a
1790.578125	n/a	WORD	3667104	wordpools/wasnorm_wordpool_576.txt	LTP361	ltpFR2	4	6	DONOR	485	n/a	n/a	0	0	0
1793.2529296875	n/a	WORD	3672582	wordpools/wasnorm_wordpool_576.txt	LTP361	ltpFR2	4	6	LIVER	833	n/a	n/a	0	0	0
1795.86083984375	n/a	WORD	3677923	wordpools/wasnorm_wordpool_576.txt	LTP361	ltpFR2	4	6	JELLO	754	n/a	n/a	0	0	0
1798.53662109375	n/a	WORD	3683403	wordpools/wasnorm_wordpool_576.txt	LTP361	ltpFR2	4	6	FLIPPER	580	n/a	n/a	0	0	0
1801.1787109375	n/a	WORD	3688814	wordpools/wasnorm_wordpool_576.txt	LTP361	ltpFR2	4	6	TUBA	1515	n/a	n/a	0	0	0
1803.63671875	n/a	WORD	3693848	wordpools/wasnorm_wordpool_576.txt	LTP361	ltpFR2	4	6	CYCLONE	431	n/a	n/a	0	0	0
1806.2783203125	n/a	WORD	3699258	wordpools/wasnorm_wordpool_576.txt	LTP361	ltpFR2	4	6	STAKE	1368	n/a	n/a	0	0	0
1808.83544921875	n/a	WORD	3704495	wordpools/wasnorm_wordpool_576.txt	LTP361	ltpFR2	4	6	HELMET	702	n/a	n/a	0	0	0
1811.3271484375	n/a	WORD	3709598	wordpools/wasnorm_wordpool_576.txt	LTP361	ltpFR2	4	6	CHEST	295	n/a	n/a	0	0	0
1813.76904296875	n/a	WORD	3714599	wordpools/wasnorm_wordpool_576.txt	LTP361	ltpFR2	4	6	FRIEND	606	n/a	n/a	0	0	0
1816.17626953125	n/a	WORD	3719529	wordpools/wasnorm_wordpool_576.txt	LTP361	ltpFR2	4	6	LOVER	846	n/a	n/a	0	0	0
1818.78515625	n/a	WORD	3724872	wordpools/wasnorm_wordpool_576.txt	LTP361	ltpFR2	4	6	KIDNEY	776	n/a	n/a	0	0	0
1821.2431640625	n/a	WORD	3729906	wordpools/wasnorm_wordpool_576.txt	LTP361	ltpFR2	4	6	ASIA	46	n/a	n/a	0	0	0
1823.91796875	n/a	WORD	3735384	wordpools/wasnorm_wordpool_576.txt	LTP361	ltpFR2	4	6	SHERIFF	1284	n/a	n/a	0	0	0
1826.65966796875	n/a	WORD	3740999	wordpools/wasnorm_wordpool_576.txt	LTP361	ltpFR2	4	6	CASHIER	254	n/a	n/a	0	0	0
1829.45263671875	n/a	WORD	3746719	wordpools/wasnorm_wordpool_576.txt	LTP361	ltpFR2	4	6	MOP	916	n/a	n/a	0	0	0
1831.9609375	n/a	WORD	3751856	wordpools/wasnorm_wordpool_576.txt	LTP361	ltpFR2	4	6	RECORD	1176	n/a	n/a	0	0	0
1834.61865234375	n/a	WORD	3757299	wordpools/wasnorm_wordpool_576.txt	LTP361	ltpFR2	4	6	PUPIL	1143	n/a	n/a	0	0	0
1837.19384765625	n/a	WORD	3762573	wordpools/wasnorm_wordpool_576.txt	LTP361	ltpFR2	4	6	EYELASH	546	n/a	n/a	0	0	0
1839.91943359375	n/a	WORD	3768155	wordpools/wasnorm_wordpool_576.txt	LTP361	ltpFR2	4	6	HOSTESS	723	n/a	n/a	0	0	0
1842.46142578125	n/a	WORD	3773361	wordpools/wasnorm_wordpool_576.txt	LTP361	ltpFR2	4	6	DUSTPAN	509	n/a	n/a	0	0	0
1844.9853515625	n/a	WORD	3778530	wordpools/wasnorm_wordpool_576.txt	LTP361	ltpFR2	4	6	BATHTUB	100	n/a	n/a	0	0	0
1847.728515625	n/a	WORD	3784148	wordpools/wasnorm_wordpool_576.txt	LTP361	ltpFR2	4	6	WHISTLE	1606	n/a	n/a	0	0	0
1850.25244140625	n/a	WORD	3789317	wordpools/wasnorm_wordpool_576.txt	LTP361	ltpFR2	4	6	FUNGUS	614	n/a	n/a	0	0	0
1851.8583984375	n/a	START	3792606	n/a	LTP361	ltpFR2	4	n/a	n/a	n/a	10	n/a	n/a	n/a	n/a
1852.791015625	n/a	DISTRACTOR	3794516	n/a	LTP361	ltpFR2	4	6	n/a	n/a	n/a	n/a	0	0	0
1852.79296875	n/a	PROB	3794520	n/a	LTP361	ltpFR2	4	n/a	n/a	n/a	10	17	8	3	6
1855.0849609375	n/a	PROB	3799214	n/a	LTP361	ltpFR2	4	n/a	n/a	n/a	10	9	3	1	5
1856.6728515625	n/a	PROB	3802466	n/a	LTP361	ltpFR2	4	n/a	n/a	n/a	10	13	5	2	6
1859.798828125	n/a	PROB	3808868	n/a	LTP361	ltpFR2	4	n/a	n/a	n/a	10	23	8	6	9
1861.85693359375	n/a	PROB	3813083	n/a	LTP361	ltpFR2	4	n/a	n/a	n/a	10	16	8	5	3
1863.412109375	n/a	PROB	3816268	n/a	LTP361	ltpFR2	4	n/a	n/a	n/a	10	9	2	2	5
1864.61474609375	n/a	PROB	3818731	n/a	LTP361	ltpFR2	4	n/a	n/a	n/a	10	10	6	3	1
1866.65478515625	n/a	PROB	3822909	n/a	LTP361	ltpFR2	4	n/a	n/a	n/a	10	14	5	2	7
1868.5615234375	n/a	PROB	3826814	n/a	LTP361	ltpFR2	4	n/a	n/a	n/a	10	14	1	4	9
1870.11669921875	n/a	PROB	3829999	n/a	LTP361	ltpFR2	4	n/a	n/a	n/a	10	8	3	4	1
1871.97265625	n/a	PROB	3833800	n/a	LTP361	ltpFR2	4	n/a	n/a	n/a	10	18	5	8	5
1873.64453125	n/a	PROB	3837224	n/a	LTP361	ltpFR2	4	n/a	n/a	n/a	10	17	2	6	9
1875.38232421875	n/a	STOP	3840783	n/a	LTP361	ltpFR2	4	n/a	n/a	n/a	10	n/a	n/a	n/a	n/a
1877.67431640625	n/a	REC_START	3845477	n/a	LTP361	ltpFR2	4	6	n/a	n/a	n/a	n/a	0	0	0
1879.2216796875	n/a	REC_WORD	3848646	wordpools/wasnorm_wordpool_576.txt	LTP361	ltpFR2	4	6	MOP	916	n/a	n/a	0	0	0
1879.9892578125	n/a	REC_WORD	3850218	wordpools/wasnorm_wordpool_576.txt	LTP361	ltpFR2	4	6	CASHIER	254	n/a	n/a	0	0	0
1891.48388671875	n/a	REC_WORD	3873759	wordpools/wasnorm_wordpool_576.txt	LTP361	ltpFR2	4	6	SHERIFF	1284	n/a	n/a	0	0	0
1894.36083984375	n/a	REC_WORD	3879651	wordpools/wasnorm_wordpool_576.txt	LTP361	ltpFR2	4	6	HELMET	702	n/a	n/a	0	0	0
1897.033203125	n/a	REC_WORD	3885124	wordpools/wasnorm_wordpool_576.txt	LTP361	ltpFR2	4	6	CYCLONE	431	n/a	n/a	0	0	0
1898.48486328125	n/a	REC_WORD	3888097	wordpools/wasnorm_wordpool_576.txt	LTP361	ltpFR2	4	6	JELLO	754	n/a	n/a	0	0	0
1899.65087890625	n/a	REC_WORD	3890485	wordpools/wasnorm_wordpool_576.txt	LTP361	ltpFR2	4	6	FLIPPER	580	n/a	n/a	0	0	0
1984.8515625	n/a	WORD	4064976	wordpools/wasnorm_wordpool_576.txt	LTP361	ltpFR2	4	7	SERVER	1272	n/a	n/a	0	0	0
1987.29248046875	n/a	WORD	4069975	wordpools/wasnorm_wordpool_576.txt	LTP361	ltpFR2	4	7	FOREST	593	n/a	n/a	0	0	0
1989.83447265625	n/a	WORD	4075181	wordpools/wasnorm_wordpool_576.txt	LTP361	ltpFR2	4	7	GAZELLE	628	n/a	n/a	0	0	0
1992.34228515625	n/a	WORD	4080317	wordpools/wasnorm_wordpool_576.txt	LTP361	ltpFR2	4	7	HOOK	715	n/a	n/a	0	0	0
1994.81640625	n/a	WORD	4085384	wordpools/wasnorm_wordpool_576.txt	LTP361	ltpFR2	4	7	WARDROBE	1587	n/a	n/a	0	0	0
1997.47509765625	n/a	WORD	4090829	wordpools/wasnorm_wordpool_576.txt	LTP361	ltpFR2	4	7	HAMPER	682	n/a	n/a	0	0	0
1999.9169921875	n/a	WORD	4095830	wordpools/wasnorm_wordpool_576.txt	LTP361	ltpFR2	4	7	GLOVE	642	n/a	n/a	0	0	0
2002.3740234375	n/a	WORD	4100862	wordpools/wasnorm_wordpool_576.txt	LTP361	ltpFR2	4	7	BRACES	164	n/a	n/a	0	0	0
2004.81494140625	n/a	WORD	4105861	wordpools/wasnorm_wordpool_576.txt	LTP361	ltpFR2	4	7	RAZOR	1171	n/a	n/a	0	0	0
2007.2568359375	n/a	WORD	4110862	wordpools/wasnorm_wordpool_576.txt	LTP361	ltpFR2	4	7	BLADE	134	n/a	n/a	0	0	0
2009.9658203125	n/a	WORD	4116410	wordpools/wasnorm_wordpool_576.txt	LTP361	ltpFR2	4	7	LEADER	807	n/a	n/a	0	0	0
2012.57373046875	n/a	WORD	4121751	wordpools/wasnorm_wordpool_576.txt	LTP361	ltpFR2	4	7	THIEF	1456	n/a	n/a	0	0	0
2015.349609375	n/a	WORD	4127436	wordpools/wasnorm_wordpool_576.txt	LTP361	ltpFR2	4	7	SERVANT	1271	n/a	n/a	0	0	0
2018.15869140625	n/a	WORD	4133189	wordpools/wasnorm_wordpool_576.txt	LTP361	ltpFR2	4	7	LADY	794	n/a	n/a	0	0	0
2020.66650390625	n/a	WORD	4138325	wordpools/wasnorm_wordpool_576.txt	LTP361	ltpFR2	4	7	BREAST	171	n/a	n/a	0	0	0
2023.42529296875	n/a	WORD	4143975	wordpools/wasnorm_wordpool_576.txt	LTP361	ltpFR2	4	7	GHETTO	633	n/a	n/a	0	0	0
2026.05029296875	n/a	WORD	4149351	wordpools/wasnorm_wordpool_576.txt	LTP361	ltpFR2	4	7	DRESSER	496	n/a	n/a	0	0	0
2028.79150390625	n/a	WORD	4154965	wordpools/wasnorm_wordpool_576.txt	LTP361	ltpFR2	4	7	PEBBLE	1035	n/a	n/a	0	0	0
2031.50146484375	n/a	WORD	4160515	wordpools/wasnorm_wordpool_576.txt	LTP361	ltpFR2	4	7	CORAL	378	n/a	n/a	0	0	0
2034.31005859375	n/a	WORD	4166267	wordpools/wasnorm_wordpool_576.txt	LTP361	ltpFR2	4	7	WHISKERS	1605	n/a	n/a	0	0	0
2037.01904296875	n/a	WORD	4171815	wordpools/wasnorm_wordpool_576.txt	LTP361	ltpFR2	4	7	STOVE	1388	n/a	n/a	0	0	0
2039.69384765625	n/a	WORD	4177293	wordpools/wasnorm_wordpool_576.txt	LTP361	ltpFR2	4	7	OYSTER	995	n/a	n/a	0	0	0
2042.302734375	n/a	WORD	4182636	wordpools/wasnorm_wordpool_576.txt	LTP361	ltpFR2	4	7	ARM	38	n/a	n/a	0	0	0
2044.81005859375	n/a	WORD	4187771	wordpools/wasnorm_wordpool_576.txt	LTP361	ltpFR2	4	7	LAPEL	800	n/a	n/a	0	0	0
2046.416015625	n/a	START	4191060	n/a	LTP361	ltpFR2	4	n/a	n/a	n/a	11	n/a	n/a	n/a	n/a
2047.39599609375	n/a	DISTRACTOR	4193067	n/a	LTP361	ltpFR2	4	7	n/a	n/a	n/a	n/a	0	0	0
2047.40283203125	n/a	PROB	4193081	n/a	LTP361	ltpFR2	4	n/a	n/a	n/a	11	11	4	6	1
2049.759765625	n/a	PROB	4197908	n/a	LTP361	ltpFR2	4	n/a	n/a	n/a	11	17	7	4	6
2051.61572265625	n/a	PROB	4201709	n/a	LTP361	ltpFR2	4	n/a	n/a	n/a	11	14	7	2	5
2053.939453125	n/a	PROB	4206468	n/a	LTP361	ltpFR2	4	n/a	n/a	n/a	11	17	2	7	5
2056.08056640625	n/a	PROB	4210853	n/a	LTP361	ltpFR2	4	n/a	n/a	n/a	11	11	1	4	6
2057.78466796875	n/a	PROB	4214343	n/a	LTP361	ltpFR2	4	n/a	n/a	n/a	11	8	2	4	2
2059.70849609375	n/a	PROB	4218283	n/a	LTP361	ltpFR2	4	n/a	n/a	n/a	11	15	3	8	4
2061.49755859375	n/a	PROB	4221947	n/a	LTP361	ltpFR2	4	n/a	n/a	n/a	11	10	1	3	6
2062.7841796875	n/a	PROB	4224582	n/a	LTP361	ltpFR2	4	n/a	n/a	n/a	11	10	3	1	6
2064.12353515625	n/a	PROB	4227325	n/a	LTP361	ltpFR2	4	n/a	n/a	n/a	11	13	5	3	5
2065.443359375	n/a	PROB	4230028	n/a	LTP361	ltpFR2	4	n/a	n/a	n/a	11	23	5	9	9
2067.4833984375	n/a	PROB	4234206	n/a	LTP361	ltpFR2	4	n/a	n/a	n/a	11	7	2	4	1
2069.97412109375	n/a	STOP	4239307	n/a	LTP361	ltpFR2	4	n/a	n/a	n/a	11	n/a	n/a	n/a	n/a
2072.23291015625	n/a	REC_START	4243933	n/a	LTP361	ltpFR2	4	7	n/a	n/a	n/a	n/a	0	0	0
2074.154296875	n/a	REC_WORD	4247868	wordpools/wasnorm_wordpool_576.txt	LTP361	ltpFR2	4	7	SERVER	1272	n/a	n/a	0	0	0
2075.09521484375	n/a	REC_WORD	4249795	wordpools/wasnorm_wordpool_576.txt	LTP361	ltpFR2	4	7	HOOK	715	n/a	n/a	0	0	0
2076.64599609375	n/a	REC_WORD	4252971	wordpools/wasnorm_wordpool_576.txt	LTP361	ltpFR2	4	7	HAMPER	682	n/a	n/a	0	0	0
2077.9697265625	n/a	REC_WORD	4255682	wordpools/wasnorm_wordpool_576.txt	LTP361	ltpFR2	4	7	DRESSER	496	n/a	n/a	0	0	0
2080.02685546875	n/a	REC_WORD	4259895	wordpools/wasnorm_wordpool_576.txt	LTP361	ltpFR2	4	7	WARDROBE	1587	n/a	n/a	0	0	0
2083.3857421875	n/a	REC_WORD	4266774	wordpools/wasnorm_wordpool_576.txt	LTP361	ltpFR2	4	7	LEADER	807	n/a	n/a	0	0	0
2084.4677734375	n/a	REC_WORD	4268990	wordpools/wasnorm_wordpool_576.txt	LTP361	ltpFR2	4	7	GLOVE	642	n/a	n/a	0	0	0
2089.052734375	n/a	REC_WORD	4278380	wordpools/wasnorm_wordpool_576.txt	LTP361	ltpFR2	4	7	BRACES	164	n/a	n/a	0	0	0
2090.517578125	n/a	REC_WORD	4281380	wordpools/wasnorm_wordpool_576.txt	LTP361	ltpFR2	4	7	FOREST	593	n/a	n/a	0	0	0
2093.560546875	n/a	REC_WORD	4287612	wordpools/wasnorm_wordpool_576.txt	LTP361	ltpFR2	4	7	KITCHEN	778	n/a	n/a	0	0	0
2095.38671875	n/a	REC_WORD	4291352	wordpools/wasnorm_wordpool_576.txt	LTP361	ltpFR2	4	7	OVEN	991	n/a	n/a	0	0	0
2096.16943359375	n/a	REC_WORD	4292955	wordpools/wasnorm_wordpool_576.txt	LTP361	ltpFR2	4	7	STOVE	1388	n/a	n/a	0	0	0
2097.30322265625	n/a	REC_WORD	4295277	wordpools/wasnorm_wordpool_576.txt	LTP361	ltpFR2	4	7	OYSTER	995	n/a	n/a	0	0	0
2098.30029296875	n/a	REC_WORD	4297319	wordpools/wasnorm_wordpool_576.txt	LTP361	ltpFR2	4	7	ARM	38	n/a	n/a	0	0	0
2139.01318359375	n/a	REC_WORD	4380699	wordpools/wasnorm_wordpool_576.txt	LTP361	ltpFR2	4	7	THIEF	1456	n/a	n/a	0	0	0
2140.080078125	n/a	REC_WORD	4382884	wordpools/wasnorm_wordpool_576.txt	LTP361	ltpFR2	4	7	SERVANT	1271	n/a	n/a	0	0	0
2162.689453125	n/a	WORD	4429188	wordpools/wasnorm_wordpool_576.txt	LTP361	ltpFR2	4	8	HIKER	708	n/a	n/a	0	0	0
2165.1474609375	n/a	WORD	4434222	wordpools/wasnorm_wordpool_576.txt	LTP361	ltpFR2	4	8	FLESH	579	n/a	n/a	0	0	0
2167.7724609375	n/a	WORD	4439598	wordpools/wasnorm_wordpool_576.txt	LTP361	ltpFR2	4	8	FRUIT	610	n/a	n/a	0	0	0
2170.3642578125	n/a	WORD	4444906	wordpools/wasnorm_wordpool_576.txt	LTP361	ltpFR2	4	8	FIREPLACE	570	n/a	n/a	0	0	0
2172.88818359375	n/a	WORD	4450075	wordpools/wasnorm_wordpool_576.txt	LTP361	ltpFR2	4	8	ORANGE	980	n/a	n/a	0	0	0
2175.447265625	n/a	WORD	4455316	wordpools/wasnorm_wordpool_576.txt	LTP361	ltpFR2	4	8	EAGLE	512	n/a	n/a	0	0	0
2178.13916015625	n/a	WORD	4460829	wordpools/wasnorm_wordpool_576.txt	LTP361	ltpFR2	4	8	DIVER	476	n/a	n/a	0	0	0
2180.76416015625	n/a	WORD	4466205	wordpools/wasnorm_wordpool_576.txt	LTP361	ltpFR2	4	8	VENUS	1557	n/a	n/a	0	0	0
2183.43896484375	n/a	WORD	4471683	wordpools/wasnorm_wordpool_576.txt	LTP361	ltpFR2	4	8	EGYPT	519	n/a	n/a	0	0	0
2186.1650390625	n/a	WORD	4477266	wordpools/wasnorm_wordpool_576.txt	LTP361	ltpFR2	4	8	RELISH	1183	n/a	n/a	0	0	0
2188.7568359375	n/a	WORD	4482574	wordpools/wasnorm_wordpool_576.txt	LTP361	ltpFR2	4	8	MUSTARD	935	n/a	n/a	0	0	0
2191.36474609375	n/a	WORD	4487915	wordpools/wasnorm_wordpool_576.txt	LTP361	ltpFR2	4	8	WORKER	1621	n/a	n/a	0	0	0
2193.78857421875	n/a	WORD	4492879	wordpools/wasnorm_wordpool_576.txt	LTP361	ltpFR2	4	8	TYPIST	1532	n/a	n/a	0	0	0
2196.58154296875	n/a	WORD	4498599	wordpools/wasnorm_wordpool_576.txt	LTP361	ltpFR2	4	8	RIFLE	1192	n/a	n/a	0	0	0
2199.189453125	n/a	WORD	4503940	wordpools/wasnorm_wordpool_576.txt	LTP361	ltpFR2	4	8	LODGE	839	n/a	n/a	0	0	0
2201.91552734375	n/a	WORD	4509523	wordpools/wasnorm_wordpool_576.txt	LTP361	ltpFR2	4	8	WIFE	1609	n/a	n/a	0	0	0
2204.37353515625	n/a	WORD	4514557	wordpools/wasnorm_wordpool_576.txt	LTP361	ltpFR2	4	8	RIVER	1194	n/a	n/a	0	0	0
2206.99853515625	n/a	WORD	4519933	wordpools/wasnorm_wordpool_576.txt	LTP361	ltpFR2	4	8	CARROT	249	n/a	n/a	0	0	0
2209.45654296875	n/a	WORD	4524967	wordpools/wasnorm_wordpool_576.txt	LTP361	ltpFR2	4	8	COD	340	n/a	n/a	0	0	0
2212.1982421875	n/a	WORD	4530582	wordpools/wasnorm_wordpool_576.txt	LTP361	ltpFR2	4	8	TURKEY	1520	n/a	n/a	0	0	0
2214.623046875	n/a	WORD	4535548	wordpools/wasnorm_wordpool_576.txt	LTP361	ltpFR2	4	8	PEANUT	1032	n/a	n/a	0	0	0
2217.1142578125	n/a	WORD	4540650	wordpools/wasnorm_wordpool_576.txt	LTP361	ltpFR2	4	8	POPCORN	1104	n/a	n/a	0	0	0
2219.755859375	n/a	WORD	4546060	wordpools/wasnorm_wordpool_576.txt	LTP361	ltpFR2	4	8	DAISY	435	n/a	n/a	0	0	0
2222.2978515625	n/a	WORD	4551266	wordpools/wasnorm_wordpool_576.txt	LTP361	ltpFR2	4	8	LAMP	798	n/a	n/a	0	0	0
2223.90283203125	n/a	START	4554553	n/a	LTP361	ltpFR2	4	n/a	n/a	n/a	12	n/a	n/a	n/a	n/a
2224.82275390625	n/a	DISTRACTOR	4556437	n/a	LTP361	ltpFR2	4	8	n/a	n/a	n/a	n/a	0	0	0
2224.8388671875	n/a	PROB	4556470	n/a	LTP361	ltpFR2	4	n/a	n/a	n/a	12	16	1	7	8
2227.69775390625	n/a	PROB	4562325	n/a	LTP361	ltpFR2	4	n/a	n/a	n/a	12	16	9	6	1
2229.11962890625	n/a	PROB	4565237	n/a	LTP361	ltpFR2	4	n/a	n/a	n/a	12	14	4	2	8
2230.95849609375	n/a	PROB	4569003	n/a	LTP361	ltpFR2	4	n/a	n/a	n/a	12	11	1	5	5
2232.0615234375	n/a	PROB	4571262	n/a	LTP361	ltpFR2	4	n/a	n/a	n/a	12	12	3	8	1
2233.56689453125	n/a	PROB	4574345	n/a	LTP361	ltpFR2	4	n/a	n/a	n/a	12	20	8	7	5
2235.20556640625	n/a	PROB	4577701	n/a	LTP361	ltpFR2	4	n/a	n/a	n/a	12	15	9	3	3
2236.59375	n/a	PROB	4580544	n/a	LTP361	ltpFR2	4	n/a	n/a	n/a	12	12	1	3	8
2238.2314453125	n/a	PROB	4583898	n/a	LTP361	ltpFR2	4	n/a	n/a	n/a	12	18	6	7	5
2240.03759765625	n/a	PROB	4587597	n/a	LTP361	ltpFR2	4	n/a	n/a	n/a	12	11	2	3	6
2241.65966796875	n/a	PROB	4590919	n/a	LTP361	ltpFR2	4	n/a	n/a	n/a	12	17	4	5	8
2243.49951171875	n/a	PROB	4594687	n/a	LTP361	ltpFR2	4	n/a	n/a	n/a	12	17	7	8	2
2244.88623046875	n/a	PROB	4597527	n/a	LTP361	ltpFR2	4	n/a	n/a	n/a	12	7	3	2	2
2247.90234375	n/a	STOP	4603704	n/a	LTP361	ltpFR2	4	n/a	n/a	n/a	12	n/a	n/a	n/a	n/a
2249.71923828125	n/a	REC_START	4607425	n/a	LTP361	ltpFR2	4	8	n/a	n/a	n/a	n/a	0	0	0
2252.5283203125	n/a	REC_WORD	4613178	wordpools/wasnorm_wordpool_576.txt	LTP361	ltpFR2	4	8	DAISY	435	n/a	n/a	0	0	0
2253.6953125	n/a	REC_WORD	4615568	wordpools/wasnorm_wordpool_576.txt	LTP361	ltpFR2	4	8	WIFE	1609	n/a	n/a	0	0	0
2255.35888671875	n/a	REC_WORD	4618975	wordpools/wasnorm_wordpool_576.txt	LTP361	ltpFR2	4	8	LODGE	839	n/a	n/a	0	0	0
2256.169921875	n/a	REC_WORD	4620636	wordpools/wasnorm_wordpool_576.txt	LTP361	ltpFR2	4	8	RIVER	1194	n/a	n/a	0	0	0
2257.42578125	n/a	REC_WORD	4623208	wordpools/wasnorm_wordpool_576.txt	LTP361	ltpFR2	4	8	HIKER	708	n/a	n/a	0	0	0
2258.203125	n/a	REC_WORD	4624800	wordpools/wasnorm_wordpool_576.txt	LTP361	ltpFR2	4	8	RIFLE	1192	n/a	n/a	0	0	0
2258.93310546875	n/a	REC_WORD	4626295	wordpools/wasnorm_wordpool_576.txt	LTP361	ltpFR2	4	8	WORKER	1621	n/a	n/a	0	0	0
2259.6787109375	n/a	REC_WORD	4627822	wordpools/wasnorm_wordpool_576.txt	LTP361	ltpFR2	4	8	TYPIST	1532	n/a	n/a	0	0	0
2260.2880859375	n/a	REC_WORD	4629070	wordpools/wasnorm_wordpool_576.txt	LTP361	ltpFR2	4	8	FIREPLACE	570	n/a	n/a	0	0	0
2261.15380859375	n/a	REC_WORD	4630843	wordpools/wasnorm_wordpool_576.txt	LTP361	ltpFR2	4	8	FRUIT	610	n/a	n/a	0	0	0
2261.9169921875	n/a	REC_WORD	4632406	wordpools/wasnorm_wordpool_576.txt	LTP361	ltpFR2	4	8	ORANGE	980	n/a	n/a	0	0	0
2281.34130859375	n/a	REC_WORD	4672187	wordpools/wasnorm_wordpool_576.txt	LTP361	ltpFR2	4	8	TURKEY	1520	n/a	n/a	0	0	0
2282.16845703125	n/a	REC_WORD	4673881	wordpools/wasnorm_wordpool_576.txt	LTP361	ltpFR2	4	8	COD	340	n/a	n/a	0	0	0
2282.9814453125	n/a	REC_WORD	4675546	wordpools/wasnorm_wordpool_576.txt	LTP361	ltpFR2	4	8	CARROT	249	n/a	n/a	0	0	0
2286.33642578125	n/a	REC_WORD	4682417	wordpools/wasnorm_wordpool_576.txt	LTP361	ltpFR2	4	8	RIVER	1194	n/a	n/a	0	0	0
2297.06689453125	n/a	REC_WORD	4704393	wordpools/wasnorm_wordpool_576.txt	LTP361	ltpFR2	4	8	FLESH	579	n/a	n/a	0	0	0
2298.7060546875	n/a	REC_WORD	4707750	wordpools/wasnorm_wordpool_576.txt	LTP361	ltpFR2	4	8	FLESH	579	n/a	n/a	0	0	0
2326.248046875	n/a	REST_REWET	4764156	n/a	LTP361	ltpFR2	4	8	n/a	n/a	n/a	n/a	0	0	0
2558.27685546875	n/a	WORD	5239351	wordpools/wasnorm_wordpool_576.txt	LTP361	ltpFR2	4	9	CRICKET	408	n/a	n/a	0	0	0
2561.052734375	n/a	WORD	5245036	wordpools/wasnorm_wordpool_576.txt	LTP361	ltpFR2	4	9	CRIB	407	n/a	n/a	0	0	0
2563.7275390625	n/a	WORD	5250514	wordpools/wasnorm_wordpool_576.txt	LTP361	ltpFR2	4	9	SHELF	1280	n/a	n/a	0	0	0
2566.45263671875	n/a	WORD	5256095	wordpools/wasnorm_wordpool_576.txt	LTP361	ltpFR2	4	9	PICTURE	1061	n/a	n/a	0	0	0
2569.228515625	n/a	WORD	5261780	wordpools/wasnorm_wordpool_576.txt	LTP361	ltpFR2	4	9	COCOON	339	n/a	n/a	0	0	0
2571.66943359375	n/a	WORD	5266779	wordpools/wasnorm_wordpool_576.txt	LTP361	ltpFR2	4	9	AIRPLANE	12	n/a	n/a	0	0	0
2574.361328125	n/a	WORD	5272292	wordpools/wasnorm_wordpool_576.txt	LTP361	ltpFR2	4	9	QUARTER	1148	n/a	n/a	0	0	0
2577.0029296875	n/a	WORD	5277702	wordpools/wasnorm_wordpool_576.txt	LTP361	ltpFR2	4	9	SCOTCH	1251	n/a	n/a	0	0	0
2579.6279296875	n/a	WORD	5283078	wordpools/wasnorm_wordpool_576.txt	LTP361	ltpFR2	4	9	PIGMENT	1066	n/a	n/a	0	0	0
2582.1201171875	n/a	WORD	5288182	wordpools/wasnorm_wordpool_576.txt	LTP361	ltpFR2	4	9	COIN	343	n/a	n/a	0	0	0
2584.81103515625	n/a	WORD	5293693	wordpools/wasnorm_wordpool_576.txt	LTP361	ltpFR2	4	9	POSTAGE	1113	n/a	n/a	0	0	0
2587.23583984375	n/a	WORD	5298659	wordpools/wasnorm_wordpool_576.txt	LTP361	ltpFR2	4	9	FLAG	573	n/a	n/a	0	0	0
2589.8095703125	n/a	WORD	5303930	wordpools/wasnorm_wordpool_576.txt	LTP361	ltpFR2	4	9	AUTHOR	61	n/a	n/a	0	0	0
2592.31884765625	n/a	WORD	5309069	wordpools/wasnorm_wordpool_576.txt	LTP361	ltpFR2	4	9	POET	1095	n/a	n/a	0	0	0
2594.86083984375	n/a	WORD	5314275	wordpools/wasnorm_wordpool_576.txt	LTP361	ltpFR2	4	9	BELLY	119	n/a	n/a	0	0	0
2597.48583984375	n/a	WORD	5319651	wordpools/wasnorm_wordpool_576.txt	LTP361	ltpFR2	4	9	STOMACH	1384	n/a	n/a	0	0	0
2600.2275390625	n/a	WORD	5325266	wordpools/wasnorm_wordpool_576.txt	LTP361	ltpFR2	4	9	PRINCE	1124	n/a	n/a	0	0	0
2602.70263671875	n/a	WORD	5330335	wordpools/wasnorm_wordpool_576.txt	LTP361	ltpFR2	4	9	TEACHER	1440	n/a	n/a	0	0	0
2605.12744140625	n/a	WORD	5335301	wordpools/wasnorm_wordpool_576.txt	LTP361	ltpFR2	4	9	INFANT	737	n/a	n/a	0	0	0
2607.7021484375	n/a	WORD	5340574	wordpools/wasnorm_wordpool_576.txt	LTP361	ltpFR2	4	9	SKETCH	1315	n/a	n/a	0	0	0
2610.51123046875	n/a	WORD	5346327	wordpools/wasnorm_wordpool_576.txt	LTP361	ltpFR2	4	9	PUDDING	1139	n/a	n/a	0	0	0
2613.13623046875	n/a	WORD	5351703	wordpools/wasnorm_wordpool_576.txt	LTP361	ltpFR2	4	9	PRIMATE	1123	n/a	n/a	0	0	0
2615.7109375	n/a	WORD	5356976	wordpools/wasnorm_wordpool_576.txt	LTP361	ltpFR2	4	9	CLOUD	328	n/a	n/a	0	0	0
2618.2861328125	n/a	WORD	5362250	wordpools/wasnorm_wordpool_576.txt	LTP361	ltpFR2	4	9	PUDDLE	1140	n/a	n/a	0	0	0
2619.89111328125	n/a	START	5365537	n/a	LTP361	ltpFR2	4	n/a	n/a	n/a	13	n/a	n/a	n/a	n/a
2620.798828125	n/a	DISTRACTOR	5367396	n/a	LTP361	ltpFR2	4	9	n/a	n/a	n/a	n/a	0	0	0
2620.81005859375	n/a	PROB	5367419	n/a	LTP361	ltpFR2	4	n/a	n/a	n/a	13	14	9	4	1
2622.93408203125	n/a	PROB	5371769	n/a	LTP361	ltpFR2	4	n/a	n/a	n/a	13	11	2	3	6
2624.94091796875	n/a	PROB	5375879	n/a	LTP361	ltpFR2	4	n/a	n/a	n/a	13	9	1	3	5
2626.712890625	n/a	PROB	5379508	n/a	LTP361	ltpFR2	4	n/a	n/a	n/a	13	17	5	6	6
2628.1337890625	n/a	PROB	5382418	n/a	LTP361	ltpFR2	4	n/a	n/a	n/a	13	15	4	5	6
2629.72265625	n/a	PROB	5385672	n/a	LTP361	ltpFR2	4	n/a	n/a	n/a	13	14	1	8	5
2632.130859375	n/a	PROB	5390604	n/a	LTP361	ltpFR2	4	n/a	n/a	n/a	13	19	8	9	2
2633.7685546875	n/a	PROB	5393958	n/a	LTP361	ltpFR2	4	n/a	n/a	n/a	13	6	1	2	3
2634.90576171875	n/a	PROB	5396287	n/a	LTP361	ltpFR2	4	n/a	n/a	n/a	13	15	6	7	2
2636.57763671875	n/a	PROB	5399711	n/a	LTP361	ltpFR2	4	n/a	n/a	n/a	13	8	1	4	3
2637.83251953125	n/a	PROB	5402281	n/a	LTP361	ltpFR2	4	n/a	n/a	n/a	13	16	6	7	3
2639.1025390625	n/a	PROB	5404882	n/a	LTP361	ltpFR2	4	n/a	n/a	n/a	13	17	3	6	8
2640.8076171875	n/a	PROB	5408374	n/a	LTP361	ltpFR2	4	n/a	n/a	n/a	13	13	3	9	1
2642.01220703125	n/a	PROB	5410841	n/a	LTP361	ltpFR2	4	n/a	n/a	n/a	13	14	7	2	5
2643.63916015625	n/a	STOP	5414173	n/a	LTP361	ltpFR2	4	n/a	n/a	n/a	13	n/a	n/a	n/a	n/a
2645.7412109375	n/a	REC_START	5418478	n/a	LTP361	ltpFR2	4	9	n/a	n/a	n/a	n/a	0	0	0
2647.02099609375	n/a	REC_WORD	5421099	wordpools/wasnorm_wordpool_576.txt	LTP361	ltpFR2	4	9	INFANT	737	n/a	n/a	0	0	0
2647.9462890625	n/a	REC_WORD	5422994	wordpools/wasnorm_wordpool_576.txt	LTP361	ltpFR2	4	9	CRIB	407	n/a	n/a	0	0	0
2648.94140625	n/a	REC_WORD	5425032	wordpools/wasnorm_wordpool_576.txt	LTP361	ltpFR2	4	9	TEACHER	1440	n/a	n/a	0	0	0
2649.80517578125	n/a	REC_WORD	5426801	wordpools/wasnorm_wordpool_576.txt	LTP361	ltpFR2	4	9	PRINCE	1124	n/a	n/a	0	0	0
2650.55908203125	n/a	REC_WORD	5428345	wordpools/wasnorm_wordpool_576.txt	LTP361	ltpFR2	4	9	PRIMATE	1123	n/a	n/a	0	0	0
2651.697265625	n/a	REC_WORD	5430676	wordpools/wasnorm_wordpool_576.txt	LTP361	ltpFR2	4	9	AUTHOR	61	n/a	n/a	0	0	0
2652.60595703125	n/a	REC_WORD	5432537	wordpools/wasnorm_wordpool_576.txt	LTP361	ltpFR2	4	9	POET	1095	n/a	n/a	0	0	0
2653.3701171875	n/a	REC_WORD	5434102	wordpools/wasnorm_wordpool_576.txt	LTP361	ltpFR2	4	9	SKETCH	1315	n/a	n/a	0	0	0
2654.412109375	n/a	REC_WORD	5436236	wordpools/wasnorm_wordpool_576.txt	LTP361	ltpFR2	4	9	PUDDING	1139	n/a	n/a	0	0	0
2656.58203125	n/a	REC_WORD	5440680	wordpools/wasnorm_wordpool_576.txt	LTP361	ltpFR2	4	9	PUDDLE	1140	n/a	n/a	0	0	0
2657.5087890625	n/a	REC_WORD	5442578	wordpools/wasnorm_wordpool_576.txt	LTP361	ltpFR2	4	9	AIRPLANE	12	n/a	n/a	0	0	0
2658.40771484375	n/a	REC_WORD	5444419	wordpools/wasnorm_wordpool_576.txt	LTP361	ltpFR2	4	9	POSTAGE	1113	n/a	n/a	0	0	0
2659.32568359375	n/a	REC_WORD	5446299	wordpools/wasnorm_wordpool_576.txt	LTP361	ltpFR2	4	9	FLAG	573	n/a	n/a	0	0	0
2660.86865234375	n/a	REC_WORD	5449459	wordpools/wasnorm_wordpool_576.txt	LTP361	ltpFR2	4	9	CLOUD	328	n/a	n/a	0	0	0
2669.34765625	n/a	REC_WORD	5466824	wordpools/wasnorm_wordpool_576.txt	LTP361	ltpFR2	4	9	SHELF	1280	n/a	n/a	0	0	0
2670.2646484375	n/a	REC_WORD	5468702	wordpools/wasnorm_wordpool_576.txt	LTP361	ltpFR2	4	9	PICTURE	1061	n/a	n/a	0	0	0
2677.12060546875	n/a	REC_WORD	5482743	wordpools/wasnorm_wordpool_576.txt	LTP361	ltpFR2	4	9	PRIMATE	1123	n/a	n/a	0	0	0
2688.28125	n/a	REC_WORD	5505600	wordpools/wasnorm_wordpool_576.txt	LTP361	ltpFR2	4	9	TEACHER	1440	n/a	n/a	0	0	0
2736.21484375	n/a	WORD	5603768	wordpools/wasnorm_wordpool_576.txt	LTP361	ltpFR2	4	10	OUTLAW	989	n/a	n/a	0	0	0
2738.689453125	n/a	WORD	5608836	wordpools/wasnorm_wordpool_576.txt	LTP361	ltpFR2	4	10	MATCH	878	n/a	n/a	0	0	0
2741.36474609375	n/a	WORD	5614315	wordpools/wasnorm_wordpool_576.txt	LTP361	ltpFR2	4	10	CARRIAGE	248	n/a	n/a	0	0	0
2743.85546875	n/a	WORD	5619416	wordpools/wasnorm_wordpool_576.txt	LTP361	ltpFR2	4	10	TUNNEL	1519	n/a	n/a	0	0	0
2746.58154296875	n/a	WORD	5624999	wordpools/wasnorm_wordpool_576.txt	LTP361	ltpFR2	4	10	OUTFIT	988	n/a	n/a	0	0	0
2749.2734375	n/a	WORD	5630512	wordpools/wasnorm_wordpool_576.txt	LTP361	ltpFR2	4	10	KNAPSACK	783	n/a	n/a	0	0	0
2751.99853515625	n/a	WORD	5636093	wordpools/wasnorm_wordpool_576.txt	LTP361	ltpFR2	4	10	TEMPLE	1448	n/a	n/a	0	0	0
2754.7734375	n/a	WORD	5641776	wordpools/wasnorm_wordpool_576.txt	LTP361	ltpFR2	4	10	FILM	565	n/a	n/a	0	0	0
2757.44921875	n/a	WORD	5647256	wordpools/wasnorm_wordpool_576.txt	LTP361	ltpFR2	4	10	ACTRESS	6	n/a	n/a	0	0	0
2760.02392578125	n/a	WORD	5652529	wordpools/wasnorm_wordpool_576.txt	LTP361	ltpFR2	4	10	SAUSAGE	1238	n/a	n/a	0	0	0
2762.73291015625	n/a	WORD	5658077	wordpools/wasnorm_wordpool_576.txt	LTP361	ltpFR2	4	10	SALAD	1224	n/a	n/a	0	0	0
2765.458984375	n/a	WORD	5663660	wordpools/wasnorm_wordpool_576.txt	LTP361	ltpFR2	4	10	GAVEL	627	n/a	n/a	0	0	0
2768.1669921875	n/a	WORD	5669206	wordpools/wasnorm_wordpool_576.txt	LTP361	ltpFR2	4	10	CIGAR	308	n/a	n/a	0	0	0
2770.60888671875	n/a	WORD	5674207	wordpools/wasnorm_wordpool_576.txt	LTP361	ltpFR2	4	10	BASEMENT	94	n/a	n/a	0	0	0
2773.015625	n/a	WORD	5679136	wordpools/wasnorm_wordpool_576.txt	LTP361	ltpFR2	4	10	THRONE	1461	n/a	n/a	0	0	0
2775.49072265625	n/a	WORD	5684205	wordpools/wasnorm_wordpool_576.txt	LTP361	ltpFR2	4	10	BANK	83	n/a	n/a	0	0	0
2777.91552734375	n/a	WORD	5689171	wordpools/wasnorm_wordpool_576.txt	LTP361	ltpFR2	4	10	GLOBE	641	n/a	n/a	0	0	0
2780.439453125	n/a	WORD	5694340	wordpools/wasnorm_wordpool_576.txt	LTP361	ltpFR2	4	10	PISTON	1076	n/a	n/a	0	0	0
2783.1826171875	n/a	WORD	5699958	wordpools/wasnorm_wordpool_576.txt	LTP361	ltpFR2	4	10	SPOUSE	1358	n/a	n/a	0	0	0
2785.65625	n/a	WORD	5705024	wordpools/wasnorm_wordpool_576.txt	LTP361	ltpFR2	4	10	CAMEL	223	n/a	n/a	0	0	0
2788.08154296875	n/a	WORD	5709991	wordpools/wasnorm_wordpool_576.txt	LTP361	ltpFR2	4	10	MUMMY	932	n/a	n/a	0	0	0
2790.6064453125	n/a	WORD	5715162	wordpools/wasnorm_wordpool_576.txt	LTP361	ltpFR2	4	10	CLIMBER	323	n/a	n/a	0	0	0
2793.1640625	n/a	WORD	5720400	wordpools/wasnorm_wordpool_576.txt	LTP361	ltpFR2	4	10	GIFT	635	n/a	n/a	0	0	0
2795.7880859375	n/a	WORD	5725774	wordpools/wasnorm_wordpool_576.txt	LTP361	ltpFR2	4	10	PACKAGE	997	n/a	n/a	0	0	0
2797.39501953125	n/a	START	5729065	n/a	LTP361	ltpFR2	4	n/a	n/a	n/a	14	n/a	n/a	n/a	n/a
2798.2109375	n/a	DISTRACTOR	5730736	n/a	LTP361	ltpFR2	4	10	n/a	n/a	n/a	n/a	0	0	0
2798.2138671875	n/a	PROB	5730742	n/a	LTP361	ltpFR2	4	n/a	n/a	n/a	14	21	8	4	9
2800.47119140625	n/a	PROB	5735365	n/a	LTP361	ltpFR2	4	n/a	n/a	n/a	14	6	3	2	1
2801.77392578125	n/a	PROB	5738033	n/a	LTP361	ltpFR2	4	n/a	n/a	n/a	14	11	1	4	6
2803.1796875	n/a	PROB	5740912	n/a	LTP361	ltpFR2	4	n/a	n/a	n/a	14	24	9	9	6
2805.50390625	n/a	PROB	5745672	n/a	LTP361	ltpFR2	4	n/a	n/a	n/a	14	16	9	4	3
2807.2099609375	n/a	PROB	5749166	n/a	LTP361	ltpFR2	4	n/a	n/a	n/a	14	11	2	2	7
2809.16552734375	n/a	PROB	5753171	n/a	LTP361	ltpFR2	4	n/a	n/a	n/a	14	11	7	3	1
2810.837890625	n/a	PROB	5756596	n/a	LTP361	ltpFR2	4	n/a	n/a	n/a	14	23	8	6	9
2813.49658203125	n/a	PROB	5762041	n/a	LTP361	ltpFR2	4	n/a	n/a	n/a	14	14	4	1	9
2815.1513671875	n/a	PROB	5765430	n/a	LTP361	ltpFR2	4	n/a	n/a	n/a	14	15	2	4	9
2816.6064453125	n/a	PROB	5768410	n/a	LTP361	ltpFR2	4	n/a	n/a	n/a	14	13	3	8	2
2818.6123046875	n/a	PROB	5772518	n/a	LTP361	ltpFR2	4	n/a	n/a	n/a	14	19	8	5	6
2820.271484375	n/a	STOP	5775916	n/a	LTP361	ltpFR2	4	n/a	n/a	n/a	14	n/a	n/a	n/a	n/a
2823.26123046875	n/a	REC_START	5782039	n/a	LTP361	ltpFR2	4	10	n/a	n/a	n/a	n/a	0	0	0
2826.7001953125	n/a	REC_WORD	5789082	wordpools/wasnorm_wordpool_576.txt	LTP361	ltpFR2	4	10	ACTRESS	6	n/a	n/a	0	0	0
2827.77734375	n/a	REC_WORD	5791288	wordpools/wasnorm_wordpool_576.txt	LTP361	ltpFR2	4	10	FILM	565	n/a	n/a	0	0	0
2828.94140625	n/a	REC_WORD	5793672	wordpools/wasnorm_wordpool_576.txt	LTP361	ltpFR2	4	10	TUNNEL	1519	n/a	n/a	0	0	0
2829.93408203125	n/a	REC_WORD	5795705	wordpools/wasnorm_wordpool_576.txt	LTP361	ltpFR2	4	10	TEMPLE	1448	n/a	n/a	0	0	0
2830.89990234375	n/a	REC_WORD	5797683	wordpools/wasnorm_wordpool_576.txt	LTP361	ltpFR2	4	10	BANK	83	n/a	n/a	0	0	0
2831.67529296875	n/a	REC_WORD	5799271	wordpools/wasnorm_wordpool_576.txt	LTP361	ltpFR2	4	10	THRONE	1461	n/a	n/a	0	0	0
2832.76318359375	n/a	REC_WORD	5801499	wordpools/wasnorm_wordpool_576.txt	LTP361	ltpFR2	4	10	BASEMENT	94	n/a	n/a	0	0	0
2833.77099609375	n/a	REC_WORD	5803563	wordpools/wasnorm_wordpool_576.txt	LTP361	ltpFR2	4	10	GAVEL	627	n/a	n/a	0	0	0
2836.73876953125	n/a	REC_WORD	5809641	wordpools/wasnorm_wordpool_576.txt	LTP361	ltpFR2	4	10	CIGAR	308	n/a	n/a	0	0	0
2837.77392578125	n/a	REC_WORD	5811761	wordpools/wasnorm_wordpool_576.txt	LTP361	ltpFR2	4	10	OUTLAW	989	n/a	n/a	0	0	0
2838.68408203125	n/a	REC_WORD	5813625	wordpools/wasnorm_wordpool_576.txt	LTP361	ltpFR2	4	10	OUTFIT	988	n/a	n/a	0	0	0
2839.81982421875	n/a	REC_WORD	5815951	wordpools/wasnorm_wordpool_576.txt	LTP361	ltpFR2	4	10	KNAPSACK	783	n/a	n/a	0	0	0
2841.02197265625	n/a	REC_WORD	5818413	wordpools/wasnorm_wordpool_576.txt	LTP361	ltpFR2	4	10	BANK	83	n/a	n/a	0	0	0
2841.83984375	n/a	REC_WORD	5820088	wordpools/wasnorm_wordpool_576.txt	LTP361	ltpFR2	4	10	GLOBE	641	n/a	n/a	0	0	0
2842.82958984375	n/a	REC_WORD	5822115	wordpools/wasnorm_wordpool_576.txt	LTP361	ltpFR2	4	10	CLIMBER	323	n/a	n/a	0	0	0
2843.72802734375	n/a	REC_WORD	5823955	wordpools/wasnorm_wordpool_576.txt	LTP361	ltpFR2	4	10	PACKAGE	997	n/a	n/a	0	0	0
2844.77685546875	n/a	REC_WORD	5826103	wordpools/wasnorm_wordpool_576.txt	LTP361	ltpFR2	4	10	GIFT	635	n/a	n/a	0	0	0
2850.1328125	n/a	REC_WORD	5837072	wordpools/wasnorm_wordpool_576.txt	LTP361	ltpFR2	4	10	OUTFIT	988	n/a	n/a	0	0	0
2860.62646484375	n/a	REC_WORD	5858563	wordpools/wasnorm_wordpool_576.txt	LTP361	ltpFR2	4	10	CARRIAGE	248	n/a	n/a	0	0	0
2861.96630859375	n/a	REC_WORD	5861307	wordpools/wasnorm_wordpool_576.txt	LTP361	ltpFR2	4	10	SPOUSE	1358	n/a	n/a	0	0	0
2863.9853515625	n/a	REC_WORD	5865442	wordpools/wasnorm_wordpool_576.txt	LTP361	ltpFR2	4	10	CAMEL	223	n/a	n/a	0	0	0
2864.701171875	n/a	REC_WORD	5866908	wordpools/wasnorm_wordpool_576.txt	LTP361	ltpFR2	4	10	MUMMY	932	n/a	n/a	0	0	0
2871.166015625	n/a	REC_WORD	5880148	wordpools/wasnorm_wordpool_576.txt	LTP361	ltpFR2	4	10	PISTON	1076	n/a	n/a	0	0	0
3015.2109375	n/a	WORD	6175152	wordpools/wasnorm_wordpool_576.txt	LTP361	ltpFR2	4	11	OFFICE	972	n/a	n/a	0	0	0
3017.751953125	n/a	WORD	6180356	wordpools/wasnorm_wordpool_576.txt	LTP361	ltpFR2	4	11	JELLY	755	n/a	n/a	0	0	0
3020.31103515625	n/a	WORD	6185597	wordpools/wasnorm_wordpool_576.txt	LTP361	ltpFR2	4	11	GRAPE	654	n/a	n/a	0	0	0
3022.85205078125	n/a	WORD	6190801	wordpools/wasnorm_wordpool_576.txt	LTP361	ltpFR2	4	11	SHORTCAKE	1292	n/a	n/a	0	0	0
3025.52685546875	n/a	WORD	6196279	wordpools/wasnorm_wordpool_576.txt	LTP361	ltpFR2	4	11	SPOON	1357	n/a	n/a	0	0	0
3028.11865234375	n/a	WORD	6201587	wordpools/wasnorm_wordpool_576.txt	LTP361	ltpFR2	4	11	KETCHUP	771	n/a	n/a	0	0	0
3030.66064453125	n/a	WORD	6206793	wordpools/wasnorm_wordpool_576.txt	LTP361	ltpFR2	4	11	MOTEL	919	n/a	n/a	0	0	0
3033.435546875	n/a	WORD	6212476	wordpools/wasnorm_wordpool_576.txt	LTP361	ltpFR2	4	11	BOARD	143	n/a	n/a	0	0	0
3036.16162109375	n/a	WORD	6218059	wordpools/wasnorm_wordpool_576.txt	LTP361	ltpFR2	4	11	SHRUB	1299	n/a	n/a	0	0	0
3038.71923828125	n/a	WORD	6223297	wordpools/wasnorm_wordpool_576.txt	LTP361	ltpFR2	4	11	TABLE	1426	n/a	n/a	0	0	0
3041.46142578125	n/a	WORD	6228913	wordpools/wasnorm_wordpool_576.txt	LTP361	ltpFR2	4	11	COUCH	386	n/a	n/a	0	0	0
3043.9033203125	n/a	WORD	6233914	wordpools/wasnorm_wordpool_576.txt	LTP361	ltpFR2	4	11	FARMER	553	n/a	n/a	0	0	0
3046.5283203125	n/a	WORD	6239290	wordpools/wasnorm_wordpool_576.txt	LTP361	ltpFR2	4	11	DRESS	495	n/a	n/a	0	0	0
3049.119140625	n/a	WORD	6244596	wordpools/wasnorm_wordpool_576.txt	LTP361	ltpFR2	4	11	DENIM	446	n/a	n/a	0	0	0
3051.6611328125	n/a	WORD	6249802	wordpools/wasnorm_wordpool_576.txt	LTP361	ltpFR2	4	11	BUCKET	184	n/a	n/a	0	0	0
3054.119140625	n/a	WORD	6254836	wordpools/wasnorm_wordpool_576.txt	LTP361	ltpFR2	4	11	MAMMAL	861	n/a	n/a	0	0	0
3056.77685546875	n/a	WORD	6260279	wordpools/wasnorm_wordpool_576.txt	LTP361	ltpFR2	4	11	SANDWICH	1232	n/a	n/a	0	0	0
3059.53662109375	n/a	WORD	6265931	wordpools/wasnorm_wordpool_576.txt	LTP361	ltpFR2	4	11	POCKET	1093	n/a	n/a	0	0	0
3062.32861328125	n/a	WORD	6271649	wordpools/wasnorm_wordpool_576.txt	LTP361	ltpFR2	4	11	PLAID	1080	n/a	n/a	0	0	0
3064.9208984375	n/a	WORD	6276958	wordpools/wasnorm_wordpool_576.txt	LTP361	ltpFR2	4	11	SUITCASE	1403	n/a	n/a	0	0	0
3067.71240234375	n/a	WORD	6282675	wordpools/wasnorm_wordpool_576.txt	LTP361	ltpFR2	4	11	GREASE	660	n/a	n/a	0	0	0
3070.4716796875	n/a	WORD	6288326	wordpools/wasnorm_wordpool_576.txt	LTP361	ltpFR2	4	11	BRANDY	169	n/a	n/a	0	0	0
3073.24755859375	n/a	WORD	6294011	wordpools/wasnorm_wordpool_576.txt	LTP361	ltpFR2	4	11	FLASK	576	n/a	n/a	0	0	0
3075.73828125	n/a	WORD	6299112	wordpools/wasnorm_wordpool_576.txt	LTP361	ltpFR2	4	11	PECAN	1036	n/a	n/a	0	0	0
3077.34423828125	n/a	START	6302401	n/a	LTP361	ltpFR2	4	n/a	n/a	n/a	15	n/a	n/a	n/a	n/a
3078.17431640625	n/a	DISTRACTOR	6304101	n/a	LTP361	ltpFR2	4	11	n/a	n/a	n/a	n/a	0	0	0
3078.17919921875	n/a	PROB	6304111	n/a	LTP361	ltpFR2	4	n/a	n/a	n/a	15	26	9	9	8
3080.9384765625	n/a	PROB	6309762	n/a	LTP361	ltpFR2	4	n/a	n/a	n/a	15	21	8	7	6
3083.7802734375	n/a	PROB	6315582	n/a	LTP361	ltpFR2	4	n/a	n/a	n/a	15	19	5	9	5
3085.669921875	n/a	PROB	6319452	n/a	LTP361	ltpFR2	4	n/a	n/a	n/a	15	13	4	8	1
3087.25927734375	n/a	PROB	6322707	n/a	LTP361	ltpFR2	4	n/a	n/a	n/a	15	17	9	4	4
3089.03125	n/a	PROB	6326336	n/a	LTP361	ltpFR2	4	n/a	n/a	n/a	15	14	5	3	6
3092.19091796875	n/a	PROB	6332807	n/a	LTP361	ltpFR2	4	n/a	n/a	n/a	15	11	1	5	5
3093.31201171875	n/a	PROB	6335103	n/a	LTP361	ltpFR2	4	n/a	n/a	n/a	15	9	4	4	1
3094.46484375	n/a	PROB	6337464	n/a	LTP361	ltpFR2	4	n/a	n/a	n/a	15	10	4	3	3
3096.43798828125	n/a	PROB	6341505	n/a	LTP361	ltpFR2	4	n/a	n/a	n/a	15	16	8	7	1
3097.74267578125	n/a	PROB	6344177	n/a	LTP361	ltpFR2	4	n/a	n/a	n/a	15	14	2	7	5
3099.46484375	n/a	PROB	6347704	n/a	LTP361	ltpFR2	4	n/a	n/a	n/a	15	7	5	1	1
3100.46484375	n/a	STOP	6349752	n/a	LTP361	ltpFR2	4	n/a	n/a	n/a	15	n/a	n/a	n/a	n/a
3103.1435546875	n/a	REC_START	6355238	n/a	LTP361	ltpFR2	4	11	n/a	n/a	n/a	n/a	0	0	0
3106.16845703125	n/a	REC_WORD	6361433	wordpools/wasnorm_wordpool_576.txt	LTP361	ltpFR2	4	11	DENIM	446	n/a	n/a	0	0	0
3107.4033203125	n/a	REC_WORD	6363962	wordpools/wasnorm_wordpool_576.txt	LTP361	ltpFR2	4	11	PLAID	1080	n/a	n/a	0	0	0
3108.44140625	n/a	REC_WORD	6366088	wordpools/wasnorm_wordpool_576.txt	LTP361	ltpFR2	4	11	FARMER	553	n/a	n/a	0	0	0
3109.54443359375	n/a	REC_WORD	6368347	wordpools/wasnorm_wordpool_576.txt	LTP361	ltpFR2	4	11	DRESS	495	n/a	n/a	0	0	0
3110.82421875	n/a	REC_WORD	6370968	wordpools/wasnorm_wordpool_576.txt	LTP361	ltpFR2	4	11	COUCH	386	n/a	n/a	0	0	0
3111.826171875	n/a	REC_WORD	6373020	wordpools/wasnorm_wordpool_576.txt	LTP361	ltpFR2	4	11	TABLE	1426	n/a	n/a	0	0	0
3112.7021484375	n/a	REC_WORD	6374814	wordpools/wasnorm_wordpool_576.txt	LTP361	ltpFR2	4	11	MAMMAL	861	n/a	n/a	0	0	0
3113.947265625	n/a	REC_WORD	6377364	wordpools/wasnorm_wordpool_576.txt	LTP361	ltpFR2	4	11	GRAPE	654	n/a	n/a	0	0	0
3117.2001953125	n/a	REC_WORD	6384026	wordpools/wasnorm_wordpool_576.txt	LTP361	ltpFR2	4	11	GRAPE	654	n/a	n/a	0	0	0
3119.26904296875	n/a	REC_WORD	6388263	wordpools/wasnorm_wordpool_576.txt	LTP361	ltpFR2	4	11	OFFICE	972	n/a	n/a	0	0	0
3120.26025390625	n/a	REC_WORD	6390293	wordpools/wasnorm_wordpool_576.txt	LTP361	ltpFR2	4	11	JELLY	755	n/a	n/a	0	0	0
3122.0712890625	n/a	REC_WORD	6394002	wordpools/wasnorm_wordpool_576.txt	LTP361	ltpFR2	4	11	KETCHUP	771	n/a	n/a	0	0	0
3122.669921875	n/a	REC_WORD	6395228	wordpools/wasnorm_wordpool_576.txt	LTP361	ltpFR2	4	11	SPOON	1357	n/a	n/a	0	0	0
3123.59326171875	n/a	REC_WORD	6397119	wordpools/wasnorm_wordpool_576.txt	LTP361	ltpFR2	4	11	SHORTCAKE	1292	n/a	n/a	0	0	0
3125.60986328125	n/a	REC_WORD	6401249	wordpools/wasnorm_wordpool_576.txt	LTP361	ltpFR2	4	11	BOARD	143	n/a	n/a	0	0	0
3126.5908203125	n/a	REC_WORD	6403258	wordpools/wasnorm_wordpool_576.txt	LTP361	ltpFR2	4	11	MOTEL	919	n/a	n/a	0	0	0
3133.259765625	n/a	REC_WORD	6416916	wordpools/wasnorm_wordpool_576.txt	LTP361	ltpFR2	4	11	DRESS	495	n/a	n/a	0	0	0
3137.74560546875	n/a	REC_WORD	6426103	wordpools/wasnorm_wordpool_576.txt	LTP361	ltpFR2	4	11	DENIM	446	n/a	n/a	0	0	0
3193.60009765625	n/a	WORD	6540493	wordpools/wasnorm_wordpool_576.txt	LTP361	ltpFR2	4	12	ROBOT	1200	n/a	n/a	0	0	0
3196.2421875	n/a	WORD	6545904	wordpools/wasnorm_wordpool_576.txt	LTP361	ltpFR2	4	12	EXPERT	543	n/a	n/a	0	0	0
3198.6669921875	n/a	WORD	6550870	wordpools/wasnorm_wordpool_576.txt	LTP361	ltpFR2	4	12	HOOD	714	n/a	n/a	0	0	0
3201.2578125	n/a	WORD	6556176	wordpools/wasnorm_wordpool_576.txt	LTP361	ltpFR2	4	12	CANYON	235	n/a	n/a	0	0	0
3203.81689453125	n/a	WORD	6561417	wordpools/wasnorm_wordpool_576.txt	LTP361	ltpFR2	4	12	WAGON	1578	n/a	n/a	0	0	0
3206.32568359375	n/a	WORD	6566555	wordpools/wasnorm_wordpool_576.txt	LTP361	ltpFR2	4	12	ZEBRA	1635	n/a	n/a	0	0	0
3209.0498046875	n/a	WORD	6572134	wordpools/wasnorm_wordpool_576.txt	LTP361	ltpFR2	4	12	TUTU	1524	n/a	n/a	0	0	0
3211.62451171875	n/a	WORD	6577407	wordpools/wasnorm_wordpool_576.txt	LTP361	ltpFR2	4	12	BUGGY	188	n/a	n/a	0	0	0
3214.3505859375	n/a	WORD	6582990	wordpools/wasnorm_wordpool_576.txt	LTP361	ltpFR2	4	12	CREVICE	405	n/a	n/a	0	0	0
3217.09228515625	n/a	WORD	6588605	wordpools/wasnorm_wordpool_576.txt	LTP361	ltpFR2	4	12	MAILBOX	857	n/a	n/a	0	0	0
3219.533203125	n/a	WORD	6593604	wordpools/wasnorm_wordpool_576.txt	LTP361	ltpFR2	4	12	ORCHID	982	n/a	n/a	0	0	0
3221.97412109375	n/a	WORD	6598603	wordpools/wasnorm_wordpool_576.txt	LTP361	ltpFR2	4	12	GARDEN	623	n/a	n/a	0	0	0
3224.783203125	n/a	WORD	6604356	wordpools/wasnorm_wordpool_576.txt	LTP361	ltpFR2	4	12	ROD	1203	n/a	n/a	0	0	0
3227.375	n/a	WORD	6609664	wordpools/wasnorm_wordpool_576.txt	LTP361	ltpFR2	4	12	UMPIRE	1535	n/a	n/a	0	0	0
3230.0	n/a	WORD	6615040	wordpools/wasnorm_wordpool_576.txt	LTP361	ltpFR2	4	12	VALLEY	1545	n/a	n/a	0	0	0
3232.77490234375	n/a	WORD	6620723	wordpools/wasnorm_wordpool_576.txt	LTP361	ltpFR2	4	12	ATOM	55	n/a	n/a	0	0	0
3235.51806640625	n/a	WORD	6626341	wordpools/wasnorm_wordpool_576.txt	LTP361	ltpFR2	4	12	MISSILE	900	n/a	n/a	0	0	0
3238.2607421875	n/a	WORD	6631958	wordpools/wasnorm_wordpool_576.txt	LTP361	ltpFR2	4	12	XEROX	1628	n/a	n/a	0	0	0
3240.8359375	n/a	WORD	6637232	wordpools/wasnorm_wordpool_576.txt	LTP361	ltpFR2	4	12	PASTA	1021	n/a	n/a	0	0	0
3243.259765625	n/a	WORD	6642196	wordpools/wasnorm_wordpool_576.txt	LTP361	ltpFR2	4	12	SEAGULL	1261	n/a	n/a	0	0	0
3245.81787109375	n/a	WORD	6647435	wordpools/wasnorm_wordpool_576.txt	LTP361	ltpFR2	4	12	SPHINX	1349	n/a	n/a	0	0	0
3248.57666015625	n/a	WORD	6653085	wordpools/wasnorm_wordpool_576.txt	LTP361	ltpFR2	4	12	WINDOW	1611	n/a	n/a	0	0	0
3251.36962890625	n/a	WORD	6658805	wordpools/wasnorm_wordpool_576.txt	LTP361	ltpFR2	4	12	AGENT	10	n/a	n/a	0	0	0
3254.12841796875	n/a	WORD	6664455	wordpools/wasnorm_wordpool_576.txt	LTP361	ltpFR2	4	12	MATTRESS	879	n/a	n/a	0	0	0
3255.7333984375	n/a	START	6667742	n/a	LTP361	ltpFR2	4	n/a	n/a	n/a	16	n/a	n/a	n/a	n/a
3256.857421875	n/a	DISTRACTOR	6670044	n/a	LTP361	ltpFR2	4	12	n/a	n/a	n/a	n/a	0	0	0
3256.87060546875	n/a	PROB	6670071	n/a	LTP361	ltpFR2	4	n/a	n/a	n/a	16	16	2	7	7
3259.060546875	n/a	PROB	6674556	n/a	LTP361	ltpFR2	4	n/a	n/a	n/a	16	6	2	2	2
3260.04736328125	n/a	PROB	6676577	n/a	LTP361	ltpFR2	4	n/a	n/a	n/a	16	15	7	6	2
3261.50244140625	n/a	PROB	6679557	n/a	LTP361	ltpFR2	4	n/a	n/a	n/a	16	14	3	2	9
3262.97314453125	n/a	PROB	6682569	n/a	LTP361	ltpFR2	4	n/a	n/a	n/a	16	15	3	6	6
3264.6953125	n/a	PROB	6686096	n/a	LTP361	ltpFR2	4	n/a	n/a	n/a	16	9	2	3	4
3266.26708984375	n/a	PROB	6689315	n/a	LTP361	ltpFR2	4	n/a	n/a	n/a	16	17	6	7	4
3268.60791015625	n/a	PROB	6694109	n/a	LTP361	ltpFR2	4	n/a	n/a	n/a	16	10	4	4	2
3270.02880859375	n/a	PROB	6697019	n/a	LTP361	ltpFR2	4	n/a	n/a	n/a	16	16	8	2	6
3271.4169921875	n/a	PROB	6699862	n/a	LTP361	ltpFR2	4	n/a	n/a	n/a	16	12	3	1	8
3272.8046875	n/a	PROB	6702704	n/a	LTP361	ltpFR2	4	n/a	n/a	n/a	16	17	7	5	5
3274.1259765625	n/a	PROB	6705410	n/a	LTP361	ltpFR2	4	n/a	n/a	n/a	16	17	7	6	4
3275.7138671875	n/a	PROB	6708662	n/a	LTP361	ltpFR2	4	n/a	n/a	n/a	16	17	3	9	5
3277.26904296875	n/a	PROB	6711847	n/a	LTP361	ltpFR2	4	n/a	n/a	n/a	16	22	9	8	5
3279.31298828125	n/a	STOP	6716033	n/a	LTP361	ltpFR2	4	n/a	n/a	n/a	16	n/a	n/a	n/a	n/a
3281.49951171875	n/a	REC_START	6720511	n/a	LTP361	ltpFR2	4	12	n/a	n/a	n/a	n/a	0	0	0
3284.91064453125	n/a	REC_WORD	6727497	wordpools/wasnorm_wordpool_576.txt	LTP361	ltpFR2	4	12	EXPERT	543	n/a	n/a	0	0	0
3285.75439453125	n/a	REC_WORD	6729225	wordpools/wasnorm_wordpool_576.txt	LTP361	ltpFR2	4	12	ROBOT	1200	n/a	n/a	0	0	0
3286.98876953125	n/a	REC_WORD	6731753	wordpools/wasnorm_wordpool_576.txt	LTP361	ltpFR2	4	12	CREVICE	405	n/a	n/a	0	0	0
3287.80859375	n/a	REC_WORD	6733432	wordpools/wasnorm_wordpool_576.txt	LTP361	ltpFR2	4	12	MAILBOX	857	n/a	n/a	0	0	0
3288.9765625	n/a	REC_WORD	6735824	wordpools/wasnorm_wordpool_576.txt	LTP361	ltpFR2	4	12	ORCHID	982	n/a	n/a	0	0	0
3289.88525390625	n/a	REC_WORD	6737685	wordpools/wasnorm_wordpool_576.txt	LTP361	ltpFR2	4	12	GARDEN	623	n/a	n/a	0	0	0
3290.67333984375	n/a	REC_WORD	6739299	wordpools/wasnorm_wordpool_576.txt	LTP361	ltpFR2	4	12	HOOD	714	n/a	n/a	0	0	0
3291.91357421875	n/a	REC_WORD	6741839	wordpools/wasnorm_wordpool_576.txt	LTP361	ltpFR2	4	12	ROD	1203	n/a	n/a	0	0	0
3293.4453125	n/a	REC_WORD	6744976	wordpools/wasnorm_wordpool_576.txt	LTP361	ltpFR2	4	12	WAGON	1578	n/a	n/a	0	0	0
3294.58056640625	n/a	REC_WORD	6747301	wordpools/wasnorm_wordpool_576.txt	LTP361	ltpFR2	4	12	ZEBRA	1635	n/a	n/a	0	0	0
3295.943359375	n/a	REC_WORD	6750092	wordpools/wasnorm_wordpool_576.txt	LTP361	ltpFR2	4	12	UMPIRE	1535	n/a	n/a	0	0	0
3299.2509765625	n/a	REC_WORD	6756866	wordpools/wasnorm_wordpool_576.txt	LTP361	ltpFR2	4	12	BUGGY	188	n/a	n/a	0	0	0
3302.06298828125	n/a	REC_WORD	6762625	wordpools/wasnorm_wordpool_576.txt	LTP361	ltpFR2	4	12	XEROX	1628	n/a	n/a	0	0	0
3304.576171875	n/a	REC_WORD	6767772	wordpools/wasnorm_wordpool_576.txt	LTP361	ltpFR2	4	12	SPHINX	1349	n/a	n/a	0	0	0
3306.23583984375	n/a	REC_WORD	6771171	wordpools/wasnorm_wordpool_576.txt	LTP361	ltpFR2	4	12	WINDOW	1611	n/a	n/a	0	0	0
3307.09912109375	n/a	REC_WORD	6772939	wordpools/wasnorm_wordpool_576.txt	LTP361	ltpFR2	4	12	MATTRESS	879	n/a	n/a	0	0	0
3308.07177734375	n/a	REC_WORD	6774931	wordpools/wasnorm_wordpool_576.txt	LTP361	ltpFR2	4	12	AGENT	10	n/a	n/a	0	0	0
3314.61669921875	n/a	REC_WORD	6788335	wordpools/wasnorm_wordpool_576.txt	LTP361	ltpFR2	4	12	CANYON	235	n/a	n/a	0	0	0
3315.78271484375	n/a	REC_WORD	6790723	wordpools/wasnorm_wordpool_576.txt	LTP361	ltpFR2	4	12	VALLEY	1545	n/a	n/a	0	0	0
3371.9560546875	n/a	WORD	6905766	wordpools/wasnorm_wordpool_576.txt	LTP361	ltpFR2	4	13	RUG	1215	n/a	n/a	0	0	0
3374.68212890625	n/a	WORD	6911349	wordpools/wasnorm_wordpool_576.txt	LTP361	ltpFR2	4	13	DANCER	437	n/a	n/a	0	0	0
3377.2900390625	n/a	WORD	6916690	wordpools/wasnorm_wordpool_576.txt	LTP361	ltpFR2	4	13	TART	1436	n/a	n/a	0	0	0
3379.73095703125	n/a	WORD	6921689	wordpools/wasnorm_wordpool_576.txt	LTP361	ltpFR2	4	13	VALVE	1546	n/a	n/a	0	0	0
3382.18896484375	n/a	WORD	6926723	wordpools/wasnorm_wordpool_576.txt	LTP361	ltpFR2	4	13	POSSUM	1112	n/a	n/a	0	0	0
3384.8818359375	n/a	WORD	6932238	wordpools/wasnorm_wordpool_576.txt	LTP361	ltpFR2	4	13	CABIN	211	n/a	n/a	0	0	0
3387.40576171875	n/a	WORD	6937407	wordpools/wasnorm_wordpool_576.txt	LTP361	ltpFR2	4	13	TRACTOR	1493	n/a	n/a	0	0	0
3390.0478515625	n/a	WORD	6942818	wordpools/wasnorm_wordpool_576.txt	LTP361	ltpFR2	4	13	PISTOL	1075	n/a	n/a	0	0	0
3392.47265625	n/a	WORD	6947784	wordpools/wasnorm_wordpool_576.txt	LTP361	ltpFR2	4	13	BARREL	91	n/a	n/a	0	0	0
3395.2646484375	n/a	WORD	6953502	wordpools/wasnorm_wordpool_576.txt	LTP361	ltpFR2	4	13	STREAM	1392	n/a	n/a	0	0	0
3397.75537109375	n/a	WORD	6958603	wordpools/wasnorm_wordpool_576.txt	LTP361	ltpFR2	4	13	CAPTIVE	240	n/a	n/a	0	0	0
3400.24755859375	n/a	WORD	6963707	wordpools/wasnorm_wordpool_576.txt	LTP361	ltpFR2	4	13	CEILING	265	n/a	n/a	0	0	0
3402.97216796875	n/a	WORD	6969287	wordpools/wasnorm_wordpool_576.txt	LTP361	ltpFR2	4	13	GROUND	666	n/a	n/a	0	0	0
3405.54736328125	n/a	WORD	6974561	wordpools/wasnorm_wordpool_576.txt	LTP361	ltpFR2	4	13	SUNRISE	1407	n/a	n/a	0	0	0
3408.3232421875	n/a	WORD	6980246	wordpools/wasnorm_wordpool_576.txt	LTP361	ltpFR2	4	13	SUNSET	1408	n/a	n/a	0	0	0
3410.998046875	n/a	WORD	6985724	wordpools/wasnorm_wordpool_576.txt	LTP361	ltpFR2	4	13	QUAIL	1147	n/a	n/a	0	0	0
3413.6240234375	n/a	WORD	6991102	wordpools/wasnorm_wordpool_576.txt	LTP361	ltpFR2	4	13	YACHT	1629	n/a	n/a	0	0	0
3416.1650390625	n/a	WORD	6996306	wordpools/wasnorm_wordpool_576.txt	LTP361	ltpFR2	4	13	PADDLE	1000	n/a	n/a	0	0	0
3418.60595703125	n/a	WORD	7001305	wordpools/wasnorm_wordpool_576.txt	LTP361	ltpFR2	4	13	RUST	1219	n/a	n/a	0	0	0
3421.11474609375	n/a	WORD	7006443	wordpools/wasnorm_wordpool_576.txt	LTP361	ltpFR2	4	13	SILK	1307	n/a	n/a	0	0	0
3423.8896484375	n/a	WORD	7012126	wordpools/wasnorm_wordpool_576.txt	LTP361	ltpFR2	4	13	PIZZA	1079	n/a	n/a	0	0	0
3426.36474609375	n/a	WORD	7017195	wordpools/wasnorm_wordpool_576.txt	LTP361	ltpFR2	4	13	TOMBSTONE	1478	n/a	n/a	0	0	0
3429.12353515625	n/a	WORD	7022845	wordpools/wasnorm_wordpool_576.txt	LTP361	ltpFR2	4	13	VELVET	1555	n/a	n/a	0	0	0
3431.9326171875	n/a	WORD	7028598	wordpools/wasnorm_wordpool_576.txt	LTP361	ltpFR2	4	13	LUMBER	848	n/a	n/a	0	0	0
3433.53759765625	n/a	START	7031885	n/a	LTP361	ltpFR2	4	n/a	n/a	n/a	17	n/a	n/a	n/a	n/a
3434.6015625	n/a	DISTRACTOR	7034064	n/a	LTP361	ltpFR2	4	13	n/a	n/a	n/a	n/a	0	0	0
3434.607421875	n/a	PROB	7034076	n/a	LTP361	ltpFR2	4	n/a	n/a	n/a	17	22	9	5	8
3437.63427734375	n/a	PROB	7040275	n/a	LTP361	ltpFR2	4	n/a	n/a	n/a	17	13	6	6	1
3438.80419921875	n/a	PROB	7042671	n/a	LTP361	ltpFR2	4	n/a	n/a	n/a	17	16	1	8	7
3440.1591796875	n/a	PROB	7045446	n/a	LTP361	ltpFR2	4	n/a	n/a	n/a	17	23	7	7	9
3441.96435546875	n/a	PROB	7049143	n/a	LTP361	ltpFR2	4	n/a	n/a	n/a	17	12	8	2	2
3443.369140625	n/a	PROB	7052020	n/a	LTP361	ltpFR2	4	n/a	n/a	n/a	17	12	6	4	2
3445.07421875	n/a	PROB	7055512	n/a	LTP361	ltpFR2	4	n/a	n/a	n/a	17	5	3	1	1
3446.49609375	n/a	PROB	7058424	n/a	LTP361	ltpFR2	4	n/a	n/a	n/a	17	20	4	8	8
3448.76904296875	n/a	PROB	7063079	n/a	LTP361	ltpFR2	4	n/a	n/a	n/a	17	16	4	9	3
3450.6259765625	n/a	PROB	7066882	n/a	LTP361	ltpFR2	4	n/a	n/a	n/a	17	15	5	8	2
3452.046875	n/a	PROB	7069792	n/a	LTP361	ltpFR2	4	n/a	n/a	n/a	17	15	9	3	3
3453.3349609375	n/a	PROB	7072430	n/a	LTP361	ltpFR2	4	n/a	n/a	n/a	17	11	3	4	4
3457.53662109375	n/a	STOP	7081035	n/a	LTP361	ltpFR2	4	n/a	n/a	n/a	17	n/a	n/a	n/a	n/a
3459.4716796875	n/a	REC_START	7084998	n/a	LTP361	ltpFR2	4	13	n/a	n/a	n/a	n/a	0	0	0
3461.95263671875	n/a	REC_WORD	7090079	wordpools/wasnorm_wordpool_576.txt	LTP361	ltpFR2	4	13	DANCER	437	n/a	n/a	0	0	0
3463.0498046875	n/a	REC_WORD	7092326	wordpools/wasnorm_wordpool_576.txt	LTP361	ltpFR2	4	13	SILK	1307	n/a	n/a	0	0	0
3464.79248046875	n/a	REC_WORD	7095895	wordpools/wasnorm_wordpool_576.txt	LTP361	ltpFR2	4	13	TRACTOR	1493	n/a	n/a	0	0	0
3468.26171875	n/a	REC_WORD	7103000	wordpools/wasnorm_wordpool_576.txt	LTP361	ltpFR2	4	13	CABIN	211	n/a	n/a	0	0	0
3469.279296875	n/a	REC_WORD	7105084	wordpools/wasnorm_wordpool_576.txt	LTP361	ltpFR2	4	13	STREAM	1392	n/a	n/a	0	0	0
3470.83154296875	n/a	REC_WORD	7108263	wordpools/wasnorm_wordpool_576.txt	LTP361	ltpFR2	4	13	YACHT	1629	n/a	n/a	0	0	0
3472.0625	n/a	REC_WORD	7110784	wordpools/wasnorm_wordpool_576.txt	LTP361	ltpFR2	4	13	PADDLE	1000	n/a	n/a	0	0	0
3472.9013671875	n/a	REC_WORD	7112502	wordpools/wasnorm_wordpool_576.txt	LTP361	ltpFR2	4	13	RUST	1219	n/a	n/a	0	0	0
3473.8955078125	n/a	REC_WORD	7114538	wordpools/wasnorm_wordpool_576.txt	LTP361	ltpFR2	4	13	QUAIL	1147	n/a	n/a	0	0	0
3474.814453125	n/a	REC_WORD	7116420	wordpools/wasnorm_wordpool_576.txt	LTP361	ltpFR2	4	13	PIZZA	1079	n/a	n/a	0	0	0
3476.85205078125	n/a	REC_WORD	7120593	wordpools/wasnorm_wordpool_576.txt	LTP361	ltpFR2	4	13	TOMBSTONE	1478	n/a	n/a	0	0	0
3477.7763671875	n/a	REC_WORD	7122486	wordpools/wasnorm_wordpool_576.txt	LTP361	ltpFR2	4	13	VELVET	1555	n/a	n/a	0	0	0
3479.5703125	n/a	REC_WORD	7126160	wordpools/wasnorm_wordpool_576.txt	LTP361	ltpFR2	4	13	PISTOL	1075	n/a	n/a	0	0	0
3480.77001953125	n/a	REC_WORD	7128617	wordpools/wasnorm_wordpool_576.txt	LTP361	ltpFR2	4	13	BARREL	91	n/a	n/a	0	0	0
3481.84130859375	n/a	REC_WORD	7130811	wordpools/wasnorm_wordpool_576.txt	LTP361	ltpFR2	4	13	CEILING	265	n/a	n/a	0	0	0
3482.93505859375	n/a	REC_WORD	7133051	wordpools/wasnorm_wordpool_576.txt	LTP361	ltpFR2	4	13	CAPTIVE	240	n/a	n/a	0	0	0
3493.31591796875	n/a	REC_WORD	7154311	wordpools/wasnorm_wordpool_576.txt	LTP361	ltpFR2	4	13	RUG	1215	n/a	n/a	0	0	0
3497.0556640625	n/a	REC_WORD	7161970	wordpools/wasnorm_wordpool_576.txt	LTP361	ltpFR2	4	13	VALVE	1546	n/a	n/a	0	0	0
3501.5654296875	n/a	REC_WORD	7171206	wordpools/wasnorm_wordpool_576.txt	LTP361	ltpFR2	4	13	SUNRISE	1407	n/a	n/a	0	0	0
3502.54638671875	n/a	REC_WORD	7173215	wordpools/wasnorm_wordpool_576.txt	LTP361	ltpFR2	4	13	SUNSET	1408	n/a	n/a	0	0	0
3549.9111328125	n/a	DISTRACTOR	7270218	n/a	LTP361	ltpFR2	4	14	n/a	n/a	n/a	n/a	0	0	0
3549.9111328125	n/a	START	7270218	n/a	LTP361	ltpFR2	4	n/a	n/a	n/a	18	n/a	n/a	n/a	n/a
3549.92822265625	n/a	PROB	7270253	n/a	LTP361	ltpFR2	4	n/a	n/a	n/a	18	12	2	3	7
3551.833984375	n/a	PROB	7274156	n/a	LTP361	ltpFR2	4	n/a	n/a	n/a	18	21	4	9	8
3554.7763671875	n/a	PROB	7280182	n/a	LTP361	ltpFR2	4	n/a	n/a	n/a	18	18	6	3	9
3556.89990234375	n/a	PROB	7284531	n/a	LTP361	ltpFR2	4	n/a	n/a	n/a	18	10	3	5	2
3558.38916015625	n/a	PROB	7287581	n/a	LTP361	ltpFR2	4	n/a	n/a	n/a	18	11	5	2	4
3559.9599609375	n/a	PROB	7290798	n/a	LTP361	ltpFR2	4	n/a	n/a	n/a	18	18	5	7	6
3561.61572265625	n/a	PROB	7294189	n/a	LTP361	ltpFR2	4	n/a	n/a	n/a	18	11	1	3	7
3563.220703125	n/a	PROB	7297476	n/a	LTP361	ltpFR2	4	n/a	n/a	n/a	18	6	1	2	3
3564.60888671875	n/a	PROB	7300319	n/a	LTP361	ltpFR2	4	n/a	n/a	n/a	18	21	5	9	7
3567.03271484375	n/a	PROB	7305283	n/a	LTP361	ltpFR2	4	n/a	n/a	n/a	18	11	4	4	3
3568.6376953125	n/a	PROB	7308570	n/a	LTP361	ltpFR2	4	n/a	n/a	n/a	18	22	9	6	7
3570.259765625	n/a	PROB	7311892	n/a	LTP361	ltpFR2	4	n/a	n/a	n/a	18	20	5	8	7
3572.19970703125	n/a	PROB	7315865	n/a	LTP361	ltpFR2	4	n/a	n/a	n/a	18	18	7	9	2
3573.74462890625	n/a	STOP	7319029	n/a	LTP361	ltpFR2	4	n/a	n/a	n/a	18	n/a	n/a	n/a	n/a
3574.8583984375	n/a	WORD	7321310	wordpools/wasnorm_wordpool_576.txt	LTP361	ltpFR2	4	14	BROOK	177	n/a	n/a	0	0	0
3577.29931640625	n/a	WORD	7326309	wordpools/wasnorm_wordpool_576.txt	LTP361	ltpFR2	4	14	SUPPER	1411	n/a	n/a	0	0	0
3579.8076171875	n/a	WORD	7331446	wordpools/wasnorm_wordpool_576.txt	LTP361	ltpFR2	4	14	SWAMP	1416	n/a	n/a	0	0	0
3582.26513671875	n/a	WORD	7336479	wordpools/wasnorm_wordpool_576.txt	LTP361	ltpFR2	4	14	FOOTBALL	591	n/a	n/a	0	0	0
3584.7724609375	n/a	WORD	7341614	wordpools/wasnorm_wordpool_576.txt	LTP361	ltpFR2	4	14	TROMBONE	1508	n/a	n/a	0	0	0
3587.4150390625	n/a	WORD	7347026	wordpools/wasnorm_wordpool_576.txt	LTP361	ltpFR2	4	14	FLUTE	585	n/a	n/a	0	0	0
3589.93994140625	n/a	WORD	7352197	wordpools/wasnorm_wordpool_576.txt	LTP361	ltpFR2	4	14	GUITAR	670	n/a	n/a	0	0	0
3592.69921875	n/a	WORD	7357848	wordpools/wasnorm_wordpool_576.txt	LTP361	ltpFR2	4	14	BEAST	108	n/a	n/a	0	0	0
3595.4912109375	n/a	WORD	7363566	wordpools/wasnorm_wordpool_576.txt	LTP361	ltpFR2	4	14	CANAL	226	n/a	n/a	0	0	0
3598.19970703125	n/a	WORD	7369113	wordpools/wasnorm_wordpool_576.txt	LTP361	ltpFR2	4	14	ROBBER	1197	n/a	n/a	0	0	0
3600.69091796875	n/a	WORD	7374215	wordpools/wasnorm_wordpool_576.txt	LTP361	ltpFR2	4	14	WAITRESS	1581	n/a	n/a	0	0	0
3603.4169921875	n/a	WORD	7379798	wordpools/wasnorm_wordpool_576.txt	LTP361	ltpFR2	4	14	RABBIT	1152	n/a	n/a	0	0	0
3606.17578125	n/a	WORD	7385448	wordpools/wasnorm_wordpool_576.txt	LTP361	ltpFR2	4	14	LETTUCE	814	n/a	n/a	0	0	0
3608.74951171875	n/a	WORD	7390719	wordpools/wasnorm_wordpool_576.txt	LTP361	ltpFR2	4	14	FLASHLIGHT	575	n/a	n/a	0	0	0
3611.54248046875	n/a	WORD	7396439	wordpools/wasnorm_wordpool_576.txt	LTP361	ltpFR2	4	14	SWITCH	1422	n/a	n/a	0	0	0
3614.20166015625	n/a	WORD	7401885	wordpools/wasnorm_wordpool_576.txt	LTP361	ltpFR2	4	14	HEART	697	n/a	n/a	0	0	0
3616.82666015625	n/a	WORD	7407261	wordpools/wasnorm_wordpool_576.txt	LTP361	ltpFR2	4	14	SUSPECT	1415	n/a	n/a	0	0	0
3619.55126953125	n/a	WORD	7412841	wordpools/wasnorm_wordpool_576.txt	LTP361	ltpFR2	4	14	PERMIT	1051	n/a	n/a	0	0	0
3622.05908203125	n/a	WORD	7417977	wordpools/wasnorm_wordpool_576.txt	LTP361	ltpFR2	4	14	BLOCKADE	137	n/a	n/a	0	0	0
3624.7509765625	n/a	WORD	7423490	wordpools/wasnorm_wordpool_576.txt	LTP361	ltpFR2	4	14	WOMAN	1620	n/a	n/a	0	0	0
3627.31005859375	n/a	WORD	7428731	wordpools/wasnorm_wordpool_576.txt	LTP361	ltpFR2	4	14	TWIG	1527	n/a	n/a	0	0	0
3629.98486328125	n/a	WORD	7434209	wordpools/wasnorm_wordpool_576.txt	LTP361	ltpFR2	4	14	CURTAIN	427	n/a	n/a	0	0	0
3632.72705078125	n/a	WORD	7439825	wordpools/wasnorm_wordpool_576.txt	LTP361	ltpFR2	4	14	KITCHEN	778	n/a	n/a	0	0	0
3635.5029296875	n/a	WORD	7445510	wordpools/wasnorm_wordpool_576.txt	LTP361	ltpFR2	4	14	CRAB	397	n/a	n/a	0	0	0
3637.10888671875	n/a	START	7448799	n/a	LTP361	ltpFR2	4	n/a	n/a	n/a	19	n/a	n/a	n/a	n/a
3638.2666015625	n/a	DISTRACTOR	7451170	n/a	LTP361	ltpFR2	4	14	n/a	n/a	n/a	n/a	0	0	0
3638.27880859375	n/a	PROB	7451195	n/a	LTP361	ltpFR2	4	n/a	n/a	n/a	19	18	7	8	3
3640.3515625	n/a	PROB	7455440	n/a	LTP361	ltpFR2	4	n/a	n/a	n/a	19	12	6	4	2
3642.3076171875	n/a	PROB	7459446	n/a	LTP361	ltpFR2	4	n/a	n/a	n/a	19	18	3	6	9
3643.77880859375	n/a	PROB	7462459	n/a	LTP361	ltpFR2	4	n/a	n/a	n/a	19	15	5	9	1
3644.99951171875	n/a	PROB	7464959	n/a	LTP361	ltpFR2	4	n/a	n/a	n/a	19	14	8	2	4
3646.8896484375	n/a	PROB	7468830	n/a	LTP361	ltpFR2	4	n/a	n/a	n/a	19	20	9	3	8
3648.46142578125	n/a	PROB	7472049	n/a	LTP361	ltpFR2	4	n/a	n/a	n/a	19	13	7	3	3
3650.53466796875	n/a	PROB	7476295	n/a	LTP361	ltpFR2	4	n/a	n/a	n/a	19	11	3	5	3
3652.1396484375	n/a	PROB	7479582	n/a	LTP361	ltpFR2	4	n/a	n/a	n/a	19	11	3	5	3
3653.07666015625	n/a	PROB	7481501	n/a	LTP361	ltpFR2	4	n/a	n/a	n/a	19	12	2	6	4
3654.33056640625	n/a	PROB	7484069	n/a	LTP361	ltpFR2	4	n/a	n/a	n/a	19	13	3	6	4
3655.5673828125	n/a	PROB	7486602	n/a	LTP361	ltpFR2	4	n/a	n/a	n/a	19	16	8	3	5
3657.50732421875	n/a	PROB	7490575	n/a	LTP361	ltpFR2	4	n/a	n/a	n/a	19	7	1	5	1
3658.861328125	n/a	PROB	7493348	n/a	LTP361	ltpFR2	4	n/a	n/a	n/a	19	15	9	2	4
3660.7373046875	n/a	STOP	7497190	n/a	LTP361	ltpFR2	4	n/a	n/a	n/a	19	n/a	n/a	n/a	n/a
3662.85791015625	n/a	REC_START	7501533	n/a	LTP361	ltpFR2	4	14	n/a	n/a	n/a	n/a	0	0	0
3668.23486328125	n/a	REC_WORD	7512545	wordpools/wasnorm_wordpool_576.txt	LTP361	ltpFR2	4	14	KITCHEN	778	n/a	n/a	0	0	0
3669.5888671875	n/a	REC_WORD	7515318	wordpools/wasnorm_wordpool_576.txt	LTP361	ltpFR2	4	14	BROOK	177	n/a	n/a	0	0	0
3670.666015625	n/a	REC_WORD	7517524	wordpools/wasnorm_wordpool_576.txt	LTP361	ltpFR2	4	14	SWAMP	1416	n/a	n/a	0	0	0
3672.11865234375	n/a	REC_WORD	7520499	wordpools/wasnorm_wordpool_576.txt	LTP361	ltpFR2	4	14	BEAST	108	n/a	n/a	0	0	0
3673.05078125	n/a	REC_WORD	7522408	wordpools/wasnorm_wordpool_576.txt	LTP361	ltpFR2	4	14	ROBBER	1197	n/a	n/a	0	0	0
3674.0576171875	n/a	REC_WORD	7524470	wordpools/wasnorm_wordpool_576.txt	LTP361	ltpFR2	4	14	SUSPECT	1415	n/a	n/a	0	0	0
3675.349609375	n/a	REC_WORD	7527116	wordpools/wasnorm_wordpool_576.txt	LTP361	ltpFR2	4	14	BLOCKADE	137	n/a	n/a	0	0	0
3677.671875	n/a	REC_WORD	7531872	wordpools/wasnorm_wordpool_576.txt	LTP361	ltpFR2	4	14	WAITRESS	1581	n/a	n/a	0	0	0
3679.25146484375	n/a	REC_WORD	7535107	wordpools/wasnorm_wordpool_576.txt	LTP361	ltpFR2	4	14	WOMAN	1620	n/a	n/a	0	0	0
3681.95556640625	n/a	REC_WORD	7540645	wordpools/wasnorm_wordpool_576.txt	LTP361	ltpFR2	4	14	LADY	794	n/a	n/a	0	0	0
3721.29931640625	n/a	REC_WORD	7621221	wordpools/wasnorm_wordpool_576.txt	LTP361	ltpFR2	4	14	HEART	697	n/a	n/a	0	0	0
3722.5283203125	n/a	REC_WORD	7623738	wordpools/wasnorm_wordpool_576.txt	LTP361	ltpFR2	4	14	FLUTE	585	n/a	n/a	0	0	0
3723.49560546875	n/a	REC_WORD	7625719	wordpools/wasnorm_wordpool_576.txt	LTP361	ltpFR2	4	14	GUITAR	670	n/a	n/a	0	0	0
3724.42431640625	n/a	REC_WORD	7627621	wordpools/wasnorm_wordpool_576.txt	LTP361	ltpFR2	4	14	TROMBONE	1508	n/a	n/a	0	0	0
3726.75439453125	n/a	REC_WORD	7632393	wordpools/wasnorm_wordpool_576.txt	LTP361	ltpFR2	4	14	SWITCH	1422	n/a	n/a	0	0	0
3753.314453125	n/a	WORD	7686788	wordpools/wasnorm_wordpool_576.txt	LTP361	ltpFR2	4	15	REBEL	1172	n/a	n/a	0	0	0
3755.9736328125	n/a	WORD	7692234	wordpools/wasnorm_wordpool_576.txt	LTP361	ltpFR2	4	15	ICEBERG	731	n/a	n/a	0	0	0
3758.74755859375	n/a	WORD	7697915	wordpools/wasnorm_wordpool_576.txt	LTP361	ltpFR2	4	15	IGLOO	734	n/a	n/a	0	0	0
3761.3076171875	n/a	WORD	7703158	wordpools/wasnorm_wordpool_576.txt	LTP361	ltpFR2	4	15	FREEZER	604	n/a	n/a	0	0	0
3764.04931640625	n/a	WORD	7708773	wordpools/wasnorm_wordpool_576.txt	LTP361	ltpFR2	4	15	MOTOR	922	n/a	n/a	0	0	0
3766.7734375	n/a	WORD	7714352	wordpools/wasnorm_wordpool_576.txt	LTP361	ltpFR2	4	15	HORNET	718	n/a	n/a	0	0	0
3769.46630859375	n/a	WORD	7719867	wordpools/wasnorm_wordpool_576.txt	LTP361	ltpFR2	4	15	OUTDOORS	987	n/a	n/a	0	0	0
3771.9912109375	n/a	WORD	7725038	wordpools/wasnorm_wordpool_576.txt	LTP361	ltpFR2	4	15	CRITIC	410	n/a	n/a	0	0	0
3774.60009765625	n/a	WORD	7730381	wordpools/wasnorm_wordpool_576.txt	LTP361	ltpFR2	4	15	BADGE	68	n/a	n/a	0	0	0
3777.35888671875	n/a	WORD	7736031	wordpools/wasnorm_wordpool_576.txt	LTP361	ltpFR2	4	15	FEMALE	559	n/a	n/a	0	0	0
3779.7998046875	n/a	WORD	7741030	wordpools/wasnorm_wordpool_576.txt	LTP361	ltpFR2	4	15	TAXI	1438	n/a	n/a	0	0	0
3782.2236328125	n/a	WORD	7745994	wordpools/wasnorm_wordpool_576.txt	LTP361	ltpFR2	4	15	PREACHER	1119	n/a	n/a	0	0	0
3784.8330078125	n/a	WORD	7751338	wordpools/wasnorm_wordpool_576.txt	LTP361	ltpFR2	4	15	PUPPY	1144	n/a	n/a	0	0	0
3787.54052734375	n/a	WORD	7756883	wordpools/wasnorm_wordpool_576.txt	LTP361	ltpFR2	4	15	FRAME	600	n/a	n/a	0	0	0
3790.28369140625	n/a	WORD	7762501	wordpools/wasnorm_wordpool_576.txt	LTP361	ltpFR2	4	15	DRAWING	494	n/a	n/a	0	0	0
3792.841796875	n/a	WORD	7767740	wordpools/wasnorm_wordpool_576.txt	LTP361	ltpFR2	4	15	CHURCH	307	n/a	n/a	0	0	0
3795.53369140625	n/a	WORD	7773253	wordpools/wasnorm_wordpool_576.txt	LTP361	ltpFR2	4	15	INMATE	738	n/a	n/a	0	0	0
3798.275390625	n/a	WORD	7778868	wordpools/wasnorm_wordpool_576.txt	LTP361	ltpFR2	4	15	JOURNAL	760	n/a	n/a	0	0	0
3800.984375	n/a	WORD	7784416	wordpools/wasnorm_wordpool_576.txt	LTP361	ltpFR2	4	15	BRIEFCASE	175	n/a	n/a	0	0	0
3803.693359375	n/a	WORD	7789964	wordpools/wasnorm_wordpool_576.txt	LTP361	ltpFR2	4	15	MILDEW	893	n/a	n/a	0	0	0
3806.41796875	n/a	WORD	7795544	wordpools/wasnorm_wordpool_576.txt	LTP361	ltpFR2	4	15	SCARF	1246	n/a	n/a	0	0	0
3808.92626953125	n/a	WORD	7800681	wordpools/wasnorm_wordpool_576.txt	LTP361	ltpFR2	4	15	ATLAS	53	n/a	n/a	0	0	0
3811.68505859375	n/a	WORD	7806331	wordpools/wasnorm_wordpool_576.txt	LTP361	ltpFR2	4	15	TRANSPLANT	1496	n/a	n/a	0	0	0
3814.244140625	n/a	WORD	7811572	wordpools/wasnorm_wordpool_576.txt	LTP361	ltpFR2	4	15	DRAGON	492	n/a	n/a	0	0	0
3815.84912109375	n/a	START	7814859	n/a	LTP361	ltpFR2	4	n/a	n/a	n/a	20	n/a	n/a	n/a	n/a
3816.86865234375	n/a	DISTRACTOR	7816947	n/a	LTP361	ltpFR2	4	15	n/a	n/a	n/a	n/a	0	0	0
3816.8857421875	n/a	PROB	7816982	n/a	LTP361	ltpFR2	4	n/a	n/a	n/a	20	16	5	7	4
3818.90869140625	n/a	PROB	7821125	n/a	LTP361	ltpFR2	4	n/a	n/a	n/a	20	22	5	9	8
3820.64794921875	n/a	PROB	7824687	n/a	LTP361	ltpFR2	4	n/a	n/a	n/a	20	10	3	2	5
3823.22265625	n/a	PROB	7829960	n/a	LTP361	ltpFR2	4	n/a	n/a	n/a	20	14	5	3	6
3825.83056640625	n/a	PROB	7835301	n/a	LTP361	ltpFR2	4	n/a	n/a	n/a	20	17	6	3	8
3827.6865234375	n/a	PROB	7839102	n/a	LTP361	ltpFR2	4	n/a	n/a	n/a	20	22	8	7	7
3829.74267578125	n/a	PROB	7843313	n/a	LTP361	ltpFR2	4	n/a	n/a	n/a	20	15	5	6	4
3831.6494140625	n/a	PROB	7847218	n/a	LTP361	ltpFR2	4	n/a	n/a	n/a	20	21	9	4	8
3833.9736328125	n/a	PROB	7851978	n/a	LTP361	ltpFR2	4	n/a	n/a	n/a	20	15	8	5	2
3835.4453125	n/a	PROB	7854992	n/a	LTP361	ltpFR2	4	n/a	n/a	n/a	20	15	5	8	2
3837.01611328125	n/a	PROB	7858209	n/a	LTP361	ltpFR2	4	n/a	n/a	n/a	20	19	3	7	9
3838.873046875	n/a	STOP	7862012	n/a	LTP361	ltpFR2	4	n/a	n/a	n/a	20	n/a	n/a	n/a	n/a
3841.71630859375	n/a	REC_START	7867835	n/a	LTP361	ltpFR2	4	15	n/a	n/a	n/a	n/a	0	0	0
3845.1611328125	n/a	REC_WORD	7874890	wordpools/wasnorm_wordpool_576.txt	LTP361	ltpFR2	4	15	MILDEW	893	n/a	n/a	0	0	0
3851.5078125	n/a	REC_WORD	7887888	wordpools/wasnorm_wordpool_576.txt	LTP361	ltpFR2	4	15	ICEBERG	731	n/a	n/a	0	0	0
3852.89306640625	n/a	REC_WORD	7890725	wordpools/wasnorm_wordpool_576.txt	LTP361	ltpFR2	4	15	IGLOO	734	n/a	n/a	0	0	0
3853.78466796875	n/a	REC_WORD	7892551	wordpools/wasnorm_wordpool_576.txt	LTP361	ltpFR2	4	15	FREEZER	604	n/a	n/a	0	0	0
3856.07763671875	n/a	REC_WORD	7897247	wordpools/wasnorm_wordpool_576.txt	LTP361	ltpFR2	4	15	REBEL	1172	n/a	n/a	0	0	0
3857.6416015625	n/a	REC_WORD	7900450	wordpools/wasnorm_wordpool_576.txt	LTP361	ltpFR2	4	15	LADY	794	n/a	n/a	0	0	0
3861.86669921875	n/a	REC_WORD	7909103	wordpools/wasnorm_wordpool_576.txt	LTP361	ltpFR2	4	15	SCARF	1246	n/a	n/a	0	0	0
3863.263671875	n/a	REC_WORD	7911964	wordpools/wasnorm_wordpool_576.txt	LTP361	ltpFR2	4	15	BADGE	68	n/a	n/a	0	0	0
3868.568359375	n/a	REC_WORD	7922828	wordpools/wasnorm_wordpool_576.txt	LTP361	ltpFR2	4	15	TAXI	1438	n/a	n/a	0	0	0
3869.46044921875	n/a	REC_WORD	7924655	wordpools/wasnorm_wordpool_576.txt	LTP361	ltpFR2	4	15	PREACHER	1119	n/a	n/a	0	0	0
3870.1904296875	n/a	REC_WORD	7926150	wordpools/wasnorm_wordpool_576.txt	LTP361	ltpFR2	4	15	PUPPY	1144	n/a	n/a	0	0	0
3871.5634765625	n/a	REC_WORD	7928962	wordpools/wasnorm_wordpool_576.txt	LTP361	ltpFR2	4	15	CHURCH	307	n/a	n/a	0	0	0
3872.2724609375	n/a	REC_WORD	7930414	wordpools/wasnorm_wordpool_576.txt	LTP361	ltpFR2	4	15	JOURNAL	760	n/a	n/a	0	0	0
3872.935546875	n/a	REC_WORD	7931772	wordpools/wasnorm_wordpool_576.txt	LTP361	ltpFR2	4	15	INMATE	738	n/a	n/a	0	0	0
3877.2509765625	n/a	REC_WORD	7940610	wordpools/wasnorm_wordpool_576.txt	LTP361	ltpFR2	4	15	BRIEFCASE	175	n/a	n/a	0	0	0
3889.3369140625	n/a	REC_WORD	7965362	wordpools/wasnorm_wordpool_576.txt	LTP361	ltpFR2	4	15	FRAME	600	n/a	n/a	0	0	0
3892.4638671875	n/a	REC_WORD	7971766	wordpools/wasnorm_wordpool_576.txt	LTP361	ltpFR2	4	15	DRAWING	494	n/a	n/a	0	0	0
3895.6796875	n/a	REC_WORD	7978352	wordpools/wasnorm_wordpool_576.txt	LTP361	ltpFR2	4	15	ATLAS	53	n/a	n/a	0	0	0
3896.78076171875	n/a	REC_WORD	7980607	wordpools/wasnorm_wordpool_576.txt	LTP361	ltpFR2	4	15	DRAGON	492	n/a	n/a	0	0	0
3897.86962890625	n/a	REC_WORD	7982837	wordpools/wasnorm_wordpool_576.txt	LTP361	ltpFR2	4	15	TRANSPLANT	1496	n/a	n/a	0	0	0
3932.1728515625	n/a	WORD	8053090	wordpools/wasnorm_wordpool_576.txt	LTP361	ltpFR2	4	16	COFFEE	341	n/a	n/a	0	0	0
3934.5966796875	n/a	WORD	8058054	wordpools/wasnorm_wordpool_576.txt	LTP361	ltpFR2	4	16	SKILLET	1317	n/a	n/a	0	0	0
3937.3896484375	n/a	WORD	8063774	wordpools/wasnorm_wordpool_576.txt	LTP361	ltpFR2	4	16	BUBBLE	183	n/a	n/a	0	0	0
3940.16455078125	n/a	WORD	8069457	wordpools/wasnorm_wordpool_576.txt	LTP361	ltpFR2	4	16	PERFUME	1049	n/a	n/a	0	0	0
3942.70654296875	n/a	WORD	8074663	wordpools/wasnorm_wordpool_576.txt	LTP361	ltpFR2	4	16	CRUTCH	417	n/a	n/a	0	0	0
3945.314453125	n/a	WORD	8080004	wordpools/wasnorm_wordpool_576.txt	LTP361	ltpFR2	4	16	CUSTARD	429	n/a	n/a	0	0	0
3947.97314453125	n/a	WORD	8085449	wordpools/wasnorm_wordpool_576.txt	LTP361	ltpFR2	4	16	CRATER	400	n/a	n/a	0	0	0
3950.5654296875	n/a	WORD	8090758	wordpools/wasnorm_wordpool_576.txt	LTP361	ltpFR2	4	16	CABBAGE	210	n/a	n/a	0	0	0
3953.17333984375	n/a	WORD	8096099	wordpools/wasnorm_wordpool_576.txt	LTP361	ltpFR2	4	16	ZIPPER	1636	n/a	n/a	0	0	0
3955.9150390625	n/a	WORD	8101714	wordpools/wasnorm_wordpool_576.txt	LTP361	ltpFR2	4	16	PORTRAIT	1111	n/a	n/a	0	0	0
3958.55712890625	n/a	WORD	8107125	wordpools/wasnorm_wordpool_576.txt	LTP361	ltpFR2	4	16	ANTLER	29	n/a	n/a	0	0	0
3960.98193359375	n/a	WORD	8112091	wordpools/wasnorm_wordpool_576.txt	LTP361	ltpFR2	4	16	SHORTS	1293	n/a	n/a	0	0	0
3963.4560546875	n/a	WORD	8117158	wordpools/wasnorm_wordpool_576.txt	LTP361	ltpFR2	4	16	COUNTRY	388	n/a	n/a	0	0	0
3965.99755859375	n/a	WORD	8122363	wordpools/wasnorm_wordpool_576.txt	LTP361	ltpFR2	4	16	ACTOR	5	n/a	n/a	0	0	0
3968.45556640625	n/a	WORD	8127397	wordpools/wasnorm_wordpool_576.txt	LTP361	ltpFR2	4	16	FIDDLE	561	n/a	n/a	0	0	0
3971.11376953125	n/a	WORD	8132841	wordpools/wasnorm_wordpool_576.txt	LTP361	ltpFR2	4	16	HEDGE	699	n/a	n/a	0	0	0
3973.8564453125	n/a	WORD	8138458	wordpools/wasnorm_wordpool_576.txt	LTP361	ltpFR2	4	16	ONION	977	n/a	n/a	0	0	0
3976.53125	n/a	WORD	8143936	wordpools/wasnorm_wordpool_576.txt	LTP361	ltpFR2	4	16	CANDY	230	n/a	n/a	0	0	0
3978.97216796875	n/a	WORD	8148935	wordpools/wasnorm_wordpool_576.txt	LTP361	ltpFR2	4	16	SEAFOOD	1260	n/a	n/a	0	0	0
3981.78125	n/a	WORD	8154688	wordpools/wasnorm_wordpool_576.txt	LTP361	ltpFR2	4	16	TROUT	1511	n/a	n/a	0	0	0
3984.2060546875	n/a	WORD	8159654	wordpools/wasnorm_wordpool_576.txt	LTP361	ltpFR2	4	16	JEANS	752	n/a	n/a	0	0	0
3986.96533203125	n/a	WORD	8165305	wordpools/wasnorm_wordpool_576.txt	LTP361	ltpFR2	4	16	TWISTER	1530	n/a	n/a	0	0	0
3989.38916015625	n/a	WORD	8170269	wordpools/wasnorm_wordpool_576.txt	LTP361	ltpFR2	4	16	BRICK	172	n/a	n/a	0	0	0
3991.98095703125	n/a	WORD	8175577	wordpools/wasnorm_wordpool_576.txt	LTP361	ltpFR2	4	16	PLASTER	1085	n/a	n/a	0	0	0
3993.5869140625	n/a	START	8178866	n/a	LTP361	ltpFR2	4	n/a	n/a	n/a	21	n/a	n/a	n/a	n/a
3994.48681640625	n/a	DISTRACTOR	8180709	n/a	LTP361	ltpFR2	4	16	n/a	n/a	n/a	n/a	0	0	0
3994.48876953125	n/a	PROB	8180713	n/a	LTP361	ltpFR2	4	n/a	n/a	n/a	21	21	9	8	4
3996.81298828125	n/a	PROB	8185473	n/a	LTP361	ltpFR2	4	n/a	n/a	n/a	21	13	1	5	7
3999.27099609375	n/a	PROB	8190507	n/a	LTP361	ltpFR2	4	n/a	n/a	n/a	21	19	9	8	2
4000.6259765625	n/a	PROB	8193282	n/a	LTP361	ltpFR2	4	n/a	n/a	n/a	21	22	5	9	8
4002.5986328125	n/a	PROB	8197322	n/a	LTP361	ltpFR2	4	n/a	n/a	n/a	21	10	5	1	4
4004.01953125	n/a	PROB	8200232	n/a	LTP361	ltpFR2	4	n/a	n/a	n/a	21	15	7	5	3
4005.44091796875	n/a	PROB	8203143	n/a	LTP361	ltpFR2	4	n/a	n/a	n/a	21	12	6	4	2
4006.82861328125	n/a	PROB	8205985	n/a	LTP361	ltpFR2	4	n/a	n/a	n/a	21	10	1	5	4
4008.08251953125	n/a	PROB	8208553	n/a	LTP361	ltpFR2	4	n/a	n/a	n/a	21	15	7	5	3
4009.6376953125	n/a	PROB	8211738	n/a	LTP361	ltpFR2	4	n/a	n/a	n/a	21	10	8	1	1
4010.8583984375	n/a	PROB	8214238	n/a	LTP361	ltpFR2	4	n/a	n/a	n/a	21	14	7	3	4
4012.24658203125	n/a	PROB	8217081	n/a	LTP361	ltpFR2	4	n/a	n/a	n/a	21	14	3	6	5
4013.7666015625	n/a	PROB	8220194	n/a	LTP361	ltpFR2	4	n/a	n/a	n/a	21	14	2	4	8
4015.37353515625	n/a	PROB	8223485	n/a	LTP361	ltpFR2	4	n/a	n/a	n/a	21	19	6	8	5
4017.08251953125	n/a	STOP	8226985	n/a	LTP361	ltpFR2	4	n/a	n/a	n/a	21	n/a	n/a	n/a	n/a
4019.486328125	n/a	REC_START	8231908	n/a	LTP361	ltpFR2	4	16	n/a	n/a	n/a	n/a	0	0	0
4021.55615234375	n/a	REC_WORD	8236147	wordpools/wasnorm_wordpool_576.txt	LTP361	ltpFR2	4	16	JEANS	752	n/a	n/a	0	0	0
4022.28515625	n/a	REC_WORD	8237640	wordpools/wasnorm_wordpool_576.txt	LTP361	ltpFR2	4	16	SKILLET	1317	n/a	n/a	0	0	0
4023.1201171875	n/a	REC_WORD	8239350	wordpools/wasnorm_wordpool_576.txt	LTP361	ltpFR2	4	16	MUSTARD	935	n/a	n/a	0	0	0
4024.27294921875	n/a	REC_WORD	8241711	wordpools/wasnorm_wordpool_576.txt	LTP361	ltpFR2	4	16	TWISTER	1530	n/a	n/a	0	0	0
4025.24609375	n/a	REC_WORD	8243704	wordpools/wasnorm_wordpool_576.txt	LTP361	ltpFR2	4	16	BRICK	172	n/a	n/a	0	0	0
