mstime	trial_type	stim_file	subject	experiment	session	trial	task	item_name	item_num	recog_conf	resp	color_b	color_g	color_r	case	font
0	SESS_START	n/a	LTP073	ltpFR	16	n/a	n/a	n/a	n/a	1	n/a	n/a	n/a	n/a	n/a	n/a
38584	WORD	wordpools/wasnorm_wordpool.txt	LTP073	ltpFR	16	1	1	BUFFALO	186	n/a	1	0	0.5869140625	0.422607421875	lower	../fonts/zerothre.ttf
42463	WORD	wordpools/wasnorm_wordpool.txt	LTP073	ltpFR	16	1	1	JAW	751	n/a	0	0	0.5869140625	0.422607421875	lower	../fonts/zerothre.ttf
46325	WORD	wordpools/wasnorm_wordpool.txt	LTP073	ltpFR	16	1	0	SOFTBALL	1343	n/a	0	1	0.412841796875	0.57763671875	upper	../fonts/amplitud.ttf
50196	WORD	wordpools/wasnorm_wordpool.txt	LTP073	ltpFR	16	1	0	TYPEWRITER	1531	n/a	1	1	0.412841796875	0.57763671875	upper	../fonts/amplitud.ttf
54316	WORD	wordpools/wasnorm_wordpool.txt	LTP073	ltpFR	16	1	0	ELEPHANT	523	n/a	1	1	0.412841796875	0.57763671875	upper	../fonts/amplitud.ttf
58328	WORD	wordpools/wasnorm_wordpool.txt	LTP073	ltpFR	16	1	1	TOWER	1490	n/a	0	0	0.5869140625	0.422607421875	lower	../fonts/zerothre.ttf
62523	WORD	wordpools/wasnorm_wordpool.txt	LTP073	ltpFR	16	1	1	BOOK	149	n/a	0	0	0.5869140625	0.422607421875	lower	../fonts/zerothre.ttf
66452	WORD	wordpools/wasnorm_wordpool.txt	LTP073	ltpFR	16	1	0	SHELF	1280	n/a	1	1	0.412841796875	0.57763671875	upper	../fonts/amplitud.ttf
70656	WORD	wordpools/wasnorm_wordpool.txt	LTP073	ltpFR	16	1	0	UMPIRE	1535	n/a	1	1	0.412841796875	0.57763671875	upper	../fonts/amplitud.ttf
74660	WORD	wordpools/wasnorm_wordpool.txt	LTP073	ltpFR	16	1	0	OFFICE	972	n/a	1	1	0.412841796875	0.57763671875	upper	../fonts/amplitud.ttf
78837	WORD	wordpools/wasnorm_wordpool.txt	LTP073	ltpFR	16	1	0	PEOPLE	1046	n/a	1	1	0.412841796875	0.57763671875	upper	../fonts/amplitud.ttf
82824	WORD	wordpools/wasnorm_wordpool.txt	LTP073	ltpFR	16	1	0	AFRICA	9	n/a	1	1	0.412841796875	0.57763671875	upper	../fonts/amplitud.ttf
87028	WORD	wordpools/wasnorm_wordpool.txt	LTP073	ltpFR	16	1	1	MAGAZINE	853	n/a	0	0	0.5869140625	0.422607421875	lower	../fonts/zerothre.ttf
91206	WORD	wordpools/wasnorm_wordpool.txt	LTP073	ltpFR	16	1	1	TELEVISION	1447	n/a	0	0	0.5869140625	0.422607421875	lower	../fonts/zerothre.ttf
95043	WORD	wordpools/wasnorm_wordpool.txt	LTP073	ltpFR	16	1	1	FINGERNAIL	568	n/a	0	0	0.5869140625	0.422607421875	lower	../fonts/zerothre.ttf
99172	WORD	wordpools/wasnorm_wordpool.txt	LTP073	ltpFR	16	1	1	ANKLE	24	n/a	0	0	0.5869140625	0.422607421875	lower	../fonts/zerothre.ttf
104891	REC_START	n/a	LTP073	ltpFR	16	1	n/a	n/a	n/a	n/a	n/a	n/a	n/a	n/a	n/a	n/a
105619	REC_WORD	wordpools/wasnorm_wordpool.txt	LTP073	ltpFR	16	1	1	FINGERNAIL	568	n/a	0	n/a	n/a	n/a	n/a	n/a
106916	REC_WORD	wordpools/wasnorm_wordpool.txt	LTP073	ltpFR	16	1	1	ANKLE	24	n/a	0	n/a	n/a	n/a	n/a	n/a
107779	REC_WORD	wordpools/wasnorm_wordpool.txt	LTP073	ltpFR	16	1	1	JAW	751	n/a	0	n/a	n/a	n/a	n/a	n/a
109081	REC_WORD	wordpools/wasnorm_wordpool.txt	LTP073	ltpFR	16	1	1	BUFFALO	186	n/a	1	n/a	n/a	n/a	n/a	n/a
110164	REC_WORD	wordpools/wasnorm_wordpool.txt	LTP073	ltpFR	16	1	0	ELEPHANT	523	n/a	1	n/a	n/a	n/a	n/a	n/a
111531	REC_WORD	wordpools/wasnorm_wordpool.txt	LTP073	ltpFR	16	1	1	BOOK	149	n/a	0	n/a	n/a	n/a	n/a	n/a
112169	REC_WORD	wordpools/wasnorm_wordpool.txt	LTP073	ltpFR	16	1	0	SHELF	1280	n/a	1	n/a	n/a	n/a	n/a	n/a
113052	REC_WORD	wordpools/wasnorm_wordpool.txt	LTP073	ltpFR	16	1	0	TYPEWRITER	1531	n/a	1	n/a	n/a	n/a	n/a	n/a
114419	REC_WORD	wordpools/wasnorm_wordpool.txt	LTP073	ltpFR	16	1	0	OFFICE	972	n/a	1	n/a	n/a	n/a	n/a	n/a
115621	REC_WORD	wordpools/wasnorm_wordpool.txt	LTP073	ltpFR	16	1	0	PEOPLE	1046	n/a	1	n/a	n/a	n/a	n/a	n/a
119054	REC_WORD	wordpools/wasnorm_wordpool.txt	LTP073	ltpFR	16	1	n/a	BOSS	152	n/a	n/a	n/a	n/a	n/a	n/a	n/a
130278	REC_WORD	wordpools/wasnorm_wordpool.txt	LTP073	ltpFR	16	1	1	FINGERNAIL	568	n/a	0	n/a	n/a	n/a	n/a	n/a
138739	REC_WORD	wordpools/wasnorm_wordpool.txt	LTP073	ltpFR	16	1	n/a	ELBOW	520	n/a	n/a	n/a	n/a	n/a	n/a	n/a
147958	REC_WORD	wordpools/wasnorm_wordpool.txt	LTP073	ltpFR	16	1	0	SOFTBALL	1343	n/a	0	n/a	n/a	n/a	n/a	n/a
149305	REC_WORD	wordpools/wasnorm_wordpool.txt	LTP073	ltpFR	16	1	0	UMPIRE	1535	n/a	1	n/a	n/a	n/a	n/a	n/a
152054	REC_WORD	wordpools/wasnorm_wordpool.txt	LTP073	ltpFR	16	1	n/a	BASEBALL	93	n/a	n/a	n/a	n/a	n/a	n/a	n/a
165244	REC_WORD	wordpools/wasnorm_wordpool.txt	LTP073	ltpFR	16	1	0	AFRICA	9	n/a	1	n/a	n/a	n/a	n/a	n/a
176832	REC_WORD	wordpools/wasnorm_wordpool.txt	LTP073	ltpFR	16	1	n/a	CONTINENT	367	n/a	n/a	n/a	n/a	n/a	n/a	n/a
185672	WORD	wordpools/wasnorm_wordpool.txt	LTP073	ltpFR	16	2	0	SCROLL	1257	n/a	0	1	0.412841796875	0.57763671875	upper	../fonts/amplitud.ttf
189758	WORD	wordpools/wasnorm_wordpool.txt	LTP073	ltpFR	16	2	0	ESSAY	540	n/a	0	1	0.412841796875	0.57763671875	upper	../fonts/amplitud.ttf
193836	WORD	wordpools/wasnorm_wordpool.txt	LTP073	ltpFR	16	2	1	CACTUS	215	n/a	0	0	0.5869140625	0.422607421875	lower	../fonts/zerothre.ttf
197807	WORD	wordpools/wasnorm_wordpool.txt	LTP073	ltpFR	16	2	1	ROSE	1212	n/a	0	0	0.5869140625	0.422607421875	lower	../fonts/zerothre.ttf
201760	WORD	wordpools/wasnorm_wordpool.txt	LTP073	ltpFR	16	2	0	TICK	1463	n/a	0	1	0.412841796875	0.57763671875	upper	../fonts/amplitud.ttf
205772	WORD	wordpools/wasnorm_wordpool.txt	LTP073	ltpFR	16	2	0	POTATO	1115	n/a	0	1	0.412841796875	0.57763671875	upper	../fonts/amplitud.ttf
209661	WORD	wordpools/wasnorm_wordpool.txt	LTP073	ltpFR	16	2	0	CAGE	218	n/a	0	1	0.412841796875	0.57763671875	upper	../fonts/amplitud.ttf
213664	WORD	wordpools/wasnorm_wordpool.txt	LTP073	ltpFR	16	2	0	TROPHY	1509	n/a	0	1	0.412841796875	0.57763671875	upper	../fonts/amplitud.ttf
217733	WORD	wordpools/wasnorm_wordpool.txt	LTP073	ltpFR	16	2	0	COYOTE	396	n/a	1	1	0.412841796875	0.57763671875	upper	../fonts/amplitud.ttf
221779	WORD	wordpools/wasnorm_wordpool.txt	LTP073	ltpFR	16	2	0	CITIZEN	312	n/a	1	1	0.412841796875	0.57763671875	upper	../fonts/amplitud.ttf
225966	WORD	wordpools/wasnorm_wordpool.txt	LTP073	ltpFR	16	2	1	LABEL	790	n/a	0	0	0.5869140625	0.422607421875	lower	../fonts/zerothre.ttf
229911	WORD	wordpools/wasnorm_wordpool.txt	LTP073	ltpFR	16	2	1	CREATURE	403	n/a	1	0	0.5869140625	0.422607421875	lower	../fonts/zerothre.ttf
234023	WORD	wordpools/wasnorm_wordpool.txt	LTP073	ltpFR	16	2	1	FOOTBALL	591	n/a	0	0	0.5869140625	0.422607421875	lower	../fonts/zerothre.ttf
237860	WORD	wordpools/wasnorm_wordpool.txt	LTP073	ltpFR	16	2	1	JUVENILE	767	n/a	1	0	0.5869140625	0.422607421875	lower	../fonts/zerothre.ttf
241772	WORD	wordpools/wasnorm_wordpool.txt	LTP073	ltpFR	16	2	1	PARSLEY	1016	n/a	0	0	0.5869140625	0.422607421875	lower	../fonts/zerothre.ttf
245926	WORD	wordpools/wasnorm_wordpool.txt	LTP073	ltpFR	16	2	1	SUPERVISOR	1410	n/a	1	0	0.5869140625	0.422607421875	lower	../fonts/zerothre.ttf
251645	REC_START	n/a	LTP073	ltpFR	16	2	n/a	n/a	n/a	n/a	n/a	n/a	n/a	n/a	n/a	n/a
252877	REC_WORD	wordpools/wasnorm_wordpool.txt	LTP073	ltpFR	16	2	1	SUPERVISOR	1410	n/a	1	n/a	n/a	n/a	n/a	n/a
254583	REC_WORD	wordpools/wasnorm_wordpool.txt	LTP073	ltpFR	16	2	1	JUVENILE	767	n/a	1	n/a	n/a	n/a	n/a	n/a
256429	REC_WORD	wordpools/wasnorm_wordpool.txt	LTP073	ltpFR	16	2	1	CACTUS	215	n/a	0	n/a	n/a	n/a	n/a	n/a
257546	REC_WORD	wordpools/wasnorm_wordpool.txt	LTP073	ltpFR	16	2	1	ROSE	1212	n/a	0	n/a	n/a	n/a	n/a	n/a
259163	REC_WORD	wordpools/wasnorm_wordpool.txt	LTP073	ltpFR	16	2	1	PARSLEY	1016	n/a	0	n/a	n/a	n/a	n/a	n/a
261847	REC_WORD	wordpools/wasnorm_wordpool.txt	LTP073	ltpFR	16	2	0	COYOTE	396	n/a	1	n/a	n/a	n/a	n/a	n/a
263253	REC_WORD	wordpools/wasnorm_wordpool.txt	LTP073	ltpFR	16	2	0	CAGE	218	n/a	0	n/a	n/a	n/a	n/a	n/a
269015	REC_WORD	wordpools/wasnorm_wordpool.txt	LTP073	ltpFR	16	2	n/a	DOG	480	n/a	n/a	n/a	n/a	n/a	n/a	n/a
298917	REC_WORD	wordpools/wasnorm_wordpool.txt	LTP073	ltpFR	16	2	1	FOOTBALL	591	n/a	0	n/a	n/a	n/a	n/a	n/a
310306	REC_WORD	wordpools/wasnorm_wordpool.txt	LTP073	ltpFR	16	2	n/a	APPLE	33	n/a	n/a	n/a	n/a	n/a	n/a	n/a
330352	WORD	wordpools/wasnorm_wordpool.txt	LTP073	ltpFR	16	3	1	ROACH	1195	n/a	1	0	0.5869140625	0.422607421875	lower	../fonts/zerothre.ttf
334522	WORD	wordpools/wasnorm_wordpool.txt	LTP073	ltpFR	16	3	1	ANT	25	n/a	1	0	0.5869140625	0.422607421875	lower	../fonts/zerothre.ttf
338660	WORD	wordpools/wasnorm_wordpool.txt	LTP073	ltpFR	16	3	1	PORTRAIT	1111	n/a	0	0	0.5869140625	0.422607421875	lower	../fonts/zerothre.ttf
342854	WORD	wordpools/wasnorm_wordpool.txt	LTP073	ltpFR	16	3	0	CLIFF	322	n/a	1	1	0.412841796875	0.57763671875	upper	../fonts/amplitud.ttf
346824	WORD	wordpools/wasnorm_wordpool.txt	LTP073	ltpFR	16	3	0	PIER	1063	n/a	1	1	0.412841796875	0.57763671875	upper	../fonts/amplitud.ttf
350878	WORD	wordpools/wasnorm_wordpool.txt	LTP073	ltpFR	16	3	1	BELT	120	n/a	0	0	0.5869140625	0.422607421875	lower	../fonts/zerothre.ttf
354757	WORD	wordpools/wasnorm_wordpool.txt	LTP073	ltpFR	16	3	1	HIKER	708	n/a	1	0	0.5869140625	0.422607421875	lower	../fonts/zerothre.ttf
358611	WORD	wordpools/wasnorm_wordpool.txt	LTP073	ltpFR	16	3	1	SUBMARINE	1398	n/a	0	0	0.5869140625	0.422607421875	lower	../fonts/zerothre.ttf
362481	WORD	wordpools/wasnorm_wordpool.txt	LTP073	ltpFR	16	3	1	OTTER	986	n/a	1	0	0.5869140625	0.422607421875	lower	../fonts/zerothre.ttf
366476	WORD	wordpools/wasnorm_wordpool.txt	LTP073	ltpFR	16	3	1	SWIMMER	1420	n/a	1	0	0.5869140625	0.422607421875	lower	../fonts/zerothre.ttf
370588	WORD	wordpools/wasnorm_wordpool.txt	LTP073	ltpFR	16	3	0	FILM	565	n/a	0	1	0.412841796875	0.57763671875	upper	../fonts/amplitud.ttf
374426	WORD	wordpools/wasnorm_wordpool.txt	LTP073	ltpFR	16	3	0	SHOVEL	1295	n/a	1	1	0.412841796875	0.57763671875	upper	../fonts/amplitud.ttf
378246	WORD	wordpools/wasnorm_wordpool.txt	LTP073	ltpFR	16	3	0	BIKE	125	n/a	1	1	0.412841796875	0.57763671875	upper	../fonts/amplitud.ttf
382300	WORD	wordpools/wasnorm_wordpool.txt	LTP073	ltpFR	16	3	0	DOORBELL	487	n/a	0	1	0.412841796875	0.57763671875	upper	../fonts/amplitud.ttf
386478	WORD	wordpools/wasnorm_wordpool.txt	LTP073	ltpFR	16	3	0	SKULL	1320	n/a	0	1	0.412841796875	0.57763671875	upper	../fonts/amplitud.ttf
390315	WORD	wordpools/wasnorm_wordpool.txt	LTP073	ltpFR	16	3	0	LEADER	807	n/a	1	1	0.412841796875	0.57763671875	upper	../fonts/amplitud.ttf
396351	REC_START	n/a	LTP073	ltpFR	16	3	n/a	n/a	n/a	n/a	n/a	n/a	n/a	n/a	n/a	n/a
397214	REC_WORD	wordpools/wasnorm_wordpool.txt	LTP073	ltpFR	16	3	0	LEADER	807	n/a	1	n/a	n/a	n/a	n/a	n/a
398242	REC_WORD	wordpools/wasnorm_wordpool.txt	LTP073	ltpFR	16	3	0	DOORBELL	487	n/a	0	n/a	n/a	n/a	n/a	n/a
399229	REC_WORD	wordpools/wasnorm_wordpool.txt	LTP073	ltpFR	16	3	0	SKULL	1320	n/a	0	n/a	n/a	n/a	n/a	n/a
400995	REC_WORD	wordpools/wasnorm_wordpool.txt	LTP073	ltpFR	16	3	0	CLIFF	322	n/a	1	n/a	n/a	n/a	n/a	n/a
402023	REC_WORD	wordpools/wasnorm_wordpool.txt	LTP073	ltpFR	16	3	0	PIER	1063	n/a	1	n/a	n/a	n/a	n/a	n/a
403200	REC_WORD	wordpools/wasnorm_wordpool.txt	LTP073	ltpFR	16	3	0	SHOVEL	1295	n/a	1	n/a	n/a	n/a	n/a	n/a
405385	REC_WORD	wordpools/wasnorm_wordpool.txt	LTP073	ltpFR	16	3	0	BIKE	125	n/a	1	n/a	n/a	n/a	n/a	n/a
406632	REC_WORD	wordpools/wasnorm_wordpool.txt	LTP073	ltpFR	16	3	n/a	BIKER	-1	n/a	n/a	n/a	n/a	n/a	n/a	n/a
407964	REC_WORD	wordpools/wasnorm_wordpool.txt	LTP073	ltpFR	16	3	1	OTTER	986	n/a	1	n/a	n/a	n/a	n/a	n/a
409122	REC_WORD	wordpools/wasnorm_wordpool.txt	LTP073	ltpFR	16	3	1	ANT	25	n/a	1	n/a	n/a	n/a	n/a	n/a
410284	REC_WORD	wordpools/wasnorm_wordpool.txt	LTP073	ltpFR	16	3	1	ROACH	1195	n/a	1	n/a	n/a	n/a	n/a	n/a
415712	REC_WORD	wordpools/wasnorm_wordpool.txt	LTP073	ltpFR	16	3	n/a	PEST	-1	n/a	n/a	n/a	n/a	n/a	n/a	n/a
481950	WORD	wordpools/wasnorm_wordpool.txt	LTP073	ltpFR	16	4	0	RIDER	1191	n/a	3	1	0.412841796875	0.57763671875	upper	../fonts/amplitud.ttf
482990	KEY_MSG	n/a	LTP073	ltpFR	16	4	n/a	n/a	n/a	n/a	n/a	n/a	n/a	n/a	n/a	n/a
485979	WORD	wordpools/wasnorm_wordpool.txt	LTP073	ltpFR	16	4	0	SINK	1309	n/a	1	1	0.412841796875	0.57763671875	upper	../fonts/amplitud.ttf
489824	WORD	wordpools/wasnorm_wordpool.txt	LTP073	ltpFR	16	4	0	SIGNATURE	1306	n/a	0	1	0.412841796875	0.57763671875	upper	../fonts/amplitud.ttf
493844	WORD	wordpools/wasnorm_wordpool.txt	LTP073	ltpFR	16	4	0	PIANO	1057	n/a	1	1	0.412841796875	0.57763671875	upper	../fonts/amplitud.ttf
497848	WORD	wordpools/wasnorm_wordpool.txt	LTP073	ltpFR	16	4	0	PLUTO	1092	n/a	1	1	0.412841796875	0.57763671875	upper	../fonts/amplitud.ttf
501868	WORD	wordpools/wasnorm_wordpool.txt	LTP073	ltpFR	16	4	0	ASTEROID	50	n/a	1	1	0.412841796875	0.57763671875	upper	../fonts/amplitud.ttf
505980	WORD	wordpools/wasnorm_wordpool.txt	LTP073	ltpFR	16	4	0	BUTTON	207	n/a	0	1	0.412841796875	0.57763671875	upper	../fonts/amplitud.ttf
509792	WORD	wordpools/wasnorm_wordpool.txt	LTP073	ltpFR	16	4	0	GOWN	652	n/a	1	1	0.412841796875	0.57763671875	upper	../fonts/amplitud.ttf
513796	WORD	wordpools/wasnorm_wordpool.txt	LTP073	ltpFR	16	4	0	BROOM	178	n/a	1	1	0.412841796875	0.57763671875	upper	../fonts/amplitud.ttf
517800	WORD	wordpools/wasnorm_wordpool.txt	LTP073	ltpFR	16	4	0	WHEEL	1603	n/a	1	1	0.412841796875	0.57763671875	upper	../fonts/amplitud.ttf
521795	WORD	wordpools/wasnorm_wordpool.txt	LTP073	ltpFR	16	4	0	DAISY	435	n/a	0	1	0.412841796875	0.57763671875	upper	../fonts/amplitud.ttf
525840	WORD	wordpools/wasnorm_wordpool.txt	LTP073	ltpFR	16	4	0	FLOWER	584	n/a	0	1	0.412841796875	0.57763671875	upper	../fonts/amplitud.ttf
529703	WORD	wordpools/wasnorm_wordpool.txt	LTP073	ltpFR	16	4	0	BUCKET	184	n/a	0	1	0.412841796875	0.57763671875	upper	../fonts/amplitud.ttf
533648	WORD	wordpools/wasnorm_wordpool.txt	LTP073	ltpFR	16	4	0	PASSENGER	1020	n/a	1	1	0.412841796875	0.57763671875	upper	../fonts/amplitud.ttf
537810	WORD	wordpools/wasnorm_wordpool.txt	LTP073	ltpFR	16	4	0	VIOLIN	1571	n/a	1	1	0.412841796875	0.57763671875	upper	../fonts/amplitud.ttf
541698	WORD	wordpools/wasnorm_wordpool.txt	LTP073	ltpFR	16	4	0	AIRCRAFT	11	n/a	1	1	0.412841796875	0.57763671875	upper	../fonts/amplitud.ttf
547432	REC_START	n/a	LTP073	ltpFR	16	4	n/a	n/a	n/a	n/a	n/a	n/a	n/a	n/a	n/a	n/a
548195	REC_WORD	wordpools/wasnorm_wordpool.txt	LTP073	ltpFR	16	4	0	VIOLIN	1571	n/a	1	n/a	n/a	n/a	n/a	n/a
549243	REC_WORD	wordpools/wasnorm_wordpool.txt	LTP073	ltpFR	16	4	0	PIANO	1057	n/a	1	n/a	n/a	n/a	n/a	n/a
550102	REC_WORD	wordpools/wasnorm_wordpool.txt	LTP073	ltpFR	16	4	0	AIRCRAFT	11	n/a	1	n/a	n/a	n/a	n/a	n/a
551054	REC_WORD	wordpools/wasnorm_wordpool.txt	LTP073	ltpFR	16	4	0	PLUTO	1092	n/a	1	n/a	n/a	n/a	n/a	n/a
552485	REC_WORD	wordpools/wasnorm_wordpool.txt	LTP073	ltpFR	16	4	0	ASTEROID	50	n/a	1	n/a	n/a	n/a	n/a	n/a
554047	REC_WORD	wordpools/wasnorm_wordpool.txt	LTP073	ltpFR	16	4	0	RIDER	1191	n/a	3	n/a	n/a	n/a	n/a	n/a
554840	REC_WORD	wordpools/wasnorm_wordpool.txt	LTP073	ltpFR	16	4	0	PASSENGER	1020	n/a	1	n/a	n/a	n/a	n/a	n/a
563660	REC_WORD	wordpools/wasnorm_wordpool.txt	LTP073	ltpFR	16	4	n/a	PLANET	1082	n/a	n/a	n/a	n/a	n/a	n/a	n/a
574440	REC_WORD	wordpools/wasnorm_wordpool.txt	LTP073	ltpFR	16	4	0	FLOWER	584	n/a	0	n/a	n/a	n/a	n/a	n/a
577563	REC_WORD	wordpools/wasnorm_wordpool.txt	LTP073	ltpFR	16	4	0	DAISY	435	n/a	0	n/a	n/a	n/a	n/a	n/a
579718	REC_WORD	wordpools/wasnorm_wordpool.txt	LTP073	ltpFR	16	4	0	DAISY	435	n/a	0	n/a	n/a	n/a	n/a	n/a
583275	REC_WORD	wordpools/wasnorm_wordpool.txt	LTP073	ltpFR	16	4	1	ROSE	1212	n/a	0	n/a	n/a	n/a	n/a	n/a
644027	WORD	wordpools/wasnorm_wordpool.txt	LTP073	ltpFR	16	5	0	HUT	729	n/a	0	1	0.412841796875	0.57763671875	upper	../fonts/amplitud.ttf
648122	WORD	wordpools/wasnorm_wordpool.txt	LTP073	ltpFR	16	5	0	NOTEBOOK	959	n/a	0	1	0.412841796875	0.57763671875	upper	../fonts/amplitud.ttf
651993	WORD	wordpools/wasnorm_wordpool.txt	LTP073	ltpFR	16	5	0	REFRIGERATOR	1179	n/a	1	1	0.412841796875	0.57763671875	upper	../fonts/amplitud.ttf
655805	WORD	wordpools/wasnorm_wordpool.txt	LTP073	ltpFR	16	5	0	FIREPLACE	570	n/a	1	1	0.412841796875	0.57763671875	upper	../fonts/amplitud.ttf
659934	WORD	wordpools/wasnorm_wordpool.txt	LTP073	ltpFR	16	5	0	MOUSE	925	n/a	0	1	0.412841796875	0.57763671875	upper	../fonts/amplitud.ttf
663804	WORD	wordpools/wasnorm_wordpool.txt	LTP073	ltpFR	16	5	0	MACARONI	851	n/a	0	1	0.412841796875	0.57763671875	upper	../fonts/amplitud.ttf
667849	WORD	wordpools/wasnorm_wordpool.txt	LTP073	ltpFR	16	5	0	PURSE	1145	n/a	0	1	0.412841796875	0.57763671875	upper	../fonts/amplitud.ttf
671721	WORD	wordpools/wasnorm_wordpool.txt	LTP073	ltpFR	16	5	0	BUS	201	n/a	1	1	0.412841796875	0.57763671875	upper	../fonts/amplitud.ttf
675708	WORD	wordpools/wasnorm_wordpool.txt	LTP073	ltpFR	16	5	0	TAXI	1438	n/a	1	1	0.412841796875	0.57763671875	upper	../fonts/amplitud.ttf
679827	WORD	wordpools/wasnorm_wordpool.txt	LTP073	ltpFR	16	5	0	GOBLIN	645	n/a	1	1	0.412841796875	0.57763671875	upper	../fonts/amplitud.ttf
683956	WORD	wordpools/wasnorm_wordpool.txt	LTP073	ltpFR	16	5	0	TUNA	1518	n/a	1	1	0.412841796875	0.57763671875	upper	../fonts/amplitud.ttf
687785	WORD	wordpools/wasnorm_wordpool.txt	LTP073	ltpFR	16	5	0	FIREMAN	569	n/a	1	1	0.412841796875	0.57763671875	upper	../fonts/amplitud.ttf
691723	WORD	wordpools/wasnorm_wordpool.txt	LTP073	ltpFR	16	5	0	COLESLAW	344	n/a	0	1	0.412841796875	0.57763671875	upper	../fonts/amplitud.ttf
695676	WORD	wordpools/wasnorm_wordpool.txt	LTP073	ltpFR	16	5	0	KNAPSACK	783	n/a	0	1	0.412841796875	0.57763671875	upper	../fonts/amplitud.ttf
699579	WORD	wordpools/wasnorm_wordpool.txt	LTP073	ltpFR	16	5	0	DOUGH	489	n/a	0	1	0.412841796875	0.57763671875	upper	../fonts/amplitud.ttf
703549	WORD	wordpools/wasnorm_wordpool.txt	LTP073	ltpFR	16	5	0	WHEAT	1602	n/a	0	1	0.412841796875	0.57763671875	upper	../fonts/amplitud.ttf
709110	REC_START	n/a	LTP073	ltpFR	16	5	n/a	n/a	n/a	n/a	n/a	n/a	n/a	n/a	n/a	n/a
709778	REC_WORD	wordpools/wasnorm_wordpool.txt	LTP073	ltpFR	16	5	0	WHEAT	1602	n/a	0	n/a	n/a	n/a	n/a	n/a
710691	REC_WORD	wordpools/wasnorm_wordpool.txt	LTP073	ltpFR	16	5	0	DOUGH	489	n/a	0	n/a	n/a	n/a	n/a	n/a
711824	REC_WORD	wordpools/wasnorm_wordpool.txt	LTP073	ltpFR	16	5	0	KNAPSACK	783	n/a	0	n/a	n/a	n/a	n/a	n/a
712916	REC_WORD	wordpools/wasnorm_wordpool.txt	LTP073	ltpFR	16	5	0	PURSE	1145	n/a	0	n/a	n/a	n/a	n/a	n/a
714363	REC_WORD	wordpools/wasnorm_wordpool.txt	LTP073	ltpFR	16	5	0	GOBLIN	645	n/a	1	n/a	n/a	n/a	n/a	n/a
715924	REC_WORD	wordpools/wasnorm_wordpool.txt	LTP073	ltpFR	16	5	n/a	MICROWAVE	892	n/a	n/a	n/a	n/a	n/a	n/a	n/a
717062	REC_WORD	wordpools/wasnorm_wordpool.txt	LTP073	ltpFR	16	5	0	REFRIGERATOR	1179	n/a	1	n/a	n/a	n/a	n/a	n/a
723986	REC_WORD	wordpools/wasnorm_wordpool.txt	LTP073	ltpFR	16	5	n/a	KITCHEN	778	n/a	n/a	n/a	n/a	n/a	n/a	n/a
729109	REC_WORD	wordpools/wasnorm_wordpool.txt	LTP073	ltpFR	16	5	0	COLESLAW	344	n/a	0	n/a	n/a	n/a	n/a	n/a
730396	REC_WORD	wordpools/wasnorm_wordpool.txt	LTP073	ltpFR	16	5	0	FIREMAN	569	n/a	1	n/a	n/a	n/a	n/a	n/a
734801	REC_WORD	wordpools/wasnorm_wordpool.txt	LTP073	ltpFR	16	5	n/a	MAILMAN	858	n/a	n/a	n/a	n/a	n/a	n/a	n/a
781171	REC_WORD	wordpools/wasnorm_wordpool.txt	LTP073	ltpFR	16	5	0	HUT	729	n/a	0	n/a	n/a	n/a	n/a	n/a
791538	WORD	wordpools/wasnorm_wordpool.txt	LTP073	ltpFR	16	6	-1	RUNNER	1218	n/a	-1	1	1.0	1.0	upper	../fonts/Verdana.ttf
795676	WORD	wordpools/wasnorm_wordpool.txt	LTP073	ltpFR	16	6	-1	CHARCOAL	281	n/a	-1	1	1.0	1.0	upper	../fonts/Verdana.ttf
799496	WORD	wordpools/wasnorm_wordpool.txt	LTP073	ltpFR	16	6	-1	ASH	44	n/a	-1	1	1.0	1.0	upper	../fonts/Verdana.ttf
803383	WORD	wordpools/wasnorm_wordpool.txt	LTP073	ltpFR	16	6	-1	VEIN	1554	n/a	-1	1	1.0	1.0	upper	../fonts/Verdana.ttf
807270	WORD	wordpools/wasnorm_wordpool.txt	LTP073	ltpFR	16	6	-1	EMPLOYEE	531	n/a	-1	1	1.0	1.0	upper	../fonts/Verdana.ttf
811390	WORD	wordpools/wasnorm_wordpool.txt	LTP073	ltpFR	16	6	-1	BOULEVARD	156	n/a	-1	1	1.0	1.0	upper	../fonts/Verdana.ttf
815360	WORD	wordpools/wasnorm_wordpool.txt	LTP073	ltpFR	16	6	-1	ROAD	1196	n/a	-1	1	1.0	1.0	upper	../fonts/Verdana.ttf
819447	WORD	wordpools/wasnorm_wordpool.txt	LTP073	ltpFR	16	6	-1	BALLERINA	74	n/a	-1	1	1.0	1.0	upper	../fonts/Verdana.ttf
823359	WORD	wordpools/wasnorm_wordpool.txt	LTP073	ltpFR	16	6	-1	PEDESTRIAN	1038	n/a	-1	1	1.0	1.0	upper	../fonts/Verdana.ttf
827538	WORD	wordpools/wasnorm_wordpool.txt	LTP073	ltpFR	16	6	-1	VEGETABLE	1552	n/a	-1	1	1.0	1.0	upper	../fonts/Verdana.ttf
831375	WORD	wordpools/wasnorm_wordpool.txt	LTP073	ltpFR	16	6	-1	APPLE	33	n/a	-1	1	1.0	1.0	upper	../fonts/Verdana.ttf
835354	WORD	wordpools/wasnorm_wordpool.txt	LTP073	ltpFR	16	6	-1	CRICKET	408	n/a	-1	1	1.0	1.0	upper	../fonts/Verdana.ttf
839266	WORD	wordpools/wasnorm_wordpool.txt	LTP073	ltpFR	16	6	-1	BATTERY	101	n/a	-1	1	1.0	1.0	upper	../fonts/Verdana.ttf
843369	WORD	wordpools/wasnorm_wordpool.txt	LTP073	ltpFR	16	6	-1	HOOP	716	n/a	-1	1	1.0	1.0	upper	../fonts/Verdana.ttf
847506	WORD	wordpools/wasnorm_wordpool.txt	LTP073	ltpFR	16	6	-1	TORTOISE	1486	n/a	-1	1	1.0	1.0	upper	../fonts/Verdana.ttf
851535	WORD	wordpools/wasnorm_wordpool.txt	LTP073	ltpFR	16	6	-1	CAB	209	n/a	-1	1	1.0	1.0	upper	../fonts/Verdana.ttf
857204	REC_START	n/a	LTP073	ltpFR	16	6	n/a	n/a	n/a	n/a	n/a	n/a	n/a	n/a	n/a	n/a
857877	REC_WORD	wordpools/wasnorm_wordpool.txt	LTP073	ltpFR	16	6	-1	CAB	209	n/a	-1	n/a	n/a	n/a	n/a	n/a
858775	REC_WORD	wordpools/wasnorm_wordpool.txt	LTP073	ltpFR	16	6	-1	TORTOISE	1486	n/a	-1	n/a	n/a	n/a	n/a	n/a
859868	REC_WORD	wordpools/wasnorm_wordpool.txt	LTP073	ltpFR	16	6	-1	RUNNER	1218	n/a	-1	n/a	n/a	n/a	n/a	n/a
861200	REC_WORD	wordpools/wasnorm_wordpool.txt	LTP073	ltpFR	16	6	-1	HOOP	716	n/a	-1	n/a	n/a	n/a	n/a	n/a
863280	REC_WORD	wordpools/wasnorm_wordpool.txt	LTP073	ltpFR	16	6	n/a	BASKETBALL	96	n/a	n/a	n/a	n/a	n/a	n/a	n/a
886687	REC_WORD	wordpools/wasnorm_wordpool.txt	LTP073	ltpFR	16	6	-1	BOULEVARD	156	n/a	-1	n/a	n/a	n/a	n/a	n/a
887670	REC_WORD	wordpools/wasnorm_wordpool.txt	LTP073	ltpFR	16	6	0	OFFICE	972	n/a	1	n/a	n/a	n/a	n/a	n/a
890817	REC_WORD	wordpools/wasnorm_wordpool.txt	LTP073	ltpFR	16	6	n/a	STREET	1393	n/a	n/a	n/a	n/a	n/a	n/a	n/a
901668	REC_WORD	wordpools/wasnorm_wordpool.txt	LTP073	ltpFR	16	6	-1	CHARCOAL	281	n/a	-1	n/a	n/a	n/a	n/a	n/a
903688	REC_WORD	wordpools/wasnorm_wordpool.txt	LTP073	ltpFR	16	6	n/a	FIRE	-1	n/a	n/a	n/a	n/a	n/a	n/a	n/a
915506	REC_WORD	wordpools/wasnorm_wordpool.txt	LTP073	ltpFR	16	6	-1	EMPLOYEE	531	n/a	-1	n/a	n/a	n/a	n/a	n/a
917582	REC_WORD	wordpools/wasnorm_wordpool.txt	LTP073	ltpFR	16	6	-1	BALLERINA	74	n/a	-1	n/a	n/a	n/a	n/a	n/a
920645	REC_WORD	wordpools/wasnorm_wordpool.txt	LTP073	ltpFR	16	6	n/a	DANCER	437	n/a	n/a	n/a	n/a	n/a	n/a	n/a
928293	REC_WORD	wordpools/wasnorm_wordpool.txt	LTP073	ltpFR	16	6	0	TUNA	1518	n/a	1	n/a	n/a	n/a	n/a	n/a
939565	WORD	wordpools/wasnorm_wordpool.txt	LTP073	ltpFR	16	7	1	HOOD	714	n/a	0	0	0.5869140625	0.422607421875	lower	../fonts/zerothre.ttf
943602	WORD	wordpools/wasnorm_wordpool.txt	LTP073	ltpFR	16	7	1	BIRD	129	n/a	1	0	0.5869140625	0.422607421875	lower	../fonts/zerothre.ttf
947756	WORD	wordpools/wasnorm_wordpool.txt	LTP073	ltpFR	16	7	1	MOTEL	919	n/a	0	0	0.5869140625	0.422607421875	lower	../fonts/zerothre.ttf
951793	WORD	wordpools/wasnorm_wordpool.txt	LTP073	ltpFR	16	7	1	GIRAFFE	636	n/a	1	0	0.5869140625	0.422607421875	lower	../fonts/zerothre.ttf
955746	WORD	wordpools/wasnorm_wordpool.txt	LTP073	ltpFR	16	7	1	RACCOON	1153	n/a	1	0	0.5869140625	0.422607421875	lower	../fonts/zerothre.ttf
959750	WORD	wordpools/wasnorm_wordpool.txt	LTP073	ltpFR	16	7	1	JEWEL	757	n/a	0	0	0.5869140625	0.422607421875	lower	../fonts/zerothre.ttf
963654	WORD	wordpools/wasnorm_wordpool.txt	LTP073	ltpFR	16	7	1	BAND	78	n/a	0	0	0.5869140625	0.422607421875	lower	../fonts/zerothre.ttf
967558	WORD	wordpools/wasnorm_wordpool.txt	LTP073	ltpFR	16	7	1	ORCHESTRA	981	n/a	1	0	0.5869140625	0.422607421875	lower	../fonts/zerothre.ttf
971736	WORD	wordpools/wasnorm_wordpool.txt	LTP073	ltpFR	16	7	1	PARROT	1015	n/a	1	0	0.5869140625	0.422607421875	lower	../fonts/zerothre.ttf
975740	WORD	wordpools/wasnorm_wordpool.txt	LTP073	ltpFR	16	7	1	CAPE	237	n/a	0	0	0.5869140625	0.422607421875	lower	../fonts/zerothre.ttf
979661	WORD	wordpools/wasnorm_wordpool.txt	LTP073	ltpFR	16	7	1	FIST	572	n/a	0	0	0.5869140625	0.422607421875	lower	../fonts/zerothre.ttf
983547	WORD	wordpools/wasnorm_wordpool.txt	LTP073	ltpFR	16	7	1	TAG	1429	n/a	0	0	0.5869140625	0.422607421875	lower	../fonts/zerothre.ttf
987643	WORD	wordpools/wasnorm_wordpool.txt	LTP073	ltpFR	16	7	1	LOUNGE	845	n/a	0	0	0.5869140625	0.422607421875	lower	../fonts/zerothre.ttf
991729	WORD	wordpools/wasnorm_wordpool.txt	LTP073	ltpFR	16	7	1	HOOK	715	n/a	0	0	0.5869140625	0.422607421875	lower	../fonts/zerothre.ttf
995758	WORD	wordpools/wasnorm_wordpool.txt	LTP073	ltpFR	16	7	1	VIRUS	1572	n/a	0	0	0.5869140625	0.422607421875	lower	../fonts/zerothre.ttf
999862	WORD	wordpools/wasnorm_wordpool.txt	LTP073	ltpFR	16	7	1	TRAIN	1494	n/a	0	0	0.5869140625	0.422607421875	lower	../fonts/zerothre.ttf
1005872	REC_START	n/a	LTP073	ltpFR	16	7	n/a	n/a	n/a	n/a	n/a	n/a	n/a	n/a	n/a	n/a
1006475	REC_WORD	wordpools/wasnorm_wordpool.txt	LTP073	ltpFR	16	7	1	TRAIN	1494	n/a	0	n/a	n/a	n/a	n/a	n/a
1007294	REC_WORD	wordpools/wasnorm_wordpool.txt	LTP073	ltpFR	16	7	1	VIRUS	1572	n/a	0	n/a	n/a	n/a	n/a	n/a
1008596	REC_WORD	wordpools/wasnorm_wordpool.txt	LTP073	ltpFR	16	7	1	CAPE	237	n/a	0	n/a	n/a	n/a	n/a	n/a
1009369	REC_WORD	wordpools/wasnorm_wordpool.txt	LTP073	ltpFR	16	7	1	TAG	1429	n/a	0	n/a	n/a	n/a	n/a	n/a
1010027	REC_WORD	wordpools/wasnorm_wordpool.txt	LTP073	ltpFR	16	7	1	FIST	572	n/a	0	n/a	n/a	n/a	n/a	n/a
1011319	REC_WORD	wordpools/wasnorm_wordpool.txt	LTP073	ltpFR	16	7	1	HOOK	715	n/a	0	n/a	n/a	n/a	n/a	n/a
1012462	REC_WORD	wordpools/wasnorm_wordpool.txt	LTP073	ltpFR	16	7	1	HOOD	714	n/a	0	n/a	n/a	n/a	n/a	n/a
1013779	REC_WORD	wordpools/wasnorm_wordpool.txt	LTP073	ltpFR	16	7	1	GIRAFFE	636	n/a	1	n/a	n/a	n/a	n/a	n/a
1014622	REC_WORD	wordpools/wasnorm_wordpool.txt	LTP073	ltpFR	16	7	1	BIRD	129	n/a	1	n/a	n/a	n/a	n/a	n/a
1015804	REC_WORD	wordpools/wasnorm_wordpool.txt	LTP073	ltpFR	16	7	1	PARROT	1015	n/a	1	n/a	n/a	n/a	n/a	n/a
1019271	REC_WORD	wordpools/wasnorm_wordpool.txt	LTP073	ltpFR	16	7	1	LOUNGE	845	n/a	0	n/a	n/a	n/a	n/a	n/a
1032017	REC_WORD	wordpools/wasnorm_wordpool.txt	LTP073	ltpFR	16	7	-1	CRICKET	408	n/a	-1	n/a	n/a	n/a	n/a	n/a
1038762	REC_WORD	wordpools/wasnorm_wordpool.txt	LTP073	ltpFR	16	7	n/a	BAR	-1	n/a	n/a	n/a	n/a	n/a	n/a	n/a
1086785	WORD	wordpools/wasnorm_wordpool.txt	LTP073	ltpFR	16	8	1	BABY	64	n/a	1	0	0.5869140625	0.422607421875	lower	../fonts/zerothre.ttf
1090639	WORD	wordpools/wasnorm_wordpool.txt	LTP073	ltpFR	16	8	1	CLAW	319	n/a	0	0	0.5869140625	0.422607421875	lower	../fonts/zerothre.ttf
1094817	WORD	wordpools/wasnorm_wordpool.txt	LTP073	ltpFR	16	8	1	TREE	1502	n/a	0	0	0.5869140625	0.422607421875	lower	../fonts/zerothre.ttf
1098979	WORD	wordpools/wasnorm_wordpool.txt	LTP073	ltpFR	16	8	1	POSSUM	1112	n/a	1	0	0.5869140625	0.422607421875	lower	../fonts/zerothre.ttf
1102941	WORD	wordpools/wasnorm_wordpool.txt	LTP073	ltpFR	16	8	1	TURTLE	1522	n/a	1	0	0.5869140625	0.422607421875	lower	../fonts/zerothre.ttf
1107045	WORD	wordpools/wasnorm_wordpool.txt	LTP073	ltpFR	16	8	1	MARBLE	867	n/a	0	0	0.5869140625	0.422607421875	lower	../fonts/zerothre.ttf
1110998	WORD	wordpools/wasnorm_wordpool.txt	LTP073	ltpFR	16	8	1	POTTERY	1116	n/a	0	0	0.5869140625	0.422607421875	lower	../fonts/zerothre.ttf
1115060	WORD	wordpools/wasnorm_wordpool.txt	LTP073	ltpFR	16	8	1	CERAMICS	271	n/a	0	0	0.5869140625	0.422607421875	lower	../fonts/zerothre.ttf
1119064	WORD	wordpools/wasnorm_wordpool.txt	LTP073	ltpFR	16	8	1	PANTHER	1009	n/a	1	0	0.5869140625	0.422607421875	lower	../fonts/zerothre.ttf
1123018	WORD	wordpools/wasnorm_wordpool.txt	LTP073	ltpFR	16	8	1	PLASTER	1085	n/a	0	0	0.5869140625	0.422607421875	lower	../fonts/zerothre.ttf
1126855	WORD	wordpools/wasnorm_wordpool.txt	LTP073	ltpFR	16	8	1	MEAL	882	n/a	1	0	0.5869140625	0.422607421875	lower	../fonts/zerothre.ttf
1131042	WORD	wordpools/wasnorm_wordpool.txt	LTP073	ltpFR	16	8	1	CUPBOARD	425	n/a	0	0	0.5869140625	0.422607421875	lower	../fonts/zerothre.ttf
1135154	WORD	wordpools/wasnorm_wordpool.txt	LTP073	ltpFR	16	8	1	BLOCKADE	137	n/a	0	0	0.5869140625	0.422607421875	lower	../fonts/zerothre.ttf
1139174	WORD	wordpools/wasnorm_wordpool.txt	LTP073	ltpFR	16	8	1	ORNAMENT	985	n/a	0	0	0.5869140625	0.422607421875	lower	../fonts/zerothre.ttf
1143277	WORD	wordpools/wasnorm_wordpool.txt	LTP073	ltpFR	16	8	1	WRITER	1627	n/a	1	0	0.5869140625	0.422607421875	lower	../fonts/zerothre.ttf
1147356	WORD	wordpools/wasnorm_wordpool.txt	LTP073	ltpFR	16	8	1	SKYSCRAPER	1322	n/a	0	0	0.5869140625	0.422607421875	lower	../fonts/zerothre.ttf
1153416	REC_START	n/a	LTP073	ltpFR	16	8	n/a	n/a	n/a	n/a	n/a	n/a	n/a	n/a	n/a	n/a
1154309	REC_WORD	wordpools/wasnorm_wordpool.txt	LTP073	ltpFR	16	8	1	SKYSCRAPER	1322	n/a	0	n/a	n/a	n/a	n/a	n/a
1155896	REC_WORD	wordpools/wasnorm_wordpool.txt	LTP073	ltpFR	16	8	1	WRITER	1627	n/a	1	n/a	n/a	n/a	n/a	n/a
1156818	REC_WORD	wordpools/wasnorm_wordpool.txt	LTP073	ltpFR	16	8	1	BABY	64	n/a	1	n/a	n/a	n/a	n/a	n/a
1157946	REC_WORD	wordpools/wasnorm_wordpool.txt	LTP073	ltpFR	16	8	1	PANTHER	1009	n/a	1	n/a	n/a	n/a	n/a	n/a
1159003	REC_WORD	wordpools/wasnorm_wordpool.txt	LTP073	ltpFR	16	8	1	POSSUM	1112	n/a	1	n/a	n/a	n/a	n/a	n/a
1160639	REC_WORD	wordpools/wasnorm_wordpool.txt	LTP073	ltpFR	16	8	1	CLAW	319	n/a	0	n/a	n/a	n/a	n/a	n/a
1165907	REC_WORD	wordpools/wasnorm_wordpool.txt	LTP073	ltpFR	16	8	1	OTTER	986	n/a	1	n/a	n/a	n/a	n/a	n/a
1254331	WORD	wordpools/wasnorm_wordpool.txt	LTP073	ltpFR	16	9	1	OLIVE	975	n/a	0	0	0.5869140625	0.422607421875	lower	../fonts/zerothre.ttf
1258235	WORD	wordpools/wasnorm_wordpool.txt	LTP073	ltpFR	16	9	1	ONION	977	n/a	0	0	0.5869140625	0.422607421875	lower	../fonts/zerothre.ttf
1262413	WORD	wordpools/wasnorm_wordpool.txt	LTP073	ltpFR	16	9	1	HANDKERCHIEF	686	n/a	0	0	0.5869140625	0.422607421875	lower	../fonts/zerothre.ttf
1266367	WORD	wordpools/wasnorm_wordpool.txt	LTP073	ltpFR	16	9	1	CATTLE	261	n/a	1	0	0.5869140625	0.422607421875	lower	../fonts/zerothre.ttf
1270287	WORD	wordpools/wasnorm_wordpool.txt	LTP073	ltpFR	16	9	1	PLAQUE	1084	n/a	0	0	0.5869140625	0.422607421875	lower	../fonts/zerothre.ttf
1274149	WORD	wordpools/wasnorm_wordpool.txt	LTP073	ltpFR	16	9	1	MOON	914	n/a	0	0	0.5869140625	0.422607421875	lower	../fonts/zerothre.ttf
1278203	WORD	wordpools/wasnorm_wordpool.txt	LTP073	ltpFR	16	9	1	HEDGE	699	n/a	0	0	0.5869140625	0.422607421875	lower	../fonts/zerothre.ttf
1282373	WORD	wordpools/wasnorm_wordpool.txt	LTP073	ltpFR	16	9	1	BROCCOLI	176	n/a	0	0	0.5869140625	0.422607421875	lower	../fonts/zerothre.ttf
1286518	WORD	wordpools/wasnorm_wordpool.txt	LTP073	ltpFR	16	9	1	STAR	1373	n/a	0	0	0.5869140625	0.422607421875	lower	../fonts/zerothre.ttf
1290564	WORD	wordpools/wasnorm_wordpool.txt	LTP073	ltpFR	16	9	1	COOK	372	n/a	1	0	0.5869140625	0.422607421875	lower	../fonts/zerothre.ttf
1294517	WORD	wordpools/wasnorm_wordpool.txt	LTP073	ltpFR	16	9	1	VAMPIRE	1547	n/a	1	0	0.5869140625	0.422607421875	lower	../fonts/zerothre.ttf
1298646	WORD	wordpools/wasnorm_wordpool.txt	LTP073	ltpFR	16	9	1	TROUT	1511	n/a	1	0	0.5869140625	0.422607421875	lower	../fonts/zerothre.ttf
1302633	WORD	wordpools/wasnorm_wordpool.txt	LTP073	ltpFR	16	9	1	SEAFOOD	1260	n/a	0	0	0.5869140625	0.422607421875	lower	../fonts/zerothre.ttf
1306587	WORD	wordpools/wasnorm_wordpool.txt	LTP073	ltpFR	16	9	1	RECORD	1176	n/a	0	0	0.5869140625	0.422607421875	lower	../fonts/zerothre.ttf
1310757	WORD	wordpools/wasnorm_wordpool.txt	LTP073	ltpFR	16	9	1	BRUNETTE	181	n/a	0	0	0.5869140625	0.422607421875	lower	../fonts/zerothre.ttf
1314711	WORD	wordpools/wasnorm_wordpool.txt	LTP073	ltpFR	16	9	1	CAPITAL	238	n/a	0	0	0.5869140625	0.422607421875	lower	../fonts/zerothre.ttf
1320380	REC_START	n/a	LTP073	ltpFR	16	9	n/a	n/a	n/a	n/a	n/a	n/a	n/a	n/a	n/a	n/a
1321911	REC_WORD	wordpools/wasnorm_wordpool.txt	LTP073	ltpFR	16	9	1	TROUT	1511	n/a	1	n/a	n/a	n/a	n/a	n/a
1322640	REC_WORD	wordpools/wasnorm_wordpool.txt	LTP073	ltpFR	16	9	1	SEAFOOD	1260	n/a	0	n/a	n/a	n/a	n/a	n/a
1323712	REC_WORD	wordpools/wasnorm_wordpool.txt	LTP073	ltpFR	16	9	1	BRUNETTE	181	n/a	0	n/a	n/a	n/a	n/a	n/a
1325094	REC_WORD	wordpools/wasnorm_wordpool.txt	LTP073	ltpFR	16	9	1	OLIVE	975	n/a	0	n/a	n/a	n/a	n/a	n/a
1325812	REC_WORD	wordpools/wasnorm_wordpool.txt	LTP073	ltpFR	16	9	1	ONION	977	n/a	0	n/a	n/a	n/a	n/a	n/a
1326506	REC_WORD	wordpools/wasnorm_wordpool.txt	LTP073	ltpFR	16	9	1	BROCCOLI	176	n/a	0	n/a	n/a	n/a	n/a	n/a
1327878	REC_WORD	wordpools/wasnorm_wordpool.txt	LTP073	ltpFR	16	9	1	CATTLE	261	n/a	1	n/a	n/a	n/a	n/a	n/a
1328735	REC_WORD	wordpools/wasnorm_wordpool.txt	LTP073	ltpFR	16	9	1	VAMPIRE	1547	n/a	1	n/a	n/a	n/a	n/a	n/a
1330786	REC_WORD	wordpools/wasnorm_wordpool.txt	LTP073	ltpFR	16	9	1	COOK	372	n/a	1	n/a	n/a	n/a	n/a	n/a
1332916	REC_WORD	wordpools/wasnorm_wordpool.txt	LTP073	ltpFR	16	9	n/a	CHEF	290	n/a	n/a	n/a	n/a	n/a	n/a	n/a
1343108	REC_WORD	wordpools/wasnorm_wordpool.txt	LTP073	ltpFR	16	9	0	HUT	729	n/a	0	n/a	n/a	n/a	n/a	n/a
1356358	REC_WORD	wordpools/wasnorm_wordpool.txt	LTP073	ltpFR	16	9	n/a	RANCH	1166	n/a	n/a	n/a	n/a	n/a	n/a	n/a
1421785	WORD	wordpools/wasnorm_wordpool.txt	LTP073	ltpFR	16	10	1	VET	1560	n/a	1	0	0.5869140625	0.422607421875	lower	../fonts/zerothre.ttf
1425897	WORD	wordpools/wasnorm_wordpool.txt	LTP073	ltpFR	16	10	1	DOG	480	n/a	1	0	0.5869140625	0.422607421875	lower	../fonts/zerothre.ttf
1429759	WORD	wordpools/wasnorm_wordpool.txt	LTP073	ltpFR	16	10	1	OPERATOR	979	n/a	1	0	0.5869140625	0.422607421875	lower	../fonts/zerothre.ttf
1433805	WORD	wordpools/wasnorm_wordpool.txt	LTP073	ltpFR	16	10	1	RING	1193	n/a	0	0	0.5869140625	0.422607421875	lower	../fonts/zerothre.ttf
1437783	WORD	wordpools/wasnorm_wordpool.txt	LTP073	ltpFR	16	10	0	SHRINE	1298	n/a	1	1	0.412841796875	0.57763671875	upper	../fonts/amplitud.ttf
1441721	WORD	wordpools/wasnorm_wordpool.txt	LTP073	ltpFR	16	10	0	IDOL	733	n/a	1	1	0.412841796875	0.57763671875	upper	../fonts/amplitud.ttf
1445832	WORD	wordpools/wasnorm_wordpool.txt	LTP073	ltpFR	16	10	0	PICNIC	1060	n/a	1	1	0.412841796875	0.57763671875	upper	../fonts/amplitud.ttf
1449853	WORD	wordpools/wasnorm_wordpool.txt	LTP073	ltpFR	16	10	1	HAWK	692	n/a	1	0	0.5869140625	0.422607421875	lower	../fonts/zerothre.ttf
1453815	WORD	wordpools/wasnorm_wordpool.txt	LTP073	ltpFR	16	10	1	FOUNTAIN	597	n/a	0	0	0.5869140625	0.422607421875	lower	../fonts/zerothre.ttf
1457802	WORD	wordpools/wasnorm_wordpool.txt	LTP073	ltpFR	16	10	0	NAIL	936	n/a	0	1	0.412841796875	0.57763671875	upper	../fonts/amplitud.ttf
1461880	WORD	wordpools/wasnorm_wordpool.txt	LTP073	ltpFR	16	10	0	BEET	115	n/a	0	1	0.412841796875	0.57763671875	upper	../fonts/amplitud.ttf
1465826	WORD	wordpools/wasnorm_wordpool.txt	LTP073	ltpFR	16	10	0	WATER	1594	n/a	0	1	0.412841796875	0.57763671875	upper	../fonts/amplitud.ttf
1469896	WORD	wordpools/wasnorm_wordpool.txt	LTP073	ltpFR	16	10	0	HATCHET	691	n/a	1	1	0.412841796875	0.57763671875	upper	../fonts/amplitud.ttf
1473883	WORD	wordpools/wasnorm_wordpool.txt	LTP073	ltpFR	16	10	0	SAILOR	1223	n/a	1	1	0.412841796875	0.57763671875	upper	../fonts/amplitud.ttf
1477787	WORD	wordpools/wasnorm_wordpool.txt	LTP073	ltpFR	16	10	1	ANGEL	22	n/a	1	0	0.5869140625	0.422607421875	lower	../fonts/zerothre.ttf
1481865	WORD	wordpools/wasnorm_wordpool.txt	LTP073	ltpFR	16	10	1	VESSEL	1558	n/a	0	0	0.5869140625	0.422607421875	lower	../fonts/zerothre.ttf
1487834	REC_START	n/a	LTP073	ltpFR	16	10	n/a	n/a	n/a	n/a	n/a	n/a	n/a	n/a	n/a	n/a
1488522	REC_WORD	wordpools/wasnorm_wordpool.txt	LTP073	ltpFR	16	10	0	SAILOR	1223	n/a	1	n/a	n/a	n/a	n/a	n/a
1489294	REC_WORD	wordpools/wasnorm_wordpool.txt	LTP073	ltpFR	16	10	1	VESSEL	1558	n/a	0	n/a	n/a	n/a	n/a	n/a
1490153	REC_WORD	wordpools/wasnorm_wordpool.txt	LTP073	ltpFR	16	10	0	WATER	1594	n/a	0	n/a	n/a	n/a	n/a	n/a
1490839	REC_WORD	wordpools/wasnorm_wordpool.txt	LTP073	ltpFR	16	10	0	HATCHET	691	n/a	1	n/a	n/a	n/a	n/a	n/a
1495846	REC_WORD	wordpools/wasnorm_wordpool.txt	LTP073	ltpFR	16	10	n/a	HUP	-1	n/a	n/a	n/a	n/a	n/a	n/a	n/a
1496330	REC_WORD	wordpools/wasnorm_wordpool.txt	LTP073	ltpFR	16	10	1	OPERATOR	979	n/a	1	n/a	n/a	n/a	n/a	n/a
1497472	REC_WORD	wordpools/wasnorm_wordpool.txt	LTP073	ltpFR	16	10	1	RING	1193	n/a	0	n/a	n/a	n/a	n/a	n/a
1499562	REC_WORD	wordpools/wasnorm_wordpool.txt	LTP073	ltpFR	16	10	n/a	PHONE	-1	n/a	n/a	n/a	n/a	n/a	n/a	n/a
1507145	REC_WORD	wordpools/wasnorm_wordpool.txt	LTP073	ltpFR	16	10	1	DOG	480	n/a	1	n/a	n/a	n/a	n/a	n/a
1508127	REC_WORD	wordpools/wasnorm_wordpool.txt	LTP073	ltpFR	16	10	1	VET	1560	n/a	1	n/a	n/a	n/a	n/a	n/a
1521123	REC_WORD	wordpools/wasnorm_wordpool.txt	LTP073	ltpFR	16	10	n/a	SHIP	1286	n/a	n/a	n/a	n/a	n/a	n/a	n/a
1531370	REC_WORD	wordpools/wasnorm_wordpool.txt	LTP073	ltpFR	16	10	0	PICNIC	1060	n/a	1	n/a	n/a	n/a	n/a	n/a
1542010	REC_WORD	wordpools/wasnorm_wordpool.txt	LTP073	ltpFR	16	10	n/a	PLANET	1082	n/a	n/a	n/a	n/a	n/a	n/a	n/a
1587059	WORD	wordpools/wasnorm_wordpool.txt	LTP073	ltpFR	16	11	-1	HERO	706	n/a	-1	1	1.0	1.0	upper	../fonts/Verdana.ttf
1590954	WORD	wordpools/wasnorm_wordpool.txt	LTP073	ltpFR	16	11	-1	MAP	865	n/a	-1	1	1.0	1.0	upper	../fonts/Verdana.ttf
1595091	WORD	wordpools/wasnorm_wordpool.txt	LTP073	ltpFR	16	11	-1	FUNGUS	614	n/a	-1	1	1.0	1.0	upper	../fonts/Verdana.ttf
1599087	WORD	wordpools/wasnorm_wordpool.txt	LTP073	ltpFR	16	11	-1	LION	827	n/a	-1	1	1.0	1.0	upper	../fonts/Verdana.ttf
1603298	WORD	wordpools/wasnorm_wordpool.txt	LTP073	ltpFR	16	11	-1	SALAD	1224	n/a	-1	1	1.0	1.0	upper	../fonts/Verdana.ttf
1607402	WORD	wordpools/wasnorm_wordpool.txt	LTP073	ltpFR	16	11	-1	TOMATO	1476	n/a	-1	1	1.0	1.0	upper	../fonts/Verdana.ttf
1611580	WORD	wordpools/wasnorm_wordpool.txt	LTP073	ltpFR	16	11	-1	PUDDLE	1140	n/a	-1	1	1.0	1.0	upper	../fonts/Verdana.ttf
1615434	WORD	wordpools/wasnorm_wordpool.txt	LTP073	ltpFR	16	11	-1	GIRL	637	n/a	-1	1	1.0	1.0	upper	../fonts/Verdana.ttf
1619321	WORD	wordpools/wasnorm_wordpool.txt	LTP073	ltpFR	16	11	-1	SOCK	1339	n/a	-1	1	1.0	1.0	upper	../fonts/Verdana.ttf
1623308	WORD	wordpools/wasnorm_wordpool.txt	LTP073	ltpFR	16	11	-1	BUGLE	189	n/a	-1	1	1.0	1.0	upper	../fonts/Verdana.ttf
1627279	WORD	wordpools/wasnorm_wordpool.txt	LTP073	ltpFR	16	11	-1	KANGAROO	768	n/a	-1	1	1.0	1.0	upper	../fonts/Verdana.ttf
1631207	WORD	wordpools/wasnorm_wordpool.txt	LTP073	ltpFR	16	11	-1	ZOO	1637	n/a	-1	1	1.0	1.0	upper	../fonts/Verdana.ttf
1635311	WORD	wordpools/wasnorm_wordpool.txt	LTP073	ltpFR	16	11	-1	BOY	161	n/a	-1	1	1.0	1.0	upper	../fonts/Verdana.ttf
1639206	WORD	wordpools/wasnorm_wordpool.txt	LTP073	ltpFR	16	11	-1	TURNIP	1521	n/a	-1	1	1.0	1.0	upper	../fonts/Verdana.ttf
1643143	WORD	wordpools/wasnorm_wordpool.txt	LTP073	ltpFR	16	11	-1	FAIRY	549	n/a	-1	1	1.0	1.0	upper	../fonts/Verdana.ttf
1647272	WORD	wordpools/wasnorm_wordpool.txt	LTP073	ltpFR	16	11	-1	MAGICIAN	854	n/a	-1	1	1.0	1.0	upper	../fonts/Verdana.ttf
1652891	REC_START	n/a	LTP073	ltpFR	16	11	n/a	n/a	n/a	n/a	n/a	n/a	n/a	n/a	n/a	n/a
1653784	REC_WORD	wordpools/wasnorm_wordpool.txt	LTP073	ltpFR	16	11	-1	MAGICIAN	854	n/a	-1	n/a	n/a	n/a	n/a	n/a
1654617	REC_WORD	wordpools/wasnorm_wordpool.txt	LTP073	ltpFR	16	11	-1	FAIRY	549	n/a	-1	n/a	n/a	n/a	n/a	n/a
1655329	REC_WORD	wordpools/wasnorm_wordpool.txt	LTP073	ltpFR	16	11	-1	TURNIP	1521	n/a	-1	n/a	n/a	n/a	n/a	n/a
1655978	REC_WORD	wordpools/wasnorm_wordpool.txt	LTP073	ltpFR	16	11	-1	ZOO	1637	n/a	-1	n/a	n/a	n/a	n/a	n/a
1657251	REC_WORD	wordpools/wasnorm_wordpool.txt	LTP073	ltpFR	16	11	-1	KANGAROO	768	n/a	-1	n/a	n/a	n/a	n/a	n/a
1658588	REC_WORD	wordpools/wasnorm_wordpool.txt	LTP073	ltpFR	16	11	-1	BUGLE	189	n/a	-1	n/a	n/a	n/a	n/a	n/a
1662225	REC_WORD	wordpools/wasnorm_wordpool.txt	LTP073	ltpFR	16	11	-1	HERO	706	n/a	-1	n/a	n/a	n/a	n/a	n/a
1663282	REC_WORD	wordpools/wasnorm_wordpool.txt	LTP073	ltpFR	16	11	-1	MAP	865	n/a	-1	n/a	n/a	n/a	n/a	n/a
1665377	REC_WORD	wordpools/wasnorm_wordpool.txt	LTP073	ltpFR	16	11	0	SHRINE	1298	n/a	1	n/a	n/a	n/a	n/a	n/a
1666610	REC_WORD	wordpools/wasnorm_wordpool.txt	LTP073	ltpFR	16	11	0	IDOL	733	n/a	1	n/a	n/a	n/a	n/a	n/a
1672496	REC_WORD	wordpools/wasnorm_wordpool.txt	LTP073	ltpFR	16	11	-1	FUNGUS	614	n/a	-1	n/a	n/a	n/a	n/a	n/a
1673313	REC_WORD	wordpools/wasnorm_wordpool.txt	LTP073	ltpFR	16	11	-1	SALAD	1224	n/a	-1	n/a	n/a	n/a	n/a	n/a
1674217	REC_WORD	wordpools/wasnorm_wordpool.txt	LTP073	ltpFR	16	11	-1	TOMATO	1476	n/a	-1	n/a	n/a	n/a	n/a	n/a
1677221	REC_WORD	wordpools/wasnorm_wordpool.txt	LTP073	ltpFR	16	11	n/a	PADDLE	1000	n/a	n/a	n/a	n/a	n/a	n/a	n/a
1679954	REC_WORD	wordpools/wasnorm_wordpool.txt	LTP073	ltpFR	16	11	n/a	PUZZLE	1146	n/a	n/a	n/a	n/a	n/a	n/a	n/a
1755737	WORD	wordpools/wasnorm_wordpool.txt	LTP073	ltpFR	16	12	0	SNAKE	1333	n/a	n/a	1	0.412841796875	0.57763671875	upper	../fonts/amplitud.ttf
1758758	SLOW_MSG	n/a	LTP073	ltpFR	16	12	n/a	n/a	n/a	n/a	n/a	n/a	n/a	n/a	n/a	n/a
1761122	WORD	wordpools/wasnorm_wordpool.txt	LTP073	ltpFR	16	12	0	MERMAID	887	n/a	1	1	0.412841796875	0.57763671875	upper	../fonts/amplitud.ttf
1765068	WORD	wordpools/wasnorm_wordpool.txt	LTP073	ltpFR	16	12	1	DIRECTOR	471	n/a	1	0	0.5869140625	0.422607421875	lower	../fonts/zerothre.ttf
1768980	WORD	wordpools/wasnorm_wordpool.txt	LTP073	ltpFR	16	12	1	VIDEO	1564	n/a	0	0	0.5869140625	0.422607421875	lower	../fonts/zerothre.ttf
1773158	WORD	wordpools/wasnorm_wordpool.txt	LTP073	ltpFR	16	12	1	MONGOOSE	909	n/a	1	0	0.5869140625	0.422607421875	lower	../fonts/zerothre.ttf
1777303	WORD	wordpools/wasnorm_wordpool.txt	LTP073	ltpFR	16	12	1	ENGINEER	536	n/a	1	0	0.5869140625	0.422607421875	lower	../fonts/zerothre.ttf
1781457	WORD	wordpools/wasnorm_wordpool.txt	LTP073	ltpFR	16	12	0	DRESS	495	n/a	0	1	0.412841796875	0.57763671875	upper	../fonts/amplitud.ttf
1785377	WORD	wordpools/wasnorm_wordpool.txt	LTP073	ltpFR	16	12	0	CUFF	423	n/a	0	1	0.412841796875	0.57763671875	upper	../fonts/amplitud.ttf
1789364	WORD	wordpools/wasnorm_wordpool.txt	LTP073	ltpFR	16	12	0	SUMMIT	1405	n/a	1	1	0.412841796875	0.57763671875	upper	../fonts/amplitud.ttf
1793559	WORD	wordpools/wasnorm_wordpool.txt	LTP073	ltpFR	16	12	1	LID	817	n/a	0	0	0.5869140625	0.422607421875	lower	../fonts/zerothre.ttf
1797455	WORD	wordpools/wasnorm_wordpool.txt	LTP073	ltpFR	16	12	1	TRICYCLE	1506	n/a	0	0	0.5869140625	0.422607421875	lower	../fonts/zerothre.ttf
1801284	WORD	wordpools/wasnorm_wordpool.txt	LTP073	ltpFR	16	12	1	MONSTER	912	n/a	0	0	0.5869140625	0.422607421875	lower	../fonts/zerothre.ttf
1805262	WORD	wordpools/wasnorm_wordpool.txt	LTP073	ltpFR	16	12	1	TICKET	1464	n/a	0	0	0.5869140625	0.422607421875	lower	../fonts/zerothre.ttf
1809358	WORD	wordpools/wasnorm_wordpool.txt	LTP073	ltpFR	16	12	0	SOAP	1337	n/a	0	1	0.412841796875	0.57763671875	upper	../fonts/amplitud.ttf
1813444	WORD	wordpools/wasnorm_wordpool.txt	LTP073	ltpFR	16	12	0	SHAMPOO	1274	n/a	0	1	0.412841796875	0.57763671875	upper	../fonts/amplitud.ttf
1817448	WORD	wordpools/wasnorm_wordpool.txt	LTP073	ltpFR	16	12	0	MOVIE	927	n/a	0	1	0.412841796875	0.57763671875	upper	../fonts/amplitud.ttf
1823209	REC_START	n/a	LTP073	ltpFR	16	12	n/a	n/a	n/a	n/a	n/a	n/a	n/a	n/a	n/a	n/a
1823957	REC_WORD	wordpools/wasnorm_wordpool.txt	LTP073	ltpFR	16	12	0	MOVIE	927	n/a	0	n/a	n/a	n/a	n/a	n/a
1824727	REC_WORD	wordpools/wasnorm_wordpool.txt	LTP073	ltpFR	16	12	1	VIDEO	1564	n/a	0	n/a	n/a	n/a	n/a	n/a
1825818	REC_WORD	wordpools/wasnorm_wordpool.txt	LTP073	ltpFR	16	12	0	FILM	565	n/a	0	n/a	n/a	n/a	n/a	n/a
1827304	REC_WORD	wordpools/wasnorm_wordpool.txt	LTP073	ltpFR	16	12	0	SOAP	1337	n/a	0	n/a	n/a	n/a	n/a	n/a
1827867	REC_WORD	wordpools/wasnorm_wordpool.txt	LTP073	ltpFR	16	12	0	SHAMPOO	1274	n/a	0	n/a	n/a	n/a	n/a	n/a
1829574	REC_WORD	wordpools/wasnorm_wordpool.txt	LTP073	ltpFR	16	12	1	DIRECTOR	471	n/a	1	n/a	n/a	n/a	n/a	n/a
1831226	REC_WORD	wordpools/wasnorm_wordpool.txt	LTP073	ltpFR	16	12	0	SNAKE	1333	n/a	n/a	n/a	n/a	n/a	n/a	n/a
1832567	REC_WORD	wordpools/wasnorm_wordpool.txt	LTP073	ltpFR	16	12	0	MERMAID	887	n/a	1	n/a	n/a	n/a	n/a	n/a
1834383	REC_WORD	wordpools/wasnorm_wordpool.txt	LTP073	ltpFR	16	12	1	MONSTER	912	n/a	0	n/a	n/a	n/a	n/a	n/a
1835905	REC_WORD	wordpools/wasnorm_wordpool.txt	LTP073	ltpFR	16	12	1	CREATURE	403	n/a	1	n/a	n/a	n/a	n/a	n/a
1843932	REC_WORD	wordpools/wasnorm_wordpool.txt	LTP073	ltpFR	16	12	0	CUFF	423	n/a	0	n/a	n/a	n/a	n/a	n/a
1844885	REC_WORD	wordpools/wasnorm_wordpool.txt	LTP073	ltpFR	16	12	0	DRESS	495	n/a	0	n/a	n/a	n/a	n/a	n/a
1848566	REC_WORD	wordpools/wasnorm_wordpool.txt	LTP073	ltpFR	16	12	1	MONGOOSE	909	n/a	1	n/a	n/a	n/a	n/a	n/a
1898778	REST_REWET	n/a	LTP073	ltpFR	16	12	n/a	n/a	n/a	n/a	n/a	n/a	n/a	n/a	n/a	n/a
2249194	WORD	wordpools/wasnorm_wordpool.txt	LTP073	ltpFR	16	13	0	TRUCK	1512	n/a	1	1	0.412841796875	0.57763671875	upper	../fonts/amplitud.ttf
2253098	WORD	wordpools/wasnorm_wordpool.txt	LTP073	ltpFR	16	13	0	ANTENNA	28	n/a	0	1	0.412841796875	0.57763671875	upper	../fonts/amplitud.ttf
2257209	WORD	wordpools/wasnorm_wordpool.txt	LTP073	ltpFR	16	13	0	CEMETERY	269	n/a	1	1	0.412841796875	0.57763671875	upper	../fonts/amplitud.ttf
2261022	WORD	wordpools/wasnorm_wordpool.txt	LTP073	ltpFR	16	13	0	PADDING	999	n/a	1	1	0.412841796875	0.57763671875	upper	../fonts/amplitud.ttf
2265067	WORD	wordpools/wasnorm_wordpool.txt	LTP073	ltpFR	16	13	0	BED	110	n/a	1	1	0.412841796875	0.57763671875	upper	../fonts/amplitud.ttf
2269004	WORD	wordpools/wasnorm_wordpool.txt	LTP073	ltpFR	16	13	1	CRAB	397	n/a	1	0	0.5869140625	0.422607421875	lower	../fonts/zerothre.ttf
2272841	WORD	wordpools/wasnorm_wordpool.txt	LTP073	ltpFR	16	13	1	INDIAN	736	n/a	1	0	0.5869140625	0.422607421875	lower	../fonts/zerothre.ttf
2276978	WORD	wordpools/wasnorm_wordpool.txt	LTP073	ltpFR	16	13	1	ORANGE	980	n/a	0	0	0.5869140625	0.422607421875	lower	../fonts/zerothre.ttf
2280832	WORD	wordpools/wasnorm_wordpool.txt	LTP073	ltpFR	16	13	1	RELATIVE	1182	n/a	1	0	0.5869140625	0.422607421875	lower	../fonts/zerothre.ttf
2284894	WORD	wordpools/wasnorm_wordpool.txt	LTP073	ltpFR	16	13	1	TRIBE	1505	n/a	1	0	0.5869140625	0.422607421875	lower	../fonts/zerothre.ttf
2288831	WORD	wordpools/wasnorm_wordpool.txt	LTP073	ltpFR	16	13	1	GRAPE	654	n/a	0	0	0.5869140625	0.422607421875	lower	../fonts/zerothre.ttf
2292926	WORD	wordpools/wasnorm_wordpool.txt	LTP073	ltpFR	16	13	0	EYE	545	n/a	0	1	0.412841796875	0.57763671875	upper	../fonts/amplitud.ttf
2297071	WORD	wordpools/wasnorm_wordpool.txt	LTP073	ltpFR	16	13	0	GLASSES	640	n/a	0	1	0.412841796875	0.57763671875	upper	../fonts/amplitud.ttf
2300975	WORD	wordpools/wasnorm_wordpool.txt	LTP073	ltpFR	16	13	0	COUNTRY	388	n/a	1	1	0.412841796875	0.57763671875	upper	../fonts/amplitud.ttf
2305037	WORD	wordpools/wasnorm_wordpool.txt	LTP073	ltpFR	16	13	1	CAKE	219	n/a	0	0	0.5869140625	0.422607421875	lower	../fonts/zerothre.ttf
2309115	WORD	wordpools/wasnorm_wordpool.txt	LTP073	ltpFR	16	13	1	ENEMY	534	n/a	1	0	0.5869140625	0.422607421875	lower	../fonts/zerothre.ttf
2314959	REC_START	n/a	LTP073	ltpFR	16	13	n/a	n/a	n/a	n/a	n/a	n/a	n/a	n/a	n/a	n/a
2316291	REC_WORD	wordpools/wasnorm_wordpool.txt	LTP073	ltpFR	16	13	1	CAKE	219	n/a	0	n/a	n/a	n/a	n/a	n/a
2317204	REC_WORD	wordpools/wasnorm_wordpool.txt	LTP073	ltpFR	16	13	1	GRAPE	654	n/a	0	n/a	n/a	n/a	n/a	n/a
2317987	REC_WORD	wordpools/wasnorm_wordpool.txt	LTP073	ltpFR	16	13	1	ORANGE	980	n/a	0	n/a	n/a	n/a	n/a	n/a
2319149	REC_WORD	wordpools/wasnorm_wordpool.txt	LTP073	ltpFR	16	13	1	INDIAN	736	n/a	1	n/a	n/a	n/a	n/a	n/a
2319898	REC_WORD	wordpools/wasnorm_wordpool.txt	LTP073	ltpFR	16	13	1	RELATIVE	1182	n/a	1	n/a	n/a	n/a	n/a	n/a
2320880	REC_WORD	wordpools/wasnorm_wordpool.txt	LTP073	ltpFR	16	13	1	TRIBE	1505	n/a	1	n/a	n/a	n/a	n/a	n/a
2322093	REC_WORD	wordpools/wasnorm_wordpool.txt	LTP073	ltpFR	16	13	1	ENEMY	534	n/a	1	n/a	n/a	n/a	n/a	n/a
2323430	REC_WORD	wordpools/wasnorm_wordpool.txt	LTP073	ltpFR	16	13	0	EYE	545	n/a	0	n/a	n/a	n/a	n/a	n/a
2324382	REC_WORD	wordpools/wasnorm_wordpool.txt	LTP073	ltpFR	16	13	0	GLASSES	640	n/a	0	n/a	n/a	n/a	n/a	n/a
2325864	REC_WORD	wordpools/wasnorm_wordpool.txt	LTP073	ltpFR	16	13	0	ANTENNA	28	n/a	0	n/a	n/a	n/a	n/a	n/a
2327435	REC_WORD	wordpools/wasnorm_wordpool.txt	LTP073	ltpFR	16	13	0	TRUCK	1512	n/a	1	n/a	n/a	n/a	n/a	n/a
2331726	REC_WORD	wordpools/wasnorm_wordpool.txt	LTP073	ltpFR	16	13	n/a	CAR	241	n/a	n/a	n/a	n/a	n/a	n/a	n/a
2338051	REC_WORD	wordpools/wasnorm_wordpool.txt	LTP073	ltpFR	16	13	-1	CAB	209	n/a	-1	n/a	n/a	n/a	n/a	n/a
2352498	REC_WORD	wordpools/wasnorm_wordpool.txt	LTP073	ltpFR	16	13	1	CRAB	397	n/a	1	n/a	n/a	n/a	n/a	n/a
2362755	REC_WORD	wordpools/wasnorm_wordpool.txt	LTP073	ltpFR	16	13	1	CREATURE	403	n/a	1	n/a	n/a	n/a	n/a	n/a
2370662	REC_WORD	wordpools/wasnorm_wordpool.txt	LTP073	ltpFR	16	13	1	SEAFOOD	1260	n/a	0	n/a	n/a	n/a	n/a	n/a
2393067	WORD	wordpools/wasnorm_wordpool.txt	LTP073	ltpFR	16	14	-1	TRAY	1498	n/a	-1	1	1.0	1.0	upper	../fonts/Verdana.ttf
2397021	WORD	wordpools/wasnorm_wordpool.txt	LTP073	ltpFR	16	14	-1	HAIL	676	n/a	-1	1	1.0	1.0	upper	../fonts/Verdana.ttf
2401016	WORD	wordpools/wasnorm_wordpool.txt	LTP073	ltpFR	16	14	-1	CASKET	255	n/a	-1	1	1.0	1.0	upper	../fonts/Verdana.ttf
2405120	WORD	wordpools/wasnorm_wordpool.txt	LTP073	ltpFR	16	14	-1	BAKER	71	n/a	-1	1	1.0	1.0	upper	../fonts/Verdana.ttf
2409115	WORD	wordpools/wasnorm_wordpool.txt	LTP073	ltpFR	16	14	-1	BANQUET	86	n/a	-1	1	1.0	1.0	upper	../fonts/Verdana.ttf
2413244	WORD	wordpools/wasnorm_wordpool.txt	LTP073	ltpFR	16	14	-1	LUMBER	848	n/a	-1	1	1.0	1.0	upper	../fonts/Verdana.ttf
2417081	WORD	wordpools/wasnorm_wordpool.txt	LTP073	ltpFR	16	14	-1	MARS	873	n/a	-1	1	1.0	1.0	upper	../fonts/Verdana.ttf
2421076	WORD	wordpools/wasnorm_wordpool.txt	LTP073	ltpFR	16	14	-1	GALAXY	617	n/a	-1	1	1.0	1.0	upper	../fonts/Verdana.ttf
2425180	WORD	wordpools/wasnorm_wordpool.txt	LTP073	ltpFR	16	14	-1	UTENSIL	1542	n/a	-1	1	1.0	1.0	upper	../fonts/Verdana.ttf
2428992	WORD	wordpools/wasnorm_wordpool.txt	LTP073	ltpFR	16	14	-1	COACH	331	n/a	-1	1	1.0	1.0	upper	../fonts/Verdana.ttf
2432896	WORD	wordpools/wasnorm_wordpool.txt	LTP073	ltpFR	16	14	-1	RAILROAD	1162	n/a	-1	1	1.0	1.0	upper	../fonts/Verdana.ttf
2436766	WORD	wordpools/wasnorm_wordpool.txt	LTP073	ltpFR	16	14	-1	ALMOND	18	n/a	-1	1	1.0	1.0	upper	../fonts/Verdana.ttf
2440886	WORD	wordpools/wasnorm_wordpool.txt	LTP073	ltpFR	16	14	-1	GLACIER	638	n/a	-1	1	1.0	1.0	upper	../fonts/Verdana.ttf
2444990	WORD	wordpools/wasnorm_wordpool.txt	LTP073	ltpFR	16	14	-1	FROST	609	n/a	-1	1	1.0	1.0	upper	../fonts/Verdana.ttf
2448927	WORD	wordpools/wasnorm_wordpool.txt	LTP073	ltpFR	16	14	-1	FLOUR	583	n/a	-1	1	1.0	1.0	upper	../fonts/Verdana.ttf
2453081	WORD	wordpools/wasnorm_wordpool.txt	LTP073	ltpFR	16	14	-1	LEAF	808	n/a	-1	1	1.0	1.0	upper	../fonts/Verdana.ttf
2458933	REC_START	n/a	LTP073	ltpFR	16	14	n/a	n/a	n/a	n/a	n/a	n/a	n/a	n/a	n/a	n/a
2459821	REC_WORD	wordpools/wasnorm_wordpool.txt	LTP073	ltpFR	16	14	-1	LEAF	808	n/a	-1	n/a	n/a	n/a	n/a	n/a
2460444	REC_WORD	wordpools/wasnorm_wordpool.txt	LTP073	ltpFR	16	14	-1	FROST	609	n/a	-1	n/a	n/a	n/a	n/a	n/a
2461437	REC_WORD	wordpools/wasnorm_wordpool.txt	LTP073	ltpFR	16	14	-1	GLACIER	638	n/a	-1	n/a	n/a	n/a	n/a	n/a
2462320	REC_WORD	wordpools/wasnorm_wordpool.txt	LTP073	ltpFR	16	14	-1	GALAXY	617	n/a	-1	n/a	n/a	n/a	n/a	n/a
2463787	REC_WORD	wordpools/wasnorm_wordpool.txt	LTP073	ltpFR	16	14	-1	MARS	873	n/a	-1	n/a	n/a	n/a	n/a	n/a
2465323	REC_WORD	wordpools/wasnorm_wordpool.txt	LTP073	ltpFR	16	14	-1	BANQUET	86	n/a	-1	n/a	n/a	n/a	n/a	n/a
2466481	REC_WORD	wordpools/wasnorm_wordpool.txt	LTP073	ltpFR	16	14	-1	BAKER	71	n/a	-1	n/a	n/a	n/a	n/a	n/a
2467773	REC_WORD	wordpools/wasnorm_wordpool.txt	LTP073	ltpFR	16	14	1	CAKE	219	n/a	0	n/a	n/a	n/a	n/a	n/a
2474188	REC_WORD	wordpools/wasnorm_wordpool.txt	LTP073	ltpFR	16	14	-1	HAIL	676	n/a	-1	n/a	n/a	n/a	n/a	n/a
2475136	REC_WORD	wordpools/wasnorm_wordpool.txt	LTP073	ltpFR	16	14	-1	TRAY	1498	n/a	-1	n/a	n/a	n/a	n/a	n/a
2478683	REC_WORD	wordpools/wasnorm_wordpool.txt	LTP073	ltpFR	16	14	n/a	SHEET	1279	n/a	n/a	n/a	n/a	n/a	n/a	n/a
2487164	REC_WORD	wordpools/wasnorm_wordpool.txt	LTP073	ltpFR	16	14	n/a	PLANET	1082	n/a	n/a	n/a	n/a	n/a	n/a	n/a
2499526	REC_WORD	wordpools/wasnorm_wordpool.txt	LTP073	ltpFR	16	14	-1	BAKER	71	n/a	-1	n/a	n/a	n/a	n/a	n/a
2509154	REC_WORD	wordpools/wasnorm_wordpool.txt	LTP073	ltpFR	16	14	1	CAKE	219	n/a	0	n/a	n/a	n/a	n/a	n/a
2527701	REC_WORD	wordpools/wasnorm_wordpool.txt	LTP073	ltpFR	16	14	0	PLUTO	1092	n/a	1	n/a	n/a	n/a	n/a	n/a
2537457	WORD	wordpools/wasnorm_wordpool.txt	LTP073	ltpFR	16	15	0	FELLOW	558	n/a	1	1	0.412841796875	0.57763671875	upper	../fonts/amplitud.ttf
2541369	WORD	wordpools/wasnorm_wordpool.txt	LTP073	ltpFR	16	15	0	MAN	862	n/a	1	1	0.412841796875	0.57763671875	upper	../fonts/amplitud.ttf
2545281	WORD	wordpools/wasnorm_wordpool.txt	LTP073	ltpFR	16	15	0	BLACKBOARD	133	n/a	1	1	0.412841796875	0.57763671875	upper	../fonts/amplitud.ttf
2549301	WORD	wordpools/wasnorm_wordpool.txt	LTP073	ltpFR	16	15	0	CHALK	276	n/a	0	1	0.412841796875	0.57763671875	upper	../fonts/amplitud.ttf
2553372	WORD	wordpools/wasnorm_wordpool.txt	LTP073	ltpFR	16	15	0	ZIPPER	1636	n/a	0	1	0.412841796875	0.57763671875	upper	../fonts/amplitud.ttf
2557558	WORD	wordpools/wasnorm_wordpool.txt	LTP073	ltpFR	16	15	0	PAVEMENT	1028	n/a	1	1	0.412841796875	0.57763671875	upper	../fonts/amplitud.ttf
2561462	WORD	wordpools/wasnorm_wordpool.txt	LTP073	ltpFR	16	15	0	CAFE	216	n/a	1	1	0.412841796875	0.57763671875	upper	../fonts/amplitud.ttf
2565566	WORD	wordpools/wasnorm_wordpool.txt	LTP073	ltpFR	16	15	0	FRIES	607	n/a	0	1	0.412841796875	0.57763671875	upper	../fonts/amplitud.ttf
2569436	WORD	wordpools/wasnorm_wordpool.txt	LTP073	ltpFR	16	15	0	PERSON	1052	n/a	1	1	0.412841796875	0.57763671875	upper	../fonts/amplitud.ttf
2573332	WORD	wordpools/wasnorm_wordpool.txt	LTP073	ltpFR	16	15	0	SIRLOIN	1311	n/a	0	1	0.412841796875	0.57763671875	upper	../fonts/amplitud.ttf
2577219	WORD	wordpools/wasnorm_wordpool.txt	LTP073	ltpFR	16	15	0	PLANE	1081	n/a	1	1	0.412841796875	0.57763671875	upper	../fonts/amplitud.ttf
2581272	WORD	wordpools/wasnorm_wordpool.txt	LTP073	ltpFR	16	15	0	PLAID	1080	n/a	0	1	0.412841796875	0.57763671875	upper	../fonts/amplitud.ttf
2585110	WORD	wordpools/wasnorm_wordpool.txt	LTP073	ltpFR	16	15	0	SCAPEGOAT	1244	n/a	1	1	0.412841796875	0.57763671875	upper	../fonts/amplitud.ttf
2589196	WORD	wordpools/wasnorm_wordpool.txt	LTP073	ltpFR	16	15	0	SLEEVE	1324	n/a	0	1	0.412841796875	0.57763671875	upper	../fonts/amplitud.ttf
2593325	WORD	wordpools/wasnorm_wordpool.txt	LTP073	ltpFR	16	15	0	JUDGE	761	n/a	1	1	0.412841796875	0.57763671875	upper	../fonts/amplitud.ttf
2597195	WORD	wordpools/wasnorm_wordpool.txt	LTP073	ltpFR	16	15	0	TERMINAL	1450	n/a	1	1	0.412841796875	0.57763671875	upper	../fonts/amplitud.ttf
2603139	REC_START	n/a	LTP073	ltpFR	16	15	n/a	n/a	n/a	n/a	n/a	n/a	n/a	n/a	n/a	n/a
2603673	REC_WORD	wordpools/wasnorm_wordpool.txt	LTP073	ltpFR	16	15	0	TERMINAL	1450	n/a	1	n/a	n/a	n/a	n/a	n/a
2604451	REC_WORD	wordpools/wasnorm_wordpool.txt	LTP073	ltpFR	16	15	0	JUDGE	761	n/a	1	n/a	n/a	n/a	n/a	n/a
2605843	REC_WORD	wordpools/wasnorm_wordpool.txt	LTP073	ltpFR	16	15	0	MAN	862	n/a	1	n/a	n/a	n/a	n/a	n/a
2606586	REC_WORD	wordpools/wasnorm_wordpool.txt	LTP073	ltpFR	16	15	0	FELLOW	558	n/a	1	n/a	n/a	n/a	n/a	n/a
2607474	REC_WORD	wordpools/wasnorm_wordpool.txt	LTP073	ltpFR	16	15	0	PERSON	1052	n/a	1	n/a	n/a	n/a	n/a	n/a
2609689	REC_WORD	wordpools/wasnorm_wordpool.txt	LTP073	ltpFR	16	15	0	SCAPEGOAT	1244	n/a	1	n/a	n/a	n/a	n/a	n/a
2610689	REC_WORD_VV	wordpools/wasnorm_wordpool.txt	LTP073	ltpFR	16	15	n/a	<>	-1	n/a	n/a	n/a	n/a	n/a	n/a	n/a
2621043	REC_WORD	wordpools/wasnorm_wordpool.txt	LTP073	ltpFR	16	15	0	FRIES	607	n/a	0	n/a	n/a	n/a	n/a	n/a
2622043	REC_WORD_VV	wordpools/wasnorm_wordpool.txt	LTP073	ltpFR	16	15	n/a	<>	-1	n/a	n/a	n/a	n/a	n/a	n/a	n/a
2622200	REC_WORD	wordpools/wasnorm_wordpool.txt	LTP073	ltpFR	16	15	0	CAFE	216	n/a	1	n/a	n/a	n/a	n/a	n/a
2623200	REC_WORD_VV	wordpools/wasnorm_wordpool.txt	LTP073	ltpFR	16	15	n/a	<>	-1	n/a	n/a	n/a	n/a	n/a	n/a	n/a
2626745	REC_WORD	wordpools/wasnorm_wordpool.txt	LTP073	ltpFR	16	15	n/a	COFFEE	341	n/a	n/a	n/a	n/a	n/a	n/a	n/a
2647513	REC_WORD	wordpools/wasnorm_wordpool.txt	LTP073	ltpFR	16	15	0	ESSAY	540	n/a	0	n/a	n/a	n/a	n/a	n/a
2682987	WORD	wordpools/wasnorm_wordpool.txt	LTP073	ltpFR	16	16	-1	MANAGER	863	n/a	-1	1	1.0	1.0	upper	../fonts/Verdana.ttf
2686957	WORD	wordpools/wasnorm_wordpool.txt	LTP073	ltpFR	16	16	-1	WINDSHIELD	1612	n/a	-1	1	1.0	1.0	upper	../fonts/Verdana.ttf
2690936	WORD	wordpools/wasnorm_wordpool.txt	LTP073	ltpFR	16	16	-1	STREAM	1392	n/a	-1	1	1.0	1.0	upper	../fonts/Verdana.ttf
2694915	WORD	wordpools/wasnorm_wordpool.txt	LTP073	ltpFR	16	16	-1	DICTATOR	462	n/a	-1	1	1.0	1.0	upper	../fonts/Verdana.ttf
2698968	WORD	wordpools/wasnorm_wordpool.txt	LTP073	ltpFR	16	16	-1	HAMMER	680	n/a	-1	1	1.0	1.0	upper	../fonts/Verdana.ttf
2703005	WORD	wordpools/wasnorm_wordpool.txt	LTP073	ltpFR	16	16	-1	CARPENTER	246	n/a	-1	1	1.0	1.0	upper	../fonts/Verdana.ttf
2706951	WORD	wordpools/wasnorm_wordpool.txt	LTP073	ltpFR	16	16	-1	CHESS	294	n/a	-1	1	1.0	1.0	upper	../fonts/Verdana.ttf
2710771	WORD	wordpools/wasnorm_wordpool.txt	LTP073	ltpFR	16	16	-1	BULLETIN	195	n/a	-1	1	1.0	1.0	upper	../fonts/Verdana.ttf
2714758	WORD	wordpools/wasnorm_wordpool.txt	LTP073	ltpFR	16	16	-1	TUSK	1523	n/a	-1	1	1.0	1.0	upper	../fonts/Verdana.ttf
2718620	WORD	wordpools/wasnorm_wordpool.txt	LTP073	ltpFR	16	16	-1	FOLLOWER	589	n/a	-1	1	1.0	1.0	upper	../fonts/Verdana.ttf
2722457	WORD	wordpools/wasnorm_wordpool.txt	LTP073	ltpFR	16	16	-1	PHOTO	1055	n/a	-1	1	1.0	1.0	upper	../fonts/Verdana.ttf
2726420	WORD	wordpools/wasnorm_wordpool.txt	LTP073	ltpFR	16	16	-1	ORGAN	984	n/a	-1	1	1.0	1.0	upper	../fonts/Verdana.ttf
2730506	WORD	wordpools/wasnorm_wordpool.txt	LTP073	ltpFR	16	16	-1	STEAM	1375	n/a	-1	1	1.0	1.0	upper	../fonts/Verdana.ttf
2734452	WORD	wordpools/wasnorm_wordpool.txt	LTP073	ltpFR	16	16	-1	GLASS	639	n/a	-1	1	1.0	1.0	upper	../fonts/Verdana.ttf
2738455	WORD	wordpools/wasnorm_wordpool.txt	LTP073	ltpFR	16	16	-1	SIDING	1304	n/a	-1	1	1.0	1.0	upper	../fonts/Verdana.ttf
2742359	WORD	wordpools/wasnorm_wordpool.txt	LTP073	ltpFR	16	16	-1	SHACK	1273	n/a	-1	1	1.0	1.0	upper	../fonts/Verdana.ttf
2748062	REC_START	n/a	LTP073	ltpFR	16	16	n/a	n/a	n/a	n/a	n/a	n/a	n/a	n/a	n/a	n/a
2748805	REC_WORD	wordpools/wasnorm_wordpool.txt	LTP073	ltpFR	16	16	n/a	CLASS	318	n/a	n/a	n/a	n/a	n/a	n/a	n/a
2751035	REC_WORD	wordpools/wasnorm_wordpool.txt	LTP073	ltpFR	16	16	-1	SIDING	1304	n/a	-1	n/a	n/a	n/a	n/a	n/a
2752123	REC_WORD	wordpools/wasnorm_wordpool.txt	LTP073	ltpFR	16	16	-1	SHACK	1273	n/a	-1	n/a	n/a	n/a	n/a	n/a
2753749	REC_WORD	wordpools/wasnorm_wordpool.txt	LTP073	ltpFR	16	16	-1	HAMMER	680	n/a	-1	n/a	n/a	n/a	n/a	n/a
2754921	REC_WORD	wordpools/wasnorm_wordpool.txt	LTP073	ltpFR	16	16	-1	CARPENTER	246	n/a	-1	n/a	n/a	n/a	n/a	n/a
2757251	REC_WORD	wordpools/wasnorm_wordpool.txt	LTP073	ltpFR	16	16	-1	STREAM	1392	n/a	-1	n/a	n/a	n/a	n/a	n/a
2767513	REC_WORD	wordpools/wasnorm_wordpool.txt	LTP073	ltpFR	16	16	n/a	SCREAM	-1	n/a	n/a	n/a	n/a	n/a	n/a	n/a
2773055	REC_WORD	wordpools/wasnorm_wordpool.txt	LTP073	ltpFR	16	16	-1	FOLLOWER	589	n/a	-1	n/a	n/a	n/a	n/a	n/a
2774103	REC_WORD	wordpools/wasnorm_wordpool.txt	LTP073	ltpFR	16	16	-1	ORGAN	984	n/a	-1	n/a	n/a	n/a	n/a	n/a
2774806	REC_WORD	wordpools/wasnorm_wordpool.txt	LTP073	ltpFR	16	16	-1	PHOTO	1055	n/a	-1	n/a	n/a	n/a	n/a	n/a
2777844	REC_WORD	wordpools/wasnorm_wordpool.txt	LTP073	ltpFR	16	16	n/a	DONOR	485	n/a	n/a	n/a	n/a	n/a	n/a	n/a
2784933	REC_WORD	wordpools/wasnorm_wordpool.txt	LTP073	ltpFR	16	16	0	LEADER	807	n/a	1	n/a	n/a	n/a	n/a	n/a
2814206	REC_WORD	wordpools/wasnorm_wordpool.txt	LTP073	ltpFR	16	16	0	PAVEMENT	1028	n/a	1	n/a	n/a	n/a	n/a	n/a
2852598	REC_START	n/a	LTP073	ltpFR	16	1	n/a	n/a	n/a	n/a	n/a	n/a	n/a	n/a	n/a	n/a
2852630	RECOG_TARGET	n/a	LTP073	ltpFR	16	1	0	PAVEMENT	1028	5	1	n/a	n/a	n/a	n/a	n/a
2853680	RECOG_RESP	n/a	LTP073	ltpFR	16	1	0	PAVEMENT	1028	n/a	1	n/a	n/a	n/a	n/a	n/a
2854489	RECOG_CONF	n/a	LTP073	ltpFR	16	1	0	PAVEMENT	1028	5	1	n/a	n/a	n/a	n/a	n/a
2856226	RECOG_LURE	n/a	LTP073	ltpFR	16	1	n/a	UNIVERSITY	1541	5	n/a	n/a	n/a	n/a	n/a	n/a
2856923	RECOG_RESP	n/a	LTP073	ltpFR	16	1	n/a	UNIVERSITY	1541	n/a	n/a	n/a	n/a	n/a	n/a	n/a
2857532	RECOG_CONF	n/a	LTP073	ltpFR	16	1	n/a	UNIVERSITY	1541	5	n/a	n/a	n/a	n/a	n/a	n/a
2859106	RECOG_TARGET	n/a	LTP073	ltpFR	16	1	0	BUCKET	184	4	0	n/a	n/a	n/a	n/a	n/a
2859871	RECOG_RESP	n/a	LTP073	ltpFR	16	1	0	BUCKET	184	n/a	0	n/a	n/a	n/a	n/a	n/a
2860382	RECOG_CONF	n/a	LTP073	ltpFR	16	1	0	BUCKET	184	4	0	n/a	n/a	n/a	n/a	n/a
2862036	RECOG_LURE	n/a	LTP073	ltpFR	16	1	n/a	ICE	730	3	n/a	n/a	n/a	n/a	n/a	n/a
2863019	RECOG_RESP	n/a	LTP073	ltpFR	16	1	n/a	ICE	730	n/a	n/a	n/a	n/a	n/a	n/a	n/a
2863937	RECOG_CONF	n/a	LTP073	ltpFR	16	1	n/a	ICE	730	3	n/a	n/a	n/a	n/a	n/a	n/a
2865482	RECOG_TARGET	n/a	LTP073	ltpFR	16	1	0	MOUSE	925	5	0	n/a	n/a	n/a	n/a	n/a
2866102	RECOG_RESP	n/a	LTP073	ltpFR	16	1	0	MOUSE	925	n/a	0	n/a	n/a	n/a	n/a	n/a
2866801	RECOG_CONF	n/a	LTP073	ltpFR	16	1	0	MOUSE	925	5	0	n/a	n/a	n/a	n/a	n/a
2868262	RECOG_TARGET	n/a	LTP073	ltpFR	16	1	0	COLESLAW	344	5	0	n/a	n/a	n/a	n/a	n/a
2868886	RECOG_RESP	n/a	LTP073	ltpFR	16	1	0	COLESLAW	344	n/a	0	n/a	n/a	n/a	n/a	n/a
2869466	RECOG_CONF	n/a	LTP073	ltpFR	16	1	0	COLESLAW	344	5	0	n/a	n/a	n/a	n/a	n/a
2871017	RECOG_TARGET	n/a	LTP073	ltpFR	16	1	-1	BUGLE	189	5	-1	n/a	n/a	n/a	n/a	n/a
2871595	RECOG_RESP	n/a	LTP073	ltpFR	16	1	-1	BUGLE	189	n/a	-1	n/a	n/a	n/a	n/a	n/a
2872180	RECOG_CONF	n/a	LTP073	ltpFR	16	1	-1	BUGLE	189	5	-1	n/a	n/a	n/a	n/a	n/a
2873739	RECOG_LURE	n/a	LTP073	ltpFR	16	1	n/a	STADIUM	1364	4	n/a	n/a	n/a	n/a	n/a	n/a
2874533	RECOG_RESP	n/a	LTP073	ltpFR	16	1	n/a	STADIUM	1364	n/a	n/a	n/a	n/a	n/a	n/a	n/a
2875142	RECOG_CONF	n/a	LTP073	ltpFR	16	1	n/a	STADIUM	1364	4	n/a	n/a	n/a	n/a	n/a	n/a
2876586	RECOG_LURE	n/a	LTP073	ltpFR	16	1	n/a	TIMBER	1469	5	n/a	n/a	n/a	n/a	n/a	n/a
2877207	RECOG_RESP	n/a	LTP073	ltpFR	16	1	n/a	TIMBER	1469	n/a	n/a	n/a	n/a	n/a	n/a	n/a
2877821	RECOG_CONF	n/a	LTP073	ltpFR	16	1	n/a	TIMBER	1469	5	n/a	n/a	n/a	n/a	n/a	n/a
2879382	RECOG_TARGET	n/a	LTP073	ltpFR	16	1	0	KNAPSACK	783	5	0	n/a	n/a	n/a	n/a	n/a
2880469	RECOG_RESP	n/a	LTP073	ltpFR	16	1	0	KNAPSACK	783	n/a	0	n/a	n/a	n/a	n/a	n/a
2881048	RECOG_CONF	n/a	LTP073	ltpFR	16	1	0	KNAPSACK	783	5	0	n/a	n/a	n/a	n/a	n/a
2882663	RECOG_TARGET	n/a	LTP073	ltpFR	16	1	1	BIRD	129	5	1	n/a	n/a	n/a	n/a	n/a
2883283	RECOG_RESP	n/a	LTP073	ltpFR	16	1	1	BIRD	129	n/a	1	n/a	n/a	n/a	n/a	n/a
2883858	RECOG_CONF	n/a	LTP073	ltpFR	16	1	1	BIRD	129	5	1	n/a	n/a	n/a	n/a	n/a
2885384	RECOG_TARGET	n/a	LTP073	ltpFR	16	1	0	SCAPEGOAT	1244	5	1	n/a	n/a	n/a	n/a	n/a
2886027	RECOG_RESP	n/a	LTP073	ltpFR	16	1	0	SCAPEGOAT	1244	n/a	1	n/a	n/a	n/a	n/a	n/a
2886700	RECOG_CONF	n/a	LTP073	ltpFR	16	1	0	SCAPEGOAT	1244	5	1	n/a	n/a	n/a	n/a	n/a
2888214	RECOG_TARGET	n/a	LTP073	ltpFR	16	1	-1	BAKER	71	4	-1	n/a	n/a	n/a	n/a	n/a
2888761	RECOG_RESP	n/a	LTP073	ltpFR	16	1	-1	BAKER	71	n/a	-1	n/a	n/a	n/a	n/a	n/a
2889339	RECOG_CONF	n/a	LTP073	ltpFR	16	1	-1	BAKER	71	4	-1	n/a	n/a	n/a	n/a	n/a
2890911	RECOG_LURE	n/a	LTP073	ltpFR	16	1	n/a	SHINGLE	1285	3	n/a	n/a	n/a	n/a	n/a	n/a
2892477	RECOG_RESP	n/a	LTP073	ltpFR	16	1	n/a	SHINGLE	1285	n/a	n/a	n/a	n/a	n/a	n/a	n/a
2893181	RECOG_CONF	n/a	LTP073	ltpFR	16	1	n/a	SHINGLE	1285	3	n/a	n/a	n/a	n/a	n/a	n/a
2894756	RECOG_TARGET	n/a	LTP073	ltpFR	16	1	0	WHEAT	1602	3	0	n/a	n/a	n/a	n/a	n/a
2895475	RECOG_RESP	n/a	LTP073	ltpFR	16	1	0	WHEAT	1602	n/a	0	n/a	n/a	n/a	n/a	n/a
2896009	RECOG_CONF	n/a	LTP073	ltpFR	16	1	0	WHEAT	1602	3	0	n/a	n/a	n/a	n/a	n/a
2897536	RECOG_TARGET	n/a	LTP073	ltpFR	16	1	1	TRIBE	1505	5	1	n/a	n/a	n/a	n/a	n/a
2898254	RECOG_RESP	n/a	LTP073	ltpFR	16	1	1	TRIBE	1505	n/a	1	n/a	n/a	n/a	n/a	n/a
2898881	RECOG_CONF	n/a	LTP073	ltpFR	16	1	1	TRIBE	1505	5	1	n/a	n/a	n/a	n/a	n/a
2900358	RECOG_TARGET	n/a	LTP073	ltpFR	16	1	0	SHOVEL	1295	5	1	n/a	n/a	n/a	n/a	n/a
2901043	RECOG_RESP	n/a	LTP073	ltpFR	16	1	0	SHOVEL	1295	n/a	1	n/a	n/a	n/a	n/a	n/a
2901618	RECOG_CONF	n/a	LTP073	ltpFR	16	1	0	SHOVEL	1295	5	1	n/a	n/a	n/a	n/a	n/a
2903313	RECOG_TARGET	n/a	LTP073	ltpFR	16	1	0	HATCHET	691	5	1	n/a	n/a	n/a	n/a	n/a
2903901	RECOG_RESP	n/a	LTP073	ltpFR	16	1	0	HATCHET	691	n/a	1	n/a	n/a	n/a	n/a	n/a
2904510	RECOG_CONF	n/a	LTP073	ltpFR	16	1	0	HATCHET	691	5	1	n/a	n/a	n/a	n/a	n/a
2906043	RECOG_TARGET	n/a	LTP073	ltpFR	16	1	-1	ASH	44	5	-1	n/a	n/a	n/a	n/a	n/a
2906660	RECOG_RESP	n/a	LTP073	ltpFR	16	1	-1	ASH	44	n/a	-1	n/a	n/a	n/a	n/a	n/a
2907240	RECOG_CONF	n/a	LTP073	ltpFR	16	1	-1	ASH	44	5	-1	n/a	n/a	n/a	n/a	n/a
2908806	RECOG_TARGET	n/a	LTP073	ltpFR	16	1	1	TRICYCLE	1506	5	0	n/a	n/a	n/a	n/a	n/a
2909479	RECOG_RESP	n/a	LTP073	ltpFR	16	1	1	TRICYCLE	1506	n/a	0	n/a	n/a	n/a	n/a	n/a
2910013	RECOG_CONF	n/a	LTP073	ltpFR	16	1	1	TRICYCLE	1506	5	0	n/a	n/a	n/a	n/a	n/a
2924862	REC_START	n/a	LTP073	ltpFR	16	2	n/a	n/a	n/a	n/a	n/a	n/a	n/a	n/a	n/a	n/a
2924888	RECOG_LURE	n/a	LTP073	ltpFR	16	2	n/a	MATCH	878	1	n/a	n/a	n/a	n/a	n/a	n/a
2926423	RECOG_RESP	n/a	LTP073	ltpFR	16	2	n/a	MATCH	878	n/a	n/a	n/a	n/a	n/a	n/a	n/a
2927172	RECOG_CONF	n/a	LTP073	ltpFR	16	2	n/a	MATCH	878	1	n/a	n/a	n/a	n/a	n/a	n/a
2928676	RECOG_TARGET	n/a	LTP073	ltpFR	16	2	0	AIRCRAFT	11	3	1	n/a	n/a	n/a	n/a	n/a
2929731	RECOG_RESP	n/a	LTP073	ltpFR	16	2	0	AIRCRAFT	11	n/a	1	n/a	n/a	n/a	n/a	n/a
2930364	RECOG_CONF	n/a	LTP073	ltpFR	16	2	0	AIRCRAFT	11	3	1	n/a	n/a	n/a	n/a	n/a
2931913	RECOG_TARGET	n/a	LTP073	ltpFR	16	2	-1	RUNNER	1218	4	-1	n/a	n/a	n/a	n/a	n/a
2932849	RECOG_RESP	n/a	LTP073	ltpFR	16	2	-1	RUNNER	1218	n/a	-1	n/a	n/a	n/a	n/a	n/a
2933546	RECOG_CONF	n/a	LTP073	ltpFR	16	2	-1	RUNNER	1218	4	-1	n/a	n/a	n/a	n/a	n/a
2935067	RECOG_LURE	n/a	LTP073	ltpFR	16	2	n/a	BOOT	150	3	n/a	n/a	n/a	n/a	n/a	n/a
2935927	RECOG_RESP	n/a	LTP073	ltpFR	16	2	n/a	BOOT	150	n/a	n/a	n/a	n/a	n/a	n/a	n/a
2936560	RECOG_CONF	n/a	LTP073	ltpFR	16	2	n/a	BOOT	150	3	n/a	n/a	n/a	n/a	n/a	n/a
2938139	RECOG_TARGET	n/a	LTP073	ltpFR	16	2	-1	FUNGUS	614	5	-1	n/a	n/a	n/a	n/a	n/a
2938795	RECOG_RESP	n/a	LTP073	ltpFR	16	2	-1	FUNGUS	614	n/a	-1	n/a	n/a	n/a	n/a	n/a
2939354	RECOG_CONF	n/a	LTP073	ltpFR	16	2	-1	FUNGUS	614	5	-1	n/a	n/a	n/a	n/a	n/a
2940919	RECOG_TARGET	n/a	LTP073	ltpFR	16	2	0	CAGE	218	5	0	n/a	n/a	n/a	n/a	n/a
2941564	RECOG_RESP	n/a	LTP073	ltpFR	16	2	0	CAGE	218	n/a	0	n/a	n/a	n/a	n/a	n/a
2942196	RECOG_CONF	n/a	LTP073	ltpFR	16	2	0	CAGE	218	5	0	n/a	n/a	n/a	n/a	n/a
2943791	RECOG_LURE	n/a	LTP073	ltpFR	16	2	n/a	WORLD	1622	3	n/a	n/a	n/a	n/a	n/a	n/a
2944582	RECOG_RESP	n/a	LTP073	ltpFR	16	2	n/a	WORLD	1622	n/a	n/a	n/a	n/a	n/a	n/a	n/a
2945310	RECOG_CONF	n/a	LTP073	ltpFR	16	2	n/a	WORLD	1622	3	n/a	n/a	n/a	n/a	n/a	n/a
2946920	RECOG_TARGET	n/a	LTP073	ltpFR	16	2	1	VAMPIRE	1547	5	1	n/a	n/a	n/a	n/a	n/a
2947540	RECOG_RESP	n/a	LTP073	ltpFR	16	2	1	VAMPIRE	1547	n/a	1	n/a	n/a	n/a	n/a	n/a
2948102	RECOG_CONF	n/a	LTP073	ltpFR	16	2	1	VAMPIRE	1547	5	1	n/a	n/a	n/a	n/a	n/a
2949750	RECOG_TARGET	n/a	LTP073	ltpFR	16	2	0	DOORBELL	487	5	0	n/a	n/a	n/a	n/a	n/a
2950678	RECOG_RESP	n/a	LTP073	ltpFR	16	2	0	DOORBELL	487	n/a	0	n/a	n/a	n/a	n/a	n/a
2951466	RECOG_CONF	n/a	LTP073	ltpFR	16	2	0	DOORBELL	487	5	0	n/a	n/a	n/a	n/a	n/a
2953205	RECOG_TARGET	n/a	LTP073	ltpFR	16	2	1	PARSLEY	1016	5	0	n/a	n/a	n/a	n/a	n/a
2953871	RECOG_RESP	n/a	LTP073	ltpFR	16	2	1	PARSLEY	1016	n/a	0	n/a	n/a	n/a	n/a	n/a
2954405	RECOG_CONF	n/a	LTP073	ltpFR	16	2	1	PARSLEY	1016	5	0	n/a	n/a	n/a	n/a	n/a
2955876	RECOG_TARGET	n/a	LTP073	ltpFR	16	2	1	RECORD	1176	3	0	n/a	n/a	n/a	n/a	n/a
2956550	RECOG_RESP	n/a	LTP073	ltpFR	16	2	1	RECORD	1176	n/a	0	n/a	n/a	n/a	n/a	n/a
2957632	RECOG_CONF	n/a	LTP073	ltpFR	16	2	1	RECORD	1176	3	0	n/a	n/a	n/a	n/a	n/a
2959173	RECOG_TARGET	n/a	LTP073	ltpFR	16	2	1	BAND	78	5	0	n/a	n/a	n/a	n/a	n/a
2959857	RECOG_RESP	n/a	LTP073	ltpFR	16	2	1	BAND	78	n/a	0	n/a	n/a	n/a	n/a	n/a
2960479	RECOG_CONF	n/a	LTP073	ltpFR	16	2	1	BAND	78	5	0	n/a	n/a	n/a	n/a	n/a
2961936	RECOG_TARGET	n/a	LTP073	ltpFR	16	2	1	RING	1193	5	0	n/a	n/a	n/a	n/a	n/a
2962756	RECOG_RESP	n/a	LTP073	ltpFR	16	2	1	RING	1193	n/a	0	n/a	n/a	n/a	n/a	n/a
2963249	RECOG_CONF	n/a	LTP073	ltpFR	16	2	1	RING	1193	5	0	n/a	n/a	n/a	n/a	n/a
2964766	RECOG_LURE	n/a	LTP073	ltpFR	16	2	n/a	NIGHTGOWN	953	5	n/a	n/a	n/a	n/a	n/a	n/a
2965509	RECOG_RESP	n/a	LTP073	ltpFR	16	2	n/a	NIGHTGOWN	953	n/a	n/a	n/a	n/a	n/a	n/a	n/a
2966183	RECOG_CONF	n/a	LTP073	ltpFR	16	2	n/a	NIGHTGOWN	953	5	n/a	n/a	n/a	n/a	n/a	n/a
2967664	RECOG_LURE	n/a	LTP073	ltpFR	16	2	n/a	REPORT	1184	4	n/a	n/a	n/a	n/a	n/a	n/a
2968567	RECOG_RESP	n/a	LTP073	ltpFR	16	2	n/a	REPORT	1184	n/a	n/a	n/a	n/a	n/a	n/a	n/a
2969186	RECOG_CONF	n/a	LTP073	ltpFR	16	2	n/a	REPORT	1184	4	n/a	n/a	n/a	n/a	n/a	n/a
2970767	RECOG_LURE	n/a	LTP073	ltpFR	16	2	n/a	FARM	552	2	n/a	n/a	n/a	n/a	n/a	n/a
2971740	RECOG_RESP	n/a	LTP073	ltpFR	16	2	n/a	FARM	552	n/a	n/a	n/a	n/a	n/a	n/a	n/a
2972489	RECOG_CONF	n/a	LTP073	ltpFR	16	2	n/a	FARM	552	2	n/a	n/a	n/a	n/a	n/a	n/a
2974030	RECOG_TARGET	n/a	LTP073	ltpFR	16	2	-1	PEDESTRIAN	1038	4	-1	n/a	n/a	n/a	n/a	n/a
2974913	RECOG_RESP	n/a	LTP073	ltpFR	16	2	-1	PEDESTRIAN	1038	n/a	-1	n/a	n/a	n/a	n/a	n/a
2975586	RECOG_CONF	n/a	LTP073	ltpFR	16	2	-1	PEDESTRIAN	1038	4	-1	n/a	n/a	n/a	n/a	n/a
2976993	RECOG_LURE	n/a	LTP073	ltpFR	16	2	n/a	EGYPT	519	5	n/a	n/a	n/a	n/a	n/a	n/a
2977737	RECOG_RESP	n/a	LTP073	ltpFR	16	2	n/a	EGYPT	519	n/a	n/a	n/a	n/a	n/a	n/a	n/a
2978355	RECOG_CONF	n/a	LTP073	ltpFR	16	2	n/a	EGYPT	519	5	n/a	n/a	n/a	n/a	n/a	n/a
2979873	RECOG_TARGET	n/a	LTP073	ltpFR	16	2	1	MONGOOSE	909	5	1	n/a	n/a	n/a	n/a	n/a
2980515	RECOG_RESP	n/a	LTP073	ltpFR	16	2	1	MONGOOSE	909	n/a	1	n/a	n/a	n/a	n/a	n/a
2981054	RECOG_CONF	n/a	LTP073	ltpFR	16	2	1	MONGOOSE	909	5	1	n/a	n/a	n/a	n/a	n/a
2982537	RECOG_TARGET	n/a	LTP073	ltpFR	16	2	-1	FOLLOWER	589	5	-1	n/a	n/a	n/a	n/a	n/a
2983139	RECOG_RESP	n/a	LTP073	ltpFR	16	2	-1	FOLLOWER	589	n/a	-1	n/a	n/a	n/a	n/a	n/a
2983701	RECOG_CONF	n/a	LTP073	ltpFR	16	2	-1	FOLLOWER	589	5	-1	n/a	n/a	n/a	n/a	n/a
2987355	REC_START	n/a	LTP073	ltpFR	16	3	n/a	n/a	n/a	n/a	n/a	n/a	n/a	n/a	n/a	n/a
2987381	RECOG_TARGET	n/a	LTP073	ltpFR	16	3	-1	STREAM	1392	5	-1	n/a	n/a	n/a	n/a	n/a
2988043	RECOG_RESP	n/a	LTP073	ltpFR	16	3	-1	STREAM	1392	n/a	-1	n/a	n/a	n/a	n/a	n/a
2988675	RECOG_CONF	n/a	LTP073	ltpFR	16	3	-1	STREAM	1392	5	-1	n/a	n/a	n/a	n/a	n/a
2990161	RECOG_TARGET	n/a	LTP073	ltpFR	16	3	1	PLAQUE	1084	5	0	n/a	n/a	n/a	n/a	n/a
2990722	RECOG_RESP	n/a	LTP073	ltpFR	16	3	1	PLAQUE	1084	n/a	0	n/a	n/a	n/a	n/a	n/a
2991256	RECOG_CONF	n/a	LTP073	ltpFR	16	3	1	PLAQUE	1084	5	0	n/a	n/a	n/a	n/a	n/a
2992750	RECOG_TARGET	n/a	LTP073	ltpFR	16	3	0	PIANO	1057	5	1	n/a	n/a	n/a	n/a	n/a
2993531	RECOG_RESP	n/a	LTP073	ltpFR	16	3	0	PIANO	1057	n/a	1	n/a	n/a	n/a	n/a	n/a
2994035	RECOG_CONF	n/a	LTP073	ltpFR	16	3	0	PIANO	1057	5	1	n/a	n/a	n/a	n/a	n/a
2995513	RECOG_LURE	n/a	LTP073	ltpFR	16	3	n/a	MOLECULE	905	5	n/a	n/a	n/a	n/a	n/a	n/a
2996319	RECOG_RESP	n/a	LTP073	ltpFR	16	3	n/a	MOLECULE	905	n/a	n/a	n/a	n/a	n/a	n/a	n/a
2996788	RECOG_CONF	n/a	LTP073	ltpFR	16	3	n/a	MOLECULE	905	5	n/a	n/a	n/a	n/a	n/a	n/a
2998335	RECOG_TARGET	n/a	LTP073	ltpFR	16	3	1	CAPE	237	5	0	n/a	n/a	n/a	n/a	n/a
2998968	RECOG_RESP	n/a	LTP073	ltpFR	16	3	1	CAPE	237	n/a	0	n/a	n/a	n/a	n/a	n/a
2999479	RECOG_CONF	n/a	LTP073	ltpFR	16	3	1	CAPE	237	5	0	n/a	n/a	n/a	n/a	n/a
3000874	RECOG_TARGET	n/a	LTP073	ltpFR	16	3	0	SHAMPOO	1274	5	0	n/a	n/a	n/a	n/a	n/a
3001957	RECOG_RESP	n/a	LTP073	ltpFR	16	3	0	SHAMPOO	1274	n/a	0	n/a	n/a	n/a	n/a	n/a
3002725	RECOG_CONF	n/a	LTP073	ltpFR	16	3	0	SHAMPOO	1274	5	0	n/a	n/a	n/a	n/a	n/a
3004295	RECOG_TARGET	n/a	LTP073	ltpFR	16	3	0	SNAKE	1333	5	n/a	n/a	n/a	n/a	n/a	n/a
3004890	RECOG_RESP	n/a	LTP073	ltpFR	16	3	0	SNAKE	1333	n/a	n/a	n/a	n/a	n/a	n/a	n/a
3005470	RECOG_CONF	n/a	LTP073	ltpFR	16	3	0	SNAKE	1333	5	n/a	n/a	n/a	n/a	n/a	n/a
3006925	RECOG_TARGET	n/a	LTP073	ltpFR	16	3	1	PARROT	1015	5	1	n/a	n/a	n/a	n/a	n/a
3007619	RECOG_RESP	n/a	LTP073	ltpFR	16	3	1	PARROT	1015	n/a	1	n/a	n/a	n/a	n/a	n/a
3008135	RECOG_CONF	n/a	LTP073	ltpFR	16	3	1	PARROT	1015	5	1	n/a	n/a	n/a	n/a	n/a
3009714	RECOG_TARGET	n/a	LTP073	ltpFR	16	3	0	BLACKBOARD	133	5	1	n/a	n/a	n/a	n/a	n/a
3010313	RECOG_RESP	n/a	LTP073	ltpFR	16	3	0	BLACKBOARD	133	n/a	1	n/a	n/a	n/a	n/a	n/a
3010806	RECOG_CONF	n/a	LTP073	ltpFR	16	3	0	BLACKBOARD	133	5	1	n/a	n/a	n/a	n/a	n/a
3012302	RECOG_TARGET	n/a	LTP073	ltpFR	16	3	1	LID	817	4	0	n/a	n/a	n/a	n/a	n/a
3013211	RECOG_RESP	n/a	LTP073	ltpFR	16	3	1	LID	817	n/a	0	n/a	n/a	n/a	n/a	n/a
3013791	RECOG_CONF	n/a	LTP073	ltpFR	16	3	1	LID	817	4	0	n/a	n/a	n/a	n/a	n/a
3015149	RECOG_TARGET	n/a	LTP073	ltpFR	16	3	1	ORANGE	980	5	0	n/a	n/a	n/a	n/a	n/a
3015780	RECOG_RESP	n/a	LTP073	ltpFR	16	3	1	ORANGE	980	n/a	0	n/a	n/a	n/a	n/a	n/a
3016296	RECOG_CONF	n/a	LTP073	ltpFR	16	3	1	ORANGE	980	5	0	n/a	n/a	n/a	n/a	n/a
3017787	RECOG_TARGET	n/a	LTP073	ltpFR	16	3	-1	HERO	706	5	-1	n/a	n/a	n/a	n/a	n/a
3018349	RECOG_RESP	n/a	LTP073	ltpFR	16	3	-1	HERO	706	n/a	-1	n/a	n/a	n/a	n/a	n/a
3018813	RECOG_CONF	n/a	LTP073	ltpFR	16	3	-1	HERO	706	5	-1	n/a	n/a	n/a	n/a	n/a
3020334	RECOG_LURE	n/a	LTP073	ltpFR	16	3	n/a	TRAITOR	1495	4	n/a	n/a	n/a	n/a	n/a	n/a
3020983	RECOG_RESP	n/a	LTP073	ltpFR	16	3	n/a	TRAITOR	1495	n/a	n/a	n/a	n/a	n/a	n/a	n/a
3021632	RECOG_CONF	n/a	LTP073	ltpFR	16	3	n/a	TRAITOR	1495	4	n/a	n/a	n/a	n/a	n/a	n/a
3023040	RECOG_TARGET	n/a	LTP073	ltpFR	16	3	-1	ALMOND	18	5	-1	n/a	n/a	n/a	n/a	n/a
3023762	RECOG_RESP	n/a	LTP073	ltpFR	16	3	-1	ALMOND	18	n/a	-1	n/a	n/a	n/a	n/a	n/a
3024250	RECOG_CONF	n/a	LTP073	ltpFR	16	3	-1	ALMOND	18	5	-1	n/a	n/a	n/a	n/a	n/a
3025761	RECOG_TARGET	n/a	LTP073	ltpFR	16	3	0	SHELF	1280	5	1	n/a	n/a	n/a	n/a	n/a
3026670	RECOG_RESP	n/a	LTP073	ltpFR	16	3	0	SHELF	1280	n/a	1	n/a	n/a	n/a	n/a	n/a
3027158	RECOG_CONF	n/a	LTP073	ltpFR	16	3	0	SHELF	1280	5	1	n/a	n/a	n/a	n/a	n/a
3028775	RECOG_TARGET	n/a	LTP073	ltpFR	16	3	1	CLAW	319	5	0	n/a	n/a	n/a	n/a	n/a
3029574	RECOG_RESP	n/a	LTP073	ltpFR	16	3	1	CLAW	319	n/a	0	n/a	n/a	n/a	n/a	n/a
3030085	RECOG_CONF	n/a	LTP073	ltpFR	16	3	1	CLAW	319	5	0	n/a	n/a	n/a	n/a	n/a
3031681	RECOG_TARGET	n/a	LTP073	ltpFR	16	3	1	OPERATOR	979	5	1	n/a	n/a	n/a	n/a	n/a
3032407	RECOG_RESP	n/a	LTP073	ltpFR	16	3	1	OPERATOR	979	n/a	1	n/a	n/a	n/a	n/a	n/a
3032895	RECOG_CONF	n/a	LTP073	ltpFR	16	3	1	OPERATOR	979	5	1	n/a	n/a	n/a	n/a	n/a
3034609	RECOG_TARGET	n/a	LTP073	ltpFR	16	3	-1	VEIN	1554	1	-1	n/a	n/a	n/a	n/a	n/a
3036029	RECOG_RESP	n/a	LTP073	ltpFR	16	3	-1	VEIN	1554	n/a	-1	n/a	n/a	n/a	n/a	n/a
3036698	RECOG_CONF	n/a	LTP073	ltpFR	16	3	-1	VEIN	1554	1	-1	n/a	n/a	n/a	n/a	n/a
3038239	RECOG_TARGET	n/a	LTP073	ltpFR	16	3	1	VIRUS	1572	5	0	n/a	n/a	n/a	n/a	n/a
3038893	RECOG_RESP	n/a	LTP073	ltpFR	16	3	1	VIRUS	1572	n/a	0	n/a	n/a	n/a	n/a	n/a
3039357	RECOG_CONF	n/a	LTP073	ltpFR	16	3	1	VIRUS	1572	5	0	n/a	n/a	n/a	n/a	n/a
3040927	RECOG_TARGET	n/a	LTP073	ltpFR	16	3	0	SIGNATURE	1306	3	0	n/a	n/a	n/a	n/a	n/a
3041542	RECOG_RESP	n/a	LTP073	ltpFR	16	3	0	SIGNATURE	1306	n/a	0	n/a	n/a	n/a	n/a	n/a
3042664	RECOG_CONF	n/a	LTP073	ltpFR	16	3	0	SIGNATURE	1306	3	0	n/a	n/a	n/a	n/a	n/a
3053582	REC_START	n/a	LTP073	ltpFR	16	4	n/a	n/a	n/a	n/a	n/a	n/a	n/a	n/a	n/a	n/a
3053612	RECOG_TARGET	n/a	LTP073	ltpFR	16	4	0	HUT	729	5	0	n/a	n/a	n/a	n/a	n/a
3055034	RECOG_RESP	n/a	LTP073	ltpFR	16	4	0	HUT	729	n/a	0	n/a	n/a	n/a	n/a	n/a
3055568	RECOG_CONF	n/a	LTP073	ltpFR	16	4	0	HUT	729	5	0	n/a	n/a	n/a	n/a	n/a
3057141	RECOG_TARGET	n/a	LTP073	ltpFR	16	4	-1	LUMBER	848	5	-1	n/a	n/a	n/a	n/a	n/a
3057697	RECOG_RESP	n/a	LTP073	ltpFR	16	4	-1	LUMBER	848	n/a	-1	n/a	n/a	n/a	n/a	n/a
3058180	RECOG_CONF	n/a	LTP073	ltpFR	16	4	-1	LUMBER	848	5	-1	n/a	n/a	n/a	n/a	n/a
3059755	RECOG_TARGET	n/a	LTP073	ltpFR	16	4	1	HOOD	714	5	0	n/a	n/a	n/a	n/a	n/a
3060341	RECOG_RESP	n/a	LTP073	ltpFR	16	4	1	HOOD	714	n/a	0	n/a	n/a	n/a	n/a	n/a
3060852	RECOG_CONF	n/a	LTP073	ltpFR	16	4	1	HOOD	714	5	0	n/a	n/a	n/a	n/a	n/a
3062327	RECOG_TARGET	n/a	LTP073	ltpFR	16	4	0	FLOWER	584	3	0	n/a	n/a	n/a	n/a	n/a
3063614	RECOG_RESP	n/a	LTP073	ltpFR	16	4	0	FLOWER	584	n/a	0	n/a	n/a	n/a	n/a	n/a
3064194	RECOG_CONF	n/a	LTP073	ltpFR	16	4	0	FLOWER	584	3	0	n/a	n/a	n/a	n/a	n/a
3065590	RECOG_TARGET	n/a	LTP073	ltpFR	16	4	1	FOUNTAIN	597	4	0	n/a	n/a	n/a	n/a	n/a
3066468	RECOG_RESP	n/a	LTP073	ltpFR	16	4	1	FOUNTAIN	597	n/a	0	n/a	n/a	n/a	n/a	n/a
3067336	RECOG_CONF	n/a	LTP073	ltpFR	16	4	1	FOUNTAIN	597	4	0	n/a	n/a	n/a	n/a	n/a
3068778	RECOG_TARGET	n/a	LTP073	ltpFR	16	4	1	SUPERVISOR	1410	5	1	n/a	n/a	n/a	n/a	n/a
3069391	RECOG_RESP	n/a	LTP073	ltpFR	16	4	1	SUPERVISOR	1410	n/a	1	n/a	n/a	n/a	n/a	n/a
3069763	RECOG_CONF	n/a	LTP073	ltpFR	16	4	1	SUPERVISOR	1410	5	1	n/a	n/a	n/a	n/a	n/a
3071350	RECOG_TARGET	n/a	LTP073	ltpFR	16	4	-1	ZOO	1637	5	-1	n/a	n/a	n/a	n/a	n/a
3071905	RECOG_RESP	n/a	LTP073	ltpFR	16	4	-1	ZOO	1637	n/a	-1	n/a	n/a	n/a	n/a	n/a
3072346	RECOG_CONF	n/a	LTP073	ltpFR	16	4	-1	ZOO	1637	5	-1	n/a	n/a	n/a	n/a	n/a
3073939	RECOG_TARGET	n/a	LTP073	ltpFR	16	4	0	COYOTE	396	5	1	n/a	n/a	n/a	n/a	n/a
3074539	RECOG_RESP	n/a	LTP073	ltpFR	16	4	0	COYOTE	396	n/a	1	n/a	n/a	n/a	n/a	n/a
3075096	RECOG_CONF	n/a	LTP073	ltpFR	16	4	0	COYOTE	396	5	1	n/a	n/a	n/a	n/a	n/a
3076619	RECOG_TARGET	n/a	LTP073	ltpFR	16	4	-1	VEGETABLE	1552	5	-1	n/a	n/a	n/a	n/a	n/a
3077153	RECOG_RESP	n/a	LTP073	ltpFR	16	4	-1	VEGETABLE	1552	n/a	-1	n/a	n/a	n/a	n/a	n/a
3077687	RECOG_CONF	n/a	LTP073	ltpFR	16	4	-1	VEGETABLE	1552	5	-1	n/a	n/a	n/a	n/a	n/a
3079091	RECOG_TARGET	n/a	LTP073	ltpFR	16	4	-1	SHACK	1273	2	-1	n/a	n/a	n/a	n/a	n/a
3079817	RECOG_RESP	n/a	LTP073	ltpFR	16	4	-1	SHACK	1273	n/a	-1	n/a	n/a	n/a	n/a	n/a
3080765	RECOG_CONF	n/a	LTP073	ltpFR	16	4	-1	SHACK	1273	2	-1	n/a	n/a	n/a	n/a	n/a
3082270	RECOG_LURE	n/a	LTP073	ltpFR	16	4	n/a	FARMER	553	3	n/a	n/a	n/a	n/a	n/a	n/a
3083170	RECOG_RESP	n/a	LTP073	ltpFR	16	4	n/a	FARMER	553	n/a	n/a	n/a	n/a	n/a	n/a	n/a
3083848	RECOG_CONF	n/a	LTP073	ltpFR	16	4	n/a	FARMER	553	3	n/a	n/a	n/a	n/a	n/a	n/a
3085367	RECOG_LURE	n/a	LTP073	ltpFR	16	4	n/a	MOWER	928	5	n/a	n/a	n/a	n/a	n/a	n/a
3086297	RECOG_RESP	n/a	LTP073	ltpFR	16	4	n/a	MOWER	928	n/a	n/a	n/a	n/a	n/a	n/a	n/a
3086861	RECOG_CONF	n/a	LTP073	ltpFR	16	4	n/a	MOWER	928	5	n/a	n/a	n/a	n/a	n/a	n/a
3088338	RECOG_TARGET	n/a	LTP073	ltpFR	16	4	0	PASSENGER	1020	5	1	n/a	n/a	n/a	n/a	n/a
3089261	RECOG_RESP	n/a	LTP073	ltpFR	16	4	0	PASSENGER	1020	n/a	1	n/a	n/a	n/a	n/a	n/a
3089774	RECOG_CONF	n/a	LTP073	ltpFR	16	4	0	PASSENGER	1020	5	1	n/a	n/a	n/a	n/a	n/a
3091202	RECOG_TARGET	n/a	LTP073	ltpFR	16	4	-1	MARS	873	5	-1	n/a	n/a	n/a	n/a	n/a
3091830	RECOG_RESP	n/a	LTP073	ltpFR	16	4	-1	MARS	873	n/a	-1	n/a	n/a	n/a	n/a	n/a
3092318	RECOG_CONF	n/a	LTP073	ltpFR	16	4	-1	MARS	873	5	-1	n/a	n/a	n/a	n/a	n/a
3093740	RECOG_TARGET	n/a	LTP073	ltpFR	16	4	1	ANGEL	22	5	1	n/a	n/a	n/a	n/a	n/a
3094344	RECOG_RESP	n/a	LTP073	ltpFR	16	4	1	ANGEL	22	n/a	1	n/a	n/a	n/a	n/a	n/a
3094855	RECOG_CONF	n/a	LTP073	ltpFR	16	4	1	ANGEL	22	5	1	n/a	n/a	n/a	n/a	n/a
3096271	RECOG_TARGET	n/a	LTP073	ltpFR	16	4	0	PADDING	999	5	1	n/a	n/a	n/a	n/a	n/a
3096843	RECOG_RESP	n/a	LTP073	ltpFR	16	4	0	PADDING	999	n/a	1	n/a	n/a	n/a	n/a	n/a
3097261	RECOG_CONF	n/a	LTP073	ltpFR	16	4	0	PADDING	999	5	1	n/a	n/a	n/a	n/a	n/a
3098784	RECOG_TARGET	n/a	LTP073	ltpFR	16	4	0	TUNA	1518	5	1	n/a	n/a	n/a	n/a	n/a
3099293	RECOG_RESP	n/a	LTP073	ltpFR	16	4	0	TUNA	1518	n/a	1	n/a	n/a	n/a	n/a	n/a
3099698	RECOG_CONF	n/a	LTP073	ltpFR	16	4	0	TUNA	1518	5	1	n/a	n/a	n/a	n/a	n/a
3101223	RECOG_LURE	n/a	LTP073	ltpFR	16	4	n/a	PRAIRIE	1118	5	n/a	n/a	n/a	n/a	n/a	n/a
3102027	RECOG_RESP	n/a	LTP073	ltpFR	16	4	n/a	PRAIRIE	1118	n/a	n/a	n/a	n/a	n/a	n/a	n/a
3102635	RECOG_CONF	n/a	LTP073	ltpFR	16	4	n/a	PRAIRIE	1118	5	n/a	n/a	n/a	n/a	n/a	n/a
3104053	RECOG_TARGET	n/a	LTP073	ltpFR	16	4	1	HEDGE	699	5	0	n/a	n/a	n/a	n/a	n/a
3104621	RECOG_RESP	n/a	LTP073	ltpFR	16	4	1	HEDGE	699	n/a	0	n/a	n/a	n/a	n/a	n/a
3105062	RECOG_CONF	n/a	LTP073	ltpFR	16	4	1	HEDGE	699	5	0	n/a	n/a	n/a	n/a	n/a
3106634	RECOG_TARGET	n/a	LTP073	ltpFR	16	4	0	GOBLIN	645	5	1	n/a	n/a	n/a	n/a	n/a
3107175	RECOG_RESP	n/a	LTP073	ltpFR	16	4	0	GOBLIN	645	n/a	1	n/a	n/a	n/a	n/a	n/a
3107626	RECOG_CONF	n/a	LTP073	ltpFR	16	4	0	GOBLIN	645	5	1	n/a	n/a	n/a	n/a	n/a
3111185	REC_START	n/a	LTP073	ltpFR	16	5	n/a	n/a	n/a	n/a	n/a	n/a	n/a	n/a	n/a	n/a
3111212	RECOG_TARGET	n/a	LTP073	ltpFR	16	5	0	DOUGH	489	5	0	n/a	n/a	n/a	n/a	n/a
3111893	RECOG_RESP	n/a	LTP073	ltpFR	16	5	0	DOUGH	489	n/a	0	n/a	n/a	n/a	n/a	n/a
3112357	RECOG_CONF	n/a	LTP073	ltpFR	16	5	0	DOUGH	489	5	0	n/a	n/a	n/a	n/a	n/a
3113908	RECOG_TARGET	n/a	LTP073	ltpFR	16	5	1	TICKET	1464	3	0	n/a	n/a	n/a	n/a	n/a
3114752	RECOG_RESP	n/a	LTP073	ltpFR	16	5	1	TICKET	1464	n/a	0	n/a	n/a	n/a	n/a	n/a
3115193	RECOG_CONF	n/a	LTP073	ltpFR	16	5	1	TICKET	1464	3	0	n/a	n/a	n/a	n/a	n/a
3116730	RECOG_TARGET	n/a	LTP073	ltpFR	16	5	1	LABEL	790	2	0	n/a	n/a	n/a	n/a	n/a
3117480	RECOG_RESP	n/a	LTP073	ltpFR	16	5	1	LABEL	790	n/a	0	n/a	n/a	n/a	n/a	n/a
3118114	RECOG_CONF	n/a	LTP073	ltpFR	16	5	1	LABEL	790	2	0	n/a	n/a	n/a	n/a	n/a
3119577	RECOG_TARGET	n/a	LTP073	ltpFR	16	5	1	ORNAMENT	985	4	0	n/a	n/a	n/a	n/a	n/a
3120419	RECOG_RESP	n/a	LTP073	ltpFR	16	5	1	ORNAMENT	985	n/a	0	n/a	n/a	n/a	n/a	n/a
3120953	RECOG_CONF	n/a	LTP073	ltpFR	16	5	1	ORNAMENT	985	4	0	n/a	n/a	n/a	n/a	n/a
3122498	RECOG_TARGET	n/a	LTP073	ltpFR	16	5	-1	PUDDLE	1140	1	-1	n/a	n/a	n/a	n/a	n/a
3123726	RECOG_RESP	n/a	LTP073	ltpFR	16	5	-1	PUDDLE	1140	n/a	-1	n/a	n/a	n/a	n/a	n/a
3124280	RECOG_CONF	n/a	LTP073	ltpFR	16	5	-1	PUDDLE	1140	1	-1	n/a	n/a	n/a	n/a	n/a
3125820	RECOG_TARGET	n/a	LTP073	ltpFR	16	5	1	SKYSCRAPER	1322	5	0	n/a	n/a	n/a	n/a	n/a
3126580	RECOG_RESP	n/a	LTP073	ltpFR	16	5	1	SKYSCRAPER	1322	n/a	0	n/a	n/a	n/a	n/a	n/a
3127049	RECOG_CONF	n/a	LTP073	ltpFR	16	5	1	SKYSCRAPER	1322	5	0	n/a	n/a	n/a	n/a	n/a
3128508	RECOG_TARGET	n/a	LTP073	ltpFR	16	5	0	VIOLIN	1571	5	1	n/a	n/a	n/a	n/a	n/a
3129144	RECOG_RESP	n/a	LTP073	ltpFR	16	5	0	VIOLIN	1571	n/a	1	n/a	n/a	n/a	n/a	n/a
3129567	RECOG_CONF	n/a	LTP073	ltpFR	16	5	0	VIOLIN	1571	5	1	n/a	n/a	n/a	n/a	n/a
3131180	RECOG_TARGET	n/a	LTP073	ltpFR	16	5	0	FIREMAN	569	5	1	n/a	n/a	n/a	n/a	n/a
3131823	RECOG_RESP	n/a	LTP073	ltpFR	16	5	0	FIREMAN	569	n/a	1	n/a	n/a	n/a	n/a	n/a
3132241	RECOG_CONF	n/a	LTP073	ltpFR	16	5	0	FIREMAN	569	5	1	n/a	n/a	n/a	n/a	n/a
3133769	RECOG_LURE	n/a	LTP073	ltpFR	16	5	n/a	SERPENT	1270	5	n/a	n/a	n/a	n/a	n/a	n/a
3134756	RECOG_RESP	n/a	LTP073	ltpFR	16	5	n/a	SERPENT	1270	n/a	n/a	n/a	n/a	n/a	n/a	n/a
3135220	RECOG_CONF	n/a	LTP073	ltpFR	16	5	n/a	SERPENT	1270	5	n/a	n/a	n/a	n/a	n/a	n/a
3136773	RECOG_TARGET	n/a	LTP073	ltpFR	16	5	1	MOON	914	5	0	n/a	n/a	n/a	n/a	n/a
3137400	RECOG_RESP	n/a	LTP073	ltpFR	16	5	1	MOON	914	n/a	0	n/a	n/a	n/a	n/a	n/a
3137864	RECOG_CONF	n/a	LTP073	ltpFR	16	5	1	MOON	914	5	0	n/a	n/a	n/a	n/a	n/a
3139437	RECOG_TARGET	n/a	LTP073	ltpFR	16	5	0	GLASSES	640	5	0	n/a	n/a	n/a	n/a	n/a
3140159	RECOG_RESP	n/a	LTP073	ltpFR	16	5	0	GLASSES	640	n/a	0	n/a	n/a	n/a	n/a	n/a
3140628	RECOG_CONF	n/a	LTP073	ltpFR	16	5	0	GLASSES	640	5	0	n/a	n/a	n/a	n/a	n/a
3142134	RECOG_LURE	n/a	LTP073	ltpFR	16	5	n/a	JOURNAL	760	5	n/a	n/a	n/a	n/a	n/a	n/a
3143002	RECOG_RESP	n/a	LTP073	ltpFR	16	5	n/a	JOURNAL	760	n/a	n/a	n/a	n/a	n/a	n/a	n/a
3143481	RECOG_CONF	n/a	LTP073	ltpFR	16	5	n/a	JOURNAL	760	5	n/a	n/a	n/a	n/a	n/a	n/a
3144931	RECOG_TARGET	n/a	LTP073	ltpFR	16	5	-1	KANGAROO	768	4	-1	n/a	n/a	n/a	n/a	n/a
3145756	RECOG_RESP	n/a	LTP073	ltpFR	16	5	-1	KANGAROO	768	n/a	-1	n/a	n/a	n/a	n/a	n/a
3146529	RECOG_CONF	n/a	LTP073	ltpFR	16	5	-1	KANGAROO	768	4	-1	n/a	n/a	n/a	n/a	n/a
3147935	RECOG_TARGET	n/a	LTP073	ltpFR	16	5	1	ENGINEER	536	5	1	n/a	n/a	n/a	n/a	n/a
3148605	RECOG_RESP	n/a	LTP073	ltpFR	16	5	1	ENGINEER	536	n/a	1	n/a	n/a	n/a	n/a	n/a
3148987	RECOG_CONF	n/a	LTP073	ltpFR	16	5	1	ENGINEER	536	5	1	n/a	n/a	n/a	n/a	n/a
3150532	RECOG_TARGET	n/a	LTP073	ltpFR	16	5	1	SUBMARINE	1398	3	0	n/a	n/a	n/a	n/a	n/a
3151149	RECOG_RESP	n/a	LTP073	ltpFR	16	5	1	SUBMARINE	1398	n/a	0	n/a	n/a	n/a	n/a	n/a
3151837	RECOG_CONF	n/a	LTP073	ltpFR	16	5	1	SUBMARINE	1398	3	0	n/a	n/a	n/a	n/a	n/a
3153271	RECOG_TARGET	n/a	LTP073	ltpFR	16	5	0	AFRICA	9	5	1	n/a	n/a	n/a	n/a	n/a
3153873	RECOG_RESP	n/a	LTP073	ltpFR	16	5	0	AFRICA	9	n/a	1	n/a	n/a	n/a	n/a	n/a
3154407	RECOG_CONF	n/a	LTP073	ltpFR	16	5	0	AFRICA	9	5	1	n/a	n/a	n/a	n/a	n/a
3155818	RECOG_LURE	n/a	LTP073	ltpFR	16	5	n/a	CAULIFLOWER	262	5	n/a	n/a	n/a	n/a	n/a	n/a
3156801	RECOG_RESP	n/a	LTP073	ltpFR	16	5	n/a	CAULIFLOWER	262	n/a	n/a	n/a	n/a	n/a	n/a	n/a
3157224	RECOG_CONF	n/a	LTP073	ltpFR	16	5	n/a	CAULIFLOWER	262	5	n/a	n/a	n/a	n/a	n/a	n/a
3158789	RECOG_LURE	n/a	LTP073	ltpFR	16	5	n/a	CUP	424	2	n/a	n/a	n/a	n/a	n/a	n/a
3159595	RECOG_RESP	n/a	LTP073	ltpFR	16	5	n/a	CUP	424	n/a	n/a	n/a	n/a	n/a	n/a	n/a
3160178	RECOG_CONF	n/a	LTP073	ltpFR	16	5	n/a	CUP	424	2	n/a	n/a	n/a	n/a	n/a	n/a
3161594	RECOG_TARGET	n/a	LTP073	ltpFR	16	5	0	SHRINE	1298	5	1	n/a	n/a	n/a	n/a	n/a
3162329	RECOG_RESP	n/a	LTP073	ltpFR	16	5	0	SHRINE	1298	n/a	1	n/a	n/a	n/a	n/a	n/a
3162793	RECOG_CONF	n/a	LTP073	ltpFR	16	5	0	SHRINE	1298	5	1	n/a	n/a	n/a	n/a	n/a
3164341	RECOG_LURE	n/a	LTP073	ltpFR	16	5	n/a	SERGEANT	1269	3	n/a	n/a	n/a	n/a	n/a	n/a
3164918	RECOG_RESP_VV	n/a	LTP073	ltpFR	16	5	n/a	SERGEANT	1269	n/a	n/a	n/a	n/a	n/a	n/a	n/a
3165885	RECOG_RESP	n/a	LTP073	ltpFR	16	5	n/a	SERGEANT	1269	n/a	n/a	n/a	n/a	n/a	n/a	n/a
3166843	RECOG_CONF	n/a	LTP073	ltpFR	16	5	n/a	SERGEANT	1269	3	n/a	n/a	n/a	n/a	n/a	n/a
3170067	REC_START	n/a	LTP073	ltpFR	16	6	n/a	n/a	n/a	n/a	n/a	n/a	n/a	n/a	n/a	n/a
3170093	RECOG_TARGET	n/a	LTP073	ltpFR	16	6	0	DAISY	435	5	0	n/a	n/a	n/a	n/a	n/a
3170820	RECOG_RESP	n/a	LTP073	ltpFR	16	6	0	DAISY	435	n/a	0	n/a	n/a	n/a	n/a	n/a
3171349	RECOG_CONF	n/a	LTP073	ltpFR	16	6	0	DAISY	435	5	0	n/a	n/a	n/a	n/a	n/a
3172815	RECOG_TARGET	n/a	LTP073	ltpFR	16	6	1	MEAL	882	5	1	n/a	n/a	n/a	n/a	n/a
3173594	RECOG_RESP	n/a	LTP073	ltpFR	16	6	1	MEAL	882	n/a	1	n/a	n/a	n/a	n/a	n/a
3174058	RECOG_CONF	n/a	LTP073	ltpFR	16	6	1	MEAL	882	5	1	n/a	n/a	n/a	n/a	n/a
3175520	RECOG_TARGET	n/a	LTP073	ltpFR	16	6	1	CERAMICS	271	5	0	n/a	n/a	n/a	n/a	n/a
3176318	RECOG_RESP	n/a	LTP073	ltpFR	16	6	1	CERAMICS	271	n/a	0	n/a	n/a	n/a	n/a	n/a
3176597	RECOG_CONF	n/a	LTP073	ltpFR	16	6	1	CERAMICS	271	5	0	n/a	n/a	n/a	n/a	n/a
3178275	RECOG_LURE	n/a	LTP073	ltpFR	16	6	n/a	STAPLE	1371	1	n/a	n/a	n/a	n/a	n/a	n/a
3179371	RECOG_RESP	n/a	LTP073	ltpFR	16	6	n/a	STAPLE	1371	n/a	n/a	n/a	n/a	n/a	n/a	n/a
3179979	RECOG_CONF	n/a	LTP073	ltpFR	16	6	n/a	STAPLE	1371	1	n/a	n/a	n/a	n/a	n/a	n/a
3181480	RECOG_TARGET	n/a	LTP073	ltpFR	16	6	-1	MAP	865	5	-1	n/a	n/a	n/a	n/a	n/a
3182728	RECOG_RESP	n/a	LTP073	ltpFR	16	6	-1	MAP	865	n/a	-1	n/a	n/a	n/a	n/a	n/a
3183392	RECOG_CONF	n/a	LTP073	ltpFR	16	6	-1	MAP	865	5	-1	n/a	n/a	n/a	n/a	n/a
3184909	RECOG_LURE	n/a	LTP073	ltpFR	16	6	n/a	CHAMBER	277	3	n/a	n/a	n/a	n/a	n/a	n/a
3186031	RECOG_RESP	n/a	LTP073	ltpFR	16	6	n/a	CHAMBER	277	n/a	n/a	n/a	n/a	n/a	n/a	n/a
3186524	RECOG_CONF	n/a	LTP073	ltpFR	16	6	n/a	CHAMBER	277	3	n/a	n/a	n/a	n/a	n/a	n/a
3188055	RECOG_LURE	n/a	LTP073	ltpFR	16	6	n/a	OUTDOORS	987	3	n/a	n/a	n/a	n/a	n/a	n/a
3188974	RECOG_RESP	n/a	LTP073	ltpFR	16	6	n/a	OUTDOORS	987	n/a	n/a	n/a	n/a	n/a	n/a	n/a
3189458	RECOG_CONF	n/a	LTP073	ltpFR	16	6	n/a	OUTDOORS	987	3	n/a	n/a	n/a	n/a	n/a	n/a
3191085	RECOG_TARGET	n/a	LTP073	ltpFR	16	6	-1	APPLE	33	2	-1	n/a	n/a	n/a	n/a	n/a
3192022	RECOG_RESP	n/a	LTP073	ltpFR	16	6	-1	APPLE	33	n/a	-1	n/a	n/a	n/a	n/a	n/a
3192700	RECOG_CONF	n/a	LTP073	ltpFR	16	6	-1	APPLE	33	2	-1	n/a	n/a	n/a	n/a	n/a
3194198	RECOG_TARGET	n/a	LTP073	ltpFR	16	6	-1	HOOP	716	5	-1	n/a	n/a	n/a	n/a	n/a
3194960	RECOG_RESP	n/a	LTP073	ltpFR	16	6	-1	HOOP	716	n/a	-1	n/a	n/a	n/a	n/a	n/a
3195401	RECOG_CONF	n/a	LTP073	ltpFR	16	6	-1	HOOP	716	5	-1	n/a	n/a	n/a	n/a	n/a
3196812	RECOG_TARGET	n/a	LTP073	ltpFR	16	6	1	BOOK	149	1	0	n/a	n/a	n/a	n/a	n/a
3197819	RECOG_RESP	n/a	LTP073	ltpFR	16	6	1	BOOK	149	n/a	0	n/a	n/a	n/a	n/a	n/a
3198547	RECOG_CONF	n/a	LTP073	ltpFR	16	6	1	BOOK	149	1	0	n/a	n/a	n/a	n/a	n/a
3200025	RECOG_TARGET	n/a	LTP073	ltpFR	16	6	0	ZIPPER	1636	5	0	n/a	n/a	n/a	n/a	n/a
3200632	RECOG_RESP	n/a	LTP073	ltpFR	16	6	0	ZIPPER	1636	n/a	0	n/a	n/a	n/a	n/a	n/a
3201073	RECOG_CONF	n/a	LTP073	ltpFR	16	6	0	ZIPPER	1636	5	0	n/a	n/a	n/a	n/a	n/a
3202522	RECOG_TARGET	n/a	LTP073	ltpFR	16	6	1	WRITER	1627	5	1	n/a	n/a	n/a	n/a	n/a
3203187	RECOG_RESP	n/a	LTP073	ltpFR	16	6	1	WRITER	1627	n/a	1	n/a	n/a	n/a	n/a	n/a
3203628	RECOG_CONF	n/a	LTP073	ltpFR	16	6	1	WRITER	1627	5	1	n/a	n/a	n/a	n/a	n/a
3205135	RECOG_TARGET	n/a	LTP073	ltpFR	16	6	1	COOK	372	5	1	n/a	n/a	n/a	n/a	n/a
3205726	RECOG_RESP	n/a	LTP073	ltpFR	16	6	1	COOK	372	n/a	1	n/a	n/a	n/a	n/a	n/a
3206195	RECOG_CONF	n/a	LTP073	ltpFR	16	6	1	COOK	372	5	1	n/a	n/a	n/a	n/a	n/a
3207624	RECOG_TARGET	n/a	LTP073	ltpFR	16	6	1	RELATIVE	1182	5	1	n/a	n/a	n/a	n/a	n/a
3208260	RECOG_RESP	n/a	LTP073	ltpFR	16	6	1	RELATIVE	1182	n/a	1	n/a	n/a	n/a	n/a	n/a
3208683	RECOG_CONF	n/a	LTP073	ltpFR	16	6	1	RELATIVE	1182	5	1	n/a	n/a	n/a	n/a	n/a
3210246	RECOG_TARGET	n/a	LTP073	ltpFR	16	6	0	SINK	1309	5	1	n/a	n/a	n/a	n/a	n/a
3210879	RECOG_RESP	n/a	LTP073	ltpFR	16	6	0	SINK	1309	n/a	1	n/a	n/a	n/a	n/a	n/a
3211307	RECOG_CONF	n/a	LTP073	ltpFR	16	6	0	SINK	1309	5	1	n/a	n/a	n/a	n/a	n/a
3212860	RECOG_TARGET	n/a	LTP073	ltpFR	16	6	1	VET	1560	5	1	n/a	n/a	n/a	n/a	n/a
3213408	RECOG_RESP	n/a	LTP073	ltpFR	16	6	1	VET	1560	n/a	1	n/a	n/a	n/a	n/a	n/a
3213849	RECOG_CONF	n/a	LTP073	ltpFR	16	6	1	VET	1560	5	1	n/a	n/a	n/a	n/a	n/a
3215332	RECOG_TARGET	n/a	LTP073	ltpFR	16	6	1	ONION	977	5	0	n/a	n/a	n/a	n/a	n/a
3215982	RECOG_RESP	n/a	LTP073	ltpFR	16	6	1	ONION	977	n/a	0	n/a	n/a	n/a	n/a	n/a
3216626	RECOG_CONF	n/a	LTP073	ltpFR	16	6	1	ONION	977	5	0	n/a	n/a	n/a	n/a	n/a
3218245	RECOG_LURE	n/a	LTP073	ltpFR	16	6	n/a	DUCK	504	1	n/a	n/a	n/a	n/a	n/a	n/a
3219489	RECOG_RESP	n/a	LTP073	ltpFR	16	6	n/a	DUCK	504	n/a	n/a	n/a	n/a	n/a	n/a	n/a
3220116	RECOG_CONF	n/a	LTP073	ltpFR	16	6	n/a	DUCK	504	1	n/a	n/a	n/a	n/a	n/a	n/a
3221675	RECOG_TARGET	n/a	LTP073	ltpFR	16	6	1	INDIAN	736	5	1	n/a	n/a	n/a	n/a	n/a
3222248	RECOG_RESP	n/a	LTP073	ltpFR	16	6	1	INDIAN	736	n/a	1	n/a	n/a	n/a	n/a	n/a
3222648	RECOG_CONF	n/a	LTP073	ltpFR	16	6	1	INDIAN	736	5	1	n/a	n/a	n/a	n/a	n/a
3224171	RECOG_TARGET	n/a	LTP073	ltpFR	16	6	-1	EMPLOYEE	531	3	-1	n/a	n/a	n/a	n/a	n/a
3224758	RECOG_RESP	n/a	LTP073	ltpFR	16	6	-1	EMPLOYEE	531	n/a	-1	n/a	n/a	n/a	n/a	n/a
3226783	RECOG_CONF	n/a	LTP073	ltpFR	16	6	-1	EMPLOYEE	531	3	-1	n/a	n/a	n/a	n/a	n/a
3232127	REC_START	n/a	LTP073	ltpFR	16	7	n/a	n/a	n/a	n/a	n/a	n/a	n/a	n/a	n/a	n/a
3232154	RECOG_TARGET	n/a	LTP073	ltpFR	16	7	1	PLASTER	1085	5	0	n/a	n/a	n/a	n/a	n/a
3232850	RECOG_RESP	n/a	LTP073	ltpFR	16	7	1	PLASTER	1085	n/a	0	n/a	n/a	n/a	n/a	n/a
3233361	RECOG_CONF	n/a	LTP073	ltpFR	16	7	1	PLASTER	1085	5	0	n/a	n/a	n/a	n/a	n/a
3234817	RECOG_LURE	n/a	LTP073	ltpFR	16	7	n/a	DIAPER	459	4	n/a	n/a	n/a	n/a	n/a	n/a
3235774	RECOG_RESP	n/a	LTP073	ltpFR	16	7	n/a	DIAPER	459	n/a	n/a	n/a	n/a	n/a	n/a	n/a
3236352	RECOG_CONF	n/a	LTP073	ltpFR	16	7	n/a	DIAPER	459	4	n/a	n/a	n/a	n/a	n/a	n/a
3237855	RECOG_TARGET	n/a	LTP073	ltpFR	16	7	0	ASTEROID	50	5	1	n/a	n/a	n/a	n/a	n/a
3238417	RECOG_RESP	n/a	LTP073	ltpFR	16	7	0	ASTEROID	50	n/a	1	n/a	n/a	n/a	n/a	n/a
3238915	RECOG_CONF	n/a	LTP073	ltpFR	16	7	0	ASTEROID	50	5	1	n/a	n/a	n/a	n/a	n/a
3240269	RECOG_TARGET	n/a	LTP073	ltpFR	16	7	-1	SIDING	1304	5	-1	n/a	n/a	n/a	n/a	n/a
3240897	RECOG_RESP	n/a	LTP073	ltpFR	16	7	-1	SIDING	1304	n/a	-1	n/a	n/a	n/a	n/a	n/a
3241376	RECOG_CONF	n/a	LTP073	ltpFR	16	7	-1	SIDING	1304	5	-1	n/a	n/a	n/a	n/a	n/a
3242825	RECOG_LURE	n/a	LTP073	ltpFR	16	7	n/a	PEACH	1031	4	n/a	n/a	n/a	n/a	n/a	n/a
3243725	RECOG_RESP	n/a	LTP073	ltpFR	16	7	n/a	PEACH	1031	n/a	n/a	n/a	n/a	n/a	n/a	n/a
3244274	RECOG_CONF	n/a	LTP073	ltpFR	16	7	n/a	PEACH	1031	4	n/a	n/a	n/a	n/a	n/a	n/a
3245655	RECOG_TARGET	n/a	LTP073	ltpFR	16	7	-1	COACH	331	5	-1	n/a	n/a	n/a	n/a	n/a
3246305	RECOG_RESP	n/a	LTP073	ltpFR	16	7	-1	COACH	331	n/a	-1	n/a	n/a	n/a	n/a	n/a
3246728	RECOG_CONF	n/a	LTP073	ltpFR	16	7	-1	COACH	331	5	-1	n/a	n/a	n/a	n/a	n/a
3248143	RECOG_LURE	n/a	LTP073	ltpFR	16	7	n/a	BOWL	158	3	n/a	n/a	n/a	n/a	n/a	n/a
3249083	RECOG_RESP	n/a	LTP073	ltpFR	16	7	n/a	BOWL	158	n/a	n/a	n/a	n/a	n/a	n/a	n/a
3249692	RECOG_CONF	n/a	LTP073	ltpFR	16	7	n/a	BOWL	158	3	n/a	n/a	n/a	n/a	n/a	n/a
3251156	RECOG_TARGET	n/a	LTP073	ltpFR	16	7	0	UMPIRE	1535	5	1	n/a	n/a	n/a	n/a	n/a
3251767	RECOG_RESP	n/a	LTP073	ltpFR	16	7	0	UMPIRE	1535	n/a	1	n/a	n/a	n/a	n/a	n/a
3252139	RECOG_CONF	n/a	LTP073	ltpFR	16	7	0	UMPIRE	1535	5	1	n/a	n/a	n/a	n/a	n/a
3253645	RECOG_TARGET	n/a	LTP073	ltpFR	16	7	0	IDOL	733	5	1	n/a	n/a	n/a	n/a	n/a
3254142	RECOG_RESP	n/a	LTP073	ltpFR	16	7	0	IDOL	733	n/a	1	n/a	n/a	n/a	n/a	n/a
3254537	RECOG_CONF	n/a	LTP073	ltpFR	16	7	0	IDOL	733	5	1	n/a	n/a	n/a	n/a	n/a
3255893	RECOG_TARGET	n/a	LTP073	ltpFR	16	7	1	POSSUM	1112	5	1	n/a	n/a	n/a	n/a	n/a
3256496	RECOG_RESP	n/a	LTP073	ltpFR	16	7	1	POSSUM	1112	n/a	1	n/a	n/a	n/a	n/a	n/a
3256844	RECOG_CONF	n/a	LTP073	ltpFR	16	7	1	POSSUM	1112	5	1	n/a	n/a	n/a	n/a	n/a
3258265	RECOG_TARGET	n/a	LTP073	ltpFR	16	7	0	SIRLOIN	1311	5	0	n/a	n/a	n/a	n/a	n/a
3258951	RECOG_RESP	n/a	LTP073	ltpFR	16	7	0	SIRLOIN	1311	n/a	0	n/a	n/a	n/a	n/a	n/a
3259369	RECOG_CONF	n/a	LTP073	ltpFR	16	7	0	SIRLOIN	1311	5	0	n/a	n/a	n/a	n/a	n/a
3260770	RECOG_TARGET	n/a	LTP073	ltpFR	16	7	0	FRIES	607	5	0	n/a	n/a	n/a	n/a	n/a
3261375	RECOG_RESP	n/a	LTP073	ltpFR	16	7	0	FRIES	607	n/a	0	n/a	n/a	n/a	n/a	n/a
3261793	RECOG_CONF	n/a	LTP073	ltpFR	16	7	0	FRIES	607	5	0	n/a	n/a	n/a	n/a	n/a
3263226	RECOG_TARGET	n/a	LTP073	ltpFR	16	7	1	STAR	1373	2	0	n/a	n/a	n/a	n/a	n/a
3264443	RECOG_RESP	n/a	LTP073	ltpFR	16	7	1	STAR	1373	n/a	0	n/a	n/a	n/a	n/a	n/a
3265486	RECOG_CONF	n/a	LTP073	ltpFR	16	7	1	STAR	1373	2	0	n/a	n/a	n/a	n/a	n/a
3266988	RECOG_TARGET	n/a	LTP073	ltpFR	16	7	1	TREE	1502	3	0	n/a	n/a	n/a	n/a	n/a
3267596	RECOG_RESP	n/a	LTP073	ltpFR	16	7	1	TREE	1502	n/a	0	n/a	n/a	n/a	n/a	n/a
3268153	RECOG_CONF	n/a	LTP073	ltpFR	16	7	1	TREE	1502	3	0	n/a	n/a	n/a	n/a	n/a
3269477	RECOG_LURE	n/a	LTP073	ltpFR	16	7	n/a	CONTINENT	367	1	n/a	n/a	n/a	n/a	n/a	n/a
3270510	RECOG_RESP	n/a	LTP073	ltpFR	16	7	n/a	CONTINENT	367	n/a	n/a	n/a	n/a	n/a	n/a	n/a
3271253	RECOG_CONF	n/a	LTP073	ltpFR	16	7	n/a	CONTINENT	367	1	n/a	n/a	n/a	n/a	n/a	n/a
3272666	RECOG_TARGET	n/a	LTP073	ltpFR	16	7	-1	LEAF	808	5	-1	n/a	n/a	n/a	n/a	n/a
3273348	RECOG_RESP	n/a	LTP073	ltpFR	16	7	-1	LEAF	808	n/a	-1	n/a	n/a	n/a	n/a	n/a
3273743	RECOG_CONF	n/a	LTP073	ltpFR	16	7	-1	LEAF	808	5	-1	n/a	n/a	n/a	n/a	n/a
3275170	RECOG_TARGET	n/a	LTP073	ltpFR	16	7	0	WHEEL	1603	4	1	n/a	n/a	n/a	n/a	n/a
3275758	RECOG_RESP	n/a	LTP073	ltpFR	16	7	0	WHEEL	1603	n/a	1	n/a	n/a	n/a	n/a	n/a
3276521	RECOG_CONF	n/a	LTP073	ltpFR	16	7	0	WHEEL	1603	4	1	n/a	n/a	n/a	n/a	n/a
3278008	RECOG_TARGET	n/a	LTP073	ltpFR	16	7	0	ELEPHANT	523	5	1	n/a	n/a	n/a	n/a	n/a
3278596	RECOG_RESP	n/a	LTP073	ltpFR	16	7	0	ELEPHANT	523	n/a	1	n/a	n/a	n/a	n/a	n/a
3278991	RECOG_CONF	n/a	LTP073	ltpFR	16	7	0	ELEPHANT	523	5	1	n/a	n/a	n/a	n/a	n/a
3280397	RECOG_LURE	n/a	LTP073	ltpFR	16	7	n/a	PRINCE	1124	4	n/a	n/a	n/a	n/a	n/a	n/a
3281190	RECOG_RESP	n/a	LTP073	ltpFR	16	7	n/a	PRINCE	1124	n/a	n/a	n/a	n/a	n/a	n/a	n/a
3281701	RECOG_CONF	n/a	LTP073	ltpFR	16	7	n/a	PRINCE	1124	4	n/a	n/a	n/a	n/a	n/a	n/a
3283127	RECOG_TARGET	n/a	LTP073	ltpFR	16	7	0	BED	110	5	1	n/a	n/a	n/a	n/a	n/a
3283934	RECOG_RESP	n/a	LTP073	ltpFR	16	7	0	BED	110	n/a	1	n/a	n/a	n/a	n/a	n/a
3284445	RECOG_CONF	n/a	LTP073	ltpFR	16	7	0	BED	110	5	1	n/a	n/a	n/a	n/a	n/a
3287459	REC_START	n/a	LTP073	ltpFR	16	8	n/a	n/a	n/a	n/a	n/a	n/a	n/a	n/a	n/a	n/a
3287489	RECOG_LURE	n/a	LTP073	ltpFR	16	8	n/a	DANCER	437	3	n/a	n/a	n/a	n/a	n/a	n/a
3288596	RECOG_RESP	n/a	LTP073	ltpFR	16	8	n/a	DANCER	437	n/a	n/a	n/a	n/a	n/a	n/a	n/a
3289190	RECOG_CONF	n/a	LTP073	ltpFR	16	8	n/a	DANCER	437	3	n/a	n/a	n/a	n/a	n/a	n/a
3290594	RECOG_LURE	n/a	LTP073	ltpFR	16	8	n/a	STEWARDESS	1381	4	n/a	n/a	n/a	n/a	n/a	n/a
3291355	RECOG_RESP	n/a	LTP073	ltpFR	16	8	n/a	STEWARDESS	1381	n/a	n/a	n/a	n/a	n/a	n/a	n/a
3291854	RECOG_CONF	n/a	LTP073	ltpFR	16	8	n/a	STEWARDESS	1381	4	n/a	n/a	n/a	n/a	n/a	n/a
3293390	RECOG_LURE	n/a	LTP073	ltpFR	16	8	n/a	MATTRESS	879	5	n/a	n/a	n/a	n/a	n/a	n/a
3294124	RECOG_RESP	n/a	LTP073	ltpFR	16	8	n/a	MATTRESS	879	n/a	n/a	n/a	n/a	n/a	n/a	n/a
3294524	RECOG_CONF	n/a	LTP073	ltpFR	16	8	n/a	MATTRESS	879	5	n/a	n/a	n/a	n/a	n/a	n/a
3295979	RECOG_TARGET	n/a	LTP073	ltpFR	16	8	1	HIKER	708	4	1	n/a	n/a	n/a	n/a	n/a
3297177	RECOG_RESP	n/a	LTP073	ltpFR	16	8	1	HIKER	708	n/a	1	n/a	n/a	n/a	n/a	n/a
3297750	RECOG_CONF	n/a	LTP073	ltpFR	16	8	1	HIKER	708	4	1	n/a	n/a	n/a	n/a	n/a
3299300	RECOG_TARGET	n/a	LTP073	ltpFR	16	8	1	BELT	120	4	0	n/a	n/a	n/a	n/a	n/a
3299965	RECOG_RESP	n/a	LTP073	ltpFR	16	8	1	BELT	120	n/a	0	n/a	n/a	n/a	n/a	n/a
3300454	RECOG_CONF	n/a	LTP073	ltpFR	16	8	1	BELT	120	4	0	n/a	n/a	n/a	n/a	n/a
3301889	RECOG_LURE	n/a	LTP073	ltpFR	16	8	n/a	SNEAKER	1334	1	n/a	n/a	n/a	n/a	n/a	n/a
3302679	RECOG_RESP	n/a	LTP073	ltpFR	16	8	n/a	SNEAKER	1334	n/a	n/a	n/a	n/a	n/a	n/a	n/a
3303507	RECOG_CONF	n/a	LTP073	ltpFR	16	8	n/a	SNEAKER	1334	1	n/a	n/a	n/a	n/a	n/a	n/a
3305068	RECOG_TARGET	n/a	LTP073	ltpFR	16	8	1	POTTERY	1116	5	0	n/a	n/a	n/a	n/a	n/a
3305757	RECOG_RESP	n/a	LTP073	ltpFR	16	8	1	POTTERY	1116	n/a	0	n/a	n/a	n/a	n/a	n/a
3306129	RECOG_CONF	n/a	LTP073	ltpFR	16	8	1	POTTERY	1116	5	0	n/a	n/a	n/a	n/a	n/a
3307582	RECOG_LURE	n/a	LTP073	ltpFR	16	8	n/a	MICROWAVE	892	5	n/a	n/a	n/a	n/a	n/a	n/a
3308247	RECOG_RESP	n/a	LTP073	ltpFR	16	8	n/a	MICROWAVE	892	n/a	n/a	n/a	n/a	n/a	n/a	n/a
3308619	RECOG_CONF	n/a	LTP073	ltpFR	16	8	n/a	MICROWAVE	892	5	n/a	n/a	n/a	n/a	n/a	n/a
3310146	RECOG_TARGET	n/a	LTP073	ltpFR	16	8	1	SEAFOOD	1260	5	0	n/a	n/a	n/a	n/a	n/a
3310841	RECOG_RESP	n/a	LTP073	ltpFR	16	8	1	SEAFOOD	1260	n/a	0	n/a	n/a	n/a	n/a	n/a
3311213	RECOG_CONF	n/a	LTP073	ltpFR	16	8	1	SEAFOOD	1260	5	0	n/a	n/a	n/a	n/a	n/a
3312702	RECOG_TARGET	n/a	LTP073	ltpFR	16	8	1	BRUNETTE	181	5	0	n/a	n/a	n/a	n/a	n/a
3313325	RECOG_RESP	n/a	LTP073	ltpFR	16	8	1	BRUNETTE	181	n/a	0	n/a	n/a	n/a	n/a	n/a
3313743	RECOG_CONF	n/a	LTP073	ltpFR	16	8	1	BRUNETTE	181	5	0	n/a	n/a	n/a	n/a	n/a
3315290	RECOG_LURE	n/a	LTP073	ltpFR	16	8	n/a	FOOT	590	2	n/a	n/a	n/a	n/a	n/a	n/a
3316328	RECOG_RESP	n/a	LTP073	ltpFR	16	8	n/a	FOOT	590	n/a	n/a	n/a	n/a	n/a	n/a	n/a
3316857	RECOG_CONF	n/a	LTP073	ltpFR	16	8	n/a	FOOT	590	2	n/a	n/a	n/a	n/a	n/a	n/a
3318436	RECOG_LURE	n/a	LTP073	ltpFR	16	8	n/a	PRODUCER	1129	3	n/a	n/a	n/a	n/a	n/a	n/a
3319012	RECOG_RESP	n/a	LTP073	ltpFR	16	8	n/a	PRODUCER	1129	n/a	n/a	n/a	n/a	n/a	n/a	n/a
3319523	RECOG_CONF	n/a	LTP073	ltpFR	16	8	n/a	PRODUCER	1129	3	n/a	n/a	n/a	n/a	n/a	n/a
3321050	RECOG_TARGET	n/a	LTP073	ltpFR	16	8	0	ANTENNA	28	5	0	n/a	n/a	n/a	n/a	n/a
3321851	RECOG_RESP	n/a	LTP073	ltpFR	16	8	0	ANTENNA	28	n/a	0	n/a	n/a	n/a	n/a	n/a
3322251	RECOG_CONF	n/a	LTP073	ltpFR	16	8	0	ANTENNA	28	5	0	n/a	n/a	n/a	n/a	n/a
3323780	RECOG_TARGET	n/a	LTP073	ltpFR	16	8	1	VESSEL	1558	5	0	n/a	n/a	n/a	n/a	n/a
3324415	RECOG_RESP	n/a	LTP073	ltpFR	16	8	1	VESSEL	1558	n/a	0	n/a	n/a	n/a	n/a	n/a
3324815	RECOG_CONF	n/a	LTP073	ltpFR	16	8	1	VESSEL	1558	5	0	n/a	n/a	n/a	n/a	n/a
3326285	RECOG_LURE	n/a	LTP073	ltpFR	16	8	n/a	GUARDIAN	668	1	n/a	n/a	n/a	n/a	n/a	n/a
3328121	RECOG_RESP	n/a	LTP073	ltpFR	16	8	n/a	GUARDIAN	668	n/a	n/a	n/a	n/a	n/a	n/a	n/a
3328585	RECOG_CONF	n/a	LTP073	ltpFR	16	8	n/a	GUARDIAN	668	1	n/a	n/a	n/a	n/a	n/a	n/a
3330056	RECOG_TARGET	n/a	LTP073	ltpFR	16	8	1	CUPBOARD	425	5	0	n/a	n/a	n/a	n/a	n/a
3330755	RECOG_RESP	n/a	LTP073	ltpFR	16	8	1	CUPBOARD	425	n/a	0	n/a	n/a	n/a	n/a	n/a
3331150	RECOG_CONF	n/a	LTP073	ltpFR	16	8	1	CUPBOARD	425	5	0	n/a	n/a	n/a	n/a	n/a
3332586	RECOG_LURE	n/a	LTP073	ltpFR	16	8	n/a	VEHICLE	1553	1	n/a	n/a	n/a	n/a	n/a	n/a
3333644	RECOG_RESP	n/a	LTP073	ltpFR	16	8	n/a	VEHICLE	1553	n/a	n/a	n/a	n/a	n/a	n/a	n/a
3334297	RECOG_CONF	n/a	LTP073	ltpFR	16	8	n/a	VEHICLE	1553	1	n/a	n/a	n/a	n/a	n/a	n/a
3335725	RECOG_LURE	n/a	LTP073	ltpFR	16	8	n/a	BARREL	91	2	n/a	n/a	n/a	n/a	n/a	n/a
3336622	RECOG_RESP	n/a	LTP073	ltpFR	16	8	n/a	BARREL	91	n/a	n/a	n/a	n/a	n/a	n/a	n/a
3337201	RECOG_CONF	n/a	LTP073	ltpFR	16	8	n/a	BARREL	91	2	n/a	n/a	n/a	n/a	n/a	n/a
3338746	RECOG_TARGET	n/a	LTP073	ltpFR	16	8	1	HAWK	692	5	1	n/a	n/a	n/a	n/a	n/a
3339426	RECOG_RESP	n/a	LTP073	ltpFR	16	8	1	HAWK	692	n/a	1	n/a	n/a	n/a	n/a	n/a
3339821	RECOG_CONF	n/a	LTP073	ltpFR	16	8	1	HAWK	692	5	1	n/a	n/a	n/a	n/a	n/a
3341334	RECOG_TARGET	n/a	LTP073	ltpFR	16	8	1	PANTHER	1009	5	1	n/a	n/a	n/a	n/a	n/a
3342010	RECOG_RESP	n/a	LTP073	ltpFR	16	8	1	PANTHER	1009	n/a	1	n/a	n/a	n/a	n/a	n/a
3342405	RECOG_CONF	n/a	LTP073	ltpFR	16	8	1	PANTHER	1009	5	1	n/a	n/a	n/a	n/a	n/a
3347427	REC_START	n/a	LTP073	ltpFR	16	9	n/a	n/a	n/a	n/a	n/a	n/a	n/a	n/a	n/a	n/a
3347461	RECOG_LURE	n/a	LTP073	ltpFR	16	9	n/a	MAYONNAISE	880	5	n/a	n/a	n/a	n/a	n/a	n/a
3348390	RECOG_RESP	n/a	LTP073	ltpFR	16	9	n/a	MAYONNAISE	880	n/a	n/a	n/a	n/a	n/a	n/a	n/a
3348808	RECOG_CONF	n/a	LTP073	ltpFR	16	9	n/a	MAYONNAISE	880	5	n/a	n/a	n/a	n/a	n/a	n/a
3350216	RECOG_TARGET	n/a	LTP073	ltpFR	16	9	1	DOG	480	5	1	n/a	n/a	n/a	n/a	n/a
3350829	RECOG_RESP	n/a	LTP073	ltpFR	16	9	1	DOG	480	n/a	1	n/a	n/a	n/a	n/a	n/a
3351275	RECOG_CONF	n/a	LTP073	ltpFR	16	9	1	DOG	480	5	1	n/a	n/a	n/a	n/a	n/a
3352672	RECOG_TARGET	n/a	LTP073	ltpFR	16	9	0	FELLOW	558	5	1	n/a	n/a	n/a	n/a	n/a
3353239	RECOG_RESP	n/a	LTP073	ltpFR	16	9	0	FELLOW	558	n/a	1	n/a	n/a	n/a	n/a	n/a
3353634	RECOG_CONF	n/a	LTP073	ltpFR	16	9	0	FELLOW	558	5	1	n/a	n/a	n/a	n/a	n/a
3355185	RECOG_TARGET	n/a	LTP073	ltpFR	16	9	1	DIRECTOR	471	5	1	n/a	n/a	n/a	n/a	n/a
3355698	RECOG_RESP	n/a	LTP073	ltpFR	16	9	1	DIRECTOR	471	n/a	1	n/a	n/a	n/a	n/a	n/a
3356282	RECOG_CONF	n/a	LTP073	ltpFR	16	9	1	DIRECTOR	471	5	1	n/a	n/a	n/a	n/a	n/a
3357725	RECOG_TARGET	n/a	LTP073	ltpFR	16	9	-1	TURNIP	1521	5	-1	n/a	n/a	n/a	n/a	n/a
3358277	RECOG_RESP	n/a	LTP073	ltpFR	16	9	-1	TURNIP	1521	n/a	-1	n/a	n/a	n/a	n/a	n/a
3358672	RECOG_CONF	n/a	LTP073	ltpFR	16	9	-1	TURNIP	1521	5	-1	n/a	n/a	n/a	n/a	n/a
3360129	RECOG_TARGET	n/a	LTP073	ltpFR	16	9	1	TAG	1429	5	0	n/a	n/a	n/a	n/a	n/a
3360801	RECOG_RESP	n/a	LTP073	ltpFR	16	9	1	TAG	1429	n/a	0	n/a	n/a	n/a	n/a	n/a
3361173	RECOG_CONF	n/a	LTP073	ltpFR	16	9	1	TAG	1429	5	0	n/a	n/a	n/a	n/a	n/a
3362626	RECOG_TARGET	n/a	LTP073	ltpFR	16	9	-1	BOULEVARD	156	5	-1	n/a	n/a	n/a	n/a	n/a
3363321	RECOG_RESP	n/a	LTP073	ltpFR	16	9	-1	BOULEVARD	156	n/a	-1	n/a	n/a	n/a	n/a	n/a
3363651	RECOG_CONF	n/a	LTP073	ltpFR	16	9	-1	BOULEVARD	156	5	-1	n/a	n/a	n/a	n/a	n/a
3365173	RECOG_TARGET	n/a	LTP073	ltpFR	16	9	-1	LION	827	4	-1	n/a	n/a	n/a	n/a	n/a
3365900	RECOG_RESP	n/a	LTP073	ltpFR	16	9	-1	LION	827	n/a	-1	n/a	n/a	n/a	n/a	n/a
3366459	RECOG_CONF	n/a	LTP073	ltpFR	16	9	-1	LION	827	4	-1	n/a	n/a	n/a	n/a	n/a
