mstime	trial_type	stim_file	subject	experiment	session	trial	task	item_name	item_num	recog_resp	recog_conf	resp	color_r	color_g	color_b	case	font
0	SESS_START	n/a	LTP333	ltpFR	1	n/a	n/a	n/a	n/a	0	n/a	n/a	n/a	n/a	n/a	n/a	n/a
73980	WORD	wordpools/wasnorm_wordpool_less_exclusions.txt	LTP333	ltpFR	1	1	0	SHOWER	1296	n/a	3	1	0.422607421875	0.5869140625	0	upper	zerothre.ttf
77862	WORD	wordpools/wasnorm_wordpool_less_exclusions.txt	LTP333	ltpFR	1	1	0	MOAT	903	0	n/a	1	0.422607421875	0.5869140625	0	upper	zerothre.ttf
81926	WORD	wordpools/wasnorm_wordpool_less_exclusions.txt	LTP333	ltpFR	1	1	0	SCRIBBLE	1256	n/a	n/a	0	0.422607421875	0.5869140625	0	upper	zerothre.ttf
86091	WORD	wordpools/wasnorm_wordpool_less_exclusions.txt	LTP333	ltpFR	1	1	0	MINK	897	n/a	n/a	0	0.422607421875	0.5869140625	0	upper	zerothre.ttf
90022	WORD	wordpools/wasnorm_wordpool_less_exclusions.txt	LTP333	ltpFR	1	1	1	CUCUMBER	421	n/a	n/a	1	0.57763671875	0.412841796875	1	lower	amplitud.ttf
94137	WORD	wordpools/wasnorm_wordpool_less_exclusions.txt	LTP333	ltpFR	1	1	1	PUB	1135	n/a	n/a	0	0.57763671875	0.412841796875	1	lower	amplitud.ttf
98318	WORD	wordpools/wasnorm_wordpool_less_exclusions.txt	LTP333	ltpFR	1	1	1	BEER	114	n/a	n/a	0	0.57763671875	0.412841796875	1	lower	amplitud.ttf
102366	WORD	wordpools/wasnorm_wordpool_less_exclusions.txt	LTP333	ltpFR	1	1	0	PIGMENT	1066	n/a	n/a	n/a	0.422607421875	0.5869140625	0	upper	zerothre.ttf
105431	SLOW_MSG	n/a	LTP333	ltpFR	1	1	n/a	n/a	n/a	n/a	n/a	n/a	n/a	n/a	n/a	n/a	n/a
107997	WORD	wordpools/wasnorm_wordpool_less_exclusions.txt	LTP333	ltpFR	1	1	0	SNOB	1335	n/a	n/a	1	0.422607421875	0.5869140625	0	upper	zerothre.ttf
111978	WORD	wordpools/wasnorm_wordpool_less_exclusions.txt	LTP333	ltpFR	1	1	0	DILL	465	n/a	n/a	0	0.422607421875	0.5869140625	0	upper	zerothre.ttf
116126	WORD	wordpools/wasnorm_wordpool_less_exclusions.txt	LTP333	ltpFR	1	1	0	VEST	1559	n/a	n/a	0	0.422607421875	0.5869140625	0	upper	zerothre.ttf
120041	WORD	wordpools/wasnorm_wordpool_less_exclusions.txt	LTP333	ltpFR	1	1	1	HOUND	724	n/a	n/a	1	0.57763671875	0.412841796875	1	lower	amplitud.ttf
124272	WORD	wordpools/wasnorm_wordpool_less_exclusions.txt	LTP333	ltpFR	1	1	1	MAGICIAN	854	n/a	n/a	1	0.57763671875	0.412841796875	1	lower	amplitud.ttf
128287	WORD	wordpools/wasnorm_wordpool_less_exclusions.txt	LTP333	ltpFR	1	1	1	GARDEN	623	n/a	n/a	1	0.57763671875	0.412841796875	1	lower	amplitud.ttf
132268	WORD	wordpools/wasnorm_wordpool_less_exclusions.txt	LTP333	ltpFR	1	1	1	LOBSTER	837	n/a	n/a	1	0.57763671875	0.412841796875	1	lower	amplitud.ttf
136399	WORD	wordpools/wasnorm_wordpool_less_exclusions.txt	LTP333	ltpFR	1	1	1	CORAL	378	n/a	n/a	1	0.57763671875	0.412841796875	1	lower	amplitud.ttf
142496	REC_START	n/a	LTP333	ltpFR	1	1	n/a	n/a	n/a	n/a	n/a	n/a	n/a	n/a	n/a	n/a	n/a
144330	REC_WORD	wordpools/wasnorm_wordpool_less_exclusions.txt	LTP333	ltpFR	1	1	1	HOUND	724	n/a	n/a	1	n/a	n/a	n/a	n/a	n/a
145549	REC_WORD	wordpools/wasnorm_wordpool_less_exclusions.txt	LTP333	ltpFR	1	1	1	LOBSTER	837	n/a	n/a	1	n/a	n/a	n/a	n/a	n/a
147341	REC_WORD	wordpools/wasnorm_wordpool_less_exclusions.txt	LTP333	ltpFR	1	1	1	CORAL	378	n/a	n/a	1	n/a	n/a	n/a	n/a	n/a
148616	REC_WORD	wordpools/wasnorm_wordpool_less_exclusions.txt	LTP333	ltpFR	1	1	0	SNOB	1335	n/a	n/a	1	n/a	n/a	n/a	n/a	n/a
150499	REC_WORD	wordpools/wasnorm_wordpool_less_exclusions.txt	LTP333	ltpFR	1	1	1	MAGICIAN	854	n/a	n/a	1	n/a	n/a	n/a	n/a	n/a
152363	REC_WORD	wordpools/wasnorm_wordpool_less_exclusions.txt	LTP333	ltpFR	1	1	0	DILL	465	n/a	n/a	0	n/a	n/a	n/a	n/a	n/a
153719	REC_WORD	wordpools/wasnorm_wordpool_less_exclusions.txt	LTP333	ltpFR	1	1	1	CUCUMBER	421	n/a	n/a	1	n/a	n/a	n/a	n/a	n/a
162489	REC_WORD	wordpools/wasnorm_wordpool_less_exclusions.txt	LTP333	ltpFR	1	1	0	VEST	1559	n/a	n/a	0	n/a	n/a	n/a	n/a	n/a
177026	REC_WORD	wordpools/wasnorm_wordpool_less_exclusions.txt	LTP333	ltpFR	1	1	1	BEER	114	n/a	n/a	0	n/a	n/a	n/a	n/a	n/a
227304	WORD	wordpools/wasnorm_wordpool_less_exclusions.txt	LTP333	ltpFR	1	2	1	PATH	1023	n/a	n/a	0	0.57763671875	0.412841796875	1	lower	amplitud.ttf
231352	WORD	wordpools/wasnorm_wordpool_less_exclusions.txt	LTP333	ltpFR	1	2	1	MOUTH	926	n/a	n/a	0	0.57763671875	0.412841796875	1	lower	amplitud.ttf
235383	WORD	wordpools/wasnorm_wordpool_less_exclusions.txt	LTP333	ltpFR	1	2	1	WAGON	1578	n/a	n/a	0	0.57763671875	0.412841796875	1	lower	amplitud.ttf
239580	WORD	wordpools/wasnorm_wordpool_less_exclusions.txt	LTP333	ltpFR	1	2	1	WHISTLE	1606	n/a	n/a	0	0.57763671875	0.412841796875	1	lower	amplitud.ttf
243545	WORD	wordpools/wasnorm_wordpool_less_exclusions.txt	LTP333	ltpFR	1	2	0	KIDNEY	776	n/a	n/a	0	0.422607421875	0.5869140625	0	upper	zerothre.ttf
247427	WORD	wordpools/wasnorm_wordpool_less_exclusions.txt	LTP333	ltpFR	1	2	0	SALIVA	1226	n/a	n/a	0	0.422607421875	0.5869140625	0	upper	zerothre.ttf
251541	WORD	wordpools/wasnorm_wordpool_less_exclusions.txt	LTP333	ltpFR	1	2	1	NICKEL	950	n/a	n/a	0	0.57763671875	0.412841796875	1	lower	amplitud.ttf
255756	WORD	wordpools/wasnorm_wordpool_less_exclusions.txt	LTP333	ltpFR	1	2	1	DONOR	485	n/a	n/a	1	0.57763671875	0.412841796875	1	lower	amplitud.ttf
259954	WORD	wordpools/wasnorm_wordpool_less_exclusions.txt	LTP333	ltpFR	1	2	0	FELLOW	558	n/a	n/a	1	0.422607421875	0.5869140625	0	upper	zerothre.ttf
263952	WORD	wordpools/wasnorm_wordpool_less_exclusions.txt	LTP333	ltpFR	1	2	0	FRIEND	606	n/a	n/a	1	0.422607421875	0.5869140625	0	upper	zerothre.ttf
267950	WORD	wordpools/wasnorm_wordpool_less_exclusions.txt	LTP333	ltpFR	1	2	0	MATTRESS	879	n/a	n/a	n/a	0.422607421875	0.5869140625	0	upper	zerothre.ttf
271016	SLOW_MSG	n/a	LTP333	ltpFR	1	2	n/a	n/a	n/a	n/a	n/a	n/a	n/a	n/a	n/a	n/a	n/a
273448	WORD	wordpools/wasnorm_wordpool_less_exclusions.txt	LTP333	ltpFR	1	2	0	HIKER	708	n/a	n/a	1	0.422607421875	0.5869140625	0	upper	zerothre.ttf
277429	WORD	wordpools/wasnorm_wordpool_less_exclusions.txt	LTP333	ltpFR	1	2	0	ROOF	1205	n/a	n/a	1	0.422607421875	0.5869140625	0	upper	zerothre.ttf
281609	WORD	wordpools/wasnorm_wordpool_less_exclusions.txt	LTP333	ltpFR	1	2	0	ATTIC	56	n/a	n/a	1	0.422607421875	0.5869140625	0	upper	zerothre.ttf
285541	WORD	wordpools/wasnorm_wordpool_less_exclusions.txt	LTP333	ltpFR	1	2	1	BLUEPRINT	142	n/a	n/a	0	0.57763671875	0.412841796875	1	lower	amplitud.ttf
289522	WORD	wordpools/wasnorm_wordpool_less_exclusions.txt	LTP333	ltpFR	1	2	1	DESSERT	453	n/a	n/a	0	0.57763671875	0.412841796875	1	lower	amplitud.ttf
295536	REC_START	n/a	LTP333	ltpFR	1	2	n/a	n/a	n/a	n/a	n/a	n/a	n/a	n/a	n/a	n/a	n/a
297457	REC_WORD	wordpools/wasnorm_wordpool_less_exclusions.txt	LTP333	ltpFR	1	2	1	DESSERT	453	n/a	n/a	0	n/a	n/a	n/a	n/a	n/a
299154	REC_WORD	wordpools/wasnorm_wordpool_less_exclusions.txt	LTP333	ltpFR	1	2	0	MATTRESS	879	n/a	n/a	n/a	n/a	n/a	n/a	n/a	n/a
301279	REC_WORD	wordpools/wasnorm_wordpool_less_exclusions.txt	LTP333	ltpFR	1	2	0	ATTIC	56	n/a	n/a	1	n/a	n/a	n/a	n/a	n/a
306279	REC_WORD	wordpools/wasnorm_wordpool_less_exclusions.txt	LTP333	ltpFR	1	2	1	HOUND	724	n/a	n/a	1	n/a	n/a	n/a	n/a	n/a
311803	REC_WORD	wordpools/wasnorm_wordpool_less_exclusions.txt	LTP333	ltpFR	1	2	1	PATH	1023	n/a	n/a	0	n/a	n/a	n/a	n/a	n/a
327660	REC_WORD	wordpools/wasnorm_wordpool_less_exclusions.txt	LTP333	ltpFR	1	2	0	FELLOW	558	n/a	n/a	1	n/a	n/a	n/a	n/a	n/a
339557	REC_WORD	wordpools/wasnorm_wordpool_less_exclusions.txt	LTP333	ltpFR	1	2	n/a	PERSON	1052	n/a	n/a	n/a	n/a	n/a	n/a	n/a	n/a
343870	REC_WORD	wordpools/wasnorm_wordpool_less_exclusions.txt	LTP333	ltpFR	1	2	1	MOUTH	926	n/a	n/a	0	n/a	n/a	n/a	n/a	n/a
354043	REC_WORD	wordpools/wasnorm_wordpool_less_exclusions.txt	LTP333	ltpFR	1	2	1	DESSERT	453	n/a	n/a	0	n/a	n/a	n/a	n/a	n/a
383243	WORD	wordpools/wasnorm_wordpool_less_exclusions.txt	LTP333	ltpFR	1	3	1	COOKBOOK	373	n/a	n/a	0	0.57763671875	0.412841796875	1	lower	amplitud.ttf
387274	WORD	wordpools/wasnorm_wordpool_less_exclusions.txt	LTP333	ltpFR	1	3	1	ANCHOR	21	n/a	n/a	0	0.57763671875	0.412841796875	1	lower	amplitud.ttf
391222	WORD	wordpools/wasnorm_wordpool_less_exclusions.txt	LTP333	ltpFR	1	3	1	THIGH	1457	n/a	n/a	1	0.57763671875	0.412841796875	1	lower	amplitud.ttf
395087	WORD	wordpools/wasnorm_wordpool_less_exclusions.txt	LTP333	ltpFR	1	3	1	CHAIRPERSON	275	n/a	n/a	1	0.57763671875	0.412841796875	1	lower	amplitud.ttf
399202	WORD	wordpools/wasnorm_wordpool_less_exclusions.txt	LTP333	ltpFR	1	3	1	PLUMBER	1091	n/a	n/a	1	0.57763671875	0.412841796875	1	lower	amplitud.ttf
403300	WORD	wordpools/wasnorm_wordpool_less_exclusions.txt	LTP333	ltpFR	1	3	1	TRUCK	1512	n/a	n/a	0	0.57763671875	0.412841796875	1	lower	amplitud.ttf
407431	WORD	wordpools/wasnorm_wordpool_less_exclusions.txt	LTP333	ltpFR	1	3	1	LIMOUSINE	824	n/a	n/a	0	0.57763671875	0.412841796875	1	lower	amplitud.ttf
411362	WORD	wordpools/wasnorm_wordpool_less_exclusions.txt	LTP333	ltpFR	1	3	1	SHARK	1275	n/a	n/a	1	0.57763671875	0.412841796875	1	lower	amplitud.ttf
415210	WORD	wordpools/wasnorm_wordpool_less_exclusions.txt	LTP333	ltpFR	1	3	1	ELEVATOR	524	n/a	n/a	0	0.57763671875	0.412841796875	1	lower	amplitud.ttf
419209	WORD	wordpools/wasnorm_wordpool_less_exclusions.txt	LTP333	ltpFR	1	3	1	EWE	542	n/a	n/a	1	0.57763671875	0.412841796875	1	lower	amplitud.ttf
423290	WORD	wordpools/wasnorm_wordpool_less_exclusions.txt	LTP333	ltpFR	1	3	1	HERD	705	n/a	n/a	1	0.57763671875	0.412841796875	1	lower	amplitud.ttf
427404	WORD	wordpools/wasnorm_wordpool_less_exclusions.txt	LTP333	ltpFR	1	3	1	BARRACUDA	90	n/a	n/a	1	0.57763671875	0.412841796875	1	lower	amplitud.ttf
431501	WORD	wordpools/wasnorm_wordpool_less_exclusions.txt	LTP333	ltpFR	1	3	1	SILVERWARE	1308	n/a	n/a	0	0.57763671875	0.412841796875	1	lower	amplitud.ttf
435384	WORD	wordpools/wasnorm_wordpool_less_exclusions.txt	LTP333	ltpFR	1	3	1	CORPORATION	382	n/a	n/a	0	0.57763671875	0.412841796875	1	lower	amplitud.ttf
439465	WORD	wordpools/wasnorm_wordpool_less_exclusions.txt	LTP333	ltpFR	1	3	1	COWBOY	395	n/a	n/a	1	0.57763671875	0.412841796875	1	lower	amplitud.ttf
443629	WORD	wordpools/wasnorm_wordpool_less_exclusions.txt	LTP333	ltpFR	1	3	1	RADISH	1158	n/a	n/a	1	0.57763671875	0.412841796875	1	lower	amplitud.ttf
449411	REC_START	n/a	LTP333	ltpFR	1	3	n/a	n/a	n/a	n/a	n/a	n/a	n/a	n/a	n/a	n/a	n/a
450950	REC_WORD	wordpools/wasnorm_wordpool_less_exclusions.txt	LTP333	ltpFR	1	3	1	COWBOY	395	n/a	n/a	1	n/a	n/a	n/a	n/a	n/a
452186	REC_WORD	wordpools/wasnorm_wordpool_less_exclusions.txt	LTP333	ltpFR	1	3	1	RADISH	1158	n/a	n/a	1	n/a	n/a	n/a	n/a	n/a
453428	REC_WORD	wordpools/wasnorm_wordpool_less_exclusions.txt	LTP333	ltpFR	1	3	1	CHAIRPERSON	275	n/a	n/a	1	n/a	n/a	n/a	n/a	n/a
455238	REC_WORD	wordpools/wasnorm_wordpool_less_exclusions.txt	LTP333	ltpFR	1	3	1	EWE	542	n/a	n/a	1	n/a	n/a	n/a	n/a	n/a
456421	REC_WORD	wordpools/wasnorm_wordpool_less_exclusions.txt	LTP333	ltpFR	1	3	1	HERD	705	n/a	n/a	1	n/a	n/a	n/a	n/a	n/a
458101	REC_WORD	wordpools/wasnorm_wordpool_less_exclusions.txt	LTP333	ltpFR	1	3	1	BARRACUDA	90	n/a	n/a	1	n/a	n/a	n/a	n/a	n/a
462873	REC_WORD	wordpools/wasnorm_wordpool_less_exclusions.txt	LTP333	ltpFR	1	3	1	SHARK	1275	n/a	n/a	1	n/a	n/a	n/a	n/a	n/a
469428	REC_WORD	wordpools/wasnorm_wordpool_less_exclusions.txt	LTP333	ltpFR	1	3	1	CORPORATION	382	n/a	n/a	0	n/a	n/a	n/a	n/a	n/a
472444	REC_WORD	wordpools/wasnorm_wordpool_less_exclusions.txt	LTP333	ltpFR	1	3	1	LIMOUSINE	824	n/a	n/a	0	n/a	n/a	n/a	n/a	n/a
481710	REC_WORD	wordpools/wasnorm_wordpool_less_exclusions.txt	LTP333	ltpFR	1	3	1	PATH	1023	n/a	n/a	0	n/a	n/a	n/a	n/a	n/a
540815	WORD	wordpools/wasnorm_wordpool_less_exclusions.txt	LTP333	ltpFR	1	4	0	CAFETERIA	217	n/a	n/a	1	0.422607421875	0.5869140625	0	upper	zerothre.ttf
544763	WORD	wordpools/wasnorm_wordpool_less_exclusions.txt	LTP333	ltpFR	1	4	0	BARLEY	88	n/a	n/a	0	0.422607421875	0.5869140625	0	upper	zerothre.ttf
548861	WORD	wordpools/wasnorm_wordpool_less_exclusions.txt	LTP333	ltpFR	1	4	0	LEOPARD	812	n/a	n/a	1	0.422607421875	0.5869140625	0	upper	zerothre.ttf
553059	WORD	wordpools/wasnorm_wordpool_less_exclusions.txt	LTP333	ltpFR	1	4	0	DOUGH	489	n/a	n/a	0	0.422607421875	0.5869140625	0	upper	zerothre.ttf
557090	WORD	wordpools/wasnorm_wordpool_less_exclusions.txt	LTP333	ltpFR	1	4	0	HOOD	714	n/a	n/a	0	0.422607421875	0.5869140625	0	upper	zerothre.ttf
561088	WORD	wordpools/wasnorm_wordpool_less_exclusions.txt	LTP333	ltpFR	1	4	0	AUTOMOBILE	62	n/a	n/a	1	0.422607421875	0.5869140625	0	upper	zerothre.ttf
565286	WORD	wordpools/wasnorm_wordpool_less_exclusions.txt	LTP333	ltpFR	1	4	1	CUB	419	n/a	n/a	1	0.57763671875	0.412841796875	1	lower	amplitud.ttf
569251	WORD	wordpools/wasnorm_wordpool_less_exclusions.txt	LTP333	ltpFR	1	4	1	PADDLE	1000	n/a	n/a	0	0.57763671875	0.412841796875	1	lower	amplitud.ttf
573199	WORD	wordpools/wasnorm_wordpool_less_exclusions.txt	LTP333	ltpFR	1	4	1	SAILOR	1223	n/a	n/a	1	0.57763671875	0.412841796875	1	lower	amplitud.ttf
577430	WORD	wordpools/wasnorm_wordpool_less_exclusions.txt	LTP333	ltpFR	1	4	1	PANTHER	1009	n/a	n/a	1	0.57763671875	0.412841796875	1	lower	amplitud.ttf
581527	WORD	wordpools/wasnorm_wordpool_less_exclusions.txt	LTP333	ltpFR	1	4	1	BASEBALL	93	n/a	n/a	0	0.57763671875	0.412841796875	1	lower	amplitud.ttf
585658	WORD	wordpools/wasnorm_wordpool_less_exclusions.txt	LTP333	ltpFR	1	4	1	CHEEK	287	n/a	n/a	0	0.57763671875	0.412841796875	1	lower	amplitud.ttf
589690	WORD	wordpools/wasnorm_wordpool_less_exclusions.txt	LTP333	ltpFR	1	4	0	WEB	1598	n/a	n/a	0	0.422607421875	0.5869140625	0	upper	zerothre.ttf
593621	WORD	wordpools/wasnorm_wordpool_less_exclusions.txt	LTP333	ltpFR	1	4	0	WILDERNESS	1610	n/a	n/a	1	0.422607421875	0.5869140625	0	upper	zerothre.ttf
597636	WORD	wordpools/wasnorm_wordpool_less_exclusions.txt	LTP333	ltpFR	1	4	1	RAM	1165	n/a	n/a	1	0.57763671875	0.412841796875	1	lower	amplitud.ttf
601868	WORD	wordpools/wasnorm_wordpool_less_exclusions.txt	LTP333	ltpFR	1	4	1	STREAM	1392	n/a	n/a	0	0.57763671875	0.412841796875	1	lower	amplitud.ttf
607849	REC_START	n/a	LTP333	ltpFR	1	4	n/a	n/a	n/a	n/a	n/a	n/a	n/a	n/a	n/a	n/a	n/a
609437	REC_WORD	wordpools/wasnorm_wordpool_less_exclusions.txt	LTP333	ltpFR	1	4	1	RAM	1165	n/a	n/a	1	n/a	n/a	n/a	n/a	n/a
610756	REC_WORD	wordpools/wasnorm_wordpool_less_exclusions.txt	LTP333	ltpFR	1	4	1	STREAM	1392	n/a	n/a	0	n/a	n/a	n/a	n/a	n/a
622071	REC_WORD	wordpools/wasnorm_wordpool_less_exclusions.txt	LTP333	ltpFR	1	4	1	CUB	419	n/a	n/a	1	n/a	n/a	n/a	n/a	n/a
623662	REC_WORD	wordpools/wasnorm_wordpool_less_exclusions.txt	LTP333	ltpFR	1	4	1	PANTHER	1009	n/a	n/a	1	n/a	n/a	n/a	n/a	n/a
638065	REC_WORD	wordpools/wasnorm_wordpool_less_exclusions.txt	LTP333	ltpFR	1	4	0	WILDERNESS	1610	n/a	n/a	1	n/a	n/a	n/a	n/a	n/a
639065	REC_WORD_VV	wordpools/wasnorm_wordpool_less_exclusions.txt	LTP333	ltpFR	1	4	n/a	<>	-1	n/a	n/a	n/a	n/a	n/a	n/a	n/a	n/a
640506	REC_WORD	wordpools/wasnorm_wordpool_less_exclusions.txt	LTP333	ltpFR	1	4	0	WEB	1598	n/a	n/a	0	n/a	n/a	n/a	n/a	n/a
647760	REC_WORD	wordpools/wasnorm_wordpool_less_exclusions.txt	LTP333	ltpFR	1	4	0	HOOD	714	n/a	n/a	0	n/a	n/a	n/a	n/a	n/a
649278	REC_WORD	wordpools/wasnorm_wordpool_less_exclusions.txt	LTP333	ltpFR	1	4	0	AUTOMOBILE	62	n/a	n/a	1	n/a	n/a	n/a	n/a	n/a
688441	WORD	wordpools/wasnorm_wordpool_less_exclusions.txt	LTP333	ltpFR	1	5	-1	CAKE	219	n/a	n/a	-1	1.0	1.0	1	upper	Verdana.ttf
692588	WORD	wordpools/wasnorm_wordpool_less_exclusions.txt	LTP333	ltpFR	1	5	-1	TOAST	1471	n/a	n/a	-1	1.0	1.0	1	upper	Verdana.ttf
696804	WORD	wordpools/wasnorm_wordpool_less_exclusions.txt	LTP333	ltpFR	1	5	-1	PUMPKIN	1142	n/a	n/a	-1	1.0	1.0	1	upper	Verdana.ttf
700969	WORD	wordpools/wasnorm_wordpool_less_exclusions.txt	LTP333	ltpFR	1	5	-1	RASPBERRY	1168	n/a	n/a	-1	1.0	1.0	1	upper	Verdana.ttf
705067	WORD	wordpools/wasnorm_wordpool_less_exclusions.txt	LTP333	ltpFR	1	5	-1	NICOTINE	951	n/a	n/a	-1	1.0	1.0	1	upper	Verdana.ttf
708948	WORD	wordpools/wasnorm_wordpool_less_exclusions.txt	LTP333	ltpFR	1	5	-1	SINK	1309	n/a	n/a	-1	1.0	1.0	1	upper	Verdana.ttf
712779	WORD	wordpools/wasnorm_wordpool_less_exclusions.txt	LTP333	ltpFR	1	5	-1	VACUUM	1543	n/a	n/a	-1	1.0	1.0	1	upper	Verdana.ttf
716711	WORD	wordpools/wasnorm_wordpool_less_exclusions.txt	LTP333	ltpFR	1	5	-1	MAMMAL	861	n/a	n/a	-1	1.0	1.0	1	upper	Verdana.ttf
720575	WORD	wordpools/wasnorm_wordpool_less_exclusions.txt	LTP333	ltpFR	1	5	-1	GIRAFFE	636	n/a	n/a	-1	1.0	1.0	1	upper	Verdana.ttf
724556	WORD	wordpools/wasnorm_wordpool_less_exclusions.txt	LTP333	ltpFR	1	5	-1	BUTTER	205	n/a	n/a	-1	1.0	1.0	1	upper	Verdana.ttf
728537	WORD	wordpools/wasnorm_wordpool_less_exclusions.txt	LTP333	ltpFR	1	5	-1	SPATULA	1348	n/a	n/a	-1	1.0	1.0	1	upper	Verdana.ttf
732769	WORD	wordpools/wasnorm_wordpool_less_exclusions.txt	LTP333	ltpFR	1	5	-1	CELERY	266	n/a	n/a	-1	1.0	1.0	1	upper	Verdana.ttf
736701	WORD	wordpools/wasnorm_wordpool_less_exclusions.txt	LTP333	ltpFR	1	5	-1	SPONGE	1355	n/a	n/a	-1	1.0	1.0	1	upper	Verdana.ttf
740699	WORD	wordpools/wasnorm_wordpool_less_exclusions.txt	LTP333	ltpFR	1	5	-1	MAJOR	859	n/a	n/a	-1	1.0	1.0	1	upper	Verdana.ttf
744679	WORD	wordpools/wasnorm_wordpool_less_exclusions.txt	LTP333	ltpFR	1	5	-1	BROCCOLI	176	n/a	n/a	-1	1.0	1.0	1	upper	Verdana.ttf
748878	WORD	wordpools/wasnorm_wordpool_less_exclusions.txt	LTP333	ltpFR	1	5	-1	TRASH	1497	n/a	n/a	-1	1.0	1.0	1	upper	Verdana.ttf
754692	REC_START	n/a	LTP333	ltpFR	1	5	n/a	n/a	n/a	n/a	n/a	n/a	n/a	n/a	n/a	n/a	n/a
757118	REC_WORD	wordpools/wasnorm_wordpool_less_exclusions.txt	LTP333	ltpFR	1	5	-1	RASPBERRY	1168	n/a	n/a	-1	n/a	n/a	n/a	n/a	n/a
758238	REC_WORD	wordpools/wasnorm_wordpool_less_exclusions.txt	LTP333	ltpFR	1	5	-1	SPONGE	1355	n/a	n/a	-1	n/a	n/a	n/a	n/a	n/a
760124	REC_WORD	wordpools/wasnorm_wordpool_less_exclusions.txt	LTP333	ltpFR	1	5	-1	BROCCOLI	176	n/a	n/a	-1	n/a	n/a	n/a	n/a	n/a
762026	REC_WORD	wordpools/wasnorm_wordpool_less_exclusions.txt	LTP333	ltpFR	1	5	-1	TRASH	1497	n/a	n/a	-1	n/a	n/a	n/a	n/a	n/a
768093	REC_WORD	wordpools/wasnorm_wordpool_less_exclusions.txt	LTP333	ltpFR	1	5	-1	CAKE	219	n/a	n/a	-1	n/a	n/a	n/a	n/a	n/a
774929	REC_WORD	wordpools/wasnorm_wordpool_less_exclusions.txt	LTP333	ltpFR	1	5	-1	NICOTINE	951	n/a	n/a	-1	n/a	n/a	n/a	n/a	n/a
788179	REC_WORD	wordpools/wasnorm_wordpool_less_exclusions.txt	LTP333	ltpFR	1	5	-1	MAJOR	859	n/a	n/a	-1	n/a	n/a	n/a	n/a	n/a
850543	WORD	wordpools/wasnorm_wordpool_less_exclusions.txt	LTP333	ltpFR	1	6	-1	DRILL	497	n/a	n/a	-1	1.0	1.0	1	upper	Verdana.ttf
854575	WORD	wordpools/wasnorm_wordpool_less_exclusions.txt	LTP333	ltpFR	1	6	-1	PORPOISE	1109	n/a	n/a	-1	1.0	1.0	1	upper	Verdana.ttf
858589	WORD	wordpools/wasnorm_wordpool_less_exclusions.txt	LTP333	ltpFR	1	6	-1	JEWEL	757	n/a	n/a	-1	1.0	1.0	1	upper	Verdana.ttf
862755	WORD	wordpools/wasnorm_wordpool_less_exclusions.txt	LTP333	ltpFR	1	6	-1	BASKETBALL	96	n/a	n/a	-1	1.0	1.0	1	upper	Verdana.ttf
866886	WORD	wordpools/wasnorm_wordpool_less_exclusions.txt	LTP333	ltpFR	1	6	-1	SPINE	1353	n/a	n/a	-1	1.0	1.0	1	upper	Verdana.ttf
870934	WORD	wordpools/wasnorm_wordpool_less_exclusions.txt	LTP333	ltpFR	1	6	-1	CARDINAL	244	n/a	n/a	-1	1.0	1.0	1	upper	Verdana.ttf
874932	WORD	wordpools/wasnorm_wordpool_less_exclusions.txt	LTP333	ltpFR	1	6	-1	MONASTERY	907	n/a	n/a	-1	1.0	1.0	1	upper	Verdana.ttf
879130	WORD	wordpools/wasnorm_wordpool_less_exclusions.txt	LTP333	ltpFR	1	6	-1	STUMP	1396	n/a	n/a	-1	1.0	1.0	1	upper	Verdana.ttf
883295	WORD	wordpools/wasnorm_wordpool_less_exclusions.txt	LTP333	ltpFR	1	6	-1	BACKBONE	66	n/a	n/a	-1	1.0	1.0	1	upper	Verdana.ttf
887409	WORD	wordpools/wasnorm_wordpool_less_exclusions.txt	LTP333	ltpFR	1	6	-1	TORCH	1484	n/a	n/a	-1	1.0	1.0	1	upper	Verdana.ttf
891357	WORD	wordpools/wasnorm_wordpool_less_exclusions.txt	LTP333	ltpFR	1	6	-1	TOWER	1490	n/a	n/a	-1	1.0	1.0	1	upper	Verdana.ttf
895422	WORD	wordpools/wasnorm_wordpool_less_exclusions.txt	LTP333	ltpFR	1	6	-1	MOON	914	n/a	n/a	-1	1.0	1.0	1	upper	Verdana.ttf
899569	WORD	wordpools/wasnorm_wordpool_less_exclusions.txt	LTP333	ltpFR	1	6	-1	HORIZON	717	n/a	n/a	-1	1.0	1.0	1	upper	Verdana.ttf
903534	WORD	wordpools/wasnorm_wordpool_less_exclusions.txt	LTP333	ltpFR	1	6	-1	MAPLE	866	n/a	n/a	-1	1.0	1.0	1	upper	Verdana.ttf
907682	WORD	wordpools/wasnorm_wordpool_less_exclusions.txt	LTP333	ltpFR	1	6	-1	ROOT	1210	n/a	n/a	-1	1.0	1.0	1	upper	Verdana.ttf
911847	WORD	wordpools/wasnorm_wordpool_less_exclusions.txt	LTP333	ltpFR	1	6	-1	BUSH	202	n/a	n/a	-1	1.0	1.0	1	upper	Verdana.ttf
917895	REC_START	n/a	LTP333	ltpFR	1	6	n/a	n/a	n/a	n/a	n/a	n/a	n/a	n/a	n/a	n/a	n/a
919961	REC_WORD	wordpools/wasnorm_wordpool_less_exclusions.txt	LTP333	ltpFR	1	6	-1	DRILL	497	n/a	n/a	-1	n/a	n/a	n/a	n/a	n/a
921188	REC_WORD	wordpools/wasnorm_wordpool_less_exclusions.txt	LTP333	ltpFR	1	6	-1	PORPOISE	1109	n/a	n/a	-1	n/a	n/a	n/a	n/a	n/a
922460	REC_WORD	wordpools/wasnorm_wordpool_less_exclusions.txt	LTP333	ltpFR	1	6	-1	JEWEL	757	n/a	n/a	-1	n/a	n/a	n/a	n/a	n/a
923836	REC_WORD	wordpools/wasnorm_wordpool_less_exclusions.txt	LTP333	ltpFR	1	6	-1	SPINE	1353	n/a	n/a	-1	n/a	n/a	n/a	n/a	n/a
925299	REC_WORD	wordpools/wasnorm_wordpool_less_exclusions.txt	LTP333	ltpFR	1	6	-1	BACKBONE	66	n/a	n/a	-1	n/a	n/a	n/a	n/a	n/a
926529	REC_WORD	wordpools/wasnorm_wordpool_less_exclusions.txt	LTP333	ltpFR	1	6	-1	STUMP	1396	n/a	n/a	-1	n/a	n/a	n/a	n/a	n/a
928363	REC_WORD	wordpools/wasnorm_wordpool_less_exclusions.txt	LTP333	ltpFR	1	6	-1	HORIZON	717	n/a	n/a	-1	n/a	n/a	n/a	n/a	n/a
929612	REC_WORD	wordpools/wasnorm_wordpool_less_exclusions.txt	LTP333	ltpFR	1	6	n/a	TREE	1502	n/a	n/a	n/a	n/a	n/a	n/a	n/a	n/a
931423	REC_WORD	wordpools/wasnorm_wordpool_less_exclusions.txt	LTP333	ltpFR	1	6	-1	ROOT	1210	n/a	n/a	-1	n/a	n/a	n/a	n/a	n/a
933308	REC_WORD	wordpools/wasnorm_wordpool_less_exclusions.txt	LTP333	ltpFR	1	6	-1	BUSH	202	n/a	n/a	-1	n/a	n/a	n/a	n/a	n/a
935393	REC_WORD	wordpools/wasnorm_wordpool_less_exclusions.txt	LTP333	ltpFR	1	6	-1	BASKETBALL	96	n/a	n/a	-1	n/a	n/a	n/a	n/a	n/a
937693	REC_WORD	wordpools/wasnorm_wordpool_less_exclusions.txt	LTP333	ltpFR	1	6	-1	MOON	914	n/a	n/a	-1	n/a	n/a	n/a	n/a	n/a
1002102	WORD	wordpools/wasnorm_wordpool_less_exclusions.txt	LTP333	ltpFR	1	7	1	PORCUPINE	1107	n/a	n/a	1	0.57763671875	0.412841796875	1	lower	amplitud.ttf
1006250	WORD	wordpools/wasnorm_wordpool_less_exclusions.txt	LTP333	ltpFR	1	7	1	BUTTERFLY	206	n/a	n/a	1	0.57763671875	0.412841796875	1	lower	amplitud.ttf
1010115	WORD	wordpools/wasnorm_wordpool_less_exclusions.txt	LTP333	ltpFR	1	7	1	DINNER	468	n/a	n/a	0	0.57763671875	0.412841796875	1	lower	amplitud.ttf
1014130	WORD	wordpools/wasnorm_wordpool_less_exclusions.txt	LTP333	ltpFR	1	7	1	PUCK	1138	n/a	n/a	0	0.57763671875	0.412841796875	1	lower	amplitud.ttf
1018194	WORD	wordpools/wasnorm_wordpool_less_exclusions.txt	LTP333	ltpFR	1	7	1	MARKET	871	n/a	n/a	0	0.57763671875	0.412841796875	1	lower	amplitud.ttf
1022326	WORD	wordpools/wasnorm_wordpool_less_exclusions.txt	LTP333	ltpFR	1	7	1	CREW	406	n/a	n/a	1	0.57763671875	0.412841796875	1	lower	amplitud.ttf
1026407	WORD	wordpools/wasnorm_wordpool_less_exclusions.txt	LTP333	ltpFR	1	7	0	VIKING	1565	n/a	n/a	n/a	0.422607421875	0.5869140625	0	upper	zerothre.ttf
1029438	SLOW_MSG	n/a	LTP333	ltpFR	1	7	n/a	n/a	n/a	n/a	n/a	n/a	n/a	n/a	n/a	n/a	n/a
1031871	WORD	wordpools/wasnorm_wordpool_less_exclusions.txt	LTP333	ltpFR	1	7	0	MALL	860	n/a	n/a	1	0.422607421875	0.5869140625	0	upper	zerothre.ttf
1035886	WORD	wordpools/wasnorm_wordpool_less_exclusions.txt	LTP333	ltpFR	1	7	0	DWARF	510	n/a	n/a	0	0.422607421875	0.5869140625	0	upper	zerothre.ttf
1040033	WORD	wordpools/wasnorm_wordpool_less_exclusions.txt	LTP333	ltpFR	1	7	1	WAITER	1580	n/a	n/a	1	0.57763671875	0.412841796875	1	lower	amplitud.ttf
1044248	WORD	wordpools/wasnorm_wordpool_less_exclusions.txt	LTP333	ltpFR	1	7	1	DUNE	506	n/a	n/a	0	0.57763671875	0.412841796875	1	lower	amplitud.ttf
1048229	WORD	wordpools/wasnorm_wordpool_less_exclusions.txt	LTP333	ltpFR	1	7	0	OCEAN	970	n/a	n/a	1	0.422607421875	0.5869140625	0	upper	zerothre.ttf
1052128	WORD	wordpools/wasnorm_wordpool_less_exclusions.txt	LTP333	ltpFR	1	7	0	CAMERA	224	n/a	n/a	0	0.422607421875	0.5869140625	0	upper	zerothre.ttf
1056109	WORD	wordpools/wasnorm_wordpool_less_exclusions.txt	LTP333	ltpFR	1	7	0	UMBRELLA	1534	n/a	n/a	0	0.422607421875	0.5869140625	0	upper	zerothre.ttf
1060074	WORD	wordpools/wasnorm_wordpool_less_exclusions.txt	LTP333	ltpFR	1	7	0	WATER	1594	n/a	n/a	1	0.422607421875	0.5869140625	0	upper	zerothre.ttf
1064038	WORD	wordpools/wasnorm_wordpool_less_exclusions.txt	LTP333	ltpFR	1	7	0	COD	340	n/a	n/a	1	0.422607421875	0.5869140625	0	upper	zerothre.ttf
1070119	REC_START	n/a	LTP333	ltpFR	1	7	n/a	n/a	n/a	n/a	n/a	n/a	n/a	n/a	n/a	n/a	n/a
1072311	REC_WORD	wordpools/wasnorm_wordpool_less_exclusions.txt	LTP333	ltpFR	1	7	1	PORCUPINE	1107	n/a	n/a	1	n/a	n/a	n/a	n/a	n/a
1073672	REC_WORD	wordpools/wasnorm_wordpool_less_exclusions.txt	LTP333	ltpFR	1	7	1	BUTTERFLY	206	n/a	n/a	1	n/a	n/a	n/a	n/a	n/a
1075527	REC_WORD	wordpools/wasnorm_wordpool_less_exclusions.txt	LTP333	ltpFR	1	7	1	DINNER	468	n/a	n/a	0	n/a	n/a	n/a	n/a	n/a
1076612	REC_WORD	wordpools/wasnorm_wordpool_less_exclusions.txt	LTP333	ltpFR	1	7	1	PUCK	1138	n/a	n/a	0	n/a	n/a	n/a	n/a	n/a
1078185	REC_WORD	wordpools/wasnorm_wordpool_less_exclusions.txt	LTP333	ltpFR	1	7	1	MARKET	871	n/a	n/a	0	n/a	n/a	n/a	n/a	n/a
1079767	REC_WORD	wordpools/wasnorm_wordpool_less_exclusions.txt	LTP333	ltpFR	1	7	1	CREW	406	n/a	n/a	1	n/a	n/a	n/a	n/a	n/a
1080980	REC_WORD	wordpools/wasnorm_wordpool_less_exclusions.txt	LTP333	ltpFR	1	7	0	DWARF	510	n/a	n/a	0	n/a	n/a	n/a	n/a	n/a
1082489	REC_WORD	wordpools/wasnorm_wordpool_less_exclusions.txt	LTP333	ltpFR	1	7	0	VIKING	1565	n/a	n/a	n/a	n/a	n/a	n/a	n/a	n/a
1083996	REC_WORD	wordpools/wasnorm_wordpool_less_exclusions.txt	LTP333	ltpFR	1	7	1	DUNE	506	n/a	n/a	0	n/a	n/a	n/a	n/a	n/a
1085378	REC_WORD	wordpools/wasnorm_wordpool_less_exclusions.txt	LTP333	ltpFR	1	7	0	OCEAN	970	n/a	n/a	1	n/a	n/a	n/a	n/a	n/a
1086902	REC_WORD	wordpools/wasnorm_wordpool_less_exclusions.txt	LTP333	ltpFR	1	7	0	WATER	1594	n/a	n/a	1	n/a	n/a	n/a	n/a	n/a
1088541	REC_WORD	wordpools/wasnorm_wordpool_less_exclusions.txt	LTP333	ltpFR	1	7	0	COD	340	n/a	n/a	1	n/a	n/a	n/a	n/a	n/a
1093009	REC_WORD	wordpools/wasnorm_wordpool_less_exclusions.txt	LTP333	ltpFR	1	7	0	MALL	860	n/a	n/a	1	n/a	n/a	n/a	n/a	n/a
1160523	WORD	wordpools/wasnorm_wordpool_less_exclusions.txt	LTP333	ltpFR	1	8	0	SUBMARINE	1398	n/a	n/a	1	0.422607421875	0.5869140625	0	upper	zerothre.ttf
1164388	WORD	wordpools/wasnorm_wordpool_less_exclusions.txt	LTP333	ltpFR	1	8	0	BUS	201	n/a	n/a	1	0.422607421875	0.5869140625	0	upper	zerothre.ttf
1168336	WORD	wordpools/wasnorm_wordpool_less_exclusions.txt	LTP333	ltpFR	1	8	0	RUST	1219	n/a	n/a	0	0.422607421875	0.5869140625	0	upper	zerothre.ttf
1172517	WORD	wordpools/wasnorm_wordpool_less_exclusions.txt	LTP333	ltpFR	1	8	0	MARKER	870	n/a	n/a	0	0.422607421875	0.5869140625	0	upper	zerothre.ttf
1176449	WORD	wordpools/wasnorm_wordpool_less_exclusions.txt	LTP333	ltpFR	1	8	0	PAGE	1001	n/a	n/a	0	0.422607421875	0.5869140625	0	upper	zerothre.ttf
1180529	WORD	wordpools/wasnorm_wordpool_less_exclusions.txt	LTP333	ltpFR	1	8	0	SHEET	1279	n/a	n/a	0	0.422607421875	0.5869140625	0	upper	zerothre.ttf
1184511	WORD	wordpools/wasnorm_wordpool_less_exclusions.txt	LTP333	ltpFR	1	8	0	NOTEBOOK	959	n/a	n/a	0	0.422607421875	0.5869140625	0	upper	zerothre.ttf
1188509	WORD	wordpools/wasnorm_wordpool_less_exclusions.txt	LTP333	ltpFR	1	8	0	SPHINX	1349	n/a	n/a	1	0.422607421875	0.5869140625	0	upper	zerothre.ttf
1192490	WORD	wordpools/wasnorm_wordpool_less_exclusions.txt	LTP333	ltpFR	1	8	0	DRAGON	492	n/a	n/a	1	0.422607421875	0.5869140625	0	upper	zerothre.ttf
1196538	WORD	wordpools/wasnorm_wordpool_less_exclusions.txt	LTP333	ltpFR	1	8	0	CALF	222	n/a	n/a	1	0.422607421875	0.5869140625	0	upper	zerothre.ttf
1200519	WORD	wordpools/wasnorm_wordpool_less_exclusions.txt	LTP333	ltpFR	1	8	0	BROOK	177	n/a	n/a	1	0.422607421875	0.5869140625	0	upper	zerothre.ttf
1204402	WORD	wordpools/wasnorm_wordpool_less_exclusions.txt	LTP333	ltpFR	1	8	0	BIBLE	124	n/a	n/a	0	0.422607421875	0.5869140625	0	upper	zerothre.ttf
1208515	WORD	wordpools/wasnorm_wordpool_less_exclusions.txt	LTP333	ltpFR	1	8	0	BACON	67	n/a	n/a	0	0.422607421875	0.5869140625	0	upper	zerothre.ttf
1212381	WORD	wordpools/wasnorm_wordpool_less_exclusions.txt	LTP333	ltpFR	1	8	0	SKILLET	1317	n/a	n/a	0	0.422607421875	0.5869140625	0	upper	zerothre.ttf
1216578	WORD	wordpools/wasnorm_wordpool_less_exclusions.txt	LTP333	ltpFR	1	8	0	TUBE	1516	n/a	n/a	0	0.422607421875	0.5869140625	0	upper	zerothre.ttf
1220526	WORD	wordpools/wasnorm_wordpool_less_exclusions.txt	LTP333	ltpFR	1	8	0	CRAYON	401	n/a	n/a	0	0.422607421875	0.5869140625	0	upper	zerothre.ttf
1226242	REC_START	n/a	LTP333	ltpFR	1	8	n/a	n/a	n/a	n/a	n/a	n/a	n/a	n/a	n/a	n/a	n/a
1227700	REC_WORD	wordpools/wasnorm_wordpool_less_exclusions.txt	LTP333	ltpFR	1	8	0	SUBMARINE	1398	n/a	n/a	1	n/a	n/a	n/a	n/a	n/a
1228700	REC_WORD_VV	wordpools/wasnorm_wordpool_less_exclusions.txt	LTP333	ltpFR	1	8	n/a	<>	-1	n/a	n/a	n/a	n/a	n/a	n/a	n/a	n/a
1229375	REC_WORD	wordpools/wasnorm_wordpool_less_exclusions.txt	LTP333	ltpFR	1	8	0	BUS	201	n/a	n/a	1	n/a	n/a	n/a	n/a	n/a
1230755	REC_WORD	wordpools/wasnorm_wordpool_less_exclusions.txt	LTP333	ltpFR	1	8	0	RUST	1219	n/a	n/a	0	n/a	n/a	n/a	n/a	n/a
1232036	REC_WORD	wordpools/wasnorm_wordpool_less_exclusions.txt	LTP333	ltpFR	1	8	0	MARKER	870	n/a	n/a	0	n/a	n/a	n/a	n/a	n/a
1234203	REC_WORD	wordpools/wasnorm_wordpool_less_exclusions.txt	LTP333	ltpFR	1	8	0	DRAGON	492	n/a	n/a	1	n/a	n/a	n/a	n/a	n/a
1235184	REC_WORD	wordpools/wasnorm_wordpool_less_exclusions.txt	LTP333	ltpFR	1	8	0	SPHINX	1349	n/a	n/a	1	n/a	n/a	n/a	n/a	n/a
1236542	REC_WORD	wordpools/wasnorm_wordpool_less_exclusions.txt	LTP333	ltpFR	1	8	0	CALF	222	n/a	n/a	1	n/a	n/a	n/a	n/a	n/a
1238106	REC_WORD	wordpools/wasnorm_wordpool_less_exclusions.txt	LTP333	ltpFR	1	8	0	SKILLET	1317	n/a	n/a	0	n/a	n/a	n/a	n/a	n/a
1239442	REC_WORD	wordpools/wasnorm_wordpool_less_exclusions.txt	LTP333	ltpFR	1	8	0	BACON	67	n/a	n/a	0	n/a	n/a	n/a	n/a	n/a
1241216	REC_WORD	wordpools/wasnorm_wordpool_less_exclusions.txt	LTP333	ltpFR	1	8	0	PAGE	1001	n/a	n/a	0	n/a	n/a	n/a	n/a	n/a
1242311	REC_WORD	wordpools/wasnorm_wordpool_less_exclusions.txt	LTP333	ltpFR	1	8	0	SHEET	1279	n/a	n/a	0	n/a	n/a	n/a	n/a	n/a
1243992	REC_WORD	wordpools/wasnorm_wordpool_less_exclusions.txt	LTP333	ltpFR	1	8	0	NOTEBOOK	959	n/a	n/a	0	n/a	n/a	n/a	n/a	n/a
1245741	REC_WORD	wordpools/wasnorm_wordpool_less_exclusions.txt	LTP333	ltpFR	1	8	0	BIBLE	124	n/a	n/a	0	n/a	n/a	n/a	n/a	n/a
1260633	REC_WORD	wordpools/wasnorm_wordpool_less_exclusions.txt	LTP333	ltpFR	1	8	n/a	CREEK	404	n/a	n/a	n/a	n/a	n/a	n/a	n/a	n/a
1301837	REST_REWET	n/a	LTP333	ltpFR	1	8	n/a	n/a	n/a	n/a	n/a	n/a	n/a	n/a	n/a	n/a	n/a
1336969	WORD	wordpools/wasnorm_wordpool_less_exclusions.txt	LTP333	ltpFR	1	9	-1	BINDER	127	n/a	n/a	-1	1.0	1.0	1	upper	Verdana.ttf
1340884	WORD	wordpools/wasnorm_wordpool_less_exclusions.txt	LTP333	ltpFR	1	9	-1	PIKE	1067	n/a	n/a	-1	1.0	1.0	1	upper	Verdana.ttf
1344832	WORD	wordpools/wasnorm_wordpool_less_exclusions.txt	LTP333	ltpFR	1	9	-1	GRILL	661	n/a	n/a	-1	1.0	1.0	1	upper	Verdana.ttf
1348947	WORD	wordpools/wasnorm_wordpool_less_exclusions.txt	LTP333	ltpFR	1	9	-1	ROBIN	1199	n/a	n/a	-1	1.0	1.0	1	upper	Verdana.ttf
1352911	WORD	wordpools/wasnorm_wordpool_less_exclusions.txt	LTP333	ltpFR	1	9	-1	SARDINE	1235	n/a	n/a	-1	1.0	1.0	1	upper	Verdana.ttf
1356993	WORD	wordpools/wasnorm_wordpool_less_exclusions.txt	LTP333	ltpFR	1	9	-1	PRINCESS	1125	n/a	n/a	-1	1.0	1.0	1	upper	Verdana.ttf
1360891	WORD	wordpools/wasnorm_wordpool_less_exclusions.txt	LTP333	ltpFR	1	9	-1	FRANCE	601	n/a	n/a	-1	1.0	1.0	1	upper	Verdana.ttf
1364972	WORD	wordpools/wasnorm_wordpool_less_exclusions.txt	LTP333	ltpFR	1	9	-1	BARREL	91	n/a	n/a	-1	1.0	1.0	1	upper	Verdana.ttf
1368853	WORD	wordpools/wasnorm_wordpool_less_exclusions.txt	LTP333	ltpFR	1	9	-1	CRACKER	398	n/a	n/a	-1	1.0	1.0	1	upper	Verdana.ttf
1372768	WORD	wordpools/wasnorm_wordpool_less_exclusions.txt	LTP333	ltpFR	1	9	-1	DOVE	491	n/a	n/a	-1	1.0	1.0	1	upper	Verdana.ttf
1376716	WORD	wordpools/wasnorm_wordpool_less_exclusions.txt	LTP333	ltpFR	1	9	-1	SWING	1421	n/a	n/a	-1	1.0	1.0	1	upper	Verdana.ttf
1380613	WORD	wordpools/wasnorm_wordpool_less_exclusions.txt	LTP333	ltpFR	1	9	-1	DESK	452	n/a	n/a	-1	1.0	1.0	1	upper	Verdana.ttf
1384578	WORD	wordpools/wasnorm_wordpool_less_exclusions.txt	LTP333	ltpFR	1	9	-1	MAP	865	n/a	n/a	-1	1.0	1.0	1	upper	Verdana.ttf
1388727	WORD	wordpools/wasnorm_wordpool_less_exclusions.txt	LTP333	ltpFR	1	9	-1	LITERATURE	831	n/a	n/a	-1	1.0	1.0	1	upper	Verdana.ttf
1392607	WORD	wordpools/wasnorm_wordpool_less_exclusions.txt	LTP333	ltpFR	1	9	-1	STOOL	1386	n/a	n/a	-1	1.0	1.0	1	upper	Verdana.ttf
1396572	WORD	wordpools/wasnorm_wordpool_less_exclusions.txt	LTP333	ltpFR	1	9	-1	FURNITURE	616	n/a	n/a	-1	1.0	1.0	1	upper	Verdana.ttf
1402586	REC_START	n/a	LTP333	ltpFR	1	9	n/a	n/a	n/a	n/a	n/a	n/a	n/a	n/a	n/a	n/a	n/a
1405438	REC_WORD	wordpools/wasnorm_wordpool_less_exclusions.txt	LTP333	ltpFR	1	9	-1	GRILL	661	n/a	n/a	-1	n/a	n/a	n/a	n/a	n/a
1407693	REC_WORD	wordpools/wasnorm_wordpool_less_exclusions.txt	LTP333	ltpFR	1	9	-1	BARREL	91	n/a	n/a	-1	n/a	n/a	n/a	n/a	n/a
1408818	REC_WORD	wordpools/wasnorm_wordpool_less_exclusions.txt	LTP333	ltpFR	1	9	-1	PIKE	1067	n/a	n/a	-1	n/a	n/a	n/a	n/a	n/a
1410103	REC_WORD	wordpools/wasnorm_wordpool_less_exclusions.txt	LTP333	ltpFR	1	9	-1	CRACKER	398	n/a	n/a	-1	n/a	n/a	n/a	n/a	n/a
1411037	REC_WORD	wordpools/wasnorm_wordpool_less_exclusions.txt	LTP333	ltpFR	1	9	-1	PRINCESS	1125	n/a	n/a	-1	n/a	n/a	n/a	n/a	n/a
1411858	REC_WORD	wordpools/wasnorm_wordpool_less_exclusions.txt	LTP333	ltpFR	1	9	-1	FRANCE	601	n/a	n/a	-1	n/a	n/a	n/a	n/a	n/a
1413732	REC_WORD	wordpools/wasnorm_wordpool_less_exclusions.txt	LTP333	ltpFR	1	9	-1	DOVE	491	n/a	n/a	-1	n/a	n/a	n/a	n/a	n/a
1414147	REC_WORD	wordpools/wasnorm_wordpool_less_exclusions.txt	LTP333	ltpFR	1	9	-1	SWING	1421	n/a	n/a	-1	n/a	n/a	n/a	n/a	n/a
1416046	REC_WORD	wordpools/wasnorm_wordpool_less_exclusions.txt	LTP333	ltpFR	1	9	-1	DESK	452	n/a	n/a	-1	n/a	n/a	n/a	n/a	n/a
1416876	REC_WORD	wordpools/wasnorm_wordpool_less_exclusions.txt	LTP333	ltpFR	1	9	-1	FURNITURE	616	n/a	n/a	-1	n/a	n/a	n/a	n/a	n/a
1420027	REC_WORD	wordpools/wasnorm_wordpool_less_exclusions.txt	LTP333	ltpFR	1	9	-1	ROBIN	1199	n/a	n/a	-1	n/a	n/a	n/a	n/a	n/a
1428343	REC_WORD	wordpools/wasnorm_wordpool_less_exclusions.txt	LTP333	ltpFR	1	9	-1	BINDER	127	n/a	n/a	-1	n/a	n/a	n/a	n/a	n/a
1445368	REC_WORD	wordpools/wasnorm_wordpool_less_exclusions.txt	LTP333	ltpFR	1	9	-1	LITERATURE	831	n/a	n/a	-1	n/a	n/a	n/a	n/a	n/a
1448845	REC_WORD	wordpools/wasnorm_wordpool_less_exclusions.txt	LTP333	ltpFR	1	9	-1	MAP	865	n/a	n/a	-1	n/a	n/a	n/a	n/a	n/a
1449984	REC_WORD	wordpools/wasnorm_wordpool_less_exclusions.txt	LTP333	ltpFR	1	9	-1	STOOL	1386	n/a	n/a	-1	n/a	n/a	n/a	n/a	n/a
1491026	WORD	wordpools/wasnorm_wordpool_less_exclusions.txt	LTP333	ltpFR	1	10	1	KEY	773	n/a	n/a	n/a	0.57763671875	0.412841796875	1	lower	amplitud.ttf
1494091	SLOW_MSG	n/a	LTP333	ltpFR	1	10	n/a	n/a	n/a	n/a	n/a	n/a	n/a	n/a	n/a	n/a	n/a
1496823	WORD	wordpools/wasnorm_wordpool_less_exclusions.txt	LTP333	ltpFR	1	10	1	SKIRT	1319	n/a	n/a	0	0.57763671875	0.412841796875	1	lower	amplitud.ttf
1500805	WORD	wordpools/wasnorm_wordpool_less_exclusions.txt	LTP333	ltpFR	1	10	0	SCOUT	1252	n/a	n/a	1	0.422607421875	0.5869140625	0	upper	zerothre.ttf
1504853	WORD	wordpools/wasnorm_wordpool_less_exclusions.txt	LTP333	ltpFR	1	10	0	OATMEAL	967	n/a	n/a	0	0.422607421875	0.5869140625	0	upper	zerothre.ttf
1508934	WORD	wordpools/wasnorm_wordpool_less_exclusions.txt	LTP333	ltpFR	1	10	0	MULE	931	n/a	n/a	1	0.422607421875	0.5869140625	0	upper	zerothre.ttf
1513048	WORD	wordpools/wasnorm_wordpool_less_exclusions.txt	LTP333	ltpFR	1	10	0	CREATURE	403	n/a	n/a	n/a	0.422607421875	0.5869140625	0	upper	zerothre.ttf
1516097	SLOW_MSG	n/a	LTP333	ltpFR	1	10	n/a	n/a	n/a	n/a	n/a	n/a	n/a	n/a	n/a	n/a	n/a
1518779	WORD	wordpools/wasnorm_wordpool_less_exclusions.txt	LTP333	ltpFR	1	10	0	CHAMBER	277	n/a	n/a	1	0.422607421875	0.5869140625	0	upper	zerothre.ttf
1522927	WORD	wordpools/wasnorm_wordpool_less_exclusions.txt	LTP333	ltpFR	1	10	1	MOOSE	915	n/a	n/a	1	0.57763671875	0.412841796875	1	lower	amplitud.ttf
1527042	WORD	wordpools/wasnorm_wordpool_less_exclusions.txt	LTP333	ltpFR	1	10	1	LIEUTENANT	818	n/a	n/a	1	0.57763671875	0.412841796875	1	lower	amplitud.ttf
1530940	WORD	wordpools/wasnorm_wordpool_less_exclusions.txt	LTP333	ltpFR	1	10	1	WHEAT	1602	n/a	n/a	1	0.57763671875	0.412841796875	1	lower	amplitud.ttf
1534971	WORD	wordpools/wasnorm_wordpool_less_exclusions.txt	LTP333	ltpFR	1	10	0	POLYESTER	1100	n/a	n/a	0	0.422607421875	0.5869140625	0	upper	zerothre.ttf
1538919	WORD	wordpools/wasnorm_wordpool_less_exclusions.txt	LTP333	ltpFR	1	10	0	LINT	826	n/a	n/a	0	0.422607421875	0.5869140625	0	upper	zerothre.ttf
1542817	WORD	wordpools/wasnorm_wordpool_less_exclusions.txt	LTP333	ltpFR	1	10	0	CLIMBER	323	n/a	n/a	1	0.422607421875	0.5869140625	0	upper	zerothre.ttf
1546948	WORD	wordpools/wasnorm_wordpool_less_exclusions.txt	LTP333	ltpFR	1	10	1	CANYON	235	n/a	n/a	0	0.57763671875	0.412841796875	1	lower	amplitud.ttf
1551113	WORD	wordpools/wasnorm_wordpool_less_exclusions.txt	LTP333	ltpFR	1	10	1	BLANKET	135	n/a	n/a	0	0.57763671875	0.412841796875	1	lower	amplitud.ttf
1555144	WORD	wordpools/wasnorm_wordpool_less_exclusions.txt	LTP333	ltpFR	1	10	1	PLAID	1080	n/a	n/a	n/a	0.57763671875	0.412841796875	1	lower	amplitud.ttf
1558209	SLOW_MSG	n/a	LTP333	ltpFR	1	10	n/a	n/a	n/a	n/a	n/a	n/a	n/a	n/a	n/a	n/a	n/a
1562673	REC_START	n/a	LTP333	ltpFR	1	10	n/a	n/a	n/a	n/a	n/a	n/a	n/a	n/a	n/a	n/a	n/a
1564790	REC_WORD	wordpools/wasnorm_wordpool_less_exclusions.txt	LTP333	ltpFR	1	10	1	BLANKET	135	n/a	n/a	0	n/a	n/a	n/a	n/a	n/a
1565799	REC_WORD	wordpools/wasnorm_wordpool_less_exclusions.txt	LTP333	ltpFR	1	10	1	PLAID	1080	n/a	n/a	n/a	n/a	n/a	n/a	n/a	n/a
1566979	REC_WORD	wordpools/wasnorm_wordpool_less_exclusions.txt	LTP333	ltpFR	1	10	0	CLIMBER	323	n/a	n/a	1	n/a	n/a	n/a	n/a	n/a
1568034	REC_WORD	wordpools/wasnorm_wordpool_less_exclusions.txt	LTP333	ltpFR	1	10	1	CANYON	235	n/a	n/a	0	n/a	n/a	n/a	n/a	n/a
1568870	REC_WORD	wordpools/wasnorm_wordpool_less_exclusions.txt	LTP333	ltpFR	1	10	0	POLYESTER	1100	n/a	n/a	0	n/a	n/a	n/a	n/a	n/a
1570064	REC_WORD	wordpools/wasnorm_wordpool_less_exclusions.txt	LTP333	ltpFR	1	10	0	LINT	826	n/a	n/a	0	n/a	n/a	n/a	n/a	n/a
1571799	REC_WORD	wordpools/wasnorm_wordpool_less_exclusions.txt	LTP333	ltpFR	1	10	1	LIEUTENANT	818	n/a	n/a	1	n/a	n/a	n/a	n/a	n/a
1572736	REC_WORD	wordpools/wasnorm_wordpool_less_exclusions.txt	LTP333	ltpFR	1	10	1	MOOSE	915	n/a	n/a	1	n/a	n/a	n/a	n/a	n/a
1574252	REC_WORD	wordpools/wasnorm_wordpool_less_exclusions.txt	LTP333	ltpFR	1	10	0	OATMEAL	967	n/a	n/a	0	n/a	n/a	n/a	n/a	n/a
1575437	REC_WORD	wordpools/wasnorm_wordpool_less_exclusions.txt	LTP333	ltpFR	1	10	0	MULE	931	n/a	n/a	1	n/a	n/a	n/a	n/a	n/a
1591663	REC_WORD	wordpools/wasnorm_wordpool_less_exclusions.txt	LTP333	ltpFR	1	10	0	CHAMBER	277	n/a	n/a	1	n/a	n/a	n/a	n/a	n/a
1635360	REC_WORD	wordpools/wasnorm_wordpool_less_exclusions.txt	LTP333	ltpFR	1	10	1	SKIRT	1319	n/a	n/a	0	n/a	n/a	n/a	n/a	n/a
1636822	REC_WORD	wordpools/wasnorm_wordpool_less_exclusions.txt	LTP333	ltpFR	1	10	0	SCOUT	1252	n/a	n/a	1	n/a	n/a	n/a	n/a	n/a
1659909	WORD	wordpools/wasnorm_wordpool_less_exclusions.txt	LTP333	ltpFR	1	11	1	PLANT	1083	n/a	n/a	1	0.57763671875	0.412841796875	1	lower	amplitud.ttf
1664123	WORD	wordpools/wasnorm_wordpool_less_exclusions.txt	LTP333	ltpFR	1	11	1	ROBOT	1200	n/a	n/a	0	0.57763671875	0.412841796875	1	lower	amplitud.ttf
1668288	WORD	wordpools/wasnorm_wordpool_less_exclusions.txt	LTP333	ltpFR	1	11	1	ACTOR	5	n/a	n/a	1	0.57763671875	0.412841796875	1	lower	amplitud.ttf
1672303	WORD	wordpools/wasnorm_wordpool_less_exclusions.txt	LTP333	ltpFR	1	11	1	DEPARTMENT	449	n/a	n/a	0	0.57763671875	0.412841796875	1	lower	amplitud.ttf
1676483	WORD	wordpools/wasnorm_wordpool_less_exclusions.txt	LTP333	ltpFR	1	11	1	LEAF	808	n/a	n/a	1	0.57763671875	0.412841796875	1	lower	amplitud.ttf
1680449	WORD	wordpools/wasnorm_wordpool_less_exclusions.txt	LTP333	ltpFR	1	11	1	OCTOPUS	971	n/a	n/a	1	0.57763671875	0.412841796875	1	lower	amplitud.ttf
1684480	WORD	wordpools/wasnorm_wordpool_less_exclusions.txt	LTP333	ltpFR	1	11	1	CRAB	397	n/a	n/a	1	0.57763671875	0.412841796875	1	lower	amplitud.ttf
1688461	WORD	wordpools/wasnorm_wordpool_less_exclusions.txt	LTP333	ltpFR	1	11	1	PAD	998	n/a	n/a	0	0.57763671875	0.412841796875	1	lower	amplitud.ttf
1692359	WORD	wordpools/wasnorm_wordpool_less_exclusions.txt	LTP333	ltpFR	1	11	1	HANDKERCHIEF	686	n/a	n/a	0	0.57763671875	0.412841796875	1	lower	amplitud.ttf
1696474	WORD	wordpools/wasnorm_wordpool_less_exclusions.txt	LTP333	ltpFR	1	11	1	SKATE	1313	n/a	n/a	0	0.57763671875	0.412841796875	1	lower	amplitud.ttf
1700422	WORD	wordpools/wasnorm_wordpool_less_exclusions.txt	LTP333	ltpFR	1	11	1	DECK	443	n/a	n/a	0	0.57763671875	0.412841796875	1	lower	amplitud.ttf
1704337	WORD	wordpools/wasnorm_wordpool_less_exclusions.txt	LTP333	ltpFR	1	11	1	GOWN	652	n/a	n/a	0	0.57763671875	0.412841796875	1	lower	amplitud.ttf
1708202	WORD	wordpools/wasnorm_wordpool_less_exclusions.txt	LTP333	ltpFR	1	11	1	SIBLING	1301	n/a	n/a	1	0.57763671875	0.412841796875	1	lower	amplitud.ttf
1712383	WORD	wordpools/wasnorm_wordpool_less_exclusions.txt	LTP333	ltpFR	1	11	1	ACTRESS	6	n/a	n/a	1	0.57763671875	0.412841796875	1	lower	amplitud.ttf
1716231	WORD	wordpools/wasnorm_wordpool_less_exclusions.txt	LTP333	ltpFR	1	11	1	ORANGE	980	n/a	n/a	1	0.57763671875	0.412841796875	1	lower	amplitud.ttf
1720112	WORD	wordpools/wasnorm_wordpool_less_exclusions.txt	LTP333	ltpFR	1	11	1	PRUNE	1134	n/a	n/a	1	0.57763671875	0.412841796875	1	lower	amplitud.ttf
1725811	REC_START	n/a	LTP333	ltpFR	1	11	n/a	n/a	n/a	n/a	n/a	n/a	n/a	n/a	n/a	n/a	n/a
1728449	REC_WORD	wordpools/wasnorm_wordpool_less_exclusions.txt	LTP333	ltpFR	1	11	1	PLANT	1083	n/a	n/a	1	n/a	n/a	n/a	n/a	n/a
1729717	REC_WORD	wordpools/wasnorm_wordpool_less_exclusions.txt	LTP333	ltpFR	1	11	1	LEAF	808	n/a	n/a	1	n/a	n/a	n/a	n/a	n/a
1731470	REC_WORD	wordpools/wasnorm_wordpool_less_exclusions.txt	LTP333	ltpFR	1	11	1	OCTOPUS	971	n/a	n/a	1	n/a	n/a	n/a	n/a	n/a
1732530	REC_WORD	wordpools/wasnorm_wordpool_less_exclusions.txt	LTP333	ltpFR	1	11	1	CRAB	397	n/a	n/a	1	n/a	n/a	n/a	n/a	n/a
1734338	REC_WORD	wordpools/wasnorm_wordpool_less_exclusions.txt	LTP333	ltpFR	1	11	1	ACTOR	5	n/a	n/a	1	n/a	n/a	n/a	n/a	n/a
1735592	REC_WORD	wordpools/wasnorm_wordpool_less_exclusions.txt	LTP333	ltpFR	1	11	1	ACTRESS	6	n/a	n/a	1	n/a	n/a	n/a	n/a	n/a
1737435	REC_WORD	wordpools/wasnorm_wordpool_less_exclusions.txt	LTP333	ltpFR	1	11	1	ORANGE	980	n/a	n/a	1	n/a	n/a	n/a	n/a	n/a
1738557	REC_WORD	wordpools/wasnorm_wordpool_less_exclusions.txt	LTP333	ltpFR	1	11	1	PRUNE	1134	n/a	n/a	1	n/a	n/a	n/a	n/a	n/a
1740449	REC_WORD	wordpools/wasnorm_wordpool_less_exclusions.txt	LTP333	ltpFR	1	11	1	GOWN	652	n/a	n/a	0	n/a	n/a	n/a	n/a	n/a
1741679	REC_WORD	wordpools/wasnorm_wordpool_less_exclusions.txt	LTP333	ltpFR	1	11	1	SIBLING	1301	n/a	n/a	1	n/a	n/a	n/a	n/a	n/a
1745007	REC_WORD	wordpools/wasnorm_wordpool_less_exclusions.txt	LTP333	ltpFR	1	11	1	ROBOT	1200	n/a	n/a	0	n/a	n/a	n/a	n/a	n/a
1755164	REC_WORD	wordpools/wasnorm_wordpool_less_exclusions.txt	LTP333	ltpFR	1	11	1	DEPARTMENT	449	n/a	n/a	0	n/a	n/a	n/a	n/a	n/a
1814349	WORD	wordpools/wasnorm_wordpool_less_exclusions.txt	LTP333	ltpFR	1	12	0	CITIZEN	312	n/a	n/a	1	0.422607421875	0.5869140625	0	upper	zerothre.ttf
1818579	WORD	wordpools/wasnorm_wordpool_less_exclusions.txt	LTP333	ltpFR	1	12	0	JOINT	758	n/a	n/a	1	0.422607421875	0.5869140625	0	upper	zerothre.ttf
1822494	WORD	wordpools/wasnorm_wordpool_less_exclusions.txt	LTP333	ltpFR	1	12	0	BELL	118	n/a	n/a	0	0.422607421875	0.5869140625	0	upper	zerothre.ttf
1826525	WORD	wordpools/wasnorm_wordpool_less_exclusions.txt	LTP333	ltpFR	1	12	0	MAGAZINE	853	n/a	n/a	0	0.422607421875	0.5869140625	0	upper	zerothre.ttf
1830724	WORD	wordpools/wasnorm_wordpool_less_exclusions.txt	LTP333	ltpFR	1	12	0	NOVEL	960	n/a	n/a	0	0.422607421875	0.5869140625	0	upper	zerothre.ttf
1834654	WORD	wordpools/wasnorm_wordpool_less_exclusions.txt	LTP333	ltpFR	1	12	0	BUGGY	188	n/a	n/a	1	0.422607421875	0.5869140625	0	upper	zerothre.ttf
1838770	WORD	wordpools/wasnorm_wordpool_less_exclusions.txt	LTP333	ltpFR	1	12	0	LILY	821	n/a	n/a	0	0.422607421875	0.5869140625	0	upper	zerothre.ttf
1842901	WORD	wordpools/wasnorm_wordpool_less_exclusions.txt	LTP333	ltpFR	1	12	0	DUCK	504	n/a	n/a	1	0.422607421875	0.5869140625	0	upper	zerothre.ttf
1847049	WORD	wordpools/wasnorm_wordpool_less_exclusions.txt	LTP333	ltpFR	1	12	0	SIGN	1305	n/a	n/a	1	0.422607421875	0.5869140625	0	upper	zerothre.ttf
1850947	WORD	wordpools/wasnorm_wordpool_less_exclusions.txt	LTP333	ltpFR	1	12	0	CLAMP	316	n/a	n/a	0	0.422607421875	0.5869140625	0	upper	zerothre.ttf
1855162	WORD	wordpools/wasnorm_wordpool_less_exclusions.txt	LTP333	ltpFR	1	12	0	KNUCKLE	789	n/a	n/a	0	0.422607421875	0.5869140625	0	upper	zerothre.ttf
1859193	WORD	wordpools/wasnorm_wordpool_less_exclusions.txt	LTP333	ltpFR	1	12	0	OATS	968	n/a	n/a	0	0.422607421875	0.5869140625	0	upper	zerothre.ttf
1863358	WORD	wordpools/wasnorm_wordpool_less_exclusions.txt	LTP333	ltpFR	1	12	0	BEAKER	104	n/a	n/a	0	0.422607421875	0.5869140625	0	upper	zerothre.ttf
1867389	WORD	wordpools/wasnorm_wordpool_less_exclusions.txt	LTP333	ltpFR	1	12	0	POPE	1105	n/a	n/a	1	0.422607421875	0.5869140625	0	upper	zerothre.ttf
1871354	WORD	wordpools/wasnorm_wordpool_less_exclusions.txt	LTP333	ltpFR	1	12	0	TEMPLE	1448	n/a	n/a	1	0.422607421875	0.5869140625	0	upper	zerothre.ttf
1875368	WORD	wordpools/wasnorm_wordpool_less_exclusions.txt	LTP333	ltpFR	1	12	0	BLOSSOM	138	n/a	n/a	0	0.422607421875	0.5869140625	0	upper	zerothre.ttf
1881300	REC_START	n/a	LTP333	ltpFR	1	12	n/a	n/a	n/a	n/a	n/a	n/a	n/a	n/a	n/a	n/a	n/a
1882647	REC_WORD	wordpools/wasnorm_wordpool_less_exclusions.txt	LTP333	ltpFR	1	12	0	BUGGY	188	n/a	n/a	1	n/a	n/a	n/a	n/a	n/a
1883635	REC_WORD	wordpools/wasnorm_wordpool_less_exclusions.txt	LTP333	ltpFR	1	12	0	POPE	1105	n/a	n/a	1	n/a	n/a	n/a	n/a	n/a
1884544	REC_WORD	wordpools/wasnorm_wordpool_less_exclusions.txt	LTP333	ltpFR	1	12	0	TEMPLE	1448	n/a	n/a	1	n/a	n/a	n/a	n/a	n/a
1886014	REC_WORD	wordpools/wasnorm_wordpool_less_exclusions.txt	LTP333	ltpFR	1	12	0	LILY	821	n/a	n/a	0	n/a	n/a	n/a	n/a	n/a
1887309	REC_WORD	wordpools/wasnorm_wordpool_less_exclusions.txt	LTP333	ltpFR	1	12	0	BLOSSOM	138	n/a	n/a	0	n/a	n/a	n/a	n/a	n/a
1893078	REC_WORD	wordpools/wasnorm_wordpool_less_exclusions.txt	LTP333	ltpFR	1	12	0	BELL	118	n/a	n/a	0	n/a	n/a	n/a	n/a	n/a
1895161	REC_WORD	wordpools/wasnorm_wordpool_less_exclusions.txt	LTP333	ltpFR	1	12	0	NOVEL	960	n/a	n/a	0	n/a	n/a	n/a	n/a	n/a
1938460	REC_WORD	wordpools/wasnorm_wordpool_less_exclusions.txt	LTP333	ltpFR	1	12	0	BLOSSOM	138	n/a	n/a	0	n/a	n/a	n/a	n/a	n/a
1970321	WORD	wordpools/wasnorm_wordpool_less_exclusions.txt	LTP333	ltpFR	1	13	1	BRUSH	182	n/a	n/a	0	0.57763671875	0.412841796875	1	lower	amplitud.ttf
1974485	WORD	wordpools/wasnorm_wordpool_less_exclusions.txt	LTP333	ltpFR	1	13	1	TROUSERS	1510	n/a	n/a	0	0.57763671875	0.412841796875	1	lower	amplitud.ttf
1978701	WORD	wordpools/wasnorm_wordpool_less_exclusions.txt	LTP333	ltpFR	1	13	1	KEEPER	769	n/a	n/a	1	0.57763671875	0.412841796875	1	lower	amplitud.ttf
1982699	WORD	wordpools/wasnorm_wordpool_less_exclusions.txt	LTP333	ltpFR	1	13	1	CHEST	295	n/a	n/a	0	0.57763671875	0.412841796875	1	lower	amplitud.ttf
1986746	WORD	wordpools/wasnorm_wordpool_less_exclusions.txt	LTP333	ltpFR	1	13	1	TWEEZERS	1526	n/a	n/a	0	0.57763671875	0.412841796875	1	lower	amplitud.ttf
1990844	WORD	wordpools/wasnorm_wordpool_less_exclusions.txt	LTP333	ltpFR	1	13	1	MOTHER	921	n/a	n/a	1	0.57763671875	0.412841796875	1	lower	amplitud.ttf
1994809	WORD	wordpools/wasnorm_wordpool_less_exclusions.txt	LTP333	ltpFR	1	13	1	CLOTHES	327	n/a	n/a	0	0.57763671875	0.412841796875	1	lower	amplitud.ttf
1998907	WORD	wordpools/wasnorm_wordpool_less_exclusions.txt	LTP333	ltpFR	1	13	1	CHAMPION	279	n/a	n/a	1	0.57763671875	0.412841796875	1	lower	amplitud.ttf
2003038	WORD	wordpools/wasnorm_wordpool_less_exclusions.txt	LTP333	ltpFR	1	13	1	MEDAL	885	n/a	n/a	0	0.57763671875	0.412841796875	1	lower	amplitud.ttf
2007036	WORD	wordpools/wasnorm_wordpool_less_exclusions.txt	LTP333	ltpFR	1	13	1	FISH	571	n/a	n/a	1	0.57763671875	0.412841796875	1	lower	amplitud.ttf
2011134	WORD	wordpools/wasnorm_wordpool_less_exclusions.txt	LTP333	ltpFR	1	13	1	ATOM	55	n/a	n/a	0	0.57763671875	0.412841796875	1	lower	amplitud.ttf
2015066	WORD	wordpools/wasnorm_wordpool_less_exclusions.txt	LTP333	ltpFR	1	13	1	NEUTRON	947	n/a	n/a	0	0.57763671875	0.412841796875	1	lower	amplitud.ttf
2018914	WORD	wordpools/wasnorm_wordpool_less_exclusions.txt	LTP333	ltpFR	1	13	1	DUSTPAN	509	n/a	n/a	0	0.57763671875	0.412841796875	1	lower	amplitud.ttf
2023045	WORD	wordpools/wasnorm_wordpool_less_exclusions.txt	LTP333	ltpFR	1	13	1	SWEATER	1419	n/a	n/a	0	0.57763671875	0.412841796875	1	lower	amplitud.ttf
2027210	WORD	wordpools/wasnorm_wordpool_less_exclusions.txt	LTP333	ltpFR	1	13	1	SQUID	1361	n/a	n/a	1	0.57763671875	0.412841796875	1	lower	amplitud.ttf
2031241	WORD	wordpools/wasnorm_wordpool_less_exclusions.txt	LTP333	ltpFR	1	13	1	ANKLE	24	n/a	n/a	0	0.57763671875	0.412841796875	1	lower	amplitud.ttf
2037239	REC_START	n/a	LTP333	ltpFR	1	13	n/a	n/a	n/a	n/a	n/a	n/a	n/a	n/a	n/a	n/a	n/a
2038622	REC_WORD	wordpools/wasnorm_wordpool_less_exclusions.txt	LTP333	ltpFR	1	13	1	KEEPER	769	n/a	n/a	1	n/a	n/a	n/a	n/a	n/a
2039679	REC_WORD	wordpools/wasnorm_wordpool_less_exclusions.txt	LTP333	ltpFR	1	13	1	BRUSH	182	n/a	n/a	0	n/a	n/a	n/a	n/a	n/a
2040871	REC_WORD	wordpools/wasnorm_wordpool_less_exclusions.txt	LTP333	ltpFR	1	13	1	TWEEZERS	1526	n/a	n/a	0	n/a	n/a	n/a	n/a	n/a
2042512	REC_WORD	wordpools/wasnorm_wordpool_less_exclusions.txt	LTP333	ltpFR	1	13	n/a	PANTS	1010	n/a	n/a	n/a	n/a	n/a	n/a	n/a	n/a
2043632	REC_WORD	wordpools/wasnorm_wordpool_less_exclusions.txt	LTP333	ltpFR	1	13	1	MOTHER	921	n/a	n/a	1	n/a	n/a	n/a	n/a	n/a
2044904	REC_WORD	wordpools/wasnorm_wordpool_less_exclusions.txt	LTP333	ltpFR	1	13	1	DUSTPAN	509	n/a	n/a	0	n/a	n/a	n/a	n/a	n/a
2046595	REC_WORD	wordpools/wasnorm_wordpool_less_exclusions.txt	LTP333	ltpFR	1	13	1	FISH	571	n/a	n/a	1	n/a	n/a	n/a	n/a	n/a
2047664	REC_WORD	wordpools/wasnorm_wordpool_less_exclusions.txt	LTP333	ltpFR	1	13	1	SQUID	1361	n/a	n/a	1	n/a	n/a	n/a	n/a	n/a
2049244	REC_WORD	wordpools/wasnorm_wordpool_less_exclusions.txt	LTP333	ltpFR	1	13	1	SWEATER	1419	n/a	n/a	0	n/a	n/a	n/a	n/a	n/a
2051220	REC_WORD	wordpools/wasnorm_wordpool_less_exclusions.txt	LTP333	ltpFR	1	13	1	ANKLE	24	n/a	n/a	0	n/a	n/a	n/a	n/a	n/a
2055816	REC_WORD	wordpools/wasnorm_wordpool_less_exclusions.txt	LTP333	ltpFR	1	13	n/a	BUREAU	199	n/a	n/a	n/a	n/a	n/a	n/a	n/a	n/a
2059287	REC_WORD	wordpools/wasnorm_wordpool_less_exclusions.txt	LTP333	ltpFR	1	13	n/a	DRESSER	496	n/a	n/a	n/a	n/a	n/a	n/a	n/a	n/a
2061219	REC_WORD	wordpools/wasnorm_wordpool_less_exclusions.txt	LTP333	ltpFR	1	13	1	MEDAL	885	n/a	n/a	0	n/a	n/a	n/a	n/a	n/a
2130109	WORD	wordpools/wasnorm_wordpool_less_exclusions.txt	LTP333	ltpFR	1	14	0	SAXOPHONE	1240	n/a	n/a	1	0.422607421875	0.5869140625	0	upper	zerothre.ttf
2134173	WORD	wordpools/wasnorm_wordpool_less_exclusions.txt	LTP333	ltpFR	1	14	0	NEPHEW	942	n/a	n/a	1	0.422607421875	0.5869140625	0	upper	zerothre.ttf
2138404	WORD	wordpools/wasnorm_wordpool_less_exclusions.txt	LTP333	ltpFR	1	14	0	SIDEWALK	1303	n/a	n/a	1	0.422607421875	0.5869140625	0	upper	zerothre.ttf
2142336	WORD	wordpools/wasnorm_wordpool_less_exclusions.txt	LTP333	ltpFR	1	14	1	DONKEY	484	n/a	n/a	1	0.57763671875	0.412841796875	1	lower	amplitud.ttf
2146566	WORD	wordpools/wasnorm_wordpool_less_exclusions.txt	LTP333	ltpFR	1	14	1	TRACTOR	1493	n/a	n/a	0	0.57763671875	0.412841796875	1	lower	amplitud.ttf
2150449	WORD	wordpools/wasnorm_wordpool_less_exclusions.txt	LTP333	ltpFR	1	14	1	SUN	1406	n/a	n/a	0	0.57763671875	0.412841796875	1	lower	amplitud.ttf
2154463	WORD	wordpools/wasnorm_wordpool_less_exclusions.txt	LTP333	ltpFR	1	14	0	CHEF	290	n/a	n/a	0	0.422607421875	0.5869140625	0	upper	zerothre.ttf
2158411	WORD	wordpools/wasnorm_wordpool_less_exclusions.txt	LTP333	ltpFR	1	14	0	BUN	197	n/a	n/a	0	0.422607421875	0.5869140625	0	upper	zerothre.ttf
2162359	WORD	wordpools/wasnorm_wordpool_less_exclusions.txt	LTP333	ltpFR	1	14	0	CAT	257	n/a	n/a	0	0.422607421875	0.5869140625	0	upper	zerothre.ttf
2166506	WORD	wordpools/wasnorm_wordpool_less_exclusions.txt	LTP333	ltpFR	1	14	1	CLAW	319	n/a	n/a	0	0.57763671875	0.412841796875	1	lower	amplitud.ttf
2170722	WORD	wordpools/wasnorm_wordpool_less_exclusions.txt	LTP333	ltpFR	1	14	1	PISTON	1076	n/a	n/a	0	0.57763671875	0.412841796875	1	lower	amplitud.ttf
2174686	WORD	wordpools/wasnorm_wordpool_less_exclusions.txt	LTP333	ltpFR	1	14	1	STREET	1393	n/a	n/a	0	0.57763671875	0.412841796875	1	lower	amplitud.ttf
2178818	WORD	wordpools/wasnorm_wordpool_less_exclusions.txt	LTP333	ltpFR	1	14	1	CLOCK	325	n/a	n/a	0	0.57763671875	0.412841796875	1	lower	amplitud.ttf
2182966	WORD	wordpools/wasnorm_wordpool_less_exclusions.txt	LTP333	ltpFR	1	14	1	UNICORN	1538	n/a	n/a	1	0.57763671875	0.412841796875	1	lower	amplitud.ttf
2186897	WORD	wordpools/wasnorm_wordpool_less_exclusions.txt	LTP333	ltpFR	1	14	0	WHEEL	1603	n/a	n/a	1	0.422607421875	0.5869140625	0	upper	zerothre.ttf
2190995	WORD	wordpools/wasnorm_wordpool_less_exclusions.txt	LTP333	ltpFR	1	14	0	WINDSHIELD	1612	n/a	n/a	1	0.422607421875	0.5869140625	0	upper	zerothre.ttf
2196743	REC_START	n/a	LTP333	ltpFR	1	14	n/a	n/a	n/a	n/a	n/a	n/a	n/a	n/a	n/a	n/a	n/a
2198548	REC_WORD	wordpools/wasnorm_wordpool_less_exclusions.txt	LTP333	ltpFR	1	14	1	SUN	1406	n/a	n/a	0	n/a	n/a	n/a	n/a	n/a
2199466	REC_WORD	wordpools/wasnorm_wordpool_less_exclusions.txt	LTP333	ltpFR	1	14	0	CHEF	290	n/a	n/a	0	n/a	n/a	n/a	n/a	n/a
2200758	REC_WORD	wordpools/wasnorm_wordpool_less_exclusions.txt	LTP333	ltpFR	1	14	0	BUN	197	n/a	n/a	0	n/a	n/a	n/a	n/a	n/a
2202217	REC_WORD	wordpools/wasnorm_wordpool_less_exclusions.txt	LTP333	ltpFR	1	14	0	CAT	257	n/a	n/a	0	n/a	n/a	n/a	n/a	n/a
2204074	REC_WORD	wordpools/wasnorm_wordpool_less_exclusions.txt	LTP333	ltpFR	1	14	0	NEPHEW	942	n/a	n/a	1	n/a	n/a	n/a	n/a	n/a
2204951	REC_WORD	wordpools/wasnorm_wordpool_less_exclusions.txt	LTP333	ltpFR	1	14	0	SAXOPHONE	1240	n/a	n/a	1	n/a	n/a	n/a	n/a	n/a
2206195	REC_WORD	wordpools/wasnorm_wordpool_less_exclusions.txt	LTP333	ltpFR	1	14	0	SIDEWALK	1303	n/a	n/a	1	n/a	n/a	n/a	n/a	n/a
2207966	REC_WORD	wordpools/wasnorm_wordpool_less_exclusions.txt	LTP333	ltpFR	1	14	1	DONKEY	484	n/a	n/a	1	n/a	n/a	n/a	n/a	n/a
2208937	REC_WORD	wordpools/wasnorm_wordpool_less_exclusions.txt	LTP333	ltpFR	1	14	1	TRACTOR	1493	n/a	n/a	0	n/a	n/a	n/a	n/a	n/a
2215142	REC_WORD	wordpools/wasnorm_wordpool_less_exclusions.txt	LTP333	ltpFR	1	14	1	STREET	1393	n/a	n/a	0	n/a	n/a	n/a	n/a	n/a
2216142	REC_WORD_VV	wordpools/wasnorm_wordpool_less_exclusions.txt	LTP333	ltpFR	1	14	n/a	<>	-1	n/a	n/a	n/a	n/a	n/a	n/a	n/a	n/a
2217324	REC_WORD	wordpools/wasnorm_wordpool_less_exclusions.txt	LTP333	ltpFR	1	14	0	WINDSHIELD	1612	n/a	n/a	1	n/a	n/a	n/a	n/a	n/a
2218324	REC_WORD_VV	wordpools/wasnorm_wordpool_less_exclusions.txt	LTP333	ltpFR	1	14	n/a	<>	-1	n/a	n/a	n/a	n/a	n/a	n/a	n/a	n/a
2219336	REC_WORD	wordpools/wasnorm_wordpool_less_exclusions.txt	LTP333	ltpFR	1	14	0	WHEEL	1603	n/a	n/a	1	n/a	n/a	n/a	n/a	n/a
2220778	REC_WORD	wordpools/wasnorm_wordpool_less_exclusions.txt	LTP333	ltpFR	1	14	1	UNICORN	1538	n/a	n/a	1	n/a	n/a	n/a	n/a	n/a
2221778	REC_WORD_VV	wordpools/wasnorm_wordpool_less_exclusions.txt	LTP333	ltpFR	1	14	n/a	<>	-1	n/a	n/a	n/a	n/a	n/a	n/a	n/a	n/a
2245870	REC_WORD	wordpools/wasnorm_wordpool_less_exclusions.txt	LTP333	ltpFR	1	14	1	CLAW	319	n/a	n/a	0	n/a	n/a	n/a	n/a	n/a
2278551	WORD	wordpools/wasnorm_wordpool_less_exclusions.txt	LTP333	ltpFR	1	15	-1	SHACK	1273	n/a	n/a	-1	1.0	1.0	1	upper	Verdana.ttf
2282716	WORD	wordpools/wasnorm_wordpool_less_exclusions.txt	LTP333	ltpFR	1	15	-1	CROW	414	n/a	n/a	-1	1.0	1.0	1	upper	Verdana.ttf
2286714	WORD	wordpools/wasnorm_wordpool_less_exclusions.txt	LTP333	ltpFR	1	15	-1	SPARROW	1347	n/a	n/a	-1	1.0	1.0	1	upper	Verdana.ttf
2290779	WORD	wordpools/wasnorm_wordpool_less_exclusions.txt	LTP333	ltpFR	1	15	-1	LOCK	838	n/a	n/a	-1	1.0	1.0	1	upper	Verdana.ttf
2294777	WORD	wordpools/wasnorm_wordpool_less_exclusions.txt	LTP333	ltpFR	1	15	-1	TAXI	1438	n/a	n/a	-1	1.0	1.0	1	upper	Verdana.ttf
2298825	WORD	wordpools/wasnorm_wordpool_less_exclusions.txt	LTP333	ltpFR	1	15	-1	TART	1436	n/a	n/a	-1	1.0	1.0	1	upper	Verdana.ttf
2302839	WORD	wordpools/wasnorm_wordpool_less_exclusions.txt	LTP333	ltpFR	1	15	-1	STAIRS	1367	n/a	n/a	-1	1.0	1.0	1	upper	Verdana.ttf
2306954	WORD	wordpools/wasnorm_wordpool_less_exclusions.txt	LTP333	ltpFR	1	15	-1	KNOB	787	n/a	n/a	-1	1.0	1.0	1	upper	Verdana.ttf
2311119	WORD	wordpools/wasnorm_wordpool_less_exclusions.txt	LTP333	ltpFR	1	15	-1	LAMB	797	n/a	n/a	-1	1.0	1.0	1	upper	Verdana.ttf
2315100	WORD	wordpools/wasnorm_wordpool_less_exclusions.txt	LTP333	ltpFR	1	15	-1	TREAT	1501	n/a	n/a	-1	1.0	1.0	1	upper	Verdana.ttf
2319065	WORD	wordpools/wasnorm_wordpool_less_exclusions.txt	LTP333	ltpFR	1	15	-1	CONCRETE	361	n/a	n/a	-1	1.0	1.0	1	upper	Verdana.ttf
2323279	WORD	wordpools/wasnorm_wordpool_less_exclusions.txt	LTP333	ltpFR	1	15	-1	TELEVISION	1447	n/a	n/a	-1	1.0	1.0	1	upper	Verdana.ttf
2327277	WORD	wordpools/wasnorm_wordpool_less_exclusions.txt	LTP333	ltpFR	1	15	-1	SCARF	1246	n/a	n/a	-1	1.0	1.0	1	upper	Verdana.ttf
2331292	WORD	wordpools/wasnorm_wordpool_less_exclusions.txt	LTP333	ltpFR	1	15	-1	CUFF	423	n/a	n/a	-1	1.0	1.0	1	upper	Verdana.ttf
2335357	WORD	wordpools/wasnorm_wordpool_less_exclusions.txt	LTP333	ltpFR	1	15	-1	BRIDGE	174	n/a	n/a	-1	1.0	1.0	1	upper	Verdana.ttf
2339455	WORD	wordpools/wasnorm_wordpool_less_exclusions.txt	LTP333	ltpFR	1	15	-1	WELL	1600	n/a	n/a	-1	1.0	1.0	1	upper	Verdana.ttf
2345402	REC_START	n/a	LTP333	ltpFR	1	15	n/a	n/a	n/a	n/a	n/a	n/a	n/a	n/a	n/a	n/a	n/a
2347354	REC_WORD	wordpools/wasnorm_wordpool_less_exclusions.txt	LTP333	ltpFR	1	15	-1	SHACK	1273	n/a	n/a	-1	n/a	n/a	n/a	n/a	n/a
2349694	REC_WORD	wordpools/wasnorm_wordpool_less_exclusions.txt	LTP333	ltpFR	1	15	n/a	RAVEN	-1	n/a	n/a	n/a	n/a	n/a	n/a	n/a	n/a
2351161	REC_WORD_VV	wordpools/wasnorm_wordpool_less_exclusions.txt	LTP333	ltpFR	1	15	n/a	<>	-1	n/a	n/a	n/a	n/a	n/a	n/a	n/a	n/a
2351691	REC_WORD	wordpools/wasnorm_wordpool_less_exclusions.txt	LTP333	ltpFR	1	15	-1	CROW	414	n/a	n/a	-1	n/a	n/a	n/a	n/a	n/a
2353118	REC_WORD	wordpools/wasnorm_wordpool_less_exclusions.txt	LTP333	ltpFR	1	15	-1	SPARROW	1347	n/a	n/a	-1	n/a	n/a	n/a	n/a	n/a
2354534	REC_WORD	wordpools/wasnorm_wordpool_less_exclusions.txt	LTP333	ltpFR	1	15	-1	LOCK	838	n/a	n/a	-1	n/a	n/a	n/a	n/a	n/a
2356471	REC_WORD	wordpools/wasnorm_wordpool_less_exclusions.txt	LTP333	ltpFR	1	15	n/a	STAIRCASE	-1	n/a	n/a	n/a	n/a	n/a	n/a	n/a	n/a
2357471	REC_WORD_VV	wordpools/wasnorm_wordpool_less_exclusions.txt	LTP333	ltpFR	1	15	n/a	<>	-1	n/a	n/a	n/a	n/a	n/a	n/a	n/a	n/a
2357868	REC_WORD	wordpools/wasnorm_wordpool_less_exclusions.txt	LTP333	ltpFR	1	15	-1	TART	1436	n/a	n/a	-1	n/a	n/a	n/a	n/a	n/a
2359656	REC_WORD	wordpools/wasnorm_wordpool_less_exclusions.txt	LTP333	ltpFR	1	15	-1	TREAT	1501	n/a	n/a	-1	n/a	n/a	n/a	n/a	n/a
2361534	REC_WORD	wordpools/wasnorm_wordpool_less_exclusions.txt	LTP333	ltpFR	1	15	-1	TAXI	1438	n/a	n/a	-1	n/a	n/a	n/a	n/a	n/a
2362742	REC_WORD	wordpools/wasnorm_wordpool_less_exclusions.txt	LTP333	ltpFR	1	15	-1	LAMB	797	n/a	n/a	-1	n/a	n/a	n/a	n/a	n/a
2364378	REC_WORD	wordpools/wasnorm_wordpool_less_exclusions.txt	LTP333	ltpFR	1	15	-1	SCARF	1246	n/a	n/a	-1	n/a	n/a	n/a	n/a	n/a
2366141	REC_WORD	wordpools/wasnorm_wordpool_less_exclusions.txt	LTP333	ltpFR	1	15	-1	BRIDGE	174	n/a	n/a	-1	n/a	n/a	n/a	n/a	n/a
2369549	REC_WORD	wordpools/wasnorm_wordpool_less_exclusions.txt	LTP333	ltpFR	1	15	-1	CONCRETE	361	n/a	n/a	-1	n/a	n/a	n/a	n/a	n/a
2400209	REC_WORD	wordpools/wasnorm_wordpool_less_exclusions.txt	LTP333	ltpFR	1	15	-1	CUFF	423	n/a	n/a	-1	n/a	n/a	n/a	n/a	n/a
2427894	WORD	wordpools/wasnorm_wordpool_less_exclusions.txt	LTP333	ltpFR	1	16	0	MAGNET	855	n/a	n/a	0	0.422607421875	0.5869140625	0	upper	zerothre.ttf
2432125	WORD	wordpools/wasnorm_wordpool_less_exclusions.txt	LTP333	ltpFR	1	16	0	GLACIER	638	n/a	n/a	1	0.422607421875	0.5869140625	0	upper	zerothre.ttf
2436223	WORD	wordpools/wasnorm_wordpool_less_exclusions.txt	LTP333	ltpFR	1	16	0	SHELTER	1282	n/a	n/a	1	0.422607421875	0.5869140625	0	upper	zerothre.ttf
2440371	WORD	wordpools/wasnorm_wordpool_less_exclusions.txt	LTP333	ltpFR	1	16	0	TIGER	1467	n/a	n/a	1	0.422607421875	0.5869140625	0	upper	zerothre.ttf
2444319	WORD	wordpools/wasnorm_wordpool_less_exclusions.txt	LTP333	ltpFR	1	16	0	BUILDER	190	n/a	n/a	1	0.422607421875	0.5869140625	0	upper	zerothre.ttf
2448467	WORD	wordpools/wasnorm_wordpool_less_exclusions.txt	LTP333	ltpFR	1	16	0	PAN	1008	n/a	n/a	0	0.422607421875	0.5869140625	0	upper	zerothre.ttf
2452581	WORD	wordpools/wasnorm_wordpool_less_exclusions.txt	LTP333	ltpFR	1	16	0	LION	827	n/a	n/a	1	0.422607421875	0.5869140625	0	upper	zerothre.ttf
2456495	WORD	wordpools/wasnorm_wordpool_less_exclusions.txt	LTP333	ltpFR	1	16	0	CHILD	299	n/a	n/a	0	0.422607421875	0.5869140625	0	upper	zerothre.ttf
2460728	WORD	wordpools/wasnorm_wordpool_less_exclusions.txt	LTP333	ltpFR	1	16	0	LIST	830	n/a	n/a	0	0.422607421875	0.5869140625	0	upper	zerothre.ttf
2464675	WORD	wordpools/wasnorm_wordpool_less_exclusions.txt	LTP333	ltpFR	1	16	0	HUT	729	n/a	n/a	1	0.422607421875	0.5869140625	0	upper	zerothre.ttf
2468757	WORD	wordpools/wasnorm_wordpool_less_exclusions.txt	LTP333	ltpFR	1	16	0	DEODORANT	448	n/a	n/a	0	0.422607421875	0.5869140625	0	upper	zerothre.ttf
2472722	WORD	wordpools/wasnorm_wordpool_less_exclusions.txt	LTP333	ltpFR	1	16	0	FRAGRANCE	599	n/a	n/a	0	0.422607421875	0.5869140625	0	upper	zerothre.ttf
2476770	WORD	wordpools/wasnorm_wordpool_less_exclusions.txt	LTP333	ltpFR	1	16	0	CANVAS	234	n/a	n/a	1	0.422607421875	0.5869140625	0	upper	zerothre.ttf
2480851	WORD	wordpools/wasnorm_wordpool_less_exclusions.txt	LTP333	ltpFR	1	16	0	MUSEUM	933	n/a	n/a	1	0.422607421875	0.5869140625	0	upper	zerothre.ttf
2484882	WORD	wordpools/wasnorm_wordpool_less_exclusions.txt	LTP333	ltpFR	1	16	0	HEADBAND	696	n/a	n/a	0	0.422607421875	0.5869140625	0	upper	zerothre.ttf
2488897	WORD	wordpools/wasnorm_wordpool_less_exclusions.txt	LTP333	ltpFR	1	16	0	PLASTER	1085	n/a	n/a	0	0.422607421875	0.5869140625	0	upper	zerothre.ttf
2495028	REC_START	n/a	LTP333	ltpFR	1	16	n/a	n/a	n/a	n/a	n/a	n/a	n/a	n/a	n/a	n/a	n/a
2496976	REC_WORD	wordpools/wasnorm_wordpool_less_exclusions.txt	LTP333	ltpFR	1	16	0	SHELTER	1282	n/a	n/a	1	n/a	n/a	n/a	n/a	n/a
2498468	REC_WORD	wordpools/wasnorm_wordpool_less_exclusions.txt	LTP333	ltpFR	1	16	0	GLACIER	638	n/a	n/a	1	n/a	n/a	n/a	n/a	n/a
2500466	REC_WORD	wordpools/wasnorm_wordpool_less_exclusions.txt	LTP333	ltpFR	1	16	0	TIGER	1467	n/a	n/a	1	n/a	n/a	n/a	n/a	n/a
2501746	REC_WORD	wordpools/wasnorm_wordpool_less_exclusions.txt	LTP333	ltpFR	1	16	0	HEADBAND	696	n/a	n/a	0	n/a	n/a	n/a	n/a	n/a
2504348	REC_WORD	wordpools/wasnorm_wordpool_less_exclusions.txt	LTP333	ltpFR	1	16	0	HUT	729	n/a	n/a	1	n/a	n/a	n/a	n/a	n/a
2505246	REC_WORD	wordpools/wasnorm_wordpool_less_exclusions.txt	LTP333	ltpFR	1	16	0	MUSEUM	933	n/a	n/a	1	n/a	n/a	n/a	n/a	n/a
2506246	REC_WORD_VV	wordpools/wasnorm_wordpool_less_exclusions.txt	LTP333	ltpFR	1	16	n/a	<>	-1	n/a	n/a	n/a	n/a	n/a	n/a	n/a	n/a
2507224	REC_WORD	wordpools/wasnorm_wordpool_less_exclusions.txt	LTP333	ltpFR	1	16	0	CHILD	299	n/a	n/a	0	n/a	n/a	n/a	n/a	n/a
2508976	REC_WORD	wordpools/wasnorm_wordpool_less_exclusions.txt	LTP333	ltpFR	1	16	0	MAGNET	855	n/a	n/a	0	n/a	n/a	n/a	n/a	n/a
2515002	REC_WORD	wordpools/wasnorm_wordpool_less_exclusions.txt	LTP333	ltpFR	1	16	0	PLASTER	1085	n/a	n/a	0	n/a	n/a	n/a	n/a	n/a
2592579	REC_START	n/a	LTP333	ltpFR	1	n/a	n/a	n/a	n/a	n/a	n/a	n/a	n/a	n/a	n/a	n/a	n/a
2593164	FFR_REC_WORD	wordpools/wasnorm_wordpool_less_exclusions.txt	LTP333	ltpFR	1	n/a	1	PORCUPINE	1107	n/a	n/a	1	n/a	n/a	n/a	n/a	n/a
2594449	FFR_REC_WORD	wordpools/wasnorm_wordpool_less_exclusions.txt	LTP333	ltpFR	1	n/a	1	BUTTERFLY	206	n/a	n/a	1	n/a	n/a	n/a	n/a	n/a
2600239	FFR_REC_WORD	wordpools/wasnorm_wordpool_less_exclusions.txt	LTP333	ltpFR	1	n/a	1	PUCK	1138	n/a	n/a	0	n/a	n/a	n/a	n/a	n/a
2601934	FFR_REC_WORD	wordpools/wasnorm_wordpool_less_exclusions.txt	LTP333	ltpFR	1	n/a	1	MARKET	871	n/a	n/a	0	n/a	n/a	n/a	n/a	n/a
2603759	FFR_REC_WORD	wordpools/wasnorm_wordpool_less_exclusions.txt	LTP333	ltpFR	1	n/a	1	SQUID	1361	n/a	n/a	1	n/a	n/a	n/a	n/a	n/a
2605777	FFR_REC_WORD	wordpools/wasnorm_wordpool_less_exclusions.txt	LTP333	ltpFR	1	n/a	1	FISH	571	n/a	n/a	1	n/a	n/a	n/a	n/a	n/a
2607652	FFR_REC_WORD	wordpools/wasnorm_wordpool_less_exclusions.txt	LTP333	ltpFR	1	n/a	0	DRAGON	492	n/a	n/a	1	n/a	n/a	n/a	n/a	n/a
2608672	FFR_REC_WORD	wordpools/wasnorm_wordpool_less_exclusions.txt	LTP333	ltpFR	1	n/a	0	SPHINX	1349	n/a	n/a	1	n/a	n/a	n/a	n/a	n/a
2609842	FFR_REC_WORD	wordpools/wasnorm_wordpool_less_exclusions.txt	LTP333	ltpFR	1	n/a	0	SKILLET	1317	n/a	n/a	0	n/a	n/a	n/a	n/a	n/a
2611433	FFR_REC_WORD	wordpools/wasnorm_wordpool_less_exclusions.txt	LTP333	ltpFR	1	n/a	0	BACON	67	n/a	n/a	0	n/a	n/a	n/a	n/a	n/a
2613443	FFR_REC_WORD	wordpools/wasnorm_wordpool_less_exclusions.txt	LTP333	ltpFR	1	n/a	-1	LAMB	797	n/a	n/a	-1	n/a	n/a	n/a	n/a	n/a
2614603	FFR_REC_WORD	wordpools/wasnorm_wordpool_less_exclusions.txt	LTP333	ltpFR	1	n/a	1	EWE	542	n/a	n/a	1	n/a	n/a	n/a	n/a	n/a
2620016	FFR_REC_WORD	wordpools/wasnorm_wordpool_less_exclusions.txt	LTP333	ltpFR	1	n/a	0	BELL	118	n/a	n/a	0	n/a	n/a	n/a	n/a	n/a
2621116	FFR_REC_WORD	wordpools/wasnorm_wordpool_less_exclusions.txt	LTP333	ltpFR	1	n/a	0	BIBLE	124	n/a	n/a	0	n/a	n/a	n/a	n/a	n/a
2622096	FFR_REC_WORD	wordpools/wasnorm_wordpool_less_exclusions.txt	LTP333	ltpFR	1	n/a	0	PAGE	1001	n/a	n/a	0	n/a	n/a	n/a	n/a	n/a
2623376	FFR_REC_WORD	wordpools/wasnorm_wordpool_less_exclusions.txt	LTP333	ltpFR	1	n/a	n/a	BOOK	149	n/a	n/a	n/a	n/a	n/a	n/a	n/a	n/a
2624491	FFR_REC_WORD	wordpools/wasnorm_wordpool_less_exclusions.txt	LTP333	ltpFR	1	n/a	0	MARKER	870	n/a	n/a	0	n/a	n/a	n/a	n/a	n/a
2625401	FFR_REC_WORD	wordpools/wasnorm_wordpool_less_exclusions.txt	LTP333	ltpFR	1	n/a	0	SUBMARINE	1398	n/a	n/a	1	n/a	n/a	n/a	n/a	n/a
2626401	FFR_REC_WORD_VV	wordpools/wasnorm_wordpool_less_exclusions.txt	LTP333	ltpFR	1	n/a	n/a	<>	-1	n/a	n/a	n/a	n/a	n/a	n/a	n/a	n/a
2626807	FFR_REC_WORD	wordpools/wasnorm_wordpool_less_exclusions.txt	LTP333	ltpFR	1	n/a	0	BUS	201	n/a	n/a	1	n/a	n/a	n/a	n/a	n/a
2628102	FFR_REC_WORD	wordpools/wasnorm_wordpool_less_exclusions.txt	LTP333	ltpFR	1	n/a	0	RUST	1219	n/a	n/a	0	n/a	n/a	n/a	n/a	n/a
2629237	FFR_REC_WORD	wordpools/wasnorm_wordpool_less_exclusions.txt	LTP333	ltpFR	1	n/a	n/a	CREEK	404	n/a	n/a	n/a	n/a	n/a	n/a	n/a	n/a
2638138	FFR_REC_WORD	wordpools/wasnorm_wordpool_less_exclusions.txt	LTP333	ltpFR	1	n/a	0	HEADBAND	696	n/a	n/a	0	n/a	n/a	n/a	n/a	n/a
2639078	FFR_REC_WORD	wordpools/wasnorm_wordpool_less_exclusions.txt	LTP333	ltpFR	1	n/a	0	CHILD	299	n/a	n/a	0	n/a	n/a	n/a	n/a	n/a
2640019	FFR_REC_WORD	wordpools/wasnorm_wordpool_less_exclusions.txt	LTP333	ltpFR	1	n/a	0	PLASTER	1085	n/a	n/a	0	n/a	n/a	n/a	n/a	n/a
2642214	FFR_REC_WORD	wordpools/wasnorm_wordpool_less_exclusions.txt	LTP333	ltpFR	1	n/a	0	FRAGRANCE	599	n/a	n/a	0	n/a	n/a	n/a	n/a	n/a
2643334	FFR_REC_WORD	wordpools/wasnorm_wordpool_less_exclusions.txt	LTP333	ltpFR	1	n/a	0	DEODORANT	448	n/a	n/a	0	n/a	n/a	n/a	n/a	n/a
2645315	FFR_REC_WORD	wordpools/wasnorm_wordpool_less_exclusions.txt	LTP333	ltpFR	1	n/a	0	SHELTER	1282	n/a	n/a	1	n/a	n/a	n/a	n/a	n/a
2646033	FFR_REC_WORD	wordpools/wasnorm_wordpool_less_exclusions.txt	LTP333	ltpFR	1	n/a	n/a	HOT	-1	n/a	n/a	n/a	n/a	n/a	n/a	n/a	n/a
2647598	FFR_REC_WORD	wordpools/wasnorm_wordpool_less_exclusions.txt	LTP333	ltpFR	1	n/a	0	GLACIER	638	n/a	n/a	1	n/a	n/a	n/a	n/a	n/a
2648643	FFR_REC_WORD	wordpools/wasnorm_wordpool_less_exclusions.txt	LTP333	ltpFR	1	n/a	0	LION	827	n/a	n/a	1	n/a	n/a	n/a	n/a	n/a
2649703	FFR_REC_WORD	wordpools/wasnorm_wordpool_less_exclusions.txt	LTP333	ltpFR	1	n/a	0	TIGER	1467	n/a	n/a	1	n/a	n/a	n/a	n/a	n/a
2652559	FFR_REC_WORD	wordpools/wasnorm_wordpool_less_exclusions.txt	LTP333	ltpFR	1	n/a	-1	LAMB	797	n/a	n/a	-1	n/a	n/a	n/a	n/a	n/a
2654344	FFR_REC_WORD	wordpools/wasnorm_wordpool_less_exclusions.txt	LTP333	ltpFR	1	n/a	-1	SCARF	1246	n/a	n/a	-1	n/a	n/a	n/a	n/a	n/a
2655856	FFR_REC_WORD	wordpools/wasnorm_wordpool_less_exclusions.txt	LTP333	ltpFR	1	n/a	-1	CUFF	423	n/a	n/a	-1	n/a	n/a	n/a	n/a	n/a
2658046	FFR_REC_WORD	wordpools/wasnorm_wordpool_less_exclusions.txt	LTP333	ltpFR	1	n/a	-1	TAXI	1438	n/a	n/a	-1	n/a	n/a	n/a	n/a	n/a
2658996	FFR_REC_WORD	wordpools/wasnorm_wordpool_less_exclusions.txt	LTP333	ltpFR	1	n/a	-1	BRIDGE	174	n/a	n/a	-1	n/a	n/a	n/a	n/a	n/a
2662176	FFR_REC_WORD	wordpools/wasnorm_wordpool_less_exclusions.txt	LTP333	ltpFR	1	n/a	-1	CROW	414	n/a	n/a	-1	n/a	n/a	n/a	n/a	n/a
2663226	FFR_REC_WORD	wordpools/wasnorm_wordpool_less_exclusions.txt	LTP333	ltpFR	1	n/a	-1	SPARROW	1347	n/a	n/a	-1	n/a	n/a	n/a	n/a	n/a
2664897	FFR_REC_WORD	wordpools/wasnorm_wordpool_less_exclusions.txt	LTP333	ltpFR	1	n/a	-1	LOCK	838	n/a	n/a	-1	n/a	n/a	n/a	n/a	n/a
2665691	FFR_REC_WORD	wordpools/wasnorm_wordpool_less_exclusions.txt	LTP333	ltpFR	1	n/a	-1	STAIRS	1367	n/a	n/a	-1	n/a	n/a	n/a	n/a	n/a
2666691	FFR_REC_WORD_VV	wordpools/wasnorm_wordpool_less_exclusions.txt	LTP333	ltpFR	1	n/a	n/a	<>	-1	n/a	n/a	n/a	n/a	n/a	n/a	n/a	n/a
2667681	FFR_REC_WORD	wordpools/wasnorm_wordpool_less_exclusions.txt	LTP333	ltpFR	1	n/a	-1	TART	1436	n/a	n/a	-1	n/a	n/a	n/a	n/a	n/a
2668686	FFR_REC_WORD	wordpools/wasnorm_wordpool_less_exclusions.txt	LTP333	ltpFR	1	n/a	-1	TREAT	1501	n/a	n/a	-1	n/a	n/a	n/a	n/a	n/a
2669891	FFR_REC_WORD	wordpools/wasnorm_wordpool_less_exclusions.txt	LTP333	ltpFR	1	n/a	-1	SHACK	1273	n/a	n/a	-1	n/a	n/a	n/a	n/a	n/a
2671662	FFR_REC_WORD	wordpools/wasnorm_wordpool_less_exclusions.txt	LTP333	ltpFR	1	n/a	1	MARKET	871	n/a	n/a	0	n/a	n/a	n/a	n/a	n/a
2674415	FFR_REC_WORD	wordpools/wasnorm_wordpool_less_exclusions.txt	LTP333	ltpFR	1	n/a	0	WATER	1594	n/a	n/a	1	n/a	n/a	n/a	n/a	n/a
2676485	FFR_REC_WORD	wordpools/wasnorm_wordpool_less_exclusions.txt	LTP333	ltpFR	1	n/a	1	CREW	406	n/a	n/a	1	n/a	n/a	n/a	n/a	n/a
2677565	FFR_REC_WORD	wordpools/wasnorm_wordpool_less_exclusions.txt	LTP333	ltpFR	1	n/a	0	VIKING	1565	n/a	n/a	n/a	n/a	n/a	n/a	n/a	n/a
2678915	FFR_REC_WORD	wordpools/wasnorm_wordpool_less_exclusions.txt	LTP333	ltpFR	1	n/a	0	DWARF	510	n/a	n/a	0	n/a	n/a	n/a	n/a	n/a
2683090	FFR_REC_WORD	wordpools/wasnorm_wordpool_less_exclusions.txt	LTP333	ltpFR	1	n/a	n/a	WAVE	1596	n/a	n/a	n/a	n/a	n/a	n/a	n/a	n/a
2684090	FFR_REC_WORD_VV	wordpools/wasnorm_wordpool_less_exclusions.txt	LTP333	ltpFR	1	n/a	n/a	<>	-1	n/a	n/a	n/a	n/a	n/a	n/a	n/a	n/a
2686320	FFR_REC_WORD	wordpools/wasnorm_wordpool_less_exclusions.txt	LTP333	ltpFR	1	n/a	1	DUNE	506	n/a	n/a	0	n/a	n/a	n/a	n/a	n/a
2690234	FFR_REC_WORD	wordpools/wasnorm_wordpool_less_exclusions.txt	LTP333	ltpFR	1	n/a	1	SUN	1406	n/a	n/a	0	n/a	n/a	n/a	n/a	n/a
2691194	FFR_REC_WORD	wordpools/wasnorm_wordpool_less_exclusions.txt	LTP333	ltpFR	1	n/a	0	CHEF	290	n/a	n/a	0	n/a	n/a	n/a	n/a	n/a
2695844	FFR_REC_WORD	wordpools/wasnorm_wordpool_less_exclusions.txt	LTP333	ltpFR	1	n/a	0	BACON	67	n/a	n/a	0	n/a	n/a	n/a	n/a	n/a
2700109	FFR_REC_WORD	wordpools/wasnorm_wordpool_less_exclusions.txt	LTP333	ltpFR	1	n/a	0	BUN	197	n/a	n/a	0	n/a	n/a	n/a	n/a	n/a
2706814	FFR_REC_WORD	wordpools/wasnorm_wordpool_less_exclusions.txt	LTP333	ltpFR	1	n/a	1	SIBLING	1301	n/a	n/a	1	n/a	n/a	n/a	n/a	n/a
2727550	FFR_REC_WORD	wordpools/wasnorm_wordpool_less_exclusions.txt	LTP333	ltpFR	1	n/a	1	KEY	773	n/a	n/a	n/a	n/a	n/a	n/a	n/a	n/a
2731315	FFR_REC_WORD	wordpools/wasnorm_wordpool_less_exclusions.txt	LTP333	ltpFR	1	n/a	-1	STUMP	1396	n/a	n/a	-1	n/a	n/a	n/a	n/a	n/a
2735166	FFR_REC_WORD	wordpools/wasnorm_wordpool_less_exclusions.txt	LTP333	ltpFR	1	n/a	1	PLANT	1083	n/a	n/a	1	n/a	n/a	n/a	n/a	n/a
2736182	FFR_REC_WORD	wordpools/wasnorm_wordpool_less_exclusions.txt	LTP333	ltpFR	1	n/a	1	LEAF	808	n/a	n/a	1	n/a	n/a	n/a	n/a	n/a
2737892	FFR_REC_WORD	wordpools/wasnorm_wordpool_less_exclusions.txt	LTP333	ltpFR	1	n/a	1	ROBOT	1200	n/a	n/a	0	n/a	n/a	n/a	n/a	n/a
2739152	FFR_REC_WORD	wordpools/wasnorm_wordpool_less_exclusions.txt	LTP333	ltpFR	1	n/a	1	ACTOR	5	n/a	n/a	1	n/a	n/a	n/a	n/a	n/a
2740232	FFR_REC_WORD	wordpools/wasnorm_wordpool_less_exclusions.txt	LTP333	ltpFR	1	n/a	1	ACTRESS	6	n/a	n/a	1	n/a	n/a	n/a	n/a	n/a
2744115	FFR_REC_WORD	wordpools/wasnorm_wordpool_less_exclusions.txt	LTP333	ltpFR	1	n/a	0	MULE	931	n/a	n/a	1	n/a	n/a	n/a	n/a	n/a
2745430	FFR_REC_WORD	wordpools/wasnorm_wordpool_less_exclusions.txt	LTP333	ltpFR	1	n/a	0	OATS	968	n/a	n/a	0	n/a	n/a	n/a	n/a	n/a
2758660	FFR_REC_WORD	wordpools/wasnorm_wordpool_less_exclusions.txt	LTP333	ltpFR	1	n/a	0	MALL	860	n/a	n/a	1	n/a	n/a	n/a	n/a	n/a
2761600	FFR_REC_WORD	wordpools/wasnorm_wordpool_less_exclusions.txt	LTP333	ltpFR	1	n/a	-1	CONCRETE	361	n/a	n/a	-1	n/a	n/a	n/a	n/a	n/a
2764966	FFR_REC_WORD	wordpools/wasnorm_wordpool_less_exclusions.txt	LTP333	ltpFR	1	n/a	0	SIDEWALK	1303	n/a	n/a	1	n/a	n/a	n/a	n/a	n/a
2801491	FFR_REC_WORD	wordpools/wasnorm_wordpool_less_exclusions.txt	LTP333	ltpFR	1	n/a	1	MOOSE	915	n/a	n/a	1	n/a	n/a	n/a	n/a	n/a
2802671	FFR_REC_WORD	wordpools/wasnorm_wordpool_less_exclusions.txt	LTP333	ltpFR	1	n/a	1	LIEUTENANT	818	n/a	n/a	1	n/a	n/a	n/a	n/a	n/a
2828014	FFR_REC_WORD	wordpools/wasnorm_wordpool_less_exclusions.txt	LTP333	ltpFR	1	n/a	0	CAT	257	n/a	n/a	0	n/a	n/a	n/a	n/a	n/a
2829269	FFR_REC_WORD	wordpools/wasnorm_wordpool_less_exclusions.txt	LTP333	ltpFR	1	n/a	1	CLAW	319	n/a	n/a	0	n/a	n/a	n/a	n/a	n/a
2839119	FFR_REC_WORD	wordpools/wasnorm_wordpool_less_exclusions.txt	LTP333	ltpFR	1	n/a	0	CHAMBER	277	n/a	n/a	1	n/a	n/a	n/a	n/a	n/a
2842794	FFR_REC_WORD	wordpools/wasnorm_wordpool_less_exclusions.txt	LTP333	ltpFR	1	n/a	0	SHELTER	1282	n/a	n/a	1	n/a	n/a	n/a	n/a	n/a
2853534	FFR_REC_WORD	wordpools/wasnorm_wordpool_less_exclusions.txt	LTP333	ltpFR	1	n/a	1	MOUTH	926	n/a	n/a	0	n/a	n/a	n/a	n/a	n/a
2881654	FFR_REC_WORD	wordpools/wasnorm_wordpool_less_exclusions.txt	LTP333	ltpFR	1	n/a	0	NEPHEW	942	n/a	n/a	1	n/a	n/a	n/a	n/a	n/a
2883004	FFR_REC_WORD	wordpools/wasnorm_wordpool_less_exclusions.txt	LTP333	ltpFR	1	n/a	0	SAXOPHONE	1240	n/a	n/a	1	n/a	n/a	n/a	n/a	n/a
2884004	FFR_REC_WORD_VV	wordpools/wasnorm_wordpool_less_exclusions.txt	LTP333	ltpFR	1	n/a	n/a	<>	-1	n/a	n/a	n/a	n/a	n/a	n/a	n/a	n/a
2885828	FFR_REC_WORD	wordpools/wasnorm_wordpool_less_exclusions.txt	LTP333	ltpFR	1	n/a	-1	GRILL	661	n/a	n/a	-1	n/a	n/a	n/a	n/a	n/a
2886833	FFR_REC_WORD	wordpools/wasnorm_wordpool_less_exclusions.txt	LTP333	ltpFR	1	n/a	-1	PIKE	1067	n/a	n/a	-1	n/a	n/a	n/a	n/a	n/a
2887743	FFR_REC_WORD	wordpools/wasnorm_wordpool_less_exclusions.txt	LTP333	ltpFR	1	n/a	-1	ROBIN	1199	n/a	n/a	-1	n/a	n/a	n/a	n/a	n/a
2889263	FFR_REC_WORD	wordpools/wasnorm_wordpool_less_exclusions.txt	LTP333	ltpFR	1	n/a	n/a	FOLDER	588	n/a	n/a	n/a	n/a	n/a	n/a	n/a	n/a
2890347	FFR_REC_WORD	wordpools/wasnorm_wordpool_less_exclusions.txt	LTP333	ltpFR	1	n/a	-1	SWING	1421	n/a	n/a	-1	n/a	n/a	n/a	n/a	n/a
2891347	FFR_REC_WORD_VV	wordpools/wasnorm_wordpool_less_exclusions.txt	LTP333	ltpFR	1	n/a	n/a	<>	-1	n/a	n/a	n/a	n/a	n/a	n/a	n/a	n/a
2892001	FFR_REC_WORD	wordpools/wasnorm_wordpool_less_exclusions.txt	LTP333	ltpFR	1	n/a	-1	DOVE	491	n/a	n/a	-1	n/a	n/a	n/a	n/a	n/a
2893180	REST_REWET	n/a	LTP333	ltpFR	1	16	n/a	n/a	n/a	n/a	n/a	n/a	n/a	n/a	n/a	n/a	n/a
2963006	REC_START	n/a	LTP333	ltpFR	1	1	n/a	n/a	n/a	n/a	n/a	n/a	n/a	n/a	n/a	n/a	n/a
2963045	RECOG_LURE	n/a	LTP333	ltpFR	1	1	n/a	PIGEON	1065	0	3	n/a	n/a	n/a	n/a	n/a	n/a
2964499	RECOG_RESP	n/a	LTP333	ltpFR	1	1	n/a	PIGEON	1065	0	n/a	n/a	n/a	n/a	n/a	n/a	n/a
2966391	RECOG_CONF	n/a	LTP333	ltpFR	1	1	n/a	PIGEON	1065	n/a	3	n/a	n/a	n/a	n/a	n/a	n/a
2968259	RECOG_TARGET	n/a	LTP333	ltpFR	1	1	-1	HORIZON	717	1	4	-1	n/a	n/a	n/a	n/a	n/a
2970085	RECOG_RESP	n/a	LTP333	ltpFR	1	1	-1	HORIZON	717	1	n/a	-1	n/a	n/a	n/a	n/a	n/a
2971203	RECOG_CONF	n/a	LTP333	ltpFR	1	1	-1	HORIZON	717	n/a	4	-1	n/a	n/a	n/a	n/a	n/a
2973007	RECOG_LURE	n/a	LTP333	ltpFR	1	1	n/a	PURSE	1145	0	2	n/a	n/a	n/a	n/a	n/a	n/a
2974319	RECOG_RESP	n/a	LTP333	ltpFR	1	1	n/a	PURSE	1145	0	n/a	n/a	n/a	n/a	n/a	n/a	n/a
2975698	RECOG_CONF	n/a	LTP333	ltpFR	1	1	n/a	PURSE	1145	n/a	2	n/a	n/a	n/a	n/a	n/a	n/a
2977537	RECOG_LURE	n/a	LTP333	ltpFR	1	1	n/a	RESTAURANT	1187	0	3	n/a	n/a	n/a	n/a	n/a	n/a
2978944	RECOG_RESP	n/a	LTP333	ltpFR	1	1	n/a	RESTAURANT	1187	0	n/a	n/a	n/a	n/a	n/a	n/a	n/a
2980331	RECOG_CONF	n/a	LTP333	ltpFR	1	1	n/a	RESTAURANT	1187	n/a	3	n/a	n/a	n/a	n/a	n/a	n/a
2982402	RECOG_LURE	n/a	LTP333	ltpFR	1	1	n/a	TONGUE	1479	0	4	n/a	n/a	n/a	n/a	n/a	n/a
2983679	RECOG_RESP	n/a	LTP333	ltpFR	1	1	n/a	TONGUE	1479	0	n/a	n/a	n/a	n/a	n/a	n/a	n/a
2984743	RECOG_CONF	n/a	LTP333	ltpFR	1	1	n/a	TONGUE	1479	n/a	4	n/a	n/a	n/a	n/a	n/a	n/a
2986367	RECOG_TARGET	n/a	LTP333	ltpFR	1	1	1	BLANKET	135	1	3	0	n/a	n/a	n/a	n/a	n/a
2987705	RECOG_RESP	n/a	LTP333	ltpFR	1	1	1	BLANKET	135	1	n/a	0	n/a	n/a	n/a	n/a	n/a
2989291	RECOG_CONF	n/a	LTP333	ltpFR	1	1	1	BLANKET	135	n/a	3	0	n/a	n/a	n/a	n/a	n/a
2991081	RECOG_TARGET	n/a	LTP333	ltpFR	1	1	-1	TOWER	1490	0	5	-1	n/a	n/a	n/a	n/a	n/a
2992329	RECOG_RESP	n/a	LTP333	ltpFR	1	1	-1	TOWER	1490	0	n/a	-1	n/a	n/a	n/a	n/a	n/a
2993233	RECOG_CONF	n/a	LTP333	ltpFR	1	1	-1	TOWER	1490	n/a	5	-1	n/a	n/a	n/a	n/a	n/a
2994962	RECOG_TARGET	n/a	LTP333	ltpFR	1	1	1	SIBLING	1301	1	5	1	n/a	n/a	n/a	n/a	n/a
2995860	RECOG_RESP	n/a	LTP333	ltpFR	1	1	1	SIBLING	1301	1	n/a	1	n/a	n/a	n/a	n/a	n/a
2996623	RECOG_CONF	n/a	LTP333	ltpFR	1	1	1	SIBLING	1301	n/a	5	1	n/a	n/a	n/a	n/a	n/a
2998344	RECOG_LURE	n/a	LTP333	ltpFR	1	1	n/a	BOXER	160	0	1	n/a	n/a	n/a	n/a	n/a	n/a
3000504	RECOG_RESP	n/a	LTP333	ltpFR	1	1	n/a	BOXER	160	0	n/a	n/a	n/a	n/a	n/a	n/a	n/a
3001138	RECOG_CONF	n/a	LTP333	ltpFR	1	1	n/a	BOXER	160	n/a	1	n/a	n/a	n/a	n/a	n/a	n/a
3003425	RECOG_LURE	n/a	LTP333	ltpFR	1	1	n/a	GUN	673	0	4	n/a	n/a	n/a	n/a	n/a	n/a
3004449	RECOG_RESP	n/a	LTP333	ltpFR	1	1	n/a	GUN	673	0	n/a	n/a	n/a	n/a	n/a	n/a	n/a
3005423	RECOG_CONF	n/a	LTP333	ltpFR	1	1	n/a	GUN	673	n/a	4	n/a	n/a	n/a	n/a	n/a	n/a
3007040	RECOG_TARGET	n/a	LTP333	ltpFR	1	1	1	OCTOPUS	971	1	5	1	n/a	n/a	n/a	n/a	n/a
3008375	RECOG_RESP	n/a	LTP333	ltpFR	1	1	1	OCTOPUS	971	1	n/a	1	n/a	n/a	n/a	n/a	n/a
3009203	RECOG_CONF	n/a	LTP333	ltpFR	1	1	1	OCTOPUS	971	n/a	5	1	n/a	n/a	n/a	n/a	n/a
3010888	RECOG_TARGET	n/a	LTP333	ltpFR	1	1	-1	STAIRS	1367	1	5	-1	n/a	n/a	n/a	n/a	n/a
3011930	RECOG_RESP	n/a	LTP333	ltpFR	1	1	-1	STAIRS	1367	1	n/a	-1	n/a	n/a	n/a	n/a	n/a
3012643	RECOG_CONF	n/a	LTP333	ltpFR	1	1	-1	STAIRS	1367	n/a	5	-1	n/a	n/a	n/a	n/a	n/a
3014585	RECOG_TARGET	n/a	LTP333	ltpFR	1	1	0	BARLEY	88	1	4	0	n/a	n/a	n/a	n/a	n/a
3015645	RECOG_RESP	n/a	LTP333	ltpFR	1	1	0	BARLEY	88	1	n/a	0	n/a	n/a	n/a	n/a	n/a
3016733	RECOG_CONF	n/a	LTP333	ltpFR	1	1	0	BARLEY	88	n/a	4	0	n/a	n/a	n/a	n/a	n/a
3018583	RECOG_LURE	n/a	LTP333	ltpFR	1	1	n/a	STABLE	1363	1	2	n/a	n/a	n/a	n/a	n/a	n/a
3019630	RECOG_RESP	n/a	LTP333	ltpFR	1	1	n/a	STABLE	1363	1	n/a	n/a	n/a	n/a	n/a	n/a	n/a
3020688	RECOG_CONF	n/a	LTP333	ltpFR	1	1	n/a	STABLE	1363	n/a	2	n/a	n/a	n/a	n/a	n/a	n/a
3022498	RECOG_LURE	n/a	LTP333	ltpFR	1	1	n/a	PIG	1064	1	1	n/a	n/a	n/a	n/a	n/a	n/a
3024600	RECOG_RESP	n/a	LTP333	ltpFR	1	1	n/a	PIG	1064	1	n/a	n/a	n/a	n/a	n/a	n/a	n/a
3025198	RECOG_CONF	n/a	LTP333	ltpFR	1	1	n/a	PIG	1064	n/a	1	n/a	n/a	n/a	n/a	n/a	n/a
3027296	RECOG_TARGET	n/a	LTP333	ltpFR	1	1	1	MOOSE	915	1	5	1	n/a	n/a	n/a	n/a	n/a
3028150	RECOG_RESP	n/a	LTP333	ltpFR	1	1	1	MOOSE	915	1	n/a	1	n/a	n/a	n/a	n/a	n/a
3029013	RECOG_CONF	n/a	LTP333	ltpFR	1	1	1	MOOSE	915	n/a	5	1	n/a	n/a	n/a	n/a	n/a
3030828	RECOG_TARGET	n/a	LTP333	ltpFR	1	1	1	SWEATER	1419	1	5	0	n/a	n/a	n/a	n/a	n/a
3031720	RECOG_RESP	n/a	LTP333	ltpFR	1	1	1	SWEATER	1419	1	n/a	0	n/a	n/a	n/a	n/a	n/a
3032503	RECOG_CONF	n/a	LTP333	ltpFR	1	1	1	SWEATER	1419	n/a	5	0	n/a	n/a	n/a	n/a	n/a
3034326	RECOG_TARGET	n/a	LTP333	ltpFR	1	1	-1	STUMP	1396	1	5	-1	n/a	n/a	n/a	n/a	n/a
3035160	RECOG_RESP	n/a	LTP333	ltpFR	1	1	-1	STUMP	1396	1	n/a	-1	n/a	n/a	n/a	n/a	n/a
3036053	RECOG_CONF	n/a	LTP333	ltpFR	1	1	-1	STUMP	1396	n/a	5	-1	n/a	n/a	n/a	n/a	n/a
3037858	RECOG_LURE	n/a	LTP333	ltpFR	1	1	n/a	SAP	1233	0	4	n/a	n/a	n/a	n/a	n/a	n/a
3038844	RECOG_RESP	n/a	LTP333	ltpFR	1	1	n/a	SAP	1233	0	n/a	n/a	n/a	n/a	n/a	n/a	n/a
3039803	RECOG_CONF	n/a	LTP333	ltpFR	1	1	n/a	SAP	1233	n/a	4	n/a	n/a	n/a	n/a	n/a	n/a
3041538	RECOG_LURE	n/a	LTP333	ltpFR	1	1	n/a	IGLOO	734	0	5	n/a	n/a	n/a	n/a	n/a	n/a
3042489	RECOG_RESP	n/a	LTP333	ltpFR	1	1	n/a	IGLOO	734	0	n/a	n/a	n/a	n/a	n/a	n/a	n/a
3043363	RECOG_CONF	n/a	LTP333	ltpFR	1	1	n/a	IGLOO	734	n/a	5	n/a	n/a	n/a	n/a	n/a	n/a
3049460	REC_START	n/a	LTP333	ltpFR	1	2	n/a	n/a	n/a	n/a	n/a	n/a	n/a	n/a	n/a	n/a	n/a
3049484	RECOG_LURE	n/a	LTP333	ltpFR	1	2	n/a	BELT	120	0	3	n/a	n/a	n/a	n/a	n/a	n/a
3050783	RECOG_RESP	n/a	LTP333	ltpFR	1	2	n/a	BELT	120	0	n/a	n/a	n/a	n/a	n/a	n/a	n/a
3052245	RECOG_CONF	n/a	LTP333	ltpFR	1	2	n/a	BELT	120	n/a	3	n/a	n/a	n/a	n/a	n/a	n/a
3054016	RECOG_LURE	n/a	LTP333	ltpFR	1	2	n/a	MONK	910	1	2	n/a	n/a	n/a	n/a	n/a	n/a
3056154	RECOG_RESP	n/a	LTP333	ltpFR	1	2	n/a	MONK	910	1	n/a	n/a	n/a	n/a	n/a	n/a	n/a
3057802	RECOG_CONF	n/a	LTP333	ltpFR	1	2	n/a	MONK	910	n/a	2	n/a	n/a	n/a	n/a	n/a	n/a
3059596	RECOG_LURE	n/a	LTP333	ltpFR	1	2	n/a	ASSISTANT	48	0	4	n/a	n/a	n/a	n/a	n/a	n/a
3061174	RECOG_RESP_VV	n/a	LTP333	ltpFR	1	2	n/a	ASSISTANT	48	1	n/a	n/a	n/a	n/a	n/a	n/a	n/a
3062933	RECOG_RESP_VV	n/a	LTP333	ltpFR	1	2	n/a	ASSISTANT	48	0	n/a	n/a	n/a	n/a	n/a	n/a	n/a
3063983	RECOG_RESP	n/a	LTP333	ltpFR	1	2	n/a	ASSISTANT	48	0	n/a	n/a	n/a	n/a	n/a	n/a	n/a
3066607	RECOG_CONF	n/a	LTP333	ltpFR	1	2	n/a	ASSISTANT	48	n/a	4	n/a	n/a	n/a	n/a	n/a	n/a
3068491	RECOG_TARGET	n/a	LTP333	ltpFR	1	2	0	PLASTER	1085	1	5	0	n/a	n/a	n/a	n/a	n/a
3069519	RECOG_RESP	n/a	LTP333	ltpFR	1	2	0	PLASTER	1085	1	n/a	0	n/a	n/a	n/a	n/a	n/a
3070667	RECOG_CONF	n/a	LTP333	ltpFR	1	2	0	PLASTER	1085	n/a	5	0	n/a	n/a	n/a	n/a	n/a
3072307	RECOG_LURE	n/a	LTP333	ltpFR	1	2	n/a	CROCODILE	411	0	3	n/a	n/a	n/a	n/a	n/a	n/a
3075033	RECOG_RESP	n/a	LTP333	ltpFR	1	2	n/a	CROCODILE	411	0	n/a	n/a	n/a	n/a	n/a	n/a	n/a
3076145	RECOG_CONF	n/a	LTP333	ltpFR	1	2	n/a	CROCODILE	411	n/a	3	n/a	n/a	n/a	n/a	n/a	n/a
3078071	RECOG_LURE	n/a	LTP333	ltpFR	1	2	n/a	PEBBLE	1035	0	3	n/a	n/a	n/a	n/a	n/a	n/a
3079533	RECOG_RESP	n/a	LTP333	ltpFR	1	2	n/a	PEBBLE	1035	0	n/a	n/a	n/a	n/a	n/a	n/a	n/a
3080775	RECOG_CONF	n/a	LTP333	ltpFR	1	2	n/a	PEBBLE	1035	n/a	3	n/a	n/a	n/a	n/a	n/a	n/a
3082534	RECOG_TARGET	n/a	LTP333	ltpFR	1	2	1	CUB	419	1	5	1	n/a	n/a	n/a	n/a	n/a
3083494	RECOG_RESP	n/a	LTP333	ltpFR	1	2	1	CUB	419	1	n/a	1	n/a	n/a	n/a	n/a	n/a
3084517	RECOG_CONF	n/a	LTP333	ltpFR	1	2	1	CUB	419	n/a	5	1	n/a	n/a	n/a	n/a	n/a
3086150	RECOG_LURE	n/a	LTP333	ltpFR	1	2	n/a	CANE	231	0	4	n/a	n/a	n/a	n/a	n/a	n/a
3088248	RECOG_RESP	n/a	LTP333	ltpFR	1	2	n/a	CANE	231	0	n/a	n/a	n/a	n/a	n/a	n/a	n/a
3089147	RECOG_CONF	n/a	LTP333	ltpFR	1	2	n/a	CANE	231	n/a	4	n/a	n/a	n/a	n/a	n/a	n/a
3090965	RECOG_LURE	n/a	LTP333	ltpFR	1	2	n/a	DRAWER	493	0	2	n/a	n/a	n/a	n/a	n/a	n/a
3092593	RECOG_RESP	n/a	LTP333	ltpFR	1	2	n/a	DRAWER	493	0	n/a	n/a	n/a	n/a	n/a	n/a	n/a
3093992	RECOG_CONF	n/a	LTP333	ltpFR	1	2	n/a	DRAWER	493	n/a	2	n/a	n/a	n/a	n/a	n/a	n/a
3095729	RECOG_LURE	n/a	LTP333	ltpFR	1	2	n/a	FRIES	607	0	3	n/a	n/a	n/a	n/a	n/a	n/a
3096753	RECOG_RESP	n/a	LTP333	ltpFR	1	2	n/a	FRIES	607	0	n/a	n/a	n/a	n/a	n/a	n/a	n/a
3097865	RECOG_CONF	n/a	LTP333	ltpFR	1	2	n/a	FRIES	607	n/a	3	n/a	n/a	n/a	n/a	n/a	n/a
3099643	RECOG_TARGET	n/a	LTP333	ltpFR	1	2	1	DINNER	468	1	4	0	n/a	n/a	n/a	n/a	n/a
3101564	RECOG_RESP	n/a	LTP333	ltpFR	1	2	1	DINNER	468	1	n/a	0	n/a	n/a	n/a	n/a	n/a
3102637	RECOG_CONF	n/a	LTP333	ltpFR	1	2	1	DINNER	468	n/a	4	0	n/a	n/a	n/a	n/a	n/a
3104475	RECOG_TARGET	n/a	LTP333	ltpFR	1	2	0	POLYESTER	1100	1	5	0	n/a	n/a	n/a	n/a	n/a
3105409	RECOG_RESP	n/a	LTP333	ltpFR	1	2	0	POLYESTER	1100	1	n/a	0	n/a	n/a	n/a	n/a	n/a
3106417	RECOG_CONF	n/a	LTP333	ltpFR	1	2	0	POLYESTER	1100	n/a	5	0	n/a	n/a	n/a	n/a	n/a
3108239	RECOG_TARGET	n/a	LTP333	ltpFR	1	2	-1	STOOL	1386	1	5	-1	n/a	n/a	n/a	n/a	n/a
3109004	RECOG_RESP	n/a	LTP333	ltpFR	1	2	-1	STOOL	1386	1	n/a	-1	n/a	n/a	n/a	n/a	n/a
3110057	RECOG_CONF	n/a	LTP333	ltpFR	1	2	-1	STOOL	1386	n/a	5	-1	n/a	n/a	n/a	n/a	n/a
3112054	RECOG_LURE	n/a	LTP333	ltpFR	1	2	n/a	NUCLEUS	961	1	1	n/a	n/a	n/a	n/a	n/a	n/a
3113304	RECOG_RESP	n/a	LTP333	ltpFR	1	2	n/a	NUCLEUS	961	1	n/a	n/a	n/a	n/a	n/a	n/a	n/a
3115442	RECOG_CONF	n/a	LTP333	ltpFR	1	2	n/a	NUCLEUS	961	n/a	1	n/a	n/a	n/a	n/a	n/a	n/a
3117351	RECOG_LURE	n/a	LTP333	ltpFR	1	2	n/a	ENEMY	534	0	5	n/a	n/a	n/a	n/a	n/a	n/a
3118618	RECOG_RESP	n/a	LTP333	ltpFR	1	2	n/a	ENEMY	534	0	n/a	n/a	n/a	n/a	n/a	n/a	n/a
3119737	RECOG_CONF	n/a	LTP333	ltpFR	1	2	n/a	ENEMY	534	n/a	5	n/a	n/a	n/a	n/a	n/a	n/a
3121532	RECOG_TARGET	n/a	LTP333	ltpFR	1	2	-1	SINK	1309	1	2	-1	n/a	n/a	n/a	n/a	n/a
3123604	RECOG_RESP	n/a	LTP333	ltpFR	1	2	-1	SINK	1309	1	n/a	-1	n/a	n/a	n/a	n/a	n/a
3124922	RECOG_CONF	n/a	LTP333	ltpFR	1	2	-1	SINK	1309	n/a	2	-1	n/a	n/a	n/a	n/a	n/a
3126763	RECOG_LURE	n/a	LTP333	ltpFR	1	2	n/a	SCREEN	1253	0	3	n/a	n/a	n/a	n/a	n/a	n/a
3128613	RECOG_RESP	n/a	LTP333	ltpFR	1	2	n/a	SCREEN	1253	0	n/a	n/a	n/a	n/a	n/a	n/a	n/a
3130105	RECOG_CONF	n/a	LTP333	ltpFR	1	2	n/a	SCREEN	1253	n/a	3	n/a	n/a	n/a	n/a	n/a	n/a
3132077	RECOG_LURE	n/a	LTP333	ltpFR	1	2	n/a	TURTLE	1522	0	5	n/a	n/a	n/a	n/a	n/a	n/a
3133213	RECOG_RESP	n/a	LTP333	ltpFR	1	2	n/a	TURTLE	1522	0	n/a	n/a	n/a	n/a	n/a	n/a	n/a
3134657	RECOG_CONF	n/a	LTP333	ltpFR	1	2	n/a	TURTLE	1522	n/a	5	n/a	n/a	n/a	n/a	n/a	n/a
3136459	RECOG_TARGET	n/a	LTP333	ltpFR	1	2	0	FRIEND	606	1	5	1	n/a	n/a	n/a	n/a	n/a
3137919	RECOG_RESP	n/a	LTP333	ltpFR	1	2	0	FRIEND	606	1	n/a	1	n/a	n/a	n/a	n/a	n/a
3139067	RECOG_CONF	n/a	LTP333	ltpFR	1	2	0	FRIEND	606	n/a	5	1	n/a	n/a	n/a	n/a	n/a
3141006	RECOG_TARGET	n/a	LTP333	ltpFR	1	2	1	RADISH	1158	1	5	1	n/a	n/a	n/a	n/a	n/a
3141934	RECOG_RESP	n/a	LTP333	ltpFR	1	2	1	RADISH	1158	1	n/a	1	n/a	n/a	n/a	n/a	n/a
3142887	RECOG_CONF	n/a	LTP333	ltpFR	1	2	1	RADISH	1158	n/a	5	1	n/a	n/a	n/a	n/a	n/a
3152518	REC_START	n/a	LTP333	ltpFR	1	3	n/a	n/a	n/a	n/a	n/a	n/a	n/a	n/a	n/a	n/a	n/a
3152550	RECOG_LURE	n/a	LTP333	ltpFR	1	3	n/a	CONTINENT	367	0	4	n/a	n/a	n/a	n/a	n/a	n/a
3154151	RECOG_RESP	n/a	LTP333	ltpFR	1	3	n/a	CONTINENT	367	0	n/a	n/a	n/a	n/a	n/a	n/a	n/a
3155275	RECOG_CONF	n/a	LTP333	ltpFR	1	3	n/a	CONTINENT	367	n/a	4	n/a	n/a	n/a	n/a	n/a	n/a
3157232	RECOG_LURE	n/a	LTP333	ltpFR	1	3	n/a	RUM	1217	0	5	n/a	n/a	n/a	n/a	n/a	n/a
3158141	RECOG_RESP	n/a	LTP333	ltpFR	1	3	n/a	RUM	1217	0	n/a	n/a	n/a	n/a	n/a	n/a	n/a
3159105	RECOG_CONF	n/a	LTP333	ltpFR	1	3	n/a	RUM	1217	n/a	5	n/a	n/a	n/a	n/a	n/a	n/a
3161130	RECOG_TARGET	n/a	LTP333	ltpFR	1	3	0	MALL	860	1	5	1	n/a	n/a	n/a	n/a	n/a
3162052	RECOG_RESP	n/a	LTP333	ltpFR	1	3	0	MALL	860	1	n/a	1	n/a	n/a	n/a	n/a	n/a
3163065	RECOG_CONF	n/a	LTP333	ltpFR	1	3	0	MALL	860	n/a	5	1	n/a	n/a	n/a	n/a	n/a
3164912	RECOG_TARGET	n/a	LTP333	ltpFR	1	3	1	DUSTPAN	509	1	4	0	n/a	n/a	n/a	n/a	n/a
3166857	RECOG_RESP	n/a	LTP333	ltpFR	1	3	1	DUSTPAN	509	1	n/a	0	n/a	n/a	n/a	n/a	n/a
3168105	RECOG_CONF	n/a	LTP333	ltpFR	1	3	1	DUSTPAN	509	n/a	4	0	n/a	n/a	n/a	n/a	n/a
3169825	RECOG_LURE	n/a	LTP333	ltpFR	1	3	n/a	MITTEN	902	0	5	n/a	n/a	n/a	n/a	n/a	n/a
3170831	RECOG_RESP	n/a	LTP333	ltpFR	1	3	n/a	MITTEN	902	0	n/a	n/a	n/a	n/a	n/a	n/a	n/a
3171765	RECOG_CONF	n/a	LTP333	ltpFR	1	3	n/a	MITTEN	902	n/a	5	n/a	n/a	n/a	n/a	n/a	n/a
3173357	RECOG_LURE	n/a	LTP333	ltpFR	1	3	n/a	JEANS	752	0	2	n/a	n/a	n/a	n/a	n/a	n/a
3175441	RECOG_RESP	n/a	LTP333	ltpFR	1	3	n/a	JEANS	752	0	n/a	n/a	n/a	n/a	n/a	n/a	n/a
3177060	RECOG_CONF	n/a	LTP333	ltpFR	1	3	n/a	JEANS	752	n/a	2	n/a	n/a	n/a	n/a	n/a	n/a
3178871	RECOG_LURE	n/a	LTP333	ltpFR	1	3	n/a	DISHWASHER	475	1	2	n/a	n/a	n/a	n/a	n/a	n/a
3180917	RECOG_RESP	n/a	LTP333	ltpFR	1	3	n/a	DISHWASHER	475	1	n/a	n/a	n/a	n/a	n/a	n/a	n/a
3182220	RECOG_CONF	n/a	LTP333	ltpFR	1	3	n/a	DISHWASHER	475	n/a	2	n/a	n/a	n/a	n/a	n/a	n/a
3184118	RECOG_LURE	n/a	LTP333	ltpFR	1	3	n/a	LEADER	807	0	4	n/a	n/a	n/a	n/a	n/a	n/a
3185631	RECOG_RESP	n/a	LTP333	ltpFR	1	3	n/a	LEADER	807	0	n/a	n/a	n/a	n/a	n/a	n/a	n/a
3186795	RECOG_CONF	n/a	LTP333	ltpFR	1	3	n/a	LEADER	807	n/a	4	n/a	n/a	n/a	n/a	n/a	n/a
3188632	RECOG_TARGET	n/a	LTP333	ltpFR	1	3	0	BLOSSOM	138	1	5	0	n/a	n/a	n/a	n/a	n/a
3189697	RECOG_RESP	n/a	LTP333	ltpFR	1	3	0	BLOSSOM	138	1	n/a	0	n/a	n/a	n/a	n/a	n/a
3190685	RECOG_CONF	n/a	LTP333	ltpFR	1	3	0	BLOSSOM	138	n/a	5	0	n/a	n/a	n/a	n/a	n/a
3192547	RECOG_TARGET	n/a	LTP333	ltpFR	1	3	0	MULE	931	1	5	1	n/a	n/a	n/a	n/a	n/a
3193322	RECOG_RESP	n/a	LTP333	ltpFR	1	3	0	MULE	931	1	n/a	1	n/a	n/a	n/a	n/a	n/a
3193805	RECOG_CONF	n/a	LTP333	ltpFR	1	3	0	MULE	931	n/a	5	1	n/a	n/a	n/a	n/a	n/a
3196162	RECOG_LURE	n/a	LTP333	ltpFR	1	3	n/a	RACKET	1155	0	3	n/a	n/a	n/a	n/a	n/a	n/a
3197856	RECOG_RESP	n/a	LTP333	ltpFR	1	3	n/a	RACKET	1155	0	n/a	n/a	n/a	n/a	n/a	n/a	n/a
3199163	RECOG_CONF	n/a	LTP333	ltpFR	1	3	n/a	RACKET	1155	n/a	3	n/a	n/a	n/a	n/a	n/a	n/a
3201027	RECOG_LURE	n/a	LTP333	ltpFR	1	3	n/a	BAY	102	0	1	n/a	n/a	n/a	n/a	n/a	n/a
3202786	RECOG_RESP	n/a	LTP333	ltpFR	1	3	n/a	BAY	102	0	n/a	n/a	n/a	n/a	n/a	n/a	n/a
3203340	RECOG_CONF	n/a	LTP333	ltpFR	1	3	n/a	BAY	102	n/a	1	n/a	n/a	n/a	n/a	n/a	n/a
3206191	RECOG_TARGET	n/a	LTP333	ltpFR	1	3	-1	FURNITURE	616	1	3	-1	n/a	n/a	n/a	n/a	n/a
3207622	RECOG_RESP	n/a	LTP333	ltpFR	1	3	-1	FURNITURE	616	1	n/a	-1	n/a	n/a	n/a	n/a	n/a
3209343	RECOG_CONF	n/a	LTP333	ltpFR	1	3	-1	FURNITURE	616	n/a	3	-1	n/a	n/a	n/a	n/a	n/a
3211255	RECOG_LURE	n/a	LTP333	ltpFR	1	3	n/a	FOLLOWER	589	0	4	n/a	n/a	n/a	n/a	n/a	n/a
3212341	RECOG_RESP	n/a	LTP333	ltpFR	1	3	n/a	FOLLOWER	589	0	n/a	n/a	n/a	n/a	n/a	n/a	n/a
3213715	RECOG_CONF	n/a	LTP333	ltpFR	1	3	n/a	FOLLOWER	589	n/a	4	n/a	n/a	n/a	n/a	n/a	n/a
3215585	RECOG_TARGET	n/a	LTP333	ltpFR	1	3	0	HOOD	714	1	5	0	n/a	n/a	n/a	n/a	n/a
3216602	RECOG_RESP	n/a	LTP333	ltpFR	1	3	0	HOOD	714	1	n/a	0	n/a	n/a	n/a	n/a	n/a
3217545	RECOG_CONF	n/a	LTP333	ltpFR	1	3	0	HOOD	714	n/a	5	0	n/a	n/a	n/a	n/a	n/a
3219268	RECOG_TARGET	n/a	LTP333	ltpFR	1	3	0	DILL	465	1	5	0	n/a	n/a	n/a	n/a	n/a
3220107	RECOG_RESP	n/a	LTP333	ltpFR	1	3	0	DILL	465	1	n/a	0	n/a	n/a	n/a	n/a	n/a
3221055	RECOG_CONF	n/a	LTP333	ltpFR	1	3	0	DILL	465	n/a	5	0	n/a	n/a	n/a	n/a	n/a
3222949	RECOG_LURE	n/a	LTP333	ltpFR	1	3	n/a	PELT	1040	0	5	n/a	n/a	n/a	n/a	n/a	n/a
3223921	RECOG_RESP	n/a	LTP333	ltpFR	1	3	n/a	PELT	1040	0	n/a	n/a	n/a	n/a	n/a	n/a	n/a
3224845	RECOG_CONF	n/a	LTP333	ltpFR	1	3	n/a	PELT	1040	n/a	5	n/a	n/a	n/a	n/a	n/a	n/a
3226663	RECOG_TARGET	n/a	LTP333	ltpFR	1	3	-1	DOVE	491	1	5	-1	n/a	n/a	n/a	n/a	n/a
3228517	RECOG_RESP	n/a	LTP333	ltpFR	1	3	-1	DOVE	491	1	n/a	-1	n/a	n/a	n/a	n/a	n/a
3229905	RECOG_CONF	n/a	LTP333	ltpFR	1	3	-1	DOVE	491	n/a	5	-1	n/a	n/a	n/a	n/a	n/a
3231978	RECOG_LURE	n/a	LTP333	ltpFR	1	3	n/a	TAIL	1430	0	4	n/a	n/a	n/a	n/a	n/a	n/a
3232926	RECOG_RESP	n/a	LTP333	ltpFR	1	3	n/a	TAIL	1430	0	n/a	n/a	n/a	n/a	n/a	n/a	n/a
3233350	RECOG_CONF	n/a	LTP333	ltpFR	1	3	n/a	TAIL	1430	n/a	4	n/a	n/a	n/a	n/a	n/a	n/a
3235658	RECOG_TARGET	n/a	LTP333	ltpFR	1	3	-1	RASPBERRY	1168	1	4	-1	n/a	n/a	n/a	n/a	n/a
3236957	RECOG_RESP	n/a	LTP333	ltpFR	1	3	-1	RASPBERRY	1168	1	n/a	-1	n/a	n/a	n/a	n/a	n/a
3238145	RECOG_CONF	n/a	LTP333	ltpFR	1	3	-1	RASPBERRY	1168	n/a	4	-1	n/a	n/a	n/a	n/a	n/a
3242219	REC_START	n/a	LTP333	ltpFR	1	4	n/a	n/a	n/a	n/a	n/a	n/a	n/a	n/a	n/a	n/a	n/a
3242239	RECOG_LURE	n/a	LTP333	ltpFR	1	4	n/a	PARENT	1013	0	3	n/a	n/a	n/a	n/a	n/a	n/a
3244202	RECOG_RESP	n/a	LTP333	ltpFR	1	4	n/a	PARENT	1013	0	n/a	n/a	n/a	n/a	n/a	n/a	n/a
3245484	RECOG_CONF	n/a	LTP333	ltpFR	1	4	n/a	PARENT	1013	n/a	3	n/a	n/a	n/a	n/a	n/a	n/a
3247187	RECOG_TARGET	n/a	LTP333	ltpFR	1	4	1	DONOR	485	0	5	1	n/a	n/a	n/a	n/a	n/a
3248567	RECOG_RESP	n/a	LTP333	ltpFR	1	4	1	DONOR	485	0	n/a	1	n/a	n/a	n/a	n/a	n/a
3249576	RECOG_CONF	n/a	LTP333	ltpFR	1	4	1	DONOR	485	n/a	5	1	n/a	n/a	n/a	n/a	n/a
3251418	RECOG_TARGET	n/a	LTP333	ltpFR	1	4	1	CREW	406	1	5	1	n/a	n/a	n/a	n/a	n/a
3252463	RECOG_RESP	n/a	LTP333	ltpFR	1	4	1	CREW	406	1	n/a	1	n/a	n/a	n/a	n/a	n/a
3253296	RECOG_CONF	n/a	LTP333	ltpFR	1	4	1	CREW	406	n/a	5	1	n/a	n/a	n/a	n/a	n/a
3255050	RECOG_LURE	n/a	LTP333	ltpFR	1	4	n/a	TWINE	1529	0	3	n/a	n/a	n/a	n/a	n/a	n/a
3256262	RECOG_RESP	n/a	LTP333	ltpFR	1	4	n/a	TWINE	1529	0	n/a	n/a	n/a	n/a	n/a	n/a	n/a
3257834	RECOG_CONF	n/a	LTP333	ltpFR	1	4	n/a	TWINE	1529	n/a	3	n/a	n/a	n/a	n/a	n/a	n/a
3259613	RECOG_LURE	n/a	LTP333	ltpFR	1	4	n/a	INN	739	0	5	n/a	n/a	n/a	n/a	n/a	n/a
3260602	RECOG_RESP	n/a	LTP333	ltpFR	1	4	n/a	INN	739	0	n/a	n/a	n/a	n/a	n/a	n/a	n/a
3261506	RECOG_CONF	n/a	LTP333	ltpFR	1	4	n/a	INN	739	n/a	5	n/a	n/a	n/a	n/a	n/a	n/a
3263196	RECOG_TARGET	n/a	LTP333	ltpFR	1	4	1	WHISTLE	1606	1	4	0	n/a	n/a	n/a	n/a	n/a
3264173	RECOG_RESP	n/a	LTP333	ltpFR	1	4	1	WHISTLE	1606	1	n/a	0	n/a	n/a	n/a	n/a	n/a
3265176	RECOG_CONF	n/a	LTP333	ltpFR	1	4	1	WHISTLE	1606	n/a	4	0	n/a	n/a	n/a	n/a	n/a
3267127	RECOG_LURE	n/a	LTP333	ltpFR	1	4	n/a	YARN	1631	0	5	n/a	n/a	n/a	n/a	n/a	n/a
3268022	RECOG_RESP	n/a	LTP333	ltpFR	1	4	n/a	YARN	1631	0	n/a	n/a	n/a	n/a	n/a	n/a	n/a
3268886	RECOG_CONF	n/a	LTP333	ltpFR	1	4	n/a	YARN	1631	n/a	5	n/a	n/a	n/a	n/a	n/a	n/a
3270574	RECOG_LURE	n/a	LTP333	ltpFR	1	4	n/a	THRONE	1461	0	4	n/a	n/a	n/a	n/a	n/a	n/a
3271877	RECOG_RESP	n/a	LTP333	ltpFR	1	4	n/a	THRONE	1461	0	n/a	n/a	n/a	n/a	n/a	n/a	n/a
3273121	RECOG_CONF	n/a	LTP333	ltpFR	1	4	n/a	THRONE	1461	n/a	4	n/a	n/a	n/a	n/a	n/a	n/a
3275306	RECOG_LURE	n/a	LTP333	ltpFR	1	4	n/a	ROUGE	1213	0	5	n/a	n/a	n/a	n/a	n/a	n/a
3276442	RECOG_RESP	n/a	LTP333	ltpFR	1	4	n/a	ROUGE	1213	0	n/a	n/a	n/a	n/a	n/a	n/a	n/a
3276826	RECOG_CONF	n/a	LTP333	ltpFR	1	4	n/a	ROUGE	1213	n/a	5	n/a	n/a	n/a	n/a	n/a	n/a
3278988	RECOG_LURE	n/a	LTP333	ltpFR	1	4	n/a	IRON	744	0	5	n/a	n/a	n/a	n/a	n/a	n/a
3280202	RECOG_RESP	n/a	LTP333	ltpFR	1	4	n/a	IRON	744	0	n/a	n/a	n/a	n/a	n/a	n/a	n/a
3281176	RECOG_CONF	n/a	LTP333	ltpFR	1	4	n/a	IRON	744	n/a	5	n/a	n/a	n/a	n/a	n/a	n/a
3282903	RECOG_TARGET	n/a	LTP333	ltpFR	1	4	1	PLAID	1080	1	5	n/a	n/a	n/a	n/a	n/a	n/a
3283753	RECOG_RESP	n/a	LTP333	ltpFR	1	4	1	PLAID	1080	1	n/a	n/a	n/a	n/a	n/a	n/a	n/a
3284236	RECOG_CONF	n/a	LTP333	ltpFR	1	4	1	PLAID	1080	n/a	5	n/a	n/a	n/a	n/a	n/a	n/a
3286418	RECOG_TARGET	n/a	LTP333	ltpFR	1	4	0	WATER	1594	1	4	1	n/a	n/a	n/a	n/a	n/a
3287593	RECOG_RESP	n/a	LTP333	ltpFR	1	4	0	WATER	1594	1	n/a	1	n/a	n/a	n/a	n/a	n/a
3288816	RECOG_CONF	n/a	LTP333	ltpFR	1	4	0	WATER	1594	n/a	4	1	n/a	n/a	n/a	n/a	n/a
3290815	RECOG_LURE	n/a	LTP333	ltpFR	1	4	n/a	COLONEL	348	0	5	n/a	n/a	n/a	n/a	n/a	n/a
3291772	RECOG_RESP	n/a	LTP333	ltpFR	1	4	n/a	COLONEL	348	0	n/a	n/a	n/a	n/a	n/a	n/a	n/a
3292406	RECOG_CONF	n/a	LTP333	ltpFR	1	4	n/a	COLONEL	348	n/a	5	n/a	n/a	n/a	n/a	n/a	n/a
3294713	RECOG_LURE	n/a	LTP333	ltpFR	1	4	n/a	GENERAL	630	0	5	n/a	n/a	n/a	n/a	n/a	n/a
3295502	RECOG_RESP	n/a	LTP333	ltpFR	1	4	n/a	GENERAL	630	0	n/a	n/a	n/a	n/a	n/a	n/a	n/a
3296776	RECOG_CONF	n/a	LTP333	ltpFR	1	4	n/a	GENERAL	630	n/a	5	n/a	n/a	n/a	n/a	n/a	n/a
3298627	RECOG_LURE	n/a	LTP333	ltpFR	1	4	n/a	WAVE	1596	1	4	n/a	n/a	n/a	n/a	n/a	n/a
3299458	RECOG_RESP	n/a	LTP333	ltpFR	1	4	n/a	WAVE	1596	1	n/a	n/a	n/a	n/a	n/a	n/a	n/a
3300946	RECOG_CONF	n/a	LTP333	ltpFR	1	4	n/a	WAVE	1596	n/a	4	n/a	n/a	n/a	n/a	n/a	n/a
3302658	RECOG_LURE	n/a	LTP333	ltpFR	1	4	n/a	SUITCASE	1403	0	4	n/a	n/a	n/a	n/a	n/a	n/a
3305002	RECOG_RESP	n/a	LTP333	ltpFR	1	4	n/a	SUITCASE	1403	0	n/a	n/a	n/a	n/a	n/a	n/a	n/a
3306116	RECOG_CONF	n/a	LTP333	ltpFR	1	4	n/a	SUITCASE	1403	n/a	4	n/a	n/a	n/a	n/a	n/a	n/a
3307857	RECOG_TARGET	n/a	LTP333	ltpFR	1	4	0	JOINT	758	1	5	1	n/a	n/a	n/a	n/a	n/a
3308683	RECOG_RESP	n/a	LTP333	ltpFR	1	4	0	JOINT	758	1	n/a	1	n/a	n/a	n/a	n/a	n/a
3309736	RECOG_CONF	n/a	LTP333	ltpFR	1	4	0	JOINT	758	n/a	5	1	n/a	n/a	n/a	n/a	n/a
3311472	RECOG_TARGET	n/a	LTP333	ltpFR	1	4	-1	SPINE	1353	1	5	-1	n/a	n/a	n/a	n/a	n/a
3312583	RECOG_RESP	n/a	LTP333	ltpFR	1	4	-1	SPINE	1353	1	n/a	-1	n/a	n/a	n/a	n/a	n/a
3313646	RECOG_CONF	n/a	LTP333	ltpFR	1	4	-1	SPINE	1353	n/a	5	-1	n/a	n/a	n/a	n/a	n/a
3315619	RECOG_LURE	n/a	LTP333	ltpFR	1	4	n/a	DOCK	477	1	2	n/a	n/a	n/a	n/a	n/a	n/a
3317013	RECOG_RESP	n/a	LTP333	ltpFR	1	4	n/a	DOCK	477	1	n/a	n/a	n/a	n/a	n/a	n/a	n/a
3318241	RECOG_CONF	n/a	LTP333	ltpFR	1	4	n/a	DOCK	477	n/a	2	n/a	n/a	n/a	n/a	n/a	n/a
3320051	RECOG_LURE	n/a	LTP333	ltpFR	1	4	n/a	SHAMPOO	1274	0	5	n/a	n/a	n/a	n/a	n/a	n/a
3320892	RECOG_RESP	n/a	LTP333	ltpFR	1	4	n/a	SHAMPOO	1274	0	n/a	n/a	n/a	n/a	n/a	n/a	n/a
3321786	RECOG_CONF	n/a	LTP333	ltpFR	1	4	n/a	SHAMPOO	1274	n/a	5	n/a	n/a	n/a	n/a	n/a	n/a
3331713	REC_START	n/a	LTP333	ltpFR	1	5	n/a	n/a	n/a	n/a	n/a	n/a	n/a	n/a	n/a	n/a	n/a
3331745	RECOG_TARGET	n/a	LTP333	ltpFR	1	5	0	AUTOMOBILE	62	0	1	1	n/a	n/a	n/a	n/a	n/a
3334181	RECOG_RESP	n/a	LTP333	ltpFR	1	5	0	AUTOMOBILE	62	0	n/a	1	n/a	n/a	n/a	n/a	n/a
3334795	RECOG_CONF	n/a	LTP333	ltpFR	1	5	0	AUTOMOBILE	62	n/a	1	1	n/a	n/a	n/a	n/a	n/a
3337159	RECOG_LURE	n/a	LTP333	ltpFR	1	5	n/a	WINDOW	1611	0	3	n/a	n/a	n/a	n/a	n/a	n/a
3338171	RECOG_RESP	n/a	LTP333	ltpFR	1	5	n/a	WINDOW	1611	0	n/a	n/a	n/a	n/a	n/a	n/a	n/a
3339228	RECOG_CONF	n/a	LTP333	ltpFR	1	5	n/a	WINDOW	1611	n/a	3	n/a	n/a	n/a	n/a	n/a	n/a
3341090	RECOG_TARGET	n/a	LTP333	ltpFR	1	5	0	NOVEL	960	1	5	0	n/a	n/a	n/a	n/a	n/a
3342012	RECOG_RESP	n/a	LTP333	ltpFR	1	5	0	NOVEL	960	1	n/a	0	n/a	n/a	n/a	n/a	n/a
3343060	RECOG_CONF	n/a	LTP333	ltpFR	1	5	0	NOVEL	960	n/a	5	0	n/a	n/a	n/a	n/a	n/a
3344822	RECOG_LURE	n/a	LTP333	ltpFR	1	5	n/a	GENTLEMAN	631	0	4	n/a	n/a	n/a	n/a	n/a	n/a
3345786	RECOG_RESP	n/a	LTP333	ltpFR	1	5	n/a	GENTLEMAN	631	0	n/a	n/a	n/a	n/a	n/a	n/a	n/a
3346755	RECOG_CONF	n/a	LTP333	ltpFR	1	5	n/a	GENTLEMAN	631	n/a	4	n/a	n/a	n/a	n/a	n/a	n/a
3348536	RECOG_TARGET	n/a	LTP333	ltpFR	1	5	1	LEAF	808	1	1	1	n/a	n/a	n/a	n/a	n/a
3351292	RECOG_RESP	n/a	LTP333	ltpFR	1	5	1	LEAF	808	1	n/a	1	n/a	n/a	n/a	n/a	n/a
3351725	RECOG_CONF	n/a	LTP333	ltpFR	1	5	1	LEAF	808	n/a	1	1	n/a	n/a	n/a	n/a	n/a
3354867	RECOG_LURE	n/a	LTP333	ltpFR	1	5	n/a	HANDCUFFS	685	0	5	n/a	n/a	n/a	n/a	n/a	n/a
3355741	RECOG_RESP	n/a	LTP333	ltpFR	1	5	n/a	HANDCUFFS	685	0	n/a	n/a	n/a	n/a	n/a	n/a	n/a
3356750	RECOG_CONF	n/a	LTP333	ltpFR	1	5	n/a	HANDCUFFS	685	n/a	5	n/a	n/a	n/a	n/a	n/a	n/a
3358497	RECOG_TARGET	n/a	LTP333	ltpFR	1	5	1	BLUEPRINT	142	0	5	0	n/a	n/a	n/a	n/a	n/a
3359806	RECOG_RESP	n/a	LTP333	ltpFR	1	5	1	BLUEPRINT	142	0	n/a	0	n/a	n/a	n/a	n/a	n/a
3360820	RECOG_CONF	n/a	LTP333	ltpFR	1	5	1	BLUEPRINT	142	n/a	5	0	n/a	n/a	n/a	n/a	n/a
3362512	RECOG_LURE	n/a	LTP333	ltpFR	1	5	n/a	RAISIN	1163	0	4	n/a	n/a	n/a	n/a	n/a	n/a
3363366	RECOG_RESP	n/a	LTP333	ltpFR	1	5	n/a	RAISIN	1163	0	n/a	n/a	n/a	n/a	n/a	n/a	n/a
3364560	RECOG_CONF	n/a	LTP333	ltpFR	1	5	n/a	RAISIN	1163	n/a	4	n/a	n/a	n/a	n/a	n/a	n/a
3366610	RECOG_LURE	n/a	LTP333	ltpFR	1	5	n/a	MARSH	874	1	3	n/a	n/a	n/a	n/a	n/a	n/a
3367852	RECOG_RESP	n/a	LTP333	ltpFR	1	5	n/a	MARSH	874	1	n/a	n/a	n/a	n/a	n/a	n/a	n/a
3369338	RECOG_CONF	n/a	LTP333	ltpFR	1	5	n/a	MARSH	874	n/a	3	n/a	n/a	n/a	n/a	n/a	n/a
3371342	RECOG_LURE	n/a	LTP333	ltpFR	1	5	n/a	ALMANAC	17	0	5	n/a	n/a	n/a	n/a	n/a	n/a
3372136	RECOG_RESP	n/a	LTP333	ltpFR	1	5	n/a	ALMANAC	17	0	n/a	n/a	n/a	n/a	n/a	n/a	n/a
3373050	RECOG_CONF	n/a	LTP333	ltpFR	1	5	n/a	ALMANAC	17	n/a	5	n/a	n/a	n/a	n/a	n/a	n/a
3374539	RECOG_TARGET	n/a	LTP333	ltpFR	1	5	0	CITIZEN	312	1	5	1	n/a	n/a	n/a	n/a	n/a
3375292	RECOG_RESP	n/a	LTP333	ltpFR	1	5	0	CITIZEN	312	1	n/a	1	n/a	n/a	n/a	n/a	n/a
3376270	RECOG_CONF	n/a	LTP333	ltpFR	1	5	0	CITIZEN	312	n/a	5	1	n/a	n/a	n/a	n/a	n/a
3378189	RECOG_LURE	n/a	LTP333	ltpFR	1	5	n/a	COUNTRY	388	0	3	n/a	n/a	n/a	n/a	n/a	n/a
3379796	RECOG_RESP	n/a	LTP333	ltpFR	1	5	n/a	COUNTRY	388	0	n/a	n/a	n/a	n/a	n/a	n/a	n/a
3381018	RECOG_CONF	n/a	LTP333	ltpFR	1	5	n/a	COUNTRY	388	n/a	3	n/a	n/a	n/a	n/a	n/a	n/a
3382803	RECOG_TARGET	n/a	LTP333	ltpFR	1	5	-1	MAJOR	859	1	2	-1	n/a	n/a	n/a	n/a	n/a
3385957	RECOG_RESP	n/a	LTP333	ltpFR	1	5	-1	MAJOR	859	1	n/a	-1	n/a	n/a	n/a	n/a	n/a
3387135	RECOG_CONF	n/a	LTP333	ltpFR	1	5	-1	MAJOR	859	n/a	2	-1	n/a	n/a	n/a	n/a	n/a
3388900	RECOG_LURE	n/a	LTP333	ltpFR	1	5	n/a	LETTER	813	1	2	n/a	n/a	n/a	n/a	n/a	n/a
3390507	RECOG_RESP	n/a	LTP333	ltpFR	1	5	n/a	LETTER	813	1	n/a	n/a	n/a	n/a	n/a	n/a	n/a
3392175	RECOG_CONF	n/a	LTP333	ltpFR	1	5	n/a	LETTER	813	n/a	2	n/a	n/a	n/a	n/a	n/a	n/a
3393881	RECOG_TARGET	n/a	LTP333	ltpFR	1	5	1	GARDEN	623	0	3	1	n/a	n/a	n/a	n/a	n/a
3395316	RECOG_RESP	n/a	LTP333	ltpFR	1	5	1	GARDEN	623	0	n/a	1	n/a	n/a	n/a	n/a	n/a
3396508	RECOG_CONF	n/a	LTP333	ltpFR	1	5	1	GARDEN	623	n/a	3	1	n/a	n/a	n/a	n/a	n/a
3398295	RECOG_LURE	n/a	LTP333	ltpFR	1	5	n/a	HAYSTACK	694	0	4	n/a	n/a	n/a	n/a	n/a	n/a
3399166	RECOG_RESP	n/a	LTP333	ltpFR	1	5	n/a	HAYSTACK	694	0	n/a	n/a	n/a	n/a	n/a	n/a	n/a
3400715	RECOG_CONF	n/a	LTP333	ltpFR	1	5	n/a	HAYSTACK	694	n/a	4	n/a	n/a	n/a	n/a	n/a	n/a
3402127	RECOG_LURE	n/a	LTP333	ltpFR	1	5	n/a	TOOL	1480	0	4	n/a	n/a	n/a	n/a	n/a	n/a
3403596	RECOG_RESP	n/a	LTP333	ltpFR	1	5	n/a	TOOL	1480	0	n/a	n/a	n/a	n/a	n/a	n/a	n/a
3405020	RECOG_CONF	n/a	LTP333	ltpFR	1	5	n/a	TOOL	1480	n/a	4	n/a	n/a	n/a	n/a	n/a	n/a
3406824	RECOG_LURE	n/a	LTP333	ltpFR	1	5	n/a	COIN	343	0	5	n/a	n/a	n/a	n/a	n/a	n/a
3407756	RECOG_RESP	n/a	LTP333	ltpFR	1	5	n/a	COIN	343	0	n/a	n/a	n/a	n/a	n/a	n/a	n/a
3408670	RECOG_CONF	n/a	LTP333	ltpFR	1	5	n/a	COIN	343	n/a	5	n/a	n/a	n/a	n/a	n/a	n/a
3410439	RECOG_TARGET	n/a	LTP333	ltpFR	1	5	1	DUNE	506	1	5	0	n/a	n/a	n/a	n/a	n/a
3411347	RECOG_RESP	n/a	LTP333	ltpFR	1	5	1	DUNE	506	1	n/a	0	n/a	n/a	n/a	n/a	n/a
3412270	RECOG_CONF	n/a	LTP333	ltpFR	1	5	1	DUNE	506	n/a	5	0	n/a	n/a	n/a	n/a	n/a
3414254	RECOG_LURE	n/a	LTP333	ltpFR	1	5	n/a	WART	1590	0	5	n/a	n/a	n/a	n/a	n/a	n/a
3415036	RECOG_RESP	n/a	LTP333	ltpFR	1	5	n/a	WART	1590	0	n/a	n/a	n/a	n/a	n/a	n/a	n/a
3416020	RECOG_CONF	n/a	LTP333	ltpFR	1	5	n/a	WART	1590	n/a	5	n/a	n/a	n/a	n/a	n/a	n/a
3426068	REC_START	n/a	LTP333	ltpFR	1	6	n/a	n/a	n/a	n/a	n/a	n/a	n/a	n/a	n/a	n/a	n/a
3426098	RECOG_TARGET	n/a	LTP333	ltpFR	1	6	-1	MOON	914	1	3	-1	n/a	n/a	n/a	n/a	n/a
