onset	duration	trial_type	sample	stim_file	subject	experiment	session	trial	task	item_name	item_num	recog_conf	resp	color_b	color_g	color_r	case	font
219.226	n/a	SESS_START	109613	n/a	LTP219	ltpFR	4	n/a	n/a	n/a	n/a	4	n/a	n/a	n/a	n/a	n/a	n/a
370.252	n/a	WORD	185126	wordpools/wasnorm_wordpool_less_exclusions.txt	LTP219	ltpFR	4	1	1	PIRATE	1074	n/a	1	1	0.412841796875	0.57763671875	upper	../fonts/amplitud.ttf
374.148	n/a	WORD	187074	wordpools/wasnorm_wordpool_less_exclusions.txt	LTP219	ltpFR	4	1	1	BUTTER	205	n/a	0	1	0.412841796875	0.57763671875	upper	../fonts/amplitud.ttf
378.358	n/a	WORD	189179	wordpools/wasnorm_wordpool_less_exclusions.txt	LTP219	ltpFR	4	1	0	TORTOISE	1486	n/a	1	0	0.5869140625	0.422607421875	lower	../fonts/zerothre.ttf
382.436	n/a	WORD	191218	wordpools/wasnorm_wordpool_less_exclusions.txt	LTP219	ltpFR	4	1	0	MACHINE	852	n/a	1	0	0.5869140625	0.422607421875	lower	../fonts/zerothre.ttf
386.262	n/a	WORD	193131	wordpools/wasnorm_wordpool_less_exclusions.txt	LTP219	ltpFR	4	1	0	CROCODILE	411	n/a	1	0	0.5869140625	0.422607421875	lower	../fonts/zerothre.ttf
390.156	n/a	WORD	195078	wordpools/wasnorm_wordpool_less_exclusions.txt	LTP219	ltpFR	4	1	0	CREATURE	403	n/a	1	0	0.5869140625	0.422607421875	lower	../fonts/zerothre.ttf
394.118	n/a	WORD	197059	wordpools/wasnorm_wordpool_less_exclusions.txt	LTP219	ltpFR	4	1	1	LOAF	835	n/a	0	1	0.412841796875	0.57763671875	upper	../fonts/amplitud.ttf
398.012	n/a	WORD	199006	wordpools/wasnorm_wordpool_less_exclusions.txt	LTP219	ltpFR	4	1	1	BUNNY	198	n/a	1	1	0.412841796875	0.57763671875	upper	../fonts/amplitud.ttf
402.222	n/a	WORD	201111	wordpools/wasnorm_wordpool_less_exclusions.txt	LTP219	ltpFR	4	1	1	BUG	187	n/a	1	1	0.412841796875	0.57763671875	upper	../fonts/amplitud.ttf
406.282	n/a	WORD	203141	wordpools/wasnorm_wordpool_less_exclusions.txt	LTP219	ltpFR	4	1	1	TERMITE	1451	n/a	1	1	0.412841796875	0.57763671875	upper	../fonts/amplitud.ttf
410.478	n/a	WORD	205239	wordpools/wasnorm_wordpool_less_exclusions.txt	LTP219	ltpFR	4	1	0	GIRL	637	n/a	0	0	0.5869140625	0.422607421875	lower	../fonts/zerothre.ttf
414.388	n/a	WORD	207194	wordpools/wasnorm_wordpool_less_exclusions.txt	LTP219	ltpFR	4	1	0	KEG	770	n/a	0	0	0.5869140625	0.422607421875	lower	../fonts/zerothre.ttf
418.216	n/a	WORD	209108	wordpools/wasnorm_wordpool_less_exclusions.txt	LTP219	ltpFR	4	1	0	CANAL	226	n/a	1	0	0.5869140625	0.422607421875	lower	../fonts/zerothre.ttf
422.21	n/a	WORD	211105	wordpools/wasnorm_wordpool_less_exclusions.txt	LTP219	ltpFR	4	1	0	PLASTER	1085	n/a	0	0	0.5869140625	0.422607421875	lower	../fonts/zerothre.ttf
426.17	n/a	WORD	213085	wordpools/wasnorm_wordpool_less_exclusions.txt	LTP219	ltpFR	4	1	1	CERAMICS	271	n/a	0	1	0.412841796875	0.57763671875	upper	../fonts/amplitud.ttf
430.298	n/a	WORD	215149	wordpools/wasnorm_wordpool_less_exclusions.txt	LTP219	ltpFR	4	1	1	QUEEN	1149	n/a	1	1	0.412841796875	0.57763671875	upper	../fonts/amplitud.ttf
436.108	n/a	REC_START	218054	n/a	LTP219	ltpFR	4	1	n/a	n/a	n/a	n/a	n/a	n/a	n/a	n/a	n/a	n/a
437.384	n/a	REC_WORD	218692	wordpools/wasnorm_wordpool_less_exclusions.txt	LTP219	ltpFR	4	1	1	CERAMICS	271	n/a	0	n/a	n/a	n/a	n/a	n/a
439.03	n/a	REC_WORD	219515	wordpools/wasnorm_wordpool_less_exclusions.txt	LTP219	ltpFR	4	1	1	QUEEN	1149	n/a	1	n/a	n/a	n/a	n/a	n/a
440.372	n/a	REC_WORD	220186	wordpools/wasnorm_wordpool_less_exclusions.txt	LTP219	ltpFR	4	1	0	GIRL	637	n/a	0	n/a	n/a	n/a	n/a	n/a
441.84	n/a	REC_WORD	220920	wordpools/wasnorm_wordpool_less_exclusions.txt	LTP219	ltpFR	4	1	0	CROCODILE	411	n/a	1	n/a	n/a	n/a	n/a	n/a
442.854	n/a	REC_WORD_VV	221427	wordpools/wasnorm_wordpool_less_exclusions.txt	LTP219	ltpFR	4	1	n/a	<>	-1	n/a	n/a	n/a	n/a	n/a	n/a	n/a
443.784	n/a	REC_WORD	221892	wordpools/wasnorm_wordpool_less_exclusions.txt	LTP219	ltpFR	4	1	0	TORTOISE	1486	n/a	1	n/a	n/a	n/a	n/a	n/a
447.62	n/a	REC_WORD_VV	223810	wordpools/wasnorm_wordpool_less_exclusions.txt	LTP219	ltpFR	4	1	n/a	<>	-1	n/a	n/a	n/a	n/a	n/a	n/a	n/a
449.95	n/a	REC_WORD	224975	wordpools/wasnorm_wordpool_less_exclusions.txt	LTP219	ltpFR	4	1	n/a	FLEA	577	n/a	n/a	n/a	n/a	n/a	n/a	n/a
456.516	n/a	REC_WORD	228258	wordpools/wasnorm_wordpool_less_exclusions.txt	LTP219	ltpFR	4	1	1	BUNNY	198	n/a	1	n/a	n/a	n/a	n/a	n/a
458.398	n/a	REC_WORD_VV	229199	wordpools/wasnorm_wordpool_less_exclusions.txt	LTP219	ltpFR	4	1	n/a	<>	-1	n/a	n/a	n/a	n/a	n/a	n/a	n/a
463.93	n/a	REC_WORD	231965	wordpools/wasnorm_wordpool_less_exclusions.txt	LTP219	ltpFR	4	1	1	BUG	187	n/a	1	n/a	n/a	n/a	n/a	n/a
469.586	n/a	REC_WORD_VV	234793	wordpools/wasnorm_wordpool_less_exclusions.txt	LTP219	ltpFR	4	1	n/a	<>	-1	n/a	n/a	n/a	n/a	n/a	n/a	n/a
470.624	n/a	REC_WORD_VV	235312	wordpools/wasnorm_wordpool_less_exclusions.txt	LTP219	ltpFR	4	1	n/a	<>	-1	n/a	n/a	n/a	n/a	n/a	n/a	n/a
473.882	n/a	REC_WORD	236941	wordpools/wasnorm_wordpool_less_exclusions.txt	LTP219	ltpFR	4	1	0	PLASTER	1085	n/a	0	n/a	n/a	n/a	n/a	n/a
483.614	n/a	REC_WORD_VV	241807	wordpools/wasnorm_wordpool_less_exclusions.txt	LTP219	ltpFR	4	1	n/a	<>	-1	n/a	n/a	n/a	n/a	n/a	n/a	n/a
485.03	n/a	REC_WORD	242515	wordpools/wasnorm_wordpool_less_exclusions.txt	LTP219	ltpFR	4	1	0	PLASTER	1085	n/a	0	n/a	n/a	n/a	n/a	n/a
487.998	n/a	REC_WORD_VV	243999	wordpools/wasnorm_wordpool_less_exclusions.txt	LTP219	ltpFR	4	1	n/a	<>	-1	n/a	n/a	n/a	n/a	n/a	n/a	n/a
491.464	n/a	REC_WORD_VV	245732	wordpools/wasnorm_wordpool_less_exclusions.txt	LTP219	ltpFR	4	1	n/a	<>	-1	n/a	n/a	n/a	n/a	n/a	n/a	n/a
494.74	n/a	REC_WORD	247370	wordpools/wasnorm_wordpool_less_exclusions.txt	LTP219	ltpFR	4	1	1	BUNNY	198	n/a	1	n/a	n/a	n/a	n/a	n/a
497.654	n/a	REC_WORD	248827	wordpools/wasnorm_wordpool_less_exclusions.txt	LTP219	ltpFR	4	1	0	CROCODILE	411	n/a	1	n/a	n/a	n/a	n/a	n/a
501.11	n/a	REC_WORD_VV	250555	wordpools/wasnorm_wordpool_less_exclusions.txt	LTP219	ltpFR	4	1	n/a	<>	-1	n/a	n/a	n/a	n/a	n/a	n/a	n/a
504.05	n/a	REC_WORD_VV	252025	wordpools/wasnorm_wordpool_less_exclusions.txt	LTP219	ltpFR	4	1	n/a	<>	-1	n/a	n/a	n/a	n/a	n/a	n/a	n/a
506.956	n/a	REC_WORD_VV	253478	wordpools/wasnorm_wordpool_less_exclusions.txt	LTP219	ltpFR	4	1	n/a	<>	-1	n/a	n/a	n/a	n/a	n/a	n/a	n/a
507.972	n/a	REC_WORD_VV	253986	wordpools/wasnorm_wordpool_less_exclusions.txt	LTP219	ltpFR	4	1	n/a	<>	-1	n/a	n/a	n/a	n/a	n/a	n/a	n/a
509.374	n/a	REC_WORD_VV	254687	wordpools/wasnorm_wordpool_less_exclusions.txt	LTP219	ltpFR	4	1	n/a	<>	-1	n/a	n/a	n/a	n/a	n/a	n/a	n/a
556.728	n/a	WORD	278364	wordpools/wasnorm_wordpool_less_exclusions.txt	LTP219	ltpFR	4	2	0	TYPEWRITER	1531	n/a	0	0	0.5869140625	0.422607421875	lower	../fonts/zerothre.ttf
560.854	n/a	WORD	280427	wordpools/wasnorm_wordpool_less_exclusions.txt	LTP219	ltpFR	4	2	0	NOTEBOOK	959	n/a	0	0	0.5869140625	0.422607421875	lower	../fonts/zerothre.ttf
564.716	n/a	WORD	282358	wordpools/wasnorm_wordpool_less_exclusions.txt	LTP219	ltpFR	4	2	0	PORCUPINE	1107	n/a	0	0	0.5869140625	0.422607421875	lower	../fonts/zerothre.ttf
568.594	n/a	WORD	284297	wordpools/wasnorm_wordpool_less_exclusions.txt	LTP219	ltpFR	4	2	1	LAPEL	800	n/a	0	1	0.412841796875	0.57763671875	upper	../fonts/amplitud.ttf
572.704	n/a	WORD	286352	wordpools/wasnorm_wordpool_less_exclusions.txt	LTP219	ltpFR	4	2	1	FLANNEL	574	n/a	0	1	0.412841796875	0.57763671875	upper	../fonts/amplitud.ttf
576.666	n/a	WORD	288333	wordpools/wasnorm_wordpool_less_exclusions.txt	LTP219	ltpFR	4	2	1	ROUGE	1213	n/a	0	1	0.412841796875	0.57763671875	upper	../fonts/amplitud.ttf
580.692	n/a	WORD	290346	wordpools/wasnorm_wordpool_less_exclusions.txt	LTP219	ltpFR	4	2	1	BLOCKADE	137	n/a	0	1	0.412841796875	0.57763671875	upper	../fonts/amplitud.ttf
584.902	n/a	WORD	292451	wordpools/wasnorm_wordpool_less_exclusions.txt	LTP219	ltpFR	4	2	1	PARROT	1015	n/a	1	1	0.412841796875	0.57763671875	upper	../fonts/amplitud.ttf
589.062	n/a	WORD	294531	wordpools/wasnorm_wordpool_less_exclusions.txt	LTP219	ltpFR	4	2	0	BELL	118	n/a	0	0	0.5869140625	0.422607421875	lower	../fonts/zerothre.ttf
593.14	n/a	WORD	296570	wordpools/wasnorm_wordpool_less_exclusions.txt	LTP219	ltpFR	4	2	0	TURTLE	1522	n/a	0	0	0.5869140625	0.422607421875	lower	../fonts/zerothre.ttf
597.2	n/a	WORD	298600	wordpools/wasnorm_wordpool_less_exclusions.txt	LTP219	ltpFR	4	2	1	WILDERNESS	1610	n/a	1	1	0.412841796875	0.57763671875	upper	../fonts/amplitud.ttf
601.078	n/a	WORD	300539	wordpools/wasnorm_wordpool_less_exclusions.txt	LTP219	ltpFR	4	2	1	WINGS	1614	n/a	1	1	0.412841796875	0.57763671875	upper	../fonts/amplitud.ttf
605.254	n/a	WORD	302627	wordpools/wasnorm_wordpool_less_exclusions.txt	LTP219	ltpFR	4	2	1	DIAL	457	n/a	0	1	0.412841796875	0.57763671875	upper	../fonts/amplitud.ttf
609.1	n/a	WORD	304550	wordpools/wasnorm_wordpool_less_exclusions.txt	LTP219	ltpFR	4	2	0	RABBIT	1152	n/a	0	0	0.5869140625	0.422607421875	lower	../fonts/zerothre.ttf
612.96	n/a	WORD	306480	wordpools/wasnorm_wordpool_less_exclusions.txt	LTP219	ltpFR	4	2	0	NAVIGATOR	938	n/a	0	0	0.5869140625	0.422607421875	lower	../fonts/zerothre.ttf
617.138	n/a	WORD	308569	wordpools/wasnorm_wordpool_less_exclusions.txt	LTP219	ltpFR	4	2	0	COMMANDER	354	n/a	0	0	0.5869140625	0.422607421875	lower	../fonts/zerothre.ttf
623.23	n/a	REC_START	311615	n/a	LTP219	ltpFR	4	2	n/a	n/a	n/a	n/a	n/a	n/a	n/a	n/a	n/a	n/a
624.74	n/a	REC_WORD	312370	wordpools/wasnorm_wordpool_less_exclusions.txt	LTP219	ltpFR	4	2	0	COMMANDER	354	n/a	0	n/a	n/a	n/a	n/a	n/a
625.848	n/a	REC_WORD	312924	wordpools/wasnorm_wordpool_less_exclusions.txt	LTP219	ltpFR	4	2	1	BLOCKADE	137	n/a	0	n/a	n/a	n/a	n/a	n/a
627.326	n/a	REC_WORD	313663	wordpools/wasnorm_wordpool_less_exclusions.txt	LTP219	ltpFR	4	2	1	PARROT	1015	n/a	1	n/a	n/a	n/a	n/a	n/a
628.896	n/a	REC_WORD	314448	wordpools/wasnorm_wordpool_less_exclusions.txt	LTP219	ltpFR	4	2	1	WILDERNESS	1610	n/a	1	n/a	n/a	n/a	n/a	n/a
629.852	n/a	REC_WORD_VV	314926	wordpools/wasnorm_wordpool_less_exclusions.txt	LTP219	ltpFR	4	2	n/a	<>	-1	n/a	n/a	n/a	n/a	n/a	n/a	n/a
631.574	n/a	REC_WORD_VV	315787	wordpools/wasnorm_wordpool_less_exclusions.txt	LTP219	ltpFR	4	2	n/a	<>	-1	n/a	n/a	n/a	n/a	n/a	n/a	n/a
632.574	n/a	REC_WORD_VV	316287	wordpools/wasnorm_wordpool_less_exclusions.txt	LTP219	ltpFR	4	2	n/a	<>	-1	n/a	n/a	n/a	n/a	n/a	n/a	n/a
637.348	n/a	REC_WORD_VV	318674	wordpools/wasnorm_wordpool_less_exclusions.txt	LTP219	ltpFR	4	2	n/a	<>	-1	n/a	n/a	n/a	n/a	n/a	n/a	n/a
639.342	n/a	REC_WORD	319671	wordpools/wasnorm_wordpool_less_exclusions.txt	LTP219	ltpFR	4	2	0	COMMANDER	354	n/a	0	n/a	n/a	n/a	n/a	n/a
641.698	n/a	REC_WORD_VV	320849	wordpools/wasnorm_wordpool_less_exclusions.txt	LTP219	ltpFR	4	2	n/a	<>	-1	n/a	n/a	n/a	n/a	n/a	n/a	n/a
650.056	n/a	REC_WORD	325028	wordpools/wasnorm_wordpool_less_exclusions.txt	LTP219	ltpFR	4	2	1	PARROT	1015	n/a	1	n/a	n/a	n/a	n/a	n/a
656.14	n/a	REC_WORD	328070	wordpools/wasnorm_wordpool_less_exclusions.txt	LTP219	ltpFR	4	2	0	RABBIT	1152	n/a	0	n/a	n/a	n/a	n/a	n/a
659.196	n/a	REC_WORD_VV	329598	wordpools/wasnorm_wordpool_less_exclusions.txt	LTP219	ltpFR	4	2	n/a	<>	-1	n/a	n/a	n/a	n/a	n/a	n/a	n/a
662.328	n/a	REC_WORD_VV	331164	wordpools/wasnorm_wordpool_less_exclusions.txt	LTP219	ltpFR	4	2	n/a	<>	-1	n/a	n/a	n/a	n/a	n/a	n/a	n/a
663.312	n/a	REC_WORD_VV	331656	wordpools/wasnorm_wordpool_less_exclusions.txt	LTP219	ltpFR	4	2	n/a	<>	-1	n/a	n/a	n/a	n/a	n/a	n/a	n/a
667.28	n/a	REC_WORD_VV	333640	wordpools/wasnorm_wordpool_less_exclusions.txt	LTP219	ltpFR	4	2	n/a	<>	-1	n/a	n/a	n/a	n/a	n/a	n/a	n/a
675.29	n/a	REC_WORD_VV	337645	wordpools/wasnorm_wordpool_less_exclusions.txt	LTP219	ltpFR	4	2	n/a	<>	-1	n/a	n/a	n/a	n/a	n/a	n/a	n/a
676.304	n/a	REC_WORD_VV	338152	wordpools/wasnorm_wordpool_less_exclusions.txt	LTP219	ltpFR	4	2	n/a	<>	-1	n/a	n/a	n/a	n/a	n/a	n/a	n/a
677.836	n/a	REC_WORD_VV	338918	wordpools/wasnorm_wordpool_less_exclusions.txt	LTP219	ltpFR	4	2	n/a	<>	-1	n/a	n/a	n/a	n/a	n/a	n/a	n/a
678.844	n/a	REC_WORD_VV	339422	wordpools/wasnorm_wordpool_less_exclusions.txt	LTP219	ltpFR	4	2	n/a	<>	-1	n/a	n/a	n/a	n/a	n/a	n/a	n/a
689.894	n/a	REC_WORD_VV	344947	wordpools/wasnorm_wordpool_less_exclusions.txt	LTP219	ltpFR	4	2	n/a	<>	-1	n/a	n/a	n/a	n/a	n/a	n/a	n/a
694.038	n/a	REC_WORD	347019	wordpools/wasnorm_wordpool_less_exclusions.txt	LTP219	ltpFR	4	2	n/a	GRENADE	-1	n/a	n/a	n/a	n/a	n/a	n/a	n/a
695.068	n/a	REC_WORD_VV	347534	wordpools/wasnorm_wordpool_less_exclusions.txt	LTP219	ltpFR	4	2	n/a	<>	-1	n/a	n/a	n/a	n/a	n/a	n/a	n/a
698.016	n/a	REC_WORD_VV	349008	wordpools/wasnorm_wordpool_less_exclusions.txt	LTP219	ltpFR	4	2	n/a	<>	-1	n/a	n/a	n/a	n/a	n/a	n/a	n/a
708.086	n/a	WORD	354043	wordpools/wasnorm_wordpool_less_exclusions.txt	LTP219	ltpFR	4	3	-1	FEMALE	559	n/a	-1	1	1.0	1.0	upper	../fonts/Verdana.ttf
712.114	n/a	WORD	356057	wordpools/wasnorm_wordpool_less_exclusions.txt	LTP219	ltpFR	4	3	-1	LIMOUSINE	824	n/a	-1	1	1.0	1.0	upper	../fonts/Verdana.ttf
716.208	n/a	WORD	358104	wordpools/wasnorm_wordpool_less_exclusions.txt	LTP219	ltpFR	4	3	-1	FIG	563	n/a	-1	1	1.0	1.0	upper	../fonts/Verdana.ttf
720.402	n/a	WORD	360201	wordpools/wasnorm_wordpool_less_exclusions.txt	LTP219	ltpFR	4	3	-1	ACORN	3	n/a	-1	1	1.0	1.0	upper	../fonts/Verdana.ttf
724.446	n/a	WORD	362223	wordpools/wasnorm_wordpool_less_exclusions.txt	LTP219	ltpFR	4	3	-1	COACH	331	n/a	-1	1	1.0	1.0	upper	../fonts/Verdana.ttf
728.59	n/a	WORD	364295	wordpools/wasnorm_wordpool_less_exclusions.txt	LTP219	ltpFR	4	3	-1	TAG	1429	n/a	-1	1	1.0	1.0	upper	../fonts/Verdana.ttf
732.484	n/a	WORD	366242	wordpools/wasnorm_wordpool_less_exclusions.txt	LTP219	ltpFR	4	3	-1	GREASE	660	n/a	-1	1	1.0	1.0	upper	../fonts/Verdana.ttf
736.562	n/a	WORD	368281	wordpools/wasnorm_wordpool_less_exclusions.txt	LTP219	ltpFR	4	3	-1	PLANET	1082	n/a	-1	1	1.0	1.0	upper	../fonts/Verdana.ttf
740.688	n/a	WORD	370344	wordpools/wasnorm_wordpool_less_exclusions.txt	LTP219	ltpFR	4	3	-1	DRAWER	493	n/a	-1	1	1.0	1.0	upper	../fonts/Verdana.ttf
744.832	n/a	WORD	372416	wordpools/wasnorm_wordpool_less_exclusions.txt	LTP219	ltpFR	4	3	-1	DONKEY	484	n/a	-1	1	1.0	1.0	upper	../fonts/Verdana.ttf
748.86	n/a	WORD	374430	wordpools/wasnorm_wordpool_less_exclusions.txt	LTP219	ltpFR	4	3	-1	SWIMMER	1420	n/a	-1	1	1.0	1.0	upper	../fonts/Verdana.ttf
752.838	n/a	WORD	376419	wordpools/wasnorm_wordpool_less_exclusions.txt	LTP219	ltpFR	4	3	-1	OTTER	986	n/a	-1	1	1.0	1.0	upper	../fonts/Verdana.ttf
756.964	n/a	WORD	378482	wordpools/wasnorm_wordpool_less_exclusions.txt	LTP219	ltpFR	4	3	-1	VENUS	1557	n/a	-1	1	1.0	1.0	upper	../fonts/Verdana.ttf
761.008	n/a	WORD	380504	wordpools/wasnorm_wordpool_less_exclusions.txt	LTP219	ltpFR	4	3	-1	BUGGY	188	n/a	-1	1	1.0	1.0	upper	../fonts/Verdana.ttf
764.836	n/a	WORD	382418	wordpools/wasnorm_wordpool_less_exclusions.txt	LTP219	ltpFR	4	3	-1	MAILMAN	858	n/a	-1	1	1.0	1.0	upper	../fonts/Verdana.ttf
768.996	n/a	WORD	384498	wordpools/wasnorm_wordpool_less_exclusions.txt	LTP219	ltpFR	4	3	-1	DRIVEWAY	500	n/a	-1	1	1.0	1.0	upper	../fonts/Verdana.ttf
774.922	n/a	REC_START	387461	n/a	LTP219	ltpFR	4	3	n/a	n/a	n/a	n/a	n/a	n/a	n/a	n/a	n/a	n/a
776.168	n/a	REC_WORD	388084	wordpools/wasnorm_wordpool_less_exclusions.txt	LTP219	ltpFR	4	3	-1	BUGGY	188	n/a	-1	n/a	n/a	n/a	n/a	n/a
778.63	n/a	REC_WORD_VV	389315	wordpools/wasnorm_wordpool_less_exclusions.txt	LTP219	ltpFR	4	3	n/a	<>	-1	n/a	n/a	n/a	n/a	n/a	n/a	n/a
779.648	n/a	REC_WORD_VV	389824	wordpools/wasnorm_wordpool_less_exclusions.txt	LTP219	ltpFR	4	3	n/a	<>	-1	n/a	n/a	n/a	n/a	n/a	n/a	n/a
780.614	n/a	REC_WORD	390307	wordpools/wasnorm_wordpool_less_exclusions.txt	LTP219	ltpFR	4	3	n/a	ROADWAY	-1	n/a	n/a	n/a	n/a	n/a	n/a	n/a
781.968	n/a	REC_WORD	390984	wordpools/wasnorm_wordpool_less_exclusions.txt	LTP219	ltpFR	4	3	-1	MAILMAN	858	n/a	-1	n/a	n/a	n/a	n/a	n/a
784.192	n/a	REC_WORD_VV	392096	wordpools/wasnorm_wordpool_less_exclusions.txt	LTP219	ltpFR	4	3	n/a	<>	-1	n/a	n/a	n/a	n/a	n/a	n/a	n/a
785.926	n/a	REC_WORD	392963	wordpools/wasnorm_wordpool_less_exclusions.txt	LTP219	ltpFR	4	3	-1	FIG	563	n/a	-1	n/a	n/a	n/a	n/a	n/a
786.918	n/a	REC_WORD_VV	393459	wordpools/wasnorm_wordpool_less_exclusions.txt	LTP219	ltpFR	4	3	n/a	<>	-1	n/a	n/a	n/a	n/a	n/a	n/a	n/a
788.35	n/a	REC_WORD	394175	wordpools/wasnorm_wordpool_less_exclusions.txt	LTP219	ltpFR	4	3	-1	ACORN	3	n/a	-1	n/a	n/a	n/a	n/a	n/a
791.566	n/a	REC_WORD_VV	395783	wordpools/wasnorm_wordpool_less_exclusions.txt	LTP219	ltpFR	4	3	n/a	<>	-1	n/a	n/a	n/a	n/a	n/a	n/a	n/a
794.556	n/a	REC_WORD_VV	397278	wordpools/wasnorm_wordpool_less_exclusions.txt	LTP219	ltpFR	4	3	n/a	<>	-1	n/a	n/a	n/a	n/a	n/a	n/a	n/a
795.584	n/a	REC_WORD_VV	397792	wordpools/wasnorm_wordpool_less_exclusions.txt	LTP219	ltpFR	4	3	n/a	<>	-1	n/a	n/a	n/a	n/a	n/a	n/a	n/a
797.188	n/a	REC_WORD_VV	398594	wordpools/wasnorm_wordpool_less_exclusions.txt	LTP219	ltpFR	4	3	n/a	<>	-1	n/a	n/a	n/a	n/a	n/a	n/a	n/a
802.836	n/a	REC_WORD_VV	401418	wordpools/wasnorm_wordpool_less_exclusions.txt	LTP219	ltpFR	4	3	n/a	<>	-1	n/a	n/a	n/a	n/a	n/a	n/a	n/a
803.842	n/a	REC_WORD_VV	401921	wordpools/wasnorm_wordpool_less_exclusions.txt	LTP219	ltpFR	4	3	n/a	<>	-1	n/a	n/a	n/a	n/a	n/a	n/a	n/a
806.056	n/a	REC_WORD	403028	wordpools/wasnorm_wordpool_less_exclusions.txt	LTP219	ltpFR	4	3	-1	DRIVEWAY	500	n/a	-1	n/a	n/a	n/a	n/a	n/a
810.732	n/a	REC_WORD_VV	405366	wordpools/wasnorm_wordpool_less_exclusions.txt	LTP219	ltpFR	4	3	n/a	<>	-1	n/a	n/a	n/a	n/a	n/a	n/a	n/a
811.746	n/a	REC_WORD_VV	405873	wordpools/wasnorm_wordpool_less_exclusions.txt	LTP219	ltpFR	4	3	n/a	<>	-1	n/a	n/a	n/a	n/a	n/a	n/a	n/a
813.482	n/a	REC_WORD	406741	wordpools/wasnorm_wordpool_less_exclusions.txt	LTP219	ltpFR	4	3	-1	ACORN	3	n/a	-1	n/a	n/a	n/a	n/a	n/a
814.572	n/a	REC_WORD_VV	407286	wordpools/wasnorm_wordpool_less_exclusions.txt	LTP219	ltpFR	4	3	n/a	<>	-1	n/a	n/a	n/a	n/a	n/a	n/a	n/a
815.252	n/a	REC_WORD	407626	wordpools/wasnorm_wordpool_less_exclusions.txt	LTP219	ltpFR	4	3	-1	FIG	563	n/a	-1	n/a	n/a	n/a	n/a	n/a
817.764	n/a	REC_WORD_VV	408882	wordpools/wasnorm_wordpool_less_exclusions.txt	LTP219	ltpFR	4	3	n/a	<>	-1	n/a	n/a	n/a	n/a	n/a	n/a	n/a
822.54	n/a	REC_WORD	411270	wordpools/wasnorm_wordpool_less_exclusions.txt	LTP219	ltpFR	4	3	0	COMMANDER	354	n/a	0	n/a	n/a	n/a	n/a	n/a
824.866	n/a	REC_WORD_VV	412433	wordpools/wasnorm_wordpool_less_exclusions.txt	LTP219	ltpFR	4	3	n/a	<>	-1	n/a	n/a	n/a	n/a	n/a	n/a	n/a
825.864	n/a	REC_WORD_VV	412932	wordpools/wasnorm_wordpool_less_exclusions.txt	LTP219	ltpFR	4	3	n/a	<>	-1	n/a	n/a	n/a	n/a	n/a	n/a	n/a
832.032	n/a	REC_WORD	416016	wordpools/wasnorm_wordpool_less_exclusions.txt	LTP219	ltpFR	4	3	-1	ACORN	3	n/a	-1	n/a	n/a	n/a	n/a	n/a
834.424	n/a	REC_WORD	417212	wordpools/wasnorm_wordpool_less_exclusions.txt	LTP219	ltpFR	4	3	-1	FIG	563	n/a	-1	n/a	n/a	n/a	n/a	n/a
837.826	n/a	REC_WORD_VV	418913	wordpools/wasnorm_wordpool_less_exclusions.txt	LTP219	ltpFR	4	3	n/a	<>	-1	n/a	n/a	n/a	n/a	n/a	n/a	n/a
838.858	n/a	REC_WORD_VV	419429	wordpools/wasnorm_wordpool_less_exclusions.txt	LTP219	ltpFR	4	3	n/a	<>	-1	n/a	n/a	n/a	n/a	n/a	n/a	n/a
844.488	n/a	REC_WORD_VV	422244	wordpools/wasnorm_wordpool_less_exclusions.txt	LTP219	ltpFR	4	3	n/a	<>	-1	n/a	n/a	n/a	n/a	n/a	n/a	n/a
847.592	n/a	REC_WORD_VV	423796	wordpools/wasnorm_wordpool_less_exclusions.txt	LTP219	ltpFR	4	3	n/a	<>	-1	n/a	n/a	n/a	n/a	n/a	n/a	n/a
849.39	n/a	REC_WORD	424695	wordpools/wasnorm_wordpool_less_exclusions.txt	LTP219	ltpFR	4	3	-1	FIG	563	n/a	-1	n/a	n/a	n/a	n/a	n/a
858.032	n/a	WORD	429016	wordpools/wasnorm_wordpool_less_exclusions.txt	LTP219	ltpFR	4	4	0	TWIG	1527	n/a	0	0	0.5869140625	0.422607421875	lower	../fonts/zerothre.ttf
861.892	n/a	WORD	430946	wordpools/wasnorm_wordpool_less_exclusions.txt	LTP219	ltpFR	4	4	0	CUE	422	n/a	0	0	0.5869140625	0.422607421875	lower	../fonts/zerothre.ttf
865.82	n/a	WORD	432910	wordpools/wasnorm_wordpool_less_exclusions.txt	LTP219	ltpFR	4	4	0	CREEK	404	n/a	0	0	0.5869140625	0.422607421875	lower	../fonts/zerothre.ttf
869.98	n/a	WORD	434990	wordpools/wasnorm_wordpool_less_exclusions.txt	LTP219	ltpFR	4	4	0	PURSE	1145	n/a	0	0	0.5869140625	0.422607421875	lower	../fonts/zerothre.ttf
873.842	n/a	WORD	436921	wordpools/wasnorm_wordpool_less_exclusions.txt	LTP219	ltpFR	4	4	0	OVEN	991	n/a	0	0	0.5869140625	0.422607421875	lower	../fonts/zerothre.ttf
877.702	n/a	WORD	438851	wordpools/wasnorm_wordpool_less_exclusions.txt	LTP219	ltpFR	4	4	0	RACK	1154	n/a	0	0	0.5869140625	0.422607421875	lower	../fonts/zerothre.ttf
881.63	n/a	WORD	440815	wordpools/wasnorm_wordpool_less_exclusions.txt	LTP219	ltpFR	4	4	0	ATTIRE	57	n/a	0	0	0.5869140625	0.422607421875	lower	../fonts/zerothre.ttf
885.724	n/a	WORD	442862	wordpools/wasnorm_wordpool_less_exclusions.txt	LTP219	ltpFR	4	4	0	CURB	426	n/a	0	0	0.5869140625	0.422607421875	lower	../fonts/zerothre.ttf
889.602	n/a	WORD	444801	wordpools/wasnorm_wordpool_less_exclusions.txt	LTP219	ltpFR	4	4	0	BOOK	149	n/a	0	0	0.5869140625	0.422607421875	lower	../fonts/zerothre.ttf
893.712	n/a	WORD	446856	wordpools/wasnorm_wordpool_less_exclusions.txt	LTP219	ltpFR	4	4	0	VIOLA	1570	n/a	0	0	0.5869140625	0.422607421875	lower	../fonts/zerothre.ttf
897.608	n/a	WORD	448804	wordpools/wasnorm_wordpool_less_exclusions.txt	LTP219	ltpFR	4	4	0	LUNCH	849	n/a	0	0	0.5869140625	0.422607421875	lower	../fonts/zerothre.ttf
901.734	n/a	WORD	450867	wordpools/wasnorm_wordpool_less_exclusions.txt	LTP219	ltpFR	4	4	0	QUARTER	1148	n/a	0	0	0.5869140625	0.422607421875	lower	../fonts/zerothre.ttf
905.91	n/a	WORD	452955	wordpools/wasnorm_wordpool_less_exclusions.txt	LTP219	ltpFR	4	4	0	DOLLAR	482	n/a	0	0	0.5869140625	0.422607421875	lower	../fonts/zerothre.ttf
909.738	n/a	WORD	454869	wordpools/wasnorm_wordpool_less_exclusions.txt	LTP219	ltpFR	4	4	0	PAGE	1001	n/a	0	0	0.5869140625	0.422607421875	lower	../fonts/zerothre.ttf
913.568	n/a	WORD	456784	wordpools/wasnorm_wordpool_less_exclusions.txt	LTP219	ltpFR	4	4	0	SACK	1220	n/a	0	0	0.5869140625	0.422607421875	lower	../fonts/zerothre.ttf
917.444	n/a	WORD	458722	wordpools/wasnorm_wordpool_less_exclusions.txt	LTP219	ltpFR	4	4	0	MEAL	882	n/a	0	0	0.5869140625	0.422607421875	lower	../fonts/zerothre.ttf
923.37	n/a	REC_START	461685	n/a	LTP219	ltpFR	4	4	n/a	n/a	n/a	n/a	n/a	n/a	n/a	n/a	n/a	n/a
924.466	n/a	REC_WORD	462233	wordpools/wasnorm_wordpool_less_exclusions.txt	LTP219	ltpFR	4	4	0	QUARTER	1148	n/a	0	n/a	n/a	n/a	n/a	n/a
925.65	n/a	REC_WORD	462825	wordpools/wasnorm_wordpool_less_exclusions.txt	LTP219	ltpFR	4	4	0	DOLLAR	482	n/a	0	n/a	n/a	n/a	n/a	n/a
927.056	n/a	REC_WORD	463528	wordpools/wasnorm_wordpool_less_exclusions.txt	LTP219	ltpFR	4	4	0	MEAL	882	n/a	0	n/a	n/a	n/a	n/a	n/a
928.452	n/a	REC_WORD	464226	wordpools/wasnorm_wordpool_less_exclusions.txt	LTP219	ltpFR	4	4	0	PAGE	1001	n/a	0	n/a	n/a	n/a	n/a	n/a
930.284	n/a	REC_WORD	465142	wordpools/wasnorm_wordpool_less_exclusions.txt	LTP219	ltpFR	4	4	0	BOOK	149	n/a	0	n/a	n/a	n/a	n/a	n/a
933.626	n/a	REC_WORD_VV	466813	wordpools/wasnorm_wordpool_less_exclusions.txt	LTP219	ltpFR	4	4	n/a	<>	-1	n/a	n/a	n/a	n/a	n/a	n/a	n/a
939.278	n/a	REC_WORD	469639	wordpools/wasnorm_wordpool_less_exclusions.txt	LTP219	ltpFR	4	4	0	OVEN	991	n/a	0	n/a	n/a	n/a	n/a	n/a
942.344	n/a	REC_WORD	471172	wordpools/wasnorm_wordpool_less_exclusions.txt	LTP219	ltpFR	4	4	0	RACK	1154	n/a	0	n/a	n/a	n/a	n/a	n/a
953.358	n/a	REC_WORD	476679	wordpools/wasnorm_wordpool_less_exclusions.txt	LTP219	ltpFR	4	4	0	PAGE	1001	n/a	0	n/a	n/a	n/a	n/a	n/a
954.67	n/a	REC_WORD	477335	wordpools/wasnorm_wordpool_less_exclusions.txt	LTP219	ltpFR	4	4	0	BOOK	149	n/a	0	n/a	n/a	n/a	n/a	n/a
955.896	n/a	REC_WORD	477948	wordpools/wasnorm_wordpool_less_exclusions.txt	LTP219	ltpFR	4	4	0	TWIG	1527	n/a	0	n/a	n/a	n/a	n/a	n/a
959.776	n/a	REC_WORD_VV	479888	wordpools/wasnorm_wordpool_less_exclusions.txt	LTP219	ltpFR	4	4	n/a	<>	-1	n/a	n/a	n/a	n/a	n/a	n/a	n/a
960.754	n/a	REC_WORD_VV	480377	wordpools/wasnorm_wordpool_less_exclusions.txt	LTP219	ltpFR	4	4	n/a	<>	-1	n/a	n/a	n/a	n/a	n/a	n/a	n/a
965.798	n/a	REC_WORD	482899	wordpools/wasnorm_wordpool_less_exclusions.txt	LTP219	ltpFR	4	4	n/a	TROPICAL	-1	n/a	n/a	n/a	n/a	n/a	n/a	n/a
966.88	n/a	REC_WORD_VV	483440	wordpools/wasnorm_wordpool_less_exclusions.txt	LTP219	ltpFR	4	4	n/a	<>	-1	n/a	n/a	n/a	n/a	n/a	n/a	n/a
968.572	n/a	REC_WORD_VV	484286	wordpools/wasnorm_wordpool_less_exclusions.txt	LTP219	ltpFR	4	4	n/a	<>	-1	n/a	n/a	n/a	n/a	n/a	n/a	n/a
971.246	n/a	REC_WORD_VV	485623	wordpools/wasnorm_wordpool_less_exclusions.txt	LTP219	ltpFR	4	4	n/a	<>	-1	n/a	n/a	n/a	n/a	n/a	n/a	n/a
974.43	n/a	REC_WORD_VV	487215	wordpools/wasnorm_wordpool_less_exclusions.txt	LTP219	ltpFR	4	4	n/a	<>	-1	n/a	n/a	n/a	n/a	n/a	n/a	n/a
975.446	n/a	REC_WORD	487723	wordpools/wasnorm_wordpool_less_exclusions.txt	LTP219	ltpFR	4	4	1	WILDERNESS	1610	n/a	1	n/a	n/a	n/a	n/a	n/a
976.446	n/a	REC_WORD_VV	488223	wordpools/wasnorm_wordpool_less_exclusions.txt	LTP219	ltpFR	4	4	n/a	<>	-1	n/a	n/a	n/a	n/a	n/a	n/a	n/a
979.682	n/a	REC_WORD_VV	489841	wordpools/wasnorm_wordpool_less_exclusions.txt	LTP219	ltpFR	4	4	n/a	<>	-1	n/a	n/a	n/a	n/a	n/a	n/a	n/a
980.402	n/a	REC_WORD	490201	wordpools/wasnorm_wordpool_less_exclusions.txt	LTP219	ltpFR	4	4	0	TWIG	1527	n/a	0	n/a	n/a	n/a	n/a	n/a
982.522	n/a	REC_WORD_VV	491261	wordpools/wasnorm_wordpool_less_exclusions.txt	LTP219	ltpFR	4	4	n/a	<>	-1	n/a	n/a	n/a	n/a	n/a	n/a	n/a
989.51	n/a	REC_WORD	494755	wordpools/wasnorm_wordpool_less_exclusions.txt	LTP219	ltpFR	4	4	0	PAGE	1001	n/a	0	n/a	n/a	n/a	n/a	n/a
990.508	n/a	REC_WORD_VV	495254	wordpools/wasnorm_wordpool_less_exclusions.txt	LTP219	ltpFR	4	4	n/a	<>	-1	n/a	n/a	n/a	n/a	n/a	n/a	n/a
993.974	n/a	REC_WORD	496987	wordpools/wasnorm_wordpool_less_exclusions.txt	LTP219	ltpFR	4	4	0	TWIG	1527	n/a	0	n/a	n/a	n/a	n/a	n/a
994.982	n/a	REC_WORD_VV	497491	wordpools/wasnorm_wordpool_less_exclusions.txt	LTP219	ltpFR	4	4	n/a	<>	-1	n/a	n/a	n/a	n/a	n/a	n/a	n/a
997.008	n/a	REC_WORD_VV	498504	wordpools/wasnorm_wordpool_less_exclusions.txt	LTP219	ltpFR	4	4	n/a	<>	-1	n/a	n/a	n/a	n/a	n/a	n/a	n/a
1004.814	n/a	WORD	502407	wordpools/wasnorm_wordpool_less_exclusions.txt	LTP219	ltpFR	4	5	1	BUSH	202	n/a	1	1	0.412841796875	0.57763671875	upper	../fonts/amplitud.ttf
1008.774	n/a	WORD	504387	wordpools/wasnorm_wordpool_less_exclusions.txt	LTP219	ltpFR	4	5	1	STUMP	1396	n/a	0	1	0.412841796875	0.57763671875	upper	../fonts/amplitud.ttf
1012.836	n/a	WORD	506418	wordpools/wasnorm_wordpool_less_exclusions.txt	LTP219	ltpFR	4	5	1	DECK	443	n/a	0	1	0.412841796875	0.57763671875	upper	../fonts/amplitud.ttf
1016.912	n/a	WORD	508456	wordpools/wasnorm_wordpool_less_exclusions.txt	LTP219	ltpFR	4	5	1	MARSH	874	n/a	0	1	0.412841796875	0.57763671875	upper	../fonts/amplitud.ttf
1020.924	n/a	WORD	510462	wordpools/wasnorm_wordpool_less_exclusions.txt	LTP219	ltpFR	4	5	1	HAT	690	n/a	0	1	0.412841796875	0.57763671875	upper	../fonts/amplitud.ttf
1024.786	n/a	WORD	512393	wordpools/wasnorm_wordpool_less_exclusions.txt	LTP219	ltpFR	4	5	1	LIPSTICK	829	n/a	0	1	0.412841796875	0.57763671875	upper	../fonts/amplitud.ttf
1028.648	n/a	WORD	514324	wordpools/wasnorm_wordpool_less_exclusions.txt	LTP219	ltpFR	4	5	1	BAY	102	n/a	0	1	0.412841796875	0.57763671875	upper	../fonts/amplitud.ttf
1032.756	n/a	WORD	516378	wordpools/wasnorm_wordpool_less_exclusions.txt	LTP219	ltpFR	4	5	1	TANK	1432	n/a	0	1	0.412841796875	0.57763671875	upper	../fonts/amplitud.ttf
1036.934	n/a	WORD	518467	wordpools/wasnorm_wordpool_less_exclusions.txt	LTP219	ltpFR	4	5	1	SQUID	1361	n/a	0	1	0.412841796875	0.57763671875	upper	../fonts/amplitud.ttf
1040.944	n/a	WORD	520472	wordpools/wasnorm_wordpool_less_exclusions.txt	LTP219	ltpFR	4	5	1	CHILD	299	n/a	0	1	0.412841796875	0.57763671875	upper	../fonts/amplitud.ttf
1045.088	n/a	WORD	522544	wordpools/wasnorm_wordpool_less_exclusions.txt	LTP219	ltpFR	4	5	1	BALL	73	n/a	0	1	0.412841796875	0.57763671875	upper	../fonts/amplitud.ttf
1049.248	n/a	WORD	524624	wordpools/wasnorm_wordpool_less_exclusions.txt	LTP219	ltpFR	4	5	1	ITEM	746	n/a	0	1	0.412841796875	0.57763671875	upper	../fonts/amplitud.ttf
1053.344	n/a	WORD	526672	wordpools/wasnorm_wordpool_less_exclusions.txt	LTP219	ltpFR	4	5	1	FLOWER	584	n/a	0	1	0.412841796875	0.57763671875	upper	../fonts/amplitud.ttf
1057.236	n/a	WORD	528618	wordpools/wasnorm_wordpool_less_exclusions.txt	LTP219	ltpFR	4	5	1	CHAIR	274	n/a	0	1	0.412841796875	0.57763671875	upper	../fonts/amplitud.ttf
1061.098	n/a	WORD	530549	wordpools/wasnorm_wordpool_less_exclusions.txt	LTP219	ltpFR	4	5	1	LAGOON	795	n/a	1	1	0.412841796875	0.57763671875	upper	../fonts/amplitud.ttf
1065.208	n/a	WORD	532604	wordpools/wasnorm_wordpool_less_exclusions.txt	LTP219	ltpFR	4	5	1	DANDELION	438	n/a	0	1	0.412841796875	0.57763671875	upper	../fonts/amplitud.ttf
1070.95	n/a	REC_START	535475	n/a	LTP219	ltpFR	4	5	n/a	n/a	n/a	n/a	n/a	n/a	n/a	n/a	n/a	n/a
1072.182	n/a	REC_WORD	536091	wordpools/wasnorm_wordpool_less_exclusions.txt	LTP219	ltpFR	4	5	1	DANDELION	438	n/a	0	n/a	n/a	n/a	n/a	n/a
1073.3	n/a	REC_WORD	536650	wordpools/wasnorm_wordpool_less_exclusions.txt	LTP219	ltpFR	4	5	1	FLOWER	584	n/a	0	n/a	n/a	n/a	n/a	n/a
1074.636	n/a	REC_WORD	537318	wordpools/wasnorm_wordpool_less_exclusions.txt	LTP219	ltpFR	4	5	1	CHILD	299	n/a	0	n/a	n/a	n/a	n/a	n/a
1076.304	n/a	REC_WORD	538152	wordpools/wasnorm_wordpool_less_exclusions.txt	LTP219	ltpFR	4	5	1	BALL	73	n/a	0	n/a	n/a	n/a	n/a	n/a
1078.802	n/a	REC_WORD	539401	wordpools/wasnorm_wordpool_less_exclusions.txt	LTP219	ltpFR	4	5	1	WILDERNESS	1610	n/a	1	n/a	n/a	n/a	n/a	n/a
1079.798	n/a	REC_WORD_VV	539899	wordpools/wasnorm_wordpool_less_exclusions.txt	LTP219	ltpFR	4	5	n/a	<>	-1	n/a	n/a	n/a	n/a	n/a	n/a	n/a
1081.862	n/a	REC_WORD_VV	540931	wordpools/wasnorm_wordpool_less_exclusions.txt	LTP219	ltpFR	4	5	n/a	<>	-1	n/a	n/a	n/a	n/a	n/a	n/a	n/a
1085.986	n/a	REC_WORD	542993	wordpools/wasnorm_wordpool_less_exclusions.txt	LTP219	ltpFR	4	5	1	LAGOON	795	n/a	1	n/a	n/a	n/a	n/a	n/a
1088.78	n/a	REC_WORD_VV	544390	wordpools/wasnorm_wordpool_less_exclusions.txt	LTP219	ltpFR	4	5	n/a	<>	-1	n/a	n/a	n/a	n/a	n/a	n/a	n/a
1091.378	n/a	REC_WORD_VV	545689	wordpools/wasnorm_wordpool_less_exclusions.txt	LTP219	ltpFR	4	5	n/a	<>	-1	n/a	n/a	n/a	n/a	n/a	n/a	n/a
1092.408	n/a	REC_WORD_VV	546204	wordpools/wasnorm_wordpool_less_exclusions.txt	LTP219	ltpFR	4	5	n/a	<>	-1	n/a	n/a	n/a	n/a	n/a	n/a	n/a
1093.434	n/a	REC_WORD_VV	546717	wordpools/wasnorm_wordpool_less_exclusions.txt	LTP219	ltpFR	4	5	n/a	<>	-1	n/a	n/a	n/a	n/a	n/a	n/a	n/a
1094.98	n/a	REC_WORD_VV	547490	wordpools/wasnorm_wordpool_less_exclusions.txt	LTP219	ltpFR	4	5	n/a	<>	-1	n/a	n/a	n/a	n/a	n/a	n/a	n/a
1099.172	n/a	REC_WORD	549586	wordpools/wasnorm_wordpool_less_exclusions.txt	LTP219	ltpFR	4	5	n/a	BAR	-1	n/a	n/a	n/a	n/a	n/a	n/a	n/a
1102.498	n/a	REC_WORD_VV	551249	wordpools/wasnorm_wordpool_less_exclusions.txt	LTP219	ltpFR	4	5	n/a	<>	-1	n/a	n/a	n/a	n/a	n/a	n/a	n/a
1105.362	n/a	REC_WORD_VV	552681	wordpools/wasnorm_wordpool_less_exclusions.txt	LTP219	ltpFR	4	5	n/a	<>	-1	n/a	n/a	n/a	n/a	n/a	n/a	n/a
1106.834	n/a	REC_WORD	553417	wordpools/wasnorm_wordpool_less_exclusions.txt	LTP219	ltpFR	4	5	n/a	SWAMP	1416	n/a	n/a	n/a	n/a	n/a	n/a	n/a
1108.756	n/a	REC_WORD_VV	554378	wordpools/wasnorm_wordpool_less_exclusions.txt	LTP219	ltpFR	4	5	n/a	<>	-1	n/a	n/a	n/a	n/a	n/a	n/a	n/a
1120.06	n/a	REC_WORD	560030	wordpools/wasnorm_wordpool_less_exclusions.txt	LTP219	ltpFR	4	5	n/a	BIRD	129	n/a	n/a	n/a	n/a	n/a	n/a	n/a
1121.082	n/a	REC_WORD	560541	wordpools/wasnorm_wordpool_less_exclusions.txt	LTP219	ltpFR	4	5	n/a	RING	1193	n/a	n/a	n/a	n/a	n/a	n/a	n/a
1122.624	n/a	REC_WORD	561312	wordpools/wasnorm_wordpool_less_exclusions.txt	LTP219	ltpFR	4	5	n/a	OCTOPUS	971	n/a	n/a	n/a	n/a	n/a	n/a	n/a
1123.622	n/a	REC_WORD_VV	561811	wordpools/wasnorm_wordpool_less_exclusions.txt	LTP219	ltpFR	4	5	n/a	<>	-1	n/a	n/a	n/a	n/a	n/a	n/a	n/a
1126.13	n/a	REC_WORD_VV	563065	wordpools/wasnorm_wordpool_less_exclusions.txt	LTP219	ltpFR	4	5	n/a	<>	-1	n/a	n/a	n/a	n/a	n/a	n/a	n/a
1128.354	n/a	REC_WORD_VV	564177	wordpools/wasnorm_wordpool_less_exclusions.txt	LTP219	ltpFR	4	5	n/a	<>	-1	n/a	n/a	n/a	n/a	n/a	n/a	n/a
1132.496	n/a	REC_WORD_VV	566248	wordpools/wasnorm_wordpool_less_exclusions.txt	LTP219	ltpFR	4	5	n/a	<>	-1	n/a	n/a	n/a	n/a	n/a	n/a	n/a
1137.066	n/a	REC_WORD	568533	wordpools/wasnorm_wordpool_less_exclusions.txt	LTP219	ltpFR	4	5	1	FLOWER	584	n/a	0	n/a	n/a	n/a	n/a	n/a
1137.932	n/a	REC_WORD	568966	wordpools/wasnorm_wordpool_less_exclusions.txt	LTP219	ltpFR	4	5	1	DANDELION	438	n/a	0	n/a	n/a	n/a	n/a	n/a
1140.442	n/a	REC_WORD_VV	570221	wordpools/wasnorm_wordpool_less_exclusions.txt	LTP219	ltpFR	4	5	n/a	<>	-1	n/a	n/a	n/a	n/a	n/a	n/a	n/a
1144.66	n/a	REC_WORD_VV	572330	wordpools/wasnorm_wordpool_less_exclusions.txt	LTP219	ltpFR	4	5	n/a	<>	-1	n/a	n/a	n/a	n/a	n/a	n/a	n/a
1177.776	n/a	WORD	588888	wordpools/wasnorm_wordpool_less_exclusions.txt	LTP219	ltpFR	4	6	0	RADIATOR	1156	n/a	0	0	0.5869140625	0.422607421875	lower	../fonts/zerothre.ttf
1181.986	n/a	WORD	590993	wordpools/wasnorm_wordpool_less_exclusions.txt	LTP219	ltpFR	4	6	0	PENNY	1045	n/a	0	0	0.5869140625	0.422607421875	lower	../fonts/zerothre.ttf
1186.18	n/a	WORD	593090	wordpools/wasnorm_wordpool_less_exclusions.txt	LTP219	ltpFR	4	6	0	VAULT	1550	n/a	1	0	0.5869140625	0.422607421875	lower	../fonts/zerothre.ttf
1190.04	n/a	WORD	595020	wordpools/wasnorm_wordpool_less_exclusions.txt	LTP219	ltpFR	4	6	0	ROOM	1206	n/a	1	0	0.5869140625	0.422607421875	lower	../fonts/zerothre.ttf
1193.868	n/a	WORD	596934	wordpools/wasnorm_wordpool_less_exclusions.txt	LTP219	ltpFR	4	6	0	BIKE	125	n/a	0	0	0.5869140625	0.422607421875	lower	../fonts/zerothre.ttf
1197.828	n/a	WORD	598914	wordpools/wasnorm_wordpool_less_exclusions.txt	LTP219	ltpFR	4	6	0	SILK	1307	n/a	0	0	0.5869140625	0.422607421875	lower	../fonts/zerothre.ttf
1201.756	n/a	WORD	600878	wordpools/wasnorm_wordpool_less_exclusions.txt	LTP219	ltpFR	4	6	0	CAB	209	n/a	1	0	0.5869140625	0.422607421875	lower	../fonts/zerothre.ttf
1205.916	n/a	WORD	602958	wordpools/wasnorm_wordpool_less_exclusions.txt	LTP219	ltpFR	4	6	0	TRACTOR	1493	n/a	1	0	0.5869140625	0.422607421875	lower	../fonts/zerothre.ttf
1209.828	n/a	WORD	604914	wordpools/wasnorm_wordpool_less_exclusions.txt	LTP219	ltpFR	4	6	0	SCENERY	1247	n/a	1	0	0.5869140625	0.422607421875	lower	../fonts/zerothre.ttf
1214.038	n/a	WORD	607019	wordpools/wasnorm_wordpool_less_exclusions.txt	LTP219	ltpFR	4	6	0	ASTEROID	50	n/a	0	0	0.5869140625	0.422607421875	lower	../fonts/zerothre.ttf
1218.214	n/a	WORD	609107	wordpools/wasnorm_wordpool_less_exclusions.txt	LTP219	ltpFR	4	6	0	RAG	1160	n/a	0	0	0.5869140625	0.422607421875	lower	../fonts/zerothre.ttf
1222.076	n/a	WORD	611038	wordpools/wasnorm_wordpool_less_exclusions.txt	LTP219	ltpFR	4	6	0	BRANDY	169	n/a	0	0	0.5869140625	0.422607421875	lower	../fonts/zerothre.ttf
1226.004	n/a	WORD	613002	wordpools/wasnorm_wordpool_less_exclusions.txt	LTP219	ltpFR	4	6	0	FLASK	576	n/a	0	0	0.5869140625	0.422607421875	lower	../fonts/zerothre.ttf
1230.148	n/a	WORD	615074	wordpools/wasnorm_wordpool_less_exclusions.txt	LTP219	ltpFR	4	6	0	LUMBER	848	n/a	1	0	0.5869140625	0.422607421875	lower	../fonts/zerothre.ttf
1234.258	n/a	WORD	617129	wordpools/wasnorm_wordpool_less_exclusions.txt	LTP219	ltpFR	4	6	0	WATERFALL	1595	n/a	1	0	0.5869140625	0.422607421875	lower	../fonts/zerothre.ttf
1238.102	n/a	WORD	619051	wordpools/wasnorm_wordpool_less_exclusions.txt	LTP219	ltpFR	4	6	0	EMERALD	528	n/a	0	0	0.5869140625	0.422607421875	lower	../fonts/zerothre.ttf
1243.978	n/a	REC_START	621989	n/a	LTP219	ltpFR	4	6	n/a	n/a	n/a	n/a	n/a	n/a	n/a	n/a	n/a	n/a
1245.356	n/a	REC_WORD	622678	wordpools/wasnorm_wordpool_less_exclusions.txt	LTP219	ltpFR	4	6	0	EMERALD	528	n/a	0	n/a	n/a	n/a	n/a	n/a
1246.698	n/a	REC_WORD	623349	wordpools/wasnorm_wordpool_less_exclusions.txt	LTP219	ltpFR	4	6	0	WATERFALL	1595	n/a	1	n/a	n/a	n/a	n/a	n/a
1248.208	n/a	REC_WORD	624104	wordpools/wasnorm_wordpool_less_exclusions.txt	LTP219	ltpFR	4	6	0	LUMBER	848	n/a	1	n/a	n/a	n/a	n/a	n/a
1250.104	n/a	REC_WORD	625052	wordpools/wasnorm_wordpool_less_exclusions.txt	LTP219	ltpFR	4	6	0	BRANDY	169	n/a	0	n/a	n/a	n/a	n/a	n/a
1253.202	n/a	REC_WORD_VV	626601	wordpools/wasnorm_wordpool_less_exclusions.txt	LTP219	ltpFR	4	6	n/a	<>	-1	n/a	n/a	n/a	n/a	n/a	n/a	n/a
1256.906	n/a	REC_WORD_VV	628453	wordpools/wasnorm_wordpool_less_exclusions.txt	LTP219	ltpFR	4	6	n/a	<>	-1	n/a	n/a	n/a	n/a	n/a	n/a	n/a
1257.916	n/a	REC_WORD_VV	628958	wordpools/wasnorm_wordpool_less_exclusions.txt	LTP219	ltpFR	4	6	n/a	<>	-1	n/a	n/a	n/a	n/a	n/a	n/a	n/a
1265.622	n/a	REC_WORD	632811	wordpools/wasnorm_wordpool_less_exclusions.txt	LTP219	ltpFR	4	6	n/a	KISS	-1	n/a	n/a	n/a	n/a	n/a	n/a	n/a
1268.182	n/a	REC_WORD	634091	wordpools/wasnorm_wordpool_less_exclusions.txt	LTP219	ltpFR	4	6	0	WATERFALL	1595	n/a	1	n/a	n/a	n/a	n/a	n/a
1269.188	n/a	REC_WORD_VV	634594	wordpools/wasnorm_wordpool_less_exclusions.txt	LTP219	ltpFR	4	6	n/a	<>	-1	n/a	n/a	n/a	n/a	n/a	n/a	n/a
1271.268	n/a	REC_WORD_VV	635634	wordpools/wasnorm_wordpool_less_exclusions.txt	LTP219	ltpFR	4	6	n/a	<>	-1	n/a	n/a	n/a	n/a	n/a	n/a	n/a
1273.29	n/a	REC_WORD_VV	636645	wordpools/wasnorm_wordpool_less_exclusions.txt	LTP219	ltpFR	4	6	n/a	<>	-1	n/a	n/a	n/a	n/a	n/a	n/a	n/a
1275.614	n/a	REC_WORD	637807	wordpools/wasnorm_wordpool_less_exclusions.txt	LTP219	ltpFR	4	6	0	LUMBER	848	n/a	1	n/a	n/a	n/a	n/a	n/a
1276.646	n/a	REC_WORD_VV	638323	wordpools/wasnorm_wordpool_less_exclusions.txt	LTP219	ltpFR	4	6	n/a	<>	-1	n/a	n/a	n/a	n/a	n/a	n/a	n/a
1280.704	n/a	REC_WORD	640352	wordpools/wasnorm_wordpool_less_exclusions.txt	LTP219	ltpFR	4	6	0	PENNY	1045	n/a	0	n/a	n/a	n/a	n/a	n/a
1283.668	n/a	REC_WORD	641834	wordpools/wasnorm_wordpool_less_exclusions.txt	LTP219	ltpFR	4	6	0	DOLLAR	482	n/a	0	n/a	n/a	n/a	n/a	n/a
1291.246	n/a	REC_WORD	645623	wordpools/wasnorm_wordpool_less_exclusions.txt	LTP219	ltpFR	4	6	0	TRACTOR	1493	n/a	1	n/a	n/a	n/a	n/a	n/a
1295.438	n/a	REC_WORD	647719	wordpools/wasnorm_wordpool_less_exclusions.txt	LTP219	ltpFR	4	6	n/a	AUTOMOBILE	62	n/a	n/a	n/a	n/a	n/a	n/a	n/a
1306.856	n/a	REC_WORD	653428	wordpools/wasnorm_wordpool_less_exclusions.txt	LTP219	ltpFR	4	6	0	WATERFALL	1595	n/a	1	n/a	n/a	n/a	n/a	n/a
1325.024	n/a	WORD	662512	wordpools/wasnorm_wordpool_less_exclusions.txt	LTP219	ltpFR	4	7	0	PERFUME	1049	n/a	0	0	0.5869140625	0.422607421875	lower	../fonts/zerothre.ttf
1329.152	n/a	WORD	664576	wordpools/wasnorm_wordpool_less_exclusions.txt	LTP219	ltpFR	4	7	0	BATHTUB	100	n/a	1	0	0.5869140625	0.422607421875	lower	../fonts/zerothre.ttf
1333.162	n/a	WORD	666581	wordpools/wasnorm_wordpool_less_exclusions.txt	LTP219	ltpFR	4	7	0	SALMON	1227	n/a	1	0	0.5869140625	0.422607421875	lower	../fonts/zerothre.ttf
1337.374	n/a	WORD	668687	wordpools/wasnorm_wordpool_less_exclusions.txt	LTP219	ltpFR	4	7	0	RADIO	1157	n/a	0	0	0.5869140625	0.422607421875	lower	../fonts/zerothre.ttf
1341.216	n/a	WORD	670608	wordpools/wasnorm_wordpool_less_exclusions.txt	LTP219	ltpFR	4	7	0	BAND	78	n/a	1	0	0.5869140625	0.422607421875	lower	../fonts/zerothre.ttf
1345.394	n/a	WORD	672697	wordpools/wasnorm_wordpool_less_exclusions.txt	LTP219	ltpFR	4	7	0	NET	946	n/a	0	0	0.5869140625	0.422607421875	lower	../fonts/zerothre.ttf
1349.272	n/a	WORD	674636	wordpools/wasnorm_wordpool_less_exclusions.txt	LTP219	ltpFR	4	7	0	CONSUMER	365	n/a	0	0	0.5869140625	0.422607421875	lower	../fonts/zerothre.ttf
1353.45	n/a	WORD	676725	wordpools/wasnorm_wordpool_less_exclusions.txt	LTP219	ltpFR	4	7	0	SUNRISE	1407	n/a	1	0	0.5869140625	0.422607421875	lower	../fonts/zerothre.ttf
1357.644	n/a	WORD	678822	wordpools/wasnorm_wordpool_less_exclusions.txt	LTP219	ltpFR	4	7	0	FOUNTAIN	597	n/a	1	0	0.5869140625	0.422607421875	lower	../fonts/zerothre.ttf
1361.804	n/a	WORD	680902	wordpools/wasnorm_wordpool_less_exclusions.txt	LTP219	ltpFR	4	7	0	FRIES	607	n/a	0	0	0.5869140625	0.422607421875	lower	../fonts/zerothre.ttf
1365.814	n/a	WORD	682907	wordpools/wasnorm_wordpool_less_exclusions.txt	LTP219	ltpFR	4	7	0	LETTUCE	814	n/a	0	0	0.5869140625	0.422607421875	lower	../fonts/zerothre.ttf
1369.824	n/a	WORD	684912	wordpools/wasnorm_wordpool_less_exclusions.txt	LTP219	ltpFR	4	7	0	ISLAND	745	n/a	1	0	0.5869140625	0.422607421875	lower	../fonts/zerothre.ttf
1373.852	n/a	WORD	686926	wordpools/wasnorm_wordpool_less_exclusions.txt	LTP219	ltpFR	4	7	0	UMBRELLA	1534	n/a	0	0	0.5869140625	0.422607421875	lower	../fonts/zerothre.ttf
1377.796	n/a	WORD	688898	wordpools/wasnorm_wordpool_less_exclusions.txt	LTP219	ltpFR	4	7	0	CASH	252	n/a	0	0	0.5869140625	0.422607421875	lower	../fonts/zerothre.ttf
1381.74	n/a	WORD	690870	wordpools/wasnorm_wordpool_less_exclusions.txt	LTP219	ltpFR	4	7	0	MOVIE	927	n/a	0	0	0.5869140625	0.422607421875	lower	../fonts/zerothre.ttf
1385.868	n/a	WORD	692934	wordpools/wasnorm_wordpool_less_exclusions.txt	LTP219	ltpFR	4	7	0	PRODUCER	1129	n/a	0	0	0.5869140625	0.422607421875	lower	../fonts/zerothre.ttf
1391.71	n/a	REC_START	695855	n/a	LTP219	ltpFR	4	7	n/a	n/a	n/a	n/a	n/a	n/a	n/a	n/a	n/a	n/a
1392.692	n/a	REC_WORD	696346	wordpools/wasnorm_wordpool_less_exclusions.txt	LTP219	ltpFR	4	7	0	MOVIE	927	n/a	0	n/a	n/a	n/a	n/a	n/a
1393.664	n/a	REC_WORD	696832	wordpools/wasnorm_wordpool_less_exclusions.txt	LTP219	ltpFR	4	7	0	PRODUCER	1129	n/a	0	n/a	n/a	n/a	n/a	n/a
1394.664	n/a	REC_WORD_VV	697332	wordpools/wasnorm_wordpool_less_exclusions.txt	LTP219	ltpFR	4	7	n/a	<>	-1	n/a	n/a	n/a	n/a	n/a	n/a	n/a
1395.486	n/a	REC_WORD	697743	wordpools/wasnorm_wordpool_less_exclusions.txt	LTP219	ltpFR	4	7	0	UMBRELLA	1534	n/a	0	n/a	n/a	n/a	n/a	n/a
1396.484	n/a	REC_WORD_VV	698242	wordpools/wasnorm_wordpool_less_exclusions.txt	LTP219	ltpFR	4	7	n/a	<>	-1	n/a	n/a	n/a	n/a	n/a	n/a	n/a
1397.466	n/a	REC_WORD	698733	wordpools/wasnorm_wordpool_less_exclusions.txt	LTP219	ltpFR	4	7	0	CASH	252	n/a	0	n/a	n/a	n/a	n/a	n/a
1400.444	n/a	REC_WORD_VV	700222	wordpools/wasnorm_wordpool_less_exclusions.txt	LTP219	ltpFR	4	7	n/a	<>	-1	n/a	n/a	n/a	n/a	n/a	n/a	n/a
1405.524	n/a	REC_WORD	702762	wordpools/wasnorm_wordpool_less_exclusions.txt	LTP219	ltpFR	4	7	0	PRODUCER	1129	n/a	0	n/a	n/a	n/a	n/a	n/a
1407.164	n/a	REC_WORD	703582	wordpools/wasnorm_wordpool_less_exclusions.txt	LTP219	ltpFR	4	7	0	MOVIE	927	n/a	0	n/a	n/a	n/a	n/a	n/a
1412.474	n/a	REC_WORD	706237	wordpools/wasnorm_wordpool_less_exclusions.txt	LTP219	ltpFR	4	7	0	CASH	252	n/a	0	n/a	n/a	n/a	n/a	n/a
1413.508	n/a	REC_WORD_VV	706754	wordpools/wasnorm_wordpool_less_exclusions.txt	LTP219	ltpFR	4	7	n/a	<>	-1	n/a	n/a	n/a	n/a	n/a	n/a	n/a
1415.724	n/a	REC_WORD	707862	wordpools/wasnorm_wordpool_less_exclusions.txt	LTP219	ltpFR	4	7	0	SUNRISE	1407	n/a	1	n/a	n/a	n/a	n/a	n/a
1416.71	n/a	REC_WORD_VV	708355	wordpools/wasnorm_wordpool_less_exclusions.txt	LTP219	ltpFR	4	7	n/a	<>	-1	n/a	n/a	n/a	n/a	n/a	n/a	n/a
1418.918	n/a	REC_WORD	709459	wordpools/wasnorm_wordpool_less_exclusions.txt	LTP219	ltpFR	4	7	0	ASTEROID	50	n/a	0	n/a	n/a	n/a	n/a	n/a
1424.74	n/a	REC_WORD_VV	712370	wordpools/wasnorm_wordpool_less_exclusions.txt	LTP219	ltpFR	4	7	n/a	<>	-1	n/a	n/a	n/a	n/a	n/a	n/a	n/a
1427.648	n/a	REC_WORD_VV	713824	wordpools/wasnorm_wordpool_less_exclusions.txt	LTP219	ltpFR	4	7	n/a	<>	-1	n/a	n/a	n/a	n/a	n/a	n/a	n/a
1428.664	n/a	REC_WORD_VV	714332	wordpools/wasnorm_wordpool_less_exclusions.txt	LTP219	ltpFR	4	7	n/a	<>	-1	n/a	n/a	n/a	n/a	n/a	n/a	n/a
1432.036	n/a	REC_WORD_VV	716018	wordpools/wasnorm_wordpool_less_exclusions.txt	LTP219	ltpFR	4	7	n/a	<>	-1	n/a	n/a	n/a	n/a	n/a	n/a	n/a
1432.642	n/a	REC_WORD	716321	wordpools/wasnorm_wordpool_less_exclusions.txt	LTP219	ltpFR	4	7	0	ASTEROID	50	n/a	0	n/a	n/a	n/a	n/a	n/a
1433.65	n/a	REC_WORD_VV	716825	wordpools/wasnorm_wordpool_less_exclusions.txt	LTP219	ltpFR	4	7	n/a	<>	-1	n/a	n/a	n/a	n/a	n/a	n/a	n/a
1435.23	n/a	REC_WORD_VV	717615	wordpools/wasnorm_wordpool_less_exclusions.txt	LTP219	ltpFR	4	7	n/a	<>	-1	n/a	n/a	n/a	n/a	n/a	n/a	n/a
1436.214	n/a	REC_WORD_VV	718107	wordpools/wasnorm_wordpool_less_exclusions.txt	LTP219	ltpFR	4	7	n/a	<>	-1	n/a	n/a	n/a	n/a	n/a	n/a	n/a
1440.604	n/a	REC_WORD	720302	wordpools/wasnorm_wordpool_less_exclusions.txt	LTP219	ltpFR	4	7	0	PERFUME	1049	n/a	0	n/a	n/a	n/a	n/a	n/a
1451.308	n/a	REC_WORD_VV	725654	wordpools/wasnorm_wordpool_less_exclusions.txt	LTP219	ltpFR	4	7	n/a	<>	-1	n/a	n/a	n/a	n/a	n/a	n/a	n/a
1454.722	n/a	REC_WORD	727361	wordpools/wasnorm_wordpool_less_exclusions.txt	LTP219	ltpFR	4	7	0	SALMON	1227	n/a	1	n/a	n/a	n/a	n/a	n/a
1458.836	n/a	REC_WORD	729418	wordpools/wasnorm_wordpool_less_exclusions.txt	LTP219	ltpFR	4	7	0	FRIES	607	n/a	0	n/a	n/a	n/a	n/a	n/a
1459.828	n/a	REC_WORD_VV	729914	wordpools/wasnorm_wordpool_less_exclusions.txt	LTP219	ltpFR	4	7	n/a	<>	-1	n/a	n/a	n/a	n/a	n/a	n/a	n/a
1502.012	n/a	WORD	751006	wordpools/wasnorm_wordpool_less_exclusions.txt	LTP219	ltpFR	4	8	0	CYCLONE	431	n/a	1	0	0.5869140625	0.422607421875	lower	../fonts/zerothre.ttf
1505.99	n/a	WORD	752995	wordpools/wasnorm_wordpool_less_exclusions.txt	LTP219	ltpFR	4	8	0	EMPLOYEE	531	n/a	0	0	0.5869140625	0.422607421875	lower	../fonts/zerothre.ttf
1509.95	n/a	WORD	754975	wordpools/wasnorm_wordpool_less_exclusions.txt	LTP219	ltpFR	4	8	0	CITIZEN	312	n/a	0	0	0.5869140625	0.422607421875	lower	../fonts/zerothre.ttf
1513.912	n/a	WORD	756956	wordpools/wasnorm_wordpool_less_exclusions.txt	LTP219	ltpFR	4	8	1	POCKETBOOK	1094	n/a	0	1	0.412841796875	0.57763671875	upper	../fonts/amplitud.ttf
1517.79	n/a	WORD	758895	wordpools/wasnorm_wordpool_less_exclusions.txt	LTP219	ltpFR	4	8	1	JUGGLER	763	n/a	1	1	0.412841796875	0.57763671875	upper	../fonts/amplitud.ttf
1521.966	n/a	WORD	760983	wordpools/wasnorm_wordpool_less_exclusions.txt	LTP219	ltpFR	4	8	1	PEARL	1034	n/a	1	1	0.412841796875	0.57763671875	upper	../fonts/amplitud.ttf
1526.176	n/a	WORD	763088	wordpools/wasnorm_wordpool_less_exclusions.txt	LTP219	ltpFR	4	8	0	MAP	865	n/a	0	0	0.5869140625	0.422607421875	lower	../fonts/zerothre.ttf
1530.338	n/a	WORD	765169	wordpools/wasnorm_wordpool_less_exclusions.txt	LTP219	ltpFR	4	8	0	CYLINDER	432	n/a	0	0	0.5869140625	0.422607421875	lower	../fonts/zerothre.ttf
1534.198	n/a	WORD	767099	wordpools/wasnorm_wordpool_less_exclusions.txt	LTP219	ltpFR	4	8	0	PIGMENT	1066	n/a	0	0	0.5869140625	0.422607421875	lower	../fonts/zerothre.ttf
1538.226	n/a	WORD	769113	wordpools/wasnorm_wordpool_less_exclusions.txt	LTP219	ltpFR	4	8	1	SKIN	1318	n/a	1	1	0.412841796875	0.57763671875	upper	../fonts/amplitud.ttf
1542.286	n/a	WORD	771143	wordpools/wasnorm_wordpool_less_exclusions.txt	LTP219	ltpFR	4	8	1	CRYSTAL	418	n/a	0	1	0.412841796875	0.57763671875	upper	../fonts/amplitud.ttf
1546.498	n/a	WORD	773249	wordpools/wasnorm_wordpool_less_exclusions.txt	LTP219	ltpFR	4	8	1	SUPERVISOR	1410	n/a	1	1	0.412841796875	0.57763671875	upper	../fonts/amplitud.ttf
1550.392	n/a	WORD	775196	wordpools/wasnorm_wordpool_less_exclusions.txt	LTP219	ltpFR	4	8	1	SHELL	1281	n/a	0	1	0.412841796875	0.57763671875	upper	../fonts/amplitud.ttf
1554.502	n/a	WORD	777251	wordpools/wasnorm_wordpool_less_exclusions.txt	LTP219	ltpFR	4	8	1	MISTER	901	n/a	1	1	0.412841796875	0.57763671875	upper	../fonts/amplitud.ttf
1558.464	n/a	WORD	779232	wordpools/wasnorm_wordpool_less_exclusions.txt	LTP219	ltpFR	4	8	0	MAN	862	n/a	0	0	0.5869140625	0.422607421875	lower	../fonts/zerothre.ttf
1562.474	n/a	WORD	781237	wordpools/wasnorm_wordpool_less_exclusions.txt	LTP219	ltpFR	4	8	0	CHICK	296	n/a	0	0	0.5869140625	0.422607421875	lower	../fonts/zerothre.ttf
1568.098	n/a	REC_START	784049	n/a	LTP219	ltpFR	4	8	n/a	n/a	n/a	n/a	n/a	n/a	n/a	n/a	n/a	n/a
1569.12	n/a	REC_WORD	784560	wordpools/wasnorm_wordpool_less_exclusions.txt	LTP219	ltpFR	4	8	1	MISTER	901	n/a	1	n/a	n/a	n/a	n/a	n/a
1570.246	n/a	REC_WORD	785123	wordpools/wasnorm_wordpool_less_exclusions.txt	LTP219	ltpFR	4	8	0	MAN	862	n/a	0	n/a	n/a	n/a	n/a	n/a
1571.37	n/a	REC_WORD	785685	wordpools/wasnorm_wordpool_less_exclusions.txt	LTP219	ltpFR	4	8	0	CITIZEN	312	n/a	0	n/a	n/a	n/a	n/a	n/a
1573.272	n/a	REC_WORD	786636	wordpools/wasnorm_wordpool_less_exclusions.txt	LTP219	ltpFR	4	8	0	CHICK	296	n/a	0	n/a	n/a	n/a	n/a	n/a
1577.29	n/a	REC_WORD	788645	wordpools/wasnorm_wordpool_less_exclusions.txt	LTP219	ltpFR	4	8	0	UMBRELLA	1534	n/a	0	n/a	n/a	n/a	n/a	n/a
1578.34	n/a	REC_WORD_VV	789170	wordpools/wasnorm_wordpool_less_exclusions.txt	LTP219	ltpFR	4	8	n/a	<>	-1	n/a	n/a	n/a	n/a	n/a	n/a	n/a
1583.732	n/a	REC_WORD	791866	wordpools/wasnorm_wordpool_less_exclusions.txt	LTP219	ltpFR	4	8	0	PRODUCER	1129	n/a	0	n/a	n/a	n/a	n/a	n/a
1586.928	n/a	REC_WORD_VV	793464	wordpools/wasnorm_wordpool_less_exclusions.txt	LTP219	ltpFR	4	8	n/a	<>	-1	n/a	n/a	n/a	n/a	n/a	n/a	n/a
1593.466	n/a	REC_WORD_VV	796733	wordpools/wasnorm_wordpool_less_exclusions.txt	LTP219	ltpFR	4	8	n/a	<>	-1	n/a	n/a	n/a	n/a	n/a	n/a	n/a
1598.774	n/a	REC_WORD_VV	799387	wordpools/wasnorm_wordpool_less_exclusions.txt	LTP219	ltpFR	4	8	n/a	<>	-1	n/a	n/a	n/a	n/a	n/a	n/a	n/a
1602.388	n/a	REC_WORD_VV	801194	wordpools/wasnorm_wordpool_less_exclusions.txt	LTP219	ltpFR	4	8	n/a	<>	-1	n/a	n/a	n/a	n/a	n/a	n/a	n/a
1604.086	n/a	REC_WORD_VV	802043	wordpools/wasnorm_wordpool_less_exclusions.txt	LTP219	ltpFR	4	8	n/a	<>	-1	n/a	n/a	n/a	n/a	n/a	n/a	n/a
1606.266	n/a	REC_WORD_VV	803133	wordpools/wasnorm_wordpool_less_exclusions.txt	LTP219	ltpFR	4	8	n/a	<>	-1	n/a	n/a	n/a	n/a	n/a	n/a	n/a
1610.616	n/a	REC_WORD_VV	805308	wordpools/wasnorm_wordpool_less_exclusions.txt	LTP219	ltpFR	4	8	n/a	<>	-1	n/a	n/a	n/a	n/a	n/a	n/a	n/a
1613.332	n/a	REC_WORD_VV	806666	wordpools/wasnorm_wordpool_less_exclusions.txt	LTP219	ltpFR	4	8	n/a	<>	-1	n/a	n/a	n/a	n/a	n/a	n/a	n/a
1617.716	n/a	REC_WORD	808858	wordpools/wasnorm_wordpool_less_exclusions.txt	LTP219	ltpFR	4	8	0	MAN	862	n/a	0	n/a	n/a	n/a	n/a	n/a
1621.632	n/a	REC_WORD	810816	wordpools/wasnorm_wordpool_less_exclusions.txt	LTP219	ltpFR	4	8	0	CITIZEN	312	n/a	0	n/a	n/a	n/a	n/a	n/a
1626.47	n/a	REC_WORD	813235	wordpools/wasnorm_wordpool_less_exclusions.txt	LTP219	ltpFR	4	8	0	EMPLOYEE	531	n/a	0	n/a	n/a	n/a	n/a	n/a
1649.744	n/a	WORD	824872	wordpools/wasnorm_wordpool_less_exclusions.txt	LTP219	ltpFR	4	9	-1	MOSS	918	n/a	-1	1	1.0	1.0	upper	../fonts/Verdana.ttf
1653.64	n/a	WORD	826820	wordpools/wasnorm_wordpool_less_exclusions.txt	LTP219	ltpFR	4	9	-1	ROOT	1210	n/a	-1	1	1.0	1.0	upper	../fonts/Verdana.ttf
1657.816	n/a	WORD	828908	wordpools/wasnorm_wordpool_less_exclusions.txt	LTP219	ltpFR	4	9	-1	BINDER	127	n/a	-1	1	1.0	1.0	upper	../fonts/Verdana.ttf
1661.742	n/a	WORD	830871	wordpools/wasnorm_wordpool_less_exclusions.txt	LTP219	ltpFR	4	9	-1	UNIFORM	1539	n/a	-1	1	1.0	1.0	upper	../fonts/Verdana.ttf
1665.72	n/a	WORD	832860	wordpools/wasnorm_wordpool_less_exclusions.txt	LTP219	ltpFR	4	9	-1	VEIN	1554	n/a	-1	1	1.0	1.0	upper	../fonts/Verdana.ttf
1669.548	n/a	WORD	834774	wordpools/wasnorm_wordpool_less_exclusions.txt	LTP219	ltpFR	4	9	-1	SAILOR	1223	n/a	-1	1	1.0	1.0	upper	../fonts/Verdana.ttf
1673.426	n/a	WORD	836713	wordpools/wasnorm_wordpool_less_exclusions.txt	LTP219	ltpFR	4	9	-1	COB	334	n/a	-1	1	1.0	1.0	upper	../fonts/Verdana.ttf
1677.42	n/a	WORD	838710	wordpools/wasnorm_wordpool_less_exclusions.txt	LTP219	ltpFR	4	9	-1	DONOR	485	n/a	-1	1	1.0	1.0	upper	../fonts/Verdana.ttf
1681.548	n/a	WORD	840774	wordpools/wasnorm_wordpool_less_exclusions.txt	LTP219	ltpFR	4	9	-1	GROCERIES	663	n/a	-1	1	1.0	1.0	upper	../fonts/Verdana.ttf
1685.724	n/a	WORD	842862	wordpools/wasnorm_wordpool_less_exclusions.txt	LTP219	ltpFR	4	9	-1	PARSLEY	1016	n/a	-1	1	1.0	1.0	upper	../fonts/Verdana.ttf
1689.884	n/a	WORD	844942	wordpools/wasnorm_wordpool_less_exclusions.txt	LTP219	ltpFR	4	9	-1	DRIVER	499	n/a	-1	1	1.0	1.0	upper	../fonts/Verdana.ttf
1694.078	n/a	WORD	847039	wordpools/wasnorm_wordpool_less_exclusions.txt	LTP219	ltpFR	4	9	-1	FIELD	562	n/a	-1	1	1.0	1.0	upper	../fonts/Verdana.ttf
1698.24	n/a	WORD	849120	wordpools/wasnorm_wordpool_less_exclusions.txt	LTP219	ltpFR	4	9	-1	TOENAIL	1474	n/a	-1	1	1.0	1.0	upper	../fonts/Verdana.ttf
1702.25	n/a	WORD	851125	wordpools/wasnorm_wordpool_less_exclusions.txt	LTP219	ltpFR	4	9	-1	KNUCKLE	789	n/a	-1	1	1.0	1.0	upper	../fonts/Verdana.ttf
1706.328	n/a	WORD	853164	wordpools/wasnorm_wordpool_less_exclusions.txt	LTP219	ltpFR	4	9	-1	SKI	1316	n/a	-1	1	1.0	1.0	upper	../fonts/Verdana.ttf
1710.304	n/a	WORD	855152	wordpools/wasnorm_wordpool_less_exclusions.txt	LTP219	ltpFR	4	9	-1	STAFF	1365	n/a	-1	1	1.0	1.0	upper	../fonts/Verdana.ttf
1716.212	n/a	REC_START	858106	n/a	LTP219	ltpFR	4	9	n/a	n/a	n/a	n/a	n/a	n/a	n/a	n/a	n/a	n/a
1717.176	n/a	REC_WORD	858588	wordpools/wasnorm_wordpool_less_exclusions.txt	LTP219	ltpFR	4	9	-1	SKI	1316	n/a	-1	n/a	n/a	n/a	n/a	n/a
1720.054	n/a	REC_WORD	860027	wordpools/wasnorm_wordpool_less_exclusions.txt	LTP219	ltpFR	4	9	1	SKIN	1318	n/a	1	n/a	n/a	n/a	n/a	n/a
1721.076	n/a	REC_WORD_VV	860538	wordpools/wasnorm_wordpool_less_exclusions.txt	LTP219	ltpFR	4	9	n/a	<>	-1	n/a	n/a	n/a	n/a	n/a	n/a	n/a
1724.16	n/a	REC_WORD_VV	862080	wordpools/wasnorm_wordpool_less_exclusions.txt	LTP219	ltpFR	4	9	n/a	<>	-1	n/a	n/a	n/a	n/a	n/a	n/a	n/a
1724.918	n/a	REC_WORD	862459	wordpools/wasnorm_wordpool_less_exclusions.txt	LTP219	ltpFR	4	9	-1	SAILOR	1223	n/a	-1	n/a	n/a	n/a	n/a	n/a
1725.932	n/a	REC_WORD_VV	862966	wordpools/wasnorm_wordpool_less_exclusions.txt	LTP219	ltpFR	4	9	n/a	<>	-1	n/a	n/a	n/a	n/a	n/a	n/a	n/a
1727.556	n/a	REC_WORD	863778	wordpools/wasnorm_wordpool_less_exclusions.txt	LTP219	ltpFR	4	9	-1	GROCERIES	663	n/a	-1	n/a	n/a	n/a	n/a	n/a
1728.572	n/a	REC_WORD_VV	864286	wordpools/wasnorm_wordpool_less_exclusions.txt	LTP219	ltpFR	4	9	n/a	<>	-1	n/a	n/a	n/a	n/a	n/a	n/a	n/a
1729.876	n/a	REC_WORD	864938	wordpools/wasnorm_wordpool_less_exclusions.txt	LTP219	ltpFR	4	9	-1	PARSLEY	1016	n/a	-1	n/a	n/a	n/a	n/a	n/a
1733.93	n/a	REC_WORD_VV	866965	wordpools/wasnorm_wordpool_less_exclusions.txt	LTP219	ltpFR	4	9	n/a	<>	-1	n/a	n/a	n/a	n/a	n/a	n/a	n/a
1740.412	n/a	REC_WORD_VV	870206	wordpools/wasnorm_wordpool_less_exclusions.txt	LTP219	ltpFR	4	9	n/a	<>	-1	n/a	n/a	n/a	n/a	n/a	n/a	n/a
1741.42	n/a	REC_WORD_VV	870710	wordpools/wasnorm_wordpool_less_exclusions.txt	LTP219	ltpFR	4	9	n/a	<>	-1	n/a	n/a	n/a	n/a	n/a	n/a	n/a
1742.524	n/a	REC_WORD	871262	wordpools/wasnorm_wordpool_less_exclusions.txt	LTP219	ltpFR	4	9	-1	PARSLEY	1016	n/a	-1	n/a	n/a	n/a	n/a	n/a
1743.864	n/a	REC_WORD	871932	wordpools/wasnorm_wordpool_less_exclusions.txt	LTP219	ltpFR	4	9	-1	COB	334	n/a	-1	n/a	n/a	n/a	n/a	n/a
1750.418	n/a	REC_WORD_VV	875209	wordpools/wasnorm_wordpool_less_exclusions.txt	LTP219	ltpFR	4	9	n/a	<>	-1	n/a	n/a	n/a	n/a	n/a	n/a	n/a
1753.278	n/a	REC_WORD_VV	876639	wordpools/wasnorm_wordpool_less_exclusions.txt	LTP219	ltpFR	4	9	n/a	<>	-1	n/a	n/a	n/a	n/a	n/a	n/a	n/a
1754.274	n/a	REC_WORD_VV	877137	wordpools/wasnorm_wordpool_less_exclusions.txt	LTP219	ltpFR	4	9	n/a	<>	-1	n/a	n/a	n/a	n/a	n/a	n/a	n/a
1759.438	n/a	REC_WORD_VV	879719	wordpools/wasnorm_wordpool_less_exclusions.txt	LTP219	ltpFR	4	9	n/a	<>	-1	n/a	n/a	n/a	n/a	n/a	n/a	n/a
1760.46	n/a	REC_WORD_VV	880230	wordpools/wasnorm_wordpool_less_exclusions.txt	LTP219	ltpFR	4	9	n/a	<>	-1	n/a	n/a	n/a	n/a	n/a	n/a	n/a
1761.488	n/a	REC_WORD_VV	880744	wordpools/wasnorm_wordpool_less_exclusions.txt	LTP219	ltpFR	4	9	n/a	<>	-1	n/a	n/a	n/a	n/a	n/a	n/a	n/a
1762.01	n/a	REC_WORD	881005	wordpools/wasnorm_wordpool_less_exclusions.txt	LTP219	ltpFR	4	9	1	SKIN	1318	n/a	1	n/a	n/a	n/a	n/a	n/a
1763.086	n/a	REC_WORD_VV	881543	wordpools/wasnorm_wordpool_less_exclusions.txt	LTP219	ltpFR	4	9	n/a	<>	-1	n/a	n/a	n/a	n/a	n/a	n/a	n/a
1765.362	n/a	REC_WORD_VV	882681	wordpools/wasnorm_wordpool_less_exclusions.txt	LTP219	ltpFR	4	9	n/a	<>	-1	n/a	n/a	n/a	n/a	n/a	n/a	n/a
1766.358	n/a	REC_WORD_VV	883179	wordpools/wasnorm_wordpool_less_exclusions.txt	LTP219	ltpFR	4	9	n/a	<>	-1	n/a	n/a	n/a	n/a	n/a	n/a	n/a
1771.792	n/a	REC_WORD_VV	885896	wordpools/wasnorm_wordpool_less_exclusions.txt	LTP219	ltpFR	4	9	n/a	<>	-1	n/a	n/a	n/a	n/a	n/a	n/a	n/a
1778.266	n/a	REC_WORD_VV	889133	wordpools/wasnorm_wordpool_less_exclusions.txt	LTP219	ltpFR	4	9	n/a	<>	-1	n/a	n/a	n/a	n/a	n/a	n/a	n/a
1781.722	n/a	REC_WORD	890861	wordpools/wasnorm_wordpool_less_exclusions.txt	LTP219	ltpFR	4	9	-1	FIELD	562	n/a	-1	n/a	n/a	n/a	n/a	n/a
1784.556	n/a	REC_WORD_VV	892278	wordpools/wasnorm_wordpool_less_exclusions.txt	LTP219	ltpFR	4	9	n/a	<>	-1	n/a	n/a	n/a	n/a	n/a	n/a	n/a
1790.038	n/a	REC_WORD_VV	895019	wordpools/wasnorm_wordpool_less_exclusions.txt	LTP219	ltpFR	4	9	n/a	<>	-1	n/a	n/a	n/a	n/a	n/a	n/a	n/a
1797.326	n/a	WORD	898663	wordpools/wasnorm_wordpool_less_exclusions.txt	LTP219	ltpFR	4	10	1	CRICKET	408	n/a	n/a	1	0.412841796875	0.57763671875	upper	../fonts/amplitud.ttf
1800.356	n/a	SLOW_MSG	900178	n/a	LTP219	ltpFR	4	10	n/a	n/a	n/a	n/a	n/a	n/a	n/a	n/a	n/a	n/a
1802.918	n/a	WORD	901459	wordpools/wasnorm_wordpool_less_exclusions.txt	LTP219	ltpFR	4	10	1	BALLOON	75	n/a	0	1	0.412841796875	0.57763671875	upper	../fonts/amplitud.ttf
1807.06	n/a	WORD	903530	wordpools/wasnorm_wordpool_less_exclusions.txt	LTP219	ltpFR	4	10	1	BOMB	147	n/a	0	1	0.412841796875	0.57763671875	upper	../fonts/amplitud.ttf
1811.038	n/a	WORD	905519	wordpools/wasnorm_wordpool_less_exclusions.txt	LTP219	ltpFR	4	10	0	DRESS	495	n/a	0	0	0.5869140625	0.422607421875	lower	../fonts/zerothre.ttf
1815.148	n/a	WORD	907574	wordpools/wasnorm_wordpool_less_exclusions.txt	LTP219	ltpFR	4	10	0	COMEDIAN	352	n/a	0	0	0.5869140625	0.422607421875	lower	../fonts/zerothre.ttf
1819.142	n/a	WORD	909571	wordpools/wasnorm_wordpool_less_exclusions.txt	LTP219	ltpFR	4	10	1	PUPPY	1144	n/a	1	1	0.412841796875	0.57763671875	upper	../fonts/amplitud.ttf
1823.22	n/a	WORD	911610	wordpools/wasnorm_wordpool_less_exclusions.txt	LTP219	ltpFR	4	10	1	COLLAR	345	n/a	0	1	0.412841796875	0.57763671875	upper	../fonts/amplitud.ttf
1827.314	n/a	WORD	913657	wordpools/wasnorm_wordpool_less_exclusions.txt	LTP219	ltpFR	4	10	1	WAITRESS	1581	n/a	1	1	0.412841796875	0.57763671875	upper	../fonts/amplitud.ttf
1831.242	n/a	WORD	915621	wordpools/wasnorm_wordpool_less_exclusions.txt	LTP219	ltpFR	4	10	0	BARLEY	88	n/a	0	0	0.5869140625	0.422607421875	lower	../fonts/zerothre.ttf
1835.186	n/a	WORD	917593	wordpools/wasnorm_wordpool_less_exclusions.txt	LTP219	ltpFR	4	10	0	HAYSTACK	694	n/a	0	0	0.5869140625	0.422607421875	lower	../fonts/zerothre.ttf
1839.048	n/a	WORD	919524	wordpools/wasnorm_wordpool_less_exclusions.txt	LTP219	ltpFR	4	10	0	INSECT	740	n/a	0	0	0.5869140625	0.422607421875	lower	../fonts/zerothre.ttf
1843.142	n/a	WORD	921571	wordpools/wasnorm_wordpool_less_exclusions.txt	LTP219	ltpFR	4	10	0	OATMEAL	967	n/a	0	0	0.5869140625	0.422607421875	lower	../fonts/zerothre.ttf
1847.336	n/a	WORD	923668	wordpools/wasnorm_wordpool_less_exclusions.txt	LTP219	ltpFR	4	10	0	REINDEER	1181	n/a	1	0	0.5869140625	0.422607421875	lower	../fonts/zerothre.ttf
1851.162	n/a	WORD	925581	wordpools/wasnorm_wordpool_less_exclusions.txt	LTP219	ltpFR	4	10	0	DESIGNER	451	n/a	0	0	0.5869140625	0.422607421875	lower	../fonts/zerothre.ttf
1855.124	n/a	WORD	927562	wordpools/wasnorm_wordpool_less_exclusions.txt	LTP219	ltpFR	4	10	1	AFRICA	9	n/a	0	1	0.412841796875	0.57763671875	upper	../fonts/amplitud.ttf
1859.068	n/a	WORD	929534	wordpools/wasnorm_wordpool_less_exclusions.txt	LTP219	ltpFR	4	10	1	CONTINENT	367	n/a	0	1	0.412841796875	0.57763671875	upper	../fonts/amplitud.ttf
1865.142	n/a	REC_START	932571	n/a	LTP219	ltpFR	4	10	n/a	n/a	n/a	n/a	n/a	n/a	n/a	n/a	n/a	n/a
1866.648	n/a	REC_WORD	933324	wordpools/wasnorm_wordpool_less_exclusions.txt	LTP219	ltpFR	4	10	1	AFRICA	9	n/a	0	n/a	n/a	n/a	n/a	n/a
1867.696	n/a	REC_WORD_VV	933848	wordpools/wasnorm_wordpool_less_exclusions.txt	LTP219	ltpFR	4	10	n/a	<>	-1	n/a	n/a	n/a	n/a	n/a	n/a	n/a
1868.236	n/a	REC_WORD	934118	wordpools/wasnorm_wordpool_less_exclusions.txt	LTP219	ltpFR	4	10	1	CONTINENT	367	n/a	0	n/a	n/a	n/a	n/a	n/a
1869.238	n/a	REC_WORD_VV	934619	wordpools/wasnorm_wordpool_less_exclusions.txt	LTP219	ltpFR	4	10	n/a	<>	-1	n/a	n/a	n/a	n/a	n/a	n/a	n/a
1869.886	n/a	REC_WORD	934943	wordpools/wasnorm_wordpool_less_exclusions.txt	LTP219	ltpFR	4	10	0	DRESS	495	n/a	0	n/a	n/a	n/a	n/a	n/a
1871.512	n/a	REC_WORD	935756	wordpools/wasnorm_wordpool_less_exclusions.txt	LTP219	ltpFR	4	10	0	DESIGNER	451	n/a	0	n/a	n/a	n/a	n/a	n/a
1874.43	n/a	REC_WORD	937215	wordpools/wasnorm_wordpool_less_exclusions.txt	LTP219	ltpFR	4	10	0	SILK	1307	n/a	0	n/a	n/a	n/a	n/a	n/a
1875.484	n/a	REC_WORD_VV	937742	wordpools/wasnorm_wordpool_less_exclusions.txt	LTP219	ltpFR	4	10	n/a	<>	-1	n/a	n/a	n/a	n/a	n/a	n/a	n/a
1877.114	n/a	REC_WORD_VV	938557	wordpools/wasnorm_wordpool_less_exclusions.txt	LTP219	ltpFR	4	10	n/a	<>	-1	n/a	n/a	n/a	n/a	n/a	n/a	n/a
1881.164	n/a	REC_WORD_VV	940582	wordpools/wasnorm_wordpool_less_exclusions.txt	LTP219	ltpFR	4	10	n/a	<>	-1	n/a	n/a	n/a	n/a	n/a	n/a	n/a
1883.622	n/a	REC_WORD_VV	941811	wordpools/wasnorm_wordpool_less_exclusions.txt	LTP219	ltpFR	4	10	n/a	<>	-1	n/a	n/a	n/a	n/a	n/a	n/a	n/a
1886.71	n/a	REC_WORD	943355	wordpools/wasnorm_wordpool_less_exclusions.txt	LTP219	ltpFR	4	10	0	DESIGNER	451	n/a	0	n/a	n/a	n/a	n/a	n/a
1890.19	n/a	REC_WORD_VV	945095	wordpools/wasnorm_wordpool_less_exclusions.txt	LTP219	ltpFR	4	10	n/a	<>	-1	n/a	n/a	n/a	n/a	n/a	n/a	n/a
1891.296	n/a	REC_WORD	945648	wordpools/wasnorm_wordpool_less_exclusions.txt	LTP219	ltpFR	4	10	0	DRESS	495	n/a	0	n/a	n/a	n/a	n/a	n/a
1892.29	n/a	REC_WORD_VV	946145	wordpools/wasnorm_wordpool_less_exclusions.txt	LTP219	ltpFR	4	10	n/a	<>	-1	n/a	n/a	n/a	n/a	n/a	n/a	n/a
1896.874	n/a	REC_WORD	948437	wordpools/wasnorm_wordpool_less_exclusions.txt	LTP219	ltpFR	4	10	n/a	THEATER	-1	n/a	n/a	n/a	n/a	n/a	n/a	n/a
1897.976	n/a	REC_WORD_VV	948988	wordpools/wasnorm_wordpool_less_exclusions.txt	LTP219	ltpFR	4	10	n/a	<>	-1	n/a	n/a	n/a	n/a	n/a	n/a	n/a
1900.978	n/a	REC_WORD	950489	wordpools/wasnorm_wordpool_less_exclusions.txt	LTP219	ltpFR	4	10	n/a	POOL	1103	n/a	n/a	n/a	n/a	n/a	n/a	n/a
1901.404	n/a	REC_WORD	950702	wordpools/wasnorm_wordpool_less_exclusions.txt	LTP219	ltpFR	4	10	n/a	STRING	1394	n/a	n/a	n/a	n/a	n/a	n/a	n/a
1904.496	n/a	REC_WORD_VV	952248	wordpools/wasnorm_wordpool_less_exclusions.txt	LTP219	ltpFR	4	10	n/a	<>	-1	n/a	n/a	n/a	n/a	n/a	n/a	n/a
1906.544	n/a	REC_WORD_VV	953272	wordpools/wasnorm_wordpool_less_exclusions.txt	LTP219	ltpFR	4	10	n/a	<>	-1	n/a	n/a	n/a	n/a	n/a	n/a	n/a
1912.78	n/a	REC_WORD	956390	wordpools/wasnorm_wordpool_less_exclusions.txt	LTP219	ltpFR	4	10	0	DESIGNER	451	n/a	0	n/a	n/a	n/a	n/a	n/a
1913.908	n/a	REC_WORD_VV	956954	wordpools/wasnorm_wordpool_less_exclusions.txt	LTP219	ltpFR	4	10	n/a	<>	-1	n/a	n/a	n/a	n/a	n/a	n/a	n/a
1916.588	n/a	REC_WORD_VV	958294	wordpools/wasnorm_wordpool_less_exclusions.txt	LTP219	ltpFR	4	10	n/a	<>	-1	n/a	n/a	n/a	n/a	n/a	n/a	n/a
1917.914	n/a	REC_WORD	958957	wordpools/wasnorm_wordpool_less_exclusions.txt	LTP219	ltpFR	4	10	-1	SAILOR	1223	n/a	-1	n/a	n/a	n/a	n/a	n/a
1919.282	n/a	REC_WORD	959641	wordpools/wasnorm_wordpool_less_exclusions.txt	LTP219	ltpFR	4	10	-1	SAILOR	1223	n/a	-1	n/a	n/a	n/a	n/a	n/a
1919.694	n/a	REC_WORD_VV	959847	wordpools/wasnorm_wordpool_less_exclusions.txt	LTP219	ltpFR	4	10	n/a	<>	-1	n/a	n/a	n/a	n/a	n/a	n/a	n/a
1920.786	n/a	REC_WORD_VV	960393	wordpools/wasnorm_wordpool_less_exclusions.txt	LTP219	ltpFR	4	10	n/a	<>	-1	n/a	n/a	n/a	n/a	n/a	n/a	n/a
1927.842	n/a	REC_WORD_VV	963921	wordpools/wasnorm_wordpool_less_exclusions.txt	LTP219	ltpFR	4	10	n/a	<>	-1	n/a	n/a	n/a	n/a	n/a	n/a	n/a
1928.876	n/a	REC_WORD_VV	964438	wordpools/wasnorm_wordpool_less_exclusions.txt	LTP219	ltpFR	4	10	n/a	<>	-1	n/a	n/a	n/a	n/a	n/a	n/a	n/a
1931.684	n/a	REC_WORD_VV	965842	wordpools/wasnorm_wordpool_less_exclusions.txt	LTP219	ltpFR	4	10	n/a	<>	-1	n/a	n/a	n/a	n/a	n/a	n/a	n/a
1933.318	n/a	REC_WORD	966659	wordpools/wasnorm_wordpool_less_exclusions.txt	LTP219	ltpFR	4	10	0	REINDEER	1181	n/a	1	n/a	n/a	n/a	n/a	n/a
1939.63	n/a	REC_WORD_VV	969815	wordpools/wasnorm_wordpool_less_exclusions.txt	LTP219	ltpFR	4	10	n/a	<>	-1	n/a	n/a	n/a	n/a	n/a	n/a	n/a
1947.17	n/a	WORD	973585	wordpools/wasnorm_wordpool_less_exclusions.txt	LTP219	ltpFR	4	11	-1	TRUCK	1512	n/a	-1	1	1.0	1.0	upper	../fonts/Verdana.ttf
1951.248	n/a	WORD	975624	wordpools/wasnorm_wordpool_less_exclusions.txt	LTP219	ltpFR	4	11	-1	FAMILY	550	n/a	-1	1	1.0	1.0	upper	../fonts/Verdana.ttf
1955.326	n/a	WORD	977663	wordpools/wasnorm_wordpool_less_exclusions.txt	LTP219	ltpFR	4	11	-1	FUR	615	n/a	-1	1	1.0	1.0	upper	../fonts/Verdana.ttf
1959.252	n/a	WORD	979626	wordpools/wasnorm_wordpool_less_exclusions.txt	LTP219	ltpFR	4	11	-1	LIMB	822	n/a	-1	1	1.0	1.0	upper	../fonts/Verdana.ttf
1963.364	n/a	WORD	981682	wordpools/wasnorm_wordpool_less_exclusions.txt	LTP219	ltpFR	4	11	-1	DAISY	435	n/a	-1	1	1.0	1.0	upper	../fonts/Verdana.ttf
1967.476	n/a	WORD	983738	wordpools/wasnorm_wordpool_less_exclusions.txt	LTP219	ltpFR	4	11	-1	ROSE	1212	n/a	-1	1	1.0	1.0	upper	../fonts/Verdana.ttf
1971.636	n/a	WORD	985818	wordpools/wasnorm_wordpool_less_exclusions.txt	LTP219	ltpFR	4	11	-1	ARCHITECT	36	n/a	-1	1	1.0	1.0	upper	../fonts/Verdana.ttf
1975.614	n/a	WORD	987807	wordpools/wasnorm_wordpool_less_exclusions.txt	LTP219	ltpFR	4	11	-1	PATIO	1025	n/a	-1	1	1.0	1.0	upper	../fonts/Verdana.ttf
1979.658	n/a	WORD	989829	wordpools/wasnorm_wordpool_less_exclusions.txt	LTP219	ltpFR	4	11	-1	SWING	1421	n/a	-1	1	1.0	1.0	upper	../fonts/Verdana.ttf
1983.716	n/a	WORD	991858	wordpools/wasnorm_wordpool_less_exclusions.txt	LTP219	ltpFR	4	11	-1	CHEMICAL	291	n/a	-1	1	1.0	1.0	upper	../fonts/Verdana.ttf
1987.696	n/a	WORD	993848	wordpools/wasnorm_wordpool_less_exclusions.txt	LTP219	ltpFR	4	11	-1	NITROGEN	954	n/a	-1	1	1.0	1.0	upper	../fonts/Verdana.ttf
1991.64	n/a	WORD	995820	wordpools/wasnorm_wordpool_less_exclusions.txt	LTP219	ltpFR	4	11	-1	VEHICLE	1553	n/a	-1	1	1.0	1.0	upper	../fonts/Verdana.ttf
1995.534	n/a	WORD	997767	wordpools/wasnorm_wordpool_less_exclusions.txt	LTP219	ltpFR	4	11	-1	FOX	598	n/a	-1	1	1.0	1.0	upper	../fonts/Verdana.ttf
1999.578	n/a	WORD	999789	wordpools/wasnorm_wordpool_less_exclusions.txt	LTP219	ltpFR	4	11	-1	DICTIONARY	463	n/a	-1	1	1.0	1.0	upper	../fonts/Verdana.ttf
2003.522	n/a	WORD	1001761	wordpools/wasnorm_wordpool_less_exclusions.txt	LTP219	ltpFR	4	11	-1	SADDLE	1221	n/a	-1	1	1.0	1.0	upper	../fonts/Verdana.ttf
2007.598	n/a	WORD	1003799	wordpools/wasnorm_wordpool_less_exclusions.txt	LTP219	ltpFR	4	11	-1	BEEF	113	n/a	-1	1	1.0	1.0	upper	../fonts/Verdana.ttf
2013.408	n/a	REC_START	1006704	n/a	LTP219	ltpFR	4	11	n/a	n/a	n/a	n/a	n/a	n/a	n/a	n/a	n/a	n/a
2015.068	n/a	REC_WORD	1007534	wordpools/wasnorm_wordpool_less_exclusions.txt	LTP219	ltpFR	4	11	-1	BEEF	113	n/a	-1	n/a	n/a	n/a	n/a	n/a
2015.956	n/a	REC_WORD	1007978	wordpools/wasnorm_wordpool_less_exclusions.txt	LTP219	ltpFR	4	11	-1	SADDLE	1221	n/a	-1	n/a	n/a	n/a	n/a	n/a
2017.598	n/a	REC_WORD	1008799	wordpools/wasnorm_wordpool_less_exclusions.txt	LTP219	ltpFR	4	11	-1	ARCHITECT	36	n/a	-1	n/a	n/a	n/a	n/a	n/a
2018.94	n/a	REC_WORD	1009470	wordpools/wasnorm_wordpool_less_exclusions.txt	LTP219	ltpFR	4	11	-1	SWING	1421	n/a	-1	n/a	n/a	n/a	n/a	n/a
2023.744	n/a	REC_WORD	1011872	wordpools/wasnorm_wordpool_less_exclusions.txt	LTP219	ltpFR	4	11	n/a	MOB	904	n/a	n/a	n/a	n/a	n/a	n/a	n/a
2025.21	n/a	REC_WORD	1012605	wordpools/wasnorm_wordpool_less_exclusions.txt	LTP219	ltpFR	4	11	-1	PATIO	1025	n/a	-1	n/a	n/a	n/a	n/a	n/a
2030.716	n/a	REC_WORD	1015358	wordpools/wasnorm_wordpool_less_exclusions.txt	LTP219	ltpFR	4	11	-1	FOX	598	n/a	-1	n/a	n/a	n/a	n/a	n/a
2031.752	n/a	REC_WORD_VV	1015876	wordpools/wasnorm_wordpool_less_exclusions.txt	LTP219	ltpFR	4	11	n/a	<>	-1	n/a	n/a	n/a	n/a	n/a	n/a	n/a
2033.132	n/a	REC_WORD	1016566	wordpools/wasnorm_wordpool_less_exclusions.txt	LTP219	ltpFR	4	11	-1	FUR	615	n/a	-1	n/a	n/a	n/a	n/a	n/a
2034.136	n/a	REC_WORD_VV	1017068	wordpools/wasnorm_wordpool_less_exclusions.txt	LTP219	ltpFR	4	11	n/a	<>	-1	n/a	n/a	n/a	n/a	n/a	n/a	n/a
2035.324	n/a	REC_WORD	1017662	wordpools/wasnorm_wordpool_less_exclusions.txt	LTP219	ltpFR	4	11	-1	LIMB	822	n/a	-1	n/a	n/a	n/a	n/a	n/a
2041.2	n/a	REC_WORD	1020600	wordpools/wasnorm_wordpool_less_exclusions.txt	LTP219	ltpFR	4	11	1	DANDELION	438	n/a	0	n/a	n/a	n/a	n/a	n/a
2043.478	n/a	REC_WORD_VV	1021739	wordpools/wasnorm_wordpool_less_exclusions.txt	LTP219	ltpFR	4	11	n/a	<>	-1	n/a	n/a	n/a	n/a	n/a	n/a	n/a
2049.154	n/a	REC_WORD	1024577	wordpools/wasnorm_wordpool_less_exclusions.txt	LTP219	ltpFR	4	11	-1	FOX	598	n/a	-1	n/a	n/a	n/a	n/a	n/a
2050.756	n/a	REC_WORD	1025378	wordpools/wasnorm_wordpool_less_exclusions.txt	LTP219	ltpFR	4	11	-1	FUR	615	n/a	-1	n/a	n/a	n/a	n/a	n/a
2052.812	n/a	REC_WORD	1026406	wordpools/wasnorm_wordpool_less_exclusions.txt	LTP219	ltpFR	4	11	-1	LIMB	822	n/a	-1	n/a	n/a	n/a	n/a	n/a
2060.572	n/a	REC_WORD	1030286	wordpools/wasnorm_wordpool_less_exclusions.txt	LTP219	ltpFR	4	11	-1	VEHICLE	1553	n/a	-1	n/a	n/a	n/a	n/a	n/a
2063.156	n/a	REC_WORD	1031578	wordpools/wasnorm_wordpool_less_exclusions.txt	LTP219	ltpFR	4	11	-1	TRUCK	1512	n/a	-1	n/a	n/a	n/a	n/a	n/a
2070.748	n/a	REC_WORD	1035374	wordpools/wasnorm_wordpool_less_exclusions.txt	LTP219	ltpFR	4	11	-1	ROOT	1210	n/a	-1	n/a	n/a	n/a	n/a	n/a
2083.928	n/a	REC_WORD	1041964	wordpools/wasnorm_wordpool_less_exclusions.txt	LTP219	ltpFR	4	11	n/a	STEM	1376	n/a	n/a	n/a	n/a	n/a	n/a	n/a
2085.324	n/a	REC_WORD	1042662	wordpools/wasnorm_wordpool_less_exclusions.txt	LTP219	ltpFR	4	11	n/a	STEM	1376	n/a	n/a	n/a	n/a	n/a	n/a	n/a
2087.716	n/a	REC_WORD	1043858	wordpools/wasnorm_wordpool_less_exclusions.txt	LTP219	ltpFR	4	11	1	FLOWER	584	n/a	0	n/a	n/a	n/a	n/a	n/a
2094.802	n/a	WORD	1047401	wordpools/wasnorm_wordpool_less_exclusions.txt	LTP219	ltpFR	4	12	1	GOLD	647	n/a	0	1	0.412841796875	0.57763671875	upper	../fonts/amplitud.ttf
2098.846	n/a	WORD	1049423	wordpools/wasnorm_wordpool_less_exclusions.txt	LTP219	ltpFR	4	12	1	GENERAL	630	n/a	0	1	0.412841796875	0.57763671875	upper	../fonts/amplitud.ttf
2102.79	n/a	WORD	1051395	wordpools/wasnorm_wordpool_less_exclusions.txt	LTP219	ltpFR	4	12	1	PUDDING	1139	n/a	0	1	0.412841796875	0.57763671875	upper	../fonts/amplitud.ttf
2106.902	n/a	WORD	1053451	wordpools/wasnorm_wordpool_less_exclusions.txt	LTP219	ltpFR	4	12	1	BEETLE	116	n/a	1	1	0.412841796875	0.57763671875	upper	../fonts/amplitud.ttf
2110.828	n/a	WORD	1055414	wordpools/wasnorm_wordpool_less_exclusions.txt	LTP219	ltpFR	4	12	0	PUMPKIN	1142	n/a	0	0	0.5869140625	0.422607421875	lower	../fonts/zerothre.ttf
2114.74	n/a	WORD	1057370	wordpools/wasnorm_wordpool_less_exclusions.txt	LTP219	ltpFR	4	12	0	CABBAGE	210	n/a	0	0	0.5869140625	0.422607421875	lower	../fonts/zerothre.ttf
2118.866	n/a	WORD	1059433	wordpools/wasnorm_wordpool_less_exclusions.txt	LTP219	ltpFR	4	12	1	TRICYCLE	1506	n/a	0	1	0.412841796875	0.57763671875	upper	../fonts/amplitud.ttf
2122.994	n/a	WORD	1061497	wordpools/wasnorm_wordpool_less_exclusions.txt	LTP219	ltpFR	4	12	1	NICOTINE	951	n/a	0	1	0.412841796875	0.57763671875	upper	../fonts/amplitud.ttf
2127.088	n/a	WORD	1063544	wordpools/wasnorm_wordpool_less_exclusions.txt	LTP219	ltpFR	4	12	1	FOLLOWER	589	n/a	1	1	0.412841796875	0.57763671875	upper	../fonts/amplitud.ttf
2131.182	n/a	WORD	1065591	wordpools/wasnorm_wordpool_less_exclusions.txt	LTP219	ltpFR	4	12	1	MAGICIAN	854	n/a	1	1	0.412841796875	0.57763671875	upper	../fonts/amplitud.ttf
2135.276	n/a	WORD	1067638	wordpools/wasnorm_wordpool_less_exclusions.txt	LTP219	ltpFR	4	12	0	MINER	896	n/a	0	0	0.5869140625	0.422607421875	lower	../fonts/zerothre.ttf
2139.37	n/a	WORD	1069685	wordpools/wasnorm_wordpool_less_exclusions.txt	LTP219	ltpFR	4	12	0	BARREL	91	n/a	0	0	0.5869140625	0.422607421875	lower	../fonts/zerothre.ttf
2143.498	n/a	WORD	1071749	wordpools/wasnorm_wordpool_less_exclusions.txt	LTP219	ltpFR	4	12	0	TAVERN	1437	n/a	1	0	0.5869140625	0.422607421875	lower	../fonts/zerothre.ttf
2147.558	n/a	WORD	1073779	wordpools/wasnorm_wordpool_less_exclusions.txt	LTP219	ltpFR	4	12	0	LEG	809	n/a	0	0	0.5869140625	0.422607421875	lower	../fonts/zerothre.ttf
2151.502	n/a	WORD	1075751	wordpools/wasnorm_wordpool_less_exclusions.txt	LTP219	ltpFR	4	12	0	KNEE	784	n/a	0	0	0.5869140625	0.422607421875	lower	../fonts/zerothre.ttf
2155.43	n/a	WORD	1077715	wordpools/wasnorm_wordpool_less_exclusions.txt	LTP219	ltpFR	4	12	0	LIGHTER	819	n/a	0	0	0.5869140625	0.422607421875	lower	../fonts/zerothre.ttf
2161.004	n/a	REC_START	1080502	n/a	LTP219	ltpFR	4	12	n/a	n/a	n/a	n/a	n/a	n/a	n/a	n/a	n/a	n/a
2162.464	n/a	REC_WORD	1081232	wordpools/wasnorm_wordpool_less_exclusions.txt	LTP219	ltpFR	4	12	0	LEG	809	n/a	0	n/a	n/a	n/a	n/a	n/a
2163.71	n/a	REC_WORD	1081855	wordpools/wasnorm_wordpool_less_exclusions.txt	LTP219	ltpFR	4	12	0	KNEE	784	n/a	0	n/a	n/a	n/a	n/a	n/a
2165.23	n/a	REC_WORD	1082615	wordpools/wasnorm_wordpool_less_exclusions.txt	LTP219	ltpFR	4	12	0	LIGHTER	819	n/a	0	n/a	n/a	n/a	n/a	n/a
2167.006	n/a	REC_WORD	1083503	wordpools/wasnorm_wordpool_less_exclusions.txt	LTP219	ltpFR	4	12	1	MAGICIAN	854	n/a	1	n/a	n/a	n/a	n/a	n/a
2170.36	n/a	REC_WORD_VV	1085180	wordpools/wasnorm_wordpool_less_exclusions.txt	LTP219	ltpFR	4	12	n/a	<>	-1	n/a	n/a	n/a	n/a	n/a	n/a	n/a
2179.544	n/a	REC_WORD_VV	1089772	wordpools/wasnorm_wordpool_less_exclusions.txt	LTP219	ltpFR	4	12	n/a	<>	-1	n/a	n/a	n/a	n/a	n/a	n/a	n/a
2180.54	n/a	REC_WORD_VV	1090270	wordpools/wasnorm_wordpool_less_exclusions.txt	LTP219	ltpFR	4	12	n/a	<>	-1	n/a	n/a	n/a	n/a	n/a	n/a	n/a
2181.664	n/a	REC_WORD	1090832	wordpools/wasnorm_wordpool_less_exclusions.txt	LTP219	ltpFR	4	12	1	GOLD	647	n/a	0	n/a	n/a	n/a	n/a	n/a
2190.882	n/a	REC_WORD	1095441	wordpools/wasnorm_wordpool_less_exclusions.txt	LTP219	ltpFR	4	12	0	MAP	865	n/a	0	n/a	n/a	n/a	n/a	n/a
2193.312	n/a	REC_WORD	1096656	wordpools/wasnorm_wordpool_less_exclusions.txt	LTP219	ltpFR	4	12	n/a	SAW	1239	n/a	n/a	n/a	n/a	n/a	n/a	n/a
2194.324	n/a	REC_WORD_VV	1097162	wordpools/wasnorm_wordpool_less_exclusions.txt	LTP219	ltpFR	4	12	n/a	<>	-1	n/a	n/a	n/a	n/a	n/a	n/a	n/a
2198.148	n/a	REC_WORD_VV	1099074	wordpools/wasnorm_wordpool_less_exclusions.txt	LTP219	ltpFR	4	12	n/a	<>	-1	n/a	n/a	n/a	n/a	n/a	n/a	n/a
2201.762	n/a	REC_WORD_VV	1100881	wordpools/wasnorm_wordpool_less_exclusions.txt	LTP219	ltpFR	4	12	n/a	<>	-1	n/a	n/a	n/a	n/a	n/a	n/a	n/a
2204.23	n/a	REC_WORD_VV	1102115	wordpools/wasnorm_wordpool_less_exclusions.txt	LTP219	ltpFR	4	12	n/a	<>	-1	n/a	n/a	n/a	n/a	n/a	n/a	n/a
2205.224	n/a	REC_WORD_VV	1102612	wordpools/wasnorm_wordpool_less_exclusions.txt	LTP219	ltpFR	4	12	n/a	<>	-1	n/a	n/a	n/a	n/a	n/a	n/a	n/a
2207.04	n/a	REC_WORD_VV	1103520	wordpools/wasnorm_wordpool_less_exclusions.txt	LTP219	ltpFR	4	12	n/a	<>	-1	n/a	n/a	n/a	n/a	n/a	n/a	n/a
2214.278	n/a	REC_WORD_VV	1107139	wordpools/wasnorm_wordpool_less_exclusions.txt	LTP219	ltpFR	4	12	n/a	<>	-1	n/a	n/a	n/a	n/a	n/a	n/a	n/a
2217.3	n/a	REC_WORD_VV	1108650	wordpools/wasnorm_wordpool_less_exclusions.txt	LTP219	ltpFR	4	12	n/a	<>	-1	n/a	n/a	n/a	n/a	n/a	n/a	n/a
2220.4	n/a	REC_WORD	1110200	wordpools/wasnorm_wordpool_less_exclusions.txt	LTP219	ltpFR	4	12	n/a	PORCH	1106	n/a	n/a	n/a	n/a	n/a	n/a	n/a
2233.314	n/a	REC_WORD	1116657	wordpools/wasnorm_wordpool_less_exclusions.txt	LTP219	ltpFR	4	12	1	GOLD	647	n/a	0	n/a	n/a	n/a	n/a	n/a
2236.61	n/a	REST_REWET	1118305	n/a	LTP219	ltpFR	4	12	n/a	n/a	n/a	n/a	n/a	n/a	n/a	n/a	n/a	n/a
2452.124	n/a	WORD	1226062	wordpools/wasnorm_wordpool_less_exclusions.txt	LTP219	ltpFR	4	13	1	EMPEROR	529	n/a	0	1	0.412841796875	0.57763671875	upper	../fonts/amplitud.ttf
2456.268	n/a	WORD	1228134	wordpools/wasnorm_wordpool_less_exclusions.txt	LTP219	ltpFR	4	13	1	PIPE	1073	n/a	0	1	0.412841796875	0.57763671875	upper	../fonts/amplitud.ttf
2460.162	n/a	WORD	1230081	wordpools/wasnorm_wordpool_less_exclusions.txt	LTP219	ltpFR	4	13	1	TROUT	1511	n/a	1	1	0.412841796875	0.57763671875	upper	../fonts/amplitud.ttf
2464.022	n/a	WORD	1232011	wordpools/wasnorm_wordpool_less_exclusions.txt	LTP219	ltpFR	4	13	1	CHICKEN	297	n/a	1	1	0.412841796875	0.57763671875	upper	../fonts/amplitud.ttf
2468.2	n/a	WORD	1234100	wordpools/wasnorm_wordpool_less_exclusions.txt	LTP219	ltpFR	4	13	1	PENCIL	1042	n/a	0	1	0.412841796875	0.57763671875	upper	../fonts/amplitud.ttf
2472.128	n/a	WORD	1236064	wordpools/wasnorm_wordpool_less_exclusions.txt	LTP219	ltpFR	4	13	1	MONARCH	906	n/a	1	1	0.412841796875	0.57763671875	upper	../fonts/amplitud.ttf
2475.956	n/a	WORD	1237978	wordpools/wasnorm_wordpool_less_exclusions.txt	LTP219	ltpFR	4	13	1	TIDE	1465	n/a	0	1	0.412841796875	0.57763671875	upper	../fonts/amplitud.ttf
2479.782	n/a	WORD	1239891	wordpools/wasnorm_wordpool_less_exclusions.txt	LTP219	ltpFR	4	13	1	REEF	1177	n/a	0	1	0.412841796875	0.57763671875	upper	../fonts/amplitud.ttf
2483.976	n/a	WORD	1241988	wordpools/wasnorm_wordpool_less_exclusions.txt	LTP219	ltpFR	4	13	1	MOB	904	n/a	1	1	0.412841796875	0.57763671875	upper	../fonts/amplitud.ttf
2488.004	n/a	WORD	1244002	wordpools/wasnorm_wordpool_less_exclusions.txt	LTP219	ltpFR	4	13	1	JUG	762	n/a	0	1	0.412841796875	0.57763671875	upper	../fonts/amplitud.ttf
2492.114	n/a	WORD	1246057	wordpools/wasnorm_wordpool_less_exclusions.txt	LTP219	ltpFR	4	13	1	TYPIST	1532	n/a	1	1	0.412841796875	0.57763671875	upper	../fonts/amplitud.ttf
2496.108	n/a	WORD	1248054	wordpools/wasnorm_wordpool_less_exclusions.txt	LTP219	ltpFR	4	13	1	DISC	473	n/a	0	1	0.412841796875	0.57763671875	upper	../fonts/amplitud.ttf
2499.954	n/a	WORD	1249977	wordpools/wasnorm_wordpool_less_exclusions.txt	LTP219	ltpFR	4	13	1	CREW	406	n/a	1	1	0.412841796875	0.57763671875	upper	../fonts/amplitud.ttf
2503.832	n/a	WORD	1251916	wordpools/wasnorm_wordpool_less_exclusions.txt	LTP219	ltpFR	4	13	1	RAFT	1159	n/a	0	1	0.412841796875	0.57763671875	upper	../fonts/amplitud.ttf
2507.71	n/a	WORD	1253855	wordpools/wasnorm_wordpool_less_exclusions.txt	LTP219	ltpFR	4	13	1	PAD	998	n/a	0	1	0.412841796875	0.57763671875	upper	../fonts/amplitud.ttf
2511.538	n/a	WORD	1255769	wordpools/wasnorm_wordpool_less_exclusions.txt	LTP219	ltpFR	4	13	1	COTTON	385	n/a	0	1	0.412841796875	0.57763671875	upper	../fonts/amplitud.ttf
2517.496	n/a	REC_START	1258748	n/a	LTP219	ltpFR	4	13	n/a	n/a	n/a	n/a	n/a	n/a	n/a	n/a	n/a	n/a
2518.918	n/a	REC_WORD	1259459	wordpools/wasnorm_wordpool_less_exclusions.txt	LTP219	ltpFR	4	13	1	COTTON	385	n/a	0	n/a	n/a	n/a	n/a	n/a
2520.08	n/a	REC_WORD	1260040	wordpools/wasnorm_wordpool_less_exclusions.txt	LTP219	ltpFR	4	13	1	RAFT	1159	n/a	0	n/a	n/a	n/a	n/a	n/a
2521.356	n/a	REC_WORD	1260678	wordpools/wasnorm_wordpool_less_exclusions.txt	LTP219	ltpFR	4	13	1	TIDE	1465	n/a	0	n/a	n/a	n/a	n/a	n/a
2523.118	n/a	REC_WORD	1261559	wordpools/wasnorm_wordpool_less_exclusions.txt	LTP219	ltpFR	4	13	1	EMPEROR	529	n/a	0	n/a	n/a	n/a	n/a	n/a
2526.146	n/a	REC_WORD_VV	1263073	wordpools/wasnorm_wordpool_less_exclusions.txt	LTP219	ltpFR	4	13	n/a	<>	-1	n/a	n/a	n/a	n/a	n/a	n/a	n/a
2527.14	n/a	REC_WORD_VV	1263570	wordpools/wasnorm_wordpool_less_exclusions.txt	LTP219	ltpFR	4	13	n/a	<>	-1	n/a	n/a	n/a	n/a	n/a	n/a	n/a
2533.886	n/a	REC_WORD_VV	1266943	wordpools/wasnorm_wordpool_less_exclusions.txt	LTP219	ltpFR	4	13	n/a	<>	-1	n/a	n/a	n/a	n/a	n/a	n/a	n/a
2534.924	n/a	REC_WORD_VV	1267462	wordpools/wasnorm_wordpool_less_exclusions.txt	LTP219	ltpFR	4	13	n/a	<>	-1	n/a	n/a	n/a	n/a	n/a	n/a	n/a
2537.93	n/a	REC_WORD_VV	1268965	wordpools/wasnorm_wordpool_less_exclusions.txt	LTP219	ltpFR	4	13	n/a	<>	-1	n/a	n/a	n/a	n/a	n/a	n/a	n/a
2539.032	n/a	REC_WORD	1269516	wordpools/wasnorm_wordpool_less_exclusions.txt	LTP219	ltpFR	4	13	1	RAFT	1159	n/a	0	n/a	n/a	n/a	n/a	n/a
2540.358	n/a	REC_WORD	1270179	wordpools/wasnorm_wordpool_less_exclusions.txt	LTP219	ltpFR	4	13	1	JUG	762	n/a	0	n/a	n/a	n/a	n/a	n/a
2543.01	n/a	REC_WORD_VV	1271505	wordpools/wasnorm_wordpool_less_exclusions.txt	LTP219	ltpFR	4	13	n/a	<>	-1	n/a	n/a	n/a	n/a	n/a	n/a	n/a
2545.786	n/a	REC_WORD_VV	1272893	wordpools/wasnorm_wordpool_less_exclusions.txt	LTP219	ltpFR	4	13	n/a	<>	-1	n/a	n/a	n/a	n/a	n/a	n/a	n/a
2549.426	n/a	REC_WORD	1274713	wordpools/wasnorm_wordpool_less_exclusions.txt	LTP219	ltpFR	4	13	1	JUG	762	n/a	0	n/a	n/a	n/a	n/a	n/a
2560.364	n/a	REC_WORD	1280182	wordpools/wasnorm_wordpool_less_exclusions.txt	LTP219	ltpFR	4	13	n/a	RULER	1216	n/a	n/a	n/a	n/a	n/a	n/a	n/a
2561.06	n/a	REC_WORD_VV	1280530	wordpools/wasnorm_wordpool_less_exclusions.txt	LTP219	ltpFR	4	13	n/a	<>	-1	n/a	n/a	n/a	n/a	n/a	n/a	n/a
2567.804	n/a	REC_WORD_VV	1283902	wordpools/wasnorm_wordpool_less_exclusions.txt	LTP219	ltpFR	4	13	n/a	<>	-1	n/a	n/a	n/a	n/a	n/a	n/a	n/a
2574.222	n/a	REC_WORD	1287111	wordpools/wasnorm_wordpool_less_exclusions.txt	LTP219	ltpFR	4	13	0	BARREL	91	n/a	0	n/a	n/a	n/a	n/a	n/a
2580.366	n/a	REC_WORD	1290183	wordpools/wasnorm_wordpool_less_exclusions.txt	LTP219	ltpFR	4	13	1	JUG	762	n/a	0	n/a	n/a	n/a	n/a	n/a
2585.272	n/a	REC_WORD	1292636	wordpools/wasnorm_wordpool_less_exclusions.txt	LTP219	ltpFR	4	13	0	KEG	770	n/a	0	n/a	n/a	n/a	n/a	n/a
2591.462	n/a	REC_WORD	1295731	wordpools/wasnorm_wordpool_less_exclusions.txt	LTP219	ltpFR	4	13	1	JUG	762	n/a	0	n/a	n/a	n/a	n/a	n/a
2598.308	n/a	WORD	1299154	wordpools/wasnorm_wordpool_less_exclusions.txt	LTP219	ltpFR	4	14	-1	THORN	1459	n/a	-1	1	1.0	1.0	upper	../fonts/Verdana.ttf
2602.268	n/a	WORD	1301134	wordpools/wasnorm_wordpool_less_exclusions.txt	LTP219	ltpFR	4	14	-1	CONTRACT	368	n/a	-1	1	1.0	1.0	upper	../fonts/Verdana.ttf
2606.38	n/a	WORD	1303190	wordpools/wasnorm_wordpool_less_exclusions.txt	LTP219	ltpFR	4	14	-1	SUPERMARKET	1409	n/a	-1	1	1.0	1.0	upper	../fonts/Verdana.ttf
2610.256	n/a	WORD	1305128	wordpools/wasnorm_wordpool_less_exclusions.txt	LTP219	ltpFR	4	14	-1	ALBUM	14	n/a	-1	1	1.0	1.0	upper	../fonts/Verdana.ttf
2614.384	n/a	WORD	1307192	wordpools/wasnorm_wordpool_less_exclusions.txt	LTP219	ltpFR	4	14	-1	SUIT	1402	n/a	-1	1	1.0	1.0	upper	../fonts/Verdana.ttf
2618.546	n/a	WORD	1309273	wordpools/wasnorm_wordpool_less_exclusions.txt	LTP219	ltpFR	4	14	-1	LONDON	843	n/a	-1	1	1.0	1.0	upper	../fonts/Verdana.ttf
2622.722	n/a	WORD	1311361	wordpools/wasnorm_wordpool_less_exclusions.txt	LTP219	ltpFR	4	14	-1	CHEF	290	n/a	-1	1	1.0	1.0	upper	../fonts/Verdana.ttf
2626.748	n/a	WORD	1313374	wordpools/wasnorm_wordpool_less_exclusions.txt	LTP219	ltpFR	4	14	-1	PELT	1040	n/a	-1	1	1.0	1.0	upper	../fonts/Verdana.ttf
2630.826	n/a	WORD	1315413	wordpools/wasnorm_wordpool_less_exclusions.txt	LTP219	ltpFR	4	14	-1	BAKER	71	n/a	-1	1	1.0	1.0	upper	../fonts/Verdana.ttf
2635.004	n/a	WORD	1317502	wordpools/wasnorm_wordpool_less_exclusions.txt	LTP219	ltpFR	4	14	-1	RELISH	1183	n/a	-1	1	1.0	1.0	upper	../fonts/Verdana.ttf
2638.982	n/a	WORD	1319491	wordpools/wasnorm_wordpool_less_exclusions.txt	LTP219	ltpFR	4	14	-1	CRITIC	410	n/a	-1	1	1.0	1.0	upper	../fonts/Verdana.ttf
2643.108	n/a	WORD	1321554	wordpools/wasnorm_wordpool_less_exclusions.txt	LTP219	ltpFR	4	14	-1	DIRECTOR	471	n/a	-1	1	1.0	1.0	upper	../fonts/Verdana.ttf
2647.336	n/a	WORD	1323668	wordpools/wasnorm_wordpool_less_exclusions.txt	LTP219	ltpFR	4	14	-1	COUNTRY	388	n/a	-1	1	1.0	1.0	upper	../fonts/Verdana.ttf
2651.196	n/a	WORD	1325598	wordpools/wasnorm_wordpool_less_exclusions.txt	LTP219	ltpFR	4	14	-1	FINGERNAIL	568	n/a	-1	1	1.0	1.0	upper	../fonts/Verdana.ttf
2655.408	n/a	WORD	1327704	wordpools/wasnorm_wordpool_less_exclusions.txt	LTP219	ltpFR	4	14	-1	ZOO	1637	n/a	-1	1	1.0	1.0	upper	../fonts/Verdana.ttf
2659.434	n/a	WORD	1329717	wordpools/wasnorm_wordpool_less_exclusions.txt	LTP219	ltpFR	4	14	-1	JUNGLE	764	n/a	-1	1	1.0	1.0	upper	../fonts/Verdana.ttf
2665.176	n/a	REC_START	1332588	n/a	LTP219	ltpFR	4	14	n/a	n/a	n/a	n/a	n/a	n/a	n/a	n/a	n/a	n/a
2666.272	n/a	REC_WORD	1333136	wordpools/wasnorm_wordpool_less_exclusions.txt	LTP219	ltpFR	4	14	-1	FINGERNAIL	568	n/a	-1	n/a	n/a	n/a	n/a	n/a
2667.216	n/a	REC_WORD	1333608	wordpools/wasnorm_wordpool_less_exclusions.txt	LTP219	ltpFR	4	14	-1	ZOO	1637	n/a	-1	n/a	n/a	n/a	n/a	n/a
2669.046	n/a	REC_WORD	1334523	wordpools/wasnorm_wordpool_less_exclusions.txt	LTP219	ltpFR	4	14	-1	JUNGLE	764	n/a	-1	n/a	n/a	n/a	n/a	n/a
2670.718	n/a	REC_WORD	1335359	wordpools/wasnorm_wordpool_less_exclusions.txt	LTP219	ltpFR	4	14	-1	SUPERMARKET	1409	n/a	-1	n/a	n/a	n/a	n/a	n/a
2671.756	n/a	REC_WORD_VV	1335878	wordpools/wasnorm_wordpool_less_exclusions.txt	LTP219	ltpFR	4	14	n/a	<>	-1	n/a	n/a	n/a	n/a	n/a	n/a	n/a
2675.788	n/a	REC_WORD_VV	1337894	wordpools/wasnorm_wordpool_less_exclusions.txt	LTP219	ltpFR	4	14	n/a	<>	-1	n/a	n/a	n/a	n/a	n/a	n/a	n/a
2676.654	n/a	REC_WORD	1338327	wordpools/wasnorm_wordpool_less_exclusions.txt	LTP219	ltpFR	4	14	n/a	CHIEF	298	n/a	n/a	n/a	n/a	n/a	n/a	n/a
2677.65	n/a	REC_WORD_VV	1338825	wordpools/wasnorm_wordpool_less_exclusions.txt	LTP219	ltpFR	4	14	n/a	<>	-1	n/a	n/a	n/a	n/a	n/a	n/a	n/a
2680.06	n/a	REC_WORD_VV	1340030	wordpools/wasnorm_wordpool_less_exclusions.txt	LTP219	ltpFR	4	14	n/a	<>	-1	n/a	n/a	n/a	n/a	n/a	n/a	n/a
2682.296	n/a	REC_WORD	1341148	wordpools/wasnorm_wordpool_less_exclusions.txt	LTP219	ltpFR	4	14	n/a	CHIEF	298	n/a	n/a	n/a	n/a	n/a	n/a	n/a
2683.294	n/a	REC_WORD_VV	1341647	wordpools/wasnorm_wordpool_less_exclusions.txt	LTP219	ltpFR	4	14	n/a	<>	-1	n/a	n/a	n/a	n/a	n/a	n/a	n/a
2691.734	n/a	REC_WORD	1345867	wordpools/wasnorm_wordpool_less_exclusions.txt	LTP219	ltpFR	4	14	-1	BAKER	71	n/a	-1	n/a	n/a	n/a	n/a	n/a
2697.02	n/a	REC_WORD_VV	1348510	wordpools/wasnorm_wordpool_less_exclusions.txt	LTP219	ltpFR	4	14	n/a	<>	-1	n/a	n/a	n/a	n/a	n/a	n/a	n/a
2701.674	n/a	REC_WORD_VV	1350837	wordpools/wasnorm_wordpool_less_exclusions.txt	LTP219	ltpFR	4	14	n/a	<>	-1	n/a	n/a	n/a	n/a	n/a	n/a	n/a
2708.14	n/a	REC_WORD_VV	1354070	wordpools/wasnorm_wordpool_less_exclusions.txt	LTP219	ltpFR	4	14	n/a	<>	-1	n/a	n/a	n/a	n/a	n/a	n/a	n/a
2710.758	n/a	REC_WORD_VV	1355379	wordpools/wasnorm_wordpool_less_exclusions.txt	LTP219	ltpFR	4	14	n/a	<>	-1	n/a	n/a	n/a	n/a	n/a	n/a	n/a
2717.722	n/a	REC_WORD	1358861	wordpools/wasnorm_wordpool_less_exclusions.txt	LTP219	ltpFR	4	14	1	PENCIL	1042	n/a	0	n/a	n/a	n/a	n/a	n/a
2724.608	n/a	REC_WORD	1362304	wordpools/wasnorm_wordpool_less_exclusions.txt	LTP219	ltpFR	4	14	n/a	WRITER	1627	n/a	n/a	n/a	n/a	n/a	n/a	n/a
2733.21	n/a	REC_WORD	1366605	wordpools/wasnorm_wordpool_less_exclusions.txt	LTP219	ltpFR	4	14	n/a	WRITER	1627	n/a	n/a	n/a	n/a	n/a	n/a	n/a
2736.222	n/a	REC_WORD	1368111	wordpools/wasnorm_wordpool_less_exclusions.txt	LTP219	ltpFR	4	14	1	PENCIL	1042	n/a	0	n/a	n/a	n/a	n/a	n/a
2747.22	n/a	WORD	1373610	wordpools/wasnorm_wordpool_less_exclusions.txt	LTP219	ltpFR	4	15	1	CLOWN	330	n/a	1	1	0.412841796875	0.57763671875	upper	../fonts/amplitud.ttf
2751.314	n/a	WORD	1375657	wordpools/wasnorm_wordpool_less_exclusions.txt	LTP219	ltpFR	4	15	1	COMET	353	n/a	0	1	0.412841796875	0.57763671875	upper	../fonts/amplitud.ttf
2755.326	n/a	WORD	1377663	wordpools/wasnorm_wordpool_less_exclusions.txt	LTP219	ltpFR	4	15	1	MECHANIC	884	n/a	1	1	0.412841796875	0.57763671875	upper	../fonts/amplitud.ttf
2759.454	n/a	WORD	1379727	wordpools/wasnorm_wordpool_less_exclusions.txt	LTP219	ltpFR	4	15	1	CABIN	211	n/a	0	1	0.412841796875	0.57763671875	upper	../fonts/amplitud.ttf
2763.598	n/a	WORD	1381799	wordpools/wasnorm_wordpool_less_exclusions.txt	LTP219	ltpFR	4	15	1	VESSEL	1558	n/a	0	1	0.412841796875	0.57763671875	upper	../fonts/amplitud.ttf
2767.74	n/a	WORD	1383870	wordpools/wasnorm_wordpool_less_exclusions.txt	LTP219	ltpFR	4	15	1	AUTOMOBILE	62	n/a	0	1	0.412841796875	0.57763671875	upper	../fonts/amplitud.ttf
2771.902	n/a	WORD	1385951	wordpools/wasnorm_wordpool_less_exclusions.txt	LTP219	ltpFR	4	15	1	CLOUD	328	n/a	0	1	0.412841796875	0.57763671875	upper	../fonts/amplitud.ttf
2775.812	n/a	WORD	1387906	wordpools/wasnorm_wordpool_less_exclusions.txt	LTP219	ltpFR	4	15	1	FLY	586	n/a	1	1	0.412841796875	0.57763671875	upper	../fonts/amplitud.ttf
2779.74	n/a	WORD	1389870	wordpools/wasnorm_wordpool_less_exclusions.txt	LTP219	ltpFR	4	15	1	KITE	779	n/a	0	1	0.412841796875	0.57763671875	upper	../fonts/amplitud.ttf
2783.75	n/a	WORD	1391875	wordpools/wasnorm_wordpool_less_exclusions.txt	LTP219	ltpFR	4	15	1	MULE	931	n/a	1	1	0.412841796875	0.57763671875	upper	../fonts/amplitud.ttf
2787.628	n/a	WORD	1393814	wordpools/wasnorm_wordpool_less_exclusions.txt	LTP219	ltpFR	4	15	1	OX	994	n/a	1	1	0.412841796875	0.57763671875	upper	../fonts/amplitud.ttf
2791.722	n/a	WORD	1395861	wordpools/wasnorm_wordpool_less_exclusions.txt	LTP219	ltpFR	4	15	1	PORCH	1106	n/a	0	1	0.412841796875	0.57763671875	upper	../fonts/amplitud.ttf
2795.584	n/a	WORD	1397792	wordpools/wasnorm_wordpool_less_exclusions.txt	LTP219	ltpFR	4	15	1	SWITCH	1422	n/a	0	1	0.412841796875	0.57763671875	upper	../fonts/amplitud.ttf
2799.776	n/a	WORD	1399888	wordpools/wasnorm_wordpool_less_exclusions.txt	LTP219	ltpFR	4	15	1	FRIAR	605	n/a	1	1	0.412841796875	0.57763671875	upper	../fonts/amplitud.ttf
2803.986	n/a	WORD	1401993	wordpools/wasnorm_wordpool_less_exclusions.txt	LTP219	ltpFR	4	15	1	STONE	1385	n/a	0	1	0.412841796875	0.57763671875	upper	../fonts/amplitud.ttf
2808.064	n/a	WORD	1404032	wordpools/wasnorm_wordpool_less_exclusions.txt	LTP219	ltpFR	4	15	1	ROOF	1205	n/a	0	1	0.412841796875	0.57763671875	upper	../fonts/amplitud.ttf
2813.94	n/a	REC_START	1406970	n/a	LTP219	ltpFR	4	15	n/a	n/a	n/a	n/a	n/a	n/a	n/a	n/a	n/a	n/a
2815.142	n/a	REC_WORD	1407571	wordpools/wasnorm_wordpool_less_exclusions.txt	LTP219	ltpFR	4	15	1	FRIAR	605	n/a	1	n/a	n/a	n/a	n/a	n/a
2816.13	n/a	REC_WORD_VV	1408065	wordpools/wasnorm_wordpool_less_exclusions.txt	LTP219	ltpFR	4	15	n/a	<>	-1	n/a	n/a	n/a	n/a	n/a	n/a	n/a
2816.65	n/a	REC_WORD	1408325	wordpools/wasnorm_wordpool_less_exclusions.txt	LTP219	ltpFR	4	15	1	ROOF	1205	n/a	0	n/a	n/a	n/a	n/a	n/a
2817.696	n/a	REC_WORD	1408848	wordpools/wasnorm_wordpool_less_exclusions.txt	LTP219	ltpFR	4	15	1	STONE	1385	n/a	0	n/a	n/a	n/a	n/a	n/a
2819.666	n/a	REC_WORD	1409833	wordpools/wasnorm_wordpool_less_exclusions.txt	LTP219	ltpFR	4	15	1	CLOUD	328	n/a	0	n/a	n/a	n/a	n/a	n/a
2820.672	n/a	REC_WORD_VV	1410336	wordpools/wasnorm_wordpool_less_exclusions.txt	LTP219	ltpFR	4	15	n/a	<>	-1	n/a	n/a	n/a	n/a	n/a	n/a	n/a
2821.152	n/a	REC_WORD	1410576	wordpools/wasnorm_wordpool_less_exclusions.txt	LTP219	ltpFR	4	15	1	FLY	586	n/a	1	n/a	n/a	n/a	n/a	n/a
2823.254	n/a	REC_WORD	1411627	wordpools/wasnorm_wordpool_less_exclusions.txt	LTP219	ltpFR	4	15	1	KITE	779	n/a	0	n/a	n/a	n/a	n/a	n/a
2826.384	n/a	REC_WORD	1413192	wordpools/wasnorm_wordpool_less_exclusions.txt	LTP219	ltpFR	4	15	-1	VEHICLE	1553	n/a	-1	n/a	n/a	n/a	n/a	n/a
2827.392	n/a	REC_WORD_VV	1413696	wordpools/wasnorm_wordpool_less_exclusions.txt	LTP219	ltpFR	4	15	n/a	<>	-1	n/a	n/a	n/a	n/a	n/a	n/a	n/a
2830.338	n/a	REC_WORD	1415169	wordpools/wasnorm_wordpool_less_exclusions.txt	LTP219	ltpFR	4	15	1	ROOF	1205	n/a	0	n/a	n/a	n/a	n/a	n/a
2835.708	n/a	REC_WORD_VV	1417854	wordpools/wasnorm_wordpool_less_exclusions.txt	LTP219	ltpFR	4	15	n/a	<>	-1	n/a	n/a	n/a	n/a	n/a	n/a	n/a
2846.85	n/a	REC_WORD	1423425	wordpools/wasnorm_wordpool_less_exclusions.txt	LTP219	ltpFR	4	15	-1	ARCHITECT	36	n/a	-1	n/a	n/a	n/a	n/a	n/a
2847.852	n/a	REC_WORD_VV	1423926	wordpools/wasnorm_wordpool_less_exclusions.txt	LTP219	ltpFR	4	15	n/a	<>	-1	n/a	n/a	n/a	n/a	n/a	n/a	n/a
2849.836	n/a	REC_WORD_VV	1424918	wordpools/wasnorm_wordpool_less_exclusions.txt	LTP219	ltpFR	4	15	n/a	<>	-1	n/a	n/a	n/a	n/a	n/a	n/a	n/a
2850.832	n/a	REC_WORD_VV	1425416	wordpools/wasnorm_wordpool_less_exclusions.txt	LTP219	ltpFR	4	15	n/a	<>	-1	n/a	n/a	n/a	n/a	n/a	n/a	n/a
2853.39	n/a	REC_WORD	1426695	wordpools/wasnorm_wordpool_less_exclusions.txt	LTP219	ltpFR	4	15	1	ROOF	1205	n/a	0	n/a	n/a	n/a	n/a	n/a
2857.38	n/a	REC_WORD	1428690	wordpools/wasnorm_wordpool_less_exclusions.txt	LTP219	ltpFR	4	15	1	FLY	586	n/a	1	n/a	n/a	n/a	n/a	n/a
2858.39	n/a	REC_WORD_VV	1429195	wordpools/wasnorm_wordpool_less_exclusions.txt	LTP219	ltpFR	4	15	n/a	<>	-1	n/a	n/a	n/a	n/a	n/a	n/a	n/a
2861.378	n/a	REC_WORD	1430689	wordpools/wasnorm_wordpool_less_exclusions.txt	LTP219	ltpFR	4	15	-1	JUNGLE	764	n/a	-1	n/a	n/a	n/a	n/a	n/a
2864.836	n/a	REC_WORD	1432418	wordpools/wasnorm_wordpool_less_exclusions.txt	LTP219	ltpFR	4	15	1	FLY	586	n/a	1	n/a	n/a	n/a	n/a	n/a
2865.462	n/a	REC_WORD	1432731	wordpools/wasnorm_wordpool_less_exclusions.txt	LTP219	ltpFR	4	15	1	KITE	779	n/a	0	n/a	n/a	n/a	n/a	n/a
2866.974	n/a	REC_WORD	1433487	wordpools/wasnorm_wordpool_less_exclusions.txt	LTP219	ltpFR	4	15	1	CLOUD	328	n/a	0	n/a	n/a	n/a	n/a	n/a
2867.978	n/a	REC_WORD_VV	1433989	wordpools/wasnorm_wordpool_less_exclusions.txt	LTP219	ltpFR	4	15	n/a	<>	-1	n/a	n/a	n/a	n/a	n/a	n/a	n/a
2869.53	n/a	REC_WORD_VV	1434765	wordpools/wasnorm_wordpool_less_exclusions.txt	LTP219	ltpFR	4	15	n/a	<>	-1	n/a	n/a	n/a	n/a	n/a	n/a	n/a
2873.21	n/a	REC_WORD_VV	1436605	wordpools/wasnorm_wordpool_less_exclusions.txt	LTP219	ltpFR	4	15	n/a	<>	-1	n/a	n/a	n/a	n/a	n/a	n/a	n/a
2874.204	n/a	REC_WORD_VV	1437102	wordpools/wasnorm_wordpool_less_exclusions.txt	LTP219	ltpFR	4	15	n/a	<>	-1	n/a	n/a	n/a	n/a	n/a	n/a	n/a
2874.996	n/a	REC_WORD	1437498	wordpools/wasnorm_wordpool_less_exclusions.txt	LTP219	ltpFR	4	15	n/a	TORNADO	1485	n/a	n/a	n/a	n/a	n/a	n/a	n/a
2883.7	n/a	REC_WORD_VV	1441850	wordpools/wasnorm_wordpool_less_exclusions.txt	LTP219	ltpFR	4	15	n/a	<>	-1	n/a	n/a	n/a	n/a	n/a	n/a	n/a
2884.51	n/a	REC_WORD	1442255	wordpools/wasnorm_wordpool_less_exclusions.txt	LTP219	ltpFR	4	15	1	PORCH	1106	n/a	0	n/a	n/a	n/a	n/a	n/a
2897.314	n/a	WORD	1448657	wordpools/wasnorm_wordpool_less_exclusions.txt	LTP219	ltpFR	4	16	0	RAKE	1164	n/a	0	0	0.5869140625	0.422607421875	lower	../fonts/zerothre.ttf
2901.478	n/a	WORD	1450739	wordpools/wasnorm_wordpool_less_exclusions.txt	LTP219	ltpFR	4	16	0	WORKER	1621	n/a	0	0	0.5869140625	0.422607421875	lower	../fonts/zerothre.ttf
2905.538	n/a	WORD	1452769	wordpools/wasnorm_wordpool_less_exclusions.txt	LTP219	ltpFR	4	16	0	TRAY	1498	n/a	0	0	0.5869140625	0.422607421875	lower	../fonts/zerothre.ttf
2909.448	n/a	WORD	1454724	wordpools/wasnorm_wordpool_less_exclusions.txt	LTP219	ltpFR	4	16	1	PICNIC	1060	n/a	0	1	0.412841796875	0.57763671875	upper	../fonts/amplitud.ttf
2913.51	n/a	WORD	1456755	wordpools/wasnorm_wordpool_less_exclusions.txt	LTP219	ltpFR	4	16	1	SHORTCAKE	1292	n/a	0	1	0.412841796875	0.57763671875	upper	../fonts/amplitud.ttf
2917.37	n/a	WORD	1458685	wordpools/wasnorm_wordpool_less_exclusions.txt	LTP219	ltpFR	4	16	1	SPIDER	1351	n/a	1	1	0.412841796875	0.57763671875	upper	../fonts/amplitud.ttf
2921.348	n/a	WORD	1460674	wordpools/wasnorm_wordpool_less_exclusions.txt	LTP219	ltpFR	4	16	1	SALOON	1228	n/a	0	1	0.412841796875	0.57763671875	upper	../fonts/amplitud.ttf
2925.224	n/a	WORD	1462612	wordpools/wasnorm_wordpool_less_exclusions.txt	LTP219	ltpFR	4	16	0	HORNET	718	n/a	0	0	0.5869140625	0.422607421875	lower	../fonts/zerothre.ttf
2929.052	n/a	WORD	1464526	wordpools/wasnorm_wordpool_less_exclusions.txt	LTP219	ltpFR	4	16	0	RECIPE	1175	n/a	0	0	0.5869140625	0.422607421875	lower	../fonts/zerothre.ttf
2932.93	n/a	WORD	1466465	wordpools/wasnorm_wordpool_less_exclusions.txt	LTP219	ltpFR	4	16	0	ZUCCHINI	1638	n/a	0	0	0.5869140625	0.422607421875	lower	../fonts/zerothre.ttf
2936.94	n/a	WORD	1468470	wordpools/wasnorm_wordpool_less_exclusions.txt	LTP219	ltpFR	4	16	0	LANDSCAPE	799	n/a	1	0	0.5869140625	0.422607421875	lower	../fonts/zerothre.ttf
2940.9	n/a	WORD	1470450	wordpools/wasnorm_wordpool_less_exclusions.txt	LTP219	ltpFR	4	16	0	LODGE	839	n/a	1	0	0.5869140625	0.422607421875	lower	../fonts/zerothre.ttf
2945.112	n/a	WORD	1472556	wordpools/wasnorm_wordpool_less_exclusions.txt	LTP219	ltpFR	4	16	1	EMPLOYER	532	n/a	1	1	0.412841796875	0.57763671875	upper	../fonts/amplitud.ttf
2949.138	n/a	WORD	1474569	wordpools/wasnorm_wordpool_less_exclusions.txt	LTP219	ltpFR	4	16	1	CLERK	321	n/a	1	1	0.412841796875	0.57763671875	upper	../fonts/amplitud.ttf
2953.166	n/a	WORD	1476583	wordpools/wasnorm_wordpool_less_exclusions.txt	LTP219	ltpFR	4	16	1	RASPBERRY	1168	n/a	1	1	0.412841796875	0.57763671875	upper	../fonts/amplitud.ttf
2957.344	n/a	WORD	1478672	wordpools/wasnorm_wordpool_less_exclusions.txt	LTP219	ltpFR	4	16	1	CONTRACTOR	369	n/a	1	1	0.412841796875	0.57763671875	upper	../fonts/amplitud.ttf
2962.986	n/a	REC_START	1481493	n/a	LTP219	ltpFR	4	16	n/a	n/a	n/a	n/a	n/a	n/a	n/a	n/a	n/a	n/a
2964.208	n/a	REC_WORD	1482104	wordpools/wasnorm_wordpool_less_exclusions.txt	LTP219	ltpFR	4	16	1	RASPBERRY	1168	n/a	1	n/a	n/a	n/a	n/a	n/a
2965.234	n/a	REC_WORD_VV	1482617	wordpools/wasnorm_wordpool_less_exclusions.txt	LTP219	ltpFR	4	16	n/a	<>	-1	n/a	n/a	n/a	n/a	n/a	n/a	n/a
2965.614	n/a	REC_WORD	1482807	wordpools/wasnorm_wordpool_less_exclusions.txt	LTP219	ltpFR	4	16	1	CONTRACTOR	369	n/a	1	n/a	n/a	n/a	n/a	n/a
2966.622	n/a	REC_WORD_VV	1483311	wordpools/wasnorm_wordpool_less_exclusions.txt	LTP219	ltpFR	4	16	n/a	<>	-1	n/a	n/a	n/a	n/a	n/a	n/a	n/a
2967.618	n/a	REC_WORD	1483809	wordpools/wasnorm_wordpool_less_exclusions.txt	LTP219	ltpFR	4	16	1	EMPLOYER	532	n/a	1	n/a	n/a	n/a	n/a	n/a
2968.66	n/a	REC_WORD_VV	1484330	wordpools/wasnorm_wordpool_less_exclusions.txt	LTP219	ltpFR	4	16	n/a	<>	-1	n/a	n/a	n/a	n/a	n/a	n/a	n/a
2969.986	n/a	REC_WORD	1484993	wordpools/wasnorm_wordpool_less_exclusions.txt	LTP219	ltpFR	4	16	1	CLERK	321	n/a	1	n/a	n/a	n/a	n/a	n/a
2973.302	n/a	REC_WORD_VV	1486651	wordpools/wasnorm_wordpool_less_exclusions.txt	LTP219	ltpFR	4	16	n/a	<>	-1	n/a	n/a	n/a	n/a	n/a	n/a	n/a
2980.068	n/a	REC_WORD_VV	1490034	wordpools/wasnorm_wordpool_less_exclusions.txt	LTP219	ltpFR	4	16	n/a	<>	-1	n/a	n/a	n/a	n/a	n/a	n/a	n/a
2982.304	n/a	REC_WORD_VV	1491152	wordpools/wasnorm_wordpool_less_exclusions.txt	LTP219	ltpFR	4	16	n/a	<>	-1	n/a	n/a	n/a	n/a	n/a	n/a	n/a
2983.298	n/a	REC_WORD_VV	1491649	wordpools/wasnorm_wordpool_less_exclusions.txt	LTP219	ltpFR	4	16	n/a	<>	-1	n/a	n/a	n/a	n/a	n/a	n/a	n/a
2985.344	n/a	REC_WORD	1492672	wordpools/wasnorm_wordpool_less_exclusions.txt	LTP219	ltpFR	4	16	0	TRAY	1498	n/a	0	n/a	n/a	n/a	n/a	n/a
2988.434	n/a	REC_WORD_VV	1494217	wordpools/wasnorm_wordpool_less_exclusions.txt	LTP219	ltpFR	4	16	n/a	<>	-1	n/a	n/a	n/a	n/a	n/a	n/a	n/a
2989.432	n/a	REC_WORD_VV	1494716	wordpools/wasnorm_wordpool_less_exclusions.txt	LTP219	ltpFR	4	16	n/a	<>	-1	n/a	n/a	n/a	n/a	n/a	n/a	n/a
2994.58	n/a	REC_WORD_VV	1497290	wordpools/wasnorm_wordpool_less_exclusions.txt	LTP219	ltpFR	4	16	n/a	<>	-1	n/a	n/a	n/a	n/a	n/a	n/a	n/a
2997.372	n/a	REC_WORD_VV	1498686	wordpools/wasnorm_wordpool_less_exclusions.txt	LTP219	ltpFR	4	16	n/a	<>	-1	n/a	n/a	n/a	n/a	n/a	n/a	n/a
2999.53	n/a	REC_WORD	1499765	wordpools/wasnorm_wordpool_less_exclusions.txt	LTP219	ltpFR	4	16	1	CLERK	321	n/a	1	n/a	n/a	n/a	n/a	n/a
3004.986	n/a	REC_WORD	1502493	wordpools/wasnorm_wordpool_less_exclusions.txt	LTP219	ltpFR	4	16	n/a	BUILDER	190	n/a	n/a	n/a	n/a	n/a	n/a	n/a
3007.964	n/a	REC_WORD_VV	1503982	wordpools/wasnorm_wordpool_less_exclusions.txt	LTP219	ltpFR	4	16	n/a	<>	-1	n/a	n/a	n/a	n/a	n/a	n/a	n/a
3010.762	n/a	REC_WORD	1505381	wordpools/wasnorm_wordpool_less_exclusions.txt	LTP219	ltpFR	4	16	1	ROOF	1205	n/a	0	n/a	n/a	n/a	n/a	n/a
3011.788	n/a	REC_WORD_VV	1505894	wordpools/wasnorm_wordpool_less_exclusions.txt	LTP219	ltpFR	4	16	n/a	<>	-1	n/a	n/a	n/a	n/a	n/a	n/a	n/a
3013.712	n/a	REC_WORD	1506856	wordpools/wasnorm_wordpool_less_exclusions.txt	LTP219	ltpFR	4	16	1	CONTRACTOR	369	n/a	1	n/a	n/a	n/a	n/a	n/a
3015.034	n/a	REC_WORD	1507517	wordpools/wasnorm_wordpool_less_exclusions.txt	LTP219	ltpFR	4	16	1	CLERK	321	n/a	1	n/a	n/a	n/a	n/a	n/a
3016.052	n/a	REC_WORD_VV	1508026	wordpools/wasnorm_wordpool_less_exclusions.txt	LTP219	ltpFR	4	16	n/a	<>	-1	n/a	n/a	n/a	n/a	n/a	n/a	n/a
3021.854	n/a	REC_WORD	1510927	wordpools/wasnorm_wordpool_less_exclusions.txt	LTP219	ltpFR	4	16	1	CONTRACTOR	369	n/a	1	n/a	n/a	n/a	n/a	n/a
3024.942	n/a	REC_WORD	1512471	wordpools/wasnorm_wordpool_less_exclusions.txt	LTP219	ltpFR	4	16	1	CLERK	321	n/a	1	n/a	n/a	n/a	n/a	n/a
3025.944	n/a	REC_WORD_VV	1512972	wordpools/wasnorm_wordpool_less_exclusions.txt	LTP219	ltpFR	4	16	n/a	<>	-1	n/a	n/a	n/a	n/a	n/a	n/a	n/a
3028.39	n/a	REC_WORD_VV	1514195	wordpools/wasnorm_wordpool_less_exclusions.txt	LTP219	ltpFR	4	16	n/a	<>	-1	n/a	n/a	n/a	n/a	n/a	n/a	n/a
3031.956	n/a	REC_WORD_VV	1515978	wordpools/wasnorm_wordpool_less_exclusions.txt	LTP219	ltpFR	4	16	n/a	<>	-1	n/a	n/a	n/a	n/a	n/a	n/a	n/a
3032.954	n/a	REC_WORD_VV	1516477	wordpools/wasnorm_wordpool_less_exclusions.txt	LTP219	ltpFR	4	16	n/a	<>	-1	n/a	n/a	n/a	n/a	n/a	n/a	n/a
3117.956	n/a	REC_START	1558978	n/a	LTP219	ltpFR	4	n/a	n/a	n/a	n/a	n/a	n/a	n/a	n/a	n/a	n/a	n/a
3118.95	n/a	FFR_REC_WORD	1559475	wordpools/wasnorm_wordpool_less_exclusions.txt	LTP219	ltpFR	4	n/a	-1	THORN	1459	n/a	-1	n/a	n/a	n/a	n/a	n/a
3120.386	n/a	FFR_REC_WORD	1560193	wordpools/wasnorm_wordpool_less_exclusions.txt	LTP219	ltpFR	4	n/a	0	KEG	770	n/a	0	n/a	n/a	n/a	n/a	n/a
3121.642	n/a	FFR_REC_WORD	1560821	wordpools/wasnorm_wordpool_less_exclusions.txt	LTP219	ltpFR	4	n/a	0	LUMBER	848	n/a	1	n/a	n/a	n/a	n/a	n/a
3122.73	n/a	FFR_REC_WORD	1561365	wordpools/wasnorm_wordpool_less_exclusions.txt	LTP219	ltpFR	4	n/a	0	TWIG	1527	n/a	0	n/a	n/a	n/a	n/a	n/a
3124.202	n/a	FFR_REC_WORD	1562101	wordpools/wasnorm_wordpool_less_exclusions.txt	LTP219	ltpFR	4	n/a	0	KEG	770	n/a	0	n/a	n/a	n/a	n/a	n/a
3125.71	n/a	FFR_REC_WORD	1562855	wordpools/wasnorm_wordpool_less_exclusions.txt	LTP219	ltpFR	4	n/a	-1	FOX	598	n/a	-1	n/a	n/a	n/a	n/a	n/a
3126.86	n/a	FFR_REC_WORD	1563430	wordpools/wasnorm_wordpool_less_exclusions.txt	LTP219	ltpFR	4	n/a	-1	FUR	615	n/a	-1	n/a	n/a	n/a	n/a	n/a
3128.872	n/a	FFR_REC_WORD	1564436	wordpools/wasnorm_wordpool_less_exclusions.txt	LTP219	ltpFR	4	n/a	1	EMPEROR	529	n/a	0	n/a	n/a	n/a	n/a	n/a
3130.658	n/a	FFR_REC_WORD	1565329	wordpools/wasnorm_wordpool_less_exclusions.txt	LTP219	ltpFR	4	n/a	0	EMPLOYEE	531	n/a	0	n/a	n/a	n/a	n/a	n/a
3131.668	n/a	FFR_REC_WORD_VV	1565834	wordpools/wasnorm_wordpool_less_exclusions.txt	LTP219	ltpFR	4	n/a	n/a	<>	-1	n/a	n/a	n/a	n/a	n/a	n/a	n/a
3132.972	n/a	FFR_REC_WORD	1566486	wordpools/wasnorm_wordpool_less_exclusions.txt	LTP219	ltpFR	4	n/a	0	MAN	862	n/a	0	n/a	n/a	n/a	n/a	n/a
3134.558	n/a	FFR_REC_WORD	1567279	wordpools/wasnorm_wordpool_less_exclusions.txt	LTP219	ltpFR	4	n/a	-1	ARCHITECT	36	n/a	-1	n/a	n/a	n/a	n/a	n/a
3135.548	n/a	FFR_REC_WORD_VV	1567774	wordpools/wasnorm_wordpool_less_exclusions.txt	LTP219	ltpFR	4	n/a	n/a	<>	-1	n/a	n/a	n/a	n/a	n/a	n/a	n/a
3136.3	n/a	FFR_REC_WORD	1568150	wordpools/wasnorm_wordpool_less_exclusions.txt	LTP219	ltpFR	4	n/a	-1	SWING	1421	n/a	-1	n/a	n/a	n/a	n/a	n/a
