onset	duration	trial_type	sample	stim_file	subject	experiment	session	trial	item_name	item_num	list	answer	test_x	test_y	test_z
226.97412109375	n/a	SESS_START	464843	n/a	LTP386	ltpFR2	5	n/a	n/a	n/a	n/a	n/a	0	0	0
240.0927734375	n/a	START	491710	n/a	LTP386	ltpFR2	5	n/a	n/a	n/a	-1	n/a	n/a	n/a	n/a
240.10693359375	n/a	PROB	491739	n/a	LTP386	ltpFR2	5	n/a	n/a	n/a	-1	14	4	6	4
241.841796875	n/a	PROB	495292	n/a	LTP386	ltpFR2	5	n/a	n/a	n/a	-1	10	1	5	4
243.3076171875	n/a	PROB	498294	n/a	LTP386	ltpFR2	5	n/a	n/a	n/a	-1	19	2	9	8
245.7578125	n/a	PROB	503312	n/a	LTP386	ltpFR2	5	n/a	n/a	n/a	-1	20	9	4	7
247.2578125	n/a	PROB	506384	n/a	LTP386	ltpFR2	5	n/a	n/a	n/a	-1	27	9	9	9
252.09130859375	n/a	STOP	516283	n/a	LTP386	ltpFR2	5	n/a	n/a	n/a	-1	n/a	n/a	n/a	n/a
285.58935546875	n/a	WORD	584887	wordpools/wasnorm_wordpool_576.txt	LTP386	ltpFR2	5	1	SUPPER	1411	n/a	n/a	0	0	0
288.322265625	n/a	WORD	590484	wordpools/wasnorm_wordpool_576.txt	LTP386	ltpFR2	5	1	COUCH	386	n/a	n/a	0	0	0
291.1044921875	n/a	WORD	596182	wordpools/wasnorm_wordpool_576.txt	LTP386	ltpFR2	5	1	MOP	916	n/a	n/a	0	0	0
293.55517578125	n/a	WORD	601201	wordpools/wasnorm_wordpool_576.txt	LTP386	ltpFR2	5	1	SMOG	1330	n/a	n/a	0	0	0
296.30517578125	n/a	WORD	606833	wordpools/wasnorm_wordpool_576.txt	LTP386	ltpFR2	5	1	CLOUD	328	n/a	n/a	0	0	0
299.0380859375	n/a	WORD	612430	wordpools/wasnorm_wordpool_576.txt	LTP386	ltpFR2	5	1	UMPIRE	1535	n/a	n/a	0	0	0
301.5390625	n/a	WORD	617552	wordpools/wasnorm_wordpool_576.txt	LTP386	ltpFR2	5	1	PADDLE	1000	n/a	n/a	0	0	0
304.30517578125	n/a	WORD	623217	wordpools/wasnorm_wordpool_576.txt	LTP386	ltpFR2	5	1	RUG	1215	n/a	n/a	0	0	0
307.02099609375	n/a	WORD	628779	wordpools/wasnorm_wordpool_576.txt	LTP386	ltpFR2	5	1	HEDGE	699	n/a	n/a	0	0	0
309.45458984375	n/a	WORD	633763	wordpools/wasnorm_wordpool_576.txt	LTP386	ltpFR2	5	1	COMET	353	n/a	n/a	0	0	0
312.23779296875	n/a	WORD	639463	wordpools/wasnorm_wordpool_576.txt	LTP386	ltpFR2	5	1	BUTCHER	203	n/a	n/a	0	0	0
315.00341796875	n/a	WORD	645127	wordpools/wasnorm_wordpool_576.txt	LTP386	ltpFR2	5	1	KETCHUP	771	n/a	n/a	0	0	0
317.6044921875	n/a	WORD	650454	wordpools/wasnorm_wordpool_576.txt	LTP386	ltpFR2	5	1	PICNIC	1060	n/a	n/a	0	0	0
320.17041015625	n/a	WORD	655709	wordpools/wasnorm_wordpool_576.txt	LTP386	ltpFR2	5	1	EAGLE	512	n/a	n/a	0	0	0
322.62158203125	n/a	WORD	660729	wordpools/wasnorm_wordpool_576.txt	LTP386	ltpFR2	5	1	SILK	1307	n/a	n/a	0	0	0
325.2373046875	n/a	WORD	666086	wordpools/wasnorm_wordpool_576.txt	LTP386	ltpFR2	5	1	BABY	64	n/a	n/a	0	0	0
328.05322265625	n/a	WORD	671853	wordpools/wasnorm_wordpool_576.txt	LTP386	ltpFR2	5	1	CRIB	407	n/a	n/a	0	0	0
330.52001953125	n/a	WORD	676905	wordpools/wasnorm_wordpool_576.txt	LTP386	ltpFR2	5	1	SPACE	1345	n/a	n/a	0	0	0
333.287109375	n/a	WORD	682572	wordpools/wasnorm_wordpool_576.txt	LTP386	ltpFR2	5	1	GIRL	637	n/a	n/a	0	0	0
335.90380859375	n/a	WORD	687931	wordpools/wasnorm_wordpool_576.txt	LTP386	ltpFR2	5	1	TUTU	1524	n/a	n/a	0	0	0
338.6201171875	n/a	WORD	693494	wordpools/wasnorm_wordpool_576.txt	LTP386	ltpFR2	5	1	SKIRT	1319	n/a	n/a	0	0	0
341.3037109375	n/a	WORD	698990	wordpools/wasnorm_wordpool_576.txt	LTP386	ltpFR2	5	1	LIVER	833	n/a	n/a	0	0	0
344.03564453125	n/a	WORD	704585	wordpools/wasnorm_wordpool_576.txt	LTP386	ltpFR2	5	1	CATCHER	258	n/a	n/a	0	0	0
346.70361328125	n/a	WORD	710049	wordpools/wasnorm_wordpool_576.txt	LTP386	ltpFR2	5	1	HORSE	719	n/a	n/a	0	0	0
348.31982421875	n/a	START	713359	n/a	LTP386	ltpFR2	5	n/a	n/a	n/a	1	n/a	n/a	n/a	n/a
349.361328125	n/a	DISTRACTOR	715492	n/a	LTP386	ltpFR2	5	1	n/a	n/a	n/a	n/a	0	0	0
349.36962890625	n/a	PROB	715509	n/a	LTP386	ltpFR2	5	n/a	n/a	n/a	1	18	2	9	7
352.4033203125	n/a	PROB	721722	n/a	LTP386	ltpFR2	5	n/a	n/a	n/a	1	11	3	4	4
354.03564453125	n/a	PROB	725065	n/a	LTP386	ltpFR2	5	n/a	n/a	n/a	1	11	5	1	5
355.4521484375	n/a	PROB	727966	n/a	LTP386	ltpFR2	5	n/a	n/a	n/a	1	16	7	9	9
357.26953125	n/a	PROB	731688	n/a	LTP386	ltpFR2	5	n/a	n/a	n/a	1	18	9	3	6
360.1181640625	n/a	PROB	737522	n/a	LTP386	ltpFR2	5	n/a	n/a	n/a	1	12	4	7	1
362.03515625	n/a	PROB	741448	n/a	LTP386	ltpFR2	5	n/a	n/a	n/a	1	11	3	3	5
363.35205078125	n/a	PROB	744145	n/a	LTP386	ltpFR2	5	n/a	n/a	n/a	1	6	1	3	2
364.7021484375	n/a	PROB	746910	n/a	LTP386	ltpFR2	5	n/a	n/a	n/a	1	18	3	6	9
366.23583984375	n/a	PROB	750051	n/a	LTP386	ltpFR2	5	n/a	n/a	n/a	1	15	6	5	4
367.951171875	n/a	PROB	753564	n/a	LTP386	ltpFR2	5	n/a	n/a	n/a	1	17	6	9	2
369.5849609375	n/a	PROB	756910	n/a	LTP386	ltpFR2	5	n/a	n/a	n/a	1	11	5	4	2
370.98974609375	n/a	STOP	759787	n/a	LTP386	ltpFR2	5	n/a	n/a	n/a	1	n/a	n/a	n/a	n/a
374.15185546875	n/a	REC_START	766263	n/a	LTP386	ltpFR2	5	1	n/a	n/a	n/a	n/a	0	0	0
375.27587890625	n/a	REC_WORD	768565	wordpools/wasnorm_wordpool_576.txt	LTP386	ltpFR2	5	1	COUCH	386	n/a	n/a	0	0	0
376.02587890625	n/a	REC_WORD	770101	wordpools/wasnorm_wordpool_576.txt	LTP386	ltpFR2	5	1	SUPPER	1411	n/a	n/a	0	0	0
377.11669921875	n/a	REC_WORD	772335	wordpools/wasnorm_wordpool_576.txt	LTP386	ltpFR2	5	1	RUG	1215	n/a	n/a	0	0	0
377.88671875	n/a	REC_WORD	773912	wordpools/wasnorm_wordpool_576.txt	LTP386	ltpFR2	5	1	MOP	916	n/a	n/a	0	0	0
378.73974609375	n/a	REC_WORD	775659	wordpools/wasnorm_wordpool_576.txt	LTP386	ltpFR2	5	1	KETCHUP	771	n/a	n/a	0	0	0
379.45849609375	n/a	REC_WORD	777131	wordpools/wasnorm_wordpool_576.txt	LTP386	ltpFR2	5	1	BUTCHER	203	n/a	n/a	0	0	0
380.6044921875	n/a	REC_WORD	779478	wordpools/wasnorm_wordpool_576.txt	LTP386	ltpFR2	5	1	GIRL	637	n/a	n/a	0	0	0
382.86865234375	n/a	REC_WORD	784115	wordpools/wasnorm_wordpool_576.txt	LTP386	ltpFR2	5	1	UMPIRE	1535	n/a	n/a	0	0	0
384.0556640625	n/a	REC_WORD	786546	wordpools/wasnorm_wordpool_576.txt	LTP386	ltpFR2	5	1	HORSE	719	n/a	n/a	0	0	0
385.275390625	n/a	REC_WORD	789044	wordpools/wasnorm_wordpool_576.txt	LTP386	ltpFR2	5	1	COMET	353	n/a	n/a	0	0	0
394.42919921875	n/a	REC_WORD	807791	wordpools/wasnorm_wordpool_576.txt	LTP386	ltpFR2	5	1	SMOG	1330	n/a	n/a	0	0	0
395.59228515625	n/a	REC_WORD	810173	wordpools/wasnorm_wordpool_576.txt	LTP386	ltpFR2	5	1	CLOUD	328	n/a	n/a	0	0	0
407.91162109375	n/a	REC_WORD	835403	wordpools/wasnorm_wordpool_576.txt	LTP386	ltpFR2	5	1	BABY	64	n/a	n/a	0	0	0
408.69189453125	n/a	REC_WORD	837001	wordpools/wasnorm_wordpool_576.txt	LTP386	ltpFR2	5	1	CRIB	407	n/a	n/a	0	0	0
409.66455078125	n/a	REC_WORD	838993	wordpools/wasnorm_wordpool_576.txt	LTP386	ltpFR2	5	1	TUTU	1524	n/a	n/a	0	0	0
410.4736328125	n/a	REC_WORD	840650	wordpools/wasnorm_wordpool_576.txt	LTP386	ltpFR2	5	1	SKIRT	1319	n/a	n/a	0	0	0
464.56396484375	n/a	DISTRACTOR	951427	n/a	LTP386	ltpFR2	5	2	n/a	n/a	n/a	n/a	0	0	0
464.56396484375	n/a	START	951427	n/a	LTP386	ltpFR2	5	n/a	n/a	n/a	2	n/a	n/a	n/a	n/a
464.5810546875	n/a	PROB	951462	n/a	LTP386	ltpFR2	5	n/a	n/a	n/a	2	13	3	8	3
466.212890625	n/a	PROB	954804	n/a	LTP386	ltpFR2	5	n/a	n/a	n/a	2	14	1	4	9
467.73095703125	n/a	PROB	957913	n/a	LTP386	ltpFR2	5	n/a	n/a	n/a	2	10	2	6	2
469.8466796875	n/a	PROB	962246	n/a	LTP386	ltpFR2	5	n/a	n/a	n/a	2	13	5	6	2
471.94677734375	n/a	PROB	966547	n/a	LTP386	ltpFR2	5	n/a	n/a	n/a	2	9	1	2	6
473.4306640625	n/a	PROB	969586	n/a	LTP386	ltpFR2	5	n/a	n/a	n/a	2	13	7	4	2
474.6806640625	n/a	PROB	972146	n/a	LTP386	ltpFR2	5	n/a	n/a	n/a	2	23	7	8	7
476.78076171875	n/a	PROB	976447	n/a	LTP386	ltpFR2	5	n/a	n/a	n/a	2	13	1	6	6
478.36376953125	n/a	PROB	979689	n/a	LTP386	ltpFR2	5	n/a	n/a	n/a	2	23	7	7	9
480.79638671875	n/a	PROB	984671	n/a	LTP386	ltpFR2	5	n/a	n/a	n/a	2	16	1	8	7
483.8466796875	n/a	PROB	990918	n/a	LTP386	ltpFR2	5	n/a	n/a	n/a	2	1	7	7	3
485.33056640625	n/a	PROB	993957	n/a	LTP386	ltpFR2	5	n/a	n/a	n/a	2	14	5	4	5
487.12646484375	n/a	STOP	997635	n/a	LTP386	ltpFR2	5	n/a	n/a	n/a	2	n/a	n/a	n/a	n/a
489.4130859375	n/a	WORD	1002318	wordpools/wasnorm_wordpool_576.txt	LTP386	ltpFR2	5	2	VALVE	1546	n/a	n/a	0	0	0
492.1123046875	n/a	WORD	1007846	wordpools/wasnorm_wordpool_576.txt	LTP386	ltpFR2	5	2	DONOR	485	n/a	n/a	0	0	0
494.81298828125	n/a	WORD	1013377	wordpools/wasnorm_wordpool_576.txt	LTP386	ltpFR2	5	2	CONCERT	360	n/a	n/a	0	0	0
497.59619140625	n/a	WORD	1019077	wordpools/wasnorm_wordpool_576.txt	LTP386	ltpFR2	5	2	CITRUS	313	n/a	n/a	0	0	0
500.37890625	n/a	WORD	1024776	wordpools/wasnorm_wordpool_576.txt	LTP386	ltpFR2	5	2	GROUND	666	n/a	n/a	0	0	0
503.14501953125	n/a	WORD	1030441	wordpools/wasnorm_wordpool_576.txt	LTP386	ltpFR2	5	2	BULLET	194	n/a	n/a	0	0	0
505.81298828125	n/a	WORD	1035905	wordpools/wasnorm_wordpool_576.txt	LTP386	ltpFR2	5	2	SPHINX	1349	n/a	n/a	0	0	0
508.478515625	n/a	WORD	1041364	wordpools/wasnorm_wordpool_576.txt	LTP386	ltpFR2	5	2	EGYPT	519	n/a	n/a	0	0	0
511.12744140625	n/a	WORD	1046789	wordpools/wasnorm_wordpool_576.txt	LTP386	ltpFR2	5	2	PAPER	1011	n/a	n/a	0	0	0
513.57861328125	n/a	WORD	1051809	wordpools/wasnorm_wordpool_576.txt	LTP386	ltpFR2	5	2	TABLET	1427	n/a	n/a	0	0	0
516.37841796875	n/a	WORD	1057543	wordpools/wasnorm_wordpool_576.txt	LTP386	ltpFR2	5	2	JUNGLE	764	n/a	n/a	0	0	0
518.91162109375	n/a	WORD	1062731	wordpools/wasnorm_wordpool_576.txt	LTP386	ltpFR2	5	2	JAPAN	749	n/a	n/a	0	0	0
521.6611328125	n/a	WORD	1068362	wordpools/wasnorm_wordpool_576.txt	LTP386	ltpFR2	5	2	GIFT	635	n/a	n/a	0	0	0
524.16015625	n/a	WORD	1073480	wordpools/wasnorm_wordpool_576.txt	LTP386	ltpFR2	5	2	AGENT	10	n/a	n/a	0	0	0
526.84423828125	n/a	WORD	1078977	wordpools/wasnorm_wordpool_576.txt	LTP386	ltpFR2	5	2	SHELTER	1282	n/a	n/a	0	0	0
529.39404296875	n/a	WORD	1084199	wordpools/wasnorm_wordpool_576.txt	LTP386	ltpFR2	5	2	OMELET	976	n/a	n/a	0	0	0
532.19287109375	n/a	WORD	1089931	wordpools/wasnorm_wordpool_576.txt	LTP386	ltpFR2	5	2	BANJO	82	n/a	n/a	0	0	0
534.72802734375	n/a	WORD	1095123	wordpools/wasnorm_wordpool_576.txt	LTP386	ltpFR2	5	2	THIEF	1456	n/a	n/a	0	0	0
537.49365234375	n/a	WORD	1100787	wordpools/wasnorm_wordpool_576.txt	LTP386	ltpFR2	5	2	STAR	1373	n/a	n/a	0	0	0
540.0927734375	n/a	WORD	1106110	wordpools/wasnorm_wordpool_576.txt	LTP386	ltpFR2	5	2	GUARD	667	n/a	n/a	0	0	0
542.52783203125	n/a	WORD	1111097	wordpools/wasnorm_wordpool_576.txt	LTP386	ltpFR2	5	2	BACON	67	n/a	n/a	0	0	0
545.0927734375	n/a	WORD	1116350	wordpools/wasnorm_wordpool_576.txt	LTP386	ltpFR2	5	2	FEMALE	559	n/a	n/a	0	0	0
547.693359375	n/a	WORD	1121676	wordpools/wasnorm_wordpool_576.txt	LTP386	ltpFR2	5	2	PLAID	1080	n/a	n/a	0	0	0
550.2763671875	n/a	WORD	1126966	wordpools/wasnorm_wordpool_576.txt	LTP386	ltpFR2	5	2	SHERIFF	1284	n/a	n/a	0	0	0
551.8935546875	n/a	START	1130278	n/a	LTP386	ltpFR2	5	n/a	n/a	n/a	3	n/a	n/a	n/a	n/a
552.904296875	n/a	DISTRACTOR	1132348	n/a	LTP386	ltpFR2	5	2	n/a	n/a	n/a	n/a	0	0	0
552.91015625	n/a	PROB	1132360	n/a	LTP386	ltpFR2	5	n/a	n/a	n/a	3	18	5	6	7
554.79345703125	n/a	PROB	1136217	n/a	LTP386	ltpFR2	5	n/a	n/a	n/a	3	21	6	7	8
556.89306640625	n/a	PROB	1140517	n/a	LTP386	ltpFR2	5	n/a	n/a	n/a	3	17	4	4	9
558.84326171875	n/a	PROB	1144511	n/a	LTP386	ltpFR2	5	n/a	n/a	n/a	3	13	8	1	4
560.14208984375	n/a	PROB	1147171	n/a	LTP386	ltpFR2	5	n/a	n/a	n/a	3	10	6	3	1
561.576171875	n/a	PROB	1150108	n/a	LTP386	ltpFR2	5	n/a	n/a	n/a	3	9	3	2	4
563.69287109375	n/a	PROB	1154443	n/a	LTP386	ltpFR2	5	n/a	n/a	n/a	3	16	5	6	5
565.2431640625	n/a	PROB	1157618	n/a	LTP386	ltpFR2	5	n/a	n/a	n/a	3	19	8	9	2
567.52587890625	n/a	PROB	1162293	n/a	LTP386	ltpFR2	5	n/a	n/a	n/a	3	4	2	1	1
568.69287109375	n/a	PROB	1164683	n/a	LTP386	ltpFR2	5	n/a	n/a	n/a	3	19	5	7	7
570.6259765625	n/a	PROB	1168642	n/a	LTP386	ltpFR2	5	n/a	n/a	n/a	3	10	3	3	4
572.2080078125	n/a	PROB	1171882	n/a	LTP386	ltpFR2	5	n/a	n/a	n/a	3	3	1	1	1
573.27587890625	n/a	PROB	1174069	n/a	LTP386	ltpFR2	5	n/a	n/a	n/a	3	15	8	1	6
574.6865234375	n/a	STOP	1176958	n/a	LTP386	ltpFR2	5	n/a	n/a	n/a	3	n/a	n/a	n/a	n/a
577.79248046875	n/a	REC_START	1183319	n/a	LTP386	ltpFR2	5	2	n/a	n/a	n/a	n/a	0	0	0
580.185546875	n/a	REC_WORD	1188220	wordpools/wasnorm_wordpool_576.txt	LTP386	ltpFR2	5	2	SHERIFF	1284	n/a	n/a	0	0	0
587.732421875	n/a	REC_WORD	1203676	wordpools/wasnorm_wordpool_576.txt	LTP386	ltpFR2	5	2	DONOR	485	n/a	n/a	0	0	0
588.62939453125	n/a	REC_WORD	1205513	wordpools/wasnorm_wordpool_576.txt	LTP386	ltpFR2	5	2	VALVE	1546	n/a	n/a	0	0	0
595.31787109375	n/a	REC_WORD	1219211	wordpools/wasnorm_wordpool_576.txt	LTP386	ltpFR2	5	2	BACON	67	n/a	n/a	0	0	0
597.19189453125	n/a	REC_WORD	1223049	wordpools/wasnorm_wordpool_576.txt	LTP386	ltpFR2	5	2	CITRUS	313	n/a	n/a	0	0	0
649.58544921875	n/a	REC_WORD	1330351	wordpools/wasnorm_wordpool_576.txt	LTP386	ltpFR2	5	2	SPHINX	1349	n/a	n/a	0	0	0
650.33251953125	n/a	REC_WORD	1331881	wordpools/wasnorm_wordpool_576.txt	LTP386	ltpFR2	5	2	EGYPT	519	n/a	n/a	0	0	0
651.0615234375	n/a	REC_WORD	1333374	wordpools/wasnorm_wordpool_576.txt	LTP386	ltpFR2	5	2	JUNGLE	764	n/a	n/a	0	0	0
651.8115234375	n/a	REC_WORD	1334910	wordpools/wasnorm_wordpool_576.txt	LTP386	ltpFR2	5	2	JAPAN	749	n/a	n/a	0	0	0
668.23779296875	n/a	DISTRACTOR	1368551	n/a	LTP386	ltpFR2	5	3	n/a	n/a	n/a	n/a	0	0	0
668.23779296875	n/a	START	1368551	n/a	LTP386	ltpFR2	5	n/a	n/a	n/a	4	n/a	n/a	n/a	n/a
668.2548828125	n/a	PROB	1368586	n/a	LTP386	ltpFR2	5	n/a	n/a	n/a	4	18	6	9	3
671.48779296875	n/a	PROB	1375207	n/a	LTP386	ltpFR2	5	n/a	n/a	n/a	4	22	9	8	5
674.8544921875	n/a	PROB	1382102	n/a	LTP386	ltpFR2	5	n/a	n/a	n/a	4	13	7	1	5
676.40478515625	n/a	PROB	1385277	n/a	LTP386	ltpFR2	5	n/a	n/a	n/a	4	9	3	4	2
678.70458984375	n/a	PROB	1389987	n/a	LTP386	ltpFR2	5	n/a	n/a	n/a	4	19	3	8	8
680.4375	n/a	PROB	1393536	n/a	LTP386	ltpFR2	5	n/a	n/a	n/a	4	12	6	4	2
682.6044921875	n/a	PROB	1397974	n/a	LTP386	ltpFR2	5	n/a	n/a	n/a	4	13	6	4	3
683.654296875	n/a	PROB	1400124	n/a	LTP386	ltpFR2	5	n/a	n/a	n/a	4	19	4	7	8
685.45458984375	n/a	PROB	1403811	n/a	LTP386	ltpFR2	5	n/a	n/a	n/a	4	20	8	6	6
686.8203125	n/a	PROB	1406608	n/a	LTP386	ltpFR2	5	n/a	n/a	n/a	4	21	6	7	8
688.537109375	n/a	PROB	1410124	n/a	LTP386	ltpFR2	5	n/a	n/a	n/a	4	10	4	2	4
692.236328125	n/a	STOP	1417700	n/a	LTP386	ltpFR2	5	n/a	n/a	n/a	4	n/a	n/a	n/a	n/a
693.4033203125	n/a	WORD	1420090	wordpools/wasnorm_wordpool_576.txt	LTP386	ltpFR2	5	3	CHEMIST	292	n/a	n/a	0	0	0
695.93603515625	n/a	WORD	1425277	wordpools/wasnorm_wordpool_576.txt	LTP386	ltpFR2	5	3	MOTOR	922	n/a	n/a	0	0	0
698.40283203125	n/a	WORD	1430329	wordpools/wasnorm_wordpool_576.txt	LTP386	ltpFR2	5	3	MUSTARD	935	n/a	n/a	0	0	0
701.001953125	n/a	WORD	1435652	wordpools/wasnorm_wordpool_576.txt	LTP386	ltpFR2	5	3	CLIMBER	323	n/a	n/a	0	0	0
703.68701171875	n/a	WORD	1441151	wordpools/wasnorm_wordpool_576.txt	LTP386	ltpFR2	5	3	COUSIN	392	n/a	n/a	0	0	0
706.5029296875	n/a	WORD	1446918	wordpools/wasnorm_wordpool_576.txt	LTP386	ltpFR2	5	3	ROOSTER	1209	n/a	n/a	0	0	0
709.185546875	n/a	WORD	1452412	wordpools/wasnorm_wordpool_576.txt	LTP386	ltpFR2	5	3	TWEEZERS	1526	n/a	n/a	0	0	0
711.88671875	n/a	WORD	1457944	wordpools/wasnorm_wordpool_576.txt	LTP386	ltpFR2	5	3	SCALLOP	1242	n/a	n/a	0	0	0
714.3193359375	n/a	WORD	1462926	wordpools/wasnorm_wordpool_576.txt	LTP386	ltpFR2	5	3	SALMON	1227	n/a	n/a	0	0	0
717.08447265625	n/a	WORD	1468589	wordpools/wasnorm_wordpool_576.txt	LTP386	ltpFR2	5	3	BRANCH	168	n/a	n/a	0	0	0
719.71923828125	n/a	WORD	1473985	wordpools/wasnorm_wordpool_576.txt	LTP386	ltpFR2	5	3	WHISKERS	1605	n/a	n/a	0	0	0
722.4853515625	n/a	WORD	1479650	wordpools/wasnorm_wordpool_576.txt	LTP386	ltpFR2	5	3	BALLOON	75	n/a	n/a	0	0	0
724.9189453125	n/a	WORD	1484634	wordpools/wasnorm_wordpool_576.txt	LTP386	ltpFR2	5	3	DRESSER	496	n/a	n/a	0	0	0
727.55224609375	n/a	WORD	1490027	wordpools/wasnorm_wordpool_576.txt	LTP386	ltpFR2	5	3	NOTEBOOK	959	n/a	n/a	0	0	0
730.35205078125	n/a	WORD	1495761	wordpools/wasnorm_wordpool_576.txt	LTP386	ltpFR2	5	3	COOKBOOK	373	n/a	n/a	0	0	0
732.8349609375	n/a	WORD	1500846	wordpools/wasnorm_wordpool_576.txt	LTP386	ltpFR2	5	3	OZONE	996	n/a	n/a	0	0	0
735.384765625	n/a	WORD	1506068	wordpools/wasnorm_wordpool_576.txt	LTP386	ltpFR2	5	3	STONE	1385	n/a	n/a	0	0	0
738.0009765625	n/a	WORD	1511426	wordpools/wasnorm_wordpool_576.txt	LTP386	ltpFR2	5	3	SPOUSE	1358	n/a	n/a	0	0	0
740.61767578125	n/a	WORD	1516785	wordpools/wasnorm_wordpool_576.txt	LTP386	ltpFR2	5	3	DASHBOARD	441	n/a	n/a	0	0	0
743.41748046875	n/a	WORD	1522519	wordpools/wasnorm_wordpool_576.txt	LTP386	ltpFR2	5	3	MARKET	871	n/a	n/a	0	0	0
745.9013671875	n/a	WORD	1527606	wordpools/wasnorm_wordpool_576.txt	LTP386	ltpFR2	5	3	GLOBE	641	n/a	n/a	0	0	0
748.63427734375	n/a	WORD	1533203	wordpools/wasnorm_wordpool_576.txt	LTP386	ltpFR2	5	3	ATLAS	53	n/a	n/a	0	0	0
751.1005859375	n/a	WORD	1538254	wordpools/wasnorm_wordpool_576.txt	LTP386	ltpFR2	5	3	SWORD	1423	n/a	n/a	0	0	0
753.68408203125	n/a	WORD	1543545	wordpools/wasnorm_wordpool_576.txt	LTP386	ltpFR2	5	3	HERO	706	n/a	n/a	0	0	0
755.30126953125	n/a	START	1546857	n/a	LTP386	ltpFR2	5	n/a	n/a	n/a	5	n/a	n/a	n/a	n/a
756.2490234375	n/a	DISTRACTOR	1548798	n/a	LTP386	ltpFR2	5	3	n/a	n/a	n/a	n/a	0	0	0
756.26708984375	n/a	PROB	1548835	n/a	LTP386	ltpFR2	5	n/a	n/a	n/a	5	12	7	4	1
757.63427734375	n/a	PROB	1551635	n/a	LTP386	ltpFR2	5	n/a	n/a	n/a	5	17	6	8	3
760.35009765625	n/a	PROB	1557197	n/a	LTP386	ltpFR2	5	n/a	n/a	n/a	5	24	9	7	8
762.2841796875	n/a	PROB	1561158	n/a	LTP386	ltpFR2	5	n/a	n/a	n/a	5	9	2	2	5
763.98291015625	n/a	PROB	1564637	n/a	LTP386	ltpFR2	5	n/a	n/a	n/a	5	13	3	8	2
765.18310546875	n/a	PROB	1567095	n/a	LTP386	ltpFR2	5	n/a	n/a	n/a	5	18	8	3	7
767.56689453125	n/a	PROB	1571977	n/a	LTP386	ltpFR2	5	n/a	n/a	n/a	5	18	6	4	8
768.78369140625	n/a	PROB	1574469	n/a	LTP386	ltpFR2	5	n/a	n/a	n/a	5	12	3	8	1
770.75	n/a	PROB	1578496	n/a	LTP386	ltpFR2	5	n/a	n/a	n/a	5	19	8	3	8
772.91650390625	n/a	PROB	1582933	n/a	LTP386	ltpFR2	5	n/a	n/a	n/a	5	11	3	6	2
774.86669921875	n/a	PROB	1586927	n/a	LTP386	ltpFR2	5	n/a	n/a	n/a	5	20	2	7	9
776.5166015625	n/a	PROB	1590306	n/a	LTP386	ltpFR2	5	n/a	n/a	n/a	5	11	8	2	1
777.775390625	n/a	STOP	1592884	n/a	LTP386	ltpFR2	5	n/a	n/a	n/a	5	n/a	n/a	n/a	n/a
781.1982421875	n/a	REC_START	1599894	n/a	LTP386	ltpFR2	5	3	n/a	n/a	n/a	n/a	0	0	0
782.64453125	n/a	REC_WORD	1602856	wordpools/wasnorm_wordpool_576.txt	LTP386	ltpFR2	5	3	SCALLOP	1242	n/a	n/a	0	0	0
784.00244140625	n/a	REC_WORD	1605637	wordpools/wasnorm_wordpool_576.txt	LTP386	ltpFR2	5	3	SALMON	1227	n/a	n/a	0	0	0
785.58935546875	n/a	REC_WORD	1608887	wordpools/wasnorm_wordpool_576.txt	LTP386	ltpFR2	5	3	BRANCH	168	n/a	n/a	0	0	0
787.7333984375	n/a	REC_WORD	1613278	wordpools/wasnorm_wordpool_576.txt	LTP386	ltpFR2	5	3	ATLAS	53	n/a	n/a	0	0	0
788.7041015625	n/a	REC_WORD	1615266	wordpools/wasnorm_wordpool_576.txt	LTP386	ltpFR2	5	3	GLOBE	641	n/a	n/a	0	0	0
789.67041015625	n/a	REC_WORD	1617245	wordpools/wasnorm_wordpool_576.txt	LTP386	ltpFR2	5	3	MARKET	871	n/a	n/a	0	0	0
790.8359375	n/a	REC_WORD	1619632	wordpools/wasnorm_wordpool_576.txt	LTP386	ltpFR2	5	3	SWORD	1423	n/a	n/a	0	0	0
791.5673828125	n/a	REC_WORD	1621130	wordpools/wasnorm_wordpool_576.txt	LTP386	ltpFR2	5	3	STONE	1385	n/a	n/a	0	0	0
792.4931640625	n/a	REC_WORD	1623026	wordpools/wasnorm_wordpool_576.txt	LTP386	ltpFR2	5	3	HERO	706	n/a	n/a	0	0	0
871.66162109375	n/a	WORD	1785163	wordpools/wasnorm_wordpool_576.txt	LTP386	ltpFR2	5	4	SHORTS	1293	n/a	n/a	0	0	0
874.16064453125	n/a	WORD	1790281	wordpools/wasnorm_wordpool_576.txt	LTP386	ltpFR2	5	4	STICKER	1382	n/a	n/a	0	0	0
876.91162109375	n/a	WORD	1795915	wordpools/wasnorm_wordpool_576.txt	LTP386	ltpFR2	5	4	WRENCH	1625	n/a	n/a	0	0	0
879.51123046875	n/a	WORD	1801239	wordpools/wasnorm_wordpool_576.txt	LTP386	ltpFR2	5	4	MONEY	908	n/a	n/a	0	0	0
882.21044921875	n/a	WORD	1806767	wordpools/wasnorm_wordpool_576.txt	LTP386	ltpFR2	5	4	HIKER	708	n/a	n/a	0	0	0
884.6611328125	n/a	WORD	1811786	wordpools/wasnorm_wordpool_576.txt	LTP386	ltpFR2	5	4	BIKE	125	n/a	n/a	0	0	0
887.244140625	n/a	WORD	1817076	wordpools/wasnorm_wordpool_576.txt	LTP386	ltpFR2	5	4	WAITER	1580	n/a	n/a	0	0	0
889.9111328125	n/a	WORD	1822538	wordpools/wasnorm_wordpool_576.txt	LTP386	ltpFR2	5	4	BANQUET	86	n/a	n/a	0	0	0
892.69384765625	n/a	WORD	1828237	wordpools/wasnorm_wordpool_576.txt	LTP386	ltpFR2	5	4	ZIPPER	1636	n/a	n/a	0	0	0
895.4609375	n/a	WORD	1833904	wordpools/wasnorm_wordpool_576.txt	LTP386	ltpFR2	5	4	RUST	1219	n/a	n/a	0	0	0
898.06005859375	n/a	WORD	1839227	wordpools/wasnorm_wordpool_576.txt	LTP386	ltpFR2	5	4	HEART	697	n/a	n/a	0	0	0
900.626953125	n/a	WORD	1844484	wordpools/wasnorm_wordpool_576.txt	LTP386	ltpFR2	5	4	NAPKIN	937	n/a	n/a	0	0	0
903.24365234375	n/a	WORD	1849843	wordpools/wasnorm_wordpool_576.txt	LTP386	ltpFR2	5	4	ROBIN	1199	n/a	n/a	0	0	0
905.87646484375	n/a	WORD	1855235	wordpools/wasnorm_wordpool_576.txt	LTP386	ltpFR2	5	4	TURKEY	1520	n/a	n/a	0	0	0
908.3935546875	n/a	WORD	1860390	wordpools/wasnorm_wordpool_576.txt	LTP386	ltpFR2	5	4	CHAPEL	280	n/a	n/a	0	0	0
911.15966796875	n/a	WORD	1866055	wordpools/wasnorm_wordpool_576.txt	LTP386	ltpFR2	5	4	FRIEND	606	n/a	n/a	0	0	0
913.9423828125	n/a	WORD	1871754	wordpools/wasnorm_wordpool_576.txt	LTP386	ltpFR2	5	4	MARKER	870	n/a	n/a	0	0	0
916.3935546875	n/a	WORD	1876774	wordpools/wasnorm_wordpool_576.txt	LTP386	ltpFR2	5	4	CRAYON	401	n/a	n/a	0	0	0
919.0751953125	n/a	WORD	1882266	wordpools/wasnorm_wordpool_576.txt	LTP386	ltpFR2	5	4	IDOL	733	n/a	n/a	0	0	0
921.55908203125	n/a	WORD	1887353	wordpools/wasnorm_wordpool_576.txt	LTP386	ltpFR2	5	4	SUMMIT	1405	n/a	n/a	0	0	0
924.125	n/a	WORD	1892608	wordpools/wasnorm_wordpool_576.txt	LTP386	ltpFR2	5	4	PASTA	1021	n/a	n/a	0	0	0
926.64306640625	n/a	WORD	1897765	wordpools/wasnorm_wordpool_576.txt	LTP386	ltpFR2	5	4	PRINCESS	1125	n/a	n/a	0	0	0
929.4091796875	n/a	WORD	1903430	wordpools/wasnorm_wordpool_576.txt	LTP386	ltpFR2	5	4	DORM	488	n/a	n/a	0	0	0
932.05810546875	n/a	WORD	1908855	wordpools/wasnorm_wordpool_576.txt	LTP386	ltpFR2	5	4	SWIMMER	1420	n/a	n/a	0	0	0
933.65869140625	n/a	START	1912133	n/a	LTP386	ltpFR2	5	n/a	n/a	n/a	6	n/a	n/a	n/a	n/a
934.73974609375	n/a	DISTRACTOR	1914347	n/a	LTP386	ltpFR2	5	4	n/a	n/a	n/a	n/a	0	0	0
934.74169921875	n/a	PROB	1914351	n/a	LTP386	ltpFR2	5	n/a	n/a	n/a	6	20	5	8	7
936.80859375	n/a	PROB	1918584	n/a	LTP386	ltpFR2	5	n/a	n/a	n/a	6	16	8	5	3
938.29150390625	n/a	PROB	1921621	n/a	LTP386	ltpFR2	5	n/a	n/a	n/a	6	11	1	5	5
939.40869140625	n/a	PROB	1923909	n/a	LTP386	ltpFR2	5	n/a	n/a	n/a	6	7	4	1	2
941.32568359375	n/a	PROB	1927835	n/a	LTP386	ltpFR2	5	n/a	n/a	n/a	6	9	6	2	1
942.79150390625	n/a	PROB	1930837	n/a	LTP386	ltpFR2	5	n/a	n/a	n/a	6	18	6	5	7
945.0244140625	n/a	PROB	1935410	n/a	LTP386	ltpFR2	5	n/a	n/a	n/a	6	19	2	9	8
947.275390625	n/a	PROB	1940020	n/a	LTP386	ltpFR2	5	n/a	n/a	n/a	6	14	5	1	8
948.908203125	n/a	PROB	1943364	n/a	LTP386	ltpFR2	5	n/a	n/a	n/a	6	14	5	4	5
950.408203125	n/a	PROB	1946436	n/a	LTP386	ltpFR2	5	n/a	n/a	n/a	6	6	3	1	2
952.0400390625	n/a	PROB	1949778	n/a	LTP386	ltpFR2	5	n/a	n/a	n/a	6	19	2	9	8
957.658203125	n/a	STOP	1961284	n/a	LTP386	ltpFR2	5	n/a	n/a	n/a	6	n/a	n/a	n/a	n/a
959.5078125	n/a	REC_START	1965072	n/a	LTP386	ltpFR2	5	4	n/a	n/a	n/a	n/a	0	0	0
960.3671875	n/a	REC_WORD	1966832	wordpools/wasnorm_wordpool_576.txt	LTP386	ltpFR2	5	4	HIKER	708	n/a	n/a	0	0	0
965.21484375	n/a	REC_WORD	1976760	wordpools/wasnorm_wordpool_576.txt	LTP386	ltpFR2	5	4	SUMMIT	1405	n/a	n/a	0	0	0
967.61083984375	n/a	REC_WORD	1981667	wordpools/wasnorm_wordpool_576.txt	LTP386	ltpFR2	5	4	ROBIN	1199	n/a	n/a	0	0	0
968.640625	n/a	REC_WORD	1983776	wordpools/wasnorm_wordpool_576.txt	LTP386	ltpFR2	5	4	TURKEY	1520	n/a	n/a	0	0	0
972.732421875	n/a	REC_WORD	1992156	wordpools/wasnorm_wordpool_576.txt	LTP386	ltpFR2	5	4	CHAPEL	280	n/a	n/a	0	0	0
974.275390625	n/a	REC_WORD	1995316	wordpools/wasnorm_wordpool_576.txt	LTP386	ltpFR2	5	4	MONEY	908	n/a	n/a	0	0	0
977.529296875	n/a	REC_WORD	2001980	wordpools/wasnorm_wordpool_576.txt	LTP386	ltpFR2	5	4	MARKER	870	n/a	n/a	0	0	0
978.45849609375	n/a	REC_WORD	2003883	wordpools/wasnorm_wordpool_576.txt	LTP386	ltpFR2	5	4	CRAYON	401	n/a	n/a	0	0	0
980.267578125	n/a	REC_WORD	2007588	wordpools/wasnorm_wordpool_576.txt	LTP386	ltpFR2	5	4	FRIEND	606	n/a	n/a	0	0	0
999.1259765625	n/a	REC_WORD	2046210	wordpools/wasnorm_wordpool_576.txt	LTP386	ltpFR2	5	4	SHORTS	1293	n/a	n/a	0	0	0
1049.9521484375	n/a	DISTRACTOR	2150302	n/a	LTP386	ltpFR2	5	5	n/a	n/a	n/a	n/a	0	0	0
1049.953125	n/a	START	2150304	n/a	LTP386	ltpFR2	5	n/a	n/a	n/a	7	n/a	n/a	n/a	n/a
1049.96923828125	n/a	PROB	2150337	n/a	LTP386	ltpFR2	5	n/a	n/a	n/a	7	15	6	4	5
1051.8203125	n/a	PROB	2154128	n/a	LTP386	ltpFR2	5	n/a	n/a	n/a	7	9	6	1	2
1054.5703125	n/a	PROB	2159760	n/a	LTP386	ltpFR2	5	n/a	n/a	n/a	7	16	1	7	8
1056.001953125	n/a	PROB	2162692	n/a	LTP386	ltpFR2	5	n/a	n/a	n/a	7	16	7	6	3
1057.9189453125	n/a	PROB	2166618	n/a	LTP386	ltpFR2	5	n/a	n/a	n/a	7	20	7	8	5
1059.6201171875	n/a	PROB	2170102	n/a	LTP386	ltpFR2	5	n/a	n/a	n/a	7	18	4	7	7
1060.96875	n/a	PROB	2172864	n/a	LTP386	ltpFR2	5	n/a	n/a	n/a	7	17	4	6	7
1063.2861328125	n/a	PROB	2177610	n/a	LTP386	ltpFR2	5	n/a	n/a	n/a	7	12	2	7	3
1065.01904296875	n/a	PROB	2181159	n/a	LTP386	ltpFR2	5	n/a	n/a	n/a	7	11	5	1	5
1066.15185546875	n/a	PROB	2183479	n/a	LTP386	ltpFR2	5	n/a	n/a	n/a	7	15	6	2	7
1068.134765625	n/a	PROB	2187540	n/a	LTP386	ltpFR2	5	n/a	n/a	n/a	7	17	4	9	4
1070.302734375	n/a	PROB	2191980	n/a	LTP386	ltpFR2	5	n/a	n/a	n/a	7	13	6	1	6
1071.96875	n/a	PROB	2195392	n/a	LTP386	ltpFR2	5	n/a	n/a	n/a	7	8	3	4	1
1073.189453125	n/a	STOP	2197892	n/a	LTP386	ltpFR2	5	n/a	n/a	n/a	7	n/a	n/a	n/a	n/a
1075.08447265625	n/a	WORD	2201773	wordpools/wasnorm_wordpool_576.txt	LTP386	ltpFR2	5	5	SNAKE	1333	n/a	n/a	0	0	0
1077.53564453125	n/a	WORD	2206793	wordpools/wasnorm_wordpool_576.txt	LTP386	ltpFR2	5	5	GOBLIN	645	n/a	n/a	0	0	0
1080.05126953125	n/a	WORD	2211945	wordpools/wasnorm_wordpool_576.txt	LTP386	ltpFR2	5	5	SAUSAGE	1238	n/a	n/a	0	0	0
1082.4853515625	n/a	WORD	2216930	wordpools/wasnorm_wordpool_576.txt	LTP386	ltpFR2	5	5	SCALPEL	1243	n/a	n/a	0	0	0
1085.2353515625	n/a	WORD	2222562	wordpools/wasnorm_wordpool_576.txt	LTP386	ltpFR2	5	5	EYELASH	546	n/a	n/a	0	0	0
1087.93408203125	n/a	WORD	2228089	wordpools/wasnorm_wordpool_576.txt	LTP386	ltpFR2	5	5	LIPSTICK	829	n/a	n/a	0	0	0
1090.55224609375	n/a	WORD	2233451	wordpools/wasnorm_wordpool_576.txt	LTP386	ltpFR2	5	5	GRIZZLY	662	n/a	n/a	0	0	0
1093.26806640625	n/a	WORD	2239013	wordpools/wasnorm_wordpool_576.txt	LTP386	ltpFR2	5	5	QUARTER	1148	n/a	n/a	0	0	0
1096.06689453125	n/a	WORD	2244745	wordpools/wasnorm_wordpool_576.txt	LTP386	ltpFR2	5	5	HANDBAG	684	n/a	n/a	0	0	0
1098.55078125	n/a	WORD	2249832	wordpools/wasnorm_wordpool_576.txt	LTP386	ltpFR2	5	5	PASSAGE	1019	n/a	n/a	0	0	0
1101.0498046875	n/a	WORD	2254950	wordpools/wasnorm_wordpool_576.txt	LTP386	ltpFR2	5	5	SISTER	1312	n/a	n/a	0	0	0
1103.80078125	n/a	WORD	2260584	wordpools/wasnorm_wordpool_576.txt	LTP386	ltpFR2	5	5	POSSUM	1112	n/a	n/a	0	0	0
1106.3173828125	n/a	WORD	2265738	wordpools/wasnorm_wordpool_576.txt	LTP386	ltpFR2	5	5	VICTIM	1562	n/a	n/a	0	0	0
1109.06640625	n/a	WORD	2271368	wordpools/wasnorm_wordpool_576.txt	LTP386	ltpFR2	5	5	BROTHER	179	n/a	n/a	0	0	0
1111.58447265625	n/a	WORD	2276525	wordpools/wasnorm_wordpool_576.txt	LTP386	ltpFR2	5	5	SIBLING	1301	n/a	n/a	0	0	0
1114.21728515625	n/a	WORD	2281917	wordpools/wasnorm_wordpool_576.txt	LTP386	ltpFR2	5	5	TUBA	1515	n/a	n/a	0	0	0
1116.7841796875	n/a	WORD	2287174	wordpools/wasnorm_wordpool_576.txt	LTP386	ltpFR2	5	5	CREVICE	405	n/a	n/a	0	0	0
1119.4833984375	n/a	WORD	2292702	wordpools/wasnorm_wordpool_576.txt	LTP386	ltpFR2	5	5	FARMER	553	n/a	n/a	0	0	0
1122.14892578125	n/a	WORD	2298161	wordpools/wasnorm_wordpool_576.txt	LTP386	ltpFR2	5	5	COLONEL	348	n/a	n/a	0	0	0
1124.5830078125	n/a	WORD	2303146	wordpools/wasnorm_wordpool_576.txt	LTP386	ltpFR2	5	5	JOURNAL	760	n/a	n/a	0	0	0
1127.166015625	n/a	WORD	2308436	wordpools/wasnorm_wordpool_576.txt	LTP386	ltpFR2	5	5	TILE	1468	n/a	n/a	0	0	0
1129.716796875	n/a	WORD	2313660	wordpools/wasnorm_wordpool_576.txt	LTP386	ltpFR2	5	5	CANYON	235	n/a	n/a	0	0	0
1132.466796875	n/a	WORD	2319292	wordpools/wasnorm_wordpool_576.txt	LTP386	ltpFR2	5	5	FIDDLE	561	n/a	n/a	0	0	0
1135.23291015625	n/a	WORD	2324957	wordpools/wasnorm_wordpool_576.txt	LTP386	ltpFR2	5	5	LUNCH	849	n/a	n/a	0	0	0
1136.849609375	n/a	START	2328268	n/a	LTP386	ltpFR2	5	n/a	n/a	n/a	8	n/a	n/a	n/a	n/a
1137.98779296875	n/a	DISTRACTOR	2330599	n/a	LTP386	ltpFR2	5	5	n/a	n/a	n/a	n/a	0	0	0
1137.99853515625	n/a	PROB	2330621	n/a	LTP386	ltpFR2	5	n/a	n/a	n/a	8	18	6	7	5
1139.8994140625	n/a	PROB	2334514	n/a	LTP386	ltpFR2	5	n/a	n/a	n/a	8	21	9	7	5
1141.69970703125	n/a	PROB	2338201	n/a	LTP386	ltpFR2	5	n/a	n/a	n/a	8	14	9	4	1
1144.49951171875	n/a	PROB	2343935	n/a	LTP386	ltpFR2	5	n/a	n/a	n/a	8	8	6	1	1
1145.69921875	n/a	PROB	2346392	n/a	LTP386	ltpFR2	5	n/a	n/a	n/a	8	12	3	1	8
1147.03125	n/a	PROB	2349120	n/a	LTP386	ltpFR2	5	n/a	n/a	n/a	8	14	4	5	5
1148.3154296875	n/a	PROB	2351750	n/a	LTP386	ltpFR2	5	n/a	n/a	n/a	8	15	9	3	3
1150.365234375	n/a	PROB	2355948	n/a	LTP386	ltpFR2	5	n/a	n/a	n/a	8	7	2	4	1
1152.06396484375	n/a	PROB	2359427	n/a	LTP386	ltpFR2	5	n/a	n/a	n/a	8	13	1	8	4
1154.43212890625	n/a	PROB	2364277	n/a	LTP386	ltpFR2	5	n/a	n/a	n/a	8	16	9	4	3
1155.93115234375	n/a	PROB	2367347	n/a	LTP386	ltpFR2	5	n/a	n/a	n/a	8	15	2	8	5
1158.7822265625	n/a	PROB	2373186	n/a	LTP386	ltpFR2	5	n/a	n/a	n/a	8	20	5	6	9
1160.166015625	n/a	STOP	2376020	n/a	LTP386	ltpFR2	5	n/a	n/a	n/a	8	n/a	n/a	n/a	n/a
1162.61572265625	n/a	REC_START	2381037	n/a	LTP386	ltpFR2	5	5	n/a	n/a	n/a	n/a	0	0	0
1163.88671875	n/a	REC_WORD	2383640	wordpools/wasnorm_wordpool_576.txt	LTP386	ltpFR2	5	5	FIDDLER	-1	n/a	n/a	0	0	0
1165.166015625	n/a	REC_WORD	2386260	wordpools/wasnorm_wordpool_576.txt	LTP386	ltpFR2	5	5	SNAKE	1333	n/a	n/a	0	0	0
1166.06884765625	n/a	REC_WORD	2388109	wordpools/wasnorm_wordpool_576.txt	LTP386	ltpFR2	5	5	GOBLIN	645	n/a	n/a	0	0	0
1166.7109375	n/a	REC_WORD	2389424	wordpools/wasnorm_wordpool_576.txt	LTP386	ltpFR2	5	5	POSSUM	1112	n/a	n/a	0	0	0
1167.83056640625	n/a	REC_WORD	2391717	wordpools/wasnorm_wordpool_576.txt	LTP386	ltpFR2	5	5	BROTHER	179	n/a	n/a	0	0	0
1168.220703125	n/a	REC_WORD	2392516	wordpools/wasnorm_wordpool_576.txt	LTP386	ltpFR2	5	5	SISTER	1312	n/a	n/a	0	0	0
1168.82080078125	n/a	REC_WORD	2393745	wordpools/wasnorm_wordpool_576.txt	LTP386	ltpFR2	5	5	SIBLING	1301	n/a	n/a	0	0	0
1174.859375	n/a	REC_WORD	2406112	wordpools/wasnorm_wordpool_576.txt	LTP386	ltpFR2	5	5	TWEEZERS	1526	n/a	n/a	0	0	0
1175.40869140625	n/a	REC_WORD	2407237	wordpools/wasnorm_wordpool_576.txt	LTP386	ltpFR2	5	5	LIPSTICK	829	n/a	n/a	0	0	0
1176.0595703125	n/a	REC_WORD	2408570	wordpools/wasnorm_wordpool_576.txt	LTP386	ltpFR2	5	5	HANDBAG	684	n/a	n/a	0	0	0
1253.06005859375	n/a	DISTRACTOR	2566267	n/a	LTP386	ltpFR2	5	6	n/a	n/a	n/a	n/a	0	0	0
1253.06005859375	n/a	START	2566267	n/a	LTP386	ltpFR2	5	n/a	n/a	n/a	9	n/a	n/a	n/a	n/a
1253.076171875	n/a	PROB	2566300	n/a	LTP386	ltpFR2	5	n/a	n/a	n/a	9	17	6	5	6
1255.5439453125	n/a	PROB	2571354	n/a	LTP386	ltpFR2	5	n/a	n/a	n/a	9	13	6	1	6
1257.91015625	n/a	PROB	2576200	n/a	LTP386	ltpFR2	5	n/a	n/a	n/a	9	19	7	9	3
1259.89404296875	n/a	PROB	2580263	n/a	LTP386	ltpFR2	5	n/a	n/a	n/a	9	20	4	8	8
1261.97607421875	n/a	PROB	2584527	n/a	LTP386	ltpFR2	5	n/a	n/a	n/a	9	14	2	9	3
1263.6767578125	n/a	PROB	2588010	n/a	LTP386	ltpFR2	5	n/a	n/a	n/a	9	18	8	7	3
1264.958984375	n/a	PROB	2590636	n/a	LTP386	ltpFR2	5	n/a	n/a	n/a	9	8	1	1	6
1266.17578125	n/a	PROB	2593128	n/a	LTP386	ltpFR2	5	n/a	n/a	n/a	9	12	1	5	6
1267.3935546875	n/a	PROB	2595622	n/a	LTP386	ltpFR2	5	n/a	n/a	n/a	9	15	2	7	6
1269.54345703125	n/a	PROB	2600025	n/a	LTP386	ltpFR2	5	n/a	n/a	n/a	9	26	9	9	8
1271.20947265625	n/a	PROB	2603437	n/a	LTP386	ltpFR2	5	n/a	n/a	n/a	9	22	7	9	6
1273.59326171875	n/a	PROB	2608319	n/a	LTP386	ltpFR2	5	n/a	n/a	n/a	9	25	9	9	7
1275.96533203125	n/a	STOP	2613177	n/a	LTP386	ltpFR2	5	n/a	n/a	n/a	9	n/a	n/a	n/a	n/a
1277.908203125	n/a	WORD	2617156	wordpools/wasnorm_wordpool_576.txt	LTP386	ltpFR2	5	6	TROUT	1511	n/a	n/a	0	0	0
1280.45947265625	n/a	WORD	2622381	wordpools/wasnorm_wordpool_576.txt	LTP386	ltpFR2	5	6	PIGMENT	1066	n/a	n/a	0	0	0
1283.2763671875	n/a	WORD	2628150	wordpools/wasnorm_wordpool_576.txt	LTP386	ltpFR2	5	6	TORTOISE	1486	n/a	n/a	0	0	0
1285.9912109375	n/a	WORD	2633710	wordpools/wasnorm_wordpool_576.txt	LTP386	ltpFR2	5	6	COLLEGE	346	n/a	n/a	0	0	0
1288.44189453125	n/a	WORD	2638729	wordpools/wasnorm_wordpool_576.txt	LTP386	ltpFR2	5	6	KNAPSACK	783	n/a	n/a	0	0	0
1291.158203125	n/a	WORD	2644292	wordpools/wasnorm_wordpool_576.txt	LTP386	ltpFR2	5	6	JUDGE	761	n/a	n/a	0	0	0
1293.94091796875	n/a	WORD	2649991	wordpools/wasnorm_wordpool_576.txt	LTP386	ltpFR2	5	6	JURY	766	n/a	n/a	0	0	0
1296.458984375	n/a	WORD	2655148	wordpools/wasnorm_wordpool_576.txt	LTP386	ltpFR2	5	6	LEADER	807	n/a	n/a	0	0	0
1298.90771484375	n/a	WORD	2660163	wordpools/wasnorm_wordpool_576.txt	LTP386	ltpFR2	5	6	TART	1436	n/a	n/a	0	0	0
1301.474609375	n/a	WORD	2665420	wordpools/wasnorm_wordpool_576.txt	LTP386	ltpFR2	5	6	PATROL	1027	n/a	n/a	0	0	0
1304.224609375	n/a	WORD	2671052	wordpools/wasnorm_wordpool_576.txt	LTP386	ltpFR2	5	6	SEAGULL	1261	n/a	n/a	0	0	0
1306.724609375	n/a	WORD	2676172	wordpools/wasnorm_wordpool_576.txt	LTP386	ltpFR2	5	6	DRUG	501	n/a	n/a	0	0	0
1309.37451171875	n/a	WORD	2681599	wordpools/wasnorm_wordpool_576.txt	LTP386	ltpFR2	5	6	POISON	1096	n/a	n/a	0	0	0
1311.82421875	n/a	WORD	2686616	wordpools/wasnorm_wordpool_576.txt	LTP386	ltpFR2	5	6	LACE	792	n/a	n/a	0	0	0
1314.57421875	n/a	WORD	2692248	wordpools/wasnorm_wordpool_576.txt	LTP386	ltpFR2	5	6	CROWN	415	n/a	n/a	0	0	0
1317.408203125	n/a	WORD	2698052	wordpools/wasnorm_wordpool_576.txt	LTP386	ltpFR2	5	6	ORANGE	980	n/a	n/a	0	0	0
1320.0400390625	n/a	WORD	2703442	wordpools/wasnorm_wordpool_576.txt	LTP386	ltpFR2	5	6	HOOK	715	n/a	n/a	0	0	0
1322.77392578125	n/a	WORD	2709041	wordpools/wasnorm_wordpool_576.txt	LTP386	ltpFR2	5	6	FLESH	579	n/a	n/a	0	0	0
1325.5068359375	n/a	WORD	2714638	wordpools/wasnorm_wordpool_576.txt	LTP386	ltpFR2	5	6	TOURIST	1488	n/a	n/a	0	0	0
1327.9560546875	n/a	WORD	2719654	wordpools/wasnorm_wordpool_576.txt	LTP386	ltpFR2	5	6	REPORT	1184	n/a	n/a	0	0	0
1330.423828125	n/a	WORD	2724708	wordpools/wasnorm_wordpool_576.txt	LTP386	ltpFR2	5	6	MARS	873	n/a	n/a	0	0	0
1332.9228515625	n/a	WORD	2729826	wordpools/wasnorm_wordpool_576.txt	LTP386	ltpFR2	5	6	GARLIC	624	n/a	n/a	0	0	0
1335.5908203125	n/a	WORD	2735290	wordpools/wasnorm_wordpool_576.txt	LTP386	ltpFR2	5	6	PEPPER	1047	n/a	n/a	0	0	0
1338.24072265625	n/a	WORD	2740717	wordpools/wasnorm_wordpool_576.txt	LTP386	ltpFR2	5	6	HOOD	714	n/a	n/a	0	0	0
1339.8564453125	n/a	START	2744026	n/a	LTP386	ltpFR2	5	n/a	n/a	n/a	10	n/a	n/a	n/a	n/a
1340.74951171875	n/a	DISTRACTOR	2745855	n/a	LTP386	ltpFR2	5	6	n/a	n/a	n/a	n/a	0	0	0
1340.75634765625	n/a	PROB	2745869	n/a	LTP386	ltpFR2	5	n/a	n/a	n/a	10	15	4	3	8
1342.65625	n/a	PROB	2749760	n/a	LTP386	ltpFR2	5	n/a	n/a	n/a	10	10	3	4	3
1345.5234375	n/a	PROB	2755632	n/a	LTP386	ltpFR2	5	n/a	n/a	n/a	10	19	7	8	4
1347.08837890625	n/a	PROB	2758837	n/a	LTP386	ltpFR2	5	n/a	n/a	n/a	10	12	1	7	4
1348.5234375	n/a	PROB	2761776	n/a	LTP386	ltpFR2	5	n/a	n/a	n/a	10	17	9	5	3
1350.2392578125	n/a	PROB	2765290	n/a	LTP386	ltpFR2	5	n/a	n/a	n/a	10	19	1	9	9
1352.4560546875	n/a	PROB	2769830	n/a	LTP386	ltpFR2	5	n/a	n/a	n/a	10	13	5	7	1
1353.88916015625	n/a	PROB	2772765	n/a	LTP386	ltpFR2	5	n/a	n/a	n/a	10	21	9	8	4
1355.505859375	n/a	PROB	2776076	n/a	LTP386	ltpFR2	5	n/a	n/a	n/a	10	11	1	2	8
1357.1220703125	n/a	PROB	2779386	n/a	LTP386	ltpFR2	5	n/a	n/a	n/a	10	11	4	2	5
1358.955078125	n/a	PROB	2783140	n/a	LTP386	ltpFR2	5	n/a	n/a	n/a	10	7	3	2	2
1360.60595703125	n/a	PROB	2786521	n/a	LTP386	ltpFR2	5	n/a	n/a	n/a	10	23	7	6	8
1362.48681640625	n/a	STOP	2790373	n/a	LTP386	ltpFR2	5	n/a	n/a	n/a	10	n/a	n/a	n/a	n/a
1365.78955078125	n/a	REC_START	2797137	n/a	LTP386	ltpFR2	5	6	n/a	n/a	n/a	n/a	0	0	0
1366.90185546875	n/a	REC_WORD	2799415	wordpools/wasnorm_wordpool_576.txt	LTP386	ltpFR2	5	6	PATROL	1027	n/a	n/a	0	0	0
1380.39404296875	n/a	REC_WORD	2827047	wordpools/wasnorm_wordpool_576.txt	LTP386	ltpFR2	5	6	FLESH	579	n/a	n/a	0	0	0
1381.39404296875	n/a	REC_WORD	2829095	wordpools/wasnorm_wordpool_576.txt	LTP386	ltpFR2	5	6	HOOK	715	n/a	n/a	0	0	0
1410.76123046875	n/a	REC_WORD	2889239	wordpools/wasnorm_wordpool_576.txt	LTP386	ltpFR2	5	6	ROD	1203	n/a	n/a	0	0	0
1456.23486328125	n/a	DISTRACTOR	2982369	n/a	LTP386	ltpFR2	5	7	n/a	n/a	n/a	n/a	0	0	0
1456.23486328125	n/a	START	2982369	n/a	LTP386	ltpFR2	5	n/a	n/a	n/a	11	n/a	n/a	n/a	n/a
1456.2509765625	n/a	PROB	2982402	n/a	LTP386	ltpFR2	5	n/a	n/a	n/a	11	9	7	1	1
1457.68505859375	n/a	PROB	2985339	n/a	LTP386	ltpFR2	5	n/a	n/a	n/a	11	18	7	9	2
1459.20068359375	n/a	PROB	2988443	n/a	LTP386	ltpFR2	5	n/a	n/a	n/a	11	12	9	1	2
1460.966796875	n/a	PROB	2992060	n/a	LTP386	ltpFR2	5	n/a	n/a	n/a	11	21	6	5	6
1462.8505859375	n/a	PROB	2995918	n/a	LTP386	ltpFR2	5	n/a	n/a	n/a	11	15	4	9	2
1464.65087890625	n/a	PROB	2999605	n/a	LTP386	ltpFR2	5	n/a	n/a	n/a	11	15	9	5	1
1466.1494140625	n/a	PROB	3002674	n/a	LTP386	ltpFR2	5	n/a	n/a	n/a	11	12	2	7	3
1467.3837890625	n/a	PROB	3005202	n/a	LTP386	ltpFR2	5	n/a	n/a	n/a	11	21	6	9	6
1469.70068359375	n/a	PROB	3009947	n/a	LTP386	ltpFR2	5	n/a	n/a	n/a	11	18	1	8	9
1471.58349609375	n/a	PROB	3013803	n/a	LTP386	ltpFR2	5	n/a	n/a	n/a	11	11	2	8	1
1473.267578125	n/a	PROB	3017252	n/a	LTP386	ltpFR2	5	n/a	n/a	n/a	11	11	5	4	4
1475.33349609375	n/a	PROB	3021483	n/a	LTP386	ltpFR2	5	n/a	n/a	n/a	11	14	6	2	6
1478.79833984375	n/a	STOP	3028579	n/a	LTP386	ltpFR2	5	n/a	n/a	n/a	11	n/a	n/a	n/a	n/a
1481.416015625	n/a	WORD	3033940	wordpools/wasnorm_wordpool_576.txt	LTP386	ltpFR2	5	7	TRACTOR	1493	n/a	n/a	0	0	0
1483.9990234375	n/a	WORD	3039230	wordpools/wasnorm_wordpool_576.txt	LTP386	ltpFR2	5	7	STREAM	1392	n/a	n/a	0	0	0
1486.43310546875	n/a	WORD	3044215	wordpools/wasnorm_wordpool_576.txt	LTP386	ltpFR2	5	7	GANGSTER	620	n/a	n/a	0	0	0
1488.98193359375	n/a	WORD	3049435	wordpools/wasnorm_wordpool_576.txt	LTP386	ltpFR2	5	7	FOOTBALL	591	n/a	n/a	0	0	0
1491.44970703125	n/a	WORD	3054489	wordpools/wasnorm_wordpool_576.txt	LTP386	ltpFR2	5	7	MILK	895	n/a	n/a	0	0	0
1494.0986328125	n/a	WORD	3059914	wordpools/wasnorm_wordpool_576.txt	LTP386	ltpFR2	5	7	WIDOW	1608	n/a	n/a	0	0	0
1496.849609375	n/a	WORD	3065548	wordpools/wasnorm_wordpool_576.txt	LTP386	ltpFR2	5	7	PECAN	1036	n/a	n/a	0	0	0
1499.5498046875	n/a	WORD	3071078	wordpools/wasnorm_wordpool_576.txt	LTP386	ltpFR2	5	7	PIZZA	1079	n/a	n/a	0	0	0
1502.232421875	n/a	WORD	3076572	wordpools/wasnorm_wordpool_576.txt	LTP386	ltpFR2	5	7	PUDDLE	1140	n/a	n/a	0	0	0
1504.69873046875	n/a	WORD	3081623	wordpools/wasnorm_wordpool_576.txt	LTP386	ltpFR2	5	7	CASHIER	254	n/a	n/a	0	0	0
1507.3154296875	n/a	WORD	3086982	wordpools/wasnorm_wordpool_576.txt	LTP386	ltpFR2	5	7	CIGAR	308	n/a	n/a	0	0	0
1509.8154296875	n/a	WORD	3092102	wordpools/wasnorm_wordpool_576.txt	LTP386	ltpFR2	5	7	TOMBSTONE	1478	n/a	n/a	0	0	0
1512.4482421875	n/a	WORD	3097494	wordpools/wasnorm_wordpool_576.txt	LTP386	ltpFR2	5	7	CANDY	230	n/a	n/a	0	0	0
1514.89697265625	n/a	WORD	3102509	wordpools/wasnorm_wordpool_576.txt	LTP386	ltpFR2	5	7	PASTRY	1022	n/a	n/a	0	0	0
1517.31494140625	n/a	WORD	3107461	wordpools/wasnorm_wordpool_576.txt	LTP386	ltpFR2	5	7	SCISSORS	1250	n/a	n/a	0	0	0
1519.83203125	n/a	WORD	3112616	wordpools/wasnorm_wordpool_576.txt	LTP386	ltpFR2	5	7	BUNNY	198	n/a	n/a	0	0	0
1522.43212890625	n/a	WORD	3117941	wordpools/wasnorm_wordpool_576.txt	LTP386	ltpFR2	5	7	CATTLE	261	n/a	n/a	0	0	0
1525.1640625	n/a	WORD	3123536	wordpools/wasnorm_wordpool_576.txt	LTP386	ltpFR2	5	7	MARINE	869	n/a	n/a	0	0	0
1527.880859375	n/a	WORD	3129100	wordpools/wasnorm_wordpool_576.txt	LTP386	ltpFR2	5	7	ANKLE	24	n/a	n/a	0	0	0
1530.31494140625	n/a	WORD	3134085	wordpools/wasnorm_wordpool_576.txt	LTP386	ltpFR2	5	7	ULCER	1533	n/a	n/a	0	0	0
1532.78076171875	n/a	WORD	3139135	wordpools/wasnorm_wordpool_576.txt	LTP386	ltpFR2	5	7	FIREPLACE	570	n/a	n/a	0	0	0
1535.564453125	n/a	WORD	3144836	wordpools/wasnorm_wordpool_576.txt	LTP386	ltpFR2	5	7	ACTRESS	6	n/a	n/a	0	0	0
1538.0634765625	n/a	WORD	3149954	wordpools/wasnorm_wordpool_576.txt	LTP386	ltpFR2	5	7	ACTOR	5	n/a	n/a	0	0	0
1540.697265625	n/a	WORD	3155348	wordpools/wasnorm_wordpool_576.txt	LTP386	ltpFR2	5	7	MACHINE	852	n/a	n/a	0	0	0
1542.314453125	n/a	START	3158660	n/a	LTP386	ltpFR2	5	n/a	n/a	n/a	12	n/a	n/a	n/a	n/a
1543.3701171875	n/a	DISTRACTOR	3160822	n/a	LTP386	ltpFR2	5	7	n/a	n/a	n/a	n/a	0	0	0
1543.38037109375	n/a	PROB	3160843	n/a	LTP386	ltpFR2	5	n/a	n/a	n/a	12	5	1	1	3
1544.99609375	n/a	PROB	3164152	n/a	LTP386	ltpFR2	5	n/a	n/a	n/a	12	4	7	6	9
1547.72998046875	n/a	PROB	3169751	n/a	LTP386	ltpFR2	5	n/a	n/a	n/a	12	16	4	4	8
1549.8798828125	n/a	PROB	3174154	n/a	LTP386	ltpFR2	5	n/a	n/a	n/a	12	25	8	8	7
1552.697265625	n/a	PROB	3179924	n/a	LTP386	ltpFR2	5	n/a	n/a	n/a	12	17	8	1	8
1554.43017578125	n/a	PROB	3183473	n/a	LTP386	ltpFR2	5	n/a	n/a	n/a	12	9	2	4	3
1556.01171875	n/a	PROB	3186712	n/a	LTP386	ltpFR2	5	n/a	n/a	n/a	12	12	7	4	1
1557.1787109375	n/a	PROB	3189102	n/a	LTP386	ltpFR2	5	n/a	n/a	n/a	12	15	4	4	7
1558.4970703125	n/a	PROB	3191802	n/a	LTP386	ltpFR2	5	n/a	n/a	n/a	12	11	1	3	7
1559.56298828125	n/a	PROB	3193985	n/a	LTP386	ltpFR2	5	n/a	n/a	n/a	12	10	6	1	3
1561.12890625	n/a	PROB	3197192	n/a	LTP386	ltpFR2	5	n/a	n/a	n/a	12	6	3	2	1
1562.712890625	n/a	PROB	3200436	n/a	LTP386	ltpFR2	5	n/a	n/a	n/a	12	15	7	6	2
1566.3125	n/a	STOP	3207808	n/a	LTP386	ltpFR2	5	n/a	n/a	n/a	12	n/a	n/a	n/a	n/a
1568.1787109375	n/a	REC_START	3211630	n/a	LTP386	ltpFR2	5	7	n/a	n/a	n/a	n/a	0	0	0
1569.08837890625	n/a	REC_WORD	3213493	wordpools/wasnorm_wordpool_576.txt	LTP386	ltpFR2	5	7	TRACTOR	1493	n/a	n/a	0	0	0
1570.91162109375	n/a	REC_WORD	3217227	wordpools/wasnorm_wordpool_576.txt	LTP386	ltpFR2	5	7	STREAM	1392	n/a	n/a	0	0	0
1572.08251953125	n/a	REC_WORD	3219625	wordpools/wasnorm_wordpool_576.txt	LTP386	ltpFR2	5	7	MILK	895	n/a	n/a	0	0	0
1573.11865234375	n/a	REC_WORD	3221747	wordpools/wasnorm_wordpool_576.txt	LTP386	ltpFR2	5	7	GANGSTER	620	n/a	n/a	0	0	0
1573.9326171875	n/a	REC_WORD	3223414	wordpools/wasnorm_wordpool_576.txt	LTP386	ltpFR2	5	7	MARINE	869	n/a	n/a	0	0	0
1658.625	n/a	WORD	3396864	wordpools/wasnorm_wordpool_576.txt	LTP386	ltpFR2	5	8	CRUTCH	417	n/a	n/a	0	0	0
1661.32470703125	n/a	WORD	3402393	wordpools/wasnorm_wordpool_576.txt	LTP386	ltpFR2	5	8	ITEM	746	n/a	n/a	0	0	0
1663.95751953125	n/a	WORD	3407785	wordpools/wasnorm_wordpool_576.txt	LTP386	ltpFR2	5	8	GRAPE	654	n/a	n/a	0	0	0
1666.44140625	n/a	WORD	3412872	wordpools/wasnorm_wordpool_576.txt	LTP386	ltpFR2	5	8	BRANDY	169	n/a	n/a	0	0	0
1669.07373046875	n/a	WORD	3418263	wordpools/wasnorm_wordpool_576.txt	LTP386	ltpFR2	5	8	GRAVEL	659	n/a	n/a	0	0	0
1671.724609375	n/a	WORD	3423692	wordpools/wasnorm_wordpool_576.txt	LTP386	ltpFR2	5	8	TRANSPLANT	1496	n/a	n/a	0	0	0
1674.39111328125	n/a	WORD	3429153	wordpools/wasnorm_wordpool_576.txt	LTP386	ltpFR2	5	8	FOX	598	n/a	n/a	0	0	0
1676.90625	n/a	WORD	3434304	wordpools/wasnorm_wordpool_576.txt	LTP386	ltpFR2	5	8	DUST	508	n/a	n/a	0	0	0
1679.45703125	n/a	WORD	3439528	wordpools/wasnorm_wordpool_576.txt	LTP386	ltpFR2	5	8	INFANT	737	n/a	n/a	0	0	0
1682.14013671875	n/a	WORD	3445023	wordpools/wasnorm_wordpool_576.txt	LTP386	ltpFR2	5	8	CLOCK	325	n/a	n/a	0	0	0
1684.9560546875	n/a	WORD	3450790	wordpools/wasnorm_wordpool_576.txt	LTP386	ltpFR2	5	8	CAMEL	223	n/a	n/a	0	0	0
1687.39111328125	n/a	WORD	3455777	wordpools/wasnorm_wordpool_576.txt	LTP386	ltpFR2	5	8	PARTNER	1017	n/a	n/a	0	0	0
1690.1728515625	n/a	WORD	3461474	wordpools/wasnorm_wordpool_576.txt	LTP386	ltpFR2	5	8	BOYFRIEND	162	n/a	n/a	0	0	0
1692.97265625	n/a	WORD	3467208	wordpools/wasnorm_wordpool_576.txt	LTP386	ltpFR2	5	8	HUSBAND	728	n/a	n/a	0	0	0
1695.40673828125	n/a	WORD	3472193	wordpools/wasnorm_wordpool_576.txt	LTP386	ltpFR2	5	8	SPARROW	1347	n/a	n/a	0	0	0
1697.83984375	n/a	WORD	3477176	wordpools/wasnorm_wordpool_576.txt	LTP386	ltpFR2	5	8	ISLAND	745	n/a	n/a	0	0	0
1700.3564453125	n/a	WORD	3482330	wordpools/wasnorm_wordpool_576.txt	LTP386	ltpFR2	5	8	LEG	809	n/a	n/a	0	0	0
1703.138671875	n/a	WORD	3488028	wordpools/wasnorm_wordpool_576.txt	LTP386	ltpFR2	5	8	RELISH	1183	n/a	n/a	0	0	0
1705.8564453125	n/a	WORD	3493594	wordpools/wasnorm_wordpool_576.txt	LTP386	ltpFR2	5	8	POET	1095	n/a	n/a	0	0	0
1708.30615234375	n/a	WORD	3498611	wordpools/wasnorm_wordpool_576.txt	LTP386	ltpFR2	5	8	SUITCASE	1403	n/a	n/a	0	0	0
1711.0380859375	n/a	WORD	3504206	wordpools/wasnorm_wordpool_576.txt	LTP386	ltpFR2	5	8	LUGGAGE	847	n/a	n/a	0	0	0
1713.52197265625	n/a	WORD	3509293	wordpools/wasnorm_wordpool_576.txt	LTP386	ltpFR2	5	8	DRESS	495	n/a	n/a	0	0	0
1716.322265625	n/a	WORD	3515028	wordpools/wasnorm_wordpool_576.txt	LTP386	ltpFR2	5	8	GAVEL	627	n/a	n/a	0	0	0
1718.97119140625	n/a	WORD	3520453	wordpools/wasnorm_wordpool_576.txt	LTP386	ltpFR2	5	8	SPIDER	1351	n/a	n/a	0	0	0
1720.57275390625	n/a	START	3523733	n/a	LTP386	ltpFR2	5	n/a	n/a	n/a	13	n/a	n/a	n/a	n/a
1721.66796875	n/a	DISTRACTOR	3525976	n/a	LTP386	ltpFR2	5	8	n/a	n/a	n/a	n/a	0	0	0
1721.671875	n/a	PROB	3525984	n/a	LTP386	ltpFR2	5	n/a	n/a	n/a	13	13	4	8	1
1723.5390625	n/a	PROB	3529808	n/a	LTP386	ltpFR2	5	n/a	n/a	n/a	13	17	8	1	8
1725.18798828125	n/a	PROB	3533185	n/a	LTP386	ltpFR2	5	n/a	n/a	n/a	13	6	4	1	1
1726.421875	n/a	PROB	3535712	n/a	LTP386	ltpFR2	5	n/a	n/a	n/a	13	10	7	2	1
1728.48876953125	n/a	PROB	3539945	n/a	LTP386	ltpFR2	5	n/a	n/a	n/a	13	14	7	2	5
1730.4384765625	n/a	PROB	3543938	n/a	LTP386	ltpFR2	5	n/a	n/a	n/a	13	17	8	3	8
1732.48876953125	n/a	PROB	3548137	n/a	LTP386	ltpFR2	5	n/a	n/a	n/a	13	20	8	6	6
1734.08740234375	n/a	PROB	3551411	n/a	LTP386	ltpFR2	5	n/a	n/a	n/a	13	12	8	2	2
1735.8046875	n/a	PROB	3554928	n/a	LTP386	ltpFR2	5	n/a	n/a	n/a	13	15	6	2	7
1737.654296875	n/a	PROB	3558716	n/a	LTP386	ltpFR2	5	n/a	n/a	n/a	13	14	3	8	3
1739.30419921875	n/a	PROB	3562095	n/a	LTP386	ltpFR2	5	n/a	n/a	n/a	13	18	7	2	9
1740.9873046875	n/a	PROB	3565542	n/a	LTP386	ltpFR2	5	n/a	n/a	n/a	13	12	4	4	4
1744.572265625	n/a	STOP	3572884	n/a	LTP386	ltpFR2	5	n/a	n/a	n/a	13	n/a	n/a	n/a	n/a
1746.47119140625	n/a	REC_START	3576773	n/a	LTP386	ltpFR2	5	8	n/a	n/a	n/a	n/a	0	0	0
1750.02099609375	n/a	REC_WORD	3584043	wordpools/wasnorm_wordpool_576.txt	LTP386	ltpFR2	5	8	ANKLE	24	n/a	n/a	0	0	0
1751.00390625	n/a	REC_WORD	3586056	wordpools/wasnorm_wordpool_576.txt	LTP386	ltpFR2	5	8	TRANSPLANT	1496	n/a	n/a	0	0	0
1752.00390625	n/a	REC_WORD_VV	3588104	wordpools/wasnorm_wordpool_576.txt	LTP386	ltpFR2	5	8	<>	-1	n/a	n/a	0	0	0
1752.7939453125	n/a	REC_WORD	3589722	wordpools/wasnorm_wordpool_576.txt	LTP386	ltpFR2	5	8	LEG	809	n/a	n/a	0	0	0
1755.890625	n/a	REC_WORD	3596064	wordpools/wasnorm_wordpool_576.txt	LTP386	ltpFR2	5	8	ITEM	746	n/a	n/a	0	0	0
1757.640625	n/a	REC_WORD	3599648	wordpools/wasnorm_wordpool_576.txt	LTP386	ltpFR2	5	8	CRUTCH	417	n/a	n/a	0	0	0
1761.3525390625	n/a	REC_WORD	3607250	wordpools/wasnorm_wordpool_576.txt	LTP386	ltpFR2	5	8	BOYFRIEND	162	n/a	n/a	0	0	0
1762.1484375	n/a	REC_WORD	3608880	wordpools/wasnorm_wordpool_576.txt	LTP386	ltpFR2	5	8	PARTNER	1017	n/a	n/a	0	0	0
1762.83447265625	n/a	REC_WORD	3610285	wordpools/wasnorm_wordpool_576.txt	LTP386	ltpFR2	5	8	HUSBAND	728	n/a	n/a	0	0	0
1765.49658203125	n/a	REC_WORD	3615737	wordpools/wasnorm_wordpool_576.txt	LTP386	ltpFR2	5	8	ROBIN	1199	n/a	n/a	0	0	0
1776.861328125	n/a	REC_WORD	3639012	wordpools/wasnorm_wordpool_576.txt	LTP386	ltpFR2	5	8	SPARROW	1347	n/a	n/a	0	0	0
1808.76025390625	n/a	REC_WORD	3704341	wordpools/wasnorm_wordpool_576.txt	LTP386	ltpFR2	5	8	LUGGAGE	847	n/a	n/a	0	0	0
1809.47412109375	n/a	REC_WORD	3705803	wordpools/wasnorm_wordpool_576.txt	LTP386	ltpFR2	5	8	SUITCASE	1403	n/a	n/a	0	0	0
1823.0166015625	n/a	REST_REWET	3733538	n/a	LTP386	ltpFR2	5	8	n/a	n/a	n/a	n/a	0	0	0
1978.59326171875	n/a	WORD	4052159	wordpools/wasnorm_wordpool_576.txt	LTP386	ltpFR2	5	9	LUMBER	848	n/a	n/a	0	0	0
1981.076171875	n/a	WORD	4057244	wordpools/wasnorm_wordpool_576.txt	LTP386	ltpFR2	5	9	TURTLE	1522	n/a	n/a	0	0	0
1983.72705078125	n/a	WORD	4062673	wordpools/wasnorm_wordpool_576.txt	LTP386	ltpFR2	5	9	LILY	821	n/a	n/a	0	0	0
1986.40966796875	n/a	WORD	4068167	wordpools/wasnorm_wordpool_576.txt	LTP386	ltpFR2	5	9	NIGHTGOWN	953	n/a	n/a	0	0	0
1988.85986328125	n/a	WORD	4073185	wordpools/wasnorm_wordpool_576.txt	LTP386	ltpFR2	5	9	BUG	187	n/a	n/a	0	0	0
1991.60986328125	n/a	WORD	4078817	wordpools/wasnorm_wordpool_576.txt	LTP386	ltpFR2	5	9	MEAT	883	n/a	n/a	0	0	0
1994.3427734375	n/a	WORD	4084414	wordpools/wasnorm_wordpool_576.txt	LTP386	ltpFR2	5	9	WHISTLE	1606	n/a	n/a	0	0	0
1996.90869140625	n/a	WORD	4089669	wordpools/wasnorm_wordpool_576.txt	LTP386	ltpFR2	5	9	JELLY	755	n/a	n/a	0	0	0
1999.37548828125	n/a	WORD	4094721	wordpools/wasnorm_wordpool_576.txt	LTP386	ltpFR2	5	9	LOFT	840	n/a	n/a	0	0	0
2001.92431640625	n/a	WORD	4099941	wordpools/wasnorm_wordpool_576.txt	LTP386	ltpFR2	5	9	COUNTY	389	n/a	n/a	0	0	0
2004.6591796875	n/a	WORD	4105542	wordpools/wasnorm_wordpool_576.txt	LTP386	ltpFR2	5	9	RIFLE	1192	n/a	n/a	0	0	0
2007.2421875	n/a	WORD	4110832	wordpools/wasnorm_wordpool_576.txt	LTP386	ltpFR2	5	9	STAPLE	1371	n/a	n/a	0	0	0
2010.00830078125	n/a	WORD	4116497	wordpools/wasnorm_wordpool_576.txt	LTP386	ltpFR2	5	9	SANDWICH	1232	n/a	n/a	0	0	0
2012.50927734375	n/a	WORD	4121619	wordpools/wasnorm_wordpool_576.txt	LTP386	ltpFR2	5	9	BOARD	143	n/a	n/a	0	0	0
2015.0068359375	n/a	WORD	4126734	wordpools/wasnorm_wordpool_576.txt	LTP386	ltpFR2	5	9	SLUG	1329	n/a	n/a	0	0	0
2017.57470703125	n/a	WORD	4131993	wordpools/wasnorm_wordpool_576.txt	LTP386	ltpFR2	5	9	VIKING	1565	n/a	n/a	0	0	0
2020.24169921875	n/a	WORD	4137455	wordpools/wasnorm_wordpool_576.txt	LTP386	ltpFR2	5	9	BARLEY	88	n/a	n/a	0	0	0
2022.9736328125	n/a	WORD	4143050	wordpools/wasnorm_wordpool_576.txt	LTP386	ltpFR2	5	9	LION	827	n/a	n/a	0	0	0
2025.49169921875	n/a	WORD	4148207	wordpools/wasnorm_wordpool_576.txt	LTP386	ltpFR2	5	9	LEOPARD	812	n/a	n/a	0	0	0
2028.2744140625	n/a	WORD	4153906	wordpools/wasnorm_wordpool_576.txt	LTP386	ltpFR2	5	9	BLUEPRINT	142	n/a	n/a	0	0	0
2030.8076171875	n/a	WORD	4159094	wordpools/wasnorm_wordpool_576.txt	LTP386	ltpFR2	5	9	MAILMAN	858	n/a	n/a	0	0	0
2033.29052734375	n/a	WORD	4164179	wordpools/wasnorm_wordpool_576.txt	LTP386	ltpFR2	5	9	HOUND	724	n/a	n/a	0	0	0
2035.857421875	n/a	WORD	4169436	wordpools/wasnorm_wordpool_576.txt	LTP386	ltpFR2	5	9	TYPIST	1532	n/a	n/a	0	0	0
2038.5400390625	n/a	WORD	4174930	wordpools/wasnorm_wordpool_576.txt	LTP386	ltpFR2	5	9	CLAM	315	n/a	n/a	0	0	0
2040.15625	n/a	START	4178240	n/a	LTP386	ltpFR2	5	n/a	n/a	n/a	14	n/a	n/a	n/a	n/a
2041.09228515625	n/a	DISTRACTOR	4180157	n/a	LTP386	ltpFR2	5	9	n/a	n/a	n/a	n/a	0	0	0
2041.10595703125	n/a	PROB	4180185	n/a	LTP386	ltpFR2	5	n/a	n/a	n/a	14	17	6	5	6
2043.47412109375	n/a	PROB	4185035	n/a	LTP386	ltpFR2	5	n/a	n/a	n/a	14	15	5	3	7
2044.88916015625	n/a	PROB	4187933	n/a	LTP386	ltpFR2	5	n/a	n/a	n/a	14	19	8	9	2
2046.2900390625	n/a	PROB	4190802	n/a	LTP386	ltpFR2	5	n/a	n/a	n/a	14	22	6	7	9
2048.83984375	n/a	PROB	4196024	n/a	LTP386	ltpFR2	5	n/a	n/a	n/a	14	17	7	7	3
2050.40673828125	n/a	PROB	4199233	n/a	LTP386	ltpFR2	5	n/a	n/a	n/a	14	21	3	9	9
2051.83984375	n/a	PROB	4202168	n/a	LTP386	ltpFR2	5	n/a	n/a	n/a	14	14	4	3	7
2053.123046875	n/a	PROB	4204796	n/a	LTP386	ltpFR2	5	n/a	n/a	n/a	14	17	6	8	3
2055.45654296875	n/a	PROB	4209575	n/a	LTP386	ltpFR2	5	n/a	n/a	n/a	14	15	1	6	8
2056.888671875	n/a	PROB	4212508	n/a	LTP386	ltpFR2	5	n/a	n/a	n/a	14	23	5	9	9
2059.2724609375	n/a	PROB	4217390	n/a	LTP386	ltpFR2	5	n/a	n/a	n/a	14	15	5	7	3
2060.556640625	n/a	PROB	4220020	n/a	LTP386	ltpFR2	5	n/a	n/a	n/a	14	12	5	4	4
2062.87841796875	n/a	STOP	4224775	n/a	LTP386	ltpFR2	5	n/a	n/a	n/a	14	n/a	n/a	n/a	n/a
2066.056640625	n/a	REC_START	4231284	n/a	LTP386	ltpFR2	5	9	n/a	n/a	n/a	n/a	0	0	0
2066.92529296875	n/a	REC_WORD	4233063	wordpools/wasnorm_wordpool_576.txt	LTP386	ltpFR2	5	9	TYPIST	1532	n/a	n/a	0	0	0
2069.49755859375	n/a	REC_WORD	4238331	wordpools/wasnorm_wordpool_576.txt	LTP386	ltpFR2	5	9	LUMBER	848	n/a	n/a	0	0	0
2070.4970703125	n/a	REC_WORD	4240378	wordpools/wasnorm_wordpool_576.txt	LTP386	ltpFR2	5	9	COUNTY	389	n/a	n/a	0	0	0
2076.490234375	n/a	REC_WORD	4252652	wordpools/wasnorm_wordpool_576.txt	LTP386	ltpFR2	5	9	TURTLE	1522	n/a	n/a	0	0	0
2156.50146484375	n/a	WORD	4416515	wordpools/wasnorm_wordpool_576.txt	LTP386	ltpFR2	5	10	DANCER	437	n/a	n/a	0	0	0
2159.20166015625	n/a	WORD	4422045	wordpools/wasnorm_wordpool_576.txt	LTP386	ltpFR2	5	10	INMATE	738	n/a	n/a	0	0	0
2161.91748046875	n/a	WORD	4427607	wordpools/wasnorm_wordpool_576.txt	LTP386	ltpFR2	5	10	PEDAL	1037	n/a	n/a	0	0	0
2164.63427734375	n/a	WORD	4433171	wordpools/wasnorm_wordpool_576.txt	LTP386	ltpFR2	5	10	CORAL	378	n/a	n/a	0	0	0
2167.30126953125	n/a	WORD	4438633	wordpools/wasnorm_wordpool_576.txt	LTP386	ltpFR2	5	10	VALLEY	1545	n/a	n/a	0	0	0
2170.0673828125	n/a	WORD	4444298	wordpools/wasnorm_wordpool_576.txt	LTP386	ltpFR2	5	10	CAPTIVE	240	n/a	n/a	0	0	0
2172.71826171875	n/a	WORD	4449727	wordpools/wasnorm_wordpool_576.txt	LTP386	ltpFR2	5	10	GALLON	618	n/a	n/a	0	0	0
2175.318359375	n/a	WORD	4455052	wordpools/wasnorm_wordpool_576.txt	LTP386	ltpFR2	5	10	PORK	1108	n/a	n/a	0	0	0
2177.916015625	n/a	WORD	4460372	wordpools/wasnorm_wordpool_576.txt	LTP386	ltpFR2	5	10	MISTER	901	n/a	n/a	0	0	0
2180.6171875	n/a	WORD	4465904	wordpools/wasnorm_wordpool_576.txt	LTP386	ltpFR2	5	10	SOFTBALL	1343	n/a	n/a	0	0	0
2183.14990234375	n/a	WORD	4471091	wordpools/wasnorm_wordpool_576.txt	LTP386	ltpFR2	5	10	SCOTCH	1251	n/a	n/a	0	0	0
2185.80078125	n/a	WORD	4476520	wordpools/wasnorm_wordpool_576.txt	LTP386	ltpFR2	5	10	FLIPPER	580	n/a	n/a	0	0	0
2188.45068359375	n/a	WORD	4481947	wordpools/wasnorm_wordpool_576.txt	LTP386	ltpFR2	5	10	DOLPHIN	483	n/a	n/a	0	0	0
2190.8994140625	n/a	WORD	4486962	wordpools/wasnorm_wordpool_576.txt	LTP386	ltpFR2	5	10	PISTON	1076	n/a	n/a	0	0	0
2193.61669921875	n/a	WORD	4492527	wordpools/wasnorm_wordpool_576.txt	LTP386	ltpFR2	5	10	PEBBLE	1035	n/a	n/a	0	0	0
2196.16552734375	n/a	WORD	4497747	wordpools/wasnorm_wordpool_576.txt	LTP386	ltpFR2	5	10	TOASTER	1472	n/a	n/a	0	0	0
2198.6162109375	n/a	WORD	4502766	wordpools/wasnorm_wordpool_576.txt	LTP386	ltpFR2	5	10	SERVANT	1271	n/a	n/a	0	0	0
2201.13232421875	n/a	WORD	4507919	wordpools/wasnorm_wordpool_576.txt	LTP386	ltpFR2	5	10	XEROX	1628	n/a	n/a	0	0	0
2203.88232421875	n/a	WORD	4513551	wordpools/wasnorm_wordpool_576.txt	LTP386	ltpFR2	5	10	ROBOT	1200	n/a	n/a	0	0	0
2206.69921875	n/a	WORD	4519320	wordpools/wasnorm_wordpool_576.txt	LTP386	ltpFR2	5	10	SEAL	1262	n/a	n/a	0	0	0
2209.31591796875	n/a	WORD	4524679	wordpools/wasnorm_wordpool_576.txt	LTP386	ltpFR2	5	10	MAMMAL	861	n/a	n/a	0	0	0
2211.89794921875	n/a	WORD	4529967	wordpools/wasnorm_wordpool_576.txt	LTP386	ltpFR2	5	10	ARMY	39	n/a	n/a	0	0	0
2214.34912109375	n/a	WORD	4534987	wordpools/wasnorm_wordpool_576.txt	LTP386	ltpFR2	5	10	CUSTARD	429	n/a	n/a	0	0	0
2216.8330078125	n/a	WORD	4540074	wordpools/wasnorm_wordpool_576.txt	LTP386	ltpFR2	5	10	CABIN	211	n/a	n/a	0	0	0
2218.44873046875	n/a	START	4543383	n/a	LTP386	ltpFR2	5	n/a	n/a	n/a	15	n/a	n/a	n/a	n/a
2219.4345703125	n/a	DISTRACTOR	4545402	n/a	LTP386	ltpFR2	5	10	n/a	n/a	n/a	n/a	0	0	0
2219.44873046875	n/a	PROB	4545431	n/a	LTP386	ltpFR2	5	n/a	n/a	n/a	15	10	3	5	2
2221.765625	n/a	PROB	4550176	n/a	LTP386	ltpFR2	5	n/a	n/a	n/a	15	8	2	3	3
2223.49853515625	n/a	PROB	4553725	n/a	LTP386	ltpFR2	5	n/a	n/a	n/a	15	18	6	9	3
2225.13037109375	n/a	PROB	4557067	n/a	LTP386	ltpFR2	5	n/a	n/a	n/a	15	11	2	7	1
2227.03076171875	n/a	PROB	4560959	n/a	LTP386	ltpFR2	5	n/a	n/a	n/a	15	16	7	1	8
2229.064453125	n/a	PROB	4565124	n/a	LTP386	ltpFR2	5	n/a	n/a	n/a	15	17	5	9	3
2230.53125	n/a	PROB	4568128	n/a	LTP386	ltpFR2	5	n/a	n/a	n/a	15	15	9	1	5
2232.29833984375	n/a	PROB	4571747	n/a	LTP386	ltpFR2	5	n/a	n/a	n/a	15	15	9	6	2
2233.98046875	n/a	PROB	4575192	n/a	LTP386	ltpFR2	5	n/a	n/a	n/a	15	19	6	9	4
2235.748046875	n/a	PROB	4578812	n/a	LTP386	ltpFR2	5	n/a	n/a	n/a	15	20	3	8	9
2237.21435546875	n/a	PROB	4581815	n/a	LTP386	ltpFR2	5	n/a	n/a	n/a	15	16	9	3	4
2238.6640625	n/a	PROB	4584784	n/a	LTP386	ltpFR2	5	n/a	n/a	n/a	15	22	5	9	8
2240.5810546875	n/a	PROB	4588710	n/a	LTP386	ltpFR2	5	n/a	n/a	n/a	15	12	8	2	2
2241.95703125	n/a	STOP	4591528	n/a	LTP386	ltpFR2	5	n/a	n/a	n/a	15	n/a	n/a	n/a	n/a
2244.21484375	n/a	REC_START	4596152	n/a	LTP386	ltpFR2	5	10	n/a	n/a	n/a	n/a	0	0	0
2244.87890625	n/a	REC_WORD	4597512	wordpools/wasnorm_wordpool_576.txt	LTP386	ltpFR2	5	10	DOLPHIN	483	n/a	n/a	0	0	0
2245.3779296875	n/a	REC_WORD	4598534	wordpools/wasnorm_wordpool_576.txt	LTP386	ltpFR2	5	10	FLIPPER	580	n/a	n/a	0	0	0
2246.205078125	n/a	REC_WORD	4600228	wordpools/wasnorm_wordpool_576.txt	LTP386	ltpFR2	5	10	SEAL	1262	n/a	n/a	0	0	0
2247.373046875	n/a	REC_WORD	4602620	wordpools/wasnorm_wordpool_576.txt	LTP386	ltpFR2	5	10	MAMMAL	861	n/a	n/a	0	0	0
2249.27685546875	n/a	REC_WORD	4606519	wordpools/wasnorm_wordpool_576.txt	LTP386	ltpFR2	5	10	CABIN	211	n/a	n/a	0	0	0
2251.1650390625	n/a	REC_WORD	4610386	wordpools/wasnorm_wordpool_576.txt	LTP386	ltpFR2	5	10	CORAL	378	n/a	n/a	0	0	0
2251.93603515625	n/a	REC_WORD	4611965	wordpools/wasnorm_wordpool_576.txt	LTP386	ltpFR2	5	10	SOFTBALL	1343	n/a	n/a	0	0	0
2257.4814453125	n/a	REC_WORD	4623322	wordpools/wasnorm_wordpool_576.txt	LTP386	ltpFR2	5	10	SCOTCH	1251	n/a	n/a	0	0	0
2334.67724609375	n/a	WORD	4781419	wordpools/wasnorm_wordpool_576.txt	LTP386	ltpFR2	5	11	ZEBRA	1635	n/a	n/a	0	0	0
2337.4931640625	n/a	WORD	4787186	wordpools/wasnorm_wordpool_576.txt	LTP386	ltpFR2	5	11	BUGGY	188	n/a	n/a	0	0	0
2340.0419921875	n/a	WORD	4792406	wordpools/wasnorm_wordpool_576.txt	LTP386	ltpFR2	5	11	BEEF	113	n/a	n/a	0	0	0
2342.826171875	n/a	WORD	4798108	wordpools/wasnorm_wordpool_576.txt	LTP386	ltpFR2	5	11	STUDENT	1395	n/a	n/a	0	0	0
2345.3427734375	n/a	WORD	4803262	wordpools/wasnorm_wordpool_576.txt	LTP386	ltpFR2	5	11	AIRPLANE	12	n/a	n/a	0	0	0
2348.02490234375	n/a	WORD	4808755	wordpools/wasnorm_wordpool_576.txt	LTP386	ltpFR2	5	11	SADDLE	1221	n/a	n/a	0	0	0
2350.69287109375	n/a	WORD	4814219	wordpools/wasnorm_wordpool_576.txt	LTP386	ltpFR2	5	11	BURGLAR	200	n/a	n/a	0	0	0
2353.15869140625	n/a	WORD	4819269	wordpools/wasnorm_wordpool_576.txt	LTP386	ltpFR2	5	11	BLENDER	136	n/a	n/a	0	0	0
2355.759765625	n/a	WORD	4824596	wordpools/wasnorm_wordpool_576.txt	LTP386	ltpFR2	5	11	PUPIL	1143	n/a	n/a	0	0	0
2358.4423828125	n/a	WORD	4830090	wordpools/wasnorm_wordpool_576.txt	LTP386	ltpFR2	5	11	WRIST	1626	n/a	n/a	0	0	0
2360.87451171875	n/a	WORD	4835071	wordpools/wasnorm_wordpool_576.txt	LTP386	ltpFR2	5	11	CRAB	397	n/a	n/a	0	0	0
2363.34228515625	n/a	WORD	4840125	wordpools/wasnorm_wordpool_576.txt	LTP386	ltpFR2	5	11	PRIMATE	1123	n/a	n/a	0	0	0
2366.14111328125	n/a	WORD	4845857	wordpools/wasnorm_wordpool_576.txt	LTP386	ltpFR2	5	11	TABLE	1426	n/a	n/a	0	0	0
2368.75830078125	n/a	WORD	4851217	wordpools/wasnorm_wordpool_576.txt	LTP386	ltpFR2	5	11	PLATE	1086	n/a	n/a	0	0	0
2371.4921875	n/a	WORD	4856816	wordpools/wasnorm_wordpool_576.txt	LTP386	ltpFR2	5	11	STOMACH	1384	n/a	n/a	0	0	0
2374.09130859375	n/a	WORD	4862139	wordpools/wasnorm_wordpool_576.txt	LTP386	ltpFR2	5	11	PIMPLE	1071	n/a	n/a	0	0	0
2376.55810546875	n/a	WORD	4867191	wordpools/wasnorm_wordpool_576.txt	LTP386	ltpFR2	5	11	FINGER	567	n/a	n/a	0	0	0
2379.05712890625	n/a	WORD	4872309	wordpools/wasnorm_wordpool_576.txt	LTP386	ltpFR2	5	11	LAGOON	795	n/a	n/a	0	0	0
2381.72509765625	n/a	WORD	4877773	wordpools/wasnorm_wordpool_576.txt	LTP386	ltpFR2	5	11	LAKE	796	n/a	n/a	0	0	0
2384.474609375	n/a	WORD	4883404	wordpools/wasnorm_wordpool_576.txt	LTP386	ltpFR2	5	11	BREAST	171	n/a	n/a	0	0	0
2386.923828125	n/a	WORD	4888420	wordpools/wasnorm_wordpool_576.txt	LTP386	ltpFR2	5	11	LAPEL	800	n/a	n/a	0	0	0
2389.6748046875	n/a	WORD	4894054	wordpools/wasnorm_wordpool_576.txt	LTP386	ltpFR2	5	11	PADDING	999	n/a	n/a	0	0	0
2392.49072265625	n/a	WORD	4899821	wordpools/wasnorm_wordpool_576.txt	LTP386	ltpFR2	5	11	BEAVER	109	n/a	n/a	0	0	0
2395.2744140625	n/a	WORD	4905522	wordpools/wasnorm_wordpool_576.txt	LTP386	ltpFR2	5	11	SALAD	1224	n/a	n/a	0	0	0
2396.88916015625	n/a	START	4908829	n/a	LTP386	ltpFR2	5	n/a	n/a	n/a	16	n/a	n/a	n/a	n/a
2397.9072265625	n/a	DISTRACTOR	4910914	n/a	LTP386	ltpFR2	5	11	n/a	n/a	n/a	n/a	0	0	0
2397.92333984375	n/a	PROB	4910947	n/a	LTP386	ltpFR2	5	n/a	n/a	n/a	16	22	6	8	8
2403.22314453125	n/a	PROB	4921801	n/a	LTP386	ltpFR2	5	n/a	n/a	n/a	16	15	5	8	2
2404.67333984375	n/a	PROB	4924771	n/a	LTP386	ltpFR2	5	n/a	n/a	n/a	16	18	8	3	7
2406.05615234375	n/a	PROB	4927603	n/a	LTP386	ltpFR2	5	n/a	n/a	n/a	16	12	2	1	9
2407.740234375	n/a	PROB	4931052	n/a	LTP386	ltpFR2	5	n/a	n/a	n/a	16	7	2	1	4
2410.65673828125	n/a	PROB	4937025	n/a	LTP386	ltpFR2	5	n/a	n/a	n/a	16	12	4	1	7
2413.93896484375	n/a	PROB	4943747	n/a	LTP386	ltpFR2	5	n/a	n/a	n/a	16	16	9	4	3
2415.5400390625	n/a	PROB	4947026	n/a	LTP386	ltpFR2	5	n/a	n/a	n/a	16	13	2	4	7
2417.03857421875	n/a	PROB	4950095	n/a	LTP386	ltpFR2	5	n/a	n/a	n/a	16	26	9	9	8
2420.888671875	n/a	STOP	4957980	n/a	LTP386	ltpFR2	5	n/a	n/a	n/a	16	n/a	n/a	n/a	n/a
2422.673828125	n/a	REC_START	4961636	n/a	LTP386	ltpFR2	5	11	n/a	n/a	n/a	n/a	0	0	0
2424.45556640625	n/a	REC_WORD	4965285	wordpools/wasnorm_wordpool_576.txt	LTP386	ltpFR2	5	11	BEAVER	109	n/a	n/a	0	0	0
2426.07763671875	n/a	REC_WORD	4968607	wordpools/wasnorm_wordpool_576.txt	LTP386	ltpFR2	5	11	LAKE	796	n/a	n/a	0	0	0
2428.13037109375	n/a	REC_WORD	4972811	wordpools/wasnorm_wordpool_576.txt	LTP386	ltpFR2	5	11	SALAD	1224	n/a	n/a	0	0	0
2433.912109375	n/a	REC_WORD	4984652	wordpools/wasnorm_wordpool_576.txt	LTP386	ltpFR2	5	11	ZEBRA	1635	n/a	n/a	0	0	0
2435.6572265625	n/a	REC_WORD	4988226	wordpools/wasnorm_wordpool_576.txt	LTP386	ltpFR2	5	11	FINGER	567	n/a	n/a	0	0	0
2513.11767578125	n/a	WORD	5146865	wordpools/wasnorm_wordpool_576.txt	LTP386	ltpFR2	5	12	CONTRACT	368	n/a	n/a	0	0	0
2515.78466796875	n/a	WORD	5152327	wordpools/wasnorm_wordpool_576.txt	LTP386	ltpFR2	5	12	SHRUB	1299	n/a	n/a	0	0	0
2518.56884765625	n/a	WORD	5158029	wordpools/wasnorm_wordpool_576.txt	LTP386	ltpFR2	5	12	DRILL	497	n/a	n/a	0	0	0
2521.33447265625	n/a	WORD	5163693	wordpools/wasnorm_wordpool_576.txt	LTP386	ltpFR2	5	12	COUNTRY	388	n/a	n/a	0	0	0
2524.017578125	n/a	WORD	5169188	wordpools/wasnorm_wordpool_576.txt	LTP386	ltpFR2	5	12	EUROPE	541	n/a	n/a	0	0	0
2526.53466796875	n/a	WORD	5174343	wordpools/wasnorm_wordpool_576.txt	LTP386	ltpFR2	5	12	WOMAN	1620	n/a	n/a	0	0	0
2529.1005859375	n/a	WORD	5179598	wordpools/wasnorm_wordpool_576.txt	LTP386	ltpFR2	5	12	APRON	35	n/a	n/a	0	0	0
2531.7841796875	n/a	WORD	5185094	wordpools/wasnorm_wordpool_576.txt	LTP386	ltpFR2	5	12	TWIG	1527	n/a	n/a	0	0	0
2534.451171875	n/a	WORD	5190556	wordpools/wasnorm_wordpool_576.txt	LTP386	ltpFR2	5	12	PLUTO	1092	n/a	n/a	0	0	0
2536.98291015625	n/a	WORD	5195741	wordpools/wasnorm_wordpool_576.txt	LTP386	ltpFR2	5	12	CRATER	400	n/a	n/a	0	0	0
2539.451171875	n/a	WORD	5200796	wordpools/wasnorm_wordpool_576.txt	LTP386	ltpFR2	5	12	PATIENT	1024	n/a	n/a	0	0	0
2542.166015625	n/a	WORD	5206356	wordpools/wasnorm_wordpool_576.txt	LTP386	ltpFR2	5	12	NURSE	963	n/a	n/a	0	0	0
2544.86572265625	n/a	WORD	5211885	wordpools/wasnorm_wordpool_576.txt	LTP386	ltpFR2	5	12	DOUGHNUT	490	n/a	n/a	0	0	0
2547.64990234375	n/a	WORD	5217587	wordpools/wasnorm_wordpool_576.txt	LTP386	ltpFR2	5	12	CLOTHES	327	n/a	n/a	0	0	0
2550.2666015625	n/a	WORD	5222946	wordpools/wasnorm_wordpool_576.txt	LTP386	ltpFR2	5	12	COCOON	339	n/a	n/a	0	0	0
2553.03271484375	n/a	WORD	5228611	wordpools/wasnorm_wordpool_576.txt	LTP386	ltpFR2	5	12	ICEBERG	731	n/a	n/a	0	0	0
2555.849609375	n/a	WORD	5234380	wordpools/wasnorm_wordpool_576.txt	LTP386	ltpFR2	5	12	COCKTAIL	338	n/a	n/a	0	0	0
2558.58349609375	n/a	WORD	5239979	wordpools/wasnorm_wordpool_576.txt	LTP386	ltpFR2	5	12	SCARF	1246	n/a	n/a	0	0	0
2561.1484375	n/a	WORD	5245232	wordpools/wasnorm_wordpool_576.txt	LTP386	ltpFR2	5	12	CRITIC	410	n/a	n/a	0	0	0
2563.56640625	n/a	WORD	5250184	wordpools/wasnorm_wordpool_576.txt	LTP386	ltpFR2	5	12	EXPERT	543	n/a	n/a	0	0	0
2566.19921875	n/a	WORD	5255576	wordpools/wasnorm_wordpool_576.txt	LTP386	ltpFR2	5	12	SEAFOOD	1260	n/a	n/a	0	0	0
2568.84912109375	n/a	WORD	5261003	wordpools/wasnorm_wordpool_576.txt	LTP386	ltpFR2	5	12	BUREAU	199	n/a	n/a	0	0	0
2571.39892578125	n/a	WORD	5266225	wordpools/wasnorm_wordpool_576.txt	LTP386	ltpFR2	5	12	JEANS	752	n/a	n/a	0	0	0
2574.1650390625	n/a	WORD	5271890	wordpools/wasnorm_wordpool_576.txt	LTP386	ltpFR2	5	12	DONKEY	484	n/a	n/a	0	0	0
2575.78173828125	n/a	START	5275201	n/a	LTP386	ltpFR2	5	n/a	n/a	n/a	17	n/a	n/a	n/a	n/a
2576.86083984375	n/a	DISTRACTOR	5277411	n/a	LTP386	ltpFR2	5	12	n/a	n/a	n/a	n/a	0	0	0
2576.86474609375	n/a	PROB	5277419	n/a	LTP386	ltpFR2	5	n/a	n/a	n/a	17	17	2	6	9
2579.298828125	n/a	PROB	5282404	n/a	LTP386	ltpFR2	5	n/a	n/a	n/a	17	7	4	2	1
2581.4990234375	n/a	PROB	5286910	n/a	LTP386	ltpFR2	5	n/a	n/a	n/a	17	10	9	1	1
2582.83154296875	n/a	PROB	5289639	n/a	LTP386	ltpFR2	5	n/a	n/a	n/a	17	15	7	2	6
2585.2646484375	n/a	PROB	5294622	n/a	LTP386	ltpFR2	5	n/a	n/a	n/a	17	263	9	9	8
2589.44873046875	n/a	PROB	5303191	n/a	LTP386	ltpFR2	5	n/a	n/a	n/a	17	10	1	2	7
2590.98046875	n/a	PROB	5306328	n/a	LTP386	ltpFR2	5	n/a	n/a	n/a	17	24	6	9	9
2592.5146484375	n/a	PROB	5309470	n/a	LTP386	ltpFR2	5	n/a	n/a	n/a	17	12	5	1	6
2593.96337890625	n/a	PROB	5312437	n/a	LTP386	ltpFR2	5	n/a	n/a	n/a	17	10	1	1	8
2595.13037109375	n/a	PROB	5314827	n/a	LTP386	ltpFR2	5	n/a	n/a	n/a	17	16	6	4	6
2596.46435546875	n/a	PROB	5317559	n/a	LTP386	ltpFR2	5	n/a	n/a	n/a	17	21	8	8	5
2598.67822265625	n/a	STOP	5322093	n/a	LTP386	ltpFR2	5	n/a	n/a	n/a	17	n/a	n/a	n/a	n/a
2601.732421875	n/a	REC_START	5328348	n/a	LTP386	ltpFR2	5	12	n/a	n/a	n/a	n/a	0	0	0
2607.23486328125	n/a	REC_WORD	5339617	wordpools/wasnorm_wordpool_576.txt	LTP386	ltpFR2	5	12	NURSE	963	n/a	n/a	0	0	0
2608.208984375	n/a	REC_WORD	5341612	wordpools/wasnorm_wordpool_576.txt	LTP386	ltpFR2	5	12	CLOTHES	327	n/a	n/a	0	0	0
2613.24560546875	n/a	REC_WORD	5351927	wordpools/wasnorm_wordpool_576.txt	LTP386	ltpFR2	5	12	CONTACT	-1	n/a	n/a	0	0	0
2616.44677734375	n/a	REC_WORD	5358483	wordpools/wasnorm_wordpool_576.txt	LTP386	ltpFR2	5	12	PATIENT	1024	n/a	n/a	0	0	0
2624.5263671875	n/a	REC_WORD	5375030	wordpools/wasnorm_wordpool_576.txt	LTP386	ltpFR2	5	12	BRANCH	168	n/a	n/a	0	0	0
2627.814453125	n/a	REC_WORD	5381764	wordpools/wasnorm_wordpool_576.txt	LTP386	ltpFR2	5	12	COCKTAIL	338	n/a	n/a	0	0	0
2692.193359375	n/a	WORD	5513612	wordpools/wasnorm_wordpool_576.txt	LTP386	ltpFR2	5	13	STOVE	1388	n/a	n/a	0	0	0
2694.67626953125	n/a	WORD	5518697	wordpools/wasnorm_wordpool_576.txt	LTP386	ltpFR2	5	13	SCULPTURE	1258	n/a	n/a	0	0	0
2697.1591796875	n/a	WORD	5523782	wordpools/wasnorm_wordpool_576.txt	LTP386	ltpFR2	5	13	SNAIL	1332	n/a	n/a	0	0	0
2699.7431640625	n/a	WORD	5529074	wordpools/wasnorm_wordpool_576.txt	LTP386	ltpFR2	5	13	FREEZER	604	n/a	n/a	0	0	0
2702.2099609375	n/a	WORD	5534126	wordpools/wasnorm_wordpool_576.txt	LTP386	ltpFR2	5	13	DUSTPAN	509	n/a	n/a	0	0	0
2705.00927734375	n/a	WORD	5539859	wordpools/wasnorm_wordpool_576.txt	LTP386	ltpFR2	5	13	LAVA	804	n/a	n/a	0	0	0
2707.72607421875	n/a	WORD	5545423	wordpools/wasnorm_wordpool_576.txt	LTP386	ltpFR2	5	13	PUDDING	1139	n/a	n/a	0	0	0
2710.44287109375	n/a	WORD	5550987	wordpools/wasnorm_wordpool_576.txt	LTP386	ltpFR2	5	13	KIDNEY	776	n/a	n/a	0	0	0
2713.0576171875	n/a	WORD	5556342	wordpools/wasnorm_wordpool_576.txt	LTP386	ltpFR2	5	13	CHEST	295	n/a	n/a	0	0	0
2715.82568359375	n/a	WORD	5562011	wordpools/wasnorm_wordpool_576.txt	LTP386	ltpFR2	5	13	PARSLEY	1016	n/a	n/a	0	0	0
2718.40869140625	n/a	WORD	5567301	wordpools/wasnorm_wordpool_576.txt	LTP386	ltpFR2	5	13	DRAWING	494	n/a	n/a	0	0	0
2721.20849609375	n/a	WORD	5573035	wordpools/wasnorm_wordpool_576.txt	LTP386	ltpFR2	5	13	SLIME	1327	n/a	n/a	0	0	0
2723.95751953125	n/a	WORD	5578665	wordpools/wasnorm_wordpool_576.txt	LTP386	ltpFR2	5	13	APPLE	33	n/a	n/a	0	0	0
2726.75830078125	n/a	WORD	5584401	wordpools/wasnorm_wordpool_576.txt	LTP386	ltpFR2	5	13	FRUIT	610	n/a	n/a	0	0	0
2729.34130859375	n/a	WORD	5589691	wordpools/wasnorm_wordpool_576.txt	LTP386	ltpFR2	5	13	PIANO	1057	n/a	n/a	0	0	0
2731.990234375	n/a	WORD	5595116	wordpools/wasnorm_wordpool_576.txt	LTP386	ltpFR2	5	13	QUAIL	1147	n/a	n/a	0	0	0
2734.44091796875	n/a	WORD	5600135	wordpools/wasnorm_wordpool_576.txt	LTP386	ltpFR2	5	13	BEAST	108	n/a	n/a	0	0	0
2737.1572265625	n/a	WORD	5605698	wordpools/wasnorm_wordpool_576.txt	LTP386	ltpFR2	5	13	FRIAR	605	n/a	n/a	0	0	0
2739.7412109375	n/a	WORD	5610990	wordpools/wasnorm_wordpool_576.txt	LTP386	ltpFR2	5	13	CROSS	413	n/a	n/a	0	0	0
2742.52490234375	n/a	WORD	5616691	wordpools/wasnorm_wordpool_576.txt	LTP386	ltpFR2	5	13	CARRIAGE	248	n/a	n/a	0	0	0
2745.02294921875	n/a	WORD	5621807	wordpools/wasnorm_wordpool_576.txt	LTP386	ltpFR2	5	13	HOSTESS	723	n/a	n/a	0	0	0
2747.77392578125	n/a	WORD	5627441	wordpools/wasnorm_wordpool_576.txt	LTP386	ltpFR2	5	13	COURSE	390	n/a	n/a	0	0	0
2750.57373046875	n/a	WORD	5633175	wordpools/wasnorm_wordpool_576.txt	LTP386	ltpFR2	5	13	CHAMPAGNE	278	n/a	n/a	0	0	0
2753.12255859375	n/a	WORD	5638395	wordpools/wasnorm_wordpool_576.txt	LTP386	ltpFR2	5	13	MILDEW	893	n/a	n/a	0	0	0
2754.724609375	n/a	START	5641676	n/a	LTP386	ltpFR2	5	n/a	n/a	n/a	18	n/a	n/a	n/a	n/a
2755.60546875	n/a	DISTRACTOR	5643480	n/a	LTP386	ltpFR2	5	13	n/a	n/a	n/a	n/a	0	0	0
2755.607421875	n/a	PROB	5643484	n/a	LTP386	ltpFR2	5	n/a	n/a	n/a	18	11	4	2	5
2757.92236328125	n/a	PROB	5648225	n/a	LTP386	ltpFR2	5	n/a	n/a	n/a	18	6	2	1	3
2759.70751953125	n/a	PROB	5651881	n/a	LTP386	ltpFR2	5	n/a	n/a	n/a	18	18	5	5	8
2760.9892578125	n/a	PROB	5654506	n/a	LTP386	ltpFR2	5	n/a	n/a	n/a	18	11	5	2	4
2763.5732421875	n/a	PROB	5659798	n/a	LTP386	ltpFR2	5	n/a	n/a	n/a	18	16	3	6	7
2765.490234375	n/a	PROB	5663724	n/a	LTP386	ltpFR2	5	n/a	n/a	n/a	18	14	4	2	8
2766.97216796875	n/a	PROB	5666759	n/a	LTP386	ltpFR2	5	n/a	n/a	n/a	18	21	9	7	5
2768.921875	n/a	PROB	5670752	n/a	LTP386	ltpFR2	5	n/a	n/a	n/a	18	14	2	5	7
2771.0390625	n/a	PROB	5675088	n/a	LTP386	ltpFR2	5	n/a	n/a	n/a	18	5	3	1	1
2772.1220703125	n/a	PROB	5677306	n/a	LTP386	ltpFR2	5	n/a	n/a	n/a	18	17	8	4	5
2773.7060546875	n/a	PROB	5680550	n/a	LTP386	ltpFR2	5	n/a	n/a	n/a	18	10	2	3	5
2778.7236328125	n/a	STOP	5690826	n/a	LTP386	ltpFR2	5	n/a	n/a	n/a	18	n/a	n/a	n/a	n/a
2780.556640625	n/a	REC_START	5694580	n/a	LTP386	ltpFR2	5	13	n/a	n/a	n/a	n/a	0	0	0
2782.86962890625	n/a	REC_WORD	5699317	wordpools/wasnorm_wordpool_576.txt	LTP386	ltpFR2	5	13	SCULPTURE	1258	n/a	n/a	0	0	0
2783.86181640625	n/a	REC_WORD	5701349	wordpools/wasnorm_wordpool_576.txt	LTP386	ltpFR2	5	13	STOVE	1388	n/a	n/a	0	0	0
2784.86181640625	n/a	REC_WORD_VV	5703397	wordpools/wasnorm_wordpool_576.txt	LTP386	ltpFR2	5	13	<>	-1	n/a	n/a	0	0	0
2784.978515625	n/a	REC_WORD	5703636	wordpools/wasnorm_wordpool_576.txt	LTP386	ltpFR2	5	13	SLIME	1327	n/a	n/a	0	0	0
2786.92138671875	n/a	REC_WORD	5707615	wordpools/wasnorm_wordpool_576.txt	LTP386	ltpFR2	5	13	FREEZER	604	n/a	n/a	0	0	0
2790.240234375	n/a	REC_WORD	5714412	wordpools/wasnorm_wordpool_576.txt	LTP386	ltpFR2	5	13	HOSTESS	723	n/a	n/a	0	0	0
2795.21337890625	n/a	REC_WORD	5724597	wordpools/wasnorm_wordpool_576.txt	LTP386	ltpFR2	5	13	CHAMPAGNE	278	n/a	n/a	0	0	0
2799.5390625	n/a	REC_WORD	5733456	wordpools/wasnorm_wordpool_576.txt	LTP386	ltpFR2	5	13	APPLE	33	n/a	n/a	0	0	0
2800.81494140625	n/a	REC_WORD	5736069	wordpools/wasnorm_wordpool_576.txt	LTP386	ltpFR2	5	13	FRIAR	605	n/a	n/a	0	0	0
2804.88623046875	n/a	REC_WORD	5744407	wordpools/wasnorm_wordpool_576.txt	LTP386	ltpFR2	5	13	CARRIAGE	248	n/a	n/a	0	0	0
2871.0009765625	n/a	DISTRACTOR	5879810	n/a	LTP386	ltpFR2	5	14	n/a	n/a	n/a	n/a	0	0	0
2871.0009765625	n/a	START	5879810	n/a	LTP386	ltpFR2	5	n/a	n/a	n/a	19	n/a	n/a	n/a	n/a
2871.01806640625	n/a	PROB	5879845	n/a	LTP386	ltpFR2	5	n/a	n/a	n/a	19	18	6	4	8
2872.9169921875	n/a	PROB	5883734	n/a	LTP386	ltpFR2	5	n/a	n/a	n/a	19	18	3	7	8
2874.083984375	n/a	PROB	5886124	n/a	LTP386	ltpFR2	5	n/a	n/a	n/a	19	15	5	1	9
2875.56787109375	n/a	PROB	5889163	n/a	LTP386	ltpFR2	5	n/a	n/a	n/a	19	16	2	8	6
2877.06689453125	n/a	PROB	5892233	n/a	LTP386	ltpFR2	5	n/a	n/a	n/a	19	24	6	9	9
2879.45166015625	n/a	PROB	5897117	n/a	LTP386	ltpFR2	5	n/a	n/a	n/a	19	14	8	2	4
2881.03369140625	n/a	PROB	5900357	n/a	LTP386	ltpFR2	5	n/a	n/a	n/a	19	17	4	8	3
2883.1845703125	n/a	PROB	5904762	n/a	LTP386	ltpFR2	5	n/a	n/a	n/a	19	16	4	3	9
2885.03369140625	n/a	PROB	5908549	n/a	LTP386	ltpFR2	5	n/a	n/a	n/a	19	12	1	4	7
2886.5673828125	n/a	PROB	5911690	n/a	LTP386	ltpFR2	5	n/a	n/a	n/a	19	19	3	9	7
2888.4345703125	n/a	PROB	5915514	n/a	LTP386	ltpFR2	5	n/a	n/a	n/a	19	13	1	9	3
2889.96630859375	n/a	PROB	5918651	n/a	LTP386	ltpFR2	5	n/a	n/a	n/a	19	20	4	8	8
2895.00048828125	n/a	STOP	5928961	n/a	LTP386	ltpFR2	5	n/a	n/a	n/a	19	n/a	n/a	n/a	n/a
2895.94921875	n/a	WORD	5930904	wordpools/wasnorm_wordpool_576.txt	LTP386	ltpFR2	5	14	TWISTER	1530	n/a	n/a	0	0	0
2898.4169921875	n/a	WORD	5935958	wordpools/wasnorm_wordpool_576.txt	LTP386	ltpFR2	5	14	FOREST	593	n/a	n/a	0	0	0
2901.09912109375	n/a	WORD	5941451	wordpools/wasnorm_wordpool_576.txt	LTP386	ltpFR2	5	14	TEMPLE	1448	n/a	n/a	0	0	0
2903.8828125	n/a	WORD	5947152	wordpools/wasnorm_wordpool_576.txt	LTP386	ltpFR2	5	14	ELBOW	520	n/a	n/a	0	0	0
2906.53369140625	n/a	WORD	5952581	wordpools/wasnorm_wordpool_576.txt	LTP386	ltpFR2	5	14	HIGHWAY	707	n/a	n/a	0	0	0
2909.14892578125	n/a	WORD	5957937	wordpools/wasnorm_wordpool_576.txt	LTP386	ltpFR2	5	14	OUTDOORS	987	n/a	n/a	0	0	0
2911.83251953125	n/a	WORD	5963433	wordpools/wasnorm_wordpool_576.txt	LTP386	ltpFR2	5	14	BROOK	177	n/a	n/a	0	0	0
2914.4326171875	n/a	WORD	5968758	wordpools/wasnorm_wordpool_576.txt	LTP386	ltpFR2	5	14	MUMMY	932	n/a	n/a	0	0	0
2917.08154296875	n/a	WORD	5974183	wordpools/wasnorm_wordpool_576.txt	LTP386	ltpFR2	5	14	FLASK	576	n/a	n/a	0	0	0
2919.732421875	n/a	WORD	5979612	wordpools/wasnorm_wordpool_576.txt	LTP386	ltpFR2	5	14	DRINK	498	n/a	n/a	0	0	0
2922.44921875	n/a	WORD	5985176	wordpools/wasnorm_wordpool_576.txt	LTP386	ltpFR2	5	14	FOOT	590	n/a	n/a	0	0	0
2924.9482421875	n/a	WORD	5990294	wordpools/wasnorm_wordpool_576.txt	LTP386	ltpFR2	5	14	RATTLE	1170	n/a	n/a	0	0	0
2927.46630859375	n/a	WORD	5995451	wordpools/wasnorm_wordpool_576.txt	LTP386	ltpFR2	5	14	KNIFE	785	n/a	n/a	0	0	0
2930.21630859375	n/a	WORD	6001083	wordpools/wasnorm_wordpool_576.txt	LTP386	ltpFR2	5	14	BLADE	134	n/a	n/a	0	0	0
2933.01416015625	n/a	WORD	6006813	wordpools/wasnorm_wordpool_576.txt	LTP386	ltpFR2	5	14	BLOUSE	139	n/a	n/a	0	0	0
2935.6650390625	n/a	WORD	6012242	wordpools/wasnorm_wordpool_576.txt	LTP386	ltpFR2	5	14	VELVET	1555	n/a	n/a	0	0	0
2938.298828125	n/a	WORD	6017636	wordpools/wasnorm_wordpool_576.txt	LTP386	ltpFR2	5	14	COBRA	336	n/a	n/a	0	0	0
2940.84912109375	n/a	WORD	6022859	wordpools/wasnorm_wordpool_576.txt	LTP386	ltpFR2	5	14	CYCLONE	431	n/a	n/a	0	0	0
2943.6318359375	n/a	WORD	6028558	wordpools/wasnorm_wordpool_576.txt	LTP386	ltpFR2	5	14	NEUTRON	947	n/a	n/a	0	0	0
2946.23193359375	n/a	WORD	6033883	wordpools/wasnorm_wordpool_576.txt	LTP386	ltpFR2	5	14	MAILBOX	857	n/a	n/a	0	0	0
2948.9306640625	n/a	WORD	6039410	wordpools/wasnorm_wordpool_576.txt	LTP386	ltpFR2	5	14	BOX	159	n/a	n/a	0	0	0
2951.46435546875	n/a	WORD	6044599	wordpools/wasnorm_wordpool_576.txt	LTP386	ltpFR2	5	14	HELMET	702	n/a	n/a	0	0	0
2954.0302734375	n/a	WORD	6049854	wordpools/wasnorm_wordpool_576.txt	LTP386	ltpFR2	5	14	COWBOY	395	n/a	n/a	0	0	0
2956.79736328125	n/a	WORD	6055521	wordpools/wasnorm_wordpool_576.txt	LTP386	ltpFR2	5	14	ORCHID	982	n/a	n/a	0	0	0
2958.41455078125	n/a	START	6058833	n/a	LTP386	ltpFR2	5	n/a	n/a	n/a	20	n/a	n/a	n/a	n/a
2959.25341796875	n/a	DISTRACTOR	6060551	n/a	LTP386	ltpFR2	5	14	n/a	n/a	n/a	n/a	0	0	0
2959.26416015625	n/a	PROB	6060573	n/a	LTP386	ltpFR2	5	n/a	n/a	n/a	20	20	8	6	6
2960.93017578125	n/a	PROB	6063985	n/a	LTP386	ltpFR2	5	n/a	n/a	n/a	20	13	7	4	2
2962.197265625	n/a	PROB	6066580	n/a	LTP386	ltpFR2	5	n/a	n/a	n/a	20	11	4	3	4
2963.6640625	n/a	PROB	6069584	n/a	LTP386	ltpFR2	5	n/a	n/a	n/a	20	19	6	9	4
2965.6640625	n/a	PROB	6073680	n/a	LTP386	ltpFR2	5	n/a	n/a	n/a	20	4	2	1	1
2966.7470703125	n/a	PROB	6075898	n/a	LTP386	ltpFR2	5	n/a	n/a	n/a	20	13	6	5	2
2968.2138671875	n/a	PROB	6078902	n/a	LTP386	ltpFR2	5	n/a	n/a	n/a	20	13	7	3	3
2969.48095703125	n/a	PROB	6081497	n/a	LTP386	ltpFR2	5	n/a	n/a	n/a	20	24	8	7	7
2972.51416015625	n/a	PROB	6087709	n/a	LTP386	ltpFR2	5	n/a	n/a	n/a	20	12	4	5	3
2974.19677734375	n/a	PROB	6091155	n/a	LTP386	ltpFR2	5	n/a	n/a	n/a	20	14	8	1	5
2977.12890625	n/a	PROB	6097160	n/a	LTP386	ltpFR2	5	n/a	n/a	n/a	20	17	7	9	1
2978.6796875	n/a	PROB	6100336	n/a	LTP386	ltpFR2	5	n/a	n/a	n/a	20	17	7	9	1
2979.9287109375	n/a	PROB	6102894	n/a	LTP386	ltpFR2	5	n/a	n/a	n/a	20	11	4	6	1
2981.1484375	n/a	STOP	6105392	n/a	LTP386	ltpFR2	5	n/a	n/a	n/a	20	n/a	n/a	n/a	n/a
2984.3134765625	n/a	REC_START	6111874	n/a	LTP386	ltpFR2	5	14	n/a	n/a	n/a	n/a	0	0	0
2998.72412109375	n/a	REC_WORD	6141387	wordpools/wasnorm_wordpool_576.txt	LTP386	ltpFR2	5	14	FOOT	590	n/a	n/a	0	0	0
3000.05810546875	n/a	REC_WORD	6144119	wordpools/wasnorm_wordpool_576.txt	LTP386	ltpFR2	5	14	KNIFE	785	n/a	n/a	0	0	0
3001.17724609375	n/a	REC_WORD	6146411	wordpools/wasnorm_wordpool_576.txt	LTP386	ltpFR2	5	14	BLADE	134	n/a	n/a	0	0	0
3006.97900390625	n/a	REC_WORD	6158293	wordpools/wasnorm_wordpool_576.txt	LTP386	ltpFR2	5	14	CHAMPAGNE	278	n/a	n/a	0	0	0
3074.77587890625	n/a	DISTRACTOR	6297141	n/a	LTP386	ltpFR2	5	15	n/a	n/a	n/a	n/a	0	0	0
3074.77587890625	n/a	START	6297141	n/a	LTP386	ltpFR2	5	n/a	n/a	n/a	21	n/a	n/a	n/a	n/a
3074.7919921875	n/a	PROB	6297174	n/a	LTP386	ltpFR2	5	n/a	n/a	n/a	21	15	1	9	5
3076.52587890625	n/a	PROB	6300725	n/a	LTP386	ltpFR2	5	n/a	n/a	n/a	21	11	1	4	6
3077.6416015625	n/a	PROB	6303010	n/a	LTP386	ltpFR2	5	n/a	n/a	n/a	21	21	8	4	9
3079.69189453125	n/a	PROB	6307209	n/a	LTP386	ltpFR2	5	n/a	n/a	n/a	21	9	7	1	1
3082.0078125	n/a	PROB	6311952	n/a	LTP386	ltpFR2	5	n/a	n/a	n/a	21	26	8	8	9
3083.84130859375	n/a	PROB	6315707	n/a	LTP386	ltpFR2	5	n/a	n/a	n/a	21	1	8	9	5
3086.79150390625	n/a	PROB	6321749	n/a	LTP386	ltpFR2	5	n/a	n/a	n/a	21	11	9	5	9
3088.87451171875	n/a	PROB	6326015	n/a	LTP386	ltpFR2	5	n/a	n/a	n/a	21	9	2	5	2
3091.62548828125	n/a	PROB	6331649	n/a	LTP386	ltpFR2	5	n/a	n/a	n/a	21	13	2	7	4
3092.92333984375	n/a	PROB	6334307	n/a	LTP386	ltpFR2	5	n/a	n/a	n/a	21	15	6	4	5
3095.95703125	n/a	PROB	6340520	n/a	LTP386	ltpFR2	5	n/a	n/a	n/a	21	13	8	4	1
3097.79833984375	n/a	STOP	6344291	n/a	LTP386	ltpFR2	5	n/a	n/a	n/a	21	n/a	n/a	n/a	n/a
3099.8408203125	n/a	WORD	6348474	wordpools/wasnorm_wordpool_576.txt	LTP386	ltpFR2	5	15	SURVEY	1414	n/a	n/a	0	0	0
3102.64111328125	n/a	WORD	6354209	wordpools/wasnorm_wordpool_576.txt	LTP386	ltpFR2	5	15	REBEL	1172	n/a	n/a	0	0	0
3105.3740234375	n/a	WORD	6359806	wordpools/wasnorm_wordpool_576.txt	LTP386	ltpFR2	5	15	FLAG	573	n/a	n/a	0	0	0
3108.15771484375	n/a	WORD	6365507	wordpools/wasnorm_wordpool_576.txt	LTP386	ltpFR2	5	15	RACKET	1155	n/a	n/a	0	0	0
3110.673828125	n/a	WORD	6370660	wordpools/wasnorm_wordpool_576.txt	LTP386	ltpFR2	5	15	BEAKER	104	n/a	n/a	0	0	0
3113.3564453125	n/a	WORD	6376154	wordpools/wasnorm_wordpool_576.txt	LTP386	ltpFR2	5	15	YARN	1631	n/a	n/a	0	0	0
3116.1064453125	n/a	WORD	6381786	wordpools/wasnorm_wordpool_576.txt	LTP386	ltpFR2	5	15	UNCLE	1536	n/a	n/a	0	0	0
3118.806640625	n/a	WORD	6387316	wordpools/wasnorm_wordpool_576.txt	LTP386	ltpFR2	5	15	PARROT	1015	n/a	n/a	0	0	0
3121.306640625	n/a	WORD	6392436	wordpools/wasnorm_wordpool_576.txt	LTP386	ltpFR2	5	15	IGLOO	734	n/a	n/a	0	0	0
3123.79052734375	n/a	WORD	6397523	wordpools/wasnorm_wordpool_576.txt	LTP386	ltpFR2	5	15	CONVICT	371	n/a	n/a	0	0	0
3126.5400390625	n/a	WORD	6403154	wordpools/wasnorm_wordpool_576.txt	LTP386	ltpFR2	5	15	AIRPORT	13	n/a	n/a	0	0	0
3129.30615234375	n/a	WORD	6408819	wordpools/wasnorm_wordpool_576.txt	LTP386	ltpFR2	5	15	COFFEE	341	n/a	n/a	0	0	0
3131.98828125	n/a	WORD	6414312	wordpools/wasnorm_wordpool_576.txt	LTP386	ltpFR2	5	15	NECKLACE	940	n/a	n/a	0	0	0
3134.68994140625	n/a	WORD	6419845	wordpools/wasnorm_wordpool_576.txt	LTP386	ltpFR2	5	15	MARROW	872	n/a	n/a	0	0	0
3137.48876953125	n/a	WORD	6425577	wordpools/wasnorm_wordpool_576.txt	LTP386	ltpFR2	5	15	PILOT	1070	n/a	n/a	0	0	0
3140.22265625	n/a	WORD	6431176	wordpools/wasnorm_wordpool_576.txt	LTP386	ltpFR2	5	15	SLIDE	1326	n/a	n/a	0	0	0
3142.921875	n/a	WORD	6436704	wordpools/wasnorm_wordpool_576.txt	LTP386	ltpFR2	5	15	DIVER	476	n/a	n/a	0	0	0
3145.505859375	n/a	WORD	6441996	wordpools/wasnorm_wordpool_576.txt	LTP386	ltpFR2	5	15	SHIRT	1287	n/a	n/a	0	0	0
3147.98779296875	n/a	WORD	6447079	wordpools/wasnorm_wordpool_576.txt	LTP386	ltpFR2	5	15	POSTAGE	1113	n/a	n/a	0	0	0
3150.60546875	n/a	WORD	6452440	wordpools/wasnorm_wordpool_576.txt	LTP386	ltpFR2	5	15	PACKAGE	997	n/a	n/a	0	0	0
3153.13720703125	n/a	WORD	6457625	wordpools/wasnorm_wordpool_576.txt	LTP386	ltpFR2	5	15	PERCH	1048	n/a	n/a	0	0	0
3155.60546875	n/a	WORD	6462680	wordpools/wasnorm_wordpool_576.txt	LTP386	ltpFR2	5	15	HAWK	692	n/a	n/a	0	0	0
3158.05419921875	n/a	WORD	6467695	wordpools/wasnorm_wordpool_576.txt	LTP386	ltpFR2	5	15	FIREMAN	569	n/a	n/a	0	0	0
3160.63818359375	n/a	WORD	6472987	wordpools/wasnorm_wordpool_576.txt	LTP386	ltpFR2	5	15	BODY	145	n/a	n/a	0	0	0
3162.25537109375	n/a	START	6476299	n/a	LTP386	ltpFR2	5	n/a	n/a	n/a	22	n/a	n/a	n/a	n/a
3163.2421875	n/a	DISTRACTOR	6478320	n/a	LTP386	ltpFR2	5	15	n/a	n/a	n/a	n/a	0	0	0
3163.25537109375	n/a	PROB	6478347	n/a	LTP386	ltpFR2	5	n/a	n/a	n/a	22	15	1	7	7
3164.837890625	n/a	PROB	6481588	n/a	LTP386	ltpFR2	5	n/a	n/a	n/a	22	16	9	6	1
3166.60498046875	n/a	PROB	6485207	n/a	LTP386	ltpFR2	5	n/a	n/a	n/a	22	6	2	2	2
3167.77099609375	n/a	PROB	6487595	n/a	LTP386	ltpFR2	5	n/a	n/a	n/a	22	17	6	3	8
3169.37109375	n/a	PROB	6490872	n/a	LTP386	ltpFR2	5	n/a	n/a	n/a	22	18	8	9	1
3170.705078125	n/a	PROB	6493604	n/a	LTP386	ltpFR2	5	n/a	n/a	n/a	22	19	4	7	8
3172.5380859375	n/a	PROB	6497358	n/a	LTP386	ltpFR2	5	n/a	n/a	n/a	22	14	4	1	9
3174.10400390625	n/a	PROB	6500565	n/a	LTP386	ltpFR2	5	n/a	n/a	n/a	22	18	7	5	6
3176.220703125	n/a	PROB	6504900	n/a	LTP386	ltpFR2	5	n/a	n/a	n/a	22	13	8	3	2
3178.3037109375	n/a	PROB	6509166	n/a	LTP386	ltpFR2	5	n/a	n/a	n/a	22	19	9	7	3
3180.5205078125	n/a	PROB	6513706	n/a	LTP386	ltpFR2	5	n/a	n/a	n/a	22	17	8	1	8
3182.03662109375	n/a	PROB	6516811	n/a	LTP386	ltpFR2	5	n/a	n/a	n/a	22	10	3	1	6
3183.6875	n/a	PROB	6520192	n/a	LTP386	ltpFR2	5	n/a	n/a	n/a	22	9	7	1	1
3184.8212890625	n/a	STOP	6522514	n/a	LTP386	ltpFR2	5	n/a	n/a	n/a	22	n/a	n/a	n/a	n/a
3188.13623046875	n/a	REC_START	6529303	n/a	LTP386	ltpFR2	5	15	n/a	n/a	n/a	n/a	0	0	0
3193.8759765625	n/a	REC_WORD	6541058	wordpools/wasnorm_wordpool_576.txt	LTP386	ltpFR2	5	15	SHIRT	1287	n/a	n/a	0	0	0
3199.69580078125	n/a	REC_WORD	6552977	wordpools/wasnorm_wordpool_576.txt	LTP386	ltpFR2	5	15	IGLOO	734	n/a	n/a	0	0	0
3205.51806640625	n/a	REC_WORD	6564901	wordpools/wasnorm_wordpool_576.txt	LTP386	ltpFR2	5	15	PLIERS	1089	n/a	n/a	0	0	0
3278.58251953125	n/a	WORD	6714537	wordpools/wasnorm_wordpool_576.txt	LTP386	ltpFR2	5	16	MEDAL	885	n/a	n/a	0	0	0
3281.04833984375	n/a	WORD	6719587	wordpools/wasnorm_wordpool_576.txt	LTP386	ltpFR2	5	16	MASK	876	n/a	n/a	0	0	0
3283.79931640625	n/a	WORD	6725221	wordpools/wasnorm_wordpool_576.txt	LTP386	ltpFR2	5	16	BRIEFCASE	175	n/a	n/a	0	0	0
3286.5654296875	n/a	WORD	6730886	wordpools/wasnorm_wordpool_576.txt	LTP386	ltpFR2	5	16	BISON	131	n/a	n/a	0	0	0
3289.16552734375	n/a	WORD	6736211	wordpools/wasnorm_wordpool_576.txt	LTP386	ltpFR2	5	16	PENGUIN	1044	n/a	n/a	0	0	0
3291.96435546875	n/a	WORD	6741943	wordpools/wasnorm_wordpool_576.txt	LTP386	ltpFR2	5	16	MATTRESS	879	n/a	n/a	0	0	0
3294.615234375	n/a	WORD	6747372	wordpools/wasnorm_wordpool_576.txt	LTP386	ltpFR2	5	16	LOVER	846	n/a	n/a	0	0	0
3297.4150390625	n/a	WORD	6753106	wordpools/wasnorm_wordpool_576.txt	LTP386	ltpFR2	5	16	ASIA	46	n/a	n/a	0	0	0
3300.09814453125	n/a	WORD	6758601	wordpools/wasnorm_wordpool_576.txt	LTP386	ltpFR2	5	16	LONDON	843	n/a	n/a	0	0	0
3302.5478515625	n/a	WORD	6763618	wordpools/wasnorm_wordpool_576.txt	LTP386	ltpFR2	5	16	HAMPER	682	n/a	n/a	0	0	0
3305.33203125	n/a	WORD	6769320	wordpools/wasnorm_wordpool_576.txt	LTP386	ltpFR2	5	16	STATUE	1374	n/a	n/a	0	0	0
3307.81494140625	n/a	WORD	6774405	wordpools/wasnorm_wordpool_576.txt	LTP386	ltpFR2	5	16	SERVER	1272	n/a	n/a	0	0	0
3310.3974609375	n/a	WORD	6779694	wordpools/wasnorm_wordpool_576.txt	LTP386	ltpFR2	5	16	OX	994	n/a	n/a	0	0	0
3313.1474609375	n/a	WORD	6785326	wordpools/wasnorm_wordpool_576.txt	LTP386	ltpFR2	5	16	COMPASS	358	n/a	n/a	0	0	0
3315.88037109375	n/a	WORD	6790923	wordpools/wasnorm_wordpool_576.txt	LTP386	ltpFR2	5	16	KITCHEN	778	n/a	n/a	0	0	0
3318.564453125	n/a	WORD	6796420	wordpools/wasnorm_wordpool_576.txt	LTP386	ltpFR2	5	16	ROCKET	1202	n/a	n/a	0	0	0
3321.23046875	n/a	WORD	6801880	wordpools/wasnorm_wordpool_576.txt	LTP386	ltpFR2	5	16	DAISY	435	n/a	n/a	0	0	0
3323.9130859375	n/a	WORD	6807374	wordpools/wasnorm_wordpool_576.txt	LTP386	ltpFR2	5	16	GAZELLE	628	n/a	n/a	0	0	0
3326.56396484375	n/a	WORD	6812803	wordpools/wasnorm_wordpool_576.txt	LTP386	ltpFR2	5	16	PAIL	1002	n/a	n/a	0	0	0
3329.34716796875	n/a	WORD	6818503	wordpools/wasnorm_wordpool_576.txt	LTP386	ltpFR2	5	16	BUCKET	184	n/a	n/a	0	0	0
3332.02880859375	n/a	WORD	6823995	wordpools/wasnorm_wordpool_576.txt	LTP386	ltpFR2	5	16	FOREHEAD	592	n/a	n/a	0	0	0
3334.6796875	n/a	WORD	6829424	wordpools/wasnorm_wordpool_576.txt	LTP386	ltpFR2	5	16	COD	340	n/a	n/a	0	0	0
3337.4296875	n/a	WORD	6835056	wordpools/wasnorm_wordpool_576.txt	LTP386	ltpFR2	5	16	SWAMP	1416	n/a	n/a	0	0	0
3339.87890625	n/a	WORD	6840072	wordpools/wasnorm_wordpool_576.txt	LTP386	ltpFR2	5	16	FRECKLE	602	n/a	n/a	0	0	0
3341.4794921875	n/a	START	6843350	n/a	LTP386	ltpFR2	5	n/a	n/a	n/a	23	n/a	n/a	n/a	n/a
3342.3408203125	n/a	DISTRACTOR	6845114	n/a	LTP386	ltpFR2	5	16	n/a	n/a	n/a	n/a	0	0	0
3342.3466796875	n/a	PROB	6845126	n/a	LTP386	ltpFR2	5	n/a	n/a	n/a	23	14	1	4	9
3344.21240234375	n/a	PROB	6848947	n/a	LTP386	ltpFR2	5	n/a	n/a	n/a	23	14	4	9	1
3346.49658203125	n/a	PROB	6853625	n/a	LTP386	ltpFR2	5	n/a	n/a	n/a	23	16	1	7	8
3347.99560546875	n/a	PROB	6856695	n/a	LTP386	ltpFR2	5	n/a	n/a	n/a	23	18	9	5	4
3349.57958984375	n/a	PROB	6859939	n/a	LTP386	ltpFR2	5	n/a	n/a	n/a	23	14	4	5	5
3351.07861328125	n/a	PROB	6863009	n/a	LTP386	ltpFR2	5	n/a	n/a	n/a	23	18	9	7	2
3352.92822265625	n/a	PROB	6866797	n/a	LTP386	ltpFR2	5	n/a	n/a	n/a	23	12	2	7	3
3354.279296875	n/a	PROB	6869564	n/a	LTP386	ltpFR2	5	n/a	n/a	n/a	23	17	4	8	5
3356.34619140625	n/a	PROB	6873797	n/a	LTP386	ltpFR2	5	n/a	n/a	n/a	23	16	6	7	2
3358.22900390625	n/a	PROB	6877653	n/a	LTP386	ltpFR2	5	n/a	n/a	n/a	23	10	5	4	1
3359.72900390625	n/a	PROB	6880725	n/a	LTP386	ltpFR2	5	n/a	n/a	n/a	23	19	7	8	4
3361.779296875	n/a	PROB	6884924	n/a	LTP386	ltpFR2	5	n/a	n/a	n/a	23	25	7	9	9
3364.708984375	n/a	STOP	6890924	n/a	LTP386	ltpFR2	5	n/a	n/a	n/a	23	n/a	n/a	n/a	n/a
3367.36181640625	n/a	REC_START	6896357	n/a	LTP386	ltpFR2	5	16	n/a	n/a	n/a	n/a	0	0	0
3370.9560546875	n/a	REC_WORD	6903718	wordpools/wasnorm_wordpool_576.txt	LTP386	ltpFR2	5	16	BISON	131	n/a	n/a	0	0	0
3371.8466796875	n/a	REC_WORD	6905542	wordpools/wasnorm_wordpool_576.txt	LTP386	ltpFR2	5	16	OX	994	n/a	n/a	0	0	0
3394.3798828125	n/a	REC_WORD	6951690	wordpools/wasnorm_wordpool_576.txt	LTP386	ltpFR2	5	16	PUPIL	1143	n/a	n/a	0	0	0
3443.90771484375	n/a	REST_REWET	7053123	n/a	LTP386	ltpFR2	5	16	n/a	n/a	n/a	n/a	0	0	0
3603.3505859375	n/a	WORD	7379662	wordpools/wasnorm_wordpool_576.txt	LTP386	ltpFR2	5	17	TRUCK	1512	n/a	n/a	0	0	0
3605.9326171875	n/a	WORD	7384950	wordpools/wasnorm_wordpool_576.txt	LTP386	ltpFR2	5	17	BARREL	91	n/a	n/a	0	0	0
3608.5673828125	n/a	WORD	7390346	wordpools/wasnorm_wordpool_576.txt	LTP386	ltpFR2	5	17	BLACKBOARD	133	n/a	n/a	0	0	0
3611.0166015625	n/a	WORD	7395362	wordpools/wasnorm_wordpool_576.txt	LTP386	ltpFR2	5	17	TEACHER	1440	n/a	n/a	0	0	0
3613.58349609375	n/a	WORD	7400619	wordpools/wasnorm_wordpool_576.txt	LTP386	ltpFR2	5	17	LETTUCE	814	n/a	n/a	0	0	0
3616.38330078125	n/a	WORD	7406353	wordpools/wasnorm_wordpool_576.txt	LTP386	ltpFR2	5	17	FILM	565	n/a	n/a	0	0	0
3618.83251953125	n/a	WORD	7411369	wordpools/wasnorm_wordpool_576.txt	LTP386	ltpFR2	5	17	POPCORN	1104	n/a	n/a	0	0	0
3621.25	n/a	WORD	7416320	wordpools/wasnorm_wordpool_576.txt	LTP386	ltpFR2	5	17	DRIVER	499	n/a	n/a	0	0	0
3623.93212890625	n/a	WORD	7421813	wordpools/wasnorm_wordpool_576.txt	LTP386	ltpFR2	5	17	TREAT	1501	n/a	n/a	0	0	0
3626.43310546875	n/a	WORD	7426935	wordpools/wasnorm_wordpool_576.txt	LTP386	ltpFR2	5	17	CEILING	265	n/a	n/a	0	0	0
3629.1318359375	n/a	WORD	7432462	wordpools/wasnorm_wordpool_576.txt	LTP386	ltpFR2	5	17	GUITAR	670	n/a	n/a	0	0	0
3631.7158203125	n/a	WORD	7437754	wordpools/wasnorm_wordpool_576.txt	LTP386	ltpFR2	5	17	RECORD	1176	n/a	n/a	0	0	0
3634.5	n/a	WORD	7443456	wordpools/wasnorm_wordpool_576.txt	LTP386	ltpFR2	5	17	PRINCE	1124	n/a	n/a	0	0	0
3637.265625	n/a	WORD	7449120	wordpools/wasnorm_wordpool_576.txt	LTP386	ltpFR2	5	17	LADY	794	n/a	n/a	0	0	0
3639.69970703125	n/a	WORD	7454105	wordpools/wasnorm_wordpool_576.txt	LTP386	ltpFR2	5	17	NOVEL	960	n/a	n/a	0	0	0
3642.53271484375	n/a	WORD	7459907	wordpools/wasnorm_wordpool_576.txt	LTP386	ltpFR2	5	17	BRAKE	166	n/a	n/a	0	0	0
3644.9814453125	n/a	WORD	7464922	wordpools/wasnorm_wordpool_576.txt	LTP386	ltpFR2	5	17	WAITRESS	1581	n/a	n/a	0	0	0
3647.54833984375	n/a	WORD	7470179	wordpools/wasnorm_wordpool_576.txt	LTP386	ltpFR2	5	17	GRAVE	658	n/a	n/a	0	0	0
3650.232421875	n/a	WORD	7475676	wordpools/wasnorm_wordpool_576.txt	LTP386	ltpFR2	5	17	PALACE	1006	n/a	n/a	0	0	0
3652.7822265625	n/a	WORD	7480898	wordpools/wasnorm_wordpool_576.txt	LTP386	ltpFR2	5	17	SCARECROW	1245	n/a	n/a	0	0	0
3655.2822265625	n/a	WORD	7486018	wordpools/wasnorm_wordpool_576.txt	LTP386	ltpFR2	5	17	TRENCH	1503	n/a	n/a	0	0	0
3657.89697265625	n/a	WORD	7491373	wordpools/wasnorm_wordpool_576.txt	LTP386	ltpFR2	5	17	WIFE	1609	n/a	n/a	0	0	0
3660.615234375	n/a	WORD	7496940	wordpools/wasnorm_wordpool_576.txt	LTP386	ltpFR2	5	17	CELLAR	267	n/a	n/a	0	0	0
3663.3818359375	n/a	WORD	7502606	wordpools/wasnorm_wordpool_576.txt	LTP386	ltpFR2	5	17	DANDRUFF	439	n/a	n/a	0	0	0
3664.9970703125	n/a	START	7505914	n/a	LTP386	ltpFR2	5	n/a	n/a	n/a	24	n/a	n/a	n/a	n/a
3665.98779296875	n/a	DISTRACTOR	7507943	n/a	LTP386	ltpFR2	5	17	n/a	n/a	n/a	n/a	0	0	0
3665.9970703125	n/a	PROB	7507962	n/a	LTP386	ltpFR2	5	n/a	n/a	n/a	24	19	8	7	4
3668.0966796875	n/a	PROB	7512262	n/a	LTP386	ltpFR2	5	n/a	n/a	n/a	24	23	8	7	8
3670.48095703125	n/a	PROB	7517145	n/a	LTP386	ltpFR2	5	n/a	n/a	n/a	24	18	7	6	5
3671.86376953125	n/a	PROB	7519977	n/a	LTP386	ltpFR2	5	n/a	n/a	n/a	24	12	5	5	2
3673.013671875	n/a	PROB	7522332	n/a	LTP386	ltpFR2	5	n/a	n/a	n/a	24	14	7	1	6
3674.44775390625	n/a	PROB	7525269	n/a	LTP386	ltpFR2	5	n/a	n/a	n/a	24	15	9	5	1
3676.44775390625	n/a	PROB	7529365	n/a	LTP386	ltpFR2	5	n/a	n/a	n/a	24	6	2	2	2
3677.6474609375	n/a	PROB	7531822	n/a	LTP386	ltpFR2	5	n/a	n/a	n/a	24	13	2	6	5
3678.814453125	n/a	PROB	7534212	n/a	LTP386	ltpFR2	5	n/a	n/a	n/a	24	20	2	9	9
3680.5302734375	n/a	PROB	7537726	n/a	LTP386	ltpFR2	5	n/a	n/a	n/a	24	12	3	5	4
3681.99658203125	n/a	PROB	7540729	n/a	LTP386	ltpFR2	5	n/a	n/a	n/a	24	16	7	8	1
3683.896484375	n/a	PROB	7544620	n/a	LTP386	ltpFR2	5	n/a	n/a	n/a	24	16	9	5	2
3685.7470703125	n/a	PROB	7548410	n/a	LTP386	ltpFR2	5	n/a	n/a	n/a	24	16	5	7	4
3688.9951171875	n/a	STOP	7555062	n/a	LTP386	ltpFR2	5	n/a	n/a	n/a	24	n/a	n/a	n/a	n/a
3690.93017578125	n/a	REC_START	7559025	n/a	LTP386	ltpFR2	5	17	n/a	n/a	n/a	n/a	0	0	0
3691.92919921875	n/a	REC_WORD	7561071	wordpools/wasnorm_wordpool_576.txt	LTP386	ltpFR2	5	17	TRUCK	1512	n/a	n/a	0	0	0
3692.658203125	n/a	REC_WORD	7562564	wordpools/wasnorm_wordpool_576.txt	LTP386	ltpFR2	5	17	DRIVER	499	n/a	n/a	0	0	0
3693.56201171875	n/a	REC_WORD	7564415	wordpools/wasnorm_wordpool_576.txt	LTP386	ltpFR2	5	17	BRAKE	166	n/a	n/a	0	0	0
3695.7890625	n/a	REC_WORD	7568976	wordpools/wasnorm_wordpool_576.txt	LTP386	ltpFR2	5	17	WAITRESS	1581	n/a	n/a	0	0	0
3701.7568359375	n/a	REC_WORD	7581198	wordpools/wasnorm_wordpool_576.txt	LTP386	ltpFR2	5	17	BLACKBOARD	133	n/a	n/a	0	0	0
3705.1455078125	n/a	REC_WORD	7588138	wordpools/wasnorm_wordpool_576.txt	LTP386	ltpFR2	5	17	BARREL	91	n/a	n/a	0	0	0
3781.359375	n/a	WORD	7744224	wordpools/wasnorm_wordpool_576.txt	LTP386	ltpFR2	5	18	SUSPECT	1415	n/a	n/a	0	0	0
3783.87548828125	n/a	WORD	7749377	wordpools/wasnorm_wordpool_576.txt	LTP386	ltpFR2	5	18	FUNGUS	614	n/a	n/a	0	0	0
3786.576171875	n/a	WORD	7754908	wordpools/wasnorm_wordpool_576.txt	LTP386	ltpFR2	5	18	LASER	801	n/a	n/a	0	0	0
3789.22509765625	n/a	WORD	7760333	wordpools/wasnorm_wordpool_576.txt	LTP386	ltpFR2	5	18	BUBBLE	183	n/a	n/a	0	0	0
3792.02392578125	n/a	WORD	7766065	wordpools/wasnorm_wordpool_576.txt	LTP386	ltpFR2	5	18	DRAGON	492	n/a	n/a	0	0	0
3794.55908203125	n/a	WORD	7771257	wordpools/wasnorm_wordpool_576.txt	LTP386	ltpFR2	5	18	HUMAN	726	n/a	n/a	0	0	0
3797.22509765625	n/a	WORD	7776717	wordpools/wasnorm_wordpool_576.txt	LTP386	ltpFR2	5	18	BINDER	127	n/a	n/a	0	0	0
3799.82470703125	n/a	WORD	7782041	wordpools/wasnorm_wordpool_576.txt	LTP386	ltpFR2	5	18	DINER	467	n/a	n/a	0	0	0
3802.29150390625	n/a	WORD	7787093	wordpools/wasnorm_wordpool_576.txt	LTP386	ltpFR2	5	18	OYSTER	995	n/a	n/a	0	0	0
3805.107421875	n/a	WORD	7792860	wordpools/wasnorm_wordpool_576.txt	LTP386	ltpFR2	5	18	AWARD	63	n/a	n/a	0	0	0
3807.92333984375	n/a	WORD	7798627	wordpools/wasnorm_wordpool_576.txt	LTP386	ltpFR2	5	18	RABBIT	1152	n/a	n/a	0	0	0
3810.34130859375	n/a	WORD	7803579	wordpools/wasnorm_wordpool_576.txt	LTP386	ltpFR2	5	18	WARDROBE	1587	n/a	n/a	0	0	0
3812.84033203125	n/a	WORD	7808697	wordpools/wasnorm_wordpool_576.txt	LTP386	ltpFR2	5	18	WASP	1593	n/a	n/a	0	0	0
3815.607421875	n/a	WORD	7814364	wordpools/wasnorm_wordpool_576.txt	LTP386	ltpFR2	5	18	HONEY	713	n/a	n/a	0	0	0
3818.0400390625	n/a	WORD	7819346	wordpools/wasnorm_wordpool_576.txt	LTP386	ltpFR2	5	18	ROBBER	1197	n/a	n/a	0	0	0
3820.59130859375	n/a	WORD	7824571	wordpools/wasnorm_wordpool_576.txt	LTP386	ltpFR2	5	18	PLAZA	1088	n/a	n/a	0	0	0
3823.3740234375	n/a	WORD	7830270	wordpools/wasnorm_wordpool_576.txt	LTP386	ltpFR2	5	18	RADISH	1158	n/a	n/a	0	0	0
3826.02294921875	n/a	WORD	7835695	wordpools/wasnorm_wordpool_576.txt	LTP386	ltpFR2	5	18	KLEENEX	782	n/a	n/a	0	0	0
3828.7568359375	n/a	WORD	7841294	wordpools/wasnorm_wordpool_576.txt	LTP386	ltpFR2	5	18	ICING	732	n/a	n/a	0	0	0
3831.5400390625	n/a	WORD	7846994	wordpools/wasnorm_wordpool_576.txt	LTP386	ltpFR2	5	18	SHORTCAKE	1292	n/a	n/a	0	0	0
3834.03857421875	n/a	WORD	7852111	wordpools/wasnorm_wordpool_576.txt	LTP386	ltpFR2	5	18	CAFE	216	n/a	n/a	0	0	0
3836.82373046875	n/a	WORD	7857815	wordpools/wasnorm_wordpool_576.txt	LTP386	ltpFR2	5	18	STAMP	1370	n/a	n/a	0	0	0
3839.40673828125	n/a	WORD	7863105	wordpools/wasnorm_wordpool_576.txt	LTP386	ltpFR2	5	18	OFFICE	972	n/a	n/a	0	0	0
3842.189453125	n/a	WORD	7868804	wordpools/wasnorm_wordpool_576.txt	LTP386	ltpFR2	5	18	GARDEN	623	n/a	n/a	0	0	0
3843.806640625	n/a	START	7872116	n/a	LTP386	ltpFR2	5	n/a	n/a	n/a	25	n/a	n/a	n/a	n/a
3844.65234375	n/a	DISTRACTOR	7873848	n/a	LTP386	ltpFR2	5	18	n/a	n/a	n/a	n/a	0	0	0
3844.65625	n/a	PROB	7873856	n/a	LTP386	ltpFR2	5	n/a	n/a	n/a	25	11	5	3	3
3846.67333984375	n/a	PROB	7877987	n/a	LTP386	ltpFR2	5	n/a	n/a	n/a	25	17	8	6	3
3848.75634765625	n/a	PROB	7882253	n/a	LTP386	ltpFR2	5	n/a	n/a	n/a	25	15	1	6	8
3850.17236328125	n/a	PROB	7885153	n/a	LTP386	ltpFR2	5	n/a	n/a	n/a	25	14	7	3	4
3852.30615234375	n/a	PROB	7889523	n/a	LTP386	ltpFR2	5	n/a	n/a	n/a	25	14	7	4	3
3856.421875	n/a	PROB	7897952	n/a	LTP386	ltpFR2	5	n/a	n/a	n/a	25	19	8	4	7
3858.4892578125	n/a	PROB	7902186	n/a	LTP386	ltpFR2	5	n/a	n/a	n/a	25	12	1	4	7
3859.97119140625	n/a	PROB	7905221	n/a	LTP386	ltpFR2	5	n/a	n/a	n/a	25	1	5	8	9
3861.7216796875	n/a	PROB	7908806	n/a	LTP386	ltpFR2	5	n/a	n/a	n/a	25	17	7	4	6
3863.255859375	n/a	PROB	7911948	n/a	LTP386	ltpFR2	5	n/a	n/a	n/a	25	15	8	5	2
3865.48876953125	n/a	PROB	7916521	n/a	LTP386	ltpFR2	5	n/a	n/a	n/a	25	14	7	1	6
3867.765625	n/a	STOP	7921184	n/a	LTP386	ltpFR2	5	n/a	n/a	n/a	25	n/a	n/a	n/a	n/a
3869.6728515625	n/a	REC_START	7925090	n/a	LTP386	ltpFR2	5	18	n/a	n/a	n/a	n/a	0	0	0
3871.6845703125	n/a	REC_WORD	7929210	wordpools/wasnorm_wordpool_576.txt	LTP386	ltpFR2	5	18	SUSPECT	1415	n/a	n/a	0	0	0
3878.3935546875	n/a	REC_WORD	7942950	wordpools/wasnorm_wordpool_576.txt	LTP386	ltpFR2	5	18	DINER	467	n/a	n/a	0	0	0
3879.357421875	n/a	REC_WORD	7944924	wordpools/wasnorm_wordpool_576.txt	LTP386	ltpFR2	5	18	KLEENEX	782	n/a	n/a	0	0	0
3883.34423828125	n/a	REC_WORD	7953089	wordpools/wasnorm_wordpool_576.txt	LTP386	ltpFR2	5	18	ICING	732	n/a	n/a	0	0	0
3886.40625	n/a	REC_WORD	7959360	wordpools/wasnorm_wordpool_576.txt	LTP386	ltpFR2	5	18	HONEY	713	n/a	n/a	0	0	0
3960.11669921875	n/a	DISTRACTOR	8110319	n/a	LTP386	ltpFR2	5	19	n/a	n/a	n/a	n/a	0	0	0
3960.11669921875	n/a	START	8110319	n/a	LTP386	ltpFR2	5	n/a	n/a	n/a	26	n/a	n/a	n/a	n/a
3960.1337890625	n/a	PROB	8110354	n/a	LTP386	ltpFR2	5	n/a	n/a	n/a	26	20	6	5	9
3961.81787109375	n/a	PROB	8113803	n/a	LTP386	ltpFR2	5	n/a	n/a	n/a	26	17	8	3	6
3964.98291015625	n/a	PROB	8120285	n/a	LTP386	ltpFR2	5	n/a	n/a	n/a	26	18	3	6	9
3967.966796875	n/a	PROB	8126396	n/a	LTP386	ltpFR2	5	n/a	n/a	n/a	26	9	1	3	5
3969.45068359375	n/a	PROB	8129435	n/a	LTP386	ltpFR2	5	n/a	n/a	n/a	26	20	3	9	8
3971.30078125	n/a	PROB	8133224	n/a	LTP386	ltpFR2	5	n/a	n/a	n/a	26	24	8	8	9
3973.45068359375	n/a	PROB	8137627	n/a	LTP386	ltpFR2	5	n/a	n/a	n/a	26	18	7	8	3
3975.865234375	n/a	PROB	8142572	n/a	LTP386	ltpFR2	5	n/a	n/a	n/a	26	10	3	6	1
3977.25048828125	n/a	PROB	8145409	n/a	LTP386	ltpFR2	5	n/a	n/a	n/a	26	14	4	9	1
3978.865234375	n/a	PROB	8148716	n/a	LTP386	ltpFR2	5	n/a	n/a	n/a	26	21	4	9	8
3981.58349609375	n/a	PROB	8154283	n/a	LTP386	ltpFR2	5	n/a	n/a	n/a	26	19	8	9	2
3983.17333984375	n/a	STOP	8157539	n/a	LTP386	ltpFR2	5	n/a	n/a	n/a	26	n/a	n/a	n/a	n/a
3985.115234375	n/a	WORD	8161516	wordpools/wasnorm_wordpool_576.txt	LTP386	ltpFR2	5	19	THRONE	1461	n/a	n/a	0	0	0
3987.59912109375	n/a	WORD	8166603	wordpools/wasnorm_wordpool_576.txt	LTP386	ltpFR2	5	19	SHELF	1280	n/a	n/a	0	0	0
3990.166015625	n/a	WORD	8171860	wordpools/wasnorm_wordpool_576.txt	LTP386	ltpFR2	5	19	AUTHOR	61	n/a	n/a	0	0	0
3992.78271484375	n/a	WORD	8177219	wordpools/wasnorm_wordpool_576.txt	LTP386	ltpFR2	5	19	SHOVEL	1295	n/a	n/a	0	0	0
3995.28271484375	n/a	WORD	8182339	wordpools/wasnorm_wordpool_576.txt	LTP386	ltpFR2	5	19	POCKET	1093	n/a	n/a	0	0	0
3997.84765625	n/a	WORD	8187592	wordpools/wasnorm_wordpool_576.txt	LTP386	ltpFR2	5	19	GRILL	661	n/a	n/a	0	0	0
4000.3486328125	n/a	WORD	8192714	wordpools/wasnorm_wordpool_576.txt	LTP386	ltpFR2	5	19	CREATURE	403	n/a	n/a	0	0	0
4002.78271484375	n/a	WORD	8197699	wordpools/wasnorm_wordpool_576.txt	LTP386	ltpFR2	5	19	MONSTER	912	n/a	n/a	0	0	0
4005.46533203125	n/a	WORD	8203193	wordpools/wasnorm_wordpool_576.txt	LTP386	ltpFR2	5	19	YACHT	1629	n/a	n/a	0	0	0
4008.08154296875	n/a	WORD	8208551	wordpools/wasnorm_wordpool_576.txt	LTP386	ltpFR2	5	19	FLEET	578	n/a	n/a	0	0	0
4010.5322265625	n/a	WORD	8213570	wordpools/wasnorm_wordpool_576.txt	LTP386	ltpFR2	5	19	CHIPMUNK	304	n/a	n/a	0	0	0
4013.28125	n/a	WORD	8219200	wordpools/wasnorm_wordpool_576.txt	LTP386	ltpFR2	5	19	VENUS	1557	n/a	n/a	0	0	0
4016.04736328125	n/a	WORD	8224865	wordpools/wasnorm_wordpool_576.txt	LTP386	ltpFR2	5	19	FRANCE	601	n/a	n/a	0	0	0
4018.54833984375	n/a	WORD	8229987	wordpools/wasnorm_wordpool_576.txt	LTP386	ltpFR2	5	19	LODGE	839	n/a	n/a	0	0	0
4021.046875	n/a	WORD	8235104	wordpools/wasnorm_wordpool_576.txt	LTP386	ltpFR2	5	19	KEEPER	769	n/a	n/a	0	0	0
4023.68115234375	n/a	WORD	8240499	wordpools/wasnorm_wordpool_576.txt	LTP386	ltpFR2	5	19	QUEEN	1149	n/a	n/a	0	0	0
4026.2978515625	n/a	WORD	8245858	wordpools/wasnorm_wordpool_576.txt	LTP386	ltpFR2	5	19	HATCHET	691	n/a	n/a	0	0	0
4029.11376953125	n/a	WORD	8251625	wordpools/wasnorm_wordpool_576.txt	LTP386	ltpFR2	5	19	RAFT	1159	n/a	n/a	0	0	0
4031.8466796875	n/a	WORD	8257222	wordpools/wasnorm_wordpool_576.txt	LTP386	ltpFR2	5	19	ANTLER	29	n/a	n/a	0	0	0
4034.513671875	n/a	WORD	8262684	wordpools/wasnorm_wordpool_576.txt	LTP386	ltpFR2	5	19	CANAL	226	n/a	n/a	0	0	0
4037.13037109375	n/a	WORD	8268043	wordpools/wasnorm_wordpool_576.txt	LTP386	ltpFR2	5	19	PLASTER	1085	n/a	n/a	0	0	0
4039.79736328125	n/a	WORD	8273505	wordpools/wasnorm_wordpool_576.txt	LTP386	ltpFR2	5	19	HEADBAND	696	n/a	n/a	0	0	0
4042.33056640625	n/a	WORD	8278693	wordpools/wasnorm_wordpool_576.txt	LTP386	ltpFR2	5	19	GYMNAST	675	n/a	n/a	0	0	0
4044.79736328125	n/a	WORD	8283745	wordpools/wasnorm_wordpool_576.txt	LTP386	ltpFR2	5	19	DENTIST	447	n/a	n/a	0	0	0
4046.41455078125	n/a	START	8287057	n/a	LTP386	ltpFR2	5	n/a	n/a	n/a	27	n/a	n/a	n/a	n/a
4047.525390625	n/a	DISTRACTOR	8289332	n/a	LTP386	ltpFR2	5	19	n/a	n/a	n/a	n/a	0	0	0
4047.5302734375	n/a	PROB	8289342	n/a	LTP386	ltpFR2	5	n/a	n/a	n/a	27	19	9	4	6
4049.38037109375	n/a	PROB	8293131	n/a	LTP386	ltpFR2	5	n/a	n/a	n/a	27	18	4	8	6
4050.8623046875	n/a	PROB	8296166	n/a	LTP386	ltpFR2	5	n/a	n/a	n/a	27	18	4	7	7
4052.462890625	n/a	PROB	8299444	n/a	LTP386	ltpFR2	5	n/a	n/a	n/a	27	18	6	9	3
4053.9619140625	n/a	PROB	8302514	n/a	LTP386	ltpFR2	5	n/a	n/a	n/a	27	15	3	6	6
4056.64697265625	n/a	PROB	8308013	n/a	LTP386	ltpFR2	5	n/a	n/a	n/a	27	23	7	8	8
4061.44580078125	n/a	PROB	8317841	n/a	LTP386	ltpFR2	5	n/a	n/a	n/a	27	13	2	2	9
4062.74560546875	n/a	PROB	8320503	n/a	LTP386	ltpFR2	5	n/a	n/a	n/a	27	14	2	3	9
4064.11181640625	n/a	PROB	8323301	n/a	LTP386	ltpFR2	5	n/a	n/a	n/a	27	17	3	5	9
4065.57958984375	n/a	PROB	8326307	n/a	LTP386	ltpFR2	5	n/a	n/a	n/a	27	21	9	4	8
4068.01171875	n/a	PROB	8331288	n/a	LTP386	ltpFR2	5	n/a	n/a	n/a	27	122	3	2	7
4070.1337890625	n/a	STOP	8335634	n/a	LTP386	ltpFR2	5	n/a	n/a	n/a	27	n/a	n/a	n/a	n/a
4072.33056640625	n/a	REC_START	8340133	n/a	LTP386	ltpFR2	5	19	n/a	n/a	n/a	n/a	0	0	0
4074.5263671875	n/a	REC_WORD	8344630	wordpools/wasnorm_wordpool_576.txt	LTP386	ltpFR2	5	19	DENTIST	447	n/a	n/a	0	0	0
4076.12353515625	n/a	REC_WORD	8347901	wordpools/wasnorm_wordpool_576.txt	LTP386	ltpFR2	5	19	CANAL	226	n/a	n/a	0	0	0
4076.779296875	n/a	REC_WORD	8349244	wordpools/wasnorm_wordpool_576.txt	LTP386	ltpFR2	5	19	FRANCE	601	n/a	n/a	0	0	0
4096.06787109375	n/a	REC_WORD	8388747	wordpools/wasnorm_wordpool_576.txt	LTP386	ltpFR2	5	19	GRILL	661	n/a	n/a	0	0	0
4100.7705078125	n/a	REC_WORD	8398378	wordpools/wasnorm_wordpool_576.txt	LTP386	ltpFR2	5	19	QUEEN	1149	n/a	n/a	0	0	0
