onset	duration	trial_type	sample	stim_file	subject	experiment	session	trial	item_name	item_num	list	answer	test_x	test_y	test_z
283.89	n/a	SESS_START	141945	n/a	LTP273	ltpFR2	4	n/a	n/a	n/a	n/a	n/a	0	0	0
357.73	n/a	START	178865	n/a	LTP273	ltpFR2	4	n/a	n/a	n/a	-1	n/a	n/a	n/a	n/a
357.764	n/a	PROB	178882	n/a	LTP273	ltpFR2	4	n/a	n/a	n/a	-1	11	1	5	5
358.994	n/a	PROB	179497	n/a	LTP273	ltpFR2	4	n/a	n/a	n/a	-1	9	3	3	1
360.376	n/a	PROB	180188	n/a	LTP273	ltpFR2	4	n/a	n/a	n/a	-1	11	4	4	3
361.874	n/a	PROB	180937	n/a	LTP273	ltpFR2	4	n/a	n/a	n/a	-1	24	7	8	9
365.052	n/a	PROB	182526	n/a	LTP273	ltpFR2	4	n/a	n/a	n/a	-1	14	9	2	3
367.282	n/a	PROB	183641	n/a	LTP273	ltpFR2	4	n/a	n/a	n/a	-1	18	7	2	9
369.082	n/a	STOP	184541	n/a	LTP273	ltpFR2	4	n/a	n/a	n/a	-1	n/a	n/a	n/a	n/a
410.552	n/a	WORD	205276	wordpools/wasnorm_wordpool_576.txt	LTP273	ltpFR2	4	1	BLOUSE	139	n/a	n/a	0	0	0
413.248	n/a	WORD	206624	wordpools/wasnorm_wordpool_576.txt	LTP273	ltpFR2	4	1	DENIM	446	n/a	n/a	0	0	0
415.91	n/a	WORD	207955	wordpools/wasnorm_wordpool_576.txt	LTP273	ltpFR2	4	1	SKETCH	1315	n/a	n/a	0	0	0
418.358	n/a	WORD	209179	wordpools/wasnorm_wordpool_576.txt	LTP273	ltpFR2	4	1	FIDDLE	561	n/a	n/a	0	0	0
420.87	n/a	WORD	210435	wordpools/wasnorm_wordpool_576.txt	LTP273	ltpFR2	4	1	PORK	1108	n/a	n/a	0	0	0
423.3	n/a	WORD	211650	wordpools/wasnorm_wordpool_576.txt	LTP273	ltpFR2	4	1	LUNCH	849	n/a	n/a	0	0	0
425.93	n/a	WORD	212965	wordpools/wasnorm_wordpool_576.txt	LTP273	ltpFR2	4	1	TRENCH	1503	n/a	n/a	0	0	0
428.376	n/a	WORD	214188	wordpools/wasnorm_wordpool_576.txt	LTP273	ltpFR2	4	1	SERVER	1272	n/a	n/a	0	0	0
430.906	n/a	WORD	215453	wordpools/wasnorm_wordpool_576.txt	LTP273	ltpFR2	4	1	KLEENEX	782	n/a	n/a	0	0	0
433.618	n/a	WORD	216809	wordpools/wasnorm_wordpool_576.txt	LTP273	ltpFR2	4	1	SODA	1341	n/a	n/a	0	0	0
436.414	n/a	WORD	218207	wordpools/wasnorm_wordpool_576.txt	LTP273	ltpFR2	4	1	PACKAGE	997	n/a	n/a	0	0	0
438.894	n/a	WORD	219447	wordpools/wasnorm_wordpool_576.txt	LTP273	ltpFR2	4	1	SUNSET	1408	n/a	n/a	0	0	0
441.54	n/a	WORD	220770	wordpools/wasnorm_wordpool_576.txt	LTP273	ltpFR2	4	1	ISLAND	745	n/a	n/a	0	0	0
444.186	n/a	WORD	222093	wordpools/wasnorm_wordpool_576.txt	LTP273	ltpFR2	4	1	QUAIL	1147	n/a	n/a	0	0	0
446.632	n/a	WORD	223316	wordpools/wasnorm_wordpool_576.txt	LTP273	ltpFR2	4	1	SISTER	1312	n/a	n/a	0	0	0
449.144	n/a	WORD	224572	wordpools/wasnorm_wordpool_576.txt	LTP273	ltpFR2	4	1	SHIRT	1287	n/a	n/a	0	0	0
451.858	n/a	WORD	225929	wordpools/wasnorm_wordpool_576.txt	LTP273	ltpFR2	4	1	GIFT	635	n/a	n/a	0	0	0
454.67	n/a	WORD	227335	wordpools/wasnorm_wordpool_576.txt	LTP273	ltpFR2	4	1	DORM	488	n/a	n/a	0	0	0
457.482	n/a	WORD	228741	wordpools/wasnorm_wordpool_576.txt	LTP273	ltpFR2	4	1	CABBAGE	210	n/a	n/a	0	0	0
460.144	n/a	WORD	230072	wordpools/wasnorm_wordpool_576.txt	LTP273	ltpFR2	4	1	VIKING	1565	n/a	n/a	0	0	0
462.592	n/a	WORD	231296	wordpools/wasnorm_wordpool_576.txt	LTP273	ltpFR2	4	1	PICNIC	1060	n/a	n/a	0	0	0
465.338	n/a	WORD	232669	wordpools/wasnorm_wordpool_576.txt	LTP273	ltpFR2	4	1	MISTER	901	n/a	n/a	0	0	0
468.016	n/a	WORD	234008	wordpools/wasnorm_wordpool_576.txt	LTP273	ltpFR2	4	1	WOMAN	1620	n/a	n/a	0	0	0
470.746	n/a	WORD	235373	wordpools/wasnorm_wordpool_576.txt	LTP273	ltpFR2	4	1	BARREL	91	n/a	n/a	0	0	0
472.36	n/a	START	236180	n/a	LTP273	ltpFR2	4	n/a	n/a	n/a	1	n/a	n/a	n/a	n/a
473.508	n/a	DISTRACTOR	236754	n/a	LTP273	ltpFR2	4	1	n/a	n/a	n/a	n/a	0	0	0
473.524	n/a	PROB	236762	n/a	LTP273	ltpFR2	4	n/a	n/a	n/a	1	11	1	9	1
475.422	n/a	PROB	237711	n/a	LTP273	ltpFR2	4	n/a	n/a	n/a	1	21	9	7	5
478.318	n/a	PROB	239159	n/a	LTP273	ltpFR2	4	n/a	n/a	n/a	1	8	1	5	2
479.848	n/a	PROB	239924	n/a	LTP273	ltpFR2	4	n/a	n/a	n/a	1	17	2	6	9
482.628	n/a	PROB	241314	n/a	LTP273	ltpFR2	4	n/a	n/a	n/a	1	17	7	1	9
483.994	n/a	PROB	241997	n/a	LTP273	ltpFR2	4	n/a	n/a	n/a	1	20	8	3	9
485.376	n/a	PROB	242688	n/a	LTP273	ltpFR2	4	n/a	n/a	n/a	1	10	5	4	1
486.572	n/a	PROB	243286	n/a	LTP273	ltpFR2	4	n/a	n/a	n/a	1	11	6	3	2
488.104	n/a	PROB	244052	n/a	LTP273	ltpFR2	4	n/a	n/a	n/a	1	17	7	9	1
489.636	n/a	PROB	244818	n/a	LTP273	ltpFR2	4	n/a	n/a	n/a	1	16	7	3	6
490.716	n/a	PROB	245358	n/a	LTP273	ltpFR2	4	n/a	n/a	n/a	1	14	7	6	1
492.68	n/a	PROB	246340	n/a	LTP273	ltpFR2	4	n/a	n/a	n/a	1	14	6	6	2
493.912	n/a	PROB	246956	n/a	LTP273	ltpFR2	4	n/a	n/a	n/a	1	12	3	3	6
495.46	n/a	STOP	247730	n/a	LTP273	ltpFR2	4	n/a	n/a	n/a	1	n/a	n/a	n/a	n/a
498.19	n/a	REC_START	249095	n/a	LTP273	ltpFR2	4	1	n/a	n/a	n/a	n/a	0	0	0
498.91	n/a	REC_WORD	249455	wordpools/wasnorm_wordpool_576.txt	LTP273	ltpFR2	4	1	MISTER	901	n/a	n/a	0	0	0
499.628	n/a	REC_WORD	249814	wordpools/wasnorm_wordpool_576.txt	LTP273	ltpFR2	4	1	CABBAGE	210	n/a	n/a	0	0	0
500.406	n/a	REC_WORD	250203	wordpools/wasnorm_wordpool_576.txt	LTP273	ltpFR2	4	1	PORK	1108	n/a	n/a	0	0	0
501.122	n/a	REC_WORD	250561	wordpools/wasnorm_wordpool_576.txt	LTP273	ltpFR2	4	1	LUNCH	849	n/a	n/a	0	0	0
502.23	n/a	REC_WORD	251115	wordpools/wasnorm_wordpool_576.txt	LTP273	ltpFR2	4	1	DENIM	446	n/a	n/a	0	0	0
502.932	n/a	REC_WORD	251466	wordpools/wasnorm_wordpool_576.txt	LTP273	ltpFR2	4	1	BLOUSE	139	n/a	n/a	0	0	0
503.62	n/a	REC_WORD	251810	wordpools/wasnorm_wordpool_576.txt	LTP273	ltpFR2	4	1	SKETCH	1315	n/a	n/a	0	0	0
504.492	n/a	REC_WORD	252246	wordpools/wasnorm_wordpool_576.txt	LTP273	ltpFR2	4	1	FIDDLE	561	n/a	n/a	0	0	0
505.446	n/a	REC_WORD	252723	wordpools/wasnorm_wordpool_576.txt	LTP273	ltpFR2	4	1	SISTER	1312	n/a	n/a	0	0	0
506.512	n/a	REC_WORD	253256	wordpools/wasnorm_wordpool_576.txt	LTP273	ltpFR2	4	1	GIFT	635	n/a	n/a	0	0	0
509.51	n/a	REC_WORD	254755	wordpools/wasnorm_wordpool_576.txt	LTP273	ltpFR2	4	1	SHIRT	1287	n/a	n/a	0	0	0
510.578	n/a	REC_WORD	255289	wordpools/wasnorm_wordpool_576.txt	LTP273	ltpFR2	4	1	DORM	488	n/a	n/a	0	0	0
513.668	n/a	REC_WORD	256834	wordpools/wasnorm_wordpool_576.txt	LTP273	ltpFR2	4	1	SUNSET	1408	n/a	n/a	0	0	0
514.664	n/a	REC_WORD	257332	wordpools/wasnorm_wordpool_576.txt	LTP273	ltpFR2	4	1	ISLAND	745	n/a	n/a	0	0	0
515.372	n/a	REC_WORD	257686	wordpools/wasnorm_wordpool_576.txt	LTP273	ltpFR2	4	1	QUAIL	1147	n/a	n/a	0	0	0
519.378	n/a	REC_WORD	259689	wordpools/wasnorm_wordpool_576.txt	LTP273	ltpFR2	4	1	CABBAGE	210	n/a	n/a	0	0	0
525.83	n/a	REC_WORD	262915	wordpools/wasnorm_wordpool_576.txt	LTP273	ltpFR2	4	1	PICNIC	1060	n/a	n/a	0	0	0
530.044	n/a	REC_WORD	265022	wordpools/wasnorm_wordpool_576.txt	LTP273	ltpFR2	4	1	MISTER	901	n/a	n/a	0	0	0
534.004	n/a	REC_WORD	267002	wordpools/wasnorm_wordpool_576.txt	LTP273	ltpFR2	4	1	SERVER	1272	n/a	n/a	0	0	0
537.868	n/a	REC_WORD	268934	wordpools/wasnorm_wordpool_576.txt	LTP273	ltpFR2	4	1	WOMAN	1620	n/a	n/a	0	0	0
588.872	n/a	DISTRACTOR	294436	n/a	LTP273	ltpFR2	4	2	n/a	n/a	n/a	n/a	0	0	0
588.872	n/a	START	294436	n/a	LTP273	ltpFR2	4	n/a	n/a	n/a	2	n/a	n/a	n/a	n/a
588.904	n/a	PROB	294452	n/a	LTP273	ltpFR2	4	n/a	n/a	n/a	2	14	8	2	4
590.802	n/a	PROB	295401	n/a	LTP273	ltpFR2	4	n/a	n/a	n/a	2	11	8	1	2
591.934	n/a	PROB	295967	n/a	LTP273	ltpFR2	4	n/a	n/a	n/a	2	13	2	7	4
593.698	n/a	PROB	296849	n/a	LTP273	ltpFR2	4	n/a	n/a	n/a	2	18	4	6	8
594.762	n/a	PROB	297381	n/a	LTP273	ltpFR2	4	n/a	n/a	n/a	2	17	7	6	4
596.676	n/a	PROB	298338	n/a	LTP273	ltpFR2	4	n/a	n/a	n/a	2	15	8	6	1
598.424	n/a	PROB	299212	n/a	LTP273	ltpFR2	4	n/a	n/a	n/a	2	15	7	2	6
599.922	n/a	PROB	299961	n/a	LTP273	ltpFR2	4	n/a	n/a	n/a	2	21	7	4	7
601.252	n/a	PROB	300626	n/a	LTP273	ltpFR2	4	n/a	n/a	n/a	2	19	7	4	8
603.434	n/a	PROB	301717	n/a	LTP273	ltpFR2	4	n/a	n/a	n/a	2	11	2	5	4
606.328	n/a	PROB	303164	n/a	LTP273	ltpFR2	4	n/a	n/a	n/a	2	11	2	2	7
607.444	n/a	PROB	303722	n/a	LTP273	ltpFR2	4	n/a	n/a	n/a	2	17	9	5	3
608.642	n/a	PROB	304321	n/a	LTP273	ltpFR2	4	n/a	n/a	n/a	2	8	4	1	3
609.856	n/a	PROB	304928	n/a	LTP273	ltpFR2	4	n/a	n/a	n/a	2	14	2	8	4
610.972	n/a	PROB	305486	n/a	LTP273	ltpFR2	4	n/a	n/a	n/a	2	13	9	1	2
612.3	n/a	STOP	306150	n/a	LTP273	ltpFR2	4	n/a	n/a	n/a	2	n/a	n/a	n/a	n/a
614.05	n/a	WORD	307025	wordpools/wasnorm_wordpool_576.txt	LTP273	ltpFR2	4	2	HOOD	714	n/a	n/a	0	0	0
616.596	n/a	WORD	308298	wordpools/wasnorm_wordpool_576.txt	LTP273	ltpFR2	4	2	NURSE	963	n/a	n/a	0	0	0
619.226	n/a	WORD	309613	wordpools/wasnorm_wordpool_576.txt	LTP273	ltpFR2	4	2	SCALPEL	1243	n/a	n/a	0	0	0
622.04	n/a	WORD	311020	wordpools/wasnorm_wordpool_576.txt	LTP273	ltpFR2	4	2	GYMNAST	675	n/a	n/a	0	0	0
624.718	n/a	WORD	312359	wordpools/wasnorm_wordpool_576.txt	LTP273	ltpFR2	4	2	HEART	697	n/a	n/a	0	0	0
627.448	n/a	WORD	313724	wordpools/wasnorm_wordpool_576.txt	LTP273	ltpFR2	4	2	BEAKER	104	n/a	n/a	0	0	0
629.96	n/a	WORD	314980	wordpools/wasnorm_wordpool_576.txt	LTP273	ltpFR2	4	2	LILY	821	n/a	n/a	0	0	0
632.44	n/a	WORD	316220	wordpools/wasnorm_wordpool_576.txt	LTP273	ltpFR2	4	2	PAPER	1011	n/a	n/a	0	0	0
634.986	n/a	WORD	317493	wordpools/wasnorm_wordpool_576.txt	LTP273	ltpFR2	4	2	OMELET	976	n/a	n/a	0	0	0
637.434	n/a	WORD	318717	wordpools/wasnorm_wordpool_576.txt	LTP273	ltpFR2	4	2	SHORTS	1293	n/a	n/a	0	0	0
639.862	n/a	WORD	319931	wordpools/wasnorm_wordpool_576.txt	LTP273	ltpFR2	4	2	MUSTARD	935	n/a	n/a	0	0	0
642.36	n/a	WORD	321180	wordpools/wasnorm_wordpool_576.txt	LTP273	ltpFR2	4	2	CHAMPAGNE	278	n/a	n/a	0	0	0
645.188	n/a	WORD	322594	wordpools/wasnorm_wordpool_576.txt	LTP273	ltpFR2	4	2	GRILL	661	n/a	n/a	0	0	0
647.652	n/a	WORD	323826	wordpools/wasnorm_wordpool_576.txt	LTP273	ltpFR2	4	2	FARMER	553	n/a	n/a	0	0	0
650.414	n/a	WORD	325207	wordpools/wasnorm_wordpool_576.txt	LTP273	ltpFR2	4	2	SMOG	1330	n/a	n/a	0	0	0
653.044	n/a	WORD	326522	wordpools/wasnorm_wordpool_576.txt	LTP273	ltpFR2	4	2	TABLET	1427	n/a	n/a	0	0	0
655.856	n/a	WORD	327928	wordpools/wasnorm_wordpool_576.txt	LTP273	ltpFR2	4	2	BACON	67	n/a	n/a	0	0	0
658.652	n/a	WORD	329326	wordpools/wasnorm_wordpool_576.txt	LTP273	ltpFR2	4	2	ROBIN	1199	n/a	n/a	0	0	0
661.314	n/a	WORD	330657	wordpools/wasnorm_wordpool_576.txt	LTP273	ltpFR2	4	2	PISTON	1076	n/a	n/a	0	0	0
664.026	n/a	WORD	332013	wordpools/wasnorm_wordpool_576.txt	LTP273	ltpFR2	4	2	LIZARD	834	n/a	n/a	0	0	0
666.656	n/a	WORD	333328	wordpools/wasnorm_wordpool_576.txt	LTP273	ltpFR2	4	2	HONEY	713	n/a	n/a	0	0	0
669.42	n/a	WORD	334710	wordpools/wasnorm_wordpool_576.txt	LTP273	ltpFR2	4	2	BELLY	119	n/a	n/a	0	0	0
672.232	n/a	WORD	336116	wordpools/wasnorm_wordpool_576.txt	LTP273	ltpFR2	4	2	LIVER	833	n/a	n/a	0	0	0
674.944	n/a	WORD	337472	wordpools/wasnorm_wordpool_576.txt	LTP273	ltpFR2	4	2	GARBAGE	622	n/a	n/a	0	0	0
676.558	n/a	START	338279	n/a	LTP273	ltpFR2	4	n/a	n/a	n/a	3	n/a	n/a	n/a	n/a
677.588	n/a	DISTRACTOR	338794	n/a	LTP273	ltpFR2	4	2	n/a	n/a	n/a	n/a	0	0	0
677.59	n/a	PROB	338795	n/a	LTP273	ltpFR2	4	n/a	n/a	n/a	3	21	6	5	9
679.204	n/a	PROB	339602	n/a	LTP273	ltpFR2	4	n/a	n/a	n/a	3	23	9	7	7
681.152	n/a	PROB	340576	n/a	LTP273	ltpFR2	4	n/a	n/a	n/a	3	11	7	2	2
682.216	n/a	PROB	341108	n/a	LTP273	ltpFR2	4	n/a	n/a	n/a	3	14	6	5	3
684.78	n/a	PROB	342390	n/a	LTP273	ltpFR2	4	n/a	n/a	n/a	3	15	9	1	5
687.176	n/a	PROB	343588	n/a	LTP273	ltpFR2	4	n/a	n/a	n/a	3	11	2	5	4
690.372	n/a	PROB	345186	n/a	LTP273	ltpFR2	4	n/a	n/a	n/a	3	11	8	1	2
692.734	n/a	PROB	346367	n/a	LTP273	ltpFR2	4	n/a	n/a	n/a	3	15	5	7	3
695.764	n/a	PROB	347882	n/a	LTP273	ltpFR2	4	n/a	n/a	n/a	3	9	3	2	4
697.594	n/a	PROB	348797	n/a	LTP273	ltpFR2	4	n/a	n/a	n/a	3	12	5	5	2
698.576	n/a	PROB	349288	n/a	LTP273	ltpFR2	4	n/a	n/a	n/a	3	18	8	5	5
699.838	n/a	STOP	349919	n/a	LTP273	ltpFR2	4	n/a	n/a	n/a	3	n/a	n/a	n/a	n/a
702.388	n/a	REC_START	351194	n/a	LTP273	ltpFR2	4	2	n/a	n/a	n/a	n/a	0	0	0
704.89	n/a	REC_WORD	352445	wordpools/wasnorm_wordpool_576.txt	LTP273	ltpFR2	4	2	LIZARD	834	n/a	n/a	0	0	0
705.574	n/a	REC_WORD	352787	wordpools/wasnorm_wordpool_576.txt	LTP273	ltpFR2	4	2	GARDEN	623	n/a	n/a	0	0	0
706.28	n/a	REC_WORD	353140	wordpools/wasnorm_wordpool_576.txt	LTP273	ltpFR2	4	2	GRILL	661	n/a	n/a	0	0	0
707.062	n/a	REC_WORD	353531	wordpools/wasnorm_wordpool_576.txt	LTP273	ltpFR2	4	2	BACON	67	n/a	n/a	0	0	0
707.734	n/a	REC_WORD	353867	wordpools/wasnorm_wordpool_576.txt	LTP273	ltpFR2	4	2	FARMER	553	n/a	n/a	0	0	0
708.472	n/a	REC_WORD	354236	wordpools/wasnorm_wordpool_576.txt	LTP273	ltpFR2	4	2	NURSE	963	n/a	n/a	0	0	0
709.74	n/a	REC_WORD	354870	wordpools/wasnorm_wordpool_576.txt	LTP273	ltpFR2	4	2	SCALPEL	1243	n/a	n/a	0	0	0
711.184	n/a	REC_WORD	355592	wordpools/wasnorm_wordpool_576.txt	LTP273	ltpFR2	4	2	BEAKER	104	n/a	n/a	0	0	0
712.596	n/a	REC_WORD	356298	wordpools/wasnorm_wordpool_576.txt	LTP273	ltpFR2	4	2	SHORTS	1293	n/a	n/a	0	0	0
713.866	n/a	REC_WORD	356933	wordpools/wasnorm_wordpool_576.txt	LTP273	ltpFR2	4	2	PAPER	1011	n/a	n/a	0	0	0
715.022	n/a	REC_WORD	357511	wordpools/wasnorm_wordpool_576.txt	LTP273	ltpFR2	4	2	LILY	821	n/a	n/a	0	0	0
732.492	n/a	REC_WORD	366246	wordpools/wasnorm_wordpool_576.txt	LTP273	ltpFR2	4	2	CHAMPAGNE	278	n/a	n/a	0	0	0
734.26	n/a	REC_WORD	367130	wordpools/wasnorm_wordpool_576.txt	LTP273	ltpFR2	4	2	OMELET	976	n/a	n/a	0	0	0
746.1	n/a	REC_WORD	373050	wordpools/wasnorm_wordpool_576.txt	LTP273	ltpFR2	4	2	HEART	697	n/a	n/a	0	0	0
793.036	n/a	WORD	396518	wordpools/wasnorm_wordpool_576.txt	LTP273	ltpFR2	4	3	SHELTER	1282	n/a	n/a	0	0	0
795.732	n/a	WORD	397866	wordpools/wasnorm_wordpool_576.txt	LTP273	ltpFR2	4	3	OFFICE	972	n/a	n/a	0	0	0
798.262	n/a	WORD	399131	wordpools/wasnorm_wordpool_576.txt	LTP273	ltpFR2	4	3	BARLEY	88	n/a	n/a	0	0	0
801.074	n/a	WORD	400537	wordpools/wasnorm_wordpool_576.txt	LTP273	ltpFR2	4	3	SALT	1229	n/a	n/a	0	0	0
803.57	n/a	WORD	401785	wordpools/wasnorm_wordpool_576.txt	LTP273	ltpFR2	4	3	PARSLEY	1016	n/a	n/a	0	0	0
806.0	n/a	WORD	403000	wordpools/wasnorm_wordpool_576.txt	LTP273	ltpFR2	4	3	CLOCK	325	n/a	n/a	0	0	0
808.612	n/a	WORD	404306	wordpools/wasnorm_wordpool_576.txt	LTP273	ltpFR2	4	3	NOVEL	960	n/a	n/a	0	0	0
811.308	n/a	WORD	405654	wordpools/wasnorm_wordpool_576.txt	LTP273	ltpFR2	4	3	JELLO	754	n/a	n/a	0	0	0
814.088	n/a	WORD	407044	wordpools/wasnorm_wordpool_576.txt	LTP273	ltpFR2	4	3	CATCHER	258	n/a	n/a	0	0	0
816.668	n/a	WORD	408334	wordpools/wasnorm_wordpool_576.txt	LTP273	ltpFR2	4	3	SEAL	1262	n/a	n/a	0	0	0
819.464	n/a	WORD	409732	wordpools/wasnorm_wordpool_576.txt	LTP273	ltpFR2	4	3	ONION	977	n/a	n/a	0	0	0
821.91	n/a	WORD	410955	wordpools/wasnorm_wordpool_576.txt	LTP273	ltpFR2	4	3	CREVICE	405	n/a	n/a	0	0	0
824.39	n/a	WORD	412195	wordpools/wasnorm_wordpool_576.txt	LTP273	ltpFR2	4	3	PRIMATE	1123	n/a	n/a	0	0	0
827.136	n/a	WORD	413568	wordpools/wasnorm_wordpool_576.txt	LTP273	ltpFR2	4	3	GREASE	660	n/a	n/a	0	0	0
829.682	n/a	WORD	414841	wordpools/wasnorm_wordpool_576.txt	LTP273	ltpFR2	4	3	SOFTBALL	1343	n/a	n/a	0	0	0
832.278	n/a	WORD	416139	wordpools/wasnorm_wordpool_576.txt	LTP273	ltpFR2	4	3	GAZELLE	628	n/a	n/a	0	0	0
834.992	n/a	WORD	417496	wordpools/wasnorm_wordpool_576.txt	LTP273	ltpFR2	4	3	ORCHID	982	n/a	n/a	0	0	0
837.72	n/a	WORD	418860	wordpools/wasnorm_wordpool_576.txt	LTP273	ltpFR2	4	3	BOUQUET	157	n/a	n/a	0	0	0
840.5	n/a	WORD	420250	wordpools/wasnorm_wordpool_576.txt	LTP273	ltpFR2	4	3	ZIPPER	1636	n/a	n/a	0	0	0
843.13	n/a	WORD	421565	wordpools/wasnorm_wordpool_576.txt	LTP273	ltpFR2	4	3	STOVE	1388	n/a	n/a	0	0	0
845.824	n/a	WORD	422912	wordpools/wasnorm_wordpool_576.txt	LTP273	ltpFR2	4	3	KITCHEN	778	n/a	n/a	0	0	0
848.422	n/a	WORD	424211	wordpools/wasnorm_wordpool_576.txt	LTP273	ltpFR2	4	3	AIRPORT	13	n/a	n/a	0	0	0
851.018	n/a	WORD	425509	wordpools/wasnorm_wordpool_576.txt	LTP273	ltpFR2	4	3	CELLAR	267	n/a	n/a	0	0	0
853.696	n/a	WORD	426848	wordpools/wasnorm_wordpool_576.txt	LTP273	ltpFR2	4	3	DANCER	437	n/a	n/a	0	0	0
855.312	n/a	START	427656	n/a	LTP273	ltpFR2	4	n/a	n/a	n/a	4	n/a	n/a	n/a	n/a
856.19	n/a	DISTRACTOR	428095	n/a	LTP273	ltpFR2	4	3	n/a	n/a	n/a	n/a	0	0	0
856.192	n/a	PROB	428096	n/a	LTP273	ltpFR2	4	n/a	n/a	n/a	4	10	2	3	5
858.024	n/a	PROB	429012	n/a	LTP273	ltpFR2	4	n/a	n/a	n/a	4	17	5	3	9
859.338	n/a	PROB	429669	n/a	LTP273	ltpFR2	4	n/a	n/a	n/a	4	13	1	4	8
860.836	n/a	PROB	430418	n/a	LTP273	ltpFR2	4	n/a	n/a	n/a	4	23	8	5	8
864.348	n/a	PROB	432174	n/a	LTP273	ltpFR2	4	n/a	n/a	n/a	4	17	4	5	8
866.162	n/a	PROB	433081	n/a	LTP273	ltpFR2	4	n/a	n/a	n/a	4	21	6	9	8
869.44	n/a	PROB	434720	n/a	LTP273	ltpFR2	4	n/a	n/a	n/a	4	21	7	5	9
871.22	n/a	PROB	435610	n/a	LTP273	ltpFR2	4	n/a	n/a	n/a	4	20	7	9	4
872.918	n/a	PROB	436459	n/a	LTP273	ltpFR2	4	n/a	n/a	n/a	4	14	6	4	4
874.066	n/a	PROB	437033	n/a	LTP273	ltpFR2	4	n/a	n/a	n/a	4	13	8	2	3
875.248	n/a	PROB	437624	n/a	LTP273	ltpFR2	4	n/a	n/a	n/a	4	21	3	9	9
879.312	n/a	STOP	439656	n/a	LTP273	ltpFR2	4	n/a	n/a	n/a	4	n/a	n/a	n/a	n/a
881.106	n/a	REC_START	440553	n/a	LTP273	ltpFR2	4	3	n/a	n/a	n/a	n/a	0	0	0
883.788	n/a	REC_WORD	441894	wordpools/wasnorm_wordpool_576.txt	LTP273	ltpFR2	4	3	CELLAR	267	n/a	n/a	0	0	0
885.054	n/a	REC_WORD	442527	wordpools/wasnorm_wordpool_576.txt	LTP273	ltpFR2	4	3	BOUQUET	157	n/a	n/a	0	0	0
886.466	n/a	REC_WORD	443233	wordpools/wasnorm_wordpool_576.txt	LTP273	ltpFR2	4	3	ORCHID	982	n/a	n/a	0	0	0
890.392	n/a	REC_WORD	445196	wordpools/wasnorm_wordpool_576.txt	LTP273	ltpFR2	4	3	SHELTER	1282	n/a	n/a	0	0	0
891.344	n/a	REC_WORD	445672	wordpools/wasnorm_wordpool_576.txt	LTP273	ltpFR2	4	3	OFFICE	972	n/a	n/a	0	0	0
892.182	n/a	REC_WORD	446091	wordpools/wasnorm_wordpool_576.txt	LTP273	ltpFR2	4	3	CATCHER	258	n/a	n/a	0	0	0
893.522	n/a	REC_WORD	446761	wordpools/wasnorm_wordpool_576.txt	LTP273	ltpFR2	4	3	PRIMATE	1123	n/a	n/a	0	0	0
894.478	n/a	REC_WORD	447239	wordpools/wasnorm_wordpool_576.txt	LTP273	ltpFR2	4	3	GREASY	-1	n/a	n/a	0	0	0
895.34	n/a	REC_WORD_VV	447670	wordpools/wasnorm_wordpool_576.txt	LTP273	ltpFR2	4	3	<>	-1	n/a	n/a	0	0	0
895.87	n/a	REC_WORD	447935	wordpools/wasnorm_wordpool_576.txt	LTP273	ltpFR2	4	3	GREASE	660	n/a	n/a	0	0	0
901.87	n/a	REC_WORD	450935	wordpools/wasnorm_wordpool_576.txt	LTP273	ltpFR2	4	3	PARSLEY	1016	n/a	n/a	0	0	0
902.754	n/a	REC_WORD	451377	wordpools/wasnorm_wordpool_576.txt	LTP273	ltpFR2	4	3	ONION	977	n/a	n/a	0	0	0
903.55	n/a	REC_WORD	451775	wordpools/wasnorm_wordpool_576.txt	LTP273	ltpFR2	4	3	CREVICE	405	n/a	n/a	0	0	0
904.526	n/a	REC_WORD	452263	wordpools/wasnorm_wordpool_576.txt	LTP273	ltpFR2	4	3	BARLEY	88	n/a	n/a	0	0	0
905.286	n/a	REC_WORD	452643	wordpools/wasnorm_wordpool_576.txt	LTP273	ltpFR2	4	3	SALT	1229	n/a	n/a	0	0	0
915.624	n/a	REC_WORD	457812	wordpools/wasnorm_wordpool_576.txt	LTP273	ltpFR2	4	3	SOFTBALL	1343	n/a	n/a	0	0	0
923.21	n/a	REC_WORD	461605	wordpools/wasnorm_wordpool_576.txt	LTP273	ltpFR2	4	3	KITCHEN	778	n/a	n/a	0	0	0
923.786	n/a	REC_WORD	461893	wordpools/wasnorm_wordpool_576.txt	LTP273	ltpFR2	4	3	STOVE	1388	n/a	n/a	0	0	0
1160.01	n/a	DISTRACTOR	580005	n/a	LTP273	ltpFR2	4	4	n/a	n/a	n/a	n/a	0	0	0
1160.01	n/a	START	580005	n/a	LTP273	ltpFR2	4	n/a	n/a	n/a	5	n/a	n/a	n/a	n/a
1160.044	n/a	PROB	580022	n/a	LTP273	ltpFR2	4	n/a	n/a	n/a	5	17	4	6	7
1161.824	n/a	PROB	580912	n/a	LTP273	ltpFR2	4	n/a	n/a	n/a	5	12	5	6	1
1164.104	n/a	PROB	582052	n/a	LTP273	ltpFR2	4	n/a	n/a	n/a	5	15	2	9	6
1166.402	n/a	PROB	583201	n/a	LTP273	ltpFR2	4	n/a	n/a	n/a	5	17	7	2	8
1167.832	n/a	PROB	583916	n/a	LTP273	ltpFR2	4	n/a	n/a	n/a	5	17	9	4	4
1169.262	n/a	PROB	584631	n/a	LTP273	ltpFR2	4	n/a	n/a	n/a	5	20	2	9	8
1170.994	n/a	PROB	585497	n/a	LTP273	ltpFR2	4	n/a	n/a	n/a	5	18	2	9	7
1172.558	n/a	PROB	586279	n/a	LTP273	ltpFR2	4	n/a	n/a	n/a	5	11	5	4	2
1174.538	n/a	PROB	587269	n/a	LTP273	ltpFR2	4	n/a	n/a	n/a	5	15	8	4	2
1175.97	n/a	PROB	587985	n/a	LTP273	ltpFR2	4	n/a	n/a	n/a	5	12	7	4	1
1177.334	n/a	PROB	588667	n/a	LTP273	ltpFR2	4	n/a	n/a	n/a	5	11	1	5	5
1178.268	n/a	PROB	589134	n/a	LTP273	ltpFR2	4	n/a	n/a	n/a	5	13	5	7	1
1179.798	n/a	PROB	589899	n/a	LTP273	ltpFR2	4	n/a	n/a	n/a	5	11	3	2	6
1180.83	n/a	PROB	590415	n/a	LTP273	ltpFR2	4	n/a	n/a	n/a	5	17	5	2	9
1182.178	n/a	PROB	591089	n/a	LTP273	ltpFR2	4	n/a	n/a	n/a	5	17	8	6	3
1183.534	n/a	STOP	591767	n/a	LTP273	ltpFR2	4	n/a	n/a	n/a	5	n/a	n/a	n/a	n/a
1185.04	n/a	WORD	592520	wordpools/wasnorm_wordpool_576.txt	LTP273	ltpFR2	4	4	RELISH	1183	n/a	n/a	0	0	0
1187.686	n/a	WORD	593843	wordpools/wasnorm_wordpool_576.txt	LTP273	ltpFR2	4	4	ROBOT	1200	n/a	n/a	0	0	0
1190.498	n/a	WORD	595249	wordpools/wasnorm_wordpool_576.txt	LTP273	ltpFR2	4	4	STAKE	1368	n/a	n/a	0	0	0
1193.078	n/a	WORD	596539	wordpools/wasnorm_wordpool_576.txt	LTP273	ltpFR2	4	4	RECEIPT	1173	n/a	n/a	0	0	0
1195.84	n/a	WORD	597920	wordpools/wasnorm_wordpool_576.txt	LTP273	ltpFR2	4	4	BANK	83	n/a	n/a	0	0	0
1198.47	n/a	WORD	599235	wordpools/wasnorm_wordpool_576.txt	LTP273	ltpFR2	4	4	DASHBOARD	441	n/a	n/a	0	0	0
1201.066	n/a	WORD	600533	wordpools/wasnorm_wordpool_576.txt	LTP273	ltpFR2	4	4	TOURIST	1488	n/a	n/a	0	0	0
1203.58	n/a	WORD	601790	wordpools/wasnorm_wordpool_576.txt	LTP273	ltpFR2	4	4	FLEET	578	n/a	n/a	0	0	0
1206.226	n/a	WORD	603113	wordpools/wasnorm_wordpool_576.txt	LTP273	ltpFR2	4	4	TUNNEL	1519	n/a	n/a	0	0	0
1208.954	n/a	WORD	604477	wordpools/wasnorm_wordpool_576.txt	LTP273	ltpFR2	4	4	MACHINE	852	n/a	n/a	0	0	0
1211.534	n/a	WORD	605767	wordpools/wasnorm_wordpool_576.txt	LTP273	ltpFR2	4	4	BRAKE	166	n/a	n/a	0	0	0
1213.98	n/a	WORD	606990	wordpools/wasnorm_wordpool_576.txt	LTP273	ltpFR2	4	4	TRUCK	1512	n/a	n/a	0	0	0
1216.56	n/a	WORD	608280	wordpools/wasnorm_wordpool_576.txt	LTP273	ltpFR2	4	4	COD	340	n/a	n/a	0	0	0
1219.04	n/a	WORD	609520	wordpools/wasnorm_wordpool_576.txt	LTP273	ltpFR2	4	4	FLUTE	585	n/a	n/a	0	0	0
1221.752	n/a	WORD	610876	wordpools/wasnorm_wordpool_576.txt	LTP273	ltpFR2	4	4	HANDBAG	684	n/a	n/a	0	0	0
1224.216	n/a	WORD	612108	wordpools/wasnorm_wordpool_576.txt	LTP273	ltpFR2	4	4	CASHIER	254	n/a	n/a	0	0	0
1226.878	n/a	WORD	613439	wordpools/wasnorm_wordpool_576.txt	LTP273	ltpFR2	4	4	LASER	801	n/a	n/a	0	0	0
1229.376	n/a	WORD	614688	wordpools/wasnorm_wordpool_576.txt	LTP273	ltpFR2	4	4	ACTOR	5	n/a	n/a	0	0	0
1232.07	n/a	WORD	616035	wordpools/wasnorm_wordpool_576.txt	LTP273	ltpFR2	4	4	PANTHER	1009	n/a	n/a	0	0	0
1234.532	n/a	WORD	617266	wordpools/wasnorm_wordpool_576.txt	LTP273	ltpFR2	4	4	FOOTBALL	591	n/a	n/a	0	0	0
1237.328	n/a	WORD	618664	wordpools/wasnorm_wordpool_576.txt	LTP273	ltpFR2	4	4	UMPIRE	1535	n/a	n/a	0	0	0
1239.858	n/a	WORD	619929	wordpools/wasnorm_wordpool_576.txt	LTP273	ltpFR2	4	4	ARM	38	n/a	n/a	0	0	0
1242.488	n/a	WORD	621244	wordpools/wasnorm_wordpool_576.txt	LTP273	ltpFR2	4	4	BALLOON	75	n/a	n/a	0	0	0
1245.184	n/a	WORD	622592	wordpools/wasnorm_wordpool_576.txt	LTP273	ltpFR2	4	4	OZONE	996	n/a	n/a	0	0	0
1246.798	n/a	START	623399	n/a	LTP273	ltpFR2	4	n/a	n/a	n/a	6	n/a	n/a	n/a	n/a
1247.618	n/a	DISTRACTOR	623809	n/a	LTP273	ltpFR2	4	4	n/a	n/a	n/a	n/a	0	0	0
1247.632	n/a	PROB	623816	n/a	LTP273	ltpFR2	4	n/a	n/a	n/a	6	11	4	1	6
1249.562	n/a	PROB	624781	n/a	LTP273	ltpFR2	4	n/a	n/a	n/a	6	15	1	5	9
1250.926	n/a	PROB	625463	n/a	LTP273	ltpFR2	4	n/a	n/a	n/a	6	9	3	5	1
1252.74	n/a	PROB	626370	n/a	LTP273	ltpFR2	4	n/a	n/a	n/a	6	21	5	9	7
1254.77	n/a	PROB	627385	n/a	LTP273	ltpFR2	4	n/a	n/a	n/a	6	19	8	8	3
1257.334	n/a	PROB	628667	n/a	LTP273	ltpFR2	4	n/a	n/a	n/a	6	15	4	9	2
1259.28	n/a	PROB	629640	n/a	LTP273	ltpFR2	4	n/a	n/a	n/a	6	18	7	3	8
1260.278	n/a	PROB	630139	n/a	LTP273	ltpFR2	4	n/a	n/a	n/a	6	16	3	5	8
1261.444	n/a	PROB	630722	n/a	LTP273	ltpFR2	4	n/a	n/a	n/a	6	12	1	2	9
1262.576	n/a	PROB	631288	n/a	LTP273	ltpFR2	4	n/a	n/a	n/a	6	15	1	8	6
1263.94	n/a	PROB	631970	n/a	LTP273	ltpFR2	4	n/a	n/a	n/a	6	22	6	9	7
1266.536	n/a	PROB	633268	n/a	LTP273	ltpFR2	4	n/a	n/a	n/a	6	18	8	4	6
1268.284	n/a	PROB	634142	n/a	LTP273	ltpFR2	4	n/a	n/a	n/a	6	20	7	7	6
1270.312	n/a	STOP	635156	n/a	LTP273	ltpFR2	4	n/a	n/a	n/a	6	n/a	n/a	n/a	n/a
1272.678	n/a	REC_START	636339	n/a	LTP273	ltpFR2	4	4	n/a	n/a	n/a	n/a	0	0	0
1272.926	n/a	REC_WORD	636463	wordpools/wasnorm_wordpool_576.txt	LTP273	ltpFR2	4	4	OZONE	996	n/a	n/a	0	0	0
1273.618	n/a	REC_WORD	636809	wordpools/wasnorm_wordpool_576.txt	LTP273	ltpFR2	4	4	BALLOON	75	n/a	n/a	0	0	0
1274.15	n/a	REC_WORD	637075	wordpools/wasnorm_wordpool_576.txt	LTP273	ltpFR2	4	4	FLUTE	585	n/a	n/a	0	0	0
1274.882	n/a	REC_WORD	637441	wordpools/wasnorm_wordpool_576.txt	LTP273	ltpFR2	4	4	COD	340	n/a	n/a	0	0	0
1275.368	n/a	REC_WORD	637684	wordpools/wasnorm_wordpool_576.txt	LTP273	ltpFR2	4	4	STAKE	1368	n/a	n/a	0	0	0
1278.332	n/a	REC_WORD	639166	wordpools/wasnorm_wordpool_576.txt	LTP273	ltpFR2	4	4	TRUCK	1512	n/a	n/a	0	0	0
1279.3	n/a	REC_WORD	639650	wordpools/wasnorm_wordpool_576.txt	LTP273	ltpFR2	4	4	HANDBAG	684	n/a	n/a	0	0	0
1281.194	n/a	REC_WORD	640597	wordpools/wasnorm_wordpool_576.txt	LTP273	ltpFR2	4	4	FLUTE	585	n/a	n/a	0	0	0
1285.764	n/a	REC_WORD	642882	wordpools/wasnorm_wordpool_576.txt	LTP273	ltpFR2	4	4	PANTHER	1009	n/a	n/a	0	0	0
1286.45	n/a	REC_WORD	643225	wordpools/wasnorm_wordpool_576.txt	LTP273	ltpFR2	4	4	UMPIRE	1535	n/a	n/a	0	0	0
1287.938	n/a	REC_WORD	643969	wordpools/wasnorm_wordpool_576.txt	LTP273	ltpFR2	4	4	FOOTBALL	591	n/a	n/a	0	0	0
1292.398	n/a	REC_WORD	646199	wordpools/wasnorm_wordpool_576.txt	LTP273	ltpFR2	4	4	RECEIPT	1173	n/a	n/a	0	0	0
1301.686	n/a	REC_WORD	650843	wordpools/wasnorm_wordpool_576.txt	LTP273	ltpFR2	4	4	SEAL	1262	n/a	n/a	0	0	0
1363.31	n/a	DISTRACTOR	681655	n/a	LTP273	ltpFR2	4	5	n/a	n/a	n/a	n/a	0	0	0
1363.31	n/a	START	681655	n/a	LTP273	ltpFR2	4	n/a	n/a	n/a	7	n/a	n/a	n/a	n/a
1363.342	n/a	PROB	681671	n/a	LTP273	ltpFR2	4	n/a	n/a	n/a	7	17	7	3	7
1365.006	n/a	PROB	682503	n/a	LTP273	ltpFR2	4	n/a	n/a	n/a	7	11	6	4	1
1365.938	n/a	PROB	682969	n/a	LTP273	ltpFR2	4	n/a	n/a	n/a	7	23	8	6	9
1367.686	n/a	PROB	683843	n/a	LTP273	ltpFR2	4	n/a	n/a	n/a	7	11	4	1	6
1369.184	n/a	PROB	684592	n/a	LTP273	ltpFR2	4	n/a	n/a	n/a	7	12	1	3	8
1370.482	n/a	PROB	685241	n/a	LTP273	ltpFR2	4	n/a	n/a	n/a	7	4	2	1	1
1371.382	n/a	PROB	685691	n/a	LTP273	ltpFR2	4	n/a	n/a	n/a	7	24	9	8	7
1373.144	n/a	PROB	686572	n/a	LTP273	ltpFR2	4	n/a	n/a	n/a	7	23	6	9	7
1374.626	n/a	PROB	687313	n/a	LTP273	ltpFR2	4	n/a	n/a	n/a	7	12	6	4	2
1376.14	n/a	PROB	688070	n/a	LTP273	ltpFR2	4	n/a	n/a	n/a	7	12	5	4	3
1377.522	n/a	PROB	688761	n/a	LTP273	ltpFR2	4	n/a	n/a	n/a	7	18	7	3	8
1378.836	n/a	PROB	689418	n/a	LTP273	ltpFR2	4	n/a	n/a	n/a	7	17	5	3	9
1380.134	n/a	PROB	690067	n/a	LTP273	ltpFR2	4	n/a	n/a	n/a	7	11	3	2	5
1381.282	n/a	PROB	690641	n/a	LTP273	ltpFR2	4	n/a	n/a	n/a	7	8	5	1	2
1385.11	n/a	PROB	692555	n/a	LTP273	ltpFR2	4	n/a	n/a	n/a	7	9	6	2	1
1386.666	n/a	STOP	693333	n/a	LTP273	ltpFR2	4	n/a	n/a	n/a	7	n/a	n/a	n/a	n/a
1388.274	n/a	WORD	694137	wordpools/wasnorm_wordpool_576.txt	LTP273	ltpFR2	4	5	SHORTCAKE	1292	n/a	n/a	0	0	0
1391.068	n/a	WORD	695534	wordpools/wasnorm_wordpool_576.txt	LTP273	ltpFR2	4	5	CIGAR	308	n/a	n/a	0	0	0
1393.714	n/a	WORD	696857	wordpools/wasnorm_wordpool_576.txt	LTP273	ltpFR2	4	5	MOP	916	n/a	n/a	0	0	0
1396.312	n/a	WORD	698156	wordpools/wasnorm_wordpool_576.txt	LTP273	ltpFR2	4	5	CEILING	265	n/a	n/a	0	0	0
1398.824	n/a	WORD	699412	wordpools/wasnorm_wordpool_576.txt	LTP273	ltpFR2	4	5	LAKE	796	n/a	n/a	0	0	0
1401.37	n/a	WORD	700685	wordpools/wasnorm_wordpool_576.txt	LTP273	ltpFR2	4	5	VALVE	1546	n/a	n/a	0	0	0
1404.1	n/a	WORD	702050	wordpools/wasnorm_wordpool_576.txt	LTP273	ltpFR2	4	5	CHIPMUNK	304	n/a	n/a	0	0	0
1406.912	n/a	WORD	703456	wordpools/wasnorm_wordpool_576.txt	LTP273	ltpFR2	4	5	ATOM	55	n/a	n/a	0	0	0
1409.342	n/a	WORD	704671	wordpools/wasnorm_wordpool_576.txt	LTP273	ltpFR2	4	5	COIN	343	n/a	n/a	0	0	0
1412.07	n/a	WORD	706035	wordpools/wasnorm_wordpool_576.txt	LTP273	ltpFR2	4	5	LAPEL	800	n/a	n/a	0	0	0
1414.6	n/a	WORD	707300	wordpools/wasnorm_wordpool_576.txt	LTP273	ltpFR2	4	5	JUNGLE	764	n/a	n/a	0	0	0
1417.246	n/a	WORD	708623	wordpools/wasnorm_wordpool_576.txt	LTP273	ltpFR2	4	5	BODY	145	n/a	n/a	0	0	0
1420.042	n/a	WORD	710021	wordpools/wasnorm_wordpool_576.txt	LTP273	ltpFR2	4	5	THREAD	1460	n/a	n/a	0	0	0
1422.538	n/a	WORD	711269	wordpools/wasnorm_wordpool_576.txt	LTP273	ltpFR2	4	5	BUCKET	184	n/a	n/a	0	0	0
1425.284	n/a	WORD	712642	wordpools/wasnorm_wordpool_576.txt	LTP273	ltpFR2	4	5	PATROL	1027	n/a	n/a	0	0	0
1427.964	n/a	WORD	713982	wordpools/wasnorm_wordpool_576.txt	LTP273	ltpFR2	4	5	CROWN	415	n/a	n/a	0	0	0
1430.626	n/a	WORD	715313	wordpools/wasnorm_wordpool_576.txt	LTP273	ltpFR2	4	5	PLAZA	1088	n/a	n/a	0	0	0
1433.272	n/a	WORD	716636	wordpools/wasnorm_wordpool_576.txt	LTP273	ltpFR2	4	5	EAGLE	512	n/a	n/a	0	0	0
1435.768	n/a	WORD	717884	wordpools/wasnorm_wordpool_576.txt	LTP273	ltpFR2	4	5	RAFT	1159	n/a	n/a	0	0	0
1438.216	n/a	WORD	719108	wordpools/wasnorm_wordpool_576.txt	LTP273	ltpFR2	4	5	MISSILE	900	n/a	n/a	0	0	0
1440.978	n/a	WORD	720489	wordpools/wasnorm_wordpool_576.txt	LTP273	ltpFR2	4	5	BLADE	134	n/a	n/a	0	0	0
1443.74	n/a	WORD	721870	wordpools/wasnorm_wordpool_576.txt	LTP273	ltpFR2	4	5	RAZOR	1171	n/a	n/a	0	0	0
1446.204	n/a	WORD	723102	wordpools/wasnorm_wordpool_576.txt	LTP273	ltpFR2	4	5	NIGHTGOWN	953	n/a	n/a	0	0	0
1448.882	n/a	WORD	724441	wordpools/wasnorm_wordpool_576.txt	LTP273	ltpFR2	4	5	PADDLE	1000	n/a	n/a	0	0	0
1450.498	n/a	START	725249	n/a	LTP273	ltpFR2	4	n/a	n/a	n/a	8	n/a	n/a	n/a	n/a
1451.52	n/a	DISTRACTOR	725760	n/a	LTP273	ltpFR2	4	5	n/a	n/a	n/a	n/a	0	0	0
1451.528	n/a	PROB	725764	n/a	LTP273	ltpFR2	4	n/a	n/a	n/a	8	18	8	7	3
1454.058	n/a	PROB	727029	n/a	LTP273	ltpFR2	4	n/a	n/a	n/a	8	12	4	3	5
1457.604	n/a	PROB	728802	n/a	LTP273	ltpFR2	4	n/a	n/a	n/a	8	12	3	4	5
1459.252	n/a	PROB	729626	n/a	LTP273	ltpFR2	4	n/a	n/a	n/a	8	16	2	6	8
1460.682	n/a	PROB	730341	n/a	LTP273	ltpFR2	4	n/a	n/a	n/a	8	21	7	8	6
1463.778	n/a	PROB	731889	n/a	LTP273	ltpFR2	4	n/a	n/a	n/a	8	15	3	9	3
1466.74	n/a	PROB	733370	n/a	LTP273	ltpFR2	4	n/a	n/a	n/a	8	11	4	6	1
1467.956	n/a	PROB	733978	n/a	LTP273	ltpFR2	4	n/a	n/a	n/a	8	22	9	4	9
1469.986	n/a	PROB	734993	n/a	LTP273	ltpFR2	4	n/a	n/a	n/a	8	15	8	2	5
1471.118	n/a	PROB	735559	n/a	LTP273	ltpFR2	4	n/a	n/a	n/a	8	13	3	2	8
1472.416	n/a	PROB	736208	n/a	LTP273	ltpFR2	4	n/a	n/a	n/a	8	21	7	7	7
1473.436	n/a	STOP	736718	n/a	LTP273	ltpFR2	4	n/a	n/a	n/a	8	n/a	n/a	n/a	n/a
1476.41	n/a	REC_START	738205	n/a	LTP273	ltpFR2	4	5	n/a	n/a	n/a	n/a	0	0	0
1478.874	n/a	REC_WORD	739437	wordpools/wasnorm_wordpool_576.txt	LTP273	ltpFR2	4	5	BODY	145	n/a	n/a	0	0	0
1479.714	n/a	REC_WORD	739857	wordpools/wasnorm_wordpool_576.txt	LTP273	ltpFR2	4	5	MISSILE	900	n/a	n/a	0	0	0
1481.798	n/a	REC_WORD	740899	wordpools/wasnorm_wordpool_576.txt	LTP273	ltpFR2	4	5	LAKE	796	n/a	n/a	0	0	0
1482.41	n/a	REC_WORD	741205	wordpools/wasnorm_wordpool_576.txt	LTP273	ltpFR2	4	5	SHORTCAKE	1292	n/a	n/a	0	0	0
1484.138	n/a	REC_WORD	742069	wordpools/wasnorm_wordpool_576.txt	LTP273	ltpFR2	4	5	VALVE	1546	n/a	n/a	0	0	0
1484.926	n/a	REC_WORD	742463	wordpools/wasnorm_wordpool_576.txt	LTP273	ltpFR2	4	5	COIN	343	n/a	n/a	0	0	0
1487.404	n/a	REC_WORD	743702	wordpools/wasnorm_wordpool_576.txt	LTP273	ltpFR2	4	5	LAPEL	800	n/a	n/a	0	0	0
1488.502	n/a	REC_WORD	744251	wordpools/wasnorm_wordpool_576.txt	LTP273	ltpFR2	4	5	THREAD	1460	n/a	n/a	0	0	0
1490.762	n/a	REC_WORD	745381	wordpools/wasnorm_wordpool_576.txt	LTP273	ltpFR2	4	5	CHIPMUNK	304	n/a	n/a	0	0	0
1491.912	n/a	REC_WORD	745956	wordpools/wasnorm_wordpool_576.txt	LTP273	ltpFR2	4	5	JUNGLE	764	n/a	n/a	0	0	0
1500.838	n/a	REC_WORD	750419	wordpools/wasnorm_wordpool_576.txt	LTP273	ltpFR2	4	5	CROWN	415	n/a	n/a	0	0	0
1501.8	n/a	REC_WORD	750900	wordpools/wasnorm_wordpool_576.txt	LTP273	ltpFR2	4	5	PLAZA	1088	n/a	n/a	0	0	0
1509.974	n/a	REC_WORD	754987	wordpools/wasnorm_wordpool_576.txt	LTP273	ltpFR2	4	5	BLADE	134	n/a	n/a	0	0	0
1510.596	n/a	REC_WORD	755298	wordpools/wasnorm_wordpool_576.txt	LTP273	ltpFR2	4	5	RAZOR	1171	n/a	n/a	0	0	0
1521.792	n/a	REC_WORD	760896	wordpools/wasnorm_wordpool_576.txt	LTP273	ltpFR2	4	5	NIGHTGOWN	953	n/a	n/a	0	0	0
1523.638	n/a	REC_WORD	761819	wordpools/wasnorm_wordpool_576.txt	LTP273	ltpFR2	4	5	PADDLE	1000	n/a	n/a	0	0	0
1567.058	n/a	DISTRACTOR	783529	n/a	LTP273	ltpFR2	4	6	n/a	n/a	n/a	n/a	0	0	0
1567.058	n/a	START	783529	n/a	LTP273	ltpFR2	4	n/a	n/a	n/a	9	n/a	n/a	n/a	n/a
1567.092	n/a	PROB	783546	n/a	LTP273	ltpFR2	4	n/a	n/a	n/a	9	16	6	5	5
1568.788	n/a	PROB	784394	n/a	LTP273	ltpFR2	4	n/a	n/a	n/a	9	12	4	1	7
1569.97	n/a	PROB	784985	n/a	LTP273	ltpFR2	4	n/a	n/a	n/a	9	15	5	4	6
1572.1	n/a	PROB	786050	n/a	LTP273	ltpFR2	4	n/a	n/a	n/a	9	8	6	1	1
1573.1	n/a	PROB	786550	n/a	LTP273	ltpFR2	4	n/a	n/a	n/a	9	15	4	2	9
1574.248	n/a	PROB	787124	n/a	LTP273	ltpFR2	4	n/a	n/a	n/a	9	14	7	2	5
1576.826	n/a	PROB	788413	n/a	LTP273	ltpFR2	4	n/a	n/a	n/a	9	14	6	6	2
1578.174	n/a	PROB	789087	n/a	LTP273	ltpFR2	4	n/a	n/a	n/a	9	14	7	1	6
1579.49	n/a	PROB	789745	n/a	LTP273	ltpFR2	4	n/a	n/a	n/a	9	12	3	4	5
1580.888	n/a	PROB	790444	n/a	LTP273	ltpFR2	4	n/a	n/a	n/a	9	16	7	8	4
1582.618	n/a	PROB	791309	n/a	LTP273	ltpFR2	4	n/a	n/a	n/a	9	13	1	9	3
1584.498	n/a	PROB	792249	n/a	LTP273	ltpFR2	4	n/a	n/a	n/a	9	19	9	1	9
1585.946	n/a	PROB	792973	n/a	LTP273	ltpFR2	4	n/a	n/a	n/a	9	19	8	3	8
1588.51	n/a	PROB	794255	n/a	LTP273	ltpFR2	4	n/a	n/a	n/a	9	8	3	4	1
1589.548	n/a	STOP	794774	n/a	LTP273	ltpFR2	4	n/a	n/a	n/a	9	n/a	n/a	n/a	n/a
1592.188	n/a	WORD	796094	wordpools/wasnorm_wordpool_576.txt	LTP273	ltpFR2	4	6	MILDEW	893	n/a	n/a	0	0	0
1594.618	n/a	WORD	797309	wordpools/wasnorm_wordpool_576.txt	LTP273	ltpFR2	4	6	KIDNEY	776	n/a	n/a	0	0	0
1597.314	n/a	WORD	798657	wordpools/wasnorm_wordpool_576.txt	LTP273	ltpFR2	4	6	CUPBOARD	425	n/a	n/a	0	0	0
1599.826	n/a	WORD	799913	wordpools/wasnorm_wordpool_576.txt	LTP273	ltpFR2	4	6	ORANGE	980	n/a	n/a	0	0	0
1602.64	n/a	WORD	801320	wordpools/wasnorm_wordpool_576.txt	LTP273	ltpFR2	4	6	TOASTER	1472	n/a	n/a	0	0	0
1605.202	n/a	WORD	802601	wordpools/wasnorm_wordpool_576.txt	LTP273	ltpFR2	4	6	POISON	1096	n/a	n/a	0	0	0
1607.982	n/a	WORD	803991	wordpools/wasnorm_wordpool_576.txt	LTP273	ltpFR2	4	6	TURNIP	1521	n/a	n/a	0	0	0
1610.644	n/a	WORD	805322	wordpools/wasnorm_wordpool_576.txt	LTP273	ltpFR2	4	6	GARDEN	623	n/a	n/a	0	0	0
1613.24	n/a	WORD	806620	wordpools/wasnorm_wordpool_576.txt	LTP273	ltpFR2	4	6	FRECKLE	602	n/a	n/a	0	0	0
1616.036	n/a	WORD	808018	wordpools/wasnorm_wordpool_576.txt	LTP273	ltpFR2	4	6	PIMPLE	1071	n/a	n/a	0	0	0
1618.666	n/a	WORD	809333	wordpools/wasnorm_wordpool_576.txt	LTP273	ltpFR2	4	6	HARP	689	n/a	n/a	0	0	0
1621.396	n/a	WORD	810698	wordpools/wasnorm_wordpool_576.txt	LTP273	ltpFR2	4	6	TEACHER	1440	n/a	n/a	0	0	0
1623.824	n/a	WORD	811912	wordpools/wasnorm_wordpool_576.txt	LTP273	ltpFR2	4	6	DAUGHTER	442	n/a	n/a	0	0	0
1626.438	n/a	WORD	813219	wordpools/wasnorm_wordpool_576.txt	LTP273	ltpFR2	4	6	GOBLIN	645	n/a	n/a	0	0	0
1629.034	n/a	WORD	814517	wordpools/wasnorm_wordpool_576.txt	LTP273	ltpFR2	4	6	COWBOY	395	n/a	n/a	0	0	0
1631.512	n/a	WORD	815756	wordpools/wasnorm_wordpool_576.txt	LTP273	ltpFR2	4	6	FRUIT	610	n/a	n/a	0	0	0
1634.142	n/a	WORD	817071	wordpools/wasnorm_wordpool_576.txt	LTP273	ltpFR2	4	6	COCKTAIL	338	n/a	n/a	0	0	0
1636.572	n/a	WORD	818286	wordpools/wasnorm_wordpool_576.txt	LTP273	ltpFR2	4	6	VIRUS	1572	n/a	n/a	0	0	0
1639.118	n/a	WORD	819559	wordpools/wasnorm_wordpool_576.txt	LTP273	ltpFR2	4	6	PUDDLE	1140	n/a	n/a	0	0	0
1641.914	n/a	WORD	820957	wordpools/wasnorm_wordpool_576.txt	LTP273	ltpFR2	4	6	NOMAD	955	n/a	n/a	0	0	0
1644.61	n/a	WORD	822305	wordpools/wasnorm_wordpool_576.txt	LTP273	ltpFR2	4	6	CARROT	249	n/a	n/a	0	0	0
1647.156	n/a	WORD	823578	wordpools/wasnorm_wordpool_576.txt	LTP273	ltpFR2	4	6	MARSH	874	n/a	n/a	0	0	0
1649.902	n/a	WORD	824951	wordpools/wasnorm_wordpool_576.txt	LTP273	ltpFR2	4	6	BLENDER	136	n/a	n/a	0	0	0
1652.714	n/a	WORD	826357	wordpools/wasnorm_wordpool_576.txt	LTP273	ltpFR2	4	6	FIREPLACE	570	n/a	n/a	0	0	0
1654.33	n/a	START	827165	n/a	LTP273	ltpFR2	4	n/a	n/a	n/a	10	n/a	n/a	n/a	n/a
1655.222	n/a	DISTRACTOR	827611	n/a	LTP273	ltpFR2	4	6	n/a	n/a	n/a	n/a	0	0	0
1655.228	n/a	PROB	827614	n/a	LTP273	ltpFR2	4	n/a	n/a	n/a	10	2	9	5	6
1658.738	n/a	PROB	829369	n/a	LTP273	ltpFR2	4	n/a	n/a	n/a	10	17	9	7	1
1660.786	n/a	PROB	830393	n/a	LTP273	ltpFR2	4	n/a	n/a	n/a	10	11	4	2	5
1662.816	n/a	PROB	831408	n/a	LTP273	ltpFR2	4	n/a	n/a	n/a	10	18	9	7	2
1664.082	n/a	PROB	832041	n/a	LTP273	ltpFR2	4	n/a	n/a	n/a	10	13	4	8	1
1665.546	n/a	PROB	832773	n/a	LTP273	ltpFR2	4	n/a	n/a	n/a	10	10	2	3	5
1666.728	n/a	PROB	833364	n/a	LTP273	ltpFR2	4	n/a	n/a	n/a	10	23	9	9	5
1669.426	n/a	PROB	834713	n/a	LTP273	ltpFR2	4	n/a	n/a	n/a	10	15	4	2	9
1671.172	n/a	PROB	835586	n/a	LTP273	ltpFR2	4	n/a	n/a	n/a	10	15	9	1	5
1672.27	n/a	PROB	836135	n/a	LTP273	ltpFR2	4	n/a	n/a	n/a	10	16	7	5	4
1675.564	n/a	PROB	837782	n/a	LTP273	ltpFR2	4	n/a	n/a	n/a	10	17	9	4	4
1676.774	n/a	STOP	838387	n/a	LTP273	ltpFR2	4	n/a	n/a	n/a	10	n/a	n/a	n/a	n/a
1680.242	n/a	REC_START	840121	n/a	LTP273	ltpFR2	4	6	n/a	n/a	n/a	n/a	0	0	0
1681.896	n/a	REC_WORD	840948	wordpools/wasnorm_wordpool_576.txt	LTP273	ltpFR2	4	6	CUPBOARD	425	n/a	n/a	0	0	0
1682.944	n/a	REC_WORD	841472	wordpools/wasnorm_wordpool_576.txt	LTP273	ltpFR2	4	6	MILDEW	893	n/a	n/a	0	0	0
1684.098	n/a	REC_WORD	842049	wordpools/wasnorm_wordpool_576.txt	LTP273	ltpFR2	4	6	KIDNEY	776	n/a	n/a	0	0	0
1685.146	n/a	REC_WORD	842573	wordpools/wasnorm_wordpool_576.txt	LTP273	ltpFR2	4	6	POISON	1096	n/a	n/a	0	0	0
1687.404	n/a	REC_WORD	843702	wordpools/wasnorm_wordpool_576.txt	LTP273	ltpFR2	4	6	ORANGE	980	n/a	n/a	0	0	0
1688.61	n/a	REC_WORD	844305	wordpools/wasnorm_wordpool_576.txt	LTP273	ltpFR2	4	6	TOASTER	1472	n/a	n/a	0	0	0
1698.41	n/a	REC_WORD	849205	wordpools/wasnorm_wordpool_576.txt	LTP273	ltpFR2	4	6	POISON	1096	n/a	n/a	0	0	0
1707.836	n/a	REC_WORD	853918	wordpools/wasnorm_wordpool_576.txt	LTP273	ltpFR2	4	6	DAUGHTER	442	n/a	n/a	0	0	0
1708.444	n/a	REC_WORD	854222	wordpools/wasnorm_wordpool_576.txt	LTP273	ltpFR2	4	6	TEACHER	1440	n/a	n/a	0	0	0
1709.032	n/a	REC_WORD	854516	wordpools/wasnorm_wordpool_576.txt	LTP273	ltpFR2	4	6	FRECKLE	602	n/a	n/a	0	0	0
1709.948	n/a	REC_WORD	854974	wordpools/wasnorm_wordpool_576.txt	LTP273	ltpFR2	4	6	PIMPLE	1071	n/a	n/a	0	0	0
1712.444	n/a	REC_WORD	856222	wordpools/wasnorm_wordpool_576.txt	LTP273	ltpFR2	4	6	FRUIT	610	n/a	n/a	0	0	0
1713.516	n/a	REC_WORD	856758	wordpools/wasnorm_wordpool_576.txt	LTP273	ltpFR2	4	6	GARDEN	623	n/a	n/a	0	0	0
1722.056	n/a	REC_WORD	861028	wordpools/wasnorm_wordpool_576.txt	LTP273	ltpFR2	4	6	TURNIP	1521	n/a	n/a	0	0	0
1724.414	n/a	REC_WORD	862207	wordpools/wasnorm_wordpool_576.txt	LTP273	ltpFR2	4	6	BLENDER	136	n/a	n/a	0	0	0
1770.924	n/a	DISTRACTOR	885462	n/a	LTP273	ltpFR2	4	7	n/a	n/a	n/a	n/a	0	0	0
1770.924	n/a	START	885462	n/a	LTP273	ltpFR2	4	n/a	n/a	n/a	11	n/a	n/a	n/a	n/a
1770.956	n/a	PROB	885478	n/a	LTP273	ltpFR2	4	n/a	n/a	n/a	11	11	4	4	3
1772.488	n/a	PROB	886244	n/a	LTP273	ltpFR2	4	n/a	n/a	n/a	11	19	8	4	7
1774.602	n/a	PROB	887301	n/a	LTP273	ltpFR2	4	n/a	n/a	n/a	11	13	1	4	8
1776.166	n/a	PROB	888083	n/a	LTP273	ltpFR2	4	n/a	n/a	n/a	11	8	2	1	5
1777.414	n/a	PROB	888707	n/a	LTP273	ltpFR2	4	n/a	n/a	n/a	11	10	2	6	2
1779.776	n/a	PROB	889888	n/a	LTP273	ltpFR2	4	n/a	n/a	n/a	11	11	6	3	2
1782.074	n/a	PROB	891037	n/a	LTP273	ltpFR2	4	n/a	n/a	n/a	11	15	5	7	3
1783.604	n/a	PROB	891802	n/a	LTP273	ltpFR2	4	n/a	n/a	n/a	11	13	6	4	3
1785.718	n/a	PROB	892859	n/a	LTP273	ltpFR2	4	n/a	n/a	n/a	11	1	6	4	3
1786.85	n/a	PROB	893425	n/a	LTP273	ltpFR2	4	n/a	n/a	n/a	11	16	7	2	7
1788.864	n/a	PROB	894432	n/a	LTP273	ltpFR2	4	n/a	n/a	n/a	11	17	7	7	3
1790.944	n/a	PROB	895472	n/a	LTP273	ltpFR2	4	n/a	n/a	n/a	11	9	4	1	4
1792.258	n/a	PROB	896129	n/a	LTP273	ltpFR2	4	n/a	n/a	n/a	11	20	5	9	6
1794.118	n/a	STOP	897059	n/a	LTP273	ltpFR2	4	n/a	n/a	n/a	11	n/a	n/a	n/a	n/a
1796.052	n/a	WORD	898026	wordpools/wasnorm_wordpool_576.txt	LTP273	ltpFR2	4	7	HOUND	724	n/a	n/a	0	0	0
1798.616	n/a	WORD	899308	wordpools/wasnorm_wordpool_576.txt	LTP273	ltpFR2	4	7	POCKET	1093	n/a	n/a	0	0	0
1801.178	n/a	WORD	900589	wordpools/wasnorm_wordpool_576.txt	LTP273	ltpFR2	4	7	PERMIT	1051	n/a	n/a	0	0	0
1803.742	n/a	WORD	901871	wordpools/wasnorm_wordpool_576.txt	LTP273	ltpFR2	4	7	CRIB	407	n/a	n/a	0	0	0
1806.372	n/a	WORD	903186	wordpools/wasnorm_wordpool_576.txt	LTP273	ltpFR2	4	7	CORAL	378	n/a	n/a	0	0	0
1808.834	n/a	WORD	904417	wordpools/wasnorm_wordpool_576.txt	LTP273	ltpFR2	4	7	NOTEBOOK	959	n/a	n/a	0	0	0
1811.416	n/a	WORD	905708	wordpools/wasnorm_wordpool_576.txt	LTP273	ltpFR2	4	7	WORLD	1622	n/a	n/a	0	0	0
1814.226	n/a	WORD	907113	wordpools/wasnorm_wordpool_576.txt	LTP273	ltpFR2	4	7	LIGHTNING	820	n/a	n/a	0	0	0
1816.656	n/a	WORD	908328	wordpools/wasnorm_wordpool_576.txt	LTP273	ltpFR2	4	7	AGENT	10	n/a	n/a	0	0	0
1819.136	n/a	WORD	909568	wordpools/wasnorm_wordpool_576.txt	LTP273	ltpFR2	4	7	STAPLE	1371	n/a	n/a	0	0	0
1821.632	n/a	WORD	910816	wordpools/wasnorm_wordpool_576.txt	LTP273	ltpFR2	4	7	ANTLER	29	n/a	n/a	0	0	0
1824.428	n/a	WORD	912214	wordpools/wasnorm_wordpool_576.txt	LTP273	ltpFR2	4	7	CREATURE	403	n/a	n/a	0	0	0
1826.908	n/a	WORD	913454	wordpools/wasnorm_wordpool_576.txt	LTP273	ltpFR2	4	7	PATIENT	1024	n/a	n/a	0	0	0
1829.422	n/a	WORD	914711	wordpools/wasnorm_wordpool_576.txt	LTP273	ltpFR2	4	7	EUROPE	541	n/a	n/a	0	0	0
1832.066	n/a	WORD	916033	wordpools/wasnorm_wordpool_576.txt	LTP273	ltpFR2	4	7	EMPIRE	530	n/a	n/a	0	0	0
1834.662	n/a	WORD	917331	wordpools/wasnorm_wordpool_576.txt	LTP273	ltpFR2	4	7	INFANT	737	n/a	n/a	0	0	0
1837.458	n/a	WORD	918729	wordpools/wasnorm_wordpool_576.txt	LTP273	ltpFR2	4	7	CARRIAGE	248	n/a	n/a	0	0	0
1840.022	n/a	WORD	920011	wordpools/wasnorm_wordpool_576.txt	LTP273	ltpFR2	4	7	CLIMBER	323	n/a	n/a	0	0	0
1842.818	n/a	WORD	921409	wordpools/wasnorm_wordpool_576.txt	LTP273	ltpFR2	4	7	POSSUM	1112	n/a	n/a	0	0	0
1845.63	n/a	WORD	922815	wordpools/wasnorm_wordpool_576.txt	LTP273	ltpFR2	4	7	SCALLOP	1242	n/a	n/a	0	0	0
1848.342	n/a	WORD	924171	wordpools/wasnorm_wordpool_576.txt	LTP273	ltpFR2	4	7	SEAFOOD	1260	n/a	n/a	0	0	0
1851.004	n/a	WORD	925502	wordpools/wasnorm_wordpool_576.txt	LTP273	ltpFR2	4	7	COBRA	336	n/a	n/a	0	0	0
1853.768	n/a	WORD	926884	wordpools/wasnorm_wordpool_576.txt	LTP273	ltpFR2	4	7	ATLAS	53	n/a	n/a	0	0	0
1856.248	n/a	WORD	928124	wordpools/wasnorm_wordpool_576.txt	LTP273	ltpFR2	4	7	KNAPSACK	783	n/a	n/a	0	0	0
1857.862	n/a	START	928931	n/a	LTP273	ltpFR2	4	n/a	n/a	n/a	12	n/a	n/a	n/a	n/a
1859.006	n/a	DISTRACTOR	929503	n/a	LTP273	ltpFR2	4	7	n/a	n/a	n/a	n/a	0	0	0
1859.01	n/a	PROB	929505	n/a	LTP273	ltpFR2	4	n/a	n/a	n/a	12	14	8	4	2
1862.372	n/a	PROB	931186	n/a	LTP273	ltpFR2	4	n/a	n/a	n/a	12	11	5	1	5
1863.42	n/a	PROB	931710	n/a	LTP273	ltpFR2	4	n/a	n/a	n/a	12	16	8	2	6
1864.702	n/a	PROB	932351	n/a	LTP273	ltpFR2	4	n/a	n/a	n/a	12	12	8	1	3
1866.132	n/a	PROB	933066	n/a	LTP273	ltpFR2	4	n/a	n/a	n/a	12	1	1	9	3
1867.23	n/a	PROB	933615	n/a	LTP273	ltpFR2	4	n/a	n/a	n/a	12	18	6	7	5
1869.91	n/a	PROB	934955	n/a	LTP273	ltpFR2	4	n/a	n/a	n/a	12	12	7	2	3
1872.006	n/a	PROB	936003	n/a	LTP273	ltpFR2	4	n/a	n/a	n/a	12	15	5	6	4
1873.14	n/a	PROB	936570	n/a	LTP273	ltpFR2	4	n/a	n/a	n/a	12	18	6	5	7
1875.736	n/a	PROB	937868	n/a	LTP273	ltpFR2	4	n/a	n/a	n/a	12	13	5	4	4
1878.248	n/a	PROB	939124	n/a	LTP273	ltpFR2	4	n/a	n/a	n/a	12	18	6	6	6
1879.58	n/a	PROB	939790	n/a	LTP273	ltpFR2	4	n/a	n/a	n/a	12	5	1	3	1
1880.608	n/a	STOP	940304	n/a	LTP273	ltpFR2	4	n/a	n/a	n/a	12	n/a	n/a	n/a	n/a
1883.774	n/a	REC_START	941887	n/a	LTP273	ltpFR2	4	7	n/a	n/a	n/a	n/a	0	0	0
1894.538	n/a	REC_WORD	947269	wordpools/wasnorm_wordpool_576.txt	LTP273	ltpFR2	4	7	CRIB	407	n/a	n/a	0	0	0
1895.016	n/a	REC_WORD	947508	wordpools/wasnorm_wordpool_576.txt	LTP273	ltpFR2	4	7	WORLD	1622	n/a	n/a	0	0	0
1895.596	n/a	REC_WORD	947798	wordpools/wasnorm_wordpool_576.txt	LTP273	ltpFR2	4	7	NOTEBOOK	959	n/a	n/a	0	0	0
1896.156	n/a	REC_WORD	948078	wordpools/wasnorm_wordpool_576.txt	LTP273	ltpFR2	4	7	LIGHTNING	820	n/a	n/a	0	0	0
1897.016	n/a	REC_WORD	948508	wordpools/wasnorm_wordpool_576.txt	LTP273	ltpFR2	4	7	POCKET	1093	n/a	n/a	0	0	0
1974.44	n/a	WORD	987220	wordpools/wasnorm_wordpool_576.txt	LTP273	ltpFR2	4	8	ELBOW	520	n/a	n/a	0	0	0
1977.036	n/a	WORD	988518	wordpools/wasnorm_wordpool_576.txt	LTP273	ltpFR2	4	8	ANKLE	24	n/a	n/a	0	0	0
1979.598	n/a	WORD	989799	wordpools/wasnorm_wordpool_576.txt	LTP273	ltpFR2	4	8	BASEMENT	94	n/a	n/a	0	0	0
1982.194	n/a	WORD	991097	wordpools/wasnorm_wordpool_576.txt	LTP273	ltpFR2	4	8	LOVER	846	n/a	n/a	0	0	0
1984.774	n/a	WORD	992387	wordpools/wasnorm_wordpool_576.txt	LTP273	ltpFR2	4	8	HOSTESS	723	n/a	n/a	0	0	0
1987.486	n/a	WORD	993743	wordpools/wasnorm_wordpool_576.txt	LTP273	ltpFR2	4	8	DINER	467	n/a	n/a	0	0	0
1990.182	n/a	WORD	995091	wordpools/wasnorm_wordpool_576.txt	LTP273	ltpFR2	4	8	STICKER	1382	n/a	n/a	0	0	0
1992.762	n/a	WORD	996381	wordpools/wasnorm_wordpool_576.txt	LTP273	ltpFR2	4	8	WAITER	1580	n/a	n/a	0	0	0
1995.574	n/a	WORD	997787	wordpools/wasnorm_wordpool_576.txt	LTP273	ltpFR2	4	8	PREACHER	1119	n/a	n/a	0	0	0
1998.254	n/a	WORD	999127	wordpools/wasnorm_wordpool_576.txt	LTP273	ltpFR2	4	8	BUREAU	199	n/a	n/a	0	0	0
2000.95	n/a	WORD	1000475	wordpools/wasnorm_wordpool_576.txt	LTP273	ltpFR2	4	8	DRESSER	496	n/a	n/a	0	0	0
2003.696	n/a	WORD	1001848	wordpools/wasnorm_wordpool_576.txt	LTP273	ltpFR2	4	8	CROSS	413	n/a	n/a	0	0	0
2006.46	n/a	WORD	1003230	wordpools/wasnorm_wordpool_576.txt	LTP273	ltpFR2	4	8	FINGER	567	n/a	n/a	0	0	0
2008.972	n/a	WORD	1004486	wordpools/wasnorm_wordpool_576.txt	LTP273	ltpFR2	4	8	COCOON	339	n/a	n/a	0	0	0
2011.65	n/a	WORD	1005825	wordpools/wasnorm_wordpool_576.txt	LTP273	ltpFR2	4	8	NEUTRON	947	n/a	n/a	0	0	0
2014.248	n/a	WORD	1007124	wordpools/wasnorm_wordpool_576.txt	LTP273	ltpFR2	4	8	RIVER	1194	n/a	n/a	0	0	0
2016.86	n/a	WORD	1008430	wordpools/wasnorm_wordpool_576.txt	LTP273	ltpFR2	4	8	SILK	1307	n/a	n/a	0	0	0
2019.306	n/a	WORD	1009653	wordpools/wasnorm_wordpool_576.txt	LTP273	ltpFR2	4	8	AUTHOR	61	n/a	n/a	0	0	0
2022.036	n/a	WORD	1011018	wordpools/wasnorm_wordpool_576.txt	LTP273	ltpFR2	4	8	DONKEY	484	n/a	n/a	0	0	0
2024.598	n/a	WORD	1012299	wordpools/wasnorm_wordpool_576.txt	LTP273	ltpFR2	4	8	PLAID	1080	n/a	n/a	0	0	0
2027.396	n/a	WORD	1013698	wordpools/wasnorm_wordpool_576.txt	LTP273	ltpFR2	4	8	MARS	873	n/a	n/a	0	0	0
2030.19	n/a	WORD	1015095	wordpools/wasnorm_wordpool_576.txt	LTP273	ltpFR2	4	8	CLAM	315	n/a	n/a	0	0	0
2032.936	n/a	WORD	1016468	wordpools/wasnorm_wordpool_576.txt	LTP273	ltpFR2	4	8	HOOK	715	n/a	n/a	0	0	0
2035.434	n/a	WORD	1017717	wordpools/wasnorm_wordpool_576.txt	LTP273	ltpFR2	4	8	EGYPT	519	n/a	n/a	0	0	0
2037.048	n/a	START	1018524	n/a	LTP273	ltpFR2	4	n/a	n/a	n/a	13	n/a	n/a	n/a	n/a
2038.198	n/a	DISTRACTOR	1019099	n/a	LTP273	ltpFR2	4	8	n/a	n/a	n/a	n/a	0	0	0
2038.212	n/a	PROB	1019106	n/a	LTP273	ltpFR2	4	n/a	n/a	n/a	13	15	9	2	5
2040.842	n/a	PROB	1020421	n/a	LTP273	ltpFR2	4	n/a	n/a	n/a	13	10	2	6	2
2044.186	n/a	PROB	1022093	n/a	LTP273	ltpFR2	4	n/a	n/a	n/a	13	15	6	8	1
2045.8	n/a	PROB	1022900	n/a	LTP273	ltpFR2	4	n/a	n/a	n/a	13	14	6	5	3
2048.53	n/a	PROB	1024265	n/a	LTP273	ltpFR2	4	n/a	n/a	n/a	13	14	2	9	3
2050.344	n/a	PROB	1025172	n/a	LTP273	ltpFR2	4	n/a	n/a	n/a	13	10	2	2	6
2051.394	n/a	PROB	1025697	n/a	LTP273	ltpFR2	4	n/a	n/a	n/a	13	15	7	3	5
2052.374	n/a	PROB	1026187	n/a	LTP273	ltpFR2	4	n/a	n/a	n/a	13	16	6	2	8
2053.706	n/a	PROB	1026853	n/a	LTP273	ltpFR2	4	n/a	n/a	n/a	13	9	3	2	4
2056.818	n/a	PROB	1028409	n/a	LTP273	ltpFR2	4	n/a	n/a	n/a	13	9	4	1	2
2058.4	n/a	PROB	1029200	n/a	LTP273	ltpFR2	4	n/a	n/a	n/a	13	7	2	1	4
2060.37	n/a	STOP	1030185	n/a	LTP273	ltpFR2	4	n/a	n/a	n/a	13	n/a	n/a	n/a	n/a
2062.808	n/a	REC_START	1031404	n/a	LTP273	ltpFR2	4	8	n/a	n/a	n/a	n/a	0	0	0
2063.494	n/a	REC_WORD	1031747	wordpools/wasnorm_wordpool_576.txt	LTP273	ltpFR2	4	8	HOOK	715	n/a	n/a	0	0	0
2064.088	n/a	REC_WORD	1032044	wordpools/wasnorm_wordpool_576.txt	LTP273	ltpFR2	4	8	CLAM	315	n/a	n/a	0	0	0
2066.24	n/a	REC_WORD	1033120	wordpools/wasnorm_wordpool_576.txt	LTP273	ltpFR2	4	8	STICKER	1382	n/a	n/a	0	0	0
2074.738	n/a	REC_WORD	1037369	wordpools/wasnorm_wordpool_576.txt	LTP273	ltpFR2	4	8	BUREAU	199	n/a	n/a	0	0	0
2075.622	n/a	REC_WORD	1037811	wordpools/wasnorm_wordpool_576.txt	LTP273	ltpFR2	4	8	COCOON	339	n/a	n/a	0	0	0
2139.494	n/a	REST_REWET	1069747	n/a	LTP273	ltpFR2	4	8	n/a	n/a	n/a	n/a	0	0	0
2408.182	n/a	DISTRACTOR	1204091	n/a	LTP273	ltpFR2	4	9	n/a	n/a	n/a	n/a	0	0	0
2408.182	n/a	START	1204091	n/a	LTP273	ltpFR2	4	n/a	n/a	n/a	14	n/a	n/a	n/a	n/a
2408.214	n/a	PROB	1204107	n/a	LTP273	ltpFR2	4	n/a	n/a	n/a	14	19	6	9	4
2410.362	n/a	PROB	1205181	n/a	LTP273	ltpFR2	4	n/a	n/a	n/a	14	14	3	7	4
2411.46	n/a	PROB	1205730	n/a	LTP273	ltpFR2	4	n/a	n/a	n/a	14	4	1	2	1
2413.158	n/a	PROB	1206579	n/a	LTP273	ltpFR2	4	n/a	n/a	n/a	14	22	8	6	8
2415.188	n/a	PROB	1207594	n/a	LTP273	ltpFR2	4	n/a	n/a	n/a	14	15	7	5	3
2416.602	n/a	PROB	1208301	n/a	LTP273	ltpFR2	4	n/a	n/a	n/a	14	23	8	8	7
2419.58	n/a	PROB	1209790	n/a	LTP273	ltpFR2	4	n/a	n/a	n/a	14	9	4	3	2
2421.178	n/a	PROB	1210589	n/a	LTP273	ltpFR2	4	n/a	n/a	n/a	14	10	8	1	1
2422.21	n/a	PROB	1211105	n/a	LTP273	ltpFR2	4	n/a	n/a	n/a	14	10	3	3	4
2423.392	n/a	PROB	1211696	n/a	LTP273	ltpFR2	4	n/a	n/a	n/a	14	1	5	1	5
2424.324	n/a	PROB	1212162	n/a	LTP273	ltpFR2	4	n/a	n/a	n/a	14	9	5	2	4
2432.182	n/a	STOP	1216091	n/a	LTP273	ltpFR2	4	n/a	n/a	n/a	14	n/a	n/a	n/a	n/a
2433.278	n/a	WORD	1216639	wordpools/wasnorm_wordpool_576.txt	LTP273	ltpFR2	4	9	BRICK	172	n/a	n/a	0	0	0
2435.908	n/a	WORD	1217954	wordpools/wasnorm_wordpool_576.txt	LTP273	ltpFR2	4	9	OUTDOORS	987	n/a	n/a	0	0	0
2438.636	n/a	WORD	1219318	wordpools/wasnorm_wordpool_576.txt	LTP273	ltpFR2	4	9	BROOK	177	n/a	n/a	0	0	0
2441.15	n/a	WORD	1220575	wordpools/wasnorm_wordpool_576.txt	LTP273	ltpFR2	4	9	PLASTER	1085	n/a	n/a	0	0	0
2443.762	n/a	WORD	1221881	wordpools/wasnorm_wordpool_576.txt	LTP273	ltpFR2	4	9	GIRL	637	n/a	n/a	0	0	0
2446.558	n/a	WORD	1223279	wordpools/wasnorm_wordpool_576.txt	LTP273	ltpFR2	4	9	LIPSTICK	829	n/a	n/a	0	0	0
2449.17	n/a	WORD	1224585	wordpools/wasnorm_wordpool_576.txt	LTP273	ltpFR2	4	9	NECKLACE	940	n/a	n/a	0	0	0
2451.916	n/a	WORD	1225958	wordpools/wasnorm_wordpool_576.txt	LTP273	ltpFR2	4	9	CRATER	400	n/a	n/a	0	0	0
2454.662	n/a	WORD	1227331	wordpools/wasnorm_wordpool_576.txt	LTP273	ltpFR2	4	9	BANQUET	86	n/a	n/a	0	0	0
2457.226	n/a	WORD	1228613	wordpools/wasnorm_wordpool_576.txt	LTP273	ltpFR2	4	9	BUGGY	188	n/a	n/a	0	0	0
2459.838	n/a	WORD	1229919	wordpools/wasnorm_wordpool_576.txt	LTP273	ltpFR2	4	9	MOTEL	919	n/a	n/a	0	0	0
2462.484	n/a	WORD	1231242	wordpools/wasnorm_wordpool_576.txt	LTP273	ltpFR2	4	9	MEDAL	885	n/a	n/a	0	0	0
2465.048	n/a	WORD	1232524	wordpools/wasnorm_wordpool_576.txt	LTP273	ltpFR2	4	9	AWARD	63	n/a	n/a	0	0	0
2467.594	n/a	WORD	1233797	wordpools/wasnorm_wordpool_576.txt	LTP273	ltpFR2	4	9	MOTOR	922	n/a	n/a	0	0	0
2470.272	n/a	WORD	1235136	wordpools/wasnorm_wordpool_576.txt	LTP273	ltpFR2	4	9	BACKBONE	66	n/a	n/a	0	0	0
2473.102	n/a	WORD	1236551	wordpools/wasnorm_wordpool_576.txt	LTP273	ltpFR2	4	9	MARROW	872	n/a	n/a	0	0	0
2475.764	n/a	WORD	1237882	wordpools/wasnorm_wordpool_576.txt	LTP273	ltpFR2	4	9	LUMBER	848	n/a	n/a	0	0	0
2478.412	n/a	WORD	1239206	wordpools/wasnorm_wordpool_576.txt	LTP273	ltpFR2	4	9	CHAUFFEUR	283	n/a	n/a	0	0	0
2480.906	n/a	WORD	1240453	wordpools/wasnorm_wordpool_576.txt	LTP273	ltpFR2	4	9	TROMBONE	1508	n/a	n/a	0	0	0
2483.502	n/a	WORD	1241751	wordpools/wasnorm_wordpool_576.txt	LTP273	ltpFR2	4	9	ULCER	1533	n/a	n/a	0	0	0
2486.282	n/a	WORD	1243141	wordpools/wasnorm_wordpool_576.txt	LTP273	ltpFR2	4	9	TRACTOR	1493	n/a	n/a	0	0	0
2488.728	n/a	WORD	1244364	wordpools/wasnorm_wordpool_576.txt	LTP273	ltpFR2	4	9	SHELF	1280	n/a	n/a	0	0	0
2491.508	n/a	WORD	1245754	wordpools/wasnorm_wordpool_576.txt	LTP273	ltpFR2	4	9	LODGE	839	n/a	n/a	0	0	0
2493.938	n/a	WORD	1246969	wordpools/wasnorm_wordpool_576.txt	LTP273	ltpFR2	4	9	CATTLE	261	n/a	n/a	0	0	0
2495.552	n/a	START	1247776	n/a	LTP273	ltpFR2	4	n/a	n/a	n/a	15	n/a	n/a	n/a	n/a
2496.684	n/a	DISTRACTOR	1248342	n/a	LTP273	ltpFR2	4	9	n/a	n/a	n/a	n/a	0	0	0
2496.7	n/a	PROB	1248350	n/a	LTP273	ltpFR2	4	n/a	n/a	n/a	15	11	2	1	8
2498.332	n/a	PROB	1249166	n/a	LTP273	ltpFR2	4	n/a	n/a	n/a	15	15	6	6	3
2500.496	n/a	PROB	1250248	n/a	LTP273	ltpFR2	4	n/a	n/a	n/a	15	23	7	8	8
2502.292	n/a	PROB	1251146	n/a	LTP273	ltpFR2	4	n/a	n/a	n/a	15	9	1	4	4
2503.49	n/a	PROB	1251745	n/a	LTP273	ltpFR2	4	n/a	n/a	n/a	15	17	5	6	6
2505.372	n/a	PROB	1252686	n/a	LTP273	ltpFR2	4	n/a	n/a	n/a	15	17	9	6	1
2507.086	n/a	PROB	1253543	n/a	LTP273	ltpFR2	4	n/a	n/a	n/a	15	18	7	7	4
2510.896	n/a	PROB	1255448	n/a	LTP273	ltpFR2	4	n/a	n/a	n/a	15	11	1	3	7
2512.278	n/a	PROB	1256139	n/a	LTP273	ltpFR2	4	n/a	n/a	n/a	15	11	3	6	1
2514.008	n/a	PROB	1257004	n/a	LTP273	ltpFR2	4	n/a	n/a	n/a	15	13	4	9	8
2516.754	n/a	PROB	1258377	n/a	LTP273	ltpFR2	4	n/a	n/a	n/a	15	10	2	4	4
2518.386	n/a	STOP	1259193	n/a	LTP273	ltpFR2	4	n/a	n/a	n/a	15	n/a	n/a	n/a	n/a
2521.382	n/a	REC_START	1260691	n/a	LTP273	ltpFR2	4	9	n/a	n/a	n/a	n/a	0	0	0
2525.516	n/a	REC_WORD	1262758	wordpools/wasnorm_wordpool_576.txt	LTP273	ltpFR2	4	9	LODGE	839	n/a	n/a	0	0	0
2526.376	n/a	REC_WORD	1263188	wordpools/wasnorm_wordpool_576.txt	LTP273	ltpFR2	4	9	OUTDOORS	987	n/a	n/a	0	0	0
2527.968	n/a	REC_WORD	1263984	wordpools/wasnorm_wordpool_576.txt	LTP273	ltpFR2	4	9	BROOK	177	n/a	n/a	0	0	0
2528.884	n/a	REC_WORD	1264442	wordpools/wasnorm_wordpool_576.txt	LTP273	ltpFR2	4	9	BRICK	172	n/a	n/a	0	0	0
2530.224	n/a	REC_WORD	1265112	wordpools/wasnorm_wordpool_576.txt	LTP273	ltpFR2	4	9	SHELF	1280	n/a	n/a	0	0	0
2533.564	n/a	REC_WORD	1266782	wordpools/wasnorm_wordpool_576.txt	LTP273	ltpFR2	4	9	GIRL	637	n/a	n/a	0	0	0
2535.382	n/a	REC_WORD	1267691	wordpools/wasnorm_wordpool_576.txt	LTP273	ltpFR2	4	9	LIPSTICK	829	n/a	n/a	0	0	0
2536.516	n/a	REC_WORD	1268258	wordpools/wasnorm_wordpool_576.txt	LTP273	ltpFR2	4	9	NECKLACE	940	n/a	n/a	0	0	0
2541.086	n/a	REC_WORD	1270543	wordpools/wasnorm_wordpool_576.txt	LTP273	ltpFR2	4	9	BUGGY	188	n/a	n/a	0	0	0
2542.672	n/a	REC_WORD	1271336	wordpools/wasnorm_wordpool_576.txt	LTP273	ltpFR2	4	9	MOTOR	922	n/a	n/a	0	0	0
2544.588	n/a	REC_WORD	1272294	wordpools/wasnorm_wordpool_576.txt	LTP273	ltpFR2	4	9	TRACTOR	1493	n/a	n/a	0	0	0
2546.494	n/a	REC_WORD	1273247	wordpools/wasnorm_wordpool_576.txt	LTP273	ltpFR2	4	9	MOTEL	919	n/a	n/a	0	0	0
2548.528	n/a	REC_WORD	1274264	wordpools/wasnorm_wordpool_576.txt	LTP273	ltpFR2	4	9	AWARD	63	n/a	n/a	0	0	0
2550.212	n/a	REC_WORD	1275106	wordpools/wasnorm_wordpool_576.txt	LTP273	ltpFR2	4	9	MEDAL	885	n/a	n/a	0	0	0
2612.014	n/a	DISTRACTOR	1306007	n/a	LTP273	ltpFR2	4	10	n/a	n/a	n/a	n/a	0	0	0
2612.014	n/a	START	1306007	n/a	LTP273	ltpFR2	4	n/a	n/a	n/a	16	n/a	n/a	n/a	n/a
2612.046	n/a	PROB	1306023	n/a	LTP273	ltpFR2	4	n/a	n/a	n/a	16	24	8	8	8
2613.578	n/a	PROB	1306789	n/a	LTP273	ltpFR2	4	n/a	n/a	n/a	16	10	6	3	1
2614.692	n/a	PROB	1307346	n/a	LTP273	ltpFR2	4	n/a	n/a	n/a	16	7	2	1	4
2615.958	n/a	PROB	1307979	n/a	LTP273	ltpFR2	4	n/a	n/a	n/a	16	17	6	8	3
2618.054	n/a	PROB	1309027	n/a	LTP273	ltpFR2	4	n/a	n/a	n/a	16	6	4	1	1
2619.186	n/a	PROB	1309593	n/a	LTP273	ltpFR2	4	n/a	n/a	n/a	16	16	6	2	8
2621.266	n/a	PROB	1310633	n/a	LTP273	ltpFR2	4	n/a	n/a	n/a	16	17	6	9	2
2622.796	n/a	PROB	1311398	n/a	LTP273	ltpFR2	4	n/a	n/a	n/a	16	5	1	1	3
2623.878	n/a	PROB	1311939	n/a	LTP273	ltpFR2	4	n/a	n/a	n/a	16	15	4	2	9
2625.194	n/a	PROB	1312597	n/a	LTP273	ltpFR2	4	n/a	n/a	n/a	16	21	6	7	9
2626.99	n/a	PROB	1313495	n/a	LTP273	ltpFR2	4	n/a	n/a	n/a	16	20	7	4	9
2629.354	n/a	PROB	1314677	n/a	LTP273	ltpFR2	4	n/a	n/a	n/a	16	18	8	8	2
2631.7	n/a	PROB	1315850	n/a	LTP273	ltpFR2	4	n/a	n/a	n/a	16	12	1	6	5
2633.232	n/a	PROB	1316616	n/a	LTP273	ltpFR2	4	n/a	n/a	n/a	16	9	6	2	1
2636.012	n/a	STOP	1318006	n/a	LTP273	ltpFR2	4	n/a	n/a	n/a	16	n/a	n/a	n/a	n/a
2637.208	n/a	WORD	1318604	wordpools/wasnorm_wordpool_576.txt	LTP273	ltpFR2	4	10	DIME	466	n/a	n/a	0	0	0
2639.722	n/a	WORD	1319861	wordpools/wasnorm_wordpool_576.txt	LTP273	ltpFR2	4	10	QUARTER	1148	n/a	n/a	0	0	0
2642.152	n/a	WORD	1321076	wordpools/wasnorm_wordpool_576.txt	LTP273	ltpFR2	4	10	HUMAN	726	n/a	n/a	0	0	0
2644.932	n/a	WORD	1322466	wordpools/wasnorm_wordpool_576.txt	LTP273	ltpFR2	4	10	WORKER	1621	n/a	n/a	0	0	0
2647.71	n/a	WORD	1323855	wordpools/wasnorm_wordpool_576.txt	LTP273	ltpFR2	4	10	VALLEY	1545	n/a	n/a	0	0	0
2650.458	n/a	WORD	1325229	wordpools/wasnorm_wordpool_576.txt	LTP273	ltpFR2	4	10	PALACE	1006	n/a	n/a	0	0	0
2653.186	n/a	WORD	1326593	wordpools/wasnorm_wordpool_576.txt	LTP273	ltpFR2	4	10	PRINCE	1124	n/a	n/a	0	0	0
2655.716	n/a	WORD	1327858	wordpools/wasnorm_wordpool_576.txt	LTP273	ltpFR2	4	10	VENUS	1557	n/a	n/a	0	0	0
2658.212	n/a	WORD	1329106	wordpools/wasnorm_wordpool_576.txt	LTP273	ltpFR2	4	10	TUTU	1524	n/a	n/a	0	0	0
2660.824	n/a	WORD	1330412	wordpools/wasnorm_wordpool_576.txt	LTP273	ltpFR2	4	10	CRUTCH	417	n/a	n/a	0	0	0
2663.488	n/a	WORD	1331744	wordpools/wasnorm_wordpool_576.txt	LTP273	ltpFR2	4	10	GUARD	667	n/a	n/a	0	0	0
2666.084	n/a	WORD	1333042	wordpools/wasnorm_wordpool_576.txt	LTP273	ltpFR2	4	10	HEADBAND	696	n/a	n/a	0	0	0
2668.696	n/a	WORD	1334348	wordpools/wasnorm_wordpool_576.txt	LTP273	ltpFR2	4	10	SCARF	1246	n/a	n/a	0	0	0
2671.426	n/a	WORD	1335713	wordpools/wasnorm_wordpool_576.txt	LTP273	ltpFR2	4	10	JAPAN	749	n/a	n/a	0	0	0
2674.154	n/a	WORD	1337077	wordpools/wasnorm_wordpool_576.txt	LTP273	ltpFR2	4	10	NAPKIN	937	n/a	n/a	0	0	0
2676.85	n/a	WORD	1338425	wordpools/wasnorm_wordpool_576.txt	LTP273	ltpFR2	4	10	BOYFRIEND	162	n/a	n/a	0	0	0
2679.314	n/a	WORD	1339657	wordpools/wasnorm_wordpool_576.txt	LTP273	ltpFR2	4	10	JOURNAL	760	n/a	n/a	0	0	0
2681.96	n/a	WORD	1340980	wordpools/wasnorm_wordpool_576.txt	LTP273	ltpFR2	4	10	HIGHWAY	707	n/a	n/a	0	0	0
2684.738	n/a	WORD	1342369	wordpools/wasnorm_wordpool_576.txt	LTP273	ltpFR2	4	10	BEAST	108	n/a	n/a	0	0	0
2687.236	n/a	WORD	1343618	wordpools/wasnorm_wordpool_576.txt	LTP273	ltpFR2	4	10	TURTLE	1522	n/a	n/a	0	0	0
2689.782	n/a	WORD	1344891	wordpools/wasnorm_wordpool_576.txt	LTP273	ltpFR2	4	10	SNAIL	1332	n/a	n/a	0	0	0
2692.244	n/a	WORD	1346122	wordpools/wasnorm_wordpool_576.txt	LTP273	ltpFR2	4	10	POET	1095	n/a	n/a	0	0	0
2694.674	n/a	WORD	1347337	wordpools/wasnorm_wordpool_576.txt	LTP273	ltpFR2	4	10	PARENT	1013	n/a	n/a	0	0	0
2697.32	n/a	WORD	1348660	wordpools/wasnorm_wordpool_576.txt	LTP273	ltpFR2	4	10	SIDEWALK	1303	n/a	n/a	0	0	0
2698.934	n/a	START	1349467	n/a	LTP273	ltpFR2	4	n/a	n/a	n/a	17	n/a	n/a	n/a	n/a
2699.892	n/a	DISTRACTOR	1349946	n/a	LTP273	ltpFR2	4	10	n/a	n/a	n/a	n/a	0	0	0
2699.9	n/a	PROB	1349950	n/a	LTP273	ltpFR2	4	n/a	n/a	n/a	17	20	3	9	8
2702.446	n/a	PROB	1351223	n/a	LTP273	ltpFR2	4	n/a	n/a	n/a	17	6	1	1	4
2704.176	n/a	PROB	1352088	n/a	LTP273	ltpFR2	4	n/a	n/a	n/a	17	14	4	4	6
2705.708	n/a	PROB	1352854	n/a	LTP273	ltpFR2	4	n/a	n/a	n/a	17	16	7	8	1
2707.906	n/a	PROB	1353953	n/a	LTP273	ltpFR2	4	n/a	n/a	n/a	17	10	4	3	3
2709.404	n/a	PROB	1354702	n/a	LTP273	ltpFR2	4	n/a	n/a	n/a	17	6	1	3	2
2711.1	n/a	PROB	1355550	n/a	LTP273	ltpFR2	4	n/a	n/a	n/a	17	9	1	2	6
2712.248	n/a	PROB	1356124	n/a	LTP273	ltpFR2	4	n/a	n/a	n/a	17	17	7	8	2
2713.912	n/a	PROB	1356956	n/a	LTP273	ltpFR2	4	n/a	n/a	n/a	17	11	4	5	2
2715.644	n/a	PROB	1357822	n/a	LTP273	ltpFR2	4	n/a	n/a	n/a	17	11	5	4	2
2717.274	n/a	PROB	1358637	n/a	LTP273	ltpFR2	4	n/a	n/a	n/a	17	12	7	2	3
2718.922	n/a	PROB	1359461	n/a	LTP273	ltpFR2	4	n/a	n/a	n/a	17	12	1	6	5
2720.154	n/a	PROB	1360077	n/a	LTP273	ltpFR2	4	n/a	n/a	n/a	17	13	2	2	9
2721.724	n/a	STOP	1360862	n/a	LTP273	ltpFR2	4	n/a	n/a	n/a	17	n/a	n/a	n/a	n/a
2724.764	n/a	REC_START	1362382	n/a	LTP273	ltpFR2	4	10	n/a	n/a	n/a	n/a	0	0	0
2725.708	n/a	REC_WORD	1362854	wordpools/wasnorm_wordpool_576.txt	LTP273	ltpFR2	4	10	SIDEWALK	1303	n/a	n/a	0	0	0
2726.6	n/a	REC_WORD	1363300	wordpools/wasnorm_wordpool_576.txt	LTP273	ltpFR2	4	10	PARENT	1013	n/a	n/a	0	0	0
2733.29	n/a	REC_WORD	1366645	wordpools/wasnorm_wordpool_576.txt	LTP273	ltpFR2	4	10	MOTOR	922	n/a	n/a	0	0	0
2815.43	n/a	DISTRACTOR	1407715	n/a	LTP273	ltpFR2	4	11	n/a	n/a	n/a	n/a	0	0	0
2815.43	n/a	START	1407715	n/a	LTP273	ltpFR2	4	n/a	n/a	n/a	18	n/a	n/a	n/a	n/a
2815.464	n/a	PROB	1407732	n/a	LTP273	ltpFR2	4	n/a	n/a	n/a	18	18	6	4	8
2816.894	n/a	PROB	1408447	n/a	LTP273	ltpFR2	4	n/a	n/a	n/a	18	17	2	5	9
2818.508	n/a	PROB	1409254	n/a	LTP273	ltpFR2	4	n/a	n/a	n/a	18	10	1	2	7
2819.69	n/a	PROB	1409845	n/a	LTP273	ltpFR2	4	n/a	n/a	n/a	18	13	5	4	4
2821.97	n/a	PROB	1410985	n/a	LTP273	ltpFR2	4	n/a	n/a	n/a	18	16	5	8	3
2823.8	n/a	PROB	1411900	n/a	LTP273	ltpFR2	4	n/a	n/a	n/a	18	17	5	6	6
2826.512	n/a	PROB	1413256	n/a	LTP273	ltpFR2	4	n/a	n/a	n/a	18	13	5	7	1
2829.008	n/a	PROB	1414504	n/a	LTP273	ltpFR2	4	n/a	n/a	n/a	18	19	9	9	1
2830.49	n/a	PROB	1415245	n/a	LTP273	ltpFR2	4	n/a	n/a	n/a	18	14	3	7	4
2831.838	n/a	PROB	1415919	n/a	LTP273	ltpFR2	4	n/a	n/a	n/a	18	14	3	8	3
2833.352	n/a	PROB	1416676	n/a	LTP273	ltpFR2	4	n/a	n/a	n/a	18	13	3	6	4
2834.484	n/a	PROB	1417242	n/a	LTP273	ltpFR2	4	n/a	n/a	n/a	18	18	4	8	6
2835.882	n/a	PROB	1417941	n/a	LTP273	ltpFR2	4	n/a	n/a	n/a	18	13	3	9	1
2837.164	n/a	PROB	1418582	n/a	LTP273	ltpFR2	4	n/a	n/a	n/a	18	23	7	7	9
2838.622	n/a	STOP	1419311	n/a	LTP273	ltpFR2	4	n/a	n/a	n/a	18	n/a	n/a	n/a	n/a
2840.41	n/a	WORD	1420205	wordpools/wasnorm_wordpool_576.txt	LTP273	ltpFR2	4	11	KETCHUP	771	n/a	n/a	0	0	0
2843.122	n/a	WORD	1421561	wordpools/wasnorm_wordpool_576.txt	LTP273	ltpFR2	4	11	DRESS	495	n/a	n/a	0	0	0
2845.568	n/a	WORD	1422784	wordpools/wasnorm_wordpool_576.txt	LTP273	ltpFR2	4	11	SWITCH	1422	n/a	n/a	0	0	0
2848.298	n/a	WORD	1424149	wordpools/wasnorm_wordpool_576.txt	LTP273	ltpFR2	4	11	BEAVER	109	n/a	n/a	0	0	0
2850.76	n/a	WORD	1425380	wordpools/wasnorm_wordpool_576.txt	LTP273	ltpFR2	4	11	BUTCHER	203	n/a	n/a	0	0	0
2853.506	n/a	WORD	1426753	wordpools/wasnorm_wordpool_576.txt	LTP273	ltpFR2	4	11	KNIFE	785	n/a	n/a	0	0	0
2856.252	n/a	WORD	1428126	wordpools/wasnorm_wordpool_576.txt	LTP273	ltpFR2	4	11	SCRIBBLE	1256	n/a	n/a	0	0	0
2858.748	n/a	WORD	1429374	wordpools/wasnorm_wordpool_576.txt	LTP273	ltpFR2	4	11	MARKER	870	n/a	n/a	0	0	0
2861.412	n/a	WORD	1430706	wordpools/wasnorm_wordpool_576.txt	LTP273	ltpFR2	4	11	SPACE	1345	n/a	n/a	0	0	0
2863.874	n/a	WORD	1431937	wordpools/wasnorm_wordpool_576.txt	LTP273	ltpFR2	4	11	ROCKET	1202	n/a	n/a	0	0	0
2866.406	n/a	WORD	1433203	wordpools/wasnorm_wordpool_576.txt	LTP273	ltpFR2	4	11	FEMALE	559	n/a	n/a	0	0	0
2869.084	n/a	WORD	1434542	wordpools/wasnorm_wordpool_576.txt	LTP273	ltpFR2	4	11	DOLPHIN	483	n/a	n/a	0	0	0
2871.78	n/a	WORD	1435890	wordpools/wasnorm_wordpool_576.txt	LTP273	ltpFR2	4	11	BINDER	127	n/a	n/a	0	0	0
2874.592	n/a	WORD	1437296	wordpools/wasnorm_wordpool_576.txt	LTP273	ltpFR2	4	11	TART	1436	n/a	n/a	0	0	0
2877.354	n/a	WORD	1438677	wordpools/wasnorm_wordpool_576.txt	LTP273	ltpFR2	4	11	OUTFIT	988	n/a	n/a	0	0	0
2880.166	n/a	WORD	1440083	wordpools/wasnorm_wordpool_576.txt	LTP273	ltpFR2	4	11	FIREMAN	569	n/a	n/a	0	0	0
2882.83	n/a	WORD	1441415	wordpools/wasnorm_wordpool_576.txt	LTP273	ltpFR2	4	11	SHRUB	1299	n/a	n/a	0	0	0
2885.292	n/a	WORD	1442646	wordpools/wasnorm_wordpool_576.txt	LTP273	ltpFR2	4	11	FRIEND	606	n/a	n/a	0	0	0
2887.938	n/a	WORD	1443969	wordpools/wasnorm_wordpool_576.txt	LTP273	ltpFR2	4	11	PERCH	1048	n/a	n/a	0	0	0
2890.568	n/a	WORD	1445284	wordpools/wasnorm_wordpool_576.txt	LTP273	ltpFR2	4	11	IDOL	733	n/a	n/a	0	0	0
2893.264	n/a	WORD	1446632	wordpools/wasnorm_wordpool_576.txt	LTP273	ltpFR2	4	11	SWORD	1423	n/a	n/a	0	0	0
2895.96	n/a	WORD	1447980	wordpools/wasnorm_wordpool_576.txt	LTP273	ltpFR2	4	11	PLATE	1086	n/a	n/a	0	0	0
2898.69	n/a	WORD	1449345	wordpools/wasnorm_wordpool_576.txt	LTP273	ltpFR2	4	11	PENGUIN	1044	n/a	n/a	0	0	0
2901.318	n/a	WORD	1450659	wordpools/wasnorm_wordpool_576.txt	LTP273	ltpFR2	4	11	LABEL	790	n/a	n/a	0	0	0
2902.934	n/a	START	1451467	n/a	LTP273	ltpFR2	4	n/a	n/a	n/a	19	n/a	n/a	n/a	n/a
2903.778	n/a	DISTRACTOR	1451889	n/a	LTP273	ltpFR2	4	11	n/a	n/a	n/a	n/a	0	0	0
2903.782	n/a	PROB	1451891	n/a	LTP273	ltpFR2	4	n/a	n/a	n/a	19	8	2	2	4
2905.33	n/a	PROB	1452665	n/a	LTP273	ltpFR2	4	n/a	n/a	n/a	19	10	1	7	2
2906.694	n/a	PROB	1453347	n/a	LTP273	ltpFR2	4	n/a	n/a	n/a	19	14	2	6	6
2908.458	n/a	PROB	1454229	n/a	LTP273	ltpFR2	4	n/a	n/a	n/a	19	18	3	8	7
2909.856	n/a	PROB	1454928	n/a	LTP273	ltpFR2	4	n/a	n/a	n/a	19	15	7	5	3
2911.238	n/a	PROB	1455619	n/a	LTP273	ltpFR2	4	n/a	n/a	n/a	19	18	6	5	7
2914.648	n/a	PROB	1457324	n/a	LTP273	ltpFR2	4	n/a	n/a	n/a	19	16	8	2	6
2915.764	n/a	PROB	1457882	n/a	LTP273	ltpFR2	4	n/a	n/a	n/a	19	13	4	3	6
2917.378	n/a	PROB	1458689	n/a	LTP273	ltpFR2	4	n/a	n/a	n/a	19	16	6	9	1
2919.592	n/a	PROB	1459796	n/a	LTP273	ltpFR2	4	n/a	n/a	n/a	19	14	9	7	8
2921.906	n/a	PROB	1460953	n/a	LTP273	ltpFR2	4	n/a	n/a	n/a	19	23	8	8	7
2926.934	n/a	STOP	1463467	n/a	LTP273	ltpFR2	4	n/a	n/a	n/a	19	n/a	n/a	n/a	n/a
2928.83	n/a	REC_START	1464415	n/a	LTP273	ltpFR2	4	11	n/a	n/a	n/a	n/a	0	0	0
2931.678	n/a	REC_WORD	1465839	wordpools/wasnorm_wordpool_576.txt	LTP273	ltpFR2	4	11	OUTFIT	988	n/a	n/a	0	0	0
2932.36	n/a	REC_WORD	1466180	wordpools/wasnorm_wordpool_576.txt	LTP273	ltpFR2	4	11	SWITCH	1422	n/a	n/a	0	0	0
2933.214	n/a	REC_WORD	1466607	wordpools/wasnorm_wordpool_576.txt	LTP273	ltpFR2	4	11	DRESS	495	n/a	n/a	0	0	0
2933.91	n/a	REC_WORD	1466955	wordpools/wasnorm_wordpool_576.txt	LTP273	ltpFR2	4	11	KETCHUP	771	n/a	n/a	0	0	0
2936.612	n/a	REC_WORD	1468306	wordpools/wasnorm_wordpool_576.txt	LTP273	ltpFR2	4	11	FIREMAN	569	n/a	n/a	0	0	0
2937.508	n/a	REC_WORD	1468754	wordpools/wasnorm_wordpool_576.txt	LTP273	ltpFR2	4	11	BUTCHER	203	n/a	n/a	0	0	0
2938.246	n/a	REC_WORD	1469123	wordpools/wasnorm_wordpool_576.txt	LTP273	ltpFR2	4	11	BEAVER	109	n/a	n/a	0	0	0
2938.806	n/a	REC_WORD	1469403	wordpools/wasnorm_wordpool_576.txt	LTP273	ltpFR2	4	11	KNIFE	785	n/a	n/a	0	0	0
2940.384	n/a	REC_WORD	1470192	wordpools/wasnorm_wordpool_576.txt	LTP273	ltpFR2	4	11	SWORD	1423	n/a	n/a	0	0	0
2941.224	n/a	REC_WORD	1470612	wordpools/wasnorm_wordpool_576.txt	LTP273	ltpFR2	4	11	ROCKET	1202	n/a	n/a	0	0	0
2941.91	n/a	REC_WORD	1470955	wordpools/wasnorm_wordpool_576.txt	LTP273	ltpFR2	4	11	SPACE	1345	n/a	n/a	0	0	0
2943.302	n/a	REC_WORD	1471651	wordpools/wasnorm_wordpool_576.txt	LTP273	ltpFR2	4	11	DOLPHIN	483	n/a	n/a	0	0	0
2944.296	n/a	REC_WORD	1472148	wordpools/wasnorm_wordpool_576.txt	LTP273	ltpFR2	4	11	PLATE	1086	n/a	n/a	0	0	0
2947.734	n/a	REC_WORD	1473867	wordpools/wasnorm_wordpool_576.txt	LTP273	ltpFR2	4	11	MARKER	870	n/a	n/a	0	0	0
2948.362	n/a	REC_WORD	1474181	wordpools/wasnorm_wordpool_576.txt	LTP273	ltpFR2	4	11	SCRIBBLE	1256	n/a	n/a	0	0	0
2962.704	n/a	REC_WORD	1481352	wordpools/wasnorm_wordpool_576.txt	LTP273	ltpFR2	4	11	SHRUB	1299	n/a	n/a	0	0	0
2964.902	n/a	REC_WORD	1482451	wordpools/wasnorm_wordpool_576.txt	LTP273	ltpFR2	4	11	BUSH	202	n/a	n/a	0	0	0
2967.616	n/a	REC_WORD	1483808	wordpools/wasnorm_wordpool_576.txt	LTP273	ltpFR2	4	11	FRIEND	606	n/a	n/a	0	0	0
3019.478	n/a	WORD	1509739	wordpools/wasnorm_wordpool_576.txt	LTP273	ltpFR2	4	12	SPONGE	1355	n/a	n/a	0	0	0
3022.274	n/a	WORD	1511137	wordpools/wasnorm_wordpool_576.txt	LTP273	ltpFR2	4	12	RATTLE	1170	n/a	n/a	0	0	0
3024.836	n/a	WORD	1512418	wordpools/wasnorm_wordpool_576.txt	LTP273	ltpFR2	4	12	PASTA	1021	n/a	n/a	0	0	0
3027.45	n/a	WORD	1513725	wordpools/wasnorm_wordpool_576.txt	LTP273	ltpFR2	4	12	WASP	1593	n/a	n/a	0	0	0
3029.946	n/a	WORD	1514973	wordpools/wasnorm_wordpool_576.txt	LTP273	ltpFR2	4	12	SHARK	1275	n/a	n/a	0	0	0
3032.642	n/a	WORD	1516321	wordpools/wasnorm_wordpool_576.txt	LTP273	ltpFR2	4	12	TROUT	1511	n/a	n/a	0	0	0
3035.07	n/a	WORD	1517535	wordpools/wasnorm_wordpool_576.txt	LTP273	ltpFR2	4	12	DIVER	476	n/a	n/a	0	0	0
3037.534	n/a	WORD	1518767	wordpools/wasnorm_wordpool_576.txt	LTP273	ltpFR2	4	12	SLIDE	1326	n/a	n/a	0	0	0
3039.964	n/a	WORD	1519982	wordpools/wasnorm_wordpool_576.txt	LTP273	ltpFR2	4	12	CRAB	397	n/a	n/a	0	0	0
3042.544	n/a	WORD	1521272	wordpools/wasnorm_wordpool_576.txt	LTP273	ltpFR2	4	12	WHISKERS	1605	n/a	n/a	0	0	0
3045.288	n/a	WORD	1522644	wordpools/wasnorm_wordpool_576.txt	LTP273	ltpFR2	4	12	RADISH	1158	n/a	n/a	0	0	0
3047.818	n/a	WORD	1523909	wordpools/wasnorm_wordpool_576.txt	LTP273	ltpFR2	4	12	WASHER	1592	n/a	n/a	0	0	0
3050.582	n/a	WORD	1525291	wordpools/wasnorm_wordpool_576.txt	LTP273	ltpFR2	4	12	SURVEY	1414	n/a	n/a	0	0	0
3053.078	n/a	WORD	1526539	wordpools/wasnorm_wordpool_576.txt	LTP273	ltpFR2	4	12	CHURCH	307	n/a	n/a	0	0	0
3055.84	n/a	WORD	1527920	wordpools/wasnorm_wordpool_576.txt	LTP273	ltpFR2	4	12	WARDROBE	1587	n/a	n/a	0	0	0
3058.52	n/a	WORD	1529260	wordpools/wasnorm_wordpool_576.txt	LTP273	ltpFR2	4	12	SCISSORS	1250	n/a	n/a	0	0	0
3061.15	n/a	WORD	1530575	wordpools/wasnorm_wordpool_576.txt	LTP273	ltpFR2	4	12	DRIVER	499	n/a	n/a	0	0	0
3063.746	n/a	WORD	1531873	wordpools/wasnorm_wordpool_576.txt	LTP273	ltpFR2	4	12	HIKER	708	n/a	n/a	0	0	0
3066.524	n/a	WORD	1533262	wordpools/wasnorm_wordpool_576.txt	LTP273	ltpFR2	4	12	TEMPLE	1448	n/a	n/a	0	0	0
3069.22	n/a	WORD	1534610	wordpools/wasnorm_wordpool_576.txt	LTP273	ltpFR2	4	12	HORSE	719	n/a	n/a	0	0	0
3071.916	n/a	WORD	1535958	wordpools/wasnorm_wordpool_576.txt	LTP273	ltpFR2	4	12	BEEF	113	n/a	n/a	0	0	0
3074.596	n/a	WORD	1537298	wordpools/wasnorm_wordpool_576.txt	LTP273	ltpFR2	4	12	JUGGLER	763	n/a	n/a	0	0	0
3077.208	n/a	WORD	1538604	wordpools/wasnorm_wordpool_576.txt	LTP273	ltpFR2	4	12	CANYON	235	n/a	n/a	0	0	0
3079.722	n/a	WORD	1539861	wordpools/wasnorm_wordpool_576.txt	LTP273	ltpFR2	4	12	SLOPE	1328	n/a	n/a	0	0	0
3081.336	n/a	START	1540668	n/a	LTP273	ltpFR2	4	n/a	n/a	n/a	20	n/a	n/a	n/a	n/a
3082.256	n/a	DISTRACTOR	1541128	n/a	LTP273	ltpFR2	4	12	n/a	n/a	n/a	n/a	0	0	0
3082.268	n/a	PROB	1541134	n/a	LTP273	ltpFR2	4	n/a	n/a	n/a	20	15	7	5	3
3084.182	n/a	PROB	1542091	n/a	LTP273	ltpFR2	4	n/a	n/a	n/a	20	11	8	2	1
3085.646	n/a	PROB	1542823	n/a	LTP273	ltpFR2	4	n/a	n/a	n/a	20	22	6	6	8
3087.626	n/a	PROB	1543813	n/a	LTP273	ltpFR2	4	n/a	n/a	n/a	20	13	5	2	6
3088.874	n/a	PROB	1544437	n/a	LTP273	ltpFR2	4	n/a	n/a	n/a	20	13	4	5	7
3091.838	n/a	PROB	1545919	n/a	LTP273	ltpFR2	4	n/a	n/a	n/a	20	10	3	1	6
3093.202	n/a	PROB	1546601	n/a	LTP273	ltpFR2	4	n/a	n/a	n/a	20	16	4	3	9
3094.7	n/a	PROB	1547350	n/a	LTP273	ltpFR2	4	n/a	n/a	n/a	20	8	3	1	4
3096.23	n/a	PROB	1548115	n/a	LTP273	ltpFR2	4	n/a	n/a	n/a	20	17	8	4	5
3097.578	n/a	PROB	1548789	n/a	LTP273	ltpFR2	4	n/a	n/a	n/a	20	23	9	8	6
3099.492	n/a	PROB	1549746	n/a	LTP273	ltpFR2	4	n/a	n/a	n/a	20	14	3	2	9
3100.808	n/a	PROB	1550404	n/a	LTP273	ltpFR2	4	n/a	n/a	n/a	20	9	3	2	4
3102.754	n/a	PROB	1551377	n/a	LTP273	ltpFR2	4	n/a	n/a	n/a	20	6	1	3	2
3103.874	n/a	STOP	1551937	n/a	LTP273	ltpFR2	4	n/a	n/a	n/a	20	n/a	n/a	n/a	n/a
3107.248	n/a	REC_START	1553624	n/a	LTP273	ltpFR2	4	12	n/a	n/a	n/a	n/a	0	0	0
3154.716	n/a	REC_WORD_VV	1577358	wordpools/wasnorm_wordpool_576.txt	LTP273	ltpFR2	4	12	<>	-1	n/a	n/a	0	0	0
3155.716	n/a	REC_WORD_VV	1577858	wordpools/wasnorm_wordpool_576.txt	LTP273	ltpFR2	4	12	<>	-1	n/a	n/a	0	0	0
3156.716	n/a	REC_WORD_VV	1578358	wordpools/wasnorm_wordpool_576.txt	LTP273	ltpFR2	4	12	<>	-1	n/a	n/a	0	0	0
3157.418	n/a	REC_WORD	1578709	wordpools/wasnorm_wordpool_576.txt	LTP273	ltpFR2	4	12	ONION	977	n/a	n/a	0	0	0
3157.908	n/a	REC_WORD_VV	1578954	wordpools/wasnorm_wordpool_576.txt	LTP273	ltpFR2	4	12	<>	-1	n/a	n/a	0	0	0
3233.878	n/a	WORD	1616939	wordpools/wasnorm_wordpool_576.txt	LTP273	ltpFR2	4	13	LEADER	807	n/a	n/a	0	0	0
3236.672	n/a	WORD	1618336	wordpools/wasnorm_wordpool_576.txt	LTP273	ltpFR2	4	13	CLOUD	328	n/a	n/a	0	0	0
3239.402	n/a	WORD	1619701	wordpools/wasnorm_wordpool_576.txt	LTP273	ltpFR2	4	13	PIANO	1057	n/a	n/a	0	0	0
3241.832	n/a	WORD	1620916	wordpools/wasnorm_wordpool_576.txt	LTP273	ltpFR2	4	13	SUPPER	1411	n/a	n/a	0	0	0
3244.362	n/a	WORD	1622181	wordpools/wasnorm_wordpool_576.txt	LTP273	ltpFR2	4	13	SWAMP	1416	n/a	n/a	0	0	0
3246.892	n/a	WORD	1623446	wordpools/wasnorm_wordpool_576.txt	LTP273	ltpFR2	4	13	LION	827	n/a	n/a	0	0	0
3249.438	n/a	WORD	1624719	wordpools/wasnorm_wordpool_576.txt	LTP273	ltpFR2	4	13	LEOPARD	812	n/a	n/a	0	0	0
3251.9	n/a	WORD	1625950	wordpools/wasnorm_wordpool_576.txt	LTP273	ltpFR2	4	13	CAPTIVE	240	n/a	n/a	0	0	0
3254.43	n/a	WORD	1627215	wordpools/wasnorm_wordpool_576.txt	LTP273	ltpFR2	4	13	CAFE	216	n/a	n/a	0	0	0
3257.01	n/a	WORD	1628505	wordpools/wasnorm_wordpool_576.txt	LTP273	ltpFR2	4	13	STOMACH	1384	n/a	n/a	0	0	0
3259.638	n/a	WORD	1629819	wordpools/wasnorm_wordpool_576.txt	LTP273	ltpFR2	4	13	CHAPEL	280	n/a	n/a	0	0	0
3262.302	n/a	WORD	1631151	wordpools/wasnorm_wordpool_576.txt	LTP273	ltpFR2	4	13	DANDRUFF	439	n/a	n/a	0	0	0
3265.114	n/a	WORD	1632557	wordpools/wasnorm_wordpool_576.txt	LTP273	ltpFR2	4	13	CHEST	295	n/a	n/a	0	0	0
3267.594	n/a	WORD	1633797	wordpools/wasnorm_wordpool_576.txt	LTP273	ltpFR2	4	13	PISTOL	1075	n/a	n/a	0	0	0
3270.308	n/a	WORD	1635154	wordpools/wasnorm_wordpool_576.txt	LTP273	ltpFR2	4	13	SCARECROW	1245	n/a	n/a	0	0	0
3272.87	n/a	WORD	1636435	wordpools/wasnorm_wordpool_576.txt	LTP273	ltpFR2	4	13	CONVICT	371	n/a	n/a	0	0	0
3275.332	n/a	WORD	1637666	wordpools/wasnorm_wordpool_576.txt	LTP273	ltpFR2	4	13	LAMP	798	n/a	n/a	0	0	0
3277.78	n/a	WORD	1638890	wordpools/wasnorm_wordpool_576.txt	LTP273	ltpFR2	4	13	CANDY	230	n/a	n/a	0	0	0
3280.342	n/a	WORD	1640171	wordpools/wasnorm_wordpool_576.txt	LTP273	ltpFR2	4	13	COOK	372	n/a	n/a	0	0	0
3282.772	n/a	WORD	1641386	wordpools/wasnorm_wordpool_576.txt	LTP273	ltpFR2	4	13	SUITCASE	1403	n/a	n/a	0	0	0
3285.402	n/a	WORD	1642701	wordpools/wasnorm_wordpool_576.txt	LTP273	ltpFR2	4	13	ITEM	746	n/a	n/a	0	0	0
3287.964	n/a	WORD	1643982	wordpools/wasnorm_wordpool_576.txt	LTP273	ltpFR2	4	13	BUG	187	n/a	n/a	0	0	0
3290.56	n/a	WORD	1645280	wordpools/wasnorm_wordpool_576.txt	LTP273	ltpFR2	4	13	SHERIFF	1284	n/a	n/a	0	0	0
3293.106	n/a	WORD	1646553	wordpools/wasnorm_wordpool_576.txt	LTP273	ltpFR2	4	13	IGLOO	734	n/a	n/a	0	0	0
3294.72	n/a	START	1647360	n/a	LTP273	ltpFR2	4	n/a	n/a	n/a	21	n/a	n/a	n/a	n/a
3295.532	n/a	DISTRACTOR	1647766	n/a	LTP273	ltpFR2	4	13	n/a	n/a	n/a	n/a	0	0	0
3295.536	n/a	PROB	1647768	n/a	LTP273	ltpFR2	4	n/a	n/a	n/a	21	11	2	5	4
3298.798	n/a	PROB	1649399	n/a	LTP273	ltpFR2	4	n/a	n/a	n/a	21	13	1	7	5
3300.596	n/a	PROB	1650298	n/a	LTP273	ltpFR2	4	n/a	n/a	n/a	21	21	7	7	7
3301.76	n/a	PROB	1650880	n/a	LTP273	ltpFR2	4	n/a	n/a	n/a	21	12	2	2	8
3303.142	n/a	PROB	1651571	n/a	LTP273	ltpFR2	4	n/a	n/a	n/a	21	11	9	8	4
3305.488	n/a	PROB	1652744	n/a	LTP273	ltpFR2	4	n/a	n/a	n/a	21	11	1	7	3
3306.986	n/a	PROB	1653493	n/a	LTP273	ltpFR2	4	n/a	n/a	n/a	21	17	7	9	1
3308.2	n/a	PROB	1654100	n/a	LTP273	ltpFR2	4	n/a	n/a	n/a	21	21	9	4	8
3310.014	n/a	PROB	1655007	n/a	LTP273	ltpFR2	4	n/a	n/a	n/a	21	14	2	7	7
3311.212	n/a	PROB	1655606	n/a	LTP273	ltpFR2	4	n/a	n/a	n/a	21	15	3	5	7
3312.91	n/a	PROB	1656455	n/a	LTP273	ltpFR2	4	n/a	n/a	n/a	21	9	4	2	1
3314.308	n/a	PROB	1657154	n/a	LTP273	ltpFR2	4	n/a	n/a	n/a	21	15	6	8	1
3316.072	n/a	PROB	1658036	n/a	LTP273	ltpFR2	4	n/a	n/a	n/a	21	15	4	6	5
3317.138	n/a	PROB	1658569	n/a	LTP273	ltpFR2	4	n/a	n/a	n/a	21	9	1	2	6
3318.188	n/a	STOP	1659094	n/a	LTP273	ltpFR2	4	n/a	n/a	n/a	21	n/a	n/a	n/a	n/a
3320.5	n/a	REC_START	1660250	n/a	LTP273	ltpFR2	4	13	n/a	n/a	n/a	n/a	0	0	0
3321.252	n/a	REC_WORD	1660626	wordpools/wasnorm_wordpool_576.txt	LTP273	ltpFR2	4	13	CONVICT	371	n/a	n/a	0	0	0
3321.84	n/a	REC_WORD	1660920	wordpools/wasnorm_wordpool_576.txt	LTP273	ltpFR2	4	13	SHERIFF	1284	n/a	n/a	0	0	0
3368.282	n/a	REC_WORD	1684141	wordpools/wasnorm_wordpool_576.txt	LTP273	ltpFR2	4	13	ULCER	1533	n/a	n/a	0	0	0
3371.06	n/a	REC_WORD	1685530	wordpools/wasnorm_wordpool_576.txt	LTP273	ltpFR2	4	13	STOMACH	1384	n/a	n/a	0	0	0
3387.0	n/a	REC_WORD	1693500	wordpools/wasnorm_wordpool_576.txt	LTP273	ltpFR2	4	13	LASER	801	n/a	n/a	0	0	0
3411.266	n/a	WORD	1705633	wordpools/wasnorm_wordpool_576.txt	LTP273	ltpFR2	4	14	POPCORN	1104	n/a	n/a	0	0	0
3414.062	n/a	WORD	1707031	wordpools/wasnorm_wordpool_576.txt	LTP273	ltpFR2	4	14	SNACK	1331	n/a	n/a	0	0	0
3416.59	n/a	WORD	1708295	wordpools/wasnorm_wordpool_576.txt	LTP273	ltpFR2	4	14	BISON	131	n/a	n/a	0	0	0
3419.104	n/a	WORD	1709552	wordpools/wasnorm_wordpool_576.txt	LTP273	ltpFR2	4	14	FLESH	579	n/a	n/a	0	0	0
3421.684	n/a	WORD	1710842	wordpools/wasnorm_wordpool_576.txt	LTP273	ltpFR2	4	14	PIGMENT	1066	n/a	n/a	0	0	0
3424.28	n/a	WORD	1712140	wordpools/wasnorm_wordpool_576.txt	LTP273	ltpFR2	4	14	TILE	1468	n/a	n/a	0	0	0
3426.808	n/a	WORD	1713404	wordpools/wasnorm_wordpool_576.txt	LTP273	ltpFR2	4	14	RUG	1215	n/a	n/a	0	0	0
3429.288	n/a	WORD	1714644	wordpools/wasnorm_wordpool_576.txt	LTP273	ltpFR2	4	14	CONCERT	360	n/a	n/a	0	0	0
3432.05	n/a	WORD	1716025	wordpools/wasnorm_wordpool_576.txt	LTP273	ltpFR2	4	14	PIZZA	1079	n/a	n/a	0	0	0
3434.564	n/a	WORD	1717282	wordpools/wasnorm_wordpool_576.txt	LTP273	ltpFR2	4	14	SPOON	1357	n/a	n/a	0	0	0
3437.11	n/a	WORD	1718555	wordpools/wasnorm_wordpool_576.txt	LTP273	ltpFR2	4	14	CLOTHES	327	n/a	n/a	0	0	0
3439.756	n/a	WORD	1719878	wordpools/wasnorm_wordpool_576.txt	LTP273	ltpFR2	4	14	SHOVEL	1295	n/a	n/a	0	0	0
3442.47	n/a	WORD	1721235	wordpools/wasnorm_wordpool_576.txt	LTP273	ltpFR2	4	14	LACE	792	n/a	n/a	0	0	0
3444.964	n/a	WORD	1722482	wordpools/wasnorm_wordpool_576.txt	LTP273	ltpFR2	4	14	MESSAGE	888	n/a	n/a	0	0	0
3447.66	n/a	WORD	1723830	wordpools/wasnorm_wordpool_576.txt	LTP273	ltpFR2	4	14	BLOCKADE	137	n/a	n/a	0	0	0
3450.308	n/a	WORD	1725154	wordpools/wasnorm_wordpool_576.txt	LTP273	ltpFR2	4	14	LEG	809	n/a	n/a	0	0	0
3452.904	n/a	WORD	1726452	wordpools/wasnorm_wordpool_576.txt	LTP273	ltpFR2	4	14	MILK	895	n/a	n/a	0	0	0
3455.482	n/a	WORD	1727741	wordpools/wasnorm_wordpool_576.txt	LTP273	ltpFR2	4	14	FLASHLIGHT	575	n/a	n/a	0	0	0
3458.246	n/a	WORD	1729123	wordpools/wasnorm_wordpool_576.txt	LTP273	ltpFR2	4	14	HAMPER	682	n/a	n/a	0	0	0
3460.692	n/a	WORD	1730346	wordpools/wasnorm_wordpool_576.txt	LTP273	ltpFR2	4	14	DONOR	485	n/a	n/a	0	0	0
3463.32	n/a	WORD	1731660	wordpools/wasnorm_wordpool_576.txt	LTP273	ltpFR2	4	14	GUITAR	670	n/a	n/a	0	0	0
3465.868	n/a	WORD	1732934	wordpools/wasnorm_wordpool_576.txt	LTP273	ltpFR2	4	14	SKILLET	1317	n/a	n/a	0	0	0
3468.662	n/a	WORD	1734331	wordpools/wasnorm_wordpool_576.txt	LTP273	ltpFR2	4	14	DOUGHNUT	490	n/a	n/a	0	0	0
3471.11	n/a	WORD	1735555	wordpools/wasnorm_wordpool_576.txt	LTP273	ltpFR2	4	14	TYPIST	1532	n/a	n/a	0	0	0
3472.724	n/a	START	1736362	n/a	LTP273	ltpFR2	4	n/a	n/a	n/a	22	n/a	n/a	n/a	n/a
3473.746	n/a	DISTRACTOR	1736873	n/a	LTP273	ltpFR2	4	14	n/a	n/a	n/a	n/a	0	0	0
3473.756	n/a	PROB	1736878	n/a	LTP273	ltpFR2	4	n/a	n/a	n/a	22	19	8	4	7
3476.952	n/a	PROB	1738476	n/a	LTP273	ltpFR2	4	n/a	n/a	n/a	22	16	7	1	8
3478.382	n/a	PROB	1739191	n/a	LTP273	ltpFR2	4	n/a	n/a	n/a	22	20	6	5	9
3479.948	n/a	PROB	1739974	n/a	LTP273	ltpFR2	4	n/a	n/a	n/a	22	21	6	6	9
3481.994	n/a	PROB	1740997	n/a	LTP273	ltpFR2	4	n/a	n/a	n/a	22	14	2	4	8
3483.358	n/a	PROB	1741679	n/a	LTP273	ltpFR2	4	n/a	n/a	n/a	22	17	7	9	1
3484.774	n/a	PROB	1742387	n/a	LTP273	ltpFR2	4	n/a	n/a	n/a	22	15	7	1	7
3487.12	n/a	PROB	1743560	n/a	LTP273	ltpFR2	4	n/a	n/a	n/a	22	18	1	8	9
3488.618	n/a	PROB	1744309	n/a	LTP273	ltpFR2	4	n/a	n/a	n/a	22	15	4	8	3
3490.714	n/a	PROB	1745357	n/a	LTP273	ltpFR2	4	n/a	n/a	n/a	22	11	3	1	7
3491.896	n/a	PROB	1745948	n/a	LTP273	ltpFR2	4	n/a	n/a	n/a	22	7	2	4	1
3494.226	n/a	PROB	1747113	n/a	LTP273	ltpFR2	4	n/a	n/a	n/a	22	16	7	2	7
3495.32	n/a	STOP	1747660	n/a	LTP273	ltpFR2	4	n/a	n/a	n/a	22	n/a	n/a	n/a	n/a
3498.52	n/a	REC_START	1749260	n/a	LTP273	ltpFR2	4	14	n/a	n/a	n/a	n/a	0	0	0
3498.836	n/a	REC_WORD	1749418	wordpools/wasnorm_wordpool_576.txt	LTP273	ltpFR2	4	14	DONOR	485	n/a	n/a	0	0	0
3499.416	n/a	REC_WORD	1749708	wordpools/wasnorm_wordpool_576.txt	LTP273	ltpFR2	4	14	TYPIST	1532	n/a	n/a	0	0	0
3500.068	n/a	REC_WORD	1750034	wordpools/wasnorm_wordpool_576.txt	LTP273	ltpFR2	4	14	SKILLET	1317	n/a	n/a	0	0	0
3505.844	n/a	REC_WORD	1752922	wordpools/wasnorm_wordpool_576.txt	LTP273	ltpFR2	4	14	FLESH	579	n/a	n/a	0	0	0
3509.214	n/a	REC_WORD	1754607	wordpools/wasnorm_wordpool_576.txt	LTP273	ltpFR2	4	14	POPCORN	1104	n/a	n/a	0	0	0
3509.974	n/a	REC_WORD	1754987	wordpools/wasnorm_wordpool_576.txt	LTP273	ltpFR2	4	14	SNACK	1331	n/a	n/a	0	0	0
3510.72	n/a	REC_WORD	1755360	wordpools/wasnorm_wordpool_576.txt	LTP273	ltpFR2	4	14	BISON	131	n/a	n/a	0	0	0
3511.638	n/a	REC_WORD	1755819	wordpools/wasnorm_wordpool_576.txt	LTP273	ltpFR2	4	14	FLASHLIGHT	575	n/a	n/a	0	0	0
3512.616	n/a	REC_WORD	1756308	wordpools/wasnorm_wordpool_576.txt	LTP273	ltpFR2	4	14	TILE	1468	n/a	n/a	0	0	0
3520.288	n/a	REC_WORD	1760144	wordpools/wasnorm_wordpool_576.txt	LTP273	ltpFR2	4	14	CONCERT	360	n/a	n/a	0	0	0
3525.748	n/a	REC_WORD	1762874	wordpools/wasnorm_wordpool_576.txt	LTP273	ltpFR2	4	14	PIGMENT	1066	n/a	n/a	0	0	0
3527.198	n/a	REC_WORD	1763599	wordpools/wasnorm_wordpool_576.txt	LTP273	ltpFR2	4	14	RUG	1215	n/a	n/a	0	0	0
3589.184	n/a	DISTRACTOR	1794592	n/a	LTP273	ltpFR2	4	15	n/a	n/a	n/a	n/a	0	0	0
3589.186	n/a	START	1794593	n/a	LTP273	ltpFR2	4	n/a	n/a	n/a	23	n/a	n/a	n/a	n/a
3589.218	n/a	PROB	1794609	n/a	LTP273	ltpFR2	4	n/a	n/a	n/a	23	14	5	7	2
3592.614	n/a	PROB	1796307	n/a	LTP273	ltpFR2	4	n/a	n/a	n/a	23	24	8	7	9
3595.242	n/a	PROB	1797621	n/a	LTP273	ltpFR2	4	n/a	n/a	n/a	23	23	6	8	9
3597.44	n/a	PROB	1798720	n/a	LTP273	ltpFR2	4	n/a	n/a	n/a	23	14	8	1	5
3600.118	n/a	PROB	1800059	n/a	LTP273	ltpFR2	4	n/a	n/a	n/a	23	15	9	4	4
3602.682	n/a	PROB	1801341	n/a	LTP273	ltpFR2	4	n/a	n/a	n/a	23	17	3	8	6
3605.062	n/a	PROB	1802531	n/a	LTP273	ltpFR2	4	n/a	n/a	n/a	23	15	9	4	2
3607.042	n/a	PROB	1803521	n/a	LTP273	ltpFR2	4	n/a	n/a	n/a	23	21	7	6	8
3608.656	n/a	PROB	1804328	n/a	LTP273	ltpFR2	4	n/a	n/a	n/a	23	9	7	1	1
3610.186	n/a	PROB	1805093	n/a	LTP273	ltpFR2	4	n/a	n/a	n/a	23	6	2	1	3
3611.674	n/a	STOP	1805837	n/a	LTP273	ltpFR2	4	n/a	n/a	n/a	23	n/a	n/a	n/a	n/a
3614.298	n/a	WORD	1807149	wordpools/wasnorm_wordpool_576.txt	LTP273	ltpFR2	4	15	DRAGON	492	n/a	n/a	0	0	0
3617.06	n/a	WORD	1808530	wordpools/wasnorm_wordpool_576.txt	LTP273	ltpFR2	4	15	PEDAL	1037	n/a	n/a	0	0	0
3619.69	n/a	WORD	1809845	wordpools/wasnorm_wordpool_576.txt	LTP273	ltpFR2	4	15	GANGSTER	620	n/a	n/a	0	0	0
3622.486	n/a	WORD	1811243	wordpools/wasnorm_wordpool_576.txt	LTP273	ltpFR2	4	15	WHISTLE	1606	n/a	n/a	0	0	0
3624.966	n/a	WORD	1812483	wordpools/wasnorm_wordpool_576.txt	LTP273	ltpFR2	4	15	STAR	1373	n/a	n/a	0	0	0
3627.48	n/a	WORD	1813740	wordpools/wasnorm_wordpool_576.txt	LTP273	ltpFR2	4	15	SCOTCH	1251	n/a	n/a	0	0	0
3630.192	n/a	WORD	1815096	wordpools/wasnorm_wordpool_576.txt	LTP273	ltpFR2	4	15	BRANDY	169	n/a	n/a	0	0	0
3632.97	n/a	WORD	1816485	wordpools/wasnorm_wordpool_576.txt	LTP273	ltpFR2	4	15	SUMMIT	1405	n/a	n/a	0	0	0
3635.8	n/a	WORD	1817900	wordpools/wasnorm_wordpool_576.txt	LTP273	ltpFR2	4	15	BOARD	143	n/a	n/a	0	0	0
3638.414	n/a	WORD	1819207	wordpools/wasnorm_wordpool_576.txt	LTP273	ltpFR2	4	15	FOREST	593	n/a	n/a	0	0	0
3641.192	n/a	WORD	1820596	wordpools/wasnorm_wordpool_576.txt	LTP273	ltpFR2	4	15	CASHEW	253	n/a	n/a	0	0	0
3643.87	n/a	WORD	1821935	wordpools/wasnorm_wordpool_576.txt	LTP273	ltpFR2	4	15	COMET	353	n/a	n/a	0	0	0
3646.55	n/a	WORD	1823275	wordpools/wasnorm_wordpool_576.txt	LTP273	ltpFR2	4	15	PILOT	1070	n/a	n/a	0	0	0
3648.98	n/a	WORD	1824490	wordpools/wasnorm_wordpool_576.txt	LTP273	ltpFR2	4	15	LUGGAGE	847	n/a	n/a	0	0	0
3651.61	n/a	WORD	1825805	wordpools/wasnorm_wordpool_576.txt	LTP273	ltpFR2	4	15	DENTIST	447	n/a	n/a	0	0	0
3654.04	n/a	WORD	1827020	wordpools/wasnorm_wordpool_576.txt	LTP273	ltpFR2	4	15	DRILL	497	n/a	n/a	0	0	0
3656.852	n/a	WORD	1828426	wordpools/wasnorm_wordpool_576.txt	LTP273	ltpFR2	4	15	TRIBE	1505	n/a	n/a	0	0	0
3659.614	n/a	WORD	1829807	wordpools/wasnorm_wordpool_576.txt	LTP273	ltpFR2	4	15	COURSE	390	n/a	n/a	0	0	0
3662.128	n/a	WORD	1831064	wordpools/wasnorm_wordpool_576.txt	LTP273	ltpFR2	4	15	TOMBSTONE	1478	n/a	n/a	0	0	0
3664.822	n/a	WORD	1832411	wordpools/wasnorm_wordpool_576.txt	LTP273	ltpFR2	4	15	DUST	508	n/a	n/a	0	0	0
3667.37	n/a	WORD	1833685	wordpools/wasnorm_wordpool_576.txt	LTP273	ltpFR2	4	15	PAIL	1002	n/a	n/a	0	0	0
3669.832	n/a	WORD	1834916	wordpools/wasnorm_wordpool_576.txt	LTP273	ltpFR2	4	15	VELVET	1555	n/a	n/a	0	0	0
3672.396	n/a	WORD	1836198	wordpools/wasnorm_wordpool_576.txt	LTP273	ltpFR2	4	15	QUEEN	1149	n/a	n/a	0	0	0
3674.924	n/a	WORD	1837462	wordpools/wasnorm_wordpool_576.txt	LTP273	ltpFR2	4	15	WIDOW	1608	n/a	n/a	0	0	0
3676.54	n/a	START	1838270	n/a	LTP273	ltpFR2	4	n/a	n/a	n/a	24	n/a	n/a	n/a	n/a
3677.664	n/a	DISTRACTOR	1838832	n/a	LTP273	ltpFR2	4	15	n/a	n/a	n/a	n/a	0	0	0
3677.67	n/a	PROB	1838835	n/a	LTP273	ltpFR2	4	n/a	n/a	n/a	24	12	2	3	7
3679.318	n/a	PROB	1839659	n/a	LTP273	ltpFR2	4	n/a	n/a	n/a	24	13	6	3	4
3680.95	n/a	PROB	1840475	n/a	LTP273	ltpFR2	4	n/a	n/a	n/a	24	22	9	7	6
3688.522	n/a	PROB	1844261	n/a	LTP273	ltpFR2	4	n/a	n/a	n/a	24	15	4	6	5
3690.02	n/a	PROB	1845010	n/a	LTP273	ltpFR2	4	n/a	n/a	n/a	24	13	7	5	1
3692.65	n/a	PROB	1846325	n/a	LTP273	ltpFR2	4	n/a	n/a	n/a	24	6	1	2	3
3694.448	n/a	PROB	1847224	n/a	LTP273	ltpFR2	4	n/a	n/a	n/a	24	24	9	9	6
3696.178	n/a	PROB	1848089	n/a	LTP273	ltpFR2	4	n/a	n/a	n/a	24	12	5	5	2
3697.258	n/a	PROB	1848629	n/a	LTP273	ltpFR2	4	n/a	n/a	n/a	24	13	9	1	3
3700.54	n/a	STOP	1850270	n/a	LTP273	ltpFR2	4	n/a	n/a	n/a	24	n/a	n/a	n/a	n/a
3702.42	n/a	REC_START	1851210	n/a	LTP273	ltpFR2	4	15	n/a	n/a	n/a	n/a	0	0	0
3702.996	n/a	REC_WORD	1851498	wordpools/wasnorm_wordpool_576.txt	LTP273	ltpFR2	4	15	PAIL	1002	n/a	n/a	0	0	0
3703.986	n/a	REC_WORD	1851993	wordpools/wasnorm_wordpool_576.txt	LTP273	ltpFR2	4	15	WIDOW	1608	n/a	n/a	0	0	0
3708.064	n/a	REC_WORD	1854032	wordpools/wasnorm_wordpool_576.txt	LTP273	ltpFR2	4	15	BUCKET	184	n/a	n/a	0	0	0
3721.24	n/a	REC_WORD	1860620	wordpools/wasnorm_wordpool_576.txt	LTP273	ltpFR2	4	15	MISTER	901	n/a	n/a	0	0	0
3730.106	n/a	REC_WORD	1865053	wordpools/wasnorm_wordpool_576.txt	LTP273	ltpFR2	4	15	MARROW	872	n/a	n/a	0	0	0
3732.518	n/a	REC_WORD	1866259	wordpools/wasnorm_wordpool_576.txt	LTP273	ltpFR2	4	15	BACKBONE	66	n/a	n/a	0	0	0
3793.084	n/a	WORD	1896542	wordpools/wasnorm_wordpool_576.txt	LTP273	ltpFR2	4	16	HAND	683	n/a	n/a	0	0	0
3795.88	n/a	WORD	1897940	wordpools/wasnorm_wordpool_576.txt	LTP273	ltpFR2	4	16	FRAME	600	n/a	n/a	0	0	0
3798.358	n/a	WORD	1899179	wordpools/wasnorm_wordpool_576.txt	LTP273	ltpFR2	4	16	RECORD	1176	n/a	n/a	0	0	0
3801.154	n/a	WORD	1900577	wordpools/wasnorm_wordpool_576.txt	LTP273	ltpFR2	4	16	DUSTPAN	509	n/a	n/a	0	0	0
3803.934	n/a	WORD	1901967	wordpools/wasnorm_wordpool_576.txt	LTP273	ltpFR2	4	16	SCULPTURE	1258	n/a	n/a	0	0	0
3806.482	n/a	WORD	1903241	wordpools/wasnorm_wordpool_576.txt	LTP273	ltpFR2	4	16	CRICKET	408	n/a	n/a	0	0	0
3809.292	n/a	WORD	1904646	wordpools/wasnorm_wordpool_576.txt	LTP273	ltpFR2	4	16	CUSTARD	429	n/a	n/a	0	0	0
3812.106	n/a	WORD	1906053	wordpools/wasnorm_wordpool_576.txt	LTP273	ltpFR2	4	16	WRIST	1626	n/a	n/a	0	0	0
3814.818	n/a	WORD	1907409	wordpools/wasnorm_wordpool_576.txt	LTP273	ltpFR2	4	16	MEAT	883	n/a	n/a	0	0	0
3817.398	n/a	WORD	1908699	wordpools/wasnorm_wordpool_576.txt	LTP273	ltpFR2	4	16	POLICE	1098	n/a	n/a	0	0	0
3820.078	n/a	WORD	1910039	wordpools/wasnorm_wordpool_576.txt	LTP273	ltpFR2	4	16	STATUE	1374	n/a	n/a	0	0	0
3822.64	n/a	WORD	1911320	wordpools/wasnorm_wordpool_576.txt	LTP273	ltpFR2	4	16	MARKET	871	n/a	n/a	0	0	0
3825.154	n/a	WORD	1912577	wordpools/wasnorm_wordpool_576.txt	LTP273	ltpFR2	4	16	SHOULDER	1294	n/a	n/a	0	0	0
3827.95	n/a	WORD	1913975	wordpools/wasnorm_wordpool_576.txt	LTP273	ltpFR2	4	16	COFFEE	341	n/a	n/a	0	0	0
3830.48	n/a	WORD	1915240	wordpools/wasnorm_wordpool_576.txt	LTP273	ltpFR2	4	16	WRENCH	1625	n/a	n/a	0	0	0
3833.008	n/a	WORD	1916504	wordpools/wasnorm_wordpool_576.txt	LTP273	ltpFR2	4	16	SPHINX	1349	n/a	n/a	0	0	0
3835.588	n/a	WORD	1917794	wordpools/wasnorm_wordpool_576.txt	LTP273	ltpFR2	4	16	MONEY	908	n/a	n/a	0	0	0
3838.2	n/a	WORD	1919100	wordpools/wasnorm_wordpool_576.txt	LTP273	ltpFR2	4	16	BRIEFCASE	175	n/a	n/a	0	0	0
3840.88	n/a	WORD	1920440	wordpools/wasnorm_wordpool_576.txt	LTP273	ltpFR2	4	16	BANKER	84	n/a	n/a	0	0	0
3843.428	n/a	WORD	1921714	wordpools/wasnorm_wordpool_576.txt	LTP273	ltpFR2	4	16	HORNET	718	n/a	n/a	0	0	0
3845.938	n/a	WORD	1922969	wordpools/wasnorm_wordpool_576.txt	LTP273	ltpFR2	4	16	BRACES	164	n/a	n/a	0	0	0
3848.552	n/a	WORD	1924276	wordpools/wasnorm_wordpool_576.txt	LTP273	ltpFR2	4	16	PARROT	1015	n/a	n/a	0	0	0
3851.064	n/a	WORD	1925532	wordpools/wasnorm_wordpool_576.txt	LTP273	ltpFR2	4	16	PIGEON	1065	n/a	n/a	0	0	0
3853.76	n/a	WORD	1926880	wordpools/wasnorm_wordpool_576.txt	LTP273	ltpFR2	4	16	BADGE	68	n/a	n/a	0	0	0
3855.376	n/a	START	1927688	n/a	LTP273	ltpFR2	4	n/a	n/a	n/a	25	n/a	n/a	n/a	n/a
3856.45	n/a	DISTRACTOR	1928225	n/a	LTP273	ltpFR2	4	16	n/a	n/a	n/a	n/a	0	0	0
3856.458	n/a	PROB	1928229	n/a	LTP273	ltpFR2	4	n/a	n/a	n/a	25	9	1	2	6
3858.404	n/a	PROB	1929202	n/a	LTP273	ltpFR2	4	n/a	n/a	n/a	25	18	4	7	7
3860.7	n/a	PROB	1930350	n/a	LTP273	ltpFR2	4	n/a	n/a	n/a	25	12	6	3	3
3863.296	n/a	PROB	1931648	n/a	LTP273	ltpFR2	4	n/a	n/a	n/a	25	1	6	1	5
3864.678	n/a	PROB	1932339	n/a	LTP273	ltpFR2	4	n/a	n/a	n/a	25	7	5	1	1
3866.292	n/a	PROB	1933146	n/a	LTP273	ltpFR2	4	n/a	n/a	n/a	25	21	9	8	5
3868.522	n/a	PROB	1934261	n/a	LTP273	ltpFR2	4	n/a	n/a	n/a	25	11	7	1	5
3871.668	n/a	PROB	1935834	n/a	LTP273	ltpFR2	4	n/a	n/a	n/a	25	20	4	8	8
3874.996	n/a	PROB	1937498	n/a	LTP273	ltpFR2	4	n/a	n/a	n/a	25	15	3	9	4
3879.376	n/a	STOP	1939688	n/a	LTP273	ltpFR2	4	n/a	n/a	n/a	25	n/a	n/a	n/a	n/a
3881.236	n/a	REC_START	1940618	n/a	LTP273	ltpFR2	4	16	n/a	n/a	n/a	n/a	0	0	0
3882.88	n/a	REC_WORD	1941440	wordpools/wasnorm_wordpool_576.txt	LTP273	ltpFR2	4	16	BRACELET	163	n/a	n/a	0	0	0
3885.022	n/a	REC_WORD	1942511	wordpools/wasnorm_wordpool_576.txt	LTP273	ltpFR2	4	16	BRIDGE	174	n/a	n/a	0	0	0
3890.59	n/a	REC_WORD	1945295	wordpools/wasnorm_wordpool_576.txt	LTP273	ltpFR2	4	16	PIGEON	1065	n/a	n/a	0	0	0
3910.4	n/a	REC_WORD	1955200	wordpools/wasnorm_wordpool_576.txt	LTP273	ltpFR2	4	16	HAND	683	n/a	n/a	0	0	0
3911.538	n/a	REC_WORD	1955769	wordpools/wasnorm_wordpool_576.txt	LTP273	ltpFR2	4	16	FRAME	600	n/a	n/a	0	0	0
3957.84	n/a	REST_REWET	1978920	n/a	LTP273	ltpFR2	4	16	n/a	n/a	n/a	n/a	0	0	0
4309.804	n/a	WORD	2154902	wordpools/wasnorm_wordpool_576.txt	LTP273	ltpFR2	4	17	SPOUSE	1358	n/a	n/a	0	0	0
4312.316	n/a	WORD	2156158	wordpools/wasnorm_wordpool_576.txt	LTP273	ltpFR2	4	17	CASKET	255	n/a	n/a	0	0	0
4314.912	n/a	WORD	2157456	wordpools/wasnorm_wordpool_576.txt	LTP273	ltpFR2	4	17	MUMMY	932	n/a	n/a	0	0	0
4317.476	n/a	WORD	2158738	wordpools/wasnorm_wordpool_576.txt	LTP273	ltpFR2	4	17	CITRUS	313	n/a	n/a	0	0	0
4319.922	n/a	WORD	2159961	wordpools/wasnorm_wordpool_576.txt	LTP273	ltpFR2	4	17	THIEF	1456	n/a	n/a	0	0	0
4322.436	n/a	WORD	2161218	wordpools/wasnorm_wordpool_576.txt	LTP273	ltpFR2	4	17	SUSPECT	1415	n/a	n/a	0	0	0
4325.148	n/a	WORD	2162574	wordpools/wasnorm_wordpool_576.txt	LTP273	ltpFR2	4	17	FRANCE	601	n/a	n/a	0	0	0
4327.96	n/a	WORD	2163980	wordpools/wasnorm_wordpool_576.txt	LTP273	ltpFR2	4	17	LADDER	793	n/a	n/a	0	0	0
4330.406	n/a	WORD	2165203	wordpools/wasnorm_wordpool_576.txt	LTP273	ltpFR2	4	17	SWIMMER	1420	n/a	n/a	0	0	0
4332.886	n/a	WORD	2166443	wordpools/wasnorm_wordpool_576.txt	LTP273	ltpFR2	4	17	FLIPPER	580	n/a	n/a	0	0	0
4335.582	n/a	WORD	2167791	wordpools/wasnorm_wordpool_576.txt	LTP273	ltpFR2	4	17	MAMMAL	861	n/a	n/a	0	0	0
4338.178	n/a	WORD	2169089	wordpools/wasnorm_wordpool_576.txt	LTP273	ltpFR2	4	17	OYSTER	995	n/a	n/a	0	0	0
4340.674	n/a	WORD	2170337	wordpools/wasnorm_wordpool_576.txt	LTP273	ltpFR2	4	17	JUDGE	761	n/a	n/a	0	0	0
4343.154	n/a	WORD	2171577	wordpools/wasnorm_wordpool_576.txt	LTP273	ltpFR2	4	17	GALLON	618	n/a	n/a	0	0	0
4345.616	n/a	WORD	2172808	wordpools/wasnorm_wordpool_576.txt	LTP273	ltpFR2	4	17	WIFE	1609	n/a	n/a	0	0	0
4348.18	n/a	WORD	2174090	wordpools/wasnorm_wordpool_576.txt	LTP273	ltpFR2	4	17	PUDDING	1139	n/a	n/a	0	0	0
4350.792	n/a	WORD	2175396	wordpools/wasnorm_wordpool_576.txt	LTP273	ltpFR2	4	17	GRAPE	654	n/a	n/a	0	0	0
4353.272	n/a	WORD	2176636	wordpools/wasnorm_wordpool_576.txt	LTP273	ltpFR2	4	17	BULLET	194	n/a	n/a	0	0	0
4355.734	n/a	WORD	2177867	wordpools/wasnorm_wordpool_576.txt	LTP273	ltpFR2	4	17	SPARROW	1347	n/a	n/a	0	0	0
4358.38	n/a	WORD	2179190	wordpools/wasnorm_wordpool_576.txt	LTP273	ltpFR2	4	17	FILM	565	n/a	n/a	0	0	0
4360.994	n/a	WORD	2180497	wordpools/wasnorm_wordpool_576.txt	LTP273	ltpFR2	4	17	GAVEL	627	n/a	n/a	0	0	0
4363.672	n/a	WORD	2181836	wordpools/wasnorm_wordpool_576.txt	LTP273	ltpFR2	4	17	RIFLE	1192	n/a	n/a	0	0	0
4366.368	n/a	WORD	2183184	wordpools/wasnorm_wordpool_576.txt	LTP273	ltpFR2	4	17	ACTRESS	6	n/a	n/a	0	0	0
4369.164	n/a	WORD	2184582	wordpools/wasnorm_wordpool_576.txt	LTP273	ltpFR2	4	17	SPOOL	1356	n/a	n/a	0	0	0
4370.78	n/a	START	2185390	n/a	LTP273	ltpFR2	4	n/a	n/a	n/a	26	n/a	n/a	n/a	n/a
4371.772	n/a	DISTRACTOR	2185886	n/a	LTP273	ltpFR2	4	17	n/a	n/a	n/a	n/a	0	0	0
4371.778	n/a	PROB	2185889	n/a	LTP273	ltpFR2	4	n/a	n/a	n/a	26	10	7	2	1
4373.208	n/a	PROB	2186604	n/a	LTP273	ltpFR2	4	n/a	n/a	n/a	26	13	1	8	4
4375.222	n/a	PROB	2187611	n/a	LTP273	ltpFR2	4	n/a	n/a	n/a	26	13	6	5	2
4377.736	n/a	PROB	2188868	n/a	LTP273	ltpFR2	4	n/a	n/a	n/a	26	5	1	2	2
4378.718	n/a	PROB	2189359	n/a	LTP273	ltpFR2	4	n/a	n/a	n/a	26	15	7	4	4
4380.398	n/a	PROB	2190199	n/a	LTP273	ltpFR2	4	n/a	n/a	n/a	26	5	1	2	2
4381.398	n/a	PROB	2190699	n/a	LTP273	ltpFR2	4	n/a	n/a	n/a	26	21	9	6	6
4383.028	n/a	PROB	2191514	n/a	LTP273	ltpFR2	4	n/a	n/a	n/a	26	20	4	9	7
4384.676	n/a	PROB	2192338	n/a	LTP273	ltpFR2	4	n/a	n/a	n/a	26	9	6	2	1
4386.89	n/a	PROB	2193445	n/a	LTP273	ltpFR2	4	n/a	n/a	n/a	26	16	9	5	2
4389.12	n/a	PROB	2194560	n/a	LTP273	ltpFR2	4	n/a	n/a	n/a	26	12	1	4	7
4390.716	n/a	PROB	2195358	n/a	LTP273	ltpFR2	4	n/a	n/a	n/a	26	20	4	9	7
4392.58	n/a	PROB	2196290	n/a	LTP273	ltpFR2	4	n/a	n/a	n/a	26	20	9	3	8
4394.188	n/a	STOP	2197094	n/a	LTP273	ltpFR2	4	n/a	n/a	n/a	26	n/a	n/a	n/a	n/a
4396.708	n/a	REC_START	2198354	n/a	LTP273	ltpFR2	4	17	n/a	n/a	n/a	n/a	0	0	0
4397.278	n/a	REC_WORD	2198639	wordpools/wasnorm_wordpool_576.txt	LTP273	ltpFR2	4	17	GAVEL	627	n/a	n/a	0	0	0
4397.82	n/a	REC_WORD	2198910	wordpools/wasnorm_wordpool_576.txt	LTP273	ltpFR2	4	17	SWIMMER	1420	n/a	n/a	0	0	0
4400.286	n/a	REC_WORD	2200143	wordpools/wasnorm_wordpool_576.txt	LTP273	ltpFR2	4	17	FLIPPER	580	n/a	n/a	0	0	0
4401.714	n/a	REC_WORD	2200857	wordpools/wasnorm_wordpool_576.txt	LTP273	ltpFR2	4	17	PATTERN	-1	n/a	n/a	0	0	0
4404.288	n/a	REC_WORD	2202144	wordpools/wasnorm_wordpool_576.txt	LTP273	ltpFR2	4	17	FRANCE	601	n/a	n/a	0	0	0
4405.956	n/a	REC_WORD	2202978	wordpools/wasnorm_wordpool_576.txt	LTP273	ltpFR2	4	17	WIFE	1609	n/a	n/a	0	0	0
4409.794	n/a	REC_WORD	2204897	wordpools/wasnorm_wordpool_576.txt	LTP273	ltpFR2	4	17	DIVER	476	n/a	n/a	0	0	0
4487.374	n/a	WORD	2243687	wordpools/wasnorm_wordpool_576.txt	LTP273	ltpFR2	4	18	BRANCH	168	n/a	n/a	0	0	0
4490.036	n/a	WORD	2245018	wordpools/wasnorm_wordpool_576.txt	LTP273	ltpFR2	4	18	MAPLE	866	n/a	n/a	0	0	0
4492.484	n/a	WORD	2246242	wordpools/wasnorm_wordpool_576.txt	LTP273	ltpFR2	4	18	CHEMIST	292	n/a	n/a	0	0	0
4494.996	n/a	WORD	2247498	wordpools/wasnorm_wordpool_576.txt	LTP273	ltpFR2	4	18	AIRPLANE	12	n/a	n/a	0	0	0
4497.608	n/a	WORD	2248804	wordpools/wasnorm_wordpool_576.txt	LTP273	ltpFR2	4	18	PRINCESS	1125	n/a	n/a	0	0	0
4500.054	n/a	WORD	2250027	wordpools/wasnorm_wordpool_576.txt	LTP273	ltpFR2	4	18	VICTIM	1562	n/a	n/a	0	0	0
4502.718	n/a	WORD	2251359	wordpools/wasnorm_wordpool_576.txt	LTP273	ltpFR2	4	18	POSTAGE	1113	n/a	n/a	0	0	0
4505.464	n/a	WORD	2252732	wordpools/wasnorm_wordpool_576.txt	LTP273	ltpFR2	4	18	GLASS	639	n/a	n/a	0	0	0
4507.91	n/a	WORD	2253955	wordpools/wasnorm_wordpool_576.txt	LTP273	ltpFR2	4	18	HATCHET	691	n/a	n/a	0	0	0
4510.706	n/a	WORD	2255353	wordpools/wasnorm_wordpool_576.txt	LTP273	ltpFR2	4	18	PERFUME	1049	n/a	n/a	0	0	0
4513.518	n/a	WORD	2256759	wordpools/wasnorm_wordpool_576.txt	LTP273	ltpFR2	4	18	OX	994	n/a	n/a	0	0	0
4516.066	n/a	WORD	2258033	wordpools/wasnorm_wordpool_576.txt	LTP273	ltpFR2	4	18	FOX	598	n/a	n/a	0	0	0
4518.712	n/a	WORD	2259356	wordpools/wasnorm_wordpool_576.txt	LTP273	ltpFR2	4	18	GARLIC	624	n/a	n/a	0	0	0
4521.524	n/a	WORD	2260762	wordpools/wasnorm_wordpool_576.txt	LTP273	ltpFR2	4	18	PUPPY	1144	n/a	n/a	0	0	0
4524.104	n/a	WORD	2262052	wordpools/wasnorm_wordpool_576.txt	LTP273	ltpFR2	4	18	TABLE	1426	n/a	n/a	0	0	0
4526.716	n/a	WORD	2263358	wordpools/wasnorm_wordpool_576.txt	LTP273	ltpFR2	4	18	BLACKBOARD	133	n/a	n/a	0	0	0
4529.378	n/a	WORD	2264689	wordpools/wasnorm_wordpool_576.txt	LTP273	ltpFR2	4	18	FRAGRANCE	599	n/a	n/a	0	0	0
4531.942	n/a	WORD	2265971	wordpools/wasnorm_wordpool_576.txt	LTP273	ltpFR2	4	18	WITNESS	1618	n/a	n/a	0	0	0
4534.704	n/a	WORD	2267352	wordpools/wasnorm_wordpool_576.txt	LTP273	ltpFR2	4	18	BIKE	125	n/a	n/a	0	0	0
4537.366	n/a	WORD	2268683	wordpools/wasnorm_wordpool_576.txt	LTP273	ltpFR2	4	18	COUCH	386	n/a	n/a	0	0	0
4540.146	n/a	WORD	2270073	wordpools/wasnorm_wordpool_576.txt	LTP273	ltpFR2	4	18	JURY	766	n/a	n/a	0	0	0
4542.658	n/a	WORD	2271329	wordpools/wasnorm_wordpool_576.txt	LTP273	ltpFR2	4	18	DAISY	435	n/a	n/a	0	0	0
4545.188	n/a	WORD	2272594	wordpools/wasnorm_wordpool_576.txt	LTP273	ltpFR2	4	18	ARMY	39	n/a	n/a	0	0	0
4547.684	n/a	WORD	2273842	wordpools/wasnorm_wordpool_576.txt	LTP273	ltpFR2	4	18	COLONEL	348	n/a	n/a	0	0	0
4549.3	n/a	START	2274650	n/a	LTP273	ltpFR2	4	n/a	n/a	n/a	27	n/a	n/a	n/a	n/a
4550.394	n/a	DISTRACTOR	2275197	n/a	LTP273	ltpFR2	4	18	n/a	n/a	n/a	n/a	0	0	0
4550.398	n/a	PROB	2275199	n/a	LTP273	ltpFR2	4	n/a	n/a	n/a	27	14	9	4	1
4556.538	n/a	PROB	2278269	n/a	LTP273	ltpFR2	4	n/a	n/a	n/a	27	7	3	3	1
4557.586	n/a	PROB	2278793	n/a	LTP273	ltpFR2	4	n/a	n/a	n/a	27	22	8	9	4
4559.8	n/a	PROB	2279900	n/a	LTP273	ltpFR2	4	n/a	n/a	n/a	27	12	7	2	3
4562.746	n/a	PROB	2281373	n/a	LTP273	ltpFR2	4	n/a	n/a	n/a	27	15	3	5	7
4565.176	n/a	PROB	2282588	n/a	LTP273	ltpFR2	4	n/a	n/a	n/a	27	8	1	1	6
4566.19	n/a	PROB	2283095	n/a	LTP273	ltpFR2	4	n/a	n/a	n/a	27	16	7	7	2
4567.322	n/a	PROB	2283661	n/a	LTP273	ltpFR2	4	n/a	n/a	n/a	27	17	1	9	7
4569.102	n/a	PROB	2284551	n/a	LTP273	ltpFR2	4	n/a	n/a	n/a	27	17	2	9	7
4570.234	n/a	PROB	2285117	n/a	LTP273	ltpFR2	4	n/a	n/a	n/a	27	11	1	2	8
4572.71	n/a	STOP	2286355	n/a	LTP273	ltpFR2	4	n/a	n/a	n/a	27	n/a	n/a	n/a	n/a
4575.128	n/a	REC_START	2287564	n/a	LTP273	ltpFR2	4	18	n/a	n/a	n/a	n/a	0	0	0
4578.766	n/a	REC_WORD	2289383	wordpools/wasnorm_wordpool_576.txt	LTP273	ltpFR2	4	18	JERSEY	-1	n/a	n/a	0	0	0
4579.334	n/a	REC_WORD	2289667	wordpools/wasnorm_wordpool_576.txt	LTP273	ltpFR2	4	18	PRINCESS	1125	n/a	n/a	0	0	0
4580.088	n/a	REC_WORD	2290044	wordpools/wasnorm_wordpool_576.txt	LTP273	ltpFR2	4	18	AIRPLANE	12	n/a	n/a	0	0	0
4580.736	n/a	REC_WORD	2290368	wordpools/wasnorm_wordpool_576.txt	LTP273	ltpFR2	4	18	VICTIM	1562	n/a	n/a	0	0	0
4582.304	n/a	REC_WORD	2291152	wordpools/wasnorm_wordpool_576.txt	LTP273	ltpFR2	4	18	GLASS	639	n/a	n/a	0	0	0
4584.37	n/a	REC_WORD	2292185	wordpools/wasnorm_wordpool_576.txt	LTP273	ltpFR2	4	18	POSTAGE	1113	n/a	n/a	0	0	0
4665.794	n/a	WORD	2332897	wordpools/wasnorm_wordpool_576.txt	LTP273	ltpFR2	4	19	THRONE	1461	n/a	n/a	0	0	0
4668.274	n/a	WORD	2334137	wordpools/wasnorm_wordpool_576.txt	LTP273	ltpFR2	4	19	DRINK	498	n/a	n/a	0	0	0
4670.786	n/a	WORD	2335393	wordpools/wasnorm_wordpool_576.txt	LTP273	ltpFR2	4	19	SADDLE	1221	n/a	n/a	0	0	0
4673.416	n/a	WORD	2336708	wordpools/wasnorm_wordpool_576.txt	LTP273	ltpFR2	4	19	ROOSTER	1209	n/a	n/a	0	0	0
4675.928	n/a	WORD	2337964	wordpools/wasnorm_wordpool_576.txt	LTP273	ltpFR2	4	19	BROTHER	179	n/a	n/a	0	0	0
4678.508	n/a	WORD	2339254	wordpools/wasnorm_wordpool_576.txt	LTP273	ltpFR2	4	19	MARINE	869	n/a	n/a	0	0	0
4681.004	n/a	WORD	2340502	wordpools/wasnorm_wordpool_576.txt	LTP273	ltpFR2	4	19	EXPERT	543	n/a	n/a	0	0	0
4683.452	n/a	WORD	2341726	wordpools/wasnorm_wordpool_576.txt	LTP273	ltpFR2	4	19	FOOT	590	n/a	n/a	0	0	0
4686.246	n/a	WORD	2343123	wordpools/wasnorm_wordpool_576.txt	LTP273	ltpFR2	4	19	GLOVE	642	n/a	n/a	0	0	0
4688.71	n/a	WORD	2344355	wordpools/wasnorm_wordpool_576.txt	LTP273	ltpFR2	4	19	BLUEPRINT	142	n/a	n/a	0	0	0
4691.206	n/a	WORD	2345603	wordpools/wasnorm_wordpool_576.txt	LTP273	ltpFR2	4	19	SUBWAY	1400	n/a	n/a	0	0	0
4693.934	n/a	WORD	2346967	wordpools/wasnorm_wordpool_576.txt	LTP273	ltpFR2	4	19	WAGON	1578	n/a	n/a	0	0	0
4696.432	n/a	WORD	2348216	wordpools/wasnorm_wordpool_576.txt	LTP273	ltpFR2	4	19	PLAYGROUND	1087	n/a	n/a	0	0	0
4699.044	n/a	WORD	2349522	wordpools/wasnorm_wordpool_576.txt	LTP273	ltpFR2	4	19	XEROX	1628	n/a	n/a	0	0	0
4701.506	n/a	WORD	2350753	wordpools/wasnorm_wordpool_576.txt	LTP273	ltpFR2	4	19	LOFT	840	n/a	n/a	0	0	0
4704.02	n/a	WORD	2352010	wordpools/wasnorm_wordpool_576.txt	LTP273	ltpFR2	4	19	FLASK	576	n/a	n/a	0	0	0
4706.468	n/a	WORD	2353234	wordpools/wasnorm_wordpool_576.txt	LTP273	ltpFR2	4	19	SANDWICH	1232	n/a	n/a	0	0	0
4709.112	n/a	WORD	2354556	wordpools/wasnorm_wordpool_576.txt	LTP273	ltpFR2	4	19	RABBIT	1152	n/a	n/a	0	0	0
4711.626	n/a	WORD	2355813	wordpools/wasnorm_wordpool_576.txt	LTP273	ltpFR2	4	19	HAWK	692	n/a	n/a	0	0	0
4714.456	n/a	WORD	2357228	wordpools/wasnorm_wordpool_576.txt	LTP273	ltpFR2	4	19	SEAGULL	1261	n/a	n/a	0	0	0
4716.968	n/a	WORD	2358484	wordpools/wasnorm_wordpool_576.txt	LTP273	ltpFR2	4	19	BREAST	171	n/a	n/a	0	0	0
4719.78	n/a	WORD	2359890	wordpools/wasnorm_wordpool_576.txt	LTP273	ltpFR2	4	19	BUBBLE	183	n/a	n/a	0	0	0
4722.46	n/a	WORD	2361230	wordpools/wasnorm_wordpool_576.txt	LTP273	ltpFR2	4	19	PEPPER	1047	n/a	n/a	0	0	0
4725.14	n/a	WORD	2362570	wordpools/wasnorm_wordpool_576.txt	LTP273	ltpFR2	4	19	SERVANT	1271	n/a	n/a	0	0	0
4726.754	n/a	START	2363377	n/a	LTP273	ltpFR2	4	n/a	n/a	n/a	28	n/a	n/a	n/a	n/a
4727.72	n/a	DISTRACTOR	2363860	n/a	LTP273	ltpFR2	4	19	n/a	n/a	n/a	n/a	0	0	0
4727.736	n/a	PROB	2363868	n/a	LTP273	ltpFR2	4	n/a	n/a	n/a	28	10	5	1	4
4729.266	n/a	PROB	2364633	n/a	LTP273	ltpFR2	4	n/a	n/a	n/a	28	13	4	2	7
4732.062	n/a	PROB	2366031	n/a	LTP273	ltpFR2	4	n/a	n/a	n/a	28	10	4	3	3
4733.926	n/a	PROB	2366963	n/a	LTP273	ltpFR2	4	n/a	n/a	n/a	28	15	9	2	4
4735.94	n/a	PROB	2367970	n/a	LTP273	ltpFR2	4	n/a	n/a	n/a	28	22	8	8	7
4738.27	n/a	PROB	2369135	n/a	LTP273	ltpFR2	4	n/a	n/a	n/a	28	18	8	6	4
4739.552	n/a	PROB	2369776	n/a	LTP273	ltpFR2	4	n/a	n/a	n/a	28	13	3	4	6
4741.398	n/a	PROB	2370699	n/a	LTP273	ltpFR2	4	n/a	n/a	n/a	28	20	9	2	9
4743.396	n/a	PROB	2371698	n/a	LTP273	ltpFR2	4	n/a	n/a	n/a	28	21	7	7	7
4744.51	n/a	PROB	2372255	n/a	LTP273	ltpFR2	4	n/a	n/a	n/a	28	16	4	7	5
4746.524	n/a	PROB	2373262	n/a	LTP273	ltpFR2	4	n/a	n/a	n/a	28	24	8	9	9
4749.546	n/a	STOP	2374773	n/a	LTP273	ltpFR2	4	n/a	n/a	n/a	28	n/a	n/a	n/a	n/a
4752.666	n/a	REC_START	2376333	n/a	LTP273	ltpFR2	4	19	n/a	n/a	n/a	n/a	0	0	0
4753.112	n/a	REC_WORD	2376556	wordpools/wasnorm_wordpool_576.txt	LTP273	ltpFR2	4	19	SERVANT	1271	n/a	n/a	0	0	0
4753.982	n/a	REC_WORD	2376991	wordpools/wasnorm_wordpool_576.txt	LTP273	ltpFR2	4	19	BUBBLE	183	n/a	n/a	0	0	0
4754.582	n/a	REC_WORD	2377291	wordpools/wasnorm_wordpool_576.txt	LTP273	ltpFR2	4	19	WAGON	1578	n/a	n/a	0	0	0
