onset	duration	trial_type	sample	stim_file	subject	experiment	session	trial	task	item_name	item_num	recog_resp	recog_conf	resp	answer	test_x	test_y	test_z	color_r	color_g	color_b	case	font
408.324	n/a	SESS_START	204162	n/a	LTP240	ltpFR	10	n/a	n/a	n/a	n/a	0	n/a	n/a	n/a	0	0	0	n/a	n/a	n/a	n/a	n/a
447.154	n/a	START	223577	n/a	LTP240	ltpFR	10	n/a	n/a	n/a	n/a	n/a	n/a	n/a	n/a	n/a	n/a	n/a	n/a	n/a	n/a	n/a	n/a
447.208	n/a	PROB	223604	n/a	LTP240	ltpFR	10	n/a	n/a	n/a	n/a	n/a	n/a	n/a	14	3	8	3	n/a	n/a	n/a	n/a	n/a
450.938	n/a	PROB	225469	n/a	LTP240	ltpFR	10	n/a	n/a	n/a	n/a	n/a	n/a	n/a	11	8	2	1	n/a	n/a	n/a	n/a	n/a
452.712	n/a	PROB	226356	n/a	LTP240	ltpFR	10	n/a	n/a	n/a	n/a	n/a	n/a	n/a	13	5	7	1	n/a	n/a	n/a	n/a	n/a
455.272	n/a	PROB	227636	n/a	LTP240	ltpFR	10	n/a	n/a	n/a	n/a	n/a	n/a	n/a	15	4	5	6	n/a	n/a	n/a	n/a	n/a
456.744	n/a	PROB	228372	n/a	LTP240	ltpFR	10	n/a	n/a	n/a	n/a	n/a	n/a	n/a	18	5	6	7	n/a	n/a	n/a	n/a	n/a
461.662	n/a	PROB	230831	n/a	LTP240	ltpFR	10	n/a	n/a	n/a	n/a	n/a	n/a	n/a	10	1	5	4	n/a	n/a	n/a	n/a	n/a
463.304	n/a	PROB	231652	n/a	LTP240	ltpFR	10	n/a	n/a	n/a	n/a	n/a	n/a	n/a	9	1	4	4	n/a	n/a	n/a	n/a	n/a
464.958	n/a	PROB	232479	n/a	LTP240	ltpFR	10	n/a	n/a	n/a	n/a	n/a	n/a	n/a	12	9	2	1	n/a	n/a	n/a	n/a	n/a
466.492	n/a	STOP	233246	n/a	LTP240	ltpFR	10	n/a	n/a	n/a	n/a	n/a	n/a	n/a	n/a	n/a	n/a	n/a	n/a	n/a	n/a	n/a	n/a
516.222	n/a	WORD	258111	wordpools/wasnorm_wordpool_less_exclusions.txt	LTP240	ltpFR	10	1	0	FEATHER	557	n/a	n/a	0	n/a	0	0	0	0.57763671875	0.412841796875	1	upper	amplitud.ttf
520.138	n/a	WORD	260069	wordpools/wasnorm_wordpool_less_exclusions.txt	LTP240	ltpFR	10	1	0	SPARROW	1347	n/a	n/a	0	n/a	0	0	0	0.57763671875	0.412841796875	1	upper	amplitud.ttf
524.252	n/a	WORD	262126	wordpools/wasnorm_wordpool_less_exclusions.txt	LTP240	ltpFR	10	1	0	ROOT	1210	n/a	n/a	0	n/a	0	0	0	0.57763671875	0.412841796875	1	upper	amplitud.ttf
528.418	n/a	WORD	264209	wordpools/wasnorm_wordpool_less_exclusions.txt	LTP240	ltpFR	10	1	0	PUBLISHER	1137	n/a	n/a	1	n/a	0	0	0	0.57763671875	0.412841796875	1	upper	amplitud.ttf
532.55	n/a	WORD	266275	wordpools/wasnorm_wordpool_less_exclusions.txt	LTP240	ltpFR	10	1	0	CLOSET	326	n/a	n/a	1	n/a	0	0	0	0.57763671875	0.412841796875	1	upper	amplitud.ttf
536.444	n/a	WORD	268222	wordpools/wasnorm_wordpool_less_exclusions.txt	LTP240	ltpFR	10	1	1	SEED	1266	n/a	n/a	0	n/a	0	0	0	0.422607421875	0.5869140625	0	lower	zerothre.ttf
540.382	n/a	WORD	270191	wordpools/wasnorm_wordpool_less_exclusions.txt	LTP240	ltpFR	10	1	1	CAGE	218	n/a	n/a	0	n/a	0	0	0	0.422607421875	0.5869140625	0	lower	zerothre.ttf
544.296	n/a	WORD	272148	wordpools/wasnorm_wordpool_less_exclusions.txt	LTP240	ltpFR	10	1	1	PERSON	1052	n/a	n/a	1	n/a	0	0	0	0.422607421875	0.5869140625	0	lower	zerothre.ttf
548.442	n/a	WORD	274221	wordpools/wasnorm_wordpool_less_exclusions.txt	LTP240	ltpFR	10	1	1	SPONGE	1355	n/a	n/a	0	n/a	0	0	0	0.422607421875	0.5869140625	0	lower	zerothre.ttf
552.51	n/a	WORD	276255	wordpools/wasnorm_wordpool_less_exclusions.txt	LTP240	ltpFR	10	1	1	PIER	1063	n/a	n/a	0	n/a	0	0	0	0.422607421875	0.5869140625	0	lower	zerothre.ttf
556.638	n/a	WORD	278319	wordpools/wasnorm_wordpool_less_exclusions.txt	LTP240	ltpFR	10	1	0	WORM	1623	n/a	n/a	0	n/a	0	0	0	0.57763671875	0.412841796875	1	upper	amplitud.ttf
560.492	n/a	WORD	280246	wordpools/wasnorm_wordpool_less_exclusions.txt	LTP240	ltpFR	10	1	0	FLEA	577	n/a	n/a	0	n/a	0	0	0	0.57763671875	0.412841796875	1	upper	amplitud.ttf
564.59	n/a	WORD	282295	wordpools/wasnorm_wordpool_less_exclusions.txt	LTP240	ltpFR	10	1	0	DAUGHTER	442	n/a	n/a	1	n/a	0	0	0	0.57763671875	0.412841796875	1	upper	amplitud.ttf
568.572	n/a	WORD	284286	wordpools/wasnorm_wordpool_less_exclusions.txt	LTP240	ltpFR	10	1	1	TWIN	1528	n/a	n/a	1	n/a	0	0	0	0.422607421875	0.5869140625	0	lower	zerothre.ttf
572.432	n/a	WORD	286216	wordpools/wasnorm_wordpool_less_exclusions.txt	LTP240	ltpFR	10	1	1	FOOTBALL	591	n/a	n/a	0	n/a	0	0	0	0.422607421875	0.5869140625	0	lower	zerothre.ttf
576.468	n/a	WORD	288234	wordpools/wasnorm_wordpool_less_exclusions.txt	LTP240	ltpFR	10	1	1	LAUNDRY	803	n/a	n/a	0	n/a	0	0	0	0.422607421875	0.5869140625	0	lower	zerothre.ttf
579.48	n/a	START	289740	n/a	LTP240	ltpFR	10	n/a	n/a	n/a	n/a	n/a	n/a	n/a	n/a	n/a	n/a	n/a	n/a	n/a	n/a	n/a	n/a
580.35	n/a	PROB	290175	n/a	LTP240	ltpFR	10	n/a	n/a	n/a	n/a	n/a	n/a	n/a	14	1	8	5	n/a	n/a	n/a	n/a	n/a
583.028	n/a	PROB	291514	n/a	LTP240	ltpFR	10	n/a	n/a	n/a	n/a	n/a	n/a	n/a	18	4	7	7	n/a	n/a	n/a	n/a	n/a
584.966	n/a	PROB	292483	n/a	LTP240	ltpFR	10	n/a	n/a	n/a	n/a	n/a	n/a	n/a	12	5	1	6	n/a	n/a	n/a	n/a	n/a
586.866	n/a	STOP	293433	n/a	LTP240	ltpFR	10	n/a	n/a	n/a	n/a	n/a	n/a	n/a	n/a	n/a	n/a	n/a	n/a	n/a	n/a	n/a	n/a
589.234	n/a	REC_START	294617	n/a	LTP240	ltpFR	10	1	n/a	n/a	n/a	n/a	n/a	n/a	n/a	0	0	0	n/a	n/a	n/a	n/a	n/a
590.856	n/a	REC_WORD	295428	wordpools/wasnorm_wordpool_less_exclusions.txt	LTP240	ltpFR	10	1	1	LAUNDRY	803	n/a	n/a	0	n/a	0	0	0	n/a	n/a	n/a	n/a	n/a
592.03	n/a	REC_WORD	296015	wordpools/wasnorm_wordpool_less_exclusions.txt	LTP240	ltpFR	10	1	1	FOOTBALL	591	n/a	n/a	0	n/a	0	0	0	n/a	n/a	n/a	n/a	n/a
593.62	n/a	REC_WORD	296810	wordpools/wasnorm_wordpool_less_exclusions.txt	LTP240	ltpFR	10	1	1	CAGE	218	n/a	n/a	0	n/a	0	0	0	n/a	n/a	n/a	n/a	n/a
594.522	n/a	REC_WORD	297261	wordpools/wasnorm_wordpool_less_exclusions.txt	LTP240	ltpFR	10	1	1	PERSON	1052	n/a	n/a	1	n/a	0	0	0	n/a	n/a	n/a	n/a	n/a
596.104	n/a	REC_WORD	298052	wordpools/wasnorm_wordpool_less_exclusions.txt	LTP240	ltpFR	10	1	1	TWIN	1528	n/a	n/a	1	n/a	0	0	0	n/a	n/a	n/a	n/a	n/a
597.142	n/a	REC_WORD	298571	wordpools/wasnorm_wordpool_less_exclusions.txt	LTP240	ltpFR	10	1	0	WORM	1623	n/a	n/a	0	n/a	0	0	0	n/a	n/a	n/a	n/a	n/a
598.4	n/a	REC_WORD	299200	wordpools/wasnorm_wordpool_less_exclusions.txt	LTP240	ltpFR	10	1	0	ROOT	1210	n/a	n/a	0	n/a	0	0	0	n/a	n/a	n/a	n/a	n/a
599.378	n/a	REC_WORD	299689	wordpools/wasnorm_wordpool_less_exclusions.txt	LTP240	ltpFR	10	1	0	SPARROW	1347	n/a	n/a	0	n/a	0	0	0	n/a	n/a	n/a	n/a	n/a
610.17	n/a	REC_WORD	305085	wordpools/wasnorm_wordpool_less_exclusions.txt	LTP240	ltpFR	10	1	0	FLEA	577	n/a	n/a	0	n/a	0	0	0	n/a	n/a	n/a	n/a	n/a
630.342	n/a	REC_WORD	315171	wordpools/wasnorm_wordpool_less_exclusions.txt	LTP240	ltpFR	10	1	1	CAGE	218	n/a	n/a	0	n/a	0	0	0	n/a	n/a	n/a	n/a	n/a
651.978	n/a	REC_WORD	325989	wordpools/wasnorm_wordpool_less_exclusions.txt	LTP240	ltpFR	10	1	0	FEATHER	557	n/a	n/a	0	n/a	0	0	0	n/a	n/a	n/a	n/a	n/a
672.57	n/a	START	336285	n/a	LTP240	ltpFR	10	n/a	n/a	n/a	n/a	n/a	n/a	n/a	n/a	n/a	n/a	n/a	n/a	n/a	n/a	n/a	n/a
674.076	n/a	PROB	337038	n/a	LTP240	ltpFR	10	n/a	n/a	n/a	n/a	n/a	n/a	n/a	9	6	1	2	n/a	n/a	n/a	n/a	n/a
676.334	n/a	PROB	338167	n/a	LTP240	ltpFR	10	n/a	n/a	n/a	n/a	n/a	n/a	n/a	14	2	9	3	n/a	n/a	n/a	n/a	n/a
678.742	n/a	PROB	339371	n/a	LTP240	ltpFR	10	n/a	n/a	n/a	n/a	n/a	n/a	n/a	12	9	2	1	n/a	n/a	n/a	n/a	n/a
680.016	n/a	STOP	340008	n/a	LTP240	ltpFR	10	n/a	n/a	n/a	n/a	n/a	n/a	n/a	n/a	n/a	n/a	n/a	n/a	n/a	n/a	n/a	n/a
681.47	n/a	WORD	340735	wordpools/wasnorm_wordpool_less_exclusions.txt	LTP240	ltpFR	10	2	1	NET	946	n/a	n/a	0	n/a	0	0	0	0.422607421875	0.5869140625	0	lower	zerothre.ttf
684.482	n/a	START	342241	n/a	LTP240	ltpFR	10	n/a	n/a	n/a	n/a	n/a	n/a	n/a	n/a	n/a	n/a	n/a	n/a	n/a	n/a	n/a	n/a
685.586	n/a	PROB	342793	n/a	LTP240	ltpFR	10	n/a	n/a	n/a	n/a	n/a	n/a	n/a	8	2	1	5	n/a	n/a	n/a	n/a	n/a
687.476	n/a	PROB	343738	n/a	LTP240	ltpFR	10	n/a	n/a	n/a	n/a	n/a	n/a	n/a	12	4	2	6	n/a	n/a	n/a	n/a	n/a
689.366	n/a	PROB	344683	n/a	LTP240	ltpFR	10	n/a	n/a	n/a	n/a	n/a	n/a	n/a	6	2	3	1	n/a	n/a	n/a	n/a	n/a
691.28	n/a	STOP	345640	n/a	LTP240	ltpFR	10	n/a	n/a	n/a	n/a	n/a	n/a	n/a	n/a	n/a	n/a	n/a	n/a	n/a	n/a	n/a	n/a
693.616	n/a	WORD	346808	wordpools/wasnorm_wordpool_less_exclusions.txt	LTP240	ltpFR	10	2	1	TANK	1432	n/a	n/a	0	n/a	0	0	0	0.422607421875	0.5869140625	0	lower	zerothre.ttf
696.628	n/a	START	348314	n/a	LTP240	ltpFR	10	n/a	n/a	n/a	n/a	n/a	n/a	n/a	n/a	n/a	n/a	n/a	n/a	n/a	n/a	n/a	n/a
697.482	n/a	PROB	348741	n/a	LTP240	ltpFR	10	n/a	n/a	n/a	n/a	n/a	n/a	n/a	18	6	9	3	n/a	n/a	n/a	n/a	n/a
699.518	n/a	PROB	349759	n/a	LTP240	ltpFR	10	n/a	n/a	n/a	n/a	n/a	n/a	n/a	16	5	9	2	n/a	n/a	n/a	n/a	n/a
701.76	n/a	PROB	350880	n/a	LTP240	ltpFR	10	n/a	n/a	n/a	n/a	n/a	n/a	n/a	18	8	2	8	n/a	n/a	n/a	n/a	n/a
704.152	n/a	STOP	352076	n/a	LTP240	ltpFR	10	n/a	n/a	n/a	n/a	n/a	n/a	n/a	n/a	n/a	n/a	n/a	n/a	n/a	n/a	n/a	n/a
705.528	n/a	WORD	352764	wordpools/wasnorm_wordpool_less_exclusions.txt	LTP240	ltpFR	10	2	1	NECK	939	n/a	n/a	0	n/a	0	0	0	0.422607421875	0.5869140625	0	lower	zerothre.ttf
708.54	n/a	START	354270	n/a	LTP240	ltpFR	10	n/a	n/a	n/a	n/a	n/a	n/a	n/a	n/a	n/a	n/a	n/a	n/a	n/a	n/a	n/a	n/a
709.36	n/a	PROB	354680	n/a	LTP240	ltpFR	10	n/a	n/a	n/a	n/a	n/a	n/a	n/a	6	1	3	2	n/a	n/a	n/a	n/a	n/a
711.402	n/a	PROB	355701	n/a	LTP240	ltpFR	10	n/a	n/a	n/a	n/a	n/a	n/a	n/a	10	5	4	1	n/a	n/a	n/a	n/a	n/a
713.89	n/a	PROB	356945	n/a	LTP240	ltpFR	10	n/a	n/a	n/a	n/a	n/a	n/a	n/a	14	5	1	8	n/a	n/a	n/a	n/a	n/a
716.282	n/a	STOP	358141	n/a	LTP240	ltpFR	10	n/a	n/a	n/a	n/a	n/a	n/a	n/a	n/a	n/a	n/a	n/a	n/a	n/a	n/a	n/a	n/a
717.624	n/a	WORD	358812	wordpools/wasnorm_wordpool_less_exclusions.txt	LTP240	ltpFR	10	2	1	BARRACUDA	90	n/a	n/a	1	n/a	0	0	0	0.422607421875	0.5869140625	0	lower	zerothre.ttf
720.636	n/a	START	360318	n/a	LTP240	ltpFR	10	n/a	n/a	n/a	n/a	n/a	n/a	n/a	n/a	n/a	n/a	n/a	n/a	n/a	n/a	n/a	n/a
721.686	n/a	PROB	360843	n/a	LTP240	ltpFR	10	n/a	n/a	n/a	n/a	n/a	n/a	n/a	15	7	2	6	n/a	n/a	n/a	n/a	n/a
725.116	n/a	PROB	362558	n/a	LTP240	ltpFR	10	n/a	n/a	n/a	n/a	n/a	n/a	n/a	9	1	3	5	n/a	n/a	n/a	n/a	n/a
728.636	n/a	STOP	364318	n/a	LTP240	ltpFR	10	n/a	n/a	n/a	n/a	n/a	n/a	n/a	n/a	n/a	n/a	n/a	n/a	n/a	n/a	n/a	n/a
729.82	n/a	WORD	364910	wordpools/wasnorm_wordpool_less_exclusions.txt	LTP240	ltpFR	10	2	0	BAIT	70	n/a	n/a	0	n/a	0	0	0	0.57763671875	0.412841796875	1	upper	amplitud.ttf
732.832	n/a	START	366416	n/a	LTP240	ltpFR	10	n/a	n/a	n/a	n/a	n/a	n/a	n/a	n/a	n/a	n/a	n/a	n/a	n/a	n/a	n/a	n/a
733.652	n/a	PROB	366826	n/a	LTP240	ltpFR	10	n/a	n/a	n/a	n/a	n/a	n/a	n/a	18	4	6	8	n/a	n/a	n/a	n/a	n/a
735.406	n/a	PROB	367703	n/a	LTP240	ltpFR	10	n/a	n/a	n/a	n/a	n/a	n/a	n/a	22	9	9	4	n/a	n/a	n/a	n/a	n/a
737.312	n/a	PROB	368656	n/a	LTP240	ltpFR	10	n/a	n/a	n/a	n/a	n/a	n/a	n/a	16	2	5	9	n/a	n/a	n/a	n/a	n/a
739.362	n/a	STOP	369681	n/a	LTP240	ltpFR	10	n/a	n/a	n/a	n/a	n/a	n/a	n/a	n/a	n/a	n/a	n/a	n/a	n/a	n/a	n/a	n/a
741.996	n/a	WORD	370998	wordpools/wasnorm_wordpool_less_exclusions.txt	LTP240	ltpFR	10	2	0	MAMMAL	861	n/a	n/a	1	n/a	0	0	0	0.57763671875	0.412841796875	1	upper	amplitud.ttf
745.012	n/a	START	372506	n/a	LTP240	ltpFR	10	n/a	n/a	n/a	n/a	n/a	n/a	n/a	n/a	n/a	n/a	n/a	n/a	n/a	n/a	n/a	n/a
746.2	n/a	PROB	373100	n/a	LTP240	ltpFR	10	n/a	n/a	n/a	n/a	n/a	n/a	n/a	14	5	7	2	n/a	n/a	n/a	n/a	n/a
748.506	n/a	PROB	374253	n/a	LTP240	ltpFR	10	n/a	n/a	n/a	n/a	n/a	n/a	n/a	15	7	3	3	n/a	n/a	n/a	n/a	n/a
751.81	n/a	STOP	375905	n/a	LTP240	ltpFR	10	n/a	n/a	n/a	n/a	n/a	n/a	n/a	n/a	n/a	n/a	n/a	n/a	n/a	n/a	n/a	n/a
754.182	n/a	WORD	377091	wordpools/wasnorm_wordpool_less_exclusions.txt	LTP240	ltpFR	10	2	0	GRATE	657	n/a	n/a	1	n/a	0	0	0	0.57763671875	0.412841796875	1	upper	amplitud.ttf
757.194	n/a	START	378597	n/a	LTP240	ltpFR	10	n/a	n/a	n/a	n/a	n/a	n/a	n/a	n/a	n/a	n/a	n/a	n/a	n/a	n/a	n/a	n/a
758.18	n/a	PROB	379090	n/a	LTP240	ltpFR	10	n/a	n/a	n/a	n/a	n/a	n/a	n/a	19	6	7	6	n/a	n/a	n/a	n/a	n/a
762.342	n/a	PROB	381171	n/a	LTP240	ltpFR	10	n/a	n/a	n/a	n/a	n/a	n/a	n/a	5	2	2	1	n/a	n/a	n/a	n/a	n/a
764.052	n/a	STOP	382026	n/a	LTP240	ltpFR	10	n/a	n/a	n/a	n/a	n/a	n/a	n/a	n/a	n/a	n/a	n/a	n/a	n/a	n/a	n/a	n/a
766.06	n/a	WORD	383030	wordpools/wasnorm_wordpool_less_exclusions.txt	LTP240	ltpFR	10	2	0	BELL	118	n/a	n/a	0	n/a	0	0	0	0.57763671875	0.412841796875	1	upper	amplitud.ttf
769.072	n/a	START	384536	n/a	LTP240	ltpFR	10	n/a	n/a	n/a	n/a	n/a	n/a	n/a	n/a	n/a	n/a	n/a	n/a	n/a	n/a	n/a	n/a
770.21	n/a	PROB	385105	n/a	LTP240	ltpFR	10	n/a	n/a	n/a	n/a	n/a	n/a	n/a	7	1	5	1	n/a	n/a	n/a	n/a	n/a
772.28	n/a	PROB	386140	n/a	LTP240	ltpFR	10	n/a	n/a	n/a	n/a	n/a	n/a	n/a	19	7	7	5	n/a	n/a	n/a	n/a	n/a
777.072	n/a	STOP	388536	n/a	LTP240	ltpFR	10	n/a	n/a	n/a	n/a	n/a	n/a	n/a	n/a	n/a	n/a	n/a	n/a	n/a	n/a	n/a	n/a
778.286	n/a	WORD	389143	wordpools/wasnorm_wordpool_less_exclusions.txt	LTP240	ltpFR	10	2	0	SURVEY	1414	n/a	n/a	1	n/a	0	0	0	0.57763671875	0.412841796875	1	upper	amplitud.ttf
781.302	n/a	START	390651	n/a	LTP240	ltpFR	10	n/a	n/a	n/a	n/a	n/a	n/a	n/a	n/a	n/a	n/a	n/a	n/a	n/a	n/a	n/a	n/a
782.288	n/a	PROB	391144	n/a	LTP240	ltpFR	10	n/a	n/a	n/a	n/a	n/a	n/a	n/a	8	2	3	3	n/a	n/a	n/a	n/a	n/a
784.392	n/a	PROB	392196	n/a	LTP240	ltpFR	10	n/a	n/a	n/a	n/a	n/a	n/a	n/a	16	7	8	1	n/a	n/a	n/a	n/a	n/a
789.302	n/a	STOP	394651	n/a	LTP240	ltpFR	10	n/a	n/a	n/a	n/a	n/a	n/a	n/a	n/a	n/a	n/a	n/a	n/a	n/a	n/a	n/a	n/a
790.366	n/a	WORD	395183	wordpools/wasnorm_wordpool_less_exclusions.txt	LTP240	ltpFR	10	2	1	REFRIGERATOR	1179	n/a	n/a	0	n/a	0	0	0	0.422607421875	0.5869140625	0	lower	zerothre.ttf
793.382	n/a	START	396691	n/a	LTP240	ltpFR	10	n/a	n/a	n/a	n/a	n/a	n/a	n/a	n/a	n/a	n/a	n/a	n/a	n/a	n/a	n/a	n/a
794.568	n/a	PROB	397284	n/a	LTP240	ltpFR	10	n/a	n/a	n/a	n/a	n/a	n/a	n/a	19	4	6	9	n/a	n/a	n/a	n/a	n/a
796.008	n/a	PROB	398004	n/a	LTP240	ltpFR	10	n/a	n/a	n/a	n/a	n/a	n/a	n/a	12	5	6	1	n/a	n/a	n/a	n/a	n/a
798.082	n/a	PROB	399041	n/a	LTP240	ltpFR	10	n/a	n/a	n/a	n/a	n/a	n/a	n/a	16	7	4	5	n/a	n/a	n/a	n/a	n/a
800.246	n/a	STOP	400123	n/a	LTP240	ltpFR	10	n/a	n/a	n/a	n/a	n/a	n/a	n/a	n/a	n/a	n/a	n/a	n/a	n/a	n/a	n/a	n/a
802.528	n/a	WORD	401264	wordpools/wasnorm_wordpool_less_exclusions.txt	LTP240	ltpFR	10	2	1	RADISH	1158	n/a	n/a	0	n/a	0	0	0	0.422607421875	0.5869140625	0	lower	zerothre.ttf
805.544	n/a	START	402772	n/a	LTP240	ltpFR	10	n/a	n/a	n/a	n/a	n/a	n/a	n/a	n/a	n/a	n/a	n/a	n/a	n/a	n/a	n/a	n/a
806.364	n/a	PROB	403182	n/a	LTP240	ltpFR	10	n/a	n/a	n/a	n/a	n/a	n/a	n/a	18	5	7	6	n/a	n/a	n/a	n/a	n/a
813.544	n/a	STOP	406772	n/a	LTP240	ltpFR	10	n/a	n/a	n/a	n/a	n/a	n/a	n/a	n/a	n/a	n/a	n/a	n/a	n/a	n/a	n/a	n/a
814.592	n/a	WORD	407296	wordpools/wasnorm_wordpool_less_exclusions.txt	LTP240	ltpFR	10	2	1	LAKE	796	n/a	n/a	0	n/a	0	0	0	0.422607421875	0.5869140625	0	lower	zerothre.ttf
817.606	n/a	START	408803	n/a	LTP240	ltpFR	10	n/a	n/a	n/a	n/a	n/a	n/a	n/a	n/a	n/a	n/a	n/a	n/a	n/a	n/a	n/a	n/a
818.728	n/a	PROB	409364	n/a	LTP240	ltpFR	10	n/a	n/a	n/a	n/a	n/a	n/a	n/a	14	1	6	7	n/a	n/a	n/a	n/a	n/a
820.28	n/a	PROB	410140	n/a	LTP240	ltpFR	10	n/a	n/a	n/a	n/a	n/a	n/a	n/a	16	3	5	8	n/a	n/a	n/a	n/a	n/a
823.058	n/a	PROB	411529	n/a	LTP240	ltpFR	10	n/a	n/a	n/a	n/a	n/a	n/a	n/a	14	2	8	4	n/a	n/a	n/a	n/a	n/a
825.488	n/a	STOP	412744	n/a	LTP240	ltpFR	10	n/a	n/a	n/a	n/a	n/a	n/a	n/a	n/a	n/a	n/a	n/a	n/a	n/a	n/a	n/a	n/a
826.608	n/a	WORD	413304	wordpools/wasnorm_wordpool_less_exclusions.txt	LTP240	ltpFR	10	2	1	BEETLE	116	n/a	n/a	1	n/a	0	0	0	0.422607421875	0.5869140625	0	lower	zerothre.ttf
829.62	n/a	START	414810	n/a	LTP240	ltpFR	10	n/a	n/a	n/a	n/a	n/a	n/a	n/a	n/a	n/a	n/a	n/a	n/a	n/a	n/a	n/a	n/a
830.506	n/a	PROB	415253	n/a	LTP240	ltpFR	10	n/a	n/a	n/a	n/a	n/a	n/a	n/a	23	8	9	6	n/a	n/a	n/a	n/a	n/a
834.5	n/a	PROB	417250	n/a	LTP240	ltpFR	10	n/a	n/a	n/a	n/a	n/a	n/a	n/a	13	2	3	8	n/a	n/a	n/a	n/a	n/a
837.472	n/a	STOP	418736	n/a	LTP240	ltpFR	10	n/a	n/a	n/a	n/a	n/a	n/a	n/a	n/a	n/a	n/a	n/a	n/a	n/a	n/a	n/a	n/a
838.47	n/a	WORD	419235	wordpools/wasnorm_wordpool_less_exclusions.txt	LTP240	ltpFR	10	2	0	SALMON	1227	n/a	n/a	1	n/a	0	0	0	0.57763671875	0.412841796875	1	upper	amplitud.ttf
841.482	n/a	START	420741	n/a	LTP240	ltpFR	10	n/a	n/a	n/a	n/a	n/a	n/a	n/a	n/a	n/a	n/a	n/a	n/a	n/a	n/a	n/a	n/a
842.652	n/a	PROB	421326	n/a	LTP240	ltpFR	10	n/a	n/a	n/a	n/a	n/a	n/a	n/a	15	3	7	5	n/a	n/a	n/a	n/a	n/a
844.042	n/a	PROB	422021	n/a	LTP240	ltpFR	10	n/a	n/a	n/a	n/a	n/a	n/a	n/a	15	9	5	1	n/a	n/a	n/a	n/a	n/a
845.262	n/a	PROB	422631	n/a	LTP240	ltpFR	10	n/a	n/a	n/a	n/a	n/a	n/a	n/a	11	6	4	1	n/a	n/a	n/a	n/a	n/a
849.482	n/a	STOP	424741	n/a	LTP240	ltpFR	10	n/a	n/a	n/a	n/a	n/a	n/a	n/a	n/a	n/a	n/a	n/a	n/a	n/a	n/a	n/a	n/a
850.6	n/a	WORD	425300	wordpools/wasnorm_wordpool_less_exclusions.txt	LTP240	ltpFR	10	2	0	RIBBON	1189	n/a	n/a	0	n/a	0	0	0	0.57763671875	0.412841796875	1	upper	amplitud.ttf
853.612	n/a	START	426806	n/a	LTP240	ltpFR	10	n/a	n/a	n/a	n/a	n/a	n/a	n/a	n/a	n/a	n/a	n/a	n/a	n/a	n/a	n/a	n/a
854.81	n/a	PROB	427405	n/a	LTP240	ltpFR	10	n/a	n/a	n/a	n/a	n/a	n/a	n/a	10	1	1	8	n/a	n/a	n/a	n/a	n/a
856.468	n/a	PROB	428234	n/a	LTP240	ltpFR	10	n/a	n/a	n/a	n/a	n/a	n/a	n/a	17	8	1	8	n/a	n/a	n/a	n/a	n/a
861.612	n/a	STOP	430806	n/a	LTP240	ltpFR	10	n/a	n/a	n/a	n/a	n/a	n/a	n/a	n/a	n/a	n/a	n/a	n/a	n/a	n/a	n/a	n/a
862.512	n/a	WORD	431256	wordpools/wasnorm_wordpool_less_exclusions.txt	LTP240	ltpFR	10	2	0	MOTH	920	n/a	n/a	0	n/a	0	0	0	0.57763671875	0.412841796875	1	upper	amplitud.ttf
865.524	n/a	START	432762	n/a	LTP240	ltpFR	10	n/a	n/a	n/a	n/a	n/a	n/a	n/a	n/a	n/a	n/a	n/a	n/a	n/a	n/a	n/a	n/a
866.51	n/a	PROB	433255	n/a	LTP240	ltpFR	10	n/a	n/a	n/a	n/a	n/a	n/a	n/a	22	9	6	7	n/a	n/a	n/a	n/a	n/a
869.686	n/a	PROB	434843	n/a	LTP240	ltpFR	10	n/a	n/a	n/a	n/a	n/a	n/a	n/a	17	7	1	9	n/a	n/a	n/a	n/a	n/a
871.426	n/a	PROB	435713	n/a	LTP240	ltpFR	10	n/a	n/a	n/a	n/a	n/a	n/a	n/a	11	6	4	1	n/a	n/a	n/a	n/a	n/a
872.61	n/a	STOP	436305	n/a	LTP240	ltpFR	10	n/a	n/a	n/a	n/a	n/a	n/a	n/a	n/a	n/a	n/a	n/a	n/a	n/a	n/a	n/a	n/a
875.344	n/a	REC_START	437672	n/a	LTP240	ltpFR	10	2	n/a	n/a	n/a	n/a	n/a	n/a	n/a	0	0	0	n/a	n/a	n/a	n/a	n/a
878.358	n/a	REC_WORD	439179	wordpools/wasnorm_wordpool_less_exclusions.txt	LTP240	ltpFR	10	2	0	RIBBON	1189	n/a	n/a	0	n/a	0	0	0	n/a	n/a	n/a	n/a	n/a
879.454	n/a	REC_WORD	439727	wordpools/wasnorm_wordpool_less_exclusions.txt	LTP240	ltpFR	10	2	0	SALMON	1227	n/a	n/a	1	n/a	0	0	0	n/a	n/a	n/a	n/a	n/a
882.654	n/a	REC_WORD	441327	wordpools/wasnorm_wordpool_less_exclusions.txt	LTP240	ltpFR	10	2	0	BAIT	70	n/a	n/a	0	n/a	0	0	0	n/a	n/a	n/a	n/a	n/a
885.252	n/a	REC_WORD	442626	wordpools/wasnorm_wordpool_less_exclusions.txt	LTP240	ltpFR	10	2	0	MOTH	920	n/a	n/a	0	n/a	0	0	0	n/a	n/a	n/a	n/a	n/a
888.27	n/a	REC_WORD	444135	wordpools/wasnorm_wordpool_less_exclusions.txt	LTP240	ltpFR	10	2	1	BARRACUDA	90	n/a	n/a	1	n/a	0	0	0	n/a	n/a	n/a	n/a	n/a
890.974	n/a	REC_WORD	445487	wordpools/wasnorm_wordpool_less_exclusions.txt	LTP240	ltpFR	10	2	1	NECK	939	n/a	n/a	0	n/a	0	0	0	n/a	n/a	n/a	n/a	n/a
892.986	n/a	REC_WORD	446493	wordpools/wasnorm_wordpool_less_exclusions.txt	LTP240	ltpFR	10	2	1	REFRIGERATOR	1179	n/a	n/a	0	n/a	0	0	0	n/a	n/a	n/a	n/a	n/a
899.028	n/a	REC_WORD	449514	wordpools/wasnorm_wordpool_less_exclusions.txt	LTP240	ltpFR	10	2	0	SURVEY	1414	n/a	n/a	1	n/a	0	0	0	n/a	n/a	n/a	n/a	n/a
966.02	n/a	WORD	483010	wordpools/wasnorm_wordpool_less_exclusions.txt	LTP240	ltpFR	10	3	1	STRAWBERRY	1391	n/a	n/a	0	n/a	0	0	0	0.422607421875	0.5869140625	0	lower	zerothre.ttf
969.954	n/a	WORD	484977	wordpools/wasnorm_wordpool_less_exclusions.txt	LTP240	ltpFR	10	3	1	ENCYCLOPEDIA	533	n/a	n/a	0	n/a	0	0	0	0.422607421875	0.5869140625	0	lower	zerothre.ttf
974.088	n/a	WORD	487044	wordpools/wasnorm_wordpool_less_exclusions.txt	LTP240	ltpFR	10	3	1	BUN	197	n/a	n/a	0	n/a	0	0	0	0.422607421875	0.5869140625	0	lower	zerothre.ttf
978.218	n/a	WORD	489109	wordpools/wasnorm_wordpool_less_exclusions.txt	LTP240	ltpFR	10	3	1	CAMEL	223	n/a	n/a	1	n/a	0	0	0	0.422607421875	0.5869140625	0	lower	zerothre.ttf
982.102	n/a	WORD	491051	wordpools/wasnorm_wordpool_less_exclusions.txt	LTP240	ltpFR	10	3	1	STEP	1377	n/a	n/a	0	n/a	0	0	0	0.422607421875	0.5869140625	0	lower	zerothre.ttf
986.184	n/a	WORD	493092	wordpools/wasnorm_wordpool_less_exclusions.txt	LTP240	ltpFR	10	3	0	SKYSCRAPER	1322	n/a	n/a	1	n/a	0	0	0	0.57763671875	0.412841796875	1	upper	amplitud.ttf
990.3	n/a	WORD	495150	wordpools/wasnorm_wordpool_less_exclusions.txt	LTP240	ltpFR	10	3	0	CAPITAL	238	n/a	n/a	1	n/a	0	0	0	0.57763671875	0.412841796875	1	upper	amplitud.ttf
994.166	n/a	WORD	497083	wordpools/wasnorm_wordpool_less_exclusions.txt	LTP240	ltpFR	10	3	1	FIREPLACE	570	n/a	n/a	0	n/a	0	0	0	0.422607421875	0.5869140625	0	lower	zerothre.ttf
998.114	n/a	WORD	499057	wordpools/wasnorm_wordpool_less_exclusions.txt	LTP240	ltpFR	10	3	1	COYOTE	396	n/a	n/a	1	n/a	0	0	0	0.422607421875	0.5869140625	0	lower	zerothre.ttf
1002.292	n/a	WORD	501146	wordpools/wasnorm_wordpool_less_exclusions.txt	LTP240	ltpFR	10	3	1	TICK	1463	n/a	n/a	1	n/a	0	0	0	0.422607421875	0.5869140625	0	lower	zerothre.ttf
1006.278	n/a	WORD	503139	wordpools/wasnorm_wordpool_less_exclusions.txt	LTP240	ltpFR	10	3	0	FOE	587	n/a	n/a	1	n/a	0	0	0	0.57763671875	0.412841796875	1	upper	amplitud.ttf
1010.476	n/a	WORD	505238	wordpools/wasnorm_wordpool_less_exclusions.txt	LTP240	ltpFR	10	3	0	ASSOCIATE	49	n/a	n/a	1	n/a	0	0	0	0.57763671875	0.412841796875	1	upper	amplitud.ttf
1014.544	n/a	WORD	507272	wordpools/wasnorm_wordpool_less_exclusions.txt	LTP240	ltpFR	10	3	0	MINK	897	n/a	n/a	1	n/a	0	0	0	0.57763671875	0.412841796875	1	upper	amplitud.ttf
1018.592	n/a	WORD	509296	wordpools/wasnorm_wordpool_less_exclusions.txt	LTP240	ltpFR	10	3	0	ELEVATOR	524	n/a	n/a	1	n/a	0	0	0	0.57763671875	0.412841796875	1	upper	amplitud.ttf
1022.472	n/a	WORD	511236	wordpools/wasnorm_wordpool_less_exclusions.txt	LTP240	ltpFR	10	3	0	CUSHION	428	n/a	n/a	0	n/a	0	0	0	0.57763671875	0.412841796875	1	upper	amplitud.ttf
1026.672	n/a	WORD	513336	wordpools/wasnorm_wordpool_less_exclusions.txt	LTP240	ltpFR	10	3	0	TOAST	1471	n/a	n/a	0	n/a	0	0	0	0.57763671875	0.412841796875	1	upper	amplitud.ttf
1032.526	n/a	REC_START	516263	n/a	LTP240	ltpFR	10	3	n/a	n/a	n/a	n/a	n/a	n/a	n/a	0	0	0	n/a	n/a	n/a	n/a	n/a
1033.986	n/a	REC_WORD	516993	wordpools/wasnorm_wordpool_less_exclusions.txt	LTP240	ltpFR	10	3	0	TOAST	1471	n/a	n/a	0	n/a	0	0	0	n/a	n/a	n/a	n/a	n/a
1035.28	n/a	REC_WORD	517640	wordpools/wasnorm_wordpool_less_exclusions.txt	LTP240	ltpFR	10	3	0	CUSHION	428	n/a	n/a	0	n/a	0	0	0	n/a	n/a	n/a	n/a	n/a
1036.436	n/a	REC_WORD	518218	wordpools/wasnorm_wordpool_less_exclusions.txt	LTP240	ltpFR	10	3	0	MINK	897	n/a	n/a	1	n/a	0	0	0	n/a	n/a	n/a	n/a	n/a
1038.496	n/a	REC_WORD	519248	wordpools/wasnorm_wordpool_less_exclusions.txt	LTP240	ltpFR	10	3	1	ENCYCLOPEDIA	533	n/a	n/a	0	n/a	0	0	0	n/a	n/a	n/a	n/a	n/a
1039.496	n/a	REC_WORD_VV	519748	wordpools/wasnorm_wordpool_less_exclusions.txt	LTP240	ltpFR	10	3	n/a	<>	-1	n/a	n/a	n/a	n/a	0	0	0	n/a	n/a	n/a	n/a	n/a
1046.104	n/a	REC_WORD	523052	wordpools/wasnorm_wordpool_less_exclusions.txt	LTP240	ltpFR	10	3	0	ASSOCIATE	49	n/a	n/a	1	n/a	0	0	0	n/a	n/a	n/a	n/a	n/a
1047.7	n/a	REC_WORD	523850	wordpools/wasnorm_wordpool_less_exclusions.txt	LTP240	ltpFR	10	3	0	SKYSCRAPER	1322	n/a	n/a	1	n/a	0	0	0	n/a	n/a	n/a	n/a	n/a
1048.608	n/a	REC_WORD	524304	wordpools/wasnorm_wordpool_less_exclusions.txt	LTP240	ltpFR	10	3	0	CAPITAL	238	n/a	n/a	1	n/a	0	0	0	n/a	n/a	n/a	n/a	n/a
1066.874	n/a	REC_WORD	533437	wordpools/wasnorm_wordpool_less_exclusions.txt	LTP240	ltpFR	10	3	0	TOAST	1471	n/a	n/a	0	n/a	0	0	0	n/a	n/a	n/a	n/a	n/a
1072.636	n/a	REC_WORD	536318	wordpools/wasnorm_wordpool_less_exclusions.txt	LTP240	ltpFR	10	3	0	CUSHION	428	n/a	n/a	0	n/a	0	0	0	n/a	n/a	n/a	n/a	n/a
1095.166	n/a	REC_WORD	547583	wordpools/wasnorm_wordpool_less_exclusions.txt	LTP240	ltpFR	10	3	1	TICK	1463	n/a	n/a	1	n/a	0	0	0	n/a	n/a	n/a	n/a	n/a
1100.834	n/a	REC_WORD	550417	wordpools/wasnorm_wordpool_less_exclusions.txt	LTP240	ltpFR	10	3	1	COYOTE	396	n/a	n/a	1	n/a	0	0	0	n/a	n/a	n/a	n/a	n/a
1113.27	n/a	START	556635	n/a	LTP240	ltpFR	10	n/a	n/a	n/a	n/a	n/a	n/a	n/a	n/a	n/a	n/a	n/a	n/a	n/a	n/a	n/a	n/a
1114.788	n/a	PROB	557394	n/a	LTP240	ltpFR	10	n/a	n/a	n/a	n/a	n/a	n/a	n/a	15	4	6	5	n/a	n/a	n/a	n/a	n/a
1116.294	n/a	PROB	558147	n/a	LTP240	ltpFR	10	n/a	n/a	n/a	n/a	n/a	n/a	n/a	16	4	8	4	n/a	n/a	n/a	n/a	n/a
1118.47	n/a	PROB	559235	n/a	LTP240	ltpFR	10	n/a	n/a	n/a	n/a	n/a	n/a	n/a	15	6	6	3	n/a	n/a	n/a	n/a	n/a
1120.058	n/a	PROB	560029	n/a	LTP240	ltpFR	10	n/a	n/a	n/a	n/a	n/a	n/a	n/a	17	8	6	3	n/a	n/a	n/a	n/a	n/a
1122.418	n/a	PROB	561209	n/a	LTP240	ltpFR	10	n/a	n/a	n/a	n/a	n/a	n/a	n/a	10	2	1	7	n/a	n/a	n/a	n/a	n/a
1123.906	n/a	PROB	561953	n/a	LTP240	ltpFR	10	n/a	n/a	n/a	n/a	n/a	n/a	n/a	16	8	5	3	n/a	n/a	n/a	n/a	n/a
1125.834	n/a	PROB	562917	n/a	LTP240	ltpFR	10	n/a	n/a	n/a	n/a	n/a	n/a	n/a	16	4	9	3	n/a	n/a	n/a	n/a	n/a
1127.942	n/a	STOP	563971	n/a	LTP240	ltpFR	10	n/a	n/a	n/a	n/a	n/a	n/a	n/a	n/a	n/a	n/a	n/a	n/a	n/a	n/a	n/a	n/a
1130.302	n/a	WORD	565151	wordpools/wasnorm_wordpool_less_exclusions.txt	LTP240	ltpFR	10	4	0	WAVE	1596	n/a	n/a	1	n/a	0	0	0	0.57763671875	0.412841796875	1	upper	amplitud.ttf
1133.314	n/a	START	566657	n/a	LTP240	ltpFR	10	n/a	n/a	n/a	n/a	n/a	n/a	n/a	n/a	n/a	n/a	n/a	n/a	n/a	n/a	n/a	n/a
1134.418	n/a	PROB	567209	n/a	LTP240	ltpFR	10	n/a	n/a	n/a	n/a	n/a	n/a	n/a	20	8	7	5	n/a	n/a	n/a	n/a	n/a
1136.592	n/a	PROB	568296	n/a	LTP240	ltpFR	10	n/a	n/a	n/a	n/a	n/a	n/a	n/a	20	9	5	6	n/a	n/a	n/a	n/a	n/a
1139.566	n/a	PROB	569783	n/a	LTP240	ltpFR	10	n/a	n/a	n/a	n/a	n/a	n/a	n/a	12	3	7	2	n/a	n/a	n/a	n/a	n/a
1141.256	n/a	PROB	570628	n/a	LTP240	ltpFR	10	n/a	n/a	n/a	n/a	n/a	n/a	n/a	10	7	1	2	n/a	n/a	n/a	n/a	n/a
1143.034	n/a	PROB	571517	n/a	LTP240	ltpFR	10	n/a	n/a	n/a	n/a	n/a	n/a	n/a	14	2	8	4	n/a	n/a	n/a	n/a	n/a
1144.952	n/a	PROB	572476	n/a	LTP240	ltpFR	10	n/a	n/a	n/a	n/a	n/a	n/a	n/a	13	3	5	5	n/a	n/a	n/a	n/a	n/a
1146.694	n/a	PROB	573347	n/a	LTP240	ltpFR	10	n/a	n/a	n/a	n/a	n/a	n/a	n/a	11	8	2	1	n/a	n/a	n/a	n/a	n/a
1148.368	n/a	STOP	574184	n/a	LTP240	ltpFR	10	n/a	n/a	n/a	n/a	n/a	n/a	n/a	n/a	n/a	n/a	n/a	n/a	n/a	n/a	n/a	n/a
1150.512	n/a	WORD	575256	wordpools/wasnorm_wordpool_less_exclusions.txt	LTP240	ltpFR	10	4	0	CUE	422	n/a	n/a	0	n/a	0	0	0	0.57763671875	0.412841796875	1	upper	amplitud.ttf
1153.524	n/a	START	576762	n/a	LTP240	ltpFR	10	n/a	n/a	n/a	n/a	n/a	n/a	n/a	n/a	n/a	n/a	n/a	n/a	n/a	n/a	n/a	n/a
1154.356	n/a	PROB	577178	n/a	LTP240	ltpFR	10	n/a	n/a	n/a	n/a	n/a	n/a	n/a	15	1	7	7	n/a	n/a	n/a	n/a	n/a
1156.012	n/a	PROB	578006	n/a	LTP240	ltpFR	10	n/a	n/a	n/a	n/a	n/a	n/a	n/a	13	4	4	5	n/a	n/a	n/a	n/a	n/a
1158.676	n/a	PROB	579338	n/a	LTP240	ltpFR	10	n/a	n/a	n/a	n/a	n/a	n/a	n/a	19	4	8	7	n/a	n/a	n/a	n/a	n/a
1161.45	n/a	PROB	580725	n/a	LTP240	ltpFR	10	n/a	n/a	n/a	n/a	n/a	n/a	n/a	11	3	3	5	n/a	n/a	n/a	n/a	n/a
1163.122	n/a	PROB	581561	n/a	LTP240	ltpFR	10	n/a	n/a	n/a	n/a	n/a	n/a	n/a	15	6	6	2	n/a	n/a	n/a	n/a	n/a
1169.524	n/a	STOP	584762	n/a	LTP240	ltpFR	10	n/a	n/a	n/a	n/a	n/a	n/a	n/a	n/a	n/a	n/a	n/a	n/a	n/a	n/a	n/a	n/a
1170.556	n/a	WORD	585278	wordpools/wasnorm_wordpool_less_exclusions.txt	LTP240	ltpFR	10	4	0	NICKEL	950	n/a	n/a	0	n/a	0	0	0	0.57763671875	0.412841796875	1	upper	amplitud.ttf
1173.568	n/a	START	586784	n/a	LTP240	ltpFR	10	n/a	n/a	n/a	n/a	n/a	n/a	n/a	n/a	n/a	n/a	n/a	n/a	n/a	n/a	n/a	n/a
1174.688	n/a	PROB	587344	n/a	LTP240	ltpFR	10	n/a	n/a	n/a	n/a	n/a	n/a	n/a	4	2	1	1	n/a	n/a	n/a	n/a	n/a
1176.106	n/a	PROB	588053	n/a	LTP240	ltpFR	10	n/a	n/a	n/a	n/a	n/a	n/a	n/a	21	6	9	6	n/a	n/a	n/a	n/a	n/a
1179.836	n/a	PROB	589918	n/a	LTP240	ltpFR	10	n/a	n/a	n/a	n/a	n/a	n/a	n/a	15	7	4	4	n/a	n/a	n/a	n/a	n/a
1182.116	n/a	PROB	591058	n/a	LTP240	ltpFR	10	n/a	n/a	n/a	n/a	n/a	n/a	n/a	14	9	2	3	n/a	n/a	n/a	n/a	n/a
1184.89	n/a	PROB	592445	n/a	LTP240	ltpFR	10	n/a	n/a	n/a	n/a	n/a	n/a	n/a	6	1	3	2	n/a	n/a	n/a	n/a	n/a
1187.136	n/a	PROB	593568	n/a	LTP240	ltpFR	10	n/a	n/a	n/a	n/a	n/a	n/a	n/a	16	6	2	8	n/a	n/a	n/a	n/a	n/a
1189.018	n/a	STOP	594509	n/a	LTP240	ltpFR	10	n/a	n/a	n/a	n/a	n/a	n/a	n/a	n/a	n/a	n/a	n/a	n/a	n/a	n/a	n/a	n/a
1190.394	n/a	WORD	595197	wordpools/wasnorm_wordpool_less_exclusions.txt	LTP240	ltpFR	10	4	0	BROOK	177	n/a	n/a	1	n/a	0	0	0	0.57763671875	0.412841796875	1	upper	amplitud.ttf
1193.41	n/a	START	596705	n/a	LTP240	ltpFR	10	n/a	n/a	n/a	n/a	n/a	n/a	n/a	n/a	n/a	n/a	n/a	n/a	n/a	n/a	n/a	n/a
1194.46	n/a	PROB	597230	n/a	LTP240	ltpFR	10	n/a	n/a	n/a	n/a	n/a	n/a	n/a	11	5	3	3	n/a	n/a	n/a	n/a	n/a
1196.166	n/a	PROB	598083	n/a	LTP240	ltpFR	10	n/a	n/a	n/a	n/a	n/a	n/a	n/a	23	9	5	9	n/a	n/a	n/a	n/a	n/a
1198.796	n/a	PROB	599398	n/a	LTP240	ltpFR	10	n/a	n/a	n/a	n/a	n/a	n/a	n/a	21	4	9	8	n/a	n/a	n/a	n/a	n/a
1201.486	n/a	PROB	600743	n/a	LTP240	ltpFR	10	n/a	n/a	n/a	n/a	n/a	n/a	n/a	21	8	6	7	n/a	n/a	n/a	n/a	n/a
1205.77	n/a	PROB	602885	n/a	LTP240	ltpFR	10	n/a	n/a	n/a	n/a	n/a	n/a	n/a	10	3	1	6	n/a	n/a	n/a	n/a	n/a
1208.148	n/a	STOP	604074	n/a	LTP240	ltpFR	10	n/a	n/a	n/a	n/a	n/a	n/a	n/a	n/a	n/a	n/a	n/a	n/a	n/a	n/a	n/a	n/a
1210.37	n/a	WORD	605185	wordpools/wasnorm_wordpool_less_exclusions.txt	LTP240	ltpFR	10	4	0	PUPPY	1144	n/a	n/a	1	n/a	0	0	0	0.57763671875	0.412841796875	1	upper	amplitud.ttf
1213.386	n/a	START	606693	n/a	LTP240	ltpFR	10	n/a	n/a	n/a	n/a	n/a	n/a	n/a	n/a	n/a	n/a	n/a	n/a	n/a	n/a	n/a	n/a
1214.206	n/a	PROB	607103	n/a	LTP240	ltpFR	10	n/a	n/a	n/a	n/a	n/a	n/a	n/a	12	5	5	2	n/a	n/a	n/a	n/a	n/a
1215.724	n/a	PROB	607862	n/a	LTP240	ltpFR	10	n/a	n/a	n/a	n/a	n/a	n/a	n/a	13	2	2	9	n/a	n/a	n/a	n/a	n/a
1217.448	n/a	PROB	608724	n/a	LTP240	ltpFR	10	n/a	n/a	n/a	n/a	n/a	n/a	n/a	15	6	3	6	n/a	n/a	n/a	n/a	n/a
1219.692	n/a	PROB	609846	n/a	LTP240	ltpFR	10	n/a	n/a	n/a	n/a	n/a	n/a	n/a	21	7	7	7	n/a	n/a	n/a	n/a	n/a
1221.028	n/a	PROB	610514	n/a	LTP240	ltpFR	10	n/a	n/a	n/a	n/a	n/a	n/a	n/a	18	8	7	3	n/a	n/a	n/a	n/a	n/a
1223.036	n/a	PROB	611518	n/a	LTP240	ltpFR	10	n/a	n/a	n/a	n/a	n/a	n/a	n/a	18	7	7	4	n/a	n/a	n/a	n/a	n/a
1225.194	n/a	PROB	612597	n/a	LTP240	ltpFR	10	n/a	n/a	n/a	n/a	n/a	n/a	n/a	17	1	7	9	n/a	n/a	n/a	n/a	n/a
1227.268	n/a	PROB	613634	n/a	LTP240	ltpFR	10	n/a	n/a	n/a	n/a	n/a	n/a	n/a	12	2	8	2	n/a	n/a	n/a	n/a	n/a
1228.668	n/a	STOP	614334	n/a	LTP240	ltpFR	10	n/a	n/a	n/a	n/a	n/a	n/a	n/a	n/a	n/a	n/a	n/a	n/a	n/a	n/a	n/a	n/a
1230.3	n/a	WORD	615150	wordpools/wasnorm_wordpool_less_exclusions.txt	LTP240	ltpFR	10	4	0	PLIERS	1089	n/a	n/a	0	n/a	0	0	0	0.57763671875	0.412841796875	1	upper	amplitud.ttf
1233.312	n/a	START	616656	n/a	LTP240	ltpFR	10	n/a	n/a	n/a	n/a	n/a	n/a	n/a	n/a	n/a	n/a	n/a	n/a	n/a	n/a	n/a	n/a
1234.164	n/a	PROB	617082	n/a	LTP240	ltpFR	10	n/a	n/a	n/a	n/a	n/a	n/a	n/a	19	8	4	7	n/a	n/a	n/a	n/a	n/a
1238.244	n/a	PROB	619122	n/a	LTP240	ltpFR	10	n/a	n/a	n/a	n/a	n/a	n/a	n/a	15	1	6	8	n/a	n/a	n/a	n/a	n/a
1240.974	n/a	PROB	620487	n/a	LTP240	ltpFR	10	n/a	n/a	n/a	n/a	n/a	n/a	n/a	17	6	9	2	n/a	n/a	n/a	n/a	n/a
1243.582	n/a	PROB	621791	n/a	LTP240	ltpFR	10	n/a	n/a	n/a	n/a	n/a	n/a	n/a	12	1	9	2	n/a	n/a	n/a	n/a	n/a
1245.136	n/a	PROB	622568	n/a	LTP240	ltpFR	10	n/a	n/a	n/a	n/a	n/a	n/a	n/a	19	8	8	3	n/a	n/a	n/a	n/a	n/a
1249.314	n/a	STOP	624657	n/a	LTP240	ltpFR	10	n/a	n/a	n/a	n/a	n/a	n/a	n/a	n/a	n/a	n/a	n/a	n/a	n/a	n/a	n/a	n/a
1250.36	n/a	WORD	625180	wordpools/wasnorm_wordpool_less_exclusions.txt	LTP240	ltpFR	10	4	0	TWEEZERS	1526	n/a	n/a	0	n/a	0	0	0	0.57763671875	0.412841796875	1	upper	amplitud.ttf
1253.372	n/a	START	626686	n/a	LTP240	ltpFR	10	n/a	n/a	n/a	n/a	n/a	n/a	n/a	n/a	n/a	n/a	n/a	n/a	n/a	n/a	n/a	n/a
1254.51	n/a	PROB	627255	n/a	LTP240	ltpFR	10	n/a	n/a	n/a	n/a	n/a	n/a	n/a	16	7	2	7	n/a	n/a	n/a	n/a	n/a
1256.564	n/a	PROB	628282	n/a	LTP240	ltpFR	10	n/a	n/a	n/a	n/a	n/a	n/a	n/a	22	8	8	6	n/a	n/a	n/a	n/a	n/a
1259.492	n/a	PROB	629746	n/a	LTP240	ltpFR	10	n/a	n/a	n/a	n/a	n/a	n/a	n/a	18	8	4	6	n/a	n/a	n/a	n/a	n/a
1261.252	n/a	PROB	630626	n/a	LTP240	ltpFR	10	n/a	n/a	n/a	n/a	n/a	n/a	n/a	16	1	7	8	n/a	n/a	n/a	n/a	n/a
1263.106	n/a	PROB	631553	n/a	LTP240	ltpFR	10	n/a	n/a	n/a	n/a	n/a	n/a	n/a	22	6	9	7	n/a	n/a	n/a	n/a	n/a
1269.374	n/a	STOP	634687	n/a	LTP240	ltpFR	10	n/a	n/a	n/a	n/a	n/a	n/a	n/a	n/a	n/a	n/a	n/a	n/a	n/a	n/a	n/a	n/a
1270.37	n/a	WORD	635185	wordpools/wasnorm_wordpool_less_exclusions.txt	LTP240	ltpFR	10	4	0	BILL	126	n/a	n/a	0	n/a	0	0	0	0.57763671875	0.412841796875	1	upper	amplitud.ttf
1273.382	n/a	START	636691	n/a	LTP240	ltpFR	10	n/a	n/a	n/a	n/a	n/a	n/a	n/a	n/a	n/a	n/a	n/a	n/a	n/a	n/a	n/a	n/a
1274.282	n/a	PROB	637141	n/a	LTP240	ltpFR	10	n/a	n/a	n/a	n/a	n/a	n/a	n/a	10	3	1	6	n/a	n/a	n/a	n/a	n/a
1276.422	n/a	PROB	638211	n/a	LTP240	ltpFR	10	n/a	n/a	n/a	n/a	n/a	n/a	n/a	14	6	2	6	n/a	n/a	n/a	n/a	n/a
1278.2	n/a	PROB	639100	n/a	LTP240	ltpFR	10	n/a	n/a	n/a	n/a	n/a	n/a	n/a	16	8	5	3	n/a	n/a	n/a	n/a	n/a
1280.188	n/a	PROB	640094	n/a	LTP240	ltpFR	10	n/a	n/a	n/a	n/a	n/a	n/a	n/a	8	3	3	2	n/a	n/a	n/a	n/a	n/a
1282.816	n/a	PROB	641408	n/a	LTP240	ltpFR	10	n/a	n/a	n/a	n/a	n/a	n/a	n/a	12	1	3	8	n/a	n/a	n/a	n/a	n/a
1284.972	n/a	PROB	642486	n/a	LTP240	ltpFR	10	n/a	n/a	n/a	n/a	n/a	n/a	n/a	15	4	3	8	n/a	n/a	n/a	n/a	n/a
1288.472	n/a	STOP	644236	n/a	LTP240	ltpFR	10	n/a	n/a	n/a	n/a	n/a	n/a	n/a	n/a	n/a	n/a	n/a	n/a	n/a	n/a	n/a	n/a
1290.544	n/a	WORD	645272	wordpools/wasnorm_wordpool_less_exclusions.txt	LTP240	ltpFR	10	4	0	SHORTCAKE	1292	n/a	n/a	1	n/a	0	0	0	0.57763671875	0.412841796875	1	upper	amplitud.ttf
1293.56	n/a	START	646780	n/a	LTP240	ltpFR	10	n/a	n/a	n/a	n/a	n/a	n/a	n/a	n/a	n/a	n/a	n/a	n/a	n/a	n/a	n/a	n/a
1294.73	n/a	PROB	647365	n/a	LTP240	ltpFR	10	n/a	n/a	n/a	n/a	n/a	n/a	n/a	9	2	3	4	n/a	n/a	n/a	n/a	n/a
1297.24	n/a	PROB	648620	n/a	LTP240	ltpFR	10	n/a	n/a	n/a	n/a	n/a	n/a	n/a	13	3	6	4	n/a	n/a	n/a	n/a	n/a
1299.076	n/a	PROB	649538	n/a	LTP240	ltpFR	10	n/a	n/a	n/a	n/a	n/a	n/a	n/a	12	2	6	4	n/a	n/a	n/a	n/a	n/a
1301.1	n/a	PROB	650550	n/a	LTP240	ltpFR	10	n/a	n/a	n/a	n/a	n/a	n/a	n/a	23	7	7	9	n/a	n/a	n/a	n/a	n/a
1303.376	n/a	PROB	651688	n/a	LTP240	ltpFR	10	n/a	n/a	n/a	n/a	n/a	n/a	n/a	17	1	9	7	n/a	n/a	n/a	n/a	n/a
1305.014	n/a	PROB	652507	n/a	LTP240	ltpFR	10	n/a	n/a	n/a	n/a	n/a	n/a	n/a	9	1	6	2	n/a	n/a	n/a	n/a	n/a
1306.922	n/a	PROB	653461	n/a	LTP240	ltpFR	10	n/a	n/a	n/a	n/a	n/a	n/a	n/a	20	7	7	6	n/a	n/a	n/a	n/a	n/a
1308.92	n/a	STOP	654460	n/a	LTP240	ltpFR	10	n/a	n/a	n/a	n/a	n/a	n/a	n/a	n/a	n/a	n/a	n/a	n/a	n/a	n/a	n/a	n/a
1310.474	n/a	WORD	655237	wordpools/wasnorm_wordpool_less_exclusions.txt	LTP240	ltpFR	10	4	0	STAFF	1365	n/a	n/a	1	n/a	0	0	0	0.57763671875	0.412841796875	1	upper	amplitud.ttf
1313.486	n/a	START	656743	n/a	LTP240	ltpFR	10	n/a	n/a	n/a	n/a	n/a	n/a	n/a	n/a	n/a	n/a	n/a	n/a	n/a	n/a	n/a	n/a
1314.568	n/a	PROB	657284	n/a	LTP240	ltpFR	10	n/a	n/a	n/a	n/a	n/a	n/a	n/a	13	9	2	2	n/a	n/a	n/a	n/a	n/a
1316.276	n/a	PROB	658138	n/a	LTP240	ltpFR	10	n/a	n/a	n/a	n/a	n/a	n/a	n/a	15	5	4	6	n/a	n/a	n/a	n/a	n/a
1317.684	n/a	PROB	658842	n/a	LTP240	ltpFR	10	n/a	n/a	n/a	n/a	n/a	n/a	n/a	12	2	4	6	n/a	n/a	n/a	n/a	n/a
1319.254	n/a	PROB	659627	n/a	LTP240	ltpFR	10	n/a	n/a	n/a	n/a	n/a	n/a	n/a	1	3	2	5	n/a	n/a	n/a	n/a	n/a
1321.394	n/a	PROB	660697	n/a	LTP240	ltpFR	10	n/a	n/a	n/a	n/a	n/a	n/a	n/a	17	4	6	7	n/a	n/a	n/a	n/a	n/a
1329.486	n/a	STOP	664743	n/a	LTP240	ltpFR	10	n/a	n/a	n/a	n/a	n/a	n/a	n/a	n/a	n/a	n/a	n/a	n/a	n/a	n/a	n/a	n/a
1330.68	n/a	WORD	665340	wordpools/wasnorm_wordpool_less_exclusions.txt	LTP240	ltpFR	10	4	0	PACKAGE	997	n/a	n/a	1	n/a	0	0	0	0.57763671875	0.412841796875	1	upper	amplitud.ttf
1333.696	n/a	START	666848	n/a	LTP240	ltpFR	10	n/a	n/a	n/a	n/a	n/a	n/a	n/a	n/a	n/a	n/a	n/a	n/a	n/a	n/a	n/a	n/a
1334.8	n/a	PROB	667400	n/a	LTP240	ltpFR	10	n/a	n/a	n/a	n/a	n/a	n/a	n/a	17	3	8	6	n/a	n/a	n/a	n/a	n/a
1337.172	n/a	PROB	668586	n/a	LTP240	ltpFR	10	n/a	n/a	n/a	n/a	n/a	n/a	n/a	15	7	3	5	n/a	n/a	n/a	n/a	n/a
1338.648	n/a	PROB	669324	n/a	LTP240	ltpFR	10	n/a	n/a	n/a	n/a	n/a	n/a	n/a	22	9	4	9	n/a	n/a	n/a	n/a	n/a
1340.986	n/a	PROB	670493	n/a	LTP240	ltpFR	10	n/a	n/a	n/a	n/a	n/a	n/a	n/a	16	9	3	4	n/a	n/a	n/a	n/a	n/a
1343.496	n/a	PROB	671748	n/a	LTP240	ltpFR	10	n/a	n/a	n/a	n/a	n/a	n/a	n/a	21	6	8	7	n/a	n/a	n/a	n/a	n/a
1349.522	n/a	STOP	674761	n/a	LTP240	ltpFR	10	n/a	n/a	n/a	n/a	n/a	n/a	n/a	n/a	n/a	n/a	n/a	n/a	n/a	n/a	n/a	n/a
1350.778	n/a	WORD	675389	wordpools/wasnorm_wordpool_less_exclusions.txt	LTP240	ltpFR	10	4	0	PRAIRIE	1118	n/a	n/a	1	n/a	0	0	0	0.57763671875	0.412841796875	1	upper	amplitud.ttf
1353.79	n/a	START	676895	n/a	LTP240	ltpFR	10	n/a	n/a	n/a	n/a	n/a	n/a	n/a	n/a	n/a	n/a	n/a	n/a	n/a	n/a	n/a	n/a
1354.71	n/a	PROB	677355	n/a	LTP240	ltpFR	10	n/a	n/a	n/a	n/a	n/a	n/a	n/a	19	2	9	8	n/a	n/a	n/a	n/a	n/a
1356.512	n/a	PROB	678256	n/a	LTP240	ltpFR	10	n/a	n/a	n/a	n/a	n/a	n/a	n/a	4	1	1	2	n/a	n/a	n/a	n/a	n/a
1358.0	n/a	PROB	679000	n/a	LTP240	ltpFR	10	n/a	n/a	n/a	n/a	n/a	n/a	n/a	23	9	8	6	n/a	n/a	n/a	n/a	n/a
1361.8	n/a	PROB	680900	n/a	LTP240	ltpFR	10	n/a	n/a	n/a	n/a	n/a	n/a	n/a	12	6	4	2	n/a	n/a	n/a	n/a	n/a
1363.124	n/a	PROB	681562	n/a	LTP240	ltpFR	10	n/a	n/a	n/a	n/a	n/a	n/a	n/a	20	7	8	5	n/a	n/a	n/a	n/a	n/a
1365.48	n/a	PROB	682740	n/a	LTP240	ltpFR	10	n/a	n/a	n/a	n/a	n/a	n/a	n/a	11	4	4	3	n/a	n/a	n/a	n/a	n/a
1369.79	n/a	STOP	684895	n/a	LTP240	ltpFR	10	n/a	n/a	n/a	n/a	n/a	n/a	n/a	n/a	n/a	n/a	n/a	n/a	n/a	n/a	n/a	n/a
1370.902	n/a	WORD	685451	wordpools/wasnorm_wordpool_less_exclusions.txt	LTP240	ltpFR	10	4	0	SUPERMARKET	1409	n/a	n/a	1	n/a	0	0	0	0.57763671875	0.412841796875	1	upper	amplitud.ttf
1373.916	n/a	START	686958	n/a	LTP240	ltpFR	10	n/a	n/a	n/a	n/a	n/a	n/a	n/a	n/a	n/a	n/a	n/a	n/a	n/a	n/a	n/a	n/a
1375.02	n/a	PROB	687510	n/a	LTP240	ltpFR	10	n/a	n/a	n/a	n/a	n/a	n/a	n/a	16	6	8	2	n/a	n/a	n/a	n/a	n/a
1376.376	n/a	PROB	688188	n/a	LTP240	ltpFR	10	n/a	n/a	n/a	n/a	n/a	n/a	n/a	14	4	2	8	n/a	n/a	n/a	n/a	n/a
1378.63	n/a	PROB	689315	n/a	LTP240	ltpFR	10	n/a	n/a	n/a	n/a	n/a	n/a	n/a	19	5	9	5	n/a	n/a	n/a	n/a	n/a
1380.726	n/a	PROB	690363	n/a	LTP240	ltpFR	10	n/a	n/a	n/a	n/a	n/a	n/a	n/a	6	2	3	1	n/a	n/a	n/a	n/a	n/a
1382.616	n/a	PROB	691308	n/a	LTP240	ltpFR	10	n/a	n/a	n/a	n/a	n/a	n/a	n/a	13	6	5	2	n/a	n/a	n/a	n/a	n/a
1389.916	n/a	STOP	694958	n/a	LTP240	ltpFR	10	n/a	n/a	n/a	n/a	n/a	n/a	n/a	n/a	n/a	n/a	n/a	n/a	n/a	n/a	n/a	n/a
1390.76	n/a	WORD	695380	wordpools/wasnorm_wordpool_less_exclusions.txt	LTP240	ltpFR	10	4	0	CAFE	216	n/a	n/a	1	n/a	0	0	0	0.57763671875	0.412841796875	1	upper	amplitud.ttf
1393.776	n/a	START	696888	n/a	LTP240	ltpFR	10	n/a	n/a	n/a	n/a	n/a	n/a	n/a	n/a	n/a	n/a	n/a	n/a	n/a	n/a	n/a	n/a
1394.962	n/a	PROB	697481	n/a	LTP240	ltpFR	10	n/a	n/a	n/a	n/a	n/a	n/a	n/a	15	8	3	4	n/a	n/a	n/a	n/a	n/a
1398.506	n/a	PROB	699253	n/a	LTP240	ltpFR	10	n/a	n/a	n/a	n/a	n/a	n/a	n/a	12	3	1	8	n/a	n/a	n/a	n/a	n/a
1400.53	n/a	PROB	700265	n/a	LTP240	ltpFR	10	n/a	n/a	n/a	n/a	n/a	n/a	n/a	17	1	8	8	n/a	n/a	n/a	n/a	n/a
1402.304	n/a	PROB	701152	n/a	LTP240	ltpFR	10	n/a	n/a	n/a	n/a	n/a	n/a	n/a	23	4	9	8	n/a	n/a	n/a	n/a	n/a
1405.014	n/a	PROB	702507	n/a	LTP240	ltpFR	10	n/a	n/a	n/a	n/a	n/a	n/a	n/a	22	4	9	9	n/a	n/a	n/a	n/a	n/a
1409.414	n/a	STOP	704707	n/a	LTP240	ltpFR	10	n/a	n/a	n/a	n/a	n/a	n/a	n/a	n/a	n/a	n/a	n/a	n/a	n/a	n/a	n/a	n/a
1410.79	n/a	WORD	705395	wordpools/wasnorm_wordpool_less_exclusions.txt	LTP240	ltpFR	10	4	0	LETTUCE	814	n/a	n/a	0	n/a	0	0	0	0.57763671875	0.412841796875	1	upper	amplitud.ttf
1413.802	n/a	START	706901	n/a	LTP240	ltpFR	10	n/a	n/a	n/a	n/a	n/a	n/a	n/a	n/a	n/a	n/a	n/a	n/a	n/a	n/a	n/a	n/a
1414.884	n/a	PROB	707442	n/a	LTP240	ltpFR	10	n/a	n/a	n/a	n/a	n/a	n/a	n/a	14	6	7	1	n/a	n/a	n/a	n/a	n/a
1416.946	n/a	PROB	708473	n/a	LTP240	ltpFR	10	n/a	n/a	n/a	n/a	n/a	n/a	n/a	19	7	9	3	n/a	n/a	n/a	n/a	n/a
1418.966	n/a	PROB	709483	n/a	LTP240	ltpFR	10	n/a	n/a	n/a	n/a	n/a	n/a	n/a	9	1	1	7	n/a	n/a	n/a	n/a	n/a
1420.958	n/a	PROB	710479	n/a	LTP240	ltpFR	10	n/a	n/a	n/a	n/a	n/a	n/a	n/a	20	9	3	8	n/a	n/a	n/a	n/a	n/a
1425.746	n/a	PROB	712873	n/a	LTP240	ltpFR	10	n/a	n/a	n/a	n/a	n/a	n/a	n/a	16	8	3	5	n/a	n/a	n/a	n/a	n/a
1428.35	n/a	STOP	714175	n/a	LTP240	ltpFR	10	n/a	n/a	n/a	n/a	n/a	n/a	n/a	n/a	n/a	n/a	n/a	n/a	n/a	n/a	n/a	n/a
1430.684	n/a	WORD	715342	wordpools/wasnorm_wordpool_less_exclusions.txt	LTP240	ltpFR	10	4	0	BALLOT	76	n/a	n/a	0	n/a	0	0	0	0.57763671875	0.412841796875	1	upper	amplitud.ttf
1433.694	n/a	START	716847	n/a	LTP240	ltpFR	10	n/a	n/a	n/a	n/a	n/a	n/a	n/a	n/a	n/a	n/a	n/a	n/a	n/a	n/a	n/a	n/a
1434.81	n/a	PROB	717405	n/a	LTP240	ltpFR	10	n/a	n/a	n/a	n/a	n/a	n/a	n/a	18	3	6	9	n/a	n/a	n/a	n/a	n/a
1437.572	n/a	PROB	718786	n/a	LTP240	ltpFR	10	n/a	n/a	n/a	n/a	n/a	n/a	n/a	17	5	7	5	n/a	n/a	n/a	n/a	n/a
1439.446	n/a	PROB	719723	n/a	LTP240	ltpFR	10	n/a	n/a	n/a	n/a	n/a	n/a	n/a	21	5	7	9	n/a	n/a	n/a	n/a	n/a
1444.348	n/a	PROB	722174	n/a	LTP240	ltpFR	10	n/a	n/a	n/a	n/a	n/a	n/a	n/a	9	2	6	1	n/a	n/a	n/a	n/a	n/a
1446.326	n/a	PROB	723163	n/a	LTP240	ltpFR	10	n/a	n/a	n/a	n/a	n/a	n/a	n/a	13	2	4	7	n/a	n/a	n/a	n/a	n/a
1449.328	n/a	STOP	724664	n/a	LTP240	ltpFR	10	n/a	n/a	n/a	n/a	n/a	n/a	n/a	n/a	n/a	n/a	n/a	n/a	n/a	n/a	n/a	n/a
1451.598	n/a	REC_START	725799	n/a	LTP240	ltpFR	10	4	n/a	n/a	n/a	n/a	n/a	n/a	n/a	0	0	0	n/a	n/a	n/a	n/a	n/a
1454.786	n/a	REC_WORD	727393	wordpools/wasnorm_wordpool_less_exclusions.txt	LTP240	ltpFR	10	4	0	SUPERMARKET	1409	n/a	n/a	1	n/a	0	0	0	n/a	n/a	n/a	n/a	n/a
1459.354	n/a	REC_WORD	729677	wordpools/wasnorm_wordpool_less_exclusions.txt	LTP240	ltpFR	10	4	0	NICKEL	950	n/a	n/a	0	n/a	0	0	0	n/a	n/a	n/a	n/a	n/a
1463.63	n/a	REC_WORD	731815	wordpools/wasnorm_wordpool_less_exclusions.txt	LTP240	ltpFR	10	4	0	CAFE	216	n/a	n/a	1	n/a	0	0	0	n/a	n/a	n/a	n/a	n/a
1465.716	n/a	REC_WORD	732858	wordpools/wasnorm_wordpool_less_exclusions.txt	LTP240	ltpFR	10	4	0	BALLOT	76	n/a	n/a	0	n/a	0	0	0	n/a	n/a	n/a	n/a	n/a
1488.602	n/a	REC_WORD	744301	wordpools/wasnorm_wordpool_less_exclusions.txt	LTP240	ltpFR	10	4	0	LETTUCE	814	n/a	n/a	0	n/a	0	0	0	n/a	n/a	n/a	n/a	n/a
1495.768	n/a	REC_WORD	747884	wordpools/wasnorm_wordpool_less_exclusions.txt	LTP240	ltpFR	10	4	0	TWEEZERS	1526	n/a	n/a	0	n/a	0	0	0	n/a	n/a	n/a	n/a	n/a
1497.43	n/a	REC_WORD	748715	wordpools/wasnorm_wordpool_less_exclusions.txt	LTP240	ltpFR	10	4	0	PLIERS	1089	n/a	n/a	0	n/a	0	0	0	n/a	n/a	n/a	n/a	n/a
1530.062	n/a	WORD	765031	wordpools/wasnorm_wordpool_less_exclusions.txt	LTP240	ltpFR	10	5	0	WILDERNESS	1610	n/a	n/a	1	n/a	0	0	0	0.57763671875	0.412841796875	1	upper	amplitud.ttf
1534.212	n/a	WORD	767106	wordpools/wasnorm_wordpool_less_exclusions.txt	LTP240	ltpFR	10	5	0	CONTRACTOR	369	n/a	n/a	1	n/a	0	0	0	0.57763671875	0.412841796875	1	upper	amplitud.ttf
1538.356	n/a	WORD	769178	wordpools/wasnorm_wordpool_less_exclusions.txt	LTP240	ltpFR	10	5	0	SPIT	1354	n/a	n/a	0	n/a	0	0	0	0.57763671875	0.412841796875	1	upper	amplitud.ttf
1542.576	n/a	WORD	771288	wordpools/wasnorm_wordpool_less_exclusions.txt	LTP240	ltpFR	10	5	0	BARTENDER	92	n/a	n/a	1	n/a	0	0	0	0.57763671875	0.412841796875	1	upper	amplitud.ttf
1546.694	n/a	WORD	773347	wordpools/wasnorm_wordpool_less_exclusions.txt	LTP240	ltpFR	10	5	0	BARLEY	88	n/a	n/a	0	n/a	0	0	0	0.57763671875	0.412841796875	1	upper	amplitud.ttf
1550.592	n/a	WORD	775296	wordpools/wasnorm_wordpool_less_exclusions.txt	LTP240	ltpFR	10	5	1	MAGNET	855	n/a	n/a	0	n/a	0	0	0	0.422607421875	0.5869140625	0	lower	zerothre.ttf
1554.472	n/a	WORD	777236	wordpools/wasnorm_wordpool_less_exclusions.txt	LTP240	ltpFR	10	5	1	CORAL	378	n/a	n/a	1	n/a	0	0	0	0.422607421875	0.5869140625	0	lower	zerothre.ttf
1558.366	n/a	WORD	779183	wordpools/wasnorm_wordpool_less_exclusions.txt	LTP240	ltpFR	10	5	1	AFRICA	9	n/a	n/a	0	n/a	0	0	0	0.422607421875	0.5869140625	0	lower	zerothre.ttf
1562.352	n/a	WORD	781176	wordpools/wasnorm_wordpool_less_exclusions.txt	LTP240	ltpFR	10	5	1	CONTINENT	367	n/a	n/a	0	n/a	0	0	0	0.422607421875	0.5869140625	0	lower	zerothre.ttf
1566.334	n/a	WORD	783167	wordpools/wasnorm_wordpool_less_exclusions.txt	LTP240	ltpFR	10	5	0	MACHINE	852	n/a	n/a	1	n/a	0	0	0	0.57763671875	0.412841796875	1	upper	amplitud.ttf
1570.466	n/a	WORD	785233	wordpools/wasnorm_wordpool_less_exclusions.txt	LTP240	ltpFR	10	5	0	PORTRAIT	1111	n/a	n/a	1	n/a	0	0	0	0.57763671875	0.412841796875	1	upper	amplitud.ttf
1574.462	n/a	WORD	787231	wordpools/wasnorm_wordpool_less_exclusions.txt	LTP240	ltpFR	10	5	0	PILOT	1070	n/a	n/a	1	n/a	0	0	0	0.57763671875	0.412841796875	1	upper	amplitud.ttf
1578.594	n/a	WORD	789297	wordpools/wasnorm_wordpool_less_exclusions.txt	LTP240	ltpFR	10	5	1	KITE	779	n/a	n/a	0	n/a	0	0	0	0.422607421875	0.5869140625	0	lower	zerothre.ttf
1582.794	n/a	WORD	791397	wordpools/wasnorm_wordpool_less_exclusions.txt	LTP240	ltpFR	10	5	1	TUB	1514	n/a	n/a	0	n/a	0	0	0	0.422607421875	0.5869140625	0	lower	zerothre.ttf
1586.812	n/a	WORD	793406	wordpools/wasnorm_wordpool_less_exclusions.txt	LTP240	ltpFR	10	5	1	FISH	571	n/a	n/a	1	n/a	0	0	0	0.422607421875	0.5869140625	0	lower	zerothre.ttf
1590.878	n/a	WORD	795439	wordpools/wasnorm_wordpool_less_exclusions.txt	LTP240	ltpFR	10	5	1	TONGUE	1479	n/a	n/a	0	n/a	0	0	0	0.422607421875	0.5869140625	0	lower	zerothre.ttf
1593.888	n/a	START	796944	n/a	LTP240	ltpFR	10	n/a	n/a	n/a	n/a	n/a	n/a	n/a	n/a	n/a	n/a	n/a	n/a	n/a	n/a	n/a	n/a
1594.742	n/a	PROB	797371	n/a	LTP240	ltpFR	10	n/a	n/a	n/a	n/a	n/a	n/a	n/a	21	6	8	7	n/a	n/a	n/a	n/a	n/a
1599.44	n/a	PROB	799720	n/a	LTP240	ltpFR	10	n/a	n/a	n/a	n/a	n/a	n/a	n/a	16	2	8	6	n/a	n/a	n/a	n/a	n/a
1600.662	n/a	PROB	800331	n/a	LTP240	ltpFR	10	n/a	n/a	n/a	n/a	n/a	n/a	n/a	16	8	5	3	n/a	n/a	n/a	n/a	n/a
1602.084	n/a	PROB	801042	n/a	LTP240	ltpFR	10	n/a	n/a	n/a	n/a	n/a	n/a	n/a	25	9	8	8	n/a	n/a	n/a	n/a	n/a
1604.526	n/a	PROB	802263	n/a	LTP240	ltpFR	10	n/a	n/a	n/a	n/a	n/a	n/a	n/a	26	8	9	9	n/a	n/a	n/a	n/a	n/a
1609.888	n/a	STOP	804944	n/a	LTP240	ltpFR	10	n/a	n/a	n/a	n/a	n/a	n/a	n/a	n/a	n/a	n/a	n/a	n/a	n/a	n/a	n/a	n/a
1611.772	n/a	REC_START	805886	n/a	LTP240	ltpFR	10	5	n/a	n/a	n/a	n/a	n/a	n/a	n/a	0	0	0	n/a	n/a	n/a	n/a	n/a
1613.942	n/a	REC_WORD	806971	wordpools/wasnorm_wordpool_less_exclusions.txt	LTP240	ltpFR	10	5	1	KITE	779	n/a	n/a	0	n/a	0	0	0	n/a	n/a	n/a	n/a	n/a
1617.034	n/a	REC_WORD	808517	wordpools/wasnorm_wordpool_less_exclusions.txt	LTP240	ltpFR	10	5	0	PILOT	1070	n/a	n/a	1	n/a	0	0	0	n/a	n/a	n/a	n/a	n/a
1620.782	n/a	REC_WORD	810391	wordpools/wasnorm_wordpool_less_exclusions.txt	LTP240	ltpFR	10	5	0	PORTRAIT	1111	n/a	n/a	1	n/a	0	0	0	n/a	n/a	n/a	n/a	n/a
1624.182	n/a	REC_WORD	812091	wordpools/wasnorm_wordpool_less_exclusions.txt	LTP240	ltpFR	10	5	1	MAGNET	855	n/a	n/a	0	n/a	0	0	0	n/a	n/a	n/a	n/a	n/a
1627.118	n/a	REC_WORD	813559	wordpools/wasnorm_wordpool_less_exclusions.txt	LTP240	ltpFR	10	5	0	MACHINE	852	n/a	n/a	1	n/a	0	0	0	n/a	n/a	n/a	n/a	n/a
1630.828	n/a	REC_WORD	815414	wordpools/wasnorm_wordpool_less_exclusions.txt	LTP240	ltpFR	10	5	1	FISH	571	n/a	n/a	1	n/a	0	0	0	n/a	n/a	n/a	n/a	n/a
1634.43	n/a	REC_WORD	817215	wordpools/wasnorm_wordpool_less_exclusions.txt	LTP240	ltpFR	10	5	0	CONTRACTOR	369	n/a	n/a	1	n/a	0	0	0	n/a	n/a	n/a	n/a	n/a
1635.43	n/a	REC_WORD_VV	817715	wordpools/wasnorm_wordpool_less_exclusions.txt	LTP240	ltpFR	10	5	n/a	<>	-1	n/a	n/a	n/a	n/a	0	0	0	n/a	n/a	n/a	n/a	n/a
1639.58	n/a	REC_WORD	819790	wordpools/wasnorm_wordpool_less_exclusions.txt	LTP240	ltpFR	10	5	0	WILDERNESS	1610	n/a	n/a	1	n/a	0	0	0	n/a	n/a	n/a	n/a	n/a
1651.986	n/a	REC_WORD	825993	wordpools/wasnorm_wordpool_less_exclusions.txt	LTP240	ltpFR	10	5	1	CORAL	378	n/a	n/a	1	n/a	0	0	0	n/a	n/a	n/a	n/a	n/a
1662.718	n/a	REC_WORD	831359	wordpools/wasnorm_wordpool_less_exclusions.txt	LTP240	ltpFR	10	5	1	AFRICA	9	n/a	n/a	0	n/a	0	0	0	n/a	n/a	n/a	n/a	n/a
1665.118	n/a	REC_WORD	832559	wordpools/wasnorm_wordpool_less_exclusions.txt	LTP240	ltpFR	10	5	1	CONTINENT	367	n/a	n/a	0	n/a	0	0	0	n/a	n/a	n/a	n/a	n/a
1670.506	n/a	REC_WORD	835253	wordpools/wasnorm_wordpool_less_exclusions.txt	LTP240	ltpFR	10	5	0	BARTENDER	92	n/a	n/a	1	n/a	0	0	0	n/a	n/a	n/a	n/a	n/a
1689.288	n/a	START	844644	n/a	LTP240	ltpFR	10	n/a	n/a	n/a	n/a	n/a	n/a	n/a	n/a	n/a	n/a	n/a	n/a	n/a	n/a	n/a	n/a
1690.794	n/a	PROB	845397	n/a	LTP240	ltpFR	10	n/a	n/a	n/a	n/a	n/a	n/a	n/a	17	7	1	9	n/a	n/a	n/a	n/a	n/a
1696.19	n/a	STOP	848095	n/a	LTP240	ltpFR	10	n/a	n/a	n/a	n/a	n/a	n/a	n/a	n/a	n/a	n/a	n/a	n/a	n/a	n/a	n/a	n/a
1698.456	n/a	WORD	849228	wordpools/wasnorm_wordpool_less_exclusions.txt	LTP240	ltpFR	10	6	0	DRAGON	492	n/a	n/a	1	n/a	0	0	0	0.57763671875	0.412841796875	1	upper	amplitud.ttf
1701.468	n/a	START	850734	n/a	LTP240	ltpFR	10	n/a	n/a	n/a	n/a	n/a	n/a	n/a	n/a	n/a	n/a	n/a	n/a	n/a	n/a	n/a	n/a
1702.656	n/a	PROB	851328	n/a	LTP240	ltpFR	10	n/a	n/a	n/a	n/a	n/a	n/a	n/a	15	1	6	8	n/a	n/a	n/a	n/a	n/a
1706.302	n/a	PROB	853151	n/a	LTP240	ltpFR	10	n/a	n/a	n/a	n/a	n/a	n/a	n/a	16	3	7	6	n/a	n/a	n/a	n/a	n/a
1709.468	n/a	STOP	854734	n/a	LTP240	ltpFR	10	n/a	n/a	n/a	n/a	n/a	n/a	n/a	n/a	n/a	n/a	n/a	n/a	n/a	n/a	n/a	n/a
1710.38	n/a	WORD	855190	wordpools/wasnorm_wordpool_less_exclusions.txt	LTP240	ltpFR	10	6	0	SIGNATURE	1306	n/a	n/a	0	n/a	0	0	0	0.57763671875	0.412841796875	1	upper	amplitud.ttf
1713.396	n/a	START	856698	n/a	LTP240	ltpFR	10	n/a	n/a	n/a	n/a	n/a	n/a	n/a	n/a	n/a	n/a	n/a	n/a	n/a	n/a	n/a	n/a
1714.25	n/a	PROB	857125	n/a	LTP240	ltpFR	10	n/a	n/a	n/a	n/a	n/a	n/a	n/a	14	4	8	2	n/a	n/a	n/a	n/a	n/a
1716.086	n/a	PROB	858043	n/a	LTP240	ltpFR	10	n/a	n/a	n/a	n/a	n/a	n/a	n/a	21	8	5	8	n/a	n/a	n/a	n/a	n/a
1721.398	n/a	STOP	860699	n/a	LTP240	ltpFR	10	n/a	n/a	n/a	n/a	n/a	n/a	n/a	n/a	n/a	n/a	n/a	n/a	n/a	n/a	n/a	n/a
1722.532	n/a	WORD	861266	wordpools/wasnorm_wordpool_less_exclusions.txt	LTP240	ltpFR	10	6	1	STAGE	1366	n/a	n/a	0	n/a	0	0	0	0.422607421875	0.5869140625	0	lower	zerothre.ttf
1725.544	n/a	START	862772	n/a	LTP240	ltpFR	10	n/a	n/a	n/a	n/a	n/a	n/a	n/a	n/a	n/a	n/a	n/a	n/a	n/a	n/a	n/a	n/a
1726.596	n/a	PROB	863298	n/a	LTP240	ltpFR	10	n/a	n/a	n/a	n/a	n/a	n/a	n/a	16	9	1	6	n/a	n/a	n/a	n/a	n/a
1727.948	n/a	PROB	863974	n/a	LTP240	ltpFR	10	n/a	n/a	n/a	n/a	n/a	n/a	n/a	6	2	2	2	n/a	n/a	n/a	n/a	n/a
1729.642	n/a	PROB	864821	n/a	LTP240	ltpFR	10	n/a	n/a	n/a	n/a	n/a	n/a	n/a	4	2	1	1	n/a	n/a	n/a	n/a	n/a
1733.542	n/a	STOP	866771	n/a	LTP240	ltpFR	10	n/a	n/a	n/a	n/a	n/a	n/a	n/a	n/a	n/a	n/a	n/a	n/a	n/a	n/a	n/a	n/a
1734.41	n/a	WORD	867205	wordpools/wasnorm_wordpool_less_exclusions.txt	LTP240	ltpFR	10	6	1	MATCH	878	n/a	n/a	0	n/a	0	0	0	0.422607421875	0.5869140625	0	lower	zerothre.ttf
1737.422	n/a	START	868711	n/a	LTP240	ltpFR	10	n/a	n/a	n/a	n/a	n/a	n/a	n/a	n/a	n/a	n/a	n/a	n/a	n/a	n/a	n/a	n/a
1738.542	n/a	PROB	869271	n/a	LTP240	ltpFR	10	n/a	n/a	n/a	n/a	n/a	n/a	n/a	17	2	8	7	n/a	n/a	n/a	n/a	n/a
1740.58	n/a	PROB	870290	n/a	LTP240	ltpFR	10	n/a	n/a	n/a	n/a	n/a	n/a	n/a	15	5	4	6	n/a	n/a	n/a	n/a	n/a
1742.304	n/a	PROB	871152	n/a	LTP240	ltpFR	10	n/a	n/a	n/a	n/a	n/a	n/a	n/a	8	2	2	4	n/a	n/a	n/a	n/a	n/a
1744.376	n/a	STOP	872188	n/a	LTP240	ltpFR	10	n/a	n/a	n/a	n/a	n/a	n/a	n/a	n/a	n/a	n/a	n/a	n/a	n/a	n/a	n/a	n/a
1746.506	n/a	WORD	873253	wordpools/wasnorm_wordpool_less_exclusions.txt	LTP240	ltpFR	10	6	1	CHIMNEY	301	n/a	n/a	0	n/a	0	0	0	0.422607421875	0.5869140625	0	lower	zerothre.ttf
1749.518	n/a	START	874759	n/a	LTP240	ltpFR	10	n/a	n/a	n/a	n/a	n/a	n/a	n/a	n/a	n/a	n/a	n/a	n/a	n/a	n/a	n/a	n/a
1750.488	n/a	PROB	875244	n/a	LTP240	ltpFR	10	n/a	n/a	n/a	n/a	n/a	n/a	n/a	15	6	7	2	n/a	n/a	n/a	n/a	n/a
1757.518	n/a	STOP	878759	n/a	LTP240	ltpFR	10	n/a	n/a	n/a	n/a	n/a	n/a	n/a	n/a	n/a	n/a	n/a	n/a	n/a	n/a	n/a	n/a
1758.636	n/a	WORD	879318	wordpools/wasnorm_wordpool_less_exclusions.txt	LTP240	ltpFR	10	6	1	DIAPER	459	n/a	n/a	0	n/a	0	0	0	0.422607421875	0.5869140625	0	lower	zerothre.ttf
1761.648	n/a	START	880824	n/a	LTP240	ltpFR	10	n/a	n/a	n/a	n/a	n/a	n/a	n/a	n/a	n/a	n/a	n/a	n/a	n/a	n/a	n/a	n/a
1762.786	n/a	PROB	881393	n/a	LTP240	ltpFR	10	n/a	n/a	n/a	n/a	n/a	n/a	n/a	15	1	7	7	n/a	n/a	n/a	n/a	n/a
1764.254	n/a	PROB	882127	n/a	LTP240	ltpFR	10	n/a	n/a	n/a	n/a	n/a	n/a	n/a	21	6	9	6	n/a	n/a	n/a	n/a	n/a
1767.046	n/a	PROB	883523	n/a	LTP240	ltpFR	10	n/a	n/a	n/a	n/a	n/a	n/a	n/a	7	4	2	1	n/a	n/a	n/a	n/a	n/a
1769.192	n/a	STOP	884596	n/a	LTP240	ltpFR	10	n/a	n/a	n/a	n/a	n/a	n/a	n/a	n/a	n/a	n/a	n/a	n/a	n/a	n/a	n/a	n/a
1770.664	n/a	WORD	885332	wordpools/wasnorm_wordpool_less_exclusions.txt	LTP240	ltpFR	10	6	0	BABY	64	n/a	n/a	1	n/a	0	0	0	0.57763671875	0.412841796875	1	upper	amplitud.ttf
1773.678	n/a	START	886839	n/a	LTP240	ltpFR	10	n/a	n/a	n/a	n/a	n/a	n/a	n/a	n/a	n/a	n/a	n/a	n/a	n/a	n/a	n/a	n/a
1774.732	n/a	PROB	887366	n/a	LTP240	ltpFR	10	n/a	n/a	n/a	n/a	n/a	n/a	n/a	15	7	7	1	n/a	n/a	n/a	n/a	n/a
1776.116	n/a	PROB	888058	n/a	LTP240	ltpFR	10	n/a	n/a	n/a	n/a	n/a	n/a	n/a	11	4	3	4	n/a	n/a	n/a	n/a	n/a
1778.362	n/a	PROB	889181	n/a	LTP240	ltpFR	10	n/a	n/a	n/a	n/a	n/a	n/a	n/a	21	5	8	8	n/a	n/a	n/a	n/a	n/a
1780.306	n/a	STOP	890153	n/a	LTP240	ltpFR	10	n/a	n/a	n/a	n/a	n/a	n/a	n/a	n/a	n/a	n/a	n/a	n/a	n/a	n/a	n/a	n/a
1782.728	n/a	WORD	891364	wordpools/wasnorm_wordpool_less_exclusions.txt	LTP240	ltpFR	10	6	0	COMMITTEE	355	n/a	n/a	1	n/a	0	0	0	0.57763671875	0.412841796875	1	upper	amplitud.ttf
1785.74	n/a	START	892870	n/a	LTP240	ltpFR	10	n/a	n/a	n/a	n/a	n/a	n/a	n/a	n/a	n/a	n/a	n/a	n/a	n/a	n/a	n/a	n/a
1786.744	n/a	PROB	893372	n/a	LTP240	ltpFR	10	n/a	n/a	n/a	n/a	n/a	n/a	n/a	17	1	7	9	n/a	n/a	n/a	n/a	n/a
1789.6	n/a	PROB	894800	n/a	LTP240	ltpFR	10	n/a	n/a	n/a	n/a	n/a	n/a	n/a	17	8	6	3	n/a	n/a	n/a	n/a	n/a
1791.814	n/a	PROB	895907	n/a	LTP240	ltpFR	10	n/a	n/a	n/a	n/a	n/a	n/a	n/a	12	5	6	1	n/a	n/a	n/a	n/a	n/a
1793.682	n/a	STOP	896841	n/a	LTP240	ltpFR	10	n/a	n/a	n/a	n/a	n/a	n/a	n/a	n/a	n/a	n/a	n/a	n/a	n/a	n/a	n/a	n/a
1794.908	n/a	WORD	897454	wordpools/wasnorm_wordpool_less_exclusions.txt	LTP240	ltpFR	10	6	0	LASER	801	n/a	n/a	0	n/a	0	0	0	0.57763671875	0.412841796875	1	upper	amplitud.ttf
1797.918	n/a	START	898959	n/a	LTP240	ltpFR	10	n/a	n/a	n/a	n/a	n/a	n/a	n/a	n/a	n/a	n/a	n/a	n/a	n/a	n/a	n/a	n/a
1799.086	n/a	PROB	899543	n/a	LTP240	ltpFR	10	n/a	n/a	n/a	n/a	n/a	n/a	n/a	22	8	8	6	n/a	n/a	n/a	n/a	n/a
1801.68	n/a	PROB	900840	n/a	LTP240	ltpFR	10	n/a	n/a	n/a	n/a	n/a	n/a	n/a	16	5	9	2	n/a	n/a	n/a	n/a	n/a
1805.918	n/a	STOP	902959	n/a	LTP240	ltpFR	10	n/a	n/a	n/a	n/a	n/a	n/a	n/a	n/a	n/a	n/a	n/a	n/a	n/a	n/a	n/a	n/a
1807.02	n/a	WORD	903510	wordpools/wasnorm_wordpool_less_exclusions.txt	LTP240	ltpFR	10	6	1	CANDLE	229	n/a	n/a	0	n/a	0	0	0	0.422607421875	0.5869140625	0	lower	zerothre.ttf
1810.032	n/a	START	905016	n/a	LTP240	ltpFR	10	n/a	n/a	n/a	n/a	n/a	n/a	n/a	n/a	n/a	n/a	n/a	n/a	n/a	n/a	n/a	n/a
1811.07	n/a	PROB	905535	n/a	LTP240	ltpFR	10	n/a	n/a	n/a	n/a	n/a	n/a	n/a	12	6	3	3	n/a	n/a	n/a	n/a	n/a
1813.814	n/a	PROB	906907	n/a	LTP240	ltpFR	10	n/a	n/a	n/a	n/a	n/a	n/a	n/a	12	5	6	1	n/a	n/a	n/a	n/a	n/a
1818.026	n/a	STOP	909013	n/a	LTP240	ltpFR	10	n/a	n/a	n/a	n/a	n/a	n/a	n/a	n/a	n/a	n/a	n/a	n/a	n/a	n/a	n/a	n/a
1818.882	n/a	WORD	909441	wordpools/wasnorm_wordpool_less_exclusions.txt	LTP240	ltpFR	10	6	1	MILITARY	894	n/a	n/a	0	n/a	0	0	0	0.422607421875	0.5869140625	0	lower	zerothre.ttf
1821.894	n/a	START	910947	n/a	LTP240	ltpFR	10	n/a	n/a	n/a	n/a	n/a	n/a	n/a	n/a	n/a	n/a	n/a	n/a	n/a	n/a	n/a	n/a
1822.864	n/a	PROB	911432	n/a	LTP240	ltpFR	10	n/a	n/a	n/a	n/a	n/a	n/a	n/a	25	9	9	7	n/a	n/a	n/a	n/a	n/a
1825.386	n/a	PROB	912693	n/a	LTP240	ltpFR	10	n/a	n/a	n/a	n/a	n/a	n/a	n/a	14	9	1	4	n/a	n/a	n/a	n/a	n/a
1827.194	n/a	PROB	913597	n/a	LTP240	ltpFR	10	n/a	n/a	n/a	n/a	n/a	n/a	n/a	11	3	3	5	n/a	n/a	n/a	n/a	n/a
1829.604	n/a	STOP	914802	n/a	LTP240	ltpFR	10	n/a	n/a	n/a	n/a	n/a	n/a	n/a	n/a	n/a	n/a	n/a	n/a	n/a	n/a	n/a	n/a
1831.012	n/a	WORD	915506	wordpools/wasnorm_wordpool_less_exclusions.txt	LTP240	ltpFR	10	6	1	MOTHER	921	n/a	n/a	1	n/a	0	0	0	0.422607421875	0.5869140625	0	lower	zerothre.ttf
1834.024	n/a	START	917012	n/a	LTP240	ltpFR	10	n/a	n/a	n/a	n/a	n/a	n/a	n/a	n/a	n/a	n/a	n/a	n/a	n/a	n/a	n/a	n/a
1835.094	n/a	PROB	917547	n/a	LTP240	ltpFR	10	n/a	n/a	n/a	n/a	n/a	n/a	n/a	21	6	9	6	n/a	n/a	n/a	n/a	n/a
1837.282	n/a	PROB	918641	n/a	LTP240	ltpFR	10	n/a	n/a	n/a	n/a	n/a	n/a	n/a	16	4	8	4	n/a	n/a	n/a	n/a	n/a
1840.836	n/a	STOP	920418	n/a	LTP240	ltpFR	10	n/a	n/a	n/a	n/a	n/a	n/a	n/a	n/a	n/a	n/a	n/a	n/a	n/a	n/a	n/a	n/a
1843.192	n/a	WORD	921596	wordpools/wasnorm_wordpool_less_exclusions.txt	LTP240	ltpFR	10	6	1	SENATE	1267	n/a	n/a	0	n/a	0	0	0	0.422607421875	0.5869140625	0	lower	zerothre.ttf
1846.204	n/a	START	923102	n/a	LTP240	ltpFR	10	n/a	n/a	n/a	n/a	n/a	n/a	n/a	n/a	n/a	n/a	n/a	n/a	n/a	n/a	n/a	n/a
1847.074	n/a	PROB	923537	n/a	LTP240	ltpFR	10	n/a	n/a	n/a	n/a	n/a	n/a	n/a	10	2	7	1	n/a	n/a	n/a	n/a	n/a
1848.844	n/a	PROB	924422	n/a	LTP240	ltpFR	10	n/a	n/a	n/a	n/a	n/a	n/a	n/a	11	6	4	1	n/a	n/a	n/a	n/a	n/a
1850.266	n/a	PROB	925133	n/a	LTP240	ltpFR	10	n/a	n/a	n/a	n/a	n/a	n/a	n/a	22	7	7	8	n/a	n/a	n/a	n/a	n/a
1852.766	n/a	STOP	926383	n/a	LTP240	ltpFR	10	n/a	n/a	n/a	n/a	n/a	n/a	n/a	n/a	n/a	n/a	n/a	n/a	n/a	n/a	n/a	n/a
1855.272	n/a	WORD	927636	wordpools/wasnorm_wordpool_less_exclusions.txt	LTP240	ltpFR	10	6	0	COLONEL	348	n/a	n/a	1	n/a	0	0	0	0.57763671875	0.412841796875	1	upper	amplitud.ttf
1858.284	n/a	START	929142	n/a	LTP240	ltpFR	10	n/a	n/a	n/a	n/a	n/a	n/a	n/a	n/a	n/a	n/a	n/a	n/a	n/a	n/a	n/a	n/a
1859.454	n/a	PROB	929727	n/a	LTP240	ltpFR	10	n/a	n/a	n/a	n/a	n/a	n/a	n/a	19	9	2	8	n/a	n/a	n/a	n/a	n/a
1861.362	n/a	PROB	930681	n/a	LTP240	ltpFR	10	n/a	n/a	n/a	n/a	n/a	n/a	n/a	15	3	4	8	n/a	n/a	n/a	n/a	n/a
1863.966	n/a	PROB	931983	n/a	LTP240	ltpFR	10	n/a	n/a	n/a	n/a	n/a	n/a	n/a	18	4	7	7	n/a	n/a	n/a	n/a	n/a
1865.806	n/a	STOP	932903	n/a	LTP240	ltpFR	10	n/a	n/a	n/a	n/a	n/a	n/a	n/a	n/a	n/a	n/a	n/a	n/a	n/a	n/a	n/a	n/a
1867.284	n/a	WORD	933642	wordpools/wasnorm_wordpool_less_exclusions.txt	LTP240	ltpFR	10	6	0	ANIMAL	23	n/a	n/a	1	n/a	0	0	0	0.57763671875	0.412841796875	1	upper	amplitud.ttf
1870.296	n/a	START	935148	n/a	LTP240	ltpFR	10	n/a	n/a	n/a	n/a	n/a	n/a	n/a	n/a	n/a	n/a	n/a	n/a	n/a	n/a	n/a	n/a
1871.162	n/a	PROB	935581	n/a	LTP240	ltpFR	10	n/a	n/a	n/a	n/a	n/a	n/a	n/a	16	9	1	6	n/a	n/a	n/a	n/a	n/a
1872.538	n/a	PROB	936269	n/a	LTP240	ltpFR	10	n/a	n/a	n/a	n/a	n/a	n/a	n/a	20	6	5	9	n/a	n/a	n/a	n/a	n/a
1877.182	n/a	STOP	938591	n/a	LTP240	ltpFR	10	n/a	n/a	n/a	n/a	n/a	n/a	n/a	n/a	n/a	n/a	n/a	n/a	n/a	n/a	n/a	n/a
1879.31	n/a	WORD	939655	wordpools/wasnorm_wordpool_less_exclusions.txt	LTP240	ltpFR	10	6	0	OX	994	n/a	n/a	1	n/a	0	0	0	0.57763671875	0.412841796875	1	upper	amplitud.ttf
1882.326	n/a	START	941163	n/a	LTP240	ltpFR	10	n/a	n/a	n/a	n/a	n/a	n/a	n/a	n/a	n/a	n/a	n/a	n/a	n/a	n/a	n/a	n/a
1883.378	n/a	PROB	941689	n/a	LTP240	ltpFR	10	n/a	n/a	n/a	n/a	n/a	n/a	n/a	18	7	6	5	n/a	n/a	n/a	n/a	n/a
1886.922	n/a	PROB	943461	n/a	LTP240	ltpFR	10	n/a	n/a	n/a	n/a	n/a	n/a	n/a	12	4	4	4	n/a	n/a	n/a	n/a	n/a
1888.316	n/a	PROB	944158	n/a	LTP240	ltpFR	10	n/a	n/a	n/a	n/a	n/a	n/a	n/a	9	2	2	5	n/a	n/a	n/a	n/a	n/a
1890.038	n/a	STOP	945019	n/a	LTP240	ltpFR	10	n/a	n/a	n/a	n/a	n/a	n/a	n/a	n/a	n/a	n/a	n/a	n/a	n/a	n/a	n/a	n/a
1892.13	n/a	REC_START	946065	n/a	LTP240	ltpFR	10	6	n/a	n/a	n/a	n/a	n/a	n/a	n/a	0	0	0	n/a	n/a	n/a	n/a	n/a
1894.6	n/a	REC_WORD	947300	wordpools/wasnorm_wordpool_less_exclusions.txt	LTP240	ltpFR	10	6	0	OX	994	n/a	n/a	1	n/a	0	0	0	n/a	n/a	n/a	n/a	n/a
1895.906	n/a	REC_WORD	947953	wordpools/wasnorm_wordpool_less_exclusions.txt	LTP240	ltpFR	10	6	0	ANIMAL	23	n/a	n/a	1	n/a	0	0	0	n/a	n/a	n/a	n/a	n/a
1900.362	n/a	REC_WORD	950181	wordpools/wasnorm_wordpool_less_exclusions.txt	LTP240	ltpFR	10	6	1	STAGE	1366	n/a	n/a	0	n/a	0	0	0	n/a	n/a	n/a	n/a	n/a
1905.386	n/a	REC_WORD	952693	wordpools/wasnorm_wordpool_less_exclusions.txt	LTP240	ltpFR	10	6	0	COMMITTEE	355	n/a	n/a	1	n/a	0	0	0	n/a	n/a	n/a	n/a	n/a
1906.284	n/a	REC_WORD	953142	wordpools/wasnorm_wordpool_less_exclusions.txt	LTP240	ltpFR	10	6	1	SENATE	1267	n/a	n/a	0	n/a	0	0	0	n/a	n/a	n/a	n/a	n/a
1960.618	n/a	REC_WORD	980309	wordpools/wasnorm_wordpool_less_exclusions.txt	LTP240	ltpFR	10	6	0	BABY	64	n/a	n/a	1	n/a	0	0	0	n/a	n/a	n/a	n/a	n/a
1973.406	n/a	WORD	986703	wordpools/wasnorm_wordpool_less_exclusions.txt	LTP240	ltpFR	10	7	0	BLUEBERRY	140	n/a	n/a	0	n/a	0	0	0	0.57763671875	0.412841796875	1	upper	amplitud.ttf
1977.488	n/a	WORD	988744	wordpools/wasnorm_wordpool_less_exclusions.txt	LTP240	ltpFR	10	7	0	BREAD	170	n/a	n/a	1	n/a	0	0	0	0.57763671875	0.412841796875	1	upper	amplitud.ttf
1981.588	n/a	WORD	990794	wordpools/wasnorm_wordpool_less_exclusions.txt	LTP240	ltpFR	10	7	0	PASTRY	1022	n/a	n/a	0	n/a	0	0	0	0.57763671875	0.412841796875	1	upper	amplitud.ttf
1985.738	n/a	WORD	992869	wordpools/wasnorm_wordpool_less_exclusions.txt	LTP240	ltpFR	10	7	0	COOKIE	374	n/a	n/a	0	n/a	0	0	0	0.57763671875	0.412841796875	1	upper	amplitud.ttf
1989.864	n/a	WORD	994932	wordpools/wasnorm_wordpool_less_exclusions.txt	LTP240	ltpFR	10	7	0	GARDEN	623	n/a	n/a	1	n/a	0	0	0	0.57763671875	0.412841796875	1	upper	amplitud.ttf
1993.75	n/a	WORD	996875	wordpools/wasnorm_wordpool_less_exclusions.txt	LTP240	ltpFR	10	7	0	INSTRUCTOR	741	n/a	n/a	1	n/a	0	0	0	0.57763671875	0.412841796875	1	upper	amplitud.ttf
1997.83	n/a	WORD	998915	wordpools/wasnorm_wordpool_less_exclusions.txt	LTP240	ltpFR	10	7	0	COTTON	385	n/a	n/a	0	n/a	0	0	0	0.57763671875	0.412841796875	1	upper	amplitud.ttf
2001.762	n/a	WORD	1000881	wordpools/wasnorm_wordpool_less_exclusions.txt	LTP240	ltpFR	10	7	0	FRUIT	610	n/a	n/a	0	n/a	0	0	0	0.57763671875	0.412841796875	1	upper	amplitud.ttf
2005.946	n/a	WORD	1002973	wordpools/wasnorm_wordpool_less_exclusions.txt	LTP240	ltpFR	10	7	0	LIME	823	n/a	n/a	0	n/a	0	0	0	0.57763671875	0.412841796875	1	upper	amplitud.ttf
2009.84	n/a	WORD	1004920	wordpools/wasnorm_wordpool_less_exclusions.txt	LTP240	ltpFR	10	7	0	RIVER	1194	n/a	n/a	1	n/a	0	0	0	0.57763671875	0.412841796875	1	upper	amplitud.ttf
2013.91	n/a	WORD	1006955	wordpools/wasnorm_wordpool_less_exclusions.txt	LTP240	ltpFR	10	7	0	MUSEUM	933	n/a	n/a	1	n/a	0	0	0	0.57763671875	0.412841796875	1	upper	amplitud.ttf
2017.876	n/a	WORD	1008938	wordpools/wasnorm_wordpool_less_exclusions.txt	LTP240	ltpFR	10	7	0	WAND	1586	n/a	n/a	0	n/a	0	0	0	0.57763671875	0.412841796875	1	upper	amplitud.ttf
2021.84	n/a	WORD	1010920	wordpools/wasnorm_wordpool_less_exclusions.txt	LTP240	ltpFR	10	7	0	HAMMOCK	681	n/a	n/a	1	n/a	0	0	0	0.57763671875	0.412841796875	1	upper	amplitud.ttf
2025.84	n/a	WORD	1012920	wordpools/wasnorm_wordpool_less_exclusions.txt	LTP240	ltpFR	10	7	0	ROSE	1212	n/a	n/a	0	n/a	0	0	0	0.57763671875	0.412841796875	1	upper	amplitud.ttf
2030.006	n/a	WORD	1015003	wordpools/wasnorm_wordpool_less_exclusions.txt	LTP240	ltpFR	10	7	0	SILK	1307	n/a	n/a	0	n/a	0	0	0	0.57763671875	0.412841796875	1	upper	amplitud.ttf
2034.172	n/a	WORD	1017086	wordpools/wasnorm_wordpool_less_exclusions.txt	LTP240	ltpFR	10	7	0	ROOM	1206	n/a	n/a	1	n/a	0	0	0	0.57763671875	0.412841796875	1	upper	amplitud.ttf
2037.184	n/a	START	1018592	n/a	LTP240	ltpFR	10	n/a	n/a	n/a	n/a	n/a	n/a	n/a	n/a	n/a	n/a	n/a	n/a	n/a	n/a	n/a	n/a
2038.104	n/a	PROB	1019052	n/a	LTP240	ltpFR	10	n/a	n/a	n/a	n/a	n/a	n/a	n/a	10	4	5	1	n/a	n/a	n/a	n/a	n/a
2040.196	n/a	PROB	1020098	n/a	LTP240	ltpFR	10	n/a	n/a	n/a	n/a	n/a	n/a	n/a	13	7	4	2	n/a	n/a	n/a	n/a	n/a
2045.184	n/a	STOP	1022592	n/a	LTP240	ltpFR	10	n/a	n/a	n/a	n/a	n/a	n/a	n/a	n/a	n/a	n/a	n/a	n/a	n/a	n/a	n/a	n/a
2047.14	n/a	REC_START	1023570	n/a	LTP240	ltpFR	10	7	n/a	n/a	n/a	n/a	n/a	n/a	n/a	0	0	0	n/a	n/a	n/a	n/a	n/a
2050.702	n/a	REC_WORD	1025351	wordpools/wasnorm_wordpool_less_exclusions.txt	LTP240	ltpFR	10	7	0	ROOM	1206	n/a	n/a	1	n/a	0	0	0	n/a	n/a	n/a	n/a	n/a
2051.668	n/a	REC_WORD	1025834	wordpools/wasnorm_wordpool_less_exclusions.txt	LTP240	ltpFR	10	7	0	HAMMOCK	681	n/a	n/a	1	n/a	0	0	0	n/a	n/a	n/a	n/a	n/a
2052.498	n/a	REC_WORD	1026249	wordpools/wasnorm_wordpool_less_exclusions.txt	LTP240	ltpFR	10	7	0	SILK	1307	n/a	n/a	0	n/a	0	0	0	n/a	n/a	n/a	n/a	n/a
2053.998	n/a	REC_WORD	1026999	wordpools/wasnorm_wordpool_less_exclusions.txt	LTP240	ltpFR	10	7	0	COTTON	385	n/a	n/a	0	n/a	0	0	0	n/a	n/a	n/a	n/a	n/a
2055.034	n/a	REC_WORD	1027517	wordpools/wasnorm_wordpool_less_exclusions.txt	LTP240	ltpFR	10	7	0	MUSEUM	933	n/a	n/a	1	n/a	0	0	0	n/a	n/a	n/a	n/a	n/a
2069.18	n/a	REC_WORD	1034590	wordpools/wasnorm_wordpool_less_exclusions.txt	LTP240	ltpFR	10	7	0	FRUIT	610	n/a	n/a	0	n/a	0	0	0	n/a	n/a	n/a	n/a	n/a
2070.298	n/a	REC_WORD	1035149	wordpools/wasnorm_wordpool_less_exclusions.txt	LTP240	ltpFR	10	7	0	LIME	823	n/a	n/a	0	n/a	0	0	0	n/a	n/a	n/a	n/a	n/a
2071.884	n/a	REC_WORD	1035942	wordpools/wasnorm_wordpool_less_exclusions.txt	LTP240	ltpFR	10	7	0	GARDEN	623	n/a	n/a	1	n/a	0	0	0	n/a	n/a	n/a	n/a	n/a
2073.278	n/a	REC_WORD	1036639	wordpools/wasnorm_wordpool_less_exclusions.txt	LTP240	ltpFR	10	7	0	COOKIE	374	n/a	n/a	0	n/a	0	0	0	n/a	n/a	n/a	n/a	n/a
2074.524	n/a	REC_WORD	1037262	wordpools/wasnorm_wordpool_less_exclusions.txt	LTP240	ltpFR	10	7	0	BLUEBERRY	140	n/a	n/a	0	n/a	0	0	0	n/a	n/a	n/a	n/a	n/a
2075.796	n/a	REC_WORD	1037898	wordpools/wasnorm_wordpool_less_exclusions.txt	LTP240	ltpFR	10	7	0	PASTRY	1022	n/a	n/a	0	n/a	0	0	0	n/a	n/a	n/a	n/a	n/a
2077.458	n/a	REC_WORD	1038729	wordpools/wasnorm_wordpool_less_exclusions.txt	LTP240	ltpFR	10	7	0	BREAD	170	n/a	n/a	1	n/a	0	0	0	n/a	n/a	n/a	n/a	n/a
2128.734	n/a	WORD	1064367	wordpools/wasnorm_wordpool_less_exclusions.txt	LTP240	ltpFR	10	8	0	TIMBER	1469	n/a	n/a	1	n/a	0	0	0	0.57763671875	0.412841796875	1	upper	amplitud.ttf
2132.732	n/a	WORD	1066366	wordpools/wasnorm_wordpool_less_exclusions.txt	LTP240	ltpFR	10	8	0	DOLL	481	n/a	n/a	0	n/a	0	0	0	0.57763671875	0.412841796875	1	upper	amplitud.ttf
2136.814	n/a	WORD	1068407	wordpools/wasnorm_wordpool_less_exclusions.txt	LTP240	ltpFR	10	8	0	GRILL	661	n/a	n/a	1	n/a	0	0	0	0.57763671875	0.412841796875	1	upper	amplitud.ttf
2140.658	n/a	WORD	1070329	wordpools/wasnorm_wordpool_less_exclusions.txt	LTP240	ltpFR	10	8	0	ELM	527	n/a	n/a	1	n/a	0	0	0	0.57763671875	0.412841796875	1	upper	amplitud.ttf
2144.578	n/a	WORD	1072289	wordpools/wasnorm_wordpool_less_exclusions.txt	LTP240	ltpFR	10	8	0	ASIA	46	n/a	n/a	1	n/a	0	0	0	0.57763671875	0.412841796875	1	upper	amplitud.ttf
2148.558	n/a	WORD	1074279	wordpools/wasnorm_wordpool_less_exclusions.txt	LTP240	ltpFR	10	8	0	DRESSER	496	n/a	n/a	1	n/a	0	0	0	0.57763671875	0.412841796875	1	upper	amplitud.ttf
2152.642	n/a	WORD	1076321	wordpools/wasnorm_wordpool_less_exclusions.txt	LTP240	ltpFR	10	8	0	LINT	826	n/a	n/a	0	n/a	0	0	0	0.57763671875	0.412841796875	1	upper	amplitud.ttf
2156.624	n/a	WORD	1078312	wordpools/wasnorm_wordpool_less_exclusions.txt	LTP240	ltpFR	10	8	0	SNACK	1331	n/a	n/a	0	n/a	0	0	0	0.57763671875	0.412841796875	1	upper	amplitud.ttf
2160.652	n/a	WORD	1080326	wordpools/wasnorm_wordpool_less_exclusions.txt	LTP240	ltpFR	10	8	0	SUBURB	1399	n/a	n/a	1	n/a	0	0	0	0.57763671875	0.412841796875	1	upper	amplitud.ttf
2164.87	n/a	WORD	1082435	wordpools/wasnorm_wordpool_less_exclusions.txt	LTP240	ltpFR	10	8	0	SHACK	1273	n/a	n/a	1	n/a	0	0	0	0.57763671875	0.412841796875	1	upper	amplitud.ttf
2169.002	n/a	WORD	1084501	wordpools/wasnorm_wordpool_less_exclusions.txt	LTP240	ltpFR	10	8	0	HUT	729	n/a	n/a	1	n/a	0	0	0	0.57763671875	0.412841796875	1	upper	amplitud.ttf
2172.964	n/a	WORD	1086482	wordpools/wasnorm_wordpool_less_exclusions.txt	LTP240	ltpFR	10	8	0	GROCERIES	663	n/a	n/a	0	n/a	0	0	0	0.57763671875	0.412841796875	1	upper	amplitud.ttf
2177.034	n/a	WORD	1088517	wordpools/wasnorm_wordpool_less_exclusions.txt	LTP240	ltpFR	10	8	0	MUSHROOM	934	n/a	n/a	0	n/a	0	0	0	0.57763671875	0.412841796875	1	upper	amplitud.ttf
2180.982	n/a	WORD	1090491	wordpools/wasnorm_wordpool_less_exclusions.txt	LTP240	ltpFR	10	8	0	HAM	678	n/a	n/a	1	n/a	0	0	0	0.57763671875	0.412841796875	1	upper	amplitud.ttf
2184.86	n/a	WORD	1092430	wordpools/wasnorm_wordpool_less_exclusions.txt	LTP240	ltpFR	10	8	0	BOOTH	151	n/a	n/a	1	n/a	0	0	0	0.57763671875	0.412841796875	1	upper	amplitud.ttf
2188.762	n/a	WORD	1094381	wordpools/wasnorm_wordpool_less_exclusions.txt	LTP240	ltpFR	10	8	0	STAPLE	1371	n/a	n/a	0	n/a	0	0	0	0.57763671875	0.412841796875	1	upper	amplitud.ttf
2194.686	n/a	REC_START	1097343	n/a	LTP240	ltpFR	10	8	n/a	n/a	n/a	n/a	n/a	n/a	n/a	0	0	0	n/a	n/a	n/a	n/a	n/a
2197.086	n/a	REC_WORD	1098543	wordpools/wasnorm_wordpool_less_exclusions.txt	LTP240	ltpFR	10	8	0	STAPLE	1371	n/a	n/a	0	n/a	0	0	0	n/a	n/a	n/a	n/a	n/a
2199.478	n/a	REC_WORD	1099739	wordpools/wasnorm_wordpool_less_exclusions.txt	LTP240	ltpFR	10	8	0	HAM	678	n/a	n/a	1	n/a	0	0	0	n/a	n/a	n/a	n/a	n/a
2214.322	n/a	REC_WORD	1107161	wordpools/wasnorm_wordpool_less_exclusions.txt	LTP240	ltpFR	10	8	0	GROCERIES	663	n/a	n/a	0	n/a	0	0	0	n/a	n/a	n/a	n/a	n/a
2241.626	n/a	REC_WORD	1120813	wordpools/wasnorm_wordpool_less_exclusions.txt	LTP240	ltpFR	10	8	0	SUBURB	1399	n/a	n/a	1	n/a	0	0	0	n/a	n/a	n/a	n/a	n/a
2243.976	n/a	REC_WORD	1121988	wordpools/wasnorm_wordpool_less_exclusions.txt	LTP240	ltpFR	10	8	0	HUT	729	n/a	n/a	1	n/a	0	0	0	n/a	n/a	n/a	n/a	n/a
2244.52	n/a	REC_WORD	1122260	wordpools/wasnorm_wordpool_less_exclusions.txt	LTP240	ltpFR	10	8	0	SHACK	1273	n/a	n/a	1	n/a	0	0	0	n/a	n/a	n/a	n/a	n/a
2252.966	n/a	REC_WORD	1126483	wordpools/wasnorm_wordpool_less_exclusions.txt	LTP240	ltpFR	10	8	0	GRILL	661	n/a	n/a	1	n/a	0	0	0	n/a	n/a	n/a	n/a	n/a
2284.596	n/a	START	1142298	n/a	LTP240	ltpFR	10	n/a	n/a	n/a	n/a	n/a	n/a	n/a	n/a	n/a	n/a	n/a	n/a	n/a	n/a	n/a	n/a
2286.114	n/a	PROB	1143057	n/a	LTP240	ltpFR	10	n/a	n/a	n/a	n/a	n/a	n/a	n/a	13	5	6	2	n/a	n/a	n/a	n/a	n/a
2289.16	n/a	PROB	1144580	n/a	LTP240	ltpFR	10	n/a	n/a	n/a	n/a	n/a	n/a	n/a	19	4	6	9	n/a	n/a	n/a	n/a	n/a
2290.72	n/a	PROB	1145360	n/a	LTP240	ltpFR	10	n/a	n/a	n/a	n/a	n/a	n/a	n/a	7	2	4	1	n/a	n/a	n/a	n/a	n/a
2293.208	n/a	PROB	1146604	n/a	LTP240	ltpFR	10	n/a	n/a	n/a	n/a	n/a	n/a	n/a	18	3	7	8	n/a	n/a	n/a	n/a	n/a
2294.6	n/a	PROB	1147300	n/a	LTP240	ltpFR	10	n/a	n/a	n/a	n/a	n/a	n/a	n/a	19	6	6	7	n/a	n/a	n/a	n/a	n/a
2297.508	n/a	PROB	1148754	n/a	LTP240	ltpFR	10	n/a	n/a	n/a	n/a	n/a	n/a	n/a	12	9	2	1	n/a	n/a	n/a	n/a	n/a
2300.596	n/a	STOP	1150298	n/a	LTP240	ltpFR	10	n/a	n/a	n/a	n/a	n/a	n/a	n/a	n/a	n/a	n/a	n/a	n/a	n/a	n/a	n/a	n/a
2301.61	n/a	WORD	1150805	wordpools/wasnorm_wordpool_less_exclusions.txt	LTP240	ltpFR	10	9	1	ANT	25	n/a	n/a	1	n/a	0	0	0	0.422607421875	0.5869140625	0	lower	zerothre.ttf
2304.624	n/a	START	1152312	n/a	LTP240	ltpFR	10	n/a	n/a	n/a	n/a	n/a	n/a	n/a	n/a	n/a	n/a	n/a	n/a	n/a	n/a	n/a	n/a
2305.476	n/a	PROB	1152738	n/a	LTP240	ltpFR	10	n/a	n/a	n/a	n/a	n/a	n/a	n/a	14	6	4	4	n/a	n/a	n/a	n/a	n/a
2307.43	n/a	PROB	1153715	n/a	LTP240	ltpFR	10	n/a	n/a	n/a	n/a	n/a	n/a	n/a	16	5	3	8	n/a	n/a	n/a	n/a	n/a
2309.624	n/a	PROB	1154812	n/a	LTP240	ltpFR	10	n/a	n/a	n/a	n/a	n/a	n/a	n/a	16	3	9	4	n/a	n/a	n/a	n/a	n/a
2311.796	n/a	PROB	1155898	n/a	LTP240	ltpFR	10	n/a	n/a	n/a	n/a	n/a	n/a	n/a	6	2	1	3	n/a	n/a	n/a	n/a	n/a
2313.87	n/a	PROB	1156935	n/a	LTP240	ltpFR	10	n/a	n/a	n/a	n/a	n/a	n/a	n/a	15	5	4	6	n/a	n/a	n/a	n/a	n/a
2315.61	n/a	PROB	1157805	n/a	LTP240	ltpFR	10	n/a	n/a	n/a	n/a	n/a	n/a	n/a	15	7	5	3	n/a	n/a	n/a	n/a	n/a
2320.614	n/a	STOP	1160307	n/a	LTP240	ltpFR	10	n/a	n/a	n/a	n/a	n/a	n/a	n/a	n/a	n/a	n/a	n/a	n/a	n/a	n/a	n/a	n/a
2321.536	n/a	WORD	1160768	wordpools/wasnorm_wordpool_less_exclusions.txt	LTP240	ltpFR	10	9	1	DIAL	457	n/a	n/a	0	n/a	0	0	0	0.422607421875	0.5869140625	0	lower	zerothre.ttf
2324.55	n/a	START	1162275	n/a	LTP240	ltpFR	10	n/a	n/a	n/a	n/a	n/a	n/a	n/a	n/a	n/a	n/a	n/a	n/a	n/a	n/a	n/a	n/a
2325.436	n/a	PROB	1162718	n/a	LTP240	ltpFR	10	n/a	n/a	n/a	n/a	n/a	n/a	n/a	20	9	9	2	n/a	n/a	n/a	n/a	n/a
2328.476	n/a	PROB	1164238	n/a	LTP240	ltpFR	10	n/a	n/a	n/a	n/a	n/a	n/a	n/a	13	9	3	1	n/a	n/a	n/a	n/a	n/a
2330.836	n/a	PROB	1165418	n/a	LTP240	ltpFR	10	n/a	n/a	n/a	n/a	n/a	n/a	n/a	20	7	4	9	n/a	n/a	n/a	n/a	n/a
2333.946	n/a	PROB	1166973	n/a	LTP240	ltpFR	10	n/a	n/a	n/a	n/a	n/a	n/a	n/a	14	1	8	5	n/a	n/a	n/a	n/a	n/a
2340.548	n/a	STOP	1170274	n/a	LTP240	ltpFR	10	n/a	n/a	n/a	n/a	n/a	n/a	n/a	n/a	n/a	n/a	n/a	n/a	n/a	n/a	n/a	n/a
2341.748	n/a	WORD	1170874	wordpools/wasnorm_wordpool_less_exclusions.txt	LTP240	ltpFR	10	9	1	KITTEN	780	n/a	n/a	1	n/a	0	0	0	0.422607421875	0.5869140625	0	lower	zerothre.ttf
2344.76	n/a	START	1172380	n/a	LTP240	ltpFR	10	n/a	n/a	n/a	n/a	n/a	n/a	n/a	n/a	n/a	n/a	n/a	n/a	n/a	n/a	n/a	n/a
2345.814	n/a	PROB	1172907	n/a	LTP240	ltpFR	10	n/a	n/a	n/a	n/a	n/a	n/a	n/a	13	9	3	1	n/a	n/a	n/a	n/a	n/a
2347.55	n/a	PROB	1173775	n/a	LTP240	ltpFR	10	n/a	n/a	n/a	n/a	n/a	n/a	n/a	16	6	4	6	n/a	n/a	n/a	n/a	n/a
2349.908	n/a	PROB	1174954	n/a	LTP240	ltpFR	10	n/a	n/a	n/a	n/a	n/a	n/a	n/a	12	3	8	1	n/a	n/a	n/a	n/a	n/a
2352.016	n/a	PROB	1176008	n/a	LTP240	ltpFR	10	n/a	n/a	n/a	n/a	n/a	n/a	n/a	8	3	4	1	n/a	n/a	n/a	n/a	n/a
2354.026	n/a	PROB	1177013	n/a	LTP240	ltpFR	10	n/a	n/a	n/a	n/a	n/a	n/a	n/a	11	5	5	1	n/a	n/a	n/a	n/a	n/a
2355.534	n/a	PROB	1177767	n/a	LTP240	ltpFR	10	n/a	n/a	n/a	n/a	n/a	n/a	n/a	17	8	3	6	n/a	n/a	n/a	n/a	n/a
2358.26	n/a	PROB	1179130	n/a	LTP240	ltpFR	10	n/a	n/a	n/a	n/a	n/a	n/a	n/a	18	8	7	3	n/a	n/a	n/a	n/a	n/a
2359.776	n/a	STOP	1179888	n/a	LTP240	ltpFR	10	n/a	n/a	n/a	n/a	n/a	n/a	n/a	n/a	n/a	n/a	n/a	n/a	n/a	n/a	n/a	n/a
2361.69	n/a	WORD	1180845	wordpools/wasnorm_wordpool_less_exclusions.txt	LTP240	ltpFR	10	9	1	PERSONNEL	1053	n/a	n/a	1	n/a	0	0	0	0.422607421875	0.5869140625	0	lower	zerothre.ttf
2364.702	n/a	START	1182351	n/a	LTP240	ltpFR	10	n/a	n/a	n/a	n/a	n/a	n/a	n/a	n/a	n/a	n/a	n/a	n/a	n/a	n/a	n/a	n/a
2365.518	n/a	PROB	1182759	n/a	LTP240	ltpFR	10	n/a	n/a	n/a	n/a	n/a	n/a	n/a	19	6	9	4	n/a	n/a	n/a	n/a	n/a
2367.026	n/a	PROB	1183513	n/a	LTP240	ltpFR	10	n/a	n/a	n/a	n/a	n/a	n/a	n/a	15	6	8	1	n/a	n/a	n/a	n/a	n/a
2370.604	n/a	PROB	1185302	n/a	LTP240	ltpFR	10	n/a	n/a	n/a	n/a	n/a	n/a	n/a	23	8	6	9	n/a	n/a	n/a	n/a	n/a
2374.836	n/a	PROB	1187418	n/a	LTP240	ltpFR	10	n/a	n/a	n/a	n/a	n/a	n/a	n/a	17	1	9	7	n/a	n/a	n/a	n/a	n/a
2376.526	n/a	PROB	1188263	n/a	LTP240	ltpFR	10	n/a	n/a	n/a	n/a	n/a	n/a	n/a	24	7	8	9	n/a	n/a	n/a	n/a	n/a
2380.49	n/a	STOP	1190245	n/a	LTP240	ltpFR	10	n/a	n/a	n/a	n/a	n/a	n/a	n/a	n/a	n/a	n/a	n/a	n/a	n/a	n/a	n/a	n/a
2381.566	n/a	WORD	1190783	wordpools/wasnorm_wordpool_less_exclusions.txt	LTP240	ltpFR	10	9	1	MOB	904	n/a	n/a	0	n/a	0	0	0	0.422607421875	0.5869140625	0	lower	zerothre.ttf
2384.578	n/a	START	1192289	n/a	LTP240	ltpFR	10	n/a	n/a	n/a	n/a	n/a	n/a	n/a	n/a	n/a	n/a	n/a	n/a	n/a	n/a	n/a	n/a
2385.548	n/a	PROB	1192774	n/a	LTP240	ltpFR	10	n/a	n/a	n/a	n/a	n/a	n/a	n/a	17	6	8	3	n/a	n/a	n/a	n/a	n/a
2387.774	n/a	PROB	1193887	n/a	LTP240	ltpFR	10	n/a	n/a	n/a	n/a	n/a	n/a	n/a	23	5	9	9	n/a	n/a	n/a	n/a	n/a
2389.848	n/a	PROB	1194924	n/a	LTP240	ltpFR	10	n/a	n/a	n/a	n/a	n/a	n/a	n/a	10	4	3	3	n/a	n/a	n/a	n/a	n/a
2391.988	n/a	PROB	1195994	n/a	LTP240	ltpFR	10	n/a	n/a	n/a	n/a	n/a	n/a	n/a	20	9	5	6	n/a	n/a	n/a	n/a	n/a
2394.732	n/a	PROB	1197366	n/a	LTP240	ltpFR	10	n/a	n/a	n/a	n/a	n/a	n/a	n/a	15	2	5	8	n/a	n/a	n/a	n/a	n/a
2396.986	n/a	PROB	1198493	n/a	LTP240	ltpFR	10	n/a	n/a	n/a	n/a	n/a	n/a	n/a	14	3	5	6	n/a	n/a	n/a	n/a	n/a
2399.378	n/a	STOP	1199689	n/a	LTP240	ltpFR	10	n/a	n/a	n/a	n/a	n/a	n/a	n/a	n/a	n/a	n/a	n/a	n/a	n/a	n/a	n/a	n/a
2401.726	n/a	WORD	1200863	wordpools/wasnorm_wordpool_less_exclusions.txt	LTP240	ltpFR	10	9	1	CITIZEN	312	n/a	n/a	1	n/a	0	0	0	0.422607421875	0.5869140625	0	lower	zerothre.ttf
2404.738	n/a	START	1202369	n/a	LTP240	ltpFR	10	n/a	n/a	n/a	n/a	n/a	n/a	n/a	n/a	n/a	n/a	n/a	n/a	n/a	n/a	n/a	n/a
2405.772	n/a	PROB	1202886	n/a	LTP240	ltpFR	10	n/a	n/a	n/a	n/a	n/a	n/a	n/a	11	3	6	2	n/a	n/a	n/a	n/a	n/a
2408.198	n/a	PROB	1204099	n/a	LTP240	ltpFR	10	n/a	n/a	n/a	n/a	n/a	n/a	n/a	21	5	7	9	n/a	n/a	n/a	n/a	n/a
2411.028	n/a	PROB	1205514	n/a	LTP240	ltpFR	10	n/a	n/a	n/a	n/a	n/a	n/a	n/a	9	2	2	5	n/a	n/a	n/a	n/a	n/a
2412.798	n/a	PROB	1206399	n/a	LTP240	ltpFR	10	n/a	n/a	n/a	n/a	n/a	n/a	n/a	13	6	1	6	n/a	n/a	n/a	n/a	n/a
2414.504	n/a	PROB	1207252	n/a	LTP240	ltpFR	10	n/a	n/a	n/a	n/a	n/a	n/a	n/a	12	2	8	2	n/a	n/a	n/a	n/a	n/a
2415.892	n/a	PROB	1207946	n/a	LTP240	ltpFR	10	n/a	n/a	n/a	n/a	n/a	n/a	n/a	19	6	7	6	n/a	n/a	n/a	n/a	n/a
2420.74	n/a	STOP	1210370	n/a	LTP240	ltpFR	10	n/a	n/a	n/a	n/a	n/a	n/a	n/a	n/a	n/a	n/a	n/a	n/a	n/a	n/a	n/a	n/a
2421.816	n/a	WORD	1210908	wordpools/wasnorm_wordpool_less_exclusions.txt	LTP240	ltpFR	10	9	1	PLAZA	1088	n/a	n/a	0	n/a	0	0	0	0.422607421875	0.5869140625	0	lower	zerothre.ttf
2424.832	n/a	START	1212416	n/a	LTP240	ltpFR	10	n/a	n/a	n/a	n/a	n/a	n/a	n/a	n/a	n/a	n/a	n/a	n/a	n/a	n/a	n/a	n/a
2425.952	n/a	PROB	1212976	n/a	LTP240	ltpFR	10	n/a	n/a	n/a	n/a	n/a	n/a	n/a	20	8	3	9	n/a	n/a	n/a	n/a	n/a
2429.962	n/a	PROB	1214981	n/a	LTP240	ltpFR	10	n/a	n/a	n/a	n/a	n/a	n/a	n/a	13	7	3	3	n/a	n/a	n/a	n/a	n/a
2431.688	n/a	PROB	1215844	n/a	LTP240	ltpFR	10	n/a	n/a	n/a	n/a	n/a	n/a	n/a	16	6	1	9	n/a	n/a	n/a	n/a	n/a
2433.426	n/a	PROB	1216713	n/a	LTP240	ltpFR	10	n/a	n/a	n/a	n/a	n/a	n/a	n/a	11	2	7	2	n/a	n/a	n/a	n/a	n/a
2435.07	n/a	PROB	1217535	n/a	LTP240	ltpFR	10	n/a	n/a	n/a	n/a	n/a	n/a	n/a	19	8	2	9	n/a	n/a	n/a	n/a	n/a
2436.422	n/a	PROB	1218211	n/a	LTP240	ltpFR	10	n/a	n/a	n/a	n/a	n/a	n/a	n/a	16	5	5	6	n/a	n/a	n/a	n/a	n/a
2437.864	n/a	PROB	1218932	n/a	LTP240	ltpFR	10	n/a	n/a	n/a	n/a	n/a	n/a	n/a	16	5	9	2	n/a	n/a	n/a	n/a	n/a
2439.796	n/a	STOP	1219898	n/a	LTP240	ltpFR	10	n/a	n/a	n/a	n/a	n/a	n/a	n/a	n/a	n/a	n/a	n/a	n/a	n/a	n/a	n/a	n/a
2441.912	n/a	WORD	1220956	wordpools/wasnorm_wordpool_less_exclusions.txt	LTP240	ltpFR	10	9	1	MITTEN	902	n/a	n/a	0	n/a	0	0	0	0.422607421875	0.5869140625	0	lower	zerothre.ttf
2444.924	n/a	START	1222462	n/a	LTP240	ltpFR	10	n/a	n/a	n/a	n/a	n/a	n/a	n/a	n/a	n/a	n/a	n/a	n/a	n/a	n/a	n/a	n/a
2445.792	n/a	PROB	1222896	n/a	LTP240	ltpFR	10	n/a	n/a	n/a	n/a	n/a	n/a	n/a	19	3	9	7	n/a	n/a	n/a	n/a	n/a
2447.368	n/a	PROB	1223684	n/a	LTP240	ltpFR	10	n/a	n/a	n/a	n/a	n/a	n/a	n/a	19	6	7	6	n/a	n/a	n/a	n/a	n/a
2450.09	n/a	PROB	1225045	n/a	LTP240	ltpFR	10	n/a	n/a	n/a	n/a	n/a	n/a	n/a	19	4	6	9	n/a	n/a	n/a	n/a	n/a
2451.43	n/a	PROB	1225715	n/a	LTP240	ltpFR	10	n/a	n/a	n/a	n/a	n/a	n/a	n/a	15	9	1	5	n/a	n/a	n/a	n/a	n/a
2452.67	n/a	PROB	1226335	n/a	LTP240	ltpFR	10	n/a	n/a	n/a	n/a	n/a	n/a	n/a	17	5	3	9	n/a	n/a	n/a	n/a	n/a
2456.064	n/a	PROB	1228032	n/a	LTP240	ltpFR	10	n/a	n/a	n/a	n/a	n/a	n/a	n/a	20	3	9	8	n/a	n/a	n/a	n/a	n/a
2459.47	n/a	STOP	1229735	n/a	LTP240	ltpFR	10	n/a	n/a	n/a	n/a	n/a	n/a	n/a	n/a	n/a	n/a	n/a	n/a	n/a	n/a	n/a	n/a
2462.056	n/a	WORD	1231028	wordpools/wasnorm_wordpool_less_exclusions.txt	LTP240	ltpFR	10	9	1	GLOVE	642	n/a	n/a	0	n/a	0	0	0	0.422607421875	0.5869140625	0	lower	zerothre.ttf
2465.068	n/a	START	1232534	n/a	LTP240	ltpFR	10	n/a	n/a	n/a	n/a	n/a	n/a	n/a	n/a	n/a	n/a	n/a	n/a	n/a	n/a	n/a	n/a
2466.05	n/a	PROB	1233025	n/a	LTP240	ltpFR	10	n/a	n/a	n/a	n/a	n/a	n/a	n/a	12	9	2	1	n/a	n/a	n/a	n/a	n/a
2467.808	n/a	PROB	1233904	n/a	LTP240	ltpFR	10	n/a	n/a	n/a	n/a	n/a	n/a	n/a	4	1	1	2	n/a	n/a	n/a	n/a	n/a
2469.364	n/a	PROB	1234682	n/a	LTP240	ltpFR	10	n/a	n/a	n/a	n/a	n/a	n/a	n/a	11	2	7	2	n/a	n/a	n/a	n/a	n/a
2471.056	n/a	PROB	1235528	n/a	LTP240	ltpFR	10	n/a	n/a	n/a	n/a	n/a	n/a	n/a	9	1	5	3	n/a	n/a	n/a	n/a	n/a
2473.01	n/a	PROB	1236505	n/a	LTP240	ltpFR	10	n/a	n/a	n/a	n/a	n/a	n/a	n/a	12	5	3	4	n/a	n/a	n/a	n/a	n/a
2476.96	n/a	PROB	1238480	n/a	LTP240	ltpFR	10	n/a	n/a	n/a	n/a	n/a	n/a	n/a	15	1	5	9	n/a	n/a	n/a	n/a	n/a
2478.22	n/a	PROB	1239110	n/a	LTP240	ltpFR	10	n/a	n/a	n/a	n/a	n/a	n/a	n/a	11	1	8	2	n/a	n/a	n/a	n/a	n/a
2479.646	n/a	STOP	1239823	n/a	LTP240	ltpFR	10	n/a	n/a	n/a	n/a	n/a	n/a	n/a	n/a	n/a	n/a	n/a	n/a	n/a	n/a	n/a	n/a
2482.2	n/a	WORD	1241100	wordpools/wasnorm_wordpool_less_exclusions.txt	LTP240	ltpFR	10	9	1	GRASSHOPPER	656	n/a	n/a	1	n/a	0	0	0	0.422607421875	0.5869140625	0	lower	zerothre.ttf
2485.212	n/a	START	1242606	n/a	LTP240	ltpFR	10	n/a	n/a	n/a	n/a	n/a	n/a	n/a	n/a	n/a	n/a	n/a	n/a	n/a	n/a	n/a	n/a
2486.366	n/a	PROB	1243183	n/a	LTP240	ltpFR	10	n/a	n/a	n/a	n/a	n/a	n/a	n/a	23	8	8	7	n/a	n/a	n/a	n/a	n/a
2490.244	n/a	PROB	1245122	n/a	LTP240	ltpFR	10	n/a	n/a	n/a	n/a	n/a	n/a	n/a	4	2	1	1	n/a	n/a	n/a	n/a	n/a
2491.482	n/a	PROB	1245741	n/a	LTP240	ltpFR	10	n/a	n/a	n/a	n/a	n/a	n/a	n/a	16	6	1	9	n/a	n/a	n/a	n/a	n/a
2493.19	n/a	PROB	1246595	n/a	LTP240	ltpFR	10	n/a	n/a	n/a	n/a	n/a	n/a	n/a	16	2	7	7	n/a	n/a	n/a	n/a	n/a
2494.962	n/a	PROB	1247481	n/a	LTP240	ltpFR	10	n/a	n/a	n/a	n/a	n/a	n/a	n/a	14	4	9	1	n/a	n/a	n/a	n/a	n/a
2496.436	n/a	PROB	1248218	n/a	LTP240	ltpFR	10	n/a	n/a	n/a	n/a	n/a	n/a	n/a	20	7	7	6	n/a	n/a	n/a	n/a	n/a
2498.91	n/a	PROB	1249455	n/a	LTP240	ltpFR	10	n/a	n/a	n/a	n/a	n/a	n/a	n/a	27	9	9	9	n/a	n/a	n/a	n/a	n/a
2500.958	n/a	STOP	1250479	n/a	LTP240	ltpFR	10	n/a	n/a	n/a	n/a	n/a	n/a	n/a	n/a	n/a	n/a	n/a	n/a	n/a	n/a	n/a	n/a
2502.408	n/a	WORD	1251204	wordpools/wasnorm_wordpool_less_exclusions.txt	LTP240	ltpFR	10	9	1	WOLF	1619	n/a	n/a	1	n/a	0	0	0	0.422607421875	0.5869140625	0	lower	zerothre.ttf
2505.424	n/a	START	1252712	n/a	LTP240	ltpFR	10	n/a	n/a	n/a	n/a	n/a	n/a	n/a	n/a	n/a	n/a	n/a	n/a	n/a	n/a	n/a	n/a
2506.31	n/a	PROB	1253155	n/a	LTP240	ltpFR	10	n/a	n/a	n/a	n/a	n/a	n/a	n/a	22	7	7	8	n/a	n/a	n/a	n/a	n/a
2508.396	n/a	PROB	1254198	n/a	LTP240	ltpFR	10	n/a	n/a	n/a	n/a	n/a	n/a	n/a	17	4	5	8	n/a	n/a	n/a	n/a	n/a
2513.148	n/a	PROB	1256574	n/a	LTP240	ltpFR	10	n/a	n/a	n/a	n/a	n/a	n/a	n/a	16	4	5	7	n/a	n/a	n/a	n/a	n/a
2517.13	n/a	PROB	1258565	n/a	LTP240	ltpFR	10	n/a	n/a	n/a	n/a	n/a	n/a	n/a	20	8	5	7	n/a	n/a	n/a	n/a	n/a
2519.904	n/a	STOP	1259952	n/a	LTP240	ltpFR	10	n/a	n/a	n/a	n/a	n/a	n/a	n/a	n/a	n/a	n/a	n/a	n/a	n/a	n/a	n/a	n/a
2522.638	n/a	WORD	1261319	wordpools/wasnorm_wordpool_less_exclusions.txt	LTP240	ltpFR	10	9	1	CRICKET	408	n/a	n/a	1	n/a	0	0	0	0.422607421875	0.5869140625	0	lower	zerothre.ttf
2525.65	n/a	START	1262825	n/a	LTP240	ltpFR	10	n/a	n/a	n/a	n/a	n/a	n/a	n/a	n/a	n/a	n/a	n/a	n/a	n/a	n/a	n/a	n/a
2526.52	n/a	PROB	1263260	n/a	LTP240	ltpFR	10	n/a	n/a	n/a	n/a	n/a	n/a	n/a	11	1	6	4	n/a	n/a	n/a	n/a	n/a
2528.356	n/a	PROB	1264178	n/a	LTP240	ltpFR	10	n/a	n/a	n/a	n/a	n/a	n/a	n/a	16	6	3	7	n/a	n/a	n/a	n/a	n/a
2530.398	n/a	PROB	1265199	n/a	LTP240	ltpFR	10	n/a	n/a	n/a	n/a	n/a	n/a	n/a	15	7	6	2	n/a	n/a	n/a	n/a	n/a
2533.778	n/a	PROB	1266889	n/a	LTP240	ltpFR	10	n/a	n/a	n/a	n/a	n/a	n/a	n/a	8	1	4	3	n/a	n/a	n/a	n/a	n/a
2535.3	n/a	PROB	1267650	n/a	LTP240	ltpFR	10	n/a	n/a	n/a	n/a	n/a	n/a	n/a	22	9	9	4	n/a	n/a	n/a	n/a	n/a
2537.042	n/a	PROB	1268521	n/a	LTP240	ltpFR	10	n/a	n/a	n/a	n/a	n/a	n/a	n/a	17	9	7	1	n/a	n/a	n/a	n/a	n/a
2538.662	n/a	PROB	1269331	n/a	LTP240	ltpFR	10	n/a	n/a	n/a	n/a	n/a	n/a	n/a	14	2	8	4	n/a	n/a	n/a	n/a	n/a
2541.65	n/a	STOP	1270825	n/a	LTP240	ltpFR	10	n/a	n/a	n/a	n/a	n/a	n/a	n/a	n/a	n/a	n/a	n/a	n/a	n/a	n/a	n/a	n/a
2542.894	n/a	WORD	1271447	wordpools/wasnorm_wordpool_less_exclusions.txt	LTP240	ltpFR	10	9	1	PICK	1058	n/a	n/a	0	n/a	0	0	0	0.422607421875	0.5869140625	0	lower	zerothre.ttf
2545.91	n/a	START	1272955	n/a	LTP240	ltpFR	10	n/a	n/a	n/a	n/a	n/a	n/a	n/a	n/a	n/a	n/a	n/a	n/a	n/a	n/a	n/a	n/a
2546.744	n/a	PROB	1273372	n/a	LTP240	ltpFR	10	n/a	n/a	n/a	n/a	n/a	n/a	n/a	22	7	7	8	n/a	n/a	n/a	n/a	n/a
2548.634	n/a	PROB	1274317	n/a	LTP240	ltpFR	10	n/a	n/a	n/a	n/a	n/a	n/a	n/a	17	3	8	6	n/a	n/a	n/a	n/a	n/a
2550.926	n/a	PROB	1275463	n/a	LTP240	ltpFR	10	n/a	n/a	n/a	n/a	n/a	n/a	n/a	14	8	4	2	n/a	n/a	n/a	n/a	n/a
2553.54	n/a	PROB	1276770	n/a	LTP240	ltpFR	10	n/a	n/a	n/a	n/a	n/a	n/a	n/a	20	8	8	4	n/a	n/a	n/a	n/a	n/a
2555.614	n/a	PROB	1277807	n/a	LTP240	ltpFR	10	n/a	n/a	n/a	n/a	n/a	n/a	n/a	18	4	5	9	n/a	n/a	n/a	n/a	n/a
2557.556	n/a	PROB	1278778	n/a	LTP240	ltpFR	10	n/a	n/a	n/a	n/a	n/a	n/a	n/a	10	2	6	2	n/a	n/a	n/a	n/a	n/a
2559.458	n/a	PROB	1279729	n/a	LTP240	ltpFR	10	n/a	n/a	n/a	n/a	n/a	n/a	n/a	19	5	5	9	n/a	n/a	n/a	n/a	n/a
2560.738	n/a	STOP	1280369	n/a	LTP240	ltpFR	10	n/a	n/a	n/a	n/a	n/a	n/a	n/a	n/a	n/a	n/a	n/a	n/a	n/a	n/a	n/a	n/a
2562.892	n/a	WORD	1281446	wordpools/wasnorm_wordpool_less_exclusions.txt	LTP240	ltpFR	10	9	1	COCOON	339	n/a	n/a	0	n/a	0	0	0	0.422607421875	0.5869140625	0	lower	zerothre.ttf
2565.904	n/a	START	1282952	n/a	LTP240	ltpFR	10	n/a	n/a	n/a	n/a	n/a	n/a	n/a	n/a	n/a	n/a	n/a	n/a	n/a	n/a	n/a	n/a
2566.872	n/a	PROB	1283436	n/a	LTP240	ltpFR	10	n/a	n/a	n/a	n/a	n/a	n/a	n/a	21	8	5	8	n/a	n/a	n/a	n/a	n/a
2570.15	n/a	PROB	1285075	n/a	LTP240	ltpFR	10	n/a	n/a	n/a	n/a	n/a	n/a	n/a	17	8	7	2	n/a	n/a	n/a	n/a	n/a
2572.446	n/a	PROB	1286223	n/a	LTP240	ltpFR	10	n/a	n/a	n/a	n/a	n/a	n/a	n/a	10	2	4	4	n/a	n/a	n/a	n/a	n/a
2574.734	n/a	PROB	1287367	n/a	LTP240	ltpFR	10	n/a	n/a	n/a	n/a	n/a	n/a	n/a	16	2	7	7	n/a	n/a	n/a	n/a	n/a
2576.858	n/a	PROB	1288429	n/a	LTP240	ltpFR	10	n/a	n/a	n/a	n/a	n/a	n/a	n/a	17	6	9	2	n/a	n/a	n/a	n/a	n/a
2579.05	n/a	PROB	1289525	n/a	LTP240	ltpFR	10	n/a	n/a	n/a	n/a	n/a	n/a	n/a	13	3	6	4	n/a	n/a	n/a	n/a	n/a
2580.676	n/a	STOP	1290338	n/a	LTP240	ltpFR	10	n/a	n/a	n/a	n/a	n/a	n/a	n/a	n/a	n/a	n/a	n/a	n/a	n/a	n/a	n/a	n/a
2582.952	n/a	WORD	1291476	wordpools/wasnorm_wordpool_less_exclusions.txt	LTP240	ltpFR	10	9	1	THIMBLE	1458	n/a	n/a	0	n/a	0	0	0	0.422607421875	0.5869140625	0	lower	zerothre.ttf
2585.964	n/a	START	1292982	n/a	LTP240	ltpFR	10	n/a	n/a	n/a	n/a	n/a	n/a	n/a	n/a	n/a	n/a	n/a	n/a	n/a	n/a	n/a	n/a
2586.866	n/a	PROB	1293433	n/a	LTP240	ltpFR	10	n/a	n/a	n/a	n/a	n/a	n/a	n/a	15	5	5	5	n/a	n/a	n/a	n/a	n/a
2588.152	n/a	PROB	1294076	n/a	LTP240	ltpFR	10	n/a	n/a	n/a	n/a	n/a	n/a	n/a	18	9	3	6	n/a	n/a	n/a	n/a	n/a
2590.21	n/a	PROB	1295105	n/a	LTP240	ltpFR	10	n/a	n/a	n/a	n/a	n/a	n/a	n/a	16	5	4	7	n/a	n/a	n/a	n/a	n/a
2592.902	n/a	PROB	1296451	n/a	LTP240	ltpFR	10	n/a	n/a	n/a	n/a	n/a	n/a	n/a	14	2	3	9	n/a	n/a	n/a	n/a	n/a
2595.312	n/a	PROB	1297656	n/a	LTP240	ltpFR	10	n/a	n/a	n/a	n/a	n/a	n/a	n/a	7	5	1	1	n/a	n/a	n/a	n/a	n/a
2596.934	n/a	PROB	1298467	n/a	LTP240	ltpFR	10	n/a	n/a	n/a	n/a	n/a	n/a	n/a	18	9	8	1	n/a	n/a	n/a	n/a	n/a
2598.542	n/a	PROB	1299271	n/a	LTP240	ltpFR	10	n/a	n/a	n/a	n/a	n/a	n/a	n/a	11	1	2	8	n/a	n/a	n/a	n/a	n/a
2599.946	n/a	PROB	1299973	n/a	LTP240	ltpFR	10	n/a	n/a	n/a	n/a	n/a	n/a	n/a	20	7	5	8	n/a	n/a	n/a	n/a	n/a
2601.66	n/a	STOP	1300830	n/a	LTP240	ltpFR	10	n/a	n/a	n/a	n/a	n/a	n/a	n/a	n/a	n/a	n/a	n/a	n/a	n/a	n/a	n/a	n/a
2602.91	n/a	WORD	1301455	wordpools/wasnorm_wordpool_less_exclusions.txt	LTP240	ltpFR	10	9	1	HAY	693	n/a	n/a	0	n/a	0	0	0	0.422607421875	0.5869140625	0	lower	zerothre.ttf
2605.922	n/a	START	1302961	n/a	LTP240	ltpFR	10	n/a	n/a	n/a	n/a	n/a	n/a	n/a	n/a	n/a	n/a	n/a	n/a	n/a	n/a	n/a	n/a
2606.778	n/a	PROB	1303389	n/a	LTP240	ltpFR	10	n/a	n/a	n/a	n/a	n/a	n/a	n/a	17	2	7	8	n/a	n/a	n/a	n/a	n/a
2608.6	n/a	PROB	1304300	n/a	LTP240	ltpFR	10	n/a	n/a	n/a	n/a	n/a	n/a	n/a	12	1	9	2	n/a	n/a	n/a	n/a	n/a
2609.934	n/a	PROB	1304967	n/a	LTP240	ltpFR	10	n/a	n/a	n/a	n/a	n/a	n/a	n/a	14	4	2	8	n/a	n/a	n/a	n/a	n/a
2611.358	n/a	PROB	1305679	n/a	LTP240	ltpFR	10	n/a	n/a	n/a	n/a	n/a	n/a	n/a	9	2	1	6	n/a	n/a	n/a	n/a	n/a
2613.482	n/a	PROB	1306741	n/a	LTP240	ltpFR	10	n/a	n/a	n/a	n/a	n/a	n/a	n/a	12	1	4	7	n/a	n/a	n/a	n/a	n/a
2615.944	n/a	PROB	1307972	n/a	LTP240	ltpFR	10	n/a	n/a	n/a	n/a	n/a	n/a	n/a	25	9	7	9	n/a	n/a	n/a	n/a	n/a
2618.672	n/a	PROB	1309336	n/a	LTP240	ltpFR	10	n/a	n/a	n/a	n/a	n/a	n/a	n/a	19	4	7	8	n/a	n/a	n/a	n/a	n/a
2620.988	n/a	STOP	1310494	n/a	LTP240	ltpFR	10	n/a	n/a	n/a	n/a	n/a	n/a	n/a	n/a	n/a	n/a	n/a	n/a	n/a	n/a	n/a	n/a
2623.708	n/a	REC_START	1311854	n/a	LTP240	ltpFR	10	9	n/a	n/a	n/a	n/a	n/a	n/a	n/a	0	0	0	n/a	n/a	n/a	n/a	n/a
2626.184	n/a	REC_WORD	1313092	wordpools/wasnorm_wordpool_less_exclusions.txt	LTP240	ltpFR	10	9	1	THIMBLE	1458	n/a	n/a	0	n/a	0	0	0	n/a	n/a	n/a	n/a	n/a
2629.87	n/a	REC_WORD	1314935	wordpools/wasnorm_wordpool_less_exclusions.txt	LTP240	ltpFR	10	9	1	KITTEN	780	n/a	n/a	1	n/a	0	0	0	n/a	n/a	n/a	n/a	n/a
2636.058	n/a	REC_WORD	1318029	wordpools/wasnorm_wordpool_less_exclusions.txt	LTP240	ltpFR	10	9	1	GLOVE	642	n/a	n/a	0	n/a	0	0	0	n/a	n/a	n/a	n/a	n/a
2637.362	n/a	REC_WORD	1318681	wordpools/wasnorm_wordpool_less_exclusions.txt	LTP240	ltpFR	10	9	1	MITTEN	902	n/a	n/a	0	n/a	0	0	0	n/a	n/a	n/a	n/a	n/a
2650.162	n/a	REC_WORD	1325081	wordpools/wasnorm_wordpool_less_exclusions.txt	LTP240	ltpFR	10	9	1	COCOON	339	n/a	n/a	0	n/a	0	0	0	n/a	n/a	n/a	n/a	n/a
2703.262	n/a	WORD	1351631	wordpools/wasnorm_wordpool_less_exclusions.txt	LTP240	ltpFR	10	10	1	WASHER	1592	n/a	n/a	0	n/a	0	0	0	0.422607421875	0.5869140625	0	lower	zerothre.ttf
2707.092	n/a	WORD	1353546	wordpools/wasnorm_wordpool_less_exclusions.txt	LTP240	ltpFR	10	10	1	PANTS	1010	n/a	n/a	0	n/a	0	0	0	0.422607421875	0.5869140625	0	lower	zerothre.ttf
2710.99	n/a	WORD	1355495	wordpools/wasnorm_wordpool_less_exclusions.txt	LTP240	ltpFR	10	10	1	HAMBURGER	679	n/a	n/a	0	n/a	0	0	0	0.422607421875	0.5869140625	0	lower	zerothre.ttf
2715.04	n/a	WORD	1357520	wordpools/wasnorm_wordpool_less_exclusions.txt	LTP240	ltpFR	10	10	1	DIVER	476	n/a	n/a	1	n/a	0	0	0	0.422607421875	0.5869140625	0	lower	zerothre.ttf
2719.004	n/a	WORD	1359502	wordpools/wasnorm_wordpool_less_exclusions.txt	LTP240	ltpFR	10	10	1	SLIDE	1326	n/a	n/a	0	n/a	0	0	0	0.422607421875	0.5869140625	0	lower	zerothre.ttf
2723.206	n/a	WORD	1361603	wordpools/wasnorm_wordpool_less_exclusions.txt	LTP240	ltpFR	10	10	1	ELBOW	520	n/a	n/a	0	n/a	0	0	0	0.422607421875	0.5869140625	0	lower	zerothre.ttf
2727.4	n/a	WORD	1363700	wordpools/wasnorm_wordpool_less_exclusions.txt	LTP240	ltpFR	10	10	1	CHIP	303	n/a	n/a	0	n/a	0	0	0	0.422607421875	0.5869140625	0	lower	zerothre.ttf
2731.504	n/a	WORD	1365752	wordpools/wasnorm_wordpool_less_exclusions.txt	LTP240	ltpFR	10	10	1	THESAURUS	1454	n/a	n/a	0	n/a	0	0	0	0.422607421875	0.5869140625	0	lower	zerothre.ttf
2735.702	n/a	WORD	1367851	wordpools/wasnorm_wordpool_less_exclusions.txt	LTP240	ltpFR	10	10	1	DICTIONARY	463	n/a	n/a	0	n/a	0	0	0	0.422607421875	0.5869140625	0	lower	zerothre.ttf
2739.768	n/a	WORD	1369884	wordpools/wasnorm_wordpool_less_exclusions.txt	LTP240	ltpFR	10	10	1	DESIGNER	451	n/a	n/a	1	n/a	0	0	0	0.422607421875	0.5869140625	0	lower	zerothre.ttf
2743.784	n/a	WORD	1371892	wordpools/wasnorm_wordpool_less_exclusions.txt	LTP240	ltpFR	10	10	1	NEUTRON	947	n/a	n/a	0	n/a	0	0	0	0.422607421875	0.5869140625	0	lower	zerothre.ttf
2747.828	n/a	WORD	1373914	wordpools/wasnorm_wordpool_less_exclusions.txt	LTP240	ltpFR	10	10	1	COOK	372	n/a	n/a	0	n/a	0	0	0	0.422607421875	0.5869140625	0	lower	zerothre.ttf
2751.946	n/a	WORD	1375973	wordpools/wasnorm_wordpool_less_exclusions.txt	LTP240	ltpFR	10	10	1	CUSTARD	429	n/a	n/a	0	n/a	0	0	0	0.422607421875	0.5869140625	0	lower	zerothre.ttf
2756.008	n/a	WORD	1378004	wordpools/wasnorm_wordpool_less_exclusions.txt	LTP240	ltpFR	10	10	1	TRAY	1498	n/a	n/a	0	n/a	0	0	0	0.422607421875	0.5869140625	0	lower	zerothre.ttf
2759.912	n/a	WORD	1379956	wordpools/wasnorm_wordpool_less_exclusions.txt	LTP240	ltpFR	10	10	1	BUCKLE	185	n/a	n/a	0	n/a	0	0	0	0.422607421875	0.5869140625	0	lower	zerothre.ttf
2763.944	n/a	WORD	1381972	wordpools/wasnorm_wordpool_less_exclusions.txt	LTP240	ltpFR	10	10	1	BAKER	71	n/a	n/a	1	n/a	0	0	0	0.422607421875	0.5869140625	0	lower	zerothre.ttf
2766.954	n/a	START	1383477	n/a	LTP240	ltpFR	10	n/a	n/a	n/a	n/a	n/a	n/a	n/a	n/a	n/a	n/a	n/a	n/a	n/a	n/a	n/a	n/a
2768.106	n/a	PROB	1384053	n/a	LTP240	ltpFR	10	n/a	n/a	n/a	n/a	n/a	n/a	n/a	17	5	5	7	n/a	n/a	n/a	n/a	n/a
2770.198	n/a	PROB	1385099	n/a	LTP240	ltpFR	10	n/a	n/a	n/a	n/a	n/a	n/a	n/a	20	8	6	6	n/a	n/a	n/a	n/a	n/a
2772.256	n/a	PROB	1386128	n/a	LTP240	ltpFR	10	n/a	n/a	n/a	n/a	n/a	n/a	n/a	16	9	3	4	n/a	n/a	n/a	n/a	n/a
2774.836	n/a	PROB	1387418	n/a	LTP240	ltpFR	10	n/a	n/a	n/a	n/a	n/a	n/a	n/a	19	3	8	8	n/a	n/a	n/a	n/a	n/a
2776.424	n/a	PROB	1388212	n/a	LTP240	ltpFR	10	n/a	n/a	n/a	n/a	n/a	n/a	n/a	17	5	7	5	n/a	n/a	n/a	n/a	n/a
2782.956	n/a	STOP	1391478	n/a	LTP240	ltpFR	10	n/a	n/a	n/a	n/a	n/a	n/a	n/a	n/a	n/a	n/a	n/a	n/a	n/a	n/a	n/a	n/a
2784.742	n/a	REC_START	1392371	n/a	LTP240	ltpFR	10	10	n/a	n/a	n/a	n/a	n/a	n/a	n/a	0	0	0	n/a	n/a	n/a	n/a	n/a
2786.792	n/a	REC_WORD	1393396	wordpools/wasnorm_wordpool_less_exclusions.txt	LTP240	ltpFR	10	10	1	BAKER	71	n/a	n/a	1	n/a	0	0	0	n/a	n/a	n/a	n/a	n/a
2788.412	n/a	REC_WORD	1394206	wordpools/wasnorm_wordpool_less_exclusions.txt	LTP240	ltpFR	10	10	1	COOK	372	n/a	n/a	0	n/a	0	0	0	n/a	n/a	n/a	n/a	n/a
2790.174	n/a	REC_WORD	1395087	wordpools/wasnorm_wordpool_less_exclusions.txt	LTP240	ltpFR	10	10	1	HAMBURGER	679	n/a	n/a	0	n/a	0	0	0	n/a	n/a	n/a	n/a	n/a
2793.562	n/a	REC_WORD	1396781	wordpools/wasnorm_wordpool_less_exclusions.txt	LTP240	ltpFR	10	10	1	WASHER	1592	n/a	n/a	0	n/a	0	0	0	n/a	n/a	n/a	n/a	n/a
2857.18	n/a	REC_WORD	1428590	wordpools/wasnorm_wordpool_less_exclusions.txt	LTP240	ltpFR	10	10	1	CUSTARD	429	n/a	n/a	0	n/a	0	0	0	n/a	n/a	n/a	n/a	n/a
2860.392	n/a	REST_REWET	1430196	n/a	LTP240	ltpFR	10	10	n/a	n/a	n/a	n/a	n/a	n/a	n/a	0	0	0	n/a	n/a	n/a	n/a	n/a
3265.51	n/a	START	1632755	n/a	LTP240	ltpFR	10	n/a	n/a	n/a	n/a	n/a	n/a	n/a	n/a	n/a	n/a	n/a	n/a	n/a	n/a	n/a	n/a
3267.028	n/a	PROB	1633514	n/a	LTP240	ltpFR	10	n/a	n/a	n/a	n/a	n/a	n/a	n/a	10	2	6	2	n/a	n/a	n/a	n/a	n/a
3270.194	n/a	PROB	1635097	n/a	LTP240	ltpFR	10	n/a	n/a	n/a	n/a	n/a	n/a	n/a	15	3	5	7	n/a	n/a	n/a	n/a	n/a
3272.584	n/a	STOP	1636292	n/a	LTP240	ltpFR	10	n/a	n/a	n/a	n/a	n/a	n/a	n/a	n/a	n/a	n/a	n/a	n/a	n/a	n/a	n/a	n/a
3274.474	n/a	WORD	1637237	wordpools/wasnorm_wordpool_less_exclusions.txt	LTP240	ltpFR	10	11	1	HELICOPTER	701	n/a	n/a	0	n/a	0	0	0	0.422607421875	0.5869140625	0	lower	zerothre.ttf
3277.49	n/a	START	1638745	n/a	LTP240	ltpFR	10	n/a	n/a	n/a	n/a	n/a	n/a	n/a	n/a	n/a	n/a	n/a	n/a	n/a	n/a	n/a	n/a
3278.344	n/a	PROB	1639172	n/a	LTP240	ltpFR	10	n/a	n/a	n/a	n/a	n/a	n/a	n/a	18	4	7	7	n/a	n/a	n/a	n/a	n/a
3280.078	n/a	PROB	1640039	n/a	LTP240	ltpFR	10	n/a	n/a	n/a	n/a	n/a	n/a	n/a	12	2	1	9	n/a	n/a	n/a	n/a	n/a
3285.49	n/a	STOP	1642745	n/a	LTP240	ltpFR	10	n/a	n/a	n/a	n/a	n/a	n/a	n/a	n/a	n/a	n/a	n/a	n/a	n/a	n/a	n/a	n/a
3286.708	n/a	WORD	1643354	wordpools/wasnorm_wordpool_less_exclusions.txt	LTP240	ltpFR	10	11	1	VICTOR	1563	n/a	n/a	1	n/a	0	0	0	0.422607421875	0.5869140625	0	lower	zerothre.ttf
3289.72	n/a	START	1644860	n/a	LTP240	ltpFR	10	n/a	n/a	n/a	n/a	n/a	n/a	n/a	n/a	n/a	n/a	n/a	n/a	n/a	n/a	n/a	n/a
3290.67	n/a	PROB	1645335	n/a	LTP240	ltpFR	10	n/a	n/a	n/a	n/a	n/a	n/a	n/a	9	2	3	4	n/a	n/a	n/a	n/a	n/a
3293.414	n/a	PROB	1646707	n/a	LTP240	ltpFR	10	n/a	n/a	n/a	n/a	n/a	n/a	n/a	8	2	5	1	n/a	n/a	n/a	n/a	n/a
3295.122	n/a	PROB	1647561	n/a	LTP240	ltpFR	10	n/a	n/a	n/a	n/a	n/a	n/a	n/a	19	3	7	9	n/a	n/a	n/a	n/a	n/a
3296.738	n/a	STOP	1648369	n/a	LTP240	ltpFR	10	n/a	n/a	n/a	n/a	n/a	n/a	n/a	n/a	n/a	n/a	n/a	n/a	n/a	n/a	n/a	n/a
3298.818	n/a	WORD	1649409	wordpools/wasnorm_wordpool_less_exclusions.txt	LTP240	ltpFR	10	11	0	DIRT	472	n/a	n/a	0	n/a	0	0	0	0.57763671875	0.412841796875	1	upper	amplitud.ttf
3301.834	n/a	START	1650917	n/a	LTP240	ltpFR	10	n/a	n/a	n/a	n/a	n/a	n/a	n/a	n/a	n/a	n/a	n/a	n/a	n/a	n/a	n/a	n/a
3303.016	n/a	PROB	1651508	n/a	LTP240	ltpFR	10	n/a	n/a	n/a	n/a	n/a	n/a	n/a	20	9	9	2	n/a	n/a	n/a	n/a	n/a
3305.09	n/a	PROB	1652545	n/a	LTP240	ltpFR	10	n/a	n/a	n/a	n/a	n/a	n/a	n/a	21	8	5	8	n/a	n/a	n/a	n/a	n/a
3307.484	n/a	PROB	1653742	n/a	LTP240	ltpFR	10	n/a	n/a	n/a	n/a	n/a	n/a	n/a	16	5	7	4	n/a	n/a	n/a	n/a	n/a
3309.794	n/a	STOP	1654897	n/a	LTP240	ltpFR	10	n/a	n/a	n/a	n/a	n/a	n/a	n/a	n/a	n/a	n/a	n/a	n/a	n/a	n/a	n/a	n/a
3310.95	n/a	WORD	1655475	wordpools/wasnorm_wordpool_less_exclusions.txt	LTP240	ltpFR	10	11	0	MOP	916	n/a	n/a	0	n/a	0	0	0	0.57763671875	0.412841796875	1	upper	amplitud.ttf
3313.962	n/a	START	1656981	n/a	LTP240	ltpFR	10	n/a	n/a	n/a	n/a	n/a	n/a	n/a	n/a	n/a	n/a	n/a	n/a	n/a	n/a	n/a	n/a
3315.134	n/a	PROB	1657567	n/a	LTP240	ltpFR	10	n/a	n/a	n/a	n/a	n/a	n/a	n/a	17	5	9	3	n/a	n/a	n/a	n/a	n/a
3317.372	n/a	PROB	1658686	n/a	LTP240	ltpFR	10	n/a	n/a	n/a	n/a	n/a	n/a	n/a	9	4	1	4	n/a	n/a	n/a	n/a	n/a
3318.66	n/a	PROB	1659330	n/a	LTP240	ltpFR	10	n/a	n/a	n/a	n/a	n/a	n/a	n/a	20	8	6	6	n/a	n/a	n/a	n/a	n/a
3320.682	n/a	STOP	1660341	n/a	LTP240	ltpFR	10	n/a	n/a	n/a	n/a	n/a	n/a	n/a	n/a	n/a	n/a	n/a	n/a	n/a	n/a	n/a	n/a
3323.18	n/a	WORD	1661590	wordpools/wasnorm_wordpool_less_exclusions.txt	LTP240	ltpFR	10	11	0	PREACHER	1119	n/a	n/a	1	n/a	0	0	0	0.57763671875	0.412841796875	1	upper	amplitud.ttf
3326.192	n/a	START	1663096	n/a	LTP240	ltpFR	10	n/a	n/a	n/a	n/a	n/a	n/a	n/a	n/a	n/a	n/a	n/a	n/a	n/a	n/a	n/a	n/a
3327.044	n/a	PROB	1663522	n/a	LTP240	ltpFR	10	n/a	n/a	n/a	n/a	n/a	n/a	n/a	11	6	1	4	n/a	n/a	n/a	n/a	n/a
3328.582	n/a	PROB	1664291	n/a	LTP240	ltpFR	10	n/a	n/a	n/a	n/a	n/a	n/a	n/a	14	6	6	2	n/a	n/a	n/a	n/a	n/a
3330.158	n/a	PROB	1665079	n/a	LTP240	ltpFR	10	n/a	n/a	n/a	n/a	n/a	n/a	n/a	14	4	8	2	n/a	n/a	n/a	n/a	n/a
3331.91	n/a	PROB	1665955	n/a	LTP240	ltpFR	10	n/a	n/a	n/a	n/a	n/a	n/a	n/a	19	4	6	9	n/a	n/a	n/a	n/a	n/a
3333.42	n/a	STOP	1666710	n/a	LTP240	ltpFR	10	n/a	n/a	n/a	n/a	n/a	n/a	n/a	n/a	n/a	n/a	n/a	n/a	n/a	n/a	n/a	n/a
3335.126	n/a	WORD	1667563	wordpools/wasnorm_wordpool_less_exclusions.txt	LTP240	ltpFR	10	11	0	LION	827	n/a	n/a	1	n/a	0	0	0	0.57763671875	0.412841796875	1	upper	amplitud.ttf
3338.138	n/a	START	1669069	n/a	LTP240	ltpFR	10	n/a	n/a	n/a	n/a	n/a	n/a	n/a	n/a	n/a	n/a	n/a	n/a	n/a	n/a	n/a	n/a
3338.99	n/a	PROB	1669495	n/a	LTP240	ltpFR	10	n/a	n/a	n/a	n/a	n/a	n/a	n/a	11	1	5	5	n/a	n/a	n/a	n/a	n/a
3340.246	n/a	PROB	1670123	n/a	LTP240	ltpFR	10	n/a	n/a	n/a	n/a	n/a	n/a	n/a	16	3	4	9	n/a	n/a	n/a	n/a	n/a
3343.588	n/a	PROB	1671794	n/a	LTP240	ltpFR	10	n/a	n/a	n/a	n/a	n/a	n/a	n/a	15	5	1	9	n/a	n/a	n/a	n/a	n/a
3344.844	n/a	STOP	1672422	n/a	LTP240	ltpFR	10	n/a	n/a	n/a	n/a	n/a	n/a	n/a	n/a	n/a	n/a	n/a	n/a	n/a	n/a	n/a	n/a
3347.004	n/a	WORD	1673502	wordpools/wasnorm_wordpool_less_exclusions.txt	LTP240	ltpFR	10	11	1	PANTHER	1009	n/a	n/a	1	n/a	0	0	0	0.422607421875	0.5869140625	0	lower	zerothre.ttf
3350.016	n/a	START	1675008	n/a	LTP240	ltpFR	10	n/a	n/a	n/a	n/a	n/a	n/a	n/a	n/a	n/a	n/a	n/a	n/a	n/a	n/a	n/a	n/a
3350.836	n/a	PROB	1675418	n/a	LTP240	ltpFR	10	n/a	n/a	n/a	n/a	n/a	n/a	n/a	11	4	4	3	n/a	n/a	n/a	n/a	n/a
3352.96	n/a	PROB	1676480	n/a	LTP240	ltpFR	10	n/a	n/a	n/a	n/a	n/a	n/a	n/a	15	5	1	9	n/a	n/a	n/a	n/a	n/a
3354.364	n/a	PROB	1677182	n/a	LTP240	ltpFR	10	n/a	n/a	n/a	n/a	n/a	n/a	n/a	13	5	4	4	n/a	n/a	n/a	n/a	n/a
3358.016	n/a	STOP	1679008	n/a	LTP240	ltpFR	10	n/a	n/a	n/a	n/a	n/a	n/a	n/a	n/a	n/a	n/a	n/a	n/a	n/a	n/a	n/a	n/a
3359.08	n/a	WORD	1679540	wordpools/wasnorm_wordpool_less_exclusions.txt	LTP240	ltpFR	10	11	1	BEAN	105	n/a	n/a	0	n/a	0	0	0	0.422607421875	0.5869140625	0	lower	zerothre.ttf
3362.096	n/a	START	1681048	n/a	LTP240	ltpFR	10	n/a	n/a	n/a	n/a	n/a	n/a	n/a	n/a	n/a	n/a	n/a	n/a	n/a	n/a	n/a	n/a
3362.998	n/a	PROB	1681499	n/a	LTP240	ltpFR	10	n/a	n/a	n/a	n/a	n/a	n/a	n/a	16	2	8	6	n/a	n/a	n/a	n/a	n/a
3364.384	n/a	PROB	1682192	n/a	LTP240	ltpFR	10	n/a	n/a	n/a	n/a	n/a	n/a	n/a	23	9	9	5	n/a	n/a	n/a	n/a	n/a
3366.292	n/a	PROB	1683146	n/a	LTP240	ltpFR	10	n/a	n/a	n/a	n/a	n/a	n/a	n/a	11	1	3	7	n/a	n/a	n/a	n/a	n/a
3370.096	n/a	STOP	1685048	n/a	LTP240	ltpFR	10	n/a	n/a	n/a	n/a	n/a	n/a	n/a	n/a	n/a	n/a	n/a	n/a	n/a	n/a	n/a	n/a
3371.096	n/a	WORD	1685548	wordpools/wasnorm_wordpool_less_exclusions.txt	LTP240	ltpFR	10	11	1	FEAST	556	n/a	n/a	0	n/a	0	0	0	0.422607421875	0.5869140625	0	lower	zerothre.ttf
3374.108	n/a	START	1687054	n/a	LTP240	ltpFR	10	n/a	n/a	n/a	n/a	n/a	n/a	n/a	n/a	n/a	n/a	n/a	n/a	n/a	n/a	n/a	n/a
3375.028	n/a	PROB	1687514	n/a	LTP240	ltpFR	10	n/a	n/a	n/a	n/a	n/a	n/a	n/a	14	8	1	5	n/a	n/a	n/a	n/a	n/a
3377.434	n/a	PROB	1688717	n/a	LTP240	ltpFR	10	n/a	n/a	n/a	n/a	n/a	n/a	n/a	12	6	5	1	n/a	n/a	n/a	n/a	n/a
3379.408	n/a	PROB	1689704	n/a	LTP240	ltpFR	10	n/a	n/a	n/a	n/a	n/a	n/a	n/a	14	2	5	7	n/a	n/a	n/a	n/a	n/a
3381.758	n/a	STOP	1690879	n/a	LTP240	ltpFR	10	n/a	n/a	n/a	n/a	n/a	n/a	n/a	n/a	n/a	n/a	n/a	n/a	n/a	n/a	n/a	n/a
3382.974	n/a	WORD	1691487	wordpools/wasnorm_wordpool_less_exclusions.txt	LTP240	ltpFR	10	11	0	CATHEDRAL	260	n/a	n/a	1	n/a	0	0	0	0.57763671875	0.412841796875	1	upper	amplitud.ttf
3385.988	n/a	START	1692994	n/a	LTP240	ltpFR	10	n/a	n/a	n/a	n/a	n/a	n/a	n/a	n/a	n/a	n/a	n/a	n/a	n/a	n/a	n/a	n/a
3387.008	n/a	PROB	1693504	n/a	LTP240	ltpFR	10	n/a	n/a	n/a	n/a	n/a	n/a	n/a	7	2	2	3	n/a	n/a	n/a	n/a	n/a
3389.162	n/a	PROB	1694581	n/a	LTP240	ltpFR	10	n/a	n/a	n/a	n/a	n/a	n/a	n/a	13	3	2	8	n/a	n/a	n/a	n/a	n/a
3390.938	n/a	PROB	1695469	n/a	LTP240	ltpFR	10	n/a	n/a	n/a	n/a	n/a	n/a	n/a	16	3	4	9	n/a	n/a	n/a	n/a	n/a
3393.654	n/a	STOP	1696827	n/a	LTP240	ltpFR	10	n/a	n/a	n/a	n/a	n/a	n/a	n/a	n/a	n/a	n/a	n/a	n/a	n/a	n/a	n/a	n/a
3395.19	n/a	WORD	1697595	wordpools/wasnorm_wordpool_less_exclusions.txt	LTP240	ltpFR	10	11	0	POLYESTER	1100	n/a	n/a	1	n/a	0	0	0	0.57763671875	0.412841796875	1	upper	amplitud.ttf
3398.202	n/a	START	1699101	n/a	LTP240	ltpFR	10	n/a	n/a	n/a	n/a	n/a	n/a	n/a	n/a	n/a	n/a	n/a	n/a	n/a	n/a	n/a	n/a
3399.338	n/a	PROB	1699669	n/a	LTP240	ltpFR	10	n/a	n/a	n/a	n/a	n/a	n/a	n/a	15	1	5	9	n/a	n/a	n/a	n/a	n/a
3400.672	n/a	PROB	1700336	n/a	LTP240	ltpFR	10	n/a	n/a	n/a	n/a	n/a	n/a	n/a	16	3	6	7	n/a	n/a	n/a	n/a	n/a
3402.416	n/a	PROB	1701208	n/a	LTP240	ltpFR	10	n/a	n/a	n/a	n/a	n/a	n/a	n/a	16	7	5	4	n/a	n/a	n/a	n/a	n/a
3404.616	n/a	STOP	1702308	n/a	LTP240	ltpFR	10	n/a	n/a	n/a	n/a	n/a	n/a	n/a	n/a	n/a	n/a	n/a	n/a	n/a	n/a	n/a	n/a
3407.35	n/a	WORD	1703675	wordpools/wasnorm_wordpool_less_exclusions.txt	LTP240	ltpFR	10	11	0	PORK	1108	n/a	n/a	1	n/a	0	0	0	0.57763671875	0.412841796875	1	upper	amplitud.ttf
3410.364	n/a	START	1705182	n/a	LTP240	ltpFR	10	n/a	n/a	n/a	n/a	n/a	n/a	n/a	n/a	n/a	n/a	n/a	n/a	n/a	n/a	n/a	n/a
3411.432	n/a	PROB	1705716	n/a	LTP240	ltpFR	10	n/a	n/a	n/a	n/a	n/a	n/a	n/a	22	5	9	8	n/a	n/a	n/a	n/a	n/a
3415.178	n/a	PROB	1707589	n/a	LTP240	ltpFR	10	n/a	n/a	n/a	n/a	n/a	n/a	n/a	19	9	9	1	n/a	n/a	n/a	n/a	n/a
3417.248	n/a	STOP	1708624	n/a	LTP240	ltpFR	10	n/a	n/a	n/a	n/a	n/a	n/a	n/a	n/a	n/a	n/a	n/a	n/a	n/a	n/a	n/a	n/a
3419.344	n/a	WORD	1709672	wordpools/wasnorm_wordpool_less_exclusions.txt	LTP240	ltpFR	10	11	0	SILVERWARE	1308	n/a	n/a	0	n/a	0	0	0	0.57763671875	0.412841796875	1	upper	amplitud.ttf
3422.36	n/a	START	1711180	n/a	LTP240	ltpFR	10	n/a	n/a	n/a	n/a	n/a	n/a	n/a	n/a	n/a	n/a	n/a	n/a	n/a	n/a	n/a	n/a
3423.294	n/a	PROB	1711647	n/a	LTP240	ltpFR	10	n/a	n/a	n/a	n/a	n/a	n/a	n/a	12	2	4	6	n/a	n/a	n/a	n/a	n/a
3424.916	n/a	PROB	1712458	n/a	LTP240	ltpFR	10	n/a	n/a	n/a	n/a	n/a	n/a	n/a	11	3	2	6	n/a	n/a	n/a	n/a	n/a
3427.694	n/a	PROB	1713847	n/a	LTP240	ltpFR	10	n/a	n/a	n/a	n/a	n/a	n/a	n/a	18	1	8	9	n/a	n/a	n/a	n/a	n/a
3429.048	n/a	STOP	1714524	n/a	LTP240	ltpFR	10	n/a	n/a	n/a	n/a	n/a	n/a	n/a	n/a	n/a	n/a	n/a	n/a	n/a	n/a	n/a	n/a
3431.494	n/a	WORD	1715747	wordpools/wasnorm_wordpool_less_exclusions.txt	LTP240	ltpFR	10	11	1	SERVANT	1271	n/a	n/a	1	n/a	0	0	0	0.422607421875	0.5869140625	0	lower	zerothre.ttf
3434.506	n/a	START	1717253	n/a	LTP240	ltpFR	10	n/a	n/a	n/a	n/a	n/a	n/a	n/a	n/a	n/a	n/a	n/a	n/a	n/a	n/a	n/a	n/a
3435.49	n/a	PROB	1717745	n/a	LTP240	ltpFR	10	n/a	n/a	n/a	n/a	n/a	n/a	n/a	18	8	6	4	n/a	n/a	n/a	n/a	n/a
3436.964	n/a	PROB	1718482	n/a	LTP240	ltpFR	10	n/a	n/a	n/a	n/a	n/a	n/a	n/a	11	3	5	3	n/a	n/a	n/a	n/a	n/a
3439.772	n/a	PROB	1719886	n/a	LTP240	ltpFR	10	n/a	n/a	n/a	n/a	n/a	n/a	n/a	8	5	1	2	n/a	n/a	n/a	n/a	n/a
3441.768	n/a	STOP	1720884	n/a	LTP240	ltpFR	10	n/a	n/a	n/a	n/a	n/a	n/a	n/a	n/a	n/a	n/a	n/a	n/a	n/a	n/a	n/a	n/a
3443.474	n/a	WORD	1721737	wordpools/wasnorm_wordpool_less_exclusions.txt	LTP240	ltpFR	10	11	1	WINDSHIELD	1612	n/a	n/a	0	n/a	0	0	0	0.422607421875	0.5869140625	0	lower	zerothre.ttf
3446.486	n/a	START	1723243	n/a	LTP240	ltpFR	10	n/a	n/a	n/a	n/a	n/a	n/a	n/a	n/a	n/a	n/a	n/a	n/a	n/a	n/a	n/a	n/a
3447.656	n/a	PROB	1723828	n/a	LTP240	ltpFR	10	n/a	n/a	n/a	n/a	n/a	n/a	n/a	13	2	6	5	n/a	n/a	n/a	n/a	n/a
3454.486	n/a	STOP	1727243	n/a	LTP240	ltpFR	10	n/a	n/a	n/a	n/a	n/a	n/a	n/a	n/a	n/a	n/a	n/a	n/a	n/a	n/a	n/a	n/a
