onset	duration	trial_type	sample	stim_file	subject	experiment	session	trial	task	item_name	item_num	recog_resp	recog_conf	resp	color_r	color_g	color_b	case	font
275.468	n/a	SESS_START	137734	n/a	LTP192	ltpFR	2	n/a	n/a	n/a	n/a	1	3	n/a	n/a	n/a	n/a	n/a	n/a
356.332	n/a	WORD	178166	wordpools/wasnorm_wordpool_less_exclusions.txt	LTP192	ltpFR	2	1	1	FUDGE	611	1	n/a	0	0.422607421875	0.5869140625	0	upper	amplitud.ttf
360.526	n/a	WORD	180263	wordpools/wasnorm_wordpool_less_exclusions.txt	LTP192	ltpFR	2	1	1	ARTICLE	42	n/a	n/a	0	0.422607421875	0.5869140625	0	upper	amplitud.ttf
364.72	n/a	WORD	182360	wordpools/wasnorm_wordpool_less_exclusions.txt	LTP192	ltpFR	2	1	1	FLOWER	584	n/a	n/a	1	0.422607421875	0.5869140625	0	upper	amplitud.ttf
368.764	n/a	WORD	184382	wordpools/wasnorm_wordpool_less_exclusions.txt	LTP192	ltpFR	2	1	1	CAMEL	223	n/a	n/a	1	0.422607421875	0.5869140625	0	upper	amplitud.ttf
372.808	n/a	WORD	186404	wordpools/wasnorm_wordpool_less_exclusions.txt	LTP192	ltpFR	2	1	1	PAN	1008	n/a	n/a	0	0.422607421875	0.5869140625	0	upper	amplitud.ttf
376.952	n/a	WORD	188476	wordpools/wasnorm_wordpool_less_exclusions.txt	LTP192	ltpFR	2	1	1	SKILLET	1317	n/a	n/a	0	0.422607421875	0.5869140625	0	upper	amplitud.ttf
380.878	n/a	WORD	190439	wordpools/wasnorm_wordpool_less_exclusions.txt	LTP192	ltpFR	2	1	0	SPINACH	1352	n/a	n/a	0	0.57763671875	0.412841796875	1	lower	zerothre.ttf
385.072	n/a	WORD	192536	wordpools/wasnorm_wordpool_less_exclusions.txt	LTP192	ltpFR	2	1	0	CREATURE	403	n/a	n/a	1	0.57763671875	0.412841796875	1	lower	zerothre.ttf
388.934	n/a	WORD	194467	wordpools/wasnorm_wordpool_less_exclusions.txt	LTP192	ltpFR	2	1	0	CHISEL	305	n/a	n/a	0	0.57763671875	0.412841796875	1	lower	zerothre.ttf
392.778	n/a	WORD	196389	wordpools/wasnorm_wordpool_less_exclusions.txt	LTP192	ltpFR	2	1	0	DILL	465	n/a	n/a	0	0.57763671875	0.412841796875	1	lower	zerothre.ttf
396.954	n/a	WORD	198477	wordpools/wasnorm_wordpool_less_exclusions.txt	LTP192	ltpFR	2	1	1	MANSION	864	n/a	n/a	0	0.422607421875	0.5869140625	0	upper	amplitud.ttf
401.15	n/a	WORD	200575	wordpools/wasnorm_wordpool_less_exclusions.txt	LTP192	ltpFR	2	1	1	SHINGLE	1285	n/a	n/a	0	0.422607421875	0.5869140625	0	upper	amplitud.ttf
405.276	n/a	WORD	202638	wordpools/wasnorm_wordpool_less_exclusions.txt	LTP192	ltpFR	2	1	0	CHIP	303	n/a	n/a	0	0.57763671875	0.412841796875	1	lower	zerothre.ttf
409.254	n/a	WORD	204627	wordpools/wasnorm_wordpool_less_exclusions.txt	LTP192	ltpFR	2	1	0	SHARK	1275	n/a	n/a	1	0.57763671875	0.412841796875	1	lower	zerothre.ttf
413.264	n/a	WORD	206632	wordpools/wasnorm_wordpool_less_exclusions.txt	LTP192	ltpFR	2	1	0	CLAM	315	n/a	n/a	0	0.57763671875	0.412841796875	1	lower	zerothre.ttf
417.458	n/a	WORD	208729	wordpools/wasnorm_wordpool_less_exclusions.txt	LTP192	ltpFR	2	1	0	CIGARETTE	309	n/a	n/a	0	0.57763671875	0.412841796875	1	lower	zerothre.ttf
423.334	n/a	REC_START	211667	n/a	LTP192	ltpFR	2	1	n/a	n/a	n/a	n/a	n/a	n/a	n/a	n/a	n/a	n/a	n/a
423.922	n/a	REC_WORD	211961	wordpools/wasnorm_wordpool_less_exclusions.txt	LTP192	ltpFR	2	1	0	CIGARETTE	309	n/a	n/a	0	n/a	n/a	n/a	n/a	n/a
424.894	n/a	REC_WORD	212447	wordpools/wasnorm_wordpool_less_exclusions.txt	LTP192	ltpFR	2	1	0	CLAM	315	n/a	n/a	0	n/a	n/a	n/a	n/a	n/a
425.798	n/a	REC_WORD	212899	wordpools/wasnorm_wordpool_less_exclusions.txt	LTP192	ltpFR	2	1	0	SHARK	1275	n/a	n/a	1	n/a	n/a	n/a	n/a	n/a
427.4	n/a	REC_WORD	213700	wordpools/wasnorm_wordpool_less_exclusions.txt	LTP192	ltpFR	2	1	0	CHIP	303	n/a	n/a	0	n/a	n/a	n/a	n/a	n/a
428.926	n/a	REC_WORD_VV	214463	wordpools/wasnorm_wordpool_less_exclusions.txt	LTP192	ltpFR	2	1	n/a	<>	-1	n/a	n/a	n/a	n/a	n/a	n/a	n/a	n/a
429.658	n/a	REC_WORD_VV	214829	wordpools/wasnorm_wordpool_less_exclusions.txt	LTP192	ltpFR	2	1	n/a	<>	-1	n/a	n/a	n/a	n/a	n/a	n/a	n/a	n/a
430.796	n/a	REC_WORD	215398	wordpools/wasnorm_wordpool_less_exclusions.txt	LTP192	ltpFR	2	1	0	SPINACH	1352	n/a	n/a	0	n/a	n/a	n/a	n/a	n/a
432.736	n/a	REC_WORD	216368	wordpools/wasnorm_wordpool_less_exclusions.txt	LTP192	ltpFR	2	1	1	ARTICLE	42	n/a	n/a	0	n/a	n/a	n/a	n/a	n/a
433.874	n/a	REC_WORD	216937	wordpools/wasnorm_wordpool_less_exclusions.txt	LTP192	ltpFR	2	1	1	CAMEL	223	n/a	n/a	1	n/a	n/a	n/a	n/a	n/a
449.418	n/a	REC_WORD	224709	wordpools/wasnorm_wordpool_less_exclusions.txt	LTP192	ltpFR	2	1	0	CHISEL	305	n/a	n/a	0	n/a	n/a	n/a	n/a	n/a
462.964	n/a	REC_WORD	231482	wordpools/wasnorm_wordpool_less_exclusions.txt	LTP192	ltpFR	2	1	1	PAN	1008	n/a	n/a	0	n/a	n/a	n/a	n/a	n/a
463.556	n/a	REC_WORD	231778	wordpools/wasnorm_wordpool_less_exclusions.txt	LTP192	ltpFR	2	1	1	SKILLET	1317	n/a	n/a	0	n/a	n/a	n/a	n/a	n/a
504.878	n/a	WORD	252439	wordpools/wasnorm_wordpool_less_exclusions.txt	LTP192	ltpFR	2	2	0	RULER	1216	n/a	n/a	0	0.57763671875	0.412841796875	1	lower	zerothre.ttf
508.956	n/a	WORD	254478	wordpools/wasnorm_wordpool_less_exclusions.txt	LTP192	ltpFR	2	2	0	CABBAGE	210	n/a	n/a	0	0.57763671875	0.412841796875	1	lower	zerothre.ttf
512.85	n/a	WORD	256425	wordpools/wasnorm_wordpool_less_exclusions.txt	LTP192	ltpFR	2	2	1	REEF	1177	n/a	n/a	0	0.422607421875	0.5869140625	0	upper	amplitud.ttf
516.762	n/a	WORD	258381	wordpools/wasnorm_wordpool_less_exclusions.txt	LTP192	ltpFR	2	2	1	TOOTHBRUSH	1482	n/a	n/a	0	0.422607421875	0.5869140625	0	upper	amplitud.ttf
520.822	n/a	WORD	260411	wordpools/wasnorm_wordpool_less_exclusions.txt	LTP192	ltpFR	2	2	0	TOMATO	1476	n/a	n/a	0	0.57763671875	0.412841796875	1	lower	zerothre.ttf
524.732	n/a	WORD	262366	wordpools/wasnorm_wordpool_less_exclusions.txt	LTP192	ltpFR	2	2	0	SURF	1412	n/a	n/a	1	0.57763671875	0.412841796875	1	lower	zerothre.ttf
528.91	n/a	WORD	264455	wordpools/wasnorm_wordpool_less_exclusions.txt	LTP192	ltpFR	2	2	0	ARTERY	41	n/a	n/a	0	0.57763671875	0.412841796875	1	lower	zerothre.ttf
533.054	n/a	WORD	266527	wordpools/wasnorm_wordpool_less_exclusions.txt	LTP192	ltpFR	2	2	0	PERMIT	1051	n/a	n/a	0	0.57763671875	0.412841796875	1	lower	zerothre.ttf
537.064	n/a	WORD	268532	wordpools/wasnorm_wordpool_less_exclusions.txt	LTP192	ltpFR	2	2	1	STICKER	1382	n/a	n/a	0	0.422607421875	0.5869140625	0	upper	amplitud.ttf
541.074	n/a	WORD	270537	wordpools/wasnorm_wordpool_less_exclusions.txt	LTP192	ltpFR	2	2	1	SENATE	1267	n/a	n/a	1	0.422607421875	0.5869140625	0	upper	amplitud.ttf
545.168	n/a	WORD	272584	wordpools/wasnorm_wordpool_less_exclusions.txt	LTP192	ltpFR	2	2	1	ATHLETE	52	n/a	n/a	1	0.422607421875	0.5869140625	0	upper	amplitud.ttf
549.246	n/a	WORD	274623	wordpools/wasnorm_wordpool_less_exclusions.txt	LTP192	ltpFR	2	2	1	REFEREE	1178	n/a	n/a	1	0.422607421875	0.5869140625	0	upper	amplitud.ttf
553.306	n/a	WORD	276653	wordpools/wasnorm_wordpool_less_exclusions.txt	LTP192	ltpFR	2	2	1	DAM	436	n/a	n/a	0	0.422607421875	0.5869140625	0	upper	amplitud.ttf
557.318	n/a	WORD	278659	wordpools/wasnorm_wordpool_less_exclusions.txt	LTP192	ltpFR	2	2	1	WINGS	1614	n/a	n/a	0	0.422607421875	0.5869140625	0	upper	amplitud.ttf
561.278	n/a	WORD	280639	wordpools/wasnorm_wordpool_less_exclusions.txt	LTP192	ltpFR	2	2	0	AUTHOR	61	n/a	n/a	0	0.57763671875	0.412841796875	1	lower	zerothre.ttf
565.206	n/a	WORD	282603	wordpools/wasnorm_wordpool_less_exclusions.txt	LTP192	ltpFR	2	2	0	PUBLISHER	1137	n/a	n/a	1	0.57763671875	0.412841796875	1	lower	zerothre.ttf
571.132	n/a	REC_START	285566	n/a	LTP192	ltpFR	2	2	n/a	n/a	n/a	n/a	n/a	n/a	n/a	n/a	n/a	n/a	n/a
571.804	n/a	REC_WORD	285902	wordpools/wasnorm_wordpool_less_exclusions.txt	LTP192	ltpFR	2	2	1	ATHLETE	52	n/a	n/a	1	n/a	n/a	n/a	n/a	n/a
572.648	n/a	REC_WORD	286324	wordpools/wasnorm_wordpool_less_exclusions.txt	LTP192	ltpFR	2	2	1	REFEREE	1178	n/a	n/a	1	n/a	n/a	n/a	n/a	n/a
573.676	n/a	REC_WORD	286838	wordpools/wasnorm_wordpool_less_exclusions.txt	LTP192	ltpFR	2	2	0	AUTHOR	61	n/a	n/a	0	n/a	n/a	n/a	n/a	n/a
574.714	n/a	REC_WORD	287357	wordpools/wasnorm_wordpool_less_exclusions.txt	LTP192	ltpFR	2	2	0	PUBLISHER	1137	n/a	n/a	1	n/a	n/a	n/a	n/a	n/a
587.998	n/a	REC_WORD	293999	wordpools/wasnorm_wordpool_less_exclusions.txt	LTP192	ltpFR	2	2	0	PERMIT	1051	n/a	n/a	0	n/a	n/a	n/a	n/a	n/a
589.006	n/a	REC_WORD	294503	wordpools/wasnorm_wordpool_less_exclusions.txt	LTP192	ltpFR	2	2	0	CABBAGE	210	n/a	n/a	0	n/a	n/a	n/a	n/a	n/a
590.322	n/a	REC_WORD	295161	wordpools/wasnorm_wordpool_less_exclusions.txt	LTP192	ltpFR	2	2	0	TOMATO	1476	n/a	n/a	0	n/a	n/a	n/a	n/a	n/a
593.96	n/a	REC_WORD	296980	wordpools/wasnorm_wordpool_less_exclusions.txt	LTP192	ltpFR	2	2	0	RULER	1216	n/a	n/a	0	n/a	n/a	n/a	n/a	n/a
600.3	n/a	REC_WORD	300150	wordpools/wasnorm_wordpool_less_exclusions.txt	LTP192	ltpFR	2	2	1	SENATE	1267	n/a	n/a	1	n/a	n/a	n/a	n/a	n/a
610.312	n/a	REC_WORD	305156	wordpools/wasnorm_wordpool_less_exclusions.txt	LTP192	ltpFR	2	2	0	ARTERY	41	n/a	n/a	0	n/a	n/a	n/a	n/a	n/a
614.742	n/a	REC_WORD	307371	wordpools/wasnorm_wordpool_less_exclusions.txt	LTP192	ltpFR	2	2	1	DAM	436	n/a	n/a	0	n/a	n/a	n/a	n/a	n/a
654.124	n/a	WORD	327062	wordpools/wasnorm_wordpool_less_exclusions.txt	LTP192	ltpFR	2	3	-1	LOFT	840	n/a	n/a	-1	1.0	1.0	1	upper	Verdana.ttf
658.052	n/a	WORD	329026	wordpools/wasnorm_wordpool_less_exclusions.txt	LTP192	ltpFR	2	3	-1	BLUEJAY	141	n/a	n/a	-1	1.0	1.0	1	upper	Verdana.ttf
662.212	n/a	WORD	331106	wordpools/wasnorm_wordpool_less_exclusions.txt	LTP192	ltpFR	2	3	-1	BRIDE	173	n/a	n/a	-1	1.0	1.0	1	upper	Verdana.ttf
666.206	n/a	WORD	333103	wordpools/wasnorm_wordpool_less_exclusions.txt	LTP192	ltpFR	2	3	-1	MARS	873	n/a	n/a	-1	1.0	1.0	1	upper	Verdana.ttf
670.268	n/a	WORD	335134	wordpools/wasnorm_wordpool_less_exclusions.txt	LTP192	ltpFR	2	3	-1	MOLECULE	905	n/a	n/a	-1	1.0	1.0	1	upper	Verdana.ttf
674.328	n/a	WORD	337164	wordpools/wasnorm_wordpool_less_exclusions.txt	LTP192	ltpFR	2	3	-1	BIOLOGIST	128	n/a	n/a	-1	1.0	1.0	1	upper	Verdana.ttf
678.306	n/a	WORD	339153	wordpools/wasnorm_wordpool_less_exclusions.txt	LTP192	ltpFR	2	3	-1	DICE	461	n/a	n/a	-1	1.0	1.0	1	upper	Verdana.ttf
682.266	n/a	WORD	341133	wordpools/wasnorm_wordpool_less_exclusions.txt	LTP192	ltpFR	2	3	-1	CHIME	300	n/a	n/a	-1	1.0	1.0	1	upper	Verdana.ttf
686.226	n/a	WORD	343113	wordpools/wasnorm_wordpool_less_exclusions.txt	LTP192	ltpFR	2	3	-1	SINK	1309	n/a	n/a	-1	1.0	1.0	1	upper	Verdana.ttf
690.354	n/a	WORD	345177	wordpools/wasnorm_wordpool_less_exclusions.txt	LTP192	ltpFR	2	3	-1	NEPTUNE	943	n/a	n/a	-1	1.0	1.0	1	upper	Verdana.ttf
694.448	n/a	WORD	347224	wordpools/wasnorm_wordpool_less_exclusions.txt	LTP192	ltpFR	2	3	-1	BUTTERFLY	206	n/a	n/a	-1	1.0	1.0	1	upper	Verdana.ttf
698.308	n/a	WORD	349154	wordpools/wasnorm_wordpool_less_exclusions.txt	LTP192	ltpFR	2	3	-1	PRINCESS	1125	n/a	n/a	-1	1.0	1.0	1	upper	Verdana.ttf
702.518	n/a	WORD	351259	wordpools/wasnorm_wordpool_less_exclusions.txt	LTP192	ltpFR	2	3	-1	TOOL	1480	n/a	n/a	-1	1.0	1.0	1	upper	Verdana.ttf
706.414	n/a	WORD	353207	wordpools/wasnorm_wordpool_less_exclusions.txt	LTP192	ltpFR	2	3	-1	SCREWDRIVER	1255	n/a	n/a	-1	1.0	1.0	1	upper	Verdana.ttf
710.574	n/a	WORD	355287	wordpools/wasnorm_wordpool_less_exclusions.txt	LTP192	ltpFR	2	3	-1	HAM	678	n/a	n/a	-1	1.0	1.0	1	upper	Verdana.ttf
714.65	n/a	WORD	357325	wordpools/wasnorm_wordpool_less_exclusions.txt	LTP192	ltpFR	2	3	-1	LUNCH	849	n/a	n/a	-1	1.0	1.0	1	upper	Verdana.ttf
720.594	n/a	REC_START	360297	n/a	LTP192	ltpFR	2	3	n/a	n/a	n/a	n/a	n/a	n/a	n/a	n/a	n/a	n/a	n/a
721.166	n/a	REC_WORD	360583	wordpools/wasnorm_wordpool_less_exclusions.txt	LTP192	ltpFR	2	3	-1	HAM	678	n/a	n/a	-1	n/a	n/a	n/a	n/a	n/a
722.006	n/a	REC_WORD	361003	wordpools/wasnorm_wordpool_less_exclusions.txt	LTP192	ltpFR	2	3	-1	LUNCH	849	n/a	n/a	-1	n/a	n/a	n/a	n/a	n/a
723.128	n/a	REC_WORD	361564	wordpools/wasnorm_wordpool_less_exclusions.txt	LTP192	ltpFR	2	3	-1	SCREWDRIVER	1255	n/a	n/a	-1	n/a	n/a	n/a	n/a	n/a
724.3	n/a	REC_WORD	362150	wordpools/wasnorm_wordpool_less_exclusions.txt	LTP192	ltpFR	2	3	-1	TOOL	1480	n/a	n/a	-1	n/a	n/a	n/a	n/a	n/a
725.158	n/a	REC_WORD	362579	wordpools/wasnorm_wordpool_less_exclusions.txt	LTP192	ltpFR	2	3	-1	LOFT	840	n/a	n/a	-1	n/a	n/a	n/a	n/a	n/a
726.076	n/a	REC_WORD	363038	wordpools/wasnorm_wordpool_less_exclusions.txt	LTP192	ltpFR	2	3	-1	BLUEJAY	141	n/a	n/a	-1	n/a	n/a	n/a	n/a	n/a
727.128	n/a	REC_WORD	363564	wordpools/wasnorm_wordpool_less_exclusions.txt	LTP192	ltpFR	2	3	-1	BRIDE	173	n/a	n/a	-1	n/a	n/a	n/a	n/a	n/a
741.984	n/a	REC_WORD	370992	wordpools/wasnorm_wordpool_less_exclusions.txt	LTP192	ltpFR	2	3	-1	BUTTERFLY	206	n/a	n/a	-1	n/a	n/a	n/a	n/a	n/a
742.898	n/a	REC_WORD	371449	wordpools/wasnorm_wordpool_less_exclusions.txt	LTP192	ltpFR	2	3	-1	PRINCESS	1125	n/a	n/a	-1	n/a	n/a	n/a	n/a	n/a
764.014	n/a	REC_WORD	382007	wordpools/wasnorm_wordpool_less_exclusions.txt	LTP192	ltpFR	2	3	-1	DICE	461	n/a	n/a	-1	n/a	n/a	n/a	n/a	n/a
774.6	n/a	REC_WORD	387300	wordpools/wasnorm_wordpool_less_exclusions.txt	LTP192	ltpFR	2	3	-1	SINK	1309	n/a	n/a	-1	n/a	n/a	n/a	n/a	n/a
809.412	n/a	WORD	404706	wordpools/wasnorm_wordpool_less_exclusions.txt	LTP192	ltpFR	2	4	0	BARRACUDA	90	n/a	n/a	0	0.57763671875	0.412841796875	1	lower	zerothre.ttf
813.322	n/a	WORD	406661	wordpools/wasnorm_wordpool_less_exclusions.txt	LTP192	ltpFR	2	4	0	PADDLE	1000	n/a	n/a	1	0.57763671875	0.412841796875	1	lower	zerothre.ttf
817.516	n/a	WORD	408758	wordpools/wasnorm_wordpool_less_exclusions.txt	LTP192	ltpFR	2	4	1	BACKBONE	66	n/a	n/a	0	0.422607421875	0.5869140625	0	upper	amplitud.ttf
821.594	n/a	WORD	410797	wordpools/wasnorm_wordpool_less_exclusions.txt	LTP192	ltpFR	2	4	1	CREVICE	405	n/a	n/a	0	0.422607421875	0.5869140625	0	upper	amplitud.ttf
825.538	n/a	WORD	412769	wordpools/wasnorm_wordpool_less_exclusions.txt	LTP192	ltpFR	2	4	1	BED	110	n/a	n/a	0	0.422607421875	0.5869140625	0	upper	amplitud.ttf
829.514	n/a	WORD	414757	wordpools/wasnorm_wordpool_less_exclusions.txt	LTP192	ltpFR	2	4	1	NIGHTGOWN	953	n/a	n/a	0	0.422607421875	0.5869140625	0	upper	amplitud.ttf
833.642	n/a	WORD	416821	wordpools/wasnorm_wordpool_less_exclusions.txt	LTP192	ltpFR	2	4	1	RIVER	1194	n/a	n/a	1	0.422607421875	0.5869140625	0	upper	amplitud.ttf
837.868	n/a	WORD	418934	wordpools/wasnorm_wordpool_less_exclusions.txt	LTP192	ltpFR	2	4	1	NET	946	n/a	n/a	0	0.422607421875	0.5869140625	0	upper	amplitud.ttf
841.93	n/a	WORD	420965	wordpools/wasnorm_wordpool_less_exclusions.txt	LTP192	ltpFR	2	4	0	PARSLEY	1016	n/a	n/a	0	0.57763671875	0.412841796875	1	lower	zerothre.ttf
845.99	n/a	WORD	422995	wordpools/wasnorm_wordpool_less_exclusions.txt	LTP192	ltpFR	2	4	0	ELF	525	n/a	n/a	1	0.57763671875	0.412841796875	1	lower	zerothre.ttf
850.068	n/a	WORD	425034	wordpools/wasnorm_wordpool_less_exclusions.txt	LTP192	ltpFR	2	4	0	EMPLOYEE	531	n/a	n/a	1	0.57763671875	0.412841796875	1	lower	zerothre.ttf
854.078	n/a	WORD	427039	wordpools/wasnorm_wordpool_less_exclusions.txt	LTP192	ltpFR	2	4	0	RIB	1188	n/a	n/a	0	0.57763671875	0.412841796875	1	lower	zerothre.ttf
858.006	n/a	WORD	429003	wordpools/wasnorm_wordpool_less_exclusions.txt	LTP192	ltpFR	2	4	1	SALMON	1227	n/a	n/a	1	0.422607421875	0.5869140625	0	upper	amplitud.ttf
862.232	n/a	WORD	431116	wordpools/wasnorm_wordpool_less_exclusions.txt	LTP192	ltpFR	2	4	1	ASSISTANT	48	n/a	n/a	1	0.422607421875	0.5869140625	0	upper	amplitud.ttf
866.06	n/a	WORD	433030	wordpools/wasnorm_wordpool_less_exclusions.txt	LTP192	ltpFR	2	4	0	FEMALE	559	n/a	n/a	1	0.57763671875	0.412841796875	1	lower	zerothre.ttf
869.938	n/a	WORD	434969	wordpools/wasnorm_wordpool_less_exclusions.txt	LTP192	ltpFR	2	4	0	WOMAN	1620	n/a	n/a	1	0.57763671875	0.412841796875	1	lower	zerothre.ttf
875.848	n/a	REC_START	437924	n/a	LTP192	ltpFR	2	4	n/a	n/a	n/a	n/a	n/a	n/a	n/a	n/a	n/a	n/a	n/a
876.446	n/a	REC_WORD	438223	wordpools/wasnorm_wordpool_less_exclusions.txt	LTP192	ltpFR	2	4	1	ASSISTANT	48	n/a	n/a	1	n/a	n/a	n/a	n/a	n/a
877.294	n/a	REC_WORD	438647	wordpools/wasnorm_wordpool_less_exclusions.txt	LTP192	ltpFR	2	4	0	FEMALE	559	n/a	n/a	1	n/a	n/a	n/a	n/a	n/a
878.082	n/a	REC_WORD	439041	wordpools/wasnorm_wordpool_less_exclusions.txt	LTP192	ltpFR	2	4	0	WOMAN	1620	n/a	n/a	1	n/a	n/a	n/a	n/a	n/a
878.906	n/a	REC_WORD	439453	wordpools/wasnorm_wordpool_less_exclusions.txt	LTP192	ltpFR	2	4	0	RIB	1188	n/a	n/a	0	n/a	n/a	n/a	n/a	n/a
879.764	n/a	REC_WORD	439882	wordpools/wasnorm_wordpool_less_exclusions.txt	LTP192	ltpFR	2	4	0	PARSLEY	1016	n/a	n/a	0	n/a	n/a	n/a	n/a	n/a
881.574	n/a	REC_WORD	440787	wordpools/wasnorm_wordpool_less_exclusions.txt	LTP192	ltpFR	2	4	1	RIVER	1194	n/a	n/a	1	n/a	n/a	n/a	n/a	n/a
883.2	n/a	REC_WORD	441600	wordpools/wasnorm_wordpool_less_exclusions.txt	LTP192	ltpFR	2	4	1	NIGHTGOWN	953	n/a	n/a	0	n/a	n/a	n/a	n/a	n/a
884.362	n/a	REC_WORD	442181	wordpools/wasnorm_wordpool_less_exclusions.txt	LTP192	ltpFR	2	4	1	BED	110	n/a	n/a	0	n/a	n/a	n/a	n/a	n/a
885.77	n/a	REC_WORD	442885	wordpools/wasnorm_wordpool_less_exclusions.txt	LTP192	ltpFR	2	4	0	PADDLE	1000	n/a	n/a	1	n/a	n/a	n/a	n/a	n/a
899.968	n/a	REC_WORD	449984	wordpools/wasnorm_wordpool_less_exclusions.txt	LTP192	ltpFR	2	4	1	BACKBONE	66	n/a	n/a	0	n/a	n/a	n/a	n/a	n/a
904.322	n/a	REC_WORD	452161	wordpools/wasnorm_wordpool_less_exclusions.txt	LTP192	ltpFR	2	4	1	SALMON	1227	n/a	n/a	1	n/a	n/a	n/a	n/a	n/a
936.086	n/a	REC_WORD	468043	wordpools/wasnorm_wordpool_less_exclusions.txt	LTP192	ltpFR	2	4	n/a	NUT	965	n/a	n/a	n/a	n/a	n/a	n/a	n/a	n/a
941.514	n/a	REC_WORD	470757	wordpools/wasnorm_wordpool_less_exclusions.txt	LTP192	ltpFR	2	4	0	EMPLOYEE	531	n/a	n/a	1	n/a	n/a	n/a	n/a	n/a
957.426	n/a	WORD	478713	wordpools/wasnorm_wordpool_less_exclusions.txt	LTP192	ltpFR	2	5	-1	CHICKEN	297	n/a	n/a	-1	1.0	1.0	1	upper	Verdana.ttf
961.636	n/a	WORD	480818	wordpools/wasnorm_wordpool_less_exclusions.txt	LTP192	ltpFR	2	5	-1	CANAL	226	n/a	n/a	-1	1.0	1.0	1	upper	Verdana.ttf
965.764	n/a	WORD	482882	wordpools/wasnorm_wordpool_less_exclusions.txt	LTP192	ltpFR	2	5	-1	ALLIGATOR	16	n/a	n/a	-1	1.0	1.0	1	upper	Verdana.ttf
969.724	n/a	WORD	484862	wordpools/wasnorm_wordpool_less_exclusions.txt	LTP192	ltpFR	2	5	-1	TIE	1466	n/a	n/a	-1	1.0	1.0	1	upper	Verdana.ttf
973.568	n/a	WORD	486784	wordpools/wasnorm_wordpool_less_exclusions.txt	LTP192	ltpFR	2	5	-1	BEAVER	109	n/a	n/a	-1	1.0	1.0	1	upper	Verdana.ttf
977.696	n/a	WORD	488848	wordpools/wasnorm_wordpool_less_exclusions.txt	LTP192	ltpFR	2	5	-1	THREAD	1460	n/a	n/a	-1	1.0	1.0	1	upper	Verdana.ttf
981.672	n/a	WORD	490836	wordpools/wasnorm_wordpool_less_exclusions.txt	LTP192	ltpFR	2	5	-1	ANTLER	29	n/a	n/a	-1	1.0	1.0	1	upper	Verdana.ttf
985.534	n/a	WORD	492767	wordpools/wasnorm_wordpool_less_exclusions.txt	LTP192	ltpFR	2	5	-1	SAND	1230	n/a	n/a	-1	1.0	1.0	1	upper	Verdana.ttf
989.56	n/a	WORD	494780	wordpools/wasnorm_wordpool_less_exclusions.txt	LTP192	ltpFR	2	5	-1	LIZARD	834	n/a	n/a	-1	1.0	1.0	1	upper	Verdana.ttf
993.738	n/a	WORD	496869	wordpools/wasnorm_wordpool_less_exclusions.txt	LTP192	ltpFR	2	5	-1	BREAST	171	n/a	n/a	-1	1.0	1.0	1	upper	Verdana.ttf
997.782	n/a	WORD	498891	wordpools/wasnorm_wordpool_less_exclusions.txt	LTP192	ltpFR	2	5	-1	WATER	1594	n/a	n/a	-1	1.0	1.0	1	upper	Verdana.ttf
1001.826	n/a	WORD	500913	wordpools/wasnorm_wordpool_less_exclusions.txt	LTP192	ltpFR	2	5	-1	TREAD	1499	n/a	n/a	-1	1.0	1.0	1	upper	Verdana.ttf
1005.654	n/a	WORD	502827	wordpools/wasnorm_wordpool_less_exclusions.txt	LTP192	ltpFR	2	5	-1	STEAM	1375	n/a	n/a	-1	1.0	1.0	1	upper	Verdana.ttf
1009.83	n/a	WORD	504915	wordpools/wasnorm_wordpool_less_exclusions.txt	LTP192	ltpFR	2	5	-1	BROOK	177	n/a	n/a	-1	1.0	1.0	1	upper	Verdana.ttf
1013.858	n/a	WORD	506929	wordpools/wasnorm_wordpool_less_exclusions.txt	LTP192	ltpFR	2	5	-1	PEN	1041	n/a	n/a	-1	1.0	1.0	1	upper	Verdana.ttf
1017.786	n/a	WORD	508893	wordpools/wasnorm_wordpool_less_exclusions.txt	LTP192	ltpFR	2	5	-1	ESSAY	540	n/a	n/a	-1	1.0	1.0	1	upper	Verdana.ttf
1023.612	n/a	REC_START	511806	n/a	LTP192	ltpFR	2	5	n/a	n/a	n/a	n/a	n/a	n/a	n/a	n/a	n/a	n/a	n/a
1024.2	n/a	REC_WORD	512100	wordpools/wasnorm_wordpool_less_exclusions.txt	LTP192	ltpFR	2	5	-1	PEN	1041	n/a	n/a	-1	n/a	n/a	n/a	n/a	n/a
1024.818	n/a	REC_WORD	512409	wordpools/wasnorm_wordpool_less_exclusions.txt	LTP192	ltpFR	2	5	-1	ESSAY	540	n/a	n/a	-1	n/a	n/a	n/a	n/a	n/a
1025.842	n/a	REC_WORD	512921	wordpools/wasnorm_wordpool_less_exclusions.txt	LTP192	ltpFR	2	5	-1	BROOK	177	n/a	n/a	-1	n/a	n/a	n/a	n/a	n/a
1026.48	n/a	REC_WORD	513240	wordpools/wasnorm_wordpool_less_exclusions.txt	LTP192	ltpFR	2	5	n/a	STREAM	1392	n/a	n/a	n/a	n/a	n/a	n/a	n/a	n/a
1043.85	n/a	REC_WORD	521925	wordpools/wasnorm_wordpool_less_exclusions.txt	LTP192	ltpFR	2	5	-1	TIE	1466	n/a	n/a	-1	n/a	n/a	n/a	n/a	n/a
1048.24	n/a	REC_WORD	524120	wordpools/wasnorm_wordpool_less_exclusions.txt	LTP192	ltpFR	2	5	-1	CHICKEN	297	n/a	n/a	-1	n/a	n/a	n/a	n/a	n/a
1049.174	n/a	REC_WORD	524587	wordpools/wasnorm_wordpool_less_exclusions.txt	LTP192	ltpFR	2	5	-1	BREAST	171	n/a	n/a	-1	n/a	n/a	n/a	n/a	n/a
1069.522	n/a	REC_WORD	534761	wordpools/wasnorm_wordpool_less_exclusions.txt	LTP192	ltpFR	2	5	-1	CANAL	226	n/a	n/a	-1	n/a	n/a	n/a	n/a	n/a
1113.012	n/a	WORD	556506	wordpools/wasnorm_wordpool_less_exclusions.txt	LTP192	ltpFR	2	6	0	PISTON	1076	n/a	n/a	0	0.57763671875	0.412841796875	1	lower	zerothre.ttf
1116.906	n/a	WORD	558453	wordpools/wasnorm_wordpool_less_exclusions.txt	LTP192	ltpFR	2	6	0	ENGINE	535	n/a	n/a	1	0.57763671875	0.412841796875	1	lower	zerothre.ttf
1120.966	n/a	WORD	560483	wordpools/wasnorm_wordpool_less_exclusions.txt	LTP192	ltpFR	2	6	0	MIRROR	899	n/a	n/a	1	0.57763671875	0.412841796875	1	lower	zerothre.ttf
1124.994	n/a	WORD	562497	wordpools/wasnorm_wordpool_less_exclusions.txt	LTP192	ltpFR	2	6	0	PORT	1110	n/a	n/a	1	0.57763671875	0.412841796875	1	lower	zerothre.ttf
1128.838	n/a	WORD	564419	wordpools/wasnorm_wordpool_less_exclusions.txt	LTP192	ltpFR	2	6	0	DRAWING	494	n/a	n/a	0	0.57763671875	0.412841796875	1	lower	zerothre.ttf
1132.966	n/a	WORD	566483	wordpools/wasnorm_wordpool_less_exclusions.txt	LTP192	ltpFR	2	6	0	SUGAR	1401	n/a	n/a	0	0.57763671875	0.412841796875	1	lower	zerothre.ttf
1137.142	n/a	WORD	568571	wordpools/wasnorm_wordpool_less_exclusions.txt	LTP192	ltpFR	2	6	0	LAUNDRY	803	n/a	n/a	1	0.57763671875	0.412841796875	1	lower	zerothre.ttf
1140.97	n/a	WORD	570485	wordpools/wasnorm_wordpool_less_exclusions.txt	LTP192	ltpFR	2	6	0	ELM	527	n/a	n/a	1	0.57763671875	0.412841796875	1	lower	zerothre.ttf
1145.13	n/a	WORD	572565	wordpools/wasnorm_wordpool_less_exclusions.txt	LTP192	ltpFR	2	6	0	HAMBURGER	679	n/a	n/a	0	0.57763671875	0.412841796875	1	lower	zerothre.ttf
1149.192	n/a	WORD	574596	wordpools/wasnorm_wordpool_less_exclusions.txt	LTP192	ltpFR	2	6	0	FOREHEAD	592	n/a	n/a	0	0.57763671875	0.412841796875	1	lower	zerothre.ttf
1153.186	n/a	WORD	576593	wordpools/wasnorm_wordpool_less_exclusions.txt	LTP192	ltpFR	2	6	0	MASK	876	n/a	n/a	0	0.57763671875	0.412841796875	1	lower	zerothre.ttf
1157.046	n/a	WORD	578523	wordpools/wasnorm_wordpool_less_exclusions.txt	LTP192	ltpFR	2	6	0	ZOO	1637	n/a	n/a	1	0.57763671875	0.412841796875	1	lower	zerothre.ttf
1161.024	n/a	WORD	580512	wordpools/wasnorm_wordpool_less_exclusions.txt	LTP192	ltpFR	2	6	0	PLANT	1083	n/a	n/a	0	0.57763671875	0.412841796875	1	lower	zerothre.ttf
1165.118	n/a	WORD	582559	wordpools/wasnorm_wordpool_less_exclusions.txt	LTP192	ltpFR	2	6	0	APRON	35	n/a	n/a	1	0.57763671875	0.412841796875	1	lower	zerothre.ttf
1169.246	n/a	WORD	584623	wordpools/wasnorm_wordpool_less_exclusions.txt	LTP192	ltpFR	2	6	0	LINT	826	n/a	n/a	0	0.57763671875	0.412841796875	1	lower	zerothre.ttf
1173.39	n/a	WORD	586695	wordpools/wasnorm_wordpool_less_exclusions.txt	LTP192	ltpFR	2	6	0	PEPPER	1047	n/a	n/a	0	0.57763671875	0.412841796875	1	lower	zerothre.ttf
1179.414	n/a	REC_START	589707	n/a	LTP192	ltpFR	2	6	n/a	n/a	n/a	n/a	n/a	n/a	n/a	n/a	n/a	n/a	n/a
1180.122	n/a	REC_WORD	590061	wordpools/wasnorm_wordpool_less_exclusions.txt	LTP192	ltpFR	2	6	0	SUGAR	1401	n/a	n/a	0	n/a	n/a	n/a	n/a	n/a
1181.086	n/a	REC_WORD	590543	wordpools/wasnorm_wordpool_less_exclusions.txt	LTP192	ltpFR	2	6	0	PEPPER	1047	n/a	n/a	0	n/a	n/a	n/a	n/a	n/a
1182.418	n/a	REC_WORD	591209	wordpools/wasnorm_wordpool_less_exclusions.txt	LTP192	ltpFR	2	6	0	LINT	826	n/a	n/a	0	n/a	n/a	n/a	n/a	n/a
1184.966	n/a	REC_WORD	592483	wordpools/wasnorm_wordpool_less_exclusions.txt	LTP192	ltpFR	2	6	0	PISTON	1076	n/a	n/a	0	n/a	n/a	n/a	n/a	n/a
1187.844	n/a	REC_WORD	593922	wordpools/wasnorm_wordpool_less_exclusions.txt	LTP192	ltpFR	2	6	0	APRON	35	n/a	n/a	1	n/a	n/a	n/a	n/a	n/a
1204.518	n/a	REC_WORD	602259	wordpools/wasnorm_wordpool_less_exclusions.txt	LTP192	ltpFR	2	6	0	ZOO	1637	n/a	n/a	1	n/a	n/a	n/a	n/a	n/a
1205.296	n/a	REC_WORD	602648	wordpools/wasnorm_wordpool_less_exclusions.txt	LTP192	ltpFR	2	6	0	PLANT	1083	n/a	n/a	0	n/a	n/a	n/a	n/a	n/a
1213.312	n/a	REC_WORD	606656	wordpools/wasnorm_wordpool_less_exclusions.txt	LTP192	ltpFR	2	6	0	PORT	1110	n/a	n/a	1	n/a	n/a	n/a	n/a	n/a
1267.2	n/a	WORD	633600	wordpools/wasnorm_wordpool_less_exclusions.txt	LTP192	ltpFR	2	7	1	CASH	252	n/a	n/a	0	0.422607421875	0.5869140625	0	upper	amplitud.ttf
1271.378	n/a	WORD	635689	wordpools/wasnorm_wordpool_less_exclusions.txt	LTP192	ltpFR	2	7	1	RAG	1160	n/a	n/a	0	0.422607421875	0.5869140625	0	upper	amplitud.ttf
1275.272	n/a	WORD	637636	wordpools/wasnorm_wordpool_less_exclusions.txt	LTP192	ltpFR	2	7	0	BANKER	84	n/a	n/a	1	0.57763671875	0.412841796875	1	lower	zerothre.ttf
1279.248	n/a	WORD	639624	wordpools/wasnorm_wordpool_less_exclusions.txt	LTP192	ltpFR	2	7	0	CUSTOMER	430	n/a	n/a	1	0.57763671875	0.412841796875	1	lower	zerothre.ttf
1283.31	n/a	WORD	641655	wordpools/wasnorm_wordpool_less_exclusions.txt	LTP192	ltpFR	2	7	1	BANDIT	81	n/a	n/a	1	0.422607421875	0.5869140625	0	upper	amplitud.ttf
1287.504	n/a	WORD	643752	wordpools/wasnorm_wordpool_less_exclusions.txt	LTP192	ltpFR	2	7	1	CROOK	412	n/a	n/a	1	0.422607421875	0.5869140625	0	upper	amplitud.ttf
1291.63	n/a	WORD	645815	wordpools/wasnorm_wordpool_less_exclusions.txt	LTP192	ltpFR	2	7	1	TUNA	1518	n/a	n/a	1	0.422607421875	0.5869140625	0	upper	amplitud.ttf
1295.674	n/a	WORD	647837	wordpools/wasnorm_wordpool_less_exclusions.txt	LTP192	ltpFR	2	7	0	CENT	270	n/a	n/a	0	0.57763671875	0.412841796875	1	lower	zerothre.ttf
1299.784	n/a	WORD	649892	wordpools/wasnorm_wordpool_less_exclusions.txt	LTP192	ltpFR	2	7	0	WASP	1593	n/a	n/a	0	0.57763671875	0.412841796875	1	lower	zerothre.ttf
1303.846	n/a	WORD	651923	wordpools/wasnorm_wordpool_less_exclusions.txt	LTP192	ltpFR	2	7	0	SECRETARY	1265	n/a	n/a	1	0.57763671875	0.412841796875	1	lower	zerothre.ttf
1307.906	n/a	WORD	653953	wordpools/wasnorm_wordpool_less_exclusions.txt	LTP192	ltpFR	2	7	0	FLIPPER	580	n/a	n/a	0	0.57763671875	0.412841796875	1	lower	zerothre.ttf
1312.034	n/a	WORD	656017	wordpools/wasnorm_wordpool_less_exclusions.txt	LTP192	ltpFR	2	7	0	POWDER	1117	n/a	n/a	0	0.57763671875	0.412841796875	1	lower	zerothre.ttf
1315.878	n/a	WORD	657939	wordpools/wasnorm_wordpool_less_exclusions.txt	LTP192	ltpFR	2	7	0	BEET	115	n/a	n/a	0	0.57763671875	0.412841796875	1	lower	zerothre.ttf
1319.822	n/a	WORD	659911	wordpools/wasnorm_wordpool_less_exclusions.txt	LTP192	ltpFR	2	7	1	CAULIFLOWER	262	n/a	n/a	0	0.422607421875	0.5869140625	0	upper	amplitud.ttf
1323.834	n/a	WORD	661917	wordpools/wasnorm_wordpool_less_exclusions.txt	LTP192	ltpFR	2	7	1	CUPBOARD	425	n/a	n/a	0	0.422607421875	0.5869140625	0	upper	amplitud.ttf
1327.828	n/a	WORD	663914	wordpools/wasnorm_wordpool_less_exclusions.txt	LTP192	ltpFR	2	7	1	DISC	473	n/a	n/a	0	0.422607421875	0.5869140625	0	upper	amplitud.ttf
1333.52	n/a	REC_START	666760	n/a	LTP192	ltpFR	2	7	n/a	n/a	n/a	n/a	n/a	n/a	n/a	n/a	n/a	n/a	n/a
1334.044	n/a	REC_WORD	667022	wordpools/wasnorm_wordpool_less_exclusions.txt	LTP192	ltpFR	2	7	1	CUPBOARD	425	n/a	n/a	0	n/a	n/a	n/a	n/a	n/a
1334.772	n/a	REC_WORD	667386	wordpools/wasnorm_wordpool_less_exclusions.txt	LTP192	ltpFR	2	7	1	DISC	473	n/a	n/a	0	n/a	n/a	n/a	n/a	n/a
1335.68	n/a	REC_WORD	667840	wordpools/wasnorm_wordpool_less_exclusions.txt	LTP192	ltpFR	2	7	1	CAULIFLOWER	262	n/a	n/a	0	n/a	n/a	n/a	n/a	n/a
1336.592	n/a	REC_WORD	668296	wordpools/wasnorm_wordpool_less_exclusions.txt	LTP192	ltpFR	2	7	0	BANKER	84	n/a	n/a	1	n/a	n/a	n/a	n/a	n/a
1337.556	n/a	REC_WORD	668778	wordpools/wasnorm_wordpool_less_exclusions.txt	LTP192	ltpFR	2	7	0	SECRETARY	1265	n/a	n/a	1	n/a	n/a	n/a	n/a	n/a
1338.848	n/a	REC_WORD	669424	wordpools/wasnorm_wordpool_less_exclusions.txt	LTP192	ltpFR	2	7	0	CUSTOMER	430	n/a	n/a	1	n/a	n/a	n/a	n/a	n/a
1339.954	n/a	REC_WORD	669977	wordpools/wasnorm_wordpool_less_exclusions.txt	LTP192	ltpFR	2	7	0	POWDER	1117	n/a	n/a	0	n/a	n/a	n/a	n/a	n/a
1340.892	n/a	REC_WORD	670446	wordpools/wasnorm_wordpool_less_exclusions.txt	LTP192	ltpFR	2	7	0	FLIPPER	580	n/a	n/a	0	n/a	n/a	n/a	n/a	n/a
1418.592	n/a	WORD	709296	wordpools/wasnorm_wordpool_less_exclusions.txt	LTP192	ltpFR	2	8	0	COCOON	339	n/a	n/a	0	0.57763671875	0.412841796875	1	lower	zerothre.ttf
1422.804	n/a	WORD	711402	wordpools/wasnorm_wordpool_less_exclusions.txt	LTP192	ltpFR	2	8	0	HAWK	692	n/a	n/a	1	0.57763671875	0.412841796875	1	lower	zerothre.ttf
1426.68	n/a	WORD	713340	wordpools/wasnorm_wordpool_less_exclusions.txt	LTP192	ltpFR	2	8	0	SCOTCH	1251	n/a	n/a	0	0.57763671875	0.412841796875	1	lower	zerothre.ttf
1430.824	n/a	WORD	715412	wordpools/wasnorm_wordpool_less_exclusions.txt	LTP192	ltpFR	2	8	0	BUGGY	188	n/a	n/a	1	0.57763671875	0.412841796875	1	lower	zerothre.ttf
1434.818	n/a	WORD	717409	wordpools/wasnorm_wordpool_less_exclusions.txt	LTP192	ltpFR	2	8	0	BRACELET	163	n/a	n/a	0	0.57763671875	0.412841796875	1	lower	zerothre.ttf
1438.862	n/a	WORD	719431	wordpools/wasnorm_wordpool_less_exclusions.txt	LTP192	ltpFR	2	8	0	LINEN	825	n/a	n/a	1	0.57763671875	0.412841796875	1	lower	zerothre.ttf
1442.972	n/a	WORD	721486	wordpools/wasnorm_wordpool_less_exclusions.txt	LTP192	ltpFR	2	8	0	BARN	89	n/a	n/a	1	0.57763671875	0.412841796875	1	lower	zerothre.ttf
1446.834	n/a	WORD	723417	wordpools/wasnorm_wordpool_less_exclusions.txt	LTP192	ltpFR	2	8	0	PANTHER	1009	n/a	n/a	1	0.57763671875	0.412841796875	1	lower	zerothre.ttf
1451.028	n/a	WORD	725514	wordpools/wasnorm_wordpool_less_exclusions.txt	LTP192	ltpFR	2	8	0	VEST	1559	n/a	n/a	0	0.57763671875	0.412841796875	1	lower	zerothre.ttf
1455.004	n/a	WORD	727502	wordpools/wasnorm_wordpool_less_exclusions.txt	LTP192	ltpFR	2	8	0	LAPEL	800	n/a	n/a	0	0.57763671875	0.412841796875	1	lower	zerothre.ttf
1459.082	n/a	WORD	729541	wordpools/wasnorm_wordpool_less_exclusions.txt	LTP192	ltpFR	2	8	0	WELL	1600	n/a	n/a	0	0.57763671875	0.412841796875	1	lower	zerothre.ttf
1463.162	n/a	WORD	731581	wordpools/wasnorm_wordpool_less_exclusions.txt	LTP192	ltpFR	2	8	0	STREAM	1392	n/a	n/a	1	0.57763671875	0.412841796875	1	lower	zerothre.ttf
1467.156	n/a	WORD	733578	wordpools/wasnorm_wordpool_less_exclusions.txt	LTP192	ltpFR	2	8	0	GOLD	647	n/a	n/a	0	0.57763671875	0.412841796875	1	lower	zerothre.ttf
1471.198	n/a	WORD	735599	wordpools/wasnorm_wordpool_less_exclusions.txt	LTP192	ltpFR	2	8	0	CLOSET	326	n/a	n/a	1	0.57763671875	0.412841796875	1	lower	zerothre.ttf
1475.242	n/a	WORD	737621	wordpools/wasnorm_wordpool_less_exclusions.txt	LTP192	ltpFR	2	8	0	ATTIRE	57	n/a	n/a	1	0.57763671875	0.412841796875	1	lower	zerothre.ttf
1479.452	n/a	WORD	739726	wordpools/wasnorm_wordpool_less_exclusions.txt	LTP192	ltpFR	2	8	0	COMMANDER	354	n/a	n/a	1	0.57763671875	0.412841796875	1	lower	zerothre.ttf
1485.278	n/a	REC_START	742639	n/a	LTP192	ltpFR	2	8	n/a	n/a	n/a	n/a	n/a	n/a	n/a	n/a	n/a	n/a	n/a
1486.16	n/a	REC_WORD	743080	wordpools/wasnorm_wordpool_less_exclusions.txt	LTP192	ltpFR	2	8	0	COMMANDER	354	n/a	n/a	1	n/a	n/a	n/a	n/a	n/a
1486.898	n/a	REC_WORD	743449	wordpools/wasnorm_wordpool_less_exclusions.txt	LTP192	ltpFR	2	8	0	ATTIRE	57	n/a	n/a	1	n/a	n/a	n/a	n/a	n/a
1487.816	n/a	REC_WORD	743908	wordpools/wasnorm_wordpool_less_exclusions.txt	LTP192	ltpFR	2	8	0	GOLD	647	n/a	n/a	0	n/a	n/a	n/a	n/a	n/a
1488.874	n/a	REC_WORD	744437	wordpools/wasnorm_wordpool_less_exclusions.txt	LTP192	ltpFR	2	8	0	BRACELET	163	n/a	n/a	0	n/a	n/a	n/a	n/a	n/a
1493.608	n/a	REC_WORD	746804	wordpools/wasnorm_wordpool_less_exclusions.txt	LTP192	ltpFR	2	8	0	BARN	89	n/a	n/a	1	n/a	n/a	n/a	n/a	n/a
1495.33	n/a	REC_WORD	747665	wordpools/wasnorm_wordpool_less_exclusions.txt	LTP192	ltpFR	2	8	n/a	LOCK	838	n/a	n/a	n/a	n/a	n/a	n/a	n/a	n/a
1511.962	n/a	REC_WORD	755981	wordpools/wasnorm_wordpool_less_exclusions.txt	LTP192	ltpFR	2	8	0	CLOSET	326	n/a	n/a	1	n/a	n/a	n/a	n/a	n/a
1520.662	n/a	REC_WORD	760331	wordpools/wasnorm_wordpool_less_exclusions.txt	LTP192	ltpFR	2	8	0	HAWK	692	n/a	n/a	1	n/a	n/a	n/a	n/a	n/a
1567.306	n/a	WORD	783653	wordpools/wasnorm_wordpool_less_exclusions.txt	LTP192	ltpFR	2	9	1	FOLLOWER	589	n/a	n/a	1	0.422607421875	0.5869140625	0	upper	amplitud.ttf
1571.284	n/a	WORD	785642	wordpools/wasnorm_wordpool_less_exclusions.txt	LTP192	ltpFR	2	9	1	TOAST	1471	n/a	n/a	0	0.422607421875	0.5869140625	0	upper	amplitud.ttf
1575.162	n/a	WORD	787581	wordpools/wasnorm_wordpool_less_exclusions.txt	LTP192	ltpFR	2	9	1	OATMEAL	967	n/a	n/a	0	0.422607421875	0.5869140625	0	upper	amplitud.ttf
1579.272	n/a	WORD	789636	wordpools/wasnorm_wordpool_less_exclusions.txt	LTP192	ltpFR	2	9	1	HAMMER	680	n/a	n/a	0	0.422607421875	0.5869140625	0	upper	amplitud.ttf
1583.148	n/a	WORD	791574	wordpools/wasnorm_wordpool_less_exclusions.txt	LTP192	ltpFR	2	9	1	TACK	1428	n/a	n/a	0	0.422607421875	0.5869140625	0	upper	amplitud.ttf
1587.178	n/a	WORD	793589	wordpools/wasnorm_wordpool_less_exclusions.txt	LTP192	ltpFR	2	9	1	CAB	209	n/a	n/a	0	0.422607421875	0.5869140625	0	upper	amplitud.ttf
1591.104	n/a	WORD	795552	wordpools/wasnorm_wordpool_less_exclusions.txt	LTP192	ltpFR	2	9	1	TENT	1449	n/a	n/a	0	0.422607421875	0.5869140625	0	upper	amplitud.ttf
1595.298	n/a	WORD	797649	wordpools/wasnorm_wordpool_less_exclusions.txt	LTP192	ltpFR	2	9	1	SILVERWARE	1308	n/a	n/a	0	0.422607421875	0.5869140625	0	upper	amplitud.ttf
1599.442	n/a	WORD	799721	wordpools/wasnorm_wordpool_less_exclusions.txt	LTP192	ltpFR	2	9	1	OX	994	n/a	n/a	1	0.422607421875	0.5869140625	0	upper	amplitud.ttf
1603.468	n/a	WORD	801734	wordpools/wasnorm_wordpool_less_exclusions.txt	LTP192	ltpFR	2	9	1	WALNUT	1584	n/a	n/a	0	0.422607421875	0.5869140625	0	upper	amplitud.ttf
1607.53	n/a	WORD	803765	wordpools/wasnorm_wordpool_less_exclusions.txt	LTP192	ltpFR	2	9	1	CHAPEL	280	n/a	n/a	0	0.422607421875	0.5869140625	0	upper	amplitud.ttf
1611.74	n/a	WORD	805870	wordpools/wasnorm_wordpool_less_exclusions.txt	LTP192	ltpFR	2	9	1	UTENSIL	1542	n/a	n/a	0	0.422607421875	0.5869140625	0	upper	amplitud.ttf
1615.85	n/a	WORD	807925	wordpools/wasnorm_wordpool_less_exclusions.txt	LTP192	ltpFR	2	9	1	CAPTAIN	239	n/a	n/a	1	0.422607421875	0.5869140625	0	upper	amplitud.ttf
1619.746	n/a	WORD	809873	wordpools/wasnorm_wordpool_less_exclusions.txt	LTP192	ltpFR	2	9	1	BANANA	77	n/a	n/a	0	0.422607421875	0.5869140625	0	upper	amplitud.ttf
1623.706	n/a	WORD	811853	wordpools/wasnorm_wordpool_less_exclusions.txt	LTP192	ltpFR	2	9	1	GORILLA	650	n/a	n/a	1	0.422607421875	0.5869140625	0	upper	amplitud.ttf
1627.534	n/a	WORD	813767	wordpools/wasnorm_wordpool_less_exclusions.txt	LTP192	ltpFR	2	9	1	TECHNICIAN	1443	n/a	n/a	1	0.422607421875	0.5869140625	0	upper	amplitud.ttf
1633.292	n/a	REC_START	816646	n/a	LTP192	ltpFR	2	9	n/a	n/a	n/a	n/a	n/a	n/a	n/a	n/a	n/a	n/a	n/a
1633.936	n/a	REC_WORD	816968	wordpools/wasnorm_wordpool_less_exclusions.txt	LTP192	ltpFR	2	9	1	TECHNICIAN	1443	n/a	n/a	1	n/a	n/a	n/a	n/a	n/a
1635.024	n/a	REC_WORD	817512	wordpools/wasnorm_wordpool_less_exclusions.txt	LTP192	ltpFR	2	9	1	GORILLA	650	n/a	n/a	1	n/a	n/a	n/a	n/a	n/a
1646.084	n/a	REC_WORD	823042	wordpools/wasnorm_wordpool_less_exclusions.txt	LTP192	ltpFR	2	9	1	WALNUT	1584	n/a	n/a	0	n/a	n/a	n/a	n/a	n/a
1649.35	n/a	REC_WORD	824675	wordpools/wasnorm_wordpool_less_exclusions.txt	LTP192	ltpFR	2	9	1	BANANA	77	n/a	n/a	0	n/a	n/a	n/a	n/a	n/a
1666.088	n/a	REC_WORD	833044	wordpools/wasnorm_wordpool_less_exclusions.txt	LTP192	ltpFR	2	9	1	CHAPEL	280	n/a	n/a	0	n/a	n/a	n/a	n/a	n/a
1669.58	n/a	REC_WORD	834790	wordpools/wasnorm_wordpool_less_exclusions.txt	LTP192	ltpFR	2	9	1	CAB	209	n/a	n/a	0	n/a	n/a	n/a	n/a	n/a
1677.466	n/a	REC_WORD	838733	wordpools/wasnorm_wordpool_less_exclusions.txt	LTP192	ltpFR	2	9	1	OATMEAL	967	n/a	n/a	0	n/a	n/a	n/a	n/a	n/a
1678.334	n/a	REC_WORD	839167	wordpools/wasnorm_wordpool_less_exclusions.txt	LTP192	ltpFR	2	9	1	TOAST	1471	n/a	n/a	0	n/a	n/a	n/a	n/a	n/a
1683.43	n/a	REC_WORD	841715	wordpools/wasnorm_wordpool_less_exclusions.txt	LTP192	ltpFR	2	9	1	OX	994	n/a	n/a	1	n/a	n/a	n/a	n/a	n/a
1723.208	n/a	WORD	861604	wordpools/wasnorm_wordpool_less_exclusions.txt	LTP192	ltpFR	2	10	-1	ACROBAT	4	n/a	n/a	-1	1.0	1.0	1	upper	Verdana.ttf
1727.086	n/a	WORD	863543	wordpools/wasnorm_wordpool_less_exclusions.txt	LTP192	ltpFR	2	10	-1	SAUCER	1237	n/a	n/a	-1	1.0	1.0	1	upper	Verdana.ttf
1731.046	n/a	WORD	865523	wordpools/wasnorm_wordpool_less_exclusions.txt	LTP192	ltpFR	2	10	-1	DIAMOND	458	n/a	n/a	-1	1.0	1.0	1	upper	Verdana.ttf
1734.89	n/a	WORD	867445	wordpools/wasnorm_wordpool_less_exclusions.txt	LTP192	ltpFR	2	10	-1	CHALK	276	n/a	n/a	-1	1.0	1.0	1	upper	Verdana.ttf
1738.984	n/a	WORD	869492	wordpools/wasnorm_wordpool_less_exclusions.txt	LTP192	ltpFR	2	10	-1	CORPORATION	382	n/a	n/a	-1	1.0	1.0	1	upper	Verdana.ttf
1742.928	n/a	WORD	871464	wordpools/wasnorm_wordpool_less_exclusions.txt	LTP192	ltpFR	2	10	-1	PUDDLE	1140	n/a	n/a	-1	1.0	1.0	1	upper	Verdana.ttf
1746.89	n/a	WORD	873445	wordpools/wasnorm_wordpool_less_exclusions.txt	LTP192	ltpFR	2	10	-1	RUBY	1214	n/a	n/a	-1	1.0	1.0	1	upper	Verdana.ttf
1750.9	n/a	WORD	875450	wordpools/wasnorm_wordpool_less_exclusions.txt	LTP192	ltpFR	2	10	-1	STOOL	1386	n/a	n/a	-1	1.0	1.0	1	upper	Verdana.ttf
1755.044	n/a	WORD	877522	wordpools/wasnorm_wordpool_less_exclusions.txt	LTP192	ltpFR	2	10	-1	SEAT	1264	n/a	n/a	-1	1.0	1.0	1	upper	Verdana.ttf
1758.972	n/a	WORD	879486	wordpools/wasnorm_wordpool_less_exclusions.txt	LTP192	ltpFR	2	10	-1	PIRATE	1074	n/a	n/a	-1	1.0	1.0	1	upper	Verdana.ttf
1763.2	n/a	WORD	881600	wordpools/wasnorm_wordpool_less_exclusions.txt	LTP192	ltpFR	2	10	-1	APPLICATION	34	n/a	n/a	-1	1.0	1.0	1	upper	Verdana.ttf
1767.276	n/a	WORD	883638	wordpools/wasnorm_wordpool_less_exclusions.txt	LTP192	ltpFR	2	10	-1	CONTAINER	366	n/a	n/a	-1	1.0	1.0	1	upper	Verdana.ttf
1771.12	n/a	WORD	885560	wordpools/wasnorm_wordpool_less_exclusions.txt	LTP192	ltpFR	2	10	-1	CARTON	251	n/a	n/a	-1	1.0	1.0	1	upper	Verdana.ttf
1775.016	n/a	WORD	887508	wordpools/wasnorm_wordpool_less_exclusions.txt	LTP192	ltpFR	2	10	-1	NAPKIN	937	n/a	n/a	-1	1.0	1.0	1	upper	Verdana.ttf
1779.226	n/a	WORD	889613	wordpools/wasnorm_wordpool_less_exclusions.txt	LTP192	ltpFR	2	10	-1	VEAL	1551	n/a	n/a	-1	1.0	1.0	1	upper	Verdana.ttf
1783.154	n/a	WORD	891577	wordpools/wasnorm_wordpool_less_exclusions.txt	LTP192	ltpFR	2	10	-1	STEW	1380	n/a	n/a	-1	1.0	1.0	1	upper	Verdana.ttf
1789.012	n/a	REC_START	894506	n/a	LTP192	ltpFR	2	10	n/a	n/a	n/a	n/a	n/a	n/a	n/a	n/a	n/a	n/a	n/a
1789.654	n/a	REC_WORD	894827	wordpools/wasnorm_wordpool_less_exclusions.txt	LTP192	ltpFR	2	10	-1	CARTON	251	n/a	n/a	-1	n/a	n/a	n/a	n/a	n/a
1790.832	n/a	REC_WORD	895416	wordpools/wasnorm_wordpool_less_exclusions.txt	LTP192	ltpFR	2	10	-1	VEAL	1551	n/a	n/a	-1	n/a	n/a	n/a	n/a	n/a
1791.77	n/a	REC_WORD	895885	wordpools/wasnorm_wordpool_less_exclusions.txt	LTP192	ltpFR	2	10	-1	STEW	1380	n/a	n/a	-1	n/a	n/a	n/a	n/a	n/a
1795.326	n/a	REC_WORD	897663	wordpools/wasnorm_wordpool_less_exclusions.txt	LTP192	ltpFR	2	10	-1	CHALK	276	n/a	n/a	-1	n/a	n/a	n/a	n/a	n/a
1799.532	n/a	REC_WORD	899766	wordpools/wasnorm_wordpool_less_exclusions.txt	LTP192	ltpFR	2	10	-1	PIRATE	1074	n/a	n/a	-1	n/a	n/a	n/a	n/a	n/a
1802.486	n/a	REC_WORD	901243	wordpools/wasnorm_wordpool_less_exclusions.txt	LTP192	ltpFR	2	10	-1	ACROBAT	4	n/a	n/a	-1	n/a	n/a	n/a	n/a	n/a
1807.884	n/a	REC_WORD	903942	wordpools/wasnorm_wordpool_less_exclusions.txt	LTP192	ltpFR	2	10	-1	STOOL	1386	n/a	n/a	-1	n/a	n/a	n/a	n/a	n/a
1808.916	n/a	REC_WORD	904458	wordpools/wasnorm_wordpool_less_exclusions.txt	LTP192	ltpFR	2	10	-1	SEAT	1264	n/a	n/a	-1	n/a	n/a	n/a	n/a	n/a
1871.472	n/a	WORD	935736	wordpools/wasnorm_wordpool_less_exclusions.txt	LTP192	ltpFR	2	11	1	SUBWAY	1400	n/a	n/a	0	0.422607421875	0.5869140625	0	upper	amplitud.ttf
1875.5	n/a	WORD	937750	wordpools/wasnorm_wordpool_less_exclusions.txt	LTP192	ltpFR	2	11	1	RAIL	1161	n/a	n/a	0	0.422607421875	0.5869140625	0	upper	amplitud.ttf
1879.66	n/a	WORD	939830	wordpools/wasnorm_wordpool_less_exclusions.txt	LTP192	ltpFR	2	11	1	DANCER	437	n/a	n/a	1	0.422607421875	0.5869140625	0	upper	amplitud.ttf
1883.82	n/a	WORD	941910	wordpools/wasnorm_wordpool_less_exclusions.txt	LTP192	ltpFR	2	11	1	EARRING	514	n/a	n/a	0	0.422607421875	0.5869140625	0	upper	amplitud.ttf
1887.698	n/a	WORD	943849	wordpools/wasnorm_wordpool_less_exclusions.txt	LTP192	ltpFR	2	11	1	LIP	828	n/a	n/a	0	0.422607421875	0.5869140625	0	upper	amplitud.ttf
1891.792	n/a	WORD	945896	wordpools/wasnorm_wordpool_less_exclusions.txt	LTP192	ltpFR	2	11	1	PANTS	1010	n/a	n/a	0	0.422607421875	0.5869140625	0	upper	amplitud.ttf
1895.952	n/a	WORD	947976	wordpools/wasnorm_wordpool_less_exclusions.txt	LTP192	ltpFR	2	11	1	BOMB	147	n/a	n/a	0	0.422607421875	0.5869140625	0	upper	amplitud.ttf
1899.912	n/a	WORD	949956	wordpools/wasnorm_wordpool_less_exclusions.txt	LTP192	ltpFR	2	11	1	POSTAGE	1113	n/a	n/a	0	0.422607421875	0.5869140625	0	upper	amplitud.ttf
1904.024	n/a	WORD	952012	wordpools/wasnorm_wordpool_less_exclusions.txt	LTP192	ltpFR	2	11	1	PEARL	1034	n/a	n/a	0	0.422607421875	0.5869140625	0	upper	amplitud.ttf
1907.968	n/a	WORD	953984	wordpools/wasnorm_wordpool_less_exclusions.txt	LTP192	ltpFR	2	11	1	RAM	1165	n/a	n/a	1	0.422607421875	0.5869140625	0	upper	amplitud.ttf
1912.112	n/a	WORD	956056	wordpools/wasnorm_wordpool_less_exclusions.txt	LTP192	ltpFR	2	11	1	PUCK	1138	n/a	n/a	0	0.422607421875	0.5869140625	0	upper	amplitud.ttf
1915.956	n/a	WORD	957978	wordpools/wasnorm_wordpool_less_exclusions.txt	LTP192	ltpFR	2	11	1	NEUTRON	947	n/a	n/a	0	0.422607421875	0.5869140625	0	upper	amplitud.ttf
1919.8	n/a	WORD	959900	wordpools/wasnorm_wordpool_less_exclusions.txt	LTP192	ltpFR	2	11	1	LETTER	813	n/a	n/a	0	0.422607421875	0.5869140625	0	upper	amplitud.ttf
1923.778	n/a	WORD	961889	wordpools/wasnorm_wordpool_less_exclusions.txt	LTP192	ltpFR	2	11	1	WASHER	1592	n/a	n/a	1	0.422607421875	0.5869140625	0	upper	amplitud.ttf
1927.972	n/a	WORD	963986	wordpools/wasnorm_wordpool_less_exclusions.txt	LTP192	ltpFR	2	11	1	CLERK	321	n/a	n/a	1	0.422607421875	0.5869140625	0	upper	amplitud.ttf
1932.15	n/a	WORD	966075	wordpools/wasnorm_wordpool_less_exclusions.txt	LTP192	ltpFR	2	11	1	EMPLOYER	532	n/a	n/a	1	0.422607421875	0.5869140625	0	upper	amplitud.ttf
1938.074	n/a	REC_START	969037	n/a	LTP192	ltpFR	2	11	n/a	n/a	n/a	n/a	n/a	n/a	n/a	n/a	n/a	n/a	n/a
1938.788	n/a	REC_WORD	969394	wordpools/wasnorm_wordpool_less_exclusions.txt	LTP192	ltpFR	2	11	1	EMPLOYER	532	n/a	n/a	1	n/a	n/a	n/a	n/a	n/a
1939.606	n/a	REC_WORD	969803	wordpools/wasnorm_wordpool_less_exclusions.txt	LTP192	ltpFR	2	11	1	CLERK	321	n/a	n/a	1	n/a	n/a	n/a	n/a	n/a
1940.488	n/a	REC_WORD	970244	wordpools/wasnorm_wordpool_less_exclusions.txt	LTP192	ltpFR	2	11	1	WASHER	1592	n/a	n/a	1	n/a	n/a	n/a	n/a	n/a
1941.316	n/a	REC_WORD	970658	wordpools/wasnorm_wordpool_less_exclusions.txt	LTP192	ltpFR	2	11	1	EARRING	514	n/a	n/a	0	n/a	n/a	n/a	n/a	n/a
1942.324	n/a	REC_WORD	971162	wordpools/wasnorm_wordpool_less_exclusions.txt	LTP192	ltpFR	2	11	1	PEARL	1034	n/a	n/a	0	n/a	n/a	n/a	n/a	n/a
1962.648	n/a	REC_WORD	981324	wordpools/wasnorm_wordpool_less_exclusions.txt	LTP192	ltpFR	2	11	1	PANTS	1010	n/a	n/a	0	n/a	n/a	n/a	n/a	n/a
1979.82	n/a	REC_WORD	989910	wordpools/wasnorm_wordpool_less_exclusions.txt	LTP192	ltpFR	2	11	1	EMPLOYER	532	n/a	n/a	1	n/a	n/a	n/a	n/a	n/a
2026.976	n/a	WORD	1013488	wordpools/wasnorm_wordpool_less_exclusions.txt	LTP192	ltpFR	2	12	0	DOG	480	n/a	n/a	0	0.57763671875	0.412841796875	1	lower	zerothre.ttf
2031.118	n/a	WORD	1015559	wordpools/wasnorm_wordpool_less_exclusions.txt	LTP192	ltpFR	2	12	0	WOLF	1619	n/a	n/a	1	0.57763671875	0.412841796875	1	lower	zerothre.ttf
2034.98	n/a	WORD	1017490	wordpools/wasnorm_wordpool_less_exclusions.txt	LTP192	ltpFR	2	12	0	CARRIAGE	248	n/a	n/a	1	0.57763671875	0.412841796875	1	lower	zerothre.ttf
2038.874	n/a	WORD	1019437	wordpools/wasnorm_wordpool_less_exclusions.txt	LTP192	ltpFR	2	12	0	NOMAD	955	n/a	n/a	1	0.57763671875	0.412841796875	1	lower	zerothre.ttf
2043.052	n/a	WORD	1021526	wordpools/wasnorm_wordpool_less_exclusions.txt	LTP192	ltpFR	2	12	1	BUFFALO	186	n/a	n/a	1	0.422607421875	0.5869140625	0	upper	amplitud.ttf
2047.144	n/a	WORD	1023572	wordpools/wasnorm_wordpool_less_exclusions.txt	LTP192	ltpFR	2	12	1	COOKIE	374	n/a	n/a	0	0.422607421875	0.5869140625	0	upper	amplitud.ttf
2050.99	n/a	WORD	1025495	wordpools/wasnorm_wordpool_less_exclusions.txt	LTP192	ltpFR	2	12	1	HOSE	720	n/a	n/a	0	0.422607421875	0.5869140625	0	upper	amplitud.ttf
2055.018	n/a	WORD	1027509	wordpools/wasnorm_wordpool_less_exclusions.txt	LTP192	ltpFR	2	12	1	OCEAN	970	n/a	n/a	0	0.422607421875	0.5869140625	0	upper	amplitud.ttf
2059.162	n/a	WORD	1029581	wordpools/wasnorm_wordpool_less_exclusions.txt	LTP192	ltpFR	2	12	1	MUSTARD	935	n/a	n/a	0	0.422607421875	0.5869140625	0	upper	amplitud.ttf
2063.138	n/a	WORD	1031569	wordpools/wasnorm_wordpool_less_exclusions.txt	LTP192	ltpFR	2	12	1	KETCHUP	771	n/a	n/a	0	0.422607421875	0.5869140625	0	upper	amplitud.ttf
2067.25	n/a	WORD	1033625	wordpools/wasnorm_wordpool_less_exclusions.txt	LTP192	ltpFR	2	12	0	PENDULUM	1043	n/a	n/a	1	0.57763671875	0.412841796875	1	lower	zerothre.ttf
2071.294	n/a	WORD	1035647	wordpools/wasnorm_wordpool_less_exclusions.txt	LTP192	ltpFR	2	12	0	PUPPY	1144	n/a	n/a	0	0.57763671875	0.412841796875	1	lower	zerothre.ttf
2075.12	n/a	WORD	1037560	wordpools/wasnorm_wordpool_less_exclusions.txt	LTP192	ltpFR	2	12	0	FOX	598	n/a	n/a	0	0.57763671875	0.412841796875	1	lower	zerothre.ttf
2079.214	n/a	WORD	1039607	wordpools/wasnorm_wordpool_less_exclusions.txt	LTP192	ltpFR	2	12	0	FATHER	554	n/a	n/a	1	0.57763671875	0.412841796875	1	lower	zerothre.ttf
2083.326	n/a	WORD	1041663	wordpools/wasnorm_wordpool_less_exclusions.txt	LTP192	ltpFR	2	12	1	ASIA	46	n/a	n/a	0	0.422607421875	0.5869140625	0	upper	amplitud.ttf
2087.32	n/a	WORD	1043660	wordpools/wasnorm_wordpool_less_exclusions.txt	LTP192	ltpFR	2	12	1	OLIVE	975	n/a	n/a	0	0.422607421875	0.5869140625	0	upper	amplitud.ttf
2092.978	n/a	REC_START	1046489	n/a	LTP192	ltpFR	2	12	n/a	n/a	n/a	n/a	n/a	n/a	n/a	n/a	n/a	n/a	n/a
2093.602	n/a	REC_WORD	1046801	wordpools/wasnorm_wordpool_less_exclusions.txt	LTP192	ltpFR	2	12	1	OLIVE	975	n/a	n/a	0	n/a	n/a	n/a	n/a	n/a
2094.44	n/a	REC_WORD	1047220	wordpools/wasnorm_wordpool_less_exclusions.txt	LTP192	ltpFR	2	12	1	ASIA	46	n/a	n/a	0	n/a	n/a	n/a	n/a	n/a
2095.358	n/a	REC_WORD	1047679	wordpools/wasnorm_wordpool_less_exclusions.txt	LTP192	ltpFR	2	12	0	WOLF	1619	n/a	n/a	1	n/a	n/a	n/a	n/a	n/a
2096.132	n/a	REC_WORD	1048066	wordpools/wasnorm_wordpool_less_exclusions.txt	LTP192	ltpFR	2	12	0	DOG	480	n/a	n/a	0	n/a	n/a	n/a	n/a	n/a
2096.934	n/a	REC_WORD	1048467	wordpools/wasnorm_wordpool_less_exclusions.txt	LTP192	ltpFR	2	12	0	PUPPY	1144	n/a	n/a	0	n/a	n/a	n/a	n/a	n/a
2100.242	n/a	REC_WORD	1050121	wordpools/wasnorm_wordpool_less_exclusions.txt	LTP192	ltpFR	2	12	1	MUSTARD	935	n/a	n/a	0	n/a	n/a	n/a	n/a	n/a
2101.104	n/a	REC_WORD	1050552	wordpools/wasnorm_wordpool_less_exclusions.txt	LTP192	ltpFR	2	12	1	KETCHUP	771	n/a	n/a	0	n/a	n/a	n/a	n/a	n/a
2168.566	n/a	REST_REWET	1084283	n/a	LTP192	ltpFR	2	12	n/a	n/a	n/a	n/a	n/a	n/a	n/a	n/a	n/a	n/a	n/a
2592.938	n/a	WORD	1296469	wordpools/wasnorm_wordpool_less_exclusions.txt	LTP192	ltpFR	2	13	1	SUPERVISOR	1410	n/a	n/a	1	0.422607421875	0.5869140625	0	upper	amplitud.ttf
2596.916	n/a	WORD	1298458	wordpools/wasnorm_wordpool_less_exclusions.txt	LTP192	ltpFR	2	13	1	CAPITAL	238	n/a	n/a	0	0.422607421875	0.5869140625	0	upper	amplitud.ttf
2600.876	n/a	WORD	1300438	wordpools/wasnorm_wordpool_less_exclusions.txt	LTP192	ltpFR	2	13	1	PATROL	1027	n/a	n/a	0	0.422607421875	0.5869140625	0	upper	amplitud.ttf
2604.854	n/a	WORD	1302427	wordpools/wasnorm_wordpool_less_exclusions.txt	LTP192	ltpFR	2	13	1	CATTLE	261	n/a	n/a	1	0.422607421875	0.5869140625	0	upper	amplitud.ttf
2608.68	n/a	WORD	1304340	wordpools/wasnorm_wordpool_less_exclusions.txt	LTP192	ltpFR	2	13	1	CLAW	319	n/a	n/a	0	0.422607421875	0.5869140625	0	upper	amplitud.ttf
2612.592	n/a	WORD	1306296	wordpools/wasnorm_wordpool_less_exclusions.txt	LTP192	ltpFR	2	13	1	JOKER	759	n/a	n/a	1	0.422607421875	0.5869140625	0	upper	amplitud.ttf
2616.718	n/a	WORD	1308359	wordpools/wasnorm_wordpool_less_exclusions.txt	LTP192	ltpFR	2	13	1	CIRCUS	311	n/a	n/a	0	0.422607421875	0.5869140625	0	upper	amplitud.ttf
2620.896	n/a	WORD	1310448	wordpools/wasnorm_wordpool_less_exclusions.txt	LTP192	ltpFR	2	13	1	BAIT	70	n/a	n/a	1	0.422607421875	0.5869140625	0	upper	amplitud.ttf
2625.106	n/a	WORD	1312553	wordpools/wasnorm_wordpool_less_exclusions.txt	LTP192	ltpFR	2	13	1	CRAB	397	n/a	n/a	1	0.422607421875	0.5869140625	0	upper	amplitud.ttf
2629.234	n/a	WORD	1314617	wordpools/wasnorm_wordpool_less_exclusions.txt	LTP192	ltpFR	2	13	1	SPY	1360	n/a	n/a	1	0.422607421875	0.5869140625	0	upper	amplitud.ttf
2633.094	n/a	WORD	1316547	wordpools/wasnorm_wordpool_less_exclusions.txt	LTP192	ltpFR	2	13	1	ANTENNA	28	n/a	n/a	0	0.422607421875	0.5869140625	0	upper	amplitud.ttf
2637.19	n/a	WORD	1318595	wordpools/wasnorm_wordpool_less_exclusions.txt	LTP192	ltpFR	2	13	1	CRACKER	398	n/a	n/a	0	0.422607421875	0.5869140625	0	upper	amplitud.ttf
2641.184	n/a	WORD	1320592	wordpools/wasnorm_wordpool_less_exclusions.txt	LTP192	ltpFR	2	13	1	EARTH	515	n/a	n/a	1	0.422607421875	0.5869140625	0	upper	amplitud.ttf
2645.292	n/a	WORD	1322646	wordpools/wasnorm_wordpool_less_exclusions.txt	LTP192	ltpFR	2	13	1	JUPITER	765	n/a	n/a	1	0.422607421875	0.5869140625	0	upper	amplitud.ttf
2649.222	n/a	WORD	1324611	wordpools/wasnorm_wordpool_less_exclusions.txt	LTP192	ltpFR	2	13	1	BOSS	152	n/a	n/a	1	0.422607421875	0.5869140625	0	upper	amplitud.ttf
2653.166	n/a	WORD	1326583	wordpools/wasnorm_wordpool_less_exclusions.txt	LTP192	ltpFR	2	13	1	ROBOT	1200	n/a	n/a	0	0.422607421875	0.5869140625	0	upper	amplitud.ttf
2659.192	n/a	REC_START	1329596	n/a	LTP192	ltpFR	2	13	n/a	n/a	n/a	n/a	n/a	n/a	n/a	n/a	n/a	n/a	n/a
2659.874	n/a	REC_WORD	1329937	wordpools/wasnorm_wordpool_less_exclusions.txt	LTP192	ltpFR	2	13	1	EARTH	515	n/a	n/a	1	n/a	n/a	n/a	n/a	n/a
2660.604	n/a	REC_WORD	1330302	wordpools/wasnorm_wordpool_less_exclusions.txt	LTP192	ltpFR	2	13	1	JUPITER	765	n/a	n/a	1	n/a	n/a	n/a	n/a	n/a
2661.486	n/a	REC_WORD	1330743	wordpools/wasnorm_wordpool_less_exclusions.txt	LTP192	ltpFR	2	13	1	BOSS	152	n/a	n/a	1	n/a	n/a	n/a	n/a	n/a
2662.22	n/a	REC_WORD	1331110	wordpools/wasnorm_wordpool_less_exclusions.txt	LTP192	ltpFR	2	13	1	SUPERVISOR	1410	n/a	n/a	1	n/a	n/a	n/a	n/a	n/a
2667.184	n/a	REC_WORD	1333592	wordpools/wasnorm_wordpool_less_exclusions.txt	LTP192	ltpFR	2	13	1	ROBOT	1200	n/a	n/a	0	n/a	n/a	n/a	n/a	n/a
2670.086	n/a	REC_WORD	1335043	wordpools/wasnorm_wordpool_less_exclusions.txt	LTP192	ltpFR	2	13	1	PATROL	1027	n/a	n/a	0	n/a	n/a	n/a	n/a	n/a
2670.954	n/a	REC_WORD	1335477	wordpools/wasnorm_wordpool_less_exclusions.txt	LTP192	ltpFR	2	13	1	CAPITAL	238	n/a	n/a	0	n/a	n/a	n/a	n/a	n/a
2671.888	n/a	REC_WORD	1335944	wordpools/wasnorm_wordpool_less_exclusions.txt	LTP192	ltpFR	2	13	1	CATTLE	261	n/a	n/a	1	n/a	n/a	n/a	n/a	n/a
2740.868	n/a	WORD	1370434	wordpools/wasnorm_wordpool_less_exclusions.txt	LTP192	ltpFR	2	14	-1	COLOGNE	347	n/a	n/a	-1	1.0	1.0	1	upper	Verdana.ttf
2744.78	n/a	WORD	1372390	wordpools/wasnorm_wordpool_less_exclusions.txt	LTP192	ltpFR	2	14	-1	FLAG	573	n/a	n/a	-1	1.0	1.0	1	upper	Verdana.ttf
2748.674	n/a	WORD	1374337	wordpools/wasnorm_wordpool_less_exclusions.txt	LTP192	ltpFR	2	14	-1	WAVE	1596	n/a	n/a	-1	1.0	1.0	1	upper	Verdana.ttf
2752.868	n/a	WORD	1376434	wordpools/wasnorm_wordpool_less_exclusions.txt	LTP192	ltpFR	2	14	-1	CUCUMBER	421	n/a	n/a	-1	1.0	1.0	1	upper	Verdana.ttf
2756.762	n/a	WORD	1378381	wordpools/wasnorm_wordpool_less_exclusions.txt	LTP192	ltpFR	2	14	-1	FELLOW	558	n/a	n/a	-1	1.0	1.0	1	upper	Verdana.ttf
2760.672	n/a	WORD	1380336	wordpools/wasnorm_wordpool_less_exclusions.txt	LTP192	ltpFR	2	14	-1	ICEBERG	731	n/a	n/a	-1	1.0	1.0	1	upper	Verdana.ttf
2764.85	n/a	WORD	1382425	wordpools/wasnorm_wordpool_less_exclusions.txt	LTP192	ltpFR	2	14	-1	CAN	225	n/a	n/a	-1	1.0	1.0	1	upper	Verdana.ttf
2768.71	n/a	WORD	1384355	wordpools/wasnorm_wordpool_less_exclusions.txt	LTP192	ltpFR	2	14	-1	STAPLE	1371	n/a	n/a	-1	1.0	1.0	1	upper	Verdana.ttf
2772.788	n/a	WORD	1386394	wordpools/wasnorm_wordpool_less_exclusions.txt	LTP192	ltpFR	2	14	-1	BUGLE	189	n/a	n/a	-1	1.0	1.0	1	upper	Verdana.ttf
2776.964	n/a	WORD	1388482	wordpools/wasnorm_wordpool_less_exclusions.txt	LTP192	ltpFR	2	14	-1	BOY	161	n/a	n/a	-1	1.0	1.0	1	upper	Verdana.ttf
2781.126	n/a	WORD	1390563	wordpools/wasnorm_wordpool_less_exclusions.txt	LTP192	ltpFR	2	14	-1	ROOST	1208	n/a	n/a	-1	1.0	1.0	1	upper	Verdana.ttf
2785.02	n/a	WORD	1392510	wordpools/wasnorm_wordpool_less_exclusions.txt	LTP192	ltpFR	2	14	-1	TRICYCLE	1506	n/a	n/a	-1	1.0	1.0	1	upper	Verdana.ttf
2788.98	n/a	WORD	1394490	wordpools/wasnorm_wordpool_less_exclusions.txt	LTP192	ltpFR	2	14	-1	MOTOR	922	n/a	n/a	-1	1.0	1.0	1	upper	Verdana.ttf
2793.008	n/a	WORD	1396504	wordpools/wasnorm_wordpool_less_exclusions.txt	LTP192	ltpFR	2	14	-1	INCENSE	735	n/a	n/a	-1	1.0	1.0	1	upper	Verdana.ttf
2797.202	n/a	WORD	1398601	wordpools/wasnorm_wordpool_less_exclusions.txt	LTP192	ltpFR	2	14	-1	JOURNAL	760	n/a	n/a	-1	1.0	1.0	1	upper	Verdana.ttf
2801.362	n/a	WORD	1400681	wordpools/wasnorm_wordpool_less_exclusions.txt	LTP192	ltpFR	2	14	-1	CREAM	402	n/a	n/a	-1	1.0	1.0	1	upper	Verdana.ttf
2807.138	n/a	REC_START	1403569	n/a	LTP192	ltpFR	2	14	n/a	n/a	n/a	n/a	n/a	n/a	n/a	n/a	n/a	n/a	n/a
2807.826	n/a	REC_WORD	1403913	wordpools/wasnorm_wordpool_less_exclusions.txt	LTP192	ltpFR	2	14	-1	CREAM	402	n/a	n/a	-1	n/a	n/a	n/a	n/a	n/a
2808.594	n/a	REC_WORD	1404297	wordpools/wasnorm_wordpool_less_exclusions.txt	LTP192	ltpFR	2	14	-1	JOURNAL	760	n/a	n/a	-1	n/a	n/a	n/a	n/a	n/a
2809.532	n/a	REC_WORD	1404766	wordpools/wasnorm_wordpool_less_exclusions.txt	LTP192	ltpFR	2	14	-1	INCENSE	735	n/a	n/a	-1	n/a	n/a	n/a	n/a	n/a
2810.426	n/a	REC_WORD	1405213	wordpools/wasnorm_wordpool_less_exclusions.txt	LTP192	ltpFR	2	14	-1	MOTOR	922	n/a	n/a	-1	n/a	n/a	n/a	n/a	n/a
2811.338	n/a	REC_WORD	1405669	wordpools/wasnorm_wordpool_less_exclusions.txt	LTP192	ltpFR	2	14	-1	BUGLE	189	n/a	n/a	-1	n/a	n/a	n/a	n/a	n/a
2812.326	n/a	REC_WORD	1406163	wordpools/wasnorm_wordpool_less_exclusions.txt	LTP192	ltpFR	2	14	-1	BOY	161	n/a	n/a	-1	n/a	n/a	n/a	n/a	n/a
2813.634	n/a	REC_WORD	1406817	wordpools/wasnorm_wordpool_less_exclusions.txt	LTP192	ltpFR	2	14	-1	FLAG	573	n/a	n/a	-1	n/a	n/a	n/a	n/a	n/a
2814.906	n/a	REC_WORD	1407453	wordpools/wasnorm_wordpool_less_exclusions.txt	LTP192	ltpFR	2	14	-1	COLOGNE	347	n/a	n/a	-1	n/a	n/a	n/a	n/a	n/a
2815.918	n/a	REC_WORD	1407959	wordpools/wasnorm_wordpool_less_exclusions.txt	LTP192	ltpFR	2	14	-1	FELLOW	558	n/a	n/a	-1	n/a	n/a	n/a	n/a	n/a
2821.964	n/a	REC_WORD	1410982	wordpools/wasnorm_wordpool_less_exclusions.txt	LTP192	ltpFR	2	14	-1	ICEBERG	731	n/a	n/a	-1	n/a	n/a	n/a	n/a	n/a
2822.964	n/a	REC_WORD_VV	1411482	wordpools/wasnorm_wordpool_less_exclusions.txt	LTP192	ltpFR	2	14	n/a	<>	-1	n/a	n/a	n/a	n/a	n/a	n/a	n/a	n/a
2824.344	n/a	REC_WORD	1412172	wordpools/wasnorm_wordpool_less_exclusions.txt	LTP192	ltpFR	2	14	-1	CUCUMBER	421	n/a	n/a	-1	n/a	n/a	n/a	n/a	n/a
2836.072	n/a	REC_WORD	1418036	wordpools/wasnorm_wordpool_less_exclusions.txt	LTP192	ltpFR	2	14	-1	WAVE	1596	n/a	n/a	-1	n/a	n/a	n/a	n/a	n/a
2892.96	n/a	WORD	1446480	wordpools/wasnorm_wordpool_less_exclusions.txt	LTP192	ltpFR	2	15	1	FAMILY	550	n/a	n/a	1	0.422607421875	0.5869140625	0	upper	amplitud.ttf
2897.104	n/a	WORD	1448552	wordpools/wasnorm_wordpool_less_exclusions.txt	LTP192	ltpFR	2	15	1	UNCLE	1536	n/a	n/a	1	0.422607421875	0.5869140625	0	upper	amplitud.ttf
2900.966	n/a	WORD	1450483	wordpools/wasnorm_wordpool_less_exclusions.txt	LTP192	ltpFR	2	15	1	PRINTER	1126	n/a	n/a	0	0.422607421875	0.5869140625	0	upper	amplitud.ttf
2904.842	n/a	WORD	1452421	wordpools/wasnorm_wordpool_less_exclusions.txt	LTP192	ltpFR	2	15	1	KEYBOARD	774	n/a	n/a	0	0.422607421875	0.5869140625	0	upper	amplitud.ttf
2909.052	n/a	WORD	1454526	wordpools/wasnorm_wordpool_less_exclusions.txt	LTP192	ltpFR	2	15	1	HEEL	700	n/a	n/a	0	0.422607421875	0.5869140625	0	upper	amplitud.ttf
2912.898	n/a	WORD	1456449	wordpools/wasnorm_wordpool_less_exclusions.txt	LTP192	ltpFR	2	15	0	ARCHITECT	36	n/a	n/a	1	0.57763671875	0.412841796875	1	lower	zerothre.ttf
2916.974	n/a	WORD	1458487	wordpools/wasnorm_wordpool_less_exclusions.txt	LTP192	ltpFR	2	15	0	PEAR	1033	n/a	n/a	0	0.57763671875	0.412841796875	1	lower	zerothre.ttf
2920.918	n/a	WORD	1460459	wordpools/wasnorm_wordpool_less_exclusions.txt	LTP192	ltpFR	2	15	0	HAND	683	n/a	n/a	0	0.57763671875	0.412841796875	1	lower	zerothre.ttf
2925.046	n/a	WORD	1462523	wordpools/wasnorm_wordpool_less_exclusions.txt	LTP192	ltpFR	2	15	0	CRICKET	408	n/a	n/a	0	0.57763671875	0.412841796875	1	lower	zerothre.ttf
2928.89	n/a	WORD	1464445	wordpools/wasnorm_wordpool_less_exclusions.txt	LTP192	ltpFR	2	15	1	BERRY	122	n/a	n/a	1	0.422607421875	0.5869140625	0	upper	amplitud.ttf
2932.9	n/a	WORD	1466450	wordpools/wasnorm_wordpool_less_exclusions.txt	LTP192	ltpFR	2	15	1	STOCKING	1383	n/a	n/a	0	0.422607421875	0.5869140625	0	upper	amplitud.ttf
2936.778	n/a	WORD	1468389	wordpools/wasnorm_wordpool_less_exclusions.txt	LTP192	ltpFR	2	15	1	CHIMPANZEE	302	n/a	n/a	1	0.422607421875	0.5869140625	0	upper	amplitud.ttf
2941.006	n/a	WORD	1470503	wordpools/wasnorm_wordpool_less_exclusions.txt	LTP192	ltpFR	2	15	0	CONTINENT	367	n/a	n/a	1	0.57763671875	0.412841796875	1	lower	zerothre.ttf
2945.1	n/a	WORD	1472550	wordpools/wasnorm_wordpool_less_exclusions.txt	LTP192	ltpFR	2	15	0	FIELD	562	n/a	n/a	1	0.57763671875	0.412841796875	1	lower	zerothre.ttf
2948.994	n/a	WORD	1474497	wordpools/wasnorm_wordpool_less_exclusions.txt	LTP192	ltpFR	2	15	0	LUGGAGE	847	n/a	n/a	1	0.57763671875	0.412841796875	1	lower	zerothre.ttf
2952.972	n/a	WORD	1476486	wordpools/wasnorm_wordpool_less_exclusions.txt	LTP192	ltpFR	2	15	0	KITE	779	n/a	n/a	1	0.57763671875	0.412841796875	1	lower	zerothre.ttf
2958.88	n/a	REC_START	1479440	n/a	LTP192	ltpFR	2	15	n/a	n/a	n/a	n/a	n/a	n/a	n/a	n/a	n/a	n/a	n/a
2959.484	n/a	REC_WORD	1479742	wordpools/wasnorm_wordpool_less_exclusions.txt	LTP192	ltpFR	2	15	0	KITE	779	n/a	n/a	1	n/a	n/a	n/a	n/a	n/a
2960.376	n/a	REC_WORD	1480188	wordpools/wasnorm_wordpool_less_exclusions.txt	LTP192	ltpFR	2	15	0	LUGGAGE	847	n/a	n/a	1	n/a	n/a	n/a	n/a	n/a
2961.28	n/a	REC_WORD	1480640	wordpools/wasnorm_wordpool_less_exclusions.txt	LTP192	ltpFR	2	15	0	CONTINENT	367	n/a	n/a	1	n/a	n/a	n/a	n/a	n/a
2962.262	n/a	REC_WORD	1481131	wordpools/wasnorm_wordpool_less_exclusions.txt	LTP192	ltpFR	2	15	0	FIELD	562	n/a	n/a	1	n/a	n/a	n/a	n/a	n/a
2964.188	n/a	REC_WORD	1482094	wordpools/wasnorm_wordpool_less_exclusions.txt	LTP192	ltpFR	2	15	0	HAND	683	n/a	n/a	0	n/a	n/a	n/a	n/a	n/a
2967.71	n/a	REC_WORD	1483855	wordpools/wasnorm_wordpool_less_exclusions.txt	LTP192	ltpFR	2	15	0	CRICKET	408	n/a	n/a	0	n/a	n/a	n/a	n/a	n/a
2971.492	n/a	REC_WORD	1485746	wordpools/wasnorm_wordpool_less_exclusions.txt	LTP192	ltpFR	2	15	0	PEAR	1033	n/a	n/a	0	n/a	n/a	n/a	n/a	n/a
2973.502	n/a	REC_WORD	1486751	wordpools/wasnorm_wordpool_less_exclusions.txt	LTP192	ltpFR	2	15	0	ARCHITECT	36	n/a	n/a	1	n/a	n/a	n/a	n/a	n/a
2978.85	n/a	REC_WORD	1489425	wordpools/wasnorm_wordpool_less_exclusions.txt	LTP192	ltpFR	2	15	1	FAMILY	550	n/a	n/a	1	n/a	n/a	n/a	n/a	n/a
2979.922	n/a	REC_WORD	1489961	wordpools/wasnorm_wordpool_less_exclusions.txt	LTP192	ltpFR	2	15	1	UNCLE	1536	n/a	n/a	1	n/a	n/a	n/a	n/a	n/a
2981.968	n/a	REC_WORD	1490984	wordpools/wasnorm_wordpool_less_exclusions.txt	LTP192	ltpFR	2	15	1	KEYBOARD	774	n/a	n/a	0	n/a	n/a	n/a	n/a	n/a
2982.946	n/a	REC_WORD	1491473	wordpools/wasnorm_wordpool_less_exclusions.txt	LTP192	ltpFR	2	15	1	PRINTER	1126	n/a	n/a	0	n/a	n/a	n/a	n/a	n/a
3005.09	n/a	REC_WORD	1502545	wordpools/wasnorm_wordpool_less_exclusions.txt	LTP192	ltpFR	2	15	1	HEEL	700	n/a	n/a	0	n/a	n/a	n/a	n/a	n/a
3010.004	n/a	REC_WORD	1505002	wordpools/wasnorm_wordpool_less_exclusions.txt	LTP192	ltpFR	2	15	1	BERRY	122	n/a	n/a	1	n/a	n/a	n/a	n/a	n/a
3039.278	n/a	WORD	1519639	wordpools/wasnorm_wordpool_less_exclusions.txt	LTP192	ltpFR	2	16	0	SKYSCRAPER	1322	n/a	n/a	1	0.57763671875	0.412841796875	1	lower	zerothre.ttf
3043.37	n/a	WORD	1521685	wordpools/wasnorm_wordpool_less_exclusions.txt	LTP192	ltpFR	2	16	0	PECAN	1036	n/a	n/a	0	0.57763671875	0.412841796875	1	lower	zerothre.ttf
3047.414	n/a	WORD	1523707	wordpools/wasnorm_wordpool_less_exclusions.txt	LTP192	ltpFR	2	16	0	ICING	732	n/a	n/a	0	0.57763671875	0.412841796875	1	lower	zerothre.ttf
3051.492	n/a	WORD	1525746	wordpools/wasnorm_wordpool_less_exclusions.txt	LTP192	ltpFR	2	16	0	FINGERNAIL	568	n/a	n/a	0	0.57763671875	0.412841796875	1	lower	zerothre.ttf
3055.42	n/a	WORD	1527710	wordpools/wasnorm_wordpool_less_exclusions.txt	LTP192	ltpFR	2	16	0	SANDPAPER	1231	n/a	n/a	0	0.57763671875	0.412841796875	1	lower	zerothre.ttf
3059.446	n/a	WORD	1529723	wordpools/wasnorm_wordpool_less_exclusions.txt	LTP192	ltpFR	2	16	0	AGENT	10	n/a	n/a	1	0.57763671875	0.412841796875	1	lower	zerothre.ttf
3063.49	n/a	WORD	1531745	wordpools/wasnorm_wordpool_less_exclusions.txt	LTP192	ltpFR	2	16	0	POLICE	1098	n/a	n/a	1	0.57763671875	0.412841796875	1	lower	zerothre.ttf
3067.618	n/a	WORD	1533809	wordpools/wasnorm_wordpool_less_exclusions.txt	LTP192	ltpFR	2	16	0	UNDERWEAR	1537	n/a	n/a	0	0.57763671875	0.412841796875	1	lower	zerothre.ttf
3071.762	n/a	WORD	1535881	wordpools/wasnorm_wordpool_less_exclusions.txt	LTP192	ltpFR	2	16	0	LAKE	796	n/a	n/a	1	0.57763671875	0.412841796875	1	lower	zerothre.ttf
3075.938	n/a	WORD	1537969	wordpools/wasnorm_wordpool_less_exclusions.txt	LTP192	ltpFR	2	16	0	FIG	563	n/a	n/a	0	0.57763671875	0.412841796875	1	lower	zerothre.ttf
3080.032	n/a	WORD	1540016	wordpools/wasnorm_wordpool_less_exclusions.txt	LTP192	ltpFR	2	16	0	TONGUE	1479	n/a	n/a	0	0.57763671875	0.412841796875	1	lower	zerothre.ttf
3084.06	n/a	WORD	1542030	wordpools/wasnorm_wordpool_less_exclusions.txt	LTP192	ltpFR	2	16	0	DRAWER	493	n/a	n/a	1	0.57763671875	0.412841796875	1	lower	zerothre.ttf
3087.954	n/a	WORD	1543977	wordpools/wasnorm_wordpool_less_exclusions.txt	LTP192	ltpFR	2	16	0	TIDE	1465	n/a	n/a	1	0.57763671875	0.412841796875	1	lower	zerothre.ttf
3092.082	n/a	WORD	1546041	wordpools/wasnorm_wordpool_less_exclusions.txt	LTP192	ltpFR	2	16	0	THORN	1459	n/a	n/a	0	0.57763671875	0.412841796875	1	lower	zerothre.ttf
3095.926	n/a	WORD	1547963	wordpools/wasnorm_wordpool_less_exclusions.txt	LTP192	ltpFR	2	16	0	SUPPER	1411	n/a	n/a	1	0.57763671875	0.412841796875	1	lower	zerothre.ttf
3099.938	n/a	WORD	1549969	wordpools/wasnorm_wordpool_less_exclusions.txt	LTP192	ltpFR	2	16	0	FEAST	556	n/a	n/a	1	0.57763671875	0.412841796875	1	lower	zerothre.ttf
3105.862	n/a	REC_START	1552931	n/a	LTP192	ltpFR	2	16	n/a	n/a	n/a	n/a	n/a	n/a	n/a	n/a	n/a	n/a	n/a
3106.302	n/a	REC_WORD	1553151	wordpools/wasnorm_wordpool_less_exclusions.txt	LTP192	ltpFR	2	16	0	SUPPER	1411	n/a	n/a	1	n/a	n/a	n/a	n/a	n/a
3107.208	n/a	REC_WORD	1553604	wordpools/wasnorm_wordpool_less_exclusions.txt	LTP192	ltpFR	2	16	0	FEAST	556	n/a	n/a	1	n/a	n/a	n/a	n/a	n/a
3108.132	n/a	REC_WORD	1554066	wordpools/wasnorm_wordpool_less_exclusions.txt	LTP192	ltpFR	2	16	0	THORN	1459	n/a	n/a	0	n/a	n/a	n/a	n/a	n/a
3109.074	n/a	REC_WORD	1554537	wordpools/wasnorm_wordpool_less_exclusions.txt	LTP192	ltpFR	2	16	0	FIG	563	n/a	n/a	0	n/a	n/a	n/a	n/a	n/a
3109.928	n/a	REC_WORD	1554964	wordpools/wasnorm_wordpool_less_exclusions.txt	LTP192	ltpFR	2	16	0	PECAN	1036	n/a	n/a	0	n/a	n/a	n/a	n/a	n/a
3111.0	n/a	REC_WORD	1555500	wordpools/wasnorm_wordpool_less_exclusions.txt	LTP192	ltpFR	2	16	0	ICING	732	n/a	n/a	0	n/a	n/a	n/a	n/a	n/a
3111.838	n/a	REC_WORD	1555919	wordpools/wasnorm_wordpool_less_exclusions.txt	LTP192	ltpFR	2	16	0	FINGERNAIL	568	n/a	n/a	0	n/a	n/a	n/a	n/a	n/a
3126.884	n/a	REC_WORD	1563442	wordpools/wasnorm_wordpool_less_exclusions.txt	LTP192	ltpFR	2	16	0	TONGUE	1479	n/a	n/a	0	n/a	n/a	n/a	n/a	n/a
3139.29	n/a	REC_WORD	1569645	wordpools/wasnorm_wordpool_less_exclusions.txt	LTP192	ltpFR	2	16	0	SKYSCRAPER	1322	n/a	n/a	1	n/a	n/a	n/a	n/a	n/a
3200.606	n/a	REC_START	1600303	n/a	LTP192	ltpFR	2	n/a	n/a	n/a	n/a	n/a	n/a	n/a	n/a	n/a	n/a	n/a	n/a
3200.994	n/a	FFR_REC_WORD	1600497	wordpools/wasnorm_wordpool_less_exclusions.txt	LTP192	ltpFR	2	n/a	0	PECAN	1036	n/a	n/a	0	n/a	n/a	n/a	n/a	n/a
3202.126	n/a	FFR_REC_WORD	1601063	wordpools/wasnorm_wordpool_less_exclusions.txt	LTP192	ltpFR	2	n/a	0	ICING	732	n/a	n/a	0	n/a	n/a	n/a	n/a	n/a
3202.974	n/a	FFR_REC_WORD	1601487	wordpools/wasnorm_wordpool_less_exclusions.txt	LTP192	ltpFR	2	n/a	0	FINGERNAIL	568	n/a	n/a	0	n/a	n/a	n/a	n/a	n/a
3204.372	n/a	FFR_REC_WORD	1602186	wordpools/wasnorm_wordpool_less_exclusions.txt	LTP192	ltpFR	2	n/a	0	THORN	1459	n/a	n/a	0	n/a	n/a	n/a	n/a	n/a
3205.36	n/a	FFR_REC_WORD	1602680	wordpools/wasnorm_wordpool_less_exclusions.txt	LTP192	ltpFR	2	n/a	0	POWDER	1117	n/a	n/a	0	n/a	n/a	n/a	n/a	n/a
3206.128	n/a	FFR_REC_WORD	1603064	wordpools/wasnorm_wordpool_less_exclusions.txt	LTP192	ltpFR	2	n/a	0	FLIPPER	580	n/a	n/a	0	n/a	n/a	n/a	n/a	n/a
3208.436	n/a	FFR_REC_WORD	1604218	wordpools/wasnorm_wordpool_less_exclusions.txt	LTP192	ltpFR	2	n/a	1	SPY	1360	n/a	n/a	1	n/a	n/a	n/a	n/a	n/a
3209.456	n/a	FFR_REC_WORD	1604728	wordpools/wasnorm_wordpool_less_exclusions.txt	LTP192	ltpFR	2	n/a	0	AGENT	10	n/a	n/a	1	n/a	n/a	n/a	n/a	n/a
3210.618	n/a	FFR_REC_WORD	1605309	wordpools/wasnorm_wordpool_less_exclusions.txt	LTP192	ltpFR	2	n/a	0	POLICE	1098	n/a	n/a	1	n/a	n/a	n/a	n/a	n/a
3211.556	n/a	FFR_REC_WORD	1605778	wordpools/wasnorm_wordpool_less_exclusions.txt	LTP192	ltpFR	2	n/a	1	PATROL	1027	n/a	n/a	0	n/a	n/a	n/a	n/a	n/a
3212.632	n/a	FFR_REC_WORD	1606316	wordpools/wasnorm_wordpool_less_exclusions.txt	LTP192	ltpFR	2	n/a	1	CAPITAL	238	n/a	n/a	0	n/a	n/a	n/a	n/a	n/a
3214.804	n/a	FFR_REC_WORD	1607402	wordpools/wasnorm_wordpool_less_exclusions.txt	LTP192	ltpFR	2	n/a	1	CATTLE	261	n/a	n/a	1	n/a	n/a	n/a	n/a	n/a
3218.06	n/a	FFR_REC_WORD_VV	1609030	wordpools/wasnorm_wordpool_less_exclusions.txt	LTP192	ltpFR	2	n/a	n/a	<>	-1	n/a	n/a	n/a	n/a	n/a	n/a	n/a	n/a
3219.012	n/a	FFR_REC_WORD	1609506	wordpools/wasnorm_wordpool_less_exclusions.txt	LTP192	ltpFR	2	n/a	-1	HAM	678	n/a	n/a	-1	n/a	n/a	n/a	n/a	n/a
3219.928	n/a	FFR_REC_WORD	1609964	wordpools/wasnorm_wordpool_less_exclusions.txt	LTP192	ltpFR	2	n/a	n/a	SANDWICH	1232	n/a	n/a	n/a	n/a	n/a	n/a	n/a	n/a
3221.074	n/a	FFR_REC_WORD	1610537	wordpools/wasnorm_wordpool_less_exclusions.txt	LTP192	ltpFR	2	n/a	-1	LUNCH	849	n/a	n/a	-1	n/a	n/a	n/a	n/a	n/a
3223.888	n/a	FFR_REC_WORD	1611944	wordpools/wasnorm_wordpool_less_exclusions.txt	LTP192	ltpFR	2	n/a	0	TOMATO	1476	n/a	n/a	0	n/a	n/a	n/a	n/a	n/a
3226.122	n/a	FFR_REC_WORD	1613061	wordpools/wasnorm_wordpool_less_exclusions.txt	LTP192	ltpFR	2	n/a	0	CABBAGE	210	n/a	n/a	0	n/a	n/a	n/a	n/a	n/a
3227.44	n/a	FFR_REC_WORD	1613720	wordpools/wasnorm_wordpool_less_exclusions.txt	LTP192	ltpFR	2	n/a	0	SPINACH	1352	n/a	n/a	0	n/a	n/a	n/a	n/a	n/a
3231.396	n/a	FFR_REC_WORD	1615698	wordpools/wasnorm_wordpool_less_exclusions.txt	LTP192	ltpFR	2	n/a	n/a	SALT	1229	n/a	n/a	n/a	n/a	n/a	n/a	n/a	n/a
3232.394	n/a	FFR_REC_WORD	1616197	wordpools/wasnorm_wordpool_less_exclusions.txt	LTP192	ltpFR	2	n/a	0	PEPPER	1047	n/a	n/a	0	n/a	n/a	n/a	n/a	n/a
3233.01	n/a	FFR_REC_WORD	1616505	wordpools/wasnorm_wordpool_less_exclusions.txt	LTP192	ltpFR	2	n/a	0	SUGAR	1401	n/a	n/a	0	n/a	n/a	n/a	n/a	n/a
3237.536	n/a	FFR_REC_WORD	1618768	wordpools/wasnorm_wordpool_less_exclusions.txt	LTP192	ltpFR	2	n/a	1	JUPITER	765	n/a	n/a	1	n/a	n/a	n/a	n/a	n/a
3238.49	n/a	FFR_REC_WORD	1619245	wordpools/wasnorm_wordpool_less_exclusions.txt	LTP192	ltpFR	2	n/a	-1	MARS	873	n/a	n/a	-1	n/a	n/a	n/a	n/a	n/a
3239.328	n/a	FFR_REC_WORD	1619664	wordpools/wasnorm_wordpool_less_exclusions.txt	LTP192	ltpFR	2	n/a	-1	NEPTUNE	943	n/a	n/a	-1	n/a	n/a	n/a	n/a	n/a
3240.356	n/a	FFR_REC_WORD	1620178	wordpools/wasnorm_wordpool_less_exclusions.txt	LTP192	ltpFR	2	n/a	1	EARTH	515	n/a	n/a	1	n/a	n/a	n/a	n/a	n/a
3245.174	n/a	FFR_REC_WORD	1622587	wordpools/wasnorm_wordpool_less_exclusions.txt	LTP192	ltpFR	2	n/a	1	EMPLOYER	532	n/a	n/a	1	n/a	n/a	n/a	n/a	n/a
3246.006	n/a	FFR_REC_WORD	1623003	wordpools/wasnorm_wordpool_less_exclusions.txt	LTP192	ltpFR	2	n/a	1	SUPERVISOR	1410	n/a	n/a	1	n/a	n/a	n/a	n/a	n/a
3246.96	n/a	FFR_REC_WORD	1623480	wordpools/wasnorm_wordpool_less_exclusions.txt	LTP192	ltpFR	2	n/a	0	EMPLOYEE	531	n/a	n/a	1	n/a	n/a	n/a	n/a	n/a
3248.174	n/a	FFR_REC_WORD	1624087	wordpools/wasnorm_wordpool_less_exclusions.txt	LTP192	ltpFR	2	n/a	1	BOSS	152	n/a	n/a	1	n/a	n/a	n/a	n/a	n/a
3250.394	n/a	FFR_REC_WORD	1625197	wordpools/wasnorm_wordpool_less_exclusions.txt	LTP192	ltpFR	2	n/a	1	SENATE	1267	n/a	n/a	1	n/a	n/a	n/a	n/a	n/a
3256.106	n/a	FFR_REC_WORD	1628053	wordpools/wasnorm_wordpool_less_exclusions.txt	LTP192	ltpFR	2	n/a	0	PUPPY	1144	n/a	n/a	0	n/a	n/a	n/a	n/a	n/a
3256.824	n/a	FFR_REC_WORD	1628412	wordpools/wasnorm_wordpool_less_exclusions.txt	LTP192	ltpFR	2	n/a	0	DOG	480	n/a	n/a	0	n/a	n/a	n/a	n/a	n/a
3257.642	n/a	FFR_REC_WORD	1628821	wordpools/wasnorm_wordpool_less_exclusions.txt	LTP192	ltpFR	2	n/a	0	WOLF	1619	n/a	n/a	1	n/a	n/a	n/a	n/a	n/a
3263.14	n/a	FFR_REC_WORD	1631570	wordpools/wasnorm_wordpool_less_exclusions.txt	LTP192	ltpFR	2	n/a	1	PRINTER	1126	n/a	n/a	0	n/a	n/a	n/a	n/a	n/a
3263.938	n/a	FFR_REC_WORD	1631969	wordpools/wasnorm_wordpool_less_exclusions.txt	LTP192	ltpFR	2	n/a	1	KEYBOARD	774	n/a	n/a	0	n/a	n/a	n/a	n/a	n/a
3265.194	n/a	FFR_REC_WORD	1632597	wordpools/wasnorm_wordpool_less_exclusions.txt	LTP192	ltpFR	2	n/a	1	FAMILY	550	n/a	n/a	1	n/a	n/a	n/a	n/a	n/a
3266.112	n/a	FFR_REC_WORD	1633056	wordpools/wasnorm_wordpool_less_exclusions.txt	LTP192	ltpFR	2	n/a	1	UNCLE	1536	n/a	n/a	1	n/a	n/a	n/a	n/a	n/a
3269.554	n/a	FFR_REC_WORD	1634777	wordpools/wasnorm_wordpool_less_exclusions.txt	LTP192	ltpFR	2	n/a	0	ELM	527	n/a	n/a	1	n/a	n/a	n/a	n/a	n/a
3271.12	n/a	FFR_REC_WORD	1635560	wordpools/wasnorm_wordpool_less_exclusions.txt	LTP192	ltpFR	2	n/a	1	BERRY	122	n/a	n/a	1	n/a	n/a	n/a	n/a	n/a
3273.056	n/a	FFR_REC_WORD	1636528	wordpools/wasnorm_wordpool_less_exclusions.txt	LTP192	ltpFR	2	n/a	1	TOAST	1471	n/a	n/a	0	n/a	n/a	n/a	n/a	n/a
3273.72	n/a	FFR_REC_WORD	1636860	wordpools/wasnorm_wordpool_less_exclusions.txt	LTP192	ltpFR	2	n/a	1	OATMEAL	967	n/a	n/a	0	n/a	n/a	n/a	n/a	n/a
3277.96	n/a	FFR_REC_WORD	1638980	wordpools/wasnorm_wordpool_less_exclusions.txt	LTP192	ltpFR	2	n/a	-1	LOFT	840	n/a	n/a	-1	n/a	n/a	n/a	n/a	n/a
3279.148	n/a	FFR_REC_WORD	1639574	wordpools/wasnorm_wordpool_less_exclusions.txt	LTP192	ltpFR	2	n/a	1	CAPTAIN	239	n/a	n/a	1	n/a	n/a	n/a	n/a	n/a
3280.03	n/a	FFR_REC_WORD	1640015	wordpools/wasnorm_wordpool_less_exclusions.txt	LTP192	ltpFR	2	n/a	-1	PIRATE	1074	n/a	n/a	-1	n/a	n/a	n/a	n/a	n/a
3288.646	n/a	FFR_REC_WORD	1644323	wordpools/wasnorm_wordpool_less_exclusions.txt	LTP192	ltpFR	2	n/a	-1	CUCUMBER	421	n/a	n/a	-1	n/a	n/a	n/a	n/a	n/a
3291.8	n/a	FFR_REC_WORD	1645900	wordpools/wasnorm_wordpool_less_exclusions.txt	LTP192	ltpFR	2	n/a	-1	COLOGNE	347	n/a	n/a	-1	n/a	n/a	n/a	n/a	n/a
3292.722	n/a	FFR_REC_WORD	1646361	wordpools/wasnorm_wordpool_less_exclusions.txt	LTP192	ltpFR	2	n/a	1	PANTS	1010	n/a	n/a	0	n/a	n/a	n/a	n/a	n/a
3293.684	n/a	FFR_REC_WORD	1646842	wordpools/wasnorm_wordpool_less_exclusions.txt	LTP192	ltpFR	2	n/a	1	EARRING	514	n/a	n/a	0	n/a	n/a	n/a	n/a	n/a
3294.438	n/a	FFR_REC_WORD	1647219	wordpools/wasnorm_wordpool_less_exclusions.txt	LTP192	ltpFR	2	n/a	1	PEARL	1034	n/a	n/a	0	n/a	n/a	n/a	n/a	n/a
3295.196	n/a	FFR_REC_WORD	1647598	wordpools/wasnorm_wordpool_less_exclusions.txt	LTP192	ltpFR	2	n/a	-1	RUBY	1214	n/a	n/a	-1	n/a	n/a	n/a	n/a	n/a
3297.432	n/a	FFR_REC_WORD	1648716	wordpools/wasnorm_wordpool_less_exclusions.txt	LTP192	ltpFR	2	n/a	-1	DIAMOND	458	n/a	n/a	-1	n/a	n/a	n/a	n/a	n/a
3298.394	n/a	FFR_REC_WORD	1649197	wordpools/wasnorm_wordpool_less_exclusions.txt	LTP192	ltpFR	2	n/a	-1	BRIDE	173	n/a	n/a	-1	n/a	n/a	n/a	n/a	n/a
3299.9	n/a	FFR_REC_WORD	1649950	wordpools/wasnorm_wordpool_less_exclusions.txt	LTP192	ltpFR	2	n/a	0	PLANT	1083	n/a	n/a	0	n/a	n/a	n/a	n/a	n/a
3302.42	n/a	FFR_REC_WORD	1651210	wordpools/wasnorm_wordpool_less_exclusions.txt	LTP192	ltpFR	2	n/a	0	PARSLEY	1016	n/a	n/a	0	n/a	n/a	n/a	n/a	n/a
3307.08	n/a	FFR_REC_WORD	1653540	wordpools/wasnorm_wordpool_less_exclusions.txt	LTP192	ltpFR	2	n/a	0	CRICKET	408	n/a	n/a	0	n/a	n/a	n/a	n/a	n/a
3309.294	n/a	FFR_REC_WORD	1654647	wordpools/wasnorm_wordpool_less_exclusions.txt	LTP192	ltpFR	2	n/a	-1	TOOL	1480	n/a	n/a	-1	n/a	n/a	n/a	n/a	n/a
3310.002	n/a	FFR_REC_WORD	1655001	wordpools/wasnorm_wordpool_less_exclusions.txt	LTP192	ltpFR	2	n/a	0	RULER	1216	n/a	n/a	0	n/a	n/a	n/a	n/a	n/a
3311.774	n/a	FFR_REC_WORD	1655887	wordpools/wasnorm_wordpool_less_exclusions.txt	LTP192	ltpFR	2	n/a	-1	SCREWDRIVER	1255	n/a	n/a	-1	n/a	n/a	n/a	n/a	n/a
3312.774	n/a	FFR_REC_WORD_VV	1656387	wordpools/wasnorm_wordpool_less_exclusions.txt	LTP192	ltpFR	2	n/a	n/a	<>	-1	n/a	n/a	n/a	n/a	n/a	n/a	n/a	n/a
3313.71	n/a	FFR_REC_WORD	1656855	wordpools/wasnorm_wordpool_less_exclusions.txt	LTP192	ltpFR	2	n/a	1	REFEREE	1178	n/a	n/a	1	n/a	n/a	n/a	n/a	n/a
3314.638	n/a	FFR_REC_WORD	1657319	wordpools/wasnorm_wordpool_less_exclusions.txt	LTP192	ltpFR	2	n/a	1	ATHLETE	52	n/a	n/a	1	n/a	n/a	n/a	n/a	n/a
3323.298	n/a	FFR_REC_WORD	1661649	wordpools/wasnorm_wordpool_less_exclusions.txt	LTP192	ltpFR	2	n/a	0	FIELD	562	n/a	n/a	1	n/a	n/a	n/a	n/a	n/a
3324.72	n/a	FFR_REC_WORD	1662360	wordpools/wasnorm_wordpool_less_exclusions.txt	LTP192	ltpFR	2	n/a	0	ARCHITECT	36	n/a	n/a	1	n/a	n/a	n/a	n/a	n/a
3325.36	n/a	FFR_REC_WORD	1662680	wordpools/wasnorm_wordpool_less_exclusions.txt	LTP192	ltpFR	2	n/a	0	SKYSCRAPER	1322	n/a	n/a	1	n/a	n/a	n/a	n/a	n/a
3326.36	n/a	FFR_REC_WORD_VV	1663180	wordpools/wasnorm_wordpool_less_exclusions.txt	LTP192	ltpFR	2	n/a	n/a	<>	-1	n/a	n/a	n/a	n/a	n/a	n/a	n/a	n/a
3337.216	n/a	FFR_REC_WORD	1668608	wordpools/wasnorm_wordpool_less_exclusions.txt	LTP192	ltpFR	2	n/a	0	CONTINENT	367	n/a	n/a	1	n/a	n/a	n/a	n/a	n/a
3338.19	n/a	FFR_REC_WORD	1669095	wordpools/wasnorm_wordpool_less_exclusions.txt	LTP192	ltpFR	2	n/a	1	ASIA	46	n/a	n/a	0	n/a	n/a	n/a	n/a	n/a
3348.382	n/a	FFR_REC_WORD	1674191	wordpools/wasnorm_wordpool_less_exclusions.txt	LTP192	ltpFR	2	n/a	1	NIGHTGOWN	953	n/a	n/a	0	n/a	n/a	n/a	n/a	n/a
3349.468	n/a	FFR_REC_WORD	1674734	wordpools/wasnorm_wordpool_less_exclusions.txt	LTP192	ltpFR	2	n/a	1	BED	110	n/a	n/a	0	n/a	n/a	n/a	n/a	n/a
3361.108	n/a	FFR_REC_WORD	1680554	wordpools/wasnorm_wordpool_less_exclusions.txt	LTP192	ltpFR	2	n/a	1	SILVERWARE	1308	n/a	n/a	0	n/a	n/a	n/a	n/a	n/a
3362.094	n/a	FFR_REC_WORD	1681047	wordpools/wasnorm_wordpool_less_exclusions.txt	LTP192	ltpFR	2	n/a	1	UTENSIL	1542	n/a	n/a	0	n/a	n/a	n/a	n/a	n/a
3364.714	n/a	FFR_REC_WORD	1682357	wordpools/wasnorm_wordpool_less_exclusions.txt	LTP192	ltpFR	2	n/a	1	SKILLET	1317	n/a	n/a	0	n/a	n/a	n/a	n/a	n/a
3365.558	n/a	FFR_REC_WORD	1682779	wordpools/wasnorm_wordpool_less_exclusions.txt	LTP192	ltpFR	2	n/a	1	PAN	1008	n/a	n/a	0	n/a	n/a	n/a	n/a	n/a
3375.26	n/a	FFR_REC_WORD	1687630	wordpools/wasnorm_wordpool_less_exclusions.txt	LTP192	ltpFR	2	n/a	-1	CORPORATION	382	n/a	n/a	-1	n/a	n/a	n/a	n/a	n/a
3382.4	n/a	FFR_REC_WORD	1691200	wordpools/wasnorm_wordpool_less_exclusions.txt	LTP192	ltpFR	2	n/a	0	CIGARETTE	309	n/a	n/a	0	n/a	n/a	n/a	n/a	n/a
3387.938	n/a	FFR_REC_WORD	1693969	wordpools/wasnorm_wordpool_less_exclusions.txt	LTP192	ltpFR	2	n/a	0	HAND	683	n/a	n/a	0	n/a	n/a	n/a	n/a	n/a
3388.776	n/a	FFR_REC_WORD	1694388	wordpools/wasnorm_wordpool_less_exclusions.txt	LTP192	ltpFR	2	n/a	0	TONGUE	1479	n/a	n/a	0	n/a	n/a	n/a	n/a	n/a
3390.012	n/a	FFR_REC_WORD	1695006	wordpools/wasnorm_wordpool_less_exclusions.txt	LTP192	ltpFR	2	n/a	1	HEEL	700	n/a	n/a	0	n/a	n/a	n/a	n/a	n/a
3393.774	n/a	FFR_REC_WORD	1696887	wordpools/wasnorm_wordpool_less_exclusions.txt	LTP192	ltpFR	2	n/a	1	BACKBONE	66	n/a	n/a	0	n/a	n/a	n/a	n/a	n/a
3394.558	n/a	FFR_REC_WORD	1697279	wordpools/wasnorm_wordpool_less_exclusions.txt	LTP192	ltpFR	2	n/a	0	RIB	1188	n/a	n/a	0	n/a	n/a	n/a	n/a	n/a
3395.496	n/a	FFR_REC_WORD	1697748	wordpools/wasnorm_wordpool_less_exclusions.txt	LTP192	ltpFR	2	n/a	1	WINGS	1614	n/a	n/a	0	n/a	n/a	n/a	n/a	n/a
3399.926	n/a	FFR_REC_WORD	1699963	wordpools/wasnorm_wordpool_less_exclusions.txt	LTP192	ltpFR	2	n/a	-1	CHICKEN	297	n/a	n/a	-1	n/a	n/a	n/a	n/a	n/a
3400.704	n/a	FFR_REC_WORD	1700352	wordpools/wasnorm_wordpool_less_exclusions.txt	LTP192	ltpFR	2	n/a	-1	BREAST	171	n/a	n/a	-1	n/a	n/a	n/a	n/a	n/a
3408.63	n/a	FFR_REC_WORD	1704315	wordpools/wasnorm_wordpool_less_exclusions.txt	LTP192	ltpFR	2	n/a	0	PEAR	1033	n/a	n/a	0	n/a	n/a	n/a	n/a	n/a
3417.376	n/a	FFR_REC_WORD	1708688	wordpools/wasnorm_wordpool_less_exclusions.txt	LTP192	ltpFR	2	n/a	-1	FLAG	573	n/a	n/a	-1	n/a	n/a	n/a	n/a	n/a
3437.964	n/a	FFR_REC_WORD	1718982	wordpools/wasnorm_wordpool_less_exclusions.txt	LTP192	ltpFR	2	n/a	-1	ACROBAT	4	n/a	n/a	-1	n/a	n/a	n/a	n/a	n/a
3439.072	n/a	FFR_REC_WORD	1719536	wordpools/wasnorm_wordpool_less_exclusions.txt	LTP192	ltpFR	2	n/a	1	CIRCUS	311	n/a	n/a	0	n/a	n/a	n/a	n/a	n/a
3446.854	n/a	FFR_REC_WORD	1723427	wordpools/wasnorm_wordpool_less_exclusions.txt	LTP192	ltpFR	2	n/a	0	PADDLE	1000	n/a	n/a	1	n/a	n/a	n/a	n/a	n/a
3458.722	n/a	FFR_REC_WORD	1729361	wordpools/wasnorm_wordpool_less_exclusions.txt	LTP192	ltpFR	2	n/a	n/a	PILOT	1070	n/a	n/a	n/a	n/a	n/a	n/a	n/a	n/a
3468.656	n/a	FFR_REC_WORD	1734328	wordpools/wasnorm_wordpool_less_exclusions.txt	LTP192	ltpFR	2	n/a	n/a	PILOT	1070	n/a	n/a	n/a	n/a	n/a	n/a	n/a	n/a
3469.454	n/a	FFR_REC_WORD	1734727	wordpools/wasnorm_wordpool_less_exclusions.txt	LTP192	ltpFR	2	n/a	0	ENGINE	535	n/a	n/a	1	n/a	n/a	n/a	n/a	n/a
3483.262	n/a	FFR_REC_WORD	1741631	wordpools/wasnorm_wordpool_less_exclusions.txt	LTP192	ltpFR	2	n/a	-1	STOOL	1386	n/a	n/a	-1	n/a	n/a	n/a	n/a	n/a
3484.144	n/a	FFR_REC_WORD	1742072	wordpools/wasnorm_wordpool_less_exclusions.txt	LTP192	ltpFR	2	n/a	-1	SEAT	1264	n/a	n/a	-1	n/a	n/a	n/a	n/a	n/a
3485.142	n/a	FFR_REC_WORD	1742571	wordpools/wasnorm_wordpool_less_exclusions.txt	LTP192	ltpFR	2	n/a	-1	THREAD	1460	n/a	n/a	-1	n/a	n/a	n/a	n/a	n/a
3545.03	n/a	REC_START	1772515	n/a	LTP192	ltpFR	2	1	n/a	n/a	n/a	n/a	n/a	n/a	n/a	n/a	n/a	n/a	n/a
3545.062	n/a	RECOG_TARGET	1772531	n/a	LTP192	ltpFR	2	1	-1	CARTON	251	0	1	-1	n/a	n/a	n/a	n/a	n/a
3546.452	n/a	RECOG_RESP	1773226	n/a	LTP192	ltpFR	2	1	-1	CARTON	251	0	n/a	-1	n/a	n/a	n/a	n/a	n/a
3548.376	n/a	RECOG_CONF	1774188	n/a	LTP192	ltpFR	2	1	-1	CARTON	251	n/a	1	-1	n/a	n/a	n/a	n/a	n/a
3550.304	n/a	RECOG_TARGET	1775152	n/a	LTP192	ltpFR	2	1	-1	TOOL	1480	1	5	-1	n/a	n/a	n/a	n/a	n/a
3551.012	n/a	RECOG_RESP	1775506	n/a	LTP192	ltpFR	2	1	-1	TOOL	1480	1	n/a	-1	n/a	n/a	n/a	n/a	n/a
3552.146	n/a	RECOG_CONF	1776073	n/a	LTP192	ltpFR	2	1	-1	TOOL	1480	n/a	5	-1	n/a	n/a	n/a	n/a	n/a
3553.898	n/a	RECOG_LURE	1776949	n/a	LTP192	ltpFR	2	1	n/a	SUNSET	1408	0	2	n/a	n/a	n/a	n/a	n/a	n/a
3555.142	n/a	RECOG_RESP	1777571	n/a	LTP192	ltpFR	2	1	n/a	SUNSET	1408	0	n/a	n/a	n/a	n/a	n/a	n/a	n/a
3556.402	n/a	RECOG_CONF	1778201	n/a	LTP192	ltpFR	2	1	n/a	SUNSET	1408	n/a	2	n/a	n/a	n/a	n/a	n/a	n/a
3558.276	n/a	RECOG_LURE	1779138	n/a	LTP192	ltpFR	2	1	n/a	YACHT	1629	1	2	n/a	n/a	n/a	n/a	n/a	n/a
3559.452	n/a	RECOG_RESP	1779726	n/a	LTP192	ltpFR	2	1	n/a	YACHT	1629	1	n/a	n/a	n/a	n/a	n/a	n/a	n/a
3560.66	n/a	RECOG_CONF	1780330	n/a	LTP192	ltpFR	2	1	n/a	YACHT	1629	n/a	2	n/a	n/a	n/a	n/a	n/a	n/a
3562.452	n/a	RECOG_TARGET	1781226	n/a	LTP192	ltpFR	2	1	-1	TIE	1466	1	5	-1	n/a	n/a	n/a	n/a	n/a
3563.116	n/a	RECOG_RESP	1781558	n/a	LTP192	ltpFR	2	1	-1	TIE	1466	1	n/a	-1	n/a	n/a	n/a	n/a	n/a
3564.166	n/a	RECOG_CONF	1782083	n/a	LTP192	ltpFR	2	1	-1	TIE	1466	n/a	5	-1	n/a	n/a	n/a	n/a	n/a
3566.048	n/a	RECOG_TARGET	1783024	n/a	LTP192	ltpFR	2	1	0	CUSTOMER	430	1	4	1	n/a	n/a	n/a	n/a	n/a
3566.938	n/a	RECOG_RESP	1783469	n/a	LTP192	ltpFR	2	1	0	CUSTOMER	430	1	n/a	1	n/a	n/a	n/a	n/a	n/a
3567.938	n/a	RECOG_CONF	1783969	n/a	LTP192	ltpFR	2	1	0	CUSTOMER	430	n/a	4	1	n/a	n/a	n/a	n/a	n/a
3570.042	n/a	RECOG_LURE	1785021	n/a	LTP192	ltpFR	2	1	n/a	INN	739	0	4	n/a	n/a	n/a	n/a	n/a	n/a
3570.74	n/a	RECOG_RESP	1785370	n/a	LTP192	ltpFR	2	1	n/a	INN	739	0	n/a	n/a	n/a	n/a	n/a	n/a	n/a
3571.798	n/a	RECOG_CONF	1785899	n/a	LTP192	ltpFR	2	1	n/a	INN	739	n/a	4	n/a	n/a	n/a	n/a	n/a	n/a
3573.72	n/a	RECOG_TARGET	1786860	n/a	LTP192	ltpFR	2	1	1	BOSS	152	1	5	1	n/a	n/a	n/a	n/a	n/a
3574.676	n/a	RECOG_RESP_VV	1787338	n/a	LTP192	ltpFR	2	1	1	BOSS	152	0	n/a	1	n/a	n/a	n/a	n/a	n/a
3575.61	n/a	RECOG_RESP	1787805	n/a	LTP192	ltpFR	2	1	1	BOSS	152	1	n/a	1	n/a	n/a	n/a	n/a	n/a
3576.716	n/a	RECOG_CONF	1788358	n/a	LTP192	ltpFR	2	1	1	BOSS	152	n/a	5	1	n/a	n/a	n/a	n/a	n/a
3578.778	n/a	RECOG_TARGET	1789389	n/a	LTP192	ltpFR	2	1	-1	CHALK	276	1	5	-1	n/a	n/a	n/a	n/a	n/a
3579.614	n/a	RECOG_RESP	1789807	n/a	LTP192	ltpFR	2	1	-1	CHALK	276	1	n/a	-1	n/a	n/a	n/a	n/a	n/a
3580.652	n/a	RECOG_CONF	1790326	n/a	LTP192	ltpFR	2	1	-1	CHALK	276	n/a	5	-1	n/a	n/a	n/a	n/a	n/a
3582.738	n/a	RECOG_LURE	1791369	n/a	LTP192	ltpFR	2	1	n/a	SERVANT	1271	0	4	n/a	n/a	n/a	n/a	n/a	n/a
3583.856	n/a	RECOG_RESP	1791928	n/a	LTP192	ltpFR	2	1	n/a	SERVANT	1271	0	n/a	n/a	n/a	n/a	n/a	n/a	n/a
3584.79	n/a	RECOG_CONF	1792395	n/a	LTP192	ltpFR	2	1	n/a	SERVANT	1271	n/a	4	n/a	n/a	n/a	n/a	n/a	n/a
3586.55	n/a	RECOG_TARGET	1793275	n/a	LTP192	ltpFR	2	1	0	CENT	270	0	1	0	n/a	n/a	n/a	n/a	n/a
3587.61	n/a	RECOG_RESP	1793805	n/a	LTP192	ltpFR	2	1	0	CENT	270	0	n/a	0	n/a	n/a	n/a	n/a	n/a
3589.026	n/a	RECOG_CONF	1794513	n/a	LTP192	ltpFR	2	1	0	CENT	270	n/a	1	0	n/a	n/a	n/a	n/a	n/a
3590.644	n/a	RECOG_TARGET	1795322	n/a	LTP192	ltpFR	2	1	1	POSTAGE	1113	1	4	0	n/a	n/a	n/a	n/a	n/a
3591.676	n/a	RECOG_RESP	1795838	n/a	LTP192	ltpFR	2	1	1	POSTAGE	1113	1	n/a	0	n/a	n/a	n/a	n/a	n/a
3592.744	n/a	RECOG_CONF	1796372	n/a	LTP192	ltpFR	2	1	1	POSTAGE	1113	n/a	4	0	n/a	n/a	n/a	n/a	n/a
3594.522	n/a	RECOG_TARGET	1797261	n/a	LTP192	ltpFR	2	1	-1	BUGLE	189	1	5	-1	n/a	n/a	n/a	n/a	n/a
3595.184	n/a	RECOG_RESP	1797592	n/a	LTP192	ltpFR	2	1	-1	BUGLE	189	1	n/a	-1	n/a	n/a	n/a	n/a	n/a
3596.324	n/a	RECOG_CONF	1798162	n/a	LTP192	ltpFR	2	1	-1	BUGLE	189	n/a	5	-1	n/a	n/a	n/a	n/a	n/a
3598.184	n/a	RECOG_TARGET	1799092	n/a	LTP192	ltpFR	2	1	0	FATHER	554	0	1	1	n/a	n/a	n/a	n/a	n/a
3599.264	n/a	RECOG_RESP	1799632	n/a	LTP192	ltpFR	2	1	0	FATHER	554	0	n/a	1	n/a	n/a	n/a	n/a	n/a
3600.568	n/a	RECOG_CONF	1800284	n/a	LTP192	ltpFR	2	1	0	FATHER	554	n/a	1	1	n/a	n/a	n/a	n/a	n/a
3602.244	n/a	RECOG_TARGET	1801122	n/a	LTP192	ltpFR	2	1	-1	CAN	225	1	5	-1	n/a	n/a	n/a	n/a	n/a
3602.928	n/a	RECOG_RESP	1801464	n/a	LTP192	ltpFR	2	1	-1	CAN	225	1	n/a	-1	n/a	n/a	n/a	n/a	n/a
3604.14	n/a	RECOG_CONF	1802070	n/a	LTP192	ltpFR	2	1	-1	CAN	225	n/a	5	-1	n/a	n/a	n/a	n/a	n/a
3606.004	n/a	RECOG_LURE	1803002	n/a	LTP192	ltpFR	2	1	n/a	BULL	193	1	3	n/a	n/a	n/a	n/a	n/a	n/a
3606.668	n/a	RECOG_RESP	1803334	n/a	LTP192	ltpFR	2	1	n/a	BULL	193	1	n/a	n/a	n/a	n/a	n/a	n/a	n/a
3607.742	n/a	RECOG_CONF	1803871	n/a	LTP192	ltpFR	2	1	n/a	BULL	193	n/a	3	n/a	n/a	n/a	n/a	n/a	n/a
3609.716	n/a	RECOG_TARGET	1804858	n/a	LTP192	ltpFR	2	1	1	CAPITAL	238	1	5	0	n/a	n/a	n/a	n/a	n/a
3610.344	n/a	RECOG_RESP	1805172	n/a	LTP192	ltpFR	2	1	1	CAPITAL	238	1	n/a	0	n/a	n/a	n/a	n/a	n/a
3611.27	n/a	RECOG_CONF	1805635	n/a	LTP192	ltpFR	2	1	1	CAPITAL	238	n/a	5	0	n/a	n/a	n/a	n/a	n/a
3613.028	n/a	RECOG_TARGET	1806514	n/a	LTP192	ltpFR	2	1	1	OX	994	1	5	1	n/a	n/a	n/a	n/a	n/a
3613.586	n/a	RECOG_RESP	1806793	n/a	LTP192	ltpFR	2	1	1	OX	994	1	n/a	1	n/a	n/a	n/a	n/a	n/a
3614.524	n/a	RECOG_CONF	1807262	n/a	LTP192	ltpFR	2	1	1	OX	994	n/a	5	1	n/a	n/a	n/a	n/a	n/a
3616.306	n/a	RECOG_TARGET	1808153	n/a	LTP192	ltpFR	2	1	1	SKILLET	1317	1	5	0	n/a	n/a	n/a	n/a	n/a
3616.87	n/a	RECOG_RESP	1808435	n/a	LTP192	ltpFR	2	1	1	SKILLET	1317	1	n/a	0	n/a	n/a	n/a	n/a	n/a
3617.89	n/a	RECOG_CONF	1808945	n/a	LTP192	ltpFR	2	1	1	SKILLET	1317	n/a	5	0	n/a	n/a	n/a	n/a	n/a
3619.602	n/a	RECOG_TARGET	1809801	n/a	LTP192	ltpFR	2	1	-1	VEAL	1551	1	4	-1	n/a	n/a	n/a	n/a	n/a
3620.284	n/a	RECOG_RESP	1810142	n/a	LTP192	ltpFR	2	1	-1	VEAL	1551	1	n/a	-1	n/a	n/a	n/a	n/a	n/a
3621.332	n/a	RECOG_CONF	1810666	n/a	LTP192	ltpFR	2	1	-1	VEAL	1551	n/a	4	-1	n/a	n/a	n/a	n/a	n/a
3626.024	n/a	REC_START	1813012	n/a	LTP192	ltpFR	2	2	n/a	n/a	n/a	n/a	n/a	n/a	n/a	n/a	n/a	n/a	n/a
3626.058	n/a	RECOG_LURE	1813029	n/a	LTP192	ltpFR	2	2	n/a	HOUSE	725	0	3	n/a	n/a	n/a	n/a	n/a	n/a
3627.386	n/a	RECOG_RESP	1813693	n/a	LTP192	ltpFR	2	2	n/a	HOUSE	725	0	n/a	n/a	n/a	n/a	n/a	n/a	n/a
3628.432	n/a	RECOG_CONF	1814216	n/a	LTP192	ltpFR	2	2	n/a	HOUSE	725	n/a	3	n/a	n/a	n/a	n/a	n/a	n/a
3630.336	n/a	RECOG_LURE	1815168	n/a	LTP192	ltpFR	2	2	n/a	WITCH	1617	0	4	n/a	n/a	n/a	n/a	n/a	n/a
3631.034	n/a	RECOG_RESP	1815517	n/a	LTP192	ltpFR	2	2	n/a	WITCH	1617	0	n/a	n/a	n/a	n/a	n/a	n/a	n/a
3632.0	n/a	RECOG_CONF	1816000	n/a	LTP192	ltpFR	2	2	n/a	WITCH	1617	n/a	4	n/a	n/a	n/a	n/a	n/a	n/a
3633.964	n/a	RECOG_LURE	1816982	n/a	LTP192	ltpFR	2	2	n/a	GOOSE	649	0	5	n/a	n/a	n/a	n/a	n/a	n/a
3634.688	n/a	RECOG_RESP	1817344	n/a	LTP192	ltpFR	2	2	n/a	GOOSE	649	0	n/a	n/a	n/a	n/a	n/a	n/a	n/a
3635.786	n/a	RECOG_CONF	1817893	n/a	LTP192	ltpFR	2	2	n/a	GOOSE	649	n/a	5	n/a	n/a	n/a	n/a	n/a	n/a
3637.574	n/a	RECOG_LURE	1818787	n/a	LTP192	ltpFR	2	2	n/a	TOAD	1470	0	5	n/a	n/a	n/a	n/a	n/a	n/a
3638.254	n/a	RECOG_RESP	1819127	n/a	LTP192	ltpFR	2	2	n/a	TOAD	1470	0	n/a	n/a	n/a	n/a	n/a	n/a	n/a
3639.274	n/a	RECOG_CONF	1819637	n/a	LTP192	ltpFR	2	2	n/a	TOAD	1470	n/a	5	n/a	n/a	n/a	n/a	n/a	n/a
3641.22	n/a	RECOG_TARGET	1820610	n/a	LTP192	ltpFR	2	2	1	COOKIE	374	0	1	0	n/a	n/a	n/a	n/a	n/a
3642.214	n/a	RECOG_RESP	1821107	n/a	LTP192	ltpFR	2	2	1	COOKIE	374	0	n/a	0	n/a	n/a	n/a	n/a	n/a
3644.018	n/a	RECOG_CONF	1822009	n/a	LTP192	ltpFR	2	2	1	COOKIE	374	n/a	1	0	n/a	n/a	n/a	n/a	n/a
3645.812	n/a	RECOG_LURE	1822906	n/a	LTP192	ltpFR	2	2	n/a	REGISTER	1180	0	4	n/a	n/a	n/a	n/a	n/a	n/a
3646.618	n/a	RECOG_RESP	1823309	n/a	LTP192	ltpFR	2	2	n/a	REGISTER	1180	0	n/a	n/a	n/a	n/a	n/a	n/a	n/a
3647.72	n/a	RECOG_CONF	1823860	n/a	LTP192	ltpFR	2	2	n/a	REGISTER	1180	n/a	4	n/a	n/a	n/a	n/a	n/a	n/a
3649.424	n/a	RECOG_LURE	1824712	n/a	LTP192	ltpFR	2	2	n/a	HELICOPTER	701	0	4	n/a	n/a	n/a	n/a	n/a	n/a
3650.13	n/a	RECOG_RESP	1825065	n/a	LTP192	ltpFR	2	2	n/a	HELICOPTER	701	0	n/a	n/a	n/a	n/a	n/a	n/a	n/a
3651.144	n/a	RECOG_CONF	1825572	n/a	LTP192	ltpFR	2	2	n/a	HELICOPTER	701	n/a	4	n/a	n/a	n/a	n/a	n/a	n/a
3653.018	n/a	RECOG_LURE	1826509	n/a	LTP192	ltpFR	2	2	n/a	BRAKE	166	0	3	n/a	n/a	n/a	n/a	n/a	n/a
3653.936	n/a	RECOG_RESP	1826968	n/a	LTP192	ltpFR	2	2	n/a	BRAKE	166	0	n/a	n/a	n/a	n/a	n/a	n/a	n/a
3655.098	n/a	RECOG_CONF	1827549	n/a	LTP192	ltpFR	2	2	n/a	BRAKE	166	n/a	3	n/a	n/a	n/a	n/a	n/a	n/a
3656.962	n/a	RECOG_LURE	1828481	n/a	LTP192	ltpFR	2	2	n/a	COUCH	386	0	4	n/a	n/a	n/a	n/a	n/a	n/a
3657.644	n/a	RECOG_RESP	1828822	n/a	LTP192	ltpFR	2	2	n/a	COUCH	386	0	n/a	n/a	n/a	n/a	n/a	n/a	n/a
3658.608	n/a	RECOG_CONF	1829304	n/a	LTP192	ltpFR	2	2	n/a	COUCH	386	n/a	4	n/a	n/a	n/a	n/a	n/a	n/a
3660.49	n/a	RECOG_LURE	1830245	n/a	LTP192	ltpFR	2	2	n/a	COMPASS	358	0	5	n/a	n/a	n/a	n/a	n/a	n/a
3661.178	n/a	RECOG_RESP	1830589	n/a	LTP192	ltpFR	2	2	n/a	COMPASS	358	0	n/a	n/a	n/a	n/a	n/a	n/a	n/a
3662.104	n/a	RECOG_CONF	1831052	n/a	LTP192	ltpFR	2	2	n/a	COMPASS	358	n/a	5	n/a	n/a	n/a	n/a	n/a	n/a
3664.002	n/a	RECOG_LURE	1832001	n/a	LTP192	ltpFR	2	2	n/a	ROBBER	1197	0	5	n/a	n/a	n/a	n/a	n/a	n/a
3664.666	n/a	RECOG_RESP	1832333	n/a	LTP192	ltpFR	2	2	n/a	ROBBER	1197	0	n/a	n/a	n/a	n/a	n/a	n/a	n/a
3665.728	n/a	RECOG_CONF	1832864	n/a	LTP192	ltpFR	2	2	n/a	ROBBER	1197	n/a	5	n/a	n/a	n/a	n/a	n/a	n/a
3667.78	n/a	RECOG_LURE	1833890	n/a	LTP192	ltpFR	2	2	n/a	CANDLE	229	0	4	n/a	n/a	n/a	n/a	n/a	n/a
3668.764	n/a	RECOG_RESP	1834382	n/a	LTP192	ltpFR	2	2	n/a	CANDLE	229	0	n/a	n/a	n/a	n/a	n/a	n/a	n/a
3669.748	n/a	RECOG_CONF	1834874	n/a	LTP192	ltpFR	2	2	n/a	CANDLE	229	n/a	4	n/a	n/a	n/a	n/a	n/a	n/a
3671.74	n/a	RECOG_TARGET	1835870	n/a	LTP192	ltpFR	2	2	1	SILVERWARE	1308	1	4	0	n/a	n/a	n/a	n/a	n/a
3672.414	n/a	RECOG_RESP	1836207	n/a	LTP192	ltpFR	2	2	1	SILVERWARE	1308	1	n/a	0	n/a	n/a	n/a	n/a	n/a
3673.522	n/a	RECOG_CONF	1836761	n/a	LTP192	ltpFR	2	2	1	SILVERWARE	1308	n/a	4	0	n/a	n/a	n/a	n/a	n/a
3675.302	n/a	RECOG_LURE	1837651	n/a	LTP192	ltpFR	2	2	n/a	PIMPLE	1071	0	5	n/a	n/a	n/a	n/a	n/a	n/a
3676.074	n/a	RECOG_RESP	1838037	n/a	LTP192	ltpFR	2	2	n/a	PIMPLE	1071	0	n/a	n/a	n/a	n/a	n/a	n/a	n/a
3677.082	n/a	RECOG_CONF	1838541	n/a	LTP192	ltpFR	2	2	n/a	PIMPLE	1071	n/a	5	n/a	n/a	n/a	n/a	n/a	n/a
3678.946	n/a	RECOG_TARGET	1839473	n/a	LTP192	ltpFR	2	2	1	PANTS	1010	1	5	0	n/a	n/a	n/a	n/a	n/a
3679.738	n/a	RECOG_RESP	1839869	n/a	LTP192	ltpFR	2	2	1	PANTS	1010	1	n/a	0	n/a	n/a	n/a	n/a	n/a
3680.698	n/a	RECOG_CONF	1840349	n/a	LTP192	ltpFR	2	2	1	PANTS	1010	n/a	5	0	n/a	n/a	n/a	n/a	n/a
3682.79	n/a	RECOG_TARGET	1841395	n/a	LTP192	ltpFR	2	2	-1	SCREWDRIVER	1255	1	4	-1	n/a	n/a	n/a	n/a	n/a
3683.444	n/a	RECOG_RESP	1841722	n/a	LTP192	ltpFR	2	2	-1	SCREWDRIVER	1255	1	n/a	-1	n/a	n/a	n/a	n/a	n/a
3684.394	n/a	RECOG_CONF	1842197	n/a	LTP192	ltpFR	2	2	-1	SCREWDRIVER	1255	n/a	4	-1	n/a	n/a	n/a	n/a	n/a
3686.352	n/a	RECOG_TARGET	1843176	n/a	LTP192	ltpFR	2	2	0	WOMAN	1620	0	2	1	n/a	n/a	n/a	n/a	n/a
3687.102	n/a	RECOG_RESP	1843551	n/a	LTP192	ltpFR	2	2	0	WOMAN	1620	0	n/a	1	n/a	n/a	n/a	n/a	n/a
3688.12	n/a	RECOG_CONF	1844060	n/a	LTP192	ltpFR	2	2	0	WOMAN	1620	n/a	2	1	n/a	n/a	n/a	n/a	n/a
3689.848	n/a	RECOG_LURE	1844924	n/a	LTP192	ltpFR	2	2	n/a	PLANE	1081	0	4	n/a	n/a	n/a	n/a	n/a	n/a
3690.736	n/a	RECOG_RESP	1845368	n/a	LTP192	ltpFR	2	2	n/a	PLANE	1081	0	n/a	n/a	n/a	n/a	n/a	n/a	n/a
3691.872	n/a	RECOG_CONF	1845936	n/a	LTP192	ltpFR	2	2	n/a	PLANE	1081	n/a	4	n/a	n/a	n/a	n/a	n/a	n/a
3693.608	n/a	RECOG_TARGET	1846804	n/a	LTP192	ltpFR	2	2	0	HAWK	692	1	5	1	n/a	n/a	n/a	n/a	n/a
3694.58	n/a	RECOG_RESP	1847290	n/a	LTP192	ltpFR	2	2	0	HAWK	692	1	n/a	1	n/a	n/a	n/a	n/a	n/a
3695.628	n/a	RECOG_CONF	1847814	n/a	LTP192	ltpFR	2	2	0	HAWK	692	n/a	5	1	n/a	n/a	n/a	n/a	n/a
3697.67	n/a	RECOG_LURE	1848835	n/a	LTP192	ltpFR	2	2	n/a	RAZOR	1171	0	4	n/a	n/a	n/a	n/a	n/a	n/a
3698.41	n/a	RECOG_RESP	1849205	n/a	LTP192	ltpFR	2	2	n/a	RAZOR	1171	0	n/a	n/a	n/a	n/a	n/a	n/a	n/a
3699.336	n/a	RECOG_CONF	1849668	n/a	LTP192	ltpFR	2	2	n/a	RAZOR	1171	n/a	4	n/a	n/a	n/a	n/a	n/a	n/a
3708.39	n/a	REC_START	1854195	n/a	LTP192	ltpFR	2	3	n/a	n/a	n/a	n/a	n/a	n/a	n/a	n/a	n/a	n/a	n/a
3708.42	n/a	RECOG_TARGET	1854210	n/a	LTP192	ltpFR	2	3	1	UTENSIL	1542	1	5	0	n/a	n/a	n/a	n/a	n/a
3709.302	n/a	RECOG_RESP	1854651	n/a	LTP192	ltpFR	2	3	1	UTENSIL	1542	1	n/a	0	n/a	n/a	n/a	n/a	n/a
3710.166	n/a	RECOG_CONF	1855083	n/a	LTP192	ltpFR	2	3	1	UTENSIL	1542	n/a	5	0	n/a	n/a	n/a	n/a	n/a
3712.164	n/a	RECOG_LURE	1856082	n/a	LTP192	ltpFR	2	3	n/a	YOKE	1632	0	5	n/a	n/a	n/a	n/a	n/a	n/a
3712.866	n/a	RECOG_RESP	1856433	n/a	LTP192	ltpFR	2	3	n/a	YOKE	1632	0	n/a	n/a	n/a	n/a	n/a	n/a	n/a
3713.774	n/a	RECOG_CONF	1856887	n/a	LTP192	ltpFR	2	3	n/a	YOKE	1632	n/a	5	n/a	n/a	n/a	n/a	n/a	n/a
3715.592	n/a	RECOG_LURE	1857796	n/a	LTP192	ltpFR	2	3	n/a	DOCTOR	478	0	2	n/a	n/a	n/a	n/a	n/a	n/a
3716.692	n/a	RECOG_RESP	1858346	n/a	LTP192	ltpFR	2	3	n/a	DOCTOR	478	0	n/a	n/a	n/a	n/a	n/a	n/a	n/a
3717.758	n/a	RECOG_CONF	1858879	n/a	LTP192	ltpFR	2	3	n/a	DOCTOR	478	n/a	2	n/a	n/a	n/a	n/a	n/a	n/a
3719.62	n/a	RECOG_TARGET	1859810	n/a	LTP192	ltpFR	2	3	1	GORILLA	650	1	5	1	n/a	n/a	n/a	n/a	n/a
3720.172	n/a	RECOG_RESP	1860086	n/a	LTP192	ltpFR	2	3	1	GORILLA	650	1	n/a	1	n/a	n/a	n/a	n/a	n/a
3721.186	n/a	RECOG_CONF	1860593	n/a	LTP192	ltpFR	2	3	1	GORILLA	650	n/a	5	1	n/a	n/a	n/a	n/a	n/a
3722.998	n/a	RECOG_LURE	1861499	n/a	LTP192	ltpFR	2	3	n/a	WITNESS	1618	0	4	n/a	n/a	n/a	n/a	n/a	n/a
3723.72	n/a	RECOG_RESP	1861860	n/a	LTP192	ltpFR	2	3	n/a	WITNESS	1618	0	n/a	n/a	n/a	n/a	n/a	n/a	n/a
3724.64	n/a	RECOG_CONF	1862320	n/a	LTP192	ltpFR	2	3	n/a	WITNESS	1618	n/a	4	n/a	n/a	n/a	n/a	n/a	n/a
3726.56	n/a	RECOG_LURE	1863280	n/a	LTP192	ltpFR	2	3	n/a	WOUND	1624	0	4	n/a	n/a	n/a	n/a	n/a	n/a
3727.278	n/a	RECOG_RESP	1863639	n/a	LTP192	ltpFR	2	3	n/a	WOUND	1624	0	n/a	n/a	n/a	n/a	n/a	n/a	n/a
3728.188	n/a	RECOG_CONF	1864094	n/a	LTP192	ltpFR	2	3	n/a	WOUND	1624	n/a	4	n/a	n/a	n/a	n/a	n/a	n/a
3730.17	n/a	RECOG_LURE	1865085	n/a	LTP192	ltpFR	2	3	n/a	SPIT	1354	0	5	n/a	n/a	n/a	n/a	n/a	n/a
3731.138	n/a	RECOG_RESP	1865569	n/a	LTP192	ltpFR	2	3	n/a	SPIT	1354	0	n/a	n/a	n/a	n/a	n/a	n/a	n/a
3732.082	n/a	RECOG_CONF	1866041	n/a	LTP192	ltpFR	2	3	n/a	SPIT	1354	n/a	5	n/a	n/a	n/a	n/a	n/a	n/a
3733.916	n/a	RECOG_TARGET	1866958	n/a	LTP192	ltpFR	2	3	1	PEARL	1034	1	5	0	n/a	n/a	n/a	n/a	n/a
3734.506	n/a	RECOG_RESP	1867253	n/a	LTP192	ltpFR	2	3	1	PEARL	1034	1	n/a	0	n/a	n/a	n/a	n/a	n/a
3735.448	n/a	RECOG_CONF	1867724	n/a	LTP192	ltpFR	2	3	1	PEARL	1034	n/a	5	0	n/a	n/a	n/a	n/a	n/a
3737.344	n/a	RECOG_TARGET	1868672	n/a	LTP192	ltpFR	2	3	0	CABBAGE	210	1	5	0	n/a	n/a	n/a	n/a	n/a
3737.954	n/a	RECOG_RESP	1868977	n/a	LTP192	ltpFR	2	3	0	CABBAGE	210	1	n/a	0	n/a	n/a	n/a	n/a	n/a
3738.87	n/a	RECOG_CONF	1869435	n/a	LTP192	ltpFR	2	3	0	CABBAGE	210	n/a	5	0	n/a	n/a	n/a	n/a	n/a
3740.804	n/a	RECOG_TARGET	1870402	n/a	LTP192	ltpFR	2	3	1	CHAPEL	280	1	5	0	n/a	n/a	n/a	n/a	n/a
3741.388	n/a	RECOG_RESP	1870694	n/a	LTP192	ltpFR	2	3	1	CHAPEL	280	1	n/a	0	n/a	n/a	n/a	n/a	n/a
3742.276	n/a	RECOG_CONF	1871138	n/a	LTP192	ltpFR	2	3	1	CHAPEL	280	n/a	5	0	n/a	n/a	n/a	n/a	n/a
3744.166	n/a	RECOG_TARGET	1872083	n/a	LTP192	ltpFR	2	3	-1	ESSAY	540	1	3	-1	n/a	n/a	n/a	n/a	n/a
3745.114	n/a	RECOG_RESP	1872557	n/a	LTP192	ltpFR	2	3	-1	ESSAY	540	1	n/a	-1	n/a	n/a	n/a	n/a	n/a
3746.13	n/a	RECOG_CONF	1873065	n/a	LTP192	ltpFR	2	3	-1	ESSAY	540	n/a	3	-1	n/a	n/a	n/a	n/a	n/a
3747.794	n/a	RECOG_TARGET	1873897	n/a	LTP192	ltpFR	2	3	1	OATMEAL	967	1	5	0	n/a	n/a	n/a	n/a	n/a
3748.47	n/a	RECOG_RESP	1874235	n/a	LTP192	ltpFR	2	3	1	OATMEAL	967	1	n/a	0	n/a	n/a	n/a	n/a	n/a
3749.31	n/a	RECOG_CONF	1874655	n/a	LTP192	ltpFR	2	3	1	OATMEAL	967	n/a	5	0	n/a	n/a	n/a	n/a	n/a
3751.122	n/a	RECOG_LURE	1875561	n/a	LTP192	ltpFR	2	3	n/a	ENVELOPE	537	1	2	n/a	n/a	n/a	n/a	n/a	n/a
3751.882	n/a	RECOG_RESP	1875941	n/a	LTP192	ltpFR	2	3	n/a	ENVELOPE	537	1	n/a	n/a	n/a	n/a	n/a	n/a	n/a
3752.99	n/a	RECOG_CONF	1876495	n/a	LTP192	ltpFR	2	3	n/a	ENVELOPE	537	n/a	2	n/a	n/a	n/a	n/a	n/a	n/a
3754.75	n/a	RECOG_LURE	1877375	n/a	LTP192	ltpFR	2	3	n/a	DISH	474	0	4	n/a	n/a	n/a	n/a	n/a	n/a
3755.632	n/a	RECOG_RESP	1877816	n/a	LTP192	ltpFR	2	3	n/a	DISH	474	0	n/a	n/a	n/a	n/a	n/a	n/a	n/a
3756.548	n/a	RECOG_CONF	1878274	n/a	LTP192	ltpFR	2	3	n/a	DISH	474	n/a	4	n/a	n/a	n/a	n/a	n/a	n/a
3758.462	n/a	RECOG_TARGET	1879231	n/a	LTP192	ltpFR	2	3	0	STREAM	1392	1	4	1	n/a	n/a	n/a	n/a	n/a
3759.604	n/a	RECOG_RESP	1879802	n/a	LTP192	ltpFR	2	3	0	STREAM	1392	1	n/a	1	n/a	n/a	n/a	n/a	n/a
3760.562	n/a	RECOG_CONF	1880281	n/a	LTP192	ltpFR	2	3	0	STREAM	1392	n/a	4	1	n/a	n/a	n/a	n/a	n/a
3762.374	n/a	RECOG_LURE	1881187	n/a	LTP192	ltpFR	2	3	n/a	BEEF	113	0	2	n/a	n/a	n/a	n/a	n/a	n/a
3763.16	n/a	RECOG_RESP	1881580	n/a	LTP192	ltpFR	2	3	n/a	BEEF	113	0	n/a	n/a	n/a	n/a	n/a	n/a	n/a
3764.228	n/a	RECOG_CONF	1882114	n/a	LTP192	ltpFR	2	3	n/a	BEEF	113	n/a	2	n/a	n/a	n/a	n/a	n/a	n/a
3765.968	n/a	RECOG_TARGET	1882984	n/a	LTP192	ltpFR	2	3	0	PECAN	1036	1	5	0	n/a	n/a	n/a	n/a	n/a
3766.54	n/a	RECOG_RESP	1883270	n/a	LTP192	ltpFR	2	3	0	PECAN	1036	1	n/a	0	n/a	n/a	n/a	n/a	n/a
3767.522	n/a	RECOG_CONF	1883761	n/a	LTP192	ltpFR	2	3	0	PECAN	1036	n/a	5	0	n/a	n/a	n/a	n/a	n/a
3769.364	n/a	RECOG_TARGET	1884682	n/a	LTP192	ltpFR	2	3	0	PARSLEY	1016	1	4	0	n/a	n/a	n/a	n/a	n/a
3770.016	n/a	RECOG_RESP	1885008	n/a	LTP192	ltpFR	2	3	0	PARSLEY	1016	1	n/a	0	n/a	n/a	n/a	n/a	n/a
3770.92	n/a	RECOG_CONF	1885460	n/a	LTP192	ltpFR	2	3	0	PARSLEY	1016	n/a	4	0	n/a	n/a	n/a	n/a	n/a
3772.774	n/a	RECOG_LURE	1886387	n/a	LTP192	ltpFR	2	3	n/a	EMPEROR	529	0	4	n/a	n/a	n/a	n/a	n/a	n/a
3773.634	n/a	RECOG_RESP	1886817	n/a	LTP192	ltpFR	2	3	n/a	EMPEROR	529	0	n/a	n/a	n/a	n/a	n/a	n/a	n/a
3774.534	n/a	RECOG_CONF	1887267	n/a	LTP192	ltpFR	2	3	n/a	EMPEROR	529	n/a	4	n/a	n/a	n/a	n/a	n/a	n/a
3776.27	n/a	RECOG_TARGET	1888135	n/a	LTP192	ltpFR	2	3	-1	MARS	873	1	3	-1	n/a	n/a	n/a	n/a	n/a
3776.854	n/a	RECOG_RESP	1888427	n/a	LTP192	ltpFR	2	3	-1	MARS	873	1	n/a	-1	n/a	n/a	n/a	n/a	n/a
3777.86	n/a	RECOG_CONF	1888930	n/a	LTP192	ltpFR	2	3	-1	MARS	873	n/a	3	-1	n/a	n/a	n/a	n/a	n/a
3782.142	n/a	REC_START	1891071	n/a	LTP192	ltpFR	2	4	n/a	n/a	n/a	n/a	n/a	n/a	n/a	n/a	n/a	n/a	n/a
3782.178	n/a	RECOG_LURE	1891089	n/a	LTP192	ltpFR	2	4	n/a	CARROT	249	0	4	n/a	n/a	n/a	n/a	n/a	n/a
3783.182	n/a	RECOG_RESP	1891591	n/a	LTP192	ltpFR	2	4	n/a	CARROT	249	0	n/a	n/a	n/a	n/a	n/a	n/a	n/a
3784.036	n/a	RECOG_CONF	1892018	n/a	LTP192	ltpFR	2	4	n/a	CARROT	249	n/a	4	n/a	n/a	n/a	n/a	n/a	n/a
3785.756	n/a	RECOG_LURE	1892878	n/a	LTP192	ltpFR	2	4	n/a	CINNAMON	310	0	5	n/a	n/a	n/a	n/a	n/a	n/a
3786.424	n/a	RECOG_RESP	1893212	n/a	LTP192	ltpFR	2	4	n/a	CINNAMON	310	0	n/a	n/a	n/a	n/a	n/a	n/a	n/a
3787.242	n/a	RECOG_CONF	1893621	n/a	LTP192	ltpFR	2	4	n/a	CINNAMON	310	n/a	5	n/a	n/a	n/a	n/a	n/a	n/a
3788.884	n/a	RECOG_TARGET	1894442	n/a	LTP192	ltpFR	2	4	0	COMMANDER	354	0	3	1	n/a	n/a	n/a	n/a	n/a
3789.924	n/a	RECOG_RESP	1894962	n/a	LTP192	ltpFR	2	4	0	COMMANDER	354	0	n/a	1	n/a	n/a	n/a	n/a	n/a
3790.792	n/a	RECOG_CONF	1895396	n/a	LTP192	ltpFR	2	4	0	COMMANDER	354	n/a	3	1	n/a	n/a	n/a	n/a	n/a
3792.528	n/a	RECOG_LURE	1896264	n/a	LTP192	ltpFR	2	4	n/a	DISHWASHER	475	0	1	n/a	n/a	n/a	n/a	n/a	n/a
3793.4	n/a	RECOG_RESP	1896700	n/a	LTP192	ltpFR	2	4	n/a	DISHWASHER	475	0	n/a	n/a	n/a	n/a	n/a	n/a	n/a
3794.816	n/a	RECOG_CONF	1897408	n/a	LTP192	ltpFR	2	4	n/a	DISHWASHER	475	n/a	1	n/a	n/a	n/a	n/a	n/a	n/a
3796.54	n/a	RECOG_TARGET	1898270	n/a	LTP192	ltpFR	2	4	1	PRINTER	1126	1	5	0	n/a	n/a	n/a	n/a	n/a
3797.338	n/a	RECOG_RESP	1898669	n/a	LTP192	ltpFR	2	4	1	PRINTER	1126	1	n/a	0	n/a	n/a	n/a	n/a	n/a
3798.282	n/a	RECOG_CONF	1899141	n/a	LTP192	ltpFR	2	4	1	PRINTER	1126	n/a	5	0	n/a	n/a	n/a	n/a	n/a
3800.266	n/a	RECOG_LURE	1900133	n/a	LTP192	ltpFR	2	4	n/a	CONVENT	370	0	4	n/a	n/a	n/a	n/a	n/a	n/a
3801.242	n/a	RECOG_RESP	1900621	n/a	LTP192	ltpFR	2	4	n/a	CONVENT	370	0	n/a	n/a	n/a	n/a	n/a	n/a	n/a
3802.132	n/a	RECOG_CONF	1901066	n/a	LTP192	ltpFR	2	4	n/a	CONVENT	370	n/a	4	n/a	n/a	n/a	n/a	n/a	n/a
3804.128	n/a	RECOG_LURE	1902064	n/a	LTP192	ltpFR	2	4	n/a	SLEEVE	1324	0	4	n/a	n/a	n/a	n/a	n/a	n/a
3805.438	n/a	RECOG_RESP	1902719	n/a	LTP192	ltpFR	2	4	n/a	SLEEVE	1324	0	n/a	n/a	n/a	n/a	n/a	n/a	n/a
3806.356	n/a	RECOG_CONF	1903178	n/a	LTP192	ltpFR	2	4	n/a	SLEEVE	1324	n/a	4	n/a	n/a	n/a	n/a	n/a	n/a
3808.038	n/a	RECOG_TARGET	1904019	n/a	LTP192	ltpFR	2	4	1	STOCKING	1383	0	2	0	n/a	n/a	n/a	n/a	n/a
3808.978	n/a	RECOG_RESP	1904489	n/a	LTP192	ltpFR	2	4	1	STOCKING	1383	0	n/a	0	n/a	n/a	n/a	n/a	n/a
3810.146	n/a	RECOG_CONF	1905073	n/a	LTP192	ltpFR	2	4	1	STOCKING	1383	n/a	2	0	n/a	n/a	n/a	n/a	n/a
3811.916	n/a	RECOG_TARGET	1905958	n/a	LTP192	ltpFR	2	4	0	DOG	480	1	4	0	n/a	n/a	n/a	n/a	n/a
3812.502	n/a	RECOG_RESP	1906251	n/a	LTP192	ltpFR	2	4	0	DOG	480	1	n/a	0	n/a	n/a	n/a	n/a	n/a
3813.524	n/a	RECOG_CONF	1906762	n/a	LTP192	ltpFR	2	4	0	DOG	480	n/a	4	0	n/a	n/a	n/a	n/a	n/a
3815.278	n/a	RECOG_TARGET	1907639	n/a	LTP192	ltpFR	2	4	1	OLIVE	975	1	5	0	n/a	n/a	n/a	n/a	n/a
3816.112	n/a	RECOG_RESP	1908056	n/a	LTP192	ltpFR	2	4	1	OLIVE	975	1	n/a	0	n/a	n/a	n/a	n/a	n/a
3817.076	n/a	RECOG_CONF	1908538	n/a	LTP192	ltpFR	2	4	1	OLIVE	975	n/a	5	0	n/a	n/a	n/a	n/a	n/a
3819.156	n/a	RECOG_LURE	1909578	n/a	LTP192	ltpFR	2	4	n/a	ZIPPER	1636	0	3	n/a	n/a	n/a	n/a	n/a	n/a
3820.18	n/a	RECOG_RESP	1910090	n/a	LTP192	ltpFR	2	4	n/a	ZIPPER	1636	0	n/a	n/a	n/a	n/a	n/a	n/a	n/a
3821.198	n/a	RECOG_CONF	1910599	n/a	LTP192	ltpFR	2	4	n/a	ZIPPER	1636	n/a	3	n/a	n/a	n/a	n/a	n/a	n/a
3823.032	n/a	RECOG_LURE	1911516	n/a	LTP192	ltpFR	2	4	n/a	FREEWAY	603	0	4	n/a	n/a	n/a	n/a	n/a	n/a
3823.914	n/a	RECOG_RESP	1911957	n/a	LTP192	ltpFR	2	4	n/a	FREEWAY	603	0	n/a	n/a	n/a	n/a	n/a	n/a	n/a
3824.842	n/a	RECOG_CONF	1912421	n/a	LTP192	ltpFR	2	4	n/a	FREEWAY	603	n/a	4	n/a	n/a	n/a	n/a	n/a	n/a
3826.694	n/a	RECOG_TARGET	1913347	n/a	LTP192	ltpFR	2	4	-1	CHIME	300	1	5	-1	n/a	n/a	n/a	n/a	n/a
3827.33	n/a	RECOG_RESP	1913665	n/a	LTP192	ltpFR	2	4	-1	CHIME	300	1	n/a	-1	n/a	n/a	n/a	n/a	n/a
3828.396	n/a	RECOG_CONF	1914198	n/a	LTP192	ltpFR	2	4	-1	CHIME	300	n/a	5	-1	n/a	n/a	n/a	n/a	n/a
3830.222	n/a	RECOG_LURE	1915111	n/a	LTP192	ltpFR	2	4	n/a	LITERATURE	831	0	5	n/a	n/a	n/a	n/a	n/a	n/a
3830.948	n/a	RECOG_RESP	1915474	n/a	LTP192	ltpFR	2	4	n/a	LITERATURE	831	0	n/a	n/a	n/a	n/a	n/a	n/a	n/a
3831.814	n/a	RECOG_CONF	1915907	n/a	LTP192	ltpFR	2	4	n/a	LITERATURE	831	n/a	5	n/a	n/a	n/a	n/a	n/a	n/a
3833.552	n/a	RECOG_TARGET	1916776	n/a	LTP192	ltpFR	2	4	0	PERMIT	1051	1	1	0	n/a	n/a	n/a	n/a	n/a
3834.476	n/a	RECOG_RESP	1917238	n/a	LTP192	ltpFR	2	4	0	PERMIT	1051	1	n/a	0	n/a	n/a	n/a	n/a	n/a
3835.782	n/a	RECOG_CONF	1917891	n/a	LTP192	ltpFR	2	4	0	PERMIT	1051	n/a	1	0	n/a	n/a	n/a	n/a	n/a
3837.546	n/a	RECOG_TARGET	1918773	n/a	LTP192	ltpFR	2	4	1	WINGS	1614	1	4	0	n/a	n/a	n/a	n/a	n/a
3838.332	n/a	RECOG_RESP	1919166	n/a	LTP192	ltpFR	2	4	1	WINGS	1614	1	n/a	0	n/a	n/a	n/a	n/a	n/a
3839.216	n/a	RECOG_CONF	1919608	n/a	LTP192	ltpFR	2	4	1	WINGS	1614	n/a	4	0	n/a	n/a	n/a	n/a	n/a
3841.192	n/a	RECOG_LURE	1920596	n/a	LTP192	ltpFR	2	4	n/a	LIST	830	0	4	n/a	n/a	n/a	n/a	n/a	n/a
3841.918	n/a	RECOG_RESP	1920959	n/a	LTP192	ltpFR	2	4	n/a	LIST	830	0	n/a	n/a	n/a	n/a	n/a	n/a	n/a
3842.86	n/a	RECOG_CONF	1921430	n/a	LTP192	ltpFR	2	4	n/a	LIST	830	n/a	4	n/a	n/a	n/a	n/a	n/a	n/a
3844.686	n/a	RECOG_TARGET	1922343	n/a	LTP192	ltpFR	2	4	1	ARTICLE	42	1	5	0	n/a	n/a	n/a	n/a	n/a
3845.638	n/a	RECOG_RESP	1922819	n/a	LTP192	ltpFR	2	4	1	ARTICLE	42	1	n/a	0	n/a	n/a	n/a	n/a	n/a
3846.536	n/a	RECOG_CONF	1923268	n/a	LTP192	ltpFR	2	4	1	ARTICLE	42	n/a	5	0	n/a	n/a	n/a	n/a	n/a
3848.446	n/a	RECOG_TARGET	1924223	n/a	LTP192	ltpFR	2	4	0	MASK	876	1	5	0	n/a	n/a	n/a	n/a	n/a
