mstime	trial_type	stim_file	subject	experiment	session	trial	item_name	item_num	list	answer	test_x	test_y	test_z
0	SESS_START	n/a	LTP123	ltpFR2	15	n/a	n/a	n/a	n/a	n/a	0	0	0
12825	START	n/a	LTP123	ltpFR2	15	n/a	n/a	n/a	-1	n/a	n/a	n/a	n/a
12859	PROB	n/a	LTP123	ltpFR2	15	n/a	n/a	n/a	-1	10	7	1	2
14241	PROB	n/a	LTP123	ltpFR2	15	n/a	n/a	n/a	-1	12	4	6	2
15313	PROB	n/a	LTP123	ltpFR2	15	n/a	n/a	n/a	-1	11	6	2	3
17610	PROB	n/a	LTP123	ltpFR2	15	n/a	n/a	n/a	-1	19	8	9	2
19350	PROB	n/a	LTP123	ltpFR2	15	n/a	n/a	n/a	-1	8	2	1	5
21297	PROB	n/a	LTP123	ltpFR2	15	n/a	n/a	n/a	-1	15	9	2	4
22868	PROB	n/a	LTP123	ltpFR2	15	n/a	n/a	n/a	-1	12	1	8	3
24108	STOP	n/a	LTP123	ltpFR2	15	n/a	n/a	n/a	-1	n/a	n/a	n/a	n/a
63880	WORD	wordpools/wasnorm_wordpool_576.txt	LTP123	ltpFR2	15	1	TREAT	1501	n/a	n/a	0	0	0
66703	WORD	wordpools/wasnorm_wordpool_576.txt	LTP123	ltpFR2	15	1	TART	1436	n/a	n/a	0	0	0
69171	WORD	wordpools/wasnorm_wordpool_576.txt	LTP123	ltpFR2	15	1	CRAB	397	n/a	n/a	0	0	0
71723	WORD	wordpools/wasnorm_wordpool_576.txt	LTP123	ltpFR2	15	1	BROTHER	179	n/a	n/a	0	0	0
74293	WORD	wordpools/wasnorm_wordpool_576.txt	LTP123	ltpFR2	15	1	KITCHEN	778	n/a	n/a	0	0	0
76960	WORD	wordpools/wasnorm_wordpool_576.txt	LTP123	ltpFR2	15	1	RABBIT	1152	n/a	n/a	0	0	0
79729	WORD	wordpools/wasnorm_wordpool_576.txt	LTP123	ltpFR2	15	1	GANGSTER	620	n/a	n/a	0	0	0
82181	WORD	wordpools/wasnorm_wordpool_576.txt	LTP123	ltpFR2	15	1	ICING	732	n/a	n/a	0	0	0
84850	WORD	wordpools/wasnorm_wordpool_576.txt	LTP123	ltpFR2	15	1	BUNNY	198	n/a	n/a	0	0	0
87568	WORD	wordpools/wasnorm_wordpool_576.txt	LTP123	ltpFR2	15	1	OX	994	n/a	n/a	0	0	0
90088	WORD	wordpools/wasnorm_wordpool_576.txt	LTP123	ltpFR2	15	1	LIVER	833	n/a	n/a	0	0	0
92907	WORD	wordpools/wasnorm_wordpool_576.txt	LTP123	ltpFR2	15	1	NOVEL	960	n/a	n/a	0	0	0
95475	WORD	wordpools/wasnorm_wordpool_576.txt	LTP123	ltpFR2	15	1	PISTOL	1075	n/a	n/a	0	0	0
97944	WORD	wordpools/wasnorm_wordpool_576.txt	LTP123	ltpFR2	15	1	CUSTARD	429	n/a	n/a	0	0	0
100463	WORD	wordpools/wasnorm_wordpool_576.txt	LTP123	ltpFR2	15	1	KEEPER	769	n/a	n/a	0	0	0
103198	WORD	wordpools/wasnorm_wordpool_576.txt	LTP123	ltpFR2	15	1	APPLE	33	n/a	n/a	0	0	0
105784	WORD	wordpools/wasnorm_wordpool_576.txt	LTP123	ltpFR2	15	1	GAZELLE	628	n/a	n/a	0	0	0
108569	WORD	wordpools/wasnorm_wordpool_576.txt	LTP123	ltpFR2	15	1	FRANCE	601	n/a	n/a	0	0	0
111205	WORD	wordpools/wasnorm_wordpool_576.txt	LTP123	ltpFR2	15	1	DOLPHIN	483	n/a	n/a	0	0	0
113706	WORD	wordpools/wasnorm_wordpool_576.txt	LTP123	ltpFR2	15	1	WOMAN	1620	n/a	n/a	0	0	0
116192	WORD	wordpools/wasnorm_wordpool_576.txt	LTP123	ltpFR2	15	1	SPIDER	1351	n/a	n/a	0	0	0
118894	WORD	wordpools/wasnorm_wordpool_576.txt	LTP123	ltpFR2	15	1	BISON	131	n/a	n/a	0	0	0
121596	WORD	wordpools/wasnorm_wordpool_576.txt	LTP123	ltpFR2	15	1	BEAST	108	n/a	n/a	0	0	0
124082	WORD	wordpools/wasnorm_wordpool_576.txt	LTP123	ltpFR2	15	1	MOTOR	922	n/a	n/a	0	0	0
125700	START	n/a	LTP123	ltpFR2	15	n/a	n/a	n/a	1	n/a	n/a	n/a	n/a
126704	DISTRACTOR	n/a	LTP123	ltpFR2	15	1	n/a	n/a	n/a	n/a	0	0	0
126717	PROB	n/a	LTP123	ltpFR2	15	n/a	n/a	n/a	1	1	5	3	5
128669	PROB	n/a	LTP123	ltpFR2	15	n/a	n/a	n/a	1	17	8	5	4
131368	PROB	n/a	LTP123	ltpFR2	15	n/a	n/a	n/a	1	16	8	2	6
132639	PROB	n/a	LTP123	ltpFR2	15	n/a	n/a	n/a	1	17	4	9	4
134775	PROB	n/a	LTP123	ltpFR2	15	n/a	n/a	n/a	1	16	6	5	5
136092	PROB	n/a	LTP123	ltpFR2	15	n/a	n/a	n/a	1	18	9	8	1
137323	PROB	n/a	LTP123	ltpFR2	15	n/a	n/a	n/a	1	18	1	9	8
138392	PROB	n/a	LTP123	ltpFR2	15	n/a	n/a	n/a	1	9	5	2	2
142294	PROB	n/a	LTP123	ltpFR2	15	n/a	n/a	n/a	1	15	6	4	5
143610	PROB	n/a	LTP123	ltpFR2	15	n/a	n/a	n/a	1	9	4	4	1
145079	PROB	n/a	LTP123	ltpFR2	15	n/a	n/a	n/a	1	10	1	5	4
146335	PROB	n/a	LTP123	ltpFR2	15	n/a	n/a	n/a	1	12	4	1	7
149700	STOP	n/a	LTP123	ltpFR2	15	n/a	n/a	n/a	1	n/a	n/a	n/a	n/a
151571	REC_START	n/a	LTP123	ltpFR2	15	1	n/a	n/a	n/a	n/a	0	0	0
152588	REC_WORD	wordpools/wasnorm_wordpool_576.txt	LTP123	ltpFR2	15	1	MOTOR	922	n/a	n/a	0	0	0
153542	REC_WORD	wordpools/wasnorm_wordpool_576.txt	LTP123	ltpFR2	15	1	KITCHEN	778	n/a	n/a	0	0	0
156430	REC_WORD	wordpools/wasnorm_wordpool_576.txt	LTP123	ltpFR2	15	1	BISON	131	n/a	n/a	0	0	0
157172	REC_WORD	wordpools/wasnorm_wordpool_576.txt	LTP123	ltpFR2	15	1	GAZELLE	628	n/a	n/a	0	0	0
157998	REC_WORD	wordpools/wasnorm_wordpool_576.txt	LTP123	ltpFR2	15	1	OX	994	n/a	n/a	0	0	0
158625	REC_WORD	wordpools/wasnorm_wordpool_576.txt	LTP123	ltpFR2	15	1	RABBIT	1152	n/a	n/a	0	0	0
159266	REC_WORD	wordpools/wasnorm_wordpool_576.txt	LTP123	ltpFR2	15	1	BUNNY	198	n/a	n/a	0	0	0
161006	REC_WORD	wordpools/wasnorm_wordpool_576.txt	LTP123	ltpFR2	15	1	SPIDER	1351	n/a	n/a	0	0	0
163778	REC_WORD	wordpools/wasnorm_wordpool_576.txt	LTP123	ltpFR2	15	1	TREAT	1501	n/a	n/a	0	0	0
164300	REC_WORD	wordpools/wasnorm_wordpool_576.txt	LTP123	ltpFR2	15	1	ICING	732	n/a	n/a	0	0	0
164918	REC_WORD	wordpools/wasnorm_wordpool_576.txt	LTP123	ltpFR2	15	1	TART	1436	n/a	n/a	0	0	0
165545	REC_WORD	wordpools/wasnorm_wordpool_576.txt	LTP123	ltpFR2	15	1	CUSTARD	429	n/a	n/a	0	0	0
166445	REC_WORD	wordpools/wasnorm_wordpool_576.txt	LTP123	ltpFR2	15	1	APPLE	33	n/a	n/a	0	0	0
170294	REC_WORD	wordpools/wasnorm_wordpool_576.txt	LTP123	ltpFR2	15	1	GANGSTER	620	n/a	n/a	0	0	0
171112	REC_WORD	wordpools/wasnorm_wordpool_576.txt	LTP123	ltpFR2	15	1	BROTHER	179	n/a	n/a	0	0	0
171759	REC_WORD	wordpools/wasnorm_wordpool_576.txt	LTP123	ltpFR2	15	1	KEEPER	769	n/a	n/a	0	0	0
172386	REC_WORD	wordpools/wasnorm_wordpool_576.txt	LTP123	ltpFR2	15	1	WOMAN	1620	n/a	n/a	0	0	0
173691	REC_WORD	wordpools/wasnorm_wordpool_576.txt	LTP123	ltpFR2	15	1	EUROPE	541	n/a	n/a	0	0	0
185461	REC_WORD	wordpools/wasnorm_wordpool_576.txt	LTP123	ltpFR2	15	1	NOVEL	960	n/a	n/a	0	0	0
190657	REC_WORD	wordpools/wasnorm_wordpool_576.txt	LTP123	ltpFR2	15	1	LIVER	833	n/a	n/a	0	0	0
200381	REC_WORD	wordpools/wasnorm_wordpool_576.txt	LTP123	ltpFR2	15	1	BEAST	108	n/a	n/a	0	0	0
201709	REC_WORD	wordpools/wasnorm_wordpool_576.txt	LTP123	ltpFR2	15	1	DOLPHIN	483	n/a	n/a	0	0	0
212483	REC_WORD	wordpools/wasnorm_wordpool_576.txt	LTP123	ltpFR2	15	1	KITCHEN	778	n/a	n/a	0	0	0
242027	DISTRACTOR	n/a	LTP123	ltpFR2	15	2	n/a	n/a	n/a	n/a	0	0	0
242027	START	n/a	LTP123	ltpFR2	15	n/a	n/a	n/a	2	n/a	n/a	n/a	n/a
242040	PROB	n/a	LTP123	ltpFR2	15	n/a	n/a	n/a	2	22	9	8	5
244978	PROB	n/a	LTP123	ltpFR2	15	n/a	n/a	n/a	2	17	5	8	4
246693	PROB	n/a	LTP123	ltpFR2	15	n/a	n/a	n/a	2	22	5	9	8
248877	PROB	n/a	LTP123	ltpFR2	15	n/a	n/a	n/a	2	21	9	5	7
254116	PROB	n/a	LTP123	ltpFR2	15	n/a	n/a	n/a	2	9	5	2	2
255724	PROB	n/a	LTP123	ltpFR2	15	n/a	n/a	n/a	2	13	3	6	4
256905	PROB	n/a	LTP123	ltpFR2	15	n/a	n/a	n/a	2	8	6	1	1
257951	PROB	n/a	LTP123	ltpFR2	15	n/a	n/a	n/a	2	9	1	7	1
259035	PROB	n/a	LTP123	ltpFR2	15	n/a	n/a	n/a	2	8	4	3	1
260520	PROB	n/a	LTP123	ltpFR2	15	n/a	n/a	n/a	2	15	9	1	5
262074	PROB	n/a	LTP123	ltpFR2	15	n/a	n/a	n/a	2	11	1	1	9
263123	PROB	n/a	LTP123	ltpFR2	15	n/a	n/a	n/a	2	11	5	3	3
264756	STOP	n/a	LTP123	ltpFR2	15	n/a	n/a	n/a	2	n/a	n/a	n/a	n/a
267230	WORD	wordpools/wasnorm_wordpool_576.txt	LTP123	ltpFR2	15	2	CHAMPAGNE	278	n/a	n/a	0	0	0
269848	WORD	wordpools/wasnorm_wordpool_576.txt	LTP123	ltpFR2	15	2	ATLAS	53	n/a	n/a	0	0	0
272533	WORD	wordpools/wasnorm_wordpool_576.txt	LTP123	ltpFR2	15	2	PERFUME	1049	n/a	n/a	0	0	0
275270	WORD	wordpools/wasnorm_wordpool_576.txt	LTP123	ltpFR2	15	2	MONEY	908	n/a	n/a	0	0	0
277837	WORD	wordpools/wasnorm_wordpool_576.txt	LTP123	ltpFR2	15	2	RECEIPT	1173	n/a	n/a	0	0	0
280357	WORD	wordpools/wasnorm_wordpool_576.txt	LTP123	ltpFR2	15	2	SHRUB	1299	n/a	n/a	0	0	0
282842	WORD	wordpools/wasnorm_wordpool_576.txt	LTP123	ltpFR2	15	2	BUREAU	199	n/a	n/a	0	0	0
285494	WORD	wordpools/wasnorm_wordpool_576.txt	LTP123	ltpFR2	15	2	DRESS	495	n/a	n/a	0	0	0
288264	WORD	wordpools/wasnorm_wordpool_576.txt	LTP123	ltpFR2	15	2	SNACK	1331	n/a	n/a	0	0	0
291082	WORD	wordpools/wasnorm_wordpool_576.txt	LTP123	ltpFR2	15	2	PAIL	1002	n/a	n/a	0	0	0
293534	WORD	wordpools/wasnorm_wordpool_576.txt	LTP123	ltpFR2	15	2	MILDEW	893	n/a	n/a	0	0	0
295985	WORD	wordpools/wasnorm_wordpool_576.txt	LTP123	ltpFR2	15	2	TUNNEL	1519	n/a	n/a	0	0	0
298504	WORD	wordpools/wasnorm_wordpool_576.txt	LTP123	ltpFR2	15	2	PARTNER	1017	n/a	n/a	0	0	0
301123	WORD	wordpools/wasnorm_wordpool_576.txt	LTP123	ltpFR2	15	2	LACE	792	n/a	n/a	0	0	0
303658	WORD	wordpools/wasnorm_wordpool_576.txt	LTP123	ltpFR2	15	2	CASKET	255	n/a	n/a	0	0	0
306311	WORD	wordpools/wasnorm_wordpool_576.txt	LTP123	ltpFR2	15	2	POSSUM	1112	n/a	n/a	0	0	0
308763	WORD	wordpools/wasnorm_wordpool_576.txt	LTP123	ltpFR2	15	2	COURSE	390	n/a	n/a	0	0	0
311231	WORD	wordpools/wasnorm_wordpool_576.txt	LTP123	ltpFR2	15	2	JUDGE	761	n/a	n/a	0	0	0
314016	WORD	wordpools/wasnorm_wordpool_576.txt	LTP123	ltpFR2	15	2	GLOVE	642	n/a	n/a	0	0	0
316852	WORD	wordpools/wasnorm_wordpool_576.txt	LTP123	ltpFR2	15	2	PREACHER	1119	n/a	n/a	0	0	0
319521	WORD	wordpools/wasnorm_wordpool_576.txt	LTP123	ltpFR2	15	2	EMPIRE	530	n/a	n/a	0	0	0
322123	WORD	wordpools/wasnorm_wordpool_576.txt	LTP123	ltpFR2	15	2	WAITER	1580	n/a	n/a	0	0	0
324592	WORD	wordpools/wasnorm_wordpool_576.txt	LTP123	ltpFR2	15	2	SCARF	1246	n/a	n/a	0	0	0
327077	WORD	wordpools/wasnorm_wordpool_576.txt	LTP123	ltpFR2	15	2	ICEBERG	731	n/a	n/a	0	0	0
328695	START	n/a	LTP123	ltpFR2	15	n/a	n/a	n/a	3	n/a	n/a	n/a	n/a
329832	DISTRACTOR	n/a	LTP123	ltpFR2	15	2	n/a	n/a	n/a	n/a	0	0	0
329845	PROB	n/a	LTP123	ltpFR2	15	n/a	n/a	n/a	3	19	4	6	9
331328	PROB	n/a	LTP123	ltpFR2	15	n/a	n/a	n/a	3	7	5	1	1
332649	PROB	n/a	LTP123	ltpFR2	15	n/a	n/a	n/a	3	19	5	6	8
334029	PROB	n/a	LTP123	ltpFR2	15	n/a	n/a	n/a	3	12	4	7	1
335369	PROB	n/a	LTP123	ltpFR2	15	n/a	n/a	n/a	3	15	5	1	9
336714	PROB	n/a	LTP123	ltpFR2	15	n/a	n/a	n/a	3	12	1	2	9
337933	PROB	n/a	LTP123	ltpFR2	15	n/a	n/a	n/a	3	24	8	8	8
339401	PROB	n/a	LTP123	ltpFR2	15	n/a	n/a	n/a	3	17	5	9	3
341769	PROB	n/a	LTP123	ltpFR2	15	n/a	n/a	n/a	3	19	8	6	5
343454	PROB	n/a	LTP123	ltpFR2	15	n/a	n/a	n/a	3	7	1	3	3
345239	PROB	n/a	LTP123	ltpFR2	15	n/a	n/a	n/a	3	11	8	2	1
346572	PROB	n/a	LTP123	ltpFR2	15	n/a	n/a	n/a	3	9	7	1	1
347711	PROB	n/a	LTP123	ltpFR2	15	n/a	n/a	n/a	3	18	2	8	8
349162	PROB	n/a	LTP123	ltpFR2	15	n/a	n/a	n/a	3	13	5	2	6
352695	STOP	n/a	LTP123	ltpFR2	15	n/a	n/a	n/a	3	n/a	n/a	n/a	n/a
354601	REC_START	n/a	LTP123	ltpFR2	15	2	n/a	n/a	n/a	n/a	0	0	0
355042	REC_WORD	wordpools/wasnorm_wordpool_576.txt	LTP123	ltpFR2	15	2	ICEBERG	731	n/a	n/a	0	0	0
356482	REC_WORD	wordpools/wasnorm_wordpool_576.txt	LTP123	ltpFR2	15	2	JUDGE	761	n/a	n/a	0	0	0
357885	REC_WORD	wordpools/wasnorm_wordpool_576.txt	LTP123	ltpFR2	15	2	WAITER	1580	n/a	n/a	0	0	0
359305	REC_WORD	wordpools/wasnorm_wordpool_576.txt	LTP123	ltpFR2	15	2	SCARF	1246	n/a	n/a	0	0	0
361854	REC_WORD_VV	wordpools/wasnorm_wordpool_576.txt	LTP123	ltpFR2	15	2	<>	-1	n/a	n/a	0	0	0
362772	REC_WORD	wordpools/wasnorm_wordpool_576.txt	LTP123	ltpFR2	15	2	FRANCE	601	n/a	n/a	0	0	0
364868	REC_WORD	wordpools/wasnorm_wordpool_576.txt	LTP123	ltpFR2	15	2	PERFUME	1049	n/a	n/a	0	0	0
366877	REC_WORD	wordpools/wasnorm_wordpool_576.txt	LTP123	ltpFR2	15	2	CHAMPAGNE	278	n/a	n/a	0	0	0
368829	REC_WORD	wordpools/wasnorm_wordpool_576.txt	LTP123	ltpFR2	15	2	MONEY	908	n/a	n/a	0	0	0
369326	REC_WORD	wordpools/wasnorm_wordpool_576.txt	LTP123	ltpFR2	15	2	RECEIPT	1173	n/a	n/a	0	0	0
370326	REC_WORD_VV	wordpools/wasnorm_wordpool_576.txt	LTP123	ltpFR2	15	2	<>	-1	n/a	n/a	0	0	0
378282	REC_WORD	wordpools/wasnorm_wordpool_576.txt	LTP123	ltpFR2	15	2	POSSUM	1112	n/a	n/a	0	0	0
397144	REC_WORD	wordpools/wasnorm_wordpool_576.txt	LTP123	ltpFR2	15	2	GLOVE	642	n/a	n/a	0	0	0
403665	REC_WORD	wordpools/wasnorm_wordpool_576.txt	LTP123	ltpFR2	15	2	ATLAS	53	n/a	n/a	0	0	0
417434	REC_WORD	wordpools/wasnorm_wordpool_576.txt	LTP123	ltpFR2	15	2	SNACK	1331	n/a	n/a	0	0	0
427422	REC_WORD	wordpools/wasnorm_wordpool_576.txt	LTP123	ltpFR2	15	2	BUREAU	199	n/a	n/a	0	0	0
445055	DISTRACTOR	n/a	LTP123	ltpFR2	15	3	n/a	n/a	n/a	n/a	0	0	0
445055	START	n/a	LTP123	ltpFR2	15	n/a	n/a	n/a	4	n/a	n/a	n/a	n/a
445072	PROB	n/a	LTP123	ltpFR2	15	n/a	n/a	n/a	4	13	6	1	6
446810	PROB	n/a	LTP123	ltpFR2	15	n/a	n/a	n/a	4	15	1	9	5
448174	PROB	n/a	LTP123	ltpFR2	15	n/a	n/a	n/a	4	17	6	3	8
449892	PROB	n/a	LTP123	ltpFR2	15	n/a	n/a	n/a	4	20	7	7	6
451689	PROB	n/a	LTP123	ltpFR2	15	n/a	n/a	n/a	4	11	4	4	3
453562	PROB	n/a	LTP123	ltpFR2	15	n/a	n/a	n/a	4	12	3	7	2
454775	PROB	n/a	LTP123	ltpFR2	15	n/a	n/a	n/a	4	8	2	4	2
456818	PROB	n/a	LTP123	ltpFR2	15	n/a	n/a	n/a	4	26	9	9	8
458933	PROB	n/a	LTP123	ltpFR2	15	n/a	n/a	n/a	4	21	5	8	8
460968	PROB	n/a	LTP123	ltpFR2	15	n/a	n/a	n/a	4	18	1	9	8
462151	PROB	n/a	LTP123	ltpFR2	15	n/a	n/a	n/a	4	11	4	6	1
463284	PROB	n/a	LTP123	ltpFR2	15	n/a	n/a	n/a	4	13	1	9	3
464438	PROB	n/a	LTP123	ltpFR2	15	n/a	n/a	n/a	4	16	3	6	7
466806	PROB	n/a	LTP123	ltpFR2	15	n/a	n/a	n/a	4	17	3	9	5
468716	STOP	n/a	LTP123	ltpFR2	15	n/a	n/a	n/a	4	n/a	n/a	n/a	n/a
470041	WORD	wordpools/wasnorm_wordpool_576.txt	LTP123	ltpFR2	15	3	DRAGON	492	n/a	n/a	0	0	0
472493	WORD	wordpools/wasnorm_wordpool_576.txt	LTP123	ltpFR2	15	3	LODGE	839	n/a	n/a	0	0	0
475230	WORD	wordpools/wasnorm_wordpool_576.txt	LTP123	ltpFR2	15	3	CHAUFFEUR	283	n/a	n/a	0	0	0
477980	WORD	wordpools/wasnorm_wordpool_576.txt	LTP123	ltpFR2	15	3	PIZZA	1079	n/a	n/a	0	0	0
480649	WORD	wordpools/wasnorm_wordpool_576.txt	LTP123	ltpFR2	15	3	SHORTS	1293	n/a	n/a	0	0	0
483419	WORD	wordpools/wasnorm_wordpool_576.txt	LTP123	ltpFR2	15	3	COUCH	386	n/a	n/a	0	0	0
485970	WORD	wordpools/wasnorm_wordpool_576.txt	LTP123	ltpFR2	15	3	CHIPMUNK	304	n/a	n/a	0	0	0
488589	WORD	wordpools/wasnorm_wordpool_576.txt	LTP123	ltpFR2	15	3	COIN	343	n/a	n/a	0	0	0
491410	WORD	wordpools/wasnorm_wordpool_576.txt	LTP123	ltpFR2	15	3	BANKER	84	n/a	n/a	0	0	0
493876	WORD	wordpools/wasnorm_wordpool_576.txt	LTP123	ltpFR2	15	3	SEAFOOD	1260	n/a	n/a	0	0	0
496596	WORD	wordpools/wasnorm_wordpool_576.txt	LTP123	ltpFR2	15	3	TURNIP	1521	n/a	n/a	0	0	0
499164	WORD	wordpools/wasnorm_wordpool_576.txt	LTP123	ltpFR2	15	3	FUNGUS	614	n/a	n/a	0	0	0
501733	WORD	wordpools/wasnorm_wordpool_576.txt	LTP123	ltpFR2	15	3	CASHEW	253	n/a	n/a	0	0	0
504201	WORD	wordpools/wasnorm_wordpool_576.txt	LTP123	ltpFR2	15	3	SEAL	1262	n/a	n/a	0	0	0
506803	WORD	wordpools/wasnorm_wordpool_576.txt	LTP123	ltpFR2	15	3	AIRPLANE	12	n/a	n/a	0	0	0
509589	WORD	wordpools/wasnorm_wordpool_576.txt	LTP123	ltpFR2	15	3	WRENCH	1625	n/a	n/a	0	0	0
512125	WORD	wordpools/wasnorm_wordpool_576.txt	LTP123	ltpFR2	15	3	CABBAGE	210	n/a	n/a	0	0	0
514927	WORD	wordpools/wasnorm_wordpool_576.txt	LTP123	ltpFR2	15	3	PROTON	1132	n/a	n/a	0	0	0
517380	WORD	wordpools/wasnorm_wordpool_576.txt	LTP123	ltpFR2	15	3	VELVET	1555	n/a	n/a	0	0	0
520014	WORD	wordpools/wasnorm_wordpool_576.txt	LTP123	ltpFR2	15	3	JUNGLE	764	n/a	n/a	0	0	0
522716	WORD	wordpools/wasnorm_wordpool_576.txt	LTP123	ltpFR2	15	3	DAUGHTER	442	n/a	n/a	0	0	0
525369	WORD	wordpools/wasnorm_wordpool_576.txt	LTP123	ltpFR2	15	3	GALLON	618	n/a	n/a	0	0	0
528037	WORD	wordpools/wasnorm_wordpool_576.txt	LTP123	ltpFR2	15	3	SCALLOP	1242	n/a	n/a	0	0	0
530623	WORD	wordpools/wasnorm_wordpool_576.txt	LTP123	ltpFR2	15	3	BABY	64	n/a	n/a	0	0	0
532242	START	n/a	LTP123	ltpFR2	15	n/a	n/a	n/a	5	n/a	n/a	n/a	n/a
533246	DISTRACTOR	n/a	LTP123	ltpFR2	15	3	n/a	n/a	n/a	n/a	0	0	0
533259	PROB	n/a	LTP123	ltpFR2	15	n/a	n/a	n/a	5	13	5	7	1
537859	PROB	n/a	LTP123	ltpFR2	15	n/a	n/a	n/a	5	16	1	8	7
539377	PROB	n/a	LTP123	ltpFR2	15	n/a	n/a	n/a	5	11	5	1	5
540494	PROB	n/a	LTP123	ltpFR2	15	n/a	n/a	n/a	5	7	3	1	3
541983	PROB	n/a	LTP123	ltpFR2	15	n/a	n/a	n/a	5	19	8	4	7
543867	PROB	n/a	LTP123	ltpFR2	15	n/a	n/a	n/a	5	12	2	3	7
545552	PROB	n/a	LTP123	ltpFR2	15	n/a	n/a	n/a	5	17	8	2	7
547015	PROB	n/a	LTP123	ltpFR2	15	n/a	n/a	n/a	5	18	2	9	7
548784	PROB	n/a	LTP123	ltpFR2	15	n/a	n/a	n/a	5	13	4	6	3
550039	PROB	n/a	LTP123	ltpFR2	15	n/a	n/a	n/a	5	5	2	2	1
551169	PROB	n/a	LTP123	ltpFR2	15	n/a	n/a	n/a	5	16	9	2	5
552737	PROB	n/a	LTP123	ltpFR2	15	n/a	n/a	n/a	5	10	5	1	4
554239	PROB	n/a	LTP123	ltpFR2	15	n/a	n/a	n/a	5	20	7	7	6
555799	STOP	n/a	LTP123	ltpFR2	15	n/a	n/a	n/a	5	n/a	n/a	n/a	n/a
558012	REC_START	n/a	LTP123	ltpFR2	15	3	n/a	n/a	n/a	n/a	0	0	0
558429	REC_WORD	wordpools/wasnorm_wordpool_576.txt	LTP123	ltpFR2	15	3	GALLON	618	n/a	n/a	0	0	0
558989	REC_WORD	wordpools/wasnorm_wordpool_576.txt	LTP123	ltpFR2	15	3	BABY	64	n/a	n/a	0	0	0
559518	REC_WORD	wordpools/wasnorm_wordpool_576.txt	LTP123	ltpFR2	15	3	DAUGHTER	442	n/a	n/a	0	0	0
562339	REC_WORD	wordpools/wasnorm_wordpool_576.txt	LTP123	ltpFR2	15	3	PIZZA	1079	n/a	n/a	0	0	0
563274	REC_WORD	wordpools/wasnorm_wordpool_576.txt	LTP123	ltpFR2	15	3	SCALLOP	1242	n/a	n/a	0	0	0
564089	REC_WORD	wordpools/wasnorm_wordpool_576.txt	LTP123	ltpFR2	15	3	SEAFOOD	1260	n/a	n/a	0	0	0
565200	REC_WORD	wordpools/wasnorm_wordpool_576.txt	LTP123	ltpFR2	15	3	TURNIP	1521	n/a	n/a	0	0	0
567560	REC_WORD	wordpools/wasnorm_wordpool_576.txt	LTP123	ltpFR2	15	3	LODGE	839	n/a	n/a	0	0	0
575616	REC_WORD	wordpools/wasnorm_wordpool_576.txt	LTP123	ltpFR2	15	3	CHIPMUNK	304	n/a	n/a	0	0	0
576848	REC_WORD	wordpools/wasnorm_wordpool_576.txt	LTP123	ltpFR2	15	3	DRAGON	492	n/a	n/a	0	0	0
577862	REC_WORD	wordpools/wasnorm_wordpool_576.txt	LTP123	ltpFR2	15	3	SEAL	1262	n/a	n/a	0	0	0
586747	REC_WORD	wordpools/wasnorm_wordpool_576.txt	LTP123	ltpFR2	15	3	SHORTS	1293	n/a	n/a	0	0	0
589372	REC_WORD	wordpools/wasnorm_wordpool_576.txt	LTP123	ltpFR2	15	3	LACE	792	n/a	n/a	0	0	0
592139	REC_WORD	wordpools/wasnorm_wordpool_576.txt	LTP123	ltpFR2	15	3	VELVET	1555	n/a	n/a	0	0	0
599959	REC_WORD	wordpools/wasnorm_wordpool_576.txt	LTP123	ltpFR2	15	3	JUNGLE	764	n/a	n/a	0	0	0
648485	WORD	wordpools/wasnorm_wordpool_576.txt	LTP123	ltpFR2	15	4	THRONE	1461	n/a	n/a	0	0	0
651286	WORD	wordpools/wasnorm_wordpool_576.txt	LTP123	ltpFR2	15	4	PEPPER	1047	n/a	n/a	0	0	0
653721	WORD	wordpools/wasnorm_wordpool_576.txt	LTP123	ltpFR2	15	4	POLICE	1098	n/a	n/a	0	0	0
656307	WORD	wordpools/wasnorm_wordpool_576.txt	LTP123	ltpFR2	15	4	ANTLER	29	n/a	n/a	0	0	0
658958	WORD	wordpools/wasnorm_wordpool_576.txt	LTP123	ltpFR2	15	4	PEANUT	1032	n/a	n/a	0	0	0
661760	WORD	wordpools/wasnorm_wordpool_576.txt	LTP123	ltpFR2	15	4	AGENT	10	n/a	n/a	0	0	0
664315	WORD	wordpools/wasnorm_wordpool_576.txt	LTP123	ltpFR2	15	4	MUFFIN	929	n/a	n/a	0	0	0
666748	WORD	wordpools/wasnorm_wordpool_576.txt	LTP123	ltpFR2	15	4	BULLET	194	n/a	n/a	0	0	0
669183	WORD	wordpools/wasnorm_wordpool_576.txt	LTP123	ltpFR2	15	4	REBEL	1172	n/a	n/a	0	0	0
671685	WORD	wordpools/wasnorm_wordpool_576.txt	LTP123	ltpFR2	15	4	GRAVE	658	n/a	n/a	0	0	0
674288	WORD	wordpools/wasnorm_wordpool_576.txt	LTP123	ltpFR2	15	4	MUMMY	932	n/a	n/a	0	0	0
677090	WORD	wordpools/wasnorm_wordpool_576.txt	LTP123	ltpFR2	15	4	STOMACH	1384	n/a	n/a	0	0	0
679608	WORD	wordpools/wasnorm_wordpool_576.txt	LTP123	ltpFR2	15	4	POSTAGE	1113	n/a	n/a	0	0	0
682328	WORD	wordpools/wasnorm_wordpool_576.txt	LTP123	ltpFR2	15	4	PACKAGE	997	n/a	n/a	0	0	0
684979	WORD	wordpools/wasnorm_wordpool_576.txt	LTP123	ltpFR2	15	4	KNIFE	785	n/a	n/a	0	0	0
687564	WORD	wordpools/wasnorm_wordpool_576.txt	LTP123	ltpFR2	15	4	BATHTUB	100	n/a	n/a	0	0	0
690235	WORD	wordpools/wasnorm_wordpool_576.txt	LTP123	ltpFR2	15	4	SPONGE	1355	n/a	n/a	0	0	0
692751	WORD	wordpools/wasnorm_wordpool_576.txt	LTP123	ltpFR2	15	4	KNAPSACK	783	n/a	n/a	0	0	0
695288	WORD	wordpools/wasnorm_wordpool_576.txt	LTP123	ltpFR2	15	4	PECAN	1036	n/a	n/a	0	0	0
698058	WORD	wordpools/wasnorm_wordpool_576.txt	LTP123	ltpFR2	15	4	BOX	159	n/a	n/a	0	0	0
700708	WORD	wordpools/wasnorm_wordpool_576.txt	LTP123	ltpFR2	15	4	BARREL	91	n/a	n/a	0	0	0
703194	WORD	wordpools/wasnorm_wordpool_576.txt	LTP123	ltpFR2	15	4	MATTRESS	879	n/a	n/a	0	0	0
705995	WORD	wordpools/wasnorm_wordpool_576.txt	LTP123	ltpFR2	15	4	GRAPE	654	n/a	n/a	0	0	0
708648	WORD	wordpools/wasnorm_wordpool_576.txt	LTP123	ltpFR2	15	4	WIFE	1609	n/a	n/a	0	0	0
710268	START	n/a	LTP123	ltpFR2	15	n/a	n/a	n/a	6	n/a	n/a	n/a	n/a
711425	DISTRACTOR	n/a	LTP123	ltpFR2	15	4	n/a	n/a	n/a	n/a	0	0	0
711434	PROB	n/a	LTP123	ltpFR2	15	n/a	n/a	n/a	6	20	6	9	5
713633	PROB	n/a	LTP123	ltpFR2	15	n/a	n/a	n/a	6	12	3	1	8
715855	PROB	n/a	LTP123	ltpFR2	15	n/a	n/a	n/a	6	18	2	7	9
717303	PROB	n/a	LTP123	ltpFR2	15	n/a	n/a	n/a	6	9	2	5	2
718903	PROB	n/a	LTP123	ltpFR2	15	n/a	n/a	n/a	6	17	4	7	6
720441	PROB	n/a	LTP123	ltpFR2	15	n/a	n/a	n/a	6	21	9	7	5
722357	PROB	n/a	LTP123	ltpFR2	15	n/a	n/a	n/a	6	10	2	1	7
723928	PROB	n/a	LTP123	ltpFR2	15	n/a	n/a	n/a	6	19	7	4	8
725642	PROB	n/a	LTP123	ltpFR2	15	n/a	n/a	n/a	6	25	7	9	9
727681	PROB	n/a	LTP123	ltpFR2	15	n/a	n/a	n/a	6	14	6	4	4
728845	PROB	n/a	LTP123	ltpFR2	15	n/a	n/a	n/a	6	26	9	9	8
730800	PROB	n/a	LTP123	ltpFR2	15	n/a	n/a	n/a	6	14	7	4	3
733246	STOP	n/a	LTP123	ltpFR2	15	n/a	n/a	n/a	6	n/a	n/a	n/a	n/a
736122	REC_START	n/a	LTP123	ltpFR2	15	4	n/a	n/a	n/a	n/a	0	0	0
739788	REC_WORD	wordpools/wasnorm_wordpool_576.txt	LTP123	ltpFR2	15	4	BULLET	194	n/a	n/a	0	0	0
741337	REC_WORD	wordpools/wasnorm_wordpool_576.txt	LTP123	ltpFR2	15	4	BARREL	91	n/a	n/a	0	0	0
742632	REC_WORD	wordpools/wasnorm_wordpool_576.txt	LTP123	ltpFR2	15	4	POSTAGE	1113	n/a	n/a	0	0	0
743229	REC_WORD	wordpools/wasnorm_wordpool_576.txt	LTP123	ltpFR2	15	4	PACKAGE	997	n/a	n/a	0	0	0
743958	REC_WORD	wordpools/wasnorm_wordpool_576.txt	LTP123	ltpFR2	15	4	BOX	159	n/a	n/a	0	0	0
744799	REC_WORD	wordpools/wasnorm_wordpool_576.txt	LTP123	ltpFR2	15	4	BATHTUB	100	n/a	n/a	0	0	0
745799	REC_WORD_VV	wordpools/wasnorm_wordpool_576.txt	LTP123	ltpFR2	15	4	<>	-1	n/a	n/a	0	0	0
745977	REC_WORD	wordpools/wasnorm_wordpool_576.txt	LTP123	ltpFR2	15	4	SPONGE	1355	n/a	n/a	0	0	0
750476	REC_WORD	wordpools/wasnorm_wordpool_576.txt	LTP123	ltpFR2	15	4	STOMACH	1384	n/a	n/a	0	0	0
753943	REC_WORD	wordpools/wasnorm_wordpool_576.txt	LTP123	ltpFR2	15	4	THRONE	1461	n/a	n/a	0	0	0
756425	REC_WORD	wordpools/wasnorm_wordpool_576.txt	LTP123	ltpFR2	15	4	WIFE	1609	n/a	n/a	0	0	0
760423	REC_WORD	wordpools/wasnorm_wordpool_576.txt	LTP123	ltpFR2	15	4	COFFIN	342	n/a	n/a	0	0	0
762377	REC_WORD	wordpools/wasnorm_wordpool_576.txt	LTP123	ltpFR2	15	4	REBEL	1172	n/a	n/a	0	0	0
776051	REC_WORD	wordpools/wasnorm_wordpool_576.txt	LTP123	ltpFR2	15	4	PROTON	1132	n/a	n/a	0	0	0
792599	REC_WORD	wordpools/wasnorm_wordpool_576.txt	LTP123	ltpFR2	15	4	COIN	343	n/a	n/a	0	0	0
798170	REC_WORD	wordpools/wasnorm_wordpool_576.txt	LTP123	ltpFR2	15	4	GRAPE	654	n/a	n/a	0	0	0
826577	DISTRACTOR	n/a	LTP123	ltpFR2	15	5	n/a	n/a	n/a	n/a	0	0	0
826577	START	n/a	LTP123	ltpFR2	15	n/a	n/a	n/a	7	n/a	n/a	n/a	n/a
826589	PROB	n/a	LTP123	ltpFR2	15	n/a	n/a	n/a	7	16	3	6	7
828478	PROB	n/a	LTP123	ltpFR2	15	n/a	n/a	n/a	7	12	2	5	5
829609	PROB	n/a	LTP123	ltpFR2	15	n/a	n/a	n/a	7	15	5	6	4
831798	PROB	n/a	LTP123	ltpFR2	15	n/a	n/a	n/a	7	8	2	3	3
833931	PROB	n/a	LTP123	ltpFR2	15	n/a	n/a	n/a	7	9	5	1	3
835364	PROB	n/a	LTP123	ltpFR2	15	n/a	n/a	n/a	7	15	8	3	4
837802	PROB	n/a	LTP123	ltpFR2	15	n/a	n/a	n/a	7	6	4	1	1
838917	PROB	n/a	LTP123	ltpFR2	15	n/a	n/a	n/a	7	11	5	5	1
840433	PROB	n/a	LTP123	ltpFR2	15	n/a	n/a	n/a	7	20	2	9	9
842068	PROB	n/a	LTP123	ltpFR2	15	n/a	n/a	n/a	7	8	1	2	5
843640	PROB	n/a	LTP123	ltpFR2	15	n/a	n/a	n/a	7	22	5	9	8
846689	PROB	n/a	LTP123	ltpFR2	15	n/a	n/a	n/a	7	16	9	3	4
849129	STOP	n/a	LTP123	ltpFR2	15	n/a	n/a	n/a	7	n/a	n/a	n/a	n/a
851713	WORD	wordpools/wasnorm_wordpool_576.txt	LTP123	ltpFR2	15	5	THIEF	1456	n/a	n/a	0	0	0
854515	WORD	wordpools/wasnorm_wordpool_576.txt	LTP123	ltpFR2	15	5	PRINCESS	1125	n/a	n/a	0	0	0
857084	WORD	wordpools/wasnorm_wordpool_576.txt	LTP123	ltpFR2	15	5	TROUT	1511	n/a	n/a	0	0	0
859902	WORD	wordpools/wasnorm_wordpool_576.txt	LTP123	ltpFR2	15	5	TEMPLE	1448	n/a	n/a	0	0	0
862388	WORD	wordpools/wasnorm_wordpool_576.txt	LTP123	ltpFR2	15	5	IDOL	733	n/a	n/a	0	0	0
864839	WORD	wordpools/wasnorm_wordpool_576.txt	LTP123	ltpFR2	15	5	CANAL	226	n/a	n/a	0	0	0
867392	WORD	wordpools/wasnorm_wordpool_576.txt	LTP123	ltpFR2	15	5	STAR	1373	n/a	n/a	0	0	0
870194	WORD	wordpools/wasnorm_wordpool_576.txt	LTP123	ltpFR2	15	5	SPACE	1345	n/a	n/a	0	0	0
872862	WORD	wordpools/wasnorm_wordpool_576.txt	LTP123	ltpFR2	15	5	CROWN	415	n/a	n/a	0	0	0
875565	WORD	wordpools/wasnorm_wordpool_576.txt	LTP123	ltpFR2	15	5	COOK	372	n/a	n/a	0	0	0
878084	WORD	wordpools/wasnorm_wordpool_576.txt	LTP123	ltpFR2	15	5	PALACE	1006	n/a	n/a	0	0	0
880702	WORD	wordpools/wasnorm_wordpool_576.txt	LTP123	ltpFR2	15	5	FIREPLACE	570	n/a	n/a	0	0	0
883305	WORD	wordpools/wasnorm_wordpool_576.txt	LTP123	ltpFR2	15	5	EAGLE	512	n/a	n/a	0	0	0
885957	WORD	wordpools/wasnorm_wordpool_576.txt	LTP123	ltpFR2	15	5	ROBIN	1199	n/a	n/a	0	0	0
888410	WORD	wordpools/wasnorm_wordpool_576.txt	LTP123	ltpFR2	15	5	HOSTESS	723	n/a	n/a	0	0	0
891143	WORD	wordpools/wasnorm_wordpool_576.txt	LTP123	ltpFR2	15	5	RAFT	1159	n/a	n/a	0	0	0
893829	WORD	wordpools/wasnorm_wordpool_576.txt	LTP123	ltpFR2	15	5	SHELTER	1282	n/a	n/a	0	0	0
896315	WORD	wordpools/wasnorm_wordpool_576.txt	LTP123	ltpFR2	15	5	BANJO	82	n/a	n/a	0	0	0
899150	WORD	wordpools/wasnorm_wordpool_576.txt	LTP123	ltpFR2	15	5	MONSTER	912	n/a	n/a	0	0	0
901869	WORD	wordpools/wasnorm_wordpool_576.txt	LTP123	ltpFR2	15	5	JAPAN	749	n/a	n/a	0	0	0
904355	WORD	wordpools/wasnorm_wordpool_576.txt	LTP123	ltpFR2	15	5	UMPIRE	1535	n/a	n/a	0	0	0
907090	WORD	wordpools/wasnorm_wordpool_576.txt	LTP123	ltpFR2	15	5	WORLD	1622	n/a	n/a	0	0	0
909875	WORD	wordpools/wasnorm_wordpool_576.txt	LTP123	ltpFR2	15	5	COCKTAIL	338	n/a	n/a	0	0	0
912527	WORD	wordpools/wasnorm_wordpool_576.txt	LTP123	ltpFR2	15	5	OFFICE	972	n/a	n/a	0	0	0
914147	START	n/a	LTP123	ltpFR2	15	n/a	n/a	n/a	8	n/a	n/a	n/a	n/a
915162	DISTRACTOR	n/a	LTP123	ltpFR2	15	5	n/a	n/a	n/a	n/a	0	0	0
915180	PROB	n/a	LTP123	ltpFR2	15	n/a	n/a	n/a	8	22	7	6	9
917649	PROB	n/a	LTP123	ltpFR2	15	n/a	n/a	n/a	8	7	2	3	2
919586	PROB	n/a	LTP123	ltpFR2	15	n/a	n/a	n/a	8	5	2	2	1
920902	PROB	n/a	LTP123	ltpFR2	15	n/a	n/a	n/a	8	17	4	4	9
922883	PROB	n/a	LTP123	ltpFR2	15	n/a	n/a	n/a	8	18	5	6	7
924305	PROB	n/a	LTP123	ltpFR2	15	n/a	n/a	n/a	8	11	1	2	8
925484	PROB	n/a	LTP123	ltpFR2	15	n/a	n/a	n/a	8	25	9	8	8
928520	PROB	n/a	LTP123	ltpFR2	15	n/a	n/a	n/a	8	17	3	8	6
930676	PROB	n/a	LTP123	ltpFR2	15	n/a	n/a	n/a	8	6	4	1	1
931806	PROB	n/a	LTP123	ltpFR2	15	n/a	n/a	n/a	8	20	9	6	5
933329	PROB	n/a	LTP123	ltpFR2	15	n/a	n/a	n/a	8	11	1	3	7
934458	PROB	n/a	LTP123	ltpFR2	15	n/a	n/a	n/a	8	9	4	4	1
935609	PROB	n/a	LTP123	ltpFR2	15	n/a	n/a	n/a	8	17	6	3	8
937221	STOP	n/a	LTP123	ltpFR2	15	n/a	n/a	n/a	8	n/a	n/a	n/a	n/a
939918	REC_START	n/a	LTP123	ltpFR2	15	5	n/a	n/a	n/a	n/a	0	0	0
940427	REC_WORD	wordpools/wasnorm_wordpool_576.txt	LTP123	ltpFR2	15	5	UMPIRE	1535	n/a	n/a	0	0	0
942008	REC_WORD	wordpools/wasnorm_wordpool_576.txt	LTP123	ltpFR2	15	5	JAPAN	749	n/a	n/a	0	0	0
942728	REC_WORD	wordpools/wasnorm_wordpool_576.txt	LTP123	ltpFR2	15	5	WORLD	1622	n/a	n/a	0	0	0
943981	REC_WORD	wordpools/wasnorm_wordpool_576.txt	LTP123	ltpFR2	15	5	SHELTER	1282	n/a	n/a	0	0	0
944608	REC_WORD	wordpools/wasnorm_wordpool_576.txt	LTP123	ltpFR2	15	5	RAFT	1159	n/a	n/a	0	0	0
946254	REC_WORD	wordpools/wasnorm_wordpool_576.txt	LTP123	ltpFR2	15	5	EAGLE	512	n/a	n/a	0	0	0
948567	REC_WORD	wordpools/wasnorm_wordpool_576.txt	LTP123	ltpFR2	15	5	PALACE	1006	n/a	n/a	0	0	0
949445	REC_WORD	wordpools/wasnorm_wordpool_576.txt	LTP123	ltpFR2	15	5	PRINCESS	1125	n/a	n/a	0	0	0
950344	REC_WORD	wordpools/wasnorm_wordpool_576.txt	LTP123	ltpFR2	15	5	CROWN	415	n/a	n/a	0	0	0
952126	REC_WORD	wordpools/wasnorm_wordpool_576.txt	LTP123	ltpFR2	15	5	FIREPLACE	570	n/a	n/a	0	0	0
953194	REC_WORD	wordpools/wasnorm_wordpool_576.txt	LTP123	ltpFR2	15	5	COOK	372	n/a	n/a	0	0	0
954547	REC_WORD	wordpools/wasnorm_wordpool_576.txt	LTP123	ltpFR2	15	5	HOSTESS	723	n/a	n/a	0	0	0
963099	REC_WORD	wordpools/wasnorm_wordpool_576.txt	LTP123	ltpFR2	15	5	ROBIN	1199	n/a	n/a	0	0	0
965719	REC_WORD	wordpools/wasnorm_wordpool_576.txt	LTP123	ltpFR2	15	5	PECAN	1036	n/a	n/a	0	0	0
968810	REC_WORD	wordpools/wasnorm_wordpool_576.txt	LTP123	ltpFR2	15	5	STAR	1373	n/a	n/a	0	0	0
970889	REC_WORD	wordpools/wasnorm_wordpool_576.txt	LTP123	ltpFR2	15	5	SPACE	1345	n/a	n/a	0	0	0
990607	REC_WORD	wordpools/wasnorm_wordpool_576.txt	LTP123	ltpFR2	15	5	COCKTAIL	338	n/a	n/a	0	0	0
1000755	REC_WORD	wordpools/wasnorm_wordpool_576.txt	LTP123	ltpFR2	15	5	THIEF	1456	n/a	n/a	0	0	0
1004168	REC_WORD	wordpools/wasnorm_wordpool_576.txt	LTP123	ltpFR2	15	5	MONSTER	912	n/a	n/a	0	0	0
1030387	WORD	wordpools/wasnorm_wordpool_576.txt	LTP123	ltpFR2	15	6	BLADE	134	n/a	n/a	0	0	0
1033040	WORD	wordpools/wasnorm_wordpool_576.txt	LTP123	ltpFR2	15	6	TEACHER	1440	n/a	n/a	0	0	0
1035509	WORD	wordpools/wasnorm_wordpool_576.txt	LTP123	ltpFR2	15	6	GHETTO	633	n/a	n/a	0	0	0
1038077	WORD	wordpools/wasnorm_wordpool_576.txt	LTP123	ltpFR2	15	6	SCARECROW	1245	n/a	n/a	0	0	0
1040680	WORD	wordpools/wasnorm_wordpool_576.txt	LTP123	ltpFR2	15	6	VIKING	1565	n/a	n/a	0	0	0
1043216	WORD	wordpools/wasnorm_wordpool_576.txt	LTP123	ltpFR2	15	6	NURSE	963	n/a	n/a	0	0	0
1045667	WORD	wordpools/wasnorm_wordpool_576.txt	LTP123	ltpFR2	15	6	BINDER	127	n/a	n/a	0	0	0
1048288	WORD	wordpools/wasnorm_wordpool_576.txt	LTP123	ltpFR2	15	6	RADISH	1158	n/a	n/a	0	0	0
1050888	WORD	wordpools/wasnorm_wordpool_576.txt	LTP123	ltpFR2	15	6	LETTUCE	814	n/a	n/a	0	0	0
1053557	WORD	wordpools/wasnorm_wordpool_576.txt	LTP123	ltpFR2	15	6	SCRIBBLE	1256	n/a	n/a	0	0	0
1056276	WORD	wordpools/wasnorm_wordpool_576.txt	LTP123	ltpFR2	15	6	DIVER	476	n/a	n/a	0	0	0
1058944	WORD	wordpools/wasnorm_wordpool_576.txt	LTP123	ltpFR2	15	6	PARENT	1013	n/a	n/a	0	0	0
1061547	WORD	wordpools/wasnorm_wordpool_576.txt	LTP123	ltpFR2	15	6	SIBLING	1301	n/a	n/a	0	0	0
1064216	WORD	wordpools/wasnorm_wordpool_576.txt	LTP123	ltpFR2	15	6	PRINCE	1124	n/a	n/a	0	0	0
1066785	WORD	wordpools/wasnorm_wordpool_576.txt	LTP123	ltpFR2	15	6	QUEEN	1149	n/a	n/a	0	0	0
1069321	WORD	wordpools/wasnorm_wordpool_576.txt	LTP123	ltpFR2	15	6	COLLEGE	346	n/a	n/a	0	0	0
1072088	WORD	wordpools/wasnorm_wordpool_576.txt	LTP123	ltpFR2	15	6	DRESSER	496	n/a	n/a	0	0	0
1074774	WORD	wordpools/wasnorm_wordpool_576.txt	LTP123	ltpFR2	15	6	BOYFRIEND	162	n/a	n/a	0	0	0
1077593	WORD	wordpools/wasnorm_wordpool_576.txt	LTP123	ltpFR2	15	6	BELLY	119	n/a	n/a	0	0	0
1080145	WORD	wordpools/wasnorm_wordpool_576.txt	LTP123	ltpFR2	15	6	BODY	145	n/a	n/a	0	0	0
1082597	WORD	wordpools/wasnorm_wordpool_576.txt	LTP123	ltpFR2	15	6	RAZOR	1171	n/a	n/a	0	0	0
1085366	WORD	wordpools/wasnorm_wordpool_576.txt	LTP123	ltpFR2	15	6	GLOBE	641	n/a	n/a	0	0	0
1088150	WORD	wordpools/wasnorm_wordpool_576.txt	LTP123	ltpFR2	15	6	VALVE	1546	n/a	n/a	0	0	0
1090836	WORD	wordpools/wasnorm_wordpool_576.txt	LTP123	ltpFR2	15	6	DRUG	501	n/a	n/a	0	0	0
1092455	START	n/a	LTP123	ltpFR2	15	n/a	n/a	n/a	9	n/a	n/a	n/a	n/a
1093353	DISTRACTOR	n/a	LTP123	ltpFR2	15	6	n/a	n/a	n/a	n/a	0	0	0
1093373	PROB	n/a	LTP123	ltpFR2	15	n/a	n/a	n/a	9	17	6	2	9
1095407	PROB	n/a	LTP123	ltpFR2	15	n/a	n/a	n/a	9	23	8	6	9
1099011	PROB	n/a	LTP123	ltpFR2	15	n/a	n/a	n/a	9	14	6	6	2
1100692	PROB	n/a	LTP123	ltpFR2	15	n/a	n/a	n/a	9	13	1	9	3
1101913	PROB	n/a	LTP123	ltpFR2	15	n/a	n/a	n/a	9	24	6	9	9
1103828	PROB	n/a	LTP123	ltpFR2	15	n/a	n/a	n/a	9	18	3	9	6
1105466	PROB	n/a	LTP123	ltpFR2	15	n/a	n/a	n/a	9	12	7	2	3
1106912	PROB	n/a	LTP123	ltpFR2	15	n/a	n/a	n/a	9	17	4	6	7
1108132	PROB	n/a	LTP123	ltpFR2	15	n/a	n/a	n/a	9	15	6	2	7
1110053	PROB	n/a	LTP123	ltpFR2	15	n/a	n/a	n/a	9	16	3	7	6
1111533	PROB	n/a	LTP123	ltpFR2	15	n/a	n/a	n/a	9	14	7	2	5
1113756	PROB	n/a	LTP123	ltpFR2	15	n/a	n/a	n/a	9	18	8	3	7
1114939	STOP	n/a	LTP123	ltpFR2	15	n/a	n/a	n/a	9	n/a	n/a	n/a	n/a
1118360	REC_START	n/a	LTP123	ltpFR2	15	6	n/a	n/a	n/a	n/a	0	0	0
1120786	REC_WORD	wordpools/wasnorm_wordpool_576.txt	LTP123	ltpFR2	15	6	TEACHER	1440	n/a	n/a	0	0	0
1121443	REC_WORD	wordpools/wasnorm_wordpool_576.txt	LTP123	ltpFR2	15	6	COLLEGE	346	n/a	n/a	0	0	0
1122066	REC_WORD	wordpools/wasnorm_wordpool_576.txt	LTP123	ltpFR2	15	6	NURSE	963	n/a	n/a	0	0	0
1122804	REC_WORD	wordpools/wasnorm_wordpool_576.txt	LTP123	ltpFR2	15	6	RAZOR	1171	n/a	n/a	0	0	0
1125804	REC_WORD	wordpools/wasnorm_wordpool_576.txt	LTP123	ltpFR2	15	6	SIBLING	1301	n/a	n/a	0	0	0
1126536	REC_WORD	wordpools/wasnorm_wordpool_576.txt	LTP123	ltpFR2	15	6	PARENT	1013	n/a	n/a	0	0	0
1129975	REC_WORD	wordpools/wasnorm_wordpool_576.txt	LTP123	ltpFR2	15	6	GHETTO	633	n/a	n/a	0	0	0
1130381	REC_WORD	wordpools/wasnorm_wordpool_576.txt	LTP123	ltpFR2	15	6	SCARECROW	1245	n/a	n/a	0	0	0
1132320	REC_WORD	wordpools/wasnorm_wordpool_576.txt	LTP123	ltpFR2	15	6	BINDER	127	n/a	n/a	0	0	0
1138226	REC_WORD	wordpools/wasnorm_wordpool_576.txt	LTP123	ltpFR2	15	6	BELLY	119	n/a	n/a	0	0	0
1139190	REC_WORD	wordpools/wasnorm_wordpool_576.txt	LTP123	ltpFR2	15	6	BODY	145	n/a	n/a	0	0	0
1144956	REC_WORD	wordpools/wasnorm_wordpool_576.txt	LTP123	ltpFR2	15	6	KNIFE	785	n/a	n/a	0	0	0
1157258	REC_WORD	wordpools/wasnorm_wordpool_576.txt	LTP123	ltpFR2	15	6	DORM	488	n/a	n/a	0	0	0
1159811	REC_WORD	wordpools/wasnorm_wordpool_576.txt	LTP123	ltpFR2	15	6	JAPAN	749	n/a	n/a	0	0	0
1176829	REC_WORD	wordpools/wasnorm_wordpool_576.txt	LTP123	ltpFR2	15	6	DRIVER	499	n/a	n/a	0	0	0
1179103	REC_WORD	wordpools/wasnorm_wordpool_576.txt	LTP123	ltpFR2	15	6	PRINCE	1124	n/a	n/a	0	0	0
1179830	REC_WORD	wordpools/wasnorm_wordpool_576.txt	LTP123	ltpFR2	15	6	QUEEN	1149	n/a	n/a	0	0	0
1185055	REC_WORD	wordpools/wasnorm_wordpool_576.txt	LTP123	ltpFR2	15	6	DIVER	476	n/a	n/a	0	0	0
1208827	WORD	wordpools/wasnorm_wordpool_576.txt	LTP123	ltpFR2	15	7	LUNCH	849	n/a	n/a	0	0	0
1211617	WORD	wordpools/wasnorm_wordpool_576.txt	LTP123	ltpFR2	15	7	SALT	1229	n/a	n/a	0	0	0
1214303	WORD	wordpools/wasnorm_wordpool_576.txt	LTP123	ltpFR2	15	7	ONION	977	n/a	n/a	0	0	0
1217037	WORD	wordpools/wasnorm_wordpool_576.txt	LTP123	ltpFR2	15	7	PEDAL	1037	n/a	n/a	0	0	0
1219773	WORD	wordpools/wasnorm_wordpool_576.txt	LTP123	ltpFR2	15	7	OMELET	976	n/a	n/a	0	0	0
1222592	WORD	wordpools/wasnorm_wordpool_576.txt	LTP123	ltpFR2	15	7	HUSBAND	728	n/a	n/a	0	0	0
1225060	WORD	wordpools/wasnorm_wordpool_576.txt	LTP123	ltpFR2	15	7	TABLE	1426	n/a	n/a	0	0	0
1227863	WORD	wordpools/wasnorm_wordpool_576.txt	LTP123	ltpFR2	15	7	PADDING	999	n/a	n/a	0	0	0
1230648	WORD	wordpools/wasnorm_wordpool_576.txt	LTP123	ltpFR2	15	7	PATIENT	1024	n/a	n/a	0	0	0
1233100	WORD	wordpools/wasnorm_wordpool_576.txt	LTP123	ltpFR2	15	7	PUPIL	1143	n/a	n/a	0	0	0
1235668	WORD	wordpools/wasnorm_wordpool_576.txt	LTP123	ltpFR2	15	7	MATCH	878	n/a	n/a	0	0	0
1238255	WORD	wordpools/wasnorm_wordpool_576.txt	LTP123	ltpFR2	15	7	FIREMAN	569	n/a	n/a	0	0	0
1240940	WORD	wordpools/wasnorm_wordpool_576.txt	LTP123	ltpFR2	15	7	DRAWING	494	n/a	n/a	0	0	0
1243592	WORD	wordpools/wasnorm_wordpool_576.txt	LTP123	ltpFR2	15	7	BLOCKADE	137	n/a	n/a	0	0	0
1246044	WORD	wordpools/wasnorm_wordpool_576.txt	LTP123	ltpFR2	15	7	SLUG	1329	n/a	n/a	0	0	0
1248712	WORD	wordpools/wasnorm_wordpool_576.txt	LTP123	ltpFR2	15	7	RELISH	1183	n/a	n/a	0	0	0
1251498	WORD	wordpools/wasnorm_wordpool_576.txt	LTP123	ltpFR2	15	7	PORK	1108	n/a	n/a	0	0	0
1254301	WORD	wordpools/wasnorm_wordpool_576.txt	LTP123	ltpFR2	15	7	DUST	508	n/a	n/a	0	0	0
1256919	WORD	wordpools/wasnorm_wordpool_576.txt	LTP123	ltpFR2	15	7	MARKET	871	n/a	n/a	0	0	0
1259588	WORD	wordpools/wasnorm_wordpool_576.txt	LTP123	ltpFR2	15	7	PRIMATE	1123	n/a	n/a	0	0	0
1262123	WORD	wordpools/wasnorm_wordpool_576.txt	LTP123	ltpFR2	15	7	CONVICT	371	n/a	n/a	0	0	0
1264875	WORD	wordpools/wasnorm_wordpool_576.txt	LTP123	ltpFR2	15	7	WORKER	1621	n/a	n/a	0	0	0
1267428	WORD	wordpools/wasnorm_wordpool_576.txt	LTP123	ltpFR2	15	7	CRAYON	401	n/a	n/a	0	0	0
1269880	WORD	wordpools/wasnorm_wordpool_576.txt	LTP123	ltpFR2	15	7	SPOUSE	1358	n/a	n/a	0	0	0
1271498	START	n/a	LTP123	ltpFR2	15	n/a	n/a	n/a	10	n/a	n/a	n/a	n/a
1272655	DISTRACTOR	n/a	LTP123	ltpFR2	15	7	n/a	n/a	n/a	n/a	0	0	0
1272665	PROB	n/a	LTP123	ltpFR2	15	n/a	n/a	n/a	10	19	5	9	5
1274347	PROB	n/a	LTP123	ltpFR2	15	n/a	n/a	n/a	10	17	2	8	7
1275885	PROB	n/a	LTP123	ltpFR2	15	n/a	n/a	n/a	10	23	9	8	6
1278700	PROB	n/a	LTP123	ltpFR2	15	n/a	n/a	n/a	10	14	3	6	5
1280373	PROB	n/a	LTP123	ltpFR2	15	n/a	n/a	n/a	10	13	9	2	2
1282502	PROB	n/a	LTP123	ltpFR2	15	n/a	n/a	n/a	10	11	3	4	4
1284521	PROB	n/a	LTP123	ltpFR2	15	n/a	n/a	n/a	10	12	2	7	3
1285739	PROB	n/a	LTP123	ltpFR2	15	n/a	n/a	n/a	10	14	4	9	1
1286940	PROB	n/a	LTP123	ltpFR2	15	n/a	n/a	n/a	10	17	7	4	6
1288279	PROB	n/a	LTP123	ltpFR2	15	n/a	n/a	n/a	10	13	2	7	4
1290096	PROB	n/a	LTP123	ltpFR2	15	n/a	n/a	n/a	10	24	8	8	8
1291382	PROB	n/a	LTP123	ltpFR2	15	n/a	n/a	n/a	10	16	7	3	6
1292561	PROB	n/a	LTP123	ltpFR2	15	n/a	n/a	n/a	10	18	5	8	5
1293749	PROB	n/a	LTP123	ltpFR2	15	n/a	n/a	n/a	10	17	4	6	7
1294801	STOP	n/a	LTP123	ltpFR2	15	n/a	n/a	n/a	10	n/a	n/a	n/a	n/a
1297419	REC_START	n/a	LTP123	ltpFR2	15	7	n/a	n/a	n/a	n/a	0	0	0
1298807	REC_WORD	wordpools/wasnorm_wordpool_576.txt	LTP123	ltpFR2	15	7	BLOCKADE	137	n/a	n/a	0	0	0
1299516	REC_WORD	wordpools/wasnorm_wordpool_576.txt	LTP123	ltpFR2	15	7	FIREMAN	569	n/a	n/a	0	0	0
1300426	REC_WORD	wordpools/wasnorm_wordpool_576.txt	LTP123	ltpFR2	15	7	MATCH	878	n/a	n/a	0	0	0
1301710	REC_WORD	wordpools/wasnorm_wordpool_576.txt	LTP123	ltpFR2	15	7	DUST	508	n/a	n/a	0	0	0
1308786	REC_WORD	wordpools/wasnorm_wordpool_576.txt	LTP123	ltpFR2	15	7	PORK	1108	n/a	n/a	0	0	0
1310723	REC_WORD	wordpools/wasnorm_wordpool_576.txt	LTP123	ltpFR2	15	7	RELISH	1183	n/a	n/a	0	0	0
1311723	REC_WORD_VV	wordpools/wasnorm_wordpool_576.txt	LTP123	ltpFR2	15	7	<>	-1	n/a	n/a	0	0	0
1313474	REC_WORD	wordpools/wasnorm_wordpool_576.txt	LTP123	ltpFR2	15	7	ONION	977	n/a	n/a	0	0	0
1321745	REC_WORD	wordpools/wasnorm_wordpool_576.txt	LTP123	ltpFR2	15	7	HUSBAND	728	n/a	n/a	0	0	0
1322284	REC_WORD	wordpools/wasnorm_wordpool_576.txt	LTP123	ltpFR2	15	7	SPOUSE	1358	n/a	n/a	0	0	0
1325425	REC_WORD	wordpools/wasnorm_wordpool_576.txt	LTP123	ltpFR2	15	7	OMELET	976	n/a	n/a	0	0	0
1335732	REC_WORD	wordpools/wasnorm_wordpool_576.txt	LTP123	ltpFR2	15	7	TABLET	1427	n/a	n/a	0	0	0
1336465	REC_WORD	wordpools/wasnorm_wordpool_576.txt	LTP123	ltpFR2	15	7	PATIENT	1024	n/a	n/a	0	0	0
1338143	REC_WORD	wordpools/wasnorm_wordpool_576.txt	LTP123	ltpFR2	15	7	PADDING	999	n/a	n/a	0	0	0
1340008	REC_WORD	wordpools/wasnorm_wordpool_576.txt	LTP123	ltpFR2	15	7	WORKER	1621	n/a	n/a	0	0	0
1387874	DISTRACTOR	n/a	LTP123	ltpFR2	15	8	n/a	n/a	n/a	n/a	0	0	0
1387874	START	n/a	LTP123	ltpFR2	15	n/a	n/a	n/a	11	n/a	n/a	n/a	n/a
1387892	PROB	n/a	LTP123	ltpFR2	15	n/a	n/a	n/a	11	15	7	3	5
1389222	PROB	n/a	LTP123	ltpFR2	15	n/a	n/a	n/a	11	13	5	1	7
1391274	PROB	n/a	LTP123	ltpFR2	15	n/a	n/a	n/a	11	13	1	3	9
1392511	PROB	n/a	LTP123	ltpFR2	15	n/a	n/a	n/a	11	17	4	4	9
1394030	PROB	n/a	LTP123	ltpFR2	15	n/a	n/a	n/a	11	19	9	9	1
1395145	PROB	n/a	LTP123	ltpFR2	15	n/a	n/a	n/a	11	17	5	7	5
1396416	PROB	n/a	LTP123	ltpFR2	15	n/a	n/a	n/a	11	8	2	5	1
1397816	PROB	n/a	LTP123	ltpFR2	15	n/a	n/a	n/a	11	11	3	2	6
1399230	PROB	n/a	LTP123	ltpFR2	15	n/a	n/a	n/a	11	21	8	7	6
1400700	PROB	n/a	LTP123	ltpFR2	15	n/a	n/a	n/a	11	18	2	7	9
1402586	PROB	n/a	LTP123	ltpFR2	15	n/a	n/a	n/a	11	17	4	7	6
1404238	PROB	n/a	LTP123	ltpFR2	15	n/a	n/a	n/a	11	10	6	2	2
1405789	PROB	n/a	LTP123	ltpFR2	15	n/a	n/a	n/a	11	11	3	2	6
1407224	PROB	n/a	LTP123	ltpFR2	15	n/a	n/a	n/a	11	17	4	2	9
1409338	PROB	n/a	LTP123	ltpFR2	15	n/a	n/a	n/a	11	20	9	5	6
1411797	STOP	n/a	LTP123	ltpFR2	15	n/a	n/a	n/a	11	n/a	n/a	n/a	n/a
1413011	WORD	wordpools/wasnorm_wordpool_576.txt	LTP123	ltpFR2	15	8	FRIAR	605	n/a	n/a	0	0	0
1415812	WORD	wordpools/wasnorm_wordpool_576.txt	LTP123	ltpFR2	15	8	BUTCHER	203	n/a	n/a	0	0	0
1418565	WORD	wordpools/wasnorm_wordpool_576.txt	LTP123	ltpFR2	15	8	SHIRT	1287	n/a	n/a	0	0	0
1421051	WORD	wordpools/wasnorm_wordpool_576.txt	LTP123	ltpFR2	15	8	SWAMP	1416	n/a	n/a	0	0	0
1423819	WORD	wordpools/wasnorm_wordpool_576.txt	LTP123	ltpFR2	15	8	SOFTBALL	1343	n/a	n/a	0	0	0
1426521	WORD	wordpools/wasnorm_wordpool_576.txt	LTP123	ltpFR2	15	8	CATCHER	258	n/a	n/a	0	0	0
1429173	WORD	wordpools/wasnorm_wordpool_576.txt	LTP123	ltpFR2	15	8	MARSH	874	n/a	n/a	0	0	0
1431642	WORD	wordpools/wasnorm_wordpool_576.txt	LTP123	ltpFR2	15	8	GRILL	661	n/a	n/a	0	0	0
1434144	WORD	wordpools/wasnorm_wordpool_576.txt	LTP123	ltpFR2	15	8	LEADER	807	n/a	n/a	0	0	0
1436713	WORD	wordpools/wasnorm_wordpool_576.txt	LTP123	ltpFR2	15	8	MAMMAL	861	n/a	n/a	0	0	0
1439532	WORD	wordpools/wasnorm_wordpool_576.txt	LTP123	ltpFR2	15	8	CLAMP	316	n/a	n/a	0	0	0
1442251	WORD	wordpools/wasnorm_wordpool_576.txt	LTP123	ltpFR2	15	8	DRIVER	499	n/a	n/a	0	0	0
1444752	WORD	wordpools/wasnorm_wordpool_576.txt	LTP123	ltpFR2	15	8	CHAPEL	280	n/a	n/a	0	0	0
1447471	WORD	wordpools/wasnorm_wordpool_576.txt	LTP123	ltpFR2	15	8	FLASHLIGHT	575	n/a	n/a	0	0	0
1450140	WORD	wordpools/wasnorm_wordpool_576.txt	LTP123	ltpFR2	15	8	SWITCH	1422	n/a	n/a	0	0	0
1452825	WORD	wordpools/wasnorm_wordpool_576.txt	LTP123	ltpFR2	15	8	STUDENT	1395	n/a	n/a	0	0	0
1455279	WORD	wordpools/wasnorm_wordpool_576.txt	LTP123	ltpFR2	15	8	SLIME	1327	n/a	n/a	0	0	0
1458096	WORD	wordpools/wasnorm_wordpool_576.txt	LTP123	ltpFR2	15	8	SPOON	1357	n/a	n/a	0	0	0
1460765	WORD	wordpools/wasnorm_wordpool_576.txt	LTP123	ltpFR2	15	8	BEAVER	109	n/a	n/a	0	0	0
1463501	WORD	wordpools/wasnorm_wordpool_576.txt	LTP123	ltpFR2	15	8	BANQUET	86	n/a	n/a	0	0	0
1465986	WORD	wordpools/wasnorm_wordpool_576.txt	LTP123	ltpFR2	15	8	VICTIM	1562	n/a	n/a	0	0	0
1468421	WORD	wordpools/wasnorm_wordpool_576.txt	LTP123	ltpFR2	15	8	FARMER	553	n/a	n/a	0	0	0
1471040	WORD	wordpools/wasnorm_wordpool_576.txt	LTP123	ltpFR2	15	8	TRACTOR	1493	n/a	n/a	0	0	0
1473626	WORD	wordpools/wasnorm_wordpool_576.txt	LTP123	ltpFR2	15	8	ROOSTER	1209	n/a	n/a	0	0	0
1475245	START	n/a	LTP123	ltpFR2	15	n/a	n/a	n/a	12	n/a	n/a	n/a	n/a
1476201	DISTRACTOR	n/a	LTP123	ltpFR2	15	8	n/a	n/a	n/a	n/a	0	0	0
1476211	PROB	n/a	LTP123	ltpFR2	15	n/a	n/a	n/a	12	9	1	4	4
1478113	PROB	n/a	LTP123	ltpFR2	15	n/a	n/a	n/a	12	15	4	5	6
1479898	PROB	n/a	LTP123	ltpFR2	15	n/a	n/a	n/a	12	14	8	5	1
1481683	PROB	n/a	LTP123	ltpFR2	15	n/a	n/a	n/a	12	14	1	9	4
1482799	PROB	n/a	LTP123	ltpFR2	15	n/a	n/a	n/a	12	9	6	1	2
1484147	PROB	n/a	LTP123	ltpFR2	15	n/a	n/a	n/a	12	18	5	6	7
1486619	PROB	n/a	LTP123	ltpFR2	15	n/a	n/a	n/a	12	9	3	5	1
1488518	PROB	n/a	LTP123	ltpFR2	15	n/a	n/a	n/a	12	23	9	7	7
1490307	PROB	n/a	LTP123	ltpFR2	15	n/a	n/a	n/a	12	20	5	7	8
1492842	PROB	n/a	LTP123	ltpFR2	15	n/a	n/a	n/a	12	21	6	6	9
1495295	PROB	n/a	LTP123	ltpFR2	15	n/a	n/a	n/a	12	13	1	6	6
1497292	PROB	n/a	LTP123	ltpFR2	15	n/a	n/a	n/a	12	16	7	2	7
1498872	STOP	n/a	LTP123	ltpFR2	15	n/a	n/a	n/a	12	n/a	n/a	n/a	n/a
1501082	REC_START	n/a	LTP123	ltpFR2	15	8	n/a	n/a	n/a	n/a	0	0	0
1501208	REC_WORD	wordpools/wasnorm_wordpool_576.txt	LTP123	ltpFR2	15	8	TRACTOR	1493	n/a	n/a	0	0	0
1501909	REC_WORD	wordpools/wasnorm_wordpool_576.txt	LTP123	ltpFR2	15	8	FARMER	553	n/a	n/a	0	0	0
1502887	REC_WORD	wordpools/wasnorm_wordpool_576.txt	LTP123	ltpFR2	15	8	BEAVER	109	n/a	n/a	0	0	0
1506716	REC_WORD	wordpools/wasnorm_wordpool_576.txt	LTP123	ltpFR2	15	8	BANQUET	86	n/a	n/a	0	0	0
1509519	REC_WORD	wordpools/wasnorm_wordpool_576.txt	LTP123	ltpFR2	15	8	SOFTBALL	1343	n/a	n/a	0	0	0
1510368	REC_WORD	wordpools/wasnorm_wordpool_576.txt	LTP123	ltpFR2	15	8	CATCHER	258	n/a	n/a	0	0	0
1512872	REC_WORD	wordpools/wasnorm_wordpool_576.txt	LTP123	ltpFR2	15	8	SHIRT	1287	n/a	n/a	0	0	0
1519256	REC_WORD	wordpools/wasnorm_wordpool_576.txt	LTP123	ltpFR2	15	8	DRIVER	499	n/a	n/a	0	0	0
1577624	REST_REWET	n/a	LTP123	ltpFR2	15	8	n/a	n/a	n/a	n/a	0	0	0
1944903	WORD	wordpools/wasnorm_wordpool_576.txt	LTP123	ltpFR2	15	9	DANDRUFF	439	n/a	n/a	0	0	0
1947521	WORD	wordpools/wasnorm_wordpool_576.txt	LTP123	ltpFR2	15	9	SANDWICH	1232	n/a	n/a	0	0	0
1950206	WORD	wordpools/wasnorm_wordpool_576.txt	LTP123	ltpFR2	15	9	NAPKIN	937	n/a	n/a	0	0	0
1952991	WORD	wordpools/wasnorm_wordpool_576.txt	LTP123	ltpFR2	15	9	PAPER	1011	n/a	n/a	0	0	0
1955476	WORD	wordpools/wasnorm_wordpool_576.txt	LTP123	ltpFR2	15	9	VAGRANT	1544	n/a	n/a	0	0	0
1958045	WORD	wordpools/wasnorm_wordpool_576.txt	LTP123	ltpFR2	15	9	BADGE	68	n/a	n/a	0	0	0
1960481	WORD	wordpools/wasnorm_wordpool_576.txt	LTP123	ltpFR2	15	9	LADY	794	n/a	n/a	0	0	0
1963115	WORD	wordpools/wasnorm_wordpool_576.txt	LTP123	ltpFR2	15	9	CROSS	413	n/a	n/a	0	0	0
1965768	WORD	wordpools/wasnorm_wordpool_576.txt	LTP123	ltpFR2	15	9	TYPIST	1532	n/a	n/a	0	0	0
1968337	WORD	wordpools/wasnorm_wordpool_576.txt	LTP123	ltpFR2	15	9	LONDON	843	n/a	n/a	0	0	0
1970838	WORD	wordpools/wasnorm_wordpool_576.txt	LTP123	ltpFR2	15	9	SKETCH	1315	n/a	n/a	0	0	0
1973558	WORD	wordpools/wasnorm_wordpool_576.txt	LTP123	ltpFR2	15	9	CRATER	400	n/a	n/a	0	0	0
1976210	WORD	wordpools/wasnorm_wordpool_576.txt	LTP123	ltpFR2	15	9	FRAME	600	n/a	n/a	0	0	0
1978945	WORD	wordpools/wasnorm_wordpool_576.txt	LTP123	ltpFR2	15	9	PORTRAIT	1111	n/a	n/a	0	0	0
1981697	WORD	wordpools/wasnorm_wordpool_576.txt	LTP123	ltpFR2	15	9	SUNSET	1408	n/a	n/a	0	0	0
1984417	WORD	wordpools/wasnorm_wordpool_576.txt	LTP123	ltpFR2	15	9	SHERIFF	1284	n/a	n/a	0	0	0
1986985	WORD	wordpools/wasnorm_wordpool_576.txt	LTP123	ltpFR2	15	9	STALLION	1369	n/a	n/a	0	0	0
1989670	WORD	wordpools/wasnorm_wordpool_576.txt	LTP123	ltpFR2	15	9	BACON	67	n/a	n/a	0	0	0
1992306	WORD	wordpools/wasnorm_wordpool_576.txt	LTP123	ltpFR2	15	9	CLOCK	325	n/a	n/a	0	0	0
1995057	WORD	wordpools/wasnorm_wordpool_576.txt	LTP123	ltpFR2	15	9	FREEZER	604	n/a	n/a	0	0	0
1997693	WORD	wordpools/wasnorm_wordpool_576.txt	LTP123	ltpFR2	15	9	COWBOY	395	n/a	n/a	0	0	0
2000313	WORD	wordpools/wasnorm_wordpool_576.txt	LTP123	ltpFR2	15	9	CANYON	235	n/a	n/a	0	0	0
2002831	WORD	wordpools/wasnorm_wordpool_576.txt	LTP123	ltpFR2	15	9	TRENCH	1503	n/a	n/a	0	0	0
2005450	WORD	wordpools/wasnorm_wordpool_576.txt	LTP123	ltpFR2	15	9	CITRUS	313	n/a	n/a	0	0	0
2007069	START	n/a	LTP123	ltpFR2	15	n/a	n/a	n/a	13	n/a	n/a	n/a	n/a
2008207	DISTRACTOR	n/a	LTP123	ltpFR2	15	9	n/a	n/a	n/a	n/a	0	0	0
2008219	PROB	n/a	LTP123	ltpFR2	15	n/a	n/a	n/a	13	14	1	8	5
2010634	PROB	n/a	LTP123	ltpFR2	15	n/a	n/a	n/a	13	9	6	2	1
2012451	PROB	n/a	LTP123	ltpFR2	15	n/a	n/a	n/a	13	14	6	7	1
2014003	PROB	n/a	LTP123	ltpFR2	15	n/a	n/a	n/a	13	19	7	3	9
2015187	PROB	n/a	LTP123	ltpFR2	15	n/a	n/a	n/a	13	16	7	2	7
2016626	PROB	n/a	LTP123	ltpFR2	15	n/a	n/a	n/a	13	10	6	2	2
2017956	PROB	n/a	LTP123	ltpFR2	15	n/a	n/a	n/a	13	13	2	4	7
2019409	PROB	n/a	LTP123	ltpFR2	15	n/a	n/a	n/a	13	10	2	2	6
2020796	PROB	n/a	LTP123	ltpFR2	15	n/a	n/a	n/a	13	8	3	1	4
2022227	PROB	n/a	LTP123	ltpFR2	15	n/a	n/a	n/a	13	22	6	7	9
2024094	PROB	n/a	LTP123	ltpFR2	15	n/a	n/a	n/a	13	17	2	6	9
2026196	PROB	n/a	LTP123	ltpFR2	15	n/a	n/a	n/a	13	17	1	7	9
2028015	PROB	n/a	LTP123	ltpFR2	15	n/a	n/a	n/a	13	14	4	7	3
2031069	STOP	n/a	LTP123	ltpFR2	15	n/a	n/a	n/a	13	n/a	n/a	n/a	n/a
2032840	REC_START	n/a	LTP123	ltpFR2	15	9	n/a	n/a	n/a	n/a	0	0	0
2033410	REC_WORD	wordpools/wasnorm_wordpool_576.txt	LTP123	ltpFR2	15	9	CANYON	235	n/a	n/a	0	0	0
2034391	REC_WORD	wordpools/wasnorm_wordpool_576.txt	LTP123	ltpFR2	15	9	TRENCH	1503	n/a	n/a	0	0	0
2035204	REC_WORD	wordpools/wasnorm_wordpool_576.txt	LTP123	ltpFR2	15	9	COWBOY	395	n/a	n/a	0	0	0
2035833	REC_WORD	wordpools/wasnorm_wordpool_576.txt	LTP123	ltpFR2	15	9	STALLION	1369	n/a	n/a	0	0	0
2036618	REC_WORD	wordpools/wasnorm_wordpool_576.txt	LTP123	ltpFR2	15	9	LONDON	843	n/a	n/a	0	0	0
2037393	REC_WORD	wordpools/wasnorm_wordpool_576.txt	LTP123	ltpFR2	15	9	CLOCK	325	n/a	n/a	0	0	0
2039894	REC_WORD	wordpools/wasnorm_wordpool_576.txt	LTP123	ltpFR2	15	9	SUNSET	1408	n/a	n/a	0	0	0
2040894	REC_WORD_VV	wordpools/wasnorm_wordpool_576.txt	LTP123	ltpFR2	15	9	<>	-1	n/a	n/a	0	0	0
2043290	REC_WORD	wordpools/wasnorm_wordpool_576.txt	LTP123	ltpFR2	15	9	VAGRANT	1544	n/a	n/a	0	0	0
2043886	REC_WORD	wordpools/wasnorm_wordpool_576.txt	LTP123	ltpFR2	15	9	LADY	794	n/a	n/a	0	0	0
2045751	REC_WORD	wordpools/wasnorm_wordpool_576.txt	LTP123	ltpFR2	15	9	BADGE	68	n/a	n/a	0	0	0
2046565	REC_WORD	wordpools/wasnorm_wordpool_576.txt	LTP123	ltpFR2	15	9	SHERIFF	1284	n/a	n/a	0	0	0
2050358	REC_WORD	wordpools/wasnorm_wordpool_576.txt	LTP123	ltpFR2	15	9	CITRUS	313	n/a	n/a	0	0	0
2062814	REC_WORD	wordpools/wasnorm_wordpool_576.txt	LTP123	ltpFR2	15	9	CRATER	400	n/a	n/a	0	0	0
2073915	REC_WORD	wordpools/wasnorm_wordpool_576.txt	LTP123	ltpFR2	15	9	SALT	1229	n/a	n/a	0	0	0
2076481	REC_WORD	wordpools/wasnorm_wordpool_576.txt	LTP123	ltpFR2	15	9	LUNCH	849	n/a	n/a	0	0	0
2078374	REC_WORD_VV	wordpools/wasnorm_wordpool_576.txt	LTP123	ltpFR2	15	9	<>	-1	n/a	n/a	0	0	0
2078677	REC_WORD	wordpools/wasnorm_wordpool_576.txt	LTP123	ltpFR2	15	9	SANDWICH	1232	n/a	n/a	0	0	0
2123296	DISTRACTOR	n/a	LTP123	ltpFR2	15	10	n/a	n/a	n/a	n/a	0	0	0
2123297	START	n/a	LTP123	ltpFR2	15	n/a	n/a	n/a	14	n/a	n/a	n/a	n/a
2123328	PROB	n/a	LTP123	ltpFR2	15	n/a	n/a	n/a	14	15	9	1	5
2125247	PROB	n/a	LTP123	ltpFR2	15	n/a	n/a	n/a	14	18	8	2	8
2126492	PROB	n/a	LTP123	ltpFR2	15	n/a	n/a	n/a	14	13	8	1	4
2127911	PROB	n/a	LTP123	ltpFR2	15	n/a	n/a	n/a	14	18	9	5	4
2129379	PROB	n/a	LTP123	ltpFR2	15	n/a	n/a	n/a	14	8	1	3	4
2130933	PROB	n/a	LTP123	ltpFR2	15	n/a	n/a	n/a	14	15	7	6	2
2132797	PROB	n/a	LTP123	ltpFR2	15	n/a	n/a	n/a	14	12	4	3	5
2134670	PROB	n/a	LTP123	ltpFR2	15	n/a	n/a	n/a	14	11	3	3	5
2136150	PROB	n/a	LTP123	ltpFR2	15	n/a	n/a	n/a	14	21	7	9	6
2138602	PROB	n/a	LTP123	ltpFR2	15	n/a	n/a	n/a	14	19	9	5	5
2139875	PROB	n/a	LTP123	ltpFR2	15	n/a	n/a	n/a	14	11	1	8	2
2141071	PROB	n/a	LTP123	ltpFR2	15	n/a	n/a	n/a	14	17	1	7	9
2142427	PROB	n/a	LTP123	ltpFR2	15	n/a	n/a	n/a	14	10	2	5	3
2144324	PROB	n/a	LTP123	ltpFR2	15	n/a	n/a	n/a	14	16	4	6	4
2145478	PROB	n/a	LTP123	ltpFR2	15	n/a	n/a	n/a	14	10	6	1	3
2146863	STOP	n/a	LTP123	ltpFR2	15	n/a	n/a	n/a	14	n/a	n/a	n/a	n/a
2148247	WORD	wordpools/wasnorm_wordpool_576.txt	LTP123	ltpFR2	15	10	WAGON	1578	n/a	n/a	0	0	0
2150682	WORD	wordpools/wasnorm_wordpool_576.txt	LTP123	ltpFR2	15	10	TURTLE	1522	n/a	n/a	0	0	0
2153386	WORD	wordpools/wasnorm_wordpool_576.txt	LTP123	ltpFR2	15	10	TWEEZERS	1526	n/a	n/a	0	0	0
2155836	WORD	wordpools/wasnorm_wordpool_576.txt	LTP123	ltpFR2	15	10	TOASTER	1472	n/a	n/a	0	0	0
2158422	WORD	wordpools/wasnorm_wordpool_576.txt	LTP123	ltpFR2	15	10	HAWK	692	n/a	n/a	0	0	0
2160973	WORD	wordpools/wasnorm_wordpool_576.txt	LTP123	ltpFR2	15	10	BOUQUET	157	n/a	n/a	0	0	0
2163611	WORD	wordpools/wasnorm_wordpool_576.txt	LTP123	ltpFR2	15	10	SPHINX	1349	n/a	n/a	0	0	0
2166345	WORD	wordpools/wasnorm_wordpool_576.txt	LTP123	ltpFR2	15	10	TAXI	1438	n/a	n/a	0	0	0
2168797	WORD	wordpools/wasnorm_wordpool_576.txt	LTP123	ltpFR2	15	10	MARINE	869	n/a	n/a	0	0	0
2171367	WORD	wordpools/wasnorm_wordpool_576.txt	LTP123	ltpFR2	15	10	LAKE	796	n/a	n/a	0	0	0
2173817	WORD	wordpools/wasnorm_wordpool_576.txt	LTP123	ltpFR2	15	10	NIGHTGOWN	953	n/a	n/a	0	0	0
2176320	WORD	wordpools/wasnorm_wordpool_576.txt	LTP123	ltpFR2	15	10	GYMNAST	675	n/a	n/a	0	0	0
2179021	WORD	wordpools/wasnorm_wordpool_576.txt	LTP123	ltpFR2	15	10	COMPASS	358	n/a	n/a	0	0	0
2181573	WORD	wordpools/wasnorm_wordpool_576.txt	LTP123	ltpFR2	15	10	EYELASH	546	n/a	n/a	0	0	0
2184243	WORD	wordpools/wasnorm_wordpool_576.txt	LTP123	ltpFR2	15	10	EGYPT	519	n/a	n/a	0	0	0
2186911	WORD	wordpools/wasnorm_wordpool_576.txt	LTP123	ltpFR2	15	10	LIGHTNING	820	n/a	n/a	0	0	0
2189648	WORD	wordpools/wasnorm_wordpool_576.txt	LTP123	ltpFR2	15	10	BREAST	171	n/a	n/a	0	0	0
2192199	WORD	wordpools/wasnorm_wordpool_576.txt	LTP123	ltpFR2	15	10	LAPEL	800	n/a	n/a	0	0	0
2194684	WORD	wordpools/wasnorm_wordpool_576.txt	LTP123	ltpFR2	15	10	KETCHUP	771	n/a	n/a	0	0	0
2197305	WORD	wordpools/wasnorm_wordpool_576.txt	LTP123	ltpFR2	15	10	CLOUD	328	n/a	n/a	0	0	0
2200021	WORD	wordpools/wasnorm_wordpool_576.txt	LTP123	ltpFR2	15	10	CHEMIST	292	n/a	n/a	0	0	0
2202606	WORD	wordpools/wasnorm_wordpool_576.txt	LTP123	ltpFR2	15	10	FLASK	576	n/a	n/a	0	0	0
2205410	WORD	wordpools/wasnorm_wordpool_576.txt	LTP123	ltpFR2	15	10	SODA	1341	n/a	n/a	0	0	0
2207978	WORD	wordpools/wasnorm_wordpool_576.txt	LTP123	ltpFR2	15	10	CAFE	216	n/a	n/a	0	0	0
2209597	START	n/a	LTP123	ltpFR2	15	n/a	n/a	n/a	15	n/a	n/a	n/a	n/a
2210592	DISTRACTOR	n/a	LTP123	ltpFR2	15	10	n/a	n/a	n/a	n/a	0	0	0
2210613	PROB	n/a	LTP123	ltpFR2	15	n/a	n/a	n/a	15	9	1	4	4
2212561	PROB	n/a	LTP123	ltpFR2	15	n/a	n/a	n/a	15	18	7	7	4
2214235	PROB	n/a	LTP123	ltpFR2	15	n/a	n/a	n/a	15	16	2	7	7
2215697	PROB	n/a	LTP123	ltpFR2	15	n/a	n/a	n/a	15	11	4	5	2
2217052	PROB	n/a	LTP123	ltpFR2	15	n/a	n/a	n/a	15	24	9	8	7
2219121	PROB	n/a	LTP123	ltpFR2	15	n/a	n/a	n/a	15	13	5	6	2
2220556	PROB	n/a	LTP123	ltpFR2	15	n/a	n/a	n/a	15	19	8	2	9
2221706	PROB	n/a	LTP123	ltpFR2	15	n/a	n/a	n/a	15	12	1	3	8
2223103	PROB	n/a	LTP123	ltpFR2	15	n/a	n/a	n/a	15	9	2	1	6
2225343	PROB	n/a	LTP123	ltpFR2	15	n/a	n/a	n/a	15	15	3	9	3
2226961	PROB	n/a	LTP123	ltpFR2	15	n/a	n/a	n/a	15	13	3	9	1
2228595	PROB	n/a	LTP123	ltpFR2	15	n/a	n/a	n/a	15	12	7	4	1
2233597	STOP	n/a	LTP123	ltpFR2	15	n/a	n/a	n/a	15	n/a	n/a	n/a	n/a
2235414	REC_START	n/a	LTP123	ltpFR2	15	10	n/a	n/a	n/a	n/a	0	0	0
2236852	REC_WORD	wordpools/wasnorm_wordpool_576.txt	LTP123	ltpFR2	15	10	BOUQUET	157	n/a	n/a	0	0	0
2239119	REC_WORD	wordpools/wasnorm_wordpool_576.txt	LTP123	ltpFR2	15	10	LAPEL	800	n/a	n/a	0	0	0
2241526	REC_WORD	wordpools/wasnorm_wordpool_576.txt	LTP123	ltpFR2	15	10	CHEMIST	292	n/a	n/a	0	0	0
2242608	REC_WORD	wordpools/wasnorm_wordpool_576.txt	LTP123	ltpFR2	15	10	FLASK	576	n/a	n/a	0	0	0
2244921	REC_WORD	wordpools/wasnorm_wordpool_576.txt	LTP123	ltpFR2	15	10	EGYPT	519	n/a	n/a	0	0	0
2245400	REC_WORD	wordpools/wasnorm_wordpool_576.txt	LTP123	ltpFR2	15	10	SPHINX	1349	n/a	n/a	0	0	0
2255003	REC_WORD	wordpools/wasnorm_wordpool_576.txt	LTP123	ltpFR2	15	10	GYMNAST	675	n/a	n/a	0	0	0
2255615	REC_WORD	wordpools/wasnorm_wordpool_576.txt	LTP123	ltpFR2	15	10	NIGHTGOWN	953	n/a	n/a	0	0	0
2266397	REC_WORD	wordpools/wasnorm_wordpool_576.txt	LTP123	ltpFR2	15	10	TURTLE	1522	n/a	n/a	0	0	0
2267455	REC_WORD	wordpools/wasnorm_wordpool_576.txt	LTP123	ltpFR2	15	10	WAGON	1578	n/a	n/a	0	0	0
2269160	REC_WORD	wordpools/wasnorm_wordpool_576.txt	LTP123	ltpFR2	15	10	TAXI	1438	n/a	n/a	0	0	0
2270046	REC_WORD	wordpools/wasnorm_wordpool_576.txt	LTP123	ltpFR2	15	10	SUBWAY	1400	n/a	n/a	0	0	0
2275475	REC_WORD	wordpools/wasnorm_wordpool_576.txt	LTP123	ltpFR2	15	10	HAWK	692	n/a	n/a	0	0	0
2325873	DISTRACTOR	n/a	LTP123	ltpFR2	15	11	n/a	n/a	n/a	n/a	0	0	0
2325873	START	n/a	LTP123	ltpFR2	15	n/a	n/a	n/a	16	n/a	n/a	n/a	n/a
2325890	PROB	n/a	LTP123	ltpFR2	15	n/a	n/a	n/a	16	18	3	6	9
2328742	PROB	n/a	LTP123	ltpFR2	15	n/a	n/a	n/a	16	13	2	9	2
2330239	PROB	n/a	LTP123	ltpFR2	15	n/a	n/a	n/a	16	21	5	8	8
2331811	PROB	n/a	LTP123	ltpFR2	15	n/a	n/a	n/a	16	11	2	5	4
2333596	PROB	n/a	LTP123	ltpFR2	15	n/a	n/a	n/a	16	9	3	3	3
2334762	PROB	n/a	LTP123	ltpFR2	15	n/a	n/a	n/a	16	14	2	5	7
2336181	PROB	n/a	LTP123	ltpFR2	15	n/a	n/a	n/a	16	11	9	1	1
2337266	PROB	n/a	LTP123	ltpFR2	15	n/a	n/a	n/a	16	11	4	2	5
2338862	PROB	n/a	LTP123	ltpFR2	15	n/a	n/a	n/a	16	12	2	6	4
2340101	PROB	n/a	LTP123	ltpFR2	15	n/a	n/a	n/a	16	16	5	7	4
2341931	PROB	n/a	LTP123	ltpFR2	15	n/a	n/a	n/a	16	14	2	3	9
2343499	PROB	n/a	LTP123	ltpFR2	15	n/a	n/a	n/a	16	23	9	5	9
2345434	PROB	n/a	LTP123	ltpFR2	15	n/a	n/a	n/a	16	13	1	6	6
2346789	PROB	n/a	LTP123	ltpFR2	15	n/a	n/a	n/a	16	17	3	6	8
2348343	STOP	n/a	LTP123	ltpFR2	15	n/a	n/a	n/a	16	n/a	n/a	n/a	n/a
2350810	WORD	wordpools/wasnorm_wordpool_576.txt	LTP123	ltpFR2	15	11	PADDLE	1000	n/a	n/a	0	0	0
2353361	WORD	wordpools/wasnorm_wordpool_576.txt	LTP123	ltpFR2	15	11	SEAGULL	1261	n/a	n/a	0	0	0
2355929	WORD	wordpools/wasnorm_wordpool_576.txt	LTP123	ltpFR2	15	11	PARROT	1015	n/a	n/a	0	0	0
2358681	WORD	wordpools/wasnorm_wordpool_576.txt	LTP123	ltpFR2	15	11	OUTDOORS	987	n/a	n/a	0	0	0
2361135	WORD	wordpools/wasnorm_wordpool_576.txt	LTP123	ltpFR2	15	11	COSTUME	383	n/a	n/a	0	0	0
2363735	WORD	wordpools/wasnorm_wordpool_576.txt	LTP123	ltpFR2	15	11	RATTLE	1170	n/a	n/a	0	0	0
2366454	WORD	wordpools/wasnorm_wordpool_576.txt	LTP123	ltpFR2	15	11	PERMIT	1051	n/a	n/a	0	0	0
2369040	WORD	wordpools/wasnorm_wordpool_576.txt	LTP123	ltpFR2	15	11	STICKER	1382	n/a	n/a	0	0	0
2371592	WORD	wordpools/wasnorm_wordpool_576.txt	LTP123	ltpFR2	15	11	BRANCH	168	n/a	n/a	0	0	0
2374143	WORD	wordpools/wasnorm_wordpool_576.txt	LTP123	ltpFR2	15	11	IGLOO	734	n/a	n/a	0	0	0
2376963	WORD	wordpools/wasnorm_wordpool_576.txt	LTP123	ltpFR2	15	11	KLEENEX	782	n/a	n/a	0	0	0
2379448	WORD	wordpools/wasnorm_wordpool_576.txt	LTP123	ltpFR2	15	11	GUITAR	670	n/a	n/a	0	0	0
2382100	WORD	wordpools/wasnorm_wordpool_576.txt	LTP123	ltpFR2	15	11	WHISTLE	1606	n/a	n/a	0	0	0
2384702	WORD	wordpools/wasnorm_wordpool_576.txt	LTP123	ltpFR2	15	11	ROBBER	1197	n/a	n/a	0	0	0
2387187	WORD	wordpools/wasnorm_wordpool_576.txt	LTP123	ltpFR2	15	11	CIGAR	308	n/a	n/a	0	0	0
2389873	WORD	wordpools/wasnorm_wordpool_576.txt	LTP123	ltpFR2	15	11	PLAID	1080	n/a	n/a	0	0	0
2392343	WORD	wordpools/wasnorm_wordpool_576.txt	LTP123	ltpFR2	15	11	SPOOL	1356	n/a	n/a	0	0	0
2395060	WORD	wordpools/wasnorm_wordpool_576.txt	LTP123	ltpFR2	15	11	TURKEY	1520	n/a	n/a	0	0	0
2397729	WORD	wordpools/wasnorm_wordpool_576.txt	LTP123	ltpFR2	15	11	DASHBOARD	441	n/a	n/a	0	0	0
2400333	WORD	wordpools/wasnorm_wordpool_576.txt	LTP123	ltpFR2	15	11	WITNESS	1618	n/a	n/a	0	0	0
2402817	WORD	wordpools/wasnorm_wordpool_576.txt	LTP123	ltpFR2	15	11	LAMP	798	n/a	n/a	0	0	0
2405286	WORD	wordpools/wasnorm_wordpool_576.txt	LTP123	ltpFR2	15	11	BRAKE	166	n/a	n/a	0	0	0
2407837	WORD	wordpools/wasnorm_wordpool_576.txt	LTP123	ltpFR2	15	11	BUBBLE	183	n/a	n/a	0	0	0
2410657	WORD	wordpools/wasnorm_wordpool_576.txt	LTP123	ltpFR2	15	11	JURY	766	n/a	n/a	0	0	0
2412276	START	n/a	LTP123	ltpFR2	15	n/a	n/a	n/a	17	n/a	n/a	n/a	n/a
2413304	DISTRACTOR	n/a	LTP123	ltpFR2	15	11	n/a	n/a	n/a	n/a	0	0	0
2413326	PROB	n/a	LTP123	ltpFR2	15	n/a	n/a	n/a	17	19	7	8	4
2415329	PROB	n/a	LTP123	ltpFR2	15	n/a	n/a	n/a	17	13	1	9	3
2416709	PROB	n/a	LTP123	ltpFR2	15	n/a	n/a	n/a	17	15	1	7	7
2418026	PROB	n/a	LTP123	ltpFR2	15	n/a	n/a	n/a	17	13	2	4	7
2419526	PROB	n/a	LTP123	ltpFR2	15	n/a	n/a	n/a	17	13	2	5	6
2421028	PROB	n/a	LTP123	ltpFR2	15	n/a	n/a	n/a	17	22	4	9	9
2422645	PROB	n/a	LTP123	ltpFR2	15	n/a	n/a	n/a	17	15	2	7	6
2424418	PROB	n/a	LTP123	ltpFR2	15	n/a	n/a	n/a	17	17	2	9	6
2426665	PROB	n/a	LTP123	ltpFR2	15	n/a	n/a	n/a	17	13	9	3	1
2428021	PROB	n/a	LTP123	ltpFR2	15	n/a	n/a	n/a	17	13	5	7	1
2430302	PROB	n/a	LTP123	ltpFR2	15	n/a	n/a	n/a	17	17	6	8	3
2432725	PROB	n/a	LTP123	ltpFR2	15	n/a	n/a	n/a	17	12	6	2	4
2434142	PROB	n/a	LTP123	ltpFR2	15	n/a	n/a	n/a	17	15	1	5	9
2435505	STOP	n/a	LTP123	ltpFR2	15	n/a	n/a	n/a	17	n/a	n/a	n/a	n/a
2438079	REC_START	n/a	LTP123	ltpFR2	15	11	n/a	n/a	n/a	n/a	0	0	0
2438811	REC_WORD	wordpools/wasnorm_wordpool_576.txt	LTP123	ltpFR2	15	11	KLEENEX	782	n/a	n/a	0	0	0
2439935	REC_WORD	wordpools/wasnorm_wordpool_576.txt	LTP123	ltpFR2	15	11	LAMP	798	n/a	n/a	0	0	0
2444087	REC_WORD	wordpools/wasnorm_wordpool_576.txt	LTP123	ltpFR2	15	11	OUTDOORS	987	n/a	n/a	0	0	0
2445087	REC_WORD_VV	wordpools/wasnorm_wordpool_576.txt	LTP123	ltpFR2	15	11	<>	-1	n/a	n/a	0	0	0
2446087	REC_WORD_VV	wordpools/wasnorm_wordpool_576.txt	LTP123	ltpFR2	15	11	<>	-1	n/a	n/a	0	0	0
2448238	REC_WORD	wordpools/wasnorm_wordpool_576.txt	LTP123	ltpFR2	15	11	PADDLE	1000	n/a	n/a	0	0	0
2449685	REC_WORD_VV	wordpools/wasnorm_wordpool_576.txt	LTP123	ltpFR2	15	11	<>	-1	n/a	n/a	0	0	0
2452884	REC_WORD	wordpools/wasnorm_wordpool_576.txt	LTP123	ltpFR2	15	11	PARROT	1015	n/a	n/a	0	0	0
2453435	REC_WORD	wordpools/wasnorm_wordpool_576.txt	LTP123	ltpFR2	15	11	SEAGULL	1261	n/a	n/a	0	0	0
2457715	REC_WORD	wordpools/wasnorm_wordpool_576.txt	LTP123	ltpFR2	15	11	CIGAR	308	n/a	n/a	0	0	0
2458519	REC_WORD	wordpools/wasnorm_wordpool_576.txt	LTP123	ltpFR2	15	11	PLAID	1080	n/a	n/a	0	0	0
2461729	REC_WORD	wordpools/wasnorm_wordpool_576.txt	LTP123	ltpFR2	15	11	IGLOO	734	n/a	n/a	0	0	0
2465367	REC_WORD	wordpools/wasnorm_wordpool_576.txt	LTP123	ltpFR2	15	11	RAFT	1159	n/a	n/a	0	0	0
2467100	REC_WORD	wordpools/wasnorm_wordpool_576.txt	LTP123	ltpFR2	15	11	LAKE	796	n/a	n/a	0	0	0
2472558	REC_WORD	wordpools/wasnorm_wordpool_576.txt	LTP123	ltpFR2	15	11	ROBBER	1197	n/a	n/a	0	0	0
2473946	REC_WORD	wordpools/wasnorm_wordpool_576.txt	LTP123	ltpFR2	15	11	JURY	766	n/a	n/a	0	0	0
2509289	REC_WORD	wordpools/wasnorm_wordpool_576.txt	LTP123	ltpFR2	15	11	CLOUD	328	n/a	n/a	0	0	0
2528535	DISTRACTOR	n/a	LTP123	ltpFR2	15	12	n/a	n/a	n/a	n/a	0	0	0
2528535	START	n/a	LTP123	ltpFR2	15	n/a	n/a	n/a	18	n/a	n/a	n/a	n/a
2528552	PROB	n/a	LTP123	ltpFR2	15	n/a	n/a	n/a	18	12	6	5	1
2530282	PROB	n/a	LTP123	ltpFR2	15	n/a	n/a	n/a	18	13	1	6	6
2531749	PROB	n/a	LTP123	ltpFR2	15	n/a	n/a	n/a	18	19	9	4	6
2533189	PROB	n/a	LTP123	ltpFR2	15	n/a	n/a	n/a	18	15	3	7	5
2534656	PROB	n/a	LTP123	ltpFR2	15	n/a	n/a	n/a	18	15	7	1	7
2535919	PROB	n/a	LTP123	ltpFR2	15	n/a	n/a	n/a	18	13	3	6	4
2537103	PROB	n/a	LTP123	ltpFR2	15	n/a	n/a	n/a	18	15	8	4	3
2538760	PROB	n/a	LTP123	ltpFR2	15	n/a	n/a	n/a	18	18	6	7	5
2540994	PROB	n/a	LTP123	ltpFR2	15	n/a	n/a	n/a	18	16	5	6	5
2542297	PROB	n/a	LTP123	ltpFR2	15	n/a	n/a	n/a	18	14	6	4	4
2543725	PROB	n/a	LTP123	ltpFR2	15	n/a	n/a	n/a	18	20	2	9	9
2545431	PROB	n/a	LTP123	ltpFR2	15	n/a	n/a	n/a	18	16	9	5	2
2547433	PROB	n/a	LTP123	ltpFR2	15	n/a	n/a	n/a	18	16	7	2	7
2548799	PROB	n/a	LTP123	ltpFR2	15	n/a	n/a	n/a	18	10	4	5	1
2550169	PROB	n/a	LTP123	ltpFR2	15	n/a	n/a	n/a	18	12	5	4	3
2551749	STOP	n/a	LTP123	ltpFR2	15	n/a	n/a	n/a	18	n/a	n/a	n/a	n/a
2553587	WORD	wordpools/wasnorm_wordpool_576.txt	LTP123	ltpFR2	15	12	ANKLE	24	n/a	n/a	0	0	0
2556240	WORD	wordpools/wasnorm_wordpool_576.txt	LTP123	ltpFR2	15	12	SNAIL	1332	n/a	n/a	0	0	0
2558941	WORD	wordpools/wasnorm_wordpool_576.txt	LTP123	ltpFR2	15	12	OYSTER	995	n/a	n/a	0	0	0
2561443	WORD	wordpools/wasnorm_wordpool_576.txt	LTP123	ltpFR2	15	12	WHISKERS	1605	n/a	n/a	0	0	0
2564063	WORD	wordpools/wasnorm_wordpool_576.txt	LTP123	ltpFR2	15	12	CREVICE	405	n/a	n/a	0	0	0
2566681	WORD	wordpools/wasnorm_wordpool_576.txt	LTP123	ltpFR2	15	12	SPARROW	1347	n/a	n/a	0	0	0
2569166	WORD	wordpools/wasnorm_wordpool_576.txt	LTP123	ltpFR2	15	12	PIGEON	1065	n/a	n/a	0	0	0
2571702	WORD	wordpools/wasnorm_wordpool_576.txt	LTP123	ltpFR2	15	12	PANTHER	1009	n/a	n/a	0	0	0
2574355	WORD	wordpools/wasnorm_wordpool_576.txt	LTP123	ltpFR2	15	12	LION	827	n/a	n/a	0	0	0
2577122	WORD	wordpools/wasnorm_wordpool_576.txt	LTP123	ltpFR2	15	12	LADDER	793	n/a	n/a	0	0	0
2579791	WORD	wordpools/wasnorm_wordpool_576.txt	LTP123	ltpFR2	15	12	SERVANT	1271	n/a	n/a	0	0	0
2582610	WORD	wordpools/wasnorm_wordpool_576.txt	LTP123	ltpFR2	15	12	DONOR	485	n/a	n/a	0	0	0
2585247	WORD	wordpools/wasnorm_wordpool_576.txt	LTP123	ltpFR2	15	12	GLASS	639	n/a	n/a	0	0	0
2588031	WORD	wordpools/wasnorm_wordpool_576.txt	LTP123	ltpFR2	15	12	RACKET	1155	n/a	n/a	0	0	0
2590500	WORD	wordpools/wasnorm_wordpool_576.txt	LTP123	ltpFR2	15	12	GAVEL	627	n/a	n/a	0	0	0
2593119	WORD	wordpools/wasnorm_wordpool_576.txt	LTP123	ltpFR2	15	12	HEADBAND	696	n/a	n/a	0	0	0
2595871	WORD	wordpools/wasnorm_wordpool_576.txt	LTP123	ltpFR2	15	12	WIDOW	1608	n/a	n/a	0	0	0
2598540	WORD	wordpools/wasnorm_wordpool_576.txt	LTP123	ltpFR2	15	12	DOUGHNUT	490	n/a	n/a	0	0	0
2601244	WORD	wordpools/wasnorm_wordpool_576.txt	LTP123	ltpFR2	15	12	PLATE	1086	n/a	n/a	0	0	0
2604044	WORD	wordpools/wasnorm_wordpool_576.txt	LTP123	ltpFR2	15	12	HORNET	718	n/a	n/a	0	0	0
2606813	WORD	wordpools/wasnorm_wordpool_576.txt	LTP123	ltpFR2	15	12	LAVA	804	n/a	n/a	0	0	0
2609416	WORD	wordpools/wasnorm_wordpool_576.txt	LTP123	ltpFR2	15	12	GRIZZLY	662	n/a	n/a	0	0	0
2611900	WORD	wordpools/wasnorm_wordpool_576.txt	LTP123	ltpFR2	15	12	HEART	697	n/a	n/a	0	0	0
2614585	WORD	wordpools/wasnorm_wordpool_576.txt	LTP123	ltpFR2	15	12	PILOT	1070	n/a	n/a	0	0	0
2616205	START	n/a	LTP123	ltpFR2	15	n/a	n/a	n/a	19	n/a	n/a	n/a	n/a
2617255	DISTRACTOR	n/a	LTP123	ltpFR2	15	12	n/a	n/a	n/a	n/a	0	0	0
2617272	PROB	n/a	LTP123	ltpFR2	15	n/a	n/a	n/a	19	18	1	8	9
2619275	PROB	n/a	LTP123	ltpFR2	15	n/a	n/a	n/a	19	9	2	1	6
2620874	PROB	n/a	LTP123	ltpFR2	15	n/a	n/a	n/a	19	11	3	5	3
2622505	PROB	n/a	LTP123	ltpFR2	15	n/a	n/a	n/a	19	5	1	1	3
2623760	PROB	n/a	LTP123	ltpFR2	15	n/a	n/a	n/a	19	11	3	4	4
2625429	PROB	n/a	LTP123	ltpFR2	15	n/a	n/a	n/a	19	14	5	3	6
2627298	PROB	n/a	LTP123	ltpFR2	15	n/a	n/a	n/a	19	8	2	5	1
2629028	PROB	n/a	LTP123	ltpFR2	15	n/a	n/a	n/a	19	9	2	3	4
2630665	PROB	n/a	LTP123	ltpFR2	15	n/a	n/a	n/a	19	8	6	1	1
2631817	PROB	n/a	LTP123	ltpFR2	15	n/a	n/a	n/a	19	13	3	3	7
2633170	PROB	n/a	LTP123	ltpFR2	15	n/a	n/a	n/a	19	13	4	3	6
2635003	PROB	n/a	LTP123	ltpFR2	15	n/a	n/a	n/a	19	13	7	2	4
2636667	PROB	n/a	LTP123	ltpFR2	15	n/a	n/a	n/a	19	18	9	6	3
2640205	STOP	n/a	LTP123	ltpFR2	15	n/a	n/a	n/a	19	n/a	n/a	n/a	n/a
2642109	REC_START	n/a	LTP123	ltpFR2	15	12	n/a	n/a	n/a	n/a	0	0	0
2642539	REC_WORD	wordpools/wasnorm_wordpool_576.txt	LTP123	ltpFR2	15	12	CREVICE	405	n/a	n/a	0	0	0
2644475	REC_WORD	wordpools/wasnorm_wordpool_576.txt	LTP123	ltpFR2	15	12	LION	827	n/a	n/a	0	0	0
2645613	REC_WORD	wordpools/wasnorm_wordpool_576.txt	LTP123	ltpFR2	15	12	PANTHER	1009	n/a	n/a	0	0	0
2646930	REC_WORD	wordpools/wasnorm_wordpool_576.txt	LTP123	ltpFR2	15	12	ANKLE	24	n/a	n/a	0	0	0
2648271	REC_WORD	wordpools/wasnorm_wordpool_576.txt	LTP123	ltpFR2	15	12	HEADBAND	696	n/a	n/a	0	0	0
2655969	REC_WORD	wordpools/wasnorm_wordpool_576.txt	LTP123	ltpFR2	15	12	PILOT	1070	n/a	n/a	0	0	0
2657702	REC_WORD	wordpools/wasnorm_wordpool_576.txt	LTP123	ltpFR2	15	12	DONOR	485	n/a	n/a	0	0	0
2658215	REC_WORD	wordpools/wasnorm_wordpool_576.txt	LTP123	ltpFR2	15	12	HEART	697	n/a	n/a	0	0	0
2658964	REC_WORD	wordpools/wasnorm_wordpool_576.txt	LTP123	ltpFR2	15	12	WIDOW	1608	n/a	n/a	0	0	0
2673646	REC_WORD	wordpools/wasnorm_wordpool_576.txt	LTP123	ltpFR2	15	12	GLASS	639	n/a	n/a	0	0	0
2693731	REC_WORD	wordpools/wasnorm_wordpool_576.txt	LTP123	ltpFR2	15	12	SPARROW	1347	n/a	n/a	0	0	0
2732564	DISTRACTOR	n/a	LTP123	ltpFR2	15	13	n/a	n/a	n/a	n/a	0	0	0
2732564	START	n/a	LTP123	ltpFR2	15	n/a	n/a	n/a	20	n/a	n/a	n/a	n/a
2732576	PROB	n/a	LTP123	ltpFR2	15	n/a	n/a	n/a	20	21	4	8	9
2735466	PROB	n/a	LTP123	ltpFR2	15	n/a	n/a	n/a	20	18	6	4	8
2736700	PROB	n/a	LTP123	ltpFR2	15	n/a	n/a	n/a	20	15	9	2	4
2738881	PROB	n/a	LTP123	ltpFR2	15	n/a	n/a	n/a	20	12	8	3	1
2740132	PROB	n/a	LTP123	ltpFR2	15	n/a	n/a	n/a	20	15	6	7	2
2741688	PROB	n/a	LTP123	ltpFR2	15	n/a	n/a	n/a	20	25	9	8	8
2744190	PROB	n/a	LTP123	ltpFR2	15	n/a	n/a	n/a	20	21	9	4	8
2746725	PROB	n/a	LTP123	ltpFR2	15	n/a	n/a	n/a	20	10	1	1	8
2747943	PROB	n/a	LTP123	ltpFR2	15	n/a	n/a	n/a	20	9	7	1	1
2749364	PROB	n/a	LTP123	ltpFR2	15	n/a	n/a	n/a	20	18	7	9	2
2751330	PROB	n/a	LTP123	ltpFR2	15	n/a	n/a	n/a	20	15	2	8	5
2752580	PROB	n/a	LTP123	ltpFR2	15	n/a	n/a	n/a	20	12	2	6	4
2753884	PROB	n/a	LTP123	ltpFR2	15	n/a	n/a	n/a	20	22	6	8	8
2755725	STOP	n/a	LTP123	ltpFR2	15	n/a	n/a	n/a	20	n/a	n/a	n/a	n/a
2757600	WORD	wordpools/wasnorm_wordpool_576.txt	LTP123	ltpFR2	15	13	RIFLE	1192	n/a	n/a	0	0	0
2760253	WORD	wordpools/wasnorm_wordpool_576.txt	LTP123	ltpFR2	15	13	ISLAND	745	n/a	n/a	0	0	0
2762987	WORD	wordpools/wasnorm_wordpool_576.txt	LTP123	ltpFR2	15	13	COLONEL	348	n/a	n/a	0	0	0
2765773	WORD	wordpools/wasnorm_wordpool_576.txt	LTP123	ltpFR2	15	13	PISTON	1076	n/a	n/a	0	0	0
2768276	WORD	wordpools/wasnorm_wordpool_576.txt	LTP123	ltpFR2	15	13	FLOWER	584	n/a	n/a	0	0	0
2770710	WORD	wordpools/wasnorm_wordpool_576.txt	LTP123	ltpFR2	15	13	VIRUS	1572	n/a	n/a	0	0	0
2773446	WORD	wordpools/wasnorm_wordpool_576.txt	LTP123	ltpFR2	15	13	DENIM	446	n/a	n/a	0	0	0
2776164	WORD	wordpools/wasnorm_wordpool_576.txt	LTP123	ltpFR2	15	13	COCOON	339	n/a	n/a	0	0	0
2778685	WORD	wordpools/wasnorm_wordpool_576.txt	LTP123	ltpFR2	15	13	CRITIC	410	n/a	n/a	0	0	0
2781435	WORD	wordpools/wasnorm_wordpool_576.txt	LTP123	ltpFR2	15	13	LASER	801	n/a	n/a	0	0	0
2783937	WORD	wordpools/wasnorm_wordpool_576.txt	LTP123	ltpFR2	15	13	TUBA	1515	n/a	n/a	0	0	0
2786390	WORD	wordpools/wasnorm_wordpool_576.txt	LTP123	ltpFR2	15	13	HIGHWAY	707	n/a	n/a	0	0	0
2788841	WORD	wordpools/wasnorm_wordpool_576.txt	LTP123	ltpFR2	15	13	TRANSPLANT	1496	n/a	n/a	0	0	0
2791493	WORD	wordpools/wasnorm_wordpool_576.txt	LTP123	ltpFR2	15	13	THREAD	1460	n/a	n/a	0	0	0
2794062	WORD	wordpools/wasnorm_wordpool_576.txt	LTP123	ltpFR2	15	13	ASIA	46	n/a	n/a	0	0	0
2796581	WORD	wordpools/wasnorm_wordpool_576.txt	LTP123	ltpFR2	15	13	COUNTRY	388	n/a	n/a	0	0	0
2799334	WORD	wordpools/wasnorm_wordpool_576.txt	LTP123	ltpFR2	15	13	OINTMENT	974	n/a	n/a	0	0	0
2802135	WORD	wordpools/wasnorm_wordpool_576.txt	LTP123	ltpFR2	15	13	GOBLIN	645	n/a	n/a	0	0	0
2804721	WORD	wordpools/wasnorm_wordpool_576.txt	LTP123	ltpFR2	15	13	CREATURE	403	n/a	n/a	0	0	0
2807357	WORD	wordpools/wasnorm_wordpool_576.txt	LTP123	ltpFR2	15	13	CURTAIN	427	n/a	n/a	0	0	0
2810125	WORD	wordpools/wasnorm_wordpool_576.txt	LTP123	ltpFR2	15	13	RUST	1219	n/a	n/a	0	0	0
2812810	WORD	wordpools/wasnorm_wordpool_576.txt	LTP123	ltpFR2	15	13	TORTOISE	1486	n/a	n/a	0	0	0
2815363	WORD	wordpools/wasnorm_wordpool_576.txt	LTP123	ltpFR2	15	13	HARP	689	n/a	n/a	0	0	0
2818031	WORD	wordpools/wasnorm_wordpool_576.txt	LTP123	ltpFR2	15	13	WINDOW	1611	n/a	n/a	0	0	0
2819650	START	n/a	LTP123	ltpFR2	15	n/a	n/a	n/a	21	n/a	n/a	n/a	n/a
2820653	DISTRACTOR	n/a	LTP123	ltpFR2	15	13	n/a	n/a	n/a	n/a	0	0	0
2820667	PROB	n/a	LTP123	ltpFR2	15	n/a	n/a	n/a	21	12	5	1	6
2822853	PROB	n/a	LTP123	ltpFR2	15	n/a	n/a	n/a	21	20	4	9	7
2824567	PROB	n/a	LTP123	ltpFR2	15	n/a	n/a	n/a	21	12	5	1	6
2826252	PROB	n/a	LTP123	ltpFR2	15	n/a	n/a	n/a	21	20	6	7	7
2828258	PROB	n/a	LTP123	ltpFR2	15	n/a	n/a	n/a	21	19	9	8	2
2829675	PROB	n/a	LTP123	ltpFR2	15	n/a	n/a	n/a	21	10	5	2	3
2831277	PROB	n/a	LTP123	ltpFR2	15	n/a	n/a	n/a	21	15	6	3	6
2834079	PROB	n/a	LTP123	ltpFR2	15	n/a	n/a	n/a	21	14	5	7	2
2835813	PROB	n/a	LTP123	ltpFR2	15	n/a	n/a	n/a	21	14	3	3	8
2837661	PROB	n/a	LTP123	ltpFR2	15	n/a	n/a	n/a	21	16	8	3	5
2840017	PROB	n/a	LTP123	ltpFR2	15	n/a	n/a	n/a	21	12	7	1	4
2841417	PROB	n/a	LTP123	ltpFR2	15	n/a	n/a	n/a	21	13	8	1	4
2843192	STOP	n/a	LTP123	ltpFR2	15	n/a	n/a	n/a	21	n/a	n/a	n/a	n/a
2845587	REC_START	n/a	LTP123	ltpFR2	15	13	n/a	n/a	n/a	n/a	0	0	0
2845768	REC_WORD	wordpools/wasnorm_wordpool_576.txt	LTP123	ltpFR2	15	13	HARP	689	n/a	n/a	0	0	0
2846300	REC_WORD	wordpools/wasnorm_wordpool_576.txt	LTP123	ltpFR2	15	13	COCOON	339	n/a	n/a	0	0	0
2847168	REC_WORD	wordpools/wasnorm_wordpool_576.txt	LTP123	ltpFR2	15	13	TORTOISE	1486	n/a	n/a	0	0	0
2848694	REC_WORD	wordpools/wasnorm_wordpool_576.txt	LTP123	ltpFR2	15	13	THREAD	1460	n/a	n/a	0	0	0
2850489	REC_WORD	wordpools/wasnorm_wordpool_576.txt	LTP123	ltpFR2	15	13	CURTAIN	427	n/a	n/a	0	0	0
2850927	REC_WORD	wordpools/wasnorm_wordpool_576.txt	LTP123	ltpFR2	15	13	WINDOW	1611	n/a	n/a	0	0	0
2857977	REC_WORD	wordpools/wasnorm_wordpool_576.txt	LTP123	ltpFR2	15	13	COLONEL	348	n/a	n/a	0	0	0
2859601	REC_WORD	wordpools/wasnorm_wordpool_576.txt	LTP123	ltpFR2	15	13	PISTON	1076	n/a	n/a	0	0	0
2860572	REC_WORD	wordpools/wasnorm_wordpool_576.txt	LTP123	ltpFR2	15	13	RIFLE	1192	n/a	n/a	0	0	0
2865939	REC_WORD	wordpools/wasnorm_wordpool_576.txt	LTP123	ltpFR2	15	13	ISLAND	745	n/a	n/a	0	0	0
2866558	REC_WORD	wordpools/wasnorm_wordpool_576.txt	LTP123	ltpFR2	15	13	FLOWER	584	n/a	n/a	0	0	0
2869224	REC_WORD	wordpools/wasnorm_wordpool_576.txt	LTP123	ltpFR2	15	13	VIRUS	1572	n/a	n/a	0	0	0
2869917	REC_WORD	wordpools/wasnorm_wordpool_576.txt	LTP123	ltpFR2	15	13	DENIM	446	n/a	n/a	0	0	0
2891980	REC_WORD	wordpools/wasnorm_wordpool_576.txt	LTP123	ltpFR2	15	13	OINTMENT	974	n/a	n/a	0	0	0
2897415	REC_WORD	wordpools/wasnorm_wordpool_576.txt	LTP123	ltpFR2	15	13	CRITIC	410	n/a	n/a	0	0	0
2936060	WORD	wordpools/wasnorm_wordpool_576.txt	LTP123	ltpFR2	15	14	QUAIL	1147	n/a	n/a	0	0	0
2938527	WORD	wordpools/wasnorm_wordpool_576.txt	LTP123	ltpFR2	15	14	WASHER	1592	n/a	n/a	0	0	0
2941314	WORD	wordpools/wasnorm_wordpool_576.txt	LTP123	ltpFR2	15	14	MESSAGE	888	n/a	n/a	0	0	0
2943781	WORD	wordpools/wasnorm_wordpool_576.txt	LTP123	ltpFR2	15	14	TROMBONE	1508	n/a	n/a	0	0	0
2946500	WORD	wordpools/wasnorm_wordpool_576.txt	LTP123	ltpFR2	15	14	TRUCK	1512	n/a	n/a	0	0	0
2949202	WORD	wordpools/wasnorm_wordpool_576.txt	LTP123	ltpFR2	15	14	PICNIC	1060	n/a	n/a	0	0	0
2951954	WORD	wordpools/wasnorm_wordpool_576.txt	LTP123	ltpFR2	15	14	DAISY	435	n/a	n/a	0	0	0
2954407	WORD	wordpools/wasnorm_wordpool_576.txt	LTP123	ltpFR2	15	14	PUDDLE	1140	n/a	n/a	0	0	0
2957142	WORD	wordpools/wasnorm_wordpool_576.txt	LTP123	ltpFR2	15	14	SKILLET	1317	n/a	n/a	0	0	0
2959794	WORD	wordpools/wasnorm_wordpool_576.txt	LTP123	ltpFR2	15	14	YOLK	1633	n/a	n/a	0	0	0
2962348	WORD	wordpools/wasnorm_wordpool_576.txt	LTP123	ltpFR2	15	14	LOVER	846	n/a	n/a	0	0	0
2965067	WORD	wordpools/wasnorm_wordpool_576.txt	LTP123	ltpFR2	15	14	MOP	916	n/a	n/a	0	0	0
2967617	WORD	wordpools/wasnorm_wordpool_576.txt	LTP123	ltpFR2	15	14	GREASE	660	n/a	n/a	0	0	0
2970370	WORD	wordpools/wasnorm_wordpool_576.txt	LTP123	ltpFR2	15	14	BROOK	177	n/a	n/a	0	0	0
2973038	WORD	wordpools/wasnorm_wordpool_576.txt	LTP123	ltpFR2	15	14	PLAYGROUND	1087	n/a	n/a	0	0	0
2975874	WORD	wordpools/wasnorm_wordpool_576.txt	LTP123	ltpFR2	15	14	TERMITE	1451	n/a	n/a	0	0	0
2978692	WORD	wordpools/wasnorm_wordpool_576.txt	LTP123	ltpFR2	15	14	HIKER	708	n/a	n/a	0	0	0
2981279	WORD	wordpools/wasnorm_wordpool_576.txt	LTP123	ltpFR2	15	14	SUMMIT	1405	n/a	n/a	0	0	0
2983864	WORD	wordpools/wasnorm_wordpool_576.txt	LTP123	ltpFR2	15	14	HEDGE	699	n/a	n/a	0	0	0
2986632	WORD	wordpools/wasnorm_wordpool_576.txt	LTP123	ltpFR2	15	14	AWARD	63	n/a	n/a	0	0	0
2989451	WORD	wordpools/wasnorm_wordpool_576.txt	LTP123	ltpFR2	15	14	BUG	187	n/a	n/a	0	0	0
2992154	WORD	wordpools/wasnorm_wordpool_576.txt	LTP123	ltpFR2	15	14	HOUND	724	n/a	n/a	0	0	0
2994622	WORD	wordpools/wasnorm_wordpool_576.txt	LTP123	ltpFR2	15	14	GRAVEL	659	n/a	n/a	0	0	0
2997425	WORD	wordpools/wasnorm_wordpool_576.txt	LTP123	ltpFR2	15	14	RIVER	1194	n/a	n/a	0	0	0
2999043	START	n/a	LTP123	ltpFR2	15	n/a	n/a	n/a	22	n/a	n/a	n/a	n/a
3000004	DISTRACTOR	n/a	LTP123	ltpFR2	15	14	n/a	n/a	n/a	n/a	0	0	0
3000027	PROB	n/a	LTP123	ltpFR2	15	n/a	n/a	n/a	22	11	6	2	3
3002280	PROB	n/a	LTP123	ltpFR2	15	n/a	n/a	n/a	22	8	2	4	2
3003744	PROB	n/a	LTP123	ltpFR2	15	n/a	n/a	n/a	22	17	8	4	5
3005761	PROB	n/a	LTP123	ltpFR2	15	n/a	n/a	n/a	22	14	5	6	3
3007629	PROB	n/a	LTP123	ltpFR2	15	n/a	n/a	n/a	22	7	3	3	1
3009167	PROB	n/a	LTP123	ltpFR2	15	n/a	n/a	n/a	22	15	1	9	5
3010332	PROB	n/a	LTP123	ltpFR2	15	n/a	n/a	n/a	22	18	5	8	5
3011648	PROB	n/a	LTP123	ltpFR2	15	n/a	n/a	n/a	22	10	1	2	7
3012918	PROB	n/a	LTP123	ltpFR2	15	n/a	n/a	n/a	22	17	3	8	6
3015001	PROB	n/a	LTP123	ltpFR2	15	n/a	n/a	n/a	22	19	7	7	5
3016624	PROB	n/a	LTP123	ltpFR2	15	n/a	n/a	n/a	22	8	2	1	5
3018045	PROB	n/a	LTP123	ltpFR2	15	n/a	n/a	n/a	22	18	4	8	6
3019538	PROB	n/a	LTP123	ltpFR2	15	n/a	n/a	n/a	22	17	4	5	8
3021145	PROB	n/a	LTP123	ltpFR2	15	n/a	n/a	n/a	22	14	5	6	3
3022670	STOP	n/a	LTP123	ltpFR2	15	n/a	n/a	n/a	22	n/a	n/a	n/a	n/a
3024998	REC_START	n/a	LTP123	ltpFR2	15	14	n/a	n/a	n/a	n/a	0	0	0
3025435	REC_WORD	wordpools/wasnorm_wordpool_576.txt	LTP123	ltpFR2	15	14	HEDGE	699	n/a	n/a	0	0	0
3026060	REC_WORD	wordpools/wasnorm_wordpool_576.txt	LTP123	ltpFR2	15	14	PICNIC	1060	n/a	n/a	0	0	0
3026622	REC_WORD	wordpools/wasnorm_wordpool_576.txt	LTP123	ltpFR2	15	14	PUDDLE	1140	n/a	n/a	0	0	0
3027450	REC_WORD	wordpools/wasnorm_wordpool_576.txt	LTP123	ltpFR2	15	14	RIVER	1194	n/a	n/a	0	0	0
3029376	REC_WORD_VV	wordpools/wasnorm_wordpool_576.txt	LTP123	ltpFR2	15	14	<>	-1	n/a	n/a	0	0	0
3030247	REC_WORD	wordpools/wasnorm_wordpool_576.txt	LTP123	ltpFR2	15	14	BUG	187	n/a	n/a	0	0	0
3030883	REC_WORD	wordpools/wasnorm_wordpool_576.txt	LTP123	ltpFR2	15	14	TERMITE	1451	n/a	n/a	0	0	0
3035537	REC_WORD	wordpools/wasnorm_wordpool_576.txt	LTP123	ltpFR2	15	14	LOVER	846	n/a	n/a	0	0	0
3036135	REC_WORD	wordpools/wasnorm_wordpool_576.txt	LTP123	ltpFR2	15	14	DAISY	435	n/a	n/a	0	0	0
3040676	REC_WORD	wordpools/wasnorm_wordpool_576.txt	LTP123	ltpFR2	15	14	DRIVER	499	n/a	n/a	0	0	0
3044989	REC_WORD	wordpools/wasnorm_wordpool_576.txt	LTP123	ltpFR2	15	14	PLAYGROUND	1087	n/a	n/a	0	0	0
3045989	REC_WORD_VV	wordpools/wasnorm_wordpool_576.txt	LTP123	ltpFR2	15	14	<>	-1	n/a	n/a	0	0	0
3061976	REC_WORD	wordpools/wasnorm_wordpool_576.txt	LTP123	ltpFR2	15	14	SKILLET	1317	n/a	n/a	0	0	0
3062618	REC_WORD	wordpools/wasnorm_wordpool_576.txt	LTP123	ltpFR2	15	14	YOLK	1633	n/a	n/a	0	0	0
3081855	REC_WORD	wordpools/wasnorm_wordpool_576.txt	LTP123	ltpFR2	15	14	HIKER	708	n/a	n/a	0	0	0
3082253	REC_WORD	wordpools/wasnorm_wordpool_576.txt	LTP123	ltpFR2	15	14	SUMMIT	1405	n/a	n/a	0	0	0
3115453	DISTRACTOR	n/a	LTP123	ltpFR2	15	15	n/a	n/a	n/a	n/a	0	0	0
3115453	START	n/a	LTP123	ltpFR2	15	n/a	n/a	n/a	23	n/a	n/a	n/a	n/a
3115465	PROB	n/a	LTP123	ltpFR2	15	n/a	n/a	n/a	23	14	9	4	1
3117272	PROB	n/a	LTP123	ltpFR2	15	n/a	n/a	n/a	23	10	6	2	2
3118639	PROB	n/a	LTP123	ltpFR2	15	n/a	n/a	n/a	23	13	4	1	8
3120173	PROB	n/a	LTP123	ltpFR2	15	n/a	n/a	n/a	23	11	4	5	2
3121574	PROB	n/a	LTP123	ltpFR2	15	n/a	n/a	n/a	23	11	6	2	3
3123305	PROB	n/a	LTP123	ltpFR2	15	n/a	n/a	n/a	23	22	5	8	9
3125761	PROB	n/a	LTP123	ltpFR2	15	n/a	n/a	n/a	23	14	7	6	1
3127129	PROB	n/a	LTP123	ltpFR2	15	n/a	n/a	n/a	23	18	8	4	6
3130395	PROB	n/a	LTP123	ltpFR2	15	n/a	n/a	n/a	23	8	3	4	1
3131900	PROB	n/a	LTP123	ltpFR2	15	n/a	n/a	n/a	23	16	8	3	5
3134451	PROB	n/a	LTP123	ltpFR2	15	n/a	n/a	n/a	23	19	3	9	7
3136416	PROB	n/a	LTP123	ltpFR2	15	n/a	n/a	n/a	23	17	9	2	6
3138162	STOP	n/a	LTP123	ltpFR2	15	n/a	n/a	n/a	23	n/a	n/a	n/a	n/a
3140357	WORD	wordpools/wasnorm_wordpool_576.txt	LTP123	ltpFR2	15	15	PERCH	1048	n/a	n/a	0	0	0
3142807	WORD	wordpools/wasnorm_wordpool_576.txt	LTP123	ltpFR2	15	15	FLUTE	585	n/a	n/a	0	0	0
3145360	WORD	wordpools/wasnorm_wordpool_576.txt	LTP123	ltpFR2	15	15	COUNTY	389	n/a	n/a	0	0	0
3147794	WORD	wordpools/wasnorm_wordpool_576.txt	LTP123	ltpFR2	15	15	NOTEBOOK	959	n/a	n/a	0	0	0
3150364	WORD	wordpools/wasnorm_wordpool_576.txt	LTP123	ltpFR2	15	15	REPORT	1184	n/a	n/a	0	0	0
3152881	WORD	wordpools/wasnorm_wordpool_576.txt	LTP123	ltpFR2	15	15	HAND	683	n/a	n/a	0	0	0
3155533	WORD	wordpools/wasnorm_wordpool_576.txt	LTP123	ltpFR2	15	15	GIRL	637	n/a	n/a	0	0	0
3158153	WORD	wordpools/wasnorm_wordpool_576.txt	LTP123	ltpFR2	15	15	XEROX	1628	n/a	n/a	0	0	0
3160855	WORD	wordpools/wasnorm_wordpool_576.txt	LTP123	ltpFR2	15	15	PIMPLE	1071	n/a	n/a	0	0	0
3163690	WORD	wordpools/wasnorm_wordpool_576.txt	LTP123	ltpFR2	15	15	CATTLE	261	n/a	n/a	0	0	0
3166193	WORD	wordpools/wasnorm_wordpool_576.txt	LTP123	ltpFR2	15	15	MARROW	872	n/a	n/a	0	0	0
3168794	WORD	wordpools/wasnorm_wordpool_576.txt	LTP123	ltpFR2	15	15	MACHINE	852	n/a	n/a	0	0	0
3171530	WORD	wordpools/wasnorm_wordpool_576.txt	LTP123	ltpFR2	15	15	PIANO	1057	n/a	n/a	0	0	0
3174115	WORD	wordpools/wasnorm_wordpool_576.txt	LTP123	ltpFR2	15	15	HORSE	719	n/a	n/a	0	0	0
3176867	WORD	wordpools/wasnorm_wordpool_576.txt	LTP123	ltpFR2	15	15	TOMBSTONE	1478	n/a	n/a	0	0	0
3179620	WORD	wordpools/wasnorm_wordpool_576.txt	LTP123	ltpFR2	15	15	YARN	1631	n/a	n/a	0	0	0
3182256	WORD	wordpools/wasnorm_wordpool_576.txt	LTP123	ltpFR2	15	15	JOURNAL	760	n/a	n/a	0	0	0
3184857	WORD	wordpools/wasnorm_wordpool_576.txt	LTP123	ltpFR2	15	15	ZIPPER	1636	n/a	n/a	0	0	0
3187311	WORD	wordpools/wasnorm_wordpool_576.txt	LTP123	ltpFR2	15	15	BEEF	113	n/a	n/a	0	0	0
3189828	WORD	wordpools/wasnorm_wordpool_576.txt	LTP123	ltpFR2	15	15	SAUSAGE	1238	n/a	n/a	0	0	0
3192348	WORD	wordpools/wasnorm_wordpool_576.txt	LTP123	ltpFR2	15	15	SHORTCAKE	1292	n/a	n/a	0	0	0
3194966	WORD	wordpools/wasnorm_wordpool_576.txt	LTP123	ltpFR2	15	15	SUPPER	1411	n/a	n/a	0	0	0
3197634	WORD	wordpools/wasnorm_wordpool_576.txt	LTP123	ltpFR2	15	15	PEACH	1031	n/a	n/a	0	0	0
3200271	WORD	wordpools/wasnorm_wordpool_576.txt	LTP123	ltpFR2	15	15	POPCORN	1104	n/a	n/a	0	0	0
3201888	START	n/a	LTP123	ltpFR2	15	n/a	n/a	n/a	24	n/a	n/a	n/a	n/a
3202957	DISTRACTOR	n/a	LTP123	ltpFR2	15	15	n/a	n/a	n/a	n/a	0	0	0
3202971	PROB	n/a	LTP123	ltpFR2	15	n/a	n/a	n/a	24	8	6	1	1
3204920	PROB	n/a	LTP123	ltpFR2	15	n/a	n/a	n/a	24	18	8	5	5
3206309	PROB	n/a	LTP123	ltpFR2	15	n/a	n/a	n/a	24	20	8	9	3
3208040	PROB	n/a	LTP123	ltpFR2	15	n/a	n/a	n/a	24	21	7	6	8
3210408	PROB	n/a	LTP123	ltpFR2	15	n/a	n/a	n/a	24	22	9	5	8
3212559	PROB	n/a	LTP123	ltpFR2	15	n/a	n/a	n/a	24	11	1	9	1
3214027	PROB	n/a	LTP123	ltpFR2	15	n/a	n/a	n/a	24	21	5	7	9
3216162	PROB	n/a	LTP123	ltpFR2	15	n/a	n/a	n/a	24	17	3	9	5
3218302	PROB	n/a	LTP123	ltpFR2	15	n/a	n/a	n/a	24	9	4	2	3
3219935	PROB	n/a	LTP123	ltpFR2	15	n/a	n/a	n/a	24	15	7	5	3
3222521	PROB	n/a	LTP123	ltpFR2	15	n/a	n/a	n/a	24	11	3	5	3
3224303	PROB	n/a	LTP123	ltpFR2	15	n/a	n/a	n/a	24	18	2	7	9
3225701	STOP	n/a	LTP123	ltpFR2	15	n/a	n/a	n/a	24	n/a	n/a	n/a	n/a
3227810	REC_START	n/a	LTP123	ltpFR2	15	15	n/a	n/a	n/a	n/a	0	0	0
3228179	REC_WORD	wordpools/wasnorm_wordpool_576.txt	LTP123	ltpFR2	15	15	PERCH	1048	n/a	n/a	0	0	0
3228669	REC_WORD	wordpools/wasnorm_wordpool_576.txt	LTP123	ltpFR2	15	15	PIMPLE	1071	n/a	n/a	0	0	0
3230407	REC_WORD	wordpools/wasnorm_wordpool_576.txt	LTP123	ltpFR2	15	15	TROMBONE	1508	n/a	n/a	0	0	0
3230996	REC_WORD	wordpools/wasnorm_wordpool_576.txt	LTP123	ltpFR2	15	15	PIANO	1057	n/a	n/a	0	0	0
3231553	REC_WORD	wordpools/wasnorm_wordpool_576.txt	LTP123	ltpFR2	15	15	FLUTE	585	n/a	n/a	0	0	0
3232747	REC_WORD	wordpools/wasnorm_wordpool_576.txt	LTP123	ltpFR2	15	15	HAND	683	n/a	n/a	0	0	0
3234673	REC_WORD	wordpools/wasnorm_wordpool_576.txt	LTP123	ltpFR2	15	15	NOTEBOOK	959	n/a	n/a	0	0	0
3235555	REC_WORD	wordpools/wasnorm_wordpool_576.txt	LTP123	ltpFR2	15	15	JOURNAL	760	n/a	n/a	0	0	0
3244176	REC_WORD	wordpools/wasnorm_wordpool_576.txt	LTP123	ltpFR2	15	15	SUPPER	1411	n/a	n/a	0	0	0
3245176	REC_WORD_VV	wordpools/wasnorm_wordpool_576.txt	LTP123	ltpFR2	15	15	<>	-1	n/a	n/a	0	0	0
3253677	REC_WORD	wordpools/wasnorm_wordpool_576.txt	LTP123	ltpFR2	15	15	BEEF	113	n/a	n/a	0	0	0
3255604	REC_WORD	wordpools/wasnorm_wordpool_576.txt	LTP123	ltpFR2	15	15	PEACH	1031	n/a	n/a	0	0	0
3265176	REC_WORD	wordpools/wasnorm_wordpool_576.txt	LTP123	ltpFR2	15	15	GIRL	637	n/a	n/a	0	0	0
3269256	REC_WORD	wordpools/wasnorm_wordpool_576.txt	LTP123	ltpFR2	15	15	CATTLE	261	n/a	n/a	0	0	0
3273546	REC_WORD	wordpools/wasnorm_wordpool_576.txt	LTP123	ltpFR2	15	15	ZIPPER	1636	n/a	n/a	0	0	0
3274131	REC_WORD	wordpools/wasnorm_wordpool_576.txt	LTP123	ltpFR2	15	15	XEROX	1628	n/a	n/a	0	0	0
3275131	REC_WORD_VV	wordpools/wasnorm_wordpool_576.txt	LTP123	ltpFR2	15	15	<>	-1	n/a	n/a	0	0	0
3318282	WORD	wordpools/wasnorm_wordpool_576.txt	LTP123	ltpFR2	15	16	MOTEL	919	n/a	n/a	0	0	0
3320715	WORD	wordpools/wasnorm_wordpool_576.txt	LTP123	ltpFR2	15	16	SILK	1307	n/a	n/a	0	0	0
3323467	WORD	wordpools/wasnorm_wordpool_576.txt	LTP123	ltpFR2	15	16	EUROPE	541	n/a	n/a	0	0	0
3325969	WORD	wordpools/wasnorm_wordpool_576.txt	LTP123	ltpFR2	15	16	FLAG	573	n/a	n/a	0	0	0
3328789	WORD	wordpools/wasnorm_wordpool_576.txt	LTP123	ltpFR2	15	16	BRIEFCASE	175	n/a	n/a	0	0	0
3331508	WORD	wordpools/wasnorm_wordpool_576.txt	LTP123	ltpFR2	15	16	LUMBER	848	n/a	n/a	0	0	0
3334010	WORD	wordpools/wasnorm_wordpool_576.txt	LTP123	ltpFR2	15	16	BUCKET	184	n/a	n/a	0	0	0
3336545	WORD	wordpools/wasnorm_wordpool_576.txt	LTP123	ltpFR2	15	16	BOARD	143	n/a	n/a	0	0	0
3339265	WORD	wordpools/wasnorm_wordpool_576.txt	LTP123	ltpFR2	15	16	HANDBAG	684	n/a	n/a	0	0	0
3342016	WORD	wordpools/wasnorm_wordpool_576.txt	LTP123	ltpFR2	15	16	LUGGAGE	847	n/a	n/a	0	0	0
3344718	WORD	wordpools/wasnorm_wordpool_576.txt	LTP123	ltpFR2	15	16	BLACKBOARD	133	n/a	n/a	0	0	0
3347420	WORD	wordpools/wasnorm_wordpool_576.txt	LTP123	ltpFR2	15	16	WRIST	1626	n/a	n/a	0	0	0
3350141	WORD	wordpools/wasnorm_wordpool_576.txt	LTP123	ltpFR2	15	16	FRIEND	606	n/a	n/a	0	0	0
3352741	WORD	wordpools/wasnorm_wordpool_576.txt	LTP123	ltpFR2	15	16	SKIRT	1319	n/a	n/a	0	0	0
3355410	WORD	wordpools/wasnorm_wordpool_576.txt	LTP123	ltpFR2	15	16	CEILING	265	n/a	n/a	0	0	0
3358196	WORD	wordpools/wasnorm_wordpool_576.txt	LTP123	ltpFR2	15	16	PLASTER	1085	n/a	n/a	0	0	0
3360731	WORD	wordpools/wasnorm_wordpool_576.txt	LTP123	ltpFR2	15	16	SUBWAY	1400	n/a	n/a	0	0	0
3363351	WORD	wordpools/wasnorm_wordpool_576.txt	LTP123	ltpFR2	15	16	FLESH	579	n/a	n/a	0	0	0
3365985	WORD	wordpools/wasnorm_wordpool_576.txt	LTP123	ltpFR2	15	16	TUTU	1524	n/a	n/a	0	0	0
3368821	WORD	wordpools/wasnorm_wordpool_576.txt	LTP123	ltpFR2	15	16	DANCER	437	n/a	n/a	0	0	0
3371440	WORD	wordpools/wasnorm_wordpool_576.txt	LTP123	ltpFR2	15	16	ZEBRA	1635	n/a	n/a	0	0	0
3373958	WORD	wordpools/wasnorm_wordpool_576.txt	LTP123	ltpFR2	15	16	HOOD	714	n/a	n/a	0	0	0
3376427	WORD	wordpools/wasnorm_wordpool_576.txt	LTP123	ltpFR2	15	16	ROD	1203	n/a	n/a	0	0	0
3379128	WORD	wordpools/wasnorm_wordpool_576.txt	LTP123	ltpFR2	15	16	LIPSTICK	829	n/a	n/a	0	0	0
3380748	START	n/a	LTP123	ltpFR2	15	n/a	n/a	n/a	25	n/a	n/a	n/a	n/a
3381608	DISTRACTOR	n/a	LTP123	ltpFR2	15	16	n/a	n/a	n/a	n/a	0	0	0
3381630	PROB	n/a	LTP123	ltpFR2	15	n/a	n/a	n/a	25	17	8	4	5
3383736	PROB	n/a	LTP123	ltpFR2	15	n/a	n/a	n/a	25	12	5	6	1
3385096	PROB	n/a	LTP123	ltpFR2	15	n/a	n/a	n/a	25	6	1	4	1
3386282	PROB	n/a	LTP123	ltpFR2	15	n/a	n/a	n/a	25	13	7	3	3
3387552	PROB	n/a	LTP123	ltpFR2	15	n/a	n/a	n/a	25	14	4	4	6
3388855	PROB	n/a	LTP123	ltpFR2	15	n/a	n/a	n/a	25	20	6	6	8
3390256	PROB	n/a	LTP123	ltpFR2	15	n/a	n/a	n/a	25	14	2	4	8
3392074	PROB	n/a	LTP123	ltpFR2	15	n/a	n/a	n/a	25	11	2	6	3
3394360	PROB	n/a	LTP123	ltpFR2	15	n/a	n/a	n/a	25	15	6	4	5
3395556	PROB	n/a	LTP123	ltpFR2	15	n/a	n/a	n/a	25	17	9	5	3
3397408	PROB	n/a	LTP123	ltpFR2	15	n/a	n/a	n/a	25	11	1	5	5
3398495	PROB	n/a	LTP123	ltpFR2	15	n/a	n/a	n/a	25	19	2	8	9
3399680	PROB	n/a	LTP123	ltpFR2	15	n/a	n/a	n/a	25	17	7	8	2
3401593	PROB	n/a	LTP123	ltpFR2	15	n/a	n/a	n/a	25	15	8	1	6
3403293	STOP	n/a	LTP123	ltpFR2	15	n/a	n/a	n/a	25	n/a	n/a	n/a	n/a
3406619	REC_START	n/a	LTP123	ltpFR2	15	16	n/a	n/a	n/a	n/a	0	0	0
3407868	REC_WORD	wordpools/wasnorm_wordpool_576.txt	LTP123	ltpFR2	15	16	BOARD	143	n/a	n/a	0	0	0
3408374	REC_WORD	wordpools/wasnorm_wordpool_576.txt	LTP123	ltpFR2	15	16	BLACKBOARD	133	n/a	n/a	0	0	0
3409013	REC_WORD	wordpools/wasnorm_wordpool_576.txt	LTP123	ltpFR2	15	16	LUMBER	848	n/a	n/a	0	0	0
3409590	REC_WORD	wordpools/wasnorm_wordpool_576.txt	LTP123	ltpFR2	15	16	HANDBAG	684	n/a	n/a	0	0	0
3410188	REC_WORD	wordpools/wasnorm_wordpool_576.txt	LTP123	ltpFR2	15	16	SUITCASE	1403	n/a	n/a	0	0	0
3411188	REC_WORD_VV	wordpools/wasnorm_wordpool_576.txt	LTP123	ltpFR2	15	16	<>	-1	n/a	n/a	0	0	0
3413318	REC_WORD	wordpools/wasnorm_wordpool_576.txt	LTP123	ltpFR2	15	16	BRIEFCASE	175	n/a	n/a	0	0	0
3414122	REC_WORD	wordpools/wasnorm_wordpool_576.txt	LTP123	ltpFR2	15	16	EUROPE	541	n/a	n/a	0	0	0
3414843	REC_WORD	wordpools/wasnorm_wordpool_576.txt	LTP123	ltpFR2	15	16	BUCKET	184	n/a	n/a	0	0	0
3416573	REC_WORD	wordpools/wasnorm_wordpool_576.txt	LTP123	ltpFR2	15	16	MOTEL	919	n/a	n/a	0	0	0
3422250	REC_WORD	wordpools/wasnorm_wordpool_576.txt	LTP123	ltpFR2	15	16	ZEBRA	1635	n/a	n/a	0	0	0
3426078	REC_WORD	wordpools/wasnorm_wordpool_576.txt	LTP123	ltpFR2	15	16	LIPSTICK	829	n/a	n/a	0	0	0
3430614	REC_WORD	wordpools/wasnorm_wordpool_576.txt	LTP123	ltpFR2	15	16	FRIEND	606	n/a	n/a	0	0	0
3431637	REC_WORD	wordpools/wasnorm_wordpool_576.txt	LTP123	ltpFR2	15	16	WRIST	1626	n/a	n/a	0	0	0
3432177	REC_WORD	wordpools/wasnorm_wordpool_576.txt	LTP123	ltpFR2	15	16	FLESH	579	n/a	n/a	0	0	0
3435529	REC_WORD	wordpools/wasnorm_wordpool_576.txt	LTP123	ltpFR2	15	16	SKIRT	1319	n/a	n/a	0	0	0
3483162	REST_REWET	n/a	LTP123	ltpFR2	15	16	n/a	n/a	n/a	n/a	0	0	0
3835456	WORD	wordpools/wasnorm_wordpool_576.txt	LTP123	ltpFR2	15	17	DRILL	497	n/a	n/a	0	0	0
3838280	WORD	wordpools/wasnorm_wordpool_576.txt	LTP123	ltpFR2	15	17	SURVEY	1414	n/a	n/a	0	0	0
3840949	WORD	wordpools/wasnorm_wordpool_576.txt	LTP123	ltpFR2	15	17	INFANT	737	n/a	n/a	0	0	0
3843466	WORD	wordpools/wasnorm_wordpool_576.txt	LTP123	ltpFR2	15	17	POISON	1096	n/a	n/a	0	0	0
3845968	WORD	wordpools/wasnorm_wordpool_576.txt	LTP123	ltpFR2	15	17	SLOPE	1328	n/a	n/a	0	0	0
3848754	WORD	wordpools/wasnorm_wordpool_576.txt	LTP123	ltpFR2	15	17	BASEMENT	94	n/a	n/a	0	0	0
3851323	WORD	wordpools/wasnorm_wordpool_576.txt	LTP123	ltpFR2	15	17	CELLAR	267	n/a	n/a	0	0	0
3854126	WORD	wordpools/wasnorm_wordpool_576.txt	LTP123	ltpFR2	15	17	FLIPPER	580	n/a	n/a	0	0	0
3856843	WORD	wordpools/wasnorm_wordpool_576.txt	LTP123	ltpFR2	15	17	HELMET	702	n/a	n/a	0	0	0
3859463	WORD	wordpools/wasnorm_wordpool_576.txt	LTP123	ltpFR2	15	17	FOOTBALL	591	n/a	n/a	0	0	0
3862114	WORD	wordpools/wasnorm_wordpool_576.txt	LTP123	ltpFR2	15	17	OZONE	996	n/a	n/a	0	0	0
3864733	WORD	wordpools/wasnorm_wordpool_576.txt	LTP123	ltpFR2	15	17	DUSTPAN	509	n/a	n/a	0	0	0
3867185	WORD	wordpools/wasnorm_wordpool_576.txt	LTP123	ltpFR2	15	17	CLIMBER	323	n/a	n/a	0	0	0
3869787	WORD	wordpools/wasnorm_wordpool_576.txt	LTP123	ltpFR2	15	17	PLUTO	1092	n/a	n/a	0	0	0
3872225	WORD	wordpools/wasnorm_wordpool_576.txt	LTP123	ltpFR2	15	17	MILK	895	n/a	n/a	0	0	0
3874991	WORD	wordpools/wasnorm_wordpool_576.txt	LTP123	ltpFR2	15	17	ROCKET	1202	n/a	n/a	0	0	0
3877727	WORD	wordpools/wasnorm_wordpool_576.txt	LTP123	ltpFR2	15	17	COD	340	n/a	n/a	0	0	0
3880512	WORD	wordpools/wasnorm_wordpool_576.txt	LTP123	ltpFR2	15	17	BRICK	172	n/a	n/a	0	0	0
3883232	WORD	wordpools/wasnorm_wordpool_576.txt	LTP123	ltpFR2	15	17	CABIN	211	n/a	n/a	0	0	0
3885966	WORD	wordpools/wasnorm_wordpool_576.txt	LTP123	ltpFR2	15	17	NEUTRON	947	n/a	n/a	0	0	0
3888702	WORD	wordpools/wasnorm_wordpool_576.txt	LTP123	ltpFR2	15	17	SMOG	1330	n/a	n/a	0	0	0
3891355	WORD	wordpools/wasnorm_wordpool_576.txt	LTP123	ltpFR2	15	17	DIME	466	n/a	n/a	0	0	0
3893823	WORD	wordpools/wasnorm_wordpool_576.txt	LTP123	ltpFR2	15	17	ORCHID	982	n/a	n/a	0	0	0
3896492	WORD	wordpools/wasnorm_wordpool_576.txt	LTP123	ltpFR2	15	17	TWISTER	1530	n/a	n/a	0	0	0
3898111	START	n/a	LTP123	ltpFR2	15	n/a	n/a	n/a	26	n/a	n/a	n/a	n/a
3898926	DISTRACTOR	n/a	LTP123	ltpFR2	15	17	n/a	n/a	n/a	n/a	0	0	0
3898944	PROB	n/a	LTP123	ltpFR2	15	n/a	n/a	n/a	26	16	4	9	3
3901175	PROB	n/a	LTP123	ltpFR2	15	n/a	n/a	n/a	26	10	1	6	3
3902510	PROB	n/a	LTP123	ltpFR2	15	n/a	n/a	n/a	26	19	8	7	4
3904699	PROB	n/a	LTP123	ltpFR2	15	n/a	n/a	n/a	26	26	9	9	8
3906285	PROB	n/a	LTP123	ltpFR2	15	n/a	n/a	n/a	26	14	6	5	3
3907652	PROB	n/a	LTP123	ltpFR2	15	n/a	n/a	n/a	26	9	2	1	6
3909148	PROB	n/a	LTP123	ltpFR2	15	n/a	n/a	n/a	26	19	3	7	9
3910423	PROB	n/a	LTP123	ltpFR2	15	n/a	n/a	n/a	26	19	7	6	6
3912422	PROB	n/a	LTP123	ltpFR2	15	n/a	n/a	n/a	26	17	6	5	6
3914904	PROB	n/a	LTP123	ltpFR2	15	n/a	n/a	n/a	26	27	9	9	9
3916343	PROB	n/a	LTP123	ltpFR2	15	n/a	n/a	n/a	26	13	7	3	3
3917643	PROB	n/a	LTP123	ltpFR2	15	n/a	n/a	n/a	26	18	7	4	7
3919473	PROB	n/a	LTP123	ltpFR2	15	n/a	n/a	n/a	26	13	6	6	1
3921287	STOP	n/a	LTP123	ltpFR2	15	n/a	n/a	n/a	26	n/a	n/a	n/a	n/a
3923948	REC_START	n/a	LTP123	ltpFR2	15	17	n/a	n/a	n/a	n/a	0	0	0
3924668	REC_WORD	wordpools/wasnorm_wordpool_576.txt	LTP123	ltpFR2	15	17	COD	340	n/a	n/a	0	0	0
3925877	REC_WORD	wordpools/wasnorm_wordpool_576.txt	LTP123	ltpFR2	15	17	TWISTER	1530	n/a	n/a	0	0	0
3927684	REC_WORD	wordpools/wasnorm_wordpool_576.txt	LTP123	ltpFR2	15	17	OZONE	996	n/a	n/a	0	0	0
3928288	REC_WORD	wordpools/wasnorm_wordpool_576.txt	LTP123	ltpFR2	15	17	ROCKET	1202	n/a	n/a	0	0	0
3928954	REC_WORD	wordpools/wasnorm_wordpool_576.txt	LTP123	ltpFR2	15	17	PLUTO	1092	n/a	n/a	0	0	0
3929898	REC_WORD	wordpools/wasnorm_wordpool_576.txt	LTP123	ltpFR2	15	17	NEUTRON	947	n/a	n/a	0	0	0
3930759	REC_WORD	wordpools/wasnorm_wordpool_576.txt	LTP123	ltpFR2	15	17	CABIN	211	n/a	n/a	0	0	0
3931564	REC_WORD	wordpools/wasnorm_wordpool_576.txt	LTP123	ltpFR2	15	17	SLOPE	1328	n/a	n/a	0	0	0
3932667	REC_WORD	wordpools/wasnorm_wordpool_576.txt	LTP123	ltpFR2	15	17	BASEMENT	94	n/a	n/a	0	0	0
3933260	REC_WORD	wordpools/wasnorm_wordpool_576.txt	LTP123	ltpFR2	15	17	CELLAR	267	n/a	n/a	0	0	0
3935356	REC_WORD	wordpools/wasnorm_wordpool_576.txt	LTP123	ltpFR2	15	17	MOP	916	n/a	n/a	0	0	0
3936356	REC_WORD_VV	wordpools/wasnorm_wordpool_576.txt	LTP123	ltpFR2	15	17	<>	-1	n/a	n/a	0	0	0
3937667	REC_WORD	wordpools/wasnorm_wordpool_576.txt	LTP123	ltpFR2	15	17	INFANT	737	n/a	n/a	0	0	0
3938165	REC_WORD	wordpools/wasnorm_wordpool_576.txt	LTP123	ltpFR2	15	17	MILK	895	n/a	n/a	0	0	0
3939124	REC_WORD	wordpools/wasnorm_wordpool_576.txt	LTP123	ltpFR2	15	17	FOOTBALL	591	n/a	n/a	0	0	0
3939654	REC_WORD	wordpools/wasnorm_wordpool_576.txt	LTP123	ltpFR2	15	17	HELMET	702	n/a	n/a	0	0	0
3943883	REC_WORD	wordpools/wasnorm_wordpool_576.txt	LTP123	ltpFR2	15	17	POISON	1096	n/a	n/a	0	0	0
4014416	WORD	wordpools/wasnorm_wordpool_576.txt	LTP123	ltpFR2	15	18	LABEL	790	n/a	n/a	0	0	0
4017088	WORD	wordpools/wasnorm_wordpool_576.txt	LTP123	ltpFR2	15	18	VENUS	1557	n/a	n/a	0	0	0
4019723	WORD	wordpools/wasnorm_wordpool_576.txt	LTP123	ltpFR2	15	18	FOREST	593	n/a	n/a	0	0	0
4022193	WORD	wordpools/wasnorm_wordpool_576.txt	LTP123	ltpFR2	15	18	BALLOON	75	n/a	n/a	0	0	0
4024660	WORD	wordpools/wasnorm_wordpool_576.txt	LTP123	ltpFR2	15	18	PLAZA	1088	n/a	n/a	0	0	0
4027230	WORD	wordpools/wasnorm_wordpool_576.txt	LTP123	ltpFR2	15	18	CASHIER	254	n/a	n/a	0	0	0
4029981	WORD	wordpools/wasnorm_wordpool_576.txt	LTP123	ltpFR2	15	18	ELBOW	520	n/a	n/a	0	0	0
4032483	WORD	wordpools/wasnorm_wordpool_576.txt	LTP123	ltpFR2	15	18	TOURIST	1488	n/a	n/a	0	0	0
4035153	WORD	wordpools/wasnorm_wordpool_576.txt	LTP123	ltpFR2	15	18	MARS	873	n/a	n/a	0	0	0
4037621	WORD	wordpools/wasnorm_wordpool_576.txt	LTP123	ltpFR2	15	18	ORANGE	980	n/a	n/a	0	0	0
4040326	WORD	wordpools/wasnorm_wordpool_576.txt	LTP123	ltpFR2	15	18	SCISSORS	1250	n/a	n/a	0	0	0
4042859	WORD	wordpools/wasnorm_wordpool_576.txt	LTP123	ltpFR2	15	18	SIDEWALK	1303	n/a	n/a	0	0	0
4045444	WORD	wordpools/wasnorm_wordpool_576.txt	LTP123	ltpFR2	15	18	PUPPY	1144	n/a	n/a	0	0	0
4047879	WORD	wordpools/wasnorm_wordpool_576.txt	LTP123	ltpFR2	15	18	FEMALE	559	n/a	n/a	0	0	0
4050681	WORD	wordpools/wasnorm_wordpool_576.txt	LTP123	ltpFR2	15	18	MARKER	870	n/a	n/a	0	0	0
4053151	WORD	wordpools/wasnorm_wordpool_576.txt	LTP123	ltpFR2	15	18	PIGMENT	1066	n/a	n/a	0	0	0
4055652	WORD	wordpools/wasnorm_wordpool_576.txt	LTP123	ltpFR2	15	18	NECKLACE	940	n/a	n/a	0	0	0
4058456	WORD	wordpools/wasnorm_wordpool_576.txt	LTP123	ltpFR2	15	18	MUSTARD	935	n/a	n/a	0	0	0
4060922	WORD	wordpools/wasnorm_wordpool_576.txt	LTP123	ltpFR2	15	18	CARROT	249	n/a	n/a	0	0	0
4063392	WORD	wordpools/wasnorm_wordpool_576.txt	LTP123	ltpFR2	15	18	POCKET	1093	n/a	n/a	0	0	0
4065960	WORD	wordpools/wasnorm_wordpool_576.txt	LTP123	ltpFR2	15	18	MISTER	901	n/a	n/a	0	0	0
4068462	WORD	wordpools/wasnorm_wordpool_576.txt	LTP123	ltpFR2	15	18	JUGGLER	763	n/a	n/a	0	0	0
4071098	WORD	wordpools/wasnorm_wordpool_576.txt	LTP123	ltpFR2	15	18	SALMON	1227	n/a	n/a	0	0	0
4073866	WORD	wordpools/wasnorm_wordpool_576.txt	LTP123	ltpFR2	15	18	SHARK	1275	n/a	n/a	0	0	0
4075485	START	n/a	LTP123	ltpFR2	15	n/a	n/a	n/a	27	n/a	n/a	n/a	n/a
4076554	DISTRACTOR	n/a	LTP123	ltpFR2	15	18	n/a	n/a	n/a	n/a	0	0	0
4076568	PROB	n/a	LTP123	ltpFR2	15	n/a	n/a	n/a	27	17	8	3	6
4078788	PROB	n/a	LTP123	ltpFR2	15	n/a	n/a	n/a	27	15	1	5	9
4080535	PROB	n/a	LTP123	ltpFR2	15	n/a	n/a	n/a	27	12	5	6	1
4082057	PROB	n/a	LTP123	ltpFR2	15	n/a	n/a	n/a	27	14	1	8	5
4084192	PROB	n/a	LTP123	ltpFR2	15	n/a	n/a	n/a	27	12	4	2	6
4085660	PROB	n/a	LTP123	ltpFR2	15	n/a	n/a	n/a	27	26	8	9	9
4087358	PROB	n/a	LTP123	ltpFR2	15	n/a	n/a	n/a	27	19	9	2	8
4089243	PROB	n/a	LTP123	ltpFR2	15	n/a	n/a	n/a	27	19	8	9	2
4091233	PROB	n/a	LTP123	ltpFR2	15	n/a	n/a	n/a	27	20	6	7	7
4092699	PROB	n/a	LTP123	ltpFR2	15	n/a	n/a	n/a	27	19	6	4	9
4093900	PROB	n/a	LTP123	ltpFR2	15	n/a	n/a	n/a	27	15	8	4	3
4096370	PROB	n/a	LTP123	ltpFR2	15	n/a	n/a	n/a	27	17	5	7	5
4098373	STOP	n/a	LTP123	ltpFR2	15	n/a	n/a	n/a	27	n/a	n/a	n/a	n/a
4101458	REC_START	n/a	LTP123	ltpFR2	15	18	n/a	n/a	n/a	n/a	0	0	0
4101780	REC_WORD	wordpools/wasnorm_wordpool_576.txt	LTP123	ltpFR2	15	18	JUGGLER	763	n/a	n/a	0	0	0
4102328	REC_WORD	wordpools/wasnorm_wordpool_576.txt	LTP123	ltpFR2	15	18	TOURIST	1488	n/a	n/a	0	0	0
4102909	REC_WORD	wordpools/wasnorm_wordpool_576.txt	LTP123	ltpFR2	15	18	PLAZA	1088	n/a	n/a	0	0	0
4103524	REC_WORD	wordpools/wasnorm_wordpool_576.txt	LTP123	ltpFR2	15	18	SALMON	1227	n/a	n/a	0	0	0
4104164	REC_WORD	wordpools/wasnorm_wordpool_576.txt	LTP123	ltpFR2	15	18	SHARK	1275	n/a	n/a	0	0	0
4106374	REC_WORD	wordpools/wasnorm_wordpool_576.txt	LTP123	ltpFR2	15	18	BALLOON	75	n/a	n/a	0	0	0
4111718	REC_WORD	wordpools/wasnorm_wordpool_576.txt	LTP123	ltpFR2	15	18	MISTER	901	n/a	n/a	0	0	0
4112953	REC_WORD	wordpools/wasnorm_wordpool_576.txt	LTP123	ltpFR2	15	18	FEMALE	559	n/a	n/a	0	0	0
4119548	REC_WORD	wordpools/wasnorm_wordpool_576.txt	LTP123	ltpFR2	15	18	CASHIER	254	n/a	n/a	0	0	0
4120941	REC_WORD	wordpools/wasnorm_wordpool_576.txt	LTP123	ltpFR2	15	18	PLAZA	1088	n/a	n/a	0	0	0
4122868	REC_WORD	wordpools/wasnorm_wordpool_576.txt	LTP123	ltpFR2	15	18	MARKER	870	n/a	n/a	0	0	0
4123681	REC_WORD	wordpools/wasnorm_wordpool_576.txt	LTP123	ltpFR2	15	18	SCISSORS	1250	n/a	n/a	0	0	0
4124681	REC_WORD_VV	wordpools/wasnorm_wordpool_576.txt	LTP123	ltpFR2	15	18	<>	-1	n/a	n/a	0	0	0
4127988	REC_WORD	wordpools/wasnorm_wordpool_576.txt	LTP123	ltpFR2	15	18	VENUS	1557	n/a	n/a	0	0	0
4128509	REC_WORD	wordpools/wasnorm_wordpool_576.txt	LTP123	ltpFR2	15	18	MARS	873	n/a	n/a	0	0	0
4142207	REC_WORD	wordpools/wasnorm_wordpool_576.txt	LTP123	ltpFR2	15	18	PIGMENT	1066	n/a	n/a	0	0	0
4143927	REC_WORD	wordpools/wasnorm_wordpool_576.txt	LTP123	ltpFR2	15	18	NECKLACE	940	n/a	n/a	0	0	0
4146929	REC_WORD	wordpools/wasnorm_wordpool_576.txt	LTP123	ltpFR2	15	18	PUPPY	1144	n/a	n/a	0	0	0
4191911	DISTRACTOR	n/a	LTP123	ltpFR2	15	19	n/a	n/a	n/a	n/a	0	0	0
4191912	START	n/a	LTP123	ltpFR2	15	n/a	n/a	n/a	28	n/a	n/a	n/a	n/a
4191929	PROB	n/a	LTP123	ltpFR2	15	n/a	n/a	n/a	28	17	6	7	4
4193775	PROB	n/a	LTP123	ltpFR2	15	n/a	n/a	n/a	28	4	1	1	2
4194995	PROB	n/a	LTP123	ltpFR2	15	n/a	n/a	n/a	28	16	3	5	8
4196647	PROB	n/a	LTP123	ltpFR2	15	n/a	n/a	n/a	28	22	9	9	4
4198079	PROB	n/a	LTP123	ltpFR2	15	n/a	n/a	n/a	28	20	8	9	3
4199951	PROB	n/a	LTP123	ltpFR2	15	n/a	n/a	n/a	28	10	1	6	3
4201283	PROB	n/a	LTP123	ltpFR2	15	n/a	n/a	n/a	28	17	7	2	8
4202537	PROB	n/a	LTP123	ltpFR2	15	n/a	n/a	n/a	28	21	6	9	6
4205585	PROB	n/a	LTP123	ltpFR2	15	n/a	n/a	n/a	28	13	5	7	1
4207119	PROB	n/a	LTP123	ltpFR2	15	n/a	n/a	n/a	28	23	7	7	9
4209042	PROB	n/a	LTP123	ltpFR2	15	n/a	n/a	n/a	28	16	8	4	4
4210543	PROB	n/a	LTP123	ltpFR2	15	n/a	n/a	n/a	28	15	7	5	3
4212057	PROB	n/a	LTP123	ltpFR2	15	n/a	n/a	n/a	28	8	3	1	4
4215912	STOP	n/a	LTP123	ltpFR2	15	n/a	n/a	n/a	28	n/a	n/a	n/a	n/a
4216881	WORD	wordpools/wasnorm_wordpool_576.txt	LTP123	ltpFR2	15	19	SISTER	1312	n/a	n/a	0	0	0
4219700	WORD	wordpools/wasnorm_wordpool_576.txt	LTP123	ltpFR2	15	19	PASTA	1021	n/a	n/a	0	0	0
4222418	WORD	wordpools/wasnorm_wordpool_576.txt	LTP123	ltpFR2	15	19	HATCHET	691	n/a	n/a	0	0	0
4225154	WORD	wordpools/wasnorm_wordpool_576.txt	LTP123	ltpFR2	15	19	WAITRESS	1581	n/a	n/a	0	0	0
4227673	WORD	wordpools/wasnorm_wordpool_576.txt	LTP123	ltpFR2	15	19	APRON	35	n/a	n/a	0	0	0
4230275	WORD	wordpools/wasnorm_wordpool_576.txt	LTP123	ltpFR2	15	19	SHOVEL	1295	n/a	n/a	0	0	0
4232777	WORD	wordpools/wasnorm_wordpool_576.txt	LTP123	ltpFR2	15	19	WASP	1593	n/a	n/a	0	0	0
4235446	WORD	wordpools/wasnorm_wordpool_576.txt	LTP123	ltpFR2	15	19	SUNRISE	1407	n/a	n/a	0	0	0
4238148	WORD	wordpools/wasnorm_wordpool_576.txt	LTP123	ltpFR2	15	19	OUTFIT	988	n/a	n/a	0	0	0
4240600	WORD	wordpools/wasnorm_wordpool_576.txt	LTP123	ltpFR2	15	19	CLOTHES	327	n/a	n/a	0	0	0
4243336	WORD	wordpools/wasnorm_wordpool_576.txt	LTP123	ltpFR2	15	19	BURGLAR	200	n/a	n/a	0	0	0
4245937	WORD	wordpools/wasnorm_wordpool_576.txt	LTP123	ltpFR2	15	19	SUSPECT	1415	n/a	n/a	0	0	0
4248672	WORD	wordpools/wasnorm_wordpool_576.txt	LTP123	ltpFR2	15	19	FINGER	567	n/a	n/a	0	0	0
4251142	WORD	wordpools/wasnorm_wordpool_576.txt	LTP123	ltpFR2	15	19	BLENDER	136	n/a	n/a	0	0	0
4253727	WORD	wordpools/wasnorm_wordpool_576.txt	LTP123	ltpFR2	15	19	PLIERS	1089	n/a	n/a	0	0	0
4256313	WORD	wordpools/wasnorm_wordpool_576.txt	LTP123	ltpFR2	15	19	OUTLAW	989	n/a	n/a	0	0	0
4258964	WORD	wordpools/wasnorm_wordpool_576.txt	LTP123	ltpFR2	15	19	LAGOON	795	n/a	n/a	0	0	0
4261667	WORD	wordpools/wasnorm_wordpool_576.txt	LTP123	ltpFR2	15	19	HONEY	713	n/a	n/a	0	0	0
4264435	WORD	wordpools/wasnorm_wordpool_576.txt	LTP123	ltpFR2	15	19	PASTRY	1022	n/a	n/a	0	0	0
4267204	WORD	wordpools/wasnorm_wordpool_576.txt	LTP123	ltpFR2	15	19	GARLIC	624	n/a	n/a	0	0	0
4269673	WORD	wordpools/wasnorm_wordpool_576.txt	LTP123	ltpFR2	15	19	JELLY	755	n/a	n/a	0	0	0
4272410	WORD	wordpools/wasnorm_wordpool_576.txt	LTP123	ltpFR2	15	19	PARSLEY	1016	n/a	n/a	0	0	0
4275161	WORD	wordpools/wasnorm_wordpool_576.txt	LTP123	ltpFR2	15	19	BEAKER	104	n/a	n/a	0	0	0
4277762	WORD	wordpools/wasnorm_wordpool_576.txt	LTP123	ltpFR2	15	19	FLEET	578	n/a	n/a	0	0	0
4279383	START	n/a	LTP123	ltpFR2	15	n/a	n/a	n/a	29	n/a	n/a	n/a	n/a
4280236	DISTRACTOR	n/a	LTP123	ltpFR2	15	19	n/a	n/a	n/a	n/a	0	0	0
4280248	PROB	n/a	LTP123	ltpFR2	15	n/a	n/a	n/a	29	19	8	3	8
4283518	PROB	n/a	LTP123	ltpFR2	15	n/a	n/a	n/a	29	19	6	8	5
4285287	PROB	n/a	LTP123	ltpFR2	15	n/a	n/a	n/a	29	19	6	4	9
4286419	PROB	n/a	LTP123	ltpFR2	15	n/a	n/a	n/a	29	9	5	3	1
4287801	PROB	n/a	LTP123	ltpFR2	15	n/a	n/a	n/a	29	15	1	7	7
4289286	PROB	n/a	LTP123	ltpFR2	15	n/a	n/a	n/a	29	13	5	7	1
4292426	PROB	n/a	LTP123	ltpFR2	15	n/a	n/a	n/a	29	10	5	2	3
4294110	PROB	n/a	LTP123	ltpFR2	15	n/a	n/a	n/a	29	9	6	2	1
4295490	PROB	n/a	LTP123	ltpFR2	15	n/a	n/a	n/a	29	10	3	1	6
4297163	PROB	n/a	LTP123	ltpFR2	15	n/a	n/a	n/a	29	9	3	4	2
4298929	PROB	n/a	LTP123	ltpFR2	15	n/a	n/a	n/a	29	6	3	2	1
4300332	PROB	n/a	LTP123	ltpFR2	15	n/a	n/a	n/a	29	20	8	6	6
4301867	STOP	n/a	LTP123	ltpFR2	15	n/a	n/a	n/a	29	n/a	n/a	n/a	n/a
4305271	REC_START	n/a	LTP123	ltpFR2	15	19	n/a	n/a	n/a	n/a	0	0	0
4306286	REC_WORD	wordpools/wasnorm_wordpool_576.txt	LTP123	ltpFR2	15	19	FLEET	578	n/a	n/a	0	0	0
4308617	REC_WORD	wordpools/wasnorm_wordpool_576.txt	LTP123	ltpFR2	15	19	OUTLAW	989	n/a	n/a	0	0	0
4309254	REC_WORD	wordpools/wasnorm_wordpool_576.txt	LTP123	ltpFR2	15	19	ROBBER	1197	n/a	n/a	0	0	0
4310051	REC_WORD	wordpools/wasnorm_wordpool_576.txt	LTP123	ltpFR2	15	19	SUSPECT	1415	n/a	n/a	0	0	0
4311051	REC_WORD_VV	wordpools/wasnorm_wordpool_576.txt	LTP123	ltpFR2	15	19	<>	-1	n/a	n/a	0	0	0
4313216	REC_WORD	wordpools/wasnorm_wordpool_576.txt	LTP123	ltpFR2	15	19	THIEF	1456	n/a	n/a	0	0	0
4316885	REC_WORD	wordpools/wasnorm_wordpool_576.txt	LTP123	ltpFR2	15	19	SISTER	1312	n/a	n/a	0	0	0
4319601	REC_WORD	wordpools/wasnorm_wordpool_576.txt	LTP123	ltpFR2	15	19	HATCHET	691	n/a	n/a	0	0	0
