onset	duration	trial_type	sample	stim_file	subject	experiment	session	trial	item_name	item_num	list	answer	test_x	test_y	test_z
213.8134765625	n/a	SESS_START	437890	n/a	LTP388	ltpFR2	1	n/a	n/a	n/a	n/a	n/a	0	0	0
230.56591796875	n/a	START	472199	n/a	LTP388	ltpFR2	1	n/a	n/a	n/a	-1	n/a	n/a	n/a	n/a
230.5966796875	n/a	PROB	472262	n/a	LTP388	ltpFR2	1	n/a	n/a	n/a	-1	18	6	3	9
233.41357421875	n/a	PROB	478031	n/a	LTP388	ltpFR2	1	n/a	n/a	n/a	-1	17	8	4	5
238.04638671875	n/a	PROB	487519	n/a	LTP388	ltpFR2	1	n/a	n/a	n/a	-1	13	9	2	2
242.5654296875	n/a	STOP	496774	n/a	LTP388	ltpFR2	1	n/a	n/a	n/a	-1	n/a	n/a	n/a	n/a
282.67822265625	n/a	DISTRACTOR	578925	n/a	LTP388	ltpFR2	1	1	n/a	n/a	n/a	n/a	0	0	0
282.67822265625	n/a	START	578925	n/a	LTP388	ltpFR2	1	n/a	n/a	n/a	1	n/a	n/a	n/a	n/a
282.6943359375	n/a	PROB	578958	n/a	LTP388	ltpFR2	1	n/a	n/a	n/a	1	21	7	9	5
286.1279296875	n/a	PROB	585990	n/a	LTP388	ltpFR2	1	n/a	n/a	n/a	1	14	7	3	4
287.7109375	n/a	PROB	589232	n/a	LTP388	ltpFR2	1	n/a	n/a	n/a	1	11	1	2	8
289.1611328125	n/a	PROB	592202	n/a	LTP388	ltpFR2	1	n/a	n/a	n/a	1	18	3	9	6
290.7109375	n/a	PROB	595376	n/a	LTP388	ltpFR2	1	n/a	n/a	n/a	1	18	4	6	8
293.44384765625	n/a	PROB	600973	n/a	LTP388	ltpFR2	1	n/a	n/a	n/a	1	12	2	7	3
295.24365234375	n/a	PROB	604659	n/a	LTP388	ltpFR2	1	n/a	n/a	n/a	1	9	1	2	6
297.0107421875	n/a	PROB	608278	n/a	LTP388	ltpFR2	1	n/a	n/a	n/a	1	15	5	5	5
298.2265625	n/a	PROB	610768	n/a	LTP388	ltpFR2	1	n/a	n/a	n/a	1	14	7	4	3
300.37646484375	n/a	PROB	615171	n/a	LTP388	ltpFR2	1	n/a	n/a	n/a	1	10	2	6	2
302.4765625	n/a	PROB	619472	n/a	LTP388	ltpFR2	1	n/a	n/a	n/a	1	4	1	2	1
303.6103515625	n/a	PROB	621794	n/a	LTP388	ltpFR2	1	n/a	n/a	n/a	1	11	1	5	5
304.84228515625	n/a	PROB	624317	n/a	LTP388	ltpFR2	1	n/a	n/a	n/a	1	9	1	4	4
306.1845703125	n/a	STOP	627066	n/a	LTP388	ltpFR2	1	n/a	n/a	n/a	1	n/a	n/a	n/a	n/a
307.54345703125	n/a	WORD	629849	wordpools/wasnorm_wordpool_576.txt	LTP388	ltpFR2	1	1	SALAD	1224	n/a	n/a	0	0	0
310.14306640625	n/a	WORD	635173	wordpools/wasnorm_wordpool_576.txt	LTP388	ltpFR2	1	1	BOYFRIEND	162	n/a	n/a	0	0	0
312.775390625	n/a	WORD	640564	wordpools/wasnorm_wordpool_576.txt	LTP388	ltpFR2	1	1	MUSTARD	935	n/a	n/a	0	0	0
315.50927734375	n/a	WORD	646163	wordpools/wasnorm_wordpool_576.txt	LTP388	ltpFR2	1	1	STUDENT	1395	n/a	n/a	0	0	0
318.19287109375	n/a	WORD	651659	wordpools/wasnorm_wordpool_576.txt	LTP388	ltpFR2	1	1	TEACHER	1440	n/a	n/a	0	0	0
320.90771484375	n/a	WORD	657219	wordpools/wasnorm_wordpool_576.txt	LTP388	ltpFR2	1	1	DRINK	498	n/a	n/a	0	0	0
323.39306640625	n/a	WORD	662309	wordpools/wasnorm_wordpool_576.txt	LTP388	ltpFR2	1	1	APPLE	33	n/a	n/a	0	0	0
326.10888671875	n/a	WORD	667871	wordpools/wasnorm_wordpool_576.txt	LTP388	ltpFR2	1	1	SHERIFF	1284	n/a	n/a	0	0	0
328.57568359375	n/a	WORD	672923	wordpools/wasnorm_wordpool_576.txt	LTP388	ltpFR2	1	1	DINER	467	n/a	n/a	0	0	0
331.30859375	n/a	WORD	678520	wordpools/wasnorm_wordpool_576.txt	LTP388	ltpFR2	1	1	RUG	1215	n/a	n/a	0	0	0
334.09130859375	n/a	WORD	684219	wordpools/wasnorm_wordpool_576.txt	LTP388	ltpFR2	1	1	BRAKE	166	n/a	n/a	0	0	0
336.6083984375	n/a	WORD	689374	wordpools/wasnorm_wordpool_576.txt	LTP388	ltpFR2	1	1	NAPKIN	937	n/a	n/a	0	0	0
339.42529296875	n/a	WORD	695143	wordpools/wasnorm_wordpool_576.txt	LTP388	ltpFR2	1	1	SAUSAGE	1238	n/a	n/a	0	0	0
341.9072265625	n/a	WORD	700226	wordpools/wasnorm_wordpool_576.txt	LTP388	ltpFR2	1	1	MEDAL	885	n/a	n/a	0	0	0
344.72412109375	n/a	WORD	705995	wordpools/wasnorm_wordpool_576.txt	LTP388	ltpFR2	1	1	LABEL	790	n/a	n/a	0	0	0
347.2080078125	n/a	WORD	711082	wordpools/wasnorm_wordpool_576.txt	LTP388	ltpFR2	1	1	PIGMENT	1066	n/a	n/a	0	0	0
349.9072265625	n/a	WORD	716610	wordpools/wasnorm_wordpool_576.txt	LTP388	ltpFR2	1	1	FLASHLIGHT	575	n/a	n/a	0	0	0
352.375	n/a	WORD	721664	wordpools/wasnorm_wordpool_576.txt	LTP388	ltpFR2	1	1	MATCH	878	n/a	n/a	0	0	0
355.05810546875	n/a	WORD	727159	wordpools/wasnorm_wordpool_576.txt	LTP388	ltpFR2	1	1	CRAYON	401	n/a	n/a	0	0	0
357.73974609375	n/a	WORD	732651	wordpools/wasnorm_wordpool_576.txt	LTP388	ltpFR2	1	1	PLAYGROUND	1087	n/a	n/a	0	0	0
360.4736328125	n/a	WORD	738250	wordpools/wasnorm_wordpool_576.txt	LTP388	ltpFR2	1	1	GLOVE	642	n/a	n/a	0	0	0
363.24072265625	n/a	WORD	743917	wordpools/wasnorm_wordpool_576.txt	LTP388	ltpFR2	1	1	CHAPEL	280	n/a	n/a	0	0	0
365.6904296875	n/a	WORD	748934	wordpools/wasnorm_wordpool_576.txt	LTP388	ltpFR2	1	1	IDOL	733	n/a	n/a	0	0	0
368.240234375	n/a	WORD	754156	wordpools/wasnorm_wordpool_576.txt	LTP388	ltpFR2	1	1	SCARF	1246	n/a	n/a	0	0	0
369.8564453125	n/a	START	757466	n/a	LTP388	ltpFR2	1	n/a	n/a	n/a	2	n/a	n/a	n/a	n/a
371.0263671875	n/a	DISTRACTOR	759862	n/a	LTP388	ltpFR2	1	1	n/a	n/a	n/a	n/a	0	0	0
371.04052734375	n/a	PROB	759891	n/a	LTP388	ltpFR2	1	n/a	n/a	n/a	2	12	6	5	1
373.1904296875	n/a	PROB	764294	n/a	LTP388	ltpFR2	1	n/a	n/a	n/a	2	29	6	6	7
379.97216796875	n/a	PROB	778183	n/a	LTP388	ltpFR2	1	n/a	n/a	n/a	2	12	6	3	3
382.123046875	n/a	PROB	782588	n/a	LTP388	ltpFR2	1	n/a	n/a	n/a	2	10	4	4	2
383.43994140625	n/a	PROB	785285	n/a	LTP388	ltpFR2	1	n/a	n/a	n/a	2	14	1	5	8
385.22314453125	n/a	PROB	788937	n/a	LTP388	ltpFR2	1	n/a	n/a	n/a	2	17	5	7	5
386.6728515625	n/a	PROB	791906	n/a	LTP388	ltpFR2	1	n/a	n/a	n/a	2	9	5	1	3
388.47265625	n/a	PROB	795592	n/a	LTP388	ltpFR2	1	n/a	n/a	n/a	2	18	9	7	7
390.22265625	n/a	PROB	799176	n/a	LTP388	ltpFR2	1	n/a	n/a	n/a	2	20	9	8	3
393.73583984375	n/a	STOP	806371	n/a	LTP388	ltpFR2	1	n/a	n/a	n/a	2	n/a	n/a	n/a	n/a
395.78857421875	n/a	REC_START	810575	n/a	LTP388	ltpFR2	1	1	n/a	n/a	n/a	n/a	0	0	0
396.40673828125	n/a	REC_WORD	811841	wordpools/wasnorm_wordpool_576.txt	LTP388	ltpFR2	1	1	SALAD	1224	n/a	n/a	0	0	0
397.84130859375	n/a	REC_WORD	814779	wordpools/wasnorm_wordpool_576.txt	LTP388	ltpFR2	1	1	BOYFRIEND	162	n/a	n/a	0	0	0
399.28564453125	n/a	REC_WORD	817737	wordpools/wasnorm_wordpool_576.txt	LTP388	ltpFR2	1	1	CHAPEL	280	n/a	n/a	0	0	0
400.447265625	n/a	REC_WORD	820116	wordpools/wasnorm_wordpool_576.txt	LTP388	ltpFR2	1	1	SCARF	1246	n/a	n/a	0	0	0
402.1875	n/a	REC_WORD	823680	wordpools/wasnorm_wordpool_576.txt	LTP388	ltpFR2	1	1	MUSTARD	935	n/a	n/a	0	0	0
403.63720703125	n/a	REC_WORD	826649	wordpools/wasnorm_wordpool_576.txt	LTP388	ltpFR2	1	1	BRAKE	166	n/a	n/a	0	0	0
404.9921875	n/a	REC_WORD	829424	wordpools/wasnorm_wordpool_576.txt	LTP388	ltpFR2	1	1	PIGMENT	1066	n/a	n/a	0	0	0
406.3974609375	n/a	REC_WORD	832302	wordpools/wasnorm_wordpool_576.txt	LTP388	ltpFR2	1	1	GLOVE	642	n/a	n/a	0	0	0
407.7060546875	n/a	REC_WORD	834982	wordpools/wasnorm_wordpool_576.txt	LTP388	ltpFR2	1	1	PLAYGROUND	1087	n/a	n/a	0	0	0
409.10107421875	n/a	REC_WORD	837839	wordpools/wasnorm_wordpool_576.txt	LTP388	ltpFR2	1	1	STUDENT	1395	n/a	n/a	0	0	0
410.10107421875	n/a	REC_WORD_VV	839887	wordpools/wasnorm_wordpool_576.txt	LTP388	ltpFR2	1	1	<>	-1	n/a	n/a	0	0	0
410.77734375	n/a	REC_WORD	841272	wordpools/wasnorm_wordpool_576.txt	LTP388	ltpFR2	1	1	TEACHER	1440	n/a	n/a	0	0	0
412.26708984375	n/a	REC_WORD	844323	wordpools/wasnorm_wordpool_576.txt	LTP388	ltpFR2	1	1	IDOL	733	n/a	n/a	0	0	0
417.2919921875	n/a	REC_WORD	854614	wordpools/wasnorm_wordpool_576.txt	LTP388	ltpFR2	1	1	MATCH	878	n/a	n/a	0	0	0
418.58203125	n/a	REC_WORD	857256	wordpools/wasnorm_wordpool_576.txt	LTP388	ltpFR2	1	1	FLASHLIGHT	575	n/a	n/a	0	0	0
420.01171875	n/a	REC_WORD	860184	wordpools/wasnorm_wordpool_576.txt	LTP388	ltpFR2	1	1	RUG	1215	n/a	n/a	0	0	0
421.296875	n/a	REC_WORD	862816	wordpools/wasnorm_wordpool_576.txt	LTP388	ltpFR2	1	1	SHERIFF	1284	n/a	n/a	0	0	0
425.16162109375	n/a	REC_WORD	870731	wordpools/wasnorm_wordpool_576.txt	LTP388	ltpFR2	1	1	APPLE	33	n/a	n/a	0	0	0
426.591796875	n/a	REC_WORD	873660	wordpools/wasnorm_wordpool_576.txt	LTP388	ltpFR2	1	1	DRINK	498	n/a	n/a	0	0	0
431.4716796875	n/a	REC_WORD	883654	wordpools/wasnorm_wordpool_576.txt	LTP388	ltpFR2	1	1	DINER	467	n/a	n/a	0	0	0
449.99072265625	n/a	REC_WORD	921581	wordpools/wasnorm_wordpool_576.txt	LTP388	ltpFR2	1	1	SAUSAGE	1238	n/a	n/a	0	0	0
451.24072265625	n/a	REC_WORD	924141	wordpools/wasnorm_wordpool_576.txt	LTP388	ltpFR2	1	1	MEDAL	885	n/a	n/a	0	0	0
486.23486328125	n/a	WORD	995809	wordpools/wasnorm_wordpool_576.txt	LTP388	ltpFR2	1	2	JURY	766	n/a	n/a	0	0	0
488.78369140625	n/a	WORD	1001029	wordpools/wasnorm_wordpool_576.txt	LTP388	ltpFR2	1	2	JUDGE	761	n/a	n/a	0	0	0
491.2685546875	n/a	WORD	1006118	wordpools/wasnorm_wordpool_576.txt	LTP388	ltpFR2	1	2	COUNTRY	388	n/a	n/a	0	0	0
493.9833984375	n/a	WORD	1011678	wordpools/wasnorm_wordpool_576.txt	LTP388	ltpFR2	1	2	ARMY	39	n/a	n/a	0	0	0
496.6845703125	n/a	WORD	1017210	wordpools/wasnorm_wordpool_576.txt	LTP388	ltpFR2	1	2	SKILLET	1317	n/a	n/a	0	0	0
499.38427734375	n/a	WORD	1022739	wordpools/wasnorm_wordpool_576.txt	LTP388	ltpFR2	1	2	GLASS	639	n/a	n/a	0	0	0
502.16748046875	n/a	WORD	1028439	wordpools/wasnorm_wordpool_576.txt	LTP388	ltpFR2	1	2	EAGLE	512	n/a	n/a	0	0	0
504.900390625	n/a	WORD	1034036	wordpools/wasnorm_wordpool_576.txt	LTP388	ltpFR2	1	2	WITNESS	1618	n/a	n/a	0	0	0
507.71630859375	n/a	WORD	1039803	wordpools/wasnorm_wordpool_576.txt	LTP388	ltpFR2	1	2	BLENDER	136	n/a	n/a	0	0	0
510.31689453125	n/a	WORD	1045129	wordpools/wasnorm_wordpool_576.txt	LTP388	ltpFR2	1	2	COUNTY	389	n/a	n/a	0	0	0
512.9658203125	n/a	WORD	1050554	wordpools/wasnorm_wordpool_576.txt	LTP388	ltpFR2	1	2	GIFT	635	n/a	n/a	0	0	0
515.5498046875	n/a	WORD	1055846	wordpools/wasnorm_wordpool_576.txt	LTP388	ltpFR2	1	2	PEDAL	1037	n/a	n/a	0	0	0
517.98291015625	n/a	WORD	1060829	wordpools/wasnorm_wordpool_576.txt	LTP388	ltpFR2	1	2	PILOT	1070	n/a	n/a	0	0	0
520.6337890625	n/a	WORD	1066258	wordpools/wasnorm_wordpool_576.txt	LTP388	ltpFR2	1	2	MAILBOX	857	n/a	n/a	0	0	0
523.349609375	n/a	WORD	1071820	wordpools/wasnorm_wordpool_576.txt	LTP388	ltpFR2	1	2	ATOM	55	n/a	n/a	0	0	0
526.13330078125	n/a	WORD	1077521	wordpools/wasnorm_wordpool_576.txt	LTP388	ltpFR2	1	2	SERVER	1272	n/a	n/a	0	0	0
528.7822265625	n/a	WORD	1082946	wordpools/wasnorm_wordpool_576.txt	LTP388	ltpFR2	1	2	BLACKBOARD	133	n/a	n/a	0	0	0
531.54931640625	n/a	WORD	1088613	wordpools/wasnorm_wordpool_576.txt	LTP388	ltpFR2	1	2	BALLOON	75	n/a	n/a	0	0	0
534.01611328125	n/a	WORD	1093665	wordpools/wasnorm_wordpool_576.txt	LTP388	ltpFR2	1	2	JUGGLER	763	n/a	n/a	0	0	0
536.58203125	n/a	WORD	1098920	wordpools/wasnorm_wordpool_576.txt	LTP388	ltpFR2	1	2	AIRPORT	13	n/a	n/a	0	0	0
539.166015625	n/a	WORD	1104212	wordpools/wasnorm_wordpool_576.txt	LTP388	ltpFR2	1	2	WORKER	1621	n/a	n/a	0	0	0
541.9482421875	n/a	WORD	1109910	wordpools/wasnorm_wordpool_576.txt	LTP388	ltpFR2	1	2	OFFICE	972	n/a	n/a	0	0	0
544.48193359375	n/a	WORD	1115099	wordpools/wasnorm_wordpool_576.txt	LTP388	ltpFR2	1	2	DAUGHTER	442	n/a	n/a	0	0	0
547.01611328125	n/a	WORD	1120289	wordpools/wasnorm_wordpool_576.txt	LTP388	ltpFR2	1	2	CRAB	397	n/a	n/a	0	0	0
548.6318359375	n/a	START	1123598	n/a	LTP388	ltpFR2	1	n/a	n/a	n/a	3	n/a	n/a	n/a	n/a
549.5146484375	n/a	DISTRACTOR	1125406	n/a	LTP388	ltpFR2	1	2	n/a	n/a	n/a	n/a	0	0	0
549.53173828125	n/a	PROB	1125441	n/a	LTP388	ltpFR2	1	n/a	n/a	n/a	3	16	7	4	5
551.7978515625	n/a	PROB	1130082	n/a	LTP388	ltpFR2	1	n/a	n/a	n/a	3	8	2	2	6
553.06591796875	n/a	PROB	1132679	n/a	LTP388	ltpFR2	1	n/a	n/a	n/a	3	14	5	3	6
555.96435546875	n/a	PROB	1138615	n/a	LTP388	ltpFR2	1	n/a	n/a	n/a	3	20	5	8	7
559.99853515625	n/a	PROB	1146877	n/a	LTP388	ltpFR2	1	n/a	n/a	n/a	3	13	9	3	1
561.74755859375	n/a	PROB	1150459	n/a	LTP388	ltpFR2	1	n/a	n/a	n/a	3	24	9	5	9
565.24853515625	n/a	PROB	1157629	n/a	LTP388	ltpFR2	1	n/a	n/a	n/a	3	14	6	6	2
566.63134765625	n/a	PROB	1160461	n/a	LTP388	ltpFR2	1	n/a	n/a	n/a	3	18	5	9	4
569.51416015625	n/a	PROB	1166365	n/a	LTP388	ltpFR2	1	n/a	n/a	n/a	3	12	3	7	2
572.630859375	n/a	STOP	1172748	n/a	LTP388	ltpFR2	1	n/a	n/a	n/a	3	n/a	n/a	n/a	n/a
574.5478515625	n/a	REC_START	1176674	n/a	LTP388	ltpFR2	1	2	n/a	n/a	n/a	n/a	0	0	0
575.80322265625	n/a	REC_WORD	1179245	wordpools/wasnorm_wordpool_576.txt	LTP388	ltpFR2	1	2	DAUGHTER	442	n/a	n/a	0	0	0
577.1376953125	n/a	REC_WORD	1181978	wordpools/wasnorm_wordpool_576.txt	LTP388	ltpFR2	1	2	JUDGE	761	n/a	n/a	0	0	0
578.59765625	n/a	REC_WORD	1184968	wordpools/wasnorm_wordpool_576.txt	LTP388	ltpFR2	1	2	JURY	766	n/a	n/a	0	0	0
579.95263671875	n/a	REC_WORD	1187743	wordpools/wasnorm_wordpool_576.txt	LTP388	ltpFR2	1	2	COUNTRY	388	n/a	n/a	0	0	0
581.373046875	n/a	REC_WORD	1190652	wordpools/wasnorm_wordpool_576.txt	LTP388	ltpFR2	1	2	COUNTY	389	n/a	n/a	0	0	0
583.642578125	n/a	REC_WORD	1195300	wordpools/wasnorm_wordpool_576.txt	LTP388	ltpFR2	1	2	GIFT	635	n/a	n/a	0	0	0
584.90283203125	n/a	REC_WORD	1197881	wordpools/wasnorm_wordpool_576.txt	LTP388	ltpFR2	1	2	EAGLE	512	n/a	n/a	0	0	0
586.20751953125	n/a	REC_WORD	1200553	wordpools/wasnorm_wordpool_576.txt	LTP388	ltpFR2	1	2	BLENDER	136	n/a	n/a	0	0	0
587.66259765625	n/a	REC_WORD	1203533	wordpools/wasnorm_wordpool_576.txt	LTP388	ltpFR2	1	2	GLASS	639	n/a	n/a	0	0	0
589.1025390625	n/a	REC_WORD	1206482	wordpools/wasnorm_wordpool_576.txt	LTP388	ltpFR2	1	2	SKILLET	1317	n/a	n/a	0	0	0
590.87744140625	n/a	REC_WORD	1210117	wordpools/wasnorm_wordpool_576.txt	LTP388	ltpFR2	1	2	PILOT	1070	n/a	n/a	0	0	0
592.12744140625	n/a	REC_WORD	1212677	wordpools/wasnorm_wordpool_576.txt	LTP388	ltpFR2	1	2	PEDAL	1037	n/a	n/a	0	0	0
593.447265625	n/a	REC_WORD	1215380	wordpools/wasnorm_wordpool_576.txt	LTP388	ltpFR2	1	2	MAILBOX	857	n/a	n/a	0	0	0
595.00732421875	n/a	REC_WORD	1218575	wordpools/wasnorm_wordpool_576.txt	LTP388	ltpFR2	1	2	ATOM	55	n/a	n/a	0	0	0
596.076171875	n/a	REC_WORD	1220764	wordpools/wasnorm_wordpool_576.txt	LTP388	ltpFR2	1	2	SERVER	1272	n/a	n/a	0	0	0
605.15625	n/a	REC_WORD	1239360	wordpools/wasnorm_wordpool_576.txt	LTP388	ltpFR2	1	2	OFFICE	972	n/a	n/a	0	0	0
619.095703125	n/a	REC_WORD	1267908	wordpools/wasnorm_wordpool_576.txt	LTP388	ltpFR2	1	2	WITNESS	1618	n/a	n/a	0	0	0
623.74560546875	n/a	REC_WORD	1277431	wordpools/wasnorm_wordpool_576.txt	LTP388	ltpFR2	1	2	CRAB	397	n/a	n/a	0	0	0
642.2900390625	n/a	REC_WORD	1315410	wordpools/wasnorm_wordpool_576.txt	LTP388	ltpFR2	1	2	BALLOON	75	n/a	n/a	0	0	0
643.3798828125	n/a	REC_WORD	1317642	wordpools/wasnorm_wordpool_576.txt	LTP388	ltpFR2	1	2	JUGGLER	763	n/a	n/a	0	0	0
665.0263671875	n/a	WORD	1361974	wordpools/wasnorm_wordpool_576.txt	LTP388	ltpFR2	1	3	PICNIC	1060	n/a	n/a	0	0	0
667.4931640625	n/a	WORD	1367026	wordpools/wasnorm_wordpool_576.txt	LTP388	ltpFR2	1	3	DENIM	446	n/a	n/a	0	0	0
669.9248046875	n/a	WORD	1372006	wordpools/wasnorm_wordpool_576.txt	LTP388	ltpFR2	1	3	CLOCK	325	n/a	n/a	0	0	0
672.3427734375	n/a	WORD	1376958	wordpools/wasnorm_wordpool_576.txt	LTP388	ltpFR2	1	3	BOX	159	n/a	n/a	0	0	0
674.85888671875	n/a	WORD	1382111	wordpools/wasnorm_wordpool_576.txt	LTP388	ltpFR2	1	3	SUNRISE	1407	n/a	n/a	0	0	0
677.40966796875	n/a	WORD	1387335	wordpools/wasnorm_wordpool_576.txt	LTP388	ltpFR2	1	3	CASHEW	253	n/a	n/a	0	0	0
679.90869140625	n/a	WORD	1392453	wordpools/wasnorm_wordpool_576.txt	LTP388	ltpFR2	1	3	SPONGE	1355	n/a	n/a	0	0	0
682.642578125	n/a	WORD	1398052	wordpools/wasnorm_wordpool_576.txt	LTP388	ltpFR2	1	3	FIREMAN	569	n/a	n/a	0	0	0
685.142578125	n/a	WORD	1403172	wordpools/wasnorm_wordpool_576.txt	LTP388	ltpFR2	1	3	TAXI	1438	n/a	n/a	0	0	0
687.57568359375	n/a	WORD	1408155	wordpools/wasnorm_wordpool_576.txt	LTP388	ltpFR2	1	3	SODA	1341	n/a	n/a	0	0	0
690.17529296875	n/a	WORD	1413479	wordpools/wasnorm_wordpool_576.txt	LTP388	ltpFR2	1	3	OX	994	n/a	n/a	0	0	0
692.6923828125	n/a	WORD	1418634	wordpools/wasnorm_wordpool_576.txt	LTP388	ltpFR2	1	3	CUPBOARD	425	n/a	n/a	0	0	0
695.158203125	n/a	WORD	1423684	wordpools/wasnorm_wordpool_576.txt	LTP388	ltpFR2	1	3	CROSS	413	n/a	n/a	0	0	0
697.95703125	n/a	WORD	1429416	wordpools/wasnorm_wordpool_576.txt	LTP388	ltpFR2	1	3	FRIAR	605	n/a	n/a	0	0	0
700.375	n/a	WORD	1434368	wordpools/wasnorm_wordpool_576.txt	LTP388	ltpFR2	1	3	BLUEPRINT	142	n/a	n/a	0	0	0
703.05810546875	n/a	WORD	1439863	wordpools/wasnorm_wordpool_576.txt	LTP388	ltpFR2	1	3	POSTAGE	1113	n/a	n/a	0	0	0
705.57470703125	n/a	WORD	1445017	wordpools/wasnorm_wordpool_576.txt	LTP388	ltpFR2	1	3	PAIL	1002	n/a	n/a	0	0	0
708.341796875	n/a	WORD	1450684	wordpools/wasnorm_wordpool_576.txt	LTP388	ltpFR2	1	3	DIVER	476	n/a	n/a	0	0	0
710.87353515625	n/a	WORD	1455869	wordpools/wasnorm_wordpool_576.txt	LTP388	ltpFR2	1	3	PANTHER	1009	n/a	n/a	0	0	0
713.640625	n/a	WORD	1461536	wordpools/wasnorm_wordpool_576.txt	LTP388	ltpFR2	1	3	OUTFIT	988	n/a	n/a	0	0	0
716.15771484375	n/a	WORD	1466691	wordpools/wasnorm_wordpool_576.txt	LTP388	ltpFR2	1	3	PACKAGE	997	n/a	n/a	0	0	0
718.87353515625	n/a	WORD	1472253	wordpools/wasnorm_wordpool_576.txt	LTP388	ltpFR2	1	3	KNAPSACK	783	n/a	n/a	0	0	0
721.4072265625	n/a	WORD	1477442	wordpools/wasnorm_wordpool_576.txt	LTP388	ltpFR2	1	3	INMATE	738	n/a	n/a	0	0	0
723.90625	n/a	WORD	1482560	wordpools/wasnorm_wordpool_576.txt	LTP388	ltpFR2	1	3	POSSUM	1112	n/a	n/a	0	0	0
725.5244140625	n/a	START	1485874	n/a	LTP388	ltpFR2	1	n/a	n/a	n/a	4	n/a	n/a	n/a	n/a
726.38134765625	n/a	DISTRACTOR	1487629	n/a	LTP388	ltpFR2	1	3	n/a	n/a	n/a	n/a	0	0	0
726.39013671875	n/a	PROB	1487647	n/a	LTP388	ltpFR2	1	n/a	n/a	n/a	4	11	2	7	2
729.990234375	n/a	PROB	1495020	n/a	LTP388	ltpFR2	1	n/a	n/a	n/a	4	21	5	8	8
731.873046875	n/a	PROB	1498876	n/a	LTP388	ltpFR2	1	n/a	n/a	n/a	4	16	6	9	1
734.39013671875	n/a	PROB	1504031	n/a	LTP388	ltpFR2	1	n/a	n/a	n/a	4	6	3	2	1
736.14013671875	n/a	PROB	1507615	n/a	LTP388	ltpFR2	1	n/a	n/a	n/a	4	11	2	1	8
737.52294921875	n/a	PROB	1510447	n/a	LTP388	ltpFR2	1	n/a	n/a	n/a	4	22	6	9	7
741.123046875	n/a	PROB	1517820	n/a	LTP388	ltpFR2	1	n/a	n/a	n/a	4	18	5	6	7
743.98974609375	n/a	PROB	1523691	n/a	LTP388	ltpFR2	1	n/a	n/a	n/a	4	10	1	5	4
745.771484375	n/a	PROB	1527340	n/a	LTP388	ltpFR2	1	n/a	n/a	n/a	4	16	7	4	5
748.47265625	n/a	STOP	1532872	n/a	LTP388	ltpFR2	1	n/a	n/a	n/a	4	n/a	n/a	n/a	n/a
751.32373046875	n/a	REC_START	1538711	n/a	LTP388	ltpFR2	1	3	n/a	n/a	n/a	n/a	0	0	0
751.90771484375	n/a	REC_WORD	1539907	wordpools/wasnorm_wordpool_576.txt	LTP388	ltpFR2	1	3	INMATE	738	n/a	n/a	0	0	0
753.3662109375	n/a	REC_WORD	1542894	wordpools/wasnorm_wordpool_576.txt	LTP388	ltpFR2	1	3	OX	994	n/a	n/a	0	0	0
754.58251953125	n/a	REC_WORD	1545385	wordpools/wasnorm_wordpool_576.txt	LTP388	ltpFR2	1	3	POSSUM	1112	n/a	n/a	0	0	0
755.96240234375	n/a	REC_WORD	1548211	wordpools/wasnorm_wordpool_576.txt	LTP388	ltpFR2	1	3	PICNIC	1060	n/a	n/a	0	0	0
757.62109375	n/a	REC_WORD	1551608	wordpools/wasnorm_wordpool_576.txt	LTP388	ltpFR2	1	3	PACKAGE	997	n/a	n/a	0	0	0
759.13720703125	n/a	REC_WORD	1554713	wordpools/wasnorm_wordpool_576.txt	LTP388	ltpFR2	1	3	CUPBOARD	425	n/a	n/a	0	0	0
761.01220703125	n/a	REC_WORD	1558553	wordpools/wasnorm_wordpool_576.txt	LTP388	ltpFR2	1	3	CASHEW	253	n/a	n/a	0	0	0
762.326171875	n/a	REC_WORD	1561244	wordpools/wasnorm_wordpool_576.txt	LTP388	ltpFR2	1	3	SUNRISE	1407	n/a	n/a	0	0	0
763.326171875	n/a	REC_WORD_VV	1563292	wordpools/wasnorm_wordpool_576.txt	LTP388	ltpFR2	1	3	<>	-1	n/a	n/a	0	0	0
763.8212890625	n/a	REC_WORD	1564306	wordpools/wasnorm_wordpool_576.txt	LTP388	ltpFR2	1	3	FIREMAN	569	n/a	n/a	0	0	0
765.328125	n/a	REC_WORD	1567392	wordpools/wasnorm_wordpool_576.txt	LTP388	ltpFR2	1	3	TAXI	1438	n/a	n/a	0	0	0
768.89794921875	n/a	REC_WORD	1574703	wordpools/wasnorm_wordpool_576.txt	LTP388	ltpFR2	1	3	BLUEPRINT	142	n/a	n/a	0	0	0
770.31787109375	n/a	REC_WORD	1577611	wordpools/wasnorm_wordpool_576.txt	LTP388	ltpFR2	1	3	POSTAGE	1113	n/a	n/a	0	0	0
772.0029296875	n/a	REC_WORD	1581062	wordpools/wasnorm_wordpool_576.txt	LTP388	ltpFR2	1	3	FRIAR	605	n/a	n/a	0	0	0
773.40771484375	n/a	REC_WORD	1583939	wordpools/wasnorm_wordpool_576.txt	LTP388	ltpFR2	1	3	CROSS	413	n/a	n/a	0	0	0
784.9326171875	n/a	REC_WORD	1607542	wordpools/wasnorm_wordpool_576.txt	LTP388	ltpFR2	1	3	DENIM	446	n/a	n/a	0	0	0
786.1826171875	n/a	REC_WORD	1610102	wordpools/wasnorm_wordpool_576.txt	LTP388	ltpFR2	1	3	OUTFIT	988	n/a	n/a	0	0	0
802.94189453125	n/a	REC_WORD	1644425	wordpools/wasnorm_wordpool_576.txt	LTP388	ltpFR2	1	3	SODA	1341	n/a	n/a	0	0	0
841.767578125	n/a	DISTRACTOR	1723940	n/a	LTP388	ltpFR2	1	4	n/a	n/a	n/a	n/a	0	0	0
841.767578125	n/a	START	1723940	n/a	LTP388	ltpFR2	1	n/a	n/a	n/a	5	n/a	n/a	n/a	n/a
841.78369140625	n/a	PROB	1723973	n/a	LTP388	ltpFR2	1	n/a	n/a	n/a	5	9	4	4	1
843.25146484375	n/a	PROB	1726979	n/a	LTP388	ltpFR2	1	n/a	n/a	n/a	5	19	9	1	9
844.70166015625	n/a	PROB	1729949	n/a	LTP388	ltpFR2	1	n/a	n/a	n/a	5	6	2	2	2
846.00146484375	n/a	PROB	1732611	n/a	LTP388	ltpFR2	1	n/a	n/a	n/a	5	11	2	7	2
847.75048828125	n/a	PROB	1736193	n/a	LTP388	ltpFR2	1	n/a	n/a	n/a	5	22	8	7	7
851.13427734375	n/a	PROB	1743123	n/a	LTP388	ltpFR2	1	n/a	n/a	n/a	5	23	6	8	9
853.83349609375	n/a	PROB	1748651	n/a	LTP388	ltpFR2	1	n/a	n/a	n/a	5	18	5	4	9
855.55126953125	n/a	PROB	1752169	n/a	LTP388	ltpFR2	1	n/a	n/a	n/a	5	15	2	6	7
858.01806640625	n/a	PROB	1757221	n/a	LTP388	ltpFR2	1	n/a	n/a	n/a	5	5	2	2	1
859.30126953125	n/a	PROB	1759849	n/a	LTP388	ltpFR2	1	n/a	n/a	n/a	5	19	7	8	4
861.451171875	n/a	PROB	1764252	n/a	LTP388	ltpFR2	1	n/a	n/a	n/a	5	21	8	6	7
865.39990234375	n/a	STOP	1772339	n/a	LTP388	ltpFR2	1	n/a	n/a	n/a	5	n/a	n/a	n/a	n/a
866.65087890625	n/a	WORD	1774901	wordpools/wasnorm_wordpool_576.txt	LTP388	ltpFR2	1	4	PUPPY	1144	n/a	n/a	0	0	0
869.36669921875	n/a	WORD	1780463	wordpools/wasnorm_wordpool_576.txt	LTP388	ltpFR2	1	4	BINDER	127	n/a	n/a	0	0	0
871.9326171875	n/a	WORD	1785718	wordpools/wasnorm_wordpool_576.txt	LTP388	ltpFR2	1	4	NOTEBOOK	959	n/a	n/a	0	0	0
874.6005859375	n/a	WORD	1791182	wordpools/wasnorm_wordpool_576.txt	LTP388	ltpFR2	1	4	BRICK	172	n/a	n/a	0	0	0
877.08349609375	n/a	WORD	1796267	wordpools/wasnorm_wordpool_576.txt	LTP388	ltpFR2	1	4	PIGEON	1065	n/a	n/a	0	0	0
879.8994140625	n/a	WORD	1802034	wordpools/wasnorm_wordpool_576.txt	LTP388	ltpFR2	1	4	FOREHEAD	592	n/a	n/a	0	0	0
882.650390625	n/a	WORD	1807668	wordpools/wasnorm_wordpool_576.txt	LTP388	ltpFR2	1	4	DOLPHIN	483	n/a	n/a	0	0	0
885.19921875	n/a	WORD	1812888	wordpools/wasnorm_wordpool_576.txt	LTP388	ltpFR2	1	4	PLUTO	1092	n/a	n/a	0	0	0
887.76513671875	n/a	WORD	1818143	wordpools/wasnorm_wordpool_576.txt	LTP388	ltpFR2	1	4	CLOUD	328	n/a	n/a	0	0	0
890.3330078125	n/a	WORD	1823402	wordpools/wasnorm_wordpool_576.txt	LTP388	ltpFR2	1	4	BLADE	134	n/a	n/a	0	0	0
892.81494140625	n/a	WORD	1828485	wordpools/wasnorm_wordpool_576.txt	LTP388	ltpFR2	1	4	KEEPER	769	n/a	n/a	0	0	0
895.34912109375	n/a	WORD	1833675	wordpools/wasnorm_wordpool_576.txt	LTP388	ltpFR2	1	4	GRAVEL	659	n/a	n/a	0	0	0
897.86474609375	n/a	WORD	1838827	wordpools/wasnorm_wordpool_576.txt	LTP388	ltpFR2	1	4	WHISKERS	1605	n/a	n/a	0	0	0
900.4326171875	n/a	WORD	1844086	wordpools/wasnorm_wordpool_576.txt	LTP388	ltpFR2	1	4	FRECKLE	602	n/a	n/a	0	0	0
903.0986328125	n/a	WORD	1849546	wordpools/wasnorm_wordpool_576.txt	LTP388	ltpFR2	1	4	GUITAR	670	n/a	n/a	0	0	0
905.58251953125	n/a	WORD	1854633	wordpools/wasnorm_wordpool_576.txt	LTP388	ltpFR2	1	4	CAMEL	223	n/a	n/a	0	0	0
908.1328125	n/a	WORD	1859856	wordpools/wasnorm_wordpool_576.txt	LTP388	ltpFR2	1	4	HAWK	692	n/a	n/a	0	0	0
910.58154296875	n/a	WORD	1864871	wordpools/wasnorm_wordpool_576.txt	LTP388	ltpFR2	1	4	ROCKET	1202	n/a	n/a	0	0	0
913.04833984375	n/a	WORD	1869923	wordpools/wasnorm_wordpool_576.txt	LTP388	ltpFR2	1	4	PADDLE	1000	n/a	n/a	0	0	0
915.84716796875	n/a	WORD	1875655	wordpools/wasnorm_wordpool_576.txt	LTP388	ltpFR2	1	4	BABY	64	n/a	n/a	0	0	0
918.26513671875	n/a	WORD	1880607	wordpools/wasnorm_wordpool_576.txt	LTP388	ltpFR2	1	4	TURKEY	1520	n/a	n/a	0	0	0
920.947265625	n/a	WORD	1886100	wordpools/wasnorm_wordpool_576.txt	LTP388	ltpFR2	1	4	ICEBERG	731	n/a	n/a	0	0	0
923.46533203125	n/a	WORD	1891257	wordpools/wasnorm_wordpool_576.txt	LTP388	ltpFR2	1	4	PASSAGE	1019	n/a	n/a	0	0	0
926.26513671875	n/a	WORD	1896991	wordpools/wasnorm_wordpool_576.txt	LTP388	ltpFR2	1	4	PORTRAIT	1111	n/a	n/a	0	0	0
927.880859375	n/a	START	1900300	n/a	LTP388	ltpFR2	1	n/a	n/a	n/a	6	n/a	n/a	n/a	n/a
928.81591796875	n/a	DISTRACTOR	1902215	n/a	LTP388	ltpFR2	1	4	n/a	n/a	n/a	n/a	0	0	0
928.830078125	n/a	PROB	1902244	n/a	LTP388	ltpFR2	1	n/a	n/a	n/a	6	20	8	3	9
932.6640625	n/a	PROB	1910096	n/a	LTP388	ltpFR2	1	n/a	n/a	n/a	6	17	6	9	2
935.0478515625	n/a	PROB	1914978	n/a	LTP388	ltpFR2	1	n/a	n/a	n/a	6	20	9	8	3
937.49755859375	n/a	PROB	1919995	n/a	LTP388	ltpFR2	1	n/a	n/a	n/a	6	17	7	6	4
940.16357421875	n/a	PROB	1925455	n/a	LTP388	ltpFR2	1	n/a	n/a	n/a	6	15	6	5	4
943.46337890625	n/a	PROB	1932213	n/a	LTP388	ltpFR2	1	n/a	n/a	n/a	6	13	3	7	3
945.13037109375	n/a	PROB	1935627	n/a	LTP388	ltpFR2	1	n/a	n/a	n/a	6	23	6	8	9
947.5302734375	n/a	PROB	1940542	n/a	LTP388	ltpFR2	1	n/a	n/a	n/a	6	11	1	5	5
948.66357421875	n/a	PROB	1942863	n/a	LTP388	ltpFR2	1	n/a	n/a	n/a	6	8	2	4	2
950.51220703125	n/a	STOP	1946649	n/a	LTP388	ltpFR2	1	n/a	n/a	n/a	6	n/a	n/a	n/a	n/a
953.697265625	n/a	REC_START	1953172	n/a	LTP388	ltpFR2	1	4	n/a	n/a	n/a	n/a	0	0	0
954.40625	n/a	REC_WORD	1954624	wordpools/wasnorm_wordpool_576.txt	LTP388	ltpFR2	1	4	PUPPY	1144	n/a	n/a	0	0	0
955.5810546875	n/a	REC_WORD	1957030	wordpools/wasnorm_wordpool_576.txt	LTP388	ltpFR2	1	4	NOTEBOOK	959	n/a	n/a	0	0	0
957.1611328125	n/a	REC_WORD	1960266	wordpools/wasnorm_wordpool_576.txt	LTP388	ltpFR2	1	4	BINDER	127	n/a	n/a	0	0	0
958.64013671875	n/a	REC_WORD	1963295	wordpools/wasnorm_wordpool_576.txt	LTP388	ltpFR2	1	4	GRAVEL	659	n/a	n/a	0	0	0
960.23486328125	n/a	REC_WORD	1966561	wordpools/wasnorm_wordpool_576.txt	LTP388	ltpFR2	1	4	PLUTO	1092	n/a	n/a	0	0	0
964.27001953125	n/a	REC_WORD	1974825	wordpools/wasnorm_wordpool_576.txt	LTP388	ltpFR2	1	4	ROCKET	1202	n/a	n/a	0	0	0
965.6650390625	n/a	REC_WORD	1977682	wordpools/wasnorm_wordpool_576.txt	LTP388	ltpFR2	1	4	PADDLE	1000	n/a	n/a	0	0	0
967.01953125	n/a	REC_WORD	1980456	wordpools/wasnorm_wordpool_576.txt	LTP388	ltpFR2	1	4	ICEBERG	731	n/a	n/a	0	0	0
968.57470703125	n/a	REC_WORD	1983641	wordpools/wasnorm_wordpool_576.txt	LTP388	ltpFR2	1	4	PASSAGE	1019	n/a	n/a	0	0	0
970.06982421875	n/a	REC_WORD	1986703	wordpools/wasnorm_wordpool_576.txt	LTP388	ltpFR2	1	4	PORTRAIT	1111	n/a	n/a	0	0	0
971.5146484375	n/a	REC_WORD	1989662	wordpools/wasnorm_wordpool_576.txt	LTP388	ltpFR2	1	4	PIGEON	1065	n/a	n/a	0	0	0
972.74462890625	n/a	REC_WORD	1992181	wordpools/wasnorm_wordpool_576.txt	LTP388	ltpFR2	1	4	HAWK	692	n/a	n/a	0	0	0
973.939453125	n/a	REC_WORD	1994628	wordpools/wasnorm_wordpool_576.txt	LTP388	ltpFR2	1	4	GUITAR	670	n/a	n/a	0	0	0
975.4697265625	n/a	REC_WORD	1997762	wordpools/wasnorm_wordpool_576.txt	LTP388	ltpFR2	1	4	CAMEL	223	n/a	n/a	0	0	0
979.98828125	n/a	REC_WORD	2007016	wordpools/wasnorm_wordpool_576.txt	LTP388	ltpFR2	1	4	FOREHEAD	592	n/a	n/a	0	0	0
985.2841796875	n/a	REC_WORD	2017862	wordpools/wasnorm_wordpool_576.txt	LTP388	ltpFR2	1	4	WHISKERS	1605	n/a	n/a	0	0	0
986.6103515625	n/a	REC_WORD	2020578	wordpools/wasnorm_wordpool_576.txt	LTP388	ltpFR2	1	4	FRECKLE	602	n/a	n/a	0	0	0
1044.1591796875	n/a	WORD	2138438	wordpools/wasnorm_wordpool_576.txt	LTP388	ltpFR2	1	5	BODY	145	n/a	n/a	0	0	0
1046.70849609375	n/a	WORD	2143659	wordpools/wasnorm_wordpool_576.txt	LTP388	ltpFR2	1	5	WOMAN	1620	n/a	n/a	0	0	0
1049.1923828125	n/a	WORD	2148746	wordpools/wasnorm_wordpool_576.txt	LTP388	ltpFR2	1	5	HEART	697	n/a	n/a	0	0	0
1052.00927734375	n/a	WORD	2154515	wordpools/wasnorm_wordpool_576.txt	LTP388	ltpFR2	1	5	HOUND	724	n/a	n/a	0	0	0
1054.82421875	n/a	WORD	2160280	wordpools/wasnorm_wordpool_576.txt	LTP388	ltpFR2	1	5	BOARD	143	n/a	n/a	0	0	0
1057.57470703125	n/a	WORD	2165913	wordpools/wasnorm_wordpool_576.txt	LTP388	ltpFR2	1	5	CONTRACT	368	n/a	n/a	0	0	0
1060.22509765625	n/a	WORD	2171341	wordpools/wasnorm_wordpool_576.txt	LTP388	ltpFR2	1	5	HERO	706	n/a	n/a	0	0	0
1062.99169921875	n/a	WORD	2177007	wordpools/wasnorm_wordpool_576.txt	LTP388	ltpFR2	1	5	DRUG	501	n/a	n/a	0	0	0
1065.6416015625	n/a	WORD	2182434	wordpools/wasnorm_wordpool_576.txt	LTP388	ltpFR2	1	5	AGENT	10	n/a	n/a	0	0	0
1068.3076171875	n/a	WORD	2187894	wordpools/wasnorm_wordpool_576.txt	LTP388	ltpFR2	1	5	BRANDY	169	n/a	n/a	0	0	0
1070.7734375	n/a	WORD	2192944	wordpools/wasnorm_wordpool_576.txt	LTP388	ltpFR2	1	5	FLASK	576	n/a	n/a	0	0	0
1073.42431640625	n/a	WORD	2198373	wordpools/wasnorm_wordpool_576.txt	LTP388	ltpFR2	1	5	BEAST	108	n/a	n/a	0	0	0
1075.9912109375	n/a	WORD	2203630	wordpools/wasnorm_wordpool_576.txt	LTP388	ltpFR2	1	5	AWARD	63	n/a	n/a	0	0	0
1078.42431640625	n/a	WORD	2208613	wordpools/wasnorm_wordpool_576.txt	LTP388	ltpFR2	1	5	WARDROBE	1587	n/a	n/a	0	0	0
1081.20703125	n/a	WORD	2214312	wordpools/wasnorm_wordpool_576.txt	LTP388	ltpFR2	1	5	CLOTHES	327	n/a	n/a	0	0	0
1083.8232421875	n/a	WORD	2219670	wordpools/wasnorm_wordpool_576.txt	LTP388	ltpFR2	1	5	HIGHWAY	707	n/a	n/a	0	0	0
1086.57421875	n/a	WORD	2225304	wordpools/wasnorm_wordpool_576.txt	LTP388	ltpFR2	1	5	HUMAN	726	n/a	n/a	0	0	0
1089.02392578125	n/a	WORD	2230321	wordpools/wasnorm_wordpool_576.txt	LTP388	ltpFR2	1	5	PEPPER	1047	n/a	n/a	0	0	0
1091.5068359375	n/a	WORD	2235406	wordpools/wasnorm_wordpool_576.txt	LTP388	ltpFR2	1	5	VIRUS	1572	n/a	n/a	0	0	0
1094.2568359375	n/a	WORD	2241038	wordpools/wasnorm_wordpool_576.txt	LTP388	ltpFR2	1	5	JEANS	752	n/a	n/a	0	0	0
1096.68994140625	n/a	WORD	2246021	wordpools/wasnorm_wordpool_576.txt	LTP388	ltpFR2	1	5	DONKEY	484	n/a	n/a	0	0	0
1099.173828125	n/a	WORD	2251108	wordpools/wasnorm_wordpool_576.txt	LTP388	ltpFR2	1	5	ROBOT	1200	n/a	n/a	0	0	0
1101.95556640625	n/a	WORD	2256805	wordpools/wasnorm_wordpool_576.txt	LTP388	ltpFR2	1	5	DONOR	485	n/a	n/a	0	0	0
1104.62353515625	n/a	WORD	2262269	wordpools/wasnorm_wordpool_576.txt	LTP388	ltpFR2	1	5	ACTOR	5	n/a	n/a	0	0	0
1106.2392578125	n/a	START	2265578	n/a	LTP388	ltpFR2	1	n/a	n/a	n/a	7	n/a	n/a	n/a	n/a
1107.32861328125	n/a	DISTRACTOR	2267809	n/a	LTP388	ltpFR2	1	5	n/a	n/a	n/a	n/a	0	0	0
1107.33935546875	n/a	PROB	2267831	n/a	LTP388	ltpFR2	1	n/a	n/a	n/a	7	21	7	7	7
1109.189453125	n/a	PROB	2271620	n/a	LTP388	ltpFR2	1	n/a	n/a	n/a	7	13	6	6	1
1111.92138671875	n/a	PROB	2277215	n/a	LTP388	ltpFR2	1	n/a	n/a	n/a	7	11	8	2	1
1115.25634765625	n/a	PROB	2284045	n/a	LTP388	ltpFR2	1	n/a	n/a	n/a	7	18	5	6	7
1118.15625	n/a	PROB	2289984	n/a	LTP388	ltpFR2	1	n/a	n/a	n/a	7	15	5	9	1
1119.3720703125	n/a	PROB	2292474	n/a	LTP388	ltpFR2	1	n/a	n/a	n/a	7	13	1	9	3
1121.02197265625	n/a	PROB	2295853	n/a	LTP388	ltpFR2	1	n/a	n/a	n/a	7	17	7	1	9
1122.4560546875	n/a	PROB	2298790	n/a	LTP388	ltpFR2	1	n/a	n/a	n/a	7	11	3	1	7
1124.138671875	n/a	PROB	2302236	n/a	LTP388	ltpFR2	1	n/a	n/a	n/a	7	19	7	4	8
1125.78759765625	n/a	PROB	2305613	n/a	LTP388	ltpFR2	1	n/a	n/a	n/a	7	23	5	9	9
1127.85498046875	n/a	PROB	2309847	n/a	LTP388	ltpFR2	1	n/a	n/a	n/a	7	18	8	1	9
1129.04052734375	n/a	STOP	2312275	n/a	LTP388	ltpFR2	1	n/a	n/a	n/a	7	n/a	n/a	n/a	n/a
1132.15576171875	n/a	REC_START	2318655	n/a	LTP388	ltpFR2	1	5	n/a	n/a	n/a	n/a	0	0	0
1132.83154296875	n/a	REC_WORD	2320039	wordpools/wasnorm_wordpool_576.txt	LTP388	ltpFR2	1	5	DONKEY	484	n/a	n/a	0	0	0
1134.04248046875	n/a	REC_WORD	2322519	wordpools/wasnorm_wordpool_576.txt	LTP388	ltpFR2	1	5	ROBOT	1200	n/a	n/a	0	0	0
1136.04833984375	n/a	REC_WORD	2326627	wordpools/wasnorm_wordpool_576.txt	LTP388	ltpFR2	1	5	HIGHWAY	707	n/a	n/a	0	0	0
1137.564453125	n/a	REC_WORD	2329732	wordpools/wasnorm_wordpool_576.txt	LTP388	ltpFR2	1	5	AWARD	63	n/a	n/a	0	0	0
1139.18359375	n/a	REC_WORD	2333048	wordpools/wasnorm_wordpool_576.txt	LTP388	ltpFR2	1	5	HERO	706	n/a	n/a	0	0	0
1140.8984375	n/a	REC_WORD	2336560	wordpools/wasnorm_wordpool_576.txt	LTP388	ltpFR2	1	5	DONOR	485	n/a	n/a	0	0	0
1142.38818359375	n/a	REC_WORD	2339611	wordpools/wasnorm_wordpool_576.txt	LTP388	ltpFR2	1	5	ACTOR	5	n/a	n/a	0	0	0
1143.88330078125	n/a	REC_WORD	2342673	wordpools/wasnorm_wordpool_576.txt	LTP388	ltpFR2	1	5	JEANS	752	n/a	n/a	0	0	0
1145.4091796875	n/a	REC_WORD	2345798	wordpools/wasnorm_wordpool_576.txt	LTP388	ltpFR2	1	5	OUTFIT	988	n/a	n/a	0	0	0
1146.7841796875	n/a	REC_WORD	2348614	wordpools/wasnorm_wordpool_576.txt	LTP388	ltpFR2	1	5	WARDROBE	1587	n/a	n/a	0	0	0
1148.4130859375	n/a	REC_WORD	2351950	wordpools/wasnorm_wordpool_576.txt	LTP388	ltpFR2	1	5	BODY	145	n/a	n/a	0	0	0
1149.72412109375	n/a	REC_WORD	2354635	wordpools/wasnorm_wordpool_576.txt	LTP388	ltpFR2	1	5	WOMAN	1620	n/a	n/a	0	0	0
1151.244140625	n/a	REC_WORD	2357748	wordpools/wasnorm_wordpool_576.txt	LTP388	ltpFR2	1	5	HEART	697	n/a	n/a	0	0	0
1152.837890625	n/a	REC_WORD	2361012	wordpools/wasnorm_wordpool_576.txt	LTP388	ltpFR2	1	5	BEAST	108	n/a	n/a	0	0	0
1154.32275390625	n/a	REC_WORD	2364053	wordpools/wasnorm_wordpool_576.txt	LTP388	ltpFR2	1	5	CONTRACT	368	n/a	n/a	0	0	0
1157.099609375	n/a	REC_WORD	2369740	wordpools/wasnorm_wordpool_576.txt	LTP388	ltpFR2	1	5	PEPPER	1047	n/a	n/a	0	0	0
1158.3828125	n/a	REC_WORD	2372368	wordpools/wasnorm_wordpool_576.txt	LTP388	ltpFR2	1	5	VIRUS	1572	n/a	n/a	0	0	0
1159.3828125	n/a	REC_WORD_VV	2374416	wordpools/wasnorm_wordpool_576.txt	LTP388	ltpFR2	1	5	<>	-1	n/a	n/a	0	0	0
1160.69482421875	n/a	REC_WORD	2377103	wordpools/wasnorm_wordpool_576.txt	LTP388	ltpFR2	1	5	DRUG	501	n/a	n/a	0	0	0
1204.63134765625	n/a	REC_WORD	2467085	wordpools/wasnorm_wordpool_576.txt	LTP388	ltpFR2	1	5	HUMAN	726	n/a	n/a	0	0	0
1222.6005859375	n/a	DISTRACTOR	2503886	n/a	LTP388	ltpFR2	1	6	n/a	n/a	n/a	n/a	0	0	0
1222.6005859375	n/a	START	2503886	n/a	LTP388	ltpFR2	1	n/a	n/a	n/a	8	n/a	n/a	n/a	n/a
1222.61767578125	n/a	PROB	2503921	n/a	LTP388	ltpFR2	1	n/a	n/a	n/a	8	25	8	8	9
1225.7666015625	n/a	PROB	2510370	n/a	LTP388	ltpFR2	1	n/a	n/a	n/a	8	11	1	1	9
1227.00048828125	n/a	PROB	2512897	n/a	LTP388	ltpFR2	1	n/a	n/a	n/a	8	19	8	6	5
1229.3173828125	n/a	PROB	2517642	n/a	LTP388	ltpFR2	1	n/a	n/a	n/a	8	17	2	6	9
1231.18359375	n/a	PROB	2521464	n/a	LTP388	ltpFR2	1	n/a	n/a	n/a	8	10	4	2	4
1233.267578125	n/a	PROB	2525732	n/a	LTP388	ltpFR2	1	n/a	n/a	n/a	8	14	3	4	7
1235.0673828125	n/a	PROB	2529418	n/a	LTP388	ltpFR2	1	n/a	n/a	n/a	8	5	1	1	3
1236.1005859375	n/a	PROB	2531534	n/a	LTP388	ltpFR2	1	n/a	n/a	n/a	8	9	1	1	7
1237.400390625	n/a	PROB	2534196	n/a	LTP388	ltpFR2	1	n/a	n/a	n/a	8	15	7	4	4
1238.96630859375	n/a	PROB	2537403	n/a	LTP388	ltpFR2	1	n/a	n/a	n/a	8	20	9	4	7
1240.96630859375	n/a	PROB	2541499	n/a	LTP388	ltpFR2	1	n/a	n/a	n/a	8	20	5	8	7
1243.93212890625	n/a	PROB	2547573	n/a	LTP388	ltpFR2	1	n/a	n/a	n/a	8	13	6	5	2
1246.3359375	n/a	STOP	2552496	n/a	LTP388	ltpFR2	1	n/a	n/a	n/a	8	n/a	n/a	n/a	n/a
1247.68310546875	n/a	WORD	2555255	wordpools/wasnorm_wordpool_576.txt	LTP388	ltpFR2	1	6	SPARROW	1347	n/a	n/a	0	0	0
1250.2158203125	n/a	WORD	2560442	wordpools/wasnorm_wordpool_576.txt	LTP388	ltpFR2	1	6	RUST	1219	n/a	n/a	0	0	0
1252.96484375	n/a	WORD	2566072	wordpools/wasnorm_wordpool_576.txt	LTP388	ltpFR2	1	6	SALT	1229	n/a	n/a	0	0	0
1255.6328125	n/a	WORD	2571536	wordpools/wasnorm_wordpool_576.txt	LTP388	ltpFR2	1	6	SADDLE	1221	n/a	n/a	0	0	0
1258.41552734375	n/a	WORD	2577235	wordpools/wasnorm_wordpool_576.txt	LTP388	ltpFR2	1	6	THREAD	1460	n/a	n/a	0	0	0
1260.96484375	n/a	WORD	2582456	wordpools/wasnorm_wordpool_576.txt	LTP388	ltpFR2	1	6	ROBBER	1197	n/a	n/a	0	0	0
1263.54931640625	n/a	WORD	2587749	wordpools/wasnorm_wordpool_576.txt	LTP388	ltpFR2	1	6	COIN	343	n/a	n/a	0	0	0
1266.115234375	n/a	WORD	2593004	wordpools/wasnorm_wordpool_576.txt	LTP388	ltpFR2	1	6	GYMNAST	675	n/a	n/a	0	0	0
1268.8974609375	n/a	WORD	2598702	wordpools/wasnorm_wordpool_576.txt	LTP388	ltpFR2	1	6	STAMP	1370	n/a	n/a	0	0	0
1271.38232421875	n/a	WORD	2603791	wordpools/wasnorm_wordpool_576.txt	LTP388	ltpFR2	1	6	MAILMAN	858	n/a	n/a	0	0	0
1274.18212890625	n/a	WORD	2609525	wordpools/wasnorm_wordpool_576.txt	LTP388	ltpFR2	1	6	TWIG	1527	n/a	n/a	0	0	0
1276.947265625	n/a	WORD	2615188	wordpools/wasnorm_wordpool_576.txt	LTP388	ltpFR2	1	6	PICTURE	1061	n/a	n/a	0	0	0
1279.7138671875	n/a	WORD	2620854	wordpools/wasnorm_wordpool_576.txt	LTP388	ltpFR2	1	6	DUSTPAN	509	n/a	n/a	0	0	0
1282.14794921875	n/a	WORD	2625839	wordpools/wasnorm_wordpool_576.txt	LTP388	ltpFR2	1	6	DUST	508	n/a	n/a	0	0	0
1284.78076171875	n/a	WORD	2631231	wordpools/wasnorm_wordpool_576.txt	LTP388	ltpFR2	1	6	MISTER	901	n/a	n/a	0	0	0
1287.56494140625	n/a	WORD	2636933	wordpools/wasnorm_wordpool_576.txt	LTP388	ltpFR2	1	6	WAGON	1578	n/a	n/a	0	0	0
1290.19775390625	n/a	WORD	2642325	wordpools/wasnorm_wordpool_576.txt	LTP388	ltpFR2	1	6	HATCHET	691	n/a	n/a	0	0	0
1292.69677734375	n/a	WORD	2647443	wordpools/wasnorm_wordpool_576.txt	LTP388	ltpFR2	1	6	WORLD	1622	n/a	n/a	0	0	0
1295.1806640625	n/a	WORD	2652530	wordpools/wasnorm_wordpool_576.txt	LTP388	ltpFR2	1	6	GLOBE	641	n/a	n/a	0	0	0
1297.98046875	n/a	WORD	2658264	wordpools/wasnorm_wordpool_576.txt	LTP388	ltpFR2	1	6	HELMET	702	n/a	n/a	0	0	0
1300.6962890625	n/a	WORD	2663826	wordpools/wasnorm_wordpool_576.txt	LTP388	ltpFR2	1	6	FOOTBALL	591	n/a	n/a	0	0	0
1303.34716796875	n/a	WORD	2669255	wordpools/wasnorm_wordpool_576.txt	LTP388	ltpFR2	1	6	STREAM	1392	n/a	n/a	0	0	0
1305.87939453125	n/a	WORD	2674441	wordpools/wasnorm_wordpool_576.txt	LTP388	ltpFR2	1	6	BURGLAR	200	n/a	n/a	0	0	0
1308.68017578125	n/a	WORD	2680177	wordpools/wasnorm_wordpool_576.txt	LTP388	ltpFR2	1	6	NECKLACE	940	n/a	n/a	0	0	0
1310.296875	n/a	START	2683488	n/a	LTP388	ltpFR2	1	n/a	n/a	n/a	9	n/a	n/a	n/a	n/a
1311.490234375	n/a	DISTRACTOR	2685932	n/a	LTP388	ltpFR2	1	6	n/a	n/a	n/a	n/a	0	0	0
1311.4970703125	n/a	PROB	2685946	n/a	LTP388	ltpFR2	1	n/a	n/a	n/a	9	11	6	1	4
1313.02978515625	n/a	PROB	2689085	n/a	LTP388	ltpFR2	1	n/a	n/a	n/a	9	166	5	6	5
1314.546875	n/a	PROB	2692192	n/a	LTP388	ltpFR2	1	n/a	n/a	n/a	9	11	5	5	1
1316.2626953125	n/a	PROB	2695706	n/a	LTP388	ltpFR2	1	n/a	n/a	n/a	9	9	4	3	2
1318.1298828125	n/a	PROB	2699530	n/a	LTP388	ltpFR2	1	n/a	n/a	n/a	9	19	9	2	8
1319.74560546875	n/a	PROB	2702839	n/a	LTP388	ltpFR2	1	n/a	n/a	n/a	9	14	7	1	6
1323.44677734375	n/a	PROB	2710419	n/a	LTP388	ltpFR2	1	n/a	n/a	n/a	9	17	3	9	5
1327.32958984375	n/a	PROB	2718371	n/a	LTP388	ltpFR2	1	n/a	n/a	n/a	9	13	7	5	1
1330.0625	n/a	PROB	2723968	n/a	LTP388	ltpFR2	1	n/a	n/a	n/a	9	12	2	9	1
1331.49658203125	n/a	PROB	2726905	n/a	LTP388	ltpFR2	1	n/a	n/a	n/a	9	15	4	6	5
1333.95947265625	n/a	STOP	2731949	n/a	LTP388	ltpFR2	1	n/a	n/a	n/a	9	n/a	n/a	n/a	n/a
1336.0634765625	n/a	REC_START	2736258	n/a	LTP388	ltpFR2	1	6	n/a	n/a	n/a	n/a	0	0	0
1336.70947265625	n/a	REC_WORD	2737581	wordpools/wasnorm_wordpool_576.txt	LTP388	ltpFR2	1	6	BURGLAR	200	n/a	n/a	0	0	0
1338.01416015625	n/a	REC_WORD	2740253	wordpools/wasnorm_wordpool_576.txt	LTP388	ltpFR2	1	6	ROBBER	1197	n/a	n/a	0	0	0
1339.30419921875	n/a	REC_WORD	2742895	wordpools/wasnorm_wordpool_576.txt	LTP388	ltpFR2	1	6	HATCHET	691	n/a	n/a	0	0	0
1340.5009765625	n/a	REC_WORD	2745346	wordpools/wasnorm_wordpool_576.txt	LTP388	ltpFR2	1	6	WORLD	1622	n/a	n/a	0	0	0
1342.68603515625	n/a	REC_WORD	2749821	wordpools/wasnorm_wordpool_576.txt	LTP388	ltpFR2	1	6	GLOBE	641	n/a	n/a	0	0	0
1344.03125	n/a	REC_WORD	2752576	wordpools/wasnorm_wordpool_576.txt	LTP388	ltpFR2	1	6	DUST	508	n/a	n/a	0	0	0
1345.22119140625	n/a	REC_WORD	2755013	wordpools/wasnorm_wordpool_576.txt	LTP388	ltpFR2	1	6	DUSTPAN	509	n/a	n/a	0	0	0
1346.6611328125	n/a	REC_WORD	2757962	wordpools/wasnorm_wordpool_576.txt	LTP388	ltpFR2	1	6	SPARROW	1347	n/a	n/a	0	0	0
1347.6611328125	n/a	REC_WORD_VV	2760010	wordpools/wasnorm_wordpool_576.txt	LTP388	ltpFR2	1	6	<>	-1	n/a	n/a	0	0	0
1348.24609375	n/a	REC_WORD	2761208	wordpools/wasnorm_wordpool_576.txt	LTP388	ltpFR2	1	6	SALT	1229	n/a	n/a	0	0	0
1354.54052734375	n/a	REC_WORD	2774099	wordpools/wasnorm_wordpool_576.txt	LTP388	ltpFR2	1	6	FOOTBALL	591	n/a	n/a	0	0	0
1355.98046875	n/a	REC_WORD	2777048	wordpools/wasnorm_wordpool_576.txt	LTP388	ltpFR2	1	6	NECKLACE	940	n/a	n/a	0	0	0
1356.98046875	n/a	REC_WORD_VV	2779096	wordpools/wasnorm_wordpool_576.txt	LTP388	ltpFR2	1	6	<>	-1	n/a	n/a	0	0	0
1359.0576171875	n/a	REC_WORD	2783350	wordpools/wasnorm_wordpool_576.txt	LTP388	ltpFR2	1	6	GYMNAST	675	n/a	n/a	0	0	0
1365.17236328125	n/a	REC_WORD	2795873	wordpools/wasnorm_wordpool_576.txt	LTP388	ltpFR2	1	6	TWIG	1527	n/a	n/a	0	0	0
1366.55224609375	n/a	REC_WORD	2798699	wordpools/wasnorm_wordpool_576.txt	LTP388	ltpFR2	1	6	MAILMAN	858	n/a	n/a	0	0	0
1370.0419921875	n/a	REC_WORD	2805846	wordpools/wasnorm_wordpool_576.txt	LTP388	ltpFR2	1	6	STAMP	1370	n/a	n/a	0	0	0
1377.5419921875	n/a	REC_WORD	2821206	wordpools/wasnorm_wordpool_576.txt	LTP388	ltpFR2	1	6	RUST	1219	n/a	n/a	0	0	0
1398.2451171875	n/a	REC_WORD	2863606	wordpools/wasnorm_wordpool_576.txt	LTP388	ltpFR2	1	6	STREAM	1392	n/a	n/a	0	0	0
1426.50830078125	n/a	DISTRACTOR	2921489	n/a	LTP388	ltpFR2	1	7	n/a	n/a	n/a	n/a	0	0	0
1426.50830078125	n/a	START	2921489	n/a	LTP388	ltpFR2	1	n/a	n/a	n/a	10	n/a	n/a	n/a	n/a
1426.5244140625	n/a	PROB	2921522	n/a	LTP388	ltpFR2	1	n/a	n/a	n/a	10	19	3	8	8
1429.72314453125	n/a	PROB	2928073	n/a	LTP388	ltpFR2	1	n/a	n/a	n/a	10	12	2	3	7
1431.04150390625	n/a	PROB	2930773	n/a	LTP388	ltpFR2	1	n/a	n/a	n/a	10	9	2	2	5
1432.64111328125	n/a	PROB	2934049	n/a	LTP388	ltpFR2	1	n/a	n/a	n/a	10	15	1	6	8
1435.2412109375	n/a	PROB	2939374	n/a	LTP388	ltpFR2	1	n/a	n/a	n/a	10	19	7	5	6
1437.32421875	n/a	PROB	2943640	n/a	LTP388	ltpFR2	1	n/a	n/a	n/a	10	18	7	7	4
1438.8232421875	n/a	PROB	2946710	n/a	LTP388	ltpFR2	1	n/a	n/a	n/a	10	14	8	4	2
1440.755859375	n/a	PROB	2950668	n/a	LTP388	ltpFR2	1	n/a	n/a	n/a	10	18	8	5	5
1442.0908203125	n/a	PROB	2953402	n/a	LTP388	ltpFR2	1	n/a	n/a	n/a	10	12	2	8	2
1444.4736328125	n/a	PROB	2958282	n/a	LTP388	ltpFR2	1	n/a	n/a	n/a	10	17	8	6	3
1446.68994140625	n/a	PROB	2962821	n/a	LTP388	ltpFR2	1	n/a	n/a	n/a	10	21	7	7	7
1447.8896484375	n/a	PROB	2965278	n/a	LTP388	ltpFR2	1	n/a	n/a	n/a	10	16	6	8	2
1450.02490234375	n/a	STOP	2969651	n/a	LTP388	ltpFR2	1	n/a	n/a	n/a	10	n/a	n/a	n/a	n/a
1451.72265625	n/a	WORD	2973128	wordpools/wasnorm_wordpool_576.txt	LTP388	ltpFR2	1	7	RIVER	1194	n/a	n/a	0	0	0
1454.1904296875	n/a	WORD	2978182	wordpools/wasnorm_wordpool_576.txt	LTP388	ltpFR2	1	7	BLOCKADE	137	n/a	n/a	0	0	0
1456.85546875	n/a	WORD	2983640	wordpools/wasnorm_wordpool_576.txt	LTP388	ltpFR2	1	7	SUBWAY	1400	n/a	n/a	0	0	0
1459.306640625	n/a	WORD	2988660	wordpools/wasnorm_wordpool_576.txt	LTP388	ltpFR2	1	7	SWAMP	1416	n/a	n/a	0	0	0
1461.95556640625	n/a	WORD	2994085	wordpools/wasnorm_wordpool_576.txt	LTP388	ltpFR2	1	7	CAPTIVE	240	n/a	n/a	0	0	0
1464.42333984375	n/a	WORD	2999139	wordpools/wasnorm_wordpool_576.txt	LTP388	ltpFR2	1	7	SUSPECT	1415	n/a	n/a	0	0	0
1467.2060546875	n/a	WORD	3004838	wordpools/wasnorm_wordpool_576.txt	LTP388	ltpFR2	1	7	DANCER	437	n/a	n/a	0	0	0
1469.8720703125	n/a	WORD	3010298	wordpools/wasnorm_wordpool_576.txt	LTP388	ltpFR2	1	7	AUTHOR	61	n/a	n/a	0	0	0
1472.35595703125	n/a	WORD	3015385	wordpools/wasnorm_wordpool_576.txt	LTP388	ltpFR2	1	7	BANQUET	86	n/a	n/a	0	0	0
1475.07275390625	n/a	WORD	3020949	wordpools/wasnorm_wordpool_576.txt	LTP388	ltpFR2	1	7	LODGE	839	n/a	n/a	0	0	0
1477.48876953125	n/a	WORD	3025897	wordpools/wasnorm_wordpool_576.txt	LTP388	ltpFR2	1	7	POLICE	1098	n/a	n/a	0	0	0
1479.98876953125	n/a	WORD	3031017	wordpools/wasnorm_wordpool_576.txt	LTP388	ltpFR2	1	7	RECEIPT	1173	n/a	n/a	0	0	0
1482.53857421875	n/a	WORD	3036239	wordpools/wasnorm_wordpool_576.txt	LTP388	ltpFR2	1	7	HORSE	719	n/a	n/a	0	0	0
1485.22265625	n/a	WORD	3041736	wordpools/wasnorm_wordpool_576.txt	LTP388	ltpFR2	1	7	CARRIAGE	248	n/a	n/a	0	0	0
1487.6875	n/a	WORD	3046784	wordpools/wasnorm_wordpool_576.txt	LTP388	ltpFR2	1	7	MOTOR	922	n/a	n/a	0	0	0
1490.1884765625	n/a	WORD	3051906	wordpools/wasnorm_wordpool_576.txt	LTP388	ltpFR2	1	7	TROUT	1511	n/a	n/a	0	0	0
1492.70458984375	n/a	WORD	3057059	wordpools/wasnorm_wordpool_576.txt	LTP388	ltpFR2	1	7	BROOK	177	n/a	n/a	0	0	0
1495.25537109375	n/a	WORD	3062283	wordpools/wasnorm_wordpool_576.txt	LTP388	ltpFR2	1	7	COCKTAIL	338	n/a	n/a	0	0	0
1498.0712890625	n/a	WORD	3068050	wordpools/wasnorm_wordpool_576.txt	LTP388	ltpFR2	1	7	LAKE	796	n/a	n/a	0	0	0
1500.75390625	n/a	WORD	3073544	wordpools/wasnorm_wordpool_576.txt	LTP388	ltpFR2	1	7	COWBOY	395	n/a	n/a	0	0	0
1503.32080078125	n/a	WORD	3078801	wordpools/wasnorm_wordpool_576.txt	LTP388	ltpFR2	1	7	POET	1095	n/a	n/a	0	0	0
1505.77001953125	n/a	WORD	3083817	wordpools/wasnorm_wordpool_576.txt	LTP388	ltpFR2	1	7	GRILL	661	n/a	n/a	0	0	0
1508.3876953125	n/a	WORD	3089178	wordpools/wasnorm_wordpool_576.txt	LTP388	ltpFR2	1	7	DAISY	435	n/a	n/a	0	0	0
1511.087890625	n/a	WORD	3094708	wordpools/wasnorm_wordpool_576.txt	LTP388	ltpFR2	1	7	HEDGE	699	n/a	n/a	0	0	0
1512.70361328125	n/a	START	3098017	n/a	LTP388	ltpFR2	1	n/a	n/a	n/a	11	n/a	n/a	n/a	n/a
1513.798828125	n/a	DISTRACTOR	3100260	n/a	LTP388	ltpFR2	1	7	n/a	n/a	n/a	n/a	0	0	0
1513.802734375	n/a	PROB	3100268	n/a	LTP388	ltpFR2	1	n/a	n/a	n/a	11	16	4	3	9
1517.8525390625	n/a	PROB	3108562	n/a	LTP388	ltpFR2	1	n/a	n/a	n/a	11	15	1	9	5
1519.83642578125	n/a	PROB	3112625	n/a	LTP388	ltpFR2	1	n/a	n/a	n/a	11	14	1	8	5
1521.75244140625	n/a	PROB	3116549	n/a	LTP388	ltpFR2	1	n/a	n/a	n/a	11	19	5	7	7
1525.38720703125	n/a	PROB	3123993	n/a	LTP388	ltpFR2	1	n/a	n/a	n/a	11	15	4	9	2
1527.0361328125	n/a	PROB	3127370	n/a	LTP388	ltpFR2	1	n/a	n/a	n/a	11	14	7	4	3
1528.4033203125	n/a	PROB	3130170	n/a	LTP388	ltpFR2	1	n/a	n/a	n/a	11	9	2	3	4
1530.02001953125	n/a	PROB	3133481	n/a	LTP388	ltpFR2	1	n/a	n/a	n/a	11	20	9	6	5
1532.0859375	n/a	PROB	3137712	n/a	LTP388	ltpFR2	1	n/a	n/a	n/a	11	19	5	5	9
1533.236328125	n/a	PROB	3140068	n/a	LTP388	ltpFR2	1	n/a	n/a	n/a	11	11	3	1	7
1536.7021484375	n/a	STOP	3147166	n/a	LTP388	ltpFR2	1	n/a	n/a	n/a	11	n/a	n/a	n/a	n/a
1538.52001953125	n/a	REC_START	3150889	n/a	LTP388	ltpFR2	1	7	n/a	n/a	n/a	n/a	0	0	0
1539.27880859375	n/a	REC_WORD	3152443	wordpools/wasnorm_wordpool_576.txt	LTP388	ltpFR2	1	7	DANCER	437	n/a	n/a	0	0	0
1540.6318359375	n/a	REC_WORD	3155214	wordpools/wasnorm_wordpool_576.txt	LTP388	ltpFR2	1	7	AUTHOR	61	n/a	n/a	0	0	0
1541.98193359375	n/a	REC_WORD	3157979	wordpools/wasnorm_wordpool_576.txt	LTP388	ltpFR2	1	7	POET	1095	n/a	n/a	0	0	0
1543.27197265625	n/a	REC_WORD	3160621	wordpools/wasnorm_wordpool_576.txt	LTP388	ltpFR2	1	7	RECEIPT	1173	n/a	n/a	0	0	0
1544.876953125	n/a	REC_WORD	3163908	wordpools/wasnorm_wordpool_576.txt	LTP388	ltpFR2	1	7	GRILL	661	n/a	n/a	0	0	0
1546.31689453125	n/a	REC_WORD	3166857	wordpools/wasnorm_wordpool_576.txt	LTP388	ltpFR2	1	7	DAISY	435	n/a	n/a	0	0	0
1547.8974609375	n/a	REC_WORD	3170094	wordpools/wasnorm_wordpool_576.txt	LTP388	ltpFR2	1	7	HEDGE	699	n/a	n/a	0	0	0
1549.2578125	n/a	REC_WORD	3172880	wordpools/wasnorm_wordpool_576.txt	LTP388	ltpFR2	1	7	POLICE	1098	n/a	n/a	0	0	0
1550.65478515625	n/a	REC_WORD	3175741	wordpools/wasnorm_wordpool_576.txt	LTP388	ltpFR2	1	7	LODGE	839	n/a	n/a	0	0	0
1552.099609375	n/a	REC_WORD	3178700	wordpools/wasnorm_wordpool_576.txt	LTP388	ltpFR2	1	7	TROUT	1511	n/a	n/a	0	0	0
1553.4794921875	n/a	REC_WORD	3181526	wordpools/wasnorm_wordpool_576.txt	LTP388	ltpFR2	1	7	RIVER	1194	n/a	n/a	0	0	0
1554.9794921875	n/a	REC_WORD	3184598	wordpools/wasnorm_wordpool_576.txt	LTP388	ltpFR2	1	7	BROOK	177	n/a	n/a	0	0	0
1558.279296875	n/a	REC_WORD	3191356	wordpools/wasnorm_wordpool_576.txt	LTP388	ltpFR2	1	7	SUBWAY	1400	n/a	n/a	0	0	0
1559.68408203125	n/a	REC_WORD	3194233	wordpools/wasnorm_wordpool_576.txt	LTP388	ltpFR2	1	7	BLOCKADE	137	n/a	n/a	0	0	0
1561.4443359375	n/a	REC_WORD	3197838	wordpools/wasnorm_wordpool_576.txt	LTP388	ltpFR2	1	7	BANQUET	86	n/a	n/a	0	0	0
1580.93359375	n/a	REC_WORD	3237752	wordpools/wasnorm_wordpool_576.txt	LTP388	ltpFR2	1	7	HORSE	719	n/a	n/a	0	0	0
1583.099609375	n/a	REC_WORD	3242188	wordpools/wasnorm_wordpool_576.txt	LTP388	ltpFR2	1	7	CARRIAGE	248	n/a	n/a	0	0	0
1628.96533203125	n/a	DISTRACTOR	3336121	n/a	LTP388	ltpFR2	1	8	n/a	n/a	n/a	n/a	0	0	0
1628.96630859375	n/a	START	3336123	n/a	LTP388	ltpFR2	1	n/a	n/a	n/a	12	n/a	n/a	n/a	n/a
1628.98193359375	n/a	PROB	3336155	n/a	LTP388	ltpFR2	1	n/a	n/a	n/a	12	14	3	3	8
1631.44921875	n/a	PROB	3341208	n/a	LTP388	ltpFR2	1	n/a	n/a	n/a	12	20	9	4	7
1633.33203125	n/a	PROB	3345064	n/a	LTP388	ltpFR2	1	n/a	n/a	n/a	12	11	3	4	4
1636.73095703125	n/a	PROB	3352025	n/a	LTP388	ltpFR2	1	n/a	n/a	n/a	12	14	4	8	2
1638.0146484375	n/a	PROB	3354654	n/a	LTP388	ltpFR2	1	n/a	n/a	n/a	12	17	8	2	7
1639.48193359375	n/a	PROB	3357659	n/a	LTP388	ltpFR2	1	n/a	n/a	n/a	12	17	9	6	2
1641.86376953125	n/a	PROB	3362537	n/a	LTP388	ltpFR2	1	n/a	n/a	n/a	12	11	2	2	7
1643.1318359375	n/a	PROB	3365134	n/a	LTP388	ltpFR2	1	n/a	n/a	n/a	12	11	3	6	2
1645.6474609375	n/a	PROB	3370286	n/a	LTP388	ltpFR2	1	n/a	n/a	n/a	12	9	7	1	1
1646.88037109375	n/a	PROB	3372811	n/a	LTP388	ltpFR2	1	n/a	n/a	n/a	12	20	3	8	9
1649.41455078125	n/a	PROB	3378001	n/a	LTP388	ltpFR2	1	n/a	n/a	n/a	12	14	2	4	8
1652.09619140625	n/a	STOP	3383493	n/a	LTP388	ltpFR2	1	n/a	n/a	n/a	12	n/a	n/a	n/a	n/a
1653.84619140625	n/a	WORD	3387077	wordpools/wasnorm_wordpool_576.txt	LTP388	ltpFR2	1	8	SEAL	1262	n/a	n/a	0	0	0
1656.28125	n/a	WORD	3392064	wordpools/wasnorm_wordpool_576.txt	LTP388	ltpFR2	1	8	CASHIER	254	n/a	n/a	0	0	0
1658.81298828125	n/a	WORD	3397249	wordpools/wasnorm_wordpool_576.txt	LTP388	ltpFR2	1	8	ELBOW	520	n/a	n/a	0	0	0
1661.546875	n/a	WORD	3402848	wordpools/wasnorm_wordpool_576.txt	LTP388	ltpFR2	1	8	COLLEGE	346	n/a	n/a	0	0	0
1664.2138671875	n/a	WORD	3408310	wordpools/wasnorm_wordpool_576.txt	LTP388	ltpFR2	1	8	PATROL	1027	n/a	n/a	0	0	0
1666.9970703125	n/a	WORD	3414010	wordpools/wasnorm_wordpool_576.txt	LTP388	ltpFR2	1	8	KNIFE	785	n/a	n/a	0	0	0
1669.4296875	n/a	WORD	3418992	wordpools/wasnorm_wordpool_576.txt	LTP388	ltpFR2	1	8	LAGOON	795	n/a	n/a	0	0	0
1672.14697265625	n/a	WORD	3424557	wordpools/wasnorm_wordpool_576.txt	LTP388	ltpFR2	1	8	MARSH	874	n/a	n/a	0	0	0
1674.8125	n/a	WORD	3430016	wordpools/wasnorm_wordpool_576.txt	LTP388	ltpFR2	1	8	VELVET	1555	n/a	n/a	0	0	0
1677.263671875	n/a	WORD	3435036	wordpools/wasnorm_wordpool_576.txt	LTP388	ltpFR2	1	8	LASER	801	n/a	n/a	0	0	0
1679.82861328125	n/a	WORD	3440289	wordpools/wasnorm_wordpool_576.txt	LTP388	ltpFR2	1	8	COFFEE	341	n/a	n/a	0	0	0
1682.37939453125	n/a	WORD	3445513	wordpools/wasnorm_wordpool_576.txt	LTP388	ltpFR2	1	8	HAMPER	682	n/a	n/a	0	0	0
1685.0634765625	n/a	WORD	3451010	wordpools/wasnorm_wordpool_576.txt	LTP388	ltpFR2	1	8	STAKE	1368	n/a	n/a	0	0	0
1687.67919921875	n/a	WORD	3456367	wordpools/wasnorm_wordpool_576.txt	LTP388	ltpFR2	1	8	FLESH	579	n/a	n/a	0	0	0
1690.12939453125	n/a	WORD	3461385	wordpools/wasnorm_wordpool_576.txt	LTP388	ltpFR2	1	8	LUGGAGE	847	n/a	n/a	0	0	0
1692.8779296875	n/a	WORD	3467014	wordpools/wasnorm_wordpool_576.txt	LTP388	ltpFR2	1	8	BUCKET	184	n/a	n/a	0	0	0
1695.42919921875	n/a	WORD	3472239	wordpools/wasnorm_wordpool_576.txt	LTP388	ltpFR2	1	8	GALLON	618	n/a	n/a	0	0	0
1698.14599609375	n/a	WORD	3477803	wordpools/wasnorm_wordpool_576.txt	LTP388	ltpFR2	1	8	PUPIL	1143	n/a	n/a	0	0	0
1700.64599609375	n/a	WORD	3482923	wordpools/wasnorm_wordpool_576.txt	LTP388	ltpFR2	1	8	TURTLE	1522	n/a	n/a	0	0	0
1703.27880859375	n/a	WORD	3488315	wordpools/wasnorm_wordpool_576.txt	LTP388	ltpFR2	1	8	COLONEL	348	n/a	n/a	0	0	0
1705.82763671875	n/a	WORD	3493535	wordpools/wasnorm_wordpool_576.txt	LTP388	ltpFR2	1	8	FLEET	578	n/a	n/a	0	0	0
1708.51171875	n/a	WORD	3499032	wordpools/wasnorm_wordpool_576.txt	LTP388	ltpFR2	1	8	ARM	38	n/a	n/a	0	0	0
1710.96142578125	n/a	WORD	3504049	wordpools/wasnorm_wordpool_576.txt	LTP388	ltpFR2	1	8	LADDER	793	n/a	n/a	0	0	0
1713.5615234375	n/a	WORD	3509374	wordpools/wasnorm_wordpool_576.txt	LTP388	ltpFR2	1	8	MUFFIN	929	n/a	n/a	0	0	0
1715.17822265625	n/a	START	3512685	n/a	LTP388	ltpFR2	1	n/a	n/a	n/a	13	n/a	n/a	n/a	n/a
1715.9921875	n/a	DISTRACTOR	3514352	n/a	LTP388	ltpFR2	1	8	n/a	n/a	n/a	n/a	0	0	0
1715.99462890625	n/a	PROB	3514357	n/a	LTP388	ltpFR2	1	n/a	n/a	n/a	13	16	1	8	7
1718.8935546875	n/a	PROB	3520294	n/a	LTP388	ltpFR2	1	n/a	n/a	n/a	13	10	5	2	3
1722.361328125	n/a	PROB	3527396	n/a	LTP388	ltpFR2	1	n/a	n/a	n/a	13	23	9	5	9
1726.17822265625	n/a	PROB	3535213	n/a	LTP388	ltpFR2	1	n/a	n/a	n/a	13	9	6	1	2
1728.01123046875	n/a	PROB	3538967	n/a	LTP388	ltpFR2	1	n/a	n/a	n/a	13	14	5	7	2
1730.14404296875	n/a	PROB	3543335	n/a	LTP388	ltpFR2	1	n/a	n/a	n/a	13	23	9	5	9
1732.66064453125	n/a	PROB	3548489	n/a	LTP388	ltpFR2	1	n/a	n/a	n/a	13	21	7	8	5
1736.310546875	n/a	PROB	3555964	n/a	LTP388	ltpFR2	1	n/a	n/a	n/a	13	19	8	9	2
1739.07275390625	n/a	STOP	3561621	n/a	LTP388	ltpFR2	1	n/a	n/a	n/a	13	n/a	n/a	n/a	n/a
1740.96044921875	n/a	REC_START	3565487	n/a	LTP388	ltpFR2	1	8	n/a	n/a	n/a	n/a	0	0	0
1742.04052734375	n/a	REC_WORD	3567699	wordpools/wasnorm_wordpool_576.txt	LTP388	ltpFR2	1	8	PATROL	1027	n/a	n/a	0	0	0
1743.5107421875	n/a	REC_WORD	3570710	wordpools/wasnorm_wordpool_576.txt	LTP388	ltpFR2	1	8	COLLEGE	346	n/a	n/a	0	0	0
1744.75048828125	n/a	REC_WORD	3573249	wordpools/wasnorm_wordpool_576.txt	LTP388	ltpFR2	1	8	CASHIER	254	n/a	n/a	0	0	0
1746.25048828125	n/a	REC_WORD	3576321	wordpools/wasnorm_wordpool_576.txt	LTP388	ltpFR2	1	8	SEAL	1262	n/a	n/a	0	0	0
1747.84033203125	n/a	REC_WORD	3579577	wordpools/wasnorm_wordpool_576.txt	LTP388	ltpFR2	1	8	LUGGAGE	847	n/a	n/a	0	0	0
1749.21923828125	n/a	REC_WORD	3582401	wordpools/wasnorm_wordpool_576.txt	LTP388	ltpFR2	1	8	MUFFIN	929	n/a	n/a	0	0	0
1751.29248046875	n/a	REC_WORD	3586647	wordpools/wasnorm_wordpool_576.txt	LTP388	ltpFR2	1	8	MARSH	874	n/a	n/a	0	0	0
1757.9189453125	n/a	REC_WORD	3600218	wordpools/wasnorm_wordpool_576.txt	LTP388	ltpFR2	1	8	COFFEE	341	n/a	n/a	0	0	0
1762.52294921875	n/a	REC_WORD	3609647	wordpools/wasnorm_wordpool_576.txt	LTP388	ltpFR2	1	8	HAMPER	682	n/a	n/a	0	0	0
1774.06640625	n/a	REC_WORD	3633288	wordpools/wasnorm_wordpool_576.txt	LTP388	ltpFR2	1	8	SEAL	1262	n/a	n/a	0	0	0
1776.70654296875	n/a	REC_WORD	3638695	wordpools/wasnorm_wordpool_576.txt	LTP388	ltpFR2	1	8	ARM	38	n/a	n/a	0	0	0
1778.236328125	n/a	REC_WORD	3641828	wordpools/wasnorm_wordpool_576.txt	LTP388	ltpFR2	1	8	ELBOW	520	n/a	n/a	0	0	0
1789.23095703125	n/a	REC_WORD	3664345	wordpools/wasnorm_wordpool_576.txt	LTP388	ltpFR2	1	8	LAGOON	795	n/a	n/a	0	0	0
1790.7958984375	n/a	REC_WORD	3667550	wordpools/wasnorm_wordpool_576.txt	LTP388	ltpFR2	1	8	VELVET	1555	n/a	n/a	0	0	0
1817.50634765625	n/a	REST_REWET	3722253	n/a	LTP388	ltpFR2	1	8	n/a	n/a	n/a	n/a	0	0	0
1937.6015625	n/a	WORD	3968208	wordpools/wasnorm_wordpool_576.txt	LTP388	ltpFR2	1	9	PENGUIN	1044	n/a	n/a	0	0	0
1940.13427734375	n/a	WORD	3973395	wordpools/wasnorm_wordpool_576.txt	LTP388	ltpFR2	1	9	HOOD	714	n/a	n/a	0	0	0
1942.783203125	n/a	WORD	3978820	wordpools/wasnorm_wordpool_576.txt	LTP388	ltpFR2	1	9	PRIMATE	1123	n/a	n/a	0	0	0
1945.35107421875	n/a	WORD	3984079	wordpools/wasnorm_wordpool_576.txt	LTP388	ltpFR2	1	9	TRACTOR	1493	n/a	n/a	0	0	0
1947.783203125	n/a	WORD	3989060	wordpools/wasnorm_wordpool_576.txt	LTP388	ltpFR2	1	9	FIDDLE	561	n/a	n/a	0	0	0
1950.46728515625	n/a	WORD	3994557	wordpools/wasnorm_wordpool_576.txt	LTP388	ltpFR2	1	9	PRINCESS	1125	n/a	n/a	0	0	0
1952.93310546875	n/a	WORD	3999607	wordpools/wasnorm_wordpool_576.txt	LTP388	ltpFR2	1	9	CLAMP	316	n/a	n/a	0	0	0
1955.43408203125	n/a	WORD	4004729	wordpools/wasnorm_wordpool_576.txt	LTP388	ltpFR2	1	9	ROOSTER	1209	n/a	n/a	0	0	0
1958.099609375	n/a	WORD	4010188	wordpools/wasnorm_wordpool_576.txt	LTP388	ltpFR2	1	9	EXPERT	543	n/a	n/a	0	0	0
1960.73291015625	n/a	WORD	4015581	wordpools/wasnorm_wordpool_576.txt	LTP388	ltpFR2	1	9	LOVER	846	n/a	n/a	0	0	0
1963.24951171875	n/a	WORD	4020735	wordpools/wasnorm_wordpool_576.txt	LTP388	ltpFR2	1	9	FRIEND	606	n/a	n/a	0	0	0
1966.0498046875	n/a	WORD	4026470	wordpools/wasnorm_wordpool_576.txt	LTP388	ltpFR2	1	9	LAMP	798	n/a	n/a	0	0	0
1968.8154296875	n/a	WORD	4032134	wordpools/wasnorm_wordpool_576.txt	LTP388	ltpFR2	1	9	HIKER	708	n/a	n/a	0	0	0
1971.6162109375	n/a	WORD	4037870	wordpools/wasnorm_wordpool_576.txt	LTP388	ltpFR2	1	9	SHELF	1280	n/a	n/a	0	0	0
1974.04931640625	n/a	WORD	4042853	wordpools/wasnorm_wordpool_576.txt	LTP388	ltpFR2	1	9	COCOON	339	n/a	n/a	0	0	0
1976.51611328125	n/a	WORD	4047905	wordpools/wasnorm_wordpool_576.txt	LTP388	ltpFR2	1	9	LUNCH	849	n/a	n/a	0	0	0
1979.2333984375	n/a	WORD	4053470	wordpools/wasnorm_wordpool_576.txt	LTP388	ltpFR2	1	9	CONCERT	360	n/a	n/a	0	0	0
1981.9150390625	n/a	WORD	4058962	wordpools/wasnorm_wordpool_576.txt	LTP388	ltpFR2	1	9	WHISTLE	1606	n/a	n/a	0	0	0
1984.51611328125	n/a	WORD	4064289	wordpools/wasnorm_wordpool_576.txt	LTP388	ltpFR2	1	9	PARROT	1015	n/a	n/a	0	0	0
1987.09912109375	n/a	WORD	4069579	wordpools/wasnorm_wordpool_576.txt	LTP388	ltpFR2	1	9	POPCORN	1104	n/a	n/a	0	0	0
1989.61572265625	n/a	WORD	4074733	wordpools/wasnorm_wordpool_576.txt	LTP388	ltpFR2	1	9	BELLY	119	n/a	n/a	0	0	0
1992.08203125	n/a	WORD	4079784	wordpools/wasnorm_wordpool_576.txt	LTP388	ltpFR2	1	9	ULCER	1533	n/a	n/a	0	0	0
1994.53173828125	n/a	WORD	4084801	wordpools/wasnorm_wordpool_576.txt	LTP388	ltpFR2	1	9	SNACK	1331	n/a	n/a	0	0	0
1997.24853515625	n/a	WORD	4090365	wordpools/wasnorm_wordpool_576.txt	LTP388	ltpFR2	1	9	JUNGLE	764	n/a	n/a	0	0	0
1998.86474609375	n/a	START	4093675	n/a	LTP388	ltpFR2	1	n/a	n/a	n/a	14	n/a	n/a	n/a	n/a
2000.0546875	n/a	DISTRACTOR	4096112	n/a	LTP388	ltpFR2	1	9	n/a	n/a	n/a	n/a	0	0	0
2000.064453125	n/a	PROB	4096132	n/a	LTP388	ltpFR2	1	n/a	n/a	n/a	14	18	8	9	1
2002.064453125	n/a	PROB	4100228	n/a	LTP388	ltpFR2	1	n/a	n/a	n/a	14	13	9	1	3
2003.431640625	n/a	PROB	4103028	n/a	LTP388	ltpFR2	1	n/a	n/a	n/a	14	20	9	3	8
2006.1982421875	n/a	PROB	4108694	n/a	LTP388	ltpFR2	1	n/a	n/a	n/a	14	19	8	2	9
2008.0810546875	n/a	PROB	4112550	n/a	LTP388	ltpFR2	1	n/a	n/a	n/a	14	16	5	9	2
2010.71337890625	n/a	PROB	4117941	n/a	LTP388	ltpFR2	1	n/a	n/a	n/a	14	9	5	4	4
2012.39794921875	n/a	PROB	4121391	n/a	LTP388	ltpFR2	1	n/a	n/a	n/a	14	16	9	4	3
2018.28076171875	n/a	PROB	4133439	n/a	LTP388	ltpFR2	1	n/a	n/a	n/a	14	13	1	4	8
2022.86376953125	n/a	STOP	4142825	n/a	LTP388	ltpFR2	1	n/a	n/a	n/a	14	n/a	n/a	n/a	n/a
2024.796875	n/a	REC_START	4146784	n/a	LTP388	ltpFR2	1	9	n/a	n/a	n/a	n/a	0	0	0
2025.62158203125	n/a	REC_WORD	4148473	wordpools/wasnorm_wordpool_576.txt	LTP388	ltpFR2	1	9	PRINCESS	1125	n/a	n/a	0	0	0
2026.90771484375	n/a	REC_WORD	4151107	wordpools/wasnorm_wordpool_576.txt	LTP388	ltpFR2	1	9	FRIEND	606	n/a	n/a	0	0	0
2028.130859375	n/a	REC_WORD	4153612	wordpools/wasnorm_wordpool_576.txt	LTP388	ltpFR2	1	9	LOVER	846	n/a	n/a	0	0	0
2029.4658203125	n/a	REC_WORD	4156346	wordpools/wasnorm_wordpool_576.txt	LTP388	ltpFR2	1	9	PENGUIN	1044	n/a	n/a	0	0	0
2030.87060546875	n/a	REC_WORD	4159223	wordpools/wasnorm_wordpool_576.txt	LTP388	ltpFR2	1	9	TRACTOR	1493	n/a	n/a	0	0	0
2032.3017578125	n/a	REC_WORD	4162154	wordpools/wasnorm_wordpool_576.txt	LTP388	ltpFR2	1	9	JUNGLE	764	n/a	n/a	0	0	0
2033.611328125	n/a	REC_WORD	4164836	wordpools/wasnorm_wordpool_576.txt	LTP388	ltpFR2	1	9	LUNCH	849	n/a	n/a	0	0	0
2034.8662109375	n/a	REC_WORD	4167406	wordpools/wasnorm_wordpool_576.txt	LTP388	ltpFR2	1	9	CONCERT	360	n/a	n/a	0	0	0
2036.2763671875	n/a	REC_WORD	4170294	wordpools/wasnorm_wordpool_576.txt	LTP388	ltpFR2	1	9	SHELF	1280	n/a	n/a	0	0	0
2037.6162109375	n/a	REC_WORD	4173038	wordpools/wasnorm_wordpool_576.txt	LTP388	ltpFR2	1	9	HIKER	708	n/a	n/a	0	0	0
2049.51708984375	n/a	REC_WORD	4197411	wordpools/wasnorm_wordpool_576.txt	LTP388	ltpFR2	1	9	PARROT	1015	n/a	n/a	0	0	0
2050.70703125	n/a	REC_WORD	4199848	wordpools/wasnorm_wordpool_576.txt	LTP388	ltpFR2	1	9	WHISTLE	1606	n/a	n/a	0	0	0
2051.99169921875	n/a	REC_WORD	4202479	wordpools/wasnorm_wordpool_576.txt	LTP388	ltpFR2	1	9	POPCORN	1104	n/a	n/a	0	0	0
2053.412109375	n/a	REC_WORD	4205388	wordpools/wasnorm_wordpool_576.txt	LTP388	ltpFR2	1	9	BELLY	119	n/a	n/a	0	0	0
2092.52880859375	n/a	REC_WORD	4285499	wordpools/wasnorm_wordpool_576.txt	LTP388	ltpFR2	1	9	ULCER	1533	n/a	n/a	0	0	0
2093.61865234375	n/a	REC_WORD	4287731	wordpools/wasnorm_wordpool_576.txt	LTP388	ltpFR2	1	9	SNACK	1331	n/a	n/a	0	0	0
2115.22607421875	n/a	DISTRACTOR	4331983	n/a	LTP388	ltpFR2	1	10	n/a	n/a	n/a	n/a	0	0	0
2115.22705078125	n/a	START	4331985	n/a	LTP388	ltpFR2	1	n/a	n/a	n/a	15	n/a	n/a	n/a	n/a
2115.2431640625	n/a	PROB	4332018	n/a	LTP388	ltpFR2	1	n/a	n/a	n/a	15	17	8	5	4
2118.19287109375	n/a	PROB	4338059	n/a	LTP388	ltpFR2	1	n/a	n/a	n/a	15	11	2	4	5
2120.142578125	n/a	PROB	4342052	n/a	LTP388	ltpFR2	1	n/a	n/a	n/a	15	22	5	8	9
2124.3427734375	n/a	PROB	4350654	n/a	LTP388	ltpFR2	1	n/a	n/a	n/a	15	13	8	3	2
2126.9755859375	n/a	PROB	4356046	n/a	LTP388	ltpFR2	1	n/a	n/a	n/a	15	10	8	1	1
2128.857421875	n/a	PROB	4359900	n/a	LTP388	ltpFR2	1	n/a	n/a	n/a	15	9	6	2	1
2131.55859375	n/a	PROB	4365432	n/a	LTP388	ltpFR2	1	n/a	n/a	n/a	15	13	2	2	9
2133.3583984375	n/a	PROB	4369118	n/a	LTP388	ltpFR2	1	n/a	n/a	n/a	15	13	2	4	7
2136.39208984375	n/a	PROB	4375331	n/a	LTP388	ltpFR2	1	n/a	n/a	n/a	15	18	5	5	8
2138.3203125	n/a	STOP	4379280	n/a	LTP388	ltpFR2	1	n/a	n/a	n/a	15	n/a	n/a	n/a	n/a
2140.1923828125	n/a	WORD	4383114	wordpools/wasnorm_wordpool_576.txt	LTP388	ltpFR2	1	10	SNAKE	1333	n/a	n/a	0	0	0
2142.791015625	n/a	WORD	4388436	wordpools/wasnorm_wordpool_576.txt	LTP388	ltpFR2	1	10	LUMBER	848	n/a	n/a	0	0	0
2145.3251953125	n/a	WORD	4393626	wordpools/wasnorm_wordpool_576.txt	LTP388	ltpFR2	1	10	SOFTBALL	1343	n/a	n/a	0	0	0
2147.93994140625	n/a	WORD	4398981	wordpools/wasnorm_wordpool_576.txt	LTP388	ltpFR2	1	10	CRICKET	408	n/a	n/a	0	0	0
2150.5078125	n/a	WORD	4404240	wordpools/wasnorm_wordpool_576.txt	LTP388	ltpFR2	1	10	STICKER	1382	n/a	n/a	0	0	0
2153.20751953125	n/a	WORD	4409769	wordpools/wasnorm_wordpool_576.txt	LTP388	ltpFR2	1	10	PORK	1108	n/a	n/a	0	0	0
2155.689453125	n/a	WORD	4414852	wordpools/wasnorm_wordpool_576.txt	LTP388	ltpFR2	1	10	CITRUS	313	n/a	n/a	0	0	0
2158.49072265625	n/a	WORD	4420589	wordpools/wasnorm_wordpool_576.txt	LTP388	ltpFR2	1	10	MARINE	869	n/a	n/a	0	0	0
2161.20751953125	n/a	WORD	4426153	wordpools/wasnorm_wordpool_576.txt	LTP388	ltpFR2	1	10	CRITIC	410	n/a	n/a	0	0	0
2163.90625	n/a	WORD	4431680	wordpools/wasnorm_wordpool_576.txt	LTP388	ltpFR2	1	10	ASIA	46	n/a	n/a	0	0	0
2166.67333984375	n/a	WORD	4437347	wordpools/wasnorm_wordpool_576.txt	LTP388	ltpFR2	1	10	JAPAN	749	n/a	n/a	0	0	0
2169.240234375	n/a	WORD	4442604	wordpools/wasnorm_wordpool_576.txt	LTP388	ltpFR2	1	10	DORM	488	n/a	n/a	0	0	0
2171.92333984375	n/a	WORD	4448099	wordpools/wasnorm_wordpool_576.txt	LTP388	ltpFR2	1	10	FUNGUS	614	n/a	n/a	0	0	0
2174.52294921875	n/a	WORD	4453423	wordpools/wasnorm_wordpool_576.txt	LTP388	ltpFR2	1	10	RECORD	1176	n/a	n/a	0	0	0
2176.990234375	n/a	WORD	4458476	wordpools/wasnorm_wordpool_576.txt	LTP388	ltpFR2	1	10	PIANO	1057	n/a	n/a	0	0	0
2179.80615234375	n/a	WORD	4464243	wordpools/wasnorm_wordpool_576.txt	LTP388	ltpFR2	1	10	DANDRUFF	439	n/a	n/a	0	0	0
2182.4228515625	n/a	WORD	4469602	wordpools/wasnorm_wordpool_576.txt	LTP388	ltpFR2	1	10	NEUTRON	947	n/a	n/a	0	0	0
2185.07275390625	n/a	WORD	4475029	wordpools/wasnorm_wordpool_576.txt	LTP388	ltpFR2	1	10	SWIMMER	1420	n/a	n/a	0	0	0
2187.6396484375	n/a	WORD	4480286	wordpools/wasnorm_wordpool_576.txt	LTP388	ltpFR2	1	10	NIGHTGOWN	953	n/a	n/a	0	0	0
2190.33984375	n/a	WORD	4485816	wordpools/wasnorm_wordpool_576.txt	LTP388	ltpFR2	1	10	COTTAGE	384	n/a	n/a	0	0	0
2192.9384765625	n/a	WORD	4491138	wordpools/wasnorm_wordpool_576.txt	LTP388	ltpFR2	1	10	SHELTER	1282	n/a	n/a	0	0	0
2195.42236328125	n/a	WORD	4496225	wordpools/wasnorm_wordpool_576.txt	LTP388	ltpFR2	1	10	BLOUSE	139	n/a	n/a	0	0	0
2198.10546875	n/a	WORD	4501720	wordpools/wasnorm_wordpool_576.txt	LTP388	ltpFR2	1	10	BUREAU	199	n/a	n/a	0	0	0
2200.87109375	n/a	WORD	4507384	wordpools/wasnorm_wordpool_576.txt	LTP388	ltpFR2	1	10	PERMIT	1051	n/a	n/a	0	0	0
2202.4892578125	n/a	START	4510698	n/a	LTP388	ltpFR2	1	n/a	n/a	n/a	16	n/a	n/a	n/a	n/a
2203.62841796875	n/a	DISTRACTOR	4513031	n/a	LTP388	ltpFR2	1	10	n/a	n/a	n/a	n/a	0	0	0
2203.63916015625	n/a	PROB	4513053	n/a	LTP388	ltpFR2	1	n/a	n/a	n/a	16	16	5	5	6
2206.0048828125	n/a	PROB	4517898	n/a	LTP388	ltpFR2	1	n/a	n/a	n/a	16	14	4	1	9
2207.3720703125	n/a	PROB	4520698	n/a	LTP388	ltpFR2	1	n/a	n/a	n/a	16	15	6	2	7
2210.05517578125	n/a	PROB	4526193	n/a	LTP388	ltpFR2	1	n/a	n/a	n/a	16	16	9	6	1
2212.0390625	n/a	PROB	4530256	n/a	LTP388	ltpFR2	1	n/a	n/a	n/a	16	15	9	1	5
2214.57177734375	n/a	PROB	4535443	n/a	LTP388	ltpFR2	1	n/a	n/a	n/a	16	22	6	8	8
2216.37158203125	n/a	PROB	4539129	n/a	LTP388	ltpFR2	1	n/a	n/a	n/a	16	18	8	9	1
2217.60498046875	n/a	PROB	4541655	n/a	LTP388	ltpFR2	1	n/a	n/a	n/a	16	16	7	2	8
2219.3876953125	n/a	PROB	4545306	n/a	LTP388	ltpFR2	1	n/a	n/a	n/a	16	12	5	6	1
2221.8037109375	n/a	PROB	4550254	n/a	LTP388	ltpFR2	1	n/a	n/a	n/a	16	7	2	3	2
2223.92041015625	n/a	PROB	4554589	n/a	LTP388	ltpFR2	1	n/a	n/a	n/a	16	17	7	4	6
2225.984375	n/a	STOP	4558816	n/a	LTP388	ltpFR2	1	n/a	n/a	n/a	16	n/a	n/a	n/a	n/a
2228.404296875	n/a	REC_START	4563772	n/a	LTP388	ltpFR2	1	10	n/a	n/a	n/a	n/a	0	0	0
2229.71533203125	n/a	REC_WORD	4566457	wordpools/wasnorm_wordpool_576.txt	LTP388	ltpFR2	1	10	BUREAU	199	n/a	n/a	0	0	0
2231.29052734375	n/a	REC_WORD	4569683	wordpools/wasnorm_wordpool_576.txt	LTP388	ltpFR2	1	10	PERMIT	1051	n/a	n/a	0	0	0
2232.63525390625	n/a	REC_WORD	4572437	wordpools/wasnorm_wordpool_576.txt	LTP388	ltpFR2	1	10	BLOUSE	139	n/a	n/a	0	0	0
2233.96044921875	n/a	REC_WORD	4575151	wordpools/wasnorm_wordpool_576.txt	LTP388	ltpFR2	1	10	DORM	488	n/a	n/a	0	0	0
2235.1103515625	n/a	REC_WORD	4577506	wordpools/wasnorm_wordpool_576.txt	LTP388	ltpFR2	1	10	FUNGUS	614	n/a	n/a	0	0	0
2236.1103515625	n/a	REC_WORD_VV	4579554	wordpools/wasnorm_wordpool_576.txt	LTP388	ltpFR2	1	10	<>	-1	n/a	n/a	0	0	0
2236.455078125	n/a	REC_WORD	4580260	wordpools/wasnorm_wordpool_576.txt	LTP388	ltpFR2	1	10	SNAKE	1333	n/a	n/a	0	0	0
2239.951171875	n/a	REC_WORD	4587420	wordpools/wasnorm_wordpool_576.txt	LTP388	ltpFR2	1	10	LOGGER	-1	n/a	n/a	0	0	0
2241.57080078125	n/a	REC_WORD	4590737	wordpools/wasnorm_wordpool_576.txt	LTP388	ltpFR2	1	10	COTTAGE	384	n/a	n/a	0	0	0
2242.92578125	n/a	REC_WORD	4593512	wordpools/wasnorm_wordpool_576.txt	LTP388	ltpFR2	1	10	SHELTER	1282	n/a	n/a	0	0	0
2244.5458984375	n/a	REC_WORD	4596830	wordpools/wasnorm_wordpool_576.txt	LTP388	ltpFR2	1	10	NIGHTGOWN	953	n/a	n/a	0	0	0
2245.5458984375	n/a	REC_WORD_VV	4598878	wordpools/wasnorm_wordpool_576.txt	LTP388	ltpFR2	1	10	<>	-1	n/a	n/a	0	0	0
2247.130859375	n/a	REC_WORD	4602124	wordpools/wasnorm_wordpool_576.txt	LTP388	ltpFR2	1	10	STICKER	1382	n/a	n/a	0	0	0
2248.7509765625	n/a	REC_WORD	4605442	wordpools/wasnorm_wordpool_576.txt	LTP388	ltpFR2	1	10	CRICKET	408	n/a	n/a	0	0	0
2252.62548828125	n/a	REC_WORD	4613377	wordpools/wasnorm_wordpool_576.txt	LTP388	ltpFR2	1	10	SOFTBALL	1343	n/a	n/a	0	0	0
2255.7705078125	n/a	REC_WORD	4619818	wordpools/wasnorm_wordpool_576.txt	LTP388	ltpFR2	1	10	NEUTRON	947	n/a	n/a	0	0	0
2257.07568359375	n/a	REC_WORD	4622491	wordpools/wasnorm_wordpool_576.txt	LTP388	ltpFR2	1	10	SWIMMER	1420	n/a	n/a	0	0	0
2258.5703125	n/a	REC_WORD	4625552	wordpools/wasnorm_wordpool_576.txt	LTP388	ltpFR2	1	10	ASIA	46	n/a	n/a	0	0	0
2259.67529296875	n/a	REC_WORD	4627815	wordpools/wasnorm_wordpool_576.txt	LTP388	ltpFR2	1	10	JAPAN	749	n/a	n/a	0	0	0
2274.216796875	n/a	REC_WORD_VV	4657596	wordpools/wasnorm_wordpool_576.txt	LTP388	ltpFR2	1	10	<>	-1	n/a	n/a	0	0	0
2318.86572265625	n/a	WORD	4749037	wordpools/wasnorm_wordpool_576.txt	LTP388	ltpFR2	1	11	RAZOR	1171	n/a	n/a	0	0	0
2321.53369140625	n/a	WORD	4754501	wordpools/wasnorm_wordpool_576.txt	LTP388	ltpFR2	1	11	THIEF	1456	n/a	n/a	0	0	0
2324.13330078125	n/a	WORD	4759825	wordpools/wasnorm_wordpool_576.txt	LTP388	ltpFR2	1	11	BANK	83	n/a	n/a	0	0	0
2326.56640625	n/a	WORD	4764808	wordpools/wasnorm_wordpool_576.txt	LTP388	ltpFR2	1	11	SCISSORS	1250	n/a	n/a	0	0	0
2329.1162109375	n/a	WORD	4770030	wordpools/wasnorm_wordpool_576.txt	LTP388	ltpFR2	1	11	TRIBE	1505	n/a	n/a	0	0	0
2331.56640625	n/a	WORD	4775048	wordpools/wasnorm_wordpool_576.txt	LTP388	ltpFR2	1	11	LOFT	840	n/a	n/a	0	0	0
2334.01611328125	n/a	WORD	4780065	wordpools/wasnorm_wordpool_576.txt	LTP388	ltpFR2	1	11	QUAIL	1147	n/a	n/a	0	0	0
2336.6982421875	n/a	WORD	4785558	wordpools/wasnorm_wordpool_576.txt	LTP388	ltpFR2	1	11	COMET	353	n/a	n/a	0	0	0
2339.14892578125	n/a	WORD	4790577	wordpools/wasnorm_wordpool_576.txt	LTP388	ltpFR2	1	11	CONVICT	371	n/a	n/a	0	0	0
2341.748046875	n/a	WORD	4795900	wordpools/wasnorm_wordpool_576.txt	LTP388	ltpFR2	1	11	PASTA	1021	n/a	n/a	0	0	0
2344.3486328125	n/a	WORD	4801226	wordpools/wasnorm_wordpool_576.txt	LTP388	ltpFR2	1	11	EGYPT	519	n/a	n/a	0	0	0
2346.9306640625	n/a	WORD	4806514	wordpools/wasnorm_wordpool_576.txt	LTP388	ltpFR2	1	11	CANAL	226	n/a	n/a	0	0	0
2349.6806640625	n/a	WORD	4812146	wordpools/wasnorm_wordpool_576.txt	LTP388	ltpFR2	1	11	TUBA	1515	n/a	n/a	0	0	0
2352.1484375	n/a	WORD	4817200	wordpools/wasnorm_wordpool_576.txt	LTP388	ltpFR2	1	11	FREEZER	604	n/a	n/a	0	0	0
2354.84765625	n/a	WORD	4822728	wordpools/wasnorm_wordpool_576.txt	LTP388	ltpFR2	1	11	SERVANT	1271	n/a	n/a	0	0	0
2357.564453125	n/a	WORD	4828292	wordpools/wasnorm_wordpool_576.txt	LTP388	ltpFR2	1	11	COUCH	386	n/a	n/a	0	0	0
2360.38134765625	n/a	WORD	4834061	wordpools/wasnorm_wordpool_576.txt	LTP388	ltpFR2	1	11	VAGRANT	1544	n/a	n/a	0	0	0
2363.1982421875	n/a	WORD	4839830	wordpools/wasnorm_wordpool_576.txt	LTP388	ltpFR2	1	11	LIGHTNING	820	n/a	n/a	0	0	0
2365.712890625	n/a	WORD	4844980	wordpools/wasnorm_wordpool_576.txt	LTP388	ltpFR2	1	11	CROWN	415	n/a	n/a	0	0	0
2368.26416015625	n/a	WORD	4850205	wordpools/wasnorm_wordpool_576.txt	LTP388	ltpFR2	1	11	QUEEN	1149	n/a	n/a	0	0	0
2370.93017578125	n/a	WORD	4855665	wordpools/wasnorm_wordpool_576.txt	LTP388	ltpFR2	1	11	PERCH	1048	n/a	n/a	0	0	0
2373.4306640625	n/a	WORD	4860786	wordpools/wasnorm_wordpool_576.txt	LTP388	ltpFR2	1	11	HEADBAND	696	n/a	n/a	0	0	0
2376.19775390625	n/a	WORD	4866453	wordpools/wasnorm_wordpool_576.txt	LTP388	ltpFR2	1	11	TWEEZERS	1526	n/a	n/a	0	0	0
2379.013671875	n/a	WORD	4872220	wordpools/wasnorm_wordpool_576.txt	LTP388	ltpFR2	1	11	SPACE	1345	n/a	n/a	0	0	0
2380.630859375	n/a	START	4875532	n/a	LTP388	ltpFR2	1	n/a	n/a	n/a	17	n/a	n/a	n/a	n/a
2381.48681640625	n/a	DISTRACTOR	4877285	n/a	LTP388	ltpFR2	1	11	n/a	n/a	n/a	n/a	0	0	0
2381.49658203125	n/a	PROB	4877305	n/a	LTP388	ltpFR2	1	n/a	n/a	n/a	17	16	1	9	6
2383.79638671875	n/a	PROB	4882015	n/a	LTP388	ltpFR2	1	n/a	n/a	n/a	17	15	6	3	6
2387.3134765625	n/a	PROB	4889218	n/a	LTP388	ltpFR2	1	n/a	n/a	n/a	17	19	7	8	5
2393.646484375	n/a	PROB	4902188	n/a	LTP388	ltpFR2	1	n/a	n/a	n/a	17	18	3	9	6
2396.01318359375	n/a	PROB	4907035	n/a	LTP388	ltpFR2	1	n/a	n/a	n/a	17	13	2	8	3
2398.11328125	n/a	PROB	4911336	n/a	LTP388	ltpFR2	1	n/a	n/a	n/a	17	16	7	2	7
2400.1298828125	n/a	PROB	4915466	n/a	LTP388	ltpFR2	1	n/a	n/a	n/a	17	7	5	1	1
2401.49609375	n/a	PROB	4918264	n/a	LTP388	ltpFR2	1	n/a	n/a	n/a	17	13	3	1	9
2404.6298828125	n/a	STOP	4924682	n/a	LTP388	ltpFR2	1	n/a	n/a	n/a	17	n/a	n/a	n/a	n/a
2406.49609375	n/a	REC_START	4928504	n/a	LTP388	ltpFR2	1	11	n/a	n/a	n/a	n/a	0	0	0
2407.466796875	n/a	REC_WORD	4930492	wordpools/wasnorm_wordpool_576.txt	LTP388	ltpFR2	1	11	CROWN	415	n/a	n/a	0	0	0
2408.7490234375	n/a	REC_WORD	4933118	wordpools/wasnorm_wordpool_576.txt	LTP388	ltpFR2	1	11	QUEEN	1149	n/a	n/a	0	0	0
2410.048828125	n/a	REC_WORD	4935780	wordpools/wasnorm_wordpool_576.txt	LTP388	ltpFR2	1	11	HEADBAND	696	n/a	n/a	0	0	0
2411.52978515625	n/a	REC_WORD	4938813	wordpools/wasnorm_wordpool_576.txt	LTP388	ltpFR2	1	11	PERCH	1048	n/a	n/a	0	0	0
2413.6748046875	n/a	REC_WORD	4943206	wordpools/wasnorm_wordpool_576.txt	LTP388	ltpFR2	1	11	COUCH	386	n/a	n/a	0	0	0
2414.984375	n/a	REC_WORD	4945888	wordpools/wasnorm_wordpool_576.txt	LTP388	ltpFR2	1	11	TWEEZERS	1526	n/a	n/a	0	0	0
2416.36962890625	n/a	REC_WORD	4948725	wordpools/wasnorm_wordpool_576.txt	LTP388	ltpFR2	1	11	RAZOR	1171	n/a	n/a	0	0	0
2419.095703125	n/a	REC_WORD	4954308	wordpools/wasnorm_wordpool_576.txt	LTP388	ltpFR2	1	11	BANK	83	n/a	n/a	0	0	0
2425.68505859375	n/a	REC_WORD	4967803	wordpools/wasnorm_wordpool_576.txt	LTP388	ltpFR2	1	11	LOFT	840	n/a	n/a	0	0	0
2427.09033203125	n/a	REC_WORD	4970681	wordpools/wasnorm_wordpool_576.txt	LTP388	ltpFR2	1	11	EGYPT	519	n/a	n/a	0	0	0
2428.1650390625	n/a	REC_WORD	4972882	wordpools/wasnorm_wordpool_576.txt	LTP388	ltpFR2	1	11	CANAL	226	n/a	n/a	0	0	0
2429.6552734375	n/a	REC_WORD	4975934	wordpools/wasnorm_wordpool_576.txt	LTP388	ltpFR2	1	11	TRIBE	1505	n/a	n/a	0	0	0
2431.240234375	n/a	REC_WORD	4979180	wordpools/wasnorm_wordpool_576.txt	LTP388	ltpFR2	1	11	TUBA	1515	n/a	n/a	0	0	0
2432.43505859375	n/a	REC_WORD	4981627	wordpools/wasnorm_wordpool_576.txt	LTP388	ltpFR2	1	11	FREEZER	604	n/a	n/a	0	0	0
2433.81494140625	n/a	REC_WORD	4984453	wordpools/wasnorm_wordpool_576.txt	LTP388	ltpFR2	1	11	SERVANT	1271	n/a	n/a	0	0	0
2470.548828125	n/a	REC_WORD	5059684	wordpools/wasnorm_wordpool_576.txt	LTP388	ltpFR2	1	11	PASTA	1021	n/a	n/a	0	0	0
2477.0185546875	n/a	REC_WORD	5072934	wordpools/wasnorm_wordpool_576.txt	LTP388	ltpFR2	1	11	SCISSORS	1250	n/a	n/a	0	0	0
2496.923828125	n/a	DISTRACTOR	5113700	n/a	LTP388	ltpFR2	1	12	n/a	n/a	n/a	n/a	0	0	0
2496.923828125	n/a	START	5113700	n/a	LTP388	ltpFR2	1	n/a	n/a	n/a	18	n/a	n/a	n/a	n/a
2496.94189453125	n/a	PROB	5113737	n/a	LTP388	ltpFR2	1	n/a	n/a	n/a	18	22	5	9	8
2500.44189453125	n/a	PROB	5120905	n/a	LTP388	ltpFR2	1	n/a	n/a	n/a	18	9	5	1	3
2502.70703125	n/a	PROB	5125544	n/a	LTP388	ltpFR2	1	n/a	n/a	n/a	18	23	9	8	6
2504.673828125	n/a	PROB	5129572	n/a	LTP388	ltpFR2	1	n/a	n/a	n/a	18	9	6	1	2
2506.20751953125	n/a	PROB	5132713	n/a	LTP388	ltpFR2	1	n/a	n/a	n/a	18	13	4	6	3
2508.04052734375	n/a	PROB	5136467	n/a	LTP388	ltpFR2	1	n/a	n/a	n/a	18	20	8	7	5
2511.4248046875	n/a	PROB	5143398	n/a	LTP388	ltpFR2	1	n/a	n/a	n/a	18	13	2	3	8
2514.5576171875	n/a	PROB	5149814	n/a	LTP388	ltpFR2	1	n/a	n/a	n/a	18	5	1	1	3
2515.75634765625	n/a	PROB	5152269	n/a	LTP388	ltpFR2	1	n/a	n/a	n/a	18	18	4	7	7
2520.92333984375	n/a	STOP	5162851	n/a	LTP388	ltpFR2	1	n/a	n/a	n/a	18	n/a	n/a	n/a	n/a
2521.7890625	n/a	WORD	5164624	wordpools/wasnorm_wordpool_576.txt	LTP388	ltpFR2	1	12	BANJO	82	n/a	n/a	0	0	0
2524.240234375	n/a	WORD	5169644	wordpools/wasnorm_wordpool_576.txt	LTP388	ltpFR2	1	12	FARMER	553	n/a	n/a	0	0	0
2526.8388671875	n/a	WORD	5174966	wordpools/wasnorm_wordpool_576.txt	LTP388	ltpFR2	1	12	REBEL	1172	n/a	n/a	0	0	0
2529.52294921875	n/a	WORD	5180463	wordpools/wasnorm_wordpool_576.txt	LTP388	ltpFR2	1	12	HAND	683	n/a	n/a	0	0	0
2531.98974609375	n/a	WORD	5185515	wordpools/wasnorm_wordpool_576.txt	LTP388	ltpFR2	1	12	FOX	598	n/a	n/a	0	0	0
2534.671875	n/a	WORD	5191008	wordpools/wasnorm_wordpool_576.txt	LTP388	ltpFR2	1	12	SLUG	1329	n/a	n/a	0	0	0
2537.3896484375	n/a	WORD	5196574	wordpools/wasnorm_wordpool_576.txt	LTP388	ltpFR2	1	12	PARSLEY	1016	n/a	n/a	0	0	0
2540.056640625	n/a	WORD	5202036	wordpools/wasnorm_wordpool_576.txt	LTP388	ltpFR2	1	12	SPHINX	1349	n/a	n/a	0	0	0
2542.556640625	n/a	WORD	5207156	wordpools/wasnorm_wordpool_576.txt	LTP388	ltpFR2	1	12	TEMPLE	1448	n/a	n/a	0	0	0
2545.0224609375	n/a	WORD	5212206	wordpools/wasnorm_wordpool_576.txt	LTP388	ltpFR2	1	12	VENUS	1557	n/a	n/a	0	0	0
2547.47265625	n/a	WORD	5217224	wordpools/wasnorm_wordpool_576.txt	LTP388	ltpFR2	1	12	COMPASS	358	n/a	n/a	0	0	0
2550.08935546875	n/a	WORD	5222583	wordpools/wasnorm_wordpool_576.txt	LTP388	ltpFR2	1	12	OMELET	976	n/a	n/a	0	0	0
2552.8544921875	n/a	WORD	5228246	wordpools/wasnorm_wordpool_576.txt	LTP388	ltpFR2	1	12	BACON	67	n/a	n/a	0	0	0
2555.6220703125	n/a	WORD	5233914	wordpools/wasnorm_wordpool_576.txt	LTP388	ltpFR2	1	12	OUTLAW	989	n/a	n/a	0	0	0
2558.30517578125	n/a	WORD	5239409	wordpools/wasnorm_wordpool_576.txt	LTP388	ltpFR2	1	12	CRATER	400	n/a	n/a	0	0	0
2561.0888671875	n/a	WORD	5245110	wordpools/wasnorm_wordpool_576.txt	LTP388	ltpFR2	1	12	BIKE	125	n/a	n/a	0	0	0
2563.73779296875	n/a	WORD	5250535	wordpools/wasnorm_wordpool_576.txt	LTP388	ltpFR2	1	12	UMPIRE	1535	n/a	n/a	0	0	0
2566.2890625	n/a	WORD	5255760	wordpools/wasnorm_wordpool_576.txt	LTP388	ltpFR2	1	12	STOMACH	1384	n/a	n/a	0	0	0
2568.837890625	n/a	WORD	5260980	wordpools/wasnorm_wordpool_576.txt	LTP388	ltpFR2	1	12	NURSE	963	n/a	n/a	0	0	0
2571.6044921875	n/a	WORD	5266646	wordpools/wasnorm_wordpool_576.txt	LTP388	ltpFR2	1	12	CHEMIST	292	n/a	n/a	0	0	0
2574.42138671875	n/a	WORD	5272415	wordpools/wasnorm_wordpool_576.txt	LTP388	ltpFR2	1	12	MILDEW	893	n/a	n/a	0	0	0
2576.92041015625	n/a	WORD	5277533	wordpools/wasnorm_wordpool_576.txt	LTP388	ltpFR2	1	12	SCARECROW	1245	n/a	n/a	0	0	0
2579.5546875	n/a	WORD	5282928	wordpools/wasnorm_wordpool_576.txt	LTP388	ltpFR2	1	12	CATCHER	258	n/a	n/a	0	0	0
2582.021484375	n/a	WORD	5287980	wordpools/wasnorm_wordpool_576.txt	LTP388	ltpFR2	1	12	BASEMENT	94	n/a	n/a	0	0	0
2583.63720703125	n/a	START	5291289	n/a	LTP388	ltpFR2	1	n/a	n/a	n/a	19	n/a	n/a	n/a	n/a
2584.83642578125	n/a	DISTRACTOR	5293745	n/a	LTP388	ltpFR2	1	12	n/a	n/a	n/a	n/a	0	0	0
2584.853515625	n/a	PROB	5293780	n/a	LTP388	ltpFR2	1	n/a	n/a	n/a	19	13	3	5	5
2586.8701171875	n/a	PROB	5297910	n/a	LTP388	ltpFR2	1	n/a	n/a	n/a	19	9	1	2	6
2588.60400390625	n/a	PROB	5301461	n/a	LTP388	ltpFR2	1	n/a	n/a	n/a	19	12	5	4	3
2592.4208984375	n/a	PROB	5309278	n/a	LTP388	ltpFR2	1	n/a	n/a	n/a	19	20	7	7	6
2594.81884765625	n/a	PROB	5314189	n/a	LTP388	ltpFR2	1	n/a	n/a	n/a	19	15	9	1	5
2596.0537109375	n/a	PROB	5316718	n/a	LTP388	ltpFR2	1	n/a	n/a	n/a	19	8	1	4	3
2599.15380859375	n/a	PROB	5323067	n/a	LTP388	ltpFR2	1	n/a	n/a	n/a	19	17	5	4	8
2600.98681640625	n/a	PROB	5326821	n/a	LTP388	ltpFR2	1	n/a	n/a	n/a	19	13	1	7	5
2604.75244140625	n/a	PROB	5334533	n/a	LTP388	ltpFR2	1	n/a	n/a	n/a	19	18	8	7	3
2606.61572265625	n/a	STOP	5338349	n/a	LTP388	ltpFR2	1	n/a	n/a	n/a	19	n/a	n/a	n/a	n/a
2609.42041015625	n/a	REC_START	5344093	n/a	LTP388	ltpFR2	1	12	n/a	n/a	n/a	n/a	0	0	0
2610.0947265625	n/a	REC_WORD	5345474	wordpools/wasnorm_wordpool_576.txt	LTP388	ltpFR2	1	12	SCARECROW	1245	n/a	n/a	0	0	0
2611.29443359375	n/a	REC_WORD	5347931	wordpools/wasnorm_wordpool_576.txt	LTP388	ltpFR2	1	12	STOMACH	1384	n/a	n/a	0	0	0
2613.05517578125	n/a	REC_WORD	5351537	wordpools/wasnorm_wordpool_576.txt	LTP388	ltpFR2	1	12	MILDEW	893	n/a	n/a	0	0	0
2614.5302734375	n/a	REC_WORD	5354558	wordpools/wasnorm_wordpool_576.txt	LTP388	ltpFR2	1	12	OUTLAW	989	n/a	n/a	0	0	0
2615.9404296875	n/a	REC_WORD	5357446	wordpools/wasnorm_wordpool_576.txt	LTP388	ltpFR2	1	12	CHEMIST	292	n/a	n/a	0	0	0
2617.080078125	n/a	REC_WORD	5359780	wordpools/wasnorm_wordpool_576.txt	LTP388	ltpFR2	1	12	NURSE	963	n/a	n/a	0	0	0
2618.3310546875	n/a	REC_WORD	5362342	wordpools/wasnorm_wordpool_576.txt	LTP388	ltpFR2	1	12	CRATER	400	n/a	n/a	0	0	0
2619.6611328125	n/a	REC_WORD	5365066	wordpools/wasnorm_wordpool_576.txt	LTP388	ltpFR2	1	12	BACON	67	n/a	n/a	0	0	0
2621.0703125	n/a	REC_WORD	5367952	wordpools/wasnorm_wordpool_576.txt	LTP388	ltpFR2	1	12	OMELET	976	n/a	n/a	0	0	0
2622.25537109375	n/a	REC_WORD	5370379	wordpools/wasnorm_wordpool_576.txt	LTP388	ltpFR2	1	12	BANJO	82	n/a	n/a	0	0	0
2623.5751953125	n/a	REC_WORD	5373082	wordpools/wasnorm_wordpool_576.txt	LTP388	ltpFR2	1	12	FARMER	553	n/a	n/a	0	0	0
2626.85986328125	n/a	REC_WORD	5379809	wordpools/wasnorm_wordpool_576.txt	LTP388	ltpFR2	1	12	REBEL	1172	n/a	n/a	0	0	0
2637.77978515625	n/a	REC_WORD	5402173	wordpools/wasnorm_wordpool_576.txt	LTP388	ltpFR2	1	12	HAND	683	n/a	n/a	0	0	0
2651.33837890625	n/a	REC_WORD	5429941	wordpools/wasnorm_wordpool_576.txt	LTP388	ltpFR2	1	12	FOX	598	n/a	n/a	0	0	0
2699.86474609375	n/a	WORD	5529323	wordpools/wasnorm_wordpool_576.txt	LTP388	ltpFR2	1	13	BUBBLE	183	n/a	n/a	0	0	0
2702.4326171875	n/a	WORD	5534582	wordpools/wasnorm_wordpool_576.txt	LTP388	ltpFR2	1	13	CHAMPAGNE	278	n/a	n/a	0	0	0
2705.19873046875	n/a	WORD	5540247	wordpools/wasnorm_wordpool_576.txt	LTP388	ltpFR2	1	13	REPORT	1184	n/a	n/a	0	0	0
2707.6806640625	n/a	WORD	5545330	wordpools/wasnorm_wordpool_576.txt	LTP388	ltpFR2	1	13	PAPER	1011	n/a	n/a	0	0	0
2710.4482421875	n/a	WORD	5550998	wordpools/wasnorm_wordpool_576.txt	LTP388	ltpFR2	1	13	TABLE	1426	n/a	n/a	0	0	0
2713.0654296875	n/a	WORD	5556358	wordpools/wasnorm_wordpool_576.txt	LTP388	ltpFR2	1	13	STONE	1385	n/a	n/a	0	0	0
2715.53125	n/a	WORD	5561408	wordpools/wasnorm_wordpool_576.txt	LTP388	ltpFR2	1	13	STALLION	1369	n/a	n/a	0	0	0
2718.1142578125	n/a	WORD	5566698	wordpools/wasnorm_wordpool_576.txt	LTP388	ltpFR2	1	13	GOBLIN	645	n/a	n/a	0	0	0
2720.712890625	n/a	WORD	5572020	wordpools/wasnorm_wordpool_576.txt	LTP388	ltpFR2	1	13	CORAL	378	n/a	n/a	0	0	0
2723.130859375	n/a	WORD	5576972	wordpools/wasnorm_wordpool_576.txt	LTP388	ltpFR2	1	13	CREATURE	403	n/a	n/a	0	0	0
2725.830078125	n/a	WORD	5582500	wordpools/wasnorm_wordpool_576.txt	LTP388	ltpFR2	1	13	SISTER	1312	n/a	n/a	0	0	0
2728.48095703125	n/a	WORD	5587929	wordpools/wasnorm_wordpool_576.txt	LTP388	ltpFR2	1	13	BEAKER	104	n/a	n/a	0	0	0
2731.06396484375	n/a	WORD	5593219	wordpools/wasnorm_wordpool_576.txt	LTP388	ltpFR2	1	13	LACE	792	n/a	n/a	0	0	0
2733.5478515625	n/a	WORD	5598306	wordpools/wasnorm_wordpool_576.txt	LTP388	ltpFR2	1	13	PLASTER	1085	n/a	n/a	0	0	0
2736.03076171875	n/a	WORD	5603391	wordpools/wasnorm_wordpool_576.txt	LTP388	ltpFR2	1	13	PECAN	1036	n/a	n/a	0	0	0
2738.8125	n/a	WORD	5609088	wordpools/wasnorm_wordpool_576.txt	LTP388	ltpFR2	1	13	OYSTER	995	n/a	n/a	0	0	0
2741.59716796875	n/a	WORD	5614791	wordpools/wasnorm_wordpool_576.txt	LTP388	ltpFR2	1	13	MOTEL	919	n/a	n/a	0	0	0
2744.11328125	n/a	WORD	5619944	wordpools/wasnorm_wordpool_576.txt	LTP388	ltpFR2	1	13	RELISH	1183	n/a	n/a	0	0	0
2746.79638671875	n/a	WORD	5625439	wordpools/wasnorm_wordpool_576.txt	LTP388	ltpFR2	1	13	SANDWICH	1232	n/a	n/a	0	0	0
2749.29638671875	n/a	WORD	5630559	wordpools/wasnorm_wordpool_576.txt	LTP388	ltpFR2	1	13	COSTUME	383	n/a	n/a	0	0	0
2751.962890625	n/a	WORD	5636020	wordpools/wasnorm_wordpool_576.txt	LTP388	ltpFR2	1	13	PEANUT	1032	n/a	n/a	0	0	0
2754.56298828125	n/a	WORD	5641345	wordpools/wasnorm_wordpool_576.txt	LTP388	ltpFR2	1	13	SILK	1307	n/a	n/a	0	0	0
2757.2958984375	n/a	WORD	5646942	wordpools/wasnorm_wordpool_576.txt	LTP388	ltpFR2	1	13	TILE	1468	n/a	n/a	0	0	0
2759.86181640625	n/a	WORD	5652197	wordpools/wasnorm_wordpool_576.txt	LTP388	ltpFR2	1	13	FRAGRANCE	599	n/a	n/a	0	0	0
2761.47998046875	n/a	START	5655511	n/a	LTP388	ltpFR2	1	n/a	n/a	n/a	20	n/a	n/a	n/a	n/a
2762.39697265625	n/a	DISTRACTOR	5657389	n/a	LTP388	ltpFR2	1	13	n/a	n/a	n/a	n/a	0	0	0
2762.41259765625	n/a	PROB	5657421	n/a	LTP388	ltpFR2	1	n/a	n/a	n/a	20	19	3	8	8
2766.29541015625	n/a	PROB	5665373	n/a	LTP388	ltpFR2	1	n/a	n/a	n/a	20	19	3	8	8
2767.87744140625	n/a	PROB	5668613	n/a	LTP388	ltpFR2	1	n/a	n/a	n/a	20	15	1	5	9
2769.6455078125	n/a	PROB	5672234	n/a	LTP388	ltpFR2	1	n/a	n/a	n/a	20	15	4	6	5
2772.29541015625	n/a	PROB	5677661	n/a	LTP388	ltpFR2	1	n/a	n/a	n/a	20	17	9	7	1
2774.228515625	n/a	PROB	5681620	n/a	LTP388	ltpFR2	1	n/a	n/a	n/a	20	12	7	3	2
2775.79443359375	n/a	PROB	5684827	n/a	LTP388	ltpFR2	1	n/a	n/a	n/a	20	19	5	9	5
2777.162109375	n/a	PROB	5687628	n/a	LTP388	ltpFR2	1	n/a	n/a	n/a	20	19	7	5	7
2779.46240234375	n/a	PROB	5692339	n/a	LTP388	ltpFR2	1	n/a	n/a	n/a	20	17	2	9	6
2781.39501953125	n/a	PROB	5696297	n/a	LTP388	ltpFR2	1	n/a	n/a	n/a	20	18	3	7	8
2783.2109375	n/a	PROB	5700016	n/a	LTP388	ltpFR2	1	n/a	n/a	n/a	20	17	6	4	5
2785.4482421875	n/a	STOP	5704598	n/a	LTP388	ltpFR2	1	n/a	n/a	n/a	20	n/a	n/a	n/a	n/a
2787.34521484375	n/a	REC_START	5708483	n/a	LTP388	ltpFR2	1	13	n/a	n/a	n/a	n/a	0	0	0
2787.92919921875	n/a	REC_WORD	5709679	wordpools/wasnorm_wordpool_576.txt	LTP388	ltpFR2	1	13	FRAGRANCE	599	n/a	n/a	0	0	0
2788.9287109375	n/a	REC_WORD_VV	5711726	wordpools/wasnorm_wordpool_576.txt	LTP388	ltpFR2	1	13	<>	-1	n/a	n/a	0	0	0
2789.51513671875	n/a	REC_WORD	5712927	wordpools/wasnorm_wordpool_576.txt	LTP388	ltpFR2	1	13	RELISH	1183	n/a	n/a	0	0	0
2790.77001953125	n/a	REC_WORD	5715497	wordpools/wasnorm_wordpool_576.txt	LTP388	ltpFR2	1	13	SANDWICH	1232	n/a	n/a	0	0	0
2792.19970703125	n/a	REC_WORD	5718425	wordpools/wasnorm_wordpool_576.txt	LTP388	ltpFR2	1	13	LACE	792	n/a	n/a	0	0	0
2793.46484375	n/a	REC_WORD	5721016	wordpools/wasnorm_wordpool_576.txt	LTP388	ltpFR2	1	13	SILK	1307	n/a	n/a	0	0	0
2795.03955078125	n/a	REC_WORD	5724241	wordpools/wasnorm_wordpool_576.txt	LTP388	ltpFR2	1	13	MOTEL	919	n/a	n/a	0	0	0
2796.98486328125	n/a	REC_WORD	5728225	wordpools/wasnorm_wordpool_576.txt	LTP388	ltpFR2	1	13	BUBBLE	183	n/a	n/a	0	0	0
2798.439453125	n/a	REC_WORD	5731204	wordpools/wasnorm_wordpool_576.txt	LTP388	ltpFR2	1	13	CHAMPAGNE	278	n/a	n/a	0	0	0
2800.134765625	n/a	REC_WORD	5734676	wordpools/wasnorm_wordpool_576.txt	LTP388	ltpFR2	1	13	OYSTER	995	n/a	n/a	0	0	0
2802.5537109375	n/a	REC_WORD	5739630	wordpools/wasnorm_wordpool_576.txt	LTP388	ltpFR2	1	13	GOBLIN	645	n/a	n/a	0	0	0
2805.2734375	n/a	REC_WORD	5745200	wordpools/wasnorm_wordpool_576.txt	LTP388	ltpFR2	1	13	PEANUT	1032	n/a	n/a	0	0	0
2806.828125	n/a	REC_WORD	5748384	wordpools/wasnorm_wordpool_576.txt	LTP388	ltpFR2	1	13	CASHEW	253	n/a	n/a	0	0	0
2808.37353515625	n/a	REC_WORD	5751549	wordpools/wasnorm_wordpool_576.txt	LTP388	ltpFR2	1	13	CREATURE	403	n/a	n/a	0	0	0
2812.25341796875	n/a	REC_WORD	5759495	wordpools/wasnorm_wordpool_576.txt	LTP388	ltpFR2	1	13	REPORT	1184	n/a	n/a	0	0	0
2813.80517578125	n/a	REC_WORD	5762673	wordpools/wasnorm_wordpool_576.txt	LTP388	ltpFR2	1	13	TABLE	1426	n/a	n/a	0	0	0
2815.59130859375	n/a	REC_WORD	5766331	wordpools/wasnorm_wordpool_576.txt	LTP388	ltpFR2	1	13	PAPER	1011	n/a	n/a	0	0	0
2877.80615234375	n/a	WORD	5893747	wordpools/wasnorm_wordpool_576.txt	LTP388	ltpFR2	1	14	PUDDLE	1140	n/a	n/a	0	0	0
2880.45703125	n/a	WORD	5899176	wordpools/wasnorm_wordpool_576.txt	LTP388	ltpFR2	1	14	FLOWER	584	n/a	n/a	0	0	0
2882.95703125	n/a	WORD	5904296	wordpools/wasnorm_wordpool_576.txt	LTP388	ltpFR2	1	14	COUSIN	392	n/a	n/a	0	0	0
2885.58984375	n/a	WORD	5909688	wordpools/wasnorm_wordpool_576.txt	LTP388	ltpFR2	1	14	BATHTUB	100	n/a	n/a	0	0	0
2888.2900390625	n/a	WORD	5915218	wordpools/wasnorm_wordpool_576.txt	LTP388	ltpFR2	1	14	KIDNEY	776	n/a	n/a	0	0	0
2891.10693359375	n/a	WORD	5920987	wordpools/wasnorm_wordpool_576.txt	LTP388	ltpFR2	1	14	RADISH	1158	n/a	n/a	0	0	0
2893.58984375	n/a	WORD	5926072	wordpools/wasnorm_wordpool_576.txt	LTP388	ltpFR2	1	14	GARDEN	623	n/a	n/a	0	0	0
2896.42236328125	n/a	WORD	5931873	wordpools/wasnorm_wordpool_576.txt	LTP388	ltpFR2	1	14	RACKET	1155	n/a	n/a	0	0	0
2899.189453125	n/a	WORD	5937540	wordpools/wasnorm_wordpool_576.txt	LTP388	ltpFR2	1	14	ITEM	746	n/a	n/a	0	0	0
2901.67138671875	n/a	WORD	5942623	wordpools/wasnorm_wordpool_576.txt	LTP388	ltpFR2	1	14	PREACHER	1119	n/a	n/a	0	0	0
2904.2392578125	n/a	WORD	5947882	wordpools/wasnorm_wordpool_576.txt	LTP388	ltpFR2	1	14	ICING	732	n/a	n/a	0	0	0
2907.00634765625	n/a	WORD	5953549	wordpools/wasnorm_wordpool_576.txt	LTP388	ltpFR2	1	14	HUSBAND	728	n/a	n/a	0	0	0
2909.55615234375	n/a	WORD	5958771	wordpools/wasnorm_wordpool_576.txt	LTP388	ltpFR2	1	14	TUTU	1524	n/a	n/a	0	0	0
2912.22216796875	n/a	WORD	5964231	wordpools/wasnorm_wordpool_576.txt	LTP388	ltpFR2	1	14	SHOVEL	1295	n/a	n/a	0	0	0
2914.77099609375	n/a	WORD	5969451	wordpools/wasnorm_wordpool_576.txt	LTP388	ltpFR2	1	14	VALLEY	1545	n/a	n/a	0	0	0
2917.3046875	n/a	WORD	5974640	wordpools/wasnorm_wordpool_576.txt	LTP388	ltpFR2	1	14	SUMMIT	1405	n/a	n/a	0	0	0
2919.955078125	n/a	WORD	5980068	wordpools/wasnorm_wordpool_576.txt	LTP388	ltpFR2	1	14	MONSTER	912	n/a	n/a	0	0	0
2922.5048828125	n/a	WORD	5985290	wordpools/wasnorm_wordpool_576.txt	LTP388	ltpFR2	1	14	MARKET	871	n/a	n/a	0	0	0
2924.98876953125	n/a	WORD	5990377	wordpools/wasnorm_wordpool_576.txt	LTP388	ltpFR2	1	14	PLAZA	1088	n/a	n/a	0	0	0
2927.4716796875	n/a	WORD	5995462	wordpools/wasnorm_wordpool_576.txt	LTP388	ltpFR2	1	14	PLAID	1080	n/a	n/a	0	0	0
2929.9384765625	n/a	WORD	6000514	wordpools/wasnorm_wordpool_576.txt	LTP388	ltpFR2	1	14	RAFT	1159	n/a	n/a	0	0	0
2932.45458984375	n/a	WORD	6005667	wordpools/wasnorm_wordpool_576.txt	LTP388	ltpFR2	1	14	LONDON	843	n/a	n/a	0	0	0
2934.9033203125	n/a	WORD	6010682	wordpools/wasnorm_wordpool_576.txt	LTP388	ltpFR2	1	14	PARTNER	1017	n/a	n/a	0	0	0
2937.703125	n/a	WORD	6016416	wordpools/wasnorm_wordpool_576.txt	LTP388	ltpFR2	1	14	OZONE	996	n/a	n/a	0	0	0
2939.30419921875	n/a	START	6019695	n/a	LTP388	ltpFR2	1	n/a	n/a	n/a	21	n/a	n/a	n/a	n/a
2940.26123046875	n/a	DISTRACTOR	6021655	n/a	LTP388	ltpFR2	1	14	n/a	n/a	n/a	n/a	0	0	0
2940.27099609375	n/a	PROB	6021675	n/a	LTP388	ltpFR2	1	n/a	n/a	n/a	21	18	8	2	8
2944.287109375	n/a	PROB	6029900	n/a	LTP388	ltpFR2	1	n/a	n/a	n/a	21	18	7	6	5
2946.68603515625	n/a	PROB	6034813	n/a	LTP388	ltpFR2	1	n/a	n/a	n/a	21	13	3	8	1
2948.8857421875	n/a	PROB	6039318	n/a	LTP388	ltpFR2	1	n/a	n/a	n/a	21	8	6	1	1
2951.7529296875	n/a	PROB	6045190	n/a	LTP388	ltpFR2	1	n/a	n/a	n/a	21	15	3	3	9
2953.32080078125	n/a	PROB	6048401	n/a	LTP388	ltpFR2	1	n/a	n/a	n/a	21	8	2	4	2
2963.30224609375	n/a	STOP	6068843	n/a	LTP388	ltpFR2	1	n/a	n/a	n/a	21	n/a	n/a	n/a	n/a
2965.17041015625	n/a	REC_START	6072669	n/a	LTP388	ltpFR2	1	14	n/a	n/a	n/a	n/a	0	0	0
2967.79541015625	n/a	REC_WORD	6078045	wordpools/wasnorm_wordpool_576.txt	LTP388	ltpFR2	1	14	COUSIN	392	n/a	n/a	0	0	0
2969.0751953125	n/a	REC_WORD	6080666	wordpools/wasnorm_wordpool_576.txt	LTP388	ltpFR2	1	14	KIDNEY	776	n/a	n/a	0	0	0
2971.10546875	n/a	REC_WORD	6084824	wordpools/wasnorm_wordpool_576.txt	LTP388	ltpFR2	1	14	PLAZA	1088	n/a	n/a	0	0	0
2973.00830078125	n/a	REC_WORD	6088721	wordpools/wasnorm_wordpool_576.txt	LTP388	ltpFR2	1	14	MONSTER	912	n/a	n/a	0	0	0
2974.43798828125	n/a	REC_WORD	6091649	wordpools/wasnorm_wordpool_576.txt	LTP388	ltpFR2	1	14	SHOVEL	1295	n/a	n/a	0	0	0
2975.92822265625	n/a	REC_WORD	6094701	wordpools/wasnorm_wordpool_576.txt	LTP388	ltpFR2	1	14	TUTU	1524	n/a	n/a	0	0	0
2977.18310546875	n/a	REC_WORD	6097271	wordpools/wasnorm_wordpool_576.txt	LTP388	ltpFR2	1	14	PARTNER	1017	n/a	n/a	0	0	0
2978.453125	n/a	REC_WORD	6099872	wordpools/wasnorm_wordpool_576.txt	LTP388	ltpFR2	1	14	LONDON	843	n/a	n/a	0	0	0
2979.86279296875	n/a	REC_WORD	6102759	wordpools/wasnorm_wordpool_576.txt	LTP388	ltpFR2	1	14	OZONE	996	n/a	n/a	0	0	0
2982.8798828125	n/a	REC_WORD	6108938	wordpools/wasnorm_wordpool_576.txt	LTP388	ltpFR2	1	14	PREACHER	1119	n/a	n/a	0	0	0
2990.9248046875	n/a	REC_WORD	6125414	wordpools/wasnorm_wordpool_576.txt	LTP388	ltpFR2	1	14	RADISH	1158	n/a	n/a	0	0	0
2992.57958984375	n/a	REC_WORD	6128803	wordpools/wasnorm_wordpool_576.txt	LTP388	ltpFR2	1	14	PUDDLE	1140	n/a	n/a	0	0	0
2993.53955078125	n/a	REC_WORD	6130769	wordpools/wasnorm_wordpool_576.txt	LTP388	ltpFR2	1	14	FLOWER	584	n/a	n/a	0	0	0
2995.3896484375	n/a	REC_WORD	6134558	wordpools/wasnorm_wordpool_576.txt	LTP388	ltpFR2	1	14	BATHTUB	100	n/a	n/a	0	0	0
2998.95947265625	n/a	REC_WORD	6141869	wordpools/wasnorm_wordpool_576.txt	LTP388	ltpFR2	1	14	GARDEN	623	n/a	n/a	0	0	0
3001.50439453125	n/a	REC_WORD	6147081	wordpools/wasnorm_wordpool_576.txt	LTP388	ltpFR2	1	14	VALLEY	1545	n/a	n/a	0	0	0
3055.61669921875	n/a	DISTRACTOR	6257903	n/a	LTP388	ltpFR2	1	15	n/a	n/a	n/a	n/a	0	0	0
3055.61669921875	n/a	START	6257903	n/a	LTP388	ltpFR2	1	n/a	n/a	n/a	22	n/a	n/a	n/a	n/a
3055.6328125	n/a	PROB	6257936	n/a	LTP388	ltpFR2	1	n/a	n/a	n/a	22	20	6	8	6
3058.03271484375	n/a	PROB	6262851	n/a	LTP388	ltpFR2	1	n/a	n/a	n/a	22	25	8	2	5
3062.73046875	n/a	PROB	6272472	n/a	LTP388	ltpFR2	1	n/a	n/a	n/a	22	9	6	1	3
3064.46533203125	n/a	PROB	6276025	n/a	LTP388	ltpFR2	1	n/a	n/a	n/a	22	10	4	2	4
3068.98095703125	n/a	PROB	6285273	n/a	LTP388	ltpFR2	1	n/a	n/a	n/a	22	20	6	5	9
3070.98095703125	n/a	PROB	6289369	n/a	LTP388	ltpFR2	1	n/a	n/a	n/a	22	3	1	1	1
3072.0810546875	n/a	PROB	6291622	n/a	LTP388	ltpFR2	1	n/a	n/a	n/a	22	22	9	5	8
3079.61572265625	n/a	STOP	6307053	n/a	LTP388	ltpFR2	1	n/a	n/a	n/a	22	n/a	n/a	n/a	n/a
3080.8466796875	n/a	WORD	6309574	wordpools/wasnorm_wordpool_576.txt	LTP388	ltpFR2	1	15	CANYON	235	n/a	n/a	0	0	0
3083.64697265625	n/a	WORD	6315309	wordpools/wasnorm_wordpool_576.txt	LTP388	ltpFR2	1	15	PLIERS	1089	n/a	n/a	0	0	0
3086.2978515625	n/a	WORD	6320738	wordpools/wasnorm_wordpool_576.txt	LTP388	ltpFR2	1	15	FLIPPER	580	n/a	n/a	0	0	0
3088.94775390625	n/a	WORD	6326165	wordpools/wasnorm_wordpool_576.txt	LTP388	ltpFR2	1	15	BRANCH	168	n/a	n/a	0	0	0
3091.3974609375	n/a	WORD	6331182	wordpools/wasnorm_wordpool_576.txt	LTP388	ltpFR2	1	15	CHIPMUNK	304	n/a	n/a	0	0	0
3093.8623046875	n/a	WORD	6336230	wordpools/wasnorm_wordpool_576.txt	LTP388	ltpFR2	1	15	DRIVER	499	n/a	n/a	0	0	0
3096.29736328125	n/a	WORD	6341217	wordpools/wasnorm_wordpool_576.txt	LTP388	ltpFR2	1	15	FRANCE	601	n/a	n/a	0	0	0
3098.947265625	n/a	WORD	6346644	wordpools/wasnorm_wordpool_576.txt	LTP388	ltpFR2	1	15	BUNNY	198	n/a	n/a	0	0	0
3101.49609375	n/a	WORD	6351864	wordpools/wasnorm_wordpool_576.txt	LTP388	ltpFR2	1	15	CAFE	216	n/a	n/a	0	0	0
3104.22998046875	n/a	WORD	6357463	wordpools/wasnorm_wordpool_576.txt	LTP388	ltpFR2	1	15	OINTMENT	974	n/a	n/a	0	0	0
3106.8291015625	n/a	WORD	6362786	wordpools/wasnorm_wordpool_576.txt	LTP388	ltpFR2	1	15	TOASTER	1472	n/a	n/a	0	0	0
3109.4130859375	n/a	WORD	6368078	wordpools/wasnorm_wordpool_576.txt	LTP388	ltpFR2	1	15	MEAT	883	n/a	n/a	0	0	0
3111.99560546875	n/a	WORD	6373367	wordpools/wasnorm_wordpool_576.txt	LTP388	ltpFR2	1	15	DRILL	497	n/a	n/a	0	0	0
3114.44580078125	n/a	WORD	6378385	wordpools/wasnorm_wordpool_576.txt	LTP388	ltpFR2	1	15	YOLK	1633	n/a	n/a	0	0	0
3116.9794921875	n/a	WORD	6383574	wordpools/wasnorm_wordpool_576.txt	LTP388	ltpFR2	1	15	STOVE	1388	n/a	n/a	0	0	0
3119.5126953125	n/a	WORD	6388762	wordpools/wasnorm_wordpool_576.txt	LTP388	ltpFR2	1	15	FLAG	573	n/a	n/a	0	0	0
3122.07958984375	n/a	WORD	6394019	wordpools/wasnorm_wordpool_576.txt	LTP388	ltpFR2	1	15	GREASE	660	n/a	n/a	0	0	0
3124.84423828125	n/a	WORD	6399681	wordpools/wasnorm_wordpool_576.txt	LTP388	ltpFR2	1	15	UNCLE	1536	n/a	n/a	0	0	0
3127.42822265625	n/a	WORD	6404973	wordpools/wasnorm_wordpool_576.txt	LTP388	ltpFR2	1	15	DRESS	495	n/a	n/a	0	0	0
3130.12841796875	n/a	WORD	6410503	wordpools/wasnorm_wordpool_576.txt	LTP388	ltpFR2	1	15	SHIRT	1287	n/a	n/a	0	0	0
3132.578125	n/a	WORD	6415520	wordpools/wasnorm_wordpool_576.txt	LTP388	ltpFR2	1	15	JELLO	754	n/a	n/a	0	0	0
3135.39501953125	n/a	WORD	6421289	wordpools/wasnorm_wordpool_576.txt	LTP388	ltpFR2	1	15	CUSTARD	429	n/a	n/a	0	0	0
3137.89404296875	n/a	WORD	6426407	wordpools/wasnorm_wordpool_576.txt	LTP388	ltpFR2	1	15	PADDING	999	n/a	n/a	0	0	0
3140.412109375	n/a	WORD	6431564	wordpools/wasnorm_wordpool_576.txt	LTP388	ltpFR2	1	15	DRAWING	494	n/a	n/a	0	0	0
3142.02880859375	n/a	START	6434875	n/a	LTP388	ltpFR2	1	n/a	n/a	n/a	23	n/a	n/a	n/a	n/a
3142.9677734375	n/a	DISTRACTOR	6436798	n/a	LTP388	ltpFR2	1	15	n/a	n/a	n/a	n/a	0	0	0
3142.97802734375	n/a	PROB	6436819	n/a	LTP388	ltpFR2	1	n/a	n/a	n/a	23	17	4	8	5
3145.49462890625	n/a	PROB	6441973	n/a	LTP388	ltpFR2	1	n/a	n/a	n/a	23	6	1	1	4
3146.5947265625	n/a	PROB	6444226	n/a	LTP388	ltpFR2	1	n/a	n/a	n/a	23	15	7	1	7
3147.99462890625	n/a	PROB	6447093	n/a	LTP388	ltpFR2	1	n/a	n/a	n/a	23	12	4	2	6
3150.560546875	n/a	PROB	6452348	n/a	LTP388	ltpFR2	1	n/a	n/a	n/a	23	24	9	8	7
3154.52734375	n/a	PROB	6460472	n/a	LTP388	ltpFR2	1	n/a	n/a	n/a	23	11	3	4	4
3157.02734375	n/a	PROB	6465592	n/a	LTP388	ltpFR2	1	n/a	n/a	n/a	23	11	1	6	4
3158.54443359375	n/a	PROB	6468699	n/a	LTP388	ltpFR2	1	n/a	n/a	n/a	23	12	6	1	5
3160.01025390625	n/a	PROB	6471701	n/a	LTP388	ltpFR2	1	n/a	n/a	n/a	23	19	5	6	8
3166.0283203125	n/a	STOP	6484026	n/a	LTP388	ltpFR2	1	n/a	n/a	n/a	23	n/a	n/a	n/a	n/a
3167.9443359375	n/a	REC_START	6487950	n/a	LTP388	ltpFR2	1	15	n/a	n/a	n/a	n/a	0	0	0
3168.96728515625	n/a	REC_WORD	6490045	wordpools/wasnorm_wordpool_576.txt	LTP388	ltpFR2	1	15	CANYON	235	n/a	n/a	0	0	0
3170.380859375	n/a	REC_WORD	6492940	wordpools/wasnorm_wordpool_576.txt	LTP388	ltpFR2	1	15	PLIERS	1089	n/a	n/a	0	0	0
3171.826171875	n/a	REC_WORD	6495900	wordpools/wasnorm_wordpool_576.txt	LTP388	ltpFR2	1	15	FLIPPER	580	n/a	n/a	0	0	0
3173.72607421875	n/a	REC_WORD	6499791	wordpools/wasnorm_wordpool_576.txt	LTP388	ltpFR2	1	15	FRANCE	601	n/a	n/a	0	0	0
3176.416015625	n/a	REC_WORD	6505300	wordpools/wasnorm_wordpool_576.txt	LTP388	ltpFR2	1	15	BUNNY	198	n/a	n/a	0	0	0
3177.7509765625	n/a	REC_WORD	6508034	wordpools/wasnorm_wordpool_576.txt	LTP388	ltpFR2	1	15	CHIPMUNK	304	n/a	n/a	0	0	0
3179.48095703125	n/a	REC_WORD	6511577	wordpools/wasnorm_wordpool_576.txt	LTP388	ltpFR2	1	15	OINTMENT	974	n/a	n/a	0	0	0
3180.91064453125	n/a	REC_WORD	6514505	wordpools/wasnorm_wordpool_576.txt	LTP388	ltpFR2	1	15	TOASTER	1472	n/a	n/a	0	0	0
3182.32568359375	n/a	REC_WORD	6517403	wordpools/wasnorm_wordpool_576.txt	LTP388	ltpFR2	1	15	MEAT	883	n/a	n/a	0	0	0
3183.845703125	n/a	REC_WORD	6520516	wordpools/wasnorm_wordpool_576.txt	LTP388	ltpFR2	1	15	YOLK	1633	n/a	n/a	0	0	0
3186.5166015625	n/a	REC_WORD	6525986	wordpools/wasnorm_wordpool_576.txt	LTP388	ltpFR2	1	15	DRESS	495	n/a	n/a	0	0	0
3188.08154296875	n/a	REC_WORD	6529191	wordpools/wasnorm_wordpool_576.txt	LTP388	ltpFR2	1	15	SHIRT	1287	n/a	n/a	0	0	0
3189.58154296875	n/a	REC_WORD	6532263	wordpools/wasnorm_wordpool_576.txt	LTP388	ltpFR2	1	15	PADDING	999	n/a	n/a	0	0	0
3191.05615234375	n/a	REC_WORD	6535283	wordpools/wasnorm_wordpool_576.txt	LTP388	ltpFR2	1	15	JELLO	754	n/a	n/a	0	0	0
3192.5185546875	n/a	REC_WORD	6538278	wordpools/wasnorm_wordpool_576.txt	LTP388	ltpFR2	1	15	CUSTARD	429	n/a	n/a	0	0	0
3258.38916015625	n/a	DISTRACTOR	6673181	n/a	LTP388	ltpFR2	1	16	n/a	n/a	n/a	n/a	0	0	0
3258.38916015625	n/a	START	6673181	n/a	LTP388	ltpFR2	1	n/a	n/a	n/a	24	n/a	n/a	n/a	n/a
3258.40625	n/a	PROB	6673216	n/a	LTP388	ltpFR2	1	n/a	n/a	n/a	24	14	5	3	6
3261.705078125	n/a	PROB	6679972	n/a	LTP388	ltpFR2	1	n/a	n/a	n/a	24	13	6	4	3
3263.40625	n/a	PROB	6683456	n/a	LTP388	ltpFR2	1	n/a	n/a	n/a	24	13	3	7	3
3265.7880859375	n/a	PROB	6688334	n/a	LTP388	ltpFR2	1	n/a	n/a	n/a	24	9	3	3	3
3266.837890625	n/a	PROB	6690484	n/a	LTP388	ltpFR2	1	n/a	n/a	n/a	24	11	6	2	3
3270.48876953125	n/a	PROB	6697961	n/a	LTP388	ltpFR2	1	n/a	n/a	n/a	24	15	5	1	9
3273.138671875	n/a	PROB	6703388	n/a	LTP388	ltpFR2	1	n/a	n/a	n/a	24	13	6	1	6
3274.6708984375	n/a	PROB	6706526	n/a	LTP388	ltpFR2	1	n/a	n/a	n/a	24	13	6	1	6
3276.8037109375	n/a	PROB	6710894	n/a	LTP388	ltpFR2	1	n/a	n/a	n/a	24	13	1	8	4
3278.388671875	n/a	PROB	6714140	n/a	LTP388	ltpFR2	1	n/a	n/a	n/a	24	16	6	8	2
3281.3427734375	n/a	STOP	6720190	n/a	LTP388	ltpFR2	1	n/a	n/a	n/a	24	n/a	n/a	n/a	n/a
3283.2216796875	n/a	WORD	6724038	wordpools/wasnorm_wordpool_576.txt	LTP388	ltpFR2	1	16	JOURNAL	760	n/a	n/a	0	0	0
3286.03857421875	n/a	WORD	6729807	wordpools/wasnorm_wordpool_576.txt	LTP388	ltpFR2	1	16	MACHINE	852	n/a	n/a	0	0	0
3288.6533203125	n/a	WORD	6735162	wordpools/wasnorm_wordpool_576.txt	LTP388	ltpFR2	1	16	XEROX	1628	n/a	n/a	0	0	0
3291.2041015625	n/a	WORD	6740386	wordpools/wasnorm_wordpool_576.txt	LTP388	ltpFR2	1	16	MATTRESS	879	n/a	n/a	0	0	0
3293.93798828125	n/a	WORD	6745985	wordpools/wasnorm_wordpool_576.txt	LTP388	ltpFR2	1	16	EUROPE	541	n/a	n/a	0	0	0
3296.669921875	n/a	WORD	6751580	wordpools/wasnorm_wordpool_576.txt	LTP388	ltpFR2	1	16	POCKET	1093	n/a	n/a	0	0	0
3299.47119140625	n/a	WORD	6757317	wordpools/wasnorm_wordpool_576.txt	LTP388	ltpFR2	1	16	TREAT	1501	n/a	n/a	0	0	0
3302.0869140625	n/a	WORD	6762674	wordpools/wasnorm_wordpool_576.txt	LTP388	ltpFR2	1	16	THRONE	1461	n/a	n/a	0	0	0
3304.669921875	n/a	WORD	6767964	wordpools/wasnorm_wordpool_576.txt	LTP388	ltpFR2	1	16	PRINCE	1124	n/a	n/a	0	0	0
3307.470703125	n/a	WORD	6773700	wordpools/wasnorm_wordpool_576.txt	LTP388	ltpFR2	1	16	LETTUCE	814	n/a	n/a	0	0	0
3310.28662109375	n/a	WORD	6779467	wordpools/wasnorm_wordpool_576.txt	LTP388	ltpFR2	1	16	CELLAR	267	n/a	n/a	0	0	0
3312.92041015625	n/a	WORD	6784861	wordpools/wasnorm_wordpool_576.txt	LTP388	ltpFR2	1	16	DRESSER	496	n/a	n/a	0	0	0
3315.50341796875	n/a	WORD	6790151	wordpools/wasnorm_wordpool_576.txt	LTP388	ltpFR2	1	16	NOVEL	960	n/a	n/a	0	0	0
3318.1865234375	n/a	WORD	6795646	wordpools/wasnorm_wordpool_576.txt	LTP388	ltpFR2	1	16	CYCLONE	431	n/a	n/a	0	0	0
3320.90234375	n/a	WORD	6801208	wordpools/wasnorm_wordpool_576.txt	LTP388	ltpFR2	1	16	TWISTER	1530	n/a	n/a	0	0	0
3323.35302734375	n/a	WORD	6806227	wordpools/wasnorm_wordpool_576.txt	LTP388	ltpFR2	1	16	SMOG	1330	n/a	n/a	0	0	0
3325.8349609375	n/a	WORD	6811310	wordpools/wasnorm_wordpool_576.txt	LTP388	ltpFR2	1	16	SWITCH	1422	n/a	n/a	0	0	0
3328.619140625	n/a	WORD	6817012	wordpools/wasnorm_wordpool_576.txt	LTP388	ltpFR2	1	16	FEMALE	559	n/a	n/a	0	0	0
3331.2529296875	n/a	WORD	6822406	wordpools/wasnorm_wordpool_576.txt	LTP388	ltpFR2	1	16	YACHT	1629	n/a	n/a	0	0	0
3333.93603515625	n/a	WORD	6827901	wordpools/wasnorm_wordpool_576.txt	LTP388	ltpFR2	1	16	TART	1436	n/a	n/a	0	0	0
3336.45263671875	n/a	WORD	6833055	wordpools/wasnorm_wordpool_576.txt	LTP388	ltpFR2	1	16	WAITER	1580	n/a	n/a	0	0	0
3339.1025390625	n/a	WORD	6838482	wordpools/wasnorm_wordpool_576.txt	LTP388	ltpFR2	1	16	CLIMBER	323	n/a	n/a	0	0	0
3341.91845703125	n/a	WORD	6844249	wordpools/wasnorm_wordpool_576.txt	LTP388	ltpFR2	1	16	LEADER	807	n/a	n/a	0	0	0
3344.41845703125	n/a	WORD	6849369	wordpools/wasnorm_wordpool_576.txt	LTP388	ltpFR2	1	16	WRENCH	1625	n/a	n/a	0	0	0
3346.03564453125	n/a	START	6852681	n/a	LTP388	ltpFR2	1	n/a	n/a	n/a	25	n/a	n/a	n/a	n/a
3347.1083984375	n/a	DISTRACTOR	6854878	n/a	LTP388	ltpFR2	1	16	n/a	n/a	n/a	n/a	0	0	0
3347.11865234375	n/a	PROB	6854899	n/a	LTP388	ltpFR2	1	n/a	n/a	n/a	25	13	1	4	8
3349.75048828125	n/a	PROB	6860289	n/a	LTP388	ltpFR2	1	n/a	n/a	n/a	25	21	5	9	7
3352.03515625	n/a	PROB	6864968	n/a	LTP388	ltpFR2	1	n/a	n/a	n/a	25	11	4	2	5
3353.951171875	n/a	PROB	6868892	n/a	LTP388	ltpFR2	1	n/a	n/a	n/a	25	6	2	2	2
3355.21826171875	n/a	PROB	6871487	n/a	LTP388	ltpFR2	1	n/a	n/a	n/a	25	21	8	5	8
3356.93408203125	n/a	PROB	6875001	n/a	LTP388	ltpFR2	1	n/a	n/a	n/a	25	12	9	1	2
3358.43505859375	n/a	PROB	6878075	n/a	LTP388	ltpFR2	1	n/a	n/a	n/a	25	16	8	7	1
3360.6669921875	n/a	PROB	6882646	n/a	LTP388	ltpFR2	1	n/a	n/a	n/a	25	14	1	4	9
3362.35107421875	n/a	PROB	6886095	n/a	LTP388	ltpFR2	1	n/a	n/a	n/a	25	20	8	3	9
3365.083984375	n/a	PROB	6891692	n/a	LTP388	ltpFR2	1	n/a	n/a	n/a	25	16	5	4	7
3366.8828125	n/a	PROB	6895376	n/a	LTP388	ltpFR2	1	n/a	n/a	n/a	25	13	6	6	1
3370.03466796875	n/a	STOP	6901831	n/a	LTP388	ltpFR2	1	n/a	n/a	n/a	25	n/a	n/a	n/a	n/a
3371.86669921875	n/a	REC_START	6905583	n/a	LTP388	ltpFR2	1	16	n/a	n/a	n/a	n/a	0	0	0
3372.8076171875	n/a	REC_WORD	6907510	wordpools/wasnorm_wordpool_576.txt	LTP388	ltpFR2	1	16	YACHT	1629	n/a	n/a	0	0	0
3374.22265625	n/a	REC_WORD	6910408	wordpools/wasnorm_wordpool_576.txt	LTP388	ltpFR2	1	16	TART	1436	n/a	n/a	0	0	0
3375.47265625	n/a	REC_WORD	6912968	wordpools/wasnorm_wordpool_576.txt	LTP388	ltpFR2	1	16	WAITER	1580	n/a	n/a	0	0	0
