onset	duration	trial_type	sample	stim_file	subject	experiment	session	trial	task	item_name	item_num	recog_conf	resp	color_b	color_g	color_r	case	font
280.296	n/a	SESS_START	140148	n/a	LTP288	ltpFR	17	n/a	n/a	n/a	n/a	4	n/a	n/a	n/a	n/a	n/a	n/a
296.294	n/a	WORD	148147	wordpools/wasnorm_wordpool_less_exclusions.txt	LTP288	ltpFR	17	1	0	LANDSCAPE	799	n/a	1	1	0.412841796875	0.57763671875	upper	../fonts/amplitud.ttf
300.348	n/a	WORD	150174	wordpools/wasnorm_wordpool_less_exclusions.txt	LTP288	ltpFR	17	1	0	ISLAND	745	n/a	1	1	0.412841796875	0.57763671875	upper	../fonts/amplitud.ttf
304.21	n/a	WORD	152105	wordpools/wasnorm_wordpool_less_exclusions.txt	LTP288	ltpFR	17	1	0	GRAVEL	659	n/a	0	1	0.412841796875	0.57763671875	upper	../fonts/amplitud.ttf
308.292	n/a	WORD	154146	wordpools/wasnorm_wordpool_less_exclusions.txt	LTP288	ltpFR	17	1	0	FINGERNAIL	568	n/a	0	1	0.412841796875	0.57763671875	upper	../fonts/amplitud.ttf
312.476	n/a	WORD	156238	wordpools/wasnorm_wordpool_less_exclusions.txt	LTP288	ltpFR	17	1	1	WICK	1607	n/a	0	0	0.5869140625	0.422607421875	lower	../fonts/zerothre.ttf
316.342	n/a	WORD	158171	wordpools/wasnorm_wordpool_less_exclusions.txt	LTP288	ltpFR	17	1	1	TREE	1502	n/a	0	0	0.5869140625	0.422607421875	lower	../fonts/zerothre.ttf
320.424	n/a	WORD	160212	wordpools/wasnorm_wordpool_less_exclusions.txt	LTP288	ltpFR	17	1	0	SHOELACE	1289	n/a	0	1	0.412841796875	0.57763671875	upper	../fonts/amplitud.ttf
324.422	n/a	WORD	162211	wordpools/wasnorm_wordpool_less_exclusions.txt	LTP288	ltpFR	17	1	0	BUFFALO	186	n/a	1	1	0.412841796875	0.57763671875	upper	../fonts/amplitud.ttf
328.252	n/a	WORD	164126	wordpools/wasnorm_wordpool_less_exclusions.txt	LTP288	ltpFR	17	1	1	CATTLE	261	n/a	1	0	0.5869140625	0.422607421875	lower	../fonts/zerothre.ttf
332.336	n/a	WORD	166168	wordpools/wasnorm_wordpool_less_exclusions.txt	LTP288	ltpFR	17	1	1	MITTEN	902	n/a	0	0	0.5869140625	0.422607421875	lower	../fonts/zerothre.ttf
336.402	n/a	WORD	168201	wordpools/wasnorm_wordpool_less_exclusions.txt	LTP288	ltpFR	17	1	1	CUSTOMER	430	n/a	1	0	0.5869140625	0.422607421875	lower	../fonts/zerothre.ttf
340.316	n/a	WORD	170158	wordpools/wasnorm_wordpool_less_exclusions.txt	LTP288	ltpFR	17	1	1	FOOT	590	n/a	0	0	0.5869140625	0.422607421875	lower	../fonts/zerothre.ttf
344.432	n/a	WORD	172216	wordpools/wasnorm_wordpool_less_exclusions.txt	LTP288	ltpFR	17	1	1	MERMAID	887	n/a	1	0	0.5869140625	0.422607421875	lower	../fonts/zerothre.ttf
348.498	n/a	WORD	174249	wordpools/wasnorm_wordpool_less_exclusions.txt	LTP288	ltpFR	17	1	1	ORNAMENT	985	n/a	0	0	0.5869140625	0.422607421875	lower	../fonts/zerothre.ttf
352.362	n/a	WORD	176181	wordpools/wasnorm_wordpool_less_exclusions.txt	LTP288	ltpFR	17	1	0	MARS	873	n/a	1	1	0.412841796875	0.57763671875	upper	../fonts/amplitud.ttf
356.24	n/a	WORD	178120	wordpools/wasnorm_wordpool_less_exclusions.txt	LTP288	ltpFR	17	1	0	VENUS	1557	n/a	1	1	0.412841796875	0.57763671875	upper	../fonts/amplitud.ttf
362.084	n/a	REC_START	181042	n/a	LTP288	ltpFR	17	1	n/a	n/a	n/a	n/a	n/a	n/a	n/a	n/a	n/a	n/a
362.86	n/a	REC_WORD	181430	wordpools/wasnorm_wordpool_less_exclusions.txt	LTP288	ltpFR	17	1	0	MARS	873	n/a	1	n/a	n/a	n/a	n/a	n/a
363.48	n/a	REC_WORD	181740	wordpools/wasnorm_wordpool_less_exclusions.txt	LTP288	ltpFR	17	1	0	VENUS	1557	n/a	1	n/a	n/a	n/a	n/a	n/a
364.186	n/a	REC_WORD	182093	wordpools/wasnorm_wordpool_less_exclusions.txt	LTP288	ltpFR	17	1	1	MERMAID	887	n/a	1	n/a	n/a	n/a	n/a	n/a
364.848	n/a	REC_WORD	182424	wordpools/wasnorm_wordpool_less_exclusions.txt	LTP288	ltpFR	17	1	1	ORNAMENT	985	n/a	0	n/a	n/a	n/a	n/a	n/a
365.54	n/a	REC_WORD	182770	wordpools/wasnorm_wordpool_less_exclusions.txt	LTP288	ltpFR	17	1	1	CATTLE	261	n/a	1	n/a	n/a	n/a	n/a	n/a
366.116	n/a	REC_WORD	183058	wordpools/wasnorm_wordpool_less_exclusions.txt	LTP288	ltpFR	17	1	1	MITTEN	902	n/a	0	n/a	n/a	n/a	n/a	n/a
367.108	n/a	REC_WORD	183554	wordpools/wasnorm_wordpool_less_exclusions.txt	LTP288	ltpFR	17	1	1	CUSTOMER	430	n/a	1	n/a	n/a	n/a	n/a	n/a
367.728	n/a	REC_WORD	183864	wordpools/wasnorm_wordpool_less_exclusions.txt	LTP288	ltpFR	17	1	1	FOOT	590	n/a	0	n/a	n/a	n/a	n/a	n/a
368.666	n/a	REC_WORD	184333	wordpools/wasnorm_wordpool_less_exclusions.txt	LTP288	ltpFR	17	1	0	BUFFALO	186	n/a	1	n/a	n/a	n/a	n/a	n/a
369.232	n/a	REC_WORD	184616	wordpools/wasnorm_wordpool_less_exclusions.txt	LTP288	ltpFR	17	1	0	SHOELACE	1289	n/a	0	n/a	n/a	n/a	n/a	n/a
371.934	n/a	REC_WORD	185967	wordpools/wasnorm_wordpool_less_exclusions.txt	LTP288	ltpFR	17	1	1	TREE	1502	n/a	0	n/a	n/a	n/a	n/a	n/a
372.722	n/a	REC_WORD	186361	wordpools/wasnorm_wordpool_less_exclusions.txt	LTP288	ltpFR	17	1	1	WICK	1607	n/a	0	n/a	n/a	n/a	n/a	n/a
374.676	n/a	REC_WORD	187338	wordpools/wasnorm_wordpool_less_exclusions.txt	LTP288	ltpFR	17	1	0	ISLAND	745	n/a	1	n/a	n/a	n/a	n/a	n/a
375.392	n/a	REC_WORD	187696	wordpools/wasnorm_wordpool_less_exclusions.txt	LTP288	ltpFR	17	1	0	LANDSCAPE	799	n/a	1	n/a	n/a	n/a	n/a	n/a
380.998	n/a	REC_WORD	190499	wordpools/wasnorm_wordpool_less_exclusions.txt	LTP288	ltpFR	17	1	0	GRAVEL	659	n/a	0	n/a	n/a	n/a	n/a	n/a
381.496	n/a	REC_WORD	190748	wordpools/wasnorm_wordpool_less_exclusions.txt	LTP288	ltpFR	17	1	0	FINGERNAIL	568	n/a	0	n/a	n/a	n/a	n/a	n/a
439.83	n/a	WORD	219915	wordpools/wasnorm_wordpool_less_exclusions.txt	LTP288	ltpFR	17	2	1	CURTAIN	427	n/a	0	0	0.5869140625	0.422607421875	lower	../fonts/zerothre.ttf
443.79	n/a	WORD	221895	wordpools/wasnorm_wordpool_less_exclusions.txt	LTP288	ltpFR	17	2	1	CABINET	212	n/a	0	0	0.5869140625	0.422607421875	lower	../fonts/zerothre.ttf
447.728	n/a	WORD	223864	wordpools/wasnorm_wordpool_less_exclusions.txt	LTP288	ltpFR	17	2	1	COUNTRY	388	n/a	1	0	0.5869140625	0.422607421875	lower	../fonts/zerothre.ttf
451.892	n/a	WORD	225946	wordpools/wasnorm_wordpool_less_exclusions.txt	LTP288	ltpFR	17	2	0	DOUGHNUT	490	n/a	0	1	0.412841796875	0.57763671875	upper	../fonts/amplitud.ttf
455.842	n/a	WORD	227921	wordpools/wasnorm_wordpool_less_exclusions.txt	LTP288	ltpFR	17	2	0	MOTHER	921	n/a	1	1	0.412841796875	0.57763671875	upper	../fonts/amplitud.ttf
459.974	n/a	WORD	229987	wordpools/wasnorm_wordpool_less_exclusions.txt	LTP288	ltpFR	17	2	0	MAJOR	859	n/a	1	1	0.412841796875	0.57763671875	upper	../fonts/amplitud.ttf
464.088	n/a	WORD	232044	wordpools/wasnorm_wordpool_less_exclusions.txt	LTP288	ltpFR	17	2	0	PARENT	1013	n/a	1	1	0.412841796875	0.57763671875	upper	../fonts/amplitud.ttf
468.172	n/a	WORD	234086	wordpools/wasnorm_wordpool_less_exclusions.txt	LTP288	ltpFR	17	2	0	BLUEBERRY	140	n/a	0	1	0.412841796875	0.57763671875	upper	../fonts/amplitud.ttf
472.216	n/a	WORD	236108	wordpools/wasnorm_wordpool_less_exclusions.txt	LTP288	ltpFR	17	2	0	SLACKS	1323	n/a	0	1	0.412841796875	0.57763671875	upper	../fonts/amplitud.ttf
476.086	n/a	WORD	238043	wordpools/wasnorm_wordpool_less_exclusions.txt	LTP288	ltpFR	17	2	1	CHEERLEADER	288	n/a	1	0	0.5869140625	0.422607421875	lower	../fonts/zerothre.ttf
480.062	n/a	WORD	240031	wordpools/wasnorm_wordpool_less_exclusions.txt	LTP288	ltpFR	17	2	1	EUROPE	541	n/a	1	0	0.5869140625	0.422607421875	lower	../fonts/zerothre.ttf
484.016	n/a	WORD	242008	wordpools/wasnorm_wordpool_less_exclusions.txt	LTP288	ltpFR	17	2	1	NECKLACE	940	n/a	0	0	0.5869140625	0.422607421875	lower	../fonts/zerothre.ttf
488.028	n/a	WORD	244014	wordpools/wasnorm_wordpool_less_exclusions.txt	LTP288	ltpFR	17	2	1	RING	1193	n/a	0	0	0.5869140625	0.422607421875	lower	../fonts/zerothre.ttf
492.146	n/a	WORD	246073	wordpools/wasnorm_wordpool_less_exclusions.txt	LTP288	ltpFR	17	2	1	COMET	353	n/a	1	0	0.5869140625	0.422607421875	lower	../fonts/zerothre.ttf
496.162	n/a	WORD	248081	wordpools/wasnorm_wordpool_less_exclusions.txt	LTP288	ltpFR	17	2	0	SPACE	1345	n/a	1	1	0.412841796875	0.57763671875	upper	../fonts/amplitud.ttf
500.378	n/a	WORD	250189	wordpools/wasnorm_wordpool_less_exclusions.txt	LTP288	ltpFR	17	2	0	SHUTTER	1300	n/a	1	1	0.412841796875	0.57763671875	upper	../fonts/amplitud.ttf
506.168	n/a	REC_START	253084	n/a	LTP288	ltpFR	17	2	n/a	n/a	n/a	n/a	n/a	n/a	n/a	n/a	n/a	n/a
506.434	n/a	REC_WORD	253217	wordpools/wasnorm_wordpool_less_exclusions.txt	LTP288	ltpFR	17	2	0	SPACE	1345	n/a	1	n/a	n/a	n/a	n/a	n/a
507.102	n/a	REC_WORD	253551	wordpools/wasnorm_wordpool_less_exclusions.txt	LTP288	ltpFR	17	2	0	SHUTTER	1300	n/a	1	n/a	n/a	n/a	n/a	n/a
507.716	n/a	REC_WORD	253858	wordpools/wasnorm_wordpool_less_exclusions.txt	LTP288	ltpFR	17	2	1	COMET	353	n/a	1	n/a	n/a	n/a	n/a	n/a
508.25	n/a	REC_WORD	254125	wordpools/wasnorm_wordpool_less_exclusions.txt	LTP288	ltpFR	17	2	1	RING	1193	n/a	0	n/a	n/a	n/a	n/a	n/a
508.904	n/a	REC_WORD	254452	wordpools/wasnorm_wordpool_less_exclusions.txt	LTP288	ltpFR	17	2	1	NECKLACE	940	n/a	0	n/a	n/a	n/a	n/a	n/a
509.512	n/a	REC_WORD	254756	wordpools/wasnorm_wordpool_less_exclusions.txt	LTP288	ltpFR	17	2	1	EUROPE	541	n/a	1	n/a	n/a	n/a	n/a	n/a
511.5	n/a	REC_WORD	255750	wordpools/wasnorm_wordpool_less_exclusions.txt	LTP288	ltpFR	17	2	1	COUNTRY	388	n/a	1	n/a	n/a	n/a	n/a	n/a
512.26	n/a	REC_WORD	256130	wordpools/wasnorm_wordpool_less_exclusions.txt	LTP288	ltpFR	17	2	0	DOUGHNUT	490	n/a	0	n/a	n/a	n/a	n/a	n/a
512.84	n/a	REC_WORD	256420	wordpools/wasnorm_wordpool_less_exclusions.txt	LTP288	ltpFR	17	2	1	CURTAIN	427	n/a	0	n/a	n/a	n/a	n/a	n/a
513.38	n/a	REC_WORD	256690	wordpools/wasnorm_wordpool_less_exclusions.txt	LTP288	ltpFR	17	2	1	CABINET	212	n/a	0	n/a	n/a	n/a	n/a	n/a
523.71	n/a	REC_WORD	261855	wordpools/wasnorm_wordpool_less_exclusions.txt	LTP288	ltpFR	17	2	0	MOTHER	921	n/a	1	n/a	n/a	n/a	n/a	n/a
525.67	n/a	REC_WORD	262835	wordpools/wasnorm_wordpool_less_exclusions.txt	LTP288	ltpFR	17	2	0	MAJOR	859	n/a	1	n/a	n/a	n/a	n/a	n/a
526.9	n/a	REC_WORD	263450	wordpools/wasnorm_wordpool_less_exclusions.txt	LTP288	ltpFR	17	2	0	PARENT	1013	n/a	1	n/a	n/a	n/a	n/a	n/a
527.53	n/a	REC_WORD	263765	wordpools/wasnorm_wordpool_less_exclusions.txt	LTP288	ltpFR	17	2	0	BLUEBERRY	140	n/a	0	n/a	n/a	n/a	n/a	n/a
534.304	n/a	REC_WORD	267152	wordpools/wasnorm_wordpool_less_exclusions.txt	LTP288	ltpFR	17	2	1	CHEERLEADER	288	n/a	1	n/a	n/a	n/a	n/a	n/a
534.826	n/a	REC_WORD	267413	wordpools/wasnorm_wordpool_less_exclusions.txt	LTP288	ltpFR	17	2	0	SLACKS	1323	n/a	0	n/a	n/a	n/a	n/a	n/a
584.26	n/a	WORD	292130	wordpools/wasnorm_wordpool_less_exclusions.txt	LTP288	ltpFR	17	3	0	DINNER	468	n/a	1	1	0.412841796875	0.57763671875	upper	../fonts/amplitud.ttf
588.41	n/a	WORD	294205	wordpools/wasnorm_wordpool_less_exclusions.txt	LTP288	ltpFR	17	3	0	CAFE	216	n/a	1	1	0.412841796875	0.57763671875	upper	../fonts/amplitud.ttf
592.312	n/a	WORD	296156	wordpools/wasnorm_wordpool_less_exclusions.txt	LTP288	ltpFR	17	3	0	KITE	779	n/a	0	1	0.412841796875	0.57763671875	upper	../fonts/amplitud.ttf
596.328	n/a	WORD	298164	wordpools/wasnorm_wordpool_less_exclusions.txt	LTP288	ltpFR	17	3	0	SWATTER	1418	n/a	0	1	0.412841796875	0.57763671875	upper	../fonts/amplitud.ttf
600.204	n/a	WORD	300102	wordpools/wasnorm_wordpool_less_exclusions.txt	LTP288	ltpFR	17	3	0	KLEENEX	782	n/a	0	1	0.412841796875	0.57763671875	upper	../fonts/amplitud.ttf
604.142	n/a	WORD	302071	wordpools/wasnorm_wordpool_less_exclusions.txt	LTP288	ltpFR	17	3	0	BAY	102	n/a	1	1	0.412841796875	0.57763671875	upper	../fonts/amplitud.ttf
608.006	n/a	WORD	304003	wordpools/wasnorm_wordpool_less_exclusions.txt	LTP288	ltpFR	17	3	0	TRACTOR	1493	n/a	1	1	0.412841796875	0.57763671875	upper	../fonts/amplitud.ttf
612.072	n/a	WORD	306036	wordpools/wasnorm_wordpool_less_exclusions.txt	LTP288	ltpFR	17	3	0	LODGE	839	n/a	1	1	0.412841796875	0.57763671875	upper	../fonts/amplitud.ttf
615.936	n/a	WORD	307968	wordpools/wasnorm_wordpool_less_exclusions.txt	LTP288	ltpFR	17	3	0	TRUCK	1512	n/a	1	1	0.412841796875	0.57763671875	upper	../fonts/amplitud.ttf
619.948	n/a	WORD	309974	wordpools/wasnorm_wordpool_less_exclusions.txt	LTP288	ltpFR	17	3	0	NOMAD	955	n/a	1	1	0.412841796875	0.57763671875	upper	../fonts/amplitud.ttf
624.068	n/a	WORD	312034	wordpools/wasnorm_wordpool_less_exclusions.txt	LTP288	ltpFR	17	3	0	DAM	436	n/a	1	1	0.412841796875	0.57763671875	upper	../fonts/amplitud.ttf
628.282	n/a	WORD	314141	wordpools/wasnorm_wordpool_less_exclusions.txt	LTP288	ltpFR	17	3	0	CUBE	420	n/a	1	1	0.412841796875	0.57763671875	upper	../fonts/amplitud.ttf
632.398	n/a	WORD	316199	wordpools/wasnorm_wordpool_less_exclusions.txt	LTP288	ltpFR	17	3	0	YOLK	1633	n/a	0	1	0.412841796875	0.57763671875	upper	../fonts/amplitud.ttf
636.432	n/a	WORD	318216	wordpools/wasnorm_wordpool_less_exclusions.txt	LTP288	ltpFR	17	3	0	CART	250	n/a	1	1	0.412841796875	0.57763671875	upper	../fonts/amplitud.ttf
640.53	n/a	WORD	320265	wordpools/wasnorm_wordpool_less_exclusions.txt	LTP288	ltpFR	17	3	0	SUBWAY	1400	n/a	1	1	0.412841796875	0.57763671875	upper	../fonts/amplitud.ttf
644.712	n/a	WORD	322356	wordpools/wasnorm_wordpool_less_exclusions.txt	LTP288	ltpFR	17	3	0	WINDSHIELD	1612	n/a	1	1	0.412841796875	0.57763671875	upper	../fonts/amplitud.ttf
650.732	n/a	REC_START	325366	n/a	LTP288	ltpFR	17	3	n/a	n/a	n/a	n/a	n/a	n/a	n/a	n/a	n/a	n/a
651.13	n/a	REC_WORD	325565	wordpools/wasnorm_wordpool_less_exclusions.txt	LTP288	ltpFR	17	3	0	SUBWAY	1400	n/a	1	n/a	n/a	n/a	n/a	n/a
651.87	n/a	REC_WORD	325935	wordpools/wasnorm_wordpool_less_exclusions.txt	LTP288	ltpFR	17	3	0	WINDSHIELD	1612	n/a	1	n/a	n/a	n/a	n/a	n/a
652.798	n/a	REC_WORD	326399	wordpools/wasnorm_wordpool_less_exclusions.txt	LTP288	ltpFR	17	3	0	YOLK	1633	n/a	0	n/a	n/a	n/a	n/a	n/a
653.326	n/a	REC_WORD	326663	wordpools/wasnorm_wordpool_less_exclusions.txt	LTP288	ltpFR	17	3	0	CART	250	n/a	1	n/a	n/a	n/a	n/a	n/a
653.89	n/a	REC_WORD	326945	wordpools/wasnorm_wordpool_less_exclusions.txt	LTP288	ltpFR	17	3	0	NOMAD	955	n/a	1	n/a	n/a	n/a	n/a	n/a
654.672	n/a	REC_WORD	327336	wordpools/wasnorm_wordpool_less_exclusions.txt	LTP288	ltpFR	17	3	0	TRUCK	1512	n/a	1	n/a	n/a	n/a	n/a	n/a
656.65	n/a	REC_WORD	328325	wordpools/wasnorm_wordpool_less_exclusions.txt	LTP288	ltpFR	17	3	0	KITE	779	n/a	0	n/a	n/a	n/a	n/a	n/a
657.206	n/a	REC_WORD	328603	wordpools/wasnorm_wordpool_less_exclusions.txt	LTP288	ltpFR	17	3	0	SWATTER	1418	n/a	0	n/a	n/a	n/a	n/a	n/a
668.78	n/a	REC_WORD	334390	wordpools/wasnorm_wordpool_less_exclusions.txt	LTP288	ltpFR	17	3	0	KLEENEX	782	n/a	0	n/a	n/a	n/a	n/a	n/a
671.654	n/a	REC_WORD	335827	wordpools/wasnorm_wordpool_less_exclusions.txt	LTP288	ltpFR	17	3	0	BAY	102	n/a	1	n/a	n/a	n/a	n/a	n/a
712.97	n/a	REC_WORD	356485	wordpools/wasnorm_wordpool_less_exclusions.txt	LTP288	ltpFR	17	3	0	DAM	436	n/a	1	n/a	n/a	n/a	n/a	n/a
713.66	n/a	REC_WORD	356830	wordpools/wasnorm_wordpool_less_exclusions.txt	LTP288	ltpFR	17	3	0	CUBE	420	n/a	1	n/a	n/a	n/a	n/a	n/a
728.276	n/a	WORD	364138	wordpools/wasnorm_wordpool_less_exclusions.txt	LTP288	ltpFR	17	4	0	WHISTLE	1606	n/a	0	1	0.412841796875	0.57763671875	upper	../fonts/amplitud.ttf
732.448	n/a	WORD	366224	wordpools/wasnorm_wordpool_less_exclusions.txt	LTP288	ltpFR	17	4	0	DETECTIVE	454	n/a	1	1	0.412841796875	0.57763671875	upper	../fonts/amplitud.ttf
736.464	n/a	WORD	368232	wordpools/wasnorm_wordpool_less_exclusions.txt	LTP288	ltpFR	17	4	0	TUNA	1518	n/a	1	1	0.412841796875	0.57763671875	upper	../fonts/amplitud.ttf
740.58	n/a	WORD	370290	wordpools/wasnorm_wordpool_less_exclusions.txt	LTP288	ltpFR	17	4	0	WALRUS	1585	n/a	1	1	0.412841796875	0.57763671875	upper	../fonts/amplitud.ttf
744.506	n/a	WORD	372253	wordpools/wasnorm_wordpool_less_exclusions.txt	LTP288	ltpFR	17	4	1	ELECTRON	522	n/a	2	0	0.5869140625	0.422607421875	lower	../fonts/zerothre.ttf
745.112	n/a	KEY_MSG	372556	n/a	LTP288	ltpFR	17	4	n/a	n/a	n/a	n/a	n/a	n/a	n/a	n/a	n/a	n/a
748.46	n/a	WORD	374230	wordpools/wasnorm_wordpool_less_exclusions.txt	LTP288	ltpFR	17	4	1	BADGE	68	n/a	1	0	0.5869140625	0.422607421875	lower	../fonts/zerothre.ttf
752.424	n/a	WORD	376212	wordpools/wasnorm_wordpool_less_exclusions.txt	LTP288	ltpFR	17	4	1	FUR	615	n/a	0	0	0.5869140625	0.422607421875	lower	../fonts/zerothre.ttf
756.506	n/a	WORD	378253	wordpools/wasnorm_wordpool_less_exclusions.txt	LTP288	ltpFR	17	4	1	DANDRUFF	439	n/a	0	0	0.5869140625	0.422607421875	lower	../fonts/zerothre.ttf
760.372	n/a	WORD	380186	wordpools/wasnorm_wordpool_less_exclusions.txt	LTP288	ltpFR	17	4	1	TUBA	1515	n/a	0	0	0.5869140625	0.422607421875	lower	../fonts/zerothre.ttf
764.354	n/a	WORD	382177	wordpools/wasnorm_wordpool_less_exclusions.txt	LTP288	ltpFR	17	4	1	FOX	598	n/a	0	0	0.5869140625	0.422607421875	lower	../fonts/zerothre.ttf
768.554	n/a	WORD	384277	wordpools/wasnorm_wordpool_less_exclusions.txt	LTP288	ltpFR	17	4	0	PIER	1063	n/a	1	1	0.412841796875	0.57763671875	upper	../fonts/amplitud.ttf
772.686	n/a	WORD	386343	wordpools/wasnorm_wordpool_less_exclusions.txt	LTP288	ltpFR	17	4	0	MARINE	869	n/a	1	1	0.412841796875	0.57763671875	upper	../fonts/amplitud.ttf
776.516	n/a	WORD	388258	wordpools/wasnorm_wordpool_less_exclusions.txt	LTP288	ltpFR	17	4	0	SALESMAN	1225	n/a	1	1	0.412841796875	0.57763671875	upper	../fonts/amplitud.ttf
780.548	n/a	WORD	390274	wordpools/wasnorm_wordpool_less_exclusions.txt	LTP288	ltpFR	17	4	0	BANK	83	n/a	1	1	0.412841796875	0.57763671875	upper	../fonts/amplitud.ttf
784.698	n/a	WORD	392349	wordpools/wasnorm_wordpool_less_exclusions.txt	LTP288	ltpFR	17	4	1	DOCK	477	n/a	0	0	0.5869140625	0.422607421875	lower	../fonts/zerothre.ttf
788.58	n/a	WORD	394290	wordpools/wasnorm_wordpool_less_exclusions.txt	LTP288	ltpFR	17	4	1	ANCHOR	21	n/a	0	0	0.5869140625	0.422607421875	lower	../fonts/zerothre.ttf
794.302	n/a	REC_START	397151	n/a	LTP288	ltpFR	17	4	n/a	n/a	n/a	n/a	n/a	n/a	n/a	n/a	n/a	n/a
795.092	n/a	REC_WORD	397546	wordpools/wasnorm_wordpool_less_exclusions.txt	LTP288	ltpFR	17	4	1	DOCK	477	n/a	0	n/a	n/a	n/a	n/a	n/a
795.762	n/a	REC_WORD	397881	wordpools/wasnorm_wordpool_less_exclusions.txt	LTP288	ltpFR	17	4	1	ANCHOR	21	n/a	0	n/a	n/a	n/a	n/a	n/a
796.588	n/a	REC_WORD	398294	wordpools/wasnorm_wordpool_less_exclusions.txt	LTP288	ltpFR	17	4	1	TUBA	1515	n/a	0	n/a	n/a	n/a	n/a	n/a
797.112	n/a	REC_WORD	398556	wordpools/wasnorm_wordpool_less_exclusions.txt	LTP288	ltpFR	17	4	1	FOX	598	n/a	0	n/a	n/a	n/a	n/a	n/a
797.944	n/a	REC_WORD	398972	wordpools/wasnorm_wordpool_less_exclusions.txt	LTP288	ltpFR	17	4	0	PIER	1063	n/a	1	n/a	n/a	n/a	n/a	n/a
798.41	n/a	REC_WORD	399205	wordpools/wasnorm_wordpool_less_exclusions.txt	LTP288	ltpFR	17	4	0	MARINE	869	n/a	1	n/a	n/a	n/a	n/a	n/a
800.246	n/a	REC_WORD	400123	wordpools/wasnorm_wordpool_less_exclusions.txt	LTP288	ltpFR	17	4	1	ELECTRON	522	n/a	2	n/a	n/a	n/a	n/a	n/a
801.13	n/a	REC_WORD	400565	wordpools/wasnorm_wordpool_less_exclusions.txt	LTP288	ltpFR	17	4	1	BADGE	68	n/a	1	n/a	n/a	n/a	n/a	n/a
801.884	n/a	REC_WORD	400942	wordpools/wasnorm_wordpool_less_exclusions.txt	LTP288	ltpFR	17	4	0	WALRUS	1585	n/a	1	n/a	n/a	n/a	n/a	n/a
802.754	n/a	REC_WORD	401377	wordpools/wasnorm_wordpool_less_exclusions.txt	LTP288	ltpFR	17	4	0	TUNA	1518	n/a	1	n/a	n/a	n/a	n/a	n/a
843.052	n/a	REC_WORD	421526	wordpools/wasnorm_wordpool_less_exclusions.txt	LTP288	ltpFR	17	4	0	SALESMAN	1225	n/a	1	n/a	n/a	n/a	n/a	n/a
844.002	n/a	REC_WORD	422001	wordpools/wasnorm_wordpool_less_exclusions.txt	LTP288	ltpFR	17	4	0	BANK	83	n/a	1	n/a	n/a	n/a	n/a	n/a
872.4	n/a	WORD	436200	wordpools/wasnorm_wordpool_less_exclusions.txt	LTP288	ltpFR	17	5	-1	LAKE	796	n/a	-1	1	1.0	1.0	upper	../fonts/Verdana.ttf
876.466	n/a	WORD	438233	wordpools/wasnorm_wordpool_less_exclusions.txt	LTP288	ltpFR	17	5	-1	RADIATOR	1156	n/a	-1	1	1.0	1.0	upper	../fonts/Verdana.ttf
880.648	n/a	WORD	440324	wordpools/wasnorm_wordpool_less_exclusions.txt	LTP288	ltpFR	17	5	-1	UNCLE	1536	n/a	-1	1	1.0	1.0	upper	../fonts/Verdana.ttf
884.764	n/a	WORD	442382	wordpools/wasnorm_wordpool_less_exclusions.txt	LTP288	ltpFR	17	5	-1	FAMILY	550	n/a	-1	1	1.0	1.0	upper	../fonts/Verdana.ttf
888.596	n/a	WORD	444298	wordpools/wasnorm_wordpool_less_exclusions.txt	LTP288	ltpFR	17	5	-1	JUG	762	n/a	-1	1	1.0	1.0	upper	../fonts/Verdana.ttf
892.46	n/a	WORD	446230	wordpools/wasnorm_wordpool_less_exclusions.txt	LTP288	ltpFR	17	5	-1	THREAD	1460	n/a	-1	1	1.0	1.0	upper	../fonts/Verdana.ttf
896.34	n/a	WORD	448170	wordpools/wasnorm_wordpool_less_exclusions.txt	LTP288	ltpFR	17	5	-1	LAPEL	800	n/a	-1	1	1.0	1.0	upper	../fonts/Verdana.ttf
900.206	n/a	WORD	450103	wordpools/wasnorm_wordpool_less_exclusions.txt	LTP288	ltpFR	17	5	-1	TOWER	1490	n/a	-1	1	1.0	1.0	upper	../fonts/Verdana.ttf
904.15	n/a	WORD	452075	wordpools/wasnorm_wordpool_less_exclusions.txt	LTP288	ltpFR	17	5	-1	CREEK	404	n/a	-1	1	1.0	1.0	upper	../fonts/Verdana.ttf
908.35	n/a	WORD	454175	wordpools/wasnorm_wordpool_less_exclusions.txt	LTP288	ltpFR	17	5	-1	ENGINE	535	n/a	-1	1	1.0	1.0	upper	../fonts/Verdana.ttf
912.554	n/a	WORD	456277	wordpools/wasnorm_wordpool_less_exclusions.txt	LTP288	ltpFR	17	5	-1	WHISKERS	1605	n/a	-1	1	1.0	1.0	upper	../fonts/Verdana.ttf
916.668	n/a	WORD	458334	wordpools/wasnorm_wordpool_less_exclusions.txt	LTP288	ltpFR	17	5	-1	ATTIRE	57	n/a	-1	1	1.0	1.0	upper	../fonts/Verdana.ttf
920.534	n/a	WORD	460267	wordpools/wasnorm_wordpool_less_exclusions.txt	LTP288	ltpFR	17	5	-1	FIG	563	n/a	-1	1	1.0	1.0	upper	../fonts/Verdana.ttf
924.6	n/a	WORD	462300	wordpools/wasnorm_wordpool_less_exclusions.txt	LTP288	ltpFR	17	5	-1	TWIG	1527	n/a	-1	1	1.0	1.0	upper	../fonts/Verdana.ttf
928.762	n/a	WORD	464381	wordpools/wasnorm_wordpool_less_exclusions.txt	LTP288	ltpFR	17	5	-1	MOWER	928	n/a	-1	1	1.0	1.0	upper	../fonts/Verdana.ttf
932.83	n/a	WORD	466415	wordpools/wasnorm_wordpool_less_exclusions.txt	LTP288	ltpFR	17	5	-1	ROSE	1212	n/a	-1	1	1.0	1.0	upper	../fonts/Verdana.ttf
938.504	n/a	REC_START	469252	n/a	LTP288	ltpFR	17	5	n/a	n/a	n/a	n/a	n/a	n/a	n/a	n/a	n/a	n/a
938.846	n/a	REC_WORD	469423	wordpools/wasnorm_wordpool_less_exclusions.txt	LTP288	ltpFR	17	5	-1	MOWER	928	n/a	-1	n/a	n/a	n/a	n/a	n/a
939.494	n/a	REC_WORD	469747	wordpools/wasnorm_wordpool_less_exclusions.txt	LTP288	ltpFR	17	5	-1	ROSE	1212	n/a	-1	n/a	n/a	n/a	n/a	n/a
940.062	n/a	REC_WORD	470031	wordpools/wasnorm_wordpool_less_exclusions.txt	LTP288	ltpFR	17	5	-1	FIG	563	n/a	-1	n/a	n/a	n/a	n/a	n/a
940.692	n/a	REC_WORD	470346	wordpools/wasnorm_wordpool_less_exclusions.txt	LTP288	ltpFR	17	5	-1	TWIG	1527	n/a	-1	n/a	n/a	n/a	n/a	n/a
941.412	n/a	REC_WORD	470706	wordpools/wasnorm_wordpool_less_exclusions.txt	LTP288	ltpFR	17	5	-1	ATTIRE	57	n/a	-1	n/a	n/a	n/a	n/a	n/a
942.222	n/a	REC_WORD	471111	wordpools/wasnorm_wordpool_less_exclusions.txt	LTP288	ltpFR	17	5	-1	WHISKERS	1605	n/a	-1	n/a	n/a	n/a	n/a	n/a
942.862	n/a	REC_WORD	471431	wordpools/wasnorm_wordpool_less_exclusions.txt	LTP288	ltpFR	17	5	-1	LAPEL	800	n/a	-1	n/a	n/a	n/a	n/a	n/a
943.654	n/a	REC_WORD	471827	wordpools/wasnorm_wordpool_less_exclusions.txt	LTP288	ltpFR	17	5	-1	TOWER	1490	n/a	-1	n/a	n/a	n/a	n/a	n/a
944.732	n/a	REC_WORD	472366	wordpools/wasnorm_wordpool_less_exclusions.txt	LTP288	ltpFR	17	5	-1	CREEK	404	n/a	-1	n/a	n/a	n/a	n/a	n/a
945.458	n/a	REC_WORD	472729	wordpools/wasnorm_wordpool_less_exclusions.txt	LTP288	ltpFR	17	5	-1	ENGINE	535	n/a	-1	n/a	n/a	n/a	n/a	n/a
947.864	n/a	REC_WORD	473932	wordpools/wasnorm_wordpool_less_exclusions.txt	LTP288	ltpFR	17	5	-1	RADIATOR	1156	n/a	-1	n/a	n/a	n/a	n/a	n/a
948.974	n/a	REC_WORD	474487	wordpools/wasnorm_wordpool_less_exclusions.txt	LTP288	ltpFR	17	5	-1	LAKE	796	n/a	-1	n/a	n/a	n/a	n/a	n/a
949.632	n/a	REC_WORD	474816	wordpools/wasnorm_wordpool_less_exclusions.txt	LTP288	ltpFR	17	5	-1	UNCLE	1536	n/a	-1	n/a	n/a	n/a	n/a	n/a
950.254	n/a	REC_WORD	475127	wordpools/wasnorm_wordpool_less_exclusions.txt	LTP288	ltpFR	17	5	-1	FAMILY	550	n/a	-1	n/a	n/a	n/a	n/a	n/a
1016.15	n/a	WORD	508075	wordpools/wasnorm_wordpool_less_exclusions.txt	LTP288	ltpFR	17	6	-1	STONE	1385	n/a	-1	1	1.0	1.0	upper	../fonts/Verdana.ttf
1019.998	n/a	WORD	509999	wordpools/wasnorm_wordpool_less_exclusions.txt	LTP288	ltpFR	17	6	-1	OVAL	990	n/a	-1	1	1.0	1.0	upper	../fonts/Verdana.ttf
1024.08	n/a	WORD	512040	wordpools/wasnorm_wordpool_less_exclusions.txt	LTP288	ltpFR	17	6	-1	COOLER	375	n/a	-1	1	1.0	1.0	upper	../fonts/Verdana.ttf
1028.128	n/a	WORD	514064	wordpools/wasnorm_wordpool_less_exclusions.txt	LTP288	ltpFR	17	6	-1	SAXOPHONE	1240	n/a	-1	1	1.0	1.0	upper	../fonts/Verdana.ttf
1032.124	n/a	WORD	516062	wordpools/wasnorm_wordpool_less_exclusions.txt	LTP288	ltpFR	17	6	-1	FUDGE	611	n/a	-1	1	1.0	1.0	upper	../fonts/Verdana.ttf
1036.292	n/a	WORD	518146	wordpools/wasnorm_wordpool_less_exclusions.txt	LTP288	ltpFR	17	6	-1	SCOUT	1252	n/a	-1	1	1.0	1.0	upper	../fonts/Verdana.ttf
1040.324	n/a	WORD	520162	wordpools/wasnorm_wordpool_less_exclusions.txt	LTP288	ltpFR	17	6	-1	COUNTY	389	n/a	-1	1	1.0	1.0	upper	../fonts/Verdana.ttf
1044.374	n/a	WORD	522187	wordpools/wasnorm_wordpool_less_exclusions.txt	LTP288	ltpFR	17	6	-1	FIDDLE	561	n/a	-1	1	1.0	1.0	upper	../fonts/Verdana.ttf
1048.488	n/a	WORD	524244	wordpools/wasnorm_wordpool_less_exclusions.txt	LTP288	ltpFR	17	6	-1	BANQUET	86	n/a	-1	1	1.0	1.0	upper	../fonts/Verdana.ttf
1052.418	n/a	WORD	526209	wordpools/wasnorm_wordpool_less_exclusions.txt	LTP288	ltpFR	17	6	-1	PLATE	1086	n/a	-1	1	1.0	1.0	upper	../fonts/Verdana.ttf
1056.52	n/a	WORD	528260	wordpools/wasnorm_wordpool_less_exclusions.txt	LTP288	ltpFR	17	6	-1	RUM	1217	n/a	-1	1	1.0	1.0	upper	../fonts/Verdana.ttf
1060.602	n/a	WORD	530301	wordpools/wasnorm_wordpool_less_exclusions.txt	LTP288	ltpFR	17	6	-1	PAN	1008	n/a	-1	1	1.0	1.0	upper	../fonts/Verdana.ttf
1064.614	n/a	WORD	532307	wordpools/wasnorm_wordpool_less_exclusions.txt	LTP288	ltpFR	17	6	-1	MOAT	903	n/a	-1	1	1.0	1.0	upper	../fonts/Verdana.ttf
1068.682	n/a	WORD	534341	wordpools/wasnorm_wordpool_less_exclusions.txt	LTP288	ltpFR	17	6	-1	SEA	1259	n/a	-1	1	1.0	1.0	upper	../fonts/Verdana.ttf
1072.8	n/a	WORD	536400	wordpools/wasnorm_wordpool_less_exclusions.txt	LTP288	ltpFR	17	6	-1	LAVA	804	n/a	-1	1	1.0	1.0	upper	../fonts/Verdana.ttf
1076.982	n/a	WORD	538491	wordpools/wasnorm_wordpool_less_exclusions.txt	LTP288	ltpFR	17	6	-1	HEATER	698	n/a	-1	1	1.0	1.0	upper	../fonts/Verdana.ttf
1082.884	n/a	REC_START	541442	n/a	LTP288	ltpFR	17	6	n/a	n/a	n/a	n/a	n/a	n/a	n/a	n/a	n/a	n/a
1083.23	n/a	REC_WORD	541615	wordpools/wasnorm_wordpool_less_exclusions.txt	LTP288	ltpFR	17	6	-1	LAVA	804	n/a	-1	n/a	n/a	n/a	n/a	n/a
1083.712	n/a	REC_WORD	541856	wordpools/wasnorm_wordpool_less_exclusions.txt	LTP288	ltpFR	17	6	-1	HEATER	698	n/a	-1	n/a	n/a	n/a	n/a	n/a
1084.51	n/a	REC_WORD	542255	wordpools/wasnorm_wordpool_less_exclusions.txt	LTP288	ltpFR	17	6	-1	MOAT	903	n/a	-1	n/a	n/a	n/a	n/a	n/a
1085.076	n/a	REC_WORD	542538	wordpools/wasnorm_wordpool_less_exclusions.txt	LTP288	ltpFR	17	6	-1	SEA	1259	n/a	-1	n/a	n/a	n/a	n/a	n/a
1086.21	n/a	REC_WORD	543105	wordpools/wasnorm_wordpool_less_exclusions.txt	LTP288	ltpFR	17	6	-1	PAN	1008	n/a	-1	n/a	n/a	n/a	n/a	n/a
1087.06	n/a	REC_WORD	543530	wordpools/wasnorm_wordpool_less_exclusions.txt	LTP288	ltpFR	17	6	-1	RUM	1217	n/a	-1	n/a	n/a	n/a	n/a	n/a
1088.964	n/a	REC_WORD	544482	wordpools/wasnorm_wordpool_less_exclusions.txt	LTP288	ltpFR	17	6	-1	FIDDLE	561	n/a	-1	n/a	n/a	n/a	n/a	n/a
1089.854	n/a	REC_WORD	544927	wordpools/wasnorm_wordpool_less_exclusions.txt	LTP288	ltpFR	17	6	-1	COUNTY	389	n/a	-1	n/a	n/a	n/a	n/a	n/a
1092.058	n/a	REC_WORD	546029	wordpools/wasnorm_wordpool_less_exclusions.txt	LTP288	ltpFR	17	6	-1	SCOUT	1252	n/a	-1	n/a	n/a	n/a	n/a	n/a
1092.884	n/a	REC_WORD	546442	wordpools/wasnorm_wordpool_less_exclusions.txt	LTP288	ltpFR	17	6	-1	FUDGE	611	n/a	-1	n/a	n/a	n/a	n/a	n/a
1093.694	n/a	REC_WORD	546847	wordpools/wasnorm_wordpool_less_exclusions.txt	LTP288	ltpFR	17	6	-1	COOLER	375	n/a	-1	n/a	n/a	n/a	n/a	n/a
1094.336	n/a	REC_WORD	547168	wordpools/wasnorm_wordpool_less_exclusions.txt	LTP288	ltpFR	17	6	-1	SAXOPHONE	1240	n/a	-1	n/a	n/a	n/a	n/a	n/a
1109.458	n/a	REC_WORD	554729	wordpools/wasnorm_wordpool_less_exclusions.txt	LTP288	ltpFR	17	6	-1	MOAT	903	n/a	-1	n/a	n/a	n/a	n/a	n/a
1109.936	n/a	REC_WORD	554968	wordpools/wasnorm_wordpool_less_exclusions.txt	LTP288	ltpFR	17	6	-1	SEA	1259	n/a	-1	n/a	n/a	n/a	n/a	n/a
1160.734	n/a	WORD	580367	wordpools/wasnorm_wordpool_less_exclusions.txt	LTP288	ltpFR	17	7	-1	EXPERT	543	n/a	-1	1	1.0	1.0	upper	../fonts/Verdana.ttf
1164.902	n/a	WORD	582451	wordpools/wasnorm_wordpool_less_exclusions.txt	LTP288	ltpFR	17	7	-1	POTATO	1115	n/a	-1	1	1.0	1.0	upper	../fonts/Verdana.ttf
1169.068	n/a	WORD	584534	wordpools/wasnorm_wordpool_less_exclusions.txt	LTP288	ltpFR	17	7	-1	RESTAURANT	1187	n/a	-1	1	1.0	1.0	upper	../fonts/Verdana.ttf
1172.982	n/a	WORD	586491	wordpools/wasnorm_wordpool_less_exclusions.txt	LTP288	ltpFR	17	7	-1	HEEL	700	n/a	-1	1	1.0	1.0	upper	../fonts/Verdana.ttf
1176.864	n/a	WORD	588432	wordpools/wasnorm_wordpool_less_exclusions.txt	LTP288	ltpFR	17	7	-1	CROSS	413	n/a	-1	1	1.0	1.0	upper	../fonts/Verdana.ttf
1180.996	n/a	WORD	590498	wordpools/wasnorm_wordpool_less_exclusions.txt	LTP288	ltpFR	17	7	-1	PAVEMENT	1028	n/a	-1	1	1.0	1.0	upper	../fonts/Verdana.ttf
1184.928	n/a	WORD	592464	wordpools/wasnorm_wordpool_less_exclusions.txt	LTP288	ltpFR	17	7	-1	TURKEY	1520	n/a	-1	1	1.0	1.0	upper	../fonts/Verdana.ttf
1188.938	n/a	WORD	594469	wordpools/wasnorm_wordpool_less_exclusions.txt	LTP288	ltpFR	17	7	-1	RACK	1154	n/a	-1	1	1.0	1.0	upper	../fonts/Verdana.ttf
1192.774	n/a	WORD	596387	wordpools/wasnorm_wordpool_less_exclusions.txt	LTP288	ltpFR	17	7	-1	TRAY	1498	n/a	-1	1	1.0	1.0	upper	../fonts/Verdana.ttf
1196.94	n/a	WORD	598470	wordpools/wasnorm_wordpool_less_exclusions.txt	LTP288	ltpFR	17	7	-1	BAND	78	n/a	-1	1	1.0	1.0	upper	../fonts/Verdana.ttf
1200.77	n/a	WORD	600385	wordpools/wasnorm_wordpool_less_exclusions.txt	LTP288	ltpFR	17	7	-1	BACK	65	n/a	-1	1	1.0	1.0	upper	../fonts/Verdana.ttf
1204.854	n/a	WORD	602427	wordpools/wasnorm_wordpool_less_exclusions.txt	LTP288	ltpFR	17	7	-1	RATTLE	1170	n/a	-1	1	1.0	1.0	upper	../fonts/Verdana.ttf
1208.97	n/a	WORD	604485	wordpools/wasnorm_wordpool_less_exclusions.txt	LTP288	ltpFR	17	7	-1	ACTRESS	6	n/a	-1	1	1.0	1.0	upper	../fonts/Verdana.ttf
1213.118	n/a	WORD	606559	wordpools/wasnorm_wordpool_less_exclusions.txt	LTP288	ltpFR	17	7	-1	FILM	565	n/a	-1	1	1.0	1.0	upper	../fonts/Verdana.ttf
1217.232	n/a	WORD	608616	wordpools/wasnorm_wordpool_less_exclusions.txt	LTP288	ltpFR	17	7	-1	FLUTE	585	n/a	-1	1	1.0	1.0	upper	../fonts/Verdana.ttf
1221.166	n/a	WORD	610583	wordpools/wasnorm_wordpool_less_exclusions.txt	LTP288	ltpFR	17	7	-1	CLARINET	317	n/a	-1	1	1.0	1.0	upper	../fonts/Verdana.ttf
1226.934	n/a	REC_START	613467	n/a	LTP288	ltpFR	17	7	n/a	n/a	n/a	n/a	n/a	n/a	n/a	n/a	n/a	n/a
1227.258	n/a	REC_WORD	613629	wordpools/wasnorm_wordpool_less_exclusions.txt	LTP288	ltpFR	17	7	-1	FLUTE	585	n/a	-1	n/a	n/a	n/a	n/a	n/a
1227.938	n/a	REC_WORD	613969	wordpools/wasnorm_wordpool_less_exclusions.txt	LTP288	ltpFR	17	7	-1	CLARINET	317	n/a	-1	n/a	n/a	n/a	n/a	n/a
1230.052	n/a	REC_WORD	615026	wordpools/wasnorm_wordpool_less_exclusions.txt	LTP288	ltpFR	17	7	-1	TRAY	1498	n/a	-1	n/a	n/a	n/a	n/a	n/a
1230.856	n/a	REC_WORD	615428	wordpools/wasnorm_wordpool_less_exclusions.txt	LTP288	ltpFR	17	7	-1	BAND	78	n/a	-1	n/a	n/a	n/a	n/a	n/a
1231.422	n/a	REC_WORD	615711	wordpools/wasnorm_wordpool_less_exclusions.txt	LTP288	ltpFR	17	7	-1	ACTRESS	6	n/a	-1	n/a	n/a	n/a	n/a	n/a
1232.138	n/a	REC_WORD	616069	wordpools/wasnorm_wordpool_less_exclusions.txt	LTP288	ltpFR	17	7	-1	FILM	565	n/a	-1	n/a	n/a	n/a	n/a	n/a
1240.014	n/a	REC_WORD	620007	wordpools/wasnorm_wordpool_less_exclusions.txt	LTP288	ltpFR	17	7	-1	EXPERT	543	n/a	-1	n/a	n/a	n/a	n/a	n/a
1240.618	n/a	REC_WORD	620309	wordpools/wasnorm_wordpool_less_exclusions.txt	LTP288	ltpFR	17	7	-1	POTATO	1115	n/a	-1	n/a	n/a	n/a	n/a	n/a
1241.426	n/a	REC_WORD	620713	wordpools/wasnorm_wordpool_less_exclusions.txt	LTP288	ltpFR	17	7	-1	RESTAURANT	1187	n/a	-1	n/a	n/a	n/a	n/a	n/a
1242.12	n/a	REC_WORD	621060	wordpools/wasnorm_wordpool_less_exclusions.txt	LTP288	ltpFR	17	7	-1	HEEL	700	n/a	-1	n/a	n/a	n/a	n/a	n/a
1257.744	n/a	REC_WORD	628872	wordpools/wasnorm_wordpool_less_exclusions.txt	LTP288	ltpFR	17	7	-1	BACK	65	n/a	-1	n/a	n/a	n/a	n/a	n/a
1259.198	n/a	REC_WORD	629599	wordpools/wasnorm_wordpool_less_exclusions.txt	LTP288	ltpFR	17	7	-1	RATTLE	1170	n/a	-1	n/a	n/a	n/a	n/a	n/a
1265.79	n/a	REC_WORD	632895	wordpools/wasnorm_wordpool_less_exclusions.txt	LTP288	ltpFR	17	7	-1	TURKEY	1520	n/a	-1	n/a	n/a	n/a	n/a	n/a
1266.462	n/a	REC_WORD	633231	wordpools/wasnorm_wordpool_less_exclusions.txt	LTP288	ltpFR	17	7	-1	RACK	1154	n/a	-1	n/a	n/a	n/a	n/a	n/a
1305.388	n/a	WORD	652694	wordpools/wasnorm_wordpool_less_exclusions.txt	LTP288	ltpFR	17	8	0	ENCYCLOPEDIA	533	n/a	1	1	0.412841796875	0.57763671875	upper	../fonts/amplitud.ttf
1309.454	n/a	WORD	654727	wordpools/wasnorm_wordpool_less_exclusions.txt	LTP288	ltpFR	17	8	0	DIGGER	464	n/a	1	1	0.412841796875	0.57763671875	upper	../fonts/amplitud.ttf
1313.464	n/a	WORD	656732	wordpools/wasnorm_wordpool_less_exclusions.txt	LTP288	ltpFR	17	8	1	TROPHY	1509	n/a	0	0	0.5869140625	0.422607421875	lower	../fonts/zerothre.ttf
1317.468	n/a	WORD	658734	wordpools/wasnorm_wordpool_less_exclusions.txt	LTP288	ltpFR	17	8	1	FREEWAY	603	n/a	1	0	0.5869140625	0.422607421875	lower	../fonts/zerothre.ttf
1321.362	n/a	WORD	660681	wordpools/wasnorm_wordpool_less_exclusions.txt	LTP288	ltpFR	17	8	1	SPINACH	1352	n/a	0	0	0.5869140625	0.422607421875	lower	../fonts/zerothre.ttf
1325.448	n/a	WORD	662724	wordpools/wasnorm_wordpool_less_exclusions.txt	LTP288	ltpFR	17	8	0	TANGERINE	1431	n/a	0	1	0.412841796875	0.57763671875	upper	../fonts/amplitud.ttf
1329.396	n/a	WORD	664698	wordpools/wasnorm_wordpool_less_exclusions.txt	LTP288	ltpFR	17	8	0	OCTOPUS	971	n/a	1	1	0.412841796875	0.57763671875	upper	../fonts/amplitud.ttf
1333.596	n/a	WORD	666798	wordpools/wasnorm_wordpool_less_exclusions.txt	LTP288	ltpFR	17	8	0	LOBSTER	837	n/a	1	1	0.412841796875	0.57763671875	upper	../fonts/amplitud.ttf
1337.796	n/a	WORD	668898	wordpools/wasnorm_wordpool_less_exclusions.txt	LTP288	ltpFR	17	8	1	CHERRY	293	n/a	0	0	0.5869140625	0.422607421875	lower	../fonts/zerothre.ttf
1341.66	n/a	WORD	670830	wordpools/wasnorm_wordpool_less_exclusions.txt	LTP288	ltpFR	17	8	1	BREAST	171	n/a	0	0	0.5869140625	0.422607421875	lower	../fonts/zerothre.ttf
1345.62	n/a	WORD	672810	wordpools/wasnorm_wordpool_less_exclusions.txt	LTP288	ltpFR	17	8	1	MESSAGE	888	n/a	0	0	0.5869140625	0.422607421875	lower	../fonts/zerothre.ttf
1349.69	n/a	WORD	674845	wordpools/wasnorm_wordpool_less_exclusions.txt	LTP288	ltpFR	17	8	1	OPERATOR	979	n/a	0	0	0.5869140625	0.422607421875	lower	../fonts/zerothre.ttf
1353.836	n/a	WORD	676918	wordpools/wasnorm_wordpool_less_exclusions.txt	LTP288	ltpFR	17	8	1	TOAD	1470	n/a	0	0	0.5869140625	0.422607421875	lower	../fonts/zerothre.ttf
1357.884	n/a	WORD	678942	wordpools/wasnorm_wordpool_less_exclusions.txt	LTP288	ltpFR	17	8	0	FENCE	560	n/a	1	1	0.412841796875	0.57763671875	upper	../fonts/amplitud.ttf
1362.054	n/a	WORD	681027	wordpools/wasnorm_wordpool_less_exclusions.txt	LTP288	ltpFR	17	8	0	DRIVER	499	n/a	1	1	0.412841796875	0.57763671875	upper	../fonts/amplitud.ttf
1366.07	n/a	WORD	683035	wordpools/wasnorm_wordpool_less_exclusions.txt	LTP288	ltpFR	17	8	0	TOE	1473	n/a	0	1	0.412841796875	0.57763671875	upper	../fonts/amplitud.ttf
1371.876	n/a	REC_START	685938	n/a	LTP288	ltpFR	17	8	n/a	n/a	n/a	n/a	n/a	n/a	n/a	n/a	n/a	n/a
1372.256	n/a	REC_WORD	686128	wordpools/wasnorm_wordpool_less_exclusions.txt	LTP288	ltpFR	17	8	0	DRIVER	499	n/a	1	n/a	n/a	n/a	n/a	n/a
1372.848	n/a	REC_WORD	686424	wordpools/wasnorm_wordpool_less_exclusions.txt	LTP288	ltpFR	17	8	0	TOE	1473	n/a	0	n/a	n/a	n/a	n/a	n/a
1373.5	n/a	REC_WORD	686750	wordpools/wasnorm_wordpool_less_exclusions.txt	LTP288	ltpFR	17	8	1	TOAD	1470	n/a	0	n/a	n/a	n/a	n/a	n/a
1373.992	n/a	REC_WORD	686996	wordpools/wasnorm_wordpool_less_exclusions.txt	LTP288	ltpFR	17	8	0	FENCE	560	n/a	1	n/a	n/a	n/a	n/a	n/a
1375.608	n/a	REC_WORD	687804	wordpools/wasnorm_wordpool_less_exclusions.txt	LTP288	ltpFR	17	8	1	MESSAGE	888	n/a	0	n/a	n/a	n/a	n/a	n/a
1376.258	n/a	REC_WORD	688129	wordpools/wasnorm_wordpool_less_exclusions.txt	LTP288	ltpFR	17	8	1	OPERATOR	979	n/a	0	n/a	n/a	n/a	n/a	n/a
1378.372	n/a	REC_WORD	689186	wordpools/wasnorm_wordpool_less_exclusions.txt	LTP288	ltpFR	17	8	1	CHERRY	293	n/a	0	n/a	n/a	n/a	n/a	n/a
1379.208	n/a	REC_WORD	689604	wordpools/wasnorm_wordpool_less_exclusions.txt	LTP288	ltpFR	17	8	1	BREAST	171	n/a	0	n/a	n/a	n/a	n/a	n/a
1384.07	n/a	REC_WORD	692035	wordpools/wasnorm_wordpool_less_exclusions.txt	LTP288	ltpFR	17	8	0	OCTOPUS	971	n/a	1	n/a	n/a	n/a	n/a	n/a
1385.516	n/a	REC_WORD	692758	wordpools/wasnorm_wordpool_less_exclusions.txt	LTP288	ltpFR	17	8	0	LOBSTER	837	n/a	1	n/a	n/a	n/a	n/a	n/a
1405.628	n/a	REC_WORD	702814	wordpools/wasnorm_wordpool_less_exclusions.txt	LTP288	ltpFR	17	8	0	ENCYCLOPEDIA	533	n/a	1	n/a	n/a	n/a	n/a	n/a
1406.936	n/a	REC_WORD	703468	wordpools/wasnorm_wordpool_less_exclusions.txt	LTP288	ltpFR	17	8	0	DIGGER	464	n/a	1	n/a	n/a	n/a	n/a	n/a
1409.12	n/a	REC_WORD	704560	wordpools/wasnorm_wordpool_less_exclusions.txt	LTP288	ltpFR	17	8	1	FREEWAY	603	n/a	1	n/a	n/a	n/a	n/a	n/a
1409.852	n/a	REC_WORD	704926	wordpools/wasnorm_wordpool_less_exclusions.txt	LTP288	ltpFR	17	8	1	TROPHY	1509	n/a	0	n/a	n/a	n/a	n/a	n/a
1447.548	n/a	REST_REWET	723774	n/a	LTP288	ltpFR	17	8	n/a	n/a	n/a	n/a	n/a	n/a	n/a	n/a	n/a	n/a
1782.042	n/a	WORD	891021	wordpools/wasnorm_wordpool_less_exclusions.txt	LTP288	ltpFR	17	9	1	COOKIE	374	n/a	0	0	0.5869140625	0.422607421875	lower	../fonts/zerothre.ttf
1786.126	n/a	WORD	893063	wordpools/wasnorm_wordpool_less_exclusions.txt	LTP288	ltpFR	17	9	1	MARROW	872	n/a	0	0	0.5869140625	0.422607421875	lower	../fonts/zerothre.ttf
1790.174	n/a	WORD	895087	wordpools/wasnorm_wordpool_less_exclusions.txt	LTP288	ltpFR	17	9	1	BUILDER	190	n/a	0	0	0.5869140625	0.422607421875	lower	../fonts/zerothre.ttf
1794.034	n/a	WORD	897017	wordpools/wasnorm_wordpool_less_exclusions.txt	LTP288	ltpFR	17	9	1	HOSTESS	723	n/a	1	0	0.5869140625	0.422607421875	lower	../fonts/zerothre.ttf
1798.188	n/a	WORD	899094	wordpools/wasnorm_wordpool_less_exclusions.txt	LTP288	ltpFR	17	9	1	ANTEATER	26	n/a	1	0	0.5869140625	0.422607421875	lower	../fonts/zerothre.ttf
1802.336	n/a	WORD	901168	wordpools/wasnorm_wordpool_less_exclusions.txt	LTP288	ltpFR	17	9	1	ZOO	1637	n/a	1	0	0.5869140625	0.422607421875	lower	../fonts/zerothre.ttf
1806.236	n/a	WORD	903118	wordpools/wasnorm_wordpool_less_exclusions.txt	LTP288	ltpFR	17	9	1	COUCH	386	n/a	0	0	0.5869140625	0.422607421875	lower	../fonts/zerothre.ttf
1810.3	n/a	WORD	905150	wordpools/wasnorm_wordpool_less_exclusions.txt	LTP288	ltpFR	17	9	1	TABLE	1426	n/a	0	0	0.5869140625	0.422607421875	lower	../fonts/zerothre.ttf
1814.362	n/a	WORD	907181	wordpools/wasnorm_wordpool_less_exclusions.txt	LTP288	ltpFR	17	9	1	PATIO	1025	n/a	1	0	0.5869140625	0.422607421875	lower	../fonts/zerothre.ttf
1818.498	n/a	WORD	909249	wordpools/wasnorm_wordpool_less_exclusions.txt	LTP288	ltpFR	17	9	1	DECK	443	n/a	0	0	0.5869140625	0.422607421875	lower	../fonts/zerothre.ttf
1822.53	n/a	WORD	911265	wordpools/wasnorm_wordpool_less_exclusions.txt	LTP288	ltpFR	17	9	1	WELL	1600	n/a	0	0	0.5869140625	0.422607421875	lower	../fonts/zerothre.ttf
1826.412	n/a	WORD	913206	wordpools/wasnorm_wordpool_less_exclusions.txt	LTP288	ltpFR	17	9	1	SHED	1277	n/a	0	0	0.5869140625	0.422607421875	lower	../fonts/zerothre.ttf
1830.612	n/a	WORD	915306	wordpools/wasnorm_wordpool_less_exclusions.txt	LTP288	ltpFR	17	9	1	DOG	480	n/a	1	0	0.5869140625	0.422607421875	lower	../fonts/zerothre.ttf
1834.76	n/a	WORD	917380	wordpools/wasnorm_wordpool_less_exclusions.txt	LTP288	ltpFR	17	9	1	CARTON	251	n/a	0	0	0.5869140625	0.422607421875	lower	../fonts/zerothre.ttf
1838.658	n/a	WORD	919329	wordpools/wasnorm_wordpool_less_exclusions.txt	LTP288	ltpFR	17	9	1	CROCODILE	411	n/a	1	0	0.5869140625	0.422607421875	lower	../fonts/zerothre.ttf
1842.772	n/a	WORD	921386	wordpools/wasnorm_wordpool_less_exclusions.txt	LTP288	ltpFR	17	9	1	FURNITURE	616	n/a	1	0	0.5869140625	0.422607421875	lower	../fonts/zerothre.ttf
1848.528	n/a	REC_START	924264	n/a	LTP288	ltpFR	17	9	n/a	n/a	n/a	n/a	n/a	n/a	n/a	n/a	n/a	n/a
1849.01	n/a	REC_WORD	924505	wordpools/wasnorm_wordpool_less_exclusions.txt	LTP288	ltpFR	17	9	1	CROCODILE	411	n/a	1	n/a	n/a	n/a	n/a	n/a
1849.628	n/a	REC_WORD	924814	wordpools/wasnorm_wordpool_less_exclusions.txt	LTP288	ltpFR	17	9	1	FURNITURE	616	n/a	1	n/a	n/a	n/a	n/a	n/a
1850.398	n/a	REC_WORD	925199	wordpools/wasnorm_wordpool_less_exclusions.txt	LTP288	ltpFR	17	9	1	DOG	480	n/a	1	n/a	n/a	n/a	n/a	n/a
1850.88	n/a	REC_WORD	925440	wordpools/wasnorm_wordpool_less_exclusions.txt	LTP288	ltpFR	17	9	1	CARTON	251	n/a	0	n/a	n/a	n/a	n/a	n/a
1851.544	n/a	REC_WORD	925772	wordpools/wasnorm_wordpool_less_exclusions.txt	LTP288	ltpFR	17	9	1	PATIO	1025	n/a	1	n/a	n/a	n/a	n/a	n/a
1852.33	n/a	REC_WORD	926165	wordpools/wasnorm_wordpool_less_exclusions.txt	LTP288	ltpFR	17	9	1	DECK	443	n/a	0	n/a	n/a	n/a	n/a	n/a
1855.302	n/a	REC_WORD	927651	wordpools/wasnorm_wordpool_less_exclusions.txt	LTP288	ltpFR	17	9	1	COUCH	386	n/a	0	n/a	n/a	n/a	n/a	n/a
1856.002	n/a	REC_WORD	928001	wordpools/wasnorm_wordpool_less_exclusions.txt	LTP288	ltpFR	17	9	1	TABLE	1426	n/a	0	n/a	n/a	n/a	n/a	n/a
1858.918	n/a	REC_WORD	929459	wordpools/wasnorm_wordpool_less_exclusions.txt	LTP288	ltpFR	17	9	1	SHED	1277	n/a	0	n/a	n/a	n/a	n/a	n/a
1859.648	n/a	REC_WORD	929824	wordpools/wasnorm_wordpool_less_exclusions.txt	LTP288	ltpFR	17	9	1	WELL	1600	n/a	0	n/a	n/a	n/a	n/a	n/a
1862.846	n/a	REC_WORD	931423	wordpools/wasnorm_wordpool_less_exclusions.txt	LTP288	ltpFR	17	9	n/a	WAITER	1580	n/a	n/a	n/a	n/a	n/a	n/a	n/a
1863.362	n/a	REC_WORD_VV	931681	wordpools/wasnorm_wordpool_less_exclusions.txt	LTP288	ltpFR	17	9	n/a	<>	-1	n/a	n/a	n/a	n/a	n/a	n/a	n/a
1863.9	n/a	REC_WORD	931950	wordpools/wasnorm_wordpool_less_exclusions.txt	LTP288	ltpFR	17	9	1	HOSTESS	723	n/a	1	n/a	n/a	n/a	n/a	n/a
1865.218	n/a	REC_WORD	932609	wordpools/wasnorm_wordpool_less_exclusions.txt	LTP288	ltpFR	17	9	1	BUILDER	190	n/a	0	n/a	n/a	n/a	n/a	n/a
1871.48	n/a	REC_WORD	935740	wordpools/wasnorm_wordpool_less_exclusions.txt	LTP288	ltpFR	17	9	1	MARROW	872	n/a	0	n/a	n/a	n/a	n/a	n/a
1872.14	n/a	REC_WORD	936070	wordpools/wasnorm_wordpool_less_exclusions.txt	LTP288	ltpFR	17	9	1	COOKIE	374	n/a	0	n/a	n/a	n/a	n/a	n/a
1902.37	n/a	REC_WORD	951185	wordpools/wasnorm_wordpool_less_exclusions.txt	LTP288	ltpFR	17	9	1	ANTEATER	26	n/a	1	n/a	n/a	n/a	n/a	n/a
1903.062	n/a	REC_WORD	951531	wordpools/wasnorm_wordpool_less_exclusions.txt	LTP288	ltpFR	17	9	1	ZOO	1637	n/a	1	n/a	n/a	n/a	n/a	n/a
1926.244	n/a	WORD	963122	wordpools/wasnorm_wordpool_less_exclusions.txt	LTP288	ltpFR	17	10	1	MAPLE	866	n/a	0	0	0.5869140625	0.422607421875	lower	../fonts/zerothre.ttf
1930.108	n/a	WORD	965054	wordpools/wasnorm_wordpool_less_exclusions.txt	LTP288	ltpFR	17	10	1	SYRUP	1425	n/a	0	0	0.5869140625	0.422607421875	lower	../fonts/zerothre.ttf
1934.106	n/a	WORD	967053	wordpools/wasnorm_wordpool_less_exclusions.txt	LTP288	ltpFR	17	10	1	ANGEL	22	n/a	1	0	0.5869140625	0.422607421875	lower	../fonts/zerothre.ttf
1938.27	n/a	WORD	969135	wordpools/wasnorm_wordpool_less_exclusions.txt	LTP288	ltpFR	17	10	0	POSSUM	1112	n/a	0	1	0.412841796875	0.57763671875	upper	../fonts/amplitud.ttf
1942.238	n/a	WORD	971119	wordpools/wasnorm_wordpool_less_exclusions.txt	LTP288	ltpFR	17	10	0	COB	334	n/a	0	1	0.412841796875	0.57763671875	upper	../fonts/amplitud.ttf
1946.254	n/a	WORD	973127	wordpools/wasnorm_wordpool_less_exclusions.txt	LTP288	ltpFR	17	10	0	LEADER	807	n/a	1	1	0.412841796875	0.57763671875	upper	../fonts/amplitud.ttf
1950.268	n/a	WORD	975134	wordpools/wasnorm_wordpool_less_exclusions.txt	LTP288	ltpFR	17	10	0	DRAWER	493	n/a	1	1	0.412841796875	0.57763671875	upper	../fonts/amplitud.ttf
1954.384	n/a	WORD	977192	wordpools/wasnorm_wordpool_less_exclusions.txt	LTP288	ltpFR	17	10	0	ARTICLE	42	n/a	0	1	0.412841796875	0.57763671875	upper	../fonts/amplitud.ttf
1958.552	n/a	WORD	979276	wordpools/wasnorm_wordpool_less_exclusions.txt	LTP288	ltpFR	17	10	0	CUSTARD	429	n/a	0	1	0.412841796875	0.57763671875	upper	../fonts/amplitud.ttf
1962.762	n/a	WORD	981381	wordpools/wasnorm_wordpool_less_exclusions.txt	LTP288	ltpFR	17	10	1	KEEPER	769	n/a	1	0	0.5869140625	0.422607421875	lower	../fonts/zerothre.ttf
1966.932	n/a	WORD	983466	wordpools/wasnorm_wordpool_less_exclusions.txt	LTP288	ltpFR	17	10	1	GOLD	647	n/a	1	0	0.5869140625	0.422607421875	lower	../fonts/zerothre.ttf
1971.148	n/a	WORD	985574	wordpools/wasnorm_wordpool_less_exclusions.txt	LTP288	ltpFR	17	10	1	MOUSE	925	n/a	0	0	0.5869140625	0.422607421875	lower	../fonts/zerothre.ttf
1975.314	n/a	WORD	987657	wordpools/wasnorm_wordpool_less_exclusions.txt	LTP288	ltpFR	17	10	0	PUBLICATION	1136	n/a	0	1	0.412841796875	0.57763671875	upper	../fonts/amplitud.ttf
1979.346	n/a	WORD	989673	wordpools/wasnorm_wordpool_less_exclusions.txt	LTP288	ltpFR	17	10	0	PUB	1135	n/a	0	1	0.412841796875	0.57763671875	upper	../fonts/amplitud.ttf
1983.408	n/a	WORD	991704	wordpools/wasnorm_wordpool_less_exclusions.txt	LTP288	ltpFR	17	10	1	BOTTLE	153	n/a	0	0	0.5869140625	0.422607421875	lower	../fonts/zerothre.ttf
1987.444	n/a	WORD	993722	wordpools/wasnorm_wordpool_less_exclusions.txt	LTP288	ltpFR	17	10	1	CHOCOLATE	306	n/a	1	0	0.5869140625	0.422607421875	lower	../fonts/zerothre.ttf
1993.128	n/a	REC_START	996564	n/a	LTP288	ltpFR	17	10	n/a	n/a	n/a	n/a	n/a	n/a	n/a	n/a	n/a	n/a
1993.548	n/a	REC_WORD	996774	wordpools/wasnorm_wordpool_less_exclusions.txt	LTP288	ltpFR	17	10	1	BOTTLE	153	n/a	0	n/a	n/a	n/a	n/a	n/a
1993.986	n/a	REC_WORD	996993	wordpools/wasnorm_wordpool_less_exclusions.txt	LTP288	ltpFR	17	10	1	CHOCOLATE	306	n/a	1	n/a	n/a	n/a	n/a	n/a
1994.754	n/a	REC_WORD	997377	wordpools/wasnorm_wordpool_less_exclusions.txt	LTP288	ltpFR	17	10	0	PUBLICATION	1136	n/a	0	n/a	n/a	n/a	n/a	n/a
1995.814	n/a	REC_WORD	997907	wordpools/wasnorm_wordpool_less_exclusions.txt	LTP288	ltpFR	17	10	0	PUB	1135	n/a	0	n/a	n/a	n/a	n/a	n/a
1998.586	n/a	REC_WORD	999293	wordpools/wasnorm_wordpool_less_exclusions.txt	LTP288	ltpFR	17	10	1	GOLD	647	n/a	1	n/a	n/a	n/a	n/a	n/a
1999.272	n/a	REC_WORD	999636	wordpools/wasnorm_wordpool_less_exclusions.txt	LTP288	ltpFR	17	10	1	MOUSE	925	n/a	0	n/a	n/a	n/a	n/a	n/a
2000.32	n/a	REC_WORD	1000160	wordpools/wasnorm_wordpool_less_exclusions.txt	LTP288	ltpFR	17	10	0	POSSUM	1112	n/a	0	n/a	n/a	n/a	n/a	n/a
2004.73	n/a	REC_WORD	1002365	wordpools/wasnorm_wordpool_less_exclusions.txt	LTP288	ltpFR	17	10	1	MAPLE	866	n/a	0	n/a	n/a	n/a	n/a	n/a
2005.132	n/a	REC_WORD	1002566	wordpools/wasnorm_wordpool_less_exclusions.txt	LTP288	ltpFR	17	10	1	SYRUP	1425	n/a	0	n/a	n/a	n/a	n/a	n/a
2007.056	n/a	REC_WORD	1003528	wordpools/wasnorm_wordpool_less_exclusions.txt	LTP288	ltpFR	17	10	1	ANGEL	22	n/a	1	n/a	n/a	n/a	n/a	n/a
2010.704	n/a	REC_WORD	1005352	wordpools/wasnorm_wordpool_less_exclusions.txt	LTP288	ltpFR	17	10	0	COB	334	n/a	0	n/a	n/a	n/a	n/a	n/a
2011.402	n/a	REC_WORD	1005701	wordpools/wasnorm_wordpool_less_exclusions.txt	LTP288	ltpFR	17	10	0	LEADER	807	n/a	1	n/a	n/a	n/a	n/a	n/a
2014.474	n/a	REC_WORD	1007237	wordpools/wasnorm_wordpool_less_exclusions.txt	LTP288	ltpFR	17	10	0	ARTICLE	42	n/a	0	n/a	n/a	n/a	n/a	n/a
2015.394	n/a	REC_WORD	1007697	wordpools/wasnorm_wordpool_less_exclusions.txt	LTP288	ltpFR	17	10	0	DRAWER	493	n/a	1	n/a	n/a	n/a	n/a	n/a
2071.014	n/a	WORD	1035507	wordpools/wasnorm_wordpool_less_exclusions.txt	LTP288	ltpFR	17	11	-1	PLANET	1082	n/a	-1	1	1.0	1.0	upper	../fonts/Verdana.ttf
2074.924	n/a	WORD	1037462	wordpools/wasnorm_wordpool_less_exclusions.txt	LTP288	ltpFR	17	11	-1	PERCH	1048	n/a	-1	1	1.0	1.0	upper	../fonts/Verdana.ttf
2079.074	n/a	WORD	1039537	wordpools/wasnorm_wordpool_less_exclusions.txt	LTP288	ltpFR	17	11	-1	CAGE	218	n/a	-1	1	1.0	1.0	upper	../fonts/Verdana.ttf
2083.072	n/a	WORD	1041536	wordpools/wasnorm_wordpool_less_exclusions.txt	LTP288	ltpFR	17	11	-1	APARTMENT	30	n/a	-1	1	1.0	1.0	upper	../fonts/Verdana.ttf
2087.176	n/a	WORD	1043588	wordpools/wasnorm_wordpool_less_exclusions.txt	LTP288	ltpFR	17	11	-1	BUN	197	n/a	-1	1	1.0	1.0	upper	../fonts/Verdana.ttf
2091.008	n/a	WORD	1045504	wordpools/wasnorm_wordpool_less_exclusions.txt	LTP288	ltpFR	17	11	-1	WRIST	1626	n/a	-1	1	1.0	1.0	upper	../fonts/Verdana.ttf
2095.14	n/a	WORD	1047570	wordpools/wasnorm_wordpool_less_exclusions.txt	LTP288	ltpFR	17	11	-1	MUSTARD	935	n/a	-1	1	1.0	1.0	upper	../fonts/Verdana.ttf
2098.988	n/a	WORD	1049494	wordpools/wasnorm_wordpool_less_exclusions.txt	LTP288	ltpFR	17	11	-1	FROST	609	n/a	-1	1	1.0	1.0	upper	../fonts/Verdana.ttf
2102.902	n/a	WORD	1051451	wordpools/wasnorm_wordpool_less_exclusions.txt	LTP288	ltpFR	17	11	-1	TOMATO	1476	n/a	-1	1	1.0	1.0	upper	../fonts/Verdana.ttf
2106.934	n/a	WORD	1053467	wordpools/wasnorm_wordpool_less_exclusions.txt	LTP288	ltpFR	17	11	-1	RADISH	1158	n/a	-1	1	1.0	1.0	upper	../fonts/Verdana.ttf
2110.832	n/a	WORD	1055416	wordpools/wasnorm_wordpool_less_exclusions.txt	LTP288	ltpFR	17	11	-1	STUDENT	1395	n/a	-1	1	1.0	1.0	upper	../fonts/Verdana.ttf
2114.81	n/a	WORD	1057405	wordpools/wasnorm_wordpool_less_exclusions.txt	LTP288	ltpFR	17	11	-1	PHILOSOPHER	1054	n/a	-1	1	1.0	1.0	upper	../fonts/Verdana.ttf
2118.78	n/a	WORD	1059390	wordpools/wasnorm_wordpool_less_exclusions.txt	LTP288	ltpFR	17	11	-1	LOFT	840	n/a	-1	1	1.0	1.0	upper	../fonts/Verdana.ttf
2122.674	n/a	WORD	1061337	wordpools/wasnorm_wordpool_less_exclusions.txt	LTP288	ltpFR	17	11	-1	CLOSET	326	n/a	-1	1	1.0	1.0	upper	../fonts/Verdana.ttf
2126.59	n/a	WORD	1063295	wordpools/wasnorm_wordpool_less_exclusions.txt	LTP288	ltpFR	17	11	-1	STEW	1380	n/a	-1	1	1.0	1.0	upper	../fonts/Verdana.ttf
2130.42	n/a	WORD	1065210	wordpools/wasnorm_wordpool_less_exclusions.txt	LTP288	ltpFR	17	11	-1	APPENDAGE	32	n/a	-1	1	1.0	1.0	upper	../fonts/Verdana.ttf
2136.292	n/a	REC_START	1068146	n/a	LTP288	ltpFR	17	11	n/a	n/a	n/a	n/a	n/a	n/a	n/a	n/a	n/a	n/a
2136.778	n/a	REC_WORD	1068389	wordpools/wasnorm_wordpool_less_exclusions.txt	LTP288	ltpFR	17	11	-1	APPENDAGE	32	n/a	-1	n/a	n/a	n/a	n/a	n/a
2137.502	n/a	REC_WORD	1068751	wordpools/wasnorm_wordpool_less_exclusions.txt	LTP288	ltpFR	17	11	-1	STEW	1380	n/a	-1	n/a	n/a	n/a	n/a	n/a
2138.294	n/a	REC_WORD	1069147	wordpools/wasnorm_wordpool_less_exclusions.txt	LTP288	ltpFR	17	11	-1	LOFT	840	n/a	-1	n/a	n/a	n/a	n/a	n/a
2138.922	n/a	REC_WORD	1069461	wordpools/wasnorm_wordpool_less_exclusions.txt	LTP288	ltpFR	17	11	-1	CLOSET	326	n/a	-1	n/a	n/a	n/a	n/a	n/a
2139.492	n/a	REC_WORD	1069746	wordpools/wasnorm_wordpool_less_exclusions.txt	LTP288	ltpFR	17	11	-1	STUDENT	1395	n/a	-1	n/a	n/a	n/a	n/a	n/a
2140.084	n/a	REC_WORD	1070042	wordpools/wasnorm_wordpool_less_exclusions.txt	LTP288	ltpFR	17	11	-1	PHILOSOPHER	1054	n/a	-1	n/a	n/a	n/a	n/a	n/a
2141.046	n/a	REC_WORD	1070523	wordpools/wasnorm_wordpool_less_exclusions.txt	LTP288	ltpFR	17	11	-1	PLANET	1082	n/a	-1	n/a	n/a	n/a	n/a	n/a
2141.604	n/a	REC_WORD	1070802	wordpools/wasnorm_wordpool_less_exclusions.txt	LTP288	ltpFR	17	11	-1	PERCH	1048	n/a	-1	n/a	n/a	n/a	n/a	n/a
2142.046	n/a	REC_WORD	1071023	wordpools/wasnorm_wordpool_less_exclusions.txt	LTP288	ltpFR	17	11	-1	APARTMENT	30	n/a	-1	n/a	n/a	n/a	n/a	n/a
2142.748	n/a	REC_WORD	1071374	wordpools/wasnorm_wordpool_less_exclusions.txt	LTP288	ltpFR	17	11	-1	CAGE	218	n/a	-1	n/a	n/a	n/a	n/a	n/a
2153.72	n/a	REC_WORD	1076860	wordpools/wasnorm_wordpool_less_exclusions.txt	LTP288	ltpFR	17	11	-1	TOMATO	1476	n/a	-1	n/a	n/a	n/a	n/a	n/a
2154.356	n/a	REC_WORD	1077178	wordpools/wasnorm_wordpool_less_exclusions.txt	LTP288	ltpFR	17	11	-1	RADISH	1158	n/a	-1	n/a	n/a	n/a	n/a	n/a
2159.14	n/a	REC_WORD	1079570	wordpools/wasnorm_wordpool_less_exclusions.txt	LTP288	ltpFR	17	11	-1	MUSTARD	935	n/a	-1	n/a	n/a	n/a	n/a	n/a
2159.626	n/a	REC_WORD	1079813	wordpools/wasnorm_wordpool_less_exclusions.txt	LTP288	ltpFR	17	11	-1	FROST	609	n/a	-1	n/a	n/a	n/a	n/a	n/a
2214.178	n/a	WORD	1107089	wordpools/wasnorm_wordpool_less_exclusions.txt	LTP288	ltpFR	17	12	0	COOKBOOK	373	n/a	1	1	0.412841796875	0.57763671875	upper	../fonts/amplitud.ttf
2218.226	n/a	WORD	1109113	wordpools/wasnorm_wordpool_less_exclusions.txt	LTP288	ltpFR	17	12	0	BILL	126	n/a	1	1	0.412841796875	0.57763671875	upper	../fonts/amplitud.ttf
2222.41	n/a	WORD	1111205	wordpools/wasnorm_wordpool_less_exclusions.txt	LTP288	ltpFR	17	12	0	SAILOR	1223	n/a	1	1	0.412841796875	0.57763671875	upper	../fonts/amplitud.ttf
2226.492	n/a	WORD	1113246	wordpools/wasnorm_wordpool_less_exclusions.txt	LTP288	ltpFR	17	12	0	SHIP	1286	n/a	1	1	0.412841796875	0.57763671875	upper	../fonts/amplitud.ttf
2230.708	n/a	WORD	1115354	wordpools/wasnorm_wordpool_less_exclusions.txt	LTP288	ltpFR	17	12	0	HARP	689	n/a	1	1	0.412841796875	0.57763671875	upper	../fonts/amplitud.ttf
2234.722	n/a	WORD	1117361	wordpools/wasnorm_wordpool_less_exclusions.txt	LTP288	ltpFR	17	12	0	POSTAGE	1113	n/a	0	1	0.412841796875	0.57763671875	upper	../fonts/amplitud.ttf
2238.706	n/a	WORD	1119353	wordpools/wasnorm_wordpool_less_exclusions.txt	LTP288	ltpFR	17	12	0	ARCHITECT	36	n/a	1	1	0.412841796875	0.57763671875	upper	../fonts/amplitud.ttf
2242.738	n/a	WORD	1121369	wordpools/wasnorm_wordpool_less_exclusions.txt	LTP288	ltpFR	17	12	0	TAPE	1433	n/a	0	1	0.412841796875	0.57763671875	upper	../fonts/amplitud.ttf
2246.752	n/a	WORD	1123376	wordpools/wasnorm_wordpool_less_exclusions.txt	LTP288	ltpFR	17	12	0	SHEPHERD	1283	n/a	1	1	0.412841796875	0.57763671875	upper	../fonts/amplitud.ttf
2250.646	n/a	WORD	1125323	wordpools/wasnorm_wordpool_less_exclusions.txt	LTP288	ltpFR	17	12	0	BEAST	108	n/a	1	1	0.412841796875	0.57763671875	upper	../fonts/amplitud.ttf
2254.616	n/a	WORD	1127308	wordpools/wasnorm_wordpool_less_exclusions.txt	LTP288	ltpFR	17	12	0	CAP	236	n/a	0	1	0.412841796875	0.57763671875	upper	../fonts/amplitud.ttf
2258.48	n/a	WORD	1129240	wordpools/wasnorm_wordpool_less_exclusions.txt	LTP288	ltpFR	17	12	0	SAUSAGE	1238	n/a	0	1	0.412841796875	0.57763671875	upper	../fonts/amplitud.ttf
2262.446	n/a	WORD	1131223	wordpools/wasnorm_wordpool_less_exclusions.txt	LTP288	ltpFR	17	12	0	TURTLE	1522	n/a	1	1	0.412841796875	0.57763671875	upper	../fonts/amplitud.ttf
2266.574	n/a	WORD	1133287	wordpools/wasnorm_wordpool_less_exclusions.txt	LTP288	ltpFR	17	12	0	HAMBURGER	679	n/a	1	1	0.412841796875	0.57763671875	upper	../fonts/amplitud.ttf
2270.672	n/a	WORD	1135336	wordpools/wasnorm_wordpool_less_exclusions.txt	LTP288	ltpFR	17	12	0	WAITRESS	1581	n/a	1	1	0.412841796875	0.57763671875	upper	../fonts/amplitud.ttf
2274.826	n/a	WORD	1137413	wordpools/wasnorm_wordpool_less_exclusions.txt	LTP288	ltpFR	17	12	0	SUPERMARKET	1409	n/a	1	1	0.412841796875	0.57763671875	upper	../fonts/amplitud.ttf
2280.546	n/a	REC_START	1140273	n/a	LTP288	ltpFR	17	12	n/a	n/a	n/a	n/a	n/a	n/a	n/a	n/a	n/a	n/a
2281.092	n/a	REC_WORD	1140546	wordpools/wasnorm_wordpool_less_exclusions.txt	LTP288	ltpFR	17	12	0	WAITRESS	1581	n/a	1	n/a	n/a	n/a	n/a	n/a
2281.61	n/a	REC_WORD	1140805	wordpools/wasnorm_wordpool_less_exclusions.txt	LTP288	ltpFR	17	12	0	SUPERMARKET	1409	n/a	1	n/a	n/a	n/a	n/a	n/a
2282.61	n/a	REC_WORD_VV	1141305	wordpools/wasnorm_wordpool_less_exclusions.txt	LTP288	ltpFR	17	12	n/a	<>	-1	n/a	n/a	n/a	n/a	n/a	n/a	n/a
2285.168	n/a	REC_WORD	1142584	wordpools/wasnorm_wordpool_less_exclusions.txt	LTP288	ltpFR	17	12	0	HAMBURGER	679	n/a	1	n/a	n/a	n/a	n/a	n/a
2301.566	n/a	REC_WORD	1150783	wordpools/wasnorm_wordpool_less_exclusions.txt	LTP288	ltpFR	17	12	0	HARP	689	n/a	1	n/a	n/a	n/a	n/a	n/a
2302.104	n/a	REC_WORD	1151052	wordpools/wasnorm_wordpool_less_exclusions.txt	LTP288	ltpFR	17	12	0	POSTAGE	1113	n/a	0	n/a	n/a	n/a	n/a	n/a
2322.94	n/a	REC_WORD	1161470	wordpools/wasnorm_wordpool_less_exclusions.txt	LTP288	ltpFR	17	12	0	ARCHITECT	36	n/a	1	n/a	n/a	n/a	n/a	n/a
2323.69	n/a	REC_WORD	1161845	wordpools/wasnorm_wordpool_less_exclusions.txt	LTP288	ltpFR	17	12	0	TAPE	1433	n/a	0	n/a	n/a	n/a	n/a	n/a
2324.416	n/a	REC_WORD	1162208	wordpools/wasnorm_wordpool_less_exclusions.txt	LTP288	ltpFR	17	12	0	SHEPHERD	1283	n/a	1	n/a	n/a	n/a	n/a	n/a
2325.23	n/a	REC_WORD	1162615	wordpools/wasnorm_wordpool_less_exclusions.txt	LTP288	ltpFR	17	12	0	BEAST	108	n/a	1	n/a	n/a	n/a	n/a	n/a
2358.512	n/a	WORD	1179256	wordpools/wasnorm_wordpool_less_exclusions.txt	LTP288	ltpFR	17	13	1	KETCHUP	771	n/a	0	0	0.5869140625	0.422607421875	lower	../fonts/zerothre.ttf
2362.478	n/a	WORD	1181239	wordpools/wasnorm_wordpool_less_exclusions.txt	LTP288	ltpFR	17	13	1	SANDWICH	1232	n/a	1	0	0.5869140625	0.422607421875	lower	../fonts/zerothre.ttf
2366.606	n/a	WORD	1183303	wordpools/wasnorm_wordpool_less_exclusions.txt	LTP288	ltpFR	17	13	1	DIVER	476	n/a	1	0	0.5869140625	0.422607421875	lower	../fonts/zerothre.ttf
2370.692	n/a	WORD	1185346	wordpools/wasnorm_wordpool_less_exclusions.txt	LTP288	ltpFR	17	13	1	PATRIOT	1026	n/a	1	0	0.5869140625	0.422607421875	lower	../fonts/zerothre.ttf
2374.758	n/a	WORD	1187379	wordpools/wasnorm_wordpool_less_exclusions.txt	LTP288	ltpFR	17	13	1	BANNER	85	n/a	1	0	0.5869140625	0.422607421875	lower	../fonts/zerothre.ttf
2378.874	n/a	WORD	1189437	wordpools/wasnorm_wordpool_less_exclusions.txt	LTP288	ltpFR	17	13	1	SOFTBALL	1343	n/a	0	0	0.5869140625	0.422607421875	lower	../fonts/zerothre.ttf
2382.872	n/a	WORD	1191436	wordpools/wasnorm_wordpool_less_exclusions.txt	LTP288	ltpFR	17	13	1	SALMON	1227	n/a	0	0	0.5869140625	0.422607421875	lower	../fonts/zerothre.ttf
2386.904	n/a	WORD	1193452	wordpools/wasnorm_wordpool_less_exclusions.txt	LTP288	ltpFR	17	13	1	TAXI	1438	n/a	1	0	0.5869140625	0.422607421875	lower	../fonts/zerothre.ttf
2391.016	n/a	WORD	1195508	wordpools/wasnorm_wordpool_less_exclusions.txt	LTP288	ltpFR	17	13	1	CHIME	300	n/a	0	0	0.5869140625	0.422607421875	lower	../fonts/zerothre.ttf
2395.018	n/a	WORD	1197509	wordpools/wasnorm_wordpool_less_exclusions.txt	LTP288	ltpFR	17	13	1	EMERALD	528	n/a	0	0	0.5869140625	0.422607421875	lower	../fonts/zerothre.ttf
2399.118	n/a	WORD	1199559	wordpools/wasnorm_wordpool_less_exclusions.txt	LTP288	ltpFR	17	13	1	PRESIDENT	1121	n/a	1	0	0.5869140625	0.422607421875	lower	../fonts/zerothre.ttf
2403.3	n/a	WORD	1201650	wordpools/wasnorm_wordpool_less_exclusions.txt	LTP288	ltpFR	17	13	1	PORCH	1106	n/a	0	0	0.5869140625	0.422607421875	lower	../fonts/zerothre.ttf
2407.326	n/a	WORD	1203663	wordpools/wasnorm_wordpool_less_exclusions.txt	LTP288	ltpFR	17	13	1	STALLION	1369	n/a	1	0	0.5869140625	0.422607421875	lower	../fonts/zerothre.ttf
2411.516	n/a	WORD	1205758	wordpools/wasnorm_wordpool_less_exclusions.txt	LTP288	ltpFR	17	13	1	TIDE	1465	n/a	1	0	0.5869140625	0.422607421875	lower	../fonts/zerothre.ttf
2415.732	n/a	WORD	1207866	wordpools/wasnorm_wordpool_less_exclusions.txt	LTP288	ltpFR	17	13	1	MONKEY	911	n/a	1	0	0.5869140625	0.422607421875	lower	../fonts/zerothre.ttf
2419.708	n/a	WORD	1209854	wordpools/wasnorm_wordpool_less_exclusions.txt	LTP288	ltpFR	17	13	1	BUSH	202	n/a	0	0	0.5869140625	0.422607421875	lower	../fonts/zerothre.ttf
2425.514	n/a	REC_START	1212757	n/a	LTP288	ltpFR	17	13	n/a	n/a	n/a	n/a	n/a	n/a	n/a	n/a	n/a	n/a
2425.712	n/a	REC_WORD	1212856	wordpools/wasnorm_wordpool_less_exclusions.txt	LTP288	ltpFR	17	13	1	MONKEY	911	n/a	1	n/a	n/a	n/a	n/a	n/a
2426.212	n/a	REC_WORD	1213106	wordpools/wasnorm_wordpool_less_exclusions.txt	LTP288	ltpFR	17	13	1	BUSH	202	n/a	0	n/a	n/a	n/a	n/a	n/a
2426.582	n/a	REC_WORD	1213291	wordpools/wasnorm_wordpool_less_exclusions.txt	LTP288	ltpFR	17	13	1	STALLION	1369	n/a	1	n/a	n/a	n/a	n/a	n/a
2427.182	n/a	REC_WORD	1213591	wordpools/wasnorm_wordpool_less_exclusions.txt	LTP288	ltpFR	17	13	1	TIDE	1465	n/a	1	n/a	n/a	n/a	n/a	n/a
2427.712	n/a	REC_WORD	1213856	wordpools/wasnorm_wordpool_less_exclusions.txt	LTP288	ltpFR	17	13	1	PRESIDENT	1121	n/a	1	n/a	n/a	n/a	n/a	n/a
2428.476	n/a	REC_WORD	1214238	wordpools/wasnorm_wordpool_less_exclusions.txt	LTP288	ltpFR	17	13	1	PORCH	1106	n/a	0	n/a	n/a	n/a	n/a	n/a
2430.218	n/a	REC_WORD	1215109	wordpools/wasnorm_wordpool_less_exclusions.txt	LTP288	ltpFR	17	13	1	EMERALD	528	n/a	0	n/a	n/a	n/a	n/a	n/a
2430.854	n/a	REC_WORD	1215427	wordpools/wasnorm_wordpool_less_exclusions.txt	LTP288	ltpFR	17	13	1	CHIME	300	n/a	0	n/a	n/a	n/a	n/a	n/a
2449.49	n/a	REC_WORD	1224745	wordpools/wasnorm_wordpool_less_exclusions.txt	LTP288	ltpFR	17	13	1	TAXI	1438	n/a	1	n/a	n/a	n/a	n/a	n/a
2450.036	n/a	REC_WORD	1225018	wordpools/wasnorm_wordpool_less_exclusions.txt	LTP288	ltpFR	17	13	1	SALMON	1227	n/a	0	n/a	n/a	n/a	n/a	n/a
2470.192	n/a	REC_WORD	1235096	wordpools/wasnorm_wordpool_less_exclusions.txt	LTP288	ltpFR	17	13	1	KETCHUP	771	n/a	0	n/a	n/a	n/a	n/a	n/a
2470.64	n/a	REC_WORD	1235320	wordpools/wasnorm_wordpool_less_exclusions.txt	LTP288	ltpFR	17	13	1	SANDWICH	1232	n/a	1	n/a	n/a	n/a	n/a	n/a
2503.048	n/a	WORD	1251524	wordpools/wasnorm_wordpool_less_exclusions.txt	LTP288	ltpFR	17	14	1	BREAD	170	n/a	0	0	0.5869140625	0.422607421875	lower	../fonts/zerothre.ttf
2506.964	n/a	WORD	1253482	wordpools/wasnorm_wordpool_less_exclusions.txt	LTP288	ltpFR	17	14	1	GARLIC	624	n/a	0	0	0.5869140625	0.422607421875	lower	../fonts/zerothre.ttf
2511.078	n/a	WORD	1255539	wordpools/wasnorm_wordpool_less_exclusions.txt	LTP288	ltpFR	17	14	1	BANJO	82	n/a	0	0	0.5869140625	0.422607421875	lower	../fonts/zerothre.ttf
2514.944	n/a	WORD	1257472	wordpools/wasnorm_wordpool_less_exclusions.txt	LTP288	ltpFR	17	14	0	BULL	193	n/a	0	1	0.412841796875	0.57763671875	upper	../fonts/amplitud.ttf
2519.126	n/a	WORD	1259563	wordpools/wasnorm_wordpool_less_exclusions.txt	LTP288	ltpFR	17	14	0	ROAD	1196	n/a	1	1	0.412841796875	0.57763671875	upper	../fonts/amplitud.ttf
2523.21	n/a	WORD	1261605	wordpools/wasnorm_wordpool_less_exclusions.txt	LTP288	ltpFR	17	14	0	LEOPARD	812	n/a	1	1	0.412841796875	0.57763671875	upper	../fonts/amplitud.ttf
2527.24	n/a	WORD	1263620	wordpools/wasnorm_wordpool_less_exclusions.txt	LTP288	ltpFR	17	14	0	DART	440	n/a	0	1	0.412841796875	0.57763671875	upper	../fonts/amplitud.ttf
2531.19	n/a	WORD	1265595	wordpools/wasnorm_wordpool_less_exclusions.txt	LTP288	ltpFR	17	14	1	GODDESS	646	n/a	1	0	0.5869140625	0.422607421875	lower	../fonts/zerothre.ttf
2535.188	n/a	WORD	1267594	wordpools/wasnorm_wordpool_less_exclusions.txt	LTP288	ltpFR	17	14	1	DISC	473	n/a	0	0	0.5869140625	0.422607421875	lower	../fonts/zerothre.ttf
2539.118	n/a	WORD	1269559	wordpools/wasnorm_wordpool_less_exclusions.txt	LTP288	ltpFR	17	14	1	BOARD	143	n/a	0	0	0.5869140625	0.422607421875	lower	../fonts/zerothre.ttf
2543.018	n/a	WORD	1271509	wordpools/wasnorm_wordpool_less_exclusions.txt	LTP288	ltpFR	17	14	1	PEOPLE	1046	n/a	1	0	0.5869140625	0.422607421875	lower	../fonts/zerothre.ttf
2546.95	n/a	WORD	1273475	wordpools/wasnorm_wordpool_less_exclusions.txt	LTP288	ltpFR	17	14	1	JURY	766	n/a	1	0	0.5869140625	0.422607421875	lower	../fonts/zerothre.ttf
2551.112	n/a	WORD	1275556	wordpools/wasnorm_wordpool_less_exclusions.txt	LTP288	ltpFR	17	14	0	COURT	391	n/a	1	1	0.412841796875	0.57763671875	upper	../fonts/amplitud.ttf
2555.13	n/a	WORD	1277565	wordpools/wasnorm_wordpool_less_exclusions.txt	LTP288	ltpFR	17	14	0	LUNCH	849	n/a	0	1	0.412841796875	0.57763671875	upper	../fonts/amplitud.ttf
2559.162	n/a	WORD	1279581	wordpools/wasnorm_wordpool_less_exclusions.txt	LTP288	ltpFR	17	14	0	WHEAT	1602	n/a	0	1	0.412841796875	0.57763671875	upper	../fonts/amplitud.ttf
2563.006	n/a	WORD	1281503	wordpools/wasnorm_wordpool_less_exclusions.txt	LTP288	ltpFR	17	14	0	STRANGER	1389	n/a	1	1	0.412841796875	0.57763671875	upper	../fonts/amplitud.ttf
2568.812	n/a	REC_START	1284406	n/a	LTP288	ltpFR	17	14	n/a	n/a	n/a	n/a	n/a	n/a	n/a	n/a	n/a	n/a
2569.354	n/a	REC_WORD	1284677	wordpools/wasnorm_wordpool_less_exclusions.txt	LTP288	ltpFR	17	14	0	WHEAT	1602	n/a	0	n/a	n/a	n/a	n/a	n/a
2569.76	n/a	REC_WORD	1284880	wordpools/wasnorm_wordpool_less_exclusions.txt	LTP288	ltpFR	17	14	0	STRANGER	1389	n/a	1	n/a	n/a	n/a	n/a	n/a
2570.636	n/a	REC_WORD	1285318	wordpools/wasnorm_wordpool_less_exclusions.txt	LTP288	ltpFR	17	14	0	COURT	391	n/a	1	n/a	n/a	n/a	n/a	n/a
2571.282	n/a	REC_WORD	1285641	wordpools/wasnorm_wordpool_less_exclusions.txt	LTP288	ltpFR	17	14	0	LUNCH	849	n/a	0	n/a	n/a	n/a	n/a	n/a
2571.856	n/a	REC_WORD	1285928	wordpools/wasnorm_wordpool_less_exclusions.txt	LTP288	ltpFR	17	14	1	PEOPLE	1046	n/a	1	n/a	n/a	n/a	n/a	n/a
2572.542	n/a	REC_WORD	1286271	wordpools/wasnorm_wordpool_less_exclusions.txt	LTP288	ltpFR	17	14	1	JURY	766	n/a	1	n/a	n/a	n/a	n/a	n/a
2574.782	n/a	REC_WORD	1287391	wordpools/wasnorm_wordpool_less_exclusions.txt	LTP288	ltpFR	17	14	1	GARLIC	624	n/a	0	n/a	n/a	n/a	n/a	n/a
2575.546	n/a	REC_WORD	1287773	wordpools/wasnorm_wordpool_less_exclusions.txt	LTP288	ltpFR	17	14	1	BREAD	170	n/a	0	n/a	n/a	n/a	n/a	n/a
2600.702	n/a	REC_WORD	1300351	wordpools/wasnorm_wordpool_less_exclusions.txt	LTP288	ltpFR	17	14	0	LEOPARD	812	n/a	1	n/a	n/a	n/a	n/a	n/a
2601.498	n/a	REC_WORD	1300749	wordpools/wasnorm_wordpool_less_exclusions.txt	LTP288	ltpFR	17	14	0	ROAD	1196	n/a	1	n/a	n/a	n/a	n/a	n/a
2634.826	n/a	REC_WORD	1317413	wordpools/wasnorm_wordpool_less_exclusions.txt	LTP288	ltpFR	17	14	1	DIVER	476	n/a	1	n/a	n/a	n/a	n/a	n/a
2635.394	n/a	REC_WORD	1317697	wordpools/wasnorm_wordpool_less_exclusions.txt	LTP288	ltpFR	17	14	1	PATRIOT	1026	n/a	1	n/a	n/a	n/a	n/a	n/a
2637.748	n/a	REC_WORD	1318874	wordpools/wasnorm_wordpool_less_exclusions.txt	LTP288	ltpFR	17	14	1	BANNER	85	n/a	1	n/a	n/a	n/a	n/a	n/a
2638.182	n/a	REC_WORD	1319091	wordpools/wasnorm_wordpool_less_exclusions.txt	LTP288	ltpFR	17	14	1	SOFTBALL	1343	n/a	0	n/a	n/a	n/a	n/a	n/a
2647.45	n/a	WORD	1323725	wordpools/wasnorm_wordpool_less_exclusions.txt	LTP288	ltpFR	17	15	0	SPATULA	1348	n/a	0	1	0.412841796875	0.57763671875	upper	../fonts/amplitud.ttf
2651.432	n/a	WORD	1325716	wordpools/wasnorm_wordpool_less_exclusions.txt	LTP288	ltpFR	17	15	0	CINNAMON	310	n/a	0	1	0.412841796875	0.57763671875	upper	../fonts/amplitud.ttf
2655.632	n/a	WORD	1327816	wordpools/wasnorm_wordpool_less_exclusions.txt	LTP288	ltpFR	17	15	0	PEDAL	1037	n/a	0	1	0.412841796875	0.57763671875	upper	../fonts/amplitud.ttf
2659.748	n/a	WORD	1329874	wordpools/wasnorm_wordpool_less_exclusions.txt	LTP288	ltpFR	17	15	0	STEM	1376	n/a	0	1	0.412841796875	0.57763671875	upper	../fonts/amplitud.ttf
2663.662	n/a	WORD	1331831	wordpools/wasnorm_wordpool_less_exclusions.txt	LTP288	ltpFR	17	15	0	LADY	794	n/a	1	1	0.412841796875	0.57763671875	upper	../fonts/amplitud.ttf
2667.626	n/a	WORD	1333813	wordpools/wasnorm_wordpool_less_exclusions.txt	LTP288	ltpFR	17	15	0	DRAWING	494	n/a	0	1	0.412841796875	0.57763671875	upper	../fonts/amplitud.ttf
2671.592	n/a	WORD	1335796	wordpools/wasnorm_wordpool_less_exclusions.txt	LTP288	ltpFR	17	15	0	CANVAS	234	n/a	1	1	0.412841796875	0.57763671875	upper	../fonts/amplitud.ttf
2675.754	n/a	WORD	1337877	wordpools/wasnorm_wordpool_less_exclusions.txt	LTP288	ltpFR	17	15	0	OFFICER	973	n/a	0	1	0.412841796875	0.57763671875	upper	../fonts/amplitud.ttf
2679.958	n/a	WORD	1339979	wordpools/wasnorm_wordpool_less_exclusions.txt	LTP288	ltpFR	17	15	0	ORCHESTRA	981	n/a	1	1	0.412841796875	0.57763671875	upper	../fonts/amplitud.ttf
2684.056	n/a	WORD	1342028	wordpools/wasnorm_wordpool_less_exclusions.txt	LTP288	ltpFR	17	15	0	COLESLAW	344	n/a	1	1	0.412841796875	0.57763671875	upper	../fonts/amplitud.ttf
2688.206	n/a	WORD	1344103	wordpools/wasnorm_wordpool_less_exclusions.txt	LTP288	ltpFR	17	15	0	VELVET	1555	n/a	0	1	0.412841796875	0.57763671875	upper	../fonts/amplitud.ttf
2692.204	n/a	WORD	1346102	wordpools/wasnorm_wordpool_less_exclusions.txt	LTP288	ltpFR	17	15	0	PARSLEY	1016	n/a	0	1	0.412841796875	0.57763671875	upper	../fonts/amplitud.ttf
2696.204	n/a	WORD	1348102	wordpools/wasnorm_wordpool_less_exclusions.txt	LTP288	ltpFR	17	15	0	WOMAN	1620	n/a	1	1	0.412841796875	0.57763671875	upper	../fonts/amplitud.ttf
2700.186	n/a	WORD	1350093	wordpools/wasnorm_wordpool_less_exclusions.txt	LTP288	ltpFR	17	15	0	POND	1101	n/a	0	1	0.412841796875	0.57763671875	upper	../fonts/amplitud.ttf
2704.2	n/a	WORD	1352100	wordpools/wasnorm_wordpool_less_exclusions.txt	LTP288	ltpFR	17	15	0	PLUTO	1092	n/a	1	1	0.412841796875	0.57763671875	upper	../fonts/amplitud.ttf
2708.262	n/a	WORD	1354131	wordpools/wasnorm_wordpool_less_exclusions.txt	LTP288	ltpFR	17	15	0	NEPTUNE	943	n/a	1	1	0.412841796875	0.57763671875	upper	../fonts/amplitud.ttf
2714.122	n/a	REC_START	1357061	n/a	LTP288	ltpFR	17	15	n/a	n/a	n/a	n/a	n/a	n/a	n/a	n/a	n/a	n/a
2714.462	n/a	REC_WORD	1357231	wordpools/wasnorm_wordpool_less_exclusions.txt	LTP288	ltpFR	17	15	0	PLUTO	1092	n/a	1	n/a	n/a	n/a	n/a	n/a
2715.054	n/a	REC_WORD	1357527	wordpools/wasnorm_wordpool_less_exclusions.txt	LTP288	ltpFR	17	15	0	NEPTUNE	943	n/a	1	n/a	n/a	n/a	n/a	n/a
2715.802	n/a	REC_WORD	1357901	wordpools/wasnorm_wordpool_less_exclusions.txt	LTP288	ltpFR	17	15	0	WOMAN	1620	n/a	1	n/a	n/a	n/a	n/a	n/a
2716.29	n/a	REC_WORD	1358145	wordpools/wasnorm_wordpool_less_exclusions.txt	LTP288	ltpFR	17	15	0	POND	1101	n/a	0	n/a	n/a	n/a	n/a	n/a
2718.064	n/a	REC_WORD	1359032	wordpools/wasnorm_wordpool_less_exclusions.txt	LTP288	ltpFR	17	15	n/a	PAINTING	1005	n/a	n/a	n/a	n/a	n/a	n/a	n/a
2718.822	n/a	REC_WORD	1359411	wordpools/wasnorm_wordpool_less_exclusions.txt	LTP288	ltpFR	17	15	0	LADY	794	n/a	1	n/a	n/a	n/a	n/a	n/a
2721.592	n/a	REC_WORD	1360796	wordpools/wasnorm_wordpool_less_exclusions.txt	LTP288	ltpFR	17	15	0	DRAWING	494	n/a	0	n/a	n/a	n/a	n/a	n/a
2735.064	n/a	REC_WORD	1367532	wordpools/wasnorm_wordpool_less_exclusions.txt	LTP288	ltpFR	17	15	0	CINNAMON	310	n/a	0	n/a	n/a	n/a	n/a	n/a
2737.26	n/a	REC_WORD	1368630	wordpools/wasnorm_wordpool_less_exclusions.txt	LTP288	ltpFR	17	15	0	VELVET	1555	n/a	0	n/a	n/a	n/a	n/a	n/a
2737.856	n/a	REC_WORD	1368928	wordpools/wasnorm_wordpool_less_exclusions.txt	LTP288	ltpFR	17	15	0	PARSLEY	1016	n/a	0	n/a	n/a	n/a	n/a	n/a
2738.43	n/a	REC_WORD	1369215	wordpools/wasnorm_wordpool_less_exclusions.txt	LTP288	ltpFR	17	15	0	SPATULA	1348	n/a	0	n/a	n/a	n/a	n/a	n/a
2791.668	n/a	WORD	1395834	wordpools/wasnorm_wordpool_less_exclusions.txt	LTP288	ltpFR	17	16	1	CAPE	237	n/a	0	0	0.5869140625	0.422607421875	lower	../fonts/zerothre.ttf
2795.6	n/a	WORD	1397800	wordpools/wasnorm_wordpool_less_exclusions.txt	LTP288	ltpFR	17	16	1	ROD	1203	n/a	0	0	0.5869140625	0.422607421875	lower	../fonts/zerothre.ttf
2799.48	n/a	WORD	1399740	wordpools/wasnorm_wordpool_less_exclusions.txt	LTP288	ltpFR	17	16	1	CHIMPANZEE	302	n/a	1	0	0.5869140625	0.422607421875	lower	../fonts/zerothre.ttf
2803.61	n/a	WORD	1401805	wordpools/wasnorm_wordpool_less_exclusions.txt	LTP288	ltpFR	17	16	1	ROBIN	1199	n/a	1	0	0.5869140625	0.422607421875	lower	../fonts/zerothre.ttf
2807.478	n/a	WORD	1403739	wordpools/wasnorm_wordpool_less_exclusions.txt	LTP288	ltpFR	17	16	1	TRENCH	1503	n/a	0	0	0.5869140625	0.422607421875	lower	../fonts/zerothre.ttf
2811.342	n/a	WORD	1405671	wordpools/wasnorm_wordpool_less_exclusions.txt	LTP288	ltpFR	17	16	1	THICKET	1455	n/a	0	0	0.5869140625	0.422607421875	lower	../fonts/zerothre.ttf
2815.442	n/a	WORD	1407721	wordpools/wasnorm_wordpool_less_exclusions.txt	LTP288	ltpFR	17	16	1	WORLD	1622	n/a	1	0	0.5869140625	0.422607421875	lower	../fonts/zerothre.ttf
2819.27	n/a	WORD	1409635	wordpools/wasnorm_wordpool_less_exclusions.txt	LTP288	ltpFR	17	16	1	GROCERIES	663	n/a	1	0	0.5869140625	0.422607421875	lower	../fonts/zerothre.ttf
2823.438	n/a	WORD	1411719	wordpools/wasnorm_wordpool_less_exclusions.txt	LTP288	ltpFR	17	16	1	SERVER	1272	n/a	1	0	0.5869140625	0.422607421875	lower	../fonts/zerothre.ttf
2827.538	n/a	WORD	1413769	wordpools/wasnorm_wordpool_less_exclusions.txt	LTP288	ltpFR	17	16	1	VEHICLE	1553	n/a	1	0	0.5869140625	0.422607421875	lower	../fonts/zerothre.ttf
2831.604	n/a	WORD	1415802	wordpools/wasnorm_wordpool_less_exclusions.txt	LTP288	ltpFR	17	16	1	LIMOUSINE	824	n/a	0	0	0.5869140625	0.422607421875	lower	../fonts/zerothre.ttf
2835.502	n/a	WORD	1417751	wordpools/wasnorm_wordpool_less_exclusions.txt	LTP288	ltpFR	17	16	1	BIRD	129	n/a	0	0	0.5869140625	0.422607421875	lower	../fonts/zerothre.ttf
2839.518	n/a	WORD	1419759	wordpools/wasnorm_wordpool_less_exclusions.txt	LTP288	ltpFR	17	16	1	POLE	1097	n/a	0	0	0.5869140625	0.422607421875	lower	../fonts/zerothre.ttf
2843.668	n/a	WORD	1421834	wordpools/wasnorm_wordpool_less_exclusions.txt	LTP288	ltpFR	17	16	1	SEAL	1262	n/a	0	0	0.5869140625	0.422607421875	lower	../fonts/zerothre.ttf
2847.816	n/a	WORD	1423908	wordpools/wasnorm_wordpool_less_exclusions.txt	LTP288	ltpFR	17	16	1	NOTE	958	n/a	0	0	0.5869140625	0.422607421875	lower	../fonts/zerothre.ttf
2851.948	n/a	WORD	1425974	wordpools/wasnorm_wordpool_less_exclusions.txt	LTP288	ltpFR	17	16	1	VITAMIN	1574	n/a	0	0	0.5869140625	0.422607421875	lower	../fonts/zerothre.ttf
2857.956	n/a	REC_START	1428978	n/a	LTP288	ltpFR	17	16	n/a	n/a	n/a	n/a	n/a	n/a	n/a	n/a	n/a	n/a
2858.286	n/a	REC_WORD	1429143	wordpools/wasnorm_wordpool_less_exclusions.txt	LTP288	ltpFR	17	16	1	NOTE	958	n/a	0	n/a	n/a	n/a	n/a	n/a
2858.896	n/a	REC_WORD_VV	1429448	wordpools/wasnorm_wordpool_less_exclusions.txt	LTP288	ltpFR	17	16	n/a	<>	-1	n/a	n/a	n/a	n/a	n/a	n/a	n/a
2859.61	n/a	REC_WORD	1429805	wordpools/wasnorm_wordpool_less_exclusions.txt	LTP288	ltpFR	17	16	1	SEAL	1262	n/a	0	n/a	n/a	n/a	n/a	n/a
2866.846	n/a	REC_WORD_VV	1433423	wordpools/wasnorm_wordpool_less_exclusions.txt	LTP288	ltpFR	17	16	n/a	<>	-1	n/a	n/a	n/a	n/a	n/a	n/a	n/a
2867.846	n/a	REC_WORD_VV	1433923	wordpools/wasnorm_wordpool_less_exclusions.txt	LTP288	ltpFR	17	16	n/a	<>	-1	n/a	n/a	n/a	n/a	n/a	n/a	n/a
2942.946	n/a	REC_START	1471473	n/a	LTP288	ltpFR	17	n/a	n/a	n/a	n/a	n/a	n/a	n/a	n/a	n/a	n/a	n/a
2943.182	n/a	FFR_REC_WORD	1471591	wordpools/wasnorm_wordpool_less_exclusions.txt	LTP288	ltpFR	17	n/a	1	SEAL	1262	n/a	0	n/a	n/a	n/a	n/a	n/a
2944.028	n/a	FFR_REC_WORD	1472014	wordpools/wasnorm_wordpool_less_exclusions.txt	LTP288	ltpFR	17	n/a	1	POLE	1097	n/a	0	n/a	n/a	n/a	n/a	n/a
2944.524	n/a	FFR_REC_WORD	1472262	wordpools/wasnorm_wordpool_less_exclusions.txt	LTP288	ltpFR	17	n/a	1	VITAMIN	1574	n/a	0	n/a	n/a	n/a	n/a	n/a
2948.108	n/a	FFR_REC_WORD	1474054	wordpools/wasnorm_wordpool_less_exclusions.txt	LTP288	ltpFR	17	n/a	1	CROCODILE	411	n/a	1	n/a	n/a	n/a	n/a	n/a
2948.93	n/a	FFR_REC_WORD	1474465	wordpools/wasnorm_wordpool_less_exclusions.txt	LTP288	ltpFR	17	n/a	1	FURNITURE	616	n/a	1	n/a	n/a	n/a	n/a	n/a
2949.834	n/a	FFR_REC_WORD	1474917	wordpools/wasnorm_wordpool_less_exclusions.txt	LTP288	ltpFR	17	n/a	1	COUCH	386	n/a	0	n/a	n/a	n/a	n/a	n/a
2950.76	n/a	FFR_REC_WORD	1475380	wordpools/wasnorm_wordpool_less_exclusions.txt	LTP288	ltpFR	17	n/a	1	TABLE	1426	n/a	0	n/a	n/a	n/a	n/a	n/a
2955.63	n/a	FFR_REC_WORD	1477815	wordpools/wasnorm_wordpool_less_exclusions.txt	LTP288	ltpFR	17	n/a	1	CHIMPANZEE	302	n/a	1	n/a	n/a	n/a	n/a	n/a
2956.63	n/a	FFR_REC_WORD_VV	1478315	wordpools/wasnorm_wordpool_less_exclusions.txt	LTP288	ltpFR	17	n/a	n/a	<>	-1	n/a	n/a	n/a	n/a	n/a	n/a	n/a
2958.424	n/a	FFR_REC_WORD	1479212	wordpools/wasnorm_wordpool_less_exclusions.txt	LTP288	ltpFR	17	n/a	1	ROBIN	1199	n/a	1	n/a	n/a	n/a	n/a	n/a
2960.99	n/a	FFR_REC_WORD	1480495	wordpools/wasnorm_wordpool_less_exclusions.txt	LTP288	ltpFR	17	n/a	n/a	AARDVARK	-1	n/a	n/a	n/a	n/a	n/a	n/a	n/a
2961.856	n/a	FFR_REC_WORD	1480928	wordpools/wasnorm_wordpool_less_exclusions.txt	LTP288	ltpFR	17	n/a	1	ZOO	1637	n/a	1	n/a	n/a	n/a	n/a	n/a
2969.736	n/a	FFR_REC_WORD	1484868	wordpools/wasnorm_wordpool_less_exclusions.txt	LTP288	ltpFR	17	n/a	-1	LAPEL	800	n/a	-1	n/a	n/a	n/a	n/a	n/a
2970.716	n/a	FFR_REC_WORD	1485358	wordpools/wasnorm_wordpool_less_exclusions.txt	LTP288	ltpFR	17	n/a	-1	TOWER	1490	n/a	-1	n/a	n/a	n/a	n/a	n/a
2976.422	n/a	FFR_REC_WORD	1488211	wordpools/wasnorm_wordpool_less_exclusions.txt	LTP288	ltpFR	17	n/a	0	LUNCH	849	n/a	0	n/a	n/a	n/a	n/a	n/a
2977.894	n/a	FFR_REC_WORD	1488947	wordpools/wasnorm_wordpool_less_exclusions.txt	LTP288	ltpFR	17	n/a	1	JURY	766	n/a	1	n/a	n/a	n/a	n/a	n/a
2978.498	n/a	FFR_REC_WORD	1489249	wordpools/wasnorm_wordpool_less_exclusions.txt	LTP288	ltpFR	17	n/a	1	PEOPLE	1046	n/a	1	n/a	n/a	n/a	n/a	n/a
2979.368	n/a	FFR_REC_WORD	1489684	wordpools/wasnorm_wordpool_less_exclusions.txt	LTP288	ltpFR	17	n/a	0	COURT	391	n/a	1	n/a	n/a	n/a	n/a	n/a
2985.278	n/a	FFR_REC_WORD	1492639	wordpools/wasnorm_wordpool_less_exclusions.txt	LTP288	ltpFR	17	n/a	n/a	SUPPER	1411	n/a	n/a	n/a	n/a	n/a	n/a	n/a
2991.238	n/a	FFR_REC_WORD	1495619	wordpools/wasnorm_wordpool_less_exclusions.txt	LTP288	ltpFR	17	n/a	-1	RADISH	1158	n/a	-1	n/a	n/a	n/a	n/a	n/a
2991.986	n/a	FFR_REC_WORD	1495993	wordpools/wasnorm_wordpool_less_exclusions.txt	LTP288	ltpFR	17	n/a	-1	TOMATO	1476	n/a	-1	n/a	n/a	n/a	n/a	n/a
2992.79	n/a	FFR_REC_WORD	1496395	wordpools/wasnorm_wordpool_less_exclusions.txt	LTP288	ltpFR	17	n/a	0	TUNA	1518	n/a	1	n/a	n/a	n/a	n/a	n/a
2993.874	n/a	FFR_REC_WORD	1496937	wordpools/wasnorm_wordpool_less_exclusions.txt	LTP288	ltpFR	17	n/a	0	WALRUS	1585	n/a	1	n/a	n/a	n/a	n/a	n/a
2994.71	n/a	FFR_REC_WORD	1497355	wordpools/wasnorm_wordpool_less_exclusions.txt	LTP288	ltpFR	17	n/a	1	POLE	1097	n/a	0	n/a	n/a	n/a	n/a	n/a
2995.482	n/a	FFR_REC_WORD	1497741	wordpools/wasnorm_wordpool_less_exclusions.txt	LTP288	ltpFR	17	n/a	1	SEAL	1262	n/a	0	n/a	n/a	n/a	n/a	n/a
3009.788	n/a	FFR_REC_WORD	1504894	wordpools/wasnorm_wordpool_less_exclusions.txt	LTP288	ltpFR	17	n/a	0	WAITRESS	1581	n/a	1	n/a	n/a	n/a	n/a	n/a
3010.482	n/a	FFR_REC_WORD	1505241	wordpools/wasnorm_wordpool_less_exclusions.txt	LTP288	ltpFR	17	n/a	1	HOSTESS	723	n/a	1	n/a	n/a	n/a	n/a	n/a
3011.498	n/a	FFR_REC_WORD	1505749	wordpools/wasnorm_wordpool_less_exclusions.txt	LTP288	ltpFR	17	n/a	1	BUILDER	190	n/a	0	n/a	n/a	n/a	n/a	n/a
3012.146	n/a	FFR_REC_WORD	1506073	wordpools/wasnorm_wordpool_less_exclusions.txt	LTP288	ltpFR	17	n/a	0	ARCHITECT	36	n/a	1	n/a	n/a	n/a	n/a	n/a
3013.266	n/a	FFR_REC_WORD	1506633	wordpools/wasnorm_wordpool_less_exclusions.txt	LTP288	ltpFR	17	n/a	0	LANDSCAPE	799	n/a	1	n/a	n/a	n/a	n/a	n/a
3014.15	n/a	FFR_REC_WORD	1507075	wordpools/wasnorm_wordpool_less_exclusions.txt	LTP288	ltpFR	17	n/a	0	ISLAND	745	n/a	1	n/a	n/a	n/a	n/a	n/a
3021.65	n/a	FFR_REC_WORD	1510825	wordpools/wasnorm_wordpool_less_exclusions.txt	LTP288	ltpFR	17	n/a	0	ENCYCLOPEDIA	533	n/a	1	n/a	n/a	n/a	n/a	n/a
3022.65	n/a	FFR_REC_WORD_VV	1511325	wordpools/wasnorm_wordpool_less_exclusions.txt	LTP288	ltpFR	17	n/a	n/a	<>	-1	n/a	n/a	n/a	n/a	n/a	n/a	n/a
3023.192	n/a	FFR_REC_WORD	1511596	wordpools/wasnorm_wordpool_less_exclusions.txt	LTP288	ltpFR	17	n/a	0	DIGGER	464	n/a	1	n/a	n/a	n/a	n/a	n/a
3028.206	n/a	FFR_REC_WORD	1514103	wordpools/wasnorm_wordpool_less_exclusions.txt	LTP288	ltpFR	17	n/a	0	PUBLICATION	1136	n/a	0	n/a	n/a	n/a	n/a	n/a
3029.206	n/a	FFR_REC_WORD_VV	1514603	wordpools/wasnorm_wordpool_less_exclusions.txt	LTP288	ltpFR	17	n/a	n/a	<>	-1	n/a	n/a	n/a	n/a	n/a	n/a	n/a
3029.576	n/a	FFR_REC_WORD	1514788	wordpools/wasnorm_wordpool_less_exclusions.txt	LTP288	ltpFR	17	n/a	0	PUB	1135	n/a	0	n/a	n/a	n/a	n/a	n/a
3031.574	n/a	FFR_REC_WORD	1515787	wordpools/wasnorm_wordpool_less_exclusions.txt	LTP288	ltpFR	17	n/a	0	ARTICLE	42	n/a	0	n/a	n/a	n/a	n/a	n/a
3032.414	n/a	FFR_REC_WORD	1516207	wordpools/wasnorm_wordpool_less_exclusions.txt	LTP288	ltpFR	17	n/a	0	DRAWER	493	n/a	1	n/a	n/a	n/a	n/a	n/a
3036.136	n/a	FFR_REC_WORD	1518068	wordpools/wasnorm_wordpool_less_exclusions.txt	LTP288	ltpFR	17	n/a	1	TAXI	1438	n/a	1	n/a	n/a	n/a	n/a	n/a
3036.822	n/a	FFR_REC_WORD	1518411	wordpools/wasnorm_wordpool_less_exclusions.txt	LTP288	ltpFR	17	n/a	1	SALMON	1227	n/a	0	n/a	n/a	n/a	n/a	n/a
3051.92	n/a	FFR_REC_WORD	1525960	wordpools/wasnorm_wordpool_less_exclusions.txt	LTP288	ltpFR	17	n/a	0	SAILOR	1223	n/a	1	n/a	n/a	n/a	n/a	n/a
3052.602	n/a	FFR_REC_WORD	1526301	wordpools/wasnorm_wordpool_less_exclusions.txt	LTP288	ltpFR	17	n/a	0	SHIP	1286	n/a	1	n/a	n/a	n/a	n/a	n/a
3057.42	n/a	FFR_REC_WORD	1528710	wordpools/wasnorm_wordpool_less_exclusions.txt	LTP288	ltpFR	17	n/a	1	BIRD	129	n/a	0	n/a	n/a	n/a	n/a	n/a
3058.066	n/a	FFR_REC_WORD	1529033	wordpools/wasnorm_wordpool_less_exclusions.txt	LTP288	ltpFR	17	n/a	1	LIMOUSINE	824	n/a	0	n/a	n/a	n/a	n/a	n/a
3073.116	n/a	FFR_REC_WORD	1536558	wordpools/wasnorm_wordpool_less_exclusions.txt	LTP288	ltpFR	17	n/a	1	GROCERIES	663	n/a	1	n/a	n/a	n/a	n/a	n/a
3073.92	n/a	FFR_REC_WORD	1536960	wordpools/wasnorm_wordpool_less_exclusions.txt	LTP288	ltpFR	17	n/a	1	WORLD	1622	n/a	1	n/a	n/a	n/a	n/a	n/a
3074.948	n/a	FFR_REC_WORD	1537474	wordpools/wasnorm_wordpool_less_exclusions.txt	LTP288	ltpFR	17	n/a	1	COMET	353	n/a	1	n/a	n/a	n/a	n/a	n/a
3075.56	n/a	FFR_REC_WORD	1537780	wordpools/wasnorm_wordpool_less_exclusions.txt	LTP288	ltpFR	17	n/a	1	RING	1193	n/a	0	n/a	n/a	n/a	n/a	n/a
3076.024	n/a	FFR_REC_WORD	1538012	wordpools/wasnorm_wordpool_less_exclusions.txt	LTP288	ltpFR	17	n/a	1	NECKLACE	940	n/a	0	n/a	n/a	n/a	n/a	n/a
3076.62	n/a	FFR_REC_WORD	1538310	wordpools/wasnorm_wordpool_less_exclusions.txt	LTP288	ltpFR	17	n/a	1	EUROPE	541	n/a	1	n/a	n/a	n/a	n/a	n/a
3077.98	n/a	FFR_REC_WORD	1538990	wordpools/wasnorm_wordpool_less_exclusions.txt	LTP288	ltpFR	17	n/a	-1	COUNTY	389	n/a	-1	n/a	n/a	n/a	n/a	n/a
3079.61	n/a	FFR_REC_WORD	1539805	wordpools/wasnorm_wordpool_less_exclusions.txt	LTP288	ltpFR	17	n/a	-1	FIDDLE	561	n/a	-1	n/a	n/a	n/a	n/a	n/a
3087.328	n/a	FFR_REC_WORD	1543664	wordpools/wasnorm_wordpool_less_exclusions.txt	LTP288	ltpFR	17	n/a	1	DIVER	476	n/a	1	n/a	n/a	n/a	n/a	n/a
3088.002	n/a	FFR_REC_WORD	1544001	wordpools/wasnorm_wordpool_less_exclusions.txt	LTP288	ltpFR	17	n/a	1	PATRIOT	1026	n/a	1	n/a	n/a	n/a	n/a	n/a
3088.908	n/a	FFR_REC_WORD	1544454	wordpools/wasnorm_wordpool_less_exclusions.txt	LTP288	ltpFR	17	n/a	0	MARINE	869	n/a	1	n/a	n/a	n/a	n/a	n/a
3089.81	n/a	FFR_REC_WORD	1544905	wordpools/wasnorm_wordpool_less_exclusions.txt	LTP288	ltpFR	17	n/a	1	DOCK	477	n/a	0	n/a	n/a	n/a	n/a	n/a
3090.398	n/a	FFR_REC_WORD	1545199	wordpools/wasnorm_wordpool_less_exclusions.txt	LTP288	ltpFR	17	n/a	0	PIER	1063	n/a	1	n/a	n/a	n/a	n/a	n/a
3091.028	n/a	FFR_REC_WORD	1545514	wordpools/wasnorm_wordpool_less_exclusions.txt	LTP288	ltpFR	17	n/a	1	ANCHOR	21	n/a	0	n/a	n/a	n/a	n/a	n/a
3093.5	n/a	FFR_REC_WORD	1546750	wordpools/wasnorm_wordpool_less_exclusions.txt	LTP288	ltpFR	17	n/a	1	DECK	443	n/a	0	n/a	n/a	n/a	n/a	n/a
3093.994	n/a	FFR_REC_WORD	1546997	wordpools/wasnorm_wordpool_less_exclusions.txt	LTP288	ltpFR	17	n/a	1	PORCH	1106	n/a	0	n/a	n/a	n/a	n/a	n/a
3094.592	n/a	FFR_REC_WORD	1547296	wordpools/wasnorm_wordpool_less_exclusions.txt	LTP288	ltpFR	17	n/a	1	PRESIDENT	1121	n/a	1	n/a	n/a	n/a	n/a	n/a
3103.944	n/a	FFR_REC_WORD	1551972	wordpools/wasnorm_wordpool_less_exclusions.txt	LTP288	ltpFR	17	n/a	0	LADY	794	n/a	1	n/a	n/a	n/a	n/a	n/a
3104.776	n/a	FFR_REC_WORD	1552388	wordpools/wasnorm_wordpool_less_exclusions.txt	LTP288	ltpFR	17	n/a	0	DRAWING	494	n/a	0	n/a	n/a	n/a	n/a	n/a
3107.934	n/a	FFR_REC_WORD	1553967	wordpools/wasnorm_wordpool_less_exclusions.txt	LTP288	ltpFR	17	n/a	0	WOMAN	1620	n/a	1	n/a	n/a	n/a	n/a	n/a
3108.948	n/a	FFR_REC_WORD	1554474	wordpools/wasnorm_wordpool_less_exclusions.txt	LTP288	ltpFR	17	n/a	0	POND	1101	n/a	0	n/a	n/a	n/a	n/a	n/a
3111.712	n/a	FFR_REC_WORD	1555856	wordpools/wasnorm_wordpool_less_exclusions.txt	LTP288	ltpFR	17	n/a	-1	CREEK	404	n/a	-1	n/a	n/a	n/a	n/a	n/a
3113.882	n/a	FFR_REC_WORD	1556941	wordpools/wasnorm_wordpool_less_exclusions.txt	LTP288	ltpFR	17	n/a	0	DAM	436	n/a	1	n/a	n/a	n/a	n/a	n/a
3114.7	n/a	FFR_REC_WORD	1557350	wordpools/wasnorm_wordpool_less_exclusions.txt	LTP288	ltpFR	17	n/a	0	CUBE	420	n/a	1	n/a	n/a	n/a	n/a	n/a
3128.976	n/a	FFR_REC_WORD	1564488	wordpools/wasnorm_wordpool_less_exclusions.txt	LTP288	ltpFR	17	n/a	0	PLUTO	1092	n/a	1	n/a	n/a	n/a	n/a	n/a
3129.88	n/a	FFR_REC_WORD	1564940	wordpools/wasnorm_wordpool_less_exclusions.txt	LTP288	ltpFR	17	n/a	0	NEPTUNE	943	n/a	1	n/a	n/a	n/a	n/a	n/a
3130.774	n/a	FFR_REC_WORD	1565387	wordpools/wasnorm_wordpool_less_exclusions.txt	LTP288	ltpFR	17	n/a	0	MARS	873	n/a	1	n/a	n/a	n/a	n/a	n/a
3131.414	n/a	FFR_REC_WORD	1565707	wordpools/wasnorm_wordpool_less_exclusions.txt	LTP288	ltpFR	17	n/a	0	VENUS	1557	n/a	1	n/a	n/a	n/a	n/a	n/a
3138.112	n/a	FFR_REC_WORD	1569056	wordpools/wasnorm_wordpool_less_exclusions.txt	LTP288	ltpFR	17	n/a	-1	WHISKERS	1605	n/a	-1	n/a	n/a	n/a	n/a	n/a
3138.808	n/a	FFR_REC_WORD	1569404	wordpools/wasnorm_wordpool_less_exclusions.txt	LTP288	ltpFR	17	n/a	-1	ATTIRE	57	n/a	-1	n/a	n/a	n/a	n/a	n/a
3141.858	n/a	FFR_REC_WORD	1570929	wordpools/wasnorm_wordpool_less_exclusions.txt	LTP288	ltpFR	17	n/a	-1	CLOSET	326	n/a	-1	n/a	n/a	n/a	n/a	n/a
3142.566	n/a	FFR_REC_WORD	1571283	wordpools/wasnorm_wordpool_less_exclusions.txt	LTP288	ltpFR	17	n/a	-1	LOFT	840	n/a	-1	n/a	n/a	n/a	n/a	n/a
3148.7	n/a	FFR_REC_WORD	1574350	wordpools/wasnorm_wordpool_less_exclusions.txt	LTP288	ltpFR	17	n/a	1	CHERRY	293	n/a	0	n/a	n/a	n/a	n/a	n/a
3149.596	n/a	FFR_REC_WORD	1574798	wordpools/wasnorm_wordpool_less_exclusions.txt	LTP288	ltpFR	17	n/a	1	BREAST	171	n/a	0	n/a	n/a	n/a	n/a	n/a
3158.168	n/a	FFR_REC_WORD	1579084	wordpools/wasnorm_wordpool_less_exclusions.txt	LTP288	ltpFR	17	n/a	1	DOG	480	n/a	1	n/a	n/a	n/a	n/a	n/a
3176.698	n/a	FFR_REC_WORD	1588349	wordpools/wasnorm_wordpool_less_exclusions.txt	LTP288	ltpFR	17	n/a	-1	RUM	1217	n/a	-1	n/a	n/a	n/a	n/a	n/a
3178.488	n/a	FFR_REC_WORD	1589244	wordpools/wasnorm_wordpool_less_exclusions.txt	LTP288	ltpFR	17	n/a	-1	PAN	1008	n/a	-1	n/a	n/a	n/a	n/a	n/a
3201.096	n/a	FFR_REC_WORD	1600548	wordpools/wasnorm_wordpool_less_exclusions.txt	LTP288	ltpFR	17	n/a	0	KITE	779	n/a	0	n/a	n/a	n/a	n/a	n/a
3201.606	n/a	FFR_REC_WORD	1600803	wordpools/wasnorm_wordpool_less_exclusions.txt	LTP288	ltpFR	17	n/a	0	SWATTER	1418	n/a	0	n/a	n/a	n/a	n/a	n/a
3205.354	n/a	FFR_REC_WORD_VV	1602677	wordpools/wasnorm_wordpool_less_exclusions.txt	LTP288	ltpFR	17	n/a	n/a	<>	-1	n/a	n/a	n/a	n/a	n/a	n/a	n/a
3205.606	n/a	FFR_REC_WORD	1602803	wordpools/wasnorm_wordpool_less_exclusions.txt	LTP288	ltpFR	17	n/a	0	FINGERNAIL	568	n/a	0	n/a	n/a	n/a	n/a	n/a
3206.726	n/a	FFR_REC_WORD	1603363	wordpools/wasnorm_wordpool_less_exclusions.txt	LTP288	ltpFR	17	n/a	0	TOE	1473	n/a	0	n/a	n/a	n/a	n/a	n/a
3207.308	n/a	FFR_REC_WORD	1603654	wordpools/wasnorm_wordpool_less_exclusions.txt	LTP288	ltpFR	17	n/a	0	DRIVER	499	n/a	1	n/a	n/a	n/a	n/a	n/a
3208.106	n/a	FFR_REC_WORD	1604053	wordpools/wasnorm_wordpool_less_exclusions.txt	LTP288	ltpFR	17	n/a	1	TOAD	1470	n/a	0	n/a	n/a	n/a	n/a	n/a
3209.014	n/a	FFR_REC_WORD	1604507	wordpools/wasnorm_wordpool_less_exclusions.txt	LTP288	ltpFR	17	n/a	0	FENCE	560	n/a	1	n/a	n/a	n/a	n/a	n/a
3211.296	n/a	FFR_REC_WORD	1605648	wordpools/wasnorm_wordpool_less_exclusions.txt	LTP288	ltpFR	17	n/a	0	GRAVEL	659	n/a	0	n/a	n/a	n/a	n/a	n/a
3214.506	n/a	FFR_REC_WORD	1607253	wordpools/wasnorm_wordpool_less_exclusions.txt	LTP288	ltpFR	17	n/a	1	MERMAID	887	n/a	1	n/a	n/a	n/a	n/a	n/a
3215.12	n/a	FFR_REC_WORD	1607560	wordpools/wasnorm_wordpool_less_exclusions.txt	LTP288	ltpFR	17	n/a	1	ORNAMENT	985	n/a	0	n/a	n/a	n/a	n/a	n/a
3226.604	n/a	FFR_REC_WORD	1613302	wordpools/wasnorm_wordpool_less_exclusions.txt	LTP288	ltpFR	17	n/a	0	BLUEBERRY	140	n/a	0	n/a	n/a	n/a	n/a	n/a
3227.226	n/a	FFR_REC_WORD	1613613	wordpools/wasnorm_wordpool_less_exclusions.txt	LTP288	ltpFR	17	n/a	0	PARENT	1013	n/a	1	n/a	n/a	n/a	n/a	n/a
3228.168	n/a	FFR_REC_WORD	1614084	wordpools/wasnorm_wordpool_less_exclusions.txt	LTP288	ltpFR	17	n/a	-1	UNCLE	1536	n/a	-1	n/a	n/a	n/a	n/a	n/a
3228.608	n/a	FFR_REC_WORD	1614304	wordpools/wasnorm_wordpool_less_exclusions.txt	LTP288	ltpFR	17	n/a	-1	FAMILY	550	n/a	-1	n/a	n/a	n/a	n/a	n/a
3229.272	n/a	FFR_REC_WORD	1614636	wordpools/wasnorm_wordpool_less_exclusions.txt	LTP288	ltpFR	17	n/a	0	MOTHER	921	n/a	1	n/a	n/a	n/a	n/a	n/a
3230.014	n/a	FFR_REC_WORD	1615007	wordpools/wasnorm_wordpool_less_exclusions.txt	LTP288	ltpFR	17	n/a	0	MAJOR	859	n/a	1	n/a	n/a	n/a	n/a	n/a
3517.014	n/a	REC_START	1758507	n/a	LTP288	ltpFR	17	1	n/a	n/a	n/a	n/a	n/a	n/a	n/a	n/a	n/a	n/a
3517.074	n/a	RECOG_TARGET	1758537	n/a	LTP288	ltpFR	17	1	-1	CROSS	413	4	-1	n/a	n/a	n/a	n/a	n/a
3517.944	n/a	RECOG_RESP	1758972	n/a	LTP288	ltpFR	17	1	-1	CROSS	413	n/a	-1	n/a	n/a	n/a	n/a	n/a
3518.57	n/a	RECOG_CONF	1759285	n/a	LTP288	ltpFR	17	1	-1	CROSS	413	4	-1	n/a	n/a	n/a	n/a	n/a
3520.268	n/a	RECOG_TARGET	1760134	n/a	LTP288	ltpFR	17	1	-1	EXPERT	543	2	-1	n/a	n/a	n/a	n/a	n/a
3520.734	n/a	RECOG_RESP	1760367	n/a	LTP288	ltpFR	17	1	-1	EXPERT	543	n/a	-1	n/a	n/a	n/a	n/a	n/a
3521.396	n/a	RECOG_CONF	1760698	n/a	LTP288	ltpFR	17	1	-1	EXPERT	543	2	-1	n/a	n/a	n/a	n/a	n/a
3522.98	n/a	RECOG_TARGET	1761490	n/a	LTP288	ltpFR	17	1	0	HAMBURGER	679	4	1	n/a	n/a	n/a	n/a	n/a
3523.456	n/a	RECOG_RESP	1761728	n/a	LTP288	ltpFR	17	1	0	HAMBURGER	679	n/a	1	n/a	n/a	n/a	n/a	n/a
3523.902	n/a	RECOG_CONF	1761951	n/a	LTP288	ltpFR	17	1	0	HAMBURGER	679	4	1	n/a	n/a	n/a	n/a	n/a
3525.404	n/a	RECOG_TARGET	1762702	n/a	LTP288	ltpFR	17	1	1	SOFTBALL	1343	5	0	n/a	n/a	n/a	n/a	n/a
3525.836	n/a	RECOG_RESP	1762918	n/a	LTP288	ltpFR	17	1	1	SOFTBALL	1343	n/a	0	n/a	n/a	n/a	n/a	n/a
3526.184	n/a	RECOG_CONF	1763092	n/a	LTP288	ltpFR	17	1	1	SOFTBALL	1343	5	0	n/a	n/a	n/a	n/a	n/a
3527.848	n/a	RECOG_TARGET	1763924	n/a	LTP288	ltpFR	17	1	0	DART	440	5	0	n/a	n/a	n/a	n/a	n/a
3528.36	n/a	RECOG_RESP	1764180	n/a	LTP288	ltpFR	17	1	0	DART	440	n/a	0	n/a	n/a	n/a	n/a	n/a
3528.804	n/a	RECOG_CONF	1764402	n/a	LTP288	ltpFR	17	1	0	DART	440	5	0	n/a	n/a	n/a	n/a	n/a
3530.274	n/a	RECOG_TARGET	1765137	n/a	LTP288	ltpFR	17	1	1	BUSH	202	5	0	n/a	n/a	n/a	n/a	n/a
3530.716	n/a	RECOG_RESP	1765358	n/a	LTP288	ltpFR	17	1	1	BUSH	202	n/a	0	n/a	n/a	n/a	n/a	n/a
3531.244	n/a	RECOG_CONF	1765622	n/a	LTP288	ltpFR	17	1	1	BUSH	202	5	0	n/a	n/a	n/a	n/a	n/a
3532.682	n/a	RECOG_TARGET	1766341	n/a	LTP288	ltpFR	17	1	-1	TWIG	1527	3	-1	n/a	n/a	n/a	n/a	n/a
3533.696	n/a	RECOG_RESP	1766848	n/a	LTP288	ltpFR	17	1	-1	TWIG	1527	n/a	-1	n/a	n/a	n/a	n/a	n/a
3534.212	n/a	RECOG_CONF	1767106	n/a	LTP288	ltpFR	17	1	-1	TWIG	1527	3	-1	n/a	n/a	n/a	n/a	n/a
3535.844	n/a	RECOG_TARGET	1767922	n/a	LTP288	ltpFR	17	1	1	WELL	1600	2	0	n/a	n/a	n/a	n/a	n/a
3536.526	n/a	RECOG_RESP	1768263	n/a	LTP288	ltpFR	17	1	1	WELL	1600	n/a	0	n/a	n/a	n/a	n/a	n/a
3536.896	n/a	RECOG_CONF	1768448	n/a	LTP288	ltpFR	17	1	1	WELL	1600	2	0	n/a	n/a	n/a	n/a	n/a
3538.538	n/a	RECOG_LURE	1769269	n/a	LTP288	ltpFR	17	1	n/a	VALLEY	1545	2	n/a	n/a	n/a	n/a	n/a	n/a
3539.356	n/a	RECOG_RESP	1769678	n/a	LTP288	ltpFR	17	1	n/a	VALLEY	1545	n/a	n/a	n/a	n/a	n/a	n/a	n/a
3540.498	n/a	RECOG_CONF	1770249	n/a	LTP288	ltpFR	17	1	n/a	VALLEY	1545	2	n/a	n/a	n/a	n/a	n/a	n/a
3542.148	n/a	RECOG_LURE	1771074	n/a	LTP288	ltpFR	17	1	n/a	PLAID	1080	4	n/a	n/a	n/a	n/a	n/a	n/a
3542.916	n/a	RECOG_RESP	1771458	n/a	LTP288	ltpFR	17	1	n/a	PLAID	1080	n/a	n/a	n/a	n/a	n/a	n/a	n/a
3543.362	n/a	RECOG_CONF	1771681	n/a	LTP288	ltpFR	17	1	n/a	PLAID	1080	4	n/a	n/a	n/a	n/a	n/a	n/a
3544.876	n/a	RECOG_TARGET	1772438	n/a	LTP288	ltpFR	17	1	1	CARTON	251	3	0	n/a	n/a	n/a	n/a	n/a
3545.452	n/a	RECOG_RESP	1772726	n/a	LTP288	ltpFR	17	1	1	CARTON	251	n/a	0	n/a	n/a	n/a	n/a	n/a
3545.942	n/a	RECOG_CONF	1772971	n/a	LTP288	ltpFR	17	1	1	CARTON	251	3	0	n/a	n/a	n/a	n/a	n/a
3547.474	n/a	RECOG_TARGET	1773737	n/a	LTP288	ltpFR	17	1	-1	LAPEL	800	5	-1	n/a	n/a	n/a	n/a	n/a
3547.966	n/a	RECOG_RESP	1773983	n/a	LTP288	ltpFR	17	1	-1	LAPEL	800	n/a	-1	n/a	n/a	n/a	n/a	n/a
3548.434	n/a	RECOG_CONF	1774217	n/a	LTP288	ltpFR	17	1	-1	LAPEL	800	5	-1	n/a	n/a	n/a	n/a	n/a
3550.0	n/a	RECOG_TARGET	1775000	n/a	LTP288	ltpFR	17	1	0	SPACE	1345	1	1	n/a	n/a	n/a	n/a	n/a
3550.916	n/a	RECOG_RESP	1775458	n/a	LTP288	ltpFR	17	1	0	SPACE	1345	n/a	1	n/a	n/a	n/a	n/a	n/a
3551.86	n/a	RECOG_CONF	1775930	n/a	LTP288	ltpFR	17	1	0	SPACE	1345	1	1	n/a	n/a	n/a	n/a	n/a
3553.512	n/a	RECOG_TARGET	1776756	n/a	LTP288	ltpFR	17	1	1	VITAMIN	1574	4	0	n/a	n/a	n/a	n/a	n/a
3554.082	n/a	RECOG_RESP	1777041	n/a	LTP288	ltpFR	17	1	1	VITAMIN	1574	n/a	0	n/a	n/a	n/a	n/a	n/a
3554.512	n/a	RECOG_CONF	1777256	n/a	LTP288	ltpFR	17	1	1	VITAMIN	1574	4	0	n/a	n/a	n/a	n/a	n/a
3556.106	n/a	RECOG_TARGET	1778053	n/a	LTP288	ltpFR	17	1	1	GROCERIES	663	5	1	n/a	n/a	n/a	n/a	n/a
3556.572	n/a	RECOG_RESP	1778286	n/a	LTP288	ltpFR	17	1	1	GROCERIES	663	n/a	1	n/a	n/a	n/a	n/a	n/a
3556.984	n/a	RECOG_CONF	1778492	n/a	LTP288	ltpFR	17	1	1	GROCERIES	663	5	1	n/a	n/a	n/a	n/a	n/a
3558.564	n/a	RECOG_LURE	1779282	n/a	LTP288	ltpFR	17	1	n/a	BUNNY	198	5	n/a	n/a	n/a	n/a	n/a	n/a
3559.242	n/a	RECOG_RESP	1779621	n/a	LTP288	ltpFR	17	1	n/a	BUNNY	198	n/a	n/a	n/a	n/a	n/a	n/a	n/a
3559.646	n/a	RECOG_CONF	1779823	n/a	LTP288	ltpFR	17	1	n/a	BUNNY	198	5	n/a	n/a	n/a	n/a	n/a	n/a
3561.16	n/a	RECOG_TARGET	1780580	n/a	LTP288	ltpFR	17	1	-1	TURKEY	1520	4	-1	n/a	n/a	n/a	n/a	n/a
3561.652	n/a	RECOG_RESP	1780826	n/a	LTP288	ltpFR	17	1	-1	TURKEY	1520	n/a	-1	n/a	n/a	n/a	n/a	n/a
3562.064	n/a	RECOG_CONF	1781032	n/a	LTP288	ltpFR	17	1	-1	TURKEY	1520	4	-1	n/a	n/a	n/a	n/a	n/a
3563.584	n/a	RECOG_TARGET	1781792	n/a	LTP288	ltpFR	17	1	1	BIRD	129	5	0	n/a	n/a	n/a	n/a	n/a
3564.062	n/a	RECOG_RESP	1782031	n/a	LTP288	ltpFR	17	1	1	BIRD	129	n/a	0	n/a	n/a	n/a	n/a	n/a
3564.466	n/a	RECOG_CONF	1782233	n/a	LTP288	ltpFR	17	1	1	BIRD	129	5	0	n/a	n/a	n/a	n/a	n/a
3566.094	n/a	RECOG_TARGET	1783047	n/a	LTP288	ltpFR	17	1	-1	BAND	78	2	-1	n/a	n/a	n/a	n/a	n/a
3566.482	n/a	RECOG_RESP	1783241	n/a	LTP288	ltpFR	17	1	-1	BAND	78	n/a	-1	n/a	n/a	n/a	n/a	n/a
3566.968	n/a	RECOG_CONF	1783484	n/a	LTP288	ltpFR	17	1	-1	BAND	78	2	-1	n/a	n/a	n/a	n/a	n/a
3568.468	n/a	RECOG_TARGET	1784234	n/a	LTP288	ltpFR	17	1	0	DRIVER	499	1	1	n/a	n/a	n/a	n/a	n/a
3568.888	n/a	RECOG_RESP	1784444	n/a	LTP288	ltpFR	17	1	0	DRIVER	499	n/a	1	n/a	n/a	n/a	n/a	n/a
3569.35	n/a	RECOG_CONF	1784675	n/a	LTP288	ltpFR	17	1	0	DRIVER	499	1	1	n/a	n/a	n/a	n/a	n/a
3572.368	n/a	REC_START	1786184	n/a	LTP288	ltpFR	17	2	n/a	n/a	n/a	n/a	n/a	n/a	n/a	n/a	n/a	n/a
3572.43	n/a	RECOG_LURE	1786215	n/a	LTP288	ltpFR	17	2	n/a	BULLET	194	3	n/a	n/a	n/a	n/a	n/a	n/a
3573.11	n/a	RECOG_RESP	1786555	n/a	LTP288	ltpFR	17	2	n/a	BULLET	194	n/a	n/a	n/a	n/a	n/a	n/a	n/a
3573.626	n/a	RECOG_CONF	1786813	n/a	LTP288	ltpFR	17	2	n/a	BULLET	194	3	n/a	n/a	n/a	n/a	n/a	n/a
3575.162	n/a	RECOG_LURE	1787581	n/a	LTP288	ltpFR	17	2	n/a	BATHTUB	100	1	n/a	n/a	n/a	n/a	n/a	n/a
3576.694	n/a	RECOG_RESP	1788347	n/a	LTP288	ltpFR	17	2	n/a	BATHTUB	100	n/a	n/a	n/a	n/a	n/a	n/a	n/a
3577.312	n/a	RECOG_CONF	1788656	n/a	LTP288	ltpFR	17	2	n/a	BATHTUB	100	1	n/a	n/a	n/a	n/a	n/a	n/a
3578.926	n/a	RECOG_TARGET	1789463	n/a	LTP288	ltpFR	17	2	1	COUNTRY	388	2	1	n/a	n/a	n/a	n/a	n/a
3579.47	n/a	RECOG_RESP	1789735	n/a	LTP288	ltpFR	17	2	1	COUNTRY	388	n/a	1	n/a	n/a	n/a	n/a	n/a
3579.892	n/a	RECOG_CONF	1789946	n/a	LTP288	ltpFR	17	2	1	COUNTRY	388	2	1	n/a	n/a	n/a	n/a	n/a
3581.486	n/a	RECOG_LURE	1790743	n/a	LTP288	ltpFR	17	2	n/a	ITEM	746	5	n/a	n/a	n/a	n/a	n/a	n/a
3582.12	n/a	RECOG_RESP	1791060	n/a	LTP288	ltpFR	17	2	n/a	ITEM	746	n/a	n/a	n/a	n/a	n/a	n/a	n/a
3582.528	n/a	RECOG_CONF	1791264	n/a	LTP288	ltpFR	17	2	n/a	ITEM	746	5	n/a	n/a	n/a	n/a	n/a	n/a
3584.114	n/a	RECOG_LURE	1792057	n/a	LTP288	ltpFR	17	2	n/a	MUFFIN	929	5	n/a	n/a	n/a	n/a	n/a	n/a
3584.75	n/a	RECOG_RESP	1792375	n/a	LTP288	ltpFR	17	2	n/a	MUFFIN	929	n/a	n/a	n/a	n/a	n/a	n/a	n/a
3585.138	n/a	RECOG_CONF	1792569	n/a	LTP288	ltpFR	17	2	n/a	MUFFIN	929	5	n/a	n/a	n/a	n/a	n/a	n/a
3586.706	n/a	RECOG_TARGET	1793353	n/a	LTP288	ltpFR	17	2	1	DOG	480	5	1	n/a	n/a	n/a	n/a	n/a
3587.186	n/a	RECOG_RESP	1793593	n/a	LTP288	ltpFR	17	2	1	DOG	480	n/a	1	n/a	n/a	n/a	n/a	n/a
3587.608	n/a	RECOG_CONF	1793804	n/a	LTP288	ltpFR	17	2	1	DOG	480	5	1	n/a	n/a	n/a	n/a	n/a
3589.078	n/a	RECOG_TARGET	1794539	n/a	LTP288	ltpFR	17	2	0	SHUTTER	1300	4	1	n/a	n/a	n/a	n/a	n/a
3589.536	n/a	RECOG_RESP	1794768	n/a	LTP288	ltpFR	17	2	0	SHUTTER	1300	n/a	1	n/a	n/a	n/a	n/a	n/a
3589.946	n/a	RECOG_CONF	1794973	n/a	LTP288	ltpFR	17	2	0	SHUTTER	1300	4	1	n/a	n/a	n/a	n/a	n/a
3591.406	n/a	RECOG_TARGET	1795703	n/a	LTP288	ltpFR	17	2	1	DISC	473	3	0	n/a	n/a	n/a	n/a	n/a
3592.09	n/a	RECOG_RESP	1796045	n/a	LTP288	ltpFR	17	2	1	DISC	473	n/a	0	n/a	n/a	n/a	n/a	n/a
3592.526	n/a	RECOG_CONF	1796263	n/a	LTP288	ltpFR	17	2	1	DISC	473	3	0	n/a	n/a	n/a	n/a	n/a
3593.996	n/a	RECOG_LURE	1796998	n/a	LTP288	ltpFR	17	2	n/a	FACTORY	548	3	n/a	n/a	n/a	n/a	n/a	n/a
3594.45	n/a	RECOG_RESP_VV	1797225	n/a	LTP288	ltpFR	17	2	n/a	FACTORY	548	n/a	n/a	n/a	n/a	n/a	n/a	n/a
3594.89	n/a	RECOG_RESP	1797445	n/a	LTP288	ltpFR	17	2	n/a	FACTORY	548	n/a	n/a	n/a	n/a	n/a	n/a	n/a
3595.396	n/a	RECOG_CONF	1797698	n/a	LTP288	ltpFR	17	2	n/a	FACTORY	548	3	n/a	n/a	n/a	n/a	n/a	n/a
3596.958	n/a	RECOG_LURE	1798479	n/a	LTP288	ltpFR	17	2	n/a	SPOON	1357	4	n/a	n/a	n/a	n/a	n/a	n/a
3597.546	n/a	RECOG_RESP	1798773	n/a	LTP288	ltpFR	17	2	n/a	SPOON	1357	n/a	n/a	n/a	n/a	n/a	n/a	n/a
3597.918	n/a	RECOG_CONF	1798959	n/a	LTP288	ltpFR	17	2	n/a	SPOON	1357	4	n/a	n/a	n/a	n/a	n/a	n/a
3599.438	n/a	RECOG_TARGET	1799719	n/a	LTP288	ltpFR	17	2	0	LADY	794	4	1	n/a	n/a	n/a	n/a	n/a
3600.022	n/a	RECOG_RESP	1800011	n/a	LTP288	ltpFR	17	2	0	LADY	794	n/a	1	n/a	n/a	n/a	n/a	n/a
3600.418	n/a	RECOG_CONF	1800209	n/a	LTP288	ltpFR	17	2	0	LADY	794	4	1	n/a	n/a	n/a	n/a	n/a
3601.932	n/a	RECOG_TARGET	1800966	n/a	LTP288	ltpFR	17	2	1	TRENCH	1503	5	0	n/a	n/a	n/a	n/a	n/a
3602.516	n/a	RECOG_RESP	1801258	n/a	LTP288	ltpFR	17	2	1	TRENCH	1503	n/a	0	n/a	n/a	n/a	n/a	n/a
3602.94	n/a	RECOG_CONF	1801470	n/a	LTP288	ltpFR	17	2	1	TRENCH	1503	5	0	n/a	n/a	n/a	n/a	n/a
3604.424	n/a	RECOG_LURE	1802212	n/a	LTP288	ltpFR	17	2	n/a	DELINQUENT	445	5	n/a	n/a	n/a	n/a	n/a	n/a
3605.076	n/a	RECOG_RESP	1802538	n/a	LTP288	ltpFR	17	2	n/a	DELINQUENT	445	n/a	n/a	n/a	n/a	n/a	n/a	n/a
3605.48	n/a	RECOG_CONF	1802740	n/a	LTP288	ltpFR	17	2	n/a	DELINQUENT	445	5	n/a	n/a	n/a	n/a	n/a	n/a
3607.018	n/a	RECOG_TARGET	1803509	n/a	LTP288	ltpFR	17	2	-1	MOWER	928	1	-1	n/a	n/a	n/a	n/a	n/a
3608.566	n/a	RECOG_RESP	1804283	n/a	LTP288	ltpFR	17	2	-1	MOWER	928	n/a	-1	n/a	n/a	n/a	n/a	n/a
3609.004	n/a	RECOG_CONF	1804502	n/a	LTP288	ltpFR	17	2	-1	MOWER	928	1	-1	n/a	n/a	n/a	n/a	n/a
3610.614	n/a	RECOG_LURE	1805307	n/a	LTP288	ltpFR	17	2	n/a	FUNERAL	613	5	n/a	n/a	n/a	n/a	n/a	n/a
3611.206	n/a	RECOG_RESP	1805603	n/a	LTP288	ltpFR	17	2	n/a	FUNERAL	613	n/a	n/a	n/a	n/a	n/a	n/a	n/a
3611.61	n/a	RECOG_CONF	1805805	n/a	LTP288	ltpFR	17	2	n/a	FUNERAL	613	5	n/a	n/a	n/a	n/a	n/a	n/a
3613.086	n/a	RECOG_TARGET	1806543	n/a	LTP288	ltpFR	17	2	-1	PAVEMENT	1028	2	-1	n/a	n/a	n/a	n/a	n/a
3614.106	n/a	RECOG_RESP	1807053	n/a	LTP288	ltpFR	17	2	-1	PAVEMENT	1028	n/a	-1	n/a	n/a	n/a	n/a	n/a
3614.502	n/a	RECOG_CONF	1807251	n/a	LTP288	ltpFR	17	2	-1	PAVEMENT	1028	2	-1	n/a	n/a	n/a	n/a	n/a
3616.152	n/a	RECOG_TARGET	1808076	n/a	LTP288	ltpFR	17	2	-1	FLUTE	585	3	-1	n/a	n/a	n/a	n/a	n/a
3616.618	n/a	RECOG_RESP	1808309	n/a	LTP288	ltpFR	17	2	-1	FLUTE	585	n/a	-1	n/a	n/a	n/a	n/a	n/a
3617.058	n/a	RECOG_CONF	1808529	n/a	LTP288	ltpFR	17	2	-1	FLUTE	585	3	-1	n/a	n/a	n/a	n/a	n/a
3618.474	n/a	RECOG_LURE	1809237	n/a	LTP288	ltpFR	17	2	n/a	MARSH	874	4	n/a	n/a	n/a	n/a	n/a	n/a
3619.268	n/a	RECOG_RESP	1809634	n/a	LTP288	ltpFR	17	2	n/a	MARSH	874	n/a	n/a	n/a	n/a	n/a	n/a	n/a
3619.668	n/a	RECOG_CONF	1809834	n/a	LTP288	ltpFR	17	2	n/a	MARSH	874	4	n/a	n/a	n/a	n/a	n/a	n/a
3621.222	n/a	RECOG_LURE	1810611	n/a	LTP288	ltpFR	17	2	n/a	BOUILLON	154	5	n/a	n/a	n/a	n/a	n/a	n/a
3621.822	n/a	RECOG_RESP	1810911	n/a	LTP288	ltpFR	17	2	n/a	BOUILLON	154	n/a	n/a	n/a	n/a	n/a	n/a	n/a
3622.19	n/a	RECOG_CONF	1811095	n/a	LTP288	ltpFR	17	2	n/a	BOUILLON	154	5	n/a	n/a	n/a	n/a	n/a	n/a
3623.748	n/a	RECOG_LURE	1811874	n/a	LTP288	ltpFR	17	2	n/a	PICK	1058	5	n/a	n/a	n/a	n/a	n/a	n/a
3624.518	n/a	RECOG_RESP	1812259	n/a	LTP288	ltpFR	17	2	n/a	PICK	1058	n/a	n/a	n/a	n/a	n/a	n/a	n/a
3624.88	n/a	RECOG_CONF	1812440	n/a	LTP288	ltpFR	17	2	n/a	PICK	1058	5	n/a	n/a	n/a	n/a	n/a	n/a
3628.358	n/a	REC_START	1814179	n/a	LTP288	ltpFR	17	3	n/a	n/a	n/a	n/a	n/a	n/a	n/a	n/a	n/a	n/a
3628.414	n/a	RECOG_TARGET	1814207	n/a	LTP288	ltpFR	17	3	1	ANTEATER	26	4	1	n/a	n/a	n/a	n/a	n/a
3628.954	n/a	RECOG_RESP	1814477	n/a	LTP288	ltpFR	17	3	1	ANTEATER	26	n/a	1	n/a	n/a	n/a	n/a	n/a
3629.454	n/a	RECOG_CONF	1814727	n/a	LTP288	ltpFR	17	3	1	ANTEATER	26	4	1	n/a	n/a	n/a	n/a	n/a
3630.888	n/a	RECOG_TARGET	1815444	n/a	LTP288	ltpFR	17	3	0	LEOPARD	812	5	1	n/a	n/a	n/a	n/a	n/a
3631.358	n/a	RECOG_RESP	1815679	n/a	LTP288	ltpFR	17	3	0	LEOPARD	812	n/a	1	n/a	n/a	n/a	n/a	n/a
3631.836	n/a	RECOG_CONF	1815918	n/a	LTP288	ltpFR	17	3	0	LEOPARD	812	5	1	n/a	n/a	n/a	n/a	n/a
3633.25	n/a	RECOG_TARGET	1816625	n/a	LTP288	ltpFR	17	3	-1	FAMILY	550	5	-1	n/a	n/a	n/a	n/a	n/a
3633.778	n/a	RECOG_RESP	1816889	n/a	LTP288	ltpFR	17	3	-1	FAMILY	550	n/a	-1	n/a	n/a	n/a	n/a	n/a
3634.226	n/a	RECOG_CONF	1817113	n/a	LTP288	ltpFR	17	3	-1	FAMILY	550	5	-1	n/a	n/a	n/a	n/a	n/a
3635.644	n/a	RECOG_TARGET	1817822	n/a	LTP288	ltpFR	17	3	1	PORCH	1106	4	0	n/a	n/a	n/a	n/a	n/a
3636.19	n/a	RECOG_RESP	1818095	n/a	LTP288	ltpFR	17	3	1	PORCH	1106	n/a	0	n/a	n/a	n/a	n/a	n/a
3636.616	n/a	RECOG_CONF	1818308	n/a	LTP288	ltpFR	17	3	1	PORCH	1106	4	0	n/a	n/a	n/a	n/a	n/a
3638.002	n/a	RECOG_TARGET	1819001	n/a	LTP288	ltpFR	17	3	1	TIDE	1465	2	1	n/a	n/a	n/a	n/a	n/a
3638.554	n/a	RECOG_RESP	1819277	n/a	LTP288	ltpFR	17	3	1	TIDE	1465	n/a	1	n/a	n/a	n/a	n/a	n/a
3638.97	n/a	RECOG_CONF	1819485	n/a	LTP288	ltpFR	17	3	1	TIDE	1465	2	1	n/a	n/a	n/a	n/a	n/a
3640.528	n/a	RECOG_TARGET	1820264	n/a	LTP288	ltpFR	17	3	1	CATTLE	261	4	1	n/a	n/a	n/a	n/a	n/a
3640.95	n/a	RECOG_RESP	1820475	n/a	LTP288	ltpFR	17	3	1	CATTLE	261	n/a	1	n/a	n/a	n/a	n/a	n/a
3641.376	n/a	RECOG_CONF	1820688	n/a	LTP288	ltpFR	17	3	1	CATTLE	261	4	1	n/a	n/a	n/a	n/a	n/a
3642.854	n/a	RECOG_LURE	1821427	n/a	LTP288	ltpFR	17	3	n/a	GRASSHOPPER	656	n/a	n/a	n/a	n/a	n/a	n/a	n/a
3649.592	n/a	RECOG_TARGET	1824796	n/a	LTP288	ltpFR	17	3	0	SALESMAN	1225	4	1	n/a	n/a	n/a	n/a	n/a
3650.75	n/a	RECOG_RESP	1825375	n/a	LTP288	ltpFR	17	3	0	SALESMAN	1225	n/a	1	n/a	n/a	n/a	n/a	n/a
3651.186	n/a	RECOG_CONF	1825593	n/a	LTP288	ltpFR	17	3	0	SALESMAN	1225	4	1	n/a	n/a	n/a	n/a	n/a
3652.704	n/a	RECOG_TARGET	1826352	n/a	LTP288	ltpFR	17	3	-1	UNCLE	1536	5	-1	n/a	n/a	n/a	n/a	n/a
3653.33	n/a	RECOG_RESP	1826665	n/a	LTP288	ltpFR	17	3	-1	UNCLE	1536	n/a	-1	n/a	n/a	n/a	n/a	n/a
3653.758	n/a	RECOG_CONF	1826879	n/a	LTP288	ltpFR	17	3	-1	UNCLE	1536	5	-1	n/a	n/a	n/a	n/a	n/a
3655.486	n/a	RECOG_LURE	1827743	n/a	LTP288	ltpFR	17	3	n/a	AIRCRAFT	11	2	n/a	n/a	n/a	n/a	n/a	n/a
3656.206	n/a	RECOG_RESP	1828103	n/a	LTP288	ltpFR	17	3	n/a	AIRCRAFT	11	n/a	n/a	n/a	n/a	n/a	n/a	n/a
