mstime	trial_type	stim_file	subject	experiment	session	trial	task	item_name	item_num	recog_conf	resp	answer	test_x	test_y	test_z	color_b	color_g	color_r	case	font
0	SESS_START	n/a	LTP115	ltpFR	9	n/a	n/a	n/a	n/a	3	n/a	n/a	0	0	0	n/a	n/a	n/a	n/a	n/a
47797	START	n/a	LTP115	ltpFR	9	n/a	n/a	n/a	n/a	n/a	n/a	n/a	n/a	n/a	n/a	n/a	n/a	n/a	n/a	n/a
47822	PROB	n/a	LTP115	ltpFR	9	n/a	n/a	n/a	n/a	n/a	n/a	15	5	9	1	n/a	n/a	n/a	n/a	n/a
49480	PROB	n/a	LTP115	ltpFR	9	n/a	n/a	n/a	n/a	n/a	n/a	13	5	2	6	n/a	n/a	n/a	n/a	n/a
50979	PROB	n/a	LTP115	ltpFR	9	n/a	n/a	n/a	n/a	n/a	n/a	14	1	7	6	n/a	n/a	n/a	n/a	n/a
52953	PROB	n/a	LTP115	ltpFR	9	n/a	n/a	n/a	n/a	n/a	n/a	10	3	3	4	n/a	n/a	n/a	n/a	n/a
54178	PROB	n/a	LTP115	ltpFR	9	n/a	n/a	n/a	n/a	n/a	n/a	14	3	9	2	n/a	n/a	n/a	n/a	n/a
55887	PROB	n/a	LTP115	ltpFR	9	n/a	n/a	n/a	n/a	n/a	n/a	20	3	9	8	n/a	n/a	n/a	n/a	n/a
57502	PROB	n/a	LTP115	ltpFR	9	n/a	n/a	n/a	n/a	n/a	n/a	15	3	6	6	n/a	n/a	n/a	n/a	n/a
59251	PROB	n/a	LTP115	ltpFR	9	n/a	n/a	n/a	n/a	n/a	n/a	8	2	5	1	n/a	n/a	n/a	n/a	n/a
61042	PROB	n/a	LTP115	ltpFR	9	n/a	n/a	n/a	n/a	n/a	n/a	11	2	1	8	n/a	n/a	n/a	n/a	n/a
62992	PROB	n/a	LTP115	ltpFR	9	n/a	n/a	n/a	n/a	n/a	n/a	11	3	3	5	n/a	n/a	n/a	n/a	n/a
64449	PROB	n/a	LTP115	ltpFR	9	n/a	n/a	n/a	n/a	n/a	n/a	14	5	7	2	n/a	n/a	n/a	n/a	n/a
66315	STOP	n/a	LTP115	ltpFR	9	n/a	n/a	n/a	n/a	n/a	n/a	n/a	n/a	n/a	n/a	n/a	n/a	n/a	n/a	n/a
186623	WORD	wordpools/wasnorm_wordpool.txt	LTP115	ltpFR	9	1	1	SOFTBALL	1343	n/a	0	n/a	0	0	0	1	0.412841796875	0.57763671875	upper	../fonts/zerothre.ttf
190655	WORD	wordpools/wasnorm_wordpool.txt	LTP115	ltpFR	9	1	1	DETECTIVE	454	n/a	1	n/a	0	0	0	1	0.412841796875	0.57763671875	upper	../fonts/zerothre.ttf
194778	WORD	wordpools/wasnorm_wordpool.txt	LTP115	ltpFR	9	1	1	PATROL	1027	n/a	1	n/a	0	0	0	1	0.412841796875	0.57763671875	upper	../fonts/zerothre.ttf
198835	WORD	wordpools/wasnorm_wordpool.txt	LTP115	ltpFR	9	1	1	SNACK	1331	n/a	0	n/a	0	0	0	1	0.412841796875	0.57763671875	upper	../fonts/zerothre.ttf
202650	WORD	wordpools/wasnorm_wordpool.txt	LTP115	ltpFR	9	1	0	TICKET	1464	n/a	0	n/a	0	0	0	0	0.5869140625	0.422607421875	lower	../fonts/amplitud.ttf
206716	WORD	wordpools/wasnorm_wordpool.txt	LTP115	ltpFR	9	1	0	BAKER	71	n/a	1	n/a	0	0	0	0	0.5869140625	0.422607421875	lower	../fonts/amplitud.ttf
210639	WORD	wordpools/wasnorm_wordpool.txt	LTP115	ltpFR	9	1	0	ANIMAL	23	n/a	1	n/a	0	0	0	0	0.5869140625	0.422607421875	lower	../fonts/amplitud.ttf
214813	WORD	wordpools/wasnorm_wordpool.txt	LTP115	ltpFR	9	1	0	GIRAFFE	636	n/a	1	n/a	0	0	0	0	0.5869140625	0.422607421875	lower	../fonts/amplitud.ttf
218803	WORD	wordpools/wasnorm_wordpool.txt	LTP115	ltpFR	9	1	0	NEWSPAPER	948	n/a	0	n/a	0	0	0	0	0.5869140625	0.422607421875	lower	../fonts/amplitud.ttf
222635	WORD	wordpools/wasnorm_wordpool.txt	LTP115	ltpFR	9	1	1	PAPER	1011	n/a	0	n/a	0	0	0	1	0.412841796875	0.57763671875	upper	../fonts/zerothre.ttf
226783	WORD	wordpools/wasnorm_wordpool.txt	LTP115	ltpFR	9	1	1	WAGON	1578	n/a	0	n/a	0	0	0	1	0.412841796875	0.57763671875	upper	../fonts/zerothre.ttf
230840	WORD	wordpools/wasnorm_wordpool.txt	LTP115	ltpFR	9	1	0	CAFE	216	n/a	1	n/a	0	0	0	0	0.5869140625	0.422607421875	lower	../fonts/amplitud.ttf
234772	WORD	wordpools/wasnorm_wordpool.txt	LTP115	ltpFR	9	1	0	FIGHTER	564	n/a	1	n/a	0	0	0	0	0.5869140625	0.422607421875	lower	../fonts/amplitud.ttf
238821	WORD	wordpools/wasnorm_wordpool.txt	LTP115	ltpFR	9	1	0	PICTURE	1061	n/a	1	n/a	0	0	0	0	0.5869140625	0.422607421875	lower	../fonts/amplitud.ttf
242761	WORD	wordpools/wasnorm_wordpool.txt	LTP115	ltpFR	9	1	1	BEGGAR	117	n/a	1	n/a	0	0	0	1	0.412841796875	0.57763671875	upper	../fonts/zerothre.ttf
246911	WORD	wordpools/wasnorm_wordpool.txt	LTP115	ltpFR	9	1	1	VOLLEYBALL	1576	n/a	0	n/a	0	0	0	1	0.412841796875	0.57763671875	upper	../fonts/zerothre.ttf
249917	START	n/a	LTP115	ltpFR	9	n/a	n/a	n/a	n/a	n/a	n/a	n/a	n/a	n/a	n/a	n/a	n/a	n/a	n/a	n/a
251050	PROB	n/a	LTP115	ltpFR	9	n/a	n/a	n/a	n/a	n/a	n/a	16	4	6	6	n/a	n/a	n/a	n/a	n/a
253049	PROB	n/a	LTP115	ltpFR	9	n/a	n/a	n/a	n/a	n/a	n/a	19	9	8	2	n/a	n/a	n/a	n/a	n/a
254698	PROB	n/a	LTP115	ltpFR	9	n/a	n/a	n/a	n/a	n/a	n/a	8	4	3	1	n/a	n/a	n/a	n/a	n/a
256931	STOP	n/a	LTP115	ltpFR	9	n/a	n/a	n/a	n/a	n/a	n/a	n/a	n/a	n/a	n/a	n/a	n/a	n/a	n/a	n/a
259664	REC_START	n/a	LTP115	ltpFR	9	1	n/a	n/a	n/a	n/a	n/a	n/a	0	0	0	n/a	n/a	n/a	n/a	n/a
261100	REC_WORD	wordpools/wasnorm_wordpool.txt	LTP115	ltpFR	9	1	1	VOLLEYBALL	1576	n/a	0	n/a	0	0	0	n/a	n/a	n/a	n/a	n/a
261989	REC_WORD	wordpools/wasnorm_wordpool.txt	LTP115	ltpFR	9	1	1	SOFTBALL	1343	n/a	0	n/a	0	0	0	n/a	n/a	n/a	n/a	n/a
263046	REC_WORD	wordpools/wasnorm_wordpool.txt	LTP115	ltpFR	9	1	0	FIGHTER	564	n/a	1	n/a	0	0	0	n/a	n/a	n/a	n/a	n/a
264079	REC_WORD	wordpools/wasnorm_wordpool.txt	LTP115	ltpFR	9	1	0	BAKER	71	n/a	1	n/a	0	0	0	n/a	n/a	n/a	n/a	n/a
265121	REC_WORD	wordpools/wasnorm_wordpool.txt	LTP115	ltpFR	9	1	0	NEWSPAPER	948	n/a	0	n/a	0	0	0	n/a	n/a	n/a	n/a	n/a
266129	REC_WORD	wordpools/wasnorm_wordpool.txt	LTP115	ltpFR	9	1	1	PAPER	1011	n/a	0	n/a	0	0	0	n/a	n/a	n/a	n/a	n/a
269531	REC_WORD	wordpools/wasnorm_wordpool.txt	LTP115	ltpFR	9	1	0	GIRAFFE	636	n/a	1	n/a	0	0	0	n/a	n/a	n/a	n/a	n/a
270295	REC_WORD	wordpools/wasnorm_wordpool.txt	LTP115	ltpFR	9	1	0	ANIMAL	23	n/a	1	n/a	0	0	0	n/a	n/a	n/a	n/a	n/a
271482	REC_WORD	wordpools/wasnorm_wordpool.txt	LTP115	ltpFR	9	1	1	SNACK	1331	n/a	0	n/a	0	0	0	n/a	n/a	n/a	n/a	n/a
283814	REC_WORD	wordpools/wasnorm_wordpool.txt	LTP115	ltpFR	9	1	0	PICTURE	1061	n/a	1	n/a	0	0	0	n/a	n/a	n/a	n/a	n/a
291232	REC_WORD	wordpools/wasnorm_wordpool.txt	LTP115	ltpFR	9	1	1	DETECTIVE	454	n/a	1	n/a	0	0	0	n/a	n/a	n/a	n/a	n/a
292065	REC_WORD	wordpools/wasnorm_wordpool.txt	LTP115	ltpFR	9	1	1	PATROL	1027	n/a	1	n/a	0	0	0	n/a	n/a	n/a	n/a	n/a
308997	REC_WORD	wordpools/wasnorm_wordpool.txt	LTP115	ltpFR	9	1	0	CAFE	216	n/a	1	n/a	0	0	0	n/a	n/a	n/a	n/a	n/a
343118	START	n/a	LTP115	ltpFR	9	n/a	n/a	n/a	n/a	n/a	n/a	n/a	n/a	n/a	n/a	n/a	n/a	n/a	n/a	n/a
344625	PROB	n/a	LTP115	ltpFR	9	n/a	n/a	n/a	n/a	n/a	n/a	14	3	3	8	n/a	n/a	n/a	n/a	n/a
346749	PROB	n/a	LTP115	ltpFR	9	n/a	n/a	n/a	n/a	n/a	n/a	19	2	8	9	n/a	n/a	n/a	n/a	n/a
348382	PROB	n/a	LTP115	ltpFR	9	n/a	n/a	n/a	n/a	n/a	n/a	17	1	7	9	n/a	n/a	n/a	n/a	n/a
349803	STOP	n/a	LTP115	ltpFR	9	n/a	n/a	n/a	n/a	n/a	n/a	n/a	n/a	n/a	n/a	n/a	n/a	n/a	n/a	n/a
351939	WORD	wordpools/wasnorm_wordpool.txt	LTP115	ltpFR	9	2	0	UNIVERSE	1540	n/a	1	n/a	0	0	0	0	0.5869140625	0.422607421875	lower	../fonts/amplitud.ttf
354947	START	n/a	LTP115	ltpFR	9	n/a	n/a	n/a	n/a	n/a	n/a	n/a	n/a	n/a	n/a	n/a	n/a	n/a	n/a	n/a
356079	PROB	n/a	LTP115	ltpFR	9	n/a	n/a	n/a	n/a	n/a	n/a	10	1	7	2	n/a	n/a	n/a	n/a	n/a
357962	PROB	n/a	LTP115	ltpFR	9	n/a	n/a	n/a	n/a	n/a	n/a	17	8	6	3	n/a	n/a	n/a	n/a	n/a
360011	PROB	n/a	LTP115	ltpFR	9	n/a	n/a	n/a	n/a	n/a	n/a	11	1	2	8	n/a	n/a	n/a	n/a	n/a
361361	PROB	n/a	LTP115	ltpFR	9	n/a	n/a	n/a	n/a	n/a	n/a	10	1	1	8	n/a	n/a	n/a	n/a	n/a
362931	STOP	n/a	LTP115	ltpFR	9	n/a	n/a	n/a	n/a	n/a	n/a	n/a	n/a	n/a	n/a	n/a	n/a	n/a	n/a	n/a
364001	WORD	wordpools/wasnorm_wordpool.txt	LTP115	ltpFR	9	2	0	GLOBE	641	n/a	0	n/a	0	0	0	0	0.5869140625	0.422607421875	lower	../fonts/amplitud.ttf
367009	START	n/a	LTP115	ltpFR	9	n/a	n/a	n/a	n/a	n/a	n/a	n/a	n/a	n/a	n/a	n/a	n/a	n/a	n/a	n/a
368017	PROB	n/a	LTP115	ltpFR	9	n/a	n/a	n/a	n/a	n/a	n/a	14	8	8	3	n/a	n/a	n/a	n/a	n/a
369799	PROB	n/a	LTP115	ltpFR	9	n/a	n/a	n/a	n/a	n/a	n/a	10	2	1	7	n/a	n/a	n/a	n/a	n/a
372157	PROB	n/a	LTP115	ltpFR	9	n/a	n/a	n/a	n/a	n/a	n/a	13	8	3	2	n/a	n/a	n/a	n/a	n/a
374955	STOP	n/a	LTP115	ltpFR	9	n/a	n/a	n/a	n/a	n/a	n/a	n/a	n/a	n/a	n/a	n/a	n/a	n/a	n/a	n/a
376089	WORD	wordpools/wasnorm_wordpool.txt	LTP115	ltpFR	9	2	0	LIVER	833	n/a	0	n/a	0	0	0	0	0.5869140625	0.422607421875	lower	../fonts/amplitud.ttf
379097	START	n/a	LTP115	ltpFR	9	n/a	n/a	n/a	n/a	n/a	n/a	n/a	n/a	n/a	n/a	n/a	n/a	n/a	n/a	n/a
379905	PROB	n/a	LTP115	ltpFR	9	n/a	n/a	n/a	n/a	n/a	n/a	18	6	5	7	n/a	n/a	n/a	n/a	n/a
381745	PROB	n/a	LTP115	ltpFR	9	n/a	n/a	n/a	n/a	n/a	n/a	18	6	7	5	n/a	n/a	n/a	n/a	n/a
383411	PROB	n/a	LTP115	ltpFR	9	n/a	n/a	n/a	n/a	n/a	n/a	11	2	8	1	n/a	n/a	n/a	n/a	n/a
387097	STOP	n/a	LTP115	ltpFR	9	n/a	n/a	n/a	n/a	n/a	n/a	n/a	n/a	n/a	n/a	n/a	n/a	n/a	n/a	n/a
388143	WORD	wordpools/wasnorm_wordpool.txt	LTP115	ltpFR	9	2	0	TOENAIL	1474	n/a	0	n/a	0	0	0	0	0.5869140625	0.422607421875	lower	../fonts/amplitud.ttf
391151	START	n/a	LTP115	ltpFR	9	n/a	n/a	n/a	n/a	n/a	n/a	n/a	n/a	n/a	n/a	n/a	n/a	n/a	n/a	n/a
391966	PROB	n/a	LTP115	ltpFR	9	n/a	n/a	n/a	n/a	n/a	n/a	12	1	5	6	n/a	n/a	n/a	n/a	n/a
393691	PROB	n/a	LTP115	ltpFR	9	n/a	n/a	n/a	n/a	n/a	n/a	19	9	6	4	n/a	n/a	n/a	n/a	n/a
395349	PROB	n/a	LTP115	ltpFR	9	n/a	n/a	n/a	n/a	n/a	n/a	15	3	7	5	n/a	n/a	n/a	n/a	n/a
396482	PROB	n/a	LTP115	ltpFR	9	n/a	n/a	n/a	n/a	n/a	n/a	9	1	6	2	n/a	n/a	n/a	n/a	n/a
397556	PROB	n/a	LTP115	ltpFR	9	n/a	n/a	n/a	n/a	n/a	n/a	14	1	5	8	n/a	n/a	n/a	n/a	n/a
398995	STOP	n/a	LTP115	ltpFR	9	n/a	n/a	n/a	n/a	n/a	n/a	n/a	n/a	n/a	n/a	n/a	n/a	n/a	n/a	n/a
400314	WORD	wordpools/wasnorm_wordpool.txt	LTP115	ltpFR	9	2	0	SOCK	1339	n/a	0	n/a	0	0	0	0	0.5869140625	0.422607421875	lower	../fonts/amplitud.ttf
403321	START	n/a	LTP115	ltpFR	9	n/a	n/a	n/a	n/a	n/a	n/a	n/a	n/a	n/a	n/a	n/a	n/a	n/a	n/a	n/a
404370	PROB	n/a	LTP115	ltpFR	9	n/a	n/a	n/a	n/a	n/a	n/a	13	7	2	4	n/a	n/a	n/a	n/a	n/a
406811	PROB	n/a	LTP115	ltpFR	9	n/a	n/a	n/a	n/a	n/a	n/a	22	8	8	6	n/a	n/a	n/a	n/a	n/a
409077	PROB	n/a	LTP115	ltpFR	9	n/a	n/a	n/a	n/a	n/a	n/a	13	5	7	1	n/a	n/a	n/a	n/a	n/a
410731	STOP	n/a	LTP115	ltpFR	9	n/a	n/a	n/a	n/a	n/a	n/a	n/a	n/a	n/a	n/a	n/a	n/a	n/a	n/a	n/a
412168	WORD	wordpools/wasnorm_wordpool.txt	LTP115	ltpFR	9	2	0	DIVER	476	n/a	1	n/a	0	0	0	0	0.5869140625	0.422607421875	lower	../fonts/amplitud.ttf
415175	START	n/a	LTP115	ltpFR	9	n/a	n/a	n/a	n/a	n/a	n/a	n/a	n/a	n/a	n/a	n/a	n/a	n/a	n/a	n/a
416250	PROB	n/a	LTP115	ltpFR	9	n/a	n/a	n/a	n/a	n/a	n/a	14	9	2	3	n/a	n/a	n/a	n/a	n/a
418524	PROB	n/a	LTP115	ltpFR	9	n/a	n/a	n/a	n/a	n/a	n/a	9	2	2	5	n/a	n/a	n/a	n/a	n/a
423175	STOP	n/a	LTP115	ltpFR	9	n/a	n/a	n/a	n/a	n/a	n/a	n/a	n/a	n/a	n/a	n/a	n/a	n/a	n/a	n/a
424138	WORD	wordpools/wasnorm_wordpool.txt	LTP115	ltpFR	9	2	0	VALVE	1546	n/a	0	n/a	0	0	0	0	0.5869140625	0.422607421875	lower	../fonts/amplitud.ttf
427146	START	n/a	LTP115	ltpFR	9	n/a	n/a	n/a	n/a	n/a	n/a	n/a	n/a	n/a	n/a	n/a	n/a	n/a	n/a	n/a
428095	PROB	n/a	LTP115	ltpFR	9	n/a	n/a	n/a	n/a	n/a	n/a	22	5	9	8	n/a	n/a	n/a	n/a	n/a
430061	PROB	n/a	LTP115	ltpFR	9	n/a	n/a	n/a	n/a	n/a	n/a	14	5	6	3	n/a	n/a	n/a	n/a	n/a
431986	PROB	n/a	LTP115	ltpFR	9	n/a	n/a	n/a	n/a	n/a	n/a	11	2	7	2	n/a	n/a	n/a	n/a	n/a
433900	STOP	n/a	LTP115	ltpFR	9	n/a	n/a	n/a	n/a	n/a	n/a	n/a	n/a	n/a	n/a	n/a	n/a	n/a	n/a	n/a
436051	WORD	wordpools/wasnorm_wordpool.txt	LTP115	ltpFR	9	2	0	HANDBAG	684	n/a	0	n/a	0	0	0	0	0.5869140625	0.422607421875	lower	../fonts/amplitud.ttf
439059	START	n/a	LTP115	ltpFR	9	n/a	n/a	n/a	n/a	n/a	n/a	n/a	n/a	n/a	n/a	n/a	n/a	n/a	n/a	n/a
440249	PROB	n/a	LTP115	ltpFR	9	n/a	n/a	n/a	n/a	n/a	n/a	19	2	9	8	n/a	n/a	n/a	n/a	n/a
442182	PROB	n/a	LTP115	ltpFR	9	n/a	n/a	n/a	n/a	n/a	n/a	13	7	4	2	n/a	n/a	n/a	n/a	n/a
443565	PROB	n/a	LTP115	ltpFR	9	n/a	n/a	n/a	n/a	n/a	n/a	25	7	7	9	n/a	n/a	n/a	n/a	n/a
445995	STOP	n/a	LTP115	ltpFR	9	n/a	n/a	n/a	n/a	n/a	n/a	n/a	n/a	n/a	n/a	n/a	n/a	n/a	n/a	n/a
447898	WORD	wordpools/wasnorm_wordpool.txt	LTP115	ltpFR	9	2	0	PROTON	1132	n/a	0	n/a	0	0	0	0	0.5869140625	0.422607421875	lower	../fonts/amplitud.ttf
450905	START	n/a	LTP115	ltpFR	9	n/a	n/a	n/a	n/a	n/a	n/a	n/a	n/a	n/a	n/a	n/a	n/a	n/a	n/a	n/a
451854	PROB	n/a	LTP115	ltpFR	9	n/a	n/a	n/a	n/a	n/a	n/a	6	2	3	1	n/a	n/a	n/a	n/a	n/a
453261	PROB	n/a	LTP115	ltpFR	9	n/a	n/a	n/a	n/a	n/a	n/a	21	8	6	7	n/a	n/a	n/a	n/a	n/a
454861	PROB	n/a	LTP115	ltpFR	9	n/a	n/a	n/a	n/a	n/a	n/a	14	7	4	3	n/a	n/a	n/a	n/a	n/a
456818	PROB	n/a	LTP115	ltpFR	9	n/a	n/a	n/a	n/a	n/a	n/a	12	5	5	2	n/a	n/a	n/a	n/a	n/a
458123	STOP	n/a	LTP115	ltpFR	9	n/a	n/a	n/a	n/a	n/a	n/a	n/a	n/a	n/a	n/a	n/a	n/a	n/a	n/a	n/a
460009	WORD	wordpools/wasnorm_wordpool.txt	LTP115	ltpFR	9	2	0	BROCCOLI	176	n/a	0	n/a	0	0	0	0	0.5869140625	0.422607421875	lower	../fonts/amplitud.ttf
463017	START	n/a	LTP115	ltpFR	9	n/a	n/a	n/a	n/a	n/a	n/a	n/a	n/a	n/a	n/a	n/a	n/a	n/a	n/a	n/a
464149	PROB	n/a	LTP115	ltpFR	9	n/a	n/a	n/a	n/a	n/a	n/a	25	7	8	8	n/a	n/a	n/a	n/a	n/a
466257	PROB	n/a	LTP115	ltpFR	9	n/a	n/a	n/a	n/a	n/a	n/a	8	4	3	1	n/a	n/a	n/a	n/a	n/a
468314	PROB	n/a	LTP115	ltpFR	9	n/a	n/a	n/a	n/a	n/a	n/a	12	2	3	7	n/a	n/a	n/a	n/a	n/a
469843	STOP	n/a	LTP115	ltpFR	9	n/a	n/a	n/a	n/a	n/a	n/a	n/a	n/a	n/a	n/a	n/a	n/a	n/a	n/a	n/a
472038	WORD	wordpools/wasnorm_wordpool.txt	LTP115	ltpFR	9	2	0	SCULPTURE	1258	n/a	1	n/a	0	0	0	0	0.5869140625	0.422607421875	lower	../fonts/amplitud.ttf
475046	START	n/a	LTP115	ltpFR	9	n/a	n/a	n/a	n/a	n/a	n/a	n/a	n/a	n/a	n/a	n/a	n/a	n/a	n/a	n/a
476245	PROB	n/a	LTP115	ltpFR	9	n/a	n/a	n/a	n/a	n/a	n/a	18	3	9	6	n/a	n/a	n/a	n/a	n/a
477836	PROB	n/a	LTP115	ltpFR	9	n/a	n/a	n/a	n/a	n/a	n/a	12	3	4	5	n/a	n/a	n/a	n/a	n/a
479852	PROB	n/a	LTP115	ltpFR	9	n/a	n/a	n/a	n/a	n/a	n/a	21	8	5	8	n/a	n/a	n/a	n/a	n/a
481739	STOP	n/a	LTP115	ltpFR	9	n/a	n/a	n/a	n/a	n/a	n/a	n/a	n/a	n/a	n/a	n/a	n/a	n/a	n/a	n/a
484000	WORD	wordpools/wasnorm_wordpool.txt	LTP115	ltpFR	9	2	0	CREW	406	n/a	1	n/a	0	0	0	0	0.5869140625	0.422607421875	lower	../fonts/amplitud.ttf
487008	START	n/a	LTP115	ltpFR	9	n/a	n/a	n/a	n/a	n/a	n/a	n/a	n/a	n/a	n/a	n/a	n/a	n/a	n/a	n/a
488107	PROB	n/a	LTP115	ltpFR	9	n/a	n/a	n/a	n/a	n/a	n/a	19	6	5	8	n/a	n/a	n/a	n/a	n/a
490498	PROB	n/a	LTP115	ltpFR	9	n/a	n/a	n/a	n/a	n/a	n/a	13	5	5	3	n/a	n/a	n/a	n/a	n/a
491923	PROB	n/a	LTP115	ltpFR	9	n/a	n/a	n/a	n/a	n/a	n/a	18	8	9	1	n/a	n/a	n/a	n/a	n/a
493197	PROB	n/a	LTP115	ltpFR	9	n/a	n/a	n/a	n/a	n/a	n/a	15	1	9	5	n/a	n/a	n/a	n/a	n/a
494323	STOP	n/a	LTP115	ltpFR	9	n/a	n/a	n/a	n/a	n/a	n/a	n/a	n/a	n/a	n/a	n/a	n/a	n/a	n/a	n/a
496038	WORD	wordpools/wasnorm_wordpool.txt	LTP115	ltpFR	9	2	0	SEA	1259	n/a	1	n/a	0	0	0	0	0.5869140625	0.422607421875	lower	../fonts/amplitud.ttf
499046	START	n/a	LTP115	ltpFR	9	n/a	n/a	n/a	n/a	n/a	n/a	n/a	n/a	n/a	n/a	n/a	n/a	n/a	n/a	n/a
499912	PROB	n/a	LTP115	ltpFR	9	n/a	n/a	n/a	n/a	n/a	n/a	10	5	1	4	n/a	n/a	n/a	n/a	n/a
501236	PROB	n/a	LTP115	ltpFR	9	n/a	n/a	n/a	n/a	n/a	n/a	15	8	6	1	n/a	n/a	n/a	n/a	n/a
502761	PROB	n/a	LTP115	ltpFR	9	n/a	n/a	n/a	n/a	n/a	n/a	20	8	7	5	n/a	n/a	n/a	n/a	n/a
504635	PROB	n/a	LTP115	ltpFR	9	n/a	n/a	n/a	n/a	n/a	n/a	16	5	5	6	n/a	n/a	n/a	n/a	n/a
505812	STOP	n/a	LTP115	ltpFR	9	n/a	n/a	n/a	n/a	n/a	n/a	n/a	n/a	n/a	n/a	n/a	n/a	n/a	n/a	n/a
507893	WORD	wordpools/wasnorm_wordpool.txt	LTP115	ltpFR	9	2	0	BRIDGE	174	n/a	1	n/a	0	0	0	0	0.5869140625	0.422607421875	lower	../fonts/amplitud.ttf
510901	START	n/a	LTP115	ltpFR	9	n/a	n/a	n/a	n/a	n/a	n/a	n/a	n/a	n/a	n/a	n/a	n/a	n/a	n/a	n/a
511991	PROB	n/a	LTP115	ltpFR	9	n/a	n/a	n/a	n/a	n/a	n/a	19	4	8	7	n/a	n/a	n/a	n/a	n/a
515448	PROB	n/a	LTP115	ltpFR	9	n/a	n/a	n/a	n/a	n/a	n/a	6	2	2	2	n/a	n/a	n/a	n/a	n/a
516614	PROB	n/a	LTP115	ltpFR	9	n/a	n/a	n/a	n/a	n/a	n/a	17	8	4	5	n/a	n/a	n/a	n/a	n/a
518315	STOP	n/a	LTP115	ltpFR	9	n/a	n/a	n/a	n/a	n/a	n/a	n/a	n/a	n/a	n/a	n/a	n/a	n/a	n/a	n/a
520021	WORD	wordpools/wasnorm_wordpool.txt	LTP115	ltpFR	9	2	0	SCISSORS	1250	n/a	0	n/a	0	0	0	0	0.5869140625	0.422607421875	lower	../fonts/amplitud.ttf
523029	START	n/a	LTP115	ltpFR	9	n/a	n/a	n/a	n/a	n/a	n/a	n/a	n/a	n/a	n/a	n/a	n/a	n/a	n/a	n/a
524220	PROB	n/a	LTP115	ltpFR	9	n/a	n/a	n/a	n/a	n/a	n/a	18	6	5	7	n/a	n/a	n/a	n/a	n/a
526535	PROB	n/a	LTP115	ltpFR	9	n/a	n/a	n/a	n/a	n/a	n/a	11	1	2	8	n/a	n/a	n/a	n/a	n/a
529409	PROB	n/a	LTP115	ltpFR	9	n/a	n/a	n/a	n/a	n/a	n/a	16	5	9	2	n/a	n/a	n/a	n/a	n/a
530843	STOP	n/a	LTP115	ltpFR	9	n/a	n/a	n/a	n/a	n/a	n/a	n/a	n/a	n/a	n/a	n/a	n/a	n/a	n/a	n/a
532100	WORD	wordpools/wasnorm_wordpool.txt	LTP115	ltpFR	9	2	0	KNAPSACK	783	n/a	1	n/a	0	0	0	0	0.5869140625	0.422607421875	lower	../fonts/amplitud.ttf
535108	START	n/a	LTP115	ltpFR	9	n/a	n/a	n/a	n/a	n/a	n/a	n/a	n/a	n/a	n/a	n/a	n/a	n/a	n/a	n/a
536232	PROB	n/a	LTP115	ltpFR	9	n/a	n/a	n/a	n/a	n/a	n/a	8	5	2	1	n/a	n/a	n/a	n/a	n/a
537790	PROB	n/a	LTP115	ltpFR	9	n/a	n/a	n/a	n/a	n/a	n/a	25	9	8	8	n/a	n/a	n/a	n/a	n/a
539614	PROB	n/a	LTP115	ltpFR	9	n/a	n/a	n/a	n/a	n/a	n/a	21	5	5	6	n/a	n/a	n/a	n/a	n/a
543108	STOP	n/a	LTP115	ltpFR	9	n/a	n/a	n/a	n/a	n/a	n/a	n/a	n/a	n/a	n/a	n/a	n/a	n/a	n/a	n/a
545030	REC_START	n/a	LTP115	ltpFR	9	2	n/a	n/a	n/a	n/a	n/a	n/a	0	0	0	n/a	n/a	n/a	n/a	n/a
546047	REC_WORD	wordpools/wasnorm_wordpool.txt	LTP115	ltpFR	9	2	0	KNAPSACK	783	n/a	1	n/a	0	0	0	n/a	n/a	n/a	n/a	n/a
547509	REC_WORD	wordpools/wasnorm_wordpool.txt	LTP115	ltpFR	9	2	0	HANDBAG	684	n/a	0	n/a	0	0	0	n/a	n/a	n/a	n/a	n/a
548652	REC_WORD	wordpools/wasnorm_wordpool.txt	LTP115	ltpFR	9	2	0	SEA	1259	n/a	1	n/a	0	0	0	n/a	n/a	n/a	n/a	n/a
549420	REC_WORD	wordpools/wasnorm_wordpool.txt	LTP115	ltpFR	9	2	0	SCISSORS	1250	n/a	0	n/a	0	0	0	n/a	n/a	n/a	n/a	n/a
550792	REC_WORD	wordpools/wasnorm_wordpool.txt	LTP115	ltpFR	9	2	0	BRIDGE	174	n/a	1	n/a	0	0	0	n/a	n/a	n/a	n/a	n/a
554892	REC_WORD	wordpools/wasnorm_wordpool.txt	LTP115	ltpFR	9	2	0	GLOBE	641	n/a	0	n/a	0	0	0	n/a	n/a	n/a	n/a	n/a
555885	REC_WORD	wordpools/wasnorm_wordpool.txt	LTP115	ltpFR	9	2	0	UNIVERSE	1540	n/a	1	n/a	0	0	0	n/a	n/a	n/a	n/a	n/a
556803	REC_WORD	wordpools/wasnorm_wordpool.txt	LTP115	ltpFR	9	2	0	LIVER	833	n/a	0	n/a	0	0	0	n/a	n/a	n/a	n/a	n/a
557721	REC_WORD	wordpools/wasnorm_wordpool.txt	LTP115	ltpFR	9	2	0	TOENAIL	1474	n/a	0	n/a	0	0	0	n/a	n/a	n/a	n/a	n/a
558624	REC_WORD	wordpools/wasnorm_wordpool.txt	LTP115	ltpFR	9	2	0	SOCK	1339	n/a	0	n/a	0	0	0	n/a	n/a	n/a	n/a	n/a
561422	REC_WORD	wordpools/wasnorm_wordpool.txt	LTP115	ltpFR	9	2	0	VALVE	1546	n/a	0	n/a	0	0	0	n/a	n/a	n/a	n/a	n/a
579437	REC_WORD	wordpools/wasnorm_wordpool.txt	LTP115	ltpFR	9	2	0	DIVER	476	n/a	1	n/a	0	0	0	n/a	n/a	n/a	n/a	n/a
623468	START	n/a	LTP115	ltpFR	9	n/a	n/a	n/a	n/a	n/a	n/a	n/a	n/a	n/a	n/a	n/a	n/a	n/a	n/a	n/a
624976	PROB	n/a	LTP115	ltpFR	9	n/a	n/a	n/a	n/a	n/a	n/a	16	6	9	1	n/a	n/a	n/a	n/a	n/a
626475	PROB	n/a	LTP115	ltpFR	9	n/a	n/a	n/a	n/a	n/a	n/a	14	3	2	9	n/a	n/a	n/a	n/a	n/a
627991	PROB	n/a	LTP115	ltpFR	9	n/a	n/a	n/a	n/a	n/a	n/a	19	7	7	5	n/a	n/a	n/a	n/a	n/a
630723	STOP	n/a	LTP115	ltpFR	9	n/a	n/a	n/a	n/a	n/a	n/a	n/a	n/a	n/a	n/a	n/a	n/a	n/a	n/a	n/a
632406	WORD	wordpools/wasnorm_wordpool.txt	LTP115	ltpFR	9	3	1	COMEDIAN	352	n/a	1	n/a	0	0	0	1	0.412841796875	0.57763671875	upper	../fonts/zerothre.ttf
635414	START	n/a	LTP115	ltpFR	9	n/a	n/a	n/a	n/a	n/a	n/a	n/a	n/a	n/a	n/a	n/a	n/a	n/a	n/a	n/a
636480	PROB	n/a	LTP115	ltpFR	9	n/a	n/a	n/a	n/a	n/a	n/a	23	5	9	9	n/a	n/a	n/a	n/a	n/a
638596	PROB	n/a	LTP115	ltpFR	9	n/a	n/a	n/a	n/a	n/a	n/a	11	8	2	1	n/a	n/a	n/a	n/a	n/a
639970	PROB	n/a	LTP115	ltpFR	9	n/a	n/a	n/a	n/a	n/a	n/a	14	5	2	7	n/a	n/a	n/a	n/a	n/a
642116	STOP	n/a	LTP115	ltpFR	9	n/a	n/a	n/a	n/a	n/a	n/a	n/a	n/a	n/a	n/a	n/a	n/a	n/a	n/a	n/a
644485	WORD	wordpools/wasnorm_wordpool.txt	LTP115	ltpFR	9	3	1	MECHANIC	884	n/a	1	n/a	0	0	0	1	0.412841796875	0.57763671875	upper	../fonts/zerothre.ttf
647493	START	n/a	LTP115	ltpFR	9	n/a	n/a	n/a	n/a	n/a	n/a	n/a	n/a	n/a	n/a	n/a	n/a	n/a	n/a	n/a
648659	PROB	n/a	LTP115	ltpFR	9	n/a	n/a	n/a	n/a	n/a	n/a	10	3	1	6	n/a	n/a	n/a	n/a	n/a
650508	PROB	n/a	LTP115	ltpFR	9	n/a	n/a	n/a	n/a	n/a	n/a	7	5	1	1	n/a	n/a	n/a	n/a	n/a
652049	PROB	n/a	LTP115	ltpFR	9	n/a	n/a	n/a	n/a	n/a	n/a	16	2	7	8	n/a	n/a	n/a	n/a	n/a
654059	STOP	n/a	LTP115	ltpFR	9	n/a	n/a	n/a	n/a	n/a	n/a	n/a	n/a	n/a	n/a	n/a	n/a	n/a	n/a	n/a
656589	WORD	wordpools/wasnorm_wordpool.txt	LTP115	ltpFR	9	3	1	MONEY	908	n/a	0	n/a	0	0	0	1	0.412841796875	0.57763671875	upper	../fonts/zerothre.ttf
659597	START	n/a	LTP115	ltpFR	9	n/a	n/a	n/a	n/a	n/a	n/a	n/a	n/a	n/a	n/a	n/a	n/a	n/a	n/a	n/a
660630	PROB	n/a	LTP115	ltpFR	9	n/a	n/a	n/a	n/a	n/a	n/a	8	4	2	2	n/a	n/a	n/a	n/a	n/a
662412	PROB	n/a	LTP115	ltpFR	9	n/a	n/a	n/a	n/a	n/a	n/a	19	9	5	5	n/a	n/a	n/a	n/a	n/a
664203	PROB	n/a	LTP115	ltpFR	9	n/a	n/a	n/a	n/a	n/a	n/a	21	9	8	4	n/a	n/a	n/a	n/a	n/a
667597	STOP	n/a	LTP115	ltpFR	9	n/a	n/a	n/a	n/a	n/a	n/a	n/a	n/a	n/a	n/a	n/a	n/a	n/a	n/a	n/a
668535	WORD	wordpools/wasnorm_wordpool.txt	LTP115	ltpFR	9	3	1	BILL	126	n/a	0	n/a	0	0	0	1	0.412841796875	0.57763671875	upper	../fonts/zerothre.ttf
671543	START	n/a	LTP115	ltpFR	9	n/a	n/a	n/a	n/a	n/a	n/a	n/a	n/a	n/a	n/a	n/a	n/a	n/a	n/a	n/a
672684	PROB	n/a	LTP115	ltpFR	9	n/a	n/a	n/a	n/a	n/a	n/a	15	5	9	1	n/a	n/a	n/a	n/a	n/a
673925	PROB	n/a	LTP115	ltpFR	9	n/a	n/a	n/a	n/a	n/a	n/a	19	2	8	9	n/a	n/a	n/a	n/a	n/a
679542	STOP	n/a	LTP115	ltpFR	9	n/a	n/a	n/a	n/a	n/a	n/a	n/a	n/a	n/a	n/a	n/a	n/a	n/a	n/a	n/a
680389	WORD	wordpools/wasnorm_wordpool.txt	LTP115	ltpFR	9	3	1	TAPIOCA	1434	n/a	0	n/a	0	0	0	1	0.412841796875	0.57763671875	upper	../fonts/zerothre.ttf
683397	START	n/a	LTP115	ltpFR	9	n/a	n/a	n/a	n/a	n/a	n/a	n/a	n/a	n/a	n/a	n/a	n/a	n/a	n/a	n/a
684454	PROB	n/a	LTP115	ltpFR	9	n/a	n/a	n/a	n/a	n/a	n/a	11	2	1	8	n/a	n/a	n/a	n/a	n/a
685905	PROB	n/a	LTP115	ltpFR	9	n/a	n/a	n/a	n/a	n/a	n/a	14	5	3	6	n/a	n/a	n/a	n/a	n/a
687896	PROB	n/a	LTP115	ltpFR	9	n/a	n/a	n/a	n/a	n/a	n/a	20	8	4	8	n/a	n/a	n/a	n/a	n/a
689719	PROB	n/a	LTP115	ltpFR	9	n/a	n/a	n/a	n/a	n/a	n/a	14	8	5	1	n/a	n/a	n/a	n/a	n/a
691347	STOP	n/a	LTP115	ltpFR	9	n/a	n/a	n/a	n/a	n/a	n/a	n/a	n/a	n/a	n/a	n/a	n/a	n/a	n/a	n/a
692302	WORD	wordpools/wasnorm_wordpool.txt	LTP115	ltpFR	9	3	1	POCKETBOOK	1094	n/a	0	n/a	0	0	0	1	0.412841796875	0.57763671875	upper	../fonts/zerothre.ttf
695309	START	n/a	LTP115	ltpFR	9	n/a	n/a	n/a	n/a	n/a	n/a	n/a	n/a	n/a	n/a	n/a	n/a	n/a	n/a	n/a
696209	PROB	n/a	LTP115	ltpFR	9	n/a	n/a	n/a	n/a	n/a	n/a	23	6	8	9	n/a	n/a	n/a	n/a	n/a
698833	PROB	n/a	LTP115	ltpFR	9	n/a	n/a	n/a	n/a	n/a	n/a	22	9	8	5	n/a	n/a	n/a	n/a	n/a
700749	PROB	n/a	LTP115	ltpFR	9	n/a	n/a	n/a	n/a	n/a	n/a	14	1	8	5	n/a	n/a	n/a	n/a	n/a
702652	STOP	n/a	LTP115	ltpFR	9	n/a	n/a	n/a	n/a	n/a	n/a	n/a	n/a	n/a	n/a	n/a	n/a	n/a	n/a	n/a
704181	WORD	wordpools/wasnorm_wordpool.txt	LTP115	ltpFR	9	3	1	COLLAR	345	n/a	0	n/a	0	0	0	1	0.412841796875	0.57763671875	upper	../fonts/zerothre.ttf
707189	START	n/a	LTP115	ltpFR	9	n/a	n/a	n/a	n/a	n/a	n/a	n/a	n/a	n/a	n/a	n/a	n/a	n/a	n/a	n/a
708338	PROB	n/a	LTP115	ltpFR	9	n/a	n/a	n/a	n/a	n/a	n/a	20	4	7	9	n/a	n/a	n/a	n/a	n/a
710029	PROB	n/a	LTP115	ltpFR	9	n/a	n/a	n/a	n/a	n/a	n/a	14	8	3	3	n/a	n/a	n/a	n/a	n/a
711528	PROB	n/a	LTP115	ltpFR	9	n/a	n/a	n/a	n/a	n/a	n/a	7	1	4	2	n/a	n/a	n/a	n/a	n/a
713069	PROB	n/a	LTP115	ltpFR	9	n/a	n/a	n/a	n/a	n/a	n/a	13	8	2	3	n/a	n/a	n/a	n/a	n/a
714523	STOP	n/a	LTP115	ltpFR	9	n/a	n/a	n/a	n/a	n/a	n/a	n/a	n/a	n/a	n/a	n/a	n/a	n/a	n/a	n/a
716152	WORD	wordpools/wasnorm_wordpool.txt	LTP115	ltpFR	9	3	1	SPOON	1357	n/a	0	n/a	0	0	0	1	0.412841796875	0.57763671875	upper	../fonts/zerothre.ttf
719159	START	n/a	LTP115	ltpFR	9	n/a	n/a	n/a	n/a	n/a	n/a	n/a	n/a	n/a	n/a	n/a	n/a	n/a	n/a	n/a
720100	PROB	n/a	LTP115	ltpFR	9	n/a	n/a	n/a	n/a	n/a	n/a	8	2	1	5	n/a	n/a	n/a	n/a	n/a
722166	PROB	n/a	LTP115	ltpFR	9	n/a	n/a	n/a	n/a	n/a	n/a	13	6	2	5	n/a	n/a	n/a	n/a	n/a
723766	PROB	n/a	LTP115	ltpFR	9	n/a	n/a	n/a	n/a	n/a	n/a	20	6	9	5	n/a	n/a	n/a	n/a	n/a
727159	STOP	n/a	LTP115	ltpFR	9	n/a	n/a	n/a	n/a	n/a	n/a	n/a	n/a	n/a	n/a	n/a	n/a	n/a	n/a	n/a
728347	WORD	wordpools/wasnorm_wordpool.txt	LTP115	ltpFR	9	3	1	CHAUFFEUR	283	n/a	1	n/a	0	0	0	1	0.412841796875	0.57763671875	upper	../fonts/zerothre.ttf
731355	START	n/a	LTP115	ltpFR	9	n/a	n/a	n/a	n/a	n/a	n/a	n/a	n/a	n/a	n/a	n/a	n/a	n/a	n/a	n/a
732221	PROB	n/a	LTP115	ltpFR	9	n/a	n/a	n/a	n/a	n/a	n/a	18	7	2	9	n/a	n/a	n/a	n/a	n/a
734737	PROB	n/a	LTP115	ltpFR	9	n/a	n/a	n/a	n/a	n/a	n/a	14	2	4	8	n/a	n/a	n/a	n/a	n/a
736553	PROB	n/a	LTP115	ltpFR	9	n/a	n/a	n/a	n/a	n/a	n/a	19	6	9	3	n/a	n/a	n/a	n/a	n/a
738564	STOP	n/a	LTP115	ltpFR	9	n/a	n/a	n/a	n/a	n/a	n/a	n/a	n/a	n/a	n/a	n/a	n/a	n/a	n/a	n/a
740476	WORD	wordpools/wasnorm_wordpool.txt	LTP115	ltpFR	9	3	1	CANVAS	234	n/a	0	n/a	0	0	0	1	0.412841796875	0.57763671875	upper	../fonts/zerothre.ttf
743484	START	n/a	LTP115	ltpFR	9	n/a	n/a	n/a	n/a	n/a	n/a	n/a	n/a	n/a	n/a	n/a	n/a	n/a	n/a	n/a
744575	PROB	n/a	LTP115	ltpFR	9	n/a	n/a	n/a	n/a	n/a	n/a	16	5	4	7	n/a	n/a	n/a	n/a	n/a
746824	PROB	n/a	LTP115	ltpFR	9	n/a	n/a	n/a	n/a	n/a	n/a	22	6	9	7	n/a	n/a	n/a	n/a	n/a
749706	PROB	n/a	LTP115	ltpFR	9	n/a	n/a	n/a	n/a	n/a	n/a	6	3	3	3	n/a	n/a	n/a	n/a	n/a
750748	STOP	n/a	LTP115	ltpFR	9	n/a	n/a	n/a	n/a	n/a	n/a	n/a	n/a	n/a	n/a	n/a	n/a	n/a	n/a	n/a
752514	WORD	wordpools/wasnorm_wordpool.txt	LTP115	ltpFR	9	3	1	BIOLOGIST	128	n/a	1	n/a	0	0	0	1	0.412841796875	0.57763671875	upper	../fonts/zerothre.ttf
755521	START	n/a	LTP115	ltpFR	9	n/a	n/a	n/a	n/a	n/a	n/a	n/a	n/a	n/a	n/a	n/a	n/a	n/a	n/a	n/a
756371	PROB	n/a	LTP115	ltpFR	9	n/a	n/a	n/a	n/a	n/a	n/a	17	5	8	4	n/a	n/a	n/a	n/a	n/a
758337	PROB	n/a	LTP115	ltpFR	9	n/a	n/a	n/a	n/a	n/a	n/a	20	7	8	5	n/a	n/a	n/a	n/a	n/a
760294	PROB	n/a	LTP115	ltpFR	9	n/a	n/a	n/a	n/a	n/a	n/a	21	8	6	7	n/a	n/a	n/a	n/a	n/a
762516	STOP	n/a	LTP115	ltpFR	9	n/a	n/a	n/a	n/a	n/a	n/a	n/a	n/a	n/a	n/a	n/a	n/a	n/a	n/a	n/a
764526	WORD	wordpools/wasnorm_wordpool.txt	LTP115	ltpFR	9	3	1	FLASK	576	n/a	0	n/a	0	0	0	1	0.412841796875	0.57763671875	upper	../fonts/zerothre.ttf
767534	START	n/a	LTP115	ltpFR	9	n/a	n/a	n/a	n/a	n/a	n/a	n/a	n/a	n/a	n/a	n/a	n/a	n/a	n/a	n/a
768508	PROB	n/a	LTP115	ltpFR	9	n/a	n/a	n/a	n/a	n/a	n/a	8	1	5	2	n/a	n/a	n/a	n/a	n/a
770666	PROB	n/a	LTP115	ltpFR	9	n/a	n/a	n/a	n/a	n/a	n/a	25	7	8	8	n/a	n/a	n/a	n/a	n/a
773523	PROB	n/a	LTP115	ltpFR	9	n/a	n/a	n/a	n/a	n/a	n/a	16	5	3	8	n/a	n/a	n/a	n/a	n/a
775099	STOP	n/a	LTP115	ltpFR	9	n/a	n/a	n/a	n/a	n/a	n/a	n/a	n/a	n/a	n/a	n/a	n/a	n/a	n/a	n/a
776588	WORD	wordpools/wasnorm_wordpool.txt	LTP115	ltpFR	9	3	1	CANAL	226	n/a	0	n/a	0	0	0	1	0.412841796875	0.57763671875	upper	../fonts/zerothre.ttf
779596	START	n/a	LTP115	ltpFR	9	n/a	n/a	n/a	n/a	n/a	n/a	n/a	n/a	n/a	n/a	n/a	n/a	n/a	n/a	n/a
780570	PROB	n/a	LTP115	ltpFR	9	n/a	n/a	n/a	n/a	n/a	n/a	13	3	2	8	n/a	n/a	n/a	n/a	n/a
782361	PROB	n/a	LTP115	ltpFR	9	n/a	n/a	n/a	n/a	n/a	n/a	17	4	9	4	n/a	n/a	n/a	n/a	n/a
785002	PROB	n/a	LTP115	ltpFR	9	n/a	n/a	n/a	n/a	n/a	n/a	25	8	9	8	n/a	n/a	n/a	n/a	n/a
787348	STOP	n/a	LTP115	ltpFR	9	n/a	n/a	n/a	n/a	n/a	n/a	n/a	n/a	n/a	n/a	n/a	n/a	n/a	n/a	n/a
788709	WORD	wordpools/wasnorm_wordpool.txt	LTP115	ltpFR	9	3	1	PORT	1110	n/a	0	n/a	0	0	0	1	0.412841796875	0.57763671875	upper	../fonts/zerothre.ttf
791717	START	n/a	LTP115	ltpFR	9	n/a	n/a	n/a	n/a	n/a	n/a	n/a	n/a	n/a	n/a	n/a	n/a	n/a	n/a	n/a
792816	PROB	n/a	LTP115	ltpFR	9	n/a	n/a	n/a	n/a	n/a	n/a	17	8	8	1	n/a	n/a	n/a	n/a	n/a
794507	PROB	n/a	LTP115	ltpFR	9	n/a	n/a	n/a	n/a	n/a	n/a	12	1	7	4	n/a	n/a	n/a	n/a	n/a
795857	PROB	n/a	LTP115	ltpFR	9	n/a	n/a	n/a	n/a	n/a	n/a	11	7	3	1	n/a	n/a	n/a	n/a	n/a
796973	PROB	n/a	LTP115	ltpFR	9	n/a	n/a	n/a	n/a	n/a	n/a	16	9	1	6	n/a	n/a	n/a	n/a	n/a
798292	STOP	n/a	LTP115	ltpFR	9	n/a	n/a	n/a	n/a	n/a	n/a	n/a	n/a	n/a	n/a	n/a	n/a	n/a	n/a	n/a
800805	WORD	wordpools/wasnorm_wordpool.txt	LTP115	ltpFR	9	3	1	BUTCHER	203	n/a	1	n/a	0	0	0	1	0.412841796875	0.57763671875	upper	../fonts/zerothre.ttf
803813	START	n/a	LTP115	ltpFR	9	n/a	n/a	n/a	n/a	n/a	n/a	n/a	n/a	n/a	n/a	n/a	n/a	n/a	n/a	n/a
804637	PROB	n/a	LTP115	ltpFR	9	n/a	n/a	n/a	n/a	n/a	n/a	15	5	3	7	n/a	n/a	n/a	n/a	n/a
807494	PROB	n/a	LTP115	ltpFR	9	n/a	n/a	n/a	n/a	n/a	n/a	19	6	8	5	n/a	n/a	n/a	n/a	n/a
809802	PROB	n/a	LTP115	ltpFR	9	n/a	n/a	n/a	n/a	n/a	n/a	15	3	9	3	n/a	n/a	n/a	n/a	n/a
811724	STOP	n/a	LTP115	ltpFR	9	n/a	n/a	n/a	n/a	n/a	n/a	n/a	n/a	n/a	n/a	n/a	n/a	n/a	n/a	n/a
812976	WORD	wordpools/wasnorm_wordpool.txt	LTP115	ltpFR	9	3	1	TENT	1449	n/a	0	n/a	0	0	0	1	0.412841796875	0.57763671875	upper	../fonts/zerothre.ttf
815983	START	n/a	LTP115	ltpFR	9	n/a	n/a	n/a	n/a	n/a	n/a	n/a	n/a	n/a	n/a	n/a	n/a	n/a	n/a	n/a
816957	PROB	n/a	LTP115	ltpFR	9	n/a	n/a	n/a	n/a	n/a	n/a	13	4	8	1	n/a	n/a	n/a	n/a	n/a
818748	PROB	n/a	LTP115	ltpFR	9	n/a	n/a	n/a	n/a	n/a	n/a	15	5	8	2	n/a	n/a	n/a	n/a	n/a
820773	PROB	n/a	LTP115	ltpFR	9	n/a	n/a	n/a	n/a	n/a	n/a	23	8	7	8	n/a	n/a	n/a	n/a	n/a
823284	STOP	n/a	LTP115	ltpFR	9	n/a	n/a	n/a	n/a	n/a	n/a	n/a	n/a	n/a	n/a	n/a	n/a	n/a	n/a	n/a
825863	REC_START	n/a	LTP115	ltpFR	9	3	n/a	n/a	n/a	n/a	n/a	n/a	0	0	0	n/a	n/a	n/a	n/a	n/a
827150	REC_WORD	wordpools/wasnorm_wordpool.txt	LTP115	ltpFR	9	3	1	BUTCHER	203	n/a	1	n/a	0	0	0	n/a	n/a	n/a	n/a	n/a
827858	REC_WORD	wordpools/wasnorm_wordpool.txt	LTP115	ltpFR	9	3	1	CHAUFFEUR	283	n/a	1	n/a	0	0	0	n/a	n/a	n/a	n/a	n/a
829135	REC_WORD	wordpools/wasnorm_wordpool.txt	LTP115	ltpFR	9	3	1	MECHANIC	884	n/a	1	n/a	0	0	0	n/a	n/a	n/a	n/a	n/a
829954	REC_WORD	wordpools/wasnorm_wordpool.txt	LTP115	ltpFR	9	3	1	COMEDIAN	352	n/a	1	n/a	0	0	0	n/a	n/a	n/a	n/a	n/a
830802	REC_WORD	wordpools/wasnorm_wordpool.txt	LTP115	ltpFR	9	3	1	MONEY	908	n/a	0	n/a	0	0	0	n/a	n/a	n/a	n/a	n/a
831700	REC_WORD	wordpools/wasnorm_wordpool.txt	LTP115	ltpFR	9	3	1	BILL	126	n/a	0	n/a	0	0	0	n/a	n/a	n/a	n/a	n/a
834748	REC_WORD	wordpools/wasnorm_wordpool.txt	LTP115	ltpFR	9	3	1	TAPIOCA	1434	n/a	0	n/a	0	0	0	n/a	n/a	n/a	n/a	n/a
835659	REC_WORD	wordpools/wasnorm_wordpool.txt	LTP115	ltpFR	9	3	1	SPOON	1357	n/a	0	n/a	0	0	0	n/a	n/a	n/a	n/a	n/a
836394	REC_WORD	wordpools/wasnorm_wordpool.txt	LTP115	ltpFR	9	3	1	FLASK	576	n/a	0	n/a	0	0	0	n/a	n/a	n/a	n/a	n/a
837571	REC_WORD	wordpools/wasnorm_wordpool.txt	LTP115	ltpFR	9	3	1	PORT	1110	n/a	0	n/a	0	0	0	n/a	n/a	n/a	n/a	n/a
840335	REC_WORD	wordpools/wasnorm_wordpool.txt	LTP115	ltpFR	9	3	1	CANVAS	234	n/a	0	n/a	0	0	0	n/a	n/a	n/a	n/a	n/a
861946	REC_WORD	wordpools/wasnorm_wordpool.txt	LTP115	ltpFR	9	3	1	POCKETBOOK	1094	n/a	0	n/a	0	0	0	n/a	n/a	n/a	n/a	n/a
886700	REC_WORD	wordpools/wasnorm_wordpool.txt	LTP115	ltpFR	9	3	1	TENT	1449	n/a	0	n/a	0	0	0	n/a	n/a	n/a	n/a	n/a
913282	WORD	wordpools/wasnorm_wordpool.txt	LTP115	ltpFR	9	4	0	MICROSCOPE	891	n/a	0	n/a	0	0	0	0	0.5869140625	0.422607421875	lower	../fonts/amplitud.ttf
917322	WORD	wordpools/wasnorm_wordpool.txt	LTP115	ltpFR	9	4	0	SHORE	1291	n/a	1	n/a	0	0	0	0	0.5869140625	0.422607421875	lower	../fonts/amplitud.ttf
921371	WORD	wordpools/wasnorm_wordpool.txt	LTP115	ltpFR	9	4	0	TANGERINE	1431	n/a	0	n/a	0	0	0	0	0.5869140625	0.422607421875	lower	../fonts/amplitud.ttf
925394	WORD	wordpools/wasnorm_wordpool.txt	LTP115	ltpFR	9	4	0	PENGUIN	1044	n/a	1	n/a	0	0	0	0	0.5869140625	0.422607421875	lower	../fonts/amplitud.ttf
929259	WORD	wordpools/wasnorm_wordpool.txt	LTP115	ltpFR	9	4	0	ZUCCHINI	1638	n/a	0	n/a	0	0	0	0	0.5869140625	0.422607421875	lower	../fonts/amplitud.ttf
933425	WORD	wordpools/wasnorm_wordpool.txt	LTP115	ltpFR	9	4	0	NEPHEW	942	n/a	1	n/a	0	0	0	0	0.5869140625	0.422607421875	lower	../fonts/amplitud.ttf
937515	WORD	wordpools/wasnorm_wordpool.txt	LTP115	ltpFR	9	4	0	PERCH	1048	n/a	0	n/a	0	0	0	0	0.5869140625	0.422607421875	lower	../fonts/amplitud.ttf
941522	WORD	wordpools/wasnorm_wordpool.txt	LTP115	ltpFR	9	4	0	STOMACH	1384	n/a	1	n/a	0	0	0	0	0.5869140625	0.422607421875	lower	../fonts/amplitud.ttf
945720	WORD	wordpools/wasnorm_wordpool.txt	LTP115	ltpFR	9	4	0	SHELF	1280	n/a	1	n/a	0	0	0	0	0.5869140625	0.422607421875	lower	../fonts/amplitud.ttf
949852	WORD	wordpools/wasnorm_wordpool.txt	LTP115	ltpFR	9	4	0	NOVEL	960	n/a	0	n/a	0	0	0	0	0.5869140625	0.422607421875	lower	../fonts/amplitud.ttf
953851	WORD	wordpools/wasnorm_wordpool.txt	LTP115	ltpFR	9	4	0	BUGGY	188	n/a	0	n/a	0	0	0	0	0.5869140625	0.422607421875	lower	../fonts/amplitud.ttf
957833	WORD	wordpools/wasnorm_wordpool.txt	LTP115	ltpFR	9	4	0	COLT	349	n/a	1	n/a	0	0	0	0	0.5869140625	0.422607421875	lower	../fonts/amplitud.ttf
961798	WORD	wordpools/wasnorm_wordpool.txt	LTP115	ltpFR	9	4	0	PALACE	1006	n/a	1	n/a	0	0	0	0	0.5869140625	0.422607421875	lower	../fonts/amplitud.ttf
965621	WORD	wordpools/wasnorm_wordpool.txt	LTP115	ltpFR	9	4	0	TOOTH	1481	n/a	0	n/a	0	0	0	0	0.5869140625	0.422607421875	lower	../fonts/amplitud.ttf
969470	WORD	wordpools/wasnorm_wordpool.txt	LTP115	ltpFR	9	4	0	CHEST	295	n/a	1	n/a	0	0	0	0	0.5869140625	0.422607421875	lower	../fonts/amplitud.ttf
973294	WORD	wordpools/wasnorm_wordpool.txt	LTP115	ltpFR	9	4	0	PRINCESS	1125	n/a	1	n/a	0	0	0	0	0.5869140625	0.422607421875	lower	../fonts/amplitud.ttf
976301	START	n/a	LTP115	ltpFR	9	n/a	n/a	n/a	n/a	n/a	n/a	n/a	n/a	n/a	n/a	n/a	n/a	n/a	n/a	n/a
977351	PROB	n/a	LTP115	ltpFR	9	n/a	n/a	n/a	n/a	n/a	n/a	19	5	9	5	n/a	n/a	n/a	n/a	n/a
979508	PROB	n/a	LTP115	ltpFR	9	n/a	n/a	n/a	n/a	n/a	n/a	10	1	5	4	n/a	n/a	n/a	n/a	n/a
981707	PROB	n/a	LTP115	ltpFR	9	n/a	n/a	n/a	n/a	n/a	n/a	14	2	8	4	n/a	n/a	n/a	n/a	n/a
983156	STOP	n/a	LTP115	ltpFR	9	n/a	n/a	n/a	n/a	n/a	n/a	n/a	n/a	n/a	n/a	n/a	n/a	n/a	n/a	n/a
986198	REC_START	n/a	LTP115	ltpFR	9	4	n/a	n/a	n/a	n/a	n/a	n/a	0	0	0	n/a	n/a	n/a	n/a	n/a
987620	REC_WORD	wordpools/wasnorm_wordpool.txt	LTP115	ltpFR	9	4	0	SHORE	1291	n/a	1	n/a	0	0	0	n/a	n/a	n/a	n/a	n/a
988423	REC_WORD	wordpools/wasnorm_wordpool.txt	LTP115	ltpFR	9	4	0	PALACE	1006	n/a	1	n/a	0	0	0	n/a	n/a	n/a	n/a	n/a
989236	REC_WORD	wordpools/wasnorm_wordpool.txt	LTP115	ltpFR	9	4	0	PRINCESS	1125	n/a	1	n/a	0	0	0	n/a	n/a	n/a	n/a	n/a
990049	REC_WORD	wordpools/wasnorm_wordpool.txt	LTP115	ltpFR	9	4	0	NEPHEW	942	n/a	1	n/a	0	0	0	n/a	n/a	n/a	n/a	n/a
991112	REC_WORD	wordpools/wasnorm_wordpool.txt	LTP115	ltpFR	9	4	0	PENGUIN	1044	n/a	1	n/a	0	0	0	n/a	n/a	n/a	n/a	n/a
992997	REC_WORD	wordpools/wasnorm_wordpool.txt	LTP115	ltpFR	9	4	0	STOMACH	1384	n/a	1	n/a	0	0	0	n/a	n/a	n/a	n/a	n/a
994254	REC_WORD	wordpools/wasnorm_wordpool.txt	LTP115	ltpFR	9	4	0	SHELF	1280	n/a	1	n/a	0	0	0	n/a	n/a	n/a	n/a	n/a
1024780	REC_WORD	wordpools/wasnorm_wordpool.txt	LTP115	ltpFR	9	4	n/a	TOMATO	1476	n/a	n/a	n/a	0	0	0	n/a	n/a	n/a	n/a	n/a
1048850	REC_WORD	wordpools/wasnorm_wordpool.txt	LTP115	ltpFR	9	4	0	PERCH	1048	n/a	0	n/a	0	0	0	n/a	n/a	n/a	n/a	n/a
1064986	WORD	wordpools/wasnorm_wordpool.txt	LTP115	ltpFR	9	5	0	DOCTOR	478	n/a	1	n/a	0	0	0	0	0.5869140625	0.422607421875	lower	../fonts/amplitud.ttf
1068894	WORD	wordpools/wasnorm_wordpool.txt	LTP115	ltpFR	9	5	0	FOE	587	n/a	1	n/a	0	0	0	0	0.5869140625	0.422607421875	lower	../fonts/amplitud.ttf
1072775	WORD	wordpools/wasnorm_wordpool.txt	LTP115	ltpFR	9	5	0	FRANCE	601	n/a	1	n/a	0	0	0	0	0.5869140625	0.422607421875	lower	../fonts/amplitud.ttf
1076640	WORD	wordpools/wasnorm_wordpool.txt	LTP115	ltpFR	9	5	0	WAVE	1596	n/a	1	n/a	0	0	0	0	0.5869140625	0.422607421875	lower	../fonts/amplitud.ttf
1080506	WORD	wordpools/wasnorm_wordpool.txt	LTP115	ltpFR	9	5	1	PATRIOT	1026	n/a	1	n/a	0	0	0	1	0.412841796875	0.57763671875	upper	../fonts/zerothre.ttf
1084671	WORD	wordpools/wasnorm_wordpool.txt	LTP115	ltpFR	9	5	1	SHOELACE	1289	n/a	0	n/a	0	0	0	1	0.412841796875	0.57763671875	upper	../fonts/zerothre.ttf
1088561	WORD	wordpools/wasnorm_wordpool.txt	LTP115	ltpFR	9	5	1	APRON	35	n/a	0	n/a	0	0	0	1	0.412841796875	0.57763671875	upper	../fonts/zerothre.ttf
1092401	WORD	wordpools/wasnorm_wordpool.txt	LTP115	ltpFR	9	5	1	EUROPE	541	n/a	0	n/a	0	0	0	1	0.412841796875	0.57763671875	upper	../fonts/zerothre.ttf
1096383	WORD	wordpools/wasnorm_wordpool.txt	LTP115	ltpFR	9	5	1	ELECTRICIAN	521	n/a	1	n/a	0	0	0	1	0.412841796875	0.57763671875	upper	../fonts/zerothre.ttf
1100499	WORD	wordpools/wasnorm_wordpool.txt	LTP115	ltpFR	9	5	0	LUMBER	848	n/a	0	n/a	0	0	0	0	0.5869140625	0.422607421875	lower	../fonts/amplitud.ttf
1104630	WORD	wordpools/wasnorm_wordpool.txt	LTP115	ltpFR	9	5	0	MOSS	918	n/a	0	n/a	0	0	0	0	0.5869140625	0.422607421875	lower	../fonts/amplitud.ttf
1108796	WORD	wordpools/wasnorm_wordpool.txt	LTP115	ltpFR	9	5	1	CHAMPION	279	n/a	1	n/a	0	0	0	1	0.412841796875	0.57763671875	upper	../fonts/zerothre.ttf
1112961	WORD	wordpools/wasnorm_wordpool.txt	LTP115	ltpFR	9	5	1	VICTOR	1563	n/a	1	n/a	0	0	0	1	0.412841796875	0.57763671875	upper	../fonts/zerothre.ttf
1116976	WORD	wordpools/wasnorm_wordpool.txt	LTP115	ltpFR	9	5	1	LOOP	844	n/a	0	n/a	0	0	0	1	0.412841796875	0.57763671875	upper	../fonts/zerothre.ttf
1121025	WORD	wordpools/wasnorm_wordpool.txt	LTP115	ltpFR	9	5	0	BUCKLE	185	n/a	0	n/a	0	0	0	0	0.5869140625	0.422607421875	lower	../fonts/amplitud.ttf
1125207	WORD	wordpools/wasnorm_wordpool.txt	LTP115	ltpFR	9	5	0	DRESSER	496	n/a	1	n/a	0	0	0	0	0.5869140625	0.422607421875	lower	../fonts/amplitud.ttf
1128214	START	n/a	LTP115	ltpFR	9	n/a	n/a	n/a	n/a	n/a	n/a	n/a	n/a	n/a	n/a	n/a	n/a	n/a	n/a	n/a
1129022	PROB	n/a	LTP115	ltpFR	9	n/a	n/a	n/a	n/a	n/a	n/a	11	6	3	2	n/a	n/a	n/a	n/a	n/a
1132146	PROB	n/a	LTP115	ltpFR	9	n/a	n/a	n/a	n/a	n/a	n/a	21	8	9	4	n/a	n/a	n/a	n/a	n/a
1134128	PROB	n/a	LTP115	ltpFR	9	n/a	n/a	n/a	n/a	n/a	n/a	22	7	6	9	n/a	n/a	n/a	n/a	n/a
1135753	PROB	n/a	LTP115	ltpFR	9	n/a	n/a	n/a	n/a	n/a	n/a	8	2	4	2	n/a	n/a	n/a	n/a	n/a
1138294	PROB	n/a	LTP115	ltpFR	9	n/a	n/a	n/a	n/a	n/a	n/a	18	5	9	4	n/a	n/a	n/a	n/a	n/a
1140368	PROB	n/a	LTP115	ltpFR	9	n/a	n/a	n/a	n/a	n/a	n/a	13	1	4	7	n/a	n/a	n/a	n/a	n/a
1143012	STOP	n/a	LTP115	ltpFR	9	n/a	n/a	n/a	n/a	n/a	n/a	n/a	n/a	n/a	n/a	n/a	n/a	n/a	n/a	n/a
1146033	REC_START	n/a	LTP115	ltpFR	9	5	n/a	n/a	n/a	n/a	n/a	n/a	0	0	0	n/a	n/a	n/a	n/a	n/a
1148392	REC_WORD	wordpools/wasnorm_wordpool.txt	LTP115	ltpFR	9	5	1	SHOELACE	1289	n/a	0	n/a	0	0	0	n/a	n/a	n/a	n/a	n/a
1149265	REC_WORD	wordpools/wasnorm_wordpool.txt	LTP115	ltpFR	9	5	1	PATRIOT	1026	n/a	1	n/a	0	0	0	n/a	n/a	n/a	n/a	n/a
1150428	REC_WORD	wordpools/wasnorm_wordpool.txt	LTP115	ltpFR	9	5	1	CHAMPION	279	n/a	1	n/a	0	0	0	n/a	n/a	n/a	n/a	n/a
1153047	REC_WORD	wordpools/wasnorm_wordpool.txt	LTP115	ltpFR	9	5	1	VICTOR	1563	n/a	1	n/a	0	0	0	n/a	n/a	n/a	n/a	n/a
1155930	REC_WORD	wordpools/wasnorm_wordpool.txt	LTP115	ltpFR	9	5	0	LUMBER	848	n/a	0	n/a	0	0	0	n/a	n/a	n/a	n/a	n/a
1156574	REC_WORD	wordpools/wasnorm_wordpool.txt	LTP115	ltpFR	9	5	1	ELECTRICIAN	521	n/a	1	n/a	0	0	0	n/a	n/a	n/a	n/a	n/a
1157721	REC_WORD	wordpools/wasnorm_wordpool.txt	LTP115	ltpFR	9	5	0	MOSS	918	n/a	0	n/a	0	0	0	n/a	n/a	n/a	n/a	n/a
1158779	REC_WORD	wordpools/wasnorm_wordpool.txt	LTP115	ltpFR	9	5	0	BUCKLE	185	n/a	0	n/a	0	0	0	n/a	n/a	n/a	n/a	n/a
1163678	REC_WORD	wordpools/wasnorm_wordpool.txt	LTP115	ltpFR	9	5	1	EUROPE	541	n/a	0	n/a	0	0	0	n/a	n/a	n/a	n/a	n/a
1164346	REC_WORD	wordpools/wasnorm_wordpool.txt	LTP115	ltpFR	9	5	0	FRANCE	601	n/a	1	n/a	0	0	0	n/a	n/a	n/a	n/a	n/a
1192352	REC_WORD	wordpools/wasnorm_wordpool.txt	LTP115	ltpFR	9	5	0	FOE	587	n/a	1	n/a	0	0	0	n/a	n/a	n/a	n/a	n/a
1193216	REC_WORD	wordpools/wasnorm_wordpool.txt	LTP115	ltpFR	9	5	0	DOCTOR	478	n/a	1	n/a	0	0	0	n/a	n/a	n/a	n/a	n/a
1194034	REC_WORD	wordpools/wasnorm_wordpool.txt	LTP115	ltpFR	9	5	0	WAVE	1596	n/a	1	n/a	0	0	0	n/a	n/a	n/a	n/a	n/a
1223514	START	n/a	LTP115	ltpFR	9	n/a	n/a	n/a	n/a	n/a	n/a	n/a	n/a	n/a	n/a	n/a	n/a	n/a	n/a	n/a
1225021	PROB	n/a	LTP115	ltpFR	9	n/a	n/a	n/a	n/a	n/a	n/a	15	3	9	3	n/a	n/a	n/a	n/a	n/a
1227179	PROB	n/a	LTP115	ltpFR	9	n/a	n/a	n/a	n/a	n/a	n/a	12	3	3	6	n/a	n/a	n/a	n/a	n/a
1228753	PROB	n/a	LTP115	ltpFR	9	n/a	n/a	n/a	n/a	n/a	n/a	22	8	7	7	n/a	n/a	n/a	n/a	n/a
1232477	PROB	n/a	LTP115	ltpFR	9	n/a	n/a	n/a	n/a	n/a	n/a	12	1	5	6	n/a	n/a	n/a	n/a	n/a
1234210	PROB	n/a	LTP115	ltpFR	9	n/a	n/a	n/a	n/a	n/a	n/a	16	6	8	2	n/a	n/a	n/a	n/a	n/a
1236109	PROB	n/a	LTP115	ltpFR	9	n/a	n/a	n/a	n/a	n/a	n/a	8	3	3	2	n/a	n/a	n/a	n/a	n/a
1237558	PROB	n/a	LTP115	ltpFR	9	n/a	n/a	n/a	n/a	n/a	n/a	18	1	8	9	n/a	n/a	n/a	n/a	n/a
1238901	STOP	n/a	LTP115	ltpFR	9	n/a	n/a	n/a	n/a	n/a	n/a	n/a	n/a	n/a	n/a	n/a	n/a	n/a	n/a	n/a
1240324	WORD	wordpools/wasnorm_wordpool.txt	LTP115	ltpFR	9	6	1	PAINTER	1004	n/a	1	n/a	0	0	0	1	0.412841796875	0.57763671875	upper	../fonts/zerothre.ttf
1243332	START	n/a	LTP115	ltpFR	9	n/a	n/a	n/a	n/a	n/a	n/a	n/a	n/a	n/a	n/a	n/a	n/a	n/a	n/a	n/a
1244423	PROB	n/a	LTP115	ltpFR	9	n/a	n/a	n/a	n/a	n/a	n/a	13	7	3	3	n/a	n/a	n/a	n/a	n/a
1245855	PROB	n/a	LTP115	ltpFR	9	n/a	n/a	n/a	n/a	n/a	n/a	21	9	4	8	n/a	n/a	n/a	n/a	n/a
1247780	PROB	n/a	LTP115	ltpFR	9	n/a	n/a	n/a	n/a	n/a	n/a	15	3	6	6	n/a	n/a	n/a	n/a	n/a
1249421	PROB	n/a	LTP115	ltpFR	9	n/a	n/a	n/a	n/a	n/a	n/a	18	6	7	5	n/a	n/a	n/a	n/a	n/a
1251062	PROB	n/a	LTP115	ltpFR	9	n/a	n/a	n/a	n/a	n/a	n/a	10	2	3	5	n/a	n/a	n/a	n/a	n/a
1252561	PROB	n/a	LTP115	ltpFR	9	n/a	n/a	n/a	n/a	n/a	n/a	12	4	2	6	n/a	n/a	n/a	n/a	n/a
1254169	PROB	n/a	LTP115	ltpFR	9	n/a	n/a	n/a	n/a	n/a	n/a	20	5	8	7	n/a	n/a	n/a	n/a	n/a
1256577	PROB	n/a	LTP115	ltpFR	9	n/a	n/a	n/a	n/a	n/a	n/a	12	8	1	3	n/a	n/a	n/a	n/a	n/a
1259316	STOP	n/a	LTP115	ltpFR	9	n/a	n/a	n/a	n/a	n/a	n/a	n/a	n/a	n/a	n/a	n/a	n/a	n/a	n/a	n/a
1260209	WORD	wordpools/wasnorm_wordpool.txt	LTP115	ltpFR	9	6	1	FURNITURE	616	n/a	0	n/a	0	0	0	1	0.412841796875	0.57763671875	upper	../fonts/zerothre.ttf
1263217	START	n/a	LTP115	ltpFR	9	n/a	n/a	n/a	n/a	n/a	n/a	n/a	n/a	n/a	n/a	n/a	n/a	n/a	n/a	n/a
1264407	PROB	n/a	LTP115	ltpFR	9	n/a	n/a	n/a	n/a	n/a	n/a	12	4	7	1	n/a	n/a	n/a	n/a	n/a
1265948	PROB	n/a	LTP115	ltpFR	9	n/a	n/a	n/a	n/a	n/a	n/a	14	2	6	6	n/a	n/a	n/a	n/a	n/a
1267773	PROB	n/a	LTP115	ltpFR	9	n/a	n/a	n/a	n/a	n/a	n/a	24	8	8	8	n/a	n/a	n/a	n/a	n/a
1269372	PROB	n/a	LTP115	ltpFR	9	n/a	n/a	n/a	n/a	n/a	n/a	11	2	4	5	n/a	n/a	n/a	n/a	n/a
1270913	PROB	n/a	LTP115	ltpFR	9	n/a	n/a	n/a	n/a	n/a	n/a	10	2	7	1	n/a	n/a	n/a	n/a	n/a
1272396	PROB	n/a	LTP115	ltpFR	9	n/a	n/a	n/a	n/a	n/a	n/a	24	8	9	7	n/a	n/a	n/a	n/a	n/a
1274604	PROB	n/a	LTP115	ltpFR	9	n/a	n/a	n/a	n/a	n/a	n/a	12	5	5	2	n/a	n/a	n/a	n/a	n/a
1275736	PROB	n/a	LTP115	ltpFR	9	n/a	n/a	n/a	n/a	n/a	n/a	10	2	1	7	n/a	n/a	n/a	n/a	n/a
1277003	PROB	n/a	LTP115	ltpFR	9	n/a	n/a	n/a	n/a	n/a	n/a	14	5	1	8	n/a	n/a	n/a	n/a	n/a
1278476	STOP	n/a	LTP115	ltpFR	9	n/a	n/a	n/a	n/a	n/a	n/a	n/a	n/a	n/a	n/a	n/a	n/a	n/a	n/a	n/a
1280160	WORD	wordpools/wasnorm_wordpool.txt	LTP115	ltpFR	9	6	1	PAGE	1001	n/a	0	n/a	0	0	0	1	0.412841796875	0.57763671875	upper	../fonts/zerothre.ttf
1283168	START	n/a	LTP115	ltpFR	9	n/a	n/a	n/a	n/a	n/a	n/a	n/a	n/a	n/a	n/a	n/a	n/a	n/a	n/a	n/a
1284009	PROB	n/a	LTP115	ltpFR	9	n/a	n/a	n/a	n/a	n/a	n/a	16	1	7	8	n/a	n/a	n/a	n/a	n/a
1286324	PROB	n/a	LTP115	ltpFR	9	n/a	n/a	n/a	n/a	n/a	n/a	13	6	3	4	n/a	n/a	n/a	n/a	n/a
1288574	PROB	n/a	LTP115	ltpFR	9	n/a	n/a	n/a	n/a	n/a	n/a	9	1	7	1	n/a	n/a	n/a	n/a	n/a
1289832	PROB	n/a	LTP115	ltpFR	9	n/a	n/a	n/a	n/a	n/a	n/a	16	9	5	2	n/a	n/a	n/a	n/a	n/a
1291531	PROB	n/a	LTP115	ltpFR	9	n/a	n/a	n/a	n/a	n/a	n/a	18	7	7	4	n/a	n/a	n/a	n/a	n/a
1293372	PROB	n/a	LTP115	ltpFR	9	n/a	n/a	n/a	n/a	n/a	n/a	14	4	6	4	n/a	n/a	n/a	n/a	n/a
1294638	PROB	n/a	LTP115	ltpFR	9	n/a	n/a	n/a	n/a	n/a	n/a	15	2	9	4	n/a	n/a	n/a	n/a	n/a
1296529	PROB	n/a	LTP115	ltpFR	9	n/a	n/a	n/a	n/a	n/a	n/a	12	8	2	2	n/a	n/a	n/a	n/a	n/a
1297905	STOP	n/a	LTP115	ltpFR	9	n/a	n/a	n/a	n/a	n/a	n/a	n/a	n/a	n/a	n/a	n/a	n/a	n/a	n/a	n/a
1300045	WORD	wordpools/wasnorm_wordpool.txt	LTP115	ltpFR	9	6	1	LIBRARY	816	n/a	0	n/a	0	0	0	1	0.412841796875	0.57763671875	upper	../fonts/zerothre.ttf
1303052	START	n/a	LTP115	ltpFR	9	n/a	n/a	n/a	n/a	n/a	n/a	n/a	n/a	n/a	n/a	n/a	n/a	n/a	n/a	n/a
1304052	PROB	n/a	LTP115	ltpFR	9	n/a	n/a	n/a	n/a	n/a	n/a	13	2	8	3	n/a	n/a	n/a	n/a	n/a
1305443	PROB	n/a	LTP115	ltpFR	9	n/a	n/a	n/a	n/a	n/a	n/a	16	2	8	6	n/a	n/a	n/a	n/a	n/a
1307517	PROB	n/a	LTP115	ltpFR	9	n/a	n/a	n/a	n/a	n/a	n/a	25	7	9	9	n/a	n/a	n/a	n/a	n/a
1309508	PROB	n/a	LTP115	ltpFR	9	n/a	n/a	n/a	n/a	n/a	n/a	10	2	6	2	n/a	n/a	n/a	n/a	n/a
1311174	PROB	n/a	LTP115	ltpFR	9	n/a	n/a	n/a	n/a	n/a	n/a	17	7	4	6	n/a	n/a	n/a	n/a	n/a
1313215	PROB	n/a	LTP115	ltpFR	9	n/a	n/a	n/a	n/a	n/a	n/a	21	9	5	7	n/a	n/a	n/a	n/a	n/a
1315272	PROB	n/a	LTP115	ltpFR	9	n/a	n/a	n/a	n/a	n/a	n/a	15	3	3	9	n/a	n/a	n/a	n/a	n/a
1317213	PROB	n/a	LTP115	ltpFR	9	n/a	n/a	n/a	n/a	n/a	n/a	11	8	1	2	n/a	n/a	n/a	n/a	n/a
1318540	STOP	n/a	LTP115	ltpFR	9	n/a	n/a	n/a	n/a	n/a	n/a	n/a	n/a	n/a	n/a	n/a	n/a	n/a	n/a	n/a
1319880	WORD	wordpools/wasnorm_wordpool.txt	LTP115	ltpFR	9	6	1	SLIDE	1326	n/a	0	n/a	0	0	0	1	0.412841796875	0.57763671875	upper	../fonts/zerothre.ttf
1322888	START	n/a	LTP115	ltpFR	9	n/a	n/a	n/a	n/a	n/a	n/a	n/a	n/a	n/a	n/a	n/a	n/a	n/a	n/a	n/a
1324036	PROB	n/a	LTP115	ltpFR	9	n/a	n/a	n/a	n/a	n/a	n/a	18	8	4	6	n/a	n/a	n/a	n/a	n/a
1325819	PROB	n/a	LTP115	ltpFR	9	n/a	n/a	n/a	n/a	n/a	n/a	19	7	5	7	n/a	n/a	n/a	n/a	n/a
1328776	PROB	n/a	LTP115	ltpFR	9	n/a	n/a	n/a	n/a	n/a	n/a	16	7	5	4	n/a	n/a	n/a	n/a	n/a
1332725	PROB	n/a	LTP115	ltpFR	9	n/a	n/a	n/a	n/a	n/a	n/a	5	2	1	2	n/a	n/a	n/a	n/a	n/a
1333909	PROB	n/a	LTP115	ltpFR	9	n/a	n/a	n/a	n/a	n/a	n/a	21	5	8	8	n/a	n/a	n/a	n/a	n/a
1335615	PROB	n/a	LTP115	ltpFR	9	n/a	n/a	n/a	n/a	n/a	n/a	10	1	5	4	n/a	n/a	n/a	n/a	n/a
1338888	STOP	n/a	LTP115	ltpFR	9	n/a	n/a	n/a	n/a	n/a	n/a	n/a	n/a	n/a	n/a	n/a	n/a	n/a	n/a	n/a
1340005	WORD	wordpools/wasnorm_wordpool.txt	LTP115	ltpFR	9	6	1	COOKIE	374	n/a	0	n/a	0	0	0	1	0.412841796875	0.57763671875	upper	../fonts/zerothre.ttf
1343022	START	n/a	LTP115	ltpFR	9	n/a	n/a	n/a	n/a	n/a	n/a	n/a	n/a	n/a	n/a	n/a	n/a	n/a	n/a	n/a
1343912	PROB	n/a	LTP115	ltpFR	9	n/a	n/a	n/a	n/a	n/a	n/a	13	1	7	5	n/a	n/a	n/a	n/a	n/a
1346253	PROB	n/a	LTP115	ltpFR	9	n/a	n/a	n/a	n/a	n/a	n/a	13	3	9	1	n/a	n/a	n/a	n/a	n/a
1348361	PROB	n/a	LTP115	ltpFR	9	n/a	n/a	n/a	n/a	n/a	n/a	19	9	3	7	n/a	n/a	n/a	n/a	n/a
1350760	PROB	n/a	LTP115	ltpFR	9	n/a	n/a	n/a	n/a	n/a	n/a	17	5	4	8	n/a	n/a	n/a	n/a	n/a
1352967	PROB	n/a	LTP115	ltpFR	9	n/a	n/a	n/a	n/a	n/a	n/a	17	7	1	9	n/a	n/a	n/a	n/a	n/a
1354675	PROB	n/a	LTP115	ltpFR	9	n/a	n/a	n/a	n/a	n/a	n/a	14	9	2	3	n/a	n/a	n/a	n/a	n/a
1356716	PROB	n/a	LTP115	ltpFR	9	n/a	n/a	n/a	n/a	n/a	n/a	18	9	7	2	n/a	n/a	n/a	n/a	n/a
1358332	STOP	n/a	LTP115	ltpFR	9	n/a	n/a	n/a	n/a	n/a	n/a	n/a	n/a	n/a	n/a	n/a	n/a	n/a	n/a	n/a
1360098	WORD	wordpools/wasnorm_wordpool.txt	LTP115	ltpFR	9	6	1	SEAT	1264	n/a	0	n/a	0	0	0	1	0.412841796875	0.57763671875	upper	../fonts/zerothre.ttf
1363106	START	n/a	LTP115	ltpFR	9	n/a	n/a	n/a	n/a	n/a	n/a	n/a	n/a	n/a	n/a	n/a	n/a	n/a	n/a	n/a
1363914	PROB	n/a	LTP115	ltpFR	9	n/a	n/a	n/a	n/a	n/a	n/a	26	9	8	9	n/a	n/a	n/a	n/a	n/a
1366571	PROB	n/a	LTP115	ltpFR	9	n/a	n/a	n/a	n/a	n/a	n/a	17	8	7	2	n/a	n/a	n/a	n/a	n/a
1368379	PROB	n/a	LTP115	ltpFR	9	n/a	n/a	n/a	n/a	n/a	n/a	22	7	7	8	n/a	n/a	n/a	n/a	n/a
1370003	PROB	n/a	LTP115	ltpFR	9	n/a	n/a	n/a	n/a	n/a	n/a	16	5	7	4	n/a	n/a	n/a	n/a	n/a
1372327	PROB	n/a	LTP115	ltpFR	9	n/a	n/a	n/a	n/a	n/a	n/a	16	1	8	7	n/a	n/a	n/a	n/a	n/a
1374002	PROB	n/a	LTP115	ltpFR	9	n/a	n/a	n/a	n/a	n/a	n/a	17	7	5	5	n/a	n/a	n/a	n/a	n/a
1376409	PROB	n/a	LTP115	ltpFR	9	n/a	n/a	n/a	n/a	n/a	n/a	8	2	1	5	n/a	n/a	n/a	n/a	n/a
1377796	STOP	n/a	LTP115	ltpFR	9	n/a	n/a	n/a	n/a	n/a	n/a	n/a	n/a	n/a	n/a	n/a	n/a	n/a	n/a	n/a
1379958	WORD	wordpools/wasnorm_wordpool.txt	LTP115	ltpFR	9	6	1	COUCH	386	n/a	0	n/a	0	0	0	1	0.412841796875	0.57763671875	upper	../fonts/zerothre.ttf
1382966	START	n/a	LTP115	ltpFR	9	n/a	n/a	n/a	n/a	n/a	n/a	n/a	n/a	n/a	n/a	n/a	n/a	n/a	n/a	n/a
1383998	PROB	n/a	LTP115	ltpFR	9	n/a	n/a	n/a	n/a	n/a	n/a	20	9	2	9	n/a	n/a	n/a	n/a	n/a
1385598	PROB	n/a	LTP115	ltpFR	9	n/a	n/a	n/a	n/a	n/a	n/a	21	4	8	9	n/a	n/a	n/a	n/a	n/a
1387863	PROB	n/a	LTP115	ltpFR	9	n/a	n/a	n/a	n/a	n/a	n/a	13	4	3	6	n/a	n/a	n/a	n/a	n/a
1389721	PROB	n/a	LTP115	ltpFR	9	n/a	n/a	n/a	n/a	n/a	n/a	19	6	7	6	n/a	n/a	n/a	n/a	n/a
1392070	PROB	n/a	LTP115	ltpFR	9	n/a	n/a	n/a	n/a	n/a	n/a	15	6	4	5	n/a	n/a	n/a	n/a	n/a
1393603	PROB	n/a	LTP115	ltpFR	9	n/a	n/a	n/a	n/a	n/a	n/a	22	6	9	7	n/a	n/a	n/a	n/a	n/a
1396760	PROB	n/a	LTP115	ltpFR	9	n/a	n/a	n/a	n/a	n/a	n/a	12	6	5	1	n/a	n/a	n/a	n/a	n/a
1398412	STOP	n/a	LTP115	ltpFR	9	n/a	n/a	n/a	n/a	n/a	n/a	n/a	n/a	n/a	n/a	n/a	n/a	n/a	n/a	n/a
1400059	WORD	wordpools/wasnorm_wordpool.txt	LTP115	ltpFR	9	6	1	NAVIGATOR	938	n/a	1	n/a	0	0	0	1	0.412841796875	0.57763671875	upper	../fonts/zerothre.ttf
1403067	START	n/a	LTP115	ltpFR	9	n/a	n/a	n/a	n/a	n/a	n/a	n/a	n/a	n/a	n/a	n/a	n/a	n/a	n/a	n/a
1403958	PROB	n/a	LTP115	ltpFR	9	n/a	n/a	n/a	n/a	n/a	n/a	12	4	7	1	n/a	n/a	n/a	n/a	n/a
1405249	PROB	n/a	LTP115	ltpFR	9	n/a	n/a	n/a	n/a	n/a	n/a	12	3	1	8	n/a	n/a	n/a	n/a	n/a
1406698	PROB	n/a	LTP115	ltpFR	9	n/a	n/a	n/a	n/a	n/a	n/a	15	4	9	2	n/a	n/a	n/a	n/a	n/a
1408331	PROB	n/a	LTP115	ltpFR	9	n/a	n/a	n/a	n/a	n/a	n/a	17	2	8	7	n/a	n/a	n/a	n/a	n/a
1409639	PROB	n/a	LTP115	ltpFR	9	n/a	n/a	n/a	n/a	n/a	n/a	24	9	7	8	n/a	n/a	n/a	n/a	n/a
1411889	PROB	n/a	LTP115	ltpFR	9	n/a	n/a	n/a	n/a	n/a	n/a	7	2	2	3	n/a	n/a	n/a	n/a	n/a
1413946	PROB	n/a	LTP115	ltpFR	9	n/a	n/a	n/a	n/a	n/a	n/a	14	4	5	5	n/a	n/a	n/a	n/a	n/a
1415637	PROB	n/a	LTP115	ltpFR	9	n/a	n/a	n/a	n/a	n/a	n/a	16	3	9	4	n/a	n/a	n/a	n/a	n/a
1419066	STOP	n/a	LTP115	ltpFR	9	n/a	n/a	n/a	n/a	n/a	n/a	n/a	n/a	n/a	n/a	n/a	n/a	n/a	n/a	n/a
1420002	WORD	wordpools/wasnorm_wordpool.txt	LTP115	ltpFR	9	6	1	CHOCOLATE	306	n/a	0	n/a	0	0	0	1	0.412841796875	0.57763671875	upper	../fonts/zerothre.ttf
1423010	START	n/a	LTP115	ltpFR	9	n/a	n/a	n/a	n/a	n/a	n/a	n/a	n/a	n/a	n/a	n/a	n/a	n/a	n/a	n/a
1423851	PROB	n/a	LTP115	ltpFR	9	n/a	n/a	n/a	n/a	n/a	n/a	7	2	1	4	n/a	n/a	n/a	n/a	n/a
1425583	PROB	n/a	LTP115	ltpFR	9	n/a	n/a	n/a	n/a	n/a	n/a	18	6	9	3	n/a	n/a	n/a	n/a	n/a
1427266	PROB	n/a	LTP115	ltpFR	9	n/a	n/a	n/a	n/a	n/a	n/a	11	2	8	1	n/a	n/a	n/a	n/a	n/a
1428774	PROB	n/a	LTP115	ltpFR	9	n/a	n/a	n/a	n/a	n/a	n/a	18	6	9	3	n/a	n/a	n/a	n/a	n/a
1430348	PROB	n/a	LTP115	ltpFR	9	n/a	n/a	n/a	n/a	n/a	n/a	19	4	6	9	n/a	n/a	n/a	n/a	n/a
1431690	PROB	n/a	LTP115	ltpFR	9	n/a	n/a	n/a	n/a	n/a	n/a	13	5	3	5	n/a	n/a	n/a	n/a	n/a
1433064	PROB	n/a	LTP115	ltpFR	9	n/a	n/a	n/a	n/a	n/a	n/a	18	9	3	6	n/a	n/a	n/a	n/a	n/a
1434747	PROB	n/a	LTP115	ltpFR	9	n/a	n/a	n/a	n/a	n/a	n/a	12	3	6	3	n/a	n/a	n/a	n/a	n/a
1436321	PROB	n/a	LTP115	ltpFR	9	n/a	n/a	n/a	n/a	n/a	n/a	16	5	8	3	n/a	n/a	n/a	n/a	n/a
1437836	STOP	n/a	LTP115	ltpFR	9	n/a	n/a	n/a	n/a	n/a	n/a	n/a	n/a	n/a	n/a	n/a	n/a	n/a	n/a	n/a
1439845	WORD	wordpools/wasnorm_wordpool.txt	LTP115	ltpFR	9	6	1	POCKET	1093	n/a	0	n/a	0	0	0	1	0.412841796875	0.57763671875	upper	../fonts/zerothre.ttf
1442853	START	n/a	LTP115	ltpFR	9	n/a	n/a	n/a	n/a	n/a	n/a	n/a	n/a	n/a	n/a	n/a	n/a	n/a	n/a	n/a
1443878	PROB	n/a	LTP115	ltpFR	9	n/a	n/a	n/a	n/a	n/a	n/a	12	1	4	7	n/a	n/a	n/a	n/a	n/a
1445785	PROB	n/a	LTP115	ltpFR	9	n/a	n/a	n/a	n/a	n/a	n/a	6	1	1	4	n/a	n/a	n/a	n/a	n/a
1447026	PROB	n/a	LTP115	ltpFR	9	n/a	n/a	n/a	n/a	n/a	n/a	13	6	1	6	n/a	n/a	n/a	n/a	n/a
1448317	PROB	n/a	LTP115	ltpFR	9	n/a	n/a	n/a	n/a	n/a	n/a	18	3	9	6	n/a	n/a	n/a	n/a	n/a
1449716	PROB	n/a	LTP115	ltpFR	9	n/a	n/a	n/a	n/a	n/a	n/a	23	6	9	8	n/a	n/a	n/a	n/a	n/a
1452157	PROB	n/a	LTP115	ltpFR	9	n/a	n/a	n/a	n/a	n/a	n/a	10	2	3	5	n/a	n/a	n/a	n/a	n/a
1453607	PROB	n/a	LTP115	ltpFR	9	n/a	n/a	n/a	n/a	n/a	n/a	16	3	5	8	n/a	n/a	n/a	n/a	n/a
1455381	PROB	n/a	LTP115	ltpFR	9	n/a	n/a	n/a	n/a	n/a	n/a	14	1	8	5	n/a	n/a	n/a	n/a	n/a
1458853	STOP	n/a	LTP115	ltpFR	9	n/a	n/a	n/a	n/a	n/a	n/a	n/a	n/a	n/a	n/a	n/a	n/a	n/a	n/a	n/a
1459738	WORD	wordpools/wasnorm_wordpool.txt	LTP115	ltpFR	9	6	1	SLACKS	1323	n/a	0	n/a	0	0	0	1	0.412841796875	0.57763671875	upper	../fonts/zerothre.ttf
1462746	START	n/a	LTP115	ltpFR	9	n/a	n/a	n/a	n/a	n/a	n/a	n/a	n/a	n/a	n/a	n/a	n/a	n/a	n/a	n/a
1463795	PROB	n/a	LTP115	ltpFR	9	n/a	n/a	n/a	n/a	n/a	n/a	15	5	9	1	n/a	n/a	n/a	n/a	n/a
1465811	PROB	n/a	LTP115	ltpFR	9	n/a	n/a	n/a	n/a	n/a	n/a	9	6	2	1	n/a	n/a	n/a	n/a	n/a
1467477	PROB	n/a	LTP115	ltpFR	9	n/a	n/a	n/a	n/a	n/a	n/a	12	3	5	4	n/a	n/a	n/a	n/a	n/a
1469193	PROB	n/a	LTP115	ltpFR	9	n/a	n/a	n/a	n/a	n/a	n/a	13	1	8	4	n/a	n/a	n/a	n/a	n/a
1470934	PROB	n/a	LTP115	ltpFR	9	n/a	n/a	n/a	n/a	n/a	n/a	18	8	7	3	n/a	n/a	n/a	n/a	n/a
1472750	PROB	n/a	LTP115	ltpFR	9	n/a	n/a	n/a	n/a	n/a	n/a	22	9	8	5	n/a	n/a	n/a	n/a	n/a
1474549	PROB	n/a	LTP115	ltpFR	9	n/a	n/a	n/a	n/a	n/a	n/a	5	2	1	2	n/a	n/a	n/a	n/a	n/a
1475557	PROB	n/a	LTP115	ltpFR	9	n/a	n/a	n/a	n/a	n/a	n/a	10	1	7	2	n/a	n/a	n/a	n/a	n/a
1477540	STOP	n/a	LTP115	ltpFR	9	n/a	n/a	n/a	n/a	n/a	n/a	n/a	n/a	n/a	n/a	n/a	n/a	n/a	n/a	n/a
1479723	WORD	wordpools/wasnorm_wordpool.txt	LTP115	ltpFR	9	6	1	PRESIDENT	1121	n/a	1	n/a	0	0	0	1	0.412841796875	0.57763671875	upper	../fonts/zerothre.ttf
1482730	START	n/a	LTP115	ltpFR	9	n/a	n/a	n/a	n/a	n/a	n/a	n/a	n/a	n/a	n/a	n/a	n/a	n/a	n/a	n/a
1483704	PROB	n/a	LTP115	ltpFR	9	n/a	n/a	n/a	n/a	n/a	n/a	17	7	5	5	n/a	n/a	n/a	n/a	n/a
1485337	PROB	n/a	LTP115	ltpFR	9	n/a	n/a	n/a	n/a	n/a	n/a	8	3	1	4	n/a	n/a	n/a	n/a	n/a
1486695	PROB	n/a	LTP115	ltpFR	9	n/a	n/a	n/a	n/a	n/a	n/a	14	2	5	7	n/a	n/a	n/a	n/a	n/a
1488636	PROB	n/a	LTP115	ltpFR	9	n/a	n/a	n/a	n/a	n/a	n/a	17	7	9	1	n/a	n/a	n/a	n/a	n/a
1490277	PROB	n/a	LTP115	ltpFR	9	n/a	n/a	n/a	n/a	n/a	n/a	15	4	6	5	n/a	n/a	n/a	n/a	n/a
1491643	PROB	n/a	LTP115	ltpFR	9	n/a	n/a	n/a	n/a	n/a	n/a	11	2	8	1	n/a	n/a	n/a	n/a	n/a
1493010	PROB	n/a	LTP115	ltpFR	9	n/a	n/a	n/a	n/a	n/a	n/a	13	3	5	5	n/a	n/a	n/a	n/a	n/a
1494417	PROB	n/a	LTP115	ltpFR	9	n/a	n/a	n/a	n/a	n/a	n/a	11	3	3	5	n/a	n/a	n/a	n/a	n/a
1495884	PROB	n/a	LTP115	ltpFR	9	n/a	n/a	n/a	n/a	n/a	n/a	17	1	7	9	n/a	n/a	n/a	n/a	n/a
1497524	STOP	n/a	LTP115	ltpFR	9	n/a	n/a	n/a	n/a	n/a	n/a	n/a	n/a	n/a	n/a	n/a	n/a	n/a	n/a	n/a
1499782	WORD	wordpools/wasnorm_wordpool.txt	LTP115	ltpFR	9	6	1	PUPPY	1144	n/a	1	n/a	0	0	0	1	0.412841796875	0.57763671875	upper	../fonts/zerothre.ttf
1502790	START	n/a	LTP115	ltpFR	9	n/a	n/a	n/a	n/a	n/a	n/a	n/a	n/a	n/a	n/a	n/a	n/a	n/a	n/a	n/a
1503606	PROB	n/a	LTP115	ltpFR	9	n/a	n/a	n/a	n/a	n/a	n/a	8	1	4	3	n/a	n/a	n/a	n/a	n/a
1505630	PROB	n/a	LTP115	ltpFR	9	n/a	n/a	n/a	n/a	n/a	n/a	20	7	7	6	n/a	n/a	n/a	n/a	n/a
1507889	PROB	n/a	LTP115	ltpFR	9	n/a	n/a	n/a	n/a	n/a	n/a	11	5	2	4	n/a	n/a	n/a	n/a	n/a
1509445	PROB	n/a	LTP115	ltpFR	9	n/a	n/a	n/a	n/a	n/a	n/a	14	7	6	1	n/a	n/a	n/a	n/a	n/a
1511270	PROB	n/a	LTP115	ltpFR	9	n/a	n/a	n/a	n/a	n/a	n/a	8	3	4	1	n/a	n/a	n/a	n/a	n/a
1512553	PROB	n/a	LTP115	ltpFR	9	n/a	n/a	n/a	n/a	n/a	n/a	23	8	8	7	n/a	n/a	n/a	n/a	n/a
1518700	STOP	n/a	LTP115	ltpFR	9	n/a	n/a	n/a	n/a	n/a	n/a	n/a	n/a	n/a	n/a	n/a	n/a	n/a	n/a	n/a
1519717	WORD	wordpools/wasnorm_wordpool.txt	LTP115	ltpFR	9	6	1	WARRIOR	1589	n/a	1	n/a	0	0	0	1	0.412841796875	0.57763671875	upper	../fonts/zerothre.ttf
1522724	START	n/a	LTP115	ltpFR	9	n/a	n/a	n/a	n/a	n/a	n/a	n/a	n/a	n/a	n/a	n/a	n/a	n/a	n/a	n/a
1523590	PROB	n/a	LTP115	ltpFR	9	n/a	n/a	n/a	n/a	n/a	n/a	23	6	8	9	n/a	n/a	n/a	n/a	n/a
1526623	PROB	n/a	LTP115	ltpFR	9	n/a	n/a	n/a	n/a	n/a	n/a	15	7	4	4	n/a	n/a	n/a	n/a	n/a
1528364	PROB	n/a	LTP115	ltpFR	9	n/a	n/a	n/a	n/a	n/a	n/a	14	4	2	8	n/a	n/a	n/a	n/a	n/a
1529722	PROB	n/a	LTP115	ltpFR	9	n/a	n/a	n/a	n/a	n/a	n/a	19	8	7	4	n/a	n/a	n/a	n/a	n/a
1532279	PROB	n/a	LTP115	ltpFR	9	n/a	n/a	n/a	n/a	n/a	n/a	12	4	7	1	n/a	n/a	n/a	n/a	n/a
1533595	PROB	n/a	LTP115	ltpFR	9	n/a	n/a	n/a	n/a	n/a	n/a	16	3	9	4	n/a	n/a	n/a	n/a	n/a
1535186	PROB	n/a	LTP115	ltpFR	9	n/a	n/a	n/a	n/a	n/a	n/a	11	2	5	4	n/a	n/a	n/a	n/a	n/a
1536611	PROB	n/a	LTP115	ltpFR	9	n/a	n/a	n/a	n/a	n/a	n/a	15	6	6	3	n/a	n/a	n/a	n/a	n/a
1538372	STOP	n/a	LTP115	ltpFR	9	n/a	n/a	n/a	n/a	n/a	n/a	n/a	n/a	n/a	n/a	n/a	n/a	n/a	n/a	n/a
1539801	WORD	wordpools/wasnorm_wordpool.txt	LTP115	ltpFR	9	6	1	PADDING	999	n/a	0	n/a	0	0	0	1	0.412841796875	0.57763671875	upper	../fonts/zerothre.ttf
1542809	START	n/a	LTP115	ltpFR	9	n/a	n/a	n/a	n/a	n/a	n/a	n/a	n/a	n/a	n/a	n/a	n/a	n/a	n/a	n/a
1543633	PROB	n/a	LTP115	ltpFR	9	n/a	n/a	n/a	n/a	n/a	n/a	14	1	9	4	n/a	n/a	n/a	n/a	n/a
1546382	PROB	n/a	LTP115	ltpFR	9	n/a	n/a	n/a	n/a	n/a	n/a	14	3	3	8	n/a	n/a	n/a	n/a	n/a
1548165	PROB	n/a	LTP115	ltpFR	9	n/a	n/a	n/a	n/a	n/a	n/a	20	8	4	8	n/a	n/a	n/a	n/a	n/a
1550731	PROB	n/a	LTP115	ltpFR	9	n/a	n/a	n/a	n/a	n/a	n/a	17	8	1	8	n/a	n/a	n/a	n/a	n/a
1553013	PROB	n/a	LTP115	ltpFR	9	n/a	n/a	n/a	n/a	n/a	n/a	16	5	4	7	n/a	n/a	n/a	n/a	n/a
1554954	PROB	n/a	LTP115	ltpFR	9	n/a	n/a	n/a	n/a	n/a	n/a	21	8	7	6	n/a	n/a	n/a	n/a	n/a
1556762	PROB	n/a	LTP115	ltpFR	9	n/a	n/a	n/a	n/a	n/a	n/a	22	7	9	6	n/a	n/a	n/a	n/a	n/a
1558500	STOP	n/a	LTP115	ltpFR	9	n/a	n/a	n/a	n/a	n/a	n/a	n/a	n/a	n/a	n/a	n/a	n/a	n/a	n/a	n/a
1560553	REC_START	n/a	LTP115	ltpFR	9	6	n/a	n/a	n/a	n/a	n/a	n/a	0	0	0	n/a	n/a	n/a	n/a	n/a
1561885	REC_WORD	wordpools/wasnorm_wordpool.txt	LTP115	ltpFR	9	6	1	WARRIOR	1589	n/a	1	n/a	0	0	0	n/a	n/a	n/a	n/a	n/a
1563037	REC_WORD	wordpools/wasnorm_wordpool.txt	LTP115	ltpFR	9	6	1	PADDING	999	n/a	0	n/a	0	0	0	n/a	n/a	n/a	n/a	n/a
1563975	REC_WORD	wordpools/wasnorm_wordpool.txt	LTP115	ltpFR	9	6	1	PRESIDENT	1121	n/a	1	n/a	0	0	0	n/a	n/a	n/a	n/a	n/a
1564898	REC_WORD	wordpools/wasnorm_wordpool.txt	LTP115	ltpFR	9	6	1	PUPPY	1144	n/a	1	n/a	0	0	0	n/a	n/a	n/a	n/a	n/a
1565955	REC_WORD	wordpools/wasnorm_wordpool.txt	LTP115	ltpFR	9	6	1	SLACKS	1323	n/a	0	n/a	0	0	0	n/a	n/a	n/a	n/a	n/a
1567158	REC_WORD	wordpools/wasnorm_wordpool.txt	LTP115	ltpFR	9	6	1	POCKET	1093	n/a	0	n/a	0	0	0	n/a	n/a	n/a	n/a	n/a
1568200	REC_WORD	wordpools/wasnorm_wordpool.txt	LTP115	ltpFR	9	6	1	CHOCOLATE	306	n/a	0	n/a	0	0	0	n/a	n/a	n/a	n/a	n/a
1569263	REC_WORD	wordpools/wasnorm_wordpool.txt	LTP115	ltpFR	9	6	1	NAVIGATOR	938	n/a	1	n/a	0	0	0	n/a	n/a	n/a	n/a	n/a
1572486	REC_WORD	wordpools/wasnorm_wordpool.txt	LTP115	ltpFR	9	6	1	SEAT	1264	n/a	0	n/a	0	0	0	n/a	n/a	n/a	n/a	n/a
1573508	REC_WORD	wordpools/wasnorm_wordpool.txt	LTP115	ltpFR	9	6	1	COUCH	386	n/a	0	n/a	0	0	0	n/a	n/a	n/a	n/a	n/a
1575434	REC_WORD	wordpools/wasnorm_wordpool.txt	LTP115	ltpFR	9	6	1	LIBRARY	816	n/a	0	n/a	0	0	0	n/a	n/a	n/a	n/a	n/a
1576811	REC_WORD	wordpools/wasnorm_wordpool.txt	LTP115	ltpFR	9	6	1	PAGE	1001	n/a	0	n/a	0	0	0	n/a	n/a	n/a	n/a	n/a
1583176	REC_WORD	wordpools/wasnorm_wordpool.txt	LTP115	ltpFR	9	6	1	FURNITURE	616	n/a	0	n/a	0	0	0	n/a	n/a	n/a	n/a	n/a
1584618	REC_WORD	wordpools/wasnorm_wordpool.txt	LTP115	ltpFR	9	6	1	PAINTER	1004	n/a	1	n/a	0	0	0	n/a	n/a	n/a	n/a	n/a
1642956	WORD	wordpools/wasnorm_wordpool.txt	LTP115	ltpFR	9	7	1	OCEAN	970	n/a	0	n/a	0	0	0	1	0.412841796875	0.57763671875	upper	../fonts/zerothre.ttf
1647097	WORD	wordpools/wasnorm_wordpool.txt	LTP115	ltpFR	9	7	1	FOOT	590	n/a	1	n/a	0	0	0	1	0.412841796875	0.57763671875	upper	../fonts/zerothre.ttf
1650987	WORD	wordpools/wasnorm_wordpool.txt	LTP115	ltpFR	9	7	1	SNEAKER	1334	n/a	0	n/a	0	0	0	1	0.412841796875	0.57763671875	upper	../fonts/zerothre.ttf
1654835	WORD	wordpools/wasnorm_wordpool.txt	LTP115	ltpFR	9	7	1	WATERFALL	1595	n/a	0	n/a	0	0	0	1	0.412841796875	0.57763671875	upper	../fonts/zerothre.ttf
1658868	WORD	wordpools/wasnorm_wordpool.txt	LTP115	ltpFR	9	7	1	SCALLOP	1242	n/a	0	n/a	0	0	0	1	0.412841796875	0.57763671875	upper	../fonts/zerothre.ttf
1662724	WORD	wordpools/wasnorm_wordpool.txt	LTP115	ltpFR	9	7	1	CHIP	303	n/a	0	n/a	0	0	0	1	0.412841796875	0.57763671875	upper	../fonts/zerothre.ttf
1666573	WORD	wordpools/wasnorm_wordpool.txt	LTP115	ltpFR	9	7	1	COMMUNITY	356	n/a	0	n/a	0	0	0	1	0.412841796875	0.57763671875	upper	../fonts/zerothre.ttf
1670555	WORD	wordpools/wasnorm_wordpool.txt	LTP115	ltpFR	9	7	1	GANGSTER	620	n/a	0	n/a	0	0	0	1	0.412841796875	0.57763671875	upper	../fonts/zerothre.ttf
1674762	WORD	wordpools/wasnorm_wordpool.txt	LTP115	ltpFR	9	7	1	ADOLESCENT	7	n/a	1	n/a	0	0	0	1	0.412841796875	0.57763671875	upper	../fonts/zerothre.ttf
1678685	WORD	wordpools/wasnorm_wordpool.txt	LTP115	ltpFR	9	7	1	WASHCLOTH	1591	n/a	0	n/a	0	0	0	1	0.412841796875	0.57763671875	upper	../fonts/zerothre.ttf
1682684	WORD	wordpools/wasnorm_wordpool.txt	LTP115	ltpFR	9	7	1	MONKEY	911	n/a	1	n/a	0	0	0	1	0.412841796875	0.57763671875	upper	../fonts/zerothre.ttf
1686583	WORD	wordpools/wasnorm_wordpool.txt	LTP115	ltpFR	9	7	1	FUNGUS	614	n/a	0	n/a	0	0	0	1	0.412841796875	0.57763671875	upper	../fonts/zerothre.ttf
1690465	WORD	wordpools/wasnorm_wordpool.txt	LTP115	ltpFR	9	7	1	ALMANAC	17	n/a	0	n/a	0	0	0	1	0.412841796875	0.57763671875	upper	../fonts/zerothre.ttf
1694580	WORD	wordpools/wasnorm_wordpool.txt	LTP115	ltpFR	9	7	1	CREEK	404	n/a	0	n/a	0	0	0	1	0.412841796875	0.57763671875	upper	../fonts/zerothre.ttf
1698495	WORD	wordpools/wasnorm_wordpool.txt	LTP115	ltpFR	9	7	1	BRANCH	168	n/a	0	n/a	0	0	0	1	0.412841796875	0.57763671875	upper	../fonts/zerothre.ttf
1702660	WORD	wordpools/wasnorm_wordpool.txt	LTP115	ltpFR	9	7	1	WRITER	1627	n/a	1	n/a	0	0	0	1	0.412841796875	0.57763671875	upper	../fonts/zerothre.ttf
1708550	REC_START	n/a	LTP115	ltpFR	9	7	n/a	n/a	n/a	n/a	n/a	n/a	0	0	0	n/a	n/a	n/a	n/a	n/a
1709223	REC_WORD	wordpools/wasnorm_wordpool.txt	LTP115	ltpFR	9	7	1	WRITER	1627	n/a	1	n/a	0	0	0	n/a	n/a	n/a	n/a	n/a
1710016	REC_WORD_VV	wordpools/wasnorm_wordpool.txt	LTP115	ltpFR	9	7	n/a	<>	-1	n/a	n/a	n/a	0	0	0	n/a	n/a	n/a	n/a	n/a
1710376	REC_WORD	wordpools/wasnorm_wordpool.txt	LTP115	ltpFR	9	7	1	WRITER	1627	n/a	1	n/a	0	0	0	n/a	n/a	n/a	n/a	n/a
1711064	REC_WORD	wordpools/wasnorm_wordpool.txt	LTP115	ltpFR	9	7	1	ALMANAC	17	n/a	0	n/a	0	0	0	n/a	n/a	n/a	n/a	n/a
1711837	REC_WORD	wordpools/wasnorm_wordpool.txt	LTP115	ltpFR	9	7	1	BRANCH	168	n/a	0	n/a	0	0	0	n/a	n/a	n/a	n/a	n/a
1712566	REC_WORD	wordpools/wasnorm_wordpool.txt	LTP115	ltpFR	9	7	1	CREEK	404	n/a	0	n/a	0	0	0	n/a	n/a	n/a	n/a	n/a
1715110	REC_WORD	wordpools/wasnorm_wordpool.txt	LTP115	ltpFR	9	7	1	OCEAN	970	n/a	0	n/a	0	0	0	n/a	n/a	n/a	n/a	n/a
1716592	REC_WORD	wordpools/wasnorm_wordpool.txt	LTP115	ltpFR	9	7	1	WATERFALL	1595	n/a	0	n/a	0	0	0	n/a	n/a	n/a	n/a	n/a
1717469	REC_WORD	wordpools/wasnorm_wordpool.txt	LTP115	ltpFR	9	7	1	FOOT	590	n/a	1	n/a	0	0	0	n/a	n/a	n/a	n/a	n/a
1718561	REC_WORD	wordpools/wasnorm_wordpool.txt	LTP115	ltpFR	9	7	1	SNEAKER	1334	n/a	0	n/a	0	0	0	n/a	n/a	n/a	n/a	n/a
1720413	REC_WORD	wordpools/wasnorm_wordpool.txt	LTP115	ltpFR	9	7	1	FUNGUS	614	n/a	0	n/a	0	0	0	n/a	n/a	n/a	n/a	n/a
1732750	REC_WORD	wordpools/wasnorm_wordpool.txt	LTP115	ltpFR	9	7	1	MONKEY	911	n/a	1	n/a	0	0	0	n/a	n/a	n/a	n/a	n/a
1746249	REC_WORD	wordpools/wasnorm_wordpool.txt	LTP115	ltpFR	9	7	1	WRITER	1627	n/a	1	n/a	0	0	0	n/a	n/a	n/a	n/a	n/a
1748015	REC_WORD	wordpools/wasnorm_wordpool.txt	LTP115	ltpFR	9	7	1	GANGSTER	620	n/a	0	n/a	0	0	0	n/a	n/a	n/a	n/a	n/a
1751602	REC_WORD	wordpools/wasnorm_wordpool.txt	LTP115	ltpFR	9	7	1	ADOLESCENT	7	n/a	1	n/a	0	0	0	n/a	n/a	n/a	n/a	n/a
1798210	WORD	wordpools/wasnorm_wordpool.txt	LTP115	ltpFR	9	8	0	STAKE	1368	n/a	0	n/a	0	0	0	0	0.5869140625	0.422607421875	lower	../fonts/amplitud.ttf
1802092	WORD	wordpools/wasnorm_wordpool.txt	LTP115	ltpFR	9	8	0	FRIAR	605	n/a	1	n/a	0	0	0	0	0.5869140625	0.422607421875	lower	../fonts/amplitud.ttf
1805908	WORD	wordpools/wasnorm_wordpool.txt	LTP115	ltpFR	9	8	0	RAG	1160	n/a	0	n/a	0	0	0	0	0.5869140625	0.422607421875	lower	../fonts/amplitud.ttf
1810072	WORD	wordpools/wasnorm_wordpool.txt	LTP115	ltpFR	9	8	0	TAVERN	1437	n/a	0	n/a	0	0	0	0	0.5869140625	0.422607421875	lower	../fonts/amplitud.ttf
1814062	WORD	wordpools/wasnorm_wordpool.txt	LTP115	ltpFR	9	8	0	SCOTCH	1251	n/a	0	n/a	0	0	0	0	0.5869140625	0.422607421875	lower	../fonts/amplitud.ttf
1818261	WORD	wordpools/wasnorm_wordpool.txt	LTP115	ltpFR	9	8	0	VEHICLE	1553	n/a	1	n/a	0	0	0	0	0.5869140625	0.422607421875	lower	../fonts/amplitud.ttf
1822468	WORD	wordpools/wasnorm_wordpool.txt	LTP115	ltpFR	9	8	0	PIER	1063	n/a	1	n/a	0	0	0	0	0.5869140625	0.422607421875	lower	../fonts/amplitud.ttf
1826658	WORD	wordpools/wasnorm_wordpool.txt	LTP115	ltpFR	9	8	0	PIRATE	1074	n/a	1	n/a	0	0	0	0	0.5869140625	0.422607421875	lower	../fonts/amplitud.ttf
1830848	WORD	wordpools/wasnorm_wordpool.txt	LTP115	ltpFR	9	8	0	BEER	114	n/a	0	n/a	0	0	0	0	0.5869140625	0.422607421875	lower	../fonts/amplitud.ttf
1834913	WORD	wordpools/wasnorm_wordpool.txt	LTP115	ltpFR	9	8	0	PIG	1064	n/a	1	n/a	0	0	0	0	0.5869140625	0.422607421875	lower	../fonts/amplitud.ttf
1838812	WORD	wordpools/wasnorm_wordpool.txt	LTP115	ltpFR	9	8	0	STEW	1380	n/a	1	n/a	0	0	0	0	0.5869140625	0.422607421875	lower	../fonts/amplitud.ttf
1842686	WORD	wordpools/wasnorm_wordpool.txt	LTP115	ltpFR	9	8	0	BRAIN	165	n/a	1	n/a	0	0	0	0	0.5869140625	0.422607421875	lower	../fonts/amplitud.ttf
1846859	WORD	wordpools/wasnorm_wordpool.txt	LTP115	ltpFR	9	8	0	BOTTLE	153	n/a	0	n/a	0	0	0	0	0.5869140625	0.422607421875	lower	../fonts/amplitud.ttf
1850892	WORD	wordpools/wasnorm_wordpool.txt	LTP115	ltpFR	9	8	0	HOUSE	725	n/a	1	n/a	0	0	0	0	0.5869140625	0.422607421875	lower	../fonts/amplitud.ttf
1854882	WORD	wordpools/wasnorm_wordpool.txt	LTP115	ltpFR	9	8	0	FUGITIVE	612	n/a	1	n/a	0	0	0	0	0.5869140625	0.422607421875	lower	../fonts/amplitud.ttf
1858971	WORD	wordpools/wasnorm_wordpool.txt	LTP115	ltpFR	9	8	0	CAPTIVE	240	n/a	1	n/a	0	0	0	0	0.5869140625	0.422607421875	lower	../fonts/amplitud.ttf
1861979	START	n/a	LTP115	ltpFR	9	n/a	n/a	n/a	n/a	n/a	n/a	n/a	n/a	n/a	n/a	n/a	n/a	n/a	n/a	n/a
1862820	PROB	n/a	LTP115	ltpFR	9	n/a	n/a	n/a	n/a	n/a	n/a	25	8	9	8	n/a	n/a	n/a	n/a	n/a
1865211	PROB	n/a	LTP115	ltpFR	9	n/a	n/a	n/a	n/a	n/a	n/a	17	7	8	2	n/a	n/a	n/a	n/a	n/a
1866835	PROB	n/a	LTP115	ltpFR	9	n/a	n/a	n/a	n/a	n/a	n/a	10	2	2	6	n/a	n/a	n/a	n/a	n/a
1869979	STOP	n/a	LTP115	ltpFR	9	n/a	n/a	n/a	n/a	n/a	n/a	n/a	n/a	n/a	n/a	n/a	n/a	n/a	n/a	n/a
1871842	REC_START	n/a	LTP115	ltpFR	9	8	n/a	n/a	n/a	n/a	n/a	n/a	0	0	0	n/a	n/a	n/a	n/a	n/a
1872385	REC_WORD	wordpools/wasnorm_wordpool.txt	LTP115	ltpFR	9	8	0	FUGITIVE	612	n/a	1	n/a	0	0	0	n/a	n/a	n/a	n/a	n/a
1873224	REC_WORD	wordpools/wasnorm_wordpool.txt	LTP115	ltpFR	9	8	0	CAPTIVE	240	n/a	1	n/a	0	0	0	n/a	n/a	n/a	n/a	n/a
1873842	REC_WORD	wordpools/wasnorm_wordpool.txt	LTP115	ltpFR	9	8	0	HOUSE	725	n/a	1	n/a	0	0	0	n/a	n/a	n/a	n/a	n/a
1874486	REC_WORD	wordpools/wasnorm_wordpool.txt	LTP115	ltpFR	9	8	0	PIRATE	1074	n/a	1	n/a	0	0	0	n/a	n/a	n/a	n/a	n/a
1875199	REC_WORD	wordpools/wasnorm_wordpool.txt	LTP115	ltpFR	9	8	0	BOTTLE	153	n/a	0	n/a	0	0	0	n/a	n/a	n/a	n/a	n/a
1875743	REC_WORD	wordpools/wasnorm_wordpool.txt	LTP115	ltpFR	9	8	0	TAVERN	1437	n/a	0	n/a	0	0	0	n/a	n/a	n/a	n/a	n/a
1876431	REC_WORD	wordpools/wasnorm_wordpool.txt	LTP115	ltpFR	9	8	0	BEER	114	n/a	0	n/a	0	0	0	n/a	n/a	n/a	n/a	n/a
1876895	REC_WORD	wordpools/wasnorm_wordpool.txt	LTP115	ltpFR	9	8	0	SCOTCH	1251	n/a	0	n/a	0	0	0	n/a	n/a	n/a	n/a	n/a
1879569	REC_WORD	wordpools/wasnorm_wordpool.txt	LTP115	ltpFR	9	8	0	FRIAR	605	n/a	1	n/a	0	0	0	n/a	n/a	n/a	n/a	n/a
1880742	REC_WORD	wordpools/wasnorm_wordpool.txt	LTP115	ltpFR	9	8	0	STAKE	1368	n/a	0	n/a	0	0	0	n/a	n/a	n/a	n/a	n/a
1887880	REC_WORD	wordpools/wasnorm_wordpool.txt	LTP115	ltpFR	9	8	0	PIER	1063	n/a	1	n/a	0	0	0	n/a	n/a	n/a	n/a	n/a
1962243	WORD	wordpools/wasnorm_wordpool.txt	LTP115	ltpFR	9	9	1	CORD	379	n/a	3	n/a	0	0	0	1	0.412841796875	0.57763671875	upper	../fonts/zerothre.ttf
1963168	KEY_MSG	n/a	LTP115	ltpFR	9	9	n/a	n/a	n/a	n/a	n/a	n/a	0	0	0	n/a	n/a	n/a	n/a	n/a
1966425	WORD	wordpools/wasnorm_wordpool.txt	LTP115	ltpFR	9	9	1	GRIZZLY	662	n/a	0	n/a	0	0	0	1	0.412841796875	0.57763671875	upper	../fonts/zerothre.ttf
1970374	WORD	wordpools/wasnorm_wordpool.txt	LTP115	ltpFR	9	9	1	SEAFOOD	1260	n/a	0	n/a	0	0	0	1	0.412841796875	0.57763671875	upper	../fonts/zerothre.ttf
1974556	WORD	wordpools/wasnorm_wordpool.txt	LTP115	ltpFR	9	9	1	FAMILY	550	n/a	1	n/a	0	0	0	1	0.412841796875	0.57763671875	upper	../fonts/zerothre.ttf
1978637	WORD	wordpools/wasnorm_wordpool.txt	LTP115	ltpFR	9	9	1	POSSUM	1112	n/a	1	n/a	0	0	0	1	0.412841796875	0.57763671875	upper	../fonts/zerothre.ttf
1982578	WORD	wordpools/wasnorm_wordpool.txt	LTP115	ltpFR	9	9	1	TWIG	1527	n/a	0	n/a	0	0	0	1	0.412841796875	0.57763671875	upper	../fonts/zerothre.ttf
1986535	WORD	wordpools/wasnorm_wordpool.txt	LTP115	ltpFR	9	9	0	WEED	1599	n/a	0	n/a	0	0	0	0	0.5869140625	0.422607421875	lower	../fonts/amplitud.ttf
1990600	WORD	wordpools/wasnorm_wordpool.txt	LTP115	ltpFR	9	9	0	HOE	711	n/a	0	n/a	0	0	0	0	0.5869140625	0.422607421875	lower	../fonts/amplitud.ttf
1994432	WORD	wordpools/wasnorm_wordpool.txt	LTP115	ltpFR	9	9	0	BEAVER	109	n/a	1	n/a	0	0	0	0	0.5869140625	0.422607421875	lower	../fonts/amplitud.ttf
1998580	WORD	wordpools/wasnorm_wordpool.txt	LTP115	ltpFR	9	9	0	COOK	372	n/a	1	n/a	0	0	0	0	0.5869140625	0.422607421875	lower	../fonts/amplitud.ttf
2002637	WORD	wordpools/wasnorm_wordpool.txt	LTP115	ltpFR	9	9	0	MICROWAVE	892	n/a	1	n/a	0	0	0	0	0.5869140625	0.422607421875	lower	../fonts/amplitud.ttf
2006719	WORD	wordpools/wasnorm_wordpool.txt	LTP115	ltpFR	9	9	1	PARENT	1013	n/a	1	n/a	0	0	0	1	0.412841796875	0.57763671875	upper	../fonts/zerothre.ttf
2010818	WORD	wordpools/wasnorm_wordpool.txt	LTP115	ltpFR	9	9	1	PEDAL	1037	n/a	0	n/a	0	0	0	1	0.412841796875	0.57763671875	upper	../fonts/zerothre.ttf
2014833	WORD	wordpools/wasnorm_wordpool.txt	LTP115	ltpFR	9	9	0	CONTRACTOR	369	n/a	1	n/a	0	0	0	0	0.5869140625	0.422607421875	lower	../fonts/amplitud.ttf
2018848	WORD	wordpools/wasnorm_wordpool.txt	LTP115	ltpFR	9	9	0	DYNAMITE	511	n/a	1	n/a	0	0	0	0	0.5869140625	0.422607421875	lower	../fonts/amplitud.ttf
2022822	WORD	wordpools/wasnorm_wordpool.txt	LTP115	ltpFR	9	9	0	HOOK	715	n/a	0	n/a	0	0	0	0	0.5869140625	0.422607421875	lower	../fonts/amplitud.ttf
2025829	START	n/a	LTP115	ltpFR	9	n/a	n/a	n/a	n/a	n/a	n/a	n/a	n/a	n/a	n/a	n/a	n/a	n/a	n/a	n/a
2026905	PROB	n/a	LTP115	ltpFR	9	n/a	n/a	n/a	n/a	n/a	n/a	9	4	4	1	n/a	n/a	n/a	n/a	n/a
2028845	PROB	n/a	LTP115	ltpFR	9	n/a	n/a	n/a	n/a	n/a	n/a	15	7	2	6	n/a	n/a	n/a	n/a	n/a
2030544	PROB	n/a	LTP115	ltpFR	9	n/a	n/a	n/a	n/a	n/a	n/a	11	2	6	3	n/a	n/a	n/a	n/a	n/a
2032493	PROB	n/a	LTP115	ltpFR	9	n/a	n/a	n/a	n/a	n/a	n/a	14	4	8	3	n/a	n/a	n/a	n/a	n/a
2034934	PROB	n/a	LTP115	ltpFR	9	n/a	n/a	n/a	n/a	n/a	n/a	11	4	5	2	n/a	n/a	n/a	n/a	n/a
2036833	PROB	n/a	LTP115	ltpFR	9	n/a	n/a	n/a	n/a	n/a	n/a	21	4	8	9	n/a	n/a	n/a	n/a	n/a
2038450	PROB	n/a	LTP115	ltpFR	9	n/a	n/a	n/a	n/a	n/a	n/a	11	7	1	2	n/a	n/a	n/a	n/a	n/a
2041829	STOP	n/a	LTP115	ltpFR	9	n/a	n/a	n/a	n/a	n/a	n/a	n/a	n/a	n/a	n/a	n/a	n/a	n/a	n/a	n/a
2043748	REC_START	n/a	LTP115	ltpFR	9	9	n/a	n/a	n/a	n/a	n/a	n/a	0	0	0	n/a	n/a	n/a	n/a	n/a
2044945	REC_WORD	wordpools/wasnorm_wordpool.txt	LTP115	ltpFR	9	9	0	DYNAMITE	511	n/a	1	n/a	0	0	0	n/a	n/a	n/a	n/a	n/a
2045945	REC_WORD_VV	wordpools/wasnorm_wordpool.txt	LTP115	ltpFR	9	9	n/a	<>	-1	n/a	n/a	n/a	0	0	0	n/a	n/a	n/a	n/a	n/a
2048233	REC_WORD	wordpools/wasnorm_wordpool.txt	LTP115	ltpFR	9	9	0	COOK	372	n/a	1	n/a	0	0	0	n/a	n/a	n/a	n/a	n/a
2049270	REC_WORD	wordpools/wasnorm_wordpool.txt	LTP115	ltpFR	9	9	1	FAMILY	550	n/a	1	n/a	0	0	0	n/a	n/a	n/a	n/a	n/a
2051740	REC_WORD	wordpools/wasnorm_wordpool.txt	LTP115	ltpFR	9	9	0	MICROWAVE	892	n/a	1	n/a	0	0	0	n/a	n/a	n/a	n/a	n/a
2054737	REC_WORD	wordpools/wasnorm_wordpool.txt	LTP115	ltpFR	9	9	1	SEAFOOD	1260	n/a	0	n/a	0	0	0	n/a	n/a	n/a	n/a	n/a
2068856	REC_WORD	wordpools/wasnorm_wordpool.txt	LTP115	ltpFR	9	9	0	BEAVER	109	n/a	1	n/a	0	0	0	n/a	n/a	n/a	n/a	n/a
2075630	REC_WORD	wordpools/wasnorm_wordpool.txt	LTP115	ltpFR	9	9	0	HOE	711	n/a	0	n/a	0	0	0	n/a	n/a	n/a	n/a	n/a
2076453	REC_WORD	wordpools/wasnorm_wordpool.txt	LTP115	ltpFR	9	9	0	WEED	1599	n/a	0	n/a	0	0	0	n/a	n/a	n/a	n/a	n/a
2116517	REC_WORD	wordpools/wasnorm_wordpool.txt	LTP115	ltpFR	9	9	1	CORD	379	n/a	3	n/a	0	0	0	n/a	n/a	n/a	n/a	n/a
2122662	START	n/a	LTP115	ltpFR	9	n/a	n/a	n/a	n/a	n/a	n/a	n/a	n/a	n/a	n/a	n/a	n/a	n/a	n/a	n/a
2124169	PROB	n/a	LTP115	ltpFR	9	n/a	n/a	n/a	n/a	n/a	n/a	17	5	7	5	n/a	n/a	n/a	n/a	n/a
2126335	PROB	n/a	LTP115	ltpFR	9	n/a	n/a	n/a	n/a	n/a	n/a	18	5	9	4	n/a	n/a	n/a	n/a	n/a
2128359	PROB	n/a	LTP115	ltpFR	9	n/a	n/a	n/a	n/a	n/a	n/a	23	9	9	5	n/a	n/a	n/a	n/a	n/a
2130292	PROB	n/a	LTP115	ltpFR	9	n/a	n/a	n/a	n/a	n/a	n/a	12	7	4	1	n/a	n/a	n/a	n/a	n/a
2131475	PROB	n/a	LTP115	ltpFR	9	n/a	n/a	n/a	n/a	n/a	n/a	19	6	4	9	n/a	n/a	n/a	n/a	n/a
2133016	PROB	n/a	LTP115	ltpFR	9	n/a	n/a	n/a	n/a	n/a	n/a	17	3	8	6	n/a	n/a	n/a	n/a	n/a
2138662	STOP	n/a	LTP115	ltpFR	9	n/a	n/a	n/a	n/a	n/a	n/a	n/a	n/a	n/a	n/a	n/a	n/a	n/a	n/a	n/a
2139639	WORD	wordpools/wasnorm_wordpool.txt	LTP115	ltpFR	9	10	0	WOLF	1619	n/a	1	n/a	0	0	0	0	0.5869140625	0.422607421875	lower	../fonts/amplitud.ttf
2142646	START	n/a	LTP115	ltpFR	9	n/a	n/a	n/a	n/a	n/a	n/a	n/a	n/a	n/a	n/a	n/a	n/a	n/a	n/a	n/a
2143762	PROB	n/a	LTP115	ltpFR	9	n/a	n/a	n/a	n/a	n/a	n/a	25	9	7	9	n/a	n/a	n/a	n/a	n/a
2147186	PROB	n/a	LTP115	ltpFR	9	n/a	n/a	n/a	n/a	n/a	n/a	14	9	3	2	n/a	n/a	n/a	n/a	n/a
2148685	PROB	n/a	LTP115	ltpFR	9	n/a	n/a	n/a	n/a	n/a	n/a	17	1	9	7	n/a	n/a	n/a	n/a	n/a
2150102	PROB	n/a	LTP115	ltpFR	9	n/a	n/a	n/a	n/a	n/a	n/a	10	1	3	6	n/a	n/a	n/a	n/a	n/a
2151326	PROB	n/a	LTP115	ltpFR	9	n/a	n/a	n/a	n/a	n/a	n/a	18	5	9	4	n/a	n/a	n/a	n/a	n/a
2154109	PROB	n/a	LTP115	ltpFR	9	n/a	n/a	n/a	n/a	n/a	n/a	21	9	5	7	n/a	n/a	n/a	n/a	n/a
2156433	PROB	n/a	LTP115	ltpFR	9	n/a	n/a	n/a	n/a	n/a	n/a	15	9	1	5	n/a	n/a	n/a	n/a	n/a
2157780	STOP	n/a	LTP115	ltpFR	9	n/a	n/a	n/a	n/a	n/a	n/a	n/a	n/a	n/a	n/a	n/a	n/a	n/a	n/a	n/a
2159840	WORD	wordpools/wasnorm_wordpool.txt	LTP115	ltpFR	9	10	0	BUCKET	184	n/a	0	n/a	0	0	0	0	0.5869140625	0.422607421875	lower	../fonts/amplitud.ttf
2162848	START	n/a	LTP115	ltpFR	9	n/a	n/a	n/a	n/a	n/a	n/a	n/a	n/a	n/a	n/a	n/a	n/a	n/a	n/a	n/a
2163889	PROB	n/a	LTP115	ltpFR	9	n/a	n/a	n/a	n/a	n/a	n/a	17	6	8	3	n/a	n/a	n/a	n/a	n/a
2165897	PROB	n/a	LTP115	ltpFR	9	n/a	n/a	n/a	n/a	n/a	n/a	18	6	5	7	n/a	n/a	n/a	n/a	n/a
2167662	PROB	n/a	LTP115	ltpFR	9	n/a	n/a	n/a	n/a	n/a	n/a	19	7	6	6	n/a	n/a	n/a	n/a	n/a
2169953	PROB	n/a	LTP115	ltpFR	9	n/a	n/a	n/a	n/a	n/a	n/a	13	3	9	1	n/a	n/a	n/a	n/a	n/a
2171636	PROB	n/a	LTP115	ltpFR	9	n/a	n/a	n/a	n/a	n/a	n/a	27	9	9	9	n/a	n/a	n/a	n/a	n/a
2174934	PROB	n/a	LTP115	ltpFR	9	n/a	n/a	n/a	n/a	n/a	n/a	12	7	3	2	n/a	n/a	n/a	n/a	n/a
2178848	STOP	n/a	LTP115	ltpFR	9	n/a	n/a	n/a	n/a	n/a	n/a	n/a	n/a	n/a	n/a	n/a	n/a	n/a	n/a	n/a
2179833	WORD	wordpools/wasnorm_wordpool.txt	LTP115	ltpFR	9	10	0	CUE	422	n/a	1	n/a	0	0	0	0	0.5869140625	0.422607421875	lower	../fonts/amplitud.ttf
2182841	START	n/a	LTP115	ltpFR	9	n/a	n/a	n/a	n/a	n/a	n/a	n/a	n/a	n/a	n/a	n/a	n/a	n/a	n/a	n/a
2183748	PROB	n/a	LTP115	ltpFR	9	n/a	n/a	n/a	n/a	n/a	n/a	18	5	9	4	n/a	n/a	n/a	n/a	n/a
2185581	PROB	n/a	LTP115	ltpFR	9	n/a	n/a	n/a	n/a	n/a	n/a	14	1	8	5	n/a	n/a	n/a	n/a	n/a
2187722	PROB	n/a	LTP115	ltpFR	9	n/a	n/a	n/a	n/a	n/a	n/a	5	2	1	2	n/a	n/a	n/a	n/a	n/a
2188771	PROB	n/a	LTP115	ltpFR	9	n/a	n/a	n/a	n/a	n/a	n/a	12	2	4	6	n/a	n/a	n/a	n/a	n/a
2190421	PROB	n/a	LTP115	ltpFR	9	n/a	n/a	n/a	n/a	n/a	n/a	13	7	2	4	n/a	n/a	n/a	n/a	n/a
2192478	PROB	n/a	LTP115	ltpFR	9	n/a	n/a	n/a	n/a	n/a	n/a	17	7	1	9	n/a	n/a	n/a	n/a	n/a
2193879	PROB	n/a	LTP115	ltpFR	9	n/a	n/a	n/a	n/a	n/a	n/a	12	8	1	3	n/a	n/a	n/a	n/a	n/a
2195878	PROB	n/a	LTP115	ltpFR	9	n/a	n/a	n/a	n/a	n/a	n/a	21	7	7	7	n/a	n/a	n/a	n/a	n/a
2198840	STOP	n/a	LTP115	ltpFR	9	n/a	n/a	n/a	n/a	n/a	n/a	n/a	n/a	n/a	n/a	n/a	n/a	n/a	n/a	n/a
2199842	WORD	wordpools/wasnorm_wordpool.txt	LTP115	ltpFR	9	10	0	NECK	939	n/a	0	n/a	0	0	0	0	0.5869140625	0.422607421875	lower	../fonts/amplitud.ttf
2202850	START	n/a	LTP115	ltpFR	9	n/a	n/a	n/a	n/a	n/a	n/a	n/a	n/a	n/a	n/a	n/a	n/a	n/a	n/a	n/a
2204049	PROB	n/a	LTP115	ltpFR	9	n/a	n/a	n/a	n/a	n/a	n/a	21	6	6	9	n/a	n/a	n/a	n/a	n/a
2206098	PROB	n/a	LTP115	ltpFR	9	n/a	n/a	n/a	n/a	n/a	n/a	24	7	9	8	n/a	n/a	n/a	n/a	n/a
2210355	PROB	n/a	LTP115	ltpFR	9	n/a	n/a	n/a	n/a	n/a	n/a	16	4	6	6	n/a	n/a	n/a	n/a	n/a
2212113	PROB	n/a	LTP115	ltpFR	9	n/a	n/a	n/a	n/a	n/a	n/a	12	3	8	1	n/a	n/a	n/a	n/a	n/a
2213429	PROB	n/a	LTP115	ltpFR	9	n/a	n/a	n/a	n/a	n/a	n/a	21	5	7	9	n/a	n/a	n/a	n/a	n/a
2215953	PROB	n/a	LTP115	ltpFR	9	n/a	n/a	n/a	n/a	n/a	n/a	13	3	6	4	n/a	n/a	n/a	n/a	n/a
2217524	STOP	n/a	LTP115	ltpFR	9	n/a	n/a	n/a	n/a	n/a	n/a	n/a	n/a	n/a	n/a	n/a	n/a	n/a	n/a	n/a
2219878	WORD	wordpools/wasnorm_wordpool.txt	LTP115	ltpFR	9	10	1	MAMMAL	861	n/a	1	n/a	0	0	0	1	0.412841796875	0.57763671875	upper	../fonts/zerothre.ttf
2222886	START	n/a	LTP115	ltpFR	9	n/a	n/a	n/a	n/a	n/a	n/a	n/a	n/a	n/a	n/a	n/a	n/a	n/a	n/a	n/a
2223734	PROB	n/a	LTP115	ltpFR	9	n/a	n/a	n/a	n/a	n/a	n/a	21	7	6	8	n/a	n/a	n/a	n/a	n/a
2227316	PROB	n/a	LTP115	ltpFR	9	n/a	n/a	n/a	n/a	n/a	n/a	12	3	7	2	n/a	n/a	n/a	n/a	n/a
2228574	PROB	n/a	LTP115	ltpFR	9	n/a	n/a	n/a	n/a	n/a	n/a	12	2	3	7	n/a	n/a	n/a	n/a	n/a
2231856	PROB	n/a	LTP115	ltpFR	9	n/a	n/a	n/a	n/a	n/a	n/a	20	3	9	8	n/a	n/a	n/a	n/a	n/a
2234930	PROB	n/a	LTP115	ltpFR	9	n/a	n/a	n/a	n/a	n/a	n/a	17	2	8	7	n/a	n/a	n/a	n/a	n/a
2236338	PROB	n/a	LTP115	ltpFR	9	n/a	n/a	n/a	n/a	n/a	n/a	10	2	2	6	n/a	n/a	n/a	n/a	n/a
2237844	STOP	n/a	LTP115	ltpFR	9	n/a	n/a	n/a	n/a	n/a	n/a	n/a	n/a	n/a	n/a	n/a	n/a	n/a	n/a	n/a
2239853	WORD	wordpools/wasnorm_wordpool.txt	LTP115	ltpFR	9	10	1	PREACHER	1119	n/a	1	n/a	0	0	0	1	0.412841796875	0.57763671875	upper	../fonts/zerothre.ttf
2242861	START	n/a	LTP115	ltpFR	9	n/a	n/a	n/a	n/a	n/a	n/a	n/a	n/a	n/a	n/a	n/a	n/a	n/a	n/a	n/a
2243735	PROB	n/a	LTP115	ltpFR	9	n/a	n/a	n/a	n/a	n/a	n/a	21	8	8	5	n/a	n/a	n/a	n/a	n/a
2246351	PROB	n/a	LTP115	ltpFR	9	n/a	n/a	n/a	n/a	n/a	n/a	22	7	7	8	n/a	n/a	n/a	n/a	n/a
2249033	PROB	n/a	LTP115	ltpFR	9	n/a	n/a	n/a	n/a	n/a	n/a	18	8	6	4	n/a	n/a	n/a	n/a	n/a
2250966	PROB	n/a	LTP115	ltpFR	9	n/a	n/a	n/a	n/a	n/a	n/a	15	9	2	4	n/a	n/a	n/a	n/a	n/a
2252515	PROB	n/a	LTP115	ltpFR	9	n/a	n/a	n/a	n/a	n/a	n/a	11	2	4	5	n/a	n/a	n/a	n/a	n/a
2254281	PROB	n/a	LTP115	ltpFR	9	n/a	n/a	n/a	n/a	n/a	n/a	13	2	7	4	n/a	n/a	n/a	n/a	n/a
2256264	PROB	n/a	LTP115	ltpFR	9	n/a	n/a	n/a	n/a	n/a	n/a	21	9	9	3	n/a	n/a	n/a	n/a	n/a
2258036	STOP	n/a	LTP115	ltpFR	9	n/a	n/a	n/a	n/a	n/a	n/a	n/a	n/a	n/a	n/a	n/a	n/a	n/a	n/a	n/a
2259897	WORD	wordpools/wasnorm_wordpool.txt	LTP115	ltpFR	9	10	0	PIGEON	1065	n/a	0	n/a	0	0	0	0	0.5869140625	0.422607421875	lower	../fonts/amplitud.ttf
2262905	START	n/a	LTP115	ltpFR	9	n/a	n/a	n/a	n/a	n/a	n/a	n/a	n/a	n/a	n/a	n/a	n/a	n/a	n/a	n/a
2263904	PROB	n/a	LTP115	ltpFR	9	n/a	n/a	n/a	n/a	n/a	n/a	24	7	8	9	n/a	n/a	n/a	n/a	n/a
2265903	PROB	n/a	LTP115	ltpFR	9	n/a	n/a	n/a	n/a	n/a	n/a	13	5	3	5	n/a	n/a	n/a	n/a	n/a
2267210	PROB	n/a	LTP115	ltpFR	9	n/a	n/a	n/a	n/a	n/a	n/a	16	7	2	7	n/a	n/a	n/a	n/a	n/a
2269118	PROB	n/a	LTP115	ltpFR	9	n/a	n/a	n/a	n/a	n/a	n/a	15	2	9	4	n/a	n/a	n/a	n/a	n/a
2270842	PROB	n/a	LTP115	ltpFR	9	n/a	n/a	n/a	n/a	n/a	n/a	12	1	4	7	n/a	n/a	n/a	n/a	n/a
2273216	PROB	n/a	LTP115	ltpFR	9	n/a	n/a	n/a	n/a	n/a	n/a	16	7	7	2	n/a	n/a	n/a	n/a	n/a
2275665	PROB	n/a	LTP115	ltpFR	9	n/a	n/a	n/a	n/a	n/a	n/a	12	1	4	7	n/a	n/a	n/a	n/a	n/a
2277756	STOP	n/a	LTP115	ltpFR	9	n/a	n/a	n/a	n/a	n/a	n/a	n/a	n/a	n/a	n/a	n/a	n/a	n/a	n/a	n/a
2280031	WORD	wordpools/wasnorm_wordpool.txt	LTP115	ltpFR	9	10	0	AUNT	60	n/a	1	n/a	0	0	0	0	0.5869140625	0.422607421875	lower	../fonts/amplitud.ttf
2283038	START	n/a	LTP115	ltpFR	9	n/a	n/a	n/a	n/a	n/a	n/a	n/a	n/a	n/a	n/a	n/a	n/a	n/a	n/a	n/a
2283921	PROB	n/a	LTP115	ltpFR	9	n/a	n/a	n/a	n/a	n/a	n/a	15	5	8	2	n/a	n/a	n/a	n/a	n/a
2285520	PROB	n/a	LTP115	ltpFR	9	n/a	n/a	n/a	n/a	n/a	n/a	18	4	6	8	n/a	n/a	n/a	n/a	n/a
2287303	PROB	n/a	LTP115	ltpFR	9	n/a	n/a	n/a	n/a	n/a	n/a	19	7	4	8	n/a	n/a	n/a	n/a	n/a
2288912	PROB	n/a	LTP115	ltpFR	9	n/a	n/a	n/a	n/a	n/a	n/a	15	8	1	6	n/a	n/a	n/a	n/a	n/a
2290727	PROB	n/a	LTP115	ltpFR	9	n/a	n/a	n/a	n/a	n/a	n/a	15	3	7	5	n/a	n/a	n/a	n/a	n/a
2291793	PROB	n/a	LTP115	ltpFR	9	n/a	n/a	n/a	n/a	n/a	n/a	17	8	6	3	n/a	n/a	n/a	n/a	n/a
2295442	PROB	n/a	LTP115	ltpFR	9	n/a	n/a	n/a	n/a	n/a	n/a	19	3	9	7	n/a	n/a	n/a	n/a	n/a
2297516	STOP	n/a	LTP115	ltpFR	9	n/a	n/a	n/a	n/a	n/a	n/a	n/a	n/a	n/a	n/a	n/a	n/a	n/a	n/a	n/a
2300098	WORD	wordpools/wasnorm_wordpool.txt	LTP115	ltpFR	9	10	0	GOOSE	649	n/a	0	n/a	0	0	0	0	0.5869140625	0.422607421875	lower	../fonts/amplitud.ttf
2303106	START	n/a	LTP115	ltpFR	9	n/a	n/a	n/a	n/a	n/a	n/a	n/a	n/a	n/a	n/a	n/a	n/a	n/a	n/a	n/a
2303914	PROB	n/a	LTP115	ltpFR	9	n/a	n/a	n/a	n/a	n/a	n/a	8	4	2	4	n/a	n/a	n/a	n/a	n/a
2305297	PROB	n/a	LTP115	ltpFR	9	n/a	n/a	n/a	n/a	n/a	n/a	12	3	8	1	n/a	n/a	n/a	n/a	n/a
2308029	PROB	n/a	LTP115	ltpFR	9	n/a	n/a	n/a	n/a	n/a	n/a	14	3	2	9	n/a	n/a	n/a	n/a	n/a
2310170	PROB	n/a	LTP115	ltpFR	9	n/a	n/a	n/a	n/a	n/a	n/a	23	5	9	9	n/a	n/a	n/a	n/a	n/a
2312136	PROB	n/a	LTP115	ltpFR	9	n/a	n/a	n/a	n/a	n/a	n/a	4	1	1	2	n/a	n/a	n/a	n/a	n/a
2313385	PROB	n/a	LTP115	ltpFR	9	n/a	n/a	n/a	n/a	n/a	n/a	13	2	3	8	n/a	n/a	n/a	n/a	n/a
2315060	PROB	n/a	LTP115	ltpFR	9	n/a	n/a	n/a	n/a	n/a	n/a	15	8	4	3	n/a	n/a	n/a	n/a	n/a
2316951	PROB	n/a	LTP115	ltpFR	9	n/a	n/a	n/a	n/a	n/a	n/a	17	8	8	1	n/a	n/a	n/a	n/a	n/a
2318572	STOP	n/a	LTP115	ltpFR	9	n/a	n/a	n/a	n/a	n/a	n/a	n/a	n/a	n/a	n/a	n/a	n/a	n/a	n/a	n/a
2320300	WORD	wordpools/wasnorm_wordpool.txt	LTP115	ltpFR	9	10	0	DUCK	504	n/a	0	n/a	0	0	0	0	0.5869140625	0.422607421875	lower	../fonts/amplitud.ttf
2323307	START	n/a	LTP115	ltpFR	9	n/a	n/a	n/a	n/a	n/a	n/a	n/a	n/a	n/a	n/a	n/a	n/a	n/a	n/a	n/a
2324348	PROB	n/a	LTP115	ltpFR	9	n/a	n/a	n/a	n/a	n/a	n/a	17	1	7	9	n/a	n/a	n/a	n/a	n/a
2326173	PROB	n/a	LTP115	ltpFR	9	n/a	n/a	n/a	n/a	n/a	n/a	12	3	3	6	n/a	n/a	n/a	n/a	n/a
2327855	PROB	n/a	LTP115	ltpFR	9	n/a	n/a	n/a	n/a	n/a	n/a	17	8	4	5	n/a	n/a	n/a	n/a	n/a
2330479	PROB	n/a	LTP115	ltpFR	9	n/a	n/a	n/a	n/a	n/a	n/a	17	8	6	3	n/a	n/a	n/a	n/a	n/a
2332762	PROB	n/a	LTP115	ltpFR	9	n/a	n/a	n/a	n/a	n/a	n/a	26	9	9	8	n/a	n/a	n/a	n/a	n/a
2335103	PROB	n/a	LTP115	ltpFR	9	n/a	n/a	n/a	n/a	n/a	n/a	8	1	2	5	n/a	n/a	n/a	n/a	n/a
2337227	PROB	n/a	LTP115	ltpFR	9	n/a	n/a	n/a	n/a	n/a	n/a	14	5	7	2	n/a	n/a	n/a	n/a	n/a
2338692	STOP	n/a	LTP115	ltpFR	9	n/a	n/a	n/a	n/a	n/a	n/a	n/a	n/a	n/a	n/a	n/a	n/a	n/a	n/a	n/a
2340151	WORD	wordpools/wasnorm_wordpool.txt	LTP115	ltpFR	9	10	1	COBBLER	335	n/a	0	n/a	0	0	0	1	0.412841796875	0.57763671875	upper	../fonts/zerothre.ttf
2343159	START	n/a	LTP115	ltpFR	9	n/a	n/a	n/a	n/a	n/a	n/a	n/a	n/a	n/a	n/a	n/a	n/a	n/a	n/a	n/a
2344033	PROB	n/a	LTP115	ltpFR	9	n/a	n/a	n/a	n/a	n/a	n/a	14	4	9	1	n/a	n/a	n/a	n/a	n/a
2346074	PROB	n/a	LTP115	ltpFR	9	n/a	n/a	n/a	n/a	n/a	n/a	11	3	3	5	n/a	n/a	n/a	n/a	n/a
2347365	PROB	n/a	LTP115	ltpFR	9	n/a	n/a	n/a	n/a	n/a	n/a	12	2	6	4	n/a	n/a	n/a	n/a	n/a
2349873	PROB	n/a	LTP115	ltpFR	9	n/a	n/a	n/a	n/a	n/a	n/a	17	4	8	5	n/a	n/a	n/a	n/a	n/a
2352047	PROB	n/a	LTP115	ltpFR	9	n/a	n/a	n/a	n/a	n/a	n/a	13	6	3	4	n/a	n/a	n/a	n/a	n/a
2354363	PROB	n/a	LTP115	ltpFR	9	n/a	n/a	n/a	n/a	n/a	n/a	9	3	4	2	n/a	n/a	n/a	n/a	n/a
2356528	PROB	n/a	LTP115	ltpFR	9	n/a	n/a	n/a	n/a	n/a	n/a	11	1	8	2	n/a	n/a	n/a	n/a	n/a
2358268	STOP	n/a	LTP115	ltpFR	9	n/a	n/a	n/a	n/a	n/a	n/a	n/a	n/a	n/a	n/a	n/a	n/a	n/a	n/a	n/a
2360211	WORD	wordpools/wasnorm_wordpool.txt	LTP115	ltpFR	9	10	1	SHORTCAKE	1292	n/a	0	n/a	0	0	0	1	0.412841796875	0.57763671875	upper	../fonts/zerothre.ttf
2363218	START	n/a	LTP115	ltpFR	9	n/a	n/a	n/a	n/a	n/a	n/a	n/a	n/a	n/a	n/a	n/a	n/a	n/a	n/a	n/a
2364176	PROB	n/a	LTP115	ltpFR	9	n/a	n/a	n/a	n/a	n/a	n/a	22	5	9	8	n/a	n/a	n/a	n/a	n/a
2367650	PROB	n/a	LTP115	ltpFR	9	n/a	n/a	n/a	n/a	n/a	n/a	19	8	3	8	n/a	n/a	n/a	n/a	n/a
2370082	PROB	n/a	LTP115	ltpFR	9	n/a	n/a	n/a	n/a	n/a	n/a	12	2	5	5	n/a	n/a	n/a	n/a	n/a
2371640	PROB	n/a	LTP115	ltpFR	9	n/a	n/a	n/a	n/a	n/a	n/a	11	3	1	7	n/a	n/a	n/a	n/a	n/a
2373189	PROB	n/a	LTP115	ltpFR	9	n/a	n/a	n/a	n/a	n/a	n/a	4	1	1	2	n/a	n/a	n/a	n/a	n/a
2374405	PROB	n/a	LTP115	ltpFR	9	n/a	n/a	n/a	n/a	n/a	n/a	16	7	5	4	n/a	n/a	n/a	n/a	n/a
2375913	PROB	n/a	LTP115	ltpFR	9	n/a	n/a	n/a	n/a	n/a	n/a	13	3	6	4	n/a	n/a	n/a	n/a	n/a
2377371	PROB	n/a	LTP115	ltpFR	9	n/a	n/a	n/a	n/a	n/a	n/a	18	8	4	6	n/a	n/a	n/a	n/a	n/a
2379148	STOP	n/a	LTP115	ltpFR	9	n/a	n/a	n/a	n/a	n/a	n/a	n/a	n/a	n/a	n/a	n/a	n/a	n/a	n/a	n/a
2380403	WORD	wordpools/wasnorm_wordpool.txt	LTP115	ltpFR	9	10	1	MAGAZINE	853	n/a	0	n/a	0	0	0	1	0.412841796875	0.57763671875	upper	../fonts/zerothre.ttf
2383411	START	n/a	LTP115	ltpFR	9	n/a	n/a	n/a	n/a	n/a	n/a	n/a	n/a	n/a	n/a	n/a	n/a	n/a	n/a	n/a
2384594	PROB	n/a	LTP115	ltpFR	9	n/a	n/a	n/a	n/a	n/a	n/a	17	6	6	5	n/a	n/a	n/a	n/a	n/a
2388259	PROB	n/a	LTP115	ltpFR	9	n/a	n/a	n/a	n/a	n/a	n/a	13	2	4	7	n/a	n/a	n/a	n/a	n/a
2389975	PROB	n/a	LTP115	ltpFR	9	n/a	n/a	n/a	n/a	n/a	n/a	9	1	5	3	n/a	n/a	n/a	n/a	n/a
2391683	PROB	n/a	LTP115	ltpFR	9	n/a	n/a	n/a	n/a	n/a	n/a	15	7	5	3	n/a	n/a	n/a	n/a	n/a
2393182	PROB	n/a	LTP115	ltpFR	9	n/a	n/a	n/a	n/a	n/a	n/a	13	4	6	3	n/a	n/a	n/a	n/a	n/a
2394540	PROB	n/a	LTP115	ltpFR	9	n/a	n/a	n/a	n/a	n/a	n/a	11	9	1	1	n/a	n/a	n/a	n/a	n/a
2395665	PROB	n/a	LTP115	ltpFR	9	n/a	n/a	n/a	n/a	n/a	n/a	12	2	6	4	n/a	n/a	n/a	n/a	n/a
2399411	STOP	n/a	LTP115	ltpFR	9	n/a	n/a	n/a	n/a	n/a	n/a	n/a	n/a	n/a	n/a	n/a	n/a	n/a	n/a	n/a
2400396	WORD	wordpools/wasnorm_wordpool.txt	LTP115	ltpFR	9	10	1	FLIPPER	580	n/a	0	n/a	0	0	0	1	0.412841796875	0.57763671875	upper	../fonts/zerothre.ttf
2403404	START	n/a	LTP115	ltpFR	9	n/a	n/a	n/a	n/a	n/a	n/a	n/a	n/a	n/a	n/a	n/a	n/a	n/a	n/a	n/a
2404320	PROB	n/a	LTP115	ltpFR	9	n/a	n/a	n/a	n/a	n/a	n/a	5	1	3	1	n/a	n/a	n/a	n/a	n/a
2405619	PROB	n/a	LTP115	ltpFR	9	n/a	n/a	n/a	n/a	n/a	n/a	21	8	9	4	n/a	n/a	n/a	n/a	n/a
2407319	PROB	n/a	LTP115	ltpFR	9	n/a	n/a	n/a	n/a	n/a	n/a	10	7	1	2	n/a	n/a	n/a	n/a	n/a
2408743	PROB	n/a	LTP115	ltpFR	9	n/a	n/a	n/a	n/a	n/a	n/a	15	1	9	5	n/a	n/a	n/a	n/a	n/a
2410076	PROB	n/a	LTP115	ltpFR	9	n/a	n/a	n/a	n/a	n/a	n/a	20	5	7	8	n/a	n/a	n/a	n/a	n/a
2411692	PROB	n/a	LTP115	ltpFR	9	n/a	n/a	n/a	n/a	n/a	n/a	14	8	4	2	n/a	n/a	n/a	n/a	n/a
2413833	PROB	n/a	LTP115	ltpFR	9	n/a	n/a	n/a	n/a	n/a	n/a	18	6	4	8	n/a	n/a	n/a	n/a	n/a
2415691	PROB	n/a	LTP115	ltpFR	9	n/a	n/a	n/a	n/a	n/a	n/a	17	6	7	4	n/a	n/a	n/a	n/a	n/a
2417282	PROB	n/a	LTP115	ltpFR	9	n/a	n/a	n/a	n/a	n/a	n/a	7	2	2	3	n/a	n/a	n/a	n/a	n/a
2419220	STOP	n/a	LTP115	ltpFR	9	n/a	n/a	n/a	n/a	n/a	n/a	n/a	n/a	n/a	n/a	n/a	n/a	n/a	n/a	n/a
2420547	WORD	wordpools/wasnorm_wordpool.txt	LTP115	ltpFR	9	10	1	NOOSE	956	n/a	0	n/a	0	0	0	1	0.412841796875	0.57763671875	upper	../fonts/zerothre.ttf
2423555	START	n/a	LTP115	ltpFR	9	n/a	n/a	n/a	n/a	n/a	n/a	n/a	n/a	n/a	n/a	n/a	n/a	n/a	n/a	n/a
2424621	PROB	n/a	LTP115	ltpFR	9	n/a	n/a	n/a	n/a	n/a	n/a	15	3	3	9	n/a	n/a	n/a	n/a	n/a
2426270	PROB	n/a	LTP115	ltpFR	9	n/a	n/a	n/a	n/a	n/a	n/a	12	3	6	3	n/a	n/a	n/a	n/a	n/a
2428786	PROB	n/a	LTP115	ltpFR	9	n/a	n/a	n/a	n/a	n/a	n/a	11	3	5	3	n/a	n/a	n/a	n/a	n/a
2430727	PROB	n/a	LTP115	ltpFR	9	n/a	n/a	n/a	n/a	n/a	n/a	9	2	6	1	n/a	n/a	n/a	n/a	n/a
2433618	PROB	n/a	LTP115	ltpFR	9	n/a	n/a	n/a	n/a	n/a	n/a	17	3	5	9	n/a	n/a	n/a	n/a	n/a
2435251	PROB	n/a	LTP115	ltpFR	9	n/a	n/a	n/a	n/a	n/a	n/a	11	4	3	6	n/a	n/a	n/a	n/a	n/a
2437200	PROB	n/a	LTP115	ltpFR	9	n/a	n/a	n/a	n/a	n/a	n/a	16	1	6	9	n/a	n/a	n/a	n/a	n/a
2439340	STOP	n/a	LTP115	ltpFR	9	n/a	n/a	n/a	n/a	n/a	n/a	n/a	n/a	n/a	n/a	n/a	n/a	n/a	n/a	n/a
2440474	WORD	wordpools/wasnorm_wordpool.txt	LTP115	ltpFR	9	10	1	SHEET	1279	n/a	0	n/a	0	0	0	1	0.412841796875	0.57763671875	upper	../fonts/zerothre.ttf
2443481	START	n/a	LTP115	ltpFR	9	n/a	n/a	n/a	n/a	n/a	n/a	n/a	n/a	n/a	n/a	n/a	n/a	n/a	n/a	n/a
2444364	PROB	n/a	LTP115	ltpFR	9	n/a	n/a	n/a	n/a	n/a	n/a	12	3	4	5	n/a	n/a	n/a	n/a	n/a
2446422	PROB	n/a	LTP115	ltpFR	9	n/a	n/a	n/a	n/a	n/a	n/a	12	5	3	4	n/a	n/a	n/a	n/a	n/a
2448196	PROB	n/a	LTP115	ltpFR	9	n/a	n/a	n/a	n/a	n/a	n/a	15	9	4	2	n/a	n/a	n/a	n/a	n/a
2450320	PROB	n/a	LTP115	ltpFR	9	n/a	n/a	n/a	n/a	n/a	n/a	17	9	4	7	n/a	n/a	n/a	n/a	n/a
2452444	PROB	n/a	LTP115	ltpFR	9	n/a	n/a	n/a	n/a	n/a	n/a	18	9	6	3	n/a	n/a	n/a	n/a	n/a
2457084	PROB	n/a	LTP115	ltpFR	9	n/a	n/a	n/a	n/a	n/a	n/a	12	2	7	3	n/a	n/a	n/a	n/a	n/a
2459388	STOP	n/a	LTP115	ltpFR	9	n/a	n/a	n/a	n/a	n/a	n/a	n/a	n/a	n/a	n/a	n/a	n/a	n/a	n/a	n/a
2461225	REC_START	n/a	LTP115	ltpFR	9	10	n/a	n/a	n/a	n/a	n/a	n/a	0	0	0	n/a	n/a	n/a	n/a	n/a
2462602	REC_WORD	wordpools/wasnorm_wordpool.txt	LTP115	ltpFR	9	10	1	SHEET	1279	n/a	0	n/a	0	0	0	n/a	n/a	n/a	n/a	n/a
2463335	REC_WORD	wordpools/wasnorm_wordpool.txt	LTP115	ltpFR	9	10	1	FLIPPER	580	n/a	0	n/a	0	0	0	n/a	n/a	n/a	n/a	n/a
2464233	REC_WORD_VV	wordpools/wasnorm_wordpool.txt	LTP115	ltpFR	9	10	n/a	<>	-1	n/a	n/a	n/a	0	0	0	n/a	n/a	n/a	n/a	n/a
2464538	REC_WORD	wordpools/wasnorm_wordpool.txt	LTP115	ltpFR	9	10	1	SHEET	1279	n/a	0	n/a	0	0	0	n/a	n/a	n/a	n/a	n/a
2465031	REC_WORD	wordpools/wasnorm_wordpool.txt	LTP115	ltpFR	9	10	1	FLIPPER	580	n/a	0	n/a	0	0	0	n/a	n/a	n/a	n/a	n/a
2465964	REC_WORD	wordpools/wasnorm_wordpool.txt	LTP115	ltpFR	9	10	1	NOOSE	956	n/a	0	n/a	0	0	0	n/a	n/a	n/a	n/a	n/a
2509854	REC_WORD	wordpools/wasnorm_wordpool.txt	LTP115	ltpFR	9	10	0	DUCK	504	n/a	0	n/a	0	0	0	n/a	n/a	n/a	n/a	n/a
2511096	REC_WORD	wordpools/wasnorm_wordpool.txt	LTP115	ltpFR	9	10	0	GOOSE	649	n/a	0	n/a	0	0	0	n/a	n/a	n/a	n/a	n/a
2513012	REC_WORD	wordpools/wasnorm_wordpool.txt	LTP115	ltpFR	9	10	0	PIGEON	1065	n/a	0	n/a	0	0	0	n/a	n/a	n/a	n/a	n/a
2516459	REC_WORD	wordpools/wasnorm_wordpool.txt	LTP115	ltpFR	9	10	1	MAGAZINE	853	n/a	0	n/a	0	0	0	n/a	n/a	n/a	n/a	n/a
2533032	REC_WORD	wordpools/wasnorm_wordpool.txt	LTP115	ltpFR	9	10	1	SHORTCAKE	1292	n/a	0	n/a	0	0	0	n/a	n/a	n/a	n/a	n/a
2533994	REC_WORD	wordpools/wasnorm_wordpool.txt	LTP115	ltpFR	9	10	1	COBBLER	335	n/a	0	n/a	0	0	0	n/a	n/a	n/a	n/a	n/a
2536848	REST_REWET	n/a	LTP115	ltpFR	9	10	n/a	n/a	n/a	n/a	n/a	n/a	0	0	0	n/a	n/a	n/a	n/a	n/a
3259758	WORD	wordpools/wasnorm_wordpool.txt	LTP115	ltpFR	9	11	1	SANDWICH	1232	n/a	0	n/a	0	0	0	1	0.412841796875	0.57763671875	upper	../fonts/zerothre.ttf
3263673	WORD	wordpools/wasnorm_wordpool.txt	LTP115	ltpFR	9	11	1	TRAIN	1494	n/a	0	n/a	0	0	0	1	0.412841796875	0.57763671875	upper	../fonts/zerothre.ttf
3267572	WORD	wordpools/wasnorm_wordpool.txt	LTP115	ltpFR	9	11	1	APPLE	33	n/a	0	n/a	0	0	0	1	0.412841796875	0.57763671875	upper	../fonts/zerothre.ttf
3271762	WORD	wordpools/wasnorm_wordpool.txt	LTP115	ltpFR	9	11	1	CLERK	321	n/a	1	n/a	0	0	0	1	0.412841796875	0.57763671875	upper	../fonts/zerothre.ttf
3275928	WORD	wordpools/wasnorm_wordpool.txt	LTP115	ltpFR	9	11	1	FLASHLIGHT	575	n/a	0	n/a	0	0	0	1	0.412841796875	0.57763671875	upper	../fonts/zerothre.ttf
3279768	WORD	wordpools/wasnorm_wordpool.txt	LTP115	ltpFR	9	11	1	BUILDER	190	n/a	1	n/a	0	0	0	1	0.412841796875	0.57763671875	upper	../fonts/zerothre.ttf
3283616	WORD	wordpools/wasnorm_wordpool.txt	LTP115	ltpFR	9	11	0	CAMERA	224	n/a	0	n/a	0	0	0	0	0.5869140625	0.422607421875	lower	../fonts/amplitud.ttf
3287773	WORD	wordpools/wasnorm_wordpool.txt	LTP115	ltpFR	9	11	0	HUMAN	726	n/a	1	n/a	0	0	0	0	0.5869140625	0.422607421875	lower	../fonts/amplitud.ttf
3291714	WORD	wordpools/wasnorm_wordpool.txt	LTP115	ltpFR	9	11	0	SOAP	1337	n/a	0	n/a	0	0	0	0	0.5869140625	0.422607421875	lower	../fonts/amplitud.ttf
3295546	WORD	wordpools/wasnorm_wordpool.txt	LTP115	ltpFR	9	11	1	FLY	586	n/a	1	n/a	0	0	0	1	0.412841796875	0.57763671875	upper	../fonts/zerothre.ttf
3299519	WORD	wordpools/wasnorm_wordpool.txt	LTP115	ltpFR	9	11	1	AIRPLANE	12	n/a	0	n/a	0	0	0	1	0.412841796875	0.57763671875	upper	../fonts/zerothre.ttf
3303526	WORD	wordpools/wasnorm_wordpool.txt	LTP115	ltpFR	9	11	0	OTTER	986	n/a	1	n/a	0	0	0	0	0.5869140625	0.422607421875	lower	../fonts/amplitud.ttf
3307725	WORD	wordpools/wasnorm_wordpool.txt	LTP115	ltpFR	9	11	0	PREDATOR	1120	n/a	1	n/a	0	0	0	0	0.5869140625	0.422607421875	lower	../fonts/amplitud.ttf
3311590	WORD	wordpools/wasnorm_wordpool.txt	LTP115	ltpFR	9	11	0	EMPLOYER	532	n/a	1	n/a	0	0	0	0	0.5869140625	0.422607421875	lower	../fonts/amplitud.ttf
3315555	WORD	wordpools/wasnorm_wordpool.txt	LTP115	ltpFR	9	11	0	PEACH	1031	n/a	0	n/a	0	0	0	0	0.5869140625	0.422607421875	lower	../fonts/amplitud.ttf
3319404	WORD	wordpools/wasnorm_wordpool.txt	LTP115	ltpFR	9	11	0	DUNGEON	507	n/a	1	n/a	0	0	0	0	0.5869140625	0.422607421875	lower	../fonts/amplitud.ttf
3325477	REC_START	n/a	LTP115	ltpFR	9	11	n/a	n/a	n/a	n/a	n/a	n/a	0	0	0	n/a	n/a	n/a	n/a	n/a
3326350	REC_WORD	wordpools/wasnorm_wordpool.txt	LTP115	ltpFR	9	11	0	PEACH	1031	n/a	0	n/a	0	0	0	n/a	n/a	n/a	n/a	n/a
3326914	REC_WORD	wordpools/wasnorm_wordpool.txt	LTP115	ltpFR	9	11	0	EMPLOYER	532	n/a	1	n/a	0	0	0	n/a	n/a	n/a	n/a	n/a
3327931	REC_WORD	wordpools/wasnorm_wordpool.txt	LTP115	ltpFR	9	11	0	DUNGEON	507	n/a	1	n/a	0	0	0	n/a	n/a	n/a	n/a	n/a
3328854	REC_WORD	wordpools/wasnorm_wordpool.txt	LTP115	ltpFR	9	11	0	PREDATOR	1120	n/a	1	n/a	0	0	0	n/a	n/a	n/a	n/a	n/a
3329862	REC_WORD	wordpools/wasnorm_wordpool.txt	LTP115	ltpFR	9	11	0	OTTER	986	n/a	1	n/a	0	0	0	n/a	n/a	n/a	n/a	n/a
3333908	REC_WORD	wordpools/wasnorm_wordpool.txt	LTP115	ltpFR	9	11	1	FLY	586	n/a	1	n/a	0	0	0	n/a	n/a	n/a	n/a	n/a
3335045	REC_WORD	wordpools/wasnorm_wordpool.txt	LTP115	ltpFR	9	11	1	AIRPLANE	12	n/a	0	n/a	0	0	0	n/a	n/a	n/a	n/a	n/a
3343636	REC_WORD	wordpools/wasnorm_wordpool.txt	LTP115	ltpFR	9	11	0	CAMERA	224	n/a	0	n/a	0	0	0	n/a	n/a	n/a	n/a	n/a
3344484	REC_WORD	wordpools/wasnorm_wordpool.txt	LTP115	ltpFR	9	11	0	HUMAN	726	n/a	1	n/a	0	0	0	n/a	n/a	n/a	n/a	n/a
3345501	REC_WORD	wordpools/wasnorm_wordpool.txt	LTP115	ltpFR	9	11	1	APPLE	33	n/a	0	n/a	0	0	0	n/a	n/a	n/a	n/a	n/a
3346309	REC_WORD	wordpools/wasnorm_wordpool.txt	LTP115	ltpFR	9	11	1	SANDWICH	1232	n/a	0	n/a	0	0	0	n/a	n/a	n/a	n/a	n/a
3347382	REC_WORD	wordpools/wasnorm_wordpool.txt	LTP115	ltpFR	9	11	1	CLERK	321	n/a	1	n/a	0	0	0	n/a	n/a	n/a	n/a	n/a
3348340	REC_WORD	wordpools/wasnorm_wordpool.txt	LTP115	ltpFR	9	11	1	BUILDER	190	n/a	1	n/a	0	0	0	n/a	n/a	n/a	n/a	n/a
3352201	REC_WORD	wordpools/wasnorm_wordpool.txt	LTP115	ltpFR	9	11	1	TRAIN	1494	n/a	0	n/a	0	0	0	n/a	n/a	n/a	n/a	n/a
3428782	START	n/a	LTP115	ltpFR	9	n/a	n/a	n/a	n/a	n/a	n/a	n/a	n/a	n/a	n/a	n/a	n/a	n/a	n/a	n/a
3430289	PROB	n/a	LTP115	ltpFR	9	n/a	n/a	n/a	n/a	n/a	n/a	7	5	1	1	n/a	n/a	n/a	n/a	n/a
3432122	PROB	n/a	LTP115	ltpFR	9	n/a	n/a	n/a	n/a	n/a	n/a	22	8	8	6	n/a	n/a	n/a	n/a	n/a
3434988	PROB	n/a	LTP115	ltpFR	9	n/a	n/a	n/a	n/a	n/a	n/a	13	4	2	7	n/a	n/a	n/a	n/a	n/a
3436684	STOP	n/a	LTP115	ltpFR	9	n/a	n/a	n/a	n/a	n/a	n/a	n/a	n/a	n/a	n/a	n/a	n/a	n/a	n/a	n/a
3437896	WORD	wordpools/wasnorm_wordpool.txt	LTP115	ltpFR	9	12	0	YOKE	1632	n/a	0	n/a	0	0	0	0	0.5869140625	0.422607421875	lower	../fonts/amplitud.ttf
3440904	START	n/a	LTP115	ltpFR	9	n/a	n/a	n/a	n/a	n/a	n/a	n/a	n/a	n/a	n/a	n/a	n/a	n/a	n/a	n/a
3441752	PROB	n/a	LTP115	ltpFR	9	n/a	n/a	n/a	n/a	n/a	n/a	15	3	8	4	n/a	n/a	n/a	n/a	n/a
3443869	PROB	n/a	LTP115	ltpFR	9	n/a	n/a	n/a	n/a	n/a	n/a	13	2	5	6	n/a	n/a	n/a	n/a	n/a
3445426	PROB	n/a	LTP115	ltpFR	9	n/a	n/a	n/a	n/a	n/a	n/a	23	7	5	9	n/a	n/a	n/a	n/a	n/a
3447025	PROB	n/a	LTP115	ltpFR	9	n/a	n/a	n/a	n/a	n/a	n/a	18	7	3	8	n/a	n/a	n/a	n/a	n/a
3448524	STOP	n/a	LTP115	ltpFR	9	n/a	n/a	n/a	n/a	n/a	n/a	n/a	n/a	n/a	n/a	n/a	n/a	n/a	n/a	n/a
3450107	WORD	wordpools/wasnorm_wordpool.txt	LTP115	ltpFR	9	12	0	TECHNICIAN	1443	n/a	1	n/a	0	0	0	0	0.5869140625	0.422607421875	lower	../fonts/amplitud.ttf
3453115	START	n/a	LTP115	ltpFR	9	n/a	n/a	n/a	n/a	n/a	n/a	n/a	n/a	n/a	n/a	n/a	n/a	n/a	n/a	n/a
3454181	PROB	n/a	LTP115	ltpFR	9	n/a	n/a	n/a	n/a	n/a	n/a	21	6	7	8	n/a	n/a	n/a	n/a	n/a
3456572	PROB	n/a	LTP115	ltpFR	9	n/a	n/a	n/a	n/a	n/a	n/a	6	1	4	1	n/a	n/a	n/a	n/a	n/a
3458171	PROB	n/a	LTP115	ltpFR	9	n/a	n/a	n/a	n/a	n/a	n/a	15	2	4	9	n/a	n/a	n/a	n/a	n/a
3460004	STOP	n/a	LTP115	ltpFR	9	n/a	n/a	n/a	n/a	n/a	n/a	n/a	n/a	n/a	n/a	n/a	n/a	n/a	n/a	n/a
3462203	WORD	wordpools/wasnorm_wordpool.txt	LTP115	ltpFR	9	12	0	DAISY	435	n/a	0	n/a	0	0	0	0	0.5869140625	0.422607421875	lower	../fonts/amplitud.ttf
3465211	START	n/a	LTP115	ltpFR	9	n/a	n/a	n/a	n/a	n/a	n/a	n/a	n/a	n/a	n/a	n/a	n/a	n/a	n/a	n/a
3466043	PROB	n/a	LTP115	ltpFR	9	n/a	n/a	n/a	n/a	n/a	n/a	21	9	5	7	n/a	n/a	n/a	n/a	n/a
3468251	PROB	n/a	LTP115	ltpFR	9	n/a	n/a	n/a	n/a	n/a	n/a	12	4	2	6	n/a	n/a	n/a	n/a	n/a
3469917	PROB	n/a	LTP115	ltpFR	9	n/a	n/a	n/a	n/a	n/a	n/a	9	5	1	3	n/a	n/a	n/a	n/a	n/a
3472180	STOP	n/a	LTP115	ltpFR	9	n/a	n/a	n/a	n/a	n/a	n/a	n/a	n/a	n/a	n/a	n/a	n/a	n/a	n/a	n/a
3474132	WORD	wordpools/wasnorm_wordpool.txt	LTP115	ltpFR	9	12	0	CHAMBER	277	n/a	1	n/a	0	0	0	0	0.5869140625	0.422607421875	lower	../fonts/amplitud.ttf
3477140	START	n/a	LTP115	ltpFR	9	n/a	n/a	n/a	n/a	n/a	n/a	n/a	n/a	n/a	n/a	n/a	n/a	n/a	n/a	n/a
3478106	PROB	n/a	LTP115	ltpFR	9	n/a	n/a	n/a	n/a	n/a	n/a	12	6	2	4	n/a	n/a	n/a	n/a	n/a
3479898	PROB	n/a	LTP115	ltpFR	9	n/a	n/a	n/a	n/a	n/a	n/a	14	4	1	9	n/a	n/a	n/a	n/a	n/a
3482563	PROB	n/a	LTP115	ltpFR	9	n/a	n/a	n/a	n/a	n/a	n/a	13	3	7	3	n/a	n/a	n/a	n/a	n/a
3484444	STOP	n/a	LTP115	ltpFR	9	n/a	n/a	n/a	n/a	n/a	n/a	n/a	n/a	n/a	n/a	n/a	n/a	n/a	n/a	n/a
3486145	WORD	wordpools/wasnorm_wordpool.txt	LTP115	ltpFR	9	12	0	CAR	241	n/a	1	n/a	0	0	0	0	0.5869140625	0.422607421875	lower	../fonts/amplitud.ttf
3489152	START	n/a	LTP115	ltpFR	9	n/a	n/a	n/a	n/a	n/a	n/a	n/a	n/a	n/a	n/a	n/a	n/a	n/a	n/a	n/a
3490326	PROB	n/a	LTP115	ltpFR	9	n/a	n/a	n/a	n/a	n/a	n/a	8	4	2	2	n/a	n/a	n/a	n/a	n/a
3492492	PROB	n/a	LTP115	ltpFR	9	n/a	n/a	n/a	n/a	n/a	n/a	19	9	6	4	n/a	n/a	n/a	n/a	n/a
3494983	PROB	n/a	LTP115	ltpFR	9	n/a	n/a	n/a	n/a	n/a	n/a	7	4	1	2	n/a	n/a	n/a	n/a	n/a
3496460	STOP	n/a	LTP115	ltpFR	9	n/a	n/a	n/a	n/a	n/a	n/a	n/a	n/a	n/a	n/a	n/a	n/a	n/a	n/a	n/a
3498124	WORD	wordpools/wasnorm_wordpool.txt	LTP115	ltpFR	9	12	0	ACID	2	n/a	0	n/a	0	0	0	0	0.5869140625	0.422607421875	lower	../fonts/amplitud.ttf
3501131	START	n/a	LTP115	ltpFR	9	n/a	n/a	n/a	n/a	n/a	n/a	n/a	n/a	n/a	n/a	n/a	n/a	n/a	n/a	n/a
3502264	PROB	n/a	LTP115	ltpFR	9	n/a	n/a	n/a	n/a	n/a	n/a	15	8	1	6	n/a	n/a	n/a	n/a	n/a
3503863	PROB	n/a	LTP115	ltpFR	9	n/a	n/a	n/a	n/a	n/a	n/a	18	7	6	5	n/a	n/a	n/a	n/a	n/a
3505371	PROB	n/a	LTP115	ltpFR	9	n/a	n/a	n/a	n/a	n/a	n/a	26	9	9	8	n/a	n/a	n/a	n/a	n/a
3507676	STOP	n/a	LTP115	ltpFR	9	n/a	n/a	n/a	n/a	n/a	n/a	n/a	n/a	n/a	n/a	n/a	n/a	n/a	n/a	n/a
3510219	WORD	wordpools/wasnorm_wordpool.txt	LTP115	ltpFR	9	12	1	CARAVAN	242	n/a	0	n/a	0	0	0	1	0.412841796875	0.57763671875	upper	../fonts/zerothre.ttf
3513227	START	n/a	LTP115	ltpFR	9	n/a	n/a	n/a	n/a	n/a	n/a	n/a	n/a	n/a	n/a	n/a	n/a	n/a	n/a	n/a
3514393	PROB	n/a	LTP115	ltpFR	9	n/a	n/a	n/a	n/a	n/a	n/a	17	8	6	3	n/a	n/a	n/a	n/a	n/a
3516859	PROB	n/a	LTP115	ltpFR	9	n/a	n/a	n/a	n/a	n/a	n/a	11	1	5	5	n/a	n/a	n/a	n/a	n/a
3518616	PROB	n/a	LTP115	ltpFR	9	n/a	n/a	n/a	n/a	n/a	n/a	17	6	7	4	n/a	n/a	n/a	n/a	n/a
3520724	STOP	n/a	LTP115	ltpFR	9	n/a	n/a	n/a	n/a	n/a	n/a	n/a	n/a	n/a	n/a	n/a	n/a	n/a	n/a	n/a
3522365	WORD	wordpools/wasnorm_wordpool.txt	LTP115	ltpFR	9	12	1	LEMON	810	n/a	1	n/a	0	0	0	1	0.412841796875	0.57763671875	upper	../fonts/zerothre.ttf
3525373	START	n/a	LTP115	ltpFR	9	n/a	n/a	n/a	n/a	n/a	n/a	n/a	n/a	n/a	n/a	n/a	n/a	n/a	n/a	n/a
3526497	PROB	n/a	LTP115	ltpFR	9	n/a	n/a	n/a	n/a	n/a	n/a	17	2	8	7	n/a	n/a	n/a	n/a	n/a
3527897	PROB	n/a	LTP115	ltpFR	9	n/a	n/a	n/a	n/a	n/a	n/a	6	1	4	1	n/a	n/a	n/a	n/a	n/a
3529021	PROB	n/a	LTP115	ltpFR	9	n/a	n/a	n/a	n/a	n/a	n/a	9	4	2	3	n/a	n/a	n/a	n/a	n/a
3530562	PROB	n/a	LTP115	ltpFR	9	n/a	n/a	n/a	n/a	n/a	n/a	15	8	1	6	n/a	n/a	n/a	n/a	n/a
3532100	STOP	n/a	LTP115	ltpFR	9	n/a	n/a	n/a	n/a	n/a	n/a	n/a	n/a	n/a	n/a	n/a	n/a	n/a	n/a	n/a
3534244	WORD	wordpools/wasnorm_wordpool.txt	LTP115	ltpFR	9	12	0	LIME	823	n/a	0	n/a	0	0	0	0	0.5869140625	0.422607421875	lower	../fonts/amplitud.ttf
3537252	START	n/a	LTP115	ltpFR	9	n/a	n/a	n/a	n/a	n/a	n/a	n/a	n/a	n/a	n/a	n/a	n/a	n/a	n/a	n/a
3538076	PROB	n/a	LTP115	ltpFR	9	n/a	n/a	n/a	n/a	n/a	n/a	25	9	7	7	n/a	n/a	n/a	n/a	n/a
3541033	PROB	n/a	LTP115	ltpFR	9	n/a	n/a	n/a	n/a	n/a	n/a	19	8	5	6	n/a	n/a	n/a	n/a	n/a
3542999	PROB	n/a	LTP115	ltpFR	9	n/a	n/a	n/a	n/a	n/a	n/a	9	1	3	5	n/a	n/a	n/a	n/a	n/a
3544108	STOP	n/a	LTP115	ltpFR	9	n/a	n/a	n/a	n/a	n/a	n/a	n/a	n/a	n/a	n/a	n/a	n/a	n/a	n/a	n/a
3546232	WORD	wordpools/wasnorm_wordpool.txt	LTP115	ltpFR	9	12	0	CLOUD	328	n/a	1	n/a	0	0	0	0	0.5869140625	0.422607421875	lower	../fonts/amplitud.ttf
3549239	START	n/a	LTP115	ltpFR	9	n/a	n/a	n/a	n/a	n/a	n/a	n/a	n/a	n/a	n/a	n/a	n/a	n/a	n/a	n/a
3550089	PROB	n/a	LTP115	ltpFR	9	n/a	n/a	n/a	n/a	n/a	n/a	10	6	2	2	n/a	n/a	n/a	n/a	n/a
3551538	PROB	n/a	LTP115	ltpFR	9	n/a	n/a	n/a	n/a	n/a	n/a	15	8	1	6	n/a	n/a	n/a	n/a	n/a
3553862	PROB	n/a	LTP115	ltpFR	9	n/a	n/a	n/a	n/a	n/a	n/a	11	3	2	6	n/a	n/a	n/a	n/a	n/a
3555128	PROB	n/a	LTP115	ltpFR	9	n/a	n/a	n/a	n/a	n/a	n/a	12	1	9	2	n/a	n/a	n/a	n/a	n/a
3556444	STOP	n/a	LTP115	ltpFR	9	n/a	n/a	n/a	n/a	n/a	n/a	n/a	n/a	n/a	n/a	n/a	n/a	n/a	n/a	n/a
3558419	WORD	wordpools/wasnorm_wordpool.txt	LTP115	ltpFR	9	12	1	DENTIST	447	n/a	1	n/a	0	0	0	1	0.412841796875	0.57763671875	upper	../fonts/zerothre.ttf
3561427	START	n/a	LTP115	ltpFR	9	n/a	n/a	n/a	n/a	n/a	n/a	n/a	n/a	n/a	n/a	n/a	n/a	n/a	n/a	n/a
3562268	PROB	n/a	LTP115	ltpFR	9	n/a	n/a	n/a	n/a	n/a	n/a	20	6	6	8	n/a	n/a	n/a	n/a	n/a
3565400	PROB	n/a	LTP115	ltpFR	9	n/a	n/a	n/a	n/a	n/a	n/a	15	8	3	2	n/a	n/a	n/a	n/a	n/a
3569426	STOP	n/a	LTP115	ltpFR	9	n/a	n/a	n/a	n/a	n/a	n/a	n/a	n/a	n/a	n/a	n/a	n/a	n/a	n/a	n/a
3570281	WORD	wordpools/wasnorm_wordpool.txt	LTP115	ltpFR	9	12	1	LILY	821	n/a	1	n/a	0	0	0	1	0.412841796875	0.57763671875	upper	../fonts/zerothre.ttf
3573289	START	n/a	LTP115	ltpFR	9	n/a	n/a	n/a	n/a	n/a	n/a	n/a	n/a	n/a	n/a	n/a	n/a	n/a	n/a	n/a
3574263	PROB	n/a	LTP115	ltpFR	9	n/a	n/a	n/a	n/a	n/a	n/a	12	1	9	2	n/a	n/a	n/a	n/a	n/a
3575880	PROB	n/a	LTP115	ltpFR	9	n/a	n/a	n/a	n/a	n/a	n/a	11	2	8	1	n/a	n/a	n/a	n/a	n/a
3577354	PROB	n/a	LTP115	ltpFR	9	n/a	n/a	n/a	n/a	n/a	n/a	17	5	7	5	n/a	n/a	n/a	n/a	n/a
3580148	STOP	n/a	LTP115	ltpFR	9	n/a	n/a	n/a	n/a	n/a	n/a	n/a	n/a	n/a	n/a	n/a	n/a	n/a	n/a	n/a
3582435	WORD	wordpools/wasnorm_wordpool.txt	LTP115	ltpFR	9	12	1	POLYESTER	1100	n/a	0	n/a	0	0	0	1	0.412841796875	0.57763671875	upper	../fonts/zerothre.ttf
3585443	START	n/a	LTP115	ltpFR	9	n/a	n/a	n/a	n/a	n/a	n/a	n/a	n/a	n/a	n/a	n/a	n/a	n/a	n/a	n/a
3586576	PROB	n/a	LTP115	ltpFR	9	n/a	n/a	n/a	n/a	n/a	n/a	13	4	5	4	n/a	n/a	n/a	n/a	n/a
3589508	PROB	n/a	LTP115	ltpFR	9	n/a	n/a	n/a	n/a	n/a	n/a	10	6	3	1	n/a	n/a	n/a	n/a	n/a
3590716	PROB	n/a	LTP115	ltpFR	9	n/a	n/a	n/a	n/a	n/a	n/a	9	3	5	1	n/a	n/a	n/a	n/a	n/a
3592188	STOP	n/a	LTP115	ltpFR	9	n/a	n/a	n/a	n/a	n/a	n/a	n/a	n/a	n/a	n/a	n/a	n/a	n/a	n/a	n/a
3594290	WORD	wordpools/wasnorm_wordpool.txt	LTP115	ltpFR	9	12	1	WARDROBE	1587	n/a	0	n/a	0	0	0	1	0.412841796875	0.57763671875	upper	../fonts/zerothre.ttf
3597297	START	n/a	LTP115	ltpFR	9	n/a	n/a	n/a	n/a	n/a	n/a	n/a	n/a	n/a	n/a	n/a	n/a	n/a	n/a	n/a
3598496	PROB	n/a	LTP115	ltpFR	9	n/a	n/a	n/a	n/a	n/a	n/a	14	6	6	2	n/a	n/a	n/a	n/a	n/a
3601021	PROB	n/a	LTP115	ltpFR	9	n/a	n/a	n/a	n/a	n/a	n/a	22	9	4	9	n/a	n/a	n/a	n/a	n/a
3605297	STOP	n/a	LTP115	ltpFR	9	n/a	n/a	n/a	n/a	n/a	n/a	n/a	n/a	n/a	n/a	n/a	n/a	n/a	n/a	n/a
3606244	WORD	wordpools/wasnorm_wordpool.txt	LTP115	ltpFR	9	12	1	DANDELION	438	n/a	0	n/a	0	0	0	1	0.412841796875	0.57763671875	upper	../fonts/zerothre.ttf
3609251	START	n/a	LTP115	ltpFR	9	n/a	n/a	n/a	n/a	n/a	n/a	n/a	n/a	n/a	n/a	n/a	n/a	n/a	n/a	n/a
3610076	PROB	n/a	LTP115	ltpFR	9	n/a	n/a	n/a	n/a	n/a	n/a	1	3	7	5	n/a	n/a	n/a	n/a	n/a
3611500	PROB	n/a	LTP115	ltpFR	9	n/a	n/a	n/a	n/a	n/a	n/a	21	9	3	9	n/a	n/a	n/a	n/a	n/a
3615066	PROB	n/a	LTP115	ltpFR	9	n/a	n/a	n/a	n/a	n/a	n/a	10	3	2	5	n/a	n/a	n/a	n/a	n/a
3617180	STOP	n/a	LTP115	ltpFR	9	n/a	n/a	n/a	n/a	n/a	n/a	n/a	n/a	n/a	n/a	n/a	n/a	n/a	n/a	n/a
3618123	WORD	wordpools/wasnorm_wordpool.txt	LTP115	ltpFR	9	12	1	SUPERVISOR	1410	n/a	1	n/a	0	0	0	1	0.412841796875	0.57763671875	upper	../fonts/zerothre.ttf
3621130	START	n/a	LTP115	ltpFR	9	n/a	n/a	n/a	n/a	n/a	n/a	n/a	n/a	n/a	n/a	n/a	n/a	n/a	n/a	n/a
3622021	PROB	n/a	LTP115	ltpFR	9	n/a	n/a	n/a	n/a	n/a	n/a	17	4	8	5	n/a	n/a	n/a	n/a	n/a
3624221	PROB	n/a	LTP115	ltpFR	9	n/a	n/a	n/a	n/a	n/a	n/a	13	7	4	2	n/a	n/a	n/a	n/a	n/a
3625670	PROB	n/a	LTP115	ltpFR	9	n/a	n/a	n/a	n/a	n/a	n/a	7	1	3	3	n/a	n/a	n/a	n/a	n/a
3626986	PROB	n/a	LTP115	ltpFR	9	n/a	n/a	n/a	n/a	n/a	n/a	12	4	1	7	n/a	n/a	n/a	n/a	n/a
3628188	STOP	n/a	LTP115	ltpFR	9	n/a	n/a	n/a	n/a	n/a	n/a	n/a	n/a	n/a	n/a	n/a	n/a	n/a	n/a	n/a
3630878	REC_START	n/a	LTP115	ltpFR	9	12	n/a	n/a	n/a	n/a	n/a	n/a	0	0	0	n/a	n/a	n/a	n/a	n/a
