onset	duration	trial_type	sample	stim_file	subject	experiment	session	trial	task	item_name	item_num	recog_conf	resp	color_b	color_g	color_r	case	font
230.232	n/a	SESS_START	115116	n/a	LTP189	ltpFR	16	n/a	n/a	n/a	n/a	4	n/a	n/a	n/a	n/a	n/a	n/a
257.888	n/a	WORD	128944	wordpools/wasnorm_wordpool_less_exclusions.txt	LTP189	ltpFR	16	1	0	FOLDER	588	4	0	1	0.412841796875	0.57763671875	lower	../fonts/zerothre.ttf
262.016	n/a	WORD	131008	wordpools/wasnorm_wordpool_less_exclusions.txt	LTP189	ltpFR	16	1	0	POLYESTER	1100	1	0	1	0.412841796875	0.57763671875	lower	../fonts/zerothre.ttf
266.144	n/a	WORD	133072	wordpools/wasnorm_wordpool_less_exclusions.txt	LTP189	ltpFR	16	1	0	VICTOR	1563	n/a	0	1	0.412841796875	0.57763671875	lower	../fonts/zerothre.ttf
270.238	n/a	WORD	135119	wordpools/wasnorm_wordpool_less_exclusions.txt	LTP189	ltpFR	16	1	0	CRYSTAL	418	n/a	0	1	0.412841796875	0.57763671875	lower	../fonts/zerothre.ttf
274.066	n/a	WORD	137033	wordpools/wasnorm_wordpool_less_exclusions.txt	LTP189	ltpFR	16	1	1	HORIZON	717	n/a	0	0	0.5869140625	0.422607421875	upper	../fonts/amplitud.ttf
278.11	n/a	WORD	139055	wordpools/wasnorm_wordpool_less_exclusions.txt	LTP189	ltpFR	16	1	1	SUN	1406	n/a	0	0	0.5869140625	0.422607421875	upper	../fonts/amplitud.ttf
282.054	n/a	WORD	141027	wordpools/wasnorm_wordpool_less_exclusions.txt	LTP189	ltpFR	16	1	1	RANCH	1166	n/a	0	0	0.5869140625	0.422607421875	upper	../fonts/amplitud.ttf
286.264	n/a	WORD	143132	wordpools/wasnorm_wordpool_less_exclusions.txt	LTP189	ltpFR	16	1	1	LINT	826	n/a	0	0	0.5869140625	0.422607421875	upper	../fonts/amplitud.ttf
290.392	n/a	WORD	145196	wordpools/wasnorm_wordpool_less_exclusions.txt	LTP189	ltpFR	16	1	1	BANKER	84	n/a	1	0	0.5869140625	0.422607421875	upper	../fonts/amplitud.ttf
294.352	n/a	WORD	147176	wordpools/wasnorm_wordpool_less_exclusions.txt	LTP189	ltpFR	16	1	1	SHORTS	1293	n/a	0	0	0.5869140625	0.422607421875	upper	../fonts/amplitud.ttf
298.33	n/a	WORD	149165	wordpools/wasnorm_wordpool_less_exclusions.txt	LTP189	ltpFR	16	1	0	VEST	1559	n/a	0	1	0.412841796875	0.57763671875	lower	../fonts/zerothre.ttf
302.306	n/a	WORD	151153	wordpools/wasnorm_wordpool_less_exclusions.txt	LTP189	ltpFR	16	1	0	MAT	877	n/a	0	1	0.412841796875	0.57763671875	lower	../fonts/zerothre.ttf
306.334	n/a	WORD	153167	wordpools/wasnorm_wordpool_less_exclusions.txt	LTP189	ltpFR	16	1	1	SHELTER	1282	n/a	0	0	0.5869140625	0.422607421875	upper	../fonts/amplitud.ttf
310.162	n/a	WORD	155081	wordpools/wasnorm_wordpool_less_exclusions.txt	LTP189	ltpFR	16	1	1	CATTLE	261	n/a	1	0	0.5869140625	0.422607421875	upper	../fonts/amplitud.ttf
314.09	n/a	WORD	157045	wordpools/wasnorm_wordpool_less_exclusions.txt	LTP189	ltpFR	16	1	0	BAND	78	n/a	1	1	0.412841796875	0.57763671875	lower	../fonts/zerothre.ttf
318.184	n/a	WORD	159092	wordpools/wasnorm_wordpool_less_exclusions.txt	LTP189	ltpFR	16	1	0	WINNER	1615	n/a	1	1	0.412841796875	0.57763671875	lower	../fonts/zerothre.ttf
324.108	n/a	REC_START	162054	n/a	LTP189	ltpFR	16	1	n/a	n/a	n/a	n/a	n/a	n/a	n/a	n/a	n/a	n/a
325.082	n/a	REC_WORD	162541	wordpools/wasnorm_wordpool_less_exclusions.txt	LTP189	ltpFR	16	1	0	VICTOR	1563	n/a	0	n/a	n/a	n/a	n/a	n/a
325.71	n/a	REC_WORD	162855	wordpools/wasnorm_wordpool_less_exclusions.txt	LTP189	ltpFR	16	1	0	WINNER	1615	n/a	1	n/a	n/a	n/a	n/a	n/a
326.388	n/a	REC_WORD	163194	wordpools/wasnorm_wordpool_less_exclusions.txt	LTP189	ltpFR	16	1	0	POLYESTER	1100	n/a	0	n/a	n/a	n/a	n/a	n/a
327.282	n/a	REC_WORD	163641	wordpools/wasnorm_wordpool_less_exclusions.txt	LTP189	ltpFR	16	1	0	CRYSTAL	418	n/a	0	n/a	n/a	n/a	n/a	n/a
327.824	n/a	REC_WORD	163912	wordpools/wasnorm_wordpool_less_exclusions.txt	LTP189	ltpFR	16	1	0	FOLDER	588	n/a	0	n/a	n/a	n/a	n/a	n/a
328.768	n/a	REC_WORD	164384	wordpools/wasnorm_wordpool_less_exclusions.txt	LTP189	ltpFR	16	1	1	RANCH	1166	n/a	0	n/a	n/a	n/a	n/a	n/a
330.428	n/a	REC_WORD	165214	wordpools/wasnorm_wordpool_less_exclusions.txt	LTP189	ltpFR	16	1	n/a	COW	393	n/a	n/a	n/a	n/a	n/a	n/a	n/a
336.156	n/a	REC_WORD	168078	wordpools/wasnorm_wordpool_less_exclusions.txt	LTP189	ltpFR	16	1	1	CATTLE	261	n/a	1	n/a	n/a	n/a	n/a	n/a
338.182	n/a	REC_WORD	169091	wordpools/wasnorm_wordpool_less_exclusions.txt	LTP189	ltpFR	16	1	1	BANKER	84	n/a	1	n/a	n/a	n/a	n/a	n/a
338.71	n/a	REC_WORD	169355	wordpools/wasnorm_wordpool_less_exclusions.txt	LTP189	ltpFR	16	1	1	HORIZON	717	n/a	0	n/a	n/a	n/a	n/a	n/a
339.614	n/a	REC_WORD	169807	wordpools/wasnorm_wordpool_less_exclusions.txt	LTP189	ltpFR	16	1	1	SUN	1406	n/a	0	n/a	n/a	n/a	n/a	n/a
346.932	n/a	REC_WORD_VV	173466	wordpools/wasnorm_wordpool_less_exclusions.txt	LTP189	ltpFR	16	1	n/a	<>	-1	n/a	n/a	n/a	n/a	n/a	n/a	n/a
347.932	n/a	REC_WORD_VV	173966	wordpools/wasnorm_wordpool_less_exclusions.txt	LTP189	ltpFR	16	1	n/a	<>	-1	n/a	n/a	n/a	n/a	n/a	n/a	n/a
402.974	n/a	WORD	201487	wordpools/wasnorm_wordpool_less_exclusions.txt	LTP189	ltpFR	16	2	1	SISTER	1312	n/a	0	0	0.5869140625	0.422607421875	upper	../fonts/amplitud.ttf
406.952	n/a	WORD	203476	wordpools/wasnorm_wordpool_less_exclusions.txt	LTP189	ltpFR	16	2	1	SAW	1239	n/a	0	0	0.5869140625	0.422607421875	upper	../fonts/amplitud.ttf
411.062	n/a	WORD	205531	wordpools/wasnorm_wordpool_less_exclusions.txt	LTP189	ltpFR	16	2	1	HARE	688	n/a	0	0	0.5869140625	0.422607421875	upper	../fonts/amplitud.ttf
415.09	n/a	WORD	207545	wordpools/wasnorm_wordpool_less_exclusions.txt	LTP189	ltpFR	16	2	0	CANVAS	234	n/a	1	1	0.412841796875	0.57763671875	lower	../fonts/zerothre.ttf
419.268	n/a	WORD	209634	wordpools/wasnorm_wordpool_less_exclusions.txt	LTP189	ltpFR	16	2	0	CROW	414	n/a	0	1	0.412841796875	0.57763671875	lower	../fonts/zerothre.ttf
423.212	n/a	WORD	211606	wordpools/wasnorm_wordpool_less_exclusions.txt	LTP189	ltpFR	16	2	0	BOULEVARD	156	n/a	1	1	0.412841796875	0.57763671875	lower	../fonts/zerothre.ttf
427.19	n/a	WORD	213595	wordpools/wasnorm_wordpool_less_exclusions.txt	LTP189	ltpFR	16	2	0	CURB	426	n/a	0	1	0.412841796875	0.57763671875	lower	../fonts/zerothre.ttf
431.184	n/a	WORD	215592	wordpools/wasnorm_wordpool_less_exclusions.txt	LTP189	ltpFR	16	2	1	OLIVE	975	n/a	1	0	0.5869140625	0.422607421875	upper	../fonts/amplitud.ttf
435.294	n/a	WORD	217647	wordpools/wasnorm_wordpool_less_exclusions.txt	LTP189	ltpFR	16	2	1	SANDPAPER	1231	n/a	0	0	0.5869140625	0.422607421875	upper	../fonts/amplitud.ttf
439.188	n/a	WORD	219594	wordpools/wasnorm_wordpool_less_exclusions.txt	LTP189	ltpFR	16	2	1	DRIVEWAY	500	n/a	0	0	0.5869140625	0.422607421875	upper	../fonts/amplitud.ttf
443.182	n/a	WORD	221591	wordpools/wasnorm_wordpool_less_exclusions.txt	LTP189	ltpFR	16	2	0	PEDESTRIAN	1038	n/a	1	1	0.412841796875	0.57763671875	lower	../fonts/zerothre.ttf
447.142	n/a	WORD	223571	wordpools/wasnorm_wordpool_less_exclusions.txt	LTP189	ltpFR	16	2	0	WALRUS	1585	n/a	1	1	0.412841796875	0.57763671875	lower	../fonts/zerothre.ttf
450.986	n/a	WORD	225493	wordpools/wasnorm_wordpool_less_exclusions.txt	LTP189	ltpFR	16	2	0	ALLIGATOR	16	n/a	1	1	0.412841796875	0.57763671875	lower	../fonts/zerothre.ttf
454.982	n/a	WORD	227491	wordpools/wasnorm_wordpool_less_exclusions.txt	LTP189	ltpFR	16	2	0	CATHEDRAL	260	n/a	1	1	0.412841796875	0.57763671875	lower	../fonts/zerothre.ttf
459.058	n/a	WORD	229529	wordpools/wasnorm_wordpool_less_exclusions.txt	LTP189	ltpFR	16	2	1	PIGEON	1065	n/a	1	0	0.5869140625	0.422607421875	upper	../fonts/amplitud.ttf
463.02	n/a	WORD	231510	wordpools/wasnorm_wordpool_less_exclusions.txt	LTP189	ltpFR	16	2	1	PARSLEY	1016	n/a	0	0	0.5869140625	0.422607421875	upper	../fonts/amplitud.ttf
468.746	n/a	REC_START	234373	n/a	LTP189	ltpFR	16	2	n/a	n/a	n/a	n/a	n/a	n/a	n/a	n/a	n/a	n/a
470.376	n/a	REC_WORD	235188	wordpools/wasnorm_wordpool_less_exclusions.txt	LTP189	ltpFR	16	2	1	PARSLEY	1016	n/a	0	n/a	n/a	n/a	n/a	n/a
471.184	n/a	REC_WORD	235592	wordpools/wasnorm_wordpool_less_exclusions.txt	LTP189	ltpFR	16	2	1	PIGEON	1065	n/a	1	n/a	n/a	n/a	n/a	n/a
471.784	n/a	REC_WORD	235892	wordpools/wasnorm_wordpool_less_exclusions.txt	LTP189	ltpFR	16	2	0	CATHEDRAL	260	n/a	1	n/a	n/a	n/a	n/a	n/a
473.334	n/a	REC_WORD	236667	wordpools/wasnorm_wordpool_less_exclusions.txt	LTP189	ltpFR	16	2	0	PEDESTRIAN	1038	n/a	1	n/a	n/a	n/a	n/a	n/a
475.05	n/a	REC_WORD	237525	wordpools/wasnorm_wordpool_less_exclusions.txt	LTP189	ltpFR	16	2	1	DRIVEWAY	500	n/a	0	n/a	n/a	n/a	n/a	n/a
475.754	n/a	REC_WORD	237877	wordpools/wasnorm_wordpool_less_exclusions.txt	LTP189	ltpFR	16	2	0	CURB	426	n/a	0	n/a	n/a	n/a	n/a	n/a
476.622	n/a	REC_WORD	238311	wordpools/wasnorm_wordpool_less_exclusions.txt	LTP189	ltpFR	16	2	0	WALRUS	1585	n/a	1	n/a	n/a	n/a	n/a	n/a
479.242	n/a	REC_WORD	239621	wordpools/wasnorm_wordpool_less_exclusions.txt	LTP189	ltpFR	16	2	n/a	RAVEN	-1	n/a	n/a	n/a	n/a	n/a	n/a	n/a
480.174	n/a	REC_WORD	240087	wordpools/wasnorm_wordpool_less_exclusions.txt	LTP189	ltpFR	16	2	1	OLIVE	975	n/a	1	n/a	n/a	n/a	n/a	n/a
481.002	n/a	REC_WORD	240501	wordpools/wasnorm_wordpool_less_exclusions.txt	LTP189	ltpFR	16	2	0	CANVAS	234	n/a	1	n/a	n/a	n/a	n/a	n/a
481.74	n/a	REC_WORD	240870	wordpools/wasnorm_wordpool_less_exclusions.txt	LTP189	ltpFR	16	2	1	SANDPAPER	1231	n/a	0	n/a	n/a	n/a	n/a	n/a
483.058	n/a	REC_WORD	241529	wordpools/wasnorm_wordpool_less_exclusions.txt	LTP189	ltpFR	16	2	1	SISTER	1312	n/a	0	n/a	n/a	n/a	n/a	n/a
483.816	n/a	REC_WORD	241908	wordpools/wasnorm_wordpool_less_exclusions.txt	LTP189	ltpFR	16	2	1	HARE	688	n/a	0	n/a	n/a	n/a	n/a	n/a
484.854	n/a	REC_WORD	242427	wordpools/wasnorm_wordpool_less_exclusions.txt	LTP189	ltpFR	16	2	1	SAW	1239	n/a	0	n/a	n/a	n/a	n/a	n/a
570.826	n/a	WORD	285413	wordpools/wasnorm_wordpool_less_exclusions.txt	LTP189	ltpFR	16	3	1	SCAPEGOAT	1244	n/a	1	0	0.5869140625	0.422607421875	upper	../fonts/amplitud.ttf
574.67	n/a	WORD	287335	wordpools/wasnorm_wordpool_less_exclusions.txt	LTP189	ltpFR	16	3	1	TRAITOR	1495	n/a	1	0	0.5869140625	0.422607421875	upper	../fonts/amplitud.ttf
578.566	n/a	WORD	289283	wordpools/wasnorm_wordpool_less_exclusions.txt	LTP189	ltpFR	16	3	1	GRAPE	654	n/a	1	0	0.5869140625	0.422607421875	upper	../fonts/amplitud.ttf
582.476	n/a	WORD	291238	wordpools/wasnorm_wordpool_less_exclusions.txt	LTP189	ltpFR	16	3	1	CONTINENT	367	n/a	0	0	0.5869140625	0.422607421875	upper	../fonts/amplitud.ttf
586.57	n/a	WORD	293285	wordpools/wasnorm_wordpool_less_exclusions.txt	LTP189	ltpFR	16	3	1	BALLERINA	74	n/a	1	0	0.5869140625	0.422607421875	upper	../fonts/amplitud.ttf
590.448	n/a	WORD	295224	wordpools/wasnorm_wordpool_less_exclusions.txt	LTP189	ltpFR	16	3	0	EAR	513	n/a	0	1	0.412841796875	0.57763671875	lower	../fonts/zerothre.ttf
594.658	n/a	WORD	297329	wordpools/wasnorm_wordpool_less_exclusions.txt	LTP189	ltpFR	16	3	0	DEPARTMENT	449	n/a	1	1	0.412841796875	0.57763671875	lower	../fonts/zerothre.ttf
598.636	n/a	WORD	299318	wordpools/wasnorm_wordpool_less_exclusions.txt	LTP189	ltpFR	16	3	0	CYLINDER	432	n/a	0	1	0.412841796875	0.57763671875	lower	../fonts/zerothre.ttf
602.612	n/a	WORD	301306	wordpools/wasnorm_wordpool_less_exclusions.txt	LTP189	ltpFR	16	3	0	PASSENGER	1020	n/a	1	1	0.412841796875	0.57763671875	lower	../fonts/zerothre.ttf
606.574	n/a	WORD	303287	wordpools/wasnorm_wordpool_less_exclusions.txt	LTP189	ltpFR	16	3	0	EARRING	514	n/a	0	1	0.412841796875	0.57763671875	lower	../fonts/zerothre.ttf
610.784	n/a	WORD	305392	wordpools/wasnorm_wordpool_less_exclusions.txt	LTP189	ltpFR	16	3	1	CONDUCTOR	362	n/a	1	0	0.5869140625	0.422607421875	upper	../fonts/amplitud.ttf
614.944	n/a	WORD	307472	wordpools/wasnorm_wordpool_less_exclusions.txt	LTP189	ltpFR	16	3	1	CITY	314	n/a	1	0	0.5869140625	0.422607421875	upper	../fonts/amplitud.ttf
618.938	n/a	WORD	309469	wordpools/wasnorm_wordpool_less_exclusions.txt	LTP189	ltpFR	16	3	1	BATTERY	101	n/a	0	0	0.5869140625	0.422607421875	upper	../fonts/amplitud.ttf
623.032	n/a	WORD	311516	wordpools/wasnorm_wordpool_less_exclusions.txt	LTP189	ltpFR	16	3	0	CAB	209	n/a	1	1	0.412841796875	0.57763671875	lower	../fonts/zerothre.ttf
627.076	n/a	WORD	313538	wordpools/wasnorm_wordpool_less_exclusions.txt	LTP189	ltpFR	16	3	0	SAXOPHONE	1240	n/a	0	1	0.412841796875	0.57763671875	lower	../fonts/zerothre.ttf
631.038	n/a	WORD	315519	wordpools/wasnorm_wordpool_less_exclusions.txt	LTP189	ltpFR	16	3	0	COBBLER	335	n/a	1	1	0.412841796875	0.57763671875	lower	../fonts/zerothre.ttf
637.046	n/a	REC_START	318523	n/a	LTP189	ltpFR	16	3	n/a	n/a	n/a	n/a	n/a	n/a	n/a	n/a	n/a	n/a
638.274	n/a	REC_WORD	319137	wordpools/wasnorm_wordpool_less_exclusions.txt	LTP189	ltpFR	16	3	0	COBBLER	335	n/a	1	n/a	n/a	n/a	n/a	n/a
638.992	n/a	REC_WORD	319496	wordpools/wasnorm_wordpool_less_exclusions.txt	LTP189	ltpFR	16	3	0	SAXOPHONE	1240	n/a	0	n/a	n/a	n/a	n/a	n/a
639.934	n/a	REC_WORD	319967	wordpools/wasnorm_wordpool_less_exclusions.txt	LTP189	ltpFR	16	3	0	CYLINDER	432	n/a	0	n/a	n/a	n/a	n/a	n/a
640.732	n/a	REC_WORD	320366	wordpools/wasnorm_wordpool_less_exclusions.txt	LTP189	ltpFR	16	3	0	EAR	513	n/a	0	n/a	n/a	n/a	n/a	n/a
641.152	n/a	REC_WORD	320576	wordpools/wasnorm_wordpool_less_exclusions.txt	LTP189	ltpFR	16	3	1	BALLERINA	74	n/a	1	n/a	n/a	n/a	n/a	n/a
641.75	n/a	REC_WORD	320875	wordpools/wasnorm_wordpool_less_exclusions.txt	LTP189	ltpFR	16	3	0	DEPARTMENT	449	n/a	1	n/a	n/a	n/a	n/a	n/a
642.784	n/a	REC_WORD	321392	wordpools/wasnorm_wordpool_less_exclusions.txt	LTP189	ltpFR	16	3	1	CONDUCTOR	362	n/a	1	n/a	n/a	n/a	n/a	n/a
643.402	n/a	REC_WORD	321701	wordpools/wasnorm_wordpool_less_exclusions.txt	LTP189	ltpFR	16	3	0	PASSENGER	1020	n/a	1	n/a	n/a	n/a	n/a	n/a
644.126	n/a	REC_WORD	322063	wordpools/wasnorm_wordpool_less_exclusions.txt	LTP189	ltpFR	16	3	0	EARRING	514	n/a	0	n/a	n/a	n/a	n/a	n/a
650.79	n/a	REC_WORD	325395	wordpools/wasnorm_wordpool_less_exclusions.txt	LTP189	ltpFR	16	3	1	CONTINENT	367	n/a	0	n/a	n/a	n/a	n/a	n/a
651.922	n/a	REC_WORD	325961	wordpools/wasnorm_wordpool_less_exclusions.txt	LTP189	ltpFR	16	3	1	TRAITOR	1495	n/a	1	n/a	n/a	n/a	n/a	n/a
652.796	n/a	REC_WORD	326398	wordpools/wasnorm_wordpool_less_exclusions.txt	LTP189	ltpFR	16	3	1	SCAPEGOAT	1244	n/a	1	n/a	n/a	n/a	n/a	n/a
791.484	n/a	WORD	395742	wordpools/wasnorm_wordpool_less_exclusions.txt	LTP189	ltpFR	16	4	-1	UMPIRE	1535	n/a	-1	1	1.0	1.0	upper	../fonts/Verdana.ttf
795.578	n/a	WORD	397789	wordpools/wasnorm_wordpool_less_exclusions.txt	LTP189	ltpFR	16	4	-1	STRAW	1390	n/a	-1	1	1.0	1.0	upper	../fonts/Verdana.ttf
799.722	n/a	WORD	399861	wordpools/wasnorm_wordpool_less_exclusions.txt	LTP189	ltpFR	16	4	-1	PUPPY	1144	n/a	-1	1	1.0	1.0	upper	../fonts/Verdana.ttf
803.616	n/a	WORD	401808	wordpools/wasnorm_wordpool_less_exclusions.txt	LTP189	ltpFR	16	4	-1	ARENA	37	n/a	-1	1	1.0	1.0	upper	../fonts/Verdana.ttf
807.676	n/a	WORD	403838	wordpools/wasnorm_wordpool_less_exclusions.txt	LTP189	ltpFR	16	4	-1	GOLD	647	n/a	-1	1	1.0	1.0	upper	../fonts/Verdana.ttf
811.738	n/a	WORD	405869	wordpools/wasnorm_wordpool_less_exclusions.txt	LTP189	ltpFR	16	4	-1	WHIP	1604	n/a	-1	1	1.0	1.0	upper	../fonts/Verdana.ttf
815.848	n/a	WORD	407924	wordpools/wasnorm_wordpool_less_exclusions.txt	LTP189	ltpFR	16	4	-1	JEWEL	757	n/a	-1	1	1.0	1.0	upper	../fonts/Verdana.ttf
819.924	n/a	WORD	409962	wordpools/wasnorm_wordpool_less_exclusions.txt	LTP189	ltpFR	16	4	-1	DOORBELL	487	n/a	-1	1	1.0	1.0	upper	../fonts/Verdana.ttf
824.002	n/a	WORD	412001	wordpools/wasnorm_wordpool_less_exclusions.txt	LTP189	ltpFR	16	4	-1	TORNADO	1485	n/a	-1	1	1.0	1.0	upper	../fonts/Verdana.ttf
828.162	n/a	WORD	414081	wordpools/wasnorm_wordpool_less_exclusions.txt	LTP189	ltpFR	16	4	-1	AUDIENCE	59	n/a	-1	1	1.0	1.0	upper	../fonts/Verdana.ttf
832.222	n/a	WORD	416111	wordpools/wasnorm_wordpool_less_exclusions.txt	LTP189	ltpFR	16	4	-1	PILOT	1070	n/a	-1	1	1.0	1.0	upper	../fonts/Verdana.ttf
836.184	n/a	WORD	418092	wordpools/wasnorm_wordpool_less_exclusions.txt	LTP189	ltpFR	16	4	-1	SWATTER	1418	n/a	-1	1	1.0	1.0	upper	../fonts/Verdana.ttf
840.228	n/a	WORD	420114	wordpools/wasnorm_wordpool_less_exclusions.txt	LTP189	ltpFR	16	4	-1	TWISTER	1530	n/a	-1	1	1.0	1.0	upper	../fonts/Verdana.ttf
844.256	n/a	WORD	422128	wordpools/wasnorm_wordpool_less_exclusions.txt	LTP189	ltpFR	16	4	-1	PADDING	999	n/a	-1	1	1.0	1.0	upper	../fonts/Verdana.ttf
848.266	n/a	WORD	424133	wordpools/wasnorm_wordpool_less_exclusions.txt	LTP189	ltpFR	16	4	-1	CHESS	294	n/a	-1	1	1.0	1.0	upper	../fonts/Verdana.ttf
852.178	n/a	WORD	426089	wordpools/wasnorm_wordpool_less_exclusions.txt	LTP189	ltpFR	16	4	-1	ORCHESTRA	981	n/a	-1	1	1.0	1.0	upper	../fonts/Verdana.ttf
858.036	n/a	REC_START	429018	n/a	LTP189	ltpFR	16	4	n/a	n/a	n/a	n/a	n/a	n/a	n/a	n/a	n/a	n/a
858.544	n/a	REC_WORD	429272	wordpools/wasnorm_wordpool_less_exclusions.txt	LTP189	ltpFR	16	4	-1	ORCHESTRA	981	n/a	-1	n/a	n/a	n/a	n/a	n/a
859.182	n/a	REC_WORD	429591	wordpools/wasnorm_wordpool_less_exclusions.txt	LTP189	ltpFR	16	4	-1	TWISTER	1530	n/a	-1	n/a	n/a	n/a	n/a	n/a
859.662	n/a	REC_WORD	429831	wordpools/wasnorm_wordpool_less_exclusions.txt	LTP189	ltpFR	16	4	-1	TORNADO	1485	n/a	-1	n/a	n/a	n/a	n/a	n/a
860.286	n/a	REC_WORD	430143	wordpools/wasnorm_wordpool_less_exclusions.txt	LTP189	ltpFR	16	4	-1	PILOT	1070	n/a	-1	n/a	n/a	n/a	n/a	n/a
862.37	n/a	REC_WORD	431185	wordpools/wasnorm_wordpool_less_exclusions.txt	LTP189	ltpFR	16	4	-1	SWATTER	1418	n/a	-1	n/a	n/a	n/a	n/a	n/a
863.868	n/a	REC_WORD	431934	wordpools/wasnorm_wordpool_less_exclusions.txt	LTP189	ltpFR	16	4	-1	AUDIENCE	59	n/a	-1	n/a	n/a	n/a	n/a	n/a
865.06	n/a	REC_WORD	432530	wordpools/wasnorm_wordpool_less_exclusions.txt	LTP189	ltpFR	16	4	-1	GOLD	647	n/a	-1	n/a	n/a	n/a	n/a	n/a
865.768	n/a	REC_WORD	432884	wordpools/wasnorm_wordpool_less_exclusions.txt	LTP189	ltpFR	16	4	-1	JEWEL	757	n/a	-1	n/a	n/a	n/a	n/a	n/a
868.188	n/a	REC_WORD	434094	wordpools/wasnorm_wordpool_less_exclusions.txt	LTP189	ltpFR	16	4	-1	DOORBELL	487	n/a	-1	n/a	n/a	n/a	n/a	n/a
869.974	n/a	REC_WORD	434987	wordpools/wasnorm_wordpool_less_exclusions.txt	LTP189	ltpFR	16	4	-1	CHESS	294	n/a	-1	n/a	n/a	n/a	n/a	n/a
872.158	n/a	REC_WORD	436079	wordpools/wasnorm_wordpool_less_exclusions.txt	LTP189	ltpFR	16	4	-1	UMPIRE	1535	n/a	-1	n/a	n/a	n/a	n/a	n/a
873.436	n/a	REC_WORD	436718	wordpools/wasnorm_wordpool_less_exclusions.txt	LTP189	ltpFR	16	4	-1	PADDING	999	n/a	-1	n/a	n/a	n/a	n/a	n/a
874.198	n/a	REC_WORD	437099	wordpools/wasnorm_wordpool_less_exclusions.txt	LTP189	ltpFR	16	4	-1	STRAW	1390	n/a	-1	n/a	n/a	n/a	n/a	n/a
875.246	n/a	REC_WORD	437623	wordpools/wasnorm_wordpool_less_exclusions.txt	LTP189	ltpFR	16	4	-1	WHIP	1604	n/a	-1	n/a	n/a	n/a	n/a	n/a
879.572	n/a	REC_WORD	439786	wordpools/wasnorm_wordpool_less_exclusions.txt	LTP189	ltpFR	16	4	-1	PUPPY	1144	n/a	-1	n/a	n/a	n/a	n/a	n/a
957.138	n/a	WORD	478569	wordpools/wasnorm_wordpool_less_exclusions.txt	LTP189	ltpFR	16	5	1	VISITOR	1573	n/a	3	0	0.5869140625	0.422607421875	upper	../fonts/amplitud.ttf
958.754	n/a	KEY_MSG	479377	n/a	LTP189	ltpFR	16	5	n/a	n/a	n/a	n/a	n/a	n/a	n/a	n/a	n/a	n/a
961.432	n/a	WORD	480716	wordpools/wasnorm_wordpool_less_exclusions.txt	LTP189	ltpFR	16	5	1	GROCERIES	663	n/a	0	0	0.5869140625	0.422607421875	upper	../fonts/amplitud.ttf
965.576	n/a	WORD	482788	wordpools/wasnorm_wordpool_less_exclusions.txt	LTP189	ltpFR	16	5	1	STORE	1387	n/a	0	0	0.5869140625	0.422607421875	upper	../fonts/amplitud.ttf
969.502	n/a	WORD	484751	wordpools/wasnorm_wordpool_less_exclusions.txt	LTP189	ltpFR	16	5	1	ABDOMEN	1	n/a	1	0	0.5869140625	0.422607421875	upper	../fonts/amplitud.ttf
973.364	n/a	WORD	486682	wordpools/wasnorm_wordpool_less_exclusions.txt	LTP189	ltpFR	16	5	1	TOOTH	1481	n/a	0	0	0.5869140625	0.422607421875	upper	../fonts/amplitud.ttf
977.308	n/a	WORD	488654	wordpools/wasnorm_wordpool_less_exclusions.txt	LTP189	ltpFR	16	5	1	LENS	811	n/a	0	0	0.5869140625	0.422607421875	upper	../fonts/amplitud.ttf
981.352	n/a	WORD	490676	wordpools/wasnorm_wordpool_less_exclusions.txt	LTP189	ltpFR	16	5	1	SIBLING	1301	n/a	1	0	0.5869140625	0.422607421875	upper	../fonts/amplitud.ttf
985.248	n/a	WORD	492624	wordpools/wasnorm_wordpool_less_exclusions.txt	LTP189	ltpFR	16	5	1	TORTOISE	1486	n/a	1	0	0.5869140625	0.422607421875	upper	../fonts/amplitud.ttf
989.242	n/a	WORD	494621	wordpools/wasnorm_wordpool_less_exclusions.txt	LTP189	ltpFR	16	5	1	BROOK	177	n/a	0	0	0.5869140625	0.422607421875	upper	../fonts/amplitud.ttf
993.152	n/a	WORD	496576	wordpools/wasnorm_wordpool_less_exclusions.txt	LTP189	ltpFR	16	5	1	FLIPPER	580	n/a	0	0	0.5869140625	0.422607421875	upper	../fonts/amplitud.ttf
997.296	n/a	WORD	498648	wordpools/wasnorm_wordpool_less_exclusions.txt	LTP189	ltpFR	16	5	1	COYOTE	396	n/a	1	0	0.5869140625	0.422607421875	upper	../fonts/amplitud.ttf
1001.14	n/a	WORD	500570	wordpools/wasnorm_wordpool_less_exclusions.txt	LTP189	ltpFR	16	5	1	GLASSES	640	n/a	0	0	0.5869140625	0.422607421875	upper	../fonts/amplitud.ttf
1005.068	n/a	WORD	502534	wordpools/wasnorm_wordpool_less_exclusions.txt	LTP189	ltpFR	16	5	1	YACHT	1629	n/a	0	0	0.5869140625	0.422607421875	upper	../fonts/amplitud.ttf
1009.144	n/a	WORD	504572	wordpools/wasnorm_wordpool_less_exclusions.txt	LTP189	ltpFR	16	5	1	PIER	1063	n/a	0	0	0.5869140625	0.422607421875	upper	../fonts/amplitud.ttf
1013.238	n/a	WORD	506619	wordpools/wasnorm_wordpool_less_exclusions.txt	LTP189	ltpFR	16	5	1	BASSINET	97	n/a	1	0	0.5869140625	0.422607421875	upper	../fonts/amplitud.ttf
1017.382	n/a	WORD	508691	wordpools/wasnorm_wordpool_less_exclusions.txt	LTP189	ltpFR	16	5	1	GOO	648	n/a	0	0	0.5869140625	0.422607421875	upper	../fonts/amplitud.ttf
1023.474	n/a	REC_START	511737	n/a	LTP189	ltpFR	16	5	n/a	n/a	n/a	n/a	n/a	n/a	n/a	n/a	n/a	n/a
1024.55	n/a	REC_WORD	512275	wordpools/wasnorm_wordpool_less_exclusions.txt	LTP189	ltpFR	16	5	1	BASSINET	97	n/a	1	n/a	n/a	n/a	n/a	n/a
1026.316	n/a	REC_WORD	513158	wordpools/wasnorm_wordpool_less_exclusions.txt	LTP189	ltpFR	16	5	1	GOO	648	n/a	0	n/a	n/a	n/a	n/a	n/a
1027.31	n/a	REC_WORD	513655	wordpools/wasnorm_wordpool_less_exclusions.txt	LTP189	ltpFR	16	5	1	YACHT	1629	n/a	0	n/a	n/a	n/a	n/a	n/a
1028.208	n/a	REC_WORD	514104	wordpools/wasnorm_wordpool_less_exclusions.txt	LTP189	ltpFR	16	5	1	PIER	1063	n/a	0	n/a	n/a	n/a	n/a	n/a
1029.73	n/a	REC_WORD	514865	wordpools/wasnorm_wordpool_less_exclusions.txt	LTP189	ltpFR	16	5	1	GLASSES	640	n/a	0	n/a	n/a	n/a	n/a	n/a
1030.502	n/a	REC_WORD	515251	wordpools/wasnorm_wordpool_less_exclusions.txt	LTP189	ltpFR	16	5	1	LENS	811	n/a	0	n/a	n/a	n/a	n/a	n/a
1031.17	n/a	REC_WORD	515585	wordpools/wasnorm_wordpool_less_exclusions.txt	LTP189	ltpFR	16	5	1	VISITOR	1573	n/a	3	n/a	n/a	n/a	n/a	n/a
1031.864	n/a	REC_WORD	515932	wordpools/wasnorm_wordpool_less_exclusions.txt	LTP189	ltpFR	16	5	1	GROCERIES	663	n/a	0	n/a	n/a	n/a	n/a	n/a
1032.538	n/a	REC_WORD	516269	wordpools/wasnorm_wordpool_less_exclusions.txt	LTP189	ltpFR	16	5	1	STORE	1387	n/a	0	n/a	n/a	n/a	n/a	n/a
1034.384	n/a	REC_WORD	517192	wordpools/wasnorm_wordpool_less_exclusions.txt	LTP189	ltpFR	16	5	1	SIBLING	1301	n/a	1	n/a	n/a	n/a	n/a	n/a
1036.244	n/a	REC_WORD	518122	wordpools/wasnorm_wordpool_less_exclusions.txt	LTP189	ltpFR	16	5	1	TORTOISE	1486	n/a	1	n/a	n/a	n/a	n/a	n/a
1038.598	n/a	REC_WORD	519299	wordpools/wasnorm_wordpool_less_exclusions.txt	LTP189	ltpFR	16	5	1	BROOK	177	n/a	0	n/a	n/a	n/a	n/a	n/a
1040.784	n/a	REC_WORD	520392	wordpools/wasnorm_wordpool_less_exclusions.txt	LTP189	ltpFR	16	5	1	COYOTE	396	n/a	1	n/a	n/a	n/a	n/a	n/a
1055.836	n/a	REC_WORD_VV	527918	wordpools/wasnorm_wordpool_less_exclusions.txt	LTP189	ltpFR	16	5	n/a	<>	-1	n/a	n/a	n/a	n/a	n/a	n/a	n/a
1135.708	n/a	WORD	567854	wordpools/wasnorm_wordpool_less_exclusions.txt	LTP189	ltpFR	16	6	1	NAIL	936	n/a	0	0	0.5869140625	0.422607421875	upper	../fonts/amplitud.ttf
1139.818	n/a	WORD	569909	wordpools/wasnorm_wordpool_less_exclusions.txt	LTP189	ltpFR	16	6	1	CHIP	303	n/a	0	0	0.5869140625	0.422607421875	upper	../fonts/amplitud.ttf
1143.696	n/a	WORD	571848	wordpools/wasnorm_wordpool_less_exclusions.txt	LTP189	ltpFR	16	6	0	POT	1114	n/a	0	1	0.412841796875	0.57763671875	lower	../fonts/zerothre.ttf
1147.708	n/a	WORD	573854	wordpools/wasnorm_wordpool_less_exclusions.txt	LTP189	ltpFR	16	6	0	CHEF	290	n/a	n/a	1	0.412841796875	0.57763671875	lower	../fonts/zerothre.ttf
1150.736	n/a	SLOW_MSG	575368	n/a	LTP189	ltpFR	16	6	n/a	n/a	n/a	n/a	n/a	n/a	n/a	n/a	n/a	n/a
1153.282	n/a	WORD	576641	wordpools/wasnorm_wordpool_less_exclusions.txt	LTP189	ltpFR	16	6	0	APPLICATION	34	n/a	0	1	0.412841796875	0.57763671875	lower	../fonts/zerothre.ttf
1157.508	n/a	WORD	578754	wordpools/wasnorm_wordpool_less_exclusions.txt	LTP189	ltpFR	16	6	0	ELEPHANT	523	n/a	1	1	0.412841796875	0.57763671875	lower	../fonts/zerothre.ttf
1161.486	n/a	WORD	580743	wordpools/wasnorm_wordpool_less_exclusions.txt	LTP189	ltpFR	16	6	1	PAIL	1002	n/a	0	0	0.5869140625	0.422607421875	upper	../fonts/amplitud.ttf
1165.33	n/a	WORD	582665	wordpools/wasnorm_wordpool_less_exclusions.txt	LTP189	ltpFR	16	6	1	DEER	444	n/a	1	0	0.5869140625	0.422607421875	upper	../fonts/amplitud.ttf
1169.508	n/a	WORD	584754	wordpools/wasnorm_wordpool_less_exclusions.txt	LTP189	ltpFR	16	6	1	ELK	526	n/a	1	0	0.5869140625	0.422607421875	upper	../fonts/amplitud.ttf
1173.418	n/a	WORD	586709	wordpools/wasnorm_wordpool_less_exclusions.txt	LTP189	ltpFR	16	6	1	DIAL	457	n/a	0	0	0.5869140625	0.422607421875	upper	../fonts/amplitud.ttf
1177.612	n/a	WORD	588806	wordpools/wasnorm_wordpool_less_exclusions.txt	LTP189	ltpFR	16	6	0	MEAL	882	n/a	0	1	0.412841796875	0.57763671875	lower	../fonts/zerothre.ttf
1181.506	n/a	WORD	590753	wordpools/wasnorm_wordpool_less_exclusions.txt	LTP189	ltpFR	16	6	0	SKIRT	1319	n/a	0	1	0.412841796875	0.57763671875	lower	../fonts/zerothre.ttf
1185.666	n/a	WORD	592833	wordpools/wasnorm_wordpool_less_exclusions.txt	LTP189	ltpFR	16	6	0	TANK	1432	n/a	1	1	0.412841796875	0.57763671875	lower	../fonts/zerothre.ttf
1189.828	n/a	WORD	594914	wordpools/wasnorm_wordpool_less_exclusions.txt	LTP189	ltpFR	16	6	0	FISH	571	n/a	0	1	0.412841796875	0.57763671875	lower	../fonts/zerothre.ttf
1193.838	n/a	WORD	596919	wordpools/wasnorm_wordpool_less_exclusions.txt	LTP189	ltpFR	16	6	1	DECK	443	n/a	0	0	0.5869140625	0.422607421875	upper	../fonts/amplitud.ttf
1197.85	n/a	WORD	598925	wordpools/wasnorm_wordpool_less_exclusions.txt	LTP189	ltpFR	16	6	1	ROBE	1198	n/a	0	0	0.5869140625	0.422607421875	upper	../fonts/amplitud.ttf
1203.808	n/a	REC_START	601904	n/a	LTP189	ltpFR	16	6	n/a	n/a	n/a	n/a	n/a	n/a	n/a	n/a	n/a	n/a
1204.72	n/a	REC_WORD	602360	wordpools/wasnorm_wordpool_less_exclusions.txt	LTP189	ltpFR	16	6	1	ROBE	1198	n/a	0	n/a	n/a	n/a	n/a	n/a
1205.762	n/a	REC_WORD	602881	wordpools/wasnorm_wordpool_less_exclusions.txt	LTP189	ltpFR	16	6	1	DECK	443	n/a	0	n/a	n/a	n/a	n/a	n/a
1206.546	n/a	REC_WORD	603273	wordpools/wasnorm_wordpool_less_exclusions.txt	LTP189	ltpFR	16	6	0	TANK	1432	n/a	1	n/a	n/a	n/a	n/a	n/a
1207.478	n/a	REC_WORD	603739	wordpools/wasnorm_wordpool_less_exclusions.txt	LTP189	ltpFR	16	6	0	FISH	571	n/a	0	n/a	n/a	n/a	n/a	n/a
1209.874	n/a	REC_WORD	604937	wordpools/wasnorm_wordpool_less_exclusions.txt	LTP189	ltpFR	16	6	0	CHEF	290	n/a	n/a	n/a	n/a	n/a	n/a	n/a
1214.068	n/a	REC_WORD	607034	wordpools/wasnorm_wordpool_less_exclusions.txt	LTP189	ltpFR	16	6	1	PAIL	1002	n/a	0	n/a	n/a	n/a	n/a	n/a
1214.996	n/a	REC_WORD	607498	wordpools/wasnorm_wordpool_less_exclusions.txt	LTP189	ltpFR	16	6	0	POT	1114	n/a	0	n/a	n/a	n/a	n/a	n/a
1216.204	n/a	REC_WORD	608102	wordpools/wasnorm_wordpool_less_exclusions.txt	LTP189	ltpFR	16	6	1	NAIL	936	n/a	0	n/a	n/a	n/a	n/a	n/a
1220.1	n/a	REC_WORD	610050	wordpools/wasnorm_wordpool_less_exclusions.txt	LTP189	ltpFR	16	6	1	CHIP	303	n/a	0	n/a	n/a	n/a	n/a	n/a
1223.164	n/a	REC_WORD	611582	wordpools/wasnorm_wordpool_less_exclusions.txt	LTP189	ltpFR	16	6	1	ELK	526	n/a	1	n/a	n/a	n/a	n/a	n/a
1223.986	n/a	REC_WORD	611993	wordpools/wasnorm_wordpool_less_exclusions.txt	LTP189	ltpFR	16	6	1	DEER	444	n/a	1	n/a	n/a	n/a	n/a	n/a
1226.64	n/a	REC_WORD	613320	wordpools/wasnorm_wordpool_less_exclusions.txt	LTP189	ltpFR	16	6	0	ELEPHANT	523	n/a	1	n/a	n/a	n/a	n/a	n/a
1227.628	n/a	REC_WORD	613814	wordpools/wasnorm_wordpool_less_exclusions.txt	LTP189	ltpFR	16	6	0	APPLICATION	34	n/a	0	n/a	n/a	n/a	n/a	n/a
1230.606	n/a	REC_WORD	615303	wordpools/wasnorm_wordpool_less_exclusions.txt	LTP189	ltpFR	16	6	0	SKIRT	1319	n/a	0	n/a	n/a	n/a	n/a	n/a
1315.158	n/a	WORD	657579	wordpools/wasnorm_wordpool_less_exclusions.txt	LTP189	ltpFR	16	7	1	HOUND	724	n/a	0	0	0.5869140625	0.422607421875	upper	../fonts/amplitud.ttf
1319.252	n/a	WORD	659626	wordpools/wasnorm_wordpool_less_exclusions.txt	LTP189	ltpFR	16	7	1	TAIL	1430	n/a	0	0	0.5869140625	0.422607421875	upper	../fonts/amplitud.ttf
1323.162	n/a	WORD	661581	wordpools/wasnorm_wordpool_less_exclusions.txt	LTP189	ltpFR	16	7	1	OX	994	n/a	1	0	0.5869140625	0.422607421875	upper	../fonts/amplitud.ttf
1327.14	n/a	WORD	663570	wordpools/wasnorm_wordpool_less_exclusions.txt	LTP189	ltpFR	16	7	1	VET	1560	n/a	1	0	0.5869140625	0.422607421875	upper	../fonts/amplitud.ttf
1331.168	n/a	WORD	665584	wordpools/wasnorm_wordpool_less_exclusions.txt	LTP189	ltpFR	16	7	1	BARN	89	n/a	0	0	0.5869140625	0.422607421875	upper	../fonts/amplitud.ttf
1335.396	n/a	WORD	667698	wordpools/wasnorm_wordpool_less_exclusions.txt	LTP189	ltpFR	16	7	1	BONE	148	n/a	0	0	0.5869140625	0.422607421875	upper	../fonts/amplitud.ttf
1339.472	n/a	WORD	669736	wordpools/wasnorm_wordpool_less_exclusions.txt	LTP189	ltpFR	16	7	1	CHIEF	298	n/a	1	0	0.5869140625	0.422607421875	upper	../fonts/amplitud.ttf
1343.35	n/a	WORD	671675	wordpools/wasnorm_wordpool_less_exclusions.txt	LTP189	ltpFR	16	7	1	MOOSE	915	n/a	1	0	0.5869140625	0.422607421875	upper	../fonts/amplitud.ttf
1347.312	n/a	WORD	673656	wordpools/wasnorm_wordpool_less_exclusions.txt	LTP189	ltpFR	16	7	1	COPIER	377	n/a	0	0	0.5869140625	0.422607421875	upper	../fonts/amplitud.ttf
1351.356	n/a	WORD	675678	wordpools/wasnorm_wordpool_less_exclusions.txt	LTP189	ltpFR	16	7	1	CANYON	235	n/a	0	0	0.5869140625	0.422607421875	upper	../fonts/amplitud.ttf
1355.366	n/a	WORD	677683	wordpools/wasnorm_wordpool_less_exclusions.txt	LTP189	ltpFR	16	7	1	LADDER	793	n/a	0	0	0.5869140625	0.422607421875	upper	../fonts/amplitud.ttf
1359.526	n/a	WORD	679763	wordpools/wasnorm_wordpool_less_exclusions.txt	LTP189	ltpFR	16	7	1	BARK	87	n/a	0	0	0.5869140625	0.422607421875	upper	../fonts/amplitud.ttf
1363.62	n/a	WORD	681810	wordpools/wasnorm_wordpool_less_exclusions.txt	LTP189	ltpFR	16	7	1	AUTOMOBILE	62	n/a	0	0	0.5869140625	0.422607421875	upper	../fonts/amplitud.ttf
1367.748	n/a	WORD	683874	wordpools/wasnorm_wordpool_less_exclusions.txt	LTP189	ltpFR	16	7	1	TABLET	1427	n/a	0	0	0.5869140625	0.422607421875	upper	../fonts/amplitud.ttf
1371.726	n/a	WORD	685863	wordpools/wasnorm_wordpool_less_exclusions.txt	LTP189	ltpFR	16	7	1	FLEA	577	n/a	1	0	0.5869140625	0.422607421875	upper	../fonts/amplitud.ttf
1375.786	n/a	WORD	687893	wordpools/wasnorm_wordpool_less_exclusions.txt	LTP189	ltpFR	16	7	1	UNICORN	1538	n/a	0	0	0.5869140625	0.422607421875	upper	../fonts/amplitud.ttf
1381.744	n/a	REC_START	690872	n/a	LTP189	ltpFR	16	7	n/a	n/a	n/a	n/a	n/a	n/a	n/a	n/a	n/a	n/a
1382.532	n/a	REC_WORD	691266	wordpools/wasnorm_wordpool_less_exclusions.txt	LTP189	ltpFR	16	7	1	UNICORN	1538	n/a	0	n/a	n/a	n/a	n/a	n/a
1383.064	n/a	REC_WORD	691532	wordpools/wasnorm_wordpool_less_exclusions.txt	LTP189	ltpFR	16	7	1	FLEA	577	n/a	1	n/a	n/a	n/a	n/a	n/a
1383.65	n/a	REC_WORD	691825	wordpools/wasnorm_wordpool_less_exclusions.txt	LTP189	ltpFR	16	7	1	TABLET	1427	n/a	0	n/a	n/a	n/a	n/a	n/a
1384.852	n/a	REC_WORD	692426	wordpools/wasnorm_wordpool_less_exclusions.txt	LTP189	ltpFR	16	7	1	AUTOMOBILE	62	n/a	0	n/a	n/a	n/a	n/a	n/a
1387.008	n/a	REC_WORD	693504	wordpools/wasnorm_wordpool_less_exclusions.txt	LTP189	ltpFR	16	7	1	CHIEF	298	n/a	1	n/a	n/a	n/a	n/a	n/a
1387.82	n/a	REC_WORD	693910	wordpools/wasnorm_wordpool_less_exclusions.txt	LTP189	ltpFR	16	7	1	MOOSE	915	n/a	1	n/a	n/a	n/a	n/a	n/a
1388.548	n/a	REC_WORD	694274	wordpools/wasnorm_wordpool_less_exclusions.txt	LTP189	ltpFR	16	7	1	LADDER	793	n/a	0	n/a	n/a	n/a	n/a	n/a
1389.342	n/a	REC_WORD	694671	wordpools/wasnorm_wordpool_less_exclusions.txt	LTP189	ltpFR	16	7	1	BARN	89	n/a	0	n/a	n/a	n/a	n/a	n/a
1390.04	n/a	REC_WORD	695020	wordpools/wasnorm_wordpool_less_exclusions.txt	LTP189	ltpFR	16	7	1	CANYON	235	n/a	0	n/a	n/a	n/a	n/a	n/a
1390.708	n/a	REC_WORD	695354	wordpools/wasnorm_wordpool_less_exclusions.txt	LTP189	ltpFR	16	7	1	VET	1560	n/a	1	n/a	n/a	n/a	n/a	n/a
1391.602	n/a	REC_WORD	695801	wordpools/wasnorm_wordpool_less_exclusions.txt	LTP189	ltpFR	16	7	1	OX	994	n/a	1	n/a	n/a	n/a	n/a	n/a
1392.33	n/a	REC_WORD	696165	wordpools/wasnorm_wordpool_less_exclusions.txt	LTP189	ltpFR	16	7	1	TAIL	1430	n/a	0	n/a	n/a	n/a	n/a	n/a
1393.208	n/a	REC_WORD	696604	wordpools/wasnorm_wordpool_less_exclusions.txt	LTP189	ltpFR	16	7	1	HOUND	724	n/a	0	n/a	n/a	n/a	n/a	n/a
1394.26	n/a	REC_WORD	697130	wordpools/wasnorm_wordpool_less_exclusions.txt	LTP189	ltpFR	16	7	1	BONE	148	n/a	0	n/a	n/a	n/a	n/a	n/a
1397.678	n/a	REC_WORD	698839	wordpools/wasnorm_wordpool_less_exclusions.txt	LTP189	ltpFR	16	7	1	BARK	87	n/a	0	n/a	n/a	n/a	n/a	n/a
1402.248	n/a	REC_WORD	701124	wordpools/wasnorm_wordpool_less_exclusions.txt	LTP189	ltpFR	16	7	n/a	HOWL	-1	n/a	n/a	n/a	n/a	n/a	n/a	n/a
1467.566	n/a	WORD	733783	wordpools/wasnorm_wordpool_less_exclusions.txt	LTP189	ltpFR	16	8	-1	BEVERAGE	123	n/a	-1	1	1.0	1.0	upper	../fonts/Verdana.ttf
1471.444	n/a	WORD	735722	wordpools/wasnorm_wordpool_less_exclusions.txt	LTP189	ltpFR	16	8	-1	PUDDLE	1140	n/a	-1	1	1.0	1.0	upper	../fonts/Verdana.ttf
1475.472	n/a	WORD	737736	wordpools/wasnorm_wordpool_less_exclusions.txt	LTP189	ltpFR	16	8	-1	CABBAGE	210	n/a	-1	1	1.0	1.0	upper	../fonts/Verdana.ttf
1479.666	n/a	WORD	739833	wordpools/wasnorm_wordpool_less_exclusions.txt	LTP189	ltpFR	16	8	-1	BEAN	105	n/a	-1	1	1.0	1.0	upper	../fonts/Verdana.ttf
1483.744	n/a	WORD	741872	wordpools/wasnorm_wordpool_less_exclusions.txt	LTP189	ltpFR	16	8	-1	MUG	930	n/a	-1	1	1.0	1.0	upper	../fonts/Verdana.ttf
1487.636	n/a	WORD	743818	wordpools/wasnorm_wordpool_less_exclusions.txt	LTP189	ltpFR	16	8	-1	BROOM	178	n/a	-1	1	1.0	1.0	upper	../fonts/Verdana.ttf
1491.632	n/a	WORD	745816	wordpools/wasnorm_wordpool_less_exclusions.txt	LTP189	ltpFR	16	8	-1	COCKTAIL	338	n/a	-1	1	1.0	1.0	upper	../fonts/Verdana.ttf
1495.642	n/a	WORD	747821	wordpools/wasnorm_wordpool_less_exclusions.txt	LTP189	ltpFR	16	8	-1	DEPUTY	450	n/a	-1	1	1.0	1.0	upper	../fonts/Verdana.ttf
1499.67	n/a	WORD	749835	wordpools/wasnorm_wordpool_less_exclusions.txt	LTP189	ltpFR	16	8	-1	FLOOR	581	n/a	-1	1	1.0	1.0	upper	../fonts/Verdana.ttf
1503.78	n/a	WORD	751890	wordpools/wasnorm_wordpool_less_exclusions.txt	LTP189	ltpFR	16	8	-1	DINNER	468	n/a	-1	1	1.0	1.0	upper	../fonts/Verdana.ttf
1507.742	n/a	WORD	753871	wordpools/wasnorm_wordpool_less_exclusions.txt	LTP189	ltpFR	16	8	-1	GLASS	639	n/a	-1	1	1.0	1.0	upper	../fonts/Verdana.ttf
1511.786	n/a	WORD	755893	wordpools/wasnorm_wordpool_less_exclusions.txt	LTP189	ltpFR	16	8	-1	LIMOUSINE	824	n/a	-1	1	1.0	1.0	upper	../fonts/Verdana.ttf
1515.828	n/a	WORD	757914	wordpools/wasnorm_wordpool_less_exclusions.txt	LTP189	ltpFR	16	8	-1	IDOL	733	n/a	-1	1	1.0	1.0	upper	../fonts/Verdana.ttf
1519.656	n/a	WORD	759828	wordpools/wasnorm_wordpool_less_exclusions.txt	LTP189	ltpFR	16	8	-1	SURF	1412	n/a	-1	1	1.0	1.0	upper	../fonts/Verdana.ttf
1523.566	n/a	WORD	761783	wordpools/wasnorm_wordpool_less_exclusions.txt	LTP189	ltpFR	16	8	-1	SWIMMER	1420	n/a	-1	1	1.0	1.0	upper	../fonts/Verdana.ttf
1527.528	n/a	WORD	763764	wordpools/wasnorm_wordpool_less_exclusions.txt	LTP189	ltpFR	16	8	-1	CANAL	226	n/a	-1	1	1.0	1.0	upper	../fonts/Verdana.ttf
1533.336	n/a	REC_START	766668	n/a	LTP189	ltpFR	16	8	n/a	n/a	n/a	n/a	n/a	n/a	n/a	n/a	n/a	n/a
1533.886	n/a	REC_WORD	766943	wordpools/wasnorm_wordpool_less_exclusions.txt	LTP189	ltpFR	16	8	-1	SWIMMER	1420	n/a	-1	n/a	n/a	n/a	n/a	n/a
1534.32	n/a	REC_WORD	767160	wordpools/wasnorm_wordpool_less_exclusions.txt	LTP189	ltpFR	16	8	-1	SURF	1412	n/a	-1	n/a	n/a	n/a	n/a	n/a
1534.764	n/a	REC_WORD	767382	wordpools/wasnorm_wordpool_less_exclusions.txt	LTP189	ltpFR	16	8	-1	CANAL	226	n/a	-1	n/a	n/a	n/a	n/a	n/a
1535.392	n/a	REC_WORD	767696	wordpools/wasnorm_wordpool_less_exclusions.txt	LTP189	ltpFR	16	8	-1	LIMOUSINE	824	n/a	-1	n/a	n/a	n/a	n/a	n/a
1536.16	n/a	REC_WORD	768080	wordpools/wasnorm_wordpool_less_exclusions.txt	LTP189	ltpFR	16	8	-1	DEPUTY	450	n/a	-1	n/a	n/a	n/a	n/a	n/a
1536.834	n/a	REC_WORD	768417	wordpools/wasnorm_wordpool_less_exclusions.txt	LTP189	ltpFR	16	8	-1	GLASS	639	n/a	-1	n/a	n/a	n/a	n/a	n/a
1537.322	n/a	REC_WORD	768661	wordpools/wasnorm_wordpool_less_exclusions.txt	LTP189	ltpFR	16	8	-1	COCKTAIL	338	n/a	-1	n/a	n/a	n/a	n/a	n/a
1539.508	n/a	REC_WORD	769754	wordpools/wasnorm_wordpool_less_exclusions.txt	LTP189	ltpFR	16	8	-1	CABBAGE	210	n/a	-1	n/a	n/a	n/a	n/a	n/a
1540.13	n/a	REC_WORD	770065	wordpools/wasnorm_wordpool_less_exclusions.txt	LTP189	ltpFR	16	8	-1	BEAN	105	n/a	-1	n/a	n/a	n/a	n/a	n/a
1540.71	n/a	REC_WORD	770355	wordpools/wasnorm_wordpool_less_exclusions.txt	LTP189	ltpFR	16	8	-1	DINNER	468	n/a	-1	n/a	n/a	n/a	n/a	n/a
1542.686	n/a	REC_WORD	771343	wordpools/wasnorm_wordpool_less_exclusions.txt	LTP189	ltpFR	16	8	-1	MUG	930	n/a	-1	n/a	n/a	n/a	n/a	n/a
1543.29	n/a	REC_WORD	771645	wordpools/wasnorm_wordpool_less_exclusions.txt	LTP189	ltpFR	16	8	-1	BEVERAGE	123	n/a	-1	n/a	n/a	n/a	n/a	n/a
1553.018	n/a	REC_WORD	776509	wordpools/wasnorm_wordpool_less_exclusions.txt	LTP189	ltpFR	16	8	-1	FLOOR	581	n/a	-1	n/a	n/a	n/a	n/a	n/a
1560.356	n/a	REC_WORD	780178	wordpools/wasnorm_wordpool_less_exclusions.txt	LTP189	ltpFR	16	8	n/a	SPILL	-1	n/a	n/a	n/a	n/a	n/a	n/a	n/a
1634.936	n/a	WORD	817468	wordpools/wasnorm_wordpool_less_exclusions.txt	LTP189	ltpFR	16	9	0	POOL	1103	n/a	0	1	0.412841796875	0.57763671875	lower	../fonts/zerothre.ttf
1638.846	n/a	WORD	819423	wordpools/wasnorm_wordpool_less_exclusions.txt	LTP189	ltpFR	16	9	0	STREAM	1392	n/a	1	1	0.412841796875	0.57763671875	lower	../fonts/zerothre.ttf
1643.074	n/a	WORD	821537	wordpools/wasnorm_wordpool_less_exclusions.txt	LTP189	ltpFR	16	9	0	TAXI	1438	n/a	1	1	0.412841796875	0.57763671875	lower	../fonts/zerothre.ttf
1646.984	n/a	WORD	823492	wordpools/wasnorm_wordpool_less_exclusions.txt	LTP189	ltpFR	16	9	0	LITERATURE	831	n/a	1	1	0.412841796875	0.57763671875	lower	../fonts/zerothre.ttf
1651.212	n/a	WORD	825606	wordpools/wasnorm_wordpool_less_exclusions.txt	LTP189	ltpFR	16	9	1	CARNIVAL	245	n/a	0	0	0.5869140625	0.422607421875	upper	../fonts/amplitud.ttf
1655.088	n/a	WORD	827544	wordpools/wasnorm_wordpool_less_exclusions.txt	LTP189	ltpFR	16	9	1	ATHLETE	52	n/a	1	0	0.5869140625	0.422607421875	upper	../fonts/amplitud.ttf
1659.0	n/a	WORD	829500	wordpools/wasnorm_wordpool_less_exclusions.txt	LTP189	ltpFR	16	9	1	CRICKET	408	n/a	1	0	0.5869140625	0.422607421875	upper	../fonts/amplitud.ttf
1662.878	n/a	WORD	831439	wordpools/wasnorm_wordpool_less_exclusions.txt	LTP189	ltpFR	16	9	1	JOURNAL	760	n/a	0	0	0.5869140625	0.422607421875	upper	../fonts/amplitud.ttf
1667.022	n/a	WORD	833511	wordpools/wasnorm_wordpool_less_exclusions.txt	LTP189	ltpFR	16	9	0	HUMAN	726	n/a	0	1	0.412841796875	0.57763671875	lower	../fonts/zerothre.ttf
1671.182	n/a	WORD	835591	wordpools/wasnorm_wordpool_less_exclusions.txt	LTP189	ltpFR	16	9	0	HOOD	714	n/a	0	1	0.412841796875	0.57763671875	lower	../fonts/zerothre.ttf
1675.176	n/a	WORD	837588	wordpools/wasnorm_wordpool_less_exclusions.txt	LTP189	ltpFR	16	9	0	JUDGE	761	n/a	1	1	0.412841796875	0.57763671875	lower	../fonts/zerothre.ttf
1679.152	n/a	WORD	839576	wordpools/wasnorm_wordpool_less_exclusions.txt	LTP189	ltpFR	16	9	0	COMMITTEE	355	n/a	1	1	0.412841796875	0.57763671875	lower	../fonts/zerothre.ttf
1683.332	n/a	WORD	841666	wordpools/wasnorm_wordpool_less_exclusions.txt	LTP189	ltpFR	16	9	1	NERVE	944	n/a	1	0	0.5869140625	0.422607421875	upper	../fonts/amplitud.ttf
1687.358	n/a	WORD	843679	wordpools/wasnorm_wordpool_less_exclusions.txt	LTP189	ltpFR	16	9	1	FOX	598	n/a	1	0	0.5869140625	0.422607421875	upper	../fonts/amplitud.ttf
1691.236	n/a	WORD	845618	wordpools/wasnorm_wordpool_less_exclusions.txt	LTP189	ltpFR	16	9	1	RUST	1219	n/a	0	0	0.5869140625	0.422607421875	upper	../fonts/amplitud.ttf
1695.214	n/a	WORD	847607	wordpools/wasnorm_wordpool_less_exclusions.txt	LTP189	ltpFR	16	9	1	MOTOR	922	n/a	1	0	0.5869140625	0.422607421875	upper	../fonts/amplitud.ttf
1701.256	n/a	REC_START	850628	n/a	LTP189	ltpFR	16	9	n/a	n/a	n/a	n/a	n/a	n/a	n/a	n/a	n/a	n/a
1702.618	n/a	REC_WORD	851309	wordpools/wasnorm_wordpool_less_exclusions.txt	LTP189	ltpFR	16	9	1	MOTOR	922	n/a	1	n/a	n/a	n/a	n/a	n/a
1703.634	n/a	REC_WORD	851817	wordpools/wasnorm_wordpool_less_exclusions.txt	LTP189	ltpFR	16	9	0	HOOD	714	n/a	0	n/a	n/a	n/a	n/a	n/a
1704.324	n/a	REC_WORD	852162	wordpools/wasnorm_wordpool_less_exclusions.txt	LTP189	ltpFR	16	9	0	TAXI	1438	n/a	1	n/a	n/a	n/a	n/a	n/a
1706.04	n/a	REC_WORD	853020	wordpools/wasnorm_wordpool_less_exclusions.txt	LTP189	ltpFR	16	9	0	LITERATURE	831	n/a	1	n/a	n/a	n/a	n/a	n/a
1708.664	n/a	REC_WORD	854332	wordpools/wasnorm_wordpool_less_exclusions.txt	LTP189	ltpFR	16	9	0	HUMAN	726	n/a	0	n/a	n/a	n/a	n/a	n/a
1709.68	n/a	REC_WORD	854840	wordpools/wasnorm_wordpool_less_exclusions.txt	LTP189	ltpFR	16	9	0	JUDGE	761	n/a	1	n/a	n/a	n/a	n/a	n/a
1710.648	n/a	REC_WORD	855324	wordpools/wasnorm_wordpool_less_exclusions.txt	LTP189	ltpFR	16	9	0	COMMITTEE	355	n/a	1	n/a	n/a	n/a	n/a	n/a
1712.974	n/a	REC_WORD	856487	wordpools/wasnorm_wordpool_less_exclusions.txt	LTP189	ltpFR	16	9	0	STREAM	1392	n/a	1	n/a	n/a	n/a	n/a	n/a
1714.55	n/a	REC_WORD	857275	wordpools/wasnorm_wordpool_less_exclusions.txt	LTP189	ltpFR	16	9	0	POOL	1103	n/a	0	n/a	n/a	n/a	n/a	n/a
1717.912	n/a	REC_WORD	858956	wordpools/wasnorm_wordpool_less_exclusions.txt	LTP189	ltpFR	16	9	1	CARNIVAL	245	n/a	0	n/a	n/a	n/a	n/a	n/a
1719.534	n/a	REC_WORD	859767	wordpools/wasnorm_wordpool_less_exclusions.txt	LTP189	ltpFR	16	9	1	ATHLETE	52	n/a	1	n/a	n/a	n/a	n/a	n/a
1720.162	n/a	REC_WORD	860081	wordpools/wasnorm_wordpool_less_exclusions.txt	LTP189	ltpFR	16	9	1	CRICKET	408	n/a	1	n/a	n/a	n/a	n/a	n/a
1720.706	n/a	REC_WORD	860353	wordpools/wasnorm_wordpool_less_exclusions.txt	LTP189	ltpFR	16	9	1	JOURNAL	760	n/a	0	n/a	n/a	n/a	n/a	n/a
1821.608	n/a	WORD	910804	wordpools/wasnorm_wordpool_less_exclusions.txt	LTP189	ltpFR	16	10	0	MARGARINE	868	n/a	0	1	0.412841796875	0.57763671875	lower	../fonts/zerothre.ttf
1825.82	n/a	WORD	912910	wordpools/wasnorm_wordpool_less_exclusions.txt	LTP189	ltpFR	16	10	0	FIN	566	n/a	0	1	0.412841796875	0.57763671875	lower	../fonts/zerothre.ttf
1829.648	n/a	WORD	914824	wordpools/wasnorm_wordpool_less_exclusions.txt	LTP189	ltpFR	16	10	0	PARTY	1018	n/a	1	1	0.412841796875	0.57763671875	lower	../fonts/zerothre.ttf
1833.642	n/a	WORD	916821	wordpools/wasnorm_wordpool_less_exclusions.txt	LTP189	ltpFR	16	10	0	SPONGE	1355	n/a	0	1	0.412841796875	0.57763671875	lower	../fonts/zerothre.ttf
1837.67	n/a	WORD	918835	wordpools/wasnorm_wordpool_less_exclusions.txt	LTP189	ltpFR	16	10	0	ISLAND	745	n/a	1	1	0.412841796875	0.57763671875	lower	../fonts/zerothre.ttf
1841.714	n/a	WORD	920857	wordpools/wasnorm_wordpool_less_exclusions.txt	LTP189	ltpFR	16	10	0	RECEIPT	1173	n/a	0	1	0.412841796875	0.57763671875	lower	../fonts/zerothre.ttf
1845.558	n/a	WORD	922779	wordpools/wasnorm_wordpool_less_exclusions.txt	LTP189	ltpFR	16	10	0	BUTTER	205	n/a	0	1	0.412841796875	0.57763671875	lower	../fonts/zerothre.ttf
1849.684	n/a	WORD	924842	wordpools/wasnorm_wordpool_less_exclusions.txt	LTP189	ltpFR	16	10	0	POSSUM	1112	n/a	0	1	0.412841796875	0.57763671875	lower	../fonts/zerothre.ttf
1853.528	n/a	WORD	926764	wordpools/wasnorm_wordpool_less_exclusions.txt	LTP189	ltpFR	16	10	0	DUST	508	n/a	1	1	0.412841796875	0.57763671875	lower	../fonts/zerothre.ttf
1857.622	n/a	WORD	928811	wordpools/wasnorm_wordpool_less_exclusions.txt	LTP189	ltpFR	16	10	0	CONTRACT	368	n/a	1	1	0.412841796875	0.57763671875	lower	../fonts/zerothre.ttf
1861.6	n/a	WORD	930800	wordpools/wasnorm_wordpool_less_exclusions.txt	LTP189	ltpFR	16	10	0	MONGOOSE	909	n/a	0	1	0.412841796875	0.57763671875	lower	../fonts/zerothre.ttf
1865.528	n/a	WORD	932764	wordpools/wasnorm_wordpool_less_exclusions.txt	LTP189	ltpFR	16	10	0	PLUMBER	1091	n/a	1	1	0.412841796875	0.57763671875	lower	../fonts/zerothre.ttf
1869.706	n/a	WORD	934853	wordpools/wasnorm_wordpool_less_exclusions.txt	LTP189	ltpFR	16	10	0	SINK	1309	n/a	0	1	0.412841796875	0.57763671875	lower	../fonts/zerothre.ttf
1873.648	n/a	WORD	936824	wordpools/wasnorm_wordpool_less_exclusions.txt	LTP189	ltpFR	16	10	0	BRIEFCASE	175	n/a	0	1	0.412841796875	0.57763671875	lower	../fonts/zerothre.ttf
1877.744	n/a	WORD	938872	wordpools/wasnorm_wordpool_less_exclusions.txt	LTP189	ltpFR	16	10	0	UNDERWEAR	1537	n/a	0	1	0.412841796875	0.57763671875	lower	../fonts/zerothre.ttf
1881.82	n/a	WORD	940910	wordpools/wasnorm_wordpool_less_exclusions.txt	LTP189	ltpFR	16	10	0	FRIEND	606	n/a	1	1	0.412841796875	0.57763671875	lower	../fonts/zerothre.ttf
1887.678	n/a	REC_START	943839	n/a	LTP189	ltpFR	16	10	n/a	n/a	n/a	n/a	n/a	n/a	n/a	n/a	n/a	n/a
1889.064	n/a	REC_WORD	944532	wordpools/wasnorm_wordpool_less_exclusions.txt	LTP189	ltpFR	16	10	0	FRIEND	606	n/a	1	n/a	n/a	n/a	n/a	n/a
1889.564	n/a	REC_WORD	944782	wordpools/wasnorm_wordpool_less_exclusions.txt	LTP189	ltpFR	16	10	0	PLUMBER	1091	n/a	1	n/a	n/a	n/a	n/a	n/a
1890.398	n/a	REC_WORD	945199	wordpools/wasnorm_wordpool_less_exclusions.txt	LTP189	ltpFR	16	10	0	BRIEFCASE	175	n/a	0	n/a	n/a	n/a	n/a	n/a
1891.25	n/a	REC_WORD	945625	wordpools/wasnorm_wordpool_less_exclusions.txt	LTP189	ltpFR	16	10	0	FIN	566	n/a	0	n/a	n/a	n/a	n/a	n/a
1893.4	n/a	REC_WORD	946700	wordpools/wasnorm_wordpool_less_exclusions.txt	LTP189	ltpFR	16	10	0	ISLAND	745	n/a	1	n/a	n/a	n/a	n/a	n/a
1894.384	n/a	REC_WORD	947192	wordpools/wasnorm_wordpool_less_exclusions.txt	LTP189	ltpFR	16	10	0	MARGARINE	868	n/a	0	n/a	n/a	n/a	n/a	n/a
1895.032	n/a	REC_WORD	947516	wordpools/wasnorm_wordpool_less_exclusions.txt	LTP189	ltpFR	16	10	0	BUTTER	205	n/a	0	n/a	n/a	n/a	n/a	n/a
1895.532	n/a	REC_WORD	947766	wordpools/wasnorm_wordpool_less_exclusions.txt	LTP189	ltpFR	16	10	0	POSSUM	1112	n/a	0	n/a	n/a	n/a	n/a	n/a
1896.17	n/a	REC_WORD	948085	wordpools/wasnorm_wordpool_less_exclusions.txt	LTP189	ltpFR	16	10	0	MONGOOSE	909	n/a	0	n/a	n/a	n/a	n/a	n/a
1897.218	n/a	REC_WORD	948609	wordpools/wasnorm_wordpool_less_exclusions.txt	LTP189	ltpFR	16	10	0	PARTY	1018	n/a	1	n/a	n/a	n/a	n/a	n/a
1898.414	n/a	REC_WORD	949207	wordpools/wasnorm_wordpool_less_exclusions.txt	LTP189	ltpFR	16	10	0	DUST	508	n/a	1	n/a	n/a	n/a	n/a	n/a
1900.77	n/a	REC_WORD	950385	wordpools/wasnorm_wordpool_less_exclusions.txt	LTP189	ltpFR	16	10	0	FRIEND	606	n/a	1	n/a	n/a	n/a	n/a	n/a
1906.692	n/a	REC_WORD_VV	953346	wordpools/wasnorm_wordpool_less_exclusions.txt	LTP189	ltpFR	16	10	n/a	<>	-1	n/a	n/a	n/a	n/a	n/a	n/a	n/a
1910.302	n/a	REC_WORD	955151	wordpools/wasnorm_wordpool_less_exclusions.txt	LTP189	ltpFR	16	10	0	CONTRACT	368	n/a	1	n/a	n/a	n/a	n/a	n/a
1979.392	n/a	WORD	989696	wordpools/wasnorm_wordpool_less_exclusions.txt	LTP189	ltpFR	16	11	0	DRILL	497	n/a	1	1	0.412841796875	0.57763671875	lower	../fonts/zerothre.ttf
1983.536	n/a	WORD	991768	wordpools/wasnorm_wordpool_less_exclusions.txt	LTP189	ltpFR	16	11	0	JUG	762	n/a	0	1	0.412841796875	0.57763671875	lower	../fonts/zerothre.ttf
1987.38	n/a	WORD	993690	wordpools/wasnorm_wordpool_less_exclusions.txt	LTP189	ltpFR	16	11	0	TYPEWRITER	1531	n/a	0	1	0.412841796875	0.57763671875	lower	../fonts/zerothre.ttf
1991.574	n/a	WORD	995787	wordpools/wasnorm_wordpool_less_exclusions.txt	LTP189	ltpFR	16	11	0	BULB	192	n/a	0	1	0.412841796875	0.57763671875	lower	../fonts/zerothre.ttf
1995.652	n/a	WORD	997826	wordpools/wasnorm_wordpool_less_exclusions.txt	LTP189	ltpFR	16	11	0	SLACKS	1323	n/a	0	1	0.412841796875	0.57763671875	lower	../fonts/zerothre.ttf
1999.646	n/a	WORD	999823	wordpools/wasnorm_wordpool_less_exclusions.txt	LTP189	ltpFR	16	11	0	CANOE	233	n/a	1	1	0.412841796875	0.57763671875	lower	../fonts/zerothre.ttf
2003.74	n/a	WORD	1001870	wordpools/wasnorm_wordpool_less_exclusions.txt	LTP189	ltpFR	16	11	0	SHORE	1291	n/a	1	1	0.412841796875	0.57763671875	lower	../fonts/zerothre.ttf
2007.868	n/a	WORD	1003934	wordpools/wasnorm_wordpool_less_exclusions.txt	LTP189	ltpFR	16	11	0	OCEAN	970	n/a	1	1	0.412841796875	0.57763671875	lower	../fonts/zerothre.ttf
2011.994	n/a	WORD	1005997	wordpools/wasnorm_wordpool_less_exclusions.txt	LTP189	ltpFR	16	11	0	ROCKET	1202	n/a	1	1	0.412841796875	0.57763671875	lower	../fonts/zerothre.ttf
2015.956	n/a	WORD	1007978	wordpools/wasnorm_wordpool_less_exclusions.txt	LTP189	ltpFR	16	11	0	COLUMN	350	n/a	1	1	0.412841796875	0.57763671875	lower	../fonts/zerothre.ttf
2020.116	n/a	WORD	1010058	wordpools/wasnorm_wordpool_less_exclusions.txt	LTP189	ltpFR	16	11	0	NEWSSTAND	949	n/a	0	1	0.412841796875	0.57763671875	lower	../fonts/zerothre.ttf
2023.96	n/a	WORD	1011980	wordpools/wasnorm_wordpool_less_exclusions.txt	LTP189	ltpFR	16	11	0	ERASER	538	n/a	0	1	0.412841796875	0.57763671875	lower	../fonts/zerothre.ttf
2027.97	n/a	WORD	1013985	wordpools/wasnorm_wordpool_less_exclusions.txt	LTP189	ltpFR	16	11	0	VESSEL	1558	n/a	1	1	0.412841796875	0.57763671875	lower	../fonts/zerothre.ttf
2031.814	n/a	WORD	1015907	wordpools/wasnorm_wordpool_less_exclusions.txt	LTP189	ltpFR	16	11	0	PORCH	1106	n/a	0	1	0.412841796875	0.57763671875	lower	../fonts/zerothre.ttf
2035.992	n/a	WORD	1017996	wordpools/wasnorm_wordpool_less_exclusions.txt	LTP189	ltpFR	16	11	0	SCARF	1246	n/a	0	1	0.412841796875	0.57763671875	lower	../fonts/zerothre.ttf
2040.07	n/a	WORD	1020035	wordpools/wasnorm_wordpool_less_exclusions.txt	LTP189	ltpFR	16	11	0	MINK	897	n/a	0	1	0.412841796875	0.57763671875	lower	../fonts/zerothre.ttf
2046.078	n/a	REC_START	1023039	n/a	LTP189	ltpFR	16	11	n/a	n/a	n/a	n/a	n/a	n/a	n/a	n/a	n/a	n/a
2046.742	n/a	REC_WORD	1023371	wordpools/wasnorm_wordpool_less_exclusions.txt	LTP189	ltpFR	16	11	0	MINK	897	n/a	0	n/a	n/a	n/a	n/a	n/a
2047.026	n/a	REC_WORD	1023513	wordpools/wasnorm_wordpool_less_exclusions.txt	LTP189	ltpFR	16	11	0	SCARF	1246	n/a	0	n/a	n/a	n/a	n/a	n/a
2047.644	n/a	REC_WORD	1023822	wordpools/wasnorm_wordpool_less_exclusions.txt	LTP189	ltpFR	16	11	0	VESSEL	1558	n/a	1	n/a	n/a	n/a	n/a	n/a
2048.184	n/a	REC_WORD	1024092	wordpools/wasnorm_wordpool_less_exclusions.txt	LTP189	ltpFR	16	11	0	PORCH	1106	n/a	0	n/a	n/a	n/a	n/a	n/a
2048.876	n/a	REC_WORD	1024438	wordpools/wasnorm_wordpool_less_exclusions.txt	LTP189	ltpFR	16	11	0	CANOE	233	n/a	1	n/a	n/a	n/a	n/a	n/a
2049.536	n/a	REC_WORD	1024768	wordpools/wasnorm_wordpool_less_exclusions.txt	LTP189	ltpFR	16	11	0	OCEAN	970	n/a	1	n/a	n/a	n/a	n/a	n/a
2050.274	n/a	REC_WORD	1025137	wordpools/wasnorm_wordpool_less_exclusions.txt	LTP189	ltpFR	16	11	0	JUG	762	n/a	0	n/a	n/a	n/a	n/a	n/a
2050.788	n/a	REC_WORD	1025394	wordpools/wasnorm_wordpool_less_exclusions.txt	LTP189	ltpFR	16	11	0	NEWSSTAND	949	n/a	0	n/a	n/a	n/a	n/a	n/a
2053.256	n/a	REC_WORD	1026628	wordpools/wasnorm_wordpool_less_exclusions.txt	LTP189	ltpFR	16	11	0	SHORE	1291	n/a	1	n/a	n/a	n/a	n/a	n/a
2057.098	n/a	REC_WORD	1028549	wordpools/wasnorm_wordpool_less_exclusions.txt	LTP189	ltpFR	16	11	0	ERASER	538	n/a	0	n/a	n/a	n/a	n/a	n/a
2061.404	n/a	REC_WORD	1030702	wordpools/wasnorm_wordpool_less_exclusions.txt	LTP189	ltpFR	16	11	0	DRILL	497	n/a	1	n/a	n/a	n/a	n/a	n/a
2172.906	n/a	WORD	1086453	wordpools/wasnorm_wordpool_less_exclusions.txt	LTP189	ltpFR	16	12	-1	DISC	473	n/a	-1	1	1.0	1.0	upper	../fonts/Verdana.ttf
2177.05	n/a	WORD	1088525	wordpools/wasnorm_wordpool_less_exclusions.txt	LTP189	ltpFR	16	12	-1	PUMPKIN	1142	n/a	-1	1	1.0	1.0	upper	../fonts/Verdana.ttf
2181.228	n/a	WORD	1090614	wordpools/wasnorm_wordpool_less_exclusions.txt	LTP189	ltpFR	16	12	-1	LASER	801	n/a	-1	1	1.0	1.0	upper	../fonts/Verdana.ttf
2185.272	n/a	WORD	1092636	wordpools/wasnorm_wordpool_less_exclusions.txt	LTP189	ltpFR	16	12	-1	JOINT	758	n/a	-1	1	1.0	1.0	upper	../fonts/Verdana.ttf
2189.416	n/a	WORD	1094708	wordpools/wasnorm_wordpool_less_exclusions.txt	LTP189	ltpFR	16	12	-1	TUBA	1515	n/a	-1	1	1.0	1.0	upper	../fonts/Verdana.ttf
2193.61	n/a	WORD	1096805	wordpools/wasnorm_wordpool_less_exclusions.txt	LTP189	ltpFR	16	12	-1	GALLON	618	n/a	-1	1	1.0	1.0	upper	../fonts/Verdana.ttf
2197.704	n/a	WORD	1098852	wordpools/wasnorm_wordpool_less_exclusions.txt	LTP189	ltpFR	16	12	-1	CONE	363	n/a	-1	1	1.0	1.0	upper	../fonts/Verdana.ttf
2201.748	n/a	WORD	1100874	wordpools/wasnorm_wordpool_less_exclusions.txt	LTP189	ltpFR	16	12	-1	EMPLOYER	532	n/a	-1	1	1.0	1.0	upper	../fonts/Verdana.ttf
2205.726	n/a	WORD	1102863	wordpools/wasnorm_wordpool_less_exclusions.txt	LTP189	ltpFR	16	12	-1	MOWER	928	n/a	-1	1	1.0	1.0	upper	../fonts/Verdana.ttf
2209.818	n/a	WORD	1104909	wordpools/wasnorm_wordpool_less_exclusions.txt	LTP189	ltpFR	16	12	-1	STOOL	1386	n/a	-1	1	1.0	1.0	upper	../fonts/Verdana.ttf
2213.73	n/a	WORD	1106865	wordpools/wasnorm_wordpool_less_exclusions.txt	LTP189	ltpFR	16	12	-1	TOOTHPASTE	1483	n/a	-1	1	1.0	1.0	upper	../fonts/Verdana.ttf
2217.906	n/a	WORD	1108953	wordpools/wasnorm_wordpool_less_exclusions.txt	LTP189	ltpFR	16	12	-1	JAW	751	n/a	-1	1	1.0	1.0	upper	../fonts/Verdana.ttf
2221.966	n/a	WORD	1110983	wordpools/wasnorm_wordpool_less_exclusions.txt	LTP189	ltpFR	16	12	-1	FOOT	590	n/a	-1	1	1.0	1.0	upper	../fonts/Verdana.ttf
2225.928	n/a	WORD	1112964	wordpools/wasnorm_wordpool_less_exclusions.txt	LTP189	ltpFR	16	12	-1	SHORTCAKE	1292	n/a	-1	1	1.0	1.0	upper	../fonts/Verdana.ttf
2230.122	n/a	WORD	1115061	wordpools/wasnorm_wordpool_less_exclusions.txt	LTP189	ltpFR	16	12	-1	LIMB	822	n/a	-1	1	1.0	1.0	upper	../fonts/Verdana.ttf
2234.232	n/a	WORD	1117116	wordpools/wasnorm_wordpool_less_exclusions.txt	LTP189	ltpFR	16	12	-1	ACORN	3	n/a	-1	1	1.0	1.0	upper	../fonts/Verdana.ttf
2240.258	n/a	REC_START	1120129	n/a	LTP189	ltpFR	16	12	n/a	n/a	n/a	n/a	n/a	n/a	n/a	n/a	n/a	n/a
2241.404	n/a	REC_WORD	1120702	wordpools/wasnorm_wordpool_less_exclusions.txt	LTP189	ltpFR	16	12	-1	ACORN	3	n/a	-1	n/a	n/a	n/a	n/a	n/a
2241.852	n/a	REC_WORD	1120926	wordpools/wasnorm_wordpool_less_exclusions.txt	LTP189	ltpFR	16	12	-1	LIMB	822	n/a	-1	n/a	n/a	n/a	n/a	n/a
2242.286	n/a	REC_WORD	1121143	wordpools/wasnorm_wordpool_less_exclusions.txt	LTP189	ltpFR	16	12	-1	EMPLOYER	532	n/a	-1	n/a	n/a	n/a	n/a	n/a
2243.326	n/a	REC_WORD	1121663	wordpools/wasnorm_wordpool_less_exclusions.txt	LTP189	ltpFR	16	12	-1	CONE	363	n/a	-1	n/a	n/a	n/a	n/a	n/a
2244.058	n/a	REC_WORD	1122029	wordpools/wasnorm_wordpool_less_exclusions.txt	LTP189	ltpFR	16	12	-1	TOOTHPASTE	1483	n/a	-1	n/a	n/a	n/a	n/a	n/a
2245.51	n/a	REC_WORD	1122755	wordpools/wasnorm_wordpool_less_exclusions.txt	LTP189	ltpFR	16	12	-1	FOOT	590	n/a	-1	n/a	n/a	n/a	n/a	n/a
2246.842	n/a	REC_WORD	1123421	wordpools/wasnorm_wordpool_less_exclusions.txt	LTP189	ltpFR	16	12	-1	SHORTCAKE	1292	n/a	-1	n/a	n/a	n/a	n/a	n/a
2247.91	n/a	REC_WORD	1123955	wordpools/wasnorm_wordpool_less_exclusions.txt	LTP189	ltpFR	16	12	-1	MOWER	928	n/a	-1	n/a	n/a	n/a	n/a	n/a
2249.084	n/a	REC_WORD	1124542	wordpools/wasnorm_wordpool_less_exclusions.txt	LTP189	ltpFR	16	12	-1	JOINT	758	n/a	-1	n/a	n/a	n/a	n/a	n/a
2250.56	n/a	REC_WORD	1125280	wordpools/wasnorm_wordpool_less_exclusions.txt	LTP189	ltpFR	16	12	-1	STOOL	1386	n/a	-1	n/a	n/a	n/a	n/a	n/a
2253.822	n/a	REC_WORD	1126911	wordpools/wasnorm_wordpool_less_exclusions.txt	LTP189	ltpFR	16	12	-1	DISC	473	n/a	-1	n/a	n/a	n/a	n/a	n/a
2255.438	n/a	REC_WORD	1127719	wordpools/wasnorm_wordpool_less_exclusions.txt	LTP189	ltpFR	16	12	-1	PUMPKIN	1142	n/a	-1	n/a	n/a	n/a	n/a	n/a
2256.93	n/a	REC_WORD	1128465	wordpools/wasnorm_wordpool_less_exclusions.txt	LTP189	ltpFR	16	12	-1	LASER	801	n/a	-1	n/a	n/a	n/a	n/a	n/a
2315.844	n/a	REST_REWET	1157922	n/a	LTP189	ltpFR	16	12	n/a	n/a	n/a	n/a	n/a	n/a	n/a	n/a	n/a	n/a
2659.02	n/a	WORD	1329510	wordpools/wasnorm_wordpool_less_exclusions.txt	LTP189	ltpFR	16	13	0	THESAURUS	1454	n/a	0	1	0.412841796875	0.57763671875	lower	../fonts/zerothre.ttf
2662.948	n/a	WORD	1331474	wordpools/wasnorm_wordpool_less_exclusions.txt	LTP189	ltpFR	16	13	0	WRITER	1627	n/a	0	1	0.412841796875	0.57763671875	lower	../fonts/zerothre.ttf
2666.976	n/a	WORD	1333488	wordpools/wasnorm_wordpool_less_exclusions.txt	LTP189	ltpFR	16	13	1	YOLK	1633	n/a	0	0	0.5869140625	0.422607421875	upper	../fonts/amplitud.ttf
2670.854	n/a	WORD	1335427	wordpools/wasnorm_wordpool_less_exclusions.txt	LTP189	ltpFR	16	13	1	SUBURB	1399	n/a	0	0	0.5869140625	0.422607421875	upper	../fonts/amplitud.ttf
2674.798	n/a	WORD	1337399	wordpools/wasnorm_wordpool_less_exclusions.txt	LTP189	ltpFR	16	13	1	COMMUNITY	356	n/a	1	0	0.5869140625	0.422607421875	upper	../fonts/amplitud.ttf
2678.792	n/a	WORD	1339396	wordpools/wasnorm_wordpool_less_exclusions.txt	LTP189	ltpFR	16	13	1	MUSEUM	933	n/a	0	0	0.5869140625	0.422607421875	upper	../fonts/amplitud.ttf
2682.754	n/a	WORD	1341377	wordpools/wasnorm_wordpool_less_exclusions.txt	LTP189	ltpFR	16	13	1	BRANDY	169	n/a	0	0	0.5869140625	0.422607421875	upper	../fonts/amplitud.ttf
2686.664	n/a	WORD	1343332	wordpools/wasnorm_wordpool_less_exclusions.txt	LTP189	ltpFR	16	13	1	DICTATOR	462	n/a	0	0	0.5869140625	0.422607421875	upper	../fonts/amplitud.ttf
2690.658	n/a	WORD	1345329	wordpools/wasnorm_wordpool_less_exclusions.txt	LTP189	ltpFR	16	13	0	PAINT	1003	n/a	0	1	0.412841796875	0.57763671875	lower	../fonts/zerothre.ttf
2694.584	n/a	WORD	1347292	wordpools/wasnorm_wordpool_less_exclusions.txt	LTP189	ltpFR	16	13	0	CHICKEN	297	n/a	0	1	0.412841796875	0.57763671875	lower	../fonts/zerothre.ttf
2698.762	n/a	WORD	1349381	wordpools/wasnorm_wordpool_less_exclusions.txt	LTP189	ltpFR	16	13	0	SUPERVISOR	1410	n/a	1	1	0.412841796875	0.57763671875	lower	../fonts/zerothre.ttf
2702.956	n/a	WORD	1351478	wordpools/wasnorm_wordpool_less_exclusions.txt	LTP189	ltpFR	16	13	0	VITAMIN	1574	n/a	0	1	0.412841796875	0.57763671875	lower	../fonts/zerothre.ttf
2707.15	n/a	WORD	1353575	wordpools/wasnorm_wordpool_less_exclusions.txt	LTP189	ltpFR	16	13	1	ARCHITECT	36	n/a	1	0	0.5869140625	0.422607421875	upper	../fonts/amplitud.ttf
2711.244	n/a	WORD	1355622	wordpools/wasnorm_wordpool_less_exclusions.txt	LTP189	ltpFR	16	13	1	WITNESS	1618	n/a	1	0	0.5869140625	0.422607421875	upper	../fonts/amplitud.ttf
2715.104	n/a	WORD	1357552	wordpools/wasnorm_wordpool_less_exclusions.txt	LTP189	ltpFR	16	13	0	COURT	391	n/a	1	1	0.412841796875	0.57763671875	lower	../fonts/zerothre.ttf
2719.214	n/a	WORD	1359607	wordpools/wasnorm_wordpool_less_exclusions.txt	LTP189	ltpFR	16	13	0	CARDINAL	244	n/a	0	1	0.412841796875	0.57763671875	lower	../fonts/zerothre.ttf
2725.156	n/a	REC_START	1362578	n/a	LTP189	ltpFR	16	13	n/a	n/a	n/a	n/a	n/a	n/a	n/a	n/a	n/a	n/a
2727.226	n/a	REC_WORD	1363613	wordpools/wasnorm_wordpool_less_exclusions.txt	LTP189	ltpFR	16	13	0	CARDINAL	244	n/a	0	n/a	n/a	n/a	n/a	n/a
2727.666	n/a	REC_WORD	1363833	wordpools/wasnorm_wordpool_less_exclusions.txt	LTP189	ltpFR	16	13	1	WITNESS	1618	n/a	1	n/a	n/a	n/a	n/a	n/a
2728.14	n/a	REC_WORD	1364070	wordpools/wasnorm_wordpool_less_exclusions.txt	LTP189	ltpFR	16	13	0	COURT	391	n/a	1	n/a	n/a	n/a	n/a	n/a
2728.648	n/a	REC_WORD	1364324	wordpools/wasnorm_wordpool_less_exclusions.txt	LTP189	ltpFR	16	13	0	SUPERVISOR	1410	n/a	1	n/a	n/a	n/a	n/a	n/a
2729.316	n/a	REC_WORD	1364658	wordpools/wasnorm_wordpool_less_exclusions.txt	LTP189	ltpFR	16	13	0	VITAMIN	1574	n/a	0	n/a	n/a	n/a	n/a	n/a
2730.224	n/a	REC_WORD	1365112	wordpools/wasnorm_wordpool_less_exclusions.txt	LTP189	ltpFR	16	13	1	ARCHITECT	36	n/a	1	n/a	n/a	n/a	n/a	n/a
2734.37	n/a	REC_WORD	1367185	wordpools/wasnorm_wordpool_less_exclusions.txt	LTP189	ltpFR	16	13	1	COMMUNITY	356	n/a	1	n/a	n/a	n/a	n/a	n/a
2735.956	n/a	REC_WORD	1367978	wordpools/wasnorm_wordpool_less_exclusions.txt	LTP189	ltpFR	16	13	0	CHICKEN	297	n/a	0	n/a	n/a	n/a	n/a	n/a
2739.942	n/a	REC_WORD	1369971	wordpools/wasnorm_wordpool_less_exclusions.txt	LTP189	ltpFR	16	13	n/a	HEN	703	n/a	n/a	n/a	n/a	n/a	n/a	n/a
2742.144	n/a	REC_WORD	1371072	wordpools/wasnorm_wordpool_less_exclusions.txt	LTP189	ltpFR	16	13	1	YOLK	1633	n/a	0	n/a	n/a	n/a	n/a	n/a
2744.024	n/a	REC_WORD	1372012	wordpools/wasnorm_wordpool_less_exclusions.txt	LTP189	ltpFR	16	13	0	WRITER	1627	n/a	0	n/a	n/a	n/a	n/a	n/a
2744.708	n/a	REC_WORD	1372354	wordpools/wasnorm_wordpool_less_exclusions.txt	LTP189	ltpFR	16	13	0	THESAURUS	1454	n/a	0	n/a	n/a	n/a	n/a	n/a
2816.488	n/a	WORD	1408244	wordpools/wasnorm_wordpool_less_exclusions.txt	LTP189	ltpFR	16	14	1	MONK	910	n/a	n/a	0	0.5869140625	0.422607421875	upper	../fonts/amplitud.ttf
2819.516	n/a	SLOW_MSG	1409758	n/a	LTP189	ltpFR	16	14	n/a	n/a	n/a	n/a	n/a	n/a	n/a	n/a	n/a	n/a
2822.146	n/a	WORD	1411073	wordpools/wasnorm_wordpool_less_exclusions.txt	LTP189	ltpFR	16	14	1	WRIST	1626	n/a	0	0	0.5869140625	0.422607421875	upper	../fonts/amplitud.ttf
2825.99	n/a	WORD	1412995	wordpools/wasnorm_wordpool_less_exclusions.txt	LTP189	ltpFR	16	14	1	SQUIRREL	1362	n/a	0	0	0.5869140625	0.422607421875	upper	../fonts/amplitud.ttf
2830.002	n/a	WORD	1415001	wordpools/wasnorm_wordpool_less_exclusions.txt	LTP189	ltpFR	16	14	1	OTTER	986	n/a	1	0	0.5869140625	0.422607421875	upper	../fonts/amplitud.ttf
2833.978	n/a	WORD	1416989	wordpools/wasnorm_wordpool_less_exclusions.txt	LTP189	ltpFR	16	14	1	LAWN	805	n/a	1	0	0.5869140625	0.422607421875	upper	../fonts/amplitud.ttf
2838.14	n/a	WORD	1419070	wordpools/wasnorm_wordpool_less_exclusions.txt	LTP189	ltpFR	16	14	1	MEADOW	881	n/a	1	0	0.5869140625	0.422607421875	upper	../fonts/amplitud.ttf
2842.084	n/a	WORD	1421042	wordpools/wasnorm_wordpool_less_exclusions.txt	LTP189	ltpFR	16	14	1	GARDEN	623	n/a	1	0	0.5869140625	0.422607421875	upper	../fonts/amplitud.ttf
2845.978	n/a	WORD	1422989	wordpools/wasnorm_wordpool_less_exclusions.txt	LTP189	ltpFR	16	14	1	VELVET	1555	n/a	0	0	0.5869140625	0.422607421875	upper	../fonts/amplitud.ttf
2849.972	n/a	WORD	1424986	wordpools/wasnorm_wordpool_less_exclusions.txt	LTP189	ltpFR	16	14	1	FEMALE	559	n/a	1	0	0.5869140625	0.422607421875	upper	../fonts/amplitud.ttf
2854.016	n/a	WORD	1427008	wordpools/wasnorm_wordpool_less_exclusions.txt	LTP189	ltpFR	16	14	1	PLATE	1086	n/a	0	0	0.5869140625	0.422607421875	upper	../fonts/amplitud.ttf
2858.026	n/a	WORD	1429013	wordpools/wasnorm_wordpool_less_exclusions.txt	LTP189	ltpFR	16	14	1	OATMEAL	967	n/a	0	0	0.5869140625	0.422607421875	upper	../fonts/amplitud.ttf
2862.07	n/a	WORD	1431035	wordpools/wasnorm_wordpool_less_exclusions.txt	LTP189	ltpFR	16	14	1	NIECE	952	n/a	1	0	0.5869140625	0.422607421875	upper	../fonts/amplitud.ttf
2866.28	n/a	WORD	1433140	wordpools/wasnorm_wordpool_less_exclusions.txt	LTP189	ltpFR	16	14	1	PILLOW	1069	n/a	0	0	0.5869140625	0.422607421875	upper	../fonts/amplitud.ttf
2870.324	n/a	WORD	1435162	wordpools/wasnorm_wordpool_less_exclusions.txt	LTP189	ltpFR	16	14	1	ROSE	1212	n/a	0	0	0.5869140625	0.422607421875	upper	../fonts/amplitud.ttf
2874.186	n/a	WORD	1437093	wordpools/wasnorm_wordpool_less_exclusions.txt	LTP189	ltpFR	16	14	1	TRENCH	1503	n/a	0	0	0.5869140625	0.422607421875	upper	../fonts/amplitud.ttf
2878.08	n/a	WORD	1439040	wordpools/wasnorm_wordpool_less_exclusions.txt	LTP189	ltpFR	16	14	1	MISTER	901	n/a	0	0	0.5869140625	0.422607421875	upper	../fonts/amplitud.ttf
2883.94	n/a	REC_START	1441970	n/a	LTP189	ltpFR	16	14	n/a	n/a	n/a	n/a	n/a	n/a	n/a	n/a	n/a	n/a
2885.072	n/a	REC_WORD	1442536	wordpools/wasnorm_wordpool_less_exclusions.txt	LTP189	ltpFR	16	14	1	MISTER	901	n/a	0	n/a	n/a	n/a	n/a	n/a
2885.566	n/a	REC_WORD	1442783	wordpools/wasnorm_wordpool_less_exclusions.txt	LTP189	ltpFR	16	14	1	TRENCH	1503	n/a	0	n/a	n/a	n/a	n/a	n/a
2886.106	n/a	REC_WORD	1443053	wordpools/wasnorm_wordpool_less_exclusions.txt	LTP189	ltpFR	16	14	1	NIECE	952	n/a	1	n/a	n/a	n/a	n/a	n/a
2887.236	n/a	REC_WORD	1443618	wordpools/wasnorm_wordpool_less_exclusions.txt	LTP189	ltpFR	16	14	1	GARDEN	623	n/a	1	n/a	n/a	n/a	n/a	n/a
2887.558	n/a	REC_WORD	1443779	wordpools/wasnorm_wordpool_less_exclusions.txt	LTP189	ltpFR	16	14	1	LAWN	805	n/a	1	n/a	n/a	n/a	n/a	n/a
2888.044	n/a	REC_WORD	1444022	wordpools/wasnorm_wordpool_less_exclusions.txt	LTP189	ltpFR	16	14	1	MEADOW	881	n/a	1	n/a	n/a	n/a	n/a	n/a
2889.732	n/a	REC_WORD	1444866	wordpools/wasnorm_wordpool_less_exclusions.txt	LTP189	ltpFR	16	14	1	MONK	910	n/a	n/a	n/a	n/a	n/a	n/a	n/a
2890.146	n/a	REC_WORD	1445073	wordpools/wasnorm_wordpool_less_exclusions.txt	LTP189	ltpFR	16	14	1	FEMALE	559	n/a	1	n/a	n/a	n/a	n/a	n/a
2890.874	n/a	REC_WORD	1445437	wordpools/wasnorm_wordpool_less_exclusions.txt	LTP189	ltpFR	16	14	1	PLATE	1086	n/a	0	n/a	n/a	n/a	n/a	n/a
2892.176	n/a	REC_WORD	1446088	wordpools/wasnorm_wordpool_less_exclusions.txt	LTP189	ltpFR	16	14	1	WRIST	1626	n/a	0	n/a	n/a	n/a	n/a	n/a
2984.172	n/a	WORD	1492086	wordpools/wasnorm_wordpool_less_exclusions.txt	LTP189	ltpFR	16	15	0	CHARCOAL	281	n/a	0	1	0.412841796875	0.57763671875	lower	../fonts/zerothre.ttf
2988.266	n/a	WORD	1494133	wordpools/wasnorm_wordpool_less_exclusions.txt	LTP189	ltpFR	16	15	0	POWDER	1117	n/a	0	1	0.412841796875	0.57763671875	lower	../fonts/zerothre.ttf
2992.444	n/a	WORD	1496222	wordpools/wasnorm_wordpool_less_exclusions.txt	LTP189	ltpFR	16	15	0	DOLL	481	n/a	0	1	0.412841796875	0.57763671875	lower	../fonts/zerothre.ttf
2996.388	n/a	WORD	1498194	wordpools/wasnorm_wordpool_less_exclusions.txt	LTP189	ltpFR	16	15	0	CALENDAR	221	n/a	0	1	0.412841796875	0.57763671875	lower	../fonts/zerothre.ttf
3000.332	n/a	WORD	1500166	wordpools/wasnorm_wordpool_less_exclusions.txt	LTP189	ltpFR	16	15	0	COAT	333	n/a	1	1	0.412841796875	0.57763671875	lower	../fonts/zerothre.ttf
3004.21	n/a	WORD	1502105	wordpools/wasnorm_wordpool_less_exclusions.txt	LTP189	ltpFR	16	15	0	CAP	236	n/a	1	1	0.412841796875	0.57763671875	lower	../fonts/zerothre.ttf
3008.42	n/a	WORD	1504210	wordpools/wasnorm_wordpool_less_exclusions.txt	LTP189	ltpFR	16	15	0	PUDDING	1139	n/a	0	1	0.412841796875	0.57763671875	lower	../fonts/zerothre.ttf
3012.498	n/a	WORD	1506249	wordpools/wasnorm_wordpool_less_exclusions.txt	LTP189	ltpFR	16	15	0	BRAKE	166	n/a	0	1	0.412841796875	0.57763671875	lower	../fonts/zerothre.ttf
3016.692	n/a	WORD	1508346	wordpools/wasnorm_wordpool_less_exclusions.txt	LTP189	ltpFR	16	15	0	CERAMICS	271	n/a	0	1	0.412841796875	0.57763671875	lower	../fonts/zerothre.ttf
3020.636	n/a	WORD	1510318	wordpools/wasnorm_wordpool_less_exclusions.txt	LTP189	ltpFR	16	15	0	JELLO	754	n/a	0	1	0.412841796875	0.57763671875	lower	../fonts/zerothre.ttf
3024.564	n/a	WORD	1512282	wordpools/wasnorm_wordpool_less_exclusions.txt	LTP189	ltpFR	16	15	0	ELEVATOR	524	n/a	0	1	0.412841796875	0.57763671875	lower	../fonts/zerothre.ttf
3028.492	n/a	WORD	1514246	wordpools/wasnorm_wordpool_less_exclusions.txt	LTP189	ltpFR	16	15	0	STAIRS	1367	n/a	1	1	0.412841796875	0.57763671875	lower	../fonts/zerothre.ttf
3032.452	n/a	WORD	1516226	wordpools/wasnorm_wordpool_less_exclusions.txt	LTP189	ltpFR	16	15	0	PRIMATE	1123	n/a	0	1	0.412841796875	0.57763671875	lower	../fonts/zerothre.ttf
3036.462	n/a	WORD	1518231	wordpools/wasnorm_wordpool_less_exclusions.txt	LTP189	ltpFR	16	15	0	BUS	201	n/a	1	1	0.412841796875	0.57763671875	lower	../fonts/zerothre.ttf
3040.59	n/a	WORD	1520295	wordpools/wasnorm_wordpool_less_exclusions.txt	LTP189	ltpFR	16	15	0	SERVER	1272	n/a	1	1	0.412841796875	0.57763671875	lower	../fonts/zerothre.ttf
3044.618	n/a	WORD	1522309	wordpools/wasnorm_wordpool_less_exclusions.txt	LTP189	ltpFR	16	15	0	MARKET	871	n/a	0	1	0.412841796875	0.57763671875	lower	../fonts/zerothre.ttf
3050.442	n/a	REC_START	1525221	n/a	LTP189	ltpFR	16	15	n/a	n/a	n/a	n/a	n/a	n/a	n/a	n/a	n/a	n/a
3052.762	n/a	REC_WORD	1526381	wordpools/wasnorm_wordpool_less_exclusions.txt	LTP189	ltpFR	16	15	0	MARKET	871	n/a	0	n/a	n/a	n/a	n/a	n/a
3054.286	n/a	REC_WORD	1527143	wordpools/wasnorm_wordpool_less_exclusions.txt	LTP189	ltpFR	16	15	0	BRAKE	166	n/a	0	n/a	n/a	n/a	n/a	n/a
3054.718	n/a	REC_WORD	1527359	wordpools/wasnorm_wordpool_less_exclusions.txt	LTP189	ltpFR	16	15	0	POWDER	1117	n/a	0	n/a	n/a	n/a	n/a	n/a
3055.256	n/a	REC_WORD	1527628	wordpools/wasnorm_wordpool_less_exclusions.txt	LTP189	ltpFR	16	15	0	DOLL	481	n/a	0	n/a	n/a	n/a	n/a	n/a
3055.796	n/a	REC_WORD	1527898	wordpools/wasnorm_wordpool_less_exclusions.txt	LTP189	ltpFR	16	15	0	CALENDAR	221	n/a	0	n/a	n/a	n/a	n/a	n/a
3058.598	n/a	REC_WORD	1529299	wordpools/wasnorm_wordpool_less_exclusions.txt	LTP189	ltpFR	16	15	0	BUS	201	n/a	1	n/a	n/a	n/a	n/a	n/a
3059.782	n/a	REC_WORD	1529891	wordpools/wasnorm_wordpool_less_exclusions.txt	LTP189	ltpFR	16	15	0	PASSENGER	1020	n/a	1	n/a	n/a	n/a	n/a	n/a
3075.002	n/a	REC_WORD_VV	1537501	wordpools/wasnorm_wordpool_less_exclusions.txt	LTP189	ltpFR	16	15	n/a	<>	-1	n/a	n/a	n/a	n/a	n/a	n/a	n/a
3163.524	n/a	WORD	1581762	wordpools/wasnorm_wordpool_less_exclusions.txt	LTP189	ltpFR	16	16	-1	LIST	830	n/a	-1	1	1.0	1.0	upper	../fonts/Verdana.ttf
3167.618	n/a	WORD	1583809	wordpools/wasnorm_wordpool_less_exclusions.txt	LTP189	ltpFR	16	16	-1	SKI	1316	n/a	-1	1	1.0	1.0	upper	../fonts/Verdana.ttf
3171.696	n/a	WORD	1585848	wordpools/wasnorm_wordpool_less_exclusions.txt	LTP189	ltpFR	16	16	-1	MOUNTAIN	924	n/a	-1	1	1.0	1.0	upper	../fonts/Verdana.ttf
3175.74	n/a	WORD	1587870	wordpools/wasnorm_wordpool_less_exclusions.txt	LTP189	ltpFR	16	16	-1	BUG	187	n/a	-1	1	1.0	1.0	upper	../fonts/Verdana.ttf
3179.634	n/a	WORD	1589817	wordpools/wasnorm_wordpool_less_exclusions.txt	LTP189	ltpFR	16	16	-1	FACTORY	548	n/a	-1	1	1.0	1.0	upper	../fonts/Verdana.ttf
3183.694	n/a	WORD	1591847	wordpools/wasnorm_wordpool_less_exclusions.txt	LTP189	ltpFR	16	16	-1	SCOUT	1252	n/a	-1	1	1.0	1.0	upper	../fonts/Verdana.ttf
3187.638	n/a	WORD	1593819	wordpools/wasnorm_wordpool_less_exclusions.txt	LTP189	ltpFR	16	16	-1	REPORT	1184	n/a	-1	1	1.0	1.0	upper	../fonts/Verdana.ttf
3191.766	n/a	WORD	1595883	wordpools/wasnorm_wordpool_less_exclusions.txt	LTP189	ltpFR	16	16	-1	ROOST	1208	n/a	-1	1	1.0	1.0	upper	../fonts/Verdana.ttf
3195.744	n/a	WORD	1597872	wordpools/wasnorm_wordpool_less_exclusions.txt	LTP189	ltpFR	16	16	-1	GAZELLE	628	n/a	-1	1	1.0	1.0	upper	../fonts/Verdana.ttf
3199.82	n/a	WORD	1599910	wordpools/wasnorm_wordpool_less_exclusions.txt	LTP189	ltpFR	16	16	-1	STRAWBERRY	1391	n/a	-1	1	1.0	1.0	upper	../fonts/Verdana.ttf
3203.932	n/a	WORD	1601966	wordpools/wasnorm_wordpool_less_exclusions.txt	LTP189	ltpFR	16	16	-1	CREAM	402	n/a	-1	1	1.0	1.0	upper	../fonts/Verdana.ttf
3208.092	n/a	WORD	1604046	wordpools/wasnorm_wordpool_less_exclusions.txt	LTP189	ltpFR	16	16	-1	GARLIC	624	n/a	-1	1	1.0	1.0	upper	../fonts/Verdana.ttf
3212.02	n/a	WORD	1606010	wordpools/wasnorm_wordpool_less_exclusions.txt	LTP189	ltpFR	16	16	-1	MOTH	920	n/a	-1	1	1.0	1.0	upper	../fonts/Verdana.ttf
3215.964	n/a	WORD	1607982	wordpools/wasnorm_wordpool_less_exclusions.txt	LTP189	ltpFR	16	16	-1	COMMANDER	354	n/a	-1	1	1.0	1.0	upper	../fonts/Verdana.ttf
3220.024	n/a	WORD	1610012	wordpools/wasnorm_wordpool_less_exclusions.txt	LTP189	ltpFR	16	16	-1	FOLLOWER	589	n/a	-1	1	1.0	1.0	upper	../fonts/Verdana.ttf
3223.952	n/a	WORD	1611976	wordpools/wasnorm_wordpool_less_exclusions.txt	LTP189	ltpFR	16	16	-1	BRUNETTE	181	n/a	-1	1	1.0	1.0	upper	../fonts/Verdana.ttf
3229.744	n/a	REC_START	1614872	n/a	LTP189	ltpFR	16	16	n/a	n/a	n/a	n/a	n/a	n/a	n/a	n/a	n/a	n/a
3231.754	n/a	REC_WORD	1615877	wordpools/wasnorm_wordpool_less_exclusions.txt	LTP189	ltpFR	16	16	-1	BRUNETTE	181	n/a	-1	n/a	n/a	n/a	n/a	n/a
3232.068	n/a	REC_WORD	1616034	wordpools/wasnorm_wordpool_less_exclusions.txt	LTP189	ltpFR	16	16	-1	FOLLOWER	589	n/a	-1	n/a	n/a	n/a	n/a	n/a
3232.622	n/a	REC_WORD	1616311	wordpools/wasnorm_wordpool_less_exclusions.txt	LTP189	ltpFR	16	16	-1	COMMANDER	354	n/a	-1	n/a	n/a	n/a	n/a	n/a
3248.184	n/a	REC_WORD	1624092	wordpools/wasnorm_wordpool_less_exclusions.txt	LTP189	ltpFR	16	16	-1	SKI	1316	n/a	-1	n/a	n/a	n/a	n/a	n/a
3249.366	n/a	REC_WORD	1624683	wordpools/wasnorm_wordpool_less_exclusions.txt	LTP189	ltpFR	16	16	-1	MOUNTAIN	924	n/a	-1	n/a	n/a	n/a	n/a	n/a
3250.558	n/a	REC_WORD	1625279	wordpools/wasnorm_wordpool_less_exclusions.txt	LTP189	ltpFR	16	16	-1	GAZELLE	628	n/a	-1	n/a	n/a	n/a	n/a	n/a
3251.276	n/a	REC_WORD	1625638	wordpools/wasnorm_wordpool_less_exclusions.txt	LTP189	ltpFR	16	16	-1	GARLIC	624	n/a	-1	n/a	n/a	n/a	n/a	n/a
3253.486	n/a	REC_WORD	1626743	wordpools/wasnorm_wordpool_less_exclusions.txt	LTP189	ltpFR	16	16	n/a	BERRY	122	n/a	n/a	n/a	n/a	n/a	n/a	n/a
3254.04	n/a	REC_WORD	1627020	wordpools/wasnorm_wordpool_less_exclusions.txt	LTP189	ltpFR	16	16	-1	CREAM	402	n/a	-1	n/a	n/a	n/a	n/a	n/a
3254.974	n/a	REC_WORD_VV	1627487	wordpools/wasnorm_wordpool_less_exclusions.txt	LTP189	ltpFR	16	16	n/a	<>	-1	n/a	n/a	n/a	n/a	n/a	n/a	n/a
3258.44	n/a	REC_WORD	1629220	wordpools/wasnorm_wordpool_less_exclusions.txt	LTP189	ltpFR	16	16	n/a	BERRY	122	n/a	n/a	n/a	n/a	n/a	n/a	n/a
3259.912	n/a	REC_WORD	1629956	wordpools/wasnorm_wordpool_less_exclusions.txt	LTP189	ltpFR	16	16	-1	STRAWBERRY	1391	n/a	-1	n/a	n/a	n/a	n/a	n/a
3260.912	n/a	REC_WORD_VV	1630456	wordpools/wasnorm_wordpool_less_exclusions.txt	LTP189	ltpFR	16	16	n/a	<>	-1	n/a	n/a	n/a	n/a	n/a	n/a	n/a
3267.04	n/a	REC_WORD	1633520	wordpools/wasnorm_wordpool_less_exclusions.txt	LTP189	ltpFR	16	16	-1	SCOUT	1252	n/a	-1	n/a	n/a	n/a	n/a	n/a
3274.768	n/a	REC_WORD	1637384	wordpools/wasnorm_wordpool_less_exclusions.txt	LTP189	ltpFR	16	16	-1	LIST	830	n/a	-1	n/a	n/a	n/a	n/a	n/a
3275.76	n/a	REC_WORD	1637880	wordpools/wasnorm_wordpool_less_exclusions.txt	LTP189	ltpFR	16	16	-1	REPORT	1184	n/a	-1	n/a	n/a	n/a	n/a	n/a
3321.99	n/a	REC_START	1660995	n/a	LTP189	ltpFR	16	n/a	n/a	n/a	n/a	n/a	n/a	n/a	n/a	n/a	n/a	n/a
3322.992	n/a	FFR_REC_WORD	1661496	wordpools/wasnorm_wordpool_less_exclusions.txt	LTP189	ltpFR	16	n/a	-1	SKI	1316	n/a	-1	n/a	n/a	n/a	n/a	n/a
3323.498	n/a	FFR_REC_WORD	1661749	wordpools/wasnorm_wordpool_less_exclusions.txt	LTP189	ltpFR	16	n/a	-1	MOUNTAIN	924	n/a	-1	n/a	n/a	n/a	n/a	n/a
3324.0	n/a	FFR_REC_WORD	1662000	wordpools/wasnorm_wordpool_less_exclusions.txt	LTP189	ltpFR	16	n/a	-1	GAZELLE	628	n/a	-1	n/a	n/a	n/a	n/a	n/a
3325.348	n/a	FFR_REC_WORD	1662674	wordpools/wasnorm_wordpool_less_exclusions.txt	LTP189	ltpFR	16	n/a	n/a	ROOSTER	1209	n/a	n/a	n/a	n/a	n/a	n/a	n/a
3327.108	n/a	FFR_REC_WORD	1663554	wordpools/wasnorm_wordpool_less_exclusions.txt	LTP189	ltpFR	16	n/a	0	BOULEVARD	156	n/a	1	n/a	n/a	n/a	n/a	n/a
3329.168	n/a	FFR_REC_WORD	1664584	wordpools/wasnorm_wordpool_less_exclusions.txt	LTP189	ltpFR	16	n/a	1	NIECE	952	n/a	1	n/a	n/a	n/a	n/a	n/a
3330.336	n/a	FFR_REC_WORD	1665168	wordpools/wasnorm_wordpool_less_exclusions.txt	LTP189	ltpFR	16	n/a	1	SISTER	1312	n/a	0	n/a	n/a	n/a	n/a	n/a
3331.164	n/a	FFR_REC_WORD	1665582	wordpools/wasnorm_wordpool_less_exclusions.txt	LTP189	ltpFR	16	n/a	1	SIBLING	1301	n/a	1	n/a	n/a	n/a	n/a	n/a
3333.654	n/a	FFR_REC_WORD	1666827	wordpools/wasnorm_wordpool_less_exclusions.txt	LTP189	ltpFR	16	n/a	1	HARE	688	n/a	0	n/a	n/a	n/a	n/a	n/a
3334.288	n/a	FFR_REC_WORD	1667144	wordpools/wasnorm_wordpool_less_exclusions.txt	LTP189	ltpFR	16	n/a	1	SAW	1239	n/a	0	n/a	n/a	n/a	n/a	n/a
3335.634	n/a	FFR_REC_WORD	1667817	wordpools/wasnorm_wordpool_less_exclusions.txt	LTP189	ltpFR	16	n/a	n/a	ROOSTER	1209	n/a	n/a	n/a	n/a	n/a	n/a	n/a
3336.318	n/a	FFR_REC_WORD	1668159	wordpools/wasnorm_wordpool_less_exclusions.txt	LTP189	ltpFR	16	n/a	1	OLIVE	975	n/a	1	n/a	n/a	n/a	n/a	n/a
3337.306	n/a	FFR_REC_WORD	1668653	wordpools/wasnorm_wordpool_less_exclusions.txt	LTP189	ltpFR	16	n/a	0	CANVAS	234	n/a	1	n/a	n/a	n/a	n/a	n/a
3338.048	n/a	FFR_REC_WORD	1669024	wordpools/wasnorm_wordpool_less_exclusions.txt	LTP189	ltpFR	16	n/a	1	SANDPAPER	1231	n/a	0	n/a	n/a	n/a	n/a	n/a
3339.934	n/a	FFR_REC_WORD	1669967	wordpools/wasnorm_wordpool_less_exclusions.txt	LTP189	ltpFR	16	n/a	0	WALRUS	1585	n/a	1	n/a	n/a	n/a	n/a	n/a
3340.842	n/a	FFR_REC_WORD	1670421	wordpools/wasnorm_wordpool_less_exclusions.txt	LTP189	ltpFR	16	n/a	1	COYOTE	396	n/a	1	n/a	n/a	n/a	n/a	n/a
3341.586	n/a	FFR_REC_WORD	1670793	wordpools/wasnorm_wordpool_less_exclusions.txt	LTP189	ltpFR	16	n/a	0	STREAM	1392	n/a	1	n/a	n/a	n/a	n/a	n/a
3342.774	n/a	FFR_REC_WORD	1671387	wordpools/wasnorm_wordpool_less_exclusions.txt	LTP189	ltpFR	16	n/a	0	POOL	1103	n/a	0	n/a	n/a	n/a	n/a	n/a
3345.532	n/a	FFR_REC_WORD	1672766	wordpools/wasnorm_wordpool_less_exclusions.txt	LTP189	ltpFR	16	n/a	0	BRAKE	166	n/a	0	n/a	n/a	n/a	n/a	n/a
3347.448	n/a	FFR_REC_WORD	1673724	wordpools/wasnorm_wordpool_less_exclusions.txt	LTP189	ltpFR	16	n/a	-1	LIMOUSINE	824	n/a	-1	n/a	n/a	n/a	n/a	n/a
3349.578	n/a	FFR_REC_WORD	1674789	wordpools/wasnorm_wordpool_less_exclusions.txt	LTP189	ltpFR	16	n/a	-1	DEPUTY	450	n/a	-1	n/a	n/a	n/a	n/a	n/a
3351.294	n/a	FFR_REC_WORD	1675647	wordpools/wasnorm_wordpool_less_exclusions.txt	LTP189	ltpFR	16	n/a	-1	BEVERAGE	123	n/a	-1	n/a	n/a	n/a	n/a	n/a
3352.196	n/a	FFR_REC_WORD	1676098	wordpools/wasnorm_wordpool_less_exclusions.txt	LTP189	ltpFR	16	n/a	-1	MUG	930	n/a	-1	n/a	n/a	n/a	n/a	n/a
3353.608	n/a	FFR_REC_WORD	1676804	wordpools/wasnorm_wordpool_less_exclusions.txt	LTP189	ltpFR	16	n/a	-1	COCKTAIL	338	n/a	-1	n/a	n/a	n/a	n/a	n/a
3354.452	n/a	FFR_REC_WORD	1677226	wordpools/wasnorm_wordpool_less_exclusions.txt	LTP189	ltpFR	16	n/a	-1	GLASS	639	n/a	-1	n/a	n/a	n/a	n/a	n/a
3357.314	n/a	FFR_REC_WORD	1678657	wordpools/wasnorm_wordpool_less_exclusions.txt	LTP189	ltpFR	16	n/a	-1	FACTORY	548	n/a	-1	n/a	n/a	n/a	n/a	n/a
3369.292	n/a	FFR_REC_WORD	1684646	wordpools/wasnorm_wordpool_less_exclusions.txt	LTP189	ltpFR	16	n/a	-1	LIMOUSINE	824	n/a	-1	n/a	n/a	n/a	n/a	n/a
3373.124	n/a	FFR_REC_WORD	1686562	wordpools/wasnorm_wordpool_less_exclusions.txt	LTP189	ltpFR	16	n/a	1	YOLK	1633	n/a	0	n/a	n/a	n/a	n/a	n/a
3373.558	n/a	FFR_REC_WORD	1686779	wordpools/wasnorm_wordpool_less_exclusions.txt	LTP189	ltpFR	16	n/a	0	THESAURUS	1454	n/a	0	n/a	n/a	n/a	n/a	n/a
3374.47	n/a	FFR_REC_WORD	1687235	wordpools/wasnorm_wordpool_less_exclusions.txt	LTP189	ltpFR	16	n/a	0	WRITER	1627	n/a	0	n/a	n/a	n/a	n/a	n/a
3376.278	n/a	FFR_REC_WORD	1688139	wordpools/wasnorm_wordpool_less_exclusions.txt	LTP189	ltpFR	16	n/a	n/a	ROOSTER	1209	n/a	n/a	n/a	n/a	n/a	n/a	n/a
3378.304	n/a	FFR_REC_WORD	1689152	wordpools/wasnorm_wordpool_less_exclusions.txt	LTP189	ltpFR	16	n/a	1	BARN	89	n/a	0	n/a	n/a	n/a	n/a	n/a
3378.812	n/a	FFR_REC_WORD	1689406	wordpools/wasnorm_wordpool_less_exclusions.txt	LTP189	ltpFR	16	n/a	n/a	CANNON	232	n/a	n/a	n/a	n/a	n/a	n/a	n/a
3380.09	n/a	FFR_REC_WORD	1690045	wordpools/wasnorm_wordpool_less_exclusions.txt	LTP189	ltpFR	16	n/a	1	CHIEF	298	n/a	1	n/a	n/a	n/a	n/a	n/a
3381.256	n/a	FFR_REC_WORD	1690628	wordpools/wasnorm_wordpool_less_exclusions.txt	LTP189	ltpFR	16	n/a	1	OX	994	n/a	1	n/a	n/a	n/a	n/a	n/a
3382.174	n/a	FFR_REC_WORD	1691087	wordpools/wasnorm_wordpool_less_exclusions.txt	LTP189	ltpFR	16	n/a	1	VET	1560	n/a	1	n/a	n/a	n/a	n/a	n/a
3387.802	n/a	FFR_REC_WORD	1693901	wordpools/wasnorm_wordpool_less_exclusions.txt	LTP189	ltpFR	16	n/a	1	HOUND	724	n/a	0	n/a	n/a	n/a	n/a	n/a
3391.464	n/a	FFR_REC_WORD	1695732	wordpools/wasnorm_wordpool_less_exclusions.txt	LTP189	ltpFR	16	n/a	1	TAIL	1430	n/a	0	n/a	n/a	n/a	n/a	n/a
3393.528	n/a	FFR_REC_WORD	1696764	wordpools/wasnorm_wordpool_less_exclusions.txt	LTP189	ltpFR	16	n/a	1	BONE	148	n/a	0	n/a	n/a	n/a	n/a	n/a
3397.046	n/a	FFR_REC_WORD	1698523	wordpools/wasnorm_wordpool_less_exclusions.txt	LTP189	ltpFR	16	n/a	1	BARK	87	n/a	0	n/a	n/a	n/a	n/a	n/a
3404.428	n/a	FFR_REC_WORD	1702214	wordpools/wasnorm_wordpool_less_exclusions.txt	LTP189	ltpFR	16	n/a	0	ISLAND	745	n/a	1	n/a	n/a	n/a	n/a	n/a
3406.614	n/a	FFR_REC_WORD	1703307	wordpools/wasnorm_wordpool_less_exclusions.txt	LTP189	ltpFR	16	n/a	0	PLUMBER	1091	n/a	1	n/a	n/a	n/a	n/a	n/a
3408.724	n/a	FFR_REC_WORD	1704362	wordpools/wasnorm_wordpool_less_exclusions.txt	LTP189	ltpFR	16	n/a	0	UNDERWEAR	1537	n/a	0	n/a	n/a	n/a	n/a	n/a
3414.86	n/a	FFR_REC_WORD	1707430	wordpools/wasnorm_wordpool_less_exclusions.txt	LTP189	ltpFR	16	n/a	0	DUST	508	n/a	1	n/a	n/a	n/a	n/a	n/a
3628.768	n/a	REC_START	1814384	n/a	LTP189	ltpFR	16	1	n/a	n/a	n/a	n/a	n/a	n/a	n/a	n/a	n/a	n/a
3628.804	n/a	RECOG_TARGET	1814402	n/a	LTP189	ltpFR	16	1	-1	ROOST	1208	4	-1	n/a	n/a	n/a	n/a	n/a
3631.304	n/a	RECOG_RESP	1815652	n/a	LTP189	ltpFR	16	1	-1	ROOST	1208	n/a	-1	n/a	n/a	n/a	n/a	n/a
3632.716	n/a	RECOG_CONF	1816358	n/a	LTP189	ltpFR	16	1	-1	ROOST	1208	4	-1	n/a	n/a	n/a	n/a	n/a
3634.66	n/a	RECOG_LURE	1817330	n/a	LTP189	ltpFR	16	1	n/a	MICROPHONE	890	4	n/a	n/a	n/a	n/a	n/a	n/a
3635.444	n/a	RECOG_RESP	1817722	n/a	LTP189	ltpFR	16	1	n/a	MICROPHONE	890	n/a	n/a	n/a	n/a	n/a	n/a	n/a
3636.15	n/a	RECOG_CONF	1818075	n/a	LTP189	ltpFR	16	1	n/a	MICROPHONE	890	4	n/a	n/a	n/a	n/a	n/a	n/a
3637.872	n/a	RECOG_TARGET	1818936	n/a	LTP189	ltpFR	16	1	1	VISITOR	1573	4	3	n/a	n/a	n/a	n/a	n/a
3638.518	n/a	RECOG_RESP	1819259	n/a	LTP189	ltpFR	16	1	1	VISITOR	1573	n/a	3	n/a	n/a	n/a	n/a	n/a
3639.158	n/a	RECOG_CONF	1819579	n/a	LTP189	ltpFR	16	1	1	VISITOR	1573	4	3	n/a	n/a	n/a	n/a	n/a
3640.77	n/a	RECOG_TARGET	1820385	n/a	LTP189	ltpFR	16	1	1	TORTOISE	1486	5	1	n/a	n/a	n/a	n/a	n/a
3641.584	n/a	RECOG_RESP	1820792	n/a	LTP189	ltpFR	16	1	1	TORTOISE	1486	n/a	1	n/a	n/a	n/a	n/a	n/a
3642.202	n/a	RECOG_CONF	1821101	n/a	LTP189	ltpFR	16	1	1	TORTOISE	1486	5	1	n/a	n/a	n/a	n/a	n/a
3643.864	n/a	RECOG_TARGET	1821932	n/a	LTP189	ltpFR	16	1	0	CURB	426	4	0	n/a	n/a	n/a	n/a	n/a
3644.512	n/a	RECOG_RESP	1822256	n/a	LTP189	ltpFR	16	1	0	CURB	426	n/a	0	n/a	n/a	n/a	n/a	n/a
3645.096	n/a	RECOG_CONF	1822548	n/a	LTP189	ltpFR	16	1	0	CURB	426	4	0	n/a	n/a	n/a	n/a	n/a
3646.692	n/a	RECOG_TARGET	1823346	n/a	LTP189	ltpFR	16	1	0	COLUMN	350	4	1	n/a	n/a	n/a	n/a	n/a
3647.272	n/a	RECOG_RESP	1823636	n/a	LTP189	ltpFR	16	1	0	COLUMN	350	n/a	1	n/a	n/a	n/a	n/a	n/a
3647.882	n/a	RECOG_CONF	1823941	n/a	LTP189	ltpFR	16	1	0	COLUMN	350	4	1	n/a	n/a	n/a	n/a	n/a
3649.672	n/a	RECOG_LURE	1824836	n/a	LTP189	ltpFR	16	1	n/a	LAGOON	795	5	n/a	n/a	n/a	n/a	n/a	n/a
3650.364	n/a	RECOG_RESP	1825182	n/a	LTP189	ltpFR	16	1	n/a	LAGOON	795	n/a	n/a	n/a	n/a	n/a	n/a	n/a
3650.908	n/a	RECOG_CONF	1825454	n/a	LTP189	ltpFR	16	1	n/a	LAGOON	795	5	n/a	n/a	n/a	n/a	n/a	n/a
3652.7	n/a	RECOG_TARGET	1826350	n/a	LTP189	ltpFR	16	1	-1	JAW	751	4	-1	n/a	n/a	n/a	n/a	n/a
3653.32	n/a	RECOG_RESP	1826660	n/a	LTP189	ltpFR	16	1	-1	JAW	751	n/a	-1	n/a	n/a	n/a	n/a	n/a
3653.872	n/a	RECOG_CONF	1826936	n/a	LTP189	ltpFR	16	1	-1	JAW	751	4	-1	n/a	n/a	n/a	n/a	n/a
3655.646	n/a	RECOG_LURE	1827823	n/a	LTP189	ltpFR	16	1	n/a	REFRIGERATOR	1179	4	n/a	n/a	n/a	n/a	n/a	n/a
3656.46	n/a	RECOG_RESP	1828230	n/a	LTP189	ltpFR	16	1	n/a	REFRIGERATOR	1179	n/a	n/a	n/a	n/a	n/a	n/a	n/a
3656.982	n/a	RECOG_CONF	1828491	n/a	LTP189	ltpFR	16	1	n/a	REFRIGERATOR	1179	4	n/a	n/a	n/a	n/a	n/a	n/a
3658.744	n/a	RECOG_TARGET	1829372	n/a	LTP189	ltpFR	16	1	1	COMMUNITY	356	4	1	n/a	n/a	n/a	n/a	n/a
3659.446	n/a	RECOG_RESP	1829723	n/a	LTP189	ltpFR	16	1	1	COMMUNITY	356	n/a	1	n/a	n/a	n/a	n/a	n/a
3659.978	n/a	RECOG_CONF	1829989	n/a	LTP189	ltpFR	16	1	1	COMMUNITY	356	4	1	n/a	n/a	n/a	n/a	n/a
3661.688	n/a	RECOG_LURE	1830844	n/a	LTP189	ltpFR	16	1	n/a	MOTORCYCLE	923	4	n/a	n/a	n/a	n/a	n/a	n/a
3662.986	n/a	RECOG_RESP	1831493	n/a	LTP189	ltpFR	16	1	n/a	MOTORCYCLE	923	n/a	n/a	n/a	n/a	n/a	n/a	n/a
3663.518	n/a	RECOG_CONF	1831759	n/a	LTP189	ltpFR	16	1	n/a	MOTORCYCLE	923	4	n/a	n/a	n/a	n/a	n/a	n/a
3665.316	n/a	RECOG_TARGET	1832658	n/a	LTP189	ltpFR	16	1	1	OLIVE	975	5	1	n/a	n/a	n/a	n/a	n/a
3666.124	n/a	RECOG_RESP	1833062	n/a	LTP189	ltpFR	16	1	1	OLIVE	975	n/a	1	n/a	n/a	n/a	n/a	n/a
3666.776	n/a	RECOG_CONF	1833388	n/a	LTP189	ltpFR	16	1	1	OLIVE	975	5	1	n/a	n/a	n/a	n/a	n/a
3668.412	n/a	RECOG_LURE	1834206	n/a	LTP189	ltpFR	16	1	n/a	TANGERINE	1431	4	n/a	n/a	n/a	n/a	n/a	n/a
3669.388	n/a	RECOG_RESP	1834694	n/a	LTP189	ltpFR	16	1	n/a	TANGERINE	1431	n/a	n/a	n/a	n/a	n/a	n/a	n/a
3670.274	n/a	RECOG_CONF	1835137	n/a	LTP189	ltpFR	16	1	n/a	TANGERINE	1431	4	n/a	n/a	n/a	n/a	n/a	n/a
3671.956	n/a	RECOG_LURE	1835978	n/a	LTP189	ltpFR	16	1	n/a	WHISKERS	1605	4	n/a	n/a	n/a	n/a	n/a	n/a
3672.814	n/a	RECOG_RESP	1836407	n/a	LTP189	ltpFR	16	1	n/a	WHISKERS	1605	n/a	n/a	n/a	n/a	n/a	n/a	n/a
3673.456	n/a	RECOG_CONF	1836728	n/a	LTP189	ltpFR	16	1	n/a	WHISKERS	1605	4	n/a	n/a	n/a	n/a	n/a	n/a
3675.184	n/a	RECOG_TARGET	1837592	n/a	LTP189	ltpFR	16	1	0	PARTY	1018	4	1	n/a	n/a	n/a	n/a	n/a
3676.07	n/a	RECOG_RESP	1838035	n/a	LTP189	ltpFR	16	1	0	PARTY	1018	n/a	1	n/a	n/a	n/a	n/a	n/a
3676.674	n/a	RECOG_CONF	1838337	n/a	LTP189	ltpFR	16	1	0	PARTY	1018	4	1	n/a	n/a	n/a	n/a	n/a
3678.412	n/a	RECOG_TARGET	1839206	n/a	LTP189	ltpFR	16	1	-1	SKI	1316	5	-1	n/a	n/a	n/a	n/a	n/a
3679.078	n/a	RECOG_RESP	1839539	n/a	LTP189	ltpFR	16	1	-1	SKI	1316	n/a	-1	n/a	n/a	n/a	n/a	n/a
3679.708	n/a	RECOG_CONF	1839854	n/a	LTP189	ltpFR	16	1	-1	SKI	1316	5	-1	n/a	n/a	n/a	n/a	n/a
3681.308	n/a	RECOG_LURE	1840654	n/a	LTP189	ltpFR	16	1	n/a	CHALK	276	4	n/a	n/a	n/a	n/a	n/a	n/a
3681.952	n/a	RECOG_RESP	1840976	n/a	LTP189	ltpFR	16	1	n/a	CHALK	276	n/a	n/a	n/a	n/a	n/a	n/a	n/a
3682.52	n/a	RECOG_CONF	1841260	n/a	LTP189	ltpFR	16	1	n/a	CHALK	276	4	n/a	n/a	n/a	n/a	n/a	n/a
3684.12	n/a	RECOG_LURE	1842060	n/a	LTP189	ltpFR	16	1	n/a	CIGAR	308	3	n/a	n/a	n/a	n/a	n/a	n/a
3685.684	n/a	RECOG_RESP	1842842	n/a	LTP189	ltpFR	16	1	n/a	CIGAR	308	n/a	n/a	n/a	n/a	n/a	n/a	n/a
3686.568	n/a	RECOG_CONF	1843284	n/a	LTP189	ltpFR	16	1	n/a	CIGAR	308	3	n/a	n/a	n/a	n/a	n/a	n/a
3688.114	n/a	RECOG_TARGET	1844057	n/a	LTP189	ltpFR	16	1	1	CRICKET	408	4	1	n/a	n/a	n/a	n/a	n/a
3689.198	n/a	RECOG_RESP	1844599	n/a	LTP189	ltpFR	16	1	1	CRICKET	408	n/a	1	n/a	n/a	n/a	n/a	n/a
3689.994	n/a	RECOG_CONF	1844997	n/a	LTP189	ltpFR	16	1	1	CRICKET	408	4	1	n/a	n/a	n/a	n/a	n/a
3691.526	n/a	RECOG_TARGET	1845763	n/a	LTP189	ltpFR	16	1	-1	REPORT	1184	4	-1	n/a	n/a	n/a	n/a	n/a
3692.2	n/a	RECOG_RESP	1846100	n/a	LTP189	ltpFR	16	1	-1	REPORT	1184	n/a	-1	n/a	n/a	n/a	n/a	n/a
3692.868	n/a	RECOG_CONF	1846434	n/a	LTP189	ltpFR	16	1	-1	REPORT	1184	4	-1	n/a	n/a	n/a	n/a	n/a
3719.142	n/a	REC_START	1859571	n/a	LTP189	ltpFR	16	2	n/a	n/a	n/a	n/a	n/a	n/a	n/a	n/a	n/a	n/a
3719.168	n/a	RECOG_TARGET	1859584	n/a	LTP189	ltpFR	16	2	-1	BRUNETTE	181	4	-1	n/a	n/a	n/a	n/a	n/a
3719.78	n/a	RECOG_RESP	1859890	n/a	LTP189	ltpFR	16	2	-1	BRUNETTE	181	n/a	-1	n/a	n/a	n/a	n/a	n/a
3720.332	n/a	RECOG_CONF	1860166	n/a	LTP189	ltpFR	16	2	-1	BRUNETTE	181	4	-1	n/a	n/a	n/a	n/a	n/a
3721.914	n/a	RECOG_TARGET	1860957	n/a	LTP189	ltpFR	16	2	0	MEAL	882	4	0	n/a	n/a	n/a	n/a	n/a
3722.566	n/a	RECOG_RESP	1861283	n/a	LTP189	ltpFR	16	2	0	MEAL	882	n/a	0	n/a	n/a	n/a	n/a	n/a
3723.048	n/a	RECOG_CONF	1861524	n/a	LTP189	ltpFR	16	2	0	MEAL	882	4	0	n/a	n/a	n/a	n/a	n/a
3724.644	n/a	RECOG_LURE	1862322	n/a	LTP189	ltpFR	16	2	n/a	DOUGH	489	3	n/a	n/a	n/a	n/a	n/a	n/a
3726.116	n/a	RECOG_RESP	1863058	n/a	LTP189	ltpFR	16	2	n/a	DOUGH	489	n/a	n/a	n/a	n/a	n/a	n/a	n/a
3726.64	n/a	RECOG_CONF	1863320	n/a	LTP189	ltpFR	16	2	n/a	DOUGH	489	3	n/a	n/a	n/a	n/a	n/a	n/a
3728.322	n/a	RECOG_LURE	1864161	n/a	LTP189	ltpFR	16	2	n/a	BAY	102	3	n/a	n/a	n/a	n/a	n/a	n/a
3729.576	n/a	RECOG_RESP	1864788	n/a	LTP189	ltpFR	16	2	n/a	BAY	102	n/a	n/a	n/a	n/a	n/a	n/a	n/a
3730.244	n/a	RECOG_CONF	1865122	n/a	LTP189	ltpFR	16	2	n/a	BAY	102	3	n/a	n/a	n/a	n/a	n/a	n/a
3731.918	n/a	RECOG_TARGET	1865959	n/a	LTP189	ltpFR	16	2	0	CALENDAR	221	4	0	n/a	n/a	n/a	n/a	n/a
3732.762	n/a	RECOG_RESP	1866381	n/a	LTP189	ltpFR	16	2	0	CALENDAR	221	n/a	0	n/a	n/a	n/a	n/a	n/a
3733.416	n/a	RECOG_CONF	1866708	n/a	LTP189	ltpFR	16	2	0	CALENDAR	221	4	0	n/a	n/a	n/a	n/a	n/a
3735.096	n/a	RECOG_TARGET	1867548	n/a	LTP189	ltpFR	16	2	1	VELVET	1555	5	0	n/a	n/a	n/a	n/a	n/a
3735.826	n/a	RECOG_RESP	1867913	n/a	LTP189	ltpFR	16	2	1	VELVET	1555	n/a	0	n/a	n/a	n/a	n/a	n/a
3736.34	n/a	RECOG_CONF	1868170	n/a	LTP189	ltpFR	16	2	1	VELVET	1555	5	0	n/a	n/a	n/a	n/a	n/a
3738.074	n/a	RECOG_TARGET	1869037	n/a	LTP189	ltpFR	16	2	1	TRAITOR	1495	5	1	n/a	n/a	n/a	n/a	n/a
3738.644	n/a	RECOG_RESP	1869322	n/a	LTP189	ltpFR	16	2	1	TRAITOR	1495	n/a	1	n/a	n/a	n/a	n/a	n/a
3739.528	n/a	RECOG_CONF	1869764	n/a	LTP189	ltpFR	16	2	1	TRAITOR	1495	5	1	n/a	n/a	n/a	n/a	n/a
3741.254	n/a	RECOG_TARGET	1870627	n/a	LTP189	ltpFR	16	2	1	PIGEON	1065	5	1	n/a	n/a	n/a	n/a	n/a
3741.902	n/a	RECOG_RESP	1870951	n/a	LTP189	ltpFR	16	2	1	PIGEON	1065	n/a	1	n/a	n/a	n/a	n/a	n/a
3742.484	n/a	RECOG_CONF	1871242	n/a	LTP189	ltpFR	16	2	1	PIGEON	1065	5	1	n/a	n/a	n/a	n/a	n/a
3744.182	n/a	RECOG_TARGET	1872091	n/a	LTP189	ltpFR	16	2	1	CANYON	235	5	0	n/a	n/a	n/a	n/a	n/a
3744.808	n/a	RECOG_RESP	1872404	n/a	LTP189	ltpFR	16	2	1	CANYON	235	n/a	0	n/a	n/a	n/a	n/a	n/a
3745.408	n/a	RECOG_CONF	1872704	n/a	LTP189	ltpFR	16	2	1	CANYON	235	5	0	n/a	n/a	n/a	n/a	n/a
3746.962	n/a	RECOG_TARGET	1873481	n/a	LTP189	ltpFR	16	2	1	DECK	443	5	0	n/a	n/a	n/a	n/a	n/a
3747.65	n/a	RECOG_RESP	1873825	n/a	LTP189	ltpFR	16	2	1	DECK	443	n/a	0	n/a	n/a	n/a	n/a	n/a
3748.102	n/a	RECOG_CONF	1874051	n/a	LTP189	ltpFR	16	2	1	DECK	443	5	0	n/a	n/a	n/a	n/a	n/a
3749.924	n/a	RECOG_TARGET	1874962	n/a	LTP189	ltpFR	16	2	-1	GARLIC	624	5	-1	n/a	n/a	n/a	n/a	n/a
3750.456	n/a	RECOG_RESP	1875228	n/a	LTP189	ltpFR	16	2	-1	GARLIC	624	n/a	-1	n/a	n/a	n/a	n/a	n/a
3751.046	n/a	RECOG_CONF	1875523	n/a	LTP189	ltpFR	16	2	-1	GARLIC	624	5	-1	n/a	n/a	n/a	n/a	n/a
3752.652	n/a	RECOG_LURE	1876326	n/a	LTP189	ltpFR	16	2	n/a	SATURN	1236	5	n/a	n/a	n/a	n/a	n/a	n/a
3753.328	n/a	RECOG_RESP	1876664	n/a	LTP189	ltpFR	16	2	n/a	SATURN	1236	n/a	n/a	n/a	n/a	n/a	n/a	n/a
3753.79	n/a	RECOG_CONF	1876895	n/a	LTP189	ltpFR	16	2	n/a	SATURN	1236	5	n/a	n/a	n/a	n/a	n/a	n/a
3755.398	n/a	RECOG_TARGET	1877699	n/a	LTP189	ltpFR	16	2	1	SUN	1406	5	0	n/a	n/a	n/a	n/a	n/a
3756.118	n/a	RECOG_RESP	1878059	n/a	LTP189	ltpFR	16	2	1	SUN	1406	n/a	0	n/a	n/a	n/a	n/a	n/a
3756.676	n/a	RECOG_CONF	1878338	n/a	LTP189	ltpFR	16	2	1	SUN	1406	5	0	n/a	n/a	n/a	n/a	n/a
3758.344	n/a	RECOG_TARGET	1879172	n/a	LTP189	ltpFR	16	2	0	FRIEND	606	4	1	n/a	n/a	n/a	n/a	n/a
3761.224	n/a	RECOG_RESP	1880612	n/a	LTP189	ltpFR	16	2	0	FRIEND	606	n/a	1	n/a	n/a	n/a	n/a	n/a
3761.77	n/a	RECOG_CONF	1880885	n/a	LTP189	ltpFR	16	2	0	FRIEND	606	4	1	n/a	n/a	n/a	n/a	n/a
3763.57	n/a	RECOG_TARGET	1881785	n/a	LTP189	ltpFR	16	2	0	DEPARTMENT	449	4	1	n/a	n/a	n/a	n/a	n/a
3764.342	n/a	RECOG_RESP	1882171	n/a	LTP189	ltpFR	16	2	0	DEPARTMENT	449	n/a	1	n/a	n/a	n/a	n/a	n/a
3764.846	n/a	RECOG_CONF	1882423	n/a	LTP189	ltpFR	16	2	0	DEPARTMENT	449	4	1	n/a	n/a	n/a	n/a	n/a
3766.616	n/a	RECOG_TARGET	1883308	n/a	LTP189	ltpFR	16	2	1	DIAL	457	2	0	n/a	n/a	n/a	n/a	n/a
3768.296	n/a	RECOG_RESP_VV	1884148	n/a	LTP189	ltpFR	16	2	1	DIAL	457	n/a	0	n/a	n/a	n/a	n/a	n/a
3771.0	n/a	RECOG_RESP	1885500	n/a	LTP189	ltpFR	16	2	1	DIAL	457	n/a	0	n/a	n/a	n/a	n/a	n/a
3772.062	n/a	RECOG_CONF	1886031	n/a	LTP189	ltpFR	16	2	1	DIAL	457	2	0	n/a	n/a	n/a	n/a	n/a
3773.806	n/a	RECOG_TARGET	1886903	n/a	LTP189	ltpFR	16	2	-1	STOOL	1386	4	-1	n/a	n/a	n/a	n/a	n/a
3774.912	n/a	RECOG_RESP	1887456	n/a	LTP189	ltpFR	16	2	-1	STOOL	1386	n/a	-1	n/a	n/a	n/a	n/a	n/a
3775.48	n/a	RECOG_CONF	1887740	n/a	LTP189	ltpFR	16	2	-1	STOOL	1386	4	-1	n/a	n/a	n/a	n/a	n/a
3776.884	n/a	RECOG_TARGET	1888442	n/a	LTP189	ltpFR	16	2	-1	DINNER	468	5	-1	n/a	n/a	n/a	n/a	n/a
3777.686	n/a	RECOG_RESP	1888843	n/a	LTP189	ltpFR	16	2	-1	DINNER	468	n/a	-1	n/a	n/a	n/a	n/a	n/a
3778.194	n/a	RECOG_CONF	1889097	n/a	LTP189	ltpFR	16	2	-1	DINNER	468	5	-1	n/a	n/a	n/a	n/a	n/a
3779.846	n/a	RECOG_TARGET	1889923	n/a	LTP189	ltpFR	16	2	0	ROCKET	1202	5	1	n/a	n/a	n/a	n/a	n/a
3780.774	n/a	RECOG_RESP_VV	1890387	n/a	LTP189	ltpFR	16	2	0	ROCKET	1202	n/a	1	n/a	n/a	n/a	n/a	n/a
3781.296	n/a	RECOG_RESP_VV	1890648	n/a	LTP189	ltpFR	16	2	0	ROCKET	1202	5	1	n/a	n/a	n/a	n/a	n/a
3782.22	n/a	RECOG_RESP	1891110	n/a	LTP189	ltpFR	16	2	0	ROCKET	1202	n/a	1	n/a	n/a	n/a	n/a	n/a
3783.364	n/a	RECOG_CONF	1891682	n/a	LTP189	ltpFR	16	2	0	ROCKET	1202	5	1	n/a	n/a	n/a	n/a	n/a
3785.32	n/a	RECOG_TARGET	1892660	n/a	LTP189	ltpFR	16	2	0	CANVAS	234	4	1	n/a	n/a	n/a	n/a	n/a
3786.132	n/a	RECOG_RESP	1893066	n/a	LTP189	ltpFR	16	2	0	CANVAS	234	n/a	1	n/a	n/a	n/a	n/a	n/a
3786.954	n/a	RECOG_CONF	1893477	n/a	LTP189	ltpFR	16	2	0	CANVAS	234	4	1	n/a	n/a	n/a	n/a	n/a
3796.56	n/a	REC_START	1898280	n/a	LTP189	ltpFR	16	3	n/a	n/a	n/a	n/a	n/a	n/a	n/a	n/a	n/a	n/a
3796.588	n/a	RECOG_TARGET	1898294	n/a	LTP189	ltpFR	16	3	0	JELLO	754	2	0	n/a	n/a	n/a	n/a	n/a
3797.778	n/a	RECOG_RESP	1898889	n/a	LTP189	ltpFR	16	3	0	JELLO	754	n/a	0	n/a	n/a	n/a	n/a	n/a
3798.91	n/a	RECOG_CONF	1899455	n/a	LTP189	ltpFR	16	3	0	JELLO	754	2	0	n/a	n/a	n/a	n/a	n/a
3800.716	n/a	RECOG_TARGET	1900358	n/a	LTP189	ltpFR	16	3	0	MAT	877	1	0	n/a	n/a	n/a	n/a	n/a
3801.654	n/a	RECOG_RESP	1900827	n/a	LTP189	ltpFR	16	3	0	MAT	877	n/a	0	n/a	n/a	n/a	n/a	n/a
3802.522	n/a	RECOG_CONF	1901261	n/a	LTP189	ltpFR	16	3	0	MAT	877	1	0	n/a	n/a	n/a	n/a	n/a
3804.276	n/a	RECOG_TARGET	1902138	n/a	LTP189	ltpFR	16	3	0	LITERATURE	831	3	1	n/a	n/a	n/a	n/a	n/a
3805.304	n/a	RECOG_RESP	1902652	n/a	LTP189	ltpFR	16	3	0	LITERATURE	831	n/a	1	n/a	n/a	n/a	n/a	n/a
3806.104	n/a	RECOG_CONF	1903052	n/a	LTP189	ltpFR	16	3	0	LITERATURE	831	3	1	n/a	n/a	n/a	n/a	n/a
3807.772	n/a	RECOG_TARGET	1903886	n/a	LTP189	ltpFR	16	3	1	AUTOMOBILE	62	4	0	n/a	n/a	n/a	n/a	n/a
3808.332	n/a	RECOG_RESP	1904166	n/a	LTP189	ltpFR	16	3	1	AUTOMOBILE	62	n/a	0	n/a	n/a	n/a	n/a	n/a
3808.942	n/a	RECOG_CONF	1904471	n/a	LTP189	ltpFR	16	3	1	AUTOMOBILE	62	4	0	n/a	n/a	n/a	n/a	n/a
3810.668	n/a	RECOG_LURE	1905334	n/a	LTP189	ltpFR	16	3	n/a	GENTLEMAN	631	2	n/a	n/a	n/a	n/a	n/a	n/a
3811.35	n/a	RECOG_RESP	1905675	n/a	LTP189	ltpFR	16	3	n/a	GENTLEMAN	631	n/a	n/a	n/a	n/a	n/a	n/a	n/a
3811.948	n/a	RECOG_RESP_VV	1905974	n/a	LTP189	ltpFR	16	3	n/a	GENTLEMAN	631	5	n/a	n/a	n/a	n/a	n/a	n/a
3816.262	n/a	RECOG_CONF	1908131	n/a	LTP189	ltpFR	16	3	n/a	GENTLEMAN	631	2	n/a	n/a	n/a	n/a	n/a	n/a
3818.072	n/a	RECOG_LURE	1909036	n/a	LTP189	ltpFR	16	3	n/a	WARDROBE	1587	4	n/a	n/a	n/a	n/a	n/a	n/a
3820.28	n/a	RECOG_RESP_VV	1910140	n/a	LTP189	ltpFR	16	3	n/a	WARDROBE	1587	n/a	n/a	n/a	n/a	n/a	n/a	n/a
3821.726	n/a	RECOG_RESP	1910863	n/a	LTP189	ltpFR	16	3	n/a	WARDROBE	1587	n/a	n/a	n/a	n/a	n/a	n/a	n/a
3822.496	n/a	RECOG_CONF	1911248	n/a	LTP189	ltpFR	16	3	n/a	WARDROBE	1587	4	n/a	n/a	n/a	n/a	n/a	n/a
3824.564	n/a	RECOG_TARGET	1912282	n/a	LTP189	ltpFR	16	3	0	SKIRT	1319	4	0	n/a	n/a	n/a	n/a	n/a
3825.376	n/a	RECOG_RESP	1912688	n/a	LTP189	ltpFR	16	3	0	SKIRT	1319	n/a	0	n/a	n/a	n/a	n/a	n/a
3825.986	n/a	RECOG_CONF	1912993	n/a	LTP189	ltpFR	16	3	0	SKIRT	1319	4	0	n/a	n/a	n/a	n/a	n/a
3827.658	n/a	RECOG_TARGET	1913829	n/a	LTP189	ltpFR	16	3	0	HOOD	714	4	0	n/a	n/a	n/a	n/a	n/a
3828.754	n/a	RECOG_RESP_VV	1914377	n/a	LTP189	ltpFR	16	3	0	HOOD	714	n/a	0	n/a	n/a	n/a	n/a	n/a
3830.574	n/a	RECOG_RESP	1915287	n/a	LTP189	ltpFR	16	3	0	HOOD	714	n/a	0	n/a	n/a	n/a	n/a	n/a
3831.866	n/a	RECOG_CONF	1915933	n/a	LTP189	ltpFR	16	3	0	HOOD	714	4	0	n/a	n/a	n/a	n/a	n/a
3833.434	n/a	RECOG_TARGET	1916717	n/a	LTP189	ltpFR	16	3	-1	MUG	930	4	-1	n/a	n/a	n/a	n/a	n/a
3834.318	n/a	RECOG_RESP	1917159	n/a	LTP189	ltpFR	16	3	-1	MUG	930	n/a	-1	n/a	n/a	n/a	n/a	n/a
3834.952	n/a	RECOG_CONF	1917476	n/a	LTP189	ltpFR	16	3	-1	MUG	930	4	-1	n/a	n/a	n/a	n/a	n/a
3836.678	n/a	RECOG_LURE	1918339	n/a	LTP189	ltpFR	16	3	n/a	KETTLE	772	5	n/a	n/a	n/a	n/a	n/a	n/a
3837.51	n/a	RECOG_RESP	1918755	n/a	LTP189	ltpFR	16	3	n/a	KETTLE	772	n/a	n/a	n/a	n/a	n/a	n/a	n/a
3838.116	n/a	RECOG_CONF	1919058	n/a	LTP189	ltpFR	16	3	n/a	KETTLE	772	5	n/a	n/a	n/a	n/a	n/a	n/a
3839.84	n/a	RECOG_LURE	1919920	n/a	LTP189	ltpFR	16	3	n/a	RELATIVE	1182	1	n/a	n/a	n/a	n/a	n/a	n/a
3840.53	n/a	RECOG_RESP	1920265	n/a	LTP189	ltpFR	16	3	n/a	RELATIVE	1182	n/a	n/a	n/a	n/a	n/a	n/a	n/a
3841.844	n/a	RECOG_CONF	1920922	n/a	LTP189	ltpFR	16	3	n/a	RELATIVE	1182	1	n/a	n/a	n/a	n/a	n/a	n/a
3843.652	n/a	RECOG_TARGET	1921826	n/a	LTP189	ltpFR	16	3	1	NIECE	952	4	1	n/a	n/a	n/a	n/a	n/a
3844.51	n/a	RECOG_RESP	1922255	n/a	LTP189	ltpFR	16	3	1	NIECE	952	n/a	1	n/a	n/a	n/a	n/a	n/a
3845.12	n/a	RECOG_CONF	1922560	n/a	LTP189	ltpFR	16	3	1	NIECE	952	4	1	n/a	n/a	n/a	n/a	n/a
3847.046	n/a	RECOG_TARGET	1923523	n/a	LTP189	ltpFR	16	3	-1	ARENA	37	5	-1	n/a	n/a	n/a	n/a	n/a
3847.786	n/a	RECOG_RESP	1923893	n/a	LTP189	ltpFR	16	3	-1	ARENA	37	n/a	-1	n/a	n/a	n/a	n/a	n/a
3848.346	n/a	RECOG_CONF	1924173	n/a	LTP189	ltpFR	16	3	-1	ARENA	37	5	-1	n/a	n/a	n/a	n/a	n/a
3850.142	n/a	RECOG_TARGET	1925071	n/a	LTP189	ltpFR	16	3	1	SANDPAPER	1231	4	0	n/a	n/a	n/a	n/a	n/a
3850.854	n/a	RECOG_RESP	1925427	n/a	LTP189	ltpFR	16	3	1	SANDPAPER	1231	n/a	0	n/a	n/a	n/a	n/a	n/a
3851.428	n/a	RECOG_CONF	1925714	n/a	LTP189	ltpFR	16	3	1	SANDPAPER	1231	4	0	n/a	n/a	n/a	n/a	n/a
3853.288	n/a	RECOG_TARGET	1926644	n/a	LTP189	ltpFR	16	3	0	PORCH	1106	4	0	n/a	n/a	n/a	n/a	n/a
3854.056	n/a	RECOG_RESP	1927028	n/a	LTP189	ltpFR	16	3	0	PORCH	1106	n/a	0	n/a	n/a	n/a	n/a	n/a
3854.774	n/a	RECOG_CONF	1927387	n/a	LTP189	ltpFR	16	3	0	PORCH	1106	4	0	n/a	n/a	n/a	n/a	n/a
3856.432	n/a	RECOG_LURE	1928216	n/a	LTP189	ltpFR	16	3	n/a	JAPAN	749	5	n/a	n/a	n/a	n/a	n/a	n/a
3857.466	n/a	RECOG_RESP	1928733	n/a	LTP189	ltpFR	16	3	n/a	JAPAN	749	n/a	n/a	n/a	n/a	n/a	n/a	n/a
3858.05	n/a	RECOG_CONF	1929025	n/a	LTP189	ltpFR	16	3	n/a	JAPAN	749	5	n/a	n/a	n/a	n/a	n/a	n/a
3859.894	n/a	RECOG_LURE	1929947	n/a	LTP189	ltpFR	16	3	n/a	ROUGE	1213	3	n/a	n/a	n/a	n/a	n/a	n/a
3860.806	n/a	RECOG_RESP	1930403	n/a	LTP189	ltpFR	16	3	n/a	ROUGE	1213	n/a	n/a	n/a	n/a	n/a	n/a	n/a
3861.518	n/a	RECOG_CONF	1930759	n/a	LTP189	ltpFR	16	3	n/a	ROUGE	1213	3	n/a	n/a	n/a	n/a	n/a	n/a
3863.256	n/a	RECOG_TARGET	1931628	n/a	LTP189	ltpFR	16	3	0	VESSEL	1558	4	1	n/a	n/a	n/a	n/a	n/a
3863.914	n/a	RECOG_RESP_VV	1931957	n/a	LTP189	ltpFR	16	3	0	VESSEL	1558	n/a	1	n/a	n/a	n/a	n/a	n/a
3864.588	n/a	RECOG_RESP	1932294	n/a	LTP189	ltpFR	16	3	0	VESSEL	1558	n/a	1	n/a	n/a	n/a	n/a	n/a
3865.214	n/a	RECOG_CONF	1932607	n/a	LTP189	ltpFR	16	3	0	VESSEL	1558	4	1	n/a	n/a	n/a	n/a	n/a
3867.182	n/a	RECOG_TARGET	1933591	n/a	LTP189	ltpFR	16	3	-1	JEWEL	757	5	-1	n/a	n/a	n/a	n/a	n/a
3867.828	n/a	RECOG_RESP	1933914	n/a	LTP189	ltpFR	16	3	-1	JEWEL	757	n/a	-1	n/a	n/a	n/a	n/a	n/a
3868.328	n/a	RECOG_CONF	1934164	n/a	LTP189	ltpFR	16	3	-1	JEWEL	757	5	-1	n/a	n/a	n/a	n/a	n/a
3870.046	n/a	RECOG_TARGET	1935023	n/a	LTP189	ltpFR	16	3	1	NAIL	936	4	0	n/a	n/a	n/a	n/a	n/a
3870.6	n/a	RECOG_RESP	1935300	n/a	LTP189	ltpFR	16	3	1	NAIL	936	n/a	0	n/a	n/a	n/a	n/a	n/a
3871.932	n/a	RECOG_CONF	1935966	n/a	LTP189	ltpFR	16	3	1	NAIL	936	4	0	n/a	n/a	n/a	n/a	n/a
3881.652	n/a	REC_START	1940826	n/a	LTP189	ltpFR	16	4	n/a	n/a	n/a	n/a	n/a	n/a	n/a	n/a	n/a	n/a
3881.678	n/a	RECOG_TARGET	1940839	n/a	LTP189	ltpFR	16	4	0	WINNER	1615	4	1	n/a	n/a	n/a	n/a	n/a
3882.642	n/a	RECOG_RESP	1941321	n/a	LTP189	ltpFR	16	4	0	WINNER	1615	n/a	1	n/a	n/a	n/a	n/a	n/a
3883.298	n/a	RECOG_CONF	1941649	n/a	LTP189	ltpFR	16	4	0	WINNER	1615	4	1	n/a	n/a	n/a	n/a	n/a
3884.89	n/a	RECOG_LURE	1942445	n/a	LTP189	ltpFR	16	4	n/a	GORILLA	650	3	n/a	n/a	n/a	n/a	n/a	n/a
3885.61	n/a	RECOG_RESP	1942805	n/a	LTP189	ltpFR	16	4	n/a	GORILLA	650	n/a	n/a	n/a	n/a	n/a	n/a	n/a
3886.214	n/a	RECOG_CONF	1943107	n/a	LTP189	ltpFR	16	4	n/a	GORILLA	650	3	n/a	n/a	n/a	n/a	n/a	n/a
3887.836	n/a	RECOG_TARGET	1943918	n/a	LTP189	ltpFR	16	4	0	BAND	78	4	1	n/a	n/a	n/a	n/a	n/a
3888.538	n/a	RECOG_RESP	1944269	n/a	LTP189	ltpFR	16	4	0	BAND	78	n/a	1	n/a	n/a	n/a	n/a	n/a
3889.05	n/a	RECOG_CONF	1944525	n/a	LTP189	ltpFR	16	4	0	BAND	78	4	1	n/a	n/a	n/a	n/a	n/a
3890.75	n/a	RECOG_TARGET	1945375	n/a	LTP189	ltpFR	16	4	1	TOOTH	1481	3	0	n/a	n/a	n/a	n/a	n/a
3891.508	n/a	RECOG_RESP	1945754	n/a	LTP189	ltpFR	16	4	1	TOOTH	1481	n/a	0	n/a	n/a	n/a	n/a	n/a
3892.17	n/a	RECOG_CONF	1946085	n/a	LTP189	ltpFR	16	4	1	TOOTH	1481	3	0	n/a	n/a	n/a	n/a	n/a
3893.71	n/a	RECOG_TARGET	1946855	n/a	LTP189	ltpFR	16	4	1	SAW	1239	4	0	n/a	n/a	n/a	n/a	n/a
3894.362	n/a	RECOG_RESP	1947181	n/a	LTP189	ltpFR	16	4	1	SAW	1239	n/a	0	n/a	n/a	n/a	n/a	n/a
3895.046	n/a	RECOG_CONF	1947523	n/a	LTP189	ltpFR	16	4	1	SAW	1239	4	0	n/a	n/a	n/a	n/a	n/a
3896.774	n/a	RECOG_TARGET	1948387	n/a	LTP189	ltpFR	16	4	0	PLUMBER	1091	5	1	n/a	n/a	n/a	n/a	n/a
3897.386	n/a	RECOG_RESP	1948693	n/a	LTP189	ltpFR	16	4	0	PLUMBER	1091	n/a	1	n/a	n/a	n/a	n/a	n/a
3897.922	n/a	RECOG_CONF	1948961	n/a	LTP189	ltpFR	16	4	0	PLUMBER	1091	5	1	n/a	n/a	n/a	n/a	n/a
3899.686	n/a	RECOG_TARGET	1949843	n/a	LTP189	ltpFR	16	4	1	DICTATOR	462	5	0	n/a	n/a	n/a	n/a	n/a
3900.372	n/a	RECOG_RESP	1950186	n/a	LTP189	ltpFR	16	4	1	DICTATOR	462	n/a	0	n/a	n/a	n/a	n/a	n/a
3901.084	n/a	RECOG_CONF	1950542	n/a	LTP189	ltpFR	16	4	1	DICTATOR	462	5	0	n/a	n/a	n/a	n/a	n/a
3902.598	n/a	RECOG_TARGET	1951299	n/a	LTP189	ltpFR	16	4	0	TAXI	1438	4	1	n/a	n/a	n/a	n/a	n/a
3903.196	n/a	RECOG_RESP	1951598	n/a	LTP189	ltpFR	16	4	0	TAXI	1438	n/a	1	n/a	n/a	n/a	n/a	n/a
3903.718	n/a	RECOG_CONF	1951859	n/a	LTP189	ltpFR	16	4	0	TAXI	1438	4	1	n/a	n/a	n/a	n/a	n/a
3905.326	n/a	RECOG_TARGET	1952663	n/a	LTP189	ltpFR	16	4	1	YACHT	1629	4	0	n/a	n/a	n/a	n/a	n/a
3905.89	n/a	RECOG_RESP	1952945	n/a	LTP189	ltpFR	16	4	1	YACHT	1629	n/a	0	n/a	n/a	n/a	n/a	n/a
3906.5	n/a	RECOG_CONF	1953250	n/a	LTP189	ltpFR	16	4	1	YACHT	1629	4	0	n/a	n/a	n/a	n/a	n/a
3908.006	n/a	RECOG_TARGET	1954003	n/a	LTP189	ltpFR	16	4	-1	FOOT	590	3	-1	n/a	n/a	n/a	n/a	n/a
3908.77	n/a	RECOG_RESP	1954385	n/a	LTP189	ltpFR	16	4	-1	FOOT	590	n/a	-1	n/a	n/a	n/a	n/a	n/a
3909.288	n/a	RECOG_CONF	1954644	n/a	LTP189	ltpFR	16	4	-1	FOOT	590	3	-1	n/a	n/a	n/a	n/a	n/a
3910.918	n/a	RECOG_TARGET	1955459	n/a	LTP189	ltpFR	16	4	0	COBBLER	335	4	1	n/a	n/a	n/a	n/a	n/a
3911.41	n/a	RECOG_RESP	1955705	n/a	LTP189	ltpFR	16	4	0	COBBLER	335	n/a	1	n/a	n/a	n/a	n/a	n/a
3911.958	n/a	RECOG_CONF	1955979	n/a	LTP189	ltpFR	16	4	0	COBBLER	335	4	1	n/a	n/a	n/a	n/a	n/a
3913.782	n/a	RECOG_TARGET	1956891	n/a	LTP189	ltpFR	16	4	1	BANKER	84	5	1	n/a	n/a	n/a	n/a	n/a
3914.338	n/a	RECOG_RESP	1957169	n/a	LTP189	ltpFR	16	4	1	BANKER	84	n/a	1	n/a	n/a	n/a	n/a	n/a
3914.822	n/a	RECOG_CONF	1957411	n/a	LTP189	ltpFR	16	4	1	BANKER	84	5	1	n/a	n/a	n/a	n/a	n/a
3916.744	n/a	RECOG_TARGET	1958372	n/a	LTP189	ltpFR	16	4	0	OCEAN	970	3	1	n/a	n/a	n/a	n/a	n/a
3917.528	n/a	RECOG_RESP	1958764	n/a	LTP189	ltpFR	16	4	0	OCEAN	970	n/a	1	n/a	n/a	n/a	n/a	n/a
3918.596	n/a	RECOG_CONF	1959298	n/a	LTP189	ltpFR	16	4	0	OCEAN	970	3	1	n/a	n/a	n/a	n/a	n/a
3920.172	n/a	RECOG_TARGET	1960086	n/a	LTP189	ltpFR	16	4	1	SIBLING	1301	3	1	n/a	n/a	n/a	n/a	n/a
3920.862	n/a	RECOG_RESP	1960431	n/a	LTP189	ltpFR	16	4	1	SIBLING	1301	n/a	1	n/a	n/a	n/a	n/a	n/a
