onset	duration	trial_type	sample	stim_file	subject	experiment	session	trial	task	item_name	item_num	recog_conf	resp	color_b	color_g	color_r	case	font
357.792	n/a	SESS_START	178896	n/a	LTP206	ltpFR	0	n/a	n/a	n/a	n/a	2	n/a	n/a	n/a	n/a	n/a	n/a
572.718	n/a	WORD	286359	wordpools/wasnorm_wordpool_less_exclusions.txt	LTP206	ltpFR	0	1	-1	PIKE	1067	n/a	-1	1	1.0	1.0	upper	../fonts/Verdana.ttf
576.884	n/a	WORD	288442	wordpools/wasnorm_wordpool_less_exclusions.txt	LTP206	ltpFR	0	1	-1	MULE	931	n/a	-1	1	1.0	1.0	upper	../fonts/Verdana.ttf
580.85	n/a	WORD	290425	wordpools/wasnorm_wordpool_less_exclusions.txt	LTP206	ltpFR	0	1	-1	STALLION	1369	n/a	-1	1	1.0	1.0	upper	../fonts/Verdana.ttf
584.68	n/a	WORD	292340	wordpools/wasnorm_wordpool_less_exclusions.txt	LTP206	ltpFR	0	1	-1	FAUCET	555	n/a	-1	1	1.0	1.0	upper	../fonts/Verdana.ttf
588.51	n/a	WORD	294255	wordpools/wasnorm_wordpool_less_exclusions.txt	LTP206	ltpFR	0	1	-1	BEAVER	109	n/a	-1	1	1.0	1.0	upper	../fonts/Verdana.ttf
592.528	n/a	WORD	296264	wordpools/wasnorm_wordpool_less_exclusions.txt	LTP206	ltpFR	0	1	-1	FENCE	560	n/a	-1	1	1.0	1.0	upper	../fonts/Verdana.ttf
596.492	n/a	WORD	298246	wordpools/wasnorm_wordpool_less_exclusions.txt	LTP206	ltpFR	0	1	-1	SHACK	1273	n/a	-1	1	1.0	1.0	upper	../fonts/Verdana.ttf
600.44	n/a	WORD	300220	wordpools/wasnorm_wordpool_less_exclusions.txt	LTP206	ltpFR	0	1	-1	APARTMENT	30	n/a	-1	1	1.0	1.0	upper	../fonts/Verdana.ttf
604.322	n/a	WORD	302161	wordpools/wasnorm_wordpool_less_exclusions.txt	LTP206	ltpFR	0	1	-1	LADY	794	n/a	-1	1	1.0	1.0	upper	../fonts/Verdana.ttf
608.454	n/a	WORD	304227	wordpools/wasnorm_wordpool_less_exclusions.txt	LTP206	ltpFR	0	1	-1	CLAY	320	n/a	-1	1	1.0	1.0	upper	../fonts/Verdana.ttf
612.602	n/a	WORD	306301	wordpools/wasnorm_wordpool_less_exclusions.txt	LTP206	ltpFR	0	1	-1	SUBMARINE	1398	n/a	-1	1	1.0	1.0	upper	../fonts/Verdana.ttf
616.77	n/a	WORD	308385	wordpools/wasnorm_wordpool_less_exclusions.txt	LTP206	ltpFR	0	1	-1	BAY	102	n/a	-1	1	1.0	1.0	upper	../fonts/Verdana.ttf
620.9	n/a	WORD	310450	wordpools/wasnorm_wordpool_less_exclusions.txt	LTP206	ltpFR	0	1	-1	MAT	877	n/a	-1	1	1.0	1.0	upper	../fonts/Verdana.ttf
625.05	n/a	WORD	312525	wordpools/wasnorm_wordpool_less_exclusions.txt	LTP206	ltpFR	0	1	-1	CAT	257	n/a	-1	1	1.0	1.0	upper	../fonts/Verdana.ttf
628.95	n/a	WORD	314475	wordpools/wasnorm_wordpool_less_exclusions.txt	LTP206	ltpFR	0	1	-1	GRASSHOPPER	656	n/a	-1	1	1.0	1.0	upper	../fonts/Verdana.ttf
633.148	n/a	WORD	316574	wordpools/wasnorm_wordpool_less_exclusions.txt	LTP206	ltpFR	0	1	-1	CELERY	266	n/a	-1	1	1.0	1.0	upper	../fonts/Verdana.ttf
639.056	n/a	REC_START	319528	n/a	LTP206	ltpFR	0	1	n/a	n/a	n/a	n/a	n/a	n/a	n/a	n/a	n/a	n/a
641.37	n/a	REC_WORD	320685	wordpools/wasnorm_wordpool_less_exclusions.txt	LTP206	ltpFR	0	1	-1	MULE	931	n/a	-1	n/a	n/a	n/a	n/a	n/a
644.268	n/a	REC_WORD	322134	wordpools/wasnorm_wordpool_less_exclusions.txt	LTP206	ltpFR	0	1	-1	CELERY	266	n/a	-1	n/a	n/a	n/a	n/a	n/a
646.06	n/a	REC_WORD	323030	wordpools/wasnorm_wordpool_less_exclusions.txt	LTP206	ltpFR	0	1	-1	SUBMARINE	1398	n/a	-1	n/a	n/a	n/a	n/a	n/a
648.724	n/a	REC_WORD	324362	wordpools/wasnorm_wordpool_less_exclusions.txt	LTP206	ltpFR	0	1	-1	APARTMENT	30	n/a	-1	n/a	n/a	n/a	n/a	n/a
650.62	n/a	REC_WORD	325310	wordpools/wasnorm_wordpool_less_exclusions.txt	LTP206	ltpFR	0	1	-1	LADY	794	n/a	-1	n/a	n/a	n/a	n/a	n/a
654.506	n/a	REC_WORD	327253	wordpools/wasnorm_wordpool_less_exclusions.txt	LTP206	ltpFR	0	1	-1	FENCE	560	n/a	-1	n/a	n/a	n/a	n/a	n/a
673.508	n/a	REC_WORD	336754	wordpools/wasnorm_wordpool_less_exclusions.txt	LTP206	ltpFR	0	1	-1	GRASSHOPPER	656	n/a	-1	n/a	n/a	n/a	n/a	n/a
686.64	n/a	REC_WORD	343320	wordpools/wasnorm_wordpool_less_exclusions.txt	LTP206	ltpFR	0	1	-1	FAUCET	555	n/a	-1	n/a	n/a	n/a	n/a	n/a
693.256	n/a	REC_WORD	346628	wordpools/wasnorm_wordpool_less_exclusions.txt	LTP206	ltpFR	0	1	n/a	KITCHEN	778	n/a	n/a	n/a	n/a	n/a	n/a	n/a
727.276	n/a	WORD	363638	wordpools/wasnorm_wordpool_less_exclusions.txt	LTP206	ltpFR	0	2	-1	ACORN	3	n/a	-1	1	1.0	1.0	upper	../fonts/Verdana.ttf
731.122	n/a	WORD	365561	wordpools/wasnorm_wordpool_less_exclusions.txt	LTP206	ltpFR	0	2	-1	VALVE	1546	n/a	-1	1	1.0	1.0	upper	../fonts/Verdana.ttf
735.238	n/a	WORD	367619	wordpools/wasnorm_wordpool_less_exclusions.txt	LTP206	ltpFR	0	2	-1	OLIVE	975	n/a	-1	1	1.0	1.0	upper	../fonts/Verdana.ttf
739.304	n/a	WORD	369652	wordpools/wasnorm_wordpool_less_exclusions.txt	LTP206	ltpFR	0	2	-1	GREASE	660	n/a	-1	1	1.0	1.0	upper	../fonts/Verdana.ttf
743.304	n/a	WORD	371652	wordpools/wasnorm_wordpool_less_exclusions.txt	LTP206	ltpFR	0	2	-1	TWIG	1527	n/a	-1	1	1.0	1.0	upper	../fonts/Verdana.ttf
747.268	n/a	WORD	373634	wordpools/wasnorm_wordpool_less_exclusions.txt	LTP206	ltpFR	0	2	-1	POCKET	1093	n/a	-1	1	1.0	1.0	upper	../fonts/Verdana.ttf
751.116	n/a	WORD	375558	wordpools/wasnorm_wordpool_less_exclusions.txt	LTP206	ltpFR	0	2	-1	MUSTARD	935	n/a	-1	1	1.0	1.0	upper	../fonts/Verdana.ttf
755.146	n/a	WORD	377573	wordpools/wasnorm_wordpool_less_exclusions.txt	LTP206	ltpFR	0	2	-1	CANOE	233	n/a	-1	1	1.0	1.0	upper	../fonts/Verdana.ttf
759.13	n/a	WORD	379565	wordpools/wasnorm_wordpool_less_exclusions.txt	LTP206	ltpFR	0	2	-1	CREEK	404	n/a	-1	1	1.0	1.0	upper	../fonts/Verdana.ttf
763.196	n/a	WORD	381598	wordpools/wasnorm_wordpool_less_exclusions.txt	LTP206	ltpFR	0	2	-1	SOCIETY	1338	n/a	-1	1	1.0	1.0	upper	../fonts/Verdana.ttf
767.394	n/a	WORD	383697	wordpools/wasnorm_wordpool_less_exclusions.txt	LTP206	ltpFR	0	2	-1	COAL	332	n/a	-1	1	1.0	1.0	upper	../fonts/Verdana.ttf
771.26	n/a	WORD	385630	wordpools/wasnorm_wordpool_less_exclusions.txt	LTP206	ltpFR	0	2	-1	MINER	896	n/a	-1	1	1.0	1.0	upper	../fonts/Verdana.ttf
775.408	n/a	WORD	387704	wordpools/wasnorm_wordpool_less_exclusions.txt	LTP206	ltpFR	0	2	-1	BOSS	152	n/a	-1	1	1.0	1.0	upper	../fonts/Verdana.ttf
779.592	n/a	WORD	389796	wordpools/wasnorm_wordpool_less_exclusions.txt	LTP206	ltpFR	0	2	-1	SAP	1233	n/a	-1	1	1.0	1.0	upper	../fonts/Verdana.ttf
783.524	n/a	WORD	391762	wordpools/wasnorm_wordpool_less_exclusions.txt	LTP206	ltpFR	0	2	-1	PANTS	1010	n/a	-1	1	1.0	1.0	upper	../fonts/Verdana.ttf
787.706	n/a	WORD	393853	wordpools/wasnorm_wordpool_less_exclusions.txt	LTP206	ltpFR	0	2	-1	WAVE	1596	n/a	-1	1	1.0	1.0	upper	../fonts/Verdana.ttf
793.562	n/a	REC_START	396781	n/a	LTP206	ltpFR	0	2	n/a	n/a	n/a	n/a	n/a	n/a	n/a	n/a	n/a	n/a
795.712	n/a	REC_WORD	397856	wordpools/wasnorm_wordpool_less_exclusions.txt	LTP206	ltpFR	0	2	-1	WAVE	1596	n/a	-1	n/a	n/a	n/a	n/a	n/a
798.706	n/a	REC_WORD	399353	wordpools/wasnorm_wordpool_less_exclusions.txt	LTP206	ltpFR	0	2	-1	MINER	896	n/a	-1	n/a	n/a	n/a	n/a	n/a
819.24	n/a	REC_WORD	409620	wordpools/wasnorm_wordpool_less_exclusions.txt	LTP206	ltpFR	0	2	n/a	REFRIGERATOR	1179	n/a	n/a	n/a	n/a	n/a	n/a	n/a
824.728	n/a	REC_WORD	412364	wordpools/wasnorm_wordpool_less_exclusions.txt	LTP206	ltpFR	0	2	-1	CANOE	233	n/a	-1	n/a	n/a	n/a	n/a	n/a
829.912	n/a	REC_WORD	414956	wordpools/wasnorm_wordpool_less_exclusions.txt	LTP206	ltpFR	0	2	-1	ACORN	3	n/a	-1	n/a	n/a	n/a	n/a	n/a
849.902	n/a	REC_WORD	424951	wordpools/wasnorm_wordpool_less_exclusions.txt	LTP206	ltpFR	0	2	n/a	SKY	-1	n/a	n/a	n/a	n/a	n/a	n/a	n/a
885.094	n/a	WORD	442547	wordpools/wasnorm_wordpool_less_exclusions.txt	LTP206	ltpFR	0	3	-1	STOVE	1388	n/a	-1	1	1.0	1.0	upper	../fonts/Verdana.ttf
889.276	n/a	WORD	444638	wordpools/wasnorm_wordpool_less_exclusions.txt	LTP206	ltpFR	0	3	-1	HUMAN	726	n/a	-1	1	1.0	1.0	upper	../fonts/Verdana.ttf
893.376	n/a	WORD	446688	wordpools/wasnorm_wordpool_less_exclusions.txt	LTP206	ltpFR	0	3	-1	WHISTLE	1606	n/a	-1	1	1.0	1.0	upper	../fonts/Verdana.ttf
897.56	n/a	WORD	448780	wordpools/wasnorm_wordpool_less_exclusions.txt	LTP206	ltpFR	0	3	-1	JAW	751	n/a	-1	1	1.0	1.0	upper	../fonts/Verdana.ttf
901.404	n/a	WORD	450702	wordpools/wasnorm_wordpool_less_exclusions.txt	LTP206	ltpFR	0	3	-1	PERCH	1048	n/a	-1	1	1.0	1.0	upper	../fonts/Verdana.ttf
905.288	n/a	WORD	452644	wordpools/wasnorm_wordpool_less_exclusions.txt	LTP206	ltpFR	0	3	-1	EAGLE	512	n/a	-1	1	1.0	1.0	upper	../fonts/Verdana.ttf
909.472	n/a	WORD	454736	wordpools/wasnorm_wordpool_less_exclusions.txt	LTP206	ltpFR	0	3	-1	LASER	801	n/a	-1	1	1.0	1.0	upper	../fonts/Verdana.ttf
913.688	n/a	WORD	456844	wordpools/wasnorm_wordpool_less_exclusions.txt	LTP206	ltpFR	0	3	-1	TORCH	1484	n/a	-1	1	1.0	1.0	upper	../fonts/Verdana.ttf
917.72	n/a	WORD	458860	wordpools/wasnorm_wordpool_less_exclusions.txt	LTP206	ltpFR	0	3	-1	CORPORATION	382	n/a	-1	1	1.0	1.0	upper	../fonts/Verdana.ttf
921.87	n/a	WORD	460935	wordpools/wasnorm_wordpool_less_exclusions.txt	LTP206	ltpFR	0	3	-1	CUSTOMER	430	n/a	-1	1	1.0	1.0	upper	../fonts/Verdana.ttf
925.716	n/a	WORD	462858	wordpools/wasnorm_wordpool_less_exclusions.txt	LTP206	ltpFR	0	3	-1	OVEN	991	n/a	-1	1	1.0	1.0	upper	../fonts/Verdana.ttf
929.732	n/a	WORD	464866	wordpools/wasnorm_wordpool_less_exclusions.txt	LTP206	ltpFR	0	3	-1	BUFFALO	186	n/a	-1	1	1.0	1.0	upper	../fonts/Verdana.ttf
933.662	n/a	WORD	466831	wordpools/wasnorm_wordpool_less_exclusions.txt	LTP206	ltpFR	0	3	-1	GLACIER	638	n/a	-1	1	1.0	1.0	upper	../fonts/Verdana.ttf
937.512	n/a	WORD	468756	wordpools/wasnorm_wordpool_less_exclusions.txt	LTP206	ltpFR	0	3	-1	MANAGER	863	n/a	-1	1	1.0	1.0	upper	../fonts/Verdana.ttf
941.578	n/a	WORD	470789	wordpools/wasnorm_wordpool_less_exclusions.txt	LTP206	ltpFR	0	3	-1	BENCH	121	n/a	-1	1	1.0	1.0	upper	../fonts/Verdana.ttf
945.542	n/a	WORD	472771	wordpools/wasnorm_wordpool_less_exclusions.txt	LTP206	ltpFR	0	3	-1	LENS	811	n/a	-1	1	1.0	1.0	upper	../fonts/Verdana.ttf
951.366	n/a	REC_START	475683	n/a	LTP206	ltpFR	0	3	n/a	n/a	n/a	n/a	n/a	n/a	n/a	n/a	n/a	n/a
953.864	n/a	REC_WORD	476932	wordpools/wasnorm_wordpool_less_exclusions.txt	LTP206	ltpFR	0	3	-1	LENS	811	n/a	-1	n/a	n/a	n/a	n/a	n/a
958.32	n/a	REC_WORD	479160	wordpools/wasnorm_wordpool_less_exclusions.txt	LTP206	ltpFR	0	3	-1	TORCH	1484	n/a	-1	n/a	n/a	n/a	n/a	n/a
961.458	n/a	REC_WORD	480729	wordpools/wasnorm_wordpool_less_exclusions.txt	LTP206	ltpFR	0	3	-1	HUMAN	726	n/a	-1	n/a	n/a	n/a	n/a	n/a
964.904	n/a	REC_WORD	482452	wordpools/wasnorm_wordpool_less_exclusions.txt	LTP206	ltpFR	0	3	-1	CORPORATION	382	n/a	-1	n/a	n/a	n/a	n/a	n/a
979.882	n/a	REC_WORD	489941	wordpools/wasnorm_wordpool_less_exclusions.txt	LTP206	ltpFR	0	3	-1	LASER	801	n/a	-1	n/a	n/a	n/a	n/a	n/a
1038.9	n/a	WORD	519450	wordpools/wasnorm_wordpool_less_exclusions.txt	LTP206	ltpFR	0	4	-1	BABY	64	n/a	-1	1	1.0	1.0	upper	../fonts/Verdana.ttf
1043.0	n/a	WORD	521500	wordpools/wasnorm_wordpool_less_exclusions.txt	LTP206	ltpFR	0	4	-1	CAPITAL	238	n/a	-1	1	1.0	1.0	upper	../fonts/Verdana.ttf
1046.946	n/a	WORD	523473	wordpools/wasnorm_wordpool_less_exclusions.txt	LTP206	ltpFR	0	4	-1	COMMUNITY	356	n/a	-1	1	1.0	1.0	upper	../fonts/Verdana.ttf
1051.162	n/a	WORD	525581	wordpools/wasnorm_wordpool_less_exclusions.txt	LTP206	ltpFR	0	4	-1	MASK	876	n/a	-1	1	1.0	1.0	upper	../fonts/Verdana.ttf
1055.278	n/a	WORD	527639	wordpools/wasnorm_wordpool_less_exclusions.txt	LTP206	ltpFR	0	4	-1	VEAL	1551	n/a	-1	1	1.0	1.0	upper	../fonts/Verdana.ttf
1059.342	n/a	WORD	529671	wordpools/wasnorm_wordpool_less_exclusions.txt	LTP206	ltpFR	0	4	-1	BILL	126	n/a	-1	1	1.0	1.0	upper	../fonts/Verdana.ttf
1063.242	n/a	WORD	531621	wordpools/wasnorm_wordpool_less_exclusions.txt	LTP206	ltpFR	0	4	-1	NICKEL	950	n/a	-1	1	1.0	1.0	upper	../fonts/Verdana.ttf
1067.424	n/a	WORD	533712	wordpools/wasnorm_wordpool_less_exclusions.txt	LTP206	ltpFR	0	4	-1	PEAR	1033	n/a	-1	1	1.0	1.0	upper	../fonts/Verdana.ttf
1071.608	n/a	WORD	535804	wordpools/wasnorm_wordpool_less_exclusions.txt	LTP206	ltpFR	0	4	-1	GLOVE	642	n/a	-1	1	1.0	1.0	upper	../fonts/Verdana.ttf
1075.722	n/a	WORD	537861	wordpools/wasnorm_wordpool_less_exclusions.txt	LTP206	ltpFR	0	4	-1	CABINET	212	n/a	-1	1	1.0	1.0	upper	../fonts/Verdana.ttf
1079.938	n/a	WORD	539969	wordpools/wasnorm_wordpool_less_exclusions.txt	LTP206	ltpFR	0	4	-1	DOLL	481	n/a	-1	1	1.0	1.0	upper	../fonts/Verdana.ttf
1083.972	n/a	WORD	541986	wordpools/wasnorm_wordpool_less_exclusions.txt	LTP206	ltpFR	0	4	-1	APPLE	33	n/a	-1	1	1.0	1.0	upper	../fonts/Verdana.ttf
1088.188	n/a	WORD	544094	wordpools/wasnorm_wordpool_less_exclusions.txt	LTP206	ltpFR	0	4	-1	CANVAS	234	n/a	-1	1	1.0	1.0	upper	../fonts/Verdana.ttf
1092.084	n/a	WORD	546042	wordpools/wasnorm_wordpool_less_exclusions.txt	LTP206	ltpFR	0	4	-1	CORK	380	n/a	-1	1	1.0	1.0	upper	../fonts/Verdana.ttf
1096.1	n/a	WORD	548050	wordpools/wasnorm_wordpool_less_exclusions.txt	LTP206	ltpFR	0	4	-1	PLUMBER	1091	n/a	-1	1	1.0	1.0	upper	../fonts/Verdana.ttf
1100.066	n/a	WORD	550033	wordpools/wasnorm_wordpool_less_exclusions.txt	LTP206	ltpFR	0	4	-1	POLYESTER	1100	n/a	-1	1	1.0	1.0	upper	../fonts/Verdana.ttf
1105.874	n/a	REC_START	552937	n/a	LTP206	ltpFR	0	4	n/a	n/a	n/a	n/a	n/a	n/a	n/a	n/a	n/a	n/a
1108.058	n/a	REC_WORD	554029	wordpools/wasnorm_wordpool_less_exclusions.txt	LTP206	ltpFR	0	4	-1	POLYESTER	1100	n/a	-1	n/a	n/a	n/a	n/a	n/a
1112.658	n/a	REC_WORD	556329	wordpools/wasnorm_wordpool_less_exclusions.txt	LTP206	ltpFR	0	4	-1	COMMUNITY	356	n/a	-1	n/a	n/a	n/a	n/a	n/a
1131.206	n/a	REC_WORD	565603	wordpools/wasnorm_wordpool_less_exclusions.txt	LTP206	ltpFR	0	4	-1	PERCH	1048	n/a	-1	n/a	n/a	n/a	n/a	n/a
1136.834	n/a	REC_WORD	568417	wordpools/wasnorm_wordpool_less_exclusions.txt	LTP206	ltpFR	0	4	-1	HUMAN	726	n/a	-1	n/a	n/a	n/a	n/a	n/a
1146.682	n/a	REC_WORD_VV	573341	wordpools/wasnorm_wordpool_less_exclusions.txt	LTP206	ltpFR	0	4	n/a	<>	-1	n/a	n/a	n/a	n/a	n/a	n/a	n/a
1147.944	n/a	REC_WORD	573972	wordpools/wasnorm_wordpool_less_exclusions.txt	LTP206	ltpFR	0	4	-1	LASER	801	n/a	-1	n/a	n/a	n/a	n/a	n/a
1149.966	n/a	REC_WORD	574983	wordpools/wasnorm_wordpool_less_exclusions.txt	LTP206	ltpFR	0	4	-1	POLYESTER	1100	n/a	-1	n/a	n/a	n/a	n/a	n/a
1695.442	n/a	WORD	847721	wordpools/wasnorm_wordpool_less_exclusions.txt	LTP206	ltpFR	0	5	0	HAMBURGER	679	n/a	3	1	0.412841796875	0.57763671875	upper	../fonts/amplitud.ttf
1697.382	n/a	KEY_MSG	848691	n/a	LTP206	ltpFR	0	5	n/a	n/a	n/a	n/a	n/a	n/a	n/a	n/a	n/a	n/a
1699.892	n/a	WORD	849946	wordpools/wasnorm_wordpool_less_exclusions.txt	LTP206	ltpFR	0	5	0	BANANA	77	n/a	n/a	1	0.412841796875	0.57763671875	upper	../fonts/amplitud.ttf
1702.936	n/a	SLOW_MSG	851468	n/a	LTP206	ltpFR	0	5	n/a	n/a	n/a	n/a	n/a	n/a	n/a	n/a	n/a	n/a
1705.396	n/a	WORD	852698	wordpools/wasnorm_wordpool_less_exclusions.txt	LTP206	ltpFR	0	5	0	KEG	770	n/a	1	1	0.412841796875	0.57763671875	upper	../fonts/amplitud.ttf
1709.312	n/a	WORD	854656	wordpools/wasnorm_wordpool_less_exclusions.txt	LTP206	ltpFR	0	5	0	ROSE	1212	n/a	0	1	0.412841796875	0.57763671875	upper	../fonts/amplitud.ttf
1713.426	n/a	WORD	856713	wordpools/wasnorm_wordpool_less_exclusions.txt	LTP206	ltpFR	0	5	0	COACH	331	n/a	1	1	0.412841796875	0.57763671875	upper	../fonts/amplitud.ttf
1717.476	n/a	WORD	858738	wordpools/wasnorm_wordpool_less_exclusions.txt	LTP206	ltpFR	0	5	0	TELEPHONE	1445	n/a	0	1	0.412841796875	0.57763671875	upper	../fonts/amplitud.ttf
1721.308	n/a	WORD	860654	wordpools/wasnorm_wordpool_less_exclusions.txt	LTP206	ltpFR	0	5	0	OPERATOR	979	n/a	1	1	0.412841796875	0.57763671875	upper	../fonts/amplitud.ttf
1725.32	n/a	WORD	862660	wordpools/wasnorm_wordpool_less_exclusions.txt	LTP206	ltpFR	0	5	0	CROWN	415	n/a	0	1	0.412841796875	0.57763671875	upper	../fonts/amplitud.ttf
1729.404	n/a	WORD	864702	wordpools/wasnorm_wordpool_less_exclusions.txt	LTP206	ltpFR	0	5	0	STEM	1376	n/a	0	1	0.412841796875	0.57763671875	upper	../fonts/amplitud.ttf
1733.57	n/a	WORD	866785	wordpools/wasnorm_wordpool_less_exclusions.txt	LTP206	ltpFR	0	5	0	HOE	711	n/a	1	1	0.412841796875	0.57763671875	upper	../fonts/amplitud.ttf
1737.736	n/a	WORD	868868	wordpools/wasnorm_wordpool_less_exclusions.txt	LTP206	ltpFR	0	5	0	JUG	762	n/a	1	1	0.412841796875	0.57763671875	upper	../fonts/amplitud.ttf
1741.87	n/a	WORD	870935	wordpools/wasnorm_wordpool_less_exclusions.txt	LTP206	ltpFR	0	5	0	PRINCE	1124	n/a	1	1	0.412841796875	0.57763671875	upper	../fonts/amplitud.ttf
1745.85	n/a	WORD	872925	wordpools/wasnorm_wordpool_less_exclusions.txt	LTP206	ltpFR	0	5	0	RASPBERRY	1168	n/a	0	1	0.412841796875	0.57763671875	upper	../fonts/amplitud.ttf
1749.782	n/a	WORD	874891	wordpools/wasnorm_wordpool_less_exclusions.txt	LTP206	ltpFR	0	5	0	BALLERINA	74	n/a	1	1	0.412841796875	0.57763671875	upper	../fonts/amplitud.ttf
1753.68	n/a	WORD	876840	wordpools/wasnorm_wordpool_less_exclusions.txt	LTP206	ltpFR	0	5	0	FLUTE	585	n/a	0	1	0.412841796875	0.57763671875	upper	../fonts/amplitud.ttf
1757.696	n/a	WORD	878848	wordpools/wasnorm_wordpool_less_exclusions.txt	LTP206	ltpFR	0	5	0	BUGLE	189	n/a	1	1	0.412841796875	0.57763671875	upper	../fonts/amplitud.ttf
1763.536	n/a	REC_START	881768	n/a	LTP206	ltpFR	0	5	n/a	n/a	n/a	n/a	n/a	n/a	n/a	n/a	n/a	n/a
1767.156	n/a	REC_WORD	883578	wordpools/wasnorm_wordpool_less_exclusions.txt	LTP206	ltpFR	0	5	0	HOE	711	n/a	1	n/a	n/a	n/a	n/a	n/a
1768.918	n/a	REC_WORD	884459	wordpools/wasnorm_wordpool_less_exclusions.txt	LTP206	ltpFR	0	5	0	BUGLE	189	n/a	1	n/a	n/a	n/a	n/a	n/a
1770.644	n/a	REC_WORD	885322	wordpools/wasnorm_wordpool_less_exclusions.txt	LTP206	ltpFR	0	5	0	FLUTE	585	n/a	0	n/a	n/a	n/a	n/a	n/a
1773.822	n/a	REC_WORD	886911	wordpools/wasnorm_wordpool_less_exclusions.txt	LTP206	ltpFR	0	5	0	PRINCE	1124	n/a	1	n/a	n/a	n/a	n/a	n/a
1777.33	n/a	REC_WORD	888665	wordpools/wasnorm_wordpool_less_exclusions.txt	LTP206	ltpFR	0	5	0	BALLERINA	74	n/a	1	n/a	n/a	n/a	n/a	n/a
1780.138	n/a	REC_WORD	890069	wordpools/wasnorm_wordpool_less_exclusions.txt	LTP206	ltpFR	0	5	0	RASPBERRY	1168	n/a	0	n/a	n/a	n/a	n/a	n/a
1788.59	n/a	REC_WORD	894295	wordpools/wasnorm_wordpool_less_exclusions.txt	LTP206	ltpFR	0	5	0	JUG	762	n/a	1	n/a	n/a	n/a	n/a	n/a
1801.342	n/a	REC_WORD	900671	wordpools/wasnorm_wordpool_less_exclusions.txt	LTP206	ltpFR	0	5	0	TELEPHONE	1445	n/a	0	n/a	n/a	n/a	n/a	n/a
1803.422	n/a	REC_WORD	901711	wordpools/wasnorm_wordpool_less_exclusions.txt	LTP206	ltpFR	0	5	0	OPERATOR	979	n/a	1	n/a	n/a	n/a	n/a	n/a
1820.484	n/a	REC_WORD	910242	wordpools/wasnorm_wordpool_less_exclusions.txt	LTP206	ltpFR	0	5	0	BUGLE	189	n/a	1	n/a	n/a	n/a	n/a	n/a
1856.524	n/a	WORD	928262	wordpools/wasnorm_wordpool_less_exclusions.txt	LTP206	ltpFR	0	6	0	POSSUM	1112	n/a	1	1	0.412841796875	0.57763671875	upper	../fonts/amplitud.ttf
1860.37	n/a	WORD	930185	wordpools/wasnorm_wordpool_less_exclusions.txt	LTP206	ltpFR	0	6	0	BLUEPRINT	142	n/a	0	1	0.412841796875	0.57763671875	upper	../fonts/amplitud.ttf
1864.404	n/a	WORD	932202	wordpools/wasnorm_wordpool_less_exclusions.txt	LTP206	ltpFR	0	6	0	PIANO	1057	n/a	0	1	0.412841796875	0.57763671875	upper	../fonts/amplitud.ttf
1868.402	n/a	WORD	934201	wordpools/wasnorm_wordpool_less_exclusions.txt	LTP206	ltpFR	0	6	0	COMPUTER	359	n/a	1	1	0.412841796875	0.57763671875	upper	../fonts/amplitud.ttf
1872.302	n/a	WORD	936151	wordpools/wasnorm_wordpool_less_exclusions.txt	LTP206	ltpFR	0	6	0	GOVERNOR	651	n/a	1	1	0.412841796875	0.57763671875	upper	../fonts/amplitud.ttf
1876.334	n/a	WORD	938167	wordpools/wasnorm_wordpool_less_exclusions.txt	LTP206	ltpFR	0	6	0	CHAIRPERSON	275	n/a	1	1	0.412841796875	0.57763671875	upper	../fonts/amplitud.ttf
1880.448	n/a	WORD	940224	wordpools/wasnorm_wordpool_less_exclusions.txt	LTP206	ltpFR	0	6	0	SHOVEL	1295	n/a	1	1	0.412841796875	0.57763671875	upper	../fonts/amplitud.ttf
1884.58	n/a	WORD	942290	wordpools/wasnorm_wordpool_less_exclusions.txt	LTP206	ltpFR	0	6	0	BATTERY	101	n/a	0	1	0.412841796875	0.57763671875	upper	../fonts/amplitud.ttf
1888.662	n/a	WORD	944331	wordpools/wasnorm_wordpool_less_exclusions.txt	LTP206	ltpFR	0	6	0	PROTON	1132	n/a	0	1	0.412841796875	0.57763671875	upper	../fonts/amplitud.ttf
1892.71	n/a	WORD	946355	wordpools/wasnorm_wordpool_less_exclusions.txt	LTP206	ltpFR	0	6	0	OATS	968	n/a	0	1	0.412841796875	0.57763671875	upper	../fonts/amplitud.ttf
1896.578	n/a	WORD	948289	wordpools/wasnorm_wordpool_less_exclusions.txt	LTP206	ltpFR	0	6	0	SALMON	1227	n/a	1	1	0.412841796875	0.57763671875	upper	../fonts/amplitud.ttf
1900.642	n/a	WORD	950321	wordpools/wasnorm_wordpool_less_exclusions.txt	LTP206	ltpFR	0	6	0	BRAKE	166	n/a	0	1	0.412841796875	0.57763671875	upper	../fonts/amplitud.ttf
1904.842	n/a	WORD	952421	wordpools/wasnorm_wordpool_less_exclusions.txt	LTP206	ltpFR	0	6	0	ANTEATER	26	n/a	1	1	0.412841796875	0.57763671875	upper	../fonts/amplitud.ttf
1908.724	n/a	WORD	954362	wordpools/wasnorm_wordpool_less_exclusions.txt	LTP206	ltpFR	0	6	0	PORPOISE	1109	n/a	1	1	0.412841796875	0.57763671875	upper	../fonts/amplitud.ttf
1912.822	n/a	WORD	956411	wordpools/wasnorm_wordpool_less_exclusions.txt	LTP206	ltpFR	0	6	0	AUTOMOBILE	62	n/a	1	1	0.412841796875	0.57763671875	upper	../fonts/amplitud.ttf
1916.736	n/a	WORD	958368	wordpools/wasnorm_wordpool_less_exclusions.txt	LTP206	ltpFR	0	6	0	ENGINE	535	n/a	1	1	0.412841796875	0.57763671875	upper	../fonts/amplitud.ttf
1922.594	n/a	REC_START	961297	n/a	LTP206	ltpFR	0	6	n/a	n/a	n/a	n/a	n/a	n/a	n/a	n/a	n/a	n/a
1925.806	n/a	REC_WORD	962903	wordpools/wasnorm_wordpool_less_exclusions.txt	LTP206	ltpFR	0	6	0	AUTOMOBILE	62	n/a	1	n/a	n/a	n/a	n/a	n/a
1927.722	n/a	REC_WORD	963861	wordpools/wasnorm_wordpool_less_exclusions.txt	LTP206	ltpFR	0	6	0	ENGINE	535	n/a	1	n/a	n/a	n/a	n/a	n/a
1932.446	n/a	REC_WORD	966223	wordpools/wasnorm_wordpool_less_exclusions.txt	LTP206	ltpFR	0	6	0	GOVERNOR	651	n/a	1	n/a	n/a	n/a	n/a	n/a
1938.818	n/a	REC_WORD	969409	wordpools/wasnorm_wordpool_less_exclusions.txt	LTP206	ltpFR	0	6	0	PORPOISE	1109	n/a	1	n/a	n/a	n/a	n/a	n/a
1946.71	n/a	REC_WORD	973355	wordpools/wasnorm_wordpool_less_exclusions.txt	LTP206	ltpFR	0	6	0	POSSUM	1112	n/a	1	n/a	n/a	n/a	n/a	n/a
1957.81	n/a	REC_WORD	978905	wordpools/wasnorm_wordpool_less_exclusions.txt	LTP206	ltpFR	0	6	0	BATTERY	101	n/a	0	n/a	n/a	n/a	n/a	n/a
1960.514	n/a	REC_WORD	980257	wordpools/wasnorm_wordpool_less_exclusions.txt	LTP206	ltpFR	0	6	0	PROTON	1132	n/a	0	n/a	n/a	n/a	n/a	n/a
1979.258	n/a	REC_WORD	989629	wordpools/wasnorm_wordpool_less_exclusions.txt	LTP206	ltpFR	0	6	0	POSSUM	1112	n/a	1	n/a	n/a	n/a	n/a	n/a
1989.92	n/a	REC_WORD	994960	wordpools/wasnorm_wordpool_less_exclusions.txt	LTP206	ltpFR	0	6	0	BLUEPRINT	142	n/a	0	n/a	n/a	n/a	n/a	n/a
2008.638	n/a	WORD	1004319	wordpools/wasnorm_wordpool_less_exclusions.txt	LTP206	ltpFR	0	7	0	WART	1590	n/a	0	1	0.412841796875	0.57763671875	upper	../fonts/amplitud.ttf
2012.804	n/a	WORD	1006402	wordpools/wasnorm_wordpool_less_exclusions.txt	LTP206	ltpFR	0	7	0	FROG	608	n/a	0	1	0.412841796875	0.57763671875	upper	../fonts/amplitud.ttf
2016.988	n/a	WORD	1008494	wordpools/wasnorm_wordpool_less_exclusions.txt	LTP206	ltpFR	0	7	0	PICKLE	1059	n/a	0	1	0.412841796875	0.57763671875	upper	../fonts/amplitud.ttf
2021.036	n/a	WORD	1010518	wordpools/wasnorm_wordpool_less_exclusions.txt	LTP206	ltpFR	0	7	0	REGISTER	1180	n/a	1	1	0.412841796875	0.57763671875	upper	../fonts/amplitud.ttf
2025.002	n/a	WORD	1012501	wordpools/wasnorm_wordpool_less_exclusions.txt	LTP206	ltpFR	0	7	0	CASH	252	n/a	0	1	0.412841796875	0.57763671875	upper	../fonts/amplitud.ttf
2028.832	n/a	WORD	1014416	wordpools/wasnorm_wordpool_less_exclusions.txt	LTP206	ltpFR	0	7	0	JUPITER	765	n/a	1	1	0.412841796875	0.57763671875	upper	../fonts/amplitud.ttf
2032.814	n/a	WORD	1016407	wordpools/wasnorm_wordpool_less_exclusions.txt	LTP206	ltpFR	0	7	0	LIMOUSINE	824	n/a	1	1	0.412841796875	0.57763671875	upper	../fonts/amplitud.ttf
2037.03	n/a	WORD	1018515	wordpools/wasnorm_wordpool_less_exclusions.txt	LTP206	ltpFR	0	7	0	HAMMOCK	681	n/a	1	1	0.412841796875	0.57763671875	upper	../fonts/amplitud.ttf
2041.048	n/a	WORD	1020524	wordpools/wasnorm_wordpool_less_exclusions.txt	LTP206	ltpFR	0	7	0	ACTRESS	6	n/a	1	1	0.412841796875	0.57763671875	upper	../fonts/amplitud.ttf
2044.996	n/a	WORD	1022498	wordpools/wasnorm_wordpool_less_exclusions.txt	LTP206	ltpFR	0	7	0	RAISIN	1163	n/a	0	1	0.412841796875	0.57763671875	upper	../fonts/amplitud.ttf
2049.028	n/a	WORD	1024514	wordpools/wasnorm_wordpool_less_exclusions.txt	LTP206	ltpFR	0	7	0	SPACE	1345	n/a	1	1	0.412841796875	0.57763671875	upper	../fonts/amplitud.ttf
2052.958	n/a	WORD	1026479	wordpools/wasnorm_wordpool_less_exclusions.txt	LTP206	ltpFR	0	7	0	SCREEN	1253	n/a	1	1	0.412841796875	0.57763671875	upper	../fonts/amplitud.ttf
2057.074	n/a	WORD	1028537	wordpools/wasnorm_wordpool_less_exclusions.txt	LTP206	ltpFR	0	7	0	COOKIE	374	n/a	0	1	0.412841796875	0.57763671875	upper	../fonts/amplitud.ttf
2061.138	n/a	WORD	1030569	wordpools/wasnorm_wordpool_less_exclusions.txt	LTP206	ltpFR	0	7	0	KITCHEN	778	n/a	1	1	0.412841796875	0.57763671875	upper	../fonts/amplitud.ttf
2065.172	n/a	WORD	1032586	wordpools/wasnorm_wordpool_less_exclusions.txt	LTP206	ltpFR	0	7	0	CRUMB	416	n/a	0	1	0.412841796875	0.57763671875	upper	../fonts/amplitud.ttf
2069.088	n/a	WORD	1034544	wordpools/wasnorm_wordpool_less_exclusions.txt	LTP206	ltpFR	0	7	0	DILL	465	n/a	0	1	0.412841796875	0.57763671875	upper	../fonts/amplitud.ttf
2074.708	n/a	REC_START	1037354	n/a	LTP206	ltpFR	0	7	n/a	n/a	n/a	n/a	n/a	n/a	n/a	n/a	n/a	n/a
2077.352	n/a	REC_WORD	1038676	wordpools/wasnorm_wordpool_less_exclusions.txt	LTP206	ltpFR	0	7	0	CRUMB	416	n/a	0	n/a	n/a	n/a	n/a	n/a
2079.638	n/a	REC_WORD	1039819	wordpools/wasnorm_wordpool_less_exclusions.txt	LTP206	ltpFR	0	7	0	JUPITER	765	n/a	1	n/a	n/a	n/a	n/a	n/a
2082.612	n/a	REC_WORD	1041306	wordpools/wasnorm_wordpool_less_exclusions.txt	LTP206	ltpFR	0	7	0	ACTRESS	6	n/a	1	n/a	n/a	n/a	n/a	n/a
2099.718	n/a	REC_WORD	1049859	wordpools/wasnorm_wordpool_less_exclusions.txt	LTP206	ltpFR	0	7	n/a	COUCH	386	n/a	n/a	n/a	n/a	n/a	n/a	n/a
2124.024	n/a	REC_WORD	1062012	wordpools/wasnorm_wordpool_less_exclusions.txt	LTP206	ltpFR	0	7	0	SPACE	1345	n/a	1	n/a	n/a	n/a	n/a	n/a
2135.25	n/a	REC_WORD	1067625	wordpools/wasnorm_wordpool_less_exclusions.txt	LTP206	ltpFR	0	7	0	DILL	465	n/a	0	n/a	n/a	n/a	n/a	n/a
2162.51	n/a	WORD	1081255	wordpools/wasnorm_wordpool_less_exclusions.txt	LTP206	ltpFR	0	8	0	PHOTO	1055	n/a	0	1	0.412841796875	0.57763671875	upper	../fonts/amplitud.ttf
2166.608	n/a	WORD	1083304	wordpools/wasnorm_wordpool_less_exclusions.txt	LTP206	ltpFR	0	8	0	CART	250	n/a	1	1	0.412841796875	0.57763671875	upper	../fonts/amplitud.ttf
2170.792	n/a	WORD	1085396	wordpools/wasnorm_wordpool_less_exclusions.txt	LTP206	ltpFR	0	8	0	ALLEY	15	n/a	1	1	0.412841796875	0.57763671875	upper	../fonts/amplitud.ttf
2174.874	n/a	WORD	1087437	wordpools/wasnorm_wordpool_less_exclusions.txt	LTP206	ltpFR	0	8	0	SWIMMER	1420	n/a	1	1	0.412841796875	0.57763671875	upper	../fonts/amplitud.ttf
2178.806	n/a	WORD	1089403	wordpools/wasnorm_wordpool_less_exclusions.txt	LTP206	ltpFR	0	8	0	FORK	594	n/a	0	1	0.412841796875	0.57763671875	upper	../fonts/amplitud.ttf
2182.72	n/a	WORD	1091360	wordpools/wasnorm_wordpool_less_exclusions.txt	LTP206	ltpFR	0	8	0	SCALPEL	1243	n/a	0	1	0.412841796875	0.57763671875	upper	../fonts/amplitud.ttf
2186.618	n/a	WORD	1093309	wordpools/wasnorm_wordpool_less_exclusions.txt	LTP206	ltpFR	0	8	0	TRUCK	1512	n/a	1	1	0.412841796875	0.57763671875	upper	../fonts/amplitud.ttf
2190.584	n/a	WORD	1095292	wordpools/wasnorm_wordpool_less_exclusions.txt	LTP206	ltpFR	0	8	0	WINDSHIELD	1612	n/a	1	1	0.412841796875	0.57763671875	upper	../fonts/amplitud.ttf
2194.666	n/a	WORD	1097333	wordpools/wasnorm_wordpool_less_exclusions.txt	LTP206	ltpFR	0	8	0	RAIL	1161	n/a	1	1	0.412841796875	0.57763671875	upper	../fonts/amplitud.ttf
2198.848	n/a	WORD	1099424	wordpools/wasnorm_wordpool_less_exclusions.txt	LTP206	ltpFR	0	8	0	FOREST	593	n/a	1	1	0.412841796875	0.57763671875	upper	../fonts/amplitud.ttf
2202.694	n/a	WORD	1101347	wordpools/wasnorm_wordpool_less_exclusions.txt	LTP206	ltpFR	0	8	0	SCALE	1241	n/a	0	1	0.412841796875	0.57763671875	upper	../fonts/amplitud.ttf
2206.778	n/a	WORD	1103389	wordpools/wasnorm_wordpool_less_exclusions.txt	LTP206	ltpFR	0	8	0	BUNNY	198	n/a	0	1	0.412841796875	0.57763671875	upper	../fonts/amplitud.ttf
2210.762	n/a	WORD	1105381	wordpools/wasnorm_wordpool_less_exclusions.txt	LTP206	ltpFR	0	8	0	BUCKET	184	n/a	0	1	0.412841796875	0.57763671875	upper	../fonts/amplitud.ttf
2214.978	n/a	WORD	1107489	wordpools/wasnorm_wordpool_less_exclusions.txt	LTP206	ltpFR	0	8	0	HAYSTACK	694	n/a	1	1	0.412841796875	0.57763671875	upper	../fonts/amplitud.ttf
2219.144	n/a	WORD	1109572	wordpools/wasnorm_wordpool_less_exclusions.txt	LTP206	ltpFR	0	8	0	SHINGLE	1285	n/a	0	1	0.412841796875	0.57763671875	upper	../fonts/amplitud.ttf
2223.206	n/a	WORD	1111603	wordpools/wasnorm_wordpool_less_exclusions.txt	LTP206	ltpFR	0	8	0	ROOM	1206	n/a	1	1	0.412841796875	0.57763671875	upper	../fonts/amplitud.ttf
2228.966	n/a	REC_START	1114483	n/a	LTP206	ltpFR	0	8	n/a	n/a	n/a	n/a	n/a	n/a	n/a	n/a	n/a	n/a
2231.152	n/a	REC_WORD	1115576	wordpools/wasnorm_wordpool_less_exclusions.txt	LTP206	ltpFR	0	8	0	SHINGLE	1285	n/a	0	n/a	n/a	n/a	n/a	n/a
2234.14	n/a	REC_WORD	1117070	wordpools/wasnorm_wordpool_less_exclusions.txt	LTP206	ltpFR	0	8	0	ROOM	1206	n/a	1	n/a	n/a	n/a	n/a	n/a
2240.6	n/a	REC_WORD	1120300	wordpools/wasnorm_wordpool_less_exclusions.txt	LTP206	ltpFR	0	8	0	FOREST	593	n/a	1	n/a	n/a	n/a	n/a	n/a
2259.194	n/a	REC_WORD	1129597	wordpools/wasnorm_wordpool_less_exclusions.txt	LTP206	ltpFR	0	8	n/a	ROOF	1205	n/a	n/a	n/a	n/a	n/a	n/a	n/a
2292.67	n/a	REC_WORD	1146335	wordpools/wasnorm_wordpool_less_exclusions.txt	LTP206	ltpFR	0	8	0	KITCHEN	778	n/a	1	n/a	n/a	n/a	n/a	n/a
2316.348	n/a	WORD	1158174	wordpools/wasnorm_wordpool_less_exclusions.txt	LTP206	ltpFR	0	9	1	FREEWAY	603	n/a	3	0	0.5869140625	0.422607421875	lower	../fonts/zerothre.ttf
2318.004	n/a	KEY_MSG	1159002	n/a	LTP206	ltpFR	0	9	n/a	n/a	n/a	n/a	n/a	n/a	n/a	n/a	n/a	n/a
2320.396	n/a	WORD	1160198	wordpools/wasnorm_wordpool_less_exclusions.txt	LTP206	ltpFR	0	9	1	CUP	424	n/a	n/a	0	0.5869140625	0.422607421875	lower	../fonts/zerothre.ttf
2323.442	n/a	SLOW_MSG	1161721	n/a	LTP206	ltpFR	0	9	n/a	n/a	n/a	n/a	n/a	n/a	n/a	n/a	n/a	n/a
2326.07	n/a	WORD	1163035	wordpools/wasnorm_wordpool_less_exclusions.txt	LTP206	ltpFR	0	9	1	TEA	1439	n/a	1	0	0.5869140625	0.422607421875	lower	../fonts/zerothre.ttf
2330.168	n/a	WORD	1165084	wordpools/wasnorm_wordpool_less_exclusions.txt	LTP206	ltpFR	0	9	1	RUNNER	1218	n/a	1	0	0.5869140625	0.422607421875	lower	../fonts/zerothre.ttf
2334.132	n/a	WORD	1167066	wordpools/wasnorm_wordpool_less_exclusions.txt	LTP206	ltpFR	0	9	1	GLASS	639	n/a	0	0	0.5869140625	0.422607421875	lower	../fonts/zerothre.ttf
2338.064	n/a	WORD	1169032	wordpools/wasnorm_wordpool_less_exclusions.txt	LTP206	ltpFR	0	9	1	PLATE	1086	n/a	0	0	0.5869140625	0.422607421875	lower	../fonts/zerothre.ttf
2342.164	n/a	WORD	1171082	wordpools/wasnorm_wordpool_less_exclusions.txt	LTP206	ltpFR	0	9	1	SHED	1277	n/a	0	0	0.5869140625	0.422607421875	lower	../fonts/zerothre.ttf
2346.28	n/a	WORD	1173140	wordpools/wasnorm_wordpool_less_exclusions.txt	LTP206	ltpFR	0	9	1	SHELF	1280	n/a	0	0	0.5869140625	0.422607421875	lower	../fonts/zerothre.ttf
2350.128	n/a	WORD	1175064	wordpools/wasnorm_wordpool_less_exclusions.txt	LTP206	ltpFR	0	9	1	BISON	131	n/a	1	0	0.5869140625	0.422607421875	lower	../fonts/zerothre.ttf
2353.99	n/a	WORD	1176995	wordpools/wasnorm_wordpool_less_exclusions.txt	LTP206	ltpFR	0	9	1	EXPLOSION	544	n/a	0	0	0.5869140625	0.422607421875	lower	../fonts/zerothre.ttf
2358.174	n/a	WORD	1179087	wordpools/wasnorm_wordpool_less_exclusions.txt	LTP206	ltpFR	0	9	1	DRYER	503	n/a	0	0	0.5869140625	0.422607421875	lower	../fonts/zerothre.ttf
2362.008	n/a	WORD	1181004	wordpools/wasnorm_wordpool_less_exclusions.txt	LTP206	ltpFR	0	9	1	PUBLISHER	1137	n/a	1	0	0.5869140625	0.422607421875	lower	../fonts/zerothre.ttf
2365.838	n/a	WORD	1182919	wordpools/wasnorm_wordpool_less_exclusions.txt	LTP206	ltpFR	0	9	1	STONE	1385	n/a	0	0	0.5869140625	0.422607421875	lower	../fonts/zerothre.ttf
2370.002	n/a	WORD	1185001	wordpools/wasnorm_wordpool_less_exclusions.txt	LTP206	ltpFR	0	9	1	HOUND	724	n/a	1	0	0.5869140625	0.422607421875	lower	../fonts/zerothre.ttf
2373.882	n/a	WORD	1186941	wordpools/wasnorm_wordpool_less_exclusions.txt	LTP206	ltpFR	0	9	1	CATCHER	258	n/a	1	0	0.5869140625	0.422607421875	lower	../fonts/zerothre.ttf
2377.968	n/a	WORD	1188984	wordpools/wasnorm_wordpool_less_exclusions.txt	LTP206	ltpFR	0	9	1	TONGUE	1479	n/a	1	0	0.5869140625	0.422607421875	lower	../fonts/zerothre.ttf
2383.824	n/a	REC_START	1191912	n/a	LTP206	ltpFR	0	9	n/a	n/a	n/a	n/a	n/a	n/a	n/a	n/a	n/a	n/a
2387.894	n/a	REC_WORD	1193947	wordpools/wasnorm_wordpool_less_exclusions.txt	LTP206	ltpFR	0	9	1	CATCHER	258	n/a	1	n/a	n/a	n/a	n/a	n/a
2390.424	n/a	REC_WORD	1195212	wordpools/wasnorm_wordpool_less_exclusions.txt	LTP206	ltpFR	0	9	1	TONGUE	1479	n/a	1	n/a	n/a	n/a	n/a	n/a
2406.094	n/a	REC_WORD	1203047	wordpools/wasnorm_wordpool_less_exclusions.txt	LTP206	ltpFR	0	9	1	RUNNER	1218	n/a	1	n/a	n/a	n/a	n/a	n/a
2458.662	n/a	REC_WORD_VV	1229331	wordpools/wasnorm_wordpool_less_exclusions.txt	LTP206	ltpFR	0	9	n/a	<>	-1	n/a	n/a	n/a	n/a	n/a	n/a	n/a
2472.294	n/a	WORD	1236147	wordpools/wasnorm_wordpool_less_exclusions.txt	LTP206	ltpFR	0	10	1	COLONEL	348	n/a	1	0	0.5869140625	0.422607421875	lower	../fonts/zerothre.ttf
2476.426	n/a	WORD	1238213	wordpools/wasnorm_wordpool_less_exclusions.txt	LTP206	ltpFR	0	10	1	ANIMAL	23	n/a	1	0	0.5869140625	0.422607421875	lower	../fonts/zerothre.ttf
2480.408	n/a	WORD	1240204	wordpools/wasnorm_wordpool_less_exclusions.txt	LTP206	ltpFR	0	10	1	PAINTER	1004	n/a	1	0	0.5869140625	0.422607421875	lower	../fonts/zerothre.ttf
2484.422	n/a	WORD	1242211	wordpools/wasnorm_wordpool_less_exclusions.txt	LTP206	ltpFR	0	10	1	SCRIBBLE	1256	n/a	0	0	0.5869140625	0.422607421875	lower	../fonts/zerothre.ttf
2488.304	n/a	WORD	1244152	wordpools/wasnorm_wordpool_less_exclusions.txt	LTP206	ltpFR	0	10	1	ROBE	1198	n/a	0	0	0.5869140625	0.422607421875	lower	../fonts/zerothre.ttf
2492.354	n/a	WORD	1246177	wordpools/wasnorm_wordpool_less_exclusions.txt	LTP206	ltpFR	0	10	1	COAT	333	n/a	0	0	0.5869140625	0.422607421875	lower	../fonts/zerothre.ttf
2496.486	n/a	WORD	1248243	wordpools/wasnorm_wordpool_less_exclusions.txt	LTP206	ltpFR	0	10	1	PENGUIN	1044	n/a	1	0	0.5869140625	0.422607421875	lower	../fonts/zerothre.ttf
2500.602	n/a	WORD	1250301	wordpools/wasnorm_wordpool_less_exclusions.txt	LTP206	ltpFR	0	10	1	PASTRY	1022	n/a	1	0	0.5869140625	0.422607421875	lower	../fonts/zerothre.ttf
2504.802	n/a	WORD	1252401	wordpools/wasnorm_wordpool_less_exclusions.txt	LTP206	ltpFR	0	10	1	ZUCCHINI	1638	n/a	1	0	0.5869140625	0.422607421875	lower	../fonts/zerothre.ttf
2508.934	n/a	WORD	1254467	wordpools/wasnorm_wordpool_less_exclusions.txt	LTP206	ltpFR	0	10	1	MESSAGE	888	n/a	0	0	0.5869140625	0.422607421875	lower	../fonts/zerothre.ttf
2512.95	n/a	WORD	1256475	wordpools/wasnorm_wordpool_less_exclusions.txt	LTP206	ltpFR	0	10	1	BARTENDER	92	n/a	1	0	0.5869140625	0.422607421875	lower	../fonts/zerothre.ttf
2516.948	n/a	WORD	1258474	wordpools/wasnorm_wordpool_less_exclusions.txt	LTP206	ltpFR	0	10	1	BEVERAGE	123	n/a	0	0	0.5869140625	0.422607421875	lower	../fonts/zerothre.ttf
2521.098	n/a	WORD	1260549	wordpools/wasnorm_wordpool_less_exclusions.txt	LTP206	ltpFR	0	10	1	SNACK	1331	n/a	0	0	0.5869140625	0.422607421875	lower	../fonts/zerothre.ttf
2525.096	n/a	WORD	1262548	wordpools/wasnorm_wordpool_less_exclusions.txt	LTP206	ltpFR	0	10	1	SPINACH	1352	n/a	1	0	0.5869140625	0.422607421875	lower	../fonts/zerothre.ttf
2529.244	n/a	WORD	1264622	wordpools/wasnorm_wordpool_less_exclusions.txt	LTP206	ltpFR	0	10	1	BONE	148	n/a	1	0	0.5869140625	0.422607421875	lower	../fonts/zerothre.ttf
2533.278	n/a	WORD	1266639	wordpools/wasnorm_wordpool_less_exclusions.txt	LTP206	ltpFR	0	10	1	FRANCE	601	n/a	0	0	0.5869140625	0.422607421875	lower	../fonts/zerothre.ttf
2539.1	n/a	REC_START	1269550	n/a	LTP206	ltpFR	0	10	n/a	n/a	n/a	n/a	n/a	n/a	n/a	n/a	n/a	n/a
2541.23	n/a	REC_WORD	1270615	wordpools/wasnorm_wordpool_less_exclusions.txt	LTP206	ltpFR	0	10	1	SPINACH	1352	n/a	1	n/a	n/a	n/a	n/a	n/a
2543.9	n/a	REC_WORD	1271950	wordpools/wasnorm_wordpool_less_exclusions.txt	LTP206	ltpFR	0	10	1	BONE	148	n/a	1	n/a	n/a	n/a	n/a	n/a
2546.24	n/a	REC_WORD	1273120	wordpools/wasnorm_wordpool_less_exclusions.txt	LTP206	ltpFR	0	10	1	FRANCE	601	n/a	0	n/a	n/a	n/a	n/a	n/a
2548.608	n/a	REC_WORD	1274304	wordpools/wasnorm_wordpool_less_exclusions.txt	LTP206	ltpFR	0	10	1	MESSAGE	888	n/a	0	n/a	n/a	n/a	n/a	n/a
2556.502	n/a	REC_WORD	1278251	wordpools/wasnorm_wordpool_less_exclusions.txt	LTP206	ltpFR	0	10	1	ANIMAL	23	n/a	1	n/a	n/a	n/a	n/a	n/a
2565.86	n/a	REC_WORD	1282930	wordpools/wasnorm_wordpool_less_exclusions.txt	LTP206	ltpFR	0	10	1	COAT	333	n/a	0	n/a	n/a	n/a	n/a	n/a
2569.544	n/a	REC_WORD	1284772	wordpools/wasnorm_wordpool_less_exclusions.txt	LTP206	ltpFR	0	10	1	SNACK	1331	n/a	0	n/a	n/a	n/a	n/a	n/a
2573.35	n/a	REC_WORD	1286675	wordpools/wasnorm_wordpool_less_exclusions.txt	LTP206	ltpFR	0	10	1	BEVERAGE	123	n/a	0	n/a	n/a	n/a	n/a	n/a
2578.992	n/a	REC_WORD	1289496	wordpools/wasnorm_wordpool_less_exclusions.txt	LTP206	ltpFR	0	10	0	RAISIN	1163	n/a	0	n/a	n/a	n/a	n/a	n/a
2600.764	n/a	REC_WORD	1300382	wordpools/wasnorm_wordpool_less_exclusions.txt	LTP206	ltpFR	0	10	1	BARTENDER	92	n/a	1	n/a	n/a	n/a	n/a	n/a
2626.684	n/a	WORD	1313342	wordpools/wasnorm_wordpool_less_exclusions.txt	LTP206	ltpFR	0	11	1	CUSTARD	429	n/a	1	0	0.5869140625	0.422607421875	lower	../fonts/zerothre.ttf
2630.7	n/a	WORD	1315350	wordpools/wasnorm_wordpool_less_exclusions.txt	LTP206	ltpFR	0	11	1	BAIT	70	n/a	1	0	0.5869140625	0.422607421875	lower	../fonts/zerothre.ttf
2634.598	n/a	WORD	1317299	wordpools/wasnorm_wordpool_less_exclusions.txt	LTP206	ltpFR	0	11	1	ROD	1203	n/a	0	0	0.5869140625	0.422607421875	lower	../fonts/zerothre.ttf
2638.814	n/a	WORD	1319407	wordpools/wasnorm_wordpool_less_exclusions.txt	LTP206	ltpFR	0	11	1	LOUNGE	845	n/a	0	0	0.5869140625	0.422607421875	lower	../fonts/zerothre.ttf
2642.678	n/a	WORD	1321339	wordpools/wasnorm_wordpool_less_exclusions.txt	LTP206	ltpFR	0	11	1	PUB	1135	n/a	0	0	0.5869140625	0.422607421875	lower	../fonts/zerothre.ttf
2646.828	n/a	WORD	1323414	wordpools/wasnorm_wordpool_less_exclusions.txt	LTP206	ltpFR	0	11	1	REFEREE	1178	n/a	1	0	0.5869140625	0.422607421875	lower	../fonts/zerothre.ttf
2650.742	n/a	WORD	1325371	wordpools/wasnorm_wordpool_less_exclusions.txt	LTP206	ltpFR	0	11	1	BASKETBALL	96	n/a	0	0	0.5869140625	0.422607421875	lower	../fonts/zerothre.ttf
2654.774	n/a	WORD	1327387	wordpools/wasnorm_wordpool_less_exclusions.txt	LTP206	ltpFR	0	11	1	ROOST	1208	n/a	0	0	0.5869140625	0.422607421875	lower	../fonts/zerothre.ttf
2658.772	n/a	WORD	1329386	wordpools/wasnorm_wordpool_less_exclusions.txt	LTP206	ltpFR	0	11	1	SHRUB	1299	n/a	1	0	0.5869140625	0.422607421875	lower	../fonts/zerothre.ttf
2662.958	n/a	WORD	1331479	wordpools/wasnorm_wordpool_less_exclusions.txt	LTP206	ltpFR	0	11	1	SCALLOP	1242	n/a	1	0	0.5869140625	0.422607421875	lower	../fonts/zerothre.ttf
2666.904	n/a	WORD	1333452	wordpools/wasnorm_wordpool_less_exclusions.txt	LTP206	ltpFR	0	11	1	FOOT	590	n/a	1	0	0.5869140625	0.422607421875	lower	../fonts/zerothre.ttf
2671.004	n/a	WORD	1335502	wordpools/wasnorm_wordpool_less_exclusions.txt	LTP206	ltpFR	0	11	1	TYPIST	1532	n/a	1	0	0.5869140625	0.422607421875	lower	../fonts/zerothre.ttf
2675.202	n/a	WORD	1337601	wordpools/wasnorm_wordpool_less_exclusions.txt	LTP206	ltpFR	0	11	1	LEAF	808	n/a	1	0	0.5869140625	0.422607421875	lower	../fonts/zerothre.ttf
2679.102	n/a	WORD	1339551	wordpools/wasnorm_wordpool_less_exclusions.txt	LTP206	ltpFR	0	11	1	COD	340	n/a	1	0	0.5869140625	0.422607421875	lower	../fonts/zerothre.ttf
2683.25	n/a	WORD	1341625	wordpools/wasnorm_wordpool_less_exclusions.txt	LTP206	ltpFR	0	11	1	TOMATO	1476	n/a	1	0	0.5869140625	0.422607421875	lower	../fonts/zerothre.ttf
2687.298	n/a	WORD	1343649	wordpools/wasnorm_wordpool_less_exclusions.txt	LTP206	ltpFR	0	11	1	PEARL	1034	n/a	0	0	0.5869140625	0.422607421875	lower	../fonts/zerothre.ttf
2693.306	n/a	REC_START	1346653	n/a	LTP206	ltpFR	0	11	n/a	n/a	n/a	n/a	n/a	n/a	n/a	n/a	n/a	n/a
2696.318	n/a	REC_WORD	1348159	wordpools/wasnorm_wordpool_less_exclusions.txt	LTP206	ltpFR	0	11	1	PEARL	1034	n/a	0	n/a	n/a	n/a	n/a	n/a
2698.344	n/a	REC_WORD	1349172	wordpools/wasnorm_wordpool_less_exclusions.txt	LTP206	ltpFR	0	11	1	ROD	1203	n/a	0	n/a	n/a	n/a	n/a	n/a
2712.238	n/a	REC_WORD	1356119	wordpools/wasnorm_wordpool_less_exclusions.txt	LTP206	ltpFR	0	11	-1	MANAGER	863	n/a	-1	n/a	n/a	n/a	n/a	n/a
2720.232	n/a	REC_WORD	1360116	wordpools/wasnorm_wordpool_less_exclusions.txt	LTP206	ltpFR	0	11	1	SCALLOP	1242	n/a	1	n/a	n/a	n/a	n/a	n/a
2722.56	n/a	REC_WORD	1361280	wordpools/wasnorm_wordpool_less_exclusions.txt	LTP206	ltpFR	0	11	1	TOMATO	1476	n/a	1	n/a	n/a	n/a	n/a	n/a
2725.534	n/a	REC_WORD	1362767	wordpools/wasnorm_wordpool_less_exclusions.txt	LTP206	ltpFR	0	11	1	ROOST	1208	n/a	0	n/a	n/a	n/a	n/a	n/a
2740.366	n/a	REC_WORD	1370183	wordpools/wasnorm_wordpool_less_exclusions.txt	LTP206	ltpFR	0	11	1	FOOT	590	n/a	1	n/a	n/a	n/a	n/a	n/a
2750.434	n/a	REC_WORD	1375217	wordpools/wasnorm_wordpool_less_exclusions.txt	LTP206	ltpFR	0	11	1	REFEREE	1178	n/a	1	n/a	n/a	n/a	n/a	n/a
2762.402	n/a	REC_WORD	1381201	wordpools/wasnorm_wordpool_less_exclusions.txt	LTP206	ltpFR	0	11	1	TOMATO	1476	n/a	1	n/a	n/a	n/a	n/a	n/a
2767.5	n/a	REC_WORD	1383750	wordpools/wasnorm_wordpool_less_exclusions.txt	LTP206	ltpFR	0	11	1	ROD	1203	n/a	0	n/a	n/a	n/a	n/a	n/a
2782.012	n/a	WORD	1391006	wordpools/wasnorm_wordpool_less_exclusions.txt	LTP206	ltpFR	0	12	1	STRANGER	1389	n/a	1	0	0.5869140625	0.422607421875	lower	../fonts/zerothre.ttf
2786.01	n/a	WORD	1393005	wordpools/wasnorm_wordpool_less_exclusions.txt	LTP206	ltpFR	0	12	1	FARM	552	n/a	0	0	0.5869140625	0.422607421875	lower	../fonts/zerothre.ttf
2789.858	n/a	WORD	1394929	wordpools/wasnorm_wordpool_less_exclusions.txt	LTP206	ltpFR	0	12	1	TEAPOT	1442	n/a	0	0	0.5869140625	0.422607421875	lower	../fonts/zerothre.ttf
2793.922	n/a	WORD	1396961	wordpools/wasnorm_wordpool_less_exclusions.txt	LTP206	ltpFR	0	12	1	NERVE	944	n/a	1	0	0.5869140625	0.422607421875	lower	../fonts/zerothre.ttf
2797.988	n/a	WORD	1398994	wordpools/wasnorm_wordpool_less_exclusions.txt	LTP206	ltpFR	0	12	1	ANT	25	n/a	1	0	0.5869140625	0.422607421875	lower	../fonts/zerothre.ttf
2802.138	n/a	WORD	1401069	wordpools/wasnorm_wordpool_less_exclusions.txt	LTP206	ltpFR	0	12	1	CHAMBER	277	n/a	0	0	0.5869140625	0.422607421875	lower	../fonts/zerothre.ttf
2806.12	n/a	WORD	1403060	wordpools/wasnorm_wordpool_less_exclusions.txt	LTP206	ltpFR	0	12	1	ROOMMATE	1207	n/a	1	0	0.5869140625	0.422607421875	lower	../fonts/zerothre.ttf
2810.202	n/a	WORD	1405101	wordpools/wasnorm_wordpool_less_exclusions.txt	LTP206	ltpFR	0	12	1	MOWER	928	n/a	0	0	0.5869140625	0.422607421875	lower	../fonts/zerothre.ttf
2814.368	n/a	WORD	1407184	wordpools/wasnorm_wordpool_less_exclusions.txt	LTP206	ltpFR	0	12	1	ATMOSPHERE	54	n/a	0	0	0.5869140625	0.422607421875	lower	../fonts/zerothre.ttf
2818.35	n/a	WORD	1409175	wordpools/wasnorm_wordpool_less_exclusions.txt	LTP206	ltpFR	0	12	1	STEW	1380	n/a	1	0	0.5869140625	0.422607421875	lower	../fonts/zerothre.ttf
2822.414	n/a	WORD	1411207	wordpools/wasnorm_wordpool_less_exclusions.txt	LTP206	ltpFR	0	12	1	CLAM	315	n/a	1	0	0.5869140625	0.422607421875	lower	../fonts/zerothre.ttf
2826.246	n/a	WORD	1413123	wordpools/wasnorm_wordpool_less_exclusions.txt	LTP206	ltpFR	0	12	1	COCOON	339	n/a	1	0	0.5869140625	0.422607421875	lower	../fonts/zerothre.ttf
2830.278	n/a	WORD	1415139	wordpools/wasnorm_wordpool_less_exclusions.txt	LTP206	ltpFR	0	12	1	BEAR	106	n/a	1	0	0.5869140625	0.422607421875	lower	../fonts/zerothre.ttf
2834.378	n/a	WORD	1417189	wordpools/wasnorm_wordpool_less_exclusions.txt	LTP206	ltpFR	0	12	1	GRIZZLY	662	n/a	0	0	0.5869140625	0.422607421875	lower	../fonts/zerothre.ttf
2838.476	n/a	WORD	1419238	wordpools/wasnorm_wordpool_less_exclusions.txt	LTP206	ltpFR	0	12	1	TYPEWRITER	1531	n/a	0	0	0.5869140625	0.422607421875	lower	../fonts/zerothre.ttf
2842.472	n/a	WORD	1421236	wordpools/wasnorm_wordpool_less_exclusions.txt	LTP206	ltpFR	0	12	1	BINDER	127	n/a	0	0	0.5869140625	0.422607421875	lower	../fonts/zerothre.ttf
2848.33	n/a	REC_START	1424165	n/a	LTP206	ltpFR	0	12	n/a	n/a	n/a	n/a	n/a	n/a	n/a	n/a	n/a	n/a
2851.0	n/a	REC_WORD	1425500	wordpools/wasnorm_wordpool_less_exclusions.txt	LTP206	ltpFR	0	12	1	GRIZZLY	662	n/a	0	n/a	n/a	n/a	n/a	n/a
2853.266	n/a	REC_WORD	1426633	wordpools/wasnorm_wordpool_less_exclusions.txt	LTP206	ltpFR	0	12	1	BEAR	106	n/a	1	n/a	n/a	n/a	n/a	n/a
2865.922	n/a	REC_WORD	1432961	wordpools/wasnorm_wordpool_less_exclusions.txt	LTP206	ltpFR	0	12	1	ANT	25	n/a	1	n/a	n/a	n/a	n/a	n/a
2872.916	n/a	REC_WORD	1436458	wordpools/wasnorm_wordpool_less_exclusions.txt	LTP206	ltpFR	0	12	1	STEW	1380	n/a	1	n/a	n/a	n/a	n/a	n/a
2875.954	n/a	REC_WORD	1437977	wordpools/wasnorm_wordpool_less_exclusions.txt	LTP206	ltpFR	0	12	n/a	MUSHROOM	934	n/a	n/a	n/a	n/a	n/a	n/a	n/a
2894.852	n/a	REC_WORD	1447426	wordpools/wasnorm_wordpool_less_exclusions.txt	LTP206	ltpFR	0	12	1	COCOON	339	n/a	1	n/a	n/a	n/a	n/a	n/a
2917.352	n/a	REC_WORD	1458676	wordpools/wasnorm_wordpool_less_exclusions.txt	LTP206	ltpFR	0	12	1	NERVE	944	n/a	1	n/a	n/a	n/a	n/a	n/a
2923.986	n/a	REST_REWET	1461993	n/a	LTP206	ltpFR	0	12	n/a	n/a	n/a	n/a	n/a	n/a	n/a	n/a	n/a	n/a
3340.728	n/a	WORD	1670364	wordpools/wasnorm_wordpool_less_exclusions.txt	LTP206	ltpFR	0	13	1	PAINT	1003	n/a	0	0	0.5869140625	0.422607421875	lower	../fonts/zerothre.ttf
3344.778	n/a	WORD	1672389	wordpools/wasnorm_wordpool_less_exclusions.txt	LTP206	ltpFR	0	13	1	PICTURE	1061	n/a	0	0	0.5869140625	0.422607421875	lower	../fonts/zerothre.ttf
3348.726	n/a	WORD	1674363	wordpools/wasnorm_wordpool_less_exclusions.txt	LTP206	ltpFR	0	13	1	JOURNAL	760	n/a	0	0	0.5869140625	0.422607421875	lower	../fonts/zerothre.ttf
3352.624	n/a	WORD	1676312	wordpools/wasnorm_wordpool_less_exclusions.txt	LTP206	ltpFR	0	13	1	ABDOMEN	1	n/a	1	0	0.5869140625	0.422607421875	lower	../fonts/zerothre.ttf
3356.522	n/a	WORD	1678261	wordpools/wasnorm_wordpool_less_exclusions.txt	LTP206	ltpFR	0	13	0	ALBUM	14	n/a	0	1	0.412841796875	0.57763671875	upper	../fonts/amplitud.ttf
3360.57	n/a	WORD	1680285	wordpools/wasnorm_wordpool_less_exclusions.txt	LTP206	ltpFR	0	13	0	DISHWASHER	475	n/a	1	1	0.412841796875	0.57763671875	upper	../fonts/amplitud.ttf
3364.536	n/a	WORD	1682268	wordpools/wasnorm_wordpool_less_exclusions.txt	LTP206	ltpFR	0	13	0	GIRAFFE	636	n/a	1	1	0.412841796875	0.57763671875	upper	../fonts/amplitud.ttf
3368.702	n/a	WORD	1684351	wordpools/wasnorm_wordpool_less_exclusions.txt	LTP206	ltpFR	0	13	1	MOOSE	915	n/a	n/a	0	0.5869140625	0.422607421875	lower	../fonts/zerothre.ttf
3371.748	n/a	SLOW_MSG	1685874	n/a	LTP206	ltpFR	0	13	n/a	n/a	n/a	n/a	n/a	n/a	n/a	n/a	n/a	n/a
3374.158	n/a	WORD	1687079	wordpools/wasnorm_wordpool_less_exclusions.txt	LTP206	ltpFR	0	13	1	DESIGNER	451	n/a	1	0	0.5869140625	0.422607421875	lower	../fonts/zerothre.ttf
3378.022	n/a	WORD	1689011	wordpools/wasnorm_wordpool_less_exclusions.txt	LTP206	ltpFR	0	13	1	UNDERWEAR	1537	n/a	0	0	0.5869140625	0.422607421875	lower	../fonts/zerothre.ttf
3382.156	n/a	WORD	1691078	wordpools/wasnorm_wordpool_less_exclusions.txt	LTP206	ltpFR	0	13	1	TWISTER	1530	n/a	0	0	0.5869140625	0.422607421875	lower	../fonts/zerothre.ttf
3386.17	n/a	WORD	1693085	wordpools/wasnorm_wordpool_less_exclusions.txt	LTP206	ltpFR	0	13	0	JEANS	752	n/a	1	1	0.412841796875	0.57763671875	upper	../fonts/amplitud.ttf
3390.318	n/a	WORD	1695159	wordpools/wasnorm_wordpool_less_exclusions.txt	LTP206	ltpFR	0	13	0	WASHCLOTH	1591	n/a	0	1	0.412841796875	0.57763671875	upper	../fonts/amplitud.ttf
3394.2	n/a	WORD	1697100	wordpools/wasnorm_wordpool_less_exclusions.txt	LTP206	ltpFR	0	13	0	PRIEST	1122	n/a	1	1	0.412841796875	0.57763671875	upper	../fonts/amplitud.ttf
3398.25	n/a	WORD	1699125	wordpools/wasnorm_wordpool_less_exclusions.txt	LTP206	ltpFR	0	13	0	ENCYCLOPEDIA	533	n/a	1	1	0.412841796875	0.57763671875	upper	../fonts/amplitud.ttf
3402.198	n/a	WORD	1701099	wordpools/wasnorm_wordpool_less_exclusions.txt	LTP206	ltpFR	0	13	0	TOURIST	1488	n/a	1	1	0.412841796875	0.57763671875	upper	../fonts/amplitud.ttf
3407.954	n/a	REC_START	1703977	n/a	LTP206	ltpFR	0	13	n/a	n/a	n/a	n/a	n/a	n/a	n/a	n/a	n/a	n/a
3412.02	n/a	REC_WORD	1706010	wordpools/wasnorm_wordpool_less_exclusions.txt	LTP206	ltpFR	0	13	0	TOURIST	1488	n/a	1	n/a	n/a	n/a	n/a	n/a
3414.328	n/a	REC_WORD	1707164	wordpools/wasnorm_wordpool_less_exclusions.txt	LTP206	ltpFR	0	13	1	JOURNAL	760	n/a	0	n/a	n/a	n/a	n/a	n/a
3417.826	n/a	REC_WORD	1708913	wordpools/wasnorm_wordpool_less_exclusions.txt	LTP206	ltpFR	0	13	1	UNDERWEAR	1537	n/a	0	n/a	n/a	n/a	n/a	n/a
3421.05	n/a	REC_WORD	1710525	wordpools/wasnorm_wordpool_less_exclusions.txt	LTP206	ltpFR	0	13	0	PRIEST	1122	n/a	1	n/a	n/a	n/a	n/a	n/a
3424.346	n/a	REC_WORD	1712173	wordpools/wasnorm_wordpool_less_exclusions.txt	LTP206	ltpFR	0	13	0	DISHWASHER	475	n/a	1	n/a	n/a	n/a	n/a	n/a
3432.418	n/a	REC_WORD	1716209	wordpools/wasnorm_wordpool_less_exclusions.txt	LTP206	ltpFR	0	13	1	MOOSE	915	n/a	n/a	n/a	n/a	n/a	n/a	n/a
3443.854	n/a	REC_WORD	1721927	wordpools/wasnorm_wordpool_less_exclusions.txt	LTP206	ltpFR	0	13	1	JOURNAL	760	n/a	0	n/a	n/a	n/a	n/a	n/a
3446.382	n/a	REC_WORD	1723191	wordpools/wasnorm_wordpool_less_exclusions.txt	LTP206	ltpFR	0	13	0	ENCYCLOPEDIA	533	n/a	1	n/a	n/a	n/a	n/a	n/a
3447.382	n/a	REC_WORD_VV	1723691	wordpools/wasnorm_wordpool_less_exclusions.txt	LTP206	ltpFR	0	13	n/a	<>	-1	n/a	n/a	n/a	n/a	n/a	n/a	n/a
3453.672	n/a	REC_WORD	1726836	wordpools/wasnorm_wordpool_less_exclusions.txt	LTP206	ltpFR	0	13	1	DESIGNER	451	n/a	1	n/a	n/a	n/a	n/a	n/a
3480.242	n/a	REC_WORD	1740121	wordpools/wasnorm_wordpool_less_exclusions.txt	LTP206	ltpFR	0	13	n/a	CYCLONE	431	n/a	n/a	n/a	n/a	n/a	n/a	n/a
3481.91	n/a	REC_WORD	1740955	wordpools/wasnorm_wordpool_less_exclusions.txt	LTP206	ltpFR	0	13	n/a	TORNADO	1485	n/a	n/a	n/a	n/a	n/a	n/a	n/a
3499.152	n/a	WORD	1749576	wordpools/wasnorm_wordpool_less_exclusions.txt	LTP206	ltpFR	0	14	1	SNAKE	1333	n/a	1	0	0.5869140625	0.422607421875	lower	../fonts/zerothre.ttf
3503.368	n/a	WORD	1751684	wordpools/wasnorm_wordpool_less_exclusions.txt	LTP206	ltpFR	0	14	1	CERAMICS	271	n/a	0	0	0.5869140625	0.422607421875	lower	../fonts/zerothre.ttf
3507.482	n/a	WORD	1753741	wordpools/wasnorm_wordpool_less_exclusions.txt	LTP206	ltpFR	0	14	1	RING	1193	n/a	0	0	0.5869140625	0.422607421875	lower	../fonts/zerothre.ttf
3511.464	n/a	WORD	1755732	wordpools/wasnorm_wordpool_less_exclusions.txt	LTP206	ltpFR	0	14	1	EARTH	515	n/a	0	0	0.5869140625	0.422607421875	lower	../fonts/zerothre.ttf
3515.648	n/a	WORD	1757824	wordpools/wasnorm_wordpool_less_exclusions.txt	LTP206	ltpFR	0	14	0	BAG	69	n/a	0	1	0.412841796875	0.57763671875	upper	../fonts/amplitud.ttf
3519.83	n/a	WORD	1759915	wordpools/wasnorm_wordpool_less_exclusions.txt	LTP206	ltpFR	0	14	0	THICKET	1455	n/a	1	1	0.412841796875	0.57763671875	upper	../fonts/amplitud.ttf
3524.03	n/a	WORD	1762015	wordpools/wasnorm_wordpool_less_exclusions.txt	LTP206	ltpFR	0	14	1	BOUQUET	157	n/a	1	0	0.5869140625	0.422607421875	lower	../fonts/zerothre.ttf
3527.928	n/a	WORD	1763964	wordpools/wasnorm_wordpool_less_exclusions.txt	LTP206	ltpFR	0	14	1	WORM	1623	n/a	1	0	0.5869140625	0.422607421875	lower	../fonts/zerothre.ttf
3531.944	n/a	WORD	1765972	wordpools/wasnorm_wordpool_less_exclusions.txt	LTP206	ltpFR	0	14	0	LIZARD	834	n/a	1	1	0.412841796875	0.57763671875	upper	../fonts/amplitud.ttf
3536.11	n/a	WORD	1768055	wordpools/wasnorm_wordpool_less_exclusions.txt	LTP206	ltpFR	0	14	0	SKETCH	1315	n/a	0	1	0.412841796875	0.57763671875	upper	../fonts/amplitud.ttf
3540.324	n/a	WORD	1770162	wordpools/wasnorm_wordpool_less_exclusions.txt	LTP206	ltpFR	0	14	0	SCULPTURE	1258	n/a	1	1	0.412841796875	0.57763671875	upper	../fonts/amplitud.ttf
3544.224	n/a	WORD	1772112	wordpools/wasnorm_wordpool_less_exclusions.txt	LTP206	ltpFR	0	14	0	SPONGE	1355	n/a	0	1	0.412841796875	0.57763671875	upper	../fonts/amplitud.ttf
3548.122	n/a	WORD	1774061	wordpools/wasnorm_wordpool_less_exclusions.txt	LTP206	ltpFR	0	14	0	BUBBLE	183	n/a	0	1	0.412841796875	0.57763671875	upper	../fonts/amplitud.ttf
3552.154	n/a	WORD	1776077	wordpools/wasnorm_wordpool_less_exclusions.txt	LTP206	ltpFR	0	14	0	GOOSE	649	n/a	1	1	0.412841796875	0.57763671875	upper	../fonts/amplitud.ttf
3555.984	n/a	WORD	1777992	wordpools/wasnorm_wordpool_less_exclusions.txt	LTP206	ltpFR	0	14	1	DUCK	504	n/a	1	0	0.5869140625	0.422607421875	lower	../fonts/zerothre.ttf
3559.984	n/a	WORD	1779992	wordpools/wasnorm_wordpool_less_exclusions.txt	LTP206	ltpFR	0	14	1	OCEAN	970	n/a	0	0	0.5869140625	0.422607421875	lower	../fonts/zerothre.ttf
3565.772	n/a	REC_START	1782886	n/a	LTP206	ltpFR	0	14	n/a	n/a	n/a	n/a	n/a	n/a	n/a	n/a	n/a	n/a
3569.854	n/a	REC_WORD	1784927	wordpools/wasnorm_wordpool_less_exclusions.txt	LTP206	ltpFR	0	14	1	DUCK	504	n/a	1	n/a	n/a	n/a	n/a	n/a
3572.05	n/a	REC_WORD	1786025	wordpools/wasnorm_wordpool_less_exclusions.txt	LTP206	ltpFR	0	14	1	OCEAN	970	n/a	0	n/a	n/a	n/a	n/a	n/a
3574.09	n/a	REC_WORD	1787045	wordpools/wasnorm_wordpool_less_exclusions.txt	LTP206	ltpFR	0	14	0	GOOSE	649	n/a	1	n/a	n/a	n/a	n/a	n/a
3577.732	n/a	REC_WORD	1788866	wordpools/wasnorm_wordpool_less_exclusions.txt	LTP206	ltpFR	0	14	1	CERAMICS	271	n/a	0	n/a	n/a	n/a	n/a	n/a
3589.156	n/a	REC_WORD	1794578	wordpools/wasnorm_wordpool_less_exclusions.txt	LTP206	ltpFR	0	14	0	SCREEN	1253	n/a	1	n/a	n/a	n/a	n/a	n/a
3597.612	n/a	REC_WORD	1798806	wordpools/wasnorm_wordpool_less_exclusions.txt	LTP206	ltpFR	0	14	0	SCULPTURE	1258	n/a	1	n/a	n/a	n/a	n/a	n/a
3611.212	n/a	REC_WORD	1805606	wordpools/wasnorm_wordpool_less_exclusions.txt	LTP206	ltpFR	0	14	0	THICKET	1455	n/a	1	n/a	n/a	n/a	n/a	n/a
3620.292	n/a	REC_WORD	1810146	wordpools/wasnorm_wordpool_less_exclusions.txt	LTP206	ltpFR	0	14	1	OCEAN	970	n/a	0	n/a	n/a	n/a	n/a	n/a
3651.1	n/a	WORD	1825550	wordpools/wasnorm_wordpool_less_exclusions.txt	LTP206	ltpFR	0	15	0	CIGAR	308	n/a	0	1	0.412841796875	0.57763671875	upper	../fonts/amplitud.ttf
3655.112	n/a	WORD	1827556	wordpools/wasnorm_wordpool_less_exclusions.txt	LTP206	ltpFR	0	15	0	STEAM	1375	n/a	1	1	0.412841796875	0.57763671875	upper	../fonts/amplitud.ttf
3659.164	n/a	WORD	1829582	wordpools/wasnorm_wordpool_less_exclusions.txt	LTP206	ltpFR	0	15	1	LIBRARY	816	n/a	0	0	0.5869140625	0.422607421875	lower	../fonts/zerothre.ttf
3663.212	n/a	WORD	1831606	wordpools/wasnorm_wordpool_less_exclusions.txt	LTP206	ltpFR	0	15	1	BOOK	149	n/a	0	0	0.5869140625	0.422607421875	lower	../fonts/zerothre.ttf
3667.428	n/a	WORD	1833714	wordpools/wasnorm_wordpool_less_exclusions.txt	LTP206	ltpFR	0	15	1	MOUSE	925	n/a	1	0	0.5869140625	0.422607421875	lower	../fonts/zerothre.ttf
3671.61	n/a	WORD	1835805	wordpools/wasnorm_wordpool_less_exclusions.txt	LTP206	ltpFR	0	15	1	COUGAR	387	n/a	1	0	0.5869140625	0.422607421875	lower	../fonts/zerothre.ttf
3675.542	n/a	WORD	1837771	wordpools/wasnorm_wordpool_less_exclusions.txt	LTP206	ltpFR	0	15	1	DOCUMENT	479	n/a	0	0	0.5869140625	0.422607421875	lower	../fonts/zerothre.ttf
3679.738	n/a	WORD	1839869	wordpools/wasnorm_wordpool_less_exclusions.txt	LTP206	ltpFR	0	15	0	TULIP	1517	n/a	0	1	0.412841796875	0.57763671875	upper	../fonts/amplitud.ttf
3683.94	n/a	WORD	1841970	wordpools/wasnorm_wordpool_less_exclusions.txt	LTP206	ltpFR	0	15	0	HEN	703	n/a	0	1	0.412841796875	0.57763671875	upper	../fonts/amplitud.ttf
3687.922	n/a	WORD	1843961	wordpools/wasnorm_wordpool_less_exclusions.txt	LTP206	ltpFR	0	15	0	CRATER	400	n/a	1	1	0.412841796875	0.57763671875	upper	../fonts/amplitud.ttf
3691.888	n/a	WORD	1845944	wordpools/wasnorm_wordpool_less_exclusions.txt	LTP206	ltpFR	0	15	1	LOBSTER	837	n/a	1	0	0.5869140625	0.422607421875	lower	../fonts/zerothre.ttf
3696.002	n/a	WORD	1848001	wordpools/wasnorm_wordpool_less_exclusions.txt	LTP206	ltpFR	0	15	1	ORCHID	982	n/a	1	0	0.5869140625	0.422607421875	lower	../fonts/zerothre.ttf
3700.07	n/a	WORD	1850035	wordpools/wasnorm_wordpool_less_exclusions.txt	LTP206	ltpFR	0	15	1	PARENT	1013	n/a	1	0	0.5869140625	0.422607421875	lower	../fonts/zerothre.ttf
3704.136	n/a	WORD	1852068	wordpools/wasnorm_wordpool_less_exclusions.txt	LTP206	ltpFR	0	15	0	KEEPER	769	n/a	1	1	0.412841796875	0.57763671875	upper	../fonts/amplitud.ttf
3708.284	n/a	WORD	1854142	wordpools/wasnorm_wordpool_less_exclusions.txt	LTP206	ltpFR	0	15	0	OYSTER	995	n/a	0	1	0.412841796875	0.57763671875	upper	../fonts/amplitud.ttf
3712.498	n/a	WORD	1856249	wordpools/wasnorm_wordpool_less_exclusions.txt	LTP206	ltpFR	0	15	0	FAMILY	550	n/a	1	1	0.412841796875	0.57763671875	upper	../fonts/amplitud.ttf
3718.306	n/a	REC_START	1859153	n/a	LTP206	ltpFR	0	15	n/a	n/a	n/a	n/a	n/a	n/a	n/a	n/a	n/a	n/a
3720.736	n/a	REC_WORD	1860368	wordpools/wasnorm_wordpool_less_exclusions.txt	LTP206	ltpFR	0	15	0	OYSTER	995	n/a	0	n/a	n/a	n/a	n/a	n/a
3722.374	n/a	REC_WORD	1861187	wordpools/wasnorm_wordpool_less_exclusions.txt	LTP206	ltpFR	0	15	0	FAMILY	550	n/a	1	n/a	n/a	n/a	n/a	n/a
3733.466	n/a	REC_WORD	1866733	wordpools/wasnorm_wordpool_less_exclusions.txt	LTP206	ltpFR	0	15	1	LOBSTER	837	n/a	1	n/a	n/a	n/a	n/a	n/a
3744.462	n/a	REC_WORD	1872231	wordpools/wasnorm_wordpool_less_exclusions.txt	LTP206	ltpFR	0	15	0	THICKET	1455	n/a	1	n/a	n/a	n/a	n/a	n/a
3757.52	n/a	REC_WORD	1878760	wordpools/wasnorm_wordpool_less_exclusions.txt	LTP206	ltpFR	0	15	0	FAMILY	550	n/a	1	n/a	n/a	n/a	n/a	n/a
3764.324	n/a	REC_WORD	1882162	wordpools/wasnorm_wordpool_less_exclusions.txt	LTP206	ltpFR	0	15	1	COUGAR	387	n/a	1	n/a	n/a	n/a	n/a	n/a
3806.576	n/a	WORD	1903288	wordpools/wasnorm_wordpool_less_exclusions.txt	LTP206	ltpFR	0	16	0	FUGITIVE	612	n/a	1	1	0.412841796875	0.57763671875	upper	../fonts/amplitud.ttf
3810.49	n/a	WORD	1905245	wordpools/wasnorm_wordpool_less_exclusions.txt	LTP206	ltpFR	0	16	0	COP	376	n/a	1	1	0.412841796875	0.57763671875	upper	../fonts/amplitud.ttf
3814.322	n/a	WORD	1907161	wordpools/wasnorm_wordpool_less_exclusions.txt	LTP206	ltpFR	0	16	0	FARMER	553	n/a	1	1	0.412841796875	0.57763671875	upper	../fonts/amplitud.ttf
3818.186	n/a	WORD	1909093	wordpools/wasnorm_wordpool_less_exclusions.txt	LTP206	ltpFR	0	16	0	LABYRINTH	791	n/a	1	1	0.412841796875	0.57763671875	upper	../fonts/amplitud.ttf
3822.218	n/a	WORD	1911109	wordpools/wasnorm_wordpool_less_exclusions.txt	LTP206	ltpFR	0	16	1	COOLER	375	n/a	0	0	0.5869140625	0.422607421875	lower	../fonts/zerothre.ttf
3826.066	n/a	WORD	1913033	wordpools/wasnorm_wordpool_less_exclusions.txt	LTP206	ltpFR	0	16	1	WATERFALL	1595	n/a	0	0	0.5869140625	0.422607421875	lower	../fonts/zerothre.ttf
3830.1	n/a	WORD	1915050	wordpools/wasnorm_wordpool_less_exclusions.txt	LTP206	ltpFR	0	16	1	RIVER	1194	n/a	0	0	0.5869140625	0.422607421875	lower	../fonts/zerothre.ttf
3834.248	n/a	WORD	1917124	wordpools/wasnorm_wordpool_less_exclusions.txt	LTP206	ltpFR	0	16	1	CHEST	295	n/a	1	0	0.5869140625	0.422607421875	lower	../fonts/zerothre.ttf
3838.148	n/a	WORD	1919074	wordpools/wasnorm_wordpool_less_exclusions.txt	LTP206	ltpFR	0	16	1	DRAWER	493	n/a	0	0	0.5869140625	0.422607421875	lower	../fonts/zerothre.ttf
3842.144	n/a	WORD	1921072	wordpools/wasnorm_wordpool_less_exclusions.txt	LTP206	ltpFR	0	16	0	POCKETBOOK	1094	n/a	0	1	0.412841796875	0.57763671875	upper	../fonts/amplitud.ttf
3846.094	n/a	WORD	1923047	wordpools/wasnorm_wordpool_less_exclusions.txt	LTP206	ltpFR	0	16	0	COCKTAIL	338	n/a	0	1	0.412841796875	0.57763671875	upper	../fonts/amplitud.ttf
3850.16	n/a	WORD	1925080	wordpools/wasnorm_wordpool_less_exclusions.txt	LTP206	ltpFR	0	16	0	CROW	414	n/a	0	1	0.412841796875	0.57763671875	upper	../fonts/amplitud.ttf
3854.358	n/a	WORD	1927179	wordpools/wasnorm_wordpool_less_exclusions.txt	LTP206	ltpFR	0	16	0	FILM	565	n/a	n/a	1	0.412841796875	0.57763671875	upper	../fonts/amplitud.ttf
3857.404	n/a	SLOW_MSG	1928702	n/a	LTP206	ltpFR	0	16	n/a	n/a	n/a	n/a	n/a	n/a	n/a	n/a	n/a	n/a
3859.93	n/a	WORD	1929965	wordpools/wasnorm_wordpool_less_exclusions.txt	LTP206	ltpFR	0	16	1	WALLET	1583	n/a	0	0	0.5869140625	0.422607421875	lower	../fonts/zerothre.ttf
3864.062	n/a	WORD	1932031	wordpools/wasnorm_wordpool_less_exclusions.txt	LTP206	ltpFR	0	16	1	ZIPPER	1636	n/a	0	0	0.5869140625	0.422607421875	lower	../fonts/zerothre.ttf
3868.244	n/a	WORD	1934122	wordpools/wasnorm_wordpool_less_exclusions.txt	LTP206	ltpFR	0	16	1	LONDON	843	n/a	0	0	0.5869140625	0.422607421875	lower	../fonts/zerothre.ttf
3874.152	n/a	REC_START	1937076	n/a	LTP206	ltpFR	0	16	n/a	n/a	n/a	n/a	n/a	n/a	n/a	n/a	n/a	n/a
3876.318	n/a	REC_WORD	1938159	wordpools/wasnorm_wordpool_less_exclusions.txt	LTP206	ltpFR	0	16	1	LONDON	843	n/a	0	n/a	n/a	n/a	n/a	n/a
3877.848	n/a	REC_WORD	1938924	wordpools/wasnorm_wordpool_less_exclusions.txt	LTP206	ltpFR	0	16	1	WALLET	1583	n/a	0	n/a	n/a	n/a	n/a	n/a
3882.02	n/a	REC_WORD	1941010	wordpools/wasnorm_wordpool_less_exclusions.txt	LTP206	ltpFR	0	16	1	ZIPPER	1636	n/a	0	n/a	n/a	n/a	n/a	n/a
3896.726	n/a	REC_WORD	1948363	wordpools/wasnorm_wordpool_less_exclusions.txt	LTP206	ltpFR	0	16	0	GIRAFFE	636	n/a	1	n/a	n/a	n/a	n/a	n/a
3903.846	n/a	REC_WORD	1951923	wordpools/wasnorm_wordpool_less_exclusions.txt	LTP206	ltpFR	0	16	0	CROW	414	n/a	0	n/a	n/a	n/a	n/a	n/a
3927.24	n/a	REC_WORD	1963620	wordpools/wasnorm_wordpool_less_exclusions.txt	LTP206	ltpFR	0	16	0	ENCYCLOPEDIA	533	n/a	1	n/a	n/a	n/a	n/a	n/a
3928.24	n/a	REC_WORD_VV	1964120	wordpools/wasnorm_wordpool_less_exclusions.txt	LTP206	ltpFR	0	16	n/a	<>	-1	n/a	n/a	n/a	n/a	n/a	n/a	n/a
3938.798	n/a	REC_WORD	1969399	wordpools/wasnorm_wordpool_less_exclusions.txt	LTP206	ltpFR	0	16	1	DOCUMENT	479	n/a	0	n/a	n/a	n/a	n/a	n/a
3945.844	n/a	REC_WORD	1972922	wordpools/wasnorm_wordpool_less_exclusions.txt	LTP206	ltpFR	0	16	1	LONDON	843	n/a	0	n/a	n/a	n/a	n/a	n/a
4029.596	n/a	REC_START	2014798	n/a	LTP206	ltpFR	0	n/a	n/a	n/a	n/a	n/a	n/a	n/a	n/a	n/a	n/a	n/a
4030.608	n/a	FFR_REC_WORD	2015304	wordpools/wasnorm_wordpool_less_exclusions.txt	LTP206	ltpFR	0	n/a	0	SPACE	1345	n/a	1	n/a	n/a	n/a	n/a	n/a
4033.092	n/a	FFR_REC_WORD	2016546	wordpools/wasnorm_wordpool_less_exclusions.txt	LTP206	ltpFR	0	n/a	0	JUPITER	765	n/a	1	n/a	n/a	n/a	n/a	n/a
4036.046	n/a	FFR_REC_WORD	2018023	wordpools/wasnorm_wordpool_less_exclusions.txt	LTP206	ltpFR	0	n/a	1	EARTH	515	n/a	0	n/a	n/a	n/a	n/a	n/a
4040.75	n/a	FFR_REC_WORD	2020375	wordpools/wasnorm_wordpool_less_exclusions.txt	LTP206	ltpFR	0	n/a	0	GOOSE	649	n/a	1	n/a	n/a	n/a	n/a	n/a
4048.818	n/a	FFR_REC_WORD	2024409	wordpools/wasnorm_wordpool_less_exclusions.txt	LTP206	ltpFR	0	n/a	1	DUCK	504	n/a	1	n/a	n/a	n/a	n/a	n/a
4053.516	n/a	FFR_REC_WORD	2026758	wordpools/wasnorm_wordpool_less_exclusions.txt	LTP206	ltpFR	0	n/a	n/a	GRAPHITE	-1	n/a	n/a	n/a	n/a	n/a	n/a	n/a
4061.554	n/a	FFR_REC_WORD	2030777	wordpools/wasnorm_wordpool_less_exclusions.txt	LTP206	ltpFR	0	n/a	1	BARTENDER	92	n/a	1	n/a	n/a	n/a	n/a	n/a
4063.814	n/a	FFR_REC_WORD	2031907	wordpools/wasnorm_wordpool_less_exclusions.txt	LTP206	ltpFR	0	n/a	0	COCKTAIL	338	n/a	0	n/a	n/a	n/a	n/a	n/a
4070.144	n/a	FFR_REC_WORD	2035072	wordpools/wasnorm_wordpool_less_exclusions.txt	LTP206	ltpFR	0	n/a	0	ENCYCLOPEDIA	533	n/a	1	n/a	n/a	n/a	n/a	n/a
4083.994	n/a	FFR_REC_WORD	2041997	wordpools/wasnorm_wordpool_less_exclusions.txt	LTP206	ltpFR	0	n/a	0	KITCHEN	778	n/a	1	n/a	n/a	n/a	n/a	n/a
4087.552	n/a	FFR_REC_WORD	2043776	wordpools/wasnorm_wordpool_less_exclusions.txt	LTP206	ltpFR	0	n/a	0	ROOM	1206	n/a	1	n/a	n/a	n/a	n/a	n/a
4090.75	n/a	FFR_REC_WORD	2045375	wordpools/wasnorm_wordpool_less_exclusions.txt	LTP206	ltpFR	0	n/a	0	ACTRESS	6	n/a	1	n/a	n/a	n/a	n/a	n/a
4095.256	n/a	FFR_REC_WORD	2047628	wordpools/wasnorm_wordpool_less_exclusions.txt	LTP206	ltpFR	0	n/a	0	GOVERNOR	651	n/a	1	n/a	n/a	n/a	n/a	n/a
4097.266	n/a	FFR_REC_WORD	2048633	wordpools/wasnorm_wordpool_less_exclusions.txt	LTP206	ltpFR	0	n/a	-1	CORPORATION	382	n/a	-1	n/a	n/a	n/a	n/a	n/a
4099.794	n/a	FFR_REC_WORD	2049897	wordpools/wasnorm_wordpool_less_exclusions.txt	LTP206	ltpFR	0	n/a	-1	COMMUNITY	356	n/a	-1	n/a	n/a	n/a	n/a	n/a
4112.002	n/a	FFR_REC_WORD	2056001	wordpools/wasnorm_wordpool_less_exclusions.txt	LTP206	ltpFR	0	n/a	n/a	TRACTOR	1493	n/a	n/a	n/a	n/a	n/a	n/a	n/a
4113.604	n/a	FFR_REC_WORD	2056802	wordpools/wasnorm_wordpool_less_exclusions.txt	LTP206	ltpFR	0	n/a	0	TRUCK	1512	n/a	1	n/a	n/a	n/a	n/a	n/a
4122.474	n/a	FFR_REC_WORD	2061237	wordpools/wasnorm_wordpool_less_exclusions.txt	LTP206	ltpFR	0	n/a	0	FARMER	553	n/a	1	n/a	n/a	n/a	n/a	n/a
4132.018	n/a	FFR_REC_WORD	2066009	wordpools/wasnorm_wordpool_less_exclusions.txt	LTP206	ltpFR	0	n/a	n/a	POLICEMAN	-1	n/a	n/a	n/a	n/a	n/a	n/a	n/a
4149.414	n/a	FFR_REC_WORD	2074707	wordpools/wasnorm_wordpool_less_exclusions.txt	LTP206	ltpFR	0	n/a	1	TOMATO	1476	n/a	1	n/a	n/a	n/a	n/a	n/a
4153.76	n/a	FFR_REC_WORD	2076880	wordpools/wasnorm_wordpool_less_exclusions.txt	LTP206	ltpFR	0	n/a	0	RAISIN	1163	n/a	0	n/a	n/a	n/a	n/a	n/a
4156.024	n/a	FFR_REC_WORD	2078012	wordpools/wasnorm_wordpool_less_exclusions.txt	LTP206	ltpFR	0	n/a	1	STEW	1380	n/a	1	n/a	n/a	n/a	n/a	n/a
4180.536	n/a	FFR_REC_WORD	2090268	wordpools/wasnorm_wordpool_less_exclusions.txt	LTP206	ltpFR	0	n/a	0	COACH	331	n/a	1	n/a	n/a	n/a	n/a	n/a
4184.616	n/a	FFR_REC_WORD	2092308	wordpools/wasnorm_wordpool_less_exclusions.txt	LTP206	ltpFR	0	n/a	1	NERVE	944	n/a	1	n/a	n/a	n/a	n/a	n/a
4195.706	n/a	FFR_REC_WORD	2097853	wordpools/wasnorm_wordpool_less_exclusions.txt	LTP206	ltpFR	0	n/a	0	BLUEPRINT	142	n/a	0	n/a	n/a	n/a	n/a	n/a
4199.952	n/a	FFR_REC_WORD	2099976	wordpools/wasnorm_wordpool_less_exclusions.txt	LTP206	ltpFR	0	n/a	0	SCREEN	1253	n/a	1	n/a	n/a	n/a	n/a	n/a
4213.802	n/a	FFR_REC_WORD	2106901	wordpools/wasnorm_wordpool_less_exclusions.txt	LTP206	ltpFR	0	n/a	0	PORPOISE	1109	n/a	1	n/a	n/a	n/a	n/a	n/a
4220.94	n/a	FFR_REC_WORD	2110470	wordpools/wasnorm_wordpool_less_exclusions.txt	LTP206	ltpFR	0	n/a	0	FOREST	593	n/a	1	n/a	n/a	n/a	n/a	n/a
4229.796	n/a	FFR_REC_WORD	2114898	wordpools/wasnorm_wordpool_less_exclusions.txt	LTP206	ltpFR	0	n/a	0	STEAM	1375	n/a	1	n/a	n/a	n/a	n/a	n/a
4250.52	n/a	FFR_REC_WORD	2125260	wordpools/wasnorm_wordpool_less_exclusions.txt	LTP206	ltpFR	0	n/a	0	GOVERNOR	651	n/a	1	n/a	n/a	n/a	n/a	n/a
4267.274	n/a	FFR_REC_WORD	2133637	wordpools/wasnorm_wordpool_less_exclusions.txt	LTP206	ltpFR	0	n/a	0	DISHWASHER	475	n/a	1	n/a	n/a	n/a	n/a	n/a
4287.154	n/a	FFR_REC_WORD	2143577	wordpools/wasnorm_wordpool_less_exclusions.txt	LTP206	ltpFR	0	n/a	0	ACTRESS	6	n/a	1	n/a	n/a	n/a	n/a	n/a
4296.812	n/a	FFR_REC_WORD	2148406	wordpools/wasnorm_wordpool_less_exclusions.txt	LTP206	ltpFR	0	n/a	-1	CANOE	233	n/a	-1	n/a	n/a	n/a	n/a	n/a
4322.436	n/a	FFR_REC_WORD	2161218	wordpools/wasnorm_wordpool_less_exclusions.txt	LTP206	ltpFR	0	n/a	1	BONE	148	n/a	1	n/a	n/a	n/a	n/a	n/a
4325.892	n/a	FFR_REC_WORD_VV	2162946	wordpools/wasnorm_wordpool_less_exclusions.txt	LTP206	ltpFR	0	n/a	n/a	<>	-1	n/a	n/a	n/a	n/a	n/a	n/a	n/a
4327.04	n/a	FFR_REC_WORD	2163520	wordpools/wasnorm_wordpool_less_exclusions.txt	LTP206	ltpFR	0	n/a	1	CHEST	295	n/a	1	n/a	n/a	n/a	n/a	n/a
4663.168	n/a	REC_START	2331584	n/a	LTP206	ltpFR	0	1	n/a	n/a	n/a	n/a	n/a	n/a	n/a	n/a	n/a	n/a
4663.218	n/a	RECOG_LURE	2331609	n/a	LTP206	ltpFR	0	1	n/a	LIEUTENANT	818	5	n/a	n/a	n/a	n/a	n/a	n/a
4664.89	n/a	RECOG_RESP	2332445	n/a	LTP206	ltpFR	0	1	n/a	LIEUTENANT	818	n/a	n/a	n/a	n/a	n/a	n/a	n/a
4669.788	n/a	RECOG_CONF	2334894	n/a	LTP206	ltpFR	0	1	n/a	LIEUTENANT	818	5	n/a	n/a	n/a	n/a	n/a	n/a
4672.418	n/a	RECOG_LURE	2336209	n/a	LTP206	ltpFR	0	1	n/a	DRUM	502	5	n/a	n/a	n/a	n/a	n/a	n/a
4673.944	n/a	RECOG_RESP	2336972	n/a	LTP206	ltpFR	0	1	n/a	DRUM	502	n/a	n/a	n/a	n/a	n/a	n/a	n/a
4677.97	n/a	RECOG_CONF	2338985	n/a	LTP206	ltpFR	0	1	n/a	DRUM	502	5	n/a	n/a	n/a	n/a	n/a	n/a
4680.7	n/a	RECOG_TARGET	2340350	n/a	LTP206	ltpFR	0	1	1	TYPEWRITER	1531	4	0	n/a	n/a	n/a	n/a	n/a
4683.418	n/a	RECOG_RESP	2341709	n/a	LTP206	ltpFR	0	1	1	TYPEWRITER	1531	n/a	0	n/a	n/a	n/a	n/a	n/a
4686.75	n/a	RECOG_CONF	2343375	n/a	LTP206	ltpFR	0	1	1	TYPEWRITER	1531	4	0	n/a	n/a	n/a	n/a	n/a
4688.964	n/a	RECOG_LURE	2344482	n/a	LTP206	ltpFR	0	1	n/a	HUT	729	3	n/a	n/a	n/a	n/a	n/a	n/a
4691.494	n/a	RECOG_RESP	2345747	n/a	LTP206	ltpFR	0	1	n/a	HUT	729	n/a	n/a	n/a	n/a	n/a	n/a	n/a
4695.232	n/a	RECOG_CONF	2347616	n/a	LTP206	ltpFR	0	1	n/a	HUT	729	3	n/a	n/a	n/a	n/a	n/a	n/a
4697.044	n/a	RECOG_LURE	2348522	n/a	LTP206	ltpFR	0	1	n/a	DAISY	435	5	n/a	n/a	n/a	n/a	n/a	n/a
4698.426	n/a	RECOG_RESP	2349213	n/a	LTP206	ltpFR	0	1	n/a	DAISY	435	n/a	n/a	n/a	n/a	n/a	n/a	n/a
4701.748	n/a	RECOG_CONF	2350874	n/a	LTP206	ltpFR	0	1	n/a	DAISY	435	5	n/a	n/a	n/a	n/a	n/a	n/a
4703.788	n/a	RECOG_TARGET	2351894	n/a	LTP206	ltpFR	0	1	1	BOOK	149	3	0	n/a	n/a	n/a	n/a	n/a
4706.81	n/a	RECOG_RESP	2353405	n/a	LTP206	ltpFR	0	1	1	BOOK	149	n/a	0	n/a	n/a	n/a	n/a	n/a
4709.87	n/a	RECOG_CONF	2354935	n/a	LTP206	ltpFR	0	1	1	BOOK	149	3	0	n/a	n/a	n/a	n/a	n/a
4711.884	n/a	RECOG_LURE	2355942	n/a	LTP206	ltpFR	0	1	n/a	CHECK	284	5	n/a	n/a	n/a	n/a	n/a	n/a
4713.296	n/a	RECOG_RESP	2356648	n/a	LTP206	ltpFR	0	1	n/a	CHECK	284	n/a	n/a	n/a	n/a	n/a	n/a	n/a
4715.486	n/a	RECOG_CONF	2357743	n/a	LTP206	ltpFR	0	1	n/a	CHECK	284	5	n/a	n/a	n/a	n/a	n/a	n/a
4717.458	n/a	RECOG_TARGET	2358729	n/a	LTP206	ltpFR	0	1	1	REFEREE	1178	5	1	n/a	n/a	n/a	n/a	n/a
4719.594	n/a	RECOG_RESP	2359797	n/a	LTP206	ltpFR	0	1	1	REFEREE	1178	n/a	1	n/a	n/a	n/a	n/a	n/a
4721.424	n/a	RECOG_CONF	2360712	n/a	LTP206	ltpFR	0	1	1	REFEREE	1178	5	1	n/a	n/a	n/a	n/a	n/a
4723.664	n/a	RECOG_LURE	2361832	n/a	LTP206	ltpFR	0	1	n/a	LUNG	850	4	n/a	n/a	n/a	n/a	n/a	n/a
4724.89	n/a	RECOG_RESP	2362445	n/a	LTP206	ltpFR	0	1	n/a	LUNG	850	n/a	n/a	n/a	n/a	n/a	n/a	n/a
4727.15	n/a	RECOG_CONF	2363575	n/a	LTP206	ltpFR	0	1	n/a	LUNG	850	4	n/a	n/a	n/a	n/a	n/a	n/a
4729.052	n/a	RECOG_TARGET	2364526	n/a	LTP206	ltpFR	0	1	0	KITCHEN	778	5	1	n/a	n/a	n/a	n/a	n/a
4730.594	n/a	RECOG_RESP	2365297	n/a	LTP206	ltpFR	0	1	0	KITCHEN	778	n/a	1	n/a	n/a	n/a	n/a	n/a
4732.36	n/a	RECOG_CONF	2366180	n/a	LTP206	ltpFR	0	1	0	KITCHEN	778	5	1	n/a	n/a	n/a	n/a	n/a
4734.504	n/a	RECOG_LURE	2367252	n/a	LTP206	ltpFR	0	1	n/a	CIGARETTE	309	4	n/a	n/a	n/a	n/a	n/a	n/a
4735.842	n/a	RECOG_RESP	2367921	n/a	LTP206	ltpFR	0	1	n/a	CIGARETTE	309	n/a	n/a	n/a	n/a	n/a	n/a	n/a
4738.176	n/a	RECOG_CONF	2369088	n/a	LTP206	ltpFR	0	1	n/a	CIGARETTE	309	4	n/a	n/a	n/a	n/a	n/a	n/a
4740.194	n/a	RECOG_LURE	2370097	n/a	LTP206	ltpFR	0	1	n/a	CRAYON	401	4	n/a	n/a	n/a	n/a	n/a	n/a
4741.274	n/a	RECOG_RESP	2370637	n/a	LTP206	ltpFR	0	1	n/a	CRAYON	401	n/a	n/a	n/a	n/a	n/a	n/a	n/a
4743.644	n/a	RECOG_CONF	2371822	n/a	LTP206	ltpFR	0	1	n/a	CRAYON	401	4	n/a	n/a	n/a	n/a	n/a	n/a
4745.43	n/a	RECOG_LURE	2372715	n/a	LTP206	ltpFR	0	1	n/a	GENTLEMAN	631	4	n/a	n/a	n/a	n/a	n/a	n/a
4746.758	n/a	RECOG_RESP	2373379	n/a	LTP206	ltpFR	0	1	n/a	GENTLEMAN	631	n/a	n/a	n/a	n/a	n/a	n/a	n/a
4749.032	n/a	RECOG_CONF	2374516	n/a	LTP206	ltpFR	0	1	n/a	GENTLEMAN	631	4	n/a	n/a	n/a	n/a	n/a	n/a
4751.12	n/a	RECOG_TARGET	2375560	n/a	LTP206	ltpFR	0	1	-1	CUSTOMER	430	5	-1	n/a	n/a	n/a	n/a	n/a
4752.304	n/a	RECOG_RESP	2376152	n/a	LTP206	ltpFR	0	1	-1	CUSTOMER	430	n/a	-1	n/a	n/a	n/a	n/a	n/a
4753.952	n/a	RECOG_CONF	2376976	n/a	LTP206	ltpFR	0	1	-1	CUSTOMER	430	5	-1	n/a	n/a	n/a	n/a	n/a
4756.104	n/a	RECOG_TARGET	2378052	n/a	LTP206	ltpFR	0	1	1	GLASS	639	4	0	n/a	n/a	n/a	n/a	n/a
4757.35	n/a	RECOG_RESP	2378675	n/a	LTP206	ltpFR	0	1	1	GLASS	639	n/a	0	n/a	n/a	n/a	n/a	n/a
4759.838	n/a	RECOG_CONF	2379919	n/a	LTP206	ltpFR	0	1	1	GLASS	639	4	0	n/a	n/a	n/a	n/a	n/a
4761.476	n/a	RECOG_LURE	2380738	n/a	LTP206	ltpFR	0	1	n/a	PLUM	1090	5	n/a	n/a	n/a	n/a	n/a	n/a
4762.662	n/a	RECOG_RESP	2381331	n/a	LTP206	ltpFR	0	1	n/a	PLUM	1090	n/a	n/a	n/a	n/a	n/a	n/a	n/a
4764.298	n/a	RECOG_CONF	2382149	n/a	LTP206	ltpFR	0	1	n/a	PLUM	1090	5	n/a	n/a	n/a	n/a	n/a	n/a
4766.276	n/a	RECOG_LURE	2383138	n/a	LTP206	ltpFR	0	1	n/a	ORCHESTRA	981	3	n/a	n/a	n/a	n/a	n/a	n/a
4767.936	n/a	RECOG_RESP	2383968	n/a	LTP206	ltpFR	0	1	n/a	ORCHESTRA	981	n/a	n/a	n/a	n/a	n/a	n/a	n/a
4769.536	n/a	RECOG_CONF	2384768	n/a	LTP206	ltpFR	0	1	n/a	ORCHESTRA	981	3	n/a	n/a	n/a	n/a	n/a	n/a
4771.614	n/a	RECOG_LURE	2385807	n/a	LTP206	ltpFR	0	1	n/a	BEE	112	3	n/a	n/a	n/a	n/a	n/a	n/a
4772.774	n/a	RECOG_RESP	2386387	n/a	LTP206	ltpFR	0	1	n/a	BEE	112	n/a	n/a	n/a	n/a	n/a	n/a	n/a
4775.934	n/a	RECOG_CONF	2387967	n/a	LTP206	ltpFR	0	1	n/a	BEE	112	3	n/a	n/a	n/a	n/a	n/a	n/a
4777.688	n/a	RECOG_TARGET	2388844	n/a	LTP206	ltpFR	0	1	0	FROG	608	5	0	n/a	n/a	n/a	n/a	n/a
4778.782	n/a	RECOG_RESP	2389391	n/a	LTP206	ltpFR	0	1	0	FROG	608	n/a	0	n/a	n/a	n/a	n/a	n/a
4780.832	n/a	RECOG_CONF	2390416	n/a	LTP206	ltpFR	0	1	0	FROG	608	5	0	n/a	n/a	n/a	n/a	n/a
4782.69	n/a	RECOG_LURE	2391345	n/a	LTP206	ltpFR	0	1	n/a	SUSPECT	1415	5	n/a	n/a	n/a	n/a	n/a	n/a
4783.7	n/a	RECOG_RESP	2391850	n/a	LTP206	ltpFR	0	1	n/a	SUSPECT	1415	n/a	n/a	n/a	n/a	n/a	n/a	n/a
4785.252	n/a	RECOG_CONF	2392626	n/a	LTP206	ltpFR	0	1	n/a	SUSPECT	1415	5	n/a	n/a	n/a	n/a	n/a	n/a
4838.926	n/a	REC_START	2419463	n/a	LTP206	ltpFR	0	2	n/a	n/a	n/a	n/a	n/a	n/a	n/a	n/a	n/a	n/a
4838.988	n/a	RECOG_TARGET	2419494	n/a	LTP206	ltpFR	0	2	-1	CORPORATION	382	5	-1	n/a	n/a	n/a	n/a	n/a
4840.418	n/a	RECOG_RESP	2420209	n/a	LTP206	ltpFR	0	2	-1	CORPORATION	382	n/a	-1	n/a	n/a	n/a	n/a	n/a
4841.696	n/a	RECOG_CONF	2420848	n/a	LTP206	ltpFR	0	2	-1	CORPORATION	382	5	-1	n/a	n/a	n/a	n/a	n/a
4843.622	n/a	RECOG_LURE	2421811	n/a	LTP206	ltpFR	0	2	n/a	ROOSTER	1209	3	n/a	n/a	n/a	n/a	n/a	n/a
4844.902	n/a	RECOG_RESP	2422451	n/a	LTP206	ltpFR	0	2	n/a	ROOSTER	1209	n/a	n/a	n/a	n/a	n/a	n/a	n/a
4846.434	n/a	RECOG_CONF	2423217	n/a	LTP206	ltpFR	0	2	n/a	ROOSTER	1209	3	n/a	n/a	n/a	n/a	n/a	n/a
4848.156	n/a	RECOG_LURE	2424078	n/a	LTP206	ltpFR	0	2	n/a	BOWL	158	5	n/a	n/a	n/a	n/a	n/a	n/a
4849.09	n/a	RECOG_RESP	2424545	n/a	LTP206	ltpFR	0	2	n/a	BOWL	158	n/a	n/a	n/a	n/a	n/a	n/a	n/a
4850.596	n/a	RECOG_CONF	2425298	n/a	LTP206	ltpFR	0	2	n/a	BOWL	158	5	n/a	n/a	n/a	n/a	n/a	n/a
4852.454	n/a	RECOG_TARGET	2426227	n/a	LTP206	ltpFR	0	2	-1	BENCH	121	2	-1	n/a	n/a	n/a	n/a	n/a
4853.938	n/a	RECOG_RESP	2426969	n/a	LTP206	ltpFR	0	2	-1	BENCH	121	n/a	-1	n/a	n/a	n/a	n/a	n/a
4855.434	n/a	RECOG_CONF	2427717	n/a	LTP206	ltpFR	0	2	-1	BENCH	121	2	-1	n/a	n/a	n/a	n/a	n/a
4857.292	n/a	RECOG_LURE	2428646	n/a	LTP206	ltpFR	0	2	n/a	CUFF	423	5	n/a	n/a	n/a	n/a	n/a	n/a
4858.218	n/a	RECOG_RESP	2429109	n/a	LTP206	ltpFR	0	2	n/a	CUFF	423	n/a	n/a	n/a	n/a	n/a	n/a	n/a
4859.854	n/a	RECOG_CONF	2429927	n/a	LTP206	ltpFR	0	2	n/a	CUFF	423	5	n/a	n/a	n/a	n/a	n/a	n/a
4861.64	n/a	RECOG_LURE	2430820	n/a	LTP206	ltpFR	0	2	n/a	NEWSPAPER	948	5	n/a	n/a	n/a	n/a	n/a	n/a
4862.808	n/a	RECOG_RESP	2431404	n/a	LTP206	ltpFR	0	2	n/a	NEWSPAPER	948	n/a	n/a	n/a	n/a	n/a	n/a	n/a
4864.164	n/a	RECOG_CONF	2432082	n/a	LTP206	ltpFR	0	2	n/a	NEWSPAPER	948	5	n/a	n/a	n/a	n/a	n/a	n/a
4866.376	n/a	RECOG_LURE	2433188	n/a	LTP206	ltpFR	0	2	n/a	NITROGEN	954	5	n/a	n/a	n/a	n/a	n/a	n/a
4867.332	n/a	RECOG_RESP	2433666	n/a	LTP206	ltpFR	0	2	n/a	NITROGEN	954	n/a	n/a	n/a	n/a	n/a	n/a	n/a
4868.886	n/a	RECOG_CONF	2434443	n/a	LTP206	ltpFR	0	2	n/a	NITROGEN	954	5	n/a	n/a	n/a	n/a	n/a	n/a
4870.926	n/a	RECOG_TARGET	2435463	n/a	LTP206	ltpFR	0	2	0	CASH	252	4	0	n/a	n/a	n/a	n/a	n/a
4872.162	n/a	RECOG_RESP	2436081	n/a	LTP206	ltpFR	0	2	0	CASH	252	n/a	0	n/a	n/a	n/a	n/a	n/a
4873.564	n/a	RECOG_CONF	2436782	n/a	LTP206	ltpFR	0	2	0	CASH	252	4	0	n/a	n/a	n/a	n/a	n/a
4875.562	n/a	RECOG_TARGET	2437781	n/a	LTP206	ltpFR	0	2	0	WART	1590	5	0	n/a	n/a	n/a	n/a	n/a
4877.006	n/a	RECOG_RESP	2438503	n/a	LTP206	ltpFR	0	2	0	WART	1590	n/a	0	n/a	n/a	n/a	n/a	n/a
4878.374	n/a	RECOG_CONF	2439187	n/a	LTP206	ltpFR	0	2	0	WART	1590	5	0	n/a	n/a	n/a	n/a	n/a
4880.328	n/a	RECOG_TARGET	2440164	n/a	LTP206	ltpFR	0	2	0	HAMMOCK	681	5	1	n/a	n/a	n/a	n/a	n/a
4881.816	n/a	RECOG_RESP	2440908	n/a	LTP206	ltpFR	0	2	0	HAMMOCK	681	n/a	1	n/a	n/a	n/a	n/a	n/a
4883.192	n/a	RECOG_CONF	2441596	n/a	LTP206	ltpFR	0	2	0	HAMMOCK	681	5	1	n/a	n/a	n/a	n/a	n/a
4885.264	n/a	RECOG_TARGET	2442632	n/a	LTP206	ltpFR	0	2	0	HOE	711	5	1	n/a	n/a	n/a	n/a	n/a
4886.46	n/a	RECOG_RESP	2443230	n/a	LTP206	ltpFR	0	2	0	HOE	711	n/a	1	n/a	n/a	n/a	n/a	n/a
4888.012	n/a	RECOG_CONF	2444006	n/a	LTP206	ltpFR	0	2	0	HOE	711	5	1	n/a	n/a	n/a	n/a	n/a
4890.016	n/a	RECOG_LURE	2445008	n/a	LTP206	ltpFR	0	2	n/a	BLUEJAY	141	5	n/a	n/a	n/a	n/a	n/a	n/a
4891.06	n/a	RECOG_RESP	2445530	n/a	LTP206	ltpFR	0	2	n/a	BLUEJAY	141	n/a	n/a	n/a	n/a	n/a	n/a	n/a
4892.472	n/a	RECOG_CONF	2446236	n/a	LTP206	ltpFR	0	2	n/a	BLUEJAY	141	5	n/a	n/a	n/a	n/a	n/a	n/a
4894.434	n/a	RECOG_TARGET	2447217	n/a	LTP206	ltpFR	0	2	0	COP	376	3	1	n/a	n/a	n/a	n/a	n/a
4896.044	n/a	RECOG_RESP	2448022	n/a	LTP206	ltpFR	0	2	0	COP	376	n/a	1	n/a	n/a	n/a	n/a	n/a
4898.11	n/a	RECOG_CONF	2449055	n/a	LTP206	ltpFR	0	2	0	COP	376	3	1	n/a	n/a	n/a	n/a	n/a
4900.086	n/a	RECOG_TARGET	2450043	n/a	LTP206	ltpFR	0	2	0	DILL	465	5	0	n/a	n/a	n/a	n/a	n/a
4901.538	n/a	RECOG_RESP	2450769	n/a	LTP206	ltpFR	0	2	0	DILL	465	n/a	0	n/a	n/a	n/a	n/a	n/a
4902.83	n/a	RECOG_CONF	2451415	n/a	LTP206	ltpFR	0	2	0	DILL	465	5	0	n/a	n/a	n/a	n/a	n/a
4904.788	n/a	RECOG_TARGET	2452394	n/a	LTP206	ltpFR	0	2	0	POCKETBOOK	1094	5	0	n/a	n/a	n/a	n/a	n/a
4906.582	n/a	RECOG_RESP	2453291	n/a	LTP206	ltpFR	0	2	0	POCKETBOOK	1094	n/a	0	n/a	n/a	n/a	n/a	n/a
4908.108	n/a	RECOG_CONF	2454054	n/a	LTP206	ltpFR	0	2	0	POCKETBOOK	1094	5	0	n/a	n/a	n/a	n/a	n/a
4910.16	n/a	RECOG_TARGET	2455080	n/a	LTP206	ltpFR	0	2	0	STEM	1376	5	0	n/a	n/a	n/a	n/a	n/a
4912.114	n/a	RECOG_RESP	2456057	n/a	LTP206	ltpFR	0	2	0	STEM	1376	n/a	0	n/a	n/a	n/a	n/a	n/a
4913.856	n/a	RECOG_CONF	2456928	n/a	LTP206	ltpFR	0	2	0	STEM	1376	5	0	n/a	n/a	n/a	n/a	n/a
4915.832	n/a	RECOG_TARGET	2457916	n/a	LTP206	ltpFR	0	2	1	SNACK	1331	5	0	n/a	n/a	n/a	n/a	n/a
4917.258	n/a	RECOG_RESP	2458629	n/a	LTP206	ltpFR	0	2	1	SNACK	1331	n/a	0	n/a	n/a	n/a	n/a	n/a
4918.694	n/a	RECOG_CONF	2459347	n/a	LTP206	ltpFR	0	2	1	SNACK	1331	5	0	n/a	n/a	n/a	n/a	n/a
4920.766	n/a	RECOG_TARGET	2460383	n/a	LTP206	ltpFR	0	2	1	BEVERAGE	123	5	0	n/a	n/a	n/a	n/a	n/a
4921.842	n/a	RECOG_RESP	2460921	n/a	LTP206	ltpFR	0	2	1	BEVERAGE	123	n/a	0	n/a	n/a	n/a	n/a	n/a
4923.244	n/a	RECOG_CONF	2461622	n/a	LTP206	ltpFR	0	2	1	BEVERAGE	123	5	0	n/a	n/a	n/a	n/a	n/a
4925.318	n/a	RECOG_TARGET	2462659	n/a	LTP206	ltpFR	0	2	0	FOREST	593	5	1	n/a	n/a	n/a	n/a	n/a
4926.398	n/a	RECOG_RESP	2463199	n/a	LTP206	ltpFR	0	2	0	FOREST	593	n/a	1	n/a	n/a	n/a	n/a	n/a
4928.084	n/a	RECOG_CONF	2464042	n/a	LTP206	ltpFR	0	2	0	FOREST	593	5	1	n/a	n/a	n/a	n/a	n/a
4929.936	n/a	RECOG_TARGET	2464968	n/a	LTP206	ltpFR	0	2	-1	COMMUNITY	356	5	-1	n/a	n/a	n/a	n/a	n/a
4931.046	n/a	RECOG_RESP	2465523	n/a	LTP206	ltpFR	0	2	-1	COMMUNITY	356	n/a	-1	n/a	n/a	n/a	n/a	n/a
4932.474	n/a	RECOG_CONF	2466237	n/a	LTP206	ltpFR	0	2	-1	COMMUNITY	356	5	-1	n/a	n/a	n/a	n/a	n/a
5003.528	n/a	REC_START	2501764	n/a	LTP206	ltpFR	0	3	n/a	n/a	n/a	n/a	n/a	n/a	n/a	n/a	n/a	n/a
5003.582	n/a	RECOG_TARGET	2501791	n/a	LTP206	ltpFR	0	3	1	SHELF	1280	4	0	n/a	n/a	n/a	n/a	n/a
5004.7	n/a	RECOG_RESP	2502350	n/a	LTP206	ltpFR	0	3	1	SHELF	1280	n/a	0	n/a	n/a	n/a	n/a	n/a
5006.178	n/a	RECOG_CONF	2503089	n/a	LTP206	ltpFR	0	3	1	SHELF	1280	4	0	n/a	n/a	n/a	n/a	n/a
5007.984	n/a	RECOG_TARGET	2503992	n/a	LTP206	ltpFR	0	3	-1	MAT	877	5	-1	n/a	n/a	n/a	n/a	n/a
5009.076	n/a	RECOG_RESP	2504538	n/a	LTP206	ltpFR	0	3	-1	MAT	877	n/a	-1	n/a	n/a	n/a	n/a	n/a
5010.168	n/a	RECOG_CONF	2505084	n/a	LTP206	ltpFR	0	3	-1	MAT	877	5	-1	n/a	n/a	n/a	n/a	n/a
5012.032	n/a	RECOG_TARGET	2506016	n/a	LTP206	ltpFR	0	3	0	TOURIST	1488	4	1	n/a	n/a	n/a	n/a	n/a
5013.506	n/a	RECOG_RESP	2506753	n/a	LTP206	ltpFR	0	3	0	TOURIST	1488	n/a	1	n/a	n/a	n/a	n/a	n/a
5015.206	n/a	RECOG_CONF	2507603	n/a	LTP206	ltpFR	0	3	0	TOURIST	1488	4	1	n/a	n/a	n/a	n/a	n/a
5016.868	n/a	RECOG_TARGET	2508434	n/a	LTP206	ltpFR	0	3	1	PASTRY	1022	5	1	n/a	n/a	n/a	n/a	n/a
5018.234	n/a	RECOG_RESP	2509117	n/a	LTP206	ltpFR	0	3	1	PASTRY	1022	n/a	1	n/a	n/a	n/a	n/a	n/a
5019.668	n/a	RECOG_CONF	2509834	n/a	LTP206	ltpFR	0	3	1	PASTRY	1022	5	1	n/a	n/a	n/a	n/a	n/a
5021.436	n/a	RECOG_LURE	2510718	n/a	LTP206	ltpFR	0	3	n/a	ATTIRE	57	5	n/a	n/a	n/a	n/a	n/a	n/a
5022.706	n/a	RECOG_RESP	2511353	n/a	LTP206	ltpFR	0	3	n/a	ATTIRE	57	n/a	n/a	n/a	n/a	n/a	n/a	n/a
5023.908	n/a	RECOG_CONF	2511954	n/a	LTP206	ltpFR	0	3	n/a	ATTIRE	57	5	n/a	n/a	n/a	n/a	n/a	n/a
5025.902	n/a	RECOG_TARGET	2512951	n/a	LTP206	ltpFR	0	3	0	CRATER	400	5	1	n/a	n/a	n/a	n/a	n/a
5027.316	n/a	RECOG_RESP	2513658	n/a	LTP206	ltpFR	0	3	0	CRATER	400	n/a	1	n/a	n/a	n/a	n/a	n/a
5028.378	n/a	RECOG_CONF	2514189	n/a	LTP206	ltpFR	0	3	0	CRATER	400	5	1	n/a	n/a	n/a	n/a	n/a
5030.502	n/a	RECOG_TARGET	2515251	n/a	LTP206	ltpFR	0	3	0	ALLEY	15	5	1	n/a	n/a	n/a	n/a	n/a
5031.726	n/a	RECOG_RESP	2515863	n/a	LTP206	ltpFR	0	3	0	ALLEY	15	n/a	1	n/a	n/a	n/a	n/a	n/a
5033.088	n/a	RECOG_CONF	2516544	n/a	LTP206	ltpFR	0	3	0	ALLEY	15	5	1	n/a	n/a	n/a	n/a	n/a
5035.072	n/a	RECOG_LURE	2517536	n/a	LTP206	ltpFR	0	3	n/a	HUSBAND	728	3	n/a	n/a	n/a	n/a	n/a	n/a
5036.524	n/a	RECOG_RESP	2518262	n/a	LTP206	ltpFR	0	3	n/a	HUSBAND	728	n/a	n/a	n/a	n/a	n/a	n/a	n/a
5038.836	n/a	RECOG_CONF	2519418	n/a	LTP206	ltpFR	0	3	n/a	HUSBAND	728	3	n/a	n/a	n/a	n/a	n/a	n/a
5040.406	n/a	RECOG_TARGET	2520203	n/a	LTP206	ltpFR	0	3	1	ROOST	1208	5	0	n/a	n/a	n/a	n/a	n/a
5042.052	n/a	RECOG_RESP	2521026	n/a	LTP206	ltpFR	0	3	1	ROOST	1208	n/a	0	n/a	n/a	n/a	n/a	n/a
5043.394	n/a	RECOG_CONF	2521697	n/a	LTP206	ltpFR	0	3	1	ROOST	1208	5	0	n/a	n/a	n/a	n/a	n/a
5045.46	n/a	RECOG_TARGET	2522730	n/a	LTP206	ltpFR	0	3	1	NERVE	944	5	1	n/a	n/a	n/a	n/a	n/a
5046.698	n/a	RECOG_RESP	2523349	n/a	LTP206	ltpFR	0	3	1	NERVE	944	n/a	1	n/a	n/a	n/a	n/a	n/a
5048.134	n/a	RECOG_CONF	2524067	n/a	LTP206	ltpFR	0	3	1	NERVE	944	5	1	n/a	n/a	n/a	n/a	n/a
5050.146	n/a	RECOG_TARGET	2525073	n/a	LTP206	ltpFR	0	3	0	SALMON	1227	1	1	n/a	n/a	n/a	n/a	n/a
5051.666	n/a	RECOG_RESP	2525833	n/a	LTP206	ltpFR	0	3	0	SALMON	1227	n/a	1	n/a	n/a	n/a	n/a	n/a
5053.88	n/a	RECOG_CONF	2526940	n/a	LTP206	ltpFR	0	3	0	SALMON	1227	1	1	n/a	n/a	n/a	n/a	n/a
5055.85	n/a	RECOG_TARGET	2527925	n/a	LTP206	ltpFR	0	3	1	MOUSE	925	5	1	n/a	n/a	n/a	n/a	n/a
5057.204	n/a	RECOG_RESP	2528602	n/a	LTP206	ltpFR	0	3	1	MOUSE	925	n/a	1	n/a	n/a	n/a	n/a	n/a
5058.552	n/a	RECOG_CONF	2529276	n/a	LTP206	ltpFR	0	3	1	MOUSE	925	5	1	n/a	n/a	n/a	n/a	n/a
5060.584	n/a	RECOG_LURE	2530292	n/a	LTP206	ltpFR	0	3	n/a	COWARD	394	5	n/a	n/a	n/a	n/a	n/a	n/a
5061.644	n/a	RECOG_RESP	2530822	n/a	LTP206	ltpFR	0	3	n/a	COWARD	394	n/a	n/a	n/a	n/a	n/a	n/a	n/a
5063.13	n/a	RECOG_CONF	2531565	n/a	LTP206	ltpFR	0	3	n/a	COWARD	394	5	n/a	n/a	n/a	n/a	n/a	n/a
5064.968	n/a	RECOG_TARGET	2532484	n/a	LTP206	ltpFR	0	3	0	DISHWASHER	475	5	1	n/a	n/a	n/a	n/a	n/a
5066.224	n/a	RECOG_RESP	2533112	n/a	LTP206	ltpFR	0	3	0	DISHWASHER	475	n/a	1	n/a	n/a	n/a	n/a	n/a
5067.6	n/a	RECOG_CONF	2533800	n/a	LTP206	ltpFR	0	3	0	DISHWASHER	475	5	1	n/a	n/a	n/a	n/a	n/a
5069.652	n/a	RECOG_LURE	2534826	n/a	LTP206	ltpFR	0	3	n/a	MONGOOSE	909	4	n/a	n/a	n/a	n/a	n/a	n/a
5071.142	n/a	RECOG_RESP	2535571	n/a	LTP206	ltpFR	0	3	n/a	MONGOOSE	909	n/a	n/a	n/a	n/a	n/a	n/a	n/a
5072.66	n/a	RECOG_CONF	2536330	n/a	LTP206	ltpFR	0	3	n/a	MONGOOSE	909	4	n/a	n/a	n/a	n/a	n/a	n/a
5074.572	n/a	RECOG_TARGET	2537286	n/a	LTP206	ltpFR	0	3	0	KEEPER	769	5	1	n/a	n/a	n/a	n/a	n/a
5075.758	n/a	RECOG_RESP	2537879	n/a	LTP206	ltpFR	0	3	0	KEEPER	769	n/a	1	n/a	n/a	n/a	n/a	n/a
5077.18	n/a	RECOG_CONF	2538590	n/a	LTP206	ltpFR	0	3	0	KEEPER	769	5	1	n/a	n/a	n/a	n/a	n/a
5079.274	n/a	RECOG_TARGET	2539637	n/a	LTP206	ltpFR	0	3	1	RING	1193	5	0	n/a	n/a	n/a	n/a	n/a
5080.482	n/a	RECOG_RESP	2540241	n/a	LTP206	ltpFR	0	3	1	RING	1193	n/a	0	n/a	n/a	n/a	n/a	n/a
5081.96	n/a	RECOG_CONF	2540980	n/a	LTP206	ltpFR	0	3	1	RING	1193	5	0	n/a	n/a	n/a	n/a	n/a
5083.806	n/a	RECOG_TARGET	2541903	n/a	LTP206	ltpFR	0	3	-1	LASER	801	5	-1	n/a	n/a	n/a	n/a	n/a
5084.812	n/a	RECOG_RESP	2542406	n/a	LTP206	ltpFR	0	3	-1	LASER	801	n/a	-1	n/a	n/a	n/a	n/a	n/a
5086.31	n/a	RECOG_CONF	2543155	n/a	LTP206	ltpFR	0	3	-1	LASER	801	5	-1	n/a	n/a	n/a	n/a	n/a
5088.158	n/a	RECOG_LURE	2544079	n/a	LTP206	ltpFR	0	3	n/a	AGENT	10	2	n/a	n/a	n/a	n/a	n/a	n/a
5089.966	n/a	RECOG_RESP	2544983	n/a	LTP206	ltpFR	0	3	n/a	AGENT	10	n/a	n/a	n/a	n/a	n/a	n/a	n/a
5092.624	n/a	RECOG_CONF	2546312	n/a	LTP206	ltpFR	0	3	n/a	AGENT	10	2	n/a	n/a	n/a	n/a	n/a	n/a
5094.482	n/a	RECOG_LURE	2547241	n/a	LTP206	ltpFR	0	3	n/a	RABBIT	1152	4	n/a	n/a	n/a	n/a	n/a	n/a
5095.668	n/a	RECOG_RESP	2547834	n/a	LTP206	ltpFR	0	3	n/a	RABBIT	1152	n/a	n/a	n/a	n/a	n/a	n/a	n/a
5097.346	n/a	RECOG_CONF	2548673	n/a	LTP206	ltpFR	0	3	n/a	RABBIT	1152	4	n/a	n/a	n/a	n/a	n/a	n/a
5111.19	n/a	REC_START	2555595	n/a	LTP206	ltpFR	0	4	n/a	n/a	n/a	n/a	n/a	n/a	n/a	n/a	n/a	n/a
5111.244	n/a	RECOG_TARGET	2555622	n/a	LTP206	ltpFR	0	4	1	PEARL	1034	4	0	n/a	n/a	n/a	n/a	n/a
5112.312	n/a	RECOG_RESP	2556156	n/a	LTP206	ltpFR	0	4	1	PEARL	1034	n/a	0	n/a	n/a	n/a	n/a	n/a
5113.72	n/a	RECOG_CONF	2556860	n/a	LTP206	ltpFR	0	4	1	PEARL	1034	4	0	n/a	n/a	n/a	n/a	n/a
5115.426	n/a	RECOG_TARGET	2557713	n/a	LTP206	ltpFR	0	4	-1	DOLL	481	3	-1	n/a	n/a	n/a	n/a	n/a
5116.688	n/a	RECOG_RESP	2558344	n/a	LTP206	ltpFR	0	4	-1	DOLL	481	n/a	-1	n/a	n/a	n/a	n/a	n/a
5118.568	n/a	RECOG_CONF	2559284	n/a	LTP206	ltpFR	0	4	-1	DOLL	481	3	-1	n/a	n/a	n/a	n/a	n/a
5120.296	n/a	RECOG_TARGET	2560148	n/a	LTP206	ltpFR	0	4	-1	GREASE	660	5	-1	n/a	n/a	n/a	n/a	n/a
5121.378	n/a	RECOG_RESP	2560689	n/a	LTP206	ltpFR	0	4	-1	GREASE	660	n/a	-1	n/a	n/a	n/a	n/a	n/a
5122.798	n/a	RECOG_CONF	2561399	n/a	LTP206	ltpFR	0	4	-1	GREASE	660	5	-1	n/a	n/a	n/a	n/a	n/a
5124.63	n/a	RECOG_TARGET	2562315	n/a	LTP206	ltpFR	0	4	1	COD	340	5	1	n/a	n/a	n/a	n/a	n/a
5125.872	n/a	RECOG_RESP	2562936	n/a	LTP206	ltpFR	0	4	1	COD	340	n/a	1	n/a	n/a	n/a	n/a	n/a
5127.308	n/a	RECOG_CONF	2563654	n/a	LTP206	ltpFR	0	4	1	COD	340	5	1	n/a	n/a	n/a	n/a	n/a
5129.214	n/a	RECOG_LURE	2564607	n/a	LTP206	ltpFR	0	4	n/a	ALMANAC	17	3	n/a	n/a	n/a	n/a	n/a	n/a
5130.406	n/a	RECOG_RESP	2565203	n/a	LTP206	ltpFR	0	4	n/a	ALMANAC	17	n/a	n/a	n/a	n/a	n/a	n/a	n/a
5132.468	n/a	RECOG_CONF	2566234	n/a	LTP206	ltpFR	0	4	n/a	ALMANAC	17	3	n/a	n/a	n/a	n/a	n/a	n/a
5134.15	n/a	RECOG_LURE	2567075	n/a	LTP206	ltpFR	0	4	n/a	VICTOR	1563	5	n/a	n/a	n/a	n/a	n/a	n/a
5135.106	n/a	RECOG_RESP	2567553	n/a	LTP206	ltpFR	0	4	n/a	VICTOR	1563	n/a	n/a	n/a	n/a	n/a	n/a	n/a
5136.598	n/a	RECOG_CONF	2568299	n/a	LTP206	ltpFR	0	4	n/a	VICTOR	1563	5	n/a	n/a	n/a	n/a	n/a	n/a
5138.516	n/a	RECOG_TARGET	2569258	n/a	LTP206	ltpFR	0	4	-1	JAW	751	1	-1	n/a	n/a	n/a	n/a	n/a
5139.686	n/a	RECOG_RESP	2569843	n/a	LTP206	ltpFR	0	4	-1	JAW	751	n/a	-1	n/a	n/a	n/a	n/a	n/a
5142.066	n/a	RECOG_CONF	2571033	n/a	LTP206	ltpFR	0	4	-1	JAW	751	1	-1	n/a	n/a	n/a	n/a	n/a
5143.92	n/a	RECOG_TARGET	2571960	n/a	LTP206	ltpFR	0	4	0	SHOVEL	1295	4	1	n/a	n/a	n/a	n/a	n/a
5145.234	n/a	RECOG_RESP	2572617	n/a	LTP206	ltpFR	0	4	0	SHOVEL	1295	n/a	1	n/a	n/a	n/a	n/a	n/a
5146.916	n/a	RECOG_CONF	2573458	n/a	LTP206	ltpFR	0	4	0	SHOVEL	1295	4	1	n/a	n/a	n/a	n/a	n/a
5148.638	n/a	RECOG_TARGET	2574319	n/a	LTP206	ltpFR	0	4	-1	ACORN	3	5	-1	n/a	n/a	n/a	n/a	n/a
5149.908	n/a	RECOG_RESP	2574954	n/a	LTP206	ltpFR	0	4	-1	ACORN	3	n/a	-1	n/a	n/a	n/a	n/a	n/a
5151.776	n/a	RECOG_CONF	2575888	n/a	LTP206	ltpFR	0	4	-1	ACORN	3	5	-1	n/a	n/a	n/a	n/a	n/a
5153.656	n/a	RECOG_LURE	2576828	n/a	LTP206	ltpFR	0	4	n/a	HOUSE	725	3	n/a	n/a	n/a	n/a	n/a	n/a
5155.986	n/a	RECOG_RESP	2577993	n/a	LTP206	ltpFR	0	4	n/a	HOUSE	725	n/a	n/a	n/a	n/a	n/a	n/a	n/a
5158.47	n/a	RECOG_CONF	2579235	n/a	LTP206	ltpFR	0	4	n/a	HOUSE	725	3	n/a	n/a	n/a	n/a	n/a	n/a
5160.198	n/a	RECOG_LURE	2580099	n/a	LTP206	ltpFR	0	4	n/a	PARIS	1014	5	n/a	n/a	n/a	n/a	n/a	n/a
5162.222	n/a	RECOG_RESP	2581111	n/a	LTP206	ltpFR	0	4	n/a	PARIS	1014	n/a	n/a	n/a	n/a	n/a	n/a	n/a
5164.098	n/a	RECOG_CONF	2582049	n/a	LTP206	ltpFR	0	4	n/a	PARIS	1014	5	n/a	n/a	n/a	n/a	n/a	n/a
5165.92	n/a	RECOG_TARGET	2582960	n/a	LTP206	ltpFR	0	4	1	ANIMAL	23	5	1	n/a	n/a	n/a	n/a	n/a
5167.13	n/a	RECOG_RESP	2583565	n/a	LTP206	ltpFR	0	4	1	ANIMAL	23	n/a	1	n/a	n/a	n/a	n/a	n/a
5168.616	n/a	RECOG_CONF	2584308	n/a	LTP206	ltpFR	0	4	1	ANIMAL	23	5	1	n/a	n/a	n/a	n/a	n/a
5170.606	n/a	RECOG_TARGET	2585303	n/a	LTP206	ltpFR	0	4	0	BLUEPRINT	142	5	0	n/a	n/a	n/a	n/a	n/a
5171.966	n/a	RECOG_RESP	2585983	n/a	LTP206	ltpFR	0	4	0	BLUEPRINT	142	n/a	0	n/a	n/a	n/a	n/a	n/a
5173.426	n/a	RECOG_CONF	2586713	n/a	LTP206	ltpFR	0	4	0	BLUEPRINT	142	5	0	n/a	n/a	n/a	n/a	n/a
5175.408	n/a	RECOG_TARGET	2587704	n/a	LTP206	ltpFR	0	4	-1	TORCH	1484	4	-1	n/a	n/a	n/a	n/a	n/a
5176.744	n/a	RECOG_RESP	2588372	n/a	LTP206	ltpFR	0	4	-1	TORCH	1484	n/a	-1	n/a	n/a	n/a	n/a	n/a
5178.286	n/a	RECOG_CONF	2589143	n/a	LTP206	ltpFR	0	4	-1	TORCH	1484	4	-1	n/a	n/a	n/a	n/a	n/a
5180.042	n/a	RECOG_LURE	2590021	n/a	LTP206	ltpFR	0	4	n/a	BLADE	134	4	n/a	n/a	n/a	n/a	n/a	n/a
5180.99	n/a	RECOG_RESP	2590495	n/a	LTP206	ltpFR	0	4	n/a	BLADE	134	n/a	n/a	n/a	n/a	n/a	n/a	n/a
5182.976	n/a	RECOG_CONF	2591488	n/a	LTP206	ltpFR	0	4	n/a	BLADE	134	4	n/a	n/a	n/a	n/a	n/a	n/a
5184.792	n/a	RECOG_TARGET	2592396	n/a	LTP206	ltpFR	0	4	0	FLUTE	585	5	0	n/a	n/a	n/a	n/a	n/a
5186.008	n/a	RECOG_RESP	2593004	n/a	LTP206	ltpFR	0	4	0	FLUTE	585	n/a	0	n/a	n/a	n/a	n/a	n/a
5187.484	n/a	RECOG_CONF	2593742	n/a	LTP206	ltpFR	0	4	0	FLUTE	585	5	0	n/a	n/a	n/a	n/a	n/a
5189.378	n/a	RECOG_TARGET	2594689	n/a	LTP206	ltpFR	0	4	0	HEN	703	5	0	n/a	n/a	n/a	n/a	n/a
5190.51	n/a	RECOG_RESP	2595255	n/a	LTP206	ltpFR	0	4	0	HEN	703	n/a	0	n/a	n/a	n/a	n/a	n/a
5192.066	n/a	RECOG_CONF	2596033	n/a	LTP206	ltpFR	0	4	0	HEN	703	5	0	n/a	n/a	n/a	n/a	n/a
5194.13	n/a	RECOG_LURE	2597065	n/a	LTP206	ltpFR	0	4	n/a	DOUGH	489	3	n/a	n/a	n/a	n/a	n/a	n/a
5195.508	n/a	RECOG_RESP	2597754	n/a	LTP206	ltpFR	0	4	n/a	DOUGH	489	n/a	n/a	n/a	n/a	n/a	n/a	n/a
5197.812	n/a	RECOG_CONF	2598906	n/a	LTP206	ltpFR	0	4	n/a	DOUGH	489	3	n/a	n/a	n/a	n/a	n/a	n/a
5199.182	n/a	RECOG_LURE	2599591	n/a	LTP206	ltpFR	0	4	n/a	PIN	1072	5	n/a	n/a	n/a	n/a	n/a	n/a
5200.632	n/a	RECOG_RESP	2600316	n/a	LTP206	ltpFR	0	4	n/a	PIN	1072	n/a	n/a	n/a	n/a	n/a	n/a	n/a
5202.342	n/a	RECOG_CONF	2601171	n/a	LTP206	ltpFR	0	4	n/a	PIN	1072	5	n/a	n/a	n/a	n/a	n/a	n/a
5204.066	n/a	RECOG_TARGET	2602033	n/a	LTP206	ltpFR	0	4	1	UNDERWEAR	1537	4	0	n/a	n/a	n/a	n/a	n/a
5205.6	n/a	RECOG_RESP	2602800	n/a	LTP206	ltpFR	0	4	1	UNDERWEAR	1537	n/a	0	n/a	n/a	n/a	n/a	n/a
5207.232	n/a	RECOG_CONF	2603616	n/a	LTP206	ltpFR	0	4	1	UNDERWEAR	1537	4	0	n/a	n/a	n/a	n/a	n/a
5257.88	n/a	REC_START	2628940	n/a	LTP206	ltpFR	0	5	n/a	n/a	n/a	n/a	n/a	n/a	n/a	n/a	n/a	n/a
5257.922	n/a	RECOG_LURE	2628961	n/a	LTP206	ltpFR	0	5	n/a	PENNY	1045	4	n/a	n/a	n/a	n/a	n/a	n/a
5258.992	n/a	RECOG_RESP	2629496	n/a	LTP206	ltpFR	0	5	n/a	PENNY	1045	n/a	n/a	n/a	n/a	n/a	n/a	n/a
5260.648	n/a	RECOG_CONF	2630324	n/a	LTP206	ltpFR	0	5	n/a	PENNY	1045	4	n/a	n/a	n/a	n/a	n/a	n/a
5262.322	n/a	RECOG_TARGET	2631161	n/a	LTP206	ltpFR	0	5	1	TWISTER	1530	5	0	n/a	n/a	n/a	n/a	n/a
5263.312	n/a	RECOG_RESP	2631656	n/a	LTP206	ltpFR	0	5	1	TWISTER	1530	n/a	0	n/a	n/a	n/a	n/a	n/a
5264.94	n/a	RECOG_CONF	2632470	n/a	LTP206	ltpFR	0	5	1	TWISTER	1530	5	0	n/a	n/a	n/a	n/a	n/a
5266.572	n/a	RECOG_LURE	2633286	n/a	LTP206	ltpFR	0	5	n/a	BOUILLON	154	4	n/a	n/a	n/a	n/a	n/a	n/a
5267.688	n/a	RECOG_RESP	2633844	n/a	LTP206	ltpFR	0	5	n/a	BOUILLON	154	n/a	n/a	n/a	n/a	n/a	n/a	n/a
5269.45	n/a	RECOG_CONF	2634725	n/a	LTP206	ltpFR	0	5	n/a	BOUILLON	154	4	n/a	n/a	n/a	n/a	n/a	n/a
5271.124	n/a	RECOG_TARGET	2635562	n/a	LTP206	ltpFR	0	5	1	FOOT	590	5	1	n/a	n/a	n/a	n/a	n/a
5272.452	n/a	RECOG_RESP	2636226	n/a	LTP206	ltpFR	0	5	1	FOOT	590	n/a	1	n/a	n/a	n/a	n/a	n/a
5273.78	n/a	RECOG_CONF	2636890	n/a	LTP206	ltpFR	0	5	1	FOOT	590	5	1	n/a	n/a	n/a	n/a	n/a
5275.624	n/a	RECOG_TARGET	2637812	n/a	LTP206	ltpFR	0	5	0	HAMBURGER	679	5	3	n/a	n/a	n/a	n/a	n/a
5276.682	n/a	RECOG_RESP	2638341	n/a	LTP206	ltpFR	0	5	0	HAMBURGER	679	n/a	3	n/a	n/a	n/a	n/a	n/a
5278.288	n/a	RECOG_CONF	2639144	n/a	LTP206	ltpFR	0	5	0	HAMBURGER	679	5	3	n/a	n/a	n/a	n/a	n/a
5280.206	n/a	RECOG_LURE	2640103	n/a	LTP206	ltpFR	0	5	n/a	ENVELOPE	537	3	n/a	n/a	n/a	n/a	n/a	n/a
5281.412	n/a	RECOG_RESP	2640706	n/a	LTP206	ltpFR	0	5	n/a	ENVELOPE	537	n/a	n/a	n/a	n/a	n/a	n/a	n/a
5283.238	n/a	RECOG_CONF	2641619	n/a	LTP206	ltpFR	0	5	n/a	ENVELOPE	537	3	n/a	n/a	n/a	n/a	n/a	n/a
5285.042	n/a	RECOG_TARGET	2642521	n/a	LTP206	ltpFR	0	5	1	ANT	25	5	1	n/a	n/a	n/a	n/a	n/a
5286.436	n/a	RECOG_RESP	2643218	n/a	LTP206	ltpFR	0	5	1	ANT	25	n/a	1	n/a	n/a	n/a	n/a	n/a
5287.878	n/a	RECOG_CONF	2643939	n/a	LTP206	ltpFR	0	5	1	ANT	25	5	1	n/a	n/a	n/a	n/a	n/a
5289.894	n/a	RECOG_TARGET	2644947	n/a	LTP206	ltpFR	0	5	1	CATCHER	258	5	1	n/a	n/a	n/a	n/a	n/a
5291.61	n/a	RECOG_RESP	2645805	n/a	LTP206	ltpFR	0	5	1	CATCHER	258	n/a	1	n/a	n/a	n/a	n/a	n/a
5292.896	n/a	RECOG_CONF	2646448	n/a	LTP206	ltpFR	0	5	1	CATCHER	258	5	1	n/a	n/a	n/a	n/a	n/a
5294.88	n/a	RECOG_LURE	2647440	n/a	LTP206	ltpFR	0	5	n/a	ASHTRAY	45	3	n/a	n/a	n/a	n/a	n/a	n/a
5296.25	n/a	RECOG_RESP	2648125	n/a	LTP206	ltpFR	0	5	n/a	ASHTRAY	45	n/a	n/a	n/a	n/a	n/a	n/a	n/a
5298.006	n/a	RECOG_CONF	2649003	n/a	LTP206	ltpFR	0	5	n/a	ASHTRAY	45	3	n/a	n/a	n/a	n/a	n/a	n/a
5299.816	n/a	RECOG_LURE	2649908	n/a	LTP206	ltpFR	0	5	n/a	CHIP	303	4	n/a	n/a	n/a	n/a	n/a	n/a
5301.628	n/a	RECOG_RESP	2650814	n/a	LTP206	ltpFR	0	5	n/a	CHIP	303	n/a	n/a	n/a	n/a	n/a	n/a	n/a
5303.394	n/a	RECOG_CONF	2651697	n/a	LTP206	ltpFR	0	5	n/a	CHIP	303	4	n/a	n/a	n/a	n/a	n/a	n/a
5305.354	n/a	RECOG_LURE	2652677	n/a	LTP206	ltpFR	0	5	n/a	GRAVE	658	5	n/a	n/a	n/a	n/a	n/a	n/a
5307.374	n/a	RECOG_RESP	2653687	n/a	LTP206	ltpFR	0	5	n/a	GRAVE	658	n/a	n/a	n/a	n/a	n/a	n/a	n/a
5309.27	n/a	RECOG_CONF	2654635	n/a	LTP206	ltpFR	0	5	n/a	GRAVE	658	5	n/a	n/a	n/a	n/a	n/a	n/a
5311.076	n/a	RECOG_LURE	2655538	n/a	LTP206	ltpFR	0	5	n/a	UNIVERSE	1540	5	n/a	n/a	n/a	n/a	n/a	n/a
5313.096	n/a	RECOG_RESP	2656548	n/a	LTP206	ltpFR	0	5	n/a	UNIVERSE	1540	n/a	n/a	n/a	n/a	n/a	n/a	n/a
5315.526	n/a	RECOG_CONF	2657763	n/a	LTP206	ltpFR	0	5	n/a	UNIVERSE	1540	5	n/a	n/a	n/a	n/a	n/a	n/a
5317.366	n/a	RECOG_TARGET	2658683	n/a	LTP206	ltpFR	0	5	-1	GLOVE	642	4	-1	n/a	n/a	n/a	n/a	n/a
5318.57	n/a	RECOG_RESP	2659285	n/a	LTP206	ltpFR	0	5	-1	GLOVE	642	n/a	-1	n/a	n/a	n/a	n/a	n/a
5320.706	n/a	RECOG_CONF	2660353	n/a	LTP206	ltpFR	0	5	-1	GLOVE	642	4	-1	n/a	n/a	n/a	n/a	n/a
5322.57	n/a	RECOG_TARGET	2661285	n/a	LTP206	ltpFR	0	5	1	PICTURE	1061	5	0	n/a	n/a	n/a	n/a	n/a
5324.148	n/a	RECOG_RESP	2662074	n/a	LTP206	ltpFR	0	5	1	PICTURE	1061	n/a	0	n/a	n/a	n/a	n/a	n/a
5325.474	n/a	RECOG_CONF	2662737	n/a	LTP206	ltpFR	0	5	1	PICTURE	1061	5	0	n/a	n/a	n/a	n/a	n/a
5327.354	n/a	RECOG_LURE	2663677	n/a	LTP206	ltpFR	0	5	n/a	LOLLIPOP	842	5	n/a	n/a	n/a	n/a	n/a	n/a
5328.602	n/a	RECOG_RESP	2664301	n/a	LTP206	ltpFR	0	5	n/a	LOLLIPOP	842	n/a	n/a	n/a	n/a	n/a	n/a	n/a
5330.364	n/a	RECOG_CONF	2665182	n/a	LTP206	ltpFR	0	5	n/a	LOLLIPOP	842	5	n/a	n/a	n/a	n/a	n/a	n/a
5332.14	n/a	RECOG_TARGET	2666070	n/a	LTP206	ltpFR	0	5	1	PUB	1135	4	0	n/a	n/a	n/a	n/a	n/a
5333.346	n/a	RECOG_RESP	2666673	n/a	LTP206	ltpFR	0	5	1	PUB	1135	n/a	0	n/a	n/a	n/a	n/a	n/a
5335.522	n/a	RECOG_CONF	2667761	n/a	LTP206	ltpFR	0	5	1	PUB	1135	4	0	n/a	n/a	n/a	n/a	n/a
5337.292	n/a	RECOG_TARGET	2668646	n/a	LTP206	ltpFR	0	5	1	CHEST	295	5	1	n/a	n/a	n/a	n/a	n/a
5338.604	n/a	RECOG_RESP	2669302	n/a	LTP206	ltpFR	0	5	1	CHEST	295	n/a	1	n/a	n/a	n/a	n/a	n/a
5339.992	n/a	RECOG_CONF	2669996	n/a	LTP206	ltpFR	0	5	1	CHEST	295	5	1	n/a	n/a	n/a	n/a	n/a
5342.096	n/a	RECOG_TARGET	2671048	n/a	LTP206	ltpFR	0	5	0	BAG	69	3	0	n/a	n/a	n/a	n/a	n/a
5343.938	n/a	RECOG_RESP	2671969	n/a	LTP206	ltpFR	0	5	0	BAG	69	n/a	0	n/a	n/a	n/a	n/a	n/a
5345.65	n/a	RECOG_CONF	2672825	n/a	LTP206	ltpFR	0	5	0	BAG	69	3	0	n/a	n/a	n/a	n/a	n/a
5347.448	n/a	RECOG_LURE	2673724	n/a	LTP206	ltpFR	0	5	n/a	HAND	683	5	n/a	n/a	n/a	n/a	n/a	n/a
5349.032	n/a	RECOG_RESP	2674516	n/a	LTP206	ltpFR	0	5	n/a	HAND	683	n/a	n/a	n/a	n/a	n/a	n/a	n/a
5350.548	n/a	RECOG_CONF	2675274	n/a	LTP206	ltpFR	0	5	n/a	HAND	683	5	n/a	n/a	n/a	n/a	n/a	n/a
5352.534	n/a	RECOG_TARGET	2676267	n/a	LTP206	ltpFR	0	5	-1	BUFFALO	186	3	-1	n/a	n/a	n/a	n/a	n/a
5353.946	n/a	RECOG_RESP	2676973	n/a	LTP206	ltpFR	0	5	-1	BUFFALO	186	n/a	-1	n/a	n/a	n/a	n/a	n/a
5356.456	n/a	RECOG_CONF	2678228	n/a	LTP206	ltpFR	0	5	-1	BUFFALO	186	3	-1	n/a	n/a	n/a	n/a	n/a
5370.914	n/a	REC_START	2685457	n/a	LTP206	ltpFR	0	6	n/a	n/a	n/a	n/a	n/a	n/a	n/a	n/a	n/a	n/a
5370.97	n/a	RECOG_LURE	2685485	n/a	LTP206	ltpFR	0	6	n/a	VIKING	1565	3	n/a	n/a	n/a	n/a	n/a	n/a
5372.01	n/a	RECOG_RESP	2686005	n/a	LTP206	ltpFR	0	6	n/a	VIKING	1565	n/a	n/a	n/a	n/a	n/a	n/a	n/a
5373.542	n/a	RECOG_CONF	2686771	n/a	LTP206	ltpFR	0	6	n/a	VIKING	1565	3	n/a	n/a	n/a	n/a	n/a	n/a
5375.154	n/a	RECOG_LURE	2687577	n/a	LTP206	ltpFR	0	6	n/a	OUTDOORS	987	5	n/a	n/a	n/a	n/a	n/a	n/a
5376.152	n/a	RECOG_RESP	2688076	n/a	LTP206	ltpFR	0	6	n/a	OUTDOORS	987	n/a	n/a	n/a	n/a	n/a	n/a	n/a
5377.814	n/a	RECOG_CONF	2688907	n/a	LTP206	ltpFR	0	6	n/a	OUTDOORS	987	5	n/a	n/a	n/a	n/a	n/a	n/a
5379.554	n/a	RECOG_LURE	2689777	n/a	LTP206	ltpFR	0	6	n/a	WHIP	1604	5	n/a	n/a	n/a	n/a	n/a	n/a
5380.408	n/a	RECOG_RESP	2690204	n/a	LTP206	ltpFR	0	6	n/a	WHIP	1604	n/a	n/a	n/a	n/a	n/a	n/a	n/a
5382.104	n/a	RECOG_CONF	2691052	n/a	LTP206	ltpFR	0	6	n/a	WHIP	1604	5	n/a	n/a	n/a	n/a	n/a	n/a
5384.038	n/a	RECOG_TARGET	2692019	n/a	LTP206	ltpFR	0	6	1	PENGUIN	1044	5	1	n/a	n/a	n/a	n/a	n/a
5385.352	n/a	RECOG_RESP	2692676	n/a	LTP206	ltpFR	0	6	1	PENGUIN	1044	n/a	1	n/a	n/a	n/a	n/a	n/a
5386.754	n/a	RECOG_CONF	2693377	n/a	LTP206	ltpFR	0	6	1	PENGUIN	1044	5	1	n/a	n/a	n/a	n/a	n/a
5388.856	n/a	RECOG_TARGET	2694428	n/a	LTP206	ltpFR	0	6	0	COOKIE	374	5	0	n/a	n/a	n/a	n/a	n/a
5390.42	n/a	RECOG_RESP	2695210	n/a	LTP206	ltpFR	0	6	0	COOKIE	374	n/a	0	n/a	n/a	n/a	n/a	n/a
5391.782	n/a	RECOG_CONF	2695891	n/a	LTP206	ltpFR	0	6	0	COOKIE	374	5	0	n/a	n/a	n/a	n/a	n/a
5393.824	n/a	RECOG_LURE	2696912	n/a	LTP206	ltpFR	0	6	n/a	BULLETIN	195	3	n/a	n/a	n/a	n/a	n/a	n/a
5395.814	n/a	RECOG_RESP	2697907	n/a	LTP206	ltpFR	0	6	n/a	BULLETIN	195	n/a	n/a	n/a	n/a	n/a	n/a	n/a
5397.42	n/a	RECOG_CONF	2698710	n/a	LTP206	ltpFR	0	6	n/a	BULLETIN	195	3	n/a	n/a	n/a	n/a	n/a	n/a
5399.096	n/a	RECOG_TARGET	2699548	n/a	LTP206	ltpFR	0	6	0	RAISIN	1163	5	0	n/a	n/a	n/a	n/a	n/a
5400.444	n/a	RECOG_RESP	2700222	n/a	LTP206	ltpFR	0	6	0	RAISIN	1163	n/a	0	n/a	n/a	n/a	n/a	n/a
5401.92	n/a	RECOG_CONF	2700960	n/a	LTP206	ltpFR	0	6	0	RAISIN	1163	5	0	n/a	n/a	n/a	n/a	n/a
5403.746	n/a	RECOG_LURE	2701873	n/a	LTP206	ltpFR	0	6	n/a	SAUCER	1237	2	n/a	n/a	n/a	n/a	n/a	n/a
5405.572	n/a	RECOG_RESP	2702786	n/a	LTP206	ltpFR	0	6	n/a	SAUCER	1237	n/a	n/a	n/a	n/a	n/a	n/a	n/a
5407.358	n/a	RECOG_CONF	2703679	n/a	LTP206	ltpFR	0	6	n/a	SAUCER	1237	2	n/a	n/a	n/a	n/a	n/a	n/a
5409.252	n/a	RECOG_TARGET	2704626	n/a	LTP206	ltpFR	0	6	-1	PIKE	1067	4	-1	n/a	n/a	n/a	n/a	n/a
5411.494	n/a	RECOG_RESP	2705747	n/a	LTP206	ltpFR	0	6	-1	PIKE	1067	n/a	-1	n/a	n/a	n/a	n/a	n/a
5412.984	n/a	RECOG_CONF	2706492	n/a	LTP206	ltpFR	0	6	-1	PIKE	1067	4	-1	n/a	n/a	n/a	n/a	n/a
5415.056	n/a	RECOG_LURE	2707528	n/a	LTP206	ltpFR	0	6	n/a	VENT	1556	3	n/a	n/a	n/a	n/a	n/a	n/a
5416.382	n/a	RECOG_RESP	2708191	n/a	LTP206	ltpFR	0	6	n/a	VENT	1556	n/a	n/a	n/a	n/a	n/a	n/a	n/a
5418.702	n/a	RECOG_CONF	2709351	n/a	LTP206	ltpFR	0	6	n/a	VENT	1556	3	n/a	n/a	n/a	n/a	n/a	n/a
5420.426	n/a	RECOG_LURE	2710213	n/a	LTP206	ltpFR	0	6	n/a	GRATE	657	5	n/a	n/a	n/a	n/a	n/a	n/a
5421.88	n/a	RECOG_RESP	2710940	n/a	LTP206	ltpFR	0	6	n/a	GRATE	657	n/a	n/a	n/a	n/a	n/a	n/a	n/a
5423.452	n/a	RECOG_CONF	2711726	n/a	LTP206	ltpFR	0	6	n/a	GRATE	657	5	n/a	n/a	n/a	n/a	n/a	n/a
5425.412	n/a	RECOG_TARGET	2712706	n/a	LTP206	ltpFR	0	6	0	PRINCE	1124	5	1	n/a	n/a	n/a	n/a	n/a
5426.684	n/a	RECOG_RESP	2713342	n/a	LTP206	ltpFR	0	6	0	PRINCE	1124	n/a	1	n/a	n/a	n/a	n/a	n/a
5428.132	n/a	RECOG_CONF	2714066	n/a	LTP206	ltpFR	0	6	0	PRINCE	1124	5	1	n/a	n/a	n/a	n/a	n/a
5430.264	n/a	RECOG_TARGET	2715132	n/a	LTP206	ltpFR	0	6	1	COLONEL	348	3	1	n/a	n/a	n/a	n/a	n/a
5432.022	n/a	RECOG_RESP	2716011	n/a	LTP206	ltpFR	0	6	1	COLONEL	348	n/a	1	n/a	n/a	n/a	n/a	n/a
5434.188	n/a	RECOG_CONF	2717094	n/a	LTP206	ltpFR	0	6	1	COLONEL	348	3	1	n/a	n/a	n/a	n/a	n/a
5436.02	n/a	RECOG_LURE	2718010	n/a	LTP206	ltpFR	0	6	n/a	COMPASS	358	3	n/a	n/a	n/a	n/a	n/a	n/a
5437.456	n/a	RECOG_RESP	2718728	n/a	LTP206	ltpFR	0	6	n/a	COMPASS	358	n/a	n/a	n/a	n/a	n/a	n/a	n/a
5439.736	n/a	RECOG_CONF	2719868	n/a	LTP206	ltpFR	0	6	n/a	COMPASS	358	3	n/a	n/a	n/a	n/a	n/a	n/a
5441.524	n/a	RECOG_LURE	2720762	n/a	LTP206	ltpFR	0	6	n/a	FUNGUS	614	5	n/a	n/a	n/a	n/a	n/a	n/a
5442.704	n/a	RECOG_RESP	2721352	n/a	LTP206	ltpFR	0	6	n/a	FUNGUS	614	n/a	n/a	n/a	n/a	n/a	n/a	n/a
5444.116	n/a	RECOG_CONF	2722058	n/a	LTP206	ltpFR	0	6	n/a	FUNGUS	614	5	n/a	n/a	n/a	n/a	n/a	n/a
5446.242	n/a	RECOG_TARGET	2723121	n/a	LTP206	ltpFR	0	6	1	MOOSE	915	4	n/a	n/a	n/a	n/a	n/a	n/a
5447.558	n/a	RECOG_RESP	2723779	n/a	LTP206	ltpFR	0	6	1	MOOSE	915	n/a	n/a	n/a	n/a	n/a	n/a	n/a
5449.314	n/a	RECOG_CONF	2724657	n/a	LTP206	ltpFR	0	6	1	MOOSE	915	4	n/a	n/a	n/a	n/a	n/a	n/a
5451.194	n/a	RECOG_LURE	2725597	n/a	LTP206	ltpFR	0	6	n/a	FEATHER	557	3	n/a	n/a	n/a	n/a	n/a	n/a
5452.268	n/a	RECOG_RESP	2726134	n/a	LTP206	ltpFR	0	6	n/a	FEATHER	557	n/a	n/a	n/a	n/a	n/a	n/a	n/a
5454.604	n/a	RECOG_CONF	2727302	n/a	LTP206	ltpFR	0	6	n/a	FEATHER	557	3	n/a	n/a	n/a	n/a	n/a	n/a
5456.348	n/a	RECOG_TARGET	2728174	n/a	LTP206	ltpFR	0	6	0	OPERATOR	979	5	1	n/a	n/a	n/a	n/a	n/a
5457.89	n/a	RECOG_RESP	2728945	n/a	LTP206	ltpFR	0	6	0	OPERATOR	979	n/a	1	n/a	n/a	n/a	n/a	n/a
5459.512	n/a	RECOG_CONF	2729756	n/a	LTP206	ltpFR	0	6	0	OPERATOR	979	5	1	n/a	n/a	n/a	n/a	n/a
5461.45	n/a	RECOG_TARGET	2730725	n/a	LTP206	ltpFR	0	6	1	PARENT	1013	5	1	n/a	n/a	n/a	n/a	n/a
5462.86	n/a	RECOG_RESP	2731430	n/a	LTP206	ltpFR	0	6	1	PARENT	1013	n/a	1	n/a	n/a	n/a	n/a	n/a
5464.55	n/a	RECOG_CONF	2732275	n/a	LTP206	ltpFR	0	6	1	PARENT	1013	5	1	n/a	n/a	n/a	n/a	n/a
5466.552	n/a	RECOG_TARGET	2733276	n/a	LTP206	ltpFR	0	6	1	BEAR	106	5	1	n/a	n/a	n/a	n/a	n/a
5467.744	n/a	RECOG_RESP	2733872	n/a	LTP206	ltpFR	0	6	1	BEAR	106	n/a	1	n/a	n/a	n/a	n/a	n/a
5469.17	n/a	RECOG_CONF	2734585	n/a	LTP206	ltpFR	0	6	1	BEAR	106	5	1	n/a	n/a	n/a	n/a	n/a
5486.956	n/a	REC_START	2743478	n/a	LTP206	ltpFR	0	7	n/a	n/a	n/a	n/a	n/a	n/a	n/a	n/a	n/a	n/a
5487.014	n/a	RECOG_TARGET	2743507	n/a	LTP206	ltpFR	0	7	-1	SUBMARINE	1398	5	-1	n/a	n/a	n/a	n/a	n/a
5488.274	n/a	RECOG_RESP	2744137	n/a	LTP206	ltpFR	0	7	-1	SUBMARINE	1398	n/a	-1	n/a	n/a	n/a	n/a	n/a
5489.886	n/a	RECOG_CONF	2744943	n/a	LTP206	ltpFR	0	7	-1	SUBMARINE	1398	5	-1	n/a	n/a	n/a	n/a	n/a
