onset	duration	trial_type	sample	stim_file	subject	experiment	session	trial	task	item_name	item_num	recog_resp	recog_conf	resp	color_r	color_g	color_b	case	font
261.446	n/a	SESS_START	130723	n/a	LTP151	ltpFR	5	n/a	n/a	n/a	n/a	1	2	n/a	n/a	n/a	n/a	n/a	n/a
348.492	n/a	WORD	174246	wordpools/wasnorm_wordpool.txt	LTP151	ltpFR	5	1	1	COBBLER	335	0	n/a	1	0.57763671875	0.412841796875	1	upper	amplitud.ttf
352.506	n/a	WORD	176253	wordpools/wasnorm_wordpool.txt	LTP151	ltpFR	5	1	1	MANSION	864	n/a	n/a	0	0.57763671875	0.412841796875	1	upper	amplitud.ttf
356.522	n/a	WORD	178261	wordpools/wasnorm_wordpool.txt	LTP151	ltpFR	5	1	0	CASHIER	254	n/a	n/a	1	0.422607421875	0.5869140625	0	lower	zerothre.ttf
360.554	n/a	WORD	180277	wordpools/wasnorm_wordpool.txt	LTP151	ltpFR	5	1	0	DIME	466	n/a	n/a	0	0.422607421875	0.5869140625	0	lower	zerothre.ttf
364.404	n/a	WORD	182202	wordpools/wasnorm_wordpool.txt	LTP151	ltpFR	5	1	0	PIG	1064	n/a	n/a	1	0.422607421875	0.5869140625	0	lower	zerothre.ttf
368.57	n/a	WORD	184285	wordpools/wasnorm_wordpool.txt	LTP151	ltpFR	5	1	0	SHOVEL	1295	n/a	n/a	1	0.422607421875	0.5869140625	0	lower	zerothre.ttf
372.66	n/a	WORD	186330	wordpools/wasnorm_wordpool.txt	LTP151	ltpFR	5	1	0	CHIMNEY	301	n/a	n/a	1	0.422607421875	0.5869140625	0	lower	zerothre.ttf
376.85	n/a	WORD	188425	wordpools/wasnorm_wordpool.txt	LTP151	ltpFR	5	1	0	SALESMAN	1225	n/a	n/a	1	0.422607421875	0.5869140625	0	lower	zerothre.ttf
380.856	n/a	WORD	190428	wordpools/wasnorm_wordpool.txt	LTP151	ltpFR	5	1	1	GARAGE	621	n/a	n/a	0	0.57763671875	0.412841796875	1	upper	amplitud.ttf
385.024	n/a	WORD	192512	wordpools/wasnorm_wordpool.txt	LTP151	ltpFR	5	1	1	LOCK	838	n/a	n/a	0	0.57763671875	0.412841796875	1	upper	amplitud.ttf
389.03	n/a	WORD	194515	wordpools/wasnorm_wordpool.txt	LTP151	ltpFR	5	1	1	KEY	773	n/a	n/a	0	0.57763671875	0.412841796875	1	upper	amplitud.ttf
392.92	n/a	WORD	196460	wordpools/wasnorm_wordpool.txt	LTP151	ltpFR	5	1	0	STUMP	1396	n/a	n/a	1	0.422607421875	0.5869140625	0	lower	zerothre.ttf
397.044	n/a	WORD	198522	wordpools/wasnorm_wordpool.txt	LTP151	ltpFR	5	1	0	PICNIC	1060	n/a	n/a	1	0.422607421875	0.5869140625	0	lower	zerothre.ttf
400.9	n/a	WORD	200450	wordpools/wasnorm_wordpool.txt	LTP151	ltpFR	5	1	1	FOOT	590	n/a	n/a	0	0.57763671875	0.412841796875	1	upper	amplitud.ttf
404.85	n/a	WORD	202425	wordpools/wasnorm_wordpool.txt	LTP151	ltpFR	5	1	1	COTTAGE	384	n/a	n/a	0	0.57763671875	0.412841796875	1	upper	amplitud.ttf
408.724	n/a	WORD	204362	wordpools/wasnorm_wordpool.txt	LTP151	ltpFR	5	1	1	CHIPMUNK	304	n/a	n/a	1	0.57763671875	0.412841796875	1	upper	amplitud.ttf
414.514	n/a	REC_START	207257	n/a	LTP151	ltpFR	5	1	n/a	n/a	n/a	n/a	n/a	n/a	n/a	n/a	n/a	n/a	n/a
415.766	n/a	REC_WORD	207883	wordpools/wasnorm_wordpool.txt	LTP151	ltpFR	5	1	1	COBBLER	335	n/a	n/a	1	n/a	n/a	n/a	n/a	n/a
416.898	n/a	REC_WORD	208449	wordpools/wasnorm_wordpool.txt	LTP151	ltpFR	5	1	1	MANSION	864	n/a	n/a	0	n/a	n/a	n/a	n/a	n/a
418.748	n/a	REC_WORD	209374	wordpools/wasnorm_wordpool.txt	LTP151	ltpFR	5	1	0	CASHIER	254	n/a	n/a	1	n/a	n/a	n/a	n/a	n/a
420.06	n/a	REC_WORD	210030	wordpools/wasnorm_wordpool.txt	LTP151	ltpFR	5	1	0	DIME	466	n/a	n/a	0	n/a	n/a	n/a	n/a	n/a
422.392	n/a	REC_WORD	211196	wordpools/wasnorm_wordpool.txt	LTP151	ltpFR	5	1	1	KEY	773	n/a	n/a	0	n/a	n/a	n/a	n/a	n/a
428.398	n/a	REC_WORD	214199	wordpools/wasnorm_wordpool.txt	LTP151	ltpFR	5	1	0	STUMP	1396	n/a	n/a	1	n/a	n/a	n/a	n/a	n/a
429.96	n/a	REC_WORD	214980	wordpools/wasnorm_wordpool.txt	LTP151	ltpFR	5	1	0	PICNIC	1060	n/a	n/a	1	n/a	n/a	n/a	n/a	n/a
433.128	n/a	REC_WORD	216564	wordpools/wasnorm_wordpool.txt	LTP151	ltpFR	5	1	1	CHIPMUNK	304	n/a	n/a	1	n/a	n/a	n/a	n/a	n/a
434.234	n/a	REC_WORD	217117	wordpools/wasnorm_wordpool.txt	LTP151	ltpFR	5	1	1	COTTAGE	384	n/a	n/a	0	n/a	n/a	n/a	n/a	n/a
437.776	n/a	REC_WORD	218888	wordpools/wasnorm_wordpool.txt	LTP151	ltpFR	5	1	1	FOOT	590	n/a	n/a	0	n/a	n/a	n/a	n/a	n/a
451.346	n/a	REC_WORD	225673	wordpools/wasnorm_wordpool.txt	LTP151	ltpFR	5	1	0	SHOVEL	1295	n/a	n/a	1	n/a	n/a	n/a	n/a	n/a
455.772	n/a	REC_WORD	227886	wordpools/wasnorm_wordpool.txt	LTP151	ltpFR	5	1	0	CHIMNEY	301	n/a	n/a	1	n/a	n/a	n/a	n/a	n/a
456.464	n/a	REC_WORD	228232	wordpools/wasnorm_wordpool.txt	LTP151	ltpFR	5	1	0	SALESMAN	1225	n/a	n/a	1	n/a	n/a	n/a	n/a	n/a
494.656	n/a	WORD	247328	wordpools/wasnorm_wordpool.txt	LTP151	ltpFR	5	2	0	WARDROBE	1587	n/a	n/a	1	0.422607421875	0.5869140625	0	lower	zerothre.ttf
498.864	n/a	WORD	249432	wordpools/wasnorm_wordpool.txt	LTP151	ltpFR	5	2	0	PARSLEY	1016	n/a	n/a	0	0.422607421875	0.5869140625	0	lower	zerothre.ttf
502.878	n/a	WORD	251439	wordpools/wasnorm_wordpool.txt	LTP151	ltpFR	5	2	0	ORCHESTRA	981	n/a	n/a	1	0.422607421875	0.5869140625	0	lower	zerothre.ttf
506.844	n/a	WORD	253422	wordpools/wasnorm_wordpool.txt	LTP151	ltpFR	5	2	0	SHIRT	1287	n/a	n/a	0	0.422607421875	0.5869140625	0	lower	zerothre.ttf
510.792	n/a	WORD	255396	wordpools/wasnorm_wordpool.txt	LTP151	ltpFR	5	2	0	NOOSE	956	n/a	n/a	1	0.422607421875	0.5869140625	0	lower	zerothre.ttf
514.708	n/a	WORD	257354	wordpools/wasnorm_wordpool.txt	LTP151	ltpFR	5	2	0	SHRINE	1298	n/a	n/a	1	0.422607421875	0.5869140625	0	lower	zerothre.ttf
518.882	n/a	WORD	259441	wordpools/wasnorm_wordpool.txt	LTP151	ltpFR	5	2	1	TROUSERS	1510	n/a	n/a	0	0.57763671875	0.412841796875	1	upper	amplitud.ttf
522.864	n/a	WORD	261432	wordpools/wasnorm_wordpool.txt	LTP151	ltpFR	5	2	1	BUGLE	189	n/a	n/a	0	0.57763671875	0.412841796875	1	upper	amplitud.ttf
526.68	n/a	WORD	263340	wordpools/wasnorm_wordpool.txt	LTP151	ltpFR	5	2	1	SURF	1412	n/a	n/a	0	0.57763671875	0.412841796875	1	upper	amplitud.ttf
530.878	n/a	WORD	265439	wordpools/wasnorm_wordpool.txt	LTP151	ltpFR	5	2	0	CAMEL	223	n/a	n/a	1	0.422607421875	0.5869140625	0	lower	zerothre.ttf
534.894	n/a	WORD	267447	wordpools/wasnorm_wordpool.txt	LTP151	ltpFR	5	2	0	REBEL	1172	n/a	n/a	1	0.422607421875	0.5869140625	0	lower	zerothre.ttf
538.71	n/a	WORD	269355	wordpools/wasnorm_wordpool.txt	LTP151	ltpFR	5	2	1	ICING	732	n/a	n/a	0	0.57763671875	0.412841796875	1	upper	amplitud.ttf
542.784	n/a	WORD	271392	wordpools/wasnorm_wordpool.txt	LTP151	ltpFR	5	2	1	WASHER	1592	n/a	n/a	0	0.57763671875	0.412841796875	1	upper	amplitud.ttf
546.866	n/a	WORD	273433	wordpools/wasnorm_wordpool.txt	LTP151	ltpFR	5	2	1	ROBOT	1200	n/a	n/a	0	0.57763671875	0.412841796875	1	upper	amplitud.ttf
550.764	n/a	WORD	275382	wordpools/wasnorm_wordpool.txt	LTP151	ltpFR	5	2	1	REPTILE	1185	n/a	n/a	0	0.57763671875	0.412841796875	1	upper	amplitud.ttf
554.614	n/a	WORD	277307	wordpools/wasnorm_wordpool.txt	LTP151	ltpFR	5	2	1	SERPENT	1270	n/a	n/a	1	0.57763671875	0.412841796875	1	upper	amplitud.ttf
560.486	n/a	REC_START	280243	n/a	LTP151	ltpFR	5	2	n/a	n/a	n/a	n/a	n/a	n/a	n/a	n/a	n/a	n/a	n/a
562.9	n/a	REC_WORD	281450	wordpools/wasnorm_wordpool.txt	LTP151	ltpFR	5	2	0	WARDROBE	1587	n/a	n/a	1	n/a	n/a	n/a	n/a	n/a
564.058	n/a	REC_WORD	282029	wordpools/wasnorm_wordpool.txt	LTP151	ltpFR	5	2	0	PARSLEY	1016	n/a	n/a	0	n/a	n/a	n/a	n/a	n/a
565.024	n/a	REC_WORD	282512	wordpools/wasnorm_wordpool.txt	LTP151	ltpFR	5	2	0	ORCHESTRA	981	n/a	n/a	1	n/a	n/a	n/a	n/a	n/a
566.482	n/a	REC_WORD	283241	wordpools/wasnorm_wordpool.txt	LTP151	ltpFR	5	2	0	SHIRT	1287	n/a	n/a	0	n/a	n/a	n/a	n/a	n/a
570.068	n/a	REC_WORD	285034	wordpools/wasnorm_wordpool.txt	LTP151	ltpFR	5	2	0	NOOSE	956	n/a	n/a	1	n/a	n/a	n/a	n/a	n/a
572.168	n/a	REC_WORD	286084	wordpools/wasnorm_wordpool.txt	LTP151	ltpFR	5	2	0	SHRINE	1298	n/a	n/a	1	n/a	n/a	n/a	n/a	n/a
574.226	n/a	REC_WORD	287113	wordpools/wasnorm_wordpool.txt	LTP151	ltpFR	5	2	1	TROUSERS	1510	n/a	n/a	0	n/a	n/a	n/a	n/a	n/a
575.736	n/a	REC_WORD	287868	wordpools/wasnorm_wordpool.txt	LTP151	ltpFR	5	2	1	BUGLE	189	n/a	n/a	0	n/a	n/a	n/a	n/a	n/a
577.982	n/a	REC_WORD	288991	wordpools/wasnorm_wordpool.txt	LTP151	ltpFR	5	2	1	SURF	1412	n/a	n/a	0	n/a	n/a	n/a	n/a	n/a
581.07	n/a	REC_WORD	290535	wordpools/wasnorm_wordpool.txt	LTP151	ltpFR	5	2	0	CAMEL	223	n/a	n/a	1	n/a	n/a	n/a	n/a	n/a
582.532	n/a	REC_WORD	291266	wordpools/wasnorm_wordpool.txt	LTP151	ltpFR	5	2	0	REBEL	1172	n/a	n/a	1	n/a	n/a	n/a	n/a	n/a
584.432	n/a	REC_WORD	292216	wordpools/wasnorm_wordpool.txt	LTP151	ltpFR	5	2	1	ICING	732	n/a	n/a	0	n/a	n/a	n/a	n/a	n/a
589.48	n/a	REC_WORD	294740	wordpools/wasnorm_wordpool.txt	LTP151	ltpFR	5	2	1	ROBOT	1200	n/a	n/a	0	n/a	n/a	n/a	n/a	n/a
595.578	n/a	REC_WORD	297789	wordpools/wasnorm_wordpool.txt	LTP151	ltpFR	5	2	1	WASHER	1592	n/a	n/a	0	n/a	n/a	n/a	n/a	n/a
598.56	n/a	REC_WORD	299280	wordpools/wasnorm_wordpool.txt	LTP151	ltpFR	5	2	1	REPTILE	1185	n/a	n/a	0	n/a	n/a	n/a	n/a	n/a
599.678	n/a	REC_WORD	299839	wordpools/wasnorm_wordpool.txt	LTP151	ltpFR	5	2	1	SERPENT	1270	n/a	n/a	1	n/a	n/a	n/a	n/a	n/a
641.104	n/a	WORD	320552	wordpools/wasnorm_wordpool.txt	LTP151	ltpFR	5	3	1	CLOTHES	327	n/a	n/a	0	0.57763671875	0.412841796875	1	upper	amplitud.ttf
645.036	n/a	WORD	322518	wordpools/wasnorm_wordpool.txt	LTP151	ltpFR	5	3	1	EDITORIAL	517	n/a	n/a	0	0.57763671875	0.412841796875	1	upper	amplitud.ttf
648.926	n/a	WORD	324463	wordpools/wasnorm_wordpool.txt	LTP151	ltpFR	5	3	1	CHIEF	298	n/a	n/a	1	0.57763671875	0.412841796875	1	upper	amplitud.ttf
652.8	n/a	WORD	326400	wordpools/wasnorm_wordpool.txt	LTP151	ltpFR	5	3	0	VEST	1559	n/a	n/a	0	0.422607421875	0.5869140625	0	lower	zerothre.ttf
656.716	n/a	WORD	328358	wordpools/wasnorm_wordpool.txt	LTP151	ltpFR	5	3	0	DOCUMENT	479	n/a	n/a	0	0.422607421875	0.5869140625	0	lower	zerothre.ttf
660.672	n/a	WORD	330336	wordpools/wasnorm_wordpool.txt	LTP151	ltpFR	5	3	0	CANNON	232	n/a	n/a	1	0.422607421875	0.5869140625	0	lower	zerothre.ttf
664.554	n/a	WORD	332277	wordpools/wasnorm_wordpool.txt	LTP151	ltpFR	5	3	0	RIFLE	1192	n/a	n/a	1	0.422607421875	0.5869140625	0	lower	zerothre.ttf
668.754	n/a	WORD	334377	wordpools/wasnorm_wordpool.txt	LTP151	ltpFR	5	3	1	TRIBE	1505	n/a	n/a	1	0.57763671875	0.412841796875	1	upper	amplitud.ttf
672.76	n/a	WORD	336380	wordpools/wasnorm_wordpool.txt	LTP151	ltpFR	5	3	1	ADOLESCENT	7	n/a	n/a	1	0.57763671875	0.412841796875	1	upper	amplitud.ttf
676.934	n/a	WORD	338467	wordpools/wasnorm_wordpool.txt	LTP151	ltpFR	5	3	0	ADULT	8	n/a	n/a	1	0.422607421875	0.5869140625	0	lower	zerothre.ttf
680.95	n/a	WORD	340475	wordpools/wasnorm_wordpool.txt	LTP151	ltpFR	5	3	0	LOBBY	836	n/a	n/a	1	0.422607421875	0.5869140625	0	lower	zerothre.ttf
684.932	n/a	WORD	342466	wordpools/wasnorm_wordpool.txt	LTP151	ltpFR	5	3	0	BUS	201	n/a	n/a	1	0.422607421875	0.5869140625	0	lower	zerothre.ttf
689.098	n/a	WORD	344549	wordpools/wasnorm_wordpool.txt	LTP151	ltpFR	5	3	0	RIDER	1191	n/a	n/a	1	0.422607421875	0.5869140625	0	lower	zerothre.ttf
693.244	n/a	WORD	346622	wordpools/wasnorm_wordpool.txt	LTP151	ltpFR	5	3	1	CATERPILLAR	259	n/a	n/a	1	0.57763671875	0.412841796875	1	upper	amplitud.ttf
697.352	n/a	WORD	348676	wordpools/wasnorm_wordpool.txt	LTP151	ltpFR	5	3	1	COTTON	385	n/a	n/a	0	0.57763671875	0.412841796875	1	upper	amplitud.ttf
701.508	n/a	WORD	350754	wordpools/wasnorm_wordpool.txt	LTP151	ltpFR	5	3	1	SUBURB	1399	n/a	n/a	0	0.57763671875	0.412841796875	1	upper	amplitud.ttf
707.334	n/a	REC_START	353667	n/a	LTP151	ltpFR	5	3	n/a	n/a	n/a	n/a	n/a	n/a	n/a	n/a	n/a	n/a	n/a
709.514	n/a	REC_WORD	354757	wordpools/wasnorm_wordpool.txt	LTP151	ltpFR	5	3	1	CLOTHES	327	n/a	n/a	0	n/a	n/a	n/a	n/a	n/a
713.1	n/a	REC_WORD	356550	wordpools/wasnorm_wordpool.txt	LTP151	ltpFR	5	3	1	SUBURB	1399	n/a	n/a	0	n/a	n/a	n/a	n/a	n/a
714.278	n/a	REC_WORD	357139	wordpools/wasnorm_wordpool.txt	LTP151	ltpFR	5	3	1	COTTON	385	n/a	n/a	0	n/a	n/a	n/a	n/a	n/a
715.66	n/a	REC_WORD	357830	wordpools/wasnorm_wordpool.txt	LTP151	ltpFR	5	3	1	CATERPILLAR	259	n/a	n/a	1	n/a	n/a	n/a	n/a	n/a
721.71	n/a	REC_WORD	360855	wordpools/wasnorm_wordpool.txt	LTP151	ltpFR	5	3	0	RIDER	1191	n/a	n/a	1	n/a	n/a	n/a	n/a	n/a
723.192	n/a	REC_WORD	361596	wordpools/wasnorm_wordpool.txt	LTP151	ltpFR	5	3	0	BUS	201	n/a	n/a	1	n/a	n/a	n/a	n/a	n/a
724.764	n/a	REC_WORD	362382	wordpools/wasnorm_wordpool.txt	LTP151	ltpFR	5	3	0	LOBBY	836	n/a	n/a	1	n/a	n/a	n/a	n/a	n/a
725.728	n/a	REC_WORD	362864	wordpools/wasnorm_wordpool.txt	LTP151	ltpFR	5	3	0	ADULT	8	n/a	n/a	1	n/a	n/a	n/a	n/a	n/a
726.94	n/a	REC_WORD	363470	wordpools/wasnorm_wordpool.txt	LTP151	ltpFR	5	3	1	ADOLESCENT	7	n/a	n/a	1	n/a	n/a	n/a	n/a	n/a
728.226	n/a	REC_WORD	364113	wordpools/wasnorm_wordpool.txt	LTP151	ltpFR	5	3	1	TRIBE	1505	n/a	n/a	1	n/a	n/a	n/a	n/a	n/a
732.068	n/a	REC_WORD	366034	wordpools/wasnorm_wordpool.txt	LTP151	ltpFR	5	3	1	CHIEF	298	n/a	n/a	1	n/a	n/a	n/a	n/a	n/a
733.514	n/a	REC_WORD	366757	wordpools/wasnorm_wordpool.txt	LTP151	ltpFR	5	3	0	VEST	1559	n/a	n/a	0	n/a	n/a	n/a	n/a	n/a
734.582	n/a	REC_WORD	367291	wordpools/wasnorm_wordpool.txt	LTP151	ltpFR	5	3	0	DOCUMENT	479	n/a	n/a	0	n/a	n/a	n/a	n/a	n/a
735.99	n/a	REC_WORD	367995	wordpools/wasnorm_wordpool.txt	LTP151	ltpFR	5	3	0	CANNON	232	n/a	n/a	1	n/a	n/a	n/a	n/a	n/a
786.826	n/a	WORD	393413	wordpools/wasnorm_wordpool.txt	LTP151	ltpFR	5	4	-1	COB	334	n/a	n/a	-1	1.0	1.0	1	upper	Verdana.ttf
790.982	n/a	WORD	395491	wordpools/wasnorm_wordpool.txt	LTP151	ltpFR	5	4	-1	NIGHTGOWN	953	n/a	n/a	-1	1.0	1.0	1	upper	Verdana.ttf
794.84	n/a	WORD	397420	wordpools/wasnorm_wordpool.txt	LTP151	ltpFR	5	4	-1	TUXEDO	1525	n/a	n/a	-1	1.0	1.0	1	upper	Verdana.ttf
799.064	n/a	WORD	399532	wordpools/wasnorm_wordpool.txt	LTP151	ltpFR	5	4	-1	SADDLE	1221	n/a	n/a	-1	1.0	1.0	1	upper	Verdana.ttf
803.112	n/a	WORD	401556	wordpools/wasnorm_wordpool.txt	LTP151	ltpFR	5	4	-1	MULE	931	n/a	n/a	-1	1.0	1.0	1	upper	Verdana.ttf
807.078	n/a	WORD	403539	wordpools/wasnorm_wordpool.txt	LTP151	ltpFR	5	4	-1	THIGH	1457	n/a	n/a	-1	1.0	1.0	1	upper	Verdana.ttf
811.018	n/a	WORD	405509	wordpools/wasnorm_wordpool.txt	LTP151	ltpFR	5	4	-1	DINNER	468	n/a	n/a	-1	1.0	1.0	1	upper	Verdana.ttf
815.134	n/a	WORD	407567	wordpools/wasnorm_wordpool.txt	LTP151	ltpFR	5	4	-1	SUPPER	1411	n/a	n/a	-1	1.0	1.0	1	upper	Verdana.ttf
819.048	n/a	WORD	409524	wordpools/wasnorm_wordpool.txt	LTP151	ltpFR	5	4	-1	SKYSCRAPER	1322	n/a	n/a	-1	1.0	1.0	1	upper	Verdana.ttf
823.024	n/a	WORD	411512	wordpools/wasnorm_wordpool.txt	LTP151	ltpFR	5	4	-1	DANDRUFF	439	n/a	n/a	-1	1.0	1.0	1	upper	Verdana.ttf
827.146	n/a	WORD	413573	wordpools/wasnorm_wordpool.txt	LTP151	ltpFR	5	4	-1	APPENDAGE	32	n/a	n/a	-1	1.0	1.0	1	upper	Verdana.ttf
831.038	n/a	WORD	415519	wordpools/wasnorm_wordpool.txt	LTP151	ltpFR	5	4	-1	THICKET	1455	n/a	n/a	-1	1.0	1.0	1	upper	Verdana.ttf
835.128	n/a	WORD	417564	wordpools/wasnorm_wordpool.txt	LTP151	ltpFR	5	4	-1	MUMMY	932	n/a	n/a	-1	1.0	1.0	1	upper	Verdana.ttf
839.218	n/a	WORD	419609	wordpools/wasnorm_wordpool.txt	LTP151	ltpFR	5	4	-1	CONE	363	n/a	n/a	-1	1.0	1.0	1	upper	Verdana.ttf
843.374	n/a	WORD	421687	wordpools/wasnorm_wordpool.txt	LTP151	ltpFR	5	4	-1	THORN	1459	n/a	n/a	-1	1.0	1.0	1	upper	Verdana.ttf
847.19	n/a	WORD	423595	wordpools/wasnorm_wordpool.txt	LTP151	ltpFR	5	4	-1	GYMNAST	675	n/a	n/a	-1	1.0	1.0	1	upper	Verdana.ttf
853.09	n/a	REC_START	426545	n/a	LTP151	ltpFR	5	4	n/a	n/a	n/a	n/a	n/a	n/a	n/a	n/a	n/a	n/a	n/a
855.024	n/a	REC_WORD	427512	wordpools/wasnorm_wordpool.txt	LTP151	ltpFR	5	4	-1	COB	334	n/a	n/a	-1	n/a	n/a	n/a	n/a	n/a
856.008	n/a	REC_WORD	428004	wordpools/wasnorm_wordpool.txt	LTP151	ltpFR	5	4	-1	NIGHTGOWN	953	n/a	n/a	-1	n/a	n/a	n/a	n/a	n/a
857.05	n/a	REC_WORD	428525	wordpools/wasnorm_wordpool.txt	LTP151	ltpFR	5	4	-1	TUXEDO	1525	n/a	n/a	-1	n/a	n/a	n/a	n/a	n/a
858.498	n/a	REC_WORD	429249	wordpools/wasnorm_wordpool.txt	LTP151	ltpFR	5	4	-1	SADDLE	1221	n/a	n/a	-1	n/a	n/a	n/a	n/a	n/a
860.034	n/a	REC_WORD	430017	wordpools/wasnorm_wordpool.txt	LTP151	ltpFR	5	4	-1	MULE	931	n/a	n/a	-1	n/a	n/a	n/a	n/a	n/a
870.122	n/a	REC_WORD	435061	wordpools/wasnorm_wordpool.txt	LTP151	ltpFR	5	4	-1	DINNER	468	n/a	n/a	-1	n/a	n/a	n/a	n/a	n/a
870.656	n/a	REC_WORD	435328	wordpools/wasnorm_wordpool.txt	LTP151	ltpFR	5	4	-1	SUPPER	1411	n/a	n/a	-1	n/a	n/a	n/a	n/a	n/a
872.042	n/a	REC_WORD	436021	wordpools/wasnorm_wordpool.txt	LTP151	ltpFR	5	4	-1	SKYSCRAPER	1322	n/a	n/a	-1	n/a	n/a	n/a	n/a	n/a
873.042	n/a	REC_WORD_VV	436521	wordpools/wasnorm_wordpool.txt	LTP151	ltpFR	5	4	n/a	<>	-1	n/a	n/a	n/a	n/a	n/a	n/a	n/a	n/a
874.102	n/a	REC_WORD	437051	wordpools/wasnorm_wordpool.txt	LTP151	ltpFR	5	4	-1	DANDRUFF	439	n/a	n/a	-1	n/a	n/a	n/a	n/a	n/a
875.504	n/a	REC_WORD	437752	wordpools/wasnorm_wordpool.txt	LTP151	ltpFR	5	4	-1	APPENDAGE	32	n/a	n/a	-1	n/a	n/a	n/a	n/a	n/a
876.886	n/a	REC_WORD	438443	wordpools/wasnorm_wordpool.txt	LTP151	ltpFR	5	4	-1	THICKET	1455	n/a	n/a	-1	n/a	n/a	n/a	n/a	n/a
878.504	n/a	REC_WORD	439252	wordpools/wasnorm_wordpool.txt	LTP151	ltpFR	5	4	-1	MUMMY	932	n/a	n/a	-1	n/a	n/a	n/a	n/a	n/a
886.486	n/a	REC_WORD	443243	wordpools/wasnorm_wordpool.txt	LTP151	ltpFR	5	4	-1	CONE	363	n/a	n/a	-1	n/a	n/a	n/a	n/a	n/a
887.942	n/a	REC_WORD	443971	wordpools/wasnorm_wordpool.txt	LTP151	ltpFR	5	4	-1	THORN	1459	n/a	n/a	-1	n/a	n/a	n/a	n/a	n/a
889.958	n/a	REC_WORD	444979	wordpools/wasnorm_wordpool.txt	LTP151	ltpFR	5	4	-1	GYMNAST	675	n/a	n/a	-1	n/a	n/a	n/a	n/a	n/a
913.226	n/a	REC_WORD	456613	wordpools/wasnorm_wordpool.txt	LTP151	ltpFR	5	4	-1	THIGH	1457	n/a	n/a	-1	n/a	n/a	n/a	n/a	n/a
933.998	n/a	WORD	466999	wordpools/wasnorm_wordpool.txt	LTP151	ltpFR	5	5	1	FILM	565	n/a	n/a	0	0.57763671875	0.412841796875	1	upper	amplitud.ttf
937.906	n/a	WORD	468953	wordpools/wasnorm_wordpool.txt	LTP151	ltpFR	5	5	1	PELICAN	1039	n/a	n/a	1	0.57763671875	0.412841796875	1	upper	amplitud.ttf
941.862	n/a	WORD	470931	wordpools/wasnorm_wordpool.txt	LTP151	ltpFR	5	5	1	RAZOR	1171	n/a	n/a	0	0.57763671875	0.412841796875	1	upper	amplitud.ttf
945.828	n/a	WORD	472914	wordpools/wasnorm_wordpool.txt	LTP151	ltpFR	5	5	1	TOENAIL	1474	n/a	n/a	0	0.57763671875	0.412841796875	1	upper	amplitud.ttf
949.702	n/a	WORD	474851	wordpools/wasnorm_wordpool.txt	LTP151	ltpFR	5	5	1	SEA	1259	n/a	n/a	1	0.57763671875	0.412841796875	1	upper	amplitud.ttf
953.908	n/a	WORD	476954	wordpools/wasnorm_wordpool.txt	LTP151	ltpFR	5	5	1	HAWK	692	n/a	n/a	1	0.57763671875	0.412841796875	1	upper	amplitud.ttf
958.09	n/a	WORD	479045	wordpools/wasnorm_wordpool.txt	LTP151	ltpFR	5	5	1	SCENERY	1247	n/a	n/a	0	0.57763671875	0.412841796875	1	upper	amplitud.ttf
962.064	n/a	WORD	481032	wordpools/wasnorm_wordpool.txt	LTP151	ltpFR	5	5	1	ALMOND	18	n/a	n/a	1	0.57763671875	0.412841796875	1	upper	amplitud.ttf
966.112	n/a	WORD	483056	wordpools/wasnorm_wordpool.txt	LTP151	ltpFR	5	5	1	CARPENTER	246	n/a	n/a	1	0.57763671875	0.412841796875	1	upper	amplitud.ttf
970.302	n/a	WORD	485151	wordpools/wasnorm_wordpool.txt	LTP151	ltpFR	5	5	1	TOOL	1480	n/a	n/a	0	0.57763671875	0.412841796875	1	upper	amplitud.ttf
974.186	n/a	WORD	487093	wordpools/wasnorm_wordpool.txt	LTP151	ltpFR	5	5	1	WAITRESS	1581	n/a	n/a	1	0.57763671875	0.412841796875	1	upper	amplitud.ttf
978.118	n/a	WORD	489059	wordpools/wasnorm_wordpool.txt	LTP151	ltpFR	5	5	1	SHED	1277	n/a	n/a	0	0.57763671875	0.412841796875	1	upper	amplitud.ttf
982.108	n/a	WORD	491054	wordpools/wasnorm_wordpool.txt	LTP151	ltpFR	5	5	1	COUSIN	392	n/a	n/a	1	0.57763671875	0.412841796875	1	upper	amplitud.ttf
986.04	n/a	WORD	493020	wordpools/wasnorm_wordpool.txt	LTP151	ltpFR	5	5	1	FAMILY	550	n/a	n/a	1	0.57763671875	0.412841796875	1	upper	amplitud.ttf
989.996	n/a	WORD	494998	wordpools/wasnorm_wordpool.txt	LTP151	ltpFR	5	5	1	SCALLOP	1242	n/a	n/a	1	0.57763671875	0.412841796875	1	upper	amplitud.ttf
993.846	n/a	WORD	496923	wordpools/wasnorm_wordpool.txt	LTP151	ltpFR	5	5	1	KNAPSACK	783	n/a	n/a	0	0.57763671875	0.412841796875	1	upper	amplitud.ttf
999.796	n/a	REC_START	499898	n/a	LTP151	ltpFR	5	5	n/a	n/a	n/a	n/a	n/a	n/a	n/a	n/a	n/a	n/a	n/a
1005.348	n/a	REC_WORD	502674	wordpools/wasnorm_wordpool.txt	LTP151	ltpFR	5	5	1	TOENAIL	1474	n/a	n/a	0	n/a	n/a	n/a	n/a	n/a
1006.918	n/a	REC_WORD	503459	wordpools/wasnorm_wordpool.txt	LTP151	ltpFR	5	5	1	SEA	1259	n/a	n/a	1	n/a	n/a	n/a	n/a	n/a
1008.396	n/a	REC_WORD	504198	wordpools/wasnorm_wordpool.txt	LTP151	ltpFR	5	5	1	HAWK	692	n/a	n/a	1	n/a	n/a	n/a	n/a	n/a
1016.184	n/a	REC_WORD	508092	wordpools/wasnorm_wordpool.txt	LTP151	ltpFR	5	5	1	SCALLOP	1242	n/a	n/a	1	n/a	n/a	n/a	n/a	n/a
1018.104	n/a	REC_WORD	509052	wordpools/wasnorm_wordpool.txt	LTP151	ltpFR	5	5	1	KNAPSACK	783	n/a	n/a	0	n/a	n/a	n/a	n/a	n/a
1020.14	n/a	REC_WORD	510070	wordpools/wasnorm_wordpool.txt	LTP151	ltpFR	5	5	1	FAMILY	550	n/a	n/a	1	n/a	n/a	n/a	n/a	n/a
1021.058	n/a	REC_WORD	510529	wordpools/wasnorm_wordpool.txt	LTP151	ltpFR	5	5	1	COUSIN	392	n/a	n/a	1	n/a	n/a	n/a	n/a	n/a
1022.46	n/a	REC_WORD	511230	wordpools/wasnorm_wordpool.txt	LTP151	ltpFR	5	5	1	SHED	1277	n/a	n/a	0	n/a	n/a	n/a	n/a	n/a
1024.032	n/a	REC_WORD	512016	wordpools/wasnorm_wordpool.txt	LTP151	ltpFR	5	5	1	WAITRESS	1581	n/a	n/a	1	n/a	n/a	n/a	n/a	n/a
1025.598	n/a	REC_WORD	512799	wordpools/wasnorm_wordpool.txt	LTP151	ltpFR	5	5	1	TOOL	1480	n/a	n/a	0	n/a	n/a	n/a	n/a	n/a
1026.77	n/a	REC_WORD	513385	wordpools/wasnorm_wordpool.txt	LTP151	ltpFR	5	5	1	CARPENTER	246	n/a	n/a	1	n/a	n/a	n/a	n/a	n/a
1028.366	n/a	REC_WORD	514183	wordpools/wasnorm_wordpool.txt	LTP151	ltpFR	5	5	1	ALMOND	18	n/a	n/a	1	n/a	n/a	n/a	n/a	n/a
1036.334	n/a	REC_WORD	518167	wordpools/wasnorm_wordpool.txt	LTP151	ltpFR	5	5	1	PELICAN	1039	n/a	n/a	1	n/a	n/a	n/a	n/a	n/a
1038.21	n/a	REC_WORD	519105	wordpools/wasnorm_wordpool.txt	LTP151	ltpFR	5	5	1	RAZOR	1171	n/a	n/a	0	n/a	n/a	n/a	n/a	n/a
1084.626	n/a	WORD	542313	wordpools/wasnorm_wordpool.txt	LTP151	ltpFR	5	6	1	WATERFALL	1595	n/a	n/a	0	0.57763671875	0.412841796875	1	upper	amplitud.ttf
1088.466	n/a	WORD	544233	wordpools/wasnorm_wordpool.txt	LTP151	ltpFR	5	6	1	ISLAND	745	n/a	n/a	0	0.57763671875	0.412841796875	1	upper	amplitud.ttf
1092.466	n/a	WORD	546233	wordpools/wasnorm_wordpool.txt	LTP151	ltpFR	5	6	1	PROFESSOR	1131	n/a	n/a	1	0.57763671875	0.412841796875	1	upper	amplitud.ttf
1096.582	n/a	WORD	548291	wordpools/wasnorm_wordpool.txt	LTP151	ltpFR	5	6	1	UNIVERSITY	1541	n/a	n/a	0	0.57763671875	0.412841796875	1	upper	amplitud.ttf
1100.404	n/a	WORD	550202	wordpools/wasnorm_wordpool.txt	LTP151	ltpFR	5	6	1	COMPUTER	359	n/a	n/a	0	0.57763671875	0.412841796875	1	upper	amplitud.ttf
1104.486	n/a	WORD	552243	wordpools/wasnorm_wordpool.txt	LTP151	ltpFR	5	6	1	AUTHOR	61	n/a	n/a	1	0.57763671875	0.412841796875	1	upper	amplitud.ttf
1108.47	n/a	WORD	554235	wordpools/wasnorm_wordpool.txt	LTP151	ltpFR	5	6	1	EAGLE	512	n/a	n/a	1	0.57763671875	0.412841796875	1	upper	amplitud.ttf
1112.334	n/a	WORD	556167	wordpools/wasnorm_wordpool.txt	LTP151	ltpFR	5	6	1	VET	1560	n/a	n/a	1	0.57763671875	0.412841796875	1	upper	amplitud.ttf
1116.218	n/a	WORD	558109	wordpools/wasnorm_wordpool.txt	LTP151	ltpFR	5	6	1	MILDEW	893	n/a	n/a	0	0.57763671875	0.412841796875	1	upper	amplitud.ttf
1120.166	n/a	WORD	560083	wordpools/wasnorm_wordpool.txt	LTP151	ltpFR	5	6	1	APRON	35	n/a	n/a	0	0.57763671875	0.412841796875	1	upper	amplitud.ttf
1124.214	n/a	WORD	562107	wordpools/wasnorm_wordpool.txt	LTP151	ltpFR	5	6	1	PASSAGE	1019	n/a	n/a	0	0.57763671875	0.412841796875	1	upper	amplitud.ttf
1128.114	n/a	WORD	564057	wordpools/wasnorm_wordpool.txt	LTP151	ltpFR	5	6	1	SLACKS	1323	n/a	n/a	0	0.57763671875	0.412841796875	1	upper	amplitud.ttf
1132.236	n/a	WORD	566118	wordpools/wasnorm_wordpool.txt	LTP151	ltpFR	5	6	1	SHORTS	1293	n/a	n/a	0	0.57763671875	0.412841796875	1	upper	amplitud.ttf
1136.228	n/a	WORD	568114	wordpools/wasnorm_wordpool.txt	LTP151	ltpFR	5	6	1	KEYBOARD	774	n/a	n/a	0	0.57763671875	0.412841796875	1	upper	amplitud.ttf
1140.134	n/a	WORD	570067	wordpools/wasnorm_wordpool.txt	LTP151	ltpFR	5	6	1	FLANNEL	574	n/a	n/a	0	0.57763671875	0.412841796875	1	upper	amplitud.ttf
1144.334	n/a	WORD	572167	wordpools/wasnorm_wordpool.txt	LTP151	ltpFR	5	6	1	KANGAROO	768	n/a	n/a	1	0.57763671875	0.412841796875	1	upper	amplitud.ttf
1150.406	n/a	REC_START	575203	n/a	LTP151	ltpFR	5	6	n/a	n/a	n/a	n/a	n/a	n/a	n/a	n/a	n/a	n/a	n/a
1154.796	n/a	REC_WORD	577398	wordpools/wasnorm_wordpool.txt	LTP151	ltpFR	5	6	1	PROFESSOR	1131	n/a	n/a	1	n/a	n/a	n/a	n/a	n/a
1156.084	n/a	REC_WORD	578042	wordpools/wasnorm_wordpool.txt	LTP151	ltpFR	5	6	1	UNIVERSITY	1541	n/a	n/a	0	n/a	n/a	n/a	n/a	n/a
1160.318	n/a	REC_WORD	580159	wordpools/wasnorm_wordpool.txt	LTP151	ltpFR	5	6	1	EAGLE	512	n/a	n/a	1	n/a	n/a	n/a	n/a	n/a
1164.86	n/a	REC_WORD	582430	wordpools/wasnorm_wordpool.txt	LTP151	ltpFR	5	6	1	KANGAROO	768	n/a	n/a	1	n/a	n/a	n/a	n/a	n/a
1172.9	n/a	REC_WORD	586450	wordpools/wasnorm_wordpool.txt	LTP151	ltpFR	5	6	1	KEYBOARD	774	n/a	n/a	0	n/a	n/a	n/a	n/a	n/a
1175.52	n/a	REC_WORD	587760	wordpools/wasnorm_wordpool.txt	LTP151	ltpFR	5	6	1	SHORTS	1293	n/a	n/a	0	n/a	n/a	n/a	n/a	n/a
1176.658	n/a	REC_WORD	588329	wordpools/wasnorm_wordpool.txt	LTP151	ltpFR	5	6	1	SLACKS	1323	n/a	n/a	0	n/a	n/a	n/a	n/a	n/a
1183.308	n/a	REC_WORD	591654	wordpools/wasnorm_wordpool.txt	LTP151	ltpFR	5	6	1	FLANNEL	574	n/a	n/a	0	n/a	n/a	n/a	n/a	n/a
1195.352	n/a	REC_WORD	597676	wordpools/wasnorm_wordpool.txt	LTP151	ltpFR	5	6	1	AUTHOR	61	n/a	n/a	1	n/a	n/a	n/a	n/a	n/a
1197.262	n/a	REC_WORD	598631	wordpools/wasnorm_wordpool.txt	LTP151	ltpFR	5	6	1	COMPUTER	359	n/a	n/a	0	n/a	n/a	n/a	n/a	n/a
1234.964	n/a	WORD	617482	wordpools/wasnorm_wordpool.txt	LTP151	ltpFR	5	7	1	OUTDOORS	987	n/a	n/a	0	0.57763671875	0.412841796875	1	upper	amplitud.ttf
1239.048	n/a	WORD	619524	wordpools/wasnorm_wordpool.txt	LTP151	ltpFR	5	7	1	SALMON	1227	n/a	n/a	1	0.57763671875	0.412841796875	1	upper	amplitud.ttf
1243.22	n/a	WORD	621610	wordpools/wasnorm_wordpool.txt	LTP151	ltpFR	5	7	1	DESIGNER	451	n/a	n/a	1	0.57763671875	0.412841796875	1	upper	amplitud.ttf
1247.41	n/a	WORD	623705	wordpools/wasnorm_wordpool.txt	LTP151	ltpFR	5	7	1	MEDAL	885	n/a	n/a	0	0.57763671875	0.412841796875	1	upper	amplitud.ttf
1251.25	n/a	WORD	625625	wordpools/wasnorm_wordpool.txt	LTP151	ltpFR	5	7	0	MUSTARD	935	n/a	n/a	0	0.422607421875	0.5869140625	0	lower	zerothre.ttf
1255.142	n/a	WORD	627571	wordpools/wasnorm_wordpool.txt	LTP151	ltpFR	5	7	0	CHIP	303	n/a	n/a	0	0.422607421875	0.5869140625	0	lower	zerothre.ttf
1259.224	n/a	WORD	629612	wordpools/wasnorm_wordpool.txt	LTP151	ltpFR	5	7	0	TROUT	1511	n/a	n/a	0	0.422607421875	0.5869140625	0	lower	zerothre.ttf
1263.28	n/a	WORD	631640	wordpools/wasnorm_wordpool.txt	LTP151	ltpFR	5	7	1	BARRACUDA	90	n/a	n/a	1	0.57763671875	0.412841796875	1	upper	amplitud.ttf
1267.238	n/a	WORD	633619	wordpools/wasnorm_wordpool.txt	LTP151	ltpFR	5	7	1	MERMAID	887	n/a	n/a	1	0.57763671875	0.412841796875	1	upper	amplitud.ttf
1271.054	n/a	WORD	635527	wordpools/wasnorm_wordpool.txt	LTP151	ltpFR	5	7	1	DRESSER	496	n/a	n/a	0	0.57763671875	0.412841796875	1	upper	amplitud.ttf
1275.228	n/a	WORD	637614	wordpools/wasnorm_wordpool.txt	LTP151	ltpFR	5	7	1	HAIL	676	n/a	n/a	0	0.57763671875	0.412841796875	1	upper	amplitud.ttf
1279.442	n/a	WORD	639721	wordpools/wasnorm_wordpool.txt	LTP151	ltpFR	5	7	0	THIEF	1456	n/a	n/a	1	0.422607421875	0.5869140625	0	lower	zerothre.ttf
1283.532	n/a	WORD	641766	wordpools/wasnorm_wordpool.txt	LTP151	ltpFR	5	7	0	LAUNDRY	803	n/a	n/a	1	0.422607421875	0.5869140625	0	lower	zerothre.ttf
1287.74	n/a	WORD	643870	wordpools/wasnorm_wordpool.txt	LTP151	ltpFR	5	7	0	TORNADO	1485	n/a	n/a	1	0.422607421875	0.5869140625	0	lower	zerothre.ttf
1291.738	n/a	WORD	645869	wordpools/wasnorm_wordpool.txt	LTP151	ltpFR	5	7	0	MOAT	903	n/a	n/a	1	0.422607421875	0.5869140625	0	lower	zerothre.ttf
1295.672	n/a	WORD	647836	wordpools/wasnorm_wordpool.txt	LTP151	ltpFR	5	7	0	SHORE	1291	n/a	n/a	1	0.422607421875	0.5869140625	0	lower	zerothre.ttf
1301.612	n/a	REC_START	650806	n/a	LTP151	ltpFR	5	7	n/a	n/a	n/a	n/a	n/a	n/a	n/a	n/a	n/a	n/a	n/a
1304.754	n/a	REC_WORD	652377	wordpools/wasnorm_wordpool.txt	LTP151	ltpFR	5	7	1	OUTDOORS	987	n/a	n/a	0	n/a	n/a	n/a	n/a	n/a
1306.286	n/a	REC_WORD	653143	wordpools/wasnorm_wordpool.txt	LTP151	ltpFR	5	7	1	SALMON	1227	n/a	n/a	1	n/a	n/a	n/a	n/a	n/a
1310.282	n/a	REC_WORD	655141	wordpools/wasnorm_wordpool.txt	LTP151	ltpFR	5	7	1	BARRACUDA	90	n/a	n/a	1	n/a	n/a	n/a	n/a	n/a
1312.048	n/a	REC_WORD	656024	wordpools/wasnorm_wordpool.txt	LTP151	ltpFR	5	7	0	TROUT	1511	n/a	n/a	0	n/a	n/a	n/a	n/a	n/a
1319.108	n/a	REC_WORD	659554	wordpools/wasnorm_wordpool.txt	LTP151	ltpFR	5	7	1	HAIL	676	n/a	n/a	0	n/a	n/a	n/a	n/a	n/a
1320.454	n/a	REC_WORD	660227	wordpools/wasnorm_wordpool.txt	LTP151	ltpFR	5	7	0	THIEF	1456	n/a	n/a	1	n/a	n/a	n/a	n/a	n/a
1322.14	n/a	REC_WORD	661070	wordpools/wasnorm_wordpool.txt	LTP151	ltpFR	5	7	0	CHIP	303	n/a	n/a	0	n/a	n/a	n/a	n/a	n/a
1327.574	n/a	REC_WORD	663787	wordpools/wasnorm_wordpool.txt	LTP151	ltpFR	5	7	0	TORNADO	1485	n/a	n/a	1	n/a	n/a	n/a	n/a	n/a
1329.458	n/a	REC_WORD	664729	wordpools/wasnorm_wordpool.txt	LTP151	ltpFR	5	7	0	LAUNDRY	803	n/a	n/a	1	n/a	n/a	n/a	n/a	n/a
1340.186	n/a	REC_WORD	670093	wordpools/wasnorm_wordpool.txt	LTP151	ltpFR	5	7	1	MERMAID	887	n/a	n/a	1	n/a	n/a	n/a	n/a	n/a
1356.45	n/a	REC_WORD	678225	wordpools/wasnorm_wordpool.txt	LTP151	ltpFR	5	7	1	DRESSER	496	n/a	n/a	0	n/a	n/a	n/a	n/a	n/a
1380.788	n/a	WORD	690394	wordpools/wasnorm_wordpool.txt	LTP151	ltpFR	5	8	-1	SPOON	1357	n/a	n/a	-1	1.0	1.0	1	upper	Verdana.ttf
1384.644	n/a	WORD	692322	wordpools/wasnorm_wordpool.txt	LTP151	ltpFR	5	8	-1	BLADE	134	n/a	n/a	-1	1.0	1.0	1	upper	Verdana.ttf
1388.516	n/a	WORD	694258	wordpools/wasnorm_wordpool.txt	LTP151	ltpFR	5	8	-1	WICK	1607	n/a	n/a	-1	1.0	1.0	1	upper	Verdana.ttf
1392.642	n/a	WORD	696321	wordpools/wasnorm_wordpool.txt	LTP151	ltpFR	5	8	-1	STRAW	1390	n/a	n/a	-1	1.0	1.0	1	upper	Verdana.ttf
1396.724	n/a	WORD	698362	wordpools/wasnorm_wordpool.txt	LTP151	ltpFR	5	8	-1	MATCH	878	n/a	n/a	-1	1.0	1.0	1	upper	Verdana.ttf
1400.922	n/a	WORD	700461	wordpools/wasnorm_wordpool.txt	LTP151	ltpFR	5	8	-1	FLASHLIGHT	575	n/a	n/a	-1	1.0	1.0	1	upper	Verdana.ttf
1405.046	n/a	WORD	702523	wordpools/wasnorm_wordpool.txt	LTP151	ltpFR	5	8	-1	CALENDAR	221	n/a	n/a	-1	1.0	1.0	1	upper	Verdana.ttf
1409.044	n/a	WORD	704522	wordpools/wasnorm_wordpool.txt	LTP151	ltpFR	5	8	-1	MAT	877	n/a	n/a	-1	1.0	1.0	1	upper	Verdana.ttf
1412.936	n/a	WORD	706468	wordpools/wasnorm_wordpool.txt	LTP151	ltpFR	5	8	-1	CAP	236	n/a	n/a	-1	1.0	1.0	1	upper	Verdana.ttf
1416.926	n/a	WORD	708463	wordpools/wasnorm_wordpool.txt	LTP151	ltpFR	5	8	-1	NUT	965	n/a	n/a	-1	1.0	1.0	1	upper	Verdana.ttf
1421.058	n/a	WORD	710529	wordpools/wasnorm_wordpool.txt	LTP151	ltpFR	5	8	-1	SEED	1266	n/a	n/a	-1	1.0	1.0	1	upper	Verdana.ttf
1424.982	n/a	WORD	712491	wordpools/wasnorm_wordpool.txt	LTP151	ltpFR	5	8	-1	CHECKERS	285	n/a	n/a	-1	1.0	1.0	1	upper	Verdana.ttf
1428.914	n/a	WORD	714457	wordpools/wasnorm_wordpool.txt	LTP151	ltpFR	5	8	-1	HAMBURGER	679	n/a	n/a	-1	1.0	1.0	1	upper	Verdana.ttf
1433.088	n/a	WORD	716544	wordpools/wasnorm_wordpool.txt	LTP151	ltpFR	5	8	-1	BRICK	172	n/a	n/a	-1	1.0	1.0	1	upper	Verdana.ttf
1436.996	n/a	WORD	718498	wordpools/wasnorm_wordpool.txt	LTP151	ltpFR	5	8	-1	TORCH	1484	n/a	n/a	-1	1.0	1.0	1	upper	Verdana.ttf
1440.928	n/a	WORD	720464	wordpools/wasnorm_wordpool.txt	LTP151	ltpFR	5	8	-1	COMMITTEE	355	n/a	n/a	-1	1.0	1.0	1	upper	Verdana.ttf
1446.834	n/a	REC_START	723417	n/a	LTP151	ltpFR	5	8	n/a	n/a	n/a	n/a	n/a	n/a	n/a	n/a	n/a	n/a	n/a
1448.372	n/a	REC_WORD	724186	wordpools/wasnorm_wordpool.txt	LTP151	ltpFR	5	8	-1	SPOON	1357	n/a	n/a	-1	n/a	n/a	n/a	n/a	n/a
1449.668	n/a	REC_WORD	724834	wordpools/wasnorm_wordpool.txt	LTP151	ltpFR	5	8	-1	BLADE	134	n/a	n/a	-1	n/a	n/a	n/a	n/a	n/a
1450.716	n/a	REC_WORD	725358	wordpools/wasnorm_wordpool.txt	LTP151	ltpFR	5	8	-1	WICK	1607	n/a	n/a	-1	n/a	n/a	n/a	n/a	n/a
1452.348	n/a	REC_WORD	726174	wordpools/wasnorm_wordpool.txt	LTP151	ltpFR	5	8	-1	STRAW	1390	n/a	n/a	-1	n/a	n/a	n/a	n/a	n/a
1456.554	n/a	REC_WORD	728277	wordpools/wasnorm_wordpool.txt	LTP151	ltpFR	5	8	-1	MATCH	878	n/a	n/a	-1	n/a	n/a	n/a	n/a	n/a
1459.636	n/a	REC_WORD	729818	wordpools/wasnorm_wordpool.txt	LTP151	ltpFR	5	8	-1	FLASHLIGHT	575	n/a	n/a	-1	n/a	n/a	n/a	n/a	n/a
1461.842	n/a	REC_WORD	730921	wordpools/wasnorm_wordpool.txt	LTP151	ltpFR	5	8	-1	CALENDAR	221	n/a	n/a	-1	n/a	n/a	n/a	n/a	n/a
1463.872	n/a	REC_WORD	731936	wordpools/wasnorm_wordpool.txt	LTP151	ltpFR	5	8	-1	MAT	877	n/a	n/a	-1	n/a	n/a	n/a	n/a	n/a
1473.012	n/a	REC_WORD	736506	wordpools/wasnorm_wordpool.txt	LTP151	ltpFR	5	8	-1	TORCH	1484	n/a	n/a	-1	n/a	n/a	n/a	n/a	n/a
1474.268	n/a	REC_WORD	737134	wordpools/wasnorm_wordpool.txt	LTP151	ltpFR	5	8	-1	COMMITTEE	355	n/a	n/a	-1	n/a	n/a	n/a	n/a	n/a
1482.556	n/a	REC_WORD	741278	wordpools/wasnorm_wordpool.txt	LTP151	ltpFR	5	8	-1	BRICK	172	n/a	n/a	-1	n/a	n/a	n/a	n/a	n/a
1483.602	n/a	REC_WORD	741801	wordpools/wasnorm_wordpool.txt	LTP151	ltpFR	5	8	-1	HAMBURGER	679	n/a	n/a	-1	n/a	n/a	n/a	n/a	n/a
1487.744	n/a	REC_WORD	743872	wordpools/wasnorm_wordpool.txt	LTP151	ltpFR	5	8	-1	CHECKERS	285	n/a	n/a	-1	n/a	n/a	n/a	n/a	n/a
1489.35	n/a	REC_WORD	744675	wordpools/wasnorm_wordpool.txt	LTP151	ltpFR	5	8	-1	SEED	1266	n/a	n/a	-1	n/a	n/a	n/a	n/a	n/a
1490.434	n/a	REC_WORD	745217	wordpools/wasnorm_wordpool.txt	LTP151	ltpFR	5	8	-1	NUT	965	n/a	n/a	-1	n/a	n/a	n/a	n/a	n/a
1527.268	n/a	WORD	763634	wordpools/wasnorm_wordpool.txt	LTP151	ltpFR	5	9	0	SMOG	1330	n/a	n/a	0	0.422607421875	0.5869140625	0	lower	zerothre.ttf
1531.208	n/a	WORD	765604	wordpools/wasnorm_wordpool.txt	LTP151	ltpFR	5	9	0	FOE	587	n/a	n/a	1	0.422607421875	0.5869140625	0	lower	zerothre.ttf
1535.14	n/a	WORD	767570	wordpools/wasnorm_wordpool.txt	LTP151	ltpFR	5	9	0	PLATE	1086	n/a	n/a	0	0.422607421875	0.5869140625	0	lower	zerothre.ttf
1539.33	n/a	WORD	769665	wordpools/wasnorm_wordpool.txt	LTP151	ltpFR	5	9	0	GOO	648	n/a	n/a	0	0.422607421875	0.5869140625	0	lower	zerothre.ttf
1543.196	n/a	WORD	771598	wordpools/wasnorm_wordpool.txt	LTP151	ltpFR	5	9	1	TWEEZERS	1526	n/a	n/a	0	0.57763671875	0.412841796875	1	upper	amplitud.ttf
1547.394	n/a	WORD	773697	wordpools/wasnorm_wordpool.txt	LTP151	ltpFR	5	9	1	TRANSPLANT	1496	n/a	n/a	0	0.57763671875	0.412841796875	1	upper	amplitud.ttf
1551.46	n/a	WORD	775730	wordpools/wasnorm_wordpool.txt	LTP151	ltpFR	5	9	0	VENT	1556	n/a	n/a	1	0.422607421875	0.5869140625	0	lower	zerothre.ttf
1555.532	n/a	WORD	777766	wordpools/wasnorm_wordpool.txt	LTP151	ltpFR	5	9	0	EYE	545	n/a	n/a	0	0.422607421875	0.5869140625	0	lower	zerothre.ttf
1559.498	n/a	WORD	779749	wordpools/wasnorm_wordpool.txt	LTP151	ltpFR	5	9	0	MONK	910	n/a	n/a	1	0.422607421875	0.5869140625	0	lower	zerothre.ttf
1563.448	n/a	WORD	781724	wordpools/wasnorm_wordpool.txt	LTP151	ltpFR	5	9	0	DONKEY	484	n/a	n/a	1	0.422607421875	0.5869140625	0	lower	zerothre.ttf
1567.338	n/a	WORD	783669	wordpools/wasnorm_wordpool.txt	LTP151	ltpFR	5	9	1	RANCH	1166	n/a	n/a	0	0.57763671875	0.412841796875	1	upper	amplitud.ttf
1571.52	n/a	WORD	785760	wordpools/wasnorm_wordpool.txt	LTP151	ltpFR	5	9	1	PRINTER	1126	n/a	n/a	0	0.57763671875	0.412841796875	1	upper	amplitud.ttf
1575.476	n/a	WORD	787738	wordpools/wasnorm_wordpool.txt	LTP151	ltpFR	5	9	1	CHAIRPERSON	275	n/a	n/a	1	0.57763671875	0.412841796875	1	upper	amplitud.ttf
1579.418	n/a	WORD	789709	wordpools/wasnorm_wordpool.txt	LTP151	ltpFR	5	9	1	COMMANDER	354	n/a	n/a	1	0.57763671875	0.412841796875	1	upper	amplitud.ttf
1583.326	n/a	WORD	791663	wordpools/wasnorm_wordpool.txt	LTP151	ltpFR	5	9	1	ROOMMATE	1207	n/a	n/a	1	0.57763671875	0.412841796875	1	upper	amplitud.ttf
1587.134	n/a	WORD	793567	wordpools/wasnorm_wordpool.txt	LTP151	ltpFR	5	9	1	CUP	424	n/a	n/a	0	0.57763671875	0.412841796875	1	upper	amplitud.ttf
1592.924	n/a	REC_START	796462	n/a	LTP151	ltpFR	5	9	n/a	n/a	n/a	n/a	n/a	n/a	n/a	n/a	n/a	n/a	n/a
1602.478	n/a	REC_WORD	801239	wordpools/wasnorm_wordpool.txt	LTP151	ltpFR	5	9	0	MONK	910	n/a	n/a	1	n/a	n/a	n/a	n/a	n/a
1604.434	n/a	REC_WORD	802217	wordpools/wasnorm_wordpool.txt	LTP151	ltpFR	5	9	0	DONKEY	484	n/a	n/a	1	n/a	n/a	n/a	n/a	n/a
1607.406	n/a	REC_WORD	803703	wordpools/wasnorm_wordpool.txt	LTP151	ltpFR	5	9	0	VENT	1556	n/a	n/a	1	n/a	n/a	n/a	n/a	n/a
1608.694	n/a	REC_WORD	804347	wordpools/wasnorm_wordpool.txt	LTP151	ltpFR	5	9	0	EYE	545	n/a	n/a	0	n/a	n/a	n/a	n/a	n/a
1611.118	n/a	REC_WORD	805559	wordpools/wasnorm_wordpool.txt	LTP151	ltpFR	5	9	1	TRANSPLANT	1496	n/a	n/a	0	n/a	n/a	n/a	n/a	n/a
1614.266	n/a	REC_WORD	807133	wordpools/wasnorm_wordpool.txt	LTP151	ltpFR	5	9	1	CHAIRPERSON	275	n/a	n/a	1	n/a	n/a	n/a	n/a	n/a
1616.43	n/a	REC_WORD	808215	wordpools/wasnorm_wordpool.txt	LTP151	ltpFR	5	9	1	COMMANDER	354	n/a	n/a	1	n/a	n/a	n/a	n/a	n/a
1617.304	n/a	REC_WORD	808652	wordpools/wasnorm_wordpool.txt	LTP151	ltpFR	5	9	1	ROOMMATE	1207	n/a	n/a	1	n/a	n/a	n/a	n/a	n/a
1618.286	n/a	REC_WORD	809143	wordpools/wasnorm_wordpool.txt	LTP151	ltpFR	5	9	1	CUP	424	n/a	n/a	0	n/a	n/a	n/a	n/a	n/a
1632.8	n/a	REC_WORD	816400	wordpools/wasnorm_wordpool.txt	LTP151	ltpFR	5	9	0	SMOG	1330	n/a	n/a	0	n/a	n/a	n/a	n/a	n/a
1648.28	n/a	REC_WORD	824140	wordpools/wasnorm_wordpool.txt	LTP151	ltpFR	5	9	0	FOE	587	n/a	n/a	1	n/a	n/a	n/a	n/a	n/a
1659.226	n/a	REC_WORD	829613	wordpools/wasnorm_wordpool.txt	LTP151	ltpFR	5	9	1	TWEEZERS	1526	n/a	n/a	0	n/a	n/a	n/a	n/a	n/a
1660.324	n/a	REC_WORD	830162	wordpools/wasnorm_wordpool.txt	LTP151	ltpFR	5	9	0	GOO	648	n/a	n/a	0	n/a	n/a	n/a	n/a	n/a
1665.458	n/a	REC_WORD	832729	wordpools/wasnorm_wordpool.txt	LTP151	ltpFR	5	9	0	PLATE	1086	n/a	n/a	0	n/a	n/a	n/a	n/a	n/a
1672.182	n/a	WORD	836091	wordpools/wasnorm_wordpool.txt	LTP151	ltpFR	5	10	-1	GUM	672	n/a	n/a	-1	1.0	1.0	1	upper	Verdana.ttf
1676.28	n/a	WORD	838140	wordpools/wasnorm_wordpool.txt	LTP151	ltpFR	5	10	-1	HUT	729	n/a	n/a	-1	1.0	1.0	1	upper	Verdana.ttf
1680.222	n/a	WORD	840111	wordpools/wasnorm_wordpool.txt	LTP151	ltpFR	5	10	-1	CHAIR	274	n/a	n/a	-1	1.0	1.0	1	upper	Verdana.ttf
1684.246	n/a	WORD	842123	wordpools/wasnorm_wordpool.txt	LTP151	ltpFR	5	10	-1	SEAT	1264	n/a	n/a	-1	1.0	1.0	1	upper	Verdana.ttf
1688.392	n/a	WORD	844196	wordpools/wasnorm_wordpool.txt	LTP151	ltpFR	5	10	-1	PASSENGER	1020	n/a	n/a	-1	1.0	1.0	1	upper	Verdana.ttf
1692.226	n/a	WORD	846113	wordpools/wasnorm_wordpool.txt	LTP151	ltpFR	5	10	-1	DENTIST	447	n/a	n/a	-1	1.0	1.0	1	upper	Verdana.ttf
1696.158	n/a	WORD	848079	wordpools/wasnorm_wordpool.txt	LTP151	ltpFR	5	10	-1	MEDICINE	886	n/a	n/a	-1	1.0	1.0	1	upper	Verdana.ttf
1700.348	n/a	WORD	850174	wordpools/wasnorm_wordpool.txt	LTP151	ltpFR	5	10	-1	MACHINE	852	n/a	n/a	-1	1.0	1.0	1	upper	Verdana.ttf
1704.272	n/a	WORD	852136	wordpools/wasnorm_wordpool.txt	LTP151	ltpFR	5	10	-1	PILOT	1070	n/a	n/a	-1	1.0	1.0	1	upper	Verdana.ttf
1708.304	n/a	WORD	854152	wordpools/wasnorm_wordpool.txt	LTP151	ltpFR	5	10	-1	CAT	257	n/a	n/a	-1	1.0	1.0	1	upper	Verdana.ttf
1712.476	n/a	WORD	856238	wordpools/wasnorm_wordpool.txt	LTP151	ltpFR	5	10	-1	SCOTCH	1251	n/a	n/a	-1	1.0	1.0	1	upper	Verdana.ttf
1716.584	n/a	WORD	858292	wordpools/wasnorm_wordpool.txt	LTP151	ltpFR	5	10	-1	BOTTLE	153	n/a	n/a	-1	1.0	1.0	1	upper	Verdana.ttf
1720.65	n/a	WORD	860325	wordpools/wasnorm_wordpool.txt	LTP151	ltpFR	5	10	-1	RAM	1165	n/a	n/a	-1	1.0	1.0	1	upper	Verdana.ttf
1724.758	n/a	WORD	862379	wordpools/wasnorm_wordpool.txt	LTP151	ltpFR	5	10	-1	STAPLER	1372	n/a	n/a	-1	1.0	1.0	1	upper	Verdana.ttf
1728.572	n/a	WORD	864286	wordpools/wasnorm_wordpool.txt	LTP151	ltpFR	5	10	-1	BARK	87	n/a	n/a	-1	1.0	1.0	1	upper	Verdana.ttf
1732.748	n/a	WORD	866374	wordpools/wasnorm_wordpool.txt	LTP151	ltpFR	5	10	-1	BUBBLE	183	n/a	n/a	-1	1.0	1.0	1	upper	Verdana.ttf
1738.812	n/a	REC_START	869406	n/a	LTP151	ltpFR	5	10	n/a	n/a	n/a	n/a	n/a	n/a	n/a	n/a	n/a	n/a	n/a
1742.538	n/a	REC_WORD	871269	wordpools/wasnorm_wordpool.txt	LTP151	ltpFR	5	10	-1	BARK	87	n/a	n/a	-1	n/a	n/a	n/a	n/a	n/a
1743.432	n/a	REC_WORD	871716	wordpools/wasnorm_wordpool.txt	LTP151	ltpFR	5	10	-1	BUBBLE	183	n/a	n/a	-1	n/a	n/a	n/a	n/a	n/a
1744.42	n/a	REC_WORD	872210	wordpools/wasnorm_wordpool.txt	LTP151	ltpFR	5	10	-1	STAPLER	1372	n/a	n/a	-1	n/a	n/a	n/a	n/a	n/a
1746.286	n/a	REC_WORD	873143	wordpools/wasnorm_wordpool.txt	LTP151	ltpFR	5	10	-1	RAM	1165	n/a	n/a	-1	n/a	n/a	n/a	n/a	n/a
1747.992	n/a	REC_WORD	873996	wordpools/wasnorm_wordpool.txt	LTP151	ltpFR	5	10	-1	BOTTLE	153	n/a	n/a	-1	n/a	n/a	n/a	n/a	n/a
1748.674	n/a	REC_WORD	874337	wordpools/wasnorm_wordpool.txt	LTP151	ltpFR	5	10	-1	SCOTCH	1251	n/a	n/a	-1	n/a	n/a	n/a	n/a	n/a
1750.306	n/a	REC_WORD	875153	wordpools/wasnorm_wordpool.txt	LTP151	ltpFR	5	10	-1	CAT	257	n/a	n/a	-1	n/a	n/a	n/a	n/a	n/a
1751.66	n/a	REC_WORD	875830	wordpools/wasnorm_wordpool.txt	LTP151	ltpFR	5	10	-1	PILOT	1070	n/a	n/a	-1	n/a	n/a	n/a	n/a	n/a
1753.116	n/a	REC_WORD	876558	wordpools/wasnorm_wordpool.txt	LTP151	ltpFR	5	10	-1	MACHINE	852	n/a	n/a	-1	n/a	n/a	n/a	n/a	n/a
1765.264	n/a	REC_WORD	882632	wordpools/wasnorm_wordpool.txt	LTP151	ltpFR	5	10	-1	HUT	729	n/a	n/a	-1	n/a	n/a	n/a	n/a	n/a
1770.792	n/a	REC_WORD	885396	wordpools/wasnorm_wordpool.txt	LTP151	ltpFR	5	10	-1	CHAIR	274	n/a	n/a	-1	n/a	n/a	n/a	n/a	n/a
1771.788	n/a	REC_WORD	885894	wordpools/wasnorm_wordpool.txt	LTP151	ltpFR	5	10	-1	SEAT	1264	n/a	n/a	-1	n/a	n/a	n/a	n/a	n/a
1773.176	n/a	REC_WORD	886588	wordpools/wasnorm_wordpool.txt	LTP151	ltpFR	5	10	-1	PASSENGER	1020	n/a	n/a	-1	n/a	n/a	n/a	n/a	n/a
1777.466	n/a	REC_WORD	888733	wordpools/wasnorm_wordpool.txt	LTP151	ltpFR	5	10	-1	GUM	672	n/a	n/a	-1	n/a	n/a	n/a	n/a	n/a
1793.86	n/a	REC_WORD	896930	wordpools/wasnorm_wordpool.txt	LTP151	ltpFR	5	10	-1	BUBBLE	183	n/a	n/a	-1	n/a	n/a	n/a	n/a	n/a
1817.696	n/a	WORD	908848	wordpools/wasnorm_wordpool.txt	LTP151	ltpFR	5	11	0	SCISSORS	1250	n/a	n/a	0	0.422607421875	0.5869140625	0	lower	zerothre.ttf
1821.844	n/a	WORD	910922	wordpools/wasnorm_wordpool.txt	LTP151	ltpFR	5	11	0	BUILDER	190	n/a	n/a	1	0.422607421875	0.5869140625	0	lower	zerothre.ttf
1825.702	n/a	WORD	912851	wordpools/wasnorm_wordpool.txt	LTP151	ltpFR	5	11	0	WORKER	1621	n/a	n/a	1	0.422607421875	0.5869140625	0	lower	zerothre.ttf
1829.742	n/a	WORD	914871	wordpools/wasnorm_wordpool.txt	LTP151	ltpFR	5	11	0	POWDER	1117	n/a	n/a	0	0.422607421875	0.5869140625	0	lower	zerothre.ttf
1833.692	n/a	WORD	916846	wordpools/wasnorm_wordpool.txt	LTP151	ltpFR	5	11	0	SNORKEL	1336	n/a	n/a	0	0.422607421875	0.5869140625	0	lower	zerothre.ttf
1837.624	n/a	WORD	918812	wordpools/wasnorm_wordpool.txt	LTP151	ltpFR	5	11	0	PRAIRIE	1118	n/a	n/a	1	0.422607421875	0.5869140625	0	lower	zerothre.ttf
1841.454	n/a	WORD	920727	wordpools/wasnorm_wordpool.txt	LTP151	ltpFR	5	11	0	PAW	1029	n/a	n/a	0	0.422607421875	0.5869140625	0	lower	zerothre.ttf
1845.336	n/a	WORD	922668	wordpools/wasnorm_wordpool.txt	LTP151	ltpFR	5	11	0	TACK	1428	n/a	n/a	0	0.422607421875	0.5869140625	0	lower	zerothre.ttf
1849.41	n/a	WORD	924705	wordpools/wasnorm_wordpool.txt	LTP151	ltpFR	5	11	0	THUMB	1462	n/a	n/a	0	0.422607421875	0.5869140625	0	lower	zerothre.ttf
1853.46	n/a	WORD	926730	wordpools/wasnorm_wordpool.txt	LTP151	ltpFR	5	11	0	PUBLISHER	1137	n/a	n/a	1	0.422607421875	0.5869140625	0	lower	zerothre.ttf
1857.484	n/a	WORD	928742	wordpools/wasnorm_wordpool.txt	LTP151	ltpFR	5	11	0	LONDON	843	n/a	n/a	1	0.422607421875	0.5869140625	0	lower	zerothre.ttf
1861.65	n/a	WORD	930825	wordpools/wasnorm_wordpool.txt	LTP151	ltpFR	5	11	0	SQUID	1361	n/a	n/a	1	0.422607421875	0.5869140625	0	lower	zerothre.ttf
1865.698	n/a	WORD	932849	wordpools/wasnorm_wordpool.txt	LTP151	ltpFR	5	11	0	KETTLE	772	n/a	n/a	0	0.422607421875	0.5869140625	0	lower	zerothre.ttf
1869.68	n/a	WORD	934840	wordpools/wasnorm_wordpool.txt	LTP151	ltpFR	5	11	0	CLIPPERS	324	n/a	n/a	0	0.422607421875	0.5869140625	0	lower	zerothre.ttf
1873.704	n/a	WORD	936852	wordpools/wasnorm_wordpool.txt	LTP151	ltpFR	5	11	0	DIAPER	459	n/a	n/a	0	0.422607421875	0.5869140625	0	lower	zerothre.ttf
1877.686	n/a	WORD	938843	wordpools/wasnorm_wordpool.txt	LTP151	ltpFR	5	11	0	DEPUTY	450	n/a	n/a	1	0.422607421875	0.5869140625	0	lower	zerothre.ttf
1883.534	n/a	REC_START	941767	n/a	LTP151	ltpFR	5	11	n/a	n/a	n/a	n/a	n/a	n/a	n/a	n/a	n/a	n/a	n/a
1890.858	n/a	REC_WORD	945429	wordpools/wasnorm_wordpool.txt	LTP151	ltpFR	5	11	0	PUBLISHER	1137	n/a	n/a	1	n/a	n/a	n/a	n/a	n/a
1892.29	n/a	REC_WORD	946145	wordpools/wasnorm_wordpool.txt	LTP151	ltpFR	5	11	0	LONDON	843	n/a	n/a	1	n/a	n/a	n/a	n/a	n/a
1893.146	n/a	REC_WORD	946573	wordpools/wasnorm_wordpool.txt	LTP151	ltpFR	5	11	0	SQUID	1361	n/a	n/a	1	n/a	n/a	n/a	n/a	n/a
1895.268	n/a	REC_WORD	947634	wordpools/wasnorm_wordpool.txt	LTP151	ltpFR	5	11	0	KETTLE	772	n/a	n/a	0	n/a	n/a	n/a	n/a	n/a
1901.424	n/a	REC_WORD	950712	wordpools/wasnorm_wordpool.txt	LTP151	ltpFR	5	11	0	CLIPPERS	324	n/a	n/a	0	n/a	n/a	n/a	n/a	n/a
1903.37	n/a	REC_WORD	951685	wordpools/wasnorm_wordpool.txt	LTP151	ltpFR	5	11	0	DIAPER	459	n/a	n/a	0	n/a	n/a	n/a	n/a	n/a
1904.538	n/a	REC_WORD	952269	wordpools/wasnorm_wordpool.txt	LTP151	ltpFR	5	11	0	DEPUTY	450	n/a	n/a	1	n/a	n/a	n/a	n/a	n/a
1912.0	n/a	REC_WORD	956000	wordpools/wasnorm_wordpool.txt	LTP151	ltpFR	5	11	0	SCISSORS	1250	n/a	n/a	0	n/a	n/a	n/a	n/a	n/a
1915.728	n/a	REC_WORD	957864	wordpools/wasnorm_wordpool.txt	LTP151	ltpFR	5	11	0	BUILDER	190	n/a	n/a	1	n/a	n/a	n/a	n/a	n/a
1949.358	n/a	REC_WORD	974679	wordpools/wasnorm_wordpool.txt	LTP151	ltpFR	5	11	0	WORKER	1621	n/a	n/a	1	n/a	n/a	n/a	n/a	n/a
1963.668	n/a	WORD	981834	wordpools/wasnorm_wordpool.txt	LTP151	ltpFR	5	12	0	SALT	1229	n/a	n/a	0	0.422607421875	0.5869140625	0	lower	zerothre.ttf
1967.76	n/a	WORD	983880	wordpools/wasnorm_wordpool.txt	LTP151	ltpFR	5	12	0	BALLERINA	74	n/a	n/a	1	0.422607421875	0.5869140625	0	lower	zerothre.ttf
1971.924	n/a	WORD	985962	wordpools/wasnorm_wordpool.txt	LTP151	ltpFR	5	12	0	CHIMPANZEE	302	n/a	n/a	1	0.422607421875	0.5869140625	0	lower	zerothre.ttf
1975.822	n/a	WORD	987911	wordpools/wasnorm_wordpool.txt	LTP151	ltpFR	5	12	0	JUNGLE	764	n/a	n/a	1	0.422607421875	0.5869140625	0	lower	zerothre.ttf
1979.79	n/a	WORD	989895	wordpools/wasnorm_wordpool.txt	LTP151	ltpFR	5	12	0	HIP	710	n/a	n/a	1	0.422607421875	0.5869140625	0	lower	zerothre.ttf
1983.712	n/a	WORD	991856	wordpools/wasnorm_wordpool.txt	LTP151	ltpFR	5	12	0	FEATHER	557	n/a	n/a	0	0.422607421875	0.5869140625	0	lower	zerothre.ttf
1987.678	n/a	WORD	993839	wordpools/wasnorm_wordpool.txt	LTP151	ltpFR	5	12	0	SEAL	1262	n/a	n/a	1	0.422607421875	0.5869140625	0	lower	zerothre.ttf
1991.668	n/a	WORD	995834	wordpools/wasnorm_wordpool.txt	LTP151	ltpFR	5	12	0	SUBMARINE	1398	n/a	n/a	1	0.422607421875	0.5869140625	0	lower	zerothre.ttf
1995.54	n/a	WORD	997770	wordpools/wasnorm_wordpool.txt	LTP151	ltpFR	5	12	0	DOVE	491	n/a	n/a	0	0.422607421875	0.5869140625	0	lower	zerothre.ttf
1999.374	n/a	WORD	999687	wordpools/wasnorm_wordpool.txt	LTP151	ltpFR	5	12	0	CHEESE	289	n/a	n/a	0	0.422607421875	0.5869140625	0	lower	zerothre.ttf
2003.232	n/a	WORD	1001616	wordpools/wasnorm_wordpool.txt	LTP151	ltpFR	5	12	0	COMPANION	357	n/a	n/a	1	0.422607421875	0.5869140625	0	lower	zerothre.ttf
2007.312	n/a	WORD	1003656	wordpools/wasnorm_wordpool.txt	LTP151	ltpFR	5	12	0	ENGINEER	536	n/a	n/a	1	0.422607421875	0.5869140625	0	lower	zerothre.ttf
2011.146	n/a	WORD	1005573	wordpools/wasnorm_wordpool.txt	LTP151	ltpFR	5	12	0	CRAYON	401	n/a	n/a	0	0.422607421875	0.5869140625	0	lower	zerothre.ttf
2014.97	n/a	WORD	1007485	wordpools/wasnorm_wordpool.txt	LTP151	ltpFR	5	12	0	MAGAZINE	853	n/a	n/a	1	0.422607421875	0.5869140625	0	lower	zerothre.ttf
2019.002	n/a	WORD	1009501	wordpools/wasnorm_wordpool.txt	LTP151	ltpFR	5	12	0	LIBRARY	816	n/a	n/a	1	0.422607421875	0.5869140625	0	lower	zerothre.ttf
2022.842	n/a	WORD	1011421	wordpools/wasnorm_wordpool.txt	LTP151	ltpFR	5	12	0	HOOP	716	n/a	n/a	1	0.422607421875	0.5869140625	0	lower	zerothre.ttf
2028.9	n/a	REC_START	1014450	n/a	LTP151	ltpFR	5	12	n/a	n/a	n/a	n/a	n/a	n/a	n/a	n/a	n/a	n/a	n/a
2030.556	n/a	REC_WORD	1015278	wordpools/wasnorm_wordpool.txt	LTP151	ltpFR	5	12	0	SALT	1229	n/a	n/a	0	n/a	n/a	n/a	n/a	n/a
2031.812	n/a	REC_WORD	1015906	wordpools/wasnorm_wordpool.txt	LTP151	ltpFR	5	12	0	BALLERINA	74	n/a	n/a	1	n/a	n/a	n/a	n/a	n/a
2033.554	n/a	REC_WORD	1016777	wordpools/wasnorm_wordpool.txt	LTP151	ltpFR	5	12	0	CHIMPANZEE	302	n/a	n/a	1	n/a	n/a	n/a	n/a	n/a
2048.854	n/a	REC_WORD	1024427	wordpools/wasnorm_wordpool.txt	LTP151	ltpFR	5	12	0	SEAL	1262	n/a	n/a	1	n/a	n/a	n/a	n/a	n/a
2049.962	n/a	REC_WORD	1024981	wordpools/wasnorm_wordpool.txt	LTP151	ltpFR	5	12	0	SUBMARINE	1398	n/a	n/a	1	n/a	n/a	n/a	n/a	n/a
2061.182	n/a	REC_WORD	1030591	wordpools/wasnorm_wordpool.txt	LTP151	ltpFR	5	12	0	MAGAZINE	853	n/a	n/a	1	n/a	n/a	n/a	n/a	n/a
2062.34	n/a	REC_WORD	1031170	wordpools/wasnorm_wordpool.txt	LTP151	ltpFR	5	12	0	LIBRARY	816	n/a	n/a	1	n/a	n/a	n/a	n/a	n/a
2066.826	n/a	REC_WORD	1033413	wordpools/wasnorm_wordpool.txt	LTP151	ltpFR	5	12	0	DOVE	491	n/a	n/a	0	n/a	n/a	n/a	n/a	n/a
2104.484	n/a	REST_REWET	1052242	n/a	LTP151	ltpFR	5	12	n/a	n/a	n/a	n/a	n/a	n/a	n/a	n/a	n/a	n/a	n/a
2393.746	n/a	WORD	1196873	wordpools/wasnorm_wordpool.txt	LTP151	ltpFR	5	13	1	SENATE	1267	n/a	n/a	1	0.57763671875	0.412841796875	1	upper	amplitud.ttf
2397.578	n/a	WORD	1198789	wordpools/wasnorm_wordpool.txt	LTP151	ltpFR	5	13	1	BUREAU	199	n/a	n/a	0	0.57763671875	0.412841796875	1	upper	amplitud.ttf
2401.56	n/a	WORD	1200780	wordpools/wasnorm_wordpool.txt	LTP151	ltpFR	5	13	1	MOSQUITO	917	n/a	n/a	1	0.57763671875	0.412841796875	1	upper	amplitud.ttf
2405.66	n/a	WORD	1202830	wordpools/wasnorm_wordpool.txt	LTP151	ltpFR	5	13	1	MAID	856	n/a	n/a	1	0.57763671875	0.412841796875	1	upper	amplitud.ttf
2409.742	n/a	WORD	1204871	wordpools/wasnorm_wordpool.txt	LTP151	ltpFR	5	13	1	SERVANT	1271	n/a	n/a	1	0.57763671875	0.412841796875	1	upper	amplitud.ttf
2413.84	n/a	WORD	1206920	wordpools/wasnorm_wordpool.txt	LTP151	ltpFR	5	13	1	POISON	1096	n/a	n/a	0	0.57763671875	0.412841796875	1	upper	amplitud.ttf
2417.872	n/a	WORD	1208936	wordpools/wasnorm_wordpool.txt	LTP151	ltpFR	5	13	1	COSTUME	383	n/a	n/a	0	0.57763671875	0.412841796875	1	upper	amplitud.ttf
2421.738	n/a	WORD	1210869	wordpools/wasnorm_wordpool.txt	LTP151	ltpFR	5	13	1	CAKE	219	n/a	n/a	0	0.57763671875	0.412841796875	1	upper	amplitud.ttf
2425.56	n/a	WORD	1212780	wordpools/wasnorm_wordpool.txt	LTP151	ltpFR	5	13	1	SUGAR	1401	n/a	n/a	0	0.57763671875	0.412841796875	1	upper	amplitud.ttf
2429.434	n/a	WORD	1214717	wordpools/wasnorm_wordpool.txt	LTP151	ltpFR	5	13	1	INN	739	n/a	n/a	0	0.57763671875	0.412841796875	1	upper	amplitud.ttf
2433.634	n/a	WORD	1216817	wordpools/wasnorm_wordpool.txt	LTP151	ltpFR	5	13	1	KING	777	n/a	n/a	1	0.57763671875	0.412841796875	1	upper	amplitud.ttf
2437.758	n/a	WORD	1218879	wordpools/wasnorm_wordpool.txt	LTP151	ltpFR	5	13	1	SPICE	1350	n/a	n/a	0	0.57763671875	0.412841796875	1	upper	amplitud.ttf
2441.622	n/a	WORD	1220811	wordpools/wasnorm_wordpool.txt	LTP151	ltpFR	5	13	1	LITTER	832	n/a	n/a	0	0.57763671875	0.412841796875	1	upper	amplitud.ttf
2445.68	n/a	WORD	1222840	wordpools/wasnorm_wordpool.txt	LTP151	ltpFR	5	13	1	PRINCE	1124	n/a	n/a	1	0.57763671875	0.412841796875	1	upper	amplitud.ttf
2449.63	n/a	WORD	1224815	wordpools/wasnorm_wordpool.txt	LTP151	ltpFR	5	13	1	ATHLETE	52	n/a	n/a	1	0.57763671875	0.412841796875	1	upper	amplitud.ttf
2453.802	n/a	WORD	1226901	wordpools/wasnorm_wordpool.txt	LTP151	ltpFR	5	13	1	FRIES	607	n/a	n/a	0	0.57763671875	0.412841796875	1	upper	amplitud.ttf
2459.728	n/a	REC_START	1229864	n/a	LTP151	ltpFR	5	13	n/a	n/a	n/a	n/a	n/a	n/a	n/a	n/a	n/a	n/a	n/a
2460.95	n/a	REC_WORD	1230475	wordpools/wasnorm_wordpool.txt	LTP151	ltpFR	5	13	1	SENATE	1267	n/a	n/a	1	n/a	n/a	n/a	n/a	n/a
2462.452	n/a	REC_WORD	1231226	wordpools/wasnorm_wordpool.txt	LTP151	ltpFR	5	13	1	BUREAU	199	n/a	n/a	0	n/a	n/a	n/a	n/a	n/a
2463.268	n/a	REC_WORD	1231634	wordpools/wasnorm_wordpool.txt	LTP151	ltpFR	5	13	n/a	DOUGH	489	n/a	n/a	n/a	n/a	n/a	n/a	n/a	n/a
2465.046	n/a	REC_WORD	1232523	wordpools/wasnorm_wordpool.txt	LTP151	ltpFR	5	13	1	MAID	856	n/a	n/a	1	n/a	n/a	n/a	n/a	n/a
2466.656	n/a	REC_WORD	1233328	wordpools/wasnorm_wordpool.txt	LTP151	ltpFR	5	13	1	SERVANT	1271	n/a	n/a	1	n/a	n/a	n/a	n/a	n/a
2469.544	n/a	REC_WORD	1234772	wordpools/wasnorm_wordpool.txt	LTP151	ltpFR	5	13	1	CAKE	219	n/a	n/a	0	n/a	n/a	n/a	n/a	n/a
2471.406	n/a	REC_WORD	1235703	wordpools/wasnorm_wordpool.txt	LTP151	ltpFR	5	13	1	SUGAR	1401	n/a	n/a	0	n/a	n/a	n/a	n/a	n/a
2474.08	n/a	REC_WORD	1237040	wordpools/wasnorm_wordpool.txt	LTP151	ltpFR	5	13	1	KING	777	n/a	n/a	1	n/a	n/a	n/a	n/a	n/a
2477.672	n/a	REC_WORD	1238836	wordpools/wasnorm_wordpool.txt	LTP151	ltpFR	5	13	n/a	PURSE	1145	n/a	n/a	n/a	n/a	n/a	n/a	n/a	n/a
2479.04	n/a	REC_WORD	1239520	wordpools/wasnorm_wordpool.txt	LTP151	ltpFR	5	13	1	ATHLETE	52	n/a	n/a	1	n/a	n/a	n/a	n/a	n/a
2481.822	n/a	REC_WORD	1240911	wordpools/wasnorm_wordpool.txt	LTP151	ltpFR	5	13	1	FRIES	607	n/a	n/a	0	n/a	n/a	n/a	n/a	n/a
2498.442	n/a	REC_WORD	1249221	wordpools/wasnorm_wordpool.txt	LTP151	ltpFR	5	13	1	INN	739	n/a	n/a	0	n/a	n/a	n/a	n/a	n/a
2501.564	n/a	REC_WORD	1250782	wordpools/wasnorm_wordpool.txt	LTP151	ltpFR	5	13	1	SPICE	1350	n/a	n/a	0	n/a	n/a	n/a	n/a	n/a
2508.862	n/a	REC_WORD	1254431	wordpools/wasnorm_wordpool.txt	LTP151	ltpFR	5	13	1	LITTER	832	n/a	n/a	0	n/a	n/a	n/a	n/a	n/a
2538.97	n/a	WORD	1269485	wordpools/wasnorm_wordpool.txt	LTP151	ltpFR	5	14	0	WHALE	1601	n/a	n/a	1	0.422607421875	0.5869140625	0	lower	zerothre.ttf
2543.084	n/a	WORD	1271542	wordpools/wasnorm_wordpool.txt	LTP151	ltpFR	5	14	0	LEVER	815	n/a	n/a	0	0.422607421875	0.5869140625	0	lower	zerothre.ttf
2547.274	n/a	WORD	1273637	wordpools/wasnorm_wordpool.txt	LTP151	ltpFR	5	14	0	AFRICA	9	n/a	n/a	1	0.422607421875	0.5869140625	0	lower	zerothre.ttf
2551.448	n/a	WORD	1275724	wordpools/wasnorm_wordpool.txt	LTP151	ltpFR	5	14	0	ELEPHANT	523	n/a	n/a	1	0.422607421875	0.5869140625	0	lower	zerothre.ttf
2555.48	n/a	WORD	1277740	wordpools/wasnorm_wordpool.txt	LTP151	ltpFR	5	14	0	PLANT	1083	n/a	n/a	1	0.422607421875	0.5869140625	0	lower	zerothre.ttf
2559.362	n/a	WORD	1279681	wordpools/wasnorm_wordpool.txt	LTP151	ltpFR	5	14	0	BLOSSOM	138	n/a	n/a	0	0.422607421875	0.5869140625	0	lower	zerothre.ttf
2563.368	n/a	WORD	1281684	wordpools/wasnorm_wordpool.txt	LTP151	ltpFR	5	14	0	SAP	1233	n/a	n/a	0	0.422607421875	0.5869140625	0	lower	zerothre.ttf
2567.5	n/a	WORD	1283750	wordpools/wasnorm_wordpool.txt	LTP151	ltpFR	5	14	0	BEAKER	104	n/a	n/a	0	0.422607421875	0.5869140625	0	lower	zerothre.ttf
2571.366	n/a	WORD	1285683	wordpools/wasnorm_wordpool.txt	LTP151	ltpFR	5	14	0	COMEDIAN	352	n/a	n/a	1	0.422607421875	0.5869140625	0	lower	zerothre.ttf
2575.348	n/a	WORD	1287674	wordpools/wasnorm_wordpool.txt	LTP151	ltpFR	5	14	0	BOULDER	155	n/a	n/a	1	0.422607421875	0.5869140625	0	lower	zerothre.ttf
2579.322	n/a	WORD	1289661	wordpools/wasnorm_wordpool.txt	LTP151	ltpFR	5	14	0	PIER	1063	n/a	n/a	1	0.422607421875	0.5869140625	0	lower	zerothre.ttf
2583.198	n/a	WORD	1291599	wordpools/wasnorm_wordpool.txt	LTP151	ltpFR	5	14	0	SAW	1239	n/a	n/a	1	0.422607421875	0.5869140625	0	lower	zerothre.ttf
2587.394	n/a	WORD	1293697	wordpools/wasnorm_wordpool.txt	LTP151	ltpFR	5	14	0	SHARK	1275	n/a	n/a	1	0.422607421875	0.5869140625	0	lower	zerothre.ttf
2591.594	n/a	WORD	1295797	wordpools/wasnorm_wordpool.txt	LTP151	ltpFR	5	14	0	PORT	1110	n/a	n/a	1	0.422607421875	0.5869140625	0	lower	zerothre.ttf
2595.518	n/a	WORD	1297759	wordpools/wasnorm_wordpool.txt	LTP151	ltpFR	5	14	0	CHICK	296	n/a	n/a	0	0.422607421875	0.5869140625	0	lower	zerothre.ttf
2599.524	n/a	WORD	1299762	wordpools/wasnorm_wordpool.txt	LTP151	ltpFR	5	14	0	EGG	518	n/a	n/a	0	0.422607421875	0.5869140625	0	lower	zerothre.ttf
2605.158	n/a	REC_START	1302579	n/a	LTP151	ltpFR	5	14	n/a	n/a	n/a	n/a	n/a	n/a	n/a	n/a	n/a	n/a	n/a
2607.662	n/a	REC_WORD	1303831	wordpools/wasnorm_wordpool.txt	LTP151	ltpFR	5	14	0	WHALE	1601	n/a	n/a	1	n/a	n/a	n/a	n/a	n/a
2611.494	n/a	REC_WORD	1305747	wordpools/wasnorm_wordpool.txt	LTP151	ltpFR	5	14	0	BOULDER	155	n/a	n/a	1	n/a	n/a	n/a	n/a	n/a
2613.026	n/a	REC_WORD	1306513	wordpools/wasnorm_wordpool.txt	LTP151	ltpFR	5	14	0	COMEDIAN	352	n/a	n/a	1	n/a	n/a	n/a	n/a	n/a
2614.158	n/a	REC_WORD	1307079	wordpools/wasnorm_wordpool.txt	LTP151	ltpFR	5	14	0	PIER	1063	n/a	n/a	1	n/a	n/a	n/a	n/a	n/a
2615.614	n/a	REC_WORD	1307807	wordpools/wasnorm_wordpool.txt	LTP151	ltpFR	5	14	0	PORT	1110	n/a	n/a	1	n/a	n/a	n/a	n/a	n/a
2616.742	n/a	REC_WORD	1308371	wordpools/wasnorm_wordpool.txt	LTP151	ltpFR	5	14	0	SAW	1239	n/a	n/a	1	n/a	n/a	n/a	n/a	n/a
2618.034	n/a	REC_WORD	1309017	wordpools/wasnorm_wordpool.txt	LTP151	ltpFR	5	14	0	CHICK	296	n/a	n/a	0	n/a	n/a	n/a	n/a	n/a
2619.49	n/a	REC_WORD	1309745	wordpools/wasnorm_wordpool.txt	LTP151	ltpFR	5	14	0	EGG	518	n/a	n/a	0	n/a	n/a	n/a	n/a	n/a
2621.716	n/a	REC_WORD	1310858	wordpools/wasnorm_wordpool.txt	LTP151	ltpFR	5	14	0	LEVER	815	n/a	n/a	0	n/a	n/a	n/a	n/a	n/a
2626.51	n/a	REC_WORD	1313255	wordpools/wasnorm_wordpool.txt	LTP151	ltpFR	5	14	0	SHARK	1275	n/a	n/a	1	n/a	n/a	n/a	n/a	n/a
2633.8	n/a	REC_WORD	1316900	wordpools/wasnorm_wordpool.txt	LTP151	ltpFR	5	14	0	AFRICA	9	n/a	n/a	1	n/a	n/a	n/a	n/a	n/a
2635.226	n/a	REC_WORD	1317613	wordpools/wasnorm_wordpool.txt	LTP151	ltpFR	5	14	0	PLANT	1083	n/a	n/a	1	n/a	n/a	n/a	n/a	n/a
2636.838	n/a	REC_WORD	1318419	wordpools/wasnorm_wordpool.txt	LTP151	ltpFR	5	14	0	BLOSSOM	138	n/a	n/a	0	n/a	n/a	n/a	n/a	n/a
2649.1	n/a	REC_WORD	1324550	wordpools/wasnorm_wordpool.txt	LTP151	ltpFR	5	14	0	ELEPHANT	523	n/a	n/a	1	n/a	n/a	n/a	n/a	n/a
2675.82	n/a	REC_WORD	1337910	wordpools/wasnorm_wordpool.txt	LTP151	ltpFR	5	14	0	BEAKER	104	n/a	n/a	0	n/a	n/a	n/a	n/a	n/a
2676.898	n/a	REC_WORD	1338449	wordpools/wasnorm_wordpool.txt	LTP151	ltpFR	5	14	0	SAP	1233	n/a	n/a	0	n/a	n/a	n/a	n/a	n/a
2684.308	n/a	WORD	1342154	wordpools/wasnorm_wordpool.txt	LTP151	ltpFR	5	15	0	PUMP	1141	n/a	n/a	0	0.422607421875	0.5869140625	0	lower	zerothre.ttf
2688.24	n/a	WORD	1344120	wordpools/wasnorm_wordpool.txt	LTP151	ltpFR	5	15	0	POPE	1105	n/a	n/a	1	0.422607421875	0.5869140625	0	lower	zerothre.ttf
2692.396	n/a	WORD	1346198	wordpools/wasnorm_wordpool.txt	LTP151	ltpFR	5	15	1	TRENCH	1503	n/a	n/a	0	0.57763671875	0.412841796875	1	upper	amplitud.ttf
2696.238	n/a	WORD	1348119	wordpools/wasnorm_wordpool.txt	LTP151	ltpFR	5	15	1	LOOP	844	n/a	n/a	0	0.57763671875	0.412841796875	1	upper	amplitud.ttf
2700.078	n/a	WORD	1350039	wordpools/wasnorm_wordpool.txt	LTP151	ltpFR	5	15	1	RUBY	1214	n/a	n/a	0	0.57763671875	0.412841796875	1	upper	amplitud.ttf
2703.92	n/a	WORD	1351960	wordpools/wasnorm_wordpool.txt	LTP151	ltpFR	5	15	1	CAULIFLOWER	262	n/a	n/a	1	0.57763671875	0.412841796875	1	upper	amplitud.ttf
2708.076	n/a	WORD	1354038	wordpools/wasnorm_wordpool.txt	LTP151	ltpFR	5	15	1	LAGOON	795	n/a	n/a	1	0.57763671875	0.412841796875	1	upper	amplitud.ttf
2711.984	n/a	WORD	1355992	wordpools/wasnorm_wordpool.txt	LTP151	ltpFR	5	15	1	COLOGNE	347	n/a	n/a	0	0.57763671875	0.412841796875	1	upper	amplitud.ttf
2715.898	n/a	WORD	1357949	wordpools/wasnorm_wordpool.txt	LTP151	ltpFR	5	15	0	SKUNK	1321	n/a	n/a	1	0.422607421875	0.5869140625	0	lower	zerothre.ttf
2719.896	n/a	WORD	1359948	wordpools/wasnorm_wordpool.txt	LTP151	ltpFR	5	15	0	KITE	779	n/a	n/a	1	0.422607421875	0.5869140625	0	lower	zerothre.ttf
2724.096	n/a	WORD	1362048	wordpools/wasnorm_wordpool.txt	LTP151	ltpFR	5	15	0	BUTTERFLY	206	n/a	n/a	0	0.422607421875	0.5869140625	0	lower	zerothre.ttf
2727.978	n/a	WORD	1363989	wordpools/wasnorm_wordpool.txt	LTP151	ltpFR	5	15	1	PRIMATE	1123	n/a	n/a	1	0.57763671875	0.412841796875	1	upper	amplitud.ttf
2731.86	n/a	WORD	1365930	wordpools/wasnorm_wordpool.txt	LTP151	ltpFR	5	15	1	OZONE	996	n/a	n/a	0	0.57763671875	0.412841796875	1	upper	amplitud.ttf
2735.808	n/a	WORD	1367904	wordpools/wasnorm_wordpool.txt	LTP151	ltpFR	5	15	0	BUILDING	191	n/a	n/a	1	0.422607421875	0.5869140625	0	lower	zerothre.ttf
2739.916	n/a	WORD	1369958	wordpools/wasnorm_wordpool.txt	LTP151	ltpFR	5	15	0	KIDNEY	776	n/a	n/a	0	0.422607421875	0.5869140625	0	lower	zerothre.ttf
2744.008	n/a	WORD	1372004	wordpools/wasnorm_wordpool.txt	LTP151	ltpFR	5	15	0	LETTUCE	814	n/a	n/a	0	0.422607421875	0.5869140625	0	lower	zerothre.ttf
2749.93	n/a	REC_START	1374965	n/a	LTP151	ltpFR	5	15	n/a	n/a	n/a	n/a	n/a	n/a	n/a	n/a	n/a	n/a	n/a
2752.444	n/a	REC_WORD	1376222	wordpools/wasnorm_wordpool.txt	LTP151	ltpFR	5	15	0	PUMP	1141	n/a	n/a	0	n/a	n/a	n/a	n/a	n/a
2753.742	n/a	REC_WORD	1376871	wordpools/wasnorm_wordpool.txt	LTP151	ltpFR	5	15	0	POPE	1105	n/a	n/a	1	n/a	n/a	n/a	n/a	n/a
2755.238	n/a	REC_WORD	1377619	wordpools/wasnorm_wordpool.txt	LTP151	ltpFR	5	15	1	TRENCH	1503	n/a	n/a	0	n/a	n/a	n/a	n/a	n/a
2758.076	n/a	REC_WORD	1379038	wordpools/wasnorm_wordpool.txt	LTP151	ltpFR	5	15	1	LOOP	844	n/a	n/a	0	n/a	n/a	n/a	n/a	n/a
2759.824	n/a	REC_WORD	1379912	wordpools/wasnorm_wordpool.txt	LTP151	ltpFR	5	15	1	RUBY	1214	n/a	n/a	0	n/a	n/a	n/a	n/a	n/a
2777.458	n/a	REC_WORD	1388729	wordpools/wasnorm_wordpool.txt	LTP151	ltpFR	5	15	0	BUILDING	191	n/a	n/a	1	n/a	n/a	n/a	n/a	n/a
2782.768	n/a	REC_WORD	1391384	wordpools/wasnorm_wordpool.txt	LTP151	ltpFR	5	15	0	SKUNK	1321	n/a	n/a	1	n/a	n/a	n/a	n/a	n/a
2784.024	n/a	REC_WORD	1392012	wordpools/wasnorm_wordpool.txt	LTP151	ltpFR	5	15	0	KITE	779	n/a	n/a	1	n/a	n/a	n/a	n/a	n/a
2801.042	n/a	REC_WORD	1400521	wordpools/wasnorm_wordpool.txt	LTP151	ltpFR	5	15	0	KIDNEY	776	n/a	n/a	0	n/a	n/a	n/a	n/a	n/a
2805.876	n/a	REC_WORD	1402938	wordpools/wasnorm_wordpool.txt	LTP151	ltpFR	5	15	0	BUTTERFLY	206	n/a	n/a	0	n/a	n/a	n/a	n/a	n/a
2829.114	n/a	WORD	1414557	wordpools/wasnorm_wordpool.txt	LTP151	ltpFR	5	16	-1	CABINET	212	n/a	n/a	-1	1.0	1.0	1	upper	Verdana.ttf
2833.17	n/a	WORD	1416585	wordpools/wasnorm_wordpool.txt	LTP151	ltpFR	5	16	-1	STOVE	1388	n/a	n/a	-1	1.0	1.0	1	upper	Verdana.ttf
2837.328	n/a	WORD	1418664	wordpools/wasnorm_wordpool.txt	LTP151	ltpFR	5	16	-1	BEAN	105	n/a	n/a	-1	1.0	1.0	1	upper	Verdana.ttf
2841.202	n/a	WORD	1420601	wordpools/wasnorm_wordpool.txt	LTP151	ltpFR	5	16	-1	CHART	282	n/a	n/a	-1	1.0	1.0	1	upper	Verdana.ttf
2845.334	n/a	WORD	1422667	wordpools/wasnorm_wordpool.txt	LTP151	ltpFR	5	16	-1	PIN	1072	n/a	n/a	-1	1.0	1.0	1	upper	Verdana.ttf
2849.224	n/a	WORD	1424612	wordpools/wasnorm_wordpool.txt	LTP151	ltpFR	5	16	-1	ARTIST	43	n/a	n/a	-1	1.0	1.0	1	upper	Verdana.ttf
2853.422	n/a	WORD	1426711	wordpools/wasnorm_wordpool.txt	LTP151	ltpFR	5	16	-1	RIB	1188	n/a	n/a	-1	1.0	1.0	1	upper	Verdana.ttf
2857.464	n/a	WORD	1428732	wordpools/wasnorm_wordpool.txt	LTP151	ltpFR	5	16	-1	HELICOPTER	701	n/a	n/a	-1	1.0	1.0	1	upper	Verdana.ttf
2861.288	n/a	WORD	1430644	wordpools/wasnorm_wordpool.txt	LTP151	ltpFR	5	16	-1	AIRCRAFT	11	n/a	n/a	-1	1.0	1.0	1	upper	Verdana.ttf
2865.104	n/a	WORD	1432552	wordpools/wasnorm_wordpool.txt	LTP151	ltpFR	5	16	-1	FREEWAY	603	n/a	n/a	-1	1.0	1.0	1	upper	Verdana.ttf
2869.126	n/a	WORD	1434563	wordpools/wasnorm_wordpool.txt	LTP151	ltpFR	5	16	-1	TAIL	1430	n/a	n/a	-1	1.0	1.0	1	upper	Verdana.ttf
2873.226	n/a	WORD	1436613	wordpools/wasnorm_wordpool.txt	LTP151	ltpFR	5	16	-1	CELERY	266	n/a	n/a	-1	1.0	1.0	1	upper	Verdana.ttf
2877.316	n/a	WORD	1438658	wordpools/wasnorm_wordpool.txt	LTP151	ltpFR	5	16	-1	SLIME	1327	n/a	n/a	-1	1.0	1.0	1	upper	Verdana.ttf
2881.414	n/a	WORD	1440707	wordpools/wasnorm_wordpool.txt	LTP151	ltpFR	5	16	-1	GIRL	637	n/a	n/a	-1	1.0	1.0	1	upper	Verdana.ttf
2885.546	n/a	WORD	1442773	wordpools/wasnorm_wordpool.txt	LTP151	ltpFR	5	16	-1	ATLAS	53	n/a	n/a	-1	1.0	1.0	1	upper	Verdana.ttf
2889.552	n/a	WORD	1444776	wordpools/wasnorm_wordpool.txt	LTP151	ltpFR	5	16	-1	DRAWING	494	n/a	n/a	-1	1.0	1.0	1	upper	Verdana.ttf
2895.162	n/a	REC_START	1447581	n/a	LTP151	ltpFR	5	16	n/a	n/a	n/a	n/a	n/a	n/a	n/a	n/a	n/a	n/a	n/a
2896.394	n/a	REC_WORD	1448197	wordpools/wasnorm_wordpool.txt	LTP151	ltpFR	5	16	-1	CABINET	212	n/a	n/a	-1	n/a	n/a	n/a	n/a	n/a
2898.148	n/a	REC_WORD	1449074	wordpools/wasnorm_wordpool.txt	LTP151	ltpFR	5	16	-1	STOVE	1388	n/a	n/a	-1	n/a	n/a	n/a	n/a	n/a
2900.046	n/a	REC_WORD	1450023	wordpools/wasnorm_wordpool.txt	LTP151	ltpFR	5	16	-1	BEAN	105	n/a	n/a	-1	n/a	n/a	n/a	n/a	n/a
2901.626	n/a	REC_WORD	1450813	wordpools/wasnorm_wordpool.txt	LTP151	ltpFR	5	16	-1	CHART	282	n/a	n/a	-1	n/a	n/a	n/a	n/a	n/a
2903.068	n/a	REC_WORD	1451534	wordpools/wasnorm_wordpool.txt	LTP151	ltpFR	5	16	-1	PIN	1072	n/a	n/a	-1	n/a	n/a	n/a	n/a	n/a
2904.604	n/a	REC_WORD	1452302	wordpools/wasnorm_wordpool.txt	LTP151	ltpFR	5	16	-1	ARTIST	43	n/a	n/a	-1	n/a	n/a	n/a	n/a	n/a
2906.082	n/a	REC_WORD	1453041	wordpools/wasnorm_wordpool.txt	LTP151	ltpFR	5	16	-1	RIB	1188	n/a	n/a	-1	n/a	n/a	n/a	n/a	n/a
2907.548	n/a	REC_WORD	1453774	wordpools/wasnorm_wordpool.txt	LTP151	ltpFR	5	16	-1	HELICOPTER	701	n/a	n/a	-1	n/a	n/a	n/a	n/a	n/a
2908.548	n/a	REC_WORD_VV	1454274	wordpools/wasnorm_wordpool.txt	LTP151	ltpFR	5	16	n/a	<>	-1	n/a	n/a	n/a	n/a	n/a	n/a	n/a	n/a
2909.388	n/a	REC_WORD	1454694	wordpools/wasnorm_wordpool.txt	LTP151	ltpFR	5	16	-1	AIRCRAFT	11	n/a	n/a	-1	n/a	n/a	n/a	n/a	n/a
2915.456	n/a	REC_WORD	1457728	wordpools/wasnorm_wordpool.txt	LTP151	ltpFR	5	16	-1	CELERY	266	n/a	n/a	-1	n/a	n/a	n/a	n/a	n/a
2917.422	n/a	REC_WORD	1458711	wordpools/wasnorm_wordpool.txt	LTP151	ltpFR	5	16	-1	SLIME	1327	n/a	n/a	-1	n/a	n/a	n/a	n/a	n/a
2918.618	n/a	REC_WORD	1459309	wordpools/wasnorm_wordpool.txt	LTP151	ltpFR	5	16	-1	GIRL	637	n/a	n/a	-1	n/a	n/a	n/a	n/a	n/a
2919.732	n/a	REC_WORD	1459866	wordpools/wasnorm_wordpool.txt	LTP151	ltpFR	5	16	-1	ATLAS	53	n/a	n/a	-1	n/a	n/a	n/a	n/a	n/a
2950.024	n/a	REC_WORD	1475012	wordpools/wasnorm_wordpool.txt	LTP151	ltpFR	5	16	-1	FREEWAY	603	n/a	n/a	-1	n/a	n/a	n/a	n/a	n/a
2952.758	n/a	REC_WORD	1476379	wordpools/wasnorm_wordpool.txt	LTP151	ltpFR	5	16	-1	TAIL	1430	n/a	n/a	-1	n/a	n/a	n/a	n/a	n/a
2994.848	n/a	REC_START	1497424	n/a	LTP151	ltpFR	5	1	n/a	n/a	n/a	n/a	n/a	n/a	n/a	n/a	n/a	n/a	n/a
2994.88	n/a	RECOG_LURE	1497440	n/a	LTP151	ltpFR	5	1	n/a	YOUTH	1634	0	5	n/a	n/a	n/a	n/a	n/a	n/a
2996.216	n/a	RECOG_RESP	1498108	n/a	LTP151	ltpFR	5	1	n/a	YOUTH	1634	0	n/a	n/a	n/a	n/a	n/a	n/a	n/a
2997.734	n/a	RECOG_CONF	1498867	n/a	LTP151	ltpFR	5	1	n/a	YOUTH	1634	n/a	5	n/a	n/a	n/a	n/a	n/a	n/a
2999.428	n/a	RECOG_TARGET	1499714	n/a	LTP151	ltpFR	5	1	0	DEPUTY	450	1	5	1	n/a	n/a	n/a	n/a	n/a
3000.54	n/a	RECOG_RESP	1500270	n/a	LTP151	ltpFR	5	1	0	DEPUTY	450	1	n/a	1	n/a	n/a	n/a	n/a	n/a
3001.62	n/a	RECOG_CONF	1500810	n/a	LTP151	ltpFR	5	1	0	DEPUTY	450	n/a	5	1	n/a	n/a	n/a	n/a	n/a
3003.328	n/a	RECOG_TARGET	1501664	n/a	LTP151	ltpFR	5	1	-1	CELERY	266	1	5	-1	n/a	n/a	n/a	n/a	n/a
3004.076	n/a	RECOG_RESP	1502038	n/a	LTP151	ltpFR	5	1	-1	CELERY	266	1	n/a	-1	n/a	n/a	n/a	n/a	n/a
3005.114	n/a	RECOG_CONF	1502557	n/a	LTP151	ltpFR	5	1	-1	CELERY	266	n/a	5	-1	n/a	n/a	n/a	n/a	n/a
3006.752	n/a	RECOG_TARGET	1503376	n/a	LTP151	ltpFR	5	1	0	EGG	518	1	5	0	n/a	n/a	n/a	n/a	n/a
3007.716	n/a	RECOG_RESP	1503858	n/a	LTP151	ltpFR	5	1	0	EGG	518	1	n/a	0	n/a	n/a	n/a	n/a	n/a
3008.83	n/a	RECOG_CONF	1504415	n/a	LTP151	ltpFR	5	1	0	EGG	518	n/a	5	0	n/a	n/a	n/a	n/a	n/a
3010.484	n/a	RECOG_TARGET	1505242	n/a	LTP151	ltpFR	5	1	1	COTTAGE	384	1	5	0	n/a	n/a	n/a	n/a	n/a
3011.252	n/a	RECOG_RESP	1505626	n/a	LTP151	ltpFR	5	1	1	COTTAGE	384	1	n/a	0	n/a	n/a	n/a	n/a	n/a
3012.238	n/a	RECOG_CONF	1506119	n/a	LTP151	ltpFR	5	1	1	COTTAGE	384	n/a	5	0	n/a	n/a	n/a	n/a	n/a
3013.808	n/a	RECOG_TARGET	1506904	n/a	LTP151	ltpFR	5	1	1	SERVANT	1271	1	5	1	n/a	n/a	n/a	n/a	n/a
3014.584	n/a	RECOG_RESP	1507292	n/a	LTP151	ltpFR	5	1	1	SERVANT	1271	1	n/a	1	n/a	n/a	n/a	n/a	n/a
3015.542	n/a	RECOG_CONF	1507771	n/a	LTP151	ltpFR	5	1	1	SERVANT	1271	n/a	5	1	n/a	n/a	n/a	n/a	n/a
3017.216	n/a	RECOG_LURE	1508608	n/a	LTP151	ltpFR	5	1	n/a	STOCKING	1383	0	2	n/a	n/a	n/a	n/a	n/a	n/a
3018.248	n/a	RECOG_RESP	1509124	n/a	LTP151	ltpFR	5	1	n/a	STOCKING	1383	0	n/a	n/a	n/a	n/a	n/a	n/a	n/a
3019.554	n/a	RECOG_CONF	1509777	n/a	LTP151	ltpFR	5	1	n/a	STOCKING	1383	n/a	2	n/a	n/a	n/a	n/a	n/a	n/a
3021.098	n/a	RECOG_TARGET	1510549	n/a	LTP151	ltpFR	5	1	1	SCALLOP	1242	1	5	1	n/a	n/a	n/a	n/a	n/a
3021.83	n/a	RECOG_RESP	1510915	n/a	LTP151	ltpFR	5	1	1	SCALLOP	1242	1	n/a	1	n/a	n/a	n/a	n/a	n/a
3022.84	n/a	RECOG_CONF	1511420	n/a	LTP151	ltpFR	5	1	1	SCALLOP	1242	n/a	5	1	n/a	n/a	n/a	n/a	n/a
3024.404	n/a	RECOG_TARGET	1512202	n/a	LTP151	ltpFR	5	1	1	POISON	1096	1	5	0	n/a	n/a	n/a	n/a	n/a
3025.174	n/a	RECOG_RESP	1512587	n/a	LTP151	ltpFR	5	1	1	POISON	1096	1	n/a	0	n/a	n/a	n/a	n/a	n/a
3026.086	n/a	RECOG_CONF	1513043	n/a	LTP151	ltpFR	5	1	1	POISON	1096	n/a	5	0	n/a	n/a	n/a	n/a	n/a
3027.73	n/a	RECOG_TARGET	1513865	n/a	LTP151	ltpFR	5	1	1	COBBLER	335	1	5	1	n/a	n/a	n/a	n/a	n/a
3028.52	n/a	RECOG_RESP	1514260	n/a	LTP151	ltpFR	5	1	1	COBBLER	335	1	n/a	1	n/a	n/a	n/a	n/a	n/a
3029.49	n/a	RECOG_CONF	1514745	n/a	LTP151	ltpFR	5	1	1	COBBLER	335	n/a	5	1	n/a	n/a	n/a	n/a	n/a
3030.936	n/a	RECOG_LURE	1515468	n/a	LTP151	ltpFR	5	1	n/a	CITRUS	313	0	2	n/a	n/a	n/a	n/a	n/a	n/a
3035.572	n/a	RECOG_RESP	1517786	n/a	LTP151	ltpFR	5	1	n/a	CITRUS	313	0	n/a	n/a	n/a	n/a	n/a	n/a	n/a
3037.062	n/a	RECOG_CONF	1518531	n/a	LTP151	ltpFR	5	1	n/a	CITRUS	313	n/a	2	n/a	n/a	n/a	n/a	n/a	n/a
3038.784	n/a	RECOG_TARGET	1519392	n/a	LTP151	ltpFR	5	1	-1	MACHINE	852	1	4	-1	n/a	n/a	n/a	n/a	n/a
3040.35	n/a	RECOG_RESP	1520175	n/a	LTP151	ltpFR	5	1	-1	MACHINE	852	1	n/a	-1	n/a	n/a	n/a	n/a	n/a
3041.39	n/a	RECOG_CONF	1520695	n/a	LTP151	ltpFR	5	1	-1	MACHINE	852	n/a	4	-1	n/a	n/a	n/a	n/a	n/a
3042.99	n/a	RECOG_TARGET	1521495	n/a	LTP151	ltpFR	5	1	1	LOCK	838	1	5	0	n/a	n/a	n/a	n/a	n/a
3043.908	n/a	RECOG_RESP	1521954	n/a	LTP151	ltpFR	5	1	1	LOCK	838	1	n/a	0	n/a	n/a	n/a	n/a	n/a
3044.982	n/a	RECOG_CONF	1522491	n/a	LTP151	ltpFR	5	1	1	LOCK	838	n/a	5	0	n/a	n/a	n/a	n/a	n/a
3046.572	n/a	RECOG_TARGET	1523286	n/a	LTP151	ltpFR	5	1	-1	PILOT	1070	1	5	-1	n/a	n/a	n/a	n/a	n/a
3047.31	n/a	RECOG_RESP	1523655	n/a	LTP151	ltpFR	5	1	-1	PILOT	1070	1	n/a	-1	n/a	n/a	n/a	n/a	n/a
3048.384	n/a	RECOG_CONF	1524192	n/a	LTP151	ltpFR	5	1	-1	PILOT	1070	n/a	5	-1	n/a	n/a	n/a	n/a	n/a
3050.04	n/a	RECOG_LURE	1525020	n/a	LTP151	ltpFR	5	1	n/a	CRIB	407	0	3	n/a	n/a	n/a	n/a	n/a	n/a
3053.056	n/a	RECOG_RESP	1526528	n/a	LTP151	ltpFR	5	1	n/a	CRIB	407	0	n/a	n/a	n/a	n/a	n/a	n/a	n/a
3054.352	n/a	RECOG_CONF	1527176	n/a	LTP151	ltpFR	5	1	n/a	CRIB	407	n/a	3	n/a	n/a	n/a	n/a	n/a	n/a
3055.896	n/a	RECOG_TARGET	1527948	n/a	LTP151	ltpFR	5	1	1	COMPUTER	359	1	5	0	n/a	n/a	n/a	n/a	n/a
3056.86	n/a	RECOG_RESP	1528430	n/a	LTP151	ltpFR	5	1	1	COMPUTER	359	1	n/a	0	n/a	n/a	n/a	n/a	n/a
3057.846	n/a	RECOG_CONF	1528923	n/a	LTP151	ltpFR	5	1	1	COMPUTER	359	n/a	5	0	n/a	n/a	n/a	n/a	n/a
3059.544	n/a	RECOG_TARGET	1529772	n/a	LTP151	ltpFR	5	1	1	TRIBE	1505	1	5	1	n/a	n/a	n/a	n/a	n/a
3060.394	n/a	RECOG_RESP	1530197	n/a	LTP151	ltpFR	5	1	1	TRIBE	1505	1	n/a	1	n/a	n/a	n/a	n/a	n/a
3061.51	n/a	RECOG_CONF	1530755	n/a	LTP151	ltpFR	5	1	1	TRIBE	1505	n/a	5	1	n/a	n/a	n/a	n/a	n/a
3063.202	n/a	RECOG_TARGET	1531601	n/a	LTP151	ltpFR	5	1	1	TOENAIL	1474	1	5	0	n/a	n/a	n/a	n/a	n/a
3064.148	n/a	RECOG_RESP	1532074	n/a	LTP151	ltpFR	5	1	1	TOENAIL	1474	1	n/a	0	n/a	n/a	n/a	n/a	n/a
3065.228	n/a	RECOG_CONF	1532614	n/a	LTP151	ltpFR	5	1	1	TOENAIL	1474	n/a	5	0	n/a	n/a	n/a	n/a	n/a
3066.792	n/a	RECOG_TARGET	1533396	n/a	LTP151	ltpFR	5	1	1	OUTDOORS	987	1	5	0	n/a	n/a	n/a	n/a	n/a
3067.936	n/a	RECOG_RESP	1533968	n/a	LTP151	ltpFR	5	1	1	OUTDOORS	987	1	n/a	0	n/a	n/a	n/a	n/a	n/a
3068.954	n/a	RECOG_CONF	1534477	n/a	LTP151	ltpFR	5	1	1	OUTDOORS	987	n/a	5	0	n/a	n/a	n/a	n/a	n/a
3070.59	n/a	RECOG_TARGET	1535295	n/a	LTP151	ltpFR	5	1	0	CHICK	296	1	5	0	n/a	n/a	n/a	n/a	n/a
3071.384	n/a	RECOG_RESP	1535692	n/a	LTP151	ltpFR	5	1	0	CHICK	296	1	n/a	0	n/a	n/a	n/a	n/a	n/a
3072.5	n/a	RECOG_CONF	1536250	n/a	LTP151	ltpFR	5	1	0	CHICK	296	n/a	5	0	n/a	n/a	n/a	n/a	n/a
3076.04	n/a	REC_START	1538020	n/a	LTP151	ltpFR	5	2	n/a	n/a	n/a	n/a	n/a	n/a	n/a	n/a	n/a	n/a	n/a
3076.072	n/a	RECOG_TARGET	1538036	n/a	LTP151	ltpFR	5	2	-1	STOVE	1388	1	5	-1	n/a	n/a	n/a	n/a	n/a
3076.768	n/a	RECOG_RESP	1538384	n/a	LTP151	ltpFR	5	2	-1	STOVE	1388	1	n/a	-1	n/a	n/a	n/a	n/a	n/a
3077.79	n/a	RECOG_CONF	1538895	n/a	LTP151	ltpFR	5	2	-1	STOVE	1388	n/a	5	-1	n/a	n/a	n/a	n/a	n/a
3079.446	n/a	RECOG_TARGET	1539723	n/a	LTP151	ltpFR	5	2	1	MAID	856	1	5	1	n/a	n/a	n/a	n/a	n/a
3080.122	n/a	RECOG_RESP	1540061	n/a	LTP151	ltpFR	5	2	1	MAID	856	1	n/a	1	n/a	n/a	n/a	n/a	n/a
3081.092	n/a	RECOG_CONF	1540546	n/a	LTP151	ltpFR	5	2	1	MAID	856	n/a	5	1	n/a	n/a	n/a	n/a	n/a
3082.754	n/a	RECOG_TARGET	1541377	n/a	LTP151	ltpFR	5	2	0	SKUNK	1321	1	5	1	n/a	n/a	n/a	n/a	n/a
3083.456	n/a	RECOG_RESP	1541728	n/a	LTP151	ltpFR	5	2	0	SKUNK	1321	1	n/a	1	n/a	n/a	n/a	n/a	n/a
3084.538	n/a	RECOG_CONF	1542269	n/a	LTP151	ltpFR	5	2	0	SKUNK	1321	n/a	5	1	n/a	n/a	n/a	n/a	n/a
3086.128	n/a	RECOG_TARGET	1543064	n/a	LTP151	ltpFR	5	2	-1	DANDRUFF	439	1	5	-1	n/a	n/a	n/a	n/a	n/a
3086.97	n/a	RECOG_RESP	1543485	n/a	LTP151	ltpFR	5	2	-1	DANDRUFF	439	1	n/a	-1	n/a	n/a	n/a	n/a	n/a
3087.94	n/a	RECOG_CONF	1543970	n/a	LTP151	ltpFR	5	2	-1	DANDRUFF	439	n/a	5	-1	n/a	n/a	n/a	n/a	n/a
3089.6	n/a	RECOG_TARGET	1544800	n/a	LTP151	ltpFR	5	2	-1	MATCH	878	1	5	-1	n/a	n/a	n/a	n/a	n/a
3090.396	n/a	RECOG_RESP	1545198	n/a	LTP151	ltpFR	5	2	-1	MATCH	878	1	n/a	-1	n/a	n/a	n/a	n/a	n/a
3091.462	n/a	RECOG_CONF	1545731	n/a	LTP151	ltpFR	5	2	-1	MATCH	878	n/a	5	-1	n/a	n/a	n/a	n/a	n/a
3092.976	n/a	RECOG_TARGET	1546488	n/a	LTP151	ltpFR	5	2	-1	GIRL	637	1	5	-1	n/a	n/a	n/a	n/a	n/a
3093.726	n/a	RECOG_RESP	1546863	n/a	LTP151	ltpFR	5	2	-1	GIRL	637	1	n/a	-1	n/a	n/a	n/a	n/a	n/a
3094.764	n/a	RECOG_CONF	1547382	n/a	LTP151	ltpFR	5	2	-1	GIRL	637	n/a	5	-1	n/a	n/a	n/a	n/a	n/a
3096.44	n/a	RECOG_TARGET	1548220	n/a	LTP151	ltpFR	5	2	0	VEST	1559	1	5	0	n/a	n/a	n/a	n/a	n/a
3097.124	n/a	RECOG_RESP	1548562	n/a	LTP151	ltpFR	5	2	0	VEST	1559	1	n/a	0	n/a	n/a	n/a	n/a	n/a
3098.146	n/a	RECOG_CONF	1549073	n/a	LTP151	ltpFR	5	2	0	VEST	1559	n/a	5	0	n/a	n/a	n/a	n/a	n/a
3100.032	n/a	RECOG_TARGET	1550016	n/a	LTP151	ltpFR	5	2	-1	SLIME	1327	1	5	-1	n/a	n/a	n/a	n/a	n/a
3100.664	n/a	RECOG_RESP	1550332	n/a	LTP151	ltpFR	5	2	-1	SLIME	1327	1	n/a	-1	n/a	n/a	n/a	n/a	n/a
3101.748	n/a	RECOG_CONF	1550874	n/a	LTP151	ltpFR	5	2	-1	SLIME	1327	n/a	5	-1	n/a	n/a	n/a	n/a	n/a
3103.298	n/a	RECOG_TARGET	1551649	n/a	LTP151	ltpFR	5	2	1	COUSIN	392	1	5	1	n/a	n/a	n/a	n/a	n/a
3104.036	n/a	RECOG_RESP	1552018	n/a	LTP151	ltpFR	5	2	1	COUSIN	392	1	n/a	1	n/a	n/a	n/a	n/a	n/a
3105.112	n/a	RECOG_CONF	1552556	n/a	LTP151	ltpFR	5	2	1	COUSIN	392	n/a	5	1	n/a	n/a	n/a	n/a	n/a
3106.796	n/a	RECOG_TARGET	1553398	n/a	LTP151	ltpFR	5	2	0	ELEPHANT	523	1	5	1	n/a	n/a	n/a	n/a	n/a
3107.434	n/a	RECOG_RESP	1553717	n/a	LTP151	ltpFR	5	2	0	ELEPHANT	523	1	n/a	1	n/a	n/a	n/a	n/a	n/a
3108.47	n/a	RECOG_CONF	1554235	n/a	LTP151	ltpFR	5	2	0	ELEPHANT	523	n/a	5	1	n/a	n/a	n/a	n/a	n/a
3110.154	n/a	RECOG_LURE	1555077	n/a	LTP151	ltpFR	5	2	n/a	NAIL	936	0	2	n/a	n/a	n/a	n/a	n/a	n/a
3111.434	n/a	RECOG_RESP	1555717	n/a	LTP151	ltpFR	5	2	n/a	NAIL	936	0	n/a	n/a	n/a	n/a	n/a	n/a	n/a
3112.674	n/a	RECOG_CONF	1556337	n/a	LTP151	ltpFR	5	2	n/a	NAIL	936	n/a	2	n/a	n/a	n/a	n/a	n/a	n/a
3114.26	n/a	RECOG_LURE	1557130	n/a	LTP151	ltpFR	5	2	n/a	MOWER	928	0	1	n/a	n/a	n/a	n/a	n/a	n/a
3115.256	n/a	RECOG_RESP	1557628	n/a	LTP151	ltpFR	5	2	n/a	MOWER	928	0	n/a	n/a	n/a	n/a	n/a	n/a	n/a
3116.812	n/a	RECOG_CONF	1558406	n/a	LTP151	ltpFR	5	2	n/a	MOWER	928	n/a	1	n/a	n/a	n/a	n/a	n/a	n/a
3118.55	n/a	RECOG_LURE	1559275	n/a	LTP151	ltpFR	5	2	n/a	DINER	467	0	2	n/a	n/a	n/a	n/a	n/a	n/a
3119.996	n/a	RECOG_RESP	1559998	n/a	LTP151	ltpFR	5	2	n/a	DINER	467	0	n/a	n/a	n/a	n/a	n/a	n/a	n/a
3121.508	n/a	RECOG_CONF	1560754	n/a	LTP151	ltpFR	5	2	n/a	DINER	467	n/a	2	n/a	n/a	n/a	n/a	n/a	n/a
3123.008	n/a	RECOG_TARGET	1561504	n/a	LTP151	ltpFR	5	2	-1	BUBBLE	183	1	5	-1	n/a	n/a	n/a	n/a	n/a
3123.862	n/a	RECOG_RESP	1561931	n/a	LTP151	ltpFR	5	2	-1	BUBBLE	183	1	n/a	-1	n/a	n/a	n/a	n/a	n/a
3124.956	n/a	RECOG_CONF	1562478	n/a	LTP151	ltpFR	5	2	-1	BUBBLE	183	n/a	5	-1	n/a	n/a	n/a	n/a	n/a
3126.624	n/a	RECOG_LURE	1563312	n/a	LTP151	ltpFR	5	2	n/a	HAM	678	0	3	n/a	n/a	n/a	n/a	n/a	n/a
3129.024	n/a	RECOG_RESP	1564512	n/a	LTP151	ltpFR	5	2	n/a	HAM	678	0	n/a	n/a	n/a	n/a	n/a	n/a	n/a
3130.142	n/a	RECOG_CONF	1565071	n/a	LTP151	ltpFR	5	2	n/a	HAM	678	n/a	3	n/a	n/a	n/a	n/a	n/a	n/a
3131.838	n/a	RECOG_TARGET	1565919	n/a	LTP151	ltpFR	5	2	0	VENT	1556	1	5	1	n/a	n/a	n/a	n/a	n/a
3132.662	n/a	RECOG_RESP	1566331	n/a	LTP151	ltpFR	5	2	0	VENT	1556	1	n/a	1	n/a	n/a	n/a	n/a	n/a
3133.646	n/a	RECOG_CONF	1566823	n/a	LTP151	ltpFR	5	2	0	VENT	1556	n/a	5	1	n/a	n/a	n/a	n/a	n/a
3135.536	n/a	RECOG_TARGET	1567768	n/a	LTP151	ltpFR	5	2	1	TWEEZERS	1526	1	5	0	n/a	n/a	n/a	n/a	n/a
3136.382	n/a	RECOG_RESP	1568191	n/a	LTP151	ltpFR	5	2	1	TWEEZERS	1526	1	n/a	0	n/a	n/a	n/a	n/a	n/a
3137.598	n/a	RECOG_CONF	1568799	n/a	LTP151	ltpFR	5	2	1	TWEEZERS	1526	n/a	5	0	n/a	n/a	n/a	n/a	n/a
3139.228	n/a	RECOG_TARGET	1569614	n/a	LTP151	ltpFR	5	2	0	BUILDING	191	1	5	1	n/a	n/a	n/a	n/a	n/a
3139.98	n/a	RECOG_RESP	1569990	n/a	LTP151	ltpFR	5	2	0	BUILDING	191	1	n/a	1	n/a	n/a	n/a	n/a	n/a
3141.086	n/a	RECOG_CONF	1570543	n/a	LTP151	ltpFR	5	2	0	BUILDING	191	n/a	5	1	n/a	n/a	n/a	n/a	n/a
3142.636	n/a	RECOG_TARGET	1571318	n/a	LTP151	ltpFR	5	2	1	FOOT	590	0	2	0	n/a	n/a	n/a	n/a	n/a
3145.268	n/a	RECOG_RESP	1572634	n/a	LTP151	ltpFR	5	2	1	FOOT	590	0	n/a	0	n/a	n/a	n/a	n/a	n/a
3146.632	n/a	RECOG_CONF	1573316	n/a	LTP151	ltpFR	5	2	1	FOOT	590	n/a	2	0	n/a	n/a	n/a	n/a	n/a
3148.284	n/a	RECOG_LURE	1574142	n/a	LTP151	ltpFR	5	2	n/a	ULCER	1533	0	3	n/a	n/a	n/a	n/a	n/a	n/a
3149.322	n/a	RECOG_RESP	1574661	n/a	LTP151	ltpFR	5	2	n/a	ULCER	1533	0	n/a	n/a	n/a	n/a	n/a	n/a	n/a
3150.578	n/a	RECOG_CONF	1575289	n/a	LTP151	ltpFR	5	2	n/a	ULCER	1533	n/a	3	n/a	n/a	n/a	n/a	n/a	n/a
3154.08	n/a	REC_START	1577040	n/a	LTP151	ltpFR	5	3	n/a	n/a	n/a	n/a	n/a	n/a	n/a	n/a	n/a	n/a	n/a
3154.116	n/a	RECOG_LURE	1577058	n/a	LTP151	ltpFR	5	3	n/a	CLIFF	322	0	2	n/a	n/a	n/a	n/a	n/a	n/a
3157.974	n/a	RECOG_RESP	1578987	n/a	LTP151	ltpFR	5	3	n/a	CLIFF	322	0	n/a	n/a	n/a	n/a	n/a	n/a	n/a
3159.288	n/a	RECOG_CONF	1579644	n/a	LTP151	ltpFR	5	3	n/a	CLIFF	322	n/a	2	n/a	n/a	n/a	n/a	n/a	n/a
3160.888	n/a	RECOG_TARGET	1580444	n/a	LTP151	ltpFR	5	3	-1	NIGHTGOWN	953	1	5	-1	n/a	n/a	n/a	n/a	n/a
3161.754	n/a	RECOG_RESP	1580877	n/a	LTP151	ltpFR	5	3	-1	NIGHTGOWN	953	1	n/a	-1	n/a	n/a	n/a	n/a	n/a
3162.904	n/a	RECOG_CONF	1581452	n/a	LTP151	ltpFR	5	3	-1	NIGHTGOWN	953	n/a	5	-1	n/a	n/a	n/a	n/a	n/a
3164.536	n/a	RECOG_TARGET	1582268	n/a	LTP151	ltpFR	5	3	0	SEAL	1262	1	5	1	n/a	n/a	n/a	n/a	n/a
3165.264	n/a	RECOG_RESP	1582632	n/a	LTP151	ltpFR	5	3	0	SEAL	1262	1	n/a	1	n/a	n/a	n/a	n/a	n/a
3166.294	n/a	RECOG_CONF	1583147	n/a	LTP151	ltpFR	5	3	0	SEAL	1262	n/a	5	1	n/a	n/a	n/a	n/a	n/a
3167.82	n/a	RECOG_LURE	1583910	n/a	LTP151	ltpFR	5	3	n/a	LIZARD	834	0	2	n/a	n/a	n/a	n/a	n/a	n/a
3168.832	n/a	RECOG_RESP	1584416	n/a	LTP151	ltpFR	5	3	n/a	LIZARD	834	0	n/a	n/a	n/a	n/a	n/a	n/a	n/a
3170.592	n/a	RECOG_CONF	1585296	n/a	LTP151	ltpFR	5	3	n/a	LIZARD	834	n/a	2	n/a	n/a	n/a	n/a	n/a	n/a
3172.06	n/a	RECOG_TARGET	1586030	n/a	LTP151	ltpFR	5	3	-1	PASSENGER	1020	1	5	-1	n/a	n/a	n/a	n/a	n/a
3172.9	n/a	RECOG_RESP	1586450	n/a	LTP151	ltpFR	5	3	-1	PASSENGER	1020	1	n/a	-1	n/a	n/a	n/a	n/a	n/a
3173.962	n/a	RECOG_CONF	1586981	n/a	LTP151	ltpFR	5	3	-1	PASSENGER	1020	n/a	5	-1	n/a	n/a	n/a	n/a	n/a
3175.616	n/a	RECOG_LURE	1587808	n/a	LTP151	ltpFR	5	3	n/a	CANE	231	0	3	n/a	n/a	n/a	n/a	n/a	n/a
3176.734	n/a	RECOG_RESP	1588367	n/a	LTP151	ltpFR	5	3	n/a	CANE	231	0	n/a	n/a	n/a	n/a	n/a	n/a	n/a
3178.0	n/a	RECOG_CONF	1589000	n/a	LTP151	ltpFR	5	3	n/a	CANE	231	n/a	3	n/a	n/a	n/a	n/a	n/a	n/a
3179.566	n/a	RECOG_TARGET	1589783	n/a	LTP151	ltpFR	5	3	1	OZONE	996	1	5	0	n/a	n/a	n/a	n/a	n/a
3180.462	n/a	RECOG_RESP	1590231	n/a	LTP151	ltpFR	5	3	1	OZONE	996	1	n/a	0	n/a	n/a	n/a	n/a	n/a
3181.584	n/a	RECOG_CONF	1590792	n/a	LTP151	ltpFR	5	3	1	OZONE	996	n/a	5	0	n/a	n/a	n/a	n/a	n/a
3183.316	n/a	RECOG_TARGET	1591658	n/a	LTP151	ltpFR	5	3	1	TOOL	1480	1	5	0	n/a	n/a	n/a	n/a	n/a
3184.056	n/a	RECOG_RESP	1592028	n/a	LTP151	ltpFR	5	3	1	TOOL	1480	1	n/a	0	n/a	n/a	n/a	n/a	n/a
3185.09	n/a	RECOG_CONF	1592545	n/a	LTP151	ltpFR	5	3	1	TOOL	1480	n/a	5	0	n/a	n/a	n/a	n/a	n/a
3186.722	n/a	RECOG_LURE	1593361	n/a	LTP151	ltpFR	5	3	n/a	VAULT	1550	0	4	n/a	n/a	n/a	n/a	n/a	n/a
3187.966	n/a	RECOG_RESP	1593983	n/a	LTP151	ltpFR	5	3	n/a	VAULT	1550	0	n/a	n/a	n/a	n/a	n/a	n/a	n/a
3189.134	n/a	RECOG_CONF	1594567	n/a	LTP151	ltpFR	5	3	n/a	VAULT	1550	n/a	4	n/a	n/a	n/a	n/a	n/a	n/a
3190.82	n/a	RECOG_LURE	1595410	n/a	LTP151	ltpFR	5	3	n/a	JUPITER	765	0	5	n/a	n/a	n/a	n/a	n/a	n/a
3191.612	n/a	RECOG_RESP	1595806	n/a	LTP151	ltpFR	5	3	n/a	JUPITER	765	0	n/a	n/a	n/a	n/a	n/a	n/a	n/a
3192.542	n/a	RECOG_CONF	1596271	n/a	LTP151	ltpFR	5	3	n/a	JUPITER	765	n/a	5	n/a	n/a	n/a	n/a	n/a	n/a
3194.104	n/a	RECOG_LURE	1597052	n/a	LTP151	ltpFR	5	3	n/a	ASH	44	0	4	n/a	n/a	n/a	n/a	n/a	n/a
3194.964	n/a	RECOG_RESP	1597482	n/a	LTP151	ltpFR	5	3	n/a	ASH	44	0	n/a	n/a	n/a	n/a	n/a	n/a	n/a
3196.054	n/a	RECOG_CONF	1598027	n/a	LTP151	ltpFR	5	3	n/a	ASH	44	n/a	4	n/a	n/a	n/a	n/a	n/a	n/a
3197.636	n/a	RECOG_TARGET	1598818	n/a	LTP151	ltpFR	5	3	1	FAMILY	550	1	5	1	n/a	n/a	n/a	n/a	n/a
3198.47	n/a	RECOG_RESP	1599235	n/a	LTP151	ltpFR	5	3	1	FAMILY	550	1	n/a	1	n/a	n/a	n/a	n/a	n/a
3199.502	n/a	RECOG_CONF	1599751	n/a	LTP151	ltpFR	5	3	1	FAMILY	550	n/a	5	1	n/a	n/a	n/a	n/a	n/a
3201.11	n/a	RECOG_TARGET	1600555	n/a	LTP151	ltpFR	5	3	-1	SADDLE	1221	1	5	-1	n/a	n/a	n/a	n/a	n/a
3201.886	n/a	RECOG_RESP	1600943	n/a	LTP151	ltpFR	5	3	-1	SADDLE	1221	1	n/a	-1	n/a	n/a	n/a	n/a	n/a
3203.0	n/a	RECOG_CONF	1601500	n/a	LTP151	ltpFR	5	3	-1	SADDLE	1221	n/a	5	-1	n/a	n/a	n/a	n/a	n/a
3204.776	n/a	RECOG_TARGET	1602388	n/a	LTP151	ltpFR	5	3	-1	GUM	672	1	5	-1	n/a	n/a	n/a	n/a	n/a
3205.428	n/a	RECOG_RESP	1602714	n/a	LTP151	ltpFR	5	3	-1	GUM	672	1	n/a	-1	n/a	n/a	n/a	n/a	n/a
3206.484	n/a	RECOG_CONF	1603242	n/a	LTP151	ltpFR	5	3	-1	GUM	672	n/a	5	-1	n/a	n/a	n/a	n/a	n/a
3208.208	n/a	RECOG_LURE	1604104	n/a	LTP151	ltpFR	5	3	n/a	COOLER	375	0	3	n/a	n/a	n/a	n/a	n/a	n/a
3209.236	n/a	RECOG_RESP	1604618	n/a	LTP151	ltpFR	5	3	n/a	COOLER	375	0	n/a	n/a	n/a	n/a	n/a	n/a	n/a
3210.238	n/a	RECOG_CONF	1605119	n/a	LTP151	ltpFR	5	3	n/a	COOLER	375	n/a	3	n/a	n/a	n/a	n/a	n/a	n/a
3211.872	n/a	RECOG_LURE	1605936	n/a	LTP151	ltpFR	5	3	n/a	OMELET	976	0	3	n/a	n/a	n/a	n/a	n/a	n/a
3212.738	n/a	RECOG_RESP	1606369	n/a	LTP151	ltpFR	5	3	n/a	OMELET	976	0	n/a	n/a	n/a	n/a	n/a	n/a	n/a
3213.872	n/a	RECOG_CONF	1606936	n/a	LTP151	ltpFR	5	3	n/a	OMELET	976	n/a	3	n/a	n/a	n/a	n/a	n/a	n/a
3215.514	n/a	RECOG_TARGET	1607757	n/a	LTP151	ltpFR	5	3	0	SQUID	1361	1	5	1	n/a	n/a	n/a	n/a	n/a
3216.348	n/a	RECOG_RESP	1608174	n/a	LTP151	ltpFR	5	3	0	SQUID	1361	1	n/a	1	n/a	n/a	n/a	n/a	n/a
3217.462	n/a	RECOG_CONF	1608731	n/a	LTP151	ltpFR	5	3	0	SQUID	1361	n/a	5	1	n/a	n/a	n/a	n/a	n/a
3219.104	n/a	RECOG_TARGET	1609552	n/a	LTP151	ltpFR	5	3	0	MAGAZINE	853	1	5	1	n/a	n/a	n/a	n/a	n/a
3219.89	n/a	RECOG_RESP	1609945	n/a	LTP151	ltpFR	5	3	0	MAGAZINE	853	1	n/a	1	n/a	n/a	n/a	n/a	n/a
3220.916	n/a	RECOG_CONF	1610458	n/a	LTP151	ltpFR	5	3	0	MAGAZINE	853	n/a	5	1	n/a	n/a	n/a	n/a	n/a
3222.618	n/a	RECOG_LURE	1611309	n/a	LTP151	ltpFR	5	3	n/a	FORT	595	0	3	n/a	n/a	n/a	n/a	n/a	n/a
3224.522	n/a	RECOG_RESP	1612261	n/a	LTP151	ltpFR	5	3	n/a	FORT	595	0	n/a	n/a	n/a	n/a	n/a	n/a	n/a
3225.646	n/a	RECOG_CONF	1612823	n/a	LTP151	ltpFR	5	3	n/a	FORT	595	n/a	3	n/a	n/a	n/a	n/a	n/a	n/a
3227.284	n/a	RECOG_LURE	1613642	n/a	LTP151	ltpFR	5	3	n/a	CANYON	235	0	5	n/a	n/a	n/a	n/a	n/a	n/a
3228.142	n/a	RECOG_RESP	1614071	n/a	LTP151	ltpFR	5	3	n/a	CANYON	235	0	n/a	n/a	n/a	n/a	n/a	n/a	n/a
3229.084	n/a	RECOG_CONF	1614542	n/a	LTP151	ltpFR	5	3	n/a	CANYON	235	n/a	5	n/a	n/a	n/a	n/a	n/a	n/a
3234.806	n/a	REC_START	1617403	n/a	LTP151	ltpFR	5	4	n/a	n/a	n/a	n/a	n/a	n/a	n/a	n/a	n/a	n/a	n/a
3234.842	n/a	RECOG_TARGET	1617421	n/a	LTP151	ltpFR	5	4	0	MONK	910	1	5	1	n/a	n/a	n/a	n/a	n/a
3235.56	n/a	RECOG_RESP	1617780	n/a	LTP151	ltpFR	5	4	0	MONK	910	1	n/a	1	n/a	n/a	n/a	n/a	n/a
3236.594	n/a	RECOG_CONF	1618297	n/a	LTP151	ltpFR	5	4	0	MONK	910	n/a	5	1	n/a	n/a	n/a	n/a	n/a
3238.124	n/a	RECOG_TARGET	1619062	n/a	LTP151	ltpFR	5	4	-1	FLASHLIGHT	575	1	5	-1	n/a	n/a	n/a	n/a	n/a
3238.886	n/a	RECOG_RESP	1619443	n/a	LTP151	ltpFR	5	4	-1	FLASHLIGHT	575	1	n/a	-1	n/a	n/a	n/a	n/a	n/a
3239.918	n/a	RECOG_CONF	1619959	n/a	LTP151	ltpFR	5	4	-1	FLASHLIGHT	575	n/a	5	-1	n/a	n/a	n/a	n/a	n/a
3241.572	n/a	RECOG_TARGET	1620786	n/a	LTP151	ltpFR	5	4	0	PLANT	1083	1	5	1	n/a	n/a	n/a	n/a	n/a
3242.192	n/a	RECOG_RESP	1621096	n/a	LTP151	ltpFR	5	4	0	PLANT	1083	1	n/a	1	n/a	n/a	n/a	n/a	n/a
3243.252	n/a	RECOG_CONF	1621626	n/a	LTP151	ltpFR	5	4	0	PLANT	1083	n/a	5	1	n/a	n/a	n/a	n/a	n/a
3245.012	n/a	RECOG_LURE	1622506	n/a	LTP151	ltpFR	5	4	n/a	GUEST	669	0	2	n/a	n/a	n/a	n/a	n/a	n/a
3247.07	n/a	RECOG_RESP	1623535	n/a	LTP151	ltpFR	5	4	n/a	GUEST	669	0	n/a	n/a	n/a	n/a	n/a	n/a	n/a
3248.156	n/a	RECOG_CONF	1624078	n/a	LTP151	ltpFR	5	4	n/a	GUEST	669	n/a	2	n/a	n/a	n/a	n/a	n/a	n/a
3249.652	n/a	RECOG_TARGET	1624826	n/a	LTP151	ltpFR	5	4	0	DOVE	491	1	5	0	n/a	n/a	n/a	n/a	n/a
3250.38	n/a	RECOG_RESP	1625190	n/a	LTP151	ltpFR	5	4	0	DOVE	491	1	n/a	0	n/a	n/a	n/a	n/a	n/a
3251.462	n/a	RECOG_CONF	1625731	n/a	LTP151	ltpFR	5	4	0	DOVE	491	n/a	5	0	n/a	n/a	n/a	n/a	n/a
3252.928	n/a	RECOG_TARGET	1626464	n/a	LTP151	ltpFR	5	4	0	SHOVEL	1295	1	5	1	n/a	n/a	n/a	n/a	n/a
3254.428	n/a	RECOG_RESP	1627214	n/a	LTP151	ltpFR	5	4	0	SHOVEL	1295	1	n/a	1	n/a	n/a	n/a	n/a	n/a
3255.438	n/a	RECOG_CONF	1627719	n/a	LTP151	ltpFR	5	4	0	SHOVEL	1295	n/a	5	1	n/a	n/a	n/a	n/a	n/a
3257.052	n/a	RECOG_TARGET	1628526	n/a	LTP151	ltpFR	5	4	1	ROBOT	1200	1	5	0	n/a	n/a	n/a	n/a	n/a
3257.646	n/a	RECOG_RESP	1628823	n/a	LTP151	ltpFR	5	4	1	ROBOT	1200	1	n/a	0	n/a	n/a	n/a	n/a	n/a
3258.546	n/a	RECOG_CONF	1629273	n/a	LTP151	ltpFR	5	4	1	ROBOT	1200	n/a	5	0	n/a	n/a	n/a	n/a	n/a
3260.2	n/a	RECOG_TARGET	1630100	n/a	LTP151	ltpFR	5	4	0	GOO	648	1	5	0	n/a	n/a	n/a	n/a	n/a
3260.922	n/a	RECOG_RESP	1630461	n/a	LTP151	ltpFR	5	4	0	GOO	648	1	n/a	0	n/a	n/a	n/a	n/a	n/a
3261.808	n/a	RECOG_CONF	1630904	n/a	LTP151	ltpFR	5	4	0	GOO	648	n/a	5	0	n/a	n/a	n/a	n/a	n/a
3263.456	n/a	RECOG_LURE	1631728	n/a	LTP151	ltpFR	5	4	n/a	SKETCH	1315	0	3	n/a	n/a	n/a	n/a	n/a	n/a
3265.376	n/a	RECOG_RESP	1632688	n/a	LTP151	ltpFR	5	4	n/a	SKETCH	1315	0	n/a	n/a	n/a	n/a	n/a	n/a	n/a
3266.42	n/a	RECOG_CONF	1633210	n/a	LTP151	ltpFR	5	4	n/a	SKETCH	1315	n/a	3	n/a	n/a	n/a	n/a	n/a	n/a
3267.998	n/a	RECOG_LURE	1633999	n/a	LTP151	ltpFR	5	4	n/a	KNIFE	785	0	3	n/a	n/a	n/a	n/a	n/a	n/a
3270.172	n/a	RECOG_RESP	1635086	n/a	LTP151	ltpFR	5	4	n/a	KNIFE	785	0	n/a	n/a	n/a	n/a	n/a	n/a	n/a
3271.264	n/a	RECOG_CONF	1635632	n/a	LTP151	ltpFR	5	4	n/a	KNIFE	785	n/a	3	n/a	n/a	n/a	n/a	n/a	n/a
3272.856	n/a	RECOG_TARGET	1636428	n/a	LTP151	ltpFR	5	4	-1	COB	334	1	5	-1	n/a	n/a	n/a	n/a	n/a
3274.61	n/a	RECOG_RESP	1637305	n/a	LTP151	ltpFR	5	4	-1	COB	334	1	n/a	-1	n/a	n/a	n/a	n/a	n/a
3276.22	n/a	RECOG_CONF	1638110	n/a	LTP151	ltpFR	5	4	-1	COB	334	n/a	5	-1	n/a	n/a	n/a	n/a	n/a
3277.77	n/a	RECOG_LURE	1638885	n/a	LTP151	ltpFR	5	4	n/a	PURSE	1145	0	2	n/a	n/a	n/a	n/a	n/a	n/a
3278.848	n/a	RECOG_RESP	1639424	n/a	LTP151	ltpFR	5	4	n/a	PURSE	1145	0	n/a	n/a	n/a	n/a	n/a	n/a	n/a
3280.138	n/a	RECOG_CONF	1640069	n/a	LTP151	ltpFR	5	4	n/a	PURSE	1145	n/a	2	n/a	n/a	n/a	n/a	n/a	n/a
3281.534	n/a	RECOG_TARGET	1640767	n/a	LTP151	ltpFR	5	4	-1	STRAW	1390	1	5	-1	n/a	n/a	n/a	n/a	n/a
3282.286	n/a	RECOG_RESP	1641143	n/a	LTP151	ltpFR	5	4	-1	STRAW	1390	1	n/a	-1	n/a	n/a	n/a	n/a	n/a
3283.332	n/a	RECOG_CONF	1641666	n/a	LTP151	ltpFR	5	4	-1	STRAW	1390	n/a	5	-1	n/a	n/a	n/a	n/a	n/a
3284.834	n/a	RECOG_TARGET	1642417	n/a	LTP151	ltpFR	5	4	0	BUILDER	190	1	5	1	n/a	n/a	n/a	n/a	n/a
3285.51	n/a	RECOG_RESP	1642755	n/a	LTP151	ltpFR	5	4	0	BUILDER	190	1	n/a	1	n/a	n/a	n/a	n/a	n/a
3286.604	n/a	RECOG_CONF	1643302	n/a	LTP151	ltpFR	5	4	0	BUILDER	190	n/a	5	1	n/a	n/a	n/a	n/a	n/a
3288.232	n/a	RECOG_TARGET	1644116	n/a	LTP151	ltpFR	5	4	-1	MEDICINE	886	1	5	-1	n/a	n/a	n/a	n/a	n/a
3289.59	n/a	RECOG_RESP	1644795	n/a	LTP151	ltpFR	5	4	-1	MEDICINE	886	1	n/a	-1	n/a	n/a	n/a	n/a	n/a
3290.67	n/a	RECOG_CONF	1645335	n/a	LTP151	ltpFR	5	4	-1	MEDICINE	886	n/a	5	-1	n/a	n/a	n/a	n/a	n/a
3292.158	n/a	RECOG_TARGET	1646079	n/a	LTP151	ltpFR	5	4	1	SCENERY	1247	1	5	0	n/a	n/a	n/a	n/a	n/a
3293.074	n/a	RECOG_RESP	1646537	n/a	LTP151	ltpFR	5	4	1	SCENERY	1247	1	n/a	0	n/a	n/a	n/a	n/a	n/a
3294.098	n/a	RECOG_CONF	1647049	n/a	LTP151	ltpFR	5	4	1	SCENERY	1247	n/a	5	0	n/a	n/a	n/a	n/a	n/a
3295.682	n/a	RECOG_LURE	1647841	n/a	LTP151	ltpFR	5	4	n/a	VIDEO	1564	0	3	n/a	n/a	n/a	n/a	n/a	n/a
3296.894	n/a	RECOG_RESP	1648447	n/a	LTP151	ltpFR	5	4	n/a	VIDEO	1564	0	n/a	n/a	n/a	n/a	n/a	n/a	n/a
3297.88	n/a	RECOG_CONF	1648940	n/a	LTP151	ltpFR	5	4	n/a	VIDEO	1564	n/a	3	n/a	n/a	n/a	n/a	n/a	n/a
3299.428	n/a	RECOG_TARGET	1649714	n/a	LTP151	ltpFR	5	4	1	SURF	1412	1	5	0	n/a	n/a	n/a	n/a	n/a
3300.202	n/a	RECOG_RESP	1650101	n/a	LTP151	ltpFR	5	4	1	SURF	1412	1	n/a	0	n/a	n/a	n/a	n/a	n/a
3301.09	n/a	RECOG_CONF	1650545	n/a	LTP151	ltpFR	5	4	1	SURF	1412	n/a	5	0	n/a	n/a	n/a	n/a	n/a
3302.754	n/a	RECOG_TARGET	1651377	n/a	LTP151	ltpFR	5	4	0	MUSTARD	935	1	5	0	n/a	n/a	n/a	n/a	n/a
3303.51	n/a	RECOG_RESP	1651755	n/a	LTP151	ltpFR	5	4	0	MUSTARD	935	1	n/a	0	n/a	n/a	n/a	n/a	n/a
3304.564	n/a	RECOG_CONF	1652282	n/a	LTP151	ltpFR	5	4	0	MUSTARD	935	n/a	5	0	n/a	n/a	n/a	n/a	n/a
3306.136	n/a	RECOG_TARGET	1653068	n/a	LTP151	ltpFR	5	4	-1	TUXEDO	1525	1	5	-1	n/a	n/a	n/a	n/a	n/a
3306.824	n/a	RECOG_RESP	1653412	n/a	LTP151	ltpFR	5	4	-1	TUXEDO	1525	1	n/a	-1	n/a	n/a	n/a	n/a	n/a
3307.788	n/a	RECOG_CONF	1653894	n/a	LTP151	ltpFR	5	4	-1	TUXEDO	1525	n/a	5	-1	n/a	n/a	n/a	n/a	n/a
3312.538	n/a	REC_START	1656269	n/a	LTP151	ltpFR	5	5	n/a	n/a	n/a	n/a	n/a	n/a	n/a	n/a	n/a	n/a	n/a
3312.576	n/a	RECOG_TARGET	1656288	n/a	LTP151	ltpFR	5	5	-1	COMMITTEE	355	1	5	-1	n/a	n/a	n/a	n/a	n/a
3313.422	n/a	RECOG_RESP	1656711	n/a	LTP151	ltpFR	5	5	-1	COMMITTEE	355	1	n/a	-1	n/a	n/a	n/a	n/a	n/a
3314.492	n/a	RECOG_CONF	1657246	n/a	LTP151	ltpFR	5	5	-1	COMMITTEE	355	n/a	5	-1	n/a	n/a	n/a	n/a	n/a
3316.108	n/a	RECOG_TARGET	1658054	n/a	LTP151	ltpFR	5	5	0	TORNADO	1485	1	5	1	n/a	n/a	n/a	n/a	n/a
3316.838	n/a	RECOG_RESP	1658419	n/a	LTP151	ltpFR	5	5	0	TORNADO	1485	1	n/a	1	n/a	n/a	n/a	n/a	n/a
3317.85	n/a	RECOG_CONF	1658925	n/a	LTP151	ltpFR	5	5	0	TORNADO	1485	n/a	5	1	n/a	n/a	n/a	n/a	n/a
3319.248	n/a	RECOG_TARGET	1659624	n/a	LTP151	ltpFR	5	5	0	LIBRARY	816	1	5	1	n/a	n/a	n/a	n/a	n/a
3319.984	n/a	RECOG_RESP	1659992	n/a	LTP151	ltpFR	5	5	0	LIBRARY	816	1	n/a	1	n/a	n/a	n/a	n/a	n/a
3320.964	n/a	RECOG_CONF	1660482	n/a	LTP151	ltpFR	5	5	0	LIBRARY	816	n/a	5	1	n/a	n/a	n/a	n/a	n/a
3322.604	n/a	RECOG_TARGET	1661302	n/a	LTP151	ltpFR	5	5	1	VET	1560	1	5	1	n/a	n/a	n/a	n/a	n/a
3323.284	n/a	RECOG_RESP	1661642	n/a	LTP151	ltpFR	5	5	1	VET	1560	1	n/a	1	n/a	n/a	n/a	n/a	n/a
3324.336	n/a	RECOG_CONF	1662168	n/a	LTP151	ltpFR	5	5	1	VET	1560	n/a	5	1	n/a	n/a	n/a	n/a	n/a
3325.804	n/a	RECOG_TARGET	1662902	n/a	LTP151	ltpFR	5	5	0	KETTLE	772	1	5	0	n/a	n/a	n/a	n/a	n/a
3326.448	n/a	RECOG_RESP	1663224	n/a	LTP151	ltpFR	5	5	0	KETTLE	772	1	n/a	0	n/a	n/a	n/a	n/a	n/a
3327.406	n/a	RECOG_CONF	1663703	n/a	LTP151	ltpFR	5	5	0	KETTLE	772	n/a	5	0	n/a	n/a	n/a	n/a	n/a
3328.988	n/a	RECOG_TARGET	1664494	n/a	LTP151	ltpFR	5	5	0	THUMB	1462	1	5	0	n/a	n/a	n/a	n/a	n/a
3329.846	n/a	RECOG_RESP	1664923	n/a	LTP151	ltpFR	5	5	0	THUMB	1462	1	n/a	0	n/a	n/a	n/a	n/a	n/a
3330.804	n/a	RECOG_CONF	1665402	n/a	LTP151	ltpFR	5	5	0	THUMB	1462	n/a	5	0	n/a	n/a	n/a	n/a	n/a
3332.312	n/a	RECOG_TARGET	1666156	n/a	LTP151	ltpFR	5	5	1	LAGOON	795	1	5	1	n/a	n/a	n/a	n/a	n/a
3333.038	n/a	RECOG_RESP	1666519	n/a	LTP151	ltpFR	5	5	1	LAGOON	795	1	n/a	1	n/a	n/a	n/a	n/a	n/a
3333.992	n/a	RECOG_CONF	1666996	n/a	LTP151	ltpFR	5	5	1	LAGOON	795	n/a	5	1	n/a	n/a	n/a	n/a	n/a
3335.71	n/a	RECOG_TARGET	1667855	n/a	LTP151	ltpFR	5	5	1	EDITORIAL	517	1	5	0	n/a	n/a	n/a	n/a	n/a
3338.144	n/a	RECOG_RESP	1669072	n/a	LTP151	ltpFR	5	5	1	EDITORIAL	517	1	n/a	0	n/a	n/a	n/a	n/a	n/a
3339.058	n/a	RECOG_CONF	1669529	n/a	LTP151	ltpFR	5	5	1	EDITORIAL	517	n/a	5	0	n/a	n/a	n/a	n/a	n/a
3340.742	n/a	RECOG_LURE	1670371	n/a	LTP151	ltpFR	5	5	n/a	BOOT	150	0	3	n/a	n/a	n/a	n/a	n/a	n/a
3341.682	n/a	RECOG_RESP	1670841	n/a	LTP151	ltpFR	5	5	n/a	BOOT	150	0	n/a	n/a	n/a	n/a	n/a	n/a	n/a
3342.836	n/a	RECOG_CONF	1671418	n/a	LTP151	ltpFR	5	5	n/a	BOOT	150	n/a	3	n/a	n/a	n/a	n/a	n/a	n/a
3344.308	n/a	RECOG_TARGET	1672154	n/a	LTP151	ltpFR	5	5	0	COMPANION	357	1	5	1	n/a	n/a	n/a	n/a	n/a
3345.596	n/a	RECOG_RESP	1672798	n/a	LTP151	ltpFR	5	5	0	COMPANION	357	1	n/a	1	n/a	n/a	n/a	n/a	n/a
3346.588	n/a	RECOG_CONF	1673294	n/a	LTP151	ltpFR	5	5	0	COMPANION	357	n/a	5	1	n/a	n/a	n/a	n/a	n/a
3348.248	n/a	RECOG_TARGET	1674124	n/a	LTP151	ltpFR	5	5	0	PUBLISHER	1137	1	5	1	n/a	n/a	n/a	n/a	n/a
3349.982	n/a	RECOG_RESP	1674991	n/a	LTP151	ltpFR	5	5	0	PUBLISHER	1137	1	n/a	1	n/a	n/a	n/a	n/a	n/a
3350.956	n/a	RECOG_CONF	1675478	n/a	LTP151	ltpFR	5	5	0	PUBLISHER	1137	n/a	5	1	n/a	n/a	n/a	n/a	n/a
3352.496	n/a	RECOG_TARGET	1676248	n/a	LTP151	ltpFR	5	5	0	SHRINE	1298	1	5	1	n/a	n/a	n/a	n/a	n/a
3353.274	n/a	RECOG_RESP	1676637	n/a	LTP151	ltpFR	5	5	0	SHRINE	1298	1	n/a	1	n/a	n/a	n/a	n/a	n/a
3354.336	n/a	RECOG_CONF	1677168	n/a	LTP151	ltpFR	5	5	0	SHRINE	1298	n/a	5	1	n/a	n/a	n/a	n/a	n/a
3355.912	n/a	RECOG_LURE	1677956	n/a	LTP151	ltpFR	5	5	n/a	DESSERT	453	0	4	n/a	n/a	n/a	n/a	n/a	n/a
3357.222	n/a	RECOG_RESP	1678611	n/a	LTP151	ltpFR	5	5	n/a	DESSERT	453	0	n/a	n/a	n/a	n/a	n/a	n/a	n/a
3358.244	n/a	RECOG_CONF	1679122	n/a	LTP151	ltpFR	5	5	n/a	DESSERT	453	n/a	4	n/a	n/a	n/a	n/a	n/a	n/a
3359.794	n/a	RECOG_TARGET	1679897	n/a	LTP151	ltpFR	5	5	1	PROFESSOR	1131	1	5	1	n/a	n/a	n/a	n/a	n/a
3360.716	n/a	RECOG_RESP	1680358	n/a	LTP151	ltpFR	5	5	1	PROFESSOR	1131	1	n/a	1	n/a	n/a	n/a	n/a	n/a
3361.684	n/a	RECOG_CONF	1680842	n/a	LTP151	ltpFR	5	5	1	PROFESSOR	1131	n/a	5	1	n/a	n/a	n/a	n/a	n/a
3363.268	n/a	RECOG_LURE	1681634	n/a	LTP151	ltpFR	5	5	n/a	COWARD	394	0	5	n/a	n/a	n/a	n/a	n/a	n/a
3364.098	n/a	RECOG_RESP	1682049	n/a	LTP151	ltpFR	5	5	n/a	COWARD	394	0	n/a	n/a	n/a	n/a	n/a	n/a	n/a
3365.116	n/a	RECOG_CONF	1682558	n/a	LTP151	ltpFR	5	5	n/a	COWARD	394	n/a	5	n/a	n/a	n/a	n/a	n/a	n/a
3366.566	n/a	RECOG_TARGET	1683283	n/a	LTP151	ltpFR	5	5	0	CRAYON	401	1	5	0	n/a	n/a	n/a	n/a	n/a
3367.456	n/a	RECOG_RESP	1683728	n/a	LTP151	ltpFR	5	5	0	CRAYON	401	1	n/a	0	n/a	n/a	n/a	n/a	n/a
3368.718	n/a	RECOG_CONF	1684359	n/a	LTP151	ltpFR	5	5	0	CRAYON	401	n/a	5	0	n/a	n/a	n/a	n/a	n/a
3370.158	n/a	RECOG_TARGET	1685079	n/a	LTP151	ltpFR	5	5	-1	SPOON	1357	1	5	-1	n/a	n/a	n/a	n/a	n/a
3370.846	n/a	RECOG_RESP	1685423	n/a	LTP151	ltpFR	5	5	-1	SPOON	1357	1	n/a	-1	n/a	n/a	n/a	n/a	n/a
3371.902	n/a	RECOG_CONF	1685951	n/a	LTP151	ltpFR	5	5	-1	SPOON	1357	n/a	5	-1	n/a	n/a	n/a	n/a	n/a
3373.456	n/a	RECOG_LURE	1686728	n/a	LTP151	ltpFR	5	5	n/a	GORILLA	650	0	4	n/a	n/a	n/a	n/a	n/a	n/a
3375.396	n/a	RECOG_RESP	1687698	n/a	LTP151	ltpFR	5	5	n/a	GORILLA	650	0	n/a	n/a	n/a	n/a	n/a	n/a	n/a
3376.41	n/a	RECOG_CONF	1688205	n/a	LTP151	ltpFR	5	5	n/a	GORILLA	650	n/a	4	n/a	n/a	n/a	n/a	n/a	n/a
3378.064	n/a	RECOG_TARGET	1689032	n/a	LTP151	ltpFR	5	5	0	POWDER	1117	1	5	0	n/a	n/a	n/a	n/a	n/a
3378.836	n/a	RECOG_RESP	1689418	n/a	LTP151	ltpFR	5	5	0	POWDER	1117	1	n/a	0	n/a	n/a	n/a	n/a	n/a
3379.758	n/a	RECOG_CONF	1689879	n/a	LTP151	ltpFR	5	5	0	POWDER	1117	n/a	5	0	n/a	n/a	n/a	n/a	n/a
3381.388	n/a	RECOG_TARGET	1690694	n/a	LTP151	ltpFR	5	5	1	KING	777	1	5	1	n/a	n/a	n/a	n/a	n/a
3382.346	n/a	RECOG_RESP	1691173	n/a	LTP151	ltpFR	5	5	1	KING	777	1	n/a	1	n/a	n/a	n/a	n/a	n/a
3383.376	n/a	RECOG_CONF	1691688	n/a	LTP151	ltpFR	5	5	1	KING	777	n/a	5	1	n/a	n/a	n/a	n/a	n/a
3387.776	n/a	REC_START	1693888	n/a	LTP151	ltpFR	5	6	n/a	n/a	n/a	n/a	n/a	n/a	n/a	n/a	n/a	n/a	n/a
3387.812	n/a	RECOG_TARGET	1693906	n/a	LTP151	ltpFR	5	6	1	PELICAN	1039	1	5	1	n/a	n/a	n/a	n/a	n/a
3388.916	n/a	RECOG_RESP	1694458	n/a	LTP151	ltpFR	5	6	1	PELICAN	1039	1	n/a	1	n/a	n/a	n/a	n/a	n/a
3389.842	n/a	RECOG_CONF	1694921	n/a	LTP151	ltpFR	5	6	1	PELICAN	1039	n/a	5	1	n/a	n/a	n/a	n/a	n/a
3391.442	n/a	RECOG_LURE	1695721	n/a	LTP151	ltpFR	5	6	n/a	MINT	898	0	5	n/a	n/a	n/a	n/a	n/a	n/a
3392.34	n/a	RECOG_RESP	1696170	n/a	LTP151	ltpFR	5	6	n/a	MINT	898	0	n/a	n/a	n/a	n/a	n/a	n/a	n/a
3393.498	n/a	RECOG_CONF	1696749	n/a	LTP151	ltpFR	5	6	n/a	MINT	898	n/a	5	n/a	n/a	n/a	n/a	n/a	n/a
3394.96	n/a	RECOG_TARGET	1697480	n/a	LTP151	ltpFR	5	6	1	MANSION	864	1	5	0	n/a	n/a	n/a	n/a	n/a
3395.876	n/a	RECOG_RESP	1697938	n/a	LTP151	ltpFR	5	6	1	MANSION	864	1	n/a	0	n/a	n/a	n/a	n/a	n/a
3396.87	n/a	RECOG_CONF	1698435	n/a	LTP151	ltpFR	5	6	1	MANSION	864	n/a	5	0	n/a	n/a	n/a	n/a	n/a
3398.382	n/a	RECOG_TARGET	1699191	n/a	LTP151	ltpFR	5	6	1	FILM	565	1	5	0	n/a	n/a	n/a	n/a	n/a
3399.198	n/a	RECOG_RESP	1699599	n/a	LTP151	ltpFR	5	6	1	FILM	565	1	n/a	0	n/a	n/a	n/a	n/a	n/a
3400.148	n/a	RECOG_CONF	1700074	n/a	LTP151	ltpFR	5	6	1	FILM	565	n/a	5	0	n/a	n/a	n/a	n/a	n/a
3401.816	n/a	RECOG_TARGET	1700908	n/a	LTP151	ltpFR	5	6	1	KANGAROO	768	1	5	1	n/a	n/a	n/a	n/a	n/a
3403.112	n/a	RECOG_RESP	1701556	n/a	LTP151	ltpFR	5	6	1	KANGAROO	768	1	n/a	1	n/a	n/a	n/a	n/a	n/a
3404.006	n/a	RECOG_CONF	1702003	n/a	LTP151	ltpFR	5	6	1	KANGAROO	768	n/a	5	1	n/a	n/a	n/a	n/a	n/a
3405.732	n/a	RECOG_TARGET	1702866	n/a	LTP151	ltpFR	5	6	0	STUMP	1396	1	5	1	n/a	n/a	n/a	n/a	n/a
3406.558	n/a	RECOG_RESP	1703279	n/a	LTP151	ltpFR	5	6	0	STUMP	1396	1	n/a	1	n/a	n/a	n/a	n/a	n/a
3407.616	n/a	RECOG_CONF	1703808	n/a	LTP151	ltpFR	5	6	0	STUMP	1396	n/a	5	1	n/a	n/a	n/a	n/a	n/a
3409.28	n/a	RECOG_LURE	1704640	n/a	LTP151	ltpFR	5	6	n/a	BASKETBALL	96	0	3	n/a	n/a	n/a	n/a	n/a	n/a
3410.416	n/a	RECOG_RESP	1705208	n/a	LTP151	ltpFR	5	6	n/a	BASKETBALL	96	0	n/a	n/a	n/a	n/a	n/a	n/a	n/a
3411.432	n/a	RECOG_CONF	1705716	n/a	LTP151	ltpFR	5	6	n/a	BASKETBALL	96	n/a	3	n/a	n/a	n/a	n/a	n/a	n/a
3412.87	n/a	RECOG_TARGET	1706435	n/a	LTP151	ltpFR	5	6	0	ADULT	8	1	5	1	n/a	n/a	n/a	n/a	n/a
3413.582	n/a	RECOG_RESP	1706791	n/a	LTP151	ltpFR	5	6	0	ADULT	8	1	n/a	1	n/a	n/a	n/a	n/a	n/a
3414.59	n/a	RECOG_CONF	1707295	n/a	LTP151	ltpFR	5	6	0	ADULT	8	n/a	5	1	n/a	n/a	n/a	n/a	n/a
3416.07	n/a	RECOG_TARGET	1708035	n/a	LTP151	ltpFR	5	6	-1	THORN	1459	1	5	-1	n/a	n/a	n/a	n/a	n/a
3416.79	n/a	RECOG_RESP	1708395	n/a	LTP151	ltpFR	5	6	-1	THORN	1459	1	n/a	-1	n/a	n/a	n/a	n/a	n/a
3417.706	n/a	RECOG_CONF	1708853	n/a	LTP151	ltpFR	5	6	-1	THORN	1459	n/a	5	-1	n/a	n/a	n/a	n/a	n/a
3419.294	n/a	RECOG_TARGET	1709647	n/a	LTP151	ltpFR	5	6	0	FEATHER	557	1	5	0	n/a	n/a	n/a	n/a	n/a
3420.064	n/a	RECOG_RESP	1710032	n/a	LTP151	ltpFR	5	6	0	FEATHER	557	1	n/a	0	n/a	n/a	n/a	n/a	n/a
3420.992	n/a	RECOG_CONF	1710496	n/a	LTP151	ltpFR	5	6	0	FEATHER	557	n/a	5	0	n/a	n/a	n/a	n/a	n/a
3422.608	n/a	RECOG_TARGET	1711304	n/a	LTP151	ltpFR	5	6	1	CATERPILLAR	259	1	5	1	n/a	n/a	n/a	n/a	n/a
3423.344	n/a	RECOG_RESP	1711672	n/a	LTP151	ltpFR	5	6	1	CATERPILLAR	259	1	n/a	1	n/a	n/a	n/a	n/a	n/a
3424.3	n/a	RECOG_CONF	1712150	n/a	LTP151	ltpFR	5	6	1	CATERPILLAR	259	n/a	5	1	n/a	n/a	n/a	n/a	n/a
3426.026	n/a	RECOG_TARGET	1713013	n/a	LTP151	ltpFR	5	6	-1	AIRCRAFT	11	1	5	-1	n/a	n/a	n/a	n/a	n/a
3426.798	n/a	RECOG_RESP	1713399	n/a	LTP151	ltpFR	5	6	-1	AIRCRAFT	11	1	n/a	-1	n/a	n/a	n/a	n/a	n/a
3427.838	n/a	RECOG_CONF	1713919	n/a	LTP151	ltpFR	5	6	-1	AIRCRAFT	11	n/a	5	-1	n/a	n/a	n/a	n/a	n/a
3429.448	n/a	RECOG_TARGET	1714724	n/a	LTP151	ltpFR	5	6	0	PRAIRIE	1118	1	5	1	n/a	n/a	n/a	n/a	n/a
3430.418	n/a	RECOG_RESP	1715209	n/a	LTP151	ltpFR	5	6	0	PRAIRIE	1118	1	n/a	1	n/a	n/a	n/a	n/a	n/a
3431.376	n/a	RECOG_CONF	1715688	n/a	LTP151	ltpFR	5	6	0	PRAIRIE	1118	n/a	5	1	n/a	n/a	n/a	n/a	n/a
3433.006	n/a	RECOG_TARGET	1716503	n/a	LTP151	ltpFR	5	6	-1	THICKET	1455	1	5	-1	n/a	n/a	n/a	n/a	n/a
3433.8	n/a	RECOG_RESP	1716900	n/a	LTP151	ltpFR	5	6	-1	THICKET	1455	1	n/a	-1	n/a	n/a	n/a	n/a	n/a
3434.73	n/a	RECOG_CONF	1717365	n/a	LTP151	ltpFR	5	6	-1	THICKET	1455	n/a	5	-1	n/a	n/a	n/a	n/a	n/a
3436.338	n/a	RECOG_TARGET	1718169	n/a	LTP151	ltpFR	5	6	1	WATERFALL	1595	1	5	0	n/a	n/a	n/a	n/a	n/a
3437.142	n/a	RECOG_RESP	1718571	n/a	LTP151	ltpFR	5	6	1	WATERFALL	1595	1	n/a	0	n/a	n/a	n/a	n/a	n/a
3438.178	n/a	RECOG_CONF	1719089	n/a	LTP151	ltpFR	5	6	1	WATERFALL	1595	n/a	5	0	n/a	n/a	n/a	n/a	n/a
3439.528	n/a	RECOG_LURE	1719764	n/a	LTP151	ltpFR	5	6	n/a	CINNAMON	310	0	4	n/a	n/a	n/a	n/a	n/a	n/a
3440.502	n/a	RECOG_RESP	1720251	n/a	LTP151	ltpFR	5	6	n/a	CINNAMON	310	0	n/a	n/a	n/a	n/a	n/a	n/a	n/a
3441.524	n/a	RECOG_CONF	1720762	n/a	LTP151	ltpFR	5	6	n/a	CINNAMON	310	n/a	4	n/a	n/a	n/a	n/a	n/a	n/a
3443.236	n/a	RECOG_TARGET	1721618	n/a	LTP151	ltpFR	5	6	0	CHIMPANZEE	302	1	5	1	n/a	n/a	n/a	n/a	n/a
3443.938	n/a	RECOG_RESP	1721969	n/a	LTP151	ltpFR	5	6	0	CHIMPANZEE	302	1	n/a	1	n/a	n/a	n/a	n/a	n/a
3445.034	n/a	RECOG_CONF	1722517	n/a	LTP151	ltpFR	5	6	0	CHIMPANZEE	302	n/a	5	1	n/a	n/a	n/a	n/a	n/a
3446.552	n/a	RECOG_LURE	1723276	n/a	LTP151	ltpFR	5	6	n/a	SAILOR	1223	1	3	n/a	n/a	n/a	n/a	n/a	n/a
3450.834	n/a	RECOG_RESP	1725417	n/a	LTP151	ltpFR	5	6	n/a	SAILOR	1223	1	n/a	n/a	n/a	n/a	n/a	n/a	n/a
3452.186	n/a	RECOG_CONF	1726093	n/a	LTP151	ltpFR	5	6	n/a	SAILOR	1223	n/a	3	n/a	n/a	n/a	n/a	n/a	n/a
3453.75	n/a	RECOG_LURE	1726875	n/a	LTP151	ltpFR	5	6	n/a	GATE	625	1	2	n/a	n/a	n/a	n/a	n/a	n/a
3456.674	n/a	RECOG_RESP	1728337	n/a	LTP151	ltpFR	5	6	n/a	GATE	625	1	n/a	n/a	n/a	n/a	n/a	n/a	n/a
3458.02	n/a	RECOG_CONF	1729010	n/a	LTP151	ltpFR	5	6	n/a	GATE	625	n/a	2	n/a	n/a	n/a	n/a	n/a	n/a
3459.554	n/a	RECOG_LURE	1729777	n/a	LTP151	ltpFR	5	6	n/a	SHEPHERD	1283	0	3	n/a	n/a	n/a	n/a	n/a	n/a
3460.932	n/a	RECOG_RESP	1730466	n/a	LTP151	ltpFR	5	6	n/a	SHEPHERD	1283	0	n/a	n/a	n/a	n/a	n/a	n/a	n/a
3461.998	n/a	RECOG_CONF	1730999	n/a	LTP151	ltpFR	5	6	n/a	SHEPHERD	1283	n/a	3	n/a	n/a	n/a	n/a	n/a	n/a
3466.072	n/a	REC_START	1733036	n/a	LTP151	ltpFR	5	7	n/a	n/a	n/a	n/a	n/a	n/a	n/a	n/a	n/a	n/a	n/a
3466.104	n/a	RECOG_TARGET	1733052	n/a	LTP151	ltpFR	5	7	0	PIER	1063	1	5	1	n/a	n/a	n/a	n/a	n/a
3467.08	n/a	RECOG_RESP	1733540	n/a	LTP151	ltpFR	5	7	0	PIER	1063	1	n/a	1	n/a	n/a	n/a	n/a	n/a
3468.186	n/a	RECOG_CONF	1734093	n/a	LTP151	ltpFR	5	7	0	PIER	1063	n/a	5	1	n/a	n/a	n/a	n/a	n/a
3469.812	n/a	RECOG_TARGET	1734906	n/a	LTP151	ltpFR	5	7	0	CHIMNEY	301	1	5	1	n/a	n/a	n/a	n/a	n/a
3470.516	n/a	RECOG_RESP	1735258	n/a	LTP151	ltpFR	5	7	0	CHIMNEY	301	1	n/a	1	n/a	n/a	n/a	n/a	n/a
3471.624	n/a	RECOG_CONF	1735812	n/a	LTP151	ltpFR	5	7	0	CHIMNEY	301	n/a	5	1	n/a	n/a	n/a	n/a	n/a
3473.144	n/a	RECOG_TARGET	1736572	n/a	LTP151	ltpFR	5	7	0	DIAPER	459	1	5	0	n/a	n/a	n/a	n/a	n/a
3473.818	n/a	RECOG_RESP	1736909	n/a	LTP151	ltpFR	5	7	0	DIAPER	459	1	n/a	0	n/a	n/a	n/a	n/a	n/a
3474.868	n/a	RECOG_CONF	1737434	n/a	LTP151	ltpFR	5	7	0	DIAPER	459	n/a	5	0	n/a	n/a	n/a	n/a	n/a
3476.26	n/a	RECOG_LURE	1738130	n/a	LTP151	ltpFR	5	7	n/a	SHEET	1279	0	5	n/a	n/a	n/a	n/a	n/a	n/a
3477.254	n/a	RECOG_RESP	1738627	n/a	LTP151	ltpFR	5	7	n/a	SHEET	1279	0	n/a	n/a	n/a	n/a	n/a	n/a	n/a
3478.272	n/a	RECOG_CONF	1739136	n/a	LTP151	ltpFR	5	7	n/a	SHEET	1279	n/a	5	n/a	n/a	n/a	n/a	n/a	n/a
