mstime	trial_type	stim_file	subject	experiment	session	trial	task	item_name	item_num	recog_conf	resp	color_b	color_g	color_r	case	font
0	SESS_START	n/a	LTP095	ltpFR	6	n/a	n/a	n/a	n/a	2	n/a	n/a	n/a	n/a	n/a	n/a
79106	WORD	wordpools/wasnorm_wordpool.txt	LTP095	ltpFR	6	1	1	DRIVER	499	3	1	1	0.412841796875	0.57763671875	upper	../fonts/zerothre.ttf
83306	WORD	wordpools/wasnorm_wordpool.txt	LTP095	ltpFR	6	1	1	WINDSHIELD	1612	n/a	0	1	0.412841796875	0.57763671875	upper	../fonts/zerothre.ttf
87256	WORD	wordpools/wasnorm_wordpool.txt	LTP095	ltpFR	6	1	1	DEER	444	n/a	1	1	0.412841796875	0.57763671875	upper	../fonts/zerothre.ttf
91439	WORD	wordpools/wasnorm_wordpool.txt	LTP095	ltpFR	6	1	1	CROSS	413	n/a	0	1	0.412841796875	0.57763671875	upper	../fonts/zerothre.ttf
95363	WORD	wordpools/wasnorm_wordpool.txt	LTP095	ltpFR	6	1	0	SUBWAY	1400	n/a	1	0	0.5869140625	0.422607421875	lower	../fonts/amplitud.ttf
99221	WORD	wordpools/wasnorm_wordpool.txt	LTP095	ltpFR	6	1	0	COCKTAIL	338	n/a	0	0	0.5869140625	0.422607421875	lower	../fonts/amplitud.ttf
103313	WORD	wordpools/wasnorm_wordpool.txt	LTP095	ltpFR	6	1	0	MUMMY	932	n/a	n/a	0	0.5869140625	0.422607421875	lower	../fonts/amplitud.ttf
106338	SLOW_MSG	n/a	LTP095	ltpFR	6	1	n/a	n/a	n/a	n/a	n/a	n/a	n/a	n/a	n/a	n/a
108962	WORD	wordpools/wasnorm_wordpool.txt	LTP095	ltpFR	6	1	0	DAD	433	n/a	1	0	0.5869140625	0.422607421875	lower	../fonts/amplitud.ttf
113095	WORD	wordpools/wasnorm_wordpool.txt	LTP095	ltpFR	6	1	1	MACHINE	852	n/a	0	1	0.412841796875	0.57763671875	upper	../fonts/zerothre.ttf
116962	WORD	wordpools/wasnorm_wordpool.txt	LTP095	ltpFR	6	1	1	RAILROAD	1162	n/a	0	1	0.412841796875	0.57763671875	upper	../fonts/zerothre.ttf
121036	WORD	wordpools/wasnorm_wordpool.txt	LTP095	ltpFR	6	1	0	CHIEF	298	n/a	2	0	0.5869140625	0.422607421875	lower	../fonts/amplitud.ttf
123203	KEY_MSG	n/a	LTP095	ltpFR	6	1	n/a	n/a	n/a	n/a	n/a	n/a	n/a	n/a	n/a	n/a
125770	WORD	wordpools/wasnorm_wordpool.txt	LTP095	ltpFR	6	1	0	JUG	762	n/a	1	0	0.5869140625	0.422607421875	lower	../fonts/amplitud.ttf
129961	WORD	wordpools/wasnorm_wordpool.txt	LTP095	ltpFR	6	1	0	STAPLE	1371	n/a	0	0	0.5869140625	0.422607421875	lower	../fonts/amplitud.ttf
134085	WORD	wordpools/wasnorm_wordpool.txt	LTP095	ltpFR	6	1	0	CITRUS	313	n/a	0	0	0.5869140625	0.422607421875	lower	../fonts/amplitud.ttf
138027	WORD	wordpools/wasnorm_wordpool.txt	LTP095	ltpFR	6	1	1	PERFUME	1049	n/a	0	1	0.412841796875	0.57763671875	upper	../fonts/zerothre.ttf
141843	WORD	wordpools/wasnorm_wordpool.txt	LTP095	ltpFR	6	1	1	EXPERT	543	n/a	1	1	0.412841796875	0.57763671875	upper	../fonts/zerothre.ttf
147385	REC_START	n/a	LTP095	ltpFR	6	1	n/a	n/a	n/a	n/a	n/a	n/a	n/a	n/a	n/a	n/a
148777	REC_WORD	wordpools/wasnorm_wordpool.txt	LTP095	ltpFR	6	1	1	PERFUME	1049	n/a	0	n/a	n/a	n/a	n/a	n/a
149777	REC_WORD_VV	wordpools/wasnorm_wordpool.txt	LTP095	ltpFR	6	1	n/a	<>	-1	n/a	n/a	n/a	n/a	n/a	n/a	n/a
150343	REC_WORD	wordpools/wasnorm_wordpool.txt	LTP095	ltpFR	6	1	0	CITRUS	313	n/a	0	n/a	n/a	n/a	n/a	n/a
155876	REC_WORD	wordpools/wasnorm_wordpool.txt	LTP095	ltpFR	6	1	0	JUG	762	n/a	1	n/a	n/a	n/a	n/a	n/a
157117	REC_WORD	wordpools/wasnorm_wordpool.txt	LTP095	ltpFR	6	1	0	STAPLE	1371	n/a	0	n/a	n/a	n/a	n/a	n/a
158117	REC_WORD_VV	wordpools/wasnorm_wordpool.txt	LTP095	ltpFR	6	1	n/a	<>	-1	n/a	n/a	n/a	n/a	n/a	n/a	n/a
166676	REC_WORD	wordpools/wasnorm_wordpool.txt	LTP095	ltpFR	6	1	1	DRIVER	499	n/a	1	n/a	n/a	n/a	n/a	n/a
168352	REC_WORD	wordpools/wasnorm_wordpool.txt	LTP095	ltpFR	6	1	0	SUBWAY	1400	n/a	1	n/a	n/a	n/a	n/a	n/a
231303	WORD	wordpools/wasnorm_wordpool.txt	LTP095	ltpFR	6	2	0	ASSISTANT	48	n/a	1	0	0.5869140625	0.422607421875	lower	../fonts/amplitud.ttf
235211	WORD	wordpools/wasnorm_wordpool.txt	LTP095	ltpFR	6	2	0	MULE	931	n/a	1	0	0.5869140625	0.422607421875	lower	../fonts/amplitud.ttf
239202	WORD	wordpools/wasnorm_wordpool.txt	LTP095	ltpFR	6	2	0	LEG	809	n/a	1	0	0.5869140625	0.422607421875	lower	../fonts/amplitud.ttf
243119	WORD	wordpools/wasnorm_wordpool.txt	LTP095	ltpFR	6	2	0	MONARCH	906	n/a	1	0	0.5869140625	0.422607421875	lower	../fonts/amplitud.ttf
247044	WORD	wordpools/wasnorm_wordpool.txt	LTP095	ltpFR	6	2	1	QUEEN	1149	n/a	1	1	0.412841796875	0.57763671875	upper	../fonts/zerothre.ttf
251043	WORD	wordpools/wasnorm_wordpool.txt	LTP095	ltpFR	6	2	1	POLYESTER	1100	n/a	0	1	0.412841796875	0.57763671875	upper	../fonts/zerothre.ttf
255043	WORD	wordpools/wasnorm_wordpool.txt	LTP095	ltpFR	6	2	1	ELBOW	520	n/a	1	1	0.412841796875	0.57763671875	upper	../fonts/zerothre.ttf
259126	WORD	wordpools/wasnorm_wordpool.txt	LTP095	ltpFR	6	2	1	RIDER	1191	n/a	1	1	0.412841796875	0.57763671875	upper	../fonts/zerothre.ttf
262967	WORD	wordpools/wasnorm_wordpool.txt	LTP095	ltpFR	6	2	1	DRAWER	493	n/a	0	1	0.412841796875	0.57763671875	upper	../fonts/zerothre.ttf
267125	WORD	wordpools/wasnorm_wordpool.txt	LTP095	ltpFR	6	2	0	LIVER	833	n/a	0	0	0.5869140625	0.422607421875	lower	../fonts/amplitud.ttf
271017	WORD	wordpools/wasnorm_wordpool.txt	LTP095	ltpFR	6	2	0	CORK	380	n/a	0	0	0.5869140625	0.422607421875	lower	../fonts/amplitud.ttf
274908	WORD	wordpools/wasnorm_wordpool.txt	LTP095	ltpFR	6	2	1	PRUNE	1134	n/a	0	1	0.412841796875	0.57763671875	upper	../fonts/zerothre.ttf
278759	WORD	wordpools/wasnorm_wordpool.txt	LTP095	ltpFR	6	2	1	CATTLE	261	n/a	2	1	0.412841796875	0.57763671875	upper	../fonts/zerothre.ttf
281291	KEY_MSG	n/a	LTP095	ltpFR	6	2	n/a	n/a	n/a	n/a	n/a	n/a	n/a	n/a	n/a	n/a
283857	WORD	wordpools/wasnorm_wordpool.txt	LTP095	ltpFR	6	2	1	CLOSET	326	n/a	0	1	0.412841796875	0.57763671875	upper	../fonts/zerothre.ttf
287708	WORD	wordpools/wasnorm_wordpool.txt	LTP095	ltpFR	6	2	0	BUREAU	199	n/a	1	0	0.5869140625	0.422607421875	lower	../fonts/amplitud.ttf
291524	WORD	wordpools/wasnorm_wordpool.txt	LTP095	ltpFR	6	2	0	CURTAIN	427	n/a	1	0	0.5869140625	0.422607421875	lower	../fonts/amplitud.ttf
297374	REC_START	n/a	LTP095	ltpFR	6	2	n/a	n/a	n/a	n/a	n/a	n/a	n/a	n/a	n/a	n/a
304987	REC_WORD	wordpools/wasnorm_wordpool.txt	LTP095	ltpFR	6	2	0	CURTAIN	427	n/a	1	n/a	n/a	n/a	n/a	n/a
307690	REC_WORD	wordpools/wasnorm_wordpool.txt	LTP095	ltpFR	6	2	0	BUREAU	199	n/a	1	n/a	n/a	n/a	n/a	n/a
317039	REC_WORD	wordpools/wasnorm_wordpool.txt	LTP095	ltpFR	6	2	0	ASSISTANT	48	n/a	1	n/a	n/a	n/a	n/a	n/a
324218	REC_WORD	wordpools/wasnorm_wordpool.txt	LTP095	ltpFR	6	2	0	MONARCH	906	n/a	1	n/a	n/a	n/a	n/a	n/a
359533	REC_WORD	wordpools/wasnorm_wordpool.txt	LTP095	ltpFR	6	2	1	QUEEN	1149	n/a	1	n/a	n/a	n/a	n/a	n/a
406690	WORD	wordpools/wasnorm_wordpool.txt	LTP095	ltpFR	6	3	-1	GLASS	639	n/a	-1	1	1.0	1.0	upper	../fonts/Verdana.ttf
410548	WORD	wordpools/wasnorm_wordpool.txt	LTP095	ltpFR	6	3	-1	MUG	930	n/a	-1	1	1.0	1.0	upper	../fonts/Verdana.ttf
414664	WORD	wordpools/wasnorm_wordpool.txt	LTP095	ltpFR	6	3	-1	SAILOR	1223	n/a	-1	1	1.0	1.0	upper	../fonts/Verdana.ttf
418556	WORD	wordpools/wasnorm_wordpool.txt	LTP095	ltpFR	6	3	-1	TRAY	1498	n/a	-1	1	1.0	1.0	upper	../fonts/Verdana.ttf
422447	WORD	wordpools/wasnorm_wordpool.txt	LTP095	ltpFR	6	3	-1	STOVE	1388	n/a	-1	1	1.0	1.0	upper	../fonts/Verdana.ttf
426397	WORD	wordpools/wasnorm_wordpool.txt	LTP095	ltpFR	6	3	-1	FOX	598	n/a	-1	1	1.0	1.0	upper	../fonts/Verdana.ttf
430455	WORD	wordpools/wasnorm_wordpool.txt	LTP095	ltpFR	6	3	-1	HARE	688	n/a	-1	1	1.0	1.0	upper	../fonts/Verdana.ttf
434604	WORD	wordpools/wasnorm_wordpool.txt	LTP095	ltpFR	6	3	-1	WHEAT	1602	n/a	-1	1	1.0	1.0	upper	../fonts/Verdana.ttf
438779	WORD	wordpools/wasnorm_wordpool.txt	LTP095	ltpFR	6	3	-1	RAIL	1161	n/a	-1	1	1.0	1.0	upper	../fonts/Verdana.ttf
442987	WORD	wordpools/wasnorm_wordpool.txt	LTP095	ltpFR	6	3	-1	CREAM	402	n/a	-1	1	1.0	1.0	upper	../fonts/Verdana.ttf
447070	WORD	wordpools/wasnorm_wordpool.txt	LTP095	ltpFR	6	3	-1	JAW	751	n/a	-1	1	1.0	1.0	upper	../fonts/Verdana.ttf
450953	WORD	wordpools/wasnorm_wordpool.txt	LTP095	ltpFR	6	3	-1	DENTIST	447	n/a	-1	1	1.0	1.0	upper	../fonts/Verdana.ttf
454869	WORD	wordpools/wasnorm_wordpool.txt	LTP095	ltpFR	6	3	-1	OATS	968	n/a	-1	1	1.0	1.0	upper	../fonts/Verdana.ttf
458844	WORD	wordpools/wasnorm_wordpool.txt	LTP095	ltpFR	6	3	-1	DECK	443	n/a	-1	1	1.0	1.0	upper	../fonts/Verdana.ttf
462869	WORD	wordpools/wasnorm_wordpool.txt	LTP095	ltpFR	6	3	-1	LOG	841	n/a	-1	1	1.0	1.0	upper	../fonts/Verdana.ttf
467052	WORD	wordpools/wasnorm_wordpool.txt	LTP095	ltpFR	6	3	-1	TEAPOT	1442	n/a	-1	1	1.0	1.0	upper	../fonts/Verdana.ttf
472844	REC_START	n/a	LTP095	ltpFR	6	3	n/a	n/a	n/a	n/a	n/a	n/a	n/a	n/a	n/a	n/a
474206	REC_WORD	wordpools/wasnorm_wordpool.txt	LTP095	ltpFR	6	3	-1	TEAPOT	1442	n/a	-1	n/a	n/a	n/a	n/a	n/a
476246	REC_WORD	wordpools/wasnorm_wordpool.txt	LTP095	ltpFR	6	3	-1	GLASS	639	n/a	-1	n/a	n/a	n/a	n/a	n/a
478017	REC_WORD	wordpools/wasnorm_wordpool.txt	LTP095	ltpFR	6	3	-1	MUG	930	n/a	-1	n/a	n/a	n/a	n/a	n/a
485475	REC_WORD	wordpools/wasnorm_wordpool.txt	LTP095	ltpFR	6	3	-1	TRAY	1498	n/a	-1	n/a	n/a	n/a	n/a	n/a
487291	REC_WORD	wordpools/wasnorm_wordpool.txt	LTP095	ltpFR	6	3	n/a	JAR	750	n/a	n/a	n/a	n/a	n/a	n/a	n/a
488992	REC_WORD	wordpools/wasnorm_wordpool.txt	LTP095	ltpFR	6	3	-1	CREAM	402	n/a	-1	n/a	n/a	n/a	n/a	n/a
490424	REC_WORD	wordpools/wasnorm_wordpool.txt	LTP095	ltpFR	6	3	-1	RAIL	1161	n/a	-1	n/a	n/a	n/a	n/a	n/a
492404	REC_WORD	wordpools/wasnorm_wordpool.txt	LTP095	ltpFR	6	3	-1	JAW	751	n/a	-1	n/a	n/a	n/a	n/a	n/a
494320	REC_WORD	wordpools/wasnorm_wordpool.txt	LTP095	ltpFR	6	3	-1	DENTIST	447	n/a	-1	n/a	n/a	n/a	n/a	n/a
495320	REC_WORD_VV	wordpools/wasnorm_wordpool.txt	LTP095	ltpFR	6	3	n/a	<>	-1	n/a	n/a	n/a	n/a	n/a	n/a	n/a
551587	WORD	wordpools/wasnorm_wordpool.txt	LTP095	ltpFR	6	4	1	TOWEL	1489	n/a	0	1	0.412841796875	0.57763671875	upper	../fonts/zerothre.ttf
555645	WORD	wordpools/wasnorm_wordpool.txt	LTP095	ltpFR	6	4	1	MARINE	869	n/a	0	1	0.412841796875	0.57763671875	upper	../fonts/zerothre.ttf
559763	WORD	wordpools/wasnorm_wordpool.txt	LTP095	ltpFR	6	4	1	GANGSTER	620	n/a	1	1	0.412841796875	0.57763671875	upper	../fonts/zerothre.ttf
563620	WORD	wordpools/wasnorm_wordpool.txt	LTP095	ltpFR	6	4	1	PEANUT	1032	n/a	0	1	0.412841796875	0.57763671875	upper	../fonts/zerothre.ttf
567661	WORD	wordpools/wasnorm_wordpool.txt	LTP095	ltpFR	6	4	1	ANTENNA	28	n/a	0	1	0.412841796875	0.57763671875	upper	../fonts/zerothre.ttf
571627	WORD	wordpools/wasnorm_wordpool.txt	LTP095	ltpFR	6	4	1	CLASS	318	n/a	0	1	0.412841796875	0.57763671875	upper	../fonts/zerothre.ttf
575669	WORD	wordpools/wasnorm_wordpool.txt	LTP095	ltpFR	6	4	1	GRADUATE	653	n/a	0	1	0.412841796875	0.57763671875	upper	../fonts/zerothre.ttf
579635	WORD	wordpools/wasnorm_wordpool.txt	LTP095	ltpFR	6	4	1	MAGICIAN	854	n/a	1	1	0.412841796875	0.57763671875	upper	../fonts/zerothre.ttf
583711	WORD	wordpools/wasnorm_wordpool.txt	LTP095	ltpFR	6	4	1	GUEST	669	n/a	1	1	0.412841796875	0.57763671875	upper	../fonts/zerothre.ttf
587909	WORD	wordpools/wasnorm_wordpool.txt	LTP095	ltpFR	6	4	1	OVEN	991	n/a	0	1	0.412841796875	0.57763671875	upper	../fonts/zerothre.ttf
591959	WORD	wordpools/wasnorm_wordpool.txt	LTP095	ltpFR	6	4	1	PERSONNEL	1053	n/a	1	1	0.412841796875	0.57763671875	upper	../fonts/zerothre.ttf
596150	WORD	wordpools/wasnorm_wordpool.txt	LTP095	ltpFR	6	4	1	KIWI	781	n/a	0	1	0.412841796875	0.57763671875	upper	../fonts/zerothre.ttf
600334	WORD	wordpools/wasnorm_wordpool.txt	LTP095	ltpFR	6	4	1	TREASURE	1500	n/a	0	1	0.412841796875	0.57763671875	upper	../fonts/zerothre.ttf
604217	WORD	wordpools/wasnorm_wordpool.txt	LTP095	ltpFR	6	4	1	DOLLAR	482	n/a	0	1	0.412841796875	0.57763671875	upper	../fonts/zerothre.ttf
608375	WORD	wordpools/wasnorm_wordpool.txt	LTP095	ltpFR	6	4	1	COMPANION	357	n/a	0	1	0.412841796875	0.57763671875	upper	../fonts/zerothre.ttf
612583	WORD	wordpools/wasnorm_wordpool.txt	LTP095	ltpFR	6	4	1	DRYER	503	n/a	0	1	0.412841796875	0.57763671875	upper	../fonts/zerothre.ttf
618399	REC_START	n/a	LTP095	ltpFR	6	4	n/a	n/a	n/a	n/a	n/a	n/a	n/a	n/a	n/a	n/a
624585	REC_WORD	wordpools/wasnorm_wordpool.txt	LTP095	ltpFR	6	4	1	DRYER	503	n/a	0	n/a	n/a	n/a	n/a	n/a
634108	REC_WORD	wordpools/wasnorm_wordpool.txt	LTP095	ltpFR	6	4	1	ANTENNA	28	n/a	0	n/a	n/a	n/a	n/a	n/a
653474	REC_WORD	wordpools/wasnorm_wordpool.txt	LTP095	ltpFR	6	4	1	PERSONNEL	1053	n/a	1	n/a	n/a	n/a	n/a	n/a
731599	WORD	wordpools/wasnorm_wordpool.txt	LTP095	ltpFR	6	5	0	IGLOO	734	n/a	1	0	0.5869140625	0.422607421875	lower	../fonts/amplitud.ttf
735615	WORD	wordpools/wasnorm_wordpool.txt	LTP095	ltpFR	6	5	0	YOKE	1632	n/a	0	0	0.5869140625	0.422607421875	lower	../fonts/amplitud.ttf
739431	WORD	wordpools/wasnorm_wordpool.txt	LTP095	ltpFR	6	5	0	FREEWAY	603	n/a	1	0	0.5869140625	0.422607421875	lower	../fonts/amplitud.ttf
743464	WORD	wordpools/wasnorm_wordpool.txt	LTP095	ltpFR	6	5	0	LOBSTER	837	n/a	1	0	0.5869140625	0.422607421875	lower	../fonts/amplitud.ttf
747572	WORD	wordpools/wasnorm_wordpool.txt	LTP095	ltpFR	6	5	0	ACID	2	n/a	0	0	0.5869140625	0.422607421875	lower	../fonts/amplitud.ttf
751455	WORD	wordpools/wasnorm_wordpool.txt	LTP095	ltpFR	6	5	0	CARPENTER	246	n/a	1	0	0.5869140625	0.422607421875	lower	../fonts/amplitud.ttf
755355	WORD	wordpools/wasnorm_wordpool.txt	LTP095	ltpFR	6	5	0	HEN	703	n/a	1	0	0.5869140625	0.422607421875	lower	../fonts/amplitud.ttf
759246	WORD	wordpools/wasnorm_wordpool.txt	LTP095	ltpFR	6	5	0	NURSERY	964	n/a	1	0	0.5869140625	0.422607421875	lower	../fonts/amplitud.ttf
763371	WORD	wordpools/wasnorm_wordpool.txt	LTP095	ltpFR	6	5	0	INFANT	737	n/a	0	0	0.5869140625	0.422607421875	lower	../fonts/amplitud.ttf
767404	WORD	wordpools/wasnorm_wordpool.txt	LTP095	ltpFR	6	5	0	BEAST	108	n/a	1	0	0.5869140625	0.422607421875	lower	../fonts/amplitud.ttf
771437	WORD	wordpools/wasnorm_wordpool.txt	LTP095	ltpFR	6	5	0	MONKEY	911	n/a	1	0	0.5869140625	0.422607421875	lower	../fonts/amplitud.ttf
775420	WORD	wordpools/wasnorm_wordpool.txt	LTP095	ltpFR	6	5	0	CAR	241	n/a	1	0	0.5869140625	0.422607421875	lower	../fonts/amplitud.ttf
779462	WORD	wordpools/wasnorm_wordpool.txt	LTP095	ltpFR	6	5	0	THORN	1459	n/a	0	0	0.5869140625	0.422607421875	lower	../fonts/amplitud.ttf
783636	WORD	wordpools/wasnorm_wordpool.txt	LTP095	ltpFR	6	5	0	HUT	729	n/a	1	0	0.5869140625	0.422607421875	lower	../fonts/amplitud.ttf
787844	WORD	wordpools/wasnorm_wordpool.txt	LTP095	ltpFR	6	5	0	RATTLE	1170	n/a	n/a	0	0.5869140625	0.422607421875	lower	../fonts/amplitud.ttf
790869	SLOW_MSG	n/a	LTP095	ltpFR	6	5	n/a	n/a	n/a	n/a	n/a	n/a	n/a	n/a	n/a	n/a
793311	WORD	wordpools/wasnorm_wordpool.txt	LTP095	ltpFR	6	5	0	CRIB	407	n/a	1	0	0.5869140625	0.422607421875	lower	../fonts/amplitud.ttf
799019	REC_START	n/a	LTP095	ltpFR	6	5	n/a	n/a	n/a	n/a	n/a	n/a	n/a	n/a	n/a	n/a
803973	REC_WORD	wordpools/wasnorm_wordpool.txt	LTP095	ltpFR	6	5	0	CRIB	407	n/a	1	n/a	n/a	n/a	n/a	n/a
805669	REC_WORD	wordpools/wasnorm_wordpool.txt	LTP095	ltpFR	6	5	0	RATTLE	1170	n/a	n/a	n/a	n/a	n/a	n/a	n/a
807579	REC_WORD	wordpools/wasnorm_wordpool.txt	LTP095	ltpFR	6	5	0	INFANT	737	n/a	0	n/a	n/a	n/a	n/a	n/a
809221	REC_WORD	wordpools/wasnorm_wordpool.txt	LTP095	ltpFR	6	5	0	BEAST	108	n/a	1	n/a	n/a	n/a	n/a	n/a
812124	REC_WORD	wordpools/wasnorm_wordpool.txt	LTP095	ltpFR	6	5	0	IGLOO	734	n/a	1	n/a	n/a	n/a	n/a	n/a
877938	WORD	wordpools/wasnorm_wordpool.txt	LTP095	ltpFR	6	6	-1	POTATO	1115	n/a	-1	1	1.0	1.0	upper	../fonts/Verdana.ttf
881929	WORD	wordpools/wasnorm_wordpool.txt	LTP095	ltpFR	6	6	-1	SHRIMP	1297	n/a	-1	1	1.0	1.0	upper	../fonts/Verdana.ttf
885929	WORD	wordpools/wasnorm_wordpool.txt	LTP095	ltpFR	6	6	-1	CHISEL	305	n/a	-1	1	1.0	1.0	upper	../fonts/Verdana.ttf
889903	WORD	wordpools/wasnorm_wordpool.txt	LTP095	ltpFR	6	6	-1	JACKET	747	n/a	-1	1	1.0	1.0	upper	../fonts/Verdana.ttf
893970	WORD	wordpools/wasnorm_wordpool.txt	LTP095	ltpFR	6	6	-1	FIG	563	n/a	-1	1	1.0	1.0	upper	../fonts/Verdana.ttf
898044	WORD	wordpools/wasnorm_wordpool.txt	LTP095	ltpFR	6	6	-1	ROOT	1210	n/a	-1	1	1.0	1.0	upper	../fonts/Verdana.ttf
902252	WORD	wordpools/wasnorm_wordpool.txt	LTP095	ltpFR	6	6	-1	AFRICA	9	n/a	-1	1	1.0	1.0	upper	../fonts/Verdana.ttf
906102	WORD	wordpools/wasnorm_wordpool.txt	LTP095	ltpFR	6	6	-1	RIVER	1194	n/a	-1	1	1.0	1.0	upper	../fonts/Verdana.ttf
910018	WORD	wordpools/wasnorm_wordpool.txt	LTP095	ltpFR	6	6	-1	OTTER	986	n/a	-1	1	1.0	1.0	upper	../fonts/Verdana.ttf
913843	WORD	wordpools/wasnorm_wordpool.txt	LTP095	ltpFR	6	6	-1	DRILL	497	n/a	-1	1	1.0	1.0	upper	../fonts/Verdana.ttf
918001	WORD	wordpools/wasnorm_wordpool.txt	LTP095	ltpFR	6	6	-1	BLOUSE	139	n/a	-1	1	1.0	1.0	upper	../fonts/Verdana.ttf
922109	WORD	wordpools/wasnorm_wordpool.txt	LTP095	ltpFR	6	6	-1	NAIL	936	n/a	-1	1	1.0	1.0	upper	../fonts/Verdana.ttf
926159	WORD	wordpools/wasnorm_wordpool.txt	LTP095	ltpFR	6	6	-1	COMPASS	358	n/a	-1	1	1.0	1.0	upper	../fonts/Verdana.ttf
930292	WORD	wordpools/wasnorm_wordpool.txt	LTP095	ltpFR	6	6	-1	UMBRELLA	1534	n/a	-1	1	1.0	1.0	upper	../fonts/Verdana.ttf
934225	WORD	wordpools/wasnorm_wordpool.txt	LTP095	ltpFR	6	6	-1	TENT	1449	n/a	-1	1	1.0	1.0	upper	../fonts/Verdana.ttf
938425	WORD	wordpools/wasnorm_wordpool.txt	LTP095	ltpFR	6	6	-1	DISC	473	n/a	-1	1	1.0	1.0	upper	../fonts/Verdana.ttf
944108	REC_START	n/a	LTP095	ltpFR	6	6	n/a	n/a	n/a	n/a	n/a	n/a	n/a	n/a	n/a	n/a
946263	REC_WORD	wordpools/wasnorm_wordpool.txt	LTP095	ltpFR	6	6	-1	COMPASS	358	n/a	-1	n/a	n/a	n/a	n/a	n/a
947999	REC_WORD	wordpools/wasnorm_wordpool.txt	LTP095	ltpFR	6	6	-1	TENT	1449	n/a	-1	n/a	n/a	n/a	n/a	n/a
1022753	WORD	wordpools/wasnorm_wordpool.txt	LTP095	ltpFR	6	7	0	ALBUM	14	n/a	0	0	0.5869140625	0.422607421875	lower	../fonts/amplitud.ttf
1026918	WORD	wordpools/wasnorm_wordpool.txt	LTP095	ltpFR	6	7	0	ORANGE	980	n/a	0	0	0.5869140625	0.422607421875	lower	../fonts/amplitud.ttf
1031026	WORD	wordpools/wasnorm_wordpool.txt	LTP095	ltpFR	6	7	1	NOTEBOOK	959	n/a	0	1	0.412841796875	0.57763671875	upper	../fonts/zerothre.ttf
1035167	WORD	wordpools/wasnorm_wordpool.txt	LTP095	ltpFR	6	7	1	DOCUMENT	479	n/a	0	1	0.412841796875	0.57763671875	upper	../fonts/zerothre.ttf
1039309	WORD	wordpools/wasnorm_wordpool.txt	LTP095	ltpFR	6	7	1	CREATURE	403	n/a	1	1	0.412841796875	0.57763671875	upper	../fonts/zerothre.ttf
1043258	WORD	wordpools/wasnorm_wordpool.txt	LTP095	ltpFR	6	7	1	RAM	1165	n/a	1	1	0.412841796875	0.57763671875	upper	../fonts/zerothre.ttf
1047400	WORD	wordpools/wasnorm_wordpool.txt	LTP095	ltpFR	6	7	1	WAITER	1580	n/a	1	1	0.412841796875	0.57763671875	upper	../fonts/zerothre.ttf
1051416	WORD	wordpools/wasnorm_wordpool.txt	LTP095	ltpFR	6	7	0	BELLY	119	n/a	1	0	0.5869140625	0.422607421875	lower	../fonts/amplitud.ttf
1055557	WORD	wordpools/wasnorm_wordpool.txt	LTP095	ltpFR	6	7	0	MEAL	882	n/a	0	0	0.5869140625	0.422607421875	lower	../fonts/amplitud.ttf
1059665	WORD	wordpools/wasnorm_wordpool.txt	LTP095	ltpFR	6	7	0	OCEAN	970	n/a	3	0	0.5869140625	0.422607421875	lower	../fonts/amplitud.ttf
1061857	KEY_MSG	n/a	LTP095	ltpFR	6	7	n/a	n/a	n/a	n/a	n/a	n/a	n/a	n/a	n/a	n/a
1064223	WORD	wordpools/wasnorm_wordpool.txt	LTP095	ltpFR	6	7	0	WAGON	1578	n/a	1	0	0.5869140625	0.422607421875	lower	../fonts/amplitud.ttf
1068140	WORD	wordpools/wasnorm_wordpool.txt	LTP095	ltpFR	6	7	0	CHERRY	293	n/a	0	0	0.5869140625	0.422607421875	lower	../fonts/amplitud.ttf
1072264	WORD	wordpools/wasnorm_wordpool.txt	LTP095	ltpFR	6	7	0	RESTAURANT	1187	n/a	1	0	0.5869140625	0.422607421875	lower	../fonts/amplitud.ttf
1076373	WORD	wordpools/wasnorm_wordpool.txt	LTP095	ltpFR	6	7	1	VAMPIRE	1547	n/a	1	1	0.412841796875	0.57763671875	upper	../fonts/zerothre.ttf
1080206	WORD	wordpools/wasnorm_wordpool.txt	LTP095	ltpFR	6	7	1	ALMOND	18	n/a	0	1	0.412841796875	0.57763671875	upper	../fonts/zerothre.ttf
1084222	WORD	wordpools/wasnorm_wordpool.txt	LTP095	ltpFR	6	7	1	CHAUFFEUR	283	n/a	1	1	0.412841796875	0.57763671875	upper	../fonts/zerothre.ttf
1090097	REC_START	n/a	LTP095	ltpFR	6	7	n/a	n/a	n/a	n/a	n/a	n/a	n/a	n/a	n/a	n/a
1092945	REC_WORD	wordpools/wasnorm_wordpool.txt	LTP095	ltpFR	6	7	1	CHAUFFEUR	283	n/a	1	n/a	n/a	n/a	n/a	n/a
1096353	REC_WORD	wordpools/wasnorm_wordpool.txt	LTP095	ltpFR	6	7	1	RAM	1165	n/a	1	n/a	n/a	n/a	n/a	n/a
1097353	REC_WORD_VV	wordpools/wasnorm_wordpool.txt	LTP095	ltpFR	6	7	n/a	<>	-1	n/a	n/a	n/a	n/a	n/a	n/a	n/a
1106125	REC_WORD	wordpools/wasnorm_wordpool.txt	LTP095	ltpFR	6	7	0	MEAL	882	n/a	0	n/a	n/a	n/a	n/a	n/a
1142443	REC_WORD	wordpools/wasnorm_wordpool.txt	LTP095	ltpFR	6	7	0	WAGON	1578	n/a	1	n/a	n/a	n/a	n/a	n/a
1144488	REC_WORD	wordpools/wasnorm_wordpool.txt	LTP095	ltpFR	6	7	0	OCEAN	970	n/a	3	n/a	n/a	n/a	n/a	n/a
1215445	WORD	wordpools/wasnorm_wordpool.txt	LTP095	ltpFR	6	8	-1	NICKEL	950	n/a	-1	1	1.0	1.0	upper	../fonts/Verdana.ttf
1219462	WORD	wordpools/wasnorm_wordpool.txt	LTP095	ltpFR	6	8	-1	FROG	608	n/a	-1	1	1.0	1.0	upper	../fonts/Verdana.ttf
1223370	WORD	wordpools/wasnorm_wordpool.txt	LTP095	ltpFR	6	8	-1	SQUID	1361	n/a	-1	1	1.0	1.0	upper	../fonts/Verdana.ttf
1227378	WORD	wordpools/wasnorm_wordpool.txt	LTP095	ltpFR	6	8	-1	CRAB	397	n/a	-1	1	1.0	1.0	upper	../fonts/Verdana.ttf
1231411	WORD	wordpools/wasnorm_wordpool.txt	LTP095	ltpFR	6	8	-1	CRITIC	410	n/a	-1	1	1.0	1.0	upper	../fonts/Verdana.ttf
1235302	WORD	wordpools/wasnorm_wordpool.txt	LTP095	ltpFR	6	8	-1	HORSE	719	n/a	-1	1	1.0	1.0	upper	../fonts/Verdana.ttf
1239468	WORD	wordpools/wasnorm_wordpool.txt	LTP095	ltpFR	6	8	-1	SCALE	1241	n/a	-1	1	1.0	1.0	upper	../fonts/Verdana.ttf
1243368	WORD	wordpools/wasnorm_wordpool.txt	LTP095	ltpFR	6	8	-1	BILL	126	n/a	-1	1	1.0	1.0	upper	../fonts/Verdana.ttf
1247243	WORD	wordpools/wasnorm_wordpool.txt	LTP095	ltpFR	6	8	-1	SHORTCAKE	1292	n/a	-1	1	1.0	1.0	upper	../fonts/Verdana.ttf
1251184	WORD	wordpools/wasnorm_wordpool.txt	LTP095	ltpFR	6	8	-1	HOOK	715	n/a	-1	1	1.0	1.0	upper	../fonts/Verdana.ttf
1255276	WORD	wordpools/wasnorm_wordpool.txt	LTP095	ltpFR	6	8	-1	BEDROOM	111	n/a	-1	1	1.0	1.0	upper	../fonts/Verdana.ttf
1259192	WORD	wordpools/wasnorm_wordpool.txt	LTP095	ltpFR	6	8	-1	DOOR	486	n/a	-1	1	1.0	1.0	upper	../fonts/Verdana.ttf
1263392	WORD	wordpools/wasnorm_wordpool.txt	LTP095	ltpFR	6	8	-1	GATE	625	n/a	-1	1	1.0	1.0	upper	../fonts/Verdana.ttf
1267433	WORD	wordpools/wasnorm_wordpool.txt	LTP095	ltpFR	6	8	-1	FLOUR	583	n/a	-1	1	1.0	1.0	upper	../fonts/Verdana.ttf
1271408	WORD	wordpools/wasnorm_wordpool.txt	LTP095	ltpFR	6	8	-1	BASKETBALL	96	n/a	-1	1	1.0	1.0	upper	../fonts/Verdana.ttf
1275491	WORD	wordpools/wasnorm_wordpool.txt	LTP095	ltpFR	6	8	-1	CHESS	294	n/a	-1	1	1.0	1.0	upper	../fonts/Verdana.ttf
1281399	REC_START	n/a	LTP095	ltpFR	6	8	n/a	n/a	n/a	n/a	n/a	n/a	n/a	n/a	n/a	n/a
1285494	REC_WORD	wordpools/wasnorm_wordpool.txt	LTP095	ltpFR	6	8	-1	CHESS	294	n/a	-1	n/a	n/a	n/a	n/a	n/a
1286901	REC_WORD	wordpools/wasnorm_wordpool.txt	LTP095	ltpFR	6	8	-1	FLOUR	583	n/a	-1	n/a	n/a	n/a	n/a	n/a
1289490	REC_WORD	wordpools/wasnorm_wordpool.txt	LTP095	ltpFR	6	8	-1	BASKETBALL	96	n/a	-1	n/a	n/a	n/a	n/a	n/a
1290490	REC_WORD_VV	wordpools/wasnorm_wordpool.txt	LTP095	ltpFR	6	8	n/a	<>	-1	n/a	n/a	n/a	n/a	n/a	n/a	n/a
1313386	REC_WORD	wordpools/wasnorm_wordpool.txt	LTP095	ltpFR	6	8	-1	CRITIC	410	n/a	-1	n/a	n/a	n/a	n/a	n/a
1360876	WORD	wordpools/wasnorm_wordpool.txt	LTP095	ltpFR	6	9	-1	AIRCRAFT	11	n/a	-1	1	1.0	1.0	upper	../fonts/Verdana.ttf
1364859	WORD	wordpools/wasnorm_wordpool.txt	LTP095	ltpFR	6	9	-1	DIGGER	464	n/a	-1	1	1.0	1.0	upper	../fonts/Verdana.ttf
1368743	WORD	wordpools/wasnorm_wordpool.txt	LTP095	ltpFR	6	9	-1	DASHBOARD	441	n/a	-1	1	1.0	1.0	upper	../fonts/Verdana.ttf
1372575	WORD	wordpools/wasnorm_wordpool.txt	LTP095	ltpFR	6	9	-1	VOLCANO	1575	n/a	-1	1	1.0	1.0	upper	../fonts/Verdana.ttf
1376751	WORD	wordpools/wasnorm_wordpool.txt	LTP095	ltpFR	6	9	-1	SIRLOIN	1311	n/a	-1	1	1.0	1.0	upper	../fonts/Verdana.ttf
1380717	WORD	wordpools/wasnorm_wordpool.txt	LTP095	ltpFR	6	9	-1	TECHNICIAN	1443	n/a	-1	1	1.0	1.0	upper	../fonts/Verdana.ttf
1384858	WORD	wordpools/wasnorm_wordpool.txt	LTP095	ltpFR	6	9	-1	SCREWDRIVER	1255	n/a	-1	1	1.0	1.0	upper	../fonts/Verdana.ttf
1388866	WORD	wordpools/wasnorm_wordpool.txt	LTP095	ltpFR	6	9	-1	CACTUS	215	n/a	-1	1	1.0	1.0	upper	../fonts/Verdana.ttf
1392840	WORD	wordpools/wasnorm_wordpool.txt	LTP095	ltpFR	6	9	-1	HINGE	709	n/a	-1	1	1.0	1.0	upper	../fonts/Verdana.ttf
1396998	WORD	wordpools/wasnorm_wordpool.txt	LTP095	ltpFR	6	9	-1	LOCK	838	n/a	-1	1	1.0	1.0	upper	../fonts/Verdana.ttf
1401115	WORD	wordpools/wasnorm_wordpool.txt	LTP095	ltpFR	6	9	-1	MINER	896	n/a	-1	1	1.0	1.0	upper	../fonts/Verdana.ttf
1405089	WORD	wordpools/wasnorm_wordpool.txt	LTP095	ltpFR	6	9	-1	JEEP	753	n/a	-1	1	1.0	1.0	upper	../fonts/Verdana.ttf
1409189	WORD	wordpools/wasnorm_wordpool.txt	LTP095	ltpFR	6	9	-1	COOLER	375	n/a	-1	1	1.0	1.0	upper	../fonts/Verdana.ttf
1413139	WORD	wordpools/wasnorm_wordpool.txt	LTP095	ltpFR	6	9	-1	AIRPLANE	12	n/a	-1	1	1.0	1.0	upper	../fonts/Verdana.ttf
1416955	WORD	wordpools/wasnorm_wordpool.txt	LTP095	ltpFR	6	9	-1	POWDER	1117	n/a	-1	1	1.0	1.0	upper	../fonts/Verdana.ttf
1420830	WORD	wordpools/wasnorm_wordpool.txt	LTP095	ltpFR	6	9	-1	DIAPER	459	n/a	-1	1	1.0	1.0	upper	../fonts/Verdana.ttf
1426530	REC_START	n/a	LTP095	ltpFR	6	9	n/a	n/a	n/a	n/a	n/a	n/a	n/a	n/a	n/a	n/a
1428695	REC_WORD	wordpools/wasnorm_wordpool.txt	LTP095	ltpFR	6	9	-1	LOCK	838	n/a	-1	n/a	n/a	n/a	n/a	n/a
1429972	REC_WORD	wordpools/wasnorm_wordpool.txt	LTP095	ltpFR	6	9	-1	JEEP	753	n/a	-1	n/a	n/a	n/a	n/a	n/a
1431189	REC_WORD	wordpools/wasnorm_wordpool.txt	LTP095	ltpFR	6	9	-1	COOLER	375	n/a	-1	n/a	n/a	n/a	n/a	n/a
1433025	REC_WORD	wordpools/wasnorm_wordpool.txt	LTP095	ltpFR	6	9	-1	DIAPER	459	n/a	-1	n/a	n/a	n/a	n/a	n/a
1435859	REC_WORD	wordpools/wasnorm_wordpool.txt	LTP095	ltpFR	6	9	-1	AIRCRAFT	11	n/a	-1	n/a	n/a	n/a	n/a	n/a
1437285	REC_WORD	wordpools/wasnorm_wordpool.txt	LTP095	ltpFR	6	9	-1	AIRPLANE	12	n/a	-1	n/a	n/a	n/a	n/a	n/a
1439640	REC_WORD	wordpools/wasnorm_wordpool.txt	LTP095	ltpFR	6	9	-1	DASHBOARD	441	n/a	-1	n/a	n/a	n/a	n/a	n/a
1440640	REC_WORD_VV	wordpools/wasnorm_wordpool.txt	LTP095	ltpFR	6	9	n/a	<>	-1	n/a	n/a	n/a	n/a	n/a	n/a	n/a
1447961	REC_WORD	wordpools/wasnorm_wordpool.txt	LTP095	ltpFR	6	9	-1	DIGGER	464	n/a	-1	n/a	n/a	n/a	n/a	n/a
1510698	WORD	wordpools/wasnorm_wordpool.txt	LTP095	ltpFR	6	10	0	CHAIRPERSON	275	n/a	1	0	0.5869140625	0.422607421875	lower	../fonts/amplitud.ttf
1514664	WORD	wordpools/wasnorm_wordpool.txt	LTP095	ltpFR	6	10	0	MANAGER	863	n/a	1	0	0.5869140625	0.422607421875	lower	../fonts/amplitud.ttf
1518723	WORD	wordpools/wasnorm_wordpool.txt	LTP095	ltpFR	6	10	1	OBOE	969	n/a	0	1	0.412841796875	0.57763671875	upper	../fonts/zerothre.ttf
1522647	WORD	wordpools/wasnorm_wordpool.txt	LTP095	ltpFR	6	10	1	BRUSH	182	n/a	0	1	0.412841796875	0.57763671875	upper	../fonts/zerothre.ttf
1526822	WORD	wordpools/wasnorm_wordpool.txt	LTP095	ltpFR	6	10	1	CHAMPAGNE	278	n/a	0	1	0.412841796875	0.57763671875	upper	../fonts/zerothre.ttf
1530772	WORD	wordpools/wasnorm_wordpool.txt	LTP095	ltpFR	6	10	1	SILVERWARE	1308	n/a	0	1	0.412841796875	0.57763671875	upper	../fonts/zerothre.ttf
1534696	WORD	wordpools/wasnorm_wordpool.txt	LTP095	ltpFR	6	10	1	HEADBAND	696	n/a	0	1	0.412841796875	0.57763671875	upper	../fonts/zerothre.ttf
1538813	WORD	wordpools/wasnorm_wordpool.txt	LTP095	ltpFR	6	10	0	YARD	1630	n/a	1	0	0.5869140625	0.422607421875	lower	../fonts/amplitud.ttf
1542921	WORD	wordpools/wasnorm_wordpool.txt	LTP095	ltpFR	6	10	0	WEED	1599	n/a	0	0	0.5869140625	0.422607421875	lower	../fonts/amplitud.ttf
1546870	WORD	wordpools/wasnorm_wordpool.txt	LTP095	ltpFR	6	10	0	DRUM	502	n/a	1	0	0.5869140625	0.422607421875	lower	../fonts/amplitud.ttf
1550778	WORD	wordpools/wasnorm_wordpool.txt	LTP095	ltpFR	6	10	1	ZUCCHINI	1638	n/a	0	1	0.412841796875	0.57763671875	upper	../fonts/zerothre.ttf
1554970	WORD	wordpools/wasnorm_wordpool.txt	LTP095	ltpFR	6	10	1	NIECE	952	n/a	1	1	0.412841796875	0.57763671875	upper	../fonts/zerothre.ttf
1558819	WORD	wordpools/wasnorm_wordpool.txt	LTP095	ltpFR	6	10	1	ROCK	1201	n/a	0	1	0.412841796875	0.57763671875	upper	../fonts/zerothre.ttf
1563019	WORD	wordpools/wasnorm_wordpool.txt	LTP095	ltpFR	6	10	0	GOAT	644	n/a	1	0	0.5869140625	0.422607421875	lower	../fonts/amplitud.ttf
1566935	WORD	wordpools/wasnorm_wordpool.txt	LTP095	ltpFR	6	10	0	PISTOL	1075	n/a	0	0	0.5869140625	0.422607421875	lower	../fonts/amplitud.ttf
1571110	WORD	wordpools/wasnorm_wordpool.txt	LTP095	ltpFR	6	10	0	OUTLAW	989	n/a	1	0	0.5869140625	0.422607421875	lower	../fonts/amplitud.ttf
1577085	REC_START	n/a	LTP095	ltpFR	6	10	n/a	n/a	n/a	n/a	n/a	n/a	n/a	n/a	n/a	n/a
1579255	REC_WORD	wordpools/wasnorm_wordpool.txt	LTP095	ltpFR	6	10	0	OUTLAW	989	n/a	1	n/a	n/a	n/a	n/a	n/a
1580761	REC_WORD	wordpools/wasnorm_wordpool.txt	LTP095	ltpFR	6	10	0	CHAIRPERSON	275	n/a	1	n/a	n/a	n/a	n/a	n/a
1581761	REC_WORD_VV	wordpools/wasnorm_wordpool.txt	LTP095	ltpFR	6	10	n/a	<>	-1	n/a	n/a	n/a	n/a	n/a	n/a	n/a
1661495	WORD	wordpools/wasnorm_wordpool.txt	LTP095	ltpFR	6	11	1	TUXEDO	1525	n/a	0	1	0.412841796875	0.57763671875	upper	../fonts/zerothre.ttf
1665445	WORD	wordpools/wasnorm_wordpool.txt	LTP095	ltpFR	6	11	1	MAILBOX	857	n/a	0	1	0.412841796875	0.57763671875	upper	../fonts/zerothre.ttf
1669594	WORD	wordpools/wasnorm_wordpool.txt	LTP095	ltpFR	6	11	0	LODGE	839	n/a	1	0	0.5869140625	0.422607421875	lower	../fonts/amplitud.ttf
1673669	WORD	wordpools/wasnorm_wordpool.txt	LTP095	ltpFR	6	11	0	WITCH	1617	n/a	1	0	0.5869140625	0.422607421875	lower	../fonts/amplitud.ttf
1677810	WORD	wordpools/wasnorm_wordpool.txt	LTP095	ltpFR	6	11	0	RODENT	1204	n/a	0	0	0.5869140625	0.422607421875	lower	../fonts/amplitud.ttf
1681918	WORD	wordpools/wasnorm_wordpool.txt	LTP095	ltpFR	6	11	0	INSECT	740	n/a	0	0	0.5869140625	0.422607421875	lower	../fonts/amplitud.ttf
1685776	WORD	wordpools/wasnorm_wordpool.txt	LTP095	ltpFR	6	11	1	WHIP	1604	n/a	0	1	0.412841796875	0.57763671875	upper	../fonts/zerothre.ttf
1689676	WORD	wordpools/wasnorm_wordpool.txt	LTP095	ltpFR	6	11	1	LASH	802	n/a	0	1	0.412841796875	0.57763671875	upper	../fonts/zerothre.ttf
1693593	WORD	wordpools/wasnorm_wordpool.txt	LTP095	ltpFR	6	11	1	POLICE	1098	n/a	0	1	0.412841796875	0.57763671875	upper	../fonts/zerothre.ttf
1697534	WORD	wordpools/wasnorm_wordpool.txt	LTP095	ltpFR	6	11	1	AGENT	10	n/a	1	1	0.412841796875	0.57763671875	upper	../fonts/zerothre.ttf
1701667	WORD	wordpools/wasnorm_wordpool.txt	LTP095	ltpFR	6	11	1	ENVELOPE	537	n/a	0	1	0.412841796875	0.57763671875	upper	../fonts/zerothre.ttf
1705768	WORD	wordpools/wasnorm_wordpool.txt	LTP095	ltpFR	6	11	1	HOSTAGE	722	n/a	1	1	0.412841796875	0.57763671875	upper	../fonts/zerothre.ttf
1709633	WORD	wordpools/wasnorm_wordpool.txt	LTP095	ltpFR	6	11	0	ASPIRIN	47	n/a	1	0	0.5869140625	0.422607421875	lower	../fonts/amplitud.ttf
1713674	WORD	wordpools/wasnorm_wordpool.txt	LTP095	ltpFR	6	11	0	SIGNATURE	1306	n/a	0	0	0.5869140625	0.422607421875	lower	../fonts/amplitud.ttf
1717582	WORD	wordpools/wasnorm_wordpool.txt	LTP095	ltpFR	6	11	0	SHIRT	1287	n/a	0	0	0.5869140625	0.422607421875	lower	../fonts/amplitud.ttf
1721549	WORD	wordpools/wasnorm_wordpool.txt	LTP095	ltpFR	6	11	0	BUILDER	190	n/a	1	0	0.5869140625	0.422607421875	lower	../fonts/amplitud.ttf
1727482	REC_START	n/a	LTP095	ltpFR	6	11	n/a	n/a	n/a	n/a	n/a	n/a	n/a	n/a	n/a	n/a
1730839	REC_WORD	wordpools/wasnorm_wordpool.txt	LTP095	ltpFR	6	11	0	BUILDER	190	n/a	1	n/a	n/a	n/a	n/a	n/a
1732725	REC_WORD	wordpools/wasnorm_wordpool.txt	LTP095	ltpFR	6	11	0	ASPIRIN	47	n/a	1	n/a	n/a	n/a	n/a	n/a
1736377	REC_WORD	wordpools/wasnorm_wordpool.txt	LTP095	ltpFR	6	11	1	CHAUFFEUR	283	n/a	1	n/a	n/a	n/a	n/a	n/a
1783100	REC_WORD	wordpools/wasnorm_wordpool.txt	LTP095	ltpFR	6	11	0	RODENT	1204	n/a	0	n/a	n/a	n/a	n/a	n/a
1784447	REC_WORD	wordpools/wasnorm_wordpool.txt	LTP095	ltpFR	6	11	0	INSECT	740	n/a	0	n/a	n/a	n/a	n/a	n/a
1831282	WORD	wordpools/wasnorm_wordpool.txt	LTP095	ltpFR	6	12	1	JOINT	758	n/a	0	1	0.412841796875	0.57763671875	upper	../fonts/zerothre.ttf
1835132	WORD	wordpools/wasnorm_wordpool.txt	LTP095	ltpFR	6	12	1	BODY	145	n/a	1	1	0.412841796875	0.57763671875	upper	../fonts/zerothre.ttf
1839090	WORD	wordpools/wasnorm_wordpool.txt	LTP095	ltpFR	6	12	1	PERCH	1048	n/a	0	1	0.412841796875	0.57763671875	upper	../fonts/zerothre.ttf
1843281	WORD	wordpools/wasnorm_wordpool.txt	LTP095	ltpFR	6	12	1	VIRUS	1572	n/a	1	1	0.412841796875	0.57763671875	upper	../fonts/zerothre.ttf
1847398	WORD	wordpools/wasnorm_wordpool.txt	LTP095	ltpFR	6	12	1	POT	1114	n/a	0	1	0.412841796875	0.57763671875	upper	../fonts/zerothre.ttf
1851406	WORD	wordpools/wasnorm_wordpool.txt	LTP095	ltpFR	6	12	1	SKILLET	1317	n/a	0	1	0.412841796875	0.57763671875	upper	../fonts/zerothre.ttf
1855255	WORD	wordpools/wasnorm_wordpool.txt	LTP095	ltpFR	6	12	1	THERMOMETER	1453	n/a	0	1	0.412841796875	0.57763671875	upper	../fonts/zerothre.ttf
1859330	WORD	wordpools/wasnorm_wordpool.txt	LTP095	ltpFR	6	12	1	UMPIRE	1535	n/a	1	1	0.412841796875	0.57763671875	upper	../fonts/zerothre.ttf
1863355	WORD	wordpools/wasnorm_wordpool.txt	LTP095	ltpFR	6	12	1	PLANE	1081	n/a	0	1	0.412841796875	0.57763671875	upper	../fonts/zerothre.ttf
1867513	WORD	wordpools/wasnorm_wordpool.txt	LTP095	ltpFR	6	12	1	SHINGLE	1285	n/a	0	1	0.412841796875	0.57763671875	upper	../fonts/zerothre.ttf
1871337	WORD	wordpools/wasnorm_wordpool.txt	LTP095	ltpFR	6	12	1	PRINCESS	1125	n/a	1	1	0.412841796875	0.57763671875	upper	../fonts/zerothre.ttf
1875187	WORD	wordpools/wasnorm_wordpool.txt	LTP095	ltpFR	6	12	1	CROW	414	n/a	1	1	0.412841796875	0.57763671875	upper	../fonts/zerothre.ttf
1879187	WORD	wordpools/wasnorm_wordpool.txt	LTP095	ltpFR	6	12	1	PIG	1064	n/a	1	1	0.412841796875	0.57763671875	upper	../fonts/zerothre.ttf
1883012	WORD	wordpools/wasnorm_wordpool.txt	LTP095	ltpFR	6	12	1	STEWARDESS	1381	n/a	n/a	1	0.412841796875	0.57763671875	upper	../fonts/zerothre.ttf
1886036	SLOW_MSG	n/a	LTP095	ltpFR	6	12	n/a	n/a	n/a	n/a	n/a	n/a	n/a	n/a	n/a	n/a
1888503	WORD	wordpools/wasnorm_wordpool.txt	LTP095	ltpFR	6	12	1	STY	1397	n/a	0	1	0.412841796875	0.57763671875	upper	../fonts/zerothre.ttf
1892636	WORD	wordpools/wasnorm_wordpool.txt	LTP095	ltpFR	6	12	1	EYELASH	546	n/a	1	1	0.412841796875	0.57763671875	upper	../fonts/zerothre.ttf
1898486	REC_START	n/a	LTP095	ltpFR	6	12	n/a	n/a	n/a	n/a	n/a	n/a	n/a	n/a	n/a	n/a
1900856	REC_WORD	wordpools/wasnorm_wordpool.txt	LTP095	ltpFR	6	12	1	EYELASH	546	n/a	1	n/a	n/a	n/a	n/a	n/a
1902371	REC_WORD	wordpools/wasnorm_wordpool.txt	LTP095	ltpFR	6	12	1	STY	1397	n/a	0	n/a	n/a	n/a	n/a	n/a
1918411	REC_WORD	wordpools/wasnorm_wordpool.txt	LTP095	ltpFR	6	12	1	PRINCESS	1125	n/a	1	n/a	n/a	n/a	n/a	n/a
1923514	REC_WORD	wordpools/wasnorm_wordpool.txt	LTP095	ltpFR	6	12	1	JOINT	758	n/a	0	n/a	n/a	n/a	n/a	n/a
1924891	REC_WORD	wordpools/wasnorm_wordpool.txt	LTP095	ltpFR	6	12	1	BODY	145	n/a	1	n/a	n/a	n/a	n/a	n/a
1974071	REST_REWET	n/a	LTP095	ltpFR	6	12	n/a	n/a	n/a	n/a	n/a	n/a	n/a	n/a	n/a	n/a
2329419	WORD	wordpools/wasnorm_wordpool.txt	LTP095	ltpFR	6	13	0	LACE	792	n/a	0	0	0.5869140625	0.422607421875	lower	../fonts/amplitud.ttf
2333444	WORD	wordpools/wasnorm_wordpool.txt	LTP095	ltpFR	6	13	0	CONTAINER	366	n/a	0	0	0.5869140625	0.422607421875	lower	../fonts/amplitud.ttf
2337477	WORD	wordpools/wasnorm_wordpool.txt	LTP095	ltpFR	6	13	0	LID	817	n/a	0	0	0.5869140625	0.422607421875	lower	../fonts/amplitud.ttf
2341685	WORD	wordpools/wasnorm_wordpool.txt	LTP095	ltpFR	6	13	0	OREGANO	983	n/a	0	0	0.5869140625	0.422607421875	lower	../fonts/amplitud.ttf
2345635	WORD	wordpools/wasnorm_wordpool.txt	LTP095	ltpFR	6	13	0	FOREST	593	n/a	1	0	0.5869140625	0.422607421875	lower	../fonts/amplitud.ttf
2349801	WORD	wordpools/wasnorm_wordpool.txt	LTP095	ltpFR	6	13	0	FATHER	554	n/a	1	0	0.5869140625	0.422607421875	lower	../fonts/amplitud.ttf
2353934	WORD	wordpools/wasnorm_wordpool.txt	LTP095	ltpFR	6	13	0	CLOVE	329	n/a	0	0	0.5869140625	0.422607421875	lower	../fonts/amplitud.ttf
2357801	WORD	wordpools/wasnorm_wordpool.txt	LTP095	ltpFR	6	13	0	BANQUET	86	n/a	1	0	0.5869140625	0.422607421875	lower	../fonts/amplitud.ttf
2361884	WORD	wordpools/wasnorm_wordpool.txt	LTP095	ltpFR	6	13	0	CAFETERIA	217	n/a	1	0	0.5869140625	0.422607421875	lower	../fonts/amplitud.ttf
2366092	WORD	wordpools/wasnorm_wordpool.txt	LTP095	ltpFR	6	13	0	POTTERY	1116	n/a	0	0	0.5869140625	0.422607421875	lower	../fonts/amplitud.ttf
2370241	WORD	wordpools/wasnorm_wordpool.txt	LTP095	ltpFR	6	13	0	CARPET	247	n/a	1	0	0.5869140625	0.422607421875	lower	../fonts/amplitud.ttf
2374149	WORD	wordpools/wasnorm_wordpool.txt	LTP095	ltpFR	6	13	0	GAZELLE	628	n/a	1	0	0.5869140625	0.422607421875	lower	../fonts/amplitud.ttf
2378024	WORD	wordpools/wasnorm_wordpool.txt	LTP095	ltpFR	6	13	0	SOCK	1339	n/a	0	0	0.5869140625	0.422607421875	lower	../fonts/amplitud.ttf
2382141	WORD	wordpools/wasnorm_wordpool.txt	LTP095	ltpFR	6	13	0	DIVER	476	n/a	1	0	0.5869140625	0.422607421875	lower	../fonts/amplitud.ttf
2386040	WORD	wordpools/wasnorm_wordpool.txt	LTP095	ltpFR	6	13	0	SNEAKER	1334	n/a	1	0	0.5869140625	0.422607421875	lower	../fonts/amplitud.ttf
2390190	WORD	wordpools/wasnorm_wordpool.txt	LTP095	ltpFR	6	13	0	CHAMBER	277	n/a	1	0	0.5869140625	0.422607421875	lower	../fonts/amplitud.ttf
2396273	REC_START	n/a	LTP095	ltpFR	6	13	n/a	n/a	n/a	n/a	n/a	n/a	n/a	n/a	n/a	n/a
2398478	REC_WORD	wordpools/wasnorm_wordpool.txt	LTP095	ltpFR	6	13	0	CHAMBER	277	n/a	1	n/a	n/a	n/a	n/a	n/a
2411239	REC_WORD	wordpools/wasnorm_wordpool.txt	LTP095	ltpFR	6	13	0	CONTAINER	366	n/a	0	n/a	n/a	n/a	n/a	n/a
2412239	REC_WORD_VV	wordpools/wasnorm_wordpool.txt	LTP095	ltpFR	6	13	n/a	<>	-1	n/a	n/a	n/a	n/a	n/a	n/a	n/a
2412985	REC_WORD	wordpools/wasnorm_wordpool.txt	LTP095	ltpFR	6	13	0	LID	817	n/a	0	n/a	n/a	n/a	n/a	n/a
2417944	REC_WORD	wordpools/wasnorm_wordpool.txt	LTP095	ltpFR	6	13	0	OREGANO	983	n/a	0	n/a	n/a	n/a	n/a	n/a
2428430	REC_WORD	wordpools/wasnorm_wordpool.txt	LTP095	ltpFR	6	13	0	CARPET	247	n/a	1	n/a	n/a	n/a	n/a	n/a
2470035	REC_WORD	wordpools/wasnorm_wordpool.txt	LTP095	ltpFR	6	13	0	GAZELLE	628	n/a	1	n/a	n/a	n/a	n/a	n/a
2480633	WORD	wordpools/wasnorm_wordpool.txt	LTP095	ltpFR	6	14	1	FLANNEL	574	n/a	0	1	0.412841796875	0.57763671875	upper	../fonts/zerothre.ttf
2484699	WORD	wordpools/wasnorm_wordpool.txt	LTP095	ltpFR	6	14	1	BABY	64	n/a	1	1	0.412841796875	0.57763671875	upper	../fonts/zerothre.ttf
2488907	WORD	wordpools/wasnorm_wordpool.txt	LTP095	ltpFR	6	14	1	LOVER	846	n/a	1	1	0.412841796875	0.57763671875	upper	../fonts/zerothre.ttf
2492725	WORD	wordpools/wasnorm_wordpool.txt	LTP095	ltpFR	6	14	1	NURSE	963	n/a	1	1	0.412841796875	0.57763671875	upper	../fonts/zerothre.ttf
2496640	WORD	wordpools/wasnorm_wordpool.txt	LTP095	ltpFR	6	14	0	FEAST	556	n/a	1	0	0.5869140625	0.422607421875	lower	../fonts/amplitud.ttf
2500465	WORD	wordpools/wasnorm_wordpool.txt	LTP095	ltpFR	6	14	0	DINNER	468	n/a	1	0	0.5869140625	0.422607421875	lower	../fonts/amplitud.ttf
2504623	WORD	wordpools/wasnorm_wordpool.txt	LTP095	ltpFR	6	14	0	SCALPEL	1243	n/a	0	0	0.5869140625	0.422607421875	lower	../fonts/amplitud.ttf
2508498	WORD	wordpools/wasnorm_wordpool.txt	LTP095	ltpFR	6	14	1	TUNNEL	1519	n/a	1	1	0.412841796875	0.57763671875	upper	../fonts/zerothre.ttf
2512372	WORD	wordpools/wasnorm_wordpool.txt	LTP095	ltpFR	6	14	1	TORCH	1484	n/a	0	1	0.412841796875	0.57763671875	upper	../fonts/zerothre.ttf
2516189	WORD	wordpools/wasnorm_wordpool.txt	LTP095	ltpFR	6	14	0	WILDERNESS	1610	n/a	1	0	0.5869140625	0.422607421875	lower	../fonts/amplitud.ttf
2520130	WORD	wordpools/wasnorm_wordpool.txt	LTP095	ltpFR	6	14	0	QUILT	1151	n/a	n/a	0	0.5869140625	0.422607421875	lower	../fonts/amplitud.ttf
2523155	SLOW_MSG	n/a	LTP095	ltpFR	6	14	n/a	n/a	n/a	n/a	n/a	n/a	n/a	n/a	n/a	n/a
2525796	WORD	wordpools/wasnorm_wordpool.txt	LTP095	ltpFR	6	14	0	SALAD	1224	n/a	0	0	0.5869140625	0.422607421875	lower	../fonts/amplitud.ttf
2529654	WORD	wordpools/wasnorm_wordpool.txt	LTP095	ltpFR	6	14	0	RUM	1217	n/a	0	0	0.5869140625	0.422607421875	lower	../fonts/amplitud.ttf
2533821	WORD	wordpools/wasnorm_wordpool.txt	LTP095	ltpFR	6	14	0	CAN	225	n/a	0	0	0.5869140625	0.422607421875	lower	../fonts/amplitud.ttf
2537995	WORD	wordpools/wasnorm_wordpool.txt	LTP095	ltpFR	6	14	1	BUFFALO	186	n/a	1	1	0.412841796875	0.57763671875	upper	../fonts/zerothre.ttf
2542162	WORD	wordpools/wasnorm_wordpool.txt	LTP095	ltpFR	6	14	1	GIRAFFE	636	n/a	1	1	0.412841796875	0.57763671875	upper	../fonts/zerothre.ttf
2548020	REC_START	n/a	LTP095	ltpFR	6	14	n/a	n/a	n/a	n/a	n/a	n/a	n/a	n/a	n/a	n/a
2550584	REC_WORD	wordpools/wasnorm_wordpool.txt	LTP095	ltpFR	6	14	1	BUFFALO	186	n/a	1	n/a	n/a	n/a	n/a	n/a
2551584	REC_WORD_VV	wordpools/wasnorm_wordpool.txt	LTP095	ltpFR	6	14	n/a	<>	-1	n/a	n/a	n/a	n/a	n/a	n/a	n/a
2554206	REC_WORD	wordpools/wasnorm_wordpool.txt	LTP095	ltpFR	6	14	0	CAN	225	n/a	0	n/a	n/a	n/a	n/a	n/a
2556780	REC_WORD	wordpools/wasnorm_wordpool.txt	LTP095	ltpFR	6	14	0	RUM	1217	n/a	0	n/a	n/a	n/a	n/a	n/a
2558306	REC_WORD	wordpools/wasnorm_wordpool.txt	LTP095	ltpFR	6	14	0	DINNER	468	n/a	1	n/a	n/a	n/a	n/a	n/a
2559339	REC_WORD	wordpools/wasnorm_wordpool.txt	LTP095	ltpFR	6	14	0	FEAST	556	n/a	1	n/a	n/a	n/a	n/a	n/a
2560339	REC_WORD_VV	wordpools/wasnorm_wordpool.txt	LTP095	ltpFR	6	14	n/a	<>	-1	n/a	n/a	n/a	n/a	n/a	n/a	n/a
2592464	REC_WORD	wordpools/wasnorm_wordpool.txt	LTP095	ltpFR	6	14	1	BABY	64	n/a	1	n/a	n/a	n/a	n/a	n/a
2603249	REC_WORD_VV	wordpools/wasnorm_wordpool.txt	LTP095	ltpFR	6	14	n/a	<>	-1	n/a	n/a	n/a	n/a	n/a	n/a	n/a
2651662	WORD	wordpools/wasnorm_wordpool.txt	LTP095	ltpFR	6	15	1	LEAF	808	n/a	1	1	0.412841796875	0.57763671875	upper	../fonts/zerothre.ttf
2655778	WORD	wordpools/wasnorm_wordpool.txt	LTP095	ltpFR	6	15	1	BANJO	82	n/a	0	1	0.412841796875	0.57763671875	upper	../fonts/zerothre.ttf
2659970	WORD	wordpools/wasnorm_wordpool.txt	LTP095	ltpFR	6	15	1	LAWYER	806	n/a	1	1	0.412841796875	0.57763671875	upper	../fonts/zerothre.ttf
2663828	WORD	wordpools/wasnorm_wordpool.txt	LTP095	ltpFR	6	15	1	ATTORNEY	58	n/a	1	1	0.412841796875	0.57763671875	upper	../fonts/zerothre.ttf
2667811	WORD	wordpools/wasnorm_wordpool.txt	LTP095	ltpFR	6	15	1	SUBURB	1399	n/a	0	1	0.412841796875	0.57763671875	upper	../fonts/zerothre.ttf
2671869	WORD	wordpools/wasnorm_wordpool.txt	LTP095	ltpFR	6	15	1	GHETTO	633	n/a	1	1	0.412841796875	0.57763671875	upper	../fonts/zerothre.ttf
2675943	WORD	wordpools/wasnorm_wordpool.txt	LTP095	ltpFR	6	15	1	BAKER	71	n/a	1	1	0.412841796875	0.57763671875	upper	../fonts/zerothre.ttf
2680101	WORD	wordpools/wasnorm_wordpool.txt	LTP095	ltpFR	6	15	1	SCALLOP	1242	n/a	0	1	0.412841796875	0.57763671875	upper	../fonts/zerothre.ttf
2684118	WORD	wordpools/wasnorm_wordpool.txt	LTP095	ltpFR	6	15	1	THREAD	1460	n/a	0	1	0.412841796875	0.57763671875	upper	../fonts/zerothre.ttf
2687967	WORD	wordpools/wasnorm_wordpool.txt	LTP095	ltpFR	6	15	1	SUPPER	1411	n/a	0	1	0.412841796875	0.57763671875	upper	../fonts/zerothre.ttf
2691942	WORD	wordpools/wasnorm_wordpool.txt	LTP095	ltpFR	6	15	1	CUPBOARD	425	n/a	n/a	1	0.412841796875	0.57763671875	upper	../fonts/zerothre.ttf
2694967	SLOW_MSG	n/a	LTP095	ltpFR	6	15	n/a	n/a	n/a	n/a	n/a	n/a	n/a	n/a	n/a	n/a
2697300	WORD	wordpools/wasnorm_wordpool.txt	LTP095	ltpFR	6	15	1	SHEET	1279	n/a	0	1	0.412841796875	0.57763671875	upper	../fonts/zerothre.ttf
2701458	WORD	wordpools/wasnorm_wordpool.txt	LTP095	ltpFR	6	15	1	ICING	732	n/a	0	1	0.412841796875	0.57763671875	upper	../fonts/zerothre.ttf
2705533	WORD	wordpools/wasnorm_wordpool.txt	LTP095	ltpFR	6	15	1	PALM	1007	n/a	0	1	0.412841796875	0.57763671875	upper	../fonts/zerothre.ttf
2709742	WORD	wordpools/wasnorm_wordpool.txt	LTP095	ltpFR	6	15	1	SECRETARY	1265	n/a	1	1	0.412841796875	0.57763671875	upper	../fonts/zerothre.ttf
2713624	WORD	wordpools/wasnorm_wordpool.txt	LTP095	ltpFR	6	15	1	SWAN	1417	n/a	n/a	1	0.412841796875	0.57763671875	upper	../fonts/zerothre.ttf
2716649	SLOW_MSG	n/a	LTP095	ltpFR	6	15	n/a	n/a	n/a	n/a	n/a	n/a	n/a	n/a	n/a	n/a
2721057	REC_START	n/a	LTP095	ltpFR	6	15	n/a	n/a	n/a	n/a	n/a	n/a	n/a	n/a	n/a	n/a
2724025	REC_WORD	wordpools/wasnorm_wordpool.txt	LTP095	ltpFR	6	15	1	SWAN	1417	n/a	n/a	n/a	n/a	n/a	n/a	n/a
2725025	REC_WORD_VV	wordpools/wasnorm_wordpool.txt	LTP095	ltpFR	6	15	n/a	<>	-1	n/a	n/a	n/a	n/a	n/a	n/a	n/a
2727792	REC_WORD	wordpools/wasnorm_wordpool.txt	LTP095	ltpFR	6	15	1	ATTORNEY	58	n/a	1	n/a	n/a	n/a	n/a	n/a
2730500	REC_WORD	wordpools/wasnorm_wordpool.txt	LTP095	ltpFR	6	15	1	LAWYER	806	n/a	1	n/a	n/a	n/a	n/a	n/a
2736103	REC_WORD	wordpools/wasnorm_wordpool.txt	LTP095	ltpFR	6	15	1	GHETTO	633	n/a	1	n/a	n/a	n/a	n/a	n/a
2740308	REC_WORD	wordpools/wasnorm_wordpool.txt	LTP095	ltpFR	6	15	1	SUBURB	1399	n/a	0	n/a	n/a	n/a	n/a	n/a
2782742	REC_WORD_VV	wordpools/wasnorm_wordpool.txt	LTP095	ltpFR	6	15	n/a	<>	-1	n/a	n/a	n/a	n/a	n/a	n/a	n/a
2783630	REC_WORD_VV	wordpools/wasnorm_wordpool.txt	LTP095	ltpFR	6	15	n/a	<>	-1	n/a	n/a	n/a	n/a	n/a	n/a	n/a
2799251	WORD	wordpools/wasnorm_wordpool.txt	LTP095	ltpFR	6	16	0	VICTOR	1563	n/a	1	0	0.5869140625	0.422607421875	lower	../fonts/amplitud.ttf
2803400	WORD	wordpools/wasnorm_wordpool.txt	LTP095	ltpFR	6	16	0	JUNGLE	764	n/a	1	0	0.5869140625	0.422607421875	lower	../fonts/amplitud.ttf
2807492	WORD	wordpools/wasnorm_wordpool.txt	LTP095	ltpFR	6	16	0	ANTLER	29	n/a	1	0	0.5869140625	0.422607421875	lower	../fonts/amplitud.ttf
2811541	WORD	wordpools/wasnorm_wordpool.txt	LTP095	ltpFR	6	16	0	ALLEY	15	n/a	1	0	0.5869140625	0.422607421875	lower	../fonts/amplitud.ttf
2815499	WORD	wordpools/wasnorm_wordpool.txt	LTP095	ltpFR	6	16	0	WHISKERS	1605	n/a	0	0	0.5869140625	0.422607421875	lower	../fonts/amplitud.ttf
2819557	WORD	wordpools/wasnorm_wordpool.txt	LTP095	ltpFR	6	16	0	BERRY	122	n/a	0	0	0.5869140625	0.422607421875	lower	../fonts/amplitud.ttf
2823624	WORD	wordpools/wasnorm_wordpool.txt	LTP095	ltpFR	6	16	0	ARTERY	41	n/a	0	0	0.5869140625	0.422607421875	lower	../fonts/amplitud.ttf
2827573	WORD	wordpools/wasnorm_wordpool.txt	LTP095	ltpFR	6	16	0	SKIN	1318	n/a	1	0	0.5869140625	0.422607421875	lower	../fonts/amplitud.ttf
2831523	WORD	wordpools/wasnorm_wordpool.txt	LTP095	ltpFR	6	16	0	ROAD	1196	n/a	n/a	0	0.5869140625	0.422607421875	lower	../fonts/amplitud.ttf
2834548	SLOW_MSG	n/a	LTP095	ltpFR	6	16	n/a	n/a	n/a	n/a	n/a	n/a	n/a	n/a	n/a	n/a
2836981	WORD	wordpools/wasnorm_wordpool.txt	LTP095	ltpFR	6	16	0	PUMPKIN	1142	n/a	1	0	0.5869140625	0.422607421875	lower	../fonts/amplitud.ttf
2840889	WORD	wordpools/wasnorm_wordpool.txt	LTP095	ltpFR	6	16	0	APPLE	33	n/a	0	0	0.5869140625	0.422607421875	lower	../fonts/amplitud.ttf
2844765	WORD	wordpools/wasnorm_wordpool.txt	LTP095	ltpFR	6	16	0	VEGETABLE	1552	n/a	0	0	0.5869140625	0.422607421875	lower	../fonts/amplitud.ttf
2848739	WORD	wordpools/wasnorm_wordpool.txt	LTP095	ltpFR	6	16	0	SKI	1316	n/a	1	0	0.5869140625	0.422607421875	lower	../fonts/amplitud.ttf
2852863	WORD	wordpools/wasnorm_wordpool.txt	LTP095	ltpFR	6	16	0	SLOPE	1328	n/a	1	0	0.5869140625	0.422607421875	lower	../fonts/amplitud.ttf
2856880	WORD	wordpools/wasnorm_wordpool.txt	LTP095	ltpFR	6	16	0	MUSTARD	935	n/a	0	0	0.5869140625	0.422607421875	lower	../fonts/amplitud.ttf
2860879	WORD	wordpools/wasnorm_wordpool.txt	LTP095	ltpFR	6	16	0	DILL	465	n/a	0	0	0.5869140625	0.422607421875	lower	../fonts/amplitud.ttf
2866714	REC_START	n/a	LTP095	ltpFR	6	16	n/a	n/a	n/a	n/a	n/a	n/a	n/a	n/a	n/a	n/a
2870250	REC_WORD	wordpools/wasnorm_wordpool.txt	LTP095	ltpFR	6	16	0	DILL	465	n/a	0	n/a	n/a	n/a	n/a	n/a
2872256	REC_WORD	wordpools/wasnorm_wordpool.txt	LTP095	ltpFR	6	16	0	SLOPE	1328	n/a	1	n/a	n/a	n/a	n/a	n/a
2874286	REC_WORD	wordpools/wasnorm_wordpool.txt	LTP095	ltpFR	6	16	0	SKI	1316	n/a	1	n/a	n/a	n/a	n/a	n/a
2876362	REC_WORD	wordpools/wasnorm_wordpool.txt	LTP095	ltpFR	6	16	0	ANTLER	29	n/a	1	n/a	n/a	n/a	n/a	n/a
2881565	REC_WORD	wordpools/wasnorm_wordpool.txt	LTP095	ltpFR	6	16	0	VICTOR	1563	n/a	1	n/a	n/a	n/a	n/a	n/a
2882565	REC_WORD_VV	wordpools/wasnorm_wordpool.txt	LTP095	ltpFR	6	16	n/a	<>	-1	n/a	n/a	n/a	n/a	n/a	n/a	n/a
2966322	REC_START	n/a	LTP095	ltpFR	6	n/a	n/a	n/a	n/a	n/a	n/a	n/a	n/a	n/a	n/a	n/a
2969983	FFR_REC_WORD	wordpools/wasnorm_wordpool.txt	LTP095	ltpFR	6	n/a	0	ANTLER	29	n/a	1	n/a	n/a	n/a	n/a	n/a
2971420	FFR_REC_WORD	wordpools/wasnorm_wordpool.txt	LTP095	ltpFR	6	n/a	1	ATTORNEY	58	n/a	1	n/a	n/a	n/a	n/a	n/a
2973421	FFR_REC_WORD	wordpools/wasnorm_wordpool.txt	LTP095	ltpFR	6	n/a	1	LAWYER	806	n/a	1	n/a	n/a	n/a	n/a	n/a
2975152	FFR_REC_WORD	wordpools/wasnorm_wordpool.txt	LTP095	ltpFR	6	n/a	-1	GATE	625	n/a	-1	n/a	n/a	n/a	n/a	n/a
2978514	FFR_REC_WORD	wordpools/wasnorm_wordpool.txt	LTP095	ltpFR	6	n/a	n/a	FENCE	560	n/a	n/a	n/a	n/a	n/a	n/a	n/a
2979514	FFR_REC_WORD_VV	wordpools/wasnorm_wordpool.txt	LTP095	ltpFR	6	n/a	n/a	<>	-1	n/a	n/a	n/a	n/a	n/a	n/a	n/a
2980559	FFR_REC_WORD	wordpools/wasnorm_wordpool.txt	LTP095	ltpFR	6	n/a	1	GHETTO	633	n/a	1	n/a	n/a	n/a	n/a	n/a
2981856	FFR_REC_WORD	wordpools/wasnorm_wordpool.txt	LTP095	ltpFR	6	n/a	1	SUBURB	1399	n/a	0	n/a	n/a	n/a	n/a	n/a
2982856	FFR_REC_WORD_VV	wordpools/wasnorm_wordpool.txt	LTP095	ltpFR	6	n/a	n/a	<>	-1	n/a	n/a	n/a	n/a	n/a	n/a	n/a
2984949	FFR_REC_WORD	wordpools/wasnorm_wordpool.txt	LTP095	ltpFR	6	n/a	0	JUG	762	n/a	1	n/a	n/a	n/a	n/a	n/a
2986132	FFR_REC_WORD	wordpools/wasnorm_wordpool.txt	LTP095	ltpFR	6	n/a	-1	TRAY	1498	n/a	-1	n/a	n/a	n/a	n/a	n/a
2988342	FFR_REC_WORD	wordpools/wasnorm_wordpool.txt	LTP095	ltpFR	6	n/a	0	RUM	1217	n/a	0	n/a	n/a	n/a	n/a	n/a
2991280	FFR_REC_WORD	wordpools/wasnorm_wordpool.txt	LTP095	ltpFR	6	n/a	0	VICTOR	1563	n/a	1	n/a	n/a	n/a	n/a	n/a
2993799	FFR_REC_WORD	wordpools/wasnorm_wordpool.txt	LTP095	ltpFR	6	n/a	0	BEAST	108	n/a	1	n/a	n/a	n/a	n/a	n/a
2994902	FFR_REC_WORD	wordpools/wasnorm_wordpool.txt	LTP095	ltpFR	6	n/a	1	BABY	64	n/a	1	n/a	n/a	n/a	n/a	n/a
2997127	FFR_REC_WORD	wordpools/wasnorm_wordpool.txt	LTP095	ltpFR	6	n/a	1	BODY	145	n/a	1	n/a	n/a	n/a	n/a	n/a
2998983	FFR_REC_WORD	wordpools/wasnorm_wordpool.txt	LTP095	ltpFR	6	n/a	1	ELBOW	520	n/a	1	n/a	n/a	n/a	n/a	n/a
3020289	FFR_REC_WORD	wordpools/wasnorm_wordpool.txt	LTP095	ltpFR	6	n/a	0	CLOVE	329	n/a	0	n/a	n/a	n/a	n/a	n/a
3075618	FFR_REC_WORD	wordpools/wasnorm_wordpool.txt	LTP095	ltpFR	6	n/a	0	YOKE	1632	n/a	0	n/a	n/a	n/a	n/a	n/a
3079789	FFR_REC_WORD	wordpools/wasnorm_wordpool.txt	LTP095	ltpFR	6	n/a	1	POT	1114	n/a	0	n/a	n/a	n/a	n/a	n/a
3088085	FFR_REC_WORD	wordpools/wasnorm_wordpool.txt	LTP095	ltpFR	6	n/a	n/a	PAN	1008	n/a	n/a	n/a	n/a	n/a	n/a	n/a
3093613	FFR_REC_WORD	wordpools/wasnorm_wordpool.txt	LTP095	ltpFR	6	n/a	1	JOINT	758	n/a	0	n/a	n/a	n/a	n/a	n/a
3101335	FFR_REC_WORD	wordpools/wasnorm_wordpool.txt	LTP095	ltpFR	6	n/a	1	SILVERWARE	1308	n/a	0	n/a	n/a	n/a	n/a	n/a
3102335	FFR_REC_WORD_VV	wordpools/wasnorm_wordpool.txt	LTP095	ltpFR	6	n/a	n/a	<>	-1	n/a	n/a	n/a	n/a	n/a	n/a	n/a
3114236	FFR_REC_WORD	wordpools/wasnorm_wordpool.txt	LTP095	ltpFR	6	n/a	-1	AIRCRAFT	11	n/a	-1	n/a	n/a	n/a	n/a	n/a
3115236	FFR_REC_WORD_VV	wordpools/wasnorm_wordpool.txt	LTP095	ltpFR	6	n/a	n/a	<>	-1	n/a	n/a	n/a	n/a	n/a	n/a	n/a
3115907	FFR_REC_WORD	wordpools/wasnorm_wordpool.txt	LTP095	ltpFR	6	n/a	-1	AIRPLANE	12	n/a	-1	n/a	n/a	n/a	n/a	n/a
3119393	FFR_REC_WORD	wordpools/wasnorm_wordpool.txt	LTP095	ltpFR	6	n/a	0	SLOPE	1328	n/a	1	n/a	n/a	n/a	n/a	n/a
3121094	FFR_REC_WORD	wordpools/wasnorm_wordpool.txt	LTP095	ltpFR	6	n/a	0	SKI	1316	n/a	1	n/a	n/a	n/a	n/a	n/a
3132649	FFR_REC_WORD	wordpools/wasnorm_wordpool.txt	LTP095	ltpFR	6	n/a	0	DINNER	468	n/a	1	n/a	n/a	n/a	n/a	n/a
3134160	FFR_REC_WORD	wordpools/wasnorm_wordpool.txt	LTP095	ltpFR	6	n/a	0	FEAST	556	n/a	1	n/a	n/a	n/a	n/a	n/a
3139483	FFR_REC_WORD	wordpools/wasnorm_wordpool.txt	LTP095	ltpFR	6	n/a	0	MONARCH	906	n/a	1	n/a	n/a	n/a	n/a	n/a
3156814	FFR_REC_WORD	wordpools/wasnorm_wordpool.txt	LTP095	ltpFR	6	n/a	-1	AFRICA	9	n/a	-1	n/a	n/a	n/a	n/a	n/a
3162920	FFR_REC_WORD	wordpools/wasnorm_wordpool.txt	LTP095	ltpFR	6	n/a	0	CHAIRPERSON	275	n/a	1	n/a	n/a	n/a	n/a	n/a
3163920	FFR_REC_WORD_VV	wordpools/wasnorm_wordpool.txt	LTP095	ltpFR	6	n/a	n/a	<>	-1	n/a	n/a	n/a	n/a	n/a	n/a	n/a
3180799	FFR_REC_WORD	wordpools/wasnorm_wordpool.txt	LTP095	ltpFR	6	n/a	n/a	ACTRESS	6	n/a	n/a	n/a	n/a	n/a	n/a	n/a
3181799	FFR_REC_WORD_VV	wordpools/wasnorm_wordpool.txt	LTP095	ltpFR	6	n/a	n/a	<>	-1	n/a	n/a	n/a	n/a	n/a	n/a	n/a
3263287	FFR_REC_WORD	wordpools/wasnorm_wordpool.txt	LTP095	ltpFR	6	n/a	0	RODENT	1204	n/a	0	n/a	n/a	n/a	n/a	n/a
3264558	FFR_REC_WORD	wordpools/wasnorm_wordpool.txt	LTP095	ltpFR	6	n/a	0	INSECT	740	n/a	0	n/a	n/a	n/a	n/a	n/a
3294372	REC_START	n/a	LTP095	ltpFR	6	1	n/a	n/a	n/a	n/a	n/a	n/a	n/a	n/a	n/a	n/a
3294405	RECOG_TARGET	n/a	LTP095	ltpFR	6	1	1	VAMPIRE	1547	2	1	n/a	n/a	n/a	n/a	n/a
3296312	RECOG_RESP	n/a	LTP095	ltpFR	6	1	1	VAMPIRE	1547	n/a	1	n/a	n/a	n/a	n/a	n/a
3299006	RECOG_CONF	n/a	LTP095	ltpFR	6	1	1	VAMPIRE	1547	2	1	n/a	n/a	n/a	n/a	n/a
3300779	RECOG_TARGET	n/a	LTP095	ltpFR	6	1	0	CHERRY	293	3	0	n/a	n/a	n/a	n/a	n/a
3301675	RECOG_RESP	n/a	LTP095	ltpFR	6	1	0	CHERRY	293	n/a	0	n/a	n/a	n/a	n/a	n/a
3302758	RECOG_CONF	n/a	LTP095	ltpFR	6	1	0	CHERRY	293	3	0	n/a	n/a	n/a	n/a	n/a
3304362	RECOG_LURE	n/a	LTP095	ltpFR	6	1	n/a	PORK	1108	2	n/a	n/a	n/a	n/a	n/a	n/a
3306020	RECOG_RESP	n/a	LTP095	ltpFR	6	1	n/a	PORK	1108	n/a	n/a	n/a	n/a	n/a	n/a	n/a
3306868	RECOG_CONF	n/a	LTP095	ltpFR	6	1	n/a	PORK	1108	2	n/a	n/a	n/a	n/a	n/a	n/a
3308429	RECOG_LURE	n/a	LTP095	ltpFR	6	1	n/a	FLEA	577	3	n/a	n/a	n/a	n/a	n/a	n/a
3310201	RECOG_RESP	n/a	LTP095	ltpFR	6	1	n/a	FLEA	577	n/a	n/a	n/a	n/a	n/a	n/a	n/a
3311019	RECOG_CONF	n/a	LTP095	ltpFR	6	1	n/a	FLEA	577	3	n/a	n/a	n/a	n/a	n/a	n/a
3312495	RECOG_TARGET	n/a	LTP095	ltpFR	6	1	1	SUBURB	1399	5	0	n/a	n/a	n/a	n/a	n/a
3313304	RECOG_RESP	n/a	LTP095	ltpFR	6	1	1	SUBURB	1399	n/a	0	n/a	n/a	n/a	n/a	n/a
3314222	RECOG_CONF	n/a	LTP095	ltpFR	6	1	1	SUBURB	1399	5	0	n/a	n/a	n/a	n/a	n/a
3315845	RECOG_LURE	n/a	LTP095	ltpFR	6	1	n/a	BASSINET	97	3	n/a	n/a	n/a	n/a	n/a	n/a
3318881	RECOG_RESP	n/a	LTP095	ltpFR	6	1	n/a	BASSINET	97	n/a	n/a	n/a	n/a	n/a	n/a	n/a
3320108	RECOG_CONF	n/a	LTP095	ltpFR	6	1	n/a	BASSINET	97	3	n/a	n/a	n/a	n/a	n/a	n/a
3321619	RECOG_TARGET	n/a	LTP095	ltpFR	6	1	0	RUM	1217	5	0	n/a	n/a	n/a	n/a	n/a
3322583	RECOG_RESP	n/a	LTP095	ltpFR	6	1	0	RUM	1217	n/a	0	n/a	n/a	n/a	n/a	n/a
3323521	RECOG_CONF	n/a	LTP095	ltpFR	6	1	0	RUM	1217	5	0	n/a	n/a	n/a	n/a	n/a
3325144	RECOG_LURE	n/a	LTP095	ltpFR	6	1	n/a	UNIVERSITY	1541	2	n/a	n/a	n/a	n/a	n/a	n/a
3326035	RECOG_RESP	n/a	LTP095	ltpFR	6	1	n/a	UNIVERSITY	1541	n/a	n/a	n/a	n/a	n/a	n/a	n/a
3326813	RECOG_CONF	n/a	LTP095	ltpFR	6	1	n/a	UNIVERSITY	1541	2	n/a	n/a	n/a	n/a	n/a	n/a
3329019	RECOG_LURE	n/a	LTP095	ltpFR	6	1	n/a	BUILDING	191	3	n/a	n/a	n/a	n/a	n/a	n/a
3330136	RECOG_RESP	n/a	LTP095	ltpFR	6	1	n/a	BUILDING	191	n/a	n/a	n/a	n/a	n/a	n/a	n/a
3331083	RECOG_CONF	n/a	LTP095	ltpFR	6	1	n/a	BUILDING	191	3	n/a	n/a	n/a	n/a	n/a	n/a
3332720	RECOG_TARGET	n/a	LTP095	ltpFR	6	1	0	VEGETABLE	1552	2	0	n/a	n/a	n/a	n/a	n/a
3335897	RECOG_RESP	n/a	LTP095	ltpFR	6	1	0	VEGETABLE	1552	n/a	0	n/a	n/a	n/a	n/a	n/a
3336970	RECOG_CONF	n/a	LTP095	ltpFR	6	1	0	VEGETABLE	1552	2	0	n/a	n/a	n/a	n/a	n/a
3338576	RECOG_TARGET	n/a	LTP095	ltpFR	6	1	-1	BLOUSE	139	3	-1	n/a	n/a	n/a	n/a	n/a
3339833	RECOG_RESP	n/a	LTP095	ltpFR	6	1	-1	BLOUSE	139	n/a	-1	n/a	n/a	n/a	n/a	n/a
3340911	RECOG_CONF	n/a	LTP095	ltpFR	6	1	-1	BLOUSE	139	3	-1	n/a	n/a	n/a	n/a	n/a
3342693	RECOG_TARGET	n/a	LTP095	ltpFR	6	1	0	LID	817	5	0	n/a	n/a	n/a	n/a	n/a
3343505	RECOG_RESP	n/a	LTP095	ltpFR	6	1	0	LID	817	n/a	0	n/a	n/a	n/a	n/a	n/a
3344533	RECOG_CONF	n/a	LTP095	ltpFR	6	1	0	LID	817	5	0	n/a	n/a	n/a	n/a	n/a
3346068	RECOG_TARGET	n/a	LTP095	ltpFR	6	1	0	ASSISTANT	48	4	1	n/a	n/a	n/a	n/a	n/a
3347067	RECOG_RESP	n/a	LTP095	ltpFR	6	1	0	ASSISTANT	48	n/a	1	n/a	n/a	n/a	n/a	n/a
3348105	RECOG_CONF	n/a	LTP095	ltpFR	6	1	0	ASSISTANT	48	4	1	n/a	n/a	n/a	n/a	n/a
3349301	RECOG_TARGET	n/a	LTP095	ltpFR	6	1	0	BUILDER	190	5	1	n/a	n/a	n/a	n/a	n/a
3350115	RECOG_RESP	n/a	LTP095	ltpFR	6	1	0	BUILDER	190	n/a	1	n/a	n/a	n/a	n/a	n/a
3350948	RECOG_CONF	n/a	LTP095	ltpFR	6	1	0	BUILDER	190	5	1	n/a	n/a	n/a	n/a	n/a
3353059	RECOG_TARGET	n/a	LTP095	ltpFR	6	1	0	ANTLER	29	5	1	n/a	n/a	n/a	n/a	n/a
3354011	RECOG_RESP	n/a	LTP095	ltpFR	6	1	0	ANTLER	29	n/a	1	n/a	n/a	n/a	n/a	n/a
3354869	RECOG_CONF	n/a	LTP095	ltpFR	6	1	0	ANTLER	29	5	1	n/a	n/a	n/a	n/a	n/a
3356283	RECOG_TARGET	n/a	LTP095	ltpFR	6	1	-1	BEDROOM	111	2	-1	n/a	n/a	n/a	n/a	n/a
3359723	RECOG_RESP	n/a	LTP095	ltpFR	6	1	-1	BEDROOM	111	n/a	-1	n/a	n/a	n/a	n/a	n/a
3361125	RECOG_CONF	n/a	LTP095	ltpFR	6	1	-1	BEDROOM	111	2	-1	n/a	n/a	n/a	n/a	n/a
3362734	RECOG_TARGET	n/a	LTP095	ltpFR	6	1	0	ASPIRIN	47	4	1	n/a	n/a	n/a	n/a	n/a
3363490	RECOG_RESP	n/a	LTP095	ltpFR	6	1	0	ASPIRIN	47	n/a	1	n/a	n/a	n/a	n/a	n/a
3364507	RECOG_CONF	n/a	LTP095	ltpFR	6	1	0	ASPIRIN	47	4	1	n/a	n/a	n/a	n/a	n/a
3366183	RECOG_TARGET	n/a	LTP095	ltpFR	6	1	-1	CREAM	402	4	-1	n/a	n/a	n/a	n/a	n/a
3367431	RECOG_RESP	n/a	LTP095	ltpFR	6	1	-1	CREAM	402	n/a	-1	n/a	n/a	n/a	n/a	n/a
3368828	RECOG_CONF	n/a	LTP095	ltpFR	6	1	-1	CREAM	402	4	-1	n/a	n/a	n/a	n/a	n/a
3370316	RECOG_TARGET	n/a	LTP095	ltpFR	6	1	1	AGENT	10	3	1	n/a	n/a	n/a	n/a	n/a
3372644	RECOG_RESP	n/a	LTP095	ltpFR	6	1	1	AGENT	10	n/a	1	n/a	n/a	n/a	n/a	n/a
3373627	RECOG_CONF	n/a	LTP095	ltpFR	6	1	1	AGENT	10	3	1	n/a	n/a	n/a	n/a	n/a
3375032	RECOG_TARGET	n/a	LTP095	ltpFR	6	1	0	SNEAKER	1334	1	1	n/a	n/a	n/a	n/a	n/a
3376041	RECOG_RESP	n/a	LTP095	ltpFR	6	1	0	SNEAKER	1334	n/a	1	n/a	n/a	n/a	n/a	n/a
3376929	RECOG_CONF	n/a	LTP095	ltpFR	6	1	0	SNEAKER	1334	1	1	n/a	n/a	n/a	n/a	n/a
3380628	REC_START	n/a	LTP095	ltpFR	6	2	n/a	n/a	n/a	n/a	n/a	n/a	n/a	n/a	n/a	n/a
3380657	RECOG_TARGET	n/a	LTP095	ltpFR	6	2	0	HUT	729	4	1	n/a	n/a	n/a	n/a	n/a
3381421	RECOG_RESP	n/a	LTP095	ltpFR	6	2	0	HUT	729	n/a	1	n/a	n/a	n/a	n/a	n/a
3382319	RECOG_CONF	n/a	LTP095	ltpFR	6	2	0	HUT	729	4	1	n/a	n/a	n/a	n/a	n/a
3383848	RECOG_TARGET	n/a	LTP095	ltpFR	6	2	1	DOCUMENT	479	2	0	n/a	n/a	n/a	n/a	n/a
3384873	RECOG_RESP	n/a	LTP095	ltpFR	6	2	1	DOCUMENT	479	n/a	0	n/a	n/a	n/a	n/a	n/a
3385572	RECOG_CONF	n/a	LTP095	ltpFR	6	2	1	DOCUMENT	479	2	0	n/a	n/a	n/a	n/a	n/a
3387014	RECOG_TARGET	n/a	LTP095	ltpFR	6	2	1	SUPPER	1411	3	0	n/a	n/a	n/a	n/a	n/a
3387876	RECOG_RESP	n/a	LTP095	ltpFR	6	2	1	SUPPER	1411	n/a	0	n/a	n/a	n/a	n/a	n/a
3388565	RECOG_CONF	n/a	LTP095	ltpFR	6	2	1	SUPPER	1411	3	0	n/a	n/a	n/a	n/a	n/a
3389989	RECOG_TARGET	n/a	LTP095	ltpFR	6	2	0	SOCK	1339	3	0	n/a	n/a	n/a	n/a	n/a
3390700	RECOG_RESP	n/a	LTP095	ltpFR	6	2	0	SOCK	1339	n/a	0	n/a	n/a	n/a	n/a	n/a
3391358	RECOG_CONF	n/a	LTP095	ltpFR	6	2	0	SOCK	1339	3	0	n/a	n/a	n/a	n/a	n/a
3392806	RECOG_TARGET	n/a	LTP095	ltpFR	6	2	-1	AFRICA	9	4	-1	n/a	n/a	n/a	n/a	n/a
3393499	RECOG_RESP	n/a	LTP095	ltpFR	6	2	-1	AFRICA	9	n/a	-1	n/a	n/a	n/a	n/a	n/a
3394252	RECOG_CONF	n/a	LTP095	ltpFR	6	2	-1	AFRICA	9	4	-1	n/a	n/a	n/a	n/a	n/a
3395706	RECOG_LURE	n/a	LTP095	ltpFR	6	2	n/a	CHAIN	273	2	n/a	n/a	n/a	n/a	n/a	n/a
3396696	RECOG_RESP	n/a	LTP095	ltpFR	6	2	n/a	CHAIN	273	n/a	n/a	n/a	n/a	n/a	n/a	n/a
3397614	RECOG_CONF	n/a	LTP095	ltpFR	6	2	n/a	CHAIN	273	2	n/a	n/a	n/a	n/a	n/a	n/a
3399255	RECOG_LURE	n/a	LTP095	ltpFR	6	2	n/a	WAITRESS	1581	1	n/a	n/a	n/a	n/a	n/a	n/a
3401001	RECOG_RESP	n/a	LTP095	ltpFR	6	2	n/a	WAITRESS	1581	n/a	n/a	n/a	n/a	n/a	n/a	n/a
3402074	RECOG_CONF	n/a	LTP095	ltpFR	6	2	n/a	WAITRESS	1581	1	n/a	n/a	n/a	n/a	n/a	n/a
3403497	RECOG_TARGET	n/a	LTP095	ltpFR	6	2	-1	HORSE	719	3	-1	n/a	n/a	n/a	n/a	n/a
3404319	RECOG_RESP	n/a	LTP095	ltpFR	6	2	-1	HORSE	719	n/a	-1	n/a	n/a	n/a	n/a	n/a
3405007	RECOG_CONF	n/a	LTP095	ltpFR	6	2	-1	HORSE	719	3	-1	n/a	n/a	n/a	n/a	n/a
3406271	RECOG_TARGET	n/a	LTP095	ltpFR	6	2	1	RAILROAD	1162	2	0	n/a	n/a	n/a	n/a	n/a
3407162	RECOG_RESP	n/a	LTP095	ltpFR	6	2	1	RAILROAD	1162	n/a	0	n/a	n/a	n/a	n/a	n/a
3408410	RECOG_CONF	n/a	LTP095	ltpFR	6	2	1	RAILROAD	1162	2	0	n/a	n/a	n/a	n/a	n/a
3410496	RECOG_TARGET	n/a	LTP095	ltpFR	6	2	1	SCALLOP	1242	4	0	n/a	n/a	n/a	n/a	n/a
3411243	RECOG_RESP	n/a	LTP095	ltpFR	6	2	1	SCALLOP	1242	n/a	0	n/a	n/a	n/a	n/a	n/a
3412002	RECOG_CONF	n/a	LTP095	ltpFR	6	2	1	SCALLOP	1242	4	0	n/a	n/a	n/a	n/a	n/a
3413412	RECOG_TARGET	n/a	LTP095	ltpFR	6	2	1	PIG	1064	2	1	n/a	n/a	n/a	n/a	n/a
3416666	RECOG_RESP	n/a	LTP095	ltpFR	6	2	1	PIG	1064	n/a	1	n/a	n/a	n/a	n/a	n/a
3417369	RECOG_CONF	n/a	LTP095	ltpFR	6	2	1	PIG	1064	2	1	n/a	n/a	n/a	n/a	n/a
3418770	RECOG_TARGET	n/a	LTP095	ltpFR	6	2	1	ATTORNEY	58	4	1	n/a	n/a	n/a	n/a	n/a
3419584	RECOG_RESP	n/a	LTP095	ltpFR	6	2	1	ATTORNEY	58	n/a	1	n/a	n/a	n/a	n/a	n/a
3420323	RECOG_CONF	n/a	LTP095	ltpFR	6	2	1	ATTORNEY	58	4	1	n/a	n/a	n/a	n/a	n/a
3421662	RECOG_TARGET	n/a	LTP095	ltpFR	6	2	1	TOWEL	1489	3	0	n/a	n/a	n/a	n/a	n/a
3422742	RECOG_RESP	n/a	LTP095	ltpFR	6	2	1	TOWEL	1489	n/a	0	n/a	n/a	n/a	n/a	n/a
3423376	RECOG_CONF	n/a	LTP095	ltpFR	6	2	1	TOWEL	1489	3	0	n/a	n/a	n/a	n/a	n/a
3425862	RECOG_TARGET	n/a	LTP095	ltpFR	6	2	1	WHIP	1604	4	0	n/a	n/a	n/a	n/a	n/a
3426509	RECOG_RESP	n/a	LTP095	ltpFR	6	2	1	WHIP	1604	n/a	0	n/a	n/a	n/a	n/a	n/a
3427177	RECOG_CONF	n/a	LTP095	ltpFR	6	2	1	WHIP	1604	4	0	n/a	n/a	n/a	n/a	n/a
3428712	RECOG_TARGET	n/a	LTP095	ltpFR	6	2	0	NURSERY	964	2	1	n/a	n/a	n/a	n/a	n/a
3430769	RECOG_CONF	n/a	LTP095	ltpFR	6	2	0	NURSERY	964	2	1	n/a	n/a	n/a	n/a	n/a
3432228	RECOG_LURE	n/a	LTP095	ltpFR	6	2	n/a	ELF	525	1	n/a	n/a	n/a	n/a	n/a	n/a
3435119	RECOG_RESP	n/a	LTP095	ltpFR	6	2	n/a	ELF	525	n/a	n/a	n/a	n/a	n/a	n/a	n/a
3435857	RECOG_CONF	n/a	LTP095	ltpFR	6	2	n/a	ELF	525	1	n/a	n/a	n/a	n/a	n/a	n/a
3437261	RECOG_LURE	n/a	LTP095	ltpFR	6	2	n/a	FENCE	560	2	n/a	n/a	n/a	n/a	n/a	n/a
3438446	RECOG_RESP	n/a	LTP095	ltpFR	6	2	n/a	FENCE	560	n/a	n/a	n/a	n/a	n/a	n/a	n/a
3439120	RECOG_CONF	n/a	LTP095	ltpFR	6	2	n/a	FENCE	560	2	n/a	n/a	n/a	n/a	n/a	n/a
3440460	RECOG_TARGET	n/a	LTP095	ltpFR	6	2	-1	CHESS	294	2	-1	n/a	n/a	n/a	n/a	n/a
3441834	RECOG_RESP	n/a	LTP095	ltpFR	6	2	-1	CHESS	294	n/a	-1	n/a	n/a	n/a	n/a	n/a
3442602	RECOG_CONF	n/a	LTP095	ltpFR	6	2	-1	CHESS	294	2	-1	n/a	n/a	n/a	n/a	n/a
3443960	RECOG_TARGET	n/a	LTP095	ltpFR	6	2	1	CATTLE	261	2	2	n/a	n/a	n/a	n/a	n/a
3448982	RECOG_RESP	n/a	LTP095	ltpFR	6	2	1	CATTLE	261	n/a	2	n/a	n/a	n/a	n/a	n/a
3449975	RECOG_CONF	n/a	LTP095	ltpFR	6	2	1	CATTLE	261	2	2	n/a	n/a	n/a	n/a	n/a
3451510	RECOG_TARGET	n/a	LTP095	ltpFR	6	2	0	INSECT	740	3	0	n/a	n/a	n/a	n/a	n/a
3452275	RECOG_RESP	n/a	LTP095	ltpFR	6	2	0	INSECT	740	n/a	0	n/a	n/a	n/a	n/a	n/a
3452978	RECOG_CONF	n/a	LTP095	ltpFR	6	2	0	INSECT	740	3	0	n/a	n/a	n/a	n/a	n/a
3458305	REC_START	n/a	LTP095	ltpFR	6	3	n/a	n/a	n/a	n/a	n/a	n/a	n/a	n/a	n/a	n/a
3458334	RECOG_TARGET	n/a	LTP095	ltpFR	6	3	0	YOKE	1632	4	0	n/a	n/a	n/a	n/a	n/a
3459008	RECOG_RESP	n/a	LTP095	ltpFR	6	3	0	YOKE	1632	n/a	0	n/a	n/a	n/a	n/a	n/a
3459786	RECOG_CONF	n/a	LTP095	ltpFR	6	3	0	YOKE	1632	4	0	n/a	n/a	n/a	n/a	n/a
3461834	RECOG_TARGET	n/a	LTP095	ltpFR	6	3	-1	AIRCRAFT	11	5	-1	n/a	n/a	n/a	n/a	n/a
3462540	RECOG_RESP	n/a	LTP095	ltpFR	6	3	-1	AIRCRAFT	11	n/a	-1	n/a	n/a	n/a	n/a	n/a
3463169	RECOG_CONF	n/a	LTP095	ltpFR	6	3	-1	AIRCRAFT	11	5	-1	n/a	n/a	n/a	n/a	n/a
3464642	RECOG_LURE	n/a	LTP095	ltpFR	6	3	n/a	BLOSSOM	138	2	n/a	n/a	n/a	n/a	n/a	n/a
3466202	RECOG_RESP	n/a	LTP095	ltpFR	6	3	n/a	BLOSSOM	138	n/a	n/a	n/a	n/a	n/a	n/a	n/a
3467339	RECOG_CONF	n/a	LTP095	ltpFR	6	3	n/a	BLOSSOM	138	2	n/a	n/a	n/a	n/a	n/a	n/a
3468692	RECOG_TARGET	n/a	LTP095	ltpFR	6	3	1	CUPBOARD	425	3	n/a	n/a	n/a	n/a	n/a	n/a
3470422	RECOG_RESP	n/a	LTP095	ltpFR	6	3	1	CUPBOARD	425	n/a	n/a	n/a	n/a	n/a	n/a	n/a
3471460	RECOG_CONF	n/a	LTP095	ltpFR	6	3	1	CUPBOARD	425	3	n/a	n/a	n/a	n/a	n/a	n/a
3473675	RECOG_TARGET	n/a	LTP095	ltpFR	6	3	-1	MINER	896	2	-1	n/a	n/a	n/a	n/a	n/a
3474313	RECOG_RESP	n/a	LTP095	ltpFR	6	3	-1	MINER	896	n/a	-1	n/a	n/a	n/a	n/a	n/a
3475102	RECOG_CONF	n/a	LTP095	ltpFR	6	3	-1	MINER	896	2	-1	n/a	n/a	n/a	n/a	n/a
3476474	RECOG_TARGET	n/a	LTP095	ltpFR	6	3	-1	CRAB	397	4	-1	n/a	n/a	n/a	n/a	n/a
3477746	RECOG_RESP_VV	n/a	LTP095	ltpFR	6	3	-1	CRAB	397	n/a	-1	n/a	n/a	n/a	n/a	n/a
3478454	RECOG_RESP	n/a	LTP095	ltpFR	6	3	-1	CRAB	397	n/a	-1	n/a	n/a	n/a	n/a	n/a
3483952	RECOG_CONF	n/a	LTP095	ltpFR	6	3	-1	CRAB	397	4	-1	n/a	n/a	n/a	n/a	n/a
3486415	RECOG_TARGET	n/a	LTP095	ltpFR	6	3	1	KIWI	781	2	0	n/a	n/a	n/a	n/a	n/a
3487094	RECOG_RESP	n/a	LTP095	ltpFR	6	3	1	KIWI	781	n/a	0	n/a	n/a	n/a	n/a	n/a
3488162	RECOG_CONF	n/a	LTP095	ltpFR	6	3	1	KIWI	781	2	0	n/a	n/a	n/a	n/a	n/a
3489607	RECOG_TARGET	n/a	LTP095	ltpFR	6	3	1	TREASURE	1500	3	0	n/a	n/a	n/a	n/a	n/a
3490502	RECOG_RESP	n/a	LTP095	ltpFR	6	3	1	TREASURE	1500	n/a	0	n/a	n/a	n/a	n/a	n/a
3491265	RECOG_CONF	n/a	LTP095	ltpFR	6	3	1	TREASURE	1500	3	0	n/a	n/a	n/a	n/a	n/a
3493256	RECOG_LURE	n/a	LTP095	ltpFR	6	3	n/a	CONCERT	360	2	n/a	n/a	n/a	n/a	n/a	n/a
3494248	RECOG_RESP	n/a	LTP095	ltpFR	6	3	n/a	CONCERT	360	n/a	n/a	n/a	n/a	n/a	n/a	n/a
3495336	RECOG_CONF	n/a	LTP095	ltpFR	6	3	n/a	CONCERT	360	2	n/a	n/a	n/a	n/a	n/a	n/a
3501314	RECOG_TARGET	n/a	LTP095	ltpFR	6	3	-1	UMBRELLA	1534	2	-1	n/a	n/a	n/a	n/a	n/a
3502330	RECOG_RESP	n/a	LTP095	ltpFR	6	3	-1	UMBRELLA	1534	n/a	-1	n/a	n/a	n/a	n/a	n/a
3503567	RECOG_CONF	n/a	LTP095	ltpFR	6	3	-1	UMBRELLA	1534	2	-1	n/a	n/a	n/a	n/a	n/a
3505547	RECOG_TARGET	n/a	LTP095	ltpFR	6	3	-1	VOLCANO	1575	3	-1	n/a	n/a	n/a	n/a	n/a
3506281	RECOG_RESP	n/a	LTP095	ltpFR	6	3	-1	VOLCANO	1575	n/a	-1	n/a	n/a	n/a	n/a	n/a
3506999	RECOG_CONF	n/a	LTP095	ltpFR	6	3	-1	VOLCANO	1575	3	-1	n/a	n/a	n/a	n/a	n/a
3516896	RECOG_TARGET	n/a	LTP095	ltpFR	6	3	1	ENVELOPE	537	3	0	n/a	n/a	n/a	n/a	n/a
3517660	RECOG_RESP	n/a	LTP095	ltpFR	6	3	1	ENVELOPE	537	n/a	0	n/a	n/a	n/a	n/a	n/a
3518413	RECOG_CONF	n/a	LTP095	ltpFR	6	3	1	ENVELOPE	537	3	0	n/a	n/a	n/a	n/a	n/a
3519904	RECOG_TARGET	n/a	LTP095	ltpFR	6	3	-1	SCALE	1241	2	-1	n/a	n/a	n/a	n/a	n/a
3521067	RECOG_RESP	n/a	LTP095	ltpFR	6	3	-1	SCALE	1241	n/a	-1	n/a	n/a	n/a	n/a	n/a
3521716	RECOG_CONF	n/a	LTP095	ltpFR	6	3	-1	SCALE	1241	2	-1	n/a	n/a	n/a	n/a	n/a
3523187	RECOG_LURE	n/a	LTP095	ltpFR	6	3	n/a	JAM	748	3	n/a	n/a	n/a	n/a	n/a	n/a
3524015	RECOG_RESP_VV	n/a	LTP095	ltpFR	6	3	n/a	JAM	748	n/a	n/a	n/a	n/a	n/a	n/a	n/a
3525038	RECOG_RESP	n/a	LTP095	ltpFR	6	3	n/a	JAM	748	n/a	n/a	n/a	n/a	n/a	n/a	n/a
3525547	RECOG_CONF	n/a	LTP095	ltpFR	6	3	n/a	JAM	748	3	n/a	n/a	n/a	n/a	n/a	n/a
3527054	RECOG_TARGET	n/a	LTP095	ltpFR	6	3	1	MARINE	869	4	0	n/a	n/a	n/a	n/a	n/a
3527932	RECOG_RESP	n/a	LTP095	ltpFR	6	3	1	MARINE	869	n/a	0	n/a	n/a	n/a	n/a	n/a
3528580	RECOG_CONF	n/a	LTP095	ltpFR	6	3	1	MARINE	869	4	0	n/a	n/a	n/a	n/a	n/a
3530104	RECOG_TARGET	n/a	LTP095	ltpFR	6	3	-1	LOG	841	2	-1	n/a	n/a	n/a	n/a	n/a
3530935	RECOG_RESP	n/a	LTP095	ltpFR	6	3	-1	LOG	841	n/a	-1	n/a	n/a	n/a	n/a	n/a
3531533	RECOG_CONF	n/a	LTP095	ltpFR	6	3	-1	LOG	841	2	-1	n/a	n/a	n/a	n/a	n/a
3532945	RECOG_TARGET	n/a	LTP095	ltpFR	6	3	0	SKI	1316	4	1	n/a	n/a	n/a	n/a	n/a
3533574	RECOG_RESP	n/a	LTP095	ltpFR	6	3	0	SKI	1316	n/a	1	n/a	n/a	n/a	n/a	n/a
3534277	RECOG_CONF	n/a	LTP095	ltpFR	6	3	0	SKI	1316	4	1	n/a	n/a	n/a	n/a	n/a
3535637	RECOG_TARGET	n/a	LTP095	ltpFR	6	3	1	BRUSH	182	3	0	n/a	n/a	n/a	n/a	n/a
3536801	RECOG_RESP_VV	n/a	LTP095	ltpFR	6	3	1	BRUSH	182	n/a	0	n/a	n/a	n/a	n/a	n/a
3537620	RECOG_RESP	n/a	LTP095	ltpFR	6	3	1	BRUSH	182	n/a	0	n/a	n/a	n/a	n/a	n/a
3538328	RECOG_CONF	n/a	LTP095	ltpFR	6	3	1	BRUSH	182	3	0	n/a	n/a	n/a	n/a	n/a
3539645	RECOG_TARGET	n/a	LTP095	ltpFR	6	3	1	NOTEBOOK	959	2	0	n/a	n/a	n/a	n/a	n/a
3540403	RECOG_RESP	n/a	LTP095	ltpFR	6	3	1	NOTEBOOK	959	n/a	0	n/a	n/a	n/a	n/a	n/a
3542409	RECOG_CONF	n/a	LTP095	ltpFR	6	3	1	NOTEBOOK	959	2	0	n/a	n/a	n/a	n/a	n/a
3543861	RECOG_TARGET	n/a	LTP095	ltpFR	6	3	-1	STOVE	1388	1	-1	n/a	n/a	n/a	n/a	n/a
3545362	RECOG_RESP	n/a	LTP095	ltpFR	6	3	-1	STOVE	1388	n/a	-1	n/a	n/a	n/a	n/a	n/a
3545860	RECOG_CONF	n/a	LTP095	ltpFR	6	3	-1	STOVE	1388	1	-1	n/a	n/a	n/a	n/a	n/a
3549818	REC_START	n/a	LTP095	ltpFR	6	4	n/a	n/a	n/a	n/a	n/a	n/a	n/a	n/a	n/a	n/a
3549852	RECOG_TARGET	n/a	LTP095	ltpFR	6	4	-1	TENT	1449	3	-1	n/a	n/a	n/a	n/a	n/a
3550521	RECOG_RESP	n/a	LTP095	ltpFR	6	4	-1	TENT	1449	n/a	-1	n/a	n/a	n/a	n/a	n/a
3551170	RECOG_CONF	n/a	LTP095	ltpFR	6	4	-1	TENT	1449	3	-1	n/a	n/a	n/a	n/a	n/a
3552685	RECOG_LURE	n/a	LTP095	ltpFR	6	4	n/a	HELMET	702	2	n/a	n/a	n/a	n/a	n/a	n/a
3553335	RECOG_RESP_VV	n/a	LTP095	ltpFR	6	4	n/a	HELMET	702	n/a	n/a	n/a	n/a	n/a	n/a	n/a
3556163	RECOG_RESP	n/a	LTP095	ltpFR	6	4	n/a	HELMET	702	n/a	n/a	n/a	n/a	n/a	n/a	n/a
3557086	RECOG_CONF	n/a	LTP095	ltpFR	6	4	n/a	HELMET	702	2	n/a	n/a	n/a	n/a	n/a	n/a
3558618	RECOG_LURE	n/a	LTP095	ltpFR	6	4	n/a	HOUND	724	2	n/a	n/a	n/a	n/a	n/a	n/a
3559855	RECOG_RESP	n/a	LTP095	ltpFR	6	4	n/a	HOUND	724	n/a	n/a	n/a	n/a	n/a	n/a	n/a
3560588	RECOG_CONF	n/a	LTP095	ltpFR	6	4	n/a	HOUND	724	2	n/a	n/a	n/a	n/a	n/a	n/a
3562143	RECOG_TARGET	n/a	LTP095	ltpFR	6	4	-1	JEEP	753	4	-1	n/a	n/a	n/a	n/a	n/a
3562923	RECOG_RESP	n/a	LTP095	ltpFR	6	4	-1	JEEP	753	n/a	-1	n/a	n/a	n/a	n/a	n/a
3563721	RECOG_CONF	n/a	LTP095	ltpFR	6	4	-1	JEEP	753	4	-1	n/a	n/a	n/a	n/a	n/a
3565159	RECOG_TARGET	n/a	LTP095	ltpFR	6	4	0	SUBWAY	1400	5	1	n/a	n/a	n/a	n/a	n/a
3565717	RECOG_RESP	n/a	LTP095	ltpFR	6	4	0	SUBWAY	1400	n/a	1	n/a	n/a	n/a	n/a	n/a
3566475	RECOG_CONF	n/a	LTP095	ltpFR	6	4	0	SUBWAY	1400	5	1	n/a	n/a	n/a	n/a	n/a
3568092	RECOG_TARGET	n/a	LTP095	ltpFR	6	4	1	LOVER	846	5	1	n/a	n/a	n/a	n/a	n/a
3568800	RECOG_RESP	n/a	LTP095	ltpFR	6	4	1	LOVER	846	n/a	1	n/a	n/a	n/a	n/a	n/a
3569458	RECOG_CONF	n/a	LTP095	ltpFR	6	4	1	LOVER	846	5	1	n/a	n/a	n/a	n/a	n/a
3571159	RECOG_TARGET	n/a	LTP095	ltpFR	6	4	0	DINNER	468	5	1	n/a	n/a	n/a	n/a	n/a
3572092	RECOG_RESP	n/a	LTP095	ltpFR	6	4	0	DINNER	468	n/a	1	n/a	n/a	n/a	n/a	n/a
3572771	RECOG_CONF	n/a	LTP095	ltpFR	6	4	0	DINNER	468	5	1	n/a	n/a	n/a	n/a	n/a
3574225	RECOG_TARGET	n/a	LTP095	ltpFR	6	4	1	HOSTAGE	722	4	1	n/a	n/a	n/a	n/a	n/a
3574871	RECOG_RESP	n/a	LTP095	ltpFR	6	4	1	HOSTAGE	722	n/a	1	n/a	n/a	n/a	n/a	n/a
3575554	RECOG_CONF	n/a	LTP095	ltpFR	6	4	1	HOSTAGE	722	4	1	n/a	n/a	n/a	n/a	n/a
3577417	RECOG_TARGET	n/a	LTP095	ltpFR	6	4	0	FOREST	593	4	1	n/a	n/a	n/a	n/a	n/a
3578019	RECOG_RESP	n/a	LTP095	ltpFR	6	4	0	FOREST	593	n/a	1	n/a	n/a	n/a	n/a	n/a
3578707	RECOG_CONF	n/a	LTP095	ltpFR	6	4	0	FOREST	593	4	1	n/a	n/a	n/a	n/a	n/a
3580033	RECOG_TARGET	n/a	LTP095	ltpFR	6	4	1	ICING	732	4	0	n/a	n/a	n/a	n/a	n/a
3581271	RECOG_RESP	n/a	LTP095	ltpFR	6	4	1	ICING	732	n/a	0	n/a	n/a	n/a	n/a	n/a
3582020	RECOG_CONF	n/a	LTP095	ltpFR	6	4	1	ICING	732	4	0	n/a	n/a	n/a	n/a	n/a
3583375	RECOG_TARGET	n/a	LTP095	ltpFR	6	4	1	VIRUS	1572	5	1	n/a	n/a	n/a	n/a	n/a
3584314	RECOG_RESP	n/a	LTP095	ltpFR	6	4	1	VIRUS	1572	n/a	1	n/a	n/a	n/a	n/a	n/a
3584923	RECOG_CONF	n/a	LTP095	ltpFR	6	4	1	VIRUS	1572	5	1	n/a	n/a	n/a	n/a	n/a
3586233	RECOG_TARGET	n/a	LTP095	ltpFR	6	4	-1	TEAPOT	1442	5	-1	n/a	n/a	n/a	n/a	n/a
3587158	RECOG_RESP	n/a	LTP095	ltpFR	6	4	-1	TEAPOT	1442	n/a	-1	n/a	n/a	n/a	n/a	n/a
3587757	RECOG_CONF	n/a	LTP095	ltpFR	6	4	-1	TEAPOT	1442	5	-1	n/a	n/a	n/a	n/a	n/a
3589091	RECOG_TARGET	n/a	LTP095	ltpFR	6	4	0	ACID	2	5	0	n/a	n/a	n/a	n/a	n/a
3590136	RECOG_RESP	n/a	LTP095	ltpFR	6	4	0	ACID	2	n/a	0	n/a	n/a	n/a	n/a	n/a
3591049	RECOG_CONF	n/a	LTP095	ltpFR	6	4	0	ACID	2	5	0	n/a	n/a	n/a	n/a	n/a
3592482	RECOG_TARGET	n/a	LTP095	ltpFR	6	4	1	GRADUATE	653	4	0	n/a	n/a	n/a	n/a	n/a
3593349	RECOG_RESP	n/a	LTP095	ltpFR	6	4	1	GRADUATE	653	n/a	0	n/a	n/a	n/a	n/a	n/a
3594202	RECOG_CONF	n/a	LTP095	ltpFR	6	4	1	GRADUATE	653	4	0	n/a	n/a	n/a	n/a	n/a
3595690	RECOG_TARGET	n/a	LTP095	ltpFR	6	4	-1	POWDER	1117	3	-1	n/a	n/a	n/a	n/a	n/a
3596606	RECOG_RESP	n/a	LTP095	ltpFR	6	4	-1	POWDER	1117	n/a	-1	n/a	n/a	n/a	n/a	n/a
3597395	RECOG_CONF	n/a	LTP095	ltpFR	6	4	-1	POWDER	1117	3	-1	n/a	n/a	n/a	n/a	n/a
3598766	RECOG_TARGET	n/a	LTP095	ltpFR	6	4	0	CHAMBER	277	3	1	n/a	n/a	n/a	n/a	n/a
3600039	RECOG_RESP	n/a	LTP095	ltpFR	6	4	0	CHAMBER	277	n/a	1	n/a	n/a	n/a	n/a	n/a
3600947	RECOG_CONF	n/a	LTP095	ltpFR	6	4	0	CHAMBER	277	3	1	n/a	n/a	n/a	n/a	n/a
3602440	RECOG_TARGET	n/a	LTP095	ltpFR	6	4	0	CRIB	407	3	1	n/a	n/a	n/a	n/a	n/a
3603625	RECOG_RESP	n/a	LTP095	ltpFR	6	4	0	CRIB	407	n/a	1	n/a	n/a	n/a	n/a	n/a
3604329	RECOG_CONF	n/a	LTP095	ltpFR	6	4	0	CRIB	407	3	1	n/a	n/a	n/a	n/a	n/a
3605798	RECOG_LURE	n/a	LTP095	ltpFR	6	4	n/a	CARRIAGE	248	2	n/a	n/a	n/a	n/a	n/a	n/a
3606913	RECOG_RESP	n/a	LTP095	ltpFR	6	4	n/a	CARRIAGE	248	n/a	n/a	n/a	n/a	n/a	n/a	n/a
3607522	RECOG_CONF	n/a	LTP095	ltpFR	6	4	n/a	CARRIAGE	248	2	n/a	n/a	n/a	n/a	n/a	n/a
3608864	RECOG_TARGET	n/a	LTP095	ltpFR	6	4	0	ORANGE	980	1	0	n/a	n/a	n/a	n/a	n/a
3609821	RECOG_RESP_VV	n/a	LTP095	ltpFR	6	4	0	ORANGE	980	n/a	0	n/a	n/a	n/a	n/a	n/a
3611647	RECOG_RESP	n/a	LTP095	ltpFR	6	4	0	ORANGE	980	n/a	0	n/a	n/a	n/a	n/a	n/a
3612530	RECOG_CONF	n/a	LTP095	ltpFR	6	4	0	ORANGE	980	1	0	n/a	n/a	n/a	n/a	n/a
3613997	RECOG_TARGET	n/a	LTP095	ltpFR	6	4	0	MANAGER	863	3	1	n/a	n/a	n/a	n/a	n/a
3614720	RECOG_RESP	n/a	LTP095	ltpFR	6	4	0	MANAGER	863	n/a	1	n/a	n/a	n/a	n/a	n/a
3615354	RECOG_CONF	n/a	LTP095	ltpFR	6	4	0	MANAGER	863	3	1	n/a	n/a	n/a	n/a	n/a
3620014	REC_START	n/a	LTP095	ltpFR	6	5	n/a	n/a	n/a	n/a	n/a	n/a	n/a	n/a	n/a	n/a
3620047	RECOG_TARGET	n/a	LTP095	ltpFR	6	5	0	PISTOL	1075	2	0	n/a	n/a	n/a	n/a	n/a
3620712	RECOG_RESP	n/a	LTP095	ltpFR	6	5	0	PISTOL	1075	n/a	0	n/a	n/a	n/a	n/a	n/a
3621336	RECOG_CONF	n/a	LTP095	ltpFR	6	5	0	PISTOL	1075	2	0	n/a	n/a	n/a	n/a	n/a
3622863	RECOG_TARGET	n/a	LTP095	ltpFR	6	5	0	BANQUET	86	4	1	n/a	n/a	n/a	n/a	n/a
3623790	RECOG_RESP	n/a	LTP095	ltpFR	6	5	0	BANQUET	86	n/a	1	n/a	n/a	n/a	n/a	n/a
3624439	RECOG_CONF	n/a	LTP095	ltpFR	6	5	0	BANQUET	86	4	1	n/a	n/a	n/a	n/a	n/a
3625830	RECOG_TARGET	n/a	LTP095	ltpFR	6	5	-1	BASKETBALL	96	5	-1	n/a	n/a	n/a	n/a	n/a
3626474	RECOG_RESP	n/a	LTP095	ltpFR	6	5	-1	BASKETBALL	96	n/a	-1	n/a	n/a	n/a	n/a	n/a
3627043	RECOG_CONF	n/a	LTP095	ltpFR	6	5	-1	BASKETBALL	96	5	-1	n/a	n/a	n/a	n/a	n/a
3628355	RECOG_LURE	n/a	LTP095	ltpFR	6	5	n/a	FLAG	573	2	n/a	n/a	n/a	n/a	n/a	n/a
3628844	RECOG_RESP	n/a	LTP095	ltpFR	6	5	n/a	FLAG	573	n/a	n/a	n/a	n/a	n/a	n/a	n/a
3630844	RECOG_RESP_VV	n/a	LTP095	ltpFR	6	5	n/a	FLAG	573	2	n/a	n/a	n/a	n/a	n/a	n/a
3631981	RECOG_CONF	n/a	LTP095	ltpFR	6	5	n/a	FLAG	573	2	n/a	n/a	n/a	n/a	n/a	n/a
3633062	RECOG_TARGET	n/a	LTP095	ltpFR	6	5	-1	DRILL	497	3	-1	n/a	n/a	n/a	n/a	n/a
3633932	RECOG_RESP	n/a	LTP095	ltpFR	6	5	-1	DRILL	497	n/a	-1	n/a	n/a	n/a	n/a	n/a
3634556	RECOG_CONF	n/a	LTP095	ltpFR	6	5	-1	DRILL	497	3	-1	n/a	n/a	n/a	n/a	n/a
3635887	RECOG_TARGET	n/a	LTP095	ltpFR	6	5	1	CROSS	413	2	0	n/a	n/a	n/a	n/a	n/a
3636960	RECOG_RESP	n/a	LTP095	ltpFR	6	5	1	CROSS	413	n/a	0	n/a	n/a	n/a	n/a	n/a
3637629	RECOG_CONF	n/a	LTP095	ltpFR	6	5	1	CROSS	413	2	0	n/a	n/a	n/a	n/a	n/a
3639029	RECOG_TARGET	n/a	LTP095	ltpFR	6	5	1	DRIVER	499	3	1	n/a	n/a	n/a	n/a	n/a
3639839	RECOG_RESP	n/a	LTP095	ltpFR	6	5	1	DRIVER	499	n/a	1	n/a	n/a	n/a	n/a	n/a
3640502	RECOG_CONF	n/a	LTP095	ltpFR	6	5	1	DRIVER	499	3	1	n/a	n/a	n/a	n/a	n/a
3641645	RECOG_TARGET	n/a	LTP095	ltpFR	6	5	-1	FOX	598	4	-1	n/a	n/a	n/a	n/a	n/a
3642243	RECOG_RESP	n/a	LTP095	ltpFR	6	5	-1	FOX	598	n/a	-1	n/a	n/a	n/a	n/a	n/a
3642857	RECOG_CONF	n/a	LTP095	ltpFR	6	5	-1	FOX	598	4	-1	n/a	n/a	n/a	n/a	n/a
3644187	RECOG_TARGET	n/a	LTP095	ltpFR	6	5	0	FEAST	556	4	1	n/a	n/a	n/a	n/a	n/a
3644663	RECOG_RESP	n/a	LTP095	ltpFR	6	5	0	FEAST	556	n/a	1	n/a	n/a	n/a	n/a	n/a
3645331	RECOG_CONF	n/a	LTP095	ltpFR	6	5	0	FEAST	556	4	1	n/a	n/a	n/a	n/a	n/a
3646729	RECOG_TARGET	n/a	LTP095	ltpFR	6	5	0	SKIN	1318	5	1	n/a	n/a	n/a	n/a	n/a
3647317	RECOG_RESP	n/a	LTP095	ltpFR	6	5	0	SKIN	1318	n/a	1	n/a	n/a	n/a	n/a	n/a
3648015	RECOG_CONF	n/a	LTP095	ltpFR	6	5	0	SKIN	1318	5	1	n/a	n/a	n/a	n/a	n/a
3649486	RECOG_TARGET	n/a	LTP095	ltpFR	6	5	0	MULE	931	3	1	n/a	n/a	n/a	n/a	n/a
3650036	RECOG_RESP	n/a	LTP095	ltpFR	6	5	0	MULE	931	n/a	1	n/a	n/a	n/a	n/a	n/a
3650799	RECOG_CONF	n/a	LTP095	ltpFR	6	5	0	MULE	931	3	1	n/a	n/a	n/a	n/a	n/a
3652028	RECOG_TARGET	n/a	LTP095	ltpFR	6	5	1	SWAN	1417	4	n/a	n/a	n/a	n/a	n/a	n/a
3652799	RECOG_RESP	n/a	LTP095	ltpFR	6	5	1	SWAN	1417	n/a	n/a	n/a	n/a	n/a	n/a	n/a
3653423	RECOG_CONF	n/a	LTP095	ltpFR	6	5	1	SWAN	1417	4	n/a	n/a	n/a	n/a	n/a	n/a
3654636	RECOG_TARGET	n/a	LTP095	ltpFR	6	5	0	SIGNATURE	1306	2	0	n/a	n/a	n/a	n/a	n/a
3655618	RECOG_RESP	n/a	LTP095	ltpFR	6	5	0	SIGNATURE	1306	n/a	0	n/a	n/a	n/a	n/a	n/a
3656177	RECOG_CONF	n/a	LTP095	ltpFR	6	5	0	SIGNATURE	1306	2	0	n/a	n/a	n/a	n/a	n/a
3657436	RECOG_TARGET	n/a	LTP095	ltpFR	6	5	0	HEN	703	2	1	n/a	n/a	n/a	n/a	n/a
3661170	RECOG_RESP	n/a	LTP095	ltpFR	6	5	0	HEN	703	n/a	1	n/a	n/a	n/a	n/a	n/a
3662462	RECOG_CONF	n/a	LTP095	ltpFR	6	5	0	HEN	703	2	1	n/a	n/a	n/a	n/a	n/a
3664018	RECOG_TARGET	n/a	LTP095	ltpFR	6	5	1	BABY	64	3	1	n/a	n/a	n/a	n/a	n/a
3665206	RECOG_RESP	n/a	LTP095	ltpFR	6	5	1	BABY	64	n/a	1	n/a	n/a	n/a	n/a	n/a
3666214	RECOG_CONF	n/a	LTP095	ltpFR	6	5	1	BABY	64	3	1	n/a	n/a	n/a	n/a	n/a
3667552	RECOG_TARGET	n/a	LTP095	ltpFR	6	5	-1	WHEAT	1602	2	-1	n/a	n/a	n/a	n/a	n/a
3668299	RECOG_RESP	n/a	LTP095	ltpFR	6	5	-1	WHEAT	1602	n/a	-1	n/a	n/a	n/a	n/a	n/a
3668948	RECOG_CONF	n/a	LTP095	ltpFR	6	5	-1	WHEAT	1602	2	-1	n/a	n/a	n/a	n/a	n/a
3670268	RECOG_TARGET	n/a	LTP095	ltpFR	6	5	0	FATHER	554	3	1	n/a	n/a	n/a	n/a	n/a
3672500	RECOG_RESP	n/a	LTP095	ltpFR	6	5	0	FATHER	554	n/a	1	n/a	n/a	n/a	n/a	n/a
3673228	RECOG_CONF	n/a	LTP095	ltpFR	6	5	0	FATHER	554	3	1	n/a	n/a	n/a	n/a	n/a
3674568	RECOG_TARGET	n/a	LTP095	ltpFR	6	5	-1	DENTIST	447	2	-1	n/a	n/a	n/a	n/a	n/a
3675493	RECOG_RESP	n/a	LTP095	ltpFR	6	5	-1	DENTIST	447	n/a	-1	n/a	n/a	n/a	n/a	n/a
3676071	RECOG_CONF	n/a	LTP095	ltpFR	6	5	-1	DENTIST	447	2	-1	n/a	n/a	n/a	n/a	n/a
3677467	RECOG_TARGET	n/a	LTP095	ltpFR	6	5	0	ARTERY	41	4	0	n/a	n/a	n/a	n/a	n/a
3678416	RECOG_RESP	n/a	LTP095	ltpFR	6	5	0	ARTERY	41	n/a	0	n/a	n/a	n/a	n/a	n/a
3678995	RECOG_CONF	n/a	LTP095	ltpFR	6	5	0	ARTERY	41	4	0	n/a	n/a	n/a	n/a	n/a
3680292	RECOG_TARGET	n/a	LTP095	ltpFR	6	5	1	DRAWER	493	3	0	n/a	n/a	n/a	n/a	n/a
3681225	RECOG_RESP	n/a	LTP095	ltpFR	6	5	1	DRAWER	493	n/a	0	n/a	n/a	n/a	n/a	n/a
3681908	RECOG_CONF	n/a	LTP095	ltpFR	6	5	1	DRAWER	493	3	0	n/a	n/a	n/a	n/a	n/a
3685583	REC_START	n/a	LTP095	ltpFR	6	6	n/a	n/a	n/a	n/a	n/a	n/a	n/a	n/a	n/a	n/a
3685617	RECOG_TARGET	n/a	LTP095	ltpFR	6	6	-1	GLASS	639	5	-1	n/a	n/a	n/a	n/a	n/a
3686546	RECOG_RESP	n/a	LTP095	ltpFR	6	6	-1	GLASS	639	n/a	-1	n/a	n/a	n/a	n/a	n/a
3687414	RECOG_CONF	n/a	LTP095	ltpFR	6	6	-1	GLASS	639	5	-1	n/a	n/a	n/a	n/a	n/a
3688817	RECOG_LURE	n/a	LTP095	ltpFR	6	6	n/a	STONE	1385	2	n/a	n/a	n/a	n/a	n/a	n/a
3689639	RECOG_RESP	n/a	LTP095	ltpFR	6	6	n/a	STONE	1385	n/a	n/a	n/a	n/a	n/a	n/a	n/a
3690457	RECOG_CONF	n/a	LTP095	ltpFR	6	6	n/a	STONE	1385	2	n/a	n/a	n/a	n/a	n/a	n/a
3691808	RECOG_LURE	n/a	LTP095	ltpFR	6	6	n/a	DUST	508	3	n/a	n/a	n/a	n/a	n/a	n/a
3692562	RECOG_RESP	n/a	LTP095	ltpFR	6	6	n/a	DUST	508	n/a	n/a	n/a	n/a	n/a	n/a	n/a
3693191	RECOG_CONF	n/a	LTP095	ltpFR	6	6	n/a	DUST	508	3	n/a	n/a	n/a	n/a	n/a	n/a
3694558	RECOG_TARGET	n/a	LTP095	ltpFR	6	6	1	GIRAFFE	636	4	1	n/a	n/a	n/a	n/a	n/a
3695326	RECOG_RESP	n/a	LTP095	ltpFR	6	6	1	GIRAFFE	636	n/a	1	n/a	n/a	n/a	n/a	n/a
3695924	RECOG_CONF	n/a	LTP095	ltpFR	6	6	1	GIRAFFE	636	4	1	n/a	n/a	n/a	n/a	n/a
3697266	RECOG_LURE	n/a	LTP095	ltpFR	6	6	n/a	KING	777	3	n/a	n/a	n/a	n/a	n/a	n/a
3698119	RECOG_RESP	n/a	LTP095	ltpFR	6	6	n/a	KING	777	n/a	n/a	n/a	n/a	n/a	n/a	n/a
3698997	RECOG_CONF	n/a	LTP095	ltpFR	6	6	n/a	KING	777	3	n/a	n/a	n/a	n/a	n/a	n/a
3700249	RECOG_TARGET	n/a	LTP095	ltpFR	6	6	-1	DOOR	486	1	-1	n/a	n/a	n/a	n/a	n/a
3701457	RECOG_RESP	n/a	LTP095	ltpFR	6	6	-1	DOOR	486	n/a	-1	n/a	n/a	n/a	n/a	n/a
3703846	RECOG_CONF	n/a	LTP095	ltpFR	6	6	-1	DOOR	486	1	-1	n/a	n/a	n/a	n/a	n/a
3705415	RECOG_LURE	n/a	LTP095	ltpFR	6	6	n/a	BLUEJAY	141	1	n/a	n/a	n/a	n/a	n/a	n/a
3706760	RECOG_RESP	n/a	LTP095	ltpFR	6	6	n/a	BLUEJAY	141	n/a	n/a	n/a	n/a	n/a	n/a	n/a
3707678	RECOG_CONF	n/a	LTP095	ltpFR	6	6	n/a	BLUEJAY	141	1	n/a	n/a	n/a	n/a	n/a	n/a
3709082	RECOG_TARGET	n/a	LTP095	ltpFR	6	6	0	CLOVE	329	4	0	n/a	n/a	n/a	n/a	n/a
3709803	RECOG_RESP	n/a	LTP095	ltpFR	6	6	0	CLOVE	329	n/a	0	n/a	n/a	n/a	n/a	n/a
3710491	RECOG_CONF	n/a	LTP095	ltpFR	6	6	0	CLOVE	329	4	0	n/a	n/a	n/a	n/a	n/a
3712023	RECOG_TARGET	n/a	LTP095	ltpFR	6	6	0	WHISKERS	1605	5	0	n/a	n/a	n/a	n/a	n/a
3712801	RECOG_RESP	n/a	LTP095	ltpFR	6	6	0	WHISKERS	1605	n/a	0	n/a	n/a	n/a	n/a	n/a
3713444	RECOG_CONF	n/a	LTP095	ltpFR	6	6	0	WHISKERS	1605	5	0	n/a	n/a	n/a	n/a	n/a
3715098	RECOG_TARGET	n/a	LTP095	ltpFR	6	6	1	THREAD	1460	3	0	n/a	n/a	n/a	n/a	n/a
3716617	RECOG_RESP	n/a	LTP095	ltpFR	6	6	1	THREAD	1460	n/a	0	n/a	n/a	n/a	n/a	n/a
3717585	RECOG_CONF	n/a	LTP095	ltpFR	6	6	1	THREAD	1460	3	0	n/a	n/a	n/a	n/a	n/a
3719031	RECOG_TARGET	n/a	LTP095	ltpFR	6	6	0	MONARCH	906	4	1	n/a	n/a	n/a	n/a	n/a
3719740	RECOG_RESP	n/a	LTP095	ltpFR	6	6	0	MONARCH	906	n/a	1	n/a	n/a	n/a	n/a	n/a
3720598	RECOG_CONF	n/a	LTP095	ltpFR	6	6	0	MONARCH	906	4	1	n/a	n/a	n/a	n/a	n/a
3721856	RECOG_TARGET	n/a	LTP095	ltpFR	6	6	-1	SHRIMP	1297	5	-1	n/a	n/a	n/a	n/a	n/a
3722544	RECOG_RESP	n/a	LTP095	ltpFR	6	6	-1	SHRIMP	1297	n/a	-1	n/a	n/a	n/a	n/a	n/a
3723312	RECOG_CONF	n/a	LTP095	ltpFR	6	6	-1	SHRIMP	1297	5	-1	n/a	n/a	n/a	n/a	n/a
3724814	RECOG_TARGET	n/a	LTP095	ltpFR	6	6	0	INFANT	737	4	0	n/a	n/a	n/a	n/a	n/a
3726006	RECOG_RESP	n/a	LTP095	ltpFR	6	6	0	INFANT	737	n/a	0	n/a	n/a	n/a	n/a	n/a
3726664	RECOG_CONF	n/a	LTP095	ltpFR	6	6	0	INFANT	737	4	0	n/a	n/a	n/a	n/a	n/a
3727897	RECOG_TARGET	n/a	LTP095	ltpFR	6	6	-1	FLOUR	583	5	-1	n/a	n/a	n/a	n/a	n/a
3729358	RECOG_RESP	n/a	LTP095	ltpFR	6	6	-1	FLOUR	583	n/a	-1	n/a	n/a	n/a	n/a	n/a
3729957	RECOG_CONF	n/a	LTP095	ltpFR	6	6	-1	FLOUR	583	5	-1	n/a	n/a	n/a	n/a	n/a
3731338	RECOG_TARGET	n/a	LTP095	ltpFR	6	6	0	SALAD	1224	5	0	n/a	n/a	n/a	n/a	n/a
3732007	RECOG_RESP	n/a	LTP095	ltpFR	6	6	0	SALAD	1224	n/a	0	n/a	n/a	n/a	n/a	n/a
3732870	RECOG_CONF	n/a	LTP095	ltpFR	6	6	0	SALAD	1224	5	0	n/a	n/a	n/a	n/a	n/a
3734421	RECOG_TARGET	n/a	LTP095	ltpFR	6	6	1	MACHINE	852	3	0	n/a	n/a	n/a	n/a	n/a
3737385	RECOG_RESP	n/a	LTP095	ltpFR	6	6	1	MACHINE	852	n/a	0	n/a	n/a	n/a	n/a	n/a
3738088	RECOG_CONF	n/a	LTP095	ltpFR	6	6	1	MACHINE	852	3	0	n/a	n/a	n/a	n/a	n/a
3739613	RECOG_TARGET	n/a	LTP095	ltpFR	6	6	1	CHAMPAGNE	278	4	0	n/a	n/a	n/a	n/a	n/a
3740234	RECOG_RESP	n/a	LTP095	ltpFR	6	6	1	CHAMPAGNE	278	n/a	0	n/a	n/a	n/a	n/a	n/a
3740822	RECOG_CONF	n/a	LTP095	ltpFR	6	6	1	CHAMPAGNE	278	4	0	n/a	n/a	n/a	n/a	n/a
3742071	RECOG_TARGET	n/a	LTP095	ltpFR	6	6	1	PERFUME	1049	5	0	n/a	n/a	n/a	n/a	n/a
3743257	RECOG_RESP	n/a	LTP095	ltpFR	6	6	1	PERFUME	1049	n/a	0	n/a	n/a	n/a	n/a	n/a
3743945	RECOG_CONF	n/a	LTP095	ltpFR	6	6	1	PERFUME	1049	5	0	n/a	n/a	n/a	n/a	n/a
3745454	RECOG_TARGET	n/a	LTP095	ltpFR	6	6	-1	NAIL	936	3	-1	n/a	n/a	n/a	n/a	n/a
3746998	RECOG_RESP	n/a	LTP095	ltpFR	6	6	-1	NAIL	936	n/a	-1	n/a	n/a	n/a	n/a	n/a
3747607	RECOG_CONF	n/a	LTP095	ltpFR	6	6	-1	NAIL	936	3	-1	n/a	n/a	n/a	n/a	n/a
3749237	RECOG_TARGET	n/a	LTP095	ltpFR	6	6	-1	CACTUS	215	2	-1	n/a	n/a	n/a	n/a	n/a
3749971	RECOG_RESP	n/a	LTP095	ltpFR	6	6	-1	CACTUS	215	n/a	-1	n/a	n/a	n/a	n/a	n/a
3750570	RECOG_CONF	n/a	LTP095	ltpFR	6	6	-1	CACTUS	215	2	-1	n/a	n/a	n/a	n/a	n/a
3753701	REC_START	n/a	LTP095	ltpFR	6	7	n/a	n/a	n/a	n/a	n/a	n/a	n/a	n/a	n/a	n/a
3753878	RECOG_TARGET	n/a	LTP095	ltpFR	6	7	1	EYELASH	546	3	1	n/a	n/a	n/a	n/a	n/a
3754933	RECOG_RESP	n/a	LTP095	ltpFR	6	7	1	EYELASH	546	n/a	1	n/a	n/a	n/a	n/a	n/a
3755512	RECOG_CONF	n/a	LTP095	ltpFR	6	7	1	EYELASH	546	3	1	n/a	n/a	n/a	n/a	n/a
3757086	RECOG_TARGET	n/a	LTP095	ltpFR	6	7	1	STEWARDESS	1381	4	n/a	n/a	n/a	n/a	n/a	n/a
3757816	RECOG_RESP	n/a	LTP095	ltpFR	6	7	1	STEWARDESS	1381	n/a	n/a	n/a	n/a	n/a	n/a	n/a
3758395	RECOG_CONF	n/a	LTP095	ltpFR	6	7	1	STEWARDESS	1381	4	n/a	n/a	n/a	n/a	n/a	n/a
3759594	RECOG_LURE	n/a	LTP095	ltpFR	6	7	n/a	WRITER	1627	3	n/a	n/a	n/a	n/a	n/a	n/a
3760156	RECOG_RESP	n/a	LTP095	ltpFR	6	7	n/a	WRITER	1627	n/a	n/a	n/a	n/a	n/a	n/a	n/a
3760800	RECOG_CONF	n/a	LTP095	ltpFR	6	7	n/a	WRITER	1627	3	n/a	n/a	n/a	n/a	n/a	n/a
3762119	RECOG_TARGET	n/a	LTP095	ltpFR	6	7	1	DRYER	503	5	0	n/a	n/a	n/a	n/a	n/a
3762880	RECOG_RESP	n/a	LTP095	ltpFR	6	7	1	DRYER	503	n/a	0	n/a	n/a	n/a	n/a	n/a
3763494	RECOG_CONF	n/a	LTP095	ltpFR	6	7	1	DRYER	503	5	0	n/a	n/a	n/a	n/a	n/a
3764802	RECOG_TARGET	n/a	LTP095	ltpFR	6	7	1	COMPANION	357	4	0	n/a	n/a	n/a	n/a	n/a
3767095	RECOG_RESP	n/a	LTP095	ltpFR	6	7	1	COMPANION	357	n/a	0	n/a	n/a	n/a	n/a	n/a
3767754	RECOG_CONF	n/a	LTP095	ltpFR	6	7	1	COMPANION	357	4	0	n/a	n/a	n/a	n/a	n/a
3769294	RECOG_TARGET	n/a	LTP095	ltpFR	6	7	-1	SIRLOIN	1311	5	-1	n/a	n/a	n/a	n/a	n/a
3770173	RECOG_RESP	n/a	LTP095	ltpFR	6	7	-1	SIRLOIN	1311	n/a	-1	n/a	n/a	n/a	n/a	n/a
3770737	RECOG_CONF	n/a	LTP095	ltpFR	6	7	-1	SIRLOIN	1311	5	-1	n/a	n/a	n/a	n/a	n/a
3771994	RECOG_TARGET	n/a	LTP095	ltpFR	6	7	0	DAD	433	2	1	n/a	n/a	n/a	n/a	n/a
3776609	RECOG_RESP	n/a	LTP095	ltpFR	6	7	0	DAD	433	n/a	1	n/a	n/a	n/a	n/a	n/a
3777332	RECOG_CONF	n/a	LTP095	ltpFR	6	7	0	DAD	433	2	1	n/a	n/a	n/a	n/a	n/a
3778876	RECOG_LURE	n/a	LTP095	ltpFR	6	7	n/a	CAVITY	264	3	n/a	n/a	n/a	n/a	n/a	n/a
3781902	RECOG_RESP	n/a	LTP095	ltpFR	6	7	n/a	CAVITY	264	n/a	n/a	n/a	n/a	n/a	n/a	n/a
3782490	RECOG_CONF	n/a	LTP095	ltpFR	6	7	n/a	CAVITY	264	3	n/a	n/a	n/a	n/a	n/a	n/a
3783818	RECOG_LURE	n/a	LTP095	ltpFR	6	7	n/a	PLAYGROUND	1087	2	n/a	n/a	n/a	n/a	n/a	n/a
3785469	RECOG_RESP_VV	n/a	LTP095	ltpFR	6	7	n/a	PLAYGROUND	1087	n/a	n/a	n/a	n/a	n/a	n/a	n/a
3786142	RECOG_RESP	n/a	LTP095	ltpFR	6	7	n/a	PLAYGROUND	1087	n/a	n/a	n/a	n/a	n/a	n/a	n/a
3786711	RECOG_CONF	n/a	LTP095	ltpFR	6	7	n/a	PLAYGROUND	1087	2	n/a	n/a	n/a	n/a	n/a	n/a
3788026	RECOG_TARGET	n/a	LTP095	ltpFR	6	7	1	ROCK	1201	3	0	n/a	n/a	n/a	n/a	n/a
3789335	RECOG_RESP	n/a	LTP095	ltpFR	6	7	1	ROCK	1201	n/a	0	n/a	n/a	n/a	n/a	n/a
3789933	RECOG_CONF	n/a	LTP095	ltpFR	6	7	1	ROCK	1201	3	0	n/a	n/a	n/a	n/a	n/a
3791150	RECOG_TARGET	n/a	LTP095	ltpFR	6	7	0	CHIEF	298	4	2	n/a	n/a	n/a	n/a	n/a
3791949	RECOG_RESP	n/a	LTP095	ltpFR	6	7	0	CHIEF	298	n/a	2	n/a	n/a	n/a	n/a	n/a
3792558	RECOG_CONF	n/a	LTP095	ltpFR	6	7	0	CHIEF	298	4	2	n/a	n/a	n/a	n/a	n/a
3793884	RECOG_LURE	n/a	LTP095	ltpFR	6	7	n/a	PORTRAIT	1111	3	n/a	n/a	n/a	n/a	n/a	n/a
3794548	RECOG_RESP	n/a	LTP095	ltpFR	6	7	n/a	PORTRAIT	1111	n/a	n/a	n/a	n/a	n/a	n/a	n/a
3795551	RECOG_CONF	n/a	LTP095	ltpFR	6	7	n/a	PORTRAIT	1111	3	n/a	n/a	n/a	n/a	n/a	n/a
3796850	RECOG_TARGET	n/a	LTP095	ltpFR	6	7	0	LEG	809	2	1	n/a	n/a	n/a	n/a	n/a
3801063	RECOG_RESP	n/a	LTP095	ltpFR	6	7	0	LEG	809	n/a	1	n/a	n/a	n/a	n/a	n/a
3801747	RECOG_CONF	n/a	LTP095	ltpFR	6	7	0	LEG	809	2	1	n/a	n/a	n/a	n/a	n/a
3803316	RECOG_TARGET	n/a	LTP095	ltpFR	6	7	1	DEER	444	3	1	n/a	n/a	n/a	n/a	n/a
3804071	RECOG_RESP	n/a	LTP095	ltpFR	6	7	1	DEER	444	n/a	1	n/a	n/a	n/a	n/a	n/a
3804720	RECOG_CONF	n/a	LTP095	ltpFR	6	7	1	DEER	444	3	1	n/a	n/a	n/a	n/a	n/a
3806024	RECOG_TARGET	n/a	LTP095	ltpFR	6	7	-1	SCREWDRIVER	1255	3	-1	n/a	n/a	n/a	n/a	n/a
3809868	RECOG_RESP	n/a	LTP095	ltpFR	6	7	-1	SCREWDRIVER	1255	n/a	-1	n/a	n/a	n/a	n/a	n/a
3810377	RECOG_CONF	n/a	LTP095	ltpFR	6	7	-1	SCREWDRIVER	1255	3	-1	n/a	n/a	n/a	n/a	n/a
3812049	RECOG_TARGET	n/a	LTP095	ltpFR	6	7	-1	DIGGER	464	4	-1	n/a	n/a	n/a	n/a	n/a
3812672	RECOG_RESP	n/a	LTP095	ltpFR	6	7	-1	DIGGER	464	n/a	-1	n/a	n/a	n/a	n/a	n/a
3813211	RECOG_CONF	n/a	LTP095	ltpFR	6	7	-1	DIGGER	464	4	-1	n/a	n/a	n/a	n/a	n/a
3814507	RECOG_TARGET	n/a	LTP095	ltpFR	6	7	0	OUTLAW	989	2	1	n/a	n/a	n/a	n/a	n/a
3816982	RECOG_RESP	n/a	LTP095	ltpFR	6	7	0	OUTLAW	989	n/a	1	n/a	n/a	n/a	n/a	n/a
3817670	RECOG_CONF	n/a	LTP095	ltpFR	6	7	0	OUTLAW	989	2	1	n/a	n/a	n/a	n/a	n/a
3819040	RECOG_TARGET	n/a	LTP095	ltpFR	6	7	1	ANTENNA	28	4	0	n/a	n/a	n/a	n/a	n/a
3819920	RECOG_RESP	n/a	LTP095	ltpFR	6	7	1	ANTENNA	28	n/a	0	n/a	n/a	n/a	n/a	n/a
3820514	RECOG_CONF	n/a	LTP095	ltpFR	6	7	1	ANTENNA	28	4	0	n/a	n/a	n/a	n/a	n/a
3821806	RECOG_TARGET	n/a	LTP095	ltpFR	6	7	1	WINDSHIELD	1612	4	0	n/a	n/a	n/a	n/a	n/a
3822579	RECOG_RESP	n/a	LTP095	ltpFR	6	7	1	WINDSHIELD	1612	n/a	0	n/a	n/a	n/a	n/a	n/a
3823567	RECOG_CONF	n/a	LTP095	ltpFR	6	7	1	WINDSHIELD	1612	4	0	n/a	n/a	n/a	n/a	n/a
3824815	RECOG_TARGET	n/a	LTP095	ltpFR	6	7	1	FLANNEL	574	5	0	n/a	n/a	n/a	n/a	n/a
3826131	RECOG_RESP	n/a	LTP095	ltpFR	6	7	1	FLANNEL	574	n/a	0	n/a	n/a	n/a	n/a	n/a
3827338	RECOG_CONF	n/a	LTP095	ltpFR	6	7	1	FLANNEL	574	5	0	n/a	n/a	n/a	n/a	n/a
3837051	REC_START	n/a	LTP095	ltpFR	6	8	n/a	n/a	n/a	n/a	n/a	n/a	n/a	n/a	n/a	n/a
3837089	RECOG_TARGET	n/a	LTP095	ltpFR	6	8	1	NURSE	963	4	1	n/a	n/a	n/a	n/a	n/a
3838083	RECOG_RESP	n/a	LTP095	ltpFR	6	8	1	NURSE	963	n/a	1	n/a	n/a	n/a	n/a	n/a
3838732	RECOG_CONF	n/a	LTP095	ltpFR	6	8	1	NURSE	963	4	1	n/a	n/a	n/a	n/a	n/a
3839955	RECOG_TARGET	n/a	LTP095	ltpFR	6	8	-1	COMPASS	358	5	-1	n/a	n/a	n/a	n/a	n/a
3840767	RECOG_RESP	n/a	LTP095	ltpFR	6	8	-1	COMPASS	358	n/a	-1	n/a	n/a	n/a	n/a	n/a
3841346	RECOG_CONF	n/a	LTP095	ltpFR	6	8	-1	COMPASS	358	5	-1	n/a	n/a	n/a	n/a	n/a
3842530	RECOG_TARGET	n/a	LTP095	ltpFR	6	8	1	SHEET	1279	4	0	n/a	n/a	n/a	n/a	n/a
3843182	RECOG_RESP	n/a	LTP095	ltpFR	6	8	1	SHEET	1279	n/a	0	n/a	n/a	n/a	n/a	n/a
3843870	RECOG_CONF	n/a	LTP095	ltpFR	6	8	1	SHEET	1279	4	0	n/a	n/a	n/a	n/a	n/a
3845163	RECOG_TARGET	n/a	LTP095	ltpFR	6	8	0	GOAT	644	3	1	n/a	n/a	n/a	n/a	n/a
3848240	RECOG_RESP	n/a	LTP095	ltpFR	6	8	0	GOAT	644	n/a	1	n/a	n/a	n/a	n/a	n/a
3848839	RECOG_CONF	n/a	LTP095	ltpFR	6	8	0	GOAT	644	3	1	n/a	n/a	n/a	n/a	n/a
3850079	RECOG_TARGET	n/a	LTP095	ltpFR	6	8	1	EXPERT	543	2	1	n/a	n/a	n/a	n/a	n/a
3850824	RECOG_RESP	n/a	LTP095	ltpFR	6	8	1	EXPERT	543	n/a	1	n/a	n/a	n/a	n/a	n/a
3851373	RECOG_CONF	n/a	LTP095	ltpFR	6	8	1	EXPERT	543	2	1	n/a	n/a	n/a	n/a	n/a
3852763	RECOG_LURE	n/a	LTP095	ltpFR	6	8	n/a	FIN	566	2	n/a	n/a	n/a	n/a	n/a	n/a
3853558	RECOG_RESP	n/a	LTP095	ltpFR	6	8	n/a	FIN	566	n/a	n/a	n/a	n/a	n/a	n/a	n/a
3854366	RECOG_CONF	n/a	LTP095	ltpFR	6	8	n/a	FIN	566	2	n/a	n/a	n/a	n/a	n/a	n/a
3855779	RECOG_TARGET	n/a	LTP095	ltpFR	6	8	0	YARD	1630	3	1	n/a	n/a	n/a	n/a	n/a
3856541	RECOG_RESP	n/a	LTP095	ltpFR	6	8	0	YARD	1630	n/a	1	n/a	n/a	n/a	n/a	n/a
3857170	RECOG_CONF	n/a	LTP095	ltpFR	6	8	0	YARD	1630	3	1	n/a	n/a	n/a	n/a	n/a
3858437	RECOG_TARGET	n/a	LTP095	ltpFR	6	8	0	BELLY	119	4	1	n/a	n/a	n/a	n/a	n/a
3858946	RECOG_RESP	n/a	LTP095	ltpFR	6	8	0	BELLY	119	n/a	1	n/a	n/a	n/a	n/a	n/a
3859515	RECOG_CONF	n/a	LTP095	ltpFR	6	8	0	BELLY	119	4	1	n/a	n/a	n/a	n/a	n/a
3860804	RECOG_TARGET	n/a	LTP095	ltpFR	6	8	-1	SQUID	1361	5	-1	n/a	n/a	n/a	n/a	n/a
3861306	RECOG_RESP	n/a	LTP095	ltpFR	6	8	-1	SQUID	1361	n/a	-1	n/a	n/a	n/a	n/a	n/a
3861810	RECOG_CONF	n/a	LTP095	ltpFR	6	8	-1	SQUID	1361	5	-1	n/a	n/a	n/a	n/a	n/a
3863170	RECOG_TARGET	n/a	LTP095	ltpFR	6	8	1	CROW	414	4	1	n/a	n/a	n/a	n/a	n/a
3863865	RECOG_RESP	n/a	LTP095	ltpFR	6	8	1	CROW	414	n/a	1	n/a	n/a	n/a	n/a	n/a
3864823	RECOG_CONF	n/a	LTP095	ltpFR	6	8	1	CROW	414	4	1	n/a	n/a	n/a	n/a	n/a
3866286	RECOG_TARGET	n/a	LTP095	ltpFR	6	8	0	JUNGLE	764	2	1	n/a	n/a	n/a	n/a	n/a
3866833	RECOG_RESP_VV	n/a	LTP095	ltpFR	6	8	0	JUNGLE	764	n/a	1	n/a	n/a	n/a	n/a	n/a
3867442	RECOG_RESP	n/a	LTP095	ltpFR	6	8	0	JUNGLE	764	n/a	1	n/a	n/a	n/a	n/a	n/a
3868073	RECOG_CONF	n/a	LTP095	ltpFR	6	8	0	JUNGLE	764	2	1	n/a	n/a	n/a	n/a	n/a
3869519	RECOG_TARGET	n/a	LTP095	ltpFR	6	8	-1	JAW	751	4	-1	n/a	n/a	n/a	n/a	n/a
3870305	RECOG_RESP	n/a	LTP095	ltpFR	6	8	-1	JAW	751	n/a	-1	n/a	n/a	n/a	n/a	n/a
3871019	RECOG_CONF	n/a	LTP095	ltpFR	6	8	-1	JAW	751	4	-1	n/a	n/a	n/a	n/a	n/a
3872394	RECOG_TARGET	n/a	LTP095	ltpFR	6	8	0	CURTAIN	427	5	1	n/a	n/a	n/a	n/a	n/a
3873139	RECOG_RESP	n/a	LTP095	ltpFR	6	8	0	CURTAIN	427	n/a	1	n/a	n/a	n/a	n/a	n/a
3873802	RECOG_CONF	n/a	LTP095	ltpFR	6	8	0	CURTAIN	427	5	1	n/a	n/a	n/a	n/a	n/a
3875577	RECOG_TARGET	n/a	LTP095	ltpFR	6	8	1	PRUNE	1134	3	0	n/a	n/a	n/a	n/a	n/a
3876292	RECOG_RESP	n/a	LTP095	ltpFR	6	8	1	PRUNE	1134	n/a	0	n/a	n/a	n/a	n/a	n/a
3877015	RECOG_CONF	n/a	LTP095	ltpFR	6	8	1	PRUNE	1134	3	0	n/a	n/a	n/a	n/a	n/a
3878827	RECOG_TARGET	n/a	LTP095	ltpFR	6	8	1	HEADBAND	696	3	0	n/a	n/a	n/a	n/a	n/a
3881624	RECOG_RESP	n/a	LTP095	ltpFR	6	8	1	HEADBAND	696	n/a	0	n/a	n/a	n/a	n/a	n/a
3882463	RECOG_CONF	n/a	LTP095	ltpFR	6	8	1	HEADBAND	696	3	0	n/a	n/a	n/a	n/a	n/a
3883877	RECOG_TARGET	n/a	LTP095	ltpFR	6	8	-1	GATE	625	4	-1	n/a	n/a	n/a	n/a	n/a
3884488	RECOG_RESP	n/a	LTP095	ltpFR	6	8	-1	GATE	625	n/a	-1	n/a	n/a	n/a	n/a	n/a
3885117	RECOG_CONF	n/a	LTP095	ltpFR	6	8	-1	GATE	625	4	-1	n/a	n/a	n/a	n/a	n/a
3886702	RECOG_TARGET	n/a	LTP095	ltpFR	6	8	1	PALM	1007	3	0	n/a	n/a	n/a	n/a	n/a
3888634	RECOG_RESP	n/a	LTP095	ltpFR	6	8	1	PALM	1007	n/a	0	n/a	n/a	n/a	n/a	n/a
3889726	RECOG_CONF	n/a	LTP095	ltpFR	6	8	1	PALM	1007	3	0	n/a	n/a	n/a	n/a	n/a
3891110	RECOG_LURE	n/a	LTP095	ltpFR	6	8	n/a	CERAMICS	271	4	n/a	n/a	n/a	n/a	n/a	n/a
3892026	RECOG_RESP	n/a	LTP095	ltpFR	6	8	n/a	CERAMICS	271	n/a	n/a	n/a	n/a	n/a	n/a	n/a
3893288	RECOG_CONF	n/a	LTP095	ltpFR	6	8	n/a	CERAMICS	271	4	n/a	n/a	n/a	n/a	n/a	n/a
3894584	RECOG_TARGET	n/a	LTP095	ltpFR	6	8	0	CHAIRPERSON	275	5	1	n/a	n/a	n/a	n/a	n/a
3897927	RECOG_RESP	n/a	LTP095	ltpFR	6	8	0	CHAIRPERSON	275	n/a	1	n/a	n/a	n/a	n/a	n/a
3898556	RECOG_CONF	n/a	LTP095	ltpFR	6	8	0	CHAIRPERSON	275	5	1	n/a	n/a	n/a	n/a	n/a
3900134	RECOG_LURE	n/a	LTP095	ltpFR	6	8	n/a	BISCUIT	130	2	n/a	n/a	n/a	n/a	n/a	n/a
3901574	RECOG_RESP	n/a	LTP095	ltpFR	6	8	n/a	BISCUIT	130	n/a	n/a	n/a	n/a	n/a	n/a	n/a
3902308	RECOG_CONF	n/a	LTP095	ltpFR	6	8	n/a	BISCUIT	130	2	n/a	n/a	n/a	n/a	n/a	n/a
3910372	REC_START	n/a	LTP095	ltpFR	6	9	n/a	n/a	n/a	n/a	n/a	n/a	n/a	n/a	n/a	n/a
3910408	RECOG_TARGET	n/a	LTP095	ltpFR	6	9	-1	CHISEL	305	3	-1	n/a	n/a	n/a	n/a	n/a
3911205	RECOG_RESP	n/a	LTP095	ltpFR	6	9	-1	CHISEL	305	n/a	-1	n/a	n/a	n/a	n/a	n/a
3911794	RECOG_CONF	n/a	LTP095	ltpFR	6	9	-1	CHISEL	305	3	-1	n/a	n/a	n/a	n/a	n/a
3913125	RECOG_TARGET	n/a	LTP095	ltpFR	6	9	0	CITRUS	313	4	0	n/a	n/a	n/a	n/a	n/a
3913729	RECOG_RESP	n/a	LTP095	ltpFR	6	9	0	CITRUS	313	n/a	0	n/a	n/a	n/a	n/a	n/a
3914388	RECOG_CONF	n/a	LTP095	ltpFR	6	9	0	CITRUS	313	4	0	n/a	n/a	n/a	n/a	n/a
3915666	RECOG_LURE	n/a	LTP095	ltpFR	6	9	n/a	BRUNETTE	181	2	n/a	n/a	n/a	n/a	n/a	n/a
3916508	RECOG_RESP	n/a	LTP095	ltpFR	6	9	n/a	BRUNETTE	181	n/a	n/a	n/a	n/a	n/a	n/a	n/a
3917171	RECOG_CONF	n/a	LTP095	ltpFR	6	9	n/a	BRUNETTE	181	2	n/a	n/a	n/a	n/a	n/a	n/a
3918682	RECOG_LURE	n/a	LTP095	ltpFR	6	9	n/a	COOK	372	3	n/a	n/a	n/a	n/a	n/a	n/a
3919207	RECOG_RESP	n/a	LTP095	ltpFR	6	9	n/a	COOK	372	n/a	n/a	n/a	n/a	n/a	n/a	n/a
3919995	RECOG_CONF	n/a	LTP095	ltpFR	6	9	n/a	COOK	372	3	n/a	n/a	n/a	n/a	n/a	n/a
3921507	RECOG_LURE	n/a	LTP095	ltpFR	6	9	n/a	BARRACUDA	90	3	n/a	n/a	n/a	n/a	n/a	n/a
3922609	RECOG_RESP	n/a	LTP095	ltpFR	6	9	n/a	BARRACUDA	90	n/a	n/a	n/a	n/a	n/a	n/a	n/a
3923347	RECOG_CONF	n/a	LTP095	ltpFR	6	9	n/a	BARRACUDA	90	3	n/a	n/a	n/a	n/a	n/a	n/a
3924674	RECOG_TARGET	n/a	LTP095	ltpFR	6	9	-1	HINGE	709	4	-1	n/a	n/a	n/a	n/a	n/a
3925572	RECOG_RESP	n/a	LTP095	ltpFR	6	9	-1	HINGE	709	n/a	-1	n/a	n/a	n/a	n/a	n/a
3926460	RECOG_CONF	n/a	LTP095	ltpFR	6	9	-1	HINGE	709	4	-1	n/a	n/a	n/a	n/a	n/a
3927807	RECOG_LURE	n/a	LTP095	ltpFR	6	9	n/a	NITROGEN	954	3	n/a	n/a	n/a	n/a	n/a	n/a
3928620	RECOG_RESP	n/a	LTP095	ltpFR	6	9	n/a	NITROGEN	954	n/a	n/a	n/a	n/a	n/a	n/a	n/a
3929244	RECOG_CONF	n/a	LTP095	ltpFR	6	9	n/a	NITROGEN	954	3	n/a	n/a	n/a	n/a	n/a	n/a
3930548	RECOG_TARGET	n/a	LTP095	ltpFR	6	9	0	DILL	465	4	0	n/a	n/a	n/a	n/a	n/a
3932417	RECOG_RESP	n/a	LTP095	ltpFR	6	9	0	DILL	465	n/a	0	n/a	n/a	n/a	n/a	n/a
3933524	RECOG_CONF	n/a	LTP095	ltpFR	6	9	0	DILL	465	4	0	n/a	n/a	n/a	n/a	n/a
3935690	RECOG_TARGET	n/a	LTP095	ltpFR	6	9	-1	POTATO	1115	5	-1	n/a	n/a	n/a	n/a	n/a
3936433	RECOG_RESP	n/a	LTP095	ltpFR	6	9	-1	POTATO	1115	n/a	-1	n/a	n/a	n/a	n/a	n/a
3937066	RECOG_CONF	n/a	LTP095	ltpFR	6	9	-1	POTATO	1115	5	-1	n/a	n/a	n/a	n/a	n/a
3938631	RECOG_LURE	n/a	LTP095	ltpFR	6	9	n/a	SUITCASE	1403	2	n/a	n/a	n/a	n/a	n/a	n/a
3941516	RECOG_RESP	n/a	LTP095	ltpFR	6	9	n/a	SUITCASE	1403	n/a	n/a	n/a	n/a	n/a	n/a	n/a
3942125	RECOG_CONF	n/a	LTP095	ltpFR	6	9	n/a	SUITCASE	1403	2	n/a	n/a	n/a	n/a	n/a	n/a
3943689	RECOG_TARGET	n/a	LTP095	ltpFR	6	9	-1	OTTER	986	3	-1	n/a	n/a	n/a	n/a	n/a
3944454	RECOG_RESP	n/a	LTP095	ltpFR	6	9	-1	OTTER	986	n/a	-1	n/a	n/a	n/a	n/a	n/a
3945148	RECOG_CONF	n/a	LTP095	ltpFR	6	9	-1	OTTER	986	3	-1	n/a	n/a	n/a	n/a	n/a
3946630	RECOG_TARGET	n/a	LTP095	ltpFR	6	9	0	CARPENTER	246	1	1	n/a	n/a	n/a	n/a	n/a
3949109	RECOG_RESP	n/a	LTP095	ltpFR	6	9	0	CARPENTER	246	n/a	1	n/a	n/a	n/a	n/a	n/a
3951324	RECOG_CONF	n/a	LTP095	ltpFR	6	9	0	CARPENTER	246	1	1	n/a	n/a	n/a	n/a	n/a
3952855	RECOG_TARGET	n/a	LTP095	ltpFR	6	9	0	RESTAURANT	1187	2	1	n/a	n/a	n/a	n/a	n/a
3953688	RECOG_RESP	n/a	LTP095	ltpFR	6	9	0	RESTAURANT	1187	n/a	1	n/a	n/a	n/a	n/a	n/a
3954696	RECOG_CONF	n/a	LTP095	ltpFR	6	9	0	RESTAURANT	1187	2	1	n/a	n/a	n/a	n/a	n/a
3955996	RECOG_LURE	n/a	LTP095	ltpFR	6	9	n/a	CASHEW	253	3	n/a	n/a	n/a	n/a	n/a	n/a
3956811	RECOG_RESP_VV	n/a	LTP095	ltpFR	6	9	n/a	CASHEW	253	n/a	n/a	n/a	n/a	n/a	n/a	n/a
3959051	RECOG_RESP	n/a	LTP095	ltpFR	6	9	n/a	CASHEW	253	n/a	n/a	n/a	n/a	n/a	n/a	n/a
3959665	RECOG_CONF	n/a	LTP095	ltpFR	6	9	n/a	CASHEW	253	3	n/a	n/a	n/a	n/a	n/a	n/a
3961138	RECOG_LURE	n/a	LTP095	ltpFR	6	9	n/a	THIGH	1457	2	n/a	n/a	n/a	n/a	n/a	n/a
3963187	RECOG_RESP	n/a	LTP095	ltpFR	6	9	n/a	THIGH	1457	n/a	n/a	n/a	n/a	n/a	n/a	n/a
3963835	RECOG_CONF	n/a	LTP095	ltpFR	6	9	n/a	THIGH	1457	2	n/a	n/a	n/a	n/a	n/a	n/a
3965262	RECOG_TARGET	n/a	LTP095	ltpFR	6	9	1	QUEEN	1149	4	1	n/a	n/a	n/a	n/a	n/a
3965926	RECOG_RESP	n/a	LTP095	ltpFR	6	9	1	QUEEN	1149	n/a	1	n/a	n/a	n/a	n/a	n/a
3966519	RECOG_CONF	n/a	LTP095	ltpFR	6	9	1	QUEEN	1149	4	1	n/a	n/a	n/a	n/a	n/a
3967721	RECOG_TARGET	n/a	LTP095	ltpFR	6	9	0	WITCH	1617	3	1	n/a	n/a	n/a	n/a	n/a
3968629	RECOG_RESP	n/a	LTP095	ltpFR	6	9	0	WITCH	1617	n/a	1	n/a	n/a	n/a	n/a	n/a
3969123	RECOG_CONF	n/a	LTP095	ltpFR	6	9	0	WITCH	1617	3	1	n/a	n/a	n/a	n/a	n/a
3970420	RECOG_LURE	n/a	LTP095	ltpFR	6	9	n/a	BLUEPRINT	142	2	n/a	n/a	n/a	n/a	n/a	n/a
3971328	RECOG_RESP	n/a	LTP095	ltpFR	6	9	n/a	BLUEPRINT	142	n/a	n/a	n/a	n/a	n/a	n/a	n/a
3971887	RECOG_CONF	n/a	LTP095	ltpFR	6	9	n/a	BLUEPRINT	142	2	n/a	n/a	n/a	n/a	n/a	n/a
3973353	RECOG_TARGET	n/a	LTP095	ltpFR	6	9	0	THORN	1459	4	0	n/a	n/a	n/a	n/a	n/a
3974182	RECOG_RESP	n/a	LTP095	ltpFR	6	9	0	THORN	1459	n/a	0	n/a	n/a	n/a	n/a	n/a
3975269	RECOG_CONF	n/a	LTP095	ltpFR	6	9	0	THORN	1459	4	0	n/a	n/a	n/a	n/a	n/a
3976786	RECOG_TARGET	n/a	LTP095	ltpFR	6	9	0	VICTOR	1563	5	1	n/a	n/a	n/a	n/a	n/a
3977614	RECOG_RESP	n/a	LTP095	ltpFR	6	9	0	VICTOR	1563	n/a	1	n/a	n/a	n/a	n/a	n/a
3978233	RECOG_CONF	n/a	LTP095	ltpFR	6	9	0	VICTOR	1563	5	1	n/a	n/a	n/a	n/a	n/a
3984553	REC_START	n/a	LTP095	ltpFR	6	10	n/a	n/a	n/a	n/a	n/a	n/a	n/a	n/a	n/a	n/a
3984586	RECOG_LURE	n/a	LTP095	ltpFR	6	10	n/a	BANNER	85	2	n/a	n/a	n/a	n/a	n/a	n/a
3986279	RECOG_RESP	n/a	LTP095	ltpFR	6	10	n/a	BANNER	85	n/a	n/a	n/a	n/a	n/a	n/a	n/a
3986982	RECOG_CONF	n/a	LTP095	ltpFR	6	10	n/a	BANNER	85	2	n/a	n/a	n/a	n/a	n/a	n/a
3988477	RECOG_TARGET	n/a	LTP095	ltpFR	6	10	0	RODENT	1204	4	0	n/a	n/a	n/a	n/a	n/a
3989357	RECOG_RESP	n/a	LTP095	ltpFR	6	10	0	RODENT	1204	n/a	0	n/a	n/a	n/a	n/a	n/a
3989966	RECOG_CONF	n/a	LTP095	ltpFR	6	10	0	RODENT	1204	4	0	n/a	n/a	n/a	n/a	n/a
3991119	RECOG_TARGET	n/a	LTP095	ltpFR	6	10	0	WILDERNESS	1610	2	1	n/a	n/a	n/a	n/a	n/a
3991717	RECOG_RESP	n/a	LTP095	ltpFR	6	10	0	WILDERNESS	1610	n/a	1	n/a	n/a	n/a	n/a	n/a
3993647	RECOG_CONF	n/a	LTP095	ltpFR	6	10	0	WILDERNESS	1610	2	1	n/a	n/a	n/a	n/a	n/a
3994977	RECOG_TARGET	n/a	LTP095	ltpFR	6	10	0	CAR	241	3	1	n/a	n/a	n/a	n/a	n/a
3995807	RECOG_RESP	n/a	LTP095	ltpFR	6	10	0	CAR	241	n/a	1	n/a	n/a	n/a	n/a	n/a
3996750	RECOG_CONF	n/a	LTP095	ltpFR	6	10	0	CAR	241	3	1	n/a	n/a	n/a	n/a	n/a
3998076	RECOG_TARGET	n/a	LTP095	ltpFR	6	10	1	RAM	1165	4	1	n/a	n/a	n/a	n/a	n/a
3998721	RECOG_RESP	n/a	LTP095	ltpFR	6	10	1	RAM	1165	n/a	1	n/a	n/a	n/a	n/a	n/a
3999743	RECOG_CONF	n/a	LTP095	ltpFR	6	10	1	RAM	1165	4	1	n/a	n/a	n/a	n/a	n/a
4001051	RECOG_TARGET	n/a	LTP095	ltpFR	6	10	1	PLANE	1081	2	0	n/a	n/a	n/a	n/a	n/a
4001689	RECOG_RESP	n/a	LTP095	ltpFR	6	10	1	PLANE	1081	n/a	0	n/a	n/a	n/a	n/a	n/a
4003485	RECOG_CONF	n/a	LTP095	ltpFR	6	10	1	PLANE	1081	2	0	n/a	n/a	n/a	n/a	n/a
4004884	RECOG_TARGET	n/a	LTP095	ltpFR	6	10	0	IGLOO	734	4	1	n/a	n/a	n/a	n/a	n/a
4005795	RECOG_RESP	n/a	LTP095	ltpFR	6	10	0	IGLOO	734	n/a	1	n/a	n/a	n/a	n/a	n/a
4006478	RECOG_CONF	n/a	LTP095	ltpFR	6	10	0	IGLOO	734	4	1	n/a	n/a	n/a	n/a	n/a
4007926	RECOG_TARGET	n/a	LTP095	ltpFR	6	10	0	POTTERY	1116	5	0	n/a	n/a	n/a	n/a	n/a
4008947	RECOG_RESP	n/a	LTP095	ltpFR	6	10	0	POTTERY	1116	n/a	0	n/a	n/a	n/a	n/a	n/a
4009920	RECOG_CONF	n/a	LTP095	ltpFR	6	10	0	POTTERY	1116	5	0	n/a	n/a	n/a	n/a	n/a
4011367	RECOG_LURE	n/a	LTP095	ltpFR	6	10	n/a	PICTURE	1061	3	n/a	n/a	n/a	n/a	n/a	n/a
4012120	RECOG_RESP	n/a	LTP095	ltpFR	6	10	n/a	PICTURE	1061	n/a	n/a	n/a	n/a	n/a	n/a	n/a
4013542	RECOG_CONF	n/a	LTP095	ltpFR	6	10	n/a	PICTURE	1061	3	n/a	n/a	n/a	n/a	n/a	n/a
4014768	RECOG_TARGET	n/a	LTP095	ltpFR	6	10	1	BUFFALO	186	2	1	n/a	n/a	n/a	n/a	n/a
4015587	RECOG_RESP	n/a	LTP095	ltpFR	6	10	1	BUFFALO	186	n/a	1	n/a	n/a	n/a	n/a	n/a
4016286	RECOG_CONF	n/a	LTP095	ltpFR	6	10	1	BUFFALO	186	2	1	n/a	n/a	n/a	n/a	n/a
4017425	RECOG_TARGET	n/a	LTP095	ltpFR	6	10	-1	RIVER	1194	4	-1	n/a	n/a	n/a	n/a	n/a
4018226	RECOG_RESP	n/a	LTP095	ltpFR	6	10	-1	RIVER	1194	n/a	-1	n/a	n/a	n/a	n/a	n/a
4018860	RECOG_CONF	n/a	LTP095	ltpFR	6	10	-1	RIVER	1194	4	-1	n/a	n/a	n/a	n/a	n/a
4020125	RECOG_TARGET	n/a	LTP095	ltpFR	6	10	0	CAN	225	5	0	n/a	n/a	n/a	n/a	n/a
4020626	RECOG_RESP	n/a	LTP095	ltpFR	6	10	0	CAN	225	n/a	0	n/a	n/a	n/a	n/a	n/a
4021165	RECOG_CONF	n/a	LTP095	ltpFR	6	10	0	CAN	225	5	0	n/a	n/a	n/a	n/a	n/a
4022516	RECOG_TARGET	n/a	LTP095	ltpFR	6	10	-1	JACKET	747	5	-1	n/a	n/a	n/a	n/a	n/a
4024049	RECOG_RESP	n/a	LTP095	ltpFR	6	10	-1	JACKET	747	n/a	-1	n/a	n/a	n/a	n/a	n/a
4024996	RECOG_CONF	n/a	LTP095	ltpFR	6	10	-1	JACKET	747	5	-1	n/a	n/a	n/a	n/a	n/a
4026674	RECOG_TARGET	n/a	LTP095	ltpFR	6	10	1	ALMOND	18	2	0	n/a	n/a	n/a	n/a	n/a
4027455	RECOG_RESP	n/a	LTP095	ltpFR	6	10	1	ALMOND	18	n/a	0	n/a	n/a	n/a	n/a	n/a
4028109	RECOG_CONF	n/a	LTP095	ltpFR	6	10	1	ALMOND	18	2	0	n/a	n/a	n/a	n/a	n/a
4029582	RECOG_TARGET	n/a	LTP095	ltpFR	6	10	-1	TECHNICIAN	1443	3	-1	n/a	n/a	n/a	n/a	n/a
4030718	RECOG_RESP	n/a	LTP095	ltpFR	6	10	-1	TECHNICIAN	1443	n/a	-1	n/a	n/a	n/a	n/a	n/a
4031581	RECOG_CONF	n/a	LTP095	ltpFR	6	10	-1	TECHNICIAN	1443	3	-1	n/a	n/a	n/a	n/a	n/a
4032899	RECOG_TARGET	n/a	LTP095	ltpFR	6	10	1	WAITER	1580	2	1	n/a	n/a	n/a	n/a	n/a
4033841	RECOG_RESP	n/a	LTP095	ltpFR	6	10	1	WAITER	1580	n/a	1	n/a	n/a	n/a	n/a	n/a
4034534	RECOG_CONF	n/a	LTP095	ltpFR	6	10	1	WAITER	1580	2	1	n/a	n/a	n/a	n/a	n/a
4035982	RECOG_TARGET	n/a	LTP095	ltpFR	6	10	1	POT	1114	4	0	n/a	n/a	n/a	n/a	n/a
4036719	RECOG_RESP	n/a	LTP095	ltpFR	6	10	1	POT	1114	n/a	0	n/a	n/a	n/a	n/a	n/a
4038705	RECOG_CONF	n/a	LTP095	ltpFR	6	10	1	POT	1114	4	0	n/a	n/a	n/a	n/a	n/a
4040123	RECOG_TARGET	n/a	LTP095	ltpFR	6	10	0	CONTAINER	366	5	0	n/a	n/a	n/a	n/a	n/a
4040740	RECOG_RESP	n/a	LTP095	ltpFR	6	10	0	CONTAINER	366	n/a	0	n/a	n/a	n/a	n/a	n/a
4041349	RECOG_CONF	n/a	LTP095	ltpFR	6	10	0	CONTAINER	366	5	0	n/a	n/a	n/a	n/a	n/a
4043015	RECOG_LURE	n/a	LTP095	ltpFR	6	10	n/a	CHARCOAL	281	3	n/a	n/a	n/a	n/a	n/a	n/a
