onset	duration	trial_type	sample	stim_file	subject	experiment	session	trial	task	item_name	item_num	recog_resp	recog_conf	resp	answer	test_x	test_y	test_z	color_r	color_g	color_b	case	font
264.398	n/a	SESS_START	132199	n/a	LTP075	ltpFR	8	n/a	n/a	n/a	n/a	1	5	n/a	n/a	0	0	0	n/a	n/a	n/a	n/a	n/a
306.28	n/a	START	153140	n/a	LTP075	ltpFR	8	n/a	n/a	n/a	n/a	n/a	n/a	n/a	n/a	n/a	n/a	n/a	n/a	n/a	n/a	n/a	n/a
306.304	n/a	PROB	153152	n/a	LTP075	ltpFR	8	n/a	n/a	n/a	n/a	n/a	n/a	n/a	13	6	5	2	n/a	n/a	n/a	n/a	n/a
308.688	n/a	PROB	154344	n/a	LTP075	ltpFR	8	n/a	n/a	n/a	n/a	n/a	n/a	n/a	9	2	1	6	n/a	n/a	n/a	n/a	n/a
310.354	n/a	PROB	155177	n/a	LTP075	ltpFR	8	n/a	n/a	n/a	n/a	n/a	n/a	n/a	9	2	6	1	n/a	n/a	n/a	n/a	n/a
311.88	n/a	PROB	155940	n/a	LTP075	ltpFR	8	n/a	n/a	n/a	n/a	n/a	n/a	n/a	20	2	9	9	n/a	n/a	n/a	n/a	n/a
313.48	n/a	PROB	156740	n/a	LTP075	ltpFR	8	n/a	n/a	n/a	n/a	n/a	n/a	n/a	17	8	4	5	n/a	n/a	n/a	n/a	n/a
315.322	n/a	PROB	157661	n/a	LTP075	ltpFR	8	n/a	n/a	n/a	n/a	n/a	n/a	n/a	10	1	7	2	n/a	n/a	n/a	n/a	n/a
316.838	n/a	PROB	158419	n/a	LTP075	ltpFR	8	n/a	n/a	n/a	n/a	n/a	n/a	n/a	18	6	6	6	n/a	n/a	n/a	n/a	n/a
318.178	n/a	PROB	159089	n/a	LTP075	ltpFR	8	n/a	n/a	n/a	n/a	n/a	n/a	n/a	15	3	8	4	n/a	n/a	n/a	n/a	n/a
319.904	n/a	PROB	159952	n/a	LTP075	ltpFR	8	n/a	n/a	n/a	n/a	n/a	n/a	n/a	18	5	7	6	n/a	n/a	n/a	n/a	n/a
321.754	n/a	PROB	160877	n/a	LTP075	ltpFR	8	n/a	n/a	n/a	n/a	n/a	n/a	n/a	17	4	9	4	n/a	n/a	n/a	n/a	n/a
326.28	n/a	STOP	163140	n/a	LTP075	ltpFR	8	n/a	n/a	n/a	n/a	n/a	n/a	n/a	n/a	n/a	n/a	n/a	n/a	n/a	n/a	n/a	n/a
359.42	n/a	START	179710	n/a	LTP075	ltpFR	8	n/a	n/a	n/a	n/a	n/a	n/a	n/a	n/a	n/a	n/a	n/a	n/a	n/a	n/a	n/a	n/a
360.928	n/a	PROB	180464	n/a	LTP075	ltpFR	8	n/a	n/a	n/a	n/a	n/a	n/a	n/a	13	4	7	2	n/a	n/a	n/a	n/a	n/a
363.178	n/a	PROB	181589	n/a	LTP075	ltpFR	8	n/a	n/a	n/a	n/a	n/a	n/a	n/a	16	9	5	2	n/a	n/a	n/a	n/a	n/a
365.394	n/a	PROB	182697	n/a	LTP075	ltpFR	8	n/a	n/a	n/a	n/a	n/a	n/a	n/a	14	7	5	2	n/a	n/a	n/a	n/a	n/a
366.982	n/a	STOP	183491	n/a	LTP075	ltpFR	8	n/a	n/a	n/a	n/a	n/a	n/a	n/a	n/a	n/a	n/a	n/a	n/a	n/a	n/a	n/a	n/a
368.352	n/a	WORD	184176	wordpools/wasnorm_wordpool.txt	LTP075	ltpFR	8	1	1	PIER	1063	1	n/a	0	n/a	0	0	0	0.57763671875	0.412841796875	1	upper	amplitud.ttf
371.352	n/a	START	185676	n/a	LTP075	ltpFR	8	n/a	n/a	n/a	n/a	n/a	n/a	n/a	n/a	n/a	n/a	n/a	n/a	n/a	n/a	n/a	n/a
372.36	n/a	PROB	186180	n/a	LTP075	ltpFR	8	n/a	n/a	n/a	n/a	n/a	n/a	n/a	19	1	9	9	n/a	n/a	n/a	n/a	n/a
374.136	n/a	PROB	187068	n/a	LTP075	ltpFR	8	n/a	n/a	n/a	n/a	n/a	n/a	n/a	19	4	8	9	n/a	n/a	n/a	n/a	n/a
379.354	n/a	STOP	189677	n/a	LTP075	ltpFR	8	n/a	n/a	n/a	n/a	n/a	n/a	n/a	n/a	n/a	n/a	n/a	n/a	n/a	n/a	n/a	n/a
380.236	n/a	WORD	190118	wordpools/wasnorm_wordpool.txt	LTP075	ltpFR	8	1	1	CAPTIVE	240	n/a	n/a	0	n/a	0	0	0	0.57763671875	0.412841796875	1	upper	amplitud.ttf
383.244	n/a	START	191622	n/a	LTP075	ltpFR	8	n/a	n/a	n/a	n/a	n/a	n/a	n/a	n/a	n/a	n/a	n/a	n/a	n/a	n/a	n/a	n/a
384.202	n/a	PROB	192101	n/a	LTP075	ltpFR	8	n/a	n/a	n/a	n/a	n/a	n/a	n/a	23	9	6	8	n/a	n/a	n/a	n/a	n/a
386.62	n/a	PROB	193310	n/a	LTP075	ltpFR	8	n/a	n/a	n/a	n/a	n/a	n/a	n/a	14	4	8	2	n/a	n/a	n/a	n/a	n/a
387.902	n/a	PROB	193951	n/a	LTP075	ltpFR	8	n/a	n/a	n/a	n/a	n/a	n/a	n/a	12	5	4	3	n/a	n/a	n/a	n/a	n/a
389.134	n/a	PROB	194567	n/a	LTP075	ltpFR	8	n/a	n/a	n/a	n/a	n/a	n/a	n/a	13	3	6	4	n/a	n/a	n/a	n/a	n/a
390.432	n/a	STOP	195216	n/a	LTP075	ltpFR	8	n/a	n/a	n/a	n/a	n/a	n/a	n/a	n/a	n/a	n/a	n/a	n/a	n/a	n/a	n/a	n/a
392.184	n/a	WORD	196092	wordpools/wasnorm_wordpool.txt	LTP075	ltpFR	8	1	1	MINT	898	n/a	n/a	0	n/a	0	0	0	0.57763671875	0.412841796875	1	upper	amplitud.ttf
395.194	n/a	START	197597	n/a	LTP075	ltpFR	8	n/a	n/a	n/a	n/a	n/a	n/a	n/a	n/a	n/a	n/a	n/a	n/a	n/a	n/a	n/a	n/a
396.186	n/a	PROB	198093	n/a	LTP075	ltpFR	8	n/a	n/a	n/a	n/a	n/a	n/a	n/a	18	4	7	7	n/a	n/a	n/a	n/a	n/a
397.536	n/a	PROB	198768	n/a	LTP075	ltpFR	8	n/a	n/a	n/a	n/a	n/a	n/a	n/a	20	6	5	9	n/a	n/a	n/a	n/a	n/a
399.344	n/a	PROB	199672	n/a	LTP075	ltpFR	8	n/a	n/a	n/a	n/a	n/a	n/a	n/a	11	6	2	3	n/a	n/a	n/a	n/a	n/a
400.96	n/a	PROB	200480	n/a	LTP075	ltpFR	8	n/a	n/a	n/a	n/a	n/a	n/a	n/a	9	3	1	5	n/a	n/a	n/a	n/a	n/a
402.6	n/a	STOP	201300	n/a	LTP075	ltpFR	8	n/a	n/a	n/a	n/a	n/a	n/a	n/a	n/a	n/a	n/a	n/a	n/a	n/a	n/a	n/a	n/a
404.052	n/a	WORD	202026	wordpools/wasnorm_wordpool.txt	LTP075	ltpFR	8	1	1	SKILLET	1317	n/a	n/a	0	n/a	0	0	0	0.57763671875	0.412841796875	1	upper	amplitud.ttf
407.06	n/a	START	203530	n/a	LTP075	ltpFR	8	n/a	n/a	n/a	n/a	n/a	n/a	n/a	n/a	n/a	n/a	n/a	n/a	n/a	n/a	n/a	n/a
407.936	n/a	PROB	203968	n/a	LTP075	ltpFR	8	n/a	n/a	n/a	n/a	n/a	n/a	n/a	12	3	6	3	n/a	n/a	n/a	n/a	n/a
409.352	n/a	PROB	204676	n/a	LTP075	ltpFR	8	n/a	n/a	n/a	n/a	n/a	n/a	n/a	4	1	1	2	n/a	n/a	n/a	n/a	n/a
410.818	n/a	PROB	205409	n/a	LTP075	ltpFR	8	n/a	n/a	n/a	n/a	n/a	n/a	n/a	21	5	7	9	n/a	n/a	n/a	n/a	n/a
413.88	n/a	STOP	206940	n/a	LTP075	ltpFR	8	n/a	n/a	n/a	n/a	n/a	n/a	n/a	n/a	n/a	n/a	n/a	n/a	n/a	n/a	n/a	n/a
416.26	n/a	WORD	208130	wordpools/wasnorm_wordpool.txt	LTP075	ltpFR	8	1	1	PRISON	1127	n/a	n/a	0	n/a	0	0	0	0.57763671875	0.412841796875	1	upper	amplitud.ttf
419.27	n/a	START	209635	n/a	LTP075	ltpFR	8	n/a	n/a	n/a	n/a	n/a	n/a	n/a	n/a	n/a	n/a	n/a	n/a	n/a	n/a	n/a	n/a
420.418	n/a	PROB	210209	n/a	LTP075	ltpFR	8	n/a	n/a	n/a	n/a	n/a	n/a	n/a	12	1	8	3	n/a	n/a	n/a	n/a	n/a
422.768	n/a	PROB	211384	n/a	LTP075	ltpFR	8	n/a	n/a	n/a	n/a	n/a	n/a	n/a	13	6	6	1	n/a	n/a	n/a	n/a	n/a
424.36	n/a	PROB	212180	n/a	LTP075	ltpFR	8	n/a	n/a	n/a	n/a	n/a	n/a	n/a	14	9	4	1	n/a	n/a	n/a	n/a	n/a
426.144	n/a	STOP	213072	n/a	LTP075	ltpFR	8	n/a	n/a	n/a	n/a	n/a	n/a	n/a	n/a	n/a	n/a	n/a	n/a	n/a	n/a	n/a	n/a
428.234	n/a	WORD	214117	wordpools/wasnorm_wordpool.txt	LTP075	ltpFR	8	1	1	GLASSES	640	n/a	n/a	0	n/a	0	0	0	0.57763671875	0.412841796875	1	upper	amplitud.ttf
431.242	n/a	START	215621	n/a	LTP075	ltpFR	8	n/a	n/a	n/a	n/a	n/a	n/a	n/a	n/a	n/a	n/a	n/a	n/a	n/a	n/a	n/a	n/a
432.108	n/a	PROB	216054	n/a	LTP075	ltpFR	8	n/a	n/a	n/a	n/a	n/a	n/a	n/a	19	8	5	6	n/a	n/a	n/a	n/a	n/a
433.642	n/a	PROB	216821	n/a	LTP075	ltpFR	8	n/a	n/a	n/a	n/a	n/a	n/a	n/a	13	5	5	4	n/a	n/a	n/a	n/a	n/a
435.25	n/a	PROB	217625	n/a	LTP075	ltpFR	8	n/a	n/a	n/a	n/a	n/a	n/a	n/a	20	8	8	6	n/a	n/a	n/a	n/a	n/a
438.586	n/a	STOP	219293	n/a	LTP075	ltpFR	8	n/a	n/a	n/a	n/a	n/a	n/a	n/a	n/a	n/a	n/a	n/a	n/a	n/a	n/a	n/a	n/a
440.418	n/a	WORD	220209	wordpools/wasnorm_wordpool.txt	LTP075	ltpFR	8	1	1	ISLAND	745	n/a	n/a	0	n/a	0	0	0	0.57763671875	0.412841796875	1	upper	amplitud.ttf
443.426	n/a	START	221713	n/a	LTP075	ltpFR	8	n/a	n/a	n/a	n/a	n/a	n/a	n/a	n/a	n/a	n/a	n/a	n/a	n/a	n/a	n/a	n/a
444.242	n/a	PROB	222121	n/a	LTP075	ltpFR	8	n/a	n/a	n/a	n/a	n/a	n/a	n/a	19	9	3	7	n/a	n/a	n/a	n/a	n/a
445.526	n/a	PROB	222763	n/a	LTP075	ltpFR	8	n/a	n/a	n/a	n/a	n/a	n/a	n/a	13	8	3	2	n/a	n/a	n/a	n/a	n/a
447.634	n/a	PROB	223817	n/a	LTP075	ltpFR	8	n/a	n/a	n/a	n/a	n/a	n/a	n/a	14	7	1	6	n/a	n/a	n/a	n/a	n/a
449.85	n/a	PROB	224925	n/a	LTP075	ltpFR	8	n/a	n/a	n/a	n/a	n/a	n/a	n/a	12	4	4	4	n/a	n/a	n/a	n/a	n/a
450.97	n/a	STOP	225485	n/a	LTP075	ltpFR	8	n/a	n/a	n/a	n/a	n/a	n/a	n/a	n/a	n/a	n/a	n/a	n/a	n/a	n/a	n/a	n/a
452.326	n/a	WORD	226163	wordpools/wasnorm_wordpool.txt	LTP075	ltpFR	8	1	1	FAUCET	555	n/a	n/a	0	n/a	0	0	0	0.57763671875	0.412841796875	1	upper	amplitud.ttf
455.334	n/a	START	227667	n/a	LTP075	ltpFR	8	n/a	n/a	n/a	n/a	n/a	n/a	n/a	n/a	n/a	n/a	n/a	n/a	n/a	n/a	n/a	n/a
456.234	n/a	PROB	228117	n/a	LTP075	ltpFR	8	n/a	n/a	n/a	n/a	n/a	n/a	n/a	8	5	1	2	n/a	n/a	n/a	n/a	n/a
457.792	n/a	PROB	228896	n/a	LTP075	ltpFR	8	n/a	n/a	n/a	n/a	n/a	n/a	n/a	17	6	4	7	n/a	n/a	n/a	n/a	n/a
460.068	n/a	PROB	230034	n/a	LTP075	ltpFR	8	n/a	n/a	n/a	n/a	n/a	n/a	n/a	12	1	2	9	n/a	n/a	n/a	n/a	n/a
461.492	n/a	PROB	230746	n/a	LTP075	ltpFR	8	n/a	n/a	n/a	n/a	n/a	n/a	n/a	12	9	1	2	n/a	n/a	n/a	n/a	n/a
462.764	n/a	STOP	231382	n/a	LTP075	ltpFR	8	n/a	n/a	n/a	n/a	n/a	n/a	n/a	n/a	n/a	n/a	n/a	n/a	n/a	n/a	n/a	n/a
464.208	n/a	WORD	232104	wordpools/wasnorm_wordpool.txt	LTP075	ltpFR	8	1	1	BOLT	146	n/a	n/a	0	n/a	0	0	0	0.57763671875	0.412841796875	1	upper	amplitud.ttf
467.216	n/a	START	233608	n/a	LTP075	ltpFR	8	n/a	n/a	n/a	n/a	n/a	n/a	n/a	n/a	n/a	n/a	n/a	n/a	n/a	n/a	n/a	n/a
468.042	n/a	PROB	234021	n/a	LTP075	ltpFR	8	n/a	n/a	n/a	n/a	n/a	n/a	n/a	13	6	4	3	n/a	n/a	n/a	n/a	n/a
469.592	n/a	PROB	234796	n/a	LTP075	ltpFR	8	n/a	n/a	n/a	n/a	n/a	n/a	n/a	12	3	2	6	n/a	n/a	n/a	n/a	n/a
471.6	n/a	PROB	235800	n/a	LTP075	ltpFR	8	n/a	n/a	n/a	n/a	n/a	n/a	n/a	15	4	4	7	n/a	n/a	n/a	n/a	n/a
475.216	n/a	STOP	237608	n/a	LTP075	ltpFR	8	n/a	n/a	n/a	n/a	n/a	n/a	n/a	n/a	n/a	n/a	n/a	n/a	n/a	n/a	n/a	n/a
476.132	n/a	WORD	238066	wordpools/wasnorm_wordpool.txt	LTP075	ltpFR	8	1	1	ACID	2	n/a	n/a	0	n/a	0	0	0	0.57763671875	0.412841796875	1	upper	amplitud.ttf
479.142	n/a	START	239571	n/a	LTP075	ltpFR	8	n/a	n/a	n/a	n/a	n/a	n/a	n/a	n/a	n/a	n/a	n/a	n/a	n/a	n/a	n/a	n/a
480.242	n/a	PROB	240121	n/a	LTP075	ltpFR	8	n/a	n/a	n/a	n/a	n/a	n/a	n/a	15	5	1	9	n/a	n/a	n/a	n/a	n/a
481.476	n/a	PROB	240738	n/a	LTP075	ltpFR	8	n/a	n/a	n/a	n/a	n/a	n/a	n/a	7	4	1	2	n/a	n/a	n/a	n/a	n/a
482.876	n/a	PROB	241438	n/a	LTP075	ltpFR	8	n/a	n/a	n/a	n/a	n/a	n/a	n/a	16	5	8	3	n/a	n/a	n/a	n/a	n/a
487.142	n/a	STOP	243571	n/a	LTP075	ltpFR	8	n/a	n/a	n/a	n/a	n/a	n/a	n/a	n/a	n/a	n/a	n/a	n/a	n/a	n/a	n/a	n/a
488.016	n/a	WORD	244008	wordpools/wasnorm_wordpool.txt	LTP075	ltpFR	8	1	1	DENTIST	447	n/a	n/a	1	n/a	0	0	0	0.57763671875	0.412841796875	1	upper	amplitud.ttf
491.026	n/a	START	245513	n/a	LTP075	ltpFR	8	n/a	n/a	n/a	n/a	n/a	n/a	n/a	n/a	n/a	n/a	n/a	n/a	n/a	n/a	n/a	n/a
492.216	n/a	PROB	246108	n/a	LTP075	ltpFR	8	n/a	n/a	n/a	n/a	n/a	n/a	n/a	22	7	6	9	n/a	n/a	n/a	n/a	n/a
494.674	n/a	PROB	247337	n/a	LTP075	ltpFR	8	n/a	n/a	n/a	n/a	n/a	n/a	n/a	24	9	6	9	n/a	n/a	n/a	n/a	n/a
497.368	n/a	PROB	248684	n/a	LTP075	ltpFR	8	n/a	n/a	n/a	n/a	n/a	n/a	n/a	14	3	7	4	n/a	n/a	n/a	n/a	n/a
498.63	n/a	STOP	249315	n/a	LTP075	ltpFR	8	n/a	n/a	n/a	n/a	n/a	n/a	n/a	n/a	n/a	n/a	n/a	n/a	n/a	n/a	n/a	n/a
499.858	n/a	WORD	249929	wordpools/wasnorm_wordpool.txt	LTP075	ltpFR	8	1	1	YOLK	1633	n/a	n/a	0	n/a	0	0	0	0.57763671875	0.412841796875	1	upper	amplitud.ttf
502.868	n/a	START	251434	n/a	LTP075	ltpFR	8	n/a	n/a	n/a	n/a	n/a	n/a	n/a	n/a	n/a	n/a	n/a	n/a	n/a	n/a	n/a	n/a
503.716	n/a	PROB	251858	n/a	LTP075	ltpFR	8	n/a	n/a	n/a	n/a	n/a	n/a	n/a	15	4	9	2	n/a	n/a	n/a	n/a	n/a
505.14	n/a	PROB	252570	n/a	LTP075	ltpFR	8	n/a	n/a	n/a	n/a	n/a	n/a	n/a	18	8	9	1	n/a	n/a	n/a	n/a	n/a
506.392	n/a	PROB	253196	n/a	LTP075	ltpFR	8	n/a	n/a	n/a	n/a	n/a	n/a	n/a	25	6	8	9	n/a	n/a	n/a	n/a	n/a
510.868	n/a	STOP	255434	n/a	LTP075	ltpFR	8	n/a	n/a	n/a	n/a	n/a	n/a	n/a	n/a	n/a	n/a	n/a	n/a	n/a	n/a	n/a	n/a
511.758	n/a	WORD	255879	wordpools/wasnorm_wordpool.txt	LTP075	ltpFR	8	1	1	BUSH	202	n/a	n/a	1	n/a	0	0	0	0.57763671875	0.412841796875	1	upper	amplitud.ttf
514.766	n/a	START	257383	n/a	LTP075	ltpFR	8	n/a	n/a	n/a	n/a	n/a	n/a	n/a	n/a	n/a	n/a	n/a	n/a	n/a	n/a	n/a	n/a
515.674	n/a	PROB	257837	n/a	LTP075	ltpFR	8	n/a	n/a	n/a	n/a	n/a	n/a	n/a	18	6	9	3	n/a	n/a	n/a	n/a	n/a
517.424	n/a	PROB	258712	n/a	LTP075	ltpFR	8	n/a	n/a	n/a	n/a	n/a	n/a	n/a	16	7	4	5	n/a	n/a	n/a	n/a	n/a
519.1	n/a	PROB	259550	n/a	LTP075	ltpFR	8	n/a	n/a	n/a	n/a	n/a	n/a	n/a	14	4	3	7	n/a	n/a	n/a	n/a	n/a
520.248	n/a	PROB	260124	n/a	LTP075	ltpFR	8	n/a	n/a	n/a	n/a	n/a	n/a	n/a	11	4	6	1	n/a	n/a	n/a	n/a	n/a
521.558	n/a	STOP	260779	n/a	LTP075	ltpFR	8	n/a	n/a	n/a	n/a	n/a	n/a	n/a	n/a	n/a	n/a	n/a	n/a	n/a	n/a	n/a	n/a
523.65	n/a	WORD	261825	wordpools/wasnorm_wordpool.txt	LTP075	ltpFR	8	1	1	OUTLAW	989	n/a	n/a	1	n/a	0	0	0	0.57763671875	0.412841796875	1	upper	amplitud.ttf
526.658	n/a	START	263329	n/a	LTP075	ltpFR	8	n/a	n/a	n/a	n/a	n/a	n/a	n/a	n/a	n/a	n/a	n/a	n/a	n/a	n/a	n/a	n/a
527.64	n/a	PROB	263820	n/a	LTP075	ltpFR	8	n/a	n/a	n/a	n/a	n/a	n/a	n/a	6	3	2	1	n/a	n/a	n/a	n/a	n/a
529.3	n/a	PROB	264650	n/a	LTP075	ltpFR	8	n/a	n/a	n/a	n/a	n/a	n/a	n/a	17	9	3	5	n/a	n/a	n/a	n/a	n/a
530.932	n/a	PROB	265466	n/a	LTP075	ltpFR	8	n/a	n/a	n/a	n/a	n/a	n/a	n/a	13	1	8	4	n/a	n/a	n/a	n/a	n/a
532.332	n/a	PROB	266166	n/a	LTP075	ltpFR	8	n/a	n/a	n/a	n/a	n/a	n/a	n/a	13	3	3	7	n/a	n/a	n/a	n/a	n/a
533.566	n/a	STOP	266783	n/a	LTP075	ltpFR	8	n/a	n/a	n/a	n/a	n/a	n/a	n/a	n/a	n/a	n/a	n/a	n/a	n/a	n/a	n/a	n/a
535.748	n/a	WORD	267874	wordpools/wasnorm_wordpool.txt	LTP075	ltpFR	8	1	1	BANDIT	81	n/a	n/a	1	n/a	0	0	0	0.57763671875	0.412841796875	1	upper	amplitud.ttf
538.758	n/a	START	269379	n/a	LTP075	ltpFR	8	n/a	n/a	n/a	n/a	n/a	n/a	n/a	n/a	n/a	n/a	n/a	n/a	n/a	n/a	n/a	n/a
539.89	n/a	PROB	269945	n/a	LTP075	ltpFR	8	n/a	n/a	n/a	n/a	n/a	n/a	n/a	6	4	1	1	n/a	n/a	n/a	n/a	n/a
541.124	n/a	PROB	270562	n/a	LTP075	ltpFR	8	n/a	n/a	n/a	n/a	n/a	n/a	n/a	12	3	1	8	n/a	n/a	n/a	n/a	n/a
542.766	n/a	PROB	271383	n/a	LTP075	ltpFR	8	n/a	n/a	n/a	n/a	n/a	n/a	n/a	22	8	9	4	n/a	n/a	n/a	n/a	n/a
545.122	n/a	PROB	272561	n/a	LTP075	ltpFR	8	n/a	n/a	n/a	n/a	n/a	n/a	n/a	12	2	5	5	n/a	n/a	n/a	n/a	n/a
546.392	n/a	STOP	273196	n/a	LTP075	ltpFR	8	n/a	n/a	n/a	n/a	n/a	n/a	n/a	n/a	n/a	n/a	n/a	n/a	n/a	n/a	n/a	n/a
547.658	n/a	WORD	273829	wordpools/wasnorm_wordpool.txt	LTP075	ltpFR	8	1	1	CAPTAIN	239	n/a	n/a	1	n/a	0	0	0	0.57763671875	0.412841796875	1	upper	amplitud.ttf
550.666	n/a	START	275333	n/a	LTP075	ltpFR	8	n/a	n/a	n/a	n/a	n/a	n/a	n/a	n/a	n/a	n/a	n/a	n/a	n/a	n/a	n/a	n/a
551.606	n/a	PROB	275803	n/a	LTP075	ltpFR	8	n/a	n/a	n/a	n/a	n/a	n/a	n/a	13	6	6	1	n/a	n/a	n/a	n/a	n/a
552.882	n/a	PROB	276441	n/a	LTP075	ltpFR	8	n/a	n/a	n/a	n/a	n/a	n/a	n/a	9	3	5	1	n/a	n/a	n/a	n/a	n/a
554.148	n/a	PROB	277074	n/a	LTP075	ltpFR	8	n/a	n/a	n/a	n/a	n/a	n/a	n/a	24	9	9	6	n/a	n/a	n/a	n/a	n/a
556.014	n/a	PROB	278007	n/a	LTP075	ltpFR	8	n/a	n/a	n/a	n/a	n/a	n/a	n/a	7	1	3	3	n/a	n/a	n/a	n/a	n/a
557.206	n/a	STOP	278603	n/a	LTP075	ltpFR	8	n/a	n/a	n/a	n/a	n/a	n/a	n/a	n/a	n/a	n/a	n/a	n/a	n/a	n/a	n/a	n/a
560.538	n/a	REC_START	280269	n/a	LTP075	ltpFR	8	1	n/a	n/a	n/a	n/a	n/a	n/a	n/a	0	0	0	n/a	n/a	n/a	n/a	n/a
561.77	n/a	REC_WORD	280885	wordpools/wasnorm_wordpool.txt	LTP075	ltpFR	8	1	1	BOLT	146	n/a	n/a	0	n/a	0	0	0	n/a	n/a	n/a	n/a	n/a
563.056	n/a	REC_WORD	281528	wordpools/wasnorm_wordpool.txt	LTP075	ltpFR	8	1	1	CAPTAIN	239	n/a	n/a	1	n/a	0	0	0	n/a	n/a	n/a	n/a	n/a
564.888	n/a	REC_WORD	282444	wordpools/wasnorm_wordpool.txt	LTP075	ltpFR	8	1	1	MINT	898	n/a	n/a	0	n/a	0	0	0	n/a	n/a	n/a	n/a	n/a
569.458	n/a	REC_WORD	284729	wordpools/wasnorm_wordpool.txt	LTP075	ltpFR	8	1	1	BANDIT	81	n/a	n/a	1	n/a	0	0	0	n/a	n/a	n/a	n/a	n/a
597.484	n/a	REC_WORD	298742	wordpools/wasnorm_wordpool.txt	LTP075	ltpFR	8	1	1	ACID	2	n/a	n/a	0	n/a	0	0	0	n/a	n/a	n/a	n/a	n/a
598.642	n/a	REC_WORD	299321	wordpools/wasnorm_wordpool.txt	LTP075	ltpFR	8	1	1	OUTLAW	989	n/a	n/a	1	n/a	0	0	0	n/a	n/a	n/a	n/a	n/a
641.446	n/a	WORD	320723	wordpools/wasnorm_wordpool.txt	LTP075	ltpFR	8	2	0	BURGLAR	200	n/a	n/a	1	n/a	0	0	0	0.422607421875	0.5869140625	0	lower	zerothre.ttf
645.422	n/a	WORD	322711	wordpools/wasnorm_wordpool.txt	LTP075	ltpFR	8	2	0	WRITER	1627	n/a	n/a	1	n/a	0	0	0	0.422607421875	0.5869140625	0	lower	zerothre.ttf
649.236	n/a	WORD	324618	wordpools/wasnorm_wordpool.txt	LTP075	ltpFR	8	2	0	FOOTBALL	591	n/a	n/a	1	n/a	0	0	0	0.422607421875	0.5869140625	0	lower	zerothre.ttf
653.08	n/a	WORD	326540	wordpools/wasnorm_wordpool.txt	LTP075	ltpFR	8	2	0	BALL	73	n/a	n/a	0	n/a	0	0	0	0.422607421875	0.5869140625	0	lower	zerothre.ttf
657.204	n/a	WORD	328602	wordpools/wasnorm_wordpool.txt	LTP075	ltpFR	8	2	1	AGENT	10	n/a	n/a	1	n/a	0	0	0	0.57763671875	0.412841796875	1	upper	amplitud.ttf
661.362	n/a	WORD	330681	wordpools/wasnorm_wordpool.txt	LTP075	ltpFR	8	2	1	GREASE	660	n/a	n/a	0	n/a	0	0	0	0.57763671875	0.412841796875	1	upper	amplitud.ttf
665.546	n/a	WORD	332773	wordpools/wasnorm_wordpool.txt	LTP075	ltpFR	8	2	1	PILOT	1070	n/a	n/a	1	n/a	0	0	0	0.57763671875	0.412841796875	1	upper	amplitud.ttf
669.396	n/a	WORD	334698	wordpools/wasnorm_wordpool.txt	LTP075	ltpFR	8	2	1	MAGAZINE	853	n/a	n/a	0	n/a	0	0	0	0.57763671875	0.412841796875	1	upper	amplitud.ttf
673.42	n/a	WORD	336710	wordpools/wasnorm_wordpool.txt	LTP075	ltpFR	8	2	1	PUBLICATION	1136	n/a	n/a	0	n/a	0	0	0	0.57763671875	0.412841796875	1	upper	amplitud.ttf
677.386	n/a	WORD	338693	wordpools/wasnorm_wordpool.txt	LTP075	ltpFR	8	2	0	SWATTER	1418	n/a	n/a	n/a	n/a	0	0	0	0.422607421875	0.5869140625	0	lower	zerothre.ttf
680.412	n/a	SLOW_MSG	340206	n/a	LTP075	ltpFR	8	2	n/a	n/a	n/a	n/a	n/a	n/a	n/a	0	0	0	n/a	n/a	n/a	n/a	n/a
683.088	n/a	WORD	341544	wordpools/wasnorm_wordpool.txt	LTP075	ltpFR	8	2	0	TERMITE	1451	n/a	n/a	0	n/a	0	0	0	0.422607421875	0.5869140625	0	lower	zerothre.ttf
687.228	n/a	WORD	343614	wordpools/wasnorm_wordpool.txt	LTP075	ltpFR	8	2	0	POLICE	1098	n/a	n/a	1	n/a	0	0	0	0.422607421875	0.5869140625	0	lower	zerothre.ttf
691.21	n/a	WORD	345605	wordpools/wasnorm_wordpool.txt	LTP075	ltpFR	8	2	0	SIGNATURE	1306	n/a	n/a	0	n/a	0	0	0	0.422607421875	0.5869140625	0	lower	zerothre.ttf
695.218	n/a	WORD	347609	wordpools/wasnorm_wordpool.txt	LTP075	ltpFR	8	2	1	AIRPORT	13	n/a	n/a	0	n/a	0	0	0	0.57763671875	0.412841796875	1	upper	amplitud.ttf
699.336	n/a	WORD	349668	wordpools/wasnorm_wordpool.txt	LTP075	ltpFR	8	2	1	PAIL	1002	n/a	n/a	0	n/a	0	0	0	0.57763671875	0.412841796875	1	upper	amplitud.ttf
703.41	n/a	WORD	351705	wordpools/wasnorm_wordpool.txt	LTP075	ltpFR	8	2	1	HARP	689	n/a	n/a	0	n/a	0	0	0	0.57763671875	0.412841796875	1	upper	amplitud.ttf
706.42	n/a	START	353210	n/a	LTP075	ltpFR	8	n/a	n/a	n/a	n/a	n/a	n/a	n/a	n/a	n/a	n/a	n/a	n/a	n/a	n/a	n/a	n/a
707.578	n/a	PROB	353789	n/a	LTP075	ltpFR	8	n/a	n/a	n/a	n/a	n/a	n/a	n/a	18	5	9	4	n/a	n/a	n/a	n/a	n/a
709.854	n/a	PROB	354927	n/a	LTP075	ltpFR	8	n/a	n/a	n/a	n/a	n/a	n/a	n/a	18	6	6	6	n/a	n/a	n/a	n/a	n/a
711.062	n/a	PROB	355531	n/a	LTP075	ltpFR	8	n/a	n/a	n/a	n/a	n/a	n/a	n/a	21	7	6	8	n/a	n/a	n/a	n/a	n/a
713.118	n/a	STOP	356559	n/a	LTP075	ltpFR	8	n/a	n/a	n/a	n/a	n/a	n/a	n/a	n/a	n/a	n/a	n/a	n/a	n/a	n/a	n/a	n/a
716.286	n/a	REC_START	358143	n/a	LTP075	ltpFR	8	2	n/a	n/a	n/a	n/a	n/a	n/a	n/a	0	0	0	n/a	n/a	n/a	n/a	n/a
717.818	n/a	REC_WORD	358909	wordpools/wasnorm_wordpool.txt	LTP075	ltpFR	8	2	1	PAIL	1002	n/a	n/a	0	n/a	0	0	0	n/a	n/a	n/a	n/a	n/a
719.888	n/a	REC_WORD	359944	wordpools/wasnorm_wordpool.txt	LTP075	ltpFR	8	2	0	FOOTBALL	591	n/a	n/a	1	n/a	0	0	0	n/a	n/a	n/a	n/a	n/a
721.554	n/a	REC_WORD	360777	wordpools/wasnorm_wordpool.txt	LTP075	ltpFR	8	2	0	BALL	73	n/a	n/a	0	n/a	0	0	0	n/a	n/a	n/a	n/a	n/a
723.05	n/a	REC_WORD	361525	wordpools/wasnorm_wordpool.txt	LTP075	ltpFR	8	2	1	PUBLICATION	1136	n/a	n/a	0	n/a	0	0	0	n/a	n/a	n/a	n/a	n/a
725.012	n/a	REC_WORD	362506	wordpools/wasnorm_wordpool.txt	LTP075	ltpFR	8	2	1	MAGAZINE	853	n/a	n/a	0	n/a	0	0	0	n/a	n/a	n/a	n/a	n/a
726.998	n/a	REC_WORD	363499	wordpools/wasnorm_wordpool.txt	LTP075	ltpFR	8	2	0	WRITER	1627	n/a	n/a	1	n/a	0	0	0	n/a	n/a	n/a	n/a	n/a
729.198	n/a	REC_WORD	364599	wordpools/wasnorm_wordpool.txt	LTP075	ltpFR	8	2	1	PILOT	1070	n/a	n/a	1	n/a	0	0	0	n/a	n/a	n/a	n/a	n/a
731.264	n/a	REC_WORD	365632	wordpools/wasnorm_wordpool.txt	LTP075	ltpFR	8	2	0	TERMITE	1451	n/a	n/a	0	n/a	0	0	0	n/a	n/a	n/a	n/a	n/a
795.344	n/a	START	397672	n/a	LTP075	ltpFR	8	n/a	n/a	n/a	n/a	n/a	n/a	n/a	n/a	n/a	n/a	n/a	n/a	n/a	n/a	n/a	n/a
796.85	n/a	PROB	398425	n/a	LTP075	ltpFR	8	n/a	n/a	n/a	n/a	n/a	n/a	n/a	19	6	8	5	n/a	n/a	n/a	n/a	n/a
799.418	n/a	PROB	399709	n/a	LTP075	ltpFR	8	n/a	n/a	n/a	n/a	n/a	n/a	n/a	15	2	8	5	n/a	n/a	n/a	n/a	n/a
800.792	n/a	PROB	400396	n/a	LTP075	ltpFR	8	n/a	n/a	n/a	n/a	n/a	n/a	n/a	16	9	4	3	n/a	n/a	n/a	n/a	n/a
802.428	n/a	STOP	401214	n/a	LTP075	ltpFR	8	n/a	n/a	n/a	n/a	n/a	n/a	n/a	n/a	n/a	n/a	n/a	n/a	n/a	n/a	n/a	n/a
804.182	n/a	WORD	402091	wordpools/wasnorm_wordpool.txt	LTP075	ltpFR	8	3	0	SPIDER	1351	n/a	n/a	0	n/a	0	0	0	0.422607421875	0.5869140625	0	lower	zerothre.ttf
807.192	n/a	START	403596	n/a	LTP075	ltpFR	8	n/a	n/a	n/a	n/a	n/a	n/a	n/a	n/a	n/a	n/a	n/a	n/a	n/a	n/a	n/a	n/a
808.208	n/a	PROB	404104	n/a	LTP075	ltpFR	8	n/a	n/a	n/a	n/a	n/a	n/a	n/a	16	5	5	6	n/a	n/a	n/a	n/a	n/a
809.576	n/a	PROB	404788	n/a	LTP075	ltpFR	8	n/a	n/a	n/a	n/a	n/a	n/a	n/a	24	9	7	8	n/a	n/a	n/a	n/a	n/a
811.242	n/a	PROB	405621	n/a	LTP075	ltpFR	8	n/a	n/a	n/a	n/a	n/a	n/a	n/a	18	7	7	4	n/a	n/a	n/a	n/a	n/a
812.526	n/a	PROB	406263	n/a	LTP075	ltpFR	8	n/a	n/a	n/a	n/a	n/a	n/a	n/a	19	9	7	3	n/a	n/a	n/a	n/a	n/a
815.192	n/a	STOP	407596	n/a	LTP075	ltpFR	8	n/a	n/a	n/a	n/a	n/a	n/a	n/a	n/a	n/a	n/a	n/a	n/a	n/a	n/a	n/a	n/a
816.318	n/a	WORD	408159	wordpools/wasnorm_wordpool.txt	LTP075	ltpFR	8	3	0	ANTEATER	26	n/a	n/a	1	n/a	0	0	0	0.422607421875	0.5869140625	0	lower	zerothre.ttf
819.326	n/a	START	409663	n/a	LTP075	ltpFR	8	n/a	n/a	n/a	n/a	n/a	n/a	n/a	n/a	n/a	n/a	n/a	n/a	n/a	n/a	n/a	n/a
820.326	n/a	PROB	410163	n/a	LTP075	ltpFR	8	n/a	n/a	n/a	n/a	n/a	n/a	n/a	17	9	3	5	n/a	n/a	n/a	n/a	n/a
822.358	n/a	PROB	411179	n/a	LTP075	ltpFR	8	n/a	n/a	n/a	n/a	n/a	n/a	n/a	22	9	4	9	n/a	n/a	n/a	n/a	n/a
824.266	n/a	PROB	412133	n/a	LTP075	ltpFR	8	n/a	n/a	n/a	n/a	n/a	n/a	n/a	17	2	6	9	n/a	n/a	n/a	n/a	n/a
826.036	n/a	STOP	413018	n/a	LTP075	ltpFR	8	n/a	n/a	n/a	n/a	n/a	n/a	n/a	n/a	n/a	n/a	n/a	n/a	n/a	n/a	n/a	n/a
828.25	n/a	WORD	414125	wordpools/wasnorm_wordpool.txt	LTP075	ltpFR	8	3	0	TROUT	1511	n/a	n/a	0	n/a	0	0	0	0.422607421875	0.5869140625	0	lower	zerothre.ttf
831.258	n/a	START	415629	n/a	LTP075	ltpFR	8	n/a	n/a	n/a	n/a	n/a	n/a	n/a	n/a	n/a	n/a	n/a	n/a	n/a	n/a	n/a	n/a
832.45	n/a	PROB	416225	n/a	LTP075	ltpFR	8	n/a	n/a	n/a	n/a	n/a	n/a	n/a	14	2	7	5	n/a	n/a	n/a	n/a	n/a
834.174	n/a	PROB	417087	n/a	LTP075	ltpFR	8	n/a	n/a	n/a	n/a	n/a	n/a	n/a	12	3	6	9	n/a	n/a	n/a	n/a	n/a
835.942	n/a	PROB	417971	n/a	LTP075	ltpFR	8	n/a	n/a	n/a	n/a	n/a	n/a	n/a	7	3	2	2	n/a	n/a	n/a	n/a	n/a
838.414	n/a	STOP	419207	n/a	LTP075	ltpFR	8	n/a	n/a	n/a	n/a	n/a	n/a	n/a	n/a	n/a	n/a	n/a	n/a	n/a	n/a	n/a	n/a
840.108	n/a	WORD	420054	wordpools/wasnorm_wordpool.txt	LTP075	ltpFR	8	3	0	PUB	1135	n/a	n/a	1	n/a	0	0	0	0.422607421875	0.5869140625	0	lower	zerothre.ttf
843.116	n/a	START	421558	n/a	LTP075	ltpFR	8	n/a	n/a	n/a	n/a	n/a	n/a	n/a	n/a	n/a	n/a	n/a	n/a	n/a	n/a	n/a	n/a
844.282	n/a	PROB	422141	n/a	LTP075	ltpFR	8	n/a	n/a	n/a	n/a	n/a	n/a	n/a	19	7	9	3	n/a	n/a	n/a	n/a	n/a
845.774	n/a	PROB	422887	n/a	LTP075	ltpFR	8	n/a	n/a	n/a	n/a	n/a	n/a	n/a	12	6	2	4	n/a	n/a	n/a	n/a	n/a
847.248	n/a	PROB	423624	n/a	LTP075	ltpFR	8	n/a	n/a	n/a	n/a	n/a	n/a	n/a	20	8	4	8	n/a	n/a	n/a	n/a	n/a
851.118	n/a	STOP	425559	n/a	LTP075	ltpFR	8	n/a	n/a	n/a	n/a	n/a	n/a	n/a	n/a	n/a	n/a	n/a	n/a	n/a	n/a	n/a	n/a
852.092	n/a	WORD	426046	wordpools/wasnorm_wordpool.txt	LTP075	ltpFR	8	3	0	PASTA	1021	n/a	n/a	0	n/a	0	0	0	0.422607421875	0.5869140625	0	lower	zerothre.ttf
855.1	n/a	START	427550	n/a	LTP075	ltpFR	8	n/a	n/a	n/a	n/a	n/a	n/a	n/a	n/a	n/a	n/a	n/a	n/a	n/a	n/a	n/a	n/a
856.282	n/a	PROB	428141	n/a	LTP075	ltpFR	8	n/a	n/a	n/a	n/a	n/a	n/a	n/a	22	7	9	6	n/a	n/a	n/a	n/a	n/a
858.574	n/a	PROB	429287	n/a	LTP075	ltpFR	8	n/a	n/a	n/a	n/a	n/a	n/a	n/a	19	4	8	7	n/a	n/a	n/a	n/a	n/a
860.374	n/a	PROB	430187	n/a	LTP075	ltpFR	8	n/a	n/a	n/a	n/a	n/a	n/a	n/a	15	3	4	6	n/a	n/a	n/a	n/a	n/a
861.894	n/a	STOP	430947	n/a	LTP075	ltpFR	8	n/a	n/a	n/a	n/a	n/a	n/a	n/a	n/a	n/a	n/a	n/a	n/a	n/a	n/a	n/a	n/a
864.222	n/a	WORD	432111	wordpools/wasnorm_wordpool.txt	LTP075	ltpFR	8	3	0	LOBBY	836	n/a	n/a	1	n/a	0	0	0	0.422607421875	0.5869140625	0	lower	zerothre.ttf
867.232	n/a	START	433616	n/a	LTP075	ltpFR	8	n/a	n/a	n/a	n/a	n/a	n/a	n/a	n/a	n/a	n/a	n/a	n/a	n/a	n/a	n/a	n/a
868.082	n/a	PROB	434041	n/a	LTP075	ltpFR	8	n/a	n/a	n/a	n/a	n/a	n/a	n/a	19	8	4	7	n/a	n/a	n/a	n/a	n/a
870.432	n/a	PROB	435216	n/a	LTP075	ltpFR	8	n/a	n/a	n/a	n/a	n/a	n/a	n/a	11	1	9	1	n/a	n/a	n/a	n/a	n/a
871.508	n/a	PROB	435754	n/a	LTP075	ltpFR	8	n/a	n/a	n/a	n/a	n/a	n/a	n/a	22	7	7	8	n/a	n/a	n/a	n/a	n/a
873.632	n/a	PROB	436816	n/a	LTP075	ltpFR	8	n/a	n/a	n/a	n/a	n/a	n/a	n/a	13	1	9	3	n/a	n/a	n/a	n/a	n/a
874.84	n/a	STOP	437420	n/a	LTP075	ltpFR	8	n/a	n/a	n/a	n/a	n/a	n/a	n/a	n/a	n/a	n/a	n/a	n/a	n/a	n/a	n/a	n/a
876.44	n/a	WORD	438220	wordpools/wasnorm_wordpool.txt	LTP075	ltpFR	8	3	0	BRANDY	169	n/a	n/a	0	n/a	0	0	0	0.422607421875	0.5869140625	0	lower	zerothre.ttf
879.45	n/a	START	439725	n/a	LTP075	ltpFR	8	n/a	n/a	n/a	n/a	n/a	n/a	n/a	n/a	n/a	n/a	n/a	n/a	n/a	n/a	n/a	n/a
880.382	n/a	PROB	440191	n/a	LTP075	ltpFR	8	n/a	n/a	n/a	n/a	n/a	n/a	n/a	17	9	4	4	n/a	n/a	n/a	n/a	n/a
882.18	n/a	PROB	441090	n/a	LTP075	ltpFR	8	n/a	n/a	n/a	n/a	n/a	n/a	n/a	22	4	9	9	n/a	n/a	n/a	n/a	n/a
884.148	n/a	PROB	442074	n/a	LTP075	ltpFR	8	n/a	n/a	n/a	n/a	n/a	n/a	n/a	19	4	6	9	n/a	n/a	n/a	n/a	n/a
887.448	n/a	STOP	443724	n/a	LTP075	ltpFR	8	n/a	n/a	n/a	n/a	n/a	n/a	n/a	n/a	n/a	n/a	n/a	n/a	n/a	n/a	n/a	n/a
888.656	n/a	WORD	444328	wordpools/wasnorm_wordpool.txt	LTP075	ltpFR	8	3	0	FIN	566	n/a	n/a	0	n/a	0	0	0	0.422607421875	0.5869140625	0	lower	zerothre.ttf
891.666	n/a	START	445833	n/a	LTP075	ltpFR	8	n/a	n/a	n/a	n/a	n/a	n/a	n/a	n/a	n/a	n/a	n/a	n/a	n/a	n/a	n/a	n/a
892.508	n/a	PROB	446254	n/a	LTP075	ltpFR	8	n/a	n/a	n/a	n/a	n/a	n/a	n/a	17	7	9	1	n/a	n/a	n/a	n/a	n/a
893.782	n/a	PROB	446891	n/a	LTP075	ltpFR	8	n/a	n/a	n/a	n/a	n/a	n/a	n/a	17	5	8	5	n/a	n/a	n/a	n/a	n/a
896.432	n/a	PROB	448216	n/a	LTP075	ltpFR	8	n/a	n/a	n/a	n/a	n/a	n/a	n/a	20	8	3	9	n/a	n/a	n/a	n/a	n/a
898.032	n/a	PROB	449016	n/a	LTP075	ltpFR	8	n/a	n/a	n/a	n/a	n/a	n/a	n/a	17	5	4	8	n/a	n/a	n/a	n/a	n/a
899.424	n/a	STOP	449712	n/a	LTP075	ltpFR	8	n/a	n/a	n/a	n/a	n/a	n/a	n/a	n/a	n/a	n/a	n/a	n/a	n/a	n/a	n/a	n/a
900.498	n/a	WORD	450249	wordpools/wasnorm_wordpool.txt	LTP075	ltpFR	8	3	0	CHILD	299	n/a	n/a	0	n/a	0	0	0	0.422607421875	0.5869140625	0	lower	zerothre.ttf
903.506	n/a	START	451753	n/a	LTP075	ltpFR	8	n/a	n/a	n/a	n/a	n/a	n/a	n/a	n/a	n/a	n/a	n/a	n/a	n/a	n/a	n/a	n/a
904.49	n/a	PROB	452245	n/a	LTP075	ltpFR	8	n/a	n/a	n/a	n/a	n/a	n/a	n/a	15	4	3	8	n/a	n/a	n/a	n/a	n/a
907.022	n/a	PROB	453511	n/a	LTP075	ltpFR	8	n/a	n/a	n/a	n/a	n/a	n/a	n/a	18	2	8	8	n/a	n/a	n/a	n/a	n/a
908.13	n/a	PROB	454065	n/a	LTP075	ltpFR	8	n/a	n/a	n/a	n/a	n/a	n/a	n/a	15	7	4	4	n/a	n/a	n/a	n/a	n/a
909.83	n/a	PROB	454915	n/a	LTP075	ltpFR	8	n/a	n/a	n/a	n/a	n/a	n/a	n/a	10	4	4	1	n/a	n/a	n/a	n/a	n/a
911.232	n/a	STOP	455616	n/a	LTP075	ltpFR	8	n/a	n/a	n/a	n/a	n/a	n/a	n/a	n/a	n/a	n/a	n/a	n/a	n/a	n/a	n/a	n/a
912.506	n/a	WORD	456253	wordpools/wasnorm_wordpool.txt	LTP075	ltpFR	8	3	0	PASSAGE	1019	n/a	n/a	1	n/a	0	0	0	0.422607421875	0.5869140625	0	lower	zerothre.ttf
915.516	n/a	START	457758	n/a	LTP075	ltpFR	8	n/a	n/a	n/a	n/a	n/a	n/a	n/a	n/a	n/a	n/a	n/a	n/a	n/a	n/a	n/a	n/a
916.556	n/a	PROB	458278	n/a	LTP075	ltpFR	8	n/a	n/a	n/a	n/a	n/a	n/a	n/a	15	8	3	4	n/a	n/a	n/a	n/a	n/a
917.972	n/a	PROB	458986	n/a	LTP075	ltpFR	8	n/a	n/a	n/a	n/a	n/a	n/a	n/a	19	7	3	9	n/a	n/a	n/a	n/a	n/a
919.298	n/a	PROB	459649	n/a	LTP075	ltpFR	8	n/a	n/a	n/a	n/a	n/a	n/a	n/a	14	9	3	2	n/a	n/a	n/a	n/a	n/a
921.032	n/a	PROB	460516	n/a	LTP075	ltpFR	8	n/a	n/a	n/a	n/a	n/a	n/a	n/a	16	4	7	5	n/a	n/a	n/a	n/a	n/a
922.858	n/a	STOP	461429	n/a	LTP075	ltpFR	8	n/a	n/a	n/a	n/a	n/a	n/a	n/a	n/a	n/a	n/a	n/a	n/a	n/a	n/a	n/a	n/a
924.564	n/a	WORD	462282	wordpools/wasnorm_wordpool.txt	LTP075	ltpFR	8	3	0	OUTDOORS	987	n/a	n/a	1	n/a	0	0	0	0.422607421875	0.5869140625	0	lower	zerothre.ttf
927.572	n/a	START	463786	n/a	LTP075	ltpFR	8	n/a	n/a	n/a	n/a	n/a	n/a	n/a	n/a	n/a	n/a	n/a	n/a	n/a	n/a	n/a	n/a
928.68	n/a	PROB	464340	n/a	LTP075	ltpFR	8	n/a	n/a	n/a	n/a	n/a	n/a	n/a	23	8	7	8	n/a	n/a	n/a	n/a	n/a
931.188	n/a	PROB	465594	n/a	LTP075	ltpFR	8	n/a	n/a	n/a	n/a	n/a	n/a	n/a	14	8	1	5	n/a	n/a	n/a	n/a	n/a
935.574	n/a	STOP	467787	n/a	LTP075	ltpFR	8	n/a	n/a	n/a	n/a	n/a	n/a	n/a	n/a	n/a	n/a	n/a	n/a	n/a	n/a	n/a	n/a
936.622	n/a	WORD	468311	wordpools/wasnorm_wordpool.txt	LTP075	ltpFR	8	3	0	REEF	1177	n/a	n/a	1	n/a	0	0	0	0.422607421875	0.5869140625	0	lower	zerothre.ttf
939.632	n/a	START	469816	n/a	LTP075	ltpFR	8	n/a	n/a	n/a	n/a	n/a	n/a	n/a	n/a	n/a	n/a	n/a	n/a	n/a	n/a	n/a	n/a
940.514	n/a	PROB	470257	n/a	LTP075	ltpFR	8	n/a	n/a	n/a	n/a	n/a	n/a	n/a	14	7	2	5	n/a	n/a	n/a	n/a	n/a
941.798	n/a	PROB	470899	n/a	LTP075	ltpFR	8	n/a	n/a	n/a	n/a	n/a	n/a	n/a	10	4	1	5	n/a	n/a	n/a	n/a	n/a
943.23	n/a	PROB	471615	n/a	LTP075	ltpFR	8	n/a	n/a	n/a	n/a	n/a	n/a	n/a	16	9	5	2	n/a	n/a	n/a	n/a	n/a
945.038	n/a	PROB	472519	n/a	LTP075	ltpFR	8	n/a	n/a	n/a	n/a	n/a	n/a	n/a	14	3	2	9	n/a	n/a	n/a	n/a	n/a
946.41	n/a	STOP	473205	n/a	LTP075	ltpFR	8	n/a	n/a	n/a	n/a	n/a	n/a	n/a	n/a	n/a	n/a	n/a	n/a	n/a	n/a	n/a	n/a
948.756	n/a	WORD	474378	wordpools/wasnorm_wordpool.txt	LTP075	ltpFR	8	3	0	CASHEW	253	n/a	n/a	0	n/a	0	0	0	0.422607421875	0.5869140625	0	lower	zerothre.ttf
951.764	n/a	START	475882	n/a	LTP075	ltpFR	8	n/a	n/a	n/a	n/a	n/a	n/a	n/a	n/a	n/a	n/a	n/a	n/a	n/a	n/a	n/a	n/a
952.698	n/a	PROB	476349	n/a	LTP075	ltpFR	8	n/a	n/a	n/a	n/a	n/a	n/a	n/a	8	2	3	3	n/a	n/a	n/a	n/a	n/a
954.138	n/a	PROB	477069	n/a	LTP075	ltpFR	8	n/a	n/a	n/a	n/a	n/a	n/a	n/a	1	7	5	6	n/a	n/a	n/a	n/a	n/a
956.606	n/a	PROB	478303	n/a	LTP075	ltpFR	8	n/a	n/a	n/a	n/a	n/a	n/a	n/a	24	8	8	8	n/a	n/a	n/a	n/a	n/a
959.764	n/a	STOP	479882	n/a	LTP075	ltpFR	8	n/a	n/a	n/a	n/a	n/a	n/a	n/a	n/a	n/a	n/a	n/a	n/a	n/a	n/a	n/a	n/a
960.722	n/a	WORD	480361	wordpools/wasnorm_wordpool.txt	LTP075	ltpFR	8	3	0	PEANUT	1032	n/a	n/a	0	n/a	0	0	0	0.422607421875	0.5869140625	0	lower	zerothre.ttf
963.73	n/a	START	481865	n/a	LTP075	ltpFR	8	n/a	n/a	n/a	n/a	n/a	n/a	n/a	n/a	n/a	n/a	n/a	n/a	n/a	n/a	n/a	n/a
964.564	n/a	PROB	482282	n/a	LTP075	ltpFR	8	n/a	n/a	n/a	n/a	n/a	n/a	n/a	21	8	8	5	n/a	n/a	n/a	n/a	n/a
965.972	n/a	PROB	482986	n/a	LTP075	ltpFR	8	n/a	n/a	n/a	n/a	n/a	n/a	n/a	13	4	1	8	n/a	n/a	n/a	n/a	n/a
967.454	n/a	PROB	483727	n/a	LTP075	ltpFR	8	n/a	n/a	n/a	n/a	n/a	n/a	n/a	11	6	4	1	n/a	n/a	n/a	n/a	n/a
968.546	n/a	PROB	484273	n/a	LTP075	ltpFR	8	n/a	n/a	n/a	n/a	n/a	n/a	n/a	19	6	9	4	n/a	n/a	n/a	n/a	n/a
970.292	n/a	STOP	485146	n/a	LTP075	ltpFR	8	n/a	n/a	n/a	n/a	n/a	n/a	n/a	n/a	n/a	n/a	n/a	n/a	n/a	n/a	n/a	n/a
972.906	n/a	WORD	486453	wordpools/wasnorm_wordpool.txt	LTP075	ltpFR	8	3	0	SHORTS	1293	n/a	n/a	0	n/a	0	0	0	0.422607421875	0.5869140625	0	lower	zerothre.ttf
975.914	n/a	START	487957	n/a	LTP075	ltpFR	8	n/a	n/a	n/a	n/a	n/a	n/a	n/a	n/a	n/a	n/a	n/a	n/a	n/a	n/a	n/a	n/a
976.822	n/a	PROB	488411	n/a	LTP075	ltpFR	8	n/a	n/a	n/a	n/a	n/a	n/a	n/a	13	5	5	3	n/a	n/a	n/a	n/a	n/a
977.954	n/a	PROB	488977	n/a	LTP075	ltpFR	8	n/a	n/a	n/a	n/a	n/a	n/a	n/a	11	1	3	7	n/a	n/a	n/a	n/a	n/a
979.114	n/a	PROB	489557	n/a	LTP075	ltpFR	8	n/a	n/a	n/a	n/a	n/a	n/a	n/a	14	4	9	1	n/a	n/a	n/a	n/a	n/a
983.914	n/a	STOP	491957	n/a	LTP075	ltpFR	8	n/a	n/a	n/a	n/a	n/a	n/a	n/a	n/a	n/a	n/a	n/a	n/a	n/a	n/a	n/a	n/a
984.78	n/a	WORD	492390	wordpools/wasnorm_wordpool.txt	LTP075	ltpFR	8	3	0	BELT	120	n/a	n/a	0	n/a	0	0	0	0.422607421875	0.5869140625	0	lower	zerothre.ttf
987.788	n/a	START	493894	n/a	LTP075	ltpFR	8	n/a	n/a	n/a	n/a	n/a	n/a	n/a	n/a	n/a	n/a	n/a	n/a	n/a	n/a	n/a	n/a
988.838	n/a	PROB	494419	n/a	LTP075	ltpFR	8	n/a	n/a	n/a	n/a	n/a	n/a	n/a	14	6	7	1	n/a	n/a	n/a	n/a	n/a
990.612	n/a	PROB	495306	n/a	LTP075	ltpFR	8	n/a	n/a	n/a	n/a	n/a	n/a	n/a	7	3	2	2	n/a	n/a	n/a	n/a	n/a
991.862	n/a	PROB	495931	n/a	LTP075	ltpFR	8	n/a	n/a	n/a	n/a	n/a	n/a	n/a	9	4	1	4	n/a	n/a	n/a	n/a	n/a
993.278	n/a	PROB	496639	n/a	LTP075	ltpFR	8	n/a	n/a	n/a	n/a	n/a	n/a	n/a	17	9	5	3	n/a	n/a	n/a	n/a	n/a
995.406	n/a	STOP	497703	n/a	LTP075	ltpFR	8	n/a	n/a	n/a	n/a	n/a	n/a	n/a	n/a	n/a	n/a	n/a	n/a	n/a	n/a	n/a	n/a
997.606	n/a	REC_START	498803	n/a	LTP075	ltpFR	8	3	n/a	n/a	n/a	n/a	n/a	n/a	n/a	0	0	0	n/a	n/a	n/a	n/a	n/a
998.548	n/a	REC_WORD	499274	wordpools/wasnorm_wordpool.txt	LTP075	ltpFR	8	3	0	BELT	120	n/a	n/a	0	n/a	0	0	0	n/a	n/a	n/a	n/a	n/a
999.52	n/a	REC_WORD	499760	wordpools/wasnorm_wordpool.txt	LTP075	ltpFR	8	3	0	CASHEW	253	n/a	n/a	0	n/a	0	0	0	n/a	n/a	n/a	n/a	n/a
1001.218	n/a	REC_WORD	500609	wordpools/wasnorm_wordpool.txt	LTP075	ltpFR	8	3	0	PEANUT	1032	n/a	n/a	0	n/a	0	0	0	n/a	n/a	n/a	n/a	n/a
1002.4	n/a	REC_WORD	501200	wordpools/wasnorm_wordpool.txt	LTP075	ltpFR	8	3	0	TROUT	1511	n/a	n/a	0	n/a	0	0	0	n/a	n/a	n/a	n/a	n/a
1004.29	n/a	REC_WORD	502145	wordpools/wasnorm_wordpool.txt	LTP075	ltpFR	8	3	0	ANTEATER	26	n/a	n/a	1	n/a	0	0	0	n/a	n/a	n/a	n/a	n/a
1006.496	n/a	REC_WORD	503248	wordpools/wasnorm_wordpool.txt	LTP075	ltpFR	8	3	0	OUTDOORS	987	n/a	n/a	1	n/a	0	0	0	n/a	n/a	n/a	n/a	n/a
1007.828	n/a	REC_WORD	503914	wordpools/wasnorm_wordpool.txt	LTP075	ltpFR	8	3	0	SHORTS	1293	n/a	n/a	0	n/a	0	0	0	n/a	n/a	n/a	n/a	n/a
1012.018	n/a	REC_WORD	506009	wordpools/wasnorm_wordpool.txt	LTP075	ltpFR	8	3	0	CHILD	299	n/a	n/a	0	n/a	0	0	0	n/a	n/a	n/a	n/a	n/a
1084.21	n/a	WORD	542105	wordpools/wasnorm_wordpool.txt	LTP075	ltpFR	8	4	0	DISH	474	n/a	n/a	0	n/a	0	0	0	0.422607421875	0.5869140625	0	lower	zerothre.ttf
1088.368	n/a	WORD	544184	wordpools/wasnorm_wordpool.txt	LTP075	ltpFR	8	4	0	CHEST	295	n/a	n/a	1	n/a	0	0	0	0.422607421875	0.5869140625	0	lower	zerothre.ttf
1092.242	n/a	WORD	546121	wordpools/wasnorm_wordpool.txt	LTP075	ltpFR	8	4	0	SEA	1259	n/a	n/a	1	n/a	0	0	0	0.422607421875	0.5869140625	0	lower	zerothre.ttf
1096.402	n/a	WORD	548201	wordpools/wasnorm_wordpool.txt	LTP075	ltpFR	8	4	0	ROBBER	1197	n/a	n/a	1	n/a	0	0	0	0.422607421875	0.5869140625	0	lower	zerothre.ttf
1100.26	n/a	WORD	550130	wordpools/wasnorm_wordpool.txt	LTP075	ltpFR	8	4	0	FUGITIVE	612	n/a	n/a	1	n/a	0	0	0	0.422607421875	0.5869140625	0	lower	zerothre.ttf
1104.394	n/a	WORD	552197	wordpools/wasnorm_wordpool.txt	LTP075	ltpFR	8	4	0	STADIUM	1364	n/a	n/a	1	n/a	0	0	0	0.422607421875	0.5869140625	0	lower	zerothre.ttf
1108.234	n/a	WORD	554117	wordpools/wasnorm_wordpool.txt	LTP075	ltpFR	8	4	0	ARENA	37	n/a	n/a	1	n/a	0	0	0	0.422607421875	0.5869140625	0	lower	zerothre.ttf
1112.276	n/a	WORD	556138	wordpools/wasnorm_wordpool.txt	LTP075	ltpFR	8	4	0	QUILL	1150	n/a	n/a	1	n/a	0	0	0	0.422607421875	0.5869140625	0	lower	zerothre.ttf
1116.384	n/a	WORD	558192	wordpools/wasnorm_wordpool.txt	LTP075	ltpFR	8	4	0	SHORE	1291	n/a	n/a	1	n/a	0	0	0	0.422607421875	0.5869140625	0	lower	zerothre.ttf
1120.484	n/a	WORD	560242	wordpools/wasnorm_wordpool.txt	LTP075	ltpFR	8	4	0	CHEERLEADER	288	n/a	n/a	1	n/a	0	0	0	0.422607421875	0.5869140625	0	lower	zerothre.ttf
1124.46	n/a	WORD	562230	wordpools/wasnorm_wordpool.txt	LTP075	ltpFR	8	4	0	PLUM	1090	n/a	n/a	0	n/a	0	0	0	0.422607421875	0.5869140625	0	lower	zerothre.ttf
1128.568	n/a	WORD	564284	wordpools/wasnorm_wordpool.txt	LTP075	ltpFR	8	4	0	WASHCLOTH	1591	n/a	n/a	0	n/a	0	0	0	0.422607421875	0.5869140625	0	lower	zerothre.ttf
1132.434	n/a	WORD	566217	wordpools/wasnorm_wordpool.txt	LTP075	ltpFR	8	4	0	RACCOON	1153	n/a	n/a	0	n/a	0	0	0	0.422607421875	0.5869140625	0	lower	zerothre.ttf
1136.376	n/a	WORD	568188	wordpools/wasnorm_wordpool.txt	LTP075	ltpFR	8	4	0	STEM	1376	n/a	n/a	0	n/a	0	0	0	0.422607421875	0.5869140625	0	lower	zerothre.ttf
1140.36	n/a	WORD	570180	wordpools/wasnorm_wordpool.txt	LTP075	ltpFR	8	4	0	BUBBLE	183	n/a	n/a	0	n/a	0	0	0	0.422607421875	0.5869140625	0	lower	zerothre.ttf
1144.266	n/a	WORD	572133	wordpools/wasnorm_wordpool.txt	LTP075	ltpFR	8	4	0	SPIT	1354	n/a	n/a	0	n/a	0	0	0	0.422607421875	0.5869140625	0	lower	zerothre.ttf
1149.868	n/a	REC_START	574934	n/a	LTP075	ltpFR	8	4	n/a	n/a	n/a	n/a	n/a	n/a	n/a	0	0	0	n/a	n/a	n/a	n/a	n/a
1150.73	n/a	REC_WORD	575365	wordpools/wasnorm_wordpool.txt	LTP075	ltpFR	8	4	0	SPIT	1354	n/a	n/a	0	n/a	0	0	0	n/a	n/a	n/a	n/a	n/a
1152.018	n/a	REC_WORD	576009	wordpools/wasnorm_wordpool.txt	LTP075	ltpFR	8	4	0	BUBBLE	183	n/a	n/a	0	n/a	0	0	0	n/a	n/a	n/a	n/a	n/a
1153.414	n/a	REC_WORD	576707	wordpools/wasnorm_wordpool.txt	LTP075	ltpFR	8	4	0	RACCOON	1153	n/a	n/a	0	n/a	0	0	0	n/a	n/a	n/a	n/a	n/a
1155.096	n/a	REC_WORD	577548	wordpools/wasnorm_wordpool.txt	LTP075	ltpFR	8	4	0	ARENA	37	n/a	n/a	1	n/a	0	0	0	n/a	n/a	n/a	n/a	n/a
1156.248	n/a	REC_WORD	578124	wordpools/wasnorm_wordpool.txt	LTP075	ltpFR	8	4	0	STADIUM	1364	n/a	n/a	1	n/a	0	0	0	n/a	n/a	n/a	n/a	n/a
1158.388	n/a	REC_WORD	579194	wordpools/wasnorm_wordpool.txt	LTP075	ltpFR	8	4	0	CHEERLEADER	288	n/a	n/a	1	n/a	0	0	0	n/a	n/a	n/a	n/a	n/a
1160.49	n/a	REC_WORD	580245	wordpools/wasnorm_wordpool.txt	LTP075	ltpFR	8	4	0	PLUM	1090	n/a	n/a	0	n/a	0	0	0	n/a	n/a	n/a	n/a	n/a
1164.944	n/a	REC_WORD	582472	wordpools/wasnorm_wordpool.txt	LTP075	ltpFR	8	4	0	QUILL	1150	n/a	n/a	1	n/a	0	0	0	n/a	n/a	n/a	n/a	n/a
1220.486	n/a	REC_WORD	610243	wordpools/wasnorm_wordpool.txt	LTP075	ltpFR	8	4	0	ROBBER	1197	n/a	n/a	1	n/a	0	0	0	n/a	n/a	n/a	n/a	n/a
1233.04	n/a	WORD	616520	wordpools/wasnorm_wordpool.txt	LTP075	ltpFR	8	5	0	PUPPY	1144	n/a	n/a	0	n/a	0	0	0	0.422607421875	0.5869140625	0	lower	zerothre.ttf
1237.132	n/a	WORD	618566	wordpools/wasnorm_wordpool.txt	LTP075	ltpFR	8	5	0	COMMITTEE	355	n/a	n/a	1	n/a	0	0	0	0.422607421875	0.5869140625	0	lower	zerothre.ttf
1241.124	n/a	WORD	620562	wordpools/wasnorm_wordpool.txt	LTP075	ltpFR	8	5	0	CROSS	413	n/a	n/a	0	n/a	0	0	0	0.422607421875	0.5869140625	0	lower	zerothre.ttf
1245.106	n/a	WORD	622553	wordpools/wasnorm_wordpool.txt	LTP075	ltpFR	8	5	0	CONCERT	360	n/a	n/a	1	n/a	0	0	0	0.422607421875	0.5869140625	0	lower	zerothre.ttf
1249.164	n/a	WORD	624582	wordpools/wasnorm_wordpool.txt	LTP075	ltpFR	8	5	0	PLANT	1083	n/a	n/a	0	n/a	0	0	0	0.422607421875	0.5869140625	0	lower	zerothre.ttf
1253.214	n/a	WORD	626607	wordpools/wasnorm_wordpool.txt	LTP075	ltpFR	8	5	0	GRASS	655	n/a	n/a	0	n/a	0	0	0	0.422607421875	0.5869140625	0	lower	zerothre.ttf
1257.196	n/a	WORD	628598	wordpools/wasnorm_wordpool.txt	LTP075	ltpFR	8	5	1	PICK	1058	n/a	n/a	0	n/a	0	0	0	0.57763671875	0.412841796875	1	upper	amplitud.ttf
1261.172	n/a	WORD	630586	wordpools/wasnorm_wordpool.txt	LTP075	ltpFR	8	5	1	GHETTO	633	n/a	n/a	0	n/a	0	0	0	0.57763671875	0.412841796875	1	upper	amplitud.ttf
1265.256	n/a	WORD	632628	wordpools/wasnorm_wordpool.txt	LTP075	ltpFR	8	5	1	PEPPER	1047	n/a	n/a	0	n/a	0	0	0	0.57763671875	0.412841796875	1	upper	amplitud.ttf
1269.406	n/a	WORD	634703	wordpools/wasnorm_wordpool.txt	LTP075	ltpFR	8	5	1	WINGS	1614	n/a	n/a	0	n/a	0	0	0	0.57763671875	0.412841796875	1	upper	amplitud.ttf
1273.422	n/a	WORD	636711	wordpools/wasnorm_wordpool.txt	LTP075	ltpFR	8	5	0	CROW	414	n/a	n/a	0	n/a	0	0	0	0.422607421875	0.5869140625	0	lower	zerothre.ttf
1277.564	n/a	WORD	638782	wordpools/wasnorm_wordpool.txt	LTP075	ltpFR	8	5	0	TUB	1514	n/a	n/a	0	n/a	0	0	0	0.422607421875	0.5869140625	0	lower	zerothre.ttf
1281.538	n/a	WORD	640769	wordpools/wasnorm_wordpool.txt	LTP075	ltpFR	8	5	1	TOWEL	1489	n/a	n/a	0	n/a	0	0	0	0.57763671875	0.412841796875	1	upper	amplitud.ttf
1285.414	n/a	WORD	642707	wordpools/wasnorm_wordpool.txt	LTP075	ltpFR	8	5	1	CATCHER	258	n/a	n/a	1	n/a	0	0	0	0.57763671875	0.412841796875	1	upper	amplitud.ttf
1289.338	n/a	WORD	644669	wordpools/wasnorm_wordpool.txt	LTP075	ltpFR	8	5	1	PRODUCER	1129	n/a	n/a	1	n/a	0	0	0	0.57763671875	0.412841796875	1	upper	amplitud.ttf
1293.38	n/a	WORD	646690	wordpools/wasnorm_wordpool.txt	LTP075	ltpFR	8	5	1	FIDDLE	561	n/a	n/a	0	n/a	0	0	0	0.57763671875	0.412841796875	1	upper	amplitud.ttf
1296.388	n/a	START	648194	n/a	LTP075	ltpFR	8	n/a	n/a	n/a	n/a	n/a	n/a	n/a	n/a	n/a	n/a	n/a	n/a	n/a	n/a	n/a	n/a
1297.422	n/a	PROB	648711	n/a	LTP075	ltpFR	8	n/a	n/a	n/a	n/a	n/a	n/a	n/a	12	6	3	3	n/a	n/a	n/a	n/a	n/a
1299.064	n/a	PROB	649532	n/a	LTP075	ltpFR	8	n/a	n/a	n/a	n/a	n/a	n/a	n/a	12	7	1	4	n/a	n/a	n/a	n/a	n/a
1300.338	n/a	PROB	650169	n/a	LTP075	ltpFR	8	n/a	n/a	n/a	n/a	n/a	n/a	n/a	6	1	2	3	n/a	n/a	n/a	n/a	n/a
1301.546	n/a	PROB	650773	n/a	LTP075	ltpFR	8	n/a	n/a	n/a	n/a	n/a	n/a	n/a	9	5	2	2	n/a	n/a	n/a	n/a	n/a
1302.94	n/a	STOP	651470	n/a	LTP075	ltpFR	8	n/a	n/a	n/a	n/a	n/a	n/a	n/a	n/a	n/a	n/a	n/a	n/a	n/a	n/a	n/a	n/a
1306.146	n/a	REC_START	653073	n/a	LTP075	ltpFR	8	5	n/a	n/a	n/a	n/a	n/a	n/a	n/a	0	0	0	n/a	n/a	n/a	n/a	n/a
1307.652	n/a	REC_WORD	653826	wordpools/wasnorm_wordpool.txt	LTP075	ltpFR	8	5	1	PRODUCER	1129	n/a	n/a	1	n/a	0	0	0	n/a	n/a	n/a	n/a	n/a
1309.734	n/a	REC_WORD	654867	wordpools/wasnorm_wordpool.txt	LTP075	ltpFR	8	5	1	FIDDLE	561	n/a	n/a	0	n/a	0	0	0	n/a	n/a	n/a	n/a	n/a
1311.984	n/a	REC_WORD	655992	wordpools/wasnorm_wordpool.txt	LTP075	ltpFR	8	5	0	PLANT	1083	n/a	n/a	0	n/a	0	0	0	n/a	n/a	n/a	n/a	n/a
1314.018	n/a	REC_WORD	657009	wordpools/wasnorm_wordpool.txt	LTP075	ltpFR	8	5	1	PEPPER	1047	n/a	n/a	0	n/a	0	0	0	n/a	n/a	n/a	n/a	n/a
1316.294	n/a	REC_WORD	658147	wordpools/wasnorm_wordpool.txt	LTP075	ltpFR	8	5	1	CATCHER	258	n/a	n/a	1	n/a	0	0	0	n/a	n/a	n/a	n/a	n/a
1321.586	n/a	REC_WORD	660793	wordpools/wasnorm_wordpool.txt	LTP075	ltpFR	8	5	0	CONCERT	360	n/a	n/a	1	n/a	0	0	0	n/a	n/a	n/a	n/a	n/a
1322.814	n/a	REC_WORD	661407	wordpools/wasnorm_wordpool.txt	LTP075	ltpFR	8	5	0	CROSS	413	n/a	n/a	0	n/a	0	0	0	n/a	n/a	n/a	n/a	n/a
1335.306	n/a	REC_WORD	667653	wordpools/wasnorm_wordpool.txt	LTP075	ltpFR	8	5	0	GRASS	655	n/a	n/a	0	n/a	0	0	0	n/a	n/a	n/a	n/a	n/a
1339.91	n/a	REC_WORD	669955	wordpools/wasnorm_wordpool.txt	LTP075	ltpFR	8	5	0	PLANT	1083	n/a	n/a	0	n/a	0	0	0	n/a	n/a	n/a	n/a	n/a
1386.836	n/a	WORD	693418	wordpools/wasnorm_wordpool.txt	LTP075	ltpFR	8	6	0	BULLET	194	n/a	n/a	0	n/a	0	0	0	0.422607421875	0.5869140625	0	lower	zerothre.ttf
1390.712	n/a	WORD	695356	wordpools/wasnorm_wordpool.txt	LTP075	ltpFR	8	6	0	CARDINAL	244	n/a	n/a	0	n/a	0	0	0	0.422607421875	0.5869140625	0	lower	zerothre.ttf
1394.862	n/a	WORD	697431	wordpools/wasnorm_wordpool.txt	LTP075	ltpFR	8	6	0	MINER	896	n/a	n/a	1	n/a	0	0	0	0.422607421875	0.5869140625	0	lower	zerothre.ttf
1399.002	n/a	WORD	699501	wordpools/wasnorm_wordpool.txt	LTP075	ltpFR	8	6	0	MEDAL	885	n/a	n/a	0	n/a	0	0	0	0.422607421875	0.5869140625	0	lower	zerothre.ttf
1403.002	n/a	WORD	701501	wordpools/wasnorm_wordpool.txt	LTP075	ltpFR	8	6	1	BULL	193	n/a	n/a	1	n/a	0	0	0	0.57763671875	0.412841796875	1	upper	amplitud.ttf
1406.912	n/a	WORD	703456	wordpools/wasnorm_wordpool.txt	LTP075	ltpFR	8	6	1	ESCALATOR	539	n/a	n/a	0	n/a	0	0	0	0.57763671875	0.412841796875	1	upper	amplitud.ttf
1410.96	n/a	WORD	705480	wordpools/wasnorm_wordpool.txt	LTP075	ltpFR	8	6	1	TOURIST	1488	n/a	n/a	1	n/a	0	0	0	0.57763671875	0.412841796875	1	upper	amplitud.ttf
1414.986	n/a	WORD	707493	wordpools/wasnorm_wordpool.txt	LTP075	ltpFR	8	6	1	CATHEDRAL	260	n/a	n/a	0	n/a	0	0	0	0.57763671875	0.412841796875	1	upper	amplitud.ttf
1418.918	n/a	WORD	709459	wordpools/wasnorm_wordpool.txt	LTP075	ltpFR	8	6	1	ASSISTANT	48	n/a	n/a	1	n/a	0	0	0	0.57763671875	0.412841796875	1	upper	amplitud.ttf
1422.844	n/a	WORD	711422	wordpools/wasnorm_wordpool.txt	LTP075	ltpFR	8	6	1	OUTFIT	988	n/a	n/a	0	n/a	0	0	0	0.57763671875	0.412841796875	1	upper	amplitud.ttf
1426.694	n/a	WORD	713347	wordpools/wasnorm_wordpool.txt	LTP075	ltpFR	8	6	0	RANCH	1166	n/a	n/a	0	n/a	0	0	0	0.422607421875	0.5869140625	0	lower	zerothre.ttf
1430.768	n/a	WORD	715384	wordpools/wasnorm_wordpool.txt	LTP075	ltpFR	8	6	0	JOINT	758	n/a	n/a	0	n/a	0	0	0	0.422607421875	0.5869140625	0	lower	zerothre.ttf
1434.836	n/a	WORD	717418	wordpools/wasnorm_wordpool.txt	LTP075	ltpFR	8	6	1	APPENDAGE	32	n/a	n/a	0	n/a	0	0	0	0.57763671875	0.412841796875	1	upper	amplitud.ttf
1438.718	n/a	WORD	719359	wordpools/wasnorm_wordpool.txt	LTP075	ltpFR	8	6	1	DRESSER	496	n/a	n/a	0	n/a	0	0	0	0.57763671875	0.412841796875	1	upper	amplitud.ttf
1442.568	n/a	WORD	721284	wordpools/wasnorm_wordpool.txt	LTP075	ltpFR	8	6	0	BARREL	91	n/a	n/a	1	n/a	0	0	0	0.422607421875	0.5869140625	0	lower	zerothre.ttf
1446.41	n/a	WORD	723205	wordpools/wasnorm_wordpool.txt	LTP075	ltpFR	8	6	0	PUDDLE	1140	n/a	n/a	0	n/a	0	0	0	0.422607421875	0.5869140625	0	lower	zerothre.ttf
1449.418	n/a	START	724709	n/a	LTP075	ltpFR	8	n/a	n/a	n/a	n/a	n/a	n/a	n/a	n/a	n/a	n/a	n/a	n/a	n/a	n/a	n/a	n/a
1450.568	n/a	PROB	725284	n/a	LTP075	ltpFR	8	n/a	n/a	n/a	n/a	n/a	n/a	n/a	18	8	7	3	n/a	n/a	n/a	n/a	n/a
1452.644	n/a	PROB	726322	n/a	LTP075	ltpFR	8	n/a	n/a	n/a	n/a	n/a	n/a	n/a	15	7	7	1	n/a	n/a	n/a	n/a	n/a
1454.318	n/a	PROB	727159	n/a	LTP075	ltpFR	8	n/a	n/a	n/a	n/a	n/a	n/a	n/a	13	5	3	5	n/a	n/a	n/a	n/a	n/a
1456.092	n/a	PROB	728046	n/a	LTP075	ltpFR	8	n/a	n/a	n/a	n/a	n/a	n/a	n/a	14	6	7	1	n/a	n/a	n/a	n/a	n/a
1458.158	n/a	PROB	729079	n/a	LTP075	ltpFR	8	n/a	n/a	n/a	n/a	n/a	n/a	n/a	16	2	5	9	n/a	n/a	n/a	n/a	n/a
1460.402	n/a	PROB	730201	n/a	LTP075	ltpFR	8	n/a	n/a	n/a	n/a	n/a	n/a	n/a	15	3	3	9	n/a	n/a	n/a	n/a	n/a
1461.976	n/a	PROB	730988	n/a	LTP075	ltpFR	8	n/a	n/a	n/a	n/a	n/a	n/a	n/a	18	9	6	3	n/a	n/a	n/a	n/a	n/a
1463.584	n/a	PROB	731792	n/a	LTP075	ltpFR	8	n/a	n/a	n/a	n/a	n/a	n/a	n/a	7	2	2	3	n/a	n/a	n/a	n/a	n/a
1464.812	n/a	STOP	732406	n/a	LTP075	ltpFR	8	n/a	n/a	n/a	n/a	n/a	n/a	n/a	n/a	n/a	n/a	n/a	n/a	n/a	n/a	n/a	n/a
1467.326	n/a	REC_START	733663	n/a	LTP075	ltpFR	8	6	n/a	n/a	n/a	n/a	n/a	n/a	n/a	0	0	0	n/a	n/a	n/a	n/a	n/a
1469.064	n/a	REC_WORD	734532	wordpools/wasnorm_wordpool.txt	LTP075	ltpFR	8	6	n/a	POND	1101	n/a	n/a	n/a	n/a	0	0	0	n/a	n/a	n/a	n/a	n/a
1475.27	n/a	REC_WORD	737635	wordpools/wasnorm_wordpool.txt	LTP075	ltpFR	8	6	1	ASSISTANT	48	n/a	n/a	1	n/a	0	0	0	n/a	n/a	n/a	n/a	n/a
1479.414	n/a	REC_WORD	739707	wordpools/wasnorm_wordpool.txt	LTP075	ltpFR	8	6	0	PUDDLE	1140	n/a	n/a	0	n/a	0	0	0	n/a	n/a	n/a	n/a	n/a
1482.672	n/a	REC_WORD	741336	wordpools/wasnorm_wordpool.txt	LTP075	ltpFR	8	6	1	WINGS	1614	n/a	n/a	0	n/a	0	0	0	n/a	n/a	n/a	n/a	n/a
1511.854	n/a	REC_WORD	755927	wordpools/wasnorm_wordpool.txt	LTP075	ltpFR	8	6	0	BARREL	91	n/a	n/a	1	n/a	0	0	0	n/a	n/a	n/a	n/a	n/a
1549.124	n/a	START	774562	n/a	LTP075	ltpFR	8	n/a	n/a	n/a	n/a	n/a	n/a	n/a	n/a	n/a	n/a	n/a	n/a	n/a	n/a	n/a	n/a
1550.632	n/a	PROB	775316	n/a	LTP075	ltpFR	8	n/a	n/a	n/a	n/a	n/a	n/a	n/a	25	9	9	7	n/a	n/a	n/a	n/a	n/a
1552.332	n/a	PROB	776166	n/a	LTP075	ltpFR	8	n/a	n/a	n/a	n/a	n/a	n/a	n/a	19	4	2	3	n/a	n/a	n/a	n/a	n/a
1555.008	n/a	PROB	777504	n/a	LTP075	ltpFR	8	n/a	n/a	n/a	n/a	n/a	n/a	n/a	12	3	5	4	n/a	n/a	n/a	n/a	n/a
1556.882	n/a	PROB	778441	n/a	LTP075	ltpFR	8	n/a	n/a	n/a	n/a	n/a	n/a	n/a	15	4	2	9	n/a	n/a	n/a	n/a	n/a
1558.34	n/a	PROB	779170	n/a	LTP075	ltpFR	8	n/a	n/a	n/a	n/a	n/a	n/a	n/a	13	7	4	2	n/a	n/a	n/a	n/a	n/a
1560.282	n/a	PROB	780141	n/a	LTP075	ltpFR	8	n/a	n/a	n/a	n/a	n/a	n/a	n/a	18	6	5	7	n/a	n/a	n/a	n/a	n/a
1561.898	n/a	PROB	780949	n/a	LTP075	ltpFR	8	n/a	n/a	n/a	n/a	n/a	n/a	n/a	9	5	2	2	n/a	n/a	n/a	n/a	n/a
1563.172	n/a	PROB	781586	n/a	LTP075	ltpFR	8	n/a	n/a	n/a	n/a	n/a	n/a	n/a	7	4	1	2	n/a	n/a	n/a	n/a	n/a
1564.432	n/a	STOP	782216	n/a	LTP075	ltpFR	8	n/a	n/a	n/a	n/a	n/a	n/a	n/a	n/a	n/a	n/a	n/a	n/a	n/a	n/a	n/a	n/a
1566.048	n/a	WORD	783024	wordpools/wasnorm_wordpool.txt	LTP075	ltpFR	8	7	1	SQUID	1361	n/a	n/a	1	n/a	0	0	0	0.57763671875	0.412841796875	1	upper	amplitud.ttf
1569.056	n/a	START	784528	n/a	LTP075	ltpFR	8	n/a	n/a	n/a	n/a	n/a	n/a	n/a	n/a	n/a	n/a	n/a	n/a	n/a	n/a	n/a	n/a
1570.072	n/a	PROB	785036	n/a	LTP075	ltpFR	8	n/a	n/a	n/a	n/a	n/a	n/a	n/a	18	4	9	5	n/a	n/a	n/a	n/a	n/a
1572.248	n/a	PROB	786124	n/a	LTP075	ltpFR	8	n/a	n/a	n/a	n/a	n/a	n/a	n/a	17	4	4	9	n/a	n/a	n/a	n/a	n/a
1574.048	n/a	PROB	787024	n/a	LTP075	ltpFR	8	n/a	n/a	n/a	n/a	n/a	n/a	n/a	14	1	8	5	n/a	n/a	n/a	n/a	n/a
1576.566	n/a	PROB	788283	n/a	LTP075	ltpFR	8	n/a	n/a	n/a	n/a	n/a	n/a	n/a	8	3	2	3	n/a	n/a	n/a	n/a	n/a
1577.882	n/a	PROB	788941	n/a	LTP075	ltpFR	8	n/a	n/a	n/a	n/a	n/a	n/a	n/a	11	3	3	5	n/a	n/a	n/a	n/a	n/a
1579.156	n/a	PROB	789578	n/a	LTP075	ltpFR	8	n/a	n/a	n/a	n/a	n/a	n/a	n/a	22	7	7	8	n/a	n/a	n/a	n/a	n/a
1582.082	n/a	PROB	791041	n/a	LTP075	ltpFR	8	n/a	n/a	n/a	n/a	n/a	n/a	n/a	14	2	7	5	n/a	n/a	n/a	n/a	n/a
1583.866	n/a	STOP	791933	n/a	LTP075	ltpFR	8	n/a	n/a	n/a	n/a	n/a	n/a	n/a	n/a	n/a	n/a	n/a	n/a	n/a	n/a	n/a	n/a
1586.114	n/a	WORD	793057	wordpools/wasnorm_wordpool.txt	LTP075	ltpFR	8	7	1	CAMEL	223	n/a	n/a	1	n/a	0	0	0	0.57763671875	0.412841796875	1	upper	amplitud.ttf
1589.124	n/a	START	794562	n/a	LTP075	ltpFR	8	n/a	n/a	n/a	n/a	n/a	n/a	n/a	n/a	n/a	n/a	n/a	n/a	n/a	n/a	n/a	n/a
1590.08	n/a	PROB	795040	n/a	LTP075	ltpFR	8	n/a	n/a	n/a	n/a	n/a	n/a	n/a	18	8	3	7	n/a	n/a	n/a	n/a	n/a
1592.082	n/a	PROB	796041	n/a	LTP075	ltpFR	8	n/a	n/a	n/a	n/a	n/a	n/a	n/a	16	6	3	7	n/a	n/a	n/a	n/a	n/a
1593.548	n/a	PROB	796774	n/a	LTP075	ltpFR	8	n/a	n/a	n/a	n/a	n/a	n/a	n/a	15	4	6	5	n/a	n/a	n/a	n/a	n/a
1595.074	n/a	PROB	797537	n/a	LTP075	ltpFR	8	n/a	n/a	n/a	n/a	n/a	n/a	n/a	12	2	4	6	n/a	n/a	n/a	n/a	n/a
1596.714	n/a	PROB	798357	n/a	LTP075	ltpFR	8	n/a	n/a	n/a	n/a	n/a	n/a	n/a	25	9	7	7	n/a	n/a	n/a	n/a	n/a
1598.598	n/a	PROB	799299	n/a	LTP075	ltpFR	8	n/a	n/a	n/a	n/a	n/a	n/a	n/a	23	7	7	8	n/a	n/a	n/a	n/a	n/a
1600.532	n/a	PROB	800266	n/a	LTP075	ltpFR	8	n/a	n/a	n/a	n/a	n/a	n/a	n/a	20	6	5	9	n/a	n/a	n/a	n/a	n/a
1602.272	n/a	PROB	801136	n/a	LTP075	ltpFR	8	n/a	n/a	n/a	n/a	n/a	n/a	n/a	22	9	8	5	n/a	n/a	n/a	n/a	n/a
1604.666	n/a	STOP	802333	n/a	LTP075	ltpFR	8	n/a	n/a	n/a	n/a	n/a	n/a	n/a	n/a	n/a	n/a	n/a	n/a	n/a	n/a	n/a	n/a
1606.238	n/a	WORD	803119	wordpools/wasnorm_wordpool.txt	LTP075	ltpFR	8	7	0	NICKEL	950	n/a	n/a	0	n/a	0	0	0	0.422607421875	0.5869140625	0	lower	zerothre.ttf
1609.246	n/a	START	804623	n/a	LTP075	ltpFR	8	n/a	n/a	n/a	n/a	n/a	n/a	n/a	n/a	n/a	n/a	n/a	n/a	n/a	n/a	n/a	n/a
1610.288	n/a	PROB	805144	n/a	LTP075	ltpFR	8	n/a	n/a	n/a	n/a	n/a	n/a	n/a	7	2	4	1	n/a	n/a	n/a	n/a	n/a
1613.79	n/a	PROB	806895	n/a	LTP075	ltpFR	8	n/a	n/a	n/a	n/a	n/a	n/a	n/a	13	8	2	3	n/a	n/a	n/a	n/a	n/a
1615.264	n/a	PROB	807632	n/a	LTP075	ltpFR	8	n/a	n/a	n/a	n/a	n/a	n/a	n/a	11	3	2	6	n/a	n/a	n/a	n/a	n/a
1616.998	n/a	PROB	808499	n/a	LTP075	ltpFR	8	n/a	n/a	n/a	n/a	n/a	n/a	n/a	24	7	8	9	n/a	n/a	n/a	n/a	n/a
1618.822	n/a	PROB	809411	n/a	LTP075	ltpFR	8	n/a	n/a	n/a	n/a	n/a	n/a	n/a	11	2	4	5	n/a	n/a	n/a	n/a	n/a
1620.188	n/a	PROB	810094	n/a	LTP075	ltpFR	8	n/a	n/a	n/a	n/a	n/a	n/a	n/a	18	4	7	7	n/a	n/a	n/a	n/a	n/a
1621.464	n/a	PROB	810732	n/a	LTP075	ltpFR	8	n/a	n/a	n/a	n/a	n/a	n/a	n/a	17	7	5	5	n/a	n/a	n/a	n/a	n/a
1622.922	n/a	PROB	811461	n/a	LTP075	ltpFR	8	n/a	n/a	n/a	n/a	n/a	n/a	n/a	9	4	2	3	n/a	n/a	n/a	n/a	n/a
1624.596	n/a	STOP	812298	n/a	LTP075	ltpFR	8	n/a	n/a	n/a	n/a	n/a	n/a	n/a	n/a	n/a	n/a	n/a	n/a	n/a	n/a	n/a	n/a
1626.064	n/a	WORD	813032	wordpools/wasnorm_wordpool.txt	LTP075	ltpFR	8	7	0	LAWYER	806	n/a	n/a	1	n/a	0	0	0	0.422607421875	0.5869140625	0	lower	zerothre.ttf
1629.072	n/a	START	814536	n/a	LTP075	ltpFR	8	n/a	n/a	n/a	n/a	n/a	n/a	n/a	n/a	n/a	n/a	n/a	n/a	n/a	n/a	n/a	n/a
1630.054	n/a	PROB	815027	n/a	LTP075	ltpFR	8	n/a	n/a	n/a	n/a	n/a	n/a	n/a	10	4	3	3	n/a	n/a	n/a	n/a	n/a
1631.522	n/a	PROB	815761	n/a	LTP075	ltpFR	8	n/a	n/a	n/a	n/a	n/a	n/a	n/a	17	8	5	1	n/a	n/a	n/a	n/a	n/a
1633.622	n/a	PROB	816811	n/a	LTP075	ltpFR	8	n/a	n/a	n/a	n/a	n/a	n/a	n/a	25	9	8	8	n/a	n/a	n/a	n/a	n/a
1635.63	n/a	PROB	817815	n/a	LTP075	ltpFR	8	n/a	n/a	n/a	n/a	n/a	n/a	n/a	20	2	9	9	n/a	n/a	n/a	n/a	n/a
1637.162	n/a	PROB	818581	n/a	LTP075	ltpFR	8	n/a	n/a	n/a	n/a	n/a	n/a	n/a	4	1	1	2	n/a	n/a	n/a	n/a	n/a
1638.656	n/a	PROB	819328	n/a	LTP075	ltpFR	8	n/a	n/a	n/a	n/a	n/a	n/a	n/a	17	6	5	6	n/a	n/a	n/a	n/a	n/a
1640.114	n/a	PROB	820057	n/a	LTP075	ltpFR	8	n/a	n/a	n/a	n/a	n/a	n/a	n/a	19	8	7	4	n/a	n/a	n/a	n/a	n/a
1641.822	n/a	PROB	820911	n/a	LTP075	ltpFR	8	n/a	n/a	n/a	n/a	n/a	n/a	n/a	17	5	4	8	n/a	n/a	n/a	n/a	n/a
1644.06	n/a	STOP	822030	n/a	LTP075	ltpFR	8	n/a	n/a	n/a	n/a	n/a	n/a	n/a	n/a	n/a	n/a	n/a	n/a	n/a	n/a	n/a	n/a
1646.022	n/a	WORD	823011	wordpools/wasnorm_wordpool.txt	LTP075	ltpFR	8	7	0	MUSTARD	935	n/a	n/a	0	n/a	0	0	0	0.422607421875	0.5869140625	0	lower	zerothre.ttf
1649.03	n/a	START	824515	n/a	LTP075	ltpFR	8	n/a	n/a	n/a	n/a	n/a	n/a	n/a	n/a	n/a	n/a	n/a	n/a	n/a	n/a	n/a	n/a
1650.03	n/a	PROB	825015	n/a	LTP075	ltpFR	8	n/a	n/a	n/a	n/a	n/a	n/a	n/a	5	1	2	2	n/a	n/a	n/a	n/a	n/a
1651.396	n/a	PROB	825698	n/a	LTP075	ltpFR	8	n/a	n/a	n/a	n/a	n/a	n/a	n/a	13	5	6	2	n/a	n/a	n/a	n/a	n/a
1653.046	n/a	PROB	826523	n/a	LTP075	ltpFR	8	n/a	n/a	n/a	n/a	n/a	n/a	n/a	12	1	3	8	n/a	n/a	n/a	n/a	n/a
1654.98	n/a	PROB	827490	n/a	LTP075	ltpFR	8	n/a	n/a	n/a	n/a	n/a	n/a	n/a	12	2	5	5	n/a	n/a	n/a	n/a	n/a
1656.106	n/a	PROB	828053	n/a	LTP075	ltpFR	8	n/a	n/a	n/a	n/a	n/a	n/a	n/a	5	1	3	1	n/a	n/a	n/a	n/a	n/a
1657.738	n/a	PROB	828869	n/a	LTP075	ltpFR	8	n/a	n/a	n/a	n/a	n/a	n/a	n/a	21	7	6	8	n/a	n/a	n/a	n/a	n/a
1659.772	n/a	PROB	829886	n/a	LTP075	ltpFR	8	n/a	n/a	n/a	n/a	n/a	n/a	n/a	21	9	5	7	n/a	n/a	n/a	n/a	n/a
1662.08	n/a	PROB	831040	n/a	LTP075	ltpFR	8	n/a	n/a	n/a	n/a	n/a	n/a	n/a	22	9	9	4	n/a	n/a	n/a	n/a	n/a
1663.504	n/a	PROB	831752	n/a	LTP075	ltpFR	8	n/a	n/a	n/a	n/a	n/a	n/a	n/a	13	2	5	6	n/a	n/a	n/a	n/a	n/a
1664.918	n/a	STOP	832459	n/a	LTP075	ltpFR	8	n/a	n/a	n/a	n/a	n/a	n/a	n/a	n/a	n/a	n/a	n/a	n/a	n/a	n/a	n/a	n/a
1666.204	n/a	WORD	833102	wordpools/wasnorm_wordpool.txt	LTP075	ltpFR	8	7	0	DEPUTY	450	n/a	n/a	1	n/a	0	0	0	0.422607421875	0.5869140625	0	lower	zerothre.ttf
1669.212	n/a	START	834606	n/a	LTP075	ltpFR	8	n/a	n/a	n/a	n/a	n/a	n/a	n/a	n/a	n/a	n/a	n/a	n/a	n/a	n/a	n/a	n/a
1670.252	n/a	PROB	835126	n/a	LTP075	ltpFR	8	n/a	n/a	n/a	n/a	n/a	n/a	n/a	8	3	3	2	n/a	n/a	n/a	n/a	n/a
1672.02	n/a	PROB	836010	n/a	LTP075	ltpFR	8	n/a	n/a	n/a	n/a	n/a	n/a	n/a	11	3	6	2	n/a	n/a	n/a	n/a	n/a
1673.804	n/a	PROB	836902	n/a	LTP075	ltpFR	8	n/a	n/a	n/a	n/a	n/a	n/a	n/a	12	6	1	5	n/a	n/a	n/a	n/a	n/a
1675.538	n/a	PROB	837769	n/a	LTP075	ltpFR	8	n/a	n/a	n/a	n/a	n/a	n/a	n/a	13	1	9	3	n/a	n/a	n/a	n/a	n/a
1676.712	n/a	PROB	838356	n/a	LTP075	ltpFR	8	n/a	n/a	n/a	n/a	n/a	n/a	n/a	12	7	2	3	n/a	n/a	n/a	n/a	n/a
1678.462	n/a	PROB	839231	n/a	LTP075	ltpFR	8	n/a	n/a	n/a	n/a	n/a	n/a	n/a	15	9	2	3	n/a	n/a	n/a	n/a	n/a
1680.554	n/a	PROB	840277	n/a	LTP075	ltpFR	8	n/a	n/a	n/a	n/a	n/a	n/a	n/a	17	6	5	4	n/a	n/a	n/a	n/a	n/a
1682.07	n/a	PROB	841035	n/a	LTP075	ltpFR	8	n/a	n/a	n/a	n/a	n/a	n/a	n/a	21	5	9	7	n/a	n/a	n/a	n/a	n/a
1684.278	n/a	STOP	842139	n/a	LTP075	ltpFR	8	n/a	n/a	n/a	n/a	n/a	n/a	n/a	n/a	n/a	n/a	n/a	n/a	n/a	n/a	n/a	n/a
1686.354	n/a	WORD	843177	wordpools/wasnorm_wordpool.txt	LTP075	ltpFR	8	7	1	COW	393	n/a	n/a	3	n/a	0	0	0	0.57763671875	0.412841796875	1	upper	amplitud.ttf
1688.496	n/a	KEY_MSG	844248	n/a	LTP075	ltpFR	8	7	n/a	n/a	n/a	n/a	n/a	n/a	n/a	0	0	0	n/a	n/a	n/a	n/a	n/a
1690.012	n/a	START	845006	n/a	LTP075	ltpFR	8	n/a	n/a	n/a	n/a	n/a	n/a	n/a	n/a	n/a	n/a	n/a	n/a	n/a	n/a	n/a	n/a
1690.87	n/a	PROB	845435	n/a	LTP075	ltpFR	8	n/a	n/a	n/a	n/a	n/a	n/a	n/a	16	3	8	5	n/a	n/a	n/a	n/a	n/a
1693.478	n/a	PROB	846739	n/a	LTP075	ltpFR	8	n/a	n/a	n/a	n/a	n/a	n/a	n/a	15	5	6	4	n/a	n/a	n/a	n/a	n/a
1695.612	n/a	PROB	847806	n/a	LTP075	ltpFR	8	n/a	n/a	n/a	n/a	n/a	n/a	n/a	18	3	7	8	n/a	n/a	n/a	n/a	n/a
1697.354	n/a	PROB	848677	n/a	LTP075	ltpFR	8	n/a	n/a	n/a	n/a	n/a	n/a	n/a	15	4	3	8	n/a	n/a	n/a	n/a	n/a
1699.404	n/a	PROB	849702	n/a	LTP075	ltpFR	8	n/a	n/a	n/a	n/a	n/a	n/a	n/a	18	8	6	4	n/a	n/a	n/a	n/a	n/a
1701.42	n/a	PROB	850710	n/a	LTP075	ltpFR	8	n/a	n/a	n/a	n/a	n/a	n/a	n/a	10	6	3	1	n/a	n/a	n/a	n/a	n/a
1702.92	n/a	PROB	851460	n/a	LTP075	ltpFR	8	n/a	n/a	n/a	n/a	n/a	n/a	n/a	18	5	4	9	n/a	n/a	n/a	n/a	n/a
1704.968	n/a	STOP	852484	n/a	LTP075	ltpFR	8	n/a	n/a	n/a	n/a	n/a	n/a	n/a	n/a	n/a	n/a	n/a	n/a	n/a	n/a	n/a	n/a
1707.054	n/a	WORD	853527	wordpools/wasnorm_wordpool.txt	LTP075	ltpFR	8	7	1	SANDWICH	1232	n/a	n/a	0	n/a	0	0	0	0.57763671875	0.412841796875	1	upper	amplitud.ttf
1710.062	n/a	START	855031	n/a	LTP075	ltpFR	8	n/a	n/a	n/a	n/a	n/a	n/a	n/a	n/a	n/a	n/a	n/a	n/a	n/a	n/a	n/a	n/a
1711.218	n/a	PROB	855609	n/a	LTP075	ltpFR	8	n/a	n/a	n/a	n/a	n/a	n/a	n/a	16	6	3	7	n/a	n/a	n/a	n/a	n/a
1712.462	n/a	PROB	856231	n/a	LTP075	ltpFR	8	n/a	n/a	n/a	n/a	n/a	n/a	n/a	21	5	9	8	n/a	n/a	n/a	n/a	n/a
1714.91	n/a	PROB	857455	n/a	LTP075	ltpFR	8	n/a	n/a	n/a	n/a	n/a	n/a	n/a	12	4	2	6	n/a	n/a	n/a	n/a	n/a
1716.52	n/a	PROB	858260	n/a	LTP075	ltpFR	8	n/a	n/a	n/a	n/a	n/a	n/a	n/a	16	4	5	7	n/a	n/a	n/a	n/a	n/a
1718.646	n/a	PROB	859323	n/a	LTP075	ltpFR	8	n/a	n/a	n/a	n/a	n/a	n/a	n/a	7	2	4	1	n/a	n/a	n/a	n/a	n/a
1721.086	n/a	PROB	860543	n/a	LTP075	ltpFR	8	n/a	n/a	n/a	n/a	n/a	n/a	n/a	13	5	4	5	n/a	n/a	n/a	n/a	n/a
1722.77	n/a	PROB	861385	n/a	LTP075	ltpFR	8	n/a	n/a	n/a	n/a	n/a	n/a	n/a	20	7	9	4	n/a	n/a	n/a	n/a	n/a
1725.848	n/a	STOP	862924	n/a	LTP075	ltpFR	8	n/a	n/a	n/a	n/a	n/a	n/a	n/a	n/a	n/a	n/a	n/a	n/a	n/a	n/a	n/a	n/a
1727.218	n/a	WORD	863609	wordpools/wasnorm_wordpool.txt	LTP075	ltpFR	8	7	1	COTTAGE	384	n/a	n/a	0	n/a	0	0	0	0.57763671875	0.412841796875	1	upper	amplitud.ttf
1730.226	n/a	START	865113	n/a	LTP075	ltpFR	8	n/a	n/a	n/a	n/a	n/a	n/a	n/a	n/a	n/a	n/a	n/a	n/a	n/a	n/a	n/a	n/a
1731.32	n/a	PROB	865660	n/a	LTP075	ltpFR	8	n/a	n/a	n/a	n/a	n/a	n/a	n/a	23	8	9	6	n/a	n/a	n/a	n/a	n/a
1734.36	n/a	PROB	867180	n/a	LTP075	ltpFR	8	n/a	n/a	n/a	n/a	n/a	n/a	n/a	6	4	1	1	n/a	n/a	n/a	n/a	n/a
1735.586	n/a	PROB	867793	n/a	LTP075	ltpFR	8	n/a	n/a	n/a	n/a	n/a	n/a	n/a	22	9	8	5	n/a	n/a	n/a	n/a	n/a
1738.402	n/a	PROB	869201	n/a	LTP075	ltpFR	8	n/a	n/a	n/a	n/a	n/a	n/a	n/a	22	4	9	9	n/a	n/a	n/a	n/a	n/a
1739.92	n/a	PROB	869960	n/a	LTP075	ltpFR	8	n/a	n/a	n/a	n/a	n/a	n/a	n/a	16	9	5	2	n/a	n/a	n/a	n/a	n/a
1741.494	n/a	PROB	870747	n/a	LTP075	ltpFR	8	n/a	n/a	n/a	n/a	n/a	n/a	n/a	19	8	8	3	n/a	n/a	n/a	n/a	n/a
1743.528	n/a	PROB	871764	n/a	LTP075	ltpFR	8	n/a	n/a	n/a	n/a	n/a	n/a	n/a	17	4	7	6	n/a	n/a	n/a	n/a	n/a
1745.842	n/a	STOP	872921	n/a	LTP075	ltpFR	8	n/a	n/a	n/a	n/a	n/a	n/a	n/a	n/a	n/a	n/a	n/a	n/a	n/a	n/a	n/a	n/a
1747.344	n/a	WORD	873672	wordpools/wasnorm_wordpool.txt	LTP075	ltpFR	8	7	0	SHINGLE	1285	n/a	n/a	0	n/a	0	0	0	0.422607421875	0.5869140625	0	lower	zerothre.ttf
1750.344	n/a	START	875172	n/a	LTP075	ltpFR	8	n/a	n/a	n/a	n/a	n/a	n/a	n/a	n/a	n/a	n/a	n/a	n/a	n/a	n/a	n/a	n/a
1751.486	n/a	PROB	875743	n/a	LTP075	ltpFR	8	n/a	n/a	n/a	n/a	n/a	n/a	n/a	4	1	1	2	n/a	n/a	n/a	n/a	n/a
1753.118	n/a	PROB	876559	n/a	LTP075	ltpFR	8	n/a	n/a	n/a	n/a	n/a	n/a	n/a	12	3	2	7	n/a	n/a	n/a	n/a	n/a
1755.284	n/a	PROB	877642	n/a	LTP075	ltpFR	8	n/a	n/a	n/a	n/a	n/a	n/a	n/a	20	7	5	8	n/a	n/a	n/a	n/a	n/a
1757.56	n/a	PROB	878780	n/a	LTP075	ltpFR	8	n/a	n/a	n/a	n/a	n/a	n/a	n/a	21	7	7	7	n/a	n/a	n/a	n/a	n/a
1758.794	n/a	PROB	879397	n/a	LTP075	ltpFR	8	n/a	n/a	n/a	n/a	n/a	n/a	n/a	20	6	9	5	n/a	n/a	n/a	n/a	n/a
1762.052	n/a	PROB	881026	n/a	LTP075	ltpFR	8	n/a	n/a	n/a	n/a	n/a	n/a	n/a	7	3	3	1	n/a	n/a	n/a	n/a	n/a
1766.346	n/a	STOP	883173	n/a	LTP075	ltpFR	8	n/a	n/a	n/a	n/a	n/a	n/a	n/a	n/a	n/a	n/a	n/a	n/a	n/a	n/a	n/a	n/a
1767.426	n/a	WORD	883713	wordpools/wasnorm_wordpool.txt	LTP075	ltpFR	8	7	0	TRAY	1498	n/a	n/a	0	n/a	0	0	0	0.422607421875	0.5869140625	0	lower	zerothre.ttf
1770.436	n/a	START	885218	n/a	LTP075	ltpFR	8	n/a	n/a	n/a	n/a	n/a	n/a	n/a	n/a	n/a	n/a	n/a	n/a	n/a	n/a	n/a	n/a
1771.484	n/a	PROB	885742	n/a	LTP075	ltpFR	8	n/a	n/a	n/a	n/a	n/a	n/a	n/a	7	2	4	3	n/a	n/a	n/a	n/a	n/a
1773.426	n/a	PROB	886713	n/a	LTP075	ltpFR	8	n/a	n/a	n/a	n/a	n/a	n/a	n/a	18	8	4	6	n/a	n/a	n/a	n/a	n/a
1775.452	n/a	PROB	887726	n/a	LTP075	ltpFR	8	n/a	n/a	n/a	n/a	n/a	n/a	n/a	13	3	3	7	n/a	n/a	n/a	n/a	n/a
1776.868	n/a	PROB	888434	n/a	LTP075	ltpFR	8	n/a	n/a	n/a	n/a	n/a	n/a	n/a	14	2	3	9	n/a	n/a	n/a	n/a	n/a
1778.486	n/a	PROB	889243	n/a	LTP075	ltpFR	8	n/a	n/a	n/a	n/a	n/a	n/a	n/a	16	6	4	6	n/a	n/a	n/a	n/a	n/a
1780.436	n/a	PROB	890218	n/a	LTP075	ltpFR	8	n/a	n/a	n/a	n/a	n/a	n/a	n/a	6	1	4	4	n/a	n/a	n/a	n/a	n/a
1782.11	n/a	PROB	891055	n/a	LTP075	ltpFR	8	n/a	n/a	n/a	n/a	n/a	n/a	n/a	22	5	8	9	n/a	n/a	n/a	n/a	n/a
1784.434	n/a	PROB	892217	n/a	LTP075	ltpFR	8	n/a	n/a	n/a	n/a	n/a	n/a	n/a	18	2	8	8	n/a	n/a	n/a	n/a	n/a
1785.908	n/a	STOP	892954	n/a	LTP075	ltpFR	8	n/a	n/a	n/a	n/a	n/a	n/a	n/a	n/a	n/a	n/a	n/a	n/a	n/a	n/a	n/a	n/a
1787.468	n/a	WORD	893734	wordpools/wasnorm_wordpool.txt	LTP075	ltpFR	8	7	0	FEAST	556	n/a	n/a	0	n/a	0	0	0	0.422607421875	0.5869140625	0	lower	zerothre.ttf
1790.476	n/a	START	895238	n/a	LTP075	ltpFR	8	n/a	n/a	n/a	n/a	n/a	n/a	n/a	n/a	n/a	n/a	n/a	n/a	n/a	n/a	n/a	n/a
1791.442	n/a	PROB	895721	n/a	LTP075	ltpFR	8	n/a	n/a	n/a	n/a	n/a	n/a	n/a	6	3	2	1	n/a	n/a	n/a	n/a	n/a
1792.884	n/a	PROB	896442	n/a	LTP075	ltpFR	8	n/a	n/a	n/a	n/a	n/a	n/a	n/a	17	6	9	2	n/a	n/a	n/a	n/a	n/a
1794.842	n/a	PROB	897421	n/a	LTP075	ltpFR	8	n/a	n/a	n/a	n/a	n/a	n/a	n/a	20	6	8	6	n/a	n/a	n/a	n/a	n/a
1796.792	n/a	PROB	898396	n/a	LTP075	ltpFR	8	n/a	n/a	n/a	n/a	n/a	n/a	n/a	15	4	8	3	n/a	n/a	n/a	n/a	n/a
1798.316	n/a	PROB	899158	n/a	LTP075	ltpFR	8	n/a	n/a	n/a	n/a	n/a	n/a	n/a	18	4	6	8	n/a	n/a	n/a	n/a	n/a
1799.76	n/a	PROB	899880	n/a	LTP075	ltpFR	8	n/a	n/a	n/a	n/a	n/a	n/a	n/a	14	8	3	3	n/a	n/a	n/a	n/a	n/a
1802.61	n/a	PROB	901305	n/a	LTP075	ltpFR	8	n/a	n/a	n/a	n/a	n/a	n/a	n/a	14	4	6	6	n/a	n/a	n/a	n/a	n/a
1806.478	n/a	STOP	903239	n/a	LTP075	ltpFR	8	n/a	n/a	n/a	n/a	n/a	n/a	n/a	n/a	n/a	n/a	n/a	n/a	n/a	n/a	n/a	n/a
1807.484	n/a	WORD	903742	wordpools/wasnorm_wordpool.txt	LTP075	ltpFR	8	7	0	PICNIC	1060	n/a	n/a	1	n/a	0	0	0	0.422607421875	0.5869140625	0	lower	zerothre.ttf
1810.492	n/a	START	905246	n/a	LTP075	ltpFR	8	n/a	n/a	n/a	n/a	n/a	n/a	n/a	n/a	n/a	n/a	n/a	n/a	n/a	n/a	n/a	n/a
1811.676	n/a	PROB	905838	n/a	LTP075	ltpFR	8	n/a	n/a	n/a	n/a	n/a	n/a	n/a	15	8	4	3	n/a	n/a	n/a	n/a	n/a
1813.642	n/a	PROB	906821	n/a	LTP075	ltpFR	8	n/a	n/a	n/a	n/a	n/a	n/a	n/a	16	6	4	6	n/a	n/a	n/a	n/a	n/a
1815.368	n/a	PROB	907684	n/a	LTP075	ltpFR	8	n/a	n/a	n/a	n/a	n/a	n/a	n/a	9	2	5	2	n/a	n/a	n/a	n/a	n/a
1817.358	n/a	PROB	908679	n/a	LTP075	ltpFR	8	n/a	n/a	n/a	n/a	n/a	n/a	n/a	13	2	7	4	n/a	n/a	n/a	n/a	n/a
1818.942	n/a	PROB	909471	n/a	LTP075	ltpFR	8	n/a	n/a	n/a	n/a	n/a	n/a	n/a	19	7	3	9	n/a	n/a	n/a	n/a	n/a
1820.226	n/a	PROB	910113	n/a	LTP075	ltpFR	8	n/a	n/a	n/a	n/a	n/a	n/a	n/a	11	5	4	2	n/a	n/a	n/a	n/a	n/a
1821.534	n/a	PROB	910767	n/a	LTP075	ltpFR	8	n/a	n/a	n/a	n/a	n/a	n/a	n/a	14	6	4	4	n/a	n/a	n/a	n/a	n/a
1822.768	n/a	PROB	911384	n/a	LTP075	ltpFR	8	n/a	n/a	n/a	n/a	n/a	n/a	n/a	15	7	6	2	n/a	n/a	n/a	n/a	n/a
1826.494	n/a	STOP	913247	n/a	LTP075	ltpFR	8	n/a	n/a	n/a	n/a	n/a	n/a	n/a	n/a	n/a	n/a	n/a	n/a	n/a	n/a	n/a	n/a
1827.492	n/a	WORD	913746	wordpools/wasnorm_wordpool.txt	LTP075	ltpFR	8	7	1	NET	946	n/a	n/a	0	n/a	0	0	0	0.57763671875	0.412841796875	1	upper	amplitud.ttf
1830.5	n/a	START	915250	n/a	LTP075	ltpFR	8	n/a	n/a	n/a	n/a	n/a	n/a	n/a	n/a	n/a	n/a	n/a	n/a	n/a	n/a	n/a	n/a
1831.4	n/a	PROB	915700	n/a	LTP075	ltpFR	8	n/a	n/a	n/a	n/a	n/a	n/a	n/a	8	4	4	2	n/a	n/a	n/a	n/a	n/a
1833.408	n/a	PROB	916704	n/a	LTP075	ltpFR	8	n/a	n/a	n/a	n/a	n/a	n/a	n/a	15	2	4	9	n/a	n/a	n/a	n/a	n/a
1835.29	n/a	PROB	917645	n/a	LTP075	ltpFR	8	n/a	n/a	n/a	n/a	n/a	n/a	n/a	11	1	5	5	n/a	n/a	n/a	n/a	n/a
1836.4	n/a	PROB	918200	n/a	LTP075	ltpFR	8	n/a	n/a	n/a	n/a	n/a	n/a	n/a	14	6	7	1	n/a	n/a	n/a	n/a	n/a
1838.174	n/a	PROB	919087	n/a	LTP075	ltpFR	8	n/a	n/a	n/a	n/a	n/a	n/a	n/a	23	8	9	7	n/a	n/a	n/a	n/a	n/a
1840.118	n/a	PROB	920059	n/a	LTP075	ltpFR	8	n/a	n/a	n/a	n/a	n/a	n/a	n/a	16	7	7	2	n/a	n/a	n/a	n/a	n/a
1841.558	n/a	PROB	920779	n/a	LTP075	ltpFR	8	n/a	n/a	n/a	n/a	n/a	n/a	n/a	16	8	1	7	n/a	n/a	n/a	n/a	n/a
1843.068	n/a	PROB	921534	n/a	LTP075	ltpFR	8	n/a	n/a	n/a	n/a	n/a	n/a	n/a	10	2	3	5	n/a	n/a	n/a	n/a	n/a
1844.742	n/a	PROB	922371	n/a	LTP075	ltpFR	8	n/a	n/a	n/a	n/a	n/a	n/a	n/a	15	3	8	4	n/a	n/a	n/a	n/a	n/a
1846.062	n/a	STOP	923031	n/a	LTP075	ltpFR	8	n/a	n/a	n/a	n/a	n/a	n/a	n/a	n/a	n/a	n/a	n/a	n/a	n/a	n/a	n/a	n/a
1847.334	n/a	WORD	923667	wordpools/wasnorm_wordpool.txt	LTP075	ltpFR	8	7	1	LUNG	850	n/a	n/a	1	n/a	0	0	0	0.57763671875	0.412841796875	1	upper	amplitud.ttf
1850.342	n/a	START	925171	n/a	LTP075	ltpFR	8	n/a	n/a	n/a	n/a	n/a	n/a	n/a	n/a	n/a	n/a	n/a	n/a	n/a	n/a	n/a	n/a
1851.248	n/a	PROB	925624	n/a	LTP075	ltpFR	8	n/a	n/a	n/a	n/a	n/a	n/a	n/a	14	4	4	6	n/a	n/a	n/a	n/a	n/a
1852.492	n/a	PROB	926246	n/a	LTP075	ltpFR	8	n/a	n/a	n/a	n/a	n/a	n/a	n/a	11	1	9	1	n/a	n/a	n/a	n/a	n/a
1853.642	n/a	PROB	926821	n/a	LTP075	ltpFR	8	n/a	n/a	n/a	n/a	n/a	n/a	n/a	18	8	8	2	n/a	n/a	n/a	n/a	n/a
1855.532	n/a	PROB	927766	n/a	LTP075	ltpFR	8	n/a	n/a	n/a	n/a	n/a	n/a	n/a	15	6	5	4	n/a	n/a	n/a	n/a	n/a
1856.908	n/a	PROB	928454	n/a	LTP075	ltpFR	8	n/a	n/a	n/a	n/a	n/a	n/a	n/a	13	8	1	4	n/a	n/a	n/a	n/a	n/a
1858.256	n/a	PROB	929128	n/a	LTP075	ltpFR	8	n/a	n/a	n/a	n/a	n/a	n/a	n/a	22	7	8	7	n/a	n/a	n/a	n/a	n/a
1859.724	n/a	PROB	929862	n/a	LTP075	ltpFR	8	n/a	n/a	n/a	n/a	n/a	n/a	n/a	12	5	4	3	n/a	n/a	n/a	n/a	n/a
1860.884	n/a	PROB	930442	n/a	LTP075	ltpFR	8	n/a	n/a	n/a	n/a	n/a	n/a	n/a	17	8	5	4	n/a	n/a	n/a	n/a	n/a
1862.542	n/a	PROB	931271	n/a	LTP075	ltpFR	8	n/a	n/a	n/a	n/a	n/a	n/a	n/a	16	9	5	2	n/a	n/a	n/a	n/a	n/a
1864.182	n/a	PROB	932091	n/a	LTP075	ltpFR	8	n/a	n/a	n/a	n/a	n/a	n/a	n/a	14	6	6	4	n/a	n/a	n/a	n/a	n/a
1865.302	n/a	STOP	932651	n/a	LTP075	ltpFR	8	n/a	n/a	n/a	n/a	n/a	n/a	n/a	n/a	n/a	n/a	n/a	n/a	n/a	n/a	n/a	n/a
1867.158	n/a	WORD	933579	wordpools/wasnorm_wordpool.txt	LTP075	ltpFR	8	7	1	PRAIRIE	1118	n/a	n/a	0	n/a	0	0	0	0.57763671875	0.412841796875	1	upper	amplitud.ttf
1870.158	n/a	START	935079	n/a	LTP075	ltpFR	8	n/a	n/a	n/a	n/a	n/a	n/a	n/a	n/a	n/a	n/a	n/a	n/a	n/a	n/a	n/a	n/a
1871.358	n/a	PROB	935679	n/a	LTP075	ltpFR	8	n/a	n/a	n/a	n/a	n/a	n/a	n/a	19	9	7	3	n/a	n/a	n/a	n/a	n/a
1872.682	n/a	PROB	936341	n/a	LTP075	ltpFR	8	n/a	n/a	n/a	n/a	n/a	n/a	n/a	16	4	5	7	n/a	n/a	n/a	n/a	n/a
1874.058	n/a	PROB	937029	n/a	LTP075	ltpFR	8	n/a	n/a	n/a	n/a	n/a	n/a	n/a	21	7	7	7	n/a	n/a	n/a	n/a	n/a
1875.214	n/a	PROB	937607	n/a	LTP075	ltpFR	8	n/a	n/a	n/a	n/a	n/a	n/a	n/a	20	9	6	5	n/a	n/a	n/a	n/a	n/a
1877.858	n/a	PROB	938929	n/a	LTP075	ltpFR	8	n/a	n/a	n/a	n/a	n/a	n/a	n/a	17	7	6	4	n/a	n/a	n/a	n/a	n/a
1879.322	n/a	PROB	939661	n/a	LTP075	ltpFR	8	n/a	n/a	n/a	n/a	n/a	n/a	n/a	18	3	8	7	n/a	n/a	n/a	n/a	n/a
1880.774	n/a	PROB	940387	n/a	LTP075	ltpFR	8	n/a	n/a	n/a	n/a	n/a	n/a	n/a	5	1	2	2	n/a	n/a	n/a	n/a	n/a
1882.116	n/a	PROB	941058	n/a	LTP075	ltpFR	8	n/a	n/a	n/a	n/a	n/a	n/a	n/a	10	3	3	4	n/a	n/a	n/a	n/a	n/a
1883.832	n/a	PROB	941916	n/a	LTP075	ltpFR	8	n/a	n/a	n/a	n/a	n/a	n/a	n/a	17	5	3	9	n/a	n/a	n/a	n/a	n/a
1885.344	n/a	STOP	942672	n/a	LTP075	ltpFR	8	n/a	n/a	n/a	n/a	n/a	n/a	n/a	n/a	n/a	n/a	n/a	n/a	n/a	n/a	n/a	n/a
1887.95	n/a	REC_START	943975	n/a	LTP075	ltpFR	8	7	n/a	n/a	n/a	n/a	n/a	n/a	n/a	0	0	0	n/a	n/a	n/a	n/a	n/a
1888.852	n/a	REC_WORD	944426	wordpools/wasnorm_wordpool.txt	LTP075	ltpFR	8	7	1	LUNG	850	n/a	n/a	1	n/a	0	0	0	n/a	n/a	n/a	n/a	n/a
1891.148	n/a	REC_WORD	945574	wordpools/wasnorm_wordpool.txt	LTP075	ltpFR	8	7	1	PRAIRIE	1118	n/a	n/a	0	n/a	0	0	0	n/a	n/a	n/a	n/a	n/a
1901.17	n/a	REC_WORD	950585	wordpools/wasnorm_wordpool.txt	LTP075	ltpFR	8	7	1	OUTFIT	988	n/a	n/a	0	n/a	0	0	0	n/a	n/a	n/a	n/a	n/a
1919.908	n/a	REC_WORD	959954	wordpools/wasnorm_wordpool.txt	LTP075	ltpFR	8	7	0	PICNIC	1060	n/a	n/a	1	n/a	0	0	0	n/a	n/a	n/a	n/a	n/a
1928.394	n/a	REC_WORD	964197	wordpools/wasnorm_wordpool.txt	LTP075	ltpFR	8	7	0	FEAST	556	n/a	n/a	0	n/a	0	0	0	n/a	n/a	n/a	n/a	n/a
1930.914	n/a	REC_WORD	965457	wordpools/wasnorm_wordpool.txt	LTP075	ltpFR	8	7	n/a	PLATE	1086	n/a	n/a	n/a	n/a	0	0	0	n/a	n/a	n/a	n/a	n/a
2010.27	n/a	WORD	1005135	wordpools/wasnorm_wordpool.txt	LTP075	ltpFR	8	8	1	ALLIGATOR	16	n/a	n/a	1	n/a	0	0	0	0.57763671875	0.412841796875	1	upper	amplitud.ttf
2014.262	n/a	WORD	1007131	wordpools/wasnorm_wordpool.txt	LTP075	ltpFR	8	8	1	RADIATOR	1156	n/a	n/a	0	n/a	0	0	0	0.57763671875	0.412841796875	1	upper	amplitud.ttf
2018.162	n/a	WORD	1009081	wordpools/wasnorm_wordpool.txt	LTP075	ltpFR	8	8	1	BUGGY	188	n/a	n/a	0	n/a	0	0	0	0.57763671875	0.412841796875	1	upper	amplitud.ttf
2022.112	n/a	WORD	1011056	wordpools/wasnorm_wordpool.txt	LTP075	ltpFR	8	8	1	SCOTCH	1251	n/a	n/a	0	n/a	0	0	0	0.57763671875	0.412841796875	1	upper	amplitud.ttf
2026.146	n/a	WORD	1013073	wordpools/wasnorm_wordpool.txt	LTP075	ltpFR	8	8	1	HOME	712	n/a	n/a	0	n/a	0	0	0	0.57763671875	0.412841796875	1	upper	amplitud.ttf
2030.046	n/a	WORD	1015023	wordpools/wasnorm_wordpool.txt	LTP075	ltpFR	8	8	1	HUT	729	n/a	n/a	0	n/a	0	0	0	0.57763671875	0.412841796875	1	upper	amplitud.ttf
2033.87	n/a	WORD	1016935	wordpools/wasnorm_wordpool.txt	LTP075	ltpFR	8	8	1	CACTUS	215	n/a	n/a	1	n/a	0	0	0	0.57763671875	0.412841796875	1	upper	amplitud.ttf
2037.862	n/a	WORD	1018931	wordpools/wasnorm_wordpool.txt	LTP075	ltpFR	8	8	1	PITCHFORK	1078	n/a	n/a	0	n/a	0	0	0	0.57763671875	0.412841796875	1	upper	amplitud.ttf
2041.77	n/a	WORD	1020885	wordpools/wasnorm_wordpool.txt	LTP075	ltpFR	8	8	1	SCARECROW	1245	n/a	n/a	1	n/a	0	0	0	0.57763671875	0.412841796875	1	upper	amplitud.ttf
2045.72	n/a	WORD	1022860	wordpools/wasnorm_wordpool.txt	LTP075	ltpFR	8	8	1	ORCHID	982	n/a	n/a	1	n/a	0	0	0	0.57763671875	0.412841796875	1	upper	amplitud.ttf
2049.554	n/a	WORD	1024777	wordpools/wasnorm_wordpool.txt	LTP075	ltpFR	8	8	1	PERFUME	1049	n/a	n/a	0	n/a	0	0	0	0.57763671875	0.412841796875	1	upper	amplitud.ttf
2053.386	n/a	WORD	1026693	wordpools/wasnorm_wordpool.txt	LTP075	ltpFR	8	8	1	COMMANDER	354	n/a	n/a	1	n/a	0	0	0	0.57763671875	0.412841796875	1	upper	amplitud.ttf
2057.252	n/a	WORD	1028626	wordpools/wasnorm_wordpool.txt	LTP075	ltpFR	8	8	1	COBRA	336	n/a	n/a	1	n/a	0	0	0	0.57763671875	0.412841796875	1	upper	amplitud.ttf
2061.094	n/a	WORD	1030547	wordpools/wasnorm_wordpool.txt	LTP075	ltpFR	8	8	1	PORCUPINE	1107	n/a	n/a	1	n/a	0	0	0	0.57763671875	0.412841796875	1	upper	amplitud.ttf
2065.036	n/a	WORD	1032518	wordpools/wasnorm_wordpool.txt	LTP075	ltpFR	8	8	1	VELVET	1555	n/a	n/a	0	n/a	0	0	0	0.57763671875	0.412841796875	1	upper	amplitud.ttf
2068.904	n/a	WORD	1034452	wordpools/wasnorm_wordpool.txt	LTP075	ltpFR	8	8	1	LILY	821	n/a	n/a	1	n/a	0	0	0	0.57763671875	0.412841796875	1	upper	amplitud.ttf
2071.912	n/a	START	1035956	n/a	LTP075	ltpFR	8	n/a	n/a	n/a	n/a	n/a	n/a	n/a	n/a	n/a	n/a	n/a	n/a	n/a	n/a	n/a	n/a
2072.828	n/a	PROB	1036414	n/a	LTP075	ltpFR	8	n/a	n/a	n/a	n/a	n/a	n/a	n/a	7	5	3	2	n/a	n/a	n/a	n/a	n/a
2075.602	n/a	PROB	1037801	n/a	LTP075	ltpFR	8	n/a	n/a	n/a	n/a	n/a	n/a	n/a	15	1	9	5	n/a	n/a	n/a	n/a	n/a
2077.194	n/a	PROB	1038597	n/a	LTP075	ltpFR	8	n/a	n/a	n/a	n/a	n/a	n/a	n/a	10	7	2	1	n/a	n/a	n/a	n/a	n/a
2078.394	n/a	STOP	1039197	n/a	LTP075	ltpFR	8	n/a	n/a	n/a	n/a	n/a	n/a	n/a	n/a	n/a	n/a	n/a	n/a	n/a	n/a	n/a	n/a
2081.744	n/a	REC_START	1040872	n/a	LTP075	ltpFR	8	8	n/a	n/a	n/a	n/a	n/a	n/a	n/a	0	0	0	n/a	n/a	n/a	n/a	n/a
2083.22	n/a	REC_WORD	1041610	wordpools/wasnorm_wordpool.txt	LTP075	ltpFR	8	8	1	ORCHID	982	n/a	n/a	1	n/a	0	0	0	n/a	n/a	n/a	n/a	n/a
2084.956	n/a	REC_WORD	1042478	wordpools/wasnorm_wordpool.txt	LTP075	ltpFR	8	8	1	LILY	821	n/a	n/a	1	n/a	0	0	0	n/a	n/a	n/a	n/a	n/a
2094.636	n/a	REC_WORD	1047318	wordpools/wasnorm_wordpool.txt	LTP075	ltpFR	8	8	1	PORCUPINE	1107	n/a	n/a	1	n/a	0	0	0	n/a	n/a	n/a	n/a	n/a
2097.52	n/a	REC_WORD	1048760	wordpools/wasnorm_wordpool.txt	LTP075	ltpFR	8	8	1	ALLIGATOR	16	n/a	n/a	1	n/a	0	0	0	n/a	n/a	n/a	n/a	n/a
2105.666	n/a	REC_WORD	1052833	wordpools/wasnorm_wordpool.txt	LTP075	ltpFR	8	8	1	RADIATOR	1156	n/a	n/a	0	n/a	0	0	0	n/a	n/a	n/a	n/a	n/a
2112.532	n/a	REC_WORD	1056266	wordpools/wasnorm_wordpool.txt	LTP075	ltpFR	8	8	1	COMMANDER	354	n/a	n/a	1	n/a	0	0	0	n/a	n/a	n/a	n/a	n/a
2161.992	n/a	START	1080996	n/a	LTP075	ltpFR	8	n/a	n/a	n/a	n/a	n/a	n/a	n/a	n/a	n/a	n/a	n/a	n/a	n/a	n/a	n/a	n/a
2163.5	n/a	PROB	1081750	n/a	LTP075	ltpFR	8	n/a	n/a	n/a	n/a	n/a	n/a	n/a	21	9	4	8	n/a	n/a	n/a	n/a	n/a
2165.392	n/a	PROB	1082696	n/a	LTP075	ltpFR	8	n/a	n/a	n/a	n/a	n/a	n/a	n/a	15	3	5	7	n/a	n/a	n/a	n/a	n/a
2167.092	n/a	PROB	1083546	n/a	LTP075	ltpFR	8	n/a	n/a	n/a	n/a	n/a	n/a	n/a	15	6	2	7	n/a	n/a	n/a	n/a	n/a
2169.102	n/a	STOP	1084551	n/a	LTP075	ltpFR	8	n/a	n/a	n/a	n/a	n/a	n/a	n/a	n/a	n/a	n/a	n/a	n/a	n/a	n/a	n/a	n/a
2171.008	n/a	WORD	1085504	wordpools/wasnorm_wordpool.txt	LTP075	ltpFR	8	9	1	PICTURE	1061	n/a	n/a	0	n/a	0	0	0	0.57763671875	0.412841796875	1	upper	amplitud.ttf
2174.01	n/a	START	1087005	n/a	LTP075	ltpFR	8	n/a	n/a	n/a	n/a	n/a	n/a	n/a	n/a	n/a	n/a	n/a	n/a	n/a	n/a	n/a	n/a
2174.876	n/a	PROB	1087438	n/a	LTP075	ltpFR	8	n/a	n/a	n/a	n/a	n/a	n/a	n/a	17	9	3	5	n/a	n/a	n/a	n/a	n/a
2176.45	n/a	PROB	1088225	n/a	LTP075	ltpFR	8	n/a	n/a	n/a	n/a	n/a	n/a	n/a	8	2	1	5	n/a	n/a	n/a	n/a	n/a
2177.766	n/a	PROB	1088883	n/a	LTP075	ltpFR	8	n/a	n/a	n/a	n/a	n/a	n/a	n/a	19	5	7	7	n/a	n/a	n/a	n/a	n/a
2179.366	n/a	PROB	1089683	n/a	LTP075	ltpFR	8	n/a	n/a	n/a	n/a	n/a	n/a	n/a	15	2	5	8	n/a	n/a	n/a	n/a	n/a
2180.91	n/a	STOP	1090455	n/a	LTP075	ltpFR	8	n/a	n/a	n/a	n/a	n/a	n/a	n/a	n/a	n/a	n/a	n/a	n/a	n/a	n/a	n/a	n/a
2183.016	n/a	WORD	1091508	wordpools/wasnorm_wordpool.txt	LTP075	ltpFR	8	9	1	BED	110	n/a	n/a	0	n/a	0	0	0	0.57763671875	0.412841796875	1	upper	amplitud.ttf
2186.026	n/a	START	1093013	n/a	LTP075	ltpFR	8	n/a	n/a	n/a	n/a	n/a	n/a	n/a	n/a	n/a	n/a	n/a	n/a	n/a	n/a	n/a	n/a
2187.15	n/a	PROB	1093575	n/a	LTP075	ltpFR	8	n/a	n/a	n/a	n/a	n/a	n/a	n/a	22	6	7	9	n/a	n/a	n/a	n/a	n/a
2189.032	n/a	PROB	1094516	n/a	LTP075	ltpFR	8	n/a	n/a	n/a	n/a	n/a	n/a	n/a	8	1	2	5	n/a	n/a	n/a	n/a	n/a
2190.382	n/a	PROB	1095191	n/a	LTP075	ltpFR	8	n/a	n/a	n/a	n/a	n/a	n/a	n/a	13	7	1	4	n/a	n/a	n/a	n/a	n/a
2191.766	n/a	PROB	1095883	n/a	LTP075	ltpFR	8	n/a	n/a	n/a	n/a	n/a	n/a	n/a	10	1	7	2	n/a	n/a	n/a	n/a	n/a
2193.448	n/a	STOP	1096724	n/a	LTP075	ltpFR	8	n/a	n/a	n/a	n/a	n/a	n/a	n/a	n/a	n/a	n/a	n/a	n/a	n/a	n/a	n/a	n/a
2195.158	n/a	WORD	1097579	wordpools/wasnorm_wordpool.txt	LTP075	ltpFR	8	9	1	DINER	467	n/a	n/a	0	n/a	0	0	0	0.57763671875	0.412841796875	1	upper	amplitud.ttf
2198.166	n/a	START	1099083	n/a	LTP075	ltpFR	8	n/a	n/a	n/a	n/a	n/a	n/a	n/a	n/a	n/a	n/a	n/a	n/a	n/a	n/a	n/a	n/a
2199.124	n/a	PROB	1099562	n/a	LTP075	ltpFR	8	n/a	n/a	n/a	n/a	n/a	n/a	n/a	17	7	7	3	n/a	n/a	n/a	n/a	n/a
2200.658	n/a	PROB	1100329	n/a	LTP075	ltpFR	8	n/a	n/a	n/a	n/a	n/a	n/a	n/a	19	5	9	5	n/a	n/a	n/a	n/a	n/a
2202.732	n/a	PROB	1101366	n/a	LTP075	ltpFR	8	n/a	n/a	n/a	n/a	n/a	n/a	n/a	11	1	3	7	n/a	n/a	n/a	n/a	n/a
2203.924	n/a	PROB	1101962	n/a	LTP075	ltpFR	8	n/a	n/a	n/a	n/a	n/a	n/a	n/a	20	5	7	8	n/a	n/a	n/a	n/a	n/a
2205.52	n/a	STOP	1102760	n/a	LTP075	ltpFR	8	n/a	n/a	n/a	n/a	n/a	n/a	n/a	n/a	n/a	n/a	n/a	n/a	n/a	n/a	n/a	n/a
2207.34	n/a	WORD	1103670	wordpools/wasnorm_wordpool.txt	LTP075	ltpFR	8	9	1	POTATO	1115	n/a	n/a	1	n/a	0	0	0	0.57763671875	0.412841796875	1	upper	amplitud.ttf
2210.35	n/a	START	1105175	n/a	LTP075	ltpFR	8	n/a	n/a	n/a	n/a	n/a	n/a	n/a	n/a	n/a	n/a	n/a	n/a	n/a	n/a	n/a	n/a
2211.206	n/a	PROB	1105603	n/a	LTP075	ltpFR	8	n/a	n/a	n/a	n/a	n/a	n/a	n/a	12	6	2	4	n/a	n/a	n/a	n/a	n/a
2213.332	n/a	PROB	1106666	n/a	LTP075	ltpFR	8	n/a	n/a	n/a	n/a	n/a	n/a	n/a	8	6	1	2	n/a	n/a	n/a	n/a	n/a
2214.816	n/a	PROB	1107408	n/a	LTP075	ltpFR	8	n/a	n/a	n/a	n/a	n/a	n/a	n/a	12	6	5	1	n/a	n/a	n/a	n/a	n/a
2216.5	n/a	PROB	1108250	n/a	LTP075	ltpFR	8	n/a	n/a	n/a	n/a	n/a	n/a	n/a	19	7	9	3	n/a	n/a	n/a	n/a	n/a
2218.296	n/a	STOP	1109148	n/a	LTP075	ltpFR	8	n/a	n/a	n/a	n/a	n/a	n/a	n/a	n/a	n/a	n/a	n/a	n/a	n/a	n/a	n/a	n/a
2219.206	n/a	WORD	1109603	wordpools/wasnorm_wordpool.txt	LTP075	ltpFR	8	9	1	SALESMAN	1225	n/a	n/a	1	n/a	0	0	0	0.57763671875	0.412841796875	1	upper	amplitud.ttf
2222.216	n/a	START	1111108	n/a	LTP075	ltpFR	8	n/a	n/a	n/a	n/a	n/a	n/a	n/a	n/a	n/a	n/a	n/a	n/a	n/a	n/a	n/a	n/a
2223.348	n/a	PROB	1111674	n/a	LTP075	ltpFR	8	n/a	n/a	n/a	n/a	n/a	n/a	n/a	17	3	7	7	n/a	n/a	n/a	n/a	n/a
2224.648	n/a	PROB	1112324	n/a	LTP075	ltpFR	8	n/a	n/a	n/a	n/a	n/a	n/a	n/a	18	7	8	3	n/a	n/a	n/a	n/a	n/a
2226.032	n/a	PROB	1113016	n/a	LTP075	ltpFR	8	n/a	n/a	n/a	n/a	n/a	n/a	n/a	24	9	7	8	n/a	n/a	n/a	n/a	n/a
2228.348	n/a	PROB	1114174	n/a	LTP075	ltpFR	8	n/a	n/a	n/a	n/a	n/a	n/a	n/a	16	2	6	8	n/a	n/a	n/a	n/a	n/a
2229.656	n/a	STOP	1114828	n/a	LTP075	ltpFR	8	n/a	n/a	n/a	n/a	n/a	n/a	n/a	n/a	n/a	n/a	n/a	n/a	n/a	n/a	n/a	n/a
2231.048	n/a	WORD	1115524	wordpools/wasnorm_wordpool.txt	LTP075	ltpFR	8	9	1	DIAGRAM	456	n/a	n/a	0	n/a	0	0	0	0.57763671875	0.412841796875	1	upper	amplitud.ttf
2234.058	n/a	START	1117029	n/a	LTP075	ltpFR	8	n/a	n/a	n/a	n/a	n/a	n/a	n/a	n/a	n/a	n/a	n/a	n/a	n/a	n/a	n/a	n/a
2234.966	n/a	PROB	1117483	n/a	LTP075	ltpFR	8	n/a	n/a	n/a	n/a	n/a	n/a	n/a	12	7	3	2	n/a	n/a	n/a	n/a	n/a
2237.116	n/a	PROB	1118558	n/a	LTP075	ltpFR	8	n/a	n/a	n/a	n/a	n/a	n/a	n/a	12	6	2	4	n/a	n/a	n/a	n/a	n/a
2238.866	n/a	PROB	1119433	n/a	LTP075	ltpFR	8	n/a	n/a	n/a	n/a	n/a	n/a	n/a	18	1	8	9	n/a	n/a	n/a	n/a	n/a
2240.148	n/a	PROB	1120074	n/a	LTP075	ltpFR	8	n/a	n/a	n/a	n/a	n/a	n/a	n/a	12	3	3	6	n/a	n/a	n/a	n/a	n/a
2241.554	n/a	STOP	1120777	n/a	LTP075	ltpFR	8	n/a	n/a	n/a	n/a	n/a	n/a	n/a	n/a	n/a	n/a	n/a	n/a	n/a	n/a	n/a	n/a
2243.182	n/a	WORD	1121591	wordpools/wasnorm_wordpool.txt	LTP075	ltpFR	8	9	1	CANAL	226	n/a	n/a	0	n/a	0	0	0	0.57763671875	0.412841796875	1	upper	amplitud.ttf
2246.19	n/a	START	1123095	n/a	LTP075	ltpFR	8	n/a	n/a	n/a	n/a	n/a	n/a	n/a	n/a	n/a	n/a	n/a	n/a	n/a	n/a	n/a	n/a
2247.048	n/a	PROB	1123524	n/a	LTP075	ltpFR	8	n/a	n/a	n/a	n/a	n/a	n/a	n/a	10	5	3	2	n/a	n/a	n/a	n/a	n/a
2248.706	n/a	PROB	1124353	n/a	LTP075	ltpFR	8	n/a	n/a	n/a	n/a	n/a	n/a	n/a	18	8	5	5	n/a	n/a	n/a	n/a	n/a
2250.522	n/a	PROB	1125261	n/a	LTP075	ltpFR	8	n/a	n/a	n/a	n/a	n/a	n/a	n/a	25	9	7	9	n/a	n/a	n/a	n/a	n/a
2253.224	n/a	STOP	1126612	n/a	LTP075	ltpFR	8	n/a	n/a	n/a	n/a	n/a	n/a	n/a	n/a	n/a	n/a	n/a	n/a	n/a	n/a	n/a	n/a
2255.206	n/a	WORD	1127603	wordpools/wasnorm_wordpool.txt	LTP075	ltpFR	8	9	1	SQUIRREL	1362	n/a	n/a	1	n/a	0	0	0	0.57763671875	0.412841796875	1	upper	amplitud.ttf
2258.214	n/a	START	1129107	n/a	LTP075	ltpFR	8	n/a	n/a	n/a	n/a	n/a	n/a	n/a	n/a	n/a	n/a	n/a	n/a	n/a	n/a	n/a	n/a
2259.33	n/a	PROB	1129665	n/a	LTP075	ltpFR	8	n/a	n/a	n/a	n/a	n/a	n/a	n/a	18	3	6	9	n/a	n/a	n/a	n/a	n/a
2261.156	n/a	PROB	1130578	n/a	LTP075	ltpFR	8	n/a	n/a	n/a	n/a	n/a	n/a	n/a	17	4	5	8	n/a	n/a	n/a	n/a	n/a
2262.582	n/a	PROB	1131291	n/a	LTP075	ltpFR	8	n/a	n/a	n/a	n/a	n/a	n/a	n/a	14	5	5	4	n/a	n/a	n/a	n/a	n/a
2263.732	n/a	PROB	1131866	n/a	LTP075	ltpFR	8	n/a	n/a	n/a	n/a	n/a	n/a	n/a	13	4	5	4	n/a	n/a	n/a	n/a	n/a
2265.186	n/a	STOP	1132593	n/a	LTP075	ltpFR	8	n/a	n/a	n/a	n/a	n/a	n/a	n/a	n/a	n/a	n/a	n/a	n/a	n/a	n/a	n/a	n/a
2267.406	n/a	WORD	1133703	wordpools/wasnorm_wordpool.txt	LTP075	ltpFR	8	9	1	PASSENGER	1020	n/a	n/a	1	n/a	0	0	0	0.57763671875	0.412841796875	1	upper	amplitud.ttf
2270.406	n/a	START	1135203	n/a	LTP075	ltpFR	8	n/a	n/a	n/a	n/a	n/a	n/a	n/a	n/a	n/a	n/a	n/a	n/a	n/a	n/a	n/a	n/a
2271.48	n/a	PROB	1135740	n/a	LTP075	ltpFR	8	n/a	n/a	n/a	n/a	n/a	n/a	n/a	11	3	4	4	n/a	n/a	n/a	n/a	n/a
2274.548	n/a	PROB	1137274	n/a	LTP075	ltpFR	8	n/a	n/a	n/a	n/a	n/a	n/a	n/a	8	1	4	3	n/a	n/a	n/a	n/a	n/a
2278.408	n/a	STOP	1139204	n/a	LTP075	ltpFR	8	n/a	n/a	n/a	n/a	n/a	n/a	n/a	n/a	n/a	n/a	n/a	n/a	n/a	n/a	n/a	n/a
2279.54	n/a	WORD	1139770	wordpools/wasnorm_wordpool.txt	LTP075	ltpFR	8	9	1	HAWK	692	n/a	n/a	1	n/a	0	0	0	0.57763671875	0.412841796875	1	upper	amplitud.ttf
2282.548	n/a	START	1141274	n/a	LTP075	ltpFR	8	n/a	n/a	n/a	n/a	n/a	n/a	n/a	n/a	n/a	n/a	n/a	n/a	n/a	n/a	n/a	n/a
2283.748	n/a	PROB	1141874	n/a	LTP075	ltpFR	8	n/a	n/a	n/a	n/a	n/a	n/a	n/a	11	3	7	1	n/a	n/a	n/a	n/a	n/a
2284.898	n/a	PROB	1142449	n/a	LTP075	ltpFR	8	n/a	n/a	n/a	n/a	n/a	n/a	n/a	17	7	4	6	n/a	n/a	n/a	n/a	n/a
2286.312	n/a	PROB	1143156	n/a	LTP075	ltpFR	8	n/a	n/a	n/a	n/a	n/a	n/a	n/a	15	1	5	9	n/a	n/a	n/a	n/a	n/a
2287.706	n/a	PROB	1143853	n/a	LTP075	ltpFR	8	n/a	n/a	n/a	n/a	n/a	n/a	n/a	11	3	5	3	n/a	n/a	n/a	n/a	n/a
2289.396	n/a	STOP	1144698	n/a	LTP075	ltpFR	8	n/a	n/a	n/a	n/a	n/a	n/a	n/a	n/a	n/a	n/a	n/a	n/a	n/a	n/a	n/a	n/a
2291.414	n/a	WORD	1145707	wordpools/wasnorm_wordpool.txt	LTP075	ltpFR	8	9	1	BIRD	129	n/a	n/a	1	n/a	0	0	0	0.57763671875	0.412841796875	1	upper	amplitud.ttf
2294.422	n/a	START	1147211	n/a	LTP075	ltpFR	8	n/a	n/a	n/a	n/a	n/a	n/a	n/a	n/a	n/a	n/a	n/a	n/a	n/a	n/a	n/a	n/a
2295.246	n/a	PROB	1147623	n/a	LTP075	ltpFR	8	n/a	n/a	n/a	n/a	n/a	n/a	n/a	18	7	3	8	n/a	n/a	n/a	n/a	n/a
2297.18	n/a	PROB	1148590	n/a	LTP075	ltpFR	8	n/a	n/a	n/a	n/a	n/a	n/a	n/a	18	6	8	4	n/a	n/a	n/a	n/a	n/a
2299.43	n/a	PROB	1149715	n/a	LTP075	ltpFR	8	n/a	n/a	n/a	n/a	n/a	n/a	n/a	13	6	1	6	n/a	n/a	n/a	n/a	n/a
2301.796	n/a	STOP	1150898	n/a	LTP075	ltpFR	8	n/a	n/a	n/a	n/a	n/a	n/a	n/a	n/a	n/a	n/a	n/a	n/a	n/a	n/a	n/a	n/a
2303.312	n/a	WORD	1151656	wordpools/wasnorm_wordpool.txt	LTP075	ltpFR	8	9	1	PUMP	1141	n/a	n/a	0	n/a	0	0	0	0.57763671875	0.412841796875	1	upper	amplitud.ttf
2306.322	n/a	START	1153161	n/a	LTP075	ltpFR	8	n/a	n/a	n/a	n/a	n/a	n/a	n/a	n/a	n/a	n/a	n/a	n/a	n/a	n/a	n/a	n/a
2307.312	n/a	PROB	1153656	n/a	LTP075	ltpFR	8	n/a	n/a	n/a	n/a	n/a	n/a	n/a	13	6	1	7	n/a	n/a	n/a	n/a	n/a
2308.814	n/a	PROB	1154407	n/a	LTP075	ltpFR	8	n/a	n/a	n/a	n/a	n/a	n/a	n/a	17	4	3	8	n/a	n/a	n/a	n/a	n/a
2310.546	n/a	PROB	1155273	n/a	LTP075	ltpFR	8	n/a	n/a	n/a	n/a	n/a	n/a	n/a	11	2	3	6	n/a	n/a	n/a	n/a	n/a
2312.296	n/a	PROB	1156148	n/a	LTP075	ltpFR	8	n/a	n/a	n/a	n/a	n/a	n/a	n/a	15	2	6	7	n/a	n/a	n/a	n/a	n/a
2314.212	n/a	STOP	1157106	n/a	LTP075	ltpFR	8	n/a	n/a	n/a	n/a	n/a	n/a	n/a	n/a	n/a	n/a	n/a	n/a	n/a	n/a	n/a	n/a
2315.348	n/a	WORD	1157674	wordpools/wasnorm_wordpool.txt	LTP075	ltpFR	8	9	1	TUTU	1524	n/a	n/a	0	n/a	0	0	0	0.57763671875	0.412841796875	1	upper	amplitud.ttf
2318.356	n/a	START	1159178	n/a	LTP075	ltpFR	8	n/a	n/a	n/a	n/a	n/a	n/a	n/a	n/a	n/a	n/a	n/a	n/a	n/a	n/a	n/a	n/a
2319.38	n/a	PROB	1159690	n/a	LTP075	ltpFR	8	n/a	n/a	n/a	n/a	n/a	n/a	n/a	15	8	4	3	n/a	n/a	n/a	n/a	n/a
2322.312	n/a	PROB	1161156	n/a	LTP075	ltpFR	8	n/a	n/a	n/a	n/a	n/a	n/a	n/a	15	3	4	8	n/a	n/a	n/a	n/a	n/a
2324.088	n/a	PROB	1162044	n/a	LTP075	ltpFR	8	n/a	n/a	n/a	n/a	n/a	n/a	n/a	15	6	5	4	n/a	n/a	n/a	n/a	n/a
2325.382	n/a	STOP	1162691	n/a	LTP075	ltpFR	8	n/a	n/a	n/a	n/a	n/a	n/a	n/a	n/a	n/a	n/a	n/a	n/a	n/a	n/a	n/a	n/a
2327.496	n/a	WORD	1163748	wordpools/wasnorm_wordpool.txt	LTP075	ltpFR	8	9	1	COUCH	386	n/a	n/a	0	n/a	0	0	0	0.57763671875	0.412841796875	1	upper	amplitud.ttf
2330.504	n/a	START	1165252	n/a	LTP075	ltpFR	8	n/a	n/a	n/a	n/a	n/a	n/a	n/a	n/a	n/a	n/a	n/a	n/a	n/a	n/a	n/a	n/a
2331.596	n/a	PROB	1165798	n/a	LTP075	ltpFR	8	n/a	n/a	n/a	n/a	n/a	n/a	n/a	8	1	1	6	n/a	n/a	n/a	n/a	n/a
2332.888	n/a	PROB	1166444	n/a	LTP075	ltpFR	8	n/a	n/a	n/a	n/a	n/a	n/a	n/a	17	2	9	6	n/a	n/a	n/a	n/a	n/a
2334.488	n/a	PROB	1167244	n/a	LTP075	ltpFR	8	n/a	n/a	n/a	n/a	n/a	n/a	n/a	22	9	7	6	n/a	n/a	n/a	n/a	n/a
2337.198	n/a	STOP	1168599	n/a	LTP075	ltpFR	8	n/a	n/a	n/a	n/a	n/a	n/a	n/a	n/a	n/a	n/a	n/a	n/a	n/a	n/a	n/a	n/a
2339.646	n/a	WORD	1169823	wordpools/wasnorm_wordpool.txt	LTP075	ltpFR	8	9	1	POLYESTER	1100	n/a	n/a	0	n/a	0	0	0	0.57763671875	0.412841796875	1	upper	amplitud.ttf
2342.654	n/a	START	1171327	n/a	LTP075	ltpFR	8	n/a	n/a	n/a	n/a	n/a	n/a	n/a	n/a	n/a	n/a	n/a	n/a	n/a	n/a	n/a	n/a
2343.746	n/a	PROB	1171873	n/a	LTP075	ltpFR	8	n/a	n/a	n/a	n/a	n/a	n/a	n/a	21	8	5	9	n/a	n/a	n/a	n/a	n/a
2346.488	n/a	PROB	1173244	n/a	LTP075	ltpFR	8	n/a	n/a	n/a	n/a	n/a	n/a	n/a	10	2	2	6	n/a	n/a	n/a	n/a	n/a
2348.294	n/a	PROB	1174147	n/a	LTP075	ltpFR	8	n/a	n/a	n/a	n/a	n/a	n/a	n/a	22	8	7	7	n/a	n/a	n/a	n/a	n/a
2349.79	n/a	STOP	1174895	n/a	LTP075	ltpFR	8	n/a	n/a	n/a	n/a	n/a	n/a	n/a	n/a	n/a	n/a	n/a	n/a	n/a	n/a	n/a	n/a
2351.496	n/a	WORD	1175748	wordpools/wasnorm_wordpool.txt	LTP075	ltpFR	8	9	1	VEST	1559	n/a	n/a	0	n/a	0	0	0	0.57763671875	0.412841796875	1	upper	amplitud.ttf
2354.504	n/a	START	1177252	n/a	LTP075	ltpFR	8	n/a	n/a	n/a	n/a	n/a	n/a	n/a	n/a	n/a	n/a	n/a	n/a	n/a	n/a	n/a	n/a
2355.336	n/a	PROB	1177668	n/a	LTP075	ltpFR	8	n/a	n/a	n/a	n/a	n/a	n/a	n/a	13	8	1	4	n/a	n/a	n/a	n/a	n/a
2356.888	n/a	PROB	1178444	n/a	LTP075	ltpFR	8	n/a	n/a	n/a	n/a	n/a	n/a	n/a	22	9	6	7	n/a	n/a	n/a	n/a	n/a
2360.046	n/a	PROB	1180023	n/a	LTP075	ltpFR	8	n/a	n/a	n/a	n/a	n/a	n/a	n/a	8	6	1	1	n/a	n/a	n/a	n/a	n/a
2361.176	n/a	STOP	1180588	n/a	LTP075	ltpFR	8	n/a	n/a	n/a	n/a	n/a	n/a	n/a	n/a	n/a	n/a	n/a	n/a	n/a	n/a	n/a	n/a
2364.362	n/a	REC_START	1182181	n/a	LTP075	ltpFR	8	9	n/a	n/a	n/a	n/a	n/a	n/a	n/a	0	0	0	n/a	n/a	n/a	n/a	n/a
2366.232	n/a	REC_WORD	1183116	wordpools/wasnorm_wordpool.txt	LTP075	ltpFR	8	9	1	VEST	1559	n/a	n/a	0	n/a	0	0	0	n/a	n/a	n/a	n/a	n/a
2368.224	n/a	REC_WORD	1184112	wordpools/wasnorm_wordpool.txt	LTP075	ltpFR	8	9	1	DINER	467	n/a	n/a	0	n/a	0	0	0	n/a	n/a	n/a	n/a	n/a
2370.878	n/a	REC_WORD	1185439	wordpools/wasnorm_wordpool.txt	LTP075	ltpFR	8	9	1	SQUIRREL	1362	n/a	n/a	1	n/a	0	0	0	n/a	n/a	n/a	n/a	n/a
2374.18	n/a	REC_WORD	1187090	wordpools/wasnorm_wordpool.txt	LTP075	ltpFR	8	9	1	SALESMAN	1225	n/a	n/a	1	n/a	0	0	0	n/a	n/a	n/a	n/a	n/a
2393.542	n/a	REC_WORD	1196771	wordpools/wasnorm_wordpool.txt	LTP075	ltpFR	8	9	1	POLYESTER	1100	n/a	n/a	0	n/a	0	0	0	n/a	n/a	n/a	n/a	n/a
2406.11	n/a	REC_WORD	1203055	wordpools/wasnorm_wordpool.txt	LTP075	ltpFR	8	9	1	HAWK	692	n/a	n/a	1	n/a	0	0	0	n/a	n/a	n/a	n/a	n/a
2449.234	n/a	WORD	1224617	wordpools/wasnorm_wordpool.txt	LTP075	ltpFR	8	10	0	PICKLE	1059	n/a	n/a	0	n/a	0	0	0	0.422607421875	0.5869140625	0	lower	zerothre.ttf
2453.052	n/a	WORD	1226526	wordpools/wasnorm_wordpool.txt	LTP075	ltpFR	8	10	0	ZUCCHINI	1638	n/a	n/a	0	n/a	0	0	0	0.422607421875	0.5869140625	0	lower	zerothre.ttf
2457.068	n/a	WORD	1228534	wordpools/wasnorm_wordpool.txt	LTP075	ltpFR	8	10	0	LINEN	825	n/a	n/a	1	n/a	0	0	0	0.422607421875	0.5869140625	0	lower	zerothre.ttf
2460.91	n/a	WORD	1230455	wordpools/wasnorm_wordpool.txt	LTP075	ltpFR	8	10	0	TUBE	1516	n/a	n/a	0	n/a	0	0	0	0.422607421875	0.5869140625	0	lower	zerothre.ttf
2464.794	n/a	WORD	1232397	wordpools/wasnorm_wordpool.txt	LTP075	ltpFR	8	10	0	CHURCH	307	n/a	n/a	1	n/a	0	0	0	0.422607421875	0.5869140625	0	lower	zerothre.ttf
2468.684	n/a	WORD	1234342	wordpools/wasnorm_wordpool.txt	LTP075	ltpFR	8	10	0	CORN	381	n/a	n/a	0	n/a	0	0	0	0.422607421875	0.5869140625	0	lower	zerothre.ttf
2472.776	n/a	WORD	1236388	wordpools/wasnorm_wordpool.txt	LTP075	ltpFR	8	10	0	BUFFALO	186	n/a	n/a	1	n/a	0	0	0	0.422607421875	0.5869140625	0	lower	zerothre.ttf
2476.768	n/a	WORD	1238384	wordpools/wasnorm_wordpool.txt	LTP075	ltpFR	8	10	0	DOUGHNUT	490	n/a	n/a	0	n/a	0	0	0	0.422607421875	0.5869140625	0	lower	zerothre.ttf
2480.96	n/a	WORD	1240480	wordpools/wasnorm_wordpool.txt	LTP075	ltpFR	8	10	0	FACE	547	n/a	n/a	1	n/a	0	0	0	0.422607421875	0.5869140625	0	lower	zerothre.ttf
2484.976	n/a	WORD	1242488	wordpools/wasnorm_wordpool.txt	LTP075	ltpFR	8	10	0	WHEAT	1602	n/a	n/a	0	n/a	0	0	0	0.422607421875	0.5869140625	0	lower	zerothre.ttf
2488.876	n/a	WORD	1244438	wordpools/wasnorm_wordpool.txt	LTP075	ltpFR	8	10	0	CAPITAL	238	n/a	n/a	1	n/a	0	0	0	0.422607421875	0.5869140625	0	lower	zerothre.ttf
2492.768	n/a	WORD	1246384	wordpools/wasnorm_wordpool.txt	LTP075	ltpFR	8	10	0	SUBURB	1399	n/a	n/a	1	n/a	0	0	0	0.422607421875	0.5869140625	0	lower	zerothre.ttf
2496.934	n/a	WORD	1248467	wordpools/wasnorm_wordpool.txt	LTP075	ltpFR	8	10	0	CATTLE	261	n/a	n/a	1	n/a	0	0	0	0.422607421875	0.5869140625	0	lower	zerothre.ttf
2500.834	n/a	WORD	1250417	wordpools/wasnorm_wordpool.txt	LTP075	ltpFR	8	10	0	CHEEK	287	n/a	n/a	0	n/a	0	0	0	0.422607421875	0.5869140625	0	lower	zerothre.ttf
2504.976	n/a	WORD	1252488	wordpools/wasnorm_wordpool.txt	LTP075	ltpFR	8	10	0	ROBOT	1200	n/a	n/a	1	n/a	0	0	0	0.422607421875	0.5869140625	0	lower	zerothre.ttf
2508.876	n/a	WORD	1254438	wordpools/wasnorm_wordpool.txt	LTP075	ltpFR	8	10	0	RECORD	1176	n/a	n/a	0	n/a	0	0	0	0.422607421875	0.5869140625	0	lower	zerothre.ttf
2511.884	n/a	START	1255942	n/a	LTP075	ltpFR	8	n/a	n/a	n/a	n/a	n/a	n/a	n/a	n/a	n/a	n/a	n/a	n/a	n/a	n/a	n/a	n/a
2512.784	n/a	PROB	1256392	n/a	LTP075	ltpFR	8	n/a	n/a	n/a	n/a	n/a	n/a	n/a	16	9	4	3	n/a	n/a	n/a	n/a	n/a
2515.0	n/a	PROB	1257500	n/a	LTP075	ltpFR	8	n/a	n/a	n/a	n/a	n/a	n/a	n/a	16	7	8	1	n/a	n/a	n/a	n/a	n/a
2516.384	n/a	PROB	1258192	n/a	LTP075	ltpFR	8	n/a	n/a	n/a	n/a	n/a	n/a	n/a	21	9	9	3	n/a	n/a	n/a	n/a	n/a
2517.758	n/a	PROB	1258879	n/a	LTP075	ltpFR	8	n/a	n/a	n/a	n/a	n/a	n/a	n/a	16	5	4	7	n/a	n/a	n/a	n/a	n/a
2519.616	n/a	PROB	1259808	n/a	LTP075	ltpFR	8	n/a	n/a	n/a	n/a	n/a	n/a	n/a	17	8	1	8	n/a	n/a	n/a	n/a	n/a
2521.024	n/a	PROB	1260512	n/a	LTP075	ltpFR	8	n/a	n/a	n/a	n/a	n/a	n/a	n/a	16	5	9	2	n/a	n/a	n/a	n/a	n/a
2522.426	n/a	PROB	1261213	n/a	LTP075	ltpFR	8	n/a	n/a	n/a	n/a	n/a	n/a	n/a	16	9	6	1	n/a	n/a	n/a	n/a	n/a
2524.026	n/a	PROB	1262013	n/a	LTP075	ltpFR	8	n/a	n/a	n/a	n/a	n/a	n/a	n/a	25	9	8	8	n/a	n/a	n/a	n/a	n/a
2525.934	n/a	PROB	1262967	n/a	LTP075	ltpFR	8	n/a	n/a	n/a	n/a	n/a	n/a	n/a	25	8	9	8	n/a	n/a	n/a	n/a	n/a
2527.632	n/a	STOP	1263816	n/a	LTP075	ltpFR	8	n/a	n/a	n/a	n/a	n/a	n/a	n/a	n/a	n/a	n/a	n/a	n/a	n/a	n/a	n/a	n/a
2529.75	n/a	REC_START	1264875	n/a	LTP075	ltpFR	8	10	n/a	n/a	n/a	n/a	n/a	n/a	n/a	0	0	0	n/a	n/a	n/a	n/a	n/a
2531.422	n/a	REC_WORD	1265711	wordpools/wasnorm_wordpool.txt	LTP075	ltpFR	8	10	0	CATTLE	261	n/a	n/a	1	n/a	0	0	0	n/a	n/a	n/a	n/a	n/a
2537.158	n/a	REC_WORD	1268579	wordpools/wasnorm_wordpool.txt	LTP075	ltpFR	8	10	0	PICKLE	1059	n/a	n/a	0	n/a	0	0	0	n/a	n/a	n/a	n/a	n/a
2538.924	n/a	REC_WORD	1269462	wordpools/wasnorm_wordpool.txt	LTP075	ltpFR	8	10	0	ZUCCHINI	1638	n/a	n/a	0	n/a	0	0	0	n/a	n/a	n/a	n/a	n/a
2541.552	n/a	REC_WORD	1270776	wordpools/wasnorm_wordpool.txt	LTP075	ltpFR	8	10	0	FACE	547	n/a	n/a	1	n/a	0	0	0	n/a	n/a	n/a	n/a	n/a
2544.134	n/a	REC_WORD	1272067	wordpools/wasnorm_wordpool.txt	LTP075	ltpFR	8	10	0	CHEEK	287	n/a	n/a	0	n/a	0	0	0	n/a	n/a	n/a	n/a	n/a
2612.198	n/a	WORD	1306099	wordpools/wasnorm_wordpool.txt	LTP075	ltpFR	8	11	1	WAX	1597	n/a	n/a	0	n/a	0	0	0	0.57763671875	0.412841796875	1	upper	amplitud.ttf
2616.398	n/a	WORD	1308199	wordpools/wasnorm_wordpool.txt	LTP075	ltpFR	8	11	1	MOTOR	922	n/a	n/a	0	n/a	0	0	0	0.57763671875	0.412841796875	1	upper	amplitud.ttf
2620.33	n/a	WORD	1310165	wordpools/wasnorm_wordpool.txt	LTP075	ltpFR	8	11	1	GIRAFFE	636	n/a	n/a	1	n/a	0	0	0	0.57763671875	0.412841796875	1	upper	amplitud.ttf
2624.254	n/a	WORD	1312127	wordpools/wasnorm_wordpool.txt	LTP075	ltpFR	8	11	1	CHIPMUNK	304	n/a	n/a	1	n/a	0	0	0	0.57763671875	0.412841796875	1	upper	amplitud.ttf
2628.44	n/a	WORD	1314220	wordpools/wasnorm_wordpool.txt	LTP075	ltpFR	8	11	0	VINE	1568	n/a	n/a	0	n/a	0	0	0	0.422607421875	0.5869140625	0	lower	zerothre.ttf
2632.254	n/a	WORD	1316127	wordpools/wasnorm_wordpool.txt	LTP075	ltpFR	8	11	0	MOTHER	921	n/a	n/a	1	n/a	0	0	0	0.422607421875	0.5869140625	0	lower	zerothre.ttf
2636.13	n/a	WORD	1318065	wordpools/wasnorm_wordpool.txt	LTP075	ltpFR	8	11	0	RIB	1188	n/a	n/a	0	n/a	0	0	0	0.422607421875	0.5869140625	0	lower	zerothre.ttf
2640.312	n/a	WORD	1320156	wordpools/wasnorm_wordpool.txt	LTP075	ltpFR	8	11	0	ANCESTOR	20	n/a	n/a	0	n/a	0	0	0	0.422607421875	0.5869140625	0	lower	zerothre.ttf
2644.412	n/a	WORD	1322206	wordpools/wasnorm_wordpool.txt	LTP075	ltpFR	8	11	1	RAFT	1159	n/a	n/a	n/a	n/a	0	0	0	0.57763671875	0.412841796875	1	upper	amplitud.ttf
2647.438	n/a	SLOW_MSG	1323719	n/a	LTP075	ltpFR	8	11	n/a	n/a	n/a	n/a	n/a	n/a	n/a	0	0	0	n/a	n/a	n/a	n/a	n/a
2649.78	n/a	WORD	1324890	wordpools/wasnorm_wordpool.txt	LTP075	ltpFR	8	11	1	FOUNTAIN	597	n/a	n/a	0	n/a	0	0	0	0.57763671875	0.412841796875	1	upper	amplitud.ttf
2653.98	n/a	WORD	1326990	wordpools/wasnorm_wordpool.txt	LTP075	ltpFR	8	11	0	GROCERIES	663	n/a	n/a	1	n/a	0	0	0	0.422607421875	0.5869140625	0	lower	zerothre.ttf
2657.996	n/a	WORD	1328998	wordpools/wasnorm_wordpool.txt	LTP075	ltpFR	8	11	0	MONASTERY	907	n/a	n/a	1	n/a	0	0	0	0.422607421875	0.5869140625	0	lower	zerothre.ttf
2662.204	n/a	WORD	1331102	wordpools/wasnorm_wordpool.txt	LTP075	ltpFR	8	11	0	BABY	64	n/a	n/a	0	n/a	0	0	0	0.422607421875	0.5869140625	0	lower	zerothre.ttf
2666.244	n/a	WORD	1333122	wordpools/wasnorm_wordpool.txt	LTP075	ltpFR	8	11	0	RAG	1160	n/a	n/a	0	n/a	0	0	0	0.422607421875	0.5869140625	0	lower	zerothre.ttf
2670.104	n/a	WORD	1335052	wordpools/wasnorm_wordpool.txt	LTP075	ltpFR	8	11	1	PRIEST	1122	n/a	n/a	1	n/a	0	0	0	0.57763671875	0.412841796875	1	upper	amplitud.ttf
2674.22	n/a	WORD	1337110	wordpools/wasnorm_wordpool.txt	LTP075	ltpFR	8	11	1	GOWN	652	n/a	n/a	0	n/a	0	0	0	0.57763671875	0.412841796875	1	upper	amplitud.ttf
2680.096	n/a	REC_START	1340048	n/a	LTP075	ltpFR	8	11	n/a	n/a	n/a	n/a	n/a	n/a	n/a	0	0	0	n/a	n/a	n/a	n/a	n/a
2681.09	n/a	REC_WORD	1340545	wordpools/wasnorm_wordpool.txt	LTP075	ltpFR	8	11	1	PRIEST	1122	n/a	n/a	1	n/a	0	0	0	n/a	n/a	n/a	n/a	n/a
2682.136	n/a	REC_WORD	1341068	wordpools/wasnorm_wordpool.txt	LTP075	ltpFR	8	11	1	GOWN	652	n/a	n/a	0	n/a	0	0	0	n/a	n/a	n/a	n/a	n/a
2684.122	n/a	REC_WORD	1342061	wordpools/wasnorm_wordpool.txt	LTP075	ltpFR	8	11	0	MONASTERY	907	n/a	n/a	1	n/a	0	0	0	n/a	n/a	n/a	n/a	n/a
2686.268	n/a	REC_WORD	1343134	wordpools/wasnorm_wordpool.txt	LTP075	ltpFR	8	11	0	ANCESTOR	20	n/a	n/a	0	n/a	0	0	0	n/a	n/a	n/a	n/a	n/a
2699.932	n/a	REC_WORD	1349966	wordpools/wasnorm_wordpool.txt	LTP075	ltpFR	8	11	0	BABY	64	n/a	n/a	0	n/a	0	0	0	n/a	n/a	n/a	n/a	n/a
2709.906	n/a	REC_WORD	1354953	wordpools/wasnorm_wordpool.txt	LTP075	ltpFR	8	11	1	GIRAFFE	636	n/a	n/a	1	n/a	0	0	0	n/a	n/a	n/a	n/a	n/a
2720.64	n/a	REC_WORD	1360320	wordpools/wasnorm_wordpool.txt	LTP075	ltpFR	8	11	1	FOUNTAIN	597	n/a	n/a	0	n/a	0	0	0	n/a	n/a	n/a	n/a	n/a
2723.768	n/a	REC_WORD	1361884	wordpools/wasnorm_wordpool.txt	LTP075	ltpFR	8	11	0	VINE	1568	n/a	n/a	0	n/a	0	0	0	n/a	n/a	n/a	n/a	n/a
2757.712	n/a	START	1378856	n/a	LTP075	ltpFR	8	n/a	n/a	n/a	n/a	n/a	n/a	n/a	n/a	n/a	n/a	n/a	n/a	n/a	n/a	n/a	n/a
2759.218	n/a	PROB	1379609	n/a	LTP075	ltpFR	8	n/a	n/a	n/a	n/a	n/a	n/a	n/a	15	8	4	3	n/a	n/a	n/a	n/a	n/a
2761.36	n/a	PROB	1380680	n/a	LTP075	ltpFR	8	n/a	n/a	n/a	n/a	n/a	n/a	n/a	9	2	2	5	n/a	n/a	n/a	n/a	n/a
2762.818	n/a	PROB	1381409	n/a	LTP075	ltpFR	8	n/a	n/a	n/a	n/a	n/a	n/a	n/a	11	2	6	3	n/a	n/a	n/a	n/a	n/a
2764.676	n/a	PROB	1382338	n/a	LTP075	ltpFR	8	n/a	n/a	n/a	n/a	n/a	n/a	n/a	15	3	4	8	n/a	n/a	n/a	n/a	n/a
2766.486	n/a	PROB	1383243	n/a	LTP075	ltpFR	8	n/a	n/a	n/a	n/a	n/a	n/a	n/a	16	8	2	6	n/a	n/a	n/a	n/a	n/a
2767.668	n/a	PROB	1383834	n/a	LTP075	ltpFR	8	n/a	n/a	n/a	n/a	n/a	n/a	n/a	19	5	8	6	n/a	n/a	n/a	n/a	n/a
2770.268	n/a	PROB	1385134	n/a	LTP075	ltpFR	8	n/a	n/a	n/a	n/a	n/a	n/a	n/a	19	5	7	7	n/a	n/a	n/a	n/a	n/a
2771.668	n/a	PROB	1385834	n/a	LTP075	ltpFR	8	n/a	n/a	n/a	n/a	n/a	n/a	n/a	12	2	6	4	n/a	n/a	n/a	n/a	n/a
2773.412	n/a	STOP	1386706	n/a	LTP075	ltpFR	8	n/a	n/a	n/a	n/a	n/a	n/a	n/a	n/a	n/a	n/a	n/a	n/a	n/a	n/a	n/a	n/a
2774.56	n/a	WORD	1387280	wordpools/wasnorm_wordpool.txt	LTP075	ltpFR	8	12	1	PANTHER	1009	n/a	n/a	1	n/a	0	0	0	0.57763671875	0.412841796875	1	upper	amplitud.ttf
2777.568	n/a	START	1388784	n/a	LTP075	ltpFR	8	n/a	n/a	n/a	n/a	n/a	n/a	n/a	n/a	n/a	n/a	n/a	n/a	n/a	n/a	n/a	n/a
2778.536	n/a	PROB	1389268	n/a	LTP075	ltpFR	8	n/a	n/a	n/a	n/a	n/a	n/a	n/a	18	8	8	2	n/a	n/a	n/a	n/a	n/a
2779.976	n/a	PROB	1389988	n/a	LTP075	ltpFR	8	n/a	n/a	n/a	n/a	n/a	n/a	n/a	17	3	7	7	n/a	n/a	n/a	n/a	n/a
2781.35	n/a	PROB	1390675	n/a	LTP075	ltpFR	8	n/a	n/a	n/a	n/a	n/a	n/a	n/a	22	8	7	8	n/a	n/a	n/a	n/a	n/a
2782.794	n/a	PROB	1391397	n/a	LTP075	ltpFR	8	n/a	n/a	n/a	n/a	n/a	n/a	n/a	9	3	5	1	n/a	n/a	n/a	n/a	n/a
2784.234	n/a	PROB	1392117	n/a	LTP075	ltpFR	8	n/a	n/a	n/a	n/a	n/a	n/a	n/a	13	2	6	5	n/a	n/a	n/a	n/a	n/a
2786.134	n/a	PROB	1393067	n/a	LTP075	ltpFR	8	n/a	n/a	n/a	n/a	n/a	n/a	n/a	17	7	6	4	n/a	n/a	n/a	n/a	n/a
2788.126	n/a	PROB	1394063	n/a	LTP075	ltpFR	8	n/a	n/a	n/a	n/a	n/a	n/a	n/a	9	2	1	6	n/a	n/a	n/a	n/a	n/a
2790.234	n/a	PROB	1395117	n/a	LTP075	ltpFR	8	n/a	n/a	n/a	n/a	n/a	n/a	n/a	18	3	7	8	n/a	n/a	n/a	n/a	n/a
2792.002	n/a	PROB	1396001	n/a	LTP075	ltpFR	8	n/a	n/a	n/a	n/a	n/a	n/a	n/a	12	2	3	7	n/a	n/a	n/a	n/a	n/a
2793.108	n/a	STOP	1396554	n/a	LTP075	ltpFR	8	n/a	n/a	n/a	n/a	n/a	n/a	n/a	n/a	n/a	n/a	n/a	n/a	n/a	n/a	n/a	n/a
2794.626	n/a	WORD	1397313	wordpools/wasnorm_wordpool.txt	LTP075	ltpFR	8	12	1	DINOSAUR	469	n/a	n/a	0	n/a	0	0	0	0.57763671875	0.412841796875	1	upper	amplitud.ttf
2797.636	n/a	START	1398818	n/a	LTP075	ltpFR	8	n/a	n/a	n/a	n/a	n/a	n/a	n/a	n/a	n/a	n/a	n/a	n/a	n/a	n/a	n/a	n/a
2798.66	n/a	PROB	1399330	n/a	LTP075	ltpFR	8	n/a	n/a	n/a	n/a	n/a	n/a	n/a	16	2	7	7	n/a	n/a	n/a	n/a	n/a
2800.11	n/a	PROB	1400055	n/a	LTP075	ltpFR	8	n/a	n/a	n/a	n/a	n/a	n/a	n/a	15	7	3	5	n/a	n/a	n/a	n/a	n/a
2801.218	n/a	PROB	1400609	n/a	LTP075	ltpFR	8	n/a	n/a	n/a	n/a	n/a	n/a	n/a	9	5	1	3	n/a	n/a	n/a	n/a	n/a
2802.492	n/a	PROB	1401246	n/a	LTP075	ltpFR	8	n/a	n/a	n/a	n/a	n/a	n/a	n/a	11	1	1	9	n/a	n/a	n/a	n/a	n/a
2803.66	n/a	PROB	1401830	n/a	LTP075	ltpFR	8	n/a	n/a	n/a	n/a	n/a	n/a	n/a	12	3	7	2	n/a	n/a	n/a	n/a	n/a
2804.85	n/a	PROB	1402425	n/a	LTP075	ltpFR	8	n/a	n/a	n/a	n/a	n/a	n/a	n/a	15	2	9	4	n/a	n/a	n/a	n/a	n/a
2806.66	n/a	PROB	1403330	n/a	LTP075	ltpFR	8	n/a	n/a	n/a	n/a	n/a	n/a	n/a	14	4	4	5	n/a	n/a	n/a	n/a	n/a
2808.3	n/a	PROB	1404150	n/a	LTP075	ltpFR	8	n/a	n/a	n/a	n/a	n/a	n/a	n/a	13	5	4	4	n/a	n/a	n/a	n/a	n/a
2809.918	n/a	PROB	1404959	n/a	LTP075	ltpFR	8	n/a	n/a	n/a	n/a	n/a	n/a	n/a	17	3	5	9	n/a	n/a	n/a	n/a	n/a
2811.652	n/a	PROB	1405826	n/a	LTP075	ltpFR	8	n/a	n/a	n/a	n/a	n/a	n/a	n/a	10	7	2	1	n/a	n/a	n/a	n/a	n/a
2812.782	n/a	STOP	1406391	n/a	LTP075	ltpFR	8	n/a	n/a	n/a	n/a	n/a	n/a	n/a	n/a	n/a	n/a	n/a	n/a	n/a	n/a	n/a	n/a
2814.476	n/a	WORD	1407238	wordpools/wasnorm_wordpool.txt	LTP075	ltpFR	8	12	1	TANK	1432	n/a	n/a	0	n/a	0	0	0	0.57763671875	0.412841796875	1	upper	amplitud.ttf
2817.484	n/a	START	1408742	n/a	LTP075	ltpFR	8	n/a	n/a	n/a	n/a	n/a	n/a	n/a	n/a	n/a	n/a	n/a	n/a	n/a	n/a	n/a	n/a
2818.292	n/a	PROB	1409146	n/a	LTP075	ltpFR	8	n/a	n/a	n/a	n/a	n/a	n/a	n/a	12	2	3	7	n/a	n/a	n/a	n/a	n/a
2819.358	n/a	PROB	1409679	n/a	LTP075	ltpFR	8	n/a	n/a	n/a	n/a	n/a	n/a	n/a	18	4	8	6	n/a	n/a	n/a	n/a	n/a
2821.366	n/a	PROB	1410683	n/a	LTP075	ltpFR	8	n/a	n/a	n/a	n/a	n/a	n/a	n/a	17	8	5	1	n/a	n/a	n/a	n/a	n/a
2823.108	n/a	PROB	1411554	n/a	LTP075	ltpFR	8	n/a	n/a	n/a	n/a	n/a	n/a	n/a	18	7	4	7	n/a	n/a	n/a	n/a	n/a
2824.634	n/a	PROB	1412317	n/a	LTP075	ltpFR	8	n/a	n/a	n/a	n/a	n/a	n/a	n/a	15	2	5	8	n/a	n/a	n/a	n/a	n/a
2826.176	n/a	PROB	1413088	n/a	LTP075	ltpFR	8	n/a	n/a	n/a	n/a	n/a	n/a	n/a	16	7	2	7	n/a	n/a	n/a	n/a	n/a
2827.592	n/a	PROB	1413796	n/a	LTP075	ltpFR	8	n/a	n/a	n/a	n/a	n/a	n/a	n/a	20	8	7	5	n/a	n/a	n/a	n/a	n/a
2830.224	n/a	PROB	1415112	n/a	LTP075	ltpFR	8	n/a	n/a	n/a	n/a	n/a	n/a	n/a	17	9	3	5	n/a	n/a	n/a	n/a	n/a
2832.742	n/a	STOP	1416371	n/a	LTP075	ltpFR	8	n/a	n/a	n/a	n/a	n/a	n/a	n/a	n/a	n/a	n/a	n/a	n/a	n/a	n/a	n/a	n/a
2834.6	n/a	WORD	1417300	wordpools/wasnorm_wordpool.txt	LTP075	ltpFR	8	12	1	TRANSPLANT	1496	n/a	n/a	0	n/a	0	0	0	0.57763671875	0.412841796875	1	upper	amplitud.ttf
2837.61	n/a	START	1418805	n/a	LTP075	ltpFR	8	n/a	n/a	n/a	n/a	n/a	n/a	n/a	n/a	n/a	n/a	n/a	n/a	n/a	n/a	n/a	n/a
2838.6	n/a	PROB	1419300	n/a	LTP075	ltpFR	8	n/a	n/a	n/a	n/a	n/a	n/a	n/a	10	4	2	4	n/a	n/a	n/a	n/a	n/a
2840.516	n/a	PROB	1420258	n/a	LTP075	ltpFR	8	n/a	n/a	n/a	n/a	n/a	n/a	n/a	9	6	2	1	n/a	n/a	n/a	n/a	n/a
2841.926	n/a	PROB	1420963	n/a	LTP075	ltpFR	8	n/a	n/a	n/a	n/a	n/a	n/a	n/a	10	4	5	1	n/a	n/a	n/a	n/a	n/a
2843.224	n/a	PROB	1421612	n/a	LTP075	ltpFR	8	n/a	n/a	n/a	n/a	n/a	n/a	n/a	17	4	6	7	n/a	n/a	n/a	n/a	n/a
2845.074	n/a	PROB	1422537	n/a	LTP075	ltpFR	8	n/a	n/a	n/a	n/a	n/a	n/a	n/a	7	2	2	3	n/a	n/a	n/a	n/a	n/a
2846.616	n/a	PROB	1423308	n/a	LTP075	ltpFR	8	n/a	n/a	n/a	n/a	n/a	n/a	n/a	18	9	8	1	n/a	n/a	n/a	n/a	n/a
2848.55	n/a	PROB	1424275	n/a	LTP075	ltpFR	8	n/a	n/a	n/a	n/a	n/a	n/a	n/a	12	6	1	5	n/a	n/a	n/a	n/a	n/a
2850.042	n/a	PROB	1425021	n/a	LTP075	ltpFR	8	n/a	n/a	n/a	n/a	n/a	n/a	n/a	19	8	9	4	n/a	n/a	n/a	n/a	n/a
2851.666	n/a	PROB	1425833	n/a	LTP075	ltpFR	8	n/a	n/a	n/a	n/a	n/a	n/a	n/a	6	1	1	4	n/a	n/a	n/a	n/a	n/a
2852.944	n/a	STOP	1426472	n/a	LTP075	ltpFR	8	n/a	n/a	n/a	n/a	n/a	n/a	n/a	n/a	n/a	n/a	n/a	n/a	n/a	n/a	n/a	n/a
2854.434	n/a	WORD	1427217	wordpools/wasnorm_wordpool.txt	LTP075	ltpFR	8	12	0	AMBULANCE	19	n/a	n/a	1	n/a	0	0	0	0.422607421875	0.5869140625	0	lower	zerothre.ttf
2857.442	n/a	START	1428721	n/a	LTP075	ltpFR	8	n/a	n/a	n/a	n/a	n/a	n/a	n/a	n/a	n/a	n/a	n/a	n/a	n/a	n/a	n/a	n/a
2858.534	n/a	PROB	1429267	n/a	LTP075	ltpFR	8	n/a	n/a	n/a	n/a	n/a	n/a	n/a	14	4	4	6	n/a	n/a	n/a	n/a	n/a
2859.758	n/a	PROB	1429879	n/a	LTP075	ltpFR	8	n/a	n/a	n/a	n/a	n/a	n/a	n/a	17	5	4	8	n/a	n/a	n/a	n/a	n/a
2861.29	n/a	PROB	1430645	n/a	LTP075	ltpFR	8	n/a	n/a	n/a	n/a	n/a	n/a	n/a	13	1	8	4	n/a	n/a	n/a	n/a	n/a
2862.674	n/a	PROB	1431337	n/a	LTP075	ltpFR	8	n/a	n/a	n/a	n/a	n/a	n/a	n/a	25	7	7	9	n/a	n/a	n/a	n/a	n/a
2864.182	n/a	PROB	1432091	n/a	LTP075	ltpFR	8	n/a	n/a	n/a	n/a	n/a	n/a	n/a	16	8	6	2	n/a	n/a	n/a	n/a	n/a
2866.058	n/a	PROB	1433029	n/a	LTP075	ltpFR	8	n/a	n/a	n/a	n/a	n/a	n/a	n/a	11	6	4	1	n/a	n/a	n/a	n/a	n/a
2867.306	n/a	PROB	1433653	n/a	LTP075	ltpFR	8	n/a	n/a	n/a	n/a	n/a	n/a	n/a	21	5	8	9	n/a	n/a	n/a	n/a	n/a
2870.05	n/a	PROB	1435025	n/a	LTP075	ltpFR	8	n/a	n/a	n/a	n/a	n/a	n/a	n/a	9	2	5	2	n/a	n/a	n/a	n/a	n/a
2871.332	n/a	PROB	1435666	n/a	LTP075	ltpFR	8	n/a	n/a	n/a	n/a	n/a	n/a	n/a	14	6	5	4	n/a	n/a	n/a	n/a	n/a
2872.64	n/a	STOP	1436320	n/a	LTP075	ltpFR	8	n/a	n/a	n/a	n/a	n/a	n/a	n/a	n/a	n/a	n/a	n/a	n/a	n/a	n/a	n/a	n/a
2874.484	n/a	WORD	1437242	wordpools/wasnorm_wordpool.txt	LTP075	ltpFR	8	12	0	PEAR	1033	n/a	n/a	0	n/a	0	0	0	0.422607421875	0.5869140625	0	lower	zerothre.ttf
2877.492	n/a	START	1438746	n/a	LTP075	ltpFR	8	n/a	n/a	n/a	n/a	n/a	n/a	n/a	n/a	n/a	n/a	n/a	n/a	n/a	n/a	n/a	n/a
2878.316	n/a	PROB	1439158	n/a	LTP075	ltpFR	8	n/a	n/a	n/a	n/a	n/a	n/a	n/a	7	5	3	2	n/a	n/a	n/a	n/a	n/a
2880.508	n/a	PROB	1440254	n/a	LTP075	ltpFR	8	n/a	n/a	n/a	n/a	n/a	n/a	n/a	27	8	9	9	n/a	n/a	n/a	n/a	n/a
2883.364	n/a	PROB	1441682	n/a	LTP075	ltpFR	8	n/a	n/a	n/a	n/a	n/a	n/a	n/a	13	3	5	5	n/a	n/a	n/a	n/a	n/a
2884.582	n/a	PROB	1442291	n/a	LTP075	ltpFR	8	n/a	n/a	n/a	n/a	n/a	n/a	n/a	20	5	6	9	n/a	n/a	n/a	n/a	n/a
2886.29	n/a	PROB	1443145	n/a	LTP075	ltpFR	8	n/a	n/a	n/a	n/a	n/a	n/a	n/a	23	9	9	5	n/a	n/a	n/a	n/a	n/a
2888.174	n/a	PROB	1444087	n/a	LTP075	ltpFR	8	n/a	n/a	n/a	n/a	n/a	n/a	n/a	15	9	3	3	n/a	n/a	n/a	n/a	n/a
2890.19	n/a	PROB	1445095	n/a	LTP075	ltpFR	8	n/a	n/a	n/a	n/a	n/a	n/a	n/a	6	1	2	3	n/a	n/a	n/a	n/a	n/a
2893.492	n/a	STOP	1446746	n/a	LTP075	ltpFR	8	n/a	n/a	n/a	n/a	n/a	n/a	n/a	n/a	n/a	n/a	n/a	n/a	n/a	n/a	n/a	n/a
2894.408	n/a	WORD	1447204	wordpools/wasnorm_wordpool.txt	LTP075	ltpFR	8	12	0	CHERRY	293	n/a	n/a	0	n/a	0	0	0	0.422607421875	0.5869140625	0	lower	zerothre.ttf
2897.416	n/a	START	1448708	n/a	LTP075	ltpFR	8	n/a	n/a	n/a	n/a	n/a	n/a	n/a	n/a	n/a	n/a	n/a	n/a	n/a	n/a	n/a	n/a
2898.39	n/a	PROB	1449195	n/a	LTP075	ltpFR	8	n/a	n/a	n/a	n/a	n/a	n/a	n/a	12	9	2	1	n/a	n/a	n/a	n/a	n/a
2900.082	n/a	PROB	1450041	n/a	LTP075	ltpFR	8	n/a	n/a	n/a	n/a	n/a	n/a	n/a	10	8	1	1	n/a	n/a	n/a	n/a	n/a
2901.558	n/a	PROB	1450779	n/a	LTP075	ltpFR	8	n/a	n/a	n/a	n/a	n/a	n/a	n/a	12	4	2	6	n/a	n/a	n/a	n/a	n/a
2902.924	n/a	PROB	1451462	n/a	LTP075	ltpFR	8	n/a	n/a	n/a	n/a	n/a	n/a	n/a	14	8	5	1	n/a	n/a	n/a	n/a	n/a
2905.032	n/a	PROB	1452516	n/a	LTP075	ltpFR	8	n/a	n/a	n/a	n/a	n/a	n/a	n/a	17	4	8	5	n/a	n/a	n/a	n/a	n/a
2906.924	n/a	PROB	1453462	n/a	LTP075	ltpFR	8	n/a	n/a	n/a	n/a	n/a	n/a	n/a	12	5	2	5	n/a	n/a	n/a	n/a	n/a
2908.256	n/a	PROB	1454128	n/a	LTP075	ltpFR	8	n/a	n/a	n/a	n/a	n/a	n/a	n/a	12	5	2	5	n/a	n/a	n/a	n/a	n/a
2909.264	n/a	PROB	1454632	n/a	LTP075	ltpFR	8	n/a	n/a	n/a	n/a	n/a	n/a	n/a	12	1	2	9	n/a	n/a	n/a	n/a	n/a
2910.724	n/a	PROB	1455362	n/a	LTP075	ltpFR	8	n/a	n/a	n/a	n/a	n/a	n/a	n/a	17	9	1	7	n/a	n/a	n/a	n/a	n/a
2912.058	n/a	STOP	1456029	n/a	LTP075	ltpFR	8	n/a	n/a	n/a	n/a	n/a	n/a	n/a	n/a	n/a	n/a	n/a	n/a	n/a	n/a	n/a	n/a
2914.288	n/a	WORD	1457144	wordpools/wasnorm_wordpool.txt	LTP075	ltpFR	8	12	0	THUMB	1462	n/a	n/a	0	n/a	0	0	0	0.422607421875	0.5869140625	0	lower	zerothre.ttf
