onset	duration	trial_type	sample	stim_file	subject	experiment	session	trial	item_name	item_num	list	answer	test_x	test_y	test_z
250.152	n/a	SESS_START	125076	n/a	LTP311	ltpFR2	12	n/a	n/a	n/a	n/a	n/a	0	0	0
267.452	n/a	START	133726	n/a	LTP311	ltpFR2	12	n/a	n/a	n/a	-1	n/a	n/a	n/a	n/a
267.482	n/a	PROB	133741	n/a	LTP311	ltpFR2	12	n/a	n/a	n/a	-1	14	6	5	3
269.766	n/a	PROB	134883	n/a	LTP311	ltpFR2	12	n/a	n/a	n/a	-1	17	7	5	5
270.918	n/a	PROB	135459	n/a	LTP311	ltpFR2	12	n/a	n/a	n/a	-1	7	3	3	1
272.052	n/a	PROB	136026	n/a	LTP311	ltpFR2	12	n/a	n/a	n/a	-1	20	8	7	5
273.754	n/a	PROB	136877	n/a	LTP311	ltpFR2	12	n/a	n/a	n/a	-1	13	7	4	2
275.088	n/a	PROB	137544	n/a	LTP311	ltpFR2	12	n/a	n/a	n/a	-1	16	2	6	8
276.404	n/a	PROB	138202	n/a	LTP311	ltpFR2	12	n/a	n/a	n/a	-1	18	9	4	5
279.452	n/a	STOP	139726	n/a	LTP311	ltpFR2	12	n/a	n/a	n/a	-1	n/a	n/a	n/a	n/a
344.776	n/a	WORD	172388	wordpools/wasnorm_wordpool_576.txt	LTP311	ltpFR2	12	1	GYMNAST	675	n/a	n/a	0	0	0
347.478	n/a	WORD	173739	wordpools/wasnorm_wordpool_576.txt	LTP311	ltpFR2	12	1	COWBOY	395	n/a	n/a	0	0	0
350.18	n/a	WORD	175090	wordpools/wasnorm_wordpool_576.txt	LTP311	ltpFR2	12	1	DRESS	495	n/a	n/a	0	0	0
352.654	n/a	WORD	176327	wordpools/wasnorm_wordpool_576.txt	LTP311	ltpFR2	12	1	BRAKE	166	n/a	n/a	0	0	0
355.384	n/a	WORD	177692	wordpools/wasnorm_wordpool_576.txt	LTP311	ltpFR2	12	1	GLASS	639	n/a	n/a	0	0	0
357.91	n/a	WORD	178955	wordpools/wasnorm_wordpool_576.txt	LTP311	ltpFR2	12	1	CONTRACT	368	n/a	n/a	0	0	0
360.676	n/a	WORD	180338	wordpools/wasnorm_wordpool_576.txt	LTP311	ltpFR2	12	1	GRAPE	654	n/a	n/a	0	0	0
363.208	n/a	WORD	181604	wordpools/wasnorm_wordpool_576.txt	LTP311	ltpFR2	12	1	BUBBLE	183	n/a	n/a	0	0	0
365.708	n/a	WORD	182854	wordpools/wasnorm_wordpool_576.txt	LTP311	ltpFR2	12	1	BALLOON	75	n/a	n/a	0	0	0
368.134	n/a	WORD	184067	wordpools/wasnorm_wordpool_576.txt	LTP311	ltpFR2	12	1	LIPSTICK	829	n/a	n/a	0	0	0
370.596	n/a	WORD	185298	wordpools/wasnorm_wordpool_576.txt	LTP311	ltpFR2	12	1	CLOTHES	327	n/a	n/a	0	0	0
373.254	n/a	WORD	186627	wordpools/wasnorm_wordpool_576.txt	LTP311	ltpFR2	12	1	BABY	64	n/a	n/a	0	0	0
375.89	n/a	WORD	187945	wordpools/wasnorm_wordpool_576.txt	LTP311	ltpFR2	12	1	RATTLE	1170	n/a	n/a	0	0	0
378.386	n/a	WORD	189193	wordpools/wasnorm_wordpool_576.txt	LTP311	ltpFR2	12	1	SCOTCH	1251	n/a	n/a	0	0	0
380.854	n/a	WORD	190427	wordpools/wasnorm_wordpool_576.txt	LTP311	ltpFR2	12	1	RUG	1215	n/a	n/a	0	0	0
383.28	n/a	WORD	191640	wordpools/wasnorm_wordpool_576.txt	LTP311	ltpFR2	12	1	BINDER	127	n/a	n/a	0	0	0
386.008	n/a	WORD	193004	wordpools/wasnorm_wordpool_576.txt	LTP311	ltpFR2	12	1	NOVEL	960	n/a	n/a	0	0	0
388.726	n/a	WORD	194363	wordpools/wasnorm_wordpool_576.txt	LTP311	ltpFR2	12	1	LAGOON	795	n/a	n/a	0	0	0
391.27	n/a	WORD	195635	wordpools/wasnorm_wordpool_576.txt	LTP311	ltpFR2	12	1	JUGGLER	763	n/a	n/a	0	0	0
393.948	n/a	WORD	196974	wordpools/wasnorm_wordpool_576.txt	LTP311	ltpFR2	12	1	BROTHER	179	n/a	n/a	0	0	0
396.54	n/a	WORD	198270	wordpools/wasnorm_wordpool_576.txt	LTP311	ltpFR2	12	1	BACKBONE	66	n/a	n/a	0	0	0
399.252	n/a	WORD	199626	wordpools/wasnorm_wordpool_576.txt	LTP311	ltpFR2	12	1	PIGMENT	1066	n/a	n/a	0	0	0
401.812	n/a	WORD	200906	wordpools/wasnorm_wordpool_576.txt	LTP311	ltpFR2	12	1	CLOUD	328	n/a	n/a	0	0	0
404.282	n/a	WORD	202141	wordpools/wasnorm_wordpool_576.txt	LTP311	ltpFR2	12	1	GIRL	637	n/a	n/a	0	0	0
405.892	n/a	START	202946	n/a	LTP311	ltpFR2	12	n/a	n/a	n/a	1	n/a	n/a	n/a	n/a
406.878	n/a	DISTRACTOR	203439	n/a	LTP311	ltpFR2	12	1	n/a	n/a	n/a	n/a	0	0	0
406.884	n/a	PROB	203442	n/a	LTP311	ltpFR2	12	n/a	n/a	n/a	1	13	4	2	7
408.976	n/a	PROB	204488	n/a	LTP311	ltpFR2	12	n/a	n/a	n/a	1	9	5	2	2
410.944	n/a	PROB	205472	n/a	LTP311	ltpFR2	12	n/a	n/a	n/a	1	19	7	3	9
412.062	n/a	PROB	206031	n/a	LTP311	ltpFR2	12	n/a	n/a	n/a	1	13	2	5	6
414.048	n/a	PROB	207024	n/a	LTP311	ltpFR2	12	n/a	n/a	n/a	1	6	3	2	1
415.13	n/a	PROB	207565	n/a	LTP311	ltpFR2	12	n/a	n/a	n/a	1	15	6	1	8
416.562	n/a	PROB	208281	n/a	LTP311	ltpFR2	12	n/a	n/a	n/a	1	14	4	5	5
417.564	n/a	PROB	208782	n/a	LTP311	ltpFR2	12	n/a	n/a	n/a	1	13	4	1	8
419.148	n/a	PROB	209574	n/a	LTP311	ltpFR2	12	n/a	n/a	n/a	1	16	5	3	8
420.684	n/a	PROB	210342	n/a	LTP311	ltpFR2	12	n/a	n/a	n/a	1	16	7	7	2
421.984	n/a	PROB	210992	n/a	LTP311	ltpFR2	12	n/a	n/a	n/a	1	21	6	6	9
423.486	n/a	PROB	211743	n/a	LTP311	ltpFR2	12	n/a	n/a	n/a	1	22	6	7	9
425.272	n/a	PROB	212636	n/a	LTP311	ltpFR2	12	n/a	n/a	n/a	1	16	5	4	7
428.24	n/a	PROB	214120	n/a	LTP311	ltpFR2	12	n/a	n/a	n/a	1	22	9	4	9
429.626	n/a	STOP	214813	n/a	LTP311	ltpFR2	12	n/a	n/a	n/a	1	n/a	n/a	n/a	n/a
431.644	n/a	REC_START	215822	n/a	LTP311	ltpFR2	12	1	n/a	n/a	n/a	n/a	0	0	0
432.9	n/a	REC_WORD	216450	wordpools/wasnorm_wordpool_576.txt	LTP311	ltpFR2	12	1	GYMNAST	675	n/a	n/a	0	0	0
434.448	n/a	REC_WORD	217224	wordpools/wasnorm_wordpool_576.txt	LTP311	ltpFR2	12	1	COWBOY	395	n/a	n/a	0	0	0
436.048	n/a	REC_WORD	218024	wordpools/wasnorm_wordpool_576.txt	LTP311	ltpFR2	12	1	WEDDING	-1	n/a	n/a	0	0	0
438.77	n/a	REC_WORD	219385	wordpools/wasnorm_wordpool_576.txt	LTP311	ltpFR2	12	1	DRESS	495	n/a	n/a	0	0	0
443.91	n/a	REC_WORD	221955	wordpools/wasnorm_wordpool_576.txt	LTP311	ltpFR2	12	1	GLASS	639	n/a	n/a	0	0	0
445.34	n/a	REC_WORD	222670	wordpools/wasnorm_wordpool_576.txt	LTP311	ltpFR2	12	1	BRAKE	166	n/a	n/a	0	0	0
447.994	n/a	REC_WORD	223997	wordpools/wasnorm_wordpool_576.txt	LTP311	ltpFR2	12	1	CONTRACT	368	n/a	n/a	0	0	0
449.498	n/a	REC_WORD	224749	wordpools/wasnorm_wordpool_576.txt	LTP311	ltpFR2	12	1	GRAPE	654	n/a	n/a	0	0	0
450.976	n/a	REC_WORD	225488	wordpools/wasnorm_wordpool_576.txt	LTP311	ltpFR2	12	1	BUBBLE	183	n/a	n/a	0	0	0
463.43	n/a	REC_WORD	231715	wordpools/wasnorm_wordpool_576.txt	LTP311	ltpFR2	12	1	CLOTHES	327	n/a	n/a	0	0	0
464.058	n/a	REC_WORD	232029	wordpools/wasnorm_wordpool_576.txt	LTP311	ltpFR2	12	1	BABY	64	n/a	n/a	0	0	0
464.454	n/a	REC_WORD	232227	wordpools/wasnorm_wordpool_576.txt	LTP311	ltpFR2	12	1	RATTLE	1170	n/a	n/a	0	0	0
475.508	n/a	REC_WORD	237754	wordpools/wasnorm_wordpool_576.txt	LTP311	ltpFR2	12	1	SCOTCH	1251	n/a	n/a	0	0	0
476.508	n/a	REC_WORD_VV	238254	wordpools/wasnorm_wordpool_576.txt	LTP311	ltpFR2	12	1	<>	-1	n/a	n/a	0	0	0
477.308	n/a	REC_WORD	238654	wordpools/wasnorm_wordpool_576.txt	LTP311	ltpFR2	12	1	RUG	1215	n/a	n/a	0	0	0
478.088	n/a	REC_WORD	239044	wordpools/wasnorm_wordpool_576.txt	LTP311	ltpFR2	12	1	NOVEL	960	n/a	n/a	0	0	0
479.114	n/a	REC_WORD	239557	wordpools/wasnorm_wordpool_576.txt	LTP311	ltpFR2	12	1	LAGOON	795	n/a	n/a	0	0	0
481.096	n/a	REC_WORD	240548	wordpools/wasnorm_wordpool_576.txt	LTP311	ltpFR2	12	1	BROTHER	179	n/a	n/a	0	0	0
481.536	n/a	REC_WORD	240768	wordpools/wasnorm_wordpool_576.txt	LTP311	ltpFR2	12	1	BACKBONE	66	n/a	n/a	0	0	0
483.964	n/a	REC_WORD	241982	wordpools/wasnorm_wordpool_576.txt	LTP311	ltpFR2	12	1	GIRL	637	n/a	n/a	0	0	0
487.1	n/a	REC_WORD	243550	wordpools/wasnorm_wordpool_576.txt	LTP311	ltpFR2	12	1	PIGMENT	1066	n/a	n/a	0	0	0
522.098	n/a	DISTRACTOR	261049	n/a	LTP311	ltpFR2	12	2	n/a	n/a	n/a	n/a	0	0	0
522.098	n/a	START	261049	n/a	LTP311	ltpFR2	12	n/a	n/a	n/a	2	n/a	n/a	n/a	n/a
522.114	n/a	PROB	261057	n/a	LTP311	ltpFR2	12	n/a	n/a	n/a	2	11	4	6	1
523.748	n/a	PROB	261874	n/a	LTP311	ltpFR2	12	n/a	n/a	n/a	2	21	8	9	4
526.832	n/a	PROB	263416	n/a	LTP311	ltpFR2	12	n/a	n/a	n/a	2	18	9	5	4
528.252	n/a	PROB	264126	n/a	LTP311	ltpFR2	12	n/a	n/a	n/a	2	13	6	3	4
529.802	n/a	PROB	264901	n/a	LTP311	ltpFR2	12	n/a	n/a	n/a	2	7	2	4	1
532.154	n/a	PROB	266077	n/a	LTP311	ltpFR2	12	n/a	n/a	n/a	2	14	2	5	7
533.754	n/a	PROB	266877	n/a	LTP311	ltpFR2	12	n/a	n/a	n/a	2	13	8	9	6
536.974	n/a	PROB	268487	n/a	LTP311	ltpFR2	12	n/a	n/a	n/a	2	11	3	7	1
539.376	n/a	PROB	269688	n/a	LTP311	ltpFR2	12	n/a	n/a	n/a	2	12	4	3	5
541.646	n/a	PROB	270823	n/a	LTP311	ltpFR2	12	n/a	n/a	n/a	2	15	8	5	2
543.146	n/a	PROB	271573	n/a	LTP311	ltpFR2	12	n/a	n/a	n/a	2	10	1	6	3
544.48	n/a	PROB	272240	n/a	LTP311	ltpFR2	12	n/a	n/a	n/a	2	13	4	8	1
546.044	n/a	STOP	273022	n/a	LTP311	ltpFR2	12	n/a	n/a	n/a	2	n/a	n/a	n/a	n/a
547.252	n/a	WORD	273626	wordpools/wasnorm_wordpool_576.txt	LTP311	ltpFR2	12	2	VALVE	1546	n/a	n/a	0	0	0
549.718	n/a	WORD	274859	wordpools/wasnorm_wordpool_576.txt	LTP311	ltpFR2	12	2	SPONGE	1355	n/a	n/a	0	0	0
552.354	n/a	WORD	276177	wordpools/wasnorm_wordpool_576.txt	LTP311	ltpFR2	12	2	BARLEY	88	n/a	n/a	0	0	0
555.01	n/a	WORD	277505	wordpools/wasnorm_wordpool_576.txt	LTP311	ltpFR2	12	2	REPORT	1184	n/a	n/a	0	0	0
557.692	n/a	WORD	278846	wordpools/wasnorm_wordpool_576.txt	LTP311	ltpFR2	12	2	CANDY	230	n/a	n/a	0	0	0
560.494	n/a	WORD	280247	wordpools/wasnorm_wordpool_576.txt	LTP311	ltpFR2	12	2	WARDROBE	1587	n/a	n/a	0	0	0
563.266	n/a	WORD	281633	wordpools/wasnorm_wordpool_576.txt	LTP311	ltpFR2	12	2	FLUTE	585	n/a	n/a	0	0	0
565.866	n/a	WORD	282933	wordpools/wasnorm_wordpool_576.txt	LTP311	ltpFR2	12	2	NEUTRON	947	n/a	n/a	0	0	0
568.5	n/a	WORD	284250	wordpools/wasnorm_wordpool_576.txt	LTP311	ltpFR2	12	2	PROTON	1132	n/a	n/a	0	0	0
571.286	n/a	WORD	285643	wordpools/wasnorm_wordpool_576.txt	LTP311	ltpFR2	12	2	SWORD	1423	n/a	n/a	0	0	0
573.938	n/a	WORD	286969	wordpools/wasnorm_wordpool_576.txt	LTP311	ltpFR2	12	2	PASTA	1021	n/a	n/a	0	0	0
576.656	n/a	WORD	288328	wordpools/wasnorm_wordpool_576.txt	LTP311	ltpFR2	12	2	SCRIBBLE	1256	n/a	n/a	0	0	0
579.192	n/a	WORD	289596	wordpools/wasnorm_wordpool_576.txt	LTP311	ltpFR2	12	2	FIDDLE	561	n/a	n/a	0	0	0
581.76	n/a	WORD	290880	wordpools/wasnorm_wordpool_576.txt	LTP311	ltpFR2	12	2	MEAT	883	n/a	n/a	0	0	0
584.38	n/a	WORD	292190	wordpools/wasnorm_wordpool_576.txt	LTP311	ltpFR2	12	2	BLENDER	136	n/a	n/a	0	0	0
587.114	n/a	WORD	293557	wordpools/wasnorm_wordpool_576.txt	LTP311	ltpFR2	12	2	OZONE	996	n/a	n/a	0	0	0
589.532	n/a	WORD	294766	wordpools/wasnorm_wordpool_576.txt	LTP311	ltpFR2	12	2	CORAL	378	n/a	n/a	0	0	0
592.274	n/a	WORD	296137	wordpools/wasnorm_wordpool_576.txt	LTP311	ltpFR2	12	2	PEBBLE	1035	n/a	n/a	0	0	0
594.936	n/a	WORD	297468	wordpools/wasnorm_wordpool_576.txt	LTP311	ltpFR2	12	2	OUTFIT	988	n/a	n/a	0	0	0
597.744	n/a	WORD	298872	wordpools/wasnorm_wordpool_576.txt	LTP311	ltpFR2	12	2	CASKET	255	n/a	n/a	0	0	0
600.448	n/a	WORD	300224	wordpools/wasnorm_wordpool_576.txt	LTP311	ltpFR2	12	2	LION	827	n/a	n/a	0	0	0
602.866	n/a	WORD	301433	wordpools/wasnorm_wordpool_576.txt	LTP311	ltpFR2	12	2	PERMIT	1051	n/a	n/a	0	0	0
605.686	n/a	WORD	302843	wordpools/wasnorm_wordpool_576.txt	LTP311	ltpFR2	12	2	YOLK	1633	n/a	n/a	0	0	0
608.364	n/a	WORD	304182	wordpools/wasnorm_wordpool_576.txt	LTP311	ltpFR2	12	2	WIDOW	1608	n/a	n/a	0	0	0
609.974	n/a	START	304987	n/a	LTP311	ltpFR2	12	n/a	n/a	n/a	3	n/a	n/a	n/a	n/a
610.866	n/a	DISTRACTOR	305433	n/a	LTP311	ltpFR2	12	2	n/a	n/a	n/a	n/a	0	0	0
610.874	n/a	PROB	305437	n/a	LTP311	ltpFR2	12	n/a	n/a	n/a	3	10	4	2	4
612.632	n/a	PROB	306316	n/a	LTP311	ltpFR2	12	n/a	n/a	n/a	3	5	2	2	1
613.716	n/a	PROB	306858	n/a	LTP311	ltpFR2	12	n/a	n/a	n/a	3	22	9	7	6
615.338	n/a	PROB	307669	n/a	LTP311	ltpFR2	12	n/a	n/a	n/a	3	20	7	8	5
617.272	n/a	PROB	308636	n/a	LTP311	ltpFR2	12	n/a	n/a	n/a	3	9	1	6	2
618.424	n/a	PROB	309212	n/a	LTP311	ltpFR2	12	n/a	n/a	n/a	3	12	5	6	1
619.706	n/a	PROB	309853	n/a	LTP311	ltpFR2	12	n/a	n/a	n/a	3	11	7	2	2
620.908	n/a	PROB	310454	n/a	LTP311	ltpFR2	12	n/a	n/a	n/a	3	10	5	4	1
622.742	n/a	PROB	311371	n/a	LTP311	ltpFR2	12	n/a	n/a	n/a	3	25	8	9	8
625.478	n/a	PROB	312739	n/a	LTP311	ltpFR2	12	n/a	n/a	n/a	3	11	5	2	4
629.564	n/a	PROB	314782	n/a	LTP311	ltpFR2	12	n/a	n/a	n/a	3	11	7	3	1
630.53	n/a	PROB	315265	n/a	LTP311	ltpFR2	12	n/a	n/a	n/a	3	14	8	1	5
633.974	n/a	STOP	316987	n/a	LTP311	ltpFR2	12	n/a	n/a	n/a	3	n/a	n/a	n/a	n/a
635.886	n/a	REC_START	317943	n/a	LTP311	ltpFR2	12	2	n/a	n/a	n/a	n/a	0	0	0
637.02	n/a	REC_WORD	318510	wordpools/wasnorm_wordpool_576.txt	LTP311	ltpFR2	12	2	LION	827	n/a	n/a	0	0	0
637.638	n/a	REC_WORD	318819	wordpools/wasnorm_wordpool_576.txt	LTP311	ltpFR2	12	2	PERMIT	1051	n/a	n/a	0	0	0
638.422	n/a	REC_WORD	319211	wordpools/wasnorm_wordpool_576.txt	LTP311	ltpFR2	12	2	YOLK	1633	n/a	n/a	0	0	0
639.042	n/a	REC_WORD	319521	wordpools/wasnorm_wordpool_576.txt	LTP311	ltpFR2	12	2	WINDOW	1611	n/a	n/a	0	0	0
640.898	n/a	REC_WORD	320449	wordpools/wasnorm_wordpool_576.txt	LTP311	ltpFR2	12	2	SPONGE	1355	n/a	n/a	0	0	0
641.686	n/a	REC_WORD	320843	wordpools/wasnorm_wordpool_576.txt	LTP311	ltpFR2	12	2	BARLEY	88	n/a	n/a	0	0	0
642.2	n/a	REC_WORD	321100	wordpools/wasnorm_wordpool_576.txt	LTP311	ltpFR2	12	2	VALVE	1546	n/a	n/a	0	0	0
642.756	n/a	REC_WORD	321378	wordpools/wasnorm_wordpool_576.txt	LTP311	ltpFR2	12	2	REPORT	1184	n/a	n/a	0	0	0
647.346	n/a	REC_WORD	323673	wordpools/wasnorm_wordpool_576.txt	LTP311	ltpFR2	12	2	WARDROBE	1587	n/a	n/a	0	0	0
649.234	n/a	REC_WORD	324617	wordpools/wasnorm_wordpool_576.txt	LTP311	ltpFR2	12	2	FLUTE	585	n/a	n/a	0	0	0
654.022	n/a	REC_WORD	327011	wordpools/wasnorm_wordpool_576.txt	LTP311	ltpFR2	12	2	PROTON	1132	n/a	n/a	0	0	0
654.77	n/a	REC_WORD	327385	wordpools/wasnorm_wordpool_576.txt	LTP311	ltpFR2	12	2	NEUTRON	947	n/a	n/a	0	0	0
655.348	n/a	REC_WORD	327674	wordpools/wasnorm_wordpool_576.txt	LTP311	ltpFR2	12	2	SWORD	1423	n/a	n/a	0	0	0
657.896	n/a	REC_WORD	328948	wordpools/wasnorm_wordpool_576.txt	LTP311	ltpFR2	12	2	PASTA	1021	n/a	n/a	0	0	0
658.558	n/a	REC_WORD	329279	wordpools/wasnorm_wordpool_576.txt	LTP311	ltpFR2	12	2	SCRIBBLE	1256	n/a	n/a	0	0	0
659.776	n/a	REC_WORD	329888	wordpools/wasnorm_wordpool_576.txt	LTP311	ltpFR2	12	2	FIDDLE	561	n/a	n/a	0	0	0
662.316	n/a	REC_WORD	331158	wordpools/wasnorm_wordpool_576.txt	LTP311	ltpFR2	12	2	MEAT	883	n/a	n/a	0	0	0
663.19	n/a	REC_WORD	331595	wordpools/wasnorm_wordpool_576.txt	LTP311	ltpFR2	12	2	BLENDER	136	n/a	n/a	0	0	0
666.296	n/a	REC_WORD	333148	wordpools/wasnorm_wordpool_576.txt	LTP311	ltpFR2	12	2	OZONE	996	n/a	n/a	0	0	0
668.106	n/a	REC_WORD	334053	wordpools/wasnorm_wordpool_576.txt	LTP311	ltpFR2	12	2	CORAL	378	n/a	n/a	0	0	0
668.72	n/a	REC_WORD	334360	wordpools/wasnorm_wordpool_576.txt	LTP311	ltpFR2	12	2	PEBBLE	1035	n/a	n/a	0	0	0
674.01	n/a	REC_WORD	337005	wordpools/wasnorm_wordpool_576.txt	LTP311	ltpFR2	12	2	OUTFIT	988	n/a	n/a	0	0	0
678.456	n/a	REC_WORD	339228	wordpools/wasnorm_wordpool_576.txt	LTP311	ltpFR2	12	2	CASKET	255	n/a	n/a	0	0	0
726.324	n/a	DISTRACTOR	363162	n/a	LTP311	ltpFR2	12	3	n/a	n/a	n/a	n/a	0	0	0
726.324	n/a	START	363162	n/a	LTP311	ltpFR2	12	n/a	n/a	n/a	4	n/a	n/a	n/a	n/a
726.338	n/a	PROB	363169	n/a	LTP311	ltpFR2	12	n/a	n/a	n/a	4	14	2	5	7
727.656	n/a	PROB	363828	n/a	LTP311	ltpFR2	12	n/a	n/a	n/a	4	11	1	3	7
728.722	n/a	PROB	364361	n/a	LTP311	ltpFR2	12	n/a	n/a	n/a	4	19	9	3	7
730.21	n/a	PROB	365105	n/a	LTP311	ltpFR2	12	n/a	n/a	n/a	4	17	6	5	5
731.926	n/a	PROB	365963	n/a	LTP311	ltpFR2	12	n/a	n/a	n/a	4	14	6	7	1
734.828	n/a	PROB	367414	n/a	LTP311	ltpFR2	12	n/a	n/a	n/a	4	14	5	8	1
736.546	n/a	PROB	368273	n/a	LTP311	ltpFR2	12	n/a	n/a	n/a	4	13	3	7	3
738.232	n/a	PROB	369116	n/a	LTP311	ltpFR2	12	n/a	n/a	n/a	4	14	7	2	5
739.832	n/a	PROB	369916	n/a	LTP311	ltpFR2	12	n/a	n/a	n/a	4	6	2	4	2
741.202	n/a	PROB	370601	n/a	LTP311	ltpFR2	12	n/a	n/a	n/a	4	19	9	1	9
743.752	n/a	PROB	371876	n/a	LTP311	ltpFR2	12	n/a	n/a	n/a	4	18	3	8	7
746.288	n/a	PROB	373144	n/a	LTP311	ltpFR2	12	n/a	n/a	n/a	4	11	1	6	4
747.972	n/a	PROB	373986	n/a	LTP311	ltpFR2	12	n/a	n/a	n/a	4	12	3	8	1
749.84	n/a	STOP	374920	n/a	LTP311	ltpFR2	12	n/a	n/a	n/a	4	n/a	n/a	n/a	n/a
751.376	n/a	WORD	375688	wordpools/wasnorm_wordpool_576.txt	LTP311	ltpFR2	12	3	SPHINX	1349	n/a	n/a	0	0	0
754.096	n/a	WORD	377048	wordpools/wasnorm_wordpool_576.txt	LTP311	ltpFR2	12	3	SALAD	1224	n/a	n/a	0	0	0
756.848	n/a	WORD	378424	wordpools/wasnorm_wordpool_576.txt	LTP311	ltpFR2	12	3	YACHT	1629	n/a	n/a	0	0	0
759.4	n/a	WORD	379700	wordpools/wasnorm_wordpool_576.txt	LTP311	ltpFR2	12	3	POET	1095	n/a	n/a	0	0	0
762.236	n/a	WORD	381118	wordpools/wasnorm_wordpool_576.txt	LTP311	ltpFR2	12	3	BANQUET	86	n/a	n/a	0	0	0
764.87	n/a	WORD	382435	wordpools/wasnorm_wordpool_576.txt	LTP311	ltpFR2	12	3	SHELTER	1282	n/a	n/a	0	0	0
767.62	n/a	WORD	383810	wordpools/wasnorm_wordpool_576.txt	LTP311	ltpFR2	12	3	SMOG	1330	n/a	n/a	0	0	0
770.374	n/a	WORD	385187	wordpools/wasnorm_wordpool_576.txt	LTP311	ltpFR2	12	3	FLOWER	584	n/a	n/a	0	0	0
772.994	n/a	WORD	386497	wordpools/wasnorm_wordpool_576.txt	LTP311	ltpFR2	12	3	BODY	145	n/a	n/a	0	0	0
775.762	n/a	WORD	387881	wordpools/wasnorm_wordpool_576.txt	LTP311	ltpFR2	12	3	HOOD	714	n/a	n/a	0	0	0
778.432	n/a	WORD	389216	wordpools/wasnorm_wordpool_576.txt	LTP311	ltpFR2	12	3	FRIAR	605	n/a	n/a	0	0	0
780.966	n/a	WORD	390483	wordpools/wasnorm_wordpool_576.txt	LTP311	ltpFR2	12	3	PALACE	1006	n/a	n/a	0	0	0
783.436	n/a	WORD	391718	wordpools/wasnorm_wordpool_576.txt	LTP311	ltpFR2	12	3	ROBOT	1200	n/a	n/a	0	0	0
786.238	n/a	WORD	393119	wordpools/wasnorm_wordpool_576.txt	LTP311	ltpFR2	12	3	EGYPT	519	n/a	n/a	0	0	0
788.69	n/a	WORD	394345	wordpools/wasnorm_wordpool_576.txt	LTP311	ltpFR2	12	3	RADISH	1158	n/a	n/a	0	0	0
791.324	n/a	WORD	395662	wordpools/wasnorm_wordpool_576.txt	LTP311	ltpFR2	12	3	HATCHET	691	n/a	n/a	0	0	0
793.792	n/a	WORD	396896	wordpools/wasnorm_wordpool_576.txt	LTP311	ltpFR2	12	3	TWEEZERS	1526	n/a	n/a	0	0	0
796.228	n/a	WORD	398114	wordpools/wasnorm_wordpool_576.txt	LTP311	ltpFR2	12	3	WAITRESS	1581	n/a	n/a	0	0	0
798.778	n/a	WORD	399389	wordpools/wasnorm_wordpool_576.txt	LTP311	ltpFR2	12	3	HORSE	719	n/a	n/a	0	0	0
801.202	n/a	WORD	400601	wordpools/wasnorm_wordpool_576.txt	LTP311	ltpFR2	12	3	SLOPE	1328	n/a	n/a	0	0	0
803.918	n/a	WORD	401959	wordpools/wasnorm_wordpool_576.txt	LTP311	ltpFR2	12	3	MONSTER	912	n/a	n/a	0	0	0
806.636	n/a	WORD	403318	wordpools/wasnorm_wordpool_576.txt	LTP311	ltpFR2	12	3	BEAST	108	n/a	n/a	0	0	0
809.204	n/a	WORD	404602	wordpools/wasnorm_wordpool_576.txt	LTP311	ltpFR2	12	3	FRAGRANCE	599	n/a	n/a	0	0	0
811.844	n/a	WORD	405922	wordpools/wasnorm_wordpool_576.txt	LTP311	ltpFR2	12	3	PERFUME	1049	n/a	n/a	0	0	0
813.458	n/a	START	406729	n/a	LTP311	ltpFR2	12	n/a	n/a	n/a	5	n/a	n/a	n/a	n/a
814.54	n/a	DISTRACTOR	407270	n/a	LTP311	ltpFR2	12	3	n/a	n/a	n/a	n/a	0	0	0
814.544	n/a	PROB	407272	n/a	LTP311	ltpFR2	12	n/a	n/a	n/a	5	11	2	5	4
817.328	n/a	PROB	408664	n/a	LTP311	ltpFR2	12	n/a	n/a	n/a	5	8	3	3	2
818.71	n/a	PROB	409355	n/a	LTP311	ltpFR2	12	n/a	n/a	n/a	5	21	9	5	7
820.796	n/a	PROB	410398	n/a	LTP311	ltpFR2	12	n/a	n/a	n/a	5	6	1	1	4
822.346	n/a	PROB	411173	n/a	LTP311	ltpFR2	12	n/a	n/a	n/a	5	9	1	2	6
823.466	n/a	PROB	411733	n/a	LTP311	ltpFR2	12	n/a	n/a	n/a	5	16	7	7	2
825.516	n/a	PROB	412758	n/a	LTP311	ltpFR2	12	n/a	n/a	n/a	5	20	7	8	5
827.768	n/a	PROB	413884	n/a	LTP311	ltpFR2	12	n/a	n/a	n/a	5	17	8	7	2
829.42	n/a	PROB	414710	n/a	LTP311	ltpFR2	12	n/a	n/a	n/a	5	16	8	3	5
831.604	n/a	PROB	415802	n/a	LTP311	ltpFR2	12	n/a	n/a	n/a	5	15	5	7	3
834.156	n/a	PROB	417078	n/a	LTP311	ltpFR2	12	n/a	n/a	n/a	5	12	6	3	3
836.378	n/a	STOP	418189	n/a	LTP311	ltpFR2	12	n/a	n/a	n/a	5	n/a	n/a	n/a	n/a
839.362	n/a	REC_START	419681	n/a	LTP311	ltpFR2	12	3	n/a	n/a	n/a	n/a	0	0	0
849.622	n/a	REC_WORD	424811	wordpools/wasnorm_wordpool_576.txt	LTP311	ltpFR2	12	3	SPHINX	1349	n/a	n/a	0	0	0
850.422	n/a	REC_WORD	425211	wordpools/wasnorm_wordpool_576.txt	LTP311	ltpFR2	12	3	SALAD	1224	n/a	n/a	0	0	0
851.786	n/a	REC_WORD	425893	wordpools/wasnorm_wordpool_576.txt	LTP311	ltpFR2	12	3	POET	1095	n/a	n/a	0	0	0
852.718	n/a	REC_WORD	426359	wordpools/wasnorm_wordpool_576.txt	LTP311	ltpFR2	12	3	YACHT	1629	n/a	n/a	0	0	0
853.702	n/a	REC_WORD	426851	wordpools/wasnorm_wordpool_576.txt	LTP311	ltpFR2	12	3	BANQUET	86	n/a	n/a	0	0	0
855.736	n/a	REC_WORD	427868	wordpools/wasnorm_wordpool_576.txt	LTP311	ltpFR2	12	3	SHELTER	1282	n/a	n/a	0	0	0
856.484	n/a	REC_WORD	428242	wordpools/wasnorm_wordpool_576.txt	LTP311	ltpFR2	12	3	SMOG	1330	n/a	n/a	0	0	0
857.508	n/a	REC_WORD	428754	wordpools/wasnorm_wordpool_576.txt	LTP311	ltpFR2	12	3	BODY	145	n/a	n/a	0	0	0
858.026	n/a	REC_WORD	429013	wordpools/wasnorm_wordpool_576.txt	LTP311	ltpFR2	12	3	HOOD	714	n/a	n/a	0	0	0
863.542	n/a	REC_WORD	431771	wordpools/wasnorm_wordpool_576.txt	LTP311	ltpFR2	12	3	FRAGRANCE	599	n/a	n/a	0	0	0
865.424	n/a	REC_WORD	432712	wordpools/wasnorm_wordpool_576.txt	LTP311	ltpFR2	12	3	EGYPT	519	n/a	n/a	0	0	0
866.144	n/a	REC_WORD	433072	wordpools/wasnorm_wordpool_576.txt	LTP311	ltpFR2	12	3	ROBOT	1200	n/a	n/a	0	0	0
872.176	n/a	REC_WORD	436088	wordpools/wasnorm_wordpool_576.txt	LTP311	ltpFR2	12	3	RADISH	1158	n/a	n/a	0	0	0
872.828	n/a	REC_WORD	436414	wordpools/wasnorm_wordpool_576.txt	LTP311	ltpFR2	12	3	HATCHET	691	n/a	n/a	0	0	0
874.302	n/a	REC_WORD	437151	wordpools/wasnorm_wordpool_576.txt	LTP311	ltpFR2	12	3	TWEEZERS	1526	n/a	n/a	0	0	0
879.09	n/a	REC_WORD	439545	wordpools/wasnorm_wordpool_576.txt	LTP311	ltpFR2	12	3	MONSTER	912	n/a	n/a	0	0	0
883.236	n/a	REC_WORD	441618	wordpools/wasnorm_wordpool_576.txt	LTP311	ltpFR2	12	3	BEAST	108	n/a	n/a	0	0	0
883.808	n/a	REC_WORD	441904	wordpools/wasnorm_wordpool_576.txt	LTP311	ltpFR2	12	3	FRAGRANCE	599	n/a	n/a	0	0	0
884.588	n/a	REC_WORD	442294	wordpools/wasnorm_wordpool_576.txt	LTP311	ltpFR2	12	3	PERFUME	1049	n/a	n/a	0	0	0
897.92	n/a	REC_WORD	448960	wordpools/wasnorm_wordpool_576.txt	LTP311	ltpFR2	12	3	SHELTER	1282	n/a	n/a	0	0	0
898.492	n/a	REC_WORD	449246	wordpools/wasnorm_wordpool_576.txt	LTP311	ltpFR2	12	3	SMOG	1330	n/a	n/a	0	0	0
929.782	n/a	DISTRACTOR	464891	n/a	LTP311	ltpFR2	12	4	n/a	n/a	n/a	n/a	0	0	0
929.782	n/a	START	464891	n/a	LTP311	ltpFR2	12	n/a	n/a	n/a	6	n/a	n/a	n/a	n/a
929.798	n/a	PROB	464899	n/a	LTP311	ltpFR2	12	n/a	n/a	n/a	6	9	7	1	1
930.996	n/a	PROB	465498	n/a	LTP311	ltpFR2	12	n/a	n/a	n/a	6	10	2	3	5
932.684	n/a	PROB	466342	n/a	LTP311	ltpFR2	12	n/a	n/a	n/a	6	10	1	1	8
933.718	n/a	PROB	466859	n/a	LTP311	ltpFR2	12	n/a	n/a	n/a	6	15	2	7	6
935.27	n/a	PROB	467635	n/a	LTP311	ltpFR2	12	n/a	n/a	n/a	6	16	5	9	2
938.154	n/a	PROB	469077	n/a	LTP311	ltpFR2	12	n/a	n/a	n/a	6	15	6	2	7
940.304	n/a	PROB	470152	n/a	LTP311	ltpFR2	12	n/a	n/a	n/a	6	9	1	6	2
941.604	n/a	PROB	470802	n/a	LTP311	ltpFR2	12	n/a	n/a	n/a	6	15	8	5	2
943.256	n/a	PROB	471628	n/a	LTP311	ltpFR2	12	n/a	n/a	n/a	6	10	1	2	7
944.658	n/a	PROB	472329	n/a	LTP311	ltpFR2	12	n/a	n/a	n/a	6	15	3	5	7
946.308	n/a	PROB	473154	n/a	LTP311	ltpFR2	12	n/a	n/a	n/a	6	16	5	7	4
948.492	n/a	PROB	474246	n/a	LTP311	ltpFR2	12	n/a	n/a	n/a	6	20	7	5	8
950.112	n/a	PROB	475056	n/a	LTP311	ltpFR2	12	n/a	n/a	n/a	6	12	7	1	4
951.878	n/a	PROB	475939	n/a	LTP311	ltpFR2	12	n/a	n/a	n/a	6	13	5	6	2
953.754	n/a	STOP	476877	n/a	LTP311	ltpFR2	12	n/a	n/a	n/a	6	n/a	n/a	n/a	n/a
954.764	n/a	WORD	477382	wordpools/wasnorm_wordpool_576.txt	LTP311	ltpFR2	12	4	COIN	343	n/a	n/a	0	0	0
957.568	n/a	WORD	478784	wordpools/wasnorm_wordpool_576.txt	LTP311	ltpFR2	12	4	MUMMY	932	n/a	n/a	0	0	0
960.238	n/a	WORD	480119	wordpools/wasnorm_wordpool_576.txt	LTP311	ltpFR2	12	4	JUNGLE	764	n/a	n/a	0	0	0
962.672	n/a	WORD	481336	wordpools/wasnorm_wordpool_576.txt	LTP311	ltpFR2	12	4	EXPERT	543	n/a	n/a	0	0	0
965.158	n/a	WORD	482579	wordpools/wasnorm_wordpool_576.txt	LTP311	ltpFR2	12	4	CAPTIVE	240	n/a	n/a	0	0	0
967.776	n/a	WORD	483888	wordpools/wasnorm_wordpool_576.txt	LTP311	ltpFR2	12	4	DAUGHTER	442	n/a	n/a	0	0	0
970.278	n/a	WORD	485139	wordpools/wasnorm_wordpool_576.txt	LTP311	ltpFR2	12	4	AGENT	10	n/a	n/a	0	0	0
972.914	n/a	WORD	486457	wordpools/wasnorm_wordpool_576.txt	LTP311	ltpFR2	12	4	SUBWAY	1400	n/a	n/a	0	0	0
975.582	n/a	WORD	487791	wordpools/wasnorm_wordpool_576.txt	LTP311	ltpFR2	12	4	SHRUB	1299	n/a	n/a	0	0	0
978.27	n/a	WORD	489135	wordpools/wasnorm_wordpool_576.txt	LTP311	ltpFR2	12	4	FLIPPER	580	n/a	n/a	0	0	0
981.038	n/a	WORD	490519	wordpools/wasnorm_wordpool_576.txt	LTP311	ltpFR2	12	4	THREAD	1460	n/a	n/a	0	0	0
983.756	n/a	WORD	491878	wordpools/wasnorm_wordpool_576.txt	LTP311	ltpFR2	12	4	OUTLAW	989	n/a	n/a	0	0	0
986.342	n/a	WORD	493171	wordpools/wasnorm_wordpool_576.txt	LTP311	ltpFR2	12	4	STAPLE	1371	n/a	n/a	0	0	0
988.944	n/a	WORD	494472	wordpools/wasnorm_wordpool_576.txt	LTP311	ltpFR2	12	4	REBEL	1172	n/a	n/a	0	0	0
991.578	n/a	WORD	495789	wordpools/wasnorm_wordpool_576.txt	LTP311	ltpFR2	12	4	SUSPECT	1415	n/a	n/a	0	0	0
994.132	n/a	WORD	497066	wordpools/wasnorm_wordpool_576.txt	LTP311	ltpFR2	12	4	FOREHEAD	592	n/a	n/a	0	0	0
996.716	n/a	WORD	498358	wordpools/wasnorm_wordpool_576.txt	LTP311	ltpFR2	12	4	SCARF	1246	n/a	n/a	0	0	0
999.404	n/a	WORD	499702	wordpools/wasnorm_wordpool_576.txt	LTP311	ltpFR2	12	4	SCALLOP	1242	n/a	n/a	0	0	0
1002.038	n/a	WORD	501019	wordpools/wasnorm_wordpool_576.txt	LTP311	ltpFR2	12	4	CUSTARD	429	n/a	n/a	0	0	0
1004.774	n/a	WORD	502387	wordpools/wasnorm_wordpool_576.txt	LTP311	ltpFR2	12	4	PUDDING	1139	n/a	n/a	0	0	0
1007.276	n/a	WORD	503638	wordpools/wasnorm_wordpool_576.txt	LTP311	ltpFR2	12	4	ZIPPER	1636	n/a	n/a	0	0	0
1010.112	n/a	WORD	505056	wordpools/wasnorm_wordpool_576.txt	LTP311	ltpFR2	12	4	AIRPLANE	12	n/a	n/a	0	0	0
1012.678	n/a	WORD	506339	wordpools/wasnorm_wordpool_576.txt	LTP311	ltpFR2	12	4	SHARK	1275	n/a	n/a	0	0	0
1015.418	n/a	WORD	507709	wordpools/wasnorm_wordpool_576.txt	LTP311	ltpFR2	12	4	ROOSTER	1209	n/a	n/a	0	0	0
1017.034	n/a	START	508517	n/a	LTP311	ltpFR2	12	n/a	n/a	n/a	7	n/a	n/a	n/a	n/a
1018.232	n/a	DISTRACTOR	509116	n/a	LTP311	ltpFR2	12	4	n/a	n/a	n/a	n/a	0	0	0
1018.236	n/a	PROB	509118	n/a	LTP311	ltpFR2	12	n/a	n/a	n/a	7	17	5	7	5
1019.852	n/a	PROB	509926	n/a	LTP311	ltpFR2	12	n/a	n/a	n/a	7	14	7	6	1
1021.302	n/a	PROB	510651	n/a	LTP311	ltpFR2	12	n/a	n/a	n/a	7	17	3	9	5
1024.272	n/a	PROB	512136	n/a	LTP311	ltpFR2	12	n/a	n/a	n/a	7	11	1	9	1
1025.422	n/a	PROB	512711	n/a	LTP311	ltpFR2	12	n/a	n/a	n/a	7	19	6	4	9
1026.706	n/a	PROB	513353	n/a	LTP311	ltpFR2	12	n/a	n/a	n/a	7	12	6	3	3
1028.058	n/a	PROB	514029	n/a	LTP311	ltpFR2	12	n/a	n/a	n/a	7	14	4	2	8
1029.558	n/a	PROB	514779	n/a	LTP311	ltpFR2	12	n/a	n/a	n/a	7	15	7	6	2
1031.526	n/a	PROB	515763	n/a	LTP311	ltpFR2	12	n/a	n/a	n/a	7	21	9	3	9
1032.91	n/a	PROB	516455	n/a	LTP311	ltpFR2	12	n/a	n/a	n/a	7	14	8	2	4
1034.596	n/a	PROB	517298	n/a	LTP311	ltpFR2	12	n/a	n/a	n/a	7	17	2	9	6
1036.43	n/a	PROB	518215	n/a	LTP311	ltpFR2	12	n/a	n/a	n/a	7	13	4	6	3
1038.566	n/a	PROB	519283	n/a	LTP311	ltpFR2	12	n/a	n/a	n/a	7	6	2	3	1
1039.684	n/a	STOP	519842	n/a	LTP311	ltpFR2	12	n/a	n/a	n/a	7	n/a	n/a	n/a	n/a
1042.988	n/a	REC_START	521494	n/a	LTP311	ltpFR2	12	4	n/a	n/a	n/a	n/a	0	0	0
1044.692	n/a	REC_WORD	522346	wordpools/wasnorm_wordpool_576.txt	LTP311	ltpFR2	12	4	COIN	343	n/a	n/a	0	0	0
1045.388	n/a	REC_WORD	522694	wordpools/wasnorm_wordpool_576.txt	LTP311	ltpFR2	12	4	MUMMY	932	n/a	n/a	0	0	0
1046.408	n/a	REC_WORD	523204	wordpools/wasnorm_wordpool_576.txt	LTP311	ltpFR2	12	4	JUNGLE	764	n/a	n/a	0	0	0
1047.336	n/a	REC_WORD	523668	wordpools/wasnorm_wordpool_576.txt	LTP311	ltpFR2	12	4	EXPERT	543	n/a	n/a	0	0	0
1048.97	n/a	REC_WORD	524485	wordpools/wasnorm_wordpool_576.txt	LTP311	ltpFR2	12	4	CAPTIVE	240	n/a	n/a	0	0	0
1055.13	n/a	REC_WORD	527565	wordpools/wasnorm_wordpool_576.txt	LTP311	ltpFR2	12	4	DAUGHTER	442	n/a	n/a	0	0	0
1055.878	n/a	REC_WORD	527939	wordpools/wasnorm_wordpool_576.txt	LTP311	ltpFR2	12	4	AGENT	10	n/a	n/a	0	0	0
1056.426	n/a	REC_WORD	528213	wordpools/wasnorm_wordpool_576.txt	LTP311	ltpFR2	12	4	SUBWAY	1400	n/a	n/a	0	0	0
1057.368	n/a	REC_WORD	528684	wordpools/wasnorm_wordpool_576.txt	LTP311	ltpFR2	12	4	SHARK	1275	n/a	n/a	0	0	0
1062.732	n/a	REC_WORD	531366	wordpools/wasnorm_wordpool_576.txt	LTP311	ltpFR2	12	4	FLIPPER	580	n/a	n/a	0	0	0
1064.658	n/a	REC_WORD	532329	wordpools/wasnorm_wordpool_576.txt	LTP311	ltpFR2	12	4	THREAD	1460	n/a	n/a	0	0	0
1066.118	n/a	REC_WORD	533059	wordpools/wasnorm_wordpool_576.txt	LTP311	ltpFR2	12	4	OUTLAW	989	n/a	n/a	0	0	0
1067.582	n/a	REC_WORD	533791	wordpools/wasnorm_wordpool_576.txt	LTP311	ltpFR2	12	4	STAPLE	1371	n/a	n/a	0	0	0
1080.848	n/a	REC_WORD	540424	wordpools/wasnorm_wordpool_576.txt	LTP311	ltpFR2	12	4	FOREHEAD	592	n/a	n/a	0	0	0
1082.876	n/a	REC_WORD	541438	wordpools/wasnorm_wordpool_576.txt	LTP311	ltpFR2	12	4	SUSPECT	1415	n/a	n/a	0	0	0
1085.086	n/a	REC_WORD	542543	wordpools/wasnorm_wordpool_576.txt	LTP311	ltpFR2	12	4	SCARF	1246	n/a	n/a	0	0	0
1085.644	n/a	REC_WORD	542822	wordpools/wasnorm_wordpool_576.txt	LTP311	ltpFR2	12	4	SCALLOP	1242	n/a	n/a	0	0	0
1092.454	n/a	REC_WORD	546227	wordpools/wasnorm_wordpool_576.txt	LTP311	ltpFR2	12	4	CUSTARD	429	n/a	n/a	0	0	0
1093.086	n/a	REC_WORD	546543	wordpools/wasnorm_wordpool_576.txt	LTP311	ltpFR2	12	4	PUDDING	1139	n/a	n/a	0	0	0
1095.792	n/a	REC_WORD	547896	wordpools/wasnorm_wordpool_576.txt	LTP311	ltpFR2	12	4	ZIPPER	1636	n/a	n/a	0	0	0
1096.592	n/a	REC_WORD	548296	wordpools/wasnorm_wordpool_576.txt	LTP311	ltpFR2	12	4	AIRPLANE	12	n/a	n/a	0	0	0
1098.912	n/a	REC_WORD	549456	wordpools/wasnorm_wordpool_576.txt	LTP311	ltpFR2	12	4	SHARK	1275	n/a	n/a	0	0	0
1099.54	n/a	REC_WORD	549770	wordpools/wasnorm_wordpool_576.txt	LTP311	ltpFR2	12	4	ROOSTER	1209	n/a	n/a	0	0	0
1133.424	n/a	WORD	566712	wordpools/wasnorm_wordpool_576.txt	LTP311	ltpFR2	12	5	STOMACH	1384	n/a	n/a	0	0	0
1135.91	n/a	WORD	567955	wordpools/wasnorm_wordpool_576.txt	LTP311	ltpFR2	12	5	DINER	467	n/a	n/a	0	0	0
1138.728	n/a	WORD	569364	wordpools/wasnorm_wordpool_576.txt	LTP311	ltpFR2	12	5	PUPIL	1143	n/a	n/a	0	0	0
1141.298	n/a	WORD	570649	wordpools/wasnorm_wordpool_576.txt	LTP311	ltpFR2	12	5	CHAPEL	280	n/a	n/a	0	0	0
1143.726	n/a	WORD	571863	wordpools/wasnorm_wordpool_576.txt	LTP311	ltpFR2	12	5	COSTUME	383	n/a	n/a	0	0	0
1146.396	n/a	WORD	573198	wordpools/wasnorm_wordpool_576.txt	LTP311	ltpFR2	12	5	CAFE	216	n/a	n/a	0	0	0
1148.954	n/a	WORD	574477	wordpools/wasnorm_wordpool_576.txt	LTP311	ltpFR2	12	5	COOKBOOK	373	n/a	n/a	0	0	0
1151.632	n/a	WORD	575816	wordpools/wasnorm_wordpool_576.txt	LTP311	ltpFR2	12	5	ROD	1203	n/a	n/a	0	0	0
1154.39	n/a	WORD	577195	wordpools/wasnorm_wordpool_576.txt	LTP311	ltpFR2	12	5	DRINK	498	n/a	n/a	0	0	0
1157.07	n/a	WORD	578535	wordpools/wasnorm_wordpool_576.txt	LTP311	ltpFR2	12	5	INMATE	738	n/a	n/a	0	0	0
1159.538	n/a	WORD	579769	wordpools/wasnorm_wordpool_576.txt	LTP311	ltpFR2	12	5	CHEST	295	n/a	n/a	0	0	0
1161.992	n/a	WORD	580996	wordpools/wasnorm_wordpool_576.txt	LTP311	ltpFR2	12	5	COURSE	390	n/a	n/a	0	0	0
1164.56	n/a	WORD	582280	wordpools/wasnorm_wordpool_576.txt	LTP311	ltpFR2	12	5	SURVEY	1414	n/a	n/a	0	0	0
1167.3	n/a	WORD	583650	wordpools/wasnorm_wordpool_576.txt	LTP311	ltpFR2	12	5	STREAM	1392	n/a	n/a	0	0	0
1169.898	n/a	WORD	584949	wordpools/wasnorm_wordpool_576.txt	LTP311	ltpFR2	12	5	SWAMP	1416	n/a	n/a	0	0	0
1172.666	n/a	WORD	586333	wordpools/wasnorm_wordpool_576.txt	LTP311	ltpFR2	12	5	SEAGULL	1261	n/a	n/a	0	0	0
1175.47	n/a	WORD	587735	wordpools/wasnorm_wordpool_576.txt	LTP311	ltpFR2	12	5	GOBLIN	645	n/a	n/a	0	0	0
1178.04	n/a	WORD	589020	wordpools/wasnorm_wordpool_576.txt	LTP311	ltpFR2	12	5	DASHBOARD	441	n/a	n/a	0	0	0
1180.806	n/a	WORD	590403	wordpools/wasnorm_wordpool_576.txt	LTP311	ltpFR2	12	5	PISTON	1076	n/a	n/a	0	0	0
1183.526	n/a	WORD	591763	wordpools/wasnorm_wordpool_576.txt	LTP311	ltpFR2	12	5	APPLE	33	n/a	n/a	0	0	0
1186.15	n/a	WORD	593075	wordpools/wasnorm_wordpool_576.txt	LTP311	ltpFR2	12	5	PLAYGROUND	1087	n/a	n/a	0	0	0
1188.58	n/a	WORD	594290	wordpools/wasnorm_wordpool_576.txt	LTP311	ltpFR2	12	5	LIGHTNING	820	n/a	n/a	0	0	0
1191.034	n/a	WORD	595517	wordpools/wasnorm_wordpool_576.txt	LTP311	ltpFR2	12	5	SUPPER	1411	n/a	n/a	0	0	0
1193.804	n/a	WORD	596902	wordpools/wasnorm_wordpool_576.txt	LTP311	ltpFR2	12	5	DANDRUFF	439	n/a	n/a	0	0	0
1195.422	n/a	START	597711	n/a	LTP311	ltpFR2	12	n/a	n/a	n/a	8	n/a	n/a	n/a	n/a
1196.614	n/a	DISTRACTOR	598307	n/a	LTP311	ltpFR2	12	5	n/a	n/a	n/a	n/a	0	0	0
1196.62	n/a	PROB	598310	n/a	LTP311	ltpFR2	12	n/a	n/a	n/a	8	17	9	2	6
1198.888	n/a	PROB	599444	n/a	LTP311	ltpFR2	12	n/a	n/a	n/a	8	18	4	8	6
1200.788	n/a	PROB	600394	n/a	LTP311	ltpFR2	12	n/a	n/a	n/a	8	11	1	8	2
1202.326	n/a	PROB	601163	n/a	LTP311	ltpFR2	12	n/a	n/a	n/a	8	12	3	1	8
1203.824	n/a	PROB	601912	n/a	LTP311	ltpFR2	12	n/a	n/a	n/a	8	19	9	5	5
1205.396	n/a	PROB	602698	n/a	LTP311	ltpFR2	12	n/a	n/a	n/a	8	11	6	4	1
1206.594	n/a	PROB	603297	n/a	LTP311	ltpFR2	12	n/a	n/a	n/a	8	10	1	8	1
1207.862	n/a	PROB	603931	n/a	LTP311	ltpFR2	12	n/a	n/a	n/a	8	12	9	2	1
1211.018	n/a	PROB	605509	n/a	LTP311	ltpFR2	12	n/a	n/a	n/a	8	18	8	7	3
1212.602	n/a	PROB	606301	n/a	LTP311	ltpFR2	12	n/a	n/a	n/a	8	16	2	8	6
1215.288	n/a	PROB	607644	n/a	LTP311	ltpFR2	12	n/a	n/a	n/a	8	20	9	8	3
1217.138	n/a	PROB	608569	n/a	LTP311	ltpFR2	12	n/a	n/a	n/a	8	13	5	2	6
1219.152	n/a	STOP	609576	n/a	LTP311	ltpFR2	12	n/a	n/a	n/a	8	n/a	n/a	n/a	n/a
1221.294	n/a	REC_START	610647	n/a	LTP311	ltpFR2	12	5	n/a	n/a	n/a	n/a	0	0	0
1223.788	n/a	REC_WORD	611894	wordpools/wasnorm_wordpool_576.txt	LTP311	ltpFR2	12	5	CAFE	216	n/a	n/a	0	0	0
1225.242	n/a	REC_WORD	612621	wordpools/wasnorm_wordpool_576.txt	LTP311	ltpFR2	12	5	DINER	467	n/a	n/a	0	0	0
1226.282	n/a	REC_WORD	613141	wordpools/wasnorm_wordpool_576.txt	LTP311	ltpFR2	12	5	STOMACH	1384	n/a	n/a	0	0	0
1227.282	n/a	REC_WORD_VV	613641	wordpools/wasnorm_wordpool_576.txt	LTP311	ltpFR2	12	5	<>	-1	n/a	n/a	0	0	0
1229.488	n/a	REC_WORD	614744	wordpools/wasnorm_wordpool_576.txt	LTP311	ltpFR2	12	5	CHAPEL	280	n/a	n/a	0	0	0
1230.08	n/a	REC_WORD	615040	wordpools/wasnorm_wordpool_576.txt	LTP311	ltpFR2	12	5	COSTUME	383	n/a	n/a	0	0	0
1232.644	n/a	REC_WORD	616322	wordpools/wasnorm_wordpool_576.txt	LTP311	ltpFR2	12	5	COOKBOOK	373	n/a	n/a	0	0	0
1233.402	n/a	REC_WORD	616701	wordpools/wasnorm_wordpool_576.txt	LTP311	ltpFR2	12	5	ROD	1203	n/a	n/a	0	0	0
1235.106	n/a	REC_WORD	617553	wordpools/wasnorm_wordpool_576.txt	LTP311	ltpFR2	12	5	DRINK	498	n/a	n/a	0	0	0
1237.202	n/a	REC_WORD	618601	wordpools/wasnorm_wordpool_576.txt	LTP311	ltpFR2	12	5	INMATE	738	n/a	n/a	0	0	0
1238.23	n/a	REC_WORD	619115	wordpools/wasnorm_wordpool_576.txt	LTP311	ltpFR2	12	5	CHEST	295	n/a	n/a	0	0	0
1239.116	n/a	REC_WORD	619558	wordpools/wasnorm_wordpool_576.txt	LTP311	ltpFR2	12	5	COURSE	390	n/a	n/a	0	0	0
1240.08	n/a	REC_WORD	620040	wordpools/wasnorm_wordpool_576.txt	LTP311	ltpFR2	12	5	SURVEY	1414	n/a	n/a	0	0	0
1242.044	n/a	REC_WORD	621022	wordpools/wasnorm_wordpool_576.txt	LTP311	ltpFR2	12	5	STREAM	1392	n/a	n/a	0	0	0
1244.474	n/a	REC_WORD	622237	wordpools/wasnorm_wordpool_576.txt	LTP311	ltpFR2	12	5	SEAGULL	1261	n/a	n/a	0	0	0
1249.886	n/a	REC_WORD	624943	wordpools/wasnorm_wordpool_576.txt	LTP311	ltpFR2	12	5	GOBLIN	645	n/a	n/a	0	0	0
1253.078	n/a	REC_WORD	626539	wordpools/wasnorm_wordpool_576.txt	LTP311	ltpFR2	12	5	PLAYGROUND	1087	n/a	n/a	0	0	0
1268.09	n/a	REC_WORD	634045	wordpools/wasnorm_wordpool_576.txt	LTP311	ltpFR2	12	5	SUPPER	1411	n/a	n/a	0	0	0
1294.284	n/a	REC_WORD	647142	wordpools/wasnorm_wordpool_576.txt	LTP311	ltpFR2	12	5	APPLE	33	n/a	n/a	0	0	0
1311.73	n/a	DISTRACTOR	655865	n/a	LTP311	ltpFR2	12	6	n/a	n/a	n/a	n/a	0	0	0
1311.73	n/a	START	655865	n/a	LTP311	ltpFR2	12	n/a	n/a	n/a	9	n/a	n/a	n/a	n/a
1311.744	n/a	PROB	655872	n/a	LTP311	ltpFR2	12	n/a	n/a	n/a	9	26	9	9	8
1314.314	n/a	PROB	657157	n/a	LTP311	ltpFR2	12	n/a	n/a	n/a	9	14	7	1	6
1316.332	n/a	PROB	658166	n/a	LTP311	ltpFR2	12	n/a	n/a	n/a	9	12	4	2	5
1319.202	n/a	PROB	659601	n/a	LTP311	ltpFR2	12	n/a	n/a	n/a	9	13	7	2	4
1321.552	n/a	PROB	660776	n/a	LTP311	ltpFR2	12	n/a	n/a	n/a	9	23	9	6	8
1324.056	n/a	PROB	662028	n/a	LTP311	ltpFR2	12	n/a	n/a	n/a	9	14	5	7	2
1325.374	n/a	PROB	662687	n/a	LTP311	ltpFR2	12	n/a	n/a	n/a	9	9	3	4	2
1327.624	n/a	PROB	663812	n/a	LTP311	ltpFR2	12	n/a	n/a	n/a	9	16	6	5	5
1328.792	n/a	PROB	664396	n/a	LTP311	ltpFR2	12	n/a	n/a	n/a	9	21	6	9	6
1330.326	n/a	PROB	665163	n/a	LTP311	ltpFR2	12	n/a	n/a	n/a	9	18	6	7	5
1332.662	n/a	PROB	666331	n/a	LTP311	ltpFR2	12	n/a	n/a	n/a	9	12	8	2	2
1334.128	n/a	PROB	667064	n/a	LTP311	ltpFR2	12	n/a	n/a	n/a	9	14	2	8	4
1335.458	n/a	STOP	667729	n/a	LTP311	ltpFR2	12	n/a	n/a	n/a	9	n/a	n/a	n/a	n/a
1336.716	n/a	WORD	668358	wordpools/wasnorm_wordpool_576.txt	LTP311	ltpFR2	12	6	CANAL	226	n/a	n/a	0	0	0
1339.508	n/a	WORD	669754	wordpools/wasnorm_wordpool_576.txt	LTP311	ltpFR2	12	6	QUAIL	1147	n/a	n/a	0	0	0
1342.244	n/a	WORD	671122	wordpools/wasnorm_wordpool_576.txt	LTP311	ltpFR2	12	6	VAGRANT	1544	n/a	n/a	0	0	0
1344.94	n/a	WORD	672470	wordpools/wasnorm_wordpool_576.txt	LTP311	ltpFR2	12	6	GUITAR	670	n/a	n/a	0	0	0
1347.516	n/a	WORD	673758	wordpools/wasnorm_wordpool_576.txt	LTP311	ltpFR2	12	6	STUDENT	1395	n/a	n/a	0	0	0
1349.942	n/a	WORD	674971	wordpools/wasnorm_wordpool_576.txt	LTP311	ltpFR2	12	6	COLLEGE	346	n/a	n/a	0	0	0
1352.396	n/a	WORD	676198	wordpools/wasnorm_wordpool_576.txt	LTP311	ltpFR2	12	6	GUARD	667	n/a	n/a	0	0	0
1354.914	n/a	WORD	677457	wordpools/wasnorm_wordpool_576.txt	LTP311	ltpFR2	12	6	MISSILE	900	n/a	n/a	0	0	0
1357.632	n/a	WORD	678816	wordpools/wasnorm_wordpool_576.txt	LTP311	ltpFR2	12	6	COOK	372	n/a	n/a	0	0	0
1360.328	n/a	WORD	680164	wordpools/wasnorm_wordpool_576.txt	LTP311	ltpFR2	12	6	MAPLE	866	n/a	n/a	0	0	0
1362.838	n/a	WORD	681419	wordpools/wasnorm_wordpool_576.txt	LTP311	ltpFR2	12	6	LAVA	804	n/a	n/a	0	0	0
1365.448	n/a	WORD	682724	wordpools/wasnorm_wordpool_576.txt	LTP311	ltpFR2	12	6	JAPAN	749	n/a	n/a	0	0	0
1368.116	n/a	WORD	684058	wordpools/wasnorm_wordpool_576.txt	LTP311	ltpFR2	12	6	CAMEL	223	n/a	n/a	0	0	0
1370.87	n/a	WORD	685435	wordpools/wasnorm_wordpool_576.txt	LTP311	ltpFR2	12	6	IDOL	733	n/a	n/a	0	0	0
1373.372	n/a	WORD	686686	wordpools/wasnorm_wordpool_576.txt	LTP311	ltpFR2	12	6	TRIBE	1505	n/a	n/a	0	0	0
1376.096	n/a	WORD	688048	wordpools/wasnorm_wordpool_576.txt	LTP311	ltpFR2	12	6	STAKE	1368	n/a	n/a	0	0	0
1378.74	n/a	WORD	689370	wordpools/wasnorm_wordpool_576.txt	LTP311	ltpFR2	12	6	CRUTCH	417	n/a	n/a	0	0	0
1381.244	n/a	WORD	690622	wordpools/wasnorm_wordpool_576.txt	LTP311	ltpFR2	12	6	LETTUCE	814	n/a	n/a	0	0	0
1383.662	n/a	WORD	691831	wordpools/wasnorm_wordpool_576.txt	LTP311	ltpFR2	12	6	SKIRT	1319	n/a	n/a	0	0	0
1386.482	n/a	WORD	693241	wordpools/wasnorm_wordpool_576.txt	LTP311	ltpFR2	12	6	PLAID	1080	n/a	n/a	0	0	0
1389.09	n/a	WORD	694545	wordpools/wasnorm_wordpool_576.txt	LTP311	ltpFR2	12	6	APRON	35	n/a	n/a	0	0	0
1391.82	n/a	WORD	695910	wordpools/wasnorm_wordpool_576.txt	LTP311	ltpFR2	12	6	WRIST	1626	n/a	n/a	0	0	0
1394.476	n/a	WORD	697238	wordpools/wasnorm_wordpool_576.txt	LTP311	ltpFR2	12	6	TEMPLE	1448	n/a	n/a	0	0	0
1397.098	n/a	WORD	698549	wordpools/wasnorm_wordpool_576.txt	LTP311	ltpFR2	12	6	SPOOL	1356	n/a	n/a	0	0	0
1398.71	n/a	START	699355	n/a	LTP311	ltpFR2	12	n/a	n/a	n/a	10	n/a	n/a	n/a	n/a
1399.866	n/a	DISTRACTOR	699933	n/a	LTP311	ltpFR2	12	6	n/a	n/a	n/a	n/a	0	0	0
1399.876	n/a	PROB	699938	n/a	LTP311	ltpFR2	12	n/a	n/a	n/a	10	18	6	4	8
1402.166	n/a	PROB	701083	n/a	LTP311	ltpFR2	12	n/a	n/a	n/a	10	19	6	5	8
1403.75	n/a	PROB	701875	n/a	LTP311	ltpFR2	12	n/a	n/a	n/a	10	4	1	2	1
1404.884	n/a	PROB	702442	n/a	LTP311	ltpFR2	12	n/a	n/a	n/a	10	7	3	1	3
1406.12	n/a	PROB	703060	n/a	LTP311	ltpFR2	12	n/a	n/a	n/a	10	20	7	4	9
1407.786	n/a	PROB	703893	n/a	LTP311	ltpFR2	12	n/a	n/a	n/a	10	24	7	9	9
1409.856	n/a	PROB	704928	n/a	LTP311	ltpFR2	12	n/a	n/a	n/a	10	20	4	8	8
1413.508	n/a	PROB	706754	n/a	LTP311	ltpFR2	12	n/a	n/a	n/a	10	21	9	4	8
1415.396	n/a	PROB	707698	n/a	LTP311	ltpFR2	12	n/a	n/a	n/a	10	12	3	6	3
1416.812	n/a	PROB	708406	n/a	LTP311	ltpFR2	12	n/a	n/a	n/a	10	12	3	2	7
1418.78	n/a	PROB	709390	n/a	LTP311	ltpFR2	12	n/a	n/a	n/a	10	12	3	3	6
1422.708	n/a	STOP	711354	n/a	LTP311	ltpFR2	12	n/a	n/a	n/a	10	n/a	n/a	n/a	n/a
1424.518	n/a	REC_START	712259	n/a	LTP311	ltpFR2	12	6	n/a	n/a	n/a	n/a	0	0	0
1426.508	n/a	REC_WORD	713254	wordpools/wasnorm_wordpool_576.txt	LTP311	ltpFR2	12	6	CANAL	226	n/a	n/a	0	0	0
1427.752	n/a	REC_WORD	713876	wordpools/wasnorm_wordpool_576.txt	LTP311	ltpFR2	12	6	QUAIL	1147	n/a	n/a	0	0	0
1432.318	n/a	REC_WORD	716159	wordpools/wasnorm_wordpool_576.txt	LTP311	ltpFR2	12	6	VAGRANT	1544	n/a	n/a	0	0	0
1433.73	n/a	REC_WORD	716865	wordpools/wasnorm_wordpool_576.txt	LTP311	ltpFR2	12	6	GUITAR	670	n/a	n/a	0	0	0
1435.134	n/a	REC_WORD	717567	wordpools/wasnorm_wordpool_576.txt	LTP311	ltpFR2	12	6	COLLEGE	346	n/a	n/a	0	0	0
1435.916	n/a	REC_WORD	717958	wordpools/wasnorm_wordpool_576.txt	LTP311	ltpFR2	12	6	STUDENT	1395	n/a	n/a	0	0	0
1436.916	n/a	REC_WORD	718458	wordpools/wasnorm_wordpool_576.txt	LTP311	ltpFR2	12	6	GUARD	667	n/a	n/a	0	0	0
1437.496	n/a	REC_WORD	718748	wordpools/wasnorm_wordpool_576.txt	LTP311	ltpFR2	12	6	MISSILE	900	n/a	n/a	0	0	0
1439.174	n/a	REC_WORD	719587	wordpools/wasnorm_wordpool_576.txt	LTP311	ltpFR2	12	6	MAPLE	866	n/a	n/a	0	0	0
1439.754	n/a	REC_WORD	719877	wordpools/wasnorm_wordpool_576.txt	LTP311	ltpFR2	12	6	COOK	372	n/a	n/a	0	0	0
1445.628	n/a	REC_WORD	722814	wordpools/wasnorm_wordpool_576.txt	LTP311	ltpFR2	12	6	LAVA	804	n/a	n/a	0	0	0
1446.586	n/a	REC_WORD	723293	wordpools/wasnorm_wordpool_576.txt	LTP311	ltpFR2	12	6	JAPAN	749	n/a	n/a	0	0	0
1447.894	n/a	REC_WORD	723947	wordpools/wasnorm_wordpool_576.txt	LTP311	ltpFR2	12	6	CAMEL	223	n/a	n/a	0	0	0
1450.48	n/a	REC_WORD	725240	wordpools/wasnorm_wordpool_576.txt	LTP311	ltpFR2	12	6	SKIRT	1319	n/a	n/a	0	0	0
1451.63	n/a	REC_WORD	725815	wordpools/wasnorm_wordpool_576.txt	LTP311	ltpFR2	12	6	STAKE	1368	n/a	n/a	0	0	0
1455.848	n/a	REC_WORD	727924	wordpools/wasnorm_wordpool_576.txt	LTP311	ltpFR2	12	6	IDOL	733	n/a	n/a	0	0	0
1457.392	n/a	REC_WORD	728696	wordpools/wasnorm_wordpool_576.txt	LTP311	ltpFR2	12	6	TRIBE	1505	n/a	n/a	0	0	0
1466.168	n/a	REC_WORD	733084	wordpools/wasnorm_wordpool_576.txt	LTP311	ltpFR2	12	6	PLAID	1080	n/a	n/a	0	0	0
1467.216	n/a	REC_WORD	733608	wordpools/wasnorm_wordpool_576.txt	LTP311	ltpFR2	12	6	APRON	35	n/a	n/a	0	0	0
1514.988	n/a	WORD	757494	wordpools/wasnorm_wordpool_576.txt	LTP311	ltpFR2	12	7	COUNTY	389	n/a	n/a	0	0	0
1517.556	n/a	WORD	758778	wordpools/wasnorm_wordpool_576.txt	LTP311	ltpFR2	12	7	SAUSAGE	1238	n/a	n/a	0	0	0
1520.142	n/a	WORD	760071	wordpools/wasnorm_wordpool_576.txt	LTP311	ltpFR2	12	7	CANYON	235	n/a	n/a	0	0	0
1522.928	n/a	WORD	761464	wordpools/wasnorm_wordpool_576.txt	LTP311	ltpFR2	12	7	CRITIC	410	n/a	n/a	0	0	0
1525.614	n/a	WORD	762807	wordpools/wasnorm_wordpool_576.txt	LTP311	ltpFR2	12	7	COMPASS	358	n/a	n/a	0	0	0
1528.168	n/a	WORD	764084	wordpools/wasnorm_wordpool_576.txt	LTP311	ltpFR2	12	7	CLIMBER	323	n/a	n/a	0	0	0
1530.984	n/a	WORD	765492	wordpools/wasnorm_wordpool_576.txt	LTP311	ltpFR2	12	7	SUMMIT	1405	n/a	n/a	0	0	0
1533.618	n/a	WORD	766809	wordpools/wasnorm_wordpool_576.txt	LTP311	ltpFR2	12	7	EAGLE	512	n/a	n/a	0	0	0
1536.39	n/a	WORD	768195	wordpools/wasnorm_wordpool_576.txt	LTP311	ltpFR2	12	7	PRIMATE	1123	n/a	n/a	0	0	0
1538.99	n/a	WORD	769495	wordpools/wasnorm_wordpool_576.txt	LTP311	ltpFR2	12	7	PLAZA	1088	n/a	n/a	0	0	0
1541.574	n/a	WORD	770787	wordpools/wasnorm_wordpool_576.txt	LTP311	ltpFR2	12	7	SNAIL	1332	n/a	n/a	0	0	0
1544.262	n/a	WORD	772131	wordpools/wasnorm_wordpool_576.txt	LTP311	ltpFR2	12	7	TURTLE	1522	n/a	n/a	0	0	0
1546.714	n/a	WORD	773357	wordpools/wasnorm_wordpool_576.txt	LTP311	ltpFR2	12	7	SEAL	1262	n/a	n/a	0	0	0
1549.214	n/a	WORD	774607	wordpools/wasnorm_wordpool_576.txt	LTP311	ltpFR2	12	7	BEAVER	109	n/a	n/a	0	0	0
1551.974	n/a	WORD	775987	wordpools/wasnorm_wordpool_576.txt	LTP311	ltpFR2	12	7	MARINE	869	n/a	n/a	0	0	0
1554.734	n/a	WORD	777367	wordpools/wasnorm_wordpool_576.txt	LTP311	ltpFR2	12	7	RAFT	1159	n/a	n/a	0	0	0
1557.304	n/a	WORD	778652	wordpools/wasnorm_wordpool_576.txt	LTP311	ltpFR2	12	7	CRATER	400	n/a	n/a	0	0	0
1559.89	n/a	WORD	779945	wordpools/wasnorm_wordpool_576.txt	LTP311	ltpFR2	12	7	MUSTARD	935	n/a	n/a	0	0	0
1562.592	n/a	WORD	781296	wordpools/wasnorm_wordpool_576.txt	LTP311	ltpFR2	12	7	PORTRAIT	1111	n/a	n/a	0	0	0
1565.368	n/a	WORD	782684	wordpools/wasnorm_wordpool_576.txt	LTP311	ltpFR2	12	7	HOUND	724	n/a	n/a	0	0	0
1567.98	n/a	WORD	783990	wordpools/wasnorm_wordpool_576.txt	LTP311	ltpFR2	12	7	HIKER	708	n/a	n/a	0	0	0
1570.764	n/a	WORD	785382	wordpools/wasnorm_wordpool_576.txt	LTP311	ltpFR2	12	7	RECORD	1176	n/a	n/a	0	0	0
1573.532	n/a	WORD	786766	wordpools/wasnorm_wordpool_576.txt	LTP311	ltpFR2	12	7	DUST	508	n/a	n/a	0	0	0
1576.02	n/a	WORD	788010	wordpools/wasnorm_wordpool_576.txt	LTP311	ltpFR2	12	7	OINTMENT	974	n/a	n/a	0	0	0
1577.628	n/a	START	788814	n/a	LTP311	ltpFR2	12	n/a	n/a	n/a	11	n/a	n/a	n/a	n/a
1578.438	n/a	DISTRACTOR	789219	n/a	LTP311	ltpFR2	12	7	n/a	n/a	n/a	n/a	0	0	0
1578.446	n/a	PROB	789223	n/a	LTP311	ltpFR2	12	n/a	n/a	n/a	11	9	6	1	2
1579.754	n/a	PROB	789877	n/a	LTP311	ltpFR2	12	n/a	n/a	n/a	11	10	2	6	2
1581.074	n/a	PROB	790537	n/a	LTP311	ltpFR2	12	n/a	n/a	n/a	11	14	8	1	5
1582.342	n/a	PROB	791171	n/a	LTP311	ltpFR2	12	n/a	n/a	n/a	11	14	4	5	5
1583.374	n/a	PROB	791687	n/a	LTP311	ltpFR2	12	n/a	n/a	n/a	11	14	2	4	8
1586.044	n/a	PROB	793022	n/a	LTP311	ltpFR2	12	n/a	n/a	n/a	11	20	6	5	9
1587.594	n/a	PROB	793797	n/a	LTP311	ltpFR2	12	n/a	n/a	n/a	11	18	6	7	5
1589.712	n/a	PROB	794856	n/a	LTP311	ltpFR2	12	n/a	n/a	n/a	11	5	1	2	2
1590.848	n/a	PROB	795424	n/a	LTP311	ltpFR2	12	n/a	n/a	n/a	11	12	3	5	4
1593.3	n/a	PROB	796650	n/a	LTP311	ltpFR2	12	n/a	n/a	n/a	11	17	5	3	9
1596.368	n/a	PROB	798184	n/a	LTP311	ltpFR2	12	n/a	n/a	n/a	11	17	9	4	4
1597.75	n/a	PROB	798875	n/a	LTP311	ltpFR2	12	n/a	n/a	n/a	11	19	9	6	4
1599.202	n/a	PROB	799601	n/a	LTP311	ltpFR2	12	n/a	n/a	n/a	11	18	2	9	7
1600.95	n/a	STOP	800475	n/a	LTP311	ltpFR2	12	n/a	n/a	n/a	11	n/a	n/a	n/a	n/a
1603.458	n/a	REC_START	801729	n/a	LTP311	ltpFR2	12	7	n/a	n/a	n/a	n/a	0	0	0
1609.052	n/a	REC_WORD	804526	wordpools/wasnorm_wordpool_576.txt	LTP311	ltpFR2	12	7	COUNTY	389	n/a	n/a	0	0	0
1609.544	n/a	REC_WORD	804772	wordpools/wasnorm_wordpool_576.txt	LTP311	ltpFR2	12	7	SAUSAGE	1238	n/a	n/a	0	0	0
1610.322	n/a	REC_WORD	805161	wordpools/wasnorm_wordpool_576.txt	LTP311	ltpFR2	12	7	OINTMENT	974	n/a	n/a	0	0	0
1611.152	n/a	REC_WORD	805576	wordpools/wasnorm_wordpool_576.txt	LTP311	ltpFR2	12	7	HIKER	708	n/a	n/a	0	0	0
1612.886	n/a	REC_WORD	806443	wordpools/wasnorm_wordpool_576.txt	LTP311	ltpFR2	12	7	COMPASS	358	n/a	n/a	0	0	0
1613.554	n/a	REC_WORD	806777	wordpools/wasnorm_wordpool_576.txt	LTP311	ltpFR2	12	7	EAGLE	512	n/a	n/a	0	0	0
1615.038	n/a	REC_WORD	807519	wordpools/wasnorm_wordpool_576.txt	LTP311	ltpFR2	12	7	CRITIC	410	n/a	n/a	0	0	0
1618.758	n/a	REC_WORD	809379	wordpools/wasnorm_wordpool_576.txt	LTP311	ltpFR2	12	7	PRIMATE	1123	n/a	n/a	0	0	0
1640.918	n/a	REC_WORD	820459	wordpools/wasnorm_wordpool_576.txt	LTP311	ltpFR2	12	7	HOUND	724	n/a	n/a	0	0	0
1693.91	n/a	DISTRACTOR	846955	n/a	LTP311	ltpFR2	12	8	n/a	n/a	n/a	n/a	0	0	0
1693.91	n/a	START	846955	n/a	LTP311	ltpFR2	12	n/a	n/a	n/a	12	n/a	n/a	n/a	n/a
1693.928	n/a	PROB	846964	n/a	LTP311	ltpFR2	12	n/a	n/a	n/a	12	20	6	5	9
1695.508	n/a	PROB	847754	n/a	LTP311	ltpFR2	12	n/a	n/a	n/a	12	14	3	2	9
1696.844	n/a	PROB	848422	n/a	LTP311	ltpFR2	12	n/a	n/a	n/a	12	20	5	9	6
1698.28	n/a	PROB	849140	n/a	LTP311	ltpFR2	12	n/a	n/a	n/a	12	19	8	8	3
1700.182	n/a	PROB	850091	n/a	LTP311	ltpFR2	12	n/a	n/a	n/a	12	21	9	4	8
1702.734	n/a	PROB	851367	n/a	LTP311	ltpFR2	12	n/a	n/a	n/a	12	11	3	1	7
1704.036	n/a	PROB	852018	n/a	LTP311	ltpFR2	12	n/a	n/a	n/a	12	12	2	2	8
1705.272	n/a	PROB	852636	n/a	LTP311	ltpFR2	12	n/a	n/a	n/a	12	16	6	9	2
1708.422	n/a	PROB	854211	n/a	LTP311	ltpFR2	12	n/a	n/a	n/a	12	19	1	9	9
1710.708	n/a	PROB	855354	n/a	LTP311	ltpFR2	12	n/a	n/a	n/a	12	9	3	5	1
1712.376	n/a	PROB	856188	n/a	LTP311	ltpFR2	12	n/a	n/a	n/a	12	13	7	5	1
1714.028	n/a	PROB	857014	n/a	LTP311	ltpFR2	12	n/a	n/a	n/a	12	12	6	3	3
1715.412	n/a	PROB	857706	n/a	LTP311	ltpFR2	12	n/a	n/a	n/a	12	15	8	5	2
1716.858	n/a	STOP	858429	n/a	LTP311	ltpFR2	12	n/a	n/a	n/a	12	n/a	n/a	n/a	n/a
1718.966	n/a	WORD	859483	wordpools/wasnorm_wordpool_576.txt	LTP311	ltpFR2	12	8	FRUIT	610	n/a	n/a	0	0	0
1721.716	n/a	WORD	860858	wordpools/wasnorm_wordpool_576.txt	LTP311	ltpFR2	12	8	COUNTRY	388	n/a	n/a	0	0	0
1724.268	n/a	WORD	862134	wordpools/wasnorm_wordpool_576.txt	LTP311	ltpFR2	12	8	PLASTER	1085	n/a	n/a	0	0	0
1726.904	n/a	WORD	863452	wordpools/wasnorm_wordpool_576.txt	LTP311	ltpFR2	12	8	SPOUSE	1358	n/a	n/a	0	0	0
1729.506	n/a	WORD	864753	wordpools/wasnorm_wordpool_576.txt	LTP311	ltpFR2	12	8	WASHER	1592	n/a	n/a	0	0	0
1732.208	n/a	WORD	866104	wordpools/wasnorm_wordpool_576.txt	LTP311	ltpFR2	12	8	CROWN	415	n/a	n/a	0	0	0
1734.742	n/a	WORD	867371	wordpools/wasnorm_wordpool_576.txt	LTP311	ltpFR2	12	8	ASIA	46	n/a	n/a	0	0	0
1737.544	n/a	WORD	868772	wordpools/wasnorm_wordpool_576.txt	LTP311	ltpFR2	12	8	PARROT	1015	n/a	n/a	0	0	0
1740.28	n/a	WORD	870140	wordpools/wasnorm_wordpool_576.txt	LTP311	ltpFR2	12	8	MARKET	871	n/a	n/a	0	0	0
1743.066	n/a	WORD	871533	wordpools/wasnorm_wordpool_576.txt	LTP311	ltpFR2	12	8	LUGGAGE	847	n/a	n/a	0	0	0
1745.886	n/a	WORD	872943	wordpools/wasnorm_wordpool_576.txt	LTP311	ltpFR2	12	8	PISTOL	1075	n/a	n/a	0	0	0
1748.57	n/a	WORD	874285	wordpools/wasnorm_wordpool_576.txt	LTP311	ltpFR2	12	8	ARMY	39	n/a	n/a	0	0	0
1751.106	n/a	WORD	875553	wordpools/wasnorm_wordpool_576.txt	LTP311	ltpFR2	12	8	TRANSPLANT	1496	n/a	n/a	0	0	0
1753.592	n/a	WORD	876796	wordpools/wasnorm_wordpool_576.txt	LTP311	ltpFR2	12	8	LONDON	843	n/a	n/a	0	0	0
1756.244	n/a	WORD	878122	wordpools/wasnorm_wordpool_576.txt	LTP311	ltpFR2	12	8	SPOON	1357	n/a	n/a	0	0	0
1758.778	n/a	WORD	879389	wordpools/wasnorm_wordpool_576.txt	LTP311	ltpFR2	12	8	RABBIT	1152	n/a	n/a	0	0	0
1761.38	n/a	WORD	880690	wordpools/wasnorm_wordpool_576.txt	LTP311	ltpFR2	12	8	TORTOISE	1486	n/a	n/a	0	0	0
1763.866	n/a	WORD	881933	wordpools/wasnorm_wordpool_576.txt	LTP311	ltpFR2	12	8	COTTAGE	384	n/a	n/a	0	0	0
1766.5	n/a	WORD	883250	wordpools/wasnorm_wordpool_576.txt	LTP311	ltpFR2	12	8	EYELASH	546	n/a	n/a	0	0	0
1769.32	n/a	WORD	884660	wordpools/wasnorm_wordpool_576.txt	LTP311	ltpFR2	12	8	PORK	1108	n/a	n/a	0	0	0
1771.922	n/a	WORD	885961	wordpools/wasnorm_wordpool_576.txt	LTP311	ltpFR2	12	8	TURKEY	1520	n/a	n/a	0	0	0
1774.59	n/a	WORD	887295	wordpools/wasnorm_wordpool_576.txt	LTP311	ltpFR2	12	8	HAMPER	682	n/a	n/a	0	0	0
1777.326	n/a	WORD	888663	wordpools/wasnorm_wordpool_576.txt	LTP311	ltpFR2	12	8	MAILBOX	857	n/a	n/a	0	0	0
1779.844	n/a	WORD	889922	wordpools/wasnorm_wordpool_576.txt	LTP311	ltpFR2	12	8	MAILMAN	858	n/a	n/a	0	0	0
1781.452	n/a	START	890726	n/a	LTP311	ltpFR2	12	n/a	n/a	n/a	13	n/a	n/a	n/a	n/a
1782.65	n/a	DISTRACTOR	891325	n/a	LTP311	ltpFR2	12	8	n/a	n/a	n/a	n/a	0	0	0
1782.662	n/a	PROB	891331	n/a	LTP311	ltpFR2	12	n/a	n/a	n/a	13	15	5	7	3
1785.332	n/a	PROB	892666	n/a	LTP311	ltpFR2	12	n/a	n/a	n/a	13	16	7	4	5
1787.084	n/a	PROB	893542	n/a	LTP311	ltpFR2	12	n/a	n/a	n/a	13	13	4	5	4
1790.202	n/a	PROB	895101	n/a	LTP311	ltpFR2	12	n/a	n/a	n/a	13	18	9	5	4
1791.872	n/a	PROB	895936	n/a	LTP311	ltpFR2	12	n/a	n/a	n/a	13	14	4	9	1
1794.39	n/a	PROB	897195	n/a	LTP311	ltpFR2	12	n/a	n/a	n/a	13	16	1	7	8
1795.958	n/a	PROB	897979	n/a	LTP311	ltpFR2	12	n/a	n/a	n/a	13	18	6	7	5
1798.06	n/a	PROB	899030	n/a	LTP311	ltpFR2	12	n/a	n/a	n/a	13	14	5	4	5
1799.576	n/a	PROB	899788	n/a	LTP311	ltpFR2	12	n/a	n/a	n/a	13	17	1	9	7
1802.446	n/a	PROB	901223	n/a	LTP311	ltpFR2	12	n/a	n/a	n/a	13	21	4	9	8
1803.97	n/a	STOP	901985	n/a	LTP311	ltpFR2	12	n/a	n/a	n/a	13	n/a	n/a	n/a	n/a
1807.268	n/a	REC_START	903634	n/a	LTP311	ltpFR2	12	8	n/a	n/a	n/a	n/a	0	0	0
1808.548	n/a	REC_WORD	904274	wordpools/wasnorm_wordpool_576.txt	LTP311	ltpFR2	12	8	FRUIT	610	n/a	n/a	0	0	0
1809.326	n/a	REC_WORD	904663	wordpools/wasnorm_wordpool_576.txt	LTP311	ltpFR2	12	8	COUNTRY	388	n/a	n/a	0	0	0
1811.018	n/a	REC_WORD	905509	wordpools/wasnorm_wordpool_576.txt	LTP311	ltpFR2	12	8	SPOUSE	1358	n/a	n/a	0	0	0
1813.418	n/a	REC_WORD	906709	wordpools/wasnorm_wordpool_576.txt	LTP311	ltpFR2	12	8	WASHER	1592	n/a	n/a	0	0	0
1820.162	n/a	REC_WORD	910081	wordpools/wasnorm_wordpool_576.txt	LTP311	ltpFR2	12	8	CROWN	415	n/a	n/a	0	0	0
1821.422	n/a	REC_WORD	910711	wordpools/wasnorm_wordpool_576.txt	LTP311	ltpFR2	12	8	ASIA	46	n/a	n/a	0	0	0
1822.282	n/a	REC_WORD	911141	wordpools/wasnorm_wordpool_576.txt	LTP311	ltpFR2	12	8	PARROT	1015	n/a	n/a	0	0	0
1823.156	n/a	REC_WORD	911578	wordpools/wasnorm_wordpool_576.txt	LTP311	ltpFR2	12	8	TRANSPLANT	1496	n/a	n/a	0	0	0
1825.124	n/a	REC_WORD	912562	wordpools/wasnorm_wordpool_576.txt	LTP311	ltpFR2	12	8	LONDON	843	n/a	n/a	0	0	0
1826.258	n/a	REC_WORD	913129	wordpools/wasnorm_wordpool_576.txt	LTP311	ltpFR2	12	8	TORTOISE	1486	n/a	n/a	0	0	0
1829.888	n/a	REC_WORD	914944	wordpools/wasnorm_wordpool_576.txt	LTP311	ltpFR2	12	8	PORK	1108	n/a	n/a	0	0	0
1830.536	n/a	REC_WORD	915268	wordpools/wasnorm_wordpool_576.txt	LTP311	ltpFR2	12	8	TURKEY	1520	n/a	n/a	0	0	0
1883.792	n/a	REST_REWET	941896	n/a	LTP311	ltpFR2	12	8	n/a	n/a	n/a	n/a	0	0	0
2065.202	n/a	DISTRACTOR	1032601	n/a	LTP311	ltpFR2	12	9	n/a	n/a	n/a	n/a	0	0	0
2065.202	n/a	START	1032601	n/a	LTP311	ltpFR2	12	n/a	n/a	n/a	14	n/a	n/a	n/a	n/a
2065.218	n/a	PROB	1032609	n/a	LTP311	ltpFR2	12	n/a	n/a	n/a	14	15	5	8	2
2067.42	n/a	PROB	1033710	n/a	LTP311	ltpFR2	12	n/a	n/a	n/a	14	12	2	2	8
2068.684	n/a	PROB	1034342	n/a	LTP311	ltpFR2	12	n/a	n/a	n/a	14	10	1	2	7
2069.972	n/a	PROB	1034986	n/a	LTP311	ltpFR2	12	n/a	n/a	n/a	14	14	5	5	4
2071.138	n/a	PROB	1035569	n/a	LTP311	ltpFR2	12	n/a	n/a	n/a	14	22	9	7	6
2073.406	n/a	PROB	1036703	n/a	LTP311	ltpFR2	12	n/a	n/a	n/a	14	24	9	6	9
2075.358	n/a	PROB	1037679	n/a	LTP311	ltpFR2	12	n/a	n/a	n/a	14	19	6	9	4
2077.76	n/a	PROB	1038880	n/a	LTP311	ltpFR2	12	n/a	n/a	n/a	14	20	4	7	9
2080.762	n/a	PROB	1040381	n/a	LTP311	ltpFR2	12	n/a	n/a	n/a	14	13	7	3	3
2083.63	n/a	PROB	1041815	n/a	LTP311	ltpFR2	12	n/a	n/a	n/a	14	16	3	8	5
2085.948	n/a	PROB	1042974	n/a	LTP311	ltpFR2	12	n/a	n/a	n/a	14	13	3	1	9
2088.112	n/a	STOP	1044056	n/a	LTP311	ltpFR2	12	n/a	n/a	n/a	14	n/a	n/a	n/a	n/a
2090.188	n/a	WORD	1045094	wordpools/wasnorm_wordpool_576.txt	LTP311	ltpFR2	12	9	HOSTESS	723	n/a	n/a	0	0	0
2092.798	n/a	WORD	1046399	wordpools/wasnorm_wordpool_576.txt	LTP311	ltpFR2	12	9	LEG	809	n/a	n/a	0	0	0
2095.408	n/a	WORD	1047704	wordpools/wasnorm_wordpool_576.txt	LTP311	ltpFR2	12	9	ANKLE	24	n/a	n/a	0	0	0
2098.12	n/a	WORD	1049060	wordpools/wasnorm_wordpool_576.txt	LTP311	ltpFR2	12	9	TWISTER	1530	n/a	n/a	0	0	0
2100.922	n/a	WORD	1050461	wordpools/wasnorm_wordpool_576.txt	LTP311	ltpFR2	12	9	LASER	801	n/a	n/a	0	0	0
2103.698	n/a	WORD	1051849	wordpools/wasnorm_wordpool_576.txt	LTP311	ltpFR2	12	9	LADY	794	n/a	n/a	0	0	0
2106.434	n/a	WORD	1053217	wordpools/wasnorm_wordpool_576.txt	LTP311	ltpFR2	12	9	COUSIN	392	n/a	n/a	0	0	0
2109.114	n/a	WORD	1054557	wordpools/wasnorm_wordpool_576.txt	LTP311	ltpFR2	12	9	BACON	67	n/a	n/a	0	0	0
2111.614	n/a	WORD	1055807	wordpools/wasnorm_wordpool_576.txt	LTP311	ltpFR2	12	9	FARMER	553	n/a	n/a	0	0	0
2114.266	n/a	WORD	1057133	wordpools/wasnorm_wordpool_576.txt	LTP311	ltpFR2	12	9	KETCHUP	771	n/a	n/a	0	0	0
2116.8	n/a	WORD	1058400	wordpools/wasnorm_wordpool_576.txt	LTP311	ltpFR2	12	9	PANTHER	1009	n/a	n/a	0	0	0
2119.286	n/a	WORD	1059643	wordpools/wasnorm_wordpool_576.txt	LTP311	ltpFR2	12	9	LEOPARD	812	n/a	n/a	0	0	0
2122.006	n/a	WORD	1061003	wordpools/wasnorm_wordpool_576.txt	LTP311	ltpFR2	12	9	SUNSET	1408	n/a	n/a	0	0	0
2124.808	n/a	WORD	1062404	wordpools/wasnorm_wordpool_576.txt	LTP311	ltpFR2	12	9	FEMALE	559	n/a	n/a	0	0	0
2127.394	n/a	WORD	1063697	wordpools/wasnorm_wordpool_576.txt	LTP311	ltpFR2	12	9	GRAVEL	659	n/a	n/a	0	0	0
2130.136	n/a	WORD	1065068	wordpools/wasnorm_wordpool_576.txt	LTP311	ltpFR2	12	9	RUST	1219	n/a	n/a	0	0	0
2132.798	n/a	WORD	1066399	wordpools/wasnorm_wordpool_576.txt	LTP311	ltpFR2	12	9	COFFEE	341	n/a	n/a	0	0	0
2135.584	n/a	WORD	1067792	wordpools/wasnorm_wordpool_576.txt	LTP311	ltpFR2	12	9	TRENCH	1503	n/a	n/a	0	0	0
2138.322	n/a	WORD	1069161	wordpools/wasnorm_wordpool_576.txt	LTP311	ltpFR2	12	9	FOX	598	n/a	n/a	0	0	0
2140.756	n/a	WORD	1070378	wordpools/wasnorm_wordpool_576.txt	LTP311	ltpFR2	12	9	SCARECROW	1245	n/a	n/a	0	0	0
2143.196	n/a	WORD	1071598	wordpools/wasnorm_wordpool_576.txt	LTP311	ltpFR2	12	9	CROSS	413	n/a	n/a	0	0	0
2145.998	n/a	WORD	1072999	wordpools/wasnorm_wordpool_576.txt	LTP311	ltpFR2	12	9	BANK	83	n/a	n/a	0	0	0
2148.528	n/a	WORD	1074264	wordpools/wasnorm_wordpool_576.txt	LTP311	ltpFR2	12	9	LODGE	839	n/a	n/a	0	0	0
2151.248	n/a	WORD	1075624	wordpools/wasnorm_wordpool_576.txt	LTP311	ltpFR2	12	9	SUNRISE	1407	n/a	n/a	0	0	0
2152.854	n/a	START	1076427	n/a	LTP311	ltpFR2	12	n/a	n/a	n/a	15	n/a	n/a	n/a	n/a
2153.656	n/a	DISTRACTOR	1076828	n/a	LTP311	ltpFR2	12	9	n/a	n/a	n/a	n/a	0	0	0
2153.666	n/a	PROB	1076833	n/a	LTP311	ltpFR2	12	n/a	n/a	n/a	15	6	2	3	1
2154.918	n/a	PROB	1077459	n/a	LTP311	ltpFR2	12	n/a	n/a	n/a	15	21	7	7	7
2156.668	n/a	PROB	1078334	n/a	LTP311	ltpFR2	12	n/a	n/a	n/a	15	12	4	1	7
2160.338	n/a	PROB	1080169	n/a	LTP311	ltpFR2	12	n/a	n/a	n/a	15	18	7	9	2
2163.14	n/a	PROB	1081570	n/a	LTP311	ltpFR2	12	n/a	n/a	n/a	15	9	2	2	5
2164.412	n/a	PROB	1082206	n/a	LTP311	ltpFR2	12	n/a	n/a	n/a	15	19	6	7	6
2166.744	n/a	PROB	1083372	n/a	LTP311	ltpFR2	12	n/a	n/a	n/a	15	21	8	8	5
2168.38	n/a	PROB	1084190	n/a	LTP311	ltpFR2	12	n/a	n/a	n/a	15	14	7	2	5
2169.898	n/a	PROB	1084949	n/a	LTP311	ltpFR2	12	n/a	n/a	n/a	15	21	9	4	8
2171.45	n/a	PROB	1085725	n/a	LTP311	ltpFR2	12	n/a	n/a	n/a	15	5	2	2	1
2172.982	n/a	PROB	1086491	n/a	LTP311	ltpFR2	12	n/a	n/a	n/a	15	19	4	8	7
2176.744	n/a	STOP	1088372	n/a	LTP311	ltpFR2	12	n/a	n/a	n/a	15	n/a	n/a	n/a	n/a
2178.738	n/a	REC_START	1089369	n/a	LTP311	ltpFR2	12	9	n/a	n/a	n/a	n/a	0	0	0
2179.676	n/a	REC_WORD	1089838	wordpools/wasnorm_wordpool_576.txt	LTP311	ltpFR2	12	9	BANK	83	n/a	n/a	0	0	0
2180.3	n/a	REC_WORD	1090150	wordpools/wasnorm_wordpool_576.txt	LTP311	ltpFR2	12	9	LODGE	839	n/a	n/a	0	0	0
2180.998	n/a	REC_WORD	1090499	wordpools/wasnorm_wordpool_576.txt	LTP311	ltpFR2	12	9	SUNRISE	1407	n/a	n/a	0	0	0
2182.064	n/a	REC_WORD	1091032	wordpools/wasnorm_wordpool_576.txt	LTP311	ltpFR2	12	9	SCARECROW	1245	n/a	n/a	0	0	0
2182.85	n/a	REC_WORD	1091425	wordpools/wasnorm_wordpool_576.txt	LTP311	ltpFR2	12	9	FOX	598	n/a	n/a	0	0	0
2183.682	n/a	REC_WORD	1091841	wordpools/wasnorm_wordpool_576.txt	LTP311	ltpFR2	12	9	CROSS	413	n/a	n/a	0	0	0
2185.882	n/a	REC_WORD	1092941	wordpools/wasnorm_wordpool_576.txt	LTP311	ltpFR2	12	9	TRENCH	1503	n/a	n/a	0	0	0
2188.026	n/a	REC_WORD	1094013	wordpools/wasnorm_wordpool_576.txt	LTP311	ltpFR2	12	9	HOSTESS	723	n/a	n/a	0	0	0
2190.372	n/a	REC_WORD	1095186	wordpools/wasnorm_wordpool_576.txt	LTP311	ltpFR2	12	9	LEG	809	n/a	n/a	0	0	0
2191.99	n/a	REC_WORD	1095995	wordpools/wasnorm_wordpool_576.txt	LTP311	ltpFR2	12	9	ANKLE	24	n/a	n/a	0	0	0
2196.634	n/a	REC_WORD	1098317	wordpools/wasnorm_wordpool_576.txt	LTP311	ltpFR2	12	9	LADY	794	n/a	n/a	0	0	0
2203.832	n/a	REC_WORD	1101916	wordpools/wasnorm_wordpool_576.txt	LTP311	ltpFR2	12	9	BACON	67	n/a	n/a	0	0	0
2204.752	n/a	REC_WORD	1102376	wordpools/wasnorm_wordpool_576.txt	LTP311	ltpFR2	12	9	FARMER	553	n/a	n/a	0	0	0
2206.982	n/a	REC_WORD	1103491	wordpools/wasnorm_wordpool_576.txt	LTP311	ltpFR2	12	9	KETCHUP	771	n/a	n/a	0	0	0
2210.958	n/a	REC_WORD	1105479	wordpools/wasnorm_wordpool_576.txt	LTP311	ltpFR2	12	9	PANTHER	1009	n/a	n/a	0	0	0
2213.852	n/a	REC_WORD	1106926	wordpools/wasnorm_wordpool_576.txt	LTP311	ltpFR2	12	9	LEOPARD	812	n/a	n/a	0	0	0
2216.062	n/a	REC_WORD	1108031	wordpools/wasnorm_wordpool_576.txt	LTP311	ltpFR2	12	9	SUNSET	1408	n/a	n/a	0	0	0
2222.664	n/a	REC_WORD	1111332	wordpools/wasnorm_wordpool_576.txt	LTP311	ltpFR2	12	9	GRAVEL	659	n/a	n/a	0	0	0
2223.15	n/a	REC_WORD	1111575	wordpools/wasnorm_wordpool_576.txt	LTP311	ltpFR2	12	9	RUST	1219	n/a	n/a	0	0	0
2223.864	n/a	REC_WORD	1111932	wordpools/wasnorm_wordpool_576.txt	LTP311	ltpFR2	12	9	COFFEE	341	n/a	n/a	0	0	0
2234.634	n/a	REC_WORD	1117317	wordpools/wasnorm_wordpool_576.txt	LTP311	ltpFR2	12	9	BANK	83	n/a	n/a	0	0	0
2243.77	n/a	REC_WORD	1121885	wordpools/wasnorm_wordpool_576.txt	LTP311	ltpFR2	12	9	TRENCH	1503	n/a	n/a	0	0	0
2252.05	n/a	REC_WORD	1126025	wordpools/wasnorm_wordpool_576.txt	LTP311	ltpFR2	12	9	COUSIN	392	n/a	n/a	0	0	0
2269.16	n/a	DISTRACTOR	1134580	n/a	LTP311	ltpFR2	12	10	n/a	n/a	n/a	n/a	0	0	0
2269.16	n/a	START	1134580	n/a	LTP311	ltpFR2	12	n/a	n/a	n/a	16	n/a	n/a	n/a	n/a
2269.176	n/a	PROB	1134588	n/a	LTP311	ltpFR2	12	n/a	n/a	n/a	16	19	7	6	6
2271.226	n/a	PROB	1135613	n/a	LTP311	ltpFR2	12	n/a	n/a	n/a	16	8	2	1	5
2272.644	n/a	PROB	1136322	n/a	LTP311	ltpFR2	12	n/a	n/a	n/a	16	13	3	6	4
2274.212	n/a	PROB	1137106	n/a	LTP311	ltpFR2	12	n/a	n/a	n/a	16	4	1	1	2
2275.898	n/a	PROB	1137949	n/a	LTP311	ltpFR2	12	n/a	n/a	n/a	16	11	3	1	7
2277.25	n/a	PROB	1138625	n/a	LTP311	ltpFR2	12	n/a	n/a	n/a	16	22	9	7	6
2280.118	n/a	PROB	1140059	n/a	LTP311	ltpFR2	12	n/a	n/a	n/a	16	18	6	5	7
2283.754	n/a	PROB	1141877	n/a	LTP311	ltpFR2	12	n/a	n/a	n/a	16	22	7	8	7
2285.424	n/a	PROB	1142712	n/a	LTP311	ltpFR2	12	n/a	n/a	n/a	16	3	1	1	1
2286.472	n/a	PROB	1143236	n/a	LTP311	ltpFR2	12	n/a	n/a	n/a	16	20	9	2	9
2287.974	n/a	PROB	1143987	n/a	LTP311	ltpFR2	12	n/a	n/a	n/a	16	16	8	3	5
2289.724	n/a	PROB	1144862	n/a	LTP311	ltpFR2	12	n/a	n/a	n/a	16	22	8	7	7
2293.158	n/a	STOP	1146579	n/a	LTP311	ltpFR2	12	n/a	n/a	n/a	16	n/a	n/a	n/a	n/a
2294.218	n/a	WORD	1147109	wordpools/wasnorm_wordpool_576.txt	LTP311	ltpFR2	12	10	PIGEON	1065	n/a	n/a	0	0	0
2296.822	n/a	WORD	1148411	wordpools/wasnorm_wordpool_576.txt	LTP311	ltpFR2	12	10	CONVICT	371	n/a	n/a	0	0	0
2299.498	n/a	WORD	1149749	wordpools/wasnorm_wordpool_576.txt	LTP311	ltpFR2	12	10	GIFT	635	n/a	n/a	0	0	0
2301.926	n/a	WORD	1150963	wordpools/wasnorm_wordpool_576.txt	LTP311	ltpFR2	12	10	IGLOO	734	n/a	n/a	0	0	0
2304.702	n/a	WORD	1152351	wordpools/wasnorm_wordpool_576.txt	LTP311	ltpFR2	12	10	KNAPSACK	783	n/a	n/a	0	0	0
2307.24	n/a	WORD	1153620	wordpools/wasnorm_wordpool_576.txt	LTP311	ltpFR2	12	10	WITNESS	1618	n/a	n/a	0	0	0
2310.042	n/a	WORD	1155021	wordpools/wasnorm_wordpool_576.txt	LTP311	ltpFR2	12	10	GHETTO	633	n/a	n/a	0	0	0
2312.518	n/a	WORD	1156259	wordpools/wasnorm_wordpool_576.txt	LTP311	ltpFR2	12	10	STOVE	1388	n/a	n/a	0	0	0
2315.088	n/a	WORD	1157544	wordpools/wasnorm_wordpool_576.txt	LTP311	ltpFR2	12	10	BURGLAR	200	n/a	n/a	0	0	0
2317.806	n/a	WORD	1158903	wordpools/wasnorm_wordpool_576.txt	LTP311	ltpFR2	12	10	HAWK	692	n/a	n/a	0	0	0
2320.4	n/a	WORD	1160200	wordpools/wasnorm_wordpool_576.txt	LTP311	ltpFR2	12	10	TUTU	1524	n/a	n/a	0	0	0
2323.17	n/a	WORD	1161585	wordpools/wasnorm_wordpool_576.txt	LTP311	ltpFR2	12	10	CABIN	211	n/a	n/a	0	0	0
2325.596	n/a	WORD	1162798	wordpools/wasnorm_wordpool_576.txt	LTP311	ltpFR2	12	10	LUMBER	848	n/a	n/a	0	0	0
2328.056	n/a	WORD	1164028	wordpools/wasnorm_wordpool_576.txt	LTP311	ltpFR2	12	10	DOLPHIN	483	n/a	n/a	0	0	0
2330.616	n/a	WORD	1165308	wordpools/wasnorm_wordpool_576.txt	LTP311	ltpFR2	12	10	BLUEPRINT	142	n/a	n/a	0	0	0
2333.202	n/a	WORD	1166601	wordpools/wasnorm_wordpool_576.txt	LTP311	ltpFR2	12	10	BASEMENT	94	n/a	n/a	0	0	0
2335.762	n/a	WORD	1167881	wordpools/wasnorm_wordpool_576.txt	LTP311	ltpFR2	12	10	LIVER	833	n/a	n/a	0	0	0
2338.38	n/a	WORD	1169190	wordpools/wasnorm_wordpool_576.txt	LTP311	ltpFR2	12	10	STONE	1385	n/a	n/a	0	0	0
2340.826	n/a	WORD	1170413	wordpools/wasnorm_wordpool_576.txt	LTP311	ltpFR2	12	10	POCKET	1093	n/a	n/a	0	0	0
2343.534	n/a	WORD	1171767	wordpools/wasnorm_wordpool_576.txt	LTP311	ltpFR2	12	10	PEACH	1031	n/a	n/a	0	0	0
2346.08	n/a	WORD	1173040	wordpools/wasnorm_wordpool_576.txt	LTP311	ltpFR2	12	10	SHORTCAKE	1292	n/a	n/a	0	0	0
2348.67	n/a	WORD	1174335	wordpools/wasnorm_wordpool_576.txt	LTP311	ltpFR2	12	10	JUDGE	761	n/a	n/a	0	0	0
2351.368	n/a	WORD	1175684	wordpools/wasnorm_wordpool_576.txt	LTP311	ltpFR2	12	10	GAVEL	627	n/a	n/a	0	0	0
2354.16	n/a	WORD	1177080	wordpools/wasnorm_wordpool_576.txt	LTP311	ltpFR2	12	10	DIME	466	n/a	n/a	0	0	0
2355.772	n/a	START	1177886	n/a	LTP311	ltpFR2	12	n/a	n/a	n/a	17	n/a	n/a	n/a	n/a
2356.624	n/a	DISTRACTOR	1178312	n/a	LTP311	ltpFR2	12	10	n/a	n/a	n/a	n/a	0	0	0
2356.628	n/a	PROB	1178314	n/a	LTP311	ltpFR2	12	n/a	n/a	n/a	17	19	6	4	9
2358.346	n/a	PROB	1179173	n/a	LTP311	ltpFR2	12	n/a	n/a	n/a	17	16	4	3	9
2360.33	n/a	PROB	1180165	n/a	LTP311	ltpFR2	12	n/a	n/a	n/a	17	23	9	9	5
2362.166	n/a	PROB	1181083	n/a	LTP311	ltpFR2	12	n/a	n/a	n/a	17	17	7	7	3
2364.2	n/a	PROB	1182100	n/a	LTP311	ltpFR2	12	n/a	n/a	n/a	17	12	5	5	2
2365.584	n/a	PROB	1182792	n/a	LTP311	ltpFR2	12	n/a	n/a	n/a	17	12	2	4	6
2366.768	n/a	PROB	1183384	n/a	LTP311	ltpFR2	12	n/a	n/a	n/a	17	11	2	6	3
2368.502	n/a	PROB	1184251	n/a	LTP311	ltpFR2	12	n/a	n/a	n/a	17	14	3	7	4
2370.67	n/a	PROB	1185335	n/a	LTP311	ltpFR2	12	n/a	n/a	n/a	17	13	4	8	1
2372.456	n/a	PROB	1186228	n/a	LTP311	ltpFR2	12	n/a	n/a	n/a	17	18	9	8	1
2374.192	n/a	PROB	1187096	n/a	LTP311	ltpFR2	12	n/a	n/a	n/a	17	16	5	6	5
2376.542	n/a	PROB	1188271	n/a	LTP311	ltpFR2	12	n/a	n/a	n/a	17	15	6	5	4
2378.436	n/a	STOP	1189218	n/a	LTP311	ltpFR2	12	n/a	n/a	n/a	17	n/a	n/a	n/a	n/a
2381.662	n/a	REC_START	1190831	n/a	LTP311	ltpFR2	12	10	n/a	n/a	n/a	n/a	0	0	0
2383.452	n/a	REC_WORD	1191726	wordpools/wasnorm_wordpool_576.txt	LTP311	ltpFR2	12	10	PIGEON	1065	n/a	n/a	0	0	0
2384.796	n/a	REC_WORD	1192398	wordpools/wasnorm_wordpool_576.txt	LTP311	ltpFR2	12	10	CONVICT	371	n/a	n/a	0	0	0
2386.064	n/a	REC_WORD	1193032	wordpools/wasnorm_wordpool_576.txt	LTP311	ltpFR2	12	10	GIFT	635	n/a	n/a	0	0	0
2387.688	n/a	REC_WORD	1193844	wordpools/wasnorm_wordpool_576.txt	LTP311	ltpFR2	12	10	IGLOO	734	n/a	n/a	0	0	0
2388.128	n/a	REC_WORD	1194064	wordpools/wasnorm_wordpool_576.txt	LTP311	ltpFR2	12	10	KNAPSACK	783	n/a	n/a	0	0	0
2390.284	n/a	REC_WORD	1195142	wordpools/wasnorm_wordpool_576.txt	LTP311	ltpFR2	12	10	BURGLAR	200	n/a	n/a	0	0	0
2390.718	n/a	REC_WORD	1195359	wordpools/wasnorm_wordpool_576.txt	LTP311	ltpFR2	12	10	STONE	1385	n/a	n/a	0	0	0
2391.342	n/a	REC_WORD	1195671	wordpools/wasnorm_wordpool_576.txt	LTP311	ltpFR2	12	10	HAWK	692	n/a	n/a	0	0	0
2392.01	n/a	REC_WORD	1196005	wordpools/wasnorm_wordpool_576.txt	LTP311	ltpFR2	12	10	TUTU	1524	n/a	n/a	0	0	0
2394.884	n/a	REC_WORD	1197442	wordpools/wasnorm_wordpool_576.txt	LTP311	ltpFR2	12	10	LUMBER	848	n/a	n/a	0	0	0
2395.418	n/a	REC_WORD	1197709	wordpools/wasnorm_wordpool_576.txt	LTP311	ltpFR2	12	10	CAB	209	n/a	n/a	0	0	0
2400.956	n/a	REC_WORD	1200478	wordpools/wasnorm_wordpool_576.txt	LTP311	ltpFR2	12	10	BASEMENT	94	n/a	n/a	0	0	0
2401.748	n/a	REC_WORD	1200874	wordpools/wasnorm_wordpool_576.txt	LTP311	ltpFR2	12	10	DOLPHIN	483	n/a	n/a	0	0	0
2407.14	n/a	REC_WORD	1203570	wordpools/wasnorm_wordpool_576.txt	LTP311	ltpFR2	12	10	STONE	1385	n/a	n/a	0	0	0
2407.848	n/a	REC_WORD	1203924	wordpools/wasnorm_wordpool_576.txt	LTP311	ltpFR2	12	10	POCKET	1093	n/a	n/a	0	0	0
2408.544	n/a	REC_WORD	1204272	wordpools/wasnorm_wordpool_576.txt	LTP311	ltpFR2	12	10	PEACH	1031	n/a	n/a	0	0	0
2409.05	n/a	REC_WORD	1204525	wordpools/wasnorm_wordpool_576.txt	LTP311	ltpFR2	12	10	SHORTCAKE	1292	n/a	n/a	0	0	0
2410.05	n/a	REC_WORD_VV	1205025	wordpools/wasnorm_wordpool_576.txt	LTP311	ltpFR2	12	10	<>	-1	n/a	n/a	0	0	0
2411.378	n/a	REC_WORD	1205689	wordpools/wasnorm_wordpool_576.txt	LTP311	ltpFR2	12	10	LIVER	833	n/a	n/a	0	0	0
2412.806	n/a	REC_WORD	1206403	wordpools/wasnorm_wordpool_576.txt	LTP311	ltpFR2	12	10	JUDGE	761	n/a	n/a	0	0	0
2413.192	n/a	REC_WORD	1206596	wordpools/wasnorm_wordpool_576.txt	LTP311	ltpFR2	12	10	GAVEL	627	n/a	n/a	0	0	0
2413.616	n/a	REC_WORD	1206808	wordpools/wasnorm_wordpool_576.txt	LTP311	ltpFR2	12	10	DIME	466	n/a	n/a	0	0	0
2472.118	n/a	WORD	1236059	wordpools/wasnorm_wordpool_576.txt	LTP311	ltpFR2	12	11	CEILING	265	n/a	n/a	0	0	0
2474.57	n/a	WORD	1237285	wordpools/wasnorm_wordpool_576.txt	LTP311	ltpFR2	12	11	WAITER	1580	n/a	n/a	0	0	0
2477.338	n/a	WORD	1238669	wordpools/wasnorm_wordpool_576.txt	LTP311	ltpFR2	12	11	MARS	873	n/a	n/a	0	0	0
2480.024	n/a	WORD	1240012	wordpools/wasnorm_wordpool_576.txt	LTP311	ltpFR2	12	11	TERMITE	1451	n/a	n/a	0	0	0
2482.726	n/a	WORD	1241363	wordpools/wasnorm_wordpool_576.txt	LTP311	ltpFR2	12	11	COCOON	339	n/a	n/a	0	0	0
2485.346	n/a	WORD	1242673	wordpools/wasnorm_wordpool_576.txt	LTP311	ltpFR2	12	11	LUNCH	849	n/a	n/a	0	0	0
2488.048	n/a	WORD	1244024	wordpools/wasnorm_wordpool_576.txt	LTP311	ltpFR2	12	11	GREASE	660	n/a	n/a	0	0	0
2490.85	n/a	WORD	1245425	wordpools/wasnorm_wordpool_576.txt	LTP311	ltpFR2	12	11	SANDWICH	1232	n/a	n/a	0	0	0
2493.534	n/a	WORD	1246767	wordpools/wasnorm_wordpool_576.txt	LTP311	ltpFR2	12	11	SHOULDER	1294	n/a	n/a	0	0	0
2496.342	n/a	WORD	1248171	wordpools/wasnorm_wordpool_576.txt	LTP311	ltpFR2	12	11	RECEIPT	1173	n/a	n/a	0	0	0
2498.99	n/a	WORD	1249495	wordpools/wasnorm_wordpool_576.txt	LTP311	ltpFR2	12	11	QUEEN	1149	n/a	n/a	0	0	0
2501.462	n/a	WORD	1250731	wordpools/wasnorm_wordpool_576.txt	LTP311	ltpFR2	12	11	SPARROW	1347	n/a	n/a	0	0	0
2503.926	n/a	WORD	1251963	wordpools/wasnorm_wordpool_576.txt	LTP311	ltpFR2	12	11	TRACTOR	1493	n/a	n/a	0	0	0
2506.644	n/a	WORD	1253322	wordpools/wasnorm_wordpool_576.txt	LTP311	ltpFR2	12	11	ISLAND	745	n/a	n/a	0	0	0
2509.062	n/a	WORD	1254531	wordpools/wasnorm_wordpool_576.txt	LTP311	ltpFR2	12	11	ELBOW	520	n/a	n/a	0	0	0
2511.686	n/a	WORD	1255843	wordpools/wasnorm_wordpool_576.txt	LTP311	ltpFR2	12	11	PLIERS	1089	n/a	n/a	0	0	0
2514.188	n/a	WORD	1257094	wordpools/wasnorm_wordpool_576.txt	LTP311	ltpFR2	12	11	WRENCH	1625	n/a	n/a	0	0	0
2516.618	n/a	WORD	1258309	wordpools/wasnorm_wordpool_576.txt	LTP311	ltpFR2	12	11	JELLO	754	n/a	n/a	0	0	0
2519.338	n/a	WORD	1259669	wordpools/wasnorm_wordpool_576.txt	LTP311	ltpFR2	12	11	KIDNEY	776	n/a	n/a	0	0	0
2521.84	n/a	WORD	1260920	wordpools/wasnorm_wordpool_576.txt	LTP311	ltpFR2	12	11	YARN	1631	n/a	n/a	0	0	0
2524.598	n/a	WORD	1262299	wordpools/wasnorm_wordpool_576.txt	LTP311	ltpFR2	12	11	FRANCE	601	n/a	n/a	0	0	0
2527.144	n/a	WORD	1263572	wordpools/wasnorm_wordpool_576.txt	LTP311	ltpFR2	12	11	MOP	916	n/a	n/a	0	0	0
2529.864	n/a	WORD	1264932	wordpools/wasnorm_wordpool_576.txt	LTP311	ltpFR2	12	11	BUCKET	184	n/a	n/a	0	0	0
2532.432	n/a	WORD	1266216	wordpools/wasnorm_wordpool_576.txt	LTP311	ltpFR2	12	11	PRINCESS	1125	n/a	n/a	0	0	0
2534.042	n/a	START	1267021	n/a	LTP311	ltpFR2	12	n/a	n/a	n/a	18	n/a	n/a	n/a	n/a
2535.174	n/a	DISTRACTOR	1267587	n/a	LTP311	ltpFR2	12	11	n/a	n/a	n/a	n/a	0	0	0
2535.184	n/a	PROB	1267592	n/a	LTP311	ltpFR2	12	n/a	n/a	n/a	18	15	4	8	3
2536.834	n/a	PROB	1268417	n/a	LTP311	ltpFR2	12	n/a	n/a	n/a	18	26	9	8	9
2538.552	n/a	PROB	1269276	n/a	LTP311	ltpFR2	12	n/a	n/a	n/a	18	24	9	8	7
2540.17	n/a	PROB	1270085	n/a	LTP311	ltpFR2	12	n/a	n/a	n/a	18	15	5	3	7
2543.906	n/a	PROB	1271953	n/a	LTP311	ltpFR2	12	n/a	n/a	n/a	18	20	3	9	8
2546.142	n/a	PROB	1273071	n/a	LTP311	ltpFR2	12	n/a	n/a	n/a	18	23	9	9	5
2547.96	n/a	PROB	1273980	n/a	LTP311	ltpFR2	12	n/a	n/a	n/a	18	13	6	2	5
2551.978	n/a	PROB	1275989	n/a	LTP311	ltpFR2	12	n/a	n/a	n/a	18	7	3	2	2
2554.882	n/a	PROB	1277441	n/a	LTP311	ltpFR2	12	n/a	n/a	n/a	18	10	3	2	5
2556.498	n/a	PROB	1278249	n/a	LTP311	ltpFR2	12	n/a	n/a	n/a	18	10	2	3	5
2557.726	n/a	STOP	1278863	n/a	LTP311	ltpFR2	12	n/a	n/a	n/a	18	n/a	n/a	n/a	n/a
2559.87	n/a	REC_START	1279935	n/a	LTP311	ltpFR2	12	11	n/a	n/a	n/a	n/a	0	0	0
2562.244	n/a	REC_WORD	1281122	wordpools/wasnorm_wordpool_576.txt	LTP311	ltpFR2	12	11	TERMITE	1451	n/a	n/a	0	0	0
2562.784	n/a	REC_WORD	1281392	wordpools/wasnorm_wordpool_576.txt	LTP311	ltpFR2	12	11	COCOON	339	n/a	n/a	0	0	0
2563.376	n/a	REC_WORD	1281688	wordpools/wasnorm_wordpool_576.txt	LTP311	ltpFR2	12	11	LUNCH	849	n/a	n/a	0	0	0
2563.886	n/a	REC_WORD	1281943	wordpools/wasnorm_wordpool_576.txt	LTP311	ltpFR2	12	11	GREASE	660	n/a	n/a	0	0	0
2564.294	n/a	REC_WORD	1282147	wordpools/wasnorm_wordpool_576.txt	LTP311	ltpFR2	12	11	SANDWICH	1232	n/a	n/a	0	0	0
2564.856	n/a	REC_WORD	1282428	wordpools/wasnorm_wordpool_576.txt	LTP311	ltpFR2	12	11	RECEIPT	1173	n/a	n/a	0	0	0
2565.626	n/a	REC_WORD	1282813	wordpools/wasnorm_wordpool_576.txt	LTP311	ltpFR2	12	11	QUEEN	1149	n/a	n/a	0	0	0
2568.076	n/a	REC_WORD	1284038	wordpools/wasnorm_wordpool_576.txt	LTP311	ltpFR2	12	11	PLIERS	1089	n/a	n/a	0	0	0
2568.92	n/a	REC_WORD	1284460	wordpools/wasnorm_wordpool_576.txt	LTP311	ltpFR2	12	11	PRINCESS	1125	n/a	n/a	0	0	0
2569.606	n/a	REC_WORD	1284803	wordpools/wasnorm_wordpool_576.txt	LTP311	ltpFR2	12	11	FRANCE	601	n/a	n/a	0	0	0
2586.698	n/a	REC_WORD	1293349	wordpools/wasnorm_wordpool_576.txt	LTP311	ltpFR2	12	11	MARS	873	n/a	n/a	0	0	0
2650.34	n/a	WORD	1325170	wordpools/wasnorm_wordpool_576.txt	LTP311	ltpFR2	12	12	CRICKET	408	n/a	n/a	0	0	0
2652.876	n/a	WORD	1326438	wordpools/wasnorm_wordpool_576.txt	LTP311	ltpFR2	12	12	FLASHLIGHT	575	n/a	n/a	0	0	0
2655.412	n/a	WORD	1327706	wordpools/wasnorm_wordpool_576.txt	LTP311	ltpFR2	12	12	SWITCH	1422	n/a	n/a	0	0	0
2657.964	n/a	WORD	1328982	wordpools/wasnorm_wordpool_576.txt	LTP311	ltpFR2	12	12	NIGHTGOWN	953	n/a	n/a	0	0	0
2660.48	n/a	WORD	1330240	wordpools/wasnorm_wordpool_576.txt	LTP311	ltpFR2	12	12	STAR	1373	n/a	n/a	0	0	0
2663.016	n/a	WORD	1331508	wordpools/wasnorm_wordpool_576.txt	LTP311	ltpFR2	12	12	PICTURE	1061	n/a	n/a	0	0	0
2665.834	n/a	WORD	1332917	wordpools/wasnorm_wordpool_576.txt	LTP311	ltpFR2	12	12	WORLD	1622	n/a	n/a	0	0	0
2668.62	n/a	WORD	1334310	wordpools/wasnorm_wordpool_576.txt	LTP311	ltpFR2	12	12	CREVICE	405	n/a	n/a	0	0	0
2671.374	n/a	WORD	1335687	wordpools/wasnorm_wordpool_576.txt	LTP311	ltpFR2	12	12	LADDER	793	n/a	n/a	0	0	0
2674.21	n/a	WORD	1337105	wordpools/wasnorm_wordpool_576.txt	LTP311	ltpFR2	12	12	MOTOR	922	n/a	n/a	0	0	0
2676.744	n/a	WORD	1338372	wordpools/wasnorm_wordpool_576.txt	LTP311	ltpFR2	12	12	MASK	876	n/a	n/a	0	0	0
2679.314	n/a	WORD	1339657	wordpools/wasnorm_wordpool_576.txt	LTP311	ltpFR2	12	12	COUCH	386	n/a	n/a	0	0	0
2682.082	n/a	WORD	1341041	wordpools/wasnorm_wordpool_576.txt	LTP311	ltpFR2	12	12	TABLE	1426	n/a	n/a	0	0	0
2684.834	n/a	WORD	1342417	wordpools/wasnorm_wordpool_576.txt	LTP311	ltpFR2	12	12	SHERIFF	1284	n/a	n/a	0	0	0
2687.568	n/a	WORD	1343784	wordpools/wasnorm_wordpool_576.txt	LTP311	ltpFR2	12	12	BLOCKADE	137	n/a	n/a	0	0	0
2690.172	n/a	WORD	1345086	wordpools/wasnorm_wordpool_576.txt	LTP311	ltpFR2	12	12	DONOR	485	n/a	n/a	0	0	0
2692.656	n/a	WORD	1346328	wordpools/wasnorm_wordpool_576.txt	LTP311	ltpFR2	12	12	DRAWING	494	n/a	n/a	0	0	0
2695.358	n/a	WORD	1347679	wordpools/wasnorm_wordpool_576.txt	LTP311	ltpFR2	12	12	TRUCK	1512	n/a	n/a	0	0	0
2697.978	n/a	WORD	1348989	wordpools/wasnorm_wordpool_576.txt	LTP311	ltpFR2	12	12	HEART	697	n/a	n/a	0	0	0
2700.78	n/a	WORD	1350390	wordpools/wasnorm_wordpool_576.txt	LTP311	ltpFR2	12	12	EUROPE	541	n/a	n/a	0	0	0
2703.498	n/a	WORD	1351749	wordpools/wasnorm_wordpool_576.txt	LTP311	ltpFR2	12	12	SOFTBALL	1343	n/a	n/a	0	0	0
2706.068	n/a	WORD	1353034	wordpools/wasnorm_wordpool_576.txt	LTP311	ltpFR2	12	12	WHISTLE	1606	n/a	n/a	0	0	0
2708.568	n/a	WORD	1354284	wordpools/wasnorm_wordpool_576.txt	LTP311	ltpFR2	12	12	FLESH	579	n/a	n/a	0	0	0
2711.088	n/a	WORD	1355544	wordpools/wasnorm_wordpool_576.txt	LTP311	ltpFR2	12	12	VENUS	1557	n/a	n/a	0	0	0
2712.706	n/a	START	1356353	n/a	LTP311	ltpFR2	12	n/a	n/a	n/a	19	n/a	n/a	n/a	n/a
2713.658	n/a	DISTRACTOR	1356829	n/a	LTP311	ltpFR2	12	12	n/a	n/a	n/a	n/a	0	0	0
2713.674	n/a	PROB	1356837	n/a	LTP311	ltpFR2	12	n/a	n/a	n/a	19	5	2	2	1
2715.192	n/a	PROB	1357596	n/a	LTP311	ltpFR2	12	n/a	n/a	n/a	19	13	4	6	3
2716.676	n/a	PROB	1358338	n/a	LTP311	ltpFR2	12	n/a	n/a	n/a	19	19	5	5	9
2717.842	n/a	PROB	1358921	n/a	LTP311	ltpFR2	12	n/a	n/a	n/a	19	18	7	9	2
2719.61	n/a	PROB	1359805	n/a	LTP311	ltpFR2	12	n/a	n/a	n/a	19	14	9	3	2
2720.962	n/a	PROB	1360481	n/a	LTP311	ltpFR2	12	n/a	n/a	n/a	19	21	5	7	9
2723.832	n/a	PROB	1361916	n/a	LTP311	ltpFR2	12	n/a	n/a	n/a	19	11	4	1	6
2724.93	n/a	PROB	1362465	n/a	LTP311	ltpFR2	12	n/a	n/a	n/a	19	22	9	9	4
2726.632	n/a	PROB	1363316	n/a	LTP311	ltpFR2	12	n/a	n/a	n/a	19	19	6	8	5
2729.052	n/a	PROB	1364526	n/a	LTP311	ltpFR2	12	n/a	n/a	n/a	19	22	9	6	7
2731.436	n/a	PROB	1365718	n/a	LTP311	ltpFR2	12	n/a	n/a	n/a	19	13	4	5	4
2733.37	n/a	PROB	1366685	n/a	LTP311	ltpFR2	12	n/a	n/a	n/a	19	15	5	2	8
2735.242	n/a	STOP	1367621	n/a	LTP311	ltpFR2	12	n/a	n/a	n/a	19	n/a	n/a	n/a	n/a
2738.576	n/a	REC_START	1369288	n/a	LTP311	ltpFR2	12	12	n/a	n/a	n/a	n/a	0	0	0
2742.41	n/a	REC_WORD	1371205	wordpools/wasnorm_wordpool_576.txt	LTP311	ltpFR2	12	12	CRICKET	408	n/a	n/a	0	0	0
2743.412	n/a	REC_WORD	1371706	wordpools/wasnorm_wordpool_576.txt	LTP311	ltpFR2	12	12	FLASHLIGHT	575	n/a	n/a	0	0	0
2744.288	n/a	REC_WORD	1372144	wordpools/wasnorm_wordpool_576.txt	LTP311	ltpFR2	12	12	SWITCH	1422	n/a	n/a	0	0	0
2745.11	n/a	REC_WORD	1372555	wordpools/wasnorm_wordpool_576.txt	LTP311	ltpFR2	12	12	NIGHTGOWN	953	n/a	n/a	0	0	0
2746.038	n/a	REC_WORD	1373019	wordpools/wasnorm_wordpool_576.txt	LTP311	ltpFR2	12	12	PICTURE	1061	n/a	n/a	0	0	0
2751.202	n/a	REC_WORD	1375601	wordpools/wasnorm_wordpool_576.txt	LTP311	ltpFR2	12	12	MASK	876	n/a	n/a	0	0	0
2752.096	n/a	REC_WORD	1376048	wordpools/wasnorm_wordpool_576.txt	LTP311	ltpFR2	12	12	LADDER	793	n/a	n/a	0	0	0
2753.238	n/a	REC_WORD	1376619	wordpools/wasnorm_wordpool_576.txt	LTP311	ltpFR2	12	12	COUCH	386	n/a	n/a	0	0	0
2754.748	n/a	REC_WORD	1377374	wordpools/wasnorm_wordpool_576.txt	LTP311	ltpFR2	12	12	SHERIFF	1284	n/a	n/a	0	0	0
2755.65	n/a	REC_WORD	1377825	wordpools/wasnorm_wordpool_576.txt	LTP311	ltpFR2	12	12	BLOCKADE	137	n/a	n/a	0	0	0
2777.136	n/a	REC_WORD	1388568	wordpools/wasnorm_wordpool_576.txt	LTP311	ltpFR2	12	12	TRUCK	1512	n/a	n/a	0	0	0
2785.612	n/a	REC_WORD	1392806	wordpools/wasnorm_wordpool_576.txt	LTP311	ltpFR2	12	12	MOTOR	922	n/a	n/a	0	0	0
2829.012	n/a	WORD	1414506	wordpools/wasnorm_wordpool_576.txt	LTP311	ltpFR2	12	13	TYPIST	1532	n/a	n/a	0	0	0
2831.592	n/a	WORD	1415796	wordpools/wasnorm_wordpool_576.txt	LTP311	ltpFR2	12	13	WIFE	1609	n/a	n/a	0	0	0
2834.01	n/a	WORD	1417005	wordpools/wasnorm_wordpool_576.txt	LTP311	ltpFR2	12	13	POLICE	1098	n/a	n/a	0	0	0
2836.514	n/a	WORD	1418257	wordpools/wasnorm_wordpool_576.txt	LTP311	ltpFR2	12	13	STATUE	1374	n/a	n/a	0	0	0
2839.0	n/a	WORD	1419500	wordpools/wasnorm_wordpool_576.txt	LTP311	ltpFR2	12	13	AIRPORT	13	n/a	n/a	0	0	0
2841.638	n/a	WORD	1420819	wordpools/wasnorm_wordpool_576.txt	LTP311	ltpFR2	12	13	RIFLE	1192	n/a	n/a	0	0	0
2844.288	n/a	WORD	1422144	wordpools/wasnorm_wordpool_576.txt	LTP311	ltpFR2	12	13	SALT	1229	n/a	n/a	0	0	0
2847.072	n/a	WORD	1423536	wordpools/wasnorm_wordpool_576.txt	LTP311	ltpFR2	12	13	BISON	131	n/a	n/a	0	0	0
2849.724	n/a	WORD	1424862	wordpools/wasnorm_wordpool_576.txt	LTP311	ltpFR2	12	13	FUNGUS	614	n/a	n/a	0	0	0
2852.412	n/a	WORD	1426206	wordpools/wasnorm_wordpool_576.txt	LTP311	ltpFR2	12	13	PENGUIN	1044	n/a	n/a	0	0	0
2854.946	n/a	WORD	1427473	wordpools/wasnorm_wordpool_576.txt	LTP311	ltpFR2	12	13	ROBIN	1199	n/a	n/a	0	0	0
2857.498	n/a	WORD	1428749	wordpools/wasnorm_wordpool_576.txt	LTP311	ltpFR2	12	13	CYCLONE	431	n/a	n/a	0	0	0
2860.184	n/a	WORD	1430092	wordpools/wasnorm_wordpool_576.txt	LTP311	ltpFR2	12	13	DENTIST	447	n/a	n/a	0	0	0
2862.836	n/a	WORD	1431418	wordpools/wasnorm_wordpool_576.txt	LTP311	ltpFR2	12	13	DRILL	497	n/a	n/a	0	0	0
2865.454	n/a	WORD	1432727	wordpools/wasnorm_wordpool_576.txt	LTP311	ltpFR2	12	13	MILDEW	893	n/a	n/a	0	0	0
2868.056	n/a	WORD	1434028	wordpools/wasnorm_wordpool_576.txt	LTP311	ltpFR2	12	13	SEAFOOD	1260	n/a	n/a	0	0	0
2870.508	n/a	WORD	1435254	wordpools/wasnorm_wordpool_576.txt	LTP311	ltpFR2	12	13	HUSBAND	728	n/a	n/a	0	0	0
2873.062	n/a	WORD	1436531	wordpools/wasnorm_wordpool_576.txt	LTP311	ltpFR2	12	13	BOX	159	n/a	n/a	0	0	0
2875.814	n/a	WORD	1437907	wordpools/wasnorm_wordpool_576.txt	LTP311	ltpFR2	12	13	POSTAGE	1113	n/a	n/a	0	0	0
2878.332	n/a	WORD	1439166	wordpools/wasnorm_wordpool_576.txt	LTP311	ltpFR2	12	13	GARLIC	624	n/a	n/a	0	0	0
2880.97	n/a	WORD	1440485	wordpools/wasnorm_wordpool_576.txt	LTP311	ltpFR2	12	13	TURNIP	1521	n/a	n/a	0	0	0
2883.756	n/a	WORD	1441878	wordpools/wasnorm_wordpool_576.txt	LTP311	ltpFR2	12	13	LAKE	796	n/a	n/a	0	0	0
2886.222	n/a	WORD	1443111	wordpools/wasnorm_wordpool_576.txt	LTP311	ltpFR2	12	13	PRINCE	1124	n/a	n/a	0	0	0
2888.674	n/a	WORD	1444337	wordpools/wasnorm_wordpool_576.txt	LTP311	ltpFR2	12	13	CITRUS	313	n/a	n/a	0	0	0
2890.278	n/a	START	1445139	n/a	LTP311	ltpFR2	12	n/a	n/a	n/a	20	n/a	n/a	n/a	n/a
2891.362	n/a	DISTRACTOR	1445681	n/a	LTP311	ltpFR2	12	13	n/a	n/a	n/a	n/a	0	0	0
2891.378	n/a	PROB	1445689	n/a	LTP311	ltpFR2	12	n/a	n/a	n/a	20	13	6	3	4
2893.33	n/a	PROB	1446665	n/a	LTP311	ltpFR2	12	n/a	n/a	n/a	20	5	1	2	2
2894.562	n/a	PROB	1447281	n/a	LTP311	ltpFR2	12	n/a	n/a	n/a	20	10	1	4	5
2895.882	n/a	PROB	1447941	n/a	LTP311	ltpFR2	12	n/a	n/a	n/a	20	15	4	5	6
2898.318	n/a	PROB	1449159	n/a	LTP311	ltpFR2	12	n/a	n/a	n/a	20	6	1	1	4
2899.5	n/a	PROB	1449750	n/a	LTP311	ltpFR2	12	n/a	n/a	n/a	20	12	2	1	9
2900.934	n/a	PROB	1450467	n/a	LTP311	ltpFR2	12	n/a	n/a	n/a	20	19	5	9	5
2902.236	n/a	PROB	1451118	n/a	LTP311	ltpFR2	12	n/a	n/a	n/a	20	11	8	2	1
2903.402	n/a	PROB	1451701	n/a	LTP311	ltpFR2	12	n/a	n/a	n/a	20	17	7	7	3
2905.838	n/a	PROB	1452919	n/a	LTP311	ltpFR2	12	n/a	n/a	n/a	20	24	9	8	7
2907.64	n/a	PROB	1453820	n/a	LTP311	ltpFR2	12	n/a	n/a	n/a	20	9	3	4	2
2910.344	n/a	PROB	1455172	n/a	LTP311	ltpFR2	12	n/a	n/a	n/a	20	8	3	2	3
2912.78	n/a	STOP	1456390	n/a	LTP311	ltpFR2	12	n/a	n/a	n/a	20	n/a	n/a	n/a	n/a
2916.216	n/a	REC_START	1458108	n/a	LTP311	ltpFR2	12	13	n/a	n/a	n/a	n/a	0	0	0
2917.312	n/a	REC_WORD	1458656	wordpools/wasnorm_wordpool_576.txt	LTP311	ltpFR2	12	13	TYPIST	1532	n/a	n/a	0	0	0
2918.076	n/a	REC_WORD	1459038	wordpools/wasnorm_wordpool_576.txt	LTP311	ltpFR2	12	13	WIFE	1609	n/a	n/a	0	0	0
2918.97	n/a	REC_WORD	1459485	wordpools/wasnorm_wordpool_576.txt	LTP311	ltpFR2	12	13	POLICE	1098	n/a	n/a	0	0	0
2921.122	n/a	REC_WORD	1460561	wordpools/wasnorm_wordpool_576.txt	LTP311	ltpFR2	12	13	STATUE	1374	n/a	n/a	0	0	0
2922.08	n/a	REC_WORD	1461040	wordpools/wasnorm_wordpool_576.txt	LTP311	ltpFR2	12	13	AIRPORT	13	n/a	n/a	0	0	0
2923.836	n/a	REC_WORD	1461918	wordpools/wasnorm_wordpool_576.txt	LTP311	ltpFR2	12	13	RIFLE	1192	n/a	n/a	0	0	0
2925.888	n/a	REC_WORD	1462944	wordpools/wasnorm_wordpool_576.txt	LTP311	ltpFR2	12	13	SALT	1229	n/a	n/a	0	0	0
2926.936	n/a	REC_WORD	1463468	wordpools/wasnorm_wordpool_576.txt	LTP311	ltpFR2	12	13	BISON	131	n/a	n/a	0	0	0
2927.67	n/a	REC_WORD	1463835	wordpools/wasnorm_wordpool_576.txt	LTP311	ltpFR2	12	13	FUNGUS	614	n/a	n/a	0	0	0
2933.654	n/a	REC_WORD	1466827	wordpools/wasnorm_wordpool_576.txt	LTP311	ltpFR2	12	13	PENGUIN	1044	n/a	n/a	0	0	0
2934.234	n/a	REC_WORD	1467117	wordpools/wasnorm_wordpool_576.txt	LTP311	ltpFR2	12	13	ROBIN	1199	n/a	n/a	0	0	0
2935.404	n/a	REC_WORD	1467702	wordpools/wasnorm_wordpool_576.txt	LTP311	ltpFR2	12	13	CYCLONE	431	n/a	n/a	0	0	0
2936.996	n/a	REC_WORD	1468498	wordpools/wasnorm_wordpool_576.txt	LTP311	ltpFR2	12	13	DENTIST	447	n/a	n/a	0	0	0
2941.982	n/a	REC_WORD	1470991	wordpools/wasnorm_wordpool_576.txt	LTP311	ltpFR2	12	13	DRILL	497	n/a	n/a	0	0	0
2944.368	n/a	REC_WORD	1472184	wordpools/wasnorm_wordpool_576.txt	LTP311	ltpFR2	12	13	SEAFOOD	1260	n/a	n/a	0	0	0
2945.376	n/a	REC_WORD	1472688	wordpools/wasnorm_wordpool_576.txt	LTP311	ltpFR2	12	13	HUSBAND	728	n/a	n/a	0	0	0
2947.398	n/a	REC_WORD	1473699	wordpools/wasnorm_wordpool_576.txt	LTP311	ltpFR2	12	13	BOX	159	n/a	n/a	0	0	0
2948.158	n/a	REC_WORD	1474079	wordpools/wasnorm_wordpool_576.txt	LTP311	ltpFR2	12	13	GARLIC	624	n/a	n/a	0	0	0
2949.16	n/a	REC_WORD	1474580	wordpools/wasnorm_wordpool_576.txt	LTP311	ltpFR2	12	13	POSTAGE	1113	n/a	n/a	0	0	0
3006.65	n/a	WORD	1503325	wordpools/wasnorm_wordpool_576.txt	LTP311	ltpFR2	12	14	SHOVEL	1295	n/a	n/a	0	0	0
3009.452	n/a	WORD	1504726	wordpools/wasnorm_wordpool_576.txt	LTP311	ltpFR2	12	14	TOMBSTONE	1478	n/a	n/a	0	0	0
3011.99	n/a	WORD	1505995	wordpools/wasnorm_wordpool_576.txt	LTP311	ltpFR2	12	14	SHELF	1280	n/a	n/a	0	0	0
3014.658	n/a	WORD	1507329	wordpools/wasnorm_wordpool_576.txt	LTP311	ltpFR2	12	14	UMPIRE	1535	n/a	n/a	0	0	0
3017.35	n/a	WORD	1508675	wordpools/wasnorm_wordpool_576.txt	LTP311	ltpFR2	12	14	CATCHER	258	n/a	n/a	0	0	0
3020.02	n/a	WORD	1510010	wordpools/wasnorm_wordpool_576.txt	LTP311	ltpFR2	12	14	SODA	1341	n/a	n/a	0	0	0
3022.62	n/a	WORD	1511310	wordpools/wasnorm_wordpool_576.txt	LTP311	ltpFR2	12	14	PECAN	1036	n/a	n/a	0	0	0
3025.406	n/a	WORD	1512703	wordpools/wasnorm_wordpool_576.txt	LTP311	ltpFR2	12	14	PASSAGE	1019	n/a	n/a	0	0	0
3028.042	n/a	WORD	1514021	wordpools/wasnorm_wordpool_576.txt	LTP311	ltpFR2	12	14	CHAUFFEUR	283	n/a	n/a	0	0	0
3030.752	n/a	WORD	1515376	wordpools/wasnorm_wordpool_576.txt	LTP311	ltpFR2	12	14	BUGGY	188	n/a	n/a	0	0	0
3033.462	n/a	WORD	1516731	wordpools/wasnorm_wordpool_576.txt	LTP311	ltpFR2	12	14	WAGON	1578	n/a	n/a	0	0	0
3036.076	n/a	WORD	1518038	wordpools/wasnorm_wordpool_576.txt	LTP311	ltpFR2	12	14	PEANUT	1032	n/a	n/a	0	0	0
3038.634	n/a	WORD	1519317	wordpools/wasnorm_wordpool_576.txt	LTP311	ltpFR2	12	14	CIGAR	308	n/a	n/a	0	0	0
3041.32	n/a	WORD	1520660	wordpools/wasnorm_wordpool_576.txt	LTP311	ltpFR2	12	14	POWDER	1117	n/a	n/a	0	0	0
3043.806	n/a	WORD	1521903	wordpools/wasnorm_wordpool_576.txt	LTP311	ltpFR2	12	14	GRILL	661	n/a	n/a	0	0	0
3046.342	n/a	WORD	1523171	wordpools/wasnorm_wordpool_576.txt	LTP311	ltpFR2	12	14	GLOBE	641	n/a	n/a	0	0	0
3048.868	n/a	WORD	1524434	wordpools/wasnorm_wordpool_576.txt	LTP311	ltpFR2	12	14	MOTEL	919	n/a	n/a	0	0	0
3051.52	n/a	WORD	1525760	wordpools/wasnorm_wordpool_576.txt	LTP311	ltpFR2	12	14	GARDEN	623	n/a	n/a	0	0	0
3054.132	n/a	WORD	1527066	wordpools/wasnorm_wordpool_576.txt	LTP311	ltpFR2	12	14	STICKER	1382	n/a	n/a	0	0	0
3056.69	n/a	WORD	1528345	wordpools/wasnorm_wordpool_576.txt	LTP311	ltpFR2	12	14	GARBAGE	622	n/a	n/a	0	0	0
3059.176	n/a	WORD	1529588	wordpools/wasnorm_wordpool_576.txt	LTP311	ltpFR2	12	14	CUPBOARD	425	n/a	n/a	0	0	0
3061.778	n/a	WORD	1530889	wordpools/wasnorm_wordpool_576.txt	LTP311	ltpFR2	12	14	SKETCH	1315	n/a	n/a	0	0	0
3064.546	n/a	WORD	1532273	wordpools/wasnorm_wordpool_576.txt	LTP311	ltpFR2	12	14	SERVANT	1271	n/a	n/a	0	0	0
3067.176	n/a	WORD	1533588	wordpools/wasnorm_wordpool_576.txt	LTP311	ltpFR2	12	14	PIMPLE	1071	n/a	n/a	0	0	0
3068.784	n/a	START	1534392	n/a	LTP311	ltpFR2	12	n/a	n/a	n/a	21	n/a	n/a	n/a	n/a
3069.906	n/a	DISTRACTOR	1534953	n/a	LTP311	ltpFR2	12	14	n/a	n/a	n/a	n/a	0	0	0
3069.912	n/a	PROB	1534956	n/a	LTP311	ltpFR2	12	n/a	n/a	n/a	21	18	9	7	2
3071.42	n/a	PROB	1535710	n/a	LTP311	ltpFR2	12	n/a	n/a	n/a	21	16	8	2	6
3073.336	n/a	PROB	1536668	n/a	LTP311	ltpFR2	12	n/a	n/a	n/a	21	11	5	1	5
3074.72	n/a	PROB	1537360	n/a	LTP311	ltpFR2	12	n/a	n/a	n/a	21	6	1	4	1
3076.038	n/a	PROB	1538019	n/a	LTP311	ltpFR2	12	n/a	n/a	n/a	21	17	8	3	6
3078.424	n/a	PROB	1539212	n/a	LTP311	ltpFR2	12	n/a	n/a	n/a	21	16	4	3	9
3079.91	n/a	PROB	1539955	n/a	LTP311	ltpFR2	12	n/a	n/a	n/a	21	14	4	5	5
3081.108	n/a	PROB	1540554	n/a	LTP311	ltpFR2	12	n/a	n/a	n/a	21	14	9	2	3
3082.994	n/a	PROB	1541497	n/a	LTP311	ltpFR2	12	n/a	n/a	n/a	21	10	2	3	5
3084.61	n/a	PROB	1542305	n/a	LTP311	ltpFR2	12	n/a	n/a	n/a	21	19	7	7	5
3086.164	n/a	PROB	1543082	n/a	LTP311	ltpFR2	12	n/a	n/a	n/a	21	17	2	7	8
3088.496	n/a	PROB	1544248	n/a	LTP311	ltpFR2	12	n/a	n/a	n/a	21	18	9	8	1
3090.35	n/a	PROB	1545175	n/a	LTP311	ltpFR2	12	n/a	n/a	n/a	21	12	1	3	8
3092.032	n/a	STOP	1546016	n/a	LTP311	ltpFR2	12	n/a	n/a	n/a	21	n/a	n/a	n/a	n/a
3094.538	n/a	REC_START	1547269	n/a	LTP311	ltpFR2	12	14	n/a	n/a	n/a	n/a	0	0	0
3100.22	n/a	REC_WORD	1550110	wordpools/wasnorm_wordpool_576.txt	LTP311	ltpFR2	12	14	SKETCH	1315	n/a	n/a	0	0	0
3101.068	n/a	REC_WORD	1550534	wordpools/wasnorm_wordpool_576.txt	LTP311	ltpFR2	12	14	PIMPLE	1071	n/a	n/a	0	0	0
3103.442	n/a	REC_WORD	1551721	wordpools/wasnorm_wordpool_576.txt	LTP311	ltpFR2	12	14	SERVANT	1271	n/a	n/a	0	0	0
3135.408	n/a	REC_WORD	1567704	wordpools/wasnorm_wordpool_576.txt	LTP311	ltpFR2	12	14	SHOVEL	1295	n/a	n/a	0	0	0
3136.736	n/a	REC_WORD	1568368	wordpools/wasnorm_wordpool_576.txt	LTP311	ltpFR2	12	14	TOMBSTONE	1478	n/a	n/a	0	0	0
3137.474	n/a	REC_WORD	1568737	wordpools/wasnorm_wordpool_576.txt	LTP311	ltpFR2	12	14	CHAUFFEUR	283	n/a	n/a	0	0	0
3139.5	n/a	REC_WORD	1569750	wordpools/wasnorm_wordpool_576.txt	LTP311	ltpFR2	12	14	BUGGY	188	n/a	n/a	0	0	0
3139.974	n/a	REC_WORD	1569987	wordpools/wasnorm_wordpool_576.txt	LTP311	ltpFR2	12	14	WAGON	1578	n/a	n/a	0	0	0
3184.99	n/a	WORD	1592495	wordpools/wasnorm_wordpool_576.txt	LTP311	ltpFR2	12	15	WORKER	1621	n/a	n/a	0	0	0
3187.476	n/a	WORD	1593738	wordpools/wasnorm_wordpool_576.txt	LTP311	ltpFR2	12	15	OFFICE	972	n/a	n/a	0	0	0
3189.896	n/a	WORD	1594948	wordpools/wasnorm_wordpool_576.txt	LTP311	ltpFR2	12	15	DRESSER	496	n/a	n/a	0	0	0
3192.514	n/a	WORD	1596257	wordpools/wasnorm_wordpool_576.txt	LTP311	ltpFR2	12	15	PACKAGE	997	n/a	n/a	0	0	0
3195.084	n/a	WORD	1597542	wordpools/wasnorm_wordpool_576.txt	LTP311	ltpFR2	12	15	OX	994	n/a	n/a	0	0	0
3197.604	n/a	WORD	1598802	wordpools/wasnorm_wordpool_576.txt	LTP311	ltpFR2	12	15	CATTLE	261	n/a	n/a	0	0	0
3200.24	n/a	WORD	1600120	wordpools/wasnorm_wordpool_576.txt	LTP311	ltpFR2	12	15	LABEL	790	n/a	n/a	0	0	0
3202.972	n/a	WORD	1601486	wordpools/wasnorm_wordpool_576.txt	LTP311	ltpFR2	12	15	SUITCASE	1403	n/a	n/a	0	0	0
3205.438	n/a	WORD	1602719	wordpools/wasnorm_wordpool_576.txt	LTP311	ltpFR2	12	15	DIVER	476	n/a	n/a	0	0	0
3207.924	n/a	WORD	1603962	wordpools/wasnorm_wordpool_576.txt	LTP311	ltpFR2	12	15	HUMAN	726	n/a	n/a	0	0	0
3210.426	n/a	WORD	1605213	wordpools/wasnorm_wordpool_576.txt	LTP311	ltpFR2	12	15	CRIB	407	n/a	n/a	0	0	0
3213.23	n/a	WORD	1606615	wordpools/wasnorm_wordpool_576.txt	LTP311	ltpFR2	12	15	SHIRT	1287	n/a	n/a	0	0	0
3215.764	n/a	WORD	1607882	wordpools/wasnorm_wordpool_576.txt	LTP311	ltpFR2	12	15	STAMP	1370	n/a	n/a	0	0	0
3218.466	n/a	WORD	1609233	wordpools/wasnorm_wordpool_576.txt	LTP311	ltpFR2	12	15	BIKE	125	n/a	n/a	0	0	0
3221.02	n/a	WORD	1610510	wordpools/wasnorm_wordpool_576.txt	LTP311	ltpFR2	12	15	BLACKBOARD	133	n/a	n/a	0	0	0
3223.554	n/a	WORD	1611777	wordpools/wasnorm_wordpool_576.txt	LTP311	ltpFR2	12	15	BOARD	143	n/a	n/a	0	0	0
3226.174	n/a	WORD	1613087	wordpools/wasnorm_wordpool_576.txt	LTP311	ltpFR2	12	15	MESSAGE	888	n/a	n/a	0	0	0
3228.762	n/a	WORD	1614381	wordpools/wasnorm_wordpool_576.txt	LTP311	ltpFR2	12	15	SCULPTURE	1258	n/a	n/a	0	0	0
3231.344	n/a	WORD	1615672	wordpools/wasnorm_wordpool_576.txt	LTP311	ltpFR2	12	15	CARROT	249	n/a	n/a	0	0	0
3234.084	n/a	WORD	1617042	wordpools/wasnorm_wordpool_576.txt	LTP311	ltpFR2	12	15	SNAKE	1333	n/a	n/a	0	0	0
3236.816	n/a	WORD	1618408	wordpools/wasnorm_wordpool_576.txt	LTP311	ltpFR2	12	15	ICING	732	n/a	n/a	0	0	0
3239.384	n/a	WORD	1619692	wordpools/wasnorm_wordpool_576.txt	LTP311	ltpFR2	12	15	PEDAL	1037	n/a	n/a	0	0	0
3242.104	n/a	WORD	1621052	wordpools/wasnorm_wordpool_576.txt	LTP311	ltpFR2	12	15	LIZARD	834	n/a	n/a	0	0	0
3244.57	n/a	WORD	1622285	wordpools/wasnorm_wordpool_576.txt	LTP311	ltpFR2	12	15	ZEBRA	1635	n/a	n/a	0	0	0
3246.178	n/a	START	1623089	n/a	LTP311	ltpFR2	12	n/a	n/a	n/a	22	n/a	n/a	n/a	n/a
3247.328	n/a	DISTRACTOR	1623664	n/a	LTP311	ltpFR2	12	15	n/a	n/a	n/a	n/a	0	0	0
3247.34	n/a	PROB	1623670	n/a	LTP311	ltpFR2	12	n/a	n/a	n/a	22	13	4	2	7
3248.922	n/a	PROB	1624461	n/a	LTP311	ltpFR2	12	n/a	n/a	n/a	22	18	8	3	7
3250.59	n/a	PROB	1625295	n/a	LTP311	ltpFR2	12	n/a	n/a	n/a	22	10	3	6	1
3252.226	n/a	PROB	1626113	n/a	LTP311	ltpFR2	12	n/a	n/a	n/a	22	17	1	8	8
3253.542	n/a	PROB	1626771	n/a	LTP311	ltpFR2	12	n/a	n/a	n/a	22	14	9	1	4
3255.76	n/a	PROB	1627880	n/a	LTP311	ltpFR2	12	n/a	n/a	n/a	22	15	3	8	4
3257.728	n/a	PROB	1628864	n/a	LTP311	ltpFR2	12	n/a	n/a	n/a	22	26	9	8	9
3259.53	n/a	PROB	1629765	n/a	LTP311	ltpFR2	12	n/a	n/a	n/a	22	11	7	3	1
3261.048	n/a	PROB	1630524	n/a	LTP311	ltpFR2	12	n/a	n/a	n/a	22	10	1	3	6
3262.3	n/a	PROB	1631150	n/a	LTP311	ltpFR2	12	n/a	n/a	n/a	22	22	8	6	8
3264.034	n/a	PROB	1632017	n/a	LTP311	ltpFR2	12	n/a	n/a	n/a	22	18	1	9	8
3266.754	n/a	PROB	1633377	n/a	LTP311	ltpFR2	12	n/a	n/a	n/a	22	13	5	2	6
3269.852	n/a	STOP	1634926	n/a	LTP311	ltpFR2	12	n/a	n/a	n/a	22	n/a	n/a	n/a	n/a
3272.11	n/a	REC_START	1636055	n/a	LTP311	ltpFR2	12	15	n/a	n/a	n/a	n/a	0	0	0
3274.28	n/a	REC_WORD	1637140	wordpools/wasnorm_wordpool_576.txt	LTP311	ltpFR2	12	15	MESSAGE	888	n/a	n/a	0	0	0
3274.954	n/a	REC_WORD	1637477	wordpools/wasnorm_wordpool_576.txt	LTP311	ltpFR2	12	15	SCULPTURE	1258	n/a	n/a	0	0	0
3277.218	n/a	REC_WORD	1638609	wordpools/wasnorm_wordpool_576.txt	LTP311	ltpFR2	12	15	ICING	732	n/a	n/a	0	0	0
3278.688	n/a	REC_WORD	1639344	wordpools/wasnorm_wordpool_576.txt	LTP311	ltpFR2	12	15	PEDAL	1037	n/a	n/a	0	0	0
3279.814	n/a	REC_WORD	1639907	wordpools/wasnorm_wordpool_576.txt	LTP311	ltpFR2	12	15	LIZARD	834	n/a	n/a	0	0	0
3281.336	n/a	REC_WORD	1640668	wordpools/wasnorm_wordpool_576.txt	LTP311	ltpFR2	12	15	CARROT	249	n/a	n/a	0	0	0
3285.772	n/a	REC_WORD	1642886	wordpools/wasnorm_wordpool_576.txt	LTP311	ltpFR2	12	15	OFFICE	972	n/a	n/a	0	0	0
3286.302	n/a	REC_WORD	1643151	wordpools/wasnorm_wordpool_576.txt	LTP311	ltpFR2	12	15	WORKER	1621	n/a	n/a	0	0	0
3287.464	n/a	REC_WORD	1643732	wordpools/wasnorm_wordpool_576.txt	LTP311	ltpFR2	12	15	PACKAGE	997	n/a	n/a	0	0	0
3288.608	n/a	REC_WORD	1644304	wordpools/wasnorm_wordpool_576.txt	LTP311	ltpFR2	12	15	STAMP	1370	n/a	n/a	0	0	0
3292.002	n/a	REC_WORD	1646001	wordpools/wasnorm_wordpool_576.txt	LTP311	ltpFR2	12	15	DRESSER	496	n/a	n/a	0	0	0
3293.28	n/a	REC_WORD	1646640	wordpools/wasnorm_wordpool_576.txt	LTP311	ltpFR2	12	15	OX	994	n/a	n/a	0	0	0
3293.93	n/a	REC_WORD	1646965	wordpools/wasnorm_wordpool_576.txt	LTP311	ltpFR2	12	15	CATTLE	261	n/a	n/a	0	0	0
3294.474	n/a	REC_WORD	1647237	wordpools/wasnorm_wordpool_576.txt	LTP311	ltpFR2	12	15	CRIB	407	n/a	n/a	0	0	0
3294.94	n/a	REC_WORD	1647470	wordpools/wasnorm_wordpool_576.txt	LTP311	ltpFR2	12	15	SHIRT	1287	n/a	n/a	0	0	0
3362.56	n/a	DISTRACTOR	1681280	n/a	LTP311	ltpFR2	12	16	n/a	n/a	n/a	n/a	0	0	0
3362.56	n/a	START	1681280	n/a	LTP311	ltpFR2	12	n/a	n/a	n/a	23	n/a	n/a	n/a	n/a
3362.576	n/a	PROB	1681288	n/a	LTP311	ltpFR2	12	n/a	n/a	n/a	23	9	1	4	4
3364.594	n/a	PROB	1682297	n/a	LTP311	ltpFR2	12	n/a	n/a	n/a	23	5	2	2	1
3366.032	n/a	PROB	1683016	n/a	LTP311	ltpFR2	12	n/a	n/a	n/a	23	16	3	7	6
3367.93	n/a	PROB	1683965	n/a	LTP311	ltpFR2	12	n/a	n/a	n/a	23	13	5	2	6
3369.848	n/a	PROB	1684924	n/a	LTP311	ltpFR2	12	n/a	n/a	n/a	23	8	2	5	1
3372.618	n/a	PROB	1686309	n/a	LTP311	ltpFR2	12	n/a	n/a	n/a	23	15	4	6	5
3374.254	n/a	PROB	1687127	n/a	LTP311	ltpFR2	12	n/a	n/a	n/a	23	21	7	5	9
3376.872	n/a	PROB	1688436	n/a	LTP311	ltpFR2	12	n/a	n/a	n/a	23	17	2	7	8
3378.522	n/a	PROB	1689261	n/a	LTP311	ltpFR2	12	n/a	n/a	n/a	23	19	8	3	8
3380.974	n/a	PROB	1690487	n/a	LTP311	ltpFR2	12	n/a	n/a	n/a	23	11	5	3	3
3382.328	n/a	PROB	1691164	n/a	LTP311	ltpFR2	12	n/a	n/a	n/a	23	11	4	6	1
3383.33	n/a	PROB	1691665	n/a	LTP311	ltpFR2	12	n/a	n/a	n/a	23	15	6	5	5
3386.558	n/a	STOP	1693279	n/a	LTP311	ltpFR2	12	n/a	n/a	n/a	23	n/a	n/a	n/a	n/a
3387.498	n/a	WORD	1693749	wordpools/wasnorm_wordpool_576.txt	LTP311	ltpFR2	12	16	SIBLING	1301	n/a	n/a	0	0	0
3390.0	n/a	WORD	1695000	wordpools/wasnorm_wordpool_576.txt	LTP311	ltpFR2	12	16	FLAG	573	n/a	n/a	0	0	0
3392.836	n/a	WORD	1696418	wordpools/wasnorm_wordpool_576.txt	LTP311	ltpFR2	12	16	PASTRY	1022	n/a	n/a	0	0	0
3395.42	n/a	WORD	1697710	wordpools/wasnorm_wordpool_576.txt	LTP311	ltpFR2	12	16	PATIENT	1024	n/a	n/a	0	0	0
3398.024	n/a	WORD	1699012	wordpools/wasnorm_wordpool_576.txt	LTP311	ltpFR2	12	16	BRANCH	168	n/a	n/a	0	0	0
3400.674	n/a	WORD	1700337	wordpools/wasnorm_wordpool_576.txt	LTP311	ltpFR2	12	16	MARSH	874	n/a	n/a	0	0	0
3403.378	n/a	WORD	1701689	wordpools/wasnorm_wordpool_576.txt	LTP311	ltpFR2	12	16	LILY	821	n/a	n/a	0	0	0
3405.98	n/a	WORD	1702990	wordpools/wasnorm_wordpool_576.txt	LTP311	ltpFR2	12	16	BELLY	119	n/a	n/a	0	0	0
3408.664	n/a	WORD	1704332	wordpools/wasnorm_wordpool_576.txt	LTP311	ltpFR2	12	16	BUTCHER	203	n/a	n/a	0	0	0
3411.318	n/a	WORD	1705659	wordpools/wasnorm_wordpool_576.txt	LTP311	ltpFR2	12	16	COMET	353	n/a	n/a	0	0	0
3413.886	n/a	WORD	1706943	wordpools/wasnorm_wordpool_576.txt	LTP311	ltpFR2	12	16	MILK	895	n/a	n/a	0	0	0
3416.454	n/a	WORD	1708227	wordpools/wasnorm_wordpool_576.txt	LTP311	ltpFR2	12	16	BUG	187	n/a	n/a	0	0	0
3419.174	n/a	WORD	1709587	wordpools/wasnorm_wordpool_576.txt	LTP311	ltpFR2	12	16	EMPIRE	530	n/a	n/a	0	0	0
3421.724	n/a	WORD	1710862	wordpools/wasnorm_wordpool_576.txt	LTP311	ltpFR2	12	16	PUDDLE	1140	n/a	n/a	0	0	0
3424.294	n/a	WORD	1712147	wordpools/wasnorm_wordpool_576.txt	LTP311	ltpFR2	12	16	ORANGE	980	n/a	n/a	0	0	0
3426.98	n/a	WORD	1713490	wordpools/wasnorm_wordpool_576.txt	LTP311	ltpFR2	12	16	MAMMAL	861	n/a	n/a	0	0	0
3429.68	n/a	WORD	1714840	wordpools/wasnorm_wordpool_576.txt	LTP311	ltpFR2	12	16	CREATURE	403	n/a	n/a	0	0	0
3432.184	n/a	WORD	1716092	wordpools/wasnorm_wordpool_576.txt	LTP311	ltpFR2	12	16	DOUGHNUT	490	n/a	n/a	0	0	0
3434.902	n/a	WORD	1717451	wordpools/wasnorm_wordpool_576.txt	LTP311	ltpFR2	12	16	ROBBER	1197	n/a	n/a	0	0	0
3437.338	n/a	WORD	1718669	wordpools/wasnorm_wordpool_576.txt	LTP311	ltpFR2	12	16	THIEF	1456	n/a	n/a	0	0	0
3439.84	n/a	WORD	1719920	wordpools/wasnorm_wordpool_576.txt	LTP311	ltpFR2	12	16	PEPPER	1047	n/a	n/a	0	0	0
3442.31	n/a	WORD	1721155	wordpools/wasnorm_wordpool_576.txt	LTP311	ltpFR2	12	16	BARREL	91	n/a	n/a	0	0	0
3444.98	n/a	WORD	1722490	wordpools/wasnorm_wordpool_576.txt	LTP311	ltpFR2	12	16	ULCER	1533	n/a	n/a	0	0	0
3447.796	n/a	WORD	1723898	wordpools/wasnorm_wordpool_576.txt	LTP311	ltpFR2	12	16	GRIZZLY	662	n/a	n/a	0	0	0
3449.402	n/a	START	1724701	n/a	LTP311	ltpFR2	12	n/a	n/a	n/a	24	n/a	n/a	n/a	n/a
3450.58	n/a	DISTRACTOR	1725290	n/a	LTP311	ltpFR2	12	16	n/a	n/a	n/a	n/a	0	0	0
3450.584	n/a	PROB	1725292	n/a	LTP311	ltpFR2	12	n/a	n/a	n/a	24	12	6	4	2
3452.198	n/a	PROB	1726099	n/a	LTP311	ltpFR2	12	n/a	n/a	n/a	24	8	1	3	4
3453.768	n/a	PROB	1726884	n/a	LTP311	ltpFR2	12	n/a	n/a	n/a	24	15	2	5	8
3455.218	n/a	PROB	1727609	n/a	LTP311	ltpFR2	12	n/a	n/a	n/a	24	18	4	5	9
3457.102	n/a	PROB	1728551	n/a	LTP311	ltpFR2	12	n/a	n/a	n/a	24	7	4	1	2
3458.754	n/a	PROB	1729377	n/a	LTP311	ltpFR2	12	n/a	n/a	n/a	24	10	1	3	6
3460.122	n/a	PROB	1730061	n/a	LTP311	ltpFR2	12	n/a	n/a	n/a	24	11	5	4	2
3461.84	n/a	PROB	1730920	n/a	LTP311	ltpFR2	12	n/a	n/a	n/a	24	18	9	6	3
3463.256	n/a	PROB	1731628	n/a	LTP311	ltpFR2	12	n/a	n/a	n/a	24	12	1	4	7
3465.424	n/a	PROB	1732712	n/a	LTP311	ltpFR2	12	n/a	n/a	n/a	24	23	8	8	7
3467.776	n/a	PROB	1733888	n/a	LTP311	ltpFR2	12	n/a	n/a	n/a	24	11	2	8	1
3469.33	n/a	PROB	1734665	n/a	LTP311	ltpFR2	12	n/a	n/a	n/a	24	24	6	9	9
3470.88	n/a	PROB	1735440	n/a	LTP311	ltpFR2	12	n/a	n/a	n/a	24	8	3	4	1
3472.392	n/a	STOP	1736196	n/a	LTP311	ltpFR2	12	n/a	n/a	n/a	24	n/a	n/a	n/a	n/a
3475.166	n/a	REC_START	1737583	n/a	LTP311	ltpFR2	12	16	n/a	n/a	n/a	n/a	0	0	0
3476.718	n/a	REC_WORD	1738359	wordpools/wasnorm_wordpool_576.txt	LTP311	ltpFR2	12	16	THIEF	1456	n/a	n/a	0	0	0
3477.282	n/a	REC_WORD	1738641	wordpools/wasnorm_wordpool_576.txt	LTP311	ltpFR2	12	16	ROBBER	1197	n/a	n/a	0	0	0
3477.914	n/a	REC_WORD	1738957	wordpools/wasnorm_wordpool_576.txt	LTP311	ltpFR2	12	16	PEPPER	1047	n/a	n/a	0	0	0
3478.32	n/a	REC_WORD	1739160	wordpools/wasnorm_wordpool_576.txt	LTP311	ltpFR2	12	16	SPARROW	1347	n/a	n/a	0	0	0
3486.302	n/a	REC_WORD	1743151	wordpools/wasnorm_wordpool_576.txt	LTP311	ltpFR2	12	16	SIBLING	1301	n/a	n/a	0	0	0
3489.854	n/a	REC_WORD	1744927	wordpools/wasnorm_wordpool_576.txt	LTP311	ltpFR2	12	16	FLAG	573	n/a	n/a	0	0	0
3490.946	n/a	REC_WORD	1745473	wordpools/wasnorm_wordpool_576.txt	LTP311	ltpFR2	12	16	PATIENT	1024	n/a	n/a	0	0	0
3491.958	n/a	REC_WORD	1745979	wordpools/wasnorm_wordpool_576.txt	LTP311	ltpFR2	12	16	BRANCH	168	n/a	n/a	0	0	0
3505.242	n/a	REC_WORD	1752621	wordpools/wasnorm_wordpool_576.txt	LTP311	ltpFR2	12	16	MARSH	874	n/a	n/a	0	0	0
3551.692	n/a	REST_REWET	1775846	n/a	LTP311	ltpFR2	12	16	n/a	n/a	n/a	n/a	0	0	0
3633.174	n/a	DISTRACTOR	1816587	n/a	LTP311	ltpFR2	12	17	n/a	n/a	n/a	n/a	0	0	0
3633.174	n/a	START	1816587	n/a	LTP311	ltpFR2	12	n/a	n/a	n/a	25	n/a	n/a	n/a	n/a
3633.19	n/a	PROB	1816595	n/a	LTP311	ltpFR2	12	n/a	n/a	n/a	25	14	3	6	5
3636.21	n/a	PROB	1818105	n/a	LTP311	ltpFR2	12	n/a	n/a	n/a	25	15	4	7	4
3637.726	n/a	PROB	1818863	n/a	LTP311	ltpFR2	12	n/a	n/a	n/a	25	12	2	3	7
3639.194	n/a	PROB	1819597	n/a	LTP311	ltpFR2	12	n/a	n/a	n/a	25	13	2	6	5
3641.012	n/a	PROB	1820506	n/a	LTP311	ltpFR2	12	n/a	n/a	n/a	25	10	1	8	1
3642.08	n/a	PROB	1821040	n/a	LTP311	ltpFR2	12	n/a	n/a	n/a	25	20	8	5	7
3644.114	n/a	PROB	1822057	n/a	LTP311	ltpFR2	12	n/a	n/a	n/a	25	19	7	6	6
3645.682	n/a	PROB	1822841	n/a	LTP311	ltpFR2	12	n/a	n/a	n/a	25	13	2	2	9
3647.15	n/a	PROB	1823575	n/a	LTP311	ltpFR2	12	n/a	n/a	n/a	25	23	8	9	6
3649.952	n/a	PROB	1824976	n/a	LTP311	ltpFR2	12	n/a	n/a	n/a	25	16	3	8	5
3652.588	n/a	PROB	1826294	n/a	LTP311	ltpFR2	12	n/a	n/a	n/a	25	12	3	3	6
3653.77	n/a	PROB	1826885	n/a	LTP311	ltpFR2	12	n/a	n/a	n/a	25	15	3	9	3
3656.81	n/a	STOP	1828405	n/a	LTP311	ltpFR2	12	n/a	n/a	n/a	25	n/a	n/a	n/a	n/a
3658.346	n/a	WORD	1829173	wordpools/wasnorm_wordpool_576.txt	LTP311	ltpFR2	12	17	ANTLER	29	n/a	n/a	0	0	0
3660.78	n/a	WORD	1830390	wordpools/wasnorm_wordpool_576.txt	LTP311	ltpFR2	12	17	HORNET	718	n/a	n/a	0	0	0
3663.23	n/a	WORD	1831615	wordpools/wasnorm_wordpool_576.txt	LTP311	ltpFR2	12	17	WASP	1593	n/a	n/a	0	0	0
3665.866	n/a	WORD	1832933	wordpools/wasnorm_wordpool_576.txt	LTP311	ltpFR2	12	17	FOREST	593	n/a	n/a	0	0	0
3668.5	n/a	WORD	1834250	wordpools/wasnorm_wordpool_576.txt	LTP311	ltpFR2	12	17	FIREPLACE	570	n/a	n/a	0	0	0
3671.104	n/a	WORD	1835552	wordpools/wasnorm_wordpool_576.txt	LTP311	ltpFR2	12	17	CRAB	397	n/a	n/a	0	0	0
3673.622	n/a	WORD	1836811	wordpools/wasnorm_wordpool_576.txt	LTP311	ltpFR2	12	17	TUBA	1515	n/a	n/a	0	0	0
3676.358	n/a	WORD	1838179	wordpools/wasnorm_wordpool_576.txt	LTP311	ltpFR2	12	17	TROMBONE	1508	n/a	n/a	0	0	0
3679.012	n/a	WORD	1839506	wordpools/wasnorm_wordpool_576.txt	LTP311	ltpFR2	12	17	PLUTO	1092	n/a	n/a	0	0	0
3681.594	n/a	WORD	1840797	wordpools/wasnorm_wordpool_576.txt	LTP311	ltpFR2	12	17	JURY	766	n/a	n/a	0	0	0
3684.298	n/a	WORD	1842149	wordpools/wasnorm_wordpool_576.txt	LTP311	ltpFR2	12	17	FINGER	567	n/a	n/a	0	0	0
3686.732	n/a	WORD	1843366	wordpools/wasnorm_wordpool_576.txt	LTP311	ltpFR2	12	17	FRAME	600	n/a	n/a	0	0	0
3689.5	n/a	WORD	1844750	wordpools/wasnorm_wordpool_576.txt	LTP311	ltpFR2	12	17	WINDOW	1611	n/a	n/a	0	0	0
3692.036	n/a	WORD	1846018	wordpools/wasnorm_wordpool_576.txt	LTP311	ltpFR2	12	17	TOURIST	1488	n/a	n/a	0	0	0
3694.588	n/a	WORD	1847294	wordpools/wasnorm_wordpool_576.txt	LTP311	ltpFR2	12	17	MUFFIN	929	n/a	n/a	0	0	0
3697.24	n/a	WORD	1848620	wordpools/wasnorm_wordpool_576.txt	LTP311	ltpFR2	12	17	SERVER	1272	n/a	n/a	0	0	0
3699.692	n/a	WORD	1849846	wordpools/wasnorm_wordpool_576.txt	LTP311	ltpFR2	12	17	NECKLACE	940	n/a	n/a	0	0	0
3702.178	n/a	WORD	1851089	wordpools/wasnorm_wordpool_576.txt	LTP311	ltpFR2	12	17	MEDAL	885	n/a	n/a	0	0	0
