mstime	trial_type	stim_file	subject	experiment	session	trial	item_name	item_num	list	answer	test_x	test_y	test_z
0	SESS_START	n/a	LTP391	ltpFR2	11	n/a	n/a	n/a	n/a	n/a	0	0	0
12902	START	n/a	LTP391	ltpFR2	11	n/a	n/a	n/a	-1	n/a	n/a	n/a	n/a
12933	PROB	n/a	LTP391	ltpFR2	11	n/a	n/a	n/a	-1	13	1	7	5
14816	PROB	n/a	LTP391	ltpFR2	11	n/a	n/a	n/a	-1	10	6	3	1
16049	PROB	n/a	LTP391	ltpFR2	11	n/a	n/a	n/a	-1	18	9	4	5
17433	PROB	n/a	LTP391	ltpFR2	11	n/a	n/a	n/a	-1	18	7	6	5
19383	PROB	n/a	LTP391	ltpFR2	11	n/a	n/a	n/a	-1	8	1	5	2
21533	PROB	n/a	LTP391	ltpFR2	11	n/a	n/a	n/a	-1	14	8	2	4
23066	PROB	n/a	LTP391	ltpFR2	11	n/a	n/a	n/a	-1	19	3	7	9
24405	STOP	n/a	LTP391	ltpFR2	11	n/a	n/a	n/a	-1	n/a	n/a	n/a	n/a
55315	WORD	wordpools/wasnorm_wordpool_576.txt	LTP391	ltpFR2	11	1	CHAPEL	280	n/a	n/a	0	0	0
57782	WORD	wordpools/wasnorm_wordpool_576.txt	LTP391	ltpFR2	11	1	VAGRANT	1544	n/a	n/a	0	0	0
60465	WORD	wordpools/wasnorm_wordpool_576.txt	LTP391	ltpFR2	11	1	PICTURE	1061	n/a	n/a	0	0	0
62932	WORD	wordpools/wasnorm_wordpool_576.txt	LTP391	ltpFR2	11	1	HOOD	714	n/a	n/a	0	0	0
65449	WORD	wordpools/wasnorm_wordpool_576.txt	LTP391	ltpFR2	11	1	PEBBLE	1035	n/a	n/a	0	0	0
68183	WORD	wordpools/wasnorm_wordpool_576.txt	LTP391	ltpFR2	11	1	LEADER	807	n/a	n/a	0	0	0
70882	WORD	wordpools/wasnorm_wordpool_576.txt	LTP391	ltpFR2	11	1	ITEM	746	n/a	n/a	0	0	0
73432	WORD	wordpools/wasnorm_wordpool_576.txt	LTP391	ltpFR2	11	1	BEAKER	104	n/a	n/a	0	0	0
75915	WORD	wordpools/wasnorm_wordpool_576.txt	LTP391	ltpFR2	11	1	OINTMENT	974	n/a	n/a	0	0	0
78532	WORD	wordpools/wasnorm_wordpool_576.txt	LTP391	ltpFR2	11	1	BLENDER	136	n/a	n/a	0	0	0
81032	WORD	wordpools/wasnorm_wordpool_576.txt	LTP391	ltpFR2	11	1	TRIBE	1505	n/a	n/a	0	0	0
83765	WORD	wordpools/wasnorm_wordpool_576.txt	LTP391	ltpFR2	11	1	WORKER	1621	n/a	n/a	0	0	0
86232	WORD	wordpools/wasnorm_wordpool_576.txt	LTP391	ltpFR2	11	1	STAR	1373	n/a	n/a	0	0	0
88831	WORD	wordpools/wasnorm_wordpool_576.txt	LTP391	ltpFR2	11	1	SPACE	1345	n/a	n/a	0	0	0
91581	WORD	wordpools/wasnorm_wordpool_576.txt	LTP391	ltpFR2	11	1	HONEY	713	n/a	n/a	0	0	0
94081	WORD	wordpools/wasnorm_wordpool_576.txt	LTP391	ltpFR2	11	1	LAPEL	800	n/a	n/a	0	0	0
96781	WORD	wordpools/wasnorm_wordpool_576.txt	LTP391	ltpFR2	11	1	BLOUSE	139	n/a	n/a	0	0	0
99232	WORD	wordpools/wasnorm_wordpool_576.txt	LTP391	ltpFR2	11	1	CLAM	315	n/a	n/a	0	0	0
101698	WORD	wordpools/wasnorm_wordpool_576.txt	LTP391	ltpFR2	11	1	FLASK	576	n/a	n/a	0	0	0
104515	WORD	wordpools/wasnorm_wordpool_576.txt	LTP391	ltpFR2	11	1	EUROPE	541	n/a	n/a	0	0	0
107281	WORD	wordpools/wasnorm_wordpool_576.txt	LTP391	ltpFR2	11	1	COUNTY	389	n/a	n/a	0	0	0
109864	WORD	wordpools/wasnorm_wordpool_576.txt	LTP391	ltpFR2	11	1	DASHBOARD	441	n/a	n/a	0	0	0
112564	WORD	wordpools/wasnorm_wordpool_576.txt	LTP391	ltpFR2	11	1	ATOM	55	n/a	n/a	0	0	0
114998	WORD	wordpools/wasnorm_wordpool_576.txt	LTP391	ltpFR2	11	1	STOMACH	1384	n/a	n/a	0	0	0
116615	START	n/a	LTP391	ltpFR2	11	n/a	n/a	n/a	1	n/a	n/a	n/a	n/a
117491	DISTRACTOR	n/a	LTP391	ltpFR2	11	1	n/a	n/a	n/a	n/a	0	0	0
117498	PROB	n/a	LTP391	ltpFR2	11	n/a	n/a	n/a	1	16	6	8	2
120698	PROB	n/a	LTP391	ltpFR2	11	n/a	n/a	n/a	1	21	9	8	4
122664	PROB	n/a	LTP391	ltpFR2	11	n/a	n/a	n/a	1	15	2	6	7
124998	PROB	n/a	LTP391	ltpFR2	11	n/a	n/a	n/a	1	19	5	6	8
127498	PROB	n/a	LTP391	ltpFR2	11	n/a	n/a	n/a	1	8	3	4	1
128914	PROB	n/a	LTP391	ltpFR2	11	n/a	n/a	n/a	1	19	9	3	7
130198	PROB	n/a	LTP391	ltpFR2	11	n/a	n/a	n/a	1	18	8	6	4
131964	PROB	n/a	LTP391	ltpFR2	11	n/a	n/a	n/a	1	11	4	1	6
133164	PROB	n/a	LTP391	ltpFR2	11	n/a	n/a	n/a	1	15	5	1	9
134464	PROB	n/a	LTP391	ltpFR2	11	n/a	n/a	n/a	1	15	6	2	7
136547	PROB	n/a	LTP391	ltpFR2	11	n/a	n/a	n/a	1	14	7	3	7
137897	PROB	n/a	LTP391	ltpFR2	11	n/a	n/a	n/a	1	16	3	5	8
139649	STOP	n/a	LTP391	ltpFR2	11	n/a	n/a	n/a	1	n/a	n/a	n/a	n/a
142481	REC_START	n/a	LTP391	ltpFR2	11	1	n/a	n/a	n/a	n/a	0	0	0
143718	REC_WORD	wordpools/wasnorm_wordpool_576.txt	LTP391	ltpFR2	11	1	CHAPEL	280	n/a	n/a	0	0	0
144579	REC_WORD	wordpools/wasnorm_wordpool_576.txt	LTP391	ltpFR2	11	1	LEADER	807	n/a	n/a	0	0	0
145211	REC_WORD	wordpools/wasnorm_wordpool_576.txt	LTP391	ltpFR2	11	1	VAGRANT	1544	n/a	n/a	0	0	0
145989	REC_WORD	wordpools/wasnorm_wordpool_576.txt	LTP391	ltpFR2	11	1	TRIBE	1505	n/a	n/a	0	0	0
148738	REC_WORD	wordpools/wasnorm_wordpool_576.txt	LTP391	ltpFR2	11	1	LAPEL	800	n/a	n/a	0	0	0
149607	REC_WORD	wordpools/wasnorm_wordpool_576.txt	LTP391	ltpFR2	11	1	BLOUSE	139	n/a	n/a	0	0	0
150703	REC_WORD	wordpools/wasnorm_wordpool_576.txt	LTP391	ltpFR2	11	1	DASHBOARD	441	n/a	n/a	0	0	0
153033	REC_WORD	wordpools/wasnorm_wordpool_576.txt	LTP391	ltpFR2	11	1	COUNTY	389	n/a	n/a	0	0	0
153751	REC_WORD	wordpools/wasnorm_wordpool_576.txt	LTP391	ltpFR2	11	1	EUROPE	541	n/a	n/a	0	0	0
157238	REC_WORD	wordpools/wasnorm_wordpool_576.txt	LTP391	ltpFR2	11	1	OINTMENT	974	n/a	n/a	0	0	0
157904	REC_WORD	wordpools/wasnorm_wordpool_576.txt	LTP391	ltpFR2	11	1	CLAM	315	n/a	n/a	0	0	0
158517	REC_WORD	wordpools/wasnorm_wordpool_576.txt	LTP391	ltpFR2	11	1	HONEY	713	n/a	n/a	0	0	0
159720	REC_WORD	wordpools/wasnorm_wordpool_576.txt	LTP391	ltpFR2	11	1	STOMACH	1384	n/a	n/a	0	0	0
160638	REC_WORD	wordpools/wasnorm_wordpool_576.txt	LTP391	ltpFR2	11	1	BLENDER	136	n/a	n/a	0	0	0
161582	REC_WORD	wordpools/wasnorm_wordpool_576.txt	LTP391	ltpFR2	11	1	BEAKER	104	n/a	n/a	0	0	0
162308	REC_WORD	wordpools/wasnorm_wordpool_576.txt	LTP391	ltpFR2	11	1	WORKER	1621	n/a	n/a	0	0	0
167592	REC_WORD	wordpools/wasnorm_wordpool_576.txt	LTP391	ltpFR2	11	1	PICTURE	1061	n/a	n/a	0	0	0
168179	REC_WORD	wordpools/wasnorm_wordpool_576.txt	LTP391	ltpFR2	11	1	PEBBLE	1035	n/a	n/a	0	0	0
168803	REC_WORD	wordpools/wasnorm_wordpool_576.txt	LTP391	ltpFR2	11	1	ITEM	746	n/a	n/a	0	0	0
232946	WORD	wordpools/wasnorm_wordpool_576.txt	LTP391	ltpFR2	11	2	WHISTLE	1606	n/a	n/a	0	0	0
235663	WORD	wordpools/wasnorm_wordpool_576.txt	LTP391	ltpFR2	11	2	WARDROBE	1587	n/a	n/a	0	0	0
238263	WORD	wordpools/wasnorm_wordpool_576.txt	LTP391	ltpFR2	11	2	PEACH	1031	n/a	n/a	0	0	0
240912	WORD	wordpools/wasnorm_wordpool_576.txt	LTP391	ltpFR2	11	2	TART	1436	n/a	n/a	0	0	0
243579	WORD	wordpools/wasnorm_wordpool_576.txt	LTP391	ltpFR2	11	2	CHILD	299	n/a	n/a	0	0	0
246029	WORD	wordpools/wasnorm_wordpool_576.txt	LTP391	ltpFR2	11	2	GRAPE	654	n/a	n/a	0	0	0
248596	WORD	wordpools/wasnorm_wordpool_576.txt	LTP391	ltpFR2	11	2	JUDGE	761	n/a	n/a	0	0	0
251280	WORD	wordpools/wasnorm_wordpool_576.txt	LTP391	ltpFR2	11	2	WITNESS	1618	n/a	n/a	0	0	0
253896	WORD	wordpools/wasnorm_wordpool_576.txt	LTP391	ltpFR2	11	2	JELLO	754	n/a	n/a	0	0	0
256529	WORD	wordpools/wasnorm_wordpool_576.txt	LTP391	ltpFR2	11	2	HUSBAND	728	n/a	n/a	0	0	0
259312	WORD	wordpools/wasnorm_wordpool_576.txt	LTP391	ltpFR2	11	2	PASSAGE	1019	n/a	n/a	0	0	0
261929	WORD	wordpools/wasnorm_wordpool_576.txt	LTP391	ltpFR2	11	2	COLLEGE	346	n/a	n/a	0	0	0
264495	WORD	wordpools/wasnorm_wordpool_576.txt	LTP391	ltpFR2	11	2	CLAMP	316	n/a	n/a	0	0	0
267079	WORD	wordpools/wasnorm_wordpool_576.txt	LTP391	ltpFR2	11	2	SPHINX	1349	n/a	n/a	0	0	0
269629	WORD	wordpools/wasnorm_wordpool_576.txt	LTP391	ltpFR2	11	2	PARSLEY	1016	n/a	n/a	0	0	0
272329	WORD	wordpools/wasnorm_wordpool_576.txt	LTP391	ltpFR2	11	2	MATCH	878	n/a	n/a	0	0	0
274978	WORD	wordpools/wasnorm_wordpool_576.txt	LTP391	ltpFR2	11	2	TOASTER	1472	n/a	n/a	0	0	0
277562	WORD	wordpools/wasnorm_wordpool_576.txt	LTP391	ltpFR2	11	2	SHORTS	1293	n/a	n/a	0	0	0
280162	WORD	wordpools/wasnorm_wordpool_576.txt	LTP391	ltpFR2	11	2	DRESS	495	n/a	n/a	0	0	0
282645	WORD	wordpools/wasnorm_wordpool_576.txt	LTP391	ltpFR2	11	2	SAUSAGE	1238	n/a	n/a	0	0	0
285196	WORD	wordpools/wasnorm_wordpool_576.txt	LTP391	ltpFR2	11	2	MUMMY	932	n/a	n/a	0	0	0
287878	WORD	wordpools/wasnorm_wordpool_576.txt	LTP391	ltpFR2	11	2	PEPPER	1047	n/a	n/a	0	0	0
290645	WORD	wordpools/wasnorm_wordpool_576.txt	LTP391	ltpFR2	11	2	PIZZA	1079	n/a	n/a	0	0	0
293412	WORD	wordpools/wasnorm_wordpool_576.txt	LTP391	ltpFR2	11	2	RADISH	1158	n/a	n/a	0	0	0
295028	START	n/a	LTP391	ltpFR2	11	n/a	n/a	n/a	2	n/a	n/a	n/a	n/a
295872	DISTRACTOR	n/a	LTP391	ltpFR2	11	2	n/a	n/a	n/a	n/a	0	0	0
295878	PROB	n/a	LTP391	ltpFR2	11	n/a	n/a	n/a	2	17	3	8	6
298995	PROB	n/a	LTP391	ltpFR2	11	n/a	n/a	n/a	2	21	5	7	9
302328	PROB	n/a	LTP391	ltpFR2	11	n/a	n/a	n/a	2	9	6	1	2
303645	PROB	n/a	LTP391	ltpFR2	11	n/a	n/a	n/a	2	17	5	5	7
305095	PROB	n/a	LTP391	ltpFR2	11	n/a	n/a	n/a	2	11	7	2	2
306411	PROB	n/a	LTP391	ltpFR2	11	n/a	n/a	n/a	2	21	6	8	7
308378	PROB	n/a	LTP391	ltpFR2	11	n/a	n/a	n/a	2	13	1	5	7
309778	PROB	n/a	LTP391	ltpFR2	11	n/a	n/a	n/a	2	17	4	9	4
311095	PROB	n/a	LTP391	ltpFR2	11	n/a	n/a	n/a	2	17	5	7	5
313045	PROB	n/a	LTP391	ltpFR2	11	n/a	n/a	n/a	2	12	4	1	7
315361	PROB	n/a	LTP391	ltpFR2	11	n/a	n/a	n/a	2	15	4	6	5
316745	PROB	n/a	LTP391	ltpFR2	11	n/a	n/a	n/a	2	11	1	3	7
318022	STOP	n/a	LTP391	ltpFR2	11	n/a	n/a	n/a	2	n/a	n/a	n/a	n/a
320828	REC_START	n/a	LTP391	ltpFR2	11	2	n/a	n/a	n/a	n/a	0	0	0
321558	REC_WORD	wordpools/wasnorm_wordpool_576.txt	LTP391	ltpFR2	11	2	RADISH	1158	n/a	n/a	0	0	0
322400	REC_WORD	wordpools/wasnorm_wordpool_576.txt	LTP391	ltpFR2	11	2	PIZZA	1079	n/a	n/a	0	0	0
323028	REC_WORD	wordpools/wasnorm_wordpool_576.txt	LTP391	ltpFR2	11	2	PEPPER	1047	n/a	n/a	0	0	0
323609	REC_WORD	wordpools/wasnorm_wordpool_576.txt	LTP391	ltpFR2	11	2	PARSLEY	1016	n/a	n/a	0	0	0
324217	REC_WORD	wordpools/wasnorm_wordpool_576.txt	LTP391	ltpFR2	11	2	SAUSAGE	1238	n/a	n/a	0	0	0
325509	REC_WORD	wordpools/wasnorm_wordpool_576.txt	LTP391	ltpFR2	11	2	JELLO	754	n/a	n/a	0	0	0
326163	REC_WORD	wordpools/wasnorm_wordpool_576.txt	LTP391	ltpFR2	11	2	GRAPE	654	n/a	n/a	0	0	0
326806	REC_WORD	wordpools/wasnorm_wordpool_576.txt	LTP391	ltpFR2	11	2	PEACH	1031	n/a	n/a	0	0	0
327376	REC_WORD	wordpools/wasnorm_wordpool_576.txt	LTP391	ltpFR2	11	2	TART	1436	n/a	n/a	0	0	0
328619	REC_WORD	wordpools/wasnorm_wordpool_576.txt	LTP391	ltpFR2	11	2	CHILD	299	n/a	n/a	0	0	0
329384	REC_WORD	wordpools/wasnorm_wordpool_576.txt	LTP391	ltpFR2	11	2	MUMMY	932	n/a	n/a	0	0	0
329974	REC_WORD	wordpools/wasnorm_wordpool_576.txt	LTP391	ltpFR2	11	2	HUSBAND	728	n/a	n/a	0	0	0
331879	REC_WORD	wordpools/wasnorm_wordpool_576.txt	LTP391	ltpFR2	11	2	JUDGE	761	n/a	n/a	0	0	0
333113	REC_WORD	wordpools/wasnorm_wordpool_576.txt	LTP391	ltpFR2	11	2	COLLEGE	346	n/a	n/a	0	0	0
333821	REC_WORD	wordpools/wasnorm_wordpool_576.txt	LTP391	ltpFR2	11	2	WITNESS	1618	n/a	n/a	0	0	0
334935	REC_WORD	wordpools/wasnorm_wordpool_576.txt	LTP391	ltpFR2	11	2	PASSAGE	1019	n/a	n/a	0	0	0
335808	REC_WORD	wordpools/wasnorm_wordpool_576.txt	LTP391	ltpFR2	11	2	WARDROBE	1587	n/a	n/a	0	0	0
337872	REC_WORD	wordpools/wasnorm_wordpool_576.txt	LTP391	ltpFR2	11	2	WHISTLE	1606	n/a	n/a	0	0	0
339933	REC_WORD	wordpools/wasnorm_wordpool_576.txt	LTP391	ltpFR2	11	2	DRESS	495	n/a	n/a	0	0	0
340521	REC_WORD	wordpools/wasnorm_wordpool_576.txt	LTP391	ltpFR2	11	2	SHORTS	1293	n/a	n/a	0	0	0
356600	REC_WORD	wordpools/wasnorm_wordpool_576.txt	LTP391	ltpFR2	11	2	TART	1436	n/a	n/a	0	0	0
411277	DISTRACTOR	n/a	LTP391	ltpFR2	11	3	n/a	n/a	n/a	n/a	0	0	0
411277	START	n/a	LTP391	ltpFR2	11	n/a	n/a	n/a	3	n/a	n/a	n/a	n/a
411293	PROB	n/a	LTP391	ltpFR2	11	n/a	n/a	n/a	3	17	7	1	9
412760	PROB	n/a	LTP391	ltpFR2	11	n/a	n/a	n/a	3	21	9	7	4
416093	PROB	n/a	LTP391	ltpFR2	11	n/a	n/a	n/a	3	21	7	6	8
419493	PROB	n/a	LTP391	ltpFR2	11	n/a	n/a	n/a	3	14	9	4	1
421310	PROB	n/a	LTP391	ltpFR2	11	n/a	n/a	n/a	3	20	7	8	5
423460	PROB	n/a	LTP391	ltpFR2	11	n/a	n/a	n/a	3	20	9	2	9
424943	PROB	n/a	LTP391	ltpFR2	11	n/a	n/a	n/a	3	17	7	1	9
426210	PROB	n/a	LTP391	ltpFR2	11	n/a	n/a	n/a	3	13	1	8	4
427660	PROB	n/a	LTP391	ltpFR2	11	n/a	n/a	n/a	3	7	4	1	2
429194	PROB	n/a	LTP391	ltpFR2	11	n/a	n/a	n/a	3	6	1	2	3
430459	PROB	n/a	LTP391	ltpFR2	11	n/a	n/a	n/a	3	15	5	4	6
431943	PROB	n/a	LTP391	ltpFR2	11	n/a	n/a	n/a	3	12	3	2	7
435277	STOP	n/a	LTP391	ltpFR2	11	n/a	n/a	n/a	3	n/a	n/a	n/a	n/a
436194	WORD	wordpools/wasnorm_wordpool_576.txt	LTP391	ltpFR2	11	3	JURY	766	n/a	n/a	0	0	0
438626	WORD	wordpools/wasnorm_wordpool_576.txt	LTP391	ltpFR2	11	3	SLIDE	1326	n/a	n/a	0	0	0
441143	WORD	wordpools/wasnorm_wordpool_576.txt	LTP391	ltpFR2	11	3	CIGAR	308	n/a	n/a	0	0	0
443593	WORD	wordpools/wasnorm_wordpool_576.txt	LTP391	ltpFR2	11	3	GUARD	667	n/a	n/a	0	0	0
446277	WORD	wordpools/wasnorm_wordpool_576.txt	LTP391	ltpFR2	11	3	GRILL	661	n/a	n/a	0	0	0
449059	WORD	wordpools/wasnorm_wordpool_576.txt	LTP391	ltpFR2	11	3	SIBLING	1301	n/a	n/a	0	0	0
451676	WORD	wordpools/wasnorm_wordpool_576.txt	LTP391	ltpFR2	11	3	PEDAL	1037	n/a	n/a	0	0	0
454210	WORD	wordpools/wasnorm_wordpool_576.txt	LTP391	ltpFR2	11	3	TEACHER	1440	n/a	n/a	0	0	0
456709	WORD	wordpools/wasnorm_wordpool_576.txt	LTP391	ltpFR2	11	3	CRAB	397	n/a	n/a	0	0	0
459159	WORD	wordpools/wasnorm_wordpool_576.txt	LTP391	ltpFR2	11	3	BELLY	119	n/a	n/a	0	0	0
461826	WORD	wordpools/wasnorm_wordpool_576.txt	LTP391	ltpFR2	11	3	TUNNEL	1519	n/a	n/a	0	0	0
464409	WORD	wordpools/wasnorm_wordpool_576.txt	LTP391	ltpFR2	11	3	BOYFRIEND	162	n/a	n/a	0	0	0
467226	WORD	wordpools/wasnorm_wordpool_576.txt	LTP391	ltpFR2	11	3	OMELET	976	n/a	n/a	0	0	0
469809	WORD	wordpools/wasnorm_wordpool_576.txt	LTP391	ltpFR2	11	3	BACON	67	n/a	n/a	0	0	0
472276	WORD	wordpools/wasnorm_wordpool_576.txt	LTP391	ltpFR2	11	3	BLOCKADE	137	n/a	n/a	0	0	0
474975	WORD	wordpools/wasnorm_wordpool_576.txt	LTP391	ltpFR2	11	3	SNAKE	1333	n/a	n/a	0	0	0
477559	WORD	wordpools/wasnorm_wordpool_576.txt	LTP391	ltpFR2	11	3	FARMER	553	n/a	n/a	0	0	0
480243	WORD	wordpools/wasnorm_wordpool_576.txt	LTP391	ltpFR2	11	3	NOTEBOOK	959	n/a	n/a	0	0	0
483025	WORD	wordpools/wasnorm_wordpool_576.txt	LTP391	ltpFR2	11	3	PAIL	1002	n/a	n/a	0	0	0
485609	WORD	wordpools/wasnorm_wordpool_576.txt	LTP391	ltpFR2	11	3	RABBIT	1152	n/a	n/a	0	0	0
488193	WORD	wordpools/wasnorm_wordpool_576.txt	LTP391	ltpFR2	11	3	PARENT	1013	n/a	n/a	0	0	0
490808	WORD	wordpools/wasnorm_wordpool_576.txt	LTP391	ltpFR2	11	3	TAXI	1438	n/a	n/a	0	0	0
493375	WORD	wordpools/wasnorm_wordpool_576.txt	LTP391	ltpFR2	11	3	BIKE	125	n/a	n/a	0	0	0
496108	WORD	wordpools/wasnorm_wordpool_576.txt	LTP391	ltpFR2	11	3	CLOTHES	327	n/a	n/a	0	0	0
497725	START	n/a	LTP391	ltpFR2	11	n/a	n/a	n/a	4	n/a	n/a	n/a	n/a
498527	DISTRACTOR	n/a	LTP391	ltpFR2	11	3	n/a	n/a	n/a	n/a	0	0	0
498542	PROB	n/a	LTP391	ltpFR2	11	n/a	n/a	n/a	4	12	2	4	6
500642	PROB	n/a	LTP391	ltpFR2	11	n/a	n/a	n/a	4	16	3	8	5
503475	PROB	n/a	LTP391	ltpFR2	11	n/a	n/a	n/a	4	23	9	6	8
506442	PROB	n/a	LTP391	ltpFR2	11	n/a	n/a	n/a	4	8	3	2	3
508158	PROB	n/a	LTP391	ltpFR2	11	n/a	n/a	n/a	4	13	1	6	6
509408	PROB	n/a	LTP391	ltpFR2	11	n/a	n/a	n/a	4	17	9	7	1
510742	PROB	n/a	LTP391	ltpFR2	11	n/a	n/a	n/a	4	11	3	7	1
512041	PROB	n/a	LTP391	ltpFR2	11	n/a	n/a	n/a	4	21	5	9	7
514243	PROB	n/a	LTP391	ltpFR2	11	n/a	n/a	n/a	4	21	8	9	4
516658	PROB	n/a	LTP391	ltpFR2	11	n/a	n/a	n/a	4	14	2	5	7
518358	PROB	n/a	LTP391	ltpFR2	11	n/a	n/a	n/a	4	19	8	3	8
521692	STOP	n/a	LTP391	ltpFR2	11	n/a	n/a	n/a	4	n/a	n/a	n/a	n/a
523575	REC_START	n/a	LTP391	ltpFR2	11	3	n/a	n/a	n/a	n/a	0	0	0
525733	REC_WORD	wordpools/wasnorm_wordpool_576.txt	LTP391	ltpFR2	11	3	PARENT	1013	n/a	n/a	0	0	0
526277	REC_WORD	wordpools/wasnorm_wordpool_576.txt	LTP391	ltpFR2	11	3	SIBLING	1301	n/a	n/a	0	0	0
527048	REC_WORD	wordpools/wasnorm_wordpool_576.txt	LTP391	ltpFR2	11	3	BOYFRIEND	162	n/a	n/a	0	0	0
529272	REC_WORD	wordpools/wasnorm_wordpool_576.txt	LTP391	ltpFR2	11	3	TEACHER	1440	n/a	n/a	0	0	0
531748	REC_WORD	wordpools/wasnorm_wordpool_576.txt	LTP391	ltpFR2	11	3	TAXI	1438	n/a	n/a	0	0	0
532424	REC_WORD	wordpools/wasnorm_wordpool_576.txt	LTP391	ltpFR2	11	3	BIKE	125	n/a	n/a	0	0	0
533226	REC_WORD	wordpools/wasnorm_wordpool_576.txt	LTP391	ltpFR2	11	3	BLOCKADE	137	n/a	n/a	0	0	0
533964	REC_WORD	wordpools/wasnorm_wordpool_576.txt	LTP391	ltpFR2	11	3	TUNNEL	1519	n/a	n/a	0	0	0
536731	REC_WORD	wordpools/wasnorm_wordpool_576.txt	LTP391	ltpFR2	11	3	FARMER	553	n/a	n/a	0	0	0
537306	REC_WORD	wordpools/wasnorm_wordpool_576.txt	LTP391	ltpFR2	11	3	SNAKE	1333	n/a	n/a	0	0	0
538098	REC_WORD	wordpools/wasnorm_wordpool_576.txt	LTP391	ltpFR2	11	3	PAIL	1002	n/a	n/a	0	0	0
541692	REC_WORD	wordpools/wasnorm_wordpool_576.txt	LTP391	ltpFR2	11	3	OMELET	976	n/a	n/a	0	0	0
542689	REC_WORD	wordpools/wasnorm_wordpool_576.txt	LTP391	ltpFR2	11	3	CRAB	397	n/a	n/a	0	0	0
543446	REC_WORD	wordpools/wasnorm_wordpool_576.txt	LTP391	ltpFR2	11	3	BACON	67	n/a	n/a	0	0	0
544758	REC_WORD	wordpools/wasnorm_wordpool_576.txt	LTP391	ltpFR2	11	3	RABBIT	1152	n/a	n/a	0	0	0
545476	REC_WORD	wordpools/wasnorm_wordpool_576.txt	LTP391	ltpFR2	11	3	SLIDE	1326	n/a	n/a	0	0	0
550340	REC_WORD	wordpools/wasnorm_wordpool_576.txt	LTP391	ltpFR2	11	3	BELLY	119	n/a	n/a	0	0	0
565237	REC_WORD	wordpools/wasnorm_wordpool_576.txt	LTP391	ltpFR2	11	3	NOTEBOOK	959	n/a	n/a	0	0	0
566275	REC_WORD	wordpools/wasnorm_wordpool_576.txt	LTP391	ltpFR2	11	3	CLOTHES	327	n/a	n/a	0	0	0
614023	DISTRACTOR	n/a	LTP391	ltpFR2	11	4	n/a	n/a	n/a	n/a	0	0	0
614023	START	n/a	LTP391	ltpFR2	11	n/a	n/a	n/a	5	n/a	n/a	n/a	n/a
614040	PROB	n/a	LTP391	ltpFR2	11	n/a	n/a	n/a	5	8	3	3	2
615557	PROB	n/a	LTP391	ltpFR2	11	n/a	n/a	n/a	5	16	3	8	5
617307	PROB	n/a	LTP391	ltpFR2	11	n/a	n/a	n/a	5	19	9	3	7
618523	PROB	n/a	LTP391	ltpFR2	11	n/a	n/a	n/a	5	17	8	7	2
620090	PROB	n/a	LTP391	ltpFR2	11	n/a	n/a	n/a	5	13	4	8	1
621390	PROB	n/a	LTP391	ltpFR2	11	n/a	n/a	n/a	5	20	8	9	3
623623	PROB	n/a	LTP391	ltpFR2	11	n/a	n/a	n/a	5	17	1	7	9
624990	PROB	n/a	LTP391	ltpFR2	11	n/a	n/a	n/a	5	8	3	4	1
626323	PROB	n/a	LTP391	ltpFR2	11	n/a	n/a	n/a	5	16	4	8	4
627723	PROB	n/a	LTP391	ltpFR2	11	n/a	n/a	n/a	5	17	5	6	6
629640	PROB	n/a	LTP391	ltpFR2	11	n/a	n/a	n/a	5	12	4	2	6
630740	PROB	n/a	LTP391	ltpFR2	11	n/a	n/a	n/a	5	18	9	6	3
632440	PROB	n/a	LTP391	ltpFR2	11	n/a	n/a	n/a	5	13	3	4	6
635023	PROB	n/a	LTP391	ltpFR2	11	n/a	n/a	n/a	5	11	6	1	4
636323	PROB	n/a	LTP391	ltpFR2	11	n/a	n/a	n/a	5	16	4	6	6
637720	STOP	n/a	LTP391	ltpFR2	11	n/a	n/a	n/a	5	n/a	n/a	n/a	n/a
638940	WORD	wordpools/wasnorm_wordpool_576.txt	LTP391	ltpFR2	11	4	BUG	187	n/a	n/a	0	0	0
641739	WORD	wordpools/wasnorm_wordpool_576.txt	LTP391	ltpFR2	11	4	PICNIC	1060	n/a	n/a	0	0	0
644289	WORD	wordpools/wasnorm_wordpool_576.txt	LTP391	ltpFR2	11	4	MOP	916	n/a	n/a	0	0	0
647106	WORD	wordpools/wasnorm_wordpool_576.txt	LTP391	ltpFR2	11	4	RECEIPT	1173	n/a	n/a	0	0	0
649939	WORD	wordpools/wasnorm_wordpool_576.txt	LTP391	ltpFR2	11	4	GAVEL	627	n/a	n/a	0	0	0
652389	WORD	wordpools/wasnorm_wordpool_576.txt	LTP391	ltpFR2	11	4	TILE	1468	n/a	n/a	0	0	0
655073	WORD	wordpools/wasnorm_wordpool_576.txt	LTP391	ltpFR2	11	4	PILOT	1070	n/a	n/a	0	0	0
657723	WORD	wordpools/wasnorm_wordpool_576.txt	LTP391	ltpFR2	11	4	BINDER	127	n/a	n/a	0	0	0
660156	WORD	wordpools/wasnorm_wordpool_576.txt	LTP391	ltpFR2	11	4	FREEZER	604	n/a	n/a	0	0	0
662789	WORD	wordpools/wasnorm_wordpool_576.txt	LTP391	ltpFR2	11	4	KLEENEX	782	n/a	n/a	0	0	0
665356	WORD	wordpools/wasnorm_wordpool_576.txt	LTP391	ltpFR2	11	4	FLASHLIGHT	575	n/a	n/a	0	0	0
667956	WORD	wordpools/wasnorm_wordpool_576.txt	LTP391	ltpFR2	11	4	LONDON	843	n/a	n/a	0	0	0
670422	WORD	wordpools/wasnorm_wordpool_576.txt	LTP391	ltpFR2	11	4	CHURCH	307	n/a	n/a	0	0	0
672922	WORD	wordpools/wasnorm_wordpool_576.txt	LTP391	ltpFR2	11	4	FOOT	590	n/a	n/a	0	0	0
675406	WORD	wordpools/wasnorm_wordpool_576.txt	LTP391	ltpFR2	11	4	SISTER	1312	n/a	n/a	0	0	0
678172	WORD	wordpools/wasnorm_wordpool_576.txt	LTP391	ltpFR2	11	4	FIREMAN	569	n/a	n/a	0	0	0
680722	WORD	wordpools/wasnorm_wordpool_576.txt	LTP391	ltpFR2	11	4	SKIRT	1319	n/a	n/a	0	0	0
683339	WORD	wordpools/wasnorm_wordpool_576.txt	LTP391	ltpFR2	11	4	DANCER	437	n/a	n/a	0	0	0
685905	WORD	wordpools/wasnorm_wordpool_576.txt	LTP391	ltpFR2	11	4	HANDBAG	684	n/a	n/a	0	0	0
688639	WORD	wordpools/wasnorm_wordpool_576.txt	LTP391	ltpFR2	11	4	DRAGON	492	n/a	n/a	0	0	0
691240	WORD	wordpools/wasnorm_wordpool_576.txt	LTP391	ltpFR2	11	4	LION	827	n/a	n/a	0	0	0
693922	WORD	wordpools/wasnorm_wordpool_576.txt	LTP391	ltpFR2	11	4	CABIN	211	n/a	n/a	0	0	0
696722	WORD	wordpools/wasnorm_wordpool_576.txt	LTP391	ltpFR2	11	4	SHELTER	1282	n/a	n/a	0	0	0
699256	WORD	wordpools/wasnorm_wordpool_576.txt	LTP391	ltpFR2	11	4	TYPIST	1532	n/a	n/a	0	0	0
700872	START	n/a	LTP391	ltpFR2	11	n/a	n/a	n/a	6	n/a	n/a	n/a	n/a
701743	DISTRACTOR	n/a	LTP391	ltpFR2	11	4	n/a	n/a	n/a	n/a	0	0	0
701755	PROB	n/a	LTP391	ltpFR2	11	n/a	n/a	n/a	6	21	9	7	5
705705	PROB	n/a	LTP391	ltpFR2	11	n/a	n/a	n/a	6	15	3	3	9
707305	PROB	n/a	LTP391	ltpFR2	11	n/a	n/a	n/a	6	13	2	6	5
709172	PROB	n/a	LTP391	ltpFR2	11	n/a	n/a	n/a	6	12	3	1	8
710305	PROB	n/a	LTP391	ltpFR2	11	n/a	n/a	n/a	6	12	5	4	3
713088	PROB	n/a	LTP391	ltpFR2	11	n/a	n/a	n/a	6	10	5	1	4
714538	PROB	n/a	LTP391	ltpFR2	11	n/a	n/a	n/a	6	16	4	5	7
716505	PROB	n/a	LTP391	ltpFR2	11	n/a	n/a	n/a	6	13	5	3	5
718372	PROB	n/a	LTP391	ltpFR2	11	n/a	n/a	n/a	6	17	9	3	5
719938	PROB	n/a	LTP391	ltpFR2	11	n/a	n/a	n/a	6	13	1	6	6
721038	PROB	n/a	LTP391	ltpFR2	11	n/a	n/a	n/a	6	16	6	7	3
722455	PROB	n/a	LTP391	ltpFR2	11	n/a	n/a	n/a	6	15	5	3	7
723658	STOP	n/a	LTP391	ltpFR2	11	n/a	n/a	n/a	6	n/a	n/a	n/a	n/a
726755	REC_START	n/a	LTP391	ltpFR2	11	4	n/a	n/a	n/a	n/a	0	0	0
727225	REC_WORD	wordpools/wasnorm_wordpool_576.txt	LTP391	ltpFR2	11	4	TYPIST	1532	n/a	n/a	0	0	0
727879	REC_WORD	wordpools/wasnorm_wordpool_576.txt	LTP391	ltpFR2	11	4	DANCER	437	n/a	n/a	0	0	0
728392	REC_WORD	wordpools/wasnorm_wordpool_576.txt	LTP391	ltpFR2	11	4	SKIRT	1319	n/a	n/a	0	0	0
729496	REC_WORD	wordpools/wasnorm_wordpool_576.txt	LTP391	ltpFR2	11	4	SISTER	1312	n/a	n/a	0	0	0
731762	REC_WORD	wordpools/wasnorm_wordpool_576.txt	LTP391	ltpFR2	11	4	CHURCH	307	n/a	n/a	0	0	0
732317	REC_WORD	wordpools/wasnorm_wordpool_576.txt	LTP391	ltpFR2	11	4	LONDON	843	n/a	n/a	0	0	0
732912	REC_WORD	wordpools/wasnorm_wordpool_576.txt	LTP391	ltpFR2	11	4	TILE	1468	n/a	n/a	0	0	0
733469	REC_WORD	wordpools/wasnorm_wordpool_576.txt	LTP391	ltpFR2	11	4	DRAGON	492	n/a	n/a	0	0	0
733944	REC_WORD	wordpools/wasnorm_wordpool_576.txt	LTP391	ltpFR2	11	4	LION	827	n/a	n/a	0	0	0
738044	REC_WORD	wordpools/wasnorm_wordpool_576.txt	LTP391	ltpFR2	11	4	BUG	187	n/a	n/a	0	0	0
738489	REC_WORD	wordpools/wasnorm_wordpool_576.txt	LTP391	ltpFR2	11	4	PICNIC	1060	n/a	n/a	0	0	0
749771	REC_WORD	wordpools/wasnorm_wordpool_576.txt	LTP391	ltpFR2	11	4	FOOT	590	n/a	n/a	0	0	0
754728	REC_WORD	wordpools/wasnorm_wordpool_576.txt	LTP391	ltpFR2	11	4	FIREMAN	569	n/a	n/a	0	0	0
756925	REC_WORD	wordpools/wasnorm_wordpool_576.txt	LTP391	ltpFR2	11	4	MOP	916	n/a	n/a	0	0	0
817221	WORD	wordpools/wasnorm_wordpool_576.txt	LTP391	ltpFR2	11	5	DRIVER	499	n/a	n/a	0	0	0
819937	WORD	wordpools/wasnorm_wordpool_576.txt	LTP391	ltpFR2	11	5	COD	340	n/a	n/a	0	0	0
822553	WORD	wordpools/wasnorm_wordpool_576.txt	LTP391	ltpFR2	11	5	PRINCE	1124	n/a	n/a	0	0	0
825153	WORD	wordpools/wasnorm_wordpool_576.txt	LTP391	ltpFR2	11	5	CANYON	235	n/a	n/a	0	0	0
827737	WORD	wordpools/wasnorm_wordpool_576.txt	LTP391	ltpFR2	11	5	MARKET	871	n/a	n/a	0	0	0
830221	WORD	wordpools/wasnorm_wordpool_576.txt	LTP391	ltpFR2	11	5	SCALLOP	1242	n/a	n/a	0	0	0
832953	WORD	wordpools/wasnorm_wordpool_576.txt	LTP391	ltpFR2	11	5	HAMPER	682	n/a	n/a	0	0	0
835570	WORD	wordpools/wasnorm_wordpool_576.txt	LTP391	ltpFR2	11	5	ICING	732	n/a	n/a	0	0	0
838003	WORD	wordpools/wasnorm_wordpool_576.txt	LTP391	ltpFR2	11	5	NIGHTGOWN	953	n/a	n/a	0	0	0
840603	WORD	wordpools/wasnorm_wordpool_576.txt	LTP391	ltpFR2	11	5	CASKET	255	n/a	n/a	0	0	0
843403	WORD	wordpools/wasnorm_wordpool_576.txt	LTP391	ltpFR2	11	5	BRAKE	166	n/a	n/a	0	0	0
845986	WORD	wordpools/wasnorm_wordpool_576.txt	LTP391	ltpFR2	11	5	TRENCH	1503	n/a	n/a	0	0	0
848436	WORD	wordpools/wasnorm_wordpool_576.txt	LTP391	ltpFR2	11	5	FRANCE	601	n/a	n/a	0	0	0
851237	WORD	wordpools/wasnorm_wordpool_576.txt	LTP391	ltpFR2	11	5	FLIPPER	580	n/a	n/a	0	0	0
853853	WORD	wordpools/wasnorm_wordpool_576.txt	LTP391	ltpFR2	11	5	MAMMAL	861	n/a	n/a	0	0	0
856303	WORD	wordpools/wasnorm_wordpool_576.txt	LTP391	ltpFR2	11	5	PIANO	1057	n/a	n/a	0	0	0
858819	WORD	wordpools/wasnorm_wordpool_576.txt	LTP391	ltpFR2	11	5	ASIA	46	n/a	n/a	0	0	0
861453	WORD	wordpools/wasnorm_wordpool_576.txt	LTP391	ltpFR2	11	5	BACKBONE	66	n/a	n/a	0	0	0
863969	WORD	wordpools/wasnorm_wordpool_576.txt	LTP391	ltpFR2	11	5	MARROW	872	n/a	n/a	0	0	0
866403	WORD	wordpools/wasnorm_wordpool_576.txt	LTP391	ltpFR2	11	5	POSTAGE	1113	n/a	n/a	0	0	0
868903	WORD	wordpools/wasnorm_wordpool_576.txt	LTP391	ltpFR2	11	5	GRAVE	658	n/a	n/a	0	0	0
871636	WORD	wordpools/wasnorm_wordpool_576.txt	LTP391	ltpFR2	11	5	ORANGE	980	n/a	n/a	0	0	0
874069	WORD	wordpools/wasnorm_wordpool_576.txt	LTP391	ltpFR2	11	5	LETTUCE	814	n/a	n/a	0	0	0
876569	WORD	wordpools/wasnorm_wordpool_576.txt	LTP391	ltpFR2	11	5	CHEMIST	292	n/a	n/a	0	0	0
878187	START	n/a	LTP391	ltpFR2	11	n/a	n/a	n/a	7	n/a	n/a	n/a	n/a
879332	DISTRACTOR	n/a	LTP391	ltpFR2	11	5	n/a	n/a	n/a	n/a	0	0	0
879352	PROB	n/a	LTP391	ltpFR2	11	n/a	n/a	n/a	7	17	7	3	7
881819	PROB	n/a	LTP391	ltpFR2	11	n/a	n/a	n/a	7	10	8	1	1
883469	PROB	n/a	LTP391	ltpFR2	11	n/a	n/a	n/a	7	19	6	8	5
885386	PROB	n/a	LTP391	ltpFR2	11	n/a	n/a	n/a	7	10	1	7	2
886702	PROB	n/a	LTP391	ltpFR2	11	n/a	n/a	n/a	7	13	6	6	1
887802	PROB	n/a	LTP391	ltpFR2	11	n/a	n/a	n/a	7	10	1	3	6
888952	PROB	n/a	LTP391	ltpFR2	11	n/a	n/a	n/a	7	12	4	1	7
890253	PROB	n/a	LTP391	ltpFR2	11	n/a	n/a	n/a	7	10	1	6	3
891452	PROB	n/a	LTP391	ltpFR2	11	n/a	n/a	n/a	7	14	5	2	7
892719	PROB	n/a	LTP391	ltpFR2	11	n/a	n/a	n/a	7	15	4	7	4
894686	PROB	n/a	LTP391	ltpFR2	11	n/a	n/a	n/a	7	8	5	2	1
895819	PROB	n/a	LTP391	ltpFR2	11	n/a	n/a	n/a	7	11	5	4	2
897253	PROB	n/a	LTP391	ltpFR2	11	n/a	n/a	n/a	7	15	2	4	9
898836	PROB	n/a	LTP391	ltpFR2	11	n/a	n/a	n/a	7	14	5	7	2
901112	STOP	n/a	LTP391	ltpFR2	11	n/a	n/a	n/a	7	n/a	n/a	n/a	n/a
903970	REC_START	n/a	LTP391	ltpFR2	11	5	n/a	n/a	n/a	n/a	0	0	0
904548	REC_WORD	wordpools/wasnorm_wordpool_576.txt	LTP391	ltpFR2	11	5	CHEMIST	292	n/a	n/a	0	0	0
905191	REC_WORD	wordpools/wasnorm_wordpool_576.txt	LTP391	ltpFR2	11	5	GRAVE	658	n/a	n/a	0	0	0
905667	REC_WORD	wordpools/wasnorm_wordpool_576.txt	LTP391	ltpFR2	11	5	CASKET	255	n/a	n/a	0	0	0
907013	REC_WORD	wordpools/wasnorm_wordpool_576.txt	LTP391	ltpFR2	11	5	ASIA	46	n/a	n/a	0	0	0
907464	REC_WORD	wordpools/wasnorm_wordpool_576.txt	LTP391	ltpFR2	11	5	FRANCE	601	n/a	n/a	0	0	0
908144	REC_WORD	wordpools/wasnorm_wordpool_576.txt	LTP391	ltpFR2	11	5	BACKBONE	66	n/a	n/a	0	0	0
908716	REC_WORD	wordpools/wasnorm_wordpool_576.txt	LTP391	ltpFR2	11	5	MARROW	872	n/a	n/a	0	0	0
910328	REC_WORD	wordpools/wasnorm_wordpool_576.txt	LTP391	ltpFR2	11	5	ICING	732	n/a	n/a	0	0	0
910799	REC_WORD	wordpools/wasnorm_wordpool_576.txt	LTP391	ltpFR2	11	5	LETTUCE	814	n/a	n/a	0	0	0
913275	REC_WORD	wordpools/wasnorm_wordpool_576.txt	LTP391	ltpFR2	11	5	ORANGE	980	n/a	n/a	0	0	0
914708	REC_WORD	wordpools/wasnorm_wordpool_576.txt	LTP391	ltpFR2	11	5	COD	340	n/a	n/a	0	0	0
916413	REC_WORD	wordpools/wasnorm_wordpool_576.txt	LTP391	ltpFR2	11	5	MARKET	871	n/a	n/a	0	0	0
921502	REC_WORD	wordpools/wasnorm_wordpool_576.txt	LTP391	ltpFR2	11	5	DRIVER	499	n/a	n/a	0	0	0
922622	REC_WORD	wordpools/wasnorm_wordpool_576.txt	LTP391	ltpFR2	11	5	CHAUFFEUR	283	n/a	n/a	0	0	0
923612	REC_WORD	wordpools/wasnorm_wordpool_576.txt	LTP391	ltpFR2	11	5	DRIVER	499	n/a	n/a	0	0	0
924251	REC_WORD	wordpools/wasnorm_wordpool_576.txt	LTP391	ltpFR2	11	5	PRINCE	1124	n/a	n/a	0	0	0
925034	REC_WORD	wordpools/wasnorm_wordpool_576.txt	LTP391	ltpFR2	11	5	CANYON	235	n/a	n/a	0	0	0
928741	REC_WORD	wordpools/wasnorm_wordpool_576.txt	LTP391	ltpFR2	11	5	BRAKE	166	n/a	n/a	0	0	0
933210	REC_WORD	wordpools/wasnorm_wordpool_576.txt	LTP391	ltpFR2	11	5	NIGHTGOWN	953	n/a	n/a	0	0	0
933817	REC_WORD	wordpools/wasnorm_wordpool_576.txt	LTP391	ltpFR2	11	5	HAMPER	682	n/a	n/a	0	0	0
935262	REC_WORD	wordpools/wasnorm_wordpool_576.txt	LTP391	ltpFR2	11	5	ICING	732	n/a	n/a	0	0	0
940000	REC_WORD	wordpools/wasnorm_wordpool_576.txt	LTP391	ltpFR2	11	5	FLIPPER	580	n/a	n/a	0	0	0
994451	DISTRACTOR	n/a	LTP391	ltpFR2	11	6	n/a	n/a	n/a	n/a	0	0	0
994451	START	n/a	LTP391	ltpFR2	11	n/a	n/a	n/a	8	n/a	n/a	n/a	n/a
994467	PROB	n/a	LTP391	ltpFR2	11	n/a	n/a	n/a	8	18	7	5	6
996851	PROB	n/a	LTP391	ltpFR2	11	n/a	n/a	n/a	8	17	8	5	4
998434	PROB	n/a	LTP391	ltpFR2	11	n/a	n/a	n/a	8	8	1	6	1
999634	PROB	n/a	LTP391	ltpFR2	11	n/a	n/a	n/a	8	11	1	9	1
1000884	PROB	n/a	LTP391	ltpFR2	11	n/a	n/a	n/a	8	19	4	9	6
1002584	PROB	n/a	LTP391	ltpFR2	11	n/a	n/a	n/a	8	14	7	1	6
1004517	PROB	n/a	LTP391	ltpFR2	11	n/a	n/a	n/a	8	11	3	5	3
1005917	PROB	n/a	LTP391	ltpFR2	11	n/a	n/a	n/a	8	14	5	8	1
1008251	PROB	n/a	LTP391	ltpFR2	11	n/a	n/a	n/a	8	22	9	5	8
1010734	PROB	n/a	LTP391	ltpFR2	11	n/a	n/a	n/a	8	19	8	8	3
1012534	PROB	n/a	LTP391	ltpFR2	11	n/a	n/a	n/a	8	17	2	8	7
1014717	PROB	n/a	LTP391	ltpFR2	11	n/a	n/a	n/a	8	20	6	5	9
1017363	STOP	n/a	LTP391	ltpFR2	11	n/a	n/a	n/a	8	n/a	n/a	n/a	n/a
1019367	WORD	wordpools/wasnorm_wordpool_576.txt	LTP391	ltpFR2	11	6	ACTRESS	6	n/a	n/a	0	0	0
1022034	WORD	wordpools/wasnorm_wordpool_576.txt	LTP391	ltpFR2	11	6	OX	994	n/a	n/a	0	0	0
1024850	WORD	wordpools/wasnorm_wordpool_576.txt	LTP391	ltpFR2	11	6	LASER	801	n/a	n/a	0	0	0
1027583	WORD	wordpools/wasnorm_wordpool_576.txt	LTP391	ltpFR2	11	6	SHORTCAKE	1292	n/a	n/a	0	0	0
1030133	WORD	wordpools/wasnorm_wordpool_576.txt	LTP391	ltpFR2	11	6	ROBOT	1200	n/a	n/a	0	0	0
1032833	WORD	wordpools/wasnorm_wordpool_576.txt	LTP391	ltpFR2	11	6	WASHER	1592	n/a	n/a	0	0	0
1035517	WORD	wordpools/wasnorm_wordpool_576.txt	LTP391	ltpFR2	11	6	CHIPMUNK	304	n/a	n/a	0	0	0
1038317	WORD	wordpools/wasnorm_wordpool_576.txt	LTP391	ltpFR2	11	6	FINGER	567	n/a	n/a	0	0	0
1041050	WORD	wordpools/wasnorm_wordpool_576.txt	LTP391	ltpFR2	11	6	MARINE	869	n/a	n/a	0	0	0
1043583	WORD	wordpools/wasnorm_wordpool_576.txt	LTP391	ltpFR2	11	6	RAFT	1159	n/a	n/a	0	0	0
1046201	WORD	wordpools/wasnorm_wordpool_576.txt	LTP391	ltpFR2	11	6	CLOCK	325	n/a	n/a	0	0	0
1048966	WORD	wordpools/wasnorm_wordpool_576.txt	LTP391	ltpFR2	11	6	HEADBAND	696	n/a	n/a	0	0	0
1051450	WORD	wordpools/wasnorm_wordpool_576.txt	LTP391	ltpFR2	11	6	SCISSORS	1250	n/a	n/a	0	0	0
1054100	WORD	wordpools/wasnorm_wordpool_576.txt	LTP391	ltpFR2	11	6	SHARK	1275	n/a	n/a	0	0	0
1056600	WORD	wordpools/wasnorm_wordpool_576.txt	LTP391	ltpFR2	11	6	PECAN	1036	n/a	n/a	0	0	0
1059333	WORD	wordpools/wasnorm_wordpool_576.txt	LTP391	ltpFR2	11	6	CRITIC	410	n/a	n/a	0	0	0
1061833	WORD	wordpools/wasnorm_wordpool_576.txt	LTP391	ltpFR2	11	6	BROTHER	179	n/a	n/a	0	0	0
1064566	WORD	wordpools/wasnorm_wordpool_576.txt	LTP391	ltpFR2	11	6	BISON	131	n/a	n/a	0	0	0
1067200	WORD	wordpools/wasnorm_wordpool_576.txt	LTP391	ltpFR2	11	6	MONSTER	912	n/a	n/a	0	0	0
1069816	WORD	wordpools/wasnorm_wordpool_576.txt	LTP391	ltpFR2	11	6	SCULPTURE	1258	n/a	n/a	0	0	0
1072383	WORD	wordpools/wasnorm_wordpool_576.txt	LTP391	ltpFR2	11	6	CHEST	295	n/a	n/a	0	0	0
1075049	WORD	wordpools/wasnorm_wordpool_576.txt	LTP391	ltpFR2	11	6	FILM	565	n/a	n/a	0	0	0
1077766	WORD	wordpools/wasnorm_wordpool_576.txt	LTP391	ltpFR2	11	6	MOTEL	919	n/a	n/a	0	0	0
1080366	WORD	wordpools/wasnorm_wordpool_576.txt	LTP391	ltpFR2	11	6	SERVANT	1271	n/a	n/a	0	0	0
1081984	START	n/a	LTP391	ltpFR2	11	n/a	n/a	n/a	9	n/a	n/a	n/a	n/a
1083058	DISTRACTOR	n/a	LTP391	ltpFR2	11	6	n/a	n/a	n/a	n/a	0	0	0
1083066	PROB	n/a	LTP391	ltpFR2	11	n/a	n/a	n/a	9	5	3	1	1
1084632	PROB	n/a	LTP391	ltpFR2	11	n/a	n/a	n/a	9	24	9	9	6
1086666	PROB	n/a	LTP391	ltpFR2	11	n/a	n/a	n/a	9	15	3	4	8
1087999	PROB	n/a	LTP391	ltpFR2	11	n/a	n/a	n/a	9	12	3	4	5
1090582	PROB	n/a	LTP391	ltpFR2	11	n/a	n/a	n/a	9	8	3	1	4
1091866	PROB	n/a	LTP391	ltpFR2	11	n/a	n/a	n/a	9	6	1	3	2
1093082	PROB	n/a	LTP391	ltpFR2	11	n/a	n/a	n/a	9	13	7	5	1
1095332	PROB	n/a	LTP391	ltpFR2	11	n/a	n/a	n/a	9	16	1	7	8
1096532	PROB	n/a	LTP391	ltpFR2	11	n/a	n/a	n/a	9	20	5	8	7
1099132	PROB	n/a	LTP391	ltpFR2	11	n/a	n/a	n/a	9	15	4	9	2
1100515	PROB	n/a	LTP391	ltpFR2	11	n/a	n/a	n/a	9	22	7	6	9
1102032	PROB	n/a	LTP391	ltpFR2	11	n/a	n/a	n/a	9	9	7	1	1
1103183	PROB	n/a	LTP391	ltpFR2	11	n/a	n/a	n/a	9	15	4	4	7
1104566	STOP	n/a	LTP391	ltpFR2	11	n/a	n/a	n/a	9	n/a	n/a	n/a	n/a
1107916	REC_START	n/a	LTP391	ltpFR2	11	6	n/a	n/a	n/a	n/a	0	0	0
1108267	REC_WORD	wordpools/wasnorm_wordpool_576.txt	LTP391	ltpFR2	11	6	SERVANT	1271	n/a	n/a	0	0	0
1108810	REC_WORD	wordpools/wasnorm_wordpool_576.txt	LTP391	ltpFR2	11	6	MOTEL	919	n/a	n/a	0	0	0
1109378	REC_WORD	wordpools/wasnorm_wordpool_576.txt	LTP391	ltpFR2	11	6	FILM	565	n/a	n/a	0	0	0
1110079	REC_WORD	wordpools/wasnorm_wordpool_576.txt	LTP391	ltpFR2	11	6	MONSTER	912	n/a	n/a	0	0	0
1110687	REC_WORD	wordpools/wasnorm_wordpool_576.txt	LTP391	ltpFR2	11	6	CHEST	295	n/a	n/a	0	0	0
1112070	REC_WORD	wordpools/wasnorm_wordpool_576.txt	LTP391	ltpFR2	11	6	SHARK	1275	n/a	n/a	0	0	0
1113509	REC_WORD	wordpools/wasnorm_wordpool_576.txt	LTP391	ltpFR2	11	6	BISON	131	n/a	n/a	0	0	0
1114127	REC_WORD	wordpools/wasnorm_wordpool_576.txt	LTP391	ltpFR2	11	6	OX	994	n/a	n/a	0	0	0
1114617	REC_WORD	wordpools/wasnorm_wordpool_576.txt	LTP391	ltpFR2	11	6	CHIPMUNK	304	n/a	n/a	0	0	0
1116061	REC_WORD	wordpools/wasnorm_wordpool_576.txt	LTP391	ltpFR2	11	6	ACTRESS	6	n/a	n/a	0	0	0
1126219	REC_WORD	wordpools/wasnorm_wordpool_576.txt	LTP391	ltpFR2	11	6	WASHER	1592	n/a	n/a	0	0	0
1128264	REC_WORD	wordpools/wasnorm_wordpool_576.txt	LTP391	ltpFR2	11	6	ROBOT	1200	n/a	n/a	0	0	0
1128757	REC_WORD	wordpools/wasnorm_wordpool_576.txt	LTP391	ltpFR2	11	6	FINGER	567	n/a	n/a	0	0	0
1129213	REC_WORD	wordpools/wasnorm_wordpool_576.txt	LTP391	ltpFR2	11	6	LASER	801	n/a	n/a	0	0	0
1138184	REC_WORD	wordpools/wasnorm_wordpool_576.txt	LTP391	ltpFR2	11	6	MARINE	869	n/a	n/a	0	0	0
1138788	REC_WORD	wordpools/wasnorm_wordpool_576.txt	LTP391	ltpFR2	11	6	BROTHER	179	n/a	n/a	0	0	0
1139435	REC_WORD	wordpools/wasnorm_wordpool_576.txt	LTP391	ltpFR2	11	6	RAFT	1159	n/a	n/a	0	0	0
1198364	DISTRACTOR	n/a	LTP391	ltpFR2	11	7	n/a	n/a	n/a	n/a	0	0	0
1198364	START	n/a	LTP391	ltpFR2	11	n/a	n/a	n/a	10	n/a	n/a	n/a	n/a
1198380	PROB	n/a	LTP391	ltpFR2	11	n/a	n/a	n/a	10	20	8	9	3
1199914	PROB	n/a	LTP391	ltpFR2	11	n/a	n/a	n/a	10	13	5	1	7
1201297	PROB	n/a	LTP391	ltpFR2	11	n/a	n/a	n/a	10	13	2	6	5
1203114	PROB	n/a	LTP391	ltpFR2	11	n/a	n/a	n/a	10	8	5	2	1
1204164	PROB	n/a	LTP391	ltpFR2	11	n/a	n/a	n/a	10	18	8	6	4
1205397	PROB	n/a	LTP391	ltpFR2	11	n/a	n/a	n/a	10	14	8	3	3
1206564	PROB	n/a	LTP391	ltpFR2	11	n/a	n/a	n/a	10	15	3	9	3
1207814	PROB	n/a	LTP391	ltpFR2	11	n/a	n/a	n/a	10	19	8	6	5
1209430	PROB	n/a	LTP391	ltpFR2	11	n/a	n/a	n/a	10	15	5	8	2
1210847	PROB	n/a	LTP391	ltpFR2	11	n/a	n/a	n/a	10	9	4	3	2
1212564	PROB	n/a	LTP391	ltpFR2	11	n/a	n/a	n/a	10	19	6	6	7
1214181	PROB	n/a	LTP391	ltpFR2	11	n/a	n/a	n/a	10	16	2	7	7
1216713	PROB	n/a	LTP391	ltpFR2	11	n/a	n/a	n/a	10	5	1	1	3
1217664	PROB	n/a	LTP391	ltpFR2	11	n/a	n/a	n/a	10	18	7	7	4
1219613	PROB	n/a	LTP391	ltpFR2	11	n/a	n/a	n/a	10	19	9	2	8
1221057	STOP	n/a	LTP391	ltpFR2	11	n/a	n/a	n/a	10	n/a	n/a	n/a	n/a
1223480	WORD	wordpools/wasnorm_wordpool_576.txt	LTP391	ltpFR2	11	7	RECORD	1176	n/a	n/a	0	0	0
1226080	WORD	wordpools/wasnorm_wordpool_576.txt	LTP391	ltpFR2	11	7	CONCERT	360	n/a	n/a	0	0	0
1228647	WORD	wordpools/wasnorm_wordpool_576.txt	LTP391	ltpFR2	11	7	KNAPSACK	783	n/a	n/a	0	0	0
1231264	WORD	wordpools/wasnorm_wordpool_576.txt	LTP391	ltpFR2	11	7	PORK	1108	n/a	n/a	0	0	0
1234013	WORD	wordpools/wasnorm_wordpool_576.txt	LTP391	ltpFR2	11	7	COMPASS	358	n/a	n/a	0	0	0
1236630	WORD	wordpools/wasnorm_wordpool_576.txt	LTP391	ltpFR2	11	7	BEAVER	109	n/a	n/a	0	0	0
1239163	WORD	wordpools/wasnorm_wordpool_576.txt	LTP391	ltpFR2	11	7	SEAL	1262	n/a	n/a	0	0	0
1241746	WORD	wordpools/wasnorm_wordpool_576.txt	LTP391	ltpFR2	11	7	BUTCHER	203	n/a	n/a	0	0	0
1244264	WORD	wordpools/wasnorm_wordpool_576.txt	LTP391	ltpFR2	11	7	TUTU	1524	n/a	n/a	0	0	0
1246780	WORD	wordpools/wasnorm_wordpool_576.txt	LTP391	ltpFR2	11	7	WAITRESS	1581	n/a	n/a	0	0	0
1249446	WORD	wordpools/wasnorm_wordpool_576.txt	LTP391	ltpFR2	11	7	PADDING	999	n/a	n/a	0	0	0
1251996	WORD	wordpools/wasnorm_wordpool_576.txt	LTP391	ltpFR2	11	7	HIKER	708	n/a	n/a	0	0	0
1254796	WORD	wordpools/wasnorm_wordpool_576.txt	LTP391	ltpFR2	11	7	DAISY	435	n/a	n/a	0	0	0
1257579	WORD	wordpools/wasnorm_wordpool_576.txt	LTP391	ltpFR2	11	7	GARBAGE	622	n/a	n/a	0	0	0
1260329	WORD	wordpools/wasnorm_wordpool_576.txt	LTP391	ltpFR2	11	7	BANKER	84	n/a	n/a	0	0	0
1263013	WORD	wordpools/wasnorm_wordpool_576.txt	LTP391	ltpFR2	11	7	MATTRESS	879	n/a	n/a	0	0	0
1265829	WORD	wordpools/wasnorm_wordpool_576.txt	LTP391	ltpFR2	11	7	PLAYGROUND	1087	n/a	n/a	0	0	0
1268629	WORD	wordpools/wasnorm_wordpool_576.txt	LTP391	ltpFR2	11	7	DIME	466	n/a	n/a	0	0	0
1271096	WORD	wordpools/wasnorm_wordpool_576.txt	LTP391	ltpFR2	11	7	PALACE	1006	n/a	n/a	0	0	0
1273579	WORD	wordpools/wasnorm_wordpool_576.txt	LTP391	ltpFR2	11	7	VIKING	1565	n/a	n/a	0	0	0
1276296	WORD	wordpools/wasnorm_wordpool_576.txt	LTP391	ltpFR2	11	7	TROUT	1511	n/a	n/a	0	0	0
1278762	WORD	wordpools/wasnorm_wordpool_576.txt	LTP391	ltpFR2	11	7	BLUEPRINT	142	n/a	n/a	0	0	0
1281230	WORD	wordpools/wasnorm_wordpool_576.txt	LTP391	ltpFR2	11	7	CREVICE	405	n/a	n/a	0	0	0
1283762	WORD	wordpools/wasnorm_wordpool_576.txt	LTP391	ltpFR2	11	7	LACE	792	n/a	n/a	0	0	0
1285379	START	n/a	LTP391	ltpFR2	11	n/a	n/a	n/a	11	n/a	n/a	n/a	n/a
1286303	DISTRACTOR	n/a	LTP391	ltpFR2	11	7	n/a	n/a	n/a	n/a	0	0	0
1286312	PROB	n/a	LTP391	ltpFR2	11	n/a	n/a	n/a	11	17	5	6	6
1288247	PROB	n/a	LTP391	ltpFR2	11	n/a	n/a	n/a	11	21	8	5	8
1290046	PROB	n/a	LTP391	ltpFR2	11	n/a	n/a	n/a	11	14	3	7	4
1291479	PROB	n/a	LTP391	ltpFR2	11	n/a	n/a	n/a	11	13	5	3	5
1292862	PROB	n/a	LTP391	ltpFR2	11	n/a	n/a	n/a	11	19	8	9	2
1294729	PROB	n/a	LTP391	ltpFR2	11	n/a	n/a	n/a	11	10	4	5	3
1296979	PROB	n/a	LTP391	ltpFR2	11	n/a	n/a	n/a	11	17	1	9	7
1299312	PROB	n/a	LTP391	ltpFR2	11	n/a	n/a	n/a	11	8	4	3	1
1300645	PROB	n/a	LTP391	ltpFR2	11	n/a	n/a	n/a	11	19	7	8	4
1303495	PROB	n/a	LTP391	ltpFR2	11	n/a	n/a	n/a	11	19	4	9	6
1304712	PROB	n/a	LTP391	ltpFR2	11	n/a	n/a	n/a	11	17	8	2	7
1306912	PROB	n/a	LTP391	ltpFR2	11	n/a	n/a	n/a	11	15	2	9	5
1308548	STOP	n/a	LTP391	ltpFR2	11	n/a	n/a	n/a	11	n/a	n/a	n/a	n/a
1311197	REC_START	n/a	LTP391	ltpFR2	11	7	n/a	n/a	n/a	n/a	0	0	0
1311857	REC_WORD	wordpools/wasnorm_wordpool_576.txt	LTP391	ltpFR2	11	7	LACE	792	n/a	n/a	0	0	0
1312690	REC_WORD	wordpools/wasnorm_wordpool_576.txt	LTP391	ltpFR2	11	7	BUTCHER	203	n/a	n/a	0	0	0
1314792	REC_WORD	wordpools/wasnorm_wordpool_576.txt	LTP391	ltpFR2	11	7	VIKING	1565	n/a	n/a	0	0	0
1315368	REC_WORD	wordpools/wasnorm_wordpool_576.txt	LTP391	ltpFR2	11	7	PALACE	1006	n/a	n/a	0	0	0
1315946	REC_WORD	wordpools/wasnorm_wordpool_576.txt	LTP391	ltpFR2	11	7	PLAYGROUND	1087	n/a	n/a	0	0	0
1317032	REC_WORD	wordpools/wasnorm_wordpool_576.txt	LTP391	ltpFR2	11	7	DIME	466	n/a	n/a	0	0	0
1319393	REC_WORD	wordpools/wasnorm_wordpool_576.txt	LTP391	ltpFR2	11	7	WAITRESS	1581	n/a	n/a	0	0	0
1320124	REC_WORD	wordpools/wasnorm_wordpool_576.txt	LTP391	ltpFR2	11	7	PADDING	999	n/a	n/a	0	0	0
1320629	REC_WORD	wordpools/wasnorm_wordpool_576.txt	LTP391	ltpFR2	11	7	MATTRESS	879	n/a	n/a	0	0	0
1321318	REC_WORD	wordpools/wasnorm_wordpool_576.txt	LTP391	ltpFR2	11	7	DAISY	435	n/a	n/a	0	0	0
1321778	REC_WORD	wordpools/wasnorm_wordpool_576.txt	LTP391	ltpFR2	11	7	HIKER	708	n/a	n/a	0	0	0
1323095	REC_WORD	wordpools/wasnorm_wordpool_576.txt	LTP391	ltpFR2	11	7	KNAPSACK	783	n/a	n/a	0	0	0
1323885	REC_WORD	wordpools/wasnorm_wordpool_576.txt	LTP391	ltpFR2	11	7	COMPASS	358	n/a	n/a	0	0	0
1324936	REC_WORD	wordpools/wasnorm_wordpool_576.txt	LTP391	ltpFR2	11	7	PORK	1108	n/a	n/a	0	0	0
1337362	REC_WORD	wordpools/wasnorm_wordpool_576.txt	LTP391	ltpFR2	11	7	TUTU	1524	n/a	n/a	0	0	0
1337893	REC_WORD	wordpools/wasnorm_wordpool_576.txt	LTP391	ltpFR2	11	7	CONCERT	360	n/a	n/a	0	0	0
1338443	REC_WORD	wordpools/wasnorm_wordpool_576.txt	LTP391	ltpFR2	11	7	RECORD	1176	n/a	n/a	0	0	0
1401644	DISTRACTOR	n/a	LTP391	ltpFR2	11	8	n/a	n/a	n/a	n/a	0	0	0
1401644	START	n/a	LTP391	ltpFR2	11	n/a	n/a	n/a	12	n/a	n/a	n/a	n/a
1401660	PROB	n/a	LTP391	ltpFR2	11	n/a	n/a	n/a	12	5	1	1	3
1402777	PROB	n/a	LTP391	ltpFR2	11	n/a	n/a	n/a	12	17	7	4	6
1404410	PROB	n/a	LTP391	ltpFR2	11	n/a	n/a	n/a	12	15	5	6	4
1405677	PROB	n/a	LTP391	ltpFR2	11	n/a	n/a	n/a	12	9	4	4	1
1408494	PROB	n/a	LTP391	ltpFR2	11	n/a	n/a	n/a	12	17	6	4	7
1409944	PROB	n/a	LTP391	ltpFR2	11	n/a	n/a	n/a	12	8	5	1	2
1411310	PROB	n/a	LTP391	ltpFR2	11	n/a	n/a	n/a	12	14	1	8	5
1413211	PROB	n/a	LTP391	ltpFR2	11	n/a	n/a	n/a	12	21	4	8	9
1415010	PROB	n/a	LTP391	ltpFR2	11	n/a	n/a	n/a	12	15	4	4	7
1416943	PROB	n/a	LTP391	ltpFR2	11	n/a	n/a	n/a	12	11	3	4	4
1418927	PROB	n/a	LTP391	ltpFR2	11	n/a	n/a	n/a	12	11	5	4	2
1420527	PROB	n/a	LTP391	ltpFR2	11	n/a	n/a	n/a	12	10	5	2	3
1421727	PROB	n/a	LTP391	ltpFR2	11	n/a	n/a	n/a	12	17	8	3	6
1423427	PROB	n/a	LTP391	ltpFR2	11	n/a	n/a	n/a	12	16	1	9	6
1424935	STOP	n/a	LTP391	ltpFR2	11	n/a	n/a	n/a	12	n/a	n/a	n/a	n/a
1426810	WORD	wordpools/wasnorm_wordpool_576.txt	LTP391	ltpFR2	11	8	GREASE	660	n/a	n/a	0	0	0
1429593	WORD	wordpools/wasnorm_wordpool_576.txt	LTP391	ltpFR2	11	8	LEOPARD	812	n/a	n/a	0	0	0
1432027	WORD	wordpools/wasnorm_wordpool_576.txt	LTP391	ltpFR2	11	8	PASTA	1021	n/a	n/a	0	0	0
1434560	WORD	wordpools/wasnorm_wordpool_576.txt	LTP391	ltpFR2	11	8	MILDEW	893	n/a	n/a	0	0	0
1437026	WORD	wordpools/wasnorm_wordpool_576.txt	LTP391	ltpFR2	11	8	ROCKET	1202	n/a	n/a	0	0	0
1439543	WORD	wordpools/wasnorm_wordpool_576.txt	LTP391	ltpFR2	11	8	TREAT	1501	n/a	n/a	0	0	0
1442277	WORD	wordpools/wasnorm_wordpool_576.txt	LTP391	ltpFR2	11	8	LAMP	798	n/a	n/a	0	0	0
1444710	WORD	wordpools/wasnorm_wordpool_576.txt	LTP391	ltpFR2	11	8	SWITCH	1422	n/a	n/a	0	0	0
1447160	WORD	wordpools/wasnorm_wordpool_576.txt	LTP391	ltpFR2	11	8	DRAWING	494	n/a	n/a	0	0	0
1449676	WORD	wordpools/wasnorm_wordpool_576.txt	LTP391	ltpFR2	11	8	POSSUM	1112	n/a	n/a	0	0	0
1452093	WORD	wordpools/wasnorm_wordpool_576.txt	LTP391	ltpFR2	11	8	POCKET	1093	n/a	n/a	0	0	0
1454843	WORD	wordpools/wasnorm_wordpool_576.txt	LTP391	ltpFR2	11	8	ACTOR	5	n/a	n/a	0	0	0
1457659	WORD	wordpools/wasnorm_wordpool_576.txt	LTP391	ltpFR2	11	8	SLOPE	1328	n/a	n/a	0	0	0
1460143	WORD	wordpools/wasnorm_wordpool_576.txt	LTP391	ltpFR2	11	8	CLIMBER	323	n/a	n/a	0	0	0
1462743	WORD	wordpools/wasnorm_wordpool_576.txt	LTP391	ltpFR2	11	8	BLADE	134	n/a	n/a	0	0	0
1465194	WORD	wordpools/wasnorm_wordpool_576.txt	LTP391	ltpFR2	11	8	MARKER	870	n/a	n/a	0	0	0
1467876	WORD	wordpools/wasnorm_wordpool_576.txt	LTP391	ltpFR2	11	8	LADDER	793	n/a	n/a	0	0	0
1470393	WORD	wordpools/wasnorm_wordpool_576.txt	LTP391	ltpFR2	11	8	CATCHER	258	n/a	n/a	0	0	0
1473026	WORD	wordpools/wasnorm_wordpool_576.txt	LTP391	ltpFR2	11	8	RAZOR	1171	n/a	n/a	0	0	0
1475692	WORD	wordpools/wasnorm_wordpool_576.txt	LTP391	ltpFR2	11	8	BANK	83	n/a	n/a	0	0	0
1478260	WORD	wordpools/wasnorm_wordpool_576.txt	LTP391	ltpFR2	11	8	AGENT	10	n/a	n/a	0	0	0
1481026	WORD	wordpools/wasnorm_wordpool_576.txt	LTP391	ltpFR2	11	8	CLOUD	328	n/a	n/a	0	0	0
1483476	WORD	wordpools/wasnorm_wordpool_576.txt	LTP391	ltpFR2	11	8	JEANS	752	n/a	n/a	0	0	0
1486076	WORD	wordpools/wasnorm_wordpool_576.txt	LTP391	ltpFR2	11	8	JAPAN	749	n/a	n/a	0	0	0
1487693	START	n/a	LTP391	ltpFR2	11	n/a	n/a	n/a	13	n/a	n/a	n/a	n/a
1488625	DISTRACTOR	n/a	LTP391	ltpFR2	11	8	n/a	n/a	n/a	n/a	0	0	0
1488642	PROB	n/a	LTP391	ltpFR2	11	n/a	n/a	n/a	13	13	3	1	9
1491009	PROB	n/a	LTP391	ltpFR2	11	n/a	n/a	n/a	13	18	6	4	8
1492392	PROB	n/a	LTP391	ltpFR2	11	n/a	n/a	n/a	13	18	8	1	9
1493842	PROB	n/a	LTP391	ltpFR2	11	n/a	n/a	n/a	13	15	6	4	5
1495142	PROB	n/a	LTP391	ltpFR2	11	n/a	n/a	n/a	13	24	8	9	7
1497375	PROB	n/a	LTP391	ltpFR2	11	n/a	n/a	n/a	13	24	7	9	8
1498892	PROB	n/a	LTP391	ltpFR2	11	n/a	n/a	n/a	13	8	5	2	1
1499925	PROB	n/a	LTP391	ltpFR2	11	n/a	n/a	n/a	13	19	5	7	7
1502342	PROB	n/a	LTP391	ltpFR2	11	n/a	n/a	n/a	13	6	2	2	2
1503359	PROB	n/a	LTP391	ltpFR2	11	n/a	n/a	n/a	13	21	7	8	6
1505009	PROB	n/a	LTP391	ltpFR2	11	n/a	n/a	n/a	13	8	2	5	1
1506292	PROB	n/a	LTP391	ltpFR2	11	n/a	n/a	n/a	13	12	1	6	5
1508042	PROB	n/a	LTP391	ltpFR2	11	n/a	n/a	n/a	13	16	9	3	4
1510362	STOP	n/a	LTP391	ltpFR2	11	n/a	n/a	n/a	13	n/a	n/a	n/a	n/a
1513592	REC_START	n/a	LTP391	ltpFR2	11	8	n/a	n/a	n/a	n/a	0	0	0
1513871	REC_WORD	wordpools/wasnorm_wordpool_576.txt	LTP391	ltpFR2	11	8	JAPAN	749	n/a	n/a	0	0	0
1514603	REC_WORD	wordpools/wasnorm_wordpool_576.txt	LTP391	ltpFR2	11	8	GREASE	660	n/a	n/a	0	0	0
1515185	REC_WORD	wordpools/wasnorm_wordpool_576.txt	LTP391	ltpFR2	11	8	ACTOR	5	n/a	n/a	0	0	0
1516582	REC_WORD	wordpools/wasnorm_wordpool_576.txt	LTP391	ltpFR2	11	8	BANK	83	n/a	n/a	0	0	0
1517390	REC_WORD	wordpools/wasnorm_wordpool_576.txt	LTP391	ltpFR2	11	8	AGENT	10	n/a	n/a	0	0	0
1523163	REC_WORD	wordpools/wasnorm_wordpool_576.txt	LTP391	ltpFR2	11	8	JEANS	752	n/a	n/a	0	0	0
1523717	REC_WORD	wordpools/wasnorm_wordpool_576.txt	LTP391	ltpFR2	11	8	CLIMBER	323	n/a	n/a	0	0	0
1524212	REC_WORD	wordpools/wasnorm_wordpool_576.txt	LTP391	ltpFR2	11	8	SLOPE	1328	n/a	n/a	0	0	0
1543212	REC_WORD	wordpools/wasnorm_wordpool_576.txt	LTP391	ltpFR2	11	8	POCKET	1093	n/a	n/a	0	0	0
1543747	REC_WORD	wordpools/wasnorm_wordpool_576.txt	LTP391	ltpFR2	11	8	ROCKET	1202	n/a	n/a	0	0	0
1544642	REC_WORD	wordpools/wasnorm_wordpool_576.txt	LTP391	ltpFR2	11	8	MILDEW	893	n/a	n/a	0	0	0
1561939	REC_WORD	wordpools/wasnorm_wordpool_576.txt	LTP391	ltpFR2	11	8	PAPER	1011	n/a	n/a	0	0	0
1590141	REST_REWET	n/a	LTP391	ltpFR2	11	8	n/a	n/a	n/a	n/a	0	0	0
1805954	WORD	wordpools/wasnorm_wordpool_576.txt	LTP391	ltpFR2	11	9	REBEL	1172	n/a	n/a	0	0	0
1808420	WORD	wordpools/wasnorm_wordpool_576.txt	LTP391	ltpFR2	11	9	TABLET	1427	n/a	n/a	0	0	0
1811170	WORD	wordpools/wasnorm_wordpool_576.txt	LTP391	ltpFR2	11	9	CAFE	216	n/a	n/a	0	0	0
1813870	WORD	wordpools/wasnorm_wordpool_576.txt	LTP391	ltpFR2	11	9	BANJO	82	n/a	n/a	0	0	0
1816553	WORD	wordpools/wasnorm_wordpool_576.txt	LTP391	ltpFR2	11	9	ROBIN	1199	n/a	n/a	0	0	0
1819037	WORD	wordpools/wasnorm_wordpool_576.txt	LTP391	ltpFR2	11	9	TURKEY	1520	n/a	n/a	0	0	0
1821837	WORD	wordpools/wasnorm_wordpool_576.txt	LTP391	ltpFR2	11	9	BRIEFCASE	175	n/a	n/a	0	0	0
1824271	WORD	wordpools/wasnorm_wordpool_576.txt	LTP391	ltpFR2	11	9	WAITER	1580	n/a	n/a	0	0	0
1826703	WORD	wordpools/wasnorm_wordpool_576.txt	LTP391	ltpFR2	11	9	GLASS	639	n/a	n/a	0	0	0
1829436	WORD	wordpools/wasnorm_wordpool_576.txt	LTP391	ltpFR2	11	9	FRAME	600	n/a	n/a	0	0	0
1832036	WORD	wordpools/wasnorm_wordpool_576.txt	LTP391	ltpFR2	11	9	PORTRAIT	1111	n/a	n/a	0	0	0
1834553	WORD	wordpools/wasnorm_wordpool_576.txt	LTP391	ltpFR2	11	9	PATIENT	1024	n/a	n/a	0	0	0
1837320	WORD	wordpools/wasnorm_wordpool_576.txt	LTP391	ltpFR2	11	9	BARLEY	88	n/a	n/a	0	0	0
1839803	WORD	wordpools/wasnorm_wordpool_576.txt	LTP391	ltpFR2	11	9	COCKTAIL	338	n/a	n/a	0	0	0
1842503	WORD	wordpools/wasnorm_wordpool_576.txt	LTP391	ltpFR2	11	9	CARRIAGE	248	n/a	n/a	0	0	0
1845153	WORD	wordpools/wasnorm_wordpool_576.txt	LTP391	ltpFR2	11	9	LIPSTICK	829	n/a	n/a	0	0	0
1847669	WORD	wordpools/wasnorm_wordpool_576.txt	LTP391	ltpFR2	11	9	SEAGULL	1261	n/a	n/a	0	0	0
1850187	WORD	wordpools/wasnorm_wordpool_576.txt	LTP391	ltpFR2	11	9	COOKBOOK	373	n/a	n/a	0	0	0
1853003	WORD	wordpools/wasnorm_wordpool_576.txt	LTP391	ltpFR2	11	9	JOURNAL	760	n/a	n/a	0	0	0
1855653	WORD	wordpools/wasnorm_wordpool_576.txt	LTP391	ltpFR2	11	9	VIRUS	1572	n/a	n/a	0	0	0
1858319	WORD	wordpools/wasnorm_wordpool_576.txt	LTP391	ltpFR2	11	9	ZEBRA	1635	n/a	n/a	0	0	0
1860836	WORD	wordpools/wasnorm_wordpool_576.txt	LTP391	ltpFR2	11	9	ARM	38	n/a	n/a	0	0	0
1863369	WORD	wordpools/wasnorm_wordpool_576.txt	LTP391	ltpFR2	11	9	CRUTCH	417	n/a	n/a	0	0	0
1865986	WORD	wordpools/wasnorm_wordpool_576.txt	LTP391	ltpFR2	11	9	COWBOY	395	n/a	n/a	0	0	0
1867602	START	n/a	LTP391	ltpFR2	11	n/a	n/a	n/a	14	n/a	n/a	n/a	n/a
1868510	DISTRACTOR	n/a	LTP391	ltpFR2	11	9	n/a	n/a	n/a	n/a	0	0	0
1868519	PROB	n/a	LTP391	ltpFR2	11	n/a	n/a	n/a	14	13	4	7	2
1870819	PROB	n/a	LTP391	ltpFR2	11	n/a	n/a	n/a	14	13	8	2	3
1872286	PROB	n/a	LTP391	ltpFR2	11	n/a	n/a	n/a	14	13	3	7	3
1873636	PROB	n/a	LTP391	ltpFR2	11	n/a	n/a	n/a	14	17	3	9	5
1877019	PROB	n/a	LTP391	ltpFR2	11	n/a	n/a	n/a	14	15	6	7	2
1879352	PROB	n/a	LTP391	ltpFR2	11	n/a	n/a	n/a	14	9	2	3	4
1881253	PROB	n/a	LTP391	ltpFR2	11	n/a	n/a	n/a	14	12	1	6	5
1882519	PROB	n/a	LTP391	ltpFR2	11	n/a	n/a	n/a	14	8	3	2	3
1884119	PROB	n/a	LTP391	ltpFR2	11	n/a	n/a	n/a	14	18	4	6	8
1885685	PROB	n/a	LTP391	ltpFR2	11	n/a	n/a	n/a	14	13	5	3	5
1887135	PROB	n/a	LTP391	ltpFR2	11	n/a	n/a	n/a	14	20	5	8	7
1889685	PROB	n/a	LTP391	ltpFR2	11	n/a	n/a	n/a	14	10	1	1	8
1890853	STOP	n/a	LTP391	ltpFR2	11	n/a	n/a	n/a	14	n/a	n/a	n/a	n/a
1893503	REC_START	n/a	LTP391	ltpFR2	11	9	n/a	n/a	n/a	n/a	0	0	0
1894797	REC_WORD	wordpools/wasnorm_wordpool_576.txt	LTP391	ltpFR2	11	9	BRIEFCASE	175	n/a	n/a	0	0	0
1895480	REC_WORD	wordpools/wasnorm_wordpool_576.txt	LTP391	ltpFR2	11	9	REBEL	1172	n/a	n/a	0	0	0
1897388	REC_WORD	wordpools/wasnorm_wordpool_576.txt	LTP391	ltpFR2	11	9	WAITRESS	1581	n/a	n/a	0	0	0
1898377	REC_WORD	wordpools/wasnorm_wordpool_576.txt	LTP391	ltpFR2	11	9	PORTRAIT	1111	n/a	n/a	0	0	0
1899853	REC_WORD	wordpools/wasnorm_wordpool_576.txt	LTP391	ltpFR2	11	9	FRAME	600	n/a	n/a	0	0	0
1900443	REC_WORD	wordpools/wasnorm_wordpool_576.txt	LTP391	ltpFR2	11	9	GLASS	639	n/a	n/a	0	0	0
1904533	REC_WORD	wordpools/wasnorm_wordpool_576.txt	LTP391	ltpFR2	11	9	ZEBRA	1635	n/a	n/a	0	0	0
1905135	REC_WORD	wordpools/wasnorm_wordpool_576.txt	LTP391	ltpFR2	11	9	VIRUS	1572	n/a	n/a	0	0	0
1910162	REC_WORD	wordpools/wasnorm_wordpool_576.txt	LTP391	ltpFR2	11	9	ARM	38	n/a	n/a	0	0	0
1913340	REC_WORD	wordpools/wasnorm_wordpool_576.txt	LTP391	ltpFR2	11	9	COCKTAIL	338	n/a	n/a	0	0	0
1915177	REC_WORD	wordpools/wasnorm_wordpool_576.txt	LTP391	ltpFR2	11	9	CAFE	216	n/a	n/a	0	0	0
1915940	REC_WORD	wordpools/wasnorm_wordpool_576.txt	LTP391	ltpFR2	11	9	BANJO	82	n/a	n/a	0	0	0
1983950	DISTRACTOR	n/a	LTP391	ltpFR2	11	10	n/a	n/a	n/a	n/a	0	0	0
1983950	START	n/a	LTP391	ltpFR2	11	n/a	n/a	n/a	15	n/a	n/a	n/a	n/a
1983967	PROB	n/a	LTP391	ltpFR2	11	n/a	n/a	n/a	15	12	5	1	6
1985167	PROB	n/a	LTP391	ltpFR2	11	n/a	n/a	n/a	15	10	5	3	2
1986350	PROB	n/a	LTP391	ltpFR2	11	n/a	n/a	n/a	15	17	4	5	8
1988201	PROB	n/a	LTP391	ltpFR2	11	n/a	n/a	n/a	15	11	7	2	2
1989433	PROB	n/a	LTP391	ltpFR2	11	n/a	n/a	n/a	15	9	5	1	3
1990917	PROB	n/a	LTP391	ltpFR2	11	n/a	n/a	n/a	15	12	2	7	3
1992283	PROB	n/a	LTP391	ltpFR2	11	n/a	n/a	n/a	15	23	8	8	7
1995000	PROB	n/a	LTP391	ltpFR2	11	n/a	n/a	n/a	15	22	6	7	9
1996733	PROB	n/a	LTP391	ltpFR2	11	n/a	n/a	n/a	15	13	5	4	4
1999350	PROB	n/a	LTP391	ltpFR2	11	n/a	n/a	n/a	15	20	9	4	7
2003251	PROB	n/a	LTP391	ltpFR2	11	n/a	n/a	n/a	15	14	6	5	3
2004733	PROB	n/a	LTP391	ltpFR2	11	n/a	n/a	n/a	15	15	7	3	5
2007950	STOP	n/a	LTP391	ltpFR2	11	n/a	n/a	n/a	15	n/a	n/a	n/a	n/a
2008833	WORD	wordpools/wasnorm_wordpool_576.txt	LTP391	ltpFR2	11	10	YOLK	1633	n/a	n/a	0	0	0
2011316	WORD	wordpools/wasnorm_wordpool_576.txt	LTP391	ltpFR2	11	10	ROOSTER	1209	n/a	n/a	0	0	0
2013833	WORD	wordpools/wasnorm_wordpool_576.txt	LTP391	ltpFR2	11	10	HEDGE	699	n/a	n/a	0	0	0
2016366	WORD	wordpools/wasnorm_wordpool_576.txt	LTP391	ltpFR2	11	10	FOREHEAD	592	n/a	n/a	0	0	0
2018849	WORD	wordpools/wasnorm_wordpool_576.txt	LTP391	ltpFR2	11	10	SLUG	1329	n/a	n/a	0	0	0
2021416	WORD	wordpools/wasnorm_wordpool_576.txt	LTP391	ltpFR2	11	10	WORLD	1622	n/a	n/a	0	0	0
2023966	WORD	wordpools/wasnorm_wordpool_576.txt	LTP391	ltpFR2	11	10	PACKAGE	997	n/a	n/a	0	0	0
2026566	WORD	wordpools/wasnorm_wordpool_576.txt	LTP391	ltpFR2	11	10	LABEL	790	n/a	n/a	0	0	0
2029366	WORD	wordpools/wasnorm_wordpool_576.txt	LTP391	ltpFR2	11	10	SWIMMER	1420	n/a	n/a	0	0	0
2031833	WORD	wordpools/wasnorm_wordpool_576.txt	LTP391	ltpFR2	11	10	UNCLE	1536	n/a	n/a	0	0	0
2034432	WORD	wordpools/wasnorm_wordpool_576.txt	LTP391	ltpFR2	11	10	DRILL	497	n/a	n/a	0	0	0
2037099	WORD	wordpools/wasnorm_wordpool_576.txt	LTP391	ltpFR2	11	10	PLAID	1080	n/a	n/a	0	0	0
2039782	WORD	wordpools/wasnorm_wordpool_576.txt	LTP391	ltpFR2	11	10	GALLON	618	n/a	n/a	0	0	0
2042599	WORD	wordpools/wasnorm_wordpool_576.txt	LTP391	ltpFR2	11	10	DRINK	498	n/a	n/a	0	0	0
2045200	WORD	wordpools/wasnorm_wordpool_576.txt	LTP391	ltpFR2	11	10	SURVEY	1414	n/a	n/a	0	0	0
2047732	WORD	wordpools/wasnorm_wordpool_576.txt	LTP391	ltpFR2	11	10	WHISKERS	1605	n/a	n/a	0	0	0
2050549	WORD	wordpools/wasnorm_wordpool_576.txt	LTP391	ltpFR2	11	10	CROSS	413	n/a	n/a	0	0	0
2053132	WORD	wordpools/wasnorm_wordpool_576.txt	LTP391	ltpFR2	11	10	FOREST	593	n/a	n/a	0	0	0
2055699	WORD	wordpools/wasnorm_wordpool_576.txt	LTP391	ltpFR2	11	10	ORCHID	982	n/a	n/a	0	0	0
2058465	WORD	wordpools/wasnorm_wordpool_576.txt	LTP391	ltpFR2	11	10	SWORD	1423	n/a	n/a	0	0	0
2060915	WORD	wordpools/wasnorm_wordpool_576.txt	LTP391	ltpFR2	11	10	KNIFE	785	n/a	n/a	0	0	0
2063615	WORD	wordpools/wasnorm_wordpool_576.txt	LTP391	ltpFR2	11	10	SALMON	1227	n/a	n/a	0	0	0
2066250	WORD	wordpools/wasnorm_wordpool_576.txt	LTP391	ltpFR2	11	10	SIDEWALK	1303	n/a	n/a	0	0	0
2068732	WORD	wordpools/wasnorm_wordpool_576.txt	LTP391	ltpFR2	11	10	MASK	876	n/a	n/a	0	0	0
2070349	START	n/a	LTP391	ltpFR2	11	n/a	n/a	n/a	16	n/a	n/a	n/a	n/a
2071296	DISTRACTOR	n/a	LTP391	ltpFR2	11	10	n/a	n/a	n/a	n/a	0	0	0
2071298	PROB	n/a	LTP391	ltpFR2	11	n/a	n/a	n/a	16	17	5	7	5
2073332	PROB	n/a	LTP391	ltpFR2	11	n/a	n/a	n/a	16	14	1	5	8
2074848	PROB	n/a	LTP391	ltpFR2	11	n/a	n/a	n/a	16	20	9	6	5
2076315	PROB	n/a	LTP391	ltpFR2	11	n/a	n/a	n/a	16	26	9	9	8
2078165	PROB	n/a	LTP391	ltpFR2	11	n/a	n/a	n/a	16	16	7	7	2
2080432	PROB	n/a	LTP391	ltpFR2	11	n/a	n/a	n/a	16	9	5	3	1
2081882	PROB	n/a	LTP391	ltpFR2	11	n/a	n/a	n/a	16	15	6	6	3
2083398	PROB	n/a	LTP391	ltpFR2	11	n/a	n/a	n/a	16	25	9	7	9
2084948	PROB	n/a	LTP391	ltpFR2	11	n/a	n/a	n/a	16	19	7	9	3
2086581	PROB	n/a	LTP391	ltpFR2	11	n/a	n/a	n/a	16	21	8	9	4
2088781	PROB	n/a	LTP391	ltpFR2	11	n/a	n/a	n/a	16	15	4	8	3
2090281	PROB	n/a	LTP391	ltpFR2	11	n/a	n/a	n/a	16	8	5	1	2
2091415	PROB	n/a	LTP391	ltpFR2	11	n/a	n/a	n/a	16	20	9	7	4
2093394	STOP	n/a	LTP391	ltpFR2	11	n/a	n/a	n/a	16	n/a	n/a	n/a	n/a
2096249	REC_START	n/a	LTP391	ltpFR2	11	10	n/a	n/a	n/a	n/a	0	0	0
2097086	REC_WORD	wordpools/wasnorm_wordpool_576.txt	LTP391	ltpFR2	11	10	MASK	876	n/a	n/a	0	0	0
2097764	REC_WORD	wordpools/wasnorm_wordpool_576.txt	LTP391	ltpFR2	11	10	SLUG	1329	n/a	n/a	0	0	0
2099783	REC_WORD	wordpools/wasnorm_wordpool_576.txt	LTP391	ltpFR2	11	10	HEDGE	699	n/a	n/a	0	0	0
2100465	REC_WORD	wordpools/wasnorm_wordpool_576.txt	LTP391	ltpFR2	11	10	WORLD	1622	n/a	n/a	0	0	0
2101726	REC_WORD	wordpools/wasnorm_wordpool_576.txt	LTP391	ltpFR2	11	10	FOREST	593	n/a	n/a	0	0	0
2102608	REC_WORD	wordpools/wasnorm_wordpool_576.txt	LTP391	ltpFR2	11	10	ORCHID	982	n/a	n/a	0	0	0
2113301	REC_WORD	wordpools/wasnorm_wordpool_576.txt	LTP391	ltpFR2	11	10	DRILL	497	n/a	n/a	0	0	0
2114404	REC_WORD	wordpools/wasnorm_wordpool_576.txt	LTP391	ltpFR2	11	10	UNCLE	1536	n/a	n/a	0	0	0
2114921	REC_WORD	wordpools/wasnorm_wordpool_576.txt	LTP391	ltpFR2	11	10	PLAID	1080	n/a	n/a	0	0	0
2115445	REC_WORD	wordpools/wasnorm_wordpool_576.txt	LTP391	ltpFR2	11	10	SURVEY	1414	n/a	n/a	0	0	0
2118847	REC_WORD	wordpools/wasnorm_wordpool_576.txt	LTP391	ltpFR2	11	10	FOREHEAD	592	n/a	n/a	0	0	0
2124510	REC_WORD	wordpools/wasnorm_wordpool_576.txt	LTP391	ltpFR2	11	10	ROBIN	1199	n/a	n/a	0	0	0
2186696	DISTRACTOR	n/a	LTP391	ltpFR2	11	11	n/a	n/a	n/a	n/a	0	0	0
2186696	START	n/a	LTP391	ltpFR2	11	n/a	n/a	n/a	17	n/a	n/a	n/a	n/a
2186713	PROB	n/a	LTP391	ltpFR2	11	n/a	n/a	n/a	17	18	3	7	8
2188214	PROB	n/a	LTP391	ltpFR2	11	n/a	n/a	n/a	17	23	6	8	9
2193979	PROB	n/a	LTP391	ltpFR2	11	n/a	n/a	n/a	17	19	9	4	6
2195313	PROB	n/a	LTP391	ltpFR2	11	n/a	n/a	n/a	17	14	3	6	5
2197146	PROB	n/a	LTP391	ltpFR2	11	n/a	n/a	n/a	17	13	3	8	2
2198813	PROB	n/a	LTP391	ltpFR2	11	n/a	n/a	n/a	17	8	1	5	2
2200296	PROB	n/a	LTP391	ltpFR2	11	n/a	n/a	n/a	17	11	3	5	3
2202779	PROB	n/a	LTP391	ltpFR2	11	n/a	n/a	n/a	17	11	1	9	1
2203929	PROB	n/a	LTP391	ltpFR2	11	n/a	n/a	n/a	17	15	2	4	9
2205496	PROB	n/a	LTP391	ltpFR2	11	n/a	n/a	n/a	17	9	3	5	1
2206779	PROB	n/a	LTP391	ltpFR2	11	n/a	n/a	n/a	17	21	6	6	9
2210645	STOP	n/a	LTP391	ltpFR2	11	n/a	n/a	n/a	17	n/a	n/a	n/a	n/a
2211912	WORD	wordpools/wasnorm_wordpool_576.txt	LTP391	ltpFR2	11	11	HATCHET	691	n/a	n/a	0	0	0
2214612	WORD	wordpools/wasnorm_wordpool_576.txt	LTP391	ltpFR2	11	11	PERFUME	1049	n/a	n/a	0	0	0
2217162	WORD	wordpools/wasnorm_wordpool_576.txt	LTP391	ltpFR2	11	11	SHRUB	1299	n/a	n/a	0	0	0
2219796	WORD	wordpools/wasnorm_wordpool_576.txt	LTP391	ltpFR2	11	11	BEAST	108	n/a	n/a	0	0	0
2222462	WORD	wordpools/wasnorm_wordpool_576.txt	LTP391	ltpFR2	11	11	FRAGRANCE	599	n/a	n/a	0	0	0
2225129	WORD	wordpools/wasnorm_wordpool_576.txt	LTP391	ltpFR2	11	11	SCARF	1246	n/a	n/a	0	0	0
2227745	WORD	wordpools/wasnorm_wordpool_576.txt	LTP391	ltpFR2	11	11	BEEF	113	n/a	n/a	0	0	0
2230529	WORD	wordpools/wasnorm_wordpool_576.txt	LTP391	ltpFR2	11	11	MEAT	883	n/a	n/a	0	0	0
2233129	WORD	wordpools/wasnorm_wordpool_576.txt	LTP391	ltpFR2	11	11	NURSE	963	n/a	n/a	0	0	0
2235945	WORD	wordpools/wasnorm_wordpool_576.txt	LTP391	ltpFR2	11	11	HERO	706	n/a	n/a	0	0	0
2238462	WORD	wordpools/wasnorm_wordpool_576.txt	LTP391	ltpFR2	11	11	BUGGY	188	n/a	n/a	0	0	0
2241179	WORD	wordpools/wasnorm_wordpool_576.txt	LTP391	ltpFR2	11	11	MAPLE	866	n/a	n/a	0	0	0
2243712	WORD	wordpools/wasnorm_wordpool_576.txt	LTP391	ltpFR2	11	11	SILK	1307	n/a	n/a	0	0	0
2246279	WORD	wordpools/wasnorm_wordpool_576.txt	LTP391	ltpFR2	11	11	THRONE	1461	n/a	n/a	0	0	0
2248995	WORD	wordpools/wasnorm_wordpool_576.txt	LTP391	ltpFR2	11	11	EMPIRE	530	n/a	n/a	0	0	0
2251612	WORD	wordpools/wasnorm_wordpool_576.txt	LTP391	ltpFR2	11	11	JELLY	755	n/a	n/a	0	0	0
2254345	WORD	wordpools/wasnorm_wordpool_576.txt	LTP391	ltpFR2	11	11	CRATER	400	n/a	n/a	0	0	0
2257045	WORD	wordpools/wasnorm_wordpool_576.txt	LTP391	ltpFR2	11	11	CANAL	226	n/a	n/a	0	0	0
2259612	WORD	wordpools/wasnorm_wordpool_576.txt	LTP391	ltpFR2	11	11	CANDY	230	n/a	n/a	0	0	0
2262311	WORD	wordpools/wasnorm_wordpool_576.txt	LTP391	ltpFR2	11	11	RUST	1219	n/a	n/a	0	0	0
2264911	WORD	wordpools/wasnorm_wordpool_576.txt	LTP391	ltpFR2	11	11	LUGGAGE	847	n/a	n/a	0	0	0
2267528	WORD	wordpools/wasnorm_wordpool_576.txt	LTP391	ltpFR2	11	11	MISSILE	900	n/a	n/a	0	0	0
2270212	WORD	wordpools/wasnorm_wordpool_576.txt	LTP391	ltpFR2	11	11	NECKLACE	940	n/a	n/a	0	0	0
2272928	WORD	wordpools/wasnorm_wordpool_576.txt	LTP391	ltpFR2	11	11	MEDAL	885	n/a	n/a	0	0	0
2274545	START	n/a	LTP391	ltpFR2	11	n/a	n/a	n/a	18	n/a	n/a	n/a	n/a
2275357	DISTRACTOR	n/a	LTP391	ltpFR2	11	11	n/a	n/a	n/a	n/a	0	0	0
2275361	PROB	n/a	LTP391	ltpFR2	11	n/a	n/a	n/a	18	12	1	4	7
2276994	PROB	n/a	LTP391	ltpFR2	11	n/a	n/a	n/a	18	15	9	5	1
2278611	PROB	n/a	LTP391	ltpFR2	11	n/a	n/a	n/a	18	13	1	3	9
2280361	PROB	n/a	LTP391	ltpFR2	11	n/a	n/a	n/a	18	20	9	2	9
2281744	PROB	n/a	LTP391	ltpFR2	11	n/a	n/a	n/a	18	5	3	1	1
2282678	PROB	n/a	LTP391	ltpFR2	11	n/a	n/a	n/a	18	19	9	6	4
2283961	PROB	n/a	LTP391	ltpFR2	11	n/a	n/a	n/a	18	9	6	2	1
2285444	PROB	n/a	LTP391	ltpFR2	11	n/a	n/a	n/a	18	18	9	5	4
2286828	PROB	n/a	LTP391	ltpFR2	11	n/a	n/a	n/a	18	16	4	3	9
2288794	PROB	n/a	LTP391	ltpFR2	11	n/a	n/a	n/a	18	15	6	5	4
2291311	PROB	n/a	LTP391	ltpFR2	11	n/a	n/a	n/a	18	10	5	3	2
2292578	PROB	n/a	LTP391	ltpFR2	11	n/a	n/a	n/a	18	9	3	4	2
2294328	PROB	n/a	LTP391	ltpFR2	11	n/a	n/a	n/a	18	12	3	2	7
2296011	PROB	n/a	LTP391	ltpFR2	11	n/a	n/a	n/a	18	23	7	7	9
2298440	STOP	n/a	LTP391	ltpFR2	11	n/a	n/a	n/a	18	n/a	n/a	n/a	n/a
2300378	REC_START	n/a	LTP391	ltpFR2	11	11	n/a	n/a	n/a	n/a	0	0	0
2300825	REC_WORD	wordpools/wasnorm_wordpool_576.txt	LTP391	ltpFR2	11	11	MEDAL	885	n/a	n/a	0	0	0
2301409	REC_WORD	wordpools/wasnorm_wordpool_576.txt	LTP391	ltpFR2	11	11	NECKLACE	940	n/a	n/a	0	0	0
2305032	REC_WORD	wordpools/wasnorm_wordpool_576.txt	LTP391	ltpFR2	11	11	EMPIRE	530	n/a	n/a	0	0	0
2305593	REC_WORD	wordpools/wasnorm_wordpool_576.txt	LTP391	ltpFR2	11	11	THRONE	1461	n/a	n/a	0	0	0
2306449	REC_WORD	wordpools/wasnorm_wordpool_576.txt	LTP391	ltpFR2	11	11	SILK	1307	n/a	n/a	0	0	0
2307651	REC_WORD	wordpools/wasnorm_wordpool_576.txt	LTP391	ltpFR2	11	11	NURSE	963	n/a	n/a	0	0	0
2308289	REC_WORD	wordpools/wasnorm_wordpool_576.txt	LTP391	ltpFR2	11	11	HERO	706	n/a	n/a	0	0	0
2308915	REC_WORD	wordpools/wasnorm_wordpool_576.txt	LTP391	ltpFR2	11	11	BUGGY	188	n/a	n/a	0	0	0
2390826	DISTRACTOR	n/a	LTP391	ltpFR2	11	12	n/a	n/a	n/a	n/a	0	0	0
2390826	START	n/a	LTP391	ltpFR2	11	n/a	n/a	n/a	19	n/a	n/a	n/a	n/a
2390842	PROB	n/a	LTP391	ltpFR2	11	n/a	n/a	n/a	19	15	9	5	1
2393243	PROB	n/a	LTP391	ltpFR2	11	n/a	n/a	n/a	19	15	2	5	8
2395059	PROB	n/a	LTP391	ltpFR2	11	n/a	n/a	n/a	19	16	9	2	6
2396942	PROB	n/a	LTP391	ltpFR2	11	n/a	n/a	n/a	19	15	7	5	3
2399277	PROB	n/a	LTP391	ltpFR2	11	n/a	n/a	n/a	19	16	7	4	5
2401342	PROB	n/a	LTP391	ltpFR2	11	n/a	n/a	n/a	19	13	3	5	5
2402942	PROB	n/a	LTP391	ltpFR2	11	n/a	n/a	n/a	19	11	1	2	8
2404676	PROB	n/a	LTP391	ltpFR2	11	n/a	n/a	n/a	19	14	4	7	3
2406459	PROB	n/a	LTP391	ltpFR2	11	n/a	n/a	n/a	19	21	5	7	9
2408243	PROB	n/a	LTP391	ltpFR2	11	n/a	n/a	n/a	19	10	5	2	3
2409509	PROB	n/a	LTP391	ltpFR2	11	n/a	n/a	n/a	19	20	7	6	7
2411193	PROB	n/a	LTP391	ltpFR2	11	n/a	n/a	n/a	19	9	1	4	4
2414826	STOP	n/a	LTP391	ltpFR2	11	n/a	n/a	n/a	19	n/a	n/a	n/a	n/a
2415775	WORD	wordpools/wasnorm_wordpool_576.txt	LTP391	ltpFR2	11	12	PLASTER	1085	n/a	n/a	0	0	0
2418442	WORD	wordpools/wasnorm_wordpool_576.txt	LTP391	ltpFR2	11	12	BRICK	172	n/a	n/a	0	0	0
2420875	WORD	wordpools/wasnorm_wordpool_576.txt	LTP391	ltpFR2	11	12	HELMET	702	n/a	n/a	0	0	0
2423458	WORD	wordpools/wasnorm_wordpool_576.txt	LTP391	ltpFR2	11	12	CAMEL	223	n/a	n/a	0	0	0
2426158	WORD	wordpools/wasnorm_wordpool_576.txt	LTP391	ltpFR2	11	12	PLIERS	1089	n/a	n/a	0	0	0
2428792	WORD	wordpools/wasnorm_wordpool_576.txt	LTP391	ltpFR2	11	12	RELISH	1183	n/a	n/a	0	0	0
2431308	WORD	wordpools/wasnorm_wordpool_576.txt	LTP391	ltpFR2	11	12	YARN	1631	n/a	n/a	0	0	0
2434042	WORD	wordpools/wasnorm_wordpool_576.txt	LTP391	ltpFR2	11	12	SCRIBBLE	1256	n/a	n/a	0	0	0
2436842	WORD	wordpools/wasnorm_wordpool_576.txt	LTP391	ltpFR2	11	12	FEMALE	559	n/a	n/a	0	0	0
2439658	WORD	wordpools/wasnorm_wordpool_576.txt	LTP391	ltpFR2	11	12	CAPTIVE	240	n/a	n/a	0	0	0
2442392	WORD	wordpools/wasnorm_wordpool_576.txt	LTP391	ltpFR2	11	12	JUNGLE	764	n/a	n/a	0	0	0
2444908	WORD	wordpools/wasnorm_wordpool_576.txt	LTP391	ltpFR2	11	12	DENIM	446	n/a	n/a	0	0	0
2447608	WORD	wordpools/wasnorm_wordpool_576.txt	LTP391	ltpFR2	11	12	ZIPPER	1636	n/a	n/a	0	0	0
2450058	WORD	wordpools/wasnorm_wordpool_576.txt	LTP391	ltpFR2	11	12	FUNGUS	614	n/a	n/a	0	0	0
2452541	WORD	wordpools/wasnorm_wordpool_576.txt	LTP391	ltpFR2	11	12	FLOWER	584	n/a	n/a	0	0	0
2455325	WORD	wordpools/wasnorm_wordpool_576.txt	LTP391	ltpFR2	11	12	THIEF	1456	n/a	n/a	0	0	0
2458041	WORD	wordpools/wasnorm_wordpool_576.txt	LTP391	ltpFR2	11	12	VICTIM	1562	n/a	n/a	0	0	0
2460674	WORD	wordpools/wasnorm_wordpool_576.txt	LTP391	ltpFR2	11	12	AIRPORT	13	n/a	n/a	0	0	0
2463424	WORD	wordpools/wasnorm_wordpool_576.txt	LTP391	ltpFR2	11	12	OUTFIT	988	n/a	n/a	0	0	0
2466124	WORD	wordpools/wasnorm_wordpool_576.txt	LTP391	ltpFR2	11	12	CORAL	378	n/a	n/a	0	0	0
2468791	WORD	wordpools/wasnorm_wordpool_576.txt	LTP391	ltpFR2	11	12	SPOOL	1356	n/a	n/a	0	0	0
2471374	WORD	wordpools/wasnorm_wordpool_576.txt	LTP391	ltpFR2	11	12	PREACHER	1119	n/a	n/a	0	0	0
2473807	WORD	wordpools/wasnorm_wordpool_576.txt	LTP391	ltpFR2	11	12	OUTDOORS	987	n/a	n/a	0	0	0
2476591	WORD	wordpools/wasnorm_wordpool_576.txt	LTP391	ltpFR2	11	12	LOVER	846	n/a	n/a	0	0	0
2478209	START	n/a	LTP391	ltpFR2	11	n/a	n/a	n/a	20	n/a	n/a	n/a	n/a
2479171	DISTRACTOR	n/a	LTP391	ltpFR2	11	12	n/a	n/a	n/a	n/a	0	0	0
2479174	PROB	n/a	LTP391	ltpFR2	11	n/a	n/a	n/a	20	22	9	6	7
2487491	PROB	n/a	LTP391	ltpFR2	11	n/a	n/a	n/a	20	16	8	4	4
2489258	PROB	n/a	LTP391	ltpFR2	11	n/a	n/a	n/a	20	15	1	5	9
2490574	PROB	n/a	LTP391	ltpFR2	11	n/a	n/a	n/a	20	24	9	8	7
2494841	PROB	n/a	LTP391	ltpFR2	11	n/a	n/a	n/a	20	14	7	6	1
2496140	PROB	n/a	LTP391	ltpFR2	11	n/a	n/a	n/a	20	9	6	1	2
2497225	PROB	n/a	LTP391	ltpFR2	11	n/a	n/a	n/a	20	14	3	3	8
2498574	PROB	n/a	LTP391	ltpFR2	11	n/a	n/a	n/a	20	20	6	5	9
2500107	PROB	n/a	LTP391	ltpFR2	11	n/a	n/a	n/a	20	16	8	5	3
2501733	STOP	n/a	LTP391	ltpFR2	11	n/a	n/a	n/a	20	n/a	n/a	n/a	n/a
2503991	REC_START	n/a	LTP391	ltpFR2	11	12	n/a	n/a	n/a	n/a	0	0	0
2504428	REC_WORD	wordpools/wasnorm_wordpool_576.txt	LTP391	ltpFR2	11	12	PREACHER	1119	n/a	n/a	0	0	0
2504955	REC_WORD	wordpools/wasnorm_wordpool_576.txt	LTP391	ltpFR2	11	12	OUTDOORS	987	n/a	n/a	0	0	0
2508082	REC_WORD	wordpools/wasnorm_wordpool_576.txt	LTP391	ltpFR2	11	12	THIEF	1456	n/a	n/a	0	0	0
2509769	REC_WORD	wordpools/wasnorm_wordpool_576.txt	LTP391	ltpFR2	11	12	VICTIM	1562	n/a	n/a	0	0	0
2513624	REC_WORD	wordpools/wasnorm_wordpool_576.txt	LTP391	ltpFR2	11	12	SPOOL	1356	n/a	n/a	0	0	0
2594439	WORD	wordpools/wasnorm_wordpool_576.txt	LTP391	ltpFR2	11	13	BABY	64	n/a	n/a	0	0	0
2597089	WORD	wordpools/wasnorm_wordpool_576.txt	LTP391	ltpFR2	11	13	SHERIFF	1284	n/a	n/a	0	0	0
2599639	WORD	wordpools/wasnorm_wordpool_576.txt	LTP391	ltpFR2	11	13	WASP	1593	n/a	n/a	0	0	0
2602422	WORD	wordpools/wasnorm_wordpool_576.txt	LTP391	ltpFR2	11	13	GHETTO	633	n/a	n/a	0	0	0
2605122	WORD	wordpools/wasnorm_wordpool_576.txt	LTP391	ltpFR2	11	13	MUSTARD	935	n/a	n/a	0	0	0
2607839	WORD	wordpools/wasnorm_wordpool_576.txt	LTP391	ltpFR2	11	13	SCALPEL	1243	n/a	n/a	0	0	0
2610288	WORD	wordpools/wasnorm_wordpool_576.txt	LTP391	ltpFR2	11	13	LILY	821	n/a	n/a	0	0	0
2612738	WORD	wordpools/wasnorm_wordpool_576.txt	LTP391	ltpFR2	11	13	TRACTOR	1493	n/a	n/a	0	0	0
2615355	WORD	wordpools/wasnorm_wordpool_576.txt	LTP391	ltpFR2	11	13	ANTLER	29	n/a	n/a	0	0	0
2617838	WORD	wordpools/wasnorm_wordpool_576.txt	LTP391	ltpFR2	11	13	PIMPLE	1071	n/a	n/a	0	0	0
2620621	WORD	wordpools/wasnorm_wordpool_576.txt	LTP391	ltpFR2	11	13	SPIDER	1351	n/a	n/a	0	0	0
2623322	WORD	wordpools/wasnorm_wordpool_576.txt	LTP391	ltpFR2	11	13	GARLIC	624	n/a	n/a	0	0	0
2625838	WORD	wordpools/wasnorm_wordpool_576.txt	LTP391	ltpFR2	11	13	GIFT	635	n/a	n/a	0	0	0
2628455	WORD	wordpools/wasnorm_wordpool_576.txt	LTP391	ltpFR2	11	13	PERMIT	1051	n/a	n/a	0	0	0
2631171	WORD	wordpools/wasnorm_wordpool_576.txt	LTP391	ltpFR2	11	13	CROWN	415	n/a	n/a	0	0	0
2633905	WORD	wordpools/wasnorm_wordpool_576.txt	LTP391	ltpFR2	11	13	BROOK	177	n/a	n/a	0	0	0
2636488	WORD	wordpools/wasnorm_wordpool_576.txt	LTP391	ltpFR2	11	13	BARREL	91	n/a	n/a	0	0	0
2638988	WORD	wordpools/wasnorm_wordpool_576.txt	LTP391	ltpFR2	11	13	SNACK	1331	n/a	n/a	0	0	0
2641571	WORD	wordpools/wasnorm_wordpool_576.txt	LTP391	ltpFR2	11	13	CUPBOARD	425	n/a	n/a	0	0	0
2644205	WORD	wordpools/wasnorm_wordpool_576.txt	LTP391	ltpFR2	11	13	GARDEN	623	n/a	n/a	0	0	0
2646721	WORD	wordpools/wasnorm_wordpool_576.txt	LTP391	ltpFR2	11	13	PARTNER	1017	n/a	n/a	0	0	0
2649371	WORD	wordpools/wasnorm_wordpool_576.txt	LTP391	ltpFR2	11	13	FRIEND	606	n/a	n/a	0	0	0
2652189	WORD	wordpools/wasnorm_wordpool_576.txt	LTP391	ltpFR2	11	13	HORSE	719	n/a	n/a	0	0	0
2654904	WORD	wordpools/wasnorm_wordpool_576.txt	LTP391	ltpFR2	11	13	SALT	1229	n/a	n/a	0	0	0
2656521	START	n/a	LTP391	ltpFR2	11	n/a	n/a	n/a	21	n/a	n/a	n/a	n/a
2657443	DISTRACTOR	n/a	LTP391	ltpFR2	11	13	n/a	n/a	n/a	n/a	0	0	0
2657454	PROB	n/a	LTP391	ltpFR2	11	n/a	n/a	n/a	21	15	7	2	6
2664754	PROB	n/a	LTP391	ltpFR2	11	n/a	n/a	n/a	21	19	9	4	6
2666255	PROB	n/a	LTP391	ltpFR2	11	n/a	n/a	n/a	21	5	2	1	2
2667671	PROB	n/a	LTP391	ltpFR2	11	n/a	n/a	n/a	21	12	7	3	2
2668871	PROB	n/a	LTP391	ltpFR2	11	n/a	n/a	n/a	21	12	7	3	2
2670104	PROB	n/a	LTP391	ltpFR2	11	n/a	n/a	n/a	21	20	8	4	8
2673304	PROB	n/a	LTP391	ltpFR2	11	n/a	n/a	n/a	21	10	1	4	5
2675272	PROB	n/a	LTP391	ltpFR2	11	n/a	n/a	n/a	21	14	1	9	4
2676954	PROB	n/a	LTP391	ltpFR2	11	n/a	n/a	n/a	21	18	9	6	3
2680521	STOP	n/a	LTP391	ltpFR2	11	n/a	n/a	n/a	21	n/a	n/a	n/a	n/a
2682404	REC_START	n/a	LTP391	ltpFR2	11	13	n/a	n/a	n/a	n/a	0	0	0
2683339	REC_WORD	wordpools/wasnorm_wordpool_576.txt	LTP391	ltpFR2	11	13	GARDEN	623	n/a	n/a	0	0	0
2683833	REC_WORD	wordpools/wasnorm_wordpool_576.txt	LTP391	ltpFR2	11	13	SHERIFF	1284	n/a	n/a	0	0	0
2684504	REC_WORD	wordpools/wasnorm_wordpool_576.txt	LTP391	ltpFR2	11	13	GHETTO	633	n/a	n/a	0	0	0
2692334	REC_WORD	wordpools/wasnorm_wordpool_576.txt	LTP391	ltpFR2	11	13	BABY	64	n/a	n/a	0	0	0
2772869	WORD	wordpools/wasnorm_wordpool_576.txt	LTP391	ltpFR2	11	14	SUPPER	1411	n/a	n/a	0	0	0
2775402	WORD	wordpools/wasnorm_wordpool_576.txt	LTP391	ltpFR2	11	14	WIDOW	1608	n/a	n/a	0	0	0
2777835	WORD	wordpools/wasnorm_wordpool_576.txt	LTP391	ltpFR2	11	14	BOX	159	n/a	n/a	0	0	0
2780270	WORD	wordpools/wasnorm_wordpool_576.txt	LTP391	ltpFR2	11	14	TRUCK	1512	n/a	n/a	0	0	0
2783052	WORD	wordpools/wasnorm_wordpool_576.txt	LTP391	ltpFR2	11	14	WRIST	1626	n/a	n/a	0	0	0
2785819	WORD	wordpools/wasnorm_wordpool_576.txt	LTP391	ltpFR2	11	14	SCARECROW	1245	n/a	n/a	0	0	0
2788285	WORD	wordpools/wasnorm_wordpool_576.txt	LTP391	ltpFR2	11	14	CONTRACT	368	n/a	n/a	0	0	0
2791035	WORD	wordpools/wasnorm_wordpool_576.txt	LTP391	ltpFR2	11	14	DENTIST	447	n/a	n/a	0	0	0
2793785	WORD	wordpools/wasnorm_wordpool_576.txt	LTP391	ltpFR2	11	14	BRACES	164	n/a	n/a	0	0	0
2796302	WORD	wordpools/wasnorm_wordpool_576.txt	LTP391	ltpFR2	11	14	CHAUFFEUR	283	n/a	n/a	0	0	0
2798735	WORD	wordpools/wasnorm_wordpool_576.txt	LTP391	ltpFR2	11	14	SADDLE	1221	n/a	n/a	0	0	0
2801219	WORD	wordpools/wasnorm_wordpool_576.txt	LTP391	ltpFR2	11	14	DOLPHIN	483	n/a	n/a	0	0	0
2803802	WORD	wordpools/wasnorm_wordpool_576.txt	LTP391	ltpFR2	11	14	STALLION	1369	n/a	n/a	0	0	0
2806485	WORD	wordpools/wasnorm_wordpool_576.txt	LTP391	ltpFR2	11	14	NOVEL	960	n/a	n/a	0	0	0
2809052	WORD	wordpools/wasnorm_wordpool_576.txt	LTP391	ltpFR2	11	14	LEG	809	n/a	n/a	0	0	0
2811618	WORD	wordpools/wasnorm_wordpool_576.txt	LTP391	ltpFR2	11	14	STREAM	1392	n/a	n/a	0	0	0
2814068	WORD	wordpools/wasnorm_wordpool_576.txt	LTP391	ltpFR2	11	14	PUPPY	1144	n/a	n/a	0	0	0
2816718	WORD	wordpools/wasnorm_wordpool_576.txt	LTP391	ltpFR2	11	14	BUREAU	199	n/a	n/a	0	0	0
2819236	WORD	wordpools/wasnorm_wordpool_576.txt	LTP391	ltpFR2	11	14	OFFICE	972	n/a	n/a	0	0	0
2822001	WORD	wordpools/wasnorm_wordpool_576.txt	LTP391	ltpFR2	11	14	NOMAD	955	n/a	n/a	0	0	0
2824701	WORD	wordpools/wasnorm_wordpool_576.txt	LTP391	ltpFR2	11	14	ATLAS	53	n/a	n/a	0	0	0
2827451	WORD	wordpools/wasnorm_wordpool_576.txt	LTP391	ltpFR2	11	14	CARROT	249	n/a	n/a	0	0	0
2830185	WORD	wordpools/wasnorm_wordpool_576.txt	LTP391	ltpFR2	11	14	TORTOISE	1486	n/a	n/a	0	0	0
2832884	WORD	wordpools/wasnorm_wordpool_576.txt	LTP391	ltpFR2	11	14	IGLOO	734	n/a	n/a	0	0	0
2834501	START	n/a	LTP391	ltpFR2	11	n/a	n/a	n/a	22	n/a	n/a	n/a	n/a
2835427	DISTRACTOR	n/a	LTP391	ltpFR2	11	14	n/a	n/a	n/a	n/a	0	0	0
2858500	STOP	n/a	LTP391	ltpFR2	11	n/a	n/a	n/a	22	n/a	n/a	n/a	n/a
2860318	REC_START	n/a	LTP391	ltpFR2	11	14	n/a	n/a	n/a	n/a	0	0	0
2935318	REC_WORD_VV	wordpools/wasnorm_wordpool_576.txt	LTP391	ltpFR2	11	14	<>	-1	n/a	n/a	0	0	0
2950782	WORD	wordpools/wasnorm_wordpool_576.txt	LTP391	ltpFR2	11	15	TWEEZERS	1526	n/a	n/a	0	0	0
2953316	WORD	wordpools/wasnorm_wordpool_576.txt	LTP391	ltpFR2	11	15	ROD	1203	n/a	n/a	0	0	0
2955832	WORD	wordpools/wasnorm_wordpool_576.txt	LTP391	ltpFR2	11	15	MACHINE	852	n/a	n/a	0	0	0
2958549	WORD	wordpools/wasnorm_wordpool_576.txt	LTP391	ltpFR2	11	15	HORNET	718	n/a	n/a	0	0	0
2961332	WORD	wordpools/wasnorm_wordpool_576.txt	LTP391	ltpFR2	11	15	GRAVEL	659	n/a	n/a	0	0	0
2963765	WORD	wordpools/wasnorm_wordpool_576.txt	LTP391	ltpFR2	11	15	MARSH	874	n/a	n/a	0	0	0
2966365	WORD	wordpools/wasnorm_wordpool_576.txt	LTP391	ltpFR2	11	15	PUDDING	1139	n/a	n/a	0	0	0
2969099	WORD	wordpools/wasnorm_wordpool_576.txt	LTP391	ltpFR2	11	15	FOOTBALL	591	n/a	n/a	0	0	0
2971849	WORD	wordpools/wasnorm_wordpool_576.txt	LTP391	ltpFR2	11	15	PENGUIN	1044	n/a	n/a	0	0	0
2974632	WORD	wordpools/wasnorm_wordpool_576.txt	LTP391	ltpFR2	11	15	COMET	353	n/a	n/a	0	0	0
2977115	WORD	wordpools/wasnorm_wordpool_576.txt	LTP391	ltpFR2	11	15	FRECKLE	602	n/a	n/a	0	0	0
2979548	WORD	wordpools/wasnorm_wordpool_576.txt	LTP391	ltpFR2	11	15	BREAST	171	n/a	n/a	0	0	0
2982183	WORD	wordpools/wasnorm_wordpool_576.txt	LTP391	ltpFR2	11	15	UMPIRE	1535	n/a	n/a	0	0	0
2984848	WORD	wordpools/wasnorm_wordpool_576.txt	LTP391	ltpFR2	11	15	QUEEN	1149	n/a	n/a	0	0	0
2987282	WORD	wordpools/wasnorm_wordpool_576.txt	LTP391	ltpFR2	11	15	HAND	683	n/a	n/a	0	0	0
2989782	WORD	wordpools/wasnorm_wordpool_576.txt	LTP391	ltpFR2	11	15	NAPKIN	937	n/a	n/a	0	0	0
2992548	WORD	wordpools/wasnorm_wordpool_576.txt	LTP391	ltpFR2	11	15	MAILBOX	857	n/a	n/a	0	0	0
2995266	WORD	wordpools/wasnorm_wordpool_576.txt	LTP391	ltpFR2	11	15	STAMP	1370	n/a	n/a	0	0	0
2997965	WORD	wordpools/wasnorm_wordpool_576.txt	LTP391	ltpFR2	11	15	CABBAGE	210	n/a	n/a	0	0	0
3000648	WORD	wordpools/wasnorm_wordpool_576.txt	LTP391	ltpFR2	11	15	TURNIP	1521	n/a	n/a	0	0	0
3003266	WORD	wordpools/wasnorm_wordpool_576.txt	LTP391	ltpFR2	11	15	PERCH	1048	n/a	n/a	0	0	0
3006048	WORD	wordpools/wasnorm_wordpool_576.txt	LTP391	ltpFR2	11	15	ANKLE	24	n/a	n/a	0	0	0
3008581	WORD	wordpools/wasnorm_wordpool_576.txt	LTP391	ltpFR2	11	15	WOMAN	1620	n/a	n/a	0	0	0
3011249	WORD	wordpools/wasnorm_wordpool_576.txt	LTP391	ltpFR2	11	15	LIGHTNING	820	n/a	n/a	0	0	0
3012865	START	n/a	LTP391	ltpFR2	11	n/a	n/a	n/a	23	n/a	n/a	n/a	n/a
3013866	DISTRACTOR	n/a	LTP391	ltpFR2	11	15	n/a	n/a	n/a	n/a	0	0	0
3036865	STOP	n/a	LTP391	ltpFR2	11	n/a	n/a	n/a	23	n/a	n/a	n/a	n/a
3038781	REC_START	n/a	LTP391	ltpFR2	11	15	n/a	n/a	n/a	n/a	0	0	0
3113781	REC_WORD_VV	wordpools/wasnorm_wordpool_576.txt	LTP391	ltpFR2	11	15	<>	-1	n/a	n/a	0	0	0
3129247	DISTRACTOR	n/a	LTP391	ltpFR2	11	16	n/a	n/a	n/a	n/a	0	0	0
3129247	START	n/a	LTP391	ltpFR2	11	n/a	n/a	n/a	24	n/a	n/a	n/a	n/a
3153246	STOP	n/a	LTP391	ltpFR2	11	n/a	n/a	n/a	24	n/a	n/a	n/a	n/a
3154295	WORD	wordpools/wasnorm_wordpool_576.txt	LTP391	ltpFR2	11	16	AUTHOR	61	n/a	n/a	0	0	0
3157029	WORD	wordpools/wasnorm_wordpool_576.txt	LTP391	ltpFR2	11	16	MILK	895	n/a	n/a	0	0	0
3159695	WORD	wordpools/wasnorm_wordpool_576.txt	LTP391	ltpFR2	11	16	BANQUET	86	n/a	n/a	0	0	0
3162362	WORD	wordpools/wasnorm_wordpool_576.txt	LTP391	ltpFR2	11	16	POET	1095	n/a	n/a	0	0	0
3164995	WORD	wordpools/wasnorm_wordpool_576.txt	LTP391	ltpFR2	11	16	HEART	697	n/a	n/a	0	0	0
3167812	WORD	wordpools/wasnorm_wordpool_576.txt	LTP391	ltpFR2	11	16	ULCER	1533	n/a	n/a	0	0	0
3170512	WORD	wordpools/wasnorm_wordpool_576.txt	LTP391	ltpFR2	11	16	FLAG	573	n/a	n/a	0	0	0
3172962	WORD	wordpools/wasnorm_wordpool_576.txt	LTP391	ltpFR2	11	16	BUNNY	198	n/a	n/a	0	0	0
3175595	WORD	wordpools/wasnorm_wordpool_576.txt	LTP391	ltpFR2	11	16	OYSTER	995	n/a	n/a	0	0	0
3178395	WORD	wordpools/wasnorm_wordpool_576.txt	LTP391	ltpFR2	11	16	SEAFOOD	1260	n/a	n/a	0	0	0
3181212	WORD	wordpools/wasnorm_wordpool_576.txt	LTP391	ltpFR2	11	16	VELVET	1555	n/a	n/a	0	0	0
3183645	WORD	wordpools/wasnorm_wordpool_576.txt	LTP391	ltpFR2	11	16	SCOTCH	1251	n/a	n/a	0	0	0
3186378	WORD	wordpools/wasnorm_wordpool_576.txt	LTP391	ltpFR2	11	16	WINDOW	1611	n/a	n/a	0	0	0
3189061	WORD	wordpools/wasnorm_wordpool_576.txt	LTP391	ltpFR2	11	16	BOUQUET	157	n/a	n/a	0	0	0
3191695	WORD	wordpools/wasnorm_wordpool_576.txt	LTP391	ltpFR2	11	16	POPCORN	1104	n/a	n/a	0	0	0
3194145	WORD	wordpools/wasnorm_wordpool_576.txt	LTP391	ltpFR2	11	16	SUNSET	1408	n/a	n/a	0	0	0
3196645	WORD	wordpools/wasnorm_wordpool_576.txt	LTP391	ltpFR2	11	16	COLONEL	348	n/a	n/a	0	0	0
3199229	WORD	wordpools/wasnorm_wordpool_576.txt	LTP391	ltpFR2	11	16	GIRL	637	n/a	n/a	0	0	0
3201744	WORD	wordpools/wasnorm_wordpool_576.txt	LTP391	ltpFR2	11	16	CHAMPAGNE	278	n/a	n/a	0	0	0
3204361	WORD	wordpools/wasnorm_wordpool_576.txt	LTP391	ltpFR2	11	16	BRANDY	169	n/a	n/a	0	0	0
3207111	WORD	wordpools/wasnorm_wordpool_576.txt	LTP391	ltpFR2	11	16	CITRUS	313	n/a	n/a	0	0	0
3209894	WORD	wordpools/wasnorm_wordpool_576.txt	LTP391	ltpFR2	11	16	MUFFIN	929	n/a	n/a	0	0	0
3212728	WORD	wordpools/wasnorm_wordpool_576.txt	LTP391	ltpFR2	11	16	COUSIN	392	n/a	n/a	0	0	0
3215444	WORD	wordpools/wasnorm_wordpool_576.txt	LTP391	ltpFR2	11	16	LUNCH	849	n/a	n/a	0	0	0
3217061	START	n/a	LTP391	ltpFR2	11	n/a	n/a	n/a	25	n/a	n/a	n/a	n/a
3218055	DISTRACTOR	n/a	LTP391	ltpFR2	11	16	n/a	n/a	n/a	n/a	0	0	0
3241061	STOP	n/a	LTP391	ltpFR2	11	n/a	n/a	n/a	25	n/a	n/a	n/a	n/a
3242845	REC_START	n/a	LTP391	ltpFR2	11	16	n/a	n/a	n/a	n/a	0	0	0
3317845	REC_WORD_VV	wordpools/wasnorm_wordpool_576.txt	LTP391	ltpFR2	11	16	<>	-1	n/a	n/a	0	0	0
3319392	REST_REWET	n/a	LTP391	ltpFR2	11	16	n/a	n/a	n/a	n/a	0	0	0
3468889	DISTRACTOR	n/a	LTP391	ltpFR2	11	17	n/a	n/a	n/a	n/a	0	0	0
3468889	START	n/a	LTP391	ltpFR2	11	n/a	n/a	n/a	26	n/a	n/a	n/a	n/a
3468906	PROB	n/a	LTP391	ltpFR2	11	n/a	n/a	n/a	26	14	4	2	8
3472306	PROB	n/a	LTP391	ltpFR2	11	n/a	n/a	n/a	26	15	1	5	9
3473723	PROB	n/a	LTP391	ltpFR2	11	n/a	n/a	n/a	26	13	3	7	3
3475122	PROB	n/a	LTP391	ltpFR2	11	n/a	n/a	n/a	26	18	7	7	4
3476522	PROB	n/a	LTP391	ltpFR2	11	n/a	n/a	n/a	26	11	2	4	5
3478022	PROB	n/a	LTP391	ltpFR2	11	n/a	n/a	n/a	26	18	9	1	8
3479306	PROB	n/a	LTP391	ltpFR2	11	n/a	n/a	n/a	26	10	1	2	7
3480739	PROB	n/a	LTP391	ltpFR2	11	n/a	n/a	n/a	26	20	6	7	7
3482572	PROB	n/a	LTP391	ltpFR2	11	n/a	n/a	n/a	26	16	2	7	7
3484472	PROB	n/a	LTP391	ltpFR2	11	n/a	n/a	n/a	26	15	3	3	9
3485806	PROB	n/a	LTP391	ltpFR2	11	n/a	n/a	n/a	26	13	4	2	7
3488207	PROB	n/a	LTP391	ltpFR2	11	n/a	n/a	n/a	26	24	8	9	7
3492888	STOP	n/a	LTP391	ltpFR2	11	n/a	n/a	n/a	26	n/a	n/a	n/a	n/a
3494022	WORD	wordpools/wasnorm_wordpool_576.txt	LTP391	ltpFR2	11	17	PLUTO	1092	n/a	n/a	0	0	0
3496772	WORD	wordpools/wasnorm_wordpool_576.txt	LTP391	ltpFR2	11	17	HOUND	724	n/a	n/a	0	0	0
3499206	WORD	wordpools/wasnorm_wordpool_576.txt	LTP391	ltpFR2	11	17	CURTAIN	427	n/a	n/a	0	0	0
3501705	WORD	wordpools/wasnorm_wordpool_576.txt	LTP391	ltpFR2	11	17	PASTRY	1022	n/a	n/a	0	0	0
3504206	WORD	wordpools/wasnorm_wordpool_576.txt	LTP391	ltpFR2	11	17	DRESSER	496	n/a	n/a	0	0	0
3506872	WORD	wordpools/wasnorm_wordpool_576.txt	LTP391	ltpFR2	11	17	PATROL	1027	n/a	n/a	0	0	0
3509588	WORD	wordpools/wasnorm_wordpool_576.txt	LTP391	ltpFR2	11	17	THREAD	1460	n/a	n/a	0	0	0
3512322	WORD	wordpools/wasnorm_wordpool_576.txt	LTP391	ltpFR2	11	17	AIRPLANE	12	n/a	n/a	0	0	0
3515088	WORD	wordpools/wasnorm_wordpool_576.txt	LTP391	ltpFR2	11	17	SUBWAY	1400	n/a	n/a	0	0	0
3517688	WORD	wordpools/wasnorm_wordpool_576.txt	LTP391	ltpFR2	11	17	BADGE	68	n/a	n/a	0	0	0
3520455	WORD	wordpools/wasnorm_wordpool_576.txt	LTP391	ltpFR2	11	17	BASEMENT	94	n/a	n/a	0	0	0
3523206	WORD	wordpools/wasnorm_wordpool_576.txt	LTP391	ltpFR2	11	17	LUMBER	848	n/a	n/a	0	0	0
3525921	WORD	wordpools/wasnorm_wordpool_576.txt	LTP391	ltpFR2	11	17	LAKE	796	n/a	n/a	0	0	0
3528638	WORD	wordpools/wasnorm_wordpool_576.txt	LTP391	ltpFR2	11	17	BATHTUB	100	n/a	n/a	0	0	0
3531239	WORD	wordpools/wasnorm_wordpool_576.txt	LTP391	ltpFR2	11	17	HAWK	692	n/a	n/a	0	0	0
3534055	WORD	wordpools/wasnorm_wordpool_576.txt	LTP391	ltpFR2	11	17	REPORT	1184	n/a	n/a	0	0	0
3536788	WORD	wordpools/wasnorm_wordpool_576.txt	LTP391	ltpFR2	11	17	SUSPECT	1415	n/a	n/a	0	0	0
3539404	WORD	wordpools/wasnorm_wordpool_576.txt	LTP391	ltpFR2	11	17	CONVICT	371	n/a	n/a	0	0	0
3542222	WORD	wordpools/wasnorm_wordpool_576.txt	LTP391	ltpFR2	11	17	BRANCH	168	n/a	n/a	0	0	0
3544938	WORD	wordpools/wasnorm_wordpool_576.txt	LTP391	ltpFR2	11	17	TROMBONE	1508	n/a	n/a	0	0	0
3547754	WORD	wordpools/wasnorm_wordpool_576.txt	LTP391	ltpFR2	11	17	EXPERT	543	n/a	n/a	0	0	0
3550471	WORD	wordpools/wasnorm_wordpool_576.txt	LTP391	ltpFR2	11	17	SPOUSE	1358	n/a	n/a	0	0	0
3553004	WORD	wordpools/wasnorm_wordpool_576.txt	LTP391	ltpFR2	11	17	GANGSTER	620	n/a	n/a	0	0	0
3555804	WORD	wordpools/wasnorm_wordpool_576.txt	LTP391	ltpFR2	11	17	KETCHUP	771	n/a	n/a	0	0	0
3557421	START	n/a	LTP391	ltpFR2	11	n/a	n/a	n/a	27	n/a	n/a	n/a	n/a
3558570	DISTRACTOR	n/a	LTP391	ltpFR2	11	17	n/a	n/a	n/a	n/a	0	0	0
3558587	PROB	n/a	LTP391	ltpFR2	11	n/a	n/a	n/a	27	7	1	2	4
3560587	PROB	n/a	LTP391	ltpFR2	11	n/a	n/a	n/a	27	5	1	3	1
3562021	PROB	n/a	LTP391	ltpFR2	11	n/a	n/a	n/a	27	13	9	1	3
3564087	PROB	n/a	LTP391	ltpFR2	11	n/a	n/a	n/a	27	14	7	2	5
3565704	PROB	n/a	LTP391	ltpFR2	11	n/a	n/a	n/a	27	14	1	5	8
3567255	PROB	n/a	LTP391	ltpFR2	11	n/a	n/a	n/a	27	23	8	8	7
3569571	PROB	n/a	LTP391	ltpFR2	11	n/a	n/a	n/a	27	14	9	4	1
3571255	PROB	n/a	LTP391	ltpFR2	11	n/a	n/a	n/a	27	15	7	3	5
3573654	PROB	n/a	LTP391	ltpFR2	11	n/a	n/a	n/a	27	16	9	6	1
3575170	PROB	n/a	LTP391	ltpFR2	11	n/a	n/a	n/a	27	15	6	5	4
3576970	PROB	n/a	LTP391	ltpFR2	11	n/a	n/a	n/a	27	10	1	5	4
3578404	PROB	n/a	LTP391	ltpFR2	11	n/a	n/a	n/a	27	18	5	6	7
3580083	STOP	n/a	LTP391	ltpFR2	11	n/a	n/a	n/a	27	n/a	n/a	n/a	n/a
3583238	REC_START	n/a	LTP391	ltpFR2	11	17	n/a	n/a	n/a	n/a	0	0	0
3583729	REC_WORD	wordpools/wasnorm_wordpool_576.txt	LTP391	ltpFR2	11	17	HOUND	724	n/a	n/a	0	0	0
3584257	REC_WORD	wordpools/wasnorm_wordpool_576.txt	LTP391	ltpFR2	11	17	HAWK	692	n/a	n/a	0	0	0
3584810	REC_WORD	wordpools/wasnorm_wordpool_576.txt	LTP391	ltpFR2	11	17	PLUTO	1092	n/a	n/a	0	0	0
3586129	REC_WORD	wordpools/wasnorm_wordpool_576.txt	LTP391	ltpFR2	11	17	KETCHUP	771	n/a	n/a	0	0	0
3588077	REC_WORD	wordpools/wasnorm_wordpool_576.txt	LTP391	ltpFR2	11	17	PATROL	1027	n/a	n/a	0	0	0
3590486	REC_WORD	wordpools/wasnorm_wordpool_576.txt	LTP391	ltpFR2	11	17	BADGE	68	n/a	n/a	0	0	0
3592304	REC_WORD	wordpools/wasnorm_wordpool_576.txt	LTP391	ltpFR2	11	17	SUSPECT	1415	n/a	n/a	0	0	0
3592935	REC_WORD	wordpools/wasnorm_wordpool_576.txt	LTP391	ltpFR2	11	17	REPORT	1184	n/a	n/a	0	0	0
3594421	REC_WORD	wordpools/wasnorm_wordpool_576.txt	LTP391	ltpFR2	11	17	SPOUSE	1358	n/a	n/a	0	0	0
3595276	REC_WORD	wordpools/wasnorm_wordpool_576.txt	LTP391	ltpFR2	11	17	GANGSTER	620	n/a	n/a	0	0	0
3622661	REC_WORD	wordpools/wasnorm_wordpool_576.txt	LTP391	ltpFR2	11	17	DRESSER	496	n/a	n/a	0	0	0
3623215	REC_WORD	wordpools/wasnorm_wordpool_576.txt	LTP391	ltpFR2	11	17	THREAD	1460	n/a	n/a	0	0	0
3673702	WORD	wordpools/wasnorm_wordpool_576.txt	LTP391	ltpFR2	11	18	DRUG	501	n/a	n/a	0	0	0
3676168	WORD	wordpools/wasnorm_wordpool_576.txt	LTP391	ltpFR2	11	18	ARMY	39	n/a	n/a	0	0	0
3678785	WORD	wordpools/wasnorm_wordpool_576.txt	LTP391	ltpFR2	11	18	DIVER	476	n/a	n/a	0	0	0
3681285	WORD	wordpools/wasnorm_wordpool_576.txt	LTP391	ltpFR2	11	18	QUARTER	1148	n/a	n/a	0	0	0
3683768	WORD	wordpools/wasnorm_wordpool_576.txt	LTP391	ltpFR2	11	18	VENUS	1557	n/a	n/a	0	0	0
3686435	WORD	wordpools/wasnorm_wordpool_576.txt	LTP391	ltpFR2	11	18	GLOVE	642	n/a	n/a	0	0	0
3689151	WORD	wordpools/wasnorm_wordpool_576.txt	LTP391	ltpFR2	11	18	COIN	343	n/a	n/a	0	0	0
3691668	WORD	wordpools/wasnorm_wordpool_576.txt	LTP391	ltpFR2	11	18	LODGE	839	n/a	n/a	0	0	0
3694269	WORD	wordpools/wasnorm_wordpool_576.txt	LTP391	ltpFR2	11	18	DORM	488	n/a	n/a	0	0	0
3697068	WORD	wordpools/wasnorm_wordpool_576.txt	LTP391	ltpFR2	11	18	LAVA	804	n/a	n/a	0	0	0
3699568	WORD	wordpools/wasnorm_wordpool_576.txt	LTP391	ltpFR2	11	18	INMATE	738	n/a	n/a	0	0	0
3702269	WORD	wordpools/wasnorm_wordpool_576.txt	LTP391	ltpFR2	11	18	PADDLE	1000	n/a	n/a	0	0	0
3705051	WORD	wordpools/wasnorm_wordpool_576.txt	LTP391	ltpFR2	11	18	LIVER	833	n/a	n/a	0	0	0
3707868	WORD	wordpools/wasnorm_wordpool_576.txt	LTP391	ltpFR2	11	18	KIDNEY	776	n/a	n/a	0	0	0
3710568	WORD	wordpools/wasnorm_wordpool_576.txt	LTP391	ltpFR2	11	18	POISON	1096	n/a	n/a	0	0	0
3713351	WORD	wordpools/wasnorm_wordpool_576.txt	LTP391	ltpFR2	11	18	PIGEON	1065	n/a	n/a	0	0	0
3716034	WORD	wordpools/wasnorm_wordpool_576.txt	LTP391	ltpFR2	11	18	COUNTRY	388	n/a	n/a	0	0	0
3718534	WORD	wordpools/wasnorm_wordpool_576.txt	LTP391	ltpFR2	11	18	MARS	873	n/a	n/a	0	0	0
3721202	WORD	wordpools/wasnorm_wordpool_576.txt	LTP391	ltpFR2	11	18	QUAIL	1147	n/a	n/a	0	0	0
3723884	WORD	wordpools/wasnorm_wordpool_576.txt	LTP391	ltpFR2	11	18	GAZELLE	628	n/a	n/a	0	0	0
3726367	WORD	wordpools/wasnorm_wordpool_576.txt	LTP391	ltpFR2	11	18	FRUIT	610	n/a	n/a	0	0	0
3729084	WORD	wordpools/wasnorm_wordpool_576.txt	LTP391	ltpFR2	11	18	SWAMP	1416	n/a	n/a	0	0	0
3731851	WORD	wordpools/wasnorm_wordpool_576.txt	LTP391	ltpFR2	11	18	DUST	508	n/a	n/a	0	0	0
3734517	WORD	wordpools/wasnorm_wordpool_576.txt	LTP391	ltpFR2	11	18	XEROX	1628	n/a	n/a	0	0	0
3736134	START	n/a	LTP391	ltpFR2	11	n/a	n/a	n/a	28	n/a	n/a	n/a	n/a
3736991	DISTRACTOR	n/a	LTP391	ltpFR2	11	18	n/a	n/a	n/a	n/a	0	0	0
3737000	PROB	n/a	LTP391	ltpFR2	11	n/a	n/a	n/a	28	17	6	4	7
3739201	PROB	n/a	LTP391	ltpFR2	11	n/a	n/a	n/a	28	20	6	9	5
3740667	PROB	n/a	LTP391	ltpFR2	11	n/a	n/a	n/a	28	5	1	1	3
3741567	PROB	n/a	LTP391	ltpFR2	11	n/a	n/a	n/a	28	18	8	2	8
3743517	PROB	n/a	LTP391	ltpFR2	11	n/a	n/a	n/a	28	23	6	9	8
3746734	PROB	n/a	LTP391	ltpFR2	11	n/a	n/a	n/a	28	19	7	8	4
3749067	PROB	n/a	LTP391	ltpFR2	11	n/a	n/a	n/a	28	18	9	4	5
3750517	PROB	n/a	LTP391	ltpFR2	11	n/a	n/a	n/a	28	13	2	9	2
3752150	PROB	n/a	LTP391	ltpFR2	11	n/a	n/a	n/a	28	8	1	1	6
3753235	PROB	n/a	LTP391	ltpFR2	11	n/a	n/a	n/a	28	18	1	9	8
3754700	PROB	n/a	LTP391	ltpFR2	11	n/a	n/a	n/a	28	23	8	8	9
3757367	PROB	n/a	LTP391	ltpFR2	11	n/a	n/a	n/a	28	13	4	2	7
3759752	STOP	n/a	LTP391	ltpFR2	11	n/a	n/a	n/a	28	n/a	n/a	n/a	n/a
3762034	REC_START	n/a	LTP391	ltpFR2	11	18	n/a	n/a	n/a	n/a	0	0	0
3762547	REC_WORD	wordpools/wasnorm_wordpool_576.txt	LTP391	ltpFR2	11	18	GAZELLE	628	n/a	n/a	0	0	0
3763229	REC_WORD	wordpools/wasnorm_wordpool_576.txt	LTP391	ltpFR2	11	18	DRUG	501	n/a	n/a	0	0	0
3764209	REC_WORD	wordpools/wasnorm_wordpool_576.txt	LTP391	ltpFR2	11	18	ARMY	39	n/a	n/a	0	0	0
3764769	REC_WORD	wordpools/wasnorm_wordpool_576.txt	LTP391	ltpFR2	11	18	QUARTER	1148	n/a	n/a	0	0	0
3765608	REC_WORD	wordpools/wasnorm_wordpool_576.txt	LTP391	ltpFR2	11	18	GLOVE	642	n/a	n/a	0	0	0
3766181	REC_WORD	wordpools/wasnorm_wordpool_576.txt	LTP391	ltpFR2	11	18	COIN	343	n/a	n/a	0	0	0
3766861	REC_WORD	wordpools/wasnorm_wordpool_576.txt	LTP391	ltpFR2	11	18	DIVER	476	n/a	n/a	0	0	0
3768104	REC_WORD	wordpools/wasnorm_wordpool_576.txt	LTP391	ltpFR2	11	18	LAVA	804	n/a	n/a	0	0	0
3771891	REC_WORD	wordpools/wasnorm_wordpool_576.txt	LTP391	ltpFR2	11	18	COUNTRY	388	n/a	n/a	0	0	0
3775973	REC_WORD	wordpools/wasnorm_wordpool_576.txt	LTP391	ltpFR2	11	18	LODGE	839	n/a	n/a	0	0	0
3776642	REC_WORD	wordpools/wasnorm_wordpool_576.txt	LTP391	ltpFR2	11	18	DORM	488	n/a	n/a	0	0	0
3784537	REC_WORD	wordpools/wasnorm_wordpool_576.txt	LTP391	ltpFR2	11	18	MARS	873	n/a	n/a	0	0	0
3852482	DISTRACTOR	n/a	LTP391	ltpFR2	11	19	n/a	n/a	n/a	n/a	0	0	0
3852482	START	n/a	LTP391	ltpFR2	11	n/a	n/a	n/a	29	n/a	n/a	n/a	n/a
3852498	PROB	n/a	LTP391	ltpFR2	11	n/a	n/a	n/a	29	18	7	6	5
3855665	PROB	n/a	LTP391	ltpFR2	11	n/a	n/a	n/a	29	19	2	9	8
3857331	PROB	n/a	LTP391	ltpFR2	11	n/a	n/a	n/a	29	12	3	5	4
3860548	PROB	n/a	LTP391	ltpFR2	11	n/a	n/a	n/a	29	11	3	2	6
3862298	PROB	n/a	LTP391	ltpFR2	11	n/a	n/a	n/a	29	14	2	6	6
3863698	PROB	n/a	LTP391	ltpFR2	11	n/a	n/a	n/a	29	13	1	5	7
3865398	PROB	n/a	LTP391	ltpFR2	11	n/a	n/a	n/a	29	16	3	7	6
3867565	PROB	n/a	LTP391	ltpFR2	11	n/a	n/a	n/a	29	4	1	1	2
3868681	PROB	n/a	LTP391	ltpFR2	11	n/a	n/a	n/a	29	6	1	3	2
3869865	PROB	n/a	LTP391	ltpFR2	11	n/a	n/a	n/a	29	19	7	5	7
3871531	PROB	n/a	LTP391	ltpFR2	11	n/a	n/a	n/a	29	18	8	5	5
3873065	PROB	n/a	LTP391	ltpFR2	11	n/a	n/a	n/a	29	13	1	7	4
3874764	PROB	n/a	LTP391	ltpFR2	11	n/a	n/a	n/a	29	14	4	2	8
3876083	STOP	n/a	LTP391	ltpFR2	11	n/a	n/a	n/a	29	n/a	n/a	n/a	n/a
3877648	WORD	wordpools/wasnorm_wordpool_576.txt	LTP391	ltpFR2	11	19	DONOR	485	n/a	n/a	0	0	0
3880114	WORD	wordpools/wasnorm_wordpool_576.txt	LTP391	ltpFR2	11	19	STATUE	1374	n/a	n/a	0	0	0
3882931	WORD	wordpools/wasnorm_wordpool_576.txt	LTP391	ltpFR2	11	19	BULLET	194	n/a	n/a	0	0	0
3885448	WORD	wordpools/wasnorm_wordpool_576.txt	LTP391	ltpFR2	11	19	TWIG	1527	n/a	n/a	0	0	0
3887964	WORD	wordpools/wasnorm_wordpool_576.txt	LTP391	ltpFR2	11	19	GYMNAST	675	n/a	n/a	0	0	0
3890531	WORD	wordpools/wasnorm_wordpool_576.txt	LTP391	ltpFR2	11	19	JUGGLER	763	n/a	n/a	0	0	0
3893314	WORD	wordpools/wasnorm_wordpool_576.txt	LTP391	ltpFR2	11	19	SMOG	1330	n/a	n/a	0	0	0
3895931	WORD	wordpools/wasnorm_wordpool_576.txt	LTP391	ltpFR2	11	19	OZONE	996	n/a	n/a	0	0	0
3898514	WORD	wordpools/wasnorm_wordpool_576.txt	LTP391	ltpFR2	11	19	OUTLAW	989	n/a	n/a	0	0	0
3901232	WORD	wordpools/wasnorm_wordpool_576.txt	LTP391	ltpFR2	11	19	TOMBSTONE	1478	n/a	n/a	0	0	0
3903731	WORD	wordpools/wasnorm_wordpool_576.txt	LTP391	ltpFR2	11	19	SERVER	1272	n/a	n/a	0	0	0
3906231	WORD	wordpools/wasnorm_wordpool_576.txt	LTP391	ltpFR2	11	19	RACKET	1155	n/a	n/a	0	0	0
3908864	WORD	wordpools/wasnorm_wordpool_576.txt	LTP391	ltpFR2	11	19	SLIME	1327	n/a	n/a	0	0	0
3911431	WORD	wordpools/wasnorm_wordpool_576.txt	LTP391	ltpFR2	11	19	IDOL	733	n/a	n/a	0	0	0
3914080	WORD	wordpools/wasnorm_wordpool_576.txt	LTP391	ltpFR2	11	19	PROTON	1132	n/a	n/a	0	0	0
3916797	WORD	wordpools/wasnorm_wordpool_576.txt	LTP391	ltpFR2	11	19	ROBBER	1197	n/a	n/a	0	0	0
3919530	WORD	wordpools/wasnorm_wordpool_576.txt	LTP391	ltpFR2	11	19	SUITCASE	1403	n/a	n/a	0	0	0
3922130	WORD	wordpools/wasnorm_wordpool_576.txt	LTP391	ltpFR2	11	19	TOURIST	1488	n/a	n/a	0	0	0
3924713	WORD	wordpools/wasnorm_wordpool_576.txt	LTP391	ltpFR2	11	19	VALVE	1546	n/a	n/a	0	0	0
3927530	WORD	wordpools/wasnorm_wordpool_576.txt	LTP391	ltpFR2	11	19	SANDWICH	1232	n/a	n/a	0	0	0
3930013	WORD	wordpools/wasnorm_wordpool_576.txt	LTP391	ltpFR2	11	19	PUDDLE	1140	n/a	n/a	0	0	0
3932497	WORD	wordpools/wasnorm_wordpool_576.txt	LTP391	ltpFR2	11	19	BUBBLE	183	n/a	n/a	0	0	0
3935097	WORD	wordpools/wasnorm_wordpool_576.txt	LTP391	ltpFR2	11	19	TUBA	1515	n/a	n/a	0	0	0
3937880	WORD	wordpools/wasnorm_wordpool_576.txt	LTP391	ltpFR2	11	19	LIZARD	834	n/a	n/a	0	0	0
3939497	START	n/a	LTP391	ltpFR2	11	n/a	n/a	n/a	30	n/a	n/a	n/a	n/a
3940540	DISTRACTOR	n/a	LTP391	ltpFR2	11	19	n/a	n/a	n/a	n/a	0	0	0
3940547	PROB	n/a	LTP391	ltpFR2	11	n/a	n/a	n/a	30	20	3	8	9
3942613	PROB	n/a	LTP391	ltpFR2	11	n/a	n/a	n/a	30	12	2	8	2
3943880	PROB	n/a	LTP391	ltpFR2	11	n/a	n/a	n/a	30	19	7	4	8
3945713	PROB	n/a	LTP391	ltpFR2	11	n/a	n/a	n/a	30	13	3	7	3
3947296	PROB	n/a	LTP391	ltpFR2	11	n/a	n/a	n/a	30	13	7	2	4
3948596	PROB	n/a	LTP391	ltpFR2	11	n/a	n/a	n/a	30	11	5	3	3
3950030	PROB	n/a	LTP391	ltpFR2	11	n/a	n/a	n/a	30	10	1	5	4
3951530	PROB	n/a	LTP391	ltpFR2	11	n/a	n/a	n/a	30	11	8	1	2
3954180	PROB	n/a	LTP391	ltpFR2	11	n/a	n/a	n/a	30	24	6	9	9
3956013	PROB	n/a	LTP391	ltpFR2	11	n/a	n/a	n/a	30	20	8	6	6
3958096	PROB	n/a	LTP391	ltpFR2	11	n/a	n/a	n/a	30	15	4	7	4
3960080	PROB	n/a	LTP391	ltpFR2	11	n/a	n/a	n/a	30	15	3	3	8
3961329	PROB	n/a	LTP391	ltpFR2	11	n/a	n/a	n/a	30	10	1	8	1
3962741	STOP	n/a	LTP391	ltpFR2	11	n/a	n/a	n/a	30	n/a	n/a	n/a	n/a
3965264	REC_START	n/a	LTP391	ltpFR2	11	19	n/a	n/a	n/a	n/a	0	0	0
3965693	REC_WORD	wordpools/wasnorm_wordpool_576.txt	LTP391	ltpFR2	11	19	LIZARD	834	n/a	n/a	0	0	0
3966170	REC_WORD	wordpools/wasnorm_wordpool_576.txt	LTP391	ltpFR2	11	19	SLIME	1327	n/a	n/a	0	0	0
3966779	REC_WORD	wordpools/wasnorm_wordpool_576.txt	LTP391	ltpFR2	11	19	PUDDLE	1140	n/a	n/a	0	0	0
3967331	REC_WORD	wordpools/wasnorm_wordpool_576.txt	LTP391	ltpFR2	11	19	BUBBLE	183	n/a	n/a	0	0	0
3968794	REC_WORD	wordpools/wasnorm_wordpool_576.txt	LTP391	ltpFR2	11	19	DONOR	485	n/a	n/a	0	0	0
3969377	REC_WORD	wordpools/wasnorm_wordpool_576.txt	LTP391	ltpFR2	11	19	BULLET	194	n/a	n/a	0	0	0
3969915	REC_WORD	wordpools/wasnorm_wordpool_576.txt	LTP391	ltpFR2	11	19	OUTLAW	989	n/a	n/a	0	0	0
3970668	REC_WORD	wordpools/wasnorm_wordpool_576.txt	LTP391	ltpFR2	11	19	ROBBER	1197	n/a	n/a	0	0	0
3974233	REC_WORD	wordpools/wasnorm_wordpool_576.txt	LTP391	ltpFR2	11	19	TOMBSTONE	1478	n/a	n/a	0	0	0
3974979	REC_WORD	wordpools/wasnorm_wordpool_576.txt	LTP391	ltpFR2	11	19	TUBA	1515	n/a	n/a	0	0	0
3978378	REC_WORD	wordpools/wasnorm_wordpool_576.txt	LTP391	ltpFR2	11	19	SERVER	1272	n/a	n/a	0	0	0
3978983	REC_WORD	wordpools/wasnorm_wordpool_576.txt	LTP391	ltpFR2	11	19	SANDWICH	1232	n/a	n/a	0	0	0
3979679	REC_WORD	wordpools/wasnorm_wordpool_576.txt	LTP391	ltpFR2	11	19	TOURIST	1488	n/a	n/a	0	0	0
3980724	REC_WORD	wordpools/wasnorm_wordpool_576.txt	LTP391	ltpFR2	11	19	LUGGAGE	847	n/a	n/a	0	0	0
4055728	WORD	wordpools/wasnorm_wordpool_576.txt	LTP391	ltpFR2	11	20	MOTOR	922	n/a	n/a	0	0	0
4058229	WORD	wordpools/wasnorm_wordpool_576.txt	LTP391	ltpFR2	11	20	ISLAND	745	n/a	n/a	0	0	0
4060877	WORD	wordpools/wasnorm_wordpool_576.txt	LTP391	ltpFR2	11	20	LOFT	840	n/a	n/a	0	0	0
4063344	WORD	wordpools/wasnorm_wordpool_576.txt	LTP391	ltpFR2	11	20	TABLE	1426	n/a	n/a	0	0	0
4065978	WORD	wordpools/wasnorm_wordpool_576.txt	LTP391	ltpFR2	11	20	BUCKET	184	n/a	n/a	0	0	0
4068611	WORD	wordpools/wasnorm_wordpool_576.txt	LTP391	ltpFR2	11	20	BOARD	143	n/a	n/a	0	0	0
4071361	WORD	wordpools/wasnorm_wordpool_576.txt	LTP391	ltpFR2	11	20	BLACKBOARD	133	n/a	n/a	0	0	0
4073794	WORD	wordpools/wasnorm_wordpool_576.txt	LTP391	ltpFR2	11	20	CRIB	407	n/a	n/a	0	0	0
4076561	WORD	wordpools/wasnorm_wordpool_576.txt	LTP391	ltpFR2	11	20	YACHT	1629	n/a	n/a	0	0	0
4079262	WORD	wordpools/wasnorm_wordpool_576.txt	LTP391	ltpFR2	11	20	TRANSPLANT	1496	n/a	n/a	0	0	0
4081911	WORD	wordpools/wasnorm_wordpool_576.txt	LTP391	ltpFR2	11	20	CASHEW	253	n/a	n/a	0	0	0
4084427	WORD	wordpools/wasnorm_wordpool_576.txt	LTP391	ltpFR2	11	20	HOSTESS	723	n/a	n/a	0	0	0
4086877	WORD	wordpools/wasnorm_wordpool_576.txt	LTP391	ltpFR2	11	20	COSTUME	383	n/a	n/a	0	0	0
4089610	WORD	wordpools/wasnorm_wordpool_576.txt	LTP391	ltpFR2	11	20	PANTHER	1009	n/a	n/a	0	0	0
4092327	WORD	wordpools/wasnorm_wordpool_576.txt	LTP391	ltpFR2	11	20	STONE	1385	n/a	n/a	0	0	0
4094844	WORD	wordpools/wasnorm_wordpool_576.txt	LTP391	ltpFR2	11	20	APRON	35	n/a	n/a	0	0	0
4097310	WORD	wordpools/wasnorm_wordpool_576.txt	LTP391	ltpFR2	11	20	MONEY	908	n/a	n/a	0	0	0
4099810	WORD	wordpools/wasnorm_wordpool_576.txt	LTP391	ltpFR2	11	20	INFANT	737	n/a	n/a	0	0	0
4102460	WORD	wordpools/wasnorm_wordpool_576.txt	LTP391	ltpFR2	11	20	HOOK	715	n/a	n/a	0	0	0
4105261	WORD	wordpools/wasnorm_wordpool_576.txt	LTP391	ltpFR2	11	20	COUCH	386	n/a	n/a	0	0	0
4107843	WORD	wordpools/wasnorm_wordpool_576.txt	LTP391	ltpFR2	11	20	WRENCH	1625	n/a	n/a	0	0	0
4110327	WORD	wordpools/wasnorm_wordpool_576.txt	LTP391	ltpFR2	11	20	POLICE	1098	n/a	n/a	0	0	0
4112993	WORD	wordpools/wasnorm_wordpool_576.txt	LTP391	ltpFR2	11	20	TWISTER	1530	n/a	n/a	0	0	0
4115627	WORD	wordpools/wasnorm_wordpool_576.txt	LTP391	ltpFR2	11	20	LAGOON	795	n/a	n/a	0	0	0
4117244	START	n/a	LTP391	ltpFR2	11	n/a	n/a	n/a	31	n/a	n/a	n/a	n/a
4118364	DISTRACTOR	n/a	LTP391	ltpFR2	11	20	n/a	n/a	n/a	n/a	0	0	0
4118376	PROB	n/a	LTP391	ltpFR2	11	n/a	n/a	n/a	31	18	9	2	7
4120543	PROB	n/a	LTP391	ltpFR2	11	n/a	n/a	n/a	31	14	1	6	7
4121843	PROB	n/a	LTP391	ltpFR2	11	n/a	n/a	n/a	31	15	9	2	4
4124060	PROB	n/a	LTP391	ltpFR2	11	n/a	n/a	n/a	31	21	8	9	4
4126026	PROB	n/a	LTP391	ltpFR2	11	n/a	n/a	n/a	31	24	9	6	9
4127793	PROB	n/a	LTP391	ltpFR2	11	n/a	n/a	n/a	31	17	5	6	6
4130610	PROB	n/a	LTP391	ltpFR2	11	n/a	n/a	n/a	31	20	7	9	4
4132443	PROB	n/a	LTP391	ltpFR2	11	n/a	n/a	n/a	31	13	5	1	7
4133776	PROB	n/a	LTP391	ltpFR2	11	n/a	n/a	n/a	31	15	7	6	2
4135993	PROB	n/a	LTP391	ltpFR2	11	n/a	n/a	n/a	31	16	9	5	2
4137709	PROB	n/a	LTP391	ltpFR2	11	n/a	n/a	n/a	31	15	1	8	6
4140259	STOP	n/a	LTP391	ltpFR2	11	n/a	n/a	n/a	31	n/a	n/a	n/a	n/a
4143144	REC_START	n/a	LTP391	ltpFR2	11	20	n/a	n/a	n/a	n/a	0	0	0
4144176	REC_WORD	wordpools/wasnorm_wordpool_576.txt	LTP391	ltpFR2	11	20	HOOK	715	n/a	n/a	0	0	0
4144708	REC_WORD	wordpools/wasnorm_wordpool_576.txt	LTP391	ltpFR2	11	20	WRENCH	1625	n/a	n/a	0	0	0
4145257	REC_WORD	wordpools/wasnorm_wordpool_576.txt	LTP391	ltpFR2	11	20	POLICE	1098	n/a	n/a	0	0	0
4145964	REC_WORD	wordpools/wasnorm_wordpool_576.txt	LTP391	ltpFR2	11	20	MONEY	908	n/a	n/a	0	0	0
4146541	REC_WORD	wordpools/wasnorm_wordpool_576.txt	LTP391	ltpFR2	11	20	YACHT	1629	n/a	n/a	0	0	0
4147180	REC_WORD	wordpools/wasnorm_wordpool_576.txt	LTP391	ltpFR2	11	20	ISLAND	745	n/a	n/a	0	0	0
4147738	REC_WORD	wordpools/wasnorm_wordpool_576.txt	LTP391	ltpFR2	11	20	LAGOON	795	n/a	n/a	0	0	0
4148956	REC_WORD	wordpools/wasnorm_wordpool_576.txt	LTP391	ltpFR2	11	20	CRIB	407	n/a	n/a	0	0	0
4149427	REC_WORD	wordpools/wasnorm_wordpool_576.txt	LTP391	ltpFR2	11	20	INFANT	737	n/a	n/a	0	0	0
4153149	REC_WORD	wordpools/wasnorm_wordpool_576.txt	LTP391	ltpFR2	11	20	TRANSPLANT	1496	n/a	n/a	0	0	0
4156058	REC_WORD	wordpools/wasnorm_wordpool_576.txt	LTP391	ltpFR2	11	20	TOMB	1477	n/a	n/a	0	0	0
4164405	REC_WORD	wordpools/wasnorm_wordpool_576.txt	LTP391	ltpFR2	11	20	BUCKET	184	n/a	n/a	0	0	0
4165073	REC_WORD	wordpools/wasnorm_wordpool_576.txt	LTP391	ltpFR2	11	20	LOFT	840	n/a	n/a	0	0	0
4165645	REC_WORD	wordpools/wasnorm_wordpool_576.txt	LTP391	ltpFR2	11	20	BOARD	143	n/a	n/a	0	0	0
4166159	REC_WORD	wordpools/wasnorm_wordpool_576.txt	LTP391	ltpFR2	11	20	BLACKBOARD	133	n/a	n/a	0	0	0
4233591	DISTRACTOR	n/a	LTP391	ltpFR2	11	21	n/a	n/a	n/a	n/a	0	0	0
4233591	START	n/a	LTP391	ltpFR2	11	n/a	n/a	n/a	32	n/a	n/a	n/a	n/a
4233608	PROB	n/a	LTP391	ltpFR2	11	n/a	n/a	n/a	32	18	3	6	9
4235124	PROB	n/a	LTP391	ltpFR2	11	n/a	n/a	n/a	32	10	4	5	1
4236491	PROB	n/a	LTP391	ltpFR2	11	n/a	n/a	n/a	32	19	6	8	5
4238508	PROB	n/a	LTP391	ltpFR2	11	n/a	n/a	n/a	32	11	6	3	2
4239824	PROB	n/a	LTP391	ltpFR2	11	n/a	n/a	n/a	32	21	6	9	6
4241324	PROB	n/a	LTP391	ltpFR2	11	n/a	n/a	n/a	32	18	2	7	9
4242758	PROB	n/a	LTP391	ltpFR2	11	n/a	n/a	n/a	32	13	6	4	3
4244259	PROB	n/a	LTP391	ltpFR2	11	n/a	n/a	n/a	32	20	4	9	7
4246242	PROB	n/a	LTP391	ltpFR2	11	n/a	n/a	n/a	32	14	1	9	4
4247874	PROB	n/a	LTP391	ltpFR2	11	n/a	n/a	n/a	32	16	6	2	8
4249924	PROB	n/a	LTP391	ltpFR2	11	n/a	n/a	n/a	32	16	9	1	6
4251225	PROB	n/a	LTP391	ltpFR2	11	n/a	n/a	n/a	32	9	3	1	5
4252924	PROB	n/a	LTP391	ltpFR2	11	n/a	n/a	n/a	32	16	2	5	9
4257591	STOP	n/a	LTP391	ltpFR2	11	n/a	n/a	n/a	32	n/a	n/a	n/a	n/a
4258707	WORD	wordpools/wasnorm_wordpool_576.txt	LTP391	ltpFR2	11	21	PISTOL	1075	n/a	n/a	0	0	0
4261275	WORD	wordpools/wasnorm_wordpool_576.txt	LTP391	ltpFR2	11	21	LADY	794	n/a	n/a	0	0	0
4263774	WORD	wordpools/wasnorm_wordpool_576.txt	LTP391	ltpFR2	11	21	TURTLE	1522	n/a	n/a	0	0	0
4266524	WORD	wordpools/wasnorm_wordpool_576.txt	LTP391	ltpFR2	11	21	HARP	689	n/a	n/a	0	0	0
4269208	WORD	wordpools/wasnorm_wordpool_576.txt	LTP391	ltpFR2	11	21	GUITAR	670	n/a	n/a	0	0	0
4271757	WORD	wordpools/wasnorm_wordpool_576.txt	LTP391	ltpFR2	11	21	RATTLE	1170	n/a	n/a	0	0	0
4274390	WORD	wordpools/wasnorm_wordpool_576.txt	LTP391	ltpFR2	11	21	SODA	1341	n/a	n/a	0	0	0
4277174	WORD	wordpools/wasnorm_wordpool_576.txt	LTP391	ltpFR2	11	21	FLUTE	585	n/a	n/a	0	0	0
4279607	WORD	wordpools/wasnorm_wordpool_576.txt	LTP391	ltpFR2	11	21	DAUGHTER	442	n/a	n/a	0	0	0
4282241	WORD	wordpools/wasnorm_wordpool_576.txt	LTP391	ltpFR2	11	21	MESSAGE	888	n/a	n/a	0	0	0
4284840	WORD	wordpools/wasnorm_wordpool_576.txt	LTP391	ltpFR2	11	21	CELLAR	267	n/a	n/a	0	0	0
4287573	WORD	wordpools/wasnorm_wordpool_576.txt	LTP391	ltpFR2	11	21	SPOON	1357	n/a	n/a	0	0	0
4290323	WORD	wordpools/wasnorm_wordpool_576.txt	LTP391	ltpFR2	11	21	MAILMAN	858	n/a	n/a	0	0	0
4292823	WORD	wordpools/wasnorm_wordpool_576.txt	LTP391	ltpFR2	11	21	CATTLE	261	n/a	n/a	0	0	0
4295607	WORD	wordpools/wasnorm_wordpool_576.txt	LTP391	ltpFR2	11	21	EGYPT	519	n/a	n/a	0	0	0
4298191	WORD	wordpools/wasnorm_wordpool_576.txt	LTP391	ltpFR2	11	21	VALLEY	1545	n/a	n/a	0	0	0
4300840	WORD	wordpools/wasnorm_wordpool_576.txt	LTP391	ltpFR2	11	21	SUMMIT	1405	n/a	n/a	0	0	0
4303540	WORD	wordpools/wasnorm_wordpool_576.txt	LTP391	ltpFR2	11	21	CYCLONE	431	n/a	n/a	0	0	0
4306006	WORD	wordpools/wasnorm_wordpool_576.txt	LTP391	ltpFR2	11	21	GOBLIN	645	n/a	n/a	0	0	0
4308673	WORD	wordpools/wasnorm_wordpool_576.txt	LTP391	ltpFR2	11	21	CREATURE	403	n/a	n/a	0	0	0
4311340	WORD	wordpools/wasnorm_wordpool_576.txt	LTP391	ltpFR2	11	21	PLAZA	1088	n/a	n/a	0	0	0
4314056	WORD	wordpools/wasnorm_wordpool_576.txt	LTP391	ltpFR2	11	21	MISTER	901	n/a	n/a	0	0	0
4316806	WORD	wordpools/wasnorm_wordpool_576.txt	LTP391	ltpFR2	11	21	COFFEE	341	n/a	n/a	0	0	0
4319339	WORD	wordpools/wasnorm_wordpool_576.txt	LTP391	ltpFR2	11	21	RUG	1215	n/a	n/a	0	0	0
4320956	START	n/a	LTP391	ltpFR2	11	n/a	n/a	n/a	33	n/a	n/a	n/a	n/a
4322121	DISTRACTOR	n/a	LTP391	ltpFR2	11	21	n/a	n/a	n/a	n/a	0	0	0
4322123	PROB	n/a	LTP391	ltpFR2	11	n/a	n/a	n/a	33	13	8	3	2
4324906	PROB	n/a	LTP391	ltpFR2	11	n/a	n/a	n/a	33	16	8	1	7
4326539	PROB	n/a	LTP391	ltpFR2	11	n/a	n/a	n/a	33	16	3	7	6
4328589	PROB	n/a	LTP391	ltpFR2	11	n/a	n/a	n/a	33	14	2	3	9
4329956	PROB	n/a	LTP391	ltpFR2	11	n/a	n/a	n/a	33	20	7	4	9
4331489	PROB	n/a	LTP391	ltpFR2	11	n/a	n/a	n/a	33	19	5	9	5
4332989	PROB	n/a	LTP391	ltpFR2	11	n/a	n/a	n/a	33	17	5	3	9
4334439	PROB	n/a	LTP391	ltpFR2	11	n/a	n/a	n/a	33	12	2	4	6
4335739	PROB	n/a	LTP391	ltpFR2	11	n/a	n/a	n/a	33	11	5	2	4
4337422	PROB	n/a	LTP391	ltpFR2	11	n/a	n/a	n/a	33	14	2	5	7
4339122	PROB	n/a	LTP391	ltpFR2	11	n/a	n/a	n/a	33	10	3	1	6
4340522	PROB	n/a	LTP391	ltpFR2	11	n/a	n/a	n/a	33	14	8	3	3
4341822	PROB	n/a	LTP391	ltpFR2	11	n/a	n/a	n/a	33	19	2	8	9
4343439	STOP	n/a	LTP391	ltpFR2	11	n/a	n/a	n/a	33	n/a	n/a	n/a	n/a
4346756	REC_START	n/a	LTP391	ltpFR2	11	21	n/a	n/a	n/a	n/a	0	0	0
4347232	REC_WORD	wordpools/wasnorm_wordpool_576.txt	LTP391	ltpFR2	11	21	RUG	1215	n/a	n/a	0	0	0
4347770	REC_WORD	wordpools/wasnorm_wordpool_576.txt	LTP391	ltpFR2	11	21	EGYPT	519	n/a	n/a	0	0	0
4348273	REC_WORD	wordpools/wasnorm_wordpool_576.txt	LTP391	ltpFR2	11	21	PLAZA	1088	n/a	n/a	0	0	0
4348897	REC_WORD	wordpools/wasnorm_wordpool_576.txt	LTP391	ltpFR2	11	21	MISTER	901	n/a	n/a	0	0	0
4349387	REC_WORD	wordpools/wasnorm_wordpool_576.txt	LTP391	ltpFR2	11	21	DAUGHTER	442	n/a	n/a	0	0	0
4350772	REC_WORD	wordpools/wasnorm_wordpool_576.txt	LTP391	ltpFR2	11	21	MESSAGE	888	n/a	n/a	0	0	0
4355741	REC_WORD	wordpools/wasnorm_wordpool_576.txt	LTP391	ltpFR2	11	21	RATTLE	1170	n/a	n/a	0	0	0
4356220	REC_WORD	wordpools/wasnorm_wordpool_576.txt	LTP391	ltpFR2	11	21	GUITAR	670	n/a	n/a	0	0	0
4356783	REC_WORD	wordpools/wasnorm_wordpool_576.txt	LTP391	ltpFR2	11	21	HARP	689	n/a	n/a	0	0	0
4361695	REC_WORD	wordpools/wasnorm_wordpool_576.txt	LTP391	ltpFR2	11	21	SPOON	1357	n/a	n/a	0	0	0
4367889	REC_WORD	wordpools/wasnorm_wordpool_576.txt	LTP391	ltpFR2	11	21	SUMMIT	1405	n/a	n/a	0	0	0
4368490	REC_WORD	wordpools/wasnorm_wordpool_576.txt	LTP391	ltpFR2	11	21	VALLEY	1545	n/a	n/a	0	0	0
4369112	REC_WORD	wordpools/wasnorm_wordpool_576.txt	LTP391	ltpFR2	11	21	CREATURE	403	n/a	n/a	0	0	0
4369715	REC_WORD	wordpools/wasnorm_wordpool_576.txt	LTP391	ltpFR2	11	21	GOBLIN	645	n/a	n/a	0	0	0
