onset	duration	trial_type	sample	stim_file	subject	experiment	session	trial	task	item_name	item_num	recog_conf	resp	color_b	color_g	color_r	case	font
600.792	n/a	SESS_START	300396	n/a	LTP101	ltpFR	0	n/a	n/a	n/a	n/a	n/a	n/a	n/a	n/a	n/a	n/a	n/a
655.884	n/a	WORD	327942	wordpools/wasnorm_wordpool.txt	LTP101	ltpFR	0	1	-1	LACE	792	n/a	-1	1	1.0	1.0	upper	../fonts/Verdana.ttf
660.034	n/a	WORD	330017	wordpools/wasnorm_wordpool.txt	LTP101	ltpFR	0	1	-1	TROUSERS	1510	n/a	-1	1	1.0	1.0	upper	../fonts/Verdana.ttf
663.942	n/a	WORD	331971	wordpools/wasnorm_wordpool.txt	LTP101	ltpFR	0	1	-1	COLOGNE	347	n/a	-1	1	1.0	1.0	upper	../fonts/Verdana.ttf
668.11	n/a	WORD	334055	wordpools/wasnorm_wordpool.txt	LTP101	ltpFR	0	1	-1	INCENSE	735	n/a	-1	1	1.0	1.0	upper	../fonts/Verdana.ttf
672.226	n/a	WORD	336113	wordpools/wasnorm_wordpool.txt	LTP101	ltpFR	0	1	-1	BISCUIT	130	n/a	-1	1	1.0	1.0	upper	../fonts/Verdana.ttf
676.342	n/a	WORD	338171	wordpools/wasnorm_wordpool.txt	LTP101	ltpFR	0	1	-1	DRESS	495	n/a	-1	1	1.0	1.0	upper	../fonts/Verdana.ttf
680.5	n/a	WORD	340250	wordpools/wasnorm_wordpool.txt	LTP101	ltpFR	0	1	-1	EMPLOYER	532	n/a	-1	1	1.0	1.0	upper	../fonts/Verdana.ttf
684.686	n/a	WORD	342343	wordpools/wasnorm_wordpool.txt	LTP101	ltpFR	0	1	-1	HAY	693	n/a	-1	1	1.0	1.0	upper	../fonts/Verdana.ttf
688.502	n/a	WORD	344251	wordpools/wasnorm_wordpool.txt	LTP101	ltpFR	0	1	-1	COLLAR	345	n/a	-1	1	1.0	1.0	upper	../fonts/Verdana.ttf
692.41	n/a	WORD	346205	wordpools/wasnorm_wordpool.txt	LTP101	ltpFR	0	1	-1	GRILL	661	n/a	-1	1	1.0	1.0	upper	../fonts/Verdana.ttf
696.568	n/a	WORD	348284	wordpools/wasnorm_wordpool.txt	LTP101	ltpFR	0	1	-1	BANK	83	n/a	-1	1	1.0	1.0	upper	../fonts/Verdana.ttf
700.568	n/a	WORD	350284	wordpools/wasnorm_wordpool.txt	LTP101	ltpFR	0	1	-1	EMPLOYEE	531	n/a	-1	1	1.0	1.0	upper	../fonts/Verdana.ttf
704.568	n/a	WORD	352284	wordpools/wasnorm_wordpool.txt	LTP101	ltpFR	0	1	-1	PATH	1023	n/a	-1	1	1.0	1.0	upper	../fonts/Verdana.ttf
708.526	n/a	WORD	354263	wordpools/wasnorm_wordpool.txt	LTP101	ltpFR	0	1	-1	TAR	1435	n/a	-1	1	1.0	1.0	upper	../fonts/Verdana.ttf
712.626	n/a	WORD	356313	wordpools/wasnorm_wordpool.txt	LTP101	ltpFR	0	1	-1	BARRACUDA	90	n/a	-1	1	1.0	1.0	upper	../fonts/Verdana.ttf
716.6	n/a	WORD	358300	wordpools/wasnorm_wordpool.txt	LTP101	ltpFR	0	1	-1	REEF	1177	n/a	-1	1	1.0	1.0	upper	../fonts/Verdana.ttf
722.276	n/a	REC_START	361138	n/a	LTP101	ltpFR	0	1	n/a	n/a	n/a	n/a	n/a	n/a	n/a	n/a	n/a	n/a
723.378	n/a	REC_WORD	361689	wordpools/wasnorm_wordpool.txt	LTP101	ltpFR	0	1	-1	REEF	1177	n/a	-1	n/a	n/a	n/a	n/a	n/a
724.078	n/a	REC_WORD	362039	wordpools/wasnorm_wordpool.txt	LTP101	ltpFR	0	1	-1	BARRACUDA	90	n/a	-1	n/a	n/a	n/a	n/a	n/a
725.244	n/a	REC_WORD	362622	wordpools/wasnorm_wordpool.txt	LTP101	ltpFR	0	1	-1	EMPLOYER	532	n/a	-1	n/a	n/a	n/a	n/a	n/a
726.222	n/a	REC_WORD	363111	wordpools/wasnorm_wordpool.txt	LTP101	ltpFR	0	1	-1	EMPLOYEE	531	n/a	-1	n/a	n/a	n/a	n/a	n/a
727.68	n/a	REC_WORD	363840	wordpools/wasnorm_wordpool.txt	LTP101	ltpFR	0	1	-1	HAY	693	n/a	-1	n/a	n/a	n/a	n/a	n/a
729.056	n/a	REC_WORD	364528	wordpools/wasnorm_wordpool.txt	LTP101	ltpFR	0	1	-1	PATH	1023	n/a	-1	n/a	n/a	n/a	n/a	n/a
730.372	n/a	REC_WORD	365186	wordpools/wasnorm_wordpool.txt	LTP101	ltpFR	0	1	-1	LACE	792	n/a	-1	n/a	n/a	n/a	n/a	n/a
731.39	n/a	REC_WORD	365695	wordpools/wasnorm_wordpool.txt	LTP101	ltpFR	0	1	-1	TROUSERS	1510	n/a	-1	n/a	n/a	n/a	n/a	n/a
732.602	n/a	REC_WORD	366301	wordpools/wasnorm_wordpool.txt	LTP101	ltpFR	0	1	-1	DRESS	495	n/a	-1	n/a	n/a	n/a	n/a	n/a
733.816	n/a	REC_WORD	366908	wordpools/wasnorm_wordpool.txt	LTP101	ltpFR	0	1	-1	BISCUIT	130	n/a	-1	n/a	n/a	n/a	n/a	n/a
735.152	n/a	REC_WORD	367576	wordpools/wasnorm_wordpool.txt	LTP101	ltpFR	0	1	-1	COLOGNE	347	n/a	-1	n/a	n/a	n/a	n/a	n/a
737.416	n/a	REC_WORD_VV	368708	wordpools/wasnorm_wordpool.txt	LTP101	ltpFR	0	1	n/a	<>	-1	n/a	n/a	n/a	n/a	n/a	n/a	n/a
747.15	n/a	REC_WORD	373575	wordpools/wasnorm_wordpool.txt	LTP101	ltpFR	0	1	-1	COLLAR	345	n/a	-1	n/a	n/a	n/a	n/a	n/a
752.394	n/a	REC_WORD	376197	wordpools/wasnorm_wordpool.txt	LTP101	ltpFR	0	1	-1	HAY	693	n/a	-1	n/a	n/a	n/a	n/a	n/a
754.768	n/a	REC_WORD	377384	wordpools/wasnorm_wordpool.txt	LTP101	ltpFR	0	1	-1	TAR	1435	n/a	-1	n/a	n/a	n/a	n/a	n/a
766.024	n/a	REC_WORD	383012	wordpools/wasnorm_wordpool.txt	LTP101	ltpFR	0	1	-1	BANK	83	n/a	-1	n/a	n/a	n/a	n/a	n/a
787.222	n/a	REC_WORD	393611	wordpools/wasnorm_wordpool.txt	LTP101	ltpFR	0	1	n/a	BRIEF	-1	n/a	n/a	n/a	n/a	n/a	n/a	n/a
804.906	n/a	WORD	402453	wordpools/wasnorm_wordpool.txt	LTP101	ltpFR	0	2	-1	TWIG	1527	n/a	-1	1	1.0	1.0	upper	../fonts/Verdana.ttf
808.906	n/a	WORD	404453	wordpools/wasnorm_wordpool.txt	LTP101	ltpFR	0	2	-1	COURSE	390	n/a	-1	1	1.0	1.0	upper	../fonts/Verdana.ttf
812.896	n/a	WORD	406448	wordpools/wasnorm_wordpool.txt	LTP101	ltpFR	0	2	-1	LIGHTNING	820	n/a	-1	1	1.0	1.0	upper	../fonts/Verdana.ttf
816.914	n/a	WORD	408457	wordpools/wasnorm_wordpool.txt	LTP101	ltpFR	0	2	-1	BROTHER	179	n/a	-1	1	1.0	1.0	upper	../fonts/Verdana.ttf
820.906	n/a	WORD	410453	wordpools/wasnorm_wordpool.txt	LTP101	ltpFR	0	2	-1	STAKE	1368	n/a	-1	1	1.0	1.0	upper	../fonts/Verdana.ttf
825.038	n/a	WORD	412519	wordpools/wasnorm_wordpool.txt	LTP101	ltpFR	0	2	-1	BOLT	146	n/a	-1	1	1.0	1.0	upper	../fonts/Verdana.ttf
829.088	n/a	WORD	414544	wordpools/wasnorm_wordpool.txt	LTP101	ltpFR	0	2	-1	BATHTUB	100	n/a	-1	1	1.0	1.0	upper	../fonts/Verdana.ttf
833.19	n/a	WORD	416595	wordpools/wasnorm_wordpool.txt	LTP101	ltpFR	0	2	-1	EMERALD	528	n/a	-1	1	1.0	1.0	upper	../fonts/Verdana.ttf
837.148	n/a	WORD	418574	wordpools/wasnorm_wordpool.txt	LTP101	ltpFR	0	2	-1	GAVEL	627	n/a	-1	1	1.0	1.0	upper	../fonts/Verdana.ttf
841.298	n/a	WORD	420649	wordpools/wasnorm_wordpool.txt	LTP101	ltpFR	0	2	-1	ATTORNEY	58	n/a	-1	1	1.0	1.0	upper	../fonts/Verdana.ttf
845.114	n/a	WORD	422557	wordpools/wasnorm_wordpool.txt	LTP101	ltpFR	0	2	-1	CLIFF	322	n/a	-1	1	1.0	1.0	upper	../fonts/Verdana.ttf
849.206	n/a	WORD	424603	wordpools/wasnorm_wordpool.txt	LTP101	ltpFR	0	2	-1	BRANCH	168	n/a	-1	1	1.0	1.0	upper	../fonts/Verdana.ttf
853.12	n/a	WORD	426560	wordpools/wasnorm_wordpool.txt	LTP101	ltpFR	0	2	-1	SCRIBBLE	1256	n/a	-1	1	1.0	1.0	upper	../fonts/Verdana.ttf
857.138	n/a	WORD	428569	wordpools/wasnorm_wordpool.txt	LTP101	ltpFR	0	2	-1	NEWSSTAND	949	n/a	-1	1	1.0	1.0	upper	../fonts/Verdana.ttf
861.206	n/a	WORD	430603	wordpools/wasnorm_wordpool.txt	LTP101	ltpFR	0	2	-1	BUTTON	207	n/a	-1	1	1.0	1.0	upper	../fonts/Verdana.ttf
865.096	n/a	WORD	432548	wordpools/wasnorm_wordpool.txt	LTP101	ltpFR	0	2	-1	JACKET	747	n/a	-1	1	1.0	1.0	upper	../fonts/Verdana.ttf
870.622	n/a	REC_START	435311	n/a	LTP101	ltpFR	0	2	n/a	n/a	n/a	n/a	n/a	n/a	n/a	n/a	n/a	n/a
872.0	n/a	REC_WORD	436000	wordpools/wasnorm_wordpool.txt	LTP101	ltpFR	0	2	-1	JACKET	747	n/a	-1	n/a	n/a	n/a	n/a	n/a
872.966	n/a	REC_WORD	436483	wordpools/wasnorm_wordpool.txt	LTP101	ltpFR	0	2	-1	BUTTON	207	n/a	-1	n/a	n/a	n/a	n/a	n/a
873.854	n/a	REC_WORD	436927	wordpools/wasnorm_wordpool.txt	LTP101	ltpFR	0	2	-1	NEWSSTAND	949	n/a	-1	n/a	n/a	n/a	n/a	n/a
877.452	n/a	REC_WORD	438726	wordpools/wasnorm_wordpool.txt	LTP101	ltpFR	0	2	-1	LIGHTNING	820	n/a	-1	n/a	n/a	n/a	n/a	n/a
879.07	n/a	REC_WORD	439535	wordpools/wasnorm_wordpool.txt	LTP101	ltpFR	0	2	-1	BOLT	146	n/a	-1	n/a	n/a	n/a	n/a	n/a
882.018	n/a	REC_WORD	441009	wordpools/wasnorm_wordpool.txt	LTP101	ltpFR	0	2	-1	TWIG	1527	n/a	-1	n/a	n/a	n/a	n/a	n/a
882.92	n/a	REC_WORD	441460	wordpools/wasnorm_wordpool.txt	LTP101	ltpFR	0	2	-1	BRANCH	168	n/a	-1	n/a	n/a	n/a	n/a	n/a
883.874	n/a	REC_WORD	441937	wordpools/wasnorm_wordpool.txt	LTP101	ltpFR	0	2	-1	CLIFF	322	n/a	-1	n/a	n/a	n/a	n/a	n/a
885.02	n/a	REC_WORD	442510	wordpools/wasnorm_wordpool.txt	LTP101	ltpFR	0	2	-1	ATTORNEY	58	n/a	-1	n/a	n/a	n/a	n/a	n/a
886.048	n/a	REC_WORD	443024	wordpools/wasnorm_wordpool.txt	LTP101	ltpFR	0	2	-1	GAVEL	627	n/a	-1	n/a	n/a	n/a	n/a	n/a
886.952	n/a	REC_WORD	443476	wordpools/wasnorm_wordpool.txt	LTP101	ltpFR	0	2	-1	EMERALD	528	n/a	-1	n/a	n/a	n/a	n/a	n/a
887.76	n/a	REC_WORD	443880	wordpools/wasnorm_wordpool.txt	LTP101	ltpFR	0	2	-1	BATHTUB	100	n/a	-1	n/a	n/a	n/a	n/a	n/a
890.404	n/a	REC_WORD	445202	wordpools/wasnorm_wordpool.txt	LTP101	ltpFR	0	2	-1	COURSE	390	n/a	-1	n/a	n/a	n/a	n/a	n/a
893.118	n/a	REC_WORD	446559	wordpools/wasnorm_wordpool.txt	LTP101	ltpFR	0	2	-1	BROTHER	179	n/a	-1	n/a	n/a	n/a	n/a	n/a
893.878	n/a	REC_WORD	446939	wordpools/wasnorm_wordpool.txt	LTP101	ltpFR	0	2	-1	STAKE	1368	n/a	-1	n/a	n/a	n/a	n/a	n/a
952.528	n/a	WORD	476264	wordpools/wasnorm_wordpool.txt	LTP101	ltpFR	0	3	-1	ICE	730	n/a	-1	1	1.0	1.0	upper	../fonts/Verdana.ttf
956.404	n/a	WORD	478202	wordpools/wasnorm_wordpool.txt	LTP101	ltpFR	0	3	-1	TRICYCLE	1506	n/a	-1	1	1.0	1.0	upper	../fonts/Verdana.ttf
960.32	n/a	WORD	480160	wordpools/wasnorm_wordpool.txt	LTP101	ltpFR	0	3	-1	CHIPMUNK	304	n/a	-1	1	1.0	1.0	upper	../fonts/Verdana.ttf
964.478	n/a	WORD	482239	wordpools/wasnorm_wordpool.txt	LTP101	ltpFR	0	3	-1	POOL	1103	n/a	-1	1	1.0	1.0	upper	../fonts/Verdana.ttf
968.502	n/a	WORD	484251	wordpools/wasnorm_wordpool.txt	LTP101	ltpFR	0	3	-1	CAPITAL	238	n/a	-1	1	1.0	1.0	upper	../fonts/Verdana.ttf
972.568	n/a	WORD	486284	wordpools/wasnorm_wordpool.txt	LTP101	ltpFR	0	3	-1	WOUND	1624	n/a	-1	1	1.0	1.0	upper	../fonts/Verdana.ttf
976.644	n/a	WORD	488322	wordpools/wasnorm_wordpool.txt	LTP101	ltpFR	0	3	-1	CAT	257	n/a	-1	1	1.0	1.0	upper	../fonts/Verdana.ttf
980.844	n/a	WORD	490422	wordpools/wasnorm_wordpool.txt	LTP101	ltpFR	0	3	-1	SHOELACE	1289	n/a	-1	1	1.0	1.0	upper	../fonts/Verdana.ttf
984.694	n/a	WORD	492347	wordpools/wasnorm_wordpool.txt	LTP101	ltpFR	0	3	-1	SHOE	1288	n/a	-1	1	1.0	1.0	upper	../fonts/Verdana.ttf
988.526	n/a	WORD	494263	wordpools/wasnorm_wordpool.txt	LTP101	ltpFR	0	3	-1	GALLON	618	n/a	-1	1	1.0	1.0	upper	../fonts/Verdana.ttf
992.594	n/a	WORD	496297	wordpools/wasnorm_wordpool.txt	LTP101	ltpFR	0	3	-1	GREASE	660	n/a	-1	1	1.0	1.0	upper	../fonts/Verdana.ttf
996.594	n/a	WORD	498297	wordpools/wasnorm_wordpool.txt	LTP101	ltpFR	0	3	-1	RASPBERRY	1168	n/a	-1	1	1.0	1.0	upper	../fonts/Verdana.ttf
1000.61	n/a	WORD	500305	wordpools/wasnorm_wordpool.txt	LTP101	ltpFR	0	3	-1	SQUIRREL	1362	n/a	-1	1	1.0	1.0	upper	../fonts/Verdana.ttf
1004.776	n/a	WORD	502388	wordpools/wasnorm_wordpool.txt	LTP101	ltpFR	0	3	-1	ANIMAL	23	n/a	-1	1	1.0	1.0	upper	../fonts/Verdana.ttf
1008.984	n/a	WORD	504492	wordpools/wasnorm_wordpool.txt	LTP101	ltpFR	0	3	-1	WAVE	1596	n/a	-1	1	1.0	1.0	upper	../fonts/Verdana.ttf
1012.9	n/a	WORD	506450	wordpools/wasnorm_wordpool.txt	LTP101	ltpFR	0	3	-1	SHORE	1291	n/a	-1	1	1.0	1.0	upper	../fonts/Verdana.ttf
1018.802	n/a	REC_START	509401	n/a	LTP101	ltpFR	0	3	n/a	n/a	n/a	n/a	n/a	n/a	n/a	n/a	n/a	n/a
1020.028	n/a	REC_WORD	510014	wordpools/wasnorm_wordpool.txt	LTP101	ltpFR	0	3	-1	SHORE	1291	n/a	-1	n/a	n/a	n/a	n/a	n/a
1020.942	n/a	REC_WORD	510471	wordpools/wasnorm_wordpool.txt	LTP101	ltpFR	0	3	-1	WAVE	1596	n/a	-1	n/a	n/a	n/a	n/a	n/a
1022.01	n/a	REC_WORD	511005	wordpools/wasnorm_wordpool.txt	LTP101	ltpFR	0	3	-1	GALLON	618	n/a	-1	n/a	n/a	n/a	n/a	n/a
1022.962	n/a	REC_WORD	511481	wordpools/wasnorm_wordpool.txt	LTP101	ltpFR	0	3	-1	GREASE	660	n/a	-1	n/a	n/a	n/a	n/a	n/a
1023.954	n/a	REC_WORD	511977	wordpools/wasnorm_wordpool.txt	LTP101	ltpFR	0	3	-1	RASPBERRY	1168	n/a	-1	n/a	n/a	n/a	n/a	n/a
1025.86	n/a	REC_WORD	512930	wordpools/wasnorm_wordpool.txt	LTP101	ltpFR	0	3	-1	ANIMAL	23	n/a	-1	n/a	n/a	n/a	n/a	n/a
1027.726	n/a	REC_WORD	513863	wordpools/wasnorm_wordpool.txt	LTP101	ltpFR	0	3	-1	SQUIRREL	1362	n/a	-1	n/a	n/a	n/a	n/a	n/a
1028.904	n/a	REC_WORD	514452	wordpools/wasnorm_wordpool.txt	LTP101	ltpFR	0	3	-1	CHIPMUNK	304	n/a	-1	n/a	n/a	n/a	n/a	n/a
1030.31	n/a	REC_WORD	515155	wordpools/wasnorm_wordpool.txt	LTP101	ltpFR	0	3	-1	CAT	257	n/a	-1	n/a	n/a	n/a	n/a	n/a
1031.982	n/a	REC_WORD	515991	wordpools/wasnorm_wordpool.txt	LTP101	ltpFR	0	3	-1	TRICYCLE	1506	n/a	-1	n/a	n/a	n/a	n/a	n/a
1033.164	n/a	REC_WORD	516582	wordpools/wasnorm_wordpool.txt	LTP101	ltpFR	0	3	-1	ICE	730	n/a	-1	n/a	n/a	n/a	n/a	n/a
1034.012	n/a	REC_WORD	517006	wordpools/wasnorm_wordpool.txt	LTP101	ltpFR	0	3	-1	SHOE	1288	n/a	-1	n/a	n/a	n/a	n/a	n/a
1034.956	n/a	REC_WORD	517478	wordpools/wasnorm_wordpool.txt	LTP101	ltpFR	0	3	-1	SHOELACE	1289	n/a	-1	n/a	n/a	n/a	n/a	n/a
1036.756	n/a	REC_WORD	518378	wordpools/wasnorm_wordpool.txt	LTP101	ltpFR	0	3	-1	POOL	1103	n/a	-1	n/a	n/a	n/a	n/a	n/a
1037.67	n/a	REC_WORD	518835	wordpools/wasnorm_wordpool.txt	LTP101	ltpFR	0	3	-1	CAPITAL	238	n/a	-1	n/a	n/a	n/a	n/a	n/a
1038.652	n/a	REC_WORD	519326	wordpools/wasnorm_wordpool.txt	LTP101	ltpFR	0	3	-1	WOUND	1624	n/a	-1	n/a	n/a	n/a	n/a	n/a
1047.252	n/a	REC_WORD	523626	wordpools/wasnorm_wordpool.txt	LTP101	ltpFR	0	3	-1	WAVE	1596	n/a	-1	n/a	n/a	n/a	n/a	n/a
1099.666	n/a	WORD	549833	wordpools/wasnorm_wordpool.txt	LTP101	ltpFR	0	4	-1	VEGETABLE	1552	n/a	-1	1	1.0	1.0	upper	../fonts/Verdana.ttf
1103.806	n/a	WORD	551903	wordpools/wasnorm_wordpool.txt	LTP101	ltpFR	0	4	-1	STUMP	1396	n/a	-1	1	1.0	1.0	upper	../fonts/Verdana.ttf
1108.014	n/a	WORD	554007	wordpools/wasnorm_wordpool.txt	LTP101	ltpFR	0	4	-1	LEAF	808	n/a	-1	1	1.0	1.0	upper	../fonts/Verdana.ttf
1111.916	n/a	WORD	555958	wordpools/wasnorm_wordpool.txt	LTP101	ltpFR	0	4	-1	TUNNEL	1519	n/a	-1	1	1.0	1.0	upper	../fonts/Verdana.ttf
1115.974	n/a	WORD	557987	wordpools/wasnorm_wordpool.txt	LTP101	ltpFR	0	4	-1	DIGGER	464	n/a	-1	1	1.0	1.0	upper	../fonts/Verdana.ttf
1119.798	n/a	WORD	559899	wordpools/wasnorm_wordpool.txt	LTP101	ltpFR	0	4	-1	CANAL	226	n/a	-1	1	1.0	1.0	upper	../fonts/Verdana.ttf
1123.716	n/a	WORD	561858	wordpools/wasnorm_wordpool.txt	LTP101	ltpFR	0	4	-1	FRIES	607	n/a	-1	1	1.0	1.0	upper	../fonts/Verdana.ttf
1127.898	n/a	WORD	563949	wordpools/wasnorm_wordpool.txt	LTP101	ltpFR	0	4	-1	MAGICIAN	854	n/a	-1	1	1.0	1.0	upper	../fonts/Verdana.ttf
1131.756	n/a	WORD	565878	wordpools/wasnorm_wordpool.txt	LTP101	ltpFR	0	4	-1	SOCIETY	1338	n/a	-1	1	1.0	1.0	upper	../fonts/Verdana.ttf
1135.574	n/a	WORD	567787	wordpools/wasnorm_wordpool.txt	LTP101	ltpFR	0	4	-1	COMMUNITY	356	n/a	-1	1	1.0	1.0	upper	../fonts/Verdana.ttf
1139.748	n/a	WORD	569874	wordpools/wasnorm_wordpool.txt	LTP101	ltpFR	0	4	-1	BENCH	121	n/a	-1	1	1.0	1.0	upper	../fonts/Verdana.ttf
1143.948	n/a	WORD	571974	wordpools/wasnorm_wordpool.txt	LTP101	ltpFR	0	4	-1	SWING	1421	n/a	-1	1	1.0	1.0	upper	../fonts/Verdana.ttf
1147.93	n/a	WORD	573965	wordpools/wasnorm_wordpool.txt	LTP101	ltpFR	0	4	-1	SPRINKLE	1359	n/a	-1	1	1.0	1.0	upper	../fonts/Verdana.ttf
1151.748	n/a	WORD	575874	wordpools/wasnorm_wordpool.txt	LTP101	ltpFR	0	4	-1	TOMBSTONE	1478	n/a	-1	1	1.0	1.0	upper	../fonts/Verdana.ttf
1155.666	n/a	WORD	577833	wordpools/wasnorm_wordpool.txt	LTP101	ltpFR	0	4	-1	SPINACH	1352	n/a	-1	1	1.0	1.0	upper	../fonts/Verdana.ttf
1159.524	n/a	WORD	579762	wordpools/wasnorm_wordpool.txt	LTP101	ltpFR	0	4	-1	TOASTER	1472	n/a	-1	1	1.0	1.0	upper	../fonts/Verdana.ttf
1165.482	n/a	REC_START	582741	n/a	LTP101	ltpFR	0	4	n/a	n/a	n/a	n/a	n/a	n/a	n/a	n/a	n/a	n/a
1167.162	n/a	REC_WORD	583581	wordpools/wasnorm_wordpool.txt	LTP101	ltpFR	0	4	-1	TOASTER	1472	n/a	-1	n/a	n/a	n/a	n/a	n/a
1168.084	n/a	REC_WORD	584042	wordpools/wasnorm_wordpool.txt	LTP101	ltpFR	0	4	-1	FRIES	607	n/a	-1	n/a	n/a	n/a	n/a	n/a
1170.856	n/a	REC_WORD	585428	wordpools/wasnorm_wordpool.txt	LTP101	ltpFR	0	4	-1	LEAF	808	n/a	-1	n/a	n/a	n/a	n/a	n/a
1172.352	n/a	REC_WORD	586176	wordpools/wasnorm_wordpool.txt	LTP101	ltpFR	0	4	-1	LEAF	808	n/a	-1	n/a	n/a	n/a	n/a	n/a
1174.86	n/a	REC_WORD	587430	wordpools/wasnorm_wordpool.txt	LTP101	ltpFR	0	4	-1	TUNNEL	1519	n/a	-1	n/a	n/a	n/a	n/a	n/a
1176.038	n/a	REC_WORD	588019	wordpools/wasnorm_wordpool.txt	LTP101	ltpFR	0	4	-1	DIGGER	464	n/a	-1	n/a	n/a	n/a	n/a	n/a
1177.83	n/a	REC_WORD	588915	wordpools/wasnorm_wordpool.txt	LTP101	ltpFR	0	4	-1	CANAL	226	n/a	-1	n/a	n/a	n/a	n/a	n/a
1178.906	n/a	REC_WORD	589453	wordpools/wasnorm_wordpool.txt	LTP101	ltpFR	0	4	-1	MAGICIAN	854	n/a	-1	n/a	n/a	n/a	n/a	n/a
1180.328	n/a	REC_WORD	590164	wordpools/wasnorm_wordpool.txt	LTP101	ltpFR	0	4	-1	SOCIETY	1338	n/a	-1	n/a	n/a	n/a	n/a	n/a
1181.586	n/a	REC_WORD	590793	wordpools/wasnorm_wordpool.txt	LTP101	ltpFR	0	4	-1	COMMUNITY	356	n/a	-1	n/a	n/a	n/a	n/a	n/a
1183.162	n/a	REC_WORD	591581	wordpools/wasnorm_wordpool.txt	LTP101	ltpFR	0	4	-1	BENCH	121	n/a	-1	n/a	n/a	n/a	n/a	n/a
1184.16	n/a	REC_WORD	592080	wordpools/wasnorm_wordpool.txt	LTP101	ltpFR	0	4	-1	SWING	1421	n/a	-1	n/a	n/a	n/a	n/a	n/a
1185.706	n/a	REC_WORD	592853	wordpools/wasnorm_wordpool.txt	LTP101	ltpFR	0	4	-1	SPRINKLE	1359	n/a	-1	n/a	n/a	n/a	n/a	n/a
1209.02	n/a	REC_WORD	604510	wordpools/wasnorm_wordpool.txt	LTP101	ltpFR	0	4	-1	VEGETABLE	1552	n/a	-1	n/a	n/a	n/a	n/a	n/a
1220.504	n/a	REC_WORD	610252	wordpools/wasnorm_wordpool.txt	LTP101	ltpFR	0	4	-1	TOMBSTONE	1478	n/a	-1	n/a	n/a	n/a	n/a	n/a
1426.316	n/a	WORD	713158	wordpools/wasnorm_wordpool.txt	LTP101	ltpFR	0	5	1	ORGAN	984	n/a	1	0	0.5869140625	0.422607421875	lower	../fonts/zerothre.ttf
1430.442	n/a	WORD	715221	wordpools/wasnorm_wordpool.txt	LTP101	ltpFR	0	5	1	ABDOMEN	1	n/a	0	0	0.5869140625	0.422607421875	lower	../fonts/zerothre.ttf
1434.274	n/a	WORD	717137	wordpools/wasnorm_wordpool.txt	LTP101	ltpFR	0	5	1	MOTHER	921	n/a	1	0	0.5869140625	0.422607421875	lower	../fonts/zerothre.ttf
1438.232	n/a	WORD	719116	wordpools/wasnorm_wordpool.txt	LTP101	ltpFR	0	5	1	TREAD	1499	n/a	0	0	0.5869140625	0.422607421875	lower	../fonts/zerothre.ttf
1442.2	n/a	WORD	721100	wordpools/wasnorm_wordpool.txt	LTP101	ltpFR	0	5	1	SCAPEGOAT	1244	n/a	1	0	0.5869140625	0.422607421875	lower	../fonts/zerothre.ttf
1446.266	n/a	WORD	723133	wordpools/wasnorm_wordpool.txt	LTP101	ltpFR	0	5	1	BUGLE	189	n/a	0	0	0.5869140625	0.422607421875	lower	../fonts/zerothre.ttf
1450.45	n/a	WORD	725225	wordpools/wasnorm_wordpool.txt	LTP101	ltpFR	0	5	1	THRONE	1461	n/a	0	0	0.5869140625	0.422607421875	lower	../fonts/zerothre.ttf
1454.582	n/a	WORD	727291	wordpools/wasnorm_wordpool.txt	LTP101	ltpFR	0	5	1	EMPIRE	530	n/a	0	0	0.5869140625	0.422607421875	lower	../fonts/zerothre.ttf
1458.458	n/a	WORD	729229	wordpools/wasnorm_wordpool.txt	LTP101	ltpFR	0	5	1	CELLO	268	n/a	0	0	0.5869140625	0.422607421875	lower	../fonts/zerothre.ttf
1462.474	n/a	WORD	731237	wordpools/wasnorm_wordpool.txt	LTP101	ltpFR	0	5	1	OX	994	n/a	1	0	0.5869140625	0.422607421875	lower	../fonts/zerothre.ttf
1466.3	n/a	WORD	733150	wordpools/wasnorm_wordpool.txt	LTP101	ltpFR	0	5	1	MAYONNAISE	880	n/a	0	0	0.5869140625	0.422607421875	lower	../fonts/zerothre.ttf
1470.39	n/a	WORD	735195	wordpools/wasnorm_wordpool.txt	LTP101	ltpFR	0	5	1	NEPTUNE	943	n/a	0	0	0.5869140625	0.422607421875	lower	../fonts/zerothre.ttf
1474.532	n/a	WORD	737266	wordpools/wasnorm_wordpool.txt	LTP101	ltpFR	0	5	1	PLUTO	1092	n/a	0	0	0.5869140625	0.422607421875	lower	../fonts/zerothre.ttf
1478.356	n/a	WORD	739178	wordpools/wasnorm_wordpool.txt	LTP101	ltpFR	0	5	1	CHARCOAL	281	n/a	0	0	0.5869140625	0.422607421875	lower	../fonts/zerothre.ttf
1482.266	n/a	WORD	741133	wordpools/wasnorm_wordpool.txt	LTP101	ltpFR	0	5	1	VIRUS	1572	n/a	0	0	0.5869140625	0.422607421875	lower	../fonts/zerothre.ttf
1486.114	n/a	WORD	743057	wordpools/wasnorm_wordpool.txt	LTP101	ltpFR	0	5	1	DAM	436	n/a	0	0	0.5869140625	0.422607421875	lower	../fonts/zerothre.ttf
1492.056	n/a	REC_START	746028	n/a	LTP101	ltpFR	0	5	n/a	n/a	n/a	n/a	n/a	n/a	n/a	n/a	n/a	n/a
1493.418	n/a	REC_WORD	746709	wordpools/wasnorm_wordpool.txt	LTP101	ltpFR	0	5	1	DAM	436	n/a	0	n/a	n/a	n/a	n/a	n/a
1494.246	n/a	REC_WORD	747123	wordpools/wasnorm_wordpool.txt	LTP101	ltpFR	0	5	1	CHARCOAL	281	n/a	0	n/a	n/a	n/a	n/a	n/a
1495.478	n/a	REC_WORD	747739	wordpools/wasnorm_wordpool.txt	LTP101	ltpFR	0	5	1	NEPTUNE	943	n/a	0	n/a	n/a	n/a	n/a	n/a
1496.372	n/a	REC_WORD	748186	wordpools/wasnorm_wordpool.txt	LTP101	ltpFR	0	5	1	PLUTO	1092	n/a	0	n/a	n/a	n/a	n/a	n/a
1497.316	n/a	REC_WORD	748658	wordpools/wasnorm_wordpool.txt	LTP101	ltpFR	0	5	1	MOTHER	921	n/a	1	n/a	n/a	n/a	n/a	n/a
1498.248	n/a	REC_WORD	749124	wordpools/wasnorm_wordpool.txt	LTP101	ltpFR	0	5	1	ORGAN	984	n/a	1	n/a	n/a	n/a	n/a	n/a
1499.066	n/a	REC_WORD	749533	wordpools/wasnorm_wordpool.txt	LTP101	ltpFR	0	5	1	ABDOMEN	1	n/a	0	n/a	n/a	n/a	n/a	n/a
1501.436	n/a	REC_WORD	750718	wordpools/wasnorm_wordpool.txt	LTP101	ltpFR	0	5	1	CELLO	268	n/a	0	n/a	n/a	n/a	n/a	n/a
1502.738	n/a	REC_WORD	751369	wordpools/wasnorm_wordpool.txt	LTP101	ltpFR	0	5	1	TREAD	1499	n/a	0	n/a	n/a	n/a	n/a	n/a
1504.234	n/a	REC_WORD	752117	wordpools/wasnorm_wordpool.txt	LTP101	ltpFR	0	5	1	OX	994	n/a	1	n/a	n/a	n/a	n/a	n/a
1505.052	n/a	REC_WORD	752526	wordpools/wasnorm_wordpool.txt	LTP101	ltpFR	0	5	1	MAYONNAISE	880	n/a	0	n/a	n/a	n/a	n/a	n/a
1507.646	n/a	REC_WORD_VV	753823	wordpools/wasnorm_wordpool.txt	LTP101	ltpFR	0	5	n/a	<>	-1	n/a	n/a	n/a	n/a	n/a	n/a	n/a
1510.914	n/a	REC_WORD	755457	wordpools/wasnorm_wordpool.txt	LTP101	ltpFR	0	5	1	VIRUS	1572	n/a	0	n/a	n/a	n/a	n/a	n/a
1514.946	n/a	REC_WORD_VV	757473	wordpools/wasnorm_wordpool.txt	LTP101	ltpFR	0	5	n/a	<>	-1	n/a	n/a	n/a	n/a	n/a	n/a	n/a
1574.488	n/a	WORD	787244	wordpools/wasnorm_wordpool.txt	LTP101	ltpFR	0	6	1	FARMER	553	n/a	1	0	0.5869140625	0.422607421875	lower	../fonts/zerothre.ttf
1578.654	n/a	WORD	789327	wordpools/wasnorm_wordpool.txt	LTP101	ltpFR	0	6	1	COYOTE	396	n/a	1	0	0.5869140625	0.422607421875	lower	../fonts/zerothre.ttf
1582.514	n/a	WORD	791257	wordpools/wasnorm_wordpool.txt	LTP101	ltpFR	0	6	1	DANDELION	438	n/a	1	0	0.5869140625	0.422607421875	lower	../fonts/zerothre.ttf
1586.63	n/a	WORD	793315	wordpools/wasnorm_wordpool.txt	LTP101	ltpFR	0	6	1	MILITARY	894	n/a	0	0	0.5869140625	0.422607421875	lower	../fonts/zerothre.ttf
1590.446	n/a	WORD	795223	wordpools/wasnorm_wordpool.txt	LTP101	ltpFR	0	6	1	MAPLE	866	n/a	1	0	0.5869140625	0.422607421875	lower	../fonts/zerothre.ttf
1594.62	n/a	WORD	797310	wordpools/wasnorm_wordpool.txt	LTP101	ltpFR	0	6	1	DUMP	505	n/a	0	0	0.5869140625	0.422607421875	lower	../fonts/zerothre.ttf
1598.77	n/a	WORD	799385	wordpools/wasnorm_wordpool.txt	LTP101	ltpFR	0	6	1	GARBAGE	622	n/a	0	0	0.5869140625	0.422607421875	lower	../fonts/zerothre.ttf
1602.72	n/a	WORD	801360	wordpools/wasnorm_wordpool.txt	LTP101	ltpFR	0	6	1	VETERAN	1561	n/a	1	0	0.5869140625	0.422607421875	lower	../fonts/zerothre.ttf
1606.812	n/a	WORD	803406	wordpools/wasnorm_wordpool.txt	LTP101	ltpFR	0	6	1	CIGARETTE	309	n/a	0	0	0.5869140625	0.422607421875	lower	../fonts/zerothre.ttf
1610.728	n/a	WORD	805364	wordpools/wasnorm_wordpool.txt	LTP101	ltpFR	0	6	1	AUDIENCE	59	n/a	1	0	0.5869140625	0.422607421875	lower	../fonts/zerothre.ttf
1614.636	n/a	WORD	807318	wordpools/wasnorm_wordpool.txt	LTP101	ltpFR	0	6	1	SYRUP	1425	n/a	0	0	0.5869140625	0.422607421875	lower	../fonts/zerothre.ttf
1618.738	n/a	WORD	809369	wordpools/wasnorm_wordpool.txt	LTP101	ltpFR	0	6	1	FIREPLACE	570	n/a	0	0	0.5869140625	0.422607421875	lower	../fonts/zerothre.ttf
1622.894	n/a	WORD	811447	wordpools/wasnorm_wordpool.txt	LTP101	ltpFR	0	6	1	KEYBOARD	774	n/a	0	0	0.5869140625	0.422607421875	lower	../fonts/zerothre.ttf
1626.836	n/a	WORD	813418	wordpools/wasnorm_wordpool.txt	LTP101	ltpFR	0	6	1	RECORD	1176	n/a	0	0	0.5869140625	0.422607421875	lower	../fonts/zerothre.ttf
1630.836	n/a	WORD	815418	wordpools/wasnorm_wordpool.txt	LTP101	ltpFR	0	6	1	OATMEAL	967	n/a	0	0	0.5869140625	0.422607421875	lower	../fonts/zerothre.ttf
1635.018	n/a	WORD	817509	wordpools/wasnorm_wordpool.txt	LTP101	ltpFR	0	6	1	BUN	197	n/a	0	0	0.5869140625	0.422607421875	lower	../fonts/zerothre.ttf
1641.062	n/a	REC_START	820531	n/a	LTP101	ltpFR	0	6	n/a	n/a	n/a	n/a	n/a	n/a	n/a	n/a	n/a	n/a
1642.324	n/a	REC_WORD	821162	wordpools/wasnorm_wordpool.txt	LTP101	ltpFR	0	6	1	BUN	197	n/a	0	n/a	n/a	n/a	n/a	n/a
1643.242	n/a	REC_WORD	821621	wordpools/wasnorm_wordpool.txt	LTP101	ltpFR	0	6	1	OATMEAL	967	n/a	0	n/a	n/a	n/a	n/a	n/a
1644.738	n/a	REC_WORD	822369	wordpools/wasnorm_wordpool.txt	LTP101	ltpFR	0	6	1	FARMER	553	n/a	1	n/a	n/a	n/a	n/a	n/a
1645.826	n/a	REC_WORD	822913	wordpools/wasnorm_wordpool.txt	LTP101	ltpFR	0	6	1	COYOTE	396	n/a	1	n/a	n/a	n/a	n/a	n/a
1646.674	n/a	REC_WORD	823337	wordpools/wasnorm_wordpool.txt	LTP101	ltpFR	0	6	1	DANDELION	438	n/a	1	n/a	n/a	n/a	n/a	n/a
1648.484	n/a	REC_WORD	824242	wordpools/wasnorm_wordpool.txt	LTP101	ltpFR	0	6	1	FIREPLACE	570	n/a	0	n/a	n/a	n/a	n/a	n/a
1651.204	n/a	REC_WORD_VV	825602	wordpools/wasnorm_wordpool.txt	LTP101	ltpFR	0	6	n/a	<>	-1	n/a	n/a	n/a	n/a	n/a	n/a	n/a
1657.764	n/a	REC_WORD	828882	wordpools/wasnorm_wordpool.txt	LTP101	ltpFR	0	6	1	MAPLE	866	n/a	1	n/a	n/a	n/a	n/a	n/a
1658.578	n/a	REC_WORD	829289	wordpools/wasnorm_wordpool.txt	LTP101	ltpFR	0	6	1	SYRUP	1425	n/a	0	n/a	n/a	n/a	n/a	n/a
1665.368	n/a	REC_WORD	832684	wordpools/wasnorm_wordpool.txt	LTP101	ltpFR	0	6	1	KEYBOARD	774	n/a	0	n/a	n/a	n/a	n/a	n/a
1670.41	n/a	REC_WORD	835205	wordpools/wasnorm_wordpool.txt	LTP101	ltpFR	0	6	1	CIGARETTE	309	n/a	0	n/a	n/a	n/a	n/a	n/a
1675.46	n/a	REC_WORD	837730	wordpools/wasnorm_wordpool.txt	LTP101	ltpFR	0	6	1	AUDIENCE	59	n/a	1	n/a	n/a	n/a	n/a	n/a
1688.734	n/a	REC_WORD	844367	wordpools/wasnorm_wordpool.txt	LTP101	ltpFR	0	6	1	VETERAN	1561	n/a	1	n/a	n/a	n/a	n/a	n/a
1706.764	n/a	REC_WORD	853382	wordpools/wasnorm_wordpool.txt	LTP101	ltpFR	0	6	1	GARBAGE	622	n/a	0	n/a	n/a	n/a	n/a	n/a
1707.554	n/a	REC_WORD	853777	wordpools/wasnorm_wordpool.txt	LTP101	ltpFR	0	6	1	DUMP	505	n/a	0	n/a	n/a	n/a	n/a	n/a
1720.526	n/a	WORD	860263	wordpools/wasnorm_wordpool.txt	LTP101	ltpFR	0	7	1	PENNY	1045	n/a	0	0	0.5869140625	0.422607421875	lower	../fonts/zerothre.ttf
1724.61	n/a	WORD	862305	wordpools/wasnorm_wordpool.txt	LTP101	ltpFR	0	7	1	GROCERIES	663	n/a	0	0	0.5869140625	0.422607421875	lower	../fonts/zerothre.ttf
1728.51	n/a	WORD	864255	wordpools/wasnorm_wordpool.txt	LTP101	ltpFR	0	7	1	SHOP	1290	n/a	0	0	0.5869140625	0.422607421875	lower	../fonts/zerothre.ttf
1732.65	n/a	WORD	866325	wordpools/wasnorm_wordpool.txt	LTP101	ltpFR	0	7	1	FARM	552	n/a	0	0	0.5869140625	0.422607421875	lower	../fonts/zerothre.ttf
1736.758	n/a	WORD	868379	wordpools/wasnorm_wordpool.txt	LTP101	ltpFR	0	7	1	CRIMINAL	409	n/a	1	0	0.5869140625	0.422607421875	lower	../fonts/zerothre.ttf
1740.626	n/a	WORD	870313	wordpools/wasnorm_wordpool.txt	LTP101	ltpFR	0	7	1	THIEF	1456	n/a	1	0	0.5869140625	0.422607421875	lower	../fonts/zerothre.ttf
1744.468	n/a	WORD	872234	wordpools/wasnorm_wordpool.txt	LTP101	ltpFR	0	7	1	DOG	480	n/a	1	0	0.5869140625	0.422607421875	lower	../fonts/zerothre.ttf
1748.642	n/a	WORD	874321	wordpools/wasnorm_wordpool.txt	LTP101	ltpFR	0	7	1	TRAY	1498	n/a	0	0	0.5869140625	0.422607421875	lower	../fonts/zerothre.ttf
1752.824	n/a	WORD	876412	wordpools/wasnorm_wordpool.txt	LTP101	ltpFR	0	7	1	FIELD	562	n/a	0	0	0.5869140625	0.422607421875	lower	../fonts/zerothre.ttf
1756.75	n/a	WORD	878375	wordpools/wasnorm_wordpool.txt	LTP101	ltpFR	0	7	1	GRIZZLY	662	n/a	1	0	0.5869140625	0.422607421875	lower	../fonts/zerothre.ttf
1760.584	n/a	WORD	880292	wordpools/wasnorm_wordpool.txt	LTP101	ltpFR	0	7	1	CLARINET	317	n/a	0	0	0.5869140625	0.422607421875	lower	../fonts/zerothre.ttf
1764.434	n/a	WORD	882217	wordpools/wasnorm_wordpool.txt	LTP101	ltpFR	0	7	1	OBOE	969	n/a	0	0	0.5869140625	0.422607421875	lower	../fonts/zerothre.ttf
1768.608	n/a	WORD	884304	wordpools/wasnorm_wordpool.txt	LTP101	ltpFR	0	7	1	PIZZA	1079	n/a	0	0	0.5869140625	0.422607421875	lower	../fonts/zerothre.ttf
1772.616	n/a	WORD	886308	wordpools/wasnorm_wordpool.txt	LTP101	ltpFR	0	7	1	DONOR	485	n/a	1	0	0.5869140625	0.422607421875	lower	../fonts/zerothre.ttf
1776.75	n/a	WORD	888375	wordpools/wasnorm_wordpool.txt	LTP101	ltpFR	0	7	1	VOLCANO	1575	n/a	0	0	0.5869140625	0.422607421875	lower	../fonts/zerothre.ttf
1780.808	n/a	WORD	890404	wordpools/wasnorm_wordpool.txt	LTP101	ltpFR	0	7	1	PUPPY	1144	n/a	1	0	0.5869140625	0.422607421875	lower	../fonts/zerothre.ttf
1786.684	n/a	REC_START	893342	n/a	LTP101	ltpFR	0	7	n/a	n/a	n/a	n/a	n/a	n/a	n/a	n/a	n/a	n/a
1788.514	n/a	REC_WORD	894257	wordpools/wasnorm_wordpool.txt	LTP101	ltpFR	0	7	1	PUPPY	1144	n/a	1	n/a	n/a	n/a	n/a	n/a
1789.572	n/a	REC_WORD	894786	wordpools/wasnorm_wordpool.txt	LTP101	ltpFR	0	7	1	GRIZZLY	662	n/a	1	n/a	n/a	n/a	n/a	n/a
1790.55	n/a	REC_WORD	895275	wordpools/wasnorm_wordpool.txt	LTP101	ltpFR	0	7	1	PIZZA	1079	n/a	0	n/a	n/a	n/a	n/a	n/a
1792.684	n/a	REC_WORD	896342	wordpools/wasnorm_wordpool.txt	LTP101	ltpFR	0	7	1	CRIMINAL	409	n/a	1	n/a	n/a	n/a	n/a	n/a
1793.46	n/a	REC_WORD	896730	wordpools/wasnorm_wordpool.txt	LTP101	ltpFR	0	7	1	THIEF	1456	n/a	1	n/a	n/a	n/a	n/a	n/a
1794.686	n/a	REC_WORD	897343	wordpools/wasnorm_wordpool.txt	LTP101	ltpFR	0	7	1	DONOR	485	n/a	1	n/a	n/a	n/a	n/a	n/a
1795.53	n/a	REC_WORD	897765	wordpools/wasnorm_wordpool.txt	LTP101	ltpFR	0	7	1	VOLCANO	1575	n/a	0	n/a	n/a	n/a	n/a	n/a
1800.886	n/a	REC_WORD_VV	900443	wordpools/wasnorm_wordpool.txt	LTP101	ltpFR	0	7	n/a	<>	-1	n/a	n/a	n/a	n/a	n/a	n/a	n/a
1804.06	n/a	REC_WORD	902030	wordpools/wasnorm_wordpool.txt	LTP101	ltpFR	0	7	1	PENNY	1045	n/a	0	n/a	n/a	n/a	n/a	n/a
1806.774	n/a	REC_WORD	903387	wordpools/wasnorm_wordpool.txt	LTP101	ltpFR	0	7	1	CLARINET	317	n/a	0	n/a	n/a	n/a	n/a	n/a
1807.782	n/a	REC_WORD	903891	wordpools/wasnorm_wordpool.txt	LTP101	ltpFR	0	7	1	OBOE	969	n/a	0	n/a	n/a	n/a	n/a	n/a
1814.218	n/a	REC_WORD	907109	wordpools/wasnorm_wordpool.txt	LTP101	ltpFR	0	7	1	FIELD	562	n/a	0	n/a	n/a	n/a	n/a	n/a
1868.388	n/a	WORD	934194	wordpools/wasnorm_wordpool.txt	LTP101	ltpFR	0	8	1	BRANDY	169	n/a	0	0	0.5869140625	0.422607421875	lower	../fonts/zerothre.ttf
1872.238	n/a	WORD	936119	wordpools/wasnorm_wordpool.txt	LTP101	ltpFR	0	8	1	WHALE	1601	n/a	1	0	0.5869140625	0.422607421875	lower	../fonts/zerothre.ttf
1876.088	n/a	WORD	938044	wordpools/wasnorm_wordpool.txt	LTP101	ltpFR	0	8	1	EDITOR	516	n/a	1	0	0.5869140625	0.422607421875	lower	../fonts/zerothre.ttf
1879.912	n/a	WORD	939956	wordpools/wasnorm_wordpool.txt	LTP101	ltpFR	0	8	1	BINDER	127	n/a	0	0	0.5869140625	0.422607421875	lower	../fonts/zerothre.ttf
1883.804	n/a	WORD	941902	wordpools/wasnorm_wordpool.txt	LTP101	ltpFR	0	8	1	GORILLA	650	n/a	1	0	0.5869140625	0.422607421875	lower	../fonts/zerothre.ttf
1887.946	n/a	WORD	943973	wordpools/wasnorm_wordpool.txt	LTP101	ltpFR	0	8	1	MAMMAL	861	n/a	1	0	0.5869140625	0.422607421875	lower	../fonts/zerothre.ttf
1891.996	n/a	WORD	945998	wordpools/wasnorm_wordpool.txt	LTP101	ltpFR	0	8	1	HATCHET	691	n/a	0	0	0.5869140625	0.422607421875	lower	../fonts/zerothre.ttf
1895.846	n/a	WORD	947923	wordpools/wasnorm_wordpool.txt	LTP101	ltpFR	0	8	1	STUDENT	1395	n/a	1	0	0.5869140625	0.422607421875	lower	../fonts/zerothre.ttf
1899.664	n/a	WORD	949832	wordpools/wasnorm_wordpool.txt	LTP101	ltpFR	0	8	1	INSTRUCTOR	741	n/a	1	0	0.5869140625	0.422607421875	lower	../fonts/zerothre.ttf
1903.604	n/a	WORD	951802	wordpools/wasnorm_wordpool.txt	LTP101	ltpFR	0	8	1	HAMMER	680	n/a	0	0	0.5869140625	0.422607421875	lower	../fonts/zerothre.ttf
1907.496	n/a	WORD	953748	wordpools/wasnorm_wordpool.txt	LTP101	ltpFR	0	8	1	BABY	64	n/a	1	0	0.5869140625	0.422607421875	lower	../fonts/zerothre.ttf
1911.664	n/a	WORD	955832	wordpools/wasnorm_wordpool.txt	LTP101	ltpFR	0	8	1	CLAM	315	n/a	1	0	0.5869140625	0.422607421875	lower	../fonts/zerothre.ttf
1915.746	n/a	WORD	957873	wordpools/wasnorm_wordpool.txt	LTP101	ltpFR	0	8	1	BLUEPRINT	142	n/a	0	0	0.5869140625	0.422607421875	lower	../fonts/zerothre.ttf
1919.82	n/a	WORD	959910	wordpools/wasnorm_wordpool.txt	LTP101	ltpFR	0	8	1	SEAT	1264	n/a	0	0	0.5869140625	0.422607421875	lower	../fonts/zerothre.ttf
1923.986	n/a	WORD	961993	wordpools/wasnorm_wordpool.txt	LTP101	ltpFR	0	8	1	ENGINEER	536	n/a	1	0	0.5869140625	0.422607421875	lower	../fonts/zerothre.ttf
1928.028	n/a	WORD	964014	wordpools/wasnorm_wordpool.txt	LTP101	ltpFR	0	8	1	BASSINET	97	n/a	0	0	0.5869140625	0.422607421875	lower	../fonts/zerothre.ttf
1933.714	n/a	REC_START	966857	n/a	LTP101	ltpFR	0	8	n/a	n/a	n/a	n/a	n/a	n/a	n/a	n/a	n/a	n/a
1934.736	n/a	REC_WORD	967368	wordpools/wasnorm_wordpool.txt	LTP101	ltpFR	0	8	1	BASSINET	97	n/a	0	n/a	n/a	n/a	n/a	n/a
1936.292	n/a	REC_WORD	968146	wordpools/wasnorm_wordpool.txt	LTP101	ltpFR	0	8	1	SEAT	1264	n/a	0	n/a	n/a	n/a	n/a	n/a
1937.136	n/a	REC_WORD	968568	wordpools/wasnorm_wordpool.txt	LTP101	ltpFR	0	8	1	ENGINEER	536	n/a	1	n/a	n/a	n/a	n/a	n/a
1938.896	n/a	REC_WORD	969448	wordpools/wasnorm_wordpool.txt	LTP101	ltpFR	0	8	1	BABY	64	n/a	1	n/a	n/a	n/a	n/a	n/a
1939.63	n/a	REC_WORD	969815	wordpools/wasnorm_wordpool.txt	LTP101	ltpFR	0	8	1	STUDENT	1395	n/a	1	n/a	n/a	n/a	n/a	n/a
1940.42	n/a	REC_WORD	970210	wordpools/wasnorm_wordpool.txt	LTP101	ltpFR	0	8	1	INSTRUCTOR	741	n/a	1	n/a	n/a	n/a	n/a	n/a
1941.716	n/a	REC_WORD	970858	wordpools/wasnorm_wordpool.txt	LTP101	ltpFR	0	8	1	HAMMER	680	n/a	0	n/a	n/a	n/a	n/a	n/a
1943.566	n/a	REC_WORD	971783	wordpools/wasnorm_wordpool.txt	LTP101	ltpFR	0	8	1	GORILLA	650	n/a	1	n/a	n/a	n/a	n/a	n/a
1945.532	n/a	REC_WORD	972766	wordpools/wasnorm_wordpool.txt	LTP101	ltpFR	0	8	1	HATCHET	691	n/a	0	n/a	n/a	n/a	n/a	n/a
1947.428	n/a	REC_WORD	973714	wordpools/wasnorm_wordpool.txt	LTP101	ltpFR	0	8	1	BINDER	127	n/a	0	n/a	n/a	n/a	n/a	n/a
1948.484	n/a	REC_WORD	974242	wordpools/wasnorm_wordpool.txt	LTP101	ltpFR	0	8	1	EDITOR	516	n/a	1	n/a	n/a	n/a	n/a	n/a
1952.088	n/a	REC_WORD_VV	976044	wordpools/wasnorm_wordpool.txt	LTP101	ltpFR	0	8	n/a	<>	-1	n/a	n/a	n/a	n/a	n/a	n/a	n/a
1952.786	n/a	REC_WORD	976393	wordpools/wasnorm_wordpool.txt	LTP101	ltpFR	0	8	1	MAMMAL	861	n/a	1	n/a	n/a	n/a	n/a	n/a
1955.276	n/a	REC_WORD	977638	wordpools/wasnorm_wordpool.txt	LTP101	ltpFR	0	8	1	WHALE	1601	n/a	1	n/a	n/a	n/a	n/a	n/a
2014.244	n/a	WORD	1007122	wordpools/wasnorm_wordpool.txt	LTP101	ltpFR	0	9	0	CHAMPION	279	n/a	1	1	0.412841796875	0.57763671875	upper	../fonts/amplitud.ttf
2018.076	n/a	WORD	1009038	wordpools/wasnorm_wordpool.txt	LTP101	ltpFR	0	9	0	COTTAGE	384	n/a	1	1	0.412841796875	0.57763671875	upper	../fonts/amplitud.ttf
2022.118	n/a	WORD	1011059	wordpools/wasnorm_wordpool.txt	LTP101	ltpFR	0	9	0	SAILOR	1223	n/a	1	1	0.412841796875	0.57763671875	upper	../fonts/amplitud.ttf
2026.134	n/a	WORD	1013067	wordpools/wasnorm_wordpool.txt	LTP101	ltpFR	0	9	0	CAULIFLOWER	262	n/a	0	1	0.412841796875	0.57763671875	upper	../fonts/amplitud.ttf
2029.942	n/a	WORD	1014971	wordpools/wasnorm_wordpool.txt	LTP101	ltpFR	0	9	0	CHEDDAR	286	n/a	0	1	0.412841796875	0.57763671875	upper	../fonts/amplitud.ttf
2034.092	n/a	WORD	1017046	wordpools/wasnorm_wordpool.txt	LTP101	ltpFR	0	9	0	SHIP	1286	n/a	1	1	0.412841796875	0.57763671875	upper	../fonts/amplitud.ttf
2038.034	n/a	WORD	1019017	wordpools/wasnorm_wordpool.txt	LTP101	ltpFR	0	9	0	SPONGE	1355	n/a	0	1	0.412841796875	0.57763671875	upper	../fonts/amplitud.ttf
2042.092	n/a	WORD	1021046	wordpools/wasnorm_wordpool.txt	LTP101	ltpFR	0	9	0	FIREMAN	569	n/a	1	1	0.412841796875	0.57763671875	upper	../fonts/amplitud.ttf
2045.942	n/a	WORD	1022971	wordpools/wasnorm_wordpool.txt	LTP101	ltpFR	0	9	0	OUTLAW	989	n/a	1	1	0.412841796875	0.57763671875	upper	../fonts/amplitud.ttf
2050.118	n/a	WORD	1025059	wordpools/wasnorm_wordpool.txt	LTP101	ltpFR	0	9	0	BURGLAR	200	n/a	1	1	0.412841796875	0.57763671875	upper	../fonts/amplitud.ttf
2054.018	n/a	WORD	1027009	wordpools/wasnorm_wordpool.txt	LTP101	ltpFR	0	9	0	ROOSTER	1209	n/a	1	1	0.412841796875	0.57763671875	upper	../fonts/amplitud.ttf
2057.984	n/a	WORD	1028992	wordpools/wasnorm_wordpool.txt	LTP101	ltpFR	0	9	0	TURKEY	1520	n/a	1	1	0.412841796875	0.57763671875	upper	../fonts/amplitud.ttf
2062.142	n/a	WORD	1031071	wordpools/wasnorm_wordpool.txt	LTP101	ltpFR	0	9	0	RAZOR	1171	n/a	0	1	0.412841796875	0.57763671875	upper	../fonts/amplitud.ttf
2066.182	n/a	WORD	1033091	wordpools/wasnorm_wordpool.txt	LTP101	ltpFR	0	9	0	LASH	802	n/a	0	1	0.412841796875	0.57763671875	upper	../fonts/amplitud.ttf
2070.352	n/a	WORD	1035176	wordpools/wasnorm_wordpool.txt	LTP101	ltpFR	0	9	0	EARTH	515	n/a	1	1	0.412841796875	0.57763671875	upper	../fonts/amplitud.ttf
2074.184	n/a	WORD	1037092	wordpools/wasnorm_wordpool.txt	LTP101	ltpFR	0	9	0	CUPBOARD	425	n/a	1	1	0.412841796875	0.57763671875	upper	../fonts/amplitud.ttf
2079.9	n/a	REC_START	1039950	n/a	LTP101	ltpFR	0	9	n/a	n/a	n/a	n/a	n/a	n/a	n/a	n/a	n/a	n/a
2081.656	n/a	REC_WORD	1040828	wordpools/wasnorm_wordpool.txt	LTP101	ltpFR	0	9	0	CUPBOARD	425	n/a	1	n/a	n/a	n/a	n/a	n/a
2082.698	n/a	REC_WORD	1041349	wordpools/wasnorm_wordpool.txt	LTP101	ltpFR	0	9	0	EARTH	515	n/a	1	n/a	n/a	n/a	n/a	n/a
2083.53	n/a	REC_WORD	1041765	wordpools/wasnorm_wordpool.txt	LTP101	ltpFR	0	9	0	LASH	802	n/a	0	n/a	n/a	n/a	n/a	n/a
2084.794	n/a	REC_WORD	1042397	wordpools/wasnorm_wordpool.txt	LTP101	ltpFR	0	9	0	CAULIFLOWER	262	n/a	0	n/a	n/a	n/a	n/a	n/a
2086.08	n/a	REC_WORD	1043040	wordpools/wasnorm_wordpool.txt	LTP101	ltpFR	0	9	0	CHEDDAR	286	n/a	0	n/a	n/a	n/a	n/a	n/a
2087.862	n/a	REC_WORD	1043931	wordpools/wasnorm_wordpool.txt	LTP101	ltpFR	0	9	0	OUTLAW	989	n/a	1	n/a	n/a	n/a	n/a	n/a
2089.498	n/a	REC_WORD	1044749	wordpools/wasnorm_wordpool.txt	LTP101	ltpFR	0	9	0	FIREMAN	569	n/a	1	n/a	n/a	n/a	n/a	n/a
2092.696	n/a	REC_WORD_VV	1046348	wordpools/wasnorm_wordpool.txt	LTP101	ltpFR	0	9	n/a	<>	-1	n/a	n/a	n/a	n/a	n/a	n/a	n/a
2093.664	n/a	REC_WORD	1046832	wordpools/wasnorm_wordpool.txt	LTP101	ltpFR	0	9	0	CHAMPION	279	n/a	1	n/a	n/a	n/a	n/a	n/a
2094.782	n/a	REC_WORD	1047391	wordpools/wasnorm_wordpool.txt	LTP101	ltpFR	0	9	0	COTTAGE	384	n/a	1	n/a	n/a	n/a	n/a	n/a
2098.454	n/a	REC_WORD_VV	1049227	wordpools/wasnorm_wordpool.txt	LTP101	ltpFR	0	9	n/a	<>	-1	n/a	n/a	n/a	n/a	n/a	n/a	n/a
2106.376	n/a	REC_WORD	1053188	wordpools/wasnorm_wordpool.txt	LTP101	ltpFR	0	9	1	CRIMINAL	409	n/a	1	n/a	n/a	n/a	n/a	n/a
2115.176	n/a	REC_WORD	1057588	wordpools/wasnorm_wordpool.txt	LTP101	ltpFR	0	9	0	SPONGE	1355	n/a	0	n/a	n/a	n/a	n/a	n/a
2133.576	n/a	REC_WORD	1066788	wordpools/wasnorm_wordpool.txt	LTP101	ltpFR	0	9	n/a	ATHLETE	52	n/a	n/a	n/a	n/a	n/a	n/a	n/a
2160.056	n/a	WORD	1080028	wordpools/wasnorm_wordpool.txt	LTP101	ltpFR	0	10	0	LINT	826	n/a	0	1	0.412841796875	0.57763671875	upper	../fonts/amplitud.ttf
2164.022	n/a	WORD	1082011	wordpools/wasnorm_wordpool.txt	LTP101	ltpFR	0	10	0	STORE	1387	n/a	1	1	0.412841796875	0.57763671875	upper	../fonts/amplitud.ttf
2167.998	n/a	WORD	1083999	wordpools/wasnorm_wordpool.txt	LTP101	ltpFR	0	10	0	CORK	380	n/a	0	1	0.412841796875	0.57763671875	upper	../fonts/amplitud.ttf
2172.14	n/a	WORD	1086070	wordpools/wasnorm_wordpool.txt	LTP101	ltpFR	0	10	0	SINK	1309	n/a	1	1	0.412841796875	0.57763671875	upper	../fonts/amplitud.ttf
2176.298	n/a	WORD	1088149	wordpools/wasnorm_wordpool.txt	LTP101	ltpFR	0	10	0	CARRIAGE	248	n/a	1	1	0.412841796875	0.57763671875	upper	../fonts/amplitud.ttf
2180.114	n/a	WORD	1090057	wordpools/wasnorm_wordpool.txt	LTP101	ltpFR	0	10	0	HORSE	719	n/a	1	1	0.412841796875	0.57763671875	upper	../fonts/amplitud.ttf
2184.314	n/a	WORD	1092157	wordpools/wasnorm_wordpool.txt	LTP101	ltpFR	0	10	0	TAXI	1438	n/a	1	1	0.412841796875	0.57763671875	upper	../fonts/amplitud.ttf
2188.248	n/a	WORD	1094124	wordpools/wasnorm_wordpool.txt	LTP101	ltpFR	0	10	0	SUBWAY	1400	n/a	1	1	0.412841796875	0.57763671875	upper	../fonts/amplitud.ttf
2192.088	n/a	WORD	1096044	wordpools/wasnorm_wordpool.txt	LTP101	ltpFR	0	10	0	SHRINE	1298	n/a	1	1	0.412841796875	0.57763671875	upper	../fonts/amplitud.ttf
2196.28	n/a	WORD	1098140	wordpools/wasnorm_wordpool.txt	LTP101	ltpFR	0	10	0	SAXOPHONE	1240	n/a	1	1	0.412841796875	0.57763671875	upper	../fonts/amplitud.ttf
2200.448	n/a	WORD	1100224	wordpools/wasnorm_wordpool.txt	LTP101	ltpFR	0	10	0	SCARF	1246	n/a	0	1	0.412841796875	0.57763671875	upper	../fonts/amplitud.ttf
2204.464	n/a	WORD	1102232	wordpools/wasnorm_wordpool.txt	LTP101	ltpFR	0	10	0	EGG	518	n/a	0	1	0.412841796875	0.57763671875	upper	../fonts/amplitud.ttf
2208.648	n/a	WORD	1104324	wordpools/wasnorm_wordpool.txt	LTP101	ltpFR	0	10	0	POPE	1105	n/a	1	1	0.412841796875	0.57763671875	upper	../fonts/amplitud.ttf
2212.506	n/a	WORD	1106253	wordpools/wasnorm_wordpool.txt	LTP101	ltpFR	0	10	0	RAM	1165	n/a	1	1	0.412841796875	0.57763671875	upper	../fonts/amplitud.ttf
2216.348	n/a	WORD	1108174	wordpools/wasnorm_wordpool.txt	LTP101	ltpFR	0	10	0	DIRT	472	n/a	0	1	0.412841796875	0.57763671875	upper	../fonts/amplitud.ttf
2220.38	n/a	WORD	1110190	wordpools/wasnorm_wordpool.txt	LTP101	ltpFR	0	10	0	EXPLOSION	544	n/a	1	1	0.412841796875	0.57763671875	upper	../fonts/amplitud.ttf
2226.172	n/a	REC_START	1113086	n/a	LTP101	ltpFR	0	10	n/a	n/a	n/a	n/a	n/a	n/a	n/a	n/a	n/a	n/a
2227.812	n/a	REC_WORD	1113906	wordpools/wasnorm_wordpool.txt	LTP101	ltpFR	0	10	0	EXPLOSION	544	n/a	1	n/a	n/a	n/a	n/a	n/a
2229.648	n/a	REC_WORD	1114824	wordpools/wasnorm_wordpool.txt	LTP101	ltpFR	0	10	0	POPE	1105	n/a	1	n/a	n/a	n/a	n/a	n/a
2230.72	n/a	REC_WORD	1115360	wordpools/wasnorm_wordpool.txt	LTP101	ltpFR	0	10	0	DIRT	472	n/a	0	n/a	n/a	n/a	n/a	n/a
2231.46	n/a	REC_WORD	1115730	wordpools/wasnorm_wordpool.txt	LTP101	ltpFR	0	10	0	RAM	1165	n/a	1	n/a	n/a	n/a	n/a	n/a
2233.42	n/a	REC_WORD	1116710	wordpools/wasnorm_wordpool.txt	LTP101	ltpFR	0	10	0	LINT	826	n/a	0	n/a	n/a	n/a	n/a	n/a
2234.352	n/a	REC_WORD	1117176	wordpools/wasnorm_wordpool.txt	LTP101	ltpFR	0	10	0	SINK	1309	n/a	1	n/a	n/a	n/a	n/a	n/a
2235.306	n/a	REC_WORD	1117653	wordpools/wasnorm_wordpool.txt	LTP101	ltpFR	0	10	0	STORE	1387	n/a	1	n/a	n/a	n/a	n/a	n/a
2236.552	n/a	REC_WORD	1118276	wordpools/wasnorm_wordpool.txt	LTP101	ltpFR	0	10	0	CORK	380	n/a	0	n/a	n/a	n/a	n/a	n/a
2237.96	n/a	REC_WORD	1118980	wordpools/wasnorm_wordpool.txt	LTP101	ltpFR	0	10	0	HORSE	719	n/a	1	n/a	n/a	n/a	n/a	n/a
2238.908	n/a	REC_WORD	1119454	wordpools/wasnorm_wordpool.txt	LTP101	ltpFR	0	10	0	CARRIAGE	248	n/a	1	n/a	n/a	n/a	n/a	n/a
2239.86	n/a	REC_WORD	1119930	wordpools/wasnorm_wordpool.txt	LTP101	ltpFR	0	10	0	TAXI	1438	n/a	1	n/a	n/a	n/a	n/a	n/a
2240.76	n/a	REC_WORD	1120380	wordpools/wasnorm_wordpool.txt	LTP101	ltpFR	0	10	0	SUBWAY	1400	n/a	1	n/a	n/a	n/a	n/a	n/a
2242.714	n/a	REC_WORD	1121357	wordpools/wasnorm_wordpool.txt	LTP101	ltpFR	0	10	0	SHRINE	1298	n/a	1	n/a	n/a	n/a	n/a	n/a
2243.782	n/a	REC_WORD	1121891	wordpools/wasnorm_wordpool.txt	LTP101	ltpFR	0	10	0	SAXOPHONE	1240	n/a	1	n/a	n/a	n/a	n/a	n/a
2245.004	n/a	REC_WORD	1122502	wordpools/wasnorm_wordpool.txt	LTP101	ltpFR	0	10	0	SCARF	1246	n/a	0	n/a	n/a	n/a	n/a	n/a
2247.658	n/a	REC_WORD_VV	1123829	wordpools/wasnorm_wordpool.txt	LTP101	ltpFR	0	10	n/a	<>	-1	n/a	n/a	n/a	n/a	n/a	n/a	n/a
2283.33	n/a	REC_WORD	1141665	wordpools/wasnorm_wordpool.txt	LTP101	ltpFR	0	10	0	EXPLOSION	544	n/a	1	n/a	n/a	n/a	n/a	n/a
2305.436	n/a	WORD	1152718	wordpools/wasnorm_wordpool.txt	LTP101	ltpFR	0	11	0	RELISH	1183	n/a	0	1	0.412841796875	0.57763671875	upper	../fonts/amplitud.ttf
2309.536	n/a	WORD	1154768	wordpools/wasnorm_wordpool.txt	LTP101	ltpFR	0	11	0	LEMON	810	n/a	0	1	0.412841796875	0.57763671875	upper	../fonts/amplitud.ttf
2313.536	n/a	WORD	1156768	wordpools/wasnorm_wordpool.txt	LTP101	ltpFR	0	11	0	KITCHEN	778	n/a	1	1	0.412841796875	0.57763671875	upper	../fonts/amplitud.ttf
2317.594	n/a	WORD	1158797	wordpools/wasnorm_wordpool.txt	LTP101	ltpFR	0	11	0	AIRCRAFT	11	n/a	1	1	0.412841796875	0.57763671875	upper	../fonts/amplitud.ttf
2321.77	n/a	WORD	1160885	wordpools/wasnorm_wordpool.txt	LTP101	ltpFR	0	11	0	DIAMOND	458	n/a	0	1	0.412841796875	0.57763671875	upper	../fonts/amplitud.ttf
2325.978	n/a	WORD	1162989	wordpools/wasnorm_wordpool.txt	LTP101	ltpFR	0	11	0	CARAVAN	242	n/a	1	1	0.412841796875	0.57763671875	upper	../fonts/amplitud.ttf
2330.044	n/a	WORD	1165022	wordpools/wasnorm_wordpool.txt	LTP101	ltpFR	0	11	0	FURNITURE	616	n/a	1	1	0.412841796875	0.57763671875	upper	../fonts/amplitud.ttf
2333.876	n/a	WORD	1166938	wordpools/wasnorm_wordpool.txt	LTP101	ltpFR	0	11	0	SHACK	1273	n/a	1	1	0.412841796875	0.57763671875	upper	../fonts/amplitud.ttf
2338.002	n/a	WORD	1169001	wordpools/wasnorm_wordpool.txt	LTP101	ltpFR	0	11	0	CHECKERS	285	n/a	0	1	0.412841796875	0.57763671875	upper	../fonts/amplitud.ttf
2341.844	n/a	WORD	1170922	wordpools/wasnorm_wordpool.txt	LTP101	ltpFR	0	11	0	SKILLET	1317	n/a	0	1	0.412841796875	0.57763671875	upper	../fonts/amplitud.ttf
2345.826	n/a	WORD	1172913	wordpools/wasnorm_wordpool.txt	LTP101	ltpFR	0	11	0	BIRD	129	n/a	0	1	0.412841796875	0.57763671875	upper	../fonts/amplitud.ttf
2350.026	n/a	WORD	1175013	wordpools/wasnorm_wordpool.txt	LTP101	ltpFR	0	11	0	SWAN	1417	n/a	1	1	0.412841796875	0.57763671875	upper	../fonts/amplitud.ttf
2353.868	n/a	WORD	1176934	wordpools/wasnorm_wordpool.txt	LTP101	ltpFR	0	11	0	ELBOW	520	n/a	0	1	0.412841796875	0.57763671875	upper	../fonts/amplitud.ttf
2357.702	n/a	WORD	1178851	wordpools/wasnorm_wordpool.txt	LTP101	ltpFR	0	11	0	PAIL	1002	n/a	0	1	0.412841796875	0.57763671875	upper	../fonts/amplitud.ttf
2361.786	n/a	WORD	1180893	wordpools/wasnorm_wordpool.txt	LTP101	ltpFR	0	11	0	ROCK	1201	n/a	0	1	0.412841796875	0.57763671875	upper	../fonts/amplitud.ttf
2365.694	n/a	WORD	1182847	wordpools/wasnorm_wordpool.txt	LTP101	ltpFR	0	11	0	VAN	1548	n/a	1	1	0.412841796875	0.57763671875	upper	../fonts/amplitud.ttf
2371.602	n/a	REC_START	1185801	n/a	LTP101	ltpFR	0	11	n/a	n/a	n/a	n/a	n/a	n/a	n/a	n/a	n/a	n/a
2373.048	n/a	REC_WORD	1186524	wordpools/wasnorm_wordpool.txt	LTP101	ltpFR	0	11	0	VAN	1548	n/a	1	n/a	n/a	n/a	n/a	n/a
2373.982	n/a	REC_WORD	1186991	wordpools/wasnorm_wordpool.txt	LTP101	ltpFR	0	11	0	ROCK	1201	n/a	0	n/a	n/a	n/a	n/a	n/a
2375.25	n/a	REC_WORD	1187625	wordpools/wasnorm_wordpool.txt	LTP101	ltpFR	0	11	0	ELBOW	520	n/a	0	n/a	n/a	n/a	n/a	n/a
2376.816	n/a	REC_WORD	1188408	wordpools/wasnorm_wordpool.txt	LTP101	ltpFR	0	11	0	RELISH	1183	n/a	0	n/a	n/a	n/a	n/a	n/a
2378.496	n/a	REC_WORD	1189248	wordpools/wasnorm_wordpool.txt	LTP101	ltpFR	0	11	0	LEMON	810	n/a	0	n/a	n/a	n/a	n/a	n/a
2379.49	n/a	REC_WORD	1189745	wordpools/wasnorm_wordpool.txt	LTP101	ltpFR	0	11	0	KITCHEN	778	n/a	1	n/a	n/a	n/a	n/a	n/a
2380.418	n/a	REC_WORD	1190209	wordpools/wasnorm_wordpool.txt	LTP101	ltpFR	0	11	0	AIRCRAFT	11	n/a	1	n/a	n/a	n/a	n/a	n/a
2382.17	n/a	REC_WORD	1191085	wordpools/wasnorm_wordpool.txt	LTP101	ltpFR	0	11	0	BIRD	129	n/a	0	n/a	n/a	n/a	n/a	n/a
2383.002	n/a	REC_WORD	1191501	wordpools/wasnorm_wordpool.txt	LTP101	ltpFR	0	11	0	SKILLET	1317	n/a	0	n/a	n/a	n/a	n/a	n/a
2384.09	n/a	REC_WORD	1192045	wordpools/wasnorm_wordpool.txt	LTP101	ltpFR	0	11	0	SWAN	1417	n/a	1	n/a	n/a	n/a	n/a	n/a
2385.426	n/a	REC_WORD	1192713	wordpools/wasnorm_wordpool.txt	LTP101	ltpFR	0	11	0	PAIL	1002	n/a	0	n/a	n/a	n/a	n/a	n/a
2388.84	n/a	REC_WORD_VV	1194420	wordpools/wasnorm_wordpool.txt	LTP101	ltpFR	0	11	n/a	<>	-1	n/a	n/a	n/a	n/a	n/a	n/a	n/a
2395.334	n/a	REC_WORD	1197667	wordpools/wasnorm_wordpool.txt	LTP101	ltpFR	0	11	0	CARAVAN	242	n/a	1	n/a	n/a	n/a	n/a	n/a
2404.524	n/a	REC_WORD	1202262	wordpools/wasnorm_wordpool.txt	LTP101	ltpFR	0	11	0	DIAMOND	458	n/a	0	n/a	n/a	n/a	n/a	n/a
2451.232	n/a	WORD	1225616	wordpools/wasnorm_wordpool.txt	LTP101	ltpFR	0	12	0	GUARD	667	n/a	0	1	0.412841796875	0.57763671875	upper	../fonts/amplitud.ttf
2455.374	n/a	WORD	1227687	wordpools/wasnorm_wordpool.txt	LTP101	ltpFR	0	12	0	DETERGENT	455	n/a	0	1	0.412841796875	0.57763671875	upper	../fonts/amplitud.ttf
2459.516	n/a	WORD	1229758	wordpools/wasnorm_wordpool.txt	LTP101	ltpFR	0	12	0	PHOTO	1055	n/a	0	1	0.412841796875	0.57763671875	upper	../fonts/amplitud.ttf
2463.374	n/a	WORD	1231687	wordpools/wasnorm_wordpool.txt	LTP101	ltpFR	0	12	0	BADGE	68	n/a	0	1	0.412841796875	0.57763671875	upper	../fonts/amplitud.ttf
2467.416	n/a	WORD	1233708	wordpools/wasnorm_wordpool.txt	LTP101	ltpFR	0	12	0	CORAL	378	n/a	0	1	0.412841796875	0.57763671875	upper	../fonts/amplitud.ttf
2471.416	n/a	WORD	1235708	wordpools/wasnorm_wordpool.txt	LTP101	ltpFR	0	12	0	TIDE	1465	n/a	1	1	0.412841796875	0.57763671875	upper	../fonts/amplitud.ttf
2475.282	n/a	WORD	1237641	wordpools/wasnorm_wordpool.txt	LTP101	ltpFR	0	12	0	PORTRAIT	1111	n/a	0	1	0.412841796875	0.57763671875	upper	../fonts/amplitud.ttf
2479.232	n/a	WORD	1239616	wordpools/wasnorm_wordpool.txt	LTP101	ltpFR	0	12	0	RANCH	1166	n/a	1	1	0.412841796875	0.57763671875	upper	../fonts/amplitud.ttf
2483.164	n/a	WORD	1241582	wordpools/wasnorm_wordpool.txt	LTP101	ltpFR	0	12	0	WHEAT	1602	n/a	0	1	0.412841796875	0.57763671875	upper	../fonts/amplitud.ttf
2487.082	n/a	WORD	1243541	wordpools/wasnorm_wordpool.txt	LTP101	ltpFR	0	12	0	SCREWDRIVER	1255	n/a	0	1	0.412841796875	0.57763671875	upper	../fonts/amplitud.ttf
2491.248	n/a	WORD	1245624	wordpools/wasnorm_wordpool.txt	LTP101	ltpFR	0	12	0	MONARCH	906	n/a	1	1	0.412841796875	0.57763671875	upper	../fonts/amplitud.ttf
2495.298	n/a	WORD	1247649	wordpools/wasnorm_wordpool.txt	LTP101	ltpFR	0	12	0	PALACE	1006	n/a	1	1	0.412841796875	0.57763671875	upper	../fonts/amplitud.ttf
2499.25	n/a	WORD	1249625	wordpools/wasnorm_wordpool.txt	LTP101	ltpFR	0	12	0	BANDANNA	80	n/a	0	1	0.412841796875	0.57763671875	upper	../fonts/amplitud.ttf
2503.164	n/a	WORD	1251582	wordpools/wasnorm_wordpool.txt	LTP101	ltpFR	0	12	0	COOLER	375	n/a	1	1	0.412841796875	0.57763671875	upper	../fonts/amplitud.ttf
2507.316	n/a	WORD	1253658	wordpools/wasnorm_wordpool.txt	LTP101	ltpFR	0	12	0	CABOOSE	214	n/a	1	1	0.412841796875	0.57763671875	upper	../fonts/amplitud.ttf
2511.374	n/a	WORD	1255687	wordpools/wasnorm_wordpool.txt	LTP101	ltpFR	0	12	0	HORNET	718	n/a	0	1	0.412841796875	0.57763671875	upper	../fonts/amplitud.ttf
2517.09	n/a	REC_START	1258545	n/a	LTP101	ltpFR	0	12	n/a	n/a	n/a	n/a	n/a	n/a	n/a	n/a	n/a	n/a
2518.522	n/a	REC_WORD	1259261	wordpools/wasnorm_wordpool.txt	LTP101	ltpFR	0	12	0	HORNET	718	n/a	0	n/a	n/a	n/a	n/a	n/a
2519.644	n/a	REC_WORD	1259822	wordpools/wasnorm_wordpool.txt	LTP101	ltpFR	0	12	0	SCREWDRIVER	1255	n/a	0	n/a	n/a	n/a	n/a	n/a
2521.354	n/a	REC_WORD	1260677	wordpools/wasnorm_wordpool.txt	LTP101	ltpFR	0	12	0	MONARCH	906	n/a	1	n/a	n/a	n/a	n/a	n/a
2522.492	n/a	REC_WORD	1261246	wordpools/wasnorm_wordpool.txt	LTP101	ltpFR	0	12	0	PALACE	1006	n/a	1	n/a	n/a	n/a	n/a	n/a
2523.54	n/a	REC_WORD	1261770	wordpools/wasnorm_wordpool.txt	LTP101	ltpFR	0	12	0	BANDANNA	80	n/a	0	n/a	n/a	n/a	n/a	n/a
2526.702	n/a	REC_WORD_VV	1263351	wordpools/wasnorm_wordpool.txt	LTP101	ltpFR	0	12	n/a	<>	-1	n/a	n/a	n/a	n/a	n/a	n/a	n/a
2541.25	n/a	REC_WORD	1270625	wordpools/wasnorm_wordpool.txt	LTP101	ltpFR	0	12	0	GUARD	667	n/a	0	n/a	n/a	n/a	n/a	n/a
2542.208	n/a	REC_WORD	1271104	wordpools/wasnorm_wordpool.txt	LTP101	ltpFR	0	12	0	DETERGENT	455	n/a	0	n/a	n/a	n/a	n/a	n/a
2543.466	n/a	REC_WORD	1271733	wordpools/wasnorm_wordpool.txt	LTP101	ltpFR	0	12	0	BADGE	68	n/a	0	n/a	n/a	n/a	n/a	n/a
2545.196	n/a	REC_WORD	1272598	wordpools/wasnorm_wordpool.txt	LTP101	ltpFR	0	12	0	PHOTO	1055	n/a	0	n/a	n/a	n/a	n/a	n/a
2554.026	n/a	REC_WORD	1277013	wordpools/wasnorm_wordpool.txt	LTP101	ltpFR	0	12	0	TIDE	1465	n/a	1	n/a	n/a	n/a	n/a	n/a
2592.67	n/a	REST_REWET	1296335	n/a	LTP101	ltpFR	0	12	n/a	n/a	n/a	n/a	n/a	n/a	n/a	n/a	n/a	n/a
3435.726	n/a	WORD	1717863	wordpools/wasnorm_wordpool.txt	LTP101	ltpFR	0	13	1	DOUGH	489	n/a	0	0	0.5869140625	0.422607421875	lower	../fonts/zerothre.ttf
3439.916	n/a	WORD	1719958	wordpools/wasnorm_wordpool.txt	LTP101	ltpFR	0	13	1	CABINET	212	n/a	0	0	0.5869140625	0.422607421875	lower	../fonts/zerothre.ttf
3443.8	n/a	WORD	1721900	wordpools/wasnorm_wordpool.txt	LTP101	ltpFR	0	13	0	RIB	1188	n/a	0	1	0.412841796875	0.57763671875	upper	../fonts/amplitud.ttf
3447.818	n/a	WORD	1723909	wordpools/wasnorm_wordpool.txt	LTP101	ltpFR	0	13	0	CUSTOMER	430	n/a	1	1	0.412841796875	0.57763671875	upper	../fonts/amplitud.ttf
3451.9	n/a	WORD	1725950	wordpools/wasnorm_wordpool.txt	LTP101	ltpFR	0	13	1	CHAIN	273	n/a	0	0	0.5869140625	0.422607421875	lower	../fonts/zerothre.ttf
3456.008	n/a	WORD	1728004	wordpools/wasnorm_wordpool.txt	LTP101	ltpFR	0	13	1	BEAD	103	n/a	0	0	0.5869140625	0.422607421875	lower	../fonts/zerothre.ttf
3459.826	n/a	WORD	1729913	wordpools/wasnorm_wordpool.txt	LTP101	ltpFR	0	13	1	CRIB	407	n/a	0	0	0.5869140625	0.422607421875	lower	../fonts/zerothre.ttf
3463.716	n/a	WORD	1731858	wordpools/wasnorm_wordpool.txt	LTP101	ltpFR	0	13	1	SUNRISE	1407	n/a	0	0	0.5869140625	0.422607421875	lower	../fonts/zerothre.ttf
3467.574	n/a	WORD	1733787	wordpools/wasnorm_wordpool.txt	LTP101	ltpFR	0	13	1	DOLLAR	482	n/a	0	0	0.5869140625	0.422607421875	lower	../fonts/zerothre.ttf
3471.616	n/a	WORD	1735808	wordpools/wasnorm_wordpool.txt	LTP101	ltpFR	0	13	1	CATERPILLAR	259	n/a	1	0	0.5869140625	0.422607421875	lower	../fonts/zerothre.ttf
3475.526	n/a	WORD	1737763	wordpools/wasnorm_wordpool.txt	LTP101	ltpFR	0	13	0	SUN	1406	n/a	1	1	0.412841796875	0.57763671875	upper	../fonts/amplitud.ttf
3479.492	n/a	WORD	1739746	wordpools/wasnorm_wordpool.txt	LTP101	ltpFR	0	13	0	PIRATE	1074	n/a	1	1	0.412841796875	0.57763671875	upper	../fonts/amplitud.ttf
3483.582	n/a	WORD	1741791	wordpools/wasnorm_wordpool.txt	LTP101	ltpFR	0	13	0	GOO	648	n/a	0	1	0.412841796875	0.57763671875	upper	../fonts/amplitud.ttf
3487.492	n/a	WORD	1743746	wordpools/wasnorm_wordpool.txt	LTP101	ltpFR	0	13	0	PERSONNEL	1053	n/a	1	1	0.412841796875	0.57763671875	upper	../fonts/amplitud.ttf
3491.308	n/a	WORD	1745654	wordpools/wasnorm_wordpool.txt	LTP101	ltpFR	0	13	0	COMMITTEE	355	n/a	1	1	0.412841796875	0.57763671875	upper	../fonts/amplitud.ttf
3495.45	n/a	WORD	1747725	wordpools/wasnorm_wordpool.txt	LTP101	ltpFR	0	13	0	QUARTER	1148	n/a	0	1	0.412841796875	0.57763671875	upper	../fonts/amplitud.ttf
3501.384	n/a	REC_START	1750692	n/a	LTP101	ltpFR	0	13	n/a	n/a	n/a	n/a	n/a	n/a	n/a	n/a	n/a	n/a
3502.85	n/a	REC_WORD	1751425	wordpools/wasnorm_wordpool.txt	LTP101	ltpFR	0	13	0	QUARTER	1148	n/a	0	n/a	n/a	n/a	n/a	n/a
3503.686	n/a	REC_WORD	1751843	wordpools/wasnorm_wordpool.txt	LTP101	ltpFR	0	13	0	PERSONNEL	1053	n/a	1	n/a	n/a	n/a	n/a	n/a
3504.85	n/a	REC_WORD	1752425	wordpools/wasnorm_wordpool.txt	LTP101	ltpFR	0	13	0	COMMITTEE	355	n/a	1	n/a	n/a	n/a	n/a	n/a
3506.258	n/a	REC_WORD	1753129	wordpools/wasnorm_wordpool.txt	LTP101	ltpFR	0	13	1	DOUGH	489	n/a	0	n/a	n/a	n/a	n/a	n/a
3507.11	n/a	REC_WORD	1753555	wordpools/wasnorm_wordpool.txt	LTP101	ltpFR	0	13	1	CATERPILLAR	259	n/a	1	n/a	n/a	n/a	n/a	n/a
3508.332	n/a	REC_WORD_VV	1754166	wordpools/wasnorm_wordpool.txt	LTP101	ltpFR	0	13	n/a	<>	-1	n/a	n/a	n/a	n/a	n/a	n/a	n/a
3510.448	n/a	REC_WORD_VV	1755224	wordpools/wasnorm_wordpool.txt	LTP101	ltpFR	0	13	n/a	<>	-1	n/a	n/a	n/a	n/a	n/a	n/a	n/a
3510.788	n/a	REC_WORD	1755394	wordpools/wasnorm_wordpool.txt	LTP101	ltpFR	0	13	0	PIRATE	1074	n/a	1	n/a	n/a	n/a	n/a	n/a
3512.798	n/a	REC_WORD_VV	1756399	wordpools/wasnorm_wordpool.txt	LTP101	ltpFR	0	13	n/a	<>	-1	n/a	n/a	n/a	n/a	n/a	n/a	n/a
3522.696	n/a	REC_WORD	1761348	wordpools/wasnorm_wordpool.txt	LTP101	ltpFR	0	13	n/a	SUNSHINE	-1	n/a	n/a	n/a	n/a	n/a	n/a	n/a
3525.51	n/a	REC_WORD_VV	1762755	wordpools/wasnorm_wordpool.txt	LTP101	ltpFR	0	13	n/a	<>	-1	n/a	n/a	n/a	n/a	n/a	n/a	n/a
3531.126	n/a	REC_WORD	1765563	wordpools/wasnorm_wordpool.txt	LTP101	ltpFR	0	13	1	CHAIN	273	n/a	0	n/a	n/a	n/a	n/a	n/a
3538.176	n/a	REC_WORD	1769088	wordpools/wasnorm_wordpool.txt	LTP101	ltpFR	0	13	0	GOO	648	n/a	0	n/a	n/a	n/a	n/a	n/a
3550.08	n/a	REC_WORD	1775040	wordpools/wasnorm_wordpool.txt	LTP101	ltpFR	0	13	0	RIB	1188	n/a	0	n/a	n/a	n/a	n/a	n/a
3588.406	n/a	WORD	1794203	wordpools/wasnorm_wordpool.txt	LTP101	ltpFR	0	14	0	ANTEATER	26	n/a	1	1	0.412841796875	0.57763671875	upper	../fonts/amplitud.ttf
3592.372	n/a	WORD	1796186	wordpools/wasnorm_wordpool.txt	LTP101	ltpFR	0	14	0	PAINTING	1005	n/a	1	1	0.412841796875	0.57763671875	upper	../fonts/amplitud.ttf
3596.338	n/a	WORD	1798169	wordpools/wasnorm_wordpool.txt	LTP101	ltpFR	0	14	1	CAMERA	224	n/a	0	0	0.5869140625	0.422607421875	lower	../fonts/zerothre.ttf
3600.322	n/a	WORD	1800161	wordpools/wasnorm_wordpool.txt	LTP101	ltpFR	0	14	1	SWORD	1423	n/a	0	0	0.5869140625	0.422607421875	lower	../fonts/zerothre.ttf
3604.464	n/a	WORD	1802232	wordpools/wasnorm_wordpool.txt	LTP101	ltpFR	0	14	1	JUVENILE	767	n/a	1	0	0.5869140625	0.422607421875	lower	../fonts/zerothre.ttf
3608.546	n/a	WORD	1804273	wordpools/wasnorm_wordpool.txt	LTP101	ltpFR	0	14	1	NOSE	957	n/a	1	0	0.5869140625	0.422607421875	lower	../fonts/zerothre.ttf
3612.364	n/a	WORD	1806182	wordpools/wasnorm_wordpool.txt	LTP101	ltpFR	0	14	0	SNORKEL	1336	n/a	0	1	0.412841796875	0.57763671875	upper	../fonts/amplitud.ttf
3616.338	n/a	WORD	1808169	wordpools/wasnorm_wordpool.txt	LTP101	ltpFR	0	14	0	CREEK	404	n/a	1	1	0.412841796875	0.57763671875	upper	../fonts/amplitud.ttf
3620.512	n/a	WORD	1810256	wordpools/wasnorm_wordpool.txt	LTP101	ltpFR	0	14	0	GALAXY	617	n/a	1	1	0.412841796875	0.57763671875	upper	../fonts/amplitud.ttf
3624.538	n/a	WORD	1812269	wordpools/wasnorm_wordpool.txt	LTP101	ltpFR	0	14	0	FLAG	573	n/a	0	1	0.412841796875	0.57763671875	upper	../fonts/amplitud.ttf
3628.63	n/a	WORD	1814315	wordpools/wasnorm_wordpool.txt	LTP101	ltpFR	0	14	1	ALLIGATOR	16	n/a	1	0	0.5869140625	0.422607421875	lower	../fonts/zerothre.ttf
3632.622	n/a	WORD	1816311	wordpools/wasnorm_wordpool.txt	LTP101	ltpFR	0	14	1	CONVICT	371	n/a	1	0	0.5869140625	0.422607421875	lower	../fonts/zerothre.ttf
3636.546	n/a	WORD	1818273	wordpools/wasnorm_wordpool.txt	LTP101	ltpFR	0	14	1	TRAITOR	1495	n/a	1	0	0.5869140625	0.422607421875	lower	../fonts/zerothre.ttf
3640.454	n/a	WORD	1820227	wordpools/wasnorm_wordpool.txt	LTP101	ltpFR	0	14	1	SKULL	1320	n/a	0	0	0.5869140625	0.422607421875	lower	../fonts/zerothre.ttf
3644.646	n/a	WORD	1822323	wordpools/wasnorm_wordpool.txt	LTP101	ltpFR	0	14	0	RACCOON	1153	n/a	1	1	0.412841796875	0.57763671875	upper	../fonts/amplitud.ttf
3648.496	n/a	WORD	1824248	wordpools/wasnorm_wordpool.txt	LTP101	ltpFR	0	14	0	SCALPEL	1243	n/a	0	1	0.412841796875	0.57763671875	upper	../fonts/amplitud.ttf
3654.154	n/a	REC_START	1827077	n/a	LTP101	ltpFR	0	14	n/a	n/a	n/a	n/a	n/a	n/a	n/a	n/a	n/a	n/a
3655.256	n/a	REC_WORD	1827628	wordpools/wasnorm_wordpool.txt	LTP101	ltpFR	0	14	0	SCALPEL	1243	n/a	0	n/a	n/a	n/a	n/a	n/a
3656.712	n/a	REC_WORD	1828356	wordpools/wasnorm_wordpool.txt	LTP101	ltpFR	0	14	1	SKULL	1320	n/a	0	n/a	n/a	n/a	n/a	n/a
3657.85	n/a	REC_WORD	1828925	wordpools/wasnorm_wordpool.txt	LTP101	ltpFR	0	14	0	RACCOON	1153	n/a	1	n/a	n/a	n/a	n/a	n/a
3659.806	n/a	REC_WORD	1829903	wordpools/wasnorm_wordpool.txt	LTP101	ltpFR	0	14	0	GALAXY	617	n/a	1	n/a	n/a	n/a	n/a	n/a
3662.08	n/a	REC_WORD	1831040	wordpools/wasnorm_wordpool.txt	LTP101	ltpFR	0	14	1	ALLIGATOR	16	n/a	1	n/a	n/a	n/a	n/a	n/a
3664.56	n/a	REC_WORD	1832280	wordpools/wasnorm_wordpool.txt	LTP101	ltpFR	0	14	0	FLAG	573	n/a	0	n/a	n/a	n/a	n/a	n/a
3671.316	n/a	REC_WORD	1835658	wordpools/wasnorm_wordpool.txt	LTP101	ltpFR	0	14	1	CONVICT	371	n/a	1	n/a	n/a	n/a	n/a	n/a
3672.448	n/a	REC_WORD	1836224	wordpools/wasnorm_wordpool.txt	LTP101	ltpFR	0	14	1	JUVENILE	767	n/a	1	n/a	n/a	n/a	n/a	n/a
3676.778	n/a	REC_WORD	1838389	wordpools/wasnorm_wordpool.txt	LTP101	ltpFR	0	14	1	NOSE	957	n/a	1	n/a	n/a	n/a	n/a	n/a
3735.544	n/a	WORD	1867772	wordpools/wasnorm_wordpool.txt	LTP101	ltpFR	0	15	1	STRANGER	1389	n/a	1	0	0.5869140625	0.422607421875	lower	../fonts/zerothre.ttf
3739.684	n/a	WORD	1869842	wordpools/wasnorm_wordpool.txt	LTP101	ltpFR	0	15	1	TIMBER	1469	n/a	0	0	0.5869140625	0.422607421875	lower	../fonts/zerothre.ttf
3743.676	n/a	WORD	1871838	wordpools/wasnorm_wordpool.txt	LTP101	ltpFR	0	15	1	FLESH	579	n/a	1	0	0.5869140625	0.422607421875	lower	../fonts/zerothre.ttf
3747.76	n/a	WORD	1873880	wordpools/wasnorm_wordpool.txt	LTP101	ltpFR	0	15	0	LIVER	833	n/a	0	1	0.412841796875	0.57763671875	upper	../fonts/amplitud.ttf
3751.668	n/a	WORD	1875834	wordpools/wasnorm_wordpool.txt	LTP101	ltpFR	0	15	0	SHRUB	1299	n/a	0	1	0.412841796875	0.57763671875	upper	../fonts/amplitud.ttf
3755.668	n/a	WORD	1877834	wordpools/wasnorm_wordpool.txt	LTP101	ltpFR	0	15	1	TOY	1492	n/a	0	0	0.5869140625	0.422607421875	lower	../fonts/zerothre.ttf
3759.702	n/a	WORD	1879851	wordpools/wasnorm_wordpool.txt	LTP101	ltpFR	0	15	1	QUILT	1151	n/a	0	0	0.5869140625	0.422607421875	lower	../fonts/zerothre.ttf
3763.6	n/a	WORD	1881800	wordpools/wasnorm_wordpool.txt	LTP101	ltpFR	0	15	1	BLANKET	135	n/a	0	0	0.5869140625	0.422607421875	lower	../fonts/zerothre.ttf
3767.694	n/a	WORD	1883847	wordpools/wasnorm_wordpool.txt	LTP101	ltpFR	0	15	0	OTTER	986	n/a	1	1	0.412841796875	0.57763671875	upper	../fonts/amplitud.ttf
3771.676	n/a	WORD	1885838	wordpools/wasnorm_wordpool.txt	LTP101	ltpFR	0	15	0	BUYER	208	n/a	1	1	0.412841796875	0.57763671875	upper	../fonts/amplitud.ttf
3775.776	n/a	WORD	1887888	wordpools/wasnorm_wordpool.txt	LTP101	ltpFR	0	15	0	CELLAR	267	n/a	1	1	0.412841796875	0.57763671875	upper	../fonts/amplitud.ttf
3779.634	n/a	WORD	1889817	wordpools/wasnorm_wordpool.txt	LTP101	ltpFR	0	15	0	CANDY	230	n/a	0	1	0.412841796875	0.57763671875	upper	../fonts/amplitud.ttf
3783.666	n/a	WORD	1891833	wordpools/wasnorm_wordpool.txt	LTP101	ltpFR	0	15	0	DOLL	481	n/a	0	1	0.412841796875	0.57763671875	upper	../fonts/amplitud.ttf
3787.6	n/a	WORD	1893800	wordpools/wasnorm_wordpool.txt	LTP101	ltpFR	0	15	0	PITCHFORK	1078	n/a	1	1	0.412841796875	0.57763671875	upper	../fonts/amplitud.ttf
3791.576	n/a	WORD	1895788	wordpools/wasnorm_wordpool.txt	LTP101	ltpFR	0	15	1	LINEN	825	n/a	0	0	0.5869140625	0.422607421875	lower	../fonts/zerothre.ttf
3795.526	n/a	WORD	1897763	wordpools/wasnorm_wordpool.txt	LTP101	ltpFR	0	15	1	FISH	571	n/a	1	0	0.5869140625	0.422607421875	lower	../fonts/zerothre.ttf
3801.216	n/a	REC_START	1900608	n/a	LTP101	ltpFR	0	15	n/a	n/a	n/a	n/a	n/a	n/a	n/a	n/a	n/a	n/a
3802.728	n/a	REC_WORD	1901364	wordpools/wasnorm_wordpool.txt	LTP101	ltpFR	0	15	0	PITCHFORK	1078	n/a	1	n/a	n/a	n/a	n/a	n/a
3803.78	n/a	REC_WORD	1901890	wordpools/wasnorm_wordpool.txt	LTP101	ltpFR	0	15	1	LINEN	825	n/a	0	n/a	n/a	n/a	n/a	n/a
3804.844	n/a	REC_WORD	1902422	wordpools/wasnorm_wordpool.txt	LTP101	ltpFR	0	15	1	FISH	571	n/a	1	n/a	n/a	n/a	n/a	n/a
3806.236	n/a	REC_WORD	1903118	wordpools/wasnorm_wordpool.txt	LTP101	ltpFR	0	15	1	STRANGER	1389	n/a	1	n/a	n/a	n/a	n/a	n/a
3807.486	n/a	REC_WORD	1903743	wordpools/wasnorm_wordpool.txt	LTP101	ltpFR	0	15	0	SHRUB	1299	n/a	0	n/a	n/a	n/a	n/a	n/a
3808.736	n/a	REC_WORD	1904368	wordpools/wasnorm_wordpool.txt	LTP101	ltpFR	0	15	0	CANDY	230	n/a	0	n/a	n/a	n/a	n/a	n/a
3809.958	n/a	REC_WORD	1904979	wordpools/wasnorm_wordpool.txt	LTP101	ltpFR	0	15	0	DOLL	481	n/a	0	n/a	n/a	n/a	n/a	n/a
3811.244	n/a	REC_WORD	1905622	wordpools/wasnorm_wordpool.txt	LTP101	ltpFR	0	15	1	BLANKET	135	n/a	0	n/a	n/a	n/a	n/a	n/a
3812.486	n/a	REC_WORD	1906243	wordpools/wasnorm_wordpool.txt	LTP101	ltpFR	0	15	1	QUILT	1151	n/a	0	n/a	n/a	n/a	n/a	n/a
3814.836	n/a	REC_WORD	1907418	wordpools/wasnorm_wordpool.txt	LTP101	ltpFR	0	15	1	FISH	571	n/a	1	n/a	n/a	n/a	n/a	n/a
3819.54	n/a	REC_WORD	1909770	wordpools/wasnorm_wordpool.txt	LTP101	ltpFR	0	15	0	OTTER	986	n/a	1	n/a	n/a	n/a	n/a	n/a
3846.9	n/a	REC_WORD	1923450	wordpools/wasnorm_wordpool.txt	LTP101	ltpFR	0	15	1	FLESH	579	n/a	1	n/a	n/a	n/a	n/a	n/a
3849.29	n/a	REC_WORD	1924645	wordpools/wasnorm_wordpool.txt	LTP101	ltpFR	0	15	0	LIVER	833	n/a	0	n/a	n/a	n/a	n/a	n/a
3864.022	n/a	REC_WORD	1932011	wordpools/wasnorm_wordpool.txt	LTP101	ltpFR	0	15	1	TOY	1492	n/a	0	n/a	n/a	n/a	n/a	n/a
3890.456	n/a	WORD	1945228	wordpools/wasnorm_wordpool.txt	LTP101	ltpFR	0	16	0	PROFESSOR	1131	n/a	1	1	0.412841796875	0.57763671875	upper	../fonts/amplitud.ttf
3894.606	n/a	WORD	1947303	wordpools/wasnorm_wordpool.txt	LTP101	ltpFR	0	16	0	TEACHER	1440	n/a	1	1	0.412841796875	0.57763671875	upper	../fonts/amplitud.ttf
3898.648	n/a	WORD	1949324	wordpools/wasnorm_wordpool.txt	LTP101	ltpFR	0	16	0	STETHOSCOPE	1379	n/a	0	1	0.412841796875	0.57763671875	upper	../fonts/amplitud.ttf
3902.624	n/a	WORD	1951312	wordpools/wasnorm_wordpool.txt	LTP101	ltpFR	0	16	1	TULIP	1517	n/a	1	0	0.5869140625	0.422607421875	lower	../fonts/zerothre.ttf
3906.548	n/a	WORD	1953274	wordpools/wasnorm_wordpool.txt	LTP101	ltpFR	0	16	1	BEAST	108	n/a	1	0	0.5869140625	0.422607421875	lower	../fonts/zerothre.ttf
3910.664	n/a	WORD	1955332	wordpools/wasnorm_wordpool.txt	LTP101	ltpFR	0	16	1	ZUCCHINI	1638	n/a	1	0	0.5869140625	0.422607421875	lower	../fonts/zerothre.ttf
3914.664	n/a	WORD	1957332	wordpools/wasnorm_wordpool.txt	LTP101	ltpFR	0	16	0	BARLEY	88	n/a	0	1	0.412841796875	0.57763671875	upper	../fonts/amplitud.ttf
3918.638	n/a	WORD	1959319	wordpools/wasnorm_wordpool.txt	LTP101	ltpFR	0	16	0	PISTON	1076	n/a	0	1	0.412841796875	0.57763671875	upper	../fonts/amplitud.ttf
3922.782	n/a	WORD	1961391	wordpools/wasnorm_wordpool.txt	LTP101	ltpFR	0	16	0	PILOT	1070	n/a	1	1	0.412841796875	0.57763671875	upper	../fonts/amplitud.ttf
3926.856	n/a	WORD	1963428	wordpools/wasnorm_wordpool.txt	LTP101	ltpFR	0	16	0	BOARD	143	n/a	1	1	0.412841796875	0.57763671875	upper	../fonts/amplitud.ttf
3930.764	n/a	WORD	1965382	wordpools/wasnorm_wordpool.txt	LTP101	ltpFR	0	16	0	SCIENTIST	1249	n/a	1	1	0.412841796875	0.57763671875	upper	../fonts/amplitud.ttf
3934.588	n/a	WORD	1967294	wordpools/wasnorm_wordpool.txt	LTP101	ltpFR	0	16	1	HEDGE	699	n/a	0	0	0.5869140625	0.422607421875	lower	../fonts/zerothre.ttf
3938.564	n/a	WORD	1969282	wordpools/wasnorm_wordpool.txt	LTP101	ltpFR	0	16	1	ALMANAC	17	n/a	0	0	0.5869140625	0.422607421875	lower	../fonts/zerothre.ttf
3942.514	n/a	WORD	1971257	wordpools/wasnorm_wordpool.txt	LTP101	ltpFR	0	16	1	THESAURUS	1454	n/a	0	0	0.5869140625	0.422607421875	lower	../fonts/zerothre.ttf
3946.656	n/a	WORD	1973328	wordpools/wasnorm_wordpool.txt	LTP101	ltpFR	0	16	1	CUBE	420	n/a	0	0	0.5869140625	0.422607421875	lower	../fonts/zerothre.ttf
3950.864	n/a	WORD	1975432	wordpools/wasnorm_wordpool.txt	LTP101	ltpFR	0	16	1	PREDATOR	1120	n/a	1	0	0.5869140625	0.422607421875	lower	../fonts/zerothre.ttf
3956.53	n/a	REC_START	1978265	n/a	LTP101	ltpFR	0	16	n/a	n/a	n/a	n/a	n/a	n/a	n/a	n/a	n/a	n/a
3958.162	n/a	REC_WORD	1979081	wordpools/wasnorm_wordpool.txt	LTP101	ltpFR	0	16	1	PREDATOR	1120	n/a	1	n/a	n/a	n/a	n/a	n/a
3959.14	n/a	REC_WORD	1979570	wordpools/wasnorm_wordpool.txt	LTP101	ltpFR	0	16	1	ALMANAC	17	n/a	0	n/a	n/a	n/a	n/a	n/a
3960.078	n/a	REC_WORD	1980039	wordpools/wasnorm_wordpool.txt	LTP101	ltpFR	0	16	1	THESAURUS	1454	n/a	0	n/a	n/a	n/a	n/a	n/a
3961.85	n/a	REC_WORD	1980925	wordpools/wasnorm_wordpool.txt	LTP101	ltpFR	0	16	0	PROFESSOR	1131	n/a	1	n/a	n/a	n/a	n/a	n/a
3962.882	n/a	REC_WORD	1981441	wordpools/wasnorm_wordpool.txt	LTP101	ltpFR	0	16	0	TEACHER	1440	n/a	1	n/a	n/a	n/a	n/a	n/a
3963.674	n/a	REC_WORD	1981837	wordpools/wasnorm_wordpool.txt	LTP101	ltpFR	0	16	0	STETHOSCOPE	1379	n/a	0	n/a	n/a	n/a	n/a	n/a
3966.448	n/a	REC_WORD_VV	1983224	wordpools/wasnorm_wordpool.txt	LTP101	ltpFR	0	16	n/a	<>	-1	n/a	n/a	n/a	n/a	n/a	n/a	n/a
3970.694	n/a	REC_WORD	1985347	wordpools/wasnorm_wordpool.txt	LTP101	ltpFR	0	16	1	HEDGE	699	n/a	0	n/a	n/a	n/a	n/a	n/a
3974.884	n/a	REC_WORD_VV	1987442	wordpools/wasnorm_wordpool.txt	LTP101	ltpFR	0	16	n/a	<>	-1	n/a	n/a	n/a	n/a	n/a	n/a	n/a
3975.758	n/a	REC_WORD	1987879	wordpools/wasnorm_wordpool.txt	LTP101	ltpFR	0	16	1	TULIP	1517	n/a	1	n/a	n/a	n/a	n/a	n/a
3976.636	n/a	REC_WORD	1988318	wordpools/wasnorm_wordpool.txt	LTP101	ltpFR	0	16	1	BEAST	108	n/a	1	n/a	n/a	n/a	n/a	n/a
3977.3	n/a	REC_WORD	1988650	wordpools/wasnorm_wordpool.txt	LTP101	ltpFR	0	16	1	ZUCCHINI	1638	n/a	1	n/a	n/a	n/a	n/a	n/a
3980.692	n/a	REC_WORD	1990346	wordpools/wasnorm_wordpool.txt	LTP101	ltpFR	0	16	0	PILOT	1070	n/a	1	n/a	n/a	n/a	n/a	n/a
3981.49	n/a	REC_WORD	1990745	wordpools/wasnorm_wordpool.txt	LTP101	ltpFR	0	16	0	BOARD	143	n/a	1	n/a	n/a	n/a	n/a	n/a
3986.28	n/a	REC_WORD_VV	1993140	wordpools/wasnorm_wordpool.txt	LTP101	ltpFR	0	16	n/a	<>	-1	n/a	n/a	n/a	n/a	n/a	n/a	n/a
4013.758	n/a	REC_WORD	2006879	wordpools/wasnorm_wordpool.txt	LTP101	ltpFR	0	16	1	CUBE	420	n/a	0	n/a	n/a	n/a	n/a	n/a
4068.852	n/a	REC_START	2034426	n/a	LTP101	ltpFR	0	n/a	n/a	n/a	n/a	n/a	n/a	n/a	n/a	n/a	n/a	n/a
4069.88	n/a	FFR_REC_WORD	2034940	wordpools/wasnorm_wordpool.txt	LTP101	ltpFR	0	n/a	0	STETHOSCOPE	1379	n/a	0	n/a	n/a	n/a	n/a	n/a
4071.018	n/a	FFR_REC_WORD	2035509	wordpools/wasnorm_wordpool.txt	LTP101	ltpFR	0	n/a	0	PROFESSOR	1131	n/a	1	n/a	n/a	n/a	n/a	n/a
4072.12	n/a	FFR_REC_WORD	2036060	wordpools/wasnorm_wordpool.txt	LTP101	ltpFR	0	n/a	0	TEACHER	1440	n/a	1	n/a	n/a	n/a	n/a	n/a
4073.916	n/a	FFR_REC_WORD_VV	2036958	wordpools/wasnorm_wordpool.txt	LTP101	ltpFR	0	n/a	n/a	<>	-1	n/a	n/a	n/a	n/a	n/a	n/a	n/a
4074.41	n/a	FFR_REC_WORD	2037205	wordpools/wasnorm_wordpool.txt	LTP101	ltpFR	0	n/a	1	BEAST	108	n/a	1	n/a	n/a	n/a	n/a	n/a
4075.074	n/a	FFR_REC_WORD	2037537	wordpools/wasnorm_wordpool.txt	LTP101	ltpFR	0	n/a	1	TULIP	1517	n/a	1	n/a	n/a	n/a	n/a	n/a
4076.564	n/a	FFR_REC_WORD	2038282	wordpools/wasnorm_wordpool.txt	LTP101	ltpFR	0	n/a	1	FISH	571	n/a	1	n/a	n/a	n/a	n/a	n/a
4077.36	n/a	FFR_REC_WORD	2038680	wordpools/wasnorm_wordpool.txt	LTP101	ltpFR	0	n/a	1	NOSE	957	n/a	1	n/a	n/a	n/a	n/a	n/a
4078.082	n/a	FFR_REC_WORD	2039041	wordpools/wasnorm_wordpool.txt	LTP101	ltpFR	0	n/a	1	STRANGER	1389	n/a	1	n/a	n/a	n/a	n/a	n/a
4078.942	n/a	FFR_REC_WORD	2039471	wordpools/wasnorm_wordpool.txt	LTP101	ltpFR	0	n/a	1	ZUCCHINI	1638	n/a	1	n/a	n/a	n/a	n/a	n/a
4079.798	n/a	FFR_REC_WORD	2039899	wordpools/wasnorm_wordpool.txt	LTP101	ltpFR	0	n/a	1	HEDGE	699	n/a	0	n/a	n/a	n/a	n/a	n/a
4084.384	n/a	FFR_REC_WORD	2042192	wordpools/wasnorm_wordpool.txt	LTP101	ltpFR	0	n/a	0	TIDE	1465	n/a	1	n/a	n/a	n/a	n/a	n/a
4085.114	n/a	FFR_REC_WORD	2042557	wordpools/wasnorm_wordpool.txt	LTP101	ltpFR	0	n/a	-1	WAVE	1596	n/a	-1	n/a	n/a	n/a	n/a	n/a
4085.98	n/a	FFR_REC_WORD	2042990	wordpools/wasnorm_wordpool.txt	LTP101	ltpFR	0	n/a	-1	CLIFF	322	n/a	-1	n/a	n/a	n/a	n/a	n/a
4088.784	n/a	FFR_REC_WORD	2044392	wordpools/wasnorm_wordpool.txt	LTP101	ltpFR	0	n/a	0	MONARCH	906	n/a	1	n/a	n/a	n/a	n/a	n/a
4089.68	n/a	FFR_REC_WORD	2044840	wordpools/wasnorm_wordpool.txt	LTP101	ltpFR	0	n/a	0	PALACE	1006	n/a	1	n/a	n/a	n/a	n/a	n/a
4090.988	n/a	FFR_REC_WORD	2045494	wordpools/wasnorm_wordpool.txt	LTP101	ltpFR	0	n/a	-1	LIGHTNING	820	n/a	-1	n/a	n/a	n/a	n/a	n/a
4093.512	n/a	FFR_REC_WORD	2046756	wordpools/wasnorm_wordpool.txt	LTP101	ltpFR	0	n/a	-1	TWIG	1527	n/a	-1	n/a	n/a	n/a	n/a	n/a
4094.45	n/a	FFR_REC_WORD	2047225	wordpools/wasnorm_wordpool.txt	LTP101	ltpFR	0	n/a	-1	BRANCH	168	n/a	-1	n/a	n/a	n/a	n/a	n/a
4096.236	n/a	FFR_REC_WORD	2048118	wordpools/wasnorm_wordpool.txt	LTP101	ltpFR	0	n/a	-1	CANAL	226	n/a	-1	n/a	n/a	n/a	n/a	n/a
4097.314	n/a	FFR_REC_WORD	2048657	wordpools/wasnorm_wordpool.txt	LTP101	ltpFR	0	n/a	-1	DIGGER	464	n/a	-1	n/a	n/a	n/a	n/a	n/a
4099.206	n/a	FFR_REC_WORD	2049603	wordpools/wasnorm_wordpool.txt	LTP101	ltpFR	0	n/a	-1	TUNNEL	1519	n/a	-1	n/a	n/a	n/a	n/a	n/a
4100.538	n/a	FFR_REC_WORD	2050269	wordpools/wasnorm_wordpool.txt	LTP101	ltpFR	0	n/a	-1	SWING	1421	n/a	-1	n/a	n/a	n/a	n/a	n/a
4101.554	n/a	FFR_REC_WORD	2050777	wordpools/wasnorm_wordpool.txt	LTP101	ltpFR	0	n/a	-1	MAGICIAN	854	n/a	-1	n/a	n/a	n/a	n/a	n/a
4102.478	n/a	FFR_REC_WORD	2051239	wordpools/wasnorm_wordpool.txt	LTP101	ltpFR	0	n/a	-1	SPRINKLE	1359	n/a	-1	n/a	n/a	n/a	n/a	n/a
4103.8	n/a	FFR_REC_WORD	2051900	wordpools/wasnorm_wordpool.txt	LTP101	ltpFR	0	n/a	-1	TOMBSTONE	1478	n/a	-1	n/a	n/a	n/a	n/a	n/a
4106.274	n/a	FFR_REC_WORD_VV	2053137	wordpools/wasnorm_wordpool.txt	LTP101	ltpFR	0	n/a	n/a	<>	-1	n/a	n/a	n/a	n/a	n/a	n/a	n/a
4108.14	n/a	FFR_REC_WORD	2054070	wordpools/wasnorm_wordpool.txt	LTP101	ltpFR	0	n/a	-1	LEAF	808	n/a	-1	n/a	n/a	n/a	n/a	n/a
4110.594	n/a	FFR_REC_WORD	2055297	wordpools/wasnorm_wordpool.txt	LTP101	ltpFR	0	n/a	-1	ANIMAL	23	n/a	-1	n/a	n/a	n/a	n/a	n/a
4112.062	n/a	FFR_REC_WORD	2056031	wordpools/wasnorm_wordpool.txt	LTP101	ltpFR	0	n/a	-1	CAT	257	n/a	-1	n/a	n/a	n/a	n/a	n/a
4112.844	n/a	FFR_REC_WORD	2056422	wordpools/wasnorm_wordpool.txt	LTP101	ltpFR	0	n/a	-1	SQUIRREL	1362	n/a	-1	n/a	n/a	n/a	n/a	n/a
4114.744	n/a	FFR_REC_WORD	2057372	wordpools/wasnorm_wordpool.txt	LTP101	ltpFR	0	n/a	1	DOG	480	n/a	1	n/a	n/a	n/a	n/a	n/a
4115.604	n/a	FFR_REC_WORD	2057802	wordpools/wasnorm_wordpool.txt	LTP101	ltpFR	0	n/a	1	OX	994	n/a	1	n/a	n/a	n/a	n/a	n/a
4117.594	n/a	FFR_REC_WORD	2058797	wordpools/wasnorm_wordpool.txt	LTP101	ltpFR	0	n/a	-1	CHIPMUNK	304	n/a	-1	n/a	n/a	n/a	n/a	n/a
4118.542	n/a	FFR_REC_WORD	2059271	wordpools/wasnorm_wordpool.txt	LTP101	ltpFR	0	n/a	-1	TRICYCLE	1506	n/a	-1	n/a	n/a	n/a	n/a	n/a
4119.654	n/a	FFR_REC_WORD	2059827	wordpools/wasnorm_wordpool.txt	LTP101	ltpFR	0	n/a	-1	ICE	730	n/a	-1	n/a	n/a	n/a	n/a	n/a
4120.264	n/a	FFR_REC_WORD	2060132	wordpools/wasnorm_wordpool.txt	LTP101	ltpFR	0	n/a	-1	SHOELACE	1289	n/a	-1	n/a	n/a	n/a	n/a	n/a
4121.112	n/a	FFR_REC_WORD	2060556	wordpools/wasnorm_wordpool.txt	LTP101	ltpFR	0	n/a	-1	SHOE	1288	n/a	-1	n/a	n/a	n/a	n/a	n/a
4122.464	n/a	FFR_REC_WORD	2061232	wordpools/wasnorm_wordpool.txt	LTP101	ltpFR	0	n/a	-1	GALLON	618	n/a	-1	n/a	n/a	n/a	n/a	n/a
4123.85	n/a	FFR_REC_WORD	2061925	wordpools/wasnorm_wordpool.txt	LTP101	ltpFR	0	n/a	-1	GREASE	660	n/a	-1	n/a	n/a	n/a	n/a	n/a
4124.674	n/a	FFR_REC_WORD	2062337	wordpools/wasnorm_wordpool.txt	LTP101	ltpFR	0	n/a	-1	RASPBERRY	1168	n/a	-1	n/a	n/a	n/a	n/a	n/a
4126.49	n/a	FFR_REC_WORD	2063245	wordpools/wasnorm_wordpool.txt	LTP101	ltpFR	0	n/a	-1	POOL	1103	n/a	-1	n/a	n/a	n/a	n/a	n/a
4128.774	n/a	FFR_REC_WORD_VV	2064387	wordpools/wasnorm_wordpool.txt	LTP101	ltpFR	0	n/a	n/a	<>	-1	n/a	n/a	n/a	n/a	n/a	n/a	n/a
4138.618	n/a	FFR_REC_WORD	2069309	wordpools/wasnorm_wordpool.txt	LTP101	ltpFR	0	n/a	0	EARTH	515	n/a	1	n/a	n/a	n/a	n/a	n/a
4141.776	n/a	FFR_REC_WORD	2070888	wordpools/wasnorm_wordpool.txt	LTP101	ltpFR	0	n/a	0	LIVER	833	n/a	0	n/a	n/a	n/a	n/a	n/a
4143.506	n/a	FFR_REC_WORD	2071753	wordpools/wasnorm_wordpool.txt	LTP101	ltpFR	0	n/a	1	FLESH	579	n/a	1	n/a	n/a	n/a	n/a	n/a
4145.712	n/a	FFR_REC_WORD	2072856	wordpools/wasnorm_wordpool.txt	LTP101	ltpFR	0	n/a	0	GOO	648	n/a	0	n/a	n/a	n/a	n/a	n/a
4149.084	n/a	FFR_REC_WORD	2074542	wordpools/wasnorm_wordpool.txt	LTP101	ltpFR	0	n/a	1	STUDENT	1395	n/a	1	n/a	n/a	n/a	n/a	n/a
4149.99	n/a	FFR_REC_WORD	2074995	wordpools/wasnorm_wordpool.txt	LTP101	ltpFR	0	n/a	1	INSTRUCTOR	741	n/a	1	n/a	n/a	n/a	n/a	n/a
4153.24	n/a	FFR_REC_WORD	2076620	wordpools/wasnorm_wordpool.txt	LTP101	ltpFR	0	n/a	1	HAMMER	680	n/a	0	n/a	n/a	n/a	n/a	n/a
4155.774	n/a	FFR_REC_WORD	2077887	wordpools/wasnorm_wordpool.txt	LTP101	ltpFR	0	n/a	1	HATCHET	691	n/a	0	n/a	n/a	n/a	n/a	n/a
4159.058	n/a	FFR_REC_WORD_VV	2079529	wordpools/wasnorm_wordpool.txt	LTP101	ltpFR	0	n/a	n/a	<>	-1	n/a	n/a	n/a	n/a	n/a	n/a	n/a
4171.42	n/a	FFR_REC_WORD	2085710	wordpools/wasnorm_wordpool.txt	LTP101	ltpFR	0	n/a	0	SHRUB	1299	n/a	0	n/a	n/a	n/a	n/a	n/a
4172.188	n/a	FFR_REC_WORD	2086094	wordpools/wasnorm_wordpool.txt	LTP101	ltpFR	0	n/a	1	TOY	1492	n/a	0	n/a	n/a	n/a	n/a	n/a
4172.91	n/a	FFR_REC_WORD	2086455	wordpools/wasnorm_wordpool.txt	LTP101	ltpFR	0	n/a	0	DOLL	481	n/a	0	n/a	n/a	n/a	n/a	n/a
4173.46	n/a	FFR_REC_WORD	2086730	wordpools/wasnorm_wordpool.txt	LTP101	ltpFR	0	n/a	0	CANDY	230	n/a	0	n/a	n/a	n/a	n/a	n/a
4176.638	n/a	FFR_REC_WORD	2088319	wordpools/wasnorm_wordpool.txt	LTP101	ltpFR	0	n/a	0	ELBOW	520	n/a	0	n/a	n/a	n/a	n/a	n/a
4179.572	n/a	FFR_REC_WORD	2089786	wordpools/wasnorm_wordpool.txt	LTP101	ltpFR	0	n/a	0	FLAG	573	n/a	0	n/a	n/a	n/a	n/a	n/a
4184.984	n/a	FFR_REC_WORD	2092492	wordpools/wasnorm_wordpool.txt	LTP101	ltpFR	0	n/a	0	CARAVAN	242	n/a	1	n/a	n/a	n/a	n/a	n/a
4185.962	n/a	FFR_REC_WORD	2092981	wordpools/wasnorm_wordpool.txt	LTP101	ltpFR	0	n/a	0	DIAMOND	458	n/a	0	n/a	n/a	n/a	n/a	n/a
4203.378	n/a	FFR_REC_WORD	2101689	wordpools/wasnorm_wordpool.txt	LTP101	ltpFR	0	n/a	1	FARMER	553	n/a	1	n/a	n/a	n/a	n/a	n/a
4205.314	n/a	FFR_REC_WORD	2102657	wordpools/wasnorm_wordpool.txt	LTP101	ltpFR	0	n/a	1	CIGARETTE	309	n/a	0	n/a	n/a	n/a	n/a	n/a
4206.866	n/a	FFR_REC_WORD	2103433	wordpools/wasnorm_wordpool.txt	LTP101	ltpFR	0	n/a	-1	SOCIETY	1338	n/a	-1	n/a	n/a	n/a	n/a	n/a
4207.878	n/a	FFR_REC_WORD	2103939	wordpools/wasnorm_wordpool.txt	LTP101	ltpFR	0	n/a	-1	COMMUNITY	356	n/a	-1	n/a	n/a	n/a	n/a	n/a
4208.856	n/a	FFR_REC_WORD	2104428	wordpools/wasnorm_wordpool.txt	LTP101	ltpFR	0	n/a	-1	BENCH	121	n/a	-1	n/a	n/a	n/a	n/a	n/a
4215.342	n/a	FFR_REC_WORD	2107671	wordpools/wasnorm_wordpool.txt	LTP101	ltpFR	0	n/a	-1	HAY	693	n/a	-1	n/a	n/a	n/a	n/a	n/a
4216.15	n/a	FFR_REC_WORD	2108075	wordpools/wasnorm_wordpool.txt	LTP101	ltpFR	0	n/a	-1	PATH	1023	n/a	-1	n/a	n/a	n/a	n/a	n/a
4219.444	n/a	FFR_REC_WORD	2109722	wordpools/wasnorm_wordpool.txt	LTP101	ltpFR	0	n/a	-1	TAR	1435	n/a	-1	n/a	n/a	n/a	n/a	n/a
4230.278	n/a	FFR_REC_WORD	2115139	wordpools/wasnorm_wordpool.txt	LTP101	ltpFR	0	n/a	1	WHALE	1601	n/a	1	n/a	n/a	n/a	n/a	n/a
4233.426	n/a	FFR_REC_WORD	2116713	wordpools/wasnorm_wordpool.txt	LTP101	ltpFR	0	n/a	-1	STAKE	1368	n/a	-1	n/a	n/a	n/a	n/a	n/a
4234.52	n/a	FFR_REC_WORD	2117260	wordpools/wasnorm_wordpool.txt	LTP101	ltpFR	0	n/a	-1	BROTHER	179	n/a	-1	n/a	n/a	n/a	n/a	n/a
4241.374	n/a	FFR_REC_WORD	2120687	wordpools/wasnorm_wordpool.txt	LTP101	ltpFR	0	n/a	0	CELLAR	267	n/a	1	n/a	n/a	n/a	n/a	n/a
4244.408	n/a	FFR_REC_WORD	2122204	wordpools/wasnorm_wordpool.txt	LTP101	ltpFR	0	n/a	0	OTTER	986	n/a	1	n/a	n/a	n/a	n/a	n/a
4253.996	n/a	FFR_REC_WORD	2126998	wordpools/wasnorm_wordpool.txt	LTP101	ltpFR	0	n/a	1	GRIZZLY	662	n/a	1	n/a	n/a	n/a	n/a	n/a
4265.914	n/a	FFR_REC_WORD	2132957	wordpools/wasnorm_wordpool.txt	LTP101	ltpFR	0	n/a	0	PILOT	1070	n/a	1	n/a	n/a	n/a	n/a	n/a
4267.096	n/a	FFR_REC_WORD	2133548	wordpools/wasnorm_wordpool.txt	LTP101	ltpFR	0	n/a	0	BOARD	143	n/a	1	n/a	n/a	n/a	n/a	n/a
4309.398	n/a	FFR_REC_WORD	2154699	wordpools/wasnorm_wordpool.txt	LTP101	ltpFR	0	n/a	0	GALAXY	617	n/a	1	n/a	n/a	n/a	n/a	n/a
4317.126	n/a	FFR_REC_WORD	2158563	wordpools/wasnorm_wordpool.txt	LTP101	ltpFR	0	n/a	1	CRIMINAL	409	n/a	1	n/a	n/a	n/a	n/a	n/a
4317.824	n/a	FFR_REC_WORD	2158912	wordpools/wasnorm_wordpool.txt	LTP101	ltpFR	0	n/a	1	THIEF	1456	n/a	1	n/a	n/a	n/a	n/a	n/a
4335.904	n/a	FFR_REC_WORD	2167952	wordpools/wasnorm_wordpool.txt	LTP101	ltpFR	0	n/a	1	DUMP	505	n/a	0	n/a	n/a	n/a	n/a	n/a
4336.562	n/a	FFR_REC_WORD	2168281	wordpools/wasnorm_wordpool.txt	LTP101	ltpFR	0	n/a	1	GARBAGE	622	n/a	0	n/a	n/a	n/a	n/a	n/a
4347.318	n/a	FFR_REC_WORD	2173659	wordpools/wasnorm_wordpool.txt	LTP101	ltpFR	0	n/a	1	SWORD	1423	n/a	0	n/a	n/a	n/a	n/a	n/a
4367.852	n/a	FFR_REC_WORD	2183926	wordpools/wasnorm_wordpool.txt	LTP101	ltpFR	0	n/a	0	TAXI	1438	n/a	1	n/a	n/a	n/a	n/a	n/a
4368.546	n/a	FFR_REC_WORD_VV	2184273	wordpools/wasnorm_wordpool.txt	LTP101	ltpFR	0	n/a	n/a	<>	-1	n/a	n/a	n/a	n/a	n/a	n/a	n/a
4460.494	n/a	REC_START	2230247	n/a	LTP101	ltpFR	0	1	n/a	n/a	n/a	n/a	n/a	n/a	n/a	n/a	n/a	n/a
4460.526	n/a	RECOG_LURE	2230263	n/a	LTP101	ltpFR	0	1	n/a	JEEP	753	n/a	n/a	n/a	n/a	n/a	n/a	n/a
4462.902	n/a	RECOG_RESP	2231451	n/a	LTP101	ltpFR	0	1	n/a	JEEP	753	n/a	n/a	n/a	n/a	n/a	n/a	n/a
4469.526	n/a	RECOG_TARGET	2234763	n/a	LTP101	ltpFR	0	1	0	RIB	1188	n/a	0	n/a	n/a	n/a	n/a	n/a
4473.434	n/a	RECOG_RESP	2236717	n/a	LTP101	ltpFR	0	1	0	RIB	1188	n/a	0	n/a	n/a	n/a	n/a	n/a
4480.634	n/a	RECOG_TARGET	2240317	n/a	LTP101	ltpFR	0	1	0	DIAMOND	458	n/a	0	n/a	n/a	n/a	n/a	n/a
4482.198	n/a	RECOG_RESP	2241099	n/a	LTP101	ltpFR	0	1	0	DIAMOND	458	n/a	0	n/a	n/a	n/a	n/a	n/a
4486.282	n/a	RECOG_TARGET	2243141	n/a	LTP101	ltpFR	0	1	1	MOTHER	921	n/a	1	n/a	n/a	n/a	n/a	n/a
4487.596	n/a	RECOG_RESP	2243798	n/a	LTP101	ltpFR	0	1	1	MOTHER	921	n/a	1	n/a	n/a	n/a	n/a	n/a
4493.19	n/a	RECOG_LURE	2246595	n/a	LTP101	ltpFR	0	1	n/a	HOOP	716	n/a	n/a	n/a	n/a	n/a	n/a	n/a
4494.492	n/a	RECOG_RESP	2247246	n/a	LTP101	ltpFR	0	1	n/a	HOOP	716	n/a	n/a	n/a	n/a	n/a	n/a	n/a
4498.324	n/a	RECOG_LURE	2249162	n/a	LTP101	ltpFR	0	1	n/a	VELVET	1555	n/a	n/a	n/a	n/a	n/a	n/a	n/a
4499.518	n/a	RECOG_RESP	2249759	n/a	LTP101	ltpFR	0	1	n/a	VELVET	1555	n/a	n/a	n/a	n/a	n/a	n/a	n/a
4503.516	n/a	RECOG_TARGET	2251758	n/a	LTP101	ltpFR	0	1	1	FARMER	553	n/a	1	n/a	n/a	n/a	n/a	n/a
4504.678	n/a	RECOG_RESP	2252339	n/a	LTP101	ltpFR	0	1	1	FARMER	553	n/a	1	n/a	n/a	n/a	n/a	n/a
4508.274	n/a	RECOG_TARGET	2254137	n/a	LTP101	ltpFR	0	1	0	TAXI	1438	n/a	1	n/a	n/a	n/a	n/a	n/a
4509.198	n/a	RECOG_RESP	2254599	n/a	LTP101	ltpFR	0	1	0	TAXI	1438	n/a	1	n/a	n/a	n/a	n/a	n/a
4512.692	n/a	RECOG_TARGET	2256346	n/a	LTP101	ltpFR	0	1	-1	BRANCH	168	n/a	-1	n/a	n/a	n/a	n/a	n/a
4514.046	n/a	RECOG_RESP	2257023	n/a	LTP101	ltpFR	0	1	-1	BRANCH	168	n/a	-1	n/a	n/a	n/a	n/a	n/a
4517.558	n/a	RECOG_TARGET	2258779	n/a	LTP101	ltpFR	0	1	0	GOO	648	n/a	0	n/a	n/a	n/a	n/a	n/a
4518.432	n/a	RECOG_RESP	2259216	n/a	LTP101	ltpFR	0	1	0	GOO	648	n/a	0	n/a	n/a	n/a	n/a	n/a
4521.9	n/a	RECOG_TARGET	2260950	n/a	LTP101	ltpFR	0	1	1	INSTRUCTOR	741	n/a	1	n/a	n/a	n/a	n/a	n/a
4522.782	n/a	RECOG_RESP	2261391	n/a	LTP101	ltpFR	0	1	1	INSTRUCTOR	741	n/a	1	n/a	n/a	n/a	n/a	n/a
4526.098	n/a	RECOG_TARGET	2263049	n/a	LTP101	ltpFR	0	1	1	GORILLA	650	n/a	1	n/a	n/a	n/a	n/a	n/a
4527.158	n/a	RECOG_RESP	2263579	n/a	LTP101	ltpFR	0	1	1	GORILLA	650	n/a	1	n/a	n/a	n/a	n/a	n/a
4530.592	n/a	RECOG_LURE	2265296	n/a	LTP101	ltpFR	0	1	n/a	BLACKBERRY	132	n/a	n/a	n/a	n/a	n/a	n/a	n/a
4532.31	n/a	RECOG_RESP	2266155	n/a	LTP101	ltpFR	0	1	n/a	BLACKBERRY	132	n/a	n/a	n/a	n/a	n/a	n/a	n/a
4536.272	n/a	RECOG_TARGET	2268136	n/a	LTP101	ltpFR	0	1	1	MAPLE	866	n/a	1	n/a	n/a	n/a	n/a	n/a
4537.376	n/a	RECOG_RESP	2268688	n/a	LTP101	ltpFR	0	1	1	MAPLE	866	n/a	1	n/a	n/a	n/a	n/a	n/a
4540.698	n/a	RECOG_TARGET	2270349	n/a	LTP101	ltpFR	0	1	-1	FRIES	607	n/a	-1	n/a	n/a	n/a	n/a	n/a
4541.524	n/a	RECOG_RESP	2270762	n/a	LTP101	ltpFR	0	1	-1	FRIES	607	n/a	-1	n/a	n/a	n/a	n/a	n/a
4544.972	n/a	RECOG_TARGET	2272486	n/a	LTP101	ltpFR	0	1	1	ZUCCHINI	1638	n/a	1	n/a	n/a	n/a	n/a	n/a
4545.742	n/a	RECOG_RESP	2272871	n/a	LTP101	ltpFR	0	1	1	ZUCCHINI	1638	n/a	1	n/a	n/a	n/a	n/a	n/a
4548.84	n/a	RECOG_LURE	2274420	n/a	LTP101	ltpFR	0	1	n/a	ROPE	1211	n/a	n/a	n/a	n/a	n/a	n/a	n/a
4550.588	n/a	RECOG_RESP	2275294	n/a	LTP101	ltpFR	0	1	n/a	ROPE	1211	n/a	n/a	n/a	n/a	n/a	n/a	n/a
4553.964	n/a	RECOG_LURE	2276982	n/a	LTP101	ltpFR	0	1	n/a	NURSE	963	n/a	n/a	n/a	n/a	n/a	n/a	n/a
4555.05	n/a	RECOG_RESP	2277525	n/a	LTP101	ltpFR	0	1	n/a	NURSE	963	n/a	n/a	n/a	n/a	n/a	n/a	n/a
4558.44	n/a	RECOG_LURE	2279220	n/a	LTP101	ltpFR	0	1	n/a	HOUND	724	n/a	n/a	n/a	n/a	n/a	n/a	n/a
4559.5	n/a	RECOG_RESP	2279750	n/a	LTP101	ltpFR	0	1	n/a	HOUND	724	n/a	n/a	n/a	n/a	n/a	n/a	n/a
4562.872	n/a	RECOG_TARGET	2281436	n/a	LTP101	ltpFR	0	1	1	TIMBER	1469	n/a	0	n/a	n/a	n/a	n/a	n/a
4564.46	n/a	RECOG_RESP	2282230	n/a	LTP101	ltpFR	0	1	1	TIMBER	1469	n/a	0	n/a	n/a	n/a	n/a	n/a
4596.356	n/a	REC_START	2298178	n/a	LTP101	ltpFR	0	2	n/a	n/a	n/a	n/a	n/a	n/a	n/a	n/a	n/a	n/a
4596.39	n/a	RECOG_TARGET	2298195	n/a	LTP101	ltpFR	0	2	1	BINDER	127	n/a	0	n/a	n/a	n/a	n/a	n/a
4598.724	n/a	RECOG_RESP	2299362	n/a	LTP101	ltpFR	0	2	1	BINDER	127	n/a	0	n/a	n/a	n/a	n/a	n/a
4602.262	n/a	RECOG_TARGET	2301131	n/a	LTP101	ltpFR	0	2	-1	COLLAR	345	n/a	-1	n/a	n/a	n/a	n/a	n/a
4603.844	n/a	RECOG_RESP	2301922	n/a	LTP101	ltpFR	0	2	-1	COLLAR	345	n/a	-1	n/a	n/a	n/a	n/a	n/a
4607.606	n/a	RECOG_TARGET	2303803	n/a	LTP101	ltpFR	0	2	1	FIELD	562	n/a	0	n/a	n/a	n/a	n/a	n/a
4608.53	n/a	RECOG_RESP	2304265	n/a	LTP101	ltpFR	0	2	1	FIELD	562	n/a	0	n/a	n/a	n/a	n/a	n/a
4612.422	n/a	RECOG_TARGET	2306211	n/a	LTP101	ltpFR	0	2	1	EMPIRE	530	n/a	0	n/a	n/a	n/a	n/a	n/a
4613.498	n/a	RECOG_RESP	2306749	n/a	LTP101	ltpFR	0	2	1	EMPIRE	530	n/a	0	n/a	n/a	n/a	n/a	n/a
4619.22	n/a	RECOG_TARGET	2309610	n/a	LTP101	ltpFR	0	2	1	TRAY	1498	n/a	0	n/a	n/a	n/a	n/a	n/a
4621.17	n/a	RECOG_RESP	2310585	n/a	LTP101	ltpFR	0	2	1	TRAY	1498	n/a	0	n/a	n/a	n/a	n/a	n/a
4624.688	n/a	RECOG_TARGET	2312344	n/a	LTP101	ltpFR	0	2	0	SCIENTIST	1249	n/a	1	n/a	n/a	n/a	n/a	n/a
4626.64	n/a	RECOG_RESP	2313320	n/a	LTP101	ltpFR	0	2	0	SCIENTIST	1249	n/a	1	n/a	n/a	n/a	n/a	n/a
4630.388	n/a	RECOG_TARGET	2315194	n/a	LTP101	ltpFR	0	2	0	SHRINE	1298	n/a	1	n/a	n/a	n/a	n/a	n/a
4631.606	n/a	RECOG_RESP	2315803	n/a	LTP101	ltpFR	0	2	0	SHRINE	1298	n/a	1	n/a	n/a	n/a	n/a	n/a
4635.48	n/a	RECOG_LURE	2317740	n/a	LTP101	ltpFR	0	2	n/a	COTTON	385	n/a	n/a	n/a	n/a	n/a	n/a	n/a
4637.346	n/a	RECOG_RESP	2318673	n/a	LTP101	ltpFR	0	2	n/a	COTTON	385	n/a	n/a	n/a	n/a	n/a	n/a	n/a
4643.012	n/a	RECOG_TARGET	2321506	n/a	LTP101	ltpFR	0	2	1	GROCERIES	663	n/a	0	n/a	n/a	n/a	n/a	n/a
4644.158	n/a	RECOG_RESP	2322079	n/a	LTP101	ltpFR	0	2	1	GROCERIES	663	n/a	0	n/a	n/a	n/a	n/a	n/a
4647.896	n/a	RECOG_TARGET	2323948	n/a	LTP101	ltpFR	0	2	0	CANDY	230	n/a	0	n/a	n/a	n/a	n/a	n/a
4649.158	n/a	RECOG_RESP	2324579	n/a	LTP101	ltpFR	0	2	0	CANDY	230	n/a	0	n/a	n/a	n/a	n/a	n/a
4652.438	n/a	RECOG_TARGET	2326219	n/a	LTP101	ltpFR	0	2	0	POPE	1105	n/a	1	n/a	n/a	n/a	n/a	n/a
4653.422	n/a	RECOG_RESP	2326711	n/a	LTP101	ltpFR	0	2	0	POPE	1105	n/a	1	n/a	n/a	n/a	n/a	n/a
4656.446	n/a	RECOG_LURE	2328223	n/a	LTP101	ltpFR	0	2	n/a	PUDDING	1139	n/a	n/a	n/a	n/a	n/a	n/a	n/a
4659.174	n/a	RECOG_RESP	2329587	n/a	LTP101	ltpFR	0	2	n/a	PUDDING	1139	n/a	n/a	n/a	n/a	n/a	n/a	n/a
4662.504	n/a	RECOG_TARGET	2331252	n/a	LTP101	ltpFR	0	2	1	TRAITOR	1495	n/a	1	n/a	n/a	n/a	n/a	n/a
4663.51	n/a	RECOG_RESP	2331755	n/a	LTP101	ltpFR	0	2	1	TRAITOR	1495	n/a	1	n/a	n/a	n/a	n/a	n/a
4667.422	n/a	RECOG_TARGET	2333711	n/a	LTP101	ltpFR	0	2	-1	TAR	1435	n/a	-1	n/a	n/a	n/a	n/a	n/a
4668.184	n/a	RECOG_RESP	2334092	n/a	LTP101	ltpFR	0	2	-1	TAR	1435	n/a	-1	n/a	n/a	n/a	n/a	n/a
4672.578	n/a	RECOG_TARGET	2336289	n/a	LTP101	ltpFR	0	2	1	HEDGE	699	n/a	0	n/a	n/a	n/a	n/a	n/a
4676.506	n/a	RECOG_RESP	2338253	n/a	LTP101	ltpFR	0	2	1	HEDGE	699	n/a	0	n/a	n/a	n/a	n/a	n/a
4679.67	n/a	RECOG_TARGET	2339835	n/a	LTP101	ltpFR	0	2	1	FLESH	579	n/a	1	n/a	n/a	n/a	n/a	n/a
4680.432	n/a	RECOG_RESP	2340216	n/a	LTP101	ltpFR	0	2	1	FLESH	579	n/a	1	n/a	n/a	n/a	n/a	n/a
4683.936	n/a	RECOG_TARGET	2341968	n/a	LTP101	ltpFR	0	2	0	CUPBOARD	425	n/a	1	n/a	n/a	n/a	n/a	n/a
4686.22	n/a	RECOG_RESP	2343110	n/a	LTP101	ltpFR	0	2	0	CUPBOARD	425	n/a	1	n/a	n/a	n/a	n/a	n/a
4689.604	n/a	RECOG_TARGET	2344802	n/a	LTP101	ltpFR	0	2	1	CRIMINAL	409	n/a	1	n/a	n/a	n/a	n/a	n/a
4690.426	n/a	RECOG_RESP	2345213	n/a	LTP101	ltpFR	0	2	1	CRIMINAL	409	n/a	1	n/a	n/a	n/a	n/a	n/a
4693.786	n/a	RECOG_TARGET	2346893	n/a	LTP101	ltpFR	0	2	-1	GREASE	660	n/a	-1	n/a	n/a	n/a	n/a	n/a
4694.542	n/a	RECOG_RESP	2347271	n/a	LTP101	ltpFR	0	2	-1	GREASE	660	n/a	-1	n/a	n/a	n/a	n/a	n/a
4698.052	n/a	RECOG_TARGET	2349026	n/a	LTP101	ltpFR	0	2	0	CORAL	378	n/a	0	n/a	n/a	n/a	n/a	n/a
4698.82	n/a	RECOG_RESP	2349410	n/a	LTP101	ltpFR	0	2	0	CORAL	378	n/a	0	n/a	n/a	n/a	n/a	n/a
4721.09	n/a	REC_START	2360545	n/a	LTP101	ltpFR	0	3	n/a	n/a	n/a	n/a	n/a	n/a	n/a	n/a	n/a	n/a
4721.126	n/a	RECOG_TARGET	2360563	n/a	LTP101	ltpFR	0	3	0	RANCH	1166	n/a	1	n/a	n/a	n/a	n/a	n/a
4723.032	n/a	RECOG_RESP	2361516	n/a	LTP101	ltpFR	0	3	0	RANCH	1166	n/a	1	n/a	n/a	n/a	n/a	n/a
4726.16	n/a	RECOG_LURE	2363080	n/a	LTP101	ltpFR	0	3	n/a	ROCKET	1202	n/a	n/a	n/a	n/a	n/a	n/a	n/a
4727.762	n/a	RECOG_RESP	2363881	n/a	LTP101	ltpFR	0	3	n/a	ROCKET	1202	n/a	n/a	n/a	n/a	n/a	n/a	n/a
4732.184	n/a	RECOG_LURE	2366092	n/a	LTP101	ltpFR	0	3	n/a	REPORT	1184	n/a	n/a	n/a	n/a	n/a	n/a	n/a
4735.324	n/a	RECOG_RESP	2367662	n/a	LTP101	ltpFR	0	3	n/a	REPORT	1184	n/a	n/a	n/a	n/a	n/a	n/a	n/a
4739.76	n/a	RECOG_TARGET	2369880	n/a	LTP101	ltpFR	0	3	0	STORE	1387	n/a	1	n/a	n/a	n/a	n/a	n/a
4740.52	n/a	RECOG_RESP	2370260	n/a	LTP101	ltpFR	0	3	0	STORE	1387	n/a	1	n/a	n/a	n/a	n/a	n/a
4743.934	n/a	RECOG_TARGET	2371967	n/a	LTP101	ltpFR	0	3	0	VAN	1548	n/a	1	n/a	n/a	n/a	n/a	n/a
4744.75	n/a	RECOG_RESP	2372375	n/a	LTP101	ltpFR	0	3	0	VAN	1548	n/a	1	n/a	n/a	n/a	n/a	n/a
4748.802	n/a	RECOG_TARGET	2374401	n/a	LTP101	ltpFR	0	3	1	CELLO	268	n/a	0	n/a	n/a	n/a	n/a	n/a
4749.51	n/a	RECOG_RESP	2374755	n/a	LTP101	ltpFR	0	3	1	CELLO	268	n/a	0	n/a	n/a	n/a	n/a	n/a
4752.576	n/a	RECOG_LURE	2376288	n/a	LTP101	ltpFR	0	3	n/a	BUILDING	191	n/a	n/a	n/a	n/a	n/a	n/a	n/a
4754.448	n/a	RECOG_RESP	2377224	n/a	LTP101	ltpFR	0	3	n/a	BUILDING	191	n/a	n/a	n/a	n/a	n/a	n/a	n/a
4757.684	n/a	RECOG_TARGET	2378842	n/a	LTP101	ltpFR	0	3	1	ENGINEER	536	n/a	1	n/a	n/a	n/a	n/a	n/a
4759.086	n/a	RECOG_RESP	2379543	n/a	LTP101	ltpFR	0	3	1	ENGINEER	536	n/a	1	n/a	n/a	n/a	n/a	n/a
4762.894	n/a	RECOG_TARGET	2381447	n/a	LTP101	ltpFR	0	3	-1	BATHTUB	100	n/a	-1	n/a	n/a	n/a	n/a	n/a
4763.988	n/a	RECOG_RESP_VV	2381994	n/a	LTP101	ltpFR	0	3	-1	BATHTUB	100	n/a	-1	n/a	n/a	n/a	n/a	n/a
4765.702	n/a	RECOG_RESP	2382851	n/a	LTP101	ltpFR	0	3	-1	BATHTUB	100	n/a	-1	n/a	n/a	n/a	n/a	n/a
4768.626	n/a	RECOG_TARGET	2384313	n/a	LTP101	ltpFR	0	3	0	CARAVAN	242	n/a	1	n/a	n/a	n/a	n/a	n/a
4769.378	n/a	RECOG_RESP	2384689	n/a	LTP101	ltpFR	0	3	0	CARAVAN	242	n/a	1	n/a	n/a	n/a	n/a	n/a
4773.226	n/a	RECOG_LURE	2386613	n/a	LTP101	ltpFR	0	3	n/a	LAWN	805	n/a	n/a	n/a	n/a	n/a	n/a	n/a
4774.85	n/a	RECOG_RESP	2387425	n/a	LTP101	ltpFR	0	3	n/a	LAWN	805	n/a	n/a	n/a	n/a	n/a	n/a	n/a
4778.058	n/a	RECOG_TARGET	2389029	n/a	LTP101	ltpFR	0	3	1	PLUTO	1092	n/a	0	n/a	n/a	n/a	n/a	n/a
4778.78	n/a	RECOG_RESP	2389390	n/a	LTP101	ltpFR	0	3	1	PLUTO	1092	n/a	0	n/a	n/a	n/a	n/a	n/a
4782.518	n/a	RECOG_TARGET	2391259	n/a	LTP101	ltpFR	0	3	1	CAMERA	224	n/a	0	n/a	n/a	n/a	n/a	n/a
4783.398	n/a	RECOG_RESP	2391699	n/a	LTP101	ltpFR	0	3	1	CAMERA	224	n/a	0	n/a	n/a	n/a	n/a	n/a
4786.71	n/a	RECOG_LURE	2393355	n/a	LTP101	ltpFR	0	3	n/a	DISHWASHER	475	n/a	n/a	n/a	n/a	n/a	n/a	n/a
4787.922	n/a	RECOG_RESP	2393961	n/a	LTP101	ltpFR	0	3	n/a	DISHWASHER	475	n/a	n/a	n/a	n/a	n/a	n/a	n/a
4792.41	n/a	RECOG_TARGET	2396205	n/a	LTP101	ltpFR	0	3	0	GALAXY	617	n/a	1	n/a	n/a	n/a	n/a	n/a
4793.222	n/a	RECOG_RESP	2396611	n/a	LTP101	ltpFR	0	3	0	GALAXY	617	n/a	1	n/a	n/a	n/a	n/a	n/a
4796.418	n/a	RECOG_TARGET	2398209	n/a	LTP101	ltpFR	0	3	1	RECORD	1176	n/a	0	n/a	n/a	n/a	n/a	n/a
4797.524	n/a	RECOG_RESP	2398762	n/a	LTP101	ltpFR	0	3	1	RECORD	1176	n/a	0	n/a	n/a	n/a	n/a	n/a
4801.326	n/a	RECOG_LURE	2400663	n/a	LTP101	ltpFR	0	3	n/a	BANANA	77	n/a	n/a	n/a	n/a	n/a	n/a	n/a
4802.154	n/a	RECOG_RESP	2401077	n/a	LTP101	ltpFR	0	3	n/a	BANANA	77	n/a	n/a	n/a	n/a	n/a	n/a	n/a
4805.534	n/a	RECOG_TARGET	2402767	n/a	LTP101	ltpFR	0	3	-1	CAT	257	n/a	-1	n/a	n/a	n/a	n/a	n/a
4806.302	n/a	RECOG_RESP	2403151	n/a	LTP101	ltpFR	0	3	-1	CAT	257	n/a	-1	n/a	n/a	n/a	n/a	n/a
4809.576	n/a	RECOG_TARGET	2404788	n/a	LTP101	ltpFR	0	3	0	PHOTO	1055	n/a	0	n/a	n/a	n/a	n/a	n/a
4810.67	n/a	RECOG_RESP	2405335	n/a	LTP101	ltpFR	0	3	0	PHOTO	1055	n/a	0	n/a	n/a	n/a	n/a	n/a
4814.09	n/a	RECOG_TARGET	2407045	n/a	LTP101	ltpFR	0	3	0	CAULIFLOWER	262	n/a	0	n/a	n/a	n/a	n/a	n/a
4816.314	n/a	RECOG_RESP	2408157	n/a	LTP101	ltpFR	0	3	0	CAULIFLOWER	262	n/a	0	n/a	n/a	n/a	n/a	n/a
4822.568	n/a	REC_START	2411284	n/a	LTP101	ltpFR	0	4	n/a	n/a	n/a	n/a	n/a	n/a	n/a	n/a	n/a	n/a
4822.6	n/a	RECOG_LURE	2411300	n/a	LTP101	ltpFR	0	4	n/a	SPOON	1357	n/a	n/a	n/a	n/a	n/a	n/a	n/a
4824.048	n/a	RECOG_RESP	2412024	n/a	LTP101	ltpFR	0	4	n/a	SPOON	1357	n/a	n/a	n/a	n/a	n/a	n/a	n/a
4827.592	n/a	RECOG_TARGET	2413796	n/a	LTP101	ltpFR	0	4	1	STRANGER	1389	n/a	1	n/a	n/a	n/a	n/a	n/a
4828.446	n/a	RECOG_RESP	2414223	n/a	LTP101	ltpFR	0	4	1	STRANGER	1389	n/a	1	n/a	n/a	n/a	n/a	n/a
4831.792	n/a	RECOG_TARGET	2415896	n/a	LTP101	ltpFR	0	4	-1	LEAF	808	n/a	-1	n/a	n/a	n/a	n/a	n/a
4832.49	n/a	RECOG_RESP	2416245	n/a	LTP101	ltpFR	0	4	-1	LEAF	808	n/a	-1	n/a	n/a	n/a	n/a	n/a
4835.624	n/a	RECOG_TARGET	2417812	n/a	LTP101	ltpFR	0	4	0	GUARD	667	n/a	0	n/a	n/a	n/a	n/a	n/a
4836.422	n/a	RECOG_RESP	2418211	n/a	LTP101	ltpFR	0	4	0	GUARD	667	n/a	0	n/a	n/a	n/a	n/a	n/a
4839.476	n/a	RECOG_LURE	2419738	n/a	LTP101	ltpFR	0	4	n/a	WALL	1582	n/a	n/a	n/a	n/a	n/a	n/a	n/a
4841.57	n/a	RECOG_RESP	2420785	n/a	LTP101	ltpFR	0	4	n/a	WALL	1582	n/a	n/a	n/a	n/a	n/a	n/a	n/a
4845.34	n/a	RECOG_TARGET	2422670	n/a	LTP101	ltpFR	0	4	1	EDITOR	516	n/a	1	n/a	n/a	n/a	n/a	n/a
4846.082	n/a	RECOG_RESP	2423041	n/a	LTP101	ltpFR	0	4	1	EDITOR	516	n/a	1	n/a	n/a	n/a	n/a	n/a
4849.182	n/a	RECOG_LURE	2424591	n/a	LTP101	ltpFR	0	4	n/a	BLACKBOARD	133	n/a	n/a	n/a	n/a	n/a	n/a	n/a
4850.638	n/a	RECOG_RESP	2425319	n/a	LTP101	ltpFR	0	4	n/a	BLACKBOARD	133	n/a	n/a	n/a	n/a	n/a	n/a	n/a
4854.658	n/a	RECOG_TARGET	2427329	n/a	LTP101	ltpFR	0	4	1	MILITARY	894	n/a	0	n/a	n/a	n/a	n/a	n/a
4857.004	n/a	RECOG_RESP	2428502	n/a	LTP101	ltpFR	0	4	1	MILITARY	894	n/a	0	n/a	n/a	n/a	n/a	n/a
4861.874	n/a	RECOG_TARGET	2430937	n/a	LTP101	ltpFR	0	4	1	CHARCOAL	281	n/a	0	n/a	n/a	n/a	n/a	n/a
4862.63	n/a	RECOG_RESP	2431315	n/a	LTP101	ltpFR	0	4	1	CHARCOAL	281	n/a	0	n/a	n/a	n/a	n/a	n/a
4865.44	n/a	RECOG_TARGET	2432720	n/a	LTP101	ltpFR	0	4	-1	SHOELACE	1289	n/a	-1	n/a	n/a	n/a	n/a	n/a
4866.218	n/a	RECOG_RESP	2433109	n/a	LTP101	ltpFR	0	4	-1	SHOELACE	1289	n/a	-1	n/a	n/a	n/a	n/a	n/a
4869.34	n/a	RECOG_TARGET	2434670	n/a	LTP101	ltpFR	0	4	1	CUBE	420	n/a	0	n/a	n/a	n/a	n/a	n/a
4870.036	n/a	RECOG_RESP	2435018	n/a	LTP101	ltpFR	0	4	1	CUBE	420	n/a	0	n/a	n/a	n/a	n/a	n/a
4872.916	n/a	RECOG_TARGET	2436458	n/a	LTP101	ltpFR	0	4	0	BUYER	208	n/a	1	n/a	n/a	n/a	n/a	n/a
4874.89	n/a	RECOG_RESP	2437445	n/a	LTP101	ltpFR	0	4	0	BUYER	208	n/a	1	n/a	n/a	n/a	n/a	n/a
4877.574	n/a	RECOG_TARGET	2438787	n/a	LTP101	ltpFR	0	4	1	SCAPEGOAT	1244	n/a	1	n/a	n/a	n/a	n/a	n/a
4878.904	n/a	RECOG_RESP	2439452	n/a	LTP101	ltpFR	0	4	1	SCAPEGOAT	1244	n/a	1	n/a	n/a	n/a	n/a	n/a
4882.298	n/a	RECOG_TARGET	2441149	n/a	LTP101	ltpFR	0	4	-1	WOUND	1624	n/a	-1	n/a	n/a	n/a	n/a	n/a
4883.1	n/a	RECOG_RESP	2441550	n/a	LTP101	ltpFR	0	4	-1	WOUND	1624	n/a	-1	n/a	n/a	n/a	n/a	n/a
4885.932	n/a	RECOG_TARGET	2442966	n/a	LTP101	ltpFR	0	4	1	PIZZA	1079	n/a	0	n/a	n/a	n/a	n/a	n/a
4886.658	n/a	RECOG_RESP	2443329	n/a	LTP101	ltpFR	0	4	1	PIZZA	1079	n/a	0	n/a	n/a	n/a	n/a	n/a
4889.656	n/a	RECOG_TARGET	2444828	n/a	LTP101	ltpFR	0	4	1	HAMMER	680	n/a	0	n/a	n/a	n/a	n/a	n/a
4891.068	n/a	RECOG_RESP	2445534	n/a	LTP101	ltpFR	0	4	1	HAMMER	680	n/a	0	n/a	n/a	n/a	n/a	n/a
4894.056	n/a	RECOG_TARGET	2447028	n/a	LTP101	ltpFR	0	4	-1	COMMUNITY	356	n/a	-1	n/a	n/a	n/a	n/a	n/a
4894.78	n/a	RECOG_RESP	2447390	n/a	LTP101	ltpFR	0	4	-1	COMMUNITY	356	n/a	-1	n/a	n/a	n/a	n/a	n/a
4898.098	n/a	RECOG_LURE	2449049	n/a	LTP101	ltpFR	0	4	n/a	HAMMOCK	681	n/a	n/a	n/a	n/a	n/a	n/a	n/a
4900.036	n/a	RECOG_RESP	2450018	n/a	LTP101	ltpFR	0	4	n/a	HAMMOCK	681	n/a	n/a	n/a	n/a	n/a	n/a	n/a
4903.072	n/a	RECOG_TARGET	2451536	n/a	LTP101	ltpFR	0	4	-1	EMPLOYEE	531	n/a	-1	n/a	n/a	n/a	n/a	n/a
4903.832	n/a	RECOG_RESP	2451916	n/a	LTP101	ltpFR	0	4	-1	EMPLOYEE	531	n/a	-1	n/a	n/a	n/a	n/a	n/a
4906.474	n/a	RECOG_LURE	2453237	n/a	LTP101	ltpFR	0	4	n/a	OWL	992	n/a	n/a	n/a	n/a	n/a	n/a	n/a
4907.3	n/a	RECOG_RESP	2453650	n/a	LTP101	ltpFR	0	4	n/a	OWL	992	n/a	n/a	n/a	n/a	n/a	n/a	n/a
4913.664	n/a	REC_START	2456832	n/a	LTP101	ltpFR	0	5	n/a	n/a	n/a	n/a	n/a	n/a	n/a	n/a	n/a	n/a
4913.698	n/a	RECOG_TARGET	2456849	n/a	LTP101	ltpFR	0	5	-1	SOCIETY	1338	n/a	-1	n/a	n/a	n/a	n/a	n/a
4914.46	n/a	RECOG_RESP	2457230	n/a	LTP101	ltpFR	0	5	-1	SOCIETY	1338	n/a	-1	n/a	n/a	n/a	n/a	n/a
4917.616	n/a	RECOG_TARGET	2458808	n/a	LTP101	ltpFR	0	5	0	ELBOW	520	n/a	0	n/a	n/a	n/a	n/a	n/a
4918.326	n/a	RECOG_RESP	2459163	n/a	LTP101	ltpFR	0	5	0	ELBOW	520	n/a	0	n/a	n/a	n/a	n/a	n/a
4921.414	n/a	RECOG_TARGET	2460707	n/a	LTP101	ltpFR	0	5	-1	SHOE	1288	n/a	-1	n/a	n/a	n/a	n/a	n/a
4922.136	n/a	RECOG_RESP	2461068	n/a	LTP101	ltpFR	0	5	-1	SHOE	1288	n/a	-1	n/a	n/a	n/a	n/a	n/a
4924.914	n/a	RECOG_TARGET	2462457	n/a	LTP101	ltpFR	0	5	1	CIGARETTE	309	n/a	0	n/a	n/a	n/a	n/a	n/a
4925.718	n/a	RECOG_RESP	2462859	n/a	LTP101	ltpFR	0	5	1	CIGARETTE	309	n/a	0	n/a	n/a	n/a	n/a	n/a
4928.348	n/a	RECOG_TARGET	2464174	n/a	LTP101	ltpFR	0	5	1	VETERAN	1561	n/a	1	n/a	n/a	n/a	n/a	n/a
4929.742	n/a	RECOG_RESP	2464871	n/a	LTP101	ltpFR	0	5	1	VETERAN	1561	n/a	1	n/a	n/a	n/a	n/a	n/a
4932.448	n/a	RECOG_LURE	2466224	n/a	LTP101	ltpFR	0	5	n/a	DESSERT	453	n/a	n/a	n/a	n/a	n/a	n/a	n/a
4933.602	n/a	RECOG_RESP	2466801	n/a	LTP101	ltpFR	0	5	n/a	DESSERT	453	n/a	n/a	n/a	n/a	n/a	n/a	n/a
4936.614	n/a	RECOG_TARGET	2468307	n/a	LTP101	ltpFR	0	5	0	CREEK	404	n/a	1	n/a	n/a	n/a	n/a	n/a
4938.728	n/a	RECOG_RESP	2469364	n/a	LTP101	ltpFR	0	5	0	CREEK	404	n/a	1	n/a	n/a	n/a	n/a	n/a
4941.346	n/a	RECOG_TARGET	2470673	n/a	LTP101	ltpFR	0	5	1	CABINET	212	n/a	0	n/a	n/a	n/a	n/a	n/a
4944.15	n/a	RECOG_RESP	2472075	n/a	LTP101	ltpFR	0	5	1	CABINET	212	n/a	0	n/a	n/a	n/a	n/a	n/a
4946.38	n/a	RECOG_TARGET	2473190	n/a	LTP101	ltpFR	0	5	0	SAILOR	1223	n/a	1	n/a	n/a	n/a	n/a	n/a
4947.728	n/a	RECOG_RESP	2473864	n/a	LTP101	ltpFR	0	5	0	SAILOR	1223	n/a	1	n/a	n/a	n/a	n/a	n/a
4950.688	n/a	RECOG_TARGET	2475344	n/a	LTP101	ltpFR	0	5	0	EGG	518	n/a	0	n/a	n/a	n/a	n/a	n/a
4951.538	n/a	RECOG_RESP	2475769	n/a	LTP101	ltpFR	0	5	0	EGG	518	n/a	0	n/a	n/a	n/a	n/a	n/a
4953.88	n/a	RECOG_LURE	2476940	n/a	LTP101	ltpFR	0	5	n/a	COFFIN	342	n/a	n/a	n/a	n/a	n/a	n/a	n/a
4954.806	n/a	RECOG_RESP	2477403	n/a	LTP101	ltpFR	0	5	n/a	COFFIN	342	n/a	n/a	n/a	n/a	n/a	n/a	n/a
4957.038	n/a	RECOG_LURE	2478519	n/a	LTP101	ltpFR	0	5	n/a	LAMP	798	n/a	n/a	n/a	n/a	n/a	n/a	n/a
4957.89	n/a	RECOG_RESP	2478945	n/a	LTP101	ltpFR	0	5	n/a	LAMP	798	n/a	n/a	n/a	n/a	n/a	n/a	n/a
4960.28	n/a	RECOG_TARGET	2480140	n/a	LTP101	ltpFR	0	5	0	SHACK	1273	n/a	1	n/a	n/a	n/a	n/a	n/a
4961.57	n/a	RECOG_RESP	2480785	n/a	LTP101	ltpFR	0	5	0	SHACK	1273	n/a	1	n/a	n/a	n/a	n/a	n/a
4963.988	n/a	RECOG_LURE	2481994	n/a	LTP101	ltpFR	0	5	n/a	CUB	419	n/a	n/a	n/a	n/a	n/a	n/a	n/a
4965.144	n/a	RECOG_RESP	2482572	n/a	LTP101	ltpFR	0	5	n/a	CUB	419	n/a	n/a	n/a	n/a	n/a	n/a	n/a
4968.438	n/a	RECOG_TARGET	2484219	n/a	LTP101	ltpFR	0	5	0	LASH	802	n/a	0	n/a	n/a	n/a	n/a	n/a
4969.8	n/a	RECOG_RESP	2484900	n/a	LTP101	ltpFR	0	5	0	LASH	802	n/a	0	n/a	n/a	n/a	n/a	n/a
4972.838	n/a	RECOG_TARGET	2486419	n/a	LTP101	ltpFR	0	5	0	BADGE	68	n/a	0	n/a	n/a	n/a	n/a	n/a
4973.544	n/a	RECOG_RESP	2486772	n/a	LTP101	ltpFR	0	5	0	BADGE	68	n/a	0	n/a	n/a	n/a	n/a	n/a
4976.638	n/a	RECOG_TARGET	2488319	n/a	LTP101	ltpFR	0	5	1	PUPPY	1144	n/a	1	n/a	n/a	n/a	n/a	n/a
4977.58	n/a	RECOG_RESP	2488790	n/a	LTP101	ltpFR	0	5	1	PUPPY	1144	n/a	1	n/a	n/a	n/a	n/a	n/a
4981.012	n/a	RECOG_TARGET	2490506	n/a	LTP101	ltpFR	0	5	1	LINEN	825	n/a	0	n/a	n/a	n/a	n/a	n/a
4983.32	n/a	RECOG_RESP	2491660	n/a	LTP101	ltpFR	0	5	1	LINEN	825	n/a	0	n/a	n/a	n/a	n/a	n/a
4986.178	n/a	RECOG_TARGET	2493089	n/a	LTP101	ltpFR	0	5	1	PREDATOR	1120	n/a	1	n/a	n/a	n/a	n/a	n/a
4988.264	n/a	RECOG_RESP	2494132	n/a	LTP101	ltpFR	0	5	1	PREDATOR	1120	n/a	1	n/a	n/a	n/a	n/a	n/a
4990.97	n/a	RECOG_TARGET	2495485	n/a	LTP101	ltpFR	0	5	-1	SHORE	1291	n/a	-1	n/a	n/a	n/a	n/a	n/a
4991.868	n/a	RECOG_RESP	2495934	n/a	LTP101	ltpFR	0	5	-1	SHORE	1291	n/a	-1	n/a	n/a	n/a	n/a	n/a
4997.812	n/a	REC_START	2498906	n/a	LTP101	ltpFR	0	6	n/a	n/a	n/a	n/a	n/a	n/a	n/a	n/a	n/a	n/a
4997.846	n/a	RECOG_LURE	2498923	n/a	LTP101	ltpFR	0	6	n/a	LEG	809	n/a	n/a	n/a	n/a	n/a	n/a	n/a
4999.184	n/a	RECOG_RESP	2499592	n/a	LTP101	ltpFR	0	6	n/a	LEG	809	n/a	n/a	n/a	n/a	n/a	n/a	n/a
5001.796	n/a	RECOG_TARGET	2500898	n/a	LTP101	ltpFR	0	6	1	GRIZZLY	662	n/a	1	n/a	n/a	n/a	n/a	n/a
5002.6	n/a	RECOG_RESP	2501300	n/a	LTP101	ltpFR	0	6	1	GRIZZLY	662	n/a	1	n/a	n/a	n/a	n/a	n/a
5004.554	n/a	RECOG_LURE	2502277	n/a	LTP101	ltpFR	0	6	n/a	CHEF	290	n/a	n/a	n/a	n/a	n/a	n/a	n/a
5006.016	n/a	RECOG_RESP	2503008	n/a	LTP101	ltpFR	0	6	n/a	CHEF	290	n/a	n/a	n/a	n/a	n/a	n/a	n/a
5009.136	n/a	RECOG_LURE	2504568	n/a	LTP101	ltpFR	0	6	n/a	NEUTRON	947	n/a	n/a	n/a	n/a	n/a	n/a	n/a
5010.396	n/a	RECOG_RESP	2505198	n/a	LTP101	ltpFR	0	6	n/a	NEUTRON	947	n/a	n/a	n/a	n/a	n/a	n/a	n/a
5014.528	n/a	RECOG_TARGET	2507264	n/a	LTP101	ltpFR	0	6	1	DOLLAR	482	n/a	0	n/a	n/a	n/a	n/a	n/a
5016.946	n/a	RECOG_RESP	2508473	n/a	LTP101	ltpFR	0	6	1	DOLLAR	482	n/a	0	n/a	n/a	n/a	n/a	n/a
5019.604	n/a	RECOG_TARGET	2509802	n/a	LTP101	ltpFR	0	6	0	BANDANNA	80	n/a	0	n/a	n/a	n/a	n/a	n/a
5020.814	n/a	RECOG_RESP	2510407	n/a	LTP101	ltpFR	0	6	0	BANDANNA	80	n/a	0	n/a	n/a	n/a	n/a	n/a
5023.638	n/a	RECOG_LURE	2511819	n/a	LTP101	ltpFR	0	6	n/a	CHIEF	298	n/a	n/a	n/a	n/a	n/a	n/a	n/a
5025.764	n/a	RECOG_RESP	2512882	n/a	LTP101	ltpFR	0	6	n/a	CHIEF	298	n/a	n/a	n/a	n/a	n/a	n/a	n/a
5028.462	n/a	RECOG_TARGET	2514231	n/a	LTP101	ltpFR	0	6	-1	COURSE	390	n/a	-1	n/a	n/a	n/a	n/a	n/a
5030.898	n/a	RECOG_RESP	2515449	n/a	LTP101	ltpFR	0	6	-1	COURSE	390	n/a	-1	n/a	n/a	n/a	n/a	n/a
5033.662	n/a	RECOG_TARGET	2516831	n/a	LTP101	ltpFR	0	6	0	PORTRAIT	1111	n/a	0	n/a	n/a	n/a	n/a	n/a
5034.894	n/a	RECOG_RESP	2517447	n/a	LTP101	ltpFR	0	6	0	PORTRAIT	1111	n/a	0	n/a	n/a	n/a	n/a	n/a
5037.562	n/a	RECOG_TARGET	2518781	n/a	LTP101	ltpFR	0	6	1	MAYONNAISE	880	n/a	0	n/a	n/a	n/a	n/a	n/a
5038.198	n/a	RECOG_RESP	2519099	n/a	LTP101	ltpFR	0	6	1	MAYONNAISE	880	n/a	0	n/a	n/a	n/a	n/a	n/a
5041.02	n/a	RECOG_LURE	2520510	n/a	LTP101	ltpFR	0	6	n/a	KNIFE	785	n/a	n/a	n/a	n/a	n/a	n/a	n/a
5042.652	n/a	RECOG_RESP	2521326	n/a	LTP101	ltpFR	0	6	n/a	KNIFE	785	n/a	n/a	n/a	n/a	n/a	n/a	n/a
5045.62	n/a	RECOG_TARGET	2522810	n/a	LTP101	ltpFR	0	6	1	BLUEPRINT	142	n/a	0	n/a	n/a	n/a	n/a	n/a
5047.654	n/a	RECOG_RESP	2523827	n/a	LTP101	ltpFR	0	6	1	BLUEPRINT	142	n/a	0	n/a	n/a	n/a	n/a	n/a
5050.168	n/a	RECOG_TARGET	2525084	n/a	LTP101	ltpFR	0	6	1	COYOTE	396	n/a	1	n/a	n/a	n/a	n/a	n/a
5053.17	n/a	RECOG_RESP	2526585	n/a	LTP101	ltpFR	0	6	1	COYOTE	396	n/a	1	n/a	n/a	n/a	n/a	n/a
5056.11	n/a	RECOG_LURE	2528055	n/a	LTP101	ltpFR	0	6	n/a	DYNAMITE	511	n/a	n/a	n/a	n/a	n/a	n/a	n/a
5058.728	n/a	RECOG_RESP	2529364	n/a	LTP101	ltpFR	0	6	n/a	DYNAMITE	511	n/a	n/a	n/a	n/a	n/a	n/a	n/a
5062.502	n/a	RECOG_TARGET	2531251	n/a	LTP101	ltpFR	0	6	1	OX	994	n/a	1	n/a	n/a	n/a	n/a	n/a
5063.462	n/a	RECOG_RESP	2531731	n/a	LTP101	ltpFR	0	6	1	OX	994	n/a	1	n/a	n/a	n/a	n/a	n/a
5066.326	n/a	RECOG_LURE	2533163	n/a	LTP101	ltpFR	0	6	n/a	CIRCUS	311	n/a	n/a	n/a	n/a	n/a	n/a	n/a
5067.316	n/a	RECOG_RESP	2533658	n/a	LTP101	ltpFR	0	6	n/a	CIRCUS	311	n/a	n/a	n/a	n/a	n/a	n/a	n/a
5069.652	n/a	RECOG_TARGET	2534826	n/a	LTP101	ltpFR	0	6	1	BEAST	108	n/a	1	n/a	n/a	n/a	n/a	n/a
5070.614	n/a	RECOG_RESP	2535307	n/a	LTP101	ltpFR	0	6	1	BEAST	108	n/a	1	n/a	n/a	n/a	n/a	n/a
5073.092	n/a	RECOG_LURE	2536546	n/a	LTP101	ltpFR	0	6	n/a	OAR	966	n/a	n/a	n/a	n/a	n/a	n/a	n/a
5074.156	n/a	RECOG_RESP	2537078	n/a	LTP101	ltpFR	0	6	n/a	OAR	966	n/a	n/a	n/a	n/a	n/a	n/a	n/a
5076.402	n/a	RECOG_TARGET	2538201	n/a	LTP101	ltpFR	0	6	1	BUGLE	189	n/a	0	n/a	n/a	n/a	n/a	n/a
5077.646	n/a	RECOG_RESP	2538823	n/a	LTP101	ltpFR	0	6	1	BUGLE	189	n/a	0	n/a	n/a	n/a	n/a	n/a
5079.886	n/a	RECOG_TARGET	2539943	n/a	LTP101	ltpFR	0	6	-1	GAVEL	627	n/a	-1	n/a	n/a	n/a	n/a	n/a
5080.598	n/a	RECOG_RESP	2540299	n/a	LTP101	ltpFR	0	6	-1	GAVEL	627	n/a	-1	n/a	n/a	n/a	n/a	n/a
5085.602	n/a	REC_START	2542801	n/a	LTP101	ltpFR	0	7	n/a	n/a	n/a	n/a	n/a	n/a	n/a	n/a	n/a	n/a
