mstime	trial_type	stim_file	subject	experiment	session	trial	task	item_name	item_num	recog_resp	recog_conf	resp	color_r	color_g	color_b	case	font
0	SESS_START	n/a	LTP238	ltpFR	1	n/a	n/a	n/a	n/a	1	3	n/a	n/a	n/a	n/a	n/a	n/a
109212	WORD	wordpools/wasnorm_wordpool_less_exclusions.txt	LTP238	ltpFR	1	1	1	PEOPLE	1046	0	n/a	1	0.57763671875	0.412841796875	1	lower	zerothre.ttf
113206	WORD	wordpools/wasnorm_wordpool_less_exclusions.txt	LTP238	ltpFR	1	1	1	MOB	904	n/a	n/a	1	0.57763671875	0.412841796875	1	lower	zerothre.ttf
117101	WORD	wordpools/wasnorm_wordpool_less_exclusions.txt	LTP238	ltpFR	1	1	1	HORNET	718	n/a	n/a	1	0.57763671875	0.412841796875	1	lower	zerothre.ttf
121045	WORD	wordpools/wasnorm_wordpool_less_exclusions.txt	LTP238	ltpFR	1	1	1	HANGER	687	n/a	n/a	0	0.57763671875	0.412841796875	1	lower	zerothre.ttf
125255	WORD	wordpools/wasnorm_wordpool_less_exclusions.txt	LTP238	ltpFR	1	1	0	RIBBON	1189	n/a	n/a	0	0.422607421875	0.5869140625	0	upper	amplitud.ttf
129116	WORD	wordpools/wasnorm_wordpool_less_exclusions.txt	LTP238	ltpFR	1	1	0	BULL	193	n/a	n/a	1	0.422607421875	0.5869140625	0	upper	amplitud.ttf
133110	WORD	wordpools/wasnorm_wordpool_less_exclusions.txt	LTP238	ltpFR	1	1	0	CREEK	404	n/a	n/a	1	0.422607421875	0.5869140625	0	upper	amplitud.ttf
136971	WORD	wordpools/wasnorm_wordpool_less_exclusions.txt	LTP238	ltpFR	1	1	0	WASP	1593	n/a	n/a	1	0.422607421875	0.5869140625	0	upper	amplitud.ttf
140915	WORD	wordpools/wasnorm_wordpool_less_exclusions.txt	LTP238	ltpFR	1	1	0	LIP	828	n/a	n/a	0	0.422607421875	0.5869140625	0	upper	amplitud.ttf
145059	WORD	wordpools/wasnorm_wordpool_less_exclusions.txt	LTP238	ltpFR	1	1	1	ATLAS	53	n/a	n/a	0	0.57763671875	0.412841796875	1	lower	zerothre.ttf
149219	WORD	wordpools/wasnorm_wordpool_less_exclusions.txt	LTP238	ltpFR	1	1	1	AFRICA	9	n/a	n/a	0	0.57763671875	0.412841796875	1	lower	zerothre.ttf
153363	WORD	wordpools/wasnorm_wordpool_less_exclusions.txt	LTP238	ltpFR	1	1	0	LOBSTER	837	n/a	n/a	0	0.422607421875	0.5869140625	0	upper	amplitud.ttf
157390	WORD	wordpools/wasnorm_wordpool_less_exclusions.txt	LTP238	ltpFR	1	1	0	SCENERY	1247	n/a	n/a	1	0.422607421875	0.5869140625	0	upper	amplitud.ttf
161235	WORD	wordpools/wasnorm_wordpool_less_exclusions.txt	LTP238	ltpFR	1	1	0	LAMP	798	n/a	n/a	1	0.422607421875	0.5869140625	0	upper	amplitud.ttf
165195	WORD	wordpools/wasnorm_wordpool_less_exclusions.txt	LTP238	ltpFR	1	1	1	SWITCH	1422	n/a	n/a	0	0.57763671875	0.412841796875	1	lower	zerothre.ttf
169123	WORD	wordpools/wasnorm_wordpool_less_exclusions.txt	LTP238	ltpFR	1	1	1	BOUQUET	157	n/a	n/a	n/a	0.57763671875	0.412841796875	1	lower	zerothre.ttf
172152	SLOW_MSG	n/a	LTP238	ltpFR	1	1	n/a	n/a	n/a	n/a	n/a	n/a	n/a	n/a	n/a	n/a	n/a
176596	REC_START	n/a	LTP238	ltpFR	1	1	n/a	n/a	n/a	n/a	n/a	n/a	n/a	n/a	n/a	n/a	n/a
178621	REC_WORD	wordpools/wasnorm_wordpool_less_exclusions.txt	LTP238	ltpFR	1	1	1	PEOPLE	1046	n/a	n/a	1	n/a	n/a	n/a	n/a	n/a
180063	REC_WORD	wordpools/wasnorm_wordpool_less_exclusions.txt	LTP238	ltpFR	1	1	1	MOB	904	n/a	n/a	1	n/a	n/a	n/a	n/a	n/a
182193	REC_WORD	wordpools/wasnorm_wordpool_less_exclusions.txt	LTP238	ltpFR	1	1	0	LAMP	798	n/a	n/a	1	n/a	n/a	n/a	n/a	n/a
183330	REC_WORD	wordpools/wasnorm_wordpool_less_exclusions.txt	LTP238	ltpFR	1	1	0	LOBSTER	837	n/a	n/a	0	n/a	n/a	n/a	n/a	n/a
184717	REC_WORD	wordpools/wasnorm_wordpool_less_exclusions.txt	LTP238	ltpFR	1	1	0	SCENERY	1247	n/a	n/a	1	n/a	n/a	n/a	n/a	n/a
191696	REC_WORD	wordpools/wasnorm_wordpool_less_exclusions.txt	LTP238	ltpFR	1	1	0	WASP	1593	n/a	n/a	1	n/a	n/a	n/a	n/a	n/a
193023	REC_WORD	wordpools/wasnorm_wordpool_less_exclusions.txt	LTP238	ltpFR	1	1	0	LIP	828	n/a	n/a	0	n/a	n/a	n/a	n/a	n/a
213527	REC_WORD	wordpools/wasnorm_wordpool_less_exclusions.txt	LTP238	ltpFR	1	1	1	HANGER	687	n/a	n/a	0	n/a	n/a	n/a	n/a	n/a
222711	REC_WORD	wordpools/wasnorm_wordpool_less_exclusions.txt	LTP238	ltpFR	1	1	1	ATLAS	53	n/a	n/a	0	n/a	n/a	n/a	n/a	n/a
238914	REC_WORD	wordpools/wasnorm_wordpool_less_exclusions.txt	LTP238	ltpFR	1	1	1	AFRICA	9	n/a	n/a	0	n/a	n/a	n/a	n/a	n/a
265547	WORD	wordpools/wasnorm_wordpool_less_exclusions.txt	LTP238	ltpFR	1	2	0	SACK	1220	n/a	n/a	0	0.422607421875	0.5869140625	0	upper	amplitud.ttf
269656	WORD	wordpools/wasnorm_wordpool_less_exclusions.txt	LTP238	ltpFR	1	2	0	KANGAROO	768	n/a	n/a	1	0.422607421875	0.5869140625	0	upper	amplitud.ttf
273650	WORD	wordpools/wasnorm_wordpool_less_exclusions.txt	LTP238	ltpFR	1	2	1	BAIT	70	n/a	n/a	1	0.57763671875	0.412841796875	1	lower	zerothre.ttf
277677	WORD	wordpools/wasnorm_wordpool_less_exclusions.txt	LTP238	ltpFR	1	2	1	JUNGLE	764	n/a	n/a	1	0.57763671875	0.412841796875	1	lower	zerothre.ttf
281671	WORD	wordpools/wasnorm_wordpool_less_exclusions.txt	LTP238	ltpFR	1	2	1	CREATURE	403	n/a	n/a	1	0.57763671875	0.412841796875	1	lower	zerothre.ttf
285732	WORD	wordpools/wasnorm_wordpool_less_exclusions.txt	LTP238	ltpFR	1	2	1	STEAM	1375	n/a	n/a	0	0.57763671875	0.412841796875	1	lower	zerothre.ttf
289959	WORD	wordpools/wasnorm_wordpool_less_exclusions.txt	LTP238	ltpFR	1	2	0	AIRPLANE	12	n/a	n/a	1	0.422607421875	0.5869140625	0	upper	amplitud.ttf
293970	WORD	wordpools/wasnorm_wordpool_less_exclusions.txt	LTP238	ltpFR	1	2	0	TUNA	1518	n/a	n/a	0	0.422607421875	0.5869140625	0	upper	amplitud.ttf
297831	WORD	wordpools/wasnorm_wordpool_less_exclusions.txt	LTP238	ltpFR	1	2	0	APPLE	33	n/a	n/a	0	0.422607421875	0.5869140625	0	upper	amplitud.ttf
301675	WORD	wordpools/wasnorm_wordpool_less_exclusions.txt	LTP238	ltpFR	1	2	0	PLUM	1090	n/a	n/a	0	0.422607421875	0.5869140625	0	upper	amplitud.ttf
305652	WORD	wordpools/wasnorm_wordpool_less_exclusions.txt	LTP238	ltpFR	1	2	0	PERCH	1048	n/a	n/a	0	0.422607421875	0.5869140625	0	upper	amplitud.ttf
309763	WORD	wordpools/wasnorm_wordpool_less_exclusions.txt	LTP238	ltpFR	1	2	0	TWEEZERS	1526	n/a	n/a	0	0.422607421875	0.5869140625	0	upper	amplitud.ttf
313724	WORD	wordpools/wasnorm_wordpool_less_exclusions.txt	LTP238	ltpFR	1	2	1	RAM	1165	n/a	n/a	1	0.57763671875	0.412841796875	1	lower	zerothre.ttf
317884	WORD	wordpools/wasnorm_wordpool_less_exclusions.txt	LTP238	ltpFR	1	2	1	WATER	1594	n/a	n/a	0	0.57763671875	0.412841796875	1	lower	zerothre.ttf
321861	WORD	wordpools/wasnorm_wordpool_less_exclusions.txt	LTP238	ltpFR	1	2	1	THIGH	1457	n/a	n/a	1	0.57763671875	0.412841796875	1	lower	zerothre.ttf
325872	WORD	wordpools/wasnorm_wordpool_less_exclusions.txt	LTP238	ltpFR	1	2	1	SARDINE	1235	n/a	n/a	1	0.57763671875	0.412841796875	1	lower	zerothre.ttf
331714	REC_START	n/a	LTP238	ltpFR	1	2	n/a	n/a	n/a	n/a	n/a	n/a	n/a	n/a	n/a	n/a	n/a
333415	REC_WORD	wordpools/wasnorm_wordpool_less_exclusions.txt	LTP238	ltpFR	1	2	1	SARDINE	1235	n/a	n/a	1	n/a	n/a	n/a	n/a	n/a
335111	REC_WORD	wordpools/wasnorm_wordpool_less_exclusions.txt	LTP238	ltpFR	1	2	1	THIGH	1457	n/a	n/a	1	n/a	n/a	n/a	n/a	n/a
338942	REC_WORD	wordpools/wasnorm_wordpool_less_exclusions.txt	LTP238	ltpFR	1	2	1	RAM	1165	n/a	n/a	1	n/a	n/a	n/a	n/a	n/a
349593	REC_WORD	wordpools/wasnorm_wordpool_less_exclusions.txt	LTP238	ltpFR	1	2	0	PLUM	1090	n/a	n/a	0	n/a	n/a	n/a	n/a	n/a
356971	REC_WORD	wordpools/wasnorm_wordpool_less_exclusions.txt	LTP238	ltpFR	1	2	0	KANGAROO	768	n/a	n/a	1	n/a	n/a	n/a	n/a	n/a
362424	REC_WORD	wordpools/wasnorm_wordpool_less_exclusions.txt	LTP238	ltpFR	1	2	0	TWEEZERS	1526	n/a	n/a	0	n/a	n/a	n/a	n/a	n/a
424009	WORD	wordpools/wasnorm_wordpool_less_exclusions.txt	LTP238	ltpFR	1	3	0	TRUCK	1512	n/a	n/a	1	0.422607421875	0.5869140625	0	upper	amplitud.ttf
427936	WORD	wordpools/wasnorm_wordpool_less_exclusions.txt	LTP238	ltpFR	1	3	0	TECHNICIAN	1443	n/a	n/a	1	0.422607421875	0.5869140625	0	upper	amplitud.ttf
432047	WORD	wordpools/wasnorm_wordpool_less_exclusions.txt	LTP238	ltpFR	1	3	0	BATHTUB	100	n/a	n/a	1	0.422607421875	0.5869140625	0	upper	amplitud.ttf
435974	WORD	wordpools/wasnorm_wordpool_less_exclusions.txt	LTP238	ltpFR	1	3	0	VALVE	1546	n/a	n/a	0	0.422607421875	0.5869140625	0	upper	amplitud.ttf
439852	WORD	wordpools/wasnorm_wordpool_less_exclusions.txt	LTP238	ltpFR	1	3	0	WHEEL	1603	n/a	n/a	1	0.422607421875	0.5869140625	0	upper	amplitud.ttf
443829	WORD	wordpools/wasnorm_wordpool_less_exclusions.txt	LTP238	ltpFR	1	3	0	CHAUFFEUR	283	n/a	n/a	1	0.422607421875	0.5869140625	0	upper	amplitud.ttf
448006	WORD	wordpools/wasnorm_wordpool_less_exclusions.txt	LTP238	ltpFR	1	3	0	CALENDAR	221	n/a	n/a	0	0.422607421875	0.5869140625	0	upper	amplitud.ttf
451851	WORD	wordpools/wasnorm_wordpool_less_exclusions.txt	LTP238	ltpFR	1	3	0	LABYRINTH	791	n/a	n/a	1	0.422607421875	0.5869140625	0	upper	amplitud.ttf
455761	WORD	wordpools/wasnorm_wordpool_less_exclusions.txt	LTP238	ltpFR	1	3	0	THERMOMETER	1453	n/a	n/a	0	0.422607421875	0.5869140625	0	upper	amplitud.ttf
459955	WORD	wordpools/wasnorm_wordpool_less_exclusions.txt	LTP238	ltpFR	1	3	0	JUG	762	n/a	n/a	n/a	0.422607421875	0.5869140625	0	upper	amplitud.ttf
462984	SLOW_MSG	n/a	LTP238	ltpFR	1	3	n/a	n/a	n/a	n/a	n/a	n/a	n/a	n/a	n/a	n/a	n/a
465448	WORD	wordpools/wasnorm_wordpool_less_exclusions.txt	LTP238	ltpFR	1	3	0	SUPERVISOR	1410	n/a	n/a	1	0.422607421875	0.5869140625	0	upper	amplitud.ttf
469324	WORD	wordpools/wasnorm_wordpool_less_exclusions.txt	LTP238	ltpFR	1	3	0	BRAKE	166	n/a	n/a	0	0.422607421875	0.5869140625	0	upper	amplitud.ttf
473252	WORD	wordpools/wasnorm_wordpool_less_exclusions.txt	LTP238	ltpFR	1	3	0	TUNNEL	1519	n/a	n/a	1	0.422607421875	0.5869140625	0	upper	amplitud.ttf
477246	WORD	wordpools/wasnorm_wordpool_less_exclusions.txt	LTP238	ltpFR	1	3	0	BOYFRIEND	162	n/a	n/a	1	0.422607421875	0.5869140625	0	upper	amplitud.ttf
481273	WORD	wordpools/wasnorm_wordpool_less_exclusions.txt	LTP238	ltpFR	1	3	0	GUM	672	n/a	n/a	0	0.422607421875	0.5869140625	0	upper	amplitud.ttf
485184	WORD	wordpools/wasnorm_wordpool_less_exclusions.txt	LTP238	ltpFR	1	3	0	CIGARETTE	309	n/a	n/a	0	0.422607421875	0.5869140625	0	upper	amplitud.ttf
491209	REC_START	n/a	LTP238	ltpFR	1	3	n/a	n/a	n/a	n/a	n/a	n/a	n/a	n/a	n/a	n/a	n/a
493020	REC_WORD	wordpools/wasnorm_wordpool_less_exclusions.txt	LTP238	ltpFR	1	3	0	CIGARETTE	309	n/a	n/a	0	n/a	n/a	n/a	n/a	n/a
495205	REC_WORD	wordpools/wasnorm_wordpool_less_exclusions.txt	LTP238	ltpFR	1	3	0	GUM	672	n/a	n/a	0	n/a	n/a	n/a	n/a	n/a
496507	REC_WORD	wordpools/wasnorm_wordpool_less_exclusions.txt	LTP238	ltpFR	1	3	0	CHAUFFEUR	283	n/a	n/a	1	n/a	n/a	n/a	n/a	n/a
498422	REC_WORD	wordpools/wasnorm_wordpool_less_exclusions.txt	LTP238	ltpFR	1	3	n/a	BOY	161	n/a	n/a	n/a	n/a	n/a	n/a	n/a	n/a
500243	REC_WORD	wordpools/wasnorm_wordpool_less_exclusions.txt	LTP238	ltpFR	1	3	0	TECHNICIAN	1443	n/a	n/a	1	n/a	n/a	n/a	n/a	n/a
501874	REC_WORD	wordpools/wasnorm_wordpool_less_exclusions.txt	LTP238	ltpFR	1	3	0	VALVE	1546	n/a	n/a	0	n/a	n/a	n/a	n/a	n/a
503506	REC_WORD	wordpools/wasnorm_wordpool_less_exclusions.txt	LTP238	ltpFR	1	3	0	TRUCK	1512	n/a	n/a	1	n/a	n/a	n/a	n/a	n/a
507891	REC_WORD	wordpools/wasnorm_wordpool_less_exclusions.txt	LTP238	ltpFR	1	3	0	JUG	762	n/a	n/a	n/a	n/a	n/a	n/a	n/a	n/a
575882	WORD	wordpools/wasnorm_wordpool_less_exclusions.txt	LTP238	ltpFR	1	4	1	CHAIRPERSON	275	n/a	n/a	1	0.57763671875	0.412841796875	1	lower	zerothre.ttf
579826	WORD	wordpools/wasnorm_wordpool_less_exclusions.txt	LTP238	ltpFR	1	4	1	BULLETIN	195	n/a	n/a	0	0.57763671875	0.412841796875	1	lower	zerothre.ttf
583804	WORD	wordpools/wasnorm_wordpool_less_exclusions.txt	LTP238	ltpFR	1	4	1	VESSEL	1558	n/a	n/a	0	0.57763671875	0.412841796875	1	lower	zerothre.ttf
587881	WORD	wordpools/wasnorm_wordpool_less_exclusions.txt	LTP238	ltpFR	1	4	1	CORAL	378	n/a	n/a	1	0.57763671875	0.412841796875	1	lower	zerothre.ttf
592008	WORD	wordpools/wasnorm_wordpool_less_exclusions.txt	LTP238	ltpFR	1	4	1	NET	946	n/a	n/a	0	0.57763671875	0.412841796875	1	lower	zerothre.ttf
596118	WORD	wordpools/wasnorm_wordpool_less_exclusions.txt	LTP238	ltpFR	1	4	1	BRIDGE	174	n/a	n/a	0	0.57763671875	0.412841796875	1	lower	zerothre.ttf
600296	WORD	wordpools/wasnorm_wordpool_less_exclusions.txt	LTP238	ltpFR	1	4	1	POOL	1103	n/a	n/a	0	0.57763671875	0.412841796875	1	lower	zerothre.ttf
604206	WORD	wordpools/wasnorm_wordpool_less_exclusions.txt	LTP238	ltpFR	1	4	1	CHAMBER	277	n/a	n/a	1	0.57763671875	0.412841796875	1	lower	zerothre.ttf
608200	WORD	wordpools/wasnorm_wordpool_less_exclusions.txt	LTP238	ltpFR	1	4	1	FOLLOWER	589	n/a	n/a	1	0.57763671875	0.412841796875	1	lower	zerothre.ttf
612361	WORD	wordpools/wasnorm_wordpool_less_exclusions.txt	LTP238	ltpFR	1	4	1	COLOGNE	347	n/a	n/a	0	0.57763671875	0.412841796875	1	lower	zerothre.ttf
616506	WORD	wordpools/wasnorm_wordpool_less_exclusions.txt	LTP238	ltpFR	1	4	1	ATHLETE	52	n/a	n/a	0	0.57763671875	0.412841796875	1	lower	zerothre.ttf
620332	WORD	wordpools/wasnorm_wordpool_less_exclusions.txt	LTP238	ltpFR	1	4	1	HINGE	709	n/a	n/a	0	0.57763671875	0.412841796875	1	lower	zerothre.ttf
624411	WORD	wordpools/wasnorm_wordpool_less_exclusions.txt	LTP238	ltpFR	1	4	1	TUBA	1515	n/a	n/a	0	0.57763671875	0.412841796875	1	lower	zerothre.ttf
628237	WORD	wordpools/wasnorm_wordpool_less_exclusions.txt	LTP238	ltpFR	1	4	1	STUMP	1396	n/a	n/a	0	0.57763671875	0.412841796875	1	lower	zerothre.ttf
632115	WORD	wordpools/wasnorm_wordpool_less_exclusions.txt	LTP238	ltpFR	1	4	1	SKUNK	1321	n/a	n/a	1	0.57763671875	0.412841796875	1	lower	zerothre.ttf
636258	WORD	wordpools/wasnorm_wordpool_less_exclusions.txt	LTP238	ltpFR	1	4	1	CAPTAIN	239	n/a	n/a	1	0.57763671875	0.412841796875	1	lower	zerothre.ttf
642167	REC_START	n/a	LTP238	ltpFR	1	4	n/a	n/a	n/a	n/a	n/a	n/a	n/a	n/a	n/a	n/a	n/a
643125	REC_WORD	wordpools/wasnorm_wordpool_less_exclusions.txt	LTP238	ltpFR	1	4	1	CAPTAIN	239	n/a	n/a	1	n/a	n/a	n/a	n/a	n/a
644337	REC_WORD	wordpools/wasnorm_wordpool_less_exclusions.txt	LTP238	ltpFR	1	4	1	SKUNK	1321	n/a	n/a	1	n/a	n/a	n/a	n/a	n/a
646103	REC_WORD	wordpools/wasnorm_wordpool_less_exclusions.txt	LTP238	ltpFR	1	4	1	CHAIRPERSON	275	n/a	n/a	1	n/a	n/a	n/a	n/a	n/a
648517	REC_WORD	wordpools/wasnorm_wordpool_less_exclusions.txt	LTP238	ltpFR	1	4	1	BULLETIN	195	n/a	n/a	0	n/a	n/a	n/a	n/a	n/a
650712	REC_WORD	wordpools/wasnorm_wordpool_less_exclusions.txt	LTP238	ltpFR	1	4	1	CHAMBER	277	n/a	n/a	1	n/a	n/a	n/a	n/a	n/a
652558	REC_WORD	wordpools/wasnorm_wordpool_less_exclusions.txt	LTP238	ltpFR	1	4	1	FOLLOWER	589	n/a	n/a	1	n/a	n/a	n/a	n/a	n/a
654389	REC_WORD	wordpools/wasnorm_wordpool_less_exclusions.txt	LTP238	ltpFR	1	4	1	ATHLETE	52	n/a	n/a	0	n/a	n/a	n/a	n/a	n/a
738356	WORD	wordpools/wasnorm_wordpool_less_exclusions.txt	LTP238	ltpFR	1	5	0	SHACK	1273	n/a	n/a	1	0.422607421875	0.5869140625	0	upper	amplitud.ttf
742434	WORD	wordpools/wasnorm_wordpool_less_exclusions.txt	LTP238	ltpFR	1	5	0	COCOON	339	n/a	n/a	0	0.422607421875	0.5869140625	0	upper	amplitud.ttf
746594	WORD	wordpools/wasnorm_wordpool_less_exclusions.txt	LTP238	ltpFR	1	5	0	OPERA	978	n/a	n/a	1	0.422607421875	0.5869140625	0	upper	amplitud.ttf
750604	WORD	wordpools/wasnorm_wordpool_less_exclusions.txt	LTP238	ltpFR	1	5	1	ROD	1203	n/a	n/a	0	0.57763671875	0.412841796875	1	lower	zerothre.ttf
754598	WORD	wordpools/wasnorm_wordpool_less_exclusions.txt	LTP238	ltpFR	1	5	1	ROOF	1205	n/a	n/a	0	0.57763671875	0.412841796875	1	lower	zerothre.ttf
758576	WORD	wordpools/wasnorm_wordpool_less_exclusions.txt	LTP238	ltpFR	1	5	1	GIRAFFE	636	n/a	n/a	1	0.57763671875	0.412841796875	1	lower	zerothre.ttf
762570	WORD	wordpools/wasnorm_wordpool_less_exclusions.txt	LTP238	ltpFR	1	5	0	SEAL	1262	n/a	n/a	0	0.422607421875	0.5869140625	0	upper	amplitud.ttf
766397	WORD	wordpools/wasnorm_wordpool_less_exclusions.txt	LTP238	ltpFR	1	5	0	LAPEL	800	n/a	n/a	0	0.422607421875	0.5869140625	0	upper	amplitud.ttf
770426	WORD	wordpools/wasnorm_wordpool_less_exclusions.txt	LTP238	ltpFR	1	5	1	BIRD	129	n/a	n/a	1	0.57763671875	0.412841796875	1	lower	zerothre.ttf
774436	WORD	wordpools/wasnorm_wordpool_less_exclusions.txt	LTP238	ltpFR	1	5	1	BAY	102	n/a	n/a	0	0.57763671875	0.412841796875	1	lower	zerothre.ttf
778497	WORD	wordpools/wasnorm_wordpool_less_exclusions.txt	LTP238	ltpFR	1	5	1	CAFETERIA	217	n/a	n/a	1	0.57763671875	0.412841796875	1	lower	zerothre.ttf
782508	WORD	wordpools/wasnorm_wordpool_less_exclusions.txt	LTP238	ltpFR	1	5	1	TACK	1428	n/a	n/a	0	0.57763671875	0.412841796875	1	lower	zerothre.ttf
786452	WORD	wordpools/wasnorm_wordpool_less_exclusions.txt	LTP238	ltpFR	1	5	1	CARRIAGE	248	n/a	n/a	0	0.57763671875	0.412841796875	1	lower	zerothre.ttf
790595	WORD	wordpools/wasnorm_wordpool_less_exclusions.txt	LTP238	ltpFR	1	5	0	BOSS	152	n/a	n/a	1	0.422607421875	0.5869140625	0	upper	amplitud.ttf
794589	WORD	wordpools/wasnorm_wordpool_less_exclusions.txt	LTP238	ltpFR	1	5	0	SECRETARY	1265	n/a	n/a	1	0.422607421875	0.5869140625	0	upper	amplitud.ttf
798683	WORD	wordpools/wasnorm_wordpool_less_exclusions.txt	LTP238	ltpFR	1	5	0	MICROPHONE	890	n/a	n/a	0	0.422607421875	0.5869140625	0	upper	amplitud.ttf
804476	REC_START	n/a	LTP238	ltpFR	1	5	n/a	n/a	n/a	n/a	n/a	n/a	n/a	n/a	n/a	n/a	n/a
805683	REC_WORD	wordpools/wasnorm_wordpool_less_exclusions.txt	LTP238	ltpFR	1	5	0	MICROPHONE	890	n/a	n/a	0	n/a	n/a	n/a	n/a	n/a
806970	REC_WORD	wordpools/wasnorm_wordpool_less_exclusions.txt	LTP238	ltpFR	1	5	0	BOSS	152	n/a	n/a	1	n/a	n/a	n/a	n/a	n/a
808766	REC_WORD	wordpools/wasnorm_wordpool_less_exclusions.txt	LTP238	ltpFR	1	5	0	SECRETARY	1265	n/a	n/a	1	n/a	n/a	n/a	n/a	n/a
811829	REC_WORD	wordpools/wasnorm_wordpool_less_exclusions.txt	LTP238	ltpFR	1	5	1	TACK	1428	n/a	n/a	0	n/a	n/a	n/a	n/a	n/a
821966	REC_WORD	wordpools/wasnorm_wordpool_less_exclusions.txt	LTP238	ltpFR	1	5	1	BAY	102	n/a	n/a	0	n/a	n/a	n/a	n/a	n/a
843866	REC_WORD	wordpools/wasnorm_wordpool_less_exclusions.txt	LTP238	ltpFR	1	5	0	SEAL	1262	n/a	n/a	0	n/a	n/a	n/a	n/a	n/a
894424	WORD	wordpools/wasnorm_wordpool_less_exclusions.txt	LTP238	ltpFR	1	6	0	YARD	1630	n/a	n/a	1	0.422607421875	0.5869140625	0	upper	amplitud.ttf
898400	WORD	wordpools/wasnorm_wordpool_less_exclusions.txt	LTP238	ltpFR	1	6	0	ARM	38	n/a	n/a	1	0.422607421875	0.5869140625	0	upper	amplitud.ttf
902479	WORD	wordpools/wasnorm_wordpool_less_exclusions.txt	LTP238	ltpFR	1	6	0	CHAPEL	280	n/a	n/a	1	0.422607421875	0.5869140625	0	upper	amplitud.ttf
906655	WORD	wordpools/wasnorm_wordpool_less_exclusions.txt	LTP238	ltpFR	1	6	0	SNAKE	1333	n/a	n/a	0	0.422607421875	0.5869140625	0	upper	amplitud.ttf
910732	WORD	wordpools/wasnorm_wordpool_less_exclusions.txt	LTP238	ltpFR	1	6	0	SWEATER	1419	n/a	n/a	n/a	0.422607421875	0.5869140625	0	upper	amplitud.ttf
913761	SLOW_MSG	n/a	LTP238	ltpFR	1	6	n/a	n/a	n/a	n/a	n/a	n/a	n/a	n/a	n/a	n/a	n/a
916290	WORD	wordpools/wasnorm_wordpool_less_exclusions.txt	LTP238	ltpFR	1	6	1	WARDROBE	1587	n/a	n/a	0	0.57763671875	0.412841796875	1	lower	zerothre.ttf
920502	WORD	wordpools/wasnorm_wordpool_less_exclusions.txt	LTP238	ltpFR	1	6	1	FISH	571	n/a	n/a	1	0.57763671875	0.412841796875	1	lower	zerothre.ttf
924661	WORD	wordpools/wasnorm_wordpool_less_exclusions.txt	LTP238	ltpFR	1	6	1	MARINE	869	n/a	n/a	0	0.57763671875	0.412841796875	1	lower	zerothre.ttf
928738	WORD	wordpools/wasnorm_wordpool_less_exclusions.txt	LTP238	ltpFR	1	6	1	TUSK	1523	n/a	n/a	0	0.57763671875	0.412841796875	1	lower	zerothre.ttf
932782	WORD	wordpools/wasnorm_wordpool_less_exclusions.txt	LTP238	ltpFR	1	6	0	WRIST	1626	n/a	n/a	0	0.422607421875	0.5869140625	0	upper	amplitud.ttf
936660	WORD	wordpools/wasnorm_wordpool_less_exclusions.txt	LTP238	ltpFR	1	6	0	SCOTCH	1251	n/a	n/a	0	0.422607421875	0.5869140625	0	upper	amplitud.ttf
940670	WORD	wordpools/wasnorm_wordpool_less_exclusions.txt	LTP238	ltpFR	1	6	0	BARTENDER	92	n/a	n/a	1	0.422607421875	0.5869140625	0	upper	amplitud.ttf
944615	WORD	wordpools/wasnorm_wordpool_less_exclusions.txt	LTP238	ltpFR	1	6	1	MINK	897	n/a	n/a	n/a	0.57763671875	0.412841796875	1	lower	zerothre.ttf
947643	SLOW_MSG	n/a	LTP238	ltpFR	1	6	n/a	n/a	n/a	n/a	n/a	n/a	n/a	n/a	n/a	n/a	n/a
950256	WORD	wordpools/wasnorm_wordpool_less_exclusions.txt	LTP238	ltpFR	1	6	1	MINER	896	n/a	n/a	1	0.57763671875	0.412841796875	1	lower	zerothre.ttf
954350	WORD	wordpools/wasnorm_wordpool_less_exclusions.txt	LTP238	ltpFR	1	6	1	JEWEL	757	n/a	n/a	0	0.57763671875	0.412841796875	1	lower	zerothre.ttf
958377	WORD	wordpools/wasnorm_wordpool_less_exclusions.txt	LTP238	ltpFR	1	6	1	THICKET	1455	n/a	n/a	1	0.57763671875	0.412841796875	1	lower	zerothre.ttf
964286	REC_START	n/a	LTP238	ltpFR	1	6	n/a	n/a	n/a	n/a	n/a	n/a	n/a	n/a	n/a	n/a	n/a
965912	REC_WORD	wordpools/wasnorm_wordpool_less_exclusions.txt	LTP238	ltpFR	1	6	1	MINER	896	n/a	n/a	1	n/a	n/a	n/a	n/a	n/a
967334	REC_WORD	wordpools/wasnorm_wordpool_less_exclusions.txt	LTP238	ltpFR	1	6	1	JEWEL	757	n/a	n/a	0	n/a	n/a	n/a	n/a	n/a
968590	REC_WORD	wordpools/wasnorm_wordpool_less_exclusions.txt	LTP238	ltpFR	1	6	1	THICKET	1455	n/a	n/a	1	n/a	n/a	n/a	n/a	n/a
983687	REC_WORD	wordpools/wasnorm_wordpool_less_exclusions.txt	LTP238	ltpFR	1	6	0	ARM	38	n/a	n/a	1	n/a	n/a	n/a	n/a	n/a
986445	REC_WORD	wordpools/wasnorm_wordpool_less_exclusions.txt	LTP238	ltpFR	1	6	0	WRIST	1626	n/a	n/a	0	n/a	n/a	n/a	n/a	n/a
988865	REC_WORD	wordpools/wasnorm_wordpool_less_exclusions.txt	LTP238	ltpFR	1	6	0	BARTENDER	92	n/a	n/a	1	n/a	n/a	n/a	n/a	n/a
990910	REC_WORD	wordpools/wasnorm_wordpool_less_exclusions.txt	LTP238	ltpFR	1	6	0	SCOTCH	1251	n/a	n/a	0	n/a	n/a	n/a	n/a	n/a
1068679	WORD	wordpools/wasnorm_wordpool_less_exclusions.txt	LTP238	ltpFR	1	7	0	TANK	1432	n/a	n/a	1	0.422607421875	0.5869140625	0	upper	amplitud.ttf
1072590	WORD	wordpools/wasnorm_wordpool_less_exclusions.txt	LTP238	ltpFR	1	7	0	PAIL	1002	n/a	n/a	0	0.422607421875	0.5869140625	0	upper	amplitud.ttf
1076684	WORD	wordpools/wasnorm_wordpool_less_exclusions.txt	LTP238	ltpFR	1	7	0	PELICAN	1039	n/a	n/a	1	0.422607421875	0.5869140625	0	upper	amplitud.ttf
1080546	WORD	wordpools/wasnorm_wordpool_less_exclusions.txt	LTP238	ltpFR	1	7	0	SHEET	1279	n/a	n/a	0	0.422607421875	0.5869140625	0	upper	amplitud.ttf
1084406	WORD	wordpools/wasnorm_wordpool_less_exclusions.txt	LTP238	ltpFR	1	7	0	COBWEB	337	n/a	n/a	0	0.422607421875	0.5869140625	0	upper	amplitud.ttf
1088417	WORD	wordpools/wasnorm_wordpool_less_exclusions.txt	LTP238	ltpFR	1	7	0	COD	340	n/a	n/a	0	0.422607421875	0.5869140625	0	upper	amplitud.ttf
1092478	WORD	wordpools/wasnorm_wordpool_less_exclusions.txt	LTP238	ltpFR	1	7	0	JOURNAL	760	n/a	n/a	0	0.422607421875	0.5869140625	0	upper	amplitud.ttf
1096505	WORD	wordpools/wasnorm_wordpool_less_exclusions.txt	LTP238	ltpFR	1	7	0	BINDER	127	n/a	n/a	0	0.422607421875	0.5869140625	0	upper	amplitud.ttf
1100598	WORD	wordpools/wasnorm_wordpool_less_exclusions.txt	LTP238	ltpFR	1	7	0	EDITOR	516	n/a	n/a	1	0.422607421875	0.5869140625	0	upper	amplitud.ttf
1104460	WORD	wordpools/wasnorm_wordpool_less_exclusions.txt	LTP238	ltpFR	1	7	0	DOORBELL	487	n/a	n/a	0	0.422607421875	0.5869140625	0	upper	amplitud.ttf
1108387	WORD	wordpools/wasnorm_wordpool_less_exclusions.txt	LTP238	ltpFR	1	7	0	PARROT	1015	n/a	n/a	0	0.422607421875	0.5869140625	0	upper	amplitud.ttf
1112314	WORD	wordpools/wasnorm_wordpool_less_exclusions.txt	LTP238	ltpFR	1	7	0	SLACKS	1323	n/a	n/a	0	0.422607421875	0.5869140625	0	upper	amplitud.ttf
1116375	WORD	wordpools/wasnorm_wordpool_less_exclusions.txt	LTP238	ltpFR	1	7	0	APARTMENT	30	n/a	n/a	1	0.422607421875	0.5869140625	0	upper	amplitud.ttf
1120236	WORD	wordpools/wasnorm_wordpool_less_exclusions.txt	LTP238	ltpFR	1	7	0	BOOTH	151	n/a	n/a	1	0.422607421875	0.5869140625	0	upper	amplitud.ttf
1124080	WORD	wordpools/wasnorm_wordpool_less_exclusions.txt	LTP238	ltpFR	1	7	0	TELEPHONE	1445	n/a	n/a	0	0.422607421875	0.5869140625	0	upper	amplitud.ttf
1127974	WORD	wordpools/wasnorm_wordpool_less_exclusions.txt	LTP238	ltpFR	1	7	0	RIVER	1194	n/a	n/a	1	0.422607421875	0.5869140625	0	upper	amplitud.ttf
1133916	REC_START	n/a	LTP238	ltpFR	1	7	n/a	n/a	n/a	n/a	n/a	n/a	n/a	n/a	n/a	n/a	n/a
1135103	REC_WORD	wordpools/wasnorm_wordpool_less_exclusions.txt	LTP238	ltpFR	1	7	0	RIVER	1194	n/a	n/a	1	n/a	n/a	n/a	n/a	n/a
1136300	REC_WORD	wordpools/wasnorm_wordpool_less_exclusions.txt	LTP238	ltpFR	1	7	0	BOOTH	151	n/a	n/a	1	n/a	n/a	n/a	n/a	n/a
1137477	REC_WORD	wordpools/wasnorm_wordpool_less_exclusions.txt	LTP238	ltpFR	1	7	0	APARTMENT	30	n/a	n/a	1	n/a	n/a	n/a	n/a	n/a
1139827	REC_WORD	wordpools/wasnorm_wordpool_less_exclusions.txt	LTP238	ltpFR	1	7	0	EDITOR	516	n/a	n/a	1	n/a	n/a	n/a	n/a	n/a
1141923	REC_WORD	wordpools/wasnorm_wordpool_less_exclusions.txt	LTP238	ltpFR	1	7	0	PELICAN	1039	n/a	n/a	1	n/a	n/a	n/a	n/a	n/a
1156859	REC_WORD	wordpools/wasnorm_wordpool_less_exclusions.txt	LTP238	ltpFR	1	7	0	SHEET	1279	n/a	n/a	0	n/a	n/a	n/a	n/a	n/a
1236662	WORD	wordpools/wasnorm_wordpool_less_exclusions.txt	LTP238	ltpFR	1	8	1	SPHINX	1349	n/a	n/a	0	0.57763671875	0.412841796875	1	lower	zerothre.ttf
1240622	WORD	wordpools/wasnorm_wordpool_less_exclusions.txt	LTP238	ltpFR	1	8	1	BULLY	196	n/a	n/a	1	0.57763671875	0.412841796875	1	lower	zerothre.ttf
1244666	WORD	wordpools/wasnorm_wordpool_less_exclusions.txt	LTP238	ltpFR	1	8	1	POLYESTER	1100	n/a	n/a	0	0.57763671875	0.412841796875	1	lower	zerothre.ttf
1248661	WORD	wordpools/wasnorm_wordpool_less_exclusions.txt	LTP238	ltpFR	1	8	1	BANANA	77	n/a	n/a	1	0.57763671875	0.412841796875	1	lower	zerothre.ttf
1252821	WORD	wordpools/wasnorm_wordpool_less_exclusions.txt	LTP238	ltpFR	1	8	1	RASPBERRY	1168	n/a	n/a	1	0.57763671875	0.412841796875	1	lower	zerothre.ttf
1257015	WORD	wordpools/wasnorm_wordpool_less_exclusions.txt	LTP238	ltpFR	1	8	1	WRITER	1627	n/a	n/a	1	0.57763671875	0.412841796875	1	lower	zerothre.ttf
1260959	WORD	wordpools/wasnorm_wordpool_less_exclusions.txt	LTP238	ltpFR	1	8	0	QUEEN	1149	n/a	n/a	1	0.422607421875	0.5869140625	0	upper	amplitud.ttf
1265119	WORD	wordpools/wasnorm_wordpool_less_exclusions.txt	LTP238	ltpFR	1	8	0	FIDDLE	561	n/a	n/a	0	0.422607421875	0.5869140625	0	upper	amplitud.ttf
1269296	WORD	wordpools/wasnorm_wordpool_less_exclusions.txt	LTP238	ltpFR	1	8	1	HAND	683	n/a	n/a	1	0.57763671875	0.412841796875	1	lower	zerothre.ttf
1273390	WORD	wordpools/wasnorm_wordpool_less_exclusions.txt	LTP238	ltpFR	1	8	1	FIST	572	n/a	n/a	1	0.57763671875	0.412841796875	1	lower	zerothre.ttf
1277419	WORD	wordpools/wasnorm_wordpool_less_exclusions.txt	LTP238	ltpFR	1	8	0	INVENTOR	743	n/a	n/a	1	0.422607421875	0.5869140625	0	upper	amplitud.ttf
1281345	WORD	wordpools/wasnorm_wordpool_less_exclusions.txt	LTP238	ltpFR	1	8	0	ROBOT	1200	n/a	n/a	0	0.422607421875	0.5869140625	0	upper	amplitud.ttf
1285490	WORD	wordpools/wasnorm_wordpool_less_exclusions.txt	LTP238	ltpFR	1	8	0	ROOT	1210	n/a	n/a	0	0.422607421875	0.5869140625	0	upper	amplitud.ttf
1289583	WORD	wordpools/wasnorm_wordpool_less_exclusions.txt	LTP238	ltpFR	1	8	0	LITERATURE	831	n/a	n/a	0	0.422607421875	0.5869140625	0	upper	amplitud.ttf
1293495	WORD	wordpools/wasnorm_wordpool_less_exclusions.txt	LTP238	ltpFR	1	8	0	NOTE	958	n/a	n/a	0	0.422607421875	0.5869140625	0	upper	amplitud.ttf
1297654	WORD	wordpools/wasnorm_wordpool_less_exclusions.txt	LTP238	ltpFR	1	8	0	TIE	1466	n/a	n/a	0	0.422607421875	0.5869140625	0	upper	amplitud.ttf
1303396	REC_START	n/a	LTP238	ltpFR	1	8	n/a	n/a	n/a	n/a	n/a	n/a	n/a	n/a	n/a	n/a	n/a
1305057	REC_WORD	wordpools/wasnorm_wordpool_less_exclusions.txt	LTP238	ltpFR	1	8	0	TIE	1466	n/a	n/a	0	n/a	n/a	n/a	n/a	n/a
1307157	REC_WORD	wordpools/wasnorm_wordpool_less_exclusions.txt	LTP238	ltpFR	1	8	0	LITERATURE	831	n/a	n/a	0	n/a	n/a	n/a	n/a	n/a
1394676	WORD	wordpools/wasnorm_wordpool_less_exclusions.txt	LTP238	ltpFR	1	9	-1	NOSE	957	n/a	n/a	-1	1.0	1.0	1	upper	Verdana.ttf
1398587	WORD	wordpools/wasnorm_wordpool_less_exclusions.txt	LTP238	ltpFR	1	9	-1	LIMB	822	n/a	n/a	-1	1.0	1.0	1	upper	Verdana.ttf
1402581	WORD	wordpools/wasnorm_wordpool_less_exclusions.txt	LTP238	ltpFR	1	9	-1	TREASURE	1500	n/a	n/a	-1	1.0	1.0	1	upper	Verdana.ttf
1406658	WORD	wordpools/wasnorm_wordpool_less_exclusions.txt	LTP238	ltpFR	1	9	-1	COIN	343	n/a	n/a	-1	1.0	1.0	1	upper	Verdana.ttf
1410536	WORD	wordpools/wasnorm_wordpool_less_exclusions.txt	LTP238	ltpFR	1	9	-1	LUNCH	849	n/a	n/a	-1	1.0	1.0	1	upper	Verdana.ttf
1414746	WORD	wordpools/wasnorm_wordpool_less_exclusions.txt	LTP238	ltpFR	1	9	-1	FOREHEAD	592	n/a	n/a	-1	1.0	1.0	1	upper	Verdana.ttf
1418623	WORD	wordpools/wasnorm_wordpool_less_exclusions.txt	LTP238	ltpFR	1	9	-1	COMMUNITY	356	n/a	n/a	-1	1.0	1.0	1	upper	Verdana.ttf
1422452	WORD	wordpools/wasnorm_wordpool_less_exclusions.txt	LTP238	ltpFR	1	9	-1	PICNIC	1060	n/a	n/a	-1	1.0	1.0	1	upper	Verdana.ttf
1426413	WORD	wordpools/wasnorm_wordpool_less_exclusions.txt	LTP238	ltpFR	1	9	-1	PRESIDENT	1121	n/a	n/a	-1	1.0	1.0	1	upper	Verdana.ttf
1430523	WORD	wordpools/wasnorm_wordpool_less_exclusions.txt	LTP238	ltpFR	1	9	-1	STALLION	1369	n/a	n/a	-1	1.0	1.0	1	upper	Verdana.ttf
1434733	WORD	wordpools/wasnorm_wordpool_less_exclusions.txt	LTP238	ltpFR	1	9	-1	BAND	78	n/a	n/a	-1	1.0	1.0	1	upper	Verdana.ttf
1438727	WORD	wordpools/wasnorm_wordpool_less_exclusions.txt	LTP238	ltpFR	1	9	-1	LID	817	n/a	n/a	-1	1.0	1.0	1	upper	Verdana.ttf
1442555	WORD	wordpools/wasnorm_wordpool_less_exclusions.txt	LTP238	ltpFR	1	9	-1	SUMMIT	1405	n/a	n/a	-1	1.0	1.0	1	upper	Verdana.ttf
1446483	WORD	wordpools/wasnorm_wordpool_less_exclusions.txt	LTP238	ltpFR	1	9	-1	LUMBER	848	n/a	n/a	-1	1.0	1.0	1	upper	Verdana.ttf
1450592	WORD	wordpools/wasnorm_wordpool_less_exclusions.txt	LTP238	ltpFR	1	9	-1	TORCH	1484	n/a	n/a	-1	1.0	1.0	1	upper	Verdana.ttf
1454803	WORD	wordpools/wasnorm_wordpool_less_exclusions.txt	LTP238	ltpFR	1	9	-1	HEDGE	699	n/a	n/a	-1	1.0	1.0	1	upper	Verdana.ttf
1460744	REC_START	n/a	LTP238	ltpFR	1	9	n/a	n/a	n/a	n/a	n/a	n/a	n/a	n/a	n/a	n/a	n/a
1462235	REC_WORD	wordpools/wasnorm_wordpool_less_exclusions.txt	LTP238	ltpFR	1	9	-1	HEDGE	699	n/a	n/a	-1	n/a	n/a	n/a	n/a	n/a
1464355	REC_WORD	wordpools/wasnorm_wordpool_less_exclusions.txt	LTP238	ltpFR	1	9	-1	LUMBER	848	n/a	n/a	-1	n/a	n/a	n/a	n/a	n/a
1467044	REC_WORD	wordpools/wasnorm_wordpool_less_exclusions.txt	LTP238	ltpFR	1	9	-1	PRESIDENT	1121	n/a	n/a	-1	n/a	n/a	n/a	n/a	n/a
1468596	REC_WORD	wordpools/wasnorm_wordpool_less_exclusions.txt	LTP238	ltpFR	1	9	-1	FOREHEAD	592	n/a	n/a	-1	n/a	n/a	n/a	n/a	n/a
1470831	REC_WORD	wordpools/wasnorm_wordpool_less_exclusions.txt	LTP238	ltpFR	1	9	-1	NOSE	957	n/a	n/a	-1	n/a	n/a	n/a	n/a	n/a
1474478	REC_WORD	wordpools/wasnorm_wordpool_less_exclusions.txt	LTP238	ltpFR	1	9	-1	COMMUNITY	356	n/a	n/a	-1	n/a	n/a	n/a	n/a	n/a
1485827	REC_WORD	wordpools/wasnorm_wordpool_less_exclusions.txt	LTP238	ltpFR	1	9	-1	LID	817	n/a	n/a	-1	n/a	n/a	n/a	n/a	n/a
1546467	WORD	wordpools/wasnorm_wordpool_less_exclusions.txt	LTP238	ltpFR	1	10	-1	STUDENT	1395	n/a	n/a	-1	1.0	1.0	1	upper	Verdana.ttf
1550327	WORD	wordpools/wasnorm_wordpool_less_exclusions.txt	LTP238	ltpFR	1	10	-1	CASTLE	256	n/a	n/a	-1	1.0	1.0	1	upper	Verdana.ttf
1554421	WORD	wordpools/wasnorm_wordpool_less_exclusions.txt	LTP238	ltpFR	1	10	-1	WITCH	1617	n/a	n/a	-1	1.0	1.0	1	upper	Verdana.ttf
1558365	WORD	wordpools/wasnorm_wordpool_less_exclusions.txt	LTP238	ltpFR	1	10	-1	TREAT	1501	n/a	n/a	-1	1.0	1.0	1	upper	Verdana.ttf
1562242	WORD	wordpools/wasnorm_wordpool_less_exclusions.txt	LTP238	ltpFR	1	10	-1	BUS	201	n/a	n/a	-1	1.0	1.0	1	upper	Verdana.ttf
1566236	WORD	wordpools/wasnorm_wordpool_less_exclusions.txt	LTP238	ltpFR	1	10	-1	STONE	1385	n/a	n/a	-1	1.0	1.0	1	upper	Verdana.ttf
1570263	WORD	wordpools/wasnorm_wordpool_less_exclusions.txt	LTP238	ltpFR	1	10	-1	CABBAGE	210	n/a	n/a	-1	1.0	1.0	1	upper	Verdana.ttf
1574274	WORD	wordpools/wasnorm_wordpool_less_exclusions.txt	LTP238	ltpFR	1	10	-1	ALBUM	14	n/a	n/a	-1	1.0	1.0	1	upper	Verdana.ttf
1578285	WORD	wordpools/wasnorm_wordpool_less_exclusions.txt	LTP238	ltpFR	1	10	-1	HARP	689	n/a	n/a	-1	1.0	1.0	1	upper	Verdana.ttf
1582413	WORD	wordpools/wasnorm_wordpool_less_exclusions.txt	LTP238	ltpFR	1	10	-1	VIOLIN	1571	n/a	n/a	-1	1.0	1.0	1	upper	Verdana.ttf
1586339	WORD	wordpools/wasnorm_wordpool_less_exclusions.txt	LTP238	ltpFR	1	10	-1	CONCERT	360	n/a	n/a	-1	1.0	1.0	1	upper	Verdana.ttf
1590484	WORD	wordpools/wasnorm_wordpool_less_exclusions.txt	LTP238	ltpFR	1	10	-1	EXPLOSION	544	n/a	n/a	-1	1.0	1.0	1	upper	Verdana.ttf
1594677	WORD	wordpools/wasnorm_wordpool_less_exclusions.txt	LTP238	ltpFR	1	10	-1	DAM	436	n/a	n/a	-1	1.0	1.0	1	upper	Verdana.ttf
1598821	WORD	wordpools/wasnorm_wordpool_less_exclusions.txt	LTP238	ltpFR	1	10	-1	SPRINKLE	1359	n/a	n/a	-1	1.0	1.0	1	upper	Verdana.ttf
1602732	WORD	wordpools/wasnorm_wordpool_less_exclusions.txt	LTP238	ltpFR	1	10	-1	DRIVER	499	n/a	n/a	-1	1.0	1.0	1	upper	Verdana.ttf
1606942	WORD	wordpools/wasnorm_wordpool_less_exclusions.txt	LTP238	ltpFR	1	10	-1	HOUSE	725	n/a	n/a	-1	1.0	1.0	1	upper	Verdana.ttf
1612801	REC_START	n/a	LTP238	ltpFR	1	10	n/a	n/a	n/a	n/a	n/a	n/a	n/a	n/a	n/a	n/a	n/a
1618532	REC_WORD	wordpools/wasnorm_wordpool_less_exclusions.txt	LTP238	ltpFR	1	10	-1	HOUSE	725	n/a	n/a	-1	n/a	n/a	n/a	n/a	n/a
1620633	REC_WORD	wordpools/wasnorm_wordpool_less_exclusions.txt	LTP238	ltpFR	1	10	-1	DRIVER	499	n/a	n/a	-1	n/a	n/a	n/a	n/a	n/a
1623551	REC_WORD	wordpools/wasnorm_wordpool_less_exclusions.txt	LTP238	ltpFR	1	10	-1	STUDENT	1395	n/a	n/a	-1	n/a	n/a	n/a	n/a	n/a
1625936	REC_WORD	wordpools/wasnorm_wordpool_less_exclusions.txt	LTP238	ltpFR	1	10	-1	CASTLE	256	n/a	n/a	-1	n/a	n/a	n/a	n/a	n/a
1627717	REC_WORD	wordpools/wasnorm_wordpool_less_exclusions.txt	LTP238	ltpFR	1	10	-1	WITCH	1617	n/a	n/a	-1	n/a	n/a	n/a	n/a	n/a
1631743	REC_WORD	wordpools/wasnorm_wordpool_less_exclusions.txt	LTP238	ltpFR	1	10	-1	BUS	201	n/a	n/a	-1	n/a	n/a	n/a	n/a	n/a
1701767	WORD	wordpools/wasnorm_wordpool_less_exclusions.txt	LTP238	ltpFR	1	11	1	CATTLE	261	n/a	n/a	1	0.57763671875	0.412841796875	1	lower	zerothre.ttf
1705944	WORD	wordpools/wasnorm_wordpool_less_exclusions.txt	LTP238	ltpFR	1	11	1	PITCHFORK	1078	n/a	n/a	0	0.57763671875	0.412841796875	1	lower	zerothre.ttf
1710071	WORD	wordpools/wasnorm_wordpool_less_exclusions.txt	LTP238	ltpFR	1	11	1	FELLOW	558	n/a	n/a	0	0.57763671875	0.412841796875	1	lower	zerothre.ttf
1714165	WORD	wordpools/wasnorm_wordpool_less_exclusions.txt	LTP238	ltpFR	1	11	1	BALLERINA	74	n/a	n/a	1	0.57763671875	0.412841796875	1	lower	zerothre.ttf
1718193	WORD	wordpools/wasnorm_wordpool_less_exclusions.txt	LTP238	ltpFR	1	11	1	TEACHER	1440	n/a	n/a	1	0.57763671875	0.412841796875	1	lower	zerothre.ttf
1722187	WORD	wordpools/wasnorm_wordpool_less_exclusions.txt	LTP238	ltpFR	1	11	1	SALESMAN	1225	n/a	n/a	1	0.57763671875	0.412841796875	1	lower	zerothre.ttf
1726164	WORD	wordpools/wasnorm_wordpool_less_exclusions.txt	LTP238	ltpFR	1	11	1	PAINTING	1005	n/a	n/a	0	0.57763671875	0.412841796875	1	lower	zerothre.ttf
1730041	WORD	wordpools/wasnorm_wordpool_less_exclusions.txt	LTP238	ltpFR	1	11	1	PLANT	1083	n/a	n/a	1	0.57763671875	0.412841796875	1	lower	zerothre.ttf
1733886	WORD	wordpools/wasnorm_wordpool_less_exclusions.txt	LTP238	ltpFR	1	11	1	ENEMY	534	n/a	n/a	0	0.57763671875	0.412841796875	1	lower	zerothre.ttf
1738030	WORD	wordpools/wasnorm_wordpool_less_exclusions.txt	LTP238	ltpFR	1	11	1	PHOTO	1055	n/a	n/a	0	0.57763671875	0.412841796875	1	lower	zerothre.ttf
1741924	WORD	wordpools/wasnorm_wordpool_less_exclusions.txt	LTP238	ltpFR	1	11	1	BOULEVARD	156	n/a	n/a	0	0.57763671875	0.412841796875	1	lower	zerothre.ttf
1745835	WORD	wordpools/wasnorm_wordpool_less_exclusions.txt	LTP238	ltpFR	1	11	1	STREET	1393	n/a	n/a	0	0.57763671875	0.412841796875	1	lower	zerothre.ttf
1749695	WORD	wordpools/wasnorm_wordpool_less_exclusions.txt	LTP238	ltpFR	1	11	1	BUTLER	204	n/a	n/a	1	0.57763671875	0.412841796875	1	lower	zerothre.ttf
1753723	WORD	wordpools/wasnorm_wordpool_less_exclusions.txt	LTP238	ltpFR	1	11	1	WAITER	1580	n/a	n/a	1	0.57763671875	0.412841796875	1	lower	zerothre.ttf
1757650	WORD	wordpools/wasnorm_wordpool_less_exclusions.txt	LTP238	ltpFR	1	11	1	BARLEY	88	n/a	n/a	1	0.57763671875	0.412841796875	1	lower	zerothre.ttf
1761711	WORD	wordpools/wasnorm_wordpool_less_exclusions.txt	LTP238	ltpFR	1	11	1	BREAST	171	n/a	n/a	1	0.57763671875	0.412841796875	1	lower	zerothre.ttf
1767669	REC_START	n/a	LTP238	ltpFR	1	11	n/a	n/a	n/a	n/a	n/a	n/a	n/a	n/a	n/a	n/a	n/a
1771495	REC_WORD	wordpools/wasnorm_wordpool_less_exclusions.txt	LTP238	ltpFR	1	11	1	WAITER	1580	n/a	n/a	1	n/a	n/a	n/a	n/a	n/a
1778838	REC_WORD	wordpools/wasnorm_wordpool_less_exclusions.txt	LTP238	ltpFR	1	11	1	BALLERINA	74	n/a	n/a	1	n/a	n/a	n/a	n/a	n/a
1786236	REC_WORD	wordpools/wasnorm_wordpool_less_exclusions.txt	LTP238	ltpFR	1	11	1	FELLOW	558	n/a	n/a	0	n/a	n/a	n/a	n/a	n/a
1791609	REC_WORD	wordpools/wasnorm_wordpool_less_exclusions.txt	LTP238	ltpFR	1	11	1	ENEMY	534	n/a	n/a	0	n/a	n/a	n/a	n/a	n/a
1801951	REC_WORD	wordpools/wasnorm_wordpool_less_exclusions.txt	LTP238	ltpFR	1	11	1	CATTLE	261	n/a	n/a	1	n/a	n/a	n/a	n/a	n/a
1890885	WORD	wordpools/wasnorm_wordpool_less_exclusions.txt	LTP238	ltpFR	1	12	-1	POPCORN	1104	n/a	n/a	-1	1.0	1.0	1	upper	Verdana.ttf
1895028	WORD	wordpools/wasnorm_wordpool_less_exclusions.txt	LTP238	ltpFR	1	12	-1	DUCK	504	n/a	n/a	-1	1.0	1.0	1	upper	Verdana.ttf
1899139	WORD	wordpools/wasnorm_wordpool_less_exclusions.txt	LTP238	ltpFR	1	12	-1	OINTMENT	974	n/a	n/a	-1	1.0	1.0	1	upper	Verdana.ttf
1903016	WORD	wordpools/wasnorm_wordpool_less_exclusions.txt	LTP238	ltpFR	1	12	-1	TEAM	1441	n/a	n/a	-1	1.0	1.0	1	upper	Verdana.ttf
1907160	WORD	wordpools/wasnorm_wordpool_less_exclusions.txt	LTP238	ltpFR	1	12	-1	SCARF	1246	n/a	n/a	-1	1.0	1.0	1	upper	Verdana.ttf
1911188	WORD	wordpools/wasnorm_wordpool_less_exclusions.txt	LTP238	ltpFR	1	12	-1	WALLET	1583	n/a	n/a	-1	1.0	1.0	1	upper	Verdana.ttf
1915348	WORD	wordpools/wasnorm_wordpool_less_exclusions.txt	LTP238	ltpFR	1	12	-1	VENT	1556	n/a	n/a	-1	1.0	1.0	1	upper	Verdana.ttf
1919176	WORD	wordpools/wasnorm_wordpool_less_exclusions.txt	LTP238	ltpFR	1	12	-1	AUTHOR	61	n/a	n/a	-1	1.0	1.0	1	upper	Verdana.ttf
1923303	WORD	wordpools/wasnorm_wordpool_less_exclusions.txt	LTP238	ltpFR	1	12	-1	SHELF	1280	n/a	n/a	-1	1.0	1.0	1	upper	Verdana.ttf
1927431	WORD	wordpools/wasnorm_wordpool_less_exclusions.txt	LTP238	ltpFR	1	12	-1	DESIGNER	451	n/a	n/a	-1	1.0	1.0	1	upper	Verdana.ttf
1931640	WORD	wordpools/wasnorm_wordpool_less_exclusions.txt	LTP238	ltpFR	1	12	-1	RACK	1154	n/a	n/a	-1	1.0	1.0	1	upper	Verdana.ttf
1935851	WORD	wordpools/wasnorm_wordpool_less_exclusions.txt	LTP238	ltpFR	1	12	-1	CHIME	300	n/a	n/a	-1	1.0	1.0	1	upper	Verdana.ttf
1939795	WORD	wordpools/wasnorm_wordpool_less_exclusions.txt	LTP238	ltpFR	1	12	-1	WHISTLE	1606	n/a	n/a	-1	1.0	1.0	1	upper	Verdana.ttf
1943905	WORD	wordpools/wasnorm_wordpool_less_exclusions.txt	LTP238	ltpFR	1	12	-1	CASHIER	254	n/a	n/a	-1	1.0	1.0	1	upper	Verdana.ttf
1947750	WORD	wordpools/wasnorm_wordpool_less_exclusions.txt	LTP238	ltpFR	1	12	-1	CHEERLEADER	288	n/a	n/a	-1	1.0	1.0	1	upper	Verdana.ttf
1951627	WORD	wordpools/wasnorm_wordpool_less_exclusions.txt	LTP238	ltpFR	1	12	-1	BUCKLE	185	n/a	n/a	-1	1.0	1.0	1	upper	Verdana.ttf
1957369	REC_START	n/a	LTP238	ltpFR	1	12	n/a	n/a	n/a	n/a	n/a	n/a	n/a	n/a	n/a	n/a	n/a
1959299	REC_WORD	wordpools/wasnorm_wordpool_less_exclusions.txt	LTP238	ltpFR	1	12	-1	BUCKLE	185	n/a	n/a	-1	n/a	n/a	n/a	n/a	n/a
1961554	REC_WORD	wordpools/wasnorm_wordpool_less_exclusions.txt	LTP238	ltpFR	1	12	-1	CHEERLEADER	288	n/a	n/a	-1	n/a	n/a	n/a	n/a	n/a
1963869	REC_WORD	wordpools/wasnorm_wordpool_less_exclusions.txt	LTP238	ltpFR	1	12	-1	CHIME	300	n/a	n/a	-1	n/a	n/a	n/a	n/a	n/a
1966114	REC_WORD	wordpools/wasnorm_wordpool_less_exclusions.txt	LTP238	ltpFR	1	12	-1	WHISTLE	1606	n/a	n/a	-1	n/a	n/a	n/a	n/a	n/a
1969232	REC_WORD	wordpools/wasnorm_wordpool_less_exclusions.txt	LTP238	ltpFR	1	12	-1	VENT	1556	n/a	n/a	-1	n/a	n/a	n/a	n/a	n/a
1974570	REC_WORD	wordpools/wasnorm_wordpool_less_exclusions.txt	LTP238	ltpFR	1	12	-1	SCARF	1246	n/a	n/a	-1	n/a	n/a	n/a	n/a	n/a
1985280	REC_WORD	wordpools/wasnorm_wordpool_less_exclusions.txt	LTP238	ltpFR	1	12	-1	DUCK	504	n/a	n/a	-1	n/a	n/a	n/a	n/a	n/a
1990698	REC_WORD	wordpools/wasnorm_wordpool_less_exclusions.txt	LTP238	ltpFR	1	12	-1	RACK	1154	n/a	n/a	-1	n/a	n/a	n/a	n/a	n/a
1992140	REC_WORD	wordpools/wasnorm_wordpool_less_exclusions.txt	LTP238	ltpFR	1	12	-1	SHELF	1280	n/a	n/a	-1	n/a	n/a	n/a	n/a	n/a
2032972	REST_REWET	n/a	LTP238	ltpFR	1	12	n/a	n/a	n/a	n/a	n/a	n/a	n/a	n/a	n/a	n/a	n/a
2403136	WORD	wordpools/wasnorm_wordpool_less_exclusions.txt	LTP238	ltpFR	1	13	0	SERGEANT	1269	n/a	n/a	1	0.422607421875	0.5869140625	0	upper	amplitud.ttf
2407297	WORD	wordpools/wasnorm_wordpool_less_exclusions.txt	LTP238	ltpFR	1	13	0	BISCUIT	130	n/a	n/a	0	0.422607421875	0.5869140625	0	upper	amplitud.ttf
2411458	WORD	wordpools/wasnorm_wordpool_less_exclusions.txt	LTP238	ltpFR	1	13	0	RADIO	1157	n/a	n/a	0	0.422607421875	0.5869140625	0	upper	amplitud.ttf
2415401	WORD	wordpools/wasnorm_wordpool_less_exclusions.txt	LTP238	ltpFR	1	13	0	STEREO	1378	n/a	n/a	0	0.422607421875	0.5869140625	0	upper	amplitud.ttf
2419562	WORD	wordpools/wasnorm_wordpool_less_exclusions.txt	LTP238	ltpFR	1	13	0	CONVENT	370	n/a	n/a	1	0.422607421875	0.5869140625	0	upper	amplitud.ttf
2423473	WORD	wordpools/wasnorm_wordpool_less_exclusions.txt	LTP238	ltpFR	1	13	0	ARTICLE	42	n/a	n/a	0	0.422607421875	0.5869140625	0	upper	amplitud.ttf
2427434	WORD	wordpools/wasnorm_wordpool_less_exclusions.txt	LTP238	ltpFR	1	13	0	CRITIC	410	n/a	n/a	1	0.422607421875	0.5869140625	0	upper	amplitud.ttf
2431294	WORD	wordpools/wasnorm_wordpool_less_exclusions.txt	LTP238	ltpFR	1	13	0	CRATER	400	n/a	n/a	1	0.422607421875	0.5869140625	0	upper	amplitud.ttf
2435155	WORD	wordpools/wasnorm_wordpool_less_exclusions.txt	LTP238	ltpFR	1	13	0	MOON	914	n/a	n/a	1	0.422607421875	0.5869140625	0	upper	amplitud.ttf
2439099	WORD	wordpools/wasnorm_wordpool_less_exclusions.txt	LTP238	ltpFR	1	13	0	COTTAGE	384	n/a	n/a	0	0.422607421875	0.5869140625	0	upper	amplitud.ttf
2442927	WORD	wordpools/wasnorm_wordpool_less_exclusions.txt	LTP238	ltpFR	1	13	0	FROG	608	n/a	n/a	0	0.422607421875	0.5869140625	0	upper	amplitud.ttf
2446921	WORD	wordpools/wasnorm_wordpool_less_exclusions.txt	LTP238	ltpFR	1	13	0	LINEN	825	n/a	n/a	0	0.422607421875	0.5869140625	0	upper	amplitud.ttf
2451098	WORD	wordpools/wasnorm_wordpool_less_exclusions.txt	LTP238	ltpFR	1	13	0	CRUMB	416	n/a	n/a	0	0.422607421875	0.5869140625	0	upper	amplitud.ttf
2455208	WORD	wordpools/wasnorm_wordpool_less_exclusions.txt	LTP238	ltpFR	1	13	0	CHEESE	289	n/a	n/a	0	0.422607421875	0.5869140625	0	upper	amplitud.ttf
2459252	WORD	wordpools/wasnorm_wordpool_less_exclusions.txt	LTP238	ltpFR	1	13	0	PERISCOPE	1050	n/a	n/a	1	0.422607421875	0.5869140625	0	upper	amplitud.ttf
2463464	WORD	wordpools/wasnorm_wordpool_less_exclusions.txt	LTP238	ltpFR	1	13	0	DEPUTY	450	n/a	n/a	1	0.422607421875	0.5869140625	0	upper	amplitud.ttf
2469138	REC_START	n/a	LTP238	ltpFR	1	13	n/a	n/a	n/a	n/a	n/a	n/a	n/a	n/a	n/a	n/a	n/a
2470160	REC_WORD	wordpools/wasnorm_wordpool_less_exclusions.txt	LTP238	ltpFR	1	13	0	SERGEANT	1269	n/a	n/a	1	n/a	n/a	n/a	n/a	n/a
2471418	REC_WORD	wordpools/wasnorm_wordpool_less_exclusions.txt	LTP238	ltpFR	1	13	0	DEPUTY	450	n/a	n/a	1	n/a	n/a	n/a	n/a	n/a
2472670	REC_WORD	wordpools/wasnorm_wordpool_less_exclusions.txt	LTP238	ltpFR	1	13	0	PERISCOPE	1050	n/a	n/a	1	n/a	n/a	n/a	n/a	n/a
2494266	REC_WORD	wordpools/wasnorm_wordpool_less_exclusions.txt	LTP238	ltpFR	1	13	0	FROG	608	n/a	n/a	0	n/a	n/a	n/a	n/a	n/a
2495463	REC_WORD	wordpools/wasnorm_wordpool_less_exclusions.txt	LTP238	ltpFR	1	13	0	CRUMB	416	n/a	n/a	0	n/a	n/a	n/a	n/a	n/a
2496660	REC_WORD	wordpools/wasnorm_wordpool_less_exclusions.txt	LTP238	ltpFR	1	13	0	CHEESE	289	n/a	n/a	0	n/a	n/a	n/a	n/a	n/a
2497977	REC_WORD	wordpools/wasnorm_wordpool_less_exclusions.txt	LTP238	ltpFR	1	13	0	COTTAGE	384	n/a	n/a	0	n/a	n/a	n/a	n/a	n/a
2550666	WORD	wordpools/wasnorm_wordpool_less_exclusions.txt	LTP238	ltpFR	1	14	1	BUILDER	190	n/a	n/a	1	0.57763671875	0.412841796875	1	lower	zerothre.ttf
2554776	WORD	wordpools/wasnorm_wordpool_less_exclusions.txt	LTP238	ltpFR	1	14	1	ELF	525	n/a	n/a	1	0.57763671875	0.412841796875	1	lower	zerothre.ttf
2558770	WORD	wordpools/wasnorm_wordpool_less_exclusions.txt	LTP238	ltpFR	1	14	1	PASSAGE	1019	n/a	n/a	0	0.57763671875	0.412841796875	1	lower	zerothre.ttf
2562714	WORD	wordpools/wasnorm_wordpool_less_exclusions.txt	LTP238	ltpFR	1	14	1	STOOL	1386	n/a	n/a	0	0.57763671875	0.412841796875	1	lower	zerothre.ttf
2566560	WORD	wordpools/wasnorm_wordpool_less_exclusions.txt	LTP238	ltpFR	1	14	1	CHAIR	274	n/a	n/a	0	0.57763671875	0.412841796875	1	lower	zerothre.ttf
2570403	WORD	wordpools/wasnorm_wordpool_less_exclusions.txt	LTP238	ltpFR	1	14	1	PUB	1135	n/a	n/a	0	0.57763671875	0.412841796875	1	lower	zerothre.ttf
2574531	WORD	wordpools/wasnorm_wordpool_less_exclusions.txt	LTP238	ltpFR	1	14	1	CELLAR	267	n/a	n/a	0	0.57763671875	0.412841796875	1	lower	zerothre.ttf
2578641	WORD	wordpools/wasnorm_wordpool_less_exclusions.txt	LTP238	ltpFR	1	14	1	PUPPY	1144	n/a	n/a	1	0.57763671875	0.412841796875	1	lower	zerothre.ttf
2582668	WORD	wordpools/wasnorm_wordpool_less_exclusions.txt	LTP238	ltpFR	1	14	1	GANG	619	n/a	n/a	1	0.57763671875	0.412841796875	1	lower	zerothre.ttf
2586662	WORD	wordpools/wasnorm_wordpool_less_exclusions.txt	LTP238	ltpFR	1	14	1	CARD	243	n/a	n/a	0	0.57763671875	0.412841796875	1	lower	zerothre.ttf
2590541	WORD	wordpools/wasnorm_wordpool_less_exclusions.txt	LTP238	ltpFR	1	14	1	JOKER	759	n/a	n/a	0	0.57763671875	0.412841796875	1	lower	zerothre.ttf
2594633	WORD	wordpools/wasnorm_wordpool_less_exclusions.txt	LTP238	ltpFR	1	14	1	PADDING	999	n/a	n/a	0	0.57763671875	0.412841796875	1	lower	zerothre.ttf
2598611	WORD	wordpools/wasnorm_wordpool_less_exclusions.txt	LTP238	ltpFR	1	14	1	WOLF	1619	n/a	n/a	1	0.57763671875	0.412841796875	1	lower	zerothre.ttf
2602439	WORD	wordpools/wasnorm_wordpool_less_exclusions.txt	LTP238	ltpFR	1	14	1	SHINGLE	1285	n/a	n/a	0	0.57763671875	0.412841796875	1	lower	zerothre.ttf
2606417	WORD	wordpools/wasnorm_wordpool_less_exclusions.txt	LTP238	ltpFR	1	14	1	CHIMNEY	301	n/a	n/a	0	0.57763671875	0.412841796875	1	lower	zerothre.ttf
2610260	WORD	wordpools/wasnorm_wordpool_less_exclusions.txt	LTP238	ltpFR	1	14	1	COUCH	386	n/a	n/a	0	0.57763671875	0.412841796875	1	lower	zerothre.ttf
2616002	REC_START	n/a	LTP238	ltpFR	1	14	n/a	n/a	n/a	n/a	n/a	n/a	n/a	n/a	n/a	n/a	n/a
2617019	REC_WORD	wordpools/wasnorm_wordpool_less_exclusions.txt	LTP238	ltpFR	1	14	1	COUCH	386	n/a	n/a	0	n/a	n/a	n/a	n/a	n/a
2618401	REC_WORD	wordpools/wasnorm_wordpool_less_exclusions.txt	LTP238	ltpFR	1	14	1	CHIMNEY	301	n/a	n/a	0	n/a	n/a	n/a	n/a	n/a
2620142	REC_WORD	wordpools/wasnorm_wordpool_less_exclusions.txt	LTP238	ltpFR	1	14	1	SHINGLE	1285	n/a	n/a	0	n/a	n/a	n/a	n/a	n/a
2621873	REC_WORD	wordpools/wasnorm_wordpool_less_exclusions.txt	LTP238	ltpFR	1	14	1	BUILDER	190	n/a	n/a	1	n/a	n/a	n/a	n/a	n/a
2626852	REC_WORD	wordpools/wasnorm_wordpool_less_exclusions.txt	LTP238	ltpFR	1	14	1	WOLF	1619	n/a	n/a	1	n/a	n/a	n/a	n/a	n/a
2631816	REC_WORD	wordpools/wasnorm_wordpool_less_exclusions.txt	LTP238	ltpFR	1	14	1	PASSAGE	1019	n/a	n/a	0	n/a	n/a	n/a	n/a	n/a
2634590	REC_WORD	wordpools/wasnorm_wordpool_less_exclusions.txt	LTP238	ltpFR	1	14	1	ELF	525	n/a	n/a	1	n/a	n/a	n/a	n/a	n/a
2648203	REC_WORD	wordpools/wasnorm_wordpool_less_exclusions.txt	LTP238	ltpFR	1	14	1	GANG	619	n/a	n/a	1	n/a	n/a	n/a	n/a	n/a
2649830	REC_WORD	wordpools/wasnorm_wordpool_less_exclusions.txt	LTP238	ltpFR	1	14	1	PUPPY	1144	n/a	n/a	1	n/a	n/a	n/a	n/a	n/a
2651197	REC_WORD	wordpools/wasnorm_wordpool_less_exclusions.txt	LTP238	ltpFR	1	14	1	CARD	243	n/a	n/a	0	n/a	n/a	n/a	n/a	n/a
2712874	WORD	wordpools/wasnorm_wordpool_less_exclusions.txt	LTP238	ltpFR	1	15	-1	SHOWER	1296	n/a	n/a	-1	1.0	1.0	1	upper	Verdana.ttf
2716967	WORD	wordpools/wasnorm_wordpool_less_exclusions.txt	LTP238	ltpFR	1	15	-1	LAUNDRY	803	n/a	n/a	-1	1.0	1.0	1	upper	Verdana.ttf
2720912	WORD	wordpools/wasnorm_wordpool_less_exclusions.txt	LTP238	ltpFR	1	15	-1	AUTOMOBILE	62	n/a	n/a	-1	1.0	1.0	1	upper	Verdana.ttf
2724989	WORD	wordpools/wasnorm_wordpool_less_exclusions.txt	LTP238	ltpFR	1	15	-1	SHRIMP	1297	n/a	n/a	-1	1.0	1.0	1	upper	Verdana.ttf
2728866	WORD	wordpools/wasnorm_wordpool_less_exclusions.txt	LTP238	ltpFR	1	15	-1	PATIO	1025	n/a	n/a	-1	1.0	1.0	1	upper	Verdana.ttf
2732810	WORD	wordpools/wasnorm_wordpool_less_exclusions.txt	LTP238	ltpFR	1	15	-1	TOAST	1471	n/a	n/a	-1	1.0	1.0	1	upper	Verdana.ttf
2736838	WORD	wordpools/wasnorm_wordpool_less_exclusions.txt	LTP238	ltpFR	1	15	-1	OLIVE	975	n/a	n/a	-1	1.0	1.0	1	upper	Verdana.ttf
2740832	WORD	wordpools/wasnorm_wordpool_less_exclusions.txt	LTP238	ltpFR	1	15	-1	SPY	1360	n/a	n/a	-1	1.0	1.0	1	upper	Verdana.ttf
2745025	WORD	wordpools/wasnorm_wordpool_less_exclusions.txt	LTP238	ltpFR	1	15	-1	NICOTINE	951	n/a	n/a	-1	1.0	1.0	1	upper	Verdana.ttf
2749203	WORD	wordpools/wasnorm_wordpool_less_exclusions.txt	LTP238	ltpFR	1	15	-1	PIPE	1073	n/a	n/a	-1	1.0	1.0	1	upper	Verdana.ttf
2753346	WORD	wordpools/wasnorm_wordpool_less_exclusions.txt	LTP238	ltpFR	1	15	-1	ELBOW	520	n/a	n/a	-1	1.0	1.0	1	upper	Verdana.ttf
2757441	WORD	wordpools/wasnorm_wordpool_less_exclusions.txt	LTP238	ltpFR	1	15	-1	WAITRESS	1581	n/a	n/a	-1	1.0	1.0	1	upper	Verdana.ttf
2761401	WORD	wordpools/wasnorm_wordpool_less_exclusions.txt	LTP238	ltpFR	1	15	-1	ATTIC	56	n/a	n/a	-1	1.0	1.0	1	upper	Verdana.ttf
2765395	WORD	wordpools/wasnorm_wordpool_less_exclusions.txt	LTP238	ltpFR	1	15	-1	SHEEP	1278	n/a	n/a	-1	1.0	1.0	1	upper	Verdana.ttf
2769507	WORD	wordpools/wasnorm_wordpool_less_exclusions.txt	LTP238	ltpFR	1	15	-1	DESK	452	n/a	n/a	-1	1.0	1.0	1	upper	Verdana.ttf
2773434	WORD	wordpools/wasnorm_wordpool_less_exclusions.txt	LTP238	ltpFR	1	15	-1	CARAVAN	242	n/a	n/a	-1	1.0	1.0	1	upper	Verdana.ttf
2779492	REC_START	n/a	LTP238	ltpFR	1	15	n/a	n/a	n/a	n/a	n/a	n/a	n/a	n/a	n/a	n/a	n/a
2781532	REC_WORD	wordpools/wasnorm_wordpool_less_exclusions.txt	LTP238	ltpFR	1	15	-1	CARAVAN	242	n/a	n/a	-1	n/a	n/a	n/a	n/a	n/a
2783637	REC_WORD	wordpools/wasnorm_wordpool_less_exclusions.txt	LTP238	ltpFR	1	15	-1	AUTOMOBILE	62	n/a	n/a	-1	n/a	n/a	n/a	n/a	n/a
2785358	REC_WORD	wordpools/wasnorm_wordpool_less_exclusions.txt	LTP238	ltpFR	1	15	-1	SHOWER	1296	n/a	n/a	-1	n/a	n/a	n/a	n/a	n/a
2786885	REC_WORD	wordpools/wasnorm_wordpool_less_exclusions.txt	LTP238	ltpFR	1	15	-1	LAUNDRY	803	n/a	n/a	-1	n/a	n/a	n/a	n/a	n/a
2788940	REC_WORD	wordpools/wasnorm_wordpool_less_exclusions.txt	LTP238	ltpFR	1	15	-1	PATIO	1025	n/a	n/a	-1	n/a	n/a	n/a	n/a	n/a
2790761	REC_WORD	wordpools/wasnorm_wordpool_less_exclusions.txt	LTP238	ltpFR	1	15	-1	SPY	1360	n/a	n/a	-1	n/a	n/a	n/a	n/a	n/a
2792851	REC_WORD	wordpools/wasnorm_wordpool_less_exclusions.txt	LTP238	ltpFR	1	15	-1	ELBOW	520	n/a	n/a	-1	n/a	n/a	n/a	n/a	n/a
2794612	REC_WORD	wordpools/wasnorm_wordpool_less_exclusions.txt	LTP238	ltpFR	1	15	-1	NICOTINE	951	n/a	n/a	-1	n/a	n/a	n/a	n/a	n/a
2796438	REC_WORD	wordpools/wasnorm_wordpool_less_exclusions.txt	LTP238	ltpFR	1	15	-1	PIPE	1073	n/a	n/a	-1	n/a	n/a	n/a	n/a	n/a
2805353	REC_WORD	wordpools/wasnorm_wordpool_less_exclusions.txt	LTP238	ltpFR	1	15	-1	SHRIMP	1297	n/a	n/a	-1	n/a	n/a	n/a	n/a	n/a
2808920	REC_WORD	wordpools/wasnorm_wordpool_less_exclusions.txt	LTP238	ltpFR	1	15	-1	OLIVE	975	n/a	n/a	-1	n/a	n/a	n/a	n/a	n/a
2884284	WORD	wordpools/wasnorm_wordpool_less_exclusions.txt	LTP238	ltpFR	1	16	1	GLOVE	642	n/a	n/a	0	0.57763671875	0.412841796875	1	lower	zerothre.ttf
2888496	WORD	wordpools/wasnorm_wordpool_less_exclusions.txt	LTP238	ltpFR	1	16	1	GAZELLE	628	n/a	n/a	1	0.57763671875	0.412841796875	1	lower	zerothre.ttf
2892405	WORD	wordpools/wasnorm_wordpool_less_exclusions.txt	LTP238	ltpFR	1	16	1	TROMBONE	1508	n/a	n/a	0	0.57763671875	0.412841796875	1	lower	zerothre.ttf
2896283	WORD	wordpools/wasnorm_wordpool_less_exclusions.txt	LTP238	ltpFR	1	16	0	PASTA	1021	n/a	n/a	0	0.422607421875	0.5869140625	0	upper	amplitud.ttf
2900160	WORD	wordpools/wasnorm_wordpool_less_exclusions.txt	LTP238	ltpFR	1	16	0	SALT	1229	n/a	n/a	0	0.422607421875	0.5869140625	0	upper	amplitud.ttf
2904138	WORD	wordpools/wasnorm_wordpool_less_exclusions.txt	LTP238	ltpFR	1	16	0	PRODUCER	1129	n/a	n/a	1	0.422607421875	0.5869140625	0	upper	amplitud.ttf
2908199	WORD	wordpools/wasnorm_wordpool_less_exclusions.txt	LTP238	ltpFR	1	16	0	NOVEL	960	n/a	n/a	0	0.422607421875	0.5869140625	0	upper	amplitud.ttf
2912326	WORD	wordpools/wasnorm_wordpool_less_exclusions.txt	LTP238	ltpFR	1	16	0	RASH	1167	n/a	n/a	0	0.422607421875	0.5869140625	0	upper	amplitud.ttf
2916537	WORD	wordpools/wasnorm_wordpool_less_exclusions.txt	LTP238	ltpFR	1	16	0	SANDPAPER	1231	n/a	n/a	0	0.422607421875	0.5869140625	0	upper	amplitud.ttf
2920713	WORD	wordpools/wasnorm_wordpool_less_exclusions.txt	LTP238	ltpFR	1	16	1	KEYBOARD	774	n/a	n/a	0	0.57763671875	0.412841796875	1	lower	zerothre.ttf
2924624	WORD	wordpools/wasnorm_wordpool_less_exclusions.txt	LTP238	ltpFR	1	16	1	EWE	542	n/a	n/a	1	0.57763671875	0.412841796875	1	lower	zerothre.ttf
2928585	WORD	wordpools/wasnorm_wordpool_less_exclusions.txt	LTP238	ltpFR	1	16	1	CINNAMON	310	n/a	n/a	0	0.57763671875	0.412841796875	1	lower	zerothre.ttf
2932463	WORD	wordpools/wasnorm_wordpool_less_exclusions.txt	LTP238	ltpFR	1	16	0	GENERAL	630	n/a	n/a	1	0.422607421875	0.5869140625	0	upper	amplitud.ttf
2936589	WORD	wordpools/wasnorm_wordpool_less_exclusions.txt	LTP238	ltpFR	1	16	0	VETERAN	1561	n/a	n/a	1	0.422607421875	0.5869140625	0	upper	amplitud.ttf
2940617	WORD	wordpools/wasnorm_wordpool_less_exclusions.txt	LTP238	ltpFR	1	16	1	MOTEL	919	n/a	n/a	0	0.57763671875	0.412841796875	1	lower	zerothre.ttf
2944445	WORD	wordpools/wasnorm_wordpool_less_exclusions.txt	LTP238	ltpFR	1	16	1	SUITE	1404	n/a	n/a	0	0.57763671875	0.412841796875	1	lower	zerothre.ttf
2950120	REC_START	n/a	LTP238	ltpFR	1	16	n/a	n/a	n/a	n/a	n/a	n/a	n/a	n/a	n/a	n/a	n/a
2951267	REC_WORD	wordpools/wasnorm_wordpool_less_exclusions.txt	LTP238	ltpFR	1	16	1	SUITE	1404	n/a	n/a	0	n/a	n/a	n/a	n/a	n/a
2952489	REC_WORD	wordpools/wasnorm_wordpool_less_exclusions.txt	LTP238	ltpFR	1	16	1	MOTEL	919	n/a	n/a	0	n/a	n/a	n/a	n/a	n/a
2954275	REC_WORD	wordpools/wasnorm_wordpool_less_exclusions.txt	LTP238	ltpFR	1	16	0	GENERAL	630	n/a	n/a	1	n/a	n/a	n/a	n/a	n/a
2955782	REC_WORD	wordpools/wasnorm_wordpool_less_exclusions.txt	LTP238	ltpFR	1	16	0	VETERAN	1561	n/a	n/a	1	n/a	n/a	n/a	n/a	n/a
2957338	REC_WORD	wordpools/wasnorm_wordpool_less_exclusions.txt	LTP238	ltpFR	1	16	0	PRODUCER	1129	n/a	n/a	1	n/a	n/a	n/a	n/a	n/a
2959119	REC_WORD	wordpools/wasnorm_wordpool_less_exclusions.txt	LTP238	ltpFR	1	16	0	SALT	1229	n/a	n/a	0	n/a	n/a	n/a	n/a	n/a
2972454	REC_WORD	wordpools/wasnorm_wordpool_less_exclusions.txt	LTP238	ltpFR	1	16	1	GAZELLE	628	n/a	n/a	1	n/a	n/a	n/a	n/a	n/a
2974100	REC_WORD	wordpools/wasnorm_wordpool_less_exclusions.txt	LTP238	ltpFR	1	16	1	GLOVE	642	n/a	n/a	0	n/a	n/a	n/a	n/a	n/a
3077380	REC_START	n/a	LTP238	ltpFR	1	1	n/a	n/a	n/a	n/a	n/a	n/a	n/a	n/a	n/a	n/a	n/a
3077413	RECOG_TARGET	n/a	LTP238	ltpFR	1	1	0	SHEET	1279	1	5	0	n/a	n/a	n/a	n/a	n/a
3079606	RECOG_RESP	n/a	LTP238	ltpFR	1	1	0	SHEET	1279	1	n/a	0	n/a	n/a	n/a	n/a	n/a
3081397	RECOG_CONF	n/a	LTP238	ltpFR	1	1	0	SHEET	1279	n/a	5	0	n/a	n/a	n/a	n/a	n/a
3083454	RECOG_LURE	n/a	LTP238	ltpFR	1	1	n/a	MOSS	918	0	5	n/a	n/a	n/a	n/a	n/a	n/a
3084507	RECOG_RESP	n/a	LTP238	ltpFR	1	1	n/a	MOSS	918	0	n/a	n/a	n/a	n/a	n/a	n/a	n/a
3086105	RECOG_CONF	n/a	LTP238	ltpFR	1	1	n/a	MOSS	918	n/a	5	n/a	n/a	n/a	n/a	n/a	n/a
3087980	RECOG_TARGET	n/a	LTP238	ltpFR	1	1	0	ROBOT	1200	1	5	0	n/a	n/a	n/a	n/a	n/a
3088766	RECOG_RESP	n/a	LTP238	ltpFR	1	1	0	ROBOT	1200	1	n/a	0	n/a	n/a	n/a	n/a	n/a
3090322	RECOG_CONF	n/a	LTP238	ltpFR	1	1	0	ROBOT	1200	n/a	5	0	n/a	n/a	n/a	n/a	n/a
3092491	RECOG_TARGET	n/a	LTP238	ltpFR	1	1	0	TRUCK	1512	1	5	1	n/a	n/a	n/a	n/a	n/a
3093566	RECOG_RESP	n/a	LTP238	ltpFR	1	1	0	TRUCK	1512	1	n/a	1	n/a	n/a	n/a	n/a	n/a
3095083	RECOG_CONF	n/a	LTP238	ltpFR	1	1	0	TRUCK	1512	n/a	5	1	n/a	n/a	n/a	n/a	n/a
3096933	RECOG_TARGET	n/a	LTP238	ltpFR	1	1	0	DOORBELL	487	0	4	0	n/a	n/a	n/a	n/a	n/a
3098087	RECOG_RESP	n/a	LTP238	ltpFR	1	1	0	DOORBELL	487	0	n/a	0	n/a	n/a	n/a	n/a	n/a
3099696	RECOG_CONF	n/a	LTP238	ltpFR	1	1	0	DOORBELL	487	n/a	4	0	n/a	n/a	n/a	n/a	n/a
3101461	RECOG_TARGET	n/a	LTP238	ltpFR	1	1	1	MOB	904	1	5	1	n/a	n/a	n/a	n/a	n/a
3102476	RECOG_RESP	n/a	LTP238	ltpFR	1	1	1	MOB	904	1	n/a	1	n/a	n/a	n/a	n/a	n/a
3104141	RECOG_CONF	n/a	LTP238	ltpFR	1	1	1	MOB	904	n/a	5	1	n/a	n/a	n/a	n/a	n/a
3106053	RECOG_LURE	n/a	LTP238	ltpFR	1	1	n/a	TOWER	1490	0	3	n/a	n/a	n/a	n/a	n/a	n/a
3108513	RECOG_RESP	n/a	LTP238	ltpFR	1	1	n/a	TOWER	1490	0	n/a	n/a	n/a	n/a	n/a	n/a	n/a
3109945	RECOG_CONF	n/a	LTP238	ltpFR	1	1	n/a	TOWER	1490	n/a	3	n/a	n/a	n/a	n/a	n/a	n/a
3111844	RECOG_TARGET	n/a	LTP238	ltpFR	1	1	-1	WALLET	1583	1	5	-1	n/a	n/a	n/a	n/a	n/a
3113523	RECOG_RESP	n/a	LTP238	ltpFR	1	1	-1	WALLET	1583	1	n/a	-1	n/a	n/a	n/a	n/a	n/a
3114986	RECOG_CONF	n/a	LTP238	ltpFR	1	1	-1	WALLET	1583	n/a	5	-1	n/a	n/a	n/a	n/a	n/a
3116820	RECOG_TARGET	n/a	LTP238	ltpFR	1	1	1	EWE	542	1	5	1	n/a	n/a	n/a	n/a	n/a
3117691	RECOG_RESP	n/a	LTP238	ltpFR	1	1	1	EWE	542	1	n/a	1	n/a	n/a	n/a	n/a	n/a
3119359	RECOG_CONF	n/a	LTP238	ltpFR	1	1	1	EWE	542	n/a	5	1	n/a	n/a	n/a	n/a	n/a
3121031	RECOG_TARGET	n/a	LTP238	ltpFR	1	1	0	YARD	1630	1	5	1	n/a	n/a	n/a	n/a	n/a
3122441	RECOG_RESP	n/a	LTP238	ltpFR	1	1	0	YARD	1630	1	n/a	1	n/a	n/a	n/a	n/a	n/a
3123890	RECOG_CONF	n/a	LTP238	ltpFR	1	1	0	YARD	1630	n/a	5	1	n/a	n/a	n/a	n/a	n/a
3125757	RECOG_TARGET	n/a	LTP238	ltpFR	1	1	-1	DESK	452	1	3	-1	n/a	n/a	n/a	n/a	n/a
3127199	RECOG_RESP	n/a	LTP238	ltpFR	1	1	-1	DESK	452	1	n/a	-1	n/a	n/a	n/a	n/a	n/a
3128576	RECOG_CONF	n/a	LTP238	ltpFR	1	1	-1	DESK	452	n/a	3	-1	n/a	n/a	n/a	n/a	n/a
3130300	RECOG_TARGET	n/a	LTP238	ltpFR	1	1	0	CRATER	400	1	5	1	n/a	n/a	n/a	n/a	n/a
3131201	RECOG_RESP	n/a	LTP238	ltpFR	1	1	0	CRATER	400	1	n/a	1	n/a	n/a	n/a	n/a	n/a
3132938	RECOG_CONF	n/a	LTP238	ltpFR	1	1	0	CRATER	400	n/a	5	1	n/a	n/a	n/a	n/a	n/a
3134793	RECOG_LURE	n/a	LTP238	ltpFR	1	1	n/a	DANCER	437	0	3	n/a	n/a	n/a	n/a	n/a	n/a
3136700	RECOG_RESP	n/a	LTP238	ltpFR	1	1	n/a	DANCER	437	0	n/a	n/a	n/a	n/a	n/a	n/a	n/a
3138881	RECOG_CONF	n/a	LTP238	ltpFR	1	1	n/a	DANCER	437	n/a	3	n/a	n/a	n/a	n/a	n/a	n/a
3140685	RECOG_LURE	n/a	LTP238	ltpFR	1	1	n/a	ROCK	1201	1	4	n/a	n/a	n/a	n/a	n/a	n/a
3142473	RECOG_RESP	n/a	LTP238	ltpFR	1	1	n/a	ROCK	1201	1	n/a	n/a	n/a	n/a	n/a	n/a	n/a
3144341	RECOG_CONF	n/a	LTP238	ltpFR	1	1	n/a	ROCK	1201	n/a	4	n/a	n/a	n/a	n/a	n/a	n/a
3146226	RECOG_TARGET	n/a	LTP238	ltpFR	1	1	0	KANGAROO	768	1	5	1	n/a	n/a	n/a	n/a	n/a
3147515	RECOG_RESP	n/a	LTP238	ltpFR	1	1	0	KANGAROO	768	1	n/a	1	n/a	n/a	n/a	n/a	n/a
3149473	RECOG_CONF	n/a	LTP238	ltpFR	1	1	0	KANGAROO	768	n/a	5	1	n/a	n/a	n/a	n/a	n/a
3151236	RECOG_TARGET	n/a	LTP238	ltpFR	1	1	1	BALLERINA	74	1	5	1	n/a	n/a	n/a	n/a	n/a
3152080	RECOG_RESP	n/a	LTP238	ltpFR	1	1	1	BALLERINA	74	1	n/a	1	n/a	n/a	n/a	n/a	n/a
3153845	RECOG_CONF	n/a	LTP238	ltpFR	1	1	1	BALLERINA	74	n/a	5	1	n/a	n/a	n/a	n/a	n/a
3155895	RECOG_LURE	n/a	LTP238	ltpFR	1	1	n/a	SMOG	1330	0	4	n/a	n/a	n/a	n/a	n/a	n/a
3157081	RECOG_RESP	n/a	LTP238	ltpFR	1	1	n/a	SMOG	1330	0	n/a	n/a	n/a	n/a	n/a	n/a	n/a
3158591	RECOG_CONF	n/a	LTP238	ltpFR	1	1	n/a	SMOG	1330	n/a	4	n/a	n/a	n/a	n/a	n/a	n/a
3160339	RECOG_TARGET	n/a	LTP238	ltpFR	1	1	0	PASTA	1021	1	5	0	n/a	n/a	n/a	n/a	n/a
3161346	RECOG_RESP	n/a	LTP238	ltpFR	1	1	0	PASTA	1021	1	n/a	0	n/a	n/a	n/a	n/a	n/a
3163089	RECOG_CONF	n/a	LTP238	ltpFR	1	1	0	PASTA	1021	n/a	5	0	n/a	n/a	n/a	n/a	n/a
3165115	RECOG_TARGET	n/a	LTP238	ltpFR	1	1	1	BULLY	196	1	5	1	n/a	n/a	n/a	n/a	n/a
3166207	RECOG_RESP	n/a	LTP238	ltpFR	1	1	1	BULLY	196	1	n/a	1	n/a	n/a	n/a	n/a	n/a
3167969	RECOG_CONF	n/a	LTP238	ltpFR	1	1	1	BULLY	196	n/a	5	1	n/a	n/a	n/a	n/a	n/a
3169741	RECOG_TARGET	n/a	LTP238	ltpFR	1	1	1	ELF	525	1	5	1	n/a	n/a	n/a	n/a	n/a
3170713	RECOG_RESP	n/a	LTP238	ltpFR	1	1	1	ELF	525	1	n/a	1	n/a	n/a	n/a	n/a	n/a
3172360	RECOG_CONF	n/a	LTP238	ltpFR	1	1	1	ELF	525	n/a	5	1	n/a	n/a	n/a	n/a	n/a
3179678	REC_START	n/a	LTP238	ltpFR	1	2	n/a	n/a	n/a	n/a	n/a	n/a	n/a	n/a	n/a	n/a	n/a
3179710	RECOG_TARGET	n/a	LTP238	ltpFR	1	2	1	THIGH	1457	1	5	1	n/a	n/a	n/a	n/a	n/a
3180681	RECOG_RESP	n/a	LTP238	ltpFR	1	2	1	THIGH	1457	1	n/a	1	n/a	n/a	n/a	n/a	n/a
3182077	RECOG_CONF	n/a	LTP238	ltpFR	1	2	1	THIGH	1457	n/a	5	1	n/a	n/a	n/a	n/a	n/a
3183953	RECOG_TARGET	n/a	LTP238	ltpFR	1	2	-1	FOREHEAD	592	1	5	-1	n/a	n/a	n/a	n/a	n/a
3184823	RECOG_RESP	n/a	LTP238	ltpFR	1	2	-1	FOREHEAD	592	1	n/a	-1	n/a	n/a	n/a	n/a	n/a
3186559	RECOG_CONF	n/a	LTP238	ltpFR	1	2	-1	FOREHEAD	592	n/a	5	-1	n/a	n/a	n/a	n/a	n/a
3188481	RECOG_TARGET	n/a	LTP238	ltpFR	1	2	0	APARTMENT	30	1	5	1	n/a	n/a	n/a	n/a	n/a
3189446	RECOG_RESP	n/a	LTP238	ltpFR	1	2	0	APARTMENT	30	1	n/a	1	n/a	n/a	n/a	n/a	n/a
3191195	RECOG_CONF	n/a	LTP238	ltpFR	1	2	0	APARTMENT	30	n/a	5	1	n/a	n/a	n/a	n/a	n/a
3192940	RECOG_LURE	n/a	LTP238	ltpFR	1	2	n/a	SIDEWALK	1303	0	2	n/a	n/a	n/a	n/a	n/a	n/a
3197620	RECOG_RESP	n/a	LTP238	ltpFR	1	2	n/a	SIDEWALK	1303	0	n/a	n/a	n/a	n/a	n/a	n/a	n/a
3199088	RECOG_CONF	n/a	LTP238	ltpFR	1	2	n/a	SIDEWALK	1303	n/a	2	n/a	n/a	n/a	n/a	n/a	n/a
3200845	RECOG_TARGET	n/a	LTP238	ltpFR	1	2	0	SALT	1229	1	5	0	n/a	n/a	n/a	n/a	n/a
3201619	RECOG_RESP	n/a	LTP238	ltpFR	1	2	0	SALT	1229	1	n/a	0	n/a	n/a	n/a	n/a	n/a
3203116	RECOG_CONF	n/a	LTP238	ltpFR	1	2	0	SALT	1229	n/a	5	0	n/a	n/a	n/a	n/a	n/a
3204822	RECOG_TARGET	n/a	LTP238	ltpFR	1	2	1	WOLF	1619	1	5	1	n/a	n/a	n/a	n/a	n/a
3205656	RECOG_RESP	n/a	LTP238	ltpFR	1	2	1	WOLF	1619	1	n/a	1	n/a	n/a	n/a	n/a	n/a
3207150	RECOG_CONF	n/a	LTP238	ltpFR	1	2	1	WOLF	1619	n/a	5	1	n/a	n/a	n/a	n/a	n/a
3208966	RECOG_TARGET	n/a	LTP238	ltpFR	1	2	-1	DESIGNER	451	1	5	-1	n/a	n/a	n/a	n/a	n/a
3209875	RECOG_RESP	n/a	LTP238	ltpFR	1	2	-1	DESIGNER	451	1	n/a	-1	n/a	n/a	n/a	n/a	n/a
3211521	RECOG_CONF	n/a	LTP238	ltpFR	1	2	-1	DESIGNER	451	n/a	5	-1	n/a	n/a	n/a	n/a	n/a
3213410	RECOG_TARGET	n/a	LTP238	ltpFR	1	2	-1	BUS	201	1	5	-1	n/a	n/a	n/a	n/a	n/a
3214267	RECOG_RESP	n/a	LTP238	ltpFR	1	2	-1	BUS	201	1	n/a	-1	n/a	n/a	n/a	n/a	n/a
3216212	RECOG_CONF	n/a	LTP238	ltpFR	1	2	-1	BUS	201	n/a	5	-1	n/a	n/a	n/a	n/a	n/a
3217836	RECOG_TARGET	n/a	LTP238	ltpFR	1	2	1	JOKER	759	1	5	0	n/a	n/a	n/a	n/a	n/a
3219557	RECOG_RESP	n/a	LTP238	ltpFR	1	2	1	JOKER	759	1	n/a	0	n/a	n/a	n/a	n/a	n/a
3221152	RECOG_CONF	n/a	LTP238	ltpFR	1	2	1	JOKER	759	n/a	5	0	n/a	n/a	n/a	n/a	n/a
3223045	RECOG_LURE	n/a	LTP238	ltpFR	1	2	n/a	SLOPE	1328	0	3	n/a	n/a	n/a	n/a	n/a	n/a
3224580	RECOG_RESP	n/a	LTP238	ltpFR	1	2	n/a	SLOPE	1328	0	n/a	n/a	n/a	n/a	n/a	n/a	n/a
3226524	RECOG_CONF	n/a	LTP238	ltpFR	1	2	n/a	SLOPE	1328	n/a	3	n/a	n/a	n/a	n/a	n/a	n/a
3228270	RECOG_TARGET	n/a	LTP238	ltpFR	1	2	1	ATHLETE	52	1	5	0	n/a	n/a	n/a	n/a	n/a
3229129	RECOG_RESP	n/a	LTP238	ltpFR	1	2	1	ATHLETE	52	1	n/a	0	n/a	n/a	n/a	n/a	n/a
3230928	RECOG_CONF	n/a	LTP238	ltpFR	1	2	1	ATHLETE	52	n/a	5	0	n/a	n/a	n/a	n/a	n/a
3233080	RECOG_TARGET	n/a	LTP238	ltpFR	1	2	0	PRODUCER	1129	1	5	1	n/a	n/a	n/a	n/a	n/a
3234529	RECOG_RESP	n/a	LTP238	ltpFR	1	2	0	PRODUCER	1129	1	n/a	1	n/a	n/a	n/a	n/a	n/a
3236287	RECOG_CONF	n/a	LTP238	ltpFR	1	2	0	PRODUCER	1129	n/a	5	1	n/a	n/a	n/a	n/a	n/a
3238073	RECOG_TARGET	n/a	LTP238	ltpFR	1	2	1	THICKET	1455	1	5	1	n/a	n/a	n/a	n/a	n/a
3239014	RECOG_RESP	n/a	LTP238	ltpFR	1	2	1	THICKET	1455	1	n/a	1	n/a	n/a	n/a	n/a	n/a
3240730	RECOG_CONF	n/a	LTP238	ltpFR	1	2	1	THICKET	1455	n/a	5	1	n/a	n/a	n/a	n/a	n/a
3242616	RECOG_TARGET	n/a	LTP238	ltpFR	1	2	-1	TORCH	1484	1	5	-1	n/a	n/a	n/a	n/a	n/a
3243650	RECOG_RESP	n/a	LTP238	ltpFR	1	2	-1	TORCH	1484	1	n/a	-1	n/a	n/a	n/a	n/a	n/a
3245440	RECOG_CONF	n/a	LTP238	ltpFR	1	2	-1	TORCH	1484	n/a	5	-1	n/a	n/a	n/a	n/a	n/a
3247409	RECOG_TARGET	n/a	LTP238	ltpFR	1	2	-1	STONE	1385	1	4	-1	n/a	n/a	n/a	n/a	n/a
3248746	RECOG_RESP	n/a	LTP238	ltpFR	1	2	-1	STONE	1385	1	n/a	-1	n/a	n/a	n/a	n/a	n/a
3250491	RECOG_CONF	n/a	LTP238	ltpFR	1	2	-1	STONE	1385	n/a	4	-1	n/a	n/a	n/a	n/a	n/a
3252384	RECOG_TARGET	n/a	LTP238	ltpFR	1	2	1	GANG	619	1	5	1	n/a	n/a	n/a	n/a	n/a
3253325	RECOG_RESP	n/a	LTP238	ltpFR	1	2	1	GANG	619	1	n/a	1	n/a	n/a	n/a	n/a	n/a
3255046	RECOG_CONF	n/a	LTP238	ltpFR	1	2	1	GANG	619	n/a	5	1	n/a	n/a	n/a	n/a	n/a
3257011	RECOG_TARGET	n/a	LTP238	ltpFR	1	2	0	TECHNICIAN	1443	1	4	1	n/a	n/a	n/a	n/a	n/a
3259697	RECOG_RESP	n/a	LTP238	ltpFR	1	2	0	TECHNICIAN	1443	1	n/a	1	n/a	n/a	n/a	n/a	n/a
3261289	RECOG_CONF	n/a	LTP238	ltpFR	1	2	0	TECHNICIAN	1443	n/a	4	1	n/a	n/a	n/a	n/a	n/a
3263035	RECOG_TARGET	n/a	LTP238	ltpFR	1	2	0	TUNNEL	1519	1	5	1	n/a	n/a	n/a	n/a	n/a
3264541	RECOG_RESP	n/a	LTP238	ltpFR	1	2	0	TUNNEL	1519	1	n/a	1	n/a	n/a	n/a	n/a	n/a
3266048	RECOG_CONF	n/a	LTP238	ltpFR	1	2	0	TUNNEL	1519	n/a	5	1	n/a	n/a	n/a	n/a	n/a
3267978	RECOG_TARGET	n/a	LTP238	ltpFR	1	2	0	OPERA	978	1	5	1	n/a	n/a	n/a	n/a	n/a
3269322	RECOG_RESP	n/a	LTP238	ltpFR	1	2	0	OPERA	978	1	n/a	1	n/a	n/a	n/a	n/a	n/a
3271173	RECOG_CONF	n/a	LTP238	ltpFR	1	2	0	OPERA	978	n/a	5	1	n/a	n/a	n/a	n/a	n/a
3273070	RECOG_TARGET	n/a	LTP238	ltpFR	1	2	1	BIRD	129	1	4	1	n/a	n/a	n/a	n/a	n/a
3275225	RECOG_RESP	n/a	LTP238	ltpFR	1	2	1	BIRD	129	1	n/a	1	n/a	n/a	n/a	n/a	n/a
3276718	RECOG_CONF	n/a	LTP238	ltpFR	1	2	1	BIRD	129	n/a	4	1	n/a	n/a	n/a	n/a	n/a
3288801	REC_START	n/a	LTP238	ltpFR	1	3	n/a	n/a	n/a	n/a	n/a	n/a	n/a	n/a	n/a	n/a	n/a
3288830	RECOG_LURE	n/a	LTP238	ltpFR	1	3	n/a	SPINE	1353	0	5	n/a	n/a	n/a	n/a	n/a	n/a
3290028	RECOG_RESP	n/a	LTP238	ltpFR	1	3	n/a	SPINE	1353	0	n/a	n/a	n/a	n/a	n/a	n/a	n/a
3291769	RECOG_CONF	n/a	LTP238	ltpFR	1	3	n/a	SPINE	1353	n/a	5	n/a	n/a	n/a	n/a	n/a	n/a
3293457	RECOG_TARGET	n/a	LTP238	ltpFR	1	3	0	APPLE	33	1	3	0	n/a	n/a	n/a	n/a	n/a
3295535	RECOG_RESP	n/a	LTP238	ltpFR	1	3	0	APPLE	33	1	n/a	0	n/a	n/a	n/a	n/a	n/a
3297400	RECOG_CONF	n/a	LTP238	ltpFR	1	3	0	APPLE	33	n/a	3	0	n/a	n/a	n/a	n/a	n/a
3299015	RECOG_TARGET	n/a	LTP238	ltpFR	1	3	0	THERMOMETER	1453	0	2	0	n/a	n/a	n/a	n/a	n/a
3300754	RECOG_RESP	n/a	LTP238	ltpFR	1	3	0	THERMOMETER	1453	0	n/a	0	n/a	n/a	n/a	n/a	n/a
3302226	RECOG_CONF	n/a	LTP238	ltpFR	1	3	0	THERMOMETER	1453	n/a	2	0	n/a	n/a	n/a	n/a	n/a
3303974	RECOG_TARGET	n/a	LTP238	ltpFR	1	3	1	BRIDGE	174	1	5	0	n/a	n/a	n/a	n/a	n/a
3304940	RECOG_RESP	n/a	LTP238	ltpFR	1	3	1	BRIDGE	174	1	n/a	0	n/a	n/a	n/a	n/a	n/a
3306312	RECOG_CONF	n/a	LTP238	ltpFR	1	3	1	BRIDGE	174	n/a	5	0	n/a	n/a	n/a	n/a	n/a
3308201	RECOG_TARGET	n/a	LTP238	ltpFR	1	3	-1	PICNIC	1060	1	3	-1	n/a	n/a	n/a	n/a	n/a
3309197	RECOG_RESP	n/a	LTP238	ltpFR	1	3	-1	PICNIC	1060	1	n/a	-1	n/a	n/a	n/a	n/a	n/a
3310718	RECOG_CONF	n/a	LTP238	ltpFR	1	3	-1	PICNIC	1060	n/a	3	-1	n/a	n/a	n/a	n/a	n/a
3312496	RECOG_TARGET	n/a	LTP238	ltpFR	1	3	1	SPHINX	1349	1	5	0	n/a	n/a	n/a	n/a	n/a
3313840	RECOG_RESP	n/a	LTP238	ltpFR	1	3	1	SPHINX	1349	1	n/a	0	n/a	n/a	n/a	n/a	n/a
3315365	RECOG_CONF	n/a	LTP238	ltpFR	1	3	1	SPHINX	1349	n/a	5	0	n/a	n/a	n/a	n/a	n/a
3317104	RECOG_TARGET	n/a	LTP238	ltpFR	1	3	0	FROG	608	1	5	0	n/a	n/a	n/a	n/a	n/a
3318247	RECOG_RESP	n/a	LTP238	ltpFR	1	3	0	FROG	608	1	n/a	0	n/a	n/a	n/a	n/a	n/a
3319912	RECOG_CONF	n/a	LTP238	ltpFR	1	3	0	FROG	608	n/a	5	0	n/a	n/a	n/a	n/a	n/a
3321764	RECOG_TARGET	n/a	LTP238	ltpFR	1	3	0	PERISCOPE	1050	1	5	1	n/a	n/a	n/a	n/a	n/a
3323679	RECOG_RESP	n/a	LTP238	ltpFR	1	3	0	PERISCOPE	1050	1	n/a	1	n/a	n/a	n/a	n/a	n/a
3325289	RECOG_CONF	n/a	LTP238	ltpFR	1	3	0	PERISCOPE	1050	n/a	5	1	n/a	n/a	n/a	n/a	n/a
3327156	RECOG_TARGET	n/a	LTP238	ltpFR	1	3	-1	HOUSE	725	1	5	-1	n/a	n/a	n/a	n/a	n/a
3328194	RECOG_RESP	n/a	LTP238	ltpFR	1	3	-1	HOUSE	725	1	n/a	-1	n/a	n/a	n/a	n/a	n/a
3329856	RECOG_CONF	n/a	LTP238	ltpFR	1	3	-1	HOUSE	725	n/a	5	-1	n/a	n/a	n/a	n/a	n/a
3331716	RECOG_TARGET	n/a	LTP238	ltpFR	1	3	1	MINER	896	1	5	1	n/a	n/a	n/a	n/a	n/a
3332661	RECOG_RESP	n/a	LTP238	ltpFR	1	3	1	MINER	896	1	n/a	1	n/a	n/a	n/a	n/a	n/a
3334481	RECOG_CONF	n/a	LTP238	ltpFR	1	3	1	MINER	896	n/a	5	1	n/a	n/a	n/a	n/a	n/a
3335810	RECOG_TARGET	n/a	LTP238	ltpFR	1	3	1	MARINE	869	1	5	0	n/a	n/a	n/a	n/a	n/a
3336875	RECOG_RESP	n/a	LTP238	ltpFR	1	3	1	MARINE	869	1	n/a	0	n/a	n/a	n/a	n/a	n/a
3338802	RECOG_CONF	n/a	LTP238	ltpFR	1	3	1	MARINE	869	n/a	5	0	n/a	n/a	n/a	n/a	n/a
3340619	RECOG_TARGET	n/a	LTP238	ltpFR	1	3	1	FOLLOWER	589	1	5	1	n/a	n/a	n/a	n/a	n/a
3341862	RECOG_RESP	n/a	LTP238	ltpFR	1	3	1	FOLLOWER	589	1	n/a	1	n/a	n/a	n/a	n/a	n/a
3343667	RECOG_CONF	n/a	LTP238	ltpFR	1	3	1	FOLLOWER	589	n/a	5	1	n/a	n/a	n/a	n/a	n/a
3345628	RECOG_TARGET	n/a	LTP238	ltpFR	1	3	1	HAND	683	0	3	1	n/a	n/a	n/a	n/a	n/a
3347316	RECOG_RESP	n/a	LTP238	ltpFR	1	3	1	HAND	683	0	n/a	1	n/a	n/a	n/a	n/a	n/a
3348933	RECOG_CONF	n/a	LTP238	ltpFR	1	3	1	HAND	683	n/a	3	1	n/a	n/a	n/a	n/a	n/a
3350704	RECOG_TARGET	n/a	LTP238	ltpFR	1	3	-1	OLIVE	975	1	5	-1	n/a	n/a	n/a	n/a	n/a
3351533	RECOG_RESP	n/a	LTP238	ltpFR	1	3	-1	OLIVE	975	1	n/a	-1	n/a	n/a	n/a	n/a	n/a
3353539	RECOG_CONF	n/a	LTP238	ltpFR	1	3	-1	OLIVE	975	n/a	5	-1	n/a	n/a	n/a	n/a	n/a
3355481	RECOG_TARGET	n/a	LTP238	ltpFR	1	3	-1	ELBOW	520	1	5	-1	n/a	n/a	n/a	n/a	n/a
3356719	RECOG_RESP	n/a	LTP238	ltpFR	1	3	-1	ELBOW	520	1	n/a	-1	n/a	n/a	n/a	n/a	n/a
3358569	RECOG_CONF	n/a	LTP238	ltpFR	1	3	-1	ELBOW	520	n/a	5	-1	n/a	n/a	n/a	n/a	n/a
3360557	RECOG_TARGET	n/a	LTP238	ltpFR	1	3	0	PARROT	1015	1	5	0	n/a	n/a	n/a	n/a	n/a
3361681	RECOG_RESP	n/a	LTP238	ltpFR	1	3	0	PARROT	1015	1	n/a	0	n/a	n/a	n/a	n/a	n/a
3363963	RECOG_CONF	n/a	LTP238	ltpFR	1	3	0	PARROT	1015	n/a	5	0	n/a	n/a	n/a	n/a	n/a
3365765	RECOG_TARGET	n/a	LTP238	ltpFR	1	3	1	FIST	572	1	2	1	n/a	n/a	n/a	n/a	n/a
3368168	RECOG_RESP	n/a	LTP238	ltpFR	1	3	1	FIST	572	1	n/a	1	n/a	n/a	n/a	n/a	n/a
3369659	RECOG_CONF	n/a	LTP238	ltpFR	1	3	1	FIST	572	n/a	2	1	n/a	n/a	n/a	n/a	n/a
3371458	RECOG_TARGET	n/a	LTP238	ltpFR	1	3	0	LAPEL	800	1	5	0	n/a	n/a	n/a	n/a	n/a
3372474	RECOG_RESP	n/a	LTP238	ltpFR	1	3	0	LAPEL	800	1	n/a	0	n/a	n/a	n/a	n/a	n/a
3373954	RECOG_CONF	n/a	LTP238	ltpFR	1	3	0	LAPEL	800	n/a	5	0	n/a	n/a	n/a	n/a	n/a
3375900	RECOG_LURE	n/a	LTP238	ltpFR	1	3	n/a	KNOT	788	0	3	n/a	n/a	n/a	n/a	n/a	n/a
3377281	RECOG_RESP	n/a	LTP238	ltpFR	1	3	n/a	KNOT	788	0	n/a	n/a	n/a	n/a	n/a	n/a	n/a
3379026	RECOG_CONF	n/a	LTP238	ltpFR	1	3	n/a	KNOT	788	n/a	3	n/a	n/a	n/a	n/a	n/a	n/a
3380743	RECOG_TARGET	n/a	LTP238	ltpFR	1	3	1	ROD	1203	1	5	0	n/a	n/a	n/a	n/a	n/a
3381615	RECOG_RESP	n/a	LTP238	ltpFR	1	3	1	ROD	1203	1	n/a	0	n/a	n/a	n/a	n/a	n/a
3383203	RECOG_CONF	n/a	LTP238	ltpFR	1	3	1	ROD	1203	n/a	5	0	n/a	n/a	n/a	n/a	n/a
3395771	REC_START	n/a	LTP238	ltpFR	1	4	n/a	n/a	n/a	n/a	n/a	n/a	n/a	n/a	n/a	n/a	n/a
3395804	RECOG_TARGET	n/a	LTP238	ltpFR	1	4	1	STEAM	1375	1	5	0	n/a	n/a	n/a	n/a	n/a
3396938	RECOG_RESP	n/a	LTP238	ltpFR	1	4	1	STEAM	1375	1	n/a	0	n/a	n/a	n/a	n/a	n/a
3398480	RECOG_CONF	n/a	LTP238	ltpFR	1	4	1	STEAM	1375	n/a	5	0	n/a	n/a	n/a	n/a	n/a
3400330	RECOG_TARGET	n/a	LTP238	ltpFR	1	4	0	SNAKE	1333	1	5	0	n/a	n/a	n/a	n/a	n/a
3401397	RECOG_RESP	n/a	LTP238	ltpFR	1	4	0	SNAKE	1333	1	n/a	0	n/a	n/a	n/a	n/a	n/a
3403008	RECOG_CONF	n/a	LTP238	ltpFR	1	4	0	SNAKE	1333	n/a	5	0	n/a	n/a	n/a	n/a	n/a
3404840	RECOG_LURE	n/a	LTP238	ltpFR	1	4	n/a	WASHER	1592	0	4	n/a	n/a	n/a	n/a	n/a	n/a
3407338	RECOG_RESP	n/a	LTP238	ltpFR	1	4	n/a	WASHER	1592	0	n/a	n/a	n/a	n/a	n/a	n/a	n/a
3409108	RECOG_CONF	n/a	LTP238	ltpFR	1	4	n/a	WASHER	1592	n/a	4	n/a	n/a	n/a	n/a	n/a	n/a
3410831	RECOG_TARGET	n/a	LTP238	ltpFR	1	4	0	RIBBON	1189	1	5	0	n/a	n/a	n/a	n/a	n/a
3411944	RECOG_RESP	n/a	LTP238	ltpFR	1	4	0	RIBBON	1189	1	n/a	0	n/a	n/a	n/a	n/a	n/a
3413375	RECOG_CONF	n/a	LTP238	ltpFR	1	4	0	RIBBON	1189	n/a	5	0	n/a	n/a	n/a	n/a	n/a
3415158	RECOG_LURE	n/a	LTP238	ltpFR	1	4	n/a	GYMNAST	675	0	5	n/a	n/a	n/a	n/a	n/a	n/a
3416305	RECOG_RESP	n/a	LTP238	ltpFR	1	4	n/a	GYMNAST	675	0	n/a	n/a	n/a	n/a	n/a	n/a	n/a
3417651	RECOG_CONF	n/a	LTP238	ltpFR	1	4	n/a	GYMNAST	675	n/a	5	n/a	n/a	n/a	n/a	n/a	n/a
3419352	RECOG_TARGET	n/a	LTP238	ltpFR	1	4	1	CARD	243	1	5	0	n/a	n/a	n/a	n/a	n/a
3420190	RECOG_RESP	n/a	LTP238	ltpFR	1	4	1	CARD	243	1	n/a	0	n/a	n/a	n/a	n/a	n/a
3421627	RECOG_CONF	n/a	LTP238	ltpFR	1	4	1	CARD	243	n/a	5	0	n/a	n/a	n/a	n/a	n/a
3423379	RECOG_TARGET	n/a	LTP238	ltpFR	1	4	1	CHAMBER	277	1	5	1	n/a	n/a	n/a	n/a	n/a
3424266	RECOG_RESP	n/a	LTP238	ltpFR	1	4	1	CHAMBER	277	1	n/a	1	n/a	n/a	n/a	n/a	n/a
3425896	RECOG_CONF	n/a	LTP238	ltpFR	1	4	1	CHAMBER	277	n/a	5	1	n/a	n/a	n/a	n/a	n/a
3427639	RECOG_TARGET	n/a	LTP238	ltpFR	1	4	0	SECRETARY	1265	1	5	1	n/a	n/a	n/a	n/a	n/a
3428710	RECOG_RESP	n/a	LTP238	ltpFR	1	4	0	SECRETARY	1265	1	n/a	1	n/a	n/a	n/a	n/a	n/a
3430360	RECOG_CONF	n/a	LTP238	ltpFR	1	4	0	SECRETARY	1265	n/a	5	1	n/a	n/a	n/a	n/a	n/a
3432016	RECOG_TARGET	n/a	LTP238	ltpFR	1	4	-1	WAITRESS	1581	1	5	-1	n/a	n/a	n/a	n/a	n/a
3433121	RECOG_RESP	n/a	LTP238	ltpFR	1	4	-1	WAITRESS	1581	1	n/a	-1	n/a	n/a	n/a	n/a	n/a
3434785	RECOG_CONF	n/a	LTP238	ltpFR	1	4	-1	WAITRESS	1581	n/a	5	-1	n/a	n/a	n/a	n/a	n/a
3436510	RECOG_LURE	n/a	LTP238	ltpFR	1	4	n/a	LETTUCE	814	0	3	n/a	n/a	n/a	n/a	n/a	n/a
3437652	RECOG_RESP	n/a	LTP238	ltpFR	1	4	n/a	LETTUCE	814	0	n/a	n/a	n/a	n/a	n/a	n/a	n/a
3439503	RECOG_CONF	n/a	LTP238	ltpFR	1	4	n/a	LETTUCE	814	n/a	3	n/a	n/a	n/a	n/a	n/a	n/a
3441352	RECOG_LURE	n/a	LTP238	ltpFR	1	4	n/a	COUNTY	389	0	4	n/a	n/a	n/a	n/a	n/a	n/a
3443208	RECOG_RESP	n/a	LTP238	ltpFR	1	4	n/a	COUNTY	389	0	n/a	n/a	n/a	n/a	n/a	n/a	n/a
3444835	RECOG_CONF	n/a	LTP238	ltpFR	1	4	n/a	COUNTY	389	n/a	4	n/a	n/a	n/a	n/a	n/a	n/a
3446545	RECOG_TARGET	n/a	LTP238	ltpFR	1	4	0	AIRPLANE	12	1	2	1	n/a	n/a	n/a	n/a	n/a
3449551	RECOG_RESP	n/a	LTP238	ltpFR	1	4	0	AIRPLANE	12	1	n/a	1	n/a	n/a	n/a	n/a	n/a
3451097	RECOG_CONF	n/a	LTP238	ltpFR	1	4	0	AIRPLANE	12	n/a	2	1	n/a	n/a	n/a	n/a	n/a
3452769	RECOG_TARGET	n/a	LTP238	ltpFR	1	4	1	BREAST	171	1	5	1	n/a	n/a	n/a	n/a	n/a
3453977	RECOG_RESP	n/a	LTP238	ltpFR	1	4	1	BREAST	171	1	n/a	1	n/a	n/a	n/a	n/a	n/a
3455527	RECOG_CONF	n/a	LTP238	ltpFR	1	4	1	BREAST	171	n/a	5	1	n/a	n/a	n/a	n/a	n/a
3457362	RECOG_TARGET	n/a	LTP238	ltpFR	1	4	1	SARDINE	1235	1	5	1	n/a	n/a	n/a	n/a	n/a
3458313	RECOG_RESP	n/a	LTP238	ltpFR	1	4	1	SARDINE	1235	1	n/a	1	n/a	n/a	n/a	n/a	n/a
3460181	RECOG_CONF	n/a	LTP238	ltpFR	1	4	1	SARDINE	1235	n/a	5	1	n/a	n/a	n/a	n/a	n/a
3462055	RECOG_TARGET	n/a	LTP238	ltpFR	1	4	1	HANGER	687	1	5	0	n/a	n/a	n/a	n/a	n/a
3463741	RECOG_RESP	n/a	LTP238	ltpFR	1	4	1	HANGER	687	1	n/a	0	n/a	n/a	n/a	n/a	n/a
3465516	RECOG_CONF	n/a	LTP238	ltpFR	1	4	1	HANGER	687	n/a	5	0	n/a	n/a	n/a	n/a	n/a
3467363	RECOG_TARGET	n/a	LTP238	ltpFR	1	4	1	PUPPY	1144	1	5	1	n/a	n/a	n/a	n/a	n/a
3468182	RECOG_RESP	n/a	LTP238	ltpFR	1	4	1	PUPPY	1144	1	n/a	1	n/a	n/a	n/a	n/a	n/a
3469836	RECOG_CONF	n/a	LTP238	ltpFR	1	4	1	PUPPY	1144	n/a	5	1	n/a	n/a	n/a	n/a	n/a
3471657	RECOG_LURE	n/a	LTP238	ltpFR	1	4	n/a	TRIBE	1505	0	3	n/a	n/a	n/a	n/a	n/a	n/a
3473056	RECOG_RESP	n/a	LTP238	ltpFR	1	4	n/a	TRIBE	1505	0	n/a	n/a	n/a	n/a	n/a	n/a	n/a
3474851	RECOG_CONF	n/a	LTP238	ltpFR	1	4	n/a	TRIBE	1505	n/a	3	n/a	n/a	n/a	n/a	n/a	n/a
3476666	RECOG_LURE	n/a	LTP238	ltpFR	1	4	n/a	SURVEY	1414	0	4	n/a	n/a	n/a	n/a	n/a	n/a
3477711	RECOG_RESP	n/a	LTP238	ltpFR	1	4	n/a	SURVEY	1414	0	n/a	n/a	n/a	n/a	n/a	n/a	n/a
3479954	RECOG_CONF	n/a	LTP238	ltpFR	1	4	n/a	SURVEY	1414	n/a	4	n/a	n/a	n/a	n/a	n/a	n/a
3481376	RECOG_LURE	n/a	LTP238	ltpFR	1	4	n/a	ELK	526	0	4	n/a	n/a	n/a	n/a	n/a	n/a
3482929	RECOG_RESP	n/a	LTP238	ltpFR	1	4	n/a	ELK	526	0	n/a	n/a	n/a	n/a	n/a	n/a	n/a
3484299	RECOG_CONF	n/a	LTP238	ltpFR	1	4	n/a	ELK	526	n/a	4	n/a	n/a	n/a	n/a	n/a	n/a
3486102	RECOG_TARGET	n/a	LTP238	ltpFR	1	4	1	CARRIAGE	248	1	5	0	n/a	n/a	n/a	n/a	n/a
3487344	RECOG_RESP	n/a	LTP238	ltpFR	1	4	1	CARRIAGE	248	1	n/a	0	n/a	n/a	n/a	n/a	n/a
3488759	RECOG_CONF	n/a	LTP238	ltpFR	1	4	1	CARRIAGE	248	n/a	5	0	n/a	n/a	n/a	n/a	n/a
3501424	REC_START	n/a	LTP238	ltpFR	1	5	n/a	n/a	n/a	n/a	n/a	n/a	n/a	n/a	n/a	n/a	n/a
3501463	RECOG_TARGET	n/a	LTP238	ltpFR	1	5	0	CALENDAR	221	1	5	0	n/a	n/a	n/a	n/a	n/a
3502387	RECOG_RESP	n/a	LTP238	ltpFR	1	5	0	CALENDAR	221	1	n/a	0	n/a	n/a	n/a	n/a	n/a
3503783	RECOG_CONF	n/a	LTP238	ltpFR	1	5	0	CALENDAR	221	n/a	5	0	n/a	n/a	n/a	n/a	n/a
3505606	RECOG_TARGET	n/a	LTP238	ltpFR	1	5	-1	SHELF	1280	1	5	-1	n/a	n/a	n/a	n/a	n/a
3506378	RECOG_RESP	n/a	LTP238	ltpFR	1	5	-1	SHELF	1280	1	n/a	-1	n/a	n/a	n/a	n/a	n/a
3508024	RECOG_CONF	n/a	LTP238	ltpFR	1	5	-1	SHELF	1280	n/a	5	-1	n/a	n/a	n/a	n/a	n/a
3510066	RECOG_TARGET	n/a	LTP238	ltpFR	1	5	0	RASH	1167	1	5	0	n/a	n/a	n/a	n/a	n/a
3510939	RECOG_RESP	n/a	LTP238	ltpFR	1	5	0	RASH	1167	1	n/a	0	n/a	n/a	n/a	n/a	n/a
3512613	RECOG_CONF	n/a	LTP238	ltpFR	1	5	0	RASH	1167	n/a	5	0	n/a	n/a	n/a	n/a	n/a
3514544	RECOG_TARGET	n/a	LTP238	ltpFR	1	5	1	TEACHER	1440	1	5	1	n/a	n/a	n/a	n/a	n/a
3515502	RECOG_RESP	n/a	LTP238	ltpFR	1	5	1	TEACHER	1440	1	n/a	1	n/a	n/a	n/a	n/a	n/a
3517047	RECOG_CONF	n/a	LTP238	ltpFR	1	5	1	TEACHER	1440	n/a	5	1	n/a	n/a	n/a	n/a	n/a
3518836	RECOG_LURE	n/a	LTP238	ltpFR	1	5	n/a	GARAGE	621	0	4	n/a	n/a	n/a	n/a	n/a	n/a
3520894	RECOG_RESP	n/a	LTP238	ltpFR	1	5	n/a	GARAGE	621	0	n/a	n/a	n/a	n/a	n/a	n/a	n/a
3522312	RECOG_CONF	n/a	LTP238	ltpFR	1	5	n/a	GARAGE	621	n/a	4	n/a	n/a	n/a	n/a	n/a	n/a
3524045	RECOG_TARGET	n/a	LTP238	ltpFR	1	5	-1	COMMUNITY	356	1	5	-1	n/a	n/a	n/a	n/a	n/a
3525265	RECOG_RESP	n/a	LTP238	ltpFR	1	5	-1	COMMUNITY	356	1	n/a	-1	n/a	n/a	n/a	n/a	n/a
3526657	RECOG_CONF	n/a	LTP238	ltpFR	1	5	-1	COMMUNITY	356	n/a	5	-1	n/a	n/a	n/a	n/a	n/a
3528389	RECOG_TARGET	n/a	LTP238	ltpFR	1	5	0	COTTAGE	384	1	5	0	n/a	n/a	n/a	n/a	n/a
3529384	RECOG_RESP	n/a	LTP238	ltpFR	1	5	0	COTTAGE	384	1	n/a	0	n/a	n/a	n/a	n/a	n/a
3531123	RECOG_CONF	n/a	LTP238	ltpFR	1	5	0	COTTAGE	384	n/a	5	0	n/a	n/a	n/a	n/a	n/a
3532915	RECOG_LURE	n/a	LTP238	ltpFR	1	5	n/a	PRINTER	1126	0	3	n/a	n/a	n/a	n/a	n/a	n/a
3535206	RECOG_RESP	n/a	LTP238	ltpFR	1	5	n/a	PRINTER	1126	0	n/a	n/a	n/a	n/a	n/a	n/a	n/a
3536497	RECOG_CONF	n/a	LTP238	ltpFR	1	5	n/a	PRINTER	1126	n/a	3	n/a	n/a	n/a	n/a	n/a	n/a
3538208	RECOG_TARGET	n/a	LTP238	ltpFR	1	5	1	GLOVE	642	1	5	0	n/a	n/a	n/a	n/a	n/a
3539204	RECOG_RESP	n/a	LTP238	ltpFR	1	5	1	GLOVE	642	1	n/a	0	n/a	n/a	n/a	n/a	n/a
3540671	RECOG_CONF	n/a	LTP238	ltpFR	1	5	1	GLOVE	642	n/a	5	0	n/a	n/a	n/a	n/a	n/a
3542486	RECOG_TARGET	n/a	LTP238	ltpFR	1	5	1	BAIT	70	1	5	1	n/a	n/a	n/a	n/a	n/a
3543538	RECOG_RESP	n/a	LTP238	ltpFR	1	5	1	BAIT	70	1	n/a	1	n/a	n/a	n/a	n/a	n/a
3545331	RECOG_CONF	n/a	LTP238	ltpFR	1	5	1	BAIT	70	n/a	5	1	n/a	n/a	n/a	n/a	n/a
3547277	RECOG_TARGET	n/a	LTP238	ltpFR	1	5	1	AFRICA	9	1	5	0	n/a	n/a	n/a	n/a	n/a
3548144	RECOG_RESP	n/a	LTP238	ltpFR	1	5	1	AFRICA	9	1	n/a	0	n/a	n/a	n/a	n/a	n/a
3549968	RECOG_CONF	n/a	LTP238	ltpFR	1	5	1	AFRICA	9	n/a	5	0	n/a	n/a	n/a	n/a	n/a
3551821	RECOG_TARGET	n/a	LTP238	ltpFR	1	5	0	RIVER	1194	1	5	1	n/a	n/a	n/a	n/a	n/a
3552642	RECOG_RESP	n/a	LTP238	ltpFR	1	5	0	RIVER	1194	1	n/a	1	n/a	n/a	n/a	n/a	n/a
3554346	RECOG_CONF	n/a	LTP238	ltpFR	1	5	0	RIVER	1194	n/a	5	1	n/a	n/a	n/a	n/a	n/a
3556713	RECOG_TARGET	n/a	LTP238	ltpFR	1	5	0	BOOTH	151	1	5	1	n/a	n/a	n/a	n/a	n/a
3557663	RECOG_RESP	n/a	LTP238	ltpFR	1	5	0	BOOTH	151	1	n/a	1	n/a	n/a	n/a	n/a	n/a
3559268	RECOG_CONF	n/a	LTP238	ltpFR	1	5	0	BOOTH	151	n/a	5	1	n/a	n/a	n/a	n/a	n/a
3561256	RECOG_TARGET	n/a	LTP238	ltpFR	1	5	0	DEPUTY	450	1	5	1	n/a	n/a	n/a	n/a	n/a
3562028	RECOG_RESP	n/a	LTP238	ltpFR	1	5	0	DEPUTY	450	1	n/a	1	n/a	n/a	n/a	n/a	n/a
3563855	RECOG_CONF	n/a	LTP238	ltpFR	1	5	0	DEPUTY	450	n/a	5	1	n/a	n/a	n/a	n/a	n/a
3565617	RECOG_TARGET	n/a	LTP238	ltpFR	1	5	1	SALESMAN	1225	1	2	1	n/a	n/a	n/a	n/a	n/a
3567514	RECOG_RESP	n/a	LTP238	ltpFR	1	5	1	SALESMAN	1225	1	n/a	1	n/a	n/a	n/a	n/a	n/a
3569106	RECOG_CONF	n/a	LTP238	ltpFR	1	5	1	SALESMAN	1225	n/a	2	1	n/a	n/a	n/a	n/a	n/a
3570892	RECOG_TARGET	n/a	LTP238	ltpFR	1	5	1	BULLETIN	195	1	5	0	n/a	n/a	n/a	n/a	n/a
3571876	RECOG_RESP	n/a	LTP238	ltpFR	1	5	1	BULLETIN	195	1	n/a	0	n/a	n/a	n/a	n/a	n/a
3573515	RECOG_CONF	n/a	LTP238	ltpFR	1	5	1	BULLETIN	195	n/a	5	0	n/a	n/a	n/a	n/a	n/a
3575236	RECOG_LURE	n/a	LTP238	ltpFR	1	5	n/a	PLAYGROUND	1087	0	4	n/a	n/a	n/a	n/a	n/a	n/a
3576695	RECOG_RESP	n/a	LTP238	ltpFR	1	5	n/a	PLAYGROUND	1087	0	n/a	n/a	n/a	n/a	n/a	n/a	n/a
3577957	RECOG_CONF	n/a	LTP238	ltpFR	1	5	n/a	PLAYGROUND	1087	n/a	4	n/a	n/a	n/a	n/a	n/a	n/a
3579746	RECOG_TARGET	n/a	LTP238	ltpFR	1	5	1	CATTLE	261	1	5	1	n/a	n/a	n/a	n/a	n/a
3580597	RECOG_RESP	n/a	LTP238	ltpFR	1	5	1	CATTLE	261	1	n/a	1	n/a	n/a	n/a	n/a	n/a
3582081	RECOG_CONF	n/a	LTP238	ltpFR	1	5	1	CATTLE	261	n/a	5	1	n/a	n/a	n/a	n/a	n/a
3583823	RECOG_LURE	n/a	LTP238	ltpFR	1	5	n/a	HOSTAGE	722	0	4	n/a	n/a	n/a	n/a	n/a	n/a
3586739	RECOG_RESP	n/a	LTP238	ltpFR	1	5	n/a	HOSTAGE	722	0	n/a	n/a	n/a	n/a	n/a	n/a	n/a
3588078	RECOG_CONF	n/a	LTP238	ltpFR	1	5	n/a	HOSTAGE	722	n/a	4	n/a	n/a	n/a	n/a	n/a	n/a
3589764	RECOG_TARGET	n/a	LTP238	ltpFR	1	5	0	WASP	1593	1	5	1	n/a	n/a	n/a	n/a	n/a
3592013	RECOG_RESP	n/a	LTP238	ltpFR	1	5	0	WASP	1593	1	n/a	1	n/a	n/a	n/a	n/a	n/a
3593561	RECOG_CONF	n/a	LTP238	ltpFR	1	5	0	WASP	1593	n/a	5	1	n/a	n/a	n/a	n/a	n/a
3616627	REC_START	n/a	LTP238	ltpFR	1	6	n/a	n/a	n/a	n/a	n/a	n/a	n/a	n/a	n/a	n/a	n/a
3616657	RECOG_TARGET	n/a	LTP238	ltpFR	1	6	1	POOL	1103	1	5	0	n/a	n/a	n/a	n/a	n/a
3617911	RECOG_RESP	n/a	LTP238	ltpFR	1	6	1	POOL	1103	1	n/a	0	n/a	n/a	n/a	n/a	n/a
3619279	RECOG_CONF	n/a	LTP238	ltpFR	1	6	1	POOL	1103	n/a	5	0	n/a	n/a	n/a	n/a	n/a
3621300	RECOG_TARGET	n/a	LTP238	ltpFR	1	6	-1	OINTMENT	974	1	5	-1	n/a	n/a	n/a	n/a	n/a
3622658	RECOG_RESP	n/a	LTP238	ltpFR	1	6	-1	OINTMENT	974	1	n/a	-1	n/a	n/a	n/a	n/a	n/a
3624095	RECOG_CONF	n/a	LTP238	ltpFR	1	6	-1	OINTMENT	974	n/a	5	-1	n/a	n/a	n/a	n/a	n/a
3625960	RECOG_TARGET	n/a	LTP238	ltpFR	1	6	-1	SPY	1360	1	5	-1	n/a	n/a	n/a	n/a	n/a
3626709	RECOG_RESP	n/a	LTP238	ltpFR	1	6	-1	SPY	1360	1	n/a	-1	n/a	n/a	n/a	n/a	n/a
3628276	RECOG_CONF	n/a	LTP238	ltpFR	1	6	-1	SPY	1360	n/a	5	-1	n/a	n/a	n/a	n/a	n/a
3630203	RECOG_TARGET	n/a	LTP238	ltpFR	1	6	0	TUNA	1518	1	5	0	n/a	n/a	n/a	n/a	n/a
3631231	RECOG_RESP	n/a	LTP238	ltpFR	1	6	0	TUNA	1518	1	n/a	0	n/a	n/a	n/a	n/a	n/a
3632975	RECOG_CONF	n/a	LTP238	ltpFR	1	6	0	TUNA	1518	n/a	5	0	n/a	n/a	n/a	n/a	n/a
3634847	RECOG_TARGET	n/a	LTP238	ltpFR	1	6	-1	CABBAGE	210	0	3	-1	n/a	n/a	n/a	n/a	n/a
3636097	RECOG_RESP	n/a	LTP238	ltpFR	1	6	-1	CABBAGE	210	0	n/a	-1	n/a	n/a	n/a	n/a	n/a
3637923	RECOG_CONF	n/a	LTP238	ltpFR	1	6	-1	CABBAGE	210	n/a	3	-1	n/a	n/a	n/a	n/a	n/a
3640022	RECOG_TARGET	n/a	LTP238	ltpFR	1	6	-1	BAND	78	1	5	-1	n/a	n/a	n/a	n/a	n/a
3642165	RECOG_RESP	n/a	LTP238	ltpFR	1	6	-1	BAND	78	1	n/a	-1	n/a	n/a	n/a	n/a	n/a
3643551	RECOG_CONF	n/a	LTP238	ltpFR	1	6	-1	BAND	78	n/a	5	-1	n/a	n/a	n/a	n/a	n/a
3645482	RECOG_TARGET	n/a	LTP238	ltpFR	1	6	1	CINNAMON	310	1	5	0	n/a	n/a	n/a	n/a	n/a
3646417	RECOG_RESP	n/a	LTP238	ltpFR	1	6	1	CINNAMON	310	1	n/a	0	n/a	n/a	n/a	n/a	n/a
3648089	RECOG_CONF	n/a	LTP238	ltpFR	1	6	1	CINNAMON	310	n/a	5	0	n/a	n/a	n/a	n/a	n/a
3650057	RECOG_TARGET	n/a	LTP238	ltpFR	1	6	0	LAMP	798	1	5	1	n/a	n/a	n/a	n/a	n/a
3651004	RECOG_RESP	n/a	LTP238	ltpFR	1	6	0	LAMP	798	1	n/a	1	n/a	n/a	n/a	n/a	n/a
3652654	RECOG_CONF	n/a	LTP238	ltpFR	1	6	0	LAMP	798	n/a	5	1	n/a	n/a	n/a	n/a	n/a
3654600	RECOG_TARGET	n/a	LTP238	ltpFR	1	6	0	SHACK	1273	1	2	1	n/a	n/a	n/a	n/a	n/a
3656772	RECOG_RESP	n/a	LTP238	ltpFR	1	6	0	SHACK	1273	1	n/a	1	n/a	n/a	n/a	n/a	n/a
3658277	RECOG_CONF	n/a	LTP238	ltpFR	1	6	0	SHACK	1273	n/a	2	1	n/a	n/a	n/a	n/a	n/a
3660125	RECOG_TARGET	n/a	LTP238	ltpFR	1	6	1	CORAL	378	1	5	1	n/a	n/a	n/a	n/a	n/a
3662009	RECOG_RESP	n/a	LTP238	ltpFR	1	6	1	CORAL	378	1	n/a	1	n/a	n/a	n/a	n/a	n/a
3663596	RECOG_CONF	n/a	LTP238	ltpFR	1	6	1	CORAL	378	n/a	5	1	n/a	n/a	n/a	n/a	n/a
3665734	RECOG_TARGET	n/a	LTP238	ltpFR	1	6	0	MICROPHONE	890	1	5	0	n/a	n/a	n/a	n/a	n/a
3666679	RECOG_RESP	n/a	LTP238	ltpFR	1	6	0	MICROPHONE	890	1	n/a	0	n/a	n/a	n/a	n/a	n/a
3668258	RECOG_CONF	n/a	LTP238	ltpFR	1	6	0	MICROPHONE	890	n/a	5	0	n/a	n/a	n/a	n/a	n/a
3670327	RECOG_LURE	n/a	LTP238	ltpFR	1	6	n/a	BOX	159	0	4	n/a	n/a	n/a	n/a	n/a	n/a
3671602	RECOG_RESP	n/a	LTP238	ltpFR	1	6	n/a	BOX	159	0	n/a	n/a	n/a	n/a	n/a	n/a	n/a
3673562	RECOG_CONF	n/a	LTP238	ltpFR	1	6	n/a	BOX	159	n/a	4	n/a	n/a	n/a	n/a	n/a	n/a
3675336	RECOG_TARGET	n/a	LTP238	ltpFR	1	6	1	SWITCH	1422	1	5	0	n/a	n/a	n/a	n/a	n/a
3676481	RECOG_RESP	n/a	LTP238	ltpFR	1	6	1	SWITCH	1422	1	n/a	0	n/a	n/a	n/a	n/a	n/a
3677883	RECOG_CONF	n/a	LTP238	ltpFR	1	6	1	SWITCH	1422	n/a	5	0	n/a	n/a	n/a	n/a	n/a
3679846	RECOG_TARGET	n/a	LTP238	ltpFR	1	6	-1	SCARF	1246	1	5	-1	n/a	n/a	n/a	n/a	n/a
3680624	RECOG_RESP	n/a	LTP238	ltpFR	1	6	-1	SCARF	1246	1	n/a	-1	n/a	n/a	n/a	n/a	n/a
3682487	RECOG_CONF	n/a	LTP238	ltpFR	1	6	-1	SCARF	1246	n/a	5	-1	n/a	n/a	n/a	n/a	n/a
3684339	RECOG_TARGET	n/a	LTP238	ltpFR	1	6	0	SWEATER	1419	1	5	n/a	n/a	n/a	n/a	n/a	n/a
3685176	RECOG_RESP	n/a	LTP238	ltpFR	1	6	0	SWEATER	1419	1	n/a	n/a	n/a	n/a	n/a	n/a	n/a
3687124	RECOG_CONF	n/a	LTP238	ltpFR	1	6	0	SWEATER	1419	n/a	5	n/a	n/a	n/a	n/a	n/a	n/a
3689082	RECOG_TARGET	n/a	LTP238	ltpFR	1	6	1	POLYESTER	1100	1	5	0	n/a	n/a	n/a	n/a	n/a
3689922	RECOG_RESP	n/a	LTP238	ltpFR	1	6	1	POLYESTER	1100	1	n/a	0	n/a	n/a	n/a	n/a	n/a
3691682	RECOG_CONF	n/a	LTP238	ltpFR	1	6	1	POLYESTER	1100	n/a	5	0	n/a	n/a	n/a	n/a	n/a
3693725	RECOG_TARGET	n/a	LTP238	ltpFR	1	6	0	BATHTUB	100	1	5	1	n/a	n/a	n/a	n/a	n/a
3694694	RECOG_RESP	n/a	LTP238	ltpFR	1	6	0	BATHTUB	100	1	n/a	1	n/a	n/a	n/a	n/a	n/a
3696560	RECOG_CONF	n/a	LTP238	ltpFR	1	6	0	BATHTUB	100	n/a	5	1	n/a	n/a	n/a	n/a	n/a
3698419	RECOG_TARGET	n/a	LTP238	ltpFR	1	6	0	CREEK	404	1	5	1	n/a	n/a	n/a	n/a	n/a
3700241	RECOG_RESP	n/a	LTP238	ltpFR	1	6	0	CREEK	404	1	n/a	1	n/a	n/a	n/a	n/a	n/a
3701838	RECOG_CONF	n/a	LTP238	ltpFR	1	6	0	CREEK	404	n/a	5	1	n/a	n/a	n/a	n/a	n/a
3703727	RECOG_TARGET	n/a	LTP238	ltpFR	1	6	-1	CHEERLEADER	288	1	5	-1	n/a	n/a	n/a	n/a	n/a
3704922	RECOG_RESP	n/a	LTP238	ltpFR	1	6	-1	CHEERLEADER	288	1	n/a	-1	n/a	n/a	n/a	n/a	n/a
3706795	RECOG_CONF	n/a	LTP238	ltpFR	1	6	-1	CHEERLEADER	288	n/a	5	-1	n/a	n/a	n/a	n/a	n/a
3708670	RECOG_TARGET	n/a	LTP238	ltpFR	1	6	0	CONVENT	370	1	5	1	n/a	n/a	n/a	n/a	n/a
3710413	RECOG_RESP	n/a	LTP238	ltpFR	1	6	0	CONVENT	370	1	n/a	1	n/a	n/a	n/a	n/a	n/a
3712218	RECOG_CONF	n/a	LTP238	ltpFR	1	6	0	CONVENT	370	n/a	5	1	n/a	n/a	n/a	n/a	n/a
3723547	REC_START	n/a	LTP238	ltpFR	1	7	n/a	n/a	n/a	n/a	n/a	n/a	n/a	n/a	n/a	n/a	n/a
3723581	RECOG_TARGET	n/a	LTP238	ltpFR	1	7	1	CHIMNEY	301	1	5	0	n/a	n/a	n/a	n/a	n/a
3724530	RECOG_RESP	n/a	LTP238	ltpFR	1	7	1	CHIMNEY	301	1	n/a	0	n/a	n/a	n/a	n/a	n/a
3726183	RECOG_CONF	n/a	LTP238	ltpFR	1	7	1	CHIMNEY	301	n/a	5	0	n/a	n/a	n/a	n/a	n/a
3727974	RECOG_TARGET	n/a	LTP238	ltpFR	1	7	1	CHAIR	274	1	3	0	n/a	n/a	n/a	n/a	n/a
3729016	RECOG_RESP	n/a	LTP238	ltpFR	1	7	1	CHAIR	274	1	n/a	0	n/a	n/a	n/a	n/a	n/a
3730376	RECOG_CONF	n/a	LTP238	ltpFR	1	7	1	CHAIR	274	n/a	3	0	n/a	n/a	n/a	n/a	n/a
3732185	RECOG_TARGET	n/a	LTP238	ltpFR	1	7	0	COD	340	n/a	n/a	0	n/a	n/a	n/a	n/a	n/a
3736728	RECOG_TARGET	n/a	LTP238	ltpFR	1	7	0	SUPERVISOR	1410	1	2	1	n/a	n/a	n/a	n/a	n/a
3737680	RECOG_RESP	n/a	LTP238	ltpFR	1	7	0	SUPERVISOR	1410	1	n/a	1	n/a	n/a	n/a	n/a	n/a
3740380	RECOG_CONF	n/a	LTP238	ltpFR	1	7	0	SUPERVISOR	1410	n/a	2	1	n/a	n/a	n/a	n/a	n/a
3742136	RECOG_TARGET	n/a	LTP238	ltpFR	1	7	0	PLUM	1090	1	5	0	n/a	n/a	n/a	n/a	n/a
3743370	RECOG_RESP	n/a	LTP238	ltpFR	1	7	0	PLUM	1090	1	n/a	0	n/a	n/a	n/a	n/a	n/a
3745102	RECOG_CONF	n/a	LTP238	ltpFR	1	7	0	PLUM	1090	n/a	5	0	n/a	n/a	n/a	n/a	n/a
3746996	RECOG_TARGET	n/a	LTP238	ltpFR	1	7	-1	TOAST	1471	1	5	-1	n/a	n/a	n/a	n/a	n/a
3747738	RECOG_RESP	n/a	LTP238	ltpFR	1	7	-1	TOAST	1471	1	n/a	-1	n/a	n/a	n/a	n/a	n/a
3749493	RECOG_CONF	n/a	LTP238	ltpFR	1	7	-1	TOAST	1471	n/a	5	-1	n/a	n/a	n/a	n/a	n/a
3751339	RECOG_LURE	n/a	LTP238	ltpFR	1	7	n/a	SKI	1316	0	3	n/a	n/a	n/a	n/a	n/a	n/a
3754054	RECOG_RESP	n/a	LTP238	ltpFR	1	7	n/a	SKI	1316	0	n/a	n/a	n/a	n/a	n/a	n/a	n/a
3755756	RECOG_CONF	n/a	LTP238	ltpFR	1	7	n/a	SKI	1316	n/a	3	n/a	n/a	n/a	n/a	n/a	n/a
3757448	RECOG_TARGET	n/a	LTP238	ltpFR	1	7	-1	STALLION	1369	1	5	-1	n/a	n/a	n/a	n/a	n/a
3758770	RECOG_RESP	n/a	LTP238	ltpFR	1	7	-1	STALLION	1369	1	n/a	-1	n/a	n/a	n/a	n/a	n/a
3760244	RECOG_CONF	n/a	LTP238	ltpFR	1	7	-1	STALLION	1369	n/a	5	-1	n/a	n/a	n/a	n/a	n/a
3762306	RECOG_TARGET	n/a	LTP238	ltpFR	1	7	1	NET	946	1	4	0	n/a	n/a	n/a	n/a	n/a
3763127	RECOG_RESP	n/a	LTP238	ltpFR	1	7	1	NET	946	1	n/a	0	n/a	n/a	n/a	n/a	n/a
3764780	RECOG_CONF	n/a	LTP238	ltpFR	1	7	1	NET	946	n/a	4	0	n/a	n/a	n/a	n/a	n/a
3766600	RECOG_TARGET	n/a	LTP238	ltpFR	1	7	-1	CONCERT	360	1	2	-1	n/a	n/a	n/a	n/a	n/a
3768445	RECOG_RESP	n/a	LTP238	ltpFR	1	7	-1	CONCERT	360	1	n/a	-1	n/a	n/a	n/a	n/a	n/a
3770770	RECOG_CONF	n/a	LTP238	ltpFR	1	7	-1	CONCERT	360	n/a	2	-1	n/a	n/a	n/a	n/a	n/a
3772707	RECOG_TARGET	n/a	LTP238	ltpFR	1	7	-1	SHEEP	1278	1	2	-1	n/a	n/a	n/a	n/a	n/a
3777584	RECOG_RESP	n/a	LTP238	ltpFR	1	7	-1	SHEEP	1278	1	n/a	-1	n/a	n/a	n/a	n/a	n/a
3779483	RECOG_CONF	n/a	LTP238	ltpFR	1	7	-1	SHEEP	1278	n/a	2	-1	n/a	n/a	n/a	n/a	n/a
3781328	RECOG_LURE	n/a	LTP238	ltpFR	1	7	n/a	ACID	2	0	3	n/a	n/a	n/a	n/a	n/a	n/a
3782916	RECOG_RESP	n/a	LTP238	ltpFR	1	7	n/a	ACID	2	0	n/a	n/a	n/a	n/a	n/a	n/a	n/a
3785004	RECOG_CONF	n/a	LTP238	ltpFR	1	7	n/a	ACID	2	n/a	3	n/a	n/a	n/a	n/a	n/a	n/a
3786720	RECOG_TARGET	n/a	LTP238	ltpFR	1	7	0	INVENTOR	743	1	5	1	n/a	n/a	n/a	n/a	n/a
3787797	RECOG_RESP	n/a	LTP238	ltpFR	1	7	0	INVENTOR	743	1	n/a	1	n/a	n/a	n/a	n/a	n/a
3789284	RECOG_CONF	n/a	LTP238	ltpFR	1	7	0	INVENTOR	743	n/a	5	1	n/a	n/a	n/a	n/a	n/a
3791363	RECOG_LURE	n/a	LTP238	ltpFR	1	7	n/a	ADULT	8	1	3	n/a	n/a	n/a	n/a	n/a	n/a
3794170	RECOG_RESP	n/a	LTP238	ltpFR	1	7	n/a	ADULT	8	1	n/a	n/a	n/a	n/a	n/a	n/a	n/a
3795940	RECOG_CONF	n/a	LTP238	ltpFR	1	7	n/a	ADULT	8	n/a	3	n/a	n/a	n/a	n/a	n/a	n/a
3797820	RECOG_TARGET	n/a	LTP238	ltpFR	1	7	0	PERCH	1048	1	5	0	n/a	n/a	n/a	n/a	n/a
3798936	RECOG_RESP	n/a	LTP238	ltpFR	1	7	0	PERCH	1048	1	n/a	0	n/a	n/a	n/a	n/a	n/a
3800291	RECOG_CONF	n/a	LTP238	ltpFR	1	7	0	PERCH	1048	n/a	5	0	n/a	n/a	n/a	n/a	n/a
3802180	RECOG_TARGET	n/a	LTP238	ltpFR	1	7	1	CREATURE	403	1	5	1	n/a	n/a	n/a	n/a	n/a
3802916	RECOG_RESP	n/a	LTP238	ltpFR	1	7	1	CREATURE	403	1	n/a	1	n/a	n/a	n/a	n/a	n/a
3804575	RECOG_CONF	n/a	LTP238	ltpFR	1	7	1	CREATURE	403	n/a	5	1	n/a	n/a	n/a	n/a	n/a
3806890	RECOG_TARGET	n/a	LTP238	ltpFR	1	7	1	COLOGNE	347	0	1	0	n/a	n/a	n/a	n/a	n/a
3809930	RECOG_RESP	n/a	LTP238	ltpFR	1	7	1	COLOGNE	347	0	n/a	0	n/a	n/a	n/a	n/a	n/a
3811369	RECOG_CONF	n/a	LTP238	ltpFR	1	7	1	COLOGNE	347	n/a	1	0	n/a	n/a	n/a	n/a	n/a
3813347	RECOG_LURE	n/a	LTP238	ltpFR	1	7	n/a	STAPLE	1371	1	1	n/a	n/a	n/a	n/a	n/a	n/a
3814209	RECOG_RESP	n/a	LTP238	ltpFR	1	7	n/a	STAPLE	1371	1	n/a	n/a	n/a	n/a	n/a	n/a	n/a
3815982	RECOG_CONF	n/a	LTP238	ltpFR	1	7	n/a	STAPLE	1371	n/a	1	n/a	n/a	n/a	n/a	n/a	n/a
3817790	RECOG_TARGET	n/a	LTP238	ltpFR	1	7	0	SACK	1220	1	3	0	n/a	n/a	n/a	n/a	n/a
3820874	RECOG_RESP	n/a	LTP238	ltpFR	1	7	0	SACK	1220	1	n/a	0	n/a	n/a	n/a	n/a	n/a
3822678	RECOG_CONF	n/a	LTP238	ltpFR	1	7	0	SACK	1220	n/a	3	0	n/a	n/a	n/a	n/a	n/a
3824498	RECOG_TARGET	n/a	LTP238	ltpFR	1	7	-1	EXPLOSION	544	1	5	-1	n/a	n/a	n/a	n/a	n/a
3825480	RECOG_RESP	n/a	LTP238	ltpFR	1	7	-1	EXPLOSION	544	1	n/a	-1	n/a	n/a	n/a	n/a	n/a
3826905	RECOG_CONF	n/a	LTP238	ltpFR	1	7	-1	EXPLOSION	544	n/a	5	-1	n/a	n/a	n/a	n/a	n/a
3843487	REC_START	n/a	LTP238	ltpFR	1	8	n/a	n/a	n/a	n/a	n/a	n/a	n/a	n/a	n/a	n/a	n/a
3843519	RECOG_TARGET	n/a	LTP238	ltpFR	1	8	-1	PIPE	1073	1	5	-1	n/a	n/a	n/a	n/a	n/a
3844521	RECOG_RESP	n/a	LTP238	ltpFR	1	8	-1	PIPE	1073	1	n/a	-1	n/a	n/a	n/a	n/a	n/a
3846477	RECOG_CONF	n/a	LTP238	ltpFR	1	8	-1	PIPE	1073	n/a	5	-1	n/a	n/a	n/a	n/a	n/a
3848378	RECOG_TARGET	n/a	LTP238	ltpFR	1	8	0	BOSS	152	1	5	1	n/a	n/a	n/a	n/a	n/a
3849961	RECOG_RESP	n/a	LTP238	ltpFR	1	8	0	BOSS	152	1	n/a	1	n/a	n/a	n/a	n/a	n/a
3851670	RECOG_CONF	n/a	LTP238	ltpFR	1	8	0	BOSS	152	n/a	5	1	n/a	n/a	n/a	n/a	n/a
3853387	RECOG_LURE	n/a	LTP238	ltpFR	1	8	n/a	DICE	461	0	5	n/a	n/a	n/a	n/a	n/a	n/a
3854448	RECOG_RESP	n/a	LTP238	ltpFR	1	8	n/a	DICE	461	0	n/a	n/a	n/a	n/a	n/a	n/a	n/a
3856163	RECOG_CONF	n/a	LTP238	ltpFR	1	8	n/a	DICE	461	n/a	5	n/a	n/a	n/a	n/a	n/a	n/a
3857930	RECOG_TARGET	n/a	LTP238	ltpFR	1	8	-1	NOSE	957	1	5	-1	n/a	n/a	n/a	n/a	n/a
3858613	RECOG_RESP	n/a	LTP238	ltpFR	1	8	-1	NOSE	957	1	n/a	-1	n/a	n/a	n/a	n/a	n/a
3860021	RECOG_CONF	n/a	LTP238	ltpFR	1	8	-1	NOSE	957	n/a	5	-1	n/a	n/a	n/a	n/a	n/a
3861974	RECOG_TARGET	n/a	LTP238	ltpFR	1	8	0	SLACKS	1323	1	5	0	n/a	n/a	n/a	n/a	n/a
3862941	RECOG_RESP	n/a	LTP238	ltpFR	1	8	0	SLACKS	1323	1	n/a	0	n/a	n/a	n/a	n/a	n/a
3864525	RECOG_CONF	n/a	LTP238	ltpFR	1	8	0	SLACKS	1323	n/a	5	0	n/a	n/a	n/a	n/a	n/a
3866435	RECOG_TARGET	n/a	LTP238	ltpFR	1	8	-1	HEDGE	699	1	5	-1	n/a	n/a	n/a	n/a	n/a
3869354	RECOG_RESP	n/a	LTP238	ltpFR	1	8	-1	HEDGE	699	1	n/a	-1	n/a	n/a	n/a	n/a	n/a
3871114	RECOG_CONF	n/a	LTP238	ltpFR	1	8	-1	HEDGE	699	n/a	5	-1	n/a	n/a	n/a	n/a	n/a
3873174	RECOG_TARGET	n/a	LTP238	ltpFR	1	8	-1	DAM	436	0	3	-1	n/a	n/a	n/a	n/a	n/a
3874413	RECOG_RESP	n/a	LTP238	ltpFR	1	8	-1	DAM	436	0	n/a	-1	n/a	n/a	n/a	n/a	n/a
3876227	RECOG_CONF	n/a	LTP238	ltpFR	1	8	-1	DAM	436	n/a	3	-1	n/a	n/a	n/a	n/a	n/a
3878200	RECOG_TARGET	n/a	LTP238	ltpFR	1	8	-1	CASTLE	256	1	5	-1	n/a	n/a	n/a	n/a	n/a
3879415	RECOG_RESP	n/a	LTP238	ltpFR	1	8	-1	CASTLE	256	1	n/a	-1	n/a	n/a	n/a	n/a	n/a
3881229	RECOG_CONF	n/a	LTP238	ltpFR	1	8	-1	CASTLE	256	n/a	5	-1	n/a	n/a	n/a	n/a	n/a
3883292	RECOG_TARGET	n/a	LTP238	ltpFR	1	8	-1	CHIME	300	1	5	-1	n/a	n/a	n/a	n/a	n/a
3884579	RECOG_RESP	n/a	LTP238	ltpFR	1	8	-1	CHIME	300	1	n/a	-1	n/a	n/a	n/a	n/a	n/a
3886074	RECOG_CONF	n/a	LTP238	ltpFR	1	8	-1	CHIME	300	n/a	5	-1	n/a	n/a	n/a	n/a	n/a
3887520	RECOG_TARGET	n/a	LTP238	ltpFR	1	8	1	CAFETERIA	217	1	5	1	n/a	n/a	n/a	n/a	n/a
3891158	RECOG_RESP	n/a	LTP238	ltpFR	1	8	1	CAFETERIA	217	1	n/a	1	n/a	n/a	n/a	n/a	n/a
3892886	RECOG_CONF	n/a	LTP238	ltpFR	1	8	1	CAFETERIA	217	n/a	5	1	n/a	n/a	n/a	n/a	n/a
3895058	RECOG_TARGET	n/a	LTP238	ltpFR	1	8	0	CRUMB	416	1	5	0	n/a	n/a	n/a	n/a	n/a
3896378	RECOG_RESP	n/a	LTP238	ltpFR	1	8	0	CRUMB	416	1	n/a	0	n/a	n/a	n/a	n/a	n/a
3898145	RECOG_CONF	n/a	LTP238	ltpFR	1	8	0	CRUMB	416	n/a	5	0	n/a	n/a	n/a	n/a	n/a
3900100	RECOG_TARGET	n/a	LTP238	ltpFR	1	8	1	RASPBERRY	1168	1	5	1	n/a	n/a	n/a	n/a	n/a
3901166	RECOG_RESP	n/a	LTP238	ltpFR	1	8	1	RASPBERRY	1168	1	n/a	1	n/a	n/a	n/a	n/a	n/a
3902889	RECOG_CONF	n/a	LTP238	ltpFR	1	8	1	RASPBERRY	1168	n/a	5	1	n/a	n/a	n/a	n/a	n/a
3904843	RECOG_TARGET	n/a	LTP238	ltpFR	1	8	0	BOYFRIEND	162	1	5	1	n/a	n/a	n/a	n/a	n/a
3905734	RECOG_RESP	n/a	LTP238	ltpFR	1	8	0	BOYFRIEND	162	1	n/a	1	n/a	n/a	n/a	n/a	n/a
3907379	RECOG_CONF	n/a	LTP238	ltpFR	1	8	0	BOYFRIEND	162	n/a	5	1	n/a	n/a	n/a	n/a	n/a
3909320	RECOG_TARGET	n/a	LTP238	ltpFR	1	8	1	SKUNK	1321	1	5	1	n/a	n/a	n/a	n/a	n/a
3910961	RECOG_RESP	n/a	LTP238	ltpFR	1	8	1	SKUNK	1321	1	n/a	1	n/a	n/a	n/a	n/a	n/a
3912641	RECOG_CONF	n/a	LTP238	ltpFR	1	8	1	SKUNK	1321	n/a	5	1	n/a	n/a	n/a	n/a	n/a
3914645	RECOG_TARGET	n/a	LTP238	ltpFR	1	8	1	MINK	897	1	3	n/a	n/a	n/a	n/a	n/a	n/a
3917511	RECOG_RESP	n/a	LTP238	ltpFR	1	8	1	MINK	897	1	n/a	n/a	n/a	n/a	n/a	n/a	n/a
3919006	RECOG_CONF	n/a	LTP238	ltpFR	1	8	1	MINK	897	n/a	3	n/a	n/a	n/a	n/a	n/a	n/a
3920886	RECOG_TARGET	n/a	LTP238	ltpFR	1	8	0	TANK	1432	1	5	1	n/a	n/a	n/a	n/a	n/a
3921651	RECOG_RESP	n/a	LTP238	ltpFR	1	8	0	TANK	1432	1	n/a	1	n/a	n/a	n/a	n/a	n/a
3923231	RECOG_CONF	n/a	LTP238	ltpFR	1	8	0	TANK	1432	n/a	5	1	n/a	n/a	n/a	n/a	n/a
3925013	RECOG_LURE	n/a	LTP238	ltpFR	1	8	n/a	DRAWING	494	1	2	n/a	n/a	n/a	n/a	n/a	n/a
3927375	RECOG_RESP	n/a	LTP238	ltpFR	1	8	n/a	DRAWING	494	1	n/a	n/a	n/a	n/a	n/a	n/a	n/a
3928885	RECOG_CONF	n/a	LTP238	ltpFR	1	8	n/a	DRAWING	494	n/a	2	n/a	n/a	n/a	n/a	n/a	n/a
3931104	RECOG_TARGET	n/a	LTP238	ltpFR	1	8	0	ARTICLE	42	1	5	0	n/a	n/a	n/a	n/a	n/a
3931982	RECOG_RESP	n/a	LTP238	ltpFR	1	8	0	ARTICLE	42	1	n/a	0	n/a	n/a	n/a	n/a	n/a
3933504	RECOG_CONF	n/a	LTP238	ltpFR	1	8	0	ARTICLE	42	n/a	5	0	n/a	n/a	n/a	n/a	n/a
3935381	RECOG_TARGET	n/a	LTP238	ltpFR	1	8	0	BINDER	127	1	5	0	n/a	n/a	n/a	n/a	n/a
3936292	RECOG_RESP	n/a	LTP238	ltpFR	1	8	0	BINDER	127	1	n/a	0	n/a	n/a	n/a	n/a	n/a
3938194	RECOG_CONF	n/a	LTP238	ltpFR	1	8	0	BINDER	127	n/a	5	0	n/a	n/a	n/a	n/a	n/a
3940191	RECOG_TARGET	n/a	LTP238	ltpFR	1	8	-1	WHISTLE	1606	1	5	-1	n/a	n/a	n/a	n/a	n/a
3942341	RECOG_RESP	n/a	LTP238	ltpFR	1	8	-1	WHISTLE	1606	1	n/a	-1	n/a	n/a	n/a	n/a	n/a
3944088	RECOG_CONF	n/a	LTP238	ltpFR	1	8	-1	WHISTLE	1606	n/a	5	-1	n/a	n/a	n/a	n/a	n/a
3964819	REC_START	n/a	LTP238	ltpFR	1	9	n/a	n/a	n/a	n/a	n/a	n/a	n/a	n/a	n/a	n/a	n/a
3964854	RECOG_LURE	n/a	LTP238	ltpFR	1	9	n/a	KETTLE	772	0	3	n/a	n/a	n/a	n/a	n/a	n/a
3966455	RECOG_RESP	n/a	LTP238	ltpFR	1	9	n/a	KETTLE	772	0	n/a	n/a	n/a	n/a	n/a	n/a	n/a
3967754	RECOG_CONF	n/a	LTP238	ltpFR	1	9	n/a	KETTLE	772	n/a	3	n/a	n/a	n/a	n/a	n/a	n/a
3969647	RECOG_TARGET	n/a	LTP238	ltpFR	1	9	0	MOON	914	1	5	1	n/a	n/a	n/a	n/a	n/a
3970340	RECOG_RESP	n/a	LTP238	ltpFR	1	9	0	MOON	914	1	n/a	1	n/a	n/a	n/a	n/a	n/a
3971842	RECOG_CONF	n/a	LTP238	ltpFR	1	9	0	MOON	914	n/a	5	1	n/a	n/a	n/a	n/a	n/a
3973907	RECOG_TARGET	n/a	LTP238	ltpFR	1	9	-1	LUMBER	848	1	5	-1	n/a	n/a	n/a	n/a	n/a
3974805	RECOG_RESP	n/a	LTP238	ltpFR	1	9	-1	LUMBER	848	1	n/a	-1	n/a	n/a	n/a	n/a	n/a
3976369	RECOG_CONF	n/a	LTP238	ltpFR	1	9	-1	LUMBER	848	n/a	5	-1	n/a	n/a	n/a	n/a	n/a
3978234	RECOG_TARGET	n/a	LTP238	ltpFR	1	9	-1	HARP	689	1	5	-1	n/a	n/a	n/a	n/a	n/a
3979073	RECOG_RESP	n/a	LTP238	ltpFR	1	9	-1	HARP	689	1	n/a	-1	n/a	n/a	n/a	n/a	n/a
3980486	RECOG_CONF	n/a	LTP238	ltpFR	1	9	-1	HARP	689	n/a	5	-1	n/a	n/a	n/a	n/a	n/a
3982478	RECOG_TARGET	n/a	LTP238	ltpFR	1	9	-1	VIOLIN	1571	1	5	-1	n/a	n/a	n/a	n/a	n/a
3983180	RECOG_RESP	n/a	LTP238	ltpFR	1	9	-1	VIOLIN	1571	1	n/a	-1	n/a	n/a	n/a	n/a	n/a
3984769	RECOG_CONF	n/a	LTP238	ltpFR	1	9	-1	VIOLIN	1571	n/a	5	-1	n/a	n/a	n/a	n/a	n/a
3986788	RECOG_LURE	n/a	LTP238	ltpFR	1	9	n/a	PUBLICATION	1136	0	5	n/a	n/a	n/a	n/a	n/a	n/a
3987966	RECOG_RESP	n/a	LTP238	ltpFR	1	9	n/a	PUBLICATION	1136	0	n/a	n/a	n/a	n/a	n/a	n/a	n/a
3989291	RECOG_CONF	n/a	LTP238	ltpFR	1	9	n/a	PUBLICATION	1136	n/a	5	n/a	n/a	n/a	n/a	n/a	n/a
3991198	RECOG_TARGET	n/a	LTP238	ltpFR	1	9	1	CAPTAIN	239	1	5	1	n/a	n/a	n/a	n/a	n/a
3991872	RECOG_RESP	n/a	LTP238	ltpFR	1	9	1	CAPTAIN	239	1	n/a	1	n/a	n/a	n/a	n/a	n/a
3993399	RECOG_CONF	n/a	LTP238	ltpFR	1	9	1	CAPTAIN	239	n/a	5	1	n/a	n/a	n/a	n/a	n/a
3995042	RECOG_TARGET	n/a	LTP238	ltpFR	1	9	-1	ATTIC	56	1	5	-1	n/a	n/a	n/a	n/a	n/a
3995790	RECOG_RESP	n/a	LTP238	ltpFR	1	9	-1	ATTIC	56	1	n/a	-1	n/a	n/a	n/a	n/a	n/a
3997301	RECOG_CONF	n/a	LTP238	ltpFR	1	9	-1	ATTIC	56	n/a	5	-1	n/a	n/a	n/a	n/a	n/a
3999186	RECOG_TARGET	n/a	LTP238	ltpFR	1	9	1	COUCH	386	1	5	0	n/a	n/a	n/a	n/a	n/a
3999956	RECOG_RESP	n/a	LTP238	ltpFR	1	9	1	COUCH	386	1	n/a	0	n/a	n/a	n/a	n/a	n/a
4001461	RECOG_CONF	n/a	LTP238	ltpFR	1	9	1	COUCH	386	n/a	5	0	n/a	n/a	n/a	n/a	n/a
4003514	RECOG_TARGET	n/a	LTP238	ltpFR	1	9	1	FISH	571	1	4	1	n/a	n/a	n/a	n/a	n/a
4004628	RECOG_RESP	n/a	LTP238	ltpFR	1	9	1	FISH	571	1	n/a	1	n/a	n/a	n/a	n/a	n/a
4006209	RECOG_CONF	n/a	LTP238	ltpFR	1	9	1	FISH	571	n/a	4	1	n/a	n/a	n/a	n/a	n/a
4007939	RECOG_TARGET	n/a	LTP238	ltpFR	1	9	1	MOTEL	919	1	5	0	n/a	n/a	n/a	n/a	n/a
4008786	RECOG_RESP	n/a	LTP238	ltpFR	1	9	1	MOTEL	919	1	n/a	0	n/a	n/a	n/a	n/a	n/a
4010294	RECOG_CONF	n/a	LTP238	ltpFR	1	9	1	MOTEL	919	n/a	5	0	n/a	n/a	n/a	n/a	n/a
4012083	RECOG_LURE	n/a	LTP238	ltpFR	1	9	n/a	INFANT	737	0	3	n/a	n/a	n/a	n/a	n/a	n/a
4013787	RECOG_RESP	n/a	LTP238	ltpFR	1	9	n/a	INFANT	737	0	n/a	n/a	n/a	n/a	n/a	n/a	n/a
4015668	RECOG_CONF	n/a	LTP238	ltpFR	1	9	n/a	INFANT	737	n/a	3	n/a	n/a	n/a	n/a	n/a	n/a
4017292	RECOG_LURE	n/a	LTP238	ltpFR	1	9	n/a	GLASS	639	1	3	n/a	n/a	n/a	n/a	n/a	n/a
4019389	RECOG_RESP	n/a	LTP238	ltpFR	1	9	n/a	GLASS	639	1	n/a	n/a	n/a	n/a	n/a	n/a	n/a
4021370	RECOG_CONF	n/a	LTP238	ltpFR	1	9	n/a	GLASS	639	n/a	3	n/a	n/a	n/a	n/a	n/a	n/a
4023167	RECOG_TARGET	n/a	LTP238	ltpFR	1	9	0	QUEEN	1149	1	5	1	n/a	n/a	n/a	n/a	n/a
4024099	RECOG_RESP	n/a	LTP238	ltpFR	1	9	0	QUEEN	1149	1	n/a	1	n/a	n/a	n/a	n/a	n/a
4025785	RECOG_CONF	n/a	LTP238	ltpFR	1	9	0	QUEEN	1149	n/a	5	1	n/a	n/a	n/a	n/a	n/a
4027478	RECOG_LURE	n/a	LTP238	ltpFR	1	9	n/a	ROAD	1196	0	2	n/a	n/a	n/a	n/a	n/a	n/a
4029067	RECOG_RESP	n/a	LTP238	ltpFR	1	9	n/a	ROAD	1196	0	n/a	n/a	n/a	n/a	n/a	n/a	n/a
4033140	RECOG_CONF	n/a	LTP238	ltpFR	1	9	n/a	ROAD	1196	n/a	2	n/a	n/a	n/a	n/a	n/a	n/a
4034949	RECOG_TARGET	n/a	LTP238	ltpFR	1	9	0	CRITIC	410	1	2	1	n/a	n/a	n/a	n/a	n/a
4036829	RECOG_RESP	n/a	LTP238	ltpFR	1	9	0	CRITIC	410	1	n/a	1	n/a	n/a	n/a	n/a	n/a
4038429	RECOG_CONF	n/a	LTP238	ltpFR	1	9	0	CRITIC	410	n/a	2	1	n/a	n/a	n/a	n/a	n/a
4040175	RECOG_TARGET	n/a	LTP238	ltpFR	1	9	0	JUG	762	1	5	n/a	n/a	n/a	n/a	n/a	n/a
4040931	RECOG_RESP	n/a	LTP238	ltpFR	1	9	0	JUG	762	1	n/a	n/a	n/a	n/a	n/a	n/a	n/a
4042528	RECOG_CONF	n/a	LTP238	ltpFR	1	9	0	JUG	762	n/a	5	n/a	n/a	n/a	n/a	n/a	n/a
4044536	RECOG_TARGET	n/a	LTP238	ltpFR	1	9	-1	DRIVER	499	1	5	-1	n/a	n/a	n/a	n/a	n/a
4045819	RECOG_RESP	n/a	LTP238	ltpFR	1	9	-1	DRIVER	499	1	n/a	-1	n/a	n/a	n/a	n/a	n/a
4047541	RECOG_CONF	n/a	LTP238	ltpFR	1	9	-1	DRIVER	499	n/a	5	-1	n/a	n/a	n/a	n/a	n/a
4049394	RECOG_LURE	n/a	LTP238	ltpFR	1	9	n/a	CHERRY	293	0	4	n/a	n/a	n/a	n/a	n/a	n/a
4052080	RECOG_RESP	n/a	LTP238	ltpFR	1	9	n/a	CHERRY	293	0	n/a	n/a	n/a	n/a	n/a	n/a	n/a
4053313	RECOG_CONF	n/a	LTP238	ltpFR	1	9	n/a	CHERRY	293	n/a	4	n/a	n/a	n/a	n/a	n/a	n/a
4055453	RECOG_TARGET	n/a	LTP238	ltpFR	1	9	1	STUMP	1396	1	5	0	n/a	n/a	n/a	n/a	n/a
4056452	RECOG_RESP	n/a	LTP238	ltpFR	1	9	1	STUMP	1396	1	n/a	0	n/a	n/a	n/a	n/a	n/a
4058327	RECOG_CONF	n/a	LTP238	ltpFR	1	9	1	STUMP	1396	n/a	5	0	n/a	n/a	n/a	n/a	n/a
4069823	REC_START	n/a	LTP238	ltpFR	1	10	n/a	n/a	n/a	n/a	n/a	n/a	n/a	n/a	n/a	n/a	n/a
4069864	RECOG_TARGET	n/a	LTP238	ltpFR	1	10	0	FIDDLE	561	0	3	0	n/a	n/a	n/a	n/a	n/a
4071956	RECOG_RESP	n/a	LTP238	ltpFR	1	10	0	FIDDLE	561	0	n/a	0	n/a	n/a	n/a	n/a	n/a
4073467	RECOG_CONF	n/a	LTP238	ltpFR	1	10	0	FIDDLE	561	n/a	3	0	n/a	n/a	n/a	n/a	n/a
4075206	RECOG_TARGET	n/a	LTP238	ltpFR	1	10	1	PUB	1135	1	5	0	n/a	n/a	n/a	n/a	n/a
4076233	RECOG_RESP	n/a	LTP238	ltpFR	1	10	1	PUB	1135	1	n/a	0	n/a	n/a	n/a	n/a	n/a
4078089	RECOG_CONF	n/a	LTP238	ltpFR	1	10	1	PUB	1135	n/a	5	0	n/a	n/a	n/a	n/a	n/a
4080131	RECOG_TARGET	n/a	LTP238	ltpFR	1	10	-1	LID	817	1	5	-1	n/a	n/a	n/a	n/a	n/a
4083122	RECOG_RESP	n/a	LTP238	ltpFR	1	10	-1	LID	817	1	n/a	-1	n/a	n/a	n/a	n/a	n/a
4084779	RECOG_CONF	n/a	LTP238	ltpFR	1	10	-1	LID	817	n/a	5	-1	n/a	n/a	n/a	n/a	n/a
4086838	RECOG_TARGET	n/a	LTP238	ltpFR	1	10	-1	LIMB	822	0	4	-1	n/a	n/a	n/a	n/a	n/a
4089037	RECOG_RESP	n/a	LTP238	ltpFR	1	10	-1	LIMB	822	0	n/a	-1	n/a	n/a	n/a	n/a	n/a
4090395	RECOG_CONF	n/a	LTP238	ltpFR	1	10	-1	LIMB	822	n/a	4	-1	n/a	n/a	n/a	n/a	n/a
4092263	RECOG_TARGET	n/a	LTP238	ltpFR	1	10	-1	PRESIDENT	1121	1	5	-1	n/a	n/a	n/a	n/a	n/a
4093009	RECOG_RESP	n/a	LTP238	ltpFR	1	10	-1	PRESIDENT	1121	1	n/a	-1	n/a	n/a	n/a	n/a	n/a
4094464	RECOG_CONF	n/a	LTP238	ltpFR	1	10	-1	PRESIDENT	1121	n/a	5	-1	n/a	n/a	n/a	n/a	n/a
4096324	RECOG_TARGET	n/a	LTP238	ltpFR	1	10	0	CHEESE	289	1	5	0	n/a	n/a	n/a	n/a	n/a
4097238	RECOG_RESP	n/a	LTP238	ltpFR	1	10	0	CHEESE	289	1	n/a	0	n/a	n/a	n/a	n/a	n/a
4098939	RECOG_CONF	n/a	LTP238	ltpFR	1	10	0	CHEESE	289	n/a	5	0	n/a	n/a	n/a	n/a	n/a
