mstime	trial_type	stim_file	subject	experiment	session	trial	task	item_name	item_num	recog_conf	resp	answer	test_x	test_y	test_z	color_b	color_g	color_r	case	font
0	SESS_START	n/a	LTP263	ltpFR	14	n/a	n/a	n/a	n/a	n/a	n/a	n/a	0	0	0	n/a	n/a	n/a	n/a	n/a
12115	START	n/a	LTP263	ltpFR	14	n/a	n/a	n/a	n/a	n/a	n/a	n/a	n/a	n/a	n/a	n/a	n/a	n/a	n/a	n/a
12148	PROB	n/a	LTP263	ltpFR	14	n/a	n/a	n/a	n/a	n/a	n/a	25	6	7	9	n/a	n/a	n/a	n/a	n/a
14444	PROB	n/a	LTP263	ltpFR	14	n/a	n/a	n/a	n/a	n/a	n/a	14	4	3	7	n/a	n/a	n/a	n/a	n/a
15591	PROB	n/a	LTP263	ltpFR	14	n/a	n/a	n/a	n/a	n/a	n/a	19	8	7	4	n/a	n/a	n/a	n/a	n/a
18422	PROB	n/a	LTP263	ltpFR	14	n/a	n/a	n/a	n/a	n/a	n/a	7	1	5	1	n/a	n/a	n/a	n/a	n/a
19569	PROB	n/a	LTP263	ltpFR	14	n/a	n/a	n/a	n/a	n/a	n/a	15	9	1	5	n/a	n/a	n/a	n/a	n/a
21549	PROB	n/a	LTP263	ltpFR	14	n/a	n/a	n/a	n/a	n/a	n/a	19	4	7	8	n/a	n/a	n/a	n/a	n/a
23513	PROB	n/a	LTP263	ltpFR	14	n/a	n/a	n/a	n/a	n/a	n/a	8	1	4	3	n/a	n/a	n/a	n/a	n/a
24912	PROB	n/a	LTP263	ltpFR	14	n/a	n/a	n/a	n/a	n/a	n/a	14	1	4	9	n/a	n/a	n/a	n/a	n/a
26792	PROB	n/a	LTP263	ltpFR	14	n/a	n/a	n/a	n/a	n/a	n/a	15	6	5	3	n/a	n/a	n/a	n/a	n/a
28522	PROB	n/a	LTP263	ltpFR	14	n/a	n/a	n/a	n/a	n/a	n/a	19	6	6	8	n/a	n/a	n/a	n/a	n/a
30137	PROB	n/a	LTP263	ltpFR	14	n/a	n/a	n/a	n/a	n/a	n/a	19	4	6	9	n/a	n/a	n/a	n/a	n/a
31604	STOP	n/a	LTP263	ltpFR	14	n/a	n/a	n/a	n/a	n/a	n/a	n/a	n/a	n/a	n/a	n/a	n/a	n/a	n/a	n/a
45132	WORD	wordpools/wasnorm_wordpool_less_exclusions.txt	LTP263	ltpFR	14	1	0	FARM	552	n/a	1	n/a	0	0	0	0	0.5869140625	0.422607421875	lower	../fonts/amplitud.ttf
49342	WORD	wordpools/wasnorm_wordpool_less_exclusions.txt	LTP263	ltpFR	14	1	0	CORAL	378	n/a	1	n/a	0	0	0	0	0.5869140625	0.422607421875	lower	../fonts/amplitud.ttf
53452	WORD	wordpools/wasnorm_wordpool_less_exclusions.txt	LTP263	ltpFR	14	1	0	OUTFIT	988	n/a	0	n/a	0	0	0	0	0.5869140625	0.422607421875	lower	../fonts/amplitud.ttf
57645	WORD	wordpools/wasnorm_wordpool_less_exclusions.txt	LTP263	ltpFR	14	1	0	MOAT	903	n/a	1	n/a	0	0	0	0	0.5869140625	0.422607421875	lower	../fonts/amplitud.ttf
61790	WORD	wordpools/wasnorm_wordpool_less_exclusions.txt	LTP263	ltpFR	14	1	0	BLANKET	135	n/a	0	n/a	0	0	0	0	0.5869140625	0.422607421875	lower	../fonts/amplitud.ttf
65667	WORD	wordpools/wasnorm_wordpool_less_exclusions.txt	LTP263	ltpFR	14	1	1	WALNUT	1584	n/a	0	n/a	0	0	0	1	0.412841796875	0.57763671875	upper	../fonts/zerothre.ttf
69644	WORD	wordpools/wasnorm_wordpool_less_exclusions.txt	LTP263	ltpFR	14	1	1	MONKEY	911	n/a	1	n/a	0	0	0	1	0.412841796875	0.57763671875	upper	../fonts/zerothre.ttf
73772	WORD	wordpools/wasnorm_wordpool_less_exclusions.txt	LTP263	ltpFR	14	1	1	ATTIC	56	n/a	0	n/a	0	0	0	1	0.412841796875	0.57763671875	upper	../fonts/zerothre.ttf
77632	WORD	wordpools/wasnorm_wordpool_less_exclusions.txt	LTP263	ltpFR	14	1	1	HOME	712	n/a	0	n/a	0	0	0	1	0.412841796875	0.57763671875	upper	../fonts/zerothre.ttf
81543	WORD	wordpools/wasnorm_wordpool_less_exclusions.txt	LTP263	ltpFR	14	1	0	SHRUB	1299	n/a	1	n/a	0	0	0	0	0.5869140625	0.422607421875	lower	../fonts/amplitud.ttf
85470	WORD	wordpools/wasnorm_wordpool_less_exclusions.txt	LTP263	ltpFR	14	1	0	CHIMPANZEE	302	n/a	1	n/a	0	0	0	0	0.5869140625	0.422607421875	lower	../fonts/amplitud.ttf
89316	WORD	wordpools/wasnorm_wordpool_less_exclusions.txt	LTP263	ltpFR	14	1	0	ROOT	1210	n/a	0	n/a	0	0	0	0	0.5869140625	0.422607421875	lower	../fonts/amplitud.ttf
93160	WORD	wordpools/wasnorm_wordpool_less_exclusions.txt	LTP263	ltpFR	14	1	1	TWIG	1527	n/a	0	n/a	0	0	0	1	0.412841796875	0.57763671875	upper	../fonts/zerothre.ttf
97004	WORD	wordpools/wasnorm_wordpool_less_exclusions.txt	LTP263	ltpFR	14	1	1	FISH	571	n/a	1	n/a	0	0	0	1	0.412841796875	0.57763671875	upper	../fonts/zerothre.ttf
100998	WORD	wordpools/wasnorm_wordpool_less_exclusions.txt	LTP263	ltpFR	14	1	1	CUPBOARD	425	n/a	0	n/a	0	0	0	1	0.412841796875	0.57763671875	upper	../fonts/zerothre.ttf
104826	WORD	wordpools/wasnorm_wordpool_less_exclusions.txt	LTP263	ltpFR	14	1	1	SHOWER	1296	n/a	0	n/a	0	0	0	1	0.412841796875	0.57763671875	upper	../fonts/zerothre.ttf
107838	START	n/a	LTP263	ltpFR	14	n/a	n/a	n/a	n/a	n/a	n/a	n/a	n/a	n/a	n/a	n/a	n/a	n/a	n/a	n/a
108787	PROB	n/a	LTP263	ltpFR	14	n/a	n/a	n/a	n/a	n/a	n/a	14	5	3	6	n/a	n/a	n/a	n/a	n/a
112181	PROB	n/a	LTP263	ltpFR	14	n/a	n/a	n/a	n/a	n/a	n/a	18	6	5	7	n/a	n/a	n/a	n/a	n/a
113862	PROB	n/a	LTP263	ltpFR	14	n/a	n/a	n/a	n/a	n/a	n/a	26	9	8	9	n/a	n/a	n/a	n/a	n/a
115261	STOP	n/a	LTP263	ltpFR	14	n/a	n/a	n/a	n/a	n/a	n/a	n/a	n/a	n/a	n/a	n/a	n/a	n/a	n/a	n/a
117774	REC_START	n/a	LTP263	ltpFR	14	1	n/a	n/a	n/a	n/a	n/a	n/a	0	0	0	n/a	n/a	n/a	n/a	n/a
119110	REC_WORD	wordpools/wasnorm_wordpool_less_exclusions.txt	LTP263	ltpFR	14	1	0	FARM	552	n/a	1	n/a	0	0	0	n/a	n/a	n/a	n/a	n/a
120158	REC_WORD	wordpools/wasnorm_wordpool_less_exclusions.txt	LTP263	ltpFR	14	1	0	CORAL	378	n/a	1	n/a	0	0	0	n/a	n/a	n/a	n/a	n/a
121279	REC_WORD	wordpools/wasnorm_wordpool_less_exclusions.txt	LTP263	ltpFR	14	1	0	OUTFIT	988	n/a	0	n/a	0	0	0	n/a	n/a	n/a	n/a	n/a
122774	REC_WORD	wordpools/wasnorm_wordpool_less_exclusions.txt	LTP263	ltpFR	14	1	0	BLANKET	135	n/a	0	n/a	0	0	0	n/a	n/a	n/a	n/a	n/a
124234	REC_WORD	wordpools/wasnorm_wordpool_less_exclusions.txt	LTP263	ltpFR	14	1	1	MONKEY	911	n/a	1	n/a	0	0	0	n/a	n/a	n/a	n/a	n/a
125295	REC_WORD	wordpools/wasnorm_wordpool_less_exclusions.txt	LTP263	ltpFR	14	1	0	CHIMPANZEE	302	n/a	1	n/a	0	0	0	n/a	n/a	n/a	n/a	n/a
126798	REC_WORD	wordpools/wasnorm_wordpool_less_exclusions.txt	LTP263	ltpFR	14	1	1	ATTIC	56	n/a	0	n/a	0	0	0	n/a	n/a	n/a	n/a	n/a
127874	REC_WORD	wordpools/wasnorm_wordpool_less_exclusions.txt	LTP263	ltpFR	14	1	0	SHRUB	1299	n/a	1	n/a	0	0	0	n/a	n/a	n/a	n/a	n/a
129189	REC_WORD	wordpools/wasnorm_wordpool_less_exclusions.txt	LTP263	ltpFR	14	1	0	ROOT	1210	n/a	0	n/a	0	0	0	n/a	n/a	n/a	n/a	n/a
130508	REC_WORD	wordpools/wasnorm_wordpool_less_exclusions.txt	LTP263	ltpFR	14	1	1	WALNUT	1584	n/a	0	n/a	0	0	0	n/a	n/a	n/a	n/a	n/a
140534	REC_WORD	wordpools/wasnorm_wordpool_less_exclusions.txt	LTP263	ltpFR	14	1	1	CUPBOARD	425	n/a	0	n/a	0	0	0	n/a	n/a	n/a	n/a	n/a
193727	START	n/a	LTP263	ltpFR	14	n/a	n/a	n/a	n/a	n/a	n/a	n/a	n/a	n/a	n/a	n/a	n/a	n/a	n/a	n/a
195241	PROB	n/a	LTP263	ltpFR	14	n/a	n/a	n/a	n/a	n/a	n/a	21	9	4	8	n/a	n/a	n/a	n/a	n/a
197021	PROB	n/a	LTP263	ltpFR	14	n/a	n/a	n/a	n/a	n/a	n/a	23	8	8	7	n/a	n/a	n/a	n/a	n/a
199035	PROB	n/a	LTP263	ltpFR	14	n/a	n/a	n/a	n/a	n/a	n/a	13	5	1	7	n/a	n/a	n/a	n/a	n/a
200229	STOP	n/a	LTP263	ltpFR	14	n/a	n/a	n/a	n/a	n/a	n/a	n/a	n/a	n/a	n/a	n/a	n/a	n/a	n/a	n/a
202763	WORD	wordpools/wasnorm_wordpool_less_exclusions.txt	LTP263	ltpFR	14	2	1	FLIPPER	580	n/a	0	n/a	0	0	0	1	0.412841796875	0.57763671875	upper	../fonts/zerothre.ttf
205775	START	n/a	LTP263	ltpFR	14	n/a	n/a	n/a	n/a	n/a	n/a	n/a	n/a	n/a	n/a	n/a	n/a	n/a	n/a	n/a
206840	PROB	n/a	LTP263	ltpFR	14	n/a	n/a	n/a	n/a	n/a	n/a	8	1	2	5	n/a	n/a	n/a	n/a	n/a
208072	PROB	n/a	LTP263	ltpFR	14	n/a	n/a	n/a	n/a	n/a	n/a	18	7	2	9	n/a	n/a	n/a	n/a	n/a
209386	PROB	n/a	LTP263	ltpFR	14	n/a	n/a	n/a	n/a	n/a	n/a	18	6	3	9	n/a	n/a	n/a	n/a	n/a
210683	PROB	n/a	LTP263	ltpFR	14	n/a	n/a	n/a	n/a	n/a	n/a	13	3	5	5	n/a	n/a	n/a	n/a	n/a
211966	PROB	n/a	LTP263	ltpFR	14	n/a	n/a	n/a	n/a	n/a	n/a	14	3	6	5	n/a	n/a	n/a	n/a	n/a
213165	STOP	n/a	LTP263	ltpFR	14	n/a	n/a	n/a	n/a	n/a	n/a	n/a	n/a	n/a	n/a	n/a	n/a	n/a	n/a	n/a
214845	WORD	wordpools/wasnorm_wordpool_less_exclusions.txt	LTP263	ltpFR	14	2	1	COD	340	n/a	1	n/a	0	0	0	1	0.412841796875	0.57763671875	upper	../fonts/zerothre.ttf
217858	START	n/a	LTP263	ltpFR	14	n/a	n/a	n/a	n/a	n/a	n/a	n/a	n/a	n/a	n/a	n/a	n/a	n/a	n/a	n/a
219039	PROB	n/a	LTP263	ltpFR	14	n/a	n/a	n/a	n/a	n/a	n/a	11	7	1	3	n/a	n/a	n/a	n/a	n/a
220287	PROB	n/a	LTP263	ltpFR	14	n/a	n/a	n/a	n/a	n/a	n/a	15	1	7	7	n/a	n/a	n/a	n/a	n/a
221235	PROB	n/a	LTP263	ltpFR	14	n/a	n/a	n/a	n/a	n/a	n/a	10	2	6	2	n/a	n/a	n/a	n/a	n/a
222983	PROB	n/a	LTP263	ltpFR	14	n/a	n/a	n/a	n/a	n/a	n/a	18	7	6	5	n/a	n/a	n/a	n/a	n/a
224620	STOP	n/a	LTP263	ltpFR	14	n/a	n/a	n/a	n/a	n/a	n/a	n/a	n/a	n/a	n/a	n/a	n/a	n/a	n/a	n/a
226977	WORD	wordpools/wasnorm_wordpool_less_exclusions.txt	LTP263	ltpFR	14	2	1	SHARK	1275	n/a	1	n/a	0	0	0	1	0.412841796875	0.57763671875	upper	../fonts/zerothre.ttf
229989	START	n/a	LTP263	ltpFR	14	n/a	n/a	n/a	n/a	n/a	n/a	n/a	n/a	n/a	n/a	n/a	n/a	n/a	n/a	n/a
231087	PROB	n/a	LTP263	ltpFR	14	n/a	n/a	n/a	n/a	n/a	n/a	13	4	5	4	n/a	n/a	n/a	n/a	n/a
234915	PROB	n/a	LTP263	ltpFR	14	n/a	n/a	n/a	n/a	n/a	n/a	26	9	9	8	n/a	n/a	n/a	n/a	n/a
236429	PROB	n/a	LTP263	ltpFR	14	n/a	n/a	n/a	n/a	n/a	n/a	12	1	8	3	n/a	n/a	n/a	n/a	n/a
237749	STOP	n/a	LTP263	ltpFR	14	n/a	n/a	n/a	n/a	n/a	n/a	n/a	n/a	n/a	n/a	n/a	n/a	n/a	n/a	n/a
238992	WORD	wordpools/wasnorm_wordpool_less_exclusions.txt	LTP263	ltpFR	14	2	1	WAITER	1580	n/a	1	n/a	0	0	0	1	0.412841796875	0.57763671875	upper	../fonts/zerothre.ttf
242005	START	n/a	LTP263	ltpFR	14	n/a	n/a	n/a	n/a	n/a	n/a	n/a	n/a	n/a	n/a	n/a	n/a	n/a	n/a	n/a
243103	PROB	n/a	LTP263	ltpFR	14	n/a	n/a	n/a	n/a	n/a	n/a	20	6	7	7	n/a	n/a	n/a	n/a	n/a
245765	PROB	n/a	LTP263	ltpFR	14	n/a	n/a	n/a	n/a	n/a	n/a	18	6	2	9	n/a	n/a	n/a	n/a	n/a
248178	PROB	n/a	LTP263	ltpFR	14	n/a	n/a	n/a	n/a	n/a	n/a	16	5	3	8	n/a	n/a	n/a	n/a	n/a
249773	STOP	n/a	LTP263	ltpFR	14	n/a	n/a	n/a	n/a	n/a	n/a	n/a	n/a	n/a	n/a	n/a	n/a	n/a	n/a	n/a
251174	WORD	wordpools/wasnorm_wordpool_less_exclusions.txt	LTP263	ltpFR	14	2	1	RESTAURANT	1187	n/a	0	n/a	0	0	0	1	0.412841796875	0.57763671875	upper	../fonts/zerothre.ttf
254187	START	n/a	LTP263	ltpFR	14	n/a	n/a	n/a	n/a	n/a	n/a	n/a	n/a	n/a	n/a	n/a	n/a	n/a	n/a	n/a
255218	PROB	n/a	LTP263	ltpFR	14	n/a	n/a	n/a	n/a	n/a	n/a	18	9	8	1	n/a	n/a	n/a	n/a	n/a
256433	PROB	n/a	LTP263	ltpFR	14	n/a	n/a	n/a	n/a	n/a	n/a	11	4	1	6	n/a	n/a	n/a	n/a	n/a
257947	PROB	n/a	LTP263	ltpFR	14	n/a	n/a	n/a	n/a	n/a	n/a	13	2	5	6	n/a	n/a	n/a	n/a	n/a
260244	PROB	n/a	LTP263	ltpFR	14	n/a	n/a	n/a	n/a	n/a	n/a	14	1	8	5	n/a	n/a	n/a	n/a	n/a
261349	STOP	n/a	LTP263	ltpFR	14	n/a	n/a	n/a	n/a	n/a	n/a	n/a	n/a	n/a	n/a	n/a	n/a	n/a	n/a	n/a
263256	WORD	wordpools/wasnorm_wordpool_less_exclusions.txt	LTP263	ltpFR	14	2	1	SEAFOOD	1260	n/a	0	n/a	0	0	0	1	0.412841796875	0.57763671875	upper	../fonts/zerothre.ttf
266269	START	n/a	LTP263	ltpFR	14	n/a	n/a	n/a	n/a	n/a	n/a	n/a	n/a	n/a	n/a	n/a	n/a	n/a	n/a	n/a
267450	PROB	n/a	LTP263	ltpFR	14	n/a	n/a	n/a	n/a	n/a	n/a	18	2	9	7	n/a	n/a	n/a	n/a	n/a
268881	PROB	n/a	LTP263	ltpFR	14	n/a	n/a	n/a	n/a	n/a	n/a	20	9	5	6	n/a	n/a	n/a	n/a	n/a
270728	PROB	n/a	LTP263	ltpFR	14	n/a	n/a	n/a	n/a	n/a	n/a	17	8	6	3	n/a	n/a	n/a	n/a	n/a
272742	PROB	n/a	LTP263	ltpFR	14	n/a	n/a	n/a	n/a	n/a	n/a	13	6	2	5	n/a	n/a	n/a	n/a	n/a
274085	STOP	n/a	LTP263	ltpFR	14	n/a	n/a	n/a	n/a	n/a	n/a	n/a	n/a	n/a	n/a	n/a	n/a	n/a	n/a	n/a
275305	WORD	wordpools/wasnorm_wordpool_less_exclusions.txt	LTP263	ltpFR	14	2	1	SCREW	1254	n/a	0	n/a	0	0	0	1	0.412841796875	0.57763671875	upper	../fonts/zerothre.ttf
278317	START	n/a	LTP263	ltpFR	14	n/a	n/a	n/a	n/a	n/a	n/a	n/a	n/a	n/a	n/a	n/a	n/a	n/a	n/a	n/a
279448	PROB	n/a	LTP263	ltpFR	14	n/a	n/a	n/a	n/a	n/a	n/a	13	1	9	3	n/a	n/a	n/a	n/a	n/a
281262	PROB	n/a	LTP263	ltpFR	14	n/a	n/a	n/a	n/a	n/a	n/a	23	6	8	9	n/a	n/a	n/a	n/a	n/a
283060	PROB	n/a	LTP263	ltpFR	14	n/a	n/a	n/a	n/a	n/a	n/a	19	8	3	8	n/a	n/a	n/a	n/a	n/a
285468	STOP	n/a	LTP263	ltpFR	14	n/a	n/a	n/a	n/a	n/a	n/a	n/a	n/a	n/a	n/a	n/a	n/a	n/a	n/a	n/a
287270	WORD	wordpools/wasnorm_wordpool_less_exclusions.txt	LTP263	ltpFR	14	2	1	WORKER	1621	n/a	1	n/a	0	0	0	1	0.412841796875	0.57763671875	upper	../fonts/zerothre.ttf
290283	START	n/a	LTP263	ltpFR	14	n/a	n/a	n/a	n/a	n/a	n/a	n/a	n/a	n/a	n/a	n/a	n/a	n/a	n/a	n/a
291264	PROB	n/a	LTP263	ltpFR	14	n/a	n/a	n/a	n/a	n/a	n/a	13	8	3	2	n/a	n/a	n/a	n/a	n/a
292661	PROB	n/a	LTP263	ltpFR	14	n/a	n/a	n/a	n/a	n/a	n/a	15	1	7	7	n/a	n/a	n/a	n/a	n/a
293610	PROB	n/a	LTP263	ltpFR	14	n/a	n/a	n/a	n/a	n/a	n/a	16	8	3	5	n/a	n/a	n/a	n/a	n/a
295341	PROB	n/a	LTP263	ltpFR	14	n/a	n/a	n/a	n/a	n/a	n/a	17	9	7	1	n/a	n/a	n/a	n/a	n/a
296588	PROB	n/a	LTP263	ltpFR	14	n/a	n/a	n/a	n/a	n/a	n/a	19	9	6	4	n/a	n/a	n/a	n/a	n/a
297733	STOP	n/a	LTP263	ltpFR	14	n/a	n/a	n/a	n/a	n/a	n/a	n/a	n/a	n/a	n/a	n/a	n/a	n/a	n/a	n/a
299252	WORD	wordpools/wasnorm_wordpool_less_exclusions.txt	LTP263	ltpFR	14	2	1	SURF	1412	n/a	0	n/a	0	0	0	1	0.412841796875	0.57763671875	upper	../fonts/zerothre.ttf
302265	START	n/a	LTP263	ltpFR	14	n/a	n/a	n/a	n/a	n/a	n/a	n/a	n/a	n/a	n/a	n/a	n/a	n/a	n/a	n/a
303379	PROB	n/a	LTP263	ltpFR	14	n/a	n/a	n/a	n/a	n/a	n/a	12	7	1	4	n/a	n/a	n/a	n/a	n/a
305360	PROB	n/a	LTP263	ltpFR	14	n/a	n/a	n/a	n/a	n/a	n/a	22	9	7	6	n/a	n/a	n/a	n/a	n/a
307007	PROB	n/a	LTP263	ltpFR	14	n/a	n/a	n/a	n/a	n/a	n/a	13	5	7	1	n/a	n/a	n/a	n/a	n/a
308089	PROB	n/a	LTP263	ltpFR	14	n/a	n/a	n/a	n/a	n/a	n/a	12	1	4	8	n/a	n/a	n/a	n/a	n/a
309500	STOP	n/a	LTP263	ltpFR	14	n/a	n/a	n/a	n/a	n/a	n/a	n/a	n/a	n/a	n/a	n/a	n/a	n/a	n/a	n/a
311483	WORD	wordpools/wasnorm_wordpool_less_exclusions.txt	LTP263	ltpFR	14	2	1	BLOSSOM	138	n/a	0	n/a	0	0	0	1	0.412841796875	0.57763671875	upper	../fonts/zerothre.ttf
314495	START	n/a	LTP263	ltpFR	14	n/a	n/a	n/a	n/a	n/a	n/a	n/a	n/a	n/a	n/a	n/a	n/a	n/a	n/a	n/a
315411	PROB	n/a	LTP263	ltpFR	14	n/a	n/a	n/a	n/a	n/a	n/a	16	5	3	8	n/a	n/a	n/a	n/a	n/a
316743	PROB	n/a	LTP263	ltpFR	14	n/a	n/a	n/a	n/a	n/a	n/a	14	6	2	6	n/a	n/a	n/a	n/a	n/a
318174	PROB	n/a	LTP263	ltpFR	14	n/a	n/a	n/a	n/a	n/a	n/a	21	9	4	8	n/a	n/a	n/a	n/a	n/a
319938	PROB	n/a	LTP263	ltpFR	14	n/a	n/a	n/a	n/a	n/a	n/a	16	8	2	6	n/a	n/a	n/a	n/a	n/a
321909	STOP	n/a	LTP263	ltpFR	14	n/a	n/a	n/a	n/a	n/a	n/a	n/a	n/a	n/a	n/a	n/a	n/a	n/a	n/a	n/a
323433	WORD	wordpools/wasnorm_wordpool_less_exclusions.txt	LTP263	ltpFR	14	2	1	APPENDAGE	32	n/a	0	n/a	0	0	0	1	0.412841796875	0.57763671875	upper	../fonts/zerothre.ttf
326445	START	n/a	LTP263	ltpFR	14	n/a	n/a	n/a	n/a	n/a	n/a	n/a	n/a	n/a	n/a	n/a	n/a	n/a	n/a	n/a
327310	PROB	n/a	LTP263	ltpFR	14	n/a	n/a	n/a	n/a	n/a	n/a	13	2	8	3	n/a	n/a	n/a	n/a	n/a
328674	PROB	n/a	LTP263	ltpFR	14	n/a	n/a	n/a	n/a	n/a	n/a	15	3	9	3	n/a	n/a	n/a	n/a	n/a
330189	PROB	n/a	LTP263	ltpFR	14	n/a	n/a	n/a	n/a	n/a	n/a	17	8	6	3	n/a	n/a	n/a	n/a	n/a
332086	PROB	n/a	LTP263	ltpFR	14	n/a	n/a	n/a	n/a	n/a	n/a	16	8	7	2	n/a	n/a	n/a	n/a	n/a
334149	STOP	n/a	LTP263	ltpFR	14	n/a	n/a	n/a	n/a	n/a	n/a	n/a	n/a	n/a	n/a	n/a	n/a	n/a	n/a	n/a
335613	WORD	wordpools/wasnorm_wordpool_less_exclusions.txt	LTP263	ltpFR	14	2	1	VALVE	1546	n/a	0	n/a	0	0	0	1	0.412841796875	0.57763671875	upper	../fonts/zerothre.ttf
338626	START	n/a	LTP263	ltpFR	14	n/a	n/a	n/a	n/a	n/a	n/a	n/a	n/a	n/a	n/a	n/a	n/a	n/a	n/a	n/a
339725	PROB	n/a	LTP263	ltpFR	14	n/a	n/a	n/a	n/a	n/a	n/a	15	5	9	1	n/a	n/a	n/a	n/a	n/a
340907	PROB	n/a	LTP263	ltpFR	14	n/a	n/a	n/a	n/a	n/a	n/a	16	2	9	5	n/a	n/a	n/a	n/a	n/a
342754	PROB	n/a	LTP263	ltpFR	14	n/a	n/a	n/a	n/a	n/a	n/a	23	8	9	6	n/a	n/a	n/a	n/a	n/a
343952	PROB	n/a	LTP263	ltpFR	14	n/a	n/a	n/a	n/a	n/a	n/a	14	9	4	1	n/a	n/a	n/a	n/a	n/a
345100	PROB	n/a	LTP263	ltpFR	14	n/a	n/a	n/a	n/a	n/a	n/a	26	6	9	9	n/a	n/a	n/a	n/a	n/a
346373	STOP	n/a	LTP263	ltpFR	14	n/a	n/a	n/a	n/a	n/a	n/a	n/a	n/a	n/a	n/a	n/a	n/a	n/a	n/a	n/a
347813	WORD	wordpools/wasnorm_wordpool_less_exclusions.txt	LTP263	ltpFR	14	2	1	PORCH	1106	n/a	0	n/a	0	0	0	1	0.412841796875	0.57763671875	upper	../fonts/zerothre.ttf
350825	START	n/a	LTP263	ltpFR	14	n/a	n/a	n/a	n/a	n/a	n/a	n/a	n/a	n/a	n/a	n/a	n/a	n/a	n/a	n/a
351740	PROB	n/a	LTP263	ltpFR	14	n/a	n/a	n/a	n/a	n/a	n/a	25	9	8	8	n/a	n/a	n/a	n/a	n/a
354936	PROB	n/a	LTP263	ltpFR	14	n/a	n/a	n/a	n/a	n/a	n/a	10	1	3	6	n/a	n/a	n/a	n/a	n/a
356284	PROB	n/a	LTP263	ltpFR	14	n/a	n/a	n/a	n/a	n/a	n/a	14	4	8	2	n/a	n/a	n/a	n/a	n/a
357508	STOP	n/a	LTP263	ltpFR	14	n/a	n/a	n/a	n/a	n/a	n/a	n/a	n/a	n/a	n/a	n/a	n/a	n/a	n/a	n/a
359845	WORD	wordpools/wasnorm_wordpool_less_exclusions.txt	LTP263	ltpFR	14	2	1	CARPENTER	246	n/a	0	n/a	0	0	0	1	0.412841796875	0.57763671875	upper	../fonts/zerothre.ttf
362858	START	n/a	LTP263	ltpFR	14	n/a	n/a	n/a	n/a	n/a	n/a	n/a	n/a	n/a	n/a	n/a	n/a	n/a	n/a	n/a
363722	PROB	n/a	LTP263	ltpFR	14	n/a	n/a	n/a	n/a	n/a	n/a	6	2	2	2	n/a	n/a	n/a	n/a	n/a
364653	PROB	n/a	LTP263	ltpFR	14	n/a	n/a	n/a	n/a	n/a	n/a	9	3	5	1	n/a	n/a	n/a	n/a	n/a
366102	PROB	n/a	LTP263	ltpFR	14	n/a	n/a	n/a	n/a	n/a	n/a	18	5	5	8	n/a	n/a	n/a	n/a	n/a
367251	PROB	n/a	LTP263	ltpFR	14	n/a	n/a	n/a	n/a	n/a	n/a	12	7	3	2	n/a	n/a	n/a	n/a	n/a
368449	PROB	n/a	LTP263	ltpFR	14	n/a	n/a	n/a	n/a	n/a	n/a	15	8	1	6	n/a	n/a	n/a	n/a	n/a
369668	STOP	n/a	LTP263	ltpFR	14	n/a	n/a	n/a	n/a	n/a	n/a	n/a	n/a	n/a	n/a	n/a	n/a	n/a	n/a	n/a
371676	WORD	wordpools/wasnorm_wordpool_less_exclusions.txt	LTP263	ltpFR	14	2	1	VASE	1549	n/a	0	n/a	0	0	0	1	0.412841796875	0.57763671875	upper	../fonts/zerothre.ttf
374689	START	n/a	LTP263	ltpFR	14	n/a	n/a	n/a	n/a	n/a	n/a	n/a	n/a	n/a	n/a	n/a	n/a	n/a	n/a	n/a
375520	PROB	n/a	LTP263	ltpFR	14	n/a	n/a	n/a	n/a	n/a	n/a	18	4	6	8	n/a	n/a	n/a	n/a	n/a
377003	PROB	n/a	LTP263	ltpFR	14	n/a	n/a	n/a	n/a	n/a	n/a	11	3	7	1	n/a	n/a	n/a	n/a	n/a
378201	PROB	n/a	LTP263	ltpFR	14	n/a	n/a	n/a	n/a	n/a	n/a	18	7	6	5	n/a	n/a	n/a	n/a	n/a
379848	PROB	n/a	LTP263	ltpFR	14	n/a	n/a	n/a	n/a	n/a	n/a	15	1	8	6	n/a	n/a	n/a	n/a	n/a
381484	STOP	n/a	LTP263	ltpFR	14	n/a	n/a	n/a	n/a	n/a	n/a	n/a	n/a	n/a	n/a	n/a	n/a	n/a	n/a	n/a
383675	WORD	wordpools/wasnorm_wordpool_less_exclusions.txt	LTP263	ltpFR	14	2	1	ARTIST	43	n/a	1	n/a	0	0	0	1	0.412841796875	0.57763671875	upper	../fonts/zerothre.ttf
386687	START	n/a	LTP263	ltpFR	14	n/a	n/a	n/a	n/a	n/a	n/a	n/a	n/a	n/a	n/a	n/a	n/a	n/a	n/a	n/a
387836	PROB	n/a	LTP263	ltpFR	14	n/a	n/a	n/a	n/a	n/a	n/a	11	4	6	1	n/a	n/a	n/a	n/a	n/a
388951	PROB	n/a	LTP263	ltpFR	14	n/a	n/a	n/a	n/a	n/a	n/a	25	9	8	8	n/a	n/a	n/a	n/a	n/a
392363	PROB	n/a	LTP263	ltpFR	14	n/a	n/a	n/a	n/a	n/a	n/a	14	8	1	5	n/a	n/a	n/a	n/a	n/a
393741	STOP	n/a	LTP263	ltpFR	14	n/a	n/a	n/a	n/a	n/a	n/a	n/a	n/a	n/a	n/a	n/a	n/a	n/a	n/a	n/a
396573	REC_START	n/a	LTP263	ltpFR	14	2	n/a	n/a	n/a	n/a	n/a	n/a	0	0	0	n/a	n/a	n/a	n/a	n/a
397765	REC_WORD_VV	wordpools/wasnorm_wordpool_less_exclusions.txt	LTP263	ltpFR	14	2	n/a	<>	-1	n/a	n/a	n/a	0	0	0	n/a	n/a	n/a	n/a	n/a
398349	REC_WORD	wordpools/wasnorm_wordpool_less_exclusions.txt	LTP263	ltpFR	14	2	1	FLIPPER	580	n/a	0	n/a	0	0	0	n/a	n/a	n/a	n/a	n/a
399448	REC_WORD	wordpools/wasnorm_wordpool_less_exclusions.txt	LTP263	ltpFR	14	2	1	COD	340	n/a	1	n/a	0	0	0	n/a	n/a	n/a	n/a	n/a
400997	REC_WORD	wordpools/wasnorm_wordpool_less_exclusions.txt	LTP263	ltpFR	14	2	1	SHARK	1275	n/a	1	n/a	0	0	0	n/a	n/a	n/a	n/a	n/a
402450	REC_WORD	wordpools/wasnorm_wordpool_less_exclusions.txt	LTP263	ltpFR	14	2	1	RESTAURANT	1187	n/a	0	n/a	0	0	0	n/a	n/a	n/a	n/a	n/a
415132	REC_WORD	wordpools/wasnorm_wordpool_less_exclusions.txt	LTP263	ltpFR	14	2	1	CARPENTER	246	n/a	0	n/a	0	0	0	n/a	n/a	n/a	n/a	n/a
424918	REC_WORD	wordpools/wasnorm_wordpool_less_exclusions.txt	LTP263	ltpFR	14	2	1	SEAFOOD	1260	n/a	0	n/a	0	0	0	n/a	n/a	n/a	n/a	n/a
474207	WORD	wordpools/wasnorm_wordpool_less_exclusions.txt	LTP263	ltpFR	14	3	0	POPCORN	1104	n/a	0	n/a	0	0	0	0	0.5869140625	0.422607421875	lower	../fonts/amplitud.ttf
478335	WORD	wordpools/wasnorm_wordpool_less_exclusions.txt	LTP263	ltpFR	14	3	0	SCREEN	1253	n/a	1	n/a	0	0	0	0	0.5869140625	0.422607421875	lower	../fonts/amplitud.ttf
482279	WORD	wordpools/wasnorm_wordpool_less_exclusions.txt	LTP263	ltpFR	14	3	0	DAM	436	n/a	1	n/a	0	0	0	0	0.5869140625	0.422607421875	lower	../fonts/amplitud.ttf
486472	WORD	wordpools/wasnorm_wordpool_less_exclusions.txt	LTP263	ltpFR	14	3	0	FREEZER	604	n/a	0	n/a	0	0	0	0	0.5869140625	0.422607421875	lower	../fonts/amplitud.ttf
490549	WORD	wordpools/wasnorm_wordpool_less_exclusions.txt	LTP263	ltpFR	14	3	0	SNACK	1331	n/a	0	n/a	0	0	0	0	0.5869140625	0.422607421875	lower	../fonts/amplitud.ttf
494493	WORD	wordpools/wasnorm_wordpool_less_exclusions.txt	LTP263	ltpFR	14	3	0	DUST	508	n/a	0	n/a	0	0	0	0	0.5869140625	0.422607421875	lower	../fonts/amplitud.ttf
498653	WORD	wordpools/wasnorm_wordpool_less_exclusions.txt	LTP263	ltpFR	14	3	0	CHAMPION	279	n/a	1	n/a	0	0	0	0	0.5869140625	0.422607421875	lower	../fonts/amplitud.ttf
502865	WORD	wordpools/wasnorm_wordpool_less_exclusions.txt	LTP263	ltpFR	14	3	0	PUMPKIN	1142	n/a	1	n/a	0	0	0	0	0.5869140625	0.422607421875	lower	../fonts/amplitud.ttf
506859	WORD	wordpools/wasnorm_wordpool_less_exclusions.txt	LTP263	ltpFR	14	3	0	BANANA	77	n/a	0	n/a	0	0	0	0	0.5869140625	0.422607421875	lower	../fonts/amplitud.ttf
510736	WORD	wordpools/wasnorm_wordpool_less_exclusions.txt	LTP263	ltpFR	14	3	0	DUCK	504	n/a	0	n/a	0	0	0	0	0.5869140625	0.422607421875	lower	../fonts/amplitud.ttf
514596	WORD	wordpools/wasnorm_wordpool_less_exclusions.txt	LTP263	ltpFR	14	3	0	ENGINE	535	n/a	1	n/a	0	0	0	0	0.5869140625	0.422607421875	lower	../fonts/amplitud.ttf
518640	WORD	wordpools/wasnorm_wordpool_less_exclusions.txt	LTP263	ltpFR	14	3	0	GRILL	661	n/a	1	n/a	0	0	0	0	0.5869140625	0.422607421875	lower	../fonts/amplitud.ttf
522684	WORD	wordpools/wasnorm_wordpool_less_exclusions.txt	LTP263	ltpFR	14	3	0	CAFETERIA	217	n/a	1	n/a	0	0	0	0	0.5869140625	0.422607421875	lower	../fonts/amplitud.ttf
526846	WORD	wordpools/wasnorm_wordpool_less_exclusions.txt	LTP263	ltpFR	14	3	0	CANAL	226	n/a	1	n/a	0	0	0	0	0.5869140625	0.422607421875	lower	../fonts/amplitud.ttf
530956	WORD	wordpools/wasnorm_wordpool_less_exclusions.txt	LTP263	ltpFR	14	3	0	GROCERIES	663	n/a	1	n/a	0	0	0	0	0.5869140625	0.422607421875	lower	../fonts/amplitud.ttf
534800	WORD	wordpools/wasnorm_wordpool_less_exclusions.txt	LTP263	ltpFR	14	3	0	WICK	1607	n/a	0	n/a	0	0	0	0	0.5869140625	0.422607421875	lower	../fonts/amplitud.ttf
540726	REC_START	n/a	LTP263	ltpFR	14	3	n/a	n/a	n/a	n/a	n/a	n/a	0	0	0	n/a	n/a	n/a	n/a	n/a
541884	REC_WORD	wordpools/wasnorm_wordpool_less_exclusions.txt	LTP263	ltpFR	14	3	0	CANAL	226	n/a	1	n/a	0	0	0	n/a	n/a	n/a	n/a	n/a
542757	REC_WORD	wordpools/wasnorm_wordpool_less_exclusions.txt	LTP263	ltpFR	14	3	0	GROCERIES	663	n/a	1	n/a	0	0	0	n/a	n/a	n/a	n/a	n/a
543915	REC_WORD	wordpools/wasnorm_wordpool_less_exclusions.txt	LTP263	ltpFR	14	3	0	WICK	1607	n/a	0	n/a	0	0	0	n/a	n/a	n/a	n/a	n/a
547062	REC_WORD	wordpools/wasnorm_wordpool_less_exclusions.txt	LTP263	ltpFR	14	3	0	POPCORN	1104	n/a	0	n/a	0	0	0	n/a	n/a	n/a	n/a	n/a
548057	REC_WORD	wordpools/wasnorm_wordpool_less_exclusions.txt	LTP263	ltpFR	14	3	0	SCREEN	1253	n/a	1	n/a	0	0	0	n/a	n/a	n/a	n/a	n/a
552041	REC_WORD	wordpools/wasnorm_wordpool_less_exclusions.txt	LTP263	ltpFR	14	3	0	ENGINE	535	n/a	1	n/a	0	0	0	n/a	n/a	n/a	n/a	n/a
553070	REC_WORD	wordpools/wasnorm_wordpool_less_exclusions.txt	LTP263	ltpFR	14	3	0	DUCK	504	n/a	0	n/a	0	0	0	n/a	n/a	n/a	n/a	n/a
553902	REC_WORD	wordpools/wasnorm_wordpool_less_exclusions.txt	LTP263	ltpFR	14	3	0	BANANA	77	n/a	0	n/a	0	0	0	n/a	n/a	n/a	n/a	n/a
554909	REC_WORD	wordpools/wasnorm_wordpool_less_exclusions.txt	LTP263	ltpFR	14	3	0	PUMPKIN	1142	n/a	1	n/a	0	0	0	n/a	n/a	n/a	n/a	n/a
564624	REC_WORD	wordpools/wasnorm_wordpool_less_exclusions.txt	LTP263	ltpFR	14	3	0	DAM	436	n/a	1	n/a	0	0	0	n/a	n/a	n/a	n/a	n/a
572280	REC_WORD	wordpools/wasnorm_wordpool_less_exclusions.txt	LTP263	ltpFR	14	3	0	WICK	1607	n/a	0	n/a	0	0	0	n/a	n/a	n/a	n/a	n/a
618326	WORD	wordpools/wasnorm_wordpool_less_exclusions.txt	LTP263	ltpFR	14	4	0	SCAPEGOAT	1244	n/a	1	n/a	0	0	0	0	0.5869140625	0.422607421875	lower	../fonts/amplitud.ttf
622452	WORD	wordpools/wasnorm_wordpool_less_exclusions.txt	LTP263	ltpFR	14	4	0	ASTRONAUT	51	n/a	1	n/a	0	0	0	0	0.5869140625	0.422607421875	lower	../fonts/amplitud.ttf
626347	WORD	wordpools/wasnorm_wordpool_less_exclusions.txt	LTP263	ltpFR	14	4	1	MOSS	918	n/a	0	n/a	0	0	0	1	0.412841796875	0.57763671875	upper	../fonts/zerothre.ttf
630424	WORD	wordpools/wasnorm_wordpool_less_exclusions.txt	LTP263	ltpFR	14	4	1	ACORN	3	n/a	1	n/a	0	0	0	1	0.412841796875	0.57763671875	upper	../fonts/zerothre.ttf
634402	WORD	wordpools/wasnorm_wordpool_less_exclusions.txt	LTP263	ltpFR	14	4	0	FILM	565	n/a	0	n/a	0	0	0	0	0.5869140625	0.422607421875	lower	../fonts/amplitud.ttf
638312	WORD	wordpools/wasnorm_wordpool_less_exclusions.txt	LTP263	ltpFR	14	4	0	ZUCCHINI	1638	n/a	0	n/a	0	0	0	0	0.5869140625	0.422607421875	lower	../fonts/amplitud.ttf
642306	WORD	wordpools/wasnorm_wordpool_less_exclusions.txt	LTP263	ltpFR	14	4	1	SISTER	1312	n/a	1	n/a	0	0	0	1	0.412841796875	0.57763671875	upper	../fonts/zerothre.ttf
646184	WORD	wordpools/wasnorm_wordpool_less_exclusions.txt	LTP263	ltpFR	14	4	1	FEATHER	557	n/a	0	n/a	0	0	0	1	0.412841796875	0.57763671875	upper	../fonts/zerothre.ttf
650028	WORD	wordpools/wasnorm_wordpool_less_exclusions.txt	LTP263	ltpFR	14	4	1	BRANDY	169	n/a	0	n/a	0	0	0	1	0.412841796875	0.57763671875	upper	../fonts/zerothre.ttf
654139	WORD	wordpools/wasnorm_wordpool_less_exclusions.txt	LTP263	ltpFR	14	4	1	DEPUTY	450	n/a	1	n/a	0	0	0	1	0.412841796875	0.57763671875	upper	../fonts/zerothre.ttf
658183	WORD	wordpools/wasnorm_wordpool_less_exclusions.txt	LTP263	ltpFR	14	4	1	GUARD	667	n/a	0	n/a	0	0	0	1	0.412841796875	0.57763671875	upper	../fonts/zerothre.ttf
662010	WORD	wordpools/wasnorm_wordpool_less_exclusions.txt	LTP263	ltpFR	14	4	1	TOWEL	1489	n/a	0	n/a	0	0	0	1	0.412841796875	0.57763671875	upper	../fonts/zerothre.ttf
666021	WORD	wordpools/wasnorm_wordpool_less_exclusions.txt	LTP263	ltpFR	14	4	0	UMBRELLA	1534	n/a	0	n/a	0	0	0	0	0.5869140625	0.422607421875	lower	../fonts/amplitud.ttf
670198	WORD	wordpools/wasnorm_wordpool_less_exclusions.txt	LTP263	ltpFR	14	4	0	UNIVERSE	1540	n/a	1	n/a	0	0	0	0	0.5869140625	0.422607421875	lower	../fonts/amplitud.ttf
674259	WORD	wordpools/wasnorm_wordpool_less_exclusions.txt	LTP263	ltpFR	14	4	0	SEAGULL	1261	n/a	0	n/a	0	0	0	0	0.5869140625	0.422607421875	lower	../fonts/amplitud.ttf
678120	WORD	wordpools/wasnorm_wordpool_less_exclusions.txt	LTP263	ltpFR	14	4	0	SPY	1360	n/a	1	n/a	0	0	0	0	0.5869140625	0.422607421875	lower	../fonts/amplitud.ttf
681132	START	n/a	LTP263	ltpFR	14	n/a	n/a	n/a	n/a	n/a	n/a	n/a	n/a	n/a	n/a	n/a	n/a	n/a	n/a	n/a
681964	PROB	n/a	LTP263	ltpFR	14	n/a	n/a	n/a	n/a	n/a	n/a	15	5	5	5	n/a	n/a	n/a	n/a	n/a
683129	PROB	n/a	LTP263	ltpFR	14	n/a	n/a	n/a	n/a	n/a	n/a	7	5	1	1	n/a	n/a	n/a	n/a	n/a
684227	PROB	n/a	LTP263	ltpFR	14	n/a	n/a	n/a	n/a	n/a	n/a	8	3	3	2	n/a	n/a	n/a	n/a	n/a
685991	PROB	n/a	LTP263	ltpFR	14	n/a	n/a	n/a	n/a	n/a	n/a	23	8	9	6	n/a	n/a	n/a	n/a	n/a
687239	PROB	n/a	LTP263	ltpFR	14	n/a	n/a	n/a	n/a	n/a	n/a	16	8	1	7	n/a	n/a	n/a	n/a	n/a
688586	PROB	n/a	LTP263	ltpFR	14	n/a	n/a	n/a	n/a	n/a	n/a	16	8	3	5	n/a	n/a	n/a	n/a	n/a
691233	PROB	n/a	LTP263	ltpFR	14	n/a	n/a	n/a	n/a	n/a	n/a	9	7	1	1	n/a	n/a	n/a	n/a	n/a
692332	PROB	n/a	LTP263	ltpFR	14	n/a	n/a	n/a	n/a	n/a	n/a	15	1	5	9	n/a	n/a	n/a	n/a	n/a
693730	PROB	n/a	LTP263	ltpFR	14	n/a	n/a	n/a	n/a	n/a	n/a	18	6	8	4	n/a	n/a	n/a	n/a	n/a
696909	STOP	n/a	LTP263	ltpFR	14	n/a	n/a	n/a	n/a	n/a	n/a	n/a	n/a	n/a	n/a	n/a	n/a	n/a	n/a	n/a
699022	REC_START	n/a	LTP263	ltpFR	14	4	n/a	n/a	n/a	n/a	n/a	n/a	0	0	0	n/a	n/a	n/a	n/a	n/a
700232	REC_WORD	wordpools/wasnorm_wordpool_less_exclusions.txt	LTP263	ltpFR	14	4	0	SEAGULL	1261	n/a	0	n/a	0	0	0	n/a	n/a	n/a	n/a	n/a
702086	REC_WORD	wordpools/wasnorm_wordpool_less_exclusions.txt	LTP263	ltpFR	14	4	1	DEPUTY	450	n/a	1	n/a	0	0	0	n/a	n/a	n/a	n/a	n/a
703658	REC_WORD	wordpools/wasnorm_wordpool_less_exclusions.txt	LTP263	ltpFR	14	4	1	SISTER	1312	n/a	1	n/a	0	0	0	n/a	n/a	n/a	n/a	n/a
706136	REC_WORD	wordpools/wasnorm_wordpool_less_exclusions.txt	LTP263	ltpFR	14	4	1	FEATHER	557	n/a	0	n/a	0	0	0	n/a	n/a	n/a	n/a	n/a
710348	REC_WORD	wordpools/wasnorm_wordpool_less_exclusions.txt	LTP263	ltpFR	14	4	1	BRANDY	169	n/a	0	n/a	0	0	0	n/a	n/a	n/a	n/a	n/a
712920	REC_WORD	wordpools/wasnorm_wordpool_less_exclusions.txt	LTP263	ltpFR	14	4	0	UNIVERSE	1540	n/a	1	n/a	0	0	0	n/a	n/a	n/a	n/a	n/a
714388	REC_WORD	wordpools/wasnorm_wordpool_less_exclusions.txt	LTP263	ltpFR	14	4	0	UMBRELLA	1534	n/a	0	n/a	0	0	0	n/a	n/a	n/a	n/a	n/a
750757	REC_WORD	wordpools/wasnorm_wordpool_less_exclusions.txt	LTP263	ltpFR	14	4	0	ASTRONAUT	51	n/a	1	n/a	0	0	0	n/a	n/a	n/a	n/a	n/a
755359	REC_WORD	wordpools/wasnorm_wordpool_less_exclusions.txt	LTP263	ltpFR	14	4	1	CARPENTER	246	n/a	0	n/a	0	0	0	n/a	n/a	n/a	n/a	n/a
776572	WORD	wordpools/wasnorm_wordpool_less_exclusions.txt	LTP263	ltpFR	14	5	0	MAILBOX	857	n/a	0	n/a	0	0	0	0	0.5869140625	0.422607421875	lower	../fonts/amplitud.ttf
780566	WORD	wordpools/wasnorm_wordpool_less_exclusions.txt	LTP263	ltpFR	14	5	0	NOTE	958	n/a	0	n/a	0	0	0	0	0.5869140625	0.422607421875	lower	../fonts/amplitud.ttf
784777	WORD	wordpools/wasnorm_wordpool_less_exclusions.txt	LTP263	ltpFR	14	5	0	LUNCH	849	n/a	0	n/a	0	0	0	0	0.5869140625	0.422607421875	lower	../fonts/amplitud.ttf
788821	WORD	wordpools/wasnorm_wordpool_less_exclusions.txt	LTP263	ltpFR	14	5	0	MOWER	928	n/a	1	n/a	0	0	0	0	0.5869140625	0.422607421875	lower	../fonts/amplitud.ttf
792898	WORD	wordpools/wasnorm_wordpool_less_exclusions.txt	LTP263	ltpFR	14	5	0	DAISY	435	n/a	0	n/a	0	0	0	0	0.5869140625	0.422607421875	lower	../fonts/amplitud.ttf
796926	WORD	wordpools/wasnorm_wordpool_less_exclusions.txt	LTP263	ltpFR	14	5	0	TRAY	1498	n/a	1	n/a	0	0	0	0	0.5869140625	0.422607421875	lower	../fonts/amplitud.ttf
801003	WORD	wordpools/wasnorm_wordpool_less_exclusions.txt	LTP263	ltpFR	14	5	0	RADIO	1157	n/a	1	n/a	0	0	0	0	0.5869140625	0.422607421875	lower	../fonts/amplitud.ttf
805146	WORD	wordpools/wasnorm_wordpool_less_exclusions.txt	LTP263	ltpFR	14	5	0	CONDUCTOR	362	n/a	1	n/a	0	0	0	0	0.5869140625	0.422607421875	lower	../fonts/amplitud.ttf
809324	WORD	wordpools/wasnorm_wordpool_less_exclusions.txt	LTP263	ltpFR	14	5	0	LOCK	838	n/a	0	n/a	0	0	0	0	0.5869140625	0.422607421875	lower	../fonts/amplitud.ttf
813218	WORD	wordpools/wasnorm_wordpool_less_exclusions.txt	LTP263	ltpFR	14	5	0	CHEF	290	n/a	1	n/a	0	0	0	0	0.5869140625	0.422607421875	lower	../fonts/amplitud.ttf
817295	WORD	wordpools/wasnorm_wordpool_less_exclusions.txt	LTP263	ltpFR	14	5	0	DESIGNER	451	n/a	1	n/a	0	0	0	0	0.5869140625	0.422607421875	lower	../fonts/amplitud.ttf
821256	WORD	wordpools/wasnorm_wordpool_less_exclusions.txt	LTP263	ltpFR	14	5	0	TROUSERS	1510	n/a	0	n/a	0	0	0	0	0.5869140625	0.422607421875	lower	../fonts/amplitud.ttf
825465	WORD	wordpools/wasnorm_wordpool_less_exclusions.txt	LTP263	ltpFR	14	5	0	NOSE	957	n/a	0	n/a	0	0	0	0	0.5869140625	0.422607421875	lower	../fonts/amplitud.ttf
829559	WORD	wordpools/wasnorm_wordpool_less_exclusions.txt	LTP263	ltpFR	14	5	0	STOCKING	1383	n/a	0	n/a	0	0	0	0	0.5869140625	0.422607421875	lower	../fonts/amplitud.ttf
833603	WORD	wordpools/wasnorm_wordpool_less_exclusions.txt	LTP263	ltpFR	14	5	0	CRAB	397	n/a	0	n/a	0	0	0	0	0.5869140625	0.422607421875	lower	../fonts/amplitud.ttf
837831	WORD	wordpools/wasnorm_wordpool_less_exclusions.txt	LTP263	ltpFR	14	5	0	YARD	1630	n/a	1	n/a	0	0	0	0	0.5869140625	0.422607421875	lower	../fonts/amplitud.ttf
840843	START	n/a	LTP263	ltpFR	14	n/a	n/a	n/a	n/a	n/a	n/a	n/a	n/a	n/a	n/a	n/a	n/a	n/a	n/a	n/a
841958	PROB	n/a	LTP263	ltpFR	14	n/a	n/a	n/a	n/a	n/a	n/a	13	5	4	4	n/a	n/a	n/a	n/a	n/a
846252	PROB	n/a	LTP263	ltpFR	14	n/a	n/a	n/a	n/a	n/a	n/a	12	2	1	9	n/a	n/a	n/a	n/a	n/a
847628	STOP	n/a	LTP263	ltpFR	14	n/a	n/a	n/a	n/a	n/a	n/a	n/a	n/a	n/a	n/a	n/a	n/a	n/a	n/a	n/a
850661	REC_START	n/a	LTP263	ltpFR	14	5	n/a	n/a	n/a	n/a	n/a	n/a	0	0	0	n/a	n/a	n/a	n/a	n/a
851541	REC_WORD	wordpools/wasnorm_wordpool_less_exclusions.txt	LTP263	ltpFR	14	5	0	CRAB	397	n/a	0	n/a	0	0	0	n/a	n/a	n/a	n/a	n/a
852369	REC_WORD	wordpools/wasnorm_wordpool_less_exclusions.txt	LTP263	ltpFR	14	5	0	STOCKING	1383	n/a	0	n/a	0	0	0	n/a	n/a	n/a	n/a	n/a
854050	REC_WORD	wordpools/wasnorm_wordpool_less_exclusions.txt	LTP263	ltpFR	14	5	0	TROUSERS	1510	n/a	0	n/a	0	0	0	n/a	n/a	n/a	n/a	n/a
855647	REC_WORD	wordpools/wasnorm_wordpool_less_exclusions.txt	LTP263	ltpFR	14	5	0	MAILBOX	857	n/a	0	n/a	0	0	0	n/a	n/a	n/a	n/a	n/a
856595	REC_WORD	wordpools/wasnorm_wordpool_less_exclusions.txt	LTP263	ltpFR	14	5	0	NOTE	958	n/a	0	n/a	0	0	0	n/a	n/a	n/a	n/a	n/a
857523	REC_WORD	wordpools/wasnorm_wordpool_less_exclusions.txt	LTP263	ltpFR	14	5	0	LUNCH	849	n/a	0	n/a	0	0	0	n/a	n/a	n/a	n/a	n/a
858525	REC_WORD	wordpools/wasnorm_wordpool_less_exclusions.txt	LTP263	ltpFR	14	5	0	LOCK	838	n/a	0	n/a	0	0	0	n/a	n/a	n/a	n/a	n/a
860250	REC_WORD	wordpools/wasnorm_wordpool_less_exclusions.txt	LTP263	ltpFR	14	5	0	TRAY	1498	n/a	1	n/a	0	0	0	n/a	n/a	n/a	n/a	n/a
861155	REC_WORD	wordpools/wasnorm_wordpool_less_exclusions.txt	LTP263	ltpFR	14	5	0	MOWER	928	n/a	1	n/a	0	0	0	n/a	n/a	n/a	n/a	n/a
862018	REC_WORD	wordpools/wasnorm_wordpool_less_exclusions.txt	LTP263	ltpFR	14	5	0	DAISY	435	n/a	0	n/a	0	0	0	n/a	n/a	n/a	n/a	n/a
863507	REC_WORD	wordpools/wasnorm_wordpool_less_exclusions.txt	LTP263	ltpFR	14	5	0	RADIO	1157	n/a	1	n/a	0	0	0	n/a	n/a	n/a	n/a	n/a
864416	REC_WORD	wordpools/wasnorm_wordpool_less_exclusions.txt	LTP263	ltpFR	14	5	0	CONDUCTOR	362	n/a	1	n/a	0	0	0	n/a	n/a	n/a	n/a	n/a
865768	REC_WORD	wordpools/wasnorm_wordpool_less_exclusions.txt	LTP263	ltpFR	14	5	0	DESIGNER	451	n/a	1	n/a	0	0	0	n/a	n/a	n/a	n/a	n/a
872357	REC_WORD	wordpools/wasnorm_wordpool_less_exclusions.txt	LTP263	ltpFR	14	5	0	CHEF	290	n/a	1	n/a	0	0	0	n/a	n/a	n/a	n/a	n/a
927015	START	n/a	LTP263	ltpFR	14	n/a	n/a	n/a	n/a	n/a	n/a	n/a	n/a	n/a	n/a	n/a	n/a	n/a	n/a	n/a
928528	PROB	n/a	LTP263	ltpFR	14	n/a	n/a	n/a	n/a	n/a	n/a	12	5	4	3	n/a	n/a	n/a	n/a	n/a
931523	PROB	n/a	LTP263	ltpFR	14	n/a	n/a	n/a	n/a	n/a	n/a	12	3	2	6	n/a	n/a	n/a	n/a	n/a
933676	STOP	n/a	LTP263	ltpFR	14	n/a	n/a	n/a	n/a	n/a	n/a	n/a	n/a	n/a	n/a	n/a	n/a	n/a	n/a	n/a
936217	WORD	wordpools/wasnorm_wordpool_less_exclusions.txt	LTP263	ltpFR	14	6	0	MOON	914	n/a	1	n/a	0	0	0	0	0.5869140625	0.422607421875	lower	../fonts/amplitud.ttf
939230	START	n/a	LTP263	ltpFR	14	n/a	n/a	n/a	n/a	n/a	n/a	n/a	n/a	n/a	n/a	n/a	n/a	n/a	n/a	n/a
940295	PROB	n/a	LTP263	ltpFR	14	n/a	n/a	n/a	n/a	n/a	n/a	18	2	9	7	n/a	n/a	n/a	n/a	n/a
942758	PROB	n/a	LTP263	ltpFR	14	n/a	n/a	n/a	n/a	n/a	n/a	14	5	4	4	n/a	n/a	n/a	n/a	n/a
945137	PROB	n/a	LTP263	ltpFR	14	n/a	n/a	n/a	n/a	n/a	n/a	18	3	8	7	n/a	n/a	n/a	n/a	n/a
946717	STOP	n/a	LTP263	ltpFR	14	n/a	n/a	n/a	n/a	n/a	n/a	n/a	n/a	n/a	n/a	n/a	n/a	n/a	n/a	n/a
948266	WORD	wordpools/wasnorm_wordpool_less_exclusions.txt	LTP263	ltpFR	14	6	0	MAP	865	n/a	0	n/a	0	0	0	0	0.5869140625	0.422607421875	lower	../fonts/amplitud.ttf
951279	START	n/a	LTP263	ltpFR	14	n/a	n/a	n/a	n/a	n/a	n/a	n/a	n/a	n/a	n/a	n/a	n/a	n/a	n/a	n/a
952177	PROB	n/a	LTP263	ltpFR	14	n/a	n/a	n/a	n/a	n/a	n/a	8	3	3	2	n/a	n/a	n/a	n/a	n/a
953457	PROB	n/a	LTP263	ltpFR	14	n/a	n/a	n/a	n/a	n/a	n/a	16	5	8	3	n/a	n/a	n/a	n/a	n/a
955654	PROB	n/a	LTP263	ltpFR	14	n/a	n/a	n/a	n/a	n/a	n/a	23	7	8	8	n/a	n/a	n/a	n/a	n/a
959279	STOP	n/a	LTP263	ltpFR	14	n/a	n/a	n/a	n/a	n/a	n/a	n/a	n/a	n/a	n/a	n/a	n/a	n/a	n/a	n/a
960198	WORD	wordpools/wasnorm_wordpool_less_exclusions.txt	LTP263	ltpFR	14	6	0	CHICKEN	297	n/a	0	n/a	0	0	0	0	0.5869140625	0.422607421875	lower	../fonts/amplitud.ttf
963211	START	n/a	LTP263	ltpFR	14	n/a	n/a	n/a	n/a	n/a	n/a	n/a	n/a	n/a	n/a	n/a	n/a	n/a	n/a	n/a
964375	PROB	n/a	LTP263	ltpFR	14	n/a	n/a	n/a	n/a	n/a	n/a	14	7	4	3	n/a	n/a	n/a	n/a	n/a
965656	PROB	n/a	LTP263	ltpFR	14	n/a	n/a	n/a	n/a	n/a	n/a	15	2	4	9	n/a	n/a	n/a	n/a	n/a
967088	PROB	n/a	LTP263	ltpFR	14	n/a	n/a	n/a	n/a	n/a	n/a	11	2	8	1	n/a	n/a	n/a	n/a	n/a
971211	STOP	n/a	LTP263	ltpFR	14	n/a	n/a	n/a	n/a	n/a	n/a	n/a	n/a	n/a	n/a	n/a	n/a	n/a	n/a	n/a
972130	WORD	wordpools/wasnorm_wordpool_less_exclusions.txt	LTP263	ltpFR	14	6	0	FOLDER	588	n/a	0	n/a	0	0	0	0	0.5869140625	0.422607421875	lower	../fonts/amplitud.ttf
975143	START	n/a	LTP263	ltpFR	14	n/a	n/a	n/a	n/a	n/a	n/a	n/a	n/a	n/a	n/a	n/a	n/a	n/a	n/a	n/a
976174	PROB	n/a	LTP263	ltpFR	14	n/a	n/a	n/a	n/a	n/a	n/a	16	6	8	2	n/a	n/a	n/a	n/a	n/a
977555	PROB	n/a	LTP263	ltpFR	14	n/a	n/a	n/a	n/a	n/a	n/a	19	5	9	5	n/a	n/a	n/a	n/a	n/a
978987	PROB	n/a	LTP263	ltpFR	14	n/a	n/a	n/a	n/a	n/a	n/a	16	2	6	7	n/a	n/a	n/a	n/a	n/a
980700	PROB	n/a	LTP263	ltpFR	14	n/a	n/a	n/a	n/a	n/a	n/a	15	5	6	4	n/a	n/a	n/a	n/a	n/a
981861	STOP	n/a	LTP263	ltpFR	14	n/a	n/a	n/a	n/a	n/a	n/a	n/a	n/a	n/a	n/a	n/a	n/a	n/a	n/a	n/a
984162	WORD	wordpools/wasnorm_wordpool_less_exclusions.txt	LTP263	ltpFR	14	6	0	ANKLE	24	n/a	0	n/a	0	0	0	0	0.5869140625	0.422607421875	lower	../fonts/amplitud.ttf
987175	START	n/a	LTP263	ltpFR	14	n/a	n/a	n/a	n/a	n/a	n/a	n/a	n/a	n/a	n/a	n/a	n/a	n/a	n/a	n/a
988173	PROB	n/a	LTP263	ltpFR	14	n/a	n/a	n/a	n/a	n/a	n/a	24	6	9	9	n/a	n/a	n/a	n/a	n/a
990502	PROB	n/a	LTP263	ltpFR	14	n/a	n/a	n/a	n/a	n/a	n/a	17	4	8	5	n/a	n/a	n/a	n/a	n/a
993282	PROB	n/a	LTP263	ltpFR	14	n/a	n/a	n/a	n/a	n/a	n/a	12	2	3	7	n/a	n/a	n/a	n/a	n/a
994524	STOP	n/a	LTP263	ltpFR	14	n/a	n/a	n/a	n/a	n/a	n/a	n/a	n/a	n/a	n/a	n/a	n/a	n/a	n/a	n/a
996361	WORD	wordpools/wasnorm_wordpool_less_exclusions.txt	LTP263	ltpFR	14	6	0	DIAGRAM	456	n/a	0	n/a	0	0	0	0	0.5869140625	0.422607421875	lower	../fonts/amplitud.ttf
999374	START	n/a	LTP263	ltpFR	14	n/a	n/a	n/a	n/a	n/a	n/a	n/a	n/a	n/a	n/a	n/a	n/a	n/a	n/a	n/a
1000487	PROB	n/a	LTP263	ltpFR	14	n/a	n/a	n/a	n/a	n/a	n/a	11	2	7	2	n/a	n/a	n/a	n/a	n/a
1002186	PROB	n/a	LTP263	ltpFR	14	n/a	n/a	n/a	n/a	n/a	n/a	9	1	7	1	n/a	n/a	n/a	n/a	n/a
1003483	PROB	n/a	LTP263	ltpFR	14	n/a	n/a	n/a	n/a	n/a	n/a	12	9	2	1	n/a	n/a	n/a	n/a	n/a
1005364	PROB	n/a	LTP263	ltpFR	14	n/a	n/a	n/a	n/a	n/a	n/a	16	7	7	2	n/a	n/a	n/a	n/a	n/a
1006389	STOP	n/a	LTP263	ltpFR	14	n/a	n/a	n/a	n/a	n/a	n/a	n/a	n/a	n/a	n/a	n/a	n/a	n/a	n/a	n/a
1008343	WORD	wordpools/wasnorm_wordpool_less_exclusions.txt	LTP263	ltpFR	14	6	0	EAGLE	512	n/a	1	n/a	0	0	0	0	0.5869140625	0.422607421875	lower	../fonts/amplitud.ttf
1011356	START	n/a	LTP263	ltpFR	14	n/a	n/a	n/a	n/a	n/a	n/a	n/a	n/a	n/a	n/a	n/a	n/a	n/a	n/a	n/a
1012404	PROB	n/a	LTP263	ltpFR	14	n/a	n/a	n/a	n/a	n/a	n/a	10	7	2	1	n/a	n/a	n/a	n/a	n/a
1014035	PROB	n/a	LTP263	ltpFR	14	n/a	n/a	n/a	n/a	n/a	n/a	16	3	7	6	n/a	n/a	n/a	n/a	n/a
1015133	PROB	n/a	LTP263	ltpFR	14	n/a	n/a	n/a	n/a	n/a	n/a	9	2	1	6	n/a	n/a	n/a	n/a	n/a
1017080	PROB	n/a	LTP263	ltpFR	14	n/a	n/a	n/a	n/a	n/a	n/a	15	6	6	3	n/a	n/a	n/a	n/a	n/a
1018684	STOP	n/a	LTP263	ltpFR	14	n/a	n/a	n/a	n/a	n/a	n/a	n/a	n/a	n/a	n/a	n/a	n/a	n/a	n/a	n/a
1020524	WORD	wordpools/wasnorm_wordpool_less_exclusions.txt	LTP263	ltpFR	14	6	0	ROBIN	1199	n/a	0	n/a	0	0	0	0	0.5869140625	0.422607421875	lower	../fonts/amplitud.ttf
1023536	START	n/a	LTP263	ltpFR	14	n/a	n/a	n/a	n/a	n/a	n/a	n/a	n/a	n/a	n/a	n/a	n/a	n/a	n/a	n/a
1024668	PROB	n/a	LTP263	ltpFR	14	n/a	n/a	n/a	n/a	n/a	n/a	20	7	7	6	n/a	n/a	n/a	n/a	n/a
1026166	PROB	n/a	LTP263	ltpFR	14	n/a	n/a	n/a	n/a	n/a	n/a	18	2	7	9	n/a	n/a	n/a	n/a	n/a
1027497	PROB	n/a	LTP263	ltpFR	14	n/a	n/a	n/a	n/a	n/a	n/a	21	6	7	6	n/a	n/a	n/a	n/a	n/a
1029095	PROB	n/a	LTP263	ltpFR	14	n/a	n/a	n/a	n/a	n/a	n/a	20	8	8	4	n/a	n/a	n/a	n/a	n/a
1030269	STOP	n/a	LTP263	ltpFR	14	n/a	n/a	n/a	n/a	n/a	n/a	n/a	n/a	n/a	n/a	n/a	n/a	n/a	n/a	n/a
1032357	WORD	wordpools/wasnorm_wordpool_less_exclusions.txt	LTP263	ltpFR	14	6	0	LOFT	840	n/a	1	n/a	0	0	0	0	0.5869140625	0.422607421875	lower	../fonts/amplitud.ttf
1035370	START	n/a	LTP263	ltpFR	14	n/a	n/a	n/a	n/a	n/a	n/a	n/a	n/a	n/a	n/a	n/a	n/a	n/a	n/a	n/a
1036318	PROB	n/a	LTP263	ltpFR	14	n/a	n/a	n/a	n/a	n/a	n/a	17	6	5	6	n/a	n/a	n/a	n/a	n/a
1038348	PROB	n/a	LTP263	ltpFR	14	n/a	n/a	n/a	n/a	n/a	n/a	24	9	6	9	n/a	n/a	n/a	n/a	n/a
1040594	PROB	n/a	LTP263	ltpFR	14	n/a	n/a	n/a	n/a	n/a	n/a	15	3	6	5	n/a	n/a	n/a	n/a	n/a
1042717	STOP	n/a	LTP263	ltpFR	14	n/a	n/a	n/a	n/a	n/a	n/a	n/a	n/a	n/a	n/a	n/a	n/a	n/a	n/a	n/a
1044471	WORD	wordpools/wasnorm_wordpool_less_exclusions.txt	LTP263	ltpFR	14	6	0	LACE	792	n/a	0	n/a	0	0	0	0	0.5869140625	0.422607421875	lower	../fonts/amplitud.ttf
1047484	START	n/a	LTP263	ltpFR	14	n/a	n/a	n/a	n/a	n/a	n/a	n/a	n/a	n/a	n/a	n/a	n/a	n/a	n/a	n/a
1048565	PROB	n/a	LTP263	ltpFR	14	n/a	n/a	n/a	n/a	n/a	n/a	18	5	9	4	n/a	n/a	n/a	n/a	n/a
1050579	PROB	n/a	LTP263	ltpFR	14	n/a	n/a	n/a	n/a	n/a	n/a	14	5	5	4	n/a	n/a	n/a	n/a	n/a
1051712	PROB	n/a	LTP263	ltpFR	14	n/a	n/a	n/a	n/a	n/a	n/a	10	6	3	1	n/a	n/a	n/a	n/a	n/a
1055484	STOP	n/a	LTP263	ltpFR	14	n/a	n/a	n/a	n/a	n/a	n/a	n/a	n/a	n/a	n/a	n/a	n/a	n/a	n/a	n/a
1056453	WORD	wordpools/wasnorm_wordpool_less_exclusions.txt	LTP263	ltpFR	14	6	0	SHOELACE	1289	n/a	0	n/a	0	0	0	0	0.5869140625	0.422607421875	lower	../fonts/amplitud.ttf
1059466	START	n/a	LTP263	ltpFR	14	n/a	n/a	n/a	n/a	n/a	n/a	n/a	n/a	n/a	n/a	n/a	n/a	n/a	n/a	n/a
1060581	PROB	n/a	LTP263	ltpFR	14	n/a	n/a	n/a	n/a	n/a	n/a	15	3	8	4	n/a	n/a	n/a	n/a	n/a
1063244	PROB	n/a	LTP263	ltpFR	14	n/a	n/a	n/a	n/a	n/a	n/a	16	3	5	8	n/a	n/a	n/a	n/a	n/a
1064825	PROB	n/a	LTP263	ltpFR	14	n/a	n/a	n/a	n/a	n/a	n/a	16	1	7	8	n/a	n/a	n/a	n/a	n/a
1065940	PROB	n/a	LTP263	ltpFR	14	n/a	n/a	n/a	n/a	n/a	n/a	6	1	4	1	n/a	n/a	n/a	n/a	n/a
1066893	STOP	n/a	LTP263	ltpFR	14	n/a	n/a	n/a	n/a	n/a	n/a	n/a	n/a	n/a	n/a	n/a	n/a	n/a	n/a	n/a
1068552	WORD	wordpools/wasnorm_wordpool_less_exclusions.txt	LTP263	ltpFR	14	6	0	EGG	518	n/a	0	n/a	0	0	0	0	0.5869140625	0.422607421875	lower	../fonts/amplitud.ttf
1071565	START	n/a	LTP263	ltpFR	14	n/a	n/a	n/a	n/a	n/a	n/a	n/a	n/a	n/a	n/a	n/a	n/a	n/a	n/a	n/a
1072529	PROB	n/a	LTP263	ltpFR	14	n/a	n/a	n/a	n/a	n/a	n/a	18	6	5	7	n/a	n/a	n/a	n/a	n/a
1075110	PROB	n/a	LTP263	ltpFR	14	n/a	n/a	n/a	n/a	n/a	n/a	27	9	9	9	n/a	n/a	n/a	n/a	n/a
1076807	PROB	n/a	LTP263	ltpFR	14	n/a	n/a	n/a	n/a	n/a	n/a	13	7	4	1	n/a	n/a	n/a	n/a	n/a
1078524	STOP	n/a	LTP263	ltpFR	14	n/a	n/a	n/a	n/a	n/a	n/a	n/a	n/a	n/a	n/a	n/a	n/a	n/a	n/a	n/a
1080735	WORD	wordpools/wasnorm_wordpool_less_exclusions.txt	LTP263	ltpFR	14	6	0	VOLLEYBALL	1576	n/a	1	n/a	0	0	0	0	0.5869140625	0.422607421875	lower	../fonts/amplitud.ttf
1083748	START	n/a	LTP263	ltpFR	14	n/a	n/a	n/a	n/a	n/a	n/a	n/a	n/a	n/a	n/a	n/a	n/a	n/a	n/a	n/a
1084929	PROB	n/a	LTP263	ltpFR	14	n/a	n/a	n/a	n/a	n/a	n/a	18	3	6	9	n/a	n/a	n/a	n/a	n/a
1086492	PROB	n/a	LTP263	ltpFR	14	n/a	n/a	n/a	n/a	n/a	n/a	9	1	3	5	n/a	n/a	n/a	n/a	n/a
1088157	PROB	n/a	LTP263	ltpFR	14	n/a	n/a	n/a	n/a	n/a	n/a	8	1	1	6	n/a	n/a	n/a	n/a	n/a
1089454	PROB	n/a	LTP263	ltpFR	14	n/a	n/a	n/a	n/a	n/a	n/a	12	5	6	1	n/a	n/a	n/a	n/a	n/a
1090484	STOP	n/a	LTP263	ltpFR	14	n/a	n/a	n/a	n/a	n/a	n/a	n/a	n/a	n/a	n/a	n/a	n/a	n/a	n/a	n/a
1092616	WORD	wordpools/wasnorm_wordpool_less_exclusions.txt	LTP263	ltpFR	14	6	0	MERMAID	887	n/a	1	n/a	0	0	0	0	0.5869140625	0.422607421875	lower	../fonts/amplitud.ttf
1095629	START	n/a	LTP263	ltpFR	14	n/a	n/a	n/a	n/a	n/a	n/a	n/a	n/a	n/a	n/a	n/a	n/a	n/a	n/a	n/a
1096460	PROB	n/a	LTP263	ltpFR	14	n/a	n/a	n/a	n/a	n/a	n/a	11	6	3	2	n/a	n/a	n/a	n/a	n/a
1097743	PROB	n/a	LTP263	ltpFR	14	n/a	n/a	n/a	n/a	n/a	n/a	16	6	2	8	n/a	n/a	n/a	n/a	n/a
1099241	PROB	n/a	LTP263	ltpFR	14	n/a	n/a	n/a	n/a	n/a	n/a	10	1	1	8	n/a	n/a	n/a	n/a	n/a
1100554	PROB	n/a	LTP263	ltpFR	14	n/a	n/a	n/a	n/a	n/a	n/a	15	9	2	4	n/a	n/a	n/a	n/a	n/a
1101870	PROB	n/a	LTP263	ltpFR	14	n/a	n/a	n/a	n/a	n/a	n/a	13	8	1	4	n/a	n/a	n/a	n/a	n/a
1103005	STOP	n/a	LTP263	ltpFR	14	n/a	n/a	n/a	n/a	n/a	n/a	n/a	n/a	n/a	n/a	n/a	n/a	n/a	n/a	n/a
1104832	WORD	wordpools/wasnorm_wordpool_less_exclusions.txt	LTP263	ltpFR	14	6	0	SKETCH	1315	n/a	0	n/a	0	0	0	0	0.5869140625	0.422607421875	lower	../fonts/amplitud.ttf
1107845	START	n/a	LTP263	ltpFR	14	n/a	n/a	n/a	n/a	n/a	n/a	n/a	n/a	n/a	n/a	n/a	n/a	n/a	n/a	n/a
1109009	PROB	n/a	LTP263	ltpFR	14	n/a	n/a	n/a	n/a	n/a	n/a	17	8	4	5	n/a	n/a	n/a	n/a	n/a
1110873	PROB	n/a	LTP263	ltpFR	14	n/a	n/a	n/a	n/a	n/a	n/a	15	4	3	8	n/a	n/a	n/a	n/a	n/a
1114252	PROB	n/a	LTP263	ltpFR	14	n/a	n/a	n/a	n/a	n/a	n/a	19	9	3	7	n/a	n/a	n/a	n/a	n/a
1115749	STOP	n/a	LTP263	ltpFR	14	n/a	n/a	n/a	n/a	n/a	n/a	n/a	n/a	n/a	n/a	n/a	n/a	n/a	n/a	n/a
1116697	WORD	wordpools/wasnorm_wordpool_less_exclusions.txt	LTP263	ltpFR	14	6	0	PILOT	1070	n/a	1	n/a	0	0	0	0	0.5869140625	0.422607421875	lower	../fonts/amplitud.ttf
1119710	START	n/a	LTP263	ltpFR	14	n/a	n/a	n/a	n/a	n/a	n/a	n/a	n/a	n/a	n/a	n/a	n/a	n/a	n/a	n/a
1120742	PROB	n/a	LTP263	ltpFR	14	n/a	n/a	n/a	n/a	n/a	n/a	7	2	2	3	n/a	n/a	n/a	n/a	n/a
1122972	PROB	n/a	LTP263	ltpFR	14	n/a	n/a	n/a	n/a	n/a	n/a	10	3	4	3	n/a	n/a	n/a	n/a	n/a
1125252	PROB	n/a	LTP263	ltpFR	14	n/a	n/a	n/a	n/a	n/a	n/a	9	1	4	4	n/a	n/a	n/a	n/a	n/a
1126548	STOP	n/a	LTP263	ltpFR	14	n/a	n/a	n/a	n/a	n/a	n/a	n/a	n/a	n/a	n/a	n/a	n/a	n/a	n/a	n/a
1129478	REC_START	n/a	LTP263	ltpFR	14	6	n/a	n/a	n/a	n/a	n/a	n/a	0	0	0	n/a	n/a	n/a	n/a	n/a
1131074	REC_WORD	wordpools/wasnorm_wordpool_less_exclusions.txt	LTP263	ltpFR	14	6	0	ROBIN	1199	n/a	0	n/a	0	0	0	n/a	n/a	n/a	n/a	n/a
1205614	START	n/a	LTP263	ltpFR	14	n/a	n/a	n/a	n/a	n/a	n/a	n/a	n/a	n/a	n/a	n/a	n/a	n/a	n/a	n/a
1207129	PROB	n/a	LTP263	ltpFR	14	n/a	n/a	n/a	n/a	n/a	n/a	22	9	4	9	n/a	n/a	n/a	n/a	n/a
1209210	PROB	n/a	LTP263	ltpFR	14	n/a	n/a	n/a	n/a	n/a	n/a	19	6	6	7	n/a	n/a	n/a	n/a	n/a
1210590	PROB	n/a	LTP263	ltpFR	14	n/a	n/a	n/a	n/a	n/a	n/a	19	4	7	8	n/a	n/a	n/a	n/a	n/a
1212422	PROB	n/a	LTP263	ltpFR	14	n/a	n/a	n/a	n/a	n/a	n/a	10	8	1	1	n/a	n/a	n/a	n/a	n/a
1213486	PROB	n/a	LTP263	ltpFR	14	n/a	n/a	n/a	n/a	n/a	n/a	18	6	3	9	n/a	n/a	n/a	n/a	n/a
1214651	PROB	n/a	LTP263	ltpFR	14	n/a	n/a	n/a	n/a	n/a	n/a	14	1	9	4	n/a	n/a	n/a	n/a	n/a
1215717	PROB	n/a	LTP263	ltpFR	14	n/a	n/a	n/a	n/a	n/a	n/a	11	6	2	3	n/a	n/a	n/a	n/a	n/a
1217613	PROB	n/a	LTP263	ltpFR	14	n/a	n/a	n/a	n/a	n/a	n/a	21	8	8	5	n/a	n/a	n/a	n/a	n/a
1218795	PROB	n/a	LTP263	ltpFR	14	n/a	n/a	n/a	n/a	n/a	n/a	17	6	6	5	n/a	n/a	n/a	n/a	n/a
1221149	STOP	n/a	LTP263	ltpFR	14	n/a	n/a	n/a	n/a	n/a	n/a	n/a	n/a	n/a	n/a	n/a	n/a	n/a	n/a	n/a
1222605	WORD	wordpools/wasnorm_wordpool_less_exclusions.txt	LTP263	ltpFR	14	7	1	PAN	1008	n/a	0	n/a	0	0	0	1	0.412841796875	0.57763671875	upper	../fonts/zerothre.ttf
1225618	START	n/a	LTP263	ltpFR	14	n/a	n/a	n/a	n/a	n/a	n/a	n/a	n/a	n/a	n/a	n/a	n/a	n/a	n/a	n/a
1226549	PROB	n/a	LTP263	ltpFR	14	n/a	n/a	n/a	n/a	n/a	n/a	14	4	7	3	n/a	n/a	n/a	n/a	n/a
1227681	PROB	n/a	LTP263	ltpFR	14	n/a	n/a	n/a	n/a	n/a	n/a	11	4	6	1	n/a	n/a	n/a	n/a	n/a
1228864	PROB	n/a	LTP263	ltpFR	14	n/a	n/a	n/a	n/a	n/a	n/a	12	2	5	5	n/a	n/a	n/a	n/a	n/a
1229879	PROB	n/a	LTP263	ltpFR	14	n/a	n/a	n/a	n/a	n/a	n/a	15	8	3	4	n/a	n/a	n/a	n/a	n/a
1231327	PROB	n/a	LTP263	ltpFR	14	n/a	n/a	n/a	n/a	n/a	n/a	14	7	3	4	n/a	n/a	n/a	n/a	n/a
1232674	PROB	n/a	LTP263	ltpFR	14	n/a	n/a	n/a	n/a	n/a	n/a	7	1	1	5	n/a	n/a	n/a	n/a	n/a
1233889	PROB	n/a	LTP263	ltpFR	14	n/a	n/a	n/a	n/a	n/a	n/a	19	5	7	7	n/a	n/a	n/a	n/a	n/a
1235104	PROB	n/a	LTP263	ltpFR	14	n/a	n/a	n/a	n/a	n/a	n/a	12	3	2	7	n/a	n/a	n/a	n/a	n/a
1236253	PROB	n/a	LTP263	ltpFR	14	n/a	n/a	n/a	n/a	n/a	n/a	14	8	2	4	n/a	n/a	n/a	n/a	n/a
1237600	PROB	n/a	LTP263	ltpFR	14	n/a	n/a	n/a	n/a	n/a	n/a	18	9	6	3	n/a	n/a	n/a	n/a	n/a
1239115	PROB	n/a	LTP263	ltpFR	14	n/a	n/a	n/a	n/a	n/a	n/a	6	2	1	2	n/a	n/a	n/a	n/a	n/a
1240333	STOP	n/a	LTP263	ltpFR	14	n/a	n/a	n/a	n/a	n/a	n/a	n/a	n/a	n/a	n/a	n/a	n/a	n/a	n/a	n/a
1242776	WORD	wordpools/wasnorm_wordpool_less_exclusions.txt	LTP263	ltpFR	14	7	1	CHICK	296	n/a	1	n/a	0	0	0	1	0.412841796875	0.57763671875	upper	../fonts/zerothre.ttf
1245789	START	n/a	LTP263	ltpFR	14	n/a	n/a	n/a	n/a	n/a	n/a	n/a	n/a	n/a	n/a	n/a	n/a	n/a	n/a	n/a
1246820	PROB	n/a	LTP263	ltpFR	14	n/a	n/a	n/a	n/a	n/a	n/a	17	6	8	3	n/a	n/a	n/a	n/a	n/a
1248817	PROB	n/a	LTP263	ltpFR	14	n/a	n/a	n/a	n/a	n/a	n/a	18	9	7	2	n/a	n/a	n/a	n/a	n/a
1250432	PROB	n/a	LTP263	ltpFR	14	n/a	n/a	n/a	n/a	n/a	n/a	18	9	1	8	n/a	n/a	n/a	n/a	n/a
1251595	PROB	n/a	LTP263	ltpFR	14	n/a	n/a	n/a	n/a	n/a	n/a	14	8	5	1	n/a	n/a	n/a	n/a	n/a
1253094	PROB	n/a	LTP263	ltpFR	14	n/a	n/a	n/a	n/a	n/a	n/a	14	1	4	8	n/a	n/a	n/a	n/a	n/a
1256688	PROB	n/a	LTP263	ltpFR	14	n/a	n/a	n/a	n/a	n/a	n/a	17	3	7	7	n/a	n/a	n/a	n/a	n/a
1258137	PROB	n/a	LTP263	ltpFR	14	n/a	n/a	n/a	n/a	n/a	n/a	14	2	6	6	n/a	n/a	n/a	n/a	n/a
1259917	PROB	n/a	LTP263	ltpFR	14	n/a	n/a	n/a	n/a	n/a	n/a	16	6	2	8	n/a	n/a	n/a	n/a	n/a
1261069	STOP	n/a	LTP263	ltpFR	14	n/a	n/a	n/a	n/a	n/a	n/a	n/a	n/a	n/a	n/a	n/a	n/a	n/a	n/a	n/a
1262612	WORD	wordpools/wasnorm_wordpool_less_exclusions.txt	LTP263	ltpFR	14	7	1	OFFICER	973	n/a	1	n/a	0	0	0	1	0.412841796875	0.57763671875	upper	../fonts/zerothre.ttf
1265625	START	n/a	LTP263	ltpFR	14	n/a	n/a	n/a	n/a	n/a	n/a	n/a	n/a	n/a	n/a	n/a	n/a	n/a	n/a	n/a
1266807	PROB	n/a	LTP263	ltpFR	14	n/a	n/a	n/a	n/a	n/a	n/a	14	5	6	3	n/a	n/a	n/a	n/a	n/a
1268222	PROB	n/a	LTP263	ltpFR	14	n/a	n/a	n/a	n/a	n/a	n/a	17	7	4	6	n/a	n/a	n/a	n/a	n/a
1269685	PROB	n/a	LTP263	ltpFR	14	n/a	n/a	n/a	n/a	n/a	n/a	15	1	5	9	n/a	n/a	n/a	n/a	n/a
1270967	PROB	n/a	LTP263	ltpFR	14	n/a	n/a	n/a	n/a	n/a	n/a	15	5	4	6	n/a	n/a	n/a	n/a	n/a
1273463	PROB	n/a	LTP263	ltpFR	14	n/a	n/a	n/a	n/a	n/a	n/a	17	8	6	3	n/a	n/a	n/a	n/a	n/a
1274961	PROB	n/a	LTP263	ltpFR	14	n/a	n/a	n/a	n/a	n/a	n/a	12	5	3	4	n/a	n/a	n/a	n/a	n/a
1277924	PROB	n/a	LTP263	ltpFR	14	n/a	n/a	n/a	n/a	n/a	n/a	13	2	6	5	n/a	n/a	n/a	n/a	n/a
1279322	PROB	n/a	LTP263	ltpFR	14	n/a	n/a	n/a	n/a	n/a	n/a	18	9	3	6	n/a	n/a	n/a	n/a	n/a
1281117	STOP	n/a	LTP263	ltpFR	14	n/a	n/a	n/a	n/a	n/a	n/a	n/a	n/a	n/a	n/a	n/a	n/a	n/a	n/a	n/a
1282549	WORD	wordpools/wasnorm_wordpool_less_exclusions.txt	LTP263	ltpFR	14	7	1	ENEMY	534	n/a	1	n/a	0	0	0	1	0.412841796875	0.57763671875	upper	../fonts/zerothre.ttf
1285562	START	n/a	LTP263	ltpFR	14	n/a	n/a	n/a	n/a	n/a	n/a	n/a	n/a	n/a	n/a	n/a	n/a	n/a	n/a	n/a
1286744	PROB	n/a	LTP263	ltpFR	14	n/a	n/a	n/a	n/a	n/a	n/a	19	9	9	1	n/a	n/a	n/a	n/a	n/a
1287925	PROB	n/a	LTP263	ltpFR	14	n/a	n/a	n/a	n/a	n/a	n/a	14	4	9	1	n/a	n/a	n/a	n/a	n/a
1289157	PROB	n/a	LTP263	ltpFR	14	n/a	n/a	n/a	n/a	n/a	n/a	17	5	7	5	n/a	n/a	n/a	n/a	n/a
1290637	PROB	n/a	LTP263	ltpFR	14	n/a	n/a	n/a	n/a	n/a	n/a	14	6	7	1	n/a	n/a	n/a	n/a	n/a
1293483	PROB	n/a	LTP263	ltpFR	14	n/a	n/a	n/a	n/a	n/a	n/a	17	3	6	8	n/a	n/a	n/a	n/a	n/a
1295714	PROB	n/a	LTP263	ltpFR	14	n/a	n/a	n/a	n/a	n/a	n/a	17	7	9	1	n/a	n/a	n/a	n/a	n/a
1298592	PROB	n/a	LTP263	ltpFR	14	n/a	n/a	n/a	n/a	n/a	n/a	14	4	7	3	n/a	n/a	n/a	n/a	n/a
1299891	PROB	n/a	LTP263	ltpFR	14	n/a	n/a	n/a	n/a	n/a	n/a	5	3	1	1	n/a	n/a	n/a	n/a	n/a
1300765	STOP	n/a	LTP263	ltpFR	14	n/a	n/a	n/a	n/a	n/a	n/a	n/a	n/a	n/a	n/a	n/a	n/a	n/a	n/a	n/a
1302420	WORD	wordpools/wasnorm_wordpool_less_exclusions.txt	LTP263	ltpFR	14	7	1	STRANGER	1389	n/a	1	n/a	0	0	0	1	0.412841796875	0.57763671875	upper	../fonts/zerothre.ttf
1305433	START	n/a	LTP263	ltpFR	14	n/a	n/a	n/a	n/a	n/a	n/a	n/a	n/a	n/a	n/a	n/a	n/a	n/a	n/a	n/a
1306298	PROB	n/a	LTP263	ltpFR	14	n/a	n/a	n/a	n/a	n/a	n/a	24	8	8	8	n/a	n/a	n/a	n/a	n/a
1307462	PROB	n/a	LTP263	ltpFR	14	n/a	n/a	n/a	n/a	n/a	n/a	23	8	9	6	n/a	n/a	n/a	n/a	n/a
1309509	PROB	n/a	LTP263	ltpFR	14	n/a	n/a	n/a	n/a	n/a	n/a	10	1	6	3	n/a	n/a	n/a	n/a	n/a
1312023	PROB	n/a	LTP263	ltpFR	14	n/a	n/a	n/a	n/a	n/a	n/a	9	2	3	4	n/a	n/a	n/a	n/a	n/a
1314601	PROB	n/a	LTP263	ltpFR	14	n/a	n/a	n/a	n/a	n/a	n/a	12	4	2	6	n/a	n/a	n/a	n/a	n/a
1316050	PROB	n/a	LTP263	ltpFR	14	n/a	n/a	n/a	n/a	n/a	n/a	10	2	4	4	n/a	n/a	n/a	n/a	n/a
1317348	PROB	n/a	LTP263	ltpFR	14	n/a	n/a	n/a	n/a	n/a	n/a	11	4	4	3	n/a	n/a	n/a	n/a	n/a
1319811	PROB	n/a	LTP263	ltpFR	14	n/a	n/a	n/a	n/a	n/a	n/a	10	6	2	2	n/a	n/a	n/a	n/a	n/a
1321069	STOP	n/a	LTP263	ltpFR	14	n/a	n/a	n/a	n/a	n/a	n/a	n/a	n/a	n/a	n/a	n/a	n/a	n/a	n/a	n/a
1322374	WORD	wordpools/wasnorm_wordpool_less_exclusions.txt	LTP263	ltpFR	14	7	1	POLICE	1098	n/a	1	n/a	0	0	0	1	0.412841796875	0.57763671875	upper	../fonts/zerothre.ttf
1325387	START	n/a	LTP263	ltpFR	14	n/a	n/a	n/a	n/a	n/a	n/a	n/a	n/a	n/a	n/a	n/a	n/a	n/a	n/a	n/a
1326368	PROB	n/a	LTP263	ltpFR	14	n/a	n/a	n/a	n/a	n/a	n/a	12	7	1	4	n/a	n/a	n/a	n/a	n/a
1328032	PROB	n/a	LTP263	ltpFR	14	n/a	n/a	n/a	n/a	n/a	n/a	19	1	9	9	n/a	n/a	n/a	n/a	n/a
1329247	PROB	n/a	LTP263	ltpFR	14	n/a	n/a	n/a	n/a	n/a	n/a	25	8	8	9	n/a	n/a	n/a	n/a	n/a
1332026	PROB	n/a	LTP263	ltpFR	14	n/a	n/a	n/a	n/a	n/a	n/a	21	6	9	6	n/a	n/a	n/a	n/a	n/a
1334023	PROB	n/a	LTP263	ltpFR	14	n/a	n/a	n/a	n/a	n/a	n/a	15	3	5	7	n/a	n/a	n/a	n/a	n/a
1336220	PROB	n/a	LTP263	ltpFR	14	n/a	n/a	n/a	n/a	n/a	n/a	11	6	2	3	n/a	n/a	n/a	n/a	n/a
1337484	PROB	n/a	LTP263	ltpFR	14	n/a	n/a	n/a	n/a	n/a	n/a	15	4	3	8	n/a	n/a	n/a	n/a	n/a
1339082	PROB	n/a	LTP263	ltpFR	14	n/a	n/a	n/a	n/a	n/a	n/a	13	8	2	3	n/a	n/a	n/a	n/a	n/a
1340325	STOP	n/a	LTP263	ltpFR	14	n/a	n/a	n/a	n/a	n/a	n/a	n/a	n/a	n/a	n/a	n/a	n/a	n/a	n/a	n/a
1342344	WORD	wordpools/wasnorm_wordpool_less_exclusions.txt	LTP263	ltpFR	14	7	1	CHART	282	n/a	0	n/a	0	0	0	1	0.412841796875	0.57763671875	upper	../fonts/zerothre.ttf
1345357	START	n/a	LTP263	ltpFR	14	n/a	n/a	n/a	n/a	n/a	n/a	n/a	n/a	n/a	n/a	n/a	n/a	n/a	n/a	n/a
1346172	PROB	n/a	LTP263	ltpFR	14	n/a	n/a	n/a	n/a	n/a	n/a	22	6	9	7	n/a	n/a	n/a	n/a	n/a
1348402	PROB	n/a	LTP263	ltpFR	14	n/a	n/a	n/a	n/a	n/a	n/a	17	8	4	5	n/a	n/a	n/a	n/a	n/a
1349983	PROB	n/a	LTP263	ltpFR	14	n/a	n/a	n/a	n/a	n/a	n/a	13	1	8	4	n/a	n/a	n/a	n/a	n/a
1351248	PROB	n/a	LTP263	ltpFR	14	n/a	n/a	n/a	n/a	n/a	n/a	12	8	1	3	n/a	n/a	n/a	n/a	n/a
1352461	PROB	n/a	LTP263	ltpFR	14	n/a	n/a	n/a	n/a	n/a	n/a	20	9	6	5	n/a	n/a	n/a	n/a	n/a
1354310	PROB	n/a	LTP263	ltpFR	14	n/a	n/a	n/a	n/a	n/a	n/a	16	8	1	7	n/a	n/a	n/a	n/a	n/a
1355640	PROB	n/a	LTP263	ltpFR	14	n/a	n/a	n/a	n/a	n/a	n/a	21	8	9	4	n/a	n/a	n/a	n/a	n/a
1357438	PROB	n/a	LTP263	ltpFR	14	n/a	n/a	n/a	n/a	n/a	n/a	7	2	4	1	n/a	n/a	n/a	n/a	n/a
1361357	STOP	n/a	LTP263	ltpFR	14	n/a	n/a	n/a	n/a	n/a	n/a	n/a	n/a	n/a	n/a	n/a	n/a	n/a	n/a	n/a
1362530	WORD	wordpools/wasnorm_wordpool_less_exclusions.txt	LTP263	ltpFR	14	7	1	SCRIBBLE	1256	n/a	0	n/a	0	0	0	1	0.412841796875	0.57763671875	upper	../fonts/zerothre.ttf
1365542	START	n/a	LTP263	ltpFR	14	n/a	n/a	n/a	n/a	n/a	n/a	n/a	n/a	n/a	n/a	n/a	n/a	n/a	n/a	n/a
1366758	PROB	n/a	LTP263	ltpFR	14	n/a	n/a	n/a	n/a	n/a	n/a	19	8	4	7	n/a	n/a	n/a	n/a	n/a
1369171	PROB	n/a	LTP263	ltpFR	14	n/a	n/a	n/a	n/a	n/a	n/a	15	2	7	6	n/a	n/a	n/a	n/a	n/a
1370935	PROB	n/a	LTP263	ltpFR	14	n/a	n/a	n/a	n/a	n/a	n/a	17	5	8	4	n/a	n/a	n/a	n/a	n/a
1373048	PROB	n/a	LTP263	ltpFR	14	n/a	n/a	n/a	n/a	n/a	n/a	14	7	2	5	n/a	n/a	n/a	n/a	n/a
1374528	PROB	n/a	LTP263	ltpFR	14	n/a	n/a	n/a	n/a	n/a	n/a	16	2	9	5	n/a	n/a	n/a	n/a	n/a
1375977	PROB	n/a	LTP263	ltpFR	14	n/a	n/a	n/a	n/a	n/a	n/a	9	1	3	5	n/a	n/a	n/a	n/a	n/a
1377126	PROB	n/a	LTP263	ltpFR	14	n/a	n/a	n/a	n/a	n/a	n/a	16	3	4	9	n/a	n/a	n/a	n/a	n/a
1378923	PROB	n/a	LTP263	ltpFR	14	n/a	n/a	n/a	n/a	n/a	n/a	15	6	2	7	n/a	n/a	n/a	n/a	n/a
1380757	STOP	n/a	LTP263	ltpFR	14	n/a	n/a	n/a	n/a	n/a	n/a	n/a	n/a	n/a	n/a	n/a	n/a	n/a	n/a	n/a
1382483	WORD	wordpools/wasnorm_wordpool_less_exclusions.txt	LTP263	ltpFR	14	7	1	BULLY	196	n/a	1	n/a	0	0	0	1	0.412841796875	0.57763671875	upper	../fonts/zerothre.ttf
1385496	START	n/a	LTP263	ltpFR	14	n/a	n/a	n/a	n/a	n/a	n/a	n/a	n/a	n/a	n/a	n/a	n/a	n/a	n/a	n/a
1386362	PROB	n/a	LTP263	ltpFR	14	n/a	n/a	n/a	n/a	n/a	n/a	17	8	5	4	n/a	n/a	n/a	n/a	n/a
1387826	PROB	n/a	LTP263	ltpFR	14	n/a	n/a	n/a	n/a	n/a	n/a	13	3	3	7	n/a	n/a	n/a	n/a	n/a
1389191	PROB	n/a	LTP263	ltpFR	14	n/a	n/a	n/a	n/a	n/a	n/a	11	2	4	5	n/a	n/a	n/a	n/a	n/a
1390356	PROB	n/a	LTP263	ltpFR	14	n/a	n/a	n/a	n/a	n/a	n/a	14	9	1	4	n/a	n/a	n/a	n/a	n/a
1391470	PROB	n/a	LTP263	ltpFR	14	n/a	n/a	n/a	n/a	n/a	n/a	19	5	8	7	n/a	n/a	n/a	n/a	n/a
1395248	PROB	n/a	LTP263	ltpFR	14	n/a	n/a	n/a	n/a	n/a	n/a	14	3	7	4	n/a	n/a	n/a	n/a	n/a
1396462	PROB	n/a	LTP263	ltpFR	14	n/a	n/a	n/a	n/a	n/a	n/a	17	3	9	5	n/a	n/a	n/a	n/a	n/a
1398910	PROB	n/a	LTP263	ltpFR	14	n/a	n/a	n/a	n/a	n/a	n/a	8	2	2	3	n/a	n/a	n/a	n/a	n/a
1400165	STOP	n/a	LTP263	ltpFR	14	n/a	n/a	n/a	n/a	n/a	n/a	n/a	n/a	n/a	n/a	n/a	n/a	n/a	n/a	n/a
1402388	WORD	wordpools/wasnorm_wordpool_less_exclusions.txt	LTP263	ltpFR	14	7	1	WAGON	1578	n/a	0	n/a	0	0	0	1	0.412841796875	0.57763671875	upper	../fonts/zerothre.ttf
1405400	START	n/a	LTP263	ltpFR	14	n/a	n/a	n/a	n/a	n/a	n/a	n/a	n/a	n/a	n/a	n/a	n/a	n/a	n/a	n/a
1406282	PROB	n/a	LTP263	ltpFR	14	n/a	n/a	n/a	n/a	n/a	n/a	17	9	5	3	n/a	n/a	n/a	n/a	n/a
1408412	PROB	n/a	LTP263	ltpFR	14	n/a	n/a	n/a	n/a	n/a	n/a	24	8	7	9	n/a	n/a	n/a	n/a	n/a
1410641	PROB	n/a	LTP263	ltpFR	14	n/a	n/a	n/a	n/a	n/a	n/a	18	8	5	5	n/a	n/a	n/a	n/a	n/a
1412090	PROB	n/a	LTP263	ltpFR	14	n/a	n/a	n/a	n/a	n/a	n/a	19	8	5	6	n/a	n/a	n/a	n/a	n/a
1413837	PROB	n/a	LTP263	ltpFR	14	n/a	n/a	n/a	n/a	n/a	n/a	17	5	9	3	n/a	n/a	n/a	n/a	n/a
1416051	PROB	n/a	LTP263	ltpFR	14	n/a	n/a	n/a	n/a	n/a	n/a	21	8	5	8	n/a	n/a	n/a	n/a	n/a
1418164	PROB	n/a	LTP263	ltpFR	14	n/a	n/a	n/a	n/a	n/a	n/a	9	1	4	4	n/a	n/a	n/a	n/a	n/a
1421400	STOP	n/a	LTP263	ltpFR	14	n/a	n/a	n/a	n/a	n/a	n/a	n/a	n/a	n/a	n/a	n/a	n/a	n/a	n/a	n/a
1422425	WORD	wordpools/wasnorm_wordpool_less_exclusions.txt	LTP263	ltpFR	14	7	1	GROUND	666	n/a	0	n/a	0	0	0	1	0.412841796875	0.57763671875	upper	../fonts/zerothre.ttf
1425437	START	n/a	LTP263	ltpFR	14	n/a	n/a	n/a	n/a	n/a	n/a	n/a	n/a	n/a	n/a	n/a	n/a	n/a	n/a	n/a
1426302	PROB	n/a	LTP263	ltpFR	14	n/a	n/a	n/a	n/a	n/a	n/a	12	4	4	4	n/a	n/a	n/a	n/a	n/a
1427434	PROB	n/a	LTP263	ltpFR	14	n/a	n/a	n/a	n/a	n/a	n/a	20	3	9	8	n/a	n/a	n/a	n/a	n/a
1429613	PROB	n/a	LTP263	ltpFR	14	n/a	n/a	n/a	n/a	n/a	n/a	9	1	1	7	n/a	n/a	n/a	n/a	n/a
1430746	PROB	n/a	LTP263	ltpFR	14	n/a	n/a	n/a	n/a	n/a	n/a	10	5	3	2	n/a	n/a	n/a	n/a	n/a
1432077	PROB	n/a	LTP263	ltpFR	14	n/a	n/a	n/a	n/a	n/a	n/a	16	3	7	6	n/a	n/a	n/a	n/a	n/a
1433657	PROB	n/a	LTP263	ltpFR	14	n/a	n/a	n/a	n/a	n/a	n/a	16	9	4	3	n/a	n/a	n/a	n/a	n/a
1435921	PROB	n/a	LTP263	ltpFR	14	n/a	n/a	n/a	n/a	n/a	n/a	15	5	7	3	n/a	n/a	n/a	n/a	n/a
1437019	PROB	n/a	LTP263	ltpFR	14	n/a	n/a	n/a	n/a	n/a	n/a	11	5	2	4	n/a	n/a	n/a	n/a	n/a
1438417	PROB	n/a	LTP263	ltpFR	14	n/a	n/a	n/a	n/a	n/a	n/a	23	7	6	8	n/a	n/a	n/a	n/a	n/a
1440197	STOP	n/a	LTP263	ltpFR	14	n/a	n/a	n/a	n/a	n/a	n/a	n/a	n/a	n/a	n/a	n/a	n/a	n/a	n/a	n/a
1442312	WORD	wordpools/wasnorm_wordpool_less_exclusions.txt	LTP263	ltpFR	14	7	1	DIGGER	464	n/a	0	n/a	0	0	0	1	0.412841796875	0.57763671875	upper	../fonts/zerothre.ttf
1445324	START	n/a	LTP263	ltpFR	14	n/a	n/a	n/a	n/a	n/a	n/a	n/a	n/a	n/a	n/a	n/a	n/a	n/a	n/a	n/a
1446306	PROB	n/a	LTP263	ltpFR	14	n/a	n/a	n/a	n/a	n/a	n/a	13	6	5	2	n/a	n/a	n/a	n/a	n/a
1448634	PROB	n/a	LTP263	ltpFR	14	n/a	n/a	n/a	n/a	n/a	n/a	19	6	4	9	n/a	n/a	n/a	n/a	n/a
1449784	PROB	n/a	LTP263	ltpFR	14	n/a	n/a	n/a	n/a	n/a	n/a	17	2	8	7	n/a	n/a	n/a	n/a	n/a
1451132	PROB	n/a	LTP263	ltpFR	14	n/a	n/a	n/a	n/a	n/a	n/a	7	2	1	4	n/a	n/a	n/a	n/a	n/a
1452612	PROB	n/a	LTP263	ltpFR	14	n/a	n/a	n/a	n/a	n/a	n/a	17	6	6	5	n/a	n/a	n/a	n/a	n/a
1455825	PROB	n/a	LTP263	ltpFR	14	n/a	n/a	n/a	n/a	n/a	n/a	13	3	9	1	n/a	n/a	n/a	n/a	n/a
1457422	PROB	n/a	LTP263	ltpFR	14	n/a	n/a	n/a	n/a	n/a	n/a	13	1	3	9	n/a	n/a	n/a	n/a	n/a
1459103	PROB	n/a	LTP263	ltpFR	14	n/a	n/a	n/a	n/a	n/a	n/a	11	8	2	1	n/a	n/a	n/a	n/a	n/a
1460189	STOP	n/a	LTP263	ltpFR	14	n/a	n/a	n/a	n/a	n/a	n/a	n/a	n/a	n/a	n/a	n/a	n/a	n/a	n/a	n/a
1462232	WORD	wordpools/wasnorm_wordpool_less_exclusions.txt	LTP263	ltpFR	14	7	1	VEHICLE	1553	n/a	0	n/a	0	0	0	1	0.412841796875	0.57763671875	upper	../fonts/zerothre.ttf
1465244	START	n/a	LTP263	ltpFR	14	n/a	n/a	n/a	n/a	n/a	n/a	n/a	n/a	n/a	n/a	n/a	n/a	n/a	n/a	n/a
1466109	PROB	n/a	LTP263	ltpFR	14	n/a	n/a	n/a	n/a	n/a	n/a	16	8	3	5	n/a	n/a	n/a	n/a	n/a
1467757	PROB	n/a	LTP263	ltpFR	14	n/a	n/a	n/a	n/a	n/a	n/a	14	9	1	4	n/a	n/a	n/a	n/a	n/a
1468805	PROB	n/a	LTP263	ltpFR	14	n/a	n/a	n/a	n/a	n/a	n/a	16	1	7	8	n/a	n/a	n/a	n/a	n/a
1469887	PROB	n/a	LTP263	ltpFR	14	n/a	n/a	n/a	n/a	n/a	n/a	19	9	1	9	n/a	n/a	n/a	n/a	n/a
1471202	PROB	n/a	LTP263	ltpFR	14	n/a	n/a	n/a	n/a	n/a	n/a	15	3	8	4	n/a	n/a	n/a	n/a	n/a
1473464	PROB	n/a	LTP263	ltpFR	14	n/a	n/a	n/a	n/a	n/a	n/a	14	7	2	5	n/a	n/a	n/a	n/a	n/a
1475494	PROB	n/a	LTP263	ltpFR	14	n/a	n/a	n/a	n/a	n/a	n/a	9	2	3	4	n/a	n/a	n/a	n/a	n/a
1477159	PROB	n/a	LTP263	ltpFR	14	n/a	n/a	n/a	n/a	n/a	n/a	9	4	3	2	n/a	n/a	n/a	n/a	n/a
1478424	PROB	n/a	LTP263	ltpFR	14	n/a	n/a	n/a	n/a	n/a	n/a	22	9	8	5	n/a	n/a	n/a	n/a	n/a
1479717	STOP	n/a	LTP263	ltpFR	14	n/a	n/a	n/a	n/a	n/a	n/a	n/a	n/a	n/a	n/a	n/a	n/a	n/a	n/a	n/a
1482219	WORD	wordpools/wasnorm_wordpool_less_exclusions.txt	LTP263	ltpFR	14	7	1	PLATE	1086	n/a	0	n/a	0	0	0	1	0.412841796875	0.57763671875	upper	../fonts/zerothre.ttf
1485231	START	n/a	LTP263	ltpFR	14	n/a	n/a	n/a	n/a	n/a	n/a	n/a	n/a	n/a	n/a	n/a	n/a	n/a	n/a	n/a
1486096	PROB	n/a	LTP263	ltpFR	14	n/a	n/a	n/a	n/a	n/a	n/a	8	4	3	1	n/a	n/a	n/a	n/a	n/a
1487378	PROB	n/a	LTP263	ltpFR	14	n/a	n/a	n/a	n/a	n/a	n/a	14	3	6	5	n/a	n/a	n/a	n/a	n/a
1490723	PROB	n/a	LTP263	ltpFR	14	n/a	n/a	n/a	n/a	n/a	n/a	16	3	5	8	n/a	n/a	n/a	n/a	n/a
1493003	PROB	n/a	LTP263	ltpFR	14	n/a	n/a	n/a	n/a	n/a	n/a	14	1	5	8	n/a	n/a	n/a	n/a	n/a
1495016	PROB	n/a	LTP263	ltpFR	14	n/a	n/a	n/a	n/a	n/a	n/a	17	5	5	7	n/a	n/a	n/a	n/a	n/a
1496181	PROB	n/a	LTP263	ltpFR	14	n/a	n/a	n/a	n/a	n/a	n/a	7	4	2	1	n/a	n/a	n/a	n/a	n/a
1497545	PROB	n/a	LTP263	ltpFR	14	n/a	n/a	n/a	n/a	n/a	n/a	13	9	2	2	n/a	n/a	n/a	n/a	n/a
1499509	PROB	n/a	LTP263	ltpFR	14	n/a	n/a	n/a	n/a	n/a	n/a	8	5	2	1	n/a	n/a	n/a	n/a	n/a
1500604	STOP	n/a	LTP263	ltpFR	14	n/a	n/a	n/a	n/a	n/a	n/a	n/a	n/a	n/a	n/a	n/a	n/a	n/a	n/a	n/a
1502172	WORD	wordpools/wasnorm_wordpool_less_exclusions.txt	LTP263	ltpFR	14	7	1	LABYRINTH	791	n/a	0	n/a	0	0	0	1	0.412841796875	0.57763671875	upper	../fonts/zerothre.ttf
1505185	START	n/a	LTP263	ltpFR	14	n/a	n/a	n/a	n/a	n/a	n/a	n/a	n/a	n/a	n/a	n/a	n/a	n/a	n/a	n/a
1506333	PROB	n/a	LTP263	ltpFR	14	n/a	n/a	n/a	n/a	n/a	n/a	11	1	3	7	n/a	n/a	n/a	n/a	n/a
1507431	PROB	n/a	LTP263	ltpFR	14	n/a	n/a	n/a	n/a	n/a	n/a	20	9	6	5	n/a	n/a	n/a	n/a	n/a
1509527	PROB	n/a	LTP263	ltpFR	14	n/a	n/a	n/a	n/a	n/a	n/a	19	9	2	8	n/a	n/a	n/a	n/a	n/a
1510859	PROB	n/a	LTP263	ltpFR	14	n/a	n/a	n/a	n/a	n/a	n/a	11	4	2	5	n/a	n/a	n/a	n/a	n/a
1512705	PROB	n/a	LTP263	ltpFR	14	n/a	n/a	n/a	n/a	n/a	n/a	16	7	7	2	n/a	n/a	n/a	n/a	n/a
1514071	PROB	n/a	LTP263	ltpFR	14	n/a	n/a	n/a	n/a	n/a	n/a	10	1	1	8	n/a	n/a	n/a	n/a	n/a
1515253	PROB	n/a	LTP263	ltpFR	14	n/a	n/a	n/a	n/a	n/a	n/a	19	4	8	7	n/a	n/a	n/a	n/a	n/a
1518897	PROB	n/a	LTP263	ltpFR	14	n/a	n/a	n/a	n/a	n/a	n/a	13	3	8	2	n/a	n/a	n/a	n/a	n/a
1520221	STOP	n/a	LTP263	ltpFR	14	n/a	n/a	n/a	n/a	n/a	n/a	n/a	n/a	n/a	n/a	n/a	n/a	n/a	n/a	n/a
1522076	WORD	wordpools/wasnorm_wordpool_less_exclusions.txt	LTP263	ltpFR	14	7	1	MINT	898	n/a	1	n/a	0	0	0	1	0.412841796875	0.57763671875	upper	../fonts/zerothre.ttf
1525088	START	n/a	LTP263	ltpFR	14	n/a	n/a	n/a	n/a	n/a	n/a	n/a	n/a	n/a	n/a	n/a	n/a	n/a	n/a	n/a
1526086	PROB	n/a	LTP263	ltpFR	14	n/a	n/a	n/a	n/a	n/a	n/a	21	8	8	7	n/a	n/a	n/a	n/a	n/a
1528283	PROB	n/a	LTP263	ltpFR	14	n/a	n/a	n/a	n/a	n/a	n/a	14	4	4	6	n/a	n/a	n/a	n/a	n/a
1529697	PROB	n/a	LTP263	ltpFR	14	n/a	n/a	n/a	n/a	n/a	n/a	10	3	4	3	n/a	n/a	n/a	n/a	n/a
1531329	PROB	n/a	LTP263	ltpFR	14	n/a	n/a	n/a	n/a	n/a	n/a	4	2	1	1	n/a	n/a	n/a	n/a	n/a
1532427	PROB	n/a	LTP263	ltpFR	14	n/a	n/a	n/a	n/a	n/a	n/a	14	1	8	5	n/a	n/a	n/a	n/a	n/a
1533624	PROB	n/a	LTP263	ltpFR	14	n/a	n/a	n/a	n/a	n/a	n/a	17	8	6	3	n/a	n/a	n/a	n/a	n/a
1535389	PROB	n/a	LTP263	ltpFR	14	n/a	n/a	n/a	n/a	n/a	n/a	16	3	5	8	n/a	n/a	n/a	n/a	n/a
1537236	PROB	n/a	LTP263	ltpFR	14	n/a	n/a	n/a	n/a	n/a	n/a	15	1	6	8	n/a	n/a	n/a	n/a	n/a
1541088	STOP	n/a	LTP263	ltpFR	14	n/a	n/a	n/a	n/a	n/a	n/a	n/a	n/a	n/a	n/a	n/a	n/a	n/a	n/a	n/a
1542995	REC_START	n/a	LTP263	ltpFR	14	7	n/a	n/a	n/a	n/a	n/a	n/a	0	0	0	n/a	n/a	n/a	n/a	n/a
1544279	REC_WORD	wordpools/wasnorm_wordpool_less_exclusions.txt	LTP263	ltpFR	14	7	1	MINT	898	n/a	1	n/a	0	0	0	n/a	n/a	n/a	n/a	n/a
1545255	REC_WORD	wordpools/wasnorm_wordpool_less_exclusions.txt	LTP263	ltpFR	14	7	1	BULLY	196	n/a	1	n/a	0	0	0	n/a	n/a	n/a	n/a	n/a
1546462	REC_WORD	wordpools/wasnorm_wordpool_less_exclusions.txt	LTP263	ltpFR	14	7	1	SCRIBBLE	1256	n/a	0	n/a	0	0	0	n/a	n/a	n/a	n/a	n/a
1551892	REC_WORD	wordpools/wasnorm_wordpool_less_exclusions.txt	LTP263	ltpFR	14	7	1	VEHICLE	1553	n/a	0	n/a	0	0	0	n/a	n/a	n/a	n/a	n/a
1620694	WORD	wordpools/wasnorm_wordpool_less_exclusions.txt	LTP263	ltpFR	14	8	1	RAISIN	1163	n/a	1	n/a	0	0	0	1	0.412841796875	0.57763671875	upper	../fonts/zerothre.ttf
1624655	WORD	wordpools/wasnorm_wordpool_less_exclusions.txt	LTP263	ltpFR	14	8	1	PORCUPINE	1107	n/a	1	n/a	0	0	0	1	0.412841796875	0.57763671875	upper	../fonts/zerothre.ttf
1628682	WORD	wordpools/wasnorm_wordpool_less_exclusions.txt	LTP263	ltpFR	14	8	1	FOLLOWER	589	n/a	1	n/a	0	0	0	1	0.412841796875	0.57763671875	upper	../fonts/zerothre.ttf
1632643	WORD	wordpools/wasnorm_wordpool_less_exclusions.txt	LTP263	ltpFR	14	8	0	CEREAL	272	n/a	0	n/a	0	0	0	0	0.5869140625	0.422607421875	lower	../fonts/amplitud.ttf
1636838	WORD	wordpools/wasnorm_wordpool_less_exclusions.txt	LTP263	ltpFR	14	8	0	PRESIDENT	1121	n/a	1	n/a	0	0	0	0	0.5869140625	0.422607421875	lower	../fonts/amplitud.ttf
1641048	WORD	wordpools/wasnorm_wordpool_less_exclusions.txt	LTP263	ltpFR	14	8	0	REGISTER	1180	n/a	0	n/a	0	0	0	0	0.5869140625	0.422607421875	lower	../fonts/amplitud.ttf
1645042	WORD	wordpools/wasnorm_wordpool_less_exclusions.txt	LTP263	ltpFR	14	8	0	LETTER	813	n/a	0	n/a	0	0	0	0	0.5869140625	0.422607421875	lower	../fonts/amplitud.ttf
1648953	WORD	wordpools/wasnorm_wordpool_less_exclusions.txt	LTP263	ltpFR	14	8	0	ANTELOPE	27	n/a	1	n/a	0	0	0	0	0.5869140625	0.422607421875	lower	../fonts/amplitud.ttf
1652830	WORD	wordpools/wasnorm_wordpool_less_exclusions.txt	LTP263	ltpFR	14	8	0	CREEK	404	n/a	1	n/a	0	0	0	0	0.5869140625	0.422607421875	lower	../fonts/amplitud.ttf
1656974	WORD	wordpools/wasnorm_wordpool_less_exclusions.txt	LTP263	ltpFR	14	8	1	CUFF	423	n/a	0	n/a	0	0	0	1	0.412841796875	0.57763671875	upper	../fonts/zerothre.ttf
1660868	WORD	wordpools/wasnorm_wordpool_less_exclusions.txt	LTP263	ltpFR	14	8	1	SHORTS	1293	n/a	2	n/a	0	0	0	1	0.412841796875	0.57763671875	upper	../fonts/zerothre.ttf
1662216	KEY_MSG	n/a	LTP263	ltpFR	14	8	n/a	n/a	n/a	n/a	n/a	n/a	0	0	0	n/a	n/a	n/a	n/a	n/a
1664962	WORD	wordpools/wasnorm_wordpool_less_exclusions.txt	LTP263	ltpFR	14	8	0	JAM	748	n/a	0	n/a	0	0	0	0	0.5869140625	0.422607421875	lower	../fonts/amplitud.ttf
1669123	WORD	wordpools/wasnorm_wordpool_less_exclusions.txt	LTP263	ltpFR	14	8	0	CRUMB	416	n/a	0	n/a	0	0	0	0	0.5869140625	0.422607421875	lower	../fonts/amplitud.ttf
1673233	WORD	wordpools/wasnorm_wordpool_less_exclusions.txt	LTP263	ltpFR	14	8	1	VETERAN	1561	n/a	1	n/a	0	0	0	1	0.412841796875	0.57763671875	upper	../fonts/zerothre.ttf
1677244	WORD	wordpools/wasnorm_wordpool_less_exclusions.txt	LTP263	ltpFR	14	8	1	SPAGHETTI	1346	n/a	0	n/a	0	0	0	1	0.412841796875	0.57763671875	upper	../fonts/zerothre.ttf
1681355	WORD	wordpools/wasnorm_wordpool_less_exclusions.txt	LTP263	ltpFR	14	8	1	ENVELOPE	537	n/a	0	n/a	0	0	0	1	0.412841796875	0.57763671875	upper	../fonts/zerothre.ttf
1684367	START	n/a	LTP263	ltpFR	14	n/a	n/a	n/a	n/a	n/a	n/a	n/a	n/a	n/a	n/a	n/a	n/a	n/a	n/a	n/a
1685182	PROB	n/a	LTP263	ltpFR	14	n/a	n/a	n/a	n/a	n/a	n/a	9	1	5	3	n/a	n/a	n/a	n/a	n/a
1687146	PROB	n/a	LTP263	ltpFR	14	n/a	n/a	n/a	n/a	n/a	n/a	12	2	7	3	n/a	n/a	n/a	n/a	n/a
1688394	PROB	n/a	LTP263	ltpFR	14	n/a	n/a	n/a	n/a	n/a	n/a	20	7	5	9	n/a	n/a	n/a	n/a	n/a
1690807	PROB	n/a	LTP263	ltpFR	14	n/a	n/a	n/a	n/a	n/a	n/a	19	1	9	9	n/a	n/a	n/a	n/a	n/a
1691922	PROB	n/a	LTP263	ltpFR	14	n/a	n/a	n/a	n/a	n/a	n/a	14	4	1	9	n/a	n/a	n/a	n/a	n/a
1693203	PROB	n/a	LTP263	ltpFR	14	n/a	n/a	n/a	n/a	n/a	n/a	17	9	3	5	n/a	n/a	n/a	n/a	n/a
1695267	PROB	n/a	LTP263	ltpFR	14	n/a	n/a	n/a	n/a	n/a	n/a	18	6	5	7	n/a	n/a	n/a	n/a	n/a
1696564	PROB	n/a	LTP263	ltpFR	14	n/a	n/a	n/a	n/a	n/a	n/a	18	6	6	6	n/a	n/a	n/a	n/a	n/a
1698429	PROB	n/a	LTP263	ltpFR	14	n/a	n/a	n/a	n/a	n/a	n/a	12	2	2	8	n/a	n/a	n/a	n/a	n/a
1699620	STOP	n/a	LTP263	ltpFR	14	n/a	n/a	n/a	n/a	n/a	n/a	n/a	n/a	n/a	n/a	n/a	n/a	n/a	n/a	n/a
1702257	REC_START	n/a	LTP263	ltpFR	14	8	n/a	n/a	n/a	n/a	n/a	n/a	0	0	0	n/a	n/a	n/a	n/a	n/a
1703039	REC_WORD	wordpools/wasnorm_wordpool_less_exclusions.txt	LTP263	ltpFR	14	8	1	VETERAN	1561	n/a	1	n/a	0	0	0	n/a	n/a	n/a	n/a	n/a
1703961	REC_WORD	wordpools/wasnorm_wordpool_less_exclusions.txt	LTP263	ltpFR	14	8	1	SPAGHETTI	1346	n/a	0	n/a	0	0	0	n/a	n/a	n/a	n/a	n/a
1705125	REC_WORD	wordpools/wasnorm_wordpool_less_exclusions.txt	LTP263	ltpFR	14	8	0	CRUMB	416	n/a	0	n/a	0	0	0	n/a	n/a	n/a	n/a	n/a
1706512	REC_WORD	wordpools/wasnorm_wordpool_less_exclusions.txt	LTP263	ltpFR	14	8	0	JAM	748	n/a	0	n/a	0	0	0	n/a	n/a	n/a	n/a	n/a
1707513	REC_WORD	wordpools/wasnorm_wordpool_less_exclusions.txt	LTP263	ltpFR	14	8	1	ENVELOPE	537	n/a	0	n/a	0	0	0	n/a	n/a	n/a	n/a	n/a
1709041	REC_WORD	wordpools/wasnorm_wordpool_less_exclusions.txt	LTP263	ltpFR	14	8	1	SHORTS	1293	n/a	2	n/a	0	0	0	n/a	n/a	n/a	n/a	n/a
1710238	REC_WORD	wordpools/wasnorm_wordpool_less_exclusions.txt	LTP263	ltpFR	14	8	1	FOLLOWER	589	n/a	1	n/a	0	0	0	n/a	n/a	n/a	n/a	n/a
1711628	REC_WORD	wordpools/wasnorm_wordpool_less_exclusions.txt	LTP263	ltpFR	14	8	0	ANTELOPE	27	n/a	1	n/a	0	0	0	n/a	n/a	n/a	n/a	n/a
1713177	REC_WORD	wordpools/wasnorm_wordpool_less_exclusions.txt	LTP263	ltpFR	14	8	0	PRESIDENT	1121	n/a	1	n/a	0	0	0	n/a	n/a	n/a	n/a	n/a
1714504	REC_WORD	wordpools/wasnorm_wordpool_less_exclusions.txt	LTP263	ltpFR	14	8	1	PORCUPINE	1107	n/a	1	n/a	0	0	0	n/a	n/a	n/a	n/a	n/a
1715938	REC_WORD	wordpools/wasnorm_wordpool_less_exclusions.txt	LTP263	ltpFR	14	8	0	REGISTER	1180	n/a	0	n/a	0	0	0	n/a	n/a	n/a	n/a	n/a
1717501	REC_WORD	wordpools/wasnorm_wordpool_less_exclusions.txt	LTP263	ltpFR	14	8	0	LETTER	813	n/a	0	n/a	0	0	0	n/a	n/a	n/a	n/a	n/a
1722917	REC_WORD	wordpools/wasnorm_wordpool_less_exclusions.txt	LTP263	ltpFR	14	8	1	RAISIN	1163	n/a	1	n/a	0	0	0	n/a	n/a	n/a	n/a	n/a
1724472	REC_WORD	wordpools/wasnorm_wordpool_less_exclusions.txt	LTP263	ltpFR	14	8	0	CEREAL	272	n/a	0	n/a	0	0	0	n/a	n/a	n/a	n/a	n/a
1778760	START	n/a	LTP263	ltpFR	14	n/a	n/a	n/a	n/a	n/a	n/a	n/a	n/a	n/a	n/a	n/a	n/a	n/a	n/a	n/a
1780273	PROB	n/a	LTP263	ltpFR	14	n/a	n/a	n/a	n/a	n/a	n/a	13	2	4	7	n/a	n/a	n/a	n/a	n/a
1782453	PROB	n/a	LTP263	ltpFR	14	n/a	n/a	n/a	n/a	n/a	n/a	16	5	4	7	n/a	n/a	n/a	n/a	n/a
1784516	PROB	n/a	LTP263	ltpFR	14	n/a	n/a	n/a	n/a	n/a	n/a	23	7	5	9	n/a	n/a	n/a	n/a	n/a
1789243	PROB	n/a	LTP263	ltpFR	14	n/a	n/a	n/a	n/a	n/a	n/a	10	6	1	3	n/a	n/a	n/a	n/a	n/a
1790858	PROB	n/a	LTP263	ltpFR	14	n/a	n/a	n/a	n/a	n/a	n/a	21	8	8	5	n/a	n/a	n/a	n/a	n/a
1791989	PROB	n/a	LTP263	ltpFR	14	n/a	n/a	n/a	n/a	n/a	n/a	19	8	6	6	n/a	n/a	n/a	n/a	n/a
1793508	STOP	n/a	LTP263	ltpFR	14	n/a	n/a	n/a	n/a	n/a	n/a	n/a	n/a	n/a	n/a	n/a	n/a	n/a	n/a	n/a
1795867	WORD	wordpools/wasnorm_wordpool_less_exclusions.txt	LTP263	ltpFR	14	9	0	SPIDER	1351	n/a	0	n/a	0	0	0	0	0.5869140625	0.422607421875	lower	../fonts/amplitud.ttf
1798879	START	n/a	LTP263	ltpFR	14	n/a	n/a	n/a	n/a	n/a	n/a	n/a	n/a	n/a	n/a	n/a	n/a	n/a	n/a	n/a
1799761	PROB	n/a	LTP263	ltpFR	14	n/a	n/a	n/a	n/a	n/a	n/a	25	8	9	8	n/a	n/a	n/a	n/a	n/a
1802091	PROB	n/a	LTP263	ltpFR	14	n/a	n/a	n/a	n/a	n/a	n/a	13	9	3	1	n/a	n/a	n/a	n/a	n/a
1803439	PROB	n/a	LTP263	ltpFR	14	n/a	n/a	n/a	n/a	n/a	n/a	15	3	4	8	n/a	n/a	n/a	n/a	n/a
1805968	PROB	n/a	LTP263	ltpFR	14	n/a	n/a	n/a	n/a	n/a	n/a	9	1	2	6	n/a	n/a	n/a	n/a	n/a
1807433	PROB	n/a	LTP263	ltpFR	14	n/a	n/a	n/a	n/a	n/a	n/a	20	9	9	2	n/a	n/a	n/a	n/a	n/a
1809746	PROB	n/a	LTP263	ltpFR	14	n/a	n/a	n/a	n/a	n/a	n/a	16	7	4	5	n/a	n/a	n/a	n/a	n/a
1811743	PROB	n/a	LTP263	ltpFR	14	n/a	n/a	n/a	n/a	n/a	n/a	8	5	1	2	n/a	n/a	n/a	n/a	n/a
1813291	PROB	n/a	LTP263	ltpFR	14	n/a	n/a	n/a	n/a	n/a	n/a	19	5	9	5	n/a	n/a	n/a	n/a	n/a
1814620	STOP	n/a	LTP263	ltpFR	14	n/a	n/a	n/a	n/a	n/a	n/a	n/a	n/a	n/a	n/a	n/a	n/a	n/a	n/a	n/a
1815703	WORD	wordpools/wasnorm_wordpool_less_exclusions.txt	LTP263	ltpFR	14	9	0	SACK	1220	n/a	0	n/a	0	0	0	0	0.5869140625	0.422607421875	lower	../fonts/amplitud.ttf
1818716	START	n/a	LTP263	ltpFR	14	n/a	n/a	n/a	n/a	n/a	n/a	n/a	n/a	n/a	n/a	n/a	n/a	n/a	n/a	n/a
1819715	PROB	n/a	LTP263	ltpFR	14	n/a	n/a	n/a	n/a	n/a	n/a	17	9	3	5	n/a	n/a	n/a	n/a	n/a
1822094	PROB	n/a	LTP263	ltpFR	14	n/a	n/a	n/a	n/a	n/a	n/a	17	8	7	2	n/a	n/a	n/a	n/a	n/a
1824158	PROB	n/a	LTP263	ltpFR	14	n/a	n/a	n/a	n/a	n/a	n/a	7	1	2	4	n/a	n/a	n/a	n/a	n/a
1826620	PROB	n/a	LTP263	ltpFR	14	n/a	n/a	n/a	n/a	n/a	n/a	10	5	2	3	n/a	n/a	n/a	n/a	n/a
1828484	PROB	n/a	LTP263	ltpFR	14	n/a	n/a	n/a	n/a	n/a	n/a	9	3	5	1	n/a	n/a	n/a	n/a	n/a
1829582	PROB	n/a	LTP263	ltpFR	14	n/a	n/a	n/a	n/a	n/a	n/a	18	3	6	9	n/a	n/a	n/a	n/a	n/a
1831131	PROB	n/a	LTP263	ltpFR	14	n/a	n/a	n/a	n/a	n/a	n/a	16	2	4	7	n/a	n/a	n/a	n/a	n/a
1834716	STOP	n/a	LTP263	ltpFR	14	n/a	n/a	n/a	n/a	n/a	n/a	n/a	n/a	n/a	n/a	n/a	n/a	n/a	n/a	n/a
1835840	WORD	wordpools/wasnorm_wordpool_less_exclusions.txt	LTP263	ltpFR	14	9	0	DESK	452	n/a	1	n/a	0	0	0	0	0.5869140625	0.422607421875	lower	../fonts/amplitud.ttf
1838853	START	n/a	LTP263	ltpFR	14	n/a	n/a	n/a	n/a	n/a	n/a	n/a	n/a	n/a	n/a	n/a	n/a	n/a	n/a	n/a
1839684	PROB	n/a	LTP263	ltpFR	14	n/a	n/a	n/a	n/a	n/a	n/a	8	6	1	1	n/a	n/a	n/a	n/a	n/a
1843080	PROB	n/a	LTP263	ltpFR	14	n/a	n/a	n/a	n/a	n/a	n/a	17	3	9	5	n/a	n/a	n/a	n/a	n/a
1846524	PROB	n/a	LTP263	ltpFR	14	n/a	n/a	n/a	n/a	n/a	n/a	13	5	4	4	n/a	n/a	n/a	n/a	n/a
1850851	PROB	n/a	LTP263	ltpFR	14	n/a	n/a	n/a	n/a	n/a	n/a	19	8	5	6	n/a	n/a	n/a	n/a	n/a
1852332	PROB	n/a	LTP263	ltpFR	14	n/a	n/a	n/a	n/a	n/a	n/a	21	4	9	8	n/a	n/a	n/a	n/a	n/a
1853733	STOP	n/a	LTP263	ltpFR	14	n/a	n/a	n/a	n/a	n/a	n/a	n/a	n/a	n/a	n/a	n/a	n/a	n/a	n/a	n/a
1855777	WORD	wordpools/wasnorm_wordpool_less_exclusions.txt	LTP263	ltpFR	14	9	1	PADDING	999	n/a	0	n/a	0	0	0	1	0.412841796875	0.57763671875	upper	../fonts/zerothre.ttf
1858790	START	n/a	LTP263	ltpFR	14	n/a	n/a	n/a	n/a	n/a	n/a	n/a	n/a	n/a	n/a	n/a	n/a	n/a	n/a	n/a
1859771	PROB	n/a	LTP263	ltpFR	14	n/a	n/a	n/a	n/a	n/a	n/a	19	1	9	9	n/a	n/a	n/a	n/a	n/a
1860986	PROB	n/a	LTP263	ltpFR	14	n/a	n/a	n/a	n/a	n/a	n/a	10	7	1	2	n/a	n/a	n/a	n/a	n/a
1862384	PROB	n/a	LTP263	ltpFR	14	n/a	n/a	n/a	n/a	n/a	n/a	18	2	8	8	n/a	n/a	n/a	n/a	n/a
1863782	PROB	n/a	LTP263	ltpFR	14	n/a	n/a	n/a	n/a	n/a	n/a	18	6	4	8	n/a	n/a	n/a	n/a	n/a
1864847	PROB	n/a	LTP263	ltpFR	14	n/a	n/a	n/a	n/a	n/a	n/a	15	4	9	2	n/a	n/a	n/a	n/a	n/a
1866212	PROB	n/a	LTP263	ltpFR	14	n/a	n/a	n/a	n/a	n/a	n/a	17	1	7	9	n/a	n/a	n/a	n/a	n/a
1867943	PROB	n/a	LTP263	ltpFR	14	n/a	n/a	n/a	n/a	n/a	n/a	18	7	5	6	n/a	n/a	n/a	n/a	n/a
1869374	PROB	n/a	LTP263	ltpFR	14	n/a	n/a	n/a	n/a	n/a	n/a	16	2	8	6	n/a	n/a	n/a	n/a	n/a
1871486	PROB	n/a	LTP263	ltpFR	14	n/a	n/a	n/a	n/a	n/a	n/a	11	4	1	6	n/a	n/a	n/a	n/a	n/a
1873218	PROB	n/a	LTP263	ltpFR	14	n/a	n/a	n/a	n/a	n/a	n/a	18	5	8	5	n/a	n/a	n/a	n/a	n/a
1874237	STOP	n/a	LTP263	ltpFR	14	n/a	n/a	n/a	n/a	n/a	n/a	n/a	n/a	n/a	n/a	n/a	n/a	n/a	n/a	n/a
1875748	WORD	wordpools/wasnorm_wordpool_less_exclusions.txt	LTP263	ltpFR	14	9	1	RAM	1165	n/a	1	n/a	0	0	0	1	0.412841796875	0.57763671875	upper	../fonts/zerothre.ttf
1878760	START	n/a	LTP263	ltpFR	14	n/a	n/a	n/a	n/a	n/a	n/a	n/a	n/a	n/a	n/a	n/a	n/a	n/a	n/a	n/a
1879958	PROB	n/a	LTP263	ltpFR	14	n/a	n/a	n/a	n/a	n/a	n/a	14	1	5	8	n/a	n/a	n/a	n/a	n/a
1882338	PROB	n/a	LTP263	ltpFR	14	n/a	n/a	n/a	n/a	n/a	n/a	14	5	8	1	n/a	n/a	n/a	n/a	n/a
1884252	PROB	n/a	LTP263	ltpFR	14	n/a	n/a	n/a	n/a	n/a	n/a	17	4	9	4	n/a	n/a	n/a	n/a	n/a
1886199	PROB	n/a	LTP263	ltpFR	14	n/a	n/a	n/a	n/a	n/a	n/a	17	9	5	3	n/a	n/a	n/a	n/a	n/a
1887662	PROB	n/a	LTP263	ltpFR	14	n/a	n/a	n/a	n/a	n/a	n/a	8	6	1	1	n/a	n/a	n/a	n/a	n/a
1888761	PROB	n/a	LTP263	ltpFR	14	n/a	n/a	n/a	n/a	n/a	n/a	20	6	9	5	n/a	n/a	n/a	n/a	n/a
1890759	PROB	n/a	LTP263	ltpFR	14	n/a	n/a	n/a	n/a	n/a	n/a	11	1	9	1	n/a	n/a	n/a	n/a	n/a
1891757	PROB	n/a	LTP263	ltpFR	14	n/a	n/a	n/a	n/a	n/a	n/a	17	1	9	7	n/a	n/a	n/a	n/a	n/a
1893022	PROB	n/a	LTP263	ltpFR	14	n/a	n/a	n/a	n/a	n/a	n/a	16	7	4	5	n/a	n/a	n/a	n/a	n/a
1894660	STOP	n/a	LTP263	ltpFR	14	n/a	n/a	n/a	n/a	n/a	n/a	n/a	n/a	n/a	n/a	n/a	n/a	n/a	n/a	n/a
1895967	WORD	wordpools/wasnorm_wordpool_less_exclusions.txt	LTP263	ltpFR	14	9	1	CREATURE	403	n/a	1	n/a	0	0	0	1	0.412841796875	0.57763671875	upper	../fonts/zerothre.ttf
1898980	START	n/a	LTP263	ltpFR	14	n/a	n/a	n/a	n/a	n/a	n/a	n/a	n/a	n/a	n/a	n/a	n/a	n/a	n/a	n/a
1899812	PROB	n/a	LTP263	ltpFR	14	n/a	n/a	n/a	n/a	n/a	n/a	13	3	3	7	n/a	n/a	n/a	n/a	n/a
1901060	PROB	n/a	LTP263	ltpFR	14	n/a	n/a	n/a	n/a	n/a	n/a	13	4	3	6	n/a	n/a	n/a	n/a	n/a
1902807	PROB	n/a	LTP263	ltpFR	14	n/a	n/a	n/a	n/a	n/a	n/a	13	7	4	2	n/a	n/a	n/a	n/a	n/a
1904454	PROB	n/a	LTP263	ltpFR	14	n/a	n/a	n/a	n/a	n/a	n/a	21	9	6	6	n/a	n/a	n/a	n/a	n/a
1906617	PROB	n/a	LTP263	ltpFR	14	n/a	n/a	n/a	n/a	n/a	n/a	20	7	4	9	n/a	n/a	n/a	n/a	n/a
1909297	PROB	n/a	LTP263	ltpFR	14	n/a	n/a	n/a	n/a	n/a	n/a	19	9	6	4	n/a	n/a	n/a	n/a	n/a
1910511	PROB	n/a	LTP263	ltpFR	14	n/a	n/a	n/a	n/a	n/a	n/a	1	4	3	5	n/a	n/a	n/a	n/a	n/a
1914980	STOP	n/a	LTP263	ltpFR	14	n/a	n/a	n/a	n/a	n/a	n/a	n/a	n/a	n/a	n/a	n/a	n/a	n/a	n/a	n/a
1915954	WORD	wordpools/wasnorm_wordpool_less_exclusions.txt	LTP263	ltpFR	14	9	1	POND	1101	n/a	1	n/a	0	0	0	1	0.412841796875	0.57763671875	upper	../fonts/zerothre.ttf
1918967	START	n/a	LTP263	ltpFR	14	n/a	n/a	n/a	n/a	n/a	n/a	n/a	n/a	n/a	n/a	n/a	n/a	n/a	n/a	n/a
1920065	PROB	n/a	LTP263	ltpFR	14	n/a	n/a	n/a	n/a	n/a	n/a	24	6	9	9	n/a	n/a	n/a	n/a	n/a
1922361	PROB	n/a	LTP263	ltpFR	14	n/a	n/a	n/a	n/a	n/a	n/a	16	4	5	7	n/a	n/a	n/a	n/a	n/a
1924375	PROB	n/a	LTP263	ltpFR	14	n/a	n/a	n/a	n/a	n/a	n/a	5	1	1	3	n/a	n/a	n/a	n/a	n/a
1925506	PROB	n/a	LTP263	ltpFR	14	n/a	n/a	n/a	n/a	n/a	n/a	16	9	4	3	n/a	n/a	n/a	n/a	n/a
1927137	PROB	n/a	LTP263	ltpFR	14	n/a	n/a	n/a	n/a	n/a	n/a	14	9	1	4	n/a	n/a	n/a	n/a	n/a
1928269	PROB	n/a	LTP263	ltpFR	14	n/a	n/a	n/a	n/a	n/a	n/a	14	4	3	6	n/a	n/a	n/a	n/a	n/a
1929800	PROB	n/a	LTP263	ltpFR	14	n/a	n/a	n/a	n/a	n/a	n/a	21	7	5	9	n/a	n/a	n/a	n/a	n/a
1932080	PROB	n/a	LTP263	ltpFR	14	n/a	n/a	n/a	n/a	n/a	n/a	15	6	1	8	n/a	n/a	n/a	n/a	n/a
1933460	STOP	n/a	LTP263	ltpFR	14	n/a	n/a	n/a	n/a	n/a	n/a	n/a	n/a	n/a	n/a	n/a	n/a	n/a	n/a	n/a
1935991	WORD	wordpools/wasnorm_wordpool_less_exclusions.txt	LTP263	ltpFR	14	9	1	GOLD	647	n/a	0	n/a	0	0	0	1	0.412841796875	0.57763671875	upper	../fonts/zerothre.ttf
1939004	START	n/a	LTP263	ltpFR	14	n/a	n/a	n/a	n/a	n/a	n/a	n/a	n/a	n/a	n/a	n/a	n/a	n/a	n/a	n/a
1940085	PROB	n/a	LTP263	ltpFR	14	n/a	n/a	n/a	n/a	n/a	n/a	23	6	9	8	n/a	n/a	n/a	n/a	n/a
1941400	PROB	n/a	LTP263	ltpFR	14	n/a	n/a	n/a	n/a	n/a	n/a	14	1	6	7	n/a	n/a	n/a	n/a	n/a
1942731	PROB	n/a	LTP263	ltpFR	14	n/a	n/a	n/a	n/a	n/a	n/a	19	6	5	8	n/a	n/a	n/a	n/a	n/a
1944594	PROB	n/a	LTP263	ltpFR	14	n/a	n/a	n/a	n/a	n/a	n/a	9	2	4	3	n/a	n/a	n/a	n/a	n/a
1947124	PROB	n/a	LTP263	ltpFR	14	n/a	n/a	n/a	n/a	n/a	n/a	19	9	1	9	n/a	n/a	n/a	n/a	n/a
1948538	PROB	n/a	LTP263	ltpFR	14	n/a	n/a	n/a	n/a	n/a	n/a	6	1	4	1	n/a	n/a	n/a	n/a	n/a
1949970	PROB	n/a	LTP263	ltpFR	14	n/a	n/a	n/a	n/a	n/a	n/a	13	7	4	2	n/a	n/a	n/a	n/a	n/a
1952200	PROB	n/a	LTP263	ltpFR	14	n/a	n/a	n/a	n/a	n/a	n/a	19	6	5	8	n/a	n/a	n/a	n/a	n/a
1953604	STOP	n/a	LTP263	ltpFR	14	n/a	n/a	n/a	n/a	n/a	n/a	n/a	n/a	n/a	n/a	n/a	n/a	n/a	n/a	n/a
1956144	WORD	wordpools/wasnorm_wordpool_less_exclusions.txt	LTP263	ltpFR	14	9	1	NECKLACE	940	n/a	0	n/a	0	0	0	1	0.412841796875	0.57763671875	upper	../fonts/zerothre.ttf
1959157	START	n/a	LTP263	ltpFR	14	n/a	n/a	n/a	n/a	n/a	n/a	n/a	n/a	n/a	n/a	n/a	n/a	n/a	n/a	n/a
1960155	PROB	n/a	LTP263	ltpFR	14	n/a	n/a	n/a	n/a	n/a	n/a	22	9	4	9	n/a	n/a	n/a	n/a	n/a
1961969	PROB	n/a	LTP263	ltpFR	14	n/a	n/a	n/a	n/a	n/a	n/a	19	3	8	8	n/a	n/a	n/a	n/a	n/a
1963283	PROB	n/a	LTP263	ltpFR	14	n/a	n/a	n/a	n/a	n/a	n/a	17	3	9	5	n/a	n/a	n/a	n/a	n/a
1966312	PROB	n/a	LTP263	ltpFR	14	n/a	n/a	n/a	n/a	n/a	n/a	22	7	8	7	n/a	n/a	n/a	n/a	n/a
1969225	PROB	n/a	LTP263	ltpFR	14	n/a	n/a	n/a	n/a	n/a	n/a	14	2	5	7	n/a	n/a	n/a	n/a	n/a
1972237	PROB	n/a	LTP263	ltpFR	14	n/a	n/a	n/a	n/a	n/a	n/a	11	9	1	1	n/a	n/a	n/a	n/a	n/a
1973202	PROB	n/a	LTP263	ltpFR	14	n/a	n/a	n/a	n/a	n/a	n/a	17	8	5	4	n/a	n/a	n/a	n/a	n/a
1974532	STOP	n/a	LTP263	ltpFR	14	n/a	n/a	n/a	n/a	n/a	n/a	n/a	n/a	n/a	n/a	n/a	n/a	n/a	n/a	n/a
1976131	WORD	wordpools/wasnorm_wordpool_less_exclusions.txt	LTP263	ltpFR	14	9	0	TEMPLE	1448	n/a	1	n/a	0	0	0	0	0.5869140625	0.422607421875	lower	../fonts/amplitud.ttf
1979144	START	n/a	LTP263	ltpFR	14	n/a	n/a	n/a	n/a	n/a	n/a	n/a	n/a	n/a	n/a	n/a	n/a	n/a	n/a	n/a
1980325	PROB	n/a	LTP263	ltpFR	14	n/a	n/a	n/a	n/a	n/a	n/a	17	7	7	3	n/a	n/a	n/a	n/a	n/a
1981655	PROB	n/a	LTP263	ltpFR	14	n/a	n/a	n/a	n/a	n/a	n/a	14	1	9	4	n/a	n/a	n/a	n/a	n/a
1982921	PROB	n/a	LTP263	ltpFR	14	n/a	n/a	n/a	n/a	n/a	n/a	18	4	9	5	n/a	n/a	n/a	n/a	n/a
1985267	PROB	n/a	LTP263	ltpFR	14	n/a	n/a	n/a	n/a	n/a	n/a	14	6	2	6	n/a	n/a	n/a	n/a	n/a
1986598	PROB	n/a	LTP263	ltpFR	14	n/a	n/a	n/a	n/a	n/a	n/a	17	7	6	4	n/a	n/a	n/a	n/a	n/a
1988180	PROB	n/a	LTP263	ltpFR	14	n/a	n/a	n/a	n/a	n/a	n/a	16	8	1	7	n/a	n/a	n/a	n/a	n/a
1989493	PROB	n/a	LTP263	ltpFR	14	n/a	n/a	n/a	n/a	n/a	n/a	16	5	8	3	n/a	n/a	n/a	n/a	n/a
1991724	PROB	n/a	LTP263	ltpFR	14	n/a	n/a	n/a	n/a	n/a	n/a	15	5	1	9	n/a	n/a	n/a	n/a	n/a
1993022	PROB	n/a	LTP263	ltpFR	14	n/a	n/a	n/a	n/a	n/a	n/a	13	3	5	5	n/a	n/a	n/a	n/a	n/a
1994869	STOP	n/a	LTP263	ltpFR	14	n/a	n/a	n/a	n/a	n/a	n/a	n/a	n/a	n/a	n/a	n/a	n/a	n/a	n/a	n/a
1996035	WORD	wordpools/wasnorm_wordpool_less_exclusions.txt	LTP263	ltpFR	14	9	0	GRASSHOPPER	656	n/a	0	n/a	0	0	0	0	0.5869140625	0.422607421875	lower	../fonts/amplitud.ttf
1999047	START	n/a	LTP263	ltpFR	14	n/a	n/a	n/a	n/a	n/a	n/a	n/a	n/a	n/a	n/a	n/a	n/a	n/a	n/a	n/a
2000029	PROB	n/a	LTP263	ltpFR	14	n/a	n/a	n/a	n/a	n/a	n/a	16	4	3	9	n/a	n/a	n/a	n/a	n/a
2001177	PROB	n/a	LTP263	ltpFR	14	n/a	n/a	n/a	n/a	n/a	n/a	15	7	1	7	n/a	n/a	n/a	n/a	n/a
2002292	PROB	n/a	LTP263	ltpFR	14	n/a	n/a	n/a	n/a	n/a	n/a	3	1	1	1	n/a	n/a	n/a	n/a	n/a
2003906	PROB	n/a	LTP263	ltpFR	14	n/a	n/a	n/a	n/a	n/a	n/a	14	8	5	1	n/a	n/a	n/a	n/a	n/a
2005287	PROB	n/a	LTP263	ltpFR	14	n/a	n/a	n/a	n/a	n/a	n/a	9	4	1	4	n/a	n/a	n/a	n/a	n/a
2006735	PROB	n/a	LTP263	ltpFR	14	n/a	n/a	n/a	n/a	n/a	n/a	14	6	3	5	n/a	n/a	n/a	n/a	n/a
2009513	PROB	n/a	LTP263	ltpFR	14	n/a	n/a	n/a	n/a	n/a	n/a	26	9	9	8	n/a	n/a	n/a	n/a	n/a
2010929	PROB	n/a	LTP263	ltpFR	14	n/a	n/a	n/a	n/a	n/a	n/a	9	5	1	3	n/a	n/a	n/a	n/a	n/a
2012559	PROB	n/a	LTP263	ltpFR	14	n/a	n/a	n/a	n/a	n/a	n/a	21	7	7	7	n/a	n/a	n/a	n/a	n/a
2013492	STOP	n/a	LTP263	ltpFR	14	n/a	n/a	n/a	n/a	n/a	n/a	n/a	n/a	n/a	n/a	n/a	n/a	n/a	n/a	n/a
2015955	WORD	wordpools/wasnorm_wordpool_less_exclusions.txt	LTP263	ltpFR	14	9	0	BIRD	129	n/a	0	n/a	0	0	0	0	0.5869140625	0.422607421875	lower	../fonts/amplitud.ttf
2018967	START	n/a	LTP263	ltpFR	14	n/a	n/a	n/a	n/a	n/a	n/a	n/a	n/a	n/a	n/a	n/a	n/a	n/a	n/a	n/a
2019999	PROB	n/a	LTP263	ltpFR	14	n/a	n/a	n/a	n/a	n/a	n/a	25	9	9	7	n/a	n/a	n/a	n/a	n/a
2022627	PROB	n/a	LTP263	ltpFR	14	n/a	n/a	n/a	n/a	n/a	n/a	16	8	3	5	n/a	n/a	n/a	n/a	n/a
2024392	PROB	n/a	LTP263	ltpFR	14	n/a	n/a	n/a	n/a	n/a	n/a	11	8	2	2	n/a	n/a	n/a	n/a	n/a
2026621	PROB	n/a	LTP263	ltpFR	14	n/a	n/a	n/a	n/a	n/a	n/a	12	6	4	2	n/a	n/a	n/a	n/a	n/a
2027854	PROB	n/a	LTP263	ltpFR	14	n/a	n/a	n/a	n/a	n/a	n/a	22	9	8	5	n/a	n/a	n/a	n/a	n/a
2029650	PROB	n/a	LTP263	ltpFR	14	n/a	n/a	n/a	n/a	n/a	n/a	18	4	7	7	n/a	n/a	n/a	n/a	n/a
2031232	PROB	n/a	LTP263	ltpFR	14	n/a	n/a	n/a	n/a	n/a	n/a	14	4	4	6	n/a	n/a	n/a	n/a	n/a
2032996	PROB	n/a	LTP263	ltpFR	14	n/a	n/a	n/a	n/a	n/a	n/a	16	6	6	4	n/a	n/a	n/a	n/a	n/a
2034261	STOP	n/a	LTP263	ltpFR	14	n/a	n/a	n/a	n/a	n/a	n/a	n/a	n/a	n/a	n/a	n/a	n/a	n/a	n/a	n/a
2036091	WORD	wordpools/wasnorm_wordpool_less_exclusions.txt	LTP263	ltpFR	14	9	0	CLARINET	317	n/a	0	n/a	0	0	0	0	0.5869140625	0.422607421875	lower	../fonts/amplitud.ttf
2039104	START	n/a	LTP263	ltpFR	14	n/a	n/a	n/a	n/a	n/a	n/a	n/a	n/a	n/a	n/a	n/a	n/a	n/a	n/a	n/a
2040019	PROB	n/a	LTP263	ltpFR	14	n/a	n/a	n/a	n/a	n/a	n/a	17	5	7	5	n/a	n/a	n/a	n/a	n/a
2041482	PROB	n/a	LTP263	ltpFR	14	n/a	n/a	n/a	n/a	n/a	n/a	16	2	6	8	n/a	n/a	n/a	n/a	n/a
2042881	PROB	n/a	LTP263	ltpFR	14	n/a	n/a	n/a	n/a	n/a	n/a	16	7	2	7	n/a	n/a	n/a	n/a	n/a
2045261	PROB	n/a	LTP263	ltpFR	14	n/a	n/a	n/a	n/a	n/a	n/a	10	6	3	1	n/a	n/a	n/a	n/a	n/a
2046525	PROB	n/a	LTP263	ltpFR	14	n/a	n/a	n/a	n/a	n/a	n/a	18	8	1	9	n/a	n/a	n/a	n/a	n/a
2047874	PROB	n/a	LTP263	ltpFR	14	n/a	n/a	n/a	n/a	n/a	n/a	6	4	1	1	n/a	n/a	n/a	n/a	n/a
2048789	PROB	n/a	LTP263	ltpFR	14	n/a	n/a	n/a	n/a	n/a	n/a	16	9	5	2	n/a	n/a	n/a	n/a	n/a
2050370	PROB	n/a	LTP263	ltpFR	14	n/a	n/a	n/a	n/a	n/a	n/a	14	1	4	9	n/a	n/a	n/a	n/a	n/a
2051818	PROB	n/a	LTP263	ltpFR	14	n/a	n/a	n/a	n/a	n/a	n/a	15	2	9	4	n/a	n/a	n/a	n/a	n/a
2055103	STOP	n/a	LTP263	ltpFR	14	n/a	n/a	n/a	n/a	n/a	n/a	n/a	n/a	n/a	n/a	n/a	n/a	n/a	n/a	n/a
2056145	WORD	wordpools/wasnorm_wordpool_less_exclusions.txt	LTP263	ltpFR	14	9	0	FRIAR	605	n/a	1	n/a	0	0	0	0	0.5869140625	0.422607421875	lower	../fonts/amplitud.ttf
2059157	START	n/a	LTP263	ltpFR	14	n/a	n/a	n/a	n/a	n/a	n/a	n/a	n/a	n/a	n/a	n/a	n/a	n/a	n/a	n/a
2060022	PROB	n/a	LTP263	ltpFR	14	n/a	n/a	n/a	n/a	n/a	n/a	25	9	7	9	n/a	n/a	n/a	n/a	n/a
2062286	PROB	n/a	LTP263	ltpFR	14	n/a	n/a	n/a	n/a	n/a	n/a	16	8	7	1	n/a	n/a	n/a	n/a	n/a
2063649	PROB	n/a	LTP263	ltpFR	14	n/a	n/a	n/a	n/a	n/a	n/a	8	2	5	1	n/a	n/a	n/a	n/a	n/a
2065248	PROB	n/a	LTP263	ltpFR	14	n/a	n/a	n/a	n/a	n/a	n/a	22	5	9	8	n/a	n/a	n/a	n/a	n/a
2067811	PROB	n/a	LTP263	ltpFR	14	n/a	n/a	n/a	n/a	n/a	n/a	11	7	2	2	n/a	n/a	n/a	n/a	n/a
2069259	PROB	n/a	LTP263	ltpFR	14	n/a	n/a	n/a	n/a	n/a	n/a	24	9	6	9	n/a	n/a	n/a	n/a	n/a
2071771	PROB	n/a	LTP263	ltpFR	14	n/a	n/a	n/a	n/a	n/a	n/a	17	2	9	6	n/a	n/a	n/a	n/a	n/a
2073352	PROB	n/a	LTP263	ltpFR	14	n/a	n/a	n/a	n/a	n/a	n/a	12	8	1	3	n/a	n/a	n/a	n/a	n/a
2074565	STOP	n/a	LTP263	ltpFR	14	n/a	n/a	n/a	n/a	n/a	n/a	n/a	n/a	n/a	n/a	n/a	n/a	n/a	n/a	n/a
2076365	WORD	wordpools/wasnorm_wordpool_less_exclusions.txt	LTP263	ltpFR	14	9	1	SNAIL	1332	n/a	1	n/a	0	0	0	1	0.412841796875	0.57763671875	upper	../fonts/zerothre.ttf
2079377	START	n/a	LTP263	ltpFR	14	n/a	n/a	n/a	n/a	n/a	n/a	n/a	n/a	n/a	n/a	n/a	n/a	n/a	n/a	n/a
2080491	PROB	n/a	LTP263	ltpFR	14	n/a	n/a	n/a	n/a	n/a	n/a	22	5	9	8	n/a	n/a	n/a	n/a	n/a
2082955	PROB	n/a	LTP263	ltpFR	14	n/a	n/a	n/a	n/a	n/a	n/a	17	9	2	6	n/a	n/a	n/a	n/a	n/a
2084618	PROB	n/a	LTP263	ltpFR	14	n/a	n/a	n/a	n/a	n/a	n/a	19	8	5	6	n/a	n/a	n/a	n/a	n/a
2086598	PROB	n/a	LTP263	ltpFR	14	n/a	n/a	n/a	n/a	n/a	n/a	12	2	4	6	n/a	n/a	n/a	n/a	n/a
2087981	PROB	n/a	LTP263	ltpFR	14	n/a	n/a	n/a	n/a	n/a	n/a	20	6	5	9	n/a	n/a	n/a	n/a	n/a
2089795	PROB	n/a	LTP263	ltpFR	14	n/a	n/a	n/a	n/a	n/a	n/a	17	1	9	7	n/a	n/a	n/a	n/a	n/a
2091143	PROB	n/a	LTP263	ltpFR	14	n/a	n/a	n/a	n/a	n/a	n/a	12	6	2	4	n/a	n/a	n/a	n/a	n/a
2092291	PROB	n/a	LTP263	ltpFR	14	n/a	n/a	n/a	n/a	n/a	n/a	22	7	7	8	n/a	n/a	n/a	n/a	n/a
2093588	PROB	n/a	LTP263	ltpFR	14	n/a	n/a	n/a	n/a	n/a	n/a	13	6	1	6	n/a	n/a	n/a	n/a	n/a
2094677	STOP	n/a	LTP263	ltpFR	14	n/a	n/a	n/a	n/a	n/a	n/a	n/a	n/a	n/a	n/a	n/a	n/a	n/a	n/a	n/a
2096351	WORD	wordpools/wasnorm_wordpool_less_exclusions.txt	LTP263	ltpFR	14	9	1	STEREO	1378	n/a	0	n/a	0	0	0	1	0.412841796875	0.57763671875	upper	../fonts/zerothre.ttf
2099364	START	n/a	LTP263	ltpFR	14	n/a	n/a	n/a	n/a	n/a	n/a	n/a	n/a	n/a	n/a	n/a	n/a	n/a	n/a	n/a
2100329	PROB	n/a	LTP263	ltpFR	14	n/a	n/a	n/a	n/a	n/a	n/a	15	5	9	1	n/a	n/a	n/a	n/a	n/a
2101493	PROB	n/a	LTP263	ltpFR	14	n/a	n/a	n/a	n/a	n/a	n/a	14	8	5	1	n/a	n/a	n/a	n/a	n/a
2102858	PROB	n/a	LTP263	ltpFR	14	n/a	n/a	n/a	n/a	n/a	n/a	20	7	4	9	n/a	n/a	n/a	n/a	n/a
2104472	PROB	n/a	LTP263	ltpFR	14	n/a	n/a	n/a	n/a	n/a	n/a	17	4	7	6	n/a	n/a	n/a	n/a	n/a
2106635	PROB	n/a	LTP263	ltpFR	14	n/a	n/a	n/a	n/a	n/a	n/a	15	3	9	3	n/a	n/a	n/a	n/a	n/a
2108250	PROB	n/a	LTP263	ltpFR	14	n/a	n/a	n/a	n/a	n/a	n/a	14	5	7	2	n/a	n/a	n/a	n/a	n/a
2110048	PROB	n/a	LTP263	ltpFR	14	n/a	n/a	n/a	n/a	n/a	n/a	15	1	8	6	n/a	n/a	n/a	n/a	n/a
2111478	PROB	n/a	LTP263	ltpFR	14	n/a	n/a	n/a	n/a	n/a	n/a	22	7	9	6	n/a	n/a	n/a	n/a	n/a
2113658	PROB	n/a	LTP263	ltpFR	14	n/a	n/a	n/a	n/a	n/a	n/a	12	7	2	3	n/a	n/a	n/a	n/a	n/a
2115045	STOP	n/a	LTP263	ltpFR	14	n/a	n/a	n/a	n/a	n/a	n/a	n/a	n/a	n/a	n/a	n/a	n/a	n/a	n/a	n/a
2117237	REC_START	n/a	LTP263	ltpFR	14	9	n/a	n/a	n/a	n/a	n/a	n/a	0	0	0	n/a	n/a	n/a	n/a	n/a
2120098	REC_WORD	wordpools/wasnorm_wordpool_less_exclusions.txt	LTP263	ltpFR	14	9	1	GOLD	647	n/a	0	n/a	0	0	0	n/a	n/a	n/a	n/a	n/a
2121142	REC_WORD	wordpools/wasnorm_wordpool_less_exclusions.txt	LTP263	ltpFR	14	9	1	NECKLACE	940	n/a	0	n/a	0	0	0	n/a	n/a	n/a	n/a	n/a
2123018	REC_WORD	wordpools/wasnorm_wordpool_less_exclusions.txt	LTP263	ltpFR	14	9	0	GRASSHOPPER	656	n/a	0	n/a	0	0	0	n/a	n/a	n/a	n/a	n/a
2124919	REC_WORD	wordpools/wasnorm_wordpool_less_exclusions.txt	LTP263	ltpFR	14	9	1	SNAIL	1332	n/a	1	n/a	0	0	0	n/a	n/a	n/a	n/a	n/a
2193572	START	n/a	LTP263	ltpFR	14	n/a	n/a	n/a	n/a	n/a	n/a	n/a	n/a	n/a	n/a	n/a	n/a	n/a	n/a	n/a
2195087	PROB	n/a	LTP263	ltpFR	14	n/a	n/a	n/a	n/a	n/a	n/a	13	2	9	2	n/a	n/a	n/a	n/a	n/a
2197566	PROB	n/a	LTP263	ltpFR	14	n/a	n/a	n/a	n/a	n/a	n/a	8	3	3	2	n/a	n/a	n/a	n/a	n/a
2199314	PROB	n/a	LTP263	ltpFR	14	n/a	n/a	n/a	n/a	n/a	n/a	17	8	1	8	n/a	n/a	n/a	n/a	n/a
2200557	STOP	n/a	LTP263	ltpFR	14	n/a	n/a	n/a	n/a	n/a	n/a	n/a	n/a	n/a	n/a	n/a	n/a	n/a	n/a	n/a
2202509	WORD	wordpools/wasnorm_wordpool_less_exclusions.txt	LTP263	ltpFR	14	10	1	DRIVER	499	n/a	1	n/a	0	0	0	1	0.412841796875	0.57763671875	upper	../fonts/zerothre.ttf
2205521	START	n/a	LTP263	ltpFR	14	n/a	n/a	n/a	n/a	n/a	n/a	n/a	n/a	n/a	n/a	n/a	n/a	n/a	n/a	n/a
2206404	PROB	n/a	LTP263	ltpFR	14	n/a	n/a	n/a	n/a	n/a	n/a	7	3	2	2	n/a	n/a	n/a	n/a	n/a
2207718	PROB	n/a	LTP263	ltpFR	14	n/a	n/a	n/a	n/a	n/a	n/a	18	6	8	4	n/a	n/a	n/a	n/a	n/a
2209698	PROB	n/a	LTP263	ltpFR	14	n/a	n/a	n/a	n/a	n/a	n/a	22	6	6	8	n/a	n/a	n/a	n/a	n/a
2213521	STOP	n/a	LTP263	ltpFR	14	n/a	n/a	n/a	n/a	n/a	n/a	n/a	n/a	n/a	n/a	n/a	n/a	n/a	n/a	n/a
2214607	WORD	wordpools/wasnorm_wordpool_less_exclusions.txt	LTP263	ltpFR	14	10	1	LEAF	808	n/a	0	n/a	0	0	0	1	0.412841796875	0.57763671875	upper	../fonts/zerothre.ttf
2217620	START	n/a	LTP263	ltpFR	14	n/a	n/a	n/a	n/a	n/a	n/a	n/a	n/a	n/a	n/a	n/a	n/a	n/a	n/a	n/a
2218634	PROB	n/a	LTP263	ltpFR	14	n/a	n/a	n/a	n/a	n/a	n/a	23	7	8	8	n/a	n/a	n/a	n/a	n/a
2220482	PROB	n/a	LTP263	ltpFR	14	n/a	n/a	n/a	n/a	n/a	n/a	20	7	4	9	n/a	n/a	n/a	n/a	n/a
2222729	PROB	n/a	LTP263	ltpFR	14	n/a	n/a	n/a	n/a	n/a	n/a	22	8	7	5	n/a	n/a	n/a	n/a	n/a
2225142	STOP	n/a	LTP263	ltpFR	14	n/a	n/a	n/a	n/a	n/a	n/a	n/a	n/a	n/a	n/a	n/a	n/a	n/a	n/a	n/a
2226506	WORD	wordpools/wasnorm_wordpool_less_exclusions.txt	LTP263	ltpFR	14	10	1	STUMP	1396	n/a	0	n/a	0	0	0	1	0.412841796875	0.57763671875	upper	../fonts/zerothre.ttf
2229519	START	n/a	LTP263	ltpFR	14	n/a	n/a	n/a	n/a	n/a	n/a	n/a	n/a	n/a	n/a	n/a	n/a	n/a	n/a	n/a
2230385	PROB	n/a	LTP263	ltpFR	14	n/a	n/a	n/a	n/a	n/a	n/a	7	2	3	2	n/a	n/a	n/a	n/a	n/a
2232248	PROB	n/a	LTP263	ltpFR	14	n/a	n/a	n/a	n/a	n/a	n/a	11	2	7	2	n/a	n/a	n/a	n/a	n/a
2234362	PROB	n/a	LTP263	ltpFR	14	n/a	n/a	n/a	n/a	n/a	n/a	11	3	1	7	n/a	n/a	n/a	n/a	n/a
2235410	PROB	n/a	LTP263	ltpFR	14	n/a	n/a	n/a	n/a	n/a	n/a	12	2	3	7	n/a	n/a	n/a	n/a	n/a
2236422	STOP	n/a	LTP263	ltpFR	14	n/a	n/a	n/a	n/a	n/a	n/a	n/a	n/a	n/a	n/a	n/a	n/a	n/a	n/a	n/a
2238521	WORD	wordpools/wasnorm_wordpool_less_exclusions.txt	LTP263	ltpFR	14	10	1	COYOTE	396	n/a	1	n/a	0	0	0	1	0.412841796875	0.57763671875	upper	../fonts/zerothre.ttf
2241534	START	n/a	LTP263	ltpFR	14	n/a	n/a	n/a	n/a	n/a	n/a	n/a	n/a	n/a	n/a	n/a	n/a	n/a	n/a	n/a
2242465	PROB	n/a	LTP263	ltpFR	14	n/a	n/a	n/a	n/a	n/a	n/a	15	6	1	8	n/a	n/a	n/a	n/a	n/a
2244314	PROB	n/a	LTP263	ltpFR	14	n/a	n/a	n/a	n/a	n/a	n/a	17	5	8	4	n/a	n/a	n/a	n/a	n/a
2247060	PROB	n/a	LTP263	ltpFR	14	n/a	n/a	n/a	n/a	n/a	n/a	23	9	8	6	n/a	n/a	n/a	n/a	n/a
2248198	STOP	n/a	LTP263	ltpFR	14	n/a	n/a	n/a	n/a	n/a	n/a	n/a	n/a	n/a	n/a	n/a	n/a	n/a	n/a	n/a
2250355	WORD	wordpools/wasnorm_wordpool_less_exclusions.txt	LTP263	ltpFR	14	10	1	PUPIL	1143	n/a	1	n/a	0	0	0	1	0.412841796875	0.57763671875	upper	../fonts/zerothre.ttf
2253367	START	n/a	LTP263	ltpFR	14	n/a	n/a	n/a	n/a	n/a	n/a	n/a	n/a	n/a	n/a	n/a	n/a	n/a	n/a	n/a
2254531	PROB	n/a	LTP263	ltpFR	14	n/a	n/a	n/a	n/a	n/a	n/a	16	5	4	7	n/a	n/a	n/a	n/a	n/a
2256263	PROB	n/a	LTP263	ltpFR	14	n/a	n/a	n/a	n/a	n/a	n/a	23	8	6	9	n/a	n/a	n/a	n/a	n/a
2257810	PROB	n/a	LTP263	ltpFR	14	n/a	n/a	n/a	n/a	n/a	n/a	13	6	6	1	n/a	n/a	n/a	n/a	n/a
2258925	PROB	n/a	LTP263	ltpFR	14	n/a	n/a	n/a	n/a	n/a	n/a	13	2	9	1	n/a	n/a	n/a	n/a	n/a
2260685	STOP	n/a	LTP263	ltpFR	14	n/a	n/a	n/a	n/a	n/a	n/a	n/a	n/a	n/a	n/a	n/a	n/a	n/a	n/a	n/a
2262370	WORD	wordpools/wasnorm_wordpool_less_exclusions.txt	LTP263	ltpFR	14	10	1	BEARD	107	n/a	0	n/a	0	0	0	1	0.412841796875	0.57763671875	upper	../fonts/zerothre.ttf
2265383	START	n/a	LTP263	ltpFR	14	n/a	n/a	n/a	n/a	n/a	n/a	n/a	n/a	n/a	n/a	n/a	n/a	n/a	n/a	n/a
2266463	PROB	n/a	LTP263	ltpFR	14	n/a	n/a	n/a	n/a	n/a	n/a	16	6	3	7	n/a	n/a	n/a	n/a	n/a
2267945	PROB	n/a	LTP263	ltpFR	14	n/a	n/a	n/a	n/a	n/a	n/a	15	6	5	4	n/a	n/a	n/a	n/a	n/a
2269909	PROB	n/a	LTP263	ltpFR	14	n/a	n/a	n/a	n/a	n/a	n/a	11	3	4	5	n/a	n/a	n/a	n/a	n/a
2272701	STOP	n/a	LTP263	ltpFR	14	n/a	n/a	n/a	n/a	n/a	n/a	n/a	n/a	n/a	n/a	n/a	n/a	n/a	n/a	n/a
2274402	WORD	wordpools/wasnorm_wordpool_less_exclusions.txt	LTP263	ltpFR	14	10	1	PENGUIN	1044	n/a	1	n/a	0	0	0	1	0.412841796875	0.57763671875	upper	../fonts/zerothre.ttf
2277415	START	n/a	LTP263	ltpFR	14	n/a	n/a	n/a	n/a	n/a	n/a	n/a	n/a	n/a	n/a	n/a	n/a	n/a	n/a	n/a
2278263	PROB	n/a	LTP263	ltpFR	14	n/a	n/a	n/a	n/a	n/a	n/a	12	1	3	8	n/a	n/a	n/a	n/a	n/a
2280659	PROB	n/a	LTP263	ltpFR	14	n/a	n/a	n/a	n/a	n/a	n/a	17	6	9	2	n/a	n/a	n/a	n/a	n/a
2283073	PROB	n/a	LTP263	ltpFR	14	n/a	n/a	n/a	n/a	n/a	n/a	20	7	4	9	n/a	n/a	n/a	n/a	n/a
2284581	STOP	n/a	LTP263	ltpFR	14	n/a	n/a	n/a	n/a	n/a	n/a	n/a	n/a	n/a	n/a	n/a	n/a	n/a	n/a	n/a
2286500	WORD	wordpools/wasnorm_wordpool_less_exclusions.txt	LTP263	ltpFR	14	10	1	LID	817	n/a	0	n/a	0	0	0	1	0.412841796875	0.57763671875	upper	../fonts/zerothre.ttf
2289512	START	n/a	LTP263	ltpFR	14	n/a	n/a	n/a	n/a	n/a	n/a	n/a	n/a	n/a	n/a	n/a	n/a	n/a	n/a	n/a
2290460	PROB	n/a	LTP263	ltpFR	14	n/a	n/a	n/a	n/a	n/a	n/a	18	5	9	4	n/a	n/a	n/a	n/a	n/a
2292325	PROB	n/a	LTP263	ltpFR	14	n/a	n/a	n/a	n/a	n/a	n/a	11	3	4	4	n/a	n/a	n/a	n/a	n/a
2294139	PROB	n/a	LTP263	ltpFR	14	n/a	n/a	n/a	n/a	n/a	n/a	17	1	8	8	n/a	n/a	n/a	n/a	n/a
2295304	PROB	n/a	LTP263	ltpFR	14	n/a	n/a	n/a	n/a	n/a	n/a	24	9	9	6	n/a	n/a	n/a	n/a	n/a
2297485	STOP	n/a	LTP263	ltpFR	14	n/a	n/a	n/a	n/a	n/a	n/a	n/a	n/a	n/a	n/a	n/a	n/a	n/a	n/a	n/a
2298682	WORD	wordpools/wasnorm_wordpool_less_exclusions.txt	LTP263	ltpFR	14	10	1	LAPEL	800	n/a	0	n/a	0	0	0	1	0.412841796875	0.57763671875	upper	../fonts/zerothre.ttf
2301694	START	n/a	LTP263	ltpFR	14	n/a	n/a	n/a	n/a	n/a	n/a	n/a	n/a	n/a	n/a	n/a	n/a	n/a	n/a	n/a
2302642	PROB	n/a	LTP263	ltpFR	14	n/a	n/a	n/a	n/a	n/a	n/a	18	9	1	8	n/a	n/a	n/a	n/a	n/a
2304158	PROB	n/a	LTP263	ltpFR	14	n/a	n/a	n/a	n/a	n/a	n/a	19	1	9	9	n/a	n/a	n/a	n/a	n/a
2305471	PROB	n/a	LTP263	ltpFR	14	n/a	n/a	n/a	n/a	n/a	n/a	15	3	7	5	n/a	n/a	n/a	n/a	n/a
2306487	PROB	n/a	LTP263	ltpFR	14	n/a	n/a	n/a	n/a	n/a	n/a	12	3	8	1	n/a	n/a	n/a	n/a	n/a
2307752	PROB	n/a	LTP263	ltpFR	14	n/a	n/a	n/a	n/a	n/a	n/a	12	2	7	3	n/a	n/a	n/a	n/a	n/a
2308685	STOP	n/a	LTP263	ltpFR	14	n/a	n/a	n/a	n/a	n/a	n/a	n/a	n/a	n/a	n/a	n/a	n/a	n/a	n/a	n/a
2310697	WORD	wordpools/wasnorm_wordpool_less_exclusions.txt	LTP263	ltpFR	14	10	1	SKIRT	1319	n/a	0	n/a	0	0	0	1	0.412841796875	0.57763671875	upper	../fonts/zerothre.ttf
2313711	START	n/a	LTP263	ltpFR	14	n/a	n/a	n/a	n/a	n/a	n/a	n/a	n/a	n/a	n/a	n/a	n/a	n/a	n/a	n/a
2314809	PROB	n/a	LTP263	ltpFR	14	n/a	n/a	n/a	n/a	n/a	n/a	11	4	5	2	n/a	n/a	n/a	n/a	n/a
2316190	PROB	n/a	LTP263	ltpFR	14	n/a	n/a	n/a	n/a	n/a	n/a	17	5	6	6	n/a	n/a	n/a	n/a	n/a
2319185	PROB	n/a	LTP263	ltpFR	14	n/a	n/a	n/a	n/a	n/a	n/a	11	7	3	1	n/a	n/a	n/a	n/a	n/a
2321711	STOP	n/a	LTP263	ltpFR	14	n/a	n/a	n/a	n/a	n/a	n/a	n/a	n/a	n/a	n/a	n/a	n/a	n/a	n/a	n/a
2322596	WORD	wordpools/wasnorm_wordpool_less_exclusions.txt	LTP263	ltpFR	14	10	1	ERASER	538	n/a	0	n/a	0	0	0	1	0.412841796875	0.57763671875	upper	../fonts/zerothre.ttf
2325608	START	n/a	LTP263	ltpFR	14	n/a	n/a	n/a	n/a	n/a	n/a	n/a	n/a	n/a	n/a	n/a	n/a	n/a	n/a	n/a
2326424	PROB	n/a	LTP263	ltpFR	14	n/a	n/a	n/a	n/a	n/a	n/a	16	3	4	9	n/a	n/a	n/a	n/a	n/a
2327939	PROB	n/a	LTP263	ltpFR	14	n/a	n/a	n/a	n/a	n/a	n/a	14	3	8	3	n/a	n/a	n/a	n/a	n/a
2331151	PROB	n/a	LTP263	ltpFR	14	n/a	n/a	n/a	n/a	n/a	n/a	16	2	8	6	n/a	n/a	n/a	n/a	n/a
2332302	STOP	n/a	LTP263	ltpFR	14	n/a	n/a	n/a	n/a	n/a	n/a	n/a	n/a	n/a	n/a	n/a	n/a	n/a	n/a	n/a
2334495	WORD	wordpools/wasnorm_wordpool_less_exclusions.txt	LTP263	ltpFR	14	10	1	INSTRUCTOR	741	n/a	0	n/a	0	0	0	1	0.412841796875	0.57763671875	upper	../fonts/zerothre.ttf
2337507	START	n/a	LTP263	ltpFR	14	n/a	n/a	n/a	n/a	n/a	n/a	n/a	n/a	n/a	n/a	n/a	n/a	n/a	n/a	n/a
2338688	PROB	n/a	LTP263	ltpFR	14	n/a	n/a	n/a	n/a	n/a	n/a	7	4	2	1	n/a	n/a	n/a	n/a	n/a
2342184	PROB	n/a	LTP263	ltpFR	14	n/a	n/a	n/a	n/a	n/a	n/a	17	9	4	4	n/a	n/a	n/a	n/a	n/a
2344030	STOP	n/a	LTP263	ltpFR	14	n/a	n/a	n/a	n/a	n/a	n/a	n/a	n/a	n/a	n/a	n/a	n/a	n/a	n/a	n/a
2346560	WORD	wordpools/wasnorm_wordpool_less_exclusions.txt	LTP263	ltpFR	14	10	1	OREGANO	983	n/a	1	n/a	0	0	0	1	0.412841796875	0.57763671875	upper	../fonts/zerothre.ttf
2349573	START	n/a	LTP263	ltpFR	14	n/a	n/a	n/a	n/a	n/a	n/a	n/a	n/a	n/a	n/a	n/a	n/a	n/a	n/a	n/a
2350439	PROB	n/a	LTP263	ltpFR	14	n/a	n/a	n/a	n/a	n/a	n/a	11	3	7	1	n/a	n/a	n/a	n/a	n/a
2351619	PROB	n/a	LTP263	ltpFR	14	n/a	n/a	n/a	n/a	n/a	n/a	23	6	7	9	n/a	n/a	n/a	n/a	n/a
2355714	PROB	n/a	LTP263	ltpFR	14	n/a	n/a	n/a	n/a	n/a	n/a	18	8	2	8	n/a	n/a	n/a	n/a	n/a
2357246	STOP	n/a	LTP263	ltpFR	14	n/a	n/a	n/a	n/a	n/a	n/a	n/a	n/a	n/a	n/a	n/a	n/a	n/a	n/a	n/a
2358509	WORD	wordpools/wasnorm_wordpool_less_exclusions.txt	LTP263	ltpFR	14	10	1	COLLAR	345	n/a	0	n/a	0	0	0	1	0.412841796875	0.57763671875	upper	../fonts/zerothre.ttf
2361521	START	n/a	LTP263	ltpFR	14	n/a	n/a	n/a	n/a	n/a	n/a	n/a	n/a	n/a	n/a	n/a	n/a	n/a	n/a	n/a
2362737	PROB	n/a	LTP263	ltpFR	14	n/a	n/a	n/a	n/a	n/a	n/a	11	5	3	3	n/a	n/a	n/a	n/a	n/a
2364168	PROB	n/a	LTP263	ltpFR	14	n/a	n/a	n/a	n/a	n/a	n/a	15	7	6	2	n/a	n/a	n/a	n/a	n/a
2365749	PROB	n/a	LTP263	ltpFR	14	n/a	n/a	n/a	n/a	n/a	n/a	13	3	9	1	n/a	n/a	n/a	n/a	n/a
2366814	PROB	n/a	LTP263	ltpFR	14	n/a	n/a	n/a	n/a	n/a	n/a	13	4	2	7	n/a	n/a	n/a	n/a	n/a
2368565	STOP	n/a	LTP263	ltpFR	14	n/a	n/a	n/a	n/a	n/a	n/a	n/a	n/a	n/a	n/a	n/a	n/a	n/a	n/a	n/a
2370691	WORD	wordpools/wasnorm_wordpool_less_exclusions.txt	LTP263	ltpFR	14	10	1	ROBE	1198	n/a	0	n/a	0	0	0	1	0.412841796875	0.57763671875	upper	../fonts/zerothre.ttf
2373703	START	n/a	LTP263	ltpFR	14	n/a	n/a	n/a	n/a	n/a	n/a	n/a	n/a	n/a	n/a	n/a	n/a	n/a	n/a	n/a
2374602	PROB	n/a	LTP263	ltpFR	14	n/a	n/a	n/a	n/a	n/a	n/a	18	3	8	7	n/a	n/a	n/a	n/a	n/a
2377149	PROB	n/a	LTP263	ltpFR	14	n/a	n/a	n/a	n/a	n/a	n/a	18	5	8	5	n/a	n/a	n/a	n/a	n/a
2378230	PROB	n/a	LTP263	ltpFR	14	n/a	n/a	n/a	n/a	n/a	n/a	13	6	4	3	n/a	n/a	n/a	n/a	n/a
2379262	PROB	n/a	LTP263	ltpFR	14	n/a	n/a	n/a	n/a	n/a	n/a	19	7	3	9	n/a	n/a	n/a	n/a	n/a
2380453	STOP	n/a	LTP263	ltpFR	14	n/a	n/a	n/a	n/a	n/a	n/a	n/a	n/a	n/a	n/a	n/a	n/a	n/a	n/a	n/a
2382824	WORD	wordpools/wasnorm_wordpool_less_exclusions.txt	LTP263	ltpFR	14	10	1	CHAUFFEUR	283	n/a	1	n/a	0	0	0	1	0.412841796875	0.57763671875	upper	../fonts/zerothre.ttf
2385836	START	n/a	LTP263	ltpFR	14	n/a	n/a	n/a	n/a	n/a	n/a	n/a	n/a	n/a	n/a	n/a	n/a	n/a	n/a	n/a
2386967	PROB	n/a	LTP263	ltpFR	14	n/a	n/a	n/a	n/a	n/a	n/a	12	4	4	4	n/a	n/a	n/a	n/a	n/a
2387999	PROB	n/a	LTP263	ltpFR	14	n/a	n/a	n/a	n/a	n/a	n/a	15	5	1	9	n/a	n/a	n/a	n/a	n/a
2389447	PROB	n/a	LTP263	ltpFR	14	n/a	n/a	n/a	n/a	n/a	n/a	17	8	3	6	n/a	n/a	n/a	n/a	n/a
2393836	STOP	n/a	LTP263	ltpFR	14	n/a	n/a	n/a	n/a	n/a	n/a	n/a	n/a	n/a	n/a	n/a	n/a	n/a	n/a	n/a
2395771	REC_START	n/a	LTP263	ltpFR	14	10	n/a	n/a	n/a	n/a	n/a	n/a	0	0	0	n/a	n/a	n/a	n/a	n/a
2397143	REC_WORD	wordpools/wasnorm_wordpool_less_exclusions.txt	LTP263	ltpFR	14	10	1	ROBE	1198	n/a	0	n/a	0	0	0	n/a	n/a	n/a	n/a	n/a
2398068	REC_WORD	wordpools/wasnorm_wordpool_less_exclusions.txt	LTP263	ltpFR	14	10	1	COLLAR	345	n/a	0	n/a	0	0	0	n/a	n/a	n/a	n/a	n/a
2399079	REC_WORD_VV	wordpools/wasnorm_wordpool_less_exclusions.txt	LTP263	ltpFR	14	10	n/a	<>	-1	n/a	n/a	n/a	0	0	0	n/a	n/a	n/a	n/a	n/a
2399698	REC_WORD	wordpools/wasnorm_wordpool_less_exclusions.txt	LTP263	ltpFR	14	10	1	CHAUFFEUR	283	n/a	1	n/a	0	0	0	n/a	n/a	n/a	n/a	n/a
2407842	REC_WORD	wordpools/wasnorm_wordpool_less_exclusions.txt	LTP263	ltpFR	14	10	1	OREGANO	983	n/a	1	n/a	0	0	0	n/a	n/a	n/a	n/a	n/a
2418359	REC_WORD	wordpools/wasnorm_wordpool_less_exclusions.txt	LTP263	ltpFR	14	10	1	PENGUIN	1044	n/a	1	n/a	0	0	0	n/a	n/a	n/a	n/a	n/a
2471391	REST_REWET	n/a	LTP263	ltpFR	14	10	n/a	n/a	n/a	n/a	n/a	n/a	0	0	0	n/a	n/a	n/a	n/a	n/a
3089302	WORD	wordpools/wasnorm_wordpool_less_exclusions.txt	LTP263	ltpFR	14	11	1	CHIMNEY	301	n/a	0	n/a	0	0	0	1	0.412841796875	0.57763671875	upper	../fonts/zerothre.ttf
3093263	WORD	wordpools/wasnorm_wordpool_less_exclusions.txt	LTP263	ltpFR	14	11	1	COMMUNITY	356	n/a	1	n/a	0	0	0	1	0.412841796875	0.57763671875	upper	../fonts/zerothre.ttf
3097455	WORD	wordpools/wasnorm_wordpool_less_exclusions.txt	LTP263	ltpFR	14	11	1	BOULDER	155	n/a	0	n/a	0	0	0	1	0.412841796875	0.57763671875	upper	../fonts/zerothre.ttf
3101533	WORD	wordpools/wasnorm_wordpool_less_exclusions.txt	LTP263	ltpFR	14	11	1	SHRIMP	1297	n/a	1	n/a	0	0	0	1	0.412841796875	0.57763671875	upper	../fonts/zerothre.ttf
3105660	WORD	wordpools/wasnorm_wordpool_less_exclusions.txt	LTP263	ltpFR	14	11	0	CIGAR	308	n/a	0	n/a	0	0	0	0	0.5869140625	0.422607421875	lower	../fonts/amplitud.ttf
3109687	WORD	wordpools/wasnorm_wordpool_less_exclusions.txt	LTP263	ltpFR	14	11	0	CATCHER	258	n/a	1	n/a	0	0	0	0	0.5869140625	0.422607421875	lower	../fonts/amplitud.ttf
3113681	WORD	wordpools/wasnorm_wordpool_less_exclusions.txt	LTP263	ltpFR	14	11	1	BOWL	158	n/a	0	n/a	0	0	0	1	0.412841796875	0.57763671875	upper	../fonts/zerothre.ttf
3117592	WORD	wordpools/wasnorm_wordpool_less_exclusions.txt	LTP263	ltpFR	14	11	1	FAN	551	n/a	0	n/a	0	0	0	1	0.412841796875	0.57763671875	upper	../fonts/zerothre.ttf
3121619	WORD	wordpools/wasnorm_wordpool_less_exclusions.txt	LTP263	ltpFR	14	11	1	WASHCLOTH	1591	n/a	0	n/a	0	0	0	1	0.412841796875	0.57763671875	upper	../fonts/zerothre.ttf
3125646	WORD	wordpools/wasnorm_wordpool_less_exclusions.txt	LTP263	ltpFR	14	11	1	BANKER	84	n/a	1	n/a	0	0	0	1	0.412841796875	0.57763671875	upper	../fonts/zerothre.ttf
3129758	WORD	wordpools/wasnorm_wordpool_less_exclusions.txt	LTP263	ltpFR	14	11	0	WALLET	1583	n/a	0	n/a	0	0	0	0	0.5869140625	0.422607421875	lower	../fonts/amplitud.ttf
3133701	WORD	wordpools/wasnorm_wordpool_less_exclusions.txt	LTP263	ltpFR	14	11	0	COBBLER	335	n/a	0	n/a	0	0	0	0	0.5869140625	0.422607421875	lower	../fonts/amplitud.ttf
3137645	WORD	wordpools/wasnorm_wordpool_less_exclusions.txt	LTP263	ltpFR	14	11	0	KIWI	781	n/a	0	n/a	0	0	0	0	0.5869140625	0.422607421875	lower	../fonts/amplitud.ttf
3141656	WORD	wordpools/wasnorm_wordpool_less_exclusions.txt	LTP263	ltpFR	14	11	0	CLIMBER	323	n/a	1	n/a	0	0	0	0	0.5869140625	0.422607421875	lower	../fonts/amplitud.ttf
3145567	WORD	wordpools/wasnorm_wordpool_less_exclusions.txt	LTP263	ltpFR	14	11	0	FIN	566	n/a	0	n/a	0	0	0	0	0.5869140625	0.422607421875	lower	../fonts/amplitud.ttf
3149711	WORD	wordpools/wasnorm_wordpool_less_exclusions.txt	LTP263	ltpFR	14	11	0	TUNNEL	1519	n/a	1	n/a	0	0	0	0	0.5869140625	0.422607421875	lower	../fonts/amplitud.ttf
