onset	duration	trial_type	sample	stim_file	subject	experiment	session	trial	task	item_name	item_num	recog_resp	recog_conf	resp	color_r	color_g	color_b	case	font
246.81	n/a	SESS_START	123405	n/a	LTP271	ltpFR	4	n/a	n/a	n/a	n/a	0	n/a	n/a	n/a	n/a	n/a	n/a	n/a
291.6	n/a	WORD	145800	wordpools/wasnorm_wordpool_less_exclusions.txt	LTP271	ltpFR	4	1	1	HOUND	724	n/a	n/a	1	0.57763671875	0.412841796875	1	lower	amplitud.ttf
295.488	n/a	WORD	147744	wordpools/wasnorm_wordpool_less_exclusions.txt	LTP271	ltpFR	4	1	1	FUR	615	n/a	n/a	0	0.57763671875	0.412841796875	1	lower	amplitud.ttf
299.43	n/a	WORD	149715	wordpools/wasnorm_wordpool_less_exclusions.txt	LTP271	ltpFR	4	1	1	DISH	474	n/a	n/a	0	0.57763671875	0.412841796875	1	lower	amplitud.ttf
303.368	n/a	WORD	151684	wordpools/wasnorm_wordpool_less_exclusions.txt	LTP271	ltpFR	4	1	1	GANG	619	n/a	n/a	0	0.57763671875	0.412841796875	1	lower	amplitud.ttf
307.366	n/a	WORD	153683	wordpools/wasnorm_wordpool_less_exclusions.txt	LTP271	ltpFR	4	1	0	REBEL	1172	n/a	n/a	1	0.422607421875	0.5869140625	0	upper	zerothre.ttf
311.526	n/a	WORD	155763	wordpools/wasnorm_wordpool_less_exclusions.txt	LTP271	ltpFR	4	1	0	COYOTE	396	n/a	n/a	1	0.422607421875	0.5869140625	0	upper	zerothre.ttf
315.714	n/a	WORD	157857	wordpools/wasnorm_wordpool_less_exclusions.txt	LTP271	ltpFR	4	1	0	ORCHESTRA	981	n/a	n/a	1	0.422607421875	0.5869140625	0	upper	zerothre.ttf
319.832	n/a	WORD	159916	wordpools/wasnorm_wordpool_less_exclusions.txt	LTP271	ltpFR	4	1	1	DRUM	502	n/a	n/a	0	0.57763671875	0.412841796875	1	lower	amplitud.ttf
323.924	n/a	WORD	161962	wordpools/wasnorm_wordpool_less_exclusions.txt	LTP271	ltpFR	4	1	1	LETTER	813	n/a	n/a	0	0.57763671875	0.412841796875	1	lower	amplitud.ttf
327.862	n/a	WORD	163931	wordpools/wasnorm_wordpool_less_exclusions.txt	LTP271	ltpFR	4	1	1	PIT	1077	n/a	n/a	0	0.57763671875	0.412841796875	1	lower	amplitud.ttf
331.872	n/a	WORD	165936	wordpools/wasnorm_wordpool_less_exclusions.txt	LTP271	ltpFR	4	1	1	SHOVEL	1295	n/a	n/a	0	0.57763671875	0.412841796875	1	lower	amplitud.ttf
335.886	n/a	WORD	167943	wordpools/wasnorm_wordpool_less_exclusions.txt	LTP271	ltpFR	4	1	0	STUMP	1396	n/a	n/a	1	0.422607421875	0.5869140625	0	upper	zerothre.ttf
340.058	n/a	WORD	170029	wordpools/wasnorm_wordpool_less_exclusions.txt	LTP271	ltpFR	4	1	0	SIDING	1304	n/a	n/a	1	0.422607421875	0.5869140625	0	upper	zerothre.ttf
344.024	n/a	WORD	172012	wordpools/wasnorm_wordpool_less_exclusions.txt	LTP271	ltpFR	4	1	0	PIGMENT	1066	n/a	n/a	0	0.422607421875	0.5869140625	0	upper	zerothre.ttf
348.206	n/a	WORD	174103	wordpools/wasnorm_wordpool_less_exclusions.txt	LTP271	ltpFR	4	1	0	PARCEL	1012	n/a	n/a	0	0.422607421875	0.5869140625	0	upper	zerothre.ttf
352.404	n/a	WORD	176202	wordpools/wasnorm_wordpool_less_exclusions.txt	LTP271	ltpFR	4	1	0	ALLIGATOR	16	n/a	n/a	1	0.422607421875	0.5869140625	0	upper	zerothre.ttf
358.178	n/a	REC_START	179089	n/a	LTP271	ltpFR	4	1	n/a	n/a	n/a	n/a	n/a	n/a	n/a	n/a	n/a	n/a	n/a
359.526	n/a	REC_WORD	179763	wordpools/wasnorm_wordpool_less_exclusions.txt	LTP271	ltpFR	4	1	0	ALLIGATOR	16	n/a	n/a	1	n/a	n/a	n/a	n/a	n/a
360.676	n/a	REC_WORD	180338	wordpools/wasnorm_wordpool_less_exclusions.txt	LTP271	ltpFR	4	1	1	HOUND	724	n/a	n/a	1	n/a	n/a	n/a	n/a	n/a
361.92	n/a	REC_WORD	180960	wordpools/wasnorm_wordpool_less_exclusions.txt	LTP271	ltpFR	4	1	1	FUR	615	n/a	n/a	0	n/a	n/a	n/a	n/a	n/a
363.604	n/a	REC_WORD	181802	wordpools/wasnorm_wordpool_less_exclusions.txt	LTP271	ltpFR	4	1	0	REBEL	1172	n/a	n/a	1	n/a	n/a	n/a	n/a	n/a
365.358	n/a	REC_WORD	182679	wordpools/wasnorm_wordpool_less_exclusions.txt	LTP271	ltpFR	4	1	0	COYOTE	396	n/a	n/a	1	n/a	n/a	n/a	n/a	n/a
367.26	n/a	REC_WORD	183630	wordpools/wasnorm_wordpool_less_exclusions.txt	LTP271	ltpFR	4	1	0	ORCHESTRA	981	n/a	n/a	1	n/a	n/a	n/a	n/a	n/a
369.464	n/a	REC_WORD	184732	wordpools/wasnorm_wordpool_less_exclusions.txt	LTP271	ltpFR	4	1	0	PARCEL	1012	n/a	n/a	0	n/a	n/a	n/a	n/a	n/a
373.028	n/a	REC_WORD	186514	wordpools/wasnorm_wordpool_less_exclusions.txt	LTP271	ltpFR	4	1	0	SIDING	1304	n/a	n/a	1	n/a	n/a	n/a	n/a	n/a
414.9	n/a	REC_WORD	207450	wordpools/wasnorm_wordpool_less_exclusions.txt	LTP271	ltpFR	4	1	1	SHOVEL	1295	n/a	n/a	0	n/a	n/a	n/a	n/a	n/a
437.816	n/a	WORD	218908	wordpools/wasnorm_wordpool_less_exclusions.txt	LTP271	ltpFR	4	2	0	CONTRACTOR	369	n/a	n/a	1	0.422607421875	0.5869140625	0	upper	zerothre.ttf
441.68	n/a	WORD	220840	wordpools/wasnorm_wordpool_less_exclusions.txt	LTP271	ltpFR	4	2	0	PREACHER	1119	n/a	n/a	1	0.422607421875	0.5869140625	0	upper	zerothre.ttf
445.828	n/a	WORD	222914	wordpools/wasnorm_wordpool_less_exclusions.txt	LTP271	ltpFR	4	2	1	CANOE	233	n/a	n/a	0	0.57763671875	0.412841796875	1	lower	amplitud.ttf
449.828	n/a	WORD	224914	wordpools/wasnorm_wordpool_less_exclusions.txt	LTP271	ltpFR	4	2	1	PADDLE	1000	n/a	n/a	0	0.57763671875	0.412841796875	1	lower	amplitud.ttf
454.01	n/a	WORD	227005	wordpools/wasnorm_wordpool_less_exclusions.txt	LTP271	ltpFR	4	2	1	PLAID	1080	n/a	n/a	0	0.57763671875	0.412841796875	1	lower	amplitud.ttf
458.06	n/a	WORD	229030	wordpools/wasnorm_wordpool_less_exclusions.txt	LTP271	ltpFR	4	2	1	CLOTHES	327	n/a	n/a	0	0.57763671875	0.412841796875	1	lower	amplitud.ttf
462.174	n/a	WORD	231087	wordpools/wasnorm_wordpool_less_exclusions.txt	LTP271	ltpFR	4	2	1	STATUE	1374	n/a	n/a	0	0.57763671875	0.412841796875	1	lower	amplitud.ttf
466.018	n/a	WORD	233009	wordpools/wasnorm_wordpool_less_exclusions.txt	LTP271	ltpFR	4	2	0	BRANCH	168	n/a	n/a	1	0.422607421875	0.5869140625	0	upper	zerothre.ttf
469.982	n/a	WORD	234991	wordpools/wasnorm_wordpool_less_exclusions.txt	LTP271	ltpFR	4	2	0	TOOTHPASTE	1483	n/a	n/a	0	0.422607421875	0.5869140625	0	upper	zerothre.ttf
473.832	n/a	WORD	236916	wordpools/wasnorm_wordpool_less_exclusions.txt	LTP271	ltpFR	4	2	0	PEN	1041	n/a	n/a	0	0.422607421875	0.5869140625	0	upper	zerothre.ttf
477.7	n/a	WORD	238850	wordpools/wasnorm_wordpool_less_exclusions.txt	LTP271	ltpFR	4	2	0	BOARD	143	n/a	n/a	1	0.422607421875	0.5869140625	0	upper	zerothre.ttf
481.912	n/a	WORD	240956	wordpools/wasnorm_wordpool_less_exclusions.txt	LTP271	ltpFR	4	2	1	SKATE	1313	n/a	n/a	0	0.57763671875	0.412841796875	1	lower	amplitud.ttf
485.814	n/a	WORD	242907	wordpools/wasnorm_wordpool_less_exclusions.txt	LTP271	ltpFR	4	2	1	VET	1560	n/a	n/a	1	0.57763671875	0.412841796875	1	lower	amplitud.ttf
489.664	n/a	WORD	244832	wordpools/wasnorm_wordpool_less_exclusions.txt	LTP271	ltpFR	4	2	1	OX	994	n/a	n/a	1	0.57763671875	0.412841796875	1	lower	amplitud.ttf
493.628	n/a	WORD	246814	wordpools/wasnorm_wordpool_less_exclusions.txt	LTP271	ltpFR	4	2	0	CONVENT	370	n/a	n/a	1	0.422607421875	0.5869140625	0	upper	zerothre.ttf
497.594	n/a	WORD	248797	wordpools/wasnorm_wordpool_less_exclusions.txt	LTP271	ltpFR	4	2	0	MARINE	869	n/a	n/a	1	0.422607421875	0.5869140625	0	upper	zerothre.ttf
503.562	n/a	REC_START	251781	n/a	LTP271	ltpFR	4	2	n/a	n/a	n/a	n/a	n/a	n/a	n/a	n/a	n/a	n/a	n/a
504.642	n/a	REC_WORD	252321	wordpools/wasnorm_wordpool_less_exclusions.txt	LTP271	ltpFR	4	2	0	MARINE	869	n/a	n/a	1	n/a	n/a	n/a	n/a	n/a
505.994	n/a	REC_WORD	252997	wordpools/wasnorm_wordpool_less_exclusions.txt	LTP271	ltpFR	4	2	0	PREACHER	1119	n/a	n/a	1	n/a	n/a	n/a	n/a	n/a
507.52	n/a	REC_WORD	253760	wordpools/wasnorm_wordpool_less_exclusions.txt	LTP271	ltpFR	4	2	0	CONVENT	370	n/a	n/a	1	n/a	n/a	n/a	n/a	n/a
508.978	n/a	REC_WORD	254489	wordpools/wasnorm_wordpool_less_exclusions.txt	LTP271	ltpFR	4	2	0	PEN	1041	n/a	n/a	0	n/a	n/a	n/a	n/a	n/a
512.508	n/a	REC_WORD	256254	wordpools/wasnorm_wordpool_less_exclusions.txt	LTP271	ltpFR	4	2	0	BRANCH	168	n/a	n/a	1	n/a	n/a	n/a	n/a	n/a
584.438	n/a	WORD	292219	wordpools/wasnorm_wordpool_less_exclusions.txt	LTP271	ltpFR	4	3	1	WARDROBE	1587	n/a	n/a	0	0.57763671875	0.412841796875	1	lower	amplitud.ttf
588.658	n/a	WORD	294329	wordpools/wasnorm_wordpool_less_exclusions.txt	LTP271	ltpFR	4	3	1	HANGER	687	n/a	n/a	0	0.57763671875	0.412841796875	1	lower	amplitud.ttf
592.69	n/a	WORD	296345	wordpools/wasnorm_wordpool_less_exclusions.txt	LTP271	ltpFR	4	3	1	BRACES	164	n/a	n/a	0	0.57763671875	0.412841796875	1	lower	amplitud.ttf
596.85	n/a	WORD	298425	wordpools/wasnorm_wordpool_less_exclusions.txt	LTP271	ltpFR	4	3	1	LOUNGE	845	n/a	n/a	0	0.57763671875	0.412841796875	1	lower	amplitud.ttf
600.938	n/a	WORD	300469	wordpools/wasnorm_wordpool_less_exclusions.txt	LTP271	ltpFR	4	3	1	BARTENDER	92	n/a	n/a	1	0.57763671875	0.412841796875	1	lower	amplitud.ttf
605.154	n/a	WORD	302577	wordpools/wasnorm_wordpool_less_exclusions.txt	LTP271	ltpFR	4	3	1	COAT	333	n/a	n/a	0	0.57763671875	0.412841796875	1	lower	amplitud.ttf
609.198	n/a	WORD	304599	wordpools/wasnorm_wordpool_less_exclusions.txt	LTP271	ltpFR	4	3	1	BUFFALO	186	n/a	n/a	1	0.57763671875	0.412841796875	1	lower	amplitud.ttf
613.062	n/a	WORD	306531	wordpools/wasnorm_wordpool_less_exclusions.txt	LTP271	ltpFR	4	3	1	WALRUS	1585	n/a	n/a	1	0.57763671875	0.412841796875	1	lower	amplitud.ttf
616.916	n/a	WORD	308458	wordpools/wasnorm_wordpool_less_exclusions.txt	LTP271	ltpFR	4	3	1	CRATER	400	n/a	n/a	0	0.57763671875	0.412841796875	1	lower	amplitud.ttf
620.742	n/a	WORD	310371	wordpools/wasnorm_wordpool_less_exclusions.txt	LTP271	ltpFR	4	3	1	JACKET	747	n/a	n/a	0	0.57763671875	0.412841796875	1	lower	amplitud.ttf
624.942	n/a	WORD	312471	wordpools/wasnorm_wordpool_less_exclusions.txt	LTP271	ltpFR	4	3	1	SENATOR	1268	n/a	n/a	1	0.57763671875	0.412841796875	1	lower	amplitud.ttf
628.996	n/a	WORD	314498	wordpools/wasnorm_wordpool_less_exclusions.txt	LTP271	ltpFR	4	3	1	GARDEN	623	n/a	n/a	1	0.57763671875	0.412841796875	1	lower	amplitud.ttf
632.86	n/a	WORD	316430	wordpools/wasnorm_wordpool_less_exclusions.txt	LTP271	ltpFR	4	3	1	NOTEBOOK	959	n/a	n/a	0	0.57763671875	0.412841796875	1	lower	amplitud.ttf
636.692	n/a	WORD	318346	wordpools/wasnorm_wordpool_less_exclusions.txt	LTP271	ltpFR	4	3	1	BAG	69	n/a	n/a	0	0.57763671875	0.412841796875	1	lower	amplitud.ttf
640.656	n/a	WORD	320328	wordpools/wasnorm_wordpool_less_exclusions.txt	LTP271	ltpFR	4	3	1	SEAFOOD	1260	n/a	n/a	0	0.57763671875	0.412841796875	1	lower	amplitud.ttf
644.656	n/a	WORD	322328	wordpools/wasnorm_wordpool_less_exclusions.txt	LTP271	ltpFR	4	3	1	PRIMATE	1123	n/a	n/a	1	0.57763671875	0.412841796875	1	lower	amplitud.ttf
650.478	n/a	REC_START	325239	n/a	LTP271	ltpFR	4	3	n/a	n/a	n/a	n/a	n/a	n/a	n/a	n/a	n/a	n/a	n/a
651.74	n/a	REC_WORD	325870	wordpools/wasnorm_wordpool_less_exclusions.txt	LTP271	ltpFR	4	3	1	PRIMATE	1123	n/a	n/a	1	n/a	n/a	n/a	n/a	n/a
653.764	n/a	REC_WORD	326882	wordpools/wasnorm_wordpool_less_exclusions.txt	LTP271	ltpFR	4	3	1	BARTENDER	92	n/a	n/a	1	n/a	n/a	n/a	n/a	n/a
655.19	n/a	REC_WORD	327595	wordpools/wasnorm_wordpool_less_exclusions.txt	LTP271	ltpFR	4	3	1	LOUNGE	845	n/a	n/a	0	n/a	n/a	n/a	n/a	n/a
686.882	n/a	REC_WORD	343441	wordpools/wasnorm_wordpool_less_exclusions.txt	LTP271	ltpFR	4	3	0	MARINE	869	n/a	n/a	1	n/a	n/a	n/a	n/a	n/a
731.096	n/a	WORD	365548	wordpools/wasnorm_wordpool_less_exclusions.txt	LTP271	ltpFR	4	4	-1	CROCODILE	411	n/a	n/a	-1	1.0	1.0	1	upper	Verdana.ttf
735.012	n/a	WORD	367506	wordpools/wasnorm_wordpool_less_exclusions.txt	LTP271	ltpFR	4	4	-1	APPENDAGE	32	n/a	n/a	-1	1.0	1.0	1	upper	Verdana.ttf
738.844	n/a	WORD	369422	wordpools/wasnorm_wordpool_less_exclusions.txt	LTP271	ltpFR	4	4	-1	BASKETBALL	96	n/a	n/a	-1	1.0	1.0	1	upper	Verdana.ttf
742.73	n/a	WORD	371365	wordpools/wasnorm_wordpool_less_exclusions.txt	LTP271	ltpFR	4	4	-1	ROSE	1212	n/a	n/a	-1	1.0	1.0	1	upper	Verdana.ttf
746.646	n/a	WORD	373323	wordpools/wasnorm_wordpool_less_exclusions.txt	LTP271	ltpFR	4	4	-1	JOINT	758	n/a	n/a	-1	1.0	1.0	1	upper	Verdana.ttf
750.56	n/a	WORD	375280	wordpools/wasnorm_wordpool_less_exclusions.txt	LTP271	ltpFR	4	4	-1	SEAL	1262	n/a	n/a	-1	1.0	1.0	1	upper	Verdana.ttf
754.708	n/a	WORD	377354	wordpools/wasnorm_wordpool_less_exclusions.txt	LTP271	ltpFR	4	4	-1	STRAWBERRY	1391	n/a	n/a	-1	1.0	1.0	1	upper	Verdana.ttf
758.686	n/a	WORD	379343	wordpools/wasnorm_wordpool_less_exclusions.txt	LTP271	ltpFR	4	4	-1	APPLE	33	n/a	n/a	-1	1.0	1.0	1	upper	Verdana.ttf
762.64	n/a	WORD	381320	wordpools/wasnorm_wordpool_less_exclusions.txt	LTP271	ltpFR	4	4	-1	STRAW	1390	n/a	n/a	-1	1.0	1.0	1	upper	Verdana.ttf
766.734	n/a	WORD	383367	wordpools/wasnorm_wordpool_less_exclusions.txt	LTP271	ltpFR	4	4	-1	SHACK	1273	n/a	n/a	-1	1.0	1.0	1	upper	Verdana.ttf
770.698	n/a	WORD	385349	wordpools/wasnorm_wordpool_less_exclusions.txt	LTP271	ltpFR	4	4	-1	SQUID	1361	n/a	n/a	-1	1.0	1.0	1	upper	Verdana.ttf
774.72	n/a	WORD	387360	wordpools/wasnorm_wordpool_less_exclusions.txt	LTP271	ltpFR	4	4	-1	CENT	270	n/a	n/a	-1	1.0	1.0	1	upper	Verdana.ttf
778.63	n/a	WORD	389315	wordpools/wasnorm_wordpool_less_exclusions.txt	LTP271	ltpFR	4	4	-1	HOOD	714	n/a	n/a	-1	1.0	1.0	1	upper	Verdana.ttf
782.628	n/a	WORD	391314	wordpools/wasnorm_wordpool_less_exclusions.txt	LTP271	ltpFR	4	4	-1	VAN	1548	n/a	n/a	-1	1.0	1.0	1	upper	Verdana.ttf
786.676	n/a	WORD	393338	wordpools/wasnorm_wordpool_less_exclusions.txt	LTP271	ltpFR	4	4	-1	STADIUM	1364	n/a	n/a	-1	1.0	1.0	1	upper	Verdana.ttf
790.546	n/a	WORD	395273	wordpools/wasnorm_wordpool_less_exclusions.txt	LTP271	ltpFR	4	4	-1	FAIRY	549	n/a	n/a	-1	1.0	1.0	1	upper	Verdana.ttf
796.436	n/a	REC_START	398218	n/a	LTP271	ltpFR	4	4	n/a	n/a	n/a	n/a	n/a	n/a	n/a	n/a	n/a	n/a	n/a
797.72	n/a	REC_WORD	398860	wordpools/wasnorm_wordpool_less_exclusions.txt	LTP271	ltpFR	4	4	-1	FAIRY	549	n/a	n/a	-1	n/a	n/a	n/a	n/a	n/a
798.822	n/a	REC_WORD	399411	wordpools/wasnorm_wordpool_less_exclusions.txt	LTP271	ltpFR	4	4	-1	STADIUM	1364	n/a	n/a	-1	n/a	n/a	n/a	n/a	n/a
800.17	n/a	REC_WORD	400085	wordpools/wasnorm_wordpool_less_exclusions.txt	LTP271	ltpFR	4	4	-1	CROCODILE	411	n/a	n/a	-1	n/a	n/a	n/a	n/a	n/a
802.026	n/a	REC_WORD	401013	wordpools/wasnorm_wordpool_less_exclusions.txt	LTP271	ltpFR	4	4	-1	APPENDAGE	32	n/a	n/a	-1	n/a	n/a	n/a	n/a	n/a
803.508	n/a	REC_WORD	401754	wordpools/wasnorm_wordpool_less_exclusions.txt	LTP271	ltpFR	4	4	-1	JOINT	758	n/a	n/a	-1	n/a	n/a	n/a	n/a	n/a
806.374	n/a	REC_WORD	403187	wordpools/wasnorm_wordpool_less_exclusions.txt	LTP271	ltpFR	4	4	-1	ROSE	1212	n/a	n/a	-1	n/a	n/a	n/a	n/a	n/a
878.482	n/a	WORD	439241	wordpools/wasnorm_wordpool_less_exclusions.txt	LTP271	ltpFR	4	5	0	PIKE	1067	n/a	n/a	1	0.422607421875	0.5869140625	0	upper	zerothre.ttf
882.664	n/a	WORD	441332	wordpools/wasnorm_wordpool_less_exclusions.txt	LTP271	ltpFR	4	5	0	BROTHER	179	n/a	n/a	1	0.422607421875	0.5869140625	0	upper	zerothre.ttf
886.496	n/a	WORD	443248	wordpools/wasnorm_wordpool_less_exclusions.txt	LTP271	ltpFR	4	5	0	UNDERWEAR	1537	n/a	n/a	0	0.422607421875	0.5869140625	0	upper	zerothre.ttf
890.712	n/a	WORD	445356	wordpools/wasnorm_wordpool_less_exclusions.txt	LTP271	ltpFR	4	5	0	ANIMAL	23	n/a	n/a	1	0.422607421875	0.5869140625	0	upper	zerothre.ttf
894.694	n/a	WORD	447347	wordpools/wasnorm_wordpool_less_exclusions.txt	LTP271	ltpFR	4	5	0	WOLF	1619	n/a	n/a	1	0.422607421875	0.5869140625	0	upper	zerothre.ttf
898.876	n/a	WORD	449438	wordpools/wasnorm_wordpool_less_exclusions.txt	LTP271	ltpFR	4	5	0	BUG	187	n/a	n/a	0	0.422607421875	0.5869140625	0	upper	zerothre.ttf
902.976	n/a	WORD	451488	wordpools/wasnorm_wordpool_less_exclusions.txt	LTP271	ltpFR	4	5	0	OWL	992	n/a	n/a	1	0.422607421875	0.5869140625	0	upper	zerothre.ttf
906.924	n/a	WORD	453462	wordpools/wasnorm_wordpool_less_exclusions.txt	LTP271	ltpFR	4	5	0	RACK	1154	n/a	n/a	1	0.422607421875	0.5869140625	0	upper	zerothre.ttf
910.868	n/a	WORD	455434	wordpools/wasnorm_wordpool_less_exclusions.txt	LTP271	ltpFR	4	5	0	CATERPILLAR	259	n/a	n/a	0	0.422607421875	0.5869140625	0	upper	zerothre.ttf
915.006	n/a	WORD	457503	wordpools/wasnorm_wordpool_less_exclusions.txt	LTP271	ltpFR	4	5	0	PROTRACTOR	1133	n/a	n/a	0	0.422607421875	0.5869140625	0	upper	zerothre.ttf
918.836	n/a	WORD	459418	wordpools/wasnorm_wordpool_less_exclusions.txt	LTP271	ltpFR	4	5	0	DIVER	476	n/a	n/a	1	0.422607421875	0.5869140625	0	upper	zerothre.ttf
922.796	n/a	WORD	461398	wordpools/wasnorm_wordpool_less_exclusions.txt	LTP271	ltpFR	4	5	0	PLUMBER	1091	n/a	n/a	1	0.422607421875	0.5869140625	0	upper	zerothre.ttf
926.768	n/a	WORD	463384	wordpools/wasnorm_wordpool_less_exclusions.txt	LTP271	ltpFR	4	5	0	ROOST	1208	n/a	n/a	1	0.422607421875	0.5869140625	0	upper	zerothre.ttf
930.962	n/a	WORD	465481	wordpools/wasnorm_wordpool_less_exclusions.txt	LTP271	ltpFR	4	5	0	TERMITE	1451	n/a	n/a	0	0.422607421875	0.5869140625	0	upper	zerothre.ttf
934.982	n/a	WORD	467491	wordpools/wasnorm_wordpool_less_exclusions.txt	LTP271	ltpFR	4	5	0	INSECT	740	n/a	n/a	0	0.422607421875	0.5869140625	0	upper	zerothre.ttf
938.914	n/a	WORD	469457	wordpools/wasnorm_wordpool_less_exclusions.txt	LTP271	ltpFR	4	5	0	TABLET	1427	n/a	n/a	0	0.422607421875	0.5869140625	0	upper	zerothre.ttf
944.698	n/a	REC_START	472349	n/a	LTP271	ltpFR	4	5	n/a	n/a	n/a	n/a	n/a	n/a	n/a	n/a	n/a	n/a	n/a
946.522	n/a	REC_WORD	473261	wordpools/wasnorm_wordpool_less_exclusions.txt	LTP271	ltpFR	4	5	0	TABLET	1427	n/a	n/a	0	n/a	n/a	n/a	n/a	n/a
952.59	n/a	REC_WORD	476295	wordpools/wasnorm_wordpool_less_exclusions.txt	LTP271	ltpFR	4	5	0	PROTRACTOR	1133	n/a	n/a	0	n/a	n/a	n/a	n/a	n/a
990.902	n/a	REC_WORD	495451	wordpools/wasnorm_wordpool_less_exclusions.txt	LTP271	ltpFR	4	5	0	PIKE	1067	n/a	n/a	1	n/a	n/a	n/a	n/a	n/a
1002.884	n/a	REC_WORD	501442	wordpools/wasnorm_wordpool_less_exclusions.txt	LTP271	ltpFR	4	5	0	ANIMAL	23	n/a	n/a	1	n/a	n/a	n/a	n/a	n/a
1011.17	n/a	REC_WORD	505585	wordpools/wasnorm_wordpool_less_exclusions.txt	LTP271	ltpFR	4	5	0	WOLF	1619	n/a	n/a	1	n/a	n/a	n/a	n/a	n/a
1025.388	n/a	WORD	512694	wordpools/wasnorm_wordpool_less_exclusions.txt	LTP271	ltpFR	4	6	0	QUILT	1151	n/a	n/a	1	0.422607421875	0.5869140625	0	upper	zerothre.ttf
1029.52	n/a	WORD	514760	wordpools/wasnorm_wordpool_less_exclusions.txt	LTP271	ltpFR	4	6	0	BEETLE	116	n/a	n/a	0	0.422607421875	0.5869140625	0	upper	zerothre.ttf
1033.542	n/a	WORD	516771	wordpools/wasnorm_wordpool_less_exclusions.txt	LTP271	ltpFR	4	6	1	COUNTY	389	n/a	n/a	0	0.57763671875	0.412841796875	1	lower	amplitud.ttf
1037.434	n/a	WORD	518717	wordpools/wasnorm_wordpool_less_exclusions.txt	LTP271	ltpFR	4	6	1	HOUSE	725	n/a	n/a	0	0.57763671875	0.412841796875	1	lower	amplitud.ttf
1041.316	n/a	WORD	520658	wordpools/wasnorm_wordpool_less_exclusions.txt	LTP271	ltpFR	4	6	1	MOAT	903	n/a	n/a	0	0.57763671875	0.412841796875	1	lower	amplitud.ttf
1045.186	n/a	WORD	522593	wordpools/wasnorm_wordpool_less_exclusions.txt	LTP271	ltpFR	4	6	1	DISC	473	n/a	n/a	0	0.57763671875	0.412841796875	1	lower	amplitud.ttf
1049.246	n/a	WORD	524623	wordpools/wasnorm_wordpool_less_exclusions.txt	LTP271	ltpFR	4	6	1	TOURIST	1488	n/a	n/a	1	0.57763671875	0.412841796875	1	lower	amplitud.ttf
1053.2	n/a	WORD	526600	wordpools/wasnorm_wordpool_less_exclusions.txt	LTP271	ltpFR	4	6	0	FLASHLIGHT	575	n/a	n/a	0	0.422607421875	0.5869140625	0	upper	zerothre.ttf
1057.348	n/a	WORD	528674	wordpools/wasnorm_wordpool_less_exclusions.txt	LTP271	ltpFR	4	6	0	RACKET	1155	n/a	n/a	1	0.422607421875	0.5869140625	0	upper	zerothre.ttf
1061.532	n/a	WORD	530766	wordpools/wasnorm_wordpool_less_exclusions.txt	LTP271	ltpFR	4	6	0	BOSS	152	n/a	n/a	1	0.422607421875	0.5869140625	0	upper	zerothre.ttf
1065.692	n/a	WORD	532846	wordpools/wasnorm_wordpool_less_exclusions.txt	LTP271	ltpFR	4	6	0	SECRETARY	1265	n/a	n/a	1	0.422607421875	0.5869140625	0	upper	zerothre.ttf
1069.64	n/a	WORD	534820	wordpools/wasnorm_wordpool_less_exclusions.txt	LTP271	ltpFR	4	6	1	BASKET	95	n/a	n/a	0	0.57763671875	0.412841796875	1	lower	amplitud.ttf
1073.544	n/a	WORD	536772	wordpools/wasnorm_wordpool_less_exclusions.txt	LTP271	ltpFR	4	6	1	BARLEY	88	n/a	n/a	0	0.57763671875	0.412841796875	1	lower	amplitud.ttf
1077.694	n/a	WORD	538847	wordpools/wasnorm_wordpool_less_exclusions.txt	LTP271	ltpFR	4	6	1	PIANO	1057	n/a	n/a	0	0.57763671875	0.412841796875	1	lower	amplitud.ttf
1081.742	n/a	WORD	540871	wordpools/wasnorm_wordpool_less_exclusions.txt	LTP271	ltpFR	4	6	0	CATTLE	261	n/a	n/a	1	0.422607421875	0.5869140625	0	upper	zerothre.ttf
1085.842	n/a	WORD	542921	wordpools/wasnorm_wordpool_less_exclusions.txt	LTP271	ltpFR	4	6	0	MILK	895	n/a	n/a	0	0.422607421875	0.5869140625	0	upper	zerothre.ttf
1091.442	n/a	REC_START	545721	n/a	LTP271	ltpFR	4	6	n/a	n/a	n/a	n/a	n/a	n/a	n/a	n/a	n/a	n/a	n/a
1093.434	n/a	REC_WORD	546717	wordpools/wasnorm_wordpool_less_exclusions.txt	LTP271	ltpFR	4	6	0	MILK	895	n/a	n/a	0	n/a	n/a	n/a	n/a	n/a
1095.078	n/a	REC_WORD	547539	wordpools/wasnorm_wordpool_less_exclusions.txt	LTP271	ltpFR	4	6	0	RACKET	1155	n/a	n/a	1	n/a	n/a	n/a	n/a	n/a
1172.958	n/a	WORD	586479	wordpools/wasnorm_wordpool_less_exclusions.txt	LTP271	ltpFR	4	7	1	DOCK	477	n/a	n/a	0	0.57763671875	0.412841796875	1	lower	amplitud.ttf
1176.85	n/a	WORD	588425	wordpools/wasnorm_wordpool_less_exclusions.txt	LTP271	ltpFR	4	7	1	DESIGNER	451	n/a	n/a	1	0.57763671875	0.412841796875	1	lower	amplitud.ttf
1180.804	n/a	WORD	590402	wordpools/wasnorm_wordpool_less_exclusions.txt	LTP271	ltpFR	4	7	1	PROFESSIONAL	1130	n/a	n/a	1	0.57763671875	0.412841796875	1	lower	amplitud.ttf
1184.836	n/a	WORD	592418	wordpools/wasnorm_wordpool_less_exclusions.txt	LTP271	ltpFR	4	7	1	PUMP	1141	n/a	n/a	0	0.57763671875	0.412841796875	1	lower	amplitud.ttf
1188.752	n/a	WORD	594376	wordpools/wasnorm_wordpool_less_exclusions.txt	LTP271	ltpFR	4	7	1	SUBMARINE	1398	n/a	n/a	0	0.57763671875	0.412841796875	1	lower	amplitud.ttf
1192.818	n/a	WORD	596409	wordpools/wasnorm_wordpool_less_exclusions.txt	LTP271	ltpFR	4	7	1	SNORKEL	1336	n/a	n/a	0	0.57763671875	0.412841796875	1	lower	amplitud.ttf
1196.694	n/a	WORD	598347	wordpools/wasnorm_wordpool_less_exclusions.txt	LTP271	ltpFR	4	7	1	YACHT	1629	n/a	n/a	0	0.57763671875	0.412841796875	1	lower	amplitud.ttf
1200.692	n/a	WORD	600346	wordpools/wasnorm_wordpool_less_exclusions.txt	LTP271	ltpFR	4	7	1	PIGEON	1065	n/a	n/a	1	0.57763671875	0.412841796875	1	lower	amplitud.ttf
1204.662	n/a	WORD	602331	wordpools/wasnorm_wordpool_less_exclusions.txt	LTP271	ltpFR	4	7	1	CORK	380	n/a	n/a	0	0.57763671875	0.412841796875	1	lower	amplitud.ttf
1208.828	n/a	WORD	604414	wordpools/wasnorm_wordpool_less_exclusions.txt	LTP271	ltpFR	4	7	1	AGENT	10	n/a	n/a	1	0.57763671875	0.412841796875	1	lower	amplitud.ttf
1213.022	n/a	WORD	606511	wordpools/wasnorm_wordpool_less_exclusions.txt	LTP271	ltpFR	4	7	1	ATTORNEY	58	n/a	n/a	1	0.57763671875	0.412841796875	1	lower	amplitud.ttf
1216.892	n/a	WORD	608446	wordpools/wasnorm_wordpool_less_exclusions.txt	LTP271	ltpFR	4	7	1	PIRATE	1074	n/a	n/a	1	0.57763671875	0.412841796875	1	lower	amplitud.ttf
1221.074	n/a	WORD	610537	wordpools/wasnorm_wordpool_less_exclusions.txt	LTP271	ltpFR	4	7	1	THORN	1459	n/a	n/a	0	0.57763671875	0.412841796875	1	lower	amplitud.ttf
1225.024	n/a	WORD	612512	wordpools/wasnorm_wordpool_less_exclusions.txt	LTP271	ltpFR	4	7	1	VINE	1568	n/a	n/a	0	0.57763671875	0.412841796875	1	lower	amplitud.ttf
1228.972	n/a	WORD	614486	wordpools/wasnorm_wordpool_less_exclusions.txt	LTP271	ltpFR	4	7	1	GIRAFFE	636	n/a	n/a	1	0.57763671875	0.412841796875	1	lower	amplitud.ttf
1233.154	n/a	WORD	616577	wordpools/wasnorm_wordpool_less_exclusions.txt	LTP271	ltpFR	4	7	1	BISON	131	n/a	n/a	1	0.57763671875	0.412841796875	1	lower	amplitud.ttf
1238.838	n/a	REC_START	619419	n/a	LTP271	ltpFR	4	7	n/a	n/a	n/a	n/a	n/a	n/a	n/a	n/a	n/a	n/a	n/a
1240.268	n/a	REC_WORD	620134	wordpools/wasnorm_wordpool_less_exclusions.txt	LTP271	ltpFR	4	7	1	GIRAFFE	636	n/a	n/a	1	n/a	n/a	n/a	n/a	n/a
1241.94	n/a	REC_WORD	620970	wordpools/wasnorm_wordpool_less_exclusions.txt	LTP271	ltpFR	4	7	1	BISON	131	n/a	n/a	1	n/a	n/a	n/a	n/a	n/a
1243.238	n/a	REC_WORD	621619	wordpools/wasnorm_wordpool_less_exclusions.txt	LTP271	ltpFR	4	7	1	VINE	1568	n/a	n/a	0	n/a	n/a	n/a	n/a	n/a
1244.604	n/a	REC_WORD	622302	wordpools/wasnorm_wordpool_less_exclusions.txt	LTP271	ltpFR	4	7	1	PROFESSIONAL	1130	n/a	n/a	1	n/a	n/a	n/a	n/a	n/a
1247.334	n/a	REC_WORD	623667	wordpools/wasnorm_wordpool_less_exclusions.txt	LTP271	ltpFR	4	7	1	PIRATE	1074	n/a	n/a	1	n/a	n/a	n/a	n/a	n/a
1253.2	n/a	REC_WORD	626600	wordpools/wasnorm_wordpool_less_exclusions.txt	LTP271	ltpFR	4	7	1	DOCK	477	n/a	n/a	0	n/a	n/a	n/a	n/a	n/a
1275.524	n/a	REC_WORD	637762	wordpools/wasnorm_wordpool_less_exclusions.txt	LTP271	ltpFR	4	7	1	YACHT	1629	n/a	n/a	0	n/a	n/a	n/a	n/a	n/a
1319.05	n/a	WORD	659525	wordpools/wasnorm_wordpool_less_exclusions.txt	LTP271	ltpFR	4	8	0	LABEL	790	n/a	n/a	0	0.422607421875	0.5869140625	0	upper	zerothre.ttf
1323.23	n/a	WORD	661615	wordpools/wasnorm_wordpool_less_exclusions.txt	LTP271	ltpFR	4	8	0	PATH	1023	n/a	n/a	1	0.422607421875	0.5869140625	0	upper	zerothre.ttf
1327.114	n/a	WORD	663557	wordpools/wasnorm_wordpool_less_exclusions.txt	LTP271	ltpFR	4	8	0	SALAD	1224	n/a	n/a	0	0.422607421875	0.5869140625	0	upper	zerothre.ttf
1330.978	n/a	WORD	665489	wordpools/wasnorm_wordpool_less_exclusions.txt	LTP271	ltpFR	4	8	0	CARROT	249	n/a	n/a	0	0.422607421875	0.5869140625	0	upper	zerothre.ttf
1334.938	n/a	WORD	667469	wordpools/wasnorm_wordpool_less_exclusions.txt	LTP271	ltpFR	4	8	0	CLOUD	328	n/a	n/a	1	0.422607421875	0.5869140625	0	upper	zerothre.ttf
1339.092	n/a	WORD	669546	wordpools/wasnorm_wordpool_less_exclusions.txt	LTP271	ltpFR	4	8	0	PUDDING	1139	n/a	n/a	0	0.422607421875	0.5869140625	0	upper	zerothre.ttf
1343.226	n/a	WORD	671613	wordpools/wasnorm_wordpool_less_exclusions.txt	LTP271	ltpFR	4	8	0	MECHANIC	884	n/a	n/a	1	0.422607421875	0.5869140625	0	upper	zerothre.ttf
1347.392	n/a	WORD	673696	wordpools/wasnorm_wordpool_less_exclusions.txt	LTP271	ltpFR	4	8	0	PLATE	1086	n/a	n/a	1	0.422607421875	0.5869140625	0	upper	zerothre.ttf
1351.424	n/a	WORD	675712	wordpools/wasnorm_wordpool_less_exclusions.txt	LTP271	ltpFR	4	8	0	FLIPPER	580	n/a	n/a	0	0.422607421875	0.5869140625	0	upper	zerothre.ttf
1355.588	n/a	WORD	677794	wordpools/wasnorm_wordpool_less_exclusions.txt	LTP271	ltpFR	4	8	0	PAIL	1002	n/a	n/a	0	0.422607421875	0.5869140625	0	upper	zerothre.ttf
1359.57	n/a	WORD	679785	wordpools/wasnorm_wordpool_less_exclusions.txt	LTP271	ltpFR	4	8	0	CAB	209	n/a	n/a	1	0.422607421875	0.5869140625	0	upper	zerothre.ttf
1363.72	n/a	WORD	681860	wordpools/wasnorm_wordpool_less_exclusions.txt	LTP271	ltpFR	4	8	0	PICNIC	1060	n/a	n/a	1	0.422607421875	0.5869140625	0	upper	zerothre.ttf
1367.764	n/a	WORD	683882	wordpools/wasnorm_wordpool_less_exclusions.txt	LTP271	ltpFR	4	8	0	SKETCH	1315	n/a	n/a	0	0.422607421875	0.5869140625	0	upper	zerothre.ttf
1371.696	n/a	WORD	685848	wordpools/wasnorm_wordpool_less_exclusions.txt	LTP271	ltpFR	4	8	0	OYSTER	995	n/a	n/a	0	0.422607421875	0.5869140625	0	upper	zerothre.ttf
1375.532	n/a	WORD	687766	wordpools/wasnorm_wordpool_less_exclusions.txt	LTP271	ltpFR	4	8	0	TANGERINE	1431	n/a	n/a	0	0.422607421875	0.5869140625	0	upper	zerothre.ttf
1379.58	n/a	WORD	689790	wordpools/wasnorm_wordpool_less_exclusions.txt	LTP271	ltpFR	4	8	0	RASPBERRY	1168	n/a	n/a	0	0.422607421875	0.5869140625	0	upper	zerothre.ttf
1385.532	n/a	REC_START	692766	n/a	LTP271	ltpFR	4	8	n/a	n/a	n/a	n/a	n/a	n/a	n/a	n/a	n/a	n/a	n/a
1387.766	n/a	REC_WORD	693883	wordpools/wasnorm_wordpool_less_exclusions.txt	LTP271	ltpFR	4	8	0	RASPBERRY	1168	n/a	n/a	0	n/a	n/a	n/a	n/a	n/a
1432.714	n/a	REC_WORD	716357	wordpools/wasnorm_wordpool_less_exclusions.txt	LTP271	ltpFR	4	8	0	PAIL	1002	n/a	n/a	0	n/a	n/a	n/a	n/a	n/a
1450.64	n/a	REC_WORD	725320	wordpools/wasnorm_wordpool_less_exclusions.txt	LTP271	ltpFR	4	8	0	MECHANIC	884	n/a	n/a	1	n/a	n/a	n/a	n/a	n/a
1465.744	n/a	WORD	732872	wordpools/wasnorm_wordpool_less_exclusions.txt	LTP271	ltpFR	4	9	1	PRINTER	1126	n/a	n/a	0	0.57763671875	0.412841796875	1	lower	amplitud.ttf
1469.574	n/a	WORD	734787	wordpools/wasnorm_wordpool_less_exclusions.txt	LTP271	ltpFR	4	9	1	DRYER	503	n/a	n/a	0	0.57763671875	0.412841796875	1	lower	amplitud.ttf
1473.652	n/a	WORD	736826	wordpools/wasnorm_wordpool_less_exclusions.txt	LTP271	ltpFR	4	9	1	MILITARY	894	n/a	n/a	0	0.57763671875	0.412841796875	1	lower	amplitud.ttf
1477.538	n/a	WORD	738769	wordpools/wasnorm_wordpool_less_exclusions.txt	LTP271	ltpFR	4	9	1	PLANT	1083	n/a	n/a	1	0.57763671875	0.412841796875	1	lower	amplitud.ttf
1481.47	n/a	WORD	740735	wordpools/wasnorm_wordpool_less_exclusions.txt	LTP271	ltpFR	4	9	0	FACTORY	548	n/a	n/a	1	0.422607421875	0.5869140625	0	upper	zerothre.ttf
1485.452	n/a	WORD	742726	wordpools/wasnorm_wordpool_less_exclusions.txt	LTP271	ltpFR	4	9	0	RAIL	1161	n/a	n/a	1	0.422607421875	0.5869140625	0	upper	zerothre.ttf
1489.634	n/a	WORD	744817	wordpools/wasnorm_wordpool_less_exclusions.txt	LTP271	ltpFR	4	9	0	ROBIN	1199	n/a	n/a	0	0.422607421875	0.5869140625	0	upper	zerothre.ttf
1493.526	n/a	WORD	746763	wordpools/wasnorm_wordpool_less_exclusions.txt	LTP271	ltpFR	4	9	0	CARDINAL	244	n/a	n/a	0	0.422607421875	0.5869140625	0	upper	zerothre.ttf
1497.382	n/a	WORD	748691	wordpools/wasnorm_wordpool_less_exclusions.txt	LTP271	ltpFR	4	9	1	CART	250	n/a	n/a	0	0.57763671875	0.412841796875	1	lower	amplitud.ttf
1501.362	n/a	WORD	750681	wordpools/wasnorm_wordpool_less_exclusions.txt	LTP271	ltpFR	4	9	1	PAWN	1030	n/a	n/a	0	0.57763671875	0.412841796875	1	lower	amplitud.ttf
1505.562	n/a	WORD	752781	wordpools/wasnorm_wordpool_less_exclusions.txt	LTP271	ltpFR	4	9	1	MANSION	864	n/a	n/a	0	0.57763671875	0.412841796875	1	lower	amplitud.ttf
1509.744	n/a	WORD	754872	wordpools/wasnorm_wordpool_less_exclusions.txt	LTP271	ltpFR	4	9	1	CONTAINER	366	n/a	n/a	0	0.57763671875	0.412841796875	1	lower	amplitud.ttf
1513.878	n/a	WORD	756939	wordpools/wasnorm_wordpool_less_exclusions.txt	LTP271	ltpFR	4	9	0	ORCHID	982	n/a	n/a	0	0.422607421875	0.5869140625	0	upper	zerothre.ttf
1517.96	n/a	WORD	758980	wordpools/wasnorm_wordpool_less_exclusions.txt	LTP271	ltpFR	4	9	0	TRACTOR	1493	n/a	n/a	1	0.422607421875	0.5869140625	0	upper	zerothre.ttf
1522.058	n/a	WORD	761029	wordpools/wasnorm_wordpool_less_exclusions.txt	LTP271	ltpFR	4	9	0	TANK	1432	n/a	n/a	1	0.422607421875	0.5869140625	0	upper	zerothre.ttf
1525.924	n/a	WORD	762962	wordpools/wasnorm_wordpool_less_exclusions.txt	LTP271	ltpFR	4	9	0	JUDGE	761	n/a	n/a	1	0.422607421875	0.5869140625	0	upper	zerothre.ttf
1531.858	n/a	REC_START	765929	n/a	LTP271	ltpFR	4	9	n/a	n/a	n/a	n/a	n/a	n/a	n/a	n/a	n/a	n/a	n/a
1533.922	n/a	REC_WORD	766961	wordpools/wasnorm_wordpool_less_exclusions.txt	LTP271	ltpFR	4	9	0	ORCHID	982	n/a	n/a	0	n/a	n/a	n/a	n/a	n/a
1537.93	n/a	REC_WORD	768965	wordpools/wasnorm_wordpool_less_exclusions.txt	LTP271	ltpFR	4	9	0	TANK	1432	n/a	n/a	1	n/a	n/a	n/a	n/a	n/a
1538.944	n/a	REC_WORD	769472	wordpools/wasnorm_wordpool_less_exclusions.txt	LTP271	ltpFR	4	9	0	TRACTOR	1493	n/a	n/a	1	n/a	n/a	n/a	n/a	n/a
1571.406	n/a	REC_WORD	785703	wordpools/wasnorm_wordpool_less_exclusions.txt	LTP271	ltpFR	4	9	1	MILITARY	894	n/a	n/a	0	n/a	n/a	n/a	n/a	n/a
1572.922	n/a	REC_WORD	786461	wordpools/wasnorm_wordpool_less_exclusions.txt	LTP271	ltpFR	4	9	1	PRINTER	1126	n/a	n/a	0	n/a	n/a	n/a	n/a	n/a
1574.658	n/a	REC_WORD	787329	wordpools/wasnorm_wordpool_less_exclusions.txt	LTP271	ltpFR	4	9	1	DRYER	503	n/a	n/a	0	n/a	n/a	n/a	n/a	n/a
1612.298	n/a	WORD	806149	wordpools/wasnorm_wordpool_less_exclusions.txt	LTP271	ltpFR	4	10	0	SHEPHERD	1283	n/a	n/a	1	0.422607421875	0.5869140625	0	upper	zerothre.ttf
1616.202	n/a	WORD	808101	wordpools/wasnorm_wordpool_less_exclusions.txt	LTP271	ltpFR	4	10	0	LAMB	797	n/a	n/a	1	0.422607421875	0.5869140625	0	upper	zerothre.ttf
1620.082	n/a	WORD	810041	wordpools/wasnorm_wordpool_less_exclusions.txt	LTP271	ltpFR	4	10	0	LUNCH	849	n/a	n/a	0	0.422607421875	0.5869140625	0	upper	zerothre.ttf
1624.132	n/a	WORD	812066	wordpools/wasnorm_wordpool_less_exclusions.txt	LTP271	ltpFR	4	10	0	PURSE	1145	n/a	n/a	0	0.422607421875	0.5869140625	0	upper	zerothre.ttf
1627.998	n/a	WORD	813999	wordpools/wasnorm_wordpool_less_exclusions.txt	LTP271	ltpFR	4	10	0	TOTE	1487	n/a	n/a	0	0.422607421875	0.5869140625	0	upper	zerothre.ttf
1631.896	n/a	WORD	815948	wordpools/wasnorm_wordpool_less_exclusions.txt	LTP271	ltpFR	4	10	0	VEHICLE	1553	n/a	n/a	1	0.422607421875	0.5869140625	0	upper	zerothre.ttf
1635.776	n/a	WORD	817888	wordpools/wasnorm_wordpool_less_exclusions.txt	LTP271	ltpFR	4	10	1	LOOP	844	n/a	n/a	0	0.57763671875	0.412841796875	1	lower	amplitud.ttf
1639.908	n/a	WORD	819954	wordpools/wasnorm_wordpool_less_exclusions.txt	LTP271	ltpFR	4	10	1	NECK	939	n/a	n/a	1	0.57763671875	0.412841796875	1	lower	amplitud.ttf
1644.074	n/a	WORD	822037	wordpools/wasnorm_wordpool_less_exclusions.txt	LTP271	ltpFR	4	10	1	ARMY	39	n/a	n/a	1	0.57763671875	0.412841796875	1	lower	amplitud.ttf
1648.256	n/a	WORD	824128	wordpools/wasnorm_wordpool_less_exclusions.txt	LTP271	ltpFR	4	10	0	CAT	257	n/a	n/a	0	0.422607421875	0.5869140625	0	upper	zerothre.ttf
1652.106	n/a	WORD	826053	wordpools/wasnorm_wordpool_less_exclusions.txt	LTP271	ltpFR	4	10	0	SUPERMARKET	1409	n/a	n/a	1	0.422607421875	0.5869140625	0	upper	zerothre.ttf
1656.104	n/a	WORD	828052	wordpools/wasnorm_wordpool_less_exclusions.txt	LTP271	ltpFR	4	10	1	FRIES	607	n/a	n/a	0	0.57763671875	0.412841796875	1	lower	amplitud.ttf
1659.936	n/a	WORD	829968	wordpools/wasnorm_wordpool_less_exclusions.txt	LTP271	ltpFR	4	10	1	RADIATOR	1156	n/a	n/a	0	0.57763671875	0.412841796875	1	lower	amplitud.ttf
1664.078	n/a	WORD	832039	wordpools/wasnorm_wordpool_less_exclusions.txt	LTP271	ltpFR	4	10	1	WAIST	1579	n/a	n/a	0	0.57763671875	0.412841796875	1	lower	amplitud.ttf
1668.212	n/a	WORD	834106	wordpools/wasnorm_wordpool_less_exclusions.txt	LTP271	ltpFR	4	10	1	CHEF	290	n/a	n/a	1	0.57763671875	0.412841796875	1	lower	amplitud.ttf
1672.228	n/a	WORD	836114	wordpools/wasnorm_wordpool_less_exclusions.txt	LTP271	ltpFR	4	10	1	TEACHER	1440	n/a	n/a	1	0.57763671875	0.412841796875	1	lower	amplitud.ttf
1678.066	n/a	REC_START	839033	n/a	LTP271	ltpFR	4	10	n/a	n/a	n/a	n/a	n/a	n/a	n/a	n/a	n/a	n/a	n/a
1679.706	n/a	REC_WORD	839853	wordpools/wasnorm_wordpool_less_exclusions.txt	LTP271	ltpFR	4	10	1	TEACHER	1440	n/a	n/a	1	n/a	n/a	n/a	n/a	n/a
1681.714	n/a	REC_WORD	840857	wordpools/wasnorm_wordpool_less_exclusions.txt	LTP271	ltpFR	4	10	1	CHEF	290	n/a	n/a	1	n/a	n/a	n/a	n/a	n/a
1683.318	n/a	REC_WORD	841659	wordpools/wasnorm_wordpool_less_exclusions.txt	LTP271	ltpFR	4	10	1	WAIST	1579	n/a	n/a	0	n/a	n/a	n/a	n/a	n/a
1715.198	n/a	REC_WORD	857599	wordpools/wasnorm_wordpool_less_exclusions.txt	LTP271	ltpFR	4	10	0	CAT	257	n/a	n/a	0	n/a	n/a	n/a	n/a	n/a
1728.458	n/a	REC_WORD	864229	wordpools/wasnorm_wordpool_less_exclusions.txt	LTP271	ltpFR	4	10	0	PURSE	1145	n/a	n/a	0	n/a	n/a	n/a	n/a	n/a
1749.876	n/a	REC_WORD	874938	wordpools/wasnorm_wordpool_less_exclusions.txt	LTP271	ltpFR	4	10	1	ARMY	39	n/a	n/a	1	n/a	n/a	n/a	n/a	n/a
1758.908	n/a	WORD	879454	wordpools/wasnorm_wordpool_less_exclusions.txt	LTP271	ltpFR	4	11	1	PUBLICATION	1136	n/a	n/a	0	0.57763671875	0.412841796875	1	lower	amplitud.ttf
1762.924	n/a	WORD	881462	wordpools/wasnorm_wordpool_less_exclusions.txt	LTP271	ltpFR	4	11	1	EDITOR	516	n/a	n/a	1	0.57763671875	0.412841796875	1	lower	amplitud.ttf
1766.86	n/a	WORD	883430	wordpools/wasnorm_wordpool_less_exclusions.txt	LTP271	ltpFR	4	11	0	TREAT	1501	n/a	n/a	0	0.422607421875	0.5869140625	0	upper	zerothre.ttf
1770.792	n/a	WORD	885396	wordpools/wasnorm_wordpool_less_exclusions.txt	LTP271	ltpFR	4	11	0	TIDE	1465	n/a	n/a	0	0.422607421875	0.5869140625	0	upper	zerothre.ttf
1774.974	n/a	WORD	887487	wordpools/wasnorm_wordpool_less_exclusions.txt	LTP271	ltpFR	4	11	0	NUN	962	n/a	n/a	1	0.422607421875	0.5869140625	0	upper	zerothre.ttf
1778.99	n/a	WORD	889495	wordpools/wasnorm_wordpool_less_exclusions.txt	LTP271	ltpFR	4	11	1	TROUT	1511	n/a	n/a	0	0.57763671875	0.412841796875	1	lower	amplitud.ttf
1782.85	n/a	WORD	891425	wordpools/wasnorm_wordpool_less_exclusions.txt	LTP271	ltpFR	4	11	1	RIBBON	1189	n/a	n/a	0	0.57763671875	0.412841796875	1	lower	amplitud.ttf
1786.77	n/a	WORD	893385	wordpools/wasnorm_wordpool_less_exclusions.txt	LTP271	ltpFR	4	11	1	SCAPEGOAT	1244	n/a	n/a	1	0.57763671875	0.412841796875	1	lower	amplitud.ttf
1790.836	n/a	WORD	895418	wordpools/wasnorm_wordpool_less_exclusions.txt	LTP271	ltpFR	4	11	1	WITNESS	1618	n/a	n/a	1	0.57763671875	0.412841796875	1	lower	amplitud.ttf
1794.928	n/a	WORD	897464	wordpools/wasnorm_wordpool_less_exclusions.txt	LTP271	ltpFR	4	11	0	CHOCOLATE	306	n/a	n/a	0	0.422607421875	0.5869140625	0	upper	zerothre.ttf
1799.028	n/a	WORD	899514	wordpools/wasnorm_wordpool_less_exclusions.txt	LTP271	ltpFR	4	11	0	MISSILE	900	n/a	n/a	1	0.422607421875	0.5869140625	0	upper	zerothre.ttf
1803.166	n/a	WORD	901583	wordpools/wasnorm_wordpool_less_exclusions.txt	LTP271	ltpFR	4	11	0	LAKE	796	n/a	n/a	1	0.422607421875	0.5869140625	0	upper	zerothre.ttf
1807.192	n/a	WORD	903596	wordpools/wasnorm_wordpool_less_exclusions.txt	LTP271	ltpFR	4	11	0	JUG	762	n/a	n/a	0	0.422607421875	0.5869140625	0	upper	zerothre.ttf
1811.308	n/a	WORD	905654	wordpools/wasnorm_wordpool_less_exclusions.txt	LTP271	ltpFR	4	11	0	TREAD	1499	n/a	n/a	0	0.422607421875	0.5869140625	0	upper	zerothre.ttf
1815.458	n/a	WORD	907729	wordpools/wasnorm_wordpool_less_exclusions.txt	LTP271	ltpFR	4	11	1	VIKING	1565	n/a	n/a	1	0.57763671875	0.412841796875	1	lower	amplitud.ttf
1819.54	n/a	WORD	909770	wordpools/wasnorm_wordpool_less_exclusions.txt	LTP271	ltpFR	4	11	1	SUITE	1404	n/a	n/a	0	0.57763671875	0.412841796875	1	lower	amplitud.ttf
1825.43	n/a	REC_START	912715	n/a	LTP271	ltpFR	4	11	n/a	n/a	n/a	n/a	n/a	n/a	n/a	n/a	n/a	n/a	n/a
1826.644	n/a	REC_WORD	913322	wordpools/wasnorm_wordpool_less_exclusions.txt	LTP271	ltpFR	4	11	1	SUITE	1404	n/a	n/a	0	n/a	n/a	n/a	n/a	n/a
1827.798	n/a	REC_WORD	913899	wordpools/wasnorm_wordpool_less_exclusions.txt	LTP271	ltpFR	4	11	1	VIKING	1565	n/a	n/a	1	n/a	n/a	n/a	n/a	n/a
1829.704	n/a	REC_WORD	914852	wordpools/wasnorm_wordpool_less_exclusions.txt	LTP271	ltpFR	4	11	0	TREAD	1499	n/a	n/a	0	n/a	n/a	n/a	n/a	n/a
1853.13	n/a	REC_WORD	926565	wordpools/wasnorm_wordpool_less_exclusions.txt	LTP271	ltpFR	4	11	1	PUBLICATION	1136	n/a	n/a	0	n/a	n/a	n/a	n/a	n/a
1854.78	n/a	REC_WORD	927390	wordpools/wasnorm_wordpool_less_exclusions.txt	LTP271	ltpFR	4	11	1	EDITOR	516	n/a	n/a	1	n/a	n/a	n/a	n/a	n/a
1872.298	n/a	REC_WORD	936149	wordpools/wasnorm_wordpool_less_exclusions.txt	LTP271	ltpFR	4	11	1	TROUT	1511	n/a	n/a	0	n/a	n/a	n/a	n/a	n/a
1907.208	n/a	WORD	953604	wordpools/wasnorm_wordpool_less_exclusions.txt	LTP271	ltpFR	4	12	-1	MEAL	882	n/a	n/a	-1	1.0	1.0	1	upper	Verdana.ttf
1911.396	n/a	WORD	955698	wordpools/wasnorm_wordpool_less_exclusions.txt	LTP271	ltpFR	4	12	-1	WAGON	1578	n/a	n/a	-1	1.0	1.0	1	upper	Verdana.ttf
1915.228	n/a	WORD	957614	wordpools/wasnorm_wordpool_less_exclusions.txt	LTP271	ltpFR	4	12	-1	GOBLIN	645	n/a	n/a	-1	1.0	1.0	1	upper	Verdana.ttf
1919.394	n/a	WORD	959697	wordpools/wasnorm_wordpool_less_exclusions.txt	LTP271	ltpFR	4	12	-1	APARTMENT	30	n/a	n/a	-1	1.0	1.0	1	upper	Verdana.ttf
1923.56	n/a	WORD	961780	wordpools/wasnorm_wordpool_less_exclusions.txt	LTP271	ltpFR	4	12	-1	MAILBOX	857	n/a	n/a	-1	1.0	1.0	1	upper	Verdana.ttf
1927.57	n/a	WORD	963785	wordpools/wasnorm_wordpool_less_exclusions.txt	LTP271	ltpFR	4	12	-1	STAMP	1370	n/a	n/a	-1	1.0	1.0	1	upper	Verdana.ttf
1931.502	n/a	WORD	965751	wordpools/wasnorm_wordpool_less_exclusions.txt	LTP271	ltpFR	4	12	-1	LEMON	810	n/a	n/a	-1	1.0	1.0	1	upper	Verdana.ttf
1935.7	n/a	WORD	967850	wordpools/wasnorm_wordpool_less_exclusions.txt	LTP271	ltpFR	4	12	-1	RAILROAD	1162	n/a	n/a	-1	1.0	1.0	1	upper	Verdana.ttf
1939.782	n/a	WORD	969891	wordpools/wasnorm_wordpool_less_exclusions.txt	LTP271	ltpFR	4	12	-1	EXPLOSION	544	n/a	n/a	-1	1.0	1.0	1	upper	Verdana.ttf
1943.77	n/a	WORD	971885	wordpools/wasnorm_wordpool_less_exclusions.txt	LTP271	ltpFR	4	12	-1	MESSAGE	888	n/a	n/a	-1	1.0	1.0	1	upper	Verdana.ttf
1947.836	n/a	WORD	973918	wordpools/wasnorm_wordpool_less_exclusions.txt	LTP271	ltpFR	4	12	-1	ENVELOPE	537	n/a	n/a	-1	1.0	1.0	1	upper	Verdana.ttf
1952.002	n/a	WORD	976001	wordpools/wasnorm_wordpool_less_exclusions.txt	LTP271	ltpFR	4	12	-1	COOKIE	374	n/a	n/a	-1	1.0	1.0	1	upper	Verdana.ttf
1955.9	n/a	WORD	977950	wordpools/wasnorm_wordpool_less_exclusions.txt	LTP271	ltpFR	4	12	-1	JUPITER	765	n/a	n/a	-1	1.0	1.0	1	upper	Verdana.ttf
1960.082	n/a	WORD	980041	wordpools/wasnorm_wordpool_less_exclusions.txt	LTP271	ltpFR	4	12	-1	LIME	823	n/a	n/a	-1	1.0	1.0	1	upper	Verdana.ttf
1964.026	n/a	WORD	982013	wordpools/wasnorm_wordpool_less_exclusions.txt	LTP271	ltpFR	4	12	-1	CYLINDER	432	n/a	n/a	-1	1.0	1.0	1	upper	Verdana.ttf
1968.108	n/a	WORD	984054	wordpools/wasnorm_wordpool_less_exclusions.txt	LTP271	ltpFR	4	12	-1	CAR	241	n/a	n/a	-1	1.0	1.0	1	upper	Verdana.ttf
1973.832	n/a	REC_START	986916	n/a	LTP271	ltpFR	4	12	n/a	n/a	n/a	n/a	n/a	n/a	n/a	n/a	n/a	n/a	n/a
1975.612	n/a	REC_WORD	987806	wordpools/wasnorm_wordpool_less_exclusions.txt	LTP271	ltpFR	4	12	-1	CAR	241	n/a	n/a	-1	n/a	n/a	n/a	n/a	n/a
1976.844	n/a	REC_WORD	988422	wordpools/wasnorm_wordpool_less_exclusions.txt	LTP271	ltpFR	4	12	-1	WAGON	1578	n/a	n/a	-1	n/a	n/a	n/a	n/a	n/a
1978.752	n/a	REC_WORD	989376	wordpools/wasnorm_wordpool_less_exclusions.txt	LTP271	ltpFR	4	12	-1	GOBLIN	645	n/a	n/a	-1	n/a	n/a	n/a	n/a	n/a
1979.874	n/a	REC_WORD	989937	wordpools/wasnorm_wordpool_less_exclusions.txt	LTP271	ltpFR	4	12	-1	MEAL	882	n/a	n/a	-1	n/a	n/a	n/a	n/a	n/a
1981.098	n/a	REC_WORD	990549	wordpools/wasnorm_wordpool_less_exclusions.txt	LTP271	ltpFR	4	12	-1	LEMON	810	n/a	n/a	-1	n/a	n/a	n/a	n/a	n/a
1982.05	n/a	REC_WORD	991025	wordpools/wasnorm_wordpool_less_exclusions.txt	LTP271	ltpFR	4	12	-1	LIME	823	n/a	n/a	-1	n/a	n/a	n/a	n/a	n/a
1983.37	n/a	REC_WORD	991685	wordpools/wasnorm_wordpool_less_exclusions.txt	LTP271	ltpFR	4	12	-1	RAILROAD	1162	n/a	n/a	-1	n/a	n/a	n/a	n/a	n/a
1985.284	n/a	REC_WORD	992642	wordpools/wasnorm_wordpool_less_exclusions.txt	LTP271	ltpFR	4	12	-1	EXPLOSION	544	n/a	n/a	-1	n/a	n/a	n/a	n/a	n/a
1988.594	n/a	REC_WORD	994297	wordpools/wasnorm_wordpool_less_exclusions.txt	LTP271	ltpFR	4	12	-1	MAILBOX	857	n/a	n/a	-1	n/a	n/a	n/a	n/a	n/a
1989.536	n/a	REC_WORD	994768	wordpools/wasnorm_wordpool_less_exclusions.txt	LTP271	ltpFR	4	12	-1	ENVELOPE	537	n/a	n/a	-1	n/a	n/a	n/a	n/a	n/a
1990.604	n/a	REC_WORD	995302	wordpools/wasnorm_wordpool_less_exclusions.txt	LTP271	ltpFR	4	12	-1	STAMP	1370	n/a	n/a	-1	n/a	n/a	n/a	n/a	n/a
1991.902	n/a	REC_WORD	995951	wordpools/wasnorm_wordpool_less_exclusions.txt	LTP271	ltpFR	4	12	-1	MESSAGE	888	n/a	n/a	-1	n/a	n/a	n/a	n/a	n/a
2017.844	n/a	REC_WORD	1008922	wordpools/wasnorm_wordpool_less_exclusions.txt	LTP271	ltpFR	4	12	-1	CYLINDER	432	n/a	n/a	-1	n/a	n/a	n/a	n/a	n/a
2049.474	n/a	REST_REWET	1024737	n/a	LTP271	ltpFR	4	12	n/a	n/a	n/a	n/a	n/a	n/a	n/a	n/a	n/a	n/a	n/a
2558.364	n/a	WORD	1279182	wordpools/wasnorm_wordpool_less_exclusions.txt	LTP271	ltpFR	4	13	-1	AIRPLANE	12	n/a	n/a	-1	1.0	1.0	1	upper	Verdana.ttf
2562.35	n/a	WORD	1281175	wordpools/wasnorm_wordpool_less_exclusions.txt	LTP271	ltpFR	4	13	-1	WASHCLOTH	1591	n/a	n/a	-1	1.0	1.0	1	upper	Verdana.ttf
2566.494	n/a	WORD	1283247	wordpools/wasnorm_wordpool_less_exclusions.txt	LTP271	ltpFR	4	13	-1	COOKBOOK	373	n/a	n/a	-1	1.0	1.0	1	upper	Verdana.ttf
2570.482	n/a	WORD	1285241	wordpools/wasnorm_wordpool_less_exclusions.txt	LTP271	ltpFR	4	13	-1	SALOON	1228	n/a	n/a	-1	1.0	1.0	1	upper	Verdana.ttf
2574.648	n/a	WORD	1287324	wordpools/wasnorm_wordpool_less_exclusions.txt	LTP271	ltpFR	4	13	-1	PILLOW	1069	n/a	n/a	-1	1.0	1.0	1	upper	Verdana.ttf
2578.758	n/a	WORD	1289379	wordpools/wasnorm_wordpool_less_exclusions.txt	LTP271	ltpFR	4	13	-1	SOFA	1342	n/a	n/a	-1	1.0	1.0	1	upper	Verdana.ttf
2582.862	n/a	WORD	1291431	wordpools/wasnorm_wordpool_less_exclusions.txt	LTP271	ltpFR	4	13	-1	POWDER	1117	n/a	n/a	-1	1.0	1.0	1	upper	Verdana.ttf
2586.694	n/a	WORD	1293347	wordpools/wasnorm_wordpool_less_exclusions.txt	LTP271	ltpFR	4	13	-1	ASHTRAY	45	n/a	n/a	-1	1.0	1.0	1	upper	Verdana.ttf
2590.624	n/a	WORD	1295312	wordpools/wasnorm_wordpool_less_exclusions.txt	LTP271	ltpFR	4	13	-1	GRILL	661	n/a	n/a	-1	1.0	1.0	1	upper	Verdana.ttf
2594.69	n/a	WORD	1297345	wordpools/wasnorm_wordpool_less_exclusions.txt	LTP271	ltpFR	4	13	-1	MAGAZINE	853	n/a	n/a	-1	1.0	1.0	1	upper	Verdana.ttf
2598.556	n/a	WORD	1299278	wordpools/wasnorm_wordpool_less_exclusions.txt	LTP271	ltpFR	4	13	-1	COMEDIAN	352	n/a	n/a	-1	1.0	1.0	1	upper	Verdana.ttf
2602.504	n/a	WORD	1301252	wordpools/wasnorm_wordpool_less_exclusions.txt	LTP271	ltpFR	4	13	-1	PLUM	1090	n/a	n/a	-1	1.0	1.0	1	upper	Verdana.ttf
2606.486	n/a	WORD	1303243	wordpools/wasnorm_wordpool_less_exclusions.txt	LTP271	ltpFR	4	13	-1	FLY	586	n/a	n/a	-1	1.0	1.0	1	upper	Verdana.ttf
2610.568	n/a	WORD	1305284	wordpools/wasnorm_wordpool_less_exclusions.txt	LTP271	ltpFR	4	13	-1	SPRINKLE	1359	n/a	n/a	-1	1.0	1.0	1	upper	Verdana.ttf
2614.7	n/a	WORD	1307350	wordpools/wasnorm_wordpool_less_exclusions.txt	LTP271	ltpFR	4	13	-1	BRIDGE	174	n/a	n/a	-1	1.0	1.0	1	upper	Verdana.ttf
2618.75	n/a	WORD	1309375	wordpools/wasnorm_wordpool_less_exclusions.txt	LTP271	ltpFR	4	13	-1	BROOK	177	n/a	n/a	-1	1.0	1.0	1	upper	Verdana.ttf
2624.5	n/a	REC_START	1312250	n/a	LTP271	ltpFR	4	13	n/a	n/a	n/a	n/a	n/a	n/a	n/a	n/a	n/a	n/a	n/a
2626.298	n/a	REC_WORD	1313149	wordpools/wasnorm_wordpool_less_exclusions.txt	LTP271	ltpFR	4	13	-1	BROOK	177	n/a	n/a	-1	n/a	n/a	n/a	n/a	n/a
2627.488	n/a	REC_WORD	1313744	wordpools/wasnorm_wordpool_less_exclusions.txt	LTP271	ltpFR	4	13	-1	BRIDGE	174	n/a	n/a	-1	n/a	n/a	n/a	n/a	n/a
2629.474	n/a	REC_WORD	1314737	wordpools/wasnorm_wordpool_less_exclusions.txt	LTP271	ltpFR	4	13	-1	AIRPLANE	12	n/a	n/a	-1	n/a	n/a	n/a	n/a	n/a
2630.642	n/a	REC_WORD	1315321	wordpools/wasnorm_wordpool_less_exclusions.txt	LTP271	ltpFR	4	13	-1	SOFA	1342	n/a	n/a	-1	n/a	n/a	n/a	n/a	n/a
2632.822	n/a	REC_WORD	1316411	wordpools/wasnorm_wordpool_less_exclusions.txt	LTP271	ltpFR	4	13	-1	COOKBOOK	373	n/a	n/a	-1	n/a	n/a	n/a	n/a	n/a
2633.76	n/a	REC_WORD	1316880	wordpools/wasnorm_wordpool_less_exclusions.txt	LTP271	ltpFR	4	13	-1	SALOON	1228	n/a	n/a	-1	n/a	n/a	n/a	n/a	n/a
2637.268	n/a	REC_WORD	1318634	wordpools/wasnorm_wordpool_less_exclusions.txt	LTP271	ltpFR	4	13	-1	FLY	586	n/a	n/a	-1	n/a	n/a	n/a	n/a	n/a
2638.414	n/a	REC_WORD	1319207	wordpools/wasnorm_wordpool_less_exclusions.txt	LTP271	ltpFR	4	13	-1	PLUM	1090	n/a	n/a	-1	n/a	n/a	n/a	n/a	n/a
2644.356	n/a	REC_WORD	1322178	wordpools/wasnorm_wordpool_less_exclusions.txt	LTP271	ltpFR	4	13	-1	POWDER	1117	n/a	n/a	-1	n/a	n/a	n/a	n/a	n/a
2645.126	n/a	REC_WORD	1322563	wordpools/wasnorm_wordpool_less_exclusions.txt	LTP271	ltpFR	4	13	-1	SPRINKLE	1359	n/a	n/a	-1	n/a	n/a	n/a	n/a	n/a
2646.508	n/a	REC_WORD	1323254	wordpools/wasnorm_wordpool_less_exclusions.txt	LTP271	ltpFR	4	13	-1	ASHTRAY	45	n/a	n/a	-1	n/a	n/a	n/a	n/a	n/a
2660.324	n/a	REC_WORD	1330162	wordpools/wasnorm_wordpool_less_exclusions.txt	LTP271	ltpFR	4	13	-1	WASHCLOTH	1591	n/a	n/a	-1	n/a	n/a	n/a	n/a	n/a
2703.936	n/a	WORD	1351968	wordpools/wasnorm_wordpool_less_exclusions.txt	LTP271	ltpFR	4	14	0	LINEN	825	n/a	n/a	1	0.422607421875	0.5869140625	0	upper	zerothre.ttf
2707.856	n/a	WORD	1353928	wordpools/wasnorm_wordpool_less_exclusions.txt	LTP271	ltpFR	4	14	0	LUMBER	848	n/a	n/a	1	0.422607421875	0.5869140625	0	upper	zerothre.ttf
2711.906	n/a	WORD	1355953	wordpools/wasnorm_wordpool_less_exclusions.txt	LTP271	ltpFR	4	14	0	WATER	1594	n/a	n/a	0	0.422607421875	0.5869140625	0	upper	zerothre.ttf
2715.854	n/a	WORD	1357927	wordpools/wasnorm_wordpool_less_exclusions.txt	LTP271	ltpFR	4	14	0	POOL	1103	n/a	n/a	1	0.422607421875	0.5869140625	0	upper	zerothre.ttf
2720.036	n/a	WORD	1360018	wordpools/wasnorm_wordpool_less_exclusions.txt	LTP271	ltpFR	4	14	0	SLOPE	1328	n/a	n/a	1	0.422607421875	0.5869140625	0	upper	zerothre.ttf
2724.08	n/a	WORD	1362040	wordpools/wasnorm_wordpool_less_exclusions.txt	LTP271	ltpFR	4	14	0	STEP	1377	n/a	n/a	1	0.422607421875	0.5869140625	0	upper	zerothre.ttf
2728.096	n/a	WORD	1364048	wordpools/wasnorm_wordpool_less_exclusions.txt	LTP271	ltpFR	4	14	0	CRACKER	398	n/a	n/a	0	0.422607421875	0.5869140625	0	upper	zerothre.ttf
2732.144	n/a	WORD	1366072	wordpools/wasnorm_wordpool_less_exclusions.txt	LTP271	ltpFR	4	14	0	BARREL	91	n/a	n/a	1	0.422607421875	0.5869140625	0	upper	zerothre.ttf
2735.98	n/a	WORD	1367990	wordpools/wasnorm_wordpool_less_exclusions.txt	LTP271	ltpFR	4	14	0	SHRINE	1298	n/a	n/a	1	0.422607421875	0.5869140625	0	upper	zerothre.ttf
2740.18	n/a	WORD	1370090	wordpools/wasnorm_wordpool_less_exclusions.txt	LTP271	ltpFR	4	14	0	HERB	704	n/a	n/a	0	0.422607421875	0.5869140625	0	upper	zerothre.ttf
2744.178	n/a	WORD	1372089	wordpools/wasnorm_wordpool_less_exclusions.txt	LTP271	ltpFR	4	14	0	WALLET	1583	n/a	n/a	0	0.422607421875	0.5869140625	0	upper	zerothre.ttf
2748.212	n/a	WORD	1374106	wordpools/wasnorm_wordpool_less_exclusions.txt	LTP271	ltpFR	4	14	0	REPORT	1184	n/a	n/a	0	0.422607421875	0.5869140625	0	upper	zerothre.ttf
2752.154	n/a	WORD	1376077	wordpools/wasnorm_wordpool_less_exclusions.txt	LTP271	ltpFR	4	14	0	BLANKET	135	n/a	n/a	1	0.422607421875	0.5869140625	0	upper	zerothre.ttf
2756.052	n/a	WORD	1378026	wordpools/wasnorm_wordpool_less_exclusions.txt	LTP271	ltpFR	4	14	0	GARLIC	624	n/a	n/a	0	0.422607421875	0.5869140625	0	upper	zerothre.ttf
2760.172	n/a	WORD	1380086	wordpools/wasnorm_wordpool_less_exclusions.txt	LTP271	ltpFR	4	14	0	CHIMNEY	301	n/a	n/a	1	0.422607421875	0.5869140625	0	upper	zerothre.ttf
2764.172	n/a	WORD	1382086	wordpools/wasnorm_wordpool_less_exclusions.txt	LTP271	ltpFR	4	14	0	MAGICIAN	854	n/a	n/a	1	0.422607421875	0.5869140625	0	upper	zerothre.ttf
2769.922	n/a	REC_START	1384961	n/a	LTP271	ltpFR	4	14	n/a	n/a	n/a	n/a	n/a	n/a	n/a	n/a	n/a	n/a	n/a
2771.198	n/a	REC_WORD	1385599	wordpools/wasnorm_wordpool_less_exclusions.txt	LTP271	ltpFR	4	14	0	MAGICIAN	854	n/a	n/a	1	n/a	n/a	n/a	n/a	n/a
2772.32	n/a	REC_WORD	1386160	wordpools/wasnorm_wordpool_less_exclusions.txt	LTP271	ltpFR	4	14	0	LINEN	825	n/a	n/a	1	n/a	n/a	n/a	n/a	n/a
2773.792	n/a	REC_WORD	1386896	wordpools/wasnorm_wordpool_less_exclusions.txt	LTP271	ltpFR	4	14	0	LUMBER	848	n/a	n/a	1	n/a	n/a	n/a	n/a	n/a
2781.84	n/a	REC_WORD	1390920	wordpools/wasnorm_wordpool_less_exclusions.txt	LTP271	ltpFR	4	14	0	WATER	1594	n/a	n/a	0	n/a	n/a	n/a	n/a	n/a
2849.364	n/a	WORD	1424682	wordpools/wasnorm_wordpool_less_exclusions.txt	LTP271	ltpFR	4	15	1	SOCK	1339	n/a	n/a	0	0.57763671875	0.412841796875	1	lower	amplitud.ttf
2853.306	n/a	WORD	1426653	wordpools/wasnorm_wordpool_less_exclusions.txt	LTP271	ltpFR	4	15	1	SHOELACE	1289	n/a	n/a	0	0.57763671875	0.412841796875	1	lower	amplitud.ttf
2857.478	n/a	WORD	1428739	wordpools/wasnorm_wordpool_less_exclusions.txt	LTP271	ltpFR	4	15	1	BIOLOGIST	128	n/a	n/a	1	0.57763671875	0.412841796875	1	lower	amplitud.ttf
2861.376	n/a	WORD	1430688	wordpools/wasnorm_wordpool_less_exclusions.txt	LTP271	ltpFR	4	15	1	CITIZEN	312	n/a	n/a	1	0.57763671875	0.412841796875	1	lower	amplitud.ttf
2865.476	n/a	WORD	1432738	wordpools/wasnorm_wordpool_less_exclusions.txt	LTP271	ltpFR	4	15	1	ATLAS	53	n/a	n/a	0	0.57763671875	0.412841796875	1	lower	amplitud.ttf
2869.608	n/a	WORD	1434804	wordpools/wasnorm_wordpool_less_exclusions.txt	LTP271	ltpFR	4	15	1	BEAST	108	n/a	n/a	1	0.57763671875	0.412841796875	1	lower	amplitud.ttf
2873.706	n/a	WORD	1436853	wordpools/wasnorm_wordpool_less_exclusions.txt	LTP271	ltpFR	4	15	1	CHILD	299	n/a	n/a	1	0.57763671875	0.412841796875	1	lower	amplitud.ttf
2877.75	n/a	WORD	1438875	wordpools/wasnorm_wordpool_less_exclusions.txt	LTP271	ltpFR	4	15	1	INFANT	737	n/a	n/a	1	0.57763671875	0.412841796875	1	lower	amplitud.ttf
2881.666	n/a	WORD	1440833	wordpools/wasnorm_wordpool_less_exclusions.txt	LTP271	ltpFR	4	15	1	BRICK	172	n/a	n/a	0	0.57763671875	0.412841796875	1	lower	amplitud.ttf
2885.854	n/a	WORD	1442927	wordpools/wasnorm_wordpool_less_exclusions.txt	LTP271	ltpFR	4	15	1	GEM	629	n/a	n/a	0	0.57763671875	0.412841796875	1	lower	amplitud.ttf
2889.746	n/a	WORD	1444873	wordpools/wasnorm_wordpool_less_exclusions.txt	LTP271	ltpFR	4	15	1	MULE	931	n/a	n/a	1	0.57763671875	0.412841796875	1	lower	amplitud.ttf
2893.65	n/a	WORD	1446825	wordpools/wasnorm_wordpool_less_exclusions.txt	LTP271	ltpFR	4	15	1	PEACH	1031	n/a	n/a	1	0.57763671875	0.412841796875	1	lower	amplitud.ttf
2897.798	n/a	WORD	1448899	wordpools/wasnorm_wordpool_less_exclusions.txt	LTP271	ltpFR	4	15	1	FOREST	593	n/a	n/a	3	0.57763671875	0.412841796875	1	lower	amplitud.ttf
2899.64	n/a	KEY_MSG	1449820	n/a	LTP271	ltpFR	4	15	n/a	n/a	n/a	n/a	n/a	n/a	n/a	n/a	n/a	n/a	n/a
2902.266	n/a	WORD	1451133	wordpools/wasnorm_wordpool_less_exclusions.txt	LTP271	ltpFR	4	15	1	SAPPHIRE	1234	n/a	n/a	0	0.57763671875	0.412841796875	1	lower	amplitud.ttf
2906.126	n/a	WORD	1453063	wordpools/wasnorm_wordpool_less_exclusions.txt	LTP271	ltpFR	4	15	1	HOME	712	n/a	n/a	0	0.57763671875	0.412841796875	1	lower	amplitud.ttf
2909.962	n/a	WORD	1454981	wordpools/wasnorm_wordpool_less_exclusions.txt	LTP271	ltpFR	4	15	1	PEARL	1034	n/a	n/a	0	0.57763671875	0.412841796875	1	lower	amplitud.ttf
2916.048	n/a	REC_START	1458024	n/a	LTP271	ltpFR	4	15	n/a	n/a	n/a	n/a	n/a	n/a	n/a	n/a	n/a	n/a	n/a
2917.904	n/a	REC_WORD	1458952	wordpools/wasnorm_wordpool_less_exclusions.txt	LTP271	ltpFR	4	15	1	GEM	629	n/a	n/a	0	n/a	n/a	n/a	n/a	n/a
2918.936	n/a	REC_WORD	1459468	wordpools/wasnorm_wordpool_less_exclusions.txt	LTP271	ltpFR	4	15	1	PEARL	1034	n/a	n/a	0	n/a	n/a	n/a	n/a	n/a
2919.762	n/a	REC_WORD	1459881	wordpools/wasnorm_wordpool_less_exclusions.txt	LTP271	ltpFR	4	15	1	SAPPHIRE	1234	n/a	n/a	0	n/a	n/a	n/a	n/a	n/a
2921.034	n/a	REC_WORD	1460517	wordpools/wasnorm_wordpool_less_exclusions.txt	LTP271	ltpFR	4	15	1	FOREST	593	n/a	n/a	3	n/a	n/a	n/a	n/a	n/a
2996.204	n/a	WORD	1498102	wordpools/wasnorm_wordpool_less_exclusions.txt	LTP271	ltpFR	4	16	-1	TUNA	1518	n/a	n/a	-1	1.0	1.0	1	upper	Verdana.ttf
3000.258	n/a	WORD	1500129	wordpools/wasnorm_wordpool_less_exclusions.txt	LTP271	ltpFR	4	16	-1	BRUNETTE	181	n/a	n/a	-1	1.0	1.0	1	upper	Verdana.ttf
3004.15	n/a	WORD	1502075	wordpools/wasnorm_wordpool_less_exclusions.txt	LTP271	ltpFR	4	16	-1	PASSAGE	1019	n/a	n/a	-1	1.0	1.0	1	upper	Verdana.ttf
3008.148	n/a	WORD	1504074	wordpools/wasnorm_wordpool_less_exclusions.txt	LTP271	ltpFR	4	16	-1	BANQUET	86	n/a	n/a	-1	1.0	1.0	1	upper	Verdana.ttf
3012.118	n/a	WORD	1506059	wordpools/wasnorm_wordpool_less_exclusions.txt	LTP271	ltpFR	4	16	-1	COLESLAW	344	n/a	n/a	-1	1.0	1.0	1	upper	Verdana.ttf
3016.236	n/a	WORD	1508118	wordpools/wasnorm_wordpool_less_exclusions.txt	LTP271	ltpFR	4	16	-1	COOK	372	n/a	n/a	-1	1.0	1.0	1	upper	Verdana.ttf
3020.128	n/a	WORD	1510064	wordpools/wasnorm_wordpool_less_exclusions.txt	LTP271	ltpFR	4	16	-1	MOVIE	927	n/a	n/a	-1	1.0	1.0	1	upper	Verdana.ttf
3024.064	n/a	WORD	1512032	wordpools/wasnorm_wordpool_less_exclusions.txt	LTP271	ltpFR	4	16	-1	BUTTERFLY	206	n/a	n/a	-1	1.0	1.0	1	upper	Verdana.ttf
3028.226	n/a	WORD	1514113	wordpools/wasnorm_wordpool_less_exclusions.txt	LTP271	ltpFR	4	16	-1	DOOR	486	n/a	n/a	-1	1.0	1.0	1	upper	Verdana.ttf
3032.346	n/a	WORD	1516173	wordpools/wasnorm_wordpool_less_exclusions.txt	LTP271	ltpFR	4	16	-1	RESTAURANT	1187	n/a	n/a	-1	1.0	1.0	1	upper	Verdana.ttf
3036.462	n/a	WORD	1518231	wordpools/wasnorm_wordpool_less_exclusions.txt	LTP271	ltpFR	4	16	-1	MERMAID	887	n/a	n/a	-1	1.0	1.0	1	upper	Verdana.ttf
3040.422	n/a	WORD	1520211	wordpools/wasnorm_wordpool_less_exclusions.txt	LTP271	ltpFR	4	16	-1	POLITICIAN	1099	n/a	n/a	-1	1.0	1.0	1	upper	Verdana.ttf
3044.258	n/a	WORD	1522129	wordpools/wasnorm_wordpool_less_exclusions.txt	LTP271	ltpFR	4	16	-1	SCOUT	1252	n/a	n/a	-1	1.0	1.0	1	upper	Verdana.ttf
3048.34	n/a	WORD	1524170	wordpools/wasnorm_wordpool_less_exclusions.txt	LTP271	ltpFR	4	16	-1	LOCK	838	n/a	n/a	-1	1.0	1.0	1	upper	Verdana.ttf
3052.322	n/a	WORD	1526161	wordpools/wasnorm_wordpool_less_exclusions.txt	LTP271	ltpFR	4	16	-1	LOG	841	n/a	n/a	-1	1.0	1.0	1	upper	Verdana.ttf
3056.372	n/a	WORD	1528186	wordpools/wasnorm_wordpool_less_exclusions.txt	LTP271	ltpFR	4	16	-1	FIREPLACE	570	n/a	n/a	-1	1.0	1.0	1	upper	Verdana.ttf
3062.272	n/a	REC_START	1531136	n/a	LTP271	ltpFR	4	16	n/a	n/a	n/a	n/a	n/a	n/a	n/a	n/a	n/a	n/a	n/a
3063.74	n/a	REC_WORD	1531870	wordpools/wasnorm_wordpool_less_exclusions.txt	LTP271	ltpFR	4	16	-1	LOG	841	n/a	n/a	-1	n/a	n/a	n/a	n/a	n/a
3064.522	n/a	REC_WORD	1532261	wordpools/wasnorm_wordpool_less_exclusions.txt	LTP271	ltpFR	4	16	-1	FIREPLACE	570	n/a	n/a	-1	n/a	n/a	n/a	n/a	n/a
3066.772	n/a	REC_WORD	1533386	wordpools/wasnorm_wordpool_less_exclusions.txt	LTP271	ltpFR	4	16	-1	BRUNETTE	181	n/a	n/a	-1	n/a	n/a	n/a	n/a	n/a
3071.71	n/a	REC_WORD	1535855	wordpools/wasnorm_wordpool_less_exclusions.txt	LTP271	ltpFR	4	16	-1	COOK	372	n/a	n/a	-1	n/a	n/a	n/a	n/a	n/a
3075.43	n/a	REC_WORD	1537715	wordpools/wasnorm_wordpool_less_exclusions.txt	LTP271	ltpFR	4	16	-1	TUNA	1518	n/a	n/a	-1	n/a	n/a	n/a	n/a	n/a
3076.328	n/a	REC_WORD	1538164	wordpools/wasnorm_wordpool_less_exclusions.txt	LTP271	ltpFR	4	16	-1	COLESLAW	344	n/a	n/a	-1	n/a	n/a	n/a	n/a	n/a
3078.074	n/a	REC_WORD	1539037	wordpools/wasnorm_wordpool_less_exclusions.txt	LTP271	ltpFR	4	16	-1	MOVIE	927	n/a	n/a	-1	n/a	n/a	n/a	n/a	n/a
3080.488	n/a	REC_WORD	1540244	wordpools/wasnorm_wordpool_less_exclusions.txt	LTP271	ltpFR	4	16	-1	POLITICIAN	1099	n/a	n/a	-1	n/a	n/a	n/a	n/a	n/a
3082.564	n/a	REC_WORD	1541282	wordpools/wasnorm_wordpool_less_exclusions.txt	LTP271	ltpFR	4	16	-1	BUTTERFLY	206	n/a	n/a	-1	n/a	n/a	n/a	n/a	n/a
3084.882	n/a	REC_WORD	1542441	wordpools/wasnorm_wordpool_less_exclusions.txt	LTP271	ltpFR	4	16	-1	DOOR	486	n/a	n/a	-1	n/a	n/a	n/a	n/a	n/a
3086.016	n/a	REC_WORD	1543008	wordpools/wasnorm_wordpool_less_exclusions.txt	LTP271	ltpFR	4	16	-1	RESTAURANT	1187	n/a	n/a	-1	n/a	n/a	n/a	n/a	n/a
3130.096	n/a	REC_WORD	1565048	wordpools/wasnorm_wordpool_less_exclusions.txt	LTP271	ltpFR	4	16	-1	BANQUET	86	n/a	n/a	-1	n/a	n/a	n/a	n/a	n/a
3150.416	n/a	REC_START	1575208	n/a	LTP271	ltpFR	4	n/a	n/a	n/a	n/a	n/a	n/a	n/a	n/a	n/a	n/a	n/a	n/a
3159.226	n/a	FFR_REC_WORD	1579613	wordpools/wasnorm_wordpool_less_exclusions.txt	LTP271	ltpFR	4	n/a	-1	BANQUET	86	n/a	n/a	-1	n/a	n/a	n/a	n/a	n/a
3162.122	n/a	FFR_REC_WORD	1581061	wordpools/wasnorm_wordpool_less_exclusions.txt	LTP271	ltpFR	4	n/a	-1	BRUNETTE	181	n/a	n/a	-1	n/a	n/a	n/a	n/a	n/a
3166.44	n/a	FFR_REC_WORD	1583220	wordpools/wasnorm_wordpool_less_exclusions.txt	LTP271	ltpFR	4	n/a	-1	LEMON	810	n/a	n/a	-1	n/a	n/a	n/a	n/a	n/a
3166.954	n/a	FFR_REC_WORD	1583477	wordpools/wasnorm_wordpool_less_exclusions.txt	LTP271	ltpFR	4	n/a	-1	LIME	823	n/a	n/a	-1	n/a	n/a	n/a	n/a	n/a
3168.854	n/a	FFR_REC_WORD	1584427	wordpools/wasnorm_wordpool_less_exclusions.txt	LTP271	ltpFR	4	n/a	-1	GOBLIN	645	n/a	n/a	-1	n/a	n/a	n/a	n/a	n/a
3169.792	n/a	FFR_REC_WORD	1584896	wordpools/wasnorm_wordpool_less_exclusions.txt	LTP271	ltpFR	4	n/a	-1	WAGON	1578	n/a	n/a	-1	n/a	n/a	n/a	n/a	n/a
3172.32	n/a	FFR_REC_WORD	1586160	wordpools/wasnorm_wordpool_less_exclusions.txt	LTP271	ltpFR	4	n/a	-1	MAILBOX	857	n/a	n/a	-1	n/a	n/a	n/a	n/a	n/a
3173.408	n/a	FFR_REC_WORD	1586704	wordpools/wasnorm_wordpool_less_exclusions.txt	LTP271	ltpFR	4	n/a	-1	ENVELOPE	537	n/a	n/a	-1	n/a	n/a	n/a	n/a	n/a
3175.434	n/a	FFR_REC_WORD	1587717	wordpools/wasnorm_wordpool_less_exclusions.txt	LTP271	ltpFR	4	n/a	-1	STAMP	1370	n/a	n/a	-1	n/a	n/a	n/a	n/a	n/a
3182.864	n/a	FFR_REC_WORD	1591432	wordpools/wasnorm_wordpool_less_exclusions.txt	LTP271	ltpFR	4	n/a	-1	RAILROAD	1162	n/a	n/a	-1	n/a	n/a	n/a	n/a	n/a
3183.522	n/a	FFR_REC_WORD	1591761	wordpools/wasnorm_wordpool_less_exclusions.txt	LTP271	ltpFR	4	n/a	-1	EXPLOSION	544	n/a	n/a	-1	n/a	n/a	n/a	n/a	n/a
3186.046	n/a	FFR_REC_WORD	1593023	wordpools/wasnorm_wordpool_less_exclusions.txt	LTP271	ltpFR	4	n/a	-1	AIRPLANE	12	n/a	n/a	-1	n/a	n/a	n/a	n/a	n/a
3190.068	n/a	FFR_REC_WORD	1595034	wordpools/wasnorm_wordpool_less_exclusions.txt	LTP271	ltpFR	4	n/a	-1	COOKBOOK	373	n/a	n/a	-1	n/a	n/a	n/a	n/a	n/a
3190.996	n/a	FFR_REC_WORD	1595498	wordpools/wasnorm_wordpool_less_exclusions.txt	LTP271	ltpFR	4	n/a	-1	WASHCLOTH	1591	n/a	n/a	-1	n/a	n/a	n/a	n/a	n/a
3191.858	n/a	FFR_REC_WORD	1595929	wordpools/wasnorm_wordpool_less_exclusions.txt	LTP271	ltpFR	4	n/a	-1	SALOON	1228	n/a	n/a	-1	n/a	n/a	n/a	n/a	n/a
3193.214	n/a	FFR_REC_WORD	1596607	wordpools/wasnorm_wordpool_less_exclusions.txt	LTP271	ltpFR	4	n/a	-1	ASHTRAY	45	n/a	n/a	-1	n/a	n/a	n/a	n/a	n/a
3194.172	n/a	FFR_REC_WORD	1597086	wordpools/wasnorm_wordpool_less_exclusions.txt	LTP271	ltpFR	4	n/a	-1	POWDER	1117	n/a	n/a	-1	n/a	n/a	n/a	n/a	n/a
3195.174	n/a	FFR_REC_WORD	1597587	wordpools/wasnorm_wordpool_less_exclusions.txt	LTP271	ltpFR	4	n/a	-1	SPRINKLE	1359	n/a	n/a	-1	n/a	n/a	n/a	n/a	n/a
3199.052	n/a	FFR_REC_WORD	1599526	wordpools/wasnorm_wordpool_less_exclusions.txt	LTP271	ltpFR	4	n/a	-1	BROOK	177	n/a	n/a	-1	n/a	n/a	n/a	n/a	n/a
3199.93	n/a	FFR_REC_WORD	1599965	wordpools/wasnorm_wordpool_less_exclusions.txt	LTP271	ltpFR	4	n/a	-1	BRIDGE	174	n/a	n/a	-1	n/a	n/a	n/a	n/a	n/a
3205.264	n/a	FFR_REC_WORD	1602632	wordpools/wasnorm_wordpool_less_exclusions.txt	LTP271	ltpFR	4	n/a	-1	MOVIE	927	n/a	n/a	-1	n/a	n/a	n/a	n/a	n/a
3206.106	n/a	FFR_REC_WORD	1603053	wordpools/wasnorm_wordpool_less_exclusions.txt	LTP271	ltpFR	4	n/a	-1	POLITICIAN	1099	n/a	n/a	-1	n/a	n/a	n/a	n/a	n/a
3207.578	n/a	FFR_REC_WORD	1603789	wordpools/wasnorm_wordpool_less_exclusions.txt	LTP271	ltpFR	4	n/a	-1	RESTAURANT	1187	n/a	n/a	-1	n/a	n/a	n/a	n/a	n/a
3208.476	n/a	FFR_REC_WORD	1604238	wordpools/wasnorm_wordpool_less_exclusions.txt	LTP271	ltpFR	4	n/a	-1	BUTTERFLY	206	n/a	n/a	-1	n/a	n/a	n/a	n/a	n/a
3209.764	n/a	FFR_REC_WORD	1604882	wordpools/wasnorm_wordpool_less_exclusions.txt	LTP271	ltpFR	4	n/a	-1	DOOR	486	n/a	n/a	-1	n/a	n/a	n/a	n/a	n/a
3218.044	n/a	FFR_REC_WORD	1609022	wordpools/wasnorm_wordpool_less_exclusions.txt	LTP271	ltpFR	4	n/a	0	WATER	1594	n/a	n/a	0	n/a	n/a	n/a	n/a	n/a
3220.974	n/a	FFR_REC_WORD	1610487	wordpools/wasnorm_wordpool_less_exclusions.txt	LTP271	ltpFR	4	n/a	0	JUG	762	n/a	n/a	0	n/a	n/a	n/a	n/a	n/a
3228.388	n/a	FFR_REC_WORD	1614194	wordpools/wasnorm_wordpool_less_exclusions.txt	LTP271	ltpFR	4	n/a	n/a	ARCHITECT	36	n/a	n/a	n/a	n/a	n/a	n/a	n/a	n/a
3237.202	n/a	FFR_REC_WORD	1618601	wordpools/wasnorm_wordpool_less_exclusions.txt	LTP271	ltpFR	4	n/a	0	ANIMAL	23	n/a	n/a	1	n/a	n/a	n/a	n/a	n/a
3240.136	n/a	FFR_REC_WORD	1620068	wordpools/wasnorm_wordpool_less_exclusions.txt	LTP271	ltpFR	4	n/a	0	WOLF	1619	n/a	n/a	1	n/a	n/a	n/a	n/a	n/a
3241.902	n/a	FFR_REC_WORD	1620951	wordpools/wasnorm_wordpool_less_exclusions.txt	LTP271	ltpFR	4	n/a	0	CAT	257	n/a	n/a	0	n/a	n/a	n/a	n/a	n/a
3246.248	n/a	FFR_REC_WORD	1623124	wordpools/wasnorm_wordpool_less_exclusions.txt	LTP271	ltpFR	4	n/a	1	ARMY	39	n/a	n/a	1	n/a	n/a	n/a	n/a	n/a
3247.39	n/a	FFR_REC_WORD	1623695	wordpools/wasnorm_wordpool_less_exclusions.txt	LTP271	ltpFR	4	n/a	1	MILITARY	894	n/a	n/a	0	n/a	n/a	n/a	n/a	n/a
3251.38	n/a	FFR_REC_WORD	1625690	wordpools/wasnorm_wordpool_less_exclusions.txt	LTP271	ltpFR	4	n/a	1	PRINTER	1126	n/a	n/a	0	n/a	n/a	n/a	n/a	n/a
3252.288	n/a	FFR_REC_WORD	1626144	wordpools/wasnorm_wordpool_less_exclusions.txt	LTP271	ltpFR	4	n/a	1	DRYER	503	n/a	n/a	0	n/a	n/a	n/a	n/a	n/a
3265.954	n/a	FFR_REC_WORD	1632977	wordpools/wasnorm_wordpool_less_exclusions.txt	LTP271	ltpFR	4	n/a	0	PROTRACTOR	1133	n/a	n/a	0	n/a	n/a	n/a	n/a	n/a
3266.954	n/a	FFR_REC_WORD_VV	1633477	wordpools/wasnorm_wordpool_less_exclusions.txt	LTP271	ltpFR	4	n/a	n/a	<>	-1	n/a	n/a	n/a	n/a	n/a	n/a	n/a	n/a
3297.684	n/a	FFR_REC_WORD	1648842	wordpools/wasnorm_wordpool_less_exclusions.txt	LTP271	ltpFR	4	n/a	1	GEM	629	n/a	n/a	0	n/a	n/a	n/a	n/a	n/a
3298.792	n/a	FFR_REC_WORD	1649396	wordpools/wasnorm_wordpool_less_exclusions.txt	LTP271	ltpFR	4	n/a	1	PEARL	1034	n/a	n/a	0	n/a	n/a	n/a	n/a	n/a
3299.514	n/a	FFR_REC_WORD	1649757	wordpools/wasnorm_wordpool_less_exclusions.txt	LTP271	ltpFR	4	n/a	1	SAPPHIRE	1234	n/a	n/a	0	n/a	n/a	n/a	n/a	n/a
3341.192	n/a	FFR_REC_WORD	1670596	wordpools/wasnorm_wordpool_less_exclusions.txt	LTP271	ltpFR	4	n/a	1	ATLAS	53	n/a	n/a	0	n/a	n/a	n/a	n/a	n/a
3441.0	n/a	FFR_REC_WORD	1720500	wordpools/wasnorm_wordpool_less_exclusions.txt	LTP271	ltpFR	4	n/a	1	DOCK	477	n/a	n/a	0	n/a	n/a	n/a	n/a	n/a
3482.602	n/a	REC_START	1741301	n/a	LTP271	ltpFR	4	1	n/a	n/a	n/a	n/a	n/a	n/a	n/a	n/a	n/a	n/a	n/a
3482.65	n/a	RECOG_TARGET	1741325	n/a	LTP271	ltpFR	4	1	-1	POWDER	1117	1	4	-1	n/a	n/a	n/a	n/a	n/a
3484.466	n/a	RECOG_RESP	1742233	n/a	LTP271	ltpFR	4	1	-1	POWDER	1117	1	n/a	-1	n/a	n/a	n/a	n/a	n/a
3486.012	n/a	RECOG_CONF	1743006	n/a	LTP271	ltpFR	4	1	-1	POWDER	1117	n/a	4	-1	n/a	n/a	n/a	n/a	n/a
3488.206	n/a	RECOG_LURE	1744103	n/a	LTP271	ltpFR	4	1	n/a	MICROPHONE	890	0	5	n/a	n/a	n/a	n/a	n/a	n/a
3489.302	n/a	RECOG_RESP	1744651	n/a	LTP271	ltpFR	4	1	n/a	MICROPHONE	890	0	n/a	n/a	n/a	n/a	n/a	n/a	n/a
3490.532	n/a	RECOG_CONF	1745266	n/a	LTP271	ltpFR	4	1	n/a	MICROPHONE	890	n/a	5	n/a	n/a	n/a	n/a	n/a	n/a
3492.556	n/a	RECOG_TARGET	1746278	n/a	LTP271	ltpFR	4	1	1	AGENT	10	0	4	1	n/a	n/a	n/a	n/a	n/a
3493.598	n/a	RECOG_RESP	1746799	n/a	LTP271	ltpFR	4	1	1	AGENT	10	0	n/a	1	n/a	n/a	n/a	n/a	n/a
3494.882	n/a	RECOG_CONF	1747441	n/a	LTP271	ltpFR	4	1	1	AGENT	10	n/a	4	1	n/a	n/a	n/a	n/a	n/a
3496.872	n/a	RECOG_TARGET	1748436	n/a	LTP271	ltpFR	4	1	0	CONTRACTOR	369	0	3	1	n/a	n/a	n/a	n/a	n/a
3497.948	n/a	RECOG_RESP	1748974	n/a	LTP271	ltpFR	4	1	0	CONTRACTOR	369	0	n/a	1	n/a	n/a	n/a	n/a	n/a
3499.072	n/a	RECOG_CONF	1749536	n/a	LTP271	ltpFR	4	1	0	CONTRACTOR	369	n/a	3	1	n/a	n/a	n/a	n/a	n/a
3501.054	n/a	RECOG_LURE	1750527	n/a	LTP271	ltpFR	4	1	n/a	DYNAMITE	511	0	4	n/a	n/a	n/a	n/a	n/a	n/a
3502.132	n/a	RECOG_RESP	1751066	n/a	LTP271	ltpFR	4	1	n/a	DYNAMITE	511	0	n/a	n/a	n/a	n/a	n/a	n/a	n/a
3503.192	n/a	RECOG_CONF	1751596	n/a	LTP271	ltpFR	4	1	n/a	DYNAMITE	511	n/a	4	n/a	n/a	n/a	n/a	n/a	n/a
3505.098	n/a	RECOG_TARGET	1752549	n/a	LTP271	ltpFR	4	1	-1	PLUM	1090	1	4	-1	n/a	n/a	n/a	n/a	n/a
3506.448	n/a	RECOG_RESP	1753224	n/a	LTP271	ltpFR	4	1	-1	PLUM	1090	1	n/a	-1	n/a	n/a	n/a	n/a	n/a
3507.574	n/a	RECOG_CONF	1753787	n/a	LTP271	ltpFR	4	1	-1	PLUM	1090	n/a	4	-1	n/a	n/a	n/a	n/a	n/a
3509.514	n/a	RECOG_LURE	1754757	n/a	LTP271	ltpFR	4	1	n/a	VALLEY	1545	0	4	n/a	n/a	n/a	n/a	n/a	n/a
3510.388	n/a	RECOG_RESP	1755194	n/a	LTP271	ltpFR	4	1	n/a	VALLEY	1545	0	n/a	n/a	n/a	n/a	n/a	n/a	n/a
3511.334	n/a	RECOG_CONF	1755667	n/a	LTP271	ltpFR	4	1	n/a	VALLEY	1545	n/a	4	n/a	n/a	n/a	n/a	n/a	n/a
3513.334	n/a	RECOG_LURE	1756667	n/a	LTP271	ltpFR	4	1	n/a	TRAY	1498	1	1	n/a	n/a	n/a	n/a	n/a	n/a
3514.868	n/a	RECOG_RESP	1757434	n/a	LTP271	ltpFR	4	1	n/a	TRAY	1498	1	n/a	n/a	n/a	n/a	n/a	n/a	n/a
3515.862	n/a	RECOG_CONF	1757931	n/a	LTP271	ltpFR	4	1	n/a	TRAY	1498	n/a	1	n/a	n/a	n/a	n/a	n/a	n/a
3517.73	n/a	RECOG_TARGET	1758865	n/a	LTP271	ltpFR	4	1	0	TREAD	1499	1	2	0	n/a	n/a	n/a	n/a	n/a
3518.878	n/a	RECOG_RESP	1759439	n/a	LTP271	ltpFR	4	1	0	TREAD	1499	1	n/a	0	n/a	n/a	n/a	n/a	n/a
3519.824	n/a	RECOG_CONF	1759912	n/a	LTP271	ltpFR	4	1	0	TREAD	1499	n/a	2	0	n/a	n/a	n/a	n/a	n/a
3521.7	n/a	RECOG_LURE	1760850	n/a	LTP271	ltpFR	4	1	n/a	KING	777	0	3	n/a	n/a	n/a	n/a	n/a	n/a
3522.618	n/a	RECOG_RESP	1761309	n/a	LTP271	ltpFR	4	1	n/a	KING	777	0	n/a	n/a	n/a	n/a	n/a	n/a	n/a
3523.514	n/a	RECOG_CONF	1761757	n/a	LTP271	ltpFR	4	1	n/a	KING	777	n/a	3	n/a	n/a	n/a	n/a	n/a	n/a
3525.364	n/a	RECOG_TARGET	1762682	n/a	LTP271	ltpFR	4	1	1	MOAT	903	0	4	0	n/a	n/a	n/a	n/a	n/a
3526.32	n/a	RECOG_RESP	1763160	n/a	LTP271	ltpFR	4	1	1	MOAT	903	0	n/a	0	n/a	n/a	n/a	n/a	n/a
3527.174	n/a	RECOG_CONF	1763587	n/a	LTP271	ltpFR	4	1	1	MOAT	903	n/a	4	0	n/a	n/a	n/a	n/a	n/a
3529.256	n/a	RECOG_TARGET	1764628	n/a	LTP271	ltpFR	4	1	1	DRUM	502	0	4	0	n/a	n/a	n/a	n/a	n/a
3530.274	n/a	RECOG_RESP	1765137	n/a	LTP271	ltpFR	4	1	1	DRUM	502	0	n/a	0	n/a	n/a	n/a	n/a	n/a
3531.204	n/a	RECOG_CONF	1765602	n/a	LTP271	ltpFR	4	1	1	DRUM	502	n/a	4	0	n/a	n/a	n/a	n/a	n/a
3533.026	n/a	RECOG_LURE	1766513	n/a	LTP271	ltpFR	4	1	n/a	VITAMIN	1574	0	4	n/a	n/a	n/a	n/a	n/a	n/a
3534.04	n/a	RECOG_RESP	1767020	n/a	LTP271	ltpFR	4	1	n/a	VITAMIN	1574	0	n/a	n/a	n/a	n/a	n/a	n/a	n/a
3534.974	n/a	RECOG_CONF	1767487	n/a	LTP271	ltpFR	4	1	n/a	VITAMIN	1574	n/a	4	n/a	n/a	n/a	n/a	n/a	n/a
3536.908	n/a	RECOG_LURE	1768454	n/a	LTP271	ltpFR	4	1	n/a	BUYER	208	0	2	n/a	n/a	n/a	n/a	n/a	n/a
3537.914	n/a	RECOG_RESP	1768957	n/a	LTP271	ltpFR	4	1	n/a	BUYER	208	0	n/a	n/a	n/a	n/a	n/a	n/a	n/a
3538.824	n/a	RECOG_CONF	1769412	n/a	LTP271	ltpFR	4	1	n/a	BUYER	208	n/a	2	n/a	n/a	n/a	n/a	n/a	n/a
3540.7	n/a	RECOG_LURE	1770350	n/a	LTP271	ltpFR	4	1	n/a	ROCKET	1202	0	4	n/a	n/a	n/a	n/a	n/a	n/a
3541.55	n/a	RECOG_RESP	1770775	n/a	LTP271	ltpFR	4	1	n/a	ROCKET	1202	0	n/a	n/a	n/a	n/a	n/a	n/a	n/a
3542.354	n/a	RECOG_CONF	1771177	n/a	LTP271	ltpFR	4	1	n/a	ROCKET	1202	n/a	4	n/a	n/a	n/a	n/a	n/a	n/a
3544.386	n/a	RECOG_TARGET	1772193	n/a	LTP271	ltpFR	4	1	1	PEARL	1034	1	5	0	n/a	n/a	n/a	n/a	n/a
3545.156	n/a	RECOG_RESP	1772578	n/a	LTP271	ltpFR	4	1	1	PEARL	1034	1	n/a	0	n/a	n/a	n/a	n/a	n/a
3546.176	n/a	RECOG_CONF	1773088	n/a	LTP271	ltpFR	4	1	1	PEARL	1034	n/a	5	0	n/a	n/a	n/a	n/a	n/a
3547.95	n/a	RECOG_TARGET	1773975	n/a	LTP271	ltpFR	4	1	0	PLATE	1086	0	1	1	n/a	n/a	n/a	n/a	n/a
3548.876	n/a	RECOG_RESP	1774438	n/a	LTP271	ltpFR	4	1	0	PLATE	1086	0	n/a	1	n/a	n/a	n/a	n/a	n/a
3549.8	n/a	RECOG_CONF	1774900	n/a	LTP271	ltpFR	4	1	0	PLATE	1086	n/a	1	1	n/a	n/a	n/a	n/a	n/a
3551.732	n/a	RECOG_TARGET	1775866	n/a	LTP271	ltpFR	4	1	0	MAGICIAN	854	1	2	1	n/a	n/a	n/a	n/a	n/a
3552.7	n/a	RECOG_RESP	1776350	n/a	LTP271	ltpFR	4	1	0	MAGICIAN	854	1	n/a	1	n/a	n/a	n/a	n/a	n/a
3553.626	n/a	RECOG_CONF	1776813	n/a	LTP271	ltpFR	4	1	0	MAGICIAN	854	n/a	2	1	n/a	n/a	n/a	n/a	n/a
3555.624	n/a	RECOG_TARGET	1777812	n/a	LTP271	ltpFR	4	1	0	TOOTHPASTE	1483	1	2	0	n/a	n/a	n/a	n/a	n/a
3556.506	n/a	RECOG_RESP	1778253	n/a	LTP271	ltpFR	4	1	0	TOOTHPASTE	1483	1	n/a	0	n/a	n/a	n/a	n/a	n/a
3557.506	n/a	RECOG_CONF	1778753	n/a	LTP271	ltpFR	4	1	0	TOOTHPASTE	1483	n/a	2	0	n/a	n/a	n/a	n/a	n/a
3559.404	n/a	RECOG_LURE	1779702	n/a	LTP271	ltpFR	4	1	n/a	CHIEF	298	0	1	n/a	n/a	n/a	n/a	n/a	n/a
3560.65	n/a	RECOG_RESP	1780325	n/a	LTP271	ltpFR	4	1	n/a	CHIEF	298	0	n/a	n/a	n/a	n/a	n/a	n/a	n/a
3561.556	n/a	RECOG_CONF	1780778	n/a	LTP271	ltpFR	4	1	n/a	CHIEF	298	n/a	1	n/a	n/a	n/a	n/a	n/a	n/a
3566.344	n/a	REC_START	1783172	n/a	LTP271	ltpFR	4	2	n/a	n/a	n/a	n/a	n/a	n/a	n/a	n/a	n/a	n/a	n/a
3566.398	n/a	RECOG_TARGET	1783199	n/a	LTP271	ltpFR	4	2	0	LAMB	797	0	1	1	n/a	n/a	n/a	n/a	n/a
3567.674	n/a	RECOG_RESP	1783837	n/a	LTP271	ltpFR	4	2	0	LAMB	797	0	n/a	1	n/a	n/a	n/a	n/a	n/a
3568.61	n/a	RECOG_CONF	1784305	n/a	LTP271	ltpFR	4	2	0	LAMB	797	n/a	1	1	n/a	n/a	n/a	n/a	n/a
3570.564	n/a	RECOG_TARGET	1785282	n/a	LTP271	ltpFR	4	2	-1	APPENDAGE	32	1	4	-1	n/a	n/a	n/a	n/a	n/a
3571.564	n/a	RECOG_RESP	1785782	n/a	LTP271	ltpFR	4	2	-1	APPENDAGE	32	1	n/a	-1	n/a	n/a	n/a	n/a	n/a
3572.564	n/a	RECOG_CONF	1786282	n/a	LTP271	ltpFR	4	2	-1	APPENDAGE	32	n/a	4	-1	n/a	n/a	n/a	n/a	n/a
3574.366	n/a	RECOG_TARGET	1787183	n/a	LTP271	ltpFR	4	2	1	SUBMARINE	1398	1	3	0	n/a	n/a	n/a	n/a	n/a
3575.574	n/a	RECOG_RESP	1787787	n/a	LTP271	ltpFR	4	2	1	SUBMARINE	1398	1	n/a	0	n/a	n/a	n/a	n/a	n/a
3576.524	n/a	RECOG_CONF	1788262	n/a	LTP271	ltpFR	4	2	1	SUBMARINE	1398	n/a	3	0	n/a	n/a	n/a	n/a	n/a
3578.394	n/a	RECOG_TARGET	1789197	n/a	LTP271	ltpFR	4	2	1	ATLAS	53	1	5	0	n/a	n/a	n/a	n/a	n/a
3579.31	n/a	RECOG_RESP	1789655	n/a	LTP271	ltpFR	4	2	1	ATLAS	53	1	n/a	0	n/a	n/a	n/a	n/a	n/a
3580.284	n/a	RECOG_CONF	1790142	n/a	LTP271	ltpFR	4	2	1	ATLAS	53	n/a	5	0	n/a	n/a	n/a	n/a	n/a
3582.114	n/a	RECOG_TARGET	1791057	n/a	LTP271	ltpFR	4	2	0	WOLF	1619	1	5	1	n/a	n/a	n/a	n/a	n/a
3582.91	n/a	RECOG_RESP	1791455	n/a	LTP271	ltpFR	4	2	0	WOLF	1619	1	n/a	1	n/a	n/a	n/a	n/a	n/a
3583.766	n/a	RECOG_CONF	1791883	n/a	LTP271	ltpFR	4	2	0	WOLF	1619	n/a	5	1	n/a	n/a	n/a	n/a	n/a
3585.828	n/a	RECOG_TARGET	1792914	n/a	LTP271	ltpFR	4	2	1	WAIST	1579	1	4	0	n/a	n/a	n/a	n/a	n/a
3586.736	n/a	RECOG_RESP	1793368	n/a	LTP271	ltpFR	4	2	1	WAIST	1579	1	n/a	0	n/a	n/a	n/a	n/a	n/a
3587.626	n/a	RECOG_CONF	1793813	n/a	LTP271	ltpFR	4	2	1	WAIST	1579	n/a	4	0	n/a	n/a	n/a	n/a	n/a
3589.642	n/a	RECOG_TARGET	1794821	n/a	LTP271	ltpFR	4	2	1	VET	1560	0	2	1	n/a	n/a	n/a	n/a	n/a
3590.536	n/a	RECOG_RESP	1795268	n/a	LTP271	ltpFR	4	2	1	VET	1560	0	n/a	1	n/a	n/a	n/a	n/a	n/a
3591.486	n/a	RECOG_CONF	1795743	n/a	LTP271	ltpFR	4	2	1	VET	1560	n/a	2	1	n/a	n/a	n/a	n/a	n/a
3593.436	n/a	RECOG_TARGET	1796718	n/a	LTP271	ltpFR	4	2	1	DESIGNER	451	0	3	1	n/a	n/a	n/a	n/a	n/a
3594.286	n/a	RECOG_RESP	1797143	n/a	LTP271	ltpFR	4	2	1	DESIGNER	451	0	n/a	1	n/a	n/a	n/a	n/a	n/a
3595.076	n/a	RECOG_CONF	1797538	n/a	LTP271	ltpFR	4	2	1	DESIGNER	451	n/a	3	1	n/a	n/a	n/a	n/a	n/a
3597.204	n/a	RECOG_LURE	1798602	n/a	LTP271	ltpFR	4	2	n/a	DRAWING	494	1	2	n/a	n/a	n/a	n/a	n/a	n/a
3598.036	n/a	RECOG_RESP	1799018	n/a	LTP271	ltpFR	4	2	n/a	DRAWING	494	1	n/a	n/a	n/a	n/a	n/a	n/a	n/a
3599.006	n/a	RECOG_CONF	1799503	n/a	LTP271	ltpFR	4	2	n/a	DRAWING	494	n/a	2	n/a	n/a	n/a	n/a	n/a	n/a
3601.054	n/a	RECOG_TARGET	1800527	n/a	LTP271	ltpFR	4	2	1	SOCK	1339	1	4	0	n/a	n/a	n/a	n/a	n/a
3601.942	n/a	RECOG_RESP	1800971	n/a	LTP271	ltpFR	4	2	1	SOCK	1339	1	n/a	0	n/a	n/a	n/a	n/a	n/a
3602.896	n/a	RECOG_CONF	1801448	n/a	LTP271	ltpFR	4	2	1	SOCK	1339	n/a	4	0	n/a	n/a	n/a	n/a	n/a
3604.796	n/a	RECOG_LURE	1802398	n/a	LTP271	ltpFR	4	2	n/a	LITTER	832	0	2	n/a	n/a	n/a	n/a	n/a	n/a
3605.832	n/a	RECOG_RESP	1802916	n/a	LTP271	ltpFR	4	2	n/a	LITTER	832	0	n/a	n/a	n/a	n/a	n/a	n/a	n/a
3606.846	n/a	RECOG_CONF	1803423	n/a	LTP271	ltpFR	4	2	n/a	LITTER	832	n/a	2	n/a	n/a	n/a	n/a	n/a	n/a
3608.694	n/a	RECOG_LURE	1804347	n/a	LTP271	ltpFR	4	2	n/a	HERD	705	0	1	n/a	n/a	n/a	n/a	n/a	n/a
3609.836	n/a	RECOG_RESP	1804918	n/a	LTP271	ltpFR	4	2	n/a	HERD	705	0	n/a	n/a	n/a	n/a	n/a	n/a	n/a
3610.786	n/a	RECOG_CONF	1805393	n/a	LTP271	ltpFR	4	2	n/a	HERD	705	n/a	1	n/a	n/a	n/a	n/a	n/a	n/a
3612.58	n/a	RECOG_TARGET	1806290	n/a	LTP271	ltpFR	4	2	1	BUFFALO	186	1	3	1	n/a	n/a	n/a	n/a	n/a
3613.536	n/a	RECOG_RESP	1806768	n/a	LTP271	ltpFR	4	2	1	BUFFALO	186	1	n/a	1	n/a	n/a	n/a	n/a	n/a
3614.386	n/a	RECOG_CONF	1807193	n/a	LTP271	ltpFR	4	2	1	BUFFALO	186	n/a	3	1	n/a	n/a	n/a	n/a	n/a
3616.344	n/a	RECOG_LURE	1808172	n/a	LTP271	ltpFR	4	2	n/a	STAFF	1365	0	3	n/a	n/a	n/a	n/a	n/a	n/a
3617.176	n/a	RECOG_RESP	1808588	n/a	LTP271	ltpFR	4	2	n/a	STAFF	1365	0	n/a	n/a	n/a	n/a	n/a	n/a	n/a
3618.076	n/a	RECOG_CONF	1809038	n/a	LTP271	ltpFR	4	2	n/a	STAFF	1365	n/a	3	n/a	n/a	n/a	n/a	n/a	n/a
3620.194	n/a	RECOG_TARGET	1810097	n/a	LTP271	ltpFR	4	2	1	MANSION	864	1	1	0	n/a	n/a	n/a	n/a	n/a
3620.962	n/a	RECOG_RESP	1810481	n/a	LTP271	ltpFR	4	2	1	MANSION	864	1	n/a	0	n/a	n/a	n/a	n/a	n/a
3622.008	n/a	RECOG_CONF	1811004	n/a	LTP271	ltpFR	4	2	1	MANSION	864	n/a	1	0	n/a	n/a	n/a	n/a	n/a
3623.74	n/a	RECOG_LURE	1811870	n/a	LTP271	ltpFR	4	2	n/a	POSTAGE	1113	1	2	n/a	n/a	n/a	n/a	n/a	n/a
3624.732	n/a	RECOG_RESP	1812366	n/a	LTP271	ltpFR	4	2	n/a	POSTAGE	1113	1	n/a	n/a	n/a	n/a	n/a	n/a	n/a
3625.778	n/a	RECOG_CONF	1812889	n/a	LTP271	ltpFR	4	2	n/a	POSTAGE	1113	n/a	2	n/a	n/a	n/a	n/a	n/a	n/a
3627.716	n/a	RECOG_LURE	1813858	n/a	LTP271	ltpFR	4	2	n/a	TREE	1502	0	2	n/a	n/a	n/a	n/a	n/a	n/a
3628.602	n/a	RECOG_RESP	1814301	n/a	LTP271	ltpFR	4	2	n/a	TREE	1502	0	n/a	n/a	n/a	n/a	n/a	n/a	n/a
3629.548	n/a	RECOG_CONF	1814774	n/a	LTP271	ltpFR	4	2	n/a	TREE	1502	n/a	2	n/a	n/a	n/a	n/a	n/a	n/a
3631.58	n/a	RECOG_TARGET	1815790	n/a	LTP271	ltpFR	4	2	1	DOCK	477	0	1	0	n/a	n/a	n/a	n/a	n/a
3632.508	n/a	RECOG_RESP	1816254	n/a	LTP271	ltpFR	4	2	1	DOCK	477	0	n/a	0	n/a	n/a	n/a	n/a	n/a
3633.48	n/a	RECOG_CONF	1816740	n/a	LTP271	ltpFR	4	2	1	DOCK	477	n/a	1	0	n/a	n/a	n/a	n/a	n/a
3635.35	n/a	RECOG_LURE	1817675	n/a	LTP271	ltpFR	4	2	n/a	FINGER	567	0	2	n/a	n/a	n/a	n/a	n/a	n/a
3636.578	n/a	RECOG_RESP	1818289	n/a	LTP271	ltpFR	4	2	n/a	FINGER	567	0	n/a	n/a	n/a	n/a	n/a	n/a	n/a
3637.578	n/a	RECOG_CONF	1818789	n/a	LTP271	ltpFR	4	2	n/a	FINGER	567	n/a	2	n/a	n/a	n/a	n/a	n/a	n/a
3639.6	n/a	RECOG_TARGET	1819800	n/a	LTP271	ltpFR	4	2	-1	APARTMENT	30	1	3	-1	n/a	n/a	n/a	n/a	n/a
3640.538	n/a	RECOG_RESP	1820269	n/a	LTP271	ltpFR	4	2	-1	APARTMENT	30	1	n/a	-1	n/a	n/a	n/a	n/a	n/a
3641.488	n/a	RECOG_CONF	1820744	n/a	LTP271	ltpFR	4	2	-1	APARTMENT	30	n/a	3	-1	n/a	n/a	n/a	n/a	n/a
3646.03	n/a	REC_START	1823015	n/a	LTP271	ltpFR	4	3	n/a	n/a	n/a	n/a	n/a	n/a	n/a	n/a	n/a	n/a	n/a
3646.092	n/a	RECOG_TARGET	1823046	n/a	LTP271	ltpFR	4	3	1	BEAST	108	1	3	1	n/a	n/a	n/a	n/a	n/a
3646.966	n/a	RECOG_RESP	1823483	n/a	LTP271	ltpFR	4	3	1	BEAST	108	1	n/a	1	n/a	n/a	n/a	n/a	n/a
3647.98	n/a	RECOG_CONF	1823990	n/a	LTP271	ltpFR	4	3	1	BEAST	108	n/a	3	1	n/a	n/a	n/a	n/a	n/a
3649.906	n/a	RECOG_TARGET	1824953	n/a	LTP271	ltpFR	4	3	0	CAT	257	1	4	0	n/a	n/a	n/a	n/a	n/a
3650.646	n/a	RECOG_RESP	1825323	n/a	LTP271	ltpFR	4	3	0	CAT	257	1	n/a	0	n/a	n/a	n/a	n/a	n/a
3651.58	n/a	RECOG_CONF	1825790	n/a	LTP271	ltpFR	4	3	0	CAT	257	n/a	4	0	n/a	n/a	n/a	n/a	n/a
3653.47	n/a	RECOG_TARGET	1826735	n/a	LTP271	ltpFR	4	3	1	THORN	1459	1	2	0	n/a	n/a	n/a	n/a	n/a
3654.546	n/a	RECOG_RESP	1827273	n/a	LTP271	ltpFR	4	3	1	THORN	1459	1	n/a	0	n/a	n/a	n/a	n/a	n/a
3655.48	n/a	RECOG_CONF	1827740	n/a	LTP271	ltpFR	4	3	1	THORN	1459	n/a	2	0	n/a	n/a	n/a	n/a	n/a
3657.386	n/a	RECOG_LURE	1828693	n/a	LTP271	ltpFR	4	3	n/a	RABBIT	1152	0	3	n/a	n/a	n/a	n/a	n/a	n/a
3658.262	n/a	RECOG_RESP	1829131	n/a	LTP271	ltpFR	4	3	n/a	RABBIT	1152	0	n/a	n/a	n/a	n/a	n/a	n/a	n/a
3659.152	n/a	RECOG_CONF	1829576	n/a	LTP271	ltpFR	4	3	n/a	RABBIT	1152	n/a	3	n/a	n/a	n/a	n/a	n/a	n/a
3661.044	n/a	RECOG_TARGET	1830522	n/a	LTP271	ltpFR	4	3	-1	BRIDGE	174	1	4	-1	n/a	n/a	n/a	n/a	n/a
3662.072	n/a	RECOG_RESP	1831036	n/a	LTP271	ltpFR	4	3	-1	BRIDGE	174	1	n/a	-1	n/a	n/a	n/a	n/a	n/a
3662.972	n/a	RECOG_CONF	1831486	n/a	LTP271	ltpFR	4	3	-1	BRIDGE	174	n/a	4	-1	n/a	n/a	n/a	n/a	n/a
3664.914	n/a	RECOG_LURE	1832457	n/a	LTP271	ltpFR	4	3	n/a	ABDOMEN	1	0	5	n/a	n/a	n/a	n/a	n/a	n/a
3665.776	n/a	RECOG_RESP	1832888	n/a	LTP271	ltpFR	4	3	n/a	ABDOMEN	1	0	n/a	n/a	n/a	n/a	n/a	n/a	n/a
3666.602	n/a	RECOG_CONF	1833301	n/a	LTP271	ltpFR	4	3	n/a	ABDOMEN	1	n/a	5	n/a	n/a	n/a	n/a	n/a	n/a
3668.694	n/a	RECOG_LURE	1834347	n/a	LTP271	ltpFR	4	3	n/a	PUPPY	1144	0	4	n/a	n/a	n/a	n/a	n/a	n/a
3669.612	n/a	RECOG_RESP	1834806	n/a	LTP271	ltpFR	4	3	n/a	PUPPY	1144	0	n/a	n/a	n/a	n/a	n/a	n/a	n/a
3670.422	n/a	RECOG_CONF	1835211	n/a	LTP271	ltpFR	4	3	n/a	PUPPY	1144	n/a	4	n/a	n/a	n/a	n/a	n/a	n/a
3672.554	n/a	RECOG_LURE	1836277	n/a	LTP271	ltpFR	4	3	n/a	CATCHER	258	0	2	n/a	n/a	n/a	n/a	n/a	n/a
3673.686	n/a	RECOG_RESP	1836843	n/a	LTP271	ltpFR	4	3	n/a	CATCHER	258	0	n/a	n/a	n/a	n/a	n/a	n/a	n/a
3674.632	n/a	RECOG_CONF	1837316	n/a	LTP271	ltpFR	4	3	n/a	CATCHER	258	n/a	2	n/a	n/a	n/a	n/a	n/a	n/a
3676.57	n/a	RECOG_LURE	1838285	n/a	LTP271	ltpFR	4	3	n/a	TOASTER	1472	0	1	n/a	n/a	n/a	n/a	n/a	n/a
3677.568	n/a	RECOG_RESP	1838784	n/a	LTP271	ltpFR	4	3	n/a	TOASTER	1472	0	n/a	n/a	n/a	n/a	n/a	n/a	n/a
3678.528	n/a	RECOG_CONF	1839264	n/a	LTP271	ltpFR	4	3	n/a	TOASTER	1472	n/a	1	n/a	n/a	n/a	n/a	n/a	n/a
3680.402	n/a	RECOG_TARGET	1840201	n/a	LTP271	ltpFR	4	3	0	PROTRACTOR	1133	1	5	0	n/a	n/a	n/a	n/a	n/a
3681.298	n/a	RECOG_RESP	1840649	n/a	LTP271	ltpFR	4	3	0	PROTRACTOR	1133	1	n/a	0	n/a	n/a	n/a	n/a	n/a
3682.312	n/a	RECOG_CONF	1841156	n/a	LTP271	ltpFR	4	3	0	PROTRACTOR	1133	n/a	5	0	n/a	n/a	n/a	n/a	n/a
3684.272	n/a	RECOG_LURE	1842136	n/a	LTP271	ltpFR	4	3	n/a	BOULEVARD	156	0	4	n/a	n/a	n/a	n/a	n/a	n/a
3685.182	n/a	RECOG_RESP	1842591	n/a	LTP271	ltpFR	4	3	n/a	BOULEVARD	156	0	n/a	n/a	n/a	n/a	n/a	n/a	n/a
3686.122	n/a	RECOG_CONF	1843061	n/a	LTP271	ltpFR	4	3	n/a	BOULEVARD	156	n/a	4	n/a	n/a	n/a	n/a	n/a	n/a
3688.186	n/a	RECOG_LURE	1844093	n/a	LTP271	ltpFR	4	3	n/a	PONY	1102	0	3	n/a	n/a	n/a	n/a	n/a	n/a
3689.178	n/a	RECOG_RESP	1844589	n/a	LTP271	ltpFR	4	3	n/a	PONY	1102	0	n/a	n/a	n/a	n/a	n/a	n/a	n/a
3690.042	n/a	RECOG_CONF	1845021	n/a	LTP271	ltpFR	4	3	n/a	PONY	1102	n/a	3	n/a	n/a	n/a	n/a	n/a	n/a
3691.984	n/a	RECOG_TARGET	1845992	n/a	LTP271	ltpFR	4	3	-1	DOOR	486	1	4	-1	n/a	n/a	n/a	n/a	n/a
3692.888	n/a	RECOG_RESP	1846444	n/a	LTP271	ltpFR	4	3	-1	DOOR	486	1	n/a	-1	n/a	n/a	n/a	n/a	n/a
3693.782	n/a	RECOG_CONF	1846891	n/a	LTP271	ltpFR	4	3	-1	DOOR	486	n/a	4	-1	n/a	n/a	n/a	n/a	n/a
3695.76	n/a	RECOG_LURE	1847880	n/a	LTP271	ltpFR	4	3	n/a	SNOB	1335	0	4	n/a	n/a	n/a	n/a	n/a	n/a
3696.634	n/a	RECOG_RESP	1848317	n/a	LTP271	ltpFR	4	3	n/a	SNOB	1335	0	n/a	n/a	n/a	n/a	n/a	n/a	n/a
3697.504	n/a	RECOG_CONF	1848752	n/a	LTP271	ltpFR	4	3	n/a	SNOB	1335	n/a	4	n/a	n/a	n/a	n/a	n/a	n/a
3699.724	n/a	RECOG_LURE	1849862	n/a	LTP271	ltpFR	4	3	n/a	SEASHORE	1263	0	4	n/a	n/a	n/a	n/a	n/a	n/a
3700.664	n/a	RECOG_RESP	1850332	n/a	LTP271	ltpFR	4	3	n/a	SEASHORE	1263	0	n/a	n/a	n/a	n/a	n/a	n/a	n/a
3701.614	n/a	RECOG_CONF	1850807	n/a	LTP271	ltpFR	4	3	n/a	SEASHORE	1263	n/a	4	n/a	n/a	n/a	n/a	n/a	n/a
3703.628	n/a	RECOG_LURE	1851814	n/a	LTP271	ltpFR	4	3	n/a	SURGEON	1413	0	5	n/a	n/a	n/a	n/a	n/a	n/a
3704.534	n/a	RECOG_RESP	1852267	n/a	LTP271	ltpFR	4	3	n/a	SURGEON	1413	0	n/a	n/a	n/a	n/a	n/a	n/a	n/a
3705.394	n/a	RECOG_CONF	1852697	n/a	LTP271	ltpFR	4	3	n/a	SURGEON	1413	n/a	5	n/a	n/a	n/a	n/a	n/a	n/a
3707.358	n/a	RECOG_LURE	1853679	n/a	LTP271	ltpFR	4	3	n/a	WORLD	1622	0	3	n/a	n/a	n/a	n/a	n/a	n/a
3708.278	n/a	RECOG_RESP	1854139	n/a	LTP271	ltpFR	4	3	n/a	WORLD	1622	0	n/a	n/a	n/a	n/a	n/a	n/a	n/a
3709.184	n/a	RECOG_CONF	1854592	n/a	LTP271	ltpFR	4	3	n/a	WORLD	1622	n/a	3	n/a	n/a	n/a	n/a	n/a	n/a
3711.184	n/a	RECOG_LURE	1855592	n/a	LTP271	ltpFR	4	3	n/a	COIN	343	0	4	n/a	n/a	n/a	n/a	n/a	n/a
3712.178	n/a	RECOG_RESP	1856089	n/a	LTP271	ltpFR	4	3	n/a	COIN	343	0	n/a	n/a	n/a	n/a	n/a	n/a	n/a
3713.134	n/a	RECOG_CONF	1856567	n/a	LTP271	ltpFR	4	3	n/a	COIN	343	n/a	4	n/a	n/a	n/a	n/a	n/a	n/a
3715.118	n/a	RECOG_TARGET	1857559	n/a	LTP271	ltpFR	4	3	-1	COLESLAW	344	1	5	-1	n/a	n/a	n/a	n/a	n/a
3716.03	n/a	RECOG_RESP	1858015	n/a	LTP271	ltpFR	4	3	-1	COLESLAW	344	1	n/a	-1	n/a	n/a	n/a	n/a	n/a
3717.014	n/a	RECOG_CONF	1858507	n/a	LTP271	ltpFR	4	3	-1	COLESLAW	344	n/a	5	-1	n/a	n/a	n/a	n/a	n/a
3718.982	n/a	RECOG_TARGET	1859491	n/a	LTP271	ltpFR	4	3	-1	CYLINDER	432	1	4	-1	n/a	n/a	n/a	n/a	n/a
3719.854	n/a	RECOG_RESP	1859927	n/a	LTP271	ltpFR	4	3	-1	CYLINDER	432	1	n/a	-1	n/a	n/a	n/a	n/a	n/a
3720.774	n/a	RECOG_CONF	1860387	n/a	LTP271	ltpFR	4	3	-1	CYLINDER	432	n/a	4	-1	n/a	n/a	n/a	n/a	n/a
3725.742	n/a	REC_START	1862871	n/a	LTP271	ltpFR	4	4	n/a	n/a	n/a	n/a	n/a	n/a	n/a	n/a	n/a	n/a	n/a
3725.796	n/a	RECOG_TARGET	1862898	n/a	LTP271	ltpFR	4	4	1	CLOTHES	327	0	1	0	n/a	n/a	n/a	n/a	n/a
3726.706	n/a	RECOG_RESP	1863353	n/a	LTP271	ltpFR	4	4	1	CLOTHES	327	0	n/a	0	n/a	n/a	n/a	n/a	n/a
3727.65	n/a	RECOG_CONF	1863825	n/a	LTP271	ltpFR	4	4	1	CLOTHES	327	n/a	1	0	n/a	n/a	n/a	n/a	n/a
3729.504	n/a	RECOG_TARGET	1864752	n/a	LTP271	ltpFR	4	4	1	BISON	131	0	3	1	n/a	n/a	n/a	n/a	n/a
3730.406	n/a	RECOG_RESP	1865203	n/a	LTP271	ltpFR	4	4	1	BISON	131	0	n/a	1	n/a	n/a	n/a	n/a	n/a
3731.242	n/a	RECOG_CONF	1865621	n/a	LTP271	ltpFR	4	4	1	BISON	131	n/a	3	1	n/a	n/a	n/a	n/a	n/a
3733.142	n/a	RECOG_TARGET	1866571	n/a	LTP271	ltpFR	4	4	1	HOUSE	725	0	2	0	n/a	n/a	n/a	n/a	n/a
3734.102	n/a	RECOG_RESP	1867051	n/a	LTP271	ltpFR	4	4	1	HOUSE	725	0	n/a	0	n/a	n/a	n/a	n/a	n/a
3735.072	n/a	RECOG_CONF	1867536	n/a	LTP271	ltpFR	4	4	1	HOUSE	725	n/a	2	0	n/a	n/a	n/a	n/a	n/a
3737.124	n/a	RECOG_LURE	1868562	n/a	LTP271	ltpFR	4	4	n/a	KANGAROO	768	0	5	n/a	n/a	n/a	n/a	n/a	n/a
3738.048	n/a	RECOG_RESP	1869024	n/a	LTP271	ltpFR	4	4	n/a	KANGAROO	768	0	n/a	n/a	n/a	n/a	n/a	n/a	n/a
3739.052	n/a	RECOG_CONF	1869526	n/a	LTP271	ltpFR	4	4	n/a	KANGAROO	768	n/a	5	n/a	n/a	n/a	n/a	n/a	n/a
3741.0	n/a	RECOG_LURE	1870500	n/a	LTP271	ltpFR	4	4	n/a	ALMOND	18	0	4	n/a	n/a	n/a	n/a	n/a	n/a
3741.962	n/a	RECOG_RESP	1870981	n/a	LTP271	ltpFR	4	4	n/a	ALMOND	18	0	n/a	n/a	n/a	n/a	n/a	n/a	n/a
3742.842	n/a	RECOG_CONF	1871421	n/a	LTP271	ltpFR	4	4	n/a	ALMOND	18	n/a	4	n/a	n/a	n/a	n/a	n/a	n/a
3744.764	n/a	RECOG_LURE	1872382	n/a	LTP271	ltpFR	4	4	n/a	CANDIDATE	228	0	3	n/a	n/a	n/a	n/a	n/a	n/a
3745.778	n/a	RECOG_RESP	1872889	n/a	LTP271	ltpFR	4	4	n/a	CANDIDATE	228	0	n/a	n/a	n/a	n/a	n/a	n/a	n/a
3746.722	n/a	RECOG_CONF	1873361	n/a	LTP271	ltpFR	4	4	n/a	CANDIDATE	228	n/a	3	n/a	n/a	n/a	n/a	n/a	n/a
3748.784	n/a	RECOG_TARGET	1874392	n/a	LTP271	ltpFR	4	4	-1	JUPITER	765	1	3	-1	n/a	n/a	n/a	n/a	n/a
3749.622	n/a	RECOG_RESP	1874811	n/a	LTP271	ltpFR	4	4	-1	JUPITER	765	1	n/a	-1	n/a	n/a	n/a	n/a	n/a
3750.492	n/a	RECOG_CONF	1875246	n/a	LTP271	ltpFR	4	4	-1	JUPITER	765	n/a	3	-1	n/a	n/a	n/a	n/a	n/a
3752.41	n/a	RECOG_LURE	1876205	n/a	LTP271	ltpFR	4	4	n/a	BLUEJAY	141	0	2	n/a	n/a	n/a	n/a	n/a	n/a
3753.274	n/a	RECOG_RESP	1876637	n/a	LTP271	ltpFR	4	4	n/a	BLUEJAY	141	0	n/a	n/a	n/a	n/a	n/a	n/a	n/a
3754.204	n/a	RECOG_CONF	1877102	n/a	LTP271	ltpFR	4	4	n/a	BLUEJAY	141	n/a	2	n/a	n/a	n/a	n/a	n/a	n/a
3756.224	n/a	RECOG_TARGET	1878112	n/a	LTP271	ltpFR	4	4	0	OWL	992	0	3	1	n/a	n/a	n/a	n/a	n/a
3757.158	n/a	RECOG_RESP	1878579	n/a	LTP271	ltpFR	4	4	0	OWL	992	0	n/a	1	n/a	n/a	n/a	n/a	n/a
3757.984	n/a	RECOG_CONF	1878992	n/a	LTP271	ltpFR	4	4	0	OWL	992	n/a	3	1	n/a	n/a	n/a	n/a	n/a
3759.988	n/a	RECOG_LURE	1879994	n/a	LTP271	ltpFR	4	4	n/a	GOO	648	0	4	n/a	n/a	n/a	n/a	n/a	n/a
3760.914	n/a	RECOG_RESP	1880457	n/a	LTP271	ltpFR	4	4	n/a	GOO	648	0	n/a	n/a	n/a	n/a	n/a	n/a	n/a
3761.794	n/a	RECOG_CONF	1880897	n/a	LTP271	ltpFR	4	4	n/a	GOO	648	n/a	4	n/a	n/a	n/a	n/a	n/a	n/a
3763.886	n/a	RECOG_TARGET	1881943	n/a	LTP271	ltpFR	4	4	1	SHOVEL	1295	1	2	0	n/a	n/a	n/a	n/a	n/a
3764.824	n/a	RECOG_RESP	1882412	n/a	LTP271	ltpFR	4	4	1	SHOVEL	1295	1	n/a	0	n/a	n/a	n/a	n/a	n/a
3765.794	n/a	RECOG_CONF	1882897	n/a	LTP271	ltpFR	4	4	1	SHOVEL	1295	n/a	2	0	n/a	n/a	n/a	n/a	n/a
3767.806	n/a	RECOG_LURE	1883903	n/a	LTP271	ltpFR	4	4	n/a	FOSSIL	596	0	2	n/a	n/a	n/a	n/a	n/a	n/a
3768.764	n/a	RECOG_RESP	1884382	n/a	LTP271	ltpFR	4	4	n/a	FOSSIL	596	0	n/a	n/a	n/a	n/a	n/a	n/a	n/a
3769.754	n/a	RECOG_CONF	1884877	n/a	LTP271	ltpFR	4	4	n/a	FOSSIL	596	n/a	2	n/a	n/a	n/a	n/a	n/a	n/a
3771.684	n/a	RECOG_LURE	1885842	n/a	LTP271	ltpFR	4	4	n/a	DANCER	437	0	3	n/a	n/a	n/a	n/a	n/a	n/a
3772.94	n/a	RECOG_RESP	1886470	n/a	LTP271	ltpFR	4	4	n/a	DANCER	437	0	n/a	n/a	n/a	n/a	n/a	n/a	n/a
3773.864	n/a	RECOG_CONF	1886932	n/a	LTP271	ltpFR	4	4	n/a	DANCER	437	n/a	3	n/a	n/a	n/a	n/a	n/a	n/a
3775.872	n/a	RECOG_TARGET	1887936	n/a	LTP271	ltpFR	4	4	0	CLOUD	328	1	4	1	n/a	n/a	n/a	n/a	n/a
3776.734	n/a	RECOG_RESP	1888367	n/a	LTP271	ltpFR	4	4	0	CLOUD	328	1	n/a	1	n/a	n/a	n/a	n/a	n/a
3777.614	n/a	RECOG_CONF	1888807	n/a	LTP271	ltpFR	4	4	0	CLOUD	328	n/a	4	1	n/a	n/a	n/a	n/a	n/a
3779.496	n/a	RECOG_LURE	1889748	n/a	LTP271	ltpFR	4	4	n/a	PRODUCER	1129	0	3	n/a	n/a	n/a	n/a	n/a	n/a
3780.614	n/a	RECOG_RESP	1890307	n/a	LTP271	ltpFR	4	4	n/a	PRODUCER	1129	0	n/a	n/a	n/a	n/a	n/a	n/a	n/a
3781.724	n/a	RECOG_CONF	1890862	n/a	LTP271	ltpFR	4	4	n/a	PRODUCER	1129	n/a	3	n/a	n/a	n/a	n/a	n/a	n/a
3783.668	n/a	RECOG_LURE	1891834	n/a	LTP271	ltpFR	4	4	n/a	HANDBAG	684	0	1	n/a	n/a	n/a	n/a	n/a	n/a
3784.934	n/a	RECOG_RESP	1892467	n/a	LTP271	ltpFR	4	4	n/a	HANDBAG	684	0	n/a	n/a	n/a	n/a	n/a	n/a	n/a
3785.886	n/a	RECOG_CONF	1892943	n/a	LTP271	ltpFR	4	4	n/a	HANDBAG	684	n/a	1	n/a	n/a	n/a	n/a	n/a	n/a
3787.732	n/a	RECOG_LURE	1893866	n/a	LTP271	ltpFR	4	4	n/a	HERO	706	0	2	n/a	n/a	n/a	n/a	n/a	n/a
3788.734	n/a	RECOG_RESP	1894367	n/a	LTP271	ltpFR	4	4	n/a	HERO	706	0	n/a	n/a	n/a	n/a	n/a	n/a	n/a
3789.694	n/a	RECOG_CONF	1894847	n/a	LTP271	ltpFR	4	4	n/a	HERO	706	n/a	2	n/a	n/a	n/a	n/a	n/a	n/a
3791.732	n/a	RECOG_TARGET	1895866	n/a	LTP271	ltpFR	4	4	1	TOURIST	1488	1	1	1	n/a	n/a	n/a	n/a	n/a
3792.56	n/a	RECOG_RESP	1896280	n/a	LTP271	ltpFR	4	4	1	TOURIST	1488	1	n/a	1	n/a	n/a	n/a	n/a	n/a
3793.496	n/a	RECOG_CONF	1896748	n/a	LTP271	ltpFR	4	4	1	TOURIST	1488	n/a	1	1	n/a	n/a	n/a	n/a	n/a
3795.424	n/a	RECOG_LURE	1897712	n/a	LTP271	ltpFR	4	4	n/a	CLOCK	325	1	2	n/a	n/a	n/a	n/a	n/a	n/a
3796.326	n/a	RECOG_RESP	1898163	n/a	LTP271	ltpFR	4	4	n/a	CLOCK	325	1	n/a	n/a	n/a	n/a	n/a	n/a	n/a
3797.226	n/a	RECOG_CONF	1898613	n/a	LTP271	ltpFR	4	4	n/a	CLOCK	325	n/a	2	n/a	n/a	n/a	n/a	n/a	n/a
3799.11	n/a	RECOG_LURE	1899555	n/a	LTP271	ltpFR	4	4	n/a	NIECE	952	0	3	n/a	n/a	n/a	n/a	n/a	n/a
3800.056	n/a	RECOG_RESP	1900028	n/a	LTP271	ltpFR	4	4	n/a	NIECE	952	0	n/a	n/a	n/a	n/a	n/a	n/a	n/a
3800.862	n/a	RECOG_CONF	1900431	n/a	LTP271	ltpFR	4	4	n/a	NIECE	952	n/a	3	n/a	n/a	n/a	n/a	n/a	n/a
3805.326	n/a	REC_START	1902663	n/a	LTP271	ltpFR	4	5	n/a	n/a	n/a	n/a	n/a	n/a	n/a	n/a	n/a	n/a	n/a
3805.384	n/a	RECOG_LURE	1902692	n/a	LTP271	ltpFR	4	5	n/a	LUNG	850	0	4	n/a	n/a	n/a	n/a	n/a	n/a
3806.336	n/a	RECOG_RESP	1903168	n/a	LTP271	ltpFR	4	5	n/a	LUNG	850	0	n/a	n/a	n/a	n/a	n/a	n/a	n/a
3807.206	n/a	RECOG_CONF	1903603	n/a	LTP271	ltpFR	4	5	n/a	LUNG	850	n/a	4	n/a	n/a	n/a	n/a	n/a	n/a
3809.366	n/a	RECOG_LURE	1904683	n/a	LTP271	ltpFR	4	5	n/a	STRING	1394	1	1	n/a	n/a	n/a	n/a	n/a	n/a
3810.272	n/a	RECOG_RESP	1905136	n/a	LTP271	ltpFR	4	5	n/a	STRING	1394	1	n/a	n/a	n/a	n/a	n/a	n/a	n/a
3811.218	n/a	RECOG_CONF	1905609	n/a	LTP271	ltpFR	4	5	n/a	STRING	1394	n/a	1	n/a	n/a	n/a	n/a	n/a	n/a
3813.114	n/a	RECOG_LURE	1906557	n/a	LTP271	ltpFR	4	5	n/a	MARKER	870	0	2	n/a	n/a	n/a	n/a	n/a	n/a
3814.078	n/a	RECOG_RESP	1907039	n/a	LTP271	ltpFR	4	5	n/a	MARKER	870	0	n/a	n/a	n/a	n/a	n/a	n/a	n/a
3815.168	n/a	RECOG_CONF	1907584	n/a	LTP271	ltpFR	4	5	n/a	MARKER	870	n/a	2	n/a	n/a	n/a	n/a	n/a	n/a
3817.178	n/a	RECOG_LURE	1908589	n/a	LTP271	ltpFR	4	5	n/a	UNCLE	1536	0	4	n/a	n/a	n/a	n/a	n/a	n/a
3818.088	n/a	RECOG_RESP	1909044	n/a	LTP271	ltpFR	4	5	n/a	UNCLE	1536	0	n/a	n/a	n/a	n/a	n/a	n/a	n/a
3819.108	n/a	RECOG_CONF	1909554	n/a	LTP271	ltpFR	4	5	n/a	UNCLE	1536	n/a	4	n/a	n/a	n/a	n/a	n/a	n/a
3820.96	n/a	RECOG_LURE	1910480	n/a	LTP271	ltpFR	4	5	n/a	PICKLE	1059	0	1	n/a	n/a	n/a	n/a	n/a	n/a
3822.148	n/a	RECOG_RESP	1911074	n/a	LTP271	ltpFR	4	5	n/a	PICKLE	1059	0	n/a	n/a	n/a	n/a	n/a	n/a	n/a
3823.068	n/a	RECOG_CONF	1911534	n/a	LTP271	ltpFR	4	5	n/a	PICKLE	1059	n/a	1	n/a	n/a	n/a	n/a	n/a	n/a
3825.008	n/a	RECOG_TARGET	1912504	n/a	LTP271	ltpFR	4	5	1	LETTER	813	1	4	0	n/a	n/a	n/a	n/a	n/a
3826.118	n/a	RECOG_RESP	1913059	n/a	LTP271	ltpFR	4	5	1	LETTER	813	1	n/a	0	n/a	n/a	n/a	n/a	n/a
3827.038	n/a	RECOG_CONF	1913519	n/a	LTP271	ltpFR	4	5	1	LETTER	813	n/a	4	0	n/a	n/a	n/a	n/a	n/a
3828.908	n/a	RECOG_LURE	1914454	n/a	LTP271	ltpFR	4	5	n/a	CIGARETTE	309	0	3	n/a	n/a	n/a	n/a	n/a	n/a
3829.874	n/a	RECOG_RESP	1914937	n/a	LTP271	ltpFR	4	5	n/a	CIGARETTE	309	0	n/a	n/a	n/a	n/a	n/a	n/a	n/a
3830.688	n/a	RECOG_CONF	1915344	n/a	LTP271	ltpFR	4	5	n/a	CIGARETTE	309	n/a	3	n/a	n/a	n/a	n/a	n/a	n/a
3832.738	n/a	RECOG_TARGET	1916369	n/a	LTP271	ltpFR	4	5	-1	ROSE	1212	0	1	-1	n/a	n/a	n/a	n/a	n/a
3833.784	n/a	RECOG_RESP	1916892	n/a	LTP271	ltpFR	4	5	-1	ROSE	1212	0	n/a	-1	n/a	n/a	n/a	n/a	n/a
3834.738	n/a	RECOG_CONF	1917369	n/a	LTP271	ltpFR	4	5	-1	ROSE	1212	n/a	1	-1	n/a	n/a	n/a	n/a	n/a
3836.654	n/a	RECOG_TARGET	1918327	n/a	LTP271	ltpFR	4	5	1	GEM	629	1	5	0	n/a	n/a	n/a	n/a	n/a
3837.438	n/a	RECOG_RESP	1918719	n/a	LTP271	ltpFR	4	5	1	GEM	629	1	n/a	0	n/a	n/a	n/a	n/a	n/a
3838.308	n/a	RECOG_CONF	1919154	n/a	LTP271	ltpFR	4	5	1	GEM	629	n/a	5	0	n/a	n/a	n/a	n/a	n/a
3840.184	n/a	RECOG_TARGET	1920092	n/a	LTP271	ltpFR	4	5	1	PUBLICATION	1136	1	5	0	n/a	n/a	n/a	n/a	n/a
3841.064	n/a	RECOG_RESP	1920532	n/a	LTP271	ltpFR	4	5	1	PUBLICATION	1136	1	n/a	0	n/a	n/a	n/a	n/a	n/a
3841.838	n/a	RECOG_CONF	1920919	n/a	LTP271	ltpFR	4	5	1	PUBLICATION	1136	n/a	5	0	n/a	n/a	n/a	n/a	n/a
3844.082	n/a	RECOG_LURE	1922041	n/a	LTP271	ltpFR	4	5	n/a	CORPORATION	382	0	4	n/a	n/a	n/a	n/a	n/a	n/a
3844.964	n/a	RECOG_RESP	1922482	n/a	LTP271	ltpFR	4	5	n/a	CORPORATION	382	0	n/a	n/a	n/a	n/a	n/a	n/a	n/a
3845.758	n/a	RECOG_CONF	1922879	n/a	LTP271	ltpFR	4	5	n/a	CORPORATION	382	n/a	4	n/a	n/a	n/a	n/a	n/a	n/a
3847.842	n/a	RECOG_LURE	1923921	n/a	LTP271	ltpFR	4	5	n/a	CHARCOAL	281	0	2	n/a	n/a	n/a	n/a	n/a	n/a
3848.714	n/a	RECOG_RESP	1924357	n/a	LTP271	ltpFR	4	5	n/a	CHARCOAL	281	0	n/a	n/a	n/a	n/a	n/a	n/a	n/a
3849.65	n/a	RECOG_CONF	1924825	n/a	LTP271	ltpFR	4	5	n/a	CHARCOAL	281	n/a	2	n/a	n/a	n/a	n/a	n/a	n/a
3851.556	n/a	RECOG_LURE	1925778	n/a	LTP271	ltpFR	4	5	n/a	SQUIRREL	1362	0	1	n/a	n/a	n/a	n/a	n/a	n/a
3852.55	n/a	RECOG_RESP	1926275	n/a	LTP271	ltpFR	4	5	n/a	SQUIRREL	1362	0	n/a	n/a	n/a	n/a	n/a	n/a	n/a
3853.518	n/a	RECOG_CONF	1926759	n/a	LTP271	ltpFR	4	5	n/a	SQUIRREL	1362	n/a	1	n/a	n/a	n/a	n/a	n/a	n/a
3855.486	n/a	RECOG_TARGET	1927743	n/a	LTP271	ltpFR	4	5	0	REPORT	1184	1	1	0	n/a	n/a	n/a	n/a	n/a
3856.37	n/a	RECOG_RESP	1928185	n/a	LTP271	ltpFR	4	5	0	REPORT	1184	1	n/a	0	n/a	n/a	n/a	n/a	n/a
3857.31	n/a	RECOG_CONF	1928655	n/a	LTP271	ltpFR	4	5	0	REPORT	1184	n/a	1	0	n/a	n/a	n/a	n/a	n/a
3859.324	n/a	RECOG_LURE	1929662	n/a	LTP271	ltpFR	4	5	n/a	TWINE	1529	0	3	n/a	n/a	n/a	n/a	n/a	n/a
3860.33	n/a	RECOG_RESP	1930165	n/a	LTP271	ltpFR	4	5	n/a	TWINE	1529	0	n/a	n/a	n/a	n/a	n/a	n/a	n/a
3861.3	n/a	RECOG_CONF	1930650	n/a	LTP271	ltpFR	4	5	n/a	TWINE	1529	n/a	3	n/a	n/a	n/a	n/a	n/a	n/a
3863.12	n/a	RECOG_LURE	1931560	n/a	LTP271	ltpFR	4	5	n/a	RAFT	1159	0	4	n/a	n/a	n/a	n/a	n/a	n/a
3864.15	n/a	RECOG_RESP	1932075	n/a	LTP271	ltpFR	4	5	n/a	RAFT	1159	0	n/a	n/a	n/a	n/a	n/a	n/a	n/a
3865.11	n/a	RECOG_CONF	1932555	n/a	LTP271	ltpFR	4	5	n/a	RAFT	1159	n/a	4	n/a	n/a	n/a	n/a	n/a	n/a
3867.104	n/a	RECOG_LURE	1933552	n/a	LTP271	ltpFR	4	5	n/a	PHYSICIAN	1056	0	5	n/a	n/a	n/a	n/a	n/a	n/a
3868.056	n/a	RECOG_RESP	1934028	n/a	LTP271	ltpFR	4	5	n/a	PHYSICIAN	1056	0	n/a	n/a	n/a	n/a	n/a	n/a	n/a
3868.94	n/a	RECOG_CONF	1934470	n/a	LTP271	ltpFR	4	5	n/a	PHYSICIAN	1056	n/a	5	n/a	n/a	n/a	n/a	n/a	n/a
3870.946	n/a	RECOG_TARGET	1935473	n/a	LTP271	ltpFR	4	5	-1	SOFA	1342	1	4	-1	n/a	n/a	n/a	n/a	n/a
3871.78	n/a	RECOG_RESP	1935890	n/a	LTP271	ltpFR	4	5	-1	SOFA	1342	1	n/a	-1	n/a	n/a	n/a	n/a	n/a
3872.74	n/a	RECOG_CONF	1936370	n/a	LTP271	ltpFR	4	5	-1	SOFA	1342	n/a	4	-1	n/a	n/a	n/a	n/a	n/a
3874.648	n/a	RECOG_TARGET	1937324	n/a	LTP271	ltpFR	4	5	0	LAKE	796	1	3	1	n/a	n/a	n/a	n/a	n/a
3875.626	n/a	RECOG_RESP	1937813	n/a	LTP271	ltpFR	4	5	0	LAKE	796	1	n/a	1	n/a	n/a	n/a	n/a	n/a
3876.63	n/a	RECOG_CONF	1938315	n/a	LTP271	ltpFR	4	5	0	LAKE	796	n/a	3	1	n/a	n/a	n/a	n/a	n/a
3878.48	n/a	RECOG_TARGET	1939240	n/a	LTP271	ltpFR	4	5	0	TIDE	1465	1	3	0	n/a	n/a	n/a	n/a	n/a
3879.36	n/a	RECOG_RESP	1939680	n/a	LTP271	ltpFR	4	5	0	TIDE	1465	1	n/a	0	n/a	n/a	n/a	n/a	n/a
3880.24	n/a	RECOG_CONF	1940120	n/a	LTP271	ltpFR	4	5	0	TIDE	1465	n/a	3	0	n/a	n/a	n/a	n/a	n/a
3885.832	n/a	REC_START	1942916	n/a	LTP271	ltpFR	4	6	n/a	n/a	n/a	n/a	n/a	n/a	n/a	n/a	n/a	n/a	n/a
3885.892	n/a	RECOG_LURE	1942946	n/a	LTP271	ltpFR	4	6	n/a	ROOM	1206	1	4	n/a	n/a	n/a	n/a	n/a	n/a
3886.662	n/a	RECOG_RESP	1943331	n/a	LTP271	ltpFR	4	6	n/a	ROOM	1206	1	n/a	n/a	n/a	n/a	n/a	n/a	n/a
3887.472	n/a	RECOG_CONF	1943736	n/a	LTP271	ltpFR	4	6	n/a	ROOM	1206	n/a	4	n/a	n/a	n/a	n/a	n/a	n/a
3889.304	n/a	RECOG_LURE	1944652	n/a	LTP271	ltpFR	4	6	n/a	LID	817	1	2	n/a	n/a	n/a	n/a	n/a	n/a
3890.238	n/a	RECOG_RESP	1945119	n/a	LTP271	ltpFR	4	6	n/a	LID	817	1	n/a	n/a	n/a	n/a	n/a	n/a	n/a
3891.162	n/a	RECOG_CONF	1945581	n/a	LTP271	ltpFR	4	6	n/a	LID	817	n/a	2	n/a	n/a	n/a	n/a	n/a	n/a
3893.12	n/a	RECOG_LURE	1946560	n/a	LTP271	ltpFR	4	6	n/a	MAP	865	0	3	n/a	n/a	n/a	n/a	n/a	n/a
3894.022	n/a	RECOG_RESP	1947011	n/a	LTP271	ltpFR	4	6	n/a	MAP	865	0	n/a	n/a	n/a	n/a	n/a	n/a	n/a
3894.892	n/a	RECOG_CONF	1947446	n/a	LTP271	ltpFR	4	6	n/a	MAP	865	n/a	3	n/a	n/a	n/a	n/a	n/a	n/a
3896.834	n/a	RECOG_TARGET	1948417	n/a	LTP271	ltpFR	4	6	-1	SEAL	1262	1	3	-1	n/a	n/a	n/a	n/a	n/a
3897.662	n/a	RECOG_RESP	1948831	n/a	LTP271	ltpFR	4	6	-1	SEAL	1262	1	n/a	-1	n/a	n/a	n/a	n/a	n/a
3898.592	n/a	RECOG_CONF	1949296	n/a	LTP271	ltpFR	4	6	-1	SEAL	1262	n/a	3	-1	n/a	n/a	n/a	n/a	n/a
3900.564	n/a	RECOG_TARGET	1950282	n/a	LTP271	ltpFR	4	6	0	CATERPILLAR	259	0	1	0	n/a	n/a	n/a	n/a	n/a
3901.452	n/a	RECOG_RESP	1950726	n/a	LTP271	ltpFR	4	6	0	CATERPILLAR	259	0	n/a	0	n/a	n/a	n/a	n/a	n/a
3902.412	n/a	RECOG_CONF	1951206	n/a	LTP271	ltpFR	4	6	0	CATERPILLAR	259	n/a	1	0	n/a	n/a	n/a	n/a	n/a
3904.412	n/a	RECOG_TARGET	1952206	n/a	LTP271	ltpFR	4	6	0	ROOST	1208	0	2	1	n/a	n/a	n/a	n/a	n/a
3905.458	n/a	RECOG_RESP	1952729	n/a	LTP271	ltpFR	4	6	0	ROOST	1208	0	n/a	1	n/a	n/a	n/a	n/a	n/a
3906.444	n/a	RECOG_CONF	1953222	n/a	LTP271	ltpFR	4	6	0	ROOST	1208	n/a	2	1	n/a	n/a	n/a	n/a	n/a
3908.49	n/a	RECOG_TARGET	1954245	n/a	LTP271	ltpFR	4	6	1	CORK	380	0	1	0	n/a	n/a	n/a	n/a	n/a
3909.478	n/a	RECOG_RESP	1954739	n/a	LTP271	ltpFR	4	6	1	CORK	380	0	n/a	0	n/a	n/a	n/a	n/a	n/a
3910.53	n/a	RECOG_CONF	1955265	n/a	LTP271	ltpFR	4	6	1	CORK	380	n/a	1	0	n/a	n/a	n/a	n/a	n/a
3912.404	n/a	RECOG_LURE	1956202	n/a	LTP271	ltpFR	4	6	n/a	POLYESTER	1100	0	4	n/a	n/a	n/a	n/a	n/a	n/a
3913.448	n/a	RECOG_RESP	1956724	n/a	LTP271	ltpFR	4	6	n/a	POLYESTER	1100	0	n/a	n/a	n/a	n/a	n/a	n/a	n/a
3914.344	n/a	RECOG_CONF	1957172	n/a	LTP271	ltpFR	4	6	n/a	POLYESTER	1100	n/a	4	n/a	n/a	n/a	n/a	n/a	n/a
3916.374	n/a	RECOG_LURE	1958187	n/a	LTP271	ltpFR	4	6	n/a	COMMANDER	354	1	1	n/a	n/a	n/a	n/a	n/a	n/a
3917.474	n/a	RECOG_RESP	1958737	n/a	LTP271	ltpFR	4	6	n/a	COMMANDER	354	1	n/a	n/a	n/a	n/a	n/a	n/a	n/a
3918.404	n/a	RECOG_CONF	1959202	n/a	LTP271	ltpFR	4	6	n/a	COMMANDER	354	n/a	1	n/a	n/a	n/a	n/a	n/a	n/a
3920.356	n/a	RECOG_TARGET	1960178	n/a	LTP271	ltpFR	4	6	0	HERB	704	1	2	0	n/a	n/a	n/a	n/a	n/a
3921.264	n/a	RECOG_RESP	1960632	n/a	LTP271	ltpFR	4	6	0	HERB	704	1	n/a	0	n/a	n/a	n/a	n/a	n/a
3922.344	n/a	RECOG_CONF	1961172	n/a	LTP271	ltpFR	4	6	0	HERB	704	n/a	2	0	n/a	n/a	n/a	n/a	n/a
3924.154	n/a	RECOG_LURE	1962077	n/a	LTP271	ltpFR	4	6	n/a	CHECKERS	285	0	3	n/a	n/a	n/a	n/a	n/a	n/a
3925.08	n/a	RECOG_RESP	1962540	n/a	LTP271	ltpFR	4	6	n/a	CHECKERS	285	0	n/a	n/a	n/a	n/a	n/a	n/a	n/a
3925.984	n/a	RECOG_CONF	1962992	n/a	LTP271	ltpFR	4	6	n/a	CHECKERS	285	n/a	3	n/a	n/a	n/a	n/a	n/a	n/a
3928.114	n/a	RECOG_LURE	1964057	n/a	LTP271	ltpFR	4	6	n/a	CUB	419	0	4	n/a	n/a	n/a	n/a	n/a	n/a
3929.05	n/a	RECOG_RESP	1964525	n/a	LTP271	ltpFR	4	6	n/a	CUB	419	0	n/a	n/a	n/a	n/a	n/a	n/a	n/a
3929.934	n/a	RECOG_CONF	1964967	n/a	LTP271	ltpFR	4	6	n/a	CUB	419	n/a	4	n/a	n/a	n/a	n/a	n/a	n/a
3931.984	n/a	RECOG_LURE	1965992	n/a	LTP271	ltpFR	4	6	n/a	STY	1397	0	4	n/a	n/a	n/a	n/a	n/a	n/a
3933.174	n/a	RECOG_RESP	1966587	n/a	LTP271	ltpFR	4	6	n/a	STY	1397	0	n/a	n/a	n/a	n/a	n/a	n/a	n/a
3934.054	n/a	RECOG_CONF	1967027	n/a	LTP271	ltpFR	4	6	n/a	STY	1397	n/a	4	n/a	n/a	n/a	n/a	n/a	n/a
3936.184	n/a	RECOG_LURE	1968092	n/a	LTP271	ltpFR	4	6	n/a	DAISY	435	0	3	n/a	n/a	n/a	n/a	n/a	n/a
3937.084	n/a	RECOG_RESP	1968542	n/a	LTP271	ltpFR	4	6	n/a	DAISY	435	0	n/a	n/a	n/a	n/a	n/a	n/a	n/a
3937.944	n/a	RECOG_CONF	1968972	n/a	LTP271	ltpFR	4	6	n/a	DAISY	435	n/a	3	n/a	n/a	n/a	n/a	n/a	n/a
3939.93	n/a	RECOG_TARGET	1969965	n/a	LTP271	ltpFR	4	6	-1	WASHCLOTH	1591	0	1	-1	n/a	n/a	n/a	n/a	n/a
3940.82	n/a	RECOG_RESP	1970410	n/a	LTP271	ltpFR	4	6	-1	WASHCLOTH	1591	0	n/a	-1	n/a	n/a	n/a	n/a	n/a
3941.902	n/a	RECOG_CONF	1970951	n/a	LTP271	ltpFR	4	6	-1	WASHCLOTH	1591	n/a	1	-1	n/a	n/a	n/a	n/a	n/a
3943.926	n/a	RECOG_TARGET	1971963	n/a	LTP271	ltpFR	4	6	1	LOOP	844	0	2	0	n/a	n/a	n/a	n/a	n/a
3944.92	n/a	RECOG_RESP	1972460	n/a	LTP271	ltpFR	4	6	1	LOOP	844	0	n/a	0	n/a	n/a	n/a	n/a	n/a
3945.926	n/a	RECOG_CONF	1972963	n/a	LTP271	ltpFR	4	6	1	LOOP	844	n/a	2	0	n/a	n/a	n/a	n/a	n/a
3947.84	n/a	RECOG_LURE	1973920	n/a	LTP271	ltpFR	4	6	n/a	DOCUMENT	479	0	3	n/a	n/a	n/a	n/a	n/a	n/a
3948.9	n/a	RECOG_RESP	1974450	n/a	LTP271	ltpFR	4	6	n/a	DOCUMENT	479	0	n/a	n/a	n/a	n/a	n/a	n/a	n/a
3949.82	n/a	RECOG_CONF	1974910	n/a	LTP271	ltpFR	4	6	n/a	DOCUMENT	479	n/a	3	n/a	n/a	n/a	n/a	n/a	n/a
3951.772	n/a	RECOG_LURE	1975886	n/a	LTP271	ltpFR	4	6	n/a	CRUTCH	417	0	3	n/a	n/a	n/a	n/a	n/a	n/a
3952.75	n/a	RECOG_RESP	1976375	n/a	LTP271	ltpFR	4	6	n/a	CRUTCH	417	0	n/a	n/a	n/a	n/a	n/a	n/a	n/a
3953.636	n/a	RECOG_CONF	1976818	n/a	LTP271	ltpFR	4	6	n/a	CRUTCH	417	n/a	3	n/a	n/a	n/a	n/a	n/a	n/a
3955.82	n/a	RECOG_TARGET	1977910	n/a	LTP271	ltpFR	4	6	0	STUMP	1396	1	3	1	n/a	n/a	n/a	n/a	n/a
3956.616	n/a	RECOG_RESP	1978308	n/a	LTP271	ltpFR	4	6	0	STUMP	1396	1	n/a	1	n/a	n/a	n/a	n/a	n/a
3957.606	n/a	RECOG_CONF	1978803	n/a	LTP271	ltpFR	4	6	0	STUMP	1396	n/a	3	1	n/a	n/a	n/a	n/a	n/a
3959.4	n/a	RECOG_TARGET	1979700	n/a	LTP271	ltpFR	4	6	1	DISC	473	0	4	0	n/a	n/a	n/a	n/a	n/a
3960.296	n/a	RECOG_RESP	1980148	n/a	LTP271	ltpFR	4	6	1	DISC	473	0	n/a	0	n/a	n/a	n/a	n/a	n/a
3961.206	n/a	RECOG_CONF	1980603	n/a	LTP271	ltpFR	4	6	1	DISC	473	n/a	4	0	n/a	n/a	n/a	n/a	n/a
3965.558	n/a	REC_START	1982779	n/a	LTP271	ltpFR	4	7	n/a	n/a	n/a	n/a	n/a	n/a	n/a	n/a	n/a	n/a	n/a
3965.614	n/a	RECOG_TARGET	1982807	n/a	LTP271	ltpFR	4	7	0	SLOPE	1328	1	4	1	n/a	n/a	n/a	n/a	n/a
3966.478	n/a	RECOG_RESP	1983239	n/a	LTP271	ltpFR	4	7	0	SLOPE	1328	1	n/a	1	n/a	n/a	n/a	n/a	n/a
3967.358	n/a	RECOG_CONF	1983679	n/a	LTP271	ltpFR	4	7	0	SLOPE	1328	n/a	4	1	n/a	n/a	n/a	n/a	n/a
3969.31	n/a	RECOG_TARGET	1984655	n/a	LTP271	ltpFR	4	7	1	MILITARY	894	1	4	0	n/a	n/a	n/a	n/a	n/a
3970.108	n/a	RECOG_RESP	1985054	n/a	LTP271	ltpFR	4	7	1	MILITARY	894	1	n/a	0	n/a	n/a	n/a	n/a	n/a
3971.018	n/a	RECOG_CONF	1985509	n/a	LTP271	ltpFR	4	7	1	MILITARY	894	n/a	4	0	n/a	n/a	n/a	n/a	n/a
3972.806	n/a	RECOG_LURE	1986403	n/a	LTP271	ltpFR	4	7	n/a	WARRIOR	1589	0	3	n/a	n/a	n/a	n/a	n/a	n/a
3973.612	n/a	RECOG_RESP	1986806	n/a	LTP271	ltpFR	4	7	n/a	WARRIOR	1589	0	n/a	n/a	n/a	n/a	n/a	n/a	n/a
3974.508	n/a	RECOG_CONF	1987254	n/a	LTP271	ltpFR	4	7	n/a	WARRIOR	1589	n/a	3	n/a	n/a	n/a	n/a	n/a	n/a
3976.47	n/a	RECOG_TARGET	1988235	n/a	LTP271	ltpFR	4	7	0	PAIL	1002	0	4	0	n/a	n/a	n/a	n/a	n/a
3977.328	n/a	RECOG_RESP	1988664	n/a	LTP271	ltpFR	4	7	0	PAIL	1002	0	n/a	0	n/a	n/a	n/a	n/a	n/a
3978.248	n/a	RECOG_CONF	1989124	n/a	LTP271	ltpFR	4	7	0	PAIL	1002	n/a	4	0	n/a	n/a	n/a	n/a	n/a
3980.368	n/a	RECOG_TARGET	1990184	n/a	LTP271	ltpFR	4	7	0	JUDGE	761	1	2	1	n/a	n/a	n/a	n/a	n/a
3981.418	n/a	RECOG_RESP	1990709	n/a	LTP271	ltpFR	4	7	0	JUDGE	761	1	n/a	1	n/a	n/a	n/a	n/a	n/a
3982.398	n/a	RECOG_CONF	1991199	n/a	LTP271	ltpFR	4	7	0	JUDGE	761	n/a	2	1	n/a	n/a	n/a	n/a	n/a
3984.162	n/a	RECOG_TARGET	1992081	n/a	LTP271	ltpFR	4	7	-1	VAN	1548	0	2	-1	n/a	n/a	n/a	n/a	n/a
3985.094	n/a	RECOG_RESP	1992547	n/a	LTP271	ltpFR	4	7	-1	VAN	1548	0	n/a	-1	n/a	n/a	n/a	n/a	n/a
3986.118	n/a	RECOG_CONF	1993059	n/a	LTP271	ltpFR	4	7	-1	VAN	1548	n/a	2	-1	n/a	n/a	n/a	n/a	n/a
3987.976	n/a	RECOG_TARGET	1993988	n/a	LTP271	ltpFR	4	7	1	PIANO	1057	1	4	0	n/a	n/a	n/a	n/a	n/a
3988.808	n/a	RECOG_RESP	1994404	n/a	LTP271	ltpFR	4	7	1	PIANO	1057	1	n/a	0	n/a	n/a	n/a	n/a	n/a
3989.818	n/a	RECOG_CONF	1994909	n/a	LTP271	ltpFR	4	7	1	PIANO	1057	n/a	4	0	n/a	n/a	n/a	n/a	n/a
