onset	duration	trial_type	sample	stim_file	subject	experiment	session	trial	item_name	item_num	list	answer	test_x	test_y	test_z
11.156	n/a	SESS_START	5578	n/a	LTP250	ltpFR2	16	n/a	n/a	n/a	n/a	n/a	0	0	0
27.276	n/a	START	13638	n/a	LTP250	ltpFR2	16	n/a	n/a	n/a	-1	n/a	n/a	n/a	n/a
27.302	n/a	PROB	13651	n/a	LTP250	ltpFR2	16	n/a	n/a	n/a	-1	15	6	7	2
30.906	n/a	PROB	15453	n/a	LTP250	ltpFR2	16	n/a	n/a	n/a	-1	18	5	6	7
35.51	n/a	PROB	17755	n/a	LTP250	ltpFR2	16	n/a	n/a	n/a	-1	17	2	7	8
37.544	n/a	PROB	18772	n/a	LTP250	ltpFR2	16	n/a	n/a	n/a	-1	13	8	2	3
38.982	n/a	STOP	19491	n/a	LTP250	ltpFR2	16	n/a	n/a	n/a	-1	n/a	n/a	n/a	n/a
74.028	n/a	DISTRACTOR	37014	n/a	LTP250	ltpFR2	16	1	n/a	n/a	n/a	n/a	0	0	0
74.028	n/a	START	37014	n/a	LTP250	ltpFR2	16	n/a	n/a	n/a	1	n/a	n/a	n/a	n/a
74.042	n/a	PROB	37021	n/a	LTP250	ltpFR2	16	n/a	n/a	n/a	1	20	8	7	5
77.978	n/a	PROB	38989	n/a	LTP250	ltpFR2	16	n/a	n/a	n/a	1	7	5	1	1
80.03	n/a	PROB	40015	n/a	LTP250	ltpFR2	16	n/a	n/a	n/a	1	18	2	8	8
81.548	n/a	PROB	40774	n/a	LTP250	ltpFR2	16	n/a	n/a	n/a	1	17	8	8	1
83.95	n/a	PROB	41975	n/a	LTP250	ltpFR2	16	n/a	n/a	n/a	1	18	7	7	4
85.702	n/a	PROB	42851	n/a	LTP250	ltpFR2	16	n/a	n/a	n/a	1	11	7	2	2
90.972	n/a	PROB	45486	n/a	LTP250	ltpFR2	16	n/a	n/a	n/a	1	12	2	7	4
93.024	n/a	PROB	46512	n/a	LTP250	ltpFR2	16	n/a	n/a	n/a	1	14	1	8	5
96.026	n/a	PROB	48013	n/a	LTP250	ltpFR2	16	n/a	n/a	n/a	1	10	1	8	1
97.462	n/a	STOP	48731	n/a	LTP250	ltpFR2	16	n/a	n/a	n/a	1	n/a	n/a	n/a	n/a
99.096	n/a	WORD	49548	wordpools/wasnorm_wordpool_576.txt	LTP250	ltpFR2	16	1	WRENCH	1625	n/a	n/a	0	0	0
101.748	n/a	WORD	50874	wordpools/wasnorm_wordpool_576.txt	LTP250	ltpFR2	16	1	BOX	159	n/a	n/a	0	0	0
104.366	n/a	WORD	52183	wordpools/wasnorm_wordpool_576.txt	LTP250	ltpFR2	16	1	PLIERS	1089	n/a	n/a	0	0	0
106.804	n/a	WORD	53402	wordpools/wasnorm_wordpool_576.txt	LTP250	ltpFR2	16	1	WOMAN	1620	n/a	n/a	0	0	0
109.556	n/a	WORD	54778	wordpools/wasnorm_wordpool_576.txt	LTP250	ltpFR2	16	1	PERCH	1048	n/a	n/a	0	0	0
112.122	n/a	WORD	56061	wordpools/wasnorm_wordpool_576.txt	LTP250	ltpFR2	16	1	CRAB	397	n/a	n/a	0	0	0
114.592	n/a	WORD	57296	wordpools/wasnorm_wordpool_576.txt	LTP250	ltpFR2	16	1	SEAFOOD	1260	n/a	n/a	0	0	0
117.242	n/a	WORD	58621	wordpools/wasnorm_wordpool_576.txt	LTP250	ltpFR2	16	1	VENUS	1557	n/a	n/a	0	0	0
119.83	n/a	WORD	59915	wordpools/wasnorm_wordpool_576.txt	LTP250	ltpFR2	16	1	IDOL	733	n/a	n/a	0	0	0
122.364	n/a	WORD	61182	wordpools/wasnorm_wordpool_576.txt	LTP250	ltpFR2	16	1	LIZARD	834	n/a	n/a	0	0	0
124.85	n/a	WORD	62425	wordpools/wasnorm_wordpool_576.txt	LTP250	ltpFR2	16	1	SHOULDER	1294	n/a	n/a	0	0	0
127.368	n/a	WORD	63684	wordpools/wasnorm_wordpool_576.txt	LTP250	ltpFR2	16	1	TWISTER	1530	n/a	n/a	0	0	0
129.92	n/a	WORD	64960	wordpools/wasnorm_wordpool_576.txt	LTP250	ltpFR2	16	1	JELLY	755	n/a	n/a	0	0	0
132.656	n/a	WORD	66328	wordpools/wasnorm_wordpool_576.txt	LTP250	ltpFR2	16	1	HUSBAND	728	n/a	n/a	0	0	0
135.208	n/a	WORD	67604	wordpools/wasnorm_wordpool_576.txt	LTP250	ltpFR2	16	1	TABLET	1427	n/a	n/a	0	0	0
137.692	n/a	WORD	68846	wordpools/wasnorm_wordpool_576.txt	LTP250	ltpFR2	16	1	GARBAGE	622	n/a	n/a	0	0	0
140.282	n/a	WORD	70141	wordpools/wasnorm_wordpool_576.txt	LTP250	ltpFR2	16	1	MOTOR	922	n/a	n/a	0	0	0
142.984	n/a	WORD	71492	wordpools/wasnorm_wordpool_576.txt	LTP250	ltpFR2	16	1	BRAKE	166	n/a	n/a	0	0	0
145.448	n/a	WORD	72724	wordpools/wasnorm_wordpool_576.txt	LTP250	ltpFR2	16	1	CYCLONE	431	n/a	n/a	0	0	0
148.084	n/a	WORD	74042	wordpools/wasnorm_wordpool_576.txt	LTP250	ltpFR2	16	1	CROSS	413	n/a	n/a	0	0	0
150.72	n/a	WORD	75360	wordpools/wasnorm_wordpool_576.txt	LTP250	ltpFR2	16	1	GLASS	639	n/a	n/a	0	0	0
153.256	n/a	WORD	76628	wordpools/wasnorm_wordpool_576.txt	LTP250	ltpFR2	16	1	RECORD	1176	n/a	n/a	0	0	0
155.674	n/a	WORD	77837	wordpools/wasnorm_wordpool_576.txt	LTP250	ltpFR2	16	1	BIKE	125	n/a	n/a	0	0	0
158.426	n/a	WORD	79213	wordpools/wasnorm_wordpool_576.txt	LTP250	ltpFR2	16	1	STAR	1373	n/a	n/a	0	0	0
160.034	n/a	START	80017	n/a	LTP250	ltpFR2	16	n/a	n/a	n/a	2	n/a	n/a	n/a	n/a
161.006	n/a	DISTRACTOR	80503	n/a	LTP250	ltpFR2	16	1	n/a	n/a	n/a	n/a	0	0	0
161.012	n/a	PROB	80506	n/a	LTP250	ltpFR2	16	n/a	n/a	n/a	2	14	4	3	7
162.978	n/a	PROB	81489	n/a	LTP250	ltpFR2	16	n/a	n/a	n/a	2	14	7	3	4
164.412	n/a	PROB	82206	n/a	LTP250	ltpFR2	16	n/a	n/a	n/a	2	12	5	2	5
166.264	n/a	PROB	83132	n/a	LTP250	ltpFR2	16	n/a	n/a	n/a	2	15	5	8	2
167.716	n/a	PROB	83858	n/a	LTP250	ltpFR2	16	n/a	n/a	n/a	2	16	5	8	3
169.484	n/a	PROB	84742	n/a	LTP250	ltpFR2	16	n/a	n/a	n/a	2	13	1	8	4
171.62	n/a	PROB	85810	n/a	LTP250	ltpFR2	16	n/a	n/a	n/a	2	8	3	2	3
174.706	n/a	PROB	87353	n/a	LTP250	ltpFR2	16	n/a	n/a	n/a	2	15	4	6	5
176.488	n/a	PROB	88244	n/a	LTP250	ltpFR2	16	n/a	n/a	n/a	2	18	3	7	8
177.974	n/a	PROB	88987	n/a	LTP250	ltpFR2	16	n/a	n/a	n/a	2	14	4	4	6
179.424	n/a	PROB	89712	n/a	LTP250	ltpFR2	16	n/a	n/a	n/a	2	20	8	8	4
184.032	n/a	STOP	92016	n/a	LTP250	ltpFR2	16	n/a	n/a	n/a	2	n/a	n/a	n/a	n/a
185.804	n/a	REC_START	92902	n/a	LTP250	ltpFR2	16	1	n/a	n/a	n/a	n/a	0	0	0
186.456	n/a	REC_WORD	93228	wordpools/wasnorm_wordpool_576.txt	LTP250	ltpFR2	16	1	BRANCH	168	n/a	n/a	0	0	0
187.214	n/a	REC_WORD	93607	wordpools/wasnorm_wordpool_576.txt	LTP250	ltpFR2	16	1	BIKE	125	n/a	n/a	0	0	0
187.692	n/a	REC_WORD	93846	wordpools/wasnorm_wordpool_576.txt	LTP250	ltpFR2	16	1	STORE	1387	n/a	n/a	0	0	0
188.85	n/a	REC_WORD	94425	wordpools/wasnorm_wordpool_576.txt	LTP250	ltpFR2	16	1	STAR	1373	n/a	n/a	0	0	0
190.26	n/a	REC_WORD	95130	wordpools/wasnorm_wordpool_576.txt	LTP250	ltpFR2	16	1	LIZARD	834	n/a	n/a	0	0	0
191.448	n/a	REC_WORD_VV	95724	wordpools/wasnorm_wordpool_576.txt	LTP250	ltpFR2	16	1	<>	-1	n/a	n/a	0	0	0
199.122	n/a	REC_WORD	99561	wordpools/wasnorm_wordpool_576.txt	LTP250	ltpFR2	16	1	WRENCH	1625	n/a	n/a	0	0	0
276.232	n/a	DISTRACTOR	138116	n/a	LTP250	ltpFR2	16	2	n/a	n/a	n/a	n/a	0	0	0
276.232	n/a	START	138116	n/a	LTP250	ltpFR2	16	n/a	n/a	n/a	3	n/a	n/a	n/a	n/a
276.246	n/a	PROB	138123	n/a	LTP250	ltpFR2	16	n/a	n/a	n/a	3	14	1	9	4
277.998	n/a	PROB	138999	n/a	LTP250	ltpFR2	16	n/a	n/a	n/a	3	18	5	4	9
279.788	n/a	PROB	139894	n/a	LTP250	ltpFR2	16	n/a	n/a	n/a	3	23	6	8	9
283.554	n/a	PROB	141777	n/a	LTP250	ltpFR2	16	n/a	n/a	n/a	3	19	5	6	8
285.372	n/a	PROB	142686	n/a	LTP250	ltpFR2	16	n/a	n/a	n/a	3	17	8	6	3
288.326	n/a	PROB	144163	n/a	LTP250	ltpFR2	16	n/a	n/a	n/a	3	19	6	7	6
290.176	n/a	PROB	145088	n/a	LTP250	ltpFR2	16	n/a	n/a	n/a	3	14	1	7	6
292.262	n/a	PROB	146131	n/a	LTP250	ltpFR2	16	n/a	n/a	n/a	3	21	7	9	5
295.132	n/a	PROB	147566	n/a	LTP250	ltpFR2	16	n/a	n/a	n/a	3	25	8	9	8
300.232	n/a	STOP	150116	n/a	LTP250	ltpFR2	16	n/a	n/a	n/a	3	n/a	n/a	n/a	n/a
301.454	n/a	WORD	150727	wordpools/wasnorm_wordpool_576.txt	LTP250	ltpFR2	16	2	GRAPE	654	n/a	n/a	0	0	0
304.106	n/a	WORD	152053	wordpools/wasnorm_wordpool_576.txt	LTP250	ltpFR2	16	2	FRUIT	610	n/a	n/a	0	0	0
306.606	n/a	WORD	153303	wordpools/wasnorm_wordpool_576.txt	LTP250	ltpFR2	16	2	PEBBLE	1035	n/a	n/a	0	0	0
309.41	n/a	WORD	154705	wordpools/wasnorm_wordpool_576.txt	LTP250	ltpFR2	16	2	DANDRUFF	439	n/a	n/a	0	0	0
311.962	n/a	WORD	155981	wordpools/wasnorm_wordpool_576.txt	LTP250	ltpFR2	16	2	HELMET	702	n/a	n/a	0	0	0
314.748	n/a	WORD	157374	wordpools/wasnorm_wordpool_576.txt	LTP250	ltpFR2	16	2	SODA	1341	n/a	n/a	0	0	0
317.316	n/a	WORD	158658	wordpools/wasnorm_wordpool_576.txt	LTP250	ltpFR2	16	2	SUPPER	1411	n/a	n/a	0	0	0
320.118	n/a	WORD	160059	wordpools/wasnorm_wordpool_576.txt	LTP250	ltpFR2	16	2	CLAMP	316	n/a	n/a	0	0	0
322.754	n/a	WORD	161377	wordpools/wasnorm_wordpool_576.txt	LTP250	ltpFR2	16	2	LIVER	833	n/a	n/a	0	0	0
325.422	n/a	WORD	162711	wordpools/wasnorm_wordpool_576.txt	LTP250	ltpFR2	16	2	KITCHEN	778	n/a	n/a	0	0	0
328.008	n/a	WORD	164004	wordpools/wasnorm_wordpool_576.txt	LTP250	ltpFR2	16	2	BLACKBOARD	133	n/a	n/a	0	0	0
330.678	n/a	WORD	165339	wordpools/wasnorm_wordpool_576.txt	LTP250	ltpFR2	16	2	TROMBONE	1508	n/a	n/a	0	0	0
333.48	n/a	WORD	166740	wordpools/wasnorm_wordpool_576.txt	LTP250	ltpFR2	16	2	WHISTLE	1606	n/a	n/a	0	0	0
336.014	n/a	WORD	168007	wordpools/wasnorm_wordpool_576.txt	LTP250	ltpFR2	16	2	SCARF	1246	n/a	n/a	0	0	0
338.484	n/a	WORD	169242	wordpools/wasnorm_wordpool_576.txt	LTP250	ltpFR2	16	2	COWBOY	395	n/a	n/a	0	0	0
341.152	n/a	WORD	170576	wordpools/wasnorm_wordpool_576.txt	LTP250	ltpFR2	16	2	LION	827	n/a	n/a	0	0	0
343.954	n/a	WORD	171977	wordpools/wasnorm_wordpool_576.txt	LTP250	ltpFR2	16	2	LEOPARD	812	n/a	n/a	0	0	0
346.724	n/a	WORD	173362	wordpools/wasnorm_wordpool_576.txt	LTP250	ltpFR2	16	2	KIDNEY	776	n/a	n/a	0	0	0
349.542	n/a	WORD	174771	wordpools/wasnorm_wordpool_576.txt	LTP250	ltpFR2	16	2	DUSTPAN	509	n/a	n/a	0	0	0
352.228	n/a	WORD	176114	wordpools/wasnorm_wordpool_576.txt	LTP250	ltpFR2	16	2	PENGUIN	1044	n/a	n/a	0	0	0
354.98	n/a	WORD	177490	wordpools/wasnorm_wordpool_576.txt	LTP250	ltpFR2	16	2	LAMP	798	n/a	n/a	0	0	0
357.632	n/a	WORD	178816	wordpools/wasnorm_wordpool_576.txt	LTP250	ltpFR2	16	2	SPACE	1345	n/a	n/a	0	0	0
360.216	n/a	WORD	180108	wordpools/wasnorm_wordpool_576.txt	LTP250	ltpFR2	16	2	POSTAGE	1113	n/a	n/a	0	0	0
362.968	n/a	WORD	181484	wordpools/wasnorm_wordpool_576.txt	LTP250	ltpFR2	16	2	DOUGHNUT	490	n/a	n/a	0	0	0
364.574	n/a	START	182287	n/a	LTP250	ltpFR2	16	n/a	n/a	n/a	4	n/a	n/a	n/a	n/a
365.432	n/a	DISTRACTOR	182716	n/a	LTP250	ltpFR2	16	2	n/a	n/a	n/a	n/a	0	0	0
365.438	n/a	PROB	182719	n/a	LTP250	ltpFR2	16	n/a	n/a	n/a	4	23	7	6	8
367.804	n/a	PROB	183902	n/a	LTP250	ltpFR2	16	n/a	n/a	n/a	4	21	8	5	8
369.908	n/a	PROB	184954	n/a	LTP250	ltpFR2	16	n/a	n/a	n/a	4	17	1	8	8
373.142	n/a	PROB	186571	n/a	LTP250	ltpFR2	16	n/a	n/a	n/a	4	10	3	1	6
374.994	n/a	PROB	187497	n/a	LTP250	ltpFR2	16	n/a	n/a	n/a	4	12	1	4	7
376.846	n/a	PROB	188423	n/a	LTP250	ltpFR2	16	n/a	n/a	n/a	4	13	1	4	8
378.748	n/a	PROB	189374	n/a	LTP250	ltpFR2	16	n/a	n/a	n/a	4	22	8	6	8
381.966	n/a	PROB	190983	n/a	LTP250	ltpFR2	16	n/a	n/a	n/a	4	20	9	9	2
383.734	n/a	PROB	191867	n/a	LTP250	ltpFR2	16	n/a	n/a	n/a	4	15	1	4	8
388.574	n/a	STOP	194287	n/a	LTP250	ltpFR2	16	n/a	n/a	n/a	4	n/a	n/a	n/a	n/a
390.474	n/a	REC_START	195237	n/a	LTP250	ltpFR2	16	2	n/a	n/a	n/a	n/a	0	0	0
391.01	n/a	REC_WORD	195505	wordpools/wasnorm_wordpool_576.txt	LTP250	ltpFR2	16	2	DUSTPAN	509	n/a	n/a	0	0	0
391.866	n/a	REC_WORD	195933	wordpools/wasnorm_wordpool_576.txt	LTP250	ltpFR2	16	2	DOUGHNUT	490	n/a	n/a	0	0	0
392.454	n/a	REC_WORD	196227	wordpools/wasnorm_wordpool_576.txt	LTP250	ltpFR2	16	2	SODA	1341	n/a	n/a	0	0	0
393.372	n/a	REC_WORD	196686	wordpools/wasnorm_wordpool_576.txt	LTP250	ltpFR2	16	2	BLACKBOARD	133	n/a	n/a	0	0	0
394.236	n/a	REC_WORD	197118	wordpools/wasnorm_wordpool_576.txt	LTP250	ltpFR2	16	2	KITCHEN	778	n/a	n/a	0	0	0
398.12	n/a	REC_WORD	199060	wordpools/wasnorm_wordpool_576.txt	LTP250	ltpFR2	16	2	GRAPE	654	n/a	n/a	0	0	0
401.126	n/a	REC_WORD	200563	wordpools/wasnorm_wordpool_576.txt	LTP250	ltpFR2	16	2	FRUIT	610	n/a	n/a	0	0	0
405.668	n/a	REC_WORD	202834	wordpools/wasnorm_wordpool_576.txt	LTP250	ltpFR2	16	2	CLAMP	316	n/a	n/a	0	0	0
406.486	n/a	REC_WORD	203243	wordpools/wasnorm_wordpool_576.txt	LTP250	ltpFR2	16	2	LIVER	833	n/a	n/a	0	0	0
408.368	n/a	REC_WORD	204184	wordpools/wasnorm_wordpool_576.txt	LTP250	ltpFR2	16	2	DANDRUFF	439	n/a	n/a	0	0	0
409.112	n/a	REC_WORD	204556	wordpools/wasnorm_wordpool_576.txt	LTP250	ltpFR2	16	2	HELMET	702	n/a	n/a	0	0	0
480.906	n/a	DISTRACTOR	240453	n/a	LTP250	ltpFR2	16	3	n/a	n/a	n/a	n/a	0	0	0
480.906	n/a	START	240453	n/a	LTP250	ltpFR2	16	n/a	n/a	n/a	5	n/a	n/a	n/a	n/a
480.92	n/a	PROB	240460	n/a	LTP250	ltpFR2	16	n/a	n/a	n/a	5	21	8	8	5
482.926	n/a	PROB	241463	n/a	LTP250	ltpFR2	16	n/a	n/a	n/a	5	23	4	8	9
485.68	n/a	PROB	242840	n/a	LTP250	ltpFR2	16	n/a	n/a	n/a	5	12	8	3	1
487.7	n/a	PROB	243850	n/a	LTP250	ltpFR2	16	n/a	n/a	n/a	5	18	5	6	7
490.434	n/a	PROB	245217	n/a	LTP250	ltpFR2	16	n/a	n/a	n/a	5	19	6	4	9
492.0	n/a	PROB	246000	n/a	LTP250	ltpFR2	16	n/a	n/a	n/a	5	14	6	4	4
493.57	n/a	PROB	246785	n/a	LTP250	ltpFR2	16	n/a	n/a	n/a	5	10	2	1	7
495.022	n/a	PROB	247511	n/a	LTP250	ltpFR2	16	n/a	n/a	n/a	5	15	5	7	3
496.622	n/a	PROB	248311	n/a	LTP250	ltpFR2	16	n/a	n/a	n/a	5	17	2	8	7
498.09	n/a	PROB	249045	n/a	LTP250	ltpFR2	16	n/a	n/a	n/a	5	13	3	7	3
499.424	n/a	PROB	249712	n/a	LTP250	ltpFR2	16	n/a	n/a	n/a	5	14	9	4	1
501.344	n/a	PROB	250672	n/a	LTP250	ltpFR2	16	n/a	n/a	n/a	5	13	2	3	8
504.906	n/a	STOP	252453	n/a	LTP250	ltpFR2	16	n/a	n/a	n/a	5	n/a	n/a	n/a	n/a
505.894	n/a	WORD	252947	wordpools/wasnorm_wordpool_576.txt	LTP250	ltpFR2	16	3	SUBWAY	1400	n/a	n/a	0	0	0
508.664	n/a	WORD	254332	wordpools/wasnorm_wordpool_576.txt	LTP250	ltpFR2	16	3	GOBLIN	645	n/a	n/a	0	0	0
511.23	n/a	WORD	255615	wordpools/wasnorm_wordpool_576.txt	LTP250	ltpFR2	16	3	COBRA	336	n/a	n/a	0	0	0
513.672	n/a	WORD	256836	wordpools/wasnorm_wordpool_576.txt	LTP250	ltpFR2	16	3	BLADE	134	n/a	n/a	0	0	0
516.452	n/a	WORD	258226	wordpools/wasnorm_wordpool_576.txt	LTP250	ltpFR2	16	3	SPOON	1357	n/a	n/a	0	0	0
518.872	n/a	WORD	259436	wordpools/wasnorm_wordpool_576.txt	LTP250	ltpFR2	16	3	PLUTO	1092	n/a	n/a	0	0	0
521.478	n/a	WORD	260739	wordpools/wasnorm_wordpool_576.txt	LTP250	ltpFR2	16	3	GARLIC	624	n/a	n/a	0	0	0
523.942	n/a	WORD	261971	wordpools/wasnorm_wordpool_576.txt	LTP250	ltpFR2	16	3	COFFEE	341	n/a	n/a	0	0	0
526.66	n/a	WORD	263330	wordpools/wasnorm_wordpool_576.txt	LTP250	ltpFR2	16	3	SHOVEL	1295	n/a	n/a	0	0	0
529.446	n/a	WORD	264723	wordpools/wasnorm_wordpool_576.txt	LTP250	ltpFR2	16	3	HONEY	713	n/a	n/a	0	0	0
532.166	n/a	WORD	266083	wordpools/wasnorm_wordpool_576.txt	LTP250	ltpFR2	16	3	ORCHID	982	n/a	n/a	0	0	0
534.702	n/a	WORD	267351	wordpools/wasnorm_wordpool_576.txt	LTP250	ltpFR2	16	3	JOURNAL	760	n/a	n/a	0	0	0
537.27	n/a	WORD	268635	wordpools/wasnorm_wordpool_576.txt	LTP250	ltpFR2	16	3	LABEL	790	n/a	n/a	0	0	0
540.022	n/a	WORD	270011	wordpools/wasnorm_wordpool_576.txt	LTP250	ltpFR2	16	3	WORKER	1621	n/a	n/a	0	0	0
542.642	n/a	WORD	271321	wordpools/wasnorm_wordpool_576.txt	LTP250	ltpFR2	16	3	GUITAR	670	n/a	n/a	0	0	0
545.076	n/a	WORD	272538	wordpools/wasnorm_wordpool_576.txt	LTP250	ltpFR2	16	3	MESSAGE	888	n/a	n/a	0	0	0
547.764	n/a	WORD	273882	wordpools/wasnorm_wordpool_576.txt	LTP250	ltpFR2	16	3	MARS	873	n/a	n/a	0	0	0
550.548	n/a	WORD	275274	wordpools/wasnorm_wordpool_576.txt	LTP250	ltpFR2	16	3	SHELF	1280	n/a	n/a	0	0	0
553.368	n/a	WORD	276684	wordpools/wasnorm_wordpool_576.txt	LTP250	ltpFR2	16	3	LEADER	807	n/a	n/a	0	0	0
555.97	n/a	WORD	277985	wordpools/wasnorm_wordpool_576.txt	LTP250	ltpFR2	16	3	ONION	977	n/a	n/a	0	0	0
558.522	n/a	WORD	279261	wordpools/wasnorm_wordpool_576.txt	LTP250	ltpFR2	16	3	RUST	1219	n/a	n/a	0	0	0
561.006	n/a	WORD	280503	wordpools/wasnorm_wordpool_576.txt	LTP250	ltpFR2	16	3	SHARK	1275	n/a	n/a	0	0	0
563.594	n/a	WORD	281797	wordpools/wasnorm_wordpool_576.txt	LTP250	ltpFR2	16	3	CEILING	265	n/a	n/a	0	0	0
566.344	n/a	WORD	283172	wordpools/wasnorm_wordpool_576.txt	LTP250	ltpFR2	16	3	MOP	916	n/a	n/a	0	0	0
567.962	n/a	START	283981	n/a	LTP250	ltpFR2	16	n/a	n/a	n/a	6	n/a	n/a	n/a	n/a
569.136	n/a	DISTRACTOR	284568	n/a	LTP250	ltpFR2	16	3	n/a	n/a	n/a	n/a	0	0	0
569.146	n/a	PROB	284573	n/a	LTP250	ltpFR2	16	n/a	n/a	n/a	6	8	2	5	1
572.834	n/a	PROB	286417	n/a	LTP250	ltpFR2	16	n/a	n/a	n/a	6	8	1	5	2
574.384	n/a	PROB	287192	n/a	LTP250	ltpFR2	16	n/a	n/a	n/a	6	16	1	6	9
576.686	n/a	PROB	288343	n/a	LTP250	ltpFR2	16	n/a	n/a	n/a	6	12	8	2	2
578.386	n/a	PROB	289193	n/a	LTP250	ltpFR2	16	n/a	n/a	n/a	6	17	3	7	7
579.904	n/a	PROB	289952	n/a	LTP250	ltpFR2	16	n/a	n/a	n/a	6	9	4	1	4
583.172	n/a	PROB	291586	n/a	LTP250	ltpFR2	16	n/a	n/a	n/a	6	11	3	2	6
585.34	n/a	PROB	292670	n/a	LTP250	ltpFR2	16	n/a	n/a	n/a	6	11	3	7	1
587.562	n/a	PROB	293781	n/a	LTP250	ltpFR2	16	n/a	n/a	n/a	6	19	7	6	6
591.962	n/a	STOP	295981	n/a	LTP250	ltpFR2	16	n/a	n/a	n/a	6	n/a	n/a	n/a	n/a
593.832	n/a	REC_START	296916	n/a	LTP250	ltpFR2	16	3	n/a	n/a	n/a	n/a	0	0	0
594.458	n/a	REC_WORD	297229	wordpools/wasnorm_wordpool_576.txt	LTP250	ltpFR2	16	3	SHARK	1275	n/a	n/a	0	0	0
595.18	n/a	REC_WORD	297590	wordpools/wasnorm_wordpool_576.txt	LTP250	ltpFR2	16	3	CEILING	265	n/a	n/a	0	0	0
596.02	n/a	REC_WORD	298010	wordpools/wasnorm_wordpool_576.txt	LTP250	ltpFR2	16	3	MOP	916	n/a	n/a	0	0	0
599.768	n/a	REC_WORD	299884	wordpools/wasnorm_wordpool_576.txt	LTP250	ltpFR2	16	3	JOURNAL	760	n/a	n/a	0	0	0
602.67	n/a	REC_WORD	301335	wordpools/wasnorm_wordpool_576.txt	LTP250	ltpFR2	16	3	LABEL	790	n/a	n/a	0	0	0
603.33	n/a	REC_WORD	301665	wordpools/wasnorm_wordpool_576.txt	LTP250	ltpFR2	16	3	MESSAGE	888	n/a	n/a	0	0	0
604.222	n/a	REC_WORD	302111	wordpools/wasnorm_wordpool_576.txt	LTP250	ltpFR2	16	3	GUITAR	670	n/a	n/a	0	0	0
605.012	n/a	REC_WORD	302506	wordpools/wasnorm_wordpool_576.txt	LTP250	ltpFR2	16	3	WORKER	1621	n/a	n/a	0	0	0
684.268	n/a	WORD	342134	wordpools/wasnorm_wordpool_576.txt	LTP250	ltpFR2	16	4	NECKLACE	940	n/a	n/a	0	0	0
686.764	n/a	WORD	343382	wordpools/wasnorm_wordpool_576.txt	LTP250	ltpFR2	16	4	MEDAL	885	n/a	n/a	0	0	0
689.55	n/a	WORD	344775	wordpools/wasnorm_wordpool_576.txt	LTP250	ltpFR2	16	4	LUGGAGE	847	n/a	n/a	0	0	0
692.226	n/a	WORD	346113	wordpools/wasnorm_wordpool_576.txt	LTP250	ltpFR2	16	4	HAMPER	682	n/a	n/a	0	0	0
694.87	n/a	WORD	347435	wordpools/wasnorm_wordpool_576.txt	LTP250	ltpFR2	16	4	HOSTESS	723	n/a	n/a	0	0	0
697.372	n/a	WORD	348686	wordpools/wasnorm_wordpool_576.txt	LTP250	ltpFR2	16	4	CHEST	295	n/a	n/a	0	0	0
699.932	n/a	WORD	349966	wordpools/wasnorm_wordpool_576.txt	LTP250	ltpFR2	16	4	COTTAGE	384	n/a	n/a	0	0	0
702.744	n/a	WORD	351372	wordpools/wasnorm_wordpool_576.txt	LTP250	ltpFR2	16	4	BRICK	172	n/a	n/a	0	0	0
705.286	n/a	WORD	352643	wordpools/wasnorm_wordpool_576.txt	LTP250	ltpFR2	16	4	QUEEN	1149	n/a	n/a	0	0	0
707.914	n/a	WORD	353957	wordpools/wasnorm_wordpool_576.txt	LTP250	ltpFR2	16	4	CRATER	400	n/a	n/a	0	0	0
710.39	n/a	WORD	355195	wordpools/wasnorm_wordpool_576.txt	LTP250	ltpFR2	16	4	ANTLER	29	n/a	n/a	0	0	0
713.068	n/a	WORD	356534	wordpools/wasnorm_wordpool_576.txt	LTP250	ltpFR2	16	4	SILK	1307	n/a	n/a	0	0	0
715.69	n/a	WORD	357845	wordpools/wasnorm_wordpool_576.txt	LTP250	ltpFR2	16	4	ATLAS	53	n/a	n/a	0	0	0
718.14	n/a	WORD	359070	wordpools/wasnorm_wordpool_576.txt	LTP250	ltpFR2	16	4	TRACTOR	1493	n/a	n/a	0	0	0
720.578	n/a	WORD	360289	wordpools/wasnorm_wordpool_576.txt	LTP250	ltpFR2	16	4	COLONEL	348	n/a	n/a	0	0	0
723.028	n/a	WORD	361514	wordpools/wasnorm_wordpool_576.txt	LTP250	ltpFR2	16	4	BASEMENT	94	n/a	n/a	0	0	0
725.548	n/a	WORD	362774	wordpools/wasnorm_wordpool_576.txt	LTP250	ltpFR2	16	4	ICING	732	n/a	n/a	0	0	0
727.97	n/a	WORD	363985	wordpools/wasnorm_wordpool_576.txt	LTP250	ltpFR2	16	4	AUTHOR	61	n/a	n/a	0	0	0
730.468	n/a	WORD	365234	wordpools/wasnorm_wordpool_576.txt	LTP250	ltpFR2	16	4	FLEET	578	n/a	n/a	0	0	0
732.942	n/a	WORD	366471	wordpools/wasnorm_wordpool_576.txt	LTP250	ltpFR2	16	4	WASHER	1592	n/a	n/a	0	0	0
735.558	n/a	WORD	367779	wordpools/wasnorm_wordpool_576.txt	LTP250	ltpFR2	16	4	TILE	1468	n/a	n/a	0	0	0
738.022	n/a	WORD	369011	wordpools/wasnorm_wordpool_576.txt	LTP250	ltpFR2	16	4	EMPIRE	530	n/a	n/a	0	0	0
740.51	n/a	WORD	370255	wordpools/wasnorm_wordpool_576.txt	LTP250	ltpFR2	16	4	FRAGRANCE	599	n/a	n/a	0	0	0
743.282	n/a	WORD	371641	wordpools/wasnorm_wordpool_576.txt	LTP250	ltpFR2	16	4	LASER	801	n/a	n/a	0	0	0
744.898	n/a	START	372449	n/a	LTP250	ltpFR2	16	n/a	n/a	n/a	7	n/a	n/a	n/a	n/a
745.91	n/a	DISTRACTOR	372955	n/a	LTP250	ltpFR2	16	4	n/a	n/a	n/a	n/a	0	0	0
745.918	n/a	PROB	372959	n/a	LTP250	ltpFR2	16	n/a	n/a	n/a	7	21	6	6	9
748.088	n/a	PROB	374044	n/a	LTP250	ltpFR2	16	n/a	n/a	n/a	7	18	8	7	3
749.904	n/a	PROB	374952	n/a	LTP250	ltpFR2	16	n/a	n/a	n/a	7	21	6	6	9
753.168	n/a	PROB	376584	n/a	LTP250	ltpFR2	16	n/a	n/a	n/a	7	18	6	4	8
754.838	n/a	PROB	377419	n/a	LTP250	ltpFR2	16	n/a	n/a	n/a	7	9	2	4	3
757.422	n/a	PROB	378711	n/a	LTP250	ltpFR2	16	n/a	n/a	n/a	7	14	3	5	6
760.892	n/a	PROB	380446	n/a	LTP250	ltpFR2	16	n/a	n/a	n/a	7	11	7	1	3
763.01	n/a	PROB	381505	n/a	LTP250	ltpFR2	16	n/a	n/a	n/a	7	22	6	9	8
765.93	n/a	PROB	382965	n/a	LTP250	ltpFR2	16	n/a	n/a	n/a	7	14	4	6	4
768.042	n/a	STOP	384021	n/a	LTP250	ltpFR2	16	n/a	n/a	n/a	7	n/a	n/a	n/a	n/a
770.772	n/a	REC_START	385386	n/a	LTP250	ltpFR2	16	4	n/a	n/a	n/a	n/a	0	0	0
771.63	n/a	REC_WORD	385815	wordpools/wasnorm_wordpool_576.txt	LTP250	ltpFR2	16	4	ANCHOR	21	n/a	n/a	0	0	0
772.248	n/a	REC_WORD	386124	wordpools/wasnorm_wordpool_576.txt	LTP250	ltpFR2	16	4	FRAGRANCE	599	n/a	n/a	0	0	0
775.196	n/a	REC_WORD	387598	wordpools/wasnorm_wordpool_576.txt	LTP250	ltpFR2	16	4	LASER	801	n/a	n/a	0	0	0
861.208	n/a	DISTRACTOR	430604	n/a	LTP250	ltpFR2	16	5	n/a	n/a	n/a	n/a	0	0	0
861.208	n/a	START	430604	n/a	LTP250	ltpFR2	16	n/a	n/a	n/a	8	n/a	n/a	n/a	n/a
861.224	n/a	PROB	430612	n/a	LTP250	ltpFR2	16	n/a	n/a	n/a	8	14	5	4	5
863.326	n/a	PROB	431663	n/a	LTP250	ltpFR2	16	n/a	n/a	n/a	8	22	5	8	7
866.176	n/a	PROB	433088	n/a	LTP250	ltpFR2	16	n/a	n/a	n/a	8	16	3	7	6
868.864	n/a	PROB	434432	n/a	LTP250	ltpFR2	16	n/a	n/a	n/a	8	11	5	3	3
870.864	n/a	PROB	435432	n/a	LTP250	ltpFR2	16	n/a	n/a	n/a	8	13	8	1	4
873.232	n/a	PROB	436616	n/a	LTP250	ltpFR2	16	n/a	n/a	n/a	8	16	7	2	7
875.35	n/a	PROB	437675	n/a	LTP250	ltpFR2	16	n/a	n/a	n/a	8	22	9	9	4
878.202	n/a	PROB	439101	n/a	LTP250	ltpFR2	16	n/a	n/a	n/a	8	8	3	2	3
880.722	n/a	PROB	440361	n/a	LTP250	ltpFR2	16	n/a	n/a	n/a	8	16	1	8	7
883.092	n/a	PROB	441546	n/a	LTP250	ltpFR2	16	n/a	n/a	n/a	8	5	3	1	1
884.212	n/a	STOP	442106	n/a	LTP250	ltpFR2	16	n/a	n/a	n/a	8	n/a	n/a	n/a	n/a
886.412	n/a	WORD	443206	wordpools/wasnorm_wordpool_576.txt	LTP250	ltpFR2	16	5	CAFE	216	n/a	n/a	0	0	0
889.214	n/a	WORD	444607	wordpools/wasnorm_wordpool_576.txt	LTP250	ltpFR2	16	5	PRINCE	1124	n/a	n/a	0	0	0
891.784	n/a	WORD	445892	wordpools/wasnorm_wordpool_576.txt	LTP250	ltpFR2	16	5	BEAKER	104	n/a	n/a	0	0	0
894.274	n/a	WORD	447137	wordpools/wasnorm_wordpool_576.txt	LTP250	ltpFR2	16	5	LILY	821	n/a	n/a	0	0	0
896.888	n/a	WORD	448444	wordpools/wasnorm_wordpool_576.txt	LTP250	ltpFR2	16	5	CREVICE	405	n/a	n/a	0	0	0
899.37	n/a	WORD	449685	wordpools/wasnorm_wordpool_576.txt	LTP250	ltpFR2	16	5	ATOM	55	n/a	n/a	0	0	0
902.18	n/a	WORD	451090	wordpools/wasnorm_wordpool_576.txt	LTP250	ltpFR2	16	5	SALMON	1227	n/a	n/a	0	0	0
904.9	n/a	WORD	452450	wordpools/wasnorm_wordpool_576.txt	LTP250	ltpFR2	16	5	LAKE	796	n/a	n/a	0	0	0
907.536	n/a	WORD	453768	wordpools/wasnorm_wordpool_576.txt	LTP250	ltpFR2	16	5	GIRL	637	n/a	n/a	0	0	0
910.154	n/a	WORD	455077	wordpools/wasnorm_wordpool_576.txt	LTP250	ltpFR2	16	5	DRUG	501	n/a	n/a	0	0	0
912.866	n/a	WORD	456433	wordpools/wasnorm_wordpool_576.txt	LTP250	ltpFR2	16	5	PERMIT	1051	n/a	n/a	0	0	0
915.568	n/a	WORD	457784	wordpools/wasnorm_wordpool_576.txt	LTP250	ltpFR2	16	5	FOOTBALL	591	n/a	n/a	0	0	0
918.268	n/a	WORD	459134	wordpools/wasnorm_wordpool_576.txt	LTP250	ltpFR2	16	5	LAPEL	800	n/a	n/a	0	0	0
920.696	n/a	WORD	460348	wordpools/wasnorm_wordpool_576.txt	LTP250	ltpFR2	16	5	PLAID	1080	n/a	n/a	0	0	0
923.232	n/a	WORD	461616	wordpools/wasnorm_wordpool_576.txt	LTP250	ltpFR2	16	5	RECEIPT	1173	n/a	n/a	0	0	0
925.7	n/a	WORD	462850	wordpools/wasnorm_wordpool_576.txt	LTP250	ltpFR2	16	5	SIDEWALK	1303	n/a	n/a	0	0	0
928.368	n/a	WORD	464184	wordpools/wasnorm_wordpool_576.txt	LTP250	ltpFR2	16	5	HIGHWAY	707	n/a	n/a	0	0	0
931.072	n/a	WORD	465536	wordpools/wasnorm_wordpool_576.txt	LTP250	ltpFR2	16	5	DRAWING	494	n/a	n/a	0	0	0
933.716	n/a	WORD	466858	wordpools/wasnorm_wordpool_576.txt	LTP250	ltpFR2	16	5	CRAYON	401	n/a	n/a	0	0	0
936.392	n/a	WORD	468196	wordpools/wasnorm_wordpool_576.txt	LTP250	ltpFR2	16	5	ISLAND	745	n/a	n/a	0	0	0
939.086	n/a	WORD	469543	wordpools/wasnorm_wordpool_576.txt	LTP250	ltpFR2	16	5	SALT	1229	n/a	n/a	0	0	0
941.738	n/a	WORD	470869	wordpools/wasnorm_wordpool_576.txt	LTP250	ltpFR2	16	5	FRIEND	606	n/a	n/a	0	0	0
944.508	n/a	WORD	472254	wordpools/wasnorm_wordpool_576.txt	LTP250	ltpFR2	16	5	PLASTER	1085	n/a	n/a	0	0	0
947.068	n/a	WORD	473534	wordpools/wasnorm_wordpool_576.txt	LTP250	ltpFR2	16	5	TROUT	1511	n/a	n/a	0	0	0
948.678	n/a	START	474339	n/a	LTP250	ltpFR2	16	n/a	n/a	n/a	9	n/a	n/a	n/a	n/a
949.764	n/a	DISTRACTOR	474882	n/a	LTP250	ltpFR2	16	5	n/a	n/a	n/a	n/a	0	0	0
949.772	n/a	PROB	474886	n/a	LTP250	ltpFR2	16	n/a	n/a	n/a	9	8	3	1	4
951.612	n/a	PROB	475806	n/a	LTP250	ltpFR2	16	n/a	n/a	n/a	9	15	3	8	4
954.962	n/a	PROB	477481	n/a	LTP250	ltpFR2	16	n/a	n/a	n/a	9	16	7	8	1
957.132	n/a	PROB	478566	n/a	LTP250	ltpFR2	16	n/a	n/a	n/a	9	18	7	6	5
959.5	n/a	PROB	479750	n/a	LTP250	ltpFR2	16	n/a	n/a	n/a	9	16	8	1	7
961.302	n/a	PROB	480651	n/a	LTP250	ltpFR2	16	n/a	n/a	n/a	9	13	1	6	6
962.918	n/a	PROB	481459	n/a	LTP250	ltpFR2	16	n/a	n/a	n/a	9	13	2	3	8
964.788	n/a	PROB	482394	n/a	LTP250	ltpFR2	16	n/a	n/a	n/a	9	14	9	1	4
966.674	n/a	PROB	483337	n/a	LTP250	ltpFR2	16	n/a	n/a	n/a	9	11	6	4	1
968.04	n/a	PROB	484020	n/a	LTP250	ltpFR2	16	n/a	n/a	n/a	9	22	8	6	7
972.678	n/a	STOP	486339	n/a	LTP250	ltpFR2	16	n/a	n/a	n/a	9	n/a	n/a	n/a	n/a
974.48	n/a	REC_START	487240	n/a	LTP250	ltpFR2	16	5	n/a	n/a	n/a	n/a	0	0	0
975.592	n/a	REC_WORD	487796	wordpools/wasnorm_wordpool_576.txt	LTP250	ltpFR2	16	5	SALT	1229	n/a	n/a	0	0	0
976.426	n/a	REC_WORD	488213	wordpools/wasnorm_wordpool_576.txt	LTP250	ltpFR2	16	5	PLASTER	1085	n/a	n/a	0	0	0
977.312	n/a	REC_WORD	488656	wordpools/wasnorm_wordpool_576.txt	LTP250	ltpFR2	16	5	TROUT	1511	n/a	n/a	0	0	0
1064.934	n/a	DISTRACTOR	532467	n/a	LTP250	ltpFR2	16	6	n/a	n/a	n/a	n/a	0	0	0
1064.934	n/a	START	532467	n/a	LTP250	ltpFR2	16	n/a	n/a	n/a	10	n/a	n/a	n/a	n/a
1064.95	n/a	PROB	532475	n/a	LTP250	ltpFR2	16	n/a	n/a	n/a	10	17	8	8	1
1068.068	n/a	PROB	534034	n/a	LTP250	ltpFR2	16	n/a	n/a	n/a	10	15	4	4	7
1073.256	n/a	PROB	536628	n/a	LTP250	ltpFR2	16	n/a	n/a	n/a	10	16	8	7	1
1075.19	n/a	PROB	537595	n/a	LTP250	ltpFR2	16	n/a	n/a	n/a	10	11	3	6	2
1077.51	n/a	PROB	538755	n/a	LTP250	ltpFR2	16	n/a	n/a	n/a	10	18	9	6	3
1079.78	n/a	PROB	539890	n/a	LTP250	ltpFR2	16	n/a	n/a	n/a	10	14	9	2	3
1082.414	n/a	PROB	541207	n/a	LTP250	ltpFR2	16	n/a	n/a	n/a	10	14	7	5	2
1084.666	n/a	PROB	542333	n/a	LTP250	ltpFR2	16	n/a	n/a	n/a	10	23	9	9	5
1087.546	n/a	STOP	543773	n/a	LTP250	ltpFR2	16	n/a	n/a	n/a	10	n/a	n/a	n/a	n/a
1089.97	n/a	WORD	544985	wordpools/wasnorm_wordpool_576.txt	LTP250	ltpFR2	16	6	CLAM	315	n/a	n/a	0	0	0
1092.556	n/a	WORD	546278	wordpools/wasnorm_wordpool_576.txt	LTP250	ltpFR2	16	6	STOVE	1388	n/a	n/a	0	0	0
1095.19	n/a	WORD	547595	wordpools/wasnorm_wordpool_576.txt	LTP250	ltpFR2	16	6	SEAL	1262	n/a	n/a	0	0	0
1097.744	n/a	WORD	548872	wordpools/wasnorm_wordpool_576.txt	LTP250	ltpFR2	16	6	SPOUSE	1358	n/a	n/a	0	0	0
1100.48	n/a	WORD	550240	wordpools/wasnorm_wordpool_576.txt	LTP250	ltpFR2	16	6	PREACHER	1119	n/a	n/a	0	0	0
1103.046	n/a	WORD	551523	wordpools/wasnorm_wordpool_576.txt	LTP250	ltpFR2	16	6	SLIDE	1326	n/a	n/a	0	0	0
1105.8	n/a	WORD	552900	wordpools/wasnorm_wordpool_576.txt	LTP250	ltpFR2	16	6	BUCKET	184	n/a	n/a	0	0	0
1108.252	n/a	WORD	554126	wordpools/wasnorm_wordpool_576.txt	LTP250	ltpFR2	16	6	SPOOL	1356	n/a	n/a	0	0	0
1110.704	n/a	WORD	555352	wordpools/wasnorm_wordpool_576.txt	LTP250	ltpFR2	16	6	FIDDLE	561	n/a	n/a	0	0	0
1113.388	n/a	WORD	556694	wordpools/wasnorm_wordpool_576.txt	LTP250	ltpFR2	16	6	GRAVEL	659	n/a	n/a	0	0	0
1115.88	n/a	WORD	557940	wordpools/wasnorm_wordpool_576.txt	LTP250	ltpFR2	16	6	SNAIL	1332	n/a	n/a	0	0	0
1118.526	n/a	WORD	559263	wordpools/wasnorm_wordpool_576.txt	LTP250	ltpFR2	16	6	GRIZZLY	662	n/a	n/a	0	0	0
1120.994	n/a	WORD	560497	wordpools/wasnorm_wordpool_576.txt	LTP250	ltpFR2	16	6	BABY	64	n/a	n/a	0	0	0
1123.504	n/a	WORD	561752	wordpools/wasnorm_wordpool_576.txt	LTP250	ltpFR2	16	6	POPCORN	1104	n/a	n/a	0	0	0
1126.098	n/a	WORD	563049	wordpools/wasnorm_wordpool_576.txt	LTP250	ltpFR2	16	6	CHAPEL	280	n/a	n/a	0	0	0
1128.568	n/a	WORD	564284	wordpools/wasnorm_wordpool_576.txt	LTP250	ltpFR2	16	6	ANKLE	24	n/a	n/a	0	0	0
1131.136	n/a	WORD	565568	wordpools/wasnorm_wordpool_576.txt	LTP250	ltpFR2	16	6	FINGER	567	n/a	n/a	0	0	0
1133.604	n/a	WORD	566802	wordpools/wasnorm_wordpool_576.txt	LTP250	ltpFR2	16	6	HEART	697	n/a	n/a	0	0	0
1136.346	n/a	WORD	568173	wordpools/wasnorm_wordpool_576.txt	LTP250	ltpFR2	16	6	BOYFRIEND	162	n/a	n/a	0	0	0
1139.032	n/a	WORD	569516	wordpools/wasnorm_wordpool_576.txt	LTP250	ltpFR2	16	6	PROTON	1132	n/a	n/a	0	0	0
1141.544	n/a	WORD	570772	wordpools/wasnorm_wordpool_576.txt	LTP250	ltpFR2	16	6	NEUTRON	947	n/a	n/a	0	0	0
1143.994	n/a	WORD	571997	wordpools/wasnorm_wordpool_576.txt	LTP250	ltpFR2	16	6	FLESH	579	n/a	n/a	0	0	0
1146.672	n/a	WORD	573336	wordpools/wasnorm_wordpool_576.txt	LTP250	ltpFR2	16	6	CANAL	226	n/a	n/a	0	0	0
1149.348	n/a	WORD	574674	wordpools/wasnorm_wordpool_576.txt	LTP250	ltpFR2	16	6	TRANSPLANT	1496	n/a	n/a	0	0	0
1150.96	n/a	START	575480	n/a	LTP250	ltpFR2	16	n/a	n/a	n/a	11	n/a	n/a	n/a	n/a
1151.824	n/a	DISTRACTOR	575912	n/a	LTP250	ltpFR2	16	6	n/a	n/a	n/a	n/a	0	0	0
1151.836	n/a	PROB	575918	n/a	LTP250	ltpFR2	16	n/a	n/a	n/a	11	20	8	3	9
1154.036	n/a	PROB	577018	n/a	LTP250	ltpFR2	16	n/a	n/a	n/a	11	13	5	3	5
1155.42	n/a	PROB	577710	n/a	LTP250	ltpFR2	16	n/a	n/a	n/a	11	19	3	7	9
1157.088	n/a	PROB	578544	n/a	LTP250	ltpFR2	16	n/a	n/a	n/a	11	17	9	2	6
1159.94	n/a	PROB	579970	n/a	LTP250	ltpFR2	16	n/a	n/a	n/a	11	11	3	7	1
1161.424	n/a	PROB	580712	n/a	LTP250	ltpFR2	16	n/a	n/a	n/a	11	23	5	9	9
1164.194	n/a	PROB	582097	n/a	LTP250	ltpFR2	16	n/a	n/a	n/a	11	19	8	8	3
1167.196	n/a	PROB	583598	n/a	LTP250	ltpFR2	16	n/a	n/a	n/a	11	17	8	5	4
1169.616	n/a	PROB	584808	n/a	LTP250	ltpFR2	16	n/a	n/a	n/a	11	10	6	2	2
1171.282	n/a	PROB	585641	n/a	LTP250	ltpFR2	16	n/a	n/a	n/a	11	13	2	8	3
1174.958	n/a	STOP	587479	n/a	LTP250	ltpFR2	16	n/a	n/a	n/a	11	n/a	n/a	n/a	n/a
1176.788	n/a	REC_START	588394	n/a	LTP250	ltpFR2	16	6	n/a	n/a	n/a	n/a	0	0	0
1177.308	n/a	REC_WORD	588654	wordpools/wasnorm_wordpool_576.txt	LTP250	ltpFR2	16	6	GRIZZLY	662	n/a	n/a	0	0	0
1178.048	n/a	REC_WORD	589024	wordpools/wasnorm_wordpool_576.txt	LTP250	ltpFR2	16	6	BABY	64	n/a	n/a	0	0	0
1178.65	n/a	REC_WORD	589325	wordpools/wasnorm_wordpool_576.txt	LTP250	ltpFR2	16	6	TRANSPLANT	1496	n/a	n/a	0	0	0
1180.102	n/a	REC_WORD	590051	wordpools/wasnorm_wordpool_576.txt	LTP250	ltpFR2	16	6	LUNG	850	n/a	n/a	0	0	0
1189.3	n/a	REC_WORD	594650	wordpools/wasnorm_wordpool_576.txt	LTP250	ltpFR2	16	6	PLASTER	1085	n/a	n/a	0	0	0
1190.196	n/a	REC_WORD	595098	wordpools/wasnorm_wordpool_576.txt	LTP250	ltpFR2	16	6	PIZZA	1079	n/a	n/a	0	0	0
1267.24	n/a	DISTRACTOR	633620	n/a	LTP250	ltpFR2	16	7	n/a	n/a	n/a	n/a	0	0	0
1267.242	n/a	START	633621	n/a	LTP250	ltpFR2	16	n/a	n/a	n/a	12	n/a	n/a	n/a	n/a
1267.258	n/a	PROB	633629	n/a	LTP250	ltpFR2	16	n/a	n/a	n/a	12	9	4	1	4
1270.326	n/a	PROB	635163	n/a	LTP250	ltpFR2	16	n/a	n/a	n/a	12	10	1	1	8
1271.862	n/a	PROB	635931	n/a	LTP250	ltpFR2	16	n/a	n/a	n/a	12	14	1	6	7
1273.58	n/a	PROB	636790	n/a	LTP250	ltpFR2	16	n/a	n/a	n/a	12	17	6	7	4
1275.482	n/a	PROB	637741	n/a	LTP250	ltpFR2	16	n/a	n/a	n/a	12	19	6	8	5
1278.198	n/a	PROB	639099	n/a	LTP250	ltpFR2	16	n/a	n/a	n/a	12	15	5	8	2
1279.752	n/a	PROB	639876	n/a	LTP250	ltpFR2	16	n/a	n/a	n/a	12	11	2	2	7
1281.486	n/a	PROB	640743	n/a	LTP250	ltpFR2	16	n/a	n/a	n/a	12	20	6	8	6
1283.588	n/a	PROB	641794	n/a	LTP250	ltpFR2	16	n/a	n/a	n/a	12	13	2	9	2
1285.84	n/a	PROB	642920	n/a	LTP250	ltpFR2	16	n/a	n/a	n/a	12	16	5	6	5
1287.49	n/a	PROB	643745	n/a	LTP250	ltpFR2	16	n/a	n/a	n/a	12	12	8	2	2
1289.058	n/a	PROB	644529	n/a	LTP250	ltpFR2	16	n/a	n/a	n/a	12	7	1	1	5
1290.87	n/a	STOP	645435	n/a	LTP250	ltpFR2	16	n/a	n/a	n/a	12	n/a	n/a	n/a	n/a
1292.446	n/a	WORD	646223	wordpools/wasnorm_wordpool_576.txt	LTP250	ltpFR2	16	7	RELISH	1183	n/a	n/a	0	0	0
1294.882	n/a	WORD	647441	wordpools/wasnorm_wordpool_576.txt	LTP250	ltpFR2	16	7	DENIM	446	n/a	n/a	0	0	0
1297.314	n/a	WORD	648657	wordpools/wasnorm_wordpool_576.txt	LTP250	ltpFR2	16	7	RUG	1215	n/a	n/a	0	0	0
1299.768	n/a	WORD	649884	wordpools/wasnorm_wordpool_576.txt	LTP250	ltpFR2	16	7	BATHTUB	100	n/a	n/a	0	0	0
1302.536	n/a	WORD	651268	wordpools/wasnorm_wordpool_576.txt	LTP250	ltpFR2	16	7	SPONGE	1355	n/a	n/a	0	0	0
1305.222	n/a	WORD	652611	wordpools/wasnorm_wordpool_576.txt	LTP250	ltpFR2	16	7	MOTEL	919	n/a	n/a	0	0	0
1307.674	n/a	WORD	653837	wordpools/wasnorm_wordpool_576.txt	LTP250	ltpFR2	16	7	STAKE	1368	n/a	n/a	0	0	0
1310.494	n/a	WORD	655247	wordpools/wasnorm_wordpool_576.txt	LTP250	ltpFR2	16	7	YOLK	1633	n/a	n/a	0	0	0
1313.078	n/a	WORD	656539	wordpools/wasnorm_wordpool_576.txt	LTP250	ltpFR2	16	7	LODGE	839	n/a	n/a	0	0	0
1315.896	n/a	WORD	657948	wordpools/wasnorm_wordpool_576.txt	LTP250	ltpFR2	16	7	TEACHER	1440	n/a	n/a	0	0	0
1318.382	n/a	WORD	659191	wordpools/wasnorm_wordpool_576.txt	LTP250	ltpFR2	16	7	TART	1436	n/a	n/a	0	0	0
1321.15	n/a	WORD	660575	wordpools/wasnorm_wordpool_576.txt	LTP250	ltpFR2	16	7	ROOSTER	1209	n/a	n/a	0	0	0
1323.686	n/a	WORD	661843	wordpools/wasnorm_wordpool_576.txt	LTP250	ltpFR2	16	7	TABLE	1426	n/a	n/a	0	0	0
1326.172	n/a	WORD	663086	wordpools/wasnorm_wordpool_576.txt	LTP250	ltpFR2	16	7	FLOWER	584	n/a	n/a	0	0	0
1328.69	n/a	WORD	664345	wordpools/wasnorm_wordpool_576.txt	LTP250	ltpFR2	16	7	MATCH	878	n/a	n/a	0	0	0
1331.41	n/a	WORD	665705	wordpools/wasnorm_wordpool_576.txt	LTP250	ltpFR2	16	7	WARDROBE	1587	n/a	n/a	0	0	0
1333.93	n/a	WORD	666965	wordpools/wasnorm_wordpool_576.txt	LTP250	ltpFR2	16	7	NAPKIN	937	n/a	n/a	0	0	0
1336.5	n/a	WORD	668250	wordpools/wasnorm_wordpool_576.txt	LTP250	ltpFR2	16	7	REPORT	1184	n/a	n/a	0	0	0
1339.148	n/a	WORD	669574	wordpools/wasnorm_wordpool_576.txt	LTP250	ltpFR2	16	7	BLENDER	136	n/a	n/a	0	0	0
1341.75	n/a	WORD	670875	wordpools/wasnorm_wordpool_576.txt	LTP250	ltpFR2	16	7	SADDLE	1221	n/a	n/a	0	0	0
1344.284	n/a	WORD	672142	wordpools/wasnorm_wordpool_576.txt	LTP250	ltpFR2	16	7	CURTAIN	427	n/a	n/a	0	0	0
1346.954	n/a	WORD	673477	wordpools/wasnorm_wordpool_576.txt	LTP250	ltpFR2	16	7	GARDEN	623	n/a	n/a	0	0	0
1349.59	n/a	WORD	674795	wordpools/wasnorm_wordpool_576.txt	LTP250	ltpFR2	16	7	WINDOW	1611	n/a	n/a	0	0	0
1352.308	n/a	WORD	676154	wordpools/wasnorm_wordpool_576.txt	LTP250	ltpFR2	16	7	CELLAR	267	n/a	n/a	0	0	0
1353.914	n/a	START	676957	n/a	LTP250	ltpFR2	16	n/a	n/a	n/a	13	n/a	n/a	n/a	n/a
1354.902	n/a	DISTRACTOR	677451	n/a	LTP250	ltpFR2	16	7	n/a	n/a	n/a	n/a	0	0	0
1354.91	n/a	PROB	677455	n/a	LTP250	ltpFR2	16	n/a	n/a	n/a	13	13	3	7	7
1357.278	n/a	PROB	678639	n/a	LTP250	ltpFR2	16	n/a	n/a	n/a	13	16	4	7	5
1360.298	n/a	PROB	680149	n/a	LTP250	ltpFR2	16	n/a	n/a	n/a	13	9	6	2	1
1361.866	n/a	PROB	680933	n/a	LTP250	ltpFR2	16	n/a	n/a	n/a	13	13	7	4	2
1364.834	n/a	PROB	682417	n/a	LTP250	ltpFR2	16	n/a	n/a	n/a	13	20	6	5	9
1367.502	n/a	PROB	683751	n/a	LTP250	ltpFR2	16	n/a	n/a	n/a	13	16	8	6	2
1368.836	n/a	PROB	684418	n/a	LTP250	ltpFR2	16	n/a	n/a	n/a	13	12	3	5	4
1371.272	n/a	PROB	685636	n/a	LTP250	ltpFR2	16	n/a	n/a	n/a	13	13	8	3	2
1372.808	n/a	PROB	686404	n/a	LTP250	ltpFR2	16	n/a	n/a	n/a	13	14	3	4	7
1377.914	n/a	STOP	688957	n/a	LTP250	ltpFR2	16	n/a	n/a	n/a	13	n/a	n/a	n/a	n/a
1379.816	n/a	REC_START	689908	n/a	LTP250	ltpFR2	16	7	n/a	n/a	n/a	n/a	0	0	0
1381.268	n/a	REC_WORD	690634	wordpools/wasnorm_wordpool_576.txt	LTP250	ltpFR2	16	7	BLENDER	136	n/a	n/a	0	0	0
1382.392	n/a	REC_WORD_VV	691196	wordpools/wasnorm_wordpool_576.txt	LTP250	ltpFR2	16	7	<>	-1	n/a	n/a	0	0	0
1383.542	n/a	REC_WORD	691771	wordpools/wasnorm_wordpool_576.txt	LTP250	ltpFR2	16	7	ROOSTER	1209	n/a	n/a	0	0	0
1384.234	n/a	REC_WORD	692117	wordpools/wasnorm_wordpool_576.txt	LTP250	ltpFR2	16	7	YOLK	1633	n/a	n/a	0	0	0
1384.822	n/a	REC_WORD	692411	wordpools/wasnorm_wordpool_576.txt	LTP250	ltpFR2	16	7	TART	1436	n/a	n/a	0	0	0
1387.268	n/a	REC_WORD	693634	wordpools/wasnorm_wordpool_576.txt	LTP250	ltpFR2	16	7	OMELET	976	n/a	n/a	0	0	0
1470.244	n/a	WORD	735122	wordpools/wasnorm_wordpool_576.txt	LTP250	ltpFR2	16	8	BUREAU	199	n/a	n/a	0	0	0
1472.914	n/a	WORD	736457	wordpools/wasnorm_wordpool_576.txt	LTP250	ltpFR2	16	8	DUST	508	n/a	n/a	0	0	0
1475.45	n/a	WORD	737725	wordpools/wasnorm_wordpool_576.txt	LTP250	ltpFR2	16	8	LAVA	804	n/a	n/a	0	0	0
1478.252	n/a	WORD	739126	wordpools/wasnorm_wordpool_576.txt	LTP250	ltpFR2	16	8	HARP	689	n/a	n/a	0	0	0
1480.972	n/a	WORD	740486	wordpools/wasnorm_wordpool_576.txt	LTP250	ltpFR2	16	8	BRIEFCASE	175	n/a	n/a	0	0	0
1483.608	n/a	WORD	741804	wordpools/wasnorm_wordpool_576.txt	LTP250	ltpFR2	16	8	DRIVER	499	n/a	n/a	0	0	0
1486.142	n/a	WORD	743071	wordpools/wasnorm_wordpool_576.txt	LTP250	ltpFR2	16	8	LOVER	846	n/a	n/a	0	0	0
1488.862	n/a	WORD	744431	wordpools/wasnorm_wordpool_576.txt	LTP250	ltpFR2	16	8	FEMALE	559	n/a	n/a	0	0	0
1491.314	n/a	WORD	745657	wordpools/wasnorm_wordpool_576.txt	LTP250	ltpFR2	16	8	BANK	83	n/a	n/a	0	0	0
1494.032	n/a	WORD	747016	wordpools/wasnorm_wordpool_576.txt	LTP250	ltpFR2	16	8	CASHIER	254	n/a	n/a	0	0	0
1496.602	n/a	WORD	748301	wordpools/wasnorm_wordpool_576.txt	LTP250	ltpFR2	16	8	HUMAN	726	n/a	n/a	0	0	0
1499.054	n/a	WORD	749527	wordpools/wasnorm_wordpool_576.txt	LTP250	ltpFR2	16	8	PRIMATE	1123	n/a	n/a	0	0	0
1501.74	n/a	WORD	750870	wordpools/wasnorm_wordpool_576.txt	LTP250	ltpFR2	16	8	OFFICE	972	n/a	n/a	0	0	0
1504.544	n/a	WORD	752272	wordpools/wasnorm_wordpool_576.txt	LTP250	ltpFR2	16	8	TAXI	1438	n/a	n/a	0	0	0
1507.012	n/a	WORD	753506	wordpools/wasnorm_wordpool_576.txt	LTP250	ltpFR2	16	8	CREATURE	403	n/a	n/a	0	0	0
1509.764	n/a	WORD	754882	wordpools/wasnorm_wordpool_576.txt	LTP250	ltpFR2	16	8	YACHT	1629	n/a	n/a	0	0	0
1512.532	n/a	WORD	756266	wordpools/wasnorm_wordpool_576.txt	LTP250	ltpFR2	16	8	PARTNER	1017	n/a	n/a	0	0	0
1515.084	n/a	WORD	757542	wordpools/wasnorm_wordpool_576.txt	LTP250	ltpFR2	16	8	DIVER	476	n/a	n/a	0	0	0
1517.72	n/a	WORD	758860	wordpools/wasnorm_wordpool_576.txt	LTP250	ltpFR2	16	8	NURSE	963	n/a	n/a	0	0	0
1520.506	n/a	WORD	760253	wordpools/wasnorm_wordpool_576.txt	LTP250	ltpFR2	16	8	CAMEL	223	n/a	n/a	0	0	0
1523.14	n/a	WORD	761570	wordpools/wasnorm_wordpool_576.txt	LTP250	ltpFR2	16	8	CRICKET	408	n/a	n/a	0	0	0
1525.694	n/a	WORD	762847	wordpools/wasnorm_wordpool_576.txt	LTP250	ltpFR2	16	8	SPHINX	1349	n/a	n/a	0	0	0
1528.262	n/a	WORD	764131	wordpools/wasnorm_wordpool_576.txt	LTP250	ltpFR2	16	8	STONE	1385	n/a	n/a	0	0	0
1530.98	n/a	WORD	765490	wordpools/wasnorm_wordpool_576.txt	LTP250	ltpFR2	16	8	PRINCESS	1125	n/a	n/a	0	0	0
1532.602	n/a	START	766301	n/a	LTP250	ltpFR2	16	n/a	n/a	n/a	14	n/a	n/a	n/a	n/a
1533.738	n/a	DISTRACTOR	766869	n/a	LTP250	ltpFR2	16	8	n/a	n/a	n/a	n/a	0	0	0
1533.75	n/a	PROB	766875	n/a	LTP250	ltpFR2	16	n/a	n/a	n/a	14	16	2	8	6
1536.018	n/a	PROB	768009	n/a	LTP250	ltpFR2	16	n/a	n/a	n/a	14	18	9	6	3
1538.27	n/a	PROB	769135	n/a	LTP250	ltpFR2	16	n/a	n/a	n/a	14	20	5	6	9
1540.42	n/a	PROB	770210	n/a	LTP250	ltpFR2	16	n/a	n/a	n/a	14	15	7	5	3
1542.556	n/a	PROB	771278	n/a	LTP250	ltpFR2	16	n/a	n/a	n/a	14	11	4	2	2
1544.642	n/a	PROB	772321	n/a	LTP250	ltpFR2	16	n/a	n/a	n/a	14	20	4	8	7
1547.26	n/a	PROB	773630	n/a	LTP250	ltpFR2	16	n/a	n/a	n/a	14	14	3	2	9
1551.062	n/a	PROB	775531	n/a	LTP250	ltpFR2	16	n/a	n/a	n/a	14	15	7	3	5
1552.532	n/a	PROB	776266	n/a	LTP250	ltpFR2	16	n/a	n/a	n/a	14	17	2	7	8
1554.034	n/a	PROB	777017	n/a	LTP250	ltpFR2	16	n/a	n/a	n/a	14	11	3	6	2
1556.152	n/a	STOP	778076	n/a	LTP250	ltpFR2	16	n/a	n/a	n/a	14	n/a	n/a	n/a	n/a
1558.452	n/a	REC_START	779226	n/a	LTP250	ltpFR2	16	8	n/a	n/a	n/a	n/a	0	0	0
1564.19	n/a	REC_WORD	782095	wordpools/wasnorm_wordpool_576.txt	LTP250	ltpFR2	16	8	DRIVER	499	n/a	n/a	0	0	0
1564.938	n/a	REC_WORD	782469	wordpools/wasnorm_wordpool_576.txt	LTP250	ltpFR2	16	8	TAXI	1438	n/a	n/a	0	0	0
1566.074	n/a	REC_WORD	783037	wordpools/wasnorm_wordpool_576.txt	LTP250	ltpFR2	16	8	DUST	508	n/a	n/a	0	0	0
1566.984	n/a	REC_WORD	783492	wordpools/wasnorm_wordpool_576.txt	LTP250	ltpFR2	16	8	PRIMATE	1123	n/a	n/a	0	0	0
1570.814	n/a	REC_WORD	785407	wordpools/wasnorm_wordpool_576.txt	LTP250	ltpFR2	16	8	MONKEY	911	n/a	n/a	0	0	0
1577.88	n/a	REC_WORD	788940	wordpools/wasnorm_wordpool_576.txt	LTP250	ltpFR2	16	8	NEIGHBOR	-1	n/a	n/a	0	0	0
1580.41	n/a	REC_WORD	790205	wordpools/wasnorm_wordpool_576.txt	LTP250	ltpFR2	16	8	BUREAU	199	n/a	n/a	0	0	0
1583.042	n/a	REC_WORD	791521	wordpools/wasnorm_wordpool_576.txt	LTP250	ltpFR2	16	8	BRIEFCASE	175	n/a	n/a	0	0	0
1584.302	n/a	REC_WORD	792151	wordpools/wasnorm_wordpool_576.txt	LTP250	ltpFR2	16	8	LOVER	846	n/a	n/a	0	0	0
1585.068	n/a	REC_WORD	792534	wordpools/wasnorm_wordpool_576.txt	LTP250	ltpFR2	16	8	GIRL	637	n/a	n/a	0	0	0
1586.232	n/a	REC_WORD	793116	wordpools/wasnorm_wordpool_576.txt	LTP250	ltpFR2	16	8	BANK	83	n/a	n/a	0	0	0
1634.978	n/a	REST_REWET	817489	n/a	LTP250	ltpFR2	16	8	n/a	n/a	n/a	n/a	0	0	0
1918.452	n/a	DISTRACTOR	959226	n/a	LTP250	ltpFR2	16	9	n/a	n/a	n/a	n/a	0	0	0
1918.452	n/a	START	959226	n/a	LTP250	ltpFR2	16	n/a	n/a	n/a	15	n/a	n/a	n/a	n/a
1918.466	n/a	PROB	959233	n/a	LTP250	ltpFR2	16	n/a	n/a	n/a	15	15	4	6	5
1920.786	n/a	PROB	960393	n/a	LTP250	ltpFR2	16	n/a	n/a	n/a	15	17	5	3	9
1923.67	n/a	PROB	961835	n/a	LTP250	ltpFR2	16	n/a	n/a	n/a	15	12	3	7	2
1925.322	n/a	PROB	962661	n/a	LTP250	ltpFR2	16	n/a	n/a	n/a	15	16	5	9	2
1927.356	n/a	PROB	963678	n/a	LTP250	ltpFR2	16	n/a	n/a	n/a	15	15	3	6	6
1929.476	n/a	PROB	964738	n/a	LTP250	ltpFR2	16	n/a	n/a	n/a	15	17	2	6	5
1936.782	n/a	PROB	968391	n/a	LTP250	ltpFR2	16	n/a	n/a	n/a	15	5	2	2	1
1938.916	n/a	PROB	969458	n/a	LTP250	ltpFR2	16	n/a	n/a	n/a	15	20	6	9	5
1941.168	n/a	STOP	970584	n/a	LTP250	ltpFR2	16	n/a	n/a	n/a	15	n/a	n/a	n/a	n/a
1943.516	n/a	WORD	971758	wordpools/wasnorm_wordpool_576.txt	LTP250	ltpFR2	16	9	LIGHTNING	820	n/a	n/a	0	0	0
1946.084	n/a	WORD	973042	wordpools/wasnorm_wordpool_576.txt	LTP250	ltpFR2	16	9	CLOUD	328	n/a	n/a	0	0	0
1948.62	n/a	WORD	974310	wordpools/wasnorm_wordpool_576.txt	LTP250	ltpFR2	16	9	STREAM	1392	n/a	n/a	0	0	0
1951.088	n/a	WORD	975544	wordpools/wasnorm_wordpool_576.txt	LTP250	ltpFR2	16	9	WAGON	1578	n/a	n/a	0	0	0
1953.692	n/a	WORD	976846	wordpools/wasnorm_wordpool_576.txt	LTP250	ltpFR2	16	9	SEAGULL	1261	n/a	n/a	0	0	0
1956.494	n/a	WORD	978247	wordpools/wasnorm_wordpool_576.txt	LTP250	ltpFR2	16	9	COD	340	n/a	n/a	0	0	0
1959.144	n/a	WORD	979572	wordpools/wasnorm_wordpool_576.txt	LTP250	ltpFR2	16	9	GANGSTER	620	n/a	n/a	0	0	0
1961.898	n/a	WORD	980949	wordpools/wasnorm_wordpool_576.txt	LTP250	ltpFR2	16	9	PAIL	1002	n/a	n/a	0	0	0
1964.416	n/a	WORD	982208	wordpools/wasnorm_wordpool_576.txt	LTP250	ltpFR2	16	9	HERO	706	n/a	n/a	0	0	0
1967.038	n/a	WORD	983519	wordpools/wasnorm_wordpool_576.txt	LTP250	ltpFR2	16	9	PASTA	1021	n/a	n/a	0	0	0
1969.722	n/a	WORD	984861	wordpools/wasnorm_wordpool_576.txt	LTP250	ltpFR2	16	9	BRACES	164	n/a	n/a	0	0	0
1972.34	n/a	WORD	986170	wordpools/wasnorm_wordpool_576.txt	LTP250	ltpFR2	16	9	AGENT	10	n/a	n/a	0	0	0
1975.008	n/a	WORD	987504	wordpools/wasnorm_wordpool_576.txt	LTP250	ltpFR2	16	9	PISTOL	1075	n/a	n/a	0	0	0
1977.528	n/a	WORD	988764	wordpools/wasnorm_wordpool_576.txt	LTP250	ltpFR2	16	9	APPLE	33	n/a	n/a	0	0	0
1980.116	n/a	WORD	990058	wordpools/wasnorm_wordpool_576.txt	LTP250	ltpFR2	16	9	PEACH	1031	n/a	n/a	0	0	0
1982.666	n/a	WORD	991333	wordpools/wasnorm_wordpool_576.txt	LTP250	ltpFR2	16	9	NOVEL	960	n/a	n/a	0	0	0
1985.316	n/a	WORD	992658	wordpools/wasnorm_wordpool_576.txt	LTP250	ltpFR2	16	9	BOUQUET	157	n/a	n/a	0	0	0
1988.052	n/a	WORD	994026	wordpools/wasnorm_wordpool_576.txt	LTP250	ltpFR2	16	9	CABBAGE	210	n/a	n/a	0	0	0
1990.688	n/a	WORD	995344	wordpools/wasnorm_wordpool_576.txt	LTP250	ltpFR2	16	9	SUNSET	1408	n/a	n/a	0	0	0
1993.508	n/a	WORD	996754	wordpools/wasnorm_wordpool_576.txt	LTP250	ltpFR2	16	9	FLASHLIGHT	575	n/a	n/a	0	0	0
1996.11	n/a	WORD	998055	wordpools/wasnorm_wordpool_576.txt	LTP250	ltpFR2	16	9	NOTEBOOK	959	n/a	n/a	0	0	0
1998.846	n/a	WORD	999423	wordpools/wasnorm_wordpool_576.txt	LTP250	ltpFR2	16	9	FOX	598	n/a	n/a	0	0	0
2001.598	n/a	WORD	1000799	wordpools/wasnorm_wordpool_576.txt	LTP250	ltpFR2	16	9	JELLO	754	n/a	n/a	0	0	0
2004.184	n/a	WORD	1002092	wordpools/wasnorm_wordpool_576.txt	LTP250	ltpFR2	16	9	COMPASS	358	n/a	n/a	0	0	0
2005.802	n/a	START	1002901	n/a	LTP250	ltpFR2	16	n/a	n/a	n/a	16	n/a	n/a	n/a	n/a
2006.664	n/a	DISTRACTOR	1003332	n/a	LTP250	ltpFR2	16	9	n/a	n/a	n/a	n/a	0	0	0
2006.67	n/a	PROB	1003335	n/a	LTP250	ltpFR2	16	n/a	n/a	n/a	16	15	2	5	8
2008.286	n/a	PROB	1004143	n/a	LTP250	ltpFR2	16	n/a	n/a	n/a	16	16	8	3	5
2010.69	n/a	PROB	1005345	n/a	LTP250	ltpFR2	16	n/a	n/a	n/a	16	19	7	5	7
2012.64	n/a	PROB	1006320	n/a	LTP250	ltpFR2	16	n/a	n/a	n/a	16	19	8	7	4
2015.742	n/a	PROB	1007871	n/a	LTP250	ltpFR2	16	n/a	n/a	n/a	16	18	9	2	7
2018.36	n/a	PROB	1009180	n/a	LTP250	ltpFR2	16	n/a	n/a	n/a	16	13	7	2	4
2022.582	n/a	PROB	1011291	n/a	LTP250	ltpFR2	16	n/a	n/a	n/a	16	11	1	3	7
2024.314	n/a	PROB	1012157	n/a	LTP250	ltpFR2	16	n/a	n/a	n/a	16	15	3	6	6
2027.386	n/a	PROB	1013693	n/a	LTP250	ltpFR2	16	n/a	n/a	n/a	16	9	6	2	1
2028.914	n/a	STOP	1014457	n/a	LTP250	ltpFR2	16	n/a	n/a	n/a	16	n/a	n/a	n/a	n/a
2031.656	n/a	REC_START	1015828	n/a	LTP250	ltpFR2	16	9	n/a	n/a	n/a	n/a	0	0	0
2032.324	n/a	REC_WORD	1016162	wordpools/wasnorm_wordpool_576.txt	LTP250	ltpFR2	16	9	SUNSET	1408	n/a	n/a	0	0	0
2033.352	n/a	REC_WORD	1016676	wordpools/wasnorm_wordpool_576.txt	LTP250	ltpFR2	16	9	FLASHLIGHT	575	n/a	n/a	0	0	0
2037.338	n/a	REC_WORD	1018669	wordpools/wasnorm_wordpool_576.txt	LTP250	ltpFR2	16	9	BOOK	149	n/a	n/a	0	0	0
2122.076	n/a	DISTRACTOR	1061038	n/a	LTP250	ltpFR2	16	10	n/a	n/a	n/a	n/a	0	0	0
2122.076	n/a	START	1061038	n/a	LTP250	ltpFR2	16	n/a	n/a	n/a	17	n/a	n/a	n/a	n/a
2122.09	n/a	PROB	1061045	n/a	LTP250	ltpFR2	16	n/a	n/a	n/a	17	16	5	9	2
2127.946	n/a	PROB	1063973	n/a	LTP250	ltpFR2	16	n/a	n/a	n/a	17	19	7	9	3
2130.214	n/a	PROB	1065107	n/a	LTP250	ltpFR2	16	n/a	n/a	n/a	17	17	7	8	2
2132.816	n/a	PROB	1066408	n/a	LTP250	ltpFR2	16	n/a	n/a	n/a	17	17	3	5	9
2135.952	n/a	PROB	1067976	n/a	LTP250	ltpFR2	16	n/a	n/a	n/a	17	18	2	8	8
2137.422	n/a	PROB	1068711	n/a	LTP250	ltpFR2	16	n/a	n/a	n/a	17	8	4	3	1
2139.356	n/a	PROB	1069678	n/a	LTP250	ltpFR2	16	n/a	n/a	n/a	17	7	2	2	3
2142.974	n/a	PROB	1071487	n/a	LTP250	ltpFR2	16	n/a	n/a	n/a	17	14	2	7	5
2145.932	n/a	STOP	1072966	n/a	LTP250	ltpFR2	16	n/a	n/a	n/a	17	n/a	n/a	n/a	n/a
2147.28	n/a	WORD	1073640	wordpools/wasnorm_wordpool_576.txt	LTP250	ltpFR2	16	10	FILM	565	n/a	n/a	0	0	0
2150.098	n/a	WORD	1075049	wordpools/wasnorm_wordpool_576.txt	LTP250	ltpFR2	16	10	ACTRESS	6	n/a	n/a	0	0	0
2152.852	n/a	WORD	1076426	wordpools/wasnorm_wordpool_576.txt	LTP250	ltpFR2	16	10	POISON	1096	n/a	n/a	0	0	0
2155.362	n/a	WORD	1077681	wordpools/wasnorm_wordpool_576.txt	LTP250	ltpFR2	16	10	COUSIN	392	n/a	n/a	0	0	0
2158.136	n/a	WORD	1079068	wordpools/wasnorm_wordpool_576.txt	LTP250	ltpFR2	16	10	INMATE	738	n/a	n/a	0	0	0
2160.816	n/a	WORD	1080408	wordpools/wasnorm_wordpool_576.txt	LTP250	ltpFR2	16	10	TRUCK	1512	n/a	n/a	0	0	0
2163.342	n/a	WORD	1081671	wordpools/wasnorm_wordpool_576.txt	LTP250	ltpFR2	16	10	PORTRAIT	1111	n/a	n/a	0	0	0
2166.086	n/a	WORD	1083043	wordpools/wasnorm_wordpool_576.txt	LTP250	ltpFR2	16	10	ELBOW	520	n/a	n/a	0	0	0
2168.656	n/a	WORD	1084328	wordpools/wasnorm_wordpool_576.txt	LTP250	ltpFR2	16	10	THRONE	1461	n/a	n/a	0	0	0
2171.324	n/a	WORD	1085662	wordpools/wasnorm_wordpool_576.txt	LTP250	ltpFR2	16	10	CONVICT	371	n/a	n/a	0	0	0
2174.01	n/a	WORD	1087005	wordpools/wasnorm_wordpool_576.txt	LTP250	ltpFR2	16	10	DRAGON	492	n/a	n/a	0	0	0
2176.58	n/a	WORD	1088290	wordpools/wasnorm_wordpool_576.txt	LTP250	ltpFR2	16	10	DASHBOARD	441	n/a	n/a	0	0	0
2179.232	n/a	WORD	1089616	wordpools/wasnorm_wordpool_576.txt	LTP250	ltpFR2	16	10	CROWN	415	n/a	n/a	0	0	0
2181.718	n/a	WORD	1090859	wordpools/wasnorm_wordpool_576.txt	LTP250	ltpFR2	16	10	GALLON	618	n/a	n/a	0	0	0
2184.492	n/a	WORD	1092246	wordpools/wasnorm_wordpool_576.txt	LTP250	ltpFR2	16	10	MILK	895	n/a	n/a	0	0	0
2187.088	n/a	WORD	1093544	wordpools/wasnorm_wordpool_576.txt	LTP250	ltpFR2	16	10	GRAVE	658	n/a	n/a	0	0	0
2189.714	n/a	WORD	1094857	wordpools/wasnorm_wordpool_576.txt	LTP250	ltpFR2	16	10	BROTHER	179	n/a	n/a	0	0	0
2192.232	n/a	WORD	1096116	wordpools/wasnorm_wordpool_576.txt	LTP250	ltpFR2	16	10	CONTRACT	368	n/a	n/a	0	0	0
2194.83	n/a	WORD	1097415	wordpools/wasnorm_wordpool_576.txt	LTP250	ltpFR2	16	10	SUNRISE	1407	n/a	n/a	0	0	0
2197.268	n/a	WORD	1098634	wordpools/wasnorm_wordpool_576.txt	LTP250	ltpFR2	16	10	DONOR	485	n/a	n/a	0	0	0
2199.9	n/a	WORD	1099950	wordpools/wasnorm_wordpool_576.txt	LTP250	ltpFR2	16	10	COMET	353	n/a	n/a	0	0	0
2202.486	n/a	WORD	1101243	wordpools/wasnorm_wordpool_576.txt	LTP250	ltpFR2	16	10	JURY	766	n/a	n/a	0	0	0
2205.052	n/a	WORD	1102526	wordpools/wasnorm_wordpool_576.txt	LTP250	ltpFR2	16	10	LOFT	840	n/a	n/a	0	0	0
2207.658	n/a	WORD	1103829	wordpools/wasnorm_wordpool_576.txt	LTP250	ltpFR2	16	10	PEDAL	1037	n/a	n/a	0	0	0
2209.274	n/a	START	1104637	n/a	LTP250	ltpFR2	16	n/a	n/a	n/a	18	n/a	n/a	n/a	n/a
2210.112	n/a	DISTRACTOR	1105056	n/a	LTP250	ltpFR2	16	10	n/a	n/a	n/a	n/a	0	0	0
2210.124	n/a	PROB	1105062	n/a	LTP250	ltpFR2	16	n/a	n/a	n/a	18	12	3	8	1
2211.876	n/a	PROB	1105938	n/a	LTP250	ltpFR2	16	n/a	n/a	n/a	18	14	2	4	8
2213.546	n/a	PROB	1106773	n/a	LTP250	ltpFR2	16	n/a	n/a	n/a	18	15	3	7	5
2215.078	n/a	PROB	1107539	n/a	LTP250	ltpFR2	16	n/a	n/a	n/a	18	23	8	9	7
2217.28	n/a	PROB	1108640	n/a	LTP250	ltpFR2	16	n/a	n/a	n/a	18	18	3	9	6
2219.736	n/a	PROB	1109868	n/a	LTP250	ltpFR2	16	n/a	n/a	n/a	18	14	2	6	6
2221.636	n/a	PROB	1110818	n/a	LTP250	ltpFR2	16	n/a	n/a	n/a	18	19	8	5	6
2223.62	n/a	PROB	1111810	n/a	LTP250	ltpFR2	16	n/a	n/a	n/a	18	13	3	5	5
2224.92	n/a	PROB	1112460	n/a	LTP250	ltpFR2	16	n/a	n/a	n/a	18	22	9	6	7
2227.322	n/a	PROB	1113661	n/a	LTP250	ltpFR2	16	n/a	n/a	n/a	18	22	7	7	8
2230.21	n/a	PROB	1115105	n/a	LTP250	ltpFR2	16	n/a	n/a	n/a	18	17	9	4	4
2233.166	n/a	STOP	1116583	n/a	LTP250	ltpFR2	16	n/a	n/a	n/a	18	n/a	n/a	n/a	n/a
2235.098	n/a	REC_START	1117549	n/a	LTP250	ltpFR2	16	10	n/a	n/a	n/a	n/a	0	0	0
2236.552	n/a	REC_WORD	1118276	wordpools/wasnorm_wordpool_576.txt	LTP250	ltpFR2	16	10	LOFT	840	n/a	n/a	0	0	0
2237.658	n/a	REC_WORD	1118829	wordpools/wasnorm_wordpool_576.txt	LTP250	ltpFR2	16	10	PEDAL	1037	n/a	n/a	0	0	0
2241.174	n/a	REC_WORD	1120587	wordpools/wasnorm_wordpool_576.txt	LTP250	ltpFR2	16	10	SUNSET	1408	n/a	n/a	0	0	0
2243.284	n/a	REC_WORD	1121642	wordpools/wasnorm_wordpool_576.txt	LTP250	ltpFR2	16	10	BUNGALOW	-1	n/a	n/a	0	0	0
2325.534	n/a	WORD	1162767	wordpools/wasnorm_wordpool_576.txt	LTP250	ltpFR2	16	11	INFANT	737	n/a	n/a	0	0	0
2328.076	n/a	WORD	1164038	wordpools/wasnorm_wordpool_576.txt	LTP250	ltpFR2	16	11	SALAD	1224	n/a	n/a	0	0	0
2330.506	n/a	WORD	1165253	wordpools/wasnorm_wordpool_576.txt	LTP250	ltpFR2	16	11	FIREMAN	569	n/a	n/a	0	0	0
2333.28	n/a	WORD	1166640	wordpools/wasnorm_wordpool_576.txt	LTP250	ltpFR2	16	11	MARINE	869	n/a	n/a	0	0	0
2335.998	n/a	WORD	1167999	wordpools/wasnorm_wordpool_576.txt	LTP250	ltpFR2	16	11	OUTLAW	989	n/a	n/a	0	0	0
2338.634	n/a	WORD	1169317	wordpools/wasnorm_wordpool_576.txt	LTP250	ltpFR2	16	11	BURGLAR	200	n/a	n/a	0	0	0
2341.096	n/a	WORD	1170548	wordpools/wasnorm_wordpool_576.txt	LTP250	ltpFR2	16	11	LAGOON	795	n/a	n/a	0	0	0
2343.866	n/a	WORD	1171933	wordpools/wasnorm_wordpool_576.txt	LTP250	ltpFR2	16	11	BALLOON	75	n/a	n/a	0	0	0
2346.384	n/a	WORD	1173192	wordpools/wasnorm_wordpool_576.txt	LTP250	ltpFR2	16	11	PIGEON	1065	n/a	n/a	0	0	0
2349.002	n/a	WORD	1174501	wordpools/wasnorm_wordpool_576.txt	LTP250	ltpFR2	16	11	SMOG	1330	n/a	n/a	0	0	0
2351.656	n/a	WORD	1175828	wordpools/wasnorm_wordpool_576.txt	LTP250	ltpFR2	16	11	BELLY	119	n/a	n/a	0	0	0
2354.39	n/a	WORD	1177195	wordpools/wasnorm_wordpool_576.txt	LTP250	ltpFR2	16	11	ULCER	1533	n/a	n/a	0	0	0
2357.076	n/a	WORD	1178538	wordpools/wasnorm_wordpool_576.txt	LTP250	ltpFR2	16	11	ITEM	746	n/a	n/a	0	0	0
2359.654	n/a	WORD	1179827	wordpools/wasnorm_wordpool_576.txt	LTP250	ltpFR2	16	11	CRITIC	410	n/a	n/a	0	0	0
2362.154	n/a	WORD	1181077	wordpools/wasnorm_wordpool_576.txt	LTP250	ltpFR2	16	11	PADDLE	1000	n/a	n/a	0	0	0
2364.866	n/a	WORD	1182433	wordpools/wasnorm_wordpool_576.txt	LTP250	ltpFR2	16	11	WAITER	1580	n/a	n/a	0	0	0
2367.426	n/a	WORD	1183713	wordpools/wasnorm_wordpool_576.txt	LTP250	ltpFR2	16	11	CIGAR	308	n/a	n/a	0	0	0
2369.936	n/a	WORD	1184968	wordpools/wasnorm_wordpool_576.txt	LTP250	ltpFR2	16	11	RAFT	1159	n/a	n/a	0	0	0
2372.656	n/a	WORD	1186328	wordpools/wasnorm_wordpool_576.txt	LTP250	ltpFR2	16	11	SWITCH	1422	n/a	n/a	0	0	0
2375.182	n/a	WORD	1187591	wordpools/wasnorm_wordpool_576.txt	LTP250	ltpFR2	16	11	TUNNEL	1519	n/a	n/a	0	0	0
2377.618	n/a	WORD	1188809	wordpools/wasnorm_wordpool_576.txt	LTP250	ltpFR2	16	11	TRENCH	1503	n/a	n/a	0	0	0
2380.178	n/a	WORD	1190089	wordpools/wasnorm_wordpool_576.txt	LTP250	ltpFR2	16	11	PUDDLE	1140	n/a	n/a	0	0	0
2382.738	n/a	WORD	1191369	wordpools/wasnorm_wordpool_576.txt	LTP250	ltpFR2	16	11	COSTUME	383	n/a	n/a	0	0	0
2385.498	n/a	WORD	1192749	wordpools/wasnorm_wordpool_576.txt	LTP250	ltpFR2	16	11	MISTER	901	n/a	n/a	0	0	0
2387.11	n/a	START	1193555	n/a	LTP250	ltpFR2	16	n/a	n/a	n/a	19	n/a	n/a	n/a	n/a
2388.052	n/a	DISTRACTOR	1194026	n/a	LTP250	ltpFR2	16	11	n/a	n/a	n/a	n/a	0	0	0
2388.06	n/a	PROB	1194030	n/a	LTP250	ltpFR2	16	n/a	n/a	n/a	19	13	6	1	6
2389.836	n/a	PROB	1194918	n/a	LTP250	ltpFR2	16	n/a	n/a	n/a	19	18	9	8	1
2392.952	n/a	PROB	1196476	n/a	LTP250	ltpFR2	16	n/a	n/a	n/a	19	23	9	9	5
2397.356	n/a	PROB	1198678	n/a	LTP250	ltpFR2	16	n/a	n/a	n/a	19	11	3	5	3
2400.076	n/a	PROB	1200038	n/a	LTP250	ltpFR2	16	n/a	n/a	n/a	19	12	2	2	8
2401.36	n/a	PROB	1200680	n/a	LTP250	ltpFR2	16	n/a	n/a	n/a	19	20	7	7	6
2403.262	n/a	PROB	1201631	n/a	LTP250	ltpFR2	16	n/a	n/a	n/a	19	25	8	9	8
2406.732	n/a	PROB	1203366	n/a	LTP250	ltpFR2	16	n/a	n/a	n/a	19	17	4	8	5
2411.11	n/a	STOP	1205555	n/a	LTP250	ltpFR2	16	n/a	n/a	n/a	19	n/a	n/a	n/a	n/a
2412.904	n/a	REC_START	1206452	n/a	LTP250	ltpFR2	16	11	n/a	n/a	n/a	n/a	0	0	0
2414.506	n/a	REC_WORD	1207253	wordpools/wasnorm_wordpool_576.txt	LTP250	ltpFR2	16	11	PADDLE	1000	n/a	n/a	0	0	0
2419.38	n/a	REC_WORD	1209690	wordpools/wasnorm_wordpool_576.txt	LTP250	ltpFR2	16	11	WAITER	1580	n/a	n/a	0	0	0
2428.892	n/a	REC_WORD	1214446	wordpools/wasnorm_wordpool_576.txt	LTP250	ltpFR2	16	11	BALLOON	75	n/a	n/a	0	0	0
2503.372	n/a	WORD	1251686	wordpools/wasnorm_wordpool_576.txt	LTP250	ltpFR2	16	12	TURNIP	1521	n/a	n/a	0	0	0
2505.826	n/a	WORD	1252913	wordpools/wasnorm_wordpool_576.txt	LTP250	ltpFR2	16	12	HOOK	715	n/a	n/a	0	0	0
2508.278	n/a	WORD	1254139	wordpools/wasnorm_wordpool_576.txt	LTP250	ltpFR2	16	12	GUARD	667	n/a	n/a	0	0	0
2510.83	n/a	WORD	1255415	wordpools/wasnorm_wordpool_576.txt	LTP250	ltpFR2	16	12	MUSTARD	935	n/a	n/a	0	0	0
2513.632	n/a	WORD	1256816	wordpools/wasnorm_wordpool_576.txt	LTP250	ltpFR2	16	12	PICTURE	1061	n/a	n/a	0	0	0
2516.3	n/a	WORD	1258150	wordpools/wasnorm_wordpool_576.txt	LTP250	ltpFR2	16	12	PUPPY	1144	n/a	n/a	0	0	0
2519.086	n/a	WORD	1259543	wordpools/wasnorm_wordpool_576.txt	LTP250	ltpFR2	16	12	SURVEY	1414	n/a	n/a	0	0	0
2521.904	n/a	WORD	1260952	wordpools/wasnorm_wordpool_576.txt	LTP250	ltpFR2	16	12	PATIENT	1024	n/a	n/a	0	0	0
2524.374	n/a	WORD	1262187	wordpools/wasnorm_wordpool_576.txt	LTP250	ltpFR2	16	12	QUAIL	1147	n/a	n/a	0	0	0
2526.944	n/a	WORD	1263472	wordpools/wasnorm_wordpool_576.txt	LTP250	ltpFR2	16	12	EAGLE	512	n/a	n/a	0	0	0
2529.428	n/a	WORD	1264714	wordpools/wasnorm_wordpool_576.txt	LTP250	ltpFR2	16	12	PASSAGE	1019	n/a	n/a	0	0	0
2532.212	n/a	WORD	1266106	wordpools/wasnorm_wordpool_576.txt	LTP250	ltpFR2	16	12	JUNGLE	764	n/a	n/a	0	0	0
2534.998	n/a	WORD	1267499	wordpools/wasnorm_wordpool_576.txt	LTP250	ltpFR2	16	12	CHIPMUNK	304	n/a	n/a	0	0	0
2537.736	n/a	WORD	1268868	wordpools/wasnorm_wordpool_576.txt	LTP250	ltpFR2	16	12	ROBIN	1199	n/a	n/a	0	0	0
2540.318	n/a	WORD	1270159	wordpools/wasnorm_wordpool_576.txt	LTP250	ltpFR2	16	12	PIGMENT	1066	n/a	n/a	0	0	0
2542.954	n/a	WORD	1271477	wordpools/wasnorm_wordpool_576.txt	LTP250	ltpFR2	16	12	CANYON	235	n/a	n/a	0	0	0
2545.44	n/a	WORD	1272720	wordpools/wasnorm_wordpool_576.txt	LTP250	ltpFR2	16	12	DONKEY	484	n/a	n/a	0	0	0
2547.928	n/a	WORD	1273964	wordpools/wasnorm_wordpool_576.txt	LTP250	ltpFR2	16	12	HAND	683	n/a	n/a	0	0	0
2550.448	n/a	WORD	1275224	wordpools/wasnorm_wordpool_576.txt	LTP250	ltpFR2	16	12	BANKER	84	n/a	n/a	0	0	0
2553.128	n/a	WORD	1276564	wordpools/wasnorm_wordpool_576.txt	LTP250	ltpFR2	16	12	MARKER	870	n/a	n/a	0	0	0
2555.848	n/a	WORD	1277924	wordpools/wasnorm_wordpool_576.txt	LTP250	ltpFR2	16	12	RIFLE	1192	n/a	n/a	0	0	0
2558.572	n/a	WORD	1279286	wordpools/wasnorm_wordpool_576.txt	LTP250	ltpFR2	16	12	GLOVE	642	n/a	n/a	0	0	0
2560.99	n/a	WORD	1280495	wordpools/wasnorm_wordpool_576.txt	LTP250	ltpFR2	16	12	PAPER	1011	n/a	n/a	0	0	0
2563.776	n/a	WORD	1281888	wordpools/wasnorm_wordpool_576.txt	LTP250	ltpFR2	16	12	SUSPECT	1415	n/a	n/a	0	0	0
2565.388	n/a	START	1282694	n/a	LTP250	ltpFR2	16	n/a	n/a	n/a	20	n/a	n/a	n/a	n/a
2566.34	n/a	DISTRACTOR	1283170	n/a	LTP250	ltpFR2	16	12	n/a	n/a	n/a	n/a	0	0	0
2566.344	n/a	PROB	1283172	n/a	LTP250	ltpFR2	16	n/a	n/a	n/a	20	11	1	4	6
2568.424	n/a	PROB	1284212	n/a	LTP250	ltpFR2	16	n/a	n/a	n/a	20	6	4	1	2
2570.508	n/a	PROB	1285254	n/a	LTP250	ltpFR2	16	n/a	n/a	n/a	20	12	1	6	5
2574.294	n/a	PROB	1287147	n/a	LTP250	ltpFR2	16	n/a	n/a	n/a	20	14	1	6	7
2577.08	n/a	PROB	1288540	n/a	LTP250	ltpFR2	16	n/a	n/a	n/a	20	17	2	6	9
2579.416	n/a	PROB	1289708	n/a	LTP250	ltpFR2	16	n/a	n/a	n/a	20	18	3	7	8
2581.384	n/a	PROB	1290692	n/a	LTP250	ltpFR2	16	n/a	n/a	n/a	20	16	7	2	7
2583.552	n/a	PROB	1291776	n/a	LTP250	ltpFR2	16	n/a	n/a	n/a	20	14	2	4	8
2585.286	n/a	PROB	1292643	n/a	LTP250	ltpFR2	16	n/a	n/a	n/a	20	13	7	4	2
2588.052	n/a	STOP	1294026	n/a	LTP250	ltpFR2	16	n/a	n/a	n/a	20	n/a	n/a	n/a	n/a
2591.292	n/a	REC_START	1295646	n/a	LTP250	ltpFR2	16	12	n/a	n/a	n/a	n/a	0	0	0
2591.96	n/a	REC_WORD	1295980	wordpools/wasnorm_wordpool_576.txt	LTP250	ltpFR2	16	12	PUPPY	1144	n/a	n/a	0	0	0
2592.478	n/a	REC_WORD	1296239	wordpools/wasnorm_wordpool_576.txt	LTP250	ltpFR2	16	12	SERVANT	1271	n/a	n/a	0	0	0
2593.228	n/a	REC_WORD	1296614	wordpools/wasnorm_wordpool_576.txt	LTP250	ltpFR2	16	12	PATIENT	1024	n/a	n/a	0	0	0
2593.904	n/a	REC_WORD	1296952	wordpools/wasnorm_wordpool_576.txt	LTP250	ltpFR2	16	12	QUAIL	1147	n/a	n/a	0	0	0
2681.744	n/a	WORD	1340872	wordpools/wasnorm_wordpool_576.txt	LTP250	ltpFR2	16	13	SCISSORS	1250	n/a	n/a	0	0	0
2684.278	n/a	WORD	1342139	wordpools/wasnorm_wordpool_576.txt	LTP250	ltpFR2	16	13	COUNTRY	388	n/a	n/a	0	0	0
2686.848	n/a	WORD	1343424	wordpools/wasnorm_wordpool_576.txt	LTP250	ltpFR2	16	13	UMPIRE	1535	n/a	n/a	0	0	0
2689.482	n/a	WORD	1344741	wordpools/wasnorm_wordpool_576.txt	LTP250	ltpFR2	16	13	TOMBSTONE	1478	n/a	n/a	0	0	0
2692.184	n/a	WORD	1346092	wordpools/wasnorm_wordpool_576.txt	LTP250	ltpFR2	16	13	AIRPLANE	12	n/a	n/a	0	0	0
2694.854	n/a	WORD	1347427	wordpools/wasnorm_wordpool_576.txt	LTP250	ltpFR2	16	13	RAZOR	1171	n/a	n/a	0	0	0
2697.526	n/a	WORD	1348763	wordpools/wasnorm_wordpool_576.txt	LTP250	ltpFR2	16	13	STATUE	1374	n/a	n/a	0	0	0
2700.274	n/a	WORD	1350137	wordpools/wasnorm_wordpool_576.txt	LTP250	ltpFR2	16	13	MACHINE	852	n/a	n/a	0	0	0
2702.926	n/a	WORD	1351463	wordpools/wasnorm_wordpool_576.txt	LTP250	ltpFR2	16	13	XEROX	1628	n/a	n/a	0	0	0
2705.378	n/a	WORD	1352689	wordpools/wasnorm_wordpool_576.txt	LTP250	ltpFR2	16	13	JAPAN	749	n/a	n/a	0	0	0
2707.964	n/a	WORD	1353982	wordpools/wasnorm_wordpool_576.txt	LTP250	ltpFR2	16	13	DORM	488	n/a	n/a	0	0	0
2710.534	n/a	WORD	1355267	wordpools/wasnorm_wordpool_576.txt	LTP250	ltpFR2	16	13	PLAZA	1088	n/a	n/a	0	0	0
2713.018	n/a	WORD	1356509	wordpools/wasnorm_wordpool_576.txt	LTP250	ltpFR2	16	13	MARKET	871	n/a	n/a	0	0	0
2715.688	n/a	WORD	1357844	wordpools/wasnorm_wordpool_576.txt	LTP250	ltpFR2	16	13	THIEF	1456	n/a	n/a	0	0	0
2718.322	n/a	WORD	1359161	wordpools/wasnorm_wordpool_576.txt	LTP250	ltpFR2	16	13	DENTIST	447	n/a	n/a	0	0	0
2720.876	n/a	WORD	1360438	wordpools/wasnorm_wordpool_576.txt	LTP250	ltpFR2	16	13	SCALPEL	1243	n/a	n/a	0	0	0
2723.662	n/a	WORD	1361831	wordpools/wasnorm_wordpool_576.txt	LTP250	ltpFR2	16	13	VICTIM	1562	n/a	n/a	0	0	0
2726.33	n/a	WORD	1363165	wordpools/wasnorm_wordpool_576.txt	LTP250	ltpFR2	16	13	MUFFIN	929	n/a	n/a	0	0	0
2728.966	n/a	WORD	1364483	wordpools/wasnorm_wordpool_576.txt	LTP250	ltpFR2	16	13	ZEBRA	1635	n/a	n/a	0	0	0
2731.568	n/a	WORD	1365784	wordpools/wasnorm_wordpool_576.txt	LTP250	ltpFR2	16	13	BROOK	177	n/a	n/a	0	0	0
2734.136	n/a	WORD	1367068	wordpools/wasnorm_wordpool_576.txt	LTP250	ltpFR2	16	13	PIZZA	1079	n/a	n/a	0	0	0
2736.824	n/a	WORD	1368412	wordpools/wasnorm_wordpool_576.txt	LTP250	ltpFR2	16	13	EUROPE	541	n/a	n/a	0	0	0
2739.392	n/a	WORD	1369696	wordpools/wasnorm_wordpool_576.txt	LTP250	ltpFR2	16	13	BODY	145	n/a	n/a	0	0	0
2741.892	n/a	WORD	1370946	wordpools/wasnorm_wordpool_576.txt	LTP250	ltpFR2	16	13	BLUEPRINT	142	n/a	n/a	0	0	0
2743.512	n/a	START	1371756	n/a	LTP250	ltpFR2	16	n/a	n/a	n/a	21	n/a	n/a	n/a	n/a
2744.594	n/a	DISTRACTOR	1372297	n/a	LTP250	ltpFR2	16	13	n/a	n/a	n/a	n/a	0	0	0
2744.612	n/a	PROB	1372306	n/a	LTP250	ltpFR2	16	n/a	n/a	n/a	21	16	4	3	9
2748.114	n/a	PROB	1374057	n/a	LTP250	ltpFR2	16	n/a	n/a	n/a	21	19	6	9	4
2749.982	n/a	PROB	1374991	n/a	LTP250	ltpFR2	16	n/a	n/a	n/a	21	13	4	6	3
2751.366	n/a	PROB	1375683	n/a	LTP250	ltpFR2	16	n/a	n/a	n/a	21	16	2	6	8
2752.768	n/a	PROB	1376384	n/a	LTP250	ltpFR2	16	n/a	n/a	n/a	21	18	9	7	2
2755.902	n/a	PROB	1377951	n/a	LTP250	ltpFR2	16	n/a	n/a	n/a	21	18	3	6	9
2757.888	n/a	PROB	1378944	n/a	LTP250	ltpFR2	16	n/a	n/a	n/a	21	25	9	9	7
2762.908	n/a	PROB	1381454	n/a	LTP250	ltpFR2	16	n/a	n/a	n/a	21	14	1	8	5
2767.302	n/a	STOP	1383651	n/a	LTP250	ltpFR2	16	n/a	n/a	n/a	21	n/a	n/a	n/a	n/a
2769.468	n/a	REC_START	1384734	n/a	LTP250	ltpFR2	16	13	n/a	n/a	n/a	n/a	0	0	0
2770.144	n/a	REC_WORD	1385072	wordpools/wasnorm_wordpool_576.txt	LTP250	ltpFR2	16	13	BODY	145	n/a	n/a	0	0	0
2770.974	n/a	REC_WORD	1385487	wordpools/wasnorm_wordpool_576.txt	LTP250	ltpFR2	16	13	BLUEPRINT	142	n/a	n/a	0	0	0
2774.048	n/a	REC_WORD	1387024	wordpools/wasnorm_wordpool_576.txt	LTP250	ltpFR2	16	13	UMPIRE	1535	n/a	n/a	0	0	0
2774.97	n/a	REC_WORD	1387485	wordpools/wasnorm_wordpool_576.txt	LTP250	ltpFR2	16	13	XEROX	1628	n/a	n/a	0	0	0
2775.89	n/a	REC_WORD	1387945	wordpools/wasnorm_wordpool_576.txt	LTP250	ltpFR2	16	13	MACHINE	852	n/a	n/a	0	0	0
2859.9	n/a	WORD	1429950	wordpools/wasnorm_wordpool_576.txt	LTP250	ltpFR2	16	14	BEAST	108	n/a	n/a	0	0	0
2862.488	n/a	WORD	1431244	wordpools/wasnorm_wordpool_576.txt	LTP250	ltpFR2	16	14	LEG	809	n/a	n/a	0	0	0
2865.23	n/a	WORD	1432615	wordpools/wasnorm_wordpool_576.txt	LTP250	ltpFR2	16	14	CARRIAGE	248	n/a	n/a	0	0	0
2867.918	n/a	WORD	1433959	wordpools/wasnorm_wordpool_576.txt	LTP250	ltpFR2	16	14	TUTU	1524	n/a	n/a	0	0	0
2870.47	n/a	WORD	1435235	wordpools/wasnorm_wordpool_576.txt	LTP250	ltpFR2	16	14	FRECKLE	602	n/a	n/a	0	0	0
2873.004	n/a	WORD	1436502	wordpools/wasnorm_wordpool_576.txt	LTP250	ltpFR2	16	14	LACE	792	n/a	n/a	0	0	0
2875.682	n/a	WORD	1437841	wordpools/wasnorm_wordpool_576.txt	LTP250	ltpFR2	16	14	DRESS	495	n/a	n/a	0	0	0
2878.242	n/a	WORD	1439121	wordpools/wasnorm_wordpool_576.txt	LTP250	ltpFR2	16	14	SERVANT	1271	n/a	n/a	0	0	0
2880.812	n/a	WORD	1440406	wordpools/wasnorm_wordpool_576.txt	LTP250	ltpFR2	16	14	PIANO	1057	n/a	n/a	0	0	0
2883.554	n/a	WORD	1441777	wordpools/wasnorm_wordpool_576.txt	LTP250	ltpFR2	16	14	ROBOT	1200	n/a	n/a	0	0	0
2886.066	n/a	WORD	1443033	wordpools/wasnorm_wordpool_576.txt	LTP250	ltpFR2	16	14	BRANDY	169	n/a	n/a	0	0	0
2888.576	n/a	WORD	1444288	wordpools/wasnorm_wordpool_576.txt	LTP250	ltpFR2	16	14	VALVE	1546	n/a	n/a	0	0	0
2891.32	n/a	WORD	1445660	wordpools/wasnorm_wordpool_576.txt	LTP250	ltpFR2	16	14	RADISH	1158	n/a	n/a	0	0	0
2893.888	n/a	WORD	1446944	wordpools/wasnorm_wordpool_576.txt	LTP250	ltpFR2	16	14	MONSTER	912	n/a	n/a	0	0	0
2896.358	n/a	WORD	1448179	wordpools/wasnorm_wordpool_576.txt	LTP250	ltpFR2	16	14	THREAD	1460	n/a	n/a	0	0	0
2898.942	n/a	WORD	1449471	wordpools/wasnorm_wordpool_576.txt	LTP250	ltpFR2	16	14	BARLEY	88	n/a	n/a	0	0	0
2901.462	n/a	WORD	1450731	wordpools/wasnorm_wordpool_576.txt	LTP250	ltpFR2	16	14	POET	1095	n/a	n/a	0	0	0
2904.214	n/a	WORD	1452107	wordpools/wasnorm_wordpool_576.txt	LTP250	ltpFR2	16	14	POLICE	1098	n/a	n/a	0	0	0
2906.972	n/a	WORD	1453486	wordpools/wasnorm_wordpool_576.txt	LTP250	ltpFR2	16	14	PASTRY	1022	n/a	n/a	0	0	0
2909.686	n/a	WORD	1454843	wordpools/wasnorm_wordpool_576.txt	LTP250	ltpFR2	16	14	WAITRESS	1581	n/a	n/a	0	0	0
2912.104	n/a	WORD	1456052	wordpools/wasnorm_wordpool_576.txt	LTP250	ltpFR2	16	14	LETTUCE	814	n/a	n/a	0	0	0
2914.774	n/a	WORD	1457387	wordpools/wasnorm_wordpool_576.txt	LTP250	ltpFR2	16	14	APRON	35	n/a	n/a	0	0	0
2917.448	n/a	WORD	1458724	wordpools/wasnorm_wordpool_576.txt	LTP250	ltpFR2	16	14	TOASTER	1472	n/a	n/a	0	0	0
2920.248	n/a	WORD	1460124	wordpools/wasnorm_wordpool_576.txt	LTP250	ltpFR2	16	14	GHETTO	633	n/a	n/a	0	0	0
2921.864	n/a	START	1460932	n/a	LTP250	ltpFR2	16	n/a	n/a	n/a	22	n/a	n/a	n/a	n/a
2922.928	n/a	DISTRACTOR	1461464	n/a	LTP250	ltpFR2	16	14	n/a	n/a	n/a	n/a	0	0	0
2922.934	n/a	PROB	1461467	n/a	LTP250	ltpFR2	16	n/a	n/a	n/a	22	24	8	8	8
2925.032	n/a	PROB	1462516	n/a	LTP250	ltpFR2	16	n/a	n/a	n/a	22	8	2	5	1
2927.382	n/a	PROB	1463691	n/a	LTP250	ltpFR2	16	n/a	n/a	n/a	22	21	9	2	6
2931.302	n/a	PROB	1465651	n/a	LTP250	ltpFR2	16	n/a	n/a	n/a	22	7	3	3	1
2934.154	n/a	PROB	1467077	n/a	LTP250	ltpFR2	16	n/a	n/a	n/a	22	19	5	8	6
2936.558	n/a	PROB	1468279	n/a	LTP250	ltpFR2	16	n/a	n/a	n/a	22	13	8	4	1
2939.144	n/a	PROB	1469572	n/a	LTP250	ltpFR2	16	n/a	n/a	n/a	22	8	2	3	3
2941.03	n/a	PROB	1470515	n/a	LTP250	ltpFR2	16	n/a	n/a	n/a	22	11	6	2	3
2944.314	n/a	STOP	1472157	n/a	LTP250	ltpFR2	16	n/a	n/a	n/a	22	n/a	n/a	n/a	n/a
2947.734	n/a	REC_START	1473867	n/a	LTP250	ltpFR2	16	14	n/a	n/a	n/a	n/a	0	0	0
2949.628	n/a	REC_WORD	1474814	wordpools/wasnorm_wordpool_576.txt	LTP250	ltpFR2	16	14	LETTUCE	814	n/a	n/a	0	0	0
2950.426	n/a	REC_WORD	1475213	wordpools/wasnorm_wordpool_576.txt	LTP250	ltpFR2	16	14	CARRIAGE	248	n/a	n/a	0	0	0
2952.862	n/a	REC_WORD	1476431	wordpools/wasnorm_wordpool_576.txt	LTP250	ltpFR2	16	14	BANKER	84	n/a	n/a	0	0	0
2954.338	n/a	REC_WORD	1477169	wordpools/wasnorm_wordpool_576.txt	LTP250	ltpFR2	16	14	APRON	35	n/a	n/a	0	0	0
3038.188	n/a	WORD	1519094	wordpools/wasnorm_wordpool_576.txt	LTP250	ltpFR2	16	15	GAVEL	627	n/a	n/a	0	0	0
3040.794	n/a	WORD	1520397	wordpools/wasnorm_wordpool_576.txt	LTP250	ltpFR2	16	15	STUDENT	1395	n/a	n/a	0	0	0
3043.328	n/a	WORD	1521664	wordpools/wasnorm_wordpool_576.txt	LTP250	ltpFR2	16	15	PIMPLE	1071	n/a	n/a	0	0	0
3046.002	n/a	WORD	1523001	wordpools/wasnorm_wordpool_576.txt	LTP250	ltpFR2	16	15	FREEZER	604	n/a	n/a	0	0	0
3048.684	n/a	WORD	1524342	wordpools/wasnorm_wordpool_576.txt	LTP250	ltpFR2	16	15	TEMPLE	1448	n/a	n/a	0	0	0
3051.118	n/a	WORD	1525559	wordpools/wasnorm_wordpool_576.txt	LTP250	ltpFR2	16	15	UNCLE	1536	n/a	n/a	0	0	0
3053.71	n/a	WORD	1526855	wordpools/wasnorm_wordpool_576.txt	LTP250	ltpFR2	16	15	MASK	876	n/a	n/a	0	0	0
3056.472	n/a	WORD	1528236	wordpools/wasnorm_wordpool_576.txt	LTP250	ltpFR2	16	15	HANDBAG	684	n/a	n/a	0	0	0
3058.908	n/a	WORD	1529454	wordpools/wasnorm_wordpool_576.txt	LTP250	ltpFR2	16	15	COIN	343	n/a	n/a	0	0	0
3061.492	n/a	WORD	1530746	wordpools/wasnorm_wordpool_576.txt	LTP250	ltpFR2	16	15	HAWK	692	n/a	n/a	0	0	0
3064.044	n/a	WORD	1532022	wordpools/wasnorm_wordpool_576.txt	LTP250	ltpFR2	16	15	PARROT	1015	n/a	n/a	0	0	0
3066.852	n/a	WORD	1533426	wordpools/wasnorm_wordpool_576.txt	LTP250	ltpFR2	16	15	GRILL	661	n/a	n/a	0	0	0
3069.314	n/a	WORD	1534657	wordpools/wasnorm_wordpool_576.txt	LTP250	ltpFR2	16	15	HORNET	718	n/a	n/a	0	0	0
3072.134	n/a	WORD	1536067	wordpools/wasnorm_wordpool_576.txt	LTP250	ltpFR2	16	15	EGYPT	519	n/a	n/a	0	0	0
3074.82	n/a	WORD	1537410	wordpools/wasnorm_wordpool_576.txt	LTP250	ltpFR2	16	15	ROD	1203	n/a	n/a	0	0	0
3077.262	n/a	WORD	1538631	wordpools/wasnorm_wordpool_576.txt	LTP250	ltpFR2	16	15	SUMMIT	1405	n/a	n/a	0	0	0
3080.064	n/a	WORD	1540032	wordpools/wasnorm_wordpool_576.txt	LTP250	ltpFR2	16	15	PATROL	1027	n/a	n/a	0	0	0
3082.85	n/a	WORD	1541425	wordpools/wasnorm_wordpool_576.txt	LTP250	ltpFR2	16	15	WASP	1593	n/a	n/a	0	0	0
3085.478	n/a	WORD	1542739	wordpools/wasnorm_wordpool_576.txt	LTP250	ltpFR2	16	15	OYSTER	995	n/a	n/a	0	0	0
3088.08	n/a	WORD	1544040	wordpools/wasnorm_wordpool_576.txt	LTP250	ltpFR2	16	15	SHORTS	1293	n/a	n/a	0	0	0
3090.658	n/a	WORD	1545329	wordpools/wasnorm_wordpool_576.txt	LTP250	ltpFR2	16	15	SHORTCAKE	1292	n/a	n/a	0	0	0
3093.108	n/a	WORD	1546554	wordpools/wasnorm_wordpool_576.txt	LTP250	ltpFR2	16	15	RIVER	1194	n/a	n/a	0	0	0
3095.728	n/a	WORD	1547864	wordpools/wasnorm_wordpool_576.txt	LTP250	ltpFR2	16	15	MARSH	874	n/a	n/a	0	0	0
3098.17	n/a	WORD	1549085	wordpools/wasnorm_wordpool_576.txt	LTP250	ltpFR2	16	15	PALACE	1006	n/a	n/a	0	0	0
3099.782	n/a	START	1549891	n/a	LTP250	ltpFR2	16	n/a	n/a	n/a	23	n/a	n/a	n/a	n/a
3100.924	n/a	DISTRACTOR	1550462	n/a	LTP250	ltpFR2	16	15	n/a	n/a	n/a	n/a	0	0	0
3100.932	n/a	PROB	1550466	n/a	LTP250	ltpFR2	16	n/a	n/a	n/a	23	15	7	6	8
3103.66	n/a	PROB	1551830	n/a	LTP250	ltpFR2	16	n/a	n/a	n/a	23	11	1	6	4
3105.526	n/a	PROB	1552763	n/a	LTP250	ltpFR2	16	n/a	n/a	n/a	23	9	3	2	4
3107.96	n/a	PROB	1553980	n/a	LTP250	ltpFR2	16	n/a	n/a	n/a	23	15	7	1	7
3109.412	n/a	PROB	1554706	n/a	LTP250	ltpFR2	16	n/a	n/a	n/a	23	23	8	6	9
3112.996	n/a	PROB	1556498	n/a	LTP250	ltpFR2	16	n/a	n/a	n/a	23	16	5	5	6
3114.214	n/a	PROB	1557107	n/a	LTP250	ltpFR2	16	n/a	n/a	n/a	23	13	2	2	9
3116.234	n/a	PROB	1558117	n/a	LTP250	ltpFR2	16	n/a	n/a	n/a	23	17	6	7	4
3118.922	n/a	PROB	1559461	n/a	LTP250	ltpFR2	16	n/a	n/a	n/a	23	14	7	3	4
3120.588	n/a	PROB	1560294	n/a	LTP250	ltpFR2	16	n/a	n/a	n/a	23	16	6	1	9
3123.78	n/a	STOP	1561890	n/a	LTP250	ltpFR2	16	n/a	n/a	n/a	23	n/a	n/a	n/a	n/a
3125.578	n/a	REC_START	1562789	n/a	LTP250	ltpFR2	16	15	n/a	n/a	n/a	n/a	0	0	0
3126.114	n/a	REC_WORD	1563057	wordpools/wasnorm_wordpool_576.txt	LTP250	ltpFR2	16	15	FREEZER	604	n/a	n/a	0	0	0
3126.752	n/a	REC_WORD	1563376	wordpools/wasnorm_wordpool_576.txt	LTP250	ltpFR2	16	15	UNCLE	1536	n/a	n/a	0	0	0
3127.292	n/a	REC_WORD	1563646	wordpools/wasnorm_wordpool_576.txt	LTP250	ltpFR2	16	15	TEMPLE	1448	n/a	n/a	0	0	0
3127.928	n/a	REC_WORD	1563964	wordpools/wasnorm_wordpool_576.txt	LTP250	ltpFR2	16	15	PALACE	1006	n/a	n/a	0	0	0
3129.562	n/a	REC_WORD	1564781	wordpools/wasnorm_wordpool_576.txt	LTP250	ltpFR2	16	15	SWAMP	1416	n/a	n/a	0	0	0
3130.076	n/a	REC_WORD	1565038	wordpools/wasnorm_wordpool_576.txt	LTP250	ltpFR2	16	15	RIVER	1194	n/a	n/a	0	0	0
3131.242	n/a	REC_WORD	1565621	wordpools/wasnorm_wordpool_576.txt	LTP250	ltpFR2	16	15	MARSH	874	n/a	n/a	0	0	0
3216.044	n/a	WORD	1608022	wordpools/wasnorm_wordpool_576.txt	LTP250	ltpFR2	16	16	FRANCE	601	n/a	n/a	0	0	0
3218.682	n/a	WORD	1609341	wordpools/wasnorm_wordpool_576.txt	LTP250	ltpFR2	16	16	FIREPLACE	570	n/a	n/a	0	0	0
3221.134	n/a	WORD	1610567	wordpools/wasnorm_wordpool_576.txt	LTP250	ltpFR2	16	16	FOREST	593	n/a	n/a	0	0	0
3223.736	n/a	WORD	1611868	wordpools/wasnorm_wordpool_576.txt	LTP250	ltpFR2	16	16	GAZELLE	628	n/a	n/a	0	0	0
3226.288	n/a	WORD	1613144	wordpools/wasnorm_wordpool_576.txt	LTP250	ltpFR2	16	16	COUNTY	389	n/a	n/a	0	0	0
3228.872	n/a	WORD	1614436	wordpools/wasnorm_wordpool_576.txt	LTP250	ltpFR2	16	16	BOARD	143	n/a	n/a	0	0	0
3231.692	n/a	WORD	1615846	wordpools/wasnorm_wordpool_576.txt	LTP250	ltpFR2	16	16	DRILL	497	n/a	n/a	0	0	0
3234.126	n/a	WORD	1617063	wordpools/wasnorm_wordpool_576.txt	LTP250	ltpFR2	16	16	CORAL	378	n/a	n/a	0	0	0
3236.83	n/a	WORD	1618415	wordpools/wasnorm_wordpool_576.txt	LTP250	ltpFR2	16	16	SHELTER	1282	n/a	n/a	0	0	0
3239.564	n/a	WORD	1619782	wordpools/wasnorm_wordpool_576.txt	LTP250	ltpFR2	16	16	CABIN	211	n/a	n/a	0	0	0
3242.382	n/a	WORD	1621191	wordpools/wasnorm_wordpool_576.txt	LTP250	ltpFR2	16	16	RABBIT	1152	n/a	n/a	0	0	0
3244.952	n/a	WORD	1622476	wordpools/wasnorm_wordpool_576.txt	LTP250	ltpFR2	16	16	SCULPTURE	1258	n/a	n/a	0	0	0
3247.386	n/a	WORD	1623693	wordpools/wasnorm_wordpool_576.txt	LTP250	ltpFR2	16	16	STOMACH	1384	n/a	n/a	0	0	0
3249.856	n/a	WORD	1624928	wordpools/wasnorm_wordpool_576.txt	LTP250	ltpFR2	16	16	HORSE	719	n/a	n/a	0	0	0
3252.424	n/a	WORD	1626212	wordpools/wasnorm_wordpool_576.txt	LTP250	ltpFR2	16	16	PARENT	1013	n/a	n/a	0	0	0
3255.026	n/a	WORD	1627513	wordpools/wasnorm_wordpool_576.txt	LTP250	ltpFR2	16	16	DAISY	435	n/a	n/a	0	0	0
3257.496	n/a	WORD	1628748	wordpools/wasnorm_wordpool_576.txt	LTP250	ltpFR2	16	16	REBEL	1172	n/a	n/a	0	0	0
3260.23	n/a	WORD	1630115	wordpools/wasnorm_wordpool_576.txt	LTP250	ltpFR2	16	16	BANJO	82	n/a	n/a	0	0	0
3262.7	n/a	WORD	1631350	wordpools/wasnorm_wordpool_576.txt	LTP250	ltpFR2	16	16	STALLION	1369	n/a	n/a	0	0	0
3265.318	n/a	WORD	1632659	wordpools/wasnorm_wordpool_576.txt	LTP250	ltpFR2	16	16	MILDEW	893	n/a	n/a	0	0	0
3267.936	n/a	WORD	1633968	wordpools/wasnorm_wordpool_576.txt	LTP250	ltpFR2	16	16	TWIG	1527	n/a	n/a	0	0	0
3270.388	n/a	WORD	1635194	wordpools/wasnorm_wordpool_576.txt	LTP250	ltpFR2	16	16	LUMBER	848	n/a	n/a	0	0	0
3273.012	n/a	WORD	1636506	wordpools/wasnorm_wordpool_576.txt	LTP250	ltpFR2	16	16	GIFT	635	n/a	n/a	0	0	0
3275.644	n/a	WORD	1637822	wordpools/wasnorm_wordpool_576.txt	LTP250	ltpFR2	16	16	COOKBOOK	373	n/a	n/a	0	0	0
3277.248	n/a	START	1638624	n/a	LTP250	ltpFR2	16	n/a	n/a	n/a	24	n/a	n/a	n/a	n/a
3278.188	n/a	DISTRACTOR	1639094	n/a	LTP250	ltpFR2	16	16	n/a	n/a	n/a	n/a	0	0	0
3278.194	n/a	PROB	1639097	n/a	LTP250	ltpFR2	16	n/a	n/a	n/a	24	11	5	1	5
3280.746	n/a	PROB	1640373	n/a	LTP250	ltpFR2	16	n/a	n/a	n/a	24	14	2	3	9
3283.764	n/a	PROB	1641882	n/a	LTP250	ltpFR2	16	n/a	n/a	n/a	24	21	8	5	8
3292.356	n/a	PROB	1646178	n/a	LTP250	ltpFR2	16	n/a	n/a	n/a	24	12	1	9	2
3293.922	n/a	PROB	1646961	n/a	LTP250	ltpFR2	16	n/a	n/a	n/a	24	11	7	1	3
3295.592	n/a	PROB	1647796	n/a	LTP250	ltpFR2	16	n/a	n/a	n/a	24	18	7	8	3
3297.56	n/a	PROB	1648780	n/a	LTP250	ltpFR2	16	n/a	n/a	n/a	24	16	7	2	7
3299.738	n/a	STOP	1649869	n/a	LTP250	ltpFR2	16	n/a	n/a	n/a	24	n/a	n/a	n/a	n/a
3303.182	n/a	REC_START	1651591	n/a	LTP250	ltpFR2	16	16	n/a	n/a	n/a	n/a	0	0	0
3303.8	n/a	REC_WORD	1651900	wordpools/wasnorm_wordpool_576.txt	LTP250	ltpFR2	16	16	TWIG	1527	n/a	n/a	0	0	0
3304.69	n/a	REC_WORD	1652345	wordpools/wasnorm_wordpool_576.txt	LTP250	ltpFR2	16	16	LUMBER	848	n/a	n/a	0	0	0
3305.324	n/a	REC_WORD	1652662	wordpools/wasnorm_wordpool_576.txt	LTP250	ltpFR2	16	16	FOREST	593	n/a	n/a	0	0	0
3307.218	n/a	REC_WORD	1653609	wordpools/wasnorm_wordpool_576.txt	LTP250	ltpFR2	16	16	FRENCH	-1	n/a	n/a	0	0	0
3379.708	n/a	REST_REWET	1689854	n/a	LTP250	ltpFR2	16	16	n/a	n/a	n/a	n/a	0	0	0
3577.088	n/a	DISTRACTOR	1788544	n/a	LTP250	ltpFR2	16	17	n/a	n/a	n/a	n/a	0	0	0
3577.088	n/a	START	1788544	n/a	LTP250	ltpFR2	16	n/a	n/a	n/a	25	n/a	n/a	n/a	n/a
3577.102	n/a	PROB	1788551	n/a	LTP250	ltpFR2	16	n/a	n/a	n/a	25	18	8	3	7
3579.028	n/a	PROB	1789514	n/a	LTP250	ltpFR2	16	n/a	n/a	n/a	25	16	5	2	9
3581.48	n/a	PROB	1790740	n/a	LTP250	ltpFR2	16	n/a	n/a	n/a	25	17	9	2	6
3584.4	n/a	PROB	1792200	n/a	LTP250	ltpFR2	16	n/a	n/a	n/a	25	19	3	9	7
3586.266	n/a	PROB	1793133	n/a	LTP250	ltpFR2	16	n/a	n/a	n/a	25	20	5	9	6
3588.67	n/a	PROB	1794335	n/a	LTP250	ltpFR2	16	n/a	n/a	n/a	25	19	7	9	3
3590.788	n/a	PROB	1795394	n/a	LTP250	ltpFR2	16	n/a	n/a	n/a	25	12	2	8	2
3592.188	n/a	PROB	1796094	n/a	LTP250	ltpFR2	16	n/a	n/a	n/a	25	12	2	7	4
3594.84	n/a	PROB	1797420	n/a	LTP250	ltpFR2	16	n/a	n/a	n/a	25	15	6	5	4
3601.086	n/a	STOP	1800543	n/a	LTP250	ltpFR2	16	n/a	n/a	n/a	25	n/a	n/a	n/a	n/a
3602.208	n/a	WORD	1801104	wordpools/wasnorm_wordpool_576.txt	LTP250	ltpFR2	16	17	BACKBONE	66	n/a	n/a	0	0	0
3605.016	n/a	WORD	1802508	wordpools/wasnorm_wordpool_576.txt	LTP250	ltpFR2	16	17	BARREL	91	n/a	n/a	0	0	0
3607.814	n/a	WORD	1803907	wordpools/wasnorm_wordpool_576.txt	LTP250	ltpFR2	16	17	TRIBE	1505	n/a	n/a	0	0	0
3610.482	n/a	WORD	1805241	wordpools/wasnorm_wordpool_576.txt	LTP250	ltpFR2	16	17	CANDY	230	n/a	n/a	0	0	0
3613.266	n/a	WORD	1806633	wordpools/wasnorm_wordpool_576.txt	LTP250	ltpFR2	16	17	TREAT	1501	n/a	n/a	0	0	0
3615.77	n/a	WORD	1807885	wordpools/wasnorm_wordpool_576.txt	LTP250	ltpFR2	16	17	MAILMAN	858	n/a	n/a	0	0	0
3618.456	n/a	WORD	1809228	wordpools/wasnorm_wordpool_576.txt	LTP250	ltpFR2	16	17	SHIRT	1287	n/a	n/a	0	0	0
3621.03	n/a	WORD	1810515	wordpools/wasnorm_wordpool_576.txt	LTP250	ltpFR2	16	17	SKILLET	1317	n/a	n/a	0	0	0
3623.582	n/a	WORD	1811791	wordpools/wasnorm_wordpool_576.txt	LTP250	ltpFR2	16	17	BEAVER	109	n/a	n/a	0	0	0
3626.228	n/a	WORD	1813114	wordpools/wasnorm_wordpool_576.txt	LTP250	ltpFR2	16	17	TERMITE	1451	n/a	n/a	0	0	0
3628.962	n/a	WORD	1814481	wordpools/wasnorm_wordpool_576.txt	LTP250	ltpFR2	16	17	SIBLING	1301	n/a	n/a	0	0	0
3631.532	n/a	WORD	1815766	wordpools/wasnorm_wordpool_576.txt	LTP250	ltpFR2	16	17	CHURCH	307	n/a	n/a	0	0	0
3634.184	n/a	WORD	1817092	wordpools/wasnorm_wordpool_576.txt	LTP250	ltpFR2	16	17	MAILBOX	857	n/a	n/a	0	0	0
3636.708	n/a	WORD	1818354	wordpools/wasnorm_wordpool_576.txt	LTP250	ltpFR2	16	17	SCRIBBLE	1256	n/a	n/a	0	0	0
3639.222	n/a	WORD	1819611	wordpools/wasnorm_wordpool_576.txt	LTP250	ltpFR2	16	17	KNAPSACK	783	n/a	n/a	0	0	0
3641.708	n/a	WORD	1820854	wordpools/wasnorm_wordpool_576.txt	LTP250	ltpFR2	16	17	MAPLE	866	n/a	n/a	0	0	0
3644.294	n/a	WORD	1822147	wordpools/wasnorm_wordpool_576.txt	LTP250	ltpFR2	16	17	BRANCH	168	n/a	n/a	0	0	0
3647.078	n/a	WORD	1823539	wordpools/wasnorm_wordpool_576.txt	LTP250	ltpFR2	16	17	SPARROW	1347	n/a	n/a	0	0	0
3649.748	n/a	WORD	1824874	wordpools/wasnorm_wordpool_576.txt	LTP250	ltpFR2	16	17	COCOON	339	n/a	n/a	0	0	0
3652.232	n/a	WORD	1826116	wordpools/wasnorm_wordpool_576.txt	LTP250	ltpFR2	16	17	SWORD	1423	n/a	n/a	0	0	0
3654.686	n/a	WORD	1827343	wordpools/wasnorm_wordpool_576.txt	LTP250	ltpFR2	16	17	TORTOISE	1486	n/a	n/a	0	0	0
3657.338	n/a	WORD	1828669	wordpools/wasnorm_wordpool_576.txt	LTP250	ltpFR2	16	17	SISTER	1312	n/a	n/a	0	0	0
3659.828	n/a	WORD	1829914	wordpools/wasnorm_wordpool_576.txt	LTP250	ltpFR2	16	17	BEEF	113	n/a	n/a	0	0	0
3662.292	n/a	WORD	1831146	wordpools/wasnorm_wordpool_576.txt	LTP250	ltpFR2	16	17	SHRUB	1299	n/a	n/a	0	0	0
3663.912	n/a	START	1831956	n/a	LTP250	ltpFR2	16	n/a	n/a	n/a	26	n/a	n/a	n/a	n/a
3664.962	n/a	DISTRACTOR	1832481	n/a	LTP250	ltpFR2	16	17	n/a	n/a	n/a	n/a	0	0	0
3664.978	n/a	PROB	1832489	n/a	LTP250	ltpFR2	16	n/a	n/a	n/a	26	32	8	8	6
3672.486	n/a	PROB	1836243	n/a	LTP250	ltpFR2	16	n/a	n/a	n/a	26	13	5	5	3
3674.036	n/a	PROB	1837018	n/a	LTP250	ltpFR2	16	n/a	n/a	n/a	26	18	6	8	4
3676.688	n/a	PROB	1838344	n/a	LTP250	ltpFR2	16	n/a	n/a	n/a	26	18	3	9	6
3678.806	n/a	PROB	1839403	n/a	LTP250	ltpFR2	16	n/a	n/a	n/a	26	20	9	8	3
3681.442	n/a	PROB	1840721	n/a	LTP250	ltpFR2	16	n/a	n/a	n/a	26	7	2	1	4
3687.91	n/a	STOP	1843955	n/a	LTP250	ltpFR2	16	n/a	n/a	n/a	26	n/a	n/a	n/a	n/a
3689.784	n/a	REC_START	1844892	n/a	LTP250	ltpFR2	16	17	n/a	n/a	n/a	n/a	0	0	0
3690.956	n/a	REC_WORD	1845478	wordpools/wasnorm_wordpool_576.txt	LTP250	ltpFR2	16	17	BEEF	113	n/a	n/a	0	0	0
3691.492	n/a	REC_WORD	1845746	wordpools/wasnorm_wordpool_576.txt	LTP250	ltpFR2	16	17	SHRUB	1299	n/a	n/a	0	0	0
3692.906	n/a	REC_WORD	1846453	wordpools/wasnorm_wordpool_576.txt	LTP250	ltpFR2	16	17	TREAT	1501	n/a	n/a	0	0	0
3693.742	n/a	REC_WORD	1846871	wordpools/wasnorm_wordpool_576.txt	LTP250	ltpFR2	16	17	CANDY	230	n/a	n/a	0	0	0
3694.712	n/a	REC_WORD	1847356	wordpools/wasnorm_wordpool_576.txt	LTP250	ltpFR2	16	17	MAILMAN	858	n/a	n/a	0	0	0
3696.048	n/a	REC_WORD	1848024	wordpools/wasnorm_wordpool_576.txt	LTP250	ltpFR2	16	17	SHIRT	1287	n/a	n/a	0	0	0
3780.218	n/a	WORD	1890109	wordpools/wasnorm_wordpool_576.txt	LTP250	ltpFR2	16	18	BULLET	194	n/a	n/a	0	0	0
3783.022	n/a	WORD	1891511	wordpools/wasnorm_wordpool_576.txt	LTP250	ltpFR2	16	18	FOOT	590	n/a	n/a	0	0	0
3785.514	n/a	WORD	1892757	wordpools/wasnorm_wordpool_576.txt	LTP250	ltpFR2	16	18	KLEENEX	782	n/a	n/a	0	0	0
3788.226	n/a	WORD	1894113	wordpools/wasnorm_wordpool_576.txt	LTP250	ltpFR2	16	18	PEANUT	1032	n/a	n/a	0	0	0
3790.762	n/a	WORD	1895381	wordpools/wasnorm_wordpool_576.txt	LTP250	ltpFR2	16	18	KEEPER	769	n/a	n/a	0	0	0
3793.296	n/a	WORD	1896648	wordpools/wasnorm_wordpool_576.txt	LTP250	ltpFR2	16	18	MUMMY	932	n/a	n/a	0	0	0
3796.082	n/a	WORD	1898041	wordpools/wasnorm_wordpool_576.txt	LTP250	ltpFR2	16	18	TWEEZERS	1526	n/a	n/a	0	0	0
3798.768	n/a	WORD	1899384	wordpools/wasnorm_wordpool_576.txt	LTP250	ltpFR2	16	18	HEADBAND	696	n/a	n/a	0	0	0
3801.51	n/a	WORD	1900755	wordpools/wasnorm_wordpool_576.txt	LTP250	ltpFR2	16	18	BLOCKADE	137	n/a	n/a	0	0	0
3804.112	n/a	WORD	1902056	wordpools/wasnorm_wordpool_576.txt	LTP250	ltpFR2	16	18	CAPTIVE	240	n/a	n/a	0	0	0
3806.54	n/a	WORD	1903270	wordpools/wasnorm_wordpool_576.txt	LTP250	ltpFR2	16	18	CONCERT	360	n/a	n/a	0	0	0
3809.332	n/a	WORD	1904666	wordpools/wasnorm_wordpool_576.txt	LTP250	ltpFR2	16	18	TUBA	1515	n/a	n/a	0	0	0
3811.944	n/a	WORD	1905972	wordpools/wasnorm_wordpool_576.txt	LTP250	ltpFR2	16	18	OX	994	n/a	n/a	0	0	0
3814.564	n/a	WORD	1907282	wordpools/wasnorm_wordpool_576.txt	LTP250	ltpFR2	16	18	LADY	794	n/a	n/a	0	0	0
3817.306	n/a	WORD	1908653	wordpools/wasnorm_wordpool_576.txt	LTP250	ltpFR2	16	18	ARMY	39	n/a	n/a	0	0	0
3819.942	n/a	WORD	1909971	wordpools/wasnorm_wordpool_576.txt	LTP250	ltpFR2	16	18	CHILD	299	n/a	n/a	0	0	0
3822.738	n/a	WORD	1911369	wordpools/wasnorm_wordpool_576.txt	LTP250	ltpFR2	16	18	CUSTARD	429	n/a	n/a	0	0	0
3825.456	n/a	WORD	1912728	wordpools/wasnorm_wordpool_576.txt	LTP250	ltpFR2	16	18	HATCHET	691	n/a	n/a	0	0	0
3828.19	n/a	WORD	1914095	wordpools/wasnorm_wordpool_576.txt	LTP250	ltpFR2	16	18	COUCH	386	n/a	n/a	0	0	0
3830.71	n/a	WORD	1915355	wordpools/wasnorm_wordpool_576.txt	LTP250	ltpFR2	16	18	SWIMMER	1420	n/a	n/a	0	0	0
3833.286	n/a	WORD	1916643	wordpools/wasnorm_wordpool_576.txt	LTP250	ltpFR2	16	18	ASIA	46	n/a	n/a	0	0	0
3835.93	n/a	WORD	1917965	wordpools/wasnorm_wordpool_576.txt	LTP250	ltpFR2	16	18	RATTLE	1170	n/a	n/a	0	0	0
3838.698	n/a	WORD	1919349	wordpools/wasnorm_wordpool_576.txt	LTP250	ltpFR2	16	18	CASHEW	253	n/a	n/a	0	0	0
3841.168	n/a	WORD	1920584	wordpools/wasnorm_wordpool_576.txt	LTP250	ltpFR2	16	18	LONDON	843	n/a	n/a	0	0	0
3842.78	n/a	START	1921390	n/a	LTP250	ltpFR2	16	n/a	n/a	n/a	27	n/a	n/a	n/a	n/a
3843.664	n/a	DISTRACTOR	1921832	n/a	LTP250	ltpFR2	16	18	n/a	n/a	n/a	n/a	0	0	0
3843.67	n/a	PROB	1921835	n/a	LTP250	ltpFR2	16	n/a	n/a	n/a	27	17	9	2	6
3847.438	n/a	PROB	1923719	n/a	LTP250	ltpFR2	16	n/a	n/a	n/a	27	13	3	2	8
3850.29	n/a	PROB	1925145	n/a	LTP250	ltpFR2	16	n/a	n/a	n/a	27	18	5	8	5
3851.776	n/a	PROB	1925888	n/a	LTP250	ltpFR2	16	n/a	n/a	n/a	27	16	6	9	1
3853.342	n/a	PROB	1926671	n/a	LTP250	ltpFR2	16	n/a	n/a	n/a	27	14	1	9	4
3855.31	n/a	PROB	1927655	n/a	LTP250	ltpFR2	16	n/a	n/a	n/a	27	15	5	8	2
3856.696	n/a	PROB	1928348	n/a	LTP250	ltpFR2	16	n/a	n/a	n/a	27	15	8	5	2
3858.378	n/a	PROB	1929189	n/a	LTP250	ltpFR2	16	n/a	n/a	n/a	27	14	3	9	2
3861.8	n/a	PROB	1930900	n/a	LTP250	ltpFR2	16	n/a	n/a	n/a	27	10	4	3	3
3864.134	n/a	PROB	1932067	n/a	LTP250	ltpFR2	16	n/a	n/a	n/a	27	3	1	1	1
3865.274	n/a	STOP	1932637	n/a	LTP250	ltpFR2	16	n/a	n/a	n/a	27	n/a	n/a	n/a	n/a
3868.54	n/a	REC_START	1934270	n/a	LTP250	ltpFR2	16	18	n/a	n/a	n/a	n/a	0	0	0
3869.882	n/a	REC_WORD	1934941	wordpools/wasnorm_wordpool_576.txt	LTP250	ltpFR2	16	18	RATTLE	1170	n/a	n/a	0	0	0
3870.532	n/a	REC_WORD	1935266	wordpools/wasnorm_wordpool_576.txt	LTP250	ltpFR2	16	18	CITY	314	n/a	n/a	0	0	0
3872.116	n/a	REC_WORD	1936058	wordpools/wasnorm_wordpool_576.txt	LTP250	ltpFR2	16	18	SINNER	-1	n/a	n/a	0	0	0
3959.044	n/a	DISTRACTOR	1979522	n/a	LTP250	ltpFR2	16	19	n/a	n/a	n/a	n/a	0	0	0
3959.044	n/a	START	1979522	n/a	LTP250	ltpFR2	16	n/a	n/a	n/a	28	n/a	n/a	n/a	n/a
3959.058	n/a	PROB	1979529	n/a	LTP250	ltpFR2	16	n/a	n/a	n/a	28	8	4	2	2
3961.31	n/a	PROB	1980655	n/a	LTP250	ltpFR2	16	n/a	n/a	n/a	28	23	9	7	7
3963.246	n/a	PROB	1981623	n/a	LTP250	ltpFR2	16	n/a	n/a	n/a	28	9	3	2	4
3966.448	n/a	PROB	1983224	n/a	LTP250	ltpFR2	16	n/a	n/a	n/a	28	9	2	6	1
3970.7	n/a	PROB	1985350	n/a	LTP250	ltpFR2	16	n/a	n/a	n/a	28	19	2	9	8
3975.472	n/a	PROB	1987736	n/a	LTP250	ltpFR2	16	n/a	n/a	n/a	28	11	1	7	3
3977.74	n/a	PROB	1988870	n/a	LTP250	ltpFR2	16	n/a	n/a	n/a	28	19	6	4	9
3979.224	n/a	PROB	1989612	n/a	LTP250	ltpFR2	16	n/a	n/a	n/a	28	10	4	1	5
3982.71	n/a	STOP	1991355	n/a	LTP250	ltpFR2	16	n/a	n/a	n/a	28	n/a	n/a	n/a	n/a
3983.998	n/a	WORD	1991999	wordpools/wasnorm_wordpool_576.txt	LTP250	ltpFR2	16	19	WHISKERS	1605	n/a	n/a	0	0	0
3986.798	n/a	WORD	1993399	wordpools/wasnorm_wordpool_576.txt	LTP250	ltpFR2	16	19	SOFTBALL	1343	n/a	n/a	0	0	0
3989.454	n/a	WORD	1994727	wordpools/wasnorm_wordpool_576.txt	LTP250	ltpFR2	16	19	MARROW	872	n/a	n/a	0	0	0
3992.034	n/a	WORD	1996017	wordpools/wasnorm_wordpool_576.txt	LTP250	ltpFR2	16	19	ARM	38	n/a	n/a	0	0	0
3994.738	n/a	WORD	1997369	wordpools/wasnorm_wordpool_576.txt	LTP250	ltpFR2	16	19	DOLPHIN	483	n/a	n/a	0	0	0
3997.39	n/a	WORD	1998695	wordpools/wasnorm_wordpool_576.txt	LTP250	ltpFR2	16	19	SWAMP	1416	n/a	n/a	0	0	0
4000.096	n/a	WORD	2000048	wordpools/wasnorm_wordpool_576.txt	LTP250	ltpFR2	16	19	SLUG	1329	n/a	n/a	0	0	0
4002.732	n/a	WORD	2001366	wordpools/wasnorm_wordpool_576.txt	LTP250	ltpFR2	16	19	CATCHER	258	n/a	n/a	0	0	0
4005.25	n/a	WORD	2002625	wordpools/wasnorm_wordpool_576.txt	LTP250	ltpFR2	16	19	WRIST	1626	n/a	n/a	0	0	0
4007.864	n/a	WORD	2003932	wordpools/wasnorm_wordpool_576.txt	LTP250	ltpFR2	16	19	OMELET	976	n/a	n/a	0	0	0
4010.6	n/a	WORD	2005300	wordpools/wasnorm_wordpool_576.txt	LTP250	ltpFR2	16	19	SERVER	1272	n/a	n/a	0	0	0
4013.084	n/a	WORD	2006542	wordpools/wasnorm_wordpool_576.txt	LTP250	ltpFR2	16	19	STICKER	1382	n/a	n/a	0	0	0
4015.786	n/a	WORD	2007893	wordpools/wasnorm_wordpool_576.txt	LTP250	ltpFR2	16	19	WORLD	1622	n/a	n/a	0	0	0
4018.428	n/a	WORD	2009214	wordpools/wasnorm_wordpool_576.txt	LTP250	ltpFR2	16	19	OINTMENT	974	n/a	n/a	0	0	0
4021.224	n/a	WORD	2010612	wordpools/wasnorm_wordpool_576.txt	LTP250	ltpFR2	16	19	SCALLOP	1242	n/a	n/a	0	0	0
4023.676	n/a	WORD	2011838	wordpools/wasnorm_wordpool_576.txt	LTP250	ltpFR2	16	19	PANTHER	1009	n/a	n/a	0	0	0
4026.134	n/a	WORD	2013067	wordpools/wasnorm_wordpool_576.txt	LTP250	ltpFR2	16	19	PACKAGE	997	n/a	n/a	0	0	0
4028.798	n/a	WORD	2014399	wordpools/wasnorm_wordpool_576.txt	LTP250	ltpFR2	16	19	MEAT	883	n/a	n/a	0	0	0
4031.306	n/a	WORD	2015653	wordpools/wasnorm_wordpool_576.txt	LTP250	ltpFR2	16	19	BUTCHER	203	n/a	n/a	0	0	0
4034.018	n/a	WORD	2017009	wordpools/wasnorm_wordpool_576.txt	LTP250	ltpFR2	16	19	SNAKE	1333	n/a	n/a	0	0	0
4036.678	n/a	WORD	2018339	wordpools/wasnorm_wordpool_576.txt	LTP250	ltpFR2	16	19	CHAUFFEUR	283	n/a	n/a	0	0	0
4039.172	n/a	WORD	2019586	wordpools/wasnorm_wordpool_576.txt	LTP250	ltpFR2	16	19	BUGGY	188	n/a	n/a	0	0	0
4041.626	n/a	WORD	2020813	wordpools/wasnorm_wordpool_576.txt	LTP250	ltpFR2	16	19	FLUTE	585	n/a	n/a	0	0	0
4044.126	n/a	WORD	2022063	wordpools/wasnorm_wordpool_576.txt	LTP250	ltpFR2	16	19	PECAN	1036	n/a	n/a	0	0	0
4045.736	n/a	START	2022868	n/a	LTP250	ltpFR2	16	n/a	n/a	n/a	29	n/a	n/a	n/a	n/a
4046.698	n/a	DISTRACTOR	2023349	n/a	LTP250	ltpFR2	16	19	n/a	n/a	n/a	n/a	0	0	0
4046.702	n/a	PROB	2023351	n/a	LTP250	ltpFR2	16	n/a	n/a	n/a	29	10	2	3	5
4048.846	n/a	PROB	2024423	n/a	LTP250	ltpFR2	16	n/a	n/a	n/a	29	25	9	8	8
4054.3	n/a	PROB	2027150	n/a	LTP250	ltpFR2	16	n/a	n/a	n/a	29	6	2	3	1
4056.668	n/a	PROB	2028334	n/a	LTP250	ltpFR2	16	n/a	n/a	n/a	29	15	1	5	9
4058.536	n/a	PROB	2029268	n/a	LTP250	ltpFR2	16	n/a	n/a	n/a	29	19	6	9	4
4060.404	n/a	PROB	2030202	n/a	LTP250	ltpFR2	16	n/a	n/a	n/a	29	12	2	6	4
4062.672	n/a	PROB	2031336	n/a	LTP250	ltpFR2	16	n/a	n/a	n/a	29	20	9	2	9
4064.39	n/a	PROB	2032195	n/a	LTP250	ltpFR2	16	n/a	n/a	n/a	29	13	3	7	3
4069.736	n/a	STOP	2034868	n/a	LTP250	ltpFR2	16	n/a	n/a	n/a	29	n/a	n/a	n/a	n/a
4071.514	n/a	REC_START	2035757	n/a	LTP250	ltpFR2	16	19	n/a	n/a	n/a	n/a	0	0	0
4072.766	n/a	REC_WORD	2036383	wordpools/wasnorm_wordpool_576.txt	LTP250	ltpFR2	16	19	BUGGY	188	n/a	n/a	0	0	0
4073.386	n/a	REC_WORD	2036693	wordpools/wasnorm_wordpool_576.txt	LTP250	ltpFR2	16	19	SHIRT	1287	n/a	n/a	0	0	0
4074.176	n/a	REC_WORD	2037088	wordpools/wasnorm_wordpool_576.txt	LTP250	ltpFR2	16	19	CHAUFFEUR	283	n/a	n/a	0	0	0
4162.002	n/a	WORD	2081001	wordpools/wasnorm_wordpool_576.txt	LTP250	ltpFR2	16	20	COCKTAIL	338	n/a	n/a	0	0	0
4164.486	n/a	WORD	2082243	wordpools/wasnorm_wordpool_576.txt	LTP250	ltpFR2	16	20	DINER	467	n/a	n/a	0	0	0
4166.954	n/a	WORD	2083477	wordpools/wasnorm_wordpool_576.txt	LTP250	ltpFR2	16	20	BISON	131	n/a	n/a	0	0	0
4169.774	n/a	WORD	2084887	wordpools/wasnorm_wordpool_576.txt	LTP250	ltpFR2	16	20	LUNCH	849	n/a	n/a	0	0	0
4172.51	n/a	WORD	2086255	wordpools/wasnorm_wordpool_576.txt	LTP250	ltpFR2	16	20	CATTLE	261	n/a	n/a	0	0	0
4175.244	n/a	WORD	2087622	wordpools/wasnorm_wordpool_576.txt	LTP250	ltpFR2	16	20	ROBBER	1197	n/a	n/a	0	0	0
4177.714	n/a	WORD	2088857	wordpools/wasnorm_wordpool_576.txt	LTP250	ltpFR2	16	20	CRUTCH	417	n/a	n/a	0	0	0
4180.366	n/a	WORD	2090183	wordpools/wasnorm_wordpool_576.txt	LTP250	ltpFR2	16	20	EYELASH	546	n/a	n/a	0	0	0
4183.134	n/a	WORD	2091567	wordpools/wasnorm_wordpool_576.txt	LTP250	ltpFR2	16	20	LIPSTICK	829	n/a	n/a	0	0	0
4185.636	n/a	WORD	2092818	wordpools/wasnorm_wordpool_576.txt	LTP250	ltpFR2	16	20	BUBBLE	183	n/a	n/a	0	0	0
4188.238	n/a	WORD	2094119	wordpools/wasnorm_wordpool_576.txt	LTP250	ltpFR2	16	20	KNIFE	785	n/a	n/a	0	0	0
4191.056	n/a	WORD	2095528	wordpools/wasnorm_wordpool_576.txt	LTP250	ltpFR2	16	20	ACTOR	5	n/a	n/a	0	0	0
4193.76	n/a	WORD	2096880	wordpools/wasnorm_wordpool_576.txt	LTP250	ltpFR2	16	20	CLIMBER	323	n/a	n/a	0	0	0
4196.462	n/a	WORD	2098231	wordpools/wasnorm_wordpool_576.txt	LTP250	ltpFR2	16	20	VALLEY	1545	n/a	n/a	0	0	0
4199.13	n/a	WORD	2099565	wordpools/wasnorm_wordpool_576.txt	LTP250	ltpFR2	16	20	DANCER	437	n/a	n/a	0	0	0
4201.7	n/a	WORD	2100850	wordpools/wasnorm_wordpool_576.txt	LTP250	ltpFR2	16	20	JEANS	752	n/a	n/a	0	0	0
4204.366	n/a	WORD	2102183	wordpools/wasnorm_wordpool_576.txt	LTP250	ltpFR2	16	20	PISTON	1076	n/a	n/a	0	0	0
4206.804	n/a	WORD	2103402	wordpools/wasnorm_wordpool_576.txt	LTP250	ltpFR2	16	20	TYPIST	1532	n/a	n/a	0	0	0
4209.622	n/a	WORD	2104811	wordpools/wasnorm_wordpool_576.txt	LTP250	ltpFR2	16	20	SKIRT	1319	n/a	n/a	0	0	0
4212.306	n/a	WORD	2106153	wordpools/wasnorm_wordpool_576.txt	LTP250	ltpFR2	16	20	VIRUS	1572	n/a	n/a	0	0	0
4215.01	n/a	WORD	2107505	wordpools/wasnorm_wordpool_576.txt	LTP250	ltpFR2	16	20	IGLOO	734	n/a	n/a	0	0	0
4217.578	n/a	WORD	2108789	wordpools/wasnorm_wordpool_576.txt	LTP250	ltpFR2	16	20	GREASE	660	n/a	n/a	0	0	0
4220.146	n/a	WORD	2110073	wordpools/wasnorm_wordpool_576.txt	LTP250	ltpFR2	16	20	SCOTCH	1251	n/a	n/a	0	0	0
4222.7	n/a	WORD	2111350	wordpools/wasnorm_wordpool_576.txt	LTP250	ltpFR2	16	20	AWARD	63	n/a	n/a	0	0	0
4224.316	n/a	START	2112158	n/a	LTP250	ltpFR2	16	n/a	n/a	n/a	30	n/a	n/a	n/a	n/a
4225.342	n/a	DISTRACTOR	2112671	n/a	LTP250	ltpFR2	16	20	n/a	n/a	n/a	n/a	0	0	0
4225.35	n/a	PROB	2112675	n/a	LTP250	ltpFR2	16	n/a	n/a	n/a	30	20	8	5	7
4229.35	n/a	PROB	2114675	n/a	LTP250	ltpFR2	16	n/a	n/a	n/a	30	14	4	1	9
4231.606	n/a	PROB	2115803	n/a	LTP250	ltpFR2	16	n/a	n/a	n/a	30	17	8	8	1
4233.888	n/a	PROB	2116944	n/a	LTP250	ltpFR2	16	n/a	n/a	n/a	30	4	1	2	1
4235.356	n/a	PROB	2117678	n/a	LTP250	ltpFR2	16	n/a	n/a	n/a	30	9	5	2	2
4236.874	n/a	PROB	2118437	n/a	LTP250	ltpFR2	16	n/a	n/a	n/a	30	17	7	6	2
4240.512	n/a	PROB	2120256	n/a	LTP250	ltpFR2	16	n/a	n/a	n/a	30	22	9	6	8
4243.28	n/a	PROB	2121640	n/a	LTP250	ltpFR2	16	n/a	n/a	n/a	30	8	2	4	2
4245.314	n/a	PROB	2122657	n/a	LTP250	ltpFR2	16	n/a	n/a	n/a	30	23	6	8	9
4247.258	n/a	STOP	2123629	n/a	LTP250	ltpFR2	16	n/a	n/a	n/a	30	n/a	n/a	n/a	n/a
4250.12	n/a	REC_START	2125060	n/a	LTP250	ltpFR2	16	20	n/a	n/a	n/a	n/a	0	0	0
4250.428	n/a	REC_WORD	2125214	wordpools/wasnorm_wordpool_576.txt	LTP250	ltpFR2	16	20	IGLOO	734	n/a	n/a	0	0	0
4250.958	n/a	REC_WORD	2125479	wordpools/wasnorm_wordpool_576.txt	LTP250	ltpFR2	16	20	VIRUS	1572	n/a	n/a	0	0	0
4251.61	n/a	REC_WORD	2125805	wordpools/wasnorm_wordpool_576.txt	LTP250	ltpFR2	16	20	BLEACH	-1	n/a	n/a	0	0	0
4252.146	n/a	REC_WORD	2126073	wordpools/wasnorm_wordpool_576.txt	LTP250	ltpFR2	16	20	SCOTCH	1251	n/a	n/a	0	0	0
4253.094	n/a	REC_WORD	2126547	wordpools/wasnorm_wordpool_576.txt	LTP250	ltpFR2	16	20	AWARD	63	n/a	n/a	0	0	0
4340.554	n/a	DISTRACTOR	2170277	n/a	LTP250	ltpFR2	16	21	n/a	n/a	n/a	n/a	0	0	0
4340.554	n/a	START	2170277	n/a	LTP250	ltpFR2	16	n/a	n/a	n/a	31	n/a	n/a	n/a	n/a
4340.568	n/a	PROB	2170284	n/a	LTP250	ltpFR2	16	n/a	n/a	n/a	31	18	1	8	9
4342.826	n/a	PROB	2171413	n/a	LTP250	ltpFR2	16	n/a	n/a	n/a	31	16	6	8	2
4344.612	n/a	PROB	2172306	n/a	LTP250	ltpFR2	16	n/a	n/a	n/a	31	21	6	7	8
4348.53	n/a	PROB	2174265	n/a	LTP250	ltpFR2	16	n/a	n/a	n/a	31	19	7	3	9
4350.146	n/a	PROB	2175073	n/a	LTP250	ltpFR2	16	n/a	n/a	n/a	31	18	9	6	3
4352.848	n/a	PROB	2176424	n/a	LTP250	ltpFR2	16	n/a	n/a	n/a	31	16	6	7	3
4354.982	n/a	PROB	2177491	n/a	LTP250	ltpFR2	16	n/a	n/a	n/a	31	13	1	6	6
4356.92	n/a	PROB	2178460	n/a	LTP250	ltpFR2	16	n/a	n/a	n/a	31	7	2	4	1
4360.256	n/a	PROB	2180128	n/a	LTP250	ltpFR2	16	n/a	n/a	n/a	31	19	8	3	8
4364.552	n/a	STOP	2182276	n/a	LTP250	ltpFR2	16	n/a	n/a	n/a	31	n/a	n/a	n/a	n/a
4365.722	n/a	WORD	2182861	wordpools/wasnorm_wordpool_576.txt	LTP250	ltpFR2	16	21	LADDER	793	n/a	n/a	0	0	0
4368.224	n/a	WORD	2184112	wordpools/wasnorm_wordpool_576.txt	LTP250	ltpFR2	16	21	GLOBE	641	n/a	n/a	0	0	0
4370.926	n/a	WORD	2185463	wordpools/wasnorm_wordpool_576.txt	LTP250	ltpFR2	16	21	OZONE	996	n/a	n/a	0	0	0
4373.546	n/a	WORD	2186773	wordpools/wasnorm_wordpool_576.txt	LTP250	ltpFR2	16	21	PUDDING	1139	n/a	n/a	0	0	0
4376.264	n/a	WORD	2188132	wordpools/wasnorm_wordpool_576.txt	LTP250	ltpFR2	16	21	VELVET	1555	n/a	n/a	0	0	0
4378.834	n/a	WORD	2189417	wordpools/wasnorm_wordpool_576.txt	LTP250	ltpFR2	16	21	NIGHTGOWN	953	n/a	n/a	0	0	0
4381.52	n/a	WORD	2190760	wordpools/wasnorm_wordpool_576.txt	LTP250	ltpFR2	16	21	TURKEY	1520	n/a	n/a	0	0	0
4384.104	n/a	WORD	2192052	wordpools/wasnorm_wordpool_576.txt	LTP250	ltpFR2	16	21	BREAST	171	n/a	n/a	0	0	0
4386.692	n/a	WORD	2193346	wordpools/wasnorm_wordpool_576.txt	LTP250	ltpFR2	16	21	FRAME	600	n/a	n/a	0	0	0
4389.276	n/a	WORD	2194638	wordpools/wasnorm_wordpool_576.txt	LTP250	ltpFR2	16	21	ICEBERG	731	n/a	n/a	0	0	0
4392.044	n/a	WORD	2196022	wordpools/wasnorm_wordpool_576.txt	LTP250	ltpFR2	16	21	FUNGUS	614	n/a	n/a	0	0	0
4394.814	n/a	WORD	2197407	wordpools/wasnorm_wordpool_576.txt	LTP250	ltpFR2	16	21	DRESSER	496	n/a	n/a	0	0	0
4397.468	n/a	WORD	2198734	wordpools/wasnorm_wordpool_576.txt	LTP250	ltpFR2	16	21	BUG	187	n/a	n/a	0	0	0
4400.25	n/a	WORD	2200125	wordpools/wasnorm_wordpool_576.txt	LTP250	ltpFR2	16	21	EXPERT	543	n/a	n/a	0	0	0
4402.986	n/a	WORD	2201493	wordpools/wasnorm_wordpool_576.txt	LTP250	ltpFR2	16	21	SKETCH	1315	n/a	n/a	0	0	0
4405.59	n/a	WORD	2202795	wordpools/wasnorm_wordpool_576.txt	LTP250	ltpFR2	16	21	SUITCASE	1403	n/a	n/a	0	0	0
4408.358	n/a	WORD	2204179	wordpools/wasnorm_wordpool_576.txt	LTP250	ltpFR2	16	21	BUNNY	198	n/a	n/a	0	0	0
4410.91	n/a	WORD	2205455	wordpools/wasnorm_wordpool_576.txt	LTP250	ltpFR2	16	21	BADGE	68	n/a	n/a	0	0	0
4413.464	n/a	WORD	2206732	wordpools/wasnorm_wordpool_576.txt	LTP250	ltpFR2	16	21	GROUND	666	n/a	n/a	0	0	0
4416.048	n/a	WORD	2208024	wordpools/wasnorm_wordpool_576.txt	LTP250	ltpFR2	16	21	PADDING	999	n/a	n/a	0	0	0
4418.618	n/a	WORD	2209309	wordpools/wasnorm_wordpool_576.txt	LTP250	ltpFR2	16	21	SAUSAGE	1238	n/a	n/a	0	0	0
4421.386	n/a	WORD	2210693	wordpools/wasnorm_wordpool_576.txt	LTP250	ltpFR2	16	21	WITNESS	1618	n/a	n/a	0	0	0
4424.188	n/a	WORD	2212094	wordpools/wasnorm_wordpool_576.txt	LTP250	ltpFR2	16	21	JUDGE	761	n/a	n/a	0	0	0
4426.89	n/a	WORD	2213445	wordpools/wasnorm_wordpool_576.txt	LTP250	ltpFR2	16	21	FOREHEAD	592	n/a	n/a	0	0	0
4428.51	n/a	START	2214255	n/a	LTP250	ltpFR2	16	n/a	n/a	n/a	32	n/a	n/a	n/a	n/a
4429.64	n/a	DISTRACTOR	2214820	n/a	LTP250	ltpFR2	16	21	n/a	n/a	n/a	n/a	0	0	0
4429.644	n/a	PROB	2214822	n/a	LTP250	ltpFR2	16	n/a	n/a	n/a	32	23	9	6	8
4435.146	n/a	PROB	2217573	n/a	LTP250	ltpFR2	16	n/a	n/a	n/a	32	22	8	6	8
4437.75	n/a	PROB	2218875	n/a	LTP250	ltpFR2	16	n/a	n/a	n/a	32	20	5	9	6
4439.898	n/a	PROB	2219949	n/a	LTP250	ltpFR2	16	n/a	n/a	n/a	32	14	3	6	5
4442.968	n/a	PROB	2221484	n/a	LTP250	ltpFR2	16	n/a	n/a	n/a	32	14	4	1	9
4444.754	n/a	PROB	2222377	n/a	LTP250	ltpFR2	16	n/a	n/a	n/a	32	18	5	6	7
4447.938	n/a	PROB	2223969	n/a	LTP250	ltpFR2	16	n/a	n/a	n/a	32	15	6	6	3
4449.874	n/a	PROB	2224937	n/a	LTP250	ltpFR2	16	n/a	n/a	n/a	32	16	1	9	6
4451.75	n/a	STOP	2225875	n/a	LTP250	ltpFR2	16	n/a	n/a	n/a	32	n/a	n/a	n/a	n/a
4454.43	n/a	REC_START	2227215	n/a	LTP250	ltpFR2	16	21	n/a	n/a	n/a	n/a	0	0	0
4456.45	n/a	REC_WORD	2228225	wordpools/wasnorm_wordpool_576.txt	LTP250	ltpFR2	16	21	NIGHTGOWN	953	n/a	n/a	0	0	0
4457.554	n/a	REC_WORD	2228777	wordpools/wasnorm_wordpool_576.txt	LTP250	ltpFR2	16	21	VELVET	1555	n/a	n/a	0	0	0
4458.322	n/a	REC_WORD	2229161	wordpools/wasnorm_wordpool_576.txt	LTP250	ltpFR2	16	21	PADDING	999	n/a	n/a	0	0	0
4460.28	n/a	REC_WORD	2230140	wordpools/wasnorm_wordpool_576.txt	LTP250	ltpFR2	16	21	GROUND	666	n/a	n/a	0	0	0
4462.534	n/a	REC_WORD	2231267	wordpools/wasnorm_wordpool_576.txt	LTP250	ltpFR2	16	21	BUNNY	198	n/a	n/a	0	0	0
4544.864	n/a	WORD	2272432	wordpools/wasnorm_wordpool_576.txt	LTP250	ltpFR2	16	22	DIME	466	n/a	n/a	0	0	0
4547.31	n/a	WORD	2273655	wordpools/wasnorm_wordpool_576.txt	LTP250	ltpFR2	16	22	MAMMAL	861	n/a	n/a	0	0	0
4549.82	n/a	WORD	2274910	wordpools/wasnorm_wordpool_576.txt	LTP250	ltpFR2	16	22	CUPBOARD	425	n/a	n/a	0	0	0
4552.556	n/a	WORD	2276278	wordpools/wasnorm_wordpool_576.txt	LTP250	ltpFR2	16	22	TOURIST	1488	n/a	n/a	0	0	0
4555.066	n/a	WORD	2277533	wordpools/wasnorm_wordpool_576.txt	LTP250	ltpFR2	16	22	PILOT	1070	n/a	n/a	0	0	0
4557.82	n/a	WORD	2278910	wordpools/wasnorm_wordpool_576.txt	LTP250	ltpFR2	16	22	PUPIL	1143	n/a	n/a	0	0	0
4560.59	n/a	WORD	2280295	wordpools/wasnorm_wordpool_576.txt	LTP250	ltpFR2	16	22	PARSLEY	1016	n/a	n/a	0	0	0
4563.324	n/a	WORD	2281662	wordpools/wasnorm_wordpool_576.txt	LTP250	ltpFR2	16	22	SLIME	1327	n/a	n/a	0	0	0
4565.9	n/a	WORD	2282950	wordpools/wasnorm_wordpool_576.txt	LTP250	ltpFR2	16	22	STAMP	1370	n/a	n/a	0	0	0
4568.652	n/a	WORD	2284326	wordpools/wasnorm_wordpool_576.txt	LTP250	ltpFR2	16	22	SPIDER	1351	n/a	n/a	0	0	0
4571.264	n/a	WORD	2285632	wordpools/wasnorm_wordpool_576.txt	LTP250	ltpFR2	16	22	PICNIC	1060	n/a	n/a	0	0	0
4573.822	n/a	WORD	2286911	wordpools/wasnorm_wordpool_576.txt	LTP250	ltpFR2	16	22	CARROT	249	n/a	n/a	0	0	0
4576.518	n/a	WORD	2288259	wordpools/wasnorm_wordpool_576.txt	LTP250	ltpFR2	16	22	FLIPPER	580	n/a	n/a	0	0	0
4579.16	n/a	WORD	2289580	wordpools/wasnorm_wordpool_576.txt	LTP250	ltpFR2	16	22	HEDGE	699	n/a	n/a	0	0	0
4581.922	n/a	WORD	2290961	wordpools/wasnorm_wordpool_576.txt	LTP250	ltpFR2	16	22	FLASK	576	n/a	n/a	0	0	0
4584.398	n/a	WORD	2292199	wordpools/wasnorm_wordpool_576.txt	LTP250	ltpFR2	16	22	DAUGHTER	442	n/a	n/a	0	0	0
4586.96	n/a	WORD	2293480	wordpools/wasnorm_wordpool_576.txt	LTP250	ltpFR2	16	22	HOUND	724	n/a	n/a	0	0	0
4589.73	n/a	WORD	2294865	wordpools/wasnorm_wordpool_576.txt	LTP250	ltpFR2	16	22	VAGRANT	1544	n/a	n/a	0	0	0
4592.298	n/a	WORD	2296149	wordpools/wasnorm_wordpool_576.txt	LTP250	ltpFR2	16	22	ORANGE	980	n/a	n/a	0	0	0
4594.95	n/a	WORD	2297475	wordpools/wasnorm_wordpool_576.txt	LTP250	ltpFR2	16	22	CLOCK	325	n/a	n/a	0	0	0
4597.436	n/a	WORD	2298718	wordpools/wasnorm_wordpool_576.txt	LTP250	ltpFR2	16	22	PLAYGROUND	1087	n/a	n/a	0	0	0
4599.938	n/a	WORD	2299969	wordpools/wasnorm_wordpool_576.txt	LTP250	ltpFR2	16	22	CASKET	255	n/a	n/a	0	0	0
4602.59	n/a	WORD	2301295	wordpools/wasnorm_wordpool_576.txt	LTP250	ltpFR2	16	22	CHAMPAGNE	278	n/a	n/a	0	0	0
4605.214	n/a	WORD	2302607	wordpools/wasnorm_wordpool_576.txt	LTP250	ltpFR2	16	22	DRINK	498	n/a	n/a	0	0	0
4606.828	n/a	START	2303414	n/a	LTP250	ltpFR2	16	n/a	n/a	n/a	33	n/a	n/a	n/a	n/a
4607.808	n/a	DISTRACTOR	2303904	n/a	LTP250	ltpFR2	16	22	n/a	n/a	n/a	n/a	0	0	0
4630.828	n/a	STOP	2315414	n/a	LTP250	ltpFR2	16	n/a	n/a	n/a	33	n/a	n/a	n/a	n/a
4632.718	n/a	REC_START	2316359	n/a	LTP250	ltpFR2	16	22	n/a	n/a	n/a	n/a	0	0	0
4643.176	n/a	REC_WORD	2321588	wordpools/wasnorm_wordpool_576.txt	LTP250	ltpFR2	16	22	CASKET	255	n/a	n/a	0	0	0
4645.356	n/a	REC_WORD	2322678	wordpools/wasnorm_wordpool_576.txt	LTP250	ltpFR2	16	22	CLOCK	325	n/a	n/a	0	0	0
4647.56	n/a	REC_WORD	2323780	wordpools/wasnorm_wordpool_576.txt	LTP250	ltpFR2	16	22	CARROT	249	n/a	n/a	0	0	0
4653.52	n/a	REC_WORD	2326760	wordpools/wasnorm_wordpool_576.txt	LTP250	ltpFR2	16	22	PARSLEY	1016	n/a	n/a	0	0	0
4656.196	n/a	REC_WORD	2328098	wordpools/wasnorm_wordpool_576.txt	LTP250	ltpFR2	16	22	PICNIC	1060	n/a	n/a	0	0	0
4723.172	n/a	WORD	2361586	wordpools/wasnorm_wordpool_576.txt	LTP250	ltpFR2	16	23	TURTLE	1522	n/a	n/a	0	0	0
4725.79	n/a	WORD	2362895	wordpools/wasnorm_wordpool_576.txt	LTP250	ltpFR2	16	23	POWDER	1117	n/a	n/a	0	0	0
4728.56	n/a	WORD	2364280	wordpools/wasnorm_wordpool_576.txt	LTP250	ltpFR2	16	23	ZIPPER	1636	n/a	n/a	0	0	0
4731.094	n/a	WORD	2365547	wordpools/wasnorm_wordpool_576.txt	LTP250	ltpFR2	16	23	PORK	1108	n/a	n/a	0	0	0
4733.764	n/a	WORD	2366882	wordpools/wasnorm_wordpool_576.txt	LTP250	ltpFR2	16	23	BACON	67	n/a	n/a	0	0	0
4736.438	n/a	WORD	2368219	wordpools/wasnorm_wordpool_576.txt	LTP250	ltpFR2	16	23	POSSUM	1112	n/a	n/a	0	0	0
4738.99	n/a	WORD	2369495	wordpools/wasnorm_wordpool_576.txt	LTP250	ltpFR2	16	23	WIDOW	1608	n/a	n/a	0	0	0
4741.652	n/a	WORD	2370826	wordpools/wasnorm_wordpool_576.txt	LTP250	ltpFR2	16	23	FARMER	553	n/a	n/a	0	0	0
4744.378	n/a	WORD	2372189	wordpools/wasnorm_wordpool_576.txt	LTP250	ltpFR2	16	23	MATTRESS	879	n/a	n/a	0	0	0
4747.08	n/a	WORD	2373540	wordpools/wasnorm_wordpool_576.txt	LTP250	ltpFR2	16	23	YARN	1631	n/a	n/a	0	0	0
4749.682	n/a	WORD	2374841	wordpools/wasnorm_wordpool_576.txt	LTP250	ltpFR2	16	23	MISSILE	900	n/a	n/a	0	0	0
4752.428	n/a	WORD	2376214	wordpools/wasnorm_wordpool_576.txt	LTP250	ltpFR2	16	23	SLOPE	1328	n/a	n/a	0	0	0
4755.046	n/a	WORD	2377523	wordpools/wasnorm_wordpool_576.txt	LTP250	ltpFR2	16	23	COURSE	390	n/a	n/a	0	0	0
4757.832	n/a	WORD	2378916	wordpools/wasnorm_wordpool_576.txt	LTP250	ltpFR2	16	23	COLLEGE	346	n/a	n/a	0	0	0
4760.252	n/a	WORD	2380126	wordpools/wasnorm_wordpool_576.txt	LTP250	ltpFR2	16	23	AIRPORT	13	n/a	n/a	0	0	0
4762.76	n/a	WORD	2381380	wordpools/wasnorm_wordpool_576.txt	LTP250	ltpFR2	16	23	CRIB	407	n/a	n/a	0	0	0
4765.222	n/a	WORD	2382611	wordpools/wasnorm_wordpool_576.txt	LTP250	ltpFR2	16	23	WIFE	1609	n/a	n/a	0	0	0
