mstime	trial_type	stim_file	subject	experiment	session	trial	item_name	item_num	list	answer	test_x	test_y	test_z
0	SESS_START	n/a	LTP377	ltpFR2	11	n/a	n/a	n/a	n/a	n/a	0	0	0
22742	START	n/a	LTP377	ltpFR2	11	n/a	n/a	n/a	-1	n/a	n/a	n/a	n/a
22772	PROB	n/a	LTP377	ltpFR2	11	n/a	n/a	n/a	-1	9	3	1	5
24688	PROB	n/a	LTP377	ltpFR2	11	n/a	n/a	n/a	-1	14	5	2	7
26337	PROB	n/a	LTP377	ltpFR2	11	n/a	n/a	n/a	-1	6	4	1	1
27570	PROB	n/a	LTP377	ltpFR2	11	n/a	n/a	n/a	-1	15	8	1	6
29103	PROB	n/a	LTP377	ltpFR2	11	n/a	n/a	n/a	-1	14	5	4	5
30569	PROB	n/a	LTP377	ltpFR2	11	n/a	n/a	n/a	-1	12	4	6	2
31952	PROB	n/a	LTP377	ltpFR2	11	n/a	n/a	n/a	-1	15	5	6	4
33570	STOP	n/a	LTP377	ltpFR2	11	n/a	n/a	n/a	-1	n/a	n/a	n/a	n/a
92157	WORD	wordpools/wasnorm_wordpool_576.txt	LTP377	ltpFR2	11	1	BALLOON	75	n/a	n/a	0	0	0
94589	WORD	wordpools/wasnorm_wordpool_576.txt	LTP377	ltpFR2	11	1	MISTER	901	n/a	n/a	0	0	0
97371	WORD	wordpools/wasnorm_wordpool_576.txt	LTP377	ltpFR2	11	1	POSTAGE	1113	n/a	n/a	0	0	0
99937	WORD	wordpools/wasnorm_wordpool_576.txt	LTP377	ltpFR2	11	1	CONTRACT	368	n/a	n/a	0	0	0
102535	WORD	wordpools/wasnorm_wordpool_576.txt	LTP377	ltpFR2	11	1	BANKER	84	n/a	n/a	0	0	0
105201	WORD	wordpools/wasnorm_wordpool_576.txt	LTP377	ltpFR2	11	1	HONEY	713	n/a	n/a	0	0	0
107967	WORD	wordpools/wasnorm_wordpool_576.txt	LTP377	ltpFR2	11	1	XEROX	1628	n/a	n/a	0	0	0
110531	WORD	wordpools/wasnorm_wordpool_576.txt	LTP377	ltpFR2	11	1	HOSTESS	723	n/a	n/a	0	0	0
113065	WORD	wordpools/wasnorm_wordpool_576.txt	LTP377	ltpFR2	11	1	JUNGLE	764	n/a	n/a	0	0	0
115562	WORD	wordpools/wasnorm_wordpool_576.txt	LTP377	ltpFR2	11	1	ITEM	746	n/a	n/a	0	0	0
117996	WORD	wordpools/wasnorm_wordpool_576.txt	LTP377	ltpFR2	11	1	PANTHER	1009	n/a	n/a	0	0	0
120677	WORD	wordpools/wasnorm_wordpool_576.txt	LTP377	ltpFR2	11	1	NIGHTGOWN	953	n/a	n/a	0	0	0
123259	WORD	wordpools/wasnorm_wordpool_576.txt	LTP377	ltpFR2	11	1	MATTRESS	879	n/a	n/a	0	0	0
126025	WORD	wordpools/wasnorm_wordpool_576.txt	LTP377	ltpFR2	11	1	FINGER	567	n/a	n/a	0	0	0
128706	WORD	wordpools/wasnorm_wordpool_576.txt	LTP377	ltpFR2	11	1	RATTLE	1170	n/a	n/a	0	0	0
131522	WORD	wordpools/wasnorm_wordpool_576.txt	LTP377	ltpFR2	11	1	INFANT	737	n/a	n/a	0	0	0
134005	WORD	wordpools/wasnorm_wordpool_576.txt	LTP377	ltpFR2	11	1	REBEL	1172	n/a	n/a	0	0	0
136569	WORD	wordpools/wasnorm_wordpool_576.txt	LTP377	ltpFR2	11	1	FRAME	600	n/a	n/a	0	0	0
139103	WORD	wordpools/wasnorm_wordpool_576.txt	LTP377	ltpFR2	11	1	POPCORN	1104	n/a	n/a	0	0	0
141550	WORD	wordpools/wasnorm_wordpool_576.txt	LTP377	ltpFR2	11	1	CAMEL	223	n/a	n/a	0	0	0
144117	WORD	wordpools/wasnorm_wordpool_576.txt	LTP377	ltpFR2	11	1	DANDRUFF	439	n/a	n/a	0	0	0
146781	WORD	wordpools/wasnorm_wordpool_576.txt	LTP377	ltpFR2	11	1	MAILMAN	858	n/a	n/a	0	0	0
149513	WORD	wordpools/wasnorm_wordpool_576.txt	LTP377	ltpFR2	11	1	DRAWING	494	n/a	n/a	0	0	0
152130	WORD	wordpools/wasnorm_wordpool_576.txt	LTP377	ltpFR2	11	1	BLENDER	136	n/a	n/a	0	0	0
153745	START	n/a	LTP377	ltpFR2	11	n/a	n/a	n/a	1	n/a	n/a	n/a	n/a
154877	DISTRACTOR	n/a	LTP377	ltpFR2	11	1	n/a	n/a	n/a	n/a	0	0	0
154894	PROB	n/a	LTP377	ltpFR2	11	n/a	n/a	n/a	1	11	1	4	6
156377	PROB	n/a	LTP377	ltpFR2	11	n/a	n/a	n/a	1	21	9	6	6
158409	PROB	n/a	LTP377	ltpFR2	11	n/a	n/a	n/a	1	5	1	2	2
159943	PROB	n/a	LTP377	ltpFR2	11	n/a	n/a	n/a	1	12	2	6	4
161225	PROB	n/a	LTP377	ltpFR2	11	n/a	n/a	n/a	1	13	2	3	8
162674	PROB	n/a	LTP377	ltpFR2	11	n/a	n/a	n/a	1	13	4	6	3
163824	PROB	n/a	LTP377	ltpFR2	11	n/a	n/a	n/a	1	25	9	7	9
166356	PROB	n/a	LTP377	ltpFR2	11	n/a	n/a	n/a	1	13	8	2	3
168073	PROB	n/a	LTP377	ltpFR2	11	n/a	n/a	n/a	1	23	8	9	6
171670	PROB	n/a	LTP377	ltpFR2	11	n/a	n/a	n/a	1	15	3	6	6
173552	PROB	n/a	LTP377	ltpFR2	11	n/a	n/a	n/a	1	17	3	8	6
176806	STOP	n/a	LTP377	ltpFR2	11	n/a	n/a	n/a	1	n/a	n/a	n/a	n/a
179650	REC_START	n/a	LTP377	ltpFR2	11	1	n/a	n/a	n/a	n/a	0	0	0
180185	REC_WORD	wordpools/wasnorm_wordpool_576.txt	LTP377	ltpFR2	11	1	BALLOON	75	n/a	n/a	0	0	0
181192	REC_WORD	wordpools/wasnorm_wordpool_576.txt	LTP377	ltpFR2	11	1	MISTER	901	n/a	n/a	0	0	0
183882	REC_WORD	wordpools/wasnorm_wordpool_576.txt	LTP377	ltpFR2	11	1	BANKER	84	n/a	n/a	0	0	0
186740	REC_WORD	wordpools/wasnorm_wordpool_576.txt	LTP377	ltpFR2	11	1	HONEY	713	n/a	n/a	0	0	0
188996	REC_WORD	wordpools/wasnorm_wordpool_576.txt	LTP377	ltpFR2	11	1	INFANT	737	n/a	n/a	0	0	0
190092	REC_WORD	wordpools/wasnorm_wordpool_576.txt	LTP377	ltpFR2	11	1	HOSTESS	723	n/a	n/a	0	0	0
192243	REC_WORD	wordpools/wasnorm_wordpool_576.txt	LTP377	ltpFR2	11	1	ITEM	746	n/a	n/a	0	0	0
193227	REC_WORD	wordpools/wasnorm_wordpool_576.txt	LTP377	ltpFR2	11	1	PANTHER	1009	n/a	n/a	0	0	0
194324	REC_WORD	wordpools/wasnorm_wordpool_576.txt	LTP377	ltpFR2	11	1	NIGHTGOWN	953	n/a	n/a	0	0	0
196420	REC_WORD	wordpools/wasnorm_wordpool_576.txt	LTP377	ltpFR2	11	1	POPCORN	1104	n/a	n/a	0	0	0
199159	REC_WORD	wordpools/wasnorm_wordpool_576.txt	LTP377	ltpFR2	11	1	XEROX	1628	n/a	n/a	0	0	0
208164	REC_WORD_VV	wordpools/wasnorm_wordpool_576.txt	LTP377	ltpFR2	11	1	<>	-1	n/a	n/a	0	0	0
230176	REC_WORD	wordpools/wasnorm_wordpool_576.txt	LTP377	ltpFR2	11	1	POSTAGE	1113	n/a	n/a	0	0	0
231025	REC_WORD	wordpools/wasnorm_wordpool_576.txt	LTP377	ltpFR2	11	1	MAILMAN	858	n/a	n/a	0	0	0
231858	REC_WORD	wordpools/wasnorm_wordpool_576.txt	LTP377	ltpFR2	11	1	CAMEL	223	n/a	n/a	0	0	0
270092	DISTRACTOR	n/a	LTP377	ltpFR2	11	2	n/a	n/a	n/a	n/a	0	0	0
270092	START	n/a	LTP377	ltpFR2	11	n/a	n/a	n/a	2	n/a	n/a	n/a	n/a
270109	PROB	n/a	LTP377	ltpFR2	11	n/a	n/a	n/a	2	13	3	9	1
273706	PROB	n/a	LTP377	ltpFR2	11	n/a	n/a	n/a	2	16	6	8	2
275238	PROB	n/a	LTP377	ltpFR2	11	n/a	n/a	n/a	2	16	3	5	8
277122	PROB	n/a	LTP377	ltpFR2	11	n/a	n/a	n/a	2	15	4	9	2
279104	PROB	n/a	LTP377	ltpFR2	11	n/a	n/a	n/a	2	11	5	1	5
280369	PROB	n/a	LTP377	ltpFR2	11	n/a	n/a	n/a	2	10	3	5	2
282752	PROB	n/a	LTP377	ltpFR2	11	n/a	n/a	n/a	2	13	4	3	6
285251	PROB	n/a	LTP377	ltpFR2	11	n/a	n/a	n/a	2	9	4	2	3
288516	PROB	n/a	LTP377	ltpFR2	11	n/a	n/a	n/a	2	15	8	3	4
290932	PROB	n/a	LTP377	ltpFR2	11	n/a	n/a	n/a	2	9	3	1	5
294092	STOP	n/a	LTP377	ltpFR2	11	n/a	n/a	n/a	2	n/a	n/a	n/a	n/a
295047	WORD	wordpools/wasnorm_wordpool_576.txt	LTP377	ltpFR2	11	2	GAVEL	627	n/a	n/a	0	0	0
297745	WORD	wordpools/wasnorm_wordpool_576.txt	LTP377	ltpFR2	11	2	PEBBLE	1035	n/a	n/a	0	0	0
300277	WORD	wordpools/wasnorm_wordpool_576.txt	LTP377	ltpFR2	11	2	PEANUT	1032	n/a	n/a	0	0	0
302927	WORD	wordpools/wasnorm_wordpool_576.txt	LTP377	ltpFR2	11	2	SISTER	1312	n/a	n/a	0	0	0
305574	WORD	wordpools/wasnorm_wordpool_576.txt	LTP377	ltpFR2	11	2	ASIA	46	n/a	n/a	0	0	0
308157	WORD	wordpools/wasnorm_wordpool_576.txt	LTP377	ltpFR2	11	2	POET	1095	n/a	n/a	0	0	0
310805	WORD	wordpools/wasnorm_wordpool_576.txt	LTP377	ltpFR2	11	2	SCARF	1246	n/a	n/a	0	0	0
313521	WORD	wordpools/wasnorm_wordpool_576.txt	LTP377	ltpFR2	11	2	MUFFIN	929	n/a	n/a	0	0	0
316286	WORD	wordpools/wasnorm_wordpool_576.txt	LTP377	ltpFR2	11	2	PROTON	1132	n/a	n/a	0	0	0
318835	WORD	wordpools/wasnorm_wordpool_576.txt	LTP377	ltpFR2	11	2	NEUTRON	947	n/a	n/a	0	0	0
321517	WORD	wordpools/wasnorm_wordpool_576.txt	LTP377	ltpFR2	11	2	SHORTS	1293	n/a	n/a	0	0	0
323967	WORD	wordpools/wasnorm_wordpool_576.txt	LTP377	ltpFR2	11	2	POCKET	1093	n/a	n/a	0	0	0
326531	WORD	wordpools/wasnorm_wordpool_576.txt	LTP377	ltpFR2	11	2	BLOUSE	139	n/a	n/a	0	0	0
329147	WORD	wordpools/wasnorm_wordpool_576.txt	LTP377	ltpFR2	11	2	CITRUS	313	n/a	n/a	0	0	0
331762	WORD	wordpools/wasnorm_wordpool_576.txt	LTP377	ltpFR2	11	2	STONE	1385	n/a	n/a	0	0	0
334494	WORD	wordpools/wasnorm_wordpool_576.txt	LTP377	ltpFR2	11	2	BINDER	127	n/a	n/a	0	0	0
337210	WORD	wordpools/wasnorm_wordpool_576.txt	LTP377	ltpFR2	11	2	LAVA	804	n/a	n/a	0	0	0
339642	WORD	wordpools/wasnorm_wordpool_576.txt	LTP377	ltpFR2	11	2	LILY	821	n/a	n/a	0	0	0
342441	WORD	wordpools/wasnorm_wordpool_576.txt	LTP377	ltpFR2	11	2	CRATER	400	n/a	n/a	0	0	0
345090	WORD	wordpools/wasnorm_wordpool_576.txt	LTP377	ltpFR2	11	2	CRUTCH	417	n/a	n/a	0	0	0
347538	WORD	wordpools/wasnorm_wordpool_576.txt	LTP377	ltpFR2	11	2	CONCERT	360	n/a	n/a	0	0	0
350005	WORD	wordpools/wasnorm_wordpool_576.txt	LTP377	ltpFR2	11	2	SUITCASE	1403	n/a	n/a	0	0	0
352469	WORD	wordpools/wasnorm_wordpool_576.txt	LTP377	ltpFR2	11	2	AIRPORT	13	n/a	n/a	0	0	0
355168	WORD	wordpools/wasnorm_wordpool_576.txt	LTP377	ltpFR2	11	2	DUST	508	n/a	n/a	0	0	0
356784	START	n/a	LTP377	ltpFR2	11	n/a	n/a	n/a	3	n/a	n/a	n/a	n/a
357902	DISTRACTOR	n/a	LTP377	ltpFR2	11	2	n/a	n/a	n/a	n/a	0	0	0
357918	PROB	n/a	LTP377	ltpFR2	11	n/a	n/a	n/a	3	10	5	1	4
362415	PROB	n/a	LTP377	ltpFR2	11	n/a	n/a	n/a	3	8	2	5	1
364281	PROB	n/a	LTP377	ltpFR2	11	n/a	n/a	n/a	3	12	2	4	6
365846	PROB	n/a	LTP377	ltpFR2	11	n/a	n/a	n/a	3	11	5	5	1
367030	PROB	n/a	LTP377	ltpFR2	11	n/a	n/a	n/a	3	8	2	5	1
370328	PROB	n/a	LTP377	ltpFR2	11	n/a	n/a	n/a	3	16	8	1	7
372643	PROB	n/a	LTP377	ltpFR2	11	n/a	n/a	n/a	3	13	1	3	9
375742	PROB	n/a	LTP377	ltpFR2	11	n/a	n/a	n/a	3	18	8	3	7
377891	PROB	n/a	LTP377	ltpFR2	11	n/a	n/a	n/a	3	13	1	6	6
379174	PROB	n/a	LTP377	ltpFR2	11	n/a	n/a	n/a	3	12	6	2	4
380709	STOP	n/a	LTP377	ltpFR2	11	n/a	n/a	n/a	3	n/a	n/a	n/a	n/a
382656	REC_START	n/a	LTP377	ltpFR2	11	2	n/a	n/a	n/a	n/a	0	0	0
384391	REC_WORD	wordpools/wasnorm_wordpool_576.txt	LTP377	ltpFR2	11	2	GAVEL	627	n/a	n/a	0	0	0
386760	REC_WORD	wordpools/wasnorm_wordpool_576.txt	LTP377	ltpFR2	11	2	PEBBLE	1035	n/a	n/a	0	0	0
391021	REC_WORD	wordpools/wasnorm_wordpool_576.txt	LTP377	ltpFR2	11	2	SISTER	1312	n/a	n/a	0	0	0
392462	REC_WORD	wordpools/wasnorm_wordpool_576.txt	LTP377	ltpFR2	11	2	PEANUT	1032	n/a	n/a	0	0	0
395019	REC_WORD	wordpools/wasnorm_wordpool_576.txt	LTP377	ltpFR2	11	2	ASIA	46	n/a	n/a	0	0	0
396220	REC_WORD	wordpools/wasnorm_wordpool_576.txt	LTP377	ltpFR2	11	2	POET	1095	n/a	n/a	0	0	0
400115	REC_WORD	wordpools/wasnorm_wordpool_576.txt	LTP377	ltpFR2	11	2	SHORTS	1293	n/a	n/a	0	0	0
401047	REC_WORD	wordpools/wasnorm_wordpool_576.txt	LTP377	ltpFR2	11	2	POCKET	1093	n/a	n/a	0	0	0
403768	REC_WORD	wordpools/wasnorm_wordpool_576.txt	LTP377	ltpFR2	11	2	STONE	1385	n/a	n/a	0	0	0
405079	REC_WORD	wordpools/wasnorm_wordpool_576.txt	LTP377	ltpFR2	11	2	BLOUSE	139	n/a	n/a	0	0	0
411087	REC_WORD	wordpools/wasnorm_wordpool_576.txt	LTP377	ltpFR2	11	2	CRUTCH	417	n/a	n/a	0	0	0
412032	REC_WORD	wordpools/wasnorm_wordpool_576.txt	LTP377	ltpFR2	11	2	CONCERT	360	n/a	n/a	0	0	0
414794	REC_WORD	wordpools/wasnorm_wordpool_576.txt	LTP377	ltpFR2	11	2	SUITCASE	1403	n/a	n/a	0	0	0
415644	REC_WORD	wordpools/wasnorm_wordpool_576.txt	LTP377	ltpFR2	11	2	AIRPORT	13	n/a	n/a	0	0	0
416384	REC_WORD	wordpools/wasnorm_wordpool_576.txt	LTP377	ltpFR2	11	2	DUST	508	n/a	n/a	0	0	0
427258	REC_WORD	wordpools/wasnorm_wordpool_576.txt	LTP377	ltpFR2	11	2	CITRUS	313	n/a	n/a	0	0	0
473081	DISTRACTOR	n/a	LTP377	ltpFR2	11	3	n/a	n/a	n/a	n/a	0	0	0
473081	START	n/a	LTP377	ltpFR2	11	n/a	n/a	n/a	4	n/a	n/a	n/a	n/a
473098	PROB	n/a	LTP377	ltpFR2	11	n/a	n/a	n/a	4	13	4	6	3
475362	PROB	n/a	LTP377	ltpFR2	11	n/a	n/a	n/a	4	14	5	4	5
476712	PROB	n/a	LTP377	ltpFR2	11	n/a	n/a	n/a	4	15	9	2	4
478544	PROB	n/a	LTP377	ltpFR2	11	n/a	n/a	n/a	4	14	6	4	4
479911	PROB	n/a	LTP377	ltpFR2	11	n/a	n/a	n/a	4	23	8	7	8
481560	PROB	n/a	LTP377	ltpFR2	11	n/a	n/a	n/a	4	15	2	7	6
485158	PROB	n/a	LTP377	ltpFR2	11	n/a	n/a	n/a	4	19	3	8	8
487041	PROB	n/a	LTP377	ltpFR2	11	n/a	n/a	n/a	4	8	4	3	1
489107	PROB	n/a	LTP377	ltpFR2	11	n/a	n/a	n/a	4	25	8	9	8
495420	PROB	n/a	LTP377	ltpFR2	11	n/a	n/a	n/a	4	13	1	8	4
496881	STOP	n/a	LTP377	ltpFR2	11	n/a	n/a	n/a	4	n/a	n/a	n/a	n/a
498152	WORD	wordpools/wasnorm_wordpool_576.txt	LTP377	ltpFR2	11	3	POLICE	1098	n/a	n/a	0	0	0
500817	WORD	wordpools/wasnorm_wordpool_576.txt	LTP377	ltpFR2	11	3	GLOBE	641	n/a	n/a	0	0	0
503633	WORD	wordpools/wasnorm_wordpool_576.txt	LTP377	ltpFR2	11	3	PLUTO	1092	n/a	n/a	0	0	0
506431	WORD	wordpools/wasnorm_wordpool_576.txt	LTP377	ltpFR2	11	3	GUARD	667	n/a	n/a	0	0	0
509064	WORD	wordpools/wasnorm_wordpool_576.txt	LTP377	ltpFR2	11	3	CHAPEL	280	n/a	n/a	0	0	0
511829	WORD	wordpools/wasnorm_wordpool_576.txt	LTP377	ltpFR2	11	3	CREATURE	403	n/a	n/a	0	0	0
514411	WORD	wordpools/wasnorm_wordpool_576.txt	LTP377	ltpFR2	11	3	BEAVER	109	n/a	n/a	0	0	0
516994	WORD	wordpools/wasnorm_wordpool_576.txt	LTP377	ltpFR2	11	3	PLAZA	1088	n/a	n/a	0	0	0
519625	WORD	wordpools/wasnorm_wordpool_576.txt	LTP377	ltpFR2	11	3	THIEF	1456	n/a	n/a	0	0	0
522191	WORD	wordpools/wasnorm_wordpool_576.txt	LTP377	ltpFR2	11	3	GLOVE	642	n/a	n/a	0	0	0
524957	WORD	wordpools/wasnorm_wordpool_576.txt	LTP377	ltpFR2	11	3	SLIDE	1326	n/a	n/a	0	0	0
527588	WORD	wordpools/wasnorm_wordpool_576.txt	LTP377	ltpFR2	11	3	GANGSTER	620	n/a	n/a	0	0	0
530404	WORD	wordpools/wasnorm_wordpool_576.txt	LTP377	ltpFR2	11	3	CANYON	235	n/a	n/a	0	0	0
533136	WORD	wordpools/wasnorm_wordpool_576.txt	LTP377	ltpFR2	11	3	WARDROBE	1587	n/a	n/a	0	0	0
535651	WORD	wordpools/wasnorm_wordpool_576.txt	LTP377	ltpFR2	11	3	MISSILE	900	n/a	n/a	0	0	0
538333	WORD	wordpools/wasnorm_wordpool_576.txt	LTP377	ltpFR2	11	3	HAND	683	n/a	n/a	0	0	0
540815	WORD	wordpools/wasnorm_wordpool_576.txt	LTP377	ltpFR2	11	3	YARN	1631	n/a	n/a	0	0	0
543331	WORD	wordpools/wasnorm_wordpool_576.txt	LTP377	ltpFR2	11	3	ROOSTER	1209	n/a	n/a	0	0	0
545846	WORD	wordpools/wasnorm_wordpool_576.txt	LTP377	ltpFR2	11	3	LEG	809	n/a	n/a	0	0	0
548395	WORD	wordpools/wasnorm_wordpool_576.txt	LTP377	ltpFR2	11	3	PADDING	999	n/a	n/a	0	0	0
551177	WORD	wordpools/wasnorm_wordpool_576.txt	LTP377	ltpFR2	11	3	SLOPE	1328	n/a	n/a	0	0	0
553977	WORD	wordpools/wasnorm_wordpool_576.txt	LTP377	ltpFR2	11	3	EAGLE	512	n/a	n/a	0	0	0
556675	WORD	wordpools/wasnorm_wordpool_576.txt	LTP377	ltpFR2	11	3	MOP	916	n/a	n/a	0	0	0
559307	WORD	wordpools/wasnorm_wordpool_576.txt	LTP377	ltpFR2	11	3	CEILING	265	n/a	n/a	0	0	0
560924	START	n/a	LTP377	ltpFR2	11	n/a	n/a	n/a	5	n/a	n/a	n/a	n/a
561945	DISTRACTOR	n/a	LTP377	ltpFR2	11	3	n/a	n/a	n/a	n/a	0	0	0
561957	PROB	n/a	LTP377	ltpFR2	11	n/a	n/a	n/a	5	19	4	7	8
564538	PROB	n/a	LTP377	ltpFR2	11	n/a	n/a	n/a	5	11	6	2	3
566420	PROB	n/a	LTP377	ltpFR2	11	n/a	n/a	n/a	5	15	3	4	8
568519	PROB	n/a	LTP377	ltpFR2	11	n/a	n/a	n/a	5	14	4	5	5
569869	PROB	n/a	LTP377	ltpFR2	11	n/a	n/a	n/a	5	17	5	9	3
573018	PROB	n/a	LTP377	ltpFR2	11	n/a	n/a	n/a	5	13	1	2	9
575101	PROB	n/a	LTP377	ltpFR2	11	n/a	n/a	n/a	5	13	6	2	5
578881	PROB	n/a	LTP377	ltpFR2	11	n/a	n/a	n/a	5	15	5	3	7
580647	PROB	n/a	LTP377	ltpFR2	11	n/a	n/a	n/a	5	16	7	6	3
584924	STOP	n/a	LTP377	ltpFR2	11	n/a	n/a	n/a	5	n/a	n/a	n/a	n/a
586761	REC_START	n/a	LTP377	ltpFR2	11	3	n/a	n/a	n/a	n/a	0	0	0
589000	REC_WORD	wordpools/wasnorm_wordpool_576.txt	LTP377	ltpFR2	11	3	POLICE	1098	n/a	n/a	0	0	0
597025	REC_WORD	wordpools/wasnorm_wordpool_576.txt	LTP377	ltpFR2	11	3	GLOBE	641	n/a	n/a	0	0	0
597926	REC_WORD	wordpools/wasnorm_wordpool_576.txt	LTP377	ltpFR2	11	3	PLUTO	1092	n/a	n/a	0	0	0
598775	REC_WORD	wordpools/wasnorm_wordpool_576.txt	LTP377	ltpFR2	11	3	GUARD	667	n/a	n/a	0	0	0
599488	REC_WORD	wordpools/wasnorm_wordpool_576.txt	LTP377	ltpFR2	11	3	CHAPEL	280	n/a	n/a	0	0	0
601936	REC_WORD	wordpools/wasnorm_wordpool_576.txt	LTP377	ltpFR2	11	3	SLIDE	1326	n/a	n/a	0	0	0
602936	REC_WORD_VV	wordpools/wasnorm_wordpool_576.txt	LTP377	ltpFR2	11	3	<>	-1	n/a	n/a	0	0	0
604132	REC_WORD	wordpools/wasnorm_wordpool_576.txt	LTP377	ltpFR2	11	3	GANGSTER	620	n/a	n/a	0	0	0
604928	REC_WORD	wordpools/wasnorm_wordpool_576.txt	LTP377	ltpFR2	11	3	CREATURE	403	n/a	n/a	0	0	0
607356	REC_WORD	wordpools/wasnorm_wordpool_576.txt	LTP377	ltpFR2	11	3	THIEF	1456	n/a	n/a	0	0	0
611361	REC_WORD	wordpools/wasnorm_wordpool_576.txt	LTP377	ltpFR2	11	3	SLOPE	1328	n/a	n/a	0	0	0
612344	REC_WORD	wordpools/wasnorm_wordpool_576.txt	LTP377	ltpFR2	11	3	PADDING	999	n/a	n/a	0	0	0
613334	REC_WORD	wordpools/wasnorm_wordpool_576.txt	LTP377	ltpFR2	11	3	MOP	916	n/a	n/a	0	0	0
614204	REC_WORD	wordpools/wasnorm_wordpool_576.txt	LTP377	ltpFR2	11	3	EAGLE	512	n/a	n/a	0	0	0
615852	REC_WORD	wordpools/wasnorm_wordpool_576.txt	LTP377	ltpFR2	11	3	CEILING	265	n/a	n/a	0	0	0
627616	REC_WORD	wordpools/wasnorm_wordpool_576.txt	LTP377	ltpFR2	11	3	MISSILE	900	n/a	n/a	0	0	0
628521	REC_WORD	wordpools/wasnorm_wordpool_576.txt	LTP377	ltpFR2	11	3	HAND	683	n/a	n/a	0	0	0
631585	REC_WORD	wordpools/wasnorm_wordpool_576.txt	LTP377	ltpFR2	11	3	YARN	1631	n/a	n/a	0	0	0
677202	DISTRACTOR	n/a	LTP377	ltpFR2	11	4	n/a	n/a	n/a	n/a	0	0	0
677202	START	n/a	LTP377	ltpFR2	11	n/a	n/a	n/a	6	n/a	n/a	n/a	n/a
677219	PROB	n/a	LTP377	ltpFR2	11	n/a	n/a	n/a	6	13	7	4	2
679318	PROB	n/a	LTP377	ltpFR2	11	n/a	n/a	n/a	6	15	1	8	6
681334	PROB	n/a	LTP377	ltpFR2	11	n/a	n/a	n/a	6	9	3	5	1
682833	PROB	n/a	LTP377	ltpFR2	11	n/a	n/a	n/a	6	22	8	6	8
684432	PROB	n/a	LTP377	ltpFR2	11	n/a	n/a	n/a	6	22	6	9	7
687032	PROB	n/a	LTP377	ltpFR2	11	n/a	n/a	n/a	6	10	5	4	1
689114	PROB	n/a	LTP377	ltpFR2	11	n/a	n/a	n/a	6	20	7	6	7
692328	PROB	n/a	LTP377	ltpFR2	11	n/a	n/a	n/a	6	18	7	6	5
694294	PROB	n/a	LTP377	ltpFR2	11	n/a	n/a	n/a	6	11	4	5	2
695928	PROB	n/a	LTP377	ltpFR2	11	n/a	n/a	n/a	6	20	8	6	6
698176	PROB	n/a	LTP377	ltpFR2	11	n/a	n/a	n/a	6	16	6	2	8
700287	STOP	n/a	LTP377	ltpFR2	11	n/a	n/a	n/a	6	n/a	n/a	n/a	n/a
702407	WORD	wordpools/wasnorm_wordpool_576.txt	LTP377	ltpFR2	11	4	CANAL	226	n/a	n/a	0	0	0
705124	WORD	wordpools/wasnorm_wordpool_576.txt	LTP377	ltpFR2	11	4	BUNNY	198	n/a	n/a	0	0	0
707922	WORD	wordpools/wasnorm_wordpool_576.txt	LTP377	ltpFR2	11	4	TORTOISE	1486	n/a	n/a	0	0	0
710354	WORD	wordpools/wasnorm_wordpool_576.txt	LTP377	ltpFR2	11	4	SALAD	1224	n/a	n/a	0	0	0
712852	WORD	wordpools/wasnorm_wordpool_576.txt	LTP377	ltpFR2	11	4	ARM	38	n/a	n/a	0	0	0
715601	WORD	wordpools/wasnorm_wordpool_576.txt	LTP377	ltpFR2	11	4	BASEMENT	94	n/a	n/a	0	0	0
718250	WORD	wordpools/wasnorm_wordpool_576.txt	LTP377	ltpFR2	11	4	CHAUFFEUR	283	n/a	n/a	0	0	0
720933	WORD	wordpools/wasnorm_wordpool_576.txt	LTP377	ltpFR2	11	4	SPIDER	1351	n/a	n/a	0	0	0
723481	WORD	wordpools/wasnorm_wordpool_576.txt	LTP377	ltpFR2	11	4	VENUS	1557	n/a	n/a	0	0	0
725931	WORD	wordpools/wasnorm_wordpool_576.txt	LTP377	ltpFR2	11	4	GROUND	666	n/a	n/a	0	0	0
728678	WORD	wordpools/wasnorm_wordpool_576.txt	LTP377	ltpFR2	11	4	CRIB	407	n/a	n/a	0	0	0
731460	WORD	wordpools/wasnorm_wordpool_576.txt	LTP377	ltpFR2	11	4	RUST	1219	n/a	n/a	0	0	0
734027	WORD	wordpools/wasnorm_wordpool_576.txt	LTP377	ltpFR2	11	4	PIGMENT	1066	n/a	n/a	0	0	0
736541	WORD	wordpools/wasnorm_wordpool_576.txt	LTP377	ltpFR2	11	4	COUCH	386	n/a	n/a	0	0	0
739041	WORD	wordpools/wasnorm_wordpool_576.txt	LTP377	ltpFR2	11	4	FLASK	576	n/a	n/a	0	0	0
741839	WORD	wordpools/wasnorm_wordpool_576.txt	LTP377	ltpFR2	11	4	MESSAGE	888	n/a	n/a	0	0	0
744554	WORD	wordpools/wasnorm_wordpool_576.txt	LTP377	ltpFR2	11	4	BOYFRIEND	162	n/a	n/a	0	0	0
747203	WORD	wordpools/wasnorm_wordpool_576.txt	LTP377	ltpFR2	11	4	SERVER	1272	n/a	n/a	0	0	0
750019	WORD	wordpools/wasnorm_wordpool_576.txt	LTP377	ltpFR2	11	4	WAITRESS	1581	n/a	n/a	0	0	0
752751	WORD	wordpools/wasnorm_wordpool_576.txt	LTP377	ltpFR2	11	4	BUG	187	n/a	n/a	0	0	0
755299	WORD	wordpools/wasnorm_wordpool_576.txt	LTP377	ltpFR2	11	4	MONEY	908	n/a	n/a	0	0	0
757898	WORD	wordpools/wasnorm_wordpool_576.txt	LTP377	ltpFR2	11	4	RECEIPT	1173	n/a	n/a	0	0	0
760614	WORD	wordpools/wasnorm_wordpool_576.txt	LTP377	ltpFR2	11	4	PLIERS	1089	n/a	n/a	0	0	0
763196	WORD	wordpools/wasnorm_wordpool_576.txt	LTP377	ltpFR2	11	4	DORM	488	n/a	n/a	0	0	0
764812	START	n/a	LTP377	ltpFR2	11	n/a	n/a	n/a	7	n/a	n/a	n/a	n/a
765916	DISTRACTOR	n/a	LTP377	ltpFR2	11	4	n/a	n/a	n/a	n/a	0	0	0
765929	PROB	n/a	LTP377	ltpFR2	11	n/a	n/a	n/a	7	19	2	8	9
768427	PROB	n/a	LTP377	ltpFR2	11	n/a	n/a	n/a	7	15	3	8	4
770875	PROB	n/a	LTP377	ltpFR2	11	n/a	n/a	n/a	7	16	5	7	4
773491	PROB	n/a	LTP377	ltpFR2	11	n/a	n/a	n/a	7	17	6	7	4
775773	PROB	n/a	LTP377	ltpFR2	11	n/a	n/a	n/a	7	21	6	7	8
777923	PROB	n/a	LTP377	ltpFR2	11	n/a	n/a	n/a	7	18	6	3	9
779989	PROB	n/a	LTP377	ltpFR2	11	n/a	n/a	n/a	7	21	8	8	5
782071	PROB	n/a	LTP377	ltpFR2	11	n/a	n/a	n/a	7	11	1	8	2
784286	PROB	n/a	LTP377	ltpFR2	11	n/a	n/a	n/a	7	14	1	4	9
788812	STOP	n/a	LTP377	ltpFR2	11	n/a	n/a	n/a	7	n/a	n/a	n/a	n/a
790650	REC_START	n/a	LTP377	ltpFR2	11	4	n/a	n/a	n/a	n/a	0	0	0
794249	REC_WORD	wordpools/wasnorm_wordpool_576.txt	LTP377	ltpFR2	11	4	CANAL	226	n/a	n/a	0	0	0
800076	REC_WORD	wordpools/wasnorm_wordpool_576.txt	LTP377	ltpFR2	11	4	BASEMENT	94	n/a	n/a	0	0	0
801123	REC_WORD	wordpools/wasnorm_wordpool_576.txt	LTP377	ltpFR2	11	4	CHAUFFEUR	283	n/a	n/a	0	0	0
805595	REC_WORD_VV	wordpools/wasnorm_wordpool_576.txt	LTP377	ltpFR2	11	4	<>	-1	n/a	n/a	0	0	0
806527	REC_WORD	wordpools/wasnorm_wordpool_576.txt	LTP377	ltpFR2	11	4	VENUS	1557	n/a	n/a	0	0	0
809255	REC_WORD	wordpools/wasnorm_wordpool_576.txt	LTP377	ltpFR2	11	4	SPIDER	1351	n/a	n/a	0	0	0
810309	REC_WORD	wordpools/wasnorm_wordpool_576.txt	LTP377	ltpFR2	11	4	GROUND	666	n/a	n/a	0	0	0
816510	REC_WORD	wordpools/wasnorm_wordpool_576.txt	LTP377	ltpFR2	11	4	WAITRESS	1581	n/a	n/a	0	0	0
816985	REC_WORD	wordpools/wasnorm_wordpool_576.txt	LTP377	ltpFR2	11	4	SERVER	1272	n/a	n/a	0	0	0
817499	REC_WORD	wordpools/wasnorm_wordpool_576.txt	LTP377	ltpFR2	11	4	PLIERS	1089	n/a	n/a	0	0	0
820138	REC_WORD	wordpools/wasnorm_wordpool_576.txt	LTP377	ltpFR2	11	4	BUG	187	n/a	n/a	0	0	0
824056	REC_WORD	wordpools/wasnorm_wordpool_576.txt	LTP377	ltpFR2	11	4	CASH	252	n/a	n/a	0	0	0
826191	REC_WORD	wordpools/wasnorm_wordpool_576.txt	LTP377	ltpFR2	11	4	RECEIPT	1173	n/a	n/a	0	0	0
838854	REC_WORD	wordpools/wasnorm_wordpool_576.txt	LTP377	ltpFR2	11	4	CRIB	407	n/a	n/a	0	0	0
843195	REC_WORD	wordpools/wasnorm_wordpool_576.txt	LTP377	ltpFR2	11	4	RUST	1219	n/a	n/a	0	0	0
854956	REC_WORD	wordpools/wasnorm_wordpool_576.txt	LTP377	ltpFR2	11	4	SERVER	1272	n/a	n/a	0	0	0
881092	DISTRACTOR	n/a	LTP377	ltpFR2	11	5	n/a	n/a	n/a	n/a	0	0	0
881092	START	n/a	LTP377	ltpFR2	11	n/a	n/a	n/a	8	n/a	n/a	n/a	n/a
881109	PROB	n/a	LTP377	ltpFR2	11	n/a	n/a	n/a	8	12	5	3	4
883223	PROB	n/a	LTP377	ltpFR2	11	n/a	n/a	n/a	8	15	3	7	5
884856	PROB	n/a	LTP377	ltpFR2	11	n/a	n/a	n/a	8	13	1	5	7
886505	PROB	n/a	LTP377	ltpFR2	11	n/a	n/a	n/a	8	12	2	2	8
888204	PROB	n/a	LTP377	ltpFR2	11	n/a	n/a	n/a	8	11	4	5	2
889837	PROB	n/a	LTP377	ltpFR2	11	n/a	n/a	n/a	8	9	1	6	2
891869	PROB	n/a	LTP377	ltpFR2	11	n/a	n/a	n/a	8	24	9	6	9
896817	PROB	n/a	LTP377	ltpFR2	11	n/a	n/a	n/a	8	13	7	5	1
898566	PROB	n/a	LTP377	ltpFR2	11	n/a	n/a	n/a	8	18	9	8	1
900349	PROB	n/a	LTP377	ltpFR2	11	n/a	n/a	n/a	8	16	8	4	8
905091	STOP	n/a	LTP377	ltpFR2	11	n/a	n/a	n/a	8	n/a	n/a	n/a	n/a
906114	WORD	wordpools/wasnorm_wordpool_576.txt	LTP377	ltpFR2	11	5	KITCHEN	778	n/a	n/a	0	0	0
908545	WORD	wordpools/wasnorm_wordpool_576.txt	LTP377	ltpFR2	11	5	COCOON	339	n/a	n/a	0	0	0
911260	WORD	wordpools/wasnorm_wordpool_576.txt	LTP377	ltpFR2	11	5	HIKER	708	n/a	n/a	0	0	0
913943	WORD	wordpools/wasnorm_wordpool_576.txt	LTP377	ltpFR2	11	5	CLIMBER	323	n/a	n/a	0	0	0
916708	WORD	wordpools/wasnorm_wordpool_576.txt	LTP377	ltpFR2	11	5	WRENCH	1625	n/a	n/a	0	0	0
919373	WORD	wordpools/wasnorm_wordpool_576.txt	LTP377	ltpFR2	11	5	PUPIL	1143	n/a	n/a	0	0	0
921923	WORD	wordpools/wasnorm_wordpool_576.txt	LTP377	ltpFR2	11	5	OINTMENT	974	n/a	n/a	0	0	0
924654	WORD	wordpools/wasnorm_wordpool_576.txt	LTP377	ltpFR2	11	5	CASHIER	254	n/a	n/a	0	0	0
927353	WORD	wordpools/wasnorm_wordpool_576.txt	LTP377	ltpFR2	11	5	DRILL	497	n/a	n/a	0	0	0
930053	WORD	wordpools/wasnorm_wordpool_576.txt	LTP377	ltpFR2	11	5	STAPLE	1371	n/a	n/a	0	0	0
932800	WORD	wordpools/wasnorm_wordpool_576.txt	LTP377	ltpFR2	11	5	BLADE	134	n/a	n/a	0	0	0
935349	WORD	wordpools/wasnorm_wordpool_576.txt	LTP377	ltpFR2	11	5	LIZARD	834	n/a	n/a	0	0	0
937982	WORD	wordpools/wasnorm_wordpool_576.txt	LTP377	ltpFR2	11	5	COIN	343	n/a	n/a	0	0	0
940680	WORD	wordpools/wasnorm_wordpool_576.txt	LTP377	ltpFR2	11	5	GRAVE	658	n/a	n/a	0	0	0
943113	WORD	wordpools/wasnorm_wordpool_576.txt	LTP377	ltpFR2	11	5	SUBWAY	1400	n/a	n/a	0	0	0
945811	WORD	wordpools/wasnorm_wordpool_576.txt	LTP377	ltpFR2	11	5	ELBOW	520	n/a	n/a	0	0	0
948643	WORD	wordpools/wasnorm_wordpool_576.txt	LTP377	ltpFR2	11	5	HERO	706	n/a	n/a	0	0	0
951175	WORD	wordpools/wasnorm_wordpool_576.txt	LTP377	ltpFR2	11	5	BACKBONE	66	n/a	n/a	0	0	0
953624	WORD	wordpools/wasnorm_wordpool_576.txt	LTP377	ltpFR2	11	5	RELISH	1183	n/a	n/a	0	0	0
956091	WORD	wordpools/wasnorm_wordpool_576.txt	LTP377	ltpFR2	11	5	SANDWICH	1232	n/a	n/a	0	0	0
958572	WORD	wordpools/wasnorm_wordpool_576.txt	LTP377	ltpFR2	11	5	GHETTO	633	n/a	n/a	0	0	0
961220	WORD	wordpools/wasnorm_wordpool_576.txt	LTP377	ltpFR2	11	5	FRIAR	605	n/a	n/a	0	0	0
963703	WORD	wordpools/wasnorm_wordpool_576.txt	LTP377	ltpFR2	11	5	SPOON	1357	n/a	n/a	0	0	0
966185	WORD	wordpools/wasnorm_wordpool_576.txt	LTP377	ltpFR2	11	5	SNAKE	1333	n/a	n/a	0	0	0
967801	START	n/a	LTP377	ltpFR2	11	n/a	n/a	n/a	9	n/a	n/a	n/a	n/a
969001	DISTRACTOR	n/a	LTP377	ltpFR2	11	5	n/a	n/a	n/a	n/a	0	0	0
969018	PROB	n/a	LTP377	ltpFR2	11	n/a	n/a	n/a	9	7	3	1	3
970799	PROB	n/a	LTP377	ltpFR2	11	n/a	n/a	n/a	9	14	4	4	6
972415	PROB	n/a	LTP377	ltpFR2	11	n/a	n/a	n/a	9	16	4	4	8
974531	PROB	n/a	LTP377	ltpFR2	11	n/a	n/a	n/a	9	26	8	9	9
976480	PROB	n/a	LTP377	ltpFR2	11	n/a	n/a	n/a	9	15	5	7	3
978080	PROB	n/a	LTP377	ltpFR2	11	n/a	n/a	n/a	9	5	2	2	1
979245	PROB	n/a	LTP377	ltpFR2	11	n/a	n/a	n/a	9	18	3	8	7
981211	PROB	n/a	LTP377	ltpFR2	11	n/a	n/a	n/a	9	14	4	1	9
983160	PROB	n/a	LTP377	ltpFR2	11	n/a	n/a	n/a	9	13	6	5	2
985359	PROB	n/a	LTP377	ltpFR2	11	n/a	n/a	n/a	9	15	5	2	8
987792	PROB	n/a	LTP377	ltpFR2	11	n/a	n/a	n/a	9	20	6	7	7
990489	STOP	n/a	LTP377	ltpFR2	11	n/a	n/a	n/a	9	n/a	n/a	n/a	n/a
993639	REC_START	n/a	LTP377	ltpFR2	11	5	n/a	n/a	n/a	n/a	0	0	0
1006816	REC_WORD_VV	wordpools/wasnorm_wordpool_576.txt	LTP377	ltpFR2	11	5	<>	-1	n/a	n/a	0	0	0
1015628	REC_WORD	wordpools/wasnorm_wordpool_576.txt	LTP377	ltpFR2	11	5	HERO	706	n/a	n/a	0	0	0
1016537	REC_WORD	wordpools/wasnorm_wordpool_576.txt	LTP377	ltpFR2	11	5	BACKBONE	66	n/a	n/a	0	0	0
1018458	REC_WORD	wordpools/wasnorm_wordpool_576.txt	LTP377	ltpFR2	11	5	RELISH	1183	n/a	n/a	0	0	0
1019212	REC_WORD	wordpools/wasnorm_wordpool_576.txt	LTP377	ltpFR2	11	5	SANDWICH	1232	n/a	n/a	0	0	0
1020219	REC_WORD	wordpools/wasnorm_wordpool_576.txt	LTP377	ltpFR2	11	5	GHETTO	633	n/a	n/a	0	0	0
1029004	REC_WORD	wordpools/wasnorm_wordpool_576.txt	LTP377	ltpFR2	11	5	HIKER	708	n/a	n/a	0	0	0
1030328	REC_WORD	wordpools/wasnorm_wordpool_576.txt	LTP377	ltpFR2	11	5	CLIMBER	323	n/a	n/a	0	0	0
1031785	REC_WORD	wordpools/wasnorm_wordpool_576.txt	LTP377	ltpFR2	11	5	WRENCH	1625	n/a	n/a	0	0	0
1033947	REC_WORD	wordpools/wasnorm_wordpool_576.txt	LTP377	ltpFR2	11	5	SUBWAY	1400	n/a	n/a	0	0	0
1041019	REC_WORD	wordpools/wasnorm_wordpool_576.txt	LTP377	ltpFR2	11	5	KITCHEN	778	n/a	n/a	0	0	0
1041755	REC_WORD	wordpools/wasnorm_wordpool_576.txt	LTP377	ltpFR2	11	5	COCOON	339	n/a	n/a	0	0	0
1084098	WORD	wordpools/wasnorm_wordpool_576.txt	LTP377	ltpFR2	11	6	BOX	159	n/a	n/a	0	0	0
1086812	WORD	wordpools/wasnorm_wordpool_576.txt	LTP377	ltpFR2	11	6	DENIM	446	n/a	n/a	0	0	0
1089444	WORD	wordpools/wasnorm_wordpool_576.txt	LTP377	ltpFR2	11	6	OZONE	996	n/a	n/a	0	0	0
1091978	WORD	wordpools/wasnorm_wordpool_576.txt	LTP377	ltpFR2	11	6	POISON	1096	n/a	n/a	0	0	0
1094425	WORD	wordpools/wasnorm_wordpool_576.txt	LTP377	ltpFR2	11	6	DRUG	501	n/a	n/a	0	0	0
1097109	WORD	wordpools/wasnorm_wordpool_576.txt	LTP377	ltpFR2	11	6	KETCHUP	771	n/a	n/a	0	0	0
1099873	WORD	wordpools/wasnorm_wordpool_576.txt	LTP377	ltpFR2	11	6	CAFE	216	n/a	n/a	0	0	0
1102305	WORD	wordpools/wasnorm_wordpool_576.txt	LTP377	ltpFR2	11	6	EXPERT	543	n/a	n/a	0	0	0
1104871	WORD	wordpools/wasnorm_wordpool_576.txt	LTP377	ltpFR2	11	6	COSTUME	383	n/a	n/a	0	0	0
1107686	WORD	wordpools/wasnorm_wordpool_576.txt	LTP377	ltpFR2	11	6	BACON	67	n/a	n/a	0	0	0
1110368	WORD	wordpools/wasnorm_wordpool_576.txt	LTP377	ltpFR2	11	6	GALLON	618	n/a	n/a	0	0	0
1113150	WORD	wordpools/wasnorm_wordpool_576.txt	LTP377	ltpFR2	11	6	WIFE	1609	n/a	n/a	0	0	0
1115882	WORD	wordpools/wasnorm_wordpool_576.txt	LTP377	ltpFR2	11	6	GRIZZLY	662	n/a	n/a	0	0	0
1118664	WORD	wordpools/wasnorm_wordpool_576.txt	LTP377	ltpFR2	11	6	PLATE	1086	n/a	n/a	0	0	0
1121196	WORD	wordpools/wasnorm_wordpool_576.txt	LTP377	ltpFR2	11	6	MILK	895	n/a	n/a	0	0	0
1123745	WORD	wordpools/wasnorm_wordpool_576.txt	LTP377	ltpFR2	11	6	MUSTARD	935	n/a	n/a	0	0	0
1126244	WORD	wordpools/wasnorm_wordpool_576.txt	LTP377	ltpFR2	11	6	COFFEE	341	n/a	n/a	0	0	0
1128860	WORD	wordpools/wasnorm_wordpool_576.txt	LTP377	ltpFR2	11	6	VIKING	1565	n/a	n/a	0	0	0
1131442	WORD	wordpools/wasnorm_wordpool_576.txt	LTP377	ltpFR2	11	6	PICTURE	1061	n/a	n/a	0	0	0
1134190	WORD	wordpools/wasnorm_wordpool_576.txt	LTP377	ltpFR2	11	6	RECORD	1176	n/a	n/a	0	0	0
1136656	WORD	wordpools/wasnorm_wordpool_576.txt	LTP377	ltpFR2	11	6	DAISY	435	n/a	n/a	0	0	0
1139155	WORD	wordpools/wasnorm_wordpool_576.txt	LTP377	ltpFR2	11	6	TURNIP	1521	n/a	n/a	0	0	0
1141654	WORD	wordpools/wasnorm_wordpool_576.txt	LTP377	ltpFR2	11	6	GREASE	660	n/a	n/a	0	0	0
1144336	WORD	wordpools/wasnorm_wordpool_576.txt	LTP377	ltpFR2	11	6	RACKET	1155	n/a	n/a	0	0	0
1145953	START	n/a	LTP377	ltpFR2	11	n/a	n/a	n/a	10	n/a	n/a	n/a	n/a
1147080	DISTRACTOR	n/a	LTP377	ltpFR2	11	6	n/a	n/a	n/a	n/a	0	0	0
1147085	PROB	n/a	LTP377	ltpFR2	11	n/a	n/a	n/a	10	21	9	9	3
1149267	PROB	n/a	LTP377	ltpFR2	11	n/a	n/a	n/a	10	16	7	1	8
1151366	PROB	n/a	LTP377	ltpFR2	11	n/a	n/a	n/a	10	14	4	4	6
1153033	PROB	n/a	LTP377	ltpFR2	11	n/a	n/a	n/a	10	18	8	5	5
1154531	PROB	n/a	LTP377	ltpFR2	11	n/a	n/a	n/a	10	23	7	8	8
1156397	PROB	n/a	LTP377	ltpFR2	11	n/a	n/a	n/a	10	12	4	1	7
1158097	PROB	n/a	LTP377	ltpFR2	11	n/a	n/a	n/a	10	21	5	9	7
1161145	PROB	n/a	LTP377	ltpFR2	11	n/a	n/a	n/a	10	12	2	7	3
1162961	PROB	n/a	LTP377	ltpFR2	11	n/a	n/a	n/a	10	18	5	9	4
1165226	PROB	n/a	LTP377	ltpFR2	11	n/a	n/a	n/a	10	10	4	3	3
1169953	STOP	n/a	LTP377	ltpFR2	11	n/a	n/a	n/a	10	n/a	n/a	n/a	n/a
1171773	REC_START	n/a	LTP377	ltpFR2	11	6	n/a	n/a	n/a	n/a	0	0	0
1175485	REC_WORD	wordpools/wasnorm_wordpool_576.txt	LTP377	ltpFR2	11	6	BOX	159	n/a	n/a	0	0	0
1176518	REC_WORD	wordpools/wasnorm_wordpool_576.txt	LTP377	ltpFR2	11	6	DENIM	446	n/a	n/a	0	0	0
1185296	REC_WORD	wordpools/wasnorm_wordpool_576.txt	LTP377	ltpFR2	11	6	DAISY	435	n/a	n/a	0	0	0
1195771	REC_WORD	wordpools/wasnorm_wordpool_576.txt	LTP377	ltpFR2	11	6	VIKING	1565	n/a	n/a	0	0	0
1196579	REC_WORD	wordpools/wasnorm_wordpool_576.txt	LTP377	ltpFR2	11	6	PICTURE	1061	n/a	n/a	0	0	0
1198389	REC_WORD	wordpools/wasnorm_wordpool_576.txt	LTP377	ltpFR2	11	6	WIFE	1609	n/a	n/a	0	0	0
1198955	REC_WORD	wordpools/wasnorm_wordpool_576.txt	LTP377	ltpFR2	11	6	KETCHUP	771	n/a	n/a	0	0	0
1199613	REC_WORD	wordpools/wasnorm_wordpool_576.txt	LTP377	ltpFR2	11	6	CAFE	216	n/a	n/a	0	0	0
1200575	REC_WORD	wordpools/wasnorm_wordpool_576.txt	LTP377	ltpFR2	11	6	MUSTARD	935	n/a	n/a	0	0	0
1202784	REC_WORD	wordpools/wasnorm_wordpool_576.txt	LTP377	ltpFR2	11	6	GALLON	618	n/a	n/a	0	0	0
1262214	DISTRACTOR	n/a	LTP377	ltpFR2	11	7	n/a	n/a	n/a	n/a	0	0	0
1262215	START	n/a	LTP377	ltpFR2	11	n/a	n/a	n/a	11	n/a	n/a	n/a	n/a
1262231	PROB	n/a	LTP377	ltpFR2	11	n/a	n/a	n/a	11	16	5	3	8
1263931	PROB	n/a	LTP377	ltpFR2	11	n/a	n/a	n/a	11	5	1	3	1
1265263	PROB	n/a	LTP377	ltpFR2	11	n/a	n/a	n/a	11	11	2	7	2
1267262	PROB	n/a	LTP377	ltpFR2	11	n/a	n/a	n/a	11	21	7	7	7
1268661	PROB	n/a	LTP377	ltpFR2	11	n/a	n/a	n/a	11	10	1	7	2
1270694	PROB	n/a	LTP377	ltpFR2	11	n/a	n/a	n/a	11	13	7	4	2
1274026	PROB	n/a	LTP377	ltpFR2	11	n/a	n/a	n/a	11	11	1	8	2
1275491	PROB	n/a	LTP377	ltpFR2	11	n/a	n/a	n/a	11	13	5	2	6
1278224	PROB	n/a	LTP377	ltpFR2	11	n/a	n/a	n/a	11	15	9	4	2
1282505	PROB	n/a	LTP377	ltpFR2	11	n/a	n/a	n/a	11	8	4	2	2
1285004	STOP	n/a	LTP377	ltpFR2	11	n/a	n/a	n/a	11	n/a	n/a	n/a	n/a
1287136	WORD	wordpools/wasnorm_wordpool_576.txt	LTP377	ltpFR2	11	7	DAUGHTER	442	n/a	n/a	0	0	0
1289768	WORD	wordpools/wasnorm_wordpool_576.txt	LTP377	ltpFR2	11	7	HOUND	724	n/a	n/a	0	0	0
1292384	WORD	wordpools/wasnorm_wordpool_576.txt	LTP377	ltpFR2	11	7	WAITER	1580	n/a	n/a	0	0	0
1295100	WORD	wordpools/wasnorm_wordpool_576.txt	LTP377	ltpFR2	11	7	TYPIST	1532	n/a	n/a	0	0	0
1297665	WORD	wordpools/wasnorm_wordpool_576.txt	LTP377	ltpFR2	11	7	BEAKER	104	n/a	n/a	0	0	0
1300180	WORD	wordpools/wasnorm_wordpool_576.txt	LTP377	ltpFR2	11	7	LONDON	843	n/a	n/a	0	0	0
1302762	WORD	wordpools/wasnorm_wordpool_576.txt	LTP377	ltpFR2	11	7	COBRA	336	n/a	n/a	0	0	0
1305544	WORD	wordpools/wasnorm_wordpool_576.txt	LTP377	ltpFR2	11	7	FLIPPER	580	n/a	n/a	0	0	0
1308293	WORD	wordpools/wasnorm_wordpool_576.txt	LTP377	ltpFR2	11	7	TROUT	1511	n/a	n/a	0	0	0
1310993	WORD	wordpools/wasnorm_wordpool_576.txt	LTP377	ltpFR2	11	7	TURTLE	1522	n/a	n/a	0	0	0
1313574	WORD	wordpools/wasnorm_wordpool_576.txt	LTP377	ltpFR2	11	7	POSSUM	1112	n/a	n/a	0	0	0
1316156	WORD	wordpools/wasnorm_wordpool_576.txt	LTP377	ltpFR2	11	7	TUTU	1524	n/a	n/a	0	0	0
1318855	WORD	wordpools/wasnorm_wordpool_576.txt	LTP377	ltpFR2	11	7	FRANCE	601	n/a	n/a	0	0	0
1321387	WORD	wordpools/wasnorm_wordpool_576.txt	LTP377	ltpFR2	11	7	CIGAR	308	n/a	n/a	0	0	0
1323852	WORD	wordpools/wasnorm_wordpool_576.txt	LTP377	ltpFR2	11	7	LAKE	796	n/a	n/a	0	0	0
1326285	WORD	wordpools/wasnorm_wordpool_576.txt	LTP377	ltpFR2	11	7	SPONGE	1355	n/a	n/a	0	0	0
1328850	WORD	wordpools/wasnorm_wordpool_576.txt	LTP377	ltpFR2	11	7	YOLK	1633	n/a	n/a	0	0	0
1331582	WORD	wordpools/wasnorm_wordpool_576.txt	LTP377	ltpFR2	11	7	ONION	977	n/a	n/a	0	0	0
1334264	WORD	wordpools/wasnorm_wordpool_576.txt	LTP377	ltpFR2	11	7	COWBOY	395	n/a	n/a	0	0	0
1337081	WORD	wordpools/wasnorm_wordpool_576.txt	LTP377	ltpFR2	11	7	ICEBERG	731	n/a	n/a	0	0	0
1339728	WORD	wordpools/wasnorm_wordpool_576.txt	LTP377	ltpFR2	11	7	IGLOO	734	n/a	n/a	0	0	0
1342444	WORD	wordpools/wasnorm_wordpool_576.txt	LTP377	ltpFR2	11	7	COUSIN	392	n/a	n/a	0	0	0
1344977	WORD	wordpools/wasnorm_wordpool_576.txt	LTP377	ltpFR2	11	7	TRIBE	1505	n/a	n/a	0	0	0
1347758	WORD	wordpools/wasnorm_wordpool_576.txt	LTP377	ltpFR2	11	7	FLEET	578	n/a	n/a	0	0	0
1349374	START	n/a	LTP377	ltpFR2	11	n/a	n/a	n/a	12	n/a	n/a	n/a	n/a
1350527	DISTRACTOR	n/a	LTP377	ltpFR2	11	7	n/a	n/a	n/a	n/a	0	0	0
1350540	PROB	n/a	LTP377	ltpFR2	11	n/a	n/a	n/a	12	12	3	3	6
1352472	PROB	n/a	LTP377	ltpFR2	11	n/a	n/a	n/a	12	12	1	5	6
1354238	PROB	n/a	LTP377	ltpFR2	11	n/a	n/a	n/a	12	16	4	4	6
1356187	PROB	n/a	LTP377	ltpFR2	11	n/a	n/a	n/a	12	17	5	4	8
1358253	PROB	n/a	LTP377	ltpFR2	11	n/a	n/a	n/a	12	11	5	4	2
1361168	PROB	n/a	LTP377	ltpFR2	11	n/a	n/a	n/a	12	24	7	8	9
1363052	PROB	n/a	LTP377	ltpFR2	11	n/a	n/a	n/a	12	11	1	9	1
1364317	PROB	n/a	LTP377	ltpFR2	11	n/a	n/a	n/a	12	12	5	6	1
1366899	PROB	n/a	LTP377	ltpFR2	11	n/a	n/a	n/a	12	12	6	2	4
1368881	PROB	n/a	LTP377	ltpFR2	11	n/a	n/a	n/a	12	11	4	3	4
1370547	PROB	n/a	LTP377	ltpFR2	11	n/a	n/a	n/a	12	2	9	5	9
1372277	STOP	n/a	LTP377	ltpFR2	11	n/a	n/a	n/a	12	n/a	n/a	n/a	n/a
1375130	REC_START	n/a	LTP377	ltpFR2	11	7	n/a	n/a	n/a	n/a	0	0	0
1375662	REC_WORD	wordpools/wasnorm_wordpool_576.txt	LTP377	ltpFR2	11	7	FLEET	578	n/a	n/a	0	0	0
1376450	REC_WORD	wordpools/wasnorm_wordpool_576.txt	LTP377	ltpFR2	11	7	COUSIN	392	n/a	n/a	0	0	0
1377043	REC_WORD	wordpools/wasnorm_wordpool_576.txt	LTP377	ltpFR2	11	7	TRIBE	1505	n/a	n/a	0	0	0
1380351	REC_WORD	wordpools/wasnorm_wordpool_576.txt	LTP377	ltpFR2	11	7	LAKE	796	n/a	n/a	0	0	0
1381207	REC_WORD	wordpools/wasnorm_wordpool_576.txt	LTP377	ltpFR2	11	7	CIGAR	308	n/a	n/a	0	0	0
1382952	REC_WORD	wordpools/wasnorm_wordpool_576.txt	LTP377	ltpFR2	11	7	YOLK	1633	n/a	n/a	0	0	0
1384889	REC_WORD	wordpools/wasnorm_wordpool_576.txt	LTP377	ltpFR2	11	7	ONION	977	n/a	n/a	0	0	0
1388361	REC_WORD	wordpools/wasnorm_wordpool_576.txt	LTP377	ltpFR2	11	7	TUTU	1524	n/a	n/a	0	0	0
1389079	REC_WORD	wordpools/wasnorm_wordpool_576.txt	LTP377	ltpFR2	11	7	POSSUM	1112	n/a	n/a	0	0	0
1404779	REC_WORD	wordpools/wasnorm_wordpool_576.txt	LTP377	ltpFR2	11	7	FLIPPER	580	n/a	n/a	0	0	0
1405779	REC_WORD_VV	wordpools/wasnorm_wordpool_576.txt	LTP377	ltpFR2	11	7	<>	-1	n/a	n/a	0	0	0
1409788	REC_WORD	wordpools/wasnorm_wordpool_576.txt	LTP377	ltpFR2	11	7	COBRA	336	n/a	n/a	0	0	0
1415923	REC_WORD	wordpools/wasnorm_wordpool_576.txt	LTP377	ltpFR2	11	7	HOUND	724	n/a	n/a	0	0	0
1416652	REC_WORD	wordpools/wasnorm_wordpool_576.txt	LTP377	ltpFR2	11	7	DAUGHTER	442	n/a	n/a	0	0	0
1417813	REC_WORD	wordpools/wasnorm_wordpool_576.txt	LTP377	ltpFR2	11	7	LONDON	843	n/a	n/a	0	0	0
1419396	REC_WORD	wordpools/wasnorm_wordpool_576.txt	LTP377	ltpFR2	11	7	TYPIST	1532	n/a	n/a	0	0	0
1420092	REC_WORD	wordpools/wasnorm_wordpool_576.txt	LTP377	ltpFR2	11	7	WAITER	1580	n/a	n/a	0	0	0
1421186	REC_WORD	wordpools/wasnorm_wordpool_576.txt	LTP377	ltpFR2	11	7	BEAKER	104	n/a	n/a	0	0	0
1465570	DISTRACTOR	n/a	LTP377	ltpFR2	11	8	n/a	n/a	n/a	n/a	0	0	0
1465570	START	n/a	LTP377	ltpFR2	11	n/a	n/a	n/a	13	n/a	n/a	n/a	n/a
1465587	PROB	n/a	LTP377	ltpFR2	11	n/a	n/a	n/a	13	12	1	2	9
1468053	PROB	n/a	LTP377	ltpFR2	11	n/a	n/a	n/a	13	20	8	4	8
1470201	PROB	n/a	LTP377	ltpFR2	11	n/a	n/a	n/a	13	12	1	9	2
1471651	PROB	n/a	LTP377	ltpFR2	11	n/a	n/a	n/a	13	16	8	1	7
1474433	PROB	n/a	LTP377	ltpFR2	11	n/a	n/a	n/a	13	3	1	1	1
1475516	PROB	n/a	LTP377	ltpFR2	11	n/a	n/a	n/a	13	17	2	6	9
1478164	PROB	n/a	LTP377	ltpFR2	11	n/a	n/a	n/a	13	13	4	2	7
1480880	PROB	n/a	LTP377	ltpFR2	11	n/a	n/a	n/a	13	12	8	1	3
1482279	PROB	n/a	LTP377	ltpFR2	11	n/a	n/a	n/a	13	19	4	9	6
1486360	PROB	n/a	LTP377	ltpFR2	11	n/a	n/a	n/a	13	22	6	8	8
1487893	PROB	n/a	LTP377	ltpFR2	11	n/a	n/a	n/a	13	17	5	7	5
1489329	STOP	n/a	LTP377	ltpFR2	11	n/a	n/a	n/a	13	n/a	n/a	n/a	n/a
1490758	WORD	wordpools/wasnorm_wordpool_576.txt	LTP377	ltpFR2	11	8	EMPIRE	530	n/a	n/a	0	0	0
1493391	WORD	wordpools/wasnorm_wordpool_576.txt	LTP377	ltpFR2	11	8	SALMON	1227	n/a	n/a	0	0	0
1495906	WORD	wordpools/wasnorm_wordpool_576.txt	LTP377	ltpFR2	11	8	STATUE	1374	n/a	n/a	0	0	0
1498621	WORD	wordpools/wasnorm_wordpool_576.txt	LTP377	ltpFR2	11	8	PISTON	1076	n/a	n/a	0	0	0
1501337	WORD	wordpools/wasnorm_wordpool_576.txt	LTP377	ltpFR2	11	8	TAXI	1438	n/a	n/a	0	0	0
1503769	WORD	wordpools/wasnorm_wordpool_576.txt	LTP377	ltpFR2	11	8	SCULPTURE	1258	n/a	n/a	0	0	0
1506368	WORD	wordpools/wasnorm_wordpool_576.txt	LTP377	ltpFR2	11	8	THREAD	1460	n/a	n/a	0	0	0
1509150	WORD	wordpools/wasnorm_wordpool_576.txt	LTP377	ltpFR2	11	8	PEPPER	1047	n/a	n/a	0	0	0
1511732	WORD	wordpools/wasnorm_wordpool_576.txt	LTP377	ltpFR2	11	8	DUSTPAN	509	n/a	n/a	0	0	0
1514481	WORD	wordpools/wasnorm_wordpool_576.txt	LTP377	ltpFR2	11	8	NAPKIN	937	n/a	n/a	0	0	0
1516964	WORD	wordpools/wasnorm_wordpool_576.txt	LTP377	ltpFR2	11	8	COMET	353	n/a	n/a	0	0	0
1519728	WORD	wordpools/wasnorm_wordpool_576.txt	LTP377	ltpFR2	11	8	PIMPLE	1071	n/a	n/a	0	0	0
1522444	WORD	wordpools/wasnorm_wordpool_576.txt	LTP377	ltpFR2	11	8	ROCKET	1202	n/a	n/a	0	0	0
1525044	WORD	wordpools/wasnorm_wordpool_576.txt	LTP377	ltpFR2	11	8	PECAN	1036	n/a	n/a	0	0	0
1527591	WORD	wordpools/wasnorm_wordpool_576.txt	LTP377	ltpFR2	11	8	FARMER	553	n/a	n/a	0	0	0
1530190	WORD	wordpools/wasnorm_wordpool_576.txt	LTP377	ltpFR2	11	8	BISON	131	n/a	n/a	0	0	0
1532772	WORD	wordpools/wasnorm_wordpool_576.txt	LTP377	ltpFR2	11	8	AUTHOR	61	n/a	n/a	0	0	0
1535321	WORD	wordpools/wasnorm_wordpool_576.txt	LTP377	ltpFR2	11	8	TREAT	1501	n/a	n/a	0	0	0
1538037	WORD	wordpools/wasnorm_wordpool_576.txt	LTP377	ltpFR2	11	8	SHOULDER	1294	n/a	n/a	0	0	0
1540785	WORD	wordpools/wasnorm_wordpool_576.txt	LTP377	ltpFR2	11	8	SPACE	1345	n/a	n/a	0	0	0
1543584	WORD	wordpools/wasnorm_wordpool_576.txt	LTP377	ltpFR2	11	8	JELLO	754	n/a	n/a	0	0	0
1546084	WORD	wordpools/wasnorm_wordpool_576.txt	LTP377	ltpFR2	11	8	THRONE	1461	n/a	n/a	0	0	0
1548865	WORD	wordpools/wasnorm_wordpool_576.txt	LTP377	ltpFR2	11	8	UNCLE	1536	n/a	n/a	0	0	0
1551480	WORD	wordpools/wasnorm_wordpool_576.txt	LTP377	ltpFR2	11	8	STAR	1373	n/a	n/a	0	0	0
1553098	START	n/a	LTP377	ltpFR2	11	n/a	n/a	n/a	14	n/a	n/a	n/a	n/a
1553971	DISTRACTOR	n/a	LTP377	ltpFR2	11	8	n/a	n/a	n/a	n/a	0	0	0
1553980	PROB	n/a	LTP377	ltpFR2	11	n/a	n/a	n/a	14	21	7	9	5
1556711	PROB	n/a	LTP377	ltpFR2	11	n/a	n/a	n/a	14	16	5	2	9
1559493	PROB	n/a	LTP377	ltpFR2	11	n/a	n/a	n/a	14	25	8	8	9
1562608	PROB	n/a	LTP377	ltpFR2	11	n/a	n/a	n/a	14	9	2	1	6
1564308	PROB	n/a	LTP377	ltpFR2	11	n/a	n/a	n/a	14	13	5	1	7
1566340	PROB	n/a	LTP377	ltpFR2	11	n/a	n/a	n/a	14	15	3	8	4
1568173	PROB	n/a	LTP377	ltpFR2	11	n/a	n/a	n/a	14	16	3	6	7
1570155	PROB	n/a	LTP377	ltpFR2	11	n/a	n/a	n/a	14	16	9	6	1
1573121	PROB	n/a	LTP377	ltpFR2	11	n/a	n/a	n/a	14	8	2	2	4
1574869	PROB	n/a	LTP377	ltpFR2	11	n/a	n/a	n/a	14	13	5	7	1
1576764	STOP	n/a	LTP377	ltpFR2	11	n/a	n/a	n/a	14	n/a	n/a	n/a	n/a
1579019	REC_START	n/a	LTP377	ltpFR2	11	8	n/a	n/a	n/a	n/a	0	0	0
1585012	REC_WORD	wordpools/wasnorm_wordpool_576.txt	LTP377	ltpFR2	11	8	JELLO	754	n/a	n/a	0	0	0
1587334	REC_WORD	wordpools/wasnorm_wordpool_576.txt	LTP377	ltpFR2	11	8	STATUE	1374	n/a	n/a	0	0	0
1590675	REC_WORD	wordpools/wasnorm_wordpool_576.txt	LTP377	ltpFR2	11	8	TAXI	1438	n/a	n/a	0	0	0
1591774	REC_WORD	wordpools/wasnorm_wordpool_576.txt	LTP377	ltpFR2	11	8	SCULPTURE	1258	n/a	n/a	0	0	0
1602665	REC_WORD	wordpools/wasnorm_wordpool_576.txt	LTP377	ltpFR2	11	8	COMET	353	n/a	n/a	0	0	0
1603371	REC_WORD	wordpools/wasnorm_wordpool_576.txt	LTP377	ltpFR2	11	8	PIMPLE	1071	n/a	n/a	0	0	0
1604041	REC_WORD	wordpools/wasnorm_wordpool_576.txt	LTP377	ltpFR2	11	8	ROCKET	1202	n/a	n/a	0	0	0
1604775	REC_WORD	wordpools/wasnorm_wordpool_576.txt	LTP377	ltpFR2	11	8	FARMER	553	n/a	n/a	0	0	0
1606580	REC_WORD	wordpools/wasnorm_wordpool_576.txt	LTP377	ltpFR2	11	8	BISON	131	n/a	n/a	0	0	0
1607194	REC_WORD	wordpools/wasnorm_wordpool_576.txt	LTP377	ltpFR2	11	8	SHOULDER	1294	n/a	n/a	0	0	0
1612535	REC_WORD	wordpools/wasnorm_wordpool_576.txt	LTP377	ltpFR2	11	8	STAR	1373	n/a	n/a	0	0	0
1614493	REC_WORD	wordpools/wasnorm_wordpool_576.txt	LTP377	ltpFR2	11	8	UNCLE	1536	n/a	n/a	0	0	0
1616225	REC_WORD	wordpools/wasnorm_wordpool_576.txt	LTP377	ltpFR2	11	8	SPACE	1345	n/a	n/a	0	0	0
1655549	REST_REWET	n/a	LTP377	ltpFR2	11	8	n/a	n/a	n/a	n/a	0	0	0
1879728	WORD	wordpools/wasnorm_wordpool_576.txt	LTP377	ltpFR2	11	9	TUNNEL	1519	n/a	n/a	0	0	0
1882210	WORD	wordpools/wasnorm_wordpool_576.txt	LTP377	ltpFR2	11	9	BUREAU	199	n/a	n/a	0	0	0
1884977	WORD	wordpools/wasnorm_wordpool_576.txt	LTP377	ltpFR2	11	9	PADDLE	1000	n/a	n/a	0	0	0
1887508	WORD	wordpools/wasnorm_wordpool_576.txt	LTP377	ltpFR2	11	9	DIVER	476	n/a	n/a	0	0	0
1890290	WORD	wordpools/wasnorm_wordpool_576.txt	LTP377	ltpFR2	11	9	GOBLIN	645	n/a	n/a	0	0	0
1893023	WORD	wordpools/wasnorm_wordpool_576.txt	LTP377	ltpFR2	11	9	SHRUB	1299	n/a	n/a	0	0	0
1895837	WORD	wordpools/wasnorm_wordpool_576.txt	LTP377	ltpFR2	11	9	PORK	1108	n/a	n/a	0	0	0
1898319	WORD	wordpools/wasnorm_wordpool_576.txt	LTP377	ltpFR2	11	9	CARROT	249	n/a	n/a	0	0	0
1900768	WORD	wordpools/wasnorm_wordpool_576.txt	LTP377	ltpFR2	11	9	RABBIT	1152	n/a	n/a	0	0	0
1903217	WORD	wordpools/wasnorm_wordpool_576.txt	LTP377	ltpFR2	11	9	PRINCESS	1125	n/a	n/a	0	0	0
1905733	WORD	wordpools/wasnorm_wordpool_576.txt	LTP377	ltpFR2	11	9	LASER	801	n/a	n/a	0	0	0
1908298	WORD	wordpools/wasnorm_wordpool_576.txt	LTP377	ltpFR2	11	9	HORNET	718	n/a	n/a	0	0	0
1911048	WORD	wordpools/wasnorm_wordpool_576.txt	LTP377	ltpFR2	11	9	RUG	1215	n/a	n/a	0	0	0
1913546	WORD	wordpools/wasnorm_wordpool_576.txt	LTP377	ltpFR2	11	9	HAMPER	682	n/a	n/a	0	0	0
1916261	WORD	wordpools/wasnorm_wordpool_576.txt	LTP377	ltpFR2	11	9	DONKEY	484	n/a	n/a	0	0	0
1919078	WORD	wordpools/wasnorm_wordpool_576.txt	LTP377	ltpFR2	11	9	SWIMMER	1420	n/a	n/a	0	0	0
1921642	WORD	wordpools/wasnorm_wordpool_576.txt	LTP377	ltpFR2	11	9	COLONEL	348	n/a	n/a	0	0	0
1924158	WORD	wordpools/wasnorm_wordpool_576.txt	LTP377	ltpFR2	11	9	MARINE	869	n/a	n/a	0	0	0
1926706	WORD	wordpools/wasnorm_wordpool_576.txt	LTP377	ltpFR2	11	9	WORLD	1622	n/a	n/a	0	0	0
1929205	WORD	wordpools/wasnorm_wordpool_576.txt	LTP377	ltpFR2	11	9	BUCKET	184	n/a	n/a	0	0	0
1931687	WORD	wordpools/wasnorm_wordpool_576.txt	LTP377	ltpFR2	11	9	STICKER	1382	n/a	n/a	0	0	0
1934403	WORD	wordpools/wasnorm_wordpool_576.txt	LTP377	ltpFR2	11	9	FIREMAN	569	n/a	n/a	0	0	0
1937185	WORD	wordpools/wasnorm_wordpool_576.txt	LTP377	ltpFR2	11	9	TROMBONE	1508	n/a	n/a	0	0	0
1939951	WORD	wordpools/wasnorm_wordpool_576.txt	LTP377	ltpFR2	11	9	AGENT	10	n/a	n/a	0	0	0
1941566	START	n/a	LTP377	ltpFR2	11	n/a	n/a	n/a	15	n/a	n/a	n/a	n/a
1942567	DISTRACTOR	n/a	LTP377	ltpFR2	11	9	n/a	n/a	n/a	n/a	0	0	0
1942582	PROB	n/a	LTP377	ltpFR2	11	n/a	n/a	n/a	15	15	6	6	3
1944681	PROB	n/a	LTP377	ltpFR2	11	n/a	n/a	n/a	15	9	5	3	1
1946447	PROB	n/a	LTP377	ltpFR2	11	n/a	n/a	n/a	15	9	1	1	7
1948213	PROB	n/a	LTP377	ltpFR2	11	n/a	n/a	n/a	15	15	6	5	4
1950745	PROB	n/a	LTP377	ltpFR2	11	n/a	n/a	n/a	15	14	6	4	4
1952861	PROB	n/a	LTP377	ltpFR2	11	n/a	n/a	n/a	15	7	1	5	1
1954593	PROB	n/a	LTP377	ltpFR2	11	n/a	n/a	n/a	15	19	5	7	7
1956609	PROB	n/a	LTP377	ltpFR2	11	n/a	n/a	n/a	15	23	8	9	6
1959291	PROB	n/a	LTP377	ltpFR2	11	n/a	n/a	n/a	15	20	8	6	6
1961075	PROB	n/a	LTP377	ltpFR2	11	n/a	n/a	n/a	15	8	3	2	3
1962723	PROB	n/a	LTP377	ltpFR2	11	n/a	n/a	n/a	15	19	8	2	9
1964457	STOP	n/a	LTP377	ltpFR2	11	n/a	n/a	n/a	15	n/a	n/a	n/a	n/a
1967438	REC_START	n/a	LTP377	ltpFR2	11	9	n/a	n/a	n/a	n/a	0	0	0
1971924	REC_WORD	wordpools/wasnorm_wordpool_576.txt	LTP377	ltpFR2	11	9	BUREAU	199	n/a	n/a	0	0	0
1977586	REC_WORD	wordpools/wasnorm_wordpool_576.txt	LTP377	ltpFR2	11	9	GOBLIN	645	n/a	n/a	0	0	0
1979988	REC_WORD	wordpools/wasnorm_wordpool_576.txt	LTP377	ltpFR2	11	9	DIVER	476	n/a	n/a	0	0	0
1981340	REC_WORD	wordpools/wasnorm_wordpool_576.txt	LTP377	ltpFR2	11	9	PADDLE	1000	n/a	n/a	0	0	0
1982650	REC_WORD	wordpools/wasnorm_wordpool_576.txt	LTP377	ltpFR2	11	9	SWIMMER	1420	n/a	n/a	0	0	0
1984116	REC_WORD	wordpools/wasnorm_wordpool_576.txt	LTP377	ltpFR2	11	9	CARROT	249	n/a	n/a	0	0	0
1984810	REC_WORD	wordpools/wasnorm_wordpool_576.txt	LTP377	ltpFR2	11	9	RABBIT	1152	n/a	n/a	0	0	0
1985655	REC_WORD	wordpools/wasnorm_wordpool_576.txt	LTP377	ltpFR2	11	9	PRINCESS	1125	n/a	n/a	0	0	0
1987921	REC_WORD	wordpools/wasnorm_wordpool_576.txt	LTP377	ltpFR2	11	9	FIREMAN	569	n/a	n/a	0	0	0
1989031	REC_WORD	wordpools/wasnorm_wordpool_576.txt	LTP377	ltpFR2	11	9	AGENT	10	n/a	n/a	0	0	0
1990048	REC_WORD	wordpools/wasnorm_wordpool_576.txt	LTP377	ltpFR2	11	9	MARINE	869	n/a	n/a	0	0	0
1990991	REC_WORD	wordpools/wasnorm_wordpool_576.txt	LTP377	ltpFR2	11	9	COLONEL	348	n/a	n/a	0	0	0
1996875	REC_WORD	wordpools/wasnorm_wordpool_576.txt	LTP377	ltpFR2	11	9	TUNNEL	1519	n/a	n/a	0	0	0
2057913	DISTRACTOR	n/a	LTP377	ltpFR2	11	10	n/a	n/a	n/a	n/a	0	0	0
2057913	START	n/a	LTP377	ltpFR2	11	n/a	n/a	n/a	16	n/a	n/a	n/a	n/a
2057930	PROB	n/a	LTP377	ltpFR2	11	n/a	n/a	n/a	16	20	8	7	5
2060012	PROB	n/a	LTP377	ltpFR2	11	n/a	n/a	n/a	16	16	9	4	3
2061995	PROB	n/a	LTP377	ltpFR2	11	n/a	n/a	n/a	16	24	6	9	9
2064077	PROB	n/a	LTP377	ltpFR2	11	n/a	n/a	n/a	16	20	7	8	5
2066441	PROB	n/a	LTP377	ltpFR2	11	n/a	n/a	n/a	16	16	2	9	5
2068441	PROB	n/a	LTP377	ltpFR2	11	n/a	n/a	n/a	16	16	9	5	2
2070406	PROB	n/a	LTP377	ltpFR2	11	n/a	n/a	n/a	16	17	4	8	5
2072289	PROB	n/a	LTP377	ltpFR2	11	n/a	n/a	n/a	16	12	1	7	4
2074888	PROB	n/a	LTP377	ltpFR2	11	n/a	n/a	n/a	16	22	8	7	7
2078752	PROB	n/a	LTP377	ltpFR2	11	n/a	n/a	n/a	16	9	5	1	3
2080653	STOP	n/a	LTP377	ltpFR2	11	n/a	n/a	n/a	16	n/a	n/a	n/a	n/a
2083001	WORD	wordpools/wasnorm_wordpool_576.txt	LTP377	ltpFR2	11	10	GIFT	635	n/a	n/a	0	0	0
2085749	WORD	wordpools/wasnorm_wordpool_576.txt	LTP377	ltpFR2	11	10	ATOM	55	n/a	n/a	0	0	0
2088298	WORD	wordpools/wasnorm_wordpool_576.txt	LTP377	ltpFR2	11	10	MOTEL	919	n/a	n/a	0	0	0
2090814	WORD	wordpools/wasnorm_wordpool_576.txt	LTP377	ltpFR2	11	10	PIZZA	1079	n/a	n/a	0	0	0
2093279	WORD	wordpools/wasnorm_wordpool_576.txt	LTP377	ltpFR2	11	10	PILOT	1070	n/a	n/a	0	0	0
2095929	WORD	wordpools/wasnorm_wordpool_576.txt	LTP377	ltpFR2	11	10	STAMP	1370	n/a	n/a	0	0	0
2098377	WORD	wordpools/wasnorm_wordpool_576.txt	LTP377	ltpFR2	11	10	LODGE	839	n/a	n/a	0	0	0
2100859	WORD	wordpools/wasnorm_wordpool_576.txt	LTP377	ltpFR2	11	10	BRIEFCASE	175	n/a	n/a	0	0	0
2103524	WORD	wordpools/wasnorm_wordpool_576.txt	LTP377	ltpFR2	11	10	SHERIFF	1284	n/a	n/a	0	0	0
2106173	WORD	wordpools/wasnorm_wordpool_576.txt	LTP377	ltpFR2	11	10	CLOUD	328	n/a	n/a	0	0	0
2108705	WORD	wordpools/wasnorm_wordpool_576.txt	LTP377	ltpFR2	11	10	GARBAGE	622	n/a	n/a	0	0	0
2111137	WORD	wordpools/wasnorm_wordpool_576.txt	LTP377	ltpFR2	11	10	RADISH	1158	n/a	n/a	0	0	0
2113620	WORD	wordpools/wasnorm_wordpool_576.txt	LTP377	ltpFR2	11	10	MATCH	878	n/a	n/a	0	0	0
2116335	WORD	wordpools/wasnorm_wordpool_576.txt	LTP377	ltpFR2	11	10	FLASHLIGHT	575	n/a	n/a	0	0	0
2118767	WORD	wordpools/wasnorm_wordpool_576.txt	LTP377	ltpFR2	11	10	LUGGAGE	847	n/a	n/a	0	0	0
2121499	WORD	wordpools/wasnorm_wordpool_576.txt	LTP377	ltpFR2	11	10	STALLION	1369	n/a	n/a	0	0	0
2123966	WORD	wordpools/wasnorm_wordpool_576.txt	LTP377	ltpFR2	11	10	BRANDY	169	n/a	n/a	0	0	0
2126697	WORD	wordpools/wasnorm_wordpool_576.txt	LTP377	ltpFR2	11	10	CATCHER	258	n/a	n/a	0	0	0
2129496	WORD	wordpools/wasnorm_wordpool_576.txt	LTP377	ltpFR2	11	10	FOREST	593	n/a	n/a	0	0	0
2131962	WORD	wordpools/wasnorm_wordpool_576.txt	LTP377	ltpFR2	11	10	BRANCH	168	n/a	n/a	0	0	0
2134760	WORD	wordpools/wasnorm_wordpool_576.txt	LTP377	ltpFR2	11	10	KNAPSACK	783	n/a	n/a	0	0	0
2137459	WORD	wordpools/wasnorm_wordpool_576.txt	LTP377	ltpFR2	11	10	MAPLE	866	n/a	n/a	0	0	0
2140157	WORD	wordpools/wasnorm_wordpool_576.txt	LTP377	ltpFR2	11	10	CHIPMUNK	304	n/a	n/a	0	0	0
2142606	WORD	wordpools/wasnorm_wordpool_576.txt	LTP377	ltpFR2	11	10	MEDAL	885	n/a	n/a	0	0	0
2144222	START	n/a	LTP377	ltpFR2	11	n/a	n/a	n/a	17	n/a	n/a	n/a	n/a
2145041	DISTRACTOR	n/a	LTP377	ltpFR2	11	10	n/a	n/a	n/a	n/a	0	0	0
2145056	PROB	n/a	LTP377	ltpFR2	11	n/a	n/a	n/a	17	20	6	8	6
2146871	PROB	n/a	LTP377	ltpFR2	11	n/a	n/a	n/a	17	9	1	5	3
2148737	PROB	n/a	LTP377	ltpFR2	11	n/a	n/a	n/a	17	7	3	1	3
2150403	PROB	n/a	LTP377	ltpFR2	11	n/a	n/a	n/a	17	26	9	8	9
2152168	PROB	n/a	LTP377	ltpFR2	11	n/a	n/a	n/a	17	13	4	6	3
2153618	PROB	n/a	LTP377	ltpFR2	11	n/a	n/a	n/a	17	25	9	9	7
2155085	PROB	n/a	LTP377	ltpFR2	11	n/a	n/a	n/a	17	6	1	1	4
2156450	PROB	n/a	LTP377	ltpFR2	11	n/a	n/a	n/a	17	23	8	9	6
2162247	PROB	n/a	LTP377	ltpFR2	11	n/a	n/a	n/a	17	10	8	1	1
2168222	STOP	n/a	LTP377	ltpFR2	11	n/a	n/a	n/a	17	n/a	n/a	n/a	n/a
2170078	REC_START	n/a	LTP377	ltpFR2	11	10	n/a	n/a	n/a	n/a	0	0	0
2178421	REC_WORD	wordpools/wasnorm_wordpool_576.txt	LTP377	ltpFR2	11	10	GIFT	635	n/a	n/a	0	0	0
2179191	REC_WORD	wordpools/wasnorm_wordpool_576.txt	LTP377	ltpFR2	11	10	ATOM	55	n/a	n/a	0	0	0
2180526	REC_WORD	wordpools/wasnorm_wordpool_576.txt	LTP377	ltpFR2	11	10	MOTEL	919	n/a	n/a	0	0	0
2181270	REC_WORD	wordpools/wasnorm_wordpool_576.txt	LTP377	ltpFR2	11	10	PIZZA	1079	n/a	n/a	0	0	0
2181789	REC_WORD	wordpools/wasnorm_wordpool_576.txt	LTP377	ltpFR2	11	10	PILOT	1070	n/a	n/a	0	0	0
2185539	REC_WORD	wordpools/wasnorm_wordpool_576.txt	LTP377	ltpFR2	11	10	LODGE	839	n/a	n/a	0	0	0
2189248	REC_WORD	wordpools/wasnorm_wordpool_576.txt	LTP377	ltpFR2	11	10	BRIEFCASE	175	n/a	n/a	0	0	0
2191143	REC_WORD	wordpools/wasnorm_wordpool_576.txt	LTP377	ltpFR2	11	10	SHERIFF	1284	n/a	n/a	0	0	0
2192374	REC_WORD	wordpools/wasnorm_wordpool_576.txt	LTP377	ltpFR2	11	10	LUGGAGE	847	n/a	n/a	0	0	0
2192751	REC_WORD	wordpools/wasnorm_wordpool_576.txt	LTP377	ltpFR2	11	10	FLASHLIGHT	575	n/a	n/a	0	0	0
2193263	REC_WORD	wordpools/wasnorm_wordpool_576.txt	LTP377	ltpFR2	11	10	MATCH	878	n/a	n/a	0	0	0
2193761	REC_WORD	wordpools/wasnorm_wordpool_576.txt	LTP377	ltpFR2	11	10	RADISH	1158	n/a	n/a	0	0	0
2205399	REC_WORD	wordpools/wasnorm_wordpool_576.txt	LTP377	ltpFR2	11	10	FOREST	593	n/a	n/a	0	0	0
2206367	REC_WORD	wordpools/wasnorm_wordpool_576.txt	LTP377	ltpFR2	11	10	MEDAL	885	n/a	n/a	0	0	0
2207783	REC_WORD	wordpools/wasnorm_wordpool_576.txt	LTP377	ltpFR2	11	10	KNAPSACK	783	n/a	n/a	0	0	0
2209064	REC_WORD	wordpools/wasnorm_wordpool_576.txt	LTP377	ltpFR2	11	10	MAPLE	866	n/a	n/a	0	0	0
2224855	REC_WORD	wordpools/wasnorm_wordpool_576.txt	LTP377	ltpFR2	11	10	BRANCH	168	n/a	n/a	0	0	0
2260535	WORD	wordpools/wasnorm_wordpool_576.txt	LTP377	ltpFR2	11	11	BABY	64	n/a	n/a	0	0	0
2263267	WORD	wordpools/wasnorm_wordpool_576.txt	LTP377	ltpFR2	11	11	PLAYGROUND	1087	n/a	n/a	0	0	0
2266067	WORD	wordpools/wasnorm_wordpool_576.txt	LTP377	ltpFR2	11	11	ARMY	39	n/a	n/a	0	0	0
2268548	WORD	wordpools/wasnorm_wordpool_576.txt	LTP377	ltpFR2	11	11	VELVET	1555	n/a	n/a	0	0	0
2271031	WORD	wordpools/wasnorm_wordpool_576.txt	LTP377	ltpFR2	11	11	SHELTER	1282	n/a	n/a	0	0	0
2273745	WORD	wordpools/wasnorm_wordpool_576.txt	LTP377	ltpFR2	11	11	BANJO	82	n/a	n/a	0	0	0
2276344	WORD	wordpools/wasnorm_wordpool_576.txt	LTP377	ltpFR2	11	11	SILK	1307	n/a	n/a	0	0	0
2279160	WORD	wordpools/wasnorm_wordpool_576.txt	LTP377	ltpFR2	11	11	LOFT	840	n/a	n/a	0	0	0
2281993	WORD	wordpools/wasnorm_wordpool_576.txt	LTP377	ltpFR2	11	11	OX	994	n/a	n/a	0	0	0
2284590	WORD	wordpools/wasnorm_wordpool_576.txt	LTP377	ltpFR2	11	11	FEMALE	559	n/a	n/a	0	0	0
2287156	WORD	wordpools/wasnorm_wordpool_576.txt	LTP377	ltpFR2	11	11	SHOVEL	1295	n/a	n/a	0	0	0
2289905	WORD	wordpools/wasnorm_wordpool_576.txt	LTP377	ltpFR2	11	11	SADDLE	1221	n/a	n/a	0	0	0
2292337	WORD	wordpools/wasnorm_wordpool_576.txt	LTP377	ltpFR2	11	11	CHURCH	307	n/a	n/a	0	0	0
2294902	WORD	wordpools/wasnorm_wordpool_576.txt	LTP377	ltpFR2	11	11	ROBOT	1200	n/a	n/a	0	0	0
2297568	WORD	wordpools/wasnorm_wordpool_576.txt	LTP377	ltpFR2	11	11	WASHER	1592	n/a	n/a	0	0	0
2300267	WORD	wordpools/wasnorm_wordpool_576.txt	LTP377	ltpFR2	11	11	HIGHWAY	707	n/a	n/a	0	0	0
2302782	WORD	wordpools/wasnorm_wordpool_576.txt	LTP377	ltpFR2	11	11	SIDEWALK	1303	n/a	n/a	0	0	0
2305297	WORD	wordpools/wasnorm_wordpool_576.txt	LTP377	ltpFR2	11	11	CREVICE	405	n/a	n/a	0	0	0
2307914	WORD	wordpools/wasnorm_wordpool_576.txt	LTP377	ltpFR2	11	11	DOUGHNUT	490	n/a	n/a	0	0	0
2310478	WORD	wordpools/wasnorm_wordpool_576.txt	LTP377	ltpFR2	11	11	BOARD	143	n/a	n/a	0	0	0
2312978	WORD	wordpools/wasnorm_wordpool_576.txt	LTP377	ltpFR2	11	11	MAMMAL	861	n/a	n/a	0	0	0
2315793	WORD	wordpools/wasnorm_wordpool_576.txt	LTP377	ltpFR2	11	11	TILE	1468	n/a	n/a	0	0	0
2318258	WORD	wordpools/wasnorm_wordpool_576.txt	LTP377	ltpFR2	11	11	HELMET	702	n/a	n/a	0	0	0
2320774	WORD	wordpools/wasnorm_wordpool_576.txt	LTP377	ltpFR2	11	11	AWARD	63	n/a	n/a	0	0	0
2322390	START	n/a	LTP377	ltpFR2	11	n/a	n/a	n/a	18	n/a	n/a	n/a	n/a
2323502	DISTRACTOR	n/a	LTP377	ltpFR2	11	11	n/a	n/a	n/a	n/a	0	0	0
2323506	PROB	n/a	LTP377	ltpFR2	11	n/a	n/a	n/a	18	20	9	2	9
2325321	PROB	n/a	LTP377	ltpFR2	11	n/a	n/a	n/a	18	20	2	9	9
2326955	PROB	n/a	LTP377	ltpFR2	11	n/a	n/a	n/a	18	19	6	8	5
2329436	PROB	n/a	LTP377	ltpFR2	11	n/a	n/a	n/a	18	21	7	7	7
2330786	PROB	n/a	LTP377	ltpFR2	11	n/a	n/a	n/a	18	14	9	1	4
2332318	PROB	n/a	LTP377	ltpFR2	11	n/a	n/a	n/a	18	24	6	9	9
2334217	PROB	n/a	LTP377	ltpFR2	11	n/a	n/a	n/a	18	17	1	9	7
2336283	PROB	n/a	LTP377	ltpFR2	11	n/a	n/a	n/a	18	17	6	4	7
2339348	PROB	n/a	LTP377	ltpFR2	11	n/a	n/a	n/a	18	20	8	4	8
2341381	PROB	n/a	LTP377	ltpFR2	11	n/a	n/a	n/a	18	8	2	5	1
2342964	PROB	n/a	LTP377	ltpFR2	11	n/a	n/a	n/a	18	12	6	1	5
2346390	STOP	n/a	LTP377	ltpFR2	11	n/a	n/a	n/a	18	n/a	n/a	n/a	n/a
2348195	REC_START	n/a	LTP377	ltpFR2	11	11	n/a	n/a	n/a	n/a	0	0	0
2353980	REC_WORD	wordpools/wasnorm_wordpool_576.txt	LTP377	ltpFR2	11	11	VELVET	1555	n/a	n/a	0	0	0
2354885	REC_WORD	wordpools/wasnorm_wordpool_576.txt	LTP377	ltpFR2	11	11	ARMY	39	n/a	n/a	0	0	0
2355507	REC_WORD	wordpools/wasnorm_wordpool_576.txt	LTP377	ltpFR2	11	11	BANJO	82	n/a	n/a	0	0	0
2356258	REC_WORD	wordpools/wasnorm_wordpool_576.txt	LTP377	ltpFR2	11	11	SHELTER	1282	n/a	n/a	0	0	0
2438652	WORD	wordpools/wasnorm_wordpool_576.txt	LTP377	ltpFR2	11	12	SNAIL	1332	n/a	n/a	0	0	0
2441102	WORD	wordpools/wasnorm_wordpool_576.txt	LTP377	ltpFR2	11	12	COOK	372	n/a	n/a	0	0	0
2443767	WORD	wordpools/wasnorm_wordpool_576.txt	LTP377	ltpFR2	11	12	TEACHER	1440	n/a	n/a	0	0	0
2446415	WORD	wordpools/wasnorm_wordpool_576.txt	LTP377	ltpFR2	11	12	STUDENT	1395	n/a	n/a	0	0	0
2448915	WORD	wordpools/wasnorm_wordpool_576.txt	LTP377	ltpFR2	11	12	PORTRAIT	1111	n/a	n/a	0	0	0
2451663	WORD	wordpools/wasnorm_wordpool_576.txt	LTP377	ltpFR2	11	12	DRAGON	492	n/a	n/a	0	0	0
2454345	WORD	wordpools/wasnorm_wordpool_576.txt	LTP377	ltpFR2	11	12	MARS	873	n/a	n/a	0	0	0
2457045	WORD	wordpools/wasnorm_wordpool_576.txt	LTP377	ltpFR2	11	12	SLUG	1329	n/a	n/a	0	0	0
2459609	WORD	wordpools/wasnorm_wordpool_576.txt	LTP377	ltpFR2	11	12	FUNGUS	614	n/a	n/a	0	0	0
2462408	WORD	wordpools/wasnorm_wordpool_576.txt	LTP377	ltpFR2	11	12	INMATE	738	n/a	n/a	0	0	0
2464925	WORD	wordpools/wasnorm_wordpool_576.txt	LTP377	ltpFR2	11	12	WINDOW	1611	n/a	n/a	0	0	0
2467372	WORD	wordpools/wasnorm_wordpool_576.txt	LTP377	ltpFR2	11	12	GUITAR	670	n/a	n/a	0	0	0
2469855	WORD	wordpools/wasnorm_wordpool_576.txt	LTP377	ltpFR2	11	12	WHISTLE	1606	n/a	n/a	0	0	0
2472420	WORD	wordpools/wasnorm_wordpool_576.txt	LTP377	ltpFR2	11	12	SUSPECT	1415	n/a	n/a	0	0	0
2474986	WORD	wordpools/wasnorm_wordpool_576.txt	LTP377	ltpFR2	11	12	SCALLOP	1242	n/a	n/a	0	0	0
2477618	WORD	wordpools/wasnorm_wordpool_576.txt	LTP377	ltpFR2	11	12	IDOL	733	n/a	n/a	0	0	0
2480416	WORD	wordpools/wasnorm_wordpool_576.txt	LTP377	ltpFR2	11	12	SAUSAGE	1238	n/a	n/a	0	0	0
2482849	WORD	wordpools/wasnorm_wordpool_576.txt	LTP377	ltpFR2	11	12	SPOOL	1356	n/a	n/a	0	0	0
2485447	WORD	wordpools/wasnorm_wordpool_576.txt	LTP377	ltpFR2	11	12	COLLEGE	346	n/a	n/a	0	0	0
2488196	WORD	wordpools/wasnorm_wordpool_576.txt	LTP377	ltpFR2	11	12	NOTEBOOK	959	n/a	n/a	0	0	0
2490962	WORD	wordpools/wasnorm_wordpool_576.txt	LTP377	ltpFR2	11	12	BURGLAR	200	n/a	n/a	0	0	0
2493410	WORD	wordpools/wasnorm_wordpool_576.txt	LTP377	ltpFR2	11	12	TABLE	1426	n/a	n/a	0	0	0
2495977	WORD	wordpools/wasnorm_wordpool_576.txt	LTP377	ltpFR2	11	12	HEDGE	699	n/a	n/a	0	0	0
2498608	WORD	wordpools/wasnorm_wordpool_576.txt	LTP377	ltpFR2	11	12	CLOCK	325	n/a	n/a	0	0	0
2500224	START	n/a	LTP377	ltpFR2	11	n/a	n/a	n/a	19	n/a	n/a	n/a	n/a
2501265	DISTRACTOR	n/a	LTP377	ltpFR2	11	12	n/a	n/a	n/a	n/a	0	0	0
2501273	PROB	n/a	LTP377	ltpFR2	11	n/a	n/a	n/a	19	6	1	3	2
2503739	PROB	n/a	LTP377	ltpFR2	11	n/a	n/a	n/a	19	21	9	6	6
2506254	PROB	n/a	LTP377	ltpFR2	11	n/a	n/a	n/a	19	22	6	8	8
2508670	PROB	n/a	LTP377	ltpFR2	11	n/a	n/a	n/a	19	15	8	4	3
2510819	PROB	n/a	LTP377	ltpFR2	11	n/a	n/a	n/a	19	7	1	5	1
2512385	PROB	n/a	LTP377	ltpFR2	11	n/a	n/a	n/a	19	17	7	9	1
2514517	PROB	n/a	LTP377	ltpFR2	11	n/a	n/a	n/a	19	10	4	3	3
2516950	PROB	n/a	LTP377	ltpFR2	11	n/a	n/a	n/a	19	16	7	2	7
2518632	PROB	n/a	LTP377	ltpFR2	11	n/a	n/a	n/a	19	15	1	6	8
2520198	PROB	n/a	LTP377	ltpFR2	11	n/a	n/a	n/a	19	14	3	5	6
2524223	STOP	n/a	LTP377	ltpFR2	11	n/a	n/a	n/a	19	n/a	n/a	n/a	n/a
2526146	REC_START	n/a	LTP377	ltpFR2	11	12	n/a	n/a	n/a	n/a	0	0	0
2529074	REC_WORD	wordpools/wasnorm_wordpool_576.txt	LTP377	ltpFR2	11	12	TEACHER	1440	n/a	n/a	0	0	0
2530119	REC_WORD	wordpools/wasnorm_wordpool_576.txt	LTP377	ltpFR2	11	12	STUDENT	1395	n/a	n/a	0	0	0
2533197	REC_WORD	wordpools/wasnorm_wordpool_576.txt	LTP377	ltpFR2	11	12	INMATE	738	n/a	n/a	0	0	0
2533874	REC_WORD	wordpools/wasnorm_wordpool_576.txt	LTP377	ltpFR2	11	12	WINDOW	1611	n/a	n/a	0	0	0
2537367	REC_WORD	wordpools/wasnorm_wordpool_576.txt	LTP377	ltpFR2	11	12	NOTEBOOK	959	n/a	n/a	0	0	0
2544565	REC_WORD	wordpools/wasnorm_wordpool_576.txt	LTP377	ltpFR2	11	12	TABLE	1426	n/a	n/a	0	0	0
2545137	REC_WORD	wordpools/wasnorm_wordpool_576.txt	LTP377	ltpFR2	11	12	HEDGE	699	n/a	n/a	0	0	0
2546258	REC_WORD	wordpools/wasnorm_wordpool_576.txt	LTP377	ltpFR2	11	12	CONVICT	371	n/a	n/a	0	0	0
2551812	REC_WORD	wordpools/wasnorm_wordpool_576.txt	LTP377	ltpFR2	11	12	SAUSAGE	1238	n/a	n/a	0	0	0
2552651	REC_WORD	wordpools/wasnorm_wordpool_576.txt	LTP377	ltpFR2	11	12	SCALLOP	1242	n/a	n/a	0	0	0
2560497	REC_WORD	wordpools/wasnorm_wordpool_576.txt	LTP377	ltpFR2	11	12	IDOL	733	n/a	n/a	0	0	0
2567839	REC_WORD	wordpools/wasnorm_wordpool_576.txt	LTP377	ltpFR2	11	12	CLOCK	325	n/a	n/a	0	0	0
2571501	REC_WORD	wordpools/wasnorm_wordpool_576.txt	LTP377	ltpFR2	11	12	COLLEGE	346	n/a	n/a	0	0	0
2616620	DISTRACTOR	n/a	LTP377	ltpFR2	11	13	n/a	n/a	n/a	n/a	0	0	0
2616620	START	n/a	LTP377	ltpFR2	11	n/a	n/a	n/a	20	n/a	n/a	n/a	n/a
2616636	PROB	n/a	LTP377	ltpFR2	11	n/a	n/a	n/a	20	21	9	7	5
2621052	PROB	n/a	LTP377	ltpFR2	11	n/a	n/a	n/a	20	15	6	1	8
2623617	PROB	n/a	LTP377	ltpFR2	11	n/a	n/a	n/a	20	10	7	1	2
2625849	PROB	n/a	LTP377	ltpFR2	11	n/a	n/a	n/a	20	21	4	8	9
2627815	PROB	n/a	LTP377	ltpFR2	11	n/a	n/a	n/a	20	7	2	4	1
2629597	PROB	n/a	LTP377	ltpFR2	11	n/a	n/a	n/a	20	21	9	3	9
2633063	PROB	n/a	LTP377	ltpFR2	11	n/a	n/a	n/a	20	18	9	6	3
2635528	PROB	n/a	LTP377	ltpFR2	11	n/a	n/a	n/a	20	11	9	3	1
2640619	STOP	n/a	LTP377	ltpFR2	11	n/a	n/a	n/a	20	n/a	n/a	n/a	n/a
2641625	WORD	wordpools/wasnorm_wordpool_576.txt	LTP377	ltpFR2	11	13	FLESH	579	n/a	n/a	0	0	0
2644357	WORD	wordpools/wasnorm_wordpool_576.txt	LTP377	ltpFR2	11	13	HEART	697	n/a	n/a	0	0	0
2647090	WORD	wordpools/wasnorm_wordpool_576.txt	LTP377	ltpFR2	11	13	BUTCHER	203	n/a	n/a	0	0	0
2649521	WORD	wordpools/wasnorm_wordpool_576.txt	LTP377	ltpFR2	11	13	MEAT	883	n/a	n/a	0	0	0
2652021	WORD	wordpools/wasnorm_wordpool_576.txt	LTP377	ltpFR2	11	13	BOUQUET	157	n/a	n/a	0	0	0
2654502	WORD	wordpools/wasnorm_wordpool_576.txt	LTP377	ltpFR2	11	13	PERFUME	1049	n/a	n/a	0	0	0
2657151	WORD	wordpools/wasnorm_wordpool_576.txt	LTP377	ltpFR2	11	13	SKETCH	1315	n/a	n/a	0	0	0
2659917	WORD	wordpools/wasnorm_wordpool_576.txt	LTP377	ltpFR2	11	13	SKILLET	1317	n/a	n/a	0	0	0
2662532	WORD	wordpools/wasnorm_wordpool_576.txt	LTP377	ltpFR2	11	13	HUSBAND	728	n/a	n/a	0	0	0
2665347	WORD	wordpools/wasnorm_wordpool_576.txt	LTP377	ltpFR2	11	13	ROD	1203	n/a	n/a	0	0	0
2667879	WORD	wordpools/wasnorm_wordpool_576.txt	LTP377	ltpFR2	11	13	CARRIAGE	248	n/a	n/a	0	0	0
2670428	WORD	wordpools/wasnorm_wordpool_576.txt	LTP377	ltpFR2	11	13	WASP	1593	n/a	n/a	0	0	0
2673011	WORD	wordpools/wasnorm_wordpool_576.txt	LTP377	ltpFR2	11	13	GARDEN	623	n/a	n/a	0	0	0
2675709	WORD	wordpools/wasnorm_wordpool_576.txt	LTP377	ltpFR2	11	13	HAWK	692	n/a	n/a	0	0	0
2678524	WORD	wordpools/wasnorm_wordpool_576.txt	LTP377	ltpFR2	11	13	LIGHTNING	820	n/a	n/a	0	0	0
2681257	WORD	wordpools/wasnorm_wordpool_576.txt	LTP377	ltpFR2	11	13	CASHEW	253	n/a	n/a	0	0	0
2683923	WORD	wordpools/wasnorm_wordpool_576.txt	LTP377	ltpFR2	11	13	CROSS	413	n/a	n/a	0	0	0
2686471	WORD	wordpools/wasnorm_wordpool_576.txt	LTP377	ltpFR2	11	13	SPOUSE	1358	n/a	n/a	0	0	0
2689236	WORD	wordpools/wasnorm_wordpool_576.txt	LTP377	ltpFR2	11	13	FRAGRANCE	599	n/a	n/a	0	0	0
2691668	WORD	wordpools/wasnorm_wordpool_576.txt	LTP377	ltpFR2	11	13	NECKLACE	940	n/a	n/a	0	0	0
2694334	WORD	wordpools/wasnorm_wordpool_576.txt	LTP377	ltpFR2	11	13	CURTAIN	427	n/a	n/a	0	0	0
2697000	WORD	wordpools/wasnorm_wordpool_576.txt	LTP377	ltpFR2	11	13	GARLIC	624	n/a	n/a	0	0	0
2699531	WORD	wordpools/wasnorm_wordpool_576.txt	LTP377	ltpFR2	11	13	ROBIN	1199	n/a	n/a	0	0	0
2702081	WORD	wordpools/wasnorm_wordpool_576.txt	LTP377	ltpFR2	11	13	OMELET	976	n/a	n/a	0	0	0
2703696	START	n/a	LTP377	ltpFR2	11	n/a	n/a	n/a	21	n/a	n/a	n/a	n/a
2704858	DISTRACTOR	n/a	LTP377	ltpFR2	11	13	n/a	n/a	n/a	n/a	0	0	0
2704862	PROB	n/a	LTP377	ltpFR2	11	n/a	n/a	n/a	21	14	5	8	1
2708427	PROB	n/a	LTP377	ltpFR2	11	n/a	n/a	n/a	21	19	9	7	3
2710243	PROB	n/a	LTP377	ltpFR2	11	n/a	n/a	n/a	21	17	8	6	3
2715307	PROB	n/a	LTP377	ltpFR2	11	n/a	n/a	n/a	21	13	5	6	2
2716907	PROB	n/a	LTP377	ltpFR2	11	n/a	n/a	n/a	21	14	8	2	4
2718306	PROB	n/a	LTP377	ltpFR2	11	n/a	n/a	n/a	21	17	9	4	4
2720472	PROB	n/a	LTP377	ltpFR2	11	n/a	n/a	n/a	21	8	1	6	1
2721804	PROB	n/a	LTP377	ltpFR2	11	n/a	n/a	n/a	21	13	3	2	8
2723370	PROB	n/a	LTP377	ltpFR2	11	n/a	n/a	n/a	21	12	6	5	1
2724653	PROB	n/a	LTP377	ltpFR2	11	n/a	n/a	n/a	21	23	9	7	7
2727586	STOP	n/a	LTP377	ltpFR2	11	n/a	n/a	n/a	21	n/a	n/a	n/a	n/a
2729568	REC_START	n/a	LTP377	ltpFR2	11	13	n/a	n/a	n/a	n/a	0	0	0
2730087	REC_WORD	wordpools/wasnorm_wordpool_576.txt	LTP377	ltpFR2	11	13	FLESH	579	n/a	n/a	0	0	0
2731100	REC_WORD	wordpools/wasnorm_wordpool_576.txt	LTP377	ltpFR2	11	13	HEART	697	n/a	n/a	0	0	0
2733280	REC_WORD	wordpools/wasnorm_wordpool_576.txt	LTP377	ltpFR2	11	13	BUTCHER	203	n/a	n/a	0	0	0
2733994	REC_WORD	wordpools/wasnorm_wordpool_576.txt	LTP377	ltpFR2	11	13	MEAT	883	n/a	n/a	0	0	0
2737532	REC_WORD	wordpools/wasnorm_wordpool_576.txt	LTP377	ltpFR2	11	13	BOUQUET	157	n/a	n/a	0	0	0
2740728	REC_WORD	wordpools/wasnorm_wordpool_576.txt	LTP377	ltpFR2	11	13	PERFUME	1049	n/a	n/a	0	0	0
2742748	REC_WORD	wordpools/wasnorm_wordpool_576.txt	LTP377	ltpFR2	11	13	SKETCH	1315	n/a	n/a	0	0	0
2747262	REC_WORD	wordpools/wasnorm_wordpool_576.txt	LTP377	ltpFR2	11	13	ROD	1203	n/a	n/a	0	0	0
2748216	REC_WORD	wordpools/wasnorm_wordpool_576.txt	LTP377	ltpFR2	11	13	HUSBAND	728	n/a	n/a	0	0	0
2751145	REC_WORD	wordpools/wasnorm_wordpool_576.txt	LTP377	ltpFR2	11	13	CARRIAGE	248	n/a	n/a	0	0	0
2753745	REC_WORD	wordpools/wasnorm_wordpool_576.txt	LTP377	ltpFR2	11	13	GARDEN	623	n/a	n/a	0	0	0
2754569	REC_WORD	wordpools/wasnorm_wordpool_576.txt	LTP377	ltpFR2	11	13	SPOUSE	1358	n/a	n/a	0	0	0
2755519	REC_WORD	wordpools/wasnorm_wordpool_576.txt	LTP377	ltpFR2	11	13	CROSS	413	n/a	n/a	0	0	0
2756200	REC_WORD	wordpools/wasnorm_wordpool_576.txt	LTP377	ltpFR2	11	13	HAWK	692	n/a	n/a	0	0	0
2759260	REC_WORD	wordpools/wasnorm_wordpool_576.txt	LTP377	ltpFR2	11	13	FRAGRANCE	599	n/a	n/a	0	0	0
2762317	REC_WORD	wordpools/wasnorm_wordpool_576.txt	LTP377	ltpFR2	11	13	NECKLACE	940	n/a	n/a	0	0	0
2768082	REC_WORD	wordpools/wasnorm_wordpool_576.txt	LTP377	ltpFR2	11	13	LIGHTNING	820	n/a	n/a	0	0	0
2768763	REC_WORD	wordpools/wasnorm_wordpool_576.txt	LTP377	ltpFR2	11	13	CASHEW	253	n/a	n/a	0	0	0
2780653	REC_WORD	wordpools/wasnorm_wordpool_576.txt	LTP377	ltpFR2	11	13	ROBIN	1199	n/a	n/a	0	0	0
2782615	REC_WORD	wordpools/wasnorm_wordpool_576.txt	LTP377	ltpFR2	11	13	GARLIC	624	n/a	n/a	0	0	0
2783577	REC_WORD	wordpools/wasnorm_wordpool_576.txt	LTP377	ltpFR2	11	13	OMELET	976	n/a	n/a	0	0	0
2791002	REC_WORD	wordpools/wasnorm_wordpool_576.txt	LTP377	ltpFR2	11	13	SPOUSE	1358	n/a	n/a	0	0	0
2796669	REC_WORD	wordpools/wasnorm_wordpool_576.txt	LTP377	ltpFR2	11	13	HUSBAND	728	n/a	n/a	0	0	0
2820043	WORD	wordpools/wasnorm_wordpool_576.txt	LTP377	ltpFR2	11	14	OUTFIT	988	n/a	n/a	0	0	0
2822858	WORD	wordpools/wasnorm_wordpool_576.txt	LTP377	ltpFR2	11	14	PLASTER	1085	n/a	n/a	0	0	0
2825556	WORD	wordpools/wasnorm_wordpool_576.txt	LTP377	ltpFR2	11	14	KLEENEX	782	n/a	n/a	0	0	0
2828255	WORD	wordpools/wasnorm_wordpool_576.txt	LTP377	ltpFR2	11	14	MONSTER	912	n/a	n/a	0	0	0
2830971	WORD	wordpools/wasnorm_wordpool_576.txt	LTP377	ltpFR2	11	14	CAPTIVE	240	n/a	n/a	0	0	0
2833519	WORD	wordpools/wasnorm_wordpool_576.txt	LTP377	ltpFR2	11	14	BLUEPRINT	142	n/a	n/a	0	0	0
2836019	WORD	wordpools/wasnorm_wordpool_576.txt	LTP377	ltpFR2	11	14	MASK	876	n/a	n/a	0	0	0
2838650	WORD	wordpools/wasnorm_wordpool_576.txt	LTP377	ltpFR2	11	14	MARROW	872	n/a	n/a	0	0	0
2841149	WORD	wordpools/wasnorm_wordpool_576.txt	LTP377	ltpFR2	11	14	RIVER	1194	n/a	n/a	0	0	0
2843598	WORD	wordpools/wasnorm_wordpool_576.txt	LTP377	ltpFR2	11	14	APPLE	33	n/a	n/a	0	0	0
2846247	WORD	wordpools/wasnorm_wordpool_576.txt	LTP377	ltpFR2	11	14	PATIENT	1024	n/a	n/a	0	0	0
2848996	WORD	wordpools/wasnorm_wordpool_576.txt	LTP377	ltpFR2	11	14	SCALPEL	1243	n/a	n/a	0	0	0
2851711	WORD	wordpools/wasnorm_wordpool_576.txt	LTP377	ltpFR2	11	14	DOLPHIN	483	n/a	n/a	0	0	0
2854376	WORD	wordpools/wasnorm_wordpool_576.txt	LTP377	ltpFR2	11	14	BEAST	108	n/a	n/a	0	0	0
2857093	WORD	wordpools/wasnorm_wordpool_576.txt	LTP377	ltpFR2	11	14	KIDNEY	776	n/a	n/a	0	0	0
2859607	WORD	wordpools/wasnorm_wordpool_576.txt	LTP377	ltpFR2	11	14	DASHBOARD	441	n/a	n/a	0	0	0
2862040	WORD	wordpools/wasnorm_wordpool_576.txt	LTP377	ltpFR2	11	14	CLAMP	316	n/a	n/a	0	0	0
2864522	WORD	wordpools/wasnorm_wordpool_576.txt	LTP377	ltpFR2	11	14	CRAB	397	n/a	n/a	0	0	0
2867237	WORD	wordpools/wasnorm_wordpool_576.txt	LTP377	ltpFR2	11	14	SEAFOOD	1260	n/a	n/a	0	0	0
2869953	WORD	wordpools/wasnorm_wordpool_576.txt	LTP377	ltpFR2	11	14	GLASS	639	n/a	n/a	0	0	0
2872618	WORD	wordpools/wasnorm_wordpool_576.txt	LTP377	ltpFR2	11	14	CONVICT	371	n/a	n/a	0	0	0
2875383	WORD	wordpools/wasnorm_wordpool_576.txt	LTP377	ltpFR2	11	14	RAFT	1159	n/a	n/a	0	0	0
2877899	WORD	wordpools/wasnorm_wordpool_576.txt	LTP377	ltpFR2	11	14	BADGE	68	n/a	n/a	0	0	0
2880348	WORD	wordpools/wasnorm_wordpool_576.txt	LTP377	ltpFR2	11	14	PAPER	1011	n/a	n/a	0	0	0
2881965	START	n/a	LTP377	ltpFR2	11	n/a	n/a	n/a	22	n/a	n/a	n/a	n/a
2882935	DISTRACTOR	n/a	LTP377	ltpFR2	11	14	n/a	n/a	n/a	n/a	0	0	0
2882947	PROB	n/a	LTP377	ltpFR2	11	n/a	n/a	n/a	22	14	5	7	2
2885895	PROB	n/a	LTP377	ltpFR2	11	n/a	n/a	n/a	22	17	9	4	4
2888660	PROB	n/a	LTP377	ltpFR2	11	n/a	n/a	n/a	22	17	7	6	4
2890193	PROB	n/a	LTP377	ltpFR2	11	n/a	n/a	n/a	22	15	5	8	2
2892076	PROB	n/a	LTP377	ltpFR2	11	n/a	n/a	n/a	22	20	5	6	9
2893808	PROB	n/a	LTP377	ltpFR2	11	n/a	n/a	n/a	22	12	5	2	5
2895157	PROB	n/a	LTP377	ltpFR2	11	n/a	n/a	n/a	22	19	8	9	2
2897456	PROB	n/a	LTP377	ltpFR2	11	n/a	n/a	n/a	22	25	8	9	8
2899822	PROB	n/a	LTP377	ltpFR2	11	n/a	n/a	n/a	22	18	5	5	8
2901255	PROB	n/a	LTP377	ltpFR2	11	n/a	n/a	n/a	22	14	3	2	9
2905964	STOP	n/a	LTP377	ltpFR2	11	n/a	n/a	n/a	22	n/a	n/a	n/a	n/a
2907819	REC_START	n/a	LTP377	ltpFR2	11	14	n/a	n/a	n/a	n/a	0	0	0
2910327	REC_WORD	wordpools/wasnorm_wordpool_576.txt	LTP377	ltpFR2	11	14	PATIENT	1024	n/a	n/a	0	0	0
2911204	REC_WORD	wordpools/wasnorm_wordpool_576.txt	LTP377	ltpFR2	11	14	SCALPEL	1243	n/a	n/a	0	0	0
2912667	REC_WORD	wordpools/wasnorm_wordpool_576.txt	LTP377	ltpFR2	11	14	CLAMP	316	n/a	n/a	0	0	0
2913496	REC_WORD	wordpools/wasnorm_wordpool_576.txt	LTP377	ltpFR2	11	14	KIDNEY	776	n/a	n/a	0	0	0
2915208	REC_WORD	wordpools/wasnorm_wordpool_576.txt	LTP377	ltpFR2	11	14	MARROW	872	n/a	n/a	0	0	0
2938639	REC_WORD	wordpools/wasnorm_wordpool_576.txt	LTP377	ltpFR2	11	14	CONVICT	371	n/a	n/a	0	0	0
2998260	DISTRACTOR	n/a	LTP377	ltpFR2	11	15	n/a	n/a	n/a	n/a	0	0	0
2998260	START	n/a	LTP377	ltpFR2	11	n/a	n/a	n/a	23	n/a	n/a	n/a	n/a
2998276	PROB	n/a	LTP377	ltpFR2	11	n/a	n/a	n/a	23	8	4	1	3
3001026	PROB	n/a	LTP377	ltpFR2	11	n/a	n/a	n/a	23	7	1	4	2
3002857	PROB	n/a	LTP377	ltpFR2	11	n/a	n/a	n/a	23	16	9	5	2
3006572	PROB	n/a	LTP377	ltpFR2	11	n/a	n/a	n/a	23	13	2	3	8
3008238	PROB	n/a	LTP377	ltpFR2	11	n/a	n/a	n/a	23	16	5	9	2
3010271	PROB	n/a	LTP377	ltpFR2	11	n/a	n/a	n/a	23	20	9	7	4
3014003	PROB	n/a	LTP377	ltpFR2	11	n/a	n/a	n/a	23	14	6	6	2
3015535	PROB	n/a	LTP377	ltpFR2	11	n/a	n/a	n/a	23	18	8	4	6
3018250	PROB	n/a	LTP377	ltpFR2	11	n/a	n/a	n/a	23	17	7	7	3
3022259	STOP	n/a	LTP377	ltpFR2	11	n/a	n/a	n/a	23	n/a	n/a	n/a	n/a
3023415	WORD	wordpools/wasnorm_wordpool_576.txt	LTP377	ltpFR2	11	15	CHEST	295	n/a	n/a	0	0	0
3026163	WORD	wordpools/wasnorm_wordpool_576.txt	LTP377	ltpFR2	11	15	HORSE	719	n/a	n/a	0	0	0
3028629	WORD	wordpools/wasnorm_wordpool_576.txt	LTP377	ltpFR2	11	15	CUSTARD	429	n/a	n/a	0	0	0
3031194	WORD	wordpools/wasnorm_wordpool_576.txt	LTP377	ltpFR2	11	15	OYSTER	995	n/a	n/a	0	0	0
3033743	WORD	wordpools/wasnorm_wordpool_576.txt	LTP377	ltpFR2	11	15	TWIG	1527	n/a	n/a	0	0	0
3036209	WORD	wordpools/wasnorm_wordpool_576.txt	LTP377	ltpFR2	11	15	FIDDLE	561	n/a	n/a	0	0	0
3038824	WORD	wordpools/wasnorm_wordpool_576.txt	LTP377	ltpFR2	11	15	HUMAN	726	n/a	n/a	0	0	0
3041356	WORD	wordpools/wasnorm_wordpool_576.txt	LTP377	ltpFR2	11	15	BODY	145	n/a	n/a	0	0	0
3043855	WORD	wordpools/wasnorm_wordpool_576.txt	LTP377	ltpFR2	11	15	ZEBRA	1635	n/a	n/a	0	0	0
3046404	WORD	wordpools/wasnorm_wordpool_576.txt	LTP377	ltpFR2	11	15	COD	340	n/a	n/a	0	0	0
3049004	WORD	wordpools/wasnorm_wordpool_576.txt	LTP377	ltpFR2	11	15	COMPASS	358	n/a	n/a	0	0	0
3051535	WORD	wordpools/wasnorm_wordpool_576.txt	LTP377	ltpFR2	11	15	JEANS	752	n/a	n/a	0	0	0
3054085	WORD	wordpools/wasnorm_wordpool_576.txt	LTP377	ltpFR2	11	15	PISTOL	1075	n/a	n/a	0	0	0
3056699	WORD	wordpools/wasnorm_wordpool_576.txt	LTP377	ltpFR2	11	15	SNACK	1331	n/a	n/a	0	0	0
3059498	WORD	wordpools/wasnorm_wordpool_576.txt	LTP377	ltpFR2	11	15	QUEEN	1149	n/a	n/a	0	0	0
3062313	WORD	wordpools/wasnorm_wordpool_576.txt	LTP377	ltpFR2	11	15	NURSE	963	n/a	n/a	0	0	0
3064762	WORD	wordpools/wasnorm_wordpool_576.txt	LTP377	ltpFR2	11	15	CHEMIST	292	n/a	n/a	0	0	0
3067328	WORD	wordpools/wasnorm_wordpool_576.txt	LTP377	ltpFR2	11	15	SHIRT	1287	n/a	n/a	0	0	0
3069944	WORD	wordpools/wasnorm_wordpool_576.txt	LTP377	ltpFR2	11	15	ACTRESS	6	n/a	n/a	0	0	0
3072608	WORD	wordpools/wasnorm_wordpool_576.txt	LTP377	ltpFR2	11	15	ACTOR	5	n/a	n/a	0	0	0
3075042	WORD	wordpools/wasnorm_wordpool_576.txt	LTP377	ltpFR2	11	15	TWEEZERS	1526	n/a	n/a	0	0	0
3077473	WORD	wordpools/wasnorm_wordpool_576.txt	LTP377	ltpFR2	11	15	TEMPLE	1448	n/a	n/a	0	0	0
3080056	WORD	wordpools/wasnorm_wordpool_576.txt	LTP377	ltpFR2	11	15	SUNRISE	1407	n/a	n/a	0	0	0
3082521	WORD	wordpools/wasnorm_wordpool_576.txt	LTP377	ltpFR2	11	15	SODA	1341	n/a	n/a	0	0	0
3084137	START	n/a	LTP377	ltpFR2	11	n/a	n/a	n/a	24	n/a	n/a	n/a	n/a
3085115	DISTRACTOR	n/a	LTP377	ltpFR2	11	15	n/a	n/a	n/a	n/a	0	0	0
3085120	PROB	n/a	LTP377	ltpFR2	11	n/a	n/a	n/a	24	16	2	9	5
3087518	PROB	n/a	LTP377	ltpFR2	11	n/a	n/a	n/a	24	22	4	9	9
3089451	PROB	n/a	LTP377	ltpFR2	11	n/a	n/a	n/a	24	15	8	4	3
3093000	PROB	n/a	LTP377	ltpFR2	11	n/a	n/a	n/a	24	21	5	9	7
3095231	PROB	n/a	LTP377	ltpFR2	11	n/a	n/a	n/a	24	22	9	5	8
3097630	PROB	n/a	LTP377	ltpFR2	11	n/a	n/a	n/a	24	14	8	5	1
3099429	PROB	n/a	LTP377	ltpFR2	11	n/a	n/a	n/a	24	26	8	9	9
3101228	PROB	n/a	LTP377	ltpFR2	11	n/a	n/a	n/a	24	18	8	2	8
3103978	PROB	n/a	LTP377	ltpFR2	11	n/a	n/a	n/a	24	17	7	2	8
3107150	STOP	n/a	LTP377	ltpFR2	11	n/a	n/a	n/a	24	n/a	n/a	n/a	n/a
3109892	REC_START	n/a	LTP377	ltpFR2	11	15	n/a	n/a	n/a	n/a	0	0	0
3121573	REC_WORD	wordpools/wasnorm_wordpool_576.txt	LTP377	ltpFR2	11	15	CUSTARD	429	n/a	n/a	0	0	0
3122695	REC_WORD	wordpools/wasnorm_wordpool_576.txt	LTP377	ltpFR2	11	15	HORSE	719	n/a	n/a	0	0	0
3124009	REC_WORD	wordpools/wasnorm_wordpool_576.txt	LTP377	ltpFR2	11	15	BOYFRIEND	162	n/a	n/a	0	0	0
3129605	REC_WORD	wordpools/wasnorm_wordpool_576.txt	LTP377	ltpFR2	11	15	JEANS	752	n/a	n/a	0	0	0
3131804	REC_WORD	wordpools/wasnorm_wordpool_576.txt	LTP377	ltpFR2	11	15	ACTOR	5	n/a	n/a	0	0	0
3132224	REC_WORD	wordpools/wasnorm_wordpool_576.txt	LTP377	ltpFR2	11	15	ACTRESS	6	n/a	n/a	0	0	0
3134188	REC_WORD	wordpools/wasnorm_wordpool_576.txt	LTP377	ltpFR2	11	15	TWEEZERS	1526	n/a	n/a	0	0	0
3134912	REC_WORD	wordpools/wasnorm_wordpool_576.txt	LTP377	ltpFR2	11	15	QUEEN	1149	n/a	n/a	0	0	0
3135906	REC_WORD	wordpools/wasnorm_wordpool_576.txt	LTP377	ltpFR2	11	15	NURSE	963	n/a	n/a	0	0	0
3136391	REC_WORD	wordpools/wasnorm_wordpool_576.txt	LTP377	ltpFR2	11	15	CHEMIST	292	n/a	n/a	0	0	0
3140116	REC_WORD	wordpools/wasnorm_wordpool_576.txt	LTP377	ltpFR2	11	15	SHIRT	1287	n/a	n/a	0	0	0
3150602	REC_WORD	wordpools/wasnorm_wordpool_576.txt	LTP377	ltpFR2	11	15	OYSTER	995	n/a	n/a	0	0	0
3152538	REC_WORD	wordpools/wasnorm_wordpool_576.txt	LTP377	ltpFR2	11	15	CUSTARD	429	n/a	n/a	0	0	0
3160074	REC_WORD	wordpools/wasnorm_wordpool_576.txt	LTP377	ltpFR2	11	15	SUNRISE	1407	n/a	n/a	0	0	0
3160754	REC_WORD	wordpools/wasnorm_wordpool_576.txt	LTP377	ltpFR2	11	15	TEMPLE	1448	n/a	n/a	0	0	0
3161144	REC_WORD	wordpools/wasnorm_wordpool_576.txt	LTP377	ltpFR2	11	15	SODA	1341	n/a	n/a	0	0	0
3165661	REC_WORD	wordpools/wasnorm_wordpool_576.txt	LTP377	ltpFR2	11	15	SNACK	1331	n/a	n/a	0	0	0
3170565	REC_WORD	wordpools/wasnorm_wordpool_576.txt	LTP377	ltpFR2	11	15	PISTOL	1075	n/a	n/a	0	0	0
3200366	WORD	wordpools/wasnorm_wordpool_576.txt	LTP377	ltpFR2	11	16	PARENT	1013	n/a	n/a	0	0	0
3203132	WORD	wordpools/wasnorm_wordpool_576.txt	LTP377	ltpFR2	11	16	FLUTE	585	n/a	n/a	0	0	0
3205563	WORD	wordpools/wasnorm_wordpool_576.txt	LTP377	ltpFR2	11	16	JAPAN	749	n/a	n/a	0	0	0
3208047	WORD	wordpools/wasnorm_wordpool_576.txt	LTP377	ltpFR2	11	16	FLAG	573	n/a	n/a	0	0	0
3210561	WORD	wordpools/wasnorm_wordpool_576.txt	LTP377	ltpFR2	11	16	PRINCE	1124	n/a	n/a	0	0	0
3213193	WORD	wordpools/wasnorm_wordpool_576.txt	LTP377	ltpFR2	11	16	SWAMP	1416	n/a	n/a	0	0	0
3215910	WORD	wordpools/wasnorm_wordpool_576.txt	LTP377	ltpFR2	11	16	REPORT	1184	n/a	n/a	0	0	0
3218424	WORD	wordpools/wasnorm_wordpool_576.txt	LTP377	ltpFR2	11	16	MARKER	870	n/a	n/a	0	0	0
3220856	WORD	wordpools/wasnorm_wordpool_576.txt	LTP377	ltpFR2	11	16	JOURNAL	760	n/a	n/a	0	0	0
3223539	WORD	wordpools/wasnorm_wordpool_576.txt	LTP377	ltpFR2	11	16	PASTA	1021	n/a	n/a	0	0	0
3226005	WORD	wordpools/wasnorm_wordpool_576.txt	LTP377	ltpFR2	11	16	WIDOW	1608	n/a	n/a	0	0	0
3228503	WORD	wordpools/wasnorm_wordpool_576.txt	LTP377	ltpFR2	11	16	LABEL	790	n/a	n/a	0	0	0
3231053	WORD	wordpools/wasnorm_wordpool_576.txt	LTP377	ltpFR2	11	16	WOMAN	1620	n/a	n/a	0	0	0
3233717	WORD	wordpools/wasnorm_wordpool_576.txt	LTP377	ltpFR2	11	16	LADY	794	n/a	n/a	0	0	0
3236199	WORD	wordpools/wasnorm_wordpool_576.txt	LTP377	ltpFR2	11	16	CHILD	299	n/a	n/a	0	0	0
3238999	WORD	wordpools/wasnorm_wordpool_576.txt	LTP377	ltpFR2	11	16	MARSH	874	n/a	n/a	0	0	0
3241663	WORD	wordpools/wasnorm_wordpool_576.txt	LTP377	ltpFR2	11	16	UMPIRE	1535	n/a	n/a	0	0	0
3244412	WORD	wordpools/wasnorm_wordpool_576.txt	LTP377	ltpFR2	11	16	PEDAL	1037	n/a	n/a	0	0	0
3246929	WORD	wordpools/wasnorm_wordpool_576.txt	LTP377	ltpFR2	11	16	JURY	766	n/a	n/a	0	0	0
3249543	WORD	wordpools/wasnorm_wordpool_576.txt	LTP377	ltpFR2	11	16	COUNTY	389	n/a	n/a	0	0	0
3252325	WORD	wordpools/wasnorm_wordpool_576.txt	LTP377	ltpFR2	11	16	COUNTRY	388	n/a	n/a	0	0	0
3255092	WORD	wordpools/wasnorm_wordpool_576.txt	LTP377	ltpFR2	11	16	NOMAD	955	n/a	n/a	0	0	0
3257556	WORD	wordpools/wasnorm_wordpool_576.txt	LTP377	ltpFR2	11	16	SCOTCH	1251	n/a	n/a	0	0	0
3260288	WORD	wordpools/wasnorm_wordpool_576.txt	LTP377	ltpFR2	11	16	DINER	467	n/a	n/a	0	0	0
3261904	START	n/a	LTP377	ltpFR2	11	n/a	n/a	n/a	25	n/a	n/a	n/a	n/a
3262873	DISTRACTOR	n/a	LTP377	ltpFR2	11	16	n/a	n/a	n/a	n/a	0	0	0
3262887	PROB	n/a	LTP377	ltpFR2	11	n/a	n/a	n/a	25	18	9	7	2
3265219	PROB	n/a	LTP377	ltpFR2	11	n/a	n/a	n/a	25	13	3	1	9
3267468	PROB	n/a	LTP377	ltpFR2	11	n/a	n/a	n/a	25	15	4	6	5
3268851	PROB	n/a	LTP377	ltpFR2	11	n/a	n/a	n/a	25	12	5	2	5
3270367	PROB	n/a	LTP377	ltpFR2	11	n/a	n/a	n/a	25	7	3	1	3
3274999	PROB	n/a	LTP377	ltpFR2	11	n/a	n/a	n/a	25	12	2	6	4
3277115	PROB	n/a	LTP377	ltpFR2	11	n/a	n/a	n/a	25	14	1	5	8
3278930	PROB	n/a	LTP377	ltpFR2	11	n/a	n/a	n/a	25	10	1	5	4
3280629	PROB	n/a	LTP377	ltpFR2	11	n/a	n/a	n/a	25	16	9	3	4
3282979	PROB	n/a	LTP377	ltpFR2	11	n/a	n/a	n/a	25	14	2	5	7
3285109	STOP	n/a	LTP377	ltpFR2	11	n/a	n/a	n/a	25	n/a	n/a	n/a	n/a
3287676	REC_START	n/a	LTP377	ltpFR2	11	16	n/a	n/a	n/a	n/a	0	0	0
3288327	REC_WORD	wordpools/wasnorm_wordpool_576.txt	LTP377	ltpFR2	11	16	PARENT	1013	n/a	n/a	0	0	0
3289266	REC_WORD	wordpools/wasnorm_wordpool_576.txt	LTP377	ltpFR2	11	16	FLUTE	585	n/a	n/a	0	0	0
3292593	REC_WORD	wordpools/wasnorm_wordpool_576.txt	LTP377	ltpFR2	11	16	WOMAN	1620	n/a	n/a	0	0	0
3294509	REC_WORD	wordpools/wasnorm_wordpool_576.txt	LTP377	ltpFR2	11	16	LADY	794	n/a	n/a	0	0	0
3298019	REC_WORD	wordpools/wasnorm_wordpool_576.txt	LTP377	ltpFR2	11	16	DINER	467	n/a	n/a	0	0	0
3298873	REC_WORD	wordpools/wasnorm_wordpool_576.txt	LTP377	ltpFR2	11	16	NOMAD	955	n/a	n/a	0	0	0
3299431	REC_WORD	wordpools/wasnorm_wordpool_576.txt	LTP377	ltpFR2	11	16	SCOTCH	1251	n/a	n/a	0	0	0
3303007	REC_WORD	wordpools/wasnorm_wordpool_576.txt	LTP377	ltpFR2	11	16	JURY	766	n/a	n/a	0	0	0
3303661	REC_WORD	wordpools/wasnorm_wordpool_576.txt	LTP377	ltpFR2	11	16	COUNTY	389	n/a	n/a	0	0	0
3304264	REC_WORD	wordpools/wasnorm_wordpool_576.txt	LTP377	ltpFR2	11	16	COUNTRY	388	n/a	n/a	0	0	0
3305808	REC_WORD	wordpools/wasnorm_wordpool_576.txt	LTP377	ltpFR2	11	16	PASTA	1021	n/a	n/a	0	0	0
3308946	REC_WORD	wordpools/wasnorm_wordpool_576.txt	LTP377	ltpFR2	11	16	WIDOW	1608	n/a	n/a	0	0	0
3309682	REC_WORD	wordpools/wasnorm_wordpool_576.txt	LTP377	ltpFR2	11	16	LABEL	790	n/a	n/a	0	0	0
3310955	REC_WORD	wordpools/wasnorm_wordpool_576.txt	LTP377	ltpFR2	11	16	PRINCE	1124	n/a	n/a	0	0	0
3318988	REC_WORD	wordpools/wasnorm_wordpool_576.txt	LTP377	ltpFR2	11	16	UMPIRE	1535	n/a	n/a	0	0	0
3320429	REC_WORD	wordpools/wasnorm_wordpool_576.txt	LTP377	ltpFR2	11	16	PEDAL	1037	n/a	n/a	0	0	0
3364223	REST_REWET	n/a	LTP377	ltpFR2	11	16	n/a	n/a	n/a	n/a	0	0	0
3519784	DISTRACTOR	n/a	LTP377	ltpFR2	11	17	n/a	n/a	n/a	n/a	0	0	0
3519785	START	n/a	LTP377	ltpFR2	11	n/a	n/a	n/a	26	n/a	n/a	n/a	n/a
3519801	PROB	n/a	LTP377	ltpFR2	11	n/a	n/a	n/a	26	20	8	9	3
3523067	PROB	n/a	LTP377	ltpFR2	11	n/a	n/a	n/a	26	9	1	6	2
3525715	PROB	n/a	LTP377	ltpFR2	11	n/a	n/a	n/a	26	14	6	3	5
3528530	PROB	n/a	LTP377	ltpFR2	11	n/a	n/a	n/a	26	16	9	6	1
3533029	PROB	n/a	LTP377	ltpFR2	11	n/a	n/a	n/a	26	14	6	3	5
3536111	PROB	n/a	LTP377	ltpFR2	11	n/a	n/a	n/a	26	12	1	5	6
3541441	PROB	n/a	LTP377	ltpFR2	11	n/a	n/a	n/a	26	10	4	4	2
3543013	STOP	n/a	LTP377	ltpFR2	11	n/a	n/a	n/a	26	n/a	n/a	n/a	n/a
3544640	WORD	wordpools/wasnorm_wordpool_576.txt	LTP377	ltpFR2	11	17	FILM	565	n/a	n/a	0	0	0
3547255	WORD	wordpools/wasnorm_wordpool_576.txt	LTP377	ltpFR2	11	17	ICING	732	n/a	n/a	0	0	0
3549821	WORD	wordpools/wasnorm_wordpool_576.txt	LTP377	ltpFR2	11	17	BARLEY	88	n/a	n/a	0	0	0
3552553	WORD	wordpools/wasnorm_wordpool_576.txt	LTP377	ltpFR2	11	17	PALACE	1006	n/a	n/a	0	0	0
3555151	WORD	wordpools/wasnorm_wordpool_576.txt	LTP377	ltpFR2	11	17	GIRL	637	n/a	n/a	0	0	0
3557767	WORD	wordpools/wasnorm_wordpool_576.txt	LTP377	ltpFR2	11	17	HATCHET	691	n/a	n/a	0	0	0
3560399	WORD	wordpools/wasnorm_wordpool_576.txt	LTP377	ltpFR2	11	17	BIKE	125	n/a	n/a	0	0	0
3562999	WORD	wordpools/wasnorm_wordpool_576.txt	LTP377	ltpFR2	11	17	CROWN	415	n/a	n/a	0	0	0
3565780	WORD	wordpools/wasnorm_wordpool_576.txt	LTP377	ltpFR2	11	17	CRITIC	410	n/a	n/a	0	0	0
3568279	WORD	wordpools/wasnorm_wordpool_576.txt	LTP377	ltpFR2	11	17	FRECKLE	602	n/a	n/a	0	0	0
3570794	WORD	wordpools/wasnorm_wordpool_576.txt	LTP377	ltpFR2	11	17	TART	1436	n/a	n/a	0	0	0
3573376	WORD	wordpools/wasnorm_wordpool_576.txt	LTP377	ltpFR2	11	17	GRAPE	654	n/a	n/a	0	0	0
3576109	WORD	wordpools/wasnorm_wordpool_576.txt	LTP377	ltpFR2	11	17	PARSLEY	1016	n/a	n/a	0	0	0
3578757	WORD	wordpools/wasnorm_wordpool_576.txt	LTP377	ltpFR2	11	17	SCARECROW	1245	n/a	n/a	0	0	0
3581273	WORD	wordpools/wasnorm_wordpool_576.txt	LTP377	ltpFR2	11	17	VICTIM	1562	n/a	n/a	0	0	0
3583755	WORD	wordpools/wasnorm_wordpool_576.txt	LTP377	ltpFR2	11	17	LION	827	n/a	n/a	0	0	0
3586304	WORD	wordpools/wasnorm_wordpool_576.txt	LTP377	ltpFR2	11	17	LEOPARD	812	n/a	n/a	0	0	0
3588786	WORD	wordpools/wasnorm_wordpool_576.txt	LTP377	ltpFR2	11	17	PASTRY	1022	n/a	n/a	0	0	0
3591235	WORD	wordpools/wasnorm_wordpool_576.txt	LTP377	ltpFR2	11	17	PUDDLE	1140	n/a	n/a	0	0	0
3593700	WORD	wordpools/wasnorm_wordpool_576.txt	LTP377	ltpFR2	11	17	ISLAND	745	n/a	n/a	0	0	0
3596216	WORD	wordpools/wasnorm_wordpool_576.txt	LTP377	ltpFR2	11	17	VALLEY	1545	n/a	n/a	0	0	0
3598848	WORD	wordpools/wasnorm_wordpool_576.txt	LTP377	ltpFR2	11	17	HOOK	715	n/a	n/a	0	0	0
3601347	WORD	wordpools/wasnorm_wordpool_576.txt	LTP377	ltpFR2	11	17	VIRUS	1572	n/a	n/a	0	0	0
3603913	WORD	wordpools/wasnorm_wordpool_576.txt	LTP377	ltpFR2	11	17	KNIFE	785	n/a	n/a	0	0	0
3605528	START	n/a	LTP377	ltpFR2	11	n/a	n/a	n/a	27	n/a	n/a	n/a	n/a
3606659	DISTRACTOR	n/a	LTP377	ltpFR2	11	17	n/a	n/a	n/a	n/a	0	0	0
3606661	PROB	n/a	LTP377	ltpFR2	11	n/a	n/a	n/a	27	12	1	7	4
3608911	PROB	n/a	LTP377	ltpFR2	11	n/a	n/a	n/a	27	12	7	4	1
3611126	PROB	n/a	LTP377	ltpFR2	11	n/a	n/a	n/a	27	4	2	1	1
3612375	PROB	n/a	LTP377	ltpFR2	11	n/a	n/a	n/a	27	22	9	6	7
3614774	PROB	n/a	LTP377	ltpFR2	11	n/a	n/a	n/a	27	17	3	8	6
3618339	PROB	n/a	LTP377	ltpFR2	11	n/a	n/a	n/a	27	14	6	7	1
3620554	PROB	n/a	LTP377	ltpFR2	11	n/a	n/a	n/a	27	19	8	6	5
3623270	PROB	n/a	LTP377	ltpFR2	11	n/a	n/a	n/a	27	11	4	5	2
3624987	PROB	n/a	LTP377	ltpFR2	11	n/a	n/a	n/a	27	13	1	3	9
3626752	PROB	n/a	LTP377	ltpFR2	11	n/a	n/a	n/a	27	9	4	4	1
3628048	STOP	n/a	LTP377	ltpFR2	11	n/a	n/a	n/a	27	n/a	n/a	n/a	n/a
3631383	REC_START	n/a	LTP377	ltpFR2	11	17	n/a	n/a	n/a	n/a	0	0	0
3635324	REC_WORD	wordpools/wasnorm_wordpool_576.txt	LTP377	ltpFR2	11	17	FILM	565	n/a	n/a	0	0	0
3637371	REC_WORD	wordpools/wasnorm_wordpool_576.txt	LTP377	ltpFR2	11	17	CRITIC	410	n/a	n/a	0	0	0
3638442	REC_WORD	wordpools/wasnorm_wordpool_576.txt	LTP377	ltpFR2	11	17	VELVET	1555	n/a	n/a	0	0	0
3640242	REC_WORD	wordpools/wasnorm_wordpool_576.txt	LTP377	ltpFR2	11	17	FUNK	-1	n/a	n/a	0	0	0
3643095	REC_WORD	wordpools/wasnorm_wordpool_576.txt	LTP377	ltpFR2	11	17	GIRL	637	n/a	n/a	0	0	0
3643824	REC_WORD	wordpools/wasnorm_wordpool_576.txt	LTP377	ltpFR2	11	17	BIKE	125	n/a	n/a	0	0	0
3645785	REC_WORD	wordpools/wasnorm_wordpool_576.txt	LTP377	ltpFR2	11	17	CROWN	415	n/a	n/a	0	0	0
3649779	REC_WORD	wordpools/wasnorm_wordpool_576.txt	LTP377	ltpFR2	11	17	TART	1436	n/a	n/a	0	0	0
3650890	REC_WORD	wordpools/wasnorm_wordpool_576.txt	LTP377	ltpFR2	11	17	GRAPE	654	n/a	n/a	0	0	0
3653540	REC_WORD	wordpools/wasnorm_wordpool_576.txt	LTP377	ltpFR2	11	17	PARSLEY	1016	n/a	n/a	0	0	0
3654867	REC_WORD	wordpools/wasnorm_wordpool_576.txt	LTP377	ltpFR2	11	17	VICTIM	1562	n/a	n/a	0	0	0
3655717	REC_WORD	wordpools/wasnorm_wordpool_576.txt	LTP377	ltpFR2	11	17	LION	827	n/a	n/a	0	0	0
3664151	REC_WORD	wordpools/wasnorm_wordpool_576.txt	LTP377	ltpFR2	11	17	SCARECROW	1245	n/a	n/a	0	0	0
3721874	WORD	wordpools/wasnorm_wordpool_576.txt	LTP377	ltpFR2	11	18	FREEZER	604	n/a	n/a	0	0	0
3724306	WORD	wordpools/wasnorm_wordpool_576.txt	LTP377	ltpFR2	11	18	PICNIC	1060	n/a	n/a	0	0	0
3727089	WORD	wordpools/wasnorm_wordpool_576.txt	LTP377	ltpFR2	11	18	TWISTER	1530	n/a	n/a	0	0	0
3729804	WORD	wordpools/wasnorm_wordpool_576.txt	LTP377	ltpFR2	11	18	CYCLONE	431	n/a	n/a	0	0	0
3732319	WORD	wordpools/wasnorm_wordpool_576.txt	LTP377	ltpFR2	11	18	MARKET	871	n/a	n/a	0	0	0
3734785	WORD	wordpools/wasnorm_wordpool_576.txt	LTP377	ltpFR2	11	18	SWITCH	1422	n/a	n/a	0	0	0
3737567	WORD	wordpools/wasnorm_wordpool_576.txt	LTP377	ltpFR2	11	18	FRIEND	606	n/a	n/a	0	0	0
3740249	WORD	wordpools/wasnorm_wordpool_576.txt	LTP377	ltpFR2	11	18	PACKAGE	997	n/a	n/a	0	0	0
3743065	WORD	wordpools/wasnorm_wordpool_576.txt	LTP377	ltpFR2	11	18	MAILBOX	857	n/a	n/a	0	0	0
3745780	WORD	wordpools/wasnorm_wordpool_576.txt	LTP377	ltpFR2	11	18	SEAL	1262	n/a	n/a	0	0	0
3748595	WORD	wordpools/wasnorm_wordpool_576.txt	LTP377	ltpFR2	11	18	PREACHER	1119	n/a	n/a	0	0	0
3751111	WORD	wordpools/wasnorm_wordpool_576.txt	LTP377	ltpFR2	11	18	COTTAGE	384	n/a	n/a	0	0	0
3753709	WORD	wordpools/wasnorm_wordpool_576.txt	LTP377	ltpFR2	11	18	PERMIT	1051	n/a	n/a	0	0	0
3756308	WORD	wordpools/wasnorm_wordpool_576.txt	LTP377	ltpFR2	11	18	LACE	792	n/a	n/a	0	0	0
3758941	WORD	wordpools/wasnorm_wordpool_576.txt	LTP377	ltpFR2	11	18	SHELF	1280	n/a	n/a	0	0	0
3761572	WORD	wordpools/wasnorm_wordpool_576.txt	LTP377	ltpFR2	11	18	STREAM	1392	n/a	n/a	0	0	0
3764006	WORD	wordpools/wasnorm_wordpool_576.txt	LTP377	ltpFR2	11	18	QUAIL	1147	n/a	n/a	0	0	0
3766570	WORD	wordpools/wasnorm_wordpool_576.txt	LTP377	ltpFR2	11	18	APRON	35	n/a	n/a	0	0	0
3769135	WORD	wordpools/wasnorm_wordpool_576.txt	LTP377	ltpFR2	11	18	JELLY	755	n/a	n/a	0	0	0
3771851	WORD	wordpools/wasnorm_wordpool_576.txt	LTP377	ltpFR2	11	18	SHORTCAKE	1292	n/a	n/a	0	0	0
3774283	WORD	wordpools/wasnorm_wordpool_576.txt	LTP377	ltpFR2	11	18	BROOK	177	n/a	n/a	0	0	0
3776749	WORD	wordpools/wasnorm_wordpool_576.txt	LTP377	ltpFR2	11	18	CORAL	378	n/a	n/a	0	0	0
3779347	WORD	wordpools/wasnorm_wordpool_576.txt	LTP377	ltpFR2	11	18	DRESS	495	n/a	n/a	0	0	0
3782031	WORD	wordpools/wasnorm_wordpool_576.txt	LTP377	ltpFR2	11	18	BATHTUB	100	n/a	n/a	0	0	0
3783646	START	n/a	LTP377	ltpFR2	11	n/a	n/a	n/a	28	n/a	n/a	n/a	n/a
3784647	DISTRACTOR	n/a	LTP377	ltpFR2	11	18	n/a	n/a	n/a	n/a	0	0	0
3784662	PROB	n/a	LTP377	ltpFR2	11	n/a	n/a	n/a	28	20	9	3	8
3787128	PROB	n/a	LTP377	ltpFR2	11	n/a	n/a	n/a	28	20	6	8	7
3789509	PROB	n/a	LTP377	ltpFR2	11	n/a	n/a	n/a	28	8	1	6	1
3791425	PROB	n/a	LTP377	ltpFR2	11	n/a	n/a	n/a	28	16	6	5	5
3792975	PROB	n/a	LTP377	ltpFR2	11	n/a	n/a	n/a	28	10	2	4	4
3794774	PROB	n/a	LTP377	ltpFR2	11	n/a	n/a	n/a	28	17	5	3	9
3796856	PROB	n/a	LTP377	ltpFR2	11	n/a	n/a	n/a	28	17	3	9	5
3798905	PROB	n/a	LTP377	ltpFR2	11	n/a	n/a	n/a	28	21	7	7	7
3800138	PROB	n/a	LTP377	ltpFR2	11	n/a	n/a	n/a	28	26	8	9	9
3802137	PROB	n/a	LTP377	ltpFR2	11	n/a	n/a	n/a	28	8	5	1	2
3804519	PROB	n/a	LTP377	ltpFR2	11	n/a	n/a	n/a	28	10	5	4	1
3806261	STOP	n/a	LTP377	ltpFR2	11	n/a	n/a	n/a	28	n/a	n/a	n/a	n/a
3809535	REC_START	n/a	LTP377	ltpFR2	11	18	n/a	n/a	n/a	n/a	0	0	0
3810976	REC_WORD	wordpools/wasnorm_wordpool_576.txt	LTP377	ltpFR2	11	18	FREEZER	604	n/a	n/a	0	0	0
3812040	REC_WORD	wordpools/wasnorm_wordpool_576.txt	LTP377	ltpFR2	11	18	PICNIC	1060	n/a	n/a	0	0	0
3819300	REC_WORD	wordpools/wasnorm_wordpool_576.txt	LTP377	ltpFR2	11	18	CYCLONE	431	n/a	n/a	0	0	0
3822377	REC_WORD	wordpools/wasnorm_wordpool_576.txt	LTP377	ltpFR2	11	18	MARKET	871	n/a	n/a	0	0	0
3823724	REC_WORD	wordpools/wasnorm_wordpool_576.txt	LTP377	ltpFR2	11	18	SWITCH	1422	n/a	n/a	0	0	0
3824618	REC_WORD	wordpools/wasnorm_wordpool_576.txt	LTP377	ltpFR2	11	18	FRIEND	606	n/a	n/a	0	0	0
3829105	REC_WORD	wordpools/wasnorm_wordpool_576.txt	LTP377	ltpFR2	11	18	PACKAGE	997	n/a	n/a	0	0	0
3830548	REC_WORD	wordpools/wasnorm_wordpool_576.txt	LTP377	ltpFR2	11	18	MAILBOX	857	n/a	n/a	0	0	0
3832282	REC_WORD	wordpools/wasnorm_wordpool_576.txt	LTP377	ltpFR2	11	18	SEAL	1262	n/a	n/a	0	0	0
3835190	REC_WORD	wordpools/wasnorm_wordpool_576.txt	LTP377	ltpFR2	11	18	PREACHER	1119	n/a	n/a	0	0	0
3836426	REC_WORD	wordpools/wasnorm_wordpool_576.txt	LTP377	ltpFR2	11	18	COTTAGE	384	n/a	n/a	0	0	0
3838571	REC_WORD	wordpools/wasnorm_wordpool_576.txt	LTP377	ltpFR2	11	18	PERMIT	1051	n/a	n/a	0	0	0
3839962	REC_WORD	wordpools/wasnorm_wordpool_576.txt	LTP377	ltpFR2	11	18	LACE	792	n/a	n/a	0	0	0
3841176	REC_WORD	wordpools/wasnorm_wordpool_576.txt	LTP377	ltpFR2	11	18	STREAM	1392	n/a	n/a	0	0	0
3842092	REC_WORD	wordpools/wasnorm_wordpool_576.txt	LTP377	ltpFR2	11	18	QUAIL	1147	n/a	n/a	0	0	0
3844318	REC_WORD	wordpools/wasnorm_wordpool_576.txt	LTP377	ltpFR2	11	18	APRON	35	n/a	n/a	0	0	0
3845461	REC_WORD	wordpools/wasnorm_wordpool_576.txt	LTP377	ltpFR2	11	18	JELLY	755	n/a	n/a	0	0	0
3900009	WORD	wordpools/wasnorm_wordpool_576.txt	LTP377	ltpFR2	11	19	HOOD	714	n/a	n/a	0	0	0
3902474	WORD	wordpools/wasnorm_wordpool_576.txt	LTP377	ltpFR2	11	19	PRIMATE	1123	n/a	n/a	0	0	0
3904990	WORD	wordpools/wasnorm_wordpool_576.txt	LTP377	ltpFR2	11	19	POWDER	1117	n/a	n/a	0	0	0
3907455	WORD	wordpools/wasnorm_wordpool_576.txt	LTP377	ltpFR2	11	19	CATTLE	261	n/a	n/a	0	0	0
3909938	WORD	wordpools/wasnorm_wordpool_576.txt	LTP377	ltpFR2	11	19	BEEF	113	n/a	n/a	0	0	0
3912536	WORD	wordpools/wasnorm_wordpool_576.txt	LTP377	ltpFR2	11	19	HEADBAND	696	n/a	n/a	0	0	0
3915218	WORD	wordpools/wasnorm_wordpool_576.txt	LTP377	ltpFR2	11	19	SCISSORS	1250	n/a	n/a	0	0	0
3917866	WORD	wordpools/wasnorm_wordpool_576.txt	LTP377	ltpFR2	11	19	SUMMIT	1405	n/a	n/a	0	0	0
3920399	WORD	wordpools/wasnorm_wordpool_576.txt	LTP377	ltpFR2	11	19	FRUIT	610	n/a	n/a	0	0	0
3923115	WORD	wordpools/wasnorm_wordpool_576.txt	LTP377	ltpFR2	11	19	LUMBER	848	n/a	n/a	0	0	0
3925679	WORD	wordpools/wasnorm_wordpool_576.txt	LTP377	ltpFR2	11	19	BLACKBOARD	133	n/a	n/a	0	0	0
3928262	WORD	wordpools/wasnorm_wordpool_576.txt	LTP377	ltpFR2	11	19	WRIST	1626	n/a	n/a	0	0	0
3930794	WORD	wordpools/wasnorm_wordpool_576.txt	LTP377	ltpFR2	11	19	FOX	598	n/a	n/a	0	0	0
3933226	WORD	wordpools/wasnorm_wordpool_576.txt	LTP377	ltpFR2	11	19	ROBBER	1197	n/a	n/a	0	0	0
3935658	WORD	wordpools/wasnorm_wordpool_576.txt	LTP377	ltpFR2	11	19	GRAVEL	659	n/a	n/a	0	0	0
3938190	WORD	wordpools/wasnorm_wordpool_576.txt	LTP377	ltpFR2	11	19	ANTLER	29	n/a	n/a	0	0	0
3940739	WORD	wordpools/wasnorm_wordpool_576.txt	LTP377	ltpFR2	11	19	CHAMPAGNE	278	n/a	n/a	0	0	0
3943471	WORD	wordpools/wasnorm_wordpool_576.txt	LTP377	ltpFR2	11	19	COCKTAIL	338	n/a	n/a	0	0	0
3946004	WORD	wordpools/wasnorm_wordpool_576.txt	LTP377	ltpFR2	11	19	DRINK	498	n/a	n/a	0	0	0
3948519	WORD	wordpools/wasnorm_wordpool_576.txt	LTP377	ltpFR2	11	19	PUPPY	1144	n/a	n/a	0	0	0
3951134	WORD	wordpools/wasnorm_wordpool_576.txt	LTP377	ltpFR2	11	19	SERVANT	1271	n/a	n/a	0	0	0
3953951	WORD	wordpools/wasnorm_wordpool_576.txt	LTP377	ltpFR2	11	19	GAZELLE	628	n/a	n/a	0	0	0
3956449	WORD	wordpools/wasnorm_wordpool_576.txt	LTP377	ltpFR2	11	19	HANDBAG	684	n/a	n/a	0	0	0
3959048	WORD	wordpools/wasnorm_wordpool_576.txt	LTP377	ltpFR2	11	19	ATLAS	53	n/a	n/a	0	0	0
3960664	START	n/a	LTP377	ltpFR2	11	n/a	n/a	n/a	29	n/a	n/a	n/a	n/a
3961529	DISTRACTOR	n/a	LTP377	ltpFR2	11	19	n/a	n/a	n/a	n/a	0	0	0
3961546	PROB	n/a	LTP377	ltpFR2	11	n/a	n/a	n/a	29	21	8	9	4
3968061	PROB	n/a	LTP377	ltpFR2	11	n/a	n/a	n/a	29	7	1	1	5
3969459	PROB	n/a	LTP377	ltpFR2	11	n/a	n/a	n/a	29	20	8	3	9
3972724	PROB	n/a	LTP377	ltpFR2	11	n/a	n/a	n/a	29	12	7	4	1
3974640	PROB	n/a	LTP377	ltpFR2	11	n/a	n/a	n/a	29	13	8	4	1
3975941	PROB	n/a	LTP377	ltpFR2	11	n/a	n/a	n/a	29	12	4	2	6
3977755	PROB	n/a	LTP377	ltpFR2	11	n/a	n/a	n/a	29	22	7	7	8
3979405	PROB	n/a	LTP377	ltpFR2	11	n/a	n/a	n/a	29	22	8	9	5
3981587	PROB	n/a	LTP377	ltpFR2	11	n/a	n/a	n/a	29	17	9	7	1
3983458	STOP	n/a	LTP377	ltpFR2	11	n/a	n/a	n/a	29	n/a	n/a	n/a	n/a
3986485	REC_START	n/a	LTP377	ltpFR2	11	19	n/a	n/a	n/a	n/a	0	0	0
3987714	REC_WORD	wordpools/wasnorm_wordpool_576.txt	LTP377	ltpFR2	11	19	ATLAS	53	n/a	n/a	0	0	0
3988734	REC_WORD	wordpools/wasnorm_wordpool_576.txt	LTP377	ltpFR2	11	19	GAZELLE	628	n/a	n/a	0	0	0
3989541	REC_WORD	wordpools/wasnorm_wordpool_576.txt	LTP377	ltpFR2	11	19	HANDBAG	684	n/a	n/a	0	0	0
3990661	REC_WORD	wordpools/wasnorm_wordpool_576.txt	LTP377	ltpFR2	11	19	SERVANT	1271	n/a	n/a	0	0	0
3991402	REC_WORD	wordpools/wasnorm_wordpool_576.txt	LTP377	ltpFR2	11	19	PUPPY	1144	n/a	n/a	0	0	0
3994450	REC_WORD	wordpools/wasnorm_wordpool_576.txt	LTP377	ltpFR2	11	19	BLACKBOARD	133	n/a	n/a	0	0	0
3995583	REC_WORD	wordpools/wasnorm_wordpool_576.txt	LTP377	ltpFR2	11	19	LUMBER	848	n/a	n/a	0	0	0
3999332	REC_WORD	wordpools/wasnorm_wordpool_576.txt	LTP377	ltpFR2	11	19	HOOD	714	n/a	n/a	0	0	0
4001476	REC_WORD	wordpools/wasnorm_wordpool_576.txt	LTP377	ltpFR2	11	19	BEEF	113	n/a	n/a	0	0	0
4002169	REC_WORD	wordpools/wasnorm_wordpool_576.txt	LTP377	ltpFR2	11	19	PRIMATE	1123	n/a	n/a	0	0	0
4002815	REC_WORD	wordpools/wasnorm_wordpool_576.txt	LTP377	ltpFR2	11	19	POWDER	1117	n/a	n/a	0	0	0
4004466	REC_WORD	wordpools/wasnorm_wordpool_576.txt	LTP377	ltpFR2	11	19	CATTLE	261	n/a	n/a	0	0	0
4076960	DISTRACTOR	n/a	LTP377	ltpFR2	11	20	n/a	n/a	n/a	n/a	0	0	0
4076961	START	n/a	LTP377	ltpFR2	11	n/a	n/a	n/a	30	n/a	n/a	n/a	n/a
4076977	PROB	n/a	LTP377	ltpFR2	11	n/a	n/a	n/a	30	12	3	2	7
4079093	PROB	n/a	LTP377	ltpFR2	11	n/a	n/a	n/a	30	10	5	3	2
4080891	PROB	n/a	LTP377	ltpFR2	11	n/a	n/a	n/a	30	24	9	7	8
4087089	PROB	n/a	LTP377	ltpFR2	11	n/a	n/a	n/a	30	12	2	6	4
4088754	PROB	n/a	LTP377	ltpFR2	11	n/a	n/a	n/a	30	13	7	1	5
4091802	PROB	n/a	LTP377	ltpFR2	11	n/a	n/a	n/a	30	12	3	8	1
4093485	PROB	n/a	LTP377	ltpFR2	11	n/a	n/a	n/a	30	19	4	8	5
4095534	PROB	n/a	LTP377	ltpFR2	11	n/a	n/a	n/a	30	9	5	3	1
4097400	PROB	n/a	LTP377	ltpFR2	11	n/a	n/a	n/a	30	13	1	5	7
4100961	STOP	n/a	LTP377	ltpFR2	11	n/a	n/a	n/a	30	n/a	n/a	n/a	n/a
4101831	WORD	wordpools/wasnorm_wordpool_576.txt	LTP377	ltpFR2	11	20	PIGEON	1065	n/a	n/a	0	0	0
4104546	WORD	wordpools/wasnorm_wordpool_576.txt	LTP377	ltpFR2	11	20	SPARROW	1347	n/a	n/a	0	0	0
4107312	WORD	wordpools/wasnorm_wordpool_576.txt	LTP377	ltpFR2	11	20	LUNCH	849	n/a	n/a	0	0	0
4109912	WORD	wordpools/wasnorm_wordpool_576.txt	LTP377	ltpFR2	11	20	STOVE	1388	n/a	n/a	0	0	0
4112659	WORD	wordpools/wasnorm_wordpool_576.txt	LTP377	ltpFR2	11	20	BROTHER	179	n/a	n/a	0	0	0
4115192	WORD	wordpools/wasnorm_wordpool_576.txt	LTP377	ltpFR2	11	20	BREAST	171	n/a	n/a	0	0	0
4117975	WORD	wordpools/wasnorm_wordpool_576.txt	LTP377	ltpFR2	11	20	BRACES	164	n/a	n/a	0	0	0
4120556	WORD	wordpools/wasnorm_wordpool_576.txt	LTP377	ltpFR2	11	20	SURVEY	1414	n/a	n/a	0	0	0
4123321	WORD	wordpools/wasnorm_wordpool_576.txt	LTP377	ltpFR2	11	20	CRAYON	401	n/a	n/a	0	0	0
4125820	WORD	wordpools/wasnorm_wordpool_576.txt	LTP377	ltpFR2	11	20	JUGGLER	763	n/a	n/a	0	0	0
4128585	WORD	wordpools/wasnorm_wordpool_576.txt	LTP377	ltpFR2	11	20	FOREHEAD	592	n/a	n/a	0	0	0
4131317	WORD	wordpools/wasnorm_wordpool_576.txt	LTP377	ltpFR2	11	20	FIREPLACE	570	n/a	n/a	0	0	0
4134134	WORD	wordpools/wasnorm_wordpool_576.txt	LTP377	ltpFR2	11	20	DIME	466	n/a	n/a	0	0	0
4136949	WORD	wordpools/wasnorm_wordpool_576.txt	LTP377	ltpFR2	11	20	BRAKE	166	n/a	n/a	0	0	0
4139697	WORD	wordpools/wasnorm_wordpool_576.txt	LTP377	ltpFR2	11	20	LIPSTICK	829	n/a	n/a	0	0	0
4142396	WORD	wordpools/wasnorm_wordpool_576.txt	LTP377	ltpFR2	11	20	TOASTER	1472	n/a	n/a	0	0	0
4145178	WORD	wordpools/wasnorm_wordpool_576.txt	LTP377	ltpFR2	11	20	YACHT	1629	n/a	n/a	0	0	0
4147876	WORD	wordpools/wasnorm_wordpool_576.txt	LTP377	ltpFR2	11	20	OFFICE	972	n/a	n/a	0	0	0
4150342	WORD	wordpools/wasnorm_wordpool_576.txt	LTP377	ltpFR2	11	20	SUPPER	1411	n/a	n/a	0	0	0
4152857	WORD	wordpools/wasnorm_wordpool_576.txt	LTP377	ltpFR2	11	20	GRILL	661	n/a	n/a	0	0	0
4155490	WORD	wordpools/wasnorm_wordpool_576.txt	LTP377	ltpFR2	11	20	TRUCK	1512	n/a	n/a	0	0	0
4158138	WORD	wordpools/wasnorm_wordpool_576.txt	LTP377	ltpFR2	11	20	WAGON	1578	n/a	n/a	0	0	0
4160770	WORD	wordpools/wasnorm_wordpool_576.txt	LTP377	ltpFR2	11	20	TRACTOR	1493	n/a	n/a	0	0	0
4163419	WORD	wordpools/wasnorm_wordpool_576.txt	LTP377	ltpFR2	11	20	SIBLING	1301	n/a	n/a	0	0	0
4165036	START	n/a	LTP377	ltpFR2	11	n/a	n/a	n/a	31	n/a	n/a	n/a	n/a
4166116	DISTRACTOR	n/a	LTP377	ltpFR2	11	20	n/a	n/a	n/a	n/a	0	0	0
4166119	PROB	n/a	LTP377	ltpFR2	11	n/a	n/a	n/a	31	22	5	8	9
4170699	PROB	n/a	LTP377	ltpFR2	11	n/a	n/a	n/a	31	11	4	4	3
4173448	PROB	n/a	LTP377	ltpFR2	11	n/a	n/a	n/a	31	22	8	9	5
4176914	PROB	n/a	LTP377	ltpFR2	11	n/a	n/a	n/a	31	21	5	9	7
4178745	PROB	n/a	LTP377	ltpFR2	11	n/a	n/a	n/a	31	9	6	1	2
4180328	PROB	n/a	LTP377	ltpFR2	11	n/a	n/a	n/a	31	14	6	7	1
4181978	PROB	n/a	LTP377	ltpFR2	11	n/a	n/a	n/a	31	12	2	7	3
4183577	PROB	n/a	LTP377	ltpFR2	11	n/a	n/a	n/a	31	20	4	8	8
4185426	PROB	n/a	LTP377	ltpFR2	11	n/a	n/a	n/a	31	17	1	8	8
4186959	PROB	n/a	LTP377	ltpFR2	11	n/a	n/a	n/a	31	15	6	1	8
4188857	STOP	n/a	LTP377	ltpFR2	11	n/a	n/a	n/a	31	n/a	n/a	n/a	n/a
4190958	REC_START	n/a	LTP377	ltpFR2	11	20	n/a	n/a	n/a	n/a	0	0	0
4195078	REC_WORD	wordpools/wasnorm_wordpool_576.txt	LTP377	ltpFR2	11	20	YACHT	1629	n/a	n/a	0	0	0
4197179	REC_WORD	wordpools/wasnorm_wordpool_576.txt	LTP377	ltpFR2	11	20	SPARROW	1347	n/a	n/a	0	0	0
4198163	REC_WORD	wordpools/wasnorm_wordpool_576.txt	LTP377	ltpFR2	11	20	PIGEON	1065	n/a	n/a	0	0	0
4202191	REC_WORD	wordpools/wasnorm_wordpool_576.txt	LTP377	ltpFR2	11	20	BROTHER	179	n/a	n/a	0	0	0
4203074	REC_WORD	wordpools/wasnorm_wordpool_576.txt	LTP377	ltpFR2	11	20	BREAST	171	n/a	n/a	0	0	0
4208035	REC_WORD	wordpools/wasnorm_wordpool_576.txt	LTP377	ltpFR2	11	20	BRACES	164	n/a	n/a	0	0	0
4210835	REC_WORD	wordpools/wasnorm_wordpool_576.txt	LTP377	ltpFR2	11	20	FOREHEAD	592	n/a	n/a	0	0	0
4211575	REC_WORD	wordpools/wasnorm_wordpool_576.txt	LTP377	ltpFR2	11	20	FIREPLACE	570	n/a	n/a	0	0	0
4212527	REC_WORD	wordpools/wasnorm_wordpool_576.txt	LTP377	ltpFR2	11	20	DIME	466	n/a	n/a	0	0	0
4213091	REC_WORD	wordpools/wasnorm_wordpool_576.txt	LTP377	ltpFR2	11	20	SURVEY	1414	n/a	n/a	0	0	0
4213966	REC_WORD	wordpools/wasnorm_wordpool_576.txt	LTP377	ltpFR2	11	20	CRAYON	401	n/a	n/a	0	0	0
4225190	REC_WORD	wordpools/wasnorm_wordpool_576.txt	LTP377	ltpFR2	11	20	BRAKE	166	n/a	n/a	0	0	0
4227454	REC_WORD	wordpools/wasnorm_wordpool_576.txt	LTP377	ltpFR2	11	20	TOASTER	1472	n/a	n/a	0	0	0
4281448	DISTRACTOR	n/a	LTP377	ltpFR2	11	21	n/a	n/a	n/a	n/a	0	0	0
4281448	START	n/a	LTP377	ltpFR2	11	n/a	n/a	n/a	32	n/a	n/a	n/a	n/a
4281464	PROB	n/a	LTP377	ltpFR2	11	n/a	n/a	n/a	32	18	6	6	6
4283663	PROB	n/a	LTP377	ltpFR2	11	n/a	n/a	n/a	32	17	4	8	5
4290294	PROB	n/a	LTP377	ltpFR2	11	n/a	n/a	n/a	32	14	9	2	3
4292626	PROB	n/a	LTP377	ltpFR2	11	n/a	n/a	n/a	32	13	3	8	2
4294425	PROB	n/a	LTP377	ltpFR2	11	n/a	n/a	n/a	32	23	8	6	9
4296724	PROB	n/a	LTP377	ltpFR2	11	n/a	n/a	n/a	32	22	7	7	8
4298307	PROB	n/a	LTP377	ltpFR2	11	n/a	n/a	n/a	32	13	5	1	7
4300074	PROB	n/a	LTP377	ltpFR2	11	n/a	n/a	n/a	32	9	6	2	1
4305448	STOP	n/a	LTP377	ltpFR2	11	n/a	n/a	n/a	32	n/a	n/a	n/a	n/a
4306469	WORD	wordpools/wasnorm_wordpool_576.txt	LTP377	ltpFR2	11	21	CUPBOARD	425	n/a	n/a	0	0	0
4308953	WORD	wordpools/wasnorm_wordpool_576.txt	LTP377	ltpFR2	11	21	PARROT	1015	n/a	n/a	0	0	0
4311684	WORD	wordpools/wasnorm_wordpool_576.txt	LTP377	ltpFR2	11	21	SEAGULL	1261	n/a	n/a	0	0	0
4314299	WORD	wordpools/wasnorm_wordpool_576.txt	LTP377	ltpFR2	11	21	BRICK	172	n/a	n/a	0	0	0
4316815	WORD	wordpools/wasnorm_wordpool_576.txt	LTP377	ltpFR2	11	21	RIFLE	1192	n/a	n/a	0	0	0
4319613	WORD	wordpools/wasnorm_wordpool_576.txt	LTP377	ltpFR2	11	21	ORANGE	980	n/a	n/a	0	0	0
4322130	WORD	wordpools/wasnorm_wordpool_576.txt	LTP377	ltpFR2	11	21	SLIME	1327	n/a	n/a	0	0	0
4324778	WORD	wordpools/wasnorm_wordpool_576.txt	LTP377	ltpFR2	11	21	PATROL	1027	n/a	n/a	0	0	0
4327493	WORD	wordpools/wasnorm_wordpool_576.txt	LTP377	ltpFR2	11	21	CRICKET	408	n/a	n/a	0	0	0
4330060	WORD	wordpools/wasnorm_wordpool_576.txt	LTP377	ltpFR2	11	21	SOFTBALL	1343	n/a	n/a	0	0	0
4332757	WORD	wordpools/wasnorm_wordpool_576.txt	LTP377	ltpFR2	11	21	FOOTBALL	591	n/a	n/a	0	0	0
4335506	WORD	wordpools/wasnorm_wordpool_576.txt	LTP377	ltpFR2	11	21	LOVER	846	n/a	n/a	0	0	0
4338006	WORD	wordpools/wasnorm_wordpool_576.txt	LTP377	ltpFR2	11	21	JUDGE	761	n/a	n/a	0	0	0
4340754	WORD	wordpools/wasnorm_wordpool_576.txt	LTP377	ltpFR2	11	21	STAKE	1368	n/a	n/a	0	0	0
4343252	WORD	wordpools/wasnorm_wordpool_576.txt	LTP377	ltpFR2	11	21	EUROPE	541	n/a	n/a	0	0	0
4346002	WORD	wordpools/wasnorm_wordpool_576.txt	LTP377	ltpFR2	11	21	MILDEW	893	n/a	n/a	0	0	0
4348467	WORD	wordpools/wasnorm_wordpool_576.txt	LTP377	ltpFR2	11	21	LETTUCE	814	n/a	n/a	0	0	0
4350983	WORD	wordpools/wasnorm_wordpool_576.txt	LTP377	ltpFR2	11	21	QUARTER	1148	n/a	n/a	0	0	0
4353464	WORD	wordpools/wasnorm_wordpool_576.txt	LTP377	ltpFR2	11	21	CABIN	211	n/a	n/a	0	0	0
4356280	WORD	wordpools/wasnorm_wordpool_576.txt	LTP377	ltpFR2	11	21	LADDER	793	n/a	n/a	0	0	0
4358862	WORD	wordpools/wasnorm_wordpool_576.txt	LTP377	ltpFR2	11	21	TOMBSTONE	1478	n/a	n/a	0	0	0
