mstime	trial_type	stim_file	subject	experiment	session	trial	task	item_name	item_num	recog_resp	recog_conf	resp	color_r	color_g	color_b	case	font
0	SESS_START	n/a	LTP241	ltpFR	2	n/a	n/a	n/a	n/a	0	5	n/a	n/a	n/a	n/a	n/a	n/a
73278	WORD	wordpools/wasnorm_wordpool_less_exclusions.txt	LTP241	ltpFR	2	1	0	MERMAID	887	1	n/a	1	0.422607421875	0.5869140625	0	lower	amplitud.ttf
77105	WORD	wordpools/wasnorm_wordpool_less_exclusions.txt	LTP241	ltpFR	2	1	0	CAMERA	224	n/a	n/a	0	0.422607421875	0.5869140625	0	lower	amplitud.ttf
80948	WORD	wordpools/wasnorm_wordpool_less_exclusions.txt	LTP241	ltpFR	2	1	0	CHART	282	n/a	n/a	0	0.422607421875	0.5869140625	0	lower	amplitud.ttf
85160	WORD	wordpools/wasnorm_wordpool_less_exclusions.txt	LTP241	ltpFR	2	1	0	CAT	257	n/a	n/a	0	0.422607421875	0.5869140625	0	lower	amplitud.ttf
89137	WORD	wordpools/wasnorm_wordpool_less_exclusions.txt	LTP241	ltpFR	2	1	0	COYOTE	396	n/a	n/a	1	0.422607421875	0.5869140625	0	lower	amplitud.ttf
93347	WORD	wordpools/wasnorm_wordpool_less_exclusions.txt	LTP241	ltpFR	2	1	0	CAB	209	n/a	n/a	1	0.422607421875	0.5869140625	0	lower	amplitud.ttf
97225	WORD	wordpools/wasnorm_wordpool_less_exclusions.txt	LTP241	ltpFR	2	1	1	TUB	1514	n/a	n/a	1	0.57763671875	0.412841796875	1	upper	zerothre.ttf
101119	WORD	wordpools/wasnorm_wordpool_less_exclusions.txt	LTP241	ltpFR	2	1	1	CELERY	266	n/a	n/a	0	0.57763671875	0.412841796875	1	upper	zerothre.ttf
105213	WORD	wordpools/wasnorm_wordpool_less_exclusions.txt	LTP241	ltpFR	2	1	1	HIGHWAY	707	n/a	n/a	0	0.57763671875	0.412841796875	1	upper	zerothre.ttf
109274	WORD	wordpools/wasnorm_wordpool_less_exclusions.txt	LTP241	ltpFR	2	1	1	FOUNTAIN	597	n/a	n/a	0	0.57763671875	0.412841796875	1	upper	zerothre.ttf
113151	WORD	wordpools/wasnorm_wordpool_less_exclusions.txt	LTP241	ltpFR	2	1	0	BUNNY	198	n/a	n/a	0	0.422607421875	0.5869140625	0	lower	amplitud.ttf
117095	WORD	wordpools/wasnorm_wordpool_less_exclusions.txt	LTP241	ltpFR	2	1	0	GORILLA	650	n/a	n/a	1	0.422607421875	0.5869140625	0	lower	amplitud.ttf
121189	WORD	wordpools/wasnorm_wordpool_less_exclusions.txt	LTP241	ltpFR	2	1	1	ANIMAL	23	n/a	n/a	1	0.57763671875	0.412841796875	1	upper	zerothre.ttf
125133	WORD	wordpools/wasnorm_wordpool_less_exclusions.txt	LTP241	ltpFR	2	1	1	CRACKER	398	n/a	n/a	0	0.57763671875	0.412841796875	1	upper	zerothre.ttf
129077	WORD	wordpools/wasnorm_wordpool_less_exclusions.txt	LTP241	ltpFR	2	1	1	SUBMARINE	1398	n/a	n/a	0	0.57763671875	0.412841796875	1	upper	zerothre.ttf
133088	WORD	wordpools/wasnorm_wordpool_less_exclusions.txt	LTP241	ltpFR	2	1	1	SURVEY	1414	n/a	n/a	0	0.57763671875	0.412841796875	1	upper	zerothre.ttf
138821	REC_START	n/a	LTP241	ltpFR	2	1	n/a	n/a	n/a	n/a	n/a	n/a	n/a	n/a	n/a	n/a	n/a
139447	REC_WORD	wordpools/wasnorm_wordpool_less_exclusions.txt	LTP241	ltpFR	2	1	0	MERMAID	887	n/a	n/a	1	n/a	n/a	n/a	n/a	n/a
140387	REC_WORD	wordpools/wasnorm_wordpool_less_exclusions.txt	LTP241	ltpFR	2	1	0	CHART	282	n/a	n/a	0	n/a	n/a	n/a	n/a	n/a
141669	REC_WORD	wordpools/wasnorm_wordpool_less_exclusions.txt	LTP241	ltpFR	2	1	0	GORILLA	650	n/a	n/a	1	n/a	n/a	n/a	n/a	n/a
142981	REC_WORD	wordpools/wasnorm_wordpool_less_exclusions.txt	LTP241	ltpFR	2	1	0	BUNNY	198	n/a	n/a	0	n/a	n/a	n/a	n/a	n/a
144079	REC_WORD	wordpools/wasnorm_wordpool_less_exclusions.txt	LTP241	ltpFR	2	1	0	CAT	257	n/a	n/a	0	n/a	n/a	n/a	n/a	n/a
146249	REC_WORD	wordpools/wasnorm_wordpool_less_exclusions.txt	LTP241	ltpFR	2	1	1	ANIMAL	23	n/a	n/a	1	n/a	n/a	n/a	n/a	n/a
147696	REC_WORD	wordpools/wasnorm_wordpool_less_exclusions.txt	LTP241	ltpFR	2	1	1	CRACKER	398	n/a	n/a	0	n/a	n/a	n/a	n/a	n/a
169790	REC_WORD	wordpools/wasnorm_wordpool_less_exclusions.txt	LTP241	ltpFR	2	1	1	TUB	1514	n/a	n/a	1	n/a	n/a	n/a	n/a	n/a
175772	REC_WORD	wordpools/wasnorm_wordpool_less_exclusions.txt	LTP241	ltpFR	2	1	1	SURVEY	1414	n/a	n/a	0	n/a	n/a	n/a	n/a	n/a
211550	REC_WORD	wordpools/wasnorm_wordpool_less_exclusions.txt	LTP241	ltpFR	2	1	0	CAB	209	n/a	n/a	1	n/a	n/a	n/a	n/a	n/a
223635	WORD	wordpools/wasnorm_wordpool_less_exclusions.txt	LTP241	ltpFR	2	2	1	AUDIENCE	59	n/a	n/a	1	0.57763671875	0.412841796875	1	upper	zerothre.ttf
227546	WORD	wordpools/wasnorm_wordpool_less_exclusions.txt	LTP241	ltpFR	2	2	1	SPOOL	1356	n/a	n/a	0	0.57763671875	0.412841796875	1	upper	zerothre.ttf
231607	WORD	wordpools/wasnorm_wordpool_less_exclusions.txt	LTP241	ltpFR	2	2	0	SCARF	1246	n/a	n/a	0	0.422607421875	0.5869140625	0	lower	amplitud.ttf
235800	WORD	wordpools/wasnorm_wordpool_less_exclusions.txt	LTP241	ltpFR	2	2	0	TOURIST	1488	n/a	n/a	1	0.422607421875	0.5869140625	0	lower	amplitud.ttf
239728	WORD	wordpools/wasnorm_wordpool_less_exclusions.txt	LTP241	ltpFR	2	2	0	VEHICLE	1553	n/a	n/a	1	0.422607421875	0.5869140625	0	lower	amplitud.ttf
243555	WORD	wordpools/wasnorm_wordpool_less_exclusions.txt	LTP241	ltpFR	2	2	0	CARPET	247	n/a	n/a	1	0.422607421875	0.5869140625	0	lower	amplitud.ttf
247649	WORD	wordpools/wasnorm_wordpool_less_exclusions.txt	LTP241	ltpFR	2	2	0	RUG	1215	n/a	n/a	1	0.422607421875	0.5869140625	0	lower	amplitud.ttf
251860	WORD	wordpools/wasnorm_wordpool_less_exclusions.txt	LTP241	ltpFR	2	2	1	FISH	571	n/a	n/a	1	0.57763671875	0.412841796875	1	upper	zerothre.ttf
255937	WORD	wordpools/wasnorm_wordpool_less_exclusions.txt	LTP241	ltpFR	2	2	1	OCEAN	970	n/a	n/a	0	0.57763671875	0.412841796875	1	upper	zerothre.ttf
259998	WORD	wordpools/wasnorm_wordpool_less_exclusions.txt	LTP241	ltpFR	2	2	1	LEOPARD	812	n/a	n/a	1	0.57763671875	0.412841796875	1	upper	zerothre.ttf
263825	WORD	wordpools/wasnorm_wordpool_less_exclusions.txt	LTP241	ltpFR	2	2	1	TREASURE	1500	n/a	n/a	0	0.57763671875	0.412841796875	1	upper	zerothre.ttf
267703	WORD	wordpools/wasnorm_wordpool_less_exclusions.txt	LTP241	ltpFR	2	2	1	LIMOUSINE	824	n/a	n/a	0	0.57763671875	0.412841796875	1	upper	zerothre.ttf
271913	WORD	wordpools/wasnorm_wordpool_less_exclusions.txt	LTP241	ltpFR	2	2	1	PERSONNEL	1053	n/a	n/a	1	0.57763671875	0.412841796875	1	upper	zerothre.ttf
275824	WORD	wordpools/wasnorm_wordpool_less_exclusions.txt	LTP241	ltpFR	2	2	0	QUARTER	1148	n/a	n/a	0	0.422607421875	0.5869140625	0	lower	amplitud.ttf
280018	WORD	wordpools/wasnorm_wordpool_less_exclusions.txt	LTP241	ltpFR	2	2	0	SALIVA	1226	n/a	n/a	0	0.422607421875	0.5869140625	0	lower	amplitud.ttf
283862	WORD	wordpools/wasnorm_wordpool_less_exclusions.txt	LTP241	ltpFR	2	2	0	PAIL	1002	n/a	n/a	0	0.422607421875	0.5869140625	0	lower	amplitud.ttf
289538	REC_START	n/a	LTP241	ltpFR	2	2	n/a	n/a	n/a	n/a	n/a	n/a	n/a	n/a	n/a	n/a	n/a
290650	REC_WORD	wordpools/wasnorm_wordpool_less_exclusions.txt	LTP241	ltpFR	2	2	0	PAIL	1002	n/a	n/a	0	n/a	n/a	n/a	n/a	n/a
291623	REC_WORD	wordpools/wasnorm_wordpool_less_exclusions.txt	LTP241	ltpFR	2	2	n/a	BUCKET	184	n/a	n/a	n/a	n/a	n/a	n/a	n/a	n/a
293090	REC_WORD	wordpools/wasnorm_wordpool_less_exclusions.txt	LTP241	ltpFR	2	2	1	PERSONNEL	1053	n/a	n/a	1	n/a	n/a	n/a	n/a	n/a
299540	REC_WORD	wordpools/wasnorm_wordpool_less_exclusions.txt	LTP241	ltpFR	2	2	0	SALIVA	1226	n/a	n/a	0	n/a	n/a	n/a	n/a	n/a
308699	REC_WORD	wordpools/wasnorm_wordpool_less_exclusions.txt	LTP241	ltpFR	2	2	0	QUARTER	1148	n/a	n/a	0	n/a	n/a	n/a	n/a	n/a
317913	REC_WORD	wordpools/wasnorm_wordpool_less_exclusions.txt	LTP241	ltpFR	2	2	1	LIMOUSINE	824	n/a	n/a	0	n/a	n/a	n/a	n/a	n/a
326952	REC_WORD	wordpools/wasnorm_wordpool_less_exclusions.txt	LTP241	ltpFR	2	2	1	FISH	571	n/a	n/a	1	n/a	n/a	n/a	n/a	n/a
328025	REC_WORD	wordpools/wasnorm_wordpool_less_exclusions.txt	LTP241	ltpFR	2	2	1	OCEAN	970	n/a	n/a	0	n/a	n/a	n/a	n/a	n/a
358291	REC_WORD	wordpools/wasnorm_wordpool_less_exclusions.txt	LTP241	ltpFR	2	2	0	TOURIST	1488	n/a	n/a	1	n/a	n/a	n/a	n/a	n/a
377972	WORD	wordpools/wasnorm_wordpool_less_exclusions.txt	LTP241	ltpFR	2	3	1	HOUND	724	n/a	n/a	1	0.57763671875	0.412841796875	1	upper	zerothre.ttf
381932	WORD	wordpools/wasnorm_wordpool_less_exclusions.txt	LTP241	ltpFR	2	3	1	INN	739	n/a	n/a	0	0.57763671875	0.412841796875	1	upper	zerothre.ttf
386009	WORD	wordpools/wasnorm_wordpool_less_exclusions.txt	LTP241	ltpFR	2	3	1	LEADER	807	n/a	n/a	1	0.57763671875	0.412841796875	1	upper	zerothre.ttf
389954	WORD	wordpools/wasnorm_wordpool_less_exclusions.txt	LTP241	ltpFR	2	3	1	CAP	236	n/a	n/a	0	0.57763671875	0.412841796875	1	upper	zerothre.ttf
394165	WORD	wordpools/wasnorm_wordpool_less_exclusions.txt	LTP241	ltpFR	2	3	1	DESIGNER	451	n/a	n/a	1	0.57763671875	0.412841796875	1	upper	zerothre.ttf
397992	WORD	wordpools/wasnorm_wordpool_less_exclusions.txt	LTP241	ltpFR	2	3	1	TORCH	1484	n/a	n/a	0	0.57763671875	0.412841796875	1	upper	zerothre.ttf
401819	WORD	wordpools/wasnorm_wordpool_less_exclusions.txt	LTP241	ltpFR	2	3	1	STAKE	1368	n/a	n/a	0	0.57763671875	0.412841796875	1	upper	zerothre.ttf
405896	WORD	wordpools/wasnorm_wordpool_less_exclusions.txt	LTP241	ltpFR	2	3	1	POET	1095	n/a	n/a	1	0.57763671875	0.412841796875	1	upper	zerothre.ttf
409757	WORD	wordpools/wasnorm_wordpool_less_exclusions.txt	LTP241	ltpFR	2	3	1	LITERATURE	831	n/a	n/a	0	0.57763671875	0.412841796875	1	upper	zerothre.ttf
413918	WORD	wordpools/wasnorm_wordpool_less_exclusions.txt	LTP241	ltpFR	2	3	1	BANDANNA	80	n/a	n/a	0	0.57763671875	0.412841796875	1	upper	zerothre.ttf
417895	WORD	wordpools/wasnorm_wordpool_less_exclusions.txt	LTP241	ltpFR	2	3	1	COSTUME	383	n/a	n/a	0	0.57763671875	0.412841796875	1	upper	zerothre.ttf
421972	WORD	wordpools/wasnorm_wordpool_less_exclusions.txt	LTP241	ltpFR	2	3	1	CLOSET	326	n/a	n/a	0	0.57763671875	0.412841796875	1	upper	zerothre.ttf
425800	WORD	wordpools/wasnorm_wordpool_less_exclusions.txt	LTP241	ltpFR	2	3	1	FLEA	577	n/a	n/a	1	0.57763671875	0.412841796875	1	upper	zerothre.ttf
429628	WORD	wordpools/wasnorm_wordpool_less_exclusions.txt	LTP241	ltpFR	2	3	1	WOLF	1619	n/a	n/a	1	0.57763671875	0.412841796875	1	upper	zerothre.ttf
433605	WORD	wordpools/wasnorm_wordpool_less_exclusions.txt	LTP241	ltpFR	2	3	1	SENATOR	1268	n/a	n/a	1	0.57763671875	0.412841796875	1	upper	zerothre.ttf
437632	WORD	wordpools/wasnorm_wordpool_less_exclusions.txt	LTP241	ltpFR	2	3	1	HELMET	702	n/a	n/a	0	0.57763671875	0.412841796875	1	upper	zerothre.ttf
443275	REC_START	n/a	LTP241	ltpFR	2	3	n/a	n/a	n/a	n/a	n/a	n/a	n/a	n/a	n/a	n/a	n/a
443943	REC_WORD	wordpools/wasnorm_wordpool_less_exclusions.txt	LTP241	ltpFR	2	3	1	SENATOR	1268	n/a	n/a	1	n/a	n/a	n/a	n/a	n/a
444794	REC_WORD	wordpools/wasnorm_wordpool_less_exclusions.txt	LTP241	ltpFR	2	3	1	HELMET	702	n/a	n/a	0	n/a	n/a	n/a	n/a	n/a
445894	REC_WORD	wordpools/wasnorm_wordpool_less_exclusions.txt	LTP241	ltpFR	2	3	1	HOUND	724	n/a	n/a	1	n/a	n/a	n/a	n/a	n/a
446986	REC_WORD	wordpools/wasnorm_wordpool_less_exclusions.txt	LTP241	ltpFR	2	3	1	INN	739	n/a	n/a	0	n/a	n/a	n/a	n/a	n/a
448074	REC_WORD	wordpools/wasnorm_wordpool_less_exclusions.txt	LTP241	ltpFR	2	3	1	WOLF	1619	n/a	n/a	1	n/a	n/a	n/a	n/a	n/a
449201	REC_WORD	wordpools/wasnorm_wordpool_less_exclusions.txt	LTP241	ltpFR	2	3	1	FLEA	577	n/a	n/a	1	n/a	n/a	n/a	n/a	n/a
450628	REC_WORD	wordpools/wasnorm_wordpool_less_exclusions.txt	LTP241	ltpFR	2	3	1	CAP	236	n/a	n/a	0	n/a	n/a	n/a	n/a	n/a
451870	REC_WORD	wordpools/wasnorm_wordpool_less_exclusions.txt	LTP241	ltpFR	2	3	1	TORCH	1484	n/a	n/a	0	n/a	n/a	n/a	n/a	n/a
453097	REC_WORD	wordpools/wasnorm_wordpool_less_exclusions.txt	LTP241	ltpFR	2	3	1	LEADER	807	n/a	n/a	1	n/a	n/a	n/a	n/a	n/a
464541	REC_WORD	wordpools/wasnorm_wordpool_less_exclusions.txt	LTP241	ltpFR	2	3	1	CLOSET	326	n/a	n/a	0	n/a	n/a	n/a	n/a	n/a
483688	REC_WORD	wordpools/wasnorm_wordpool_less_exclusions.txt	LTP241	ltpFR	2	3	1	POET	1095	n/a	n/a	1	n/a	n/a	n/a	n/a	n/a
484506	REC_WORD	wordpools/wasnorm_wordpool_less_exclusions.txt	LTP241	ltpFR	2	3	1	LITERATURE	831	n/a	n/a	0	n/a	n/a	n/a	n/a	n/a
528031	WORD	wordpools/wasnorm_wordpool_less_exclusions.txt	LTP241	ltpFR	2	4	1	BULL	193	n/a	n/a	1	0.57763671875	0.412841796875	1	upper	zerothre.ttf
532176	WORD	wordpools/wasnorm_wordpool_less_exclusions.txt	LTP241	ltpFR	2	4	1	SATURN	1236	n/a	n/a	0	0.57763671875	0.412841796875	1	upper	zerothre.ttf
536236	WORD	wordpools/wasnorm_wordpool_less_exclusions.txt	LTP241	ltpFR	2	4	1	KNAPSACK	783	n/a	n/a	0	0.57763671875	0.412841796875	1	upper	zerothre.ttf
540347	WORD	wordpools/wasnorm_wordpool_less_exclusions.txt	LTP241	ltpFR	2	4	1	OATMEAL	967	n/a	n/a	0	0.57763671875	0.412841796875	1	upper	zerothre.ttf
544391	WORD	wordpools/wasnorm_wordpool_less_exclusions.txt	LTP241	ltpFR	2	4	1	PUPIL	1143	n/a	n/a	0	0.57763671875	0.412841796875	1	upper	zerothre.ttf
548533	WORD	wordpools/wasnorm_wordpool_less_exclusions.txt	LTP241	ltpFR	2	4	1	VEST	1559	n/a	n/a	0	0.57763671875	0.412841796875	1	upper	zerothre.ttf
552395	WORD	wordpools/wasnorm_wordpool_less_exclusions.txt	LTP241	ltpFR	2	4	1	GRAVEL	659	n/a	n/a	0	0.57763671875	0.412841796875	1	upper	zerothre.ttf
556621	WORD	wordpools/wasnorm_wordpool_less_exclusions.txt	LTP241	ltpFR	2	4	1	TREE	1502	n/a	n/a	1	0.57763671875	0.412841796875	1	upper	zerothre.ttf
560815	WORD	wordpools/wasnorm_wordpool_less_exclusions.txt	LTP241	ltpFR	2	4	1	BALLOT	76	n/a	n/a	0	0.57763671875	0.412841796875	1	upper	zerothre.ttf
564926	WORD	wordpools/wasnorm_wordpool_less_exclusions.txt	LTP241	ltpFR	2	4	1	FUR	615	n/a	n/a	1	0.57763671875	0.412841796875	1	upper	zerothre.ttf
568886	WORD	wordpools/wasnorm_wordpool_less_exclusions.txt	LTP241	ltpFR	2	4	1	TEACHER	1440	n/a	n/a	1	0.57763671875	0.412841796875	1	upper	zerothre.ttf
572880	WORD	wordpools/wasnorm_wordpool_less_exclusions.txt	LTP241	ltpFR	2	4	1	SALESMAN	1225	n/a	n/a	1	0.57763671875	0.412841796875	1	upper	zerothre.ttf
576874	WORD	wordpools/wasnorm_wordpool_less_exclusions.txt	LTP241	ltpFR	2	4	1	DIRECTOR	471	n/a	n/a	1	0.57763671875	0.412841796875	1	upper	zerothre.ttf
581086	WORD	wordpools/wasnorm_wordpool_less_exclusions.txt	LTP241	ltpFR	2	4	1	POPCORN	1104	n/a	n/a	0	0.57763671875	0.412841796875	1	upper	zerothre.ttf
585163	WORD	wordpools/wasnorm_wordpool_less_exclusions.txt	LTP241	ltpFR	2	4	1	MANSION	864	n/a	n/a	0	0.57763671875	0.412841796875	1	upper	zerothre.ttf
589290	WORD	wordpools/wasnorm_wordpool_less_exclusions.txt	LTP241	ltpFR	2	4	1	ARCHITECT	36	n/a	n/a	1	0.57763671875	0.412841796875	1	upper	zerothre.ttf
594998	REC_START	n/a	LTP241	ltpFR	2	4	n/a	n/a	n/a	n/a	n/a	n/a	n/a	n/a	n/a	n/a	n/a
596360	REC_WORD	wordpools/wasnorm_wordpool_less_exclusions.txt	LTP241	ltpFR	2	4	1	ARCHITECT	36	n/a	n/a	1	n/a	n/a	n/a	n/a	n/a
597482	REC_WORD	wordpools/wasnorm_wordpool_less_exclusions.txt	LTP241	ltpFR	2	4	1	MANSION	864	n/a	n/a	0	n/a	n/a	n/a	n/a	n/a
599248	REC_WORD	wordpools/wasnorm_wordpool_less_exclusions.txt	LTP241	ltpFR	2	4	1	BULL	193	n/a	n/a	1	n/a	n/a	n/a	n/a	n/a
600251	REC_WORD	wordpools/wasnorm_wordpool_less_exclusions.txt	LTP241	ltpFR	2	4	1	SATURN	1236	n/a	n/a	0	n/a	n/a	n/a	n/a	n/a
601548	REC_WORD	wordpools/wasnorm_wordpool_less_exclusions.txt	LTP241	ltpFR	2	4	1	KNAPSACK	783	n/a	n/a	0	n/a	n/a	n/a	n/a	n/a
602990	REC_WORD	wordpools/wasnorm_wordpool_less_exclusions.txt	LTP241	ltpFR	2	4	1	OATMEAL	967	n/a	n/a	0	n/a	n/a	n/a	n/a	n/a
604192	REC_WORD	wordpools/wasnorm_wordpool_less_exclusions.txt	LTP241	ltpFR	2	4	1	PUPIL	1143	n/a	n/a	0	n/a	n/a	n/a	n/a	n/a
608058	REC_WORD	wordpools/wasnorm_wordpool_less_exclusions.txt	LTP241	ltpFR	2	4	1	FUR	615	n/a	n/a	1	n/a	n/a	n/a	n/a	n/a
613496	REC_WORD	wordpools/wasnorm_wordpool_less_exclusions.txt	LTP241	ltpFR	2	4	1	TEACHER	1440	n/a	n/a	1	n/a	n/a	n/a	n/a	n/a
614399	REC_WORD	wordpools/wasnorm_wordpool_less_exclusions.txt	LTP241	ltpFR	2	4	1	SALESMAN	1225	n/a	n/a	1	n/a	n/a	n/a	n/a	n/a
620694	REC_WORD	wordpools/wasnorm_wordpool_less_exclusions.txt	LTP241	ltpFR	2	4	1	GRAVEL	659	n/a	n/a	0	n/a	n/a	n/a	n/a	n/a
630073	REC_WORD	wordpools/wasnorm_wordpool_less_exclusions.txt	LTP241	ltpFR	2	4	1	VEST	1559	n/a	n/a	0	n/a	n/a	n/a	n/a	n/a
680221	WORD	wordpools/wasnorm_wordpool_less_exclusions.txt	LTP241	ltpFR	2	5	0	CROCODILE	411	n/a	n/a	1	0.422607421875	0.5869140625	0	lower	amplitud.ttf
684099	WORD	wordpools/wasnorm_wordpool_less_exclusions.txt	LTP241	ltpFR	2	5	0	SIREN	1310	n/a	n/a	0	0.422607421875	0.5869140625	0	lower	amplitud.ttf
688242	WORD	wordpools/wasnorm_wordpool_less_exclusions.txt	LTP241	ltpFR	2	5	0	POT	1114	n/a	n/a	0	0.422607421875	0.5869140625	0	lower	amplitud.ttf
692403	WORD	wordpools/wasnorm_wordpool_less_exclusions.txt	LTP241	ltpFR	2	5	0	STEM	1376	n/a	n/a	0	0.422607421875	0.5869140625	0	lower	amplitud.ttf
696464	WORD	wordpools/wasnorm_wordpool_less_exclusions.txt	LTP241	ltpFR	2	5	0	ROD	1203	n/a	n/a	0	0.422607421875	0.5869140625	0	lower	amplitud.ttf
700540	WORD	wordpools/wasnorm_wordpool_less_exclusions.txt	LTP241	ltpFR	2	5	0	CHIEF	298	n/a	n/a	1	0.422607421875	0.5869140625	0	lower	amplitud.ttf
704452	WORD	wordpools/wasnorm_wordpool_less_exclusions.txt	LTP241	ltpFR	2	5	0	GARLIC	624	n/a	n/a	0	0.422607421875	0.5869140625	0	lower	amplitud.ttf
708379	WORD	wordpools/wasnorm_wordpool_less_exclusions.txt	LTP241	ltpFR	2	5	0	SUGAR	1401	n/a	n/a	0	0.422607421875	0.5869140625	0	lower	amplitud.ttf
712423	WORD	wordpools/wasnorm_wordpool_less_exclusions.txt	LTP241	ltpFR	2	5	0	DOCK	477	n/a	n/a	1	0.422607421875	0.5869140625	0	lower	amplitud.ttf
716417	WORD	wordpools/wasnorm_wordpool_less_exclusions.txt	LTP241	ltpFR	2	5	0	POSSUM	1112	n/a	n/a	1	0.422607421875	0.5869140625	0	lower	amplitud.ttf
720527	WORD	wordpools/wasnorm_wordpool_less_exclusions.txt	LTP241	ltpFR	2	5	0	WINGS	1614	n/a	n/a	1	0.422607421875	0.5869140625	0	lower	amplitud.ttf
724737	WORD	wordpools/wasnorm_wordpool_less_exclusions.txt	LTP241	ltpFR	2	5	0	SHOP	1290	n/a	n/a	1	0.422607421875	0.5869140625	0	lower	amplitud.ttf
728814	WORD	wordpools/wasnorm_wordpool_less_exclusions.txt	LTP241	ltpFR	2	5	0	BISON	131	n/a	n/a	1	0.422607421875	0.5869140625	0	lower	amplitud.ttf
732775	WORD	wordpools/wasnorm_wordpool_less_exclusions.txt	LTP241	ltpFR	2	5	0	CURTAIN	427	n/a	n/a	1	0.422607421875	0.5869140625	0	lower	amplitud.ttf
736919	WORD	wordpools/wasnorm_wordpool_less_exclusions.txt	LTP241	ltpFR	2	5	0	WINDOW	1611	n/a	n/a	1	0.422607421875	0.5869140625	0	lower	amplitud.ttf
740763	WORD	wordpools/wasnorm_wordpool_less_exclusions.txt	LTP241	ltpFR	2	5	0	CAPTAIN	239	n/a	n/a	1	0.422607421875	0.5869140625	0	lower	amplitud.ttf
746572	REC_START	n/a	LTP241	ltpFR	2	5	n/a	n/a	n/a	n/a	n/a	n/a	n/a	n/a	n/a	n/a	n/a
747380	REC_WORD	wordpools/wasnorm_wordpool_less_exclusions.txt	LTP241	ltpFR	2	5	0	CAPTAIN	239	n/a	n/a	1	n/a	n/a	n/a	n/a	n/a
748298	REC_WORD	wordpools/wasnorm_wordpool_less_exclusions.txt	LTP241	ltpFR	2	5	n/a	ALLIGATOR	16	n/a	n/a	n/a	n/a	n/a	n/a	n/a	n/a
749760	REC_WORD	wordpools/wasnorm_wordpool_less_exclusions.txt	LTP241	ltpFR	2	5	0	POT	1114	n/a	n/a	0	n/a	n/a	n/a	n/a	n/a
753865	REC_WORD	wordpools/wasnorm_wordpool_less_exclusions.txt	LTP241	ltpFR	2	5	0	WINDOW	1611	n/a	n/a	1	n/a	n/a	n/a	n/a	n/a
754803	REC_WORD	wordpools/wasnorm_wordpool_less_exclusions.txt	LTP241	ltpFR	2	5	0	CURTAIN	427	n/a	n/a	1	n/a	n/a	n/a	n/a	n/a
756494	REC_WORD	wordpools/wasnorm_wordpool_less_exclusions.txt	LTP241	ltpFR	2	5	0	SHOP	1290	n/a	n/a	1	n/a	n/a	n/a	n/a	n/a
759083	REC_WORD	wordpools/wasnorm_wordpool_less_exclusions.txt	LTP241	ltpFR	2	5	0	POSSUM	1112	n/a	n/a	1	n/a	n/a	n/a	n/a	n/a
760221	REC_WORD	wordpools/wasnorm_wordpool_less_exclusions.txt	LTP241	ltpFR	2	5	0	DOCK	477	n/a	n/a	1	n/a	n/a	n/a	n/a	n/a
772742	REC_WORD	wordpools/wasnorm_wordpool_less_exclusions.txt	LTP241	ltpFR	2	5	0	CURTAIN	427	n/a	n/a	1	n/a	n/a	n/a	n/a	n/a
773500	REC_WORD	wordpools/wasnorm_wordpool_less_exclusions.txt	LTP241	ltpFR	2	5	0	WINDOW	1611	n/a	n/a	1	n/a	n/a	n/a	n/a	n/a
836155	WORD	wordpools/wasnorm_wordpool_less_exclusions.txt	LTP241	ltpFR	2	6	1	ZUCCHINI	1638	n/a	n/a	0	0.57763671875	0.412841796875	1	upper	zerothre.ttf
840031	WORD	wordpools/wasnorm_wordpool_less_exclusions.txt	LTP241	ltpFR	2	6	1	BEETLE	116	n/a	n/a	1	0.57763671875	0.412841796875	1	upper	zerothre.ttf
844143	WORD	wordpools/wasnorm_wordpool_less_exclusions.txt	LTP241	ltpFR	2	6	1	NICOTINE	951	n/a	n/a	0	0.57763671875	0.412841796875	1	upper	zerothre.ttf
848337	WORD	wordpools/wasnorm_wordpool_less_exclusions.txt	LTP241	ltpFR	2	6	1	STEAM	1375	n/a	n/a	0	0.57763671875	0.412841796875	1	upper	zerothre.ttf
852164	WORD	wordpools/wasnorm_wordpool_less_exclusions.txt	LTP241	ltpFR	2	6	1	TAIL	1430	n/a	n/a	1	0.57763671875	0.412841796875	1	upper	zerothre.ttf
856008	WORD	wordpools/wasnorm_wordpool_less_exclusions.txt	LTP241	ltpFR	2	6	1	CASHIER	254	n/a	n/a	1	0.57763671875	0.412841796875	1	upper	zerothre.ttf
859885	WORD	wordpools/wasnorm_wordpool_less_exclusions.txt	LTP241	ltpFR	2	6	1	PENNY	1045	n/a	n/a	0	0.57763671875	0.412841796875	1	upper	zerothre.ttf
863946	WORD	wordpools/wasnorm_wordpool_less_exclusions.txt	LTP241	ltpFR	2	6	1	TERMINAL	1450	n/a	n/a	0	0.57763671875	0.412841796875	1	upper	zerothre.ttf
868006	WORD	wordpools/wasnorm_wordpool_less_exclusions.txt	LTP241	ltpFR	2	6	1	PASSENGER	1020	n/a	n/a	1	0.57763671875	0.412841796875	1	upper	zerothre.ttf
871950	WORD	wordpools/wasnorm_wordpool_less_exclusions.txt	LTP241	ltpFR	2	6	1	VINE	1568	n/a	n/a	1	0.57763671875	0.412841796875	1	upper	zerothre.ttf
876145	WORD	wordpools/wasnorm_wordpool_less_exclusions.txt	LTP241	ltpFR	2	6	1	SCARECROW	1245	n/a	n/a	0	0.57763671875	0.412841796875	1	upper	zerothre.ttf
880073	WORD	wordpools/wasnorm_wordpool_less_exclusions.txt	LTP241	ltpFR	2	6	1	WAVE	1596	n/a	n/a	0	0.57763671875	0.412841796875	1	upper	zerothre.ttf
884216	WORD	wordpools/wasnorm_wordpool_less_exclusions.txt	LTP241	ltpFR	2	6	1	SPIDER	1351	n/a	n/a	0	0.57763671875	0.412841796875	1	upper	zerothre.ttf
888277	WORD	wordpools/wasnorm_wordpool_less_exclusions.txt	LTP241	ltpFR	2	6	1	CITRUS	313	n/a	n/a	0	0.57763671875	0.412841796875	1	upper	zerothre.ttf
892238	WORD	wordpools/wasnorm_wordpool_less_exclusions.txt	LTP241	ltpFR	2	6	1	SUIT	1402	n/a	n/a	0	0.57763671875	0.412841796875	1	upper	zerothre.ttf
896065	WORD	wordpools/wasnorm_wordpool_less_exclusions.txt	LTP241	ltpFR	2	6	1	VETERAN	1561	n/a	n/a	1	0.57763671875	0.412841796875	1	upper	zerothre.ttf
902023	REC_START	n/a	LTP241	ltpFR	2	6	n/a	n/a	n/a	n/a	n/a	n/a	n/a	n/a	n/a	n/a	n/a
902881	REC_WORD	wordpools/wasnorm_wordpool_less_exclusions.txt	LTP241	ltpFR	2	6	1	VETERAN	1561	n/a	n/a	1	n/a	n/a	n/a	n/a	n/a
903869	REC_WORD	wordpools/wasnorm_wordpool_less_exclusions.txt	LTP241	ltpFR	2	6	1	ZUCCHINI	1638	n/a	n/a	0	n/a	n/a	n/a	n/a	n/a
905320	REC_WORD	wordpools/wasnorm_wordpool_less_exclusions.txt	LTP241	ltpFR	2	6	1	BEETLE	116	n/a	n/a	1	n/a	n/a	n/a	n/a	n/a
906936	REC_WORD	wordpools/wasnorm_wordpool_less_exclusions.txt	LTP241	ltpFR	2	6	1	NICOTINE	951	n/a	n/a	0	n/a	n/a	n/a	n/a	n/a
908633	REC_WORD	wordpools/wasnorm_wordpool_less_exclusions.txt	LTP241	ltpFR	2	6	1	CASHIER	254	n/a	n/a	1	n/a	n/a	n/a	n/a	n/a
914110	REC_WORD	wordpools/wasnorm_wordpool_less_exclusions.txt	LTP241	ltpFR	2	6	1	PASSENGER	1020	n/a	n/a	1	n/a	n/a	n/a	n/a	n/a
915357	REC_WORD	wordpools/wasnorm_wordpool_less_exclusions.txt	LTP241	ltpFR	2	6	1	TERMINAL	1450	n/a	n/a	0	n/a	n/a	n/a	n/a	n/a
917952	REC_WORD	wordpools/wasnorm_wordpool_less_exclusions.txt	LTP241	ltpFR	2	6	1	PENNY	1045	n/a	n/a	0	n/a	n/a	n/a	n/a	n/a
944117	REC_WORD	wordpools/wasnorm_wordpool_less_exclusions.txt	LTP241	ltpFR	2	6	1	OCEAN	970	n/a	n/a	0	n/a	n/a	n/a	n/a	n/a
951061	REC_WORD	wordpools/wasnorm_wordpool_less_exclusions.txt	LTP241	ltpFR	2	6	1	SCARECROW	1245	n/a	n/a	0	n/a	n/a	n/a	n/a	n/a
966097	REC_WORD	wordpools/wasnorm_wordpool_less_exclusions.txt	LTP241	ltpFR	2	6	1	SPIDER	1351	n/a	n/a	0	n/a	n/a	n/a	n/a	n/a
967055	REC_WORD	wordpools/wasnorm_wordpool_less_exclusions.txt	LTP241	ltpFR	2	6	1	CITRUS	313	n/a	n/a	0	n/a	n/a	n/a	n/a	n/a
985764	WORD	wordpools/wasnorm_wordpool_less_exclusions.txt	LTP241	ltpFR	2	7	1	BRIEFCASE	175	n/a	n/a	0	0.57763671875	0.412841796875	1	upper	zerothre.ttf
989958	WORD	wordpools/wasnorm_wordpool_less_exclusions.txt	LTP241	ltpFR	2	7	1	HONEY	713	n/a	n/a	0	0.57763671875	0.412841796875	1	upper	zerothre.ttf
993885	WORD	wordpools/wasnorm_wordpool_less_exclusions.txt	LTP241	ltpFR	2	7	1	COACH	331	n/a	n/a	1	0.57763671875	0.412841796875	1	upper	zerothre.ttf
997862	WORD	wordpools/wasnorm_wordpool_less_exclusions.txt	LTP241	ltpFR	2	7	0	DOCUMENT	479	n/a	n/a	1	0.422607421875	0.5869140625	0	lower	amplitud.ttf
1001973	WORD	wordpools/wasnorm_wordpool_less_exclusions.txt	LTP241	ltpFR	2	7	0	HORNET	718	n/a	n/a	0	0.422607421875	0.5869140625	0	lower	amplitud.ttf
1006033	WORD	wordpools/wasnorm_wordpool_less_exclusions.txt	LTP241	ltpFR	2	7	0	PAINTING	1005	n/a	n/a	1	0.422607421875	0.5869140625	0	lower	amplitud.ttf
1010245	WORD	wordpools/wasnorm_wordpool_less_exclusions.txt	LTP241	ltpFR	2	7	0	RAM	1165	n/a	n/a	1	0.422607421875	0.5869140625	0	lower	amplitud.ttf
1014389	WORD	wordpools/wasnorm_wordpool_less_exclusions.txt	LTP241	ltpFR	2	7	0	DEER	444	n/a	n/a	1	0.422607421875	0.5869140625	0	lower	amplitud.ttf
1018233	WORD	wordpools/wasnorm_wordpool_less_exclusions.txt	LTP241	ltpFR	2	7	1	CUFF	423	n/a	n/a	0	0.57763671875	0.412841796875	1	upper	zerothre.ttf
1022393	WORD	wordpools/wasnorm_wordpool_less_exclusions.txt	LTP241	ltpFR	2	7	1	POTATO	1115	n/a	n/a	0	0.57763671875	0.412841796875	1	upper	zerothre.ttf
1026471	WORD	wordpools/wasnorm_wordpool_less_exclusions.txt	LTP241	ltpFR	2	7	0	TOASTER	1472	n/a	n/a	0	0.422607421875	0.5869140625	0	lower	amplitud.ttf
1030315	WORD	wordpools/wasnorm_wordpool_less_exclusions.txt	LTP241	ltpFR	2	7	0	THUMB	1462	n/a	n/a	0	0.422607421875	0.5869140625	0	lower	amplitud.ttf
1034309	WORD	wordpools/wasnorm_wordpool_less_exclusions.txt	LTP241	ltpFR	2	7	0	MITTEN	902	n/a	n/a	0	0.422607421875	0.5869140625	0	lower	amplitud.ttf
1038535	WORD	wordpools/wasnorm_wordpool_less_exclusions.txt	LTP241	ltpFR	2	7	1	BIRD	129	n/a	n/a	1	0.57763671875	0.412841796875	1	upper	zerothre.ttf
1042397	WORD	wordpools/wasnorm_wordpool_less_exclusions.txt	LTP241	ltpFR	2	7	1	PICKLE	1059	n/a	n/a	0	0.57763671875	0.412841796875	1	upper	zerothre.ttf
1046408	WORD	wordpools/wasnorm_wordpool_less_exclusions.txt	LTP241	ltpFR	2	7	1	MUSHROOM	934	n/a	n/a	0	0.57763671875	0.412841796875	1	upper	zerothre.ttf
1052366	REC_START	n/a	LTP241	ltpFR	2	7	n/a	n/a	n/a	n/a	n/a	n/a	n/a	n/a	n/a	n/a	n/a
1053224	REC_WORD	wordpools/wasnorm_wordpool_less_exclusions.txt	LTP241	ltpFR	2	7	1	PICKLE	1059	n/a	n/a	0	n/a	n/a	n/a	n/a	n/a
1054027	REC_WORD	wordpools/wasnorm_wordpool_less_exclusions.txt	LTP241	ltpFR	2	7	1	MUSHROOM	934	n/a	n/a	0	n/a	n/a	n/a	n/a	n/a
1055139	REC_WORD	wordpools/wasnorm_wordpool_less_exclusions.txt	LTP241	ltpFR	2	7	1	BIRD	129	n/a	n/a	1	n/a	n/a	n/a	n/a	n/a
1057704	REC_WORD	wordpools/wasnorm_wordpool_less_exclusions.txt	LTP241	ltpFR	2	7	0	PAINTING	1005	n/a	n/a	1	n/a	n/a	n/a	n/a	n/a
1058706	REC_WORD	wordpools/wasnorm_wordpool_less_exclusions.txt	LTP241	ltpFR	2	7	0	RAM	1165	n/a	n/a	1	n/a	n/a	n/a	n/a	n/a
1059679	REC_WORD	wordpools/wasnorm_wordpool_less_exclusions.txt	LTP241	ltpFR	2	7	0	DEER	444	n/a	n/a	1	n/a	n/a	n/a	n/a	n/a
1060701	REC_WORD	wordpools/wasnorm_wordpool_less_exclusions.txt	LTP241	ltpFR	2	7	0	THUMB	1462	n/a	n/a	0	n/a	n/a	n/a	n/a	n/a
1076850	REC_WORD	wordpools/wasnorm_wordpool_less_exclusions.txt	LTP241	ltpFR	2	7	1	HONEY	713	n/a	n/a	0	n/a	n/a	n/a	n/a	n/a
1077813	REC_WORD	wordpools/wasnorm_wordpool_less_exclusions.txt	LTP241	ltpFR	2	7	1	BRIEFCASE	175	n/a	n/a	0	n/a	n/a	n/a	n/a	n/a
1079484	REC_WORD	wordpools/wasnorm_wordpool_less_exclusions.txt	LTP241	ltpFR	2	7	1	COACH	331	n/a	n/a	1	n/a	n/a	n/a	n/a	n/a
1087571	REC_WORD	wordpools/wasnorm_wordpool_less_exclusions.txt	LTP241	ltpFR	2	7	0	HORNET	718	n/a	n/a	0	n/a	n/a	n/a	n/a	n/a
1100521	REC_WORD	wordpools/wasnorm_wordpool_less_exclusions.txt	LTP241	ltpFR	2	7	1	CUFF	423	n/a	n/a	0	n/a	n/a	n/a	n/a	n/a
1105221	REC_WORD	wordpools/wasnorm_wordpool_less_exclusions.txt	LTP241	ltpFR	2	7	1	PICKLE	1059	n/a	n/a	0	n/a	n/a	n/a	n/a	n/a
1142546	WORD	wordpools/wasnorm_wordpool_less_exclusions.txt	LTP241	ltpFR	2	8	-1	GLOVE	642	n/a	n/a	-1	1.0	1.0	1	upper	Verdana.ttf
1146491	WORD	wordpools/wasnorm_wordpool_less_exclusions.txt	LTP241	ltpFR	2	8	-1	MOLECULE	905	n/a	n/a	-1	1.0	1.0	1	upper	Verdana.ttf
1150419	WORD	wordpools/wasnorm_wordpool_less_exclusions.txt	LTP241	ltpFR	2	8	-1	SHOWER	1296	n/a	n/a	-1	1.0	1.0	1	upper	Verdana.ttf
1154296	WORD	wordpools/wasnorm_wordpool_less_exclusions.txt	LTP241	ltpFR	2	8	-1	HOOD	714	n/a	n/a	-1	1.0	1.0	1	upper	Verdana.ttf
1158124	WORD	wordpools/wasnorm_wordpool_less_exclusions.txt	LTP241	ltpFR	2	8	-1	TAXI	1438	n/a	n/a	-1	1.0	1.0	1	upper	Verdana.ttf
1162085	WORD	wordpools/wasnorm_wordpool_less_exclusions.txt	LTP241	ltpFR	2	8	-1	ELBOW	520	n/a	n/a	-1	1.0	1.0	1	upper	Verdana.ttf
1166195	WORD	wordpools/wasnorm_wordpool_less_exclusions.txt	LTP241	ltpFR	2	8	-1	FIN	566	n/a	n/a	-1	1.0	1.0	1	upper	Verdana.ttf
1170123	WORD	wordpools/wasnorm_wordpool_less_exclusions.txt	LTP241	ltpFR	2	8	-1	ISLAND	745	n/a	n/a	-1	1.0	1.0	1	upper	Verdana.ttf
1174200	WORD	wordpools/wasnorm_wordpool_less_exclusions.txt	LTP241	ltpFR	2	8	-1	RADIATOR	1156	n/a	n/a	-1	1.0	1.0	1	upper	Verdana.ttf
1178410	WORD	wordpools/wasnorm_wordpool_less_exclusions.txt	LTP241	ltpFR	2	8	-1	GALLON	618	n/a	n/a	-1	1.0	1.0	1	upper	Verdana.ttf
1182570	WORD	wordpools/wasnorm_wordpool_less_exclusions.txt	LTP241	ltpFR	2	8	-1	SNORKEL	1336	n/a	n/a	-1	1.0	1.0	1	upper	Verdana.ttf
1186597	WORD	wordpools/wasnorm_wordpool_less_exclusions.txt	LTP241	ltpFR	2	8	-1	MAMMAL	861	n/a	n/a	-1	1.0	1.0	1	upper	Verdana.ttf
1190741	WORD	wordpools/wasnorm_wordpool_less_exclusions.txt	LTP241	ltpFR	2	8	-1	LADY	794	n/a	n/a	-1	1.0	1.0	1	upper	Verdana.ttf
1194951	WORD	wordpools/wasnorm_wordpool_less_exclusions.txt	LTP241	ltpFR	2	8	-1	DETECTIVE	454	n/a	n/a	-1	1.0	1.0	1	upper	Verdana.ttf
1199129	WORD	wordpools/wasnorm_wordpool_less_exclusions.txt	LTP241	ltpFR	2	8	-1	PATROL	1027	n/a	n/a	-1	1.0	1.0	1	upper	Verdana.ttf
1203207	WORD	wordpools/wasnorm_wordpool_less_exclusions.txt	LTP241	ltpFR	2	8	-1	SHOULDER	1294	n/a	n/a	-1	1.0	1.0	1	upper	Verdana.ttf
1208898	REC_START	n/a	LTP241	ltpFR	2	8	n/a	n/a	n/a	n/a	n/a	n/a	n/a	n/a	n/a	n/a	n/a
1209751	REC_WORD	wordpools/wasnorm_wordpool_less_exclusions.txt	LTP241	ltpFR	2	8	-1	LADY	794	n/a	n/a	-1	n/a	n/a	n/a	n/a	n/a
1210444	REC_WORD	wordpools/wasnorm_wordpool_less_exclusions.txt	LTP241	ltpFR	2	8	-1	DETECTIVE	454	n/a	n/a	-1	n/a	n/a	n/a	n/a	n/a
1211382	REC_WORD	wordpools/wasnorm_wordpool_less_exclusions.txt	LTP241	ltpFR	2	8	-1	PATROL	1027	n/a	n/a	-1	n/a	n/a	n/a	n/a	n/a
1212270	REC_WORD	wordpools/wasnorm_wordpool_less_exclusions.txt	LTP241	ltpFR	2	8	n/a	SOLDIER	1344	n/a	n/a	n/a	n/a	n/a	n/a	n/a	n/a
1213946	REC_WORD	wordpools/wasnorm_wordpool_less_exclusions.txt	LTP241	ltpFR	2	8	-1	ISLAND	745	n/a	n/a	-1	n/a	n/a	n/a	n/a	n/a
1215941	REC_WORD	wordpools/wasnorm_wordpool_less_exclusions.txt	LTP241	ltpFR	2	8	-1	FIN	566	n/a	n/a	-1	n/a	n/a	n/a	n/a	n/a
1217473	REC_WORD	wordpools/wasnorm_wordpool_less_exclusions.txt	LTP241	ltpFR	2	8	-1	SHOWER	1296	n/a	n/a	-1	n/a	n/a	n/a	n/a	n/a
1220017	REC_WORD	wordpools/wasnorm_wordpool_less_exclusions.txt	LTP241	ltpFR	2	8	-1	HOOD	714	n/a	n/a	-1	n/a	n/a	n/a	n/a	n/a
1231905	REC_WORD	wordpools/wasnorm_wordpool_less_exclusions.txt	LTP241	ltpFR	2	8	-1	MAMMAL	861	n/a	n/a	-1	n/a	n/a	n/a	n/a	n/a
1241075	REC_WORD	wordpools/wasnorm_wordpool_less_exclusions.txt	LTP241	ltpFR	2	8	-1	MOLECULE	905	n/a	n/a	-1	n/a	n/a	n/a	n/a	n/a
1243549	REC_WORD	wordpools/wasnorm_wordpool_less_exclusions.txt	LTP241	ltpFR	2	8	n/a	GALAXY	617	n/a	n/a	n/a	n/a	n/a	n/a	n/a	n/a
1299280	WORD	wordpools/wasnorm_wordpool_less_exclusions.txt	LTP241	ltpFR	2	9	-1	SUITE	1404	n/a	n/a	-1	1.0	1.0	1	upper	Verdana.ttf
1303224	WORD	wordpools/wasnorm_wordpool_less_exclusions.txt	LTP241	ltpFR	2	9	-1	MOTEL	919	n/a	n/a	-1	1.0	1.0	1	upper	Verdana.ttf
1307052	WORD	wordpools/wasnorm_wordpool_less_exclusions.txt	LTP241	ltpFR	2	9	-1	LOBSTER	837	n/a	n/a	-1	1.0	1.0	1	upper	Verdana.ttf
1311262	WORD	wordpools/wasnorm_wordpool_less_exclusions.txt	LTP241	ltpFR	2	9	-1	OCTOPUS	971	n/a	n/a	-1	1.0	1.0	1	upper	Verdana.ttf
1315439	WORD	wordpools/wasnorm_wordpool_less_exclusions.txt	LTP241	ltpFR	2	9	-1	BATTERY	101	n/a	n/a	-1	1.0	1.0	1	upper	Verdana.ttf
1319400	WORD	wordpools/wasnorm_wordpool_less_exclusions.txt	LTP241	ltpFR	2	9	-1	SANDWICH	1232	n/a	n/a	-1	1.0	1.0	1	upper	Verdana.ttf
1323444	WORD	wordpools/wasnorm_wordpool_less_exclusions.txt	LTP241	ltpFR	2	9	-1	FACTORY	548	n/a	n/a	-1	1.0	1.0	1	upper	Verdana.ttf
1327553	WORD	wordpools/wasnorm_wordpool_less_exclusions.txt	LTP241	ltpFR	2	9	-1	STAFF	1365	n/a	n/a	-1	1.0	1.0	1	upper	Verdana.ttf
1331531	WORD	wordpools/wasnorm_wordpool_less_exclusions.txt	LTP241	ltpFR	2	9	-1	VALVE	1546	n/a	n/a	-1	1.0	1.0	1	upper	Verdana.ttf
1335359	WORD	wordpools/wasnorm_wordpool_less_exclusions.txt	LTP241	ltpFR	2	9	-1	OWNER	993	n/a	n/a	-1	1.0	1.0	1	upper	Verdana.ttf
1339519	WORD	wordpools/wasnorm_wordpool_less_exclusions.txt	LTP241	ltpFR	2	9	-1	PRUNE	1134	n/a	n/a	-1	1.0	1.0	1	upper	Verdana.ttf
1343397	WORD	wordpools/wasnorm_wordpool_less_exclusions.txt	LTP241	ltpFR	2	9	-1	DILL	465	n/a	n/a	-1	1.0	1.0	1	upper	Verdana.ttf
1347524	WORD	wordpools/wasnorm_wordpool_less_exclusions.txt	LTP241	ltpFR	2	9	-1	OFFICE	972	n/a	n/a	-1	1.0	1.0	1	upper	Verdana.ttf
1351751	WORD	wordpools/wasnorm_wordpool_less_exclusions.txt	LTP241	ltpFR	2	9	-1	LOUNGE	845	n/a	n/a	-1	1.0	1.0	1	upper	Verdana.ttf
1355678	WORD	wordpools/wasnorm_wordpool_less_exclusions.txt	LTP241	ltpFR	2	9	-1	SCALPEL	1243	n/a	n/a	-1	1.0	1.0	1	upper	Verdana.ttf
1359839	WORD	wordpools/wasnorm_wordpool_less_exclusions.txt	LTP241	ltpFR	2	9	-1	FOREST	593	n/a	n/a	-1	1.0	1.0	1	upper	Verdana.ttf
1365897	REC_START	n/a	LTP241	ltpFR	2	9	n/a	n/a	n/a	n/a	n/a	n/a	n/a	n/a	n/a	n/a	n/a
1366485	REC_WORD	wordpools/wasnorm_wordpool_less_exclusions.txt	LTP241	ltpFR	2	9	-1	SCALPEL	1243	n/a	n/a	-1	n/a	n/a	n/a	n/a	n/a
1367627	REC_WORD	wordpools/wasnorm_wordpool_less_exclusions.txt	LTP241	ltpFR	2	9	-1	FOREST	593	n/a	n/a	-1	n/a	n/a	n/a	n/a	n/a
1370421	REC_WORD	wordpools/wasnorm_wordpool_less_exclusions.txt	LTP241	ltpFR	2	9	-1	MOTEL	919	n/a	n/a	-1	n/a	n/a	n/a	n/a	n/a
1371644	REC_WORD	wordpools/wasnorm_wordpool_less_exclusions.txt	LTP241	ltpFR	2	9	-1	SUITE	1404	n/a	n/a	-1	n/a	n/a	n/a	n/a	n/a
1374243	REC_WORD	wordpools/wasnorm_wordpool_less_exclusions.txt	LTP241	ltpFR	2	9	-1	LOBSTER	837	n/a	n/a	-1	n/a	n/a	n/a	n/a	n/a
1375340	REC_WORD_VV	wordpools/wasnorm_wordpool_less_exclusions.txt	LTP241	ltpFR	2	9	n/a	<>	-1	n/a	n/a	n/a	n/a	n/a	n/a	n/a	n/a
1376273	REC_WORD	wordpools/wasnorm_wordpool_less_exclusions.txt	LTP241	ltpFR	2	9	-1	OCTOPUS	971	n/a	n/a	-1	n/a	n/a	n/a	n/a	n/a
1378049	REC_WORD	wordpools/wasnorm_wordpool_less_exclusions.txt	LTP241	ltpFR	2	9	-1	SANDWICH	1232	n/a	n/a	-1	n/a	n/a	n/a	n/a	n/a
1380114	REC_WORD	wordpools/wasnorm_wordpool_less_exclusions.txt	LTP241	ltpFR	2	9	-1	DILL	465	n/a	n/a	-1	n/a	n/a	n/a	n/a	n/a
1381771	REC_WORD	wordpools/wasnorm_wordpool_less_exclusions.txt	LTP241	ltpFR	2	9	-1	OWNER	993	n/a	n/a	-1	n/a	n/a	n/a	n/a	n/a
1382963	REC_WORD	wordpools/wasnorm_wordpool_less_exclusions.txt	LTP241	ltpFR	2	9	-1	OFFICE	972	n/a	n/a	-1	n/a	n/a	n/a	n/a	n/a
1388640	REC_WORD	wordpools/wasnorm_wordpool_less_exclusions.txt	LTP241	ltpFR	2	9	-1	LOUNGE	845	n/a	n/a	-1	n/a	n/a	n/a	n/a	n/a
1414267	REC_WORD	wordpools/wasnorm_wordpool_less_exclusions.txt	LTP241	ltpFR	2	9	-1	BATTERY	101	n/a	n/a	-1	n/a	n/a	n/a	n/a	n/a
1459739	WORD	wordpools/wasnorm_wordpool_less_exclusions.txt	LTP241	ltpFR	2	10	0	SAND	1230	n/a	n/a	1	0.422607421875	0.5869140625	0	lower	amplitud.ttf
1463584	WORD	wordpools/wasnorm_wordpool_less_exclusions.txt	LTP241	ltpFR	2	10	0	RUST	1219	n/a	n/a	0	0.422607421875	0.5869140625	0	lower	amplitud.ttf
1467611	WORD	wordpools/wasnorm_wordpool_less_exclusions.txt	LTP241	ltpFR	2	10	0	GARAGE	621	n/a	n/a	1	0.422607421875	0.5869140625	0	lower	amplitud.ttf
1471655	WORD	wordpools/wasnorm_wordpool_less_exclusions.txt	LTP241	ltpFR	2	10	0	ACORN	3	n/a	n/a	0	0.422607421875	0.5869140625	0	lower	amplitud.ttf
1475566	WORD	wordpools/wasnorm_wordpool_less_exclusions.txt	LTP241	ltpFR	2	10	0	TICK	1463	n/a	n/a	0	0.422607421875	0.5869140625	0	lower	amplitud.ttf
1479494	WORD	wordpools/wasnorm_wordpool_less_exclusions.txt	LTP241	ltpFR	2	10	0	TAPE	1433	n/a	n/a	0	0.422607421875	0.5869140625	0	lower	amplitud.ttf
1483388	WORD	wordpools/wasnorm_wordpool_less_exclusions.txt	LTP241	ltpFR	2	10	0	SEAGULL	1261	n/a	n/a	0	0.422607421875	0.5869140625	0	lower	amplitud.ttf
1487266	WORD	wordpools/wasnorm_wordpool_less_exclusions.txt	LTP241	ltpFR	2	10	0	BOTTLE	153	n/a	n/a	1	0.422607421875	0.5869140625	0	lower	amplitud.ttf
1491260	WORD	wordpools/wasnorm_wordpool_less_exclusions.txt	LTP241	ltpFR	2	10	0	WINE	1613	n/a	n/a	0	0.422607421875	0.5869140625	0	lower	amplitud.ttf
1495354	WORD	wordpools/wasnorm_wordpool_less_exclusions.txt	LTP241	ltpFR	2	10	0	ROOT	1210	n/a	n/a	0	0.422607421875	0.5869140625	0	lower	amplitud.ttf
1499497	WORD	wordpools/wasnorm_wordpool_less_exclusions.txt	LTP241	ltpFR	2	10	0	GROOM	665	n/a	n/a	1	0.422607421875	0.5869140625	0	lower	amplitud.ttf
1503475	WORD	wordpools/wasnorm_wordpool_less_exclusions.txt	LTP241	ltpFR	2	10	0	SHRUB	1299	n/a	n/a	0	0.422607421875	0.5869140625	0	lower	amplitud.ttf
1507469	WORD	wordpools/wasnorm_wordpool_less_exclusions.txt	LTP241	ltpFR	2	10	0	RADIO	1157	n/a	n/a	0	0.422607421875	0.5869140625	0	lower	amplitud.ttf
1511628	WORD	wordpools/wasnorm_wordpool_less_exclusions.txt	LTP241	ltpFR	2	10	0	UMPIRE	1535	n/a	n/a	1	0.422607421875	0.5869140625	0	lower	amplitud.ttf
1515772	WORD	wordpools/wasnorm_wordpool_less_exclusions.txt	LTP241	ltpFR	2	10	0	CABINET	212	n/a	n/a	1	0.422607421875	0.5869140625	0	lower	amplitud.ttf
1519750	WORD	wordpools/wasnorm_wordpool_less_exclusions.txt	LTP241	ltpFR	2	10	0	LUMBER	848	n/a	n/a	1	0.422607421875	0.5869140625	0	lower	amplitud.ttf
1525642	REC_START	n/a	LTP241	ltpFR	2	10	n/a	n/a	n/a	n/a	n/a	n/a	n/a	n/a	n/a	n/a	n/a
1526310	REC_WORD	wordpools/wasnorm_wordpool_less_exclusions.txt	LTP241	ltpFR	2	10	0	CABINET	212	n/a	n/a	1	n/a	n/a	n/a	n/a	n/a
1527263	REC_WORD	wordpools/wasnorm_wordpool_less_exclusions.txt	LTP241	ltpFR	2	10	0	LUMBER	848	n/a	n/a	1	n/a	n/a	n/a	n/a	n/a
1528231	REC_WORD	wordpools/wasnorm_wordpool_less_exclusions.txt	LTP241	ltpFR	2	10	0	SAND	1230	n/a	n/a	1	n/a	n/a	n/a	n/a	n/a
1529453	REC_WORD	wordpools/wasnorm_wordpool_less_exclusions.txt	LTP241	ltpFR	2	10	n/a	DUST	508	n/a	n/a	n/a	n/a	n/a	n/a	n/a	n/a
1530371	REC_WORD	wordpools/wasnorm_wordpool_less_exclusions.txt	LTP241	ltpFR	2	10	0	GARAGE	621	n/a	n/a	1	n/a	n/a	n/a	n/a	n/a
1532536	REC_WORD	wordpools/wasnorm_wordpool_less_exclusions.txt	LTP241	ltpFR	2	10	0	TICK	1463	n/a	n/a	0	n/a	n/a	n/a	n/a	n/a
1533489	REC_WORD	wordpools/wasnorm_wordpool_less_exclusions.txt	LTP241	ltpFR	2	10	0	TAPE	1433	n/a	n/a	0	n/a	n/a	n/a	n/a	n/a
1534537	REC_WORD	wordpools/wasnorm_wordpool_less_exclusions.txt	LTP241	ltpFR	2	10	0	ACORN	3	n/a	n/a	0	n/a	n/a	n/a	n/a	n/a
1539276	REC_WORD	wordpools/wasnorm_wordpool_less_exclusions.txt	LTP241	ltpFR	2	10	0	UMPIRE	1535	n/a	n/a	1	n/a	n/a	n/a	n/a	n/a
1540313	REC_WORD	wordpools/wasnorm_wordpool_less_exclusions.txt	LTP241	ltpFR	2	10	0	RADIO	1157	n/a	n/a	0	n/a	n/a	n/a	n/a	n/a
1541985	REC_WORD	wordpools/wasnorm_wordpool_less_exclusions.txt	LTP241	ltpFR	2	10	0	GROOM	665	n/a	n/a	1	n/a	n/a	n/a	n/a	n/a
1543192	REC_WORD	wordpools/wasnorm_wordpool_less_exclusions.txt	LTP241	ltpFR	2	10	0	BOTTLE	153	n/a	n/a	1	n/a	n/a	n/a	n/a	n/a
1544165	REC_WORD	wordpools/wasnorm_wordpool_less_exclusions.txt	LTP241	ltpFR	2	10	0	WINE	1613	n/a	n/a	0	n/a	n/a	n/a	n/a	n/a
1546155	REC_WORD	wordpools/wasnorm_wordpool_less_exclusions.txt	LTP241	ltpFR	2	10	0	SEAGULL	1261	n/a	n/a	0	n/a	n/a	n/a	n/a	n/a
1549019	REC_WORD	wordpools/wasnorm_wordpool_less_exclusions.txt	LTP241	ltpFR	2	10	0	SHRUB	1299	n/a	n/a	0	n/a	n/a	n/a	n/a	n/a
1614808	WORD	wordpools/wasnorm_wordpool_less_exclusions.txt	LTP241	ltpFR	2	11	0	SWORD	1423	n/a	n/a	1	0.422607421875	0.5869140625	0	lower	amplitud.ttf
1618985	WORD	wordpools/wasnorm_wordpool_less_exclusions.txt	LTP241	ltpFR	2	11	0	WIRE	1616	n/a	n/a	1	0.422607421875	0.5869140625	0	lower	amplitud.ttf
1622962	WORD	wordpools/wasnorm_wordpool_less_exclusions.txt	LTP241	ltpFR	2	11	0	MARBLE	867	n/a	n/a	0	0.422607421875	0.5869140625	0	lower	amplitud.ttf
1627157	WORD	wordpools/wasnorm_wordpool_less_exclusions.txt	LTP241	ltpFR	2	11	0	JAM	748	n/a	n/a	0	0.422607421875	0.5869140625	0	lower	amplitud.ttf
1631367	WORD	wordpools/wasnorm_wordpool_less_exclusions.txt	LTP241	ltpFR	2	11	1	SHERIFF	1284	n/a	n/a	1	0.57763671875	0.412841796875	1	upper	zerothre.ttf
1635195	WORD	wordpools/wasnorm_wordpool_less_exclusions.txt	LTP241	ltpFR	2	11	1	FORK	594	n/a	n/a	0	0.57763671875	0.412841796875	1	upper	zerothre.ttf
1639038	WORD	wordpools/wasnorm_wordpool_less_exclusions.txt	LTP241	ltpFR	2	11	1	DANCER	437	n/a	n/a	1	0.57763671875	0.412841796875	1	upper	zerothre.ttf
1643166	WORD	wordpools/wasnorm_wordpool_less_exclusions.txt	LTP241	ltpFR	2	11	1	DAISY	435	n/a	n/a	1	0.57763671875	0.412841796875	1	upper	zerothre.ttf
1647010	WORD	wordpools/wasnorm_wordpool_less_exclusions.txt	LTP241	ltpFR	2	11	0	LILY	821	n/a	n/a	0	0.422607421875	0.5869140625	0	lower	amplitud.ttf
1650904	WORD	wordpools/wasnorm_wordpool_less_exclusions.txt	LTP241	ltpFR	2	11	0	MICROPHONE	890	n/a	n/a	0	0.422607421875	0.5869140625	0	lower	amplitud.ttf
1654898	WORD	wordpools/wasnorm_wordpool_less_exclusions.txt	LTP241	ltpFR	2	11	1	DRESS	495	n/a	n/a	0	0.57763671875	0.412841796875	1	upper	zerothre.ttf
1658958	WORD	wordpools/wasnorm_wordpool_less_exclusions.txt	LTP241	ltpFR	2	11	1	UNIFORM	1539	n/a	n/a	0	0.57763671875	0.412841796875	1	upper	zerothre.ttf
1662919	WORD	wordpools/wasnorm_wordpool_less_exclusions.txt	LTP241	ltpFR	2	11	1	PLANT	1083	n/a	n/a	1	0.57763671875	0.412841796875	1	upper	zerothre.ttf
1667030	WORD	wordpools/wasnorm_wordpool_less_exclusions.txt	LTP241	ltpFR	2	11	1	ROSE	1212	n/a	n/a	1	0.57763671875	0.412841796875	1	upper	zerothre.ttf
1670924	WORD	wordpools/wasnorm_wordpool_less_exclusions.txt	LTP241	ltpFR	2	11	0	SPY	1360	n/a	n/a	1	0.422607421875	0.5869140625	0	lower	amplitud.ttf
1675135	WORD	wordpools/wasnorm_wordpool_less_exclusions.txt	LTP241	ltpFR	2	11	0	STOMACH	1384	n/a	n/a	1	0.422607421875	0.5869140625	0	lower	amplitud.ttf
1680959	REC_START	n/a	LTP241	ltpFR	2	11	n/a	n/a	n/a	n/a	n/a	n/a	n/a	n/a	n/a	n/a	n/a
1681806	REC_WORD	wordpools/wasnorm_wordpool_less_exclusions.txt	LTP241	ltpFR	2	11	0	SPY	1360	n/a	n/a	1	n/a	n/a	n/a	n/a	n/a
1682749	REC_WORD	wordpools/wasnorm_wordpool_less_exclusions.txt	LTP241	ltpFR	2	11	0	STOMACH	1384	n/a	n/a	1	n/a	n/a	n/a	n/a	n/a
1686546	REC_WORD	wordpools/wasnorm_wordpool_less_exclusions.txt	LTP241	ltpFR	2	11	0	SWORD	1423	n/a	n/a	1	n/a	n/a	n/a	n/a	n/a
1687559	REC_WORD	wordpools/wasnorm_wordpool_less_exclusions.txt	LTP241	ltpFR	2	11	0	MARBLE	867	n/a	n/a	0	n/a	n/a	n/a	n/a	n/a
1688596	REC_WORD	wordpools/wasnorm_wordpool_less_exclusions.txt	LTP241	ltpFR	2	11	0	JAM	748	n/a	n/a	0	n/a	n/a	n/a	n/a	n/a
1693984	REC_WORD	wordpools/wasnorm_wordpool_less_exclusions.txt	LTP241	ltpFR	2	11	0	SPY	1360	n/a	n/a	1	n/a	n/a	n/a	n/a	n/a
1698848	REC_WORD	wordpools/wasnorm_wordpool_less_exclusions.txt	LTP241	ltpFR	2	11	1	DAISY	435	n/a	n/a	1	n/a	n/a	n/a	n/a	n/a
1699791	REC_WORD	wordpools/wasnorm_wordpool_less_exclusions.txt	LTP241	ltpFR	2	11	0	LILY	821	n/a	n/a	0	n/a	n/a	n/a	n/a	n/a
1700734	REC_WORD	wordpools/wasnorm_wordpool_less_exclusions.txt	LTP241	ltpFR	2	11	1	PLANT	1083	n/a	n/a	1	n/a	n/a	n/a	n/a	n/a
1701707	REC_WORD	wordpools/wasnorm_wordpool_less_exclusions.txt	LTP241	ltpFR	2	11	1	ROSE	1212	n/a	n/a	1	n/a	n/a	n/a	n/a	n/a
1708047	REC_WORD	wordpools/wasnorm_wordpool_less_exclusions.txt	LTP241	ltpFR	2	11	1	SHERIFF	1284	n/a	n/a	1	n/a	n/a	n/a	n/a	n/a
1711000	REC_WORD	wordpools/wasnorm_wordpool_less_exclusions.txt	LTP241	ltpFR	2	11	1	FORK	594	n/a	n/a	0	n/a	n/a	n/a	n/a	n/a
1715316	REC_WORD	wordpools/wasnorm_wordpool_less_exclusions.txt	LTP241	ltpFR	2	11	1	DRESS	495	n/a	n/a	0	n/a	n/a	n/a	n/a	n/a
1717281	REC_WORD	wordpools/wasnorm_wordpool_less_exclusions.txt	LTP241	ltpFR	2	11	1	UNIFORM	1539	n/a	n/a	0	n/a	n/a	n/a	n/a	n/a
1764385	WORD	wordpools/wasnorm_wordpool_less_exclusions.txt	LTP241	ltpFR	2	12	0	TEAPOT	1442	n/a	n/a	0	0.422607421875	0.5869140625	0	lower	amplitud.ttf
1768329	WORD	wordpools/wasnorm_wordpool_less_exclusions.txt	LTP241	ltpFR	2	12	0	KETTLE	772	n/a	n/a	1	0.422607421875	0.5869140625	0	lower	amplitud.ttf
1772440	WORD	wordpools/wasnorm_wordpool_less_exclusions.txt	LTP241	ltpFR	2	12	1	ROBIN	1199	n/a	n/a	1	0.57763671875	0.412841796875	1	upper	zerothre.ttf
1776566	WORD	wordpools/wasnorm_wordpool_less_exclusions.txt	LTP241	ltpFR	2	12	1	ROOSTER	1209	n/a	n/a	1	0.57763671875	0.412841796875	1	upper	zerothre.ttf
1780445	WORD	wordpools/wasnorm_wordpool_less_exclusions.txt	LTP241	ltpFR	2	12	1	SECRETARY	1265	n/a	n/a	1	0.57763671875	0.412841796875	1	upper	zerothre.ttf
1784356	WORD	wordpools/wasnorm_wordpool_less_exclusions.txt	LTP241	ltpFR	2	12	0	TRAY	1498	n/a	n/a	0	0.422607421875	0.5869140625	0	lower	amplitud.ttf
1788366	WORD	wordpools/wasnorm_wordpool_less_exclusions.txt	LTP241	ltpFR	2	12	0	EMPLOYEE	531	n/a	n/a	1	0.422607421875	0.5869140625	0	lower	amplitud.ttf
1792210	WORD	wordpools/wasnorm_wordpool_less_exclusions.txt	LTP241	ltpFR	2	12	0	KEEPER	769	n/a	n/a	1	0.422607421875	0.5869140625	0	lower	amplitud.ttf
1796138	WORD	wordpools/wasnorm_wordpool_less_exclusions.txt	LTP241	ltpFR	2	12	0	GROCERIES	663	n/a	n/a	1	0.422607421875	0.5869140625	0	lower	amplitud.ttf
1800031	WORD	wordpools/wasnorm_wordpool_less_exclusions.txt	LTP241	ltpFR	2	12	0	DICTIONARY	463	n/a	n/a	1	0.422607421875	0.5869140625	0	lower	amplitud.ttf
1803925	WORD	wordpools/wasnorm_wordpool_less_exclusions.txt	LTP241	ltpFR	2	12	0	STORE	1387	n/a	n/a	1	0.422607421875	0.5869140625	0	lower	amplitud.ttf
1807903	WORD	wordpools/wasnorm_wordpool_less_exclusions.txt	LTP241	ltpFR	2	12	1	CART	250	n/a	n/a	0	0.57763671875	0.412841796875	1	upper	zerothre.ttf
1812114	WORD	wordpools/wasnorm_wordpool_less_exclusions.txt	LTP241	ltpFR	2	12	1	HAY	693	n/a	n/a	0	0.57763671875	0.412841796875	1	upper	zerothre.ttf
1816007	WORD	wordpools/wasnorm_wordpool_less_exclusions.txt	LTP241	ltpFR	2	12	1	STRAWBERRY	1391	n/a	n/a	0	0.57763671875	0.412841796875	1	upper	zerothre.ttf
1819868	WORD	wordpools/wasnorm_wordpool_less_exclusions.txt	LTP241	ltpFR	2	12	1	COLLAR	345	n/a	n/a	0	0.57763671875	0.412841796875	1	upper	zerothre.ttf
1823762	WORD	wordpools/wasnorm_wordpool_less_exclusions.txt	LTP241	ltpFR	2	12	1	SHACK	1273	n/a	n/a	0	0.57763671875	0.412841796875	1	upper	zerothre.ttf
1829538	REC_START	n/a	LTP241	ltpFR	2	12	n/a	n/a	n/a	n/a	n/a	n/a	n/a	n/a	n/a	n/a	n/a
1830336	REC_WORD	wordpools/wasnorm_wordpool_less_exclusions.txt	LTP241	ltpFR	2	12	1	SHACK	1273	n/a	n/a	0	n/a	n/a	n/a	n/a	n/a
1831871	REC_WORD	wordpools/wasnorm_wordpool_less_exclusions.txt	LTP241	ltpFR	2	12	1	SECRETARY	1265	n/a	n/a	1	n/a	n/a	n/a	n/a	n/a
1834008	REC_WORD	wordpools/wasnorm_wordpool_less_exclusions.txt	LTP241	ltpFR	2	12	1	ROOSTER	1209	n/a	n/a	1	n/a	n/a	n/a	n/a	n/a
1836921	REC_WORD	wordpools/wasnorm_wordpool_less_exclusions.txt	LTP241	ltpFR	2	12	0	KETTLE	772	n/a	n/a	1	n/a	n/a	n/a	n/a	n/a
1838757	REC_WORD	wordpools/wasnorm_wordpool_less_exclusions.txt	LTP241	ltpFR	2	12	0	TEAPOT	1442	n/a	n/a	0	n/a	n/a	n/a	n/a	n/a
1846504	REC_WORD	wordpools/wasnorm_wordpool_less_exclusions.txt	LTP241	ltpFR	2	12	0	STORE	1387	n/a	n/a	1	n/a	n/a	n/a	n/a	n/a
1847801	REC_WORD	wordpools/wasnorm_wordpool_less_exclusions.txt	LTP241	ltpFR	2	12	1	STRAWBERRY	1391	n/a	n/a	0	n/a	n/a	n/a	n/a	n/a
1849642	REC_WORD	wordpools/wasnorm_wordpool_less_exclusions.txt	LTP241	ltpFR	2	12	1	HAY	693	n/a	n/a	0	n/a	n/a	n/a	n/a	n/a
1863186	REC_WORD	wordpools/wasnorm_wordpool_less_exclusions.txt	LTP241	ltpFR	2	12	0	DICTIONARY	463	n/a	n/a	1	n/a	n/a	n/a	n/a	n/a
1867521	REC_WORD	wordpools/wasnorm_wordpool_less_exclusions.txt	LTP241	ltpFR	2	12	1	ROBIN	1199	n/a	n/a	1	n/a	n/a	n/a	n/a	n/a
1872316	REC_WORD	wordpools/wasnorm_wordpool_less_exclusions.txt	LTP241	ltpFR	2	12	0	TRAY	1498	n/a	n/a	0	n/a	n/a	n/a	n/a	n/a
1878780	REC_WORD	wordpools/wasnorm_wordpool_less_exclusions.txt	LTP241	ltpFR	2	12	0	EMPLOYEE	531	n/a	n/a	1	n/a	n/a	n/a	n/a	n/a
1888040	REC_WORD	wordpools/wasnorm_wordpool_less_exclusions.txt	LTP241	ltpFR	2	12	1	CART	250	n/a	n/a	0	n/a	n/a	n/a	n/a	n/a
1894844	REC_WORD	wordpools/wasnorm_wordpool_less_exclusions.txt	LTP241	ltpFR	2	12	0	GROCERIES	663	n/a	n/a	1	n/a	n/a	n/a	n/a	n/a
1905142	REST_REWET	n/a	LTP241	ltpFR	2	12	n/a	n/a	n/a	n/a	n/a	n/a	n/a	n/a	n/a	n/a	n/a
2273873	WORD	wordpools/wasnorm_wordpool_less_exclusions.txt	LTP241	ltpFR	2	13	-1	FOOT	590	n/a	n/a	-1	1.0	1.0	1	upper	Verdana.ttf
2277917	WORD	wordpools/wasnorm_wordpool_less_exclusions.txt	LTP241	ltpFR	2	13	-1	SOCK	1339	n/a	n/a	-1	1.0	1.0	1	upper	Verdana.ttf
2282095	WORD	wordpools/wasnorm_wordpool_less_exclusions.txt	LTP241	ltpFR	2	13	-1	TAR	1435	n/a	n/a	-1	1.0	1.0	1	upper	Verdana.ttf
2286073	WORD	wordpools/wasnorm_wordpool_less_exclusions.txt	LTP241	ltpFR	2	13	-1	ACTOR	5	n/a	n/a	-1	1.0	1.0	1	upper	Verdana.ttf
2289983	WORD	wordpools/wasnorm_wordpool_less_exclusions.txt	LTP241	ltpFR	2	13	-1	CAULIFLOWER	262	n/a	n/a	-1	1.0	1.0	1	upper	Verdana.ttf
2293877	WORD	wordpools/wasnorm_wordpool_less_exclusions.txt	LTP241	ltpFR	2	13	-1	WAX	1597	n/a	n/a	-1	1.0	1.0	1	upper	Verdana.ttf
2298021	WORD	wordpools/wasnorm_wordpool_less_exclusions.txt	LTP241	ltpFR	2	13	-1	HOOK	715	n/a	n/a	-1	1.0	1.0	1	upper	Verdana.ttf
2302049	WORD	wordpools/wasnorm_wordpool_less_exclusions.txt	LTP241	ltpFR	2	13	-1	LIME	823	n/a	n/a	-1	1.0	1.0	1	upper	Verdana.ttf
2306243	WORD	wordpools/wasnorm_wordpool_less_exclusions.txt	LTP241	ltpFR	2	13	-1	SHEET	1279	n/a	n/a	-1	1.0	1.0	1	upper	Verdana.ttf
2310370	WORD	wordpools/wasnorm_wordpool_less_exclusions.txt	LTP241	ltpFR	2	13	-1	MARKER	870	n/a	n/a	-1	1.0	1.0	1	upper	Verdana.ttf
2314529	WORD	wordpools/wasnorm_wordpool_less_exclusions.txt	LTP241	ltpFR	2	13	-1	SCOUT	1252	n/a	n/a	-1	1.0	1.0	1	upper	Verdana.ttf
2318723	WORD	wordpools/wasnorm_wordpool_less_exclusions.txt	LTP241	ltpFR	2	13	-1	CUCUMBER	421	n/a	n/a	-1	1.0	1.0	1	upper	Verdana.ttf
2322917	WORD	wordpools/wasnorm_wordpool_less_exclusions.txt	LTP241	ltpFR	2	13	-1	PRIMATE	1123	n/a	n/a	-1	1.0	1.0	1	upper	Verdana.ttf
2326794	WORD	wordpools/wasnorm_wordpool_less_exclusions.txt	LTP241	ltpFR	2	13	-1	ZOO	1637	n/a	n/a	-1	1.0	1.0	1	upper	Verdana.ttf
2330838	WORD	wordpools/wasnorm_wordpool_less_exclusions.txt	LTP241	ltpFR	2	13	-1	SUPERMARKET	1409	n/a	n/a	-1	1.0	1.0	1	upper	Verdana.ttf
2334999	WORD	wordpools/wasnorm_wordpool_less_exclusions.txt	LTP241	ltpFR	2	13	-1	SALMON	1227	n/a	n/a	-1	1.0	1.0	1	upper	Verdana.ttf
2340907	REC_START	n/a	LTP241	ltpFR	2	13	n/a	n/a	n/a	n/a	n/a	n/a	n/a	n/a	n/a	n/a	n/a
2341620	REC_WORD	wordpools/wasnorm_wordpool_less_exclusions.txt	LTP241	ltpFR	2	13	-1	SUPERMARKET	1409	n/a	n/a	-1	n/a	n/a	n/a	n/a	n/a
2342653	REC_WORD	wordpools/wasnorm_wordpool_less_exclusions.txt	LTP241	ltpFR	2	13	-1	SALMON	1227	n/a	n/a	-1	n/a	n/a	n/a	n/a	n/a
2343755	REC_WORD	wordpools/wasnorm_wordpool_less_exclusions.txt	LTP241	ltpFR	2	13	-1	FOOT	590	n/a	n/a	-1	n/a	n/a	n/a	n/a	n/a
2344878	REC_WORD	wordpools/wasnorm_wordpool_less_exclusions.txt	LTP241	ltpFR	2	13	-1	TAR	1435	n/a	n/a	-1	n/a	n/a	n/a	n/a	n/a
2345875	REC_WORD	wordpools/wasnorm_wordpool_less_exclusions.txt	LTP241	ltpFR	2	13	-1	ACTOR	5	n/a	n/a	-1	n/a	n/a	n/a	n/a	n/a
2346878	REC_WORD	wordpools/wasnorm_wordpool_less_exclusions.txt	LTP241	ltpFR	2	13	-1	HOOK	715	n/a	n/a	-1	n/a	n/a	n/a	n/a	n/a
2348051	REC_WORD	wordpools/wasnorm_wordpool_less_exclusions.txt	LTP241	ltpFR	2	13	-1	LIME	823	n/a	n/a	-1	n/a	n/a	n/a	n/a	n/a
2349078	REC_WORD	wordpools/wasnorm_wordpool_less_exclusions.txt	LTP241	ltpFR	2	13	-1	CUCUMBER	421	n/a	n/a	-1	n/a	n/a	n/a	n/a	n/a
2358542	REC_WORD	wordpools/wasnorm_wordpool_less_exclusions.txt	LTP241	ltpFR	2	13	-1	PRIMATE	1123	n/a	n/a	-1	n/a	n/a	n/a	n/a	n/a
2359574	REC_WORD	wordpools/wasnorm_wordpool_less_exclusions.txt	LTP241	ltpFR	2	13	-1	ZOO	1637	n/a	n/a	-1	n/a	n/a	n/a	n/a	n/a
2362094	REC_WORD	wordpools/wasnorm_wordpool_less_exclusions.txt	LTP241	ltpFR	2	13	-1	SHEET	1279	n/a	n/a	-1	n/a	n/a	n/a	n/a	n/a
2363166	REC_WORD	wordpools/wasnorm_wordpool_less_exclusions.txt	LTP241	ltpFR	2	13	-1	MARKER	870	n/a	n/a	-1	n/a	n/a	n/a	n/a	n/a
2389501	REC_WORD	wordpools/wasnorm_wordpool_less_exclusions.txt	LTP241	ltpFR	2	13	-1	SOCK	1339	n/a	n/a	-1	n/a	n/a	n/a	n/a	n/a
2407256	REC_WORD	wordpools/wasnorm_wordpool_less_exclusions.txt	LTP241	ltpFR	2	13	-1	SUPERMARKET	1409	n/a	n/a	-1	n/a	n/a	n/a	n/a	n/a
2423899	WORD	wordpools/wasnorm_wordpool_less_exclusions.txt	LTP241	ltpFR	2	14	1	ESSAY	540	n/a	n/a	0	0.57763671875	0.412841796875	1	upper	zerothre.ttf
2427794	WORD	wordpools/wasnorm_wordpool_less_exclusions.txt	LTP241	ltpFR	2	14	1	MARGARINE	868	n/a	n/a	0	0.57763671875	0.412841796875	1	upper	zerothre.ttf
2431971	WORD	wordpools/wasnorm_wordpool_less_exclusions.txt	LTP241	ltpFR	2	14	1	RECIPE	1175	n/a	n/a	0	0.57763671875	0.412841796875	1	upper	zerothre.ttf
2436031	WORD	wordpools/wasnorm_wordpool_less_exclusions.txt	LTP241	ltpFR	2	14	0	OLIVE	975	n/a	n/a	0	0.422607421875	0.5869140625	0	lower	amplitud.ttf
2440093	WORD	wordpools/wasnorm_wordpool_less_exclusions.txt	LTP241	ltpFR	2	14	0	HARE	688	n/a	n/a	1	0.422607421875	0.5869140625	0	lower	amplitud.ttf
2444153	WORD	wordpools/wasnorm_wordpool_less_exclusions.txt	LTP241	ltpFR	2	14	0	TURTLE	1522	n/a	n/a	1	0.422607421875	0.5869140625	0	lower	amplitud.ttf
2448281	WORD	wordpools/wasnorm_wordpool_less_exclusions.txt	LTP241	ltpFR	2	14	0	RECEPTIONIST	1174	n/a	n/a	1	0.422607421875	0.5869140625	0	lower	amplitud.ttf
2452258	WORD	wordpools/wasnorm_wordpool_less_exclusions.txt	LTP241	ltpFR	2	14	0	LEAF	808	n/a	n/a	0	0.422607421875	0.5869140625	0	lower	amplitud.ttf
2456102	WORD	wordpools/wasnorm_wordpool_less_exclusions.txt	LTP241	ltpFR	2	14	1	PAVEMENT	1028	n/a	n/a	0	0.57763671875	0.412841796875	1	upper	zerothre.ttf
2460063	WORD	wordpools/wasnorm_wordpool_less_exclusions.txt	LTP241	ltpFR	2	14	1	CREATURE	403	n/a	n/a	1	0.57763671875	0.412841796875	1	upper	zerothre.ttf
2464107	WORD	wordpools/wasnorm_wordpool_less_exclusions.txt	LTP241	ltpFR	2	14	1	RACCOON	1153	n/a	n/a	1	0.57763671875	0.412841796875	1	upper	zerothre.ttf
2468134	WORD	wordpools/wasnorm_wordpool_less_exclusions.txt	LTP241	ltpFR	2	14	1	SAP	1233	n/a	n/a	0	0.57763671875	0.412841796875	1	upper	zerothre.ttf
2472212	WORD	wordpools/wasnorm_wordpool_less_exclusions.txt	LTP241	ltpFR	2	14	1	COMB	351	n/a	n/a	0	0.57763671875	0.412841796875	1	upper	zerothre.ttf
2476106	WORD	wordpools/wasnorm_wordpool_less_exclusions.txt	LTP241	ltpFR	2	14	0	WHISKERS	1605	n/a	n/a	0	0.422607421875	0.5869140625	0	lower	amplitud.ttf
2480032	WORD	wordpools/wasnorm_wordpool_less_exclusions.txt	LTP241	ltpFR	2	14	0	GRIZZLY	662	n/a	n/a	1	0.422607421875	0.5869140625	0	lower	amplitud.ttf
2484160	WORD	wordpools/wasnorm_wordpool_less_exclusions.txt	LTP241	ltpFR	2	14	0	BAKER	71	n/a	n/a	1	0.422607421875	0.5869140625	0	lower	amplitud.ttf
2490085	REC_START	n/a	LTP241	ltpFR	2	14	n/a	n/a	n/a	n/a	n/a	n/a	n/a	n/a	n/a	n/a	n/a
2491073	REC_WORD	wordpools/wasnorm_wordpool_less_exclusions.txt	LTP241	ltpFR	2	14	0	GRIZZLY	662	n/a	n/a	1	n/a	n/a	n/a	n/a	n/a
2492060	REC_WORD	wordpools/wasnorm_wordpool_less_exclusions.txt	LTP241	ltpFR	2	14	0	BAKER	71	n/a	n/a	1	n/a	n/a	n/a	n/a	n/a
2494739	REC_WORD	wordpools/wasnorm_wordpool_less_exclusions.txt	LTP241	ltpFR	2	14	1	ESSAY	540	n/a	n/a	0	n/a	n/a	n/a	n/a	n/a
2496231	REC_WORD	wordpools/wasnorm_wordpool_less_exclusions.txt	LTP241	ltpFR	2	14	1	MARGARINE	868	n/a	n/a	0	n/a	n/a	n/a	n/a	n/a
2499069	REC_WORD	wordpools/wasnorm_wordpool_less_exclusions.txt	LTP241	ltpFR	2	14	1	RECIPE	1175	n/a	n/a	0	n/a	n/a	n/a	n/a	n/a
2500850	REC_WORD	wordpools/wasnorm_wordpool_less_exclusions.txt	LTP241	ltpFR	2	14	0	LEAF	808	n/a	n/a	0	n/a	n/a	n/a	n/a	n/a
2502013	REC_WORD	wordpools/wasnorm_wordpool_less_exclusions.txt	LTP241	ltpFR	2	14	1	PAVEMENT	1028	n/a	n/a	0	n/a	n/a	n/a	n/a	n/a
2506268	REC_WORD	wordpools/wasnorm_wordpool_less_exclusions.txt	LTP241	ltpFR	2	14	0	RECEPTIONIST	1174	n/a	n/a	1	n/a	n/a	n/a	n/a	n/a
2533980	REC_WORD	wordpools/wasnorm_wordpool_less_exclusions.txt	LTP241	ltpFR	2	14	0	OLIVE	975	n/a	n/a	0	n/a	n/a	n/a	n/a	n/a
2564670	REC_WORD_VV	wordpools/wasnorm_wordpool_less_exclusions.txt	LTP241	ltpFR	2	14	n/a	<>	-1	n/a	n/a	n/a	n/a	n/a	n/a	n/a	n/a
2571314	WORD	wordpools/wasnorm_wordpool_less_exclusions.txt	LTP241	ltpFR	2	15	0	VIOLA	1570	n/a	n/a	0	0.422607421875	0.5869140625	0	lower	amplitud.ttf
2575374	WORD	wordpools/wasnorm_wordpool_less_exclusions.txt	LTP241	ltpFR	2	15	0	SADDLE	1221	n/a	n/a	0	0.422607421875	0.5869140625	0	lower	amplitud.ttf
2579368	WORD	wordpools/wasnorm_wordpool_less_exclusions.txt	LTP241	ltpFR	2	15	0	BLUEBERRY	140	n/a	n/a	0	0.422607421875	0.5869140625	0	lower	amplitud.ttf
2583561	WORD	wordpools/wasnorm_wordpool_less_exclusions.txt	LTP241	ltpFR	2	15	0	JOURNAL	760	n/a	n/a	0	0.422607421875	0.5869140625	0	lower	amplitud.ttf
2587440	WORD	wordpools/wasnorm_wordpool_less_exclusions.txt	LTP241	ltpFR	2	15	0	CUP	424	n/a	n/a	0	0.422607421875	0.5869140625	0	lower	amplitud.ttf
2591582	WORD	wordpools/wasnorm_wordpool_less_exclusions.txt	LTP241	ltpFR	2	15	0	CONTAINER	366	n/a	n/a	1	0.422607421875	0.5869140625	0	lower	amplitud.ttf
2595494	WORD	wordpools/wasnorm_wordpool_less_exclusions.txt	LTP241	ltpFR	2	15	0	STOCKING	1383	n/a	n/a	0	0.422607421875	0.5869140625	0	lower	amplitud.ttf
2599537	WORD	wordpools/wasnorm_wordpool_less_exclusions.txt	LTP241	ltpFR	2	15	0	NEWSSTAND	949	n/a	n/a	1	0.422607421875	0.5869140625	0	lower	amplitud.ttf
2603399	WORD	wordpools/wasnorm_wordpool_less_exclusions.txt	LTP241	ltpFR	2	15	0	TRACTOR	1493	n/a	n/a	1	0.422607421875	0.5869140625	0	lower	amplitud.ttf
2607360	WORD	wordpools/wasnorm_wordpool_less_exclusions.txt	LTP241	ltpFR	2	15	0	DRUM	502	n/a	n/a	0	0.422607421875	0.5869140625	0	lower	amplitud.ttf
2611254	WORD	wordpools/wasnorm_wordpool_less_exclusions.txt	LTP241	ltpFR	2	15	0	CANVAS	234	n/a	n/a	1	0.422607421875	0.5869140625	0	lower	amplitud.ttf
2615431	WORD	wordpools/wasnorm_wordpool_less_exclusions.txt	LTP241	ltpFR	2	15	0	DUNE	506	n/a	n/a	1	0.422607421875	0.5869140625	0	lower	amplitud.ttf
2619375	WORD	wordpools/wasnorm_wordpool_less_exclusions.txt	LTP241	ltpFR	2	15	0	SHELF	1280	n/a	n/a	0	0.422607421875	0.5869140625	0	lower	amplitud.ttf
2623336	WORD	wordpools/wasnorm_wordpool_less_exclusions.txt	LTP241	ltpFR	2	15	0	ATLAS	53	n/a	n/a	1	0.422607421875	0.5869140625	0	lower	amplitud.ttf
2627263	WORD	wordpools/wasnorm_wordpool_less_exclusions.txt	LTP241	ltpFR	2	15	0	HEAD	695	n/a	n/a	0	0.422607421875	0.5869140625	0	lower	amplitud.ttf
2631241	WORD	wordpools/wasnorm_wordpool_less_exclusions.txt	LTP241	ltpFR	2	15	0	NECK	939	n/a	n/a	0	0.422607421875	0.5869140625	0	lower	amplitud.ttf
2637099	REC_START	n/a	LTP241	ltpFR	2	15	n/a	n/a	n/a	n/a	n/a	n/a	n/a	n/a	n/a	n/a	n/a
2637767	REC_WORD	wordpools/wasnorm_wordpool_less_exclusions.txt	LTP241	ltpFR	2	15	0	ATLAS	53	n/a	n/a	1	n/a	n/a	n/a	n/a	n/a
2638695	REC_WORD	wordpools/wasnorm_wordpool_less_exclusions.txt	LTP241	ltpFR	2	15	0	HEAD	695	n/a	n/a	0	n/a	n/a	n/a	n/a	n/a
2639683	REC_WORD	wordpools/wasnorm_wordpool_less_exclusions.txt	LTP241	ltpFR	2	15	0	NECK	939	n/a	n/a	0	n/a	n/a	n/a	n/a	n/a
2640750	REC_WORD	wordpools/wasnorm_wordpool_less_exclusions.txt	LTP241	ltpFR	2	15	0	SADDLE	1221	n/a	n/a	0	n/a	n/a	n/a	n/a	n/a
2648089	REC_WORD	wordpools/wasnorm_wordpool_less_exclusions.txt	LTP241	ltpFR	2	15	0	DUNE	506	n/a	n/a	1	n/a	n/a	n/a	n/a	n/a
2648967	REC_WORD	wordpools/wasnorm_wordpool_less_exclusions.txt	LTP241	ltpFR	2	15	0	NEWSSTAND	949	n/a	n/a	1	n/a	n/a	n/a	n/a	n/a
2650114	REC_WORD	wordpools/wasnorm_wordpool_less_exclusions.txt	LTP241	ltpFR	2	15	0	JOURNAL	760	n/a	n/a	0	n/a	n/a	n/a	n/a	n/a
2660017	REC_WORD	wordpools/wasnorm_wordpool_less_exclusions.txt	LTP241	ltpFR	2	15	0	HEAD	695	n/a	n/a	0	n/a	n/a	n/a	n/a	n/a
2669006	REC_WORD	wordpools/wasnorm_wordpool_less_exclusions.txt	LTP241	ltpFR	2	15	0	CONTAINER	366	n/a	n/a	1	n/a	n/a	n/a	n/a	n/a
2670184	REC_WORD	wordpools/wasnorm_wordpool_less_exclusions.txt	LTP241	ltpFR	2	15	0	BLUEBERRY	140	n/a	n/a	0	n/a	n/a	n/a	n/a	n/a
2689450	REC_WORD	wordpools/wasnorm_wordpool_less_exclusions.txt	LTP241	ltpFR	2	15	0	CANVAS	234	n/a	n/a	1	n/a	n/a	n/a	n/a	n/a
2702091	REC_WORD	wordpools/wasnorm_wordpool_less_exclusions.txt	LTP241	ltpFR	2	15	0	DRUM	502	n/a	n/a	0	n/a	n/a	n/a	n/a	n/a
2718427	WORD	wordpools/wasnorm_wordpool_less_exclusions.txt	LTP241	ltpFR	2	16	-1	ROOF	1205	n/a	n/a	-1	1.0	1.0	1	upper	Verdana.ttf
2722553	WORD	wordpools/wasnorm_wordpool_less_exclusions.txt	LTP241	ltpFR	2	16	-1	PRAIRIE	1118	n/a	n/a	-1	1.0	1.0	1	upper	Verdana.ttf
2726764	WORD	wordpools/wasnorm_wordpool_less_exclusions.txt	LTP241	ltpFR	2	16	-1	FELLOW	558	n/a	n/a	-1	1.0	1.0	1	upper	Verdana.ttf
2730774	WORD	wordpools/wasnorm_wordpool_less_exclusions.txt	LTP241	ltpFR	2	16	-1	FRIEND	606	n/a	n/a	-1	1.0	1.0	1	upper	Verdana.ttf
2734918	WORD	wordpools/wasnorm_wordpool_less_exclusions.txt	LTP241	ltpFR	2	16	-1	KANGAROO	768	n/a	n/a	-1	1.0	1.0	1	upper	Verdana.ttf
2738796	WORD	wordpools/wasnorm_wordpool_less_exclusions.txt	LTP241	ltpFR	2	16	-1	RECORD	1176	n/a	n/a	-1	1.0	1.0	1	upper	Verdana.ttf
2742973	WORD	wordpools/wasnorm_wordpool_less_exclusions.txt	LTP241	ltpFR	2	16	-1	APE	31	n/a	n/a	-1	1.0	1.0	1	upper	Verdana.ttf
2747184	WORD	wordpools/wasnorm_wordpool_less_exclusions.txt	LTP241	ltpFR	2	16	-1	BARTENDER	92	n/a	n/a	-1	1.0	1.0	1	upper	Verdana.ttf
2751212	WORD	wordpools/wasnorm_wordpool_less_exclusions.txt	LTP241	ltpFR	2	16	-1	OUTFIT	988	n/a	n/a	-1	1.0	1.0	1	upper	Verdana.ttf
2755355	WORD	wordpools/wasnorm_wordpool_less_exclusions.txt	LTP241	ltpFR	2	16	-1	SUPERVISOR	1410	n/a	n/a	-1	1.0	1.0	1	upper	Verdana.ttf
2759483	WORD	wordpools/wasnorm_wordpool_less_exclusions.txt	LTP241	ltpFR	2	16	-1	LASH	802	n/a	n/a	-1	1.0	1.0	1	upper	Verdana.ttf
2763609	WORD	wordpools/wasnorm_wordpool_less_exclusions.txt	LTP241	ltpFR	2	16	-1	BUREAU	199	n/a	n/a	-1	1.0	1.0	1	upper	Verdana.ttf
2767471	WORD	wordpools/wasnorm_wordpool_less_exclusions.txt	LTP241	ltpFR	2	16	-1	ELECTRICIAN	521	n/a	n/a	-1	1.0	1.0	1	upper	Verdana.ttf
2771647	WORD	wordpools/wasnorm_wordpool_less_exclusions.txt	LTP241	ltpFR	2	16	-1	CORK	380	n/a	n/a	-1	1.0	1.0	1	upper	Verdana.ttf
2775624	WORD	wordpools/wasnorm_wordpool_less_exclusions.txt	LTP241	ltpFR	2	16	-1	PLUMBER	1091	n/a	n/a	-1	1.0	1.0	1	upper	Verdana.ttf
2779535	WORD	wordpools/wasnorm_wordpool_less_exclusions.txt	LTP241	ltpFR	2	16	-1	SAXOPHONE	1240	n/a	n/a	-1	1.0	1.0	1	upper	Verdana.ttf
2785328	REC_START	n/a	LTP241	ltpFR	2	16	n/a	n/a	n/a	n/a	n/a	n/a	n/a	n/a	n/a	n/a	n/a
2786126	REC_WORD	wordpools/wasnorm_wordpool_less_exclusions.txt	LTP241	ltpFR	2	16	-1	ROOF	1205	n/a	n/a	-1	n/a	n/a	n/a	n/a	n/a
2786919	REC_WORD	wordpools/wasnorm_wordpool_less_exclusions.txt	LTP241	ltpFR	2	16	-1	PRAIRIE	1118	n/a	n/a	-1	n/a	n/a	n/a	n/a	n/a
2788475	REC_WORD	wordpools/wasnorm_wordpool_less_exclusions.txt	LTP241	ltpFR	2	16	-1	FRIEND	606	n/a	n/a	-1	n/a	n/a	n/a	n/a	n/a
2789543	REC_WORD	wordpools/wasnorm_wordpool_less_exclusions.txt	LTP241	ltpFR	2	16	-1	KANGAROO	768	n/a	n/a	-1	n/a	n/a	n/a	n/a	n/a
2792157	REC_WORD	wordpools/wasnorm_wordpool_less_exclusions.txt	LTP241	ltpFR	2	16	-1	BARTENDER	92	n/a	n/a	-1	n/a	n/a	n/a	n/a	n/a
2810001	REC_WORD	wordpools/wasnorm_wordpool_less_exclusions.txt	LTP241	ltpFR	2	16	-1	RECORD	1176	n/a	n/a	-1	n/a	n/a	n/a	n/a	n/a
2811683	REC_WORD	wordpools/wasnorm_wordpool_less_exclusions.txt	LTP241	ltpFR	2	16	-1	OUTFIT	988	n/a	n/a	-1	n/a	n/a	n/a	n/a	n/a
2816382	REC_WORD	wordpools/wasnorm_wordpool_less_exclusions.txt	LTP241	ltpFR	2	16	-1	SAXOPHONE	1240	n/a	n/a	-1	n/a	n/a	n/a	n/a	n/a
2852266	REC_WORD	wordpools/wasnorm_wordpool_less_exclusions.txt	LTP241	ltpFR	2	16	-1	APE	31	n/a	n/a	-1	n/a	n/a	n/a	n/a	n/a
2907545	REC_START	n/a	LTP241	ltpFR	2	1	n/a	n/a	n/a	n/a	n/a	n/a	n/a	n/a	n/a	n/a	n/a
2907577	RECOG_LURE	n/a	LTP241	ltpFR	2	1	n/a	LOG	841	0	2	n/a	n/a	n/a	n/a	n/a	n/a
2908932	RECOG_RESP	n/a	LTP241	ltpFR	2	1	n/a	LOG	841	0	n/a	n/a	n/a	n/a	n/a	n/a	n/a
2910604	RECOG_CONF	n/a	LTP241	ltpFR	2	1	n/a	LOG	841	n/a	2	n/a	n/a	n/a	n/a	n/a	n/a
2912354	RECOG_TARGET	n/a	LTP241	ltpFR	2	1	0	THUMB	1462	1	4	0	n/a	n/a	n/a	n/a	n/a
2913142	RECOG_RESP	n/a	LTP241	ltpFR	2	1	0	THUMB	1462	1	n/a	0	n/a	n/a	n/a	n/a	n/a
2914075	RECOG_CONF	n/a	LTP241	ltpFR	2	1	0	THUMB	1462	n/a	4	0	n/a	n/a	n/a	n/a	n/a
2915549	RECOG_LURE	n/a	LTP241	ltpFR	2	1	n/a	WRENCH	1625	0	1	n/a	n/a	n/a	n/a	n/a	n/a
2916778	RECOG_RESP	n/a	LTP241	ltpFR	2	1	n/a	WRENCH	1625	0	n/a	n/a	n/a	n/a	n/a	n/a	n/a
2917911	RECOG_CONF	n/a	LTP241	ltpFR	2	1	n/a	WRENCH	1625	n/a	1	n/a	n/a	n/a	n/a	n/a	n/a
2919592	RECOG_TARGET	n/a	LTP241	ltpFR	2	1	0	RUG	1215	1	5	1	n/a	n/a	n/a	n/a	n/a
2920439	RECOG_RESP	n/a	LTP241	ltpFR	2	1	0	RUG	1215	1	n/a	1	n/a	n/a	n/a	n/a	n/a
2921171	RECOG_CONF	n/a	LTP241	ltpFR	2	1	0	RUG	1215	n/a	5	1	n/a	n/a	n/a	n/a	n/a
2923055	RECOG_TARGET	n/a	LTP241	ltpFR	2	1	1	SUIT	1402	1	5	0	n/a	n/a	n/a	n/a	n/a
2923821	RECOG_RESP	n/a	LTP241	ltpFR	2	1	1	SUIT	1402	1	n/a	0	n/a	n/a	n/a	n/a	n/a
2924533	RECOG_CONF	n/a	LTP241	ltpFR	2	1	1	SUIT	1402	n/a	5	0	n/a	n/a	n/a	n/a	n/a
2926100	RECOG_TARGET	n/a	LTP241	ltpFR	2	1	1	LITERATURE	831	1	5	0	n/a	n/a	n/a	n/a	n/a
2926917	RECOG_RESP	n/a	LTP241	ltpFR	2	1	1	LITERATURE	831	1	n/a	0	n/a	n/a	n/a	n/a	n/a
2927628	RECOG_CONF	n/a	LTP241	ltpFR	2	1	1	LITERATURE	831	n/a	5	0	n/a	n/a	n/a	n/a	n/a
2929429	RECOG_TARGET	n/a	LTP241	ltpFR	2	1	0	DUNE	506	1	5	1	n/a	n/a	n/a	n/a	n/a
2930402	RECOG_RESP	n/a	LTP241	ltpFR	2	1	0	DUNE	506	1	n/a	1	n/a	n/a	n/a	n/a	n/a
2931066	RECOG_CONF	n/a	LTP241	ltpFR	2	1	0	DUNE	506	n/a	5	1	n/a	n/a	n/a	n/a	n/a
2932889	RECOG_TARGET	n/a	LTP241	ltpFR	2	1	0	CANVAS	234	1	5	1	n/a	n/a	n/a	n/a	n/a
2933506	RECOG_RESP	n/a	LTP241	ltpFR	2	1	0	CANVAS	234	1	n/a	1	n/a	n/a	n/a	n/a	n/a
2934220	RECOG_CONF	n/a	LTP241	ltpFR	2	1	0	CANVAS	234	n/a	5	1	n/a	n/a	n/a	n/a	n/a
2935985	RECOG_TARGET	n/a	LTP241	ltpFR	2	1	1	BULL	193	1	5	1	n/a	n/a	n/a	n/a	n/a
2936781	RECOG_RESP	n/a	LTP241	ltpFR	2	1	1	BULL	193	1	n/a	1	n/a	n/a	n/a	n/a	n/a
2937884	RECOG_CONF	n/a	LTP241	ltpFR	2	1	1	BULL	193	n/a	5	1	n/a	n/a	n/a	n/a	n/a
2939579	RECOG_LURE	n/a	LTP241	ltpFR	2	1	n/a	RAG	1160	0	3	n/a	n/a	n/a	n/a	n/a	n/a
2940913	RECOG_RESP	n/a	LTP241	ltpFR	2	1	n/a	RAG	1160	0	n/a	n/a	n/a	n/a	n/a	n/a	n/a
2942211	RECOG_CONF	n/a	LTP241	ltpFR	2	1	n/a	RAG	1160	n/a	3	n/a	n/a	n/a	n/a	n/a	n/a
2943790	RECOG_LURE	n/a	LTP241	ltpFR	2	1	n/a	CAR	241	0	4	n/a	n/a	n/a	n/a	n/a	n/a
2944677	RECOG_RESP	n/a	LTP241	ltpFR	2	1	n/a	CAR	241	0	n/a	n/a	n/a	n/a	n/a	n/a	n/a
2945566	RECOG_CONF	n/a	LTP241	ltpFR	2	1	n/a	CAR	241	n/a	4	n/a	n/a	n/a	n/a	n/a	n/a
2947319	RECOG_LURE	n/a	LTP241	ltpFR	2	1	n/a	METEOR	889	0	5	n/a	n/a	n/a	n/a	n/a	n/a
2948337	RECOG_RESP	n/a	LTP241	ltpFR	2	1	n/a	METEOR	889	0	n/a	n/a	n/a	n/a	n/a	n/a	n/a
2949138	RECOG_CONF	n/a	LTP241	ltpFR	2	1	n/a	METEOR	889	n/a	5	n/a	n/a	n/a	n/a	n/a	n/a
2950962	RECOG_TARGET	n/a	LTP241	ltpFR	2	1	-1	TAXI	1438	1	5	-1	n/a	n/a	n/a	n/a	n/a
2951704	RECOG_RESP	n/a	LTP241	ltpFR	2	1	-1	TAXI	1438	1	n/a	-1	n/a	n/a	n/a	n/a	n/a
2952428	RECOG_CONF	n/a	LTP241	ltpFR	2	1	-1	TAXI	1438	n/a	5	-1	n/a	n/a	n/a	n/a	n/a
2954175	RECOG_LURE	n/a	LTP241	ltpFR	2	1	n/a	MICROSCOPE	891	1	4	n/a	n/a	n/a	n/a	n/a	n/a
2955273	RECOG_RESP	n/a	LTP241	ltpFR	2	1	n/a	MICROSCOPE	891	1	n/a	n/a	n/a	n/a	n/a	n/a	n/a
2956018	RECOG_CONF	n/a	LTP241	ltpFR	2	1	n/a	MICROSCOPE	891	n/a	4	n/a	n/a	n/a	n/a	n/a	n/a
2957769	RECOG_TARGET	n/a	LTP241	ltpFR	2	1	0	ATLAS	53	1	5	1	n/a	n/a	n/a	n/a	n/a
2958409	RECOG_RESP	n/a	LTP241	ltpFR	2	1	0	ATLAS	53	1	n/a	1	n/a	n/a	n/a	n/a	n/a
2959133	RECOG_CONF	n/a	LTP241	ltpFR	2	1	0	ATLAS	53	n/a	5	1	n/a	n/a	n/a	n/a	n/a
2960897	RECOG_TARGET	n/a	LTP241	ltpFR	2	1	1	TEACHER	1440	1	3	1	n/a	n/a	n/a	n/a	n/a
2961828	RECOG_RESP	n/a	LTP241	ltpFR	2	1	1	TEACHER	1440	1	n/a	1	n/a	n/a	n/a	n/a	n/a
2963273	RECOG_CONF	n/a	LTP241	ltpFR	2	1	1	TEACHER	1440	n/a	3	1	n/a	n/a	n/a	n/a	n/a
2964825	RECOG_LURE	n/a	LTP241	ltpFR	2	1	n/a	PATIENT	1024	0	5	n/a	n/a	n/a	n/a	n/a	n/a
2965577	RECOG_RESP	n/a	LTP241	ltpFR	2	1	n/a	PATIENT	1024	0	n/a	n/a	n/a	n/a	n/a	n/a	n/a
2966560	RECOG_CONF	n/a	LTP241	ltpFR	2	1	n/a	PATIENT	1024	n/a	5	n/a	n/a	n/a	n/a	n/a	n/a
2968271	RECOG_TARGET	n/a	LTP241	ltpFR	2	1	-1	FOREST	593	1	5	-1	n/a	n/a	n/a	n/a	n/a
2968947	RECOG_RESP	n/a	LTP241	ltpFR	2	1	-1	FOREST	593	1	n/a	-1	n/a	n/a	n/a	n/a	n/a
2969697	RECOG_CONF	n/a	LTP241	ltpFR	2	1	-1	FOREST	593	n/a	5	-1	n/a	n/a	n/a	n/a	n/a
2971300	RECOG_TARGET	n/a	LTP241	ltpFR	2	1	0	UMPIRE	1535	1	5	1	n/a	n/a	n/a	n/a	n/a
2971981	RECOG_RESP	n/a	LTP241	ltpFR	2	1	0	UMPIRE	1535	1	n/a	1	n/a	n/a	n/a	n/a	n/a
2972802	RECOG_CONF	n/a	LTP241	ltpFR	2	1	0	UMPIRE	1535	n/a	5	1	n/a	n/a	n/a	n/a	n/a
2974295	RECOG_TARGET	n/a	LTP241	ltpFR	2	1	0	CHART	282	1	4	0	n/a	n/a	n/a	n/a	n/a
2975584	RECOG_RESP_VV	n/a	LTP241	ltpFR	2	1	0	CHART	282	0	n/a	0	n/a	n/a	n/a	n/a	n/a
2976676	RECOG_RESP	n/a	LTP241	ltpFR	2	1	0	CHART	282	1	n/a	0	n/a	n/a	n/a	n/a	n/a
2977683	RECOG_CONF	n/a	LTP241	ltpFR	2	1	0	CHART	282	n/a	4	0	n/a	n/a	n/a	n/a	n/a
2985750	REC_START	n/a	LTP241	ltpFR	2	2	n/a	n/a	n/a	n/a	n/a	n/a	n/a	n/a	n/a	n/a	n/a
2985777	RECOG_TARGET	n/a	LTP241	ltpFR	2	2	0	SUGAR	1401	1	5	0	n/a	n/a	n/a	n/a	n/a
2986492	RECOG_RESP	n/a	LTP241	ltpFR	2	2	0	SUGAR	1401	1	n/a	0	n/a	n/a	n/a	n/a	n/a
2987260	RECOG_CONF	n/a	LTP241	ltpFR	2	2	0	SUGAR	1401	n/a	5	0	n/a	n/a	n/a	n/a	n/a
2988939	RECOG_LURE	n/a	LTP241	ltpFR	2	2	n/a	CHOCOLATE	306	0	5	n/a	n/a	n/a	n/a	n/a	n/a
2989689	RECOG_RESP	n/a	LTP241	ltpFR	2	2	n/a	CHOCOLATE	306	0	n/a	n/a	n/a	n/a	n/a	n/a	n/a
2990442	RECOG_CONF	n/a	LTP241	ltpFR	2	2	n/a	CHOCOLATE	306	n/a	5	n/a	n/a	n/a	n/a	n/a	n/a
2992135	RECOG_TARGET	n/a	LTP241	ltpFR	2	2	1	VETERAN	1561	1	2	1	n/a	n/a	n/a	n/a	n/a
2993546	RECOG_RESP	n/a	LTP241	ltpFR	2	2	1	VETERAN	1561	1	n/a	1	n/a	n/a	n/a	n/a	n/a
2994491	RECOG_CONF	n/a	LTP241	ltpFR	2	2	1	VETERAN	1561	n/a	2	1	n/a	n/a	n/a	n/a	n/a
2996196	RECOG_TARGET	n/a	LTP241	ltpFR	2	2	0	WINDOW	1611	1	5	1	n/a	n/a	n/a	n/a	n/a
2997192	RECOG_RESP	n/a	LTP241	ltpFR	2	2	0	WINDOW	1611	1	n/a	1	n/a	n/a	n/a	n/a	n/a
2997893	RECOG_CONF	n/a	LTP241	ltpFR	2	2	0	WINDOW	1611	n/a	5	1	n/a	n/a	n/a	n/a	n/a
2999640	RECOG_LURE	n/a	LTP241	ltpFR	2	2	n/a	DINER	467	0	3	n/a	n/a	n/a	n/a	n/a	n/a
3000534	RECOG_RESP	n/a	LTP241	ltpFR	2	2	n/a	DINER	467	0	n/a	n/a	n/a	n/a	n/a	n/a	n/a
3001495	RECOG_CONF	n/a	LTP241	ltpFR	2	2	n/a	DINER	467	n/a	3	n/a	n/a	n/a	n/a	n/a	n/a
3003368	RECOG_TARGET	n/a	LTP241	ltpFR	2	2	1	DRESS	495	1	5	0	n/a	n/a	n/a	n/a	n/a
3004164	RECOG_RESP	n/a	LTP241	ltpFR	2	2	1	DRESS	495	1	n/a	0	n/a	n/a	n/a	n/a	n/a
3004931	RECOG_CONF	n/a	LTP241	ltpFR	2	2	1	DRESS	495	n/a	5	0	n/a	n/a	n/a	n/a	n/a
3006729	RECOG_LURE	n/a	LTP241	ltpFR	2	2	n/a	FLANNEL	574	0	5	n/a	n/a	n/a	n/a	n/a	n/a
3007522	RECOG_RESP	n/a	LTP241	ltpFR	2	2	n/a	FLANNEL	574	0	n/a	n/a	n/a	n/a	n/a	n/a	n/a
3008224	RECOG_CONF	n/a	LTP241	ltpFR	2	2	n/a	FLANNEL	574	n/a	5	n/a	n/a	n/a	n/a	n/a	n/a
3010024	RECOG_TARGET	n/a	LTP241	ltpFR	2	2	0	RAM	1165	1	5	1	n/a	n/a	n/a	n/a	n/a
3010798	RECOG_RESP	n/a	LTP241	ltpFR	2	2	0	RAM	1165	1	n/a	1	n/a	n/a	n/a	n/a	n/a
3011512	RECOG_CONF	n/a	LTP241	ltpFR	2	2	0	RAM	1165	n/a	5	1	n/a	n/a	n/a	n/a	n/a
3013187	RECOG_LURE	n/a	LTP241	ltpFR	2	2	n/a	UNIVERSE	1540	0	2	n/a	n/a	n/a	n/a	n/a	n/a
3014385	RECOG_RESP	n/a	LTP241	ltpFR	2	2	n/a	UNIVERSE	1540	0	n/a	n/a	n/a	n/a	n/a	n/a	n/a
3015650	RECOG_CONF	n/a	LTP241	ltpFR	2	2	n/a	UNIVERSE	1540	n/a	2	n/a	n/a	n/a	n/a	n/a	n/a
3017431	RECOG_TARGET	n/a	LTP241	ltpFR	2	2	1	SHACK	1273	1	5	0	n/a	n/a	n/a	n/a	n/a
3018188	RECOG_RESP	n/a	LTP241	ltpFR	2	2	1	SHACK	1273	1	n/a	0	n/a	n/a	n/a	n/a	n/a
3018979	RECOG_CONF	n/a	LTP241	ltpFR	2	2	1	SHACK	1273	n/a	5	0	n/a	n/a	n/a	n/a	n/a
3020525	RECOG_TARGET	n/a	LTP241	ltpFR	2	2	1	FORK	594	1	5	0	n/a	n/a	n/a	n/a	n/a
3021383	RECOG_RESP	n/a	LTP241	ltpFR	2	2	1	FORK	594	1	n/a	0	n/a	n/a	n/a	n/a	n/a
3022020	RECOG_CONF	n/a	LTP241	ltpFR	2	2	1	FORK	594	n/a	5	0	n/a	n/a	n/a	n/a	n/a
3023754	RECOG_TARGET	n/a	LTP241	ltpFR	2	2	0	PAIL	1002	1	3	0	n/a	n/a	n/a	n/a	n/a
3025037	RECOG_RESP	n/a	LTP241	ltpFR	2	2	0	PAIL	1002	1	n/a	0	n/a	n/a	n/a	n/a	n/a
3025979	RECOG_CONF	n/a	LTP241	ltpFR	2	2	0	PAIL	1002	n/a	3	0	n/a	n/a	n/a	n/a	n/a
3027731	RECOG_TARGET	n/a	LTP241	ltpFR	2	2	0	CUP	424	1	5	0	n/a	n/a	n/a	n/a	n/a
3028393	RECOG_RESP	n/a	LTP241	ltpFR	2	2	0	CUP	424	1	n/a	0	n/a	n/a	n/a	n/a	n/a
3029045	RECOG_CONF	n/a	LTP241	ltpFR	2	2	0	CUP	424	n/a	5	0	n/a	n/a	n/a	n/a	n/a
3030677	RECOG_TARGET	n/a	LTP241	ltpFR	2	2	0	CAB	209	1	1	1	n/a	n/a	n/a	n/a	n/a
3031442	RECOG_RESP	n/a	LTP241	ltpFR	2	2	0	CAB	209	1	n/a	1	n/a	n/a	n/a	n/a	n/a
3033407	RECOG_CONF	n/a	LTP241	ltpFR	2	2	0	CAB	209	n/a	1	1	n/a	n/a	n/a	n/a	n/a
3035020	RECOG_TARGET	n/a	LTP241	ltpFR	2	2	1	ZUCCHINI	1638	1	5	0	n/a	n/a	n/a	n/a	n/a
3035697	RECOG_RESP	n/a	LTP241	ltpFR	2	2	1	ZUCCHINI	1638	1	n/a	0	n/a	n/a	n/a	n/a	n/a
3036408	RECOG_CONF	n/a	LTP241	ltpFR	2	2	1	ZUCCHINI	1638	n/a	5	0	n/a	n/a	n/a	n/a	n/a
3038050	RECOG_TARGET	n/a	LTP241	ltpFR	2	2	-1	PRIMATE	1123	1	5	-1	n/a	n/a	n/a	n/a	n/a
3038772	RECOG_RESP	n/a	LTP241	ltpFR	2	2	-1	PRIMATE	1123	1	n/a	-1	n/a	n/a	n/a	n/a	n/a
3039636	RECOG_CONF	n/a	LTP241	ltpFR	2	2	-1	PRIMATE	1123	n/a	5	-1	n/a	n/a	n/a	n/a	n/a
3041245	RECOG_LURE	n/a	LTP241	ltpFR	2	2	n/a	LEG	809	0	4	n/a	n/a	n/a	n/a	n/a	n/a
3042126	RECOG_RESP	n/a	LTP241	ltpFR	2	2	n/a	LEG	809	0	n/a	n/a	n/a	n/a	n/a	n/a	n/a
3043350	RECOG_CONF	n/a	LTP241	ltpFR	2	2	n/a	LEG	809	n/a	4	n/a	n/a	n/a	n/a	n/a	n/a
3044972	RECOG_LURE	n/a	LTP241	ltpFR	2	2	n/a	BARK	87	0	5	n/a	n/a	n/a	n/a	n/a	n/a
3045888	RECOG_RESP	n/a	LTP241	ltpFR	2	2	n/a	BARK	87	0	n/a	n/a	n/a	n/a	n/a	n/a	n/a
3047065	RECOG_CONF	n/a	LTP241	ltpFR	2	2	n/a	BARK	87	n/a	5	n/a	n/a	n/a	n/a	n/a	n/a
3048733	RECOG_LURE	n/a	LTP241	ltpFR	2	2	n/a	SHRINE	1298	0	5	n/a	n/a	n/a	n/a	n/a	n/a
3049568	RECOG_RESP	n/a	LTP241	ltpFR	2	2	n/a	SHRINE	1298	0	n/a	n/a	n/a	n/a	n/a	n/a	n/a
3050381	RECOG_CONF	n/a	LTP241	ltpFR	2	2	n/a	SHRINE	1298	n/a	5	n/a	n/a	n/a	n/a	n/a	n/a
3052096	RECOG_TARGET	n/a	LTP241	ltpFR	2	2	1	CART	250	1	5	0	n/a	n/a	n/a	n/a	n/a
3053150	RECOG_RESP	n/a	LTP241	ltpFR	2	2	1	CART	250	1	n/a	0	n/a	n/a	n/a	n/a	n/a
3054010	RECOG_CONF	n/a	LTP241	ltpFR	2	2	1	CART	250	n/a	5	0	n/a	n/a	n/a	n/a	n/a
3064488	REC_START	n/a	LTP241	ltpFR	2	3	n/a	n/a	n/a	n/a	n/a	n/a	n/a	n/a	n/a	n/a	n/a
3064526	RECOG_TARGET	n/a	LTP241	ltpFR	2	3	-1	RECORD	1176	1	5	-1	n/a	n/a	n/a	n/a	n/a
3065309	RECOG_RESP	n/a	LTP241	ltpFR	2	3	-1	RECORD	1176	1	n/a	-1	n/a	n/a	n/a	n/a	n/a
3066062	RECOG_CONF	n/a	LTP241	ltpFR	2	3	-1	RECORD	1176	n/a	5	-1	n/a	n/a	n/a	n/a	n/a
3067655	RECOG_LURE	n/a	LTP241	ltpFR	2	3	n/a	EAGLE	512	0	2	n/a	n/a	n/a	n/a	n/a	n/a
3068354	RECOG_RESP	n/a	LTP241	ltpFR	2	3	n/a	EAGLE	512	0	n/a	n/a	n/a	n/a	n/a	n/a	n/a
3069910	RECOG_CONF	n/a	LTP241	ltpFR	2	3	n/a	EAGLE	512	n/a	2	n/a	n/a	n/a	n/a	n/a	n/a
3071483	RECOG_TARGET	n/a	LTP241	ltpFR	2	3	1	INN	739	1	3	0	n/a	n/a	n/a	n/a	n/a
3072276	RECOG_RESP	n/a	LTP241	ltpFR	2	3	1	INN	739	1	n/a	0	n/a	n/a	n/a	n/a	n/a
3074884	RECOG_CONF	n/a	LTP241	ltpFR	2	3	1	INN	739	n/a	3	0	n/a	n/a	n/a	n/a	n/a
3076891	RECOG_TARGET	n/a	LTP241	ltpFR	2	3	0	CARPET	247	1	3	1	n/a	n/a	n/a	n/a	n/a
3077940	RECOG_RESP	n/a	LTP241	ltpFR	2	3	0	CARPET	247	1	n/a	1	n/a	n/a	n/a	n/a	n/a
3079189	RECOG_CONF	n/a	LTP241	ltpFR	2	3	0	CARPET	247	n/a	3	1	n/a	n/a	n/a	n/a	n/a
3080818	RECOG_TARGET	n/a	LTP241	ltpFR	2	3	0	GROCERIES	663	1	5	1	n/a	n/a	n/a	n/a	n/a
3081568	RECOG_RESP	n/a	LTP241	ltpFR	2	3	0	GROCERIES	663	1	n/a	1	n/a	n/a	n/a	n/a	n/a
3082334	RECOG_CONF	n/a	LTP241	ltpFR	2	3	0	GROCERIES	663	n/a	5	1	n/a	n/a	n/a	n/a	n/a
3083980	RECOG_TARGET	n/a	LTP241	ltpFR	2	3	-1	BUREAU	199	1	4	-1	n/a	n/a	n/a	n/a	n/a
3085038	RECOG_RESP	n/a	LTP241	ltpFR	2	3	-1	BUREAU	199	1	n/a	-1	n/a	n/a	n/a	n/a	n/a
3085934	RECOG_CONF	n/a	LTP241	ltpFR	2	3	-1	BUREAU	199	n/a	4	-1	n/a	n/a	n/a	n/a	n/a
3087592	RECOG_TARGET	n/a	LTP241	ltpFR	2	3	1	PENNY	1045	1	5	0	n/a	n/a	n/a	n/a	n/a
3088275	RECOG_RESP	n/a	LTP241	ltpFR	2	3	1	PENNY	1045	1	n/a	0	n/a	n/a	n/a	n/a	n/a
3089187	RECOG_CONF	n/a	LTP241	ltpFR	2	3	1	PENNY	1045	n/a	5	0	n/a	n/a	n/a	n/a	n/a
3090654	RECOG_LURE	n/a	LTP241	ltpFR	2	3	n/a	BRUISE	180	0	4	n/a	n/a	n/a	n/a	n/a	n/a
3091429	RECOG_RESP	n/a	LTP241	ltpFR	2	3	n/a	BRUISE	180	0	n/a	n/a	n/a	n/a	n/a	n/a	n/a
3092399	RECOG_CONF	n/a	LTP241	ltpFR	2	3	n/a	BRUISE	180	n/a	4	n/a	n/a	n/a	n/a	n/a	n/a
3093799	RECOG_LURE	n/a	LTP241	ltpFR	2	3	n/a	PAPER	1011	0	1	n/a	n/a	n/a	n/a	n/a	n/a
3095277	RECOG_RESP	n/a	LTP241	ltpFR	2	3	n/a	PAPER	1011	0	n/a	n/a	n/a	n/a	n/a	n/a	n/a
3096645	RECOG_CONF	n/a	LTP241	ltpFR	2	3	n/a	PAPER	1011	n/a	1	n/a	n/a	n/a	n/a	n/a	n/a
3098227	RECOG_LURE	n/a	LTP241	ltpFR	2	3	n/a	WATERFALL	1595	0	5	n/a	n/a	n/a	n/a	n/a	n/a
3099088	RECOG_RESP	n/a	LTP241	ltpFR	2	3	n/a	WATERFALL	1595	0	n/a	n/a	n/a	n/a	n/a	n/a	n/a
3099955	RECOG_CONF	n/a	LTP241	ltpFR	2	3	n/a	WATERFALL	1595	n/a	5	n/a	n/a	n/a	n/a	n/a	n/a
3101770	RECOG_TARGET	n/a	LTP241	ltpFR	2	3	0	DEER	444	1	3	1	n/a	n/a	n/a	n/a	n/a
3102589	RECOG_RESP	n/a	LTP241	ltpFR	2	3	0	DEER	444	1	n/a	1	n/a	n/a	n/a	n/a	n/a
3103754	RECOG_CONF	n/a	LTP241	ltpFR	2	3	0	DEER	444	n/a	3	1	n/a	n/a	n/a	n/a	n/a
3105399	RECOG_LURE	n/a	LTP241	ltpFR	2	3	n/a	CATERPILLAR	259	0	4	n/a	n/a	n/a	n/a	n/a	n/a
3106236	RECOG_RESP	n/a	LTP241	ltpFR	2	3	n/a	CATERPILLAR	259	0	n/a	n/a	n/a	n/a	n/a	n/a	n/a
3107152	RECOG_CONF	n/a	LTP241	ltpFR	2	3	n/a	CATERPILLAR	259	n/a	4	n/a	n/a	n/a	n/a	n/a	n/a
3108760	RECOG_LURE	n/a	LTP241	ltpFR	2	3	n/a	SHUTTER	1300	0	5	n/a	n/a	n/a	n/a	n/a	n/a
3110025	RECOG_RESP	n/a	LTP241	ltpFR	2	3	n/a	SHUTTER	1300	0	n/a	n/a	n/a	n/a	n/a	n/a	n/a
3110880	RECOG_CONF	n/a	LTP241	ltpFR	2	3	n/a	SHUTTER	1300	n/a	5	n/a	n/a	n/a	n/a	n/a	n/a
3112704	RECOG_TARGET	n/a	LTP241	ltpFR	2	3	0	SWORD	1423	1	5	1	n/a	n/a	n/a	n/a	n/a
3113542	RECOG_RESP	n/a	LTP241	ltpFR	2	3	0	SWORD	1423	1	n/a	1	n/a	n/a	n/a	n/a	n/a
3114269	RECOG_CONF	n/a	LTP241	ltpFR	2	3	0	SWORD	1423	n/a	5	1	n/a	n/a	n/a	n/a	n/a
3115983	RECOG_LURE	n/a	LTP241	ltpFR	2	3	n/a	DOCTOR	478	0	5	n/a	n/a	n/a	n/a	n/a	n/a
3116781	RECOG_RESP	n/a	LTP241	ltpFR	2	3	n/a	DOCTOR	478	0	n/a	n/a	n/a	n/a	n/a	n/a	n/a
3117539	RECOG_CONF	n/a	LTP241	ltpFR	2	3	n/a	DOCTOR	478	n/a	5	n/a	n/a	n/a	n/a	n/a	n/a
3119262	RECOG_LURE	n/a	LTP241	ltpFR	2	3	n/a	SERVANT	1271	0	5	n/a	n/a	n/a	n/a	n/a	n/a
3120301	RECOG_RESP	n/a	LTP241	ltpFR	2	3	n/a	SERVANT	1271	0	n/a	n/a	n/a	n/a	n/a	n/a	n/a
3121116	RECOG_CONF	n/a	LTP241	ltpFR	2	3	n/a	SERVANT	1271	n/a	5	n/a	n/a	n/a	n/a	n/a	n/a
3122789	RECOG_LURE	n/a	LTP241	ltpFR	2	3	n/a	JOKER	759	0	5	n/a	n/a	n/a	n/a	n/a	n/a
3123581	RECOG_RESP	n/a	LTP241	ltpFR	2	3	n/a	JOKER	759	0	n/a	n/a	n/a	n/a	n/a	n/a	n/a
3124380	RECOG_CONF	n/a	LTP241	ltpFR	2	3	n/a	JOKER	759	n/a	5	n/a	n/a	n/a	n/a	n/a	n/a
3126018	RECOG_TARGET	n/a	LTP241	ltpFR	2	3	0	GARAGE	621	1	5	1	n/a	n/a	n/a	n/a	n/a
3126961	RECOG_RESP	n/a	LTP241	ltpFR	2	3	0	GARAGE	621	1	n/a	1	n/a	n/a	n/a	n/a	n/a
3127729	RECOG_CONF	n/a	LTP241	ltpFR	2	3	0	GARAGE	621	n/a	5	1	n/a	n/a	n/a	n/a	n/a
3129529	RECOG_TARGET	n/a	LTP241	ltpFR	2	3	0	WIRE	1616	1	5	1	n/a	n/a	n/a	n/a	n/a
3130402	RECOG_RESP	n/a	LTP241	ltpFR	2	3	0	WIRE	1616	1	n/a	1	n/a	n/a	n/a	n/a	n/a
3131112	RECOG_CONF	n/a	LTP241	ltpFR	2	3	0	WIRE	1616	n/a	5	1	n/a	n/a	n/a	n/a	n/a
3132807	RECOG_TARGET	n/a	LTP241	ltpFR	2	3	0	MARBLE	867	1	5	0	n/a	n/a	n/a	n/a	n/a
3133515	RECOG_RESP	n/a	LTP241	ltpFR	2	3	0	MARBLE	867	1	n/a	0	n/a	n/a	n/a	n/a	n/a
3134284	RECOG_CONF	n/a	LTP241	ltpFR	2	3	0	MARBLE	867	n/a	5	0	n/a	n/a	n/a	n/a	n/a
3142006	REC_START	n/a	LTP241	ltpFR	2	4	n/a	n/a	n/a	n/a	n/a	n/a	n/a	n/a	n/a	n/a	n/a
3142044	RECOG_TARGET	n/a	LTP241	ltpFR	2	4	0	NEWSSTAND	949	1	5	1	n/a	n/a	n/a	n/a	n/a
3142959	RECOG_RESP	n/a	LTP241	ltpFR	2	4	0	NEWSSTAND	949	1	n/a	1	n/a	n/a	n/a	n/a	n/a
3143702	RECOG_CONF	n/a	LTP241	ltpFR	2	4	0	NEWSSTAND	949	n/a	5	1	n/a	n/a	n/a	n/a	n/a
3145423	RECOG_LURE	n/a	LTP241	ltpFR	2	4	n/a	SPARROW	1347	0	3	n/a	n/a	n/a	n/a	n/a	n/a
3146618	RECOG_RESP	n/a	LTP241	ltpFR	2	4	n/a	SPARROW	1347	0	n/a	n/a	n/a	n/a	n/a	n/a	n/a
3147482	RECOG_CONF	n/a	LTP241	ltpFR	2	4	n/a	SPARROW	1347	n/a	3	n/a	n/a	n/a	n/a	n/a	n/a
3149051	RECOG_TARGET	n/a	LTP241	ltpFR	2	4	0	QUARTER	1148	1	5	0	n/a	n/a	n/a	n/a	n/a
3149805	RECOG_RESP	n/a	LTP241	ltpFR	2	4	0	QUARTER	1148	1	n/a	0	n/a	n/a	n/a	n/a	n/a
3150611	RECOG_CONF	n/a	LTP241	ltpFR	2	4	0	QUARTER	1148	n/a	5	0	n/a	n/a	n/a	n/a	n/a
3152096	RECOG_LURE	n/a	LTP241	ltpFR	2	4	n/a	LIGHTER	819	0	5	n/a	n/a	n/a	n/a	n/a	n/a
3153059	RECOG_RESP	n/a	LTP241	ltpFR	2	4	n/a	LIGHTER	819	0	n/a	n/a	n/a	n/a	n/a	n/a	n/a
3153836	RECOG_CONF	n/a	LTP241	ltpFR	2	4	n/a	LIGHTER	819	n/a	5	n/a	n/a	n/a	n/a	n/a	n/a
3155623	RECOG_TARGET	n/a	LTP241	ltpFR	2	4	1	PUPIL	1143	1	5	0	n/a	n/a	n/a	n/a	n/a
3156360	RECOG_RESP	n/a	LTP241	ltpFR	2	4	1	PUPIL	1143	1	n/a	0	n/a	n/a	n/a	n/a	n/a
3157121	RECOG_CONF	n/a	LTP241	ltpFR	2	4	1	PUPIL	1143	n/a	5	0	n/a	n/a	n/a	n/a	n/a
3158752	RECOG_LURE	n/a	LTP241	ltpFR	2	4	n/a	PRISON	1127	0	5	n/a	n/a	n/a	n/a	n/a	n/a
3159576	RECOG_RESP	n/a	LTP241	ltpFR	2	4	n/a	PRISON	1127	0	n/a	n/a	n/a	n/a	n/a	n/a	n/a
3160499	RECOG_CONF	n/a	LTP241	ltpFR	2	4	n/a	PRISON	1127	n/a	5	n/a	n/a	n/a	n/a	n/a	n/a
3161981	RECOG_LURE	n/a	LTP241	ltpFR	2	4	n/a	COD	340	0	4	n/a	n/a	n/a	n/a	n/a	n/a
3162896	RECOG_RESP	n/a	LTP241	ltpFR	2	4	n/a	COD	340	0	n/a	n/a	n/a	n/a	n/a	n/a	n/a
3164041	RECOG_CONF	n/a	LTP241	ltpFR	2	4	n/a	COD	340	n/a	4	n/a	n/a	n/a	n/a	n/a	n/a
3165675	RECOG_TARGET	n/a	LTP241	ltpFR	2	4	-1	PRUNE	1134	1	5	-1	n/a	n/a	n/a	n/a	n/a
3166529	RECOG_RESP	n/a	LTP241	ltpFR	2	4	-1	PRUNE	1134	1	n/a	-1	n/a	n/a	n/a	n/a	n/a
3167353	RECOG_CONF	n/a	LTP241	ltpFR	2	4	-1	PRUNE	1134	n/a	5	-1	n/a	n/a	n/a	n/a	n/a
3169037	RECOG_TARGET	n/a	LTP241	ltpFR	2	4	1	TORCH	1484	1	5	0	n/a	n/a	n/a	n/a	n/a
3169716	RECOG_RESP	n/a	LTP241	ltpFR	2	4	1	TORCH	1484	1	n/a	0	n/a	n/a	n/a	n/a	n/a
3170418	RECOG_CONF	n/a	LTP241	ltpFR	2	4	1	TORCH	1484	n/a	5	0	n/a	n/a	n/a	n/a	n/a
3172183	RECOG_TARGET	n/a	LTP241	ltpFR	2	4	1	PASSENGER	1020	1	5	1	n/a	n/a	n/a	n/a	n/a
3172908	RECOG_RESP	n/a	LTP241	ltpFR	2	4	1	PASSENGER	1020	1	n/a	1	n/a	n/a	n/a	n/a	n/a
3173610	RECOG_CONF	n/a	LTP241	ltpFR	2	4	1	PASSENGER	1020	n/a	5	1	n/a	n/a	n/a	n/a	n/a
3175295	RECOG_LURE	n/a	LTP241	ltpFR	2	4	n/a	JUDGE	761	0	2	n/a	n/a	n/a	n/a	n/a	n/a
3177258	RECOG_RESP	n/a	LTP241	ltpFR	2	4	n/a	JUDGE	761	0	n/a	n/a	n/a	n/a	n/a	n/a	n/a
3178272	RECOG_CONF	n/a	LTP241	ltpFR	2	4	n/a	JUDGE	761	n/a	2	n/a	n/a	n/a	n/a	n/a	n/a
3180020	RECOG_TARGET	n/a	LTP241	ltpFR	2	4	1	ESSAY	540	1	5	0	n/a	n/a	n/a	n/a	n/a
3180964	RECOG_RESP	n/a	LTP241	ltpFR	2	4	1	ESSAY	540	1	n/a	0	n/a	n/a	n/a	n/a	n/a
3181741	RECOG_CONF	n/a	LTP241	ltpFR	2	4	1	ESSAY	540	n/a	5	0	n/a	n/a	n/a	n/a	n/a
3183266	RECOG_LURE	n/a	LTP241	ltpFR	2	4	n/a	MARSH	874	0	5	n/a	n/a	n/a	n/a	n/a	n/a
3184019	RECOG_RESP	n/a	LTP241	ltpFR	2	4	n/a	MARSH	874	0	n/a	n/a	n/a	n/a	n/a	n/a	n/a
3184853	RECOG_CONF	n/a	LTP241	ltpFR	2	4	n/a	MARSH	874	n/a	5	n/a	n/a	n/a	n/a	n/a	n/a
3186345	RECOG_TARGET	n/a	LTP241	ltpFR	2	4	1	SALESMAN	1225	1	5	1	n/a	n/a	n/a	n/a	n/a
3187185	RECOG_RESP	n/a	LTP241	ltpFR	2	4	1	SALESMAN	1225	1	n/a	1	n/a	n/a	n/a	n/a	n/a
3188517	RECOG_CONF	n/a	LTP241	ltpFR	2	4	1	SALESMAN	1225	n/a	5	1	n/a	n/a	n/a	n/a	n/a
3190156	RECOG_LURE	n/a	LTP241	ltpFR	2	4	n/a	BOAT	144	0	2	n/a	n/a	n/a	n/a	n/a	n/a
3191077	RECOG_RESP	n/a	LTP241	ltpFR	2	4	n/a	BOAT	144	0	n/a	n/a	n/a	n/a	n/a	n/a	n/a
3192089	RECOG_CONF	n/a	LTP241	ltpFR	2	4	n/a	BOAT	144	n/a	2	n/a	n/a	n/a	n/a	n/a	n/a
3193617	RECOG_TARGET	n/a	LTP241	ltpFR	2	4	0	CONTAINER	366	1	5	1	n/a	n/a	n/a	n/a	n/a
3194559	RECOG_RESP	n/a	LTP241	ltpFR	2	4	0	CONTAINER	366	1	n/a	1	n/a	n/a	n/a	n/a	n/a
3195389	RECOG_CONF	n/a	LTP241	ltpFR	2	4	0	CONTAINER	366	n/a	5	1	n/a	n/a	n/a	n/a	n/a
3196912	RECOG_TARGET	n/a	LTP241	ltpFR	2	4	0	ROOT	1210	1	5	0	n/a	n/a	n/a	n/a	n/a
3198220	RECOG_RESP	n/a	LTP241	ltpFR	2	4	0	ROOT	1210	1	n/a	0	n/a	n/a	n/a	n/a	n/a
3198982	RECOG_CONF	n/a	LTP241	ltpFR	2	4	0	ROOT	1210	n/a	5	0	n/a	n/a	n/a	n/a	n/a
3200689	RECOG_LURE	n/a	LTP241	ltpFR	2	4	n/a	DOLPHIN	483	0	5	n/a	n/a	n/a	n/a	n/a	n/a
3201702	RECOG_RESP	n/a	LTP241	ltpFR	2	4	n/a	DOLPHIN	483	0	n/a	n/a	n/a	n/a	n/a	n/a	n/a
3202455	RECOG_CONF	n/a	LTP241	ltpFR	2	4	n/a	DOLPHIN	483	n/a	5	n/a	n/a	n/a	n/a	n/a	n/a
3204169	RECOG_TARGET	n/a	LTP241	ltpFR	2	4	1	STEAM	1375	1	3	0	n/a	n/a	n/a	n/a	n/a
3205592	RECOG_RESP	n/a	LTP241	ltpFR	2	4	1	STEAM	1375	1	n/a	0	n/a	n/a	n/a	n/a	n/a
3206664	RECOG_CONF	n/a	LTP241	ltpFR	2	4	1	STEAM	1375	n/a	3	0	n/a	n/a	n/a	n/a	n/a
3208346	RECOG_TARGET	n/a	LTP241	ltpFR	2	4	1	ROSE	1212	1	5	1	n/a	n/a	n/a	n/a	n/a
3209155	RECOG_RESP	n/a	LTP241	ltpFR	2	4	1	ROSE	1212	1	n/a	1	n/a	n/a	n/a	n/a	n/a
3209856	RECOG_CONF	n/a	LTP241	ltpFR	2	4	1	ROSE	1212	n/a	5	1	n/a	n/a	n/a	n/a	n/a
3216028	REC_START	n/a	LTP241	ltpFR	2	5	n/a	n/a	n/a	n/a	n/a	n/a	n/a	n/a	n/a	n/a	n/a
3216067	RECOG_LURE	n/a	LTP241	ltpFR	2	5	n/a	PUBLICATION	1136	0	5	n/a	n/a	n/a	n/a	n/a	n/a
3216891	RECOG_RESP	n/a	LTP241	ltpFR	2	5	n/a	PUBLICATION	1136	0	n/a	n/a	n/a	n/a	n/a	n/a	n/a
3217726	RECOG_CONF	n/a	LTP241	ltpFR	2	5	n/a	PUBLICATION	1136	n/a	5	n/a	n/a	n/a	n/a	n/a	n/a
3219363	RECOG_TARGET	n/a	LTP241	ltpFR	2	5	1	AUDIENCE	59	1	5	1	n/a	n/a	n/a	n/a	n/a
3220245	RECOG_RESP	n/a	LTP241	ltpFR	2	5	1	AUDIENCE	59	1	n/a	1	n/a	n/a	n/a	n/a	n/a
3221121	RECOG_CONF	n/a	LTP241	ltpFR	2	5	1	AUDIENCE	59	n/a	5	1	n/a	n/a	n/a	n/a	n/a
3222773	RECOG_LURE	n/a	LTP241	ltpFR	2	5	n/a	JURY	766	0	2	n/a	n/a	n/a	n/a	n/a	n/a
3223969	RECOG_RESP	n/a	LTP241	ltpFR	2	5	n/a	JURY	766	0	n/a	n/a	n/a	n/a	n/a	n/a	n/a
3224987	RECOG_CONF	n/a	LTP241	ltpFR	2	5	n/a	JURY	766	n/a	2	n/a	n/a	n/a	n/a	n/a	n/a
3226717	RECOG_TARGET	n/a	LTP241	ltpFR	2	5	0	LEAF	808	1	5	0	n/a	n/a	n/a	n/a	n/a
3227567	RECOG_RESP	n/a	LTP241	ltpFR	2	5	0	LEAF	808	1	n/a	0	n/a	n/a	n/a	n/a	n/a
3228282	RECOG_CONF	n/a	LTP241	ltpFR	2	5	0	LEAF	808	n/a	5	0	n/a	n/a	n/a	n/a	n/a
3230012	RECOG_TARGET	n/a	LTP241	ltpFR	2	5	-1	LOBSTER	837	1	5	-1	n/a	n/a	n/a	n/a	n/a
3230738	RECOG_RESP	n/a	LTP241	ltpFR	2	5	-1	LOBSTER	837	1	n/a	-1	n/a	n/a	n/a	n/a	n/a
3231446	RECOG_CONF	n/a	LTP241	ltpFR	2	5	-1	LOBSTER	837	n/a	5	-1	n/a	n/a	n/a	n/a	n/a
3233275	RECOG_TARGET	n/a	LTP241	ltpFR	2	5	0	CHIEF	298	0	2	1	n/a	n/a	n/a	n/a	n/a
3234701	RECOG_RESP	n/a	LTP241	ltpFR	2	5	0	CHIEF	298	0	n/a	1	n/a	n/a	n/a	n/a	n/a
3235609	RECOG_CONF	n/a	LTP241	ltpFR	2	5	0	CHIEF	298	n/a	2	1	n/a	n/a	n/a	n/a	n/a
3237253	RECOG_LURE	n/a	LTP241	ltpFR	2	5	n/a	MEADOW	881	0	4	n/a	n/a	n/a	n/a	n/a	n/a
3238485	RECOG_RESP	n/a	LTP241	ltpFR	2	5	n/a	MEADOW	881	0	n/a	n/a	n/a	n/a	n/a	n/a	n/a
3239498	RECOG_CONF	n/a	LTP241	ltpFR	2	5	n/a	MEADOW	881	n/a	4	n/a	n/a	n/a	n/a	n/a	n/a
3241213	RECOG_TARGET	n/a	LTP241	ltpFR	2	5	-1	FIN	566	1	5	-1	n/a	n/a	n/a	n/a	n/a
3241918	RECOG_RESP	n/a	LTP241	ltpFR	2	5	-1	FIN	566	1	n/a	-1	n/a	n/a	n/a	n/a	n/a
3242737	RECOG_CONF	n/a	LTP241	ltpFR	2	5	-1	FIN	566	n/a	5	-1	n/a	n/a	n/a	n/a	n/a
3244541	RECOG_LURE	n/a	LTP241	ltpFR	2	5	n/a	SCENERY	1247	0	4	n/a	n/a	n/a	n/a	n/a	n/a
3245461	RECOG_RESP	n/a	LTP241	ltpFR	2	5	n/a	SCENERY	1247	0	n/a	n/a	n/a	n/a	n/a	n/a	n/a
3246246	RECOG_CONF	n/a	LTP241	ltpFR	2	5	n/a	SCENERY	1247	n/a	4	n/a	n/a	n/a	n/a	n/a	n/a
3247902	RECOG_LURE	n/a	LTP241	ltpFR	2	5	n/a	PLAQUE	1084	0	5	n/a	n/a	n/a	n/a	n/a	n/a
3249020	RECOG_RESP	n/a	LTP241	ltpFR	2	5	n/a	PLAQUE	1084	0	n/a	n/a	n/a	n/a	n/a	n/a	n/a
3249996	RECOG_CONF	n/a	LTP241	ltpFR	2	5	n/a	PLAQUE	1084	n/a	5	n/a	n/a	n/a	n/a	n/a	n/a
3251580	RECOG_TARGET	n/a	LTP241	ltpFR	2	5	-1	MOTEL	919	1	5	-1	n/a	n/a	n/a	n/a	n/a
3252383	RECOG_RESP	n/a	LTP241	ltpFR	2	5	-1	MOTEL	919	1	n/a	-1	n/a	n/a	n/a	n/a	n/a
3253084	RECOG_CONF	n/a	LTP241	ltpFR	2	5	-1	MOTEL	919	n/a	5	-1	n/a	n/a	n/a	n/a	n/a
3254725	RECOG_TARGET	n/a	LTP241	ltpFR	2	5	1	CLOSET	326	1	5	0	n/a	n/a	n/a	n/a	n/a
3255619	RECOG_RESP	n/a	LTP241	ltpFR	2	5	1	CLOSET	326	1	n/a	0	n/a	n/a	n/a	n/a	n/a
3256478	RECOG_CONF	n/a	LTP241	ltpFR	2	5	1	CLOSET	326	n/a	5	0	n/a	n/a	n/a	n/a	n/a
3258055	RECOG_LURE	n/a	LTP241	ltpFR	2	5	n/a	PATIO	1025	0	2	n/a	n/a	n/a	n/a	n/a	n/a
3259628	RECOG_RESP	n/a	LTP241	ltpFR	2	5	n/a	PATIO	1025	0	n/a	n/a	n/a	n/a	n/a	n/a	n/a
3260891	RECOG_CONF	n/a	LTP241	ltpFR	2	5	n/a	PATIO	1025	n/a	2	n/a	n/a	n/a	n/a	n/a	n/a
3262547	RECOG_TARGET	n/a	LTP241	ltpFR	2	5	-1	APE	31	1	4	-1	n/a	n/a	n/a	n/a	n/a
3263502	RECOG_RESP	n/a	LTP241	ltpFR	2	5	-1	APE	31	1	n/a	-1	n/a	n/a	n/a	n/a	n/a
3264430	RECOG_CONF	n/a	LTP241	ltpFR	2	5	-1	APE	31	n/a	4	-1	n/a	n/a	n/a	n/a	n/a
3266126	RECOG_TARGET	n/a	LTP241	ltpFR	2	5	1	KNAPSACK	783	1	5	0	n/a	n/a	n/a	n/a	n/a
3266871	RECOG_RESP	n/a	LTP241	ltpFR	2	5	1	KNAPSACK	783	1	n/a	0	n/a	n/a	n/a	n/a	n/a
3267674	RECOG_CONF	n/a	LTP241	ltpFR	2	5	1	KNAPSACK	783	n/a	5	0	n/a	n/a	n/a	n/a	n/a
3269421	RECOG_TARGET	n/a	LTP241	ltpFR	2	5	-1	KANGAROO	768	1	5	-1	n/a	n/a	n/a	n/a	n/a
3270109	RECOG_RESP	n/a	LTP241	ltpFR	2	5	-1	KANGAROO	768	1	n/a	-1	n/a	n/a	n/a	n/a	n/a
3270872	RECOG_CONF	n/a	LTP241	ltpFR	2	5	-1	KANGAROO	768	n/a	5	-1	n/a	n/a	n/a	n/a	n/a
3272582	RECOG_TARGET	n/a	LTP241	ltpFR	2	5	1	WAVE	1596	1	5	0	n/a	n/a	n/a	n/a	n/a
3273385	RECOG_RESP	n/a	LTP241	ltpFR	2	5	1	WAVE	1596	1	n/a	0	n/a	n/a	n/a	n/a	n/a
3274205	RECOG_CONF	n/a	LTP241	ltpFR	2	5	1	WAVE	1596	n/a	5	0	n/a	n/a	n/a	n/a	n/a
3275894	RECOG_LURE	n/a	LTP241	ltpFR	2	5	n/a	HEN	703	0	4	n/a	n/a	n/a	n/a	n/a	n/a
3276794	RECOG_RESP	n/a	LTP241	ltpFR	2	5	n/a	HEN	703	0	n/a	n/a	n/a	n/a	n/a	n/a	n/a
3278202	RECOG_CONF	n/a	LTP241	ltpFR	2	5	n/a	HEN	703	n/a	4	n/a	n/a	n/a	n/a	n/a	n/a
3279805	RECOG_TARGET	n/a	LTP241	ltpFR	2	5	0	RECEPTIONIST	1174	1	5	1	n/a	n/a	n/a	n/a	n/a
3280620	RECOG_RESP	n/a	LTP241	ltpFR	2	5	0	RECEPTIONIST	1174	1	n/a	1	n/a	n/a	n/a	n/a	n/a
3281574	RECOG_CONF	n/a	LTP241	ltpFR	2	5	0	RECEPTIONIST	1174	n/a	5	1	n/a	n/a	n/a	n/a	n/a
3283101	RECOG_TARGET	n/a	LTP241	ltpFR	2	5	1	SPIDER	1351	1	5	0	n/a	n/a	n/a	n/a	n/a
3283885	RECOG_RESP	n/a	LTP241	ltpFR	2	5	1	SPIDER	1351	1	n/a	0	n/a	n/a	n/a	n/a	n/a
3284946	RECOG_CONF	n/a	LTP241	ltpFR	2	5	1	SPIDER	1351	n/a	5	0	n/a	n/a	n/a	n/a	n/a
3291336	REC_START	n/a	LTP241	ltpFR	2	6	n/a	n/a	n/a	n/a	n/a	n/a	n/a	n/a	n/a	n/a	n/a
3291372	RECOG_TARGET	n/a	LTP241	ltpFR	2	6	-1	SOCK	1339	1	5	-1	n/a	n/a	n/a	n/a	n/a
3292097	RECOG_RESP	n/a	LTP241	ltpFR	2	6	-1	SOCK	1339	1	n/a	-1	n/a	n/a	n/a	n/a	n/a
3292773	RECOG_CONF	n/a	LTP241	ltpFR	2	6	-1	SOCK	1339	n/a	5	-1	n/a	n/a	n/a	n/a	n/a
3294434	RECOG_LURE	n/a	LTP241	ltpFR	2	6	n/a	LIMB	822	0	5	n/a	n/a	n/a	n/a	n/a	n/a
3295184	RECOG_RESP	n/a	LTP241	ltpFR	2	6	n/a	LIMB	822	0	n/a	n/a	n/a	n/a	n/a	n/a	n/a
3295851	RECOG_CONF	n/a	LTP241	ltpFR	2	6	n/a	LIMB	822	n/a	5	n/a	n/a	n/a	n/a	n/a	n/a
3297446	RECOG_TARGET	n/a	LTP241	ltpFR	2	6	1	POET	1095	1	5	1	n/a	n/a	n/a	n/a	n/a
3298074	RECOG_RESP	n/a	LTP241	ltpFR	2	6	1	POET	1095	1	n/a	1	n/a	n/a	n/a	n/a	n/a
3298784	RECOG_CONF	n/a	LTP241	ltpFR	2	6	1	POET	1095	n/a	5	1	n/a	n/a	n/a	n/a	n/a
3300441	RECOG_TARGET	n/a	LTP241	ltpFR	2	6	1	SCARECROW	1245	1	5	0	n/a	n/a	n/a	n/a	n/a
3301125	RECOG_RESP	n/a	LTP241	ltpFR	2	6	1	SCARECROW	1245	1	n/a	0	n/a	n/a	n/a	n/a	n/a
3302017	RECOG_CONF	n/a	LTP241	ltpFR	2	6	1	SCARECROW	1245	n/a	5	0	n/a	n/a	n/a	n/a	n/a
3303602	RECOG_LURE	n/a	LTP241	ltpFR	2	6	n/a	CHICKEN	297	0	5	n/a	n/a	n/a	n/a	n/a	n/a
3304349	RECOG_RESP	n/a	LTP241	ltpFR	2	6	n/a	CHICKEN	297	0	n/a	n/a	n/a	n/a	n/a	n/a	n/a
3305033	RECOG_CONF	n/a	LTP241	ltpFR	2	6	n/a	CHICKEN	297	n/a	5	n/a	n/a	n/a	n/a	n/a	n/a
3306764	RECOG_TARGET	n/a	LTP241	ltpFR	2	6	-1	GALLON	618	1	5	-1	n/a	n/a	n/a	n/a	n/a
3307587	RECOG_RESP	n/a	LTP241	ltpFR	2	6	-1	GALLON	618	1	n/a	-1	n/a	n/a	n/a	n/a	n/a
3308372	RECOG_CONF	n/a	LTP241	ltpFR	2	6	-1	GALLON	618	n/a	5	-1	n/a	n/a	n/a	n/a	n/a
3309910	RECOG_LURE	n/a	LTP241	ltpFR	2	6	n/a	COAT	333	0	2	n/a	n/a	n/a	n/a	n/a	n/a
3310984	RECOG_RESP	n/a	LTP241	ltpFR	2	6	n/a	COAT	333	0	n/a	n/a	n/a	n/a	n/a	n/a	n/a
3311979	RECOG_CONF	n/a	LTP241	ltpFR	2	6	n/a	COAT	333	n/a	2	n/a	n/a	n/a	n/a	n/a	n/a
3313554	RECOG_TARGET	n/a	LTP241	ltpFR	2	6	0	WHISKERS	1605	1	5	0	n/a	n/a	n/a	n/a	n/a
3314362	RECOG_RESP	n/a	LTP241	ltpFR	2	6	0	WHISKERS	1605	1	n/a	0	n/a	n/a	n/a	n/a	n/a
3315117	RECOG_CONF	n/a	LTP241	ltpFR	2	6	0	WHISKERS	1605	n/a	5	0	n/a	n/a	n/a	n/a	n/a
3316683	RECOG_TARGET	n/a	LTP241	ltpFR	2	6	0	SAND	1230	1	5	1	n/a	n/a	n/a	n/a	n/a
3317471	RECOG_RESP	n/a	LTP241	ltpFR	2	6	0	SAND	1230	1	n/a	1	n/a	n/a	n/a	n/a	n/a
3318260	RECOG_CONF	n/a	LTP241	ltpFR	2	6	0	SAND	1230	n/a	5	1	n/a	n/a	n/a	n/a	n/a
3319861	RECOG_LURE	n/a	LTP241	ltpFR	2	6	n/a	PILLOW	1069	0	4	n/a	n/a	n/a	n/a	n/a	n/a
3320703	RECOG_RESP	n/a	LTP241	ltpFR	2	6	n/a	PILLOW	1069	0	n/a	n/a	n/a	n/a	n/a	n/a	n/a
3321384	RECOG_CONF	n/a	LTP241	ltpFR	2	6	n/a	PILLOW	1069	n/a	4	n/a	n/a	n/a	n/a	n/a	n/a
3323191	RECOG_TARGET	n/a	LTP241	ltpFR	2	6	1	FUR	615	1	5	1	n/a	n/a	n/a	n/a	n/a
3324105	RECOG_RESP	n/a	LTP241	ltpFR	2	6	1	FUR	615	1	n/a	1	n/a	n/a	n/a	n/a	n/a
3324787	RECOG_CONF	n/a	LTP241	ltpFR	2	6	1	FUR	615	n/a	5	1	n/a	n/a	n/a	n/a	n/a
3326551	RECOG_TARGET	n/a	LTP241	ltpFR	2	6	1	CRACKER	398	1	5	0	n/a	n/a	n/a	n/a	n/a
3327302	RECOG_RESP	n/a	LTP241	ltpFR	2	6	1	CRACKER	398	1	n/a	0	n/a	n/a	n/a	n/a	n/a
3328056	RECOG_CONF	n/a	LTP241	ltpFR	2	6	1	CRACKER	398	n/a	5	0	n/a	n/a	n/a	n/a	n/a
3329763	RECOG_LURE	n/a	LTP241	ltpFR	2	6	n/a	OVAL	990	0	5	n/a	n/a	n/a	n/a	n/a	n/a
3330682	RECOG_RESP	n/a	LTP241	ltpFR	2	6	n/a	OVAL	990	0	n/a	n/a	n/a	n/a	n/a	n/a	n/a
3331339	RECOG_CONF	n/a	LTP241	ltpFR	2	6	n/a	OVAL	990	n/a	5	n/a	n/a	n/a	n/a	n/a	n/a
3333143	RECOG_LURE	n/a	LTP241	ltpFR	2	6	n/a	TOMB	1477	0	5	n/a	n/a	n/a	n/a	n/a	n/a
3334303	RECOG_RESP	n/a	LTP241	ltpFR	2	6	n/a	TOMB	1477	0	n/a	n/a	n/a	n/a	n/a	n/a	n/a
3335472	RECOG_CONF	n/a	LTP241	ltpFR	2	6	n/a	TOMB	1477	n/a	5	n/a	n/a	n/a	n/a	n/a	n/a
3337087	RECOG_LURE	n/a	LTP241	ltpFR	2	6	n/a	BANNER	85	0	4	n/a	n/a	n/a	n/a	n/a	n/a
3338045	RECOG_RESP	n/a	LTP241	ltpFR	2	6	n/a	BANNER	85	0	n/a	n/a	n/a	n/a	n/a	n/a	n/a
3339170	RECOG_CONF	n/a	LTP241	ltpFR	2	6	n/a	BANNER	85	n/a	4	n/a	n/a	n/a	n/a	n/a	n/a
3340813	RECOG_TARGET	n/a	LTP241	ltpFR	2	6	1	OATMEAL	967	1	5	0	n/a	n/a	n/a	n/a	n/a
3341637	RECOG_RESP	n/a	LTP241	ltpFR	2	6	1	OATMEAL	967	1	n/a	0	n/a	n/a	n/a	n/a	n/a
3342395	RECOG_CONF	n/a	LTP241	ltpFR	2	6	1	OATMEAL	967	n/a	5	0	n/a	n/a	n/a	n/a	n/a
3344009	RECOG_LURE	n/a	LTP241	ltpFR	2	6	n/a	SURGEON	1413	0	4	n/a	n/a	n/a	n/a	n/a	n/a
3344977	RECOG_RESP	n/a	LTP241	ltpFR	2	6	n/a	SURGEON	1413	0	n/a	n/a	n/a	n/a	n/a	n/a	n/a
3345751	RECOG_CONF	n/a	LTP241	ltpFR	2	6	n/a	SURGEON	1413	n/a	4	n/a	n/a	n/a	n/a	n/a	n/a
3347553	RECOG_TARGET	n/a	LTP241	ltpFR	2	6	0	SIREN	1310	1	5	0	n/a	n/a	n/a	n/a	n/a
3348483	RECOG_RESP	n/a	LTP241	ltpFR	2	6	0	SIREN	1310	1	n/a	0	n/a	n/a	n/a	n/a	n/a
3349205	RECOG_CONF	n/a	LTP241	ltpFR	2	6	0	SIREN	1310	n/a	5	0	n/a	n/a	n/a	n/a	n/a
3350815	RECOG_LURE	n/a	LTP241	ltpFR	2	6	n/a	BRAIN	165	0	5	n/a	n/a	n/a	n/a	n/a	n/a
3351891	RECOG_RESP	n/a	LTP241	ltpFR	2	6	n/a	BRAIN	165	0	n/a	n/a	n/a	n/a	n/a	n/a	n/a
3352499	RECOG_CONF	n/a	LTP241	ltpFR	2	6	n/a	BRAIN	165	n/a	5	n/a	n/a	n/a	n/a	n/a	n/a
3354328	RECOG_TARGET	n/a	LTP241	ltpFR	2	6	0	KEEPER	769	1	4	1	n/a	n/a	n/a	n/a	n/a
3355854	RECOG_RESP	n/a	LTP241	ltpFR	2	6	0	KEEPER	769	1	n/a	1	n/a	n/a	n/a	n/a	n/a
3356615	RECOG_CONF	n/a	LTP241	ltpFR	2	6	0	KEEPER	769	n/a	4	1	n/a	n/a	n/a	n/a	n/a
3371165	REC_START	n/a	LTP241	ltpFR	2	7	n/a	n/a	n/a	n/a	n/a	n/a	n/a	n/a	n/a	n/a	n/a
3371202	RECOG_TARGET	n/a	LTP241	ltpFR	2	7	-1	OCTOPUS	971	1	5	-1	n/a	n/a	n/a	n/a	n/a
3372092	RECOG_RESP	n/a	LTP241	ltpFR	2	7	-1	OCTOPUS	971	1	n/a	-1	n/a	n/a	n/a	n/a	n/a
3372886	RECOG_CONF	n/a	LTP241	ltpFR	2	7	-1	OCTOPUS	971	n/a	5	-1	n/a	n/a	n/a	n/a	n/a
3374646	RECOG_TARGET	n/a	LTP241	ltpFR	2	7	1	COMB	351	1	5	0	n/a	n/a	n/a	n/a	n/a
3375515	RECOG_RESP	n/a	LTP241	ltpFR	2	7	1	COMB	351	1	n/a	0	n/a	n/a	n/a	n/a	n/a
3376239	RECOG_CONF	n/a	LTP241	ltpFR	2	7	1	COMB	351	n/a	5	0	n/a	n/a	n/a	n/a	n/a
3377958	RECOG_TARGET	n/a	LTP241	ltpFR	2	7	1	TREE	1502	1	5	1	n/a	n/a	n/a	n/a	n/a
3378627	RECOG_RESP	n/a	LTP241	ltpFR	2	7	1	TREE	1502	1	n/a	1	n/a	n/a	n/a	n/a	n/a
3379397	RECOG_CONF	n/a	LTP241	ltpFR	2	7	1	TREE	1502	n/a	5	1	n/a	n/a	n/a	n/a	n/a
3381188	RECOG_LURE	n/a	LTP241	ltpFR	2	7	n/a	GHOST	634	0	5	n/a	n/a	n/a	n/a	n/a	n/a
3381968	RECOG_RESP	n/a	LTP241	ltpFR	2	7	n/a	GHOST	634	0	n/a	n/a	n/a	n/a	n/a	n/a	n/a
3382943	RECOG_CONF	n/a	LTP241	ltpFR	2	7	n/a	GHOST	634	n/a	5	n/a	n/a	n/a	n/a	n/a	n/a
3384698	RECOG_LURE	n/a	LTP241	ltpFR	2	7	n/a	PRINCE	1124	0	5	n/a	n/a	n/a	n/a	n/a	n/a
3385554	RECOG_RESP	n/a	LTP241	ltpFR	2	7	n/a	PRINCE	1124	0	n/a	n/a	n/a	n/a	n/a	n/a	n/a
3386360	RECOG_CONF	n/a	LTP241	ltpFR	2	7	n/a	PRINCE	1124	n/a	5	n/a	n/a	n/a	n/a	n/a	n/a
3388043	RECOG_LURE	n/a	LTP241	ltpFR	2	7	n/a	DUSTPAN	509	0	5	n/a	n/a	n/a	n/a	n/a	n/a
3389048	RECOG_RESP	n/a	LTP241	ltpFR	2	7	n/a	DUSTPAN	509	0	n/a	n/a	n/a	n/a	n/a	n/a	n/a
3389789	RECOG_CONF	n/a	LTP241	ltpFR	2	7	n/a	DUSTPAN	509	n/a	5	n/a	n/a	n/a	n/a	n/a	n/a
3391456	RECOG_TARGET	n/a	LTP241	ltpFR	2	7	0	WINGS	1614	1	5	1	n/a	n/a	n/a	n/a	n/a
3392241	RECOG_RESP	n/a	LTP241	ltpFR	2	7	0	WINGS	1614	1	n/a	1	n/a	n/a	n/a	n/a	n/a
3392896	RECOG_CONF	n/a	LTP241	ltpFR	2	7	0	WINGS	1614	n/a	5	1	n/a	n/a	n/a	n/a	n/a
3394633	RECOG_LURE	n/a	LTP241	ltpFR	2	7	n/a	MOB	904	0	3	n/a	n/a	n/a	n/a	n/a	n/a
3395623	RECOG_RESP	n/a	LTP241	ltpFR	2	7	n/a	MOB	904	0	n/a	n/a	n/a	n/a	n/a	n/a	n/a
3396473	RECOG_CONF	n/a	LTP241	ltpFR	2	7	n/a	MOB	904	n/a	3	n/a	n/a	n/a	n/a	n/a	n/a
3398295	RECOG_TARGET	n/a	LTP241	ltpFR	2	7	0	ROD	1203	1	5	0	n/a	n/a	n/a	n/a	n/a
3399041	RECOG_RESP	n/a	LTP241	ltpFR	2	7	0	ROD	1203	1	n/a	0	n/a	n/a	n/a	n/a	n/a
3399865	RECOG_CONF	n/a	LTP241	ltpFR	2	7	0	ROD	1203	n/a	5	0	n/a	n/a	n/a	n/a	n/a
3401374	RECOG_LURE	n/a	LTP241	ltpFR	2	7	n/a	EMPEROR	529	0	4	n/a	n/a	n/a	n/a	n/a	n/a
3402414	RECOG_RESP	n/a	LTP241	ltpFR	2	7	n/a	EMPEROR	529	0	n/a	n/a	n/a	n/a	n/a	n/a	n/a
3403592	RECOG_CONF	n/a	LTP241	ltpFR	2	7	n/a	EMPEROR	529	n/a	4	n/a	n/a	n/a	n/a	n/a	n/a
3405385	RECOG_LURE	n/a	LTP241	ltpFR	2	7	n/a	TOENAIL	1474	1	1	n/a	n/a	n/a	n/a	n/a	n/a
3406555	RECOG_RESP	n/a	LTP241	ltpFR	2	7	n/a	TOENAIL	1474	1	n/a	n/a	n/a	n/a	n/a	n/a	n/a
3408553	RECOG_CONF	n/a	LTP241	ltpFR	2	7	n/a	TOENAIL	1474	n/a	1	n/a	n/a	n/a	n/a	n/a	n/a
3410277	RECOG_LURE	n/a	LTP241	ltpFR	2	7	n/a	BINDER	127	0	4	n/a	n/a	n/a	n/a	n/a	n/a
3411530	RECOG_RESP	n/a	LTP241	ltpFR	2	7	n/a	BINDER	127	0	n/a	n/a	n/a	n/a	n/a	n/a	n/a
3412654	RECOG_CONF	n/a	LTP241	ltpFR	2	7	n/a	BINDER	127	n/a	4	n/a	n/a	n/a	n/a	n/a	n/a
3414388	RECOG_LURE	n/a	LTP241	ltpFR	2	7	n/a	SANDPAPER	1231	1	4	n/a	n/a	n/a	n/a	n/a	n/a
3416264	RECOG_RESP	n/a	LTP241	ltpFR	2	7	n/a	SANDPAPER	1231	1	n/a	n/a	n/a	n/a	n/a	n/a	n/a
3417479	RECOG_CONF	n/a	LTP241	ltpFR	2	7	n/a	SANDPAPER	1231	n/a	4	n/a	n/a	n/a	n/a	n/a	n/a
3419264	RECOG_TARGET	n/a	LTP241	ltpFR	2	7	1	PICKLE	1059	1	5	0	n/a	n/a	n/a	n/a	n/a
3419992	RECOG_RESP	n/a	LTP241	ltpFR	2	7	1	PICKLE	1059	1	n/a	0	n/a	n/a	n/a	n/a	n/a
3420775	RECOG_CONF	n/a	LTP241	ltpFR	2	7	1	PICKLE	1059	n/a	5	0	n/a	n/a	n/a	n/a	n/a
3422591	RECOG_TARGET	n/a	LTP241	ltpFR	2	7	-1	VALVE	1546	1	5	-1	n/a	n/a	n/a	n/a	n/a
3423447	RECOG_RESP	n/a	LTP241	ltpFR	2	7	-1	VALVE	1546	1	n/a	-1	n/a	n/a	n/a	n/a	n/a
3424190	RECOG_CONF	n/a	LTP241	ltpFR	2	7	-1	VALVE	1546	n/a	5	-1	n/a	n/a	n/a	n/a	n/a
3425953	RECOG_TARGET	n/a	LTP241	ltpFR	2	7	1	HIGHWAY	707	1	5	0	n/a	n/a	n/a	n/a	n/a
3426702	RECOG_RESP	n/a	LTP241	ltpFR	2	7	1	HIGHWAY	707	1	n/a	0	n/a	n/a	n/a	n/a	n/a
3427466	RECOG_CONF	n/a	LTP241	ltpFR	2	7	1	HIGHWAY	707	n/a	5	0	n/a	n/a	n/a	n/a	n/a
3429249	RECOG_TARGET	n/a	LTP241	ltpFR	2	7	-1	ELECTRICIAN	521	1	5	-1	n/a	n/a	n/a	n/a	n/a
3430025	RECOG_RESP	n/a	LTP241	ltpFR	2	7	-1	ELECTRICIAN	521	1	n/a	-1	n/a	n/a	n/a	n/a	n/a
3430831	RECOG_CONF	n/a	LTP241	ltpFR	2	7	-1	ELECTRICIAN	521	n/a	5	-1	n/a	n/a	n/a	n/a	n/a
3432461	RECOG_LURE	n/a	LTP241	ltpFR	2	7	n/a	JELLO	754	0	5	n/a	n/a	n/a	n/a	n/a	n/a
3433736	RECOG_RESP	n/a	LTP241	ltpFR	2	7	n/a	JELLO	754	0	n/a	n/a	n/a	n/a	n/a	n/a	n/a
3434606	RECOG_CONF	n/a	LTP241	ltpFR	2	7	n/a	JELLO	754	n/a	5	n/a	n/a	n/a	n/a	n/a	n/a
3436289	RECOG_TARGET	n/a	LTP241	ltpFR	2	7	1	PAVEMENT	1028	1	5	0	n/a	n/a	n/a	n/a	n/a
3437089	RECOG_RESP	n/a	LTP241	ltpFR	2	7	1	PAVEMENT	1028	1	n/a	0	n/a	n/a	n/a	n/a	n/a
3437840	RECOG_CONF	n/a	LTP241	ltpFR	2	7	1	PAVEMENT	1028	n/a	5	0	n/a	n/a	n/a	n/a	n/a
3439599	RECOG_TARGET	n/a	LTP241	ltpFR	2	7	-1	LADY	794	1	5	-1	n/a	n/a	n/a	n/a	n/a
3440532	RECOG_RESP	n/a	LTP241	ltpFR	2	7	-1	LADY	794	1	n/a	-1	n/a	n/a	n/a	n/a	n/a
3441490	RECOG_CONF	n/a	LTP241	ltpFR	2	7	-1	LADY	794	n/a	5	-1	n/a	n/a	n/a	n/a	n/a
3450503	REC_START	n/a	LTP241	ltpFR	2	8	n/a	n/a	n/a	n/a	n/a	n/a	n/a	n/a	n/a	n/a	n/a
3450533	RECOG_TARGET	n/a	LTP241	ltpFR	2	8	-1	SCALPEL	1243	1	5	-1	n/a	n/a	n/a	n/a	n/a
3451315	RECOG_RESP	n/a	LTP241	ltpFR	2	8	-1	SCALPEL	1243	1	n/a	-1	n/a	n/a	n/a	n/a	n/a
3452135	RECOG_CONF	n/a	LTP241	ltpFR	2	8	-1	SCALPEL	1243	n/a	5	-1	n/a	n/a	n/a	n/a	n/a
3453945	RECOG_LURE	n/a	LTP241	ltpFR	2	8	n/a	PECAN	1036	0	5	n/a	n/a	n/a	n/a	n/a	n/a
3454854	RECOG_RESP	n/a	LTP241	ltpFR	2	8	n/a	PECAN	1036	0	n/a	n/a	n/a	n/a	n/a	n/a	n/a
3455736	RECOG_CONF	n/a	LTP241	ltpFR	2	8	n/a	PECAN	1036	n/a	5	n/a	n/a	n/a	n/a	n/a	n/a
3457224	RECOG_TARGET	n/a	LTP241	ltpFR	2	8	-1	TAR	1435	1	5	-1	n/a	n/a	n/a	n/a	n/a
3458083	RECOG_RESP	n/a	LTP241	ltpFR	2	8	-1	TAR	1435	1	n/a	-1	n/a	n/a	n/a	n/a	n/a
3458830	RECOG_CONF	n/a	LTP241	ltpFR	2	8	-1	TAR	1435	n/a	5	-1	n/a	n/a	n/a	n/a	n/a
3460535	RECOG_LURE	n/a	LTP241	ltpFR	2	8	n/a	GUEST	669	0	3	n/a	n/a	n/a	n/a	n/a	n/a
3461573	RECOG_RESP	n/a	LTP241	ltpFR	2	8	n/a	GUEST	669	0	n/a	n/a	n/a	n/a	n/a	n/a	n/a
3462700	RECOG_CONF	n/a	LTP241	ltpFR	2	8	n/a	GUEST	669	n/a	3	n/a	n/a	n/a	n/a	n/a	n/a
3464413	RECOG_LURE	n/a	LTP241	ltpFR	2	8	n/a	YOLK	1633	0	5	n/a	n/a	n/a	n/a	n/a	n/a
3465218	RECOG_RESP	n/a	LTP241	ltpFR	2	8	n/a	YOLK	1633	0	n/a	n/a	n/a	n/a	n/a	n/a	n/a
3466112	RECOG_CONF	n/a	LTP241	ltpFR	2	8	n/a	YOLK	1633	n/a	5	n/a	n/a	n/a	n/a	n/a	n/a
3467641	RECOG_TARGET	n/a	LTP241	ltpFR	2	8	1	VINE	1568	1	5	1	n/a	n/a	n/a	n/a	n/a
3468267	RECOG_RESP	n/a	LTP241	ltpFR	2	8	1	VINE	1568	1	n/a	1	n/a	n/a	n/a	n/a	n/a
3469096	RECOG_CONF	n/a	LTP241	ltpFR	2	8	1	VINE	1568	n/a	5	1	n/a	n/a	n/a	n/a	n/a
3470670	RECOG_TARGET	n/a	LTP241	ltpFR	2	8	-1	CORK	380	1	5	-1	n/a	n/a	n/a	n/a	n/a
3471493	RECOG_RESP	n/a	LTP241	ltpFR	2	8	-1	CORK	380	1	n/a	-1	n/a	n/a	n/a	n/a	n/a
3472212	RECOG_CONF	n/a	LTP241	ltpFR	2	8	-1	CORK	380	n/a	5	-1	n/a	n/a	n/a	n/a	n/a
3473815	RECOG_LURE	n/a	LTP241	ltpFR	2	8	n/a	SLEIGH	1325	0	3	n/a	n/a	n/a	n/a	n/a	n/a
3474688	RECOG_RESP	n/a	LTP241	ltpFR	2	8	n/a	SLEIGH	1325	0	n/a	n/a	n/a	n/a	n/a	n/a	n/a
3476080	RECOG_CONF	n/a	LTP241	ltpFR	2	8	n/a	SLEIGH	1325	n/a	3	n/a	n/a	n/a	n/a	n/a	n/a
