onset	duration	trial_type	sample	stim_file	subject	experiment	session	trial	task	item_name	item_num	recog_resp	recog_conf	resp	color_r	color_g	color_b	case	font
334.432	n/a	SESS_START	167216	n/a	LTP093	ltpFR	1	n/a	n/a	n/a	n/a	0	3	n/a	n/a	n/a	n/a	n/a	n/a
453.712	n/a	WORD	226856	wordpools/wasnorm_wordpool.txt	LTP093	ltpFR	1	1	0	ANTELOPE	27	1	n/a	1	0.422607421875	0.5869140625	0	lower	amplitud.ttf
457.684	n/a	WORD	228842	wordpools/wasnorm_wordpool.txt	LTP093	ltpFR	1	1	0	BANQUET	86	n/a	n/a	1	0.422607421875	0.5869140625	0	lower	amplitud.ttf
461.62	n/a	WORD	230810	wordpools/wasnorm_wordpool.txt	LTP093	ltpFR	1	1	0	LAKE	796	n/a	n/a	1	0.422607421875	0.5869140625	0	lower	amplitud.ttf
465.482	n/a	WORD	232741	wordpools/wasnorm_wordpool.txt	LTP093	ltpFR	1	1	0	SHEEP	1278	n/a	n/a	0	0.422607421875	0.5869140625	0	lower	amplitud.ttf
469.594	n/a	WORD	234797	wordpools/wasnorm_wordpool.txt	LTP093	ltpFR	1	1	1	COTTON	385	n/a	n/a	0	0.57763671875	0.412841796875	1	upper	zerothre.ttf
473.44	n/a	WORD	236720	wordpools/wasnorm_wordpool.txt	LTP093	ltpFR	1	1	1	EMPLOYEE	531	n/a	n/a	1	0.57763671875	0.412841796875	1	upper	zerothre.ttf
477.368	n/a	WORD	238684	wordpools/wasnorm_wordpool.txt	LTP093	ltpFR	1	1	1	CRIMINAL	409	n/a	n/a	1	0.57763671875	0.412841796875	1	upper	zerothre.ttf
481.464	n/a	WORD	240732	wordpools/wasnorm_wordpool.txt	LTP093	ltpFR	1	1	1	SPONGE	1355	n/a	n/a	0	0.57763671875	0.412841796875	1	upper	zerothre.ttf
485.568	n/a	WORD	242784	wordpools/wasnorm_wordpool.txt	LTP093	ltpFR	1	1	0	TIDE	1465	n/a	n/a	1	0.422607421875	0.5869140625	0	lower	amplitud.ttf
489.63	n/a	WORD	244815	wordpools/wasnorm_wordpool.txt	LTP093	ltpFR	1	1	0	SNORKEL	1336	n/a	n/a	0	0.422607421875	0.5869140625	0	lower	amplitud.ttf
493.516	n/a	WORD	246758	wordpools/wasnorm_wordpool.txt	LTP093	ltpFR	1	1	0	SLACKS	1323	n/a	n/a	0	0.422607421875	0.5869140625	0	lower	amplitud.ttf
497.554	n/a	WORD	248777	wordpools/wasnorm_wordpool.txt	LTP093	ltpFR	1	1	0	SHORTCAKE	1292	n/a	n/a	0	0.422607421875	0.5869140625	0	lower	amplitud.ttf
501.69	n/a	WORD	250845	wordpools/wasnorm_wordpool.txt	LTP093	ltpFR	1	1	1	PRESIDENT	1121	n/a	n/a	1	0.57763671875	0.412841796875	1	upper	zerothre.ttf
505.71	n/a	WORD	252855	wordpools/wasnorm_wordpool.txt	LTP093	ltpFR	1	1	1	BUTTON	207	n/a	n/a	0	0.57763671875	0.412841796875	1	upper	zerothre.ttf
509.74	n/a	WORD	254870	wordpools/wasnorm_wordpool.txt	LTP093	ltpFR	1	1	1	MARBLE	867	n/a	n/a	0	0.57763671875	0.412841796875	1	upper	zerothre.ttf
513.67	n/a	WORD	256835	wordpools/wasnorm_wordpool.txt	LTP093	ltpFR	1	1	1	BOULDER	155	n/a	n/a	0	0.57763671875	0.412841796875	1	upper	zerothre.ttf
519.456	n/a	REC_START	259728	n/a	LTP093	ltpFR	1	1	n/a	n/a	n/a	n/a	n/a	n/a	n/a	n/a	n/a	n/a	n/a
520.248	n/a	REC_WORD	260124	wordpools/wasnorm_wordpool.txt	LTP093	ltpFR	1	1	1	BOULDER	155	n/a	n/a	0	n/a	n/a	n/a	n/a	n/a
521.206	n/a	REC_WORD	260603	wordpools/wasnorm_wordpool.txt	LTP093	ltpFR	1	1	1	COTTON	385	n/a	n/a	0	n/a	n/a	n/a	n/a	n/a
522.318	n/a	REC_WORD	261159	wordpools/wasnorm_wordpool.txt	LTP093	ltpFR	1	1	1	PRESIDENT	1121	n/a	n/a	1	n/a	n/a	n/a	n/a	n/a
523.784	n/a	REC_WORD_VV	261892	wordpools/wasnorm_wordpool.txt	LTP093	ltpFR	1	1	n/a	<>	-1	n/a	n/a	n/a	n/a	n/a	n/a	n/a	n/a
524.154	n/a	REC_WORD	262077	wordpools/wasnorm_wordpool.txt	LTP093	ltpFR	1	1	0	ANTELOPE	27	n/a	n/a	1	n/a	n/a	n/a	n/a	n/a
525.192	n/a	REC_WORD	262596	wordpools/wasnorm_wordpool.txt	LTP093	ltpFR	1	1	0	LAKE	796	n/a	n/a	1	n/a	n/a	n/a	n/a	n/a
527.712	n/a	REC_WORD	263856	wordpools/wasnorm_wordpool.txt	LTP093	ltpFR	1	1	1	SPONGE	1355	n/a	n/a	0	n/a	n/a	n/a	n/a	n/a
530.112	n/a	REC_WORD	265056	wordpools/wasnorm_wordpool.txt	LTP093	ltpFR	1	1	0	SLACKS	1323	n/a	n/a	0	n/a	n/a	n/a	n/a	n/a
567.58	n/a	REC_WORD	283790	wordpools/wasnorm_wordpool.txt	LTP093	ltpFR	1	1	1	EMPLOYEE	531	n/a	n/a	1	n/a	n/a	n/a	n/a	n/a
568.928	n/a	REC_WORD	284464	wordpools/wasnorm_wordpool.txt	LTP093	ltpFR	1	1	1	CRIMINAL	409	n/a	n/a	1	n/a	n/a	n/a	n/a	n/a
583.38	n/a	REC_WORD	291690	wordpools/wasnorm_wordpool.txt	LTP093	ltpFR	1	1	1	BOULDER	155	n/a	n/a	0	n/a	n/a	n/a	n/a	n/a
613.422	n/a	WORD	306711	wordpools/wasnorm_wordpool.txt	LTP093	ltpFR	1	2	1	COCOON	339	n/a	n/a	1	0.57763671875	0.412841796875	1	upper	zerothre.ttf
617.276	n/a	WORD	308638	wordpools/wasnorm_wordpool.txt	LTP093	ltpFR	1	2	1	ARCHITECT	36	n/a	n/a	1	0.57763671875	0.412841796875	1	upper	zerothre.ttf
621.288	n/a	WORD	310644	wordpools/wasnorm_wordpool.txt	LTP093	ltpFR	1	2	0	FLAG	573	n/a	n/a	0	0.422607421875	0.5869140625	0	lower	amplitud.ttf
625.474	n/a	WORD	312737	wordpools/wasnorm_wordpool.txt	LTP093	ltpFR	1	2	0	BUYER	208	n/a	n/a	0	0.422607421875	0.5869140625	0	lower	amplitud.ttf
629.444	n/a	WORD	314722	wordpools/wasnorm_wordpool.txt	LTP093	ltpFR	1	2	1	CELLO	268	n/a	n/a	0	0.57763671875	0.412841796875	1	upper	zerothre.ttf
633.324	n/a	WORD	316662	wordpools/wasnorm_wordpool.txt	LTP093	ltpFR	1	2	1	DISC	473	n/a	n/a	0	0.57763671875	0.412841796875	1	upper	zerothre.ttf
637.368	n/a	WORD	318684	wordpools/wasnorm_wordpool.txt	LTP093	ltpFR	1	2	0	CHERRY	293	n/a	n/a	0	0.422607421875	0.5869140625	0	lower	amplitud.ttf
641.288	n/a	WORD	320644	wordpools/wasnorm_wordpool.txt	LTP093	ltpFR	1	2	0	FRUIT	610	n/a	n/a	0	0.422607421875	0.5869140625	0	lower	amplitud.ttf
645.234	n/a	WORD	322617	wordpools/wasnorm_wordpool.txt	LTP093	ltpFR	1	2	0	BULLET	194	n/a	n/a	0	0.422607421875	0.5869140625	0	lower	amplitud.ttf
649.254	n/a	WORD	324627	wordpools/wasnorm_wordpool.txt	LTP093	ltpFR	1	2	0	BUILDER	190	n/a	n/a	0	0.422607421875	0.5869140625	0	lower	amplitud.ttf
653.234	n/a	WORD	326617	wordpools/wasnorm_wordpool.txt	LTP093	ltpFR	1	2	0	FUR	615	n/a	n/a	0	0.422607421875	0.5869140625	0	lower	amplitud.ttf
657.112	n/a	WORD	328556	wordpools/wasnorm_wordpool.txt	LTP093	ltpFR	1	2	0	GOAT	644	n/a	n/a	0	0.422607421875	0.5869140625	0	lower	amplitud.ttf
661.198	n/a	WORD	330599	wordpools/wasnorm_wordpool.txt	LTP093	ltpFR	1	2	1	SILK	1307	n/a	n/a	0	0.57763671875	0.412841796875	1	upper	zerothre.ttf
665.22	n/a	WORD	332610	wordpools/wasnorm_wordpool.txt	LTP093	ltpFR	1	2	1	ROOMMATE	1207	n/a	n/a	1	0.57763671875	0.412841796875	1	upper	zerothre.ttf
669.322	n/a	WORD	334661	wordpools/wasnorm_wordpool.txt	LTP093	ltpFR	1	2	1	PRODUCER	1129	n/a	n/a	1	0.57763671875	0.412841796875	1	upper	zerothre.ttf
673.384	n/a	WORD	336692	wordpools/wasnorm_wordpool.txt	LTP093	ltpFR	1	2	1	SKIRT	1319	n/a	n/a	0	0.57763671875	0.412841796875	1	upper	zerothre.ttf
679.388	n/a	REC_START	339694	n/a	LTP093	ltpFR	1	2	n/a	n/a	n/a	n/a	n/a	n/a	n/a	n/a	n/a	n/a	n/a
679.77	n/a	REC_WORD	339885	wordpools/wasnorm_wordpool.txt	LTP093	ltpFR	1	2	1	SKIRT	1319	n/a	n/a	0	n/a	n/a	n/a	n/a	n/a
680.8	n/a	REC_WORD	340400	wordpools/wasnorm_wordpool.txt	LTP093	ltpFR	1	2	1	PRODUCER	1129	n/a	n/a	1	n/a	n/a	n/a	n/a	n/a
681.836	n/a	REC_WORD	340918	wordpools/wasnorm_wordpool.txt	LTP093	ltpFR	1	2	1	ROOMMATE	1207	n/a	n/a	1	n/a	n/a	n/a	n/a	n/a
702.49	n/a	REC_WORD	351245	wordpools/wasnorm_wordpool.txt	LTP093	ltpFR	1	2	0	BULLET	194	n/a	n/a	0	n/a	n/a	n/a	n/a	n/a
704.9	n/a	REC_WORD	352450	wordpools/wasnorm_wordpool.txt	LTP093	ltpFR	1	2	0	FRUIT	610	n/a	n/a	0	n/a	n/a	n/a	n/a	n/a
705.678	n/a	REC_WORD	352839	wordpools/wasnorm_wordpool.txt	LTP093	ltpFR	1	2	0	CHERRY	293	n/a	n/a	0	n/a	n/a	n/a	n/a	n/a
749.264	n/a	REC_WORD	374632	wordpools/wasnorm_wordpool.txt	LTP093	ltpFR	1	2	0	BUYER	208	n/a	n/a	0	n/a	n/a	n/a	n/a	n/a
752.522	n/a	REC_WORD	376261	wordpools/wasnorm_wordpool.txt	LTP093	ltpFR	1	2	1	ARCHITECT	36	n/a	n/a	1	n/a	n/a	n/a	n/a	n/a
790.676	n/a	WORD	395338	wordpools/wasnorm_wordpool.txt	LTP093	ltpFR	1	3	1	COURSE	390	n/a	n/a	0	0.57763671875	0.412841796875	1	upper	zerothre.ttf
794.522	n/a	WORD	397261	wordpools/wasnorm_wordpool.txt	LTP093	ltpFR	1	3	1	YOKE	1632	n/a	n/a	0	0.57763671875	0.412841796875	1	upper	zerothre.ttf
798.45	n/a	WORD	399225	wordpools/wasnorm_wordpool.txt	LTP093	ltpFR	1	3	0	BEAVER	109	n/a	n/a	0	0.422607421875	0.5869140625	0	lower	amplitud.ttf
802.612	n/a	WORD	401306	wordpools/wasnorm_wordpool.txt	LTP093	ltpFR	1	3	0	COD	340	n/a	n/a	0	0.422607421875	0.5869140625	0	lower	amplitud.ttf
806.682	n/a	WORD	403341	wordpools/wasnorm_wordpool.txt	LTP093	ltpFR	1	3	0	HOOK	715	n/a	n/a	0	0.422607421875	0.5869140625	0	lower	amplitud.ttf
810.776	n/a	WORD	405388	wordpools/wasnorm_wordpool.txt	LTP093	ltpFR	1	3	0	ATMOSPHERE	54	n/a	n/a	1	0.422607421875	0.5869140625	0	lower	amplitud.ttf
814.606	n/a	WORD	407303	wordpools/wasnorm_wordpool.txt	LTP093	ltpFR	1	3	1	UNICORN	1538	n/a	n/a	0	0.57763671875	0.412841796875	1	upper	zerothre.ttf
818.568	n/a	WORD	409284	wordpools/wasnorm_wordpool.txt	LTP093	ltpFR	1	3	1	BARLEY	88	n/a	n/a	1	0.57763671875	0.412841796875	1	upper	zerothre.ttf
822.438	n/a	WORD	411219	wordpools/wasnorm_wordpool.txt	LTP093	ltpFR	1	3	0	CLASS	318	n/a	n/a	0	0.422607421875	0.5869140625	0	lower	amplitud.ttf
826.576	n/a	WORD	413288	wordpools/wasnorm_wordpool.txt	LTP093	ltpFR	1	3	0	MUFFIN	929	n/a	n/a	0	0.422607421875	0.5869140625	0	lower	amplitud.ttf
830.396	n/a	WORD	415198	wordpools/wasnorm_wordpool.txt	LTP093	ltpFR	1	3	0	PASSENGER	1020	n/a	n/a	0	0.422607421875	0.5869140625	0	lower	amplitud.ttf
834.392	n/a	WORD	417196	wordpools/wasnorm_wordpool.txt	LTP093	ltpFR	1	3	0	SALESMAN	1225	n/a	n/a	0	0.422607421875	0.5869140625	0	lower	amplitud.ttf
838.304	n/a	WORD	419152	wordpools/wasnorm_wordpool.txt	LTP093	ltpFR	1	3	1	LODGE	839	n/a	n/a	0	0.57763671875	0.412841796875	1	upper	zerothre.ttf
842.392	n/a	WORD	421196	wordpools/wasnorm_wordpool.txt	LTP093	ltpFR	1	3	1	APARTMENT	30	n/a	n/a	0	0.57763671875	0.412841796875	1	upper	zerothre.ttf
846.27	n/a	WORD	423135	wordpools/wasnorm_wordpool.txt	LTP093	ltpFR	1	3	1	GRASS	655	n/a	n/a	0	0.57763671875	0.412841796875	1	upper	zerothre.ttf
850.408	n/a	WORD	425204	wordpools/wasnorm_wordpool.txt	LTP093	ltpFR	1	3	1	CLOVE	329	n/a	n/a	0	0.57763671875	0.412841796875	1	upper	zerothre.ttf
856.134	n/a	REC_START	428067	n/a	LTP093	ltpFR	1	3	n/a	n/a	n/a	n/a	n/a	n/a	n/a	n/a	n/a	n/a	n/a
856.972	n/a	REC_WORD	428486	wordpools/wasnorm_wordpool.txt	LTP093	ltpFR	1	3	1	GRASS	655	n/a	n/a	0	n/a	n/a	n/a	n/a	n/a
857.94	n/a	REC_WORD	428970	wordpools/wasnorm_wordpool.txt	LTP093	ltpFR	1	3	1	CLOVE	329	n/a	n/a	0	n/a	n/a	n/a	n/a	n/a
859.042	n/a	REC_WORD	429521	wordpools/wasnorm_wordpool.txt	LTP093	ltpFR	1	3	1	APARTMENT	30	n/a	n/a	0	n/a	n/a	n/a	n/a	n/a
860.39	n/a	REC_WORD	430195	wordpools/wasnorm_wordpool.txt	LTP093	ltpFR	1	3	0	CLASS	318	n/a	n/a	0	n/a	n/a	n/a	n/a	n/a
863.986	n/a	REC_WORD	431993	wordpools/wasnorm_wordpool.txt	LTP093	ltpFR	1	3	1	GRASS	655	n/a	n/a	0	n/a	n/a	n/a	n/a	n/a
873.31	n/a	REC_WORD	436655	wordpools/wasnorm_wordpool.txt	LTP093	ltpFR	1	3	1	BARLEY	88	n/a	n/a	1	n/a	n/a	n/a	n/a	n/a
874.362	n/a	REC_WORD	437181	wordpools/wasnorm_wordpool.txt	LTP093	ltpFR	1	3	1	UNICORN	1538	n/a	n/a	0	n/a	n/a	n/a	n/a	n/a
887.294	n/a	REC_WORD	443647	wordpools/wasnorm_wordpool.txt	LTP093	ltpFR	1	3	0	SALESMAN	1225	n/a	n/a	0	n/a	n/a	n/a	n/a	n/a
889.868	n/a	REC_WORD	444934	wordpools/wasnorm_wordpool.txt	LTP093	ltpFR	1	3	0	PASSENGER	1020	n/a	n/a	0	n/a	n/a	n/a	n/a	n/a
949.95	n/a	WORD	474975	wordpools/wasnorm_wordpool.txt	LTP093	ltpFR	1	4	-1	FIDDLE	561	n/a	n/a	-1	1.0	1.0	1	upper	Verdana.ttf
954.028	n/a	WORD	477014	wordpools/wasnorm_wordpool.txt	LTP093	ltpFR	1	4	-1	NICKEL	950	n/a	n/a	-1	1.0	1.0	1	upper	Verdana.ttf
957.89	n/a	WORD	478945	wordpools/wasnorm_wordpool.txt	LTP093	ltpFR	1	4	-1	BANK	83	n/a	n/a	-1	1.0	1.0	1	upper	Verdana.ttf
962.07	n/a	WORD	481035	wordpools/wasnorm_wordpool.txt	LTP093	ltpFR	1	4	-1	CUB	419	n/a	n/a	-1	1.0	1.0	1	upper	Verdana.ttf
966.106	n/a	WORD	483053	wordpools/wasnorm_wordpool.txt	LTP093	ltpFR	1	4	-1	EMPEROR	529	n/a	n/a	-1	1.0	1.0	1	upper	Verdana.ttf
970.26	n/a	WORD	485130	wordpools/wasnorm_wordpool.txt	LTP093	ltpFR	1	4	-1	FIREMAN	569	n/a	n/a	-1	1.0	1.0	1	upper	Verdana.ttf
974.256	n/a	WORD	487128	wordpools/wasnorm_wordpool.txt	LTP093	ltpFR	1	4	-1	SAUCER	1237	n/a	n/a	-1	1.0	1.0	1	upper	Verdana.ttf
978.184	n/a	WORD	489092	wordpools/wasnorm_wordpool.txt	LTP093	ltpFR	1	4	-1	SERVANT	1271	n/a	n/a	-1	1.0	1.0	1	upper	Verdana.ttf
982.322	n/a	WORD	491161	wordpools/wasnorm_wordpool.txt	LTP093	ltpFR	1	4	-1	NURSE	963	n/a	n/a	-1	1.0	1.0	1	upper	Verdana.ttf
986.474	n/a	WORD	493237	wordpools/wasnorm_wordpool.txt	LTP093	ltpFR	1	4	-1	HOSTAGE	722	n/a	n/a	-1	1.0	1.0	1	upper	Verdana.ttf
990.328	n/a	WORD	495164	wordpools/wasnorm_wordpool.txt	LTP093	ltpFR	1	4	-1	OUTLAW	989	n/a	n/a	-1	1.0	1.0	1	upper	Verdana.ttf
994.4	n/a	WORD	497200	wordpools/wasnorm_wordpool.txt	LTP093	ltpFR	1	4	-1	NET	946	n/a	n/a	-1	1.0	1.0	1	upper	Verdana.ttf
998.262	n/a	WORD	499131	wordpools/wasnorm_wordpool.txt	LTP093	ltpFR	1	4	-1	SEASHORE	1263	n/a	n/a	-1	1.0	1.0	1	upper	Verdana.ttf
1002.174	n/a	WORD	501087	wordpools/wasnorm_wordpool.txt	LTP093	ltpFR	1	4	-1	GRIZZLY	662	n/a	n/a	-1	1.0	1.0	1	upper	Verdana.ttf
1006.028	n/a	WORD	503014	wordpools/wasnorm_wordpool.txt	LTP093	ltpFR	1	4	-1	PAN	1008	n/a	n/a	-1	1.0	1.0	1	upper	Verdana.ttf
1010.006	n/a	WORD	505003	wordpools/wasnorm_wordpool.txt	LTP093	ltpFR	1	4	-1	RULER	1216	n/a	n/a	-1	1.0	1.0	1	upper	Verdana.ttf
1015.982	n/a	REC_START	507991	n/a	LTP093	ltpFR	1	4	n/a	n/a	n/a	n/a	n/a	n/a	n/a	n/a	n/a	n/a	n/a
1016.65	n/a	REC_WORD	508325	wordpools/wasnorm_wordpool.txt	LTP093	ltpFR	1	4	-1	RULER	1216	n/a	n/a	-1	n/a	n/a	n/a	n/a	n/a
1017.424	n/a	REC_WORD	508712	wordpools/wasnorm_wordpool.txt	LTP093	ltpFR	1	4	-1	EMPEROR	529	n/a	n/a	-1	n/a	n/a	n/a	n/a	n/a
1018.272	n/a	REC_WORD	509136	wordpools/wasnorm_wordpool.txt	LTP093	ltpFR	1	4	-1	NICKEL	950	n/a	n/a	-1	n/a	n/a	n/a	n/a	n/a
1019.204	n/a	REC_WORD	509602	wordpools/wasnorm_wordpool.txt	LTP093	ltpFR	1	4	-1	BANK	83	n/a	n/a	-1	n/a	n/a	n/a	n/a	n/a
1020.092	n/a	REC_WORD	510046	wordpools/wasnorm_wordpool.txt	LTP093	ltpFR	1	4	-1	CUB	419	n/a	n/a	-1	n/a	n/a	n/a	n/a	n/a
1021.794	n/a	REC_WORD	510897	wordpools/wasnorm_wordpool.txt	LTP093	ltpFR	1	4	-1	GRIZZLY	662	n/a	n/a	-1	n/a	n/a	n/a	n/a	n/a
1028.04	n/a	REC_WORD	514020	wordpools/wasnorm_wordpool.txt	LTP093	ltpFR	1	4	-1	OUTLAW	989	n/a	n/a	-1	n/a	n/a	n/a	n/a	n/a
1112.912	n/a	WORD	556456	wordpools/wasnorm_wordpool.txt	LTP093	ltpFR	1	5	-1	PROTON	1132	n/a	n/a	-1	1.0	1.0	1	upper	Verdana.ttf
1116.966	n/a	WORD	558483	wordpools/wasnorm_wordpool.txt	LTP093	ltpFR	1	5	-1	RECIPE	1175	n/a	n/a	-1	1.0	1.0	1	upper	Verdana.ttf
1121.138	n/a	WORD	560569	wordpools/wasnorm_wordpool.txt	LTP093	ltpFR	1	5	-1	TRAY	1498	n/a	n/a	-1	1.0	1.0	1	upper	Verdana.ttf
1125.19	n/a	WORD	562595	wordpools/wasnorm_wordpool.txt	LTP093	ltpFR	1	5	-1	WEB	1598	n/a	n/a	-1	1.0	1.0	1	upper	Verdana.ttf
1129.01	n/a	WORD	564505	wordpools/wasnorm_wordpool.txt	LTP093	ltpFR	1	5	-1	CYLINDER	432	n/a	n/a	-1	1.0	1.0	1	upper	Verdana.ttf
1133.19	n/a	WORD	566595	wordpools/wasnorm_wordpool.txt	LTP093	ltpFR	1	5	-1	LAGOON	795	n/a	n/a	-1	1.0	1.0	1	upper	Verdana.ttf
1137.268	n/a	WORD	568634	wordpools/wasnorm_wordpool.txt	LTP093	ltpFR	1	5	-1	OCTOPUS	971	n/a	n/a	-1	1.0	1.0	1	upper	Verdana.ttf
1141.198	n/a	WORD	570599	wordpools/wasnorm_wordpool.txt	LTP093	ltpFR	1	5	-1	SALMON	1227	n/a	n/a	-1	1.0	1.0	1	upper	Verdana.ttf
1145.16	n/a	WORD	572580	wordpools/wasnorm_wordpool.txt	LTP093	ltpFR	1	5	-1	HANDKERCHIEF	686	n/a	n/a	-1	1.0	1.0	1	upper	Verdana.ttf
1149.004	n/a	WORD	574502	wordpools/wasnorm_wordpool.txt	LTP093	ltpFR	1	5	-1	COMET	353	n/a	n/a	-1	1.0	1.0	1	upper	Verdana.ttf
1153.208	n/a	WORD	576604	wordpools/wasnorm_wordpool.txt	LTP093	ltpFR	1	5	-1	SUPERVISOR	1410	n/a	n/a	-1	1.0	1.0	1	upper	Verdana.ttf
1157.346	n/a	WORD	578673	wordpools/wasnorm_wordpool.txt	LTP093	ltpFR	1	5	-1	FROST	609	n/a	n/a	-1	1.0	1.0	1	upper	Verdana.ttf
1161.358	n/a	WORD	580679	wordpools/wasnorm_wordpool.txt	LTP093	ltpFR	1	5	-1	PENNY	1045	n/a	n/a	-1	1.0	1.0	1	upper	Verdana.ttf
1165.202	n/a	WORD	582601	wordpools/wasnorm_wordpool.txt	LTP093	ltpFR	1	5	-1	CAPITAL	238	n/a	n/a	-1	1.0	1.0	1	upper	Verdana.ttf
1169.088	n/a	WORD	584544	wordpools/wasnorm_wordpool.txt	LTP093	ltpFR	1	5	-1	BARREL	91	n/a	n/a	-1	1.0	1.0	1	upper	Verdana.ttf
1173.136	n/a	WORD	586568	wordpools/wasnorm_wordpool.txt	LTP093	ltpFR	1	5	-1	METEOR	889	n/a	n/a	-1	1.0	1.0	1	upper	Verdana.ttf
1178.946	n/a	REC_START	589473	n/a	LTP093	ltpFR	1	5	n/a	n/a	n/a	n/a	n/a	n/a	n/a	n/a	n/a	n/a	n/a
1179.824	n/a	REC_WORD	589912	wordpools/wasnorm_wordpool.txt	LTP093	ltpFR	1	5	-1	METEOR	889	n/a	n/a	-1	n/a	n/a	n/a	n/a	n/a
1180.672	n/a	REC_WORD	590336	wordpools/wasnorm_wordpool.txt	LTP093	ltpFR	1	5	-1	FROST	609	n/a	n/a	-1	n/a	n/a	n/a	n/a	n/a
1181.714	n/a	REC_WORD	590857	wordpools/wasnorm_wordpool.txt	LTP093	ltpFR	1	5	-1	OCTOPUS	971	n/a	n/a	-1	n/a	n/a	n/a	n/a	n/a
1182.64	n/a	REC_WORD	591320	wordpools/wasnorm_wordpool.txt	LTP093	ltpFR	1	5	-1	SALMON	1227	n/a	n/a	-1	n/a	n/a	n/a	n/a	n/a
1184.448	n/a	REC_WORD	592224	wordpools/wasnorm_wordpool.txt	LTP093	ltpFR	1	5	-1	PROTON	1132	n/a	n/a	-1	n/a	n/a	n/a	n/a	n/a
1186.922	n/a	REC_WORD	593461	wordpools/wasnorm_wordpool.txt	LTP093	ltpFR	1	5	-1	BARREL	91	n/a	n/a	-1	n/a	n/a	n/a	n/a	n/a
1283.808	n/a	WORD	641904	wordpools/wasnorm_wordpool.txt	LTP093	ltpFR	1	6	1	TORCH	1484	n/a	n/a	2	0.57763671875	0.412841796875	1	upper	zerothre.ttf
1285.524	n/a	KEY_MSG	642762	n/a	LTP093	ltpFR	1	6	n/a	n/a	n/a	n/a	n/a	n/a	n/a	n/a	n/a	n/a	n/a
1287.978	n/a	WORD	643989	wordpools/wasnorm_wordpool.txt	LTP093	ltpFR	1	6	1	QUAIL	1147	n/a	n/a	0	0.57763671875	0.412841796875	1	upper	zerothre.ttf
1292.014	n/a	WORD	646007	wordpools/wasnorm_wordpool.txt	LTP093	ltpFR	1	6	0	DOCUMENT	479	n/a	n/a	0	0.422607421875	0.5869140625	0	lower	amplitud.ttf
1295.836	n/a	WORD	647918	wordpools/wasnorm_wordpool.txt	LTP093	ltpFR	1	6	0	PAD	998	n/a	n/a	0	0.422607421875	0.5869140625	0	lower	amplitud.ttf
1300.046	n/a	WORD	650023	wordpools/wasnorm_wordpool.txt	LTP093	ltpFR	1	6	0	SEAGULL	1261	n/a	n/a	0	0.422607421875	0.5869140625	0	lower	amplitud.ttf
1303.918	n/a	WORD	651959	wordpools/wasnorm_wordpool.txt	LTP093	ltpFR	1	6	1	TEAPOT	1442	n/a	n/a	0	0.57763671875	0.412841796875	1	upper	zerothre.ttf
1308.038	n/a	WORD	654019	wordpools/wasnorm_wordpool.txt	LTP093	ltpFR	1	6	1	STEAM	1375	n/a	n/a	0	0.57763671875	0.412841796875	1	upper	zerothre.ttf
1311.908	n/a	WORD	655954	wordpools/wasnorm_wordpool.txt	LTP093	ltpFR	1	6	1	OCEAN	970	n/a	n/a	0	0.57763671875	0.412841796875	1	upper	zerothre.ttf
1316.086	n/a	WORD	658043	wordpools/wasnorm_wordpool.txt	LTP093	ltpFR	1	6	1	SAILOR	1223	n/a	n/a	1	0.57763671875	0.412841796875	1	upper	zerothre.ttf
1320.158	n/a	WORD	660079	wordpools/wasnorm_wordpool.txt	LTP093	ltpFR	1	6	1	MAGICIAN	854	n/a	n/a	1	0.57763671875	0.412841796875	1	upper	zerothre.ttf
1324.304	n/a	WORD	662152	wordpools/wasnorm_wordpool.txt	LTP093	ltpFR	1	6	1	CHAMBER	277	n/a	n/a	0	0.57763671875	0.412841796875	1	upper	zerothre.ttf
1328.348	n/a	WORD	664174	wordpools/wasnorm_wordpool.txt	LTP093	ltpFR	1	6	0	NAIL	936	n/a	n/a	0	0.422607421875	0.5869140625	0	lower	amplitud.ttf
1332.41	n/a	WORD	666205	wordpools/wasnorm_wordpool.txt	LTP093	ltpFR	1	6	0	RABBIT	1152	n/a	n/a	1	0.422607421875	0.5869140625	0	lower	amplitud.ttf
1336.332	n/a	WORD	668166	wordpools/wasnorm_wordpool.txt	LTP093	ltpFR	1	6	0	OTTER	986	n/a	n/a	0	0.422607421875	0.5869140625	0	lower	amplitud.ttf
1340.318	n/a	WORD	670159	wordpools/wasnorm_wordpool.txt	LTP093	ltpFR	1	6	0	PUMPKIN	1142	n/a	n/a	0	0.422607421875	0.5869140625	0	lower	amplitud.ttf
1344.29	n/a	WORD	672145	wordpools/wasnorm_wordpool.txt	LTP093	ltpFR	1	6	0	BEAN	105	n/a	n/a	0	0.422607421875	0.5869140625	0	lower	amplitud.ttf
1350.058	n/a	REC_START	675029	n/a	LTP093	ltpFR	1	6	n/a	n/a	n/a	n/a	n/a	n/a	n/a	n/a	n/a	n/a	n/a
1350.86	n/a	REC_WORD	675430	wordpools/wasnorm_wordpool.txt	LTP093	ltpFR	1	6	0	BEAN	105	n/a	n/a	0	n/a	n/a	n/a	n/a	n/a
1351.598	n/a	REC_WORD	675799	wordpools/wasnorm_wordpool.txt	LTP093	ltpFR	1	6	0	RABBIT	1152	n/a	n/a	1	n/a	n/a	n/a	n/a	n/a
1352.426	n/a	REC_WORD	676213	wordpools/wasnorm_wordpool.txt	LTP093	ltpFR	1	6	1	QUAIL	1147	n/a	n/a	0	n/a	n/a	n/a	n/a	n/a
1353.444	n/a	REC_WORD	676722	wordpools/wasnorm_wordpool.txt	LTP093	ltpFR	1	6	1	TORCH	1484	n/a	n/a	2	n/a	n/a	n/a	n/a	n/a
1358.104	n/a	REC_WORD	679052	wordpools/wasnorm_wordpool.txt	LTP093	ltpFR	1	6	1	OCEAN	970	n/a	n/a	0	n/a	n/a	n/a	n/a	n/a
1359.87	n/a	REC_WORD	679935	wordpools/wasnorm_wordpool.txt	LTP093	ltpFR	1	6	1	SAILOR	1223	n/a	n/a	1	n/a	n/a	n/a	n/a	n/a
1454.686	n/a	WORD	727343	wordpools/wasnorm_wordpool.txt	LTP093	ltpFR	1	7	-1	PATIO	1025	n/a	n/a	-1	1.0	1.0	1	upper	Verdana.ttf
1458.624	n/a	WORD	729312	wordpools/wasnorm_wordpool.txt	LTP093	ltpFR	1	7	-1	DESK	452	n/a	n/a	-1	1.0	1.0	1	upper	Verdana.ttf
1462.512	n/a	WORD	731256	wordpools/wasnorm_wordpool.txt	LTP093	ltpFR	1	7	-1	RIBBON	1189	n/a	n/a	-1	1.0	1.0	1	upper	Verdana.ttf
1466.59	n/a	WORD	733295	wordpools/wasnorm_wordpool.txt	LTP093	ltpFR	1	7	-1	THICKET	1455	n/a	n/a	-1	1.0	1.0	1	upper	Verdana.ttf
1470.552	n/a	WORD	735276	wordpools/wasnorm_wordpool.txt	LTP093	ltpFR	1	7	-1	WHEEL	1603	n/a	n/a	-1	1.0	1.0	1	upper	Verdana.ttf
1474.656	n/a	WORD	737328	wordpools/wasnorm_wordpool.txt	LTP093	ltpFR	1	7	-1	MEDICINE	886	n/a	n/a	-1	1.0	1.0	1	upper	Verdana.ttf
1478.75	n/a	WORD	739375	wordpools/wasnorm_wordpool.txt	LTP093	ltpFR	1	7	-1	REFEREE	1178	n/a	n/a	-1	1.0	1.0	1	upper	Verdana.ttf
1482.744	n/a	WORD	741372	wordpools/wasnorm_wordpool.txt	LTP093	ltpFR	1	7	-1	TELEPHONE	1445	n/a	n/a	-1	1.0	1.0	1	upper	Verdana.ttf
1486.674	n/a	WORD	743337	wordpools/wasnorm_wordpool.txt	LTP093	ltpFR	1	7	-1	WINGS	1614	n/a	n/a	-1	1.0	1.0	1	upper	Verdana.ttf
1490.596	n/a	WORD	745298	wordpools/wasnorm_wordpool.txt	LTP093	ltpFR	1	7	-1	BLUEBERRY	140	n/a	n/a	-1	1.0	1.0	1	upper	Verdana.ttf
1494.79	n/a	WORD	747395	wordpools/wasnorm_wordpool.txt	LTP093	ltpFR	1	7	-1	OINTMENT	974	n/a	n/a	-1	1.0	1.0	1	upper	Verdana.ttf
1498.86	n/a	WORD	749430	wordpools/wasnorm_wordpool.txt	LTP093	ltpFR	1	7	-1	LONDON	843	n/a	n/a	-1	1.0	1.0	1	upper	Verdana.ttf
1502.856	n/a	WORD	751428	wordpools/wasnorm_wordpool.txt	LTP093	ltpFR	1	7	-1	BIKE	125	n/a	n/a	-1	1.0	1.0	1	upper	Verdana.ttf
1506.91	n/a	WORD	753455	wordpools/wasnorm_wordpool.txt	LTP093	ltpFR	1	7	-1	JURY	766	n/a	n/a	-1	1.0	1.0	1	upper	Verdana.ttf
1511.022	n/a	WORD	755511	wordpools/wasnorm_wordpool.txt	LTP093	ltpFR	1	7	-1	GAVEL	627	n/a	n/a	-1	1.0	1.0	1	upper	Verdana.ttf
1515.16	n/a	WORD	757580	wordpools/wasnorm_wordpool.txt	LTP093	ltpFR	1	7	-1	JELLY	755	n/a	n/a	-1	1.0	1.0	1	upper	Verdana.ttf
1521.062	n/a	REC_START	760531	n/a	LTP093	ltpFR	1	7	n/a	n/a	n/a	n/a	n/a	n/a	n/a	n/a	n/a	n/a	n/a
1521.894	n/a	REC_WORD	760947	wordpools/wasnorm_wordpool.txt	LTP093	ltpFR	1	7	-1	JELLY	755	n/a	n/a	-1	n/a	n/a	n/a	n/a	n/a
1522.788	n/a	REC_WORD	761394	wordpools/wasnorm_wordpool.txt	LTP093	ltpFR	1	7	-1	OINTMENT	974	n/a	n/a	-1	n/a	n/a	n/a	n/a	n/a
1523.6	n/a	REC_WORD	761800	wordpools/wasnorm_wordpool.txt	LTP093	ltpFR	1	7	-1	GAVEL	627	n/a	n/a	-1	n/a	n/a	n/a	n/a	n/a
1524.648	n/a	REC_WORD	762324	wordpools/wasnorm_wordpool.txt	LTP093	ltpFR	1	7	-1	JURY	766	n/a	n/a	-1	n/a	n/a	n/a	n/a	n/a
1525.74	n/a	REC_WORD	762870	wordpools/wasnorm_wordpool.txt	LTP093	ltpFR	1	7	-1	DESK	452	n/a	n/a	-1	n/a	n/a	n/a	n/a	n/a
1527.102	n/a	REC_WORD	763551	wordpools/wasnorm_wordpool.txt	LTP093	ltpFR	1	7	-1	PATIO	1025	n/a	n/a	-1	n/a	n/a	n/a	n/a	n/a
1632.98	n/a	WORD	816490	wordpools/wasnorm_wordpool.txt	LTP093	ltpFR	1	8	1	PHYSICIAN	1056	n/a	n/a	1	0.57763671875	0.412841796875	1	upper	zerothre.ttf
1636.876	n/a	WORD	818438	wordpools/wasnorm_wordpool.txt	LTP093	ltpFR	1	8	1	SHOP	1290	n/a	n/a	0	0.57763671875	0.412841796875	1	upper	zerothre.ttf
1640.888	n/a	WORD	820444	wordpools/wasnorm_wordpool.txt	LTP093	ltpFR	1	8	1	SUPPER	1411	n/a	n/a	0	0.57763671875	0.412841796875	1	upper	zerothre.ttf
1645.074	n/a	WORD	822537	wordpools/wasnorm_wordpool.txt	LTP093	ltpFR	1	8	1	WAITER	1580	n/a	n/a	1	0.57763671875	0.412841796875	1	upper	zerothre.ttf
1649.212	n/a	WORD	824606	wordpools/wasnorm_wordpool.txt	LTP093	ltpFR	1	8	1	EDITORIAL	517	n/a	n/a	0	0.57763671875	0.412841796875	1	upper	zerothre.ttf
1653.024	n/a	WORD	826512	wordpools/wasnorm_wordpool.txt	LTP093	ltpFR	1	8	1	JOURNAL	760	n/a	n/a	0	0.57763671875	0.412841796875	1	upper	zerothre.ttf
1657.086	n/a	WORD	828543	wordpools/wasnorm_wordpool.txt	LTP093	ltpFR	1	8	1	DOG	480	n/a	n/a	0	0.57763671875	0.412841796875	1	upper	zerothre.ttf
1660.94	n/a	WORD	830470	wordpools/wasnorm_wordpool.txt	LTP093	ltpFR	1	8	1	GUEST	669	n/a	n/a	0	0.57763671875	0.412841796875	1	upper	zerothre.ttf
1664.952	n/a	WORD	832476	wordpools/wasnorm_wordpool.txt	LTP093	ltpFR	1	8	1	SOCKET	1340	n/a	n/a	0	0.57763671875	0.412841796875	1	upper	zerothre.ttf
1669.098	n/a	WORD	834549	wordpools/wasnorm_wordpool.txt	LTP093	ltpFR	1	8	1	SWITCH	1422	n/a	n/a	0	0.57763671875	0.412841796875	1	upper	zerothre.ttf
1673.278	n/a	WORD	836639	wordpools/wasnorm_wordpool.txt	LTP093	ltpFR	1	8	1	SOAP	1337	n/a	n/a	0	0.57763671875	0.412841796875	1	upper	zerothre.ttf
1677.448	n/a	WORD	838724	wordpools/wasnorm_wordpool.txt	LTP093	ltpFR	1	8	1	MARKET	871	n/a	n/a	0	0.57763671875	0.412841796875	1	upper	zerothre.ttf
1681.26	n/a	WORD	840630	wordpools/wasnorm_wordpool.txt	LTP093	ltpFR	1	8	1	WOLF	1619	n/a	n/a	1	0.57763671875	0.412841796875	1	upper	zerothre.ttf
1685.088	n/a	WORD	842544	wordpools/wasnorm_wordpool.txt	LTP093	ltpFR	1	8	1	EAR	513	n/a	n/a	1	0.57763671875	0.412841796875	1	upper	zerothre.ttf
1689.176	n/a	WORD	844588	wordpools/wasnorm_wordpool.txt	LTP093	ltpFR	1	8	1	BANANA	77	n/a	n/a	0	0.57763671875	0.412841796875	1	upper	zerothre.ttf
1693.096	n/a	WORD	846548	wordpools/wasnorm_wordpool.txt	LTP093	ltpFR	1	8	1	PLUM	1090	n/a	n/a	0	0.57763671875	0.412841796875	1	upper	zerothre.ttf
1699.022	n/a	REC_START	849511	n/a	LTP093	ltpFR	1	8	n/a	n/a	n/a	n/a	n/a	n/a	n/a	n/a	n/a	n/a	n/a
1699.7	n/a	REC_WORD	849850	wordpools/wasnorm_wordpool.txt	LTP093	ltpFR	1	8	1	BANANA	77	n/a	n/a	0	n/a	n/a	n/a	n/a	n/a
1700.53	n/a	REC_WORD	850265	wordpools/wasnorm_wordpool.txt	LTP093	ltpFR	1	8	1	PLUM	1090	n/a	n/a	0	n/a	n/a	n/a	n/a	n/a
1701.466	n/a	REC_WORD	850733	wordpools/wasnorm_wordpool.txt	LTP093	ltpFR	1	8	1	DOG	480	n/a	n/a	0	n/a	n/a	n/a	n/a	n/a
1702.206	n/a	REC_WORD	851103	wordpools/wasnorm_wordpool.txt	LTP093	ltpFR	1	8	1	WOLF	1619	n/a	n/a	1	n/a	n/a	n/a	n/a	n/a
1703.128	n/a	REC_WORD	851564	wordpools/wasnorm_wordpool.txt	LTP093	ltpFR	1	8	1	WAITER	1580	n/a	n/a	1	n/a	n/a	n/a	n/a	n/a
1703.906	n/a	REC_WORD	851953	wordpools/wasnorm_wordpool.txt	LTP093	ltpFR	1	8	1	SUPPER	1411	n/a	n/a	0	n/a	n/a	n/a	n/a	n/a
1710.472	n/a	REC_WORD	855236	wordpools/wasnorm_wordpool.txt	LTP093	ltpFR	1	8	1	BANANA	77	n/a	n/a	0	n/a	n/a	n/a	n/a	n/a
1711.09	n/a	REC_WORD	855545	wordpools/wasnorm_wordpool.txt	LTP093	ltpFR	1	8	1	PLUM	1090	n/a	n/a	0	n/a	n/a	n/a	n/a	n/a
1711.972	n/a	REC_WORD_VV	855986	wordpools/wasnorm_wordpool.txt	LTP093	ltpFR	1	8	n/a	<>	-1	n/a	n/a	n/a	n/a	n/a	n/a	n/a	n/a
1727.148	n/a	REC_WORD	863574	wordpools/wasnorm_wordpool.txt	LTP093	ltpFR	1	8	1	JOURNAL	760	n/a	n/a	0	n/a	n/a	n/a	n/a	n/a
1727.892	n/a	REC_WORD	863946	wordpools/wasnorm_wordpool.txt	LTP093	ltpFR	1	8	1	EDITORIAL	517	n/a	n/a	0	n/a	n/a	n/a	n/a	n/a
1750.138	n/a	REC_WORD_VV	875069	wordpools/wasnorm_wordpool.txt	LTP093	ltpFR	1	8	n/a	<>	-1	n/a	n/a	n/a	n/a	n/a	n/a	n/a	n/a
1751.804	n/a	REC_WORD_VV	875902	wordpools/wasnorm_wordpool.txt	LTP093	ltpFR	1	8	n/a	<>	-1	n/a	n/a	n/a	n/a	n/a	n/a	n/a	n/a
1754.312	n/a	REC_WORD_VV	877156	wordpools/wasnorm_wordpool.txt	LTP093	ltpFR	1	8	n/a	<>	-1	n/a	n/a	n/a	n/a	n/a	n/a	n/a	n/a
1814.772	n/a	WORD	907386	wordpools/wasnorm_wordpool.txt	LTP093	ltpFR	1	9	0	VEST	1559	n/a	n/a	0	0.422607421875	0.5869140625	0	lower	amplitud.ttf
1818.676	n/a	WORD	909338	wordpools/wasnorm_wordpool.txt	LTP093	ltpFR	1	9	0	BLOUSE	139	n/a	n/a	0	0.422607421875	0.5869140625	0	lower	amplitud.ttf
1822.564	n/a	WORD	911282	wordpools/wasnorm_wordpool.txt	LTP093	ltpFR	1	9	0	STOCKING	1383	n/a	n/a	0	0.422607421875	0.5869140625	0	lower	amplitud.ttf
1826.566	n/a	WORD	913283	wordpools/wasnorm_wordpool.txt	LTP093	ltpFR	1	9	0	MILITARY	894	n/a	n/a	1	0.422607421875	0.5869140625	0	lower	amplitud.ttf
1830.604	n/a	WORD	915302	wordpools/wasnorm_wordpool.txt	LTP093	ltpFR	1	9	0	CONVICT	371	n/a	n/a	0	0.422607421875	0.5869140625	0	lower	amplitud.ttf
1834.65	n/a	WORD	917325	wordpools/wasnorm_wordpool.txt	LTP093	ltpFR	1	9	0	RADIO	1157	n/a	n/a	0	0.422607421875	0.5869140625	0	lower	amplitud.ttf
1838.812	n/a	WORD	919406	wordpools/wasnorm_wordpool.txt	LTP093	ltpFR	1	9	0	TRUMPET	1513	n/a	n/a	0	0.422607421875	0.5869140625	0	lower	amplitud.ttf
1842.84	n/a	WORD	921420	wordpools/wasnorm_wordpool.txt	LTP093	ltpFR	1	9	0	STAGE	1366	n/a	n/a	0	0.422607421875	0.5869140625	0	lower	amplitud.ttf
1847.01	n/a	WORD	923505	wordpools/wasnorm_wordpool.txt	LTP093	ltpFR	1	9	0	JUVENILE	767	n/a	n/a	0	0.422607421875	0.5869140625	0	lower	amplitud.ttf
1851.19	n/a	WORD	925595	wordpools/wasnorm_wordpool.txt	LTP093	ltpFR	1	9	0	CLAW	319	n/a	n/a	0	0.422607421875	0.5869140625	0	lower	amplitud.ttf
1855.26	n/a	WORD	927630	wordpools/wasnorm_wordpool.txt	LTP093	ltpFR	1	9	0	TACK	1428	n/a	n/a	0	0.422607421875	0.5869140625	0	lower	amplitud.ttf
1859.396	n/a	WORD	929698	wordpools/wasnorm_wordpool.txt	LTP093	ltpFR	1	9	0	PRISON	1127	n/a	n/a	1	0.422607421875	0.5869140625	0	lower	amplitud.ttf
1863.3	n/a	WORD	931650	wordpools/wasnorm_wordpool.txt	LTP093	ltpFR	1	9	0	KNAPSACK	783	n/a	n/a	0	0.422607421875	0.5869140625	0	lower	amplitud.ttf
1867.37	n/a	WORD	933685	wordpools/wasnorm_wordpool.txt	LTP093	ltpFR	1	9	0	SHOE	1288	n/a	n/a	0	0.422607421875	0.5869140625	0	lower	amplitud.ttf
1871.332	n/a	WORD	935666	wordpools/wasnorm_wordpool.txt	LTP093	ltpFR	1	9	0	SLIDE	1326	n/a	n/a	1	0.422607421875	0.5869140625	0	lower	amplitud.ttf
1875.394	n/a	WORD	937697	wordpools/wasnorm_wordpool.txt	LTP093	ltpFR	1	9	0	VETERAN	1561	n/a	n/a	0	0.422607421875	0.5869140625	0	lower	amplitud.ttf
1881.206	n/a	REC_START	940603	n/a	LTP093	ltpFR	1	9	n/a	n/a	n/a	n/a	n/a	n/a	n/a	n/a	n/a	n/a	n/a
1882.228	n/a	REC_WORD	941114	wordpools/wasnorm_wordpool.txt	LTP093	ltpFR	1	9	0	SLIDE	1326	n/a	n/a	1	n/a	n/a	n/a	n/a	n/a
1883.436	n/a	REC_WORD	941718	wordpools/wasnorm_wordpool.txt	LTP093	ltpFR	1	9	0	MILITARY	894	n/a	n/a	1	n/a	n/a	n/a	n/a	n/a
1884.52	n/a	REC_WORD	942260	wordpools/wasnorm_wordpool.txt	LTP093	ltpFR	1	9	0	VETERAN	1561	n/a	n/a	0	n/a	n/a	n/a	n/a	n/a
1885.69	n/a	REC_WORD	942845	wordpools/wasnorm_wordpool.txt	LTP093	ltpFR	1	9	0	CONVICT	371	n/a	n/a	0	n/a	n/a	n/a	n/a	n/a
1890.48	n/a	REC_WORD	945240	wordpools/wasnorm_wordpool.txt	LTP093	ltpFR	1	9	0	JUVENILE	767	n/a	n/a	0	n/a	n/a	n/a	n/a	n/a
1892.898	n/a	REC_WORD	946449	wordpools/wasnorm_wordpool.txt	LTP093	ltpFR	1	9	0	PRISON	1127	n/a	n/a	1	n/a	n/a	n/a	n/a	n/a
1914.894	n/a	REC_WORD	957447	wordpools/wasnorm_wordpool.txt	LTP093	ltpFR	1	9	0	BLOUSE	139	n/a	n/a	0	n/a	n/a	n/a	n/a	n/a
1928.214	n/a	REC_WORD_VV	964107	wordpools/wasnorm_wordpool.txt	LTP093	ltpFR	1	9	n/a	<>	-1	n/a	n/a	n/a	n/a	n/a	n/a	n/a	n/a
1929.686	n/a	REC_WORD	964843	wordpools/wasnorm_wordpool.txt	LTP093	ltpFR	1	9	0	VEST	1559	n/a	n/a	0	n/a	n/a	n/a	n/a	n/a
1933.064	n/a	REC_WORD_VV	966532	wordpools/wasnorm_wordpool.txt	LTP093	ltpFR	1	9	n/a	<>	-1	n/a	n/a	n/a	n/a	n/a	n/a	n/a	n/a
1991.784	n/a	WORD	995892	wordpools/wasnorm_wordpool.txt	LTP093	ltpFR	1	10	1	TEENAGER	1444	n/a	n/a	1	0.57763671875	0.412841796875	1	upper	zerothre.ttf
1995.954	n/a	WORD	997977	wordpools/wasnorm_wordpool.txt	LTP093	ltpFR	1	10	1	INMATE	738	n/a	n/a	1	0.57763671875	0.412841796875	1	upper	zerothre.ttf
1999.868	n/a	WORD	999934	wordpools/wasnorm_wordpool.txt	LTP093	ltpFR	1	10	1	PORT	1110	n/a	n/a	0	0.57763671875	0.412841796875	1	upper	zerothre.ttf
2003.796	n/a	WORD	1001898	wordpools/wasnorm_wordpool.txt	LTP093	ltpFR	1	10	1	SNACK	1331	n/a	n/a	0	0.57763671875	0.412841796875	1	upper	zerothre.ttf
2007.668	n/a	WORD	1003834	wordpools/wasnorm_wordpool.txt	LTP093	ltpFR	1	10	1	MONKEY	911	n/a	n/a	1	0.57763671875	0.412841796875	1	upper	zerothre.ttf
2011.664	n/a	WORD	1005832	wordpools/wasnorm_wordpool.txt	LTP093	ltpFR	1	10	1	HUMAN	726	n/a	n/a	1	0.57763671875	0.412841796875	1	upper	zerothre.ttf
2015.766	n/a	WORD	1007883	wordpools/wasnorm_wordpool.txt	LTP093	ltpFR	1	10	1	STAKE	1368	n/a	n/a	0	0.57763671875	0.412841796875	1	upper	zerothre.ttf
2019.696	n/a	WORD	1009848	wordpools/wasnorm_wordpool.txt	LTP093	ltpFR	1	10	1	TEACHER	1440	n/a	n/a	1	0.57763671875	0.412841796875	1	upper	zerothre.ttf
2023.508	n/a	WORD	1011754	wordpools/wasnorm_wordpool.txt	LTP093	ltpFR	1	10	1	BLACKBERRY	132	n/a	n/a	1	0.57763671875	0.412841796875	1	upper	zerothre.ttf
2027.444	n/a	WORD	1013722	wordpools/wasnorm_wordpool.txt	LTP093	ltpFR	1	10	1	KIWI	781	n/a	n/a	1	0.57763671875	0.412841796875	1	upper	zerothre.ttf
2031.416	n/a	WORD	1015708	wordpools/wasnorm_wordpool.txt	LTP093	ltpFR	1	10	1	SUPERMARKET	1409	n/a	n/a	0	0.57763671875	0.412841796875	1	upper	zerothre.ttf
2035.252	n/a	WORD	1017626	wordpools/wasnorm_wordpool.txt	LTP093	ltpFR	1	10	1	CAGE	218	n/a	n/a	0	0.57763671875	0.412841796875	1	upper	zerothre.ttf
2039.198	n/a	WORD	1019599	wordpools/wasnorm_wordpool.txt	LTP093	ltpFR	1	10	1	HOUND	724	n/a	n/a	1	0.57763671875	0.412841796875	1	upper	zerothre.ttf
2043.068	n/a	WORD	1021534	wordpools/wasnorm_wordpool.txt	LTP093	ltpFR	1	10	1	SUBMARINE	1398	n/a	n/a	0	0.57763671875	0.412841796875	1	upper	zerothre.ttf
2047.022	n/a	WORD	1023511	wordpools/wasnorm_wordpool.txt	LTP093	ltpFR	1	10	1	DONKEY	484	n/a	n/a	1	0.57763671875	0.412841796875	1	upper	zerothre.ttf
2051.084	n/a	WORD	1025542	wordpools/wasnorm_wordpool.txt	LTP093	ltpFR	1	10	1	RIDER	1191	n/a	n/a	1	0.57763671875	0.412841796875	1	upper	zerothre.ttf
2056.91	n/a	REC_START	1028455	n/a	LTP093	ltpFR	1	10	n/a	n/a	n/a	n/a	n/a	n/a	n/a	n/a	n/a	n/a	n/a
2057.634	n/a	REC_WORD	1028817	wordpools/wasnorm_wordpool.txt	LTP093	ltpFR	1	10	1	DONKEY	484	n/a	n/a	1	n/a	n/a	n/a	n/a	n/a
2058.322	n/a	REC_WORD	1029161	wordpools/wasnorm_wordpool.txt	LTP093	ltpFR	1	10	1	RIDER	1191	n/a	n/a	1	n/a	n/a	n/a	n/a	n/a
2059.07	n/a	REC_WORD	1029535	wordpools/wasnorm_wordpool.txt	LTP093	ltpFR	1	10	1	HUMAN	726	n/a	n/a	1	n/a	n/a	n/a	n/a	n/a
2059.974	n/a	REC_WORD	1029987	wordpools/wasnorm_wordpool.txt	LTP093	ltpFR	1	10	1	INMATE	738	n/a	n/a	1	n/a	n/a	n/a	n/a	n/a
2061.366	n/a	REC_WORD_VV	1030683	wordpools/wasnorm_wordpool.txt	LTP093	ltpFR	1	10	n/a	<>	-1	n/a	n/a	n/a	n/a	n/a	n/a	n/a	n/a
2061.766	n/a	REC_WORD	1030883	wordpools/wasnorm_wordpool.txt	LTP093	ltpFR	1	10	1	MONKEY	911	n/a	n/a	1	n/a	n/a	n/a	n/a	n/a
2062.538	n/a	REC_WORD	1031269	wordpools/wasnorm_wordpool.txt	LTP093	ltpFR	1	10	1	CAGE	218	n/a	n/a	0	n/a	n/a	n/a	n/a	n/a
2063.73	n/a	REC_WORD	1031865	wordpools/wasnorm_wordpool.txt	LTP093	ltpFR	1	10	1	SUPERMARKET	1409	n/a	n/a	0	n/a	n/a	n/a	n/a	n/a
2064.898	n/a	REC_WORD	1032449	wordpools/wasnorm_wordpool.txt	LTP093	ltpFR	1	10	1	KIWI	781	n/a	n/a	1	n/a	n/a	n/a	n/a	n/a
2071.392	n/a	REC_WORD	1035696	wordpools/wasnorm_wordpool.txt	LTP093	ltpFR	1	10	1	BLACKBERRY	132	n/a	n/a	1	n/a	n/a	n/a	n/a	n/a
2094.98	n/a	REC_WORD	1047490	wordpools/wasnorm_wordpool.txt	LTP093	ltpFR	1	10	1	SUBMARINE	1398	n/a	n/a	0	n/a	n/a	n/a	n/a	n/a
2127.826	n/a	REC_WORD	1063913	wordpools/wasnorm_wordpool.txt	LTP093	ltpFR	1	10	1	HOUND	724	n/a	n/a	1	n/a	n/a	n/a	n/a	n/a
2147.872	n/a	WORD	1073936	wordpools/wasnorm_wordpool.txt	LTP093	ltpFR	1	11	-1	CLIFF	322	n/a	n/a	-1	1.0	1.0	1	upper	Verdana.ttf
2151.992	n/a	WORD	1075996	wordpools/wasnorm_wordpool.txt	LTP093	ltpFR	1	11	-1	COIN	343	n/a	n/a	-1	1.0	1.0	1	upper	Verdana.ttf
2156.004	n/a	WORD	1078002	wordpools/wasnorm_wordpool.txt	LTP093	ltpFR	1	11	-1	PUDDLE	1140	n/a	n/a	-1	1.0	1.0	1	upper	Verdana.ttf
2160.066	n/a	WORD	1080033	wordpools/wasnorm_wordpool.txt	LTP093	ltpFR	1	11	-1	SALIVA	1226	n/a	n/a	-1	1.0	1.0	1	upper	Verdana.ttf
2164.212	n/a	WORD	1082106	wordpools/wasnorm_wordpool.txt	LTP093	ltpFR	1	11	-1	SHRIMP	1297	n/a	n/a	-1	1.0	1.0	1	upper	Verdana.ttf
2168.392	n/a	WORD	1084196	wordpools/wasnorm_wordpool.txt	LTP093	ltpFR	1	11	-1	SARDINE	1235	n/a	n/a	-1	1.0	1.0	1	upper	Verdana.ttf
2172.528	n/a	WORD	1086264	wordpools/wasnorm_wordpool.txt	LTP093	ltpFR	1	11	-1	BALCONY	72	n/a	n/a	-1	1.0	1.0	1	upper	Verdana.ttf
2176.416	n/a	WORD	1088208	wordpools/wasnorm_wordpool.txt	LTP093	ltpFR	1	11	-1	STEWARDESS	1381	n/a	n/a	-1	1.0	1.0	1	upper	Verdana.ttf
2180.502	n/a	WORD	1090251	wordpools/wasnorm_wordpool.txt	LTP093	ltpFR	1	11	-1	BASKETBALL	96	n/a	n/a	-1	1.0	1.0	1	upper	Verdana.ttf
2184.648	n/a	WORD	1092324	wordpools/wasnorm_wordpool.txt	LTP093	ltpFR	1	11	-1	JUGGLER	763	n/a	n/a	-1	1.0	1.0	1	upper	Verdana.ttf
2188.634	n/a	WORD	1094317	wordpools/wasnorm_wordpool.txt	LTP093	ltpFR	1	11	-1	AIRPLANE	12	n/a	n/a	-1	1.0	1.0	1	upper	Verdana.ttf
2192.704	n/a	WORD	1096352	wordpools/wasnorm_wordpool.txt	LTP093	ltpFR	1	11	-1	SUSPECT	1415	n/a	n/a	-1	1.0	1.0	1	upper	Verdana.ttf
2196.626	n/a	WORD	1098313	wordpools/wasnorm_wordpool.txt	LTP093	ltpFR	1	11	-1	FLORIDA	582	n/a	n/a	-1	1.0	1.0	1	upper	Verdana.ttf
2200.446	n/a	WORD	1100223	wordpools/wasnorm_wordpool.txt	LTP093	ltpFR	1	11	-1	QUARTER	1148	n/a	n/a	-1	1.0	1.0	1	upper	Verdana.ttf
2204.332	n/a	WORD	1102166	wordpools/wasnorm_wordpool.txt	LTP093	ltpFR	1	11	-1	REGISTER	1180	n/a	n/a	-1	1.0	1.0	1	upper	Verdana.ttf
2208.312	n/a	WORD	1104156	wordpools/wasnorm_wordpool.txt	LTP093	ltpFR	1	11	-1	HEATER	698	n/a	n/a	-1	1.0	1.0	1	upper	Verdana.ttf
2214.206	n/a	REC_START	1107103	n/a	LTP093	ltpFR	1	11	n/a	n/a	n/a	n/a	n/a	n/a	n/a	n/a	n/a	n/a	n/a
2215.054	n/a	REC_WORD	1107527	wordpools/wasnorm_wordpool.txt	LTP093	ltpFR	1	11	-1	HEATER	698	n/a	n/a	-1	n/a	n/a	n/a	n/a	n/a
2215.812	n/a	REC_WORD	1107906	wordpools/wasnorm_wordpool.txt	LTP093	ltpFR	1	11	-1	FLORIDA	582	n/a	n/a	-1	n/a	n/a	n/a	n/a	n/a
2216.984	n/a	REC_WORD	1108492	wordpools/wasnorm_wordpool.txt	LTP093	ltpFR	1	11	-1	AIRPLANE	12	n/a	n/a	-1	n/a	n/a	n/a	n/a	n/a
2217.838	n/a	REC_WORD	1108919	wordpools/wasnorm_wordpool.txt	LTP093	ltpFR	1	11	-1	STEWARDESS	1381	n/a	n/a	-1	n/a	n/a	n/a	n/a	n/a
2219.144	n/a	REC_WORD	1109572	wordpools/wasnorm_wordpool.txt	LTP093	ltpFR	1	11	-1	SUSPECT	1415	n/a	n/a	-1	n/a	n/a	n/a	n/a	n/a
2238.96	n/a	REC_WORD	1119480	wordpools/wasnorm_wordpool.txt	LTP093	ltpFR	1	11	-1	QUARTER	1148	n/a	n/a	-1	n/a	n/a	n/a	n/a	n/a
2318.734	n/a	WORD	1159367	wordpools/wasnorm_wordpool.txt	LTP093	ltpFR	1	12	0	CUP	424	n/a	n/a	0	0.422607421875	0.5869140625	0	lower	amplitud.ttf
2322.886	n/a	WORD	1161443	wordpools/wasnorm_wordpool.txt	LTP093	ltpFR	1	12	0	DETECTIVE	454	n/a	n/a	0	0.422607421875	0.5869140625	0	lower	amplitud.ttf
2326.716	n/a	WORD	1163358	wordpools/wasnorm_wordpool.txt	LTP093	ltpFR	1	12	0	PACKAGE	997	n/a	n/a	0	0.422607421875	0.5869140625	0	lower	amplitud.ttf
2330.738	n/a	WORD	1165369	wordpools/wasnorm_wordpool.txt	LTP093	ltpFR	1	12	0	ENVELOPE	537	n/a	n/a	0	0.422607421875	0.5869140625	0	lower	amplitud.ttf
2334.666	n/a	WORD	1167333	wordpools/wasnorm_wordpool.txt	LTP093	ltpFR	1	12	0	BAIT	70	n/a	n/a	0	0.422607421875	0.5869140625	0	lower	amplitud.ttf
2338.67	n/a	WORD	1169335	wordpools/wasnorm_wordpool.txt	LTP093	ltpFR	1	12	0	SQUID	1361	n/a	n/a	0	0.422607421875	0.5869140625	0	lower	amplitud.ttf
2342.492	n/a	WORD	1171246	wordpools/wasnorm_wordpool.txt	LTP093	ltpFR	1	12	0	GUARD	667	n/a	n/a	0	0.422607421875	0.5869140625	0	lower	amplitud.ttf
2346.304	n/a	WORD	1173152	wordpools/wasnorm_wordpool.txt	LTP093	ltpFR	1	12	0	BREAST	171	n/a	n/a	0	0.422607421875	0.5869140625	0	lower	amplitud.ttf
2350.324	n/a	WORD	1175162	wordpools/wasnorm_wordpool.txt	LTP093	ltpFR	1	12	0	TOILET	1475	n/a	n/a	0	0.422607421875	0.5869140625	0	lower	amplitud.ttf
2354.31	n/a	WORD	1177155	wordpools/wasnorm_wordpool.txt	LTP093	ltpFR	1	12	0	STOOL	1386	n/a	n/a	0	0.422607421875	0.5869140625	0	lower	amplitud.ttf
2358.44	n/a	WORD	1179220	wordpools/wasnorm_wordpool.txt	LTP093	ltpFR	1	12	0	SPIT	1354	n/a	n/a	0	0.422607421875	0.5869140625	0	lower	amplitud.ttf
2362.552	n/a	WORD	1181276	wordpools/wasnorm_wordpool.txt	LTP093	ltpFR	1	12	0	KETTLE	772	n/a	n/a	0	0.422607421875	0.5869140625	0	lower	amplitud.ttf
2366.604	n/a	WORD	1183302	wordpools/wasnorm_wordpool.txt	LTP093	ltpFR	1	12	0	BENCH	121	n/a	n/a	0	0.422607421875	0.5869140625	0	lower	amplitud.ttf
2370.626	n/a	WORD	1185313	wordpools/wasnorm_wordpool.txt	LTP093	ltpFR	1	12	0	WINDSHIELD	1612	n/a	n/a	0	0.422607421875	0.5869140625	0	lower	amplitud.ttf
2374.638	n/a	WORD	1187319	wordpools/wasnorm_wordpool.txt	LTP093	ltpFR	1	12	0	TICKET	1464	n/a	n/a	0	0.422607421875	0.5869140625	0	lower	amplitud.ttf
2378.524	n/a	WORD	1189262	wordpools/wasnorm_wordpool.txt	LTP093	ltpFR	1	12	0	PITCHFORK	1078	n/a	n/a	1	0.422607421875	0.5869140625	0	lower	amplitud.ttf
2384.384	n/a	REC_START	1192192	n/a	LTP093	ltpFR	1	12	n/a	n/a	n/a	n/a	n/a	n/a	n/a	n/a	n/a	n/a	n/a
2385.158	n/a	REC_WORD	1192579	wordpools/wasnorm_wordpool.txt	LTP093	ltpFR	1	12	0	PITCHFORK	1078	n/a	n/a	1	n/a	n/a	n/a	n/a	n/a
2386.724	n/a	REC_WORD	1193362	wordpools/wasnorm_wordpool.txt	LTP093	ltpFR	1	12	0	SPIT	1354	n/a	n/a	0	n/a	n/a	n/a	n/a	n/a
2387.722	n/a	REC_WORD	1193861	wordpools/wasnorm_wordpool.txt	LTP093	ltpFR	1	12	0	TOILET	1475	n/a	n/a	0	n/a	n/a	n/a	n/a	n/a
2388.36	n/a	REC_WORD	1194180	wordpools/wasnorm_wordpool.txt	LTP093	ltpFR	1	12	0	STOOL	1386	n/a	n/a	0	n/a	n/a	n/a	n/a	n/a
2390.306	n/a	REC_WORD	1195153	wordpools/wasnorm_wordpool.txt	LTP093	ltpFR	1	12	0	BREAST	171	n/a	n/a	0	n/a	n/a	n/a	n/a	n/a
2397.43	n/a	REC_WORD	1198715	wordpools/wasnorm_wordpool.txt	LTP093	ltpFR	1	12	0	CUP	424	n/a	n/a	0	n/a	n/a	n/a	n/a	n/a
2404.014	n/a	REC_WORD	1202007	wordpools/wasnorm_wordpool.txt	LTP093	ltpFR	1	12	0	WINDSHIELD	1612	n/a	n/a	0	n/a	n/a	n/a	n/a	n/a
2407.178	n/a	REC_WORD	1203589	wordpools/wasnorm_wordpool.txt	LTP093	ltpFR	1	12	0	ENVELOPE	537	n/a	n/a	0	n/a	n/a	n/a	n/a	n/a
2412.252	n/a	REC_WORD	1206126	wordpools/wasnorm_wordpool.txt	LTP093	ltpFR	1	12	0	PACKAGE	997	n/a	n/a	0	n/a	n/a	n/a	n/a	n/a
2459.996	n/a	REST_REWET	1229998	n/a	LTP093	ltpFR	1	12	n/a	n/a	n/a	n/a	n/a	n/a	n/a	n/a	n/a	n/a	n/a
3161.89	n/a	WORD	1580945	wordpools/wasnorm_wordpool.txt	LTP093	ltpFR	1	13	0	BRIEFCASE	175	n/a	n/a	0	0.422607421875	0.5869140625	0	lower	amplitud.ttf
3166.092	n/a	WORD	1583046	wordpools/wasnorm_wordpool.txt	LTP093	ltpFR	1	13	0	FRIAR	605	n/a	n/a	0	0.422607421875	0.5869140625	0	lower	amplitud.ttf
3170.056	n/a	WORD	1585028	wordpools/wasnorm_wordpool.txt	LTP093	ltpFR	1	13	0	REPORT	1184	n/a	n/a	0	0.422607421875	0.5869140625	0	lower	amplitud.ttf
3174.0	n/a	WORD	1587000	wordpools/wasnorm_wordpool.txt	LTP093	ltpFR	1	13	1	CANAL	226	n/a	n/a	0	0.57763671875	0.412841796875	1	upper	zerothre.ttf
3178.038	n/a	WORD	1589019	wordpools/wasnorm_wordpool.txt	LTP093	ltpFR	1	13	1	WALRUS	1585	n/a	n/a	1	0.57763671875	0.412841796875	1	upper	zerothre.ttf
3181.992	n/a	WORD	1590996	wordpools/wasnorm_wordpool.txt	LTP093	ltpFR	1	13	1	OYSTER	995	n/a	n/a	1	0.57763671875	0.412841796875	1	upper	zerothre.ttf
3185.978	n/a	WORD	1592989	wordpools/wasnorm_wordpool.txt	LTP093	ltpFR	1	13	1	BOLT	146	n/a	n/a	0	0.57763671875	0.412841796875	1	upper	zerothre.ttf
3190.15	n/a	WORD	1595075	wordpools/wasnorm_wordpool.txt	LTP093	ltpFR	1	13	1	CATHEDRAL	260	n/a	n/a	0	0.57763671875	0.412841796875	1	upper	zerothre.ttf
3193.986	n/a	WORD	1596993	wordpools/wasnorm_wordpool.txt	LTP093	ltpFR	1	13	1	PRAIRIE	1118	n/a	n/a	0	0.57763671875	0.412841796875	1	upper	zerothre.ttf
3198.14	n/a	WORD	1599070	wordpools/wasnorm_wordpool.txt	LTP093	ltpFR	1	13	0	FISH	571	n/a	n/a	0	0.422607421875	0.5869140625	0	lower	amplitud.ttf
3202.336	n/a	WORD	1601168	wordpools/wasnorm_wordpool.txt	LTP093	ltpFR	1	13	0	MERMAID	887	n/a	n/a	0	0.422607421875	0.5869140625	0	lower	amplitud.ttf
3206.148	n/a	WORD	1603074	wordpools/wasnorm_wordpool.txt	LTP093	ltpFR	1	13	0	ELECTRON	522	n/a	n/a	0	0.422607421875	0.5869140625	0	lower	amplitud.ttf
3210.176	n/a	WORD	1605088	wordpools/wasnorm_wordpool.txt	LTP093	ltpFR	1	13	1	DRESSER	496	n/a	n/a	0	0.57763671875	0.412841796875	1	upper	zerothre.ttf
3214.004	n/a	WORD	1607002	wordpools/wasnorm_wordpool.txt	LTP093	ltpFR	1	13	1	CABIN	211	n/a	n/a	0	0.57763671875	0.412841796875	1	upper	zerothre.ttf
3218.074	n/a	WORD	1609037	wordpools/wasnorm_wordpool.txt	LTP093	ltpFR	1	13	0	MUSHROOM	934	n/a	n/a	0	0.422607421875	0.5869140625	0	lower	amplitud.ttf
3222.028	n/a	WORD	1611014	wordpools/wasnorm_wordpool.txt	LTP093	ltpFR	1	13	0	OLIVE	975	n/a	n/a	0	0.422607421875	0.5869140625	0	lower	amplitud.ttf
3227.93	n/a	REC_START	1613965	n/a	LTP093	ltpFR	1	13	n/a	n/a	n/a	n/a	n/a	n/a	n/a	n/a	n/a	n/a	n/a
3228.612	n/a	REC_WORD	1614306	wordpools/wasnorm_wordpool.txt	LTP093	ltpFR	1	13	0	OLIVE	975	n/a	n/a	0	n/a	n/a	n/a	n/a	n/a
3229.39	n/a	REC_WORD	1614695	wordpools/wasnorm_wordpool.txt	LTP093	ltpFR	1	13	0	MUSHROOM	934	n/a	n/a	0	n/a	n/a	n/a	n/a	n/a
3230.418	n/a	REC_WORD	1615209	wordpools/wasnorm_wordpool.txt	LTP093	ltpFR	1	13	1	CABIN	211	n/a	n/a	0	n/a	n/a	n/a	n/a	n/a
3232.434	n/a	REC_WORD	1616217	wordpools/wasnorm_wordpool.txt	LTP093	ltpFR	1	13	1	WALRUS	1585	n/a	n/a	1	n/a	n/a	n/a	n/a	n/a
3244.278	n/a	REC_WORD	1622139	wordpools/wasnorm_wordpool.txt	LTP093	ltpFR	1	13	0	FISH	571	n/a	n/a	0	n/a	n/a	n/a	n/a	n/a
3253.508	n/a	REC_WORD	1626754	wordpools/wasnorm_wordpool.txt	LTP093	ltpFR	1	13	0	ELECTRON	522	n/a	n/a	0	n/a	n/a	n/a	n/a	n/a
3317.876	n/a	WORD	1658938	wordpools/wasnorm_wordpool.txt	LTP093	ltpFR	1	14	0	VICTIM	1562	n/a	n/a	0	0.422607421875	0.5869140625	0	lower	amplitud.ttf
3321.996	n/a	WORD	1660998	wordpools/wasnorm_wordpool.txt	LTP093	ltpFR	1	14	0	GUN	673	n/a	n/a	0	0.422607421875	0.5869140625	0	lower	amplitud.ttf
3325.992	n/a	WORD	1662996	wordpools/wasnorm_wordpool.txt	LTP093	ltpFR	1	14	0	TAXI	1438	n/a	n/a	0	0.422607421875	0.5869140625	0	lower	amplitud.ttf
3330.012	n/a	WORD	1665006	wordpools/wasnorm_wordpool.txt	LTP093	ltpFR	1	14	0	OATS	968	n/a	n/a	0	0.422607421875	0.5869140625	0	lower	amplitud.ttf
3334.108	n/a	WORD	1667054	wordpools/wasnorm_wordpool.txt	LTP093	ltpFR	1	14	0	STABLE	1363	n/a	n/a	1	0.422607421875	0.5869140625	0	lower	amplitud.ttf
3338.296	n/a	WORD	1669148	wordpools/wasnorm_wordpool.txt	LTP093	ltpFR	1	14	0	CONDUCTOR	362	n/a	n/a	0	0.422607421875	0.5869140625	0	lower	amplitud.ttf
3342.266	n/a	WORD	1671133	wordpools/wasnorm_wordpool.txt	LTP093	ltpFR	1	14	0	COACH	331	n/a	n/a	1	0.422607421875	0.5869140625	0	lower	amplitud.ttf
3346.354	n/a	WORD	1673177	wordpools/wasnorm_wordpool.txt	LTP093	ltpFR	1	14	0	MARGARINE	868	n/a	n/a	0	0.422607421875	0.5869140625	0	lower	amplitud.ttf
3350.44	n/a	WORD	1675220	wordpools/wasnorm_wordpool.txt	LTP093	ltpFR	1	14	0	SENATE	1267	n/a	n/a	1	0.422607421875	0.5869140625	0	lower	amplitud.ttf
3354.41	n/a	WORD	1677205	wordpools/wasnorm_wordpool.txt	LTP093	ltpFR	1	14	0	BRAKE	166	n/a	n/a	0	0.422607421875	0.5869140625	0	lower	amplitud.ttf
3358.24	n/a	WORD	1679120	wordpools/wasnorm_wordpool.txt	LTP093	ltpFR	1	14	0	THRONE	1461	n/a	n/a	0	0.422607421875	0.5869140625	0	lower	amplitud.ttf
3362.084	n/a	WORD	1681042	wordpools/wasnorm_wordpool.txt	LTP093	ltpFR	1	14	0	HUT	729	n/a	n/a	1	0.422607421875	0.5869140625	0	lower	amplitud.ttf
3366.088	n/a	WORD	1683044	wordpools/wasnorm_wordpool.txt	LTP093	ltpFR	1	14	0	BLUEPRINT	142	n/a	n/a	0	0.422607421875	0.5869140625	0	lower	amplitud.ttf
3370.116	n/a	WORD	1685058	wordpools/wasnorm_wordpool.txt	LTP093	ltpFR	1	14	0	TRIGGER	1507	n/a	n/a	0	0.422607421875	0.5869140625	0	lower	amplitud.ttf
3374.146	n/a	WORD	1687073	wordpools/wasnorm_wordpool.txt	LTP093	ltpFR	1	14	0	GRAVE	658	n/a	n/a	1	0.422607421875	0.5869140625	0	lower	amplitud.ttf
3378.224	n/a	WORD	1689112	wordpools/wasnorm_wordpool.txt	LTP093	ltpFR	1	14	0	TERMINAL	1450	n/a	n/a	0	0.422607421875	0.5869140625	0	lower	amplitud.ttf
3383.992	n/a	REC_START	1691996	n/a	LTP093	ltpFR	1	14	n/a	n/a	n/a	n/a	n/a	n/a	n/a	n/a	n/a	n/a	n/a
3384.83	n/a	REC_WORD	1692415	wordpools/wasnorm_wordpool.txt	LTP093	ltpFR	1	14	0	TERMINAL	1450	n/a	n/a	0	n/a	n/a	n/a	n/a	n/a
3385.958	n/a	REC_WORD	1692979	wordpools/wasnorm_wordpool.txt	LTP093	ltpFR	1	14	0	GRAVE	658	n/a	n/a	1	n/a	n/a	n/a	n/a	n/a
3387.056	n/a	REC_WORD	1693528	wordpools/wasnorm_wordpool.txt	LTP093	ltpFR	1	14	0	GUN	673	n/a	n/a	0	n/a	n/a	n/a	n/a	n/a
3387.974	n/a	REC_WORD	1693987	wordpools/wasnorm_wordpool.txt	LTP093	ltpFR	1	14	0	TRIGGER	1507	n/a	n/a	0	n/a	n/a	n/a	n/a	n/a
3389.18	n/a	REC_WORD	1694590	wordpools/wasnorm_wordpool.txt	LTP093	ltpFR	1	14	0	VICTIM	1562	n/a	n/a	0	n/a	n/a	n/a	n/a	n/a
3390.492	n/a	REC_WORD	1695246	wordpools/wasnorm_wordpool.txt	LTP093	ltpFR	1	14	0	TAXI	1438	n/a	n/a	0	n/a	n/a	n/a	n/a	n/a
3395.86	n/a	REC_WORD	1697930	wordpools/wasnorm_wordpool.txt	LTP093	ltpFR	1	14	0	HUT	729	n/a	n/a	1	n/a	n/a	n/a	n/a	n/a
3402.674	n/a	REC_WORD	1701337	wordpools/wasnorm_wordpool.txt	LTP093	ltpFR	1	14	0	SENATE	1267	n/a	n/a	1	n/a	n/a	n/a	n/a	n/a
3405.694	n/a	REC_WORD	1702847	wordpools/wasnorm_wordpool.txt	LTP093	ltpFR	1	14	0	COACH	331	n/a	n/a	1	n/a	n/a	n/a	n/a	n/a
3411.69	n/a	REC_WORD	1705845	wordpools/wasnorm_wordpool.txt	LTP093	ltpFR	1	14	0	TERMINAL	1450	n/a	n/a	0	n/a	n/a	n/a	n/a	n/a
3412.408	n/a	REC_WORD_VV	1706204	wordpools/wasnorm_wordpool.txt	LTP093	ltpFR	1	14	n/a	<>	-1	n/a	n/a	n/a	n/a	n/a	n/a	n/a	n/a
3470.766	n/a	WORD	1735383	wordpools/wasnorm_wordpool.txt	LTP093	ltpFR	1	15	1	SCREWDRIVER	1255	n/a	n/a	0	0.57763671875	0.412841796875	1	upper	zerothre.ttf
3474.878	n/a	WORD	1737439	wordpools/wasnorm_wordpool.txt	LTP093	ltpFR	1	15	1	NUCLEUS	961	n/a	n/a	0	0.57763671875	0.412841796875	1	upper	zerothre.ttf
3478.7	n/a	WORD	1739350	wordpools/wasnorm_wordpool.txt	LTP093	ltpFR	1	15	1	SUN	1406	n/a	n/a	0	0.57763671875	0.412841796875	1	upper	zerothre.ttf
3482.77	n/a	WORD	1741385	wordpools/wasnorm_wordpool.txt	LTP093	ltpFR	1	15	1	LOLLIPOP	842	n/a	n/a	0	0.57763671875	0.412841796875	1	upper	zerothre.ttf
3486.7	n/a	WORD	1743350	wordpools/wasnorm_wordpool.txt	LTP093	ltpFR	1	15	1	LIME	823	n/a	n/a	1	0.57763671875	0.412841796875	1	upper	zerothre.ttf
3490.828	n/a	WORD	1745414	wordpools/wasnorm_wordpool.txt	LTP093	ltpFR	1	15	1	CUSTOMER	430	n/a	n/a	1	0.57763671875	0.412841796875	1	upper	zerothre.ttf
3494.756	n/a	WORD	1747378	wordpools/wasnorm_wordpool.txt	LTP093	ltpFR	1	15	1	CONSUMER	365	n/a	n/a	1	0.57763671875	0.412841796875	1	upper	zerothre.ttf
3498.604	n/a	WORD	1749302	wordpools/wasnorm_wordpool.txt	LTP093	ltpFR	1	15	1	PONY	1102	n/a	n/a	1	0.57763671875	0.412841796875	1	upper	zerothre.ttf
3502.748	n/a	WORD	1751374	wordpools/wasnorm_wordpool.txt	LTP093	ltpFR	1	15	1	PORCH	1106	n/a	n/a	0	0.57763671875	0.412841796875	1	upper	zerothre.ttf
3506.56	n/a	WORD	1753280	wordpools/wasnorm_wordpool.txt	LTP093	ltpFR	1	15	1	COCKTAIL	338	n/a	n/a	0	0.57763671875	0.412841796875	1	upper	zerothre.ttf
3510.514	n/a	WORD	1755257	wordpools/wasnorm_wordpool.txt	LTP093	ltpFR	1	15	1	WAIST	1579	n/a	n/a	0	0.57763671875	0.412841796875	1	upper	zerothre.ttf
3514.61	n/a	WORD	1757305	wordpools/wasnorm_wordpool.txt	LTP093	ltpFR	1	15	1	MOLECULE	905	n/a	n/a	0	0.57763671875	0.412841796875	1	upper	zerothre.ttf
3518.538	n/a	WORD	1759269	wordpools/wasnorm_wordpool.txt	LTP093	ltpFR	1	15	1	ROBIN	1199	n/a	n/a	1	0.57763671875	0.412841796875	1	upper	zerothre.ttf
3522.508	n/a	WORD	1761254	wordpools/wasnorm_wordpool.txt	LTP093	ltpFR	1	15	1	BEAR	106	n/a	n/a	1	0.57763671875	0.412841796875	1	upper	zerothre.ttf
3526.488	n/a	WORD	1763244	wordpools/wasnorm_wordpool.txt	LTP093	ltpFR	1	15	1	COBRA	336	n/a	n/a	1	0.57763671875	0.412841796875	1	upper	zerothre.ttf
3530.658	n/a	WORD	1765329	wordpools/wasnorm_wordpool.txt	LTP093	ltpFR	1	15	1	CROCODILE	411	n/a	n/a	1	0.57763671875	0.412841796875	1	upper	zerothre.ttf
3536.36	n/a	REC_START	1768180	n/a	LTP093	ltpFR	1	15	n/a	n/a	n/a	n/a	n/a	n/a	n/a	n/a	n/a	n/a	n/a
3537.278	n/a	REC_WORD	1768639	wordpools/wasnorm_wordpool.txt	LTP093	ltpFR	1	15	1	BEAR	106	n/a	n/a	1	n/a	n/a	n/a	n/a	n/a
3537.936	n/a	REC_WORD	1768968	wordpools/wasnorm_wordpool.txt	LTP093	ltpFR	1	15	1	CROCODILE	411	n/a	n/a	1	n/a	n/a	n/a	n/a	n/a
3538.882	n/a	REC_WORD	1769441	wordpools/wasnorm_wordpool.txt	LTP093	ltpFR	1	15	1	COBRA	336	n/a	n/a	1	n/a	n/a	n/a	n/a	n/a
3539.746	n/a	REC_WORD	1769873	wordpools/wasnorm_wordpool.txt	LTP093	ltpFR	1	15	1	ROBIN	1199	n/a	n/a	1	n/a	n/a	n/a	n/a	n/a
3565.748	n/a	REC_WORD	1782874	wordpools/wasnorm_wordpool.txt	LTP093	ltpFR	1	15	1	NUCLEUS	961	n/a	n/a	0	n/a	n/a	n/a	n/a	n/a
3566.706	n/a	REC_WORD	1783353	wordpools/wasnorm_wordpool.txt	LTP093	ltpFR	1	15	1	MOLECULE	905	n/a	n/a	0	n/a	n/a	n/a	n/a	n/a
3576.658	n/a	REC_WORD	1788329	wordpools/wasnorm_wordpool.txt	LTP093	ltpFR	1	15	1	WAIST	1579	n/a	n/a	0	n/a	n/a	n/a	n/a	n/a
3595.202	n/a	REC_WORD	1797601	wordpools/wasnorm_wordpool.txt	LTP093	ltpFR	1	15	1	CONSUMER	365	n/a	n/a	1	n/a	n/a	n/a	n/a	n/a
3596.374	n/a	REC_WORD	1798187	wordpools/wasnorm_wordpool.txt	LTP093	ltpFR	1	15	1	CUSTOMER	430	n/a	n/a	1	n/a	n/a	n/a	n/a	n/a
3622.8	n/a	WORD	1811400	wordpools/wasnorm_wordpool.txt	LTP093	ltpFR	1	16	0	FACTORY	548	n/a	n/a	1	0.422607421875	0.5869140625	0	lower	amplitud.ttf
3626.664	n/a	WORD	1813332	wordpools/wasnorm_wordpool.txt	LTP093	ltpFR	1	16	0	LAPEL	800	n/a	n/a	0	0.422607421875	0.5869140625	0	lower	amplitud.ttf
3630.658	n/a	WORD	1815329	wordpools/wasnorm_wordpool.txt	LTP093	ltpFR	1	16	0	INSTRUCTOR	741	n/a	n/a	0	0.422607421875	0.5869140625	0	lower	amplitud.ttf
3634.48	n/a	WORD	1817240	wordpools/wasnorm_wordpool.txt	LTP093	ltpFR	1	16	0	ENGINE	535	n/a	n/a	0	0.422607421875	0.5869140625	0	lower	amplitud.ttf
3638.584	n/a	WORD	1819292	wordpools/wasnorm_wordpool.txt	LTP093	ltpFR	1	16	0	APPLICATION	34	n/a	n/a	0	0.422607421875	0.5869140625	0	lower	amplitud.ttf
3642.662	n/a	WORD	1821331	wordpools/wasnorm_wordpool.txt	LTP093	ltpFR	1	16	1	FOLLOWER	589	n/a	n/a	1	0.57763671875	0.412841796875	1	upper	zerothre.ttf
3646.548	n/a	WORD	1823274	wordpools/wasnorm_wordpool.txt	LTP093	ltpFR	1	16	1	LETTUCE	814	n/a	n/a	1	0.57763671875	0.412841796875	1	upper	zerothre.ttf
3650.544	n/a	WORD	1825272	wordpools/wasnorm_wordpool.txt	LTP093	ltpFR	1	16	1	DRIVEWAY	500	n/a	n/a	0	0.57763671875	0.412841796875	1	upper	zerothre.ttf
3654.648	n/a	WORD	1827324	wordpools/wasnorm_wordpool.txt	LTP093	ltpFR	1	16	0	KID	775	n/a	n/a	0	0.422607421875	0.5869140625	0	lower	amplitud.ttf
3658.834	n/a	WORD	1829417	wordpools/wasnorm_wordpool.txt	LTP093	ltpFR	1	16	0	TOY	1492	n/a	n/a	0	0.422607421875	0.5869140625	0	lower	amplitud.ttf
3662.972	n/a	WORD	1831486	wordpools/wasnorm_wordpool.txt	LTP093	ltpFR	1	16	0	SERGEANT	1269	n/a	n/a	0	0.422607421875	0.5869140625	0	lower	amplitud.ttf
3666.876	n/a	WORD	1833438	wordpools/wasnorm_wordpool.txt	LTP093	ltpFR	1	16	1	VIDEO	1564	n/a	n/a	0	0.57763671875	0.412841796875	1	upper	zerothre.ttf
3670.988	n/a	WORD	1835494	wordpools/wasnorm_wordpool.txt	LTP093	ltpFR	1	16	1	SHARK	1275	n/a	n/a	1	0.57763671875	0.412841796875	1	upper	zerothre.ttf
3674.866	n/a	WORD	1837433	wordpools/wasnorm_wordpool.txt	LTP093	ltpFR	1	16	1	KEYBOARD	774	n/a	n/a	0	0.57763671875	0.412841796875	1	upper	zerothre.ttf
3678.994	n/a	WORD	1839497	wordpools/wasnorm_wordpool.txt	LTP093	ltpFR	1	16	1	DAISY	435	n/a	n/a	1	0.57763671875	0.412841796875	1	upper	zerothre.ttf
3682.816	n/a	WORD	1841408	wordpools/wasnorm_wordpool.txt	LTP093	ltpFR	1	16	1	BLOSSOM	138	n/a	n/a	1	0.57763671875	0.412841796875	1	upper	zerothre.ttf
3688.552	n/a	REC_START	1844276	n/a	LTP093	ltpFR	1	16	n/a	n/a	n/a	n/a	n/a	n/a	n/a	n/a	n/a	n/a	n/a
3689.274	n/a	REC_WORD	1844637	wordpools/wasnorm_wordpool.txt	LTP093	ltpFR	1	16	1	KEYBOARD	774	n/a	n/a	0	n/a	n/a	n/a	n/a	n/a
3690.398	n/a	REC_WORD	1845199	wordpools/wasnorm_wordpool.txt	LTP093	ltpFR	1	16	1	DAISY	435	n/a	n/a	1	n/a	n/a	n/a	n/a	n/a
3691.176	n/a	REC_WORD	1845588	wordpools/wasnorm_wordpool.txt	LTP093	ltpFR	1	16	1	BLOSSOM	138	n/a	n/a	1	n/a	n/a	n/a	n/a	n/a
3692.278	n/a	REC_WORD	1846139	wordpools/wasnorm_wordpool.txt	LTP093	ltpFR	1	16	1	SHARK	1275	n/a	n/a	1	n/a	n/a	n/a	n/a	n/a
3698.734	n/a	REC_WORD	1849367	wordpools/wasnorm_wordpool.txt	LTP093	ltpFR	1	16	0	SERGEANT	1269	n/a	n/a	0	n/a	n/a	n/a	n/a	n/a
3706.57	n/a	REC_WORD	1853285	wordpools/wasnorm_wordpool.txt	LTP093	ltpFR	1	16	0	APPLICATION	34	n/a	n/a	0	n/a	n/a	n/a	n/a	n/a
3728.964	n/a	REC_WORD	1864482	wordpools/wasnorm_wordpool.txt	LTP093	ltpFR	1	16	0	ENGINE	535	n/a	n/a	0	n/a	n/a	n/a	n/a	n/a
4041.104	n/a	REC_START	2020552	n/a	LTP093	ltpFR	1	1	n/a	n/a	n/a	n/a	n/a	n/a	n/a	n/a	n/a	n/a	n/a
4041.138	n/a	RECOG_TARGET	2020569	n/a	LTP093	ltpFR	1	1	1	SUPPER	1411	1	5	0	n/a	n/a	n/a	n/a	n/a
4043.314	n/a	RECOG_RESP	2021657	n/a	LTP093	ltpFR	1	1	1	SUPPER	1411	1	n/a	0	n/a	n/a	n/a	n/a	n/a
4044.8	n/a	RECOG_CONF	2022400	n/a	LTP093	ltpFR	1	1	1	SUPPER	1411	n/a	5	0	n/a	n/a	n/a	n/a	n/a
4046.498	n/a	RECOG_TARGET	2023249	n/a	LTP093	ltpFR	1	1	1	BANANA	77	1	5	0	n/a	n/a	n/a	n/a	n/a
4047.458	n/a	RECOG_RESP	2023729	n/a	LTP093	ltpFR	1	1	1	BANANA	77	1	n/a	0	n/a	n/a	n/a	n/a	n/a
4048.652	n/a	RECOG_CONF	2024326	n/a	LTP093	ltpFR	1	1	1	BANANA	77	n/a	5	0	n/a	n/a	n/a	n/a	n/a
4050.36	n/a	RECOG_LURE	2025180	n/a	LTP093	ltpFR	1	1	n/a	WALLET	1583	0	4	n/a	n/a	n/a	n/a	n/a	n/a
4051.33	n/a	RECOG_RESP	2025665	n/a	LTP093	ltpFR	1	1	n/a	WALLET	1583	0	n/a	n/a	n/a	n/a	n/a	n/a	n/a
4052.402	n/a	RECOG_CONF	2026201	n/a	LTP093	ltpFR	1	1	n/a	WALLET	1583	n/a	4	n/a	n/a	n/a	n/a	n/a	n/a
4054.046	n/a	RECOG_LURE	2027023	n/a	LTP093	ltpFR	1	1	n/a	CLAY	320	0	2	n/a	n/a	n/a	n/a	n/a	n/a
4055.32	n/a	RECOG_RESP	2027660	n/a	LTP093	ltpFR	1	1	n/a	CLAY	320	0	n/a	n/a	n/a	n/a	n/a	n/a	n/a
4056.554	n/a	RECOG_CONF	2028277	n/a	LTP093	ltpFR	1	1	n/a	CLAY	320	n/a	2	n/a	n/a	n/a	n/a	n/a	n/a
4058.218	n/a	RECOG_LURE	2029109	n/a	LTP093	ltpFR	1	1	n/a	SUNRISE	1407	0	3	n/a	n/a	n/a	n/a	n/a	n/a
4059.356	n/a	RECOG_RESP	2029678	n/a	LTP093	ltpFR	1	1	n/a	SUNRISE	1407	0	n/a	n/a	n/a	n/a	n/a	n/a	n/a
4060.514	n/a	RECOG_CONF	2030257	n/a	LTP093	ltpFR	1	1	n/a	SUNRISE	1407	n/a	3	n/a	n/a	n/a	n/a	n/a	n/a
4062.128	n/a	RECOG_LURE	2031064	n/a	LTP093	ltpFR	1	1	n/a	HOME	712	0	3	n/a	n/a	n/a	n/a	n/a	n/a
4062.938	n/a	RECOG_RESP	2031469	n/a	LTP093	ltpFR	1	1	n/a	HOME	712	0	n/a	n/a	n/a	n/a	n/a	n/a	n/a
4064.356	n/a	RECOG_CONF	2032178	n/a	LTP093	ltpFR	1	1	n/a	HOME	712	n/a	3	n/a	n/a	n/a	n/a	n/a	n/a
4065.982	n/a	RECOG_TARGET	2032991	n/a	LTP093	ltpFR	1	1	1	WALRUS	1585	1	5	1	n/a	n/a	n/a	n/a	n/a
4066.97	n/a	RECOG_RESP	2033485	n/a	LTP093	ltpFR	1	1	1	WALRUS	1585	1	n/a	1	n/a	n/a	n/a	n/a	n/a
4068.008	n/a	RECOG_CONF	2034004	n/a	LTP093	ltpFR	1	1	1	WALRUS	1585	n/a	5	1	n/a	n/a	n/a	n/a	n/a
4069.464	n/a	RECOG_TARGET	2034732	n/a	LTP093	ltpFR	1	1	-1	OUTLAW	989	1	5	-1	n/a	n/a	n/a	n/a	n/a
4070.128	n/a	RECOG_RESP	2035064	n/a	LTP093	ltpFR	1	1	-1	OUTLAW	989	1	n/a	-1	n/a	n/a	n/a	n/a	n/a
4071.22	n/a	RECOG_CONF	2035610	n/a	LTP093	ltpFR	1	1	-1	OUTLAW	989	n/a	5	-1	n/a	n/a	n/a	n/a	n/a
4072.834	n/a	RECOG_LURE	2036417	n/a	LTP093	ltpFR	1	1	n/a	BOOK	149	0	4	n/a	n/a	n/a	n/a	n/a	n/a
4073.72	n/a	RECOG_RESP	2036860	n/a	LTP093	ltpFR	1	1	n/a	BOOK	149	0	n/a	n/a	n/a	n/a	n/a	n/a	n/a
4075.232	n/a	RECOG_CONF	2037616	n/a	LTP093	ltpFR	1	1	n/a	BOOK	149	n/a	4	n/a	n/a	n/a	n/a	n/a	n/a
4076.888	n/a	RECOG_LURE	2038444	n/a	LTP093	ltpFR	1	1	n/a	RECEPTIONIST	1174	0	3	n/a	n/a	n/a	n/a	n/a	n/a
4078.126	n/a	RECOG_RESP	2039063	n/a	LTP093	ltpFR	1	1	n/a	RECEPTIONIST	1174	0	n/a	n/a	n/a	n/a	n/a	n/a	n/a
4079.652	n/a	RECOG_CONF	2039826	n/a	LTP093	ltpFR	1	1	n/a	RECEPTIONIST	1174	n/a	3	n/a	n/a	n/a	n/a	n/a	n/a
4081.124	n/a	RECOG_TARGET	2040562	n/a	LTP093	ltpFR	1	1	0	TRIGGER	1507	1	5	0	n/a	n/a	n/a	n/a	n/a
4081.916	n/a	RECOG_RESP	2040958	n/a	LTP093	ltpFR	1	1	0	TRIGGER	1507	1	n/a	0	n/a	n/a	n/a	n/a	n/a
4082.904	n/a	RECOG_CONF	2041452	n/a	LTP093	ltpFR	1	1	0	TRIGGER	1507	n/a	5	0	n/a	n/a	n/a	n/a	n/a
4084.412	n/a	RECOG_TARGET	2042206	n/a	LTP093	ltpFR	1	1	-1	SALMON	1227	1	5	-1	n/a	n/a	n/a	n/a	n/a
4085.04	n/a	RECOG_RESP	2042520	n/a	LTP093	ltpFR	1	1	-1	SALMON	1227	1	n/a	-1	n/a	n/a	n/a	n/a	n/a
4086.028	n/a	RECOG_CONF	2043014	n/a	LTP093	ltpFR	1	1	-1	SALMON	1227	n/a	5	-1	n/a	n/a	n/a	n/a	n/a
4087.5	n/a	RECOG_TARGET	2043750	n/a	LTP093	ltpFR	1	1	1	LODGE	839	0	4	0	n/a	n/a	n/a	n/a	n/a
4088.656	n/a	RECOG_RESP	2044328	n/a	LTP093	ltpFR	1	1	1	LODGE	839	0	n/a	0	n/a	n/a	n/a	n/a	n/a
4090.148	n/a	RECOG_CONF	2045074	n/a	LTP093	ltpFR	1	1	1	LODGE	839	n/a	4	0	n/a	n/a	n/a	n/a	n/a
4091.73	n/a	RECOG_LURE	2045865	n/a	LTP093	ltpFR	1	1	n/a	VACUUM	1543	0	2	n/a	n/a	n/a	n/a	n/a	n/a
4093.072	n/a	RECOG_RESP	2046536	n/a	LTP093	ltpFR	1	1	n/a	VACUUM	1543	0	n/a	n/a	n/a	n/a	n/a	n/a	n/a
4094.428	n/a	RECOG_CONF	2047214	n/a	LTP093	ltpFR	1	1	n/a	VACUUM	1543	n/a	2	n/a	n/a	n/a	n/a	n/a	n/a
4095.982	n/a	RECOG_LURE	2047991	n/a	LTP093	ltpFR	1	1	n/a	CHEMICAL	291	0	3	n/a	n/a	n/a	n/a	n/a	n/a
4096.912	n/a	RECOG_RESP	2048456	n/a	LTP093	ltpFR	1	1	n/a	CHEMICAL	291	0	n/a	n/a	n/a	n/a	n/a	n/a	n/a
4098.06	n/a	RECOG_CONF	2049030	n/a	LTP093	ltpFR	1	1	n/a	CHEMICAL	291	n/a	3	n/a	n/a	n/a	n/a	n/a	n/a
4099.562	n/a	RECOG_TARGET	2049781	n/a	LTP093	ltpFR	1	1	-1	JURY	766	1	5	-1	n/a	n/a	n/a	n/a	n/a
4100.294	n/a	RECOG_RESP	2050147	n/a	LTP093	ltpFR	1	1	-1	JURY	766	1	n/a	-1	n/a	n/a	n/a	n/a	n/a
4101.352	n/a	RECOG_CONF	2050676	n/a	LTP093	ltpFR	1	1	-1	JURY	766	n/a	5	-1	n/a	n/a	n/a	n/a	n/a
4102.824	n/a	RECOG_LURE	2051412	n/a	LTP093	ltpFR	1	1	n/a	HOSPITAL	721	0	2	n/a	n/a	n/a	n/a	n/a	n/a
4104.506	n/a	RECOG_RESP	2052253	n/a	LTP093	ltpFR	1	1	n/a	HOSPITAL	721	0	n/a	n/a	n/a	n/a	n/a	n/a	n/a
4105.682	n/a	RECOG_CONF	2052841	n/a	LTP093	ltpFR	1	1	n/a	HOSPITAL	721	n/a	2	n/a	n/a	n/a	n/a	n/a	n/a
4107.17	n/a	RECOG_LURE	2053585	n/a	LTP093	ltpFR	1	1	n/a	DUNE	506	0	3	n/a	n/a	n/a	n/a	n/a	n/a
4108.068	n/a	RECOG_RESP	2054034	n/a	LTP093	ltpFR	1	1	n/a	DUNE	506	0	n/a	n/a	n/a	n/a	n/a	n/a	n/a
4109.252	n/a	RECOG_CONF	2054626	n/a	LTP093	ltpFR	1	1	n/a	DUNE	506	n/a	3	n/a	n/a	n/a	n/a	n/a	n/a
4110.764	n/a	RECOG_LURE	2055382	n/a	LTP093	ltpFR	1	1	n/a	WITCH	1617	0	4	n/a	n/a	n/a	n/a	n/a	n/a
4112.448	n/a	RECOG_RESP	2056224	n/a	LTP093	ltpFR	1	1	n/a	WITCH	1617	0	n/a	n/a	n/a	n/a	n/a	n/a	n/a
4113.624	n/a	RECOG_CONF	2056812	n/a	LTP093	ltpFR	1	1	n/a	WITCH	1617	n/a	4	n/a	n/a	n/a	n/a	n/a	n/a
4115.236	n/a	RECOG_TARGET	2057618	n/a	LTP093	ltpFR	1	1	-1	STEWARDESS	1381	1	5	-1	n/a	n/a	n/a	n/a	n/a
4116.328	n/a	RECOG_RESP	2058164	n/a	LTP093	ltpFR	1	1	-1	STEWARDESS	1381	1	n/a	-1	n/a	n/a	n/a	n/a	n/a
4117.356	n/a	RECOG_CONF	2058678	n/a	LTP093	ltpFR	1	1	-1	STEWARDESS	1381	n/a	5	-1	n/a	n/a	n/a	n/a	n/a
4134.13	n/a	REC_START	2067065	n/a	LTP093	ltpFR	1	2	n/a	n/a	n/a	n/a	n/a	n/a	n/a	n/a	n/a	n/a	n/a
4134.164	n/a	RECOG_LURE	2067082	n/a	LTP093	ltpFR	1	2	n/a	PHILOSOPHER	1054	0	4	n/a	n/a	n/a	n/a	n/a	n/a
4135.328	n/a	RECOG_RESP	2067664	n/a	LTP093	ltpFR	1	2	n/a	PHILOSOPHER	1054	0	n/a	n/a	n/a	n/a	n/a	n/a	n/a
4136.89	n/a	RECOG_CONF	2068445	n/a	LTP093	ltpFR	1	2	n/a	PHILOSOPHER	1054	n/a	4	n/a	n/a	n/a	n/a	n/a	n/a
4138.566	n/a	RECOG_TARGET	2069283	n/a	LTP093	ltpFR	1	2	1	ROBIN	1199	1	5	1	n/a	n/a	n/a	n/a	n/a
4139.414	n/a	RECOG_RESP	2069707	n/a	LTP093	ltpFR	1	2	1	ROBIN	1199	1	n/a	1	n/a	n/a	n/a	n/a	n/a
4140.61	n/a	RECOG_CONF	2070305	n/a	LTP093	ltpFR	1	2	1	ROBIN	1199	n/a	5	1	n/a	n/a	n/a	n/a	n/a
4142.196	n/a	RECOG_TARGET	2071098	n/a	LTP093	ltpFR	1	2	-1	BARREL	91	1	5	-1	n/a	n/a	n/a	n/a	n/a
4142.926	n/a	RECOG_RESP	2071463	n/a	LTP093	ltpFR	1	2	-1	BARREL	91	1	n/a	-1	n/a	n/a	n/a	n/a	n/a
4144.202	n/a	RECOG_CONF	2072101	n/a	LTP093	ltpFR	1	2	-1	BARREL	91	n/a	5	-1	n/a	n/a	n/a	n/a	n/a
4145.866	n/a	RECOG_LURE	2072933	n/a	LTP093	ltpFR	1	2	n/a	PICK	1058	0	2	n/a	n/a	n/a	n/a	n/a	n/a
4146.666	n/a	RECOG_RESP	2073333	n/a	LTP093	ltpFR	1	2	n/a	PICK	1058	0	n/a	n/a	n/a	n/a	n/a	n/a	n/a
4147.744	n/a	RECOG_CONF	2073872	n/a	LTP093	ltpFR	1	2	n/a	PICK	1058	n/a	2	n/a	n/a	n/a	n/a	n/a	n/a
4149.254	n/a	RECOG_TARGET	2074627	n/a	LTP093	ltpFR	1	2	0	TOILET	1475	1	5	0	n/a	n/a	n/a	n/a	n/a
4149.84	n/a	RECOG_RESP	2074920	n/a	LTP093	ltpFR	1	2	0	TOILET	1475	1	n/a	0	n/a	n/a	n/a	n/a	n/a
4150.718	n/a	RECOG_CONF	2075359	n/a	LTP093	ltpFR	1	2	0	TOILET	1475	n/a	5	0	n/a	n/a	n/a	n/a	n/a
4152.21	n/a	RECOG_LURE	2076105	n/a	LTP093	ltpFR	1	2	n/a	SAGE	1222	0	4	n/a	n/a	n/a	n/a	n/a	n/a
4153.134	n/a	RECOG_RESP	2076567	n/a	LTP093	ltpFR	1	2	n/a	SAGE	1222	0	n/a	n/a	n/a	n/a	n/a	n/a	n/a
4154.32	n/a	RECOG_CONF	2077160	n/a	LTP093	ltpFR	1	2	n/a	SAGE	1222	n/a	4	n/a	n/a	n/a	n/a	n/a	n/a
4155.864	n/a	RECOG_LURE	2077932	n/a	LTP093	ltpFR	1	2	n/a	DASHBOARD	441	0	4	n/a	n/a	n/a	n/a	n/a	n/a
4156.984	n/a	RECOG_RESP	2078492	n/a	LTP093	ltpFR	1	2	n/a	DASHBOARD	441	0	n/a	n/a	n/a	n/a	n/a	n/a	n/a
4157.942	n/a	RECOG_CONF	2078971	n/a	LTP093	ltpFR	1	2	n/a	DASHBOARD	441	n/a	4	n/a	n/a	n/a	n/a	n/a	n/a
4159.542	n/a	RECOG_LURE	2079771	n/a	LTP093	ltpFR	1	2	n/a	DONOR	485	0	4	n/a	n/a	n/a	n/a	n/a	n/a
4160.486	n/a	RECOG_RESP	2080243	n/a	LTP093	ltpFR	1	2	n/a	DONOR	485	0	n/a	n/a	n/a	n/a	n/a	n/a	n/a
4161.724	n/a	RECOG_CONF	2080862	n/a	LTP093	ltpFR	1	2	n/a	DONOR	485	n/a	4	n/a	n/a	n/a	n/a	n/a	n/a
4163.38	n/a	RECOG_TARGET	2081690	n/a	LTP093	ltpFR	1	2	1	SUN	1406	1	5	0	n/a	n/a	n/a	n/a	n/a
4165.2	n/a	RECOG_RESP	2082600	n/a	LTP093	ltpFR	1	2	1	SUN	1406	1	n/a	0	n/a	n/a	n/a	n/a	n/a
4166.512	n/a	RECOG_CONF	2083256	n/a	LTP093	ltpFR	1	2	1	SUN	1406	n/a	5	0	n/a	n/a	n/a	n/a	n/a
4168.066	n/a	RECOG_LURE	2084033	n/a	LTP093	ltpFR	1	2	n/a	SKETCH	1315	0	2	n/a	n/a	n/a	n/a	n/a	n/a
4168.918	n/a	RECOG_RESP	2084459	n/a	LTP093	ltpFR	1	2	n/a	SKETCH	1315	0	n/a	n/a	n/a	n/a	n/a	n/a	n/a
4169.974	n/a	RECOG_CONF	2084987	n/a	LTP093	ltpFR	1	2	n/a	SKETCH	1315	n/a	2	n/a	n/a	n/a	n/a	n/a	n/a
4171.512	n/a	RECOG_LURE	2085756	n/a	LTP093	ltpFR	1	2	n/a	DOOR	486	0	2	n/a	n/a	n/a	n/a	n/a	n/a
4172.674	n/a	RECOG_RESP	2086337	n/a	LTP093	ltpFR	1	2	n/a	DOOR	486	0	n/a	n/a	n/a	n/a	n/a	n/a	n/a
4175.632	n/a	RECOG_CONF	2087816	n/a	LTP093	ltpFR	1	2	n/a	DOOR	486	n/a	2	n/a	n/a	n/a	n/a	n/a	n/a
4177.388	n/a	RECOG_LURE	2088694	n/a	LTP093	ltpFR	1	2	n/a	KNIFE	785	0	2	n/a	n/a	n/a	n/a	n/a	n/a
4178.416	n/a	RECOG_RESP	2089208	n/a	LTP093	ltpFR	1	2	n/a	KNIFE	785	0	n/a	n/a	n/a	n/a	n/a	n/a	n/a
4179.742	n/a	RECOG_CONF	2089871	n/a	LTP093	ltpFR	1	2	n/a	KNIFE	785	n/a	2	n/a	n/a	n/a	n/a	n/a	n/a
4181.426	n/a	RECOG_TARGET	2090713	n/a	LTP093	ltpFR	1	2	1	TEENAGER	1444	1	5	1	n/a	n/a	n/a	n/a	n/a
4182.168	n/a	RECOG_RESP	2091084	n/a	LTP093	ltpFR	1	2	1	TEENAGER	1444	1	n/a	1	n/a	n/a	n/a	n/a	n/a
4183.284	n/a	RECOG_CONF	2091642	n/a	LTP093	ltpFR	1	2	1	TEENAGER	1444	n/a	5	1	n/a	n/a	n/a	n/a	n/a
4184.788	n/a	RECOG_TARGET	2092394	n/a	LTP093	ltpFR	1	2	0	LAPEL	800	1	5	0	n/a	n/a	n/a	n/a	n/a
4185.53	n/a	RECOG_RESP	2092765	n/a	LTP093	ltpFR	1	2	0	LAPEL	800	1	n/a	0	n/a	n/a	n/a	n/a	n/a
4186.628	n/a	RECOG_CONF	2093314	n/a	LTP093	ltpFR	1	2	0	LAPEL	800	n/a	5	0	n/a	n/a	n/a	n/a	n/a
4188.144	n/a	RECOG_LURE	2094072	n/a	LTP093	ltpFR	1	2	n/a	SNOB	1335	0	3	n/a	n/a	n/a	n/a	n/a	n/a
4189.202	n/a	RECOG_RESP	2094601	n/a	LTP093	ltpFR	1	2	n/a	SNOB	1335	0	n/a	n/a	n/a	n/a	n/a	n/a	n/a
4190.388	n/a	RECOG_CONF	2095194	n/a	LTP093	ltpFR	1	2	n/a	SNOB	1335	n/a	3	n/a	n/a	n/a	n/a	n/a	n/a
4191.988	n/a	RECOG_LURE	2095994	n/a	LTP093	ltpFR	1	2	n/a	OAR	966	0	4	n/a	n/a	n/a	n/a	n/a	n/a
4193.102	n/a	RECOG_RESP	2096551	n/a	LTP093	ltpFR	1	2	n/a	OAR	966	0	n/a	n/a	n/a	n/a	n/a	n/a	n/a
4194.638	n/a	RECOG_CONF	2097319	n/a	LTP093	ltpFR	1	2	n/a	OAR	966	n/a	4	n/a	n/a	n/a	n/a	n/a	n/a
4196.266	n/a	RECOG_TARGET	2098133	n/a	LTP093	ltpFR	1	2	1	ROOMMATE	1207	1	5	1	n/a	n/a	n/a	n/a	n/a
4197.182	n/a	RECOG_RESP	2098591	n/a	LTP093	ltpFR	1	2	1	ROOMMATE	1207	1	n/a	1	n/a	n/a	n/a	n/a	n/a
4198.25	n/a	RECOG_CONF	2099125	n/a	LTP093	ltpFR	1	2	1	ROOMMATE	1207	n/a	5	1	n/a	n/a	n/a	n/a	n/a
4199.87	n/a	RECOG_LURE	2099935	n/a	LTP093	ltpFR	1	2	n/a	TULIP	1517	0	4	n/a	n/a	n/a	n/a	n/a	n/a
4200.804	n/a	RECOG_RESP	2100402	n/a	LTP093	ltpFR	1	2	n/a	TULIP	1517	0	n/a	n/a	n/a	n/a	n/a	n/a	n/a
4201.782	n/a	RECOG_CONF	2100891	n/a	LTP093	ltpFR	1	2	n/a	TULIP	1517	n/a	4	n/a	n/a	n/a	n/a	n/a	n/a
4203.334	n/a	RECOG_TARGET	2101667	n/a	LTP093	ltpFR	1	2	1	MAGICIAN	854	1	5	1	n/a	n/a	n/a	n/a	n/a
4204.052	n/a	RECOG_RESP	2102026	n/a	LTP093	ltpFR	1	2	1	MAGICIAN	854	1	n/a	1	n/a	n/a	n/a	n/a	n/a
4204.976	n/a	RECOG_CONF	2102488	n/a	LTP093	ltpFR	1	2	1	MAGICIAN	854	n/a	5	1	n/a	n/a	n/a	n/a	n/a
4206.53	n/a	RECOG_TARGET	2103265	n/a	LTP093	ltpFR	1	2	1	SUBMARINE	1398	1	5	0	n/a	n/a	n/a	n/a	n/a
4207.136	n/a	RECOG_RESP	2103568	n/a	LTP093	ltpFR	1	2	1	SUBMARINE	1398	1	n/a	0	n/a	n/a	n/a	n/a	n/a
4208.088	n/a	RECOG_CONF	2104044	n/a	LTP093	ltpFR	1	2	1	SUBMARINE	1398	n/a	5	0	n/a	n/a	n/a	n/a	n/a
4217.242	n/a	REC_START	2108621	n/a	LTP093	ltpFR	1	3	n/a	n/a	n/a	n/a	n/a	n/a	n/a	n/a	n/a	n/a	n/a
4217.268	n/a	RECOG_TARGET	2108634	n/a	LTP093	ltpFR	1	3	-1	REGISTER	1180	0	2	-1	n/a	n/a	n/a	n/a	n/a
4218.668	n/a	RECOG_RESP	2109334	n/a	LTP093	ltpFR	1	3	-1	REGISTER	1180	0	n/a	-1	n/a	n/a	n/a	n/a	n/a
4219.99	n/a	RECOG_CONF	2109995	n/a	LTP093	ltpFR	1	3	-1	REGISTER	1180	n/a	2	-1	n/a	n/a	n/a	n/a	n/a
4221.488	n/a	RECOG_TARGET	2110744	n/a	LTP093	ltpFR	1	3	-1	JELLY	755	1	5	-1	n/a	n/a	n/a	n/a	n/a
4222.2	n/a	RECOG_RESP	2111100	n/a	LTP093	ltpFR	1	3	-1	JELLY	755	1	n/a	-1	n/a	n/a	n/a	n/a	n/a
4223.122	n/a	RECOG_CONF	2111561	n/a	LTP093	ltpFR	1	3	-1	JELLY	755	n/a	5	-1	n/a	n/a	n/a	n/a	n/a
4224.534	n/a	RECOG_LURE	2112267	n/a	LTP093	ltpFR	1	3	n/a	FOREST	593	0	3	n/a	n/a	n/a	n/a	n/a	n/a
4225.322	n/a	RECOG_RESP	2112661	n/a	LTP093	ltpFR	1	3	n/a	FOREST	593	0	n/a	n/a	n/a	n/a	n/a	n/a	n/a
4226.586	n/a	RECOG_CONF	2113293	n/a	LTP093	ltpFR	1	3	n/a	FOREST	593	n/a	3	n/a	n/a	n/a	n/a	n/a	n/a
4228.096	n/a	RECOG_LURE	2114048	n/a	LTP093	ltpFR	1	3	n/a	LASH	802	0	2	n/a	n/a	n/a	n/a	n/a	n/a
4230.146	n/a	RECOG_RESP	2115073	n/a	LTP093	ltpFR	1	3	n/a	LASH	802	0	n/a	n/a	n/a	n/a	n/a	n/a	n/a
4231.844	n/a	RECOG_CONF	2115922	n/a	LTP093	ltpFR	1	3	n/a	LASH	802	n/a	2	n/a	n/a	n/a	n/a	n/a	n/a
4233.416	n/a	RECOG_LURE	2116708	n/a	LTP093	ltpFR	1	3	n/a	BUTTER	205	0	4	n/a	n/a	n/a	n/a	n/a	n/a
4234.388	n/a	RECOG_RESP	2117194	n/a	LTP093	ltpFR	1	3	n/a	BUTTER	205	0	n/a	n/a	n/a	n/a	n/a	n/a	n/a
4235.466	n/a	RECOG_CONF	2117733	n/a	LTP093	ltpFR	1	3	n/a	BUTTER	205	n/a	4	n/a	n/a	n/a	n/a	n/a	n/a
4237.036	n/a	RECOG_LURE	2118518	n/a	LTP093	ltpFR	1	3	n/a	SHELL	1281	1	2	n/a	n/a	n/a	n/a	n/a	n/a
4238.534	n/a	RECOG_RESP	2119267	n/a	LTP093	ltpFR	1	3	n/a	SHELL	1281	1	n/a	n/a	n/a	n/a	n/a	n/a	n/a
4239.686	n/a	RECOG_CONF	2119843	n/a	LTP093	ltpFR	1	3	n/a	SHELL	1281	n/a	2	n/a	n/a	n/a	n/a	n/a	n/a
4241.24	n/a	RECOG_TARGET	2120620	n/a	LTP093	ltpFR	1	3	1	CLOVE	329	1	5	0	n/a	n/a	n/a	n/a	n/a
4242.23	n/a	RECOG_RESP	2121115	n/a	LTP093	ltpFR	1	3	1	CLOVE	329	1	n/a	0	n/a	n/a	n/a	n/a	n/a
4243.288	n/a	RECOG_CONF	2121644	n/a	LTP093	ltpFR	1	3	1	CLOVE	329	n/a	5	0	n/a	n/a	n/a	n/a	n/a
4244.752	n/a	RECOG_TARGET	2122376	n/a	LTP093	ltpFR	1	3	1	PLUM	1090	1	5	0	n/a	n/a	n/a	n/a	n/a
4245.424	n/a	RECOG_RESP	2122712	n/a	LTP093	ltpFR	1	3	1	PLUM	1090	1	n/a	0	n/a	n/a	n/a	n/a	n/a
4246.372	n/a	RECOG_CONF	2123186	n/a	LTP093	ltpFR	1	3	1	PLUM	1090	n/a	5	0	n/a	n/a	n/a	n/a	n/a
4247.816	n/a	RECOG_LURE	2123908	n/a	LTP093	ltpFR	1	3	n/a	PUBLISHER	1137	0	4	n/a	n/a	n/a	n/a	n/a	n/a
4249.204	n/a	RECOG_RESP	2124602	n/a	LTP093	ltpFR	1	3	n/a	PUBLISHER	1137	0	n/a	n/a	n/a	n/a	n/a	n/a	n/a
4252.886	n/a	RECOG_CONF	2126443	n/a	LTP093	ltpFR	1	3	n/a	PUBLISHER	1137	n/a	4	n/a	n/a	n/a	n/a	n/a	n/a
4254.492	n/a	RECOG_LURE	2127246	n/a	LTP093	ltpFR	1	3	n/a	ANT	25	0	4	n/a	n/a	n/a	n/a	n/a	n/a
4256.274	n/a	RECOG_RESP	2128137	n/a	LTP093	ltpFR	1	3	n/a	ANT	25	0	n/a	n/a	n/a	n/a	n/a	n/a	n/a
4257.326	n/a	RECOG_CONF	2128663	n/a	LTP093	ltpFR	1	3	n/a	ANT	25	n/a	4	n/a	n/a	n/a	n/a	n/a	n/a
4258.97	n/a	RECOG_LURE	2129485	n/a	LTP093	ltpFR	1	3	n/a	TOMBSTONE	1478	0	4	n/a	n/a	n/a	n/a	n/a	n/a
4260.01	n/a	RECOG_RESP	2130005	n/a	LTP093	ltpFR	1	3	n/a	TOMBSTONE	1478	0	n/a	n/a	n/a	n/a	n/a	n/a	n/a
4261.338	n/a	RECOG_CONF	2130669	n/a	LTP093	ltpFR	1	3	n/a	TOMBSTONE	1478	n/a	4	n/a	n/a	n/a	n/a	n/a	n/a
4262.872	n/a	RECOG_TARGET	2131436	n/a	LTP093	ltpFR	1	3	1	APARTMENT	30	0	4	0	n/a	n/a	n/a	n/a	n/a
4265.158	n/a	RECOG_RESP	2132579	n/a	LTP093	ltpFR	1	3	1	APARTMENT	30	0	n/a	0	n/a	n/a	n/a	n/a	n/a
4266.186	n/a	RECOG_CONF	2133093	n/a	LTP093	ltpFR	1	3	1	APARTMENT	30	n/a	4	0	n/a	n/a	n/a	n/a	n/a
4267.726	n/a	RECOG_TARGET	2133863	n/a	LTP093	ltpFR	1	3	0	INSTRUCTOR	741	0	3	0	n/a	n/a	n/a	n/a	n/a
4271.644	n/a	RECOG_RESP	2135822	n/a	LTP093	ltpFR	1	3	0	INSTRUCTOR	741	0	n/a	0	n/a	n/a	n/a	n/a	n/a
4273.28	n/a	RECOG_CONF	2136640	n/a	LTP093	ltpFR	1	3	0	INSTRUCTOR	741	n/a	3	0	n/a	n/a	n/a	n/a	n/a
4274.918	n/a	RECOG_LURE	2137459	n/a	LTP093	ltpFR	1	3	n/a	CARRIAGE	248	0	3	n/a	n/a	n/a	n/a	n/a	n/a
4278.758	n/a	RECOG_RESP	2139379	n/a	LTP093	ltpFR	1	3	n/a	CARRIAGE	248	0	n/a	n/a	n/a	n/a	n/a	n/a	n/a
4280.404	n/a	RECOG_CONF	2140202	n/a	LTP093	ltpFR	1	3	n/a	CARRIAGE	248	n/a	3	n/a	n/a	n/a	n/a	n/a	n/a
4282.194	n/a	RECOG_LURE	2141097	n/a	LTP093	ltpFR	1	3	n/a	SURVEY	1414	0	3	n/a	n/a	n/a	n/a	n/a	n/a
4283.208	n/a	RECOG_RESP	2141604	n/a	LTP093	ltpFR	1	3	n/a	SURVEY	1414	0	n/a	n/a	n/a	n/a	n/a	n/a	n/a
4284.256	n/a	RECOG_CONF	2142128	n/a	LTP093	ltpFR	1	3	n/a	SURVEY	1414	n/a	3	n/a	n/a	n/a	n/a	n/a	n/a
4285.938	n/a	RECOG_LURE	2142969	n/a	LTP093	ltpFR	1	3	n/a	EDITOR	516	0	2	n/a	n/a	n/a	n/a	n/a	n/a
4289.024	n/a	RECOG_RESP	2144512	n/a	LTP093	ltpFR	1	3	n/a	EDITOR	516	0	n/a	n/a	n/a	n/a	n/a	n/a	n/a
4290.152	n/a	RECOG_CONF	2145076	n/a	LTP093	ltpFR	1	3	n/a	EDITOR	516	n/a	2	n/a	n/a	n/a	n/a	n/a	n/a
4291.658	n/a	RECOG_LURE	2145829	n/a	LTP093	ltpFR	1	3	n/a	CANDLE	229	0	3	n/a	n/a	n/a	n/a	n/a	n/a
4292.526	n/a	RECOG_RESP	2146263	n/a	LTP093	ltpFR	1	3	n/a	CANDLE	229	0	n/a	n/a	n/a	n/a	n/a	n/a	n/a
4293.704	n/a	RECOG_CONF	2146852	n/a	LTP093	ltpFR	1	3	n/a	CANDLE	229	n/a	3	n/a	n/a	n/a	n/a	n/a	n/a
4295.262	n/a	RECOG_LURE	2147631	n/a	LTP093	ltpFR	1	3	n/a	STRAWBERRY	1391	0	3	n/a	n/a	n/a	n/a	n/a	n/a
4297.1	n/a	RECOG_RESP	2148550	n/a	LTP093	ltpFR	1	3	n/a	STRAWBERRY	1391	0	n/a	n/a	n/a	n/a	n/a	n/a	n/a
4298.352	n/a	RECOG_CONF	2149176	n/a	LTP093	ltpFR	1	3	n/a	STRAWBERRY	1391	n/a	3	n/a	n/a	n/a	n/a	n/a	n/a
4299.98	n/a	RECOG_LURE	2149990	n/a	LTP093	ltpFR	1	3	n/a	GARBAGE	622	0	3	n/a	n/a	n/a	n/a	n/a	n/a
4300.822	n/a	RECOG_RESP	2150411	n/a	LTP093	ltpFR	1	3	n/a	GARBAGE	622	0	n/a	n/a	n/a	n/a	n/a	n/a	n/a
4302.234	n/a	RECOG_CONF	2151117	n/a	LTP093	ltpFR	1	3	n/a	GARBAGE	622	n/a	3	n/a	n/a	n/a	n/a	n/a	n/a
4303.866	n/a	RECOG_LURE	2151933	n/a	LTP093	ltpFR	1	3	n/a	SECRETARY	1265	0	3	n/a	n/a	n/a	n/a	n/a	n/a
4305.022	n/a	RECOG_RESP	2152511	n/a	LTP093	ltpFR	1	3	n/a	SECRETARY	1265	0	n/a	n/a	n/a	n/a	n/a	n/a	n/a
4306.384	n/a	RECOG_CONF	2153192	n/a	LTP093	ltpFR	1	3	n/a	SECRETARY	1265	n/a	3	n/a	n/a	n/a	n/a	n/a	n/a
4331.264	n/a	REC_START	2165632	n/a	LTP093	ltpFR	1	4	n/a	n/a	n/a	n/a	n/a	n/a	n/a	n/a	n/a	n/a	n/a
4331.288	n/a	RECOG_LURE	2165644	n/a	LTP093	ltpFR	1	4	n/a	CHESS	294	0	3	n/a	n/a	n/a	n/a	n/a	n/a
4332.336	n/a	RECOG_RESP	2166168	n/a	LTP093	ltpFR	1	4	n/a	CHESS	294	0	n/a	n/a	n/a	n/a	n/a	n/a	n/a
4334.042	n/a	RECOG_CONF	2167021	n/a	LTP093	ltpFR	1	4	n/a	CHESS	294	n/a	3	n/a	n/a	n/a	n/a	n/a	n/a
4335.682	n/a	RECOG_TARGET	2167841	n/a	LTP093	ltpFR	1	4	-1	PROTON	1132	1	5	-1	n/a	n/a	n/a	n/a	n/a
4336.486	n/a	RECOG_RESP	2168243	n/a	LTP093	ltpFR	1	4	-1	PROTON	1132	1	n/a	-1	n/a	n/a	n/a	n/a	n/a
4337.414	n/a	RECOG_CONF	2168707	n/a	LTP093	ltpFR	1	4	-1	PROTON	1132	n/a	5	-1	n/a	n/a	n/a	n/a	n/a
4338.96	n/a	RECOG_TARGET	2169480	n/a	LTP093	ltpFR	1	4	0	CLASS	318	1	5	0	n/a	n/a	n/a	n/a	n/a
4339.798	n/a	RECOG_RESP	2169899	n/a	LTP093	ltpFR	1	4	0	CLASS	318	1	n/a	0	n/a	n/a	n/a	n/a	n/a
4340.816	n/a	RECOG_CONF	2170408	n/a	LTP093	ltpFR	1	4	0	CLASS	318	n/a	5	0	n/a	n/a	n/a	n/a	n/a
4342.432	n/a	RECOG_LURE	2171216	n/a	LTP093	ltpFR	1	4	n/a	BOUILLON	154	0	5	n/a	n/a	n/a	n/a	n/a	n/a
4343.4	n/a	RECOG_RESP	2171700	n/a	LTP093	ltpFR	1	4	n/a	BOUILLON	154	0	n/a	n/a	n/a	n/a	n/a	n/a	n/a
4344.368	n/a	RECOG_CONF	2172184	n/a	LTP093	ltpFR	1	4	n/a	BOUILLON	154	n/a	5	n/a	n/a	n/a	n/a	n/a	n/a
4345.944	n/a	RECOG_LURE	2172972	n/a	LTP093	ltpFR	1	4	n/a	AIRPORT	13	0	4	n/a	n/a	n/a	n/a	n/a	n/a
4347.212	n/a	RECOG_RESP	2173606	n/a	LTP093	ltpFR	1	4	n/a	AIRPORT	13	0	n/a	n/a	n/a	n/a	n/a	n/a	n/a
4348.27	n/a	RECOG_CONF	2174135	n/a	LTP093	ltpFR	1	4	n/a	AIRPORT	13	n/a	4	n/a	n/a	n/a	n/a	n/a	n/a
4350.006	n/a	RECOG_LURE	2175003	n/a	LTP093	ltpFR	1	4	n/a	ABDOMEN	1	0	5	n/a	n/a	n/a	n/a	n/a	n/a
4351.332	n/a	RECOG_RESP	2175666	n/a	LTP093	ltpFR	1	4	n/a	ABDOMEN	1	0	n/a	n/a	n/a	n/a	n/a	n/a	n/a
4352.18	n/a	RECOG_CONF	2176090	n/a	LTP093	ltpFR	1	4	n/a	ABDOMEN	1	n/a	5	n/a	n/a	n/a	n/a	n/a	n/a
4353.776	n/a	RECOG_LURE	2176888	n/a	LTP093	ltpFR	1	4	n/a	SPIDER	1351	0	4	n/a	n/a	n/a	n/a	n/a	n/a
4355.194	n/a	RECOG_RESP	2177597	n/a	LTP093	ltpFR	1	4	n/a	SPIDER	1351	0	n/a	n/a	n/a	n/a	n/a	n/a	n/a
4356.292	n/a	RECOG_CONF	2178146	n/a	LTP093	ltpFR	1	4	n/a	SPIDER	1351	n/a	4	n/a	n/a	n/a	n/a	n/a	n/a
4357.98	n/a	RECOG_LURE	2178990	n/a	LTP093	ltpFR	1	4	n/a	LEADER	807	0	4	n/a	n/a	n/a	n/a	n/a	n/a
4358.816	n/a	RECOG_RESP	2179408	n/a	LTP093	ltpFR	1	4	n/a	LEADER	807	0	n/a	n/a	n/a	n/a	n/a	n/a	n/a
4359.644	n/a	RECOG_CONF	2179822	n/a	LTP093	ltpFR	1	4	n/a	LEADER	807	n/a	4	n/a	n/a	n/a	n/a	n/a	n/a
4361.268	n/a	RECOG_LURE	2180634	n/a	LTP093	ltpFR	1	4	n/a	NUT	965	0	4	n/a	n/a	n/a	n/a	n/a	n/a
4362.488	n/a	RECOG_RESP	2181244	n/a	LTP093	ltpFR	1	4	n/a	NUT	965	0	n/a	n/a	n/a	n/a	n/a	n/a	n/a
4363.574	n/a	RECOG_CONF	2181787	n/a	LTP093	ltpFR	1	4	n/a	NUT	965	n/a	4	n/a	n/a	n/a	n/a	n/a	n/a
4365.164	n/a	RECOG_TARGET	2182582	n/a	LTP093	ltpFR	1	4	1	ARCHITECT	36	1	5	1	n/a	n/a	n/a	n/a	n/a
4366.06	n/a	RECOG_RESP	2183030	n/a	LTP093	ltpFR	1	4	1	ARCHITECT	36	1	n/a	1	n/a	n/a	n/a	n/a	n/a
4366.998	n/a	RECOG_CONF	2183499	n/a	LTP093	ltpFR	1	4	1	ARCHITECT	36	n/a	5	1	n/a	n/a	n/a	n/a	n/a
4368.478	n/a	RECOG_LURE	2184239	n/a	LTP093	ltpFR	1	4	n/a	GROCERIES	663	0	4	n/a	n/a	n/a	n/a	n/a	n/a
4369.302	n/a	RECOG_RESP	2184651	n/a	LTP093	ltpFR	1	4	n/a	GROCERIES	663	0	n/a	n/a	n/a	n/a	n/a	n/a	n/a
4370.17	n/a	RECOG_CONF	2185085	n/a	LTP093	ltpFR	1	4	n/a	GROCERIES	663	n/a	4	n/a	n/a	n/a	n/a	n/a	n/a
4371.706	n/a	RECOG_LURE	2185853	n/a	LTP093	ltpFR	1	4	n/a	TOWEL	1489	0	4	n/a	n/a	n/a	n/a	n/a	n/a
4372.654	n/a	RECOG_RESP	2186327	n/a	LTP093	ltpFR	1	4	n/a	TOWEL	1489	0	n/a	n/a	n/a	n/a	n/a	n/a	n/a
4373.742	n/a	RECOG_CONF	2186871	n/a	LTP093	ltpFR	1	4	n/a	TOWEL	1489	n/a	4	n/a	n/a	n/a	n/a	n/a	n/a
4375.394	n/a	RECOG_TARGET	2187697	n/a	LTP093	ltpFR	1	4	1	SUPERMARKET	1409	1	5	0	n/a	n/a	n/a	n/a	n/a
4376.206	n/a	RECOG_RESP	2188103	n/a	LTP093	ltpFR	1	4	1	SUPERMARKET	1409	1	n/a	0	n/a	n/a	n/a	n/a	n/a
4377.274	n/a	RECOG_CONF	2188637	n/a	LTP093	ltpFR	1	4	1	SUPERMARKET	1409	n/a	5	0	n/a	n/a	n/a	n/a	n/a
4379.03	n/a	RECOG_LURE	2189515	n/a	LTP093	ltpFR	1	4	n/a	SUBURB	1399	1	2	n/a	n/a	n/a	n/a	n/a	n/a
4379.868	n/a	RECOG_RESP	2189934	n/a	LTP093	ltpFR	1	4	n/a	SUBURB	1399	1	n/a	n/a	n/a	n/a	n/a	n/a	n/a
4383.788	n/a	RECOG_CONF	2191894	n/a	LTP093	ltpFR	1	4	n/a	SUBURB	1399	n/a	2	n/a	n/a	n/a	n/a	n/a	n/a
4385.45	n/a	RECOG_LURE	2192725	n/a	LTP093	ltpFR	1	4	n/a	LOFT	840	0	2	n/a	n/a	n/a	n/a	n/a	n/a
4387.232	n/a	RECOG_RESP	2193616	n/a	LTP093	ltpFR	1	4	n/a	LOFT	840	0	n/a	n/a	n/a	n/a	n/a	n/a	n/a
4388.488	n/a	RECOG_CONF	2194244	n/a	LTP093	ltpFR	1	4	n/a	LOFT	840	n/a	2	n/a	n/a	n/a	n/a	n/a	n/a
4389.992	n/a	RECOG_LURE	2194996	n/a	LTP093	ltpFR	1	4	n/a	PLANT	1083	0	3	n/a	n/a	n/a	n/a	n/a	n/a
4392.818	n/a	RECOG_RESP	2196409	n/a	LTP093	ltpFR	1	4	n/a	PLANT	1083	0	n/a	n/a	n/a	n/a	n/a	n/a	n/a
4393.906	n/a	RECOG_CONF	2196953	n/a	LTP093	ltpFR	1	4	n/a	PLANT	1083	n/a	3	n/a	n/a	n/a	n/a	n/a	n/a
4395.62	n/a	RECOG_LURE	2197810	n/a	LTP093	ltpFR	1	4	n/a	ZOO	1637	0	4	n/a	n/a	n/a	n/a	n/a	n/a
4397.338	n/a	RECOG_RESP	2198669	n/a	LTP093	ltpFR	1	4	n/a	ZOO	1637	0	n/a	n/a	n/a	n/a	n/a	n/a	n/a
4399.36	n/a	RECOG_CONF	2199680	n/a	LTP093	ltpFR	1	4	n/a	ZOO	1637	n/a	4	n/a	n/a	n/a	n/a	n/a	n/a
4400.956	n/a	RECOG_LURE	2200478	n/a	LTP093	ltpFR	1	4	n/a	RUBY	1214	0	4	n/a	n/a	n/a	n/a	n/a	n/a
4401.808	n/a	RECOG_RESP	2200904	n/a	LTP093	ltpFR	1	4	n/a	RUBY	1214	0	n/a	n/a	n/a	n/a	n/a	n/a	n/a
4405.44	n/a	RECOG_CONF	2202720	n/a	LTP093	ltpFR	1	4	n/a	RUBY	1214	n/a	4	n/a	n/a	n/a	n/a	n/a	n/a
4407.458	n/a	RECOG_LURE	2203729	n/a	LTP093	ltpFR	1	4	n/a	CONTAINER	366	0	4	n/a	n/a	n/a	n/a	n/a	n/a
4409.94	n/a	RECOG_RESP	2204970	n/a	LTP093	ltpFR	1	4	n/a	CONTAINER	366	0	n/a	n/a	n/a	n/a	n/a	n/a	n/a
4412.246	n/a	RECOG_CONF	2206123	n/a	LTP093	ltpFR	1	4	n/a	CONTAINER	366	n/a	4	n/a	n/a	n/a	n/a	n/a	n/a
4413.832	n/a	RECOG_TARGET	2206916	n/a	LTP093	ltpFR	1	4	1	COTTON	385	1	5	0	n/a	n/a	n/a	n/a	n/a
4414.71	n/a	RECOG_RESP	2207355	n/a	LTP093	ltpFR	1	4	1	COTTON	385	1	n/a	0	n/a	n/a	n/a	n/a	n/a
4415.568	n/a	RECOG_CONF	2207784	n/a	LTP093	ltpFR	1	4	1	COTTON	385	n/a	5	0	n/a	n/a	n/a	n/a	n/a
4442.57	n/a	REC_START	2221285	n/a	LTP093	ltpFR	1	5	n/a	n/a	n/a	n/a	n/a	n/a	n/a	n/a	n/a	n/a	n/a
4442.6	n/a	RECOG_LURE	2221300	n/a	LTP093	ltpFR	1	5	n/a	ICEBERG	731	0	4	n/a	n/a	n/a	n/a	n/a	n/a
4443.782	n/a	RECOG_RESP	2221891	n/a	LTP093	ltpFR	1	5	n/a	ICEBERG	731	0	n/a	n/a	n/a	n/a	n/a	n/a	n/a
4445.108	n/a	RECOG_CONF	2222554	n/a	LTP093	ltpFR	1	5	n/a	ICEBERG	731	n/a	4	n/a	n/a	n/a	n/a	n/a	n/a
4446.704	n/a	RECOG_TARGET	2223352	n/a	LTP093	ltpFR	1	5	-1	CLIFF	322	1	5	-1	n/a	n/a	n/a	n/a	n/a
4447.504	n/a	RECOG_RESP	2223752	n/a	LTP093	ltpFR	1	5	-1	CLIFF	322	1	n/a	-1	n/a	n/a	n/a	n/a	n/a
4448.51	n/a	RECOG_CONF	2224255	n/a	LTP093	ltpFR	1	5	-1	CLIFF	322	n/a	5	-1	n/a	n/a	n/a	n/a	n/a
4450.142	n/a	RECOG_TARGET	2225071	n/a	LTP093	ltpFR	1	5	0	STOOL	1386	1	5	0	n/a	n/a	n/a	n/a	n/a
4450.906	n/a	RECOG_RESP	2225453	n/a	LTP093	ltpFR	1	5	0	STOOL	1386	1	n/a	0	n/a	n/a	n/a	n/a	n/a
4451.814	n/a	RECOG_CONF	2225907	n/a	LTP093	ltpFR	1	5	0	STOOL	1386	n/a	5	0	n/a	n/a	n/a	n/a	n/a
4453.322	n/a	RECOG_LURE	2226661	n/a	LTP093	ltpFR	1	5	n/a	PICKLE	1059	0	4	n/a	n/a	n/a	n/a	n/a	n/a
4454.108	n/a	RECOG_RESP	2227054	n/a	LTP093	ltpFR	1	5	n/a	PICKLE	1059	0	n/a	n/a	n/a	n/a	n/a	n/a	n/a
4454.886	n/a	RECOG_CONF	2227443	n/a	LTP093	ltpFR	1	5	n/a	PICKLE	1059	n/a	4	n/a	n/a	n/a	n/a	n/a	n/a
4456.418	n/a	RECOG_TARGET	2228209	n/a	LTP093	ltpFR	1	5	1	SNACK	1331	1	5	0	n/a	n/a	n/a	n/a	n/a
4457.192	n/a	RECOG_RESP	2228596	n/a	LTP093	ltpFR	1	5	1	SNACK	1331	1	n/a	0	n/a	n/a	n/a	n/a	n/a
4458.09	n/a	RECOG_CONF	2229045	n/a	LTP093	ltpFR	1	5	1	SNACK	1331	n/a	5	0	n/a	n/a	n/a	n/a	n/a
4459.638	n/a	RECOG_TARGET	2229819	n/a	LTP093	ltpFR	1	5	-1	OINTMENT	974	1	5	-1	n/a	n/a	n/a	n/a	n/a
4460.364	n/a	RECOG_RESP	2230182	n/a	LTP093	ltpFR	1	5	-1	OINTMENT	974	1	n/a	-1	n/a	n/a	n/a	n/a	n/a
4461.202	n/a	RECOG_CONF	2230601	n/a	LTP093	ltpFR	1	5	-1	OINTMENT	974	n/a	5	-1	n/a	n/a	n/a	n/a	n/a
4462.768	n/a	RECOG_LURE	2231384	n/a	LTP093	ltpFR	1	5	n/a	HATCHET	691	0	4	n/a	n/a	n/a	n/a	n/a	n/a
4463.85	n/a	RECOG_RESP	2231925	n/a	LTP093	ltpFR	1	5	n/a	HATCHET	691	0	n/a	n/a	n/a	n/a	n/a	n/a	n/a
4464.994	n/a	RECOG_CONF	2232497	n/a	LTP093	ltpFR	1	5	n/a	HATCHET	691	n/a	4	n/a	n/a	n/a	n/a	n/a	n/a
4466.564	n/a	RECOG_LURE	2233282	n/a	LTP093	ltpFR	1	5	n/a	LAMP	798	0	3	n/a	n/a	n/a	n/a	n/a	n/a
4467.468	n/a	RECOG_RESP	2233734	n/a	LTP093	ltpFR	1	5	n/a	LAMP	798	0	n/a	n/a	n/a	n/a	n/a	n/a	n/a
4468.316	n/a	RECOG_CONF	2234158	n/a	LTP093	ltpFR	1	5	n/a	LAMP	798	n/a	3	n/a	n/a	n/a	n/a	n/a	n/a
4470.018	n/a	RECOG_TARGET	2235009	n/a	LTP093	ltpFR	1	5	1	EAR	513	1	5	1	n/a	n/a	n/a	n/a	n/a
4471.488	n/a	RECOG_RESP	2235744	n/a	LTP093	ltpFR	1	5	1	EAR	513	1	n/a	1	n/a	n/a	n/a	n/a	n/a
4472.736	n/a	RECOG_CONF	2236368	n/a	LTP093	ltpFR	1	5	1	EAR	513	n/a	5	1	n/a	n/a	n/a	n/a	n/a
4474.306	n/a	RECOG_TARGET	2237153	n/a	LTP093	ltpFR	1	5	0	ELECTRON	522	1	5	0	n/a	n/a	n/a	n/a	n/a
4475.09	n/a	RECOG_RESP	2237545	n/a	LTP093	ltpFR	1	5	0	ELECTRON	522	1	n/a	0	n/a	n/a	n/a	n/a	n/a
4476.128	n/a	RECOG_CONF	2238064	n/a	LTP093	ltpFR	1	5	0	ELECTRON	522	n/a	5	0	n/a	n/a	n/a	n/a	n/a
4477.734	n/a	RECOG_LURE	2238867	n/a	LTP093	ltpFR	1	5	n/a	FIG	563	0	4	n/a	n/a	n/a	n/a	n/a	n/a
4478.602	n/a	RECOG_RESP	2239301	n/a	LTP093	ltpFR	1	5	n/a	FIG	563	0	n/a	n/a	n/a	n/a	n/a	n/a	n/a
4479.6	n/a	RECOG_CONF	2239800	n/a	LTP093	ltpFR	1	5	n/a	FIG	563	n/a	4	n/a	n/a	n/a	n/a	n/a	n/a
4481.14	n/a	RECOG_TARGET	2240570	n/a	LTP093	ltpFR	1	5	1	CANAL	226	1	5	0	n/a	n/a	n/a	n/a	n/a
4481.99	n/a	RECOG_RESP	2240995	n/a	LTP093	ltpFR	1	5	1	CANAL	226	1	n/a	0	n/a	n/a	n/a	n/a	n/a
4482.934	n/a	RECOG_CONF	2241467	n/a	LTP093	ltpFR	1	5	1	CANAL	226	n/a	5	0	n/a	n/a	n/a	n/a	n/a
4484.444	n/a	RECOG_LURE	2242222	n/a	LTP093	ltpFR	1	5	n/a	GENERAL	630	0	4	n/a	n/a	n/a	n/a	n/a	n/a
4485.408	n/a	RECOG_RESP	2242704	n/a	LTP093	ltpFR	1	5	n/a	GENERAL	630	0	n/a	n/a	n/a	n/a	n/a	n/a	n/a
4486.396	n/a	RECOG_CONF	2243198	n/a	LTP093	ltpFR	1	5	n/a	GENERAL	630	n/a	4	n/a	n/a	n/a	n/a	n/a	n/a
4487.882	n/a	RECOG_LURE	2243941	n/a	LTP093	ltpFR	1	5	n/a	LITERATURE	831	0	3	n/a	n/a	n/a	n/a	n/a	n/a
4488.94	n/a	RECOG_RESP	2244470	n/a	LTP093	ltpFR	1	5	n/a	LITERATURE	831	0	n/a	n/a	n/a	n/a	n/a	n/a	n/a
4490.058	n/a	RECOG_CONF	2245029	n/a	LTP093	ltpFR	1	5	n/a	LITERATURE	831	n/a	3	n/a	n/a	n/a	n/a	n/a	n/a
4491.702	n/a	RECOG_LURE	2245851	n/a	LTP093	ltpFR	1	5	n/a	BOXER	160	0	4	n/a	n/a	n/a	n/a	n/a	n/a
4492.382	n/a	RECOG_RESP	2246191	n/a	LTP093	ltpFR	1	5	n/a	BOXER	160	0	n/a	n/a	n/a	n/a	n/a	n/a	n/a
4493.22	n/a	RECOG_CONF	2246610	n/a	LTP093	ltpFR	1	5	n/a	BOXER	160	n/a	4	n/a	n/a	n/a	n/a	n/a	n/a
4494.732	n/a	RECOG_LURE	2247366	n/a	LTP093	ltpFR	1	5	n/a	BUILDING	191	0	3	n/a	n/a	n/a	n/a	n/a	n/a
4495.634	n/a	RECOG_RESP	2247817	n/a	LTP093	ltpFR	1	5	n/a	BUILDING	191	0	n/a	n/a	n/a	n/a	n/a	n/a	n/a
4496.772	n/a	RECOG_CONF	2248386	n/a	LTP093	ltpFR	1	5	n/a	BUILDING	191	n/a	3	n/a	n/a	n/a	n/a	n/a	n/a
4498.312	n/a	RECOG_TARGET	2249156	n/a	LTP093	ltpFR	1	5	-1	COMET	353	0	4	-1	n/a	n/a	n/a	n/a	n/a
4499.206	n/a	RECOG_RESP	2249603	n/a	LTP093	ltpFR	1	5	-1	COMET	353	0	n/a	-1	n/a	n/a	n/a	n/a	n/a
4500.624	n/a	RECOG_CONF	2250312	n/a	LTP093	ltpFR	1	5	-1	COMET	353	n/a	4	-1	n/a	n/a	n/a	n/a	n/a
4502.224	n/a	RECOG_TARGET	2251112	n/a	LTP093	ltpFR	1	5	1	MONKEY	911	1	5	1	n/a	n/a	n/a	n/a	n/a
4503.178	n/a	RECOG_RESP	2251589	n/a	LTP093	ltpFR	1	5	1	MONKEY	911	1	n/a	1	n/a	n/a	n/a	n/a	n/a
4503.986	n/a	RECOG_CONF	2251993	n/a	LTP093	ltpFR	1	5	1	MONKEY	911	n/a	5	1	n/a	n/a	n/a	n/a	n/a
4505.528	n/a	RECOG_LURE	2252764	n/a	LTP093	ltpFR	1	5	n/a	BEEF	113	0	2	n/a	n/a	n/a	n/a	n/a	n/a
4506.36	n/a	RECOG_RESP	2253180	n/a	LTP093	ltpFR	1	5	n/a	BEEF	113	0	n/a	n/a	n/a	n/a	n/a	n/a	n/a
4507.148	n/a	RECOG_CONF	2253574	n/a	LTP093	ltpFR	1	5	n/a	BEEF	113	n/a	2	n/a	n/a	n/a	n/a	n/a	n/a
4508.624	n/a	RECOG_LURE	2254312	n/a	LTP093	ltpFR	1	5	n/a	SCROLL	1257	0	2	n/a	n/a	n/a	n/a	n/a	n/a
4510.012	n/a	RECOG_RESP	2255006	n/a	LTP093	ltpFR	1	5	n/a	SCROLL	1257	0	n/a	n/a	n/a	n/a	n/a	n/a	n/a
4511.24	n/a	RECOG_CONF	2255620	n/a	LTP093	ltpFR	1	5	n/a	SCROLL	1257	n/a	2	n/a	n/a	n/a	n/a	n/a	n/a
4527.682	n/a	REC_START	2263841	n/a	LTP093	ltpFR	1	6	n/a	n/a	n/a	n/a	n/a	n/a	n/a	n/a	n/a	n/a	n/a
4527.71	n/a	RECOG_LURE	2263855	n/a	LTP093	ltpFR	1	6	n/a	SIGN	1305	0	2	n/a	n/a	n/a	n/a	n/a	n/a
4529.354	n/a	RECOG_RESP	2264677	n/a	LTP093	ltpFR	1	6	n/a	SIGN	1305	0	n/a	n/a	n/a	n/a	n/a	n/a	n/a
4530.54	n/a	RECOG_CONF	2265270	n/a	LTP093	ltpFR	1	6	n/a	SIGN	1305	n/a	2	n/a	n/a	n/a	n/a	n/a	n/a
4532.122	n/a	RECOG_TARGET	2266061	n/a	LTP093	ltpFR	1	6	0	CONDUCTOR	362	1	5	0	n/a	n/a	n/a	n/a	n/a
4533.124	n/a	RECOG_RESP	2266562	n/a	LTP093	ltpFR	1	6	0	CONDUCTOR	362	1	n/a	0	n/a	n/a	n/a	n/a	n/a
4534.342	n/a	RECOG_CONF	2267171	n/a	LTP093	ltpFR	1	6	0	CONDUCTOR	362	n/a	5	0	n/a	n/a	n/a	n/a	n/a
4535.818	n/a	RECOG_LURE	2267909	n/a	LTP093	ltpFR	1	6	n/a	CEMETERY	269	0	4	n/a	n/a	n/a	n/a	n/a	n/a
4537.036	n/a	RECOG_RESP	2268518	n/a	LTP093	ltpFR	1	6	n/a	CEMETERY	269	0	n/a	n/a	n/a	n/a	n/a	n/a	n/a
4537.824	n/a	RECOG_CONF	2268912	n/a	LTP093	ltpFR	1	6	n/a	CEMETERY	269	n/a	4	n/a	n/a	n/a	n/a	n/a	n/a
4539.514	n/a	RECOG_LURE	2269757	n/a	LTP093	ltpFR	1	6	n/a	COFFEE	341	0	4	n/a	n/a	n/a	n/a	n/a	n/a
4540.378	n/a	RECOG_RESP	2270189	n/a	LTP093	ltpFR	1	6	n/a	COFFEE	341	0	n/a	n/a	n/a	n/a	n/a	n/a	n/a
4541.336	n/a	RECOG_CONF	2270668	n/a	LTP093	ltpFR	1	6	n/a	COFFEE	341	n/a	4	n/a	n/a	n/a	n/a	n/a	n/a
4542.892	n/a	RECOG_TARGET	2271446	n/a	LTP093	ltpFR	1	6	0	MUFFIN	929	1	4	0	n/a	n/a	n/a	n/a	n/a
4543.736	n/a	RECOG_RESP	2271868	n/a	LTP093	ltpFR	1	6	0	MUFFIN	929	1	n/a	0	n/a	n/a	n/a	n/a	n/a
4544.718	n/a	RECOG_CONF	2272359	n/a	LTP093	ltpFR	1	6	0	MUFFIN	929	n/a	4	0	n/a	n/a	n/a	n/a	n/a
4546.348	n/a	RECOG_TARGET	2273174	n/a	LTP093	ltpFR	1	6	0	BULLET	194	1	5	0	n/a	n/a	n/a	n/a	n/a
4546.964	n/a	RECOG_RESP	2273482	n/a	LTP093	ltpFR	1	6	0	BULLET	194	1	n/a	0	n/a	n/a	n/a	n/a	n/a
4547.952	n/a	RECOG_CONF	2273976	n/a	LTP093	ltpFR	1	6	0	BULLET	194	n/a	5	0	n/a	n/a	n/a	n/a	n/a
4549.436	n/a	RECOG_LURE	2274718	n/a	LTP093	ltpFR	1	6	n/a	FLESH	579	0	4	n/a	n/a	n/a	n/a	n/a	n/a
4550.306	n/a	RECOG_RESP	2275153	n/a	LTP093	ltpFR	1	6	n/a	FLESH	579	0	n/a	n/a	n/a	n/a	n/a	n/a	n/a
4551.244	n/a	RECOG_CONF	2275622	n/a	LTP093	ltpFR	1	6	n/a	FLESH	579	n/a	4	n/a	n/a	n/a	n/a	n/a	n/a
4552.656	n/a	RECOG_TARGET	2276328	n/a	LTP093	ltpFR	1	6	-1	WEB	1598	1	5	-1	n/a	n/a	n/a	n/a	n/a
4553.478	n/a	RECOG_RESP	2276739	n/a	LTP093	ltpFR	1	6	-1	WEB	1598	1	n/a	-1	n/a	n/a	n/a	n/a	n/a
4554.386	n/a	RECOG_CONF	2277193	n/a	LTP093	ltpFR	1	6	-1	WEB	1598	n/a	5	-1	n/a	n/a	n/a	n/a	n/a
4555.976	n/a	RECOG_TARGET	2277988	n/a	LTP093	ltpFR	1	6	0	KID	775	1	5	0	n/a	n/a	n/a	n/a	n/a
4556.702	n/a	RECOG_RESP	2278351	n/a	LTP093	ltpFR	1	6	0	KID	775	1	n/a	0	n/a	n/a	n/a	n/a	n/a
4557.61	n/a	RECOG_CONF	2278805	n/a	LTP093	ltpFR	1	6	0	KID	775	n/a	5	0	n/a	n/a	n/a	n/a	n/a
4559.174	n/a	RECOG_LURE	2279587	n/a	LTP093	ltpFR	1	6	n/a	FOREHEAD	592	0	4	n/a	n/a	n/a	n/a	n/a	n/a
4560.314	n/a	RECOG_RESP	2280157	n/a	LTP093	ltpFR	1	6	n/a	FOREHEAD	592	0	n/a	n/a	n/a	n/a	n/a	n/a	n/a
4561.252	n/a	RECOG_CONF	2280626	n/a	LTP093	ltpFR	1	6	n/a	FOREHEAD	592	n/a	4	n/a	n/a	n/a	n/a	n/a	n/a
4562.902	n/a	RECOG_TARGET	2281451	n/a	LTP093	ltpFR	1	6	-1	PUDDLE	1140	0	2	-1	n/a	n/a	n/a	n/a	n/a
4563.816	n/a	RECOG_RESP_VV	2281908	n/a	LTP093	ltpFR	1	6	-1	PUDDLE	1140	1	n/a	-1	n/a	n/a	n/a	n/a	n/a
4564.58	n/a	RECOG_RESP	2282290	n/a	LTP093	ltpFR	1	6	-1	PUDDLE	1140	0	n/a	-1	n/a	n/a	n/a	n/a	n/a
4566.38	n/a	RECOG_CONF	2283190	n/a	LTP093	ltpFR	1	6	-1	PUDDLE	1140	n/a	2	-1	n/a	n/a	n/a	n/a	n/a
4568.174	n/a	RECOG_LURE	2284087	n/a	LTP093	ltpFR	1	6	n/a	SIRLOIN	1311	0	2	n/a	n/a	n/a	n/a	n/a	n/a
4569.942	n/a	RECOG_RESP	2284971	n/a	LTP093	ltpFR	1	6	n/a	SIRLOIN	1311	0	n/a	n/a	n/a	n/a	n/a	n/a	n/a
4570.98	n/a	RECOG_CONF	2285490	n/a	LTP093	ltpFR	1	6	n/a	SIRLOIN	1311	n/a	2	n/a	n/a	n/a	n/a	n/a	n/a
4572.56	n/a	RECOG_LURE	2286280	n/a	LTP093	ltpFR	1	6	n/a	DISH	474	0	2	n/a	n/a	n/a	n/a	n/a	n/a
4574.672	n/a	RECOG_RESP	2287336	n/a	LTP093	ltpFR	1	6	n/a	DISH	474	0	n/a	n/a	n/a	n/a	n/a	n/a	n/a
4576.258	n/a	RECOG_CONF	2288129	n/a	LTP093	ltpFR	1	6	n/a	DISH	474	n/a	2	n/a	n/a	n/a	n/a	n/a	n/a
4577.978	n/a	RECOG_TARGET	2288989	n/a	LTP093	ltpFR	1	6	0	SHORTCAKE	1292	1	5	0	n/a	n/a	n/a	n/a	n/a
4578.838	n/a	RECOG_RESP	2289419	n/a	LTP093	ltpFR	1	6	0	SHORTCAKE	1292	1	n/a	0	n/a	n/a	n/a	n/a	n/a
4580.268	n/a	RECOG_CONF	2290134	n/a	LTP093	ltpFR	1	6	0	SHORTCAKE	1292	n/a	5	0	n/a	n/a	n/a	n/a	n/a
4581.848	n/a	RECOG_LURE	2290924	n/a	LTP093	ltpFR	1	6	n/a	CABINET	212	1	3	n/a	n/a	n/a	n/a	n/a	n/a
4584.44	n/a	RECOG_RESP	2292220	n/a	LTP093	ltpFR	1	6	n/a	CABINET	212	1	n/a	n/a	n/a	n/a	n/a	n/a	n/a
4585.676	n/a	RECOG_CONF	2292838	n/a	LTP093	ltpFR	1	6	n/a	CABINET	212	n/a	3	n/a	n/a	n/a	n/a	n/a	n/a
4587.384	n/a	RECOG_LURE	2293692	n/a	LTP093	ltpFR	1	6	n/a	MAGAZINE	853	0	3	n/a	n/a	n/a	n/a	n/a	n/a
4588.46	n/a	RECOG_RESP	2294230	n/a	LTP093	ltpFR	1	6	n/a	MAGAZINE	853	0	n/a	n/a	n/a	n/a	n/a	n/a	n/a
4589.458	n/a	RECOG_CONF	2294729	n/a	LTP093	ltpFR	1	6	n/a	MAGAZINE	853	n/a	3	n/a	n/a	n/a	n/a	n/a	n/a
4590.978	n/a	RECOG_TARGET	2295489	n/a	LTP093	ltpFR	1	6	0	SEAGULL	1261	1	5	0	n/a	n/a	n/a	n/a	n/a
4591.732	n/a	RECOG_RESP	2295866	n/a	LTP093	ltpFR	1	6	0	SEAGULL	1261	1	n/a	0	n/a	n/a	n/a	n/a	n/a
4592.59	n/a	RECOG_CONF	2296295	n/a	LTP093	ltpFR	1	6	0	SEAGULL	1261	n/a	5	0	n/a	n/a	n/a	n/a	n/a
4594.084	n/a	RECOG_TARGET	2297042	n/a	LTP093	ltpFR	1	6	1	WAITER	1580	1	5	1	n/a	n/a	n/a	n/a	n/a
4594.906	n/a	RECOG_RESP	2297453	n/a	LTP093	ltpFR	1	6	1	WAITER	1580	1	n/a	1	n/a	n/a	n/a	n/a	n/a
4595.814	n/a	RECOG_CONF	2297907	n/a	LTP093	ltpFR	1	6	1	WAITER	1580	n/a	5	1	n/a	n/a	n/a	n/a	n/a
4597.372	n/a	RECOG_TARGET	2298686	n/a	LTP093	ltpFR	1	6	1	OCEAN	970	1	5	0	n/a	n/a	n/a	n/a	n/a
4598.028	n/a	RECOG_RESP	2299014	n/a	LTP093	ltpFR	1	6	1	OCEAN	970	1	n/a	0	n/a	n/a	n/a	n/a	n/a
4599.016	n/a	RECOG_CONF	2299508	n/a	LTP093	ltpFR	1	6	1	OCEAN	970	n/a	5	0	n/a	n/a	n/a	n/a	n/a
4600.494	n/a	RECOG_LURE	2300247	n/a	LTP093	ltpFR	1	6	n/a	TEAM	1441	0	2	n/a	n/a	n/a	n/a	n/a	n/a
4602.648	n/a	RECOG_RESP	2301324	n/a	LTP093	ltpFR	1	6	n/a	TEAM	1441	0	n/a	n/a	n/a	n/a	n/a	n/a	n/a
4603.686	n/a	RECOG_CONF	2301843	n/a	LTP093	ltpFR	1	6	n/a	TEAM	1441	n/a	2	n/a	n/a	n/a	n/a	n/a	n/a
4630.412	n/a	REC_START	2315206	n/a	LTP093	ltpFR	1	7	n/a	n/a	n/a	n/a	n/a	n/a	n/a	n/a	n/a	n/a	n/a
4630.442	n/a	RECOG_TARGET	2315221	n/a	LTP093	ltpFR	1	7	-1	METEOR	889	1	5	-1	n/a	n/a	n/a	n/a	n/a
4631.27	n/a	RECOG_RESP	2315635	n/a	LTP093	ltpFR	1	7	-1	METEOR	889	1	n/a	-1	n/a	n/a	n/a	n/a	n/a
4632.372	n/a	RECOG_CONF	2316186	n/a	LTP093	ltpFR	1	7	-1	METEOR	889	n/a	5	-1	n/a	n/a	n/a	n/a	n/a
4634.012	n/a	RECOG_LURE	2317006	n/a	LTP093	ltpFR	1	7	n/a	RUG	1215	0	3	n/a	n/a	n/a	n/a	n/a	n/a
4635.066	n/a	RECOG_RESP	2317533	n/a	LTP093	ltpFR	1	7	n/a	RUG	1215	0	n/a	n/a	n/a	n/a	n/a	n/a	n/a
4636.272	n/a	RECOG_CONF	2318136	n/a	LTP093	ltpFR	1	7	n/a	RUG	1215	n/a	3	n/a	n/a	n/a	n/a	n/a	n/a
4637.882	n/a	RECOG_TARGET	2318941	n/a	LTP093	ltpFR	1	7	0	LAKE	796	1	4	1	n/a	n/a	n/a	n/a	n/a
4639.616	n/a	RECOG_RESP	2319808	n/a	LTP093	ltpFR	1	7	0	LAKE	796	1	n/a	1	n/a	n/a	n/a	n/a	n/a
4640.584	n/a	RECOG_CONF	2320292	n/a	LTP093	ltpFR	1	7	0	LAKE	796	n/a	4	1	n/a	n/a	n/a	n/a	n/a
4642.212	n/a	RECOG_TARGET	2321106	n/a	LTP093	ltpFR	1	7	1	FOLLOWER	589	1	5	1	n/a	n/a	n/a	n/a	n/a
4644.204	n/a	RECOG_RESP	2322102	n/a	LTP093	ltpFR	1	7	1	FOLLOWER	589	1	n/a	1	n/a	n/a	n/a	n/a	n/a
4645.536	n/a	RECOG_CONF	2322768	n/a	LTP093	ltpFR	1	7	1	FOLLOWER	589	n/a	5	1	n/a	n/a	n/a	n/a	n/a
4647.29	n/a	RECOG_LURE	2323645	n/a	LTP093	ltpFR	1	7	n/a	CEILING	265	0	4	n/a	n/a	n/a	n/a	n/a	n/a
4648.186	n/a	RECOG_RESP	2324093	n/a	LTP093	ltpFR	1	7	n/a	CEILING	265	0	n/a	n/a	n/a	n/a	n/a	n/a	n/a
4649.064	n/a	RECOG_CONF	2324532	n/a	LTP093	ltpFR	1	7	n/a	CEILING	265	n/a	4	n/a	n/a	n/a	n/a	n/a	n/a
4650.536	n/a	RECOG_TARGET	2325268	n/a	LTP093	ltpFR	1	7	1	TEACHER	1440	1	4	1	n/a	n/a	n/a	n/a	n/a
4652.458	n/a	RECOG_RESP	2326229	n/a	LTP093	ltpFR	1	7	1	TEACHER	1440	1	n/a	1	n/a	n/a	n/a	n/a	n/a
4653.714	n/a	RECOG_CONF	2326857	n/a	LTP093	ltpFR	1	7	1	TEACHER	1440	n/a	4	1	n/a	n/a	n/a	n/a	n/a
4655.298	n/a	RECOG_TARGET	2327649	n/a	LTP093	ltpFR	1	7	-1	SHRIMP	1297	1	5	-1	n/a	n/a	n/a	n/a	n/a
4656.02	n/a	RECOG_RESP	2328010	n/a	LTP093	ltpFR	1	7	-1	SHRIMP	1297	1	n/a	-1	n/a	n/a	n/a	n/a	n/a
4657.046	n/a	RECOG_CONF	2328523	n/a	LTP093	ltpFR	1	7	-1	SHRIMP	1297	n/a	5	-1	n/a	n/a	n/a	n/a	n/a
4658.578	n/a	RECOG_LURE	2329289	n/a	LTP093	ltpFR	1	7	n/a	SENATOR	1268	0	5	n/a	n/a	n/a	n/a	n/a	n/a
4659.59	n/a	RECOG_RESP	2329795	n/a	LTP093	ltpFR	1	7	n/a	SENATOR	1268	0	n/a	n/a	n/a	n/a	n/a	n/a	n/a
4660.878	n/a	RECOG_CONF	2330439	n/a	LTP093	ltpFR	1	7	n/a	SENATOR	1268	n/a	5	n/a	n/a	n/a	n/a	n/a	n/a
4662.54	n/a	RECOG_TARGET	2331270	n/a	LTP093	ltpFR	1	7	-1	JUGGLER	763	0	4	-1	n/a	n/a	n/a	n/a	n/a
4663.672	n/a	RECOG_RESP	2331836	n/a	LTP093	ltpFR	1	7	-1	JUGGLER	763	0	n/a	-1	n/a	n/a	n/a	n/a	n/a
4664.79	n/a	RECOG_CONF	2332395	n/a	LTP093	ltpFR	1	7	-1	JUGGLER	763	n/a	4	-1	n/a	n/a	n/a	n/a	n/a
4666.352	n/a	RECOG_LURE	2333176	n/a	LTP093	ltpFR	1	7	n/a	GARLIC	624	0	4	n/a	n/a	n/a	n/a	n/a	n/a
4667.862	n/a	RECOG_RESP	2333931	n/a	LTP093	ltpFR	1	7	n/a	GARLIC	624	0	n/a	n/a	n/a	n/a	n/a	n/a	n/a
4668.7	n/a	RECOG_CONF	2334350	n/a	LTP093	ltpFR	1	7	n/a	GARLIC	624	n/a	4	n/a	n/a	n/a	n/a	n/a	n/a
4670.222	n/a	RECOG_LURE	2335111	n/a	LTP093	ltpFR	1	7	n/a	GERM	632	0	4	n/a	n/a	n/a	n/a	n/a	n/a
4671.006	n/a	RECOG_RESP	2335503	n/a	LTP093	ltpFR	1	7	n/a	GERM	632	0	n/a	n/a	n/a	n/a	n/a	n/a	n/a
4671.962	n/a	RECOG_CONF	2335981	n/a	LTP093	ltpFR	1	7	n/a	GERM	632	n/a	4	n/a	n/a	n/a	n/a	n/a	n/a
4673.402	n/a	RECOG_TARGET	2336701	n/a	LTP093	ltpFR	1	7	1	COURSE	390	1	5	0	n/a	n/a	n/a	n/a	n/a
4674.736	n/a	RECOG_RESP	2337368	n/a	LTP093	ltpFR	1	7	1	COURSE	390	1	n/a	0	n/a	n/a	n/a	n/a	n/a
4675.664	n/a	RECOG_CONF	2337832	n/a	LTP093	ltpFR	1	7	1	COURSE	390	n/a	5	0	n/a	n/a	n/a	n/a	n/a
4677.24	n/a	RECOG_LURE	2338620	n/a	LTP093	ltpFR	1	7	n/a	SIGNATURE	1306	0	4	n/a	n/a	n/a	n/a	n/a	n/a
4678.078	n/a	RECOG_RESP	2339039	n/a	LTP093	ltpFR	1	7	n/a	SIGNATURE	1306	0	n/a	n/a	n/a	n/a	n/a	n/a	n/a
4678.948	n/a	RECOG_CONF	2339474	n/a	LTP093	ltpFR	1	7	n/a	SIGNATURE	1306	n/a	4	n/a	n/a	n/a	n/a	n/a	n/a
4680.518	n/a	RECOG_TARGET	2340259	n/a	LTP093	ltpFR	1	7	0	VETERAN	1561	1	5	0	n/a	n/a	n/a	n/a	n/a
4681.492	n/a	RECOG_RESP	2340746	n/a	LTP093	ltpFR	1	7	0	VETERAN	1561	1	n/a	0	n/a	n/a	n/a	n/a	n/a
4682.508	n/a	RECOG_CONF	2341254	n/a	LTP093	ltpFR	1	7	0	VETERAN	1561	n/a	5	0	n/a	n/a	n/a	n/a	n/a
4684.046	n/a	RECOG_TARGET	2342023	n/a	LTP093	ltpFR	1	7	0	BEAVER	109	1	5	0	n/a	n/a	n/a	n/a	n/a
4684.804	n/a	RECOG_RESP	2342402	n/a	LTP093	ltpFR	1	7	0	BEAVER	109	1	n/a	0	n/a	n/a	n/a	n/a	n/a
4685.752	n/a	RECOG_CONF	2342876	n/a	LTP093	ltpFR	1	7	0	BEAVER	109	n/a	5	0	n/a	n/a	n/a	n/a	n/a
4687.31	n/a	RECOG_TARGET	2343655	n/a	LTP093	ltpFR	1	7	-1	COIN	343	0	4	-1	n/a	n/a	n/a	n/a	n/a
4688.356	n/a	RECOG_RESP	2344178	n/a	LTP093	ltpFR	1	7	-1	COIN	343	0	n/a	-1	n/a	n/a	n/a	n/a	n/a
4689.224	n/a	RECOG_CONF	2344612	n/a	LTP093	ltpFR	1	7	-1	COIN	343	n/a	4	-1	n/a	n/a	n/a	n/a	n/a
4690.748	n/a	RECOG_TARGET	2345374	n/a	LTP093	ltpFR	1	7	0	GRAVE	658	1	5	1	n/a	n/a	n/a	n/a	n/a
4691.608	n/a	RECOG_RESP	2345804	n/a	LTP093	ltpFR	1	7	0	GRAVE	658	1	n/a	1	n/a	n/a	n/a	n/a	n/a
4692.466	n/a	RECOG_CONF	2346233	n/a	LTP093	ltpFR	1	7	0	GRAVE	658	n/a	5	1	n/a	n/a	n/a	n/a	n/a
4693.96	n/a	RECOG_TARGET	2346980	n/a	LTP093	ltpFR	1	7	0	OATS	968	1	5	0	n/a	n/a	n/a	n/a	n/a
4694.766	n/a	RECOG_RESP	2347383	n/a	LTP093	ltpFR	1	7	0	OATS	968	1	n/a	0	n/a	n/a	n/a	n/a	n/a
4695.708	n/a	RECOG_CONF	2347854	n/a	LTP093	ltpFR	1	7	0	OATS	968	n/a	5	0	n/a	n/a	n/a	n/a	n/a
4697.114	n/a	RECOG_TARGET	2348557	n/a	LTP093	ltpFR	1	7	1	CELLO	268	1	5	0	n/a	n/a	n/a	n/a	n/a
4697.894	n/a	RECOG_RESP	2348947	n/a	LTP093	ltpFR	1	7	1	CELLO	268	1	n/a	0	n/a	n/a	n/a	n/a	n/a
4698.822	n/a	RECOG_CONF	2349411	n/a	LTP093	ltpFR	1	7	1	CELLO	268	n/a	5	0	n/a	n/a	n/a	n/a	n/a
4700.378	n/a	RECOG_TARGET	2350189	n/a	LTP093	ltpFR	1	7	0	PITCHFORK	1078	1	5	1	n/a	n/a	n/a	n/a	n/a
4701.092	n/a	RECOG_RESP	2350546	n/a	LTP093	ltpFR	1	7	0	PITCHFORK	1078	1	n/a	1	n/a	n/a	n/a	n/a	n/a
4702.004	n/a	RECOG_CONF	2351002	n/a	LTP093	ltpFR	1	7	0	PITCHFORK	1078	n/a	5	1	n/a	n/a	n/a	n/a	n/a
4730.714	n/a	REC_START	2365357	n/a	LTP093	ltpFR	1	8	n/a	n/a	n/a	n/a	n/a	n/a	n/a	n/a	n/a	n/a	n/a
4730.744	n/a	RECOG_TARGET	2365372	n/a	LTP093	ltpFR	1	8	1	PRAIRIE	1118	1	5	0	n/a	n/a	n/a	n/a	n/a
4731.876	n/a	RECOG_RESP	2365938	n/a	LTP093	ltpFR	1	8	1	PRAIRIE	1118	1	n/a	0	n/a	n/a	n/a	n/a	n/a
4733.502	n/a	RECOG_CONF	2366751	n/a	LTP093	ltpFR	1	8	1	PRAIRIE	1118	n/a	5	0	n/a	n/a	n/a	n/a	n/a
4735.08	n/a	RECOG_LURE	2367540	n/a	LTP093	ltpFR	1	8	n/a	RAG	1160	0	3	n/a	n/a	n/a	n/a	n/a	n/a
4735.998	n/a	RECOG_RESP	2367999	n/a	LTP093	ltpFR	1	8	n/a	RAG	1160	0	n/a	n/a	n/a	n/a	n/a	n/a	n/a
4737.164	n/a	RECOG_CONF	2368582	n/a	LTP093	ltpFR	1	8	n/a	RAG	1160	n/a	3	n/a	n/a	n/a	n/a	n/a	n/a
4738.66	n/a	RECOG_TARGET	2369330	n/a	LTP093	ltpFR	1	8	-1	REFEREE	1178	1	5	-1	n/a	n/a	n/a	n/a	n/a
4739.59	n/a	RECOG_RESP	2369795	n/a	LTP093	ltpFR	1	8	-1	REFEREE	1178	1	n/a	-1	n/a	n/a	n/a	n/a	n/a
4740.696	n/a	RECOG_CONF	2370348	n/a	LTP093	ltpFR	1	8	-1	REFEREE	1178	n/a	5	-1	n/a	n/a	n/a	n/a	n/a
4742.256	n/a	RECOG_TARGET	2371128	n/a	LTP093	ltpFR	1	8	-1	SAUCER	1237	1	5	-1	n/a	n/a	n/a	n/a	n/a
4743.152	n/a	RECOG_RESP	2371576	n/a	LTP093	ltpFR	1	8	-1	SAUCER	1237	1	n/a	-1	n/a	n/a	n/a	n/a	n/a
4744.198	n/a	RECOG_CONF	2372099	n/a	LTP093	ltpFR	1	8	-1	SAUCER	1237	n/a	5	-1	n/a	n/a	n/a	n/a	n/a
4745.85	n/a	RECOG_LURE	2372925	n/a	LTP093	ltpFR	1	8	n/a	CONE	363	0	4	n/a	n/a	n/a	n/a	n/a	n/a
4746.722	n/a	RECOG_RESP	2373361	n/a	LTP093	ltpFR	1	8	n/a	CONE	363	0	n/a	n/a	n/a	n/a	n/a	n/a	n/a
4748.788	n/a	RECOG_CONF	2374394	n/a	LTP093	ltpFR	1	8	n/a	CONE	363	n/a	4	n/a	n/a	n/a	n/a	n/a	n/a
4750.346	n/a	RECOG_LURE	2375173	n/a	LTP093	ltpFR	1	8	n/a	BUFFALO	186	0	4	n/a	n/a	n/a	n/a	n/a	n/a
4751.632	n/a	RECOG_RESP	2375816	n/a	LTP093	ltpFR	1	8	n/a	BUFFALO	186	0	n/a	n/a	n/a	n/a	n/a	n/a	n/a
4752.79	n/a	RECOG_CONF	2376395	n/a	LTP093	ltpFR	1	8	n/a	BUFFALO	186	n/a	4	n/a	n/a	n/a	n/a	n/a	n/a
4754.392	n/a	RECOG_TARGET	2377196	n/a	LTP093	ltpFR	1	8	1	SCREWDRIVER	1255	1	5	0	n/a	n/a	n/a	n/a	n/a
4755.114	n/a	RECOG_RESP	2377557	n/a	LTP093	ltpFR	1	8	1	SCREWDRIVER	1255	1	n/a	0	n/a	n/a	n/a	n/a	n/a
4756.112	n/a	RECOG_CONF	2378056	n/a	LTP093	ltpFR	1	8	1	SCREWDRIVER	1255	n/a	5	0	n/a	n/a	n/a	n/a	n/a
4757.738	n/a	RECOG_TARGET	2378869	n/a	LTP093	ltpFR	1	8	0	PACKAGE	997	1	5	0	n/a	n/a	n/a	n/a	n/a
4758.436	n/a	RECOG_RESP	2379218	n/a	LTP093	ltpFR	1	8	0	PACKAGE	997	1	n/a	0	n/a	n/a	n/a	n/a	n/a
4759.574	n/a	RECOG_CONF	2379787	n/a	LTP093	ltpFR	1	8	0	PACKAGE	997	n/a	5	0	n/a	n/a	n/a	n/a	n/a
4761.074	n/a	RECOG_TARGET	2380537	n/a	LTP093	ltpFR	1	8	1	INMATE	738	1	5	1	n/a	n/a	n/a	n/a	n/a
4761.848	n/a	RECOG_RESP	2380924	n/a	LTP093	ltpFR	1	8	1	INMATE	738	1	n/a	1	n/a	n/a	n/a	n/a	n/a
4762.906	n/a	RECOG_CONF	2381453	n/a	LTP093	ltpFR	1	8	1	INMATE	738	n/a	5	1	n/a	n/a	n/a	n/a	n/a
4764.348	n/a	RECOG_TARGET	2382174	n/a	LTP093	ltpFR	1	8	0	FUR	615	0	4	0	n/a	n/a	n/a	n/a	n/a
4765.142	n/a	RECOG_RESP	2382571	n/a	LTP093	ltpFR	1	8	0	FUR	615	0	n/a	0	n/a	n/a	n/a	n/a	n/a
4767.336	n/a	RECOG_CONF	2383668	n/a	LTP093	ltpFR	1	8	0	FUR	615	n/a	4	0	n/a	n/a	n/a	n/a	n/a
4768.95	n/a	RECOG_TARGET	2384475	n/a	LTP093	ltpFR	1	8	1	COBRA	336	1	5	1	n/a	n/a	n/a	n/a	n/a
4769.83	n/a	RECOG_RESP	2384915	n/a	LTP093	ltpFR	1	8	1	COBRA	336	1	n/a	1	n/a	n/a	n/a	n/a	n/a
4770.768	n/a	RECOG_CONF	2385384	n/a	LTP093	ltpFR	1	8	1	COBRA	336	n/a	5	1	n/a	n/a	n/a	n/a	n/a
4772.338	n/a	RECOG_LURE	2386169	n/a	LTP093	ltpFR	1	8	n/a	PIRATE	1074	0	5	n/a	n/a	n/a	n/a	n/a	n/a
4773.142	n/a	RECOG_RESP	2386571	n/a	LTP093	ltpFR	1	8	n/a	PIRATE	1074	0	n/a	n/a	n/a	n/a	n/a	n/a	n/a
4774.21	n/a	RECOG_CONF	2387105	n/a	LTP093	ltpFR	1	8	n/a	PIRATE	1074	n/a	5	n/a	n/a	n/a	n/a	n/a	n/a
4775.742	n/a	RECOG_LURE	2387871	n/a	LTP093	ltpFR	1	8	n/a	TRACTOR	1493	0	3	n/a	n/a	n/a	n/a	n/a	n/a
4776.526	n/a	RECOG_RESP	2388263	n/a	LTP093	ltpFR	1	8	n/a	TRACTOR	1493	0	n/a	n/a	n/a	n/a	n/a	n/a	n/a
4777.642	n/a	RECOG_CONF	2388821	n/a	LTP093	ltpFR	1	8	n/a	TRACTOR	1493	n/a	3	n/a	n/a	n/a	n/a	n/a	n/a
