mstime	trial_type	stim_file	subject	experiment	session	trial	item_name	item_num	list	answer	test_x	test_y	test_z
0	SESS_START	n/a	LTP362	ltpFR2	7	n/a	n/a	n/a	n/a	n/a	0	0	0
13197	START	n/a	LTP362	ltpFR2	7	n/a	n/a	n/a	-1	n/a	n/a	n/a	n/a
13228	PROB	n/a	LTP362	ltpFR2	7	n/a	n/a	n/a	-1	16	7	2	7
15460	PROB	n/a	LTP362	ltpFR2	7	n/a	n/a	n/a	-1	189	6	8	5
19075	PROB	n/a	LTP362	ltpFR2	7	n/a	n/a	n/a	-1	19	2	9	8
25197	STOP	n/a	LTP362	ltpFR2	7	n/a	n/a	n/a	-1	n/a	n/a	n/a	n/a
65404	WORD	wordpools/wasnorm_wordpool_576.txt	LTP362	ltpFR2	7	1	JELLO	754	n/a	n/a	0	0	0
68036	WORD	wordpools/wasnorm_wordpool_576.txt	LTP362	ltpFR2	7	1	PASTRY	1022	n/a	n/a	0	0	0
70852	WORD	wordpools/wasnorm_wordpool_576.txt	LTP362	ltpFR2	7	1	DRINK	498	n/a	n/a	0	0	0
73467	WORD	wordpools/wasnorm_wordpool_576.txt	LTP362	ltpFR2	7	1	CRAB	397	n/a	n/a	0	0	0
76133	WORD	wordpools/wasnorm_wordpool_576.txt	LTP362	ltpFR2	7	1	SILK	1307	n/a	n/a	0	0	0
78915	WORD	wordpools/wasnorm_wordpool_576.txt	LTP362	ltpFR2	7	1	LACE	792	n/a	n/a	0	0	0
81348	WORD	wordpools/wasnorm_wordpool_576.txt	LTP362	ltpFR2	7	1	SPONGE	1355	n/a	n/a	0	0	0
83929	WORD	wordpools/wasnorm_wordpool_576.txt	LTP362	ltpFR2	7	1	BUCKET	184	n/a	n/a	0	0	0
86678	WORD	wordpools/wasnorm_wordpool_576.txt	LTP362	ltpFR2	7	1	VENUS	1557	n/a	n/a	0	0	0
89227	WORD	wordpools/wasnorm_wordpool_576.txt	LTP362	ltpFR2	7	1	RECEIPT	1173	n/a	n/a	0	0	0
91942	WORD	wordpools/wasnorm_wordpool_576.txt	LTP362	ltpFR2	7	1	FEMALE	559	n/a	n/a	0	0	0
94508	WORD	wordpools/wasnorm_wordpool_576.txt	LTP362	ltpFR2	7	1	PIGEON	1065	n/a	n/a	0	0	0
97023	WORD	wordpools/wasnorm_wordpool_576.txt	LTP362	ltpFR2	7	1	PLAYGROUND	1087	n/a	n/a	0	0	0
99622	WORD	wordpools/wasnorm_wordpool_576.txt	LTP362	ltpFR2	7	1	PARSLEY	1016	n/a	n/a	0	0	0
102404	WORD	wordpools/wasnorm_wordpool_576.txt	LTP362	ltpFR2	7	1	FLEET	578	n/a	n/a	0	0	0
105119	WORD	wordpools/wasnorm_wordpool_576.txt	LTP362	ltpFR2	7	1	EYELASH	546	n/a	n/a	0	0	0
107835	WORD	wordpools/wasnorm_wordpool_576.txt	LTP362	ltpFR2	7	1	TROUT	1511	n/a	n/a	0	0	0
110484	WORD	wordpools/wasnorm_wordpool_576.txt	LTP362	ltpFR2	7	1	ACTRESS	6	n/a	n/a	0	0	0
113232	WORD	wordpools/wasnorm_wordpool_576.txt	LTP362	ltpFR2	7	1	SHARK	1275	n/a	n/a	0	0	0
115915	WORD	wordpools/wasnorm_wordpool_576.txt	LTP362	ltpFR2	7	1	BEAVER	109	n/a	n/a	0	0	0
118680	WORD	wordpools/wasnorm_wordpool_576.txt	LTP362	ltpFR2	7	1	PERMIT	1051	n/a	n/a	0	0	0
121262	WORD	wordpools/wasnorm_wordpool_576.txt	LTP362	ltpFR2	7	1	COLONEL	348	n/a	n/a	0	0	0
123844	WORD	wordpools/wasnorm_wordpool_576.txt	LTP362	ltpFR2	7	1	GRIZZLY	662	n/a	n/a	0	0	0
126344	WORD	wordpools/wasnorm_wordpool_576.txt	LTP362	ltpFR2	7	1	PLIERS	1089	n/a	n/a	0	0	0
127959	START	n/a	LTP362	ltpFR2	7	n/a	n/a	n/a	1	n/a	n/a	n/a	n/a
128901	DISTRACTOR	n/a	LTP362	ltpFR2	7	1	n/a	n/a	n/a	n/a	0	0	0
128909	PROB	n/a	LTP362	ltpFR2	7	n/a	n/a	n/a	1	12	2	9	1
130325	PROB	n/a	LTP362	ltpFR2	7	n/a	n/a	n/a	1	6	2	3	1
131474	PROB	n/a	LTP362	ltpFR2	7	n/a	n/a	n/a	1	17	1	7	9
132607	PROB	n/a	LTP362	ltpFR2	7	n/a	n/a	n/a	1	10	5	4	1
133773	PROB	n/a	LTP362	ltpFR2	7	n/a	n/a	n/a	1	10	2	6	2
134773	PROB	n/a	LTP362	ltpFR2	7	n/a	n/a	n/a	1	18	7	4	7
136272	PROB	n/a	LTP362	ltpFR2	7	n/a	n/a	n/a	1	21	6	7	8
138454	PROB	n/a	LTP362	ltpFR2	7	n/a	n/a	n/a	1	8	2	4	2
139637	PROB	n/a	LTP362	ltpFR2	7	n/a	n/a	n/a	1	7	4	1	2
140803	PROB	n/a	LTP362	ltpFR2	7	n/a	n/a	n/a	1	11	2	3	6
143569	PROB	n/a	LTP362	ltpFR2	7	n/a	n/a	n/a	1	18	8	8	2
144835	PROB	n/a	LTP362	ltpFR2	7	n/a	n/a	n/a	1	18	7	3	8
146851	PROB	n/a	LTP362	ltpFR2	7	n/a	n/a	n/a	1	13	3	8	2
148283	PROB	n/a	LTP362	ltpFR2	7	n/a	n/a	n/a	1	23	9	7	7
150049	PROB	n/a	LTP362	ltpFR2	7	n/a	n/a	n/a	1	5	4	2	2
151068	STOP	n/a	LTP362	ltpFR2	7	n/a	n/a	n/a	1	n/a	n/a	n/a	n/a
153749	REC_START	n/a	LTP362	ltpFR2	7	1	n/a	n/a	n/a	n/a	0	0	0
155405	REC_WORD	wordpools/wasnorm_wordpool_576.txt	LTP362	ltpFR2	7	1	CRAB	397	n/a	n/a	0	0	0
156681	REC_WORD	wordpools/wasnorm_wordpool_576.txt	LTP362	ltpFR2	7	1	JELLO	754	n/a	n/a	0	0	0
159313	REC_WORD	wordpools/wasnorm_wordpool_576.txt	LTP362	ltpFR2	7	1	DRINK	498	n/a	n/a	0	0	0
162658	REC_WORD	wordpools/wasnorm_wordpool_576.txt	LTP362	ltpFR2	7	1	PASTRY	1022	n/a	n/a	0	0	0
164459	REC_WORD	wordpools/wasnorm_wordpool_576.txt	LTP362	ltpFR2	7	1	GRIZZLY	662	n/a	n/a	0	0	0
165000	REC_WORD	wordpools/wasnorm_wordpool_576.txt	LTP362	ltpFR2	7	1	COLONEL	348	n/a	n/a	0	0	0
165645	REC_WORD	wordpools/wasnorm_wordpool_576.txt	LTP362	ltpFR2	7	1	SHARK	1275	n/a	n/a	0	0	0
166760	REC_WORD	wordpools/wasnorm_wordpool_576.txt	LTP362	ltpFR2	7	1	BEAVER	109	n/a	n/a	0	0	0
177745	REC_WORD	wordpools/wasnorm_wordpool_576.txt	LTP362	ltpFR2	7	1	FEMALE	559	n/a	n/a	0	0	0
179043	REC_WORD	wordpools/wasnorm_wordpool_576.txt	LTP362	ltpFR2	7	1	PIGEON	1065	n/a	n/a	0	0	0
181721	REC_WORD	wordpools/wasnorm_wordpool_576.txt	LTP362	ltpFR2	7	1	PLAYGROUND	1087	n/a	n/a	0	0	0
188490	REC_WORD	wordpools/wasnorm_wordpool_576.txt	LTP362	ltpFR2	7	1	ACTRESS	6	n/a	n/a	0	0	0
189864	REC_WORD	wordpools/wasnorm_wordpool_576.txt	LTP362	ltpFR2	7	1	SILK	1307	n/a	n/a	0	0	0
190407	REC_WORD	wordpools/wasnorm_wordpool_576.txt	LTP362	ltpFR2	7	1	LACE	792	n/a	n/a	0	0	0
191136	REC_WORD	wordpools/wasnorm_wordpool_576.txt	LTP362	ltpFR2	7	1	BUCKET	184	n/a	n/a	0	0	0
195603	REC_WORD	wordpools/wasnorm_wordpool_576.txt	LTP362	ltpFR2	7	1	RECEIPT	1173	n/a	n/a	0	0	0
226921	REC_WORD	wordpools/wasnorm_wordpool_576.txt	LTP362	ltpFR2	7	1	PARSLEY	1016	n/a	n/a	0	0	0
244173	DISTRACTOR	n/a	LTP362	ltpFR2	7	2	n/a	n/a	n/a	n/a	0	0	0
244173	START	n/a	LTP362	ltpFR2	7	n/a	n/a	n/a	2	n/a	n/a	n/a	n/a
244190	PROB	n/a	LTP362	ltpFR2	7	n/a	n/a	n/a	2	10	4	1	5
245389	PROB	n/a	LTP362	ltpFR2	7	n/a	n/a	n/a	2	12	6	5	1
246455	PROB	n/a	LTP362	ltpFR2	7	n/a	n/a	n/a	2	16	7	1	8
247755	PROB	n/a	LTP362	ltpFR2	7	n/a	n/a	n/a	2	14	8	2	4
249088	PROB	n/a	LTP362	ltpFR2	7	n/a	n/a	n/a	2	10	1	1	8
250270	PROB	n/a	LTP362	ltpFR2	7	n/a	n/a	n/a	2	13	3	2	8
251487	PROB	n/a	LTP362	ltpFR2	7	n/a	n/a	n/a	2	15	5	3	7
252819	PROB	n/a	LTP362	ltpFR2	7	n/a	n/a	n/a	2	15	8	1	6
254985	PROB	n/a	LTP362	ltpFR2	7	n/a	n/a	n/a	2	10	1	4	5
256118	PROB	n/a	LTP362	ltpFR2	7	n/a	n/a	n/a	2	12	8	3	2
257834	PROB	n/a	LTP362	ltpFR2	7	n/a	n/a	n/a	2	13	2	9	2
259583	PROB	n/a	LTP362	ltpFR2	7	n/a	n/a	n/a	2	16	1	9	6
260732	PROB	n/a	LTP362	ltpFR2	7	n/a	n/a	n/a	2	16	8	1	7
261865	PROB	n/a	LTP362	ltpFR2	7	n/a	n/a	n/a	2	20	9	4	7
263448	PROB	n/a	LTP362	ltpFR2	7	n/a	n/a	n/a	2	20	6	7	7
265264	PROB	n/a	LTP362	ltpFR2	7	n/a	n/a	n/a	2	10	1	3	6
266348	PROB	n/a	LTP362	ltpFR2	7	n/a	n/a	n/a	2	17	5	7	5
267504	STOP	n/a	LTP362	ltpFR2	7	n/a	n/a	n/a	2	n/a	n/a	n/a	n/a
269363	WORD	wordpools/wasnorm_wordpool_576.txt	LTP362	ltpFR2	7	2	TRIBE	1505	n/a	n/a	0	0	0
271944	WORD	wordpools/wasnorm_wordpool_576.txt	LTP362	ltpFR2	7	2	BEEF	113	n/a	n/a	0	0	0
274659	WORD	wordpools/wasnorm_wordpool_576.txt	LTP362	ltpFR2	7	2	MOTOR	922	n/a	n/a	0	0	0
277208	WORD	wordpools/wasnorm_wordpool_576.txt	LTP362	ltpFR2	7	2	ELBOW	520	n/a	n/a	0	0	0
279824	WORD	wordpools/wasnorm_wordpool_576.txt	LTP362	ltpFR2	7	2	ANTLER	29	n/a	n/a	0	0	0
282473	WORD	wordpools/wasnorm_wordpool_576.txt	LTP362	ltpFR2	7	2	FLOWER	584	n/a	n/a	0	0	0
285071	WORD	wordpools/wasnorm_wordpool_576.txt	LTP362	ltpFR2	7	2	PREACHER	1119	n/a	n/a	0	0	0
287787	WORD	wordpools/wasnorm_wordpool_576.txt	LTP362	ltpFR2	7	2	TABLE	1426	n/a	n/a	0	0	0
290536	WORD	wordpools/wasnorm_wordpool_576.txt	LTP362	ltpFR2	7	2	PADDING	999	n/a	n/a	0	0	0
293218	WORD	wordpools/wasnorm_wordpool_576.txt	LTP362	ltpFR2	7	2	SKETCH	1315	n/a	n/a	0	0	0
295983	WORD	wordpools/wasnorm_wordpool_576.txt	LTP362	ltpFR2	7	2	ISLAND	745	n/a	n/a	0	0	0
298482	WORD	wordpools/wasnorm_wordpool_576.txt	LTP362	ltpFR2	7	2	LUGGAGE	847	n/a	n/a	0	0	0
301064	WORD	wordpools/wasnorm_wordpool_576.txt	LTP362	ltpFR2	7	2	BURGLAR	200	n/a	n/a	0	0	0
303730	WORD	wordpools/wasnorm_wordpool_576.txt	LTP362	ltpFR2	7	2	SCULPTURE	1258	n/a	n/a	0	0	0
306245	WORD	wordpools/wasnorm_wordpool_576.txt	LTP362	ltpFR2	7	2	RADISH	1158	n/a	n/a	0	0	0
308794	WORD	wordpools/wasnorm_wordpool_576.txt	LTP362	ltpFR2	7	2	VIKING	1565	n/a	n/a	0	0	0
311326	WORD	wordpools/wasnorm_wordpool_576.txt	LTP362	ltpFR2	7	2	COUCH	386	n/a	n/a	0	0	0
313992	WORD	wordpools/wasnorm_wordpool_576.txt	LTP362	ltpFR2	7	2	PLUTO	1092	n/a	n/a	0	0	0
316541	WORD	wordpools/wasnorm_wordpool_576.txt	LTP362	ltpFR2	7	2	ARMY	39	n/a	n/a	0	0	0
319306	WORD	wordpools/wasnorm_wordpool_576.txt	LTP362	ltpFR2	7	2	CROWN	415	n/a	n/a	0	0	0
321805	WORD	wordpools/wasnorm_wordpool_576.txt	LTP362	ltpFR2	7	2	DOLPHIN	483	n/a	n/a	0	0	0
324287	WORD	wordpools/wasnorm_wordpool_576.txt	LTP362	ltpFR2	7	2	MAMMAL	861	n/a	n/a	0	0	0
326836	WORD	wordpools/wasnorm_wordpool_576.txt	LTP362	ltpFR2	7	2	WRENCH	1625	n/a	n/a	0	0	0
329551	WORD	wordpools/wasnorm_wordpool_576.txt	LTP362	ltpFR2	7	2	WRIST	1626	n/a	n/a	0	0	0
331167	START	n/a	LTP362	ltpFR2	7	n/a	n/a	n/a	3	n/a	n/a	n/a	n/a
332333	DISTRACTOR	n/a	LTP362	ltpFR2	7	2	n/a	n/a	n/a	n/a	0	0	0
332351	PROB	n/a	LTP362	ltpFR2	7	n/a	n/a	n/a	3	23	7	7	9
334149	PROB	n/a	LTP362	ltpFR2	7	n/a	n/a	n/a	3	7	2	4	1
335299	PROB	n/a	LTP362	ltpFR2	7	n/a	n/a	n/a	3	17	5	9	3
336715	PROB	n/a	LTP362	ltpFR2	7	n/a	n/a	n/a	3	12	2	7	3
337914	PROB	n/a	LTP362	ltpFR2	7	n/a	n/a	n/a	3	8	3	1	4
339430	PROB	n/a	LTP362	ltpFR2	7	n/a	n/a	n/a	3	14	1	5	8
341129	PROB	n/a	LTP362	ltpFR2	7	n/a	n/a	n/a	3	11	2	6	3
344228	PROB	n/a	LTP362	ltpFR2	7	n/a	n/a	n/a	3	19	9	4	6
345577	PROB	n/a	LTP362	ltpFR2	7	n/a	n/a	n/a	3	19	6	8	5
347227	PROB	n/a	LTP362	ltpFR2	7	n/a	n/a	n/a	3	13	2	3	8
348459	PROB	n/a	LTP362	ltpFR2	7	n/a	n/a	n/a	3	20	7	8	5
350075	PROB	n/a	LTP362	ltpFR2	7	n/a	n/a	n/a	3	12	7	1	4
352707	PROB	n/a	LTP362	ltpFR2	7	n/a	n/a	n/a	3	8	4	1	3
354042	STOP	n/a	LTP362	ltpFR2	7	n/a	n/a	n/a	3	n/a	n/a	n/a	n/a
357039	REC_START	n/a	LTP362	ltpFR2	7	2	n/a	n/a	n/a	n/a	0	0	0
359941	REC_WORD	wordpools/wasnorm_wordpool_576.txt	LTP362	ltpFR2	7	2	PADDED	-1	n/a	n/a	0	0	0
360819	REC_WORD	wordpools/wasnorm_wordpool_576.txt	LTP362	ltpFR2	7	2	PORTRAIT	1111	n/a	n/a	0	0	0
362134	REC_WORD	wordpools/wasnorm_wordpool_576.txt	LTP362	ltpFR2	7	2	FLOWER	584	n/a	n/a	0	0	0
364332	REC_WORD	wordpools/wasnorm_wordpool_576.txt	LTP362	ltpFR2	7	2	LUGGAGE	847	n/a	n/a	0	0	0
365079	REC_WORD	wordpools/wasnorm_wordpool_576.txt	LTP362	ltpFR2	7	2	VIKING	1565	n/a	n/a	0	0	0
365764	REC_WORD	wordpools/wasnorm_wordpool_576.txt	LTP362	ltpFR2	7	2	SCULPTURE	1258	n/a	n/a	0	0	0
366834	REC_WORD	wordpools/wasnorm_wordpool_576.txt	LTP362	ltpFR2	7	2	RADISH	1158	n/a	n/a	0	0	0
406883	REC_WORD	wordpools/wasnorm_wordpool_576.txt	LTP362	ltpFR2	7	2	BEEF	113	n/a	n/a	0	0	0
407680	REC_WORD	wordpools/wasnorm_wordpool_576.txt	LTP362	ltpFR2	7	2	TRIBE	1505	n/a	n/a	0	0	0
447498	WORD	wordpools/wasnorm_wordpool_576.txt	LTP362	ltpFR2	7	3	LONDON	843	n/a	n/a	0	0	0
450030	WORD	wordpools/wasnorm_wordpool_576.txt	LTP362	ltpFR2	7	3	SUSPECT	1415	n/a	n/a	0	0	0
452596	WORD	wordpools/wasnorm_wordpool_576.txt	LTP362	ltpFR2	7	3	VAGRANT	1544	n/a	n/a	0	0	0
455045	WORD	wordpools/wasnorm_wordpool_576.txt	LTP362	ltpFR2	7	3	HARP	689	n/a	n/a	0	0	0
457543	WORD	wordpools/wasnorm_wordpool_576.txt	LTP362	ltpFR2	7	3	FOREHEAD	592	n/a	n/a	0	0	0
460226	WORD	wordpools/wasnorm_wordpool_576.txt	LTP362	ltpFR2	7	3	FIDDLE	561	n/a	n/a	0	0	0
462941	WORD	wordpools/wasnorm_wordpool_576.txt	LTP362	ltpFR2	7	3	CLAMP	316	n/a	n/a	0	0	0
465573	WORD	wordpools/wasnorm_wordpool_576.txt	LTP362	ltpFR2	7	3	OUTLAW	989	n/a	n/a	0	0	0
468322	WORD	wordpools/wasnorm_wordpool_576.txt	LTP362	ltpFR2	7	3	WHISKERS	1605	n/a	n/a	0	0	0
471087	WORD	wordpools/wasnorm_wordpool_576.txt	LTP362	ltpFR2	7	3	JAPAN	749	n/a	n/a	0	0	0
473869	WORD	wordpools/wasnorm_wordpool_576.txt	LTP362	ltpFR2	7	3	SPOOL	1356	n/a	n/a	0	0	0
476353	WORD	wordpools/wasnorm_wordpool_576.txt	LTP362	ltpFR2	7	3	YARN	1631	n/a	n/a	0	0	0
478967	WORD	wordpools/wasnorm_wordpool_576.txt	LTP362	ltpFR2	7	3	FRECKLE	602	n/a	n/a	0	0	0
481733	WORD	wordpools/wasnorm_wordpool_576.txt	LTP362	ltpFR2	7	3	LODGE	839	n/a	n/a	0	0	0
484366	WORD	wordpools/wasnorm_wordpool_576.txt	LTP362	ltpFR2	7	3	COMPASS	358	n/a	n/a	0	0	0
487163	WORD	wordpools/wasnorm_wordpool_576.txt	LTP362	ltpFR2	7	3	COURSE	390	n/a	n/a	0	0	0
489896	WORD	wordpools/wasnorm_wordpool_576.txt	LTP362	ltpFR2	7	3	MISTER	901	n/a	n/a	0	0	0
492661	WORD	wordpools/wasnorm_wordpool_576.txt	LTP362	ltpFR2	7	3	SHORTS	1293	n/a	n/a	0	0	0
495110	WORD	wordpools/wasnorm_wordpool_576.txt	LTP362	ltpFR2	7	3	SANDWICH	1232	n/a	n/a	0	0	0
497842	WORD	wordpools/wasnorm_wordpool_576.txt	LTP362	ltpFR2	7	3	SPOON	1357	n/a	n/a	0	0	0
500557	WORD	wordpools/wasnorm_wordpool_576.txt	LTP362	ltpFR2	7	3	CIGAR	308	n/a	n/a	0	0	0
503373	WORD	wordpools/wasnorm_wordpool_576.txt	LTP362	ltpFR2	7	3	QUEEN	1149	n/a	n/a	0	0	0
506023	WORD	wordpools/wasnorm_wordpool_576.txt	LTP362	ltpFR2	7	3	FARMER	553	n/a	n/a	0	0	0
508737	WORD	wordpools/wasnorm_wordpool_576.txt	LTP362	ltpFR2	7	3	CATTLE	261	n/a	n/a	0	0	0
510354	START	n/a	LTP362	ltpFR2	7	n/a	n/a	n/a	4	n/a	n/a	n/a	n/a
511528	DISTRACTOR	n/a	LTP362	ltpFR2	7	3	n/a	n/a	n/a	n/a	0	0	0
511536	PROB	n/a	LTP362	ltpFR2	7	n/a	n/a	n/a	4	12	2	3	7
513585	PROB	n/a	LTP362	ltpFR2	7	n/a	n/a	n/a	4	16	5	9	2
515334	PROB	n/a	LTP362	ltpFR2	7	n/a	n/a	n/a	4	17	9	2	6
516883	PROB	n/a	LTP362	ltpFR2	7	n/a	n/a	n/a	4	20	8	6	6
518283	PROB	n/a	LTP362	ltpFR2	7	n/a	n/a	n/a	4	18	9	5	4
519932	PROB	n/a	LTP362	ltpFR2	7	n/a	n/a	n/a	4	12	5	3	4
521448	PROB	n/a	LTP362	ltpFR2	7	n/a	n/a	n/a	4	12	7	1	4
524713	PROB	n/a	LTP362	ltpFR2	7	n/a	n/a	n/a	4	13	3	4	6
525879	PROB	n/a	LTP362	ltpFR2	7	n/a	n/a	n/a	4	19	4	8	7
527412	PROB	n/a	LTP362	ltpFR2	7	n/a	n/a	n/a	4	18	5	6	7
529594	PROB	n/a	LTP362	ltpFR2	7	n/a	n/a	n/a	4	12	3	2	7
531643	PROB	n/a	LTP362	ltpFR2	7	n/a	n/a	n/a	4	21	9	6	6
533353	STOP	n/a	LTP362	ltpFR2	7	n/a	n/a	n/a	4	n/a	n/a	n/a	n/a
536208	REC_START	n/a	LTP362	ltpFR2	7	3	n/a	n/a	n/a	n/a	0	0	0
537328	REC_WORD	wordpools/wasnorm_wordpool_576.txt	LTP362	ltpFR2	7	3	MISTER	901	n/a	n/a	0	0	0
537998	REC_WORD	wordpools/wasnorm_wordpool_576.txt	LTP362	ltpFR2	7	3	LONDON	843	n/a	n/a	0	0	0
538858	REC_WORD	wordpools/wasnorm_wordpool_576.txt	LTP362	ltpFR2	7	3	SUSPECT	1415	n/a	n/a	0	0	0
541816	REC_WORD	wordpools/wasnorm_wordpool_576.txt	LTP362	ltpFR2	7	3	VAGRANT	1544	n/a	n/a	0	0	0
542904	REC_WORD	wordpools/wasnorm_wordpool_576.txt	LTP362	ltpFR2	7	3	OUTLAW	989	n/a	n/a	0	0	0
548039	REC_WORD	wordpools/wasnorm_wordpool_576.txt	LTP362	ltpFR2	7	3	FIDDLE	561	n/a	n/a	0	0	0
549197	REC_WORD	wordpools/wasnorm_wordpool_576.txt	LTP362	ltpFR2	7	3	HARP	689	n/a	n/a	0	0	0
550103	REC_WORD	wordpools/wasnorm_wordpool_576.txt	LTP362	ltpFR2	7	3	FOREHEAD	592	n/a	n/a	0	0	0
556998	REC_WORD	wordpools/wasnorm_wordpool_576.txt	LTP362	ltpFR2	7	3	LODGE	839	n/a	n/a	0	0	0
558296	REC_WORD	wordpools/wasnorm_wordpool_576.txt	LTP362	ltpFR2	7	3	COURSE	390	n/a	n/a	0	0	0
559341	REC_WORD	wordpools/wasnorm_wordpool_576.txt	LTP362	ltpFR2	7	3	COMPASS	358	n/a	n/a	0	0	0
560291	REC_WORD	wordpools/wasnorm_wordpool_576.txt	LTP362	ltpFR2	7	3	CATTLE	261	n/a	n/a	0	0	0
586444	REC_WORD	wordpools/wasnorm_wordpool_576.txt	LTP362	ltpFR2	7	3	YOGA	-1	n/a	n/a	0	0	0
626650	WORD	wordpools/wasnorm_wordpool_576.txt	LTP362	ltpFR2	7	4	CRAYON	401	n/a	n/a	0	0	0
629332	WORD	wordpools/wasnorm_wordpool_576.txt	LTP362	ltpFR2	7	4	SHOVEL	1295	n/a	n/a	0	0	0
631815	WORD	wordpools/wasnorm_wordpool_576.txt	LTP362	ltpFR2	7	4	BLUEPRINT	142	n/a	n/a	0	0	0
634413	WORD	wordpools/wasnorm_wordpool_576.txt	LTP362	ltpFR2	7	4	CEILING	265	n/a	n/a	0	0	0
637212	WORD	wordpools/wasnorm_wordpool_576.txt	LTP362	ltpFR2	7	4	BRICK	172	n/a	n/a	0	0	0
639878	WORD	wordpools/wasnorm_wordpool_576.txt	LTP362	ltpFR2	7	4	LION	827	n/a	n/a	0	0	0
642710	WORD	wordpools/wasnorm_wordpool_576.txt	LTP362	ltpFR2	7	4	LABEL	790	n/a	n/a	0	0	0
645492	WORD	wordpools/wasnorm_wordpool_576.txt	LTP362	ltpFR2	7	4	GIRL	637	n/a	n/a	0	0	0
648057	WORD	wordpools/wasnorm_wordpool_576.txt	LTP362	ltpFR2	7	4	DOUGHNUT	490	n/a	n/a	0	0	0
650773	WORD	wordpools/wasnorm_wordpool_576.txt	LTP362	ltpFR2	7	4	LAVA	804	n/a	n/a	0	0	0
653205	WORD	wordpools/wasnorm_wordpool_576.txt	LTP362	ltpFR2	7	4	LIZARD	834	n/a	n/a	0	0	0
655787	WORD	wordpools/wasnorm_wordpool_576.txt	LTP362	ltpFR2	7	4	DENTIST	447	n/a	n/a	0	0	0
658354	WORD	wordpools/wasnorm_wordpool_576.txt	LTP362	ltpFR2	7	4	BUGGY	188	n/a	n/a	0	0	0
661135	WORD	wordpools/wasnorm_wordpool_576.txt	LTP362	ltpFR2	7	4	GREASE	660	n/a	n/a	0	0	0
663700	WORD	wordpools/wasnorm_wordpool_576.txt	LTP362	ltpFR2	7	4	IDOL	733	n/a	n/a	0	0	0
666382	WORD	wordpools/wasnorm_wordpool_576.txt	LTP362	ltpFR2	7	4	CANDY	230	n/a	n/a	0	0	0
669098	WORD	wordpools/wasnorm_wordpool_576.txt	LTP362	ltpFR2	7	4	MILDEW	893	n/a	n/a	0	0	0
671913	WORD	wordpools/wasnorm_wordpool_576.txt	LTP362	ltpFR2	7	4	NIGHTGOWN	953	n/a	n/a	0	0	0
674545	WORD	wordpools/wasnorm_wordpool_576.txt	LTP362	ltpFR2	7	4	HOUND	724	n/a	n/a	0	0	0
677327	WORD	wordpools/wasnorm_wordpool_576.txt	LTP362	ltpFR2	7	4	SPACE	1345	n/a	n/a	0	0	0
680160	WORD	wordpools/wasnorm_wordpool_576.txt	LTP362	ltpFR2	7	4	COMET	353	n/a	n/a	0	0	0
682608	WORD	wordpools/wasnorm_wordpool_576.txt	LTP362	ltpFR2	7	4	SCALPEL	1243	n/a	n/a	0	0	0
685342	WORD	wordpools/wasnorm_wordpool_576.txt	LTP362	ltpFR2	7	4	GHETTO	633	n/a	n/a	0	0	0
687989	WORD	wordpools/wasnorm_wordpool_576.txt	LTP362	ltpFR2	7	4	SLIME	1327	n/a	n/a	0	0	0
689605	START	n/a	LTP362	ltpFR2	7	n/a	n/a	n/a	5	n/a	n/a	n/a	n/a
690452	DISTRACTOR	n/a	LTP362	ltpFR2	7	4	n/a	n/a	n/a	n/a	0	0	0
690455	PROB	n/a	LTP362	ltpFR2	7	n/a	n/a	n/a	5	11	4	4	3
692387	PROB	n/a	LTP362	ltpFR2	7	n/a	n/a	n/a	5	10	4	3	4
694136	PROB	n/a	LTP362	ltpFR2	7	n/a	n/a	n/a	5	14	8	3	3
697353	PROB	n/a	LTP362	ltpFR2	7	n/a	n/a	n/a	5	6	1	1	4
698468	PROB	n/a	LTP362	ltpFR2	7	n/a	n/a	n/a	5	8	5	1	2
700134	PROB	n/a	LTP362	ltpFR2	7	n/a	n/a	n/a	5	18	9	4	5
701600	PROB	n/a	LTP362	ltpFR2	7	n/a	n/a	n/a	5	10	1	7	2
702982	PROB	n/a	LTP362	ltpFR2	7	n/a	n/a	n/a	5	12	4	3	5
704715	PROB	n/a	LTP362	ltpFR2	7	n/a	n/a	n/a	5	12	4	2	6
706349	PROB	n/a	LTP362	ltpFR2	7	n/a	n/a	n/a	5	19	3	9	7
707780	PROB	n/a	LTP362	ltpFR2	7	n/a	n/a	n/a	5	12	8	2	2
709347	PROB	n/a	LTP362	ltpFR2	7	n/a	n/a	n/a	5	24	7	8	9
712446	STOP	n/a	LTP362	ltpFR2	7	n/a	n/a	n/a	5	n/a	n/a	n/a	n/a
715511	REC_START	n/a	LTP362	ltpFR2	7	4	n/a	n/a	n/a	n/a	0	0	0
716602	REC_WORD	wordpools/wasnorm_wordpool_576.txt	LTP362	ltpFR2	7	4	DOUGHNUT	490	n/a	n/a	0	0	0
717293	REC_WORD	wordpools/wasnorm_wordpool_576.txt	LTP362	ltpFR2	7	4	GIRL	637	n/a	n/a	0	0	0
718159	REC_WORD	wordpools/wasnorm_wordpool_576.txt	LTP362	ltpFR2	7	4	LION	827	n/a	n/a	0	0	0
718835	REC_WORD	wordpools/wasnorm_wordpool_576.txt	LTP362	ltpFR2	7	4	LABEL	790	n/a	n/a	0	0	0
719701	REC_WORD	wordpools/wasnorm_wordpool_576.txt	LTP362	ltpFR2	7	4	LAVA	804	n/a	n/a	0	0	0
720603	REC_WORD	wordpools/wasnorm_wordpool_576.txt	LTP362	ltpFR2	7	4	LIZARD	834	n/a	n/a	0	0	0
721838	REC_WORD	wordpools/wasnorm_wordpool_576.txt	LTP362	ltpFR2	7	4	NIGHTGOWN	953	n/a	n/a	0	0	0
723906	REC_WORD	wordpools/wasnorm_wordpool_576.txt	LTP362	ltpFR2	7	4	SCALPEL	1243	n/a	n/a	0	0	0
805953	WORD	wordpools/wasnorm_wordpool_576.txt	LTP362	ltpFR2	7	5	PICNIC	1060	n/a	n/a	0	0	0
808418	WORD	wordpools/wasnorm_wordpool_576.txt	LTP362	ltpFR2	7	5	JUGGLER	763	n/a	n/a	0	0	0
811100	WORD	wordpools/wasnorm_wordpool_576.txt	LTP362	ltpFR2	7	5	GYMNAST	675	n/a	n/a	0	0	0
813649	WORD	wordpools/wasnorm_wordpool_576.txt	LTP362	ltpFR2	7	5	PATROL	1027	n/a	n/a	0	0	0
816215	WORD	wordpools/wasnorm_wordpool_576.txt	LTP362	ltpFR2	7	5	CELLAR	267	n/a	n/a	0	0	0
818664	WORD	wordpools/wasnorm_wordpool_576.txt	LTP362	ltpFR2	7	5	DINER	467	n/a	n/a	0	0	0
821479	WORD	wordpools/wasnorm_wordpool_576.txt	LTP362	ltpFR2	7	5	MARINE	869	n/a	n/a	0	0	0
824278	WORD	wordpools/wasnorm_wordpool_576.txt	LTP362	ltpFR2	7	5	WINDOW	1611	n/a	n/a	0	0	0
826710	WORD	wordpools/wasnorm_wordpool_576.txt	LTP362	ltpFR2	7	5	RUG	1215	n/a	n/a	0	0	0
829292	WORD	wordpools/wasnorm_wordpool_576.txt	LTP362	ltpFR2	7	5	DUST	508	n/a	n/a	0	0	0
831774	WORD	wordpools/wasnorm_wordpool_576.txt	LTP362	ltpFR2	7	5	BINDER	127	n/a	n/a	0	0	0
834306	WORD	wordpools/wasnorm_wordpool_576.txt	LTP362	ltpFR2	7	5	LADY	794	n/a	n/a	0	0	0
836889	WORD	wordpools/wasnorm_wordpool_576.txt	LTP362	ltpFR2	7	5	CASHIER	254	n/a	n/a	0	0	0
839454	WORD	wordpools/wasnorm_wordpool_576.txt	LTP362	ltpFR2	7	5	TOMBSTONE	1478	n/a	n/a	0	0	0
842236	WORD	wordpools/wasnorm_wordpool_576.txt	LTP362	ltpFR2	7	5	POSSUM	1112	n/a	n/a	0	0	0
844702	WORD	wordpools/wasnorm_wordpool_576.txt	LTP362	ltpFR2	7	5	BACON	67	n/a	n/a	0	0	0
847301	WORD	wordpools/wasnorm_wordpool_576.txt	LTP362	ltpFR2	7	5	SAUSAGE	1238	n/a	n/a	0	0	0
850083	WORD	wordpools/wasnorm_wordpool_576.txt	LTP362	ltpFR2	7	5	WAITRESS	1581	n/a	n/a	0	0	0
852748	WORD	wordpools/wasnorm_wordpool_576.txt	LTP362	ltpFR2	7	5	SHORTCAKE	1292	n/a	n/a	0	0	0
855480	WORD	wordpools/wasnorm_wordpool_576.txt	LTP362	ltpFR2	7	5	GAZELLE	628	n/a	n/a	0	0	0
857946	WORD	wordpools/wasnorm_wordpool_576.txt	LTP362	ltpFR2	7	5	VELVET	1555	n/a	n/a	0	0	0
860778	WORD	wordpools/wasnorm_wordpool_576.txt	LTP362	ltpFR2	7	5	PRIMATE	1123	n/a	n/a	0	0	0
863510	WORD	wordpools/wasnorm_wordpool_576.txt	LTP362	ltpFR2	7	5	WOMAN	1620	n/a	n/a	0	0	0
866075	WORD	wordpools/wasnorm_wordpool_576.txt	LTP362	ltpFR2	7	5	FINGER	567	n/a	n/a	0	0	0
867692	START	n/a	LTP362	ltpFR2	7	n/a	n/a	n/a	6	n/a	n/a	n/a	n/a
868823	DISTRACTOR	n/a	LTP362	ltpFR2	7	5	n/a	n/a	n/a	n/a	0	0	0
868841	PROB	n/a	LTP362	ltpFR2	7	n/a	n/a	n/a	6	22	9	9	4
870757	PROB	n/a	LTP362	ltpFR2	7	n/a	n/a	n/a	6	17	6	6	5
872357	PROB	n/a	LTP362	ltpFR2	7	n/a	n/a	n/a	6	15	3	3	9
873855	PROB	n/a	LTP362	ltpFR2	7	n/a	n/a	n/a	6	19	7	5	7
875221	PROB	n/a	LTP362	ltpFR2	7	n/a	n/a	n/a	6	19	2	9	8
876454	PROB	n/a	LTP362	ltpFR2	7	n/a	n/a	n/a	6	14	1	9	4
877687	PROB	n/a	LTP362	ltpFR2	7	n/a	n/a	n/a	6	16	8	6	2
879236	PROB	n/a	LTP362	ltpFR2	7	n/a	n/a	n/a	6	14	4	9	1
880419	PROB	n/a	LTP362	ltpFR2	7	n/a	n/a	n/a	6	24	9	7	8
882385	PROB	n/a	LTP362	ltpFR2	7	n/a	n/a	n/a	6	10	2	6	2
883701	PROB	n/a	LTP362	ltpFR2	7	n/a	n/a	n/a	6	19	8	3	8
885983	PROB	n/a	LTP362	ltpFR2	7	n/a	n/a	n/a	6	21	8	4	9
888615	PROB	n/a	LTP362	ltpFR2	7	n/a	n/a	n/a	6	7	5	1	1
889615	PROB	n/a	LTP362	ltpFR2	7	n/a	n/a	n/a	6	14	3	4	7
891219	STOP	n/a	LTP362	ltpFR2	7	n/a	n/a	n/a	6	n/a	n/a	n/a	n/a
893547	REC_START	n/a	LTP362	ltpFR2	7	5	n/a	n/a	n/a	n/a	0	0	0
896547	REC_WORD	wordpools/wasnorm_wordpool_576.txt	LTP362	ltpFR2	7	5	WOMAN	1620	n/a	n/a	0	0	0
897230	REC_WORD	wordpools/wasnorm_wordpool_576.txt	LTP362	ltpFR2	7	5	VELVET	1555	n/a	n/a	0	0	0
897994	REC_WORD	wordpools/wasnorm_wordpool_576.txt	LTP362	ltpFR2	7	5	PRIMATE	1123	n/a	n/a	0	0	0
898822	REC_WORD	wordpools/wasnorm_wordpool_576.txt	LTP362	ltpFR2	7	5	GAZELLE	628	n/a	n/a	0	0	0
906057	REC_WORD_VV	wordpools/wasnorm_wordpool_576.txt	LTP362	ltpFR2	7	5	<>	-1	n/a	n/a	0	0	0
906845	REC_WORD	wordpools/wasnorm_wordpool_576.txt	LTP362	ltpFR2	7	5	PICNIC	1060	n/a	n/a	0	0	0
907882	REC_WORD	wordpools/wasnorm_wordpool_576.txt	LTP362	ltpFR2	7	5	GYMNAST	675	n/a	n/a	0	0	0
910235	REC_WORD	wordpools/wasnorm_wordpool_576.txt	LTP362	ltpFR2	7	5	JUGGLER	763	n/a	n/a	0	0	0
913473	REC_WORD	wordpools/wasnorm_wordpool_576.txt	LTP362	ltpFR2	7	5	RUG	1215	n/a	n/a	0	0	0
926700	REC_WORD	wordpools/wasnorm_wordpool_576.txt	LTP362	ltpFR2	7	5	MATTRESS	879	n/a	n/a	0	0	0
983989	WORD	wordpools/wasnorm_wordpool_576.txt	LTP362	ltpFR2	7	6	BASEMENT	94	n/a	n/a	0	0	0
986438	WORD	wordpools/wasnorm_wordpool_576.txt	LTP362	ltpFR2	7	6	WIDOW	1608	n/a	n/a	0	0	0
988870	WORD	wordpools/wasnorm_wordpool_576.txt	LTP362	ltpFR2	7	6	TURTLE	1522	n/a	n/a	0	0	0
991535	WORD	wordpools/wasnorm_wordpool_576.txt	LTP362	ltpFR2	7	6	MONSTER	912	n/a	n/a	0	0	0
994068	WORD	wordpools/wasnorm_wordpool_576.txt	LTP362	ltpFR2	7	6	FREEZER	604	n/a	n/a	0	0	0
996683	WORD	wordpools/wasnorm_wordpool_576.txt	LTP362	ltpFR2	7	6	JOURNAL	760	n/a	n/a	0	0	0
999232	WORD	wordpools/wasnorm_wordpool_576.txt	LTP362	ltpFR2	7	6	FRUIT	610	n/a	n/a	0	0	0
1001781	WORD	wordpools/wasnorm_wordpool_576.txt	LTP362	ltpFR2	7	6	ORANGE	980	n/a	n/a	0	0	0
1004296	WORD	wordpools/wasnorm_wordpool_576.txt	LTP362	ltpFR2	7	6	MUSTARD	935	n/a	n/a	0	0	0
1006878	WORD	wordpools/wasnorm_wordpool_576.txt	LTP362	ltpFR2	7	6	NOMAD	955	n/a	n/a	0	0	0
1009644	WORD	wordpools/wasnorm_wordpool_576.txt	LTP362	ltpFR2	7	6	VICTIM	1562	n/a	n/a	0	0	0
1012126	WORD	wordpools/wasnorm_wordpool_576.txt	LTP362	ltpFR2	7	6	NURSE	963	n/a	n/a	0	0	0
1014692	WORD	wordpools/wasnorm_wordpool_576.txt	LTP362	ltpFR2	7	6	CHEMIST	292	n/a	n/a	0	0	0
1017457	WORD	wordpools/wasnorm_wordpool_576.txt	LTP362	ltpFR2	7	6	BARLEY	88	n/a	n/a	0	0	0
1019956	WORD	wordpools/wasnorm_wordpool_576.txt	LTP362	ltpFR2	7	6	DANDRUFF	439	n/a	n/a	0	0	0
1022605	WORD	wordpools/wasnorm_wordpool_576.txt	LTP362	ltpFR2	7	6	HEADBAND	696	n/a	n/a	0	0	0
1025037	WORD	wordpools/wasnorm_wordpool_576.txt	LTP362	ltpFR2	7	6	OMELET	976	n/a	n/a	0	0	0
1027702	WORD	wordpools/wasnorm_wordpool_576.txt	LTP362	ltpFR2	7	6	LOVER	846	n/a	n/a	0	0	0
1030184	WORD	wordpools/wasnorm_wordpool_576.txt	LTP362	ltpFR2	7	6	NOVEL	960	n/a	n/a	0	0	0
1032983	WORD	wordpools/wasnorm_wordpool_576.txt	LTP362	ltpFR2	7	6	RABBIT	1152	n/a	n/a	0	0	0
1035665	WORD	wordpools/wasnorm_wordpool_576.txt	LTP362	ltpFR2	7	6	STATUE	1374	n/a	n/a	0	0	0
1038431	WORD	wordpools/wasnorm_wordpool_576.txt	LTP362	ltpFR2	7	6	SEAL	1262	n/a	n/a	0	0	0
1041013	WORD	wordpools/wasnorm_wordpool_576.txt	LTP362	ltpFR2	7	6	COBRA	336	n/a	n/a	0	0	0
1043462	WORD	wordpools/wasnorm_wordpool_576.txt	LTP362	ltpFR2	7	6	LAMP	798	n/a	n/a	0	0	0
1045078	START	n/a	LTP362	ltpFR2	7	n/a	n/a	n/a	7	n/a	n/a	n/a	n/a
1046078	DISTRACTOR	n/a	LTP362	ltpFR2	7	6	n/a	n/a	n/a	n/a	0	0	0
1046094	PROB	n/a	LTP362	ltpFR2	7	n/a	n/a	n/a	7	16	6	8	2
1047577	PROB	n/a	LTP362	ltpFR2	7	n/a	n/a	n/a	7	15	2	6	7
1049193	PROB	n/a	LTP362	ltpFR2	7	n/a	n/a	n/a	7	12	3	4	5
1051575	PROB	n/a	LTP362	ltpFR2	7	n/a	n/a	n/a	7	19	9	7	3
1052874	PROB	n/a	LTP362	ltpFR2	7	n/a	n/a	n/a	7	13	6	4	3
1054773	PROB	n/a	LTP362	ltpFR2	7	n/a	n/a	n/a	7	14	3	6	5
1056489	PROB	n/a	LTP362	ltpFR2	7	n/a	n/a	n/a	7	16	8	1	7
1057822	PROB	n/a	LTP362	ltpFR2	7	n/a	n/a	n/a	7	26	8	9	9
1059854	PROB	n/a	LTP362	ltpFR2	7	n/a	n/a	n/a	7	16	5	4	7
1061887	PROB	n/a	LTP362	ltpFR2	7	n/a	n/a	n/a	7	11	7	1	3
1063453	PROB	n/a	LTP362	ltpFR2	7	n/a	n/a	n/a	7	19	9	4	6
1064802	PROB	n/a	LTP362	ltpFR2	7	n/a	n/a	n/a	7	11	2	5	4
1066235	PROB	n/a	LTP362	ltpFR2	7	n/a	n/a	n/a	7	20	8	9	3
1068633	STOP	n/a	LTP362	ltpFR2	7	n/a	n/a	n/a	7	n/a	n/a	n/a	n/a
1070900	REC_START	n/a	LTP362	ltpFR2	7	6	n/a	n/a	n/a	n/a	0	0	0
1076894	REC_WORD	wordpools/wasnorm_wordpool_576.txt	LTP362	ltpFR2	7	6	COBRA	336	n/a	n/a	0	0	0
1077623	REC_WORD	wordpools/wasnorm_wordpool_576.txt	LTP362	ltpFR2	7	6	SEAL	1262	n/a	n/a	0	0	0
1078434	REC_WORD	wordpools/wasnorm_wordpool_576.txt	LTP362	ltpFR2	7	6	HEADBAND	696	n/a	n/a	0	0	0
1079431	REC_WORD	wordpools/wasnorm_wordpool_576.txt	LTP362	ltpFR2	7	6	LOVER	846	n/a	n/a	0	0	0
1090426	REC_WORD	wordpools/wasnorm_wordpool_576.txt	LTP362	ltpFR2	7	6	ORANGE	980	n/a	n/a	0	0	0
1091041	REC_WORD	wordpools/wasnorm_wordpool_576.txt	LTP362	ltpFR2	7	6	FRUIT	610	n/a	n/a	0	0	0
1091809	REC_WORD	wordpools/wasnorm_wordpool_576.txt	LTP362	ltpFR2	7	6	FREEZER	604	n/a	n/a	0	0	0
1092904	REC_WORD	wordpools/wasnorm_wordpool_576.txt	LTP362	ltpFR2	7	6	WIDOW	1608	n/a	n/a	0	0	0
1093872	REC_WORD	wordpools/wasnorm_wordpool_576.txt	LTP362	ltpFR2	7	6	BASEMENT	94	n/a	n/a	0	0	0
1094615	REC_WORD	wordpools/wasnorm_wordpool_576.txt	LTP362	ltpFR2	7	6	BARLEY	88	n/a	n/a	0	0	0
1118485	REC_WORD	wordpools/wasnorm_wordpool_576.txt	LTP362	ltpFR2	7	6	NOVEL	960	n/a	n/a	0	0	0
1119371	REC_WORD	wordpools/wasnorm_wordpool_576.txt	LTP362	ltpFR2	7	6	RABBIT	1152	n/a	n/a	0	0	0
1123458	REC_WORD	wordpools/wasnorm_wordpool_576.txt	LTP362	ltpFR2	7	6	STATUE	1374	n/a	n/a	0	0	0
1128966	REC_WORD	wordpools/wasnorm_wordpool_576.txt	LTP362	ltpFR2	7	6	VELVET	1555	n/a	n/a	0	0	0
1161343	DISTRACTOR	n/a	LTP362	ltpFR2	7	7	n/a	n/a	n/a	n/a	0	0	0
1161343	START	n/a	LTP362	ltpFR2	7	n/a	n/a	n/a	8	n/a	n/a	n/a	n/a
1161360	PROB	n/a	LTP362	ltpFR2	7	n/a	n/a	n/a	8	14	6	3	5
1163308	PROB	n/a	LTP362	ltpFR2	7	n/a	n/a	n/a	8	20	5	6	9
1164707	PROB	n/a	LTP362	ltpFR2	7	n/a	n/a	n/a	8	19	9	4	6
1165823	PROB	n/a	LTP362	ltpFR2	7	n/a	n/a	n/a	8	8	4	1	3
1166973	PROB	n/a	LTP362	ltpFR2	7	n/a	n/a	n/a	8	14	3	2	9
1168705	PROB	n/a	LTP362	ltpFR2	7	n/a	n/a	n/a	8	11	1	9	1
1169871	PROB	n/a	LTP362	ltpFR2	7	n/a	n/a	n/a	8	16	7	3	6
1171154	PROB	n/a	LTP362	ltpFR2	7	n/a	n/a	n/a	8	8	3	1	5
1172187	PROB	n/a	LTP362	ltpFR2	7	n/a	n/a	n/a	8	1	5	8	9
1175036	PROB	n/a	LTP362	ltpFR2	7	n/a	n/a	n/a	8	20	8	9	3
1177585	PROB	n/a	LTP362	ltpFR2	7	n/a	n/a	n/a	8	10	5	4	1
1179134	PROB	n/a	LTP362	ltpFR2	7	n/a	n/a	n/a	8	12	4	4	4
1180250	PROB	n/a	LTP362	ltpFR2	7	n/a	n/a	n/a	8	14	9	3	2
1181716	PROB	n/a	LTP362	ltpFR2	7	n/a	n/a	n/a	8	4	1	2	1
1183949	STOP	n/a	LTP362	ltpFR2	7	n/a	n/a	n/a	8	n/a	n/a	n/a	n/a
1186481	WORD	wordpools/wasnorm_wordpool_576.txt	LTP362	ltpFR2	7	7	OUTDOORS	987	n/a	n/a	0	0	0
1188963	WORD	wordpools/wasnorm_wordpool_576.txt	LTP362	ltpFR2	7	7	FOREST	593	n/a	n/a	0	0	0
1191545	WORD	wordpools/wasnorm_wordpool_576.txt	LTP362	ltpFR2	7	7	SEAGULL	1261	n/a	n/a	0	0	0
1194010	WORD	wordpools/wasnorm_wordpool_576.txt	LTP362	ltpFR2	7	7	LIGHTNING	820	n/a	n/a	0	0	0
1196543	WORD	wordpools/wasnorm_wordpool_576.txt	LTP362	ltpFR2	7	7	POSTAGE	1113	n/a	n/a	0	0	0
1199191	WORD	wordpools/wasnorm_wordpool_576.txt	LTP362	ltpFR2	7	7	THIEF	1456	n/a	n/a	0	0	0
1201874	WORD	wordpools/wasnorm_wordpool_576.txt	LTP362	ltpFR2	7	7	CREVICE	405	n/a	n/a	0	0	0
1204472	WORD	wordpools/wasnorm_wordpool_576.txt	LTP362	ltpFR2	7	7	LILY	821	n/a	n/a	0	0	0
1207254	WORD	wordpools/wasnorm_wordpool_576.txt	LTP362	ltpFR2	7	7	STAPLE	1371	n/a	n/a	0	0	0
1209770	WORD	wordpools/wasnorm_wordpool_576.txt	LTP362	ltpFR2	7	7	FIREMAN	569	n/a	n/a	0	0	0
1212385	WORD	wordpools/wasnorm_wordpool_576.txt	LTP362	ltpFR2	7	7	DRAGON	492	n/a	n/a	0	0	0
1215034	WORD	wordpools/wasnorm_wordpool_576.txt	LTP362	ltpFR2	7	7	KETCHUP	771	n/a	n/a	0	0	0
1217850	WORD	wordpools/wasnorm_wordpool_576.txt	LTP362	ltpFR2	7	7	KNIFE	785	n/a	n/a	0	0	0
1220366	WORD	wordpools/wasnorm_wordpool_576.txt	LTP362	ltpFR2	7	7	DONKEY	484	n/a	n/a	0	0	0
1222897	WORD	wordpools/wasnorm_wordpool_576.txt	LTP362	ltpFR2	7	7	CONVICT	371	n/a	n/a	0	0	0
1225696	WORD	wordpools/wasnorm_wordpool_576.txt	LTP362	ltpFR2	7	7	MASK	876	n/a	n/a	0	0	0
1228395	WORD	wordpools/wasnorm_wordpool_576.txt	LTP362	ltpFR2	7	7	PALACE	1006	n/a	n/a	0	0	0
1231194	WORD	wordpools/wasnorm_wordpool_576.txt	LTP362	ltpFR2	7	7	CLOUD	328	n/a	n/a	0	0	0
1233776	WORD	wordpools/wasnorm_wordpool_576.txt	LTP362	ltpFR2	7	7	SOFTBALL	1343	n/a	n/a	0	0	0
1236325	WORD	wordpools/wasnorm_wordpool_576.txt	LTP362	ltpFR2	7	7	POLICE	1098	n/a	n/a	0	0	0
1239023	WORD	wordpools/wasnorm_wordpool_576.txt	LTP362	ltpFR2	7	7	EAGLE	512	n/a	n/a	0	0	0
1241689	WORD	wordpools/wasnorm_wordpool_576.txt	LTP362	ltpFR2	7	7	FOOTBALL	591	n/a	n/a	0	0	0
1244238	WORD	wordpools/wasnorm_wordpool_576.txt	LTP362	ltpFR2	7	7	REPORT	1184	n/a	n/a	0	0	0
1246770	WORD	wordpools/wasnorm_wordpool_576.txt	LTP362	ltpFR2	7	7	BRIEFCASE	175	n/a	n/a	0	0	0
1248386	START	n/a	LTP362	ltpFR2	7	n/a	n/a	n/a	9	n/a	n/a	n/a	n/a
1249206	DISTRACTOR	n/a	LTP362	ltpFR2	7	7	n/a	n/a	n/a	n/a	0	0	0
1249219	PROB	n/a	LTP362	ltpFR2	7	n/a	n/a	n/a	9	24	8	8	8
1251401	PROB	n/a	LTP362	ltpFR2	7	n/a	n/a	n/a	9	23	6	9	8
1254033	PROB	n/a	LTP362	ltpFR2	7	n/a	n/a	n/a	9	12	7	4	1
1255516	PROB	n/a	LTP362	ltpFR2	7	n/a	n/a	n/a	9	14	3	5	6
1257149	PROB	n/a	LTP362	ltpFR2	7	n/a	n/a	n/a	9	19	9	3	7
1258415	PROB	n/a	LTP362	ltpFR2	7	n/a	n/a	n/a	9	23	9	8	6
1260530	PROB	n/a	LTP362	ltpFR2	7	n/a	n/a	n/a	9	13	9	1	3
1262030	PROB	n/a	LTP362	ltpFR2	7	n/a	n/a	n/a	9	16	8	3	5
1263662	PROB	n/a	LTP362	ltpFR2	7	n/a	n/a	n/a	9	18	3	6	9
1265245	PROB	n/a	LTP362	ltpFR2	7	n/a	n/a	n/a	9	14	1	4	9
1266611	PROB	n/a	LTP362	ltpFR2	7	n/a	n/a	n/a	9	15	7	5	3
1267794	PROB	n/a	LTP362	ltpFR2	7	n/a	n/a	n/a	9	25	9	9	7
1272385	STOP	n/a	LTP362	ltpFR2	7	n/a	n/a	n/a	9	n/a	n/a	n/a	n/a
1274241	REC_START	n/a	LTP362	ltpFR2	7	7	n/a	n/a	n/a	n/a	0	0	0
1275348	REC_WORD	wordpools/wasnorm_wordpool_576.txt	LTP362	ltpFR2	7	7	OUTDOORS	987	n/a	n/a	0	0	0
1276348	REC_WORD_VV	wordpools/wasnorm_wordpool_576.txt	LTP362	ltpFR2	7	7	<>	-1	n/a	n/a	0	0	0
1276870	REC_WORD	wordpools/wasnorm_wordpool_576.txt	LTP362	ltpFR2	7	7	FOREST	593	n/a	n/a	0	0	0
1278175	REC_WORD	wordpools/wasnorm_wordpool_576.txt	LTP362	ltpFR2	7	7	LIGHTNING	820	n/a	n/a	0	0	0
1278958	REC_WORD	wordpools/wasnorm_wordpool_576.txt	LTP362	ltpFR2	7	7	CLOUD	328	n/a	n/a	0	0	0
1280110	REC_WORD	wordpools/wasnorm_wordpool_576.txt	LTP362	ltpFR2	7	7	THIEF	1456	n/a	n/a	0	0	0
1281273	REC_WORD	wordpools/wasnorm_wordpool_576.txt	LTP362	ltpFR2	7	7	BRIEFCASE	175	n/a	n/a	0	0	0
1282225	REC_WORD	wordpools/wasnorm_wordpool_576.txt	LTP362	ltpFR2	7	7	KNIFE	785	n/a	n/a	0	0	0
1282966	REC_WORD	wordpools/wasnorm_wordpool_576.txt	LTP362	ltpFR2	7	7	REPORT	1184	n/a	n/a	0	0	0
1364700	DISTRACTOR	n/a	LTP362	ltpFR2	7	8	n/a	n/a	n/a	n/a	0	0	0
1364700	START	n/a	LTP362	ltpFR2	7	n/a	n/a	n/a	10	n/a	n/a	n/a	n/a
1364717	PROB	n/a	LTP362	ltpFR2	7	n/a	n/a	n/a	10	22	9	8	5
1367882	PROB	n/a	LTP362	ltpFR2	7	n/a	n/a	n/a	10	16	6	6	4
1369365	PROB	n/a	LTP362	ltpFR2	7	n/a	n/a	n/a	10	19	3	9	7
1370564	PROB	n/a	LTP362	ltpFR2	7	n/a	n/a	n/a	10	7	2	4	1
1371863	PROB	n/a	LTP362	ltpFR2	7	n/a	n/a	n/a	10	18	6	8	4
1373347	PROB	n/a	LTP362	ltpFR2	7	n/a	n/a	n/a	10	13	1	9	3
1374545	PROB	n/a	LTP362	ltpFR2	7	n/a	n/a	n/a	10	14	3	9	2
1376211	PROB	n/a	LTP362	ltpFR2	7	n/a	n/a	n/a	10	16	8	4	4
1378860	PROB	n/a	LTP362	ltpFR2	7	n/a	n/a	n/a	10	13	7	1	5
1381126	PROB	n/a	LTP362	ltpFR2	7	n/a	n/a	n/a	10	18	5	8	5
1382808	PROB	n/a	LTP362	ltpFR2	7	n/a	n/a	n/a	10	1	7	2	4
1384324	PROB	n/a	LTP362	ltpFR2	7	n/a	n/a	n/a	10	16	4	5	7
1386557	PROB	n/a	LTP362	ltpFR2	7	n/a	n/a	n/a	10	16	6	6	4
1387811	STOP	n/a	LTP362	ltpFR2	7	n/a	n/a	n/a	10	n/a	n/a	n/a	n/a
1389555	WORD	wordpools/wasnorm_wordpool_576.txt	LTP362	ltpFR2	7	8	LETTUCE	814	n/a	n/a	0	0	0
1392237	WORD	wordpools/wasnorm_wordpool_576.txt	LTP362	ltpFR2	7	8	ZEBRA	1635	n/a	n/a	0	0	0
1394736	WORD	wordpools/wasnorm_wordpool_576.txt	LTP362	ltpFR2	7	8	SWORD	1423	n/a	n/a	0	0	0
1397552	WORD	wordpools/wasnorm_wordpool_576.txt	LTP362	ltpFR2	7	8	ROBOT	1200	n/a	n/a	0	0	0
1400067	WORD	wordpools/wasnorm_wordpool_576.txt	LTP362	ltpFR2	7	8	WASHER	1592	n/a	n/a	0	0	0
1402766	WORD	wordpools/wasnorm_wordpool_576.txt	LTP362	ltpFR2	7	8	BANJO	82	n/a	n/a	0	0	0
1405415	WORD	wordpools/wasnorm_wordpool_576.txt	LTP362	ltpFR2	7	8	COCOON	339	n/a	n/a	0	0	0
1408147	WORD	wordpools/wasnorm_wordpool_576.txt	LTP362	ltpFR2	7	8	CLIMBER	323	n/a	n/a	0	0	0
1410679	WORD	wordpools/wasnorm_wordpool_576.txt	LTP362	ltpFR2	7	8	KLEENEX	782	n/a	n/a	0	0	0
1413461	WORD	wordpools/wasnorm_wordpool_576.txt	LTP362	ltpFR2	7	8	WORLD	1622	n/a	n/a	0	0	0
1416127	WORD	wordpools/wasnorm_wordpool_576.txt	LTP362	ltpFR2	7	8	LAGOON	795	n/a	n/a	0	0	0
1418875	WORD	wordpools/wasnorm_wordpool_576.txt	LTP362	ltpFR2	7	8	PRINCESS	1125	n/a	n/a	0	0	0
1421508	WORD	wordpools/wasnorm_wordpool_576.txt	LTP362	ltpFR2	7	8	CABIN	211	n/a	n/a	0	0	0
1424056	WORD	wordpools/wasnorm_wordpool_576.txt	LTP362	ltpFR2	7	8	FRANCE	601	n/a	n/a	0	0	0
1426755	WORD	wordpools/wasnorm_wordpool_576.txt	LTP362	ltpFR2	7	8	SISTER	1312	n/a	n/a	0	0	0
1429554	WORD	wordpools/wasnorm_wordpool_576.txt	LTP362	ltpFR2	7	8	BROTHER	179	n/a	n/a	0	0	0
1432219	WORD	wordpools/wasnorm_wordpool_576.txt	LTP362	ltpFR2	7	8	BUG	187	n/a	n/a	0	0	0
1434985	WORD	wordpools/wasnorm_wordpool_576.txt	LTP362	ltpFR2	7	8	PLASTER	1085	n/a	n/a	0	0	0
1437500	WORD	wordpools/wasnorm_wordpool_576.txt	LTP362	ltpFR2	7	8	STAMP	1370	n/a	n/a	0	0	0
1440049	WORD	wordpools/wasnorm_wordpool_576.txt	LTP362	ltpFR2	7	8	POET	1095	n/a	n/a	0	0	0
1442731	WORD	wordpools/wasnorm_wordpool_576.txt	LTP362	ltpFR2	7	8	SALMON	1227	n/a	n/a	0	0	0
1445313	WORD	wordpools/wasnorm_wordpool_576.txt	LTP362	ltpFR2	7	8	PILOT	1070	n/a	n/a	0	0	0
1448045	WORD	wordpools/wasnorm_wordpool_576.txt	LTP362	ltpFR2	7	8	AIRPLANE	12	n/a	n/a	0	0	0
1450794	WORD	wordpools/wasnorm_wordpool_576.txt	LTP362	ltpFR2	7	8	PUDDLE	1140	n/a	n/a	0	0	0
1452410	START	n/a	LTP362	ltpFR2	7	n/a	n/a	n/a	11	n/a	n/a	n/a	n/a
1453294	DISTRACTOR	n/a	LTP362	ltpFR2	7	8	n/a	n/a	n/a	n/a	0	0	0
1453310	PROB	n/a	LTP362	ltpFR2	7	n/a	n/a	n/a	11	17	7	8	2
1455009	PROB	n/a	LTP362	ltpFR2	7	n/a	n/a	n/a	11	17	5	4	8
1457025	PROB	n/a	LTP362	ltpFR2	7	n/a	n/a	n/a	11	17	9	2	6
1459024	PROB	n/a	LTP362	ltpFR2	7	n/a	n/a	n/a	11	17	5	6	6
1460606	PROB	n/a	LTP362	ltpFR2	7	n/a	n/a	n/a	11	16	8	6	1
1462589	PROB	n/a	LTP362	ltpFR2	7	n/a	n/a	n/a	11	14	8	3	3
1464438	PROB	n/a	LTP362	ltpFR2	7	n/a	n/a	n/a	11	14	5	6	3
1465937	PROB	n/a	LTP362	ltpFR2	7	n/a	n/a	n/a	11	18	1	9	8
1467220	PROB	n/a	LTP362	ltpFR2	7	n/a	n/a	n/a	11	11	5	3	3
1468520	PROB	n/a	LTP362	ltpFR2	7	n/a	n/a	n/a	11	19	8	8	3
1470269	PROB	n/a	LTP362	ltpFR2	7	n/a	n/a	n/a	11	15	8	3	4
1472035	PROB	n/a	LTP362	ltpFR2	7	n/a	n/a	n/a	11	11	3	1	7
1473800	PROB	n/a	LTP362	ltpFR2	7	n/a	n/a	n/a	11	17	7	6	4
1475150	STOP	n/a	LTP362	ltpFR2	7	n/a	n/a	n/a	11	n/a	n/a	n/a	n/a
1478332	REC_START	n/a	LTP362	ltpFR2	7	8	n/a	n/a	n/a	n/a	0	0	0
1480339	REC_WORD	wordpools/wasnorm_wordpool_576.txt	LTP362	ltpFR2	7	8	PRINCESS	1125	n/a	n/a	0	0	0
1481220	REC_WORD	wordpools/wasnorm_wordpool_576.txt	LTP362	ltpFR2	7	8	BROTHER	179	n/a	n/a	0	0	0
1482128	REC_WORD	wordpools/wasnorm_wordpool_576.txt	LTP362	ltpFR2	7	8	BUG	187	n/a	n/a	0	0	0
1482966	REC_WORD	wordpools/wasnorm_wordpool_576.txt	LTP362	ltpFR2	7	8	SALMON	1227	n/a	n/a	0	0	0
1486867	REC_WORD	wordpools/wasnorm_wordpool_576.txt	LTP362	ltpFR2	7	8	PILOT	1070	n/a	n/a	0	0	0
1487596	REC_WORD	wordpools/wasnorm_wordpool_576.txt	LTP362	ltpFR2	7	8	AIRPLANE	12	n/a	n/a	0	0	0
1488394	REC_WORD	wordpools/wasnorm_wordpool_576.txt	LTP362	ltpFR2	7	8	ROBOT	1200	n/a	n/a	0	0	0
1489108	REC_WORD	wordpools/wasnorm_wordpool_576.txt	LTP362	ltpFR2	7	8	SWORD	1423	n/a	n/a	0	0	0
1490430	REC_WORD	wordpools/wasnorm_wordpool_576.txt	LTP362	ltpFR2	7	8	ZEBRA	1635	n/a	n/a	0	0	0
1492055	REC_WORD	wordpools/wasnorm_wordpool_576.txt	LTP362	ltpFR2	7	8	LETTUCE	814	n/a	n/a	0	0	0
1492878	REC_WORD	wordpools/wasnorm_wordpool_576.txt	LTP362	ltpFR2	7	8	COCOON	339	n/a	n/a	0	0	0
1494534	REC_WORD	wordpools/wasnorm_wordpool_576.txt	LTP362	ltpFR2	7	8	CLIMBER	323	n/a	n/a	0	0	0
1554880	REST_REWET	n/a	LTP362	ltpFR2	7	8	n/a	n/a	n/a	n/a	0	0	0
1672177	DISTRACTOR	n/a	LTP362	ltpFR2	7	9	n/a	n/a	n/a	n/a	0	0	0
1672177	START	n/a	LTP362	ltpFR2	7	n/a	n/a	n/a	12	n/a	n/a	n/a	n/a
1672194	PROB	n/a	LTP362	ltpFR2	7	n/a	n/a	n/a	12	21	7	8	8
1674043	PROB	n/a	LTP362	ltpFR2	7	n/a	n/a	n/a	12	18	7	2	9
1677108	PROB	n/a	LTP362	ltpFR2	7	n/a	n/a	n/a	12	15	2	4	9
1678774	PROB	n/a	LTP362	ltpFR2	7	n/a	n/a	n/a	12	23	9	6	8
1681473	PROB	n/a	LTP362	ltpFR2	7	n/a	n/a	n/a	12	7	3	2	2
1683356	PROB	n/a	LTP362	ltpFR2	7	n/a	n/a	n/a	12	16	7	8	1
1684705	PROB	n/a	LTP362	ltpFR2	7	n/a	n/a	n/a	12	19	3	7	9
1685854	PROB	n/a	LTP362	ltpFR2	7	n/a	n/a	n/a	12	6	4	1	1
1687154	PROB	n/a	LTP362	ltpFR2	7	n/a	n/a	n/a	12	12	6	3	3
1688803	PROB	n/a	LTP362	ltpFR2	7	n/a	n/a	n/a	12	13	3	8	2
1690752	PROB	n/a	LTP362	ltpFR2	7	n/a	n/a	n/a	12	13	3	8	2
1691635	PROB	n/a	LTP362	ltpFR2	7	n/a	n/a	n/a	12	17	8	4	5
1693251	PROB	n/a	LTP362	ltpFR2	7	n/a	n/a	n/a	12	21	5	7	9
1695868	STOP	n/a	LTP362	ltpFR2	7	n/a	n/a	n/a	12	n/a	n/a	n/a	n/a
1697299	WORD	wordpools/wasnorm_wordpool_576.txt	LTP362	ltpFR2	7	9	CLOCK	325	n/a	n/a	0	0	0
1699865	WORD	wordpools/wasnorm_wordpool_576.txt	LTP362	ltpFR2	7	9	JUDGE	761	n/a	n/a	0	0	0
1702547	WORD	wordpools/wasnorm_wordpool_576.txt	LTP362	ltpFR2	7	9	PASTA	1021	n/a	n/a	0	0	0
1705046	WORD	wordpools/wasnorm_wordpool_576.txt	LTP362	ltpFR2	7	9	HUSBAND	728	n/a	n/a	0	0	0
1707528	WORD	wordpools/wasnorm_wordpool_576.txt	LTP362	ltpFR2	7	9	CITRUS	313	n/a	n/a	0	0	0
1710193	WORD	wordpools/wasnorm_wordpool_576.txt	LTP362	ltpFR2	7	9	SUNSET	1408	n/a	n/a	0	0	0
1712742	WORD	wordpools/wasnorm_wordpool_576.txt	LTP362	ltpFR2	7	9	VALLEY	1545	n/a	n/a	0	0	0
1715274	WORD	wordpools/wasnorm_wordpool_576.txt	LTP362	ltpFR2	7	9	PROTON	1132	n/a	n/a	0	0	0
1718057	WORD	wordpools/wasnorm_wordpool_576.txt	LTP362	ltpFR2	7	9	RIFLE	1192	n/a	n/a	0	0	0
1720539	WORD	wordpools/wasnorm_wordpool_576.txt	LTP362	ltpFR2	7	9	THREAD	1460	n/a	n/a	0	0	0
1723204	WORD	wordpools/wasnorm_wordpool_576.txt	LTP362	ltpFR2	7	9	IGLOO	734	n/a	n/a	0	0	0
1725936	WORD	wordpools/wasnorm_wordpool_576.txt	LTP362	ltpFR2	7	9	MISSILE	900	n/a	n/a	0	0	0
1728568	WORD	wordpools/wasnorm_wordpool_576.txt	LTP362	ltpFR2	7	9	PISTOL	1075	n/a	n/a	0	0	0
1731267	WORD	wordpools/wasnorm_wordpool_576.txt	LTP362	ltpFR2	7	9	ATOM	55	n/a	n/a	0	0	0
1734016	WORD	wordpools/wasnorm_wordpool_576.txt	LTP362	ltpFR2	7	9	CAMEL	223	n/a	n/a	0	0	0
1736615	WORD	wordpools/wasnorm_wordpool_576.txt	LTP362	ltpFR2	7	9	SLOPE	1328	n/a	n/a	0	0	0
1739314	WORD	wordpools/wasnorm_wordpool_576.txt	LTP362	ltpFR2	7	9	BRANDY	169	n/a	n/a	0	0	0
1741812	WORD	wordpools/wasnorm_wordpool_576.txt	LTP362	ltpFR2	7	9	FLASK	576	n/a	n/a	0	0	0
1744295	WORD	wordpools/wasnorm_wordpool_576.txt	LTP362	ltpFR2	7	9	GRAPE	654	n/a	n/a	0	0	0
1747060	WORD	wordpools/wasnorm_wordpool_576.txt	LTP362	ltpFR2	7	9	SCOTCH	1251	n/a	n/a	0	0	0
1749492	WORD	wordpools/wasnorm_wordpool_576.txt	LTP362	ltpFR2	7	9	COCKTAIL	338	n/a	n/a	0	0	0
1752274	WORD	wordpools/wasnorm_wordpool_576.txt	LTP362	ltpFR2	7	9	SUMMIT	1405	n/a	n/a	0	0	0
1754990	WORD	wordpools/wasnorm_wordpool_576.txt	LTP362	ltpFR2	7	9	CONCERT	360	n/a	n/a	0	0	0
1757472	WORD	wordpools/wasnorm_wordpool_576.txt	LTP362	ltpFR2	7	9	PENGUIN	1044	n/a	n/a	0	0	0
1759088	START	n/a	LTP362	ltpFR2	7	n/a	n/a	n/a	13	n/a	n/a	n/a	n/a
1759911	DISTRACTOR	n/a	LTP362	ltpFR2	7	9	n/a	n/a	n/a	n/a	0	0	0
1759921	PROB	n/a	LTP362	ltpFR2	7	n/a	n/a	n/a	13	14	6	5	3
1761870	PROB	n/a	LTP362	ltpFR2	7	n/a	n/a	n/a	13	21	8	7	6
1764286	PROB	n/a	LTP362	ltpFR2	7	n/a	n/a	n/a	13	19	6	9	4
1765535	PROB	n/a	LTP362	ltpFR2	7	n/a	n/a	n/a	13	16	2	5	9
1767534	PROB	n/a	LTP362	ltpFR2	7	n/a	n/a	n/a	13	18	2	9	7
1768950	PROB	n/a	LTP362	ltpFR2	7	n/a	n/a	n/a	13	19	7	6	6
1770749	PROB	n/a	LTP362	ltpFR2	7	n/a	n/a	n/a	13	17	8	7	2
1772565	PROB	n/a	LTP362	ltpFR2	7	n/a	n/a	n/a	13	21	6	8	7
1774098	PROB	n/a	LTP362	ltpFR2	7	n/a	n/a	n/a	13	9	3	2	4
1776513	PROB	n/a	LTP362	ltpFR2	7	n/a	n/a	n/a	13	18	4	9	5
1777913	PROB	n/a	LTP362	ltpFR2	7	n/a	n/a	n/a	13	13	3	1	9
1779179	PROB	n/a	LTP362	ltpFR2	7	n/a	n/a	n/a	13	10	3	4	3
1780811	PROB	n/a	LTP362	ltpFR2	7	n/a	n/a	n/a	13	19	7	5	7
1782375	STOP	n/a	LTP362	ltpFR2	7	n/a	n/a	n/a	13	n/a	n/a	n/a	n/a
1784877	REC_START	n/a	LTP362	ltpFR2	7	9	n/a	n/a	n/a	n/a	0	0	0
1787828	REC_WORD	wordpools/wasnorm_wordpool_576.txt	LTP362	ltpFR2	7	9	CLOCK	325	n/a	n/a	0	0	0
1788734	REC_WORD	wordpools/wasnorm_wordpool_576.txt	LTP362	ltpFR2	7	9	HUSBAND	728	n/a	n/a	0	0	0
1791502	REC_WORD	wordpools/wasnorm_wordpool_576.txt	LTP362	ltpFR2	7	9	PROTON	1132	n/a	n/a	0	0	0
1792185	REC_WORD	wordpools/wasnorm_wordpool_576.txt	LTP362	ltpFR2	7	9	RIFLE	1192	n/a	n/a	0	0	0
1792651	REC_WORD	wordpools/wasnorm_wordpool_576.txt	LTP362	ltpFR2	7	9	THREADED	-1	n/a	n/a	0	0	0
1793416	REC_WORD	wordpools/wasnorm_wordpool_576.txt	LTP362	ltpFR2	7	9	PISTOL	1075	n/a	n/a	0	0	0
1794207	REC_WORD	wordpools/wasnorm_wordpool_576.txt	LTP362	ltpFR2	7	9	ATOM	55	n/a	n/a	0	0	0
1794823	REC_WORD	wordpools/wasnorm_wordpool_576.txt	LTP362	ltpFR2	7	9	MISSILE	900	n/a	n/a	0	0	0
1797820	REC_WORD	wordpools/wasnorm_wordpool_576.txt	LTP362	ltpFR2	7	9	SLOPE	1328	n/a	n/a	0	0	0
1798494	REC_WORD	wordpools/wasnorm_wordpool_576.txt	LTP362	ltpFR2	7	9	CLIMB	-1	n/a	n/a	0	0	0
1799311	REC_WORD	wordpools/wasnorm_wordpool_576.txt	LTP362	ltpFR2	7	9	BRANDY	169	n/a	n/a	0	0	0
1799917	REC_WORD	wordpools/wasnorm_wordpool_576.txt	LTP362	ltpFR2	7	9	SCOTCH	1251	n/a	n/a	0	0	0
1800636	REC_WORD	wordpools/wasnorm_wordpool_576.txt	LTP362	ltpFR2	7	9	FLASK	576	n/a	n/a	0	0	0
1801498	REC_WORD	wordpools/wasnorm_wordpool_576.txt	LTP362	ltpFR2	7	9	GRAPE	654	n/a	n/a	0	0	0
1818429	REC_WORD	wordpools/wasnorm_wordpool_576.txt	LTP362	ltpFR2	7	9	IGLOO	734	n/a	n/a	0	0	0
1875319	WORD	wordpools/wasnorm_wordpool_576.txt	LTP362	ltpFR2	7	10	LUMBER	848	n/a	n/a	0	0	0
1878101	WORD	wordpools/wasnorm_wordpool_576.txt	LTP362	ltpFR2	7	10	GAVEL	627	n/a	n/a	0	0	0
1880649	WORD	wordpools/wasnorm_wordpool_576.txt	LTP362	ltpFR2	7	10	FILM	565	n/a	n/a	0	0	0
1883432	WORD	wordpools/wasnorm_wordpool_576.txt	LTP362	ltpFR2	7	10	BEAST	108	n/a	n/a	0	0	0
1885964	WORD	wordpools/wasnorm_wordpool_576.txt	LTP362	ltpFR2	7	10	DRESS	495	n/a	n/a	0	0	0
1888646	WORD	wordpools/wasnorm_wordpool_576.txt	LTP362	ltpFR2	7	10	BLOUSE	139	n/a	n/a	0	0	0
1891295	WORD	wordpools/wasnorm_wordpool_576.txt	LTP362	ltpFR2	7	10	BULLET	194	n/a	n/a	0	0	0
1894110	WORD	wordpools/wasnorm_wordpool_576.txt	LTP362	ltpFR2	7	10	SHRUB	1299	n/a	n/a	0	0	0
1896759	WORD	wordpools/wasnorm_wordpool_576.txt	LTP362	ltpFR2	7	10	STICKER	1382	n/a	n/a	0	0	0
1899191	WORD	wordpools/wasnorm_wordpool_576.txt	LTP362	ltpFR2	7	10	SODA	1341	n/a	n/a	0	0	0
1901657	WORD	wordpools/wasnorm_wordpool_576.txt	LTP362	ltpFR2	7	10	BOYFRIEND	162	n/a	n/a	0	0	0
1904189	WORD	wordpools/wasnorm_wordpool_576.txt	LTP362	ltpFR2	7	10	HUMAN	726	n/a	n/a	0	0	0
1906854	WORD	wordpools/wasnorm_wordpool_576.txt	LTP362	ltpFR2	7	10	STAKE	1368	n/a	n/a	0	0	0
1909636	WORD	wordpools/wasnorm_wordpool_576.txt	LTP362	ltpFR2	7	10	TWEEZERS	1526	n/a	n/a	0	0	0
1912218	WORD	wordpools/wasnorm_wordpool_576.txt	LTP362	ltpFR2	7	10	OUTFIT	988	n/a	n/a	0	0	0
1914667	WORD	wordpools/wasnorm_wordpool_576.txt	LTP362	ltpFR2	7	10	CLOTHES	327	n/a	n/a	0	0	0
1917383	WORD	wordpools/wasnorm_wordpool_576.txt	LTP362	ltpFR2	7	10	SMOG	1330	n/a	n/a	0	0	0
1919948	WORD	wordpools/wasnorm_wordpool_576.txt	LTP362	ltpFR2	7	10	OZONE	996	n/a	n/a	0	0	0
1922680	WORD	wordpools/wasnorm_wordpool_576.txt	LTP362	ltpFR2	7	10	LEG	809	n/a	n/a	0	0	0
1925379	WORD	wordpools/wasnorm_wordpool_576.txt	LTP362	ltpFR2	7	10	HOOD	714	n/a	n/a	0	0	0
1927995	WORD	wordpools/wasnorm_wordpool_576.txt	LTP362	ltpFR2	7	10	HOSTESS	723	n/a	n/a	0	0	0
1930743	WORD	wordpools/wasnorm_wordpool_576.txt	LTP362	ltpFR2	7	10	PATIENT	1024	n/a	n/a	0	0	0
1933242	WORD	wordpools/wasnorm_wordpool_576.txt	LTP362	ltpFR2	7	10	BATHTUB	100	n/a	n/a	0	0	0
1935991	WORD	wordpools/wasnorm_wordpool_576.txt	LTP362	ltpFR2	7	10	WAITER	1580	n/a	n/a	0	0	0
1937607	START	n/a	LTP362	ltpFR2	7	n/a	n/a	n/a	14	n/a	n/a	n/a	n/a
1938419	DISTRACTOR	n/a	LTP362	ltpFR2	7	10	n/a	n/a	n/a	n/a	0	0	0
1938423	PROB	n/a	LTP362	ltpFR2	7	n/a	n/a	n/a	14	27	1	8	8
1940239	PROB	n/a	LTP362	ltpFR2	7	n/a	n/a	n/a	14	16	9	1	6
1942471	PROB	n/a	LTP362	ltpFR2	7	n/a	n/a	n/a	14	16	6	9	1
1943721	PROB	n/a	LTP362	ltpFR2	7	n/a	n/a	n/a	14	22	5	9	8
1945953	PROB	n/a	LTP362	ltpFR2	7	n/a	n/a	n/a	14	19	8	4	7
1947536	PROB	n/a	LTP362	ltpFR2	7	n/a	n/a	n/a	14	13	3	7	3
1948819	PROB	n/a	LTP362	ltpFR2	7	n/a	n/a	n/a	14	10	2	2	6
1950001	PROB	n/a	LTP362	ltpFR2	7	n/a	n/a	n/a	14	16	8	5	3
1951667	PROB	n/a	LTP362	ltpFR2	7	n/a	n/a	n/a	14	6	1	3	2
1952733	PROB	n/a	LTP362	ltpFR2	7	n/a	n/a	n/a	14	11	3	2	6
1954549	PROB	n/a	LTP362	ltpFR2	7	n/a	n/a	n/a	14	17	3	6	8
1956182	PROB	n/a	LTP362	ltpFR2	7	n/a	n/a	n/a	14	18	4	9	5
1957831	PROB	n/a	LTP362	ltpFR2	7	n/a	n/a	n/a	14	17	9	5	3
1959530	PROB	n/a	LTP362	ltpFR2	7	n/a	n/a	n/a	14	7	2	4	1
1960677	STOP	n/a	LTP362	ltpFR2	7	n/a	n/a	n/a	14	n/a	n/a	n/a	n/a
1963429	REC_START	n/a	LTP362	ltpFR2	7	10	n/a	n/a	n/a	n/a	0	0	0
1977482	REC_WORD	wordpools/wasnorm_wordpool_576.txt	LTP362	ltpFR2	7	10	STAKE	1368	n/a	n/a	0	0	0
2002989	REC_WORD	wordpools/wasnorm_wordpool_576.txt	LTP362	ltpFR2	7	10	LUMBER	848	n/a	n/a	0	0	0
2006376	REC_WORD	wordpools/wasnorm_wordpool_576.txt	LTP362	ltpFR2	7	10	MONSTER	912	n/a	n/a	0	0	0
2008609	REC_WORD	wordpools/wasnorm_wordpool_576.txt	LTP362	ltpFR2	7	10	GRAVEL	659	n/a	n/a	0	0	0
2068614	DISTRACTOR	n/a	LTP362	ltpFR2	7	11	n/a	n/a	n/a	n/a	0	0	0
2068614	START	n/a	LTP362	ltpFR2	7	n/a	n/a	n/a	15	n/a	n/a	n/a	n/a
2068631	PROB	n/a	LTP362	ltpFR2	7	n/a	n/a	n/a	15	21	3	9	9
2070047	PROB	n/a	LTP362	ltpFR2	7	n/a	n/a	n/a	15	22	9	9	4
2072113	PROB	n/a	LTP362	ltpFR2	7	n/a	n/a	n/a	15	24	9	8	7
2074911	PROB	n/a	LTP362	ltpFR2	7	n/a	n/a	n/a	15	14	9	4	1
2076345	PROB	n/a	LTP362	ltpFR2	7	n/a	n/a	n/a	15	24	9	7	7
2078060	PROB	n/a	LTP362	ltpFR2	7	n/a	n/a	n/a	15	16	7	8	1
2079509	PROB	n/a	LTP362	ltpFR2	7	n/a	n/a	n/a	15	9	1	6	2
2081025	PROB	n/a	LTP362	ltpFR2	7	n/a	n/a	n/a	15	12	5	5	2
2082342	PROB	n/a	LTP362	ltpFR2	7	n/a	n/a	n/a	15	11	4	1	6
2083424	PROB	n/a	LTP362	ltpFR2	7	n/a	n/a	n/a	15	23	8	6	9
2085657	PROB	n/a	LTP362	ltpFR2	7	n/a	n/a	n/a	15	13	3	4	6
2087189	PROB	n/a	LTP362	ltpFR2	7	n/a	n/a	n/a	15	18	6	6	6
2088955	PROB	n/a	LTP362	ltpFR2	7	n/a	n/a	n/a	15	21	6	9	6
2092614	STOP	n/a	LTP362	ltpFR2	7	n/a	n/a	n/a	15	n/a	n/a	n/a	n/a
2093736	WORD	wordpools/wasnorm_wordpool_576.txt	LTP362	ltpFR2	7	11	GLOVE	642	n/a	n/a	0	0	0
2096353	WORD	wordpools/wasnorm_wordpool_576.txt	LTP362	ltpFR2	7	11	TREAT	1501	n/a	n/a	0	0	0
2099117	WORD	wordpools/wasnorm_wordpool_576.txt	LTP362	ltpFR2	7	11	TEMPLE	1448	n/a	n/a	0	0	0
2101799	WORD	wordpools/wasnorm_wordpool_576.txt	LTP362	ltpFR2	7	11	CROSS	413	n/a	n/a	0	0	0
2104398	WORD	wordpools/wasnorm_wordpool_576.txt	LTP362	ltpFR2	7	11	CHEST	295	n/a	n/a	0	0	0
2107164	WORD	wordpools/wasnorm_wordpool_576.txt	LTP362	ltpFR2	7	11	PEPPER	1047	n/a	n/a	0	0	0
2109879	WORD	wordpools/wasnorm_wordpool_576.txt	LTP362	ltpFR2	7	11	BANQUET	86	n/a	n/a	0	0	0
2112494	WORD	wordpools/wasnorm_wordpool_576.txt	LTP362	ltpFR2	7	11	BLOCKADE	137	n/a	n/a	0	0	0
2114960	WORD	wordpools/wasnorm_wordpool_576.txt	LTP362	ltpFR2	7	11	BRAKE	166	n/a	n/a	0	0	0
2117575	WORD	wordpools/wasnorm_wordpool_576.txt	LTP362	ltpFR2	7	11	LIPSTICK	829	n/a	n/a	0	0	0
2120324	WORD	wordpools/wasnorm_wordpool_576.txt	LTP362	ltpFR2	7	11	ULCER	1533	n/a	n/a	0	0	0
2122756	WORD	wordpools/wasnorm_wordpool_576.txt	LTP362	ltpFR2	7	11	BOX	159	n/a	n/a	0	0	0
2125239	WORD	wordpools/wasnorm_wordpool_576.txt	LTP362	ltpFR2	7	11	SUITCASE	1403	n/a	n/a	0	0	0
2127854	WORD	wordpools/wasnorm_wordpool_576.txt	LTP362	ltpFR2	7	11	GARLIC	624	n/a	n/a	0	0	0
2130403	WORD	wordpools/wasnorm_wordpool_576.txt	LTP362	ltpFR2	7	11	LADDER	793	n/a	n/a	0	0	0
2132885	WORD	wordpools/wasnorm_wordpool_576.txt	LTP362	ltpFR2	7	11	BODY	145	n/a	n/a	0	0	0
2135534	WORD	wordpools/wasnorm_wordpool_576.txt	LTP362	ltpFR2	7	11	PECAN	1036	n/a	n/a	0	0	0
2138117	WORD	wordpools/wasnorm_wordpool_576.txt	LTP362	ltpFR2	7	11	SHERIFF	1284	n/a	n/a	0	0	0
2140765	WORD	wordpools/wasnorm_wordpool_576.txt	LTP362	ltpFR2	7	11	DASHBOARD	441	n/a	n/a	0	0	0
2143330	WORD	wordpools/wasnorm_wordpool_576.txt	LTP362	ltpFR2	7	11	QUARTER	1148	n/a	n/a	0	0	0
2145913	WORD	wordpools/wasnorm_wordpool_576.txt	LTP362	ltpFR2	7	11	BACKBONE	66	n/a	n/a	0	0	0
2148511	WORD	wordpools/wasnorm_wordpool_576.txt	LTP362	ltpFR2	7	11	ICEBERG	731	n/a	n/a	0	0	0
2151277	WORD	wordpools/wasnorm_wordpool_576.txt	LTP362	ltpFR2	7	11	BUNNY	198	n/a	n/a	0	0	0
2154092	WORD	wordpools/wasnorm_wordpool_576.txt	LTP362	ltpFR2	7	11	BANK	83	n/a	n/a	0	0	0
2155708	START	n/a	LTP362	ltpFR2	7	n/a	n/a	n/a	16	n/a	n/a	n/a	n/a
2156702	DISTRACTOR	n/a	LTP362	ltpFR2	7	11	n/a	n/a	n/a	n/a	0	0	0
2156708	PROB	n/a	LTP362	ltpFR2	7	n/a	n/a	n/a	16	22	9	4	9
2158657	PROB	n/a	LTP362	ltpFR2	7	n/a	n/a	n/a	16	11	9	1	1
2159756	PROB	n/a	LTP362	ltpFR2	7	n/a	n/a	n/a	16	18	4	7	7
2161789	PROB	n/a	LTP362	ltpFR2	7	n/a	n/a	n/a	16	16	5	3	8
2163688	PROB	n/a	LTP362	ltpFR2	7	n/a	n/a	n/a	16	16	7	2	7
2165120	PROB	n/a	LTP362	ltpFR2	7	n/a	n/a	n/a	16	9	1	7	1
2167236	PROB	n/a	LTP362	ltpFR2	7	n/a	n/a	n/a	16	14	9	2	3
2169219	PROB	n/a	LTP362	ltpFR2	7	n/a	n/a	n/a	16	14	9	3	2
2171684	PROB	n/a	LTP362	ltpFR2	7	n/a	n/a	n/a	16	18	2	7	9
2173833	PROB	n/a	LTP362	ltpFR2	7	n/a	n/a	n/a	16	16	5	2	9
2175499	PROB	n/a	LTP362	ltpFR2	7	n/a	n/a	n/a	16	16	4	5	7
2177815	PROB	n/a	LTP362	ltpFR2	7	n/a	n/a	n/a	16	13	6	2	5
2179003	STOP	n/a	LTP362	ltpFR2	7	n/a	n/a	n/a	16	n/a	n/a	n/a	n/a
2181613	REC_START	n/a	LTP362	ltpFR2	7	11	n/a	n/a	n/a	n/a	0	0	0
2182473	REC_WORD	wordpools/wasnorm_wordpool_576.txt	LTP362	ltpFR2	7	11	SHERIFF	1284	n/a	n/a	0	0	0
2183395	REC_WORD	wordpools/wasnorm_wordpool_576.txt	LTP362	ltpFR2	7	11	QUARTER	1148	n/a	n/a	0	0	0
2184113	REC_WORD	wordpools/wasnorm_wordpool_576.txt	LTP362	ltpFR2	7	11	BUNNY	198	n/a	n/a	0	0	0
2184728	REC_WORD	wordpools/wasnorm_wordpool_576.txt	LTP362	ltpFR2	7	11	BANK	83	n/a	n/a	0	0	0
2203410	REC_WORD	wordpools/wasnorm_wordpool_576.txt	LTP362	ltpFR2	7	11	CHEST	295	n/a	n/a	0	0	0
2204588	REC_WORD	wordpools/wasnorm_wordpool_576.txt	LTP362	ltpFR2	7	11	PEPPER	1047	n/a	n/a	0	0	0
2205529	REC_WORD	wordpools/wasnorm_wordpool_576.txt	LTP362	ltpFR2	7	11	ULCER	1533	n/a	n/a	0	0	0
2208035	REC_WORD	wordpools/wasnorm_wordpool_576.txt	LTP362	ltpFR2	7	11	BANQUET	86	n/a	n/a	0	0	0
2272072	WORD	wordpools/wasnorm_wordpool_576.txt	LTP362	ltpFR2	7	12	SALAD	1224	n/a	n/a	0	0	0
2274721	WORD	wordpools/wasnorm_wordpool_576.txt	LTP362	ltpFR2	7	12	JUNGLE	764	n/a	n/a	0	0	0
2277470	WORD	wordpools/wasnorm_wordpool_576.txt	LTP362	ltpFR2	7	12	DRILL	497	n/a	n/a	0	0	0
2280218	WORD	wordpools/wasnorm_wordpool_576.txt	LTP362	ltpFR2	7	12	SUPPER	1411	n/a	n/a	0	0	0
2282734	WORD	wordpools/wasnorm_wordpool_576.txt	LTP362	ltpFR2	7	12	FUNGUS	614	n/a	n/a	0	0	0
2285399	WORD	wordpools/wasnorm_wordpool_576.txt	LTP362	ltpFR2	7	12	SPHINX	1349	n/a	n/a	0	0	0
2288148	WORD	wordpools/wasnorm_wordpool_576.txt	LTP362	ltpFR2	7	12	HAND	683	n/a	n/a	0	0	0
2290880	WORD	wordpools/wasnorm_wordpool_576.txt	LTP362	ltpFR2	7	12	THRONE	1461	n/a	n/a	0	0	0
2293363	WORD	wordpools/wasnorm_wordpool_576.txt	LTP362	ltpFR2	7	12	ROD	1203	n/a	n/a	0	0	0
2296061	WORD	wordpools/wasnorm_wordpool_576.txt	LTP362	ltpFR2	7	12	SCARECROW	1245	n/a	n/a	0	0	0
2298777	WORD	wordpools/wasnorm_wordpool_576.txt	LTP362	ltpFR2	7	12	SNACK	1331	n/a	n/a	0	0	0
2301409	WORD	wordpools/wasnorm_wordpool_576.txt	LTP362	ltpFR2	7	12	SIDEWALK	1303	n/a	n/a	0	0	0
2304024	WORD	wordpools/wasnorm_wordpool_576.txt	LTP362	ltpFR2	7	12	DRUG	501	n/a	n/a	0	0	0
2306673	WORD	wordpools/wasnorm_wordpool_576.txt	LTP362	ltpFR2	7	12	QUAIL	1147	n/a	n/a	0	0	0
2309139	WORD	wordpools/wasnorm_wordpool_576.txt	LTP362	ltpFR2	7	12	CASHEW	253	n/a	n/a	0	0	0
2311871	WORD	wordpools/wasnorm_wordpool_576.txt	LTP362	ltpFR2	7	12	ROBIN	1199	n/a	n/a	0	0	0
2314636	WORD	wordpools/wasnorm_wordpool_576.txt	LTP362	ltpFR2	7	12	HOOK	715	n/a	n/a	0	0	0
2317435	WORD	wordpools/wasnorm_wordpool_576.txt	LTP362	ltpFR2	7	12	FLIPPER	580	n/a	n/a	0	0	0
2320067	WORD	wordpools/wasnorm_wordpool_576.txt	LTP362	ltpFR2	7	12	CYCLONE	431	n/a	n/a	0	0	0
2322882	WORD	wordpools/wasnorm_wordpool_576.txt	LTP362	ltpFR2	7	12	MEDAL	885	n/a	n/a	0	0	0
2325664	WORD	wordpools/wasnorm_wordpool_576.txt	LTP362	ltpFR2	7	12	TWIG	1527	n/a	n/a	0	0	0
2328130	WORD	wordpools/wasnorm_wordpool_576.txt	LTP362	ltpFR2	7	12	SADDLE	1221	n/a	n/a	0	0	0
2330562	WORD	wordpools/wasnorm_wordpool_576.txt	LTP362	ltpFR2	7	12	PARROT	1015	n/a	n/a	0	0	0
2333328	WORD	wordpools/wasnorm_wordpool_576.txt	LTP362	ltpFR2	7	12	HAWK	692	n/a	n/a	0	0	0
2334944	START	n/a	LTP362	ltpFR2	7	n/a	n/a	n/a	17	n/a	n/a	n/a	n/a
2335762	DISTRACTOR	n/a	LTP362	ltpFR2	7	12	n/a	n/a	n/a	n/a	0	0	0
2335776	PROB	n/a	LTP362	ltpFR2	7	n/a	n/a	n/a	17	12	5	6	1
2337393	PROB	n/a	LTP362	ltpFR2	7	n/a	n/a	n/a	17	13	1	7	5
2340359	PROB	n/a	LTP362	ltpFR2	7	n/a	n/a	n/a	17	8	3	4	1
2341641	PROB	n/a	LTP362	ltpFR2	7	n/a	n/a	n/a	17	17	7	2	8
2343723	PROB	n/a	LTP362	ltpFR2	7	n/a	n/a	n/a	17	12	2	4	6
2345289	PROB	n/a	LTP362	ltpFR2	7	n/a	n/a	n/a	17	8	2	2	4
2346438	PROB	n/a	LTP362	ltpFR2	7	n/a	n/a	n/a	17	13	2	3	8
2347654	PROB	n/a	LTP362	ltpFR2	7	n/a	n/a	n/a	17	22	5	9	8
2349953	PROB	n/a	LTP362	ltpFR2	7	n/a	n/a	n/a	17	9	2	5	2
2351120	PROB	n/a	LTP362	ltpFR2	7	n/a	n/a	n/a	17	10	1	1	8
2352219	PROB	n/a	LTP362	ltpFR2	7	n/a	n/a	n/a	17	16	4	9	3
2355301	PROB	n/a	LTP362	ltpFR2	7	n/a	n/a	n/a	17	7	2	3	2
2356717	PROB	n/a	LTP362	ltpFR2	7	n/a	n/a	n/a	17	10	5	2	3
2358057	STOP	n/a	LTP362	ltpFR2	7	n/a	n/a	n/a	17	n/a	n/a	n/a	n/a
2360716	REC_START	n/a	LTP362	ltpFR2	7	12	n/a	n/a	n/a	n/a	0	0	0
2362492	REC_WORD	wordpools/wasnorm_wordpool_576.txt	LTP362	ltpFR2	7	12	FOREST	593	n/a	n/a	0	0	0
2363320	REC_WORD	wordpools/wasnorm_wordpool_576.txt	LTP362	ltpFR2	7	12	JUNGLE	764	n/a	n/a	0	0	0
2364142	REC_WORD	wordpools/wasnorm_wordpool_576.txt	LTP362	ltpFR2	7	12	SALAD	1224	n/a	n/a	0	0	0
2366565	REC_WORD	wordpools/wasnorm_wordpool_576.txt	LTP362	ltpFR2	7	12	SUPPER	1411	n/a	n/a	0	0	0
2369841	REC_WORD	wordpools/wasnorm_wordpool_576.txt	LTP362	ltpFR2	7	12	ROBIN	1199	n/a	n/a	0	0	0
2370501	REC_WORD	wordpools/wasnorm_wordpool_576.txt	LTP362	ltpFR2	7	12	HOOK	715	n/a	n/a	0	0	0
2371069	REC_WORD	wordpools/wasnorm_wordpool_576.txt	LTP362	ltpFR2	7	12	QUAIL	1147	n/a	n/a	0	0	0
2372340	REC_WORD	wordpools/wasnorm_wordpool_576.txt	LTP362	ltpFR2	7	12	HAWK	692	n/a	n/a	0	0	0
2384278	REC_WORD	wordpools/wasnorm_wordpool_576.txt	LTP362	ltpFR2	7	12	SCARECROW	1245	n/a	n/a	0	0	0
2390348	REC_WORD	wordpools/wasnorm_wordpool_576.txt	LTP362	ltpFR2	7	12	FEEDING	-1	n/a	n/a	0	0	0
2392261	REC_WORD	wordpools/wasnorm_wordpool_576.txt	LTP362	ltpFR2	7	12	DRUG	501	n/a	n/a	0	0	0
2394315	REC_WORD	wordpools/wasnorm_wordpool_576.txt	LTP362	ltpFR2	7	12	SIDEWALK	1303	n/a	n/a	0	0	0
2451141	DISTRACTOR	n/a	LTP362	ltpFR2	7	13	n/a	n/a	n/a	n/a	0	0	0
2451141	START	n/a	LTP362	ltpFR2	7	n/a	n/a	n/a	18	n/a	n/a	n/a	n/a
2451158	PROB	n/a	LTP362	ltpFR2	7	n/a	n/a	n/a	18	16	8	2	6
2452990	PROB	n/a	LTP362	ltpFR2	7	n/a	n/a	n/a	18	12	7	2	3
2454489	PROB	n/a	LTP362	ltpFR2	7	n/a	n/a	n/a	18	18	9	4	5
2455822	PROB	n/a	LTP362	ltpFR2	7	n/a	n/a	n/a	18	9	3	1	5
2457072	PROB	n/a	LTP362	ltpFR2	7	n/a	n/a	n/a	18	12	7	3	2
2458621	PROB	n/a	LTP362	ltpFR2	7	n/a	n/a	n/a	18	17	6	3	8
2460220	PROB	n/a	LTP362	ltpFR2	7	n/a	n/a	n/a	18	11	6	4	1
2461354	PROB	n/a	LTP362	ltpFR2	7	n/a	n/a	n/a	18	13	4	2	7
2462836	PROB	n/a	LTP362	ltpFR2	7	n/a	n/a	n/a	18	14	2	8	4
2464502	PROB	n/a	LTP362	ltpFR2	7	n/a	n/a	n/a	18	23	6	8	9
2467067	PROB	n/a	LTP362	ltpFR2	7	n/a	n/a	n/a	18	25	9	9	7
2469499	PROB	n/a	LTP362	ltpFR2	7	n/a	n/a	n/a	18	14	3	7	4
2471532	PROB	n/a	LTP362	ltpFR2	7	n/a	n/a	n/a	18	21	5	9	7
2473724	STOP	n/a	LTP362	ltpFR2	7	n/a	n/a	n/a	18	n/a	n/a	n/a	n/a
2476296	WORD	wordpools/wasnorm_wordpool_576.txt	LTP362	ltpFR2	7	13	COFFEE	341	n/a	n/a	0	0	0
2478762	WORD	wordpools/wasnorm_wordpool_576.txt	LTP362	ltpFR2	7	13	CONTRACT	368	n/a	n/a	0	0	0
2481461	WORD	wordpools/wasnorm_wordpool_576.txt	LTP362	ltpFR2	7	13	DORM	488	n/a	n/a	0	0	0
2484143	WORD	wordpools/wasnorm_wordpool_576.txt	LTP362	ltpFR2	7	13	SKILLET	1317	n/a	n/a	0	0	0
2486941	WORD	wordpools/wasnorm_wordpool_576.txt	LTP362	ltpFR2	7	13	SERVANT	1271	n/a	n/a	0	0	0
2489690	WORD	wordpools/wasnorm_wordpool_576.txt	LTP362	ltpFR2	7	13	COLLEGE	346	n/a	n/a	0	0	0
2492422	WORD	wordpools/wasnorm_wordpool_576.txt	LTP362	ltpFR2	7	13	STUDENT	1395	n/a	n/a	0	0	0
2494954	WORD	wordpools/wasnorm_wordpool_576.txt	LTP362	ltpFR2	7	13	PIANO	1057	n/a	n/a	0	0	0
2497553	WORD	wordpools/wasnorm_wordpool_576.txt	LTP362	ltpFR2	7	13	RECORD	1176	n/a	n/a	0	0	0
2500319	WORD	wordpools/wasnorm_wordpool_576.txt	LTP362	ltpFR2	7	13	COTTAGE	384	n/a	n/a	0	0	0
2503117	WORD	wordpools/wasnorm_wordpool_576.txt	LTP362	ltpFR2	7	13	DUSTPAN	509	n/a	n/a	0	0	0
2505916	WORD	wordpools/wasnorm_wordpool_576.txt	LTP362	ltpFR2	7	13	PEACH	1031	n/a	n/a	0	0	0
2508731	WORD	wordpools/wasnorm_wordpool_576.txt	LTP362	ltpFR2	7	13	SCALLOP	1242	n/a	n/a	0	0	0
2511547	WORD	wordpools/wasnorm_wordpool_576.txt	LTP362	ltpFR2	7	13	SLUG	1329	n/a	n/a	0	0	0
2514162	WORD	wordpools/wasnorm_wordpool_576.txt	LTP362	ltpFR2	7	13	FRIAR	605	n/a	n/a	0	0	0
2516728	WORD	wordpools/wasnorm_wordpool_576.txt	LTP362	ltpFR2	7	13	HEDGE	699	n/a	n/a	0	0	0
2519243	WORD	wordpools/wasnorm_wordpool_576.txt	LTP362	ltpFR2	7	13	BRANCH	168	n/a	n/a	0	0	0
2521776	WORD	wordpools/wasnorm_wordpool_576.txt	LTP362	ltpFR2	7	13	TRENCH	1503	n/a	n/a	0	0	0
2524441	WORD	wordpools/wasnorm_wordpool_576.txt	LTP362	ltpFR2	7	13	SHELTER	1282	n/a	n/a	0	0	0
2526957	WORD	wordpools/wasnorm_wordpool_576.txt	LTP362	ltpFR2	7	13	DONOR	485	n/a	n/a	0	0	0
2529572	WORD	wordpools/wasnorm_wordpool_576.txt	LTP362	ltpFR2	7	13	RUST	1219	n/a	n/a	0	0	0
2532287	WORD	wordpools/wasnorm_wordpool_576.txt	LTP362	ltpFR2	7	13	ROOSTER	1209	n/a	n/a	0	0	0
2534803	WORD	wordpools/wasnorm_wordpool_576.txt	LTP362	ltpFR2	7	13	EUROPE	541	n/a	n/a	0	0	0
2537602	WORD	wordpools/wasnorm_wordpool_576.txt	LTP362	ltpFR2	7	13	SERVER	1272	n/a	n/a	0	0	0
2539218	START	n/a	LTP362	ltpFR2	7	n/a	n/a	n/a	19	n/a	n/a	n/a	n/a
2540176	DISTRACTOR	n/a	LTP362	ltpFR2	7	13	n/a	n/a	n/a	n/a	0	0	0
2540184	PROB	n/a	LTP362	ltpFR2	7	n/a	n/a	n/a	19	15	3	3	9
2541750	PROB	n/a	LTP362	ltpFR2	7	n/a	n/a	n/a	19	16	3	4	9
2543566	PROB	n/a	LTP362	ltpFR2	7	n/a	n/a	n/a	19	19	7	3	9
2544982	PROB	n/a	LTP362	ltpFR2	7	n/a	n/a	n/a	19	19	9	1	9
2546548	PROB	n/a	LTP362	ltpFR2	7	n/a	n/a	n/a	19	13	4	2	7
2548947	PROB	n/a	LTP362	ltpFR2	7	n/a	n/a	n/a	19	20	4	9	7
2550613	PROB	n/a	LTP362	ltpFR2	7	n/a	n/a	n/a	19	20	7	9	4
2553145	PROB	n/a	LTP362	ltpFR2	7	n/a	n/a	n/a	19	8	1	1	6
2554294	PROB	n/a	LTP362	ltpFR2	7	n/a	n/a	n/a	19	15	6	6	3
2556610	PROB	n/a	LTP362	ltpFR2	7	n/a	n/a	n/a	19	18	3	7	8
2558042	PROB	n/a	LTP362	ltpFR2	7	n/a	n/a	n/a	19	19	9	7	3
2559175	PROB	n/a	LTP362	ltpFR2	7	n/a	n/a	n/a	19	13	6	6	1
2560974	PROB	n/a	LTP362	ltpFR2	7	n/a	n/a	n/a	19	10	7	2	1
2562455	STOP	n/a	LTP362	ltpFR2	7	n/a	n/a	n/a	19	n/a	n/a	n/a	n/a
2565140	REC_START	n/a	LTP362	ltpFR2	7	13	n/a	n/a	n/a	n/a	0	0	0
2567869	REC_WORD	wordpools/wasnorm_wordpool_576.txt	LTP362	ltpFR2	7	13	EUROPE	541	n/a	n/a	0	0	0
2568805	REC_WORD	wordpools/wasnorm_wordpool_576.txt	LTP362	ltpFR2	7	13	ROOSTER	1209	n/a	n/a	0	0	0
2569730	REC_WORD	wordpools/wasnorm_wordpool_576.txt	LTP362	ltpFR2	7	13	SERVER	1272	n/a	n/a	0	0	0
2655582	WORD	wordpools/wasnorm_wordpool_576.txt	LTP362	ltpFR2	7	14	MOTEL	919	n/a	n/a	0	0	0
2658247	WORD	wordpools/wasnorm_wordpool_576.txt	LTP362	ltpFR2	7	14	SKIRT	1319	n/a	n/a	0	0	0
2660879	WORD	wordpools/wasnorm_wordpool_576.txt	LTP362	ltpFR2	7	14	DANCER	437	n/a	n/a	0	0	0
2663428	WORD	wordpools/wasnorm_wordpool_576.txt	LTP362	ltpFR2	7	14	GUARD	667	n/a	n/a	0	0	0
2666060	WORD	wordpools/wasnorm_wordpool_576.txt	LTP362	ltpFR2	7	14	STONE	1385	n/a	n/a	0	0	0
2668859	WORD	wordpools/wasnorm_wordpool_576.txt	LTP362	ltpFR2	7	14	PEBBLE	1035	n/a	n/a	0	0	0
2671441	WORD	wordpools/wasnorm_wordpool_576.txt	LTP362	ltpFR2	7	14	TOURIST	1488	n/a	n/a	0	0	0
2674040	WORD	wordpools/wasnorm_wordpool_576.txt	LTP362	ltpFR2	7	14	SCARF	1246	n/a	n/a	0	0	0
2676772	WORD	wordpools/wasnorm_wordpool_576.txt	LTP362	ltpFR2	7	14	FLASHLIGHT	575	n/a	n/a	0	0	0
2679404	WORD	wordpools/wasnorm_wordpool_576.txt	LTP362	ltpFR2	7	14	XEROX	1628	n/a	n/a	0	0	0
2681953	WORD	wordpools/wasnorm_wordpool_576.txt	LTP362	ltpFR2	7	14	UMPIRE	1535	n/a	n/a	0	0	0
2684602	WORD	wordpools/wasnorm_wordpool_576.txt	LTP362	ltpFR2	7	14	PASSAGE	1019	n/a	n/a	0	0	0
2687317	WORD	wordpools/wasnorm_wordpool_576.txt	LTP362	ltpFR2	7	14	SHELF	1280	n/a	n/a	0	0	0
2689849	WORD	wordpools/wasnorm_wordpool_576.txt	LTP362	ltpFR2	7	14	PLAID	1080	n/a	n/a	0	0	0
2692631	WORD	wordpools/wasnorm_wordpool_576.txt	LTP362	ltpFR2	7	14	PERCH	1048	n/a	n/a	0	0	0
2695130	WORD	wordpools/wasnorm_wordpool_576.txt	LTP362	ltpFR2	7	14	RELISH	1183	n/a	n/a	0	0	0
2697679	WORD	wordpools/wasnorm_wordpool_576.txt	LTP362	ltpFR2	7	14	LUNCH	849	n/a	n/a	0	0	0
2700478	WORD	wordpools/wasnorm_wordpool_576.txt	LTP362	ltpFR2	7	14	VIRUS	1572	n/a	n/a	0	0	0
2703293	WORD	wordpools/wasnorm_wordpool_576.txt	LTP362	ltpFR2	7	14	SWITCH	1422	n/a	n/a	0	0	0
2705726	WORD	wordpools/wasnorm_wordpool_576.txt	LTP362	ltpFR2	7	14	STALLION	1369	n/a	n/a	0	0	0
2708408	WORD	wordpools/wasnorm_wordpool_576.txt	LTP362	ltpFR2	7	14	HATCHET	691	n/a	n/a	0	0	0
2711156	WORD	wordpools/wasnorm_wordpool_576.txt	LTP362	ltpFR2	7	14	BLADE	134	n/a	n/a	0	0	0
2713938	WORD	wordpools/wasnorm_wordpool_576.txt	LTP362	ltpFR2	7	14	PICTURE	1061	n/a	n/a	0	0	0
2716604	WORD	wordpools/wasnorm_wordpool_576.txt	LTP362	ltpFR2	7	14	RAZOR	1171	n/a	n/a	0	0	0
2718220	START	n/a	LTP362	ltpFR2	7	n/a	n/a	n/a	20	n/a	n/a	n/a	n/a
2719192	DISTRACTOR	n/a	LTP362	ltpFR2	7	14	n/a	n/a	n/a	n/a	0	0	0
2719203	PROB	n/a	LTP362	ltpFR2	7	n/a	n/a	n/a	20	14	5	2	7
2721302	PROB	n/a	LTP362	ltpFR2	7	n/a	n/a	n/a	20	10	3	4	3
2722834	PROB	n/a	LTP362	ltpFR2	7	n/a	n/a	n/a	20	14	3	6	5
2724151	PROB	n/a	LTP362	ltpFR2	7	n/a	n/a	n/a	20	17	4	5	8
2725500	PROB	n/a	LTP362	ltpFR2	7	n/a	n/a	n/a	20	11	2	7	2
2727316	PROB	n/a	LTP362	ltpFR2	7	n/a	n/a	n/a	20	14	3	6	5
2729082	PROB	n/a	LTP362	ltpFR2	7	n/a	n/a	n/a	20	20	6	7	7
2731381	PROB	n/a	LTP362	ltpFR2	7	n/a	n/a	n/a	20	13	6	3	4
2733180	PROB	n/a	LTP362	ltpFR2	7	n/a	n/a	n/a	20	17	7	3	7
2734629	PROB	n/a	LTP362	ltpFR2	7	n/a	n/a	n/a	20	13	1	7	5
2736179	PROB	n/a	LTP362	ltpFR2	7	n/a	n/a	n/a	20	13	5	7	1
2737428	PROB	n/a	LTP362	ltpFR2	7	n/a	n/a	n/a	20	15	7	4	4
2742220	STOP	n/a	LTP362	ltpFR2	7	n/a	n/a	n/a	20	n/a	n/a	n/a	n/a
2744042	REC_START	n/a	LTP362	ltpFR2	7	14	n/a	n/a	n/a	n/a	0	0	0
2748272	REC_WORD	wordpools/wasnorm_wordpool_576.txt	LTP362	ltpFR2	7	14	TOURIST	1488	n/a	n/a	0	0	0
2751114	REC_WORD_VV	wordpools/wasnorm_wordpool_576.txt	LTP362	ltpFR2	7	14	<>	-1	n/a	n/a	0	0	0
2751668	REC_WORD	wordpools/wasnorm_wordpool_576.txt	LTP362	ltpFR2	7	14	PEBBLE	1035	n/a	n/a	0	0	0
2753702	REC_WORD	wordpools/wasnorm_wordpool_576.txt	LTP362	ltpFR2	7	14	DANCER	437	n/a	n/a	0	0	0
2756359	REC_WORD	wordpools/wasnorm_wordpool_576.txt	LTP362	ltpFR2	7	14	GUARD	667	n/a	n/a	0	0	0
2757048	REC_WORD	wordpools/wasnorm_wordpool_576.txt	LTP362	ltpFR2	7	14	STONE	1385	n/a	n/a	0	0	0
2757737	REC_WORD	wordpools/wasnorm_wordpool_576.txt	LTP362	ltpFR2	7	14	SKIRT	1319	n/a	n/a	0	0	0
2758544	REC_WORD	wordpools/wasnorm_wordpool_576.txt	LTP362	ltpFR2	7	14	MOTEL	919	n/a	n/a	0	0	0
2762196	REC_WORD	wordpools/wasnorm_wordpool_576.txt	LTP362	ltpFR2	7	14	STALLION	1369	n/a	n/a	0	0	0
2764148	REC_WORD	wordpools/wasnorm_wordpool_576.txt	LTP362	ltpFR2	7	14	RAZOR	1171	n/a	n/a	0	0	0
2764647	REC_WORD	wordpools/wasnorm_wordpool_576.txt	LTP362	ltpFR2	7	14	HATCHET	691	n/a	n/a	0	0	0
2765133	REC_WORD	wordpools/wasnorm_wordpool_576.txt	LTP362	ltpFR2	7	14	BLADE	134	n/a	n/a	0	0	0
2767439	REC_WORD	wordpools/wasnorm_wordpool_576.txt	LTP362	ltpFR2	7	14	SHELF	1280	n/a	n/a	0	0	0
2834467	DISTRACTOR	n/a	LTP362	ltpFR2	7	15	n/a	n/a	n/a	n/a	0	0	0
2834467	START	n/a	LTP362	ltpFR2	7	n/a	n/a	n/a	21	n/a	n/a	n/a	n/a
2834484	PROB	n/a	LTP362	ltpFR2	7	n/a	n/a	n/a	21	16	6	6	4
2835700	PROB	n/a	LTP362	ltpFR2	7	n/a	n/a	n/a	21	14	8	1	5
2837599	PROB	n/a	LTP362	ltpFR2	7	n/a	n/a	n/a	21	18	9	8	1
2838832	PROB	n/a	LTP362	ltpFR2	7	n/a	n/a	n/a	21	14	3	4	7
2840098	PROB	n/a	LTP362	ltpFR2	7	n/a	n/a	n/a	21	20	9	4	7
2841864	PROB	n/a	LTP362	ltpFR2	7	n/a	n/a	n/a	21	14	5	7	2
2843496	PROB	n/a	LTP362	ltpFR2	7	n/a	n/a	n/a	21	20	7	8	5
2845129	PROB	n/a	LTP362	ltpFR2	7	n/a	n/a	n/a	21	13	8	1	4
2847778	PROB	n/a	LTP362	ltpFR2	7	n/a	n/a	n/a	21	13	2	8	3
2849227	PROB	n/a	LTP362	ltpFR2	7	n/a	n/a	n/a	21	15	9	5	1
2850427	PROB	n/a	LTP362	ltpFR2	7	n/a	n/a	n/a	21	14	4	5	5
2851776	PROB	n/a	LTP362	ltpFR2	7	n/a	n/a	n/a	21	14	3	4	7
2853360	PROB	n/a	LTP362	ltpFR2	7	n/a	n/a	n/a	21	23	8	6	9
2855641	PROB	n/a	LTP362	ltpFR2	7	n/a	n/a	n/a	21	11	3	1	7
2857376	STOP	n/a	LTP362	ltpFR2	7	n/a	n/a	n/a	21	n/a	n/a	n/a	n/a
2859422	WORD	wordpools/wasnorm_wordpool_576.txt	LTP362	ltpFR2	7	15	JEANS	752	n/a	n/a	0	0	0
2862088	WORD	wordpools/wasnorm_wordpool_576.txt	LTP362	ltpFR2	7	15	GRILL	661	n/a	n/a	0	0	0
2864887	WORD	wordpools/wasnorm_wordpool_576.txt	LTP362	ltpFR2	7	15	SHIRT	1287	n/a	n/a	0	0	0
2867635	WORD	wordpools/wasnorm_wordpool_576.txt	LTP362	ltpFR2	7	15	CLAM	315	n/a	n/a	0	0	0
2870151	WORD	wordpools/wasnorm_wordpool_576.txt	LTP362	ltpFR2	7	15	CRUTCH	417	n/a	n/a	0	0	0
2872617	WORD	wordpools/wasnorm_wordpool_576.txt	LTP362	ltpFR2	7	15	ITEM	746	n/a	n/a	0	0	0
2875049	WORD	wordpools/wasnorm_wordpool_576.txt	LTP362	ltpFR2	7	15	BEAKER	104	n/a	n/a	0	0	0
2877498	WORD	wordpools/wasnorm_wordpool_576.txt	LTP362	ltpFR2	7	15	STOVE	1388	n/a	n/a	0	0	0
2880296	WORD	wordpools/wasnorm_wordpool_576.txt	LTP362	ltpFR2	7	15	SCRIBBLE	1256	n/a	n/a	0	0	0
2883012	WORD	wordpools/wasnorm_wordpool_576.txt	LTP362	ltpFR2	7	15	LAPEL	800	n/a	n/a	0	0	0
2885811	WORD	wordpools/wasnorm_wordpool_576.txt	LTP362	ltpFR2	7	15	CABBAGE	210	n/a	n/a	0	0	0
2888476	WORD	wordpools/wasnorm_wordpool_576.txt	LTP362	ltpFR2	7	15	BUTCHER	203	n/a	n/a	0	0	0
2891058	WORD	wordpools/wasnorm_wordpool_576.txt	LTP362	ltpFR2	7	15	KNAPSACK	783	n/a	n/a	0	0	0
2893540	WORD	wordpools/wasnorm_wordpool_576.txt	LTP362	ltpFR2	7	15	COOKBOOK	373	n/a	n/a	0	0	0
2896156	WORD	wordpools/wasnorm_wordpool_576.txt	LTP362	ltpFR2	7	15	PORTRAIT	1111	n/a	n/a	0	0	0
2898721	WORD	wordpools/wasnorm_wordpool_576.txt	LTP362	ltpFR2	7	15	TRANSPLANT	1496	n/a	n/a	0	0	0
2901354	WORD	wordpools/wasnorm_wordpool_576.txt	LTP362	ltpFR2	7	15	FLESH	579	n/a	n/a	0	0	0
2903936	WORD	wordpools/wasnorm_wordpool_576.txt	LTP362	ltpFR2	7	15	ROBBER	1197	n/a	n/a	0	0	0
2906568	WORD	wordpools/wasnorm_wordpool_576.txt	LTP362	ltpFR2	7	15	MONEY	908	n/a	n/a	0	0	0
2909383	WORD	wordpools/wasnorm_wordpool_576.txt	LTP362	ltpFR2	7	15	TWISTER	1530	n/a	n/a	0	0	0
2912015	WORD	wordpools/wasnorm_wordpool_576.txt	LTP362	ltpFR2	7	15	HEART	697	n/a	n/a	0	0	0
2914531	WORD	wordpools/wasnorm_wordpool_576.txt	LTP362	ltpFR2	7	15	RAFT	1159	n/a	n/a	0	0	0
2917296	WORD	wordpools/wasnorm_wordpool_576.txt	LTP362	ltpFR2	7	15	ANKLE	24	n/a	n/a	0	0	0
2920028	WORD	wordpools/wasnorm_wordpool_576.txt	LTP362	ltpFR2	7	15	FOOT	590	n/a	n/a	0	0	0
2921644	START	n/a	LTP362	ltpFR2	7	n/a	n/a	n/a	22	n/a	n/a	n/a	n/a
2922766	DISTRACTOR	n/a	LTP362	ltpFR2	7	15	n/a	n/a	n/a	n/a	0	0	0
2922777	PROB	n/a	LTP362	ltpFR2	7	n/a	n/a	n/a	22	12	1	9	2
2924110	PROB	n/a	LTP362	ltpFR2	7	n/a	n/a	n/a	22	10	1	1	8
2925393	PROB	n/a	LTP362	ltpFR2	7	n/a	n/a	n/a	22	12	8	3	1
2927158	PROB	n/a	LTP362	ltpFR2	7	n/a	n/a	n/a	22	16	6	1	9
2928374	PROB	n/a	LTP362	ltpFR2	7	n/a	n/a	n/a	22	18	7	2	9
2930540	PROB	n/a	LTP362	ltpFR2	7	n/a	n/a	n/a	22	26	9	8	9
2932323	PROB	n/a	LTP362	ltpFR2	7	n/a	n/a	n/a	22	16	5	7	4
2935521	PROB	n/a	LTP362	ltpFR2	7	n/a	n/a	n/a	22	15	6	1	8
2939836	PROB	n/a	LTP362	ltpFR2	7	n/a	n/a	n/a	22	19	7	6	5
2942418	PROB	n/a	LTP362	ltpFR2	7	n/a	n/a	n/a	22	18	6	6	6
2945644	STOP	n/a	LTP362	ltpFR2	7	n/a	n/a	n/a	22	n/a	n/a	n/a	n/a
2947383	REC_START	n/a	LTP362	ltpFR2	7	15	n/a	n/a	n/a	n/a	0	0	0
2952135	REC_WORD	wordpools/wasnorm_wordpool_576.txt	LTP362	ltpFR2	7	15	TWISTER	1530	n/a	n/a	0	0	0
2952730	REC_WORD	wordpools/wasnorm_wordpool_576.txt	LTP362	ltpFR2	7	15	JEANS	752	n/a	n/a	0	0	0
2953203	REC_WORD	wordpools/wasnorm_wordpool_576.txt	LTP362	ltpFR2	7	15	SHIRT	1287	n/a	n/a	0	0	0
2954502	REC_WORD	wordpools/wasnorm_wordpool_576.txt	LTP362	ltpFR2	7	15	ROBBER	1197	n/a	n/a	0	0	0
2955039	REC_WORD	wordpools/wasnorm_wordpool_576.txt	LTP362	ltpFR2	7	15	ANKLE	24	n/a	n/a	0	0	0
2955402	REC_WORD	wordpools/wasnorm_wordpool_576.txt	LTP362	ltpFR2	7	15	FOOT	590	n/a	n/a	0	0	0
3037808	DISTRACTOR	n/a	LTP362	ltpFR2	7	16	n/a	n/a	n/a	n/a	0	0	0
3037808	START	n/a	LTP362	ltpFR2	7	n/a	n/a	n/a	23	n/a	n/a	n/a	n/a
3037825	PROB	n/a	LTP362	ltpFR2	7	n/a	n/a	n/a	23	14	7	2	5
3039624	PROB	n/a	LTP362	ltpFR2	7	n/a	n/a	n/a	23	13	5	2	6
3042906	PROB	n/a	LTP362	ltpFR2	7	n/a	n/a	n/a	23	21	7	9	5
3046387	PROB	n/a	LTP362	ltpFR2	7	n/a	n/a	n/a	23	9	4	1	4
3047504	PROB	n/a	LTP362	ltpFR2	7	n/a	n/a	n/a	23	14	1	7	6
3049003	PROB	n/a	LTP362	ltpFR2	7	n/a	n/a	n/a	23	16	7	4	5
3051269	PROB	n/a	LTP362	ltpFR2	7	n/a	n/a	n/a	23	22	8	5	9
3055083	PROB	n/a	LTP362	ltpFR2	7	n/a	n/a	n/a	23	7	2	1	4
3056133	PROB	n/a	LTP362	ltpFR2	7	n/a	n/a	n/a	23	17	4	7	6
3058015	PROB	n/a	LTP362	ltpFR2	7	n/a	n/a	n/a	23	15	3	6	6
3060065	PROB	n/a	LTP362	ltpFR2	7	n/a	n/a	n/a	23	17	4	8	5
3061478	STOP	n/a	LTP362	ltpFR2	7	n/a	n/a	n/a	23	n/a	n/a	n/a	n/a
3062663	WORD	wordpools/wasnorm_wordpool_576.txt	LTP362	ltpFR2	7	16	CUSTARD	429	n/a	n/a	0	0	0
3065412	WORD	wordpools/wasnorm_wordpool_576.txt	LTP362	ltpFR2	7	16	DRIVER	499	n/a	n/a	0	0	0
3067928	WORD	wordpools/wasnorm_wordpool_576.txt	LTP362	ltpFR2	7	16	WAGON	1578	n/a	n/a	0	0	0
3070526	WORD	wordpools/wasnorm_wordpool_576.txt	LTP362	ltpFR2	7	16	LOFT	840	n/a	n/a	0	0	0
3073142	WORD	wordpools/wasnorm_wordpool_576.txt	LTP362	ltpFR2	7	16	HIGHWAY	707	n/a	n/a	0	0	0
3075924	WORD	wordpools/wasnorm_wordpool_576.txt	LTP362	ltpFR2	7	16	GOBLIN	645	n/a	n/a	0	0	0
3078573	WORD	wordpools/wasnorm_wordpool_576.txt	LTP362	ltpFR2	7	16	PEDAL	1037	n/a	n/a	0	0	0
3081339	WORD	wordpools/wasnorm_wordpool_576.txt	LTP362	ltpFR2	7	16	SPIDER	1351	n/a	n/a	0	0	0
3083970	WORD	wordpools/wasnorm_wordpool_576.txt	LTP362	ltpFR2	7	16	GARDEN	623	n/a	n/a	0	0	0
3086453	WORD	wordpools/wasnorm_wordpool_576.txt	LTP362	ltpFR2	7	16	TABLET	1427	n/a	n/a	0	0	0
3088918	WORD	wordpools/wasnorm_wordpool_576.txt	LTP362	ltpFR2	7	16	FOX	598	n/a	n/a	0	0	0
3091484	WORD	wordpools/wasnorm_wordpool_576.txt	LTP362	ltpFR2	7	16	CATCHER	258	n/a	n/a	0	0	0
3094166	WORD	wordpools/wasnorm_wordpool_576.txt	LTP362	ltpFR2	7	16	BANKER	84	n/a	n/a	0	0	0
3096798	WORD	wordpools/wasnorm_wordpool_576.txt	LTP362	ltpFR2	7	16	TRACTOR	1493	n/a	n/a	0	0	0
3099397	WORD	wordpools/wasnorm_wordpool_576.txt	LTP362	ltpFR2	7	16	DAISY	435	n/a	n/a	0	0	0
3101946	WORD	wordpools/wasnorm_wordpool_576.txt	LTP362	ltpFR2	7	16	MESSAGE	888	n/a	n/a	0	0	0
3104578	WORD	wordpools/wasnorm_wordpool_576.txt	LTP362	ltpFR2	7	16	PADDLE	1000	n/a	n/a	0	0	0
3107060	WORD	wordpools/wasnorm_wordpool_576.txt	LTP362	ltpFR2	7	16	JELLY	755	n/a	n/a	0	0	0
3109559	WORD	wordpools/wasnorm_wordpool_576.txt	LTP362	ltpFR2	7	16	AUTHOR	61	n/a	n/a	0	0	0
3112274	WORD	wordpools/wasnorm_wordpool_576.txt	LTP362	ltpFR2	7	16	MAILBOX	857	n/a	n/a	0	0	0
3114790	WORD	wordpools/wasnorm_wordpool_576.txt	LTP362	ltpFR2	7	16	PUDDING	1139	n/a	n/a	0	0	0
3117389	WORD	wordpools/wasnorm_wordpool_576.txt	LTP362	ltpFR2	7	16	APPLE	33	n/a	n/a	0	0	0
3120087	WORD	wordpools/wasnorm_wordpool_576.txt	LTP362	ltpFR2	7	16	WASP	1593	n/a	n/a	0	0	0
3122853	WORD	wordpools/wasnorm_wordpool_576.txt	LTP362	ltpFR2	7	16	HONEY	713	n/a	n/a	0	0	0
3124469	START	n/a	LTP362	ltpFR2	7	n/a	n/a	n/a	24	n/a	n/a	n/a	n/a
3125516	DISTRACTOR	n/a	LTP362	ltpFR2	7	16	n/a	n/a	n/a	n/a	0	0	0
3125518	PROB	n/a	LTP362	ltpFR2	7	n/a	n/a	n/a	24	12	4	7	1
3127134	PROB	n/a	LTP362	ltpFR2	7	n/a	n/a	n/a	24	20	8	9	3
3129283	PROB	n/a	LTP362	ltpFR2	7	n/a	n/a	n/a	24	14	9	3	2
3131082	PROB	n/a	LTP362	ltpFR2	7	n/a	n/a	n/a	24	18	8	9	1
3132765	PROB	n/a	LTP362	ltpFR2	7	n/a	n/a	n/a	24	20	2	8	9
3134381	PROB	n/a	LTP362	ltpFR2	7	n/a	n/a	n/a	24	24	7	9	8
3138062	PROB	n/a	LTP362	ltpFR2	7	n/a	n/a	n/a	24	20	9	5	6
3140411	PROB	n/a	LTP362	ltpFR2	7	n/a	n/a	n/a	24	16	8	2	6
3142144	PROB	n/a	LTP362	ltpFR2	7	n/a	n/a	n/a	24	14	1	6	7
3143660	PROB	n/a	LTP362	ltpFR2	7	n/a	n/a	n/a	24	16	6	8	2
3144843	PROB	n/a	LTP362	ltpFR2	7	n/a	n/a	n/a	24	19	8	8	3
3146375	PROB	n/a	LTP362	ltpFR2	7	n/a	n/a	n/a	24	20	4	8	8
3148224	STOP	n/a	LTP362	ltpFR2	7	n/a	n/a	n/a	24	n/a	n/a	n/a	n/a
3150274	REC_START	n/a	LTP362	ltpFR2	7	16	n/a	n/a	n/a	n/a	0	0	0
3150745	REC_WORD	wordpools/wasnorm_wordpool_576.txt	LTP362	ltpFR2	7	16	FOX	598	n/a	n/a	0	0	0
3151459	REC_WORD	wordpools/wasnorm_wordpool_576.txt	LTP362	ltpFR2	7	16	CATCHER	258	n/a	n/a	0	0	0
3152269	REC_WORD	wordpools/wasnorm_wordpool_576.txt	LTP362	ltpFR2	7	16	DAISY	435	n/a	n/a	0	0	0
3152886	REC_WORD	wordpools/wasnorm_wordpool_576.txt	LTP362	ltpFR2	7	16	BANKER	84	n/a	n/a	0	0	0
3226822	REST_REWET	n/a	LTP362	ltpFR2	7	16	n/a	n/a	n/a	n/a	0	0	0
3328259	DISTRACTOR	n/a	LTP362	ltpFR2	7	17	n/a	n/a	n/a	n/a	0	0	0
3328259	START	n/a	LTP362	ltpFR2	7	n/a	n/a	n/a	25	n/a	n/a	n/a	n/a
3328276	PROB	n/a	LTP362	ltpFR2	7	n/a	n/a	n/a	25	15	4	6	5
3329909	PROB	n/a	LTP362	ltpFR2	7	n/a	n/a	n/a	25	8	4	2	2
3331558	PROB	n/a	LTP362	ltpFR2	7	n/a	n/a	n/a	25	16	6	5	5
3332674	PROB	n/a	LTP362	ltpFR2	7	n/a	n/a	n/a	25	11	7	1	3
3334157	PROB	n/a	LTP362	ltpFR2	7	n/a	n/a	n/a	25	22	7	7	8
3336606	PROB	n/a	LTP362	ltpFR2	7	n/a	n/a	n/a	25	19	8	4	7
3338271	PROB	n/a	LTP362	ltpFR2	7	n/a	n/a	n/a	25	16	4	9	3
3340121	PROB	n/a	LTP362	ltpFR2	7	n/a	n/a	n/a	25	15	5	9	1
3341703	PROB	n/a	LTP362	ltpFR2	7	n/a	n/a	n/a	25	17	7	6	4
3343419	PROB	n/a	LTP362	ltpFR2	7	n/a	n/a	n/a	25	10	1	2	7
3344652	PROB	n/a	LTP362	ltpFR2	7	n/a	n/a	n/a	25	12	2	9	1
3345751	PROB	n/a	LTP362	ltpFR2	7	n/a	n/a	n/a	25	12	5	3	4
3347634	PROB	n/a	LTP362	ltpFR2	7	n/a	n/a	n/a	25	15	8	4	3
3349533	PROB	n/a	LTP362	ltpFR2	7	n/a	n/a	n/a	25	12	9	7	7
3351558	STOP	n/a	LTP362	ltpFR2	7	n/a	n/a	n/a	25	n/a	n/a	n/a	n/a
3353115	WORD	wordpools/wasnorm_wordpool_576.txt	LTP362	ltpFR2	7	17	FRAGRANCE	599	n/a	n/a	0	0	0
3355630	WORD	wordpools/wasnorm_wordpool_576.txt	LTP362	ltpFR2	7	17	COWBOY	395	n/a	n/a	0	0	0
3358396	WORD	wordpools/wasnorm_wordpool_576.txt	LTP362	ltpFR2	7	17	TORTOISE	1486	n/a	n/a	0	0	0
3360978	WORD	wordpools/wasnorm_wordpool_576.txt	LTP362	ltpFR2	7	17	SNAIL	1332	n/a	n/a	0	0	0
3363493	WORD	wordpools/wasnorm_wordpool_576.txt	LTP362	ltpFR2	7	17	CRITIC	410	n/a	n/a	0	0	0
3366142	WORD	wordpools/wasnorm_wordpool_576.txt	LTP362	ltpFR2	7	17	SIBLING	1301	n/a	n/a	0	0	0
3368708	WORD	wordpools/wasnorm_wordpool_576.txt	LTP362	ltpFR2	7	17	FIREPLACE	570	n/a	n/a	0	0	0
3371190	WORD	wordpools/wasnorm_wordpool_576.txt	LTP362	ltpFR2	7	17	ASIA	46	n/a	n/a	0	0	0
3373822	WORD	wordpools/wasnorm_wordpool_576.txt	LTP362	ltpFR2	7	17	GANGSTER	620	n/a	n/a	0	0	0
3376554	WORD	wordpools/wasnorm_wordpool_576.txt	LTP362	ltpFR2	7	17	SWIMMER	1420	n/a	n/a	0	0	0
3379153	WORD	wordpools/wasnorm_wordpool_576.txt	LTP362	ltpFR2	7	17	TART	1436	n/a	n/a	0	0	0
3381685	WORD	wordpools/wasnorm_wordpool_576.txt	LTP362	ltpFR2	7	17	ICING	732	n/a	n/a	0	0	0
3384417	WORD	wordpools/wasnorm_wordpool_576.txt	LTP362	ltpFR2	7	17	CANAL	226	n/a	n/a	0	0	0
3386983	WORD	wordpools/wasnorm_wordpool_576.txt	LTP362	ltpFR2	7	17	PAPER	1011	n/a	n/a	0	0	0
3389798	WORD	wordpools/wasnorm_wordpool_576.txt	LTP362	ltpFR2	7	17	MATCH	878	n/a	n/a	0	0	0
3392630	WORD	wordpools/wasnorm_wordpool_576.txt	LTP362	ltpFR2	7	17	HORNET	718	n/a	n/a	0	0	0
3395296	WORD	wordpools/wasnorm_wordpool_576.txt	LTP362	ltpFR2	7	17	CARROT	249	n/a	n/a	0	0	0
3398044	WORD	wordpools/wasnorm_wordpool_576.txt	LTP362	ltpFR2	7	17	MACHINE	852	n/a	n/a	0	0	0
3400826	WORD	wordpools/wasnorm_wordpool_576.txt	LTP362	ltpFR2	7	17	CHAMPAGNE	278	n/a	n/a	0	0	0
3403343	WORD	wordpools/wasnorm_wordpool_576.txt	LTP362	ltpFR2	7	17	BARREL	91	n/a	n/a	0	0	0
3406024	WORD	wordpools/wasnorm_wordpool_576.txt	LTP362	ltpFR2	7	17	PLATE	1086	n/a	n/a	0	0	0
3408556	WORD	wordpools/wasnorm_wordpool_576.txt	LTP362	ltpFR2	7	17	PIMPLE	1071	n/a	n/a	0	0	0
3411088	WORD	wordpools/wasnorm_wordpool_576.txt	LTP362	ltpFR2	7	17	CURTAIN	427	n/a	n/a	0	0	0
3413787	WORD	wordpools/wasnorm_wordpool_576.txt	LTP362	ltpFR2	7	17	SPARROW	1347	n/a	n/a	0	0	0
3415403	START	n/a	LTP362	ltpFR2	7	n/a	n/a	n/a	26	n/a	n/a	n/a	n/a
3416536	DISTRACTOR	n/a	LTP362	ltpFR2	7	17	n/a	n/a	n/a	n/a	0	0	0
3416553	PROB	n/a	LTP362	ltpFR2	7	n/a	n/a	n/a	26	19	8	3	9
3418702	PROB	n/a	LTP362	ltpFR2	7	n/a	n/a	n/a	26	15	7	4	4
3420684	PROB	n/a	LTP362	ltpFR2	7	n/a	n/a	n/a	26	13	2	9	2
3422583	PROB	n/a	LTP362	ltpFR2	7	n/a	n/a	n/a	26	15	1	7	7
3423799	PROB	n/a	LTP362	ltpFR2	7	n/a	n/a	n/a	26	16	6	7	3
3425265	PROB	n/a	LTP362	ltpFR2	7	n/a	n/a	n/a	26	15	1	8	6
3427114	PROB	n/a	LTP362	ltpFR2	7	n/a	n/a	n/a	26	20	6	6	8
3428647	PROB	n/a	LTP362	ltpFR2	7	n/a	n/a	n/a	26	11	6	2	3
3430130	PROB	n/a	LTP362	ltpFR2	7	n/a	n/a	n/a	26	10	2	3	5
3431896	PROB	n/a	LTP362	ltpFR2	7	n/a	n/a	n/a	26	13	9	2	2
3433346	PROB	n/a	LTP362	ltpFR2	7	n/a	n/a	n/a	26	9	5	3	1
3436160	PROB	n/a	LTP362	ltpFR2	7	n/a	n/a	n/a	26	14	3	3	8
3439403	STOP	n/a	LTP362	ltpFR2	7	n/a	n/a	n/a	26	n/a	n/a	n/a	n/a
3441225	REC_START	n/a	LTP362	ltpFR2	7	17	n/a	n/a	n/a	n/a	0	0	0
3448128	REC_WORD	wordpools/wasnorm_wordpool_576.txt	LTP362	ltpFR2	7	17	TORTOISE	1486	n/a	n/a	0	0	0
3448877	REC_WORD	wordpools/wasnorm_wordpool_576.txt	LTP362	ltpFR2	7	17	SNAIL	1332	n/a	n/a	0	0	0
3449805	REC_WORD	wordpools/wasnorm_wordpool_576.txt	LTP362	ltpFR2	7	17	CRITIC	410	n/a	n/a	0	0	0
3451065	REC_WORD	wordpools/wasnorm_wordpool_576.txt	LTP362	ltpFR2	7	17	COWBOY	395	n/a	n/a	0	0	0
3451648	REC_WORD	wordpools/wasnorm_wordpool_576.txt	LTP362	ltpFR2	7	17	FRAGRANCE	599	n/a	n/a	0	0	0
3452661	REC_WORD	wordpools/wasnorm_wordpool_576.txt	LTP362	ltpFR2	7	17	SIBLING	1301	n/a	n/a	0	0	0
3453470	REC_WORD	wordpools/wasnorm_wordpool_576.txt	LTP362	ltpFR2	7	17	FIREPLACE	570	n/a	n/a	0	0	0
3468828	REC_WORD	wordpools/wasnorm_wordpool_576.txt	LTP362	ltpFR2	7	17	PIMPLE	1071	n/a	n/a	0	0	0
3469287	REC_WORD	wordpools/wasnorm_wordpool_576.txt	LTP362	ltpFR2	7	17	CURTAIN	427	n/a	n/a	0	0	0
3473738	REC_WORD	wordpools/wasnorm_wordpool_576.txt	LTP362	ltpFR2	7	17	SPARROW	1347	n/a	n/a	0	0	0
3481532	REC_WORD	wordpools/wasnorm_wordpool_576.txt	LTP362	ltpFR2	7	17	CANAL	226	n/a	n/a	0	0	0
3500055	REC_WORD	wordpools/wasnorm_wordpool_576.txt	LTP362	ltpFR2	7	17	ASIA	46	n/a	n/a	0	0	0
3531700	WORD	wordpools/wasnorm_wordpool_576.txt	LTP362	ltpFR2	7	18	PRINCE	1124	n/a	n/a	0	0	0
3534282	WORD	wordpools/wasnorm_wordpool_576.txt	LTP362	ltpFR2	7	18	KITCHEN	778	n/a	n/a	0	0	0
3537048	WORD	wordpools/wasnorm_wordpool_576.txt	LTP362	ltpFR2	7	18	ACTOR	5	n/a	n/a	0	0	0
3539480	WORD	wordpools/wasnorm_wordpool_576.txt	LTP362	ltpFR2	7	18	POPCORN	1104	n/a	n/a	0	0	0
3542129	WORD	wordpools/wasnorm_wordpool_576.txt	LTP362	ltpFR2	7	18	TROMBONE	1508	n/a	n/a	0	0	0
3544694	WORD	wordpools/wasnorm_wordpool_576.txt	LTP362	ltpFR2	7	18	GLOBE	641	n/a	n/a	0	0	0
3547493	WORD	wordpools/wasnorm_wordpool_576.txt	LTP362	ltpFR2	7	18	CHILD	299	n/a	n/a	0	0	0
3550025	WORD	wordpools/wasnorm_wordpool_576.txt	LTP362	ltpFR2	7	18	PORK	1108	n/a	n/a	0	0	0
3552674	WORD	wordpools/wasnorm_wordpool_576.txt	LTP362	ltpFR2	7	18	GIFT	635	n/a	n/a	0	0	0
3555289	WORD	wordpools/wasnorm_wordpool_576.txt	LTP362	ltpFR2	7	18	WIFE	1609	n/a	n/a	0	0	0
3557872	WORD	wordpools/wasnorm_wordpool_576.txt	LTP362	ltpFR2	7	18	FLUTE	585	n/a	n/a	0	0	0
3560370	WORD	wordpools/wasnorm_wordpool_576.txt	LTP362	ltpFR2	7	18	BOUQUET	157	n/a	n/a	0	0	0
3563053	WORD	wordpools/wasnorm_wordpool_576.txt	LTP362	ltpFR2	7	18	DIME	466	n/a	n/a	0	0	0
3565651	WORD	wordpools/wasnorm_wordpool_576.txt	LTP362	ltpFR2	7	18	TOASTER	1472	n/a	n/a	0	0	0
3568484	WORD	wordpools/wasnorm_wordpool_576.txt	LTP362	ltpFR2	7	18	TRUCK	1512	n/a	n/a	0	0	0
3570999	WORD	wordpools/wasnorm_wordpool_576.txt	LTP362	ltpFR2	7	18	SNAKE	1333	n/a	n/a	0	0	0
3573731	WORD	wordpools/wasnorm_wordpool_576.txt	LTP362	ltpFR2	7	18	SPOUSE	1358	n/a	n/a	0	0	0
3576463	WORD	wordpools/wasnorm_wordpool_576.txt	LTP362	ltpFR2	7	18	PLAZA	1088	n/a	n/a	0	0	0
3579295	WORD	wordpools/wasnorm_wordpool_576.txt	LTP362	ltpFR2	7	18	MARKET	871	n/a	n/a	0	0	0
3581911	WORD	wordpools/wasnorm_wordpool_576.txt	LTP362	ltpFR2	7	18	SLIDE	1326	n/a	n/a	0	0	0
3584526	WORD	wordpools/wasnorm_wordpool_576.txt	LTP362	ltpFR2	7	18	PAIL	1002	n/a	n/a	0	0	0
3587225	WORD	wordpools/wasnorm_wordpool_576.txt	LTP362	ltpFR2	7	18	ATLAS	53	n/a	n/a	0	0	0
3589890	WORD	wordpools/wasnorm_wordpool_576.txt	LTP362	ltpFR2	7	18	BIKE	125	n/a	n/a	0	0	0
3592439	WORD	wordpools/wasnorm_wordpool_576.txt	LTP362	ltpFR2	7	18	COUSIN	392	n/a	n/a	0	0	0
3594055	START	n/a	LTP362	ltpFR2	7	n/a	n/a	n/a	27	n/a	n/a	n/a	n/a
3595049	DISTRACTOR	n/a	LTP362	ltpFR2	7	18	n/a	n/a	n/a	n/a	0	0	0
3595055	PROB	n/a	LTP362	ltpFR2	7	n/a	n/a	n/a	27	10	2	3	5
3596388	PROB	n/a	LTP362	ltpFR2	7	n/a	n/a	n/a	27	13	2	2	9
3597670	PROB	n/a	LTP362	ltpFR2	7	n/a	n/a	n/a	27	8	4	1	3
3599270	PROB	n/a	LTP362	ltpFR2	7	n/a	n/a	n/a	27	24	9	6	9
3601885	PROB	n/a	LTP362	ltpFR2	7	n/a	n/a	n/a	27	20	3	8	9
3603684	PROB	n/a	LTP362	ltpFR2	7	n/a	n/a	n/a	27	15	4	3	8
3605283	PROB	n/a	LTP362	ltpFR2	7	n/a	n/a	n/a	27	12	2	1	9
3606699	PROB	n/a	LTP362	ltpFR2	7	n/a	n/a	n/a	27	16	7	1	8
3608315	PROB	n/a	LTP362	ltpFR2	7	n/a	n/a	n/a	27	11	2	8	1
3610048	PROB	n/a	LTP362	ltpFR2	7	n/a	n/a	n/a	27	9	6	1	2
3611464	PROB	n/a	LTP362	ltpFR2	7	n/a	n/a	n/a	27	4	1	2	1
3612414	PROB	n/a	LTP362	ltpFR2	7	n/a	n/a	n/a	27	10	2	7	1
3613630	PROB	n/a	LTP362	ltpFR2	7	n/a	n/a	n/a	27	6	4	1	1
3614696	PROB	n/a	LTP362	ltpFR2	7	n/a	n/a	n/a	27	16	4	6	6
3616395	PROB	n/a	LTP362	ltpFR2	7	n/a	n/a	n/a	27	9	1	1	7
3617486	STOP	n/a	LTP362	ltpFR2	7	n/a	n/a	n/a	27	n/a	n/a	n/a	n/a
3619861	REC_START	n/a	LTP362	ltpFR2	7	18	n/a	n/a	n/a	n/a	0	0	0
3622369	REC_WORD	wordpools/wasnorm_wordpool_576.txt	LTP362	ltpFR2	7	18	PRINCE	1124	n/a	n/a	0	0	0
3623706	REC_WORD	wordpools/wasnorm_wordpool_576.txt	LTP362	ltpFR2	7	18	KITCHEN	778	n/a	n/a	0	0	0
3644106	REC_WORD	wordpools/wasnorm_wordpool_576.txt	LTP362	ltpFR2	7	18	CHILD	299	n/a	n/a	0	0	0
3644955	REC_WORD	wordpools/wasnorm_wordpool_576.txt	LTP362	ltpFR2	7	18	PORK	1108	n/a	n/a	0	0	0
3645574	REC_WORD	wordpools/wasnorm_wordpool_576.txt	LTP362	ltpFR2	7	18	TROMBONE	1508	n/a	n/a	0	0	0
3647029	REC_WORD	wordpools/wasnorm_wordpool_576.txt	LTP362	ltpFR2	7	18	GIFT	635	n/a	n/a	0	0	0
3648011	REC_WORD	wordpools/wasnorm_wordpool_576.txt	LTP362	ltpFR2	7	18	BOUQUET	157	n/a	n/a	0	0	0
3654759	REC_WORD	wordpools/wasnorm_wordpool_576.txt	LTP362	ltpFR2	7	18	SNAKE	1333	n/a	n/a	0	0	0
3655328	REC_WORD	wordpools/wasnorm_wordpool_576.txt	LTP362	ltpFR2	7	18	TOASTER	1472	n/a	n/a	0	0	0
3655798	REC_WORD	wordpools/wasnorm_wordpool_576.txt	LTP362	ltpFR2	7	18	MARKET	871	n/a	n/a	0	0	0
3656204	REC_WORD	wordpools/wasnorm_wordpool_576.txt	LTP362	ltpFR2	7	18	PLAZA	1088	n/a	n/a	0	0	0
3659204	REC_WORD	wordpools/wasnorm_wordpool_576.txt	LTP362	ltpFR2	7	18	SLIDE	1326	n/a	n/a	0	0	0
3674834	REC_WORD	wordpools/wasnorm_wordpool_576.txt	LTP362	ltpFR2	7	18	ATLAS	53	n/a	n/a	0	0	0
3684161	REC_WORD	wordpools/wasnorm_wordpool_576.txt	LTP362	ltpFR2	7	18	GLOBE	641	n/a	n/a	0	0	0
3710286	DISTRACTOR	n/a	LTP362	ltpFR2	7	19	n/a	n/a	n/a	n/a	0	0	0
3710286	START	n/a	LTP362	ltpFR2	7	n/a	n/a	n/a	28	n/a	n/a	n/a	n/a
3710302	PROB	n/a	LTP362	ltpFR2	7	n/a	n/a	n/a	28	13	1	6	6
3711802	PROB	n/a	LTP362	ltpFR2	7	n/a	n/a	n/a	28	18	9	8	1
3713151	PROB	n/a	LTP362	ltpFR2	7	n/a	n/a	n/a	28	16	2	6	8
3714467	PROB	n/a	LTP362	ltpFR2	7	n/a	n/a	n/a	28	15	5	2	8
3715650	PROB	n/a	LTP362	ltpFR2	7	n/a	n/a	n/a	28	14	2	7	5
3718815	PROB	n/a	LTP362	ltpFR2	7	n/a	n/a	n/a	28	16	3	6	7
3720314	PROB	n/a	LTP362	ltpFR2	7	n/a	n/a	n/a	28	15	4	7	4
3721781	PROB	n/a	LTP362	ltpFR2	7	n/a	n/a	n/a	28	13	3	6	4
3722947	PROB	n/a	LTP362	ltpFR2	7	n/a	n/a	n/a	28	17	2	8	7
3724347	PROB	n/a	LTP362	ltpFR2	7	n/a	n/a	n/a	28	15	3	7	5
3725779	PROB	n/a	LTP362	ltpFR2	7	n/a	n/a	n/a	28	17	3	5	9
3728211	PROB	n/a	LTP362	ltpFR2	7	n/a	n/a	n/a	28	10	3	4	3
3729777	PROB	n/a	LTP362	ltpFR2	7	n/a	n/a	n/a	28	14	6	7	1
3731459	PROB	n/a	LTP362	ltpFR2	7	n/a	n/a	n/a	28	13	3	6	4
3732761	STOP	n/a	LTP362	ltpFR2	7	n/a	n/a	n/a	28	n/a	n/a	n/a	n/a
3735342	WORD	wordpools/wasnorm_wordpool_576.txt	LTP362	ltpFR2	7	19	BADGE	68	n/a	n/a	0	0	0
3737873	WORD	wordpools/wasnorm_wordpool_576.txt	LTP362	ltpFR2	7	19	AGENT	10	n/a	n/a	0	0	0
3740539	WORD	wordpools/wasnorm_wordpool_576.txt	LTP362	ltpFR2	7	19	EMPIRE	530	n/a	n/a	0	0	0
3743071	WORD	wordpools/wasnorm_wordpool_576.txt	LTP362	ltpFR2	7	19	PARTNER	1017	n/a	n/a	0	0	0
3745753	WORD	wordpools/wasnorm_wordpool_576.txt	LTP362	ltpFR2	7	19	PERFUME	1049	n/a	n/a	0	0	0
3748353	WORD	wordpools/wasnorm_wordpool_576.txt	LTP362	ltpFR2	7	19	OINTMENT	974	n/a	n/a	0	0	0
3750934	WORD	wordpools/wasnorm_wordpool_576.txt	LTP362	ltpFR2	7	19	CUPBOARD	425	n/a	n/a	0	0	0
3753499	WORD	wordpools/wasnorm_wordpool_576.txt	LTP362	ltpFR2	7	19	POISON	1096	n/a	n/a	0	0	0
3756248	WORD	wordpools/wasnorm_wordpool_576.txt	LTP362	ltpFR2	7	19	TUBA	1515	n/a	n/a	0	0	0
3758747	WORD	wordpools/wasnorm_wordpool_576.txt	LTP362	ltpFR2	7	19	BUBBLE	183	n/a	n/a	0	0	0
3761279	WORD	wordpools/wasnorm_wordpool_576.txt	LTP362	ltpFR2	7	19	CANYON	235	n/a	n/a	0	0	0
3763928	WORD	wordpools/wasnorm_wordpool_576.txt	LTP362	ltpFR2	7	19	GUITAR	670	n/a	n/a	0	0	0
3766361	WORD	wordpools/wasnorm_wordpool_576.txt	LTP362	ltpFR2	7	19	MEAT	883	n/a	n/a	0	0	0
3769076	WORD	wordpools/wasnorm_wordpool_576.txt	LTP362	ltpFR2	7	19	BUREAU	199	n/a	n/a	0	0	0
3771624	WORD	wordpools/wasnorm_wordpool_576.txt	LTP362	ltpFR2	7	19	DRESSER	496	n/a	n/a	0	0	0
3774140	WORD	wordpools/wasnorm_wordpool_576.txt	LTP362	ltpFR2	7	19	SCISSORS	1250	n/a	n/a	0	0	0
3776805	WORD	wordpools/wasnorm_wordpool_576.txt	LTP362	ltpFR2	7	19	RATTLE	1170	n/a	n/a	0	0	0
3779321	WORD	wordpools/wasnorm_wordpool_576.txt	LTP362	ltpFR2	7	19	POWDER	1117	n/a	n/a	0	0	0
3782103	WORD	wordpools/wasnorm_wordpool_576.txt	LTP362	ltpFR2	7	19	NOTEBOOK	959	n/a	n/a	0	0	0
3784552	WORD	wordpools/wasnorm_wordpool_576.txt	LTP362	ltpFR2	7	19	LASER	801	n/a	n/a	0	0	0
3787184	WORD	wordpools/wasnorm_wordpool_576.txt	LTP362	ltpFR2	7	19	CAFE	216	n/a	n/a	0	0	0
3789816	WORD	wordpools/wasnorm_wordpool_576.txt	LTP362	ltpFR2	7	19	MARROW	872	n/a	n/a	0	0	0
3792548	WORD	wordpools/wasnorm_wordpool_576.txt	LTP362	ltpFR2	7	19	CASKET	255	n/a	n/a	0	0	0
3795348	WORD	wordpools/wasnorm_wordpool_576.txt	LTP362	ltpFR2	7	19	SEAFOOD	1260	n/a	n/a	0	0	0
3796963	START	n/a	LTP362	ltpFR2	7	n/a	n/a	n/a	29	n/a	n/a	n/a	n/a
3797803	DISTRACTOR	n/a	LTP362	ltpFR2	7	19	n/a	n/a	n/a	n/a	0	0	0
3797813	PROB	n/a	LTP362	ltpFR2	7	n/a	n/a	n/a	29	18	5	4	9
3799895	PROB	n/a	LTP362	ltpFR2	7	n/a	n/a	n/a	29	16	7	6	3
3801727	PROB	n/a	LTP362	ltpFR2	7	n/a	n/a	n/a	29	18	9	2	7
3803060	PROB	n/a	LTP362	ltpFR2	7	n/a	n/a	n/a	29	25	9	7	9
3805892	PROB	n/a	LTP362	ltpFR2	7	n/a	n/a	n/a	29	13	2	5	6
3807608	PROB	n/a	LTP362	ltpFR2	7	n/a	n/a	n/a	29	18	9	8	1
3809457	PROB	n/a	LTP362	ltpFR2	7	n/a	n/a	n/a	29	22	9	8	5
3811540	PROB	n/a	LTP362	ltpFR2	7	n/a	n/a	n/a	29	19	9	8	2
3812656	PROB	n/a	LTP362	ltpFR2	7	n/a	n/a	n/a	29	14	2	3	9
3813972	PROB	n/a	LTP362	ltpFR2	7	n/a	n/a	n/a	29	13	4	6	3
3815155	PROB	n/a	LTP362	ltpFR2	7	n/a	n/a	n/a	29	15	7	5	3
3816554	PROB	n/a	LTP362	ltpFR2	7	n/a	n/a	n/a	29	22	6	8	8
3818970	PROB	n/a	LTP362	ltpFR2	7	n/a	n/a	n/a	29	16	8	4	4
3820300	STOP	n/a	LTP362	ltpFR2	7	n/a	n/a	n/a	29	n/a	n/a	n/a	n/a
3822835	REC_START	n/a	LTP362	ltpFR2	7	19	n/a	n/a	n/a	n/a	0	0	0
3824004	REC_WORD	wordpools/wasnorm_wordpool_576.txt	LTP362	ltpFR2	7	19	AGENT	10	n/a	n/a	0	0	0
3824445	REC_WORD	wordpools/wasnorm_wordpool_576.txt	LTP362	ltpFR2	7	19	BADGE	68	n/a	n/a	0	0	0
3824888	REC_WORD	wordpools/wasnorm_wordpool_576.txt	LTP362	ltpFR2	7	19	PARTNER	1017	n/a	n/a	0	0	0
3825399	REC_WORD	wordpools/wasnorm_wordpool_576.txt	LTP362	ltpFR2	7	19	EMPIRE	530	n/a	n/a	0	0	0
3833741	REC_WORD	wordpools/wasnorm_wordpool_576.txt	LTP362	ltpFR2	7	19	RATTLE	1170	n/a	n/a	0	0	0
3837063	REC_WORD	wordpools/wasnorm_wordpool_576.txt	LTP362	ltpFR2	7	19	CUPBOARD	425	n/a	n/a	0	0	0
3837462	REC_WORD	wordpools/wasnorm_wordpool_576.txt	LTP362	ltpFR2	7	19	DRESSER	496	n/a	n/a	0	0	0
3913293	WORD	wordpools/wasnorm_wordpool_576.txt	LTP362	ltpFR2	7	20	CAPTIVE	240	n/a	n/a	0	0	0
3915826	WORD	wordpools/wasnorm_wordpool_576.txt	LTP362	ltpFR2	7	20	AIRPORT	13	n/a	n/a	0	0	0
3918441	WORD	wordpools/wasnorm_wordpool_576.txt	LTP362	ltpFR2	7	20	CHIPMUNK	304	n/a	n/a	0	0	0
3920957	WORD	wordpools/wasnorm_wordpool_576.txt	LTP362	ltpFR2	7	20	CREATURE	403	n/a	n/a	0	0	0
3923705	WORD	wordpools/wasnorm_wordpool_576.txt	LTP362	ltpFR2	7	20	FRAME	600	n/a	n/a	0	0	0
3926504	WORD	wordpools/wasnorm_wordpool_576.txt	LTP362	ltpFR2	7	20	DRAWING	494	n/a	n/a	0	0	0
3929170	WORD	wordpools/wasnorm_wordpool_576.txt	LTP362	ltpFR2	7	20	GLASS	639	n/a	n/a	0	0	0
3931752	WORD	wordpools/wasnorm_wordpool_576.txt	LTP362	ltpFR2	7	20	GRAVE	658	n/a	n/a	0	0	0
3934384	WORD	wordpools/wasnorm_wordpool_576.txt	LTP362	ltpFR2	7	20	SUBWAY	1400	n/a	n/a	0	0	0
3936816	WORD	wordpools/wasnorm_wordpool_576.txt	LTP362	ltpFR2	7	20	BREAST	171	n/a	n/a	0	0	0
3939565	WORD	wordpools/wasnorm_wordpool_576.txt	LTP362	ltpFR2	7	20	TEACHER	1440	n/a	n/a	0	0	0
3942230	WORD	wordpools/wasnorm_wordpool_576.txt	LTP362	ltpFR2	7	20	MUMMY	932	n/a	n/a	0	0	0
3944912	WORD	wordpools/wasnorm_wordpool_576.txt	LTP362	ltpFR2	7	20	BISON	131	n/a	n/a	0	0	0
3947678	WORD	wordpools/wasnorm_wordpool_576.txt	LTP362	ltpFR2	7	20	MILK	895	n/a	n/a	0	0	0
3950127	WORD	wordpools/wasnorm_wordpool_576.txt	LTP362	ltpFR2	7	20	LEOPARD	812	n/a	n/a	0	0	0
3952892	WORD	wordpools/wasnorm_wordpool_576.txt	LTP362	ltpFR2	7	20	INMATE	738	n/a	n/a	0	0	0
3955524	WORD	wordpools/wasnorm_wordpool_576.txt	LTP362	ltpFR2	7	20	CRATER	400	n/a	n/a	0	0	0
3958140	WORD	wordpools/wasnorm_wordpool_576.txt	LTP362	ltpFR2	7	20	WHISTLE	1606	n/a	n/a	0	0	0
3960789	WORD	wordpools/wasnorm_wordpool_576.txt	LTP362	ltpFR2	7	20	EGYPT	519	n/a	n/a	0	0	0
3963287	WORD	wordpools/wasnorm_wordpool_576.txt	LTP362	ltpFR2	7	20	TURNIP	1521	n/a	n/a	0	0	0
3965786	WORD	wordpools/wasnorm_wordpool_576.txt	LTP362	ltpFR2	7	20	STAR	1373	n/a	n/a	0	0	0
3968302	WORD	wordpools/wasnorm_wordpool_576.txt	LTP362	ltpFR2	7	20	LEADER	807	n/a	n/a	0	0	0
3970967	WORD	wordpools/wasnorm_wordpool_576.txt	LTP362	ltpFR2	7	20	HORSE	719	n/a	n/a	0	0	0
3973633	WORD	wordpools/wasnorm_wordpool_576.txt	LTP362	ltpFR2	7	20	TUNNEL	1519	n/a	n/a	0	0	0
3975249	START	n/a	LTP362	ltpFR2	7	n/a	n/a	n/a	30	n/a	n/a	n/a	n/a
3976089	DISTRACTOR	n/a	LTP362	ltpFR2	7	20	n/a	n/a	n/a	n/a	0	0	0
3976098	PROB	n/a	LTP362	ltpFR2	7	n/a	n/a	n/a	30	21	7	9	5
3979413	PROB	n/a	LTP362	ltpFR2	7	n/a	n/a	n/a	30	20	9	8	3
3982495	PROB	n/a	LTP362	ltpFR2	7	n/a	n/a	n/a	30	18	5	9	4
3984328	PROB	n/a	LTP362	ltpFR2	7	n/a	n/a	n/a	30	7	1	4	2
3985477	PROB	n/a	LTP362	ltpFR2	7	n/a	n/a	n/a	30	15	6	4	5
3986610	PROB	n/a	LTP362	ltpFR2	7	n/a	n/a	n/a	30	17	5	9	3
3988259	PROB	n/a	LTP362	ltpFR2	7	n/a	n/a	n/a	30	14	6	6	2
3990059	PROB	n/a	LTP362	ltpFR2	7	n/a	n/a	n/a	30	14	3	6	5
3992474	PROB	n/a	LTP362	ltpFR2	7	n/a	n/a	n/a	30	10	3	1	6
3993807	PROB	n/a	LTP362	ltpFR2	7	n/a	n/a	n/a	30	22	6	8	8
3996439	PROB	n/a	LTP362	ltpFR2	7	n/a	n/a	n/a	30	17	1	9	7
3998777	STOP	n/a	LTP362	ltpFR2	7	n/a	n/a	n/a	30	n/a	n/a	n/a	n/a
4001004	REC_START	n/a	LTP362	ltpFR2	7	20	n/a	n/a	n/a	n/a	0	0	0
4001882	REC_WORD	wordpools/wasnorm_wordpool_576.txt	LTP362	ltpFR2	7	20	STAR	1373	n/a	n/a	0	0	0
4002426	REC_WORD	wordpools/wasnorm_wordpool_576.txt	LTP362	ltpFR2	7	20	HORSE	719	n/a	n/a	0	0	0
4002903	REC_WORD	wordpools/wasnorm_wordpool_576.txt	LTP362	ltpFR2	7	20	LEADER	807	n/a	n/a	0	0	0
4091446	DISTRACTOR	n/a	LTP362	ltpFR2	7	21	n/a	n/a	n/a	n/a	0	0	0
4091446	START	n/a	LTP362	ltpFR2	7	n/a	n/a	n/a	31	n/a	n/a	n/a	n/a
4091462	PROB	n/a	LTP362	ltpFR2	7	n/a	n/a	n/a	31	15	8	4	3
4093678	PROB	n/a	LTP362	ltpFR2	7	n/a	n/a	n/a	31	9	3	4	2
4095944	PROB	n/a	LTP362	ltpFR2	7	n/a	n/a	n/a	31	17	5	6	6
4097476	PROB	n/a	LTP362	ltpFR2	7	n/a	n/a	n/a	31	14	3	2	9
4099292	PROB	n/a	LTP362	ltpFR2	7	n/a	n/a	n/a	31	14	9	4	1
4100458	PROB	n/a	LTP362	ltpFR2	7	n/a	n/a	n/a	31	18	7	9	2
4102424	PROB	n/a	LTP362	ltpFR2	7	n/a	n/a	n/a	31	15	5	2	8
4103724	PROB	n/a	LTP362	ltpFR2	7	n/a	n/a	n/a	31	19	7	3	9
4105006	PROB	n/a	LTP362	ltpFR2	7	n/a	n/a	n/a	31	21	5	7	9
4109604	PROB	n/a	LTP362	ltpFR2	7	n/a	n/a	n/a	31	7	1	3	3
4111204	PROB	n/a	LTP362	ltpFR2	7	n/a	n/a	n/a	31	10	3	4	3
4112470	PROB	n/a	LTP362	ltpFR2	7	n/a	n/a	n/a	31	20	8	8	4
4114244	STOP	n/a	LTP362	ltpFR2	7	n/a	n/a	n/a	31	n/a	n/a	n/a	n/a
4116268	WORD	wordpools/wasnorm_wordpool_576.txt	LTP362	ltpFR2	7	21	PISTON	1076	n/a	n/a	0	0	0
4118767	WORD	wordpools/wasnorm_wordpool_576.txt	LTP362	ltpFR2	7	21	NAPKIN	937	n/a	n/a	0	0	0
4121499	WORD	wordpools/wasnorm_wordpool_576.txt	LTP362	ltpFR2	7	21	YOLK	1633	n/a	n/a	0	0	0
4123948	WORD	wordpools/wasnorm_wordpool_576.txt	LTP362	ltpFR2	7	21	TURKEY	1520	n/a	n/a	0	0	0
4126463	WORD	wordpools/wasnorm_wordpool_576.txt	LTP362	ltpFR2	7	21	COOK	372	n/a	n/a	0	0	0
4129212	WORD	wordpools/wasnorm_wordpool_576.txt	LTP362	ltpFR2	7	21	DAUGHTER	442	n/a	n/a	0	0	0
4131678	WORD	wordpools/wasnorm_wordpool_576.txt	LTP362	ltpFR2	7	21	CRICKET	408	n/a	n/a	0	0	0
4134126	WORD	wordpools/wasnorm_wordpool_576.txt	LTP362	ltpFR2	7	21	TILE	1468	n/a	n/a	0	0	0
4136692	WORD	wordpools/wasnorm_wordpool_576.txt	LTP362	ltpFR2	7	21	MOP	916	n/a	n/a	0	0	0
4139274	WORD	wordpools/wasnorm_wordpool_576.txt	LTP362	ltpFR2	7	21	WARDROBE	1587	n/a	n/a	0	0	0
4141840	WORD	wordpools/wasnorm_wordpool_576.txt	LTP362	ltpFR2	7	21	COUNTRY	388	n/a	n/a	0	0	0
4144505	WORD	wordpools/wasnorm_wordpool_576.txt	LTP362	ltpFR2	7	21	AWARD	63	n/a	n/a	0	0	0
4147154	WORD	wordpools/wasnorm_wordpool_576.txt	LTP362	ltpFR2	7	21	SUNRISE	1407	n/a	n/a	0	0	0
4149819	WORD	wordpools/wasnorm_wordpool_576.txt	LTP362	ltpFR2	7	21	CHAPEL	280	n/a	n/a	0	0	0
4152502	WORD	wordpools/wasnorm_wordpool_576.txt	LTP362	ltpFR2	7	21	CHURCH	307	n/a	n/a	0	0	0
4154967	WORD	wordpools/wasnorm_wordpool_576.txt	LTP362	ltpFR2	7	21	BOARD	143	n/a	n/a	0	0	0
4157583	WORD	wordpools/wasnorm_wordpool_576.txt	LTP362	ltpFR2	7	21	BALLOON	75	n/a	n/a	0	0	0
4160098	WORD	wordpools/wasnorm_wordpool_576.txt	LTP362	ltpFR2	7	21	COUNTY	389	n/a	n/a	0	0	0
4162863	WORD	wordpools/wasnorm_wordpool_576.txt	LTP362	ltpFR2	7	21	HAMPER	682	n/a	n/a	0	0	0
4165596	WORD	wordpools/wasnorm_wordpool_576.txt	LTP362	ltpFR2	7	21	HERO	706	n/a	n/a	0	0	0
4168328	WORD	wordpools/wasnorm_wordpool_576.txt	LTP362	ltpFR2	7	21	CORAL	378	n/a	n/a	0	0	0
4170910	WORD	wordpools/wasnorm_wordpool_576.txt	LTP362	ltpFR2	7	21	WITNESS	1618	n/a	n/a	0	0	0
4173559	WORD	wordpools/wasnorm_wordpool_576.txt	LTP362	ltpFR2	7	21	PIGMENT	1066	n/a	n/a	0	0	0
4176358	WORD	wordpools/wasnorm_wordpool_576.txt	LTP362	ltpFR2	7	21	PIZZA	1079	n/a	n/a	0	0	0
4177974	START	n/a	LTP362	ltpFR2	7	n/a	n/a	n/a	32	n/a	n/a	n/a	n/a
4178978	DISTRACTOR	n/a	LTP362	ltpFR2	7	21	n/a	n/a	n/a	n/a	0	0	0
4178989	PROB	n/a	LTP362	ltpFR2	7	n/a	n/a	n/a	32	10	1	7	2
4180555	PROB	n/a	LTP362	ltpFR2	7	n/a	n/a	n/a	32	15	7	1	7
4181822	PROB	n/a	LTP362	ltpFR2	7	n/a	n/a	n/a	32	12	3	2	7
4183454	PROB	n/a	LTP362	ltpFR2	7	n/a	n/a	n/a	32	20	9	7	4
4185020	PROB	n/a	LTP362	ltpFR2	7	n/a	n/a	n/a	32	15	9	2	4
4187069	PROB	n/a	LTP362	ltpFR2	7	n/a	n/a	n/a	32	14	6	5	3
4189951	PROB	n/a	LTP362	ltpFR2	7	n/a	n/a	n/a	32	5	1	1	3
4191167	PROB	n/a	LTP362	ltpFR2	7	n/a	n/a	n/a	32	14	2	6	6
4193050	PROB	n/a	LTP362	ltpFR2	7	n/a	n/a	n/a	32	14	9	4	1
4195232	PROB	n/a	LTP362	ltpFR2	7	n/a	n/a	n/a	32	12	5	1	6
4196548	PROB	n/a	LTP362	ltpFR2	7	n/a	n/a	n/a	32	10	1	5	4
4197731	PROB	n/a	LTP362	ltpFR2	7	n/a	n/a	n/a	32	6	3	2	1
4199547	PROB	n/a	LTP362	ltpFR2	7	n/a	n/a	n/a	32	17	6	4	7
4201336	STOP	n/a	LTP362	ltpFR2	7	n/a	n/a	n/a	32	n/a	n/a	n/a	n/a
4203746	REC_START	n/a	LTP362	ltpFR2	7	21	n/a	n/a	n/a	n/a	0	0	0
4204488	REC_WORD	wordpools/wasnorm_wordpool_576.txt	LTP362	ltpFR2	7	21	HERO	706	n/a	n/a	0	0	0
4206052	REC_WORD	wordpools/wasnorm_wordpool_576.txt	LTP362	ltpFR2	7	21	SUNRISE	1407	n/a	n/a	0	0	0
4206919	REC_WORD	wordpools/wasnorm_wordpool_576.txt	LTP362	ltpFR2	7	21	CHAPEL	280	n/a	n/a	0	0	0
4207533	REC_WORD	wordpools/wasnorm_wordpool_576.txt	LTP362	ltpFR2	7	21	CHURCH	307	n/a	n/a	0	0	0
4208149	REC_WORD	wordpools/wasnorm_wordpool_576.txt	LTP362	ltpFR2	7	21	COUNTY	389	n/a	n/a	0	0	0
4209944	REC_WORD	wordpools/wasnorm_wordpool_576.txt	LTP362	ltpFR2	7	21	WITNESS	1618	n/a	n/a	0	0	0
4211406	REC_WORD	wordpools/wasnorm_wordpool_576.txt	LTP362	ltpFR2	7	21	DAUGHTER	442	n/a	n/a	0	0	0
4211916	REC_WORD	wordpools/wasnorm_wordpool_576.txt	LTP362	ltpFR2	7	21	COOK	372	n/a	n/a	0	0	0
4213045	REC_WORD	wordpools/wasnorm_wordpool_576.txt	LTP362	ltpFR2	7	21	TURKEY	1520	n/a	n/a	0	0	0
4213455	REC_WORD	wordpools/wasnorm_wordpool_576.txt	LTP362	ltpFR2	7	21	CRICKET	408	n/a	n/a	0	0	0
4213815	REC_WORD	wordpools/wasnorm_wordpool_576.txt	LTP362	ltpFR2	7	21	NAPKIN	937	n/a	n/a	0	0	0
4223843	REC_WORD	wordpools/wasnorm_wordpool_576.txt	LTP362	ltpFR2	7	21	CORAL	378	n/a	n/a	0	0	0
4252936	REC_WORD	wordpools/wasnorm_wordpool_576.txt	LTP362	ltpFR2	7	21	PISTON	1076	n/a	n/a	0	0	0
4294204	DISTRACTOR	n/a	LTP362	ltpFR2	7	22	n/a	n/a	n/a	n/a	0	0	0
4294204	START	n/a	LTP362	ltpFR2	7	n/a	n/a	n/a	33	n/a	n/a	n/a	n/a
4294221	PROB	n/a	LTP362	ltpFR2	7	n/a	n/a	n/a	33	14	1	8	5
4296303	PROB	n/a	LTP362	ltpFR2	7	n/a	n/a	n/a	33	9	1	5	3
4297619	PROB	n/a	LTP362	ltpFR2	7	n/a	n/a	n/a	33	16	4	5	7
4299318	PROB	n/a	LTP362	ltpFR2	7	n/a	n/a	n/a	33	17	3	6	8
4300967	PROB	n/a	LTP362	ltpFR2	7	n/a	n/a	n/a	33	17	9	2	6
4303216	PROB	n/a	LTP362	ltpFR2	7	n/a	n/a	n/a	33	14	1	7	6
4304549	PROB	n/a	LTP362	ltpFR2	7	n/a	n/a	n/a	33	14	9	1	4
4306865	PROB	n/a	LTP362	ltpFR2	7	n/a	n/a	n/a	33	12	3	8	1
4308814	PROB	n/a	LTP362	ltpFR2	7	n/a	n/a	n/a	33	18	9	8	1
4311846	PROB	n/a	LTP362	ltpFR2	7	n/a	n/a	n/a	33	21	5	7	9
4315544	PROB	n/a	LTP362	ltpFR2	7	n/a	n/a	n/a	33	22	7	8	7
4317235	STOP	n/a	LTP362	ltpFR2	7	n/a	n/a	n/a	33	n/a	n/a	n/a	n/a
4319259	WORD	wordpools/wasnorm_wordpool_576.txt	LTP362	ltpFR2	7	22	LAKE	796	n/a	n/a	0	0	0
4321841	WORD	wordpools/wasnorm_wordpool_576.txt	LTP362	ltpFR2	7	22	GROUND	666	n/a	n/a	0	0	0
4324374	WORD	wordpools/wasnorm_wordpool_576.txt	LTP362	ltpFR2	7	22	RIVER	1194	n/a	n/a	0	0	0
4327189	WORD	wordpools/wasnorm_wordpool_576.txt	LTP362	ltpFR2	7	22	TYPIST	1532	n/a	n/a	0	0	0
4329671	WORD	wordpools/wasnorm_wordpool_576.txt	LTP362	ltpFR2	7	22	MARS	873	n/a	n/a	0	0	0
4332320	WORD	wordpools/wasnorm_wordpool_576.txt	LTP362	ltpFR2	7	22	FRIEND	606	n/a	n/a	0	0	0
4335052	WORD	wordpools/wasnorm_wordpool_576.txt	LTP362	ltpFR2	7	22	STOMACH	1384	n/a	n/a	0	0	0
4337751	WORD	wordpools/wasnorm_wordpool_576.txt	LTP362	ltpFR2	7	22	BELLY	119	n/a	n/a	0	0	0
4340216	WORD	wordpools/wasnorm_wordpool_576.txt	LTP362	ltpFR2	7	22	MARKER	870	n/a	n/a	0	0	0
4342948	WORD	wordpools/wasnorm_wordpool_576.txt	LTP362	ltpFR2	7	22	TUTU	1524	n/a	n/a	0	0	0
4345464	WORD	wordpools/wasnorm_wordpool_576.txt	LTP362	ltpFR2	7	22	DIVER	476	n/a	n/a	0	0	0
4348029	WORD	wordpools/wasnorm_wordpool_576.txt	LTP362	ltpFR2	7	22	ZIPPER	1636	n/a	n/a	0	0	0
4350795	WORD	wordpools/wasnorm_wordpool_576.txt	LTP362	ltpFR2	7	22	EXPERT	543	n/a	n/a	0	0	0
4353394	WORD	wordpools/wasnorm_wordpool_576.txt	LTP362	ltpFR2	7	22	DENIM	446	n/a	n/a	0	0	0
4355893	WORD	wordpools/wasnorm_wordpool_576.txt	LTP362	ltpFR2	7	22	COSTUME	383	n/a	n/a	0	0	0
4358425	WORD	wordpools/wasnorm_wordpool_576.txt	LTP362	ltpFR2	7	22	MATTRESS	879	n/a	n/a	0	0	0
4360940	WORD	wordpools/wasnorm_wordpool_576.txt	LTP362	ltpFR2	7	22	APRON	35	n/a	n/a	0	0	0
4363622	WORD	wordpools/wasnorm_wordpool_576.txt	LTP362	ltpFR2	7	22	MARSH	874	n/a	n/a	0	0	0
4366339	WORD	wordpools/wasnorm_wordpool_576.txt	LTP362	ltpFR2	7	22	ROCKET	1202	n/a	n/a	0	0	0
4369103	WORD	wordpools/wasnorm_wordpool_576.txt	LTP362	ltpFR2	7	22	BLACKBOARD	133	n/a	n/a	0	0	0
4371552	WORD	wordpools/wasnorm_wordpool_576.txt	LTP362	ltpFR2	7	22	GRAVEL	659	n/a	n/a	0	0	0
