onset	duration	trial_type	sample	stim_file	subject	experiment	session	trial	item_name	item_num	list	answer	test_x	test_y	test_z
216.4921875	n/a	SESS_START	443376	n/a	LTP364	ltpFR2	7	n/a	n/a	n/a	n/a	n/a	0	0	0
230.65380859375	n/a	START	472379	n/a	LTP364	ltpFR2	7	n/a	n/a	n/a	-1	n/a	n/a	n/a	n/a
230.66748046875	n/a	PROB	472407	n/a	LTP364	ltpFR2	7	n/a	n/a	n/a	-1	13	7	2	4
233.30078125	n/a	PROB	477800	n/a	LTP364	ltpFR2	7	n/a	n/a	n/a	-1	23	6	9	8
237.6142578125	n/a	PROB	486634	n/a	LTP364	ltpFR2	7	n/a	n/a	n/a	-1	7	3	3	1
239.74658203125	n/a	PROB	491001	n/a	LTP364	ltpFR2	7	n/a	n/a	n/a	-1	13	5	4	4
241.6494140625	n/a	STOP	494898	n/a	LTP364	ltpFR2	7	n/a	n/a	n/a	-1	n/a	n/a	n/a	n/a
273.2314453125	n/a	DISTRACTOR	559578	n/a	LTP364	ltpFR2	7	1	n/a	n/a	n/a	n/a	0	0	0
273.2314453125	n/a	START	559578	n/a	LTP364	ltpFR2	7	n/a	n/a	n/a	1	n/a	n/a	n/a	n/a
273.24853515625	n/a	PROB	559613	n/a	LTP364	ltpFR2	7	n/a	n/a	n/a	1	25	7	9	9
276.5634765625	n/a	PROB	566402	n/a	LTP364	ltpFR2	7	n/a	n/a	n/a	1	11	6	1	4
278.29541015625	n/a	PROB	569949	n/a	LTP364	ltpFR2	7	n/a	n/a	n/a	1	26	9	8	9
281.6259765625	n/a	PROB	576770	n/a	LTP364	ltpFR2	7	n/a	n/a	n/a	1	9	3	3	3
282.7919921875	n/a	PROB	579158	n/a	LTP364	ltpFR2	7	n/a	n/a	n/a	1	9	6	2	1
284.625	n/a	PROB	582912	n/a	LTP364	ltpFR2	7	n/a	n/a	n/a	1	11	6	1	4
286.30810546875	n/a	PROB	586359	n/a	LTP364	ltpFR2	7	n/a	n/a	n/a	1	15	3	3	9
288.0908203125	n/a	PROB	590010	n/a	LTP364	ltpFR2	7	n/a	n/a	n/a	1	13	8	4	1
289.85595703125	n/a	PROB	593625	n/a	LTP364	ltpFR2	7	n/a	n/a	n/a	1	13	8	3	2
292.921875	n/a	PROB	599904	n/a	LTP364	ltpFR2	7	n/a	n/a	n/a	1	15	5	3	7
297.23046875	n/a	STOP	608728	n/a	LTP364	ltpFR2	7	n/a	n/a	n/a	1	n/a	n/a	n/a	n/a
298.08544921875	n/a	WORD	610479	wordpools/wasnorm_wordpool_576.txt	LTP364	ltpFR2	7	1	INMATE	738	n/a	n/a	0	0	0
300.86669921875	n/a	WORD	616175	wordpools/wasnorm_wordpool_576.txt	LTP364	ltpFR2	7	1	BRACES	164	n/a	n/a	0	0	0
303.66552734375	n/a	WORD	621907	wordpools/wasnorm_wordpool_576.txt	LTP364	ltpFR2	7	1	COWBOY	395	n/a	n/a	0	0	0
306.43212890625	n/a	WORD	627573	wordpools/wasnorm_wordpool_576.txt	LTP364	ltpFR2	7	1	FRIAR	605	n/a	n/a	0	0	0
309.1474609375	n/a	WORD	633134	wordpools/wasnorm_wordpool_576.txt	LTP364	ltpFR2	7	1	HANDBAG	684	n/a	n/a	0	0	0
311.71240234375	n/a	WORD	638387	wordpools/wasnorm_wordpool_576.txt	LTP364	ltpFR2	7	1	KNAPSACK	783	n/a	n/a	0	0	0
314.5283203125	n/a	WORD	644154	wordpools/wasnorm_wordpool_576.txt	LTP364	ltpFR2	7	1	BOYFRIEND	162	n/a	n/a	0	0	0
316.9931640625	n/a	WORD	649202	wordpools/wasnorm_wordpool_576.txt	LTP364	ltpFR2	7	1	TRANSPLANT	1496	n/a	n/a	0	0	0
319.77392578125	n/a	WORD	654897	wordpools/wasnorm_wordpool_576.txt	LTP364	ltpFR2	7	1	SCARF	1246	n/a	n/a	0	0	0
322.2578125	n/a	WORD	659984	wordpools/wasnorm_wordpool_576.txt	LTP364	ltpFR2	7	1	ROBBER	1197	n/a	n/a	0	0	0
324.7216796875	n/a	WORD	665030	wordpools/wasnorm_wordpool_576.txt	LTP364	ltpFR2	7	1	PEBBLE	1035	n/a	n/a	0	0	0
327.421875	n/a	WORD	670560	wordpools/wasnorm_wordpool_576.txt	LTP364	ltpFR2	7	1	STONE	1385	n/a	n/a	0	0	0
329.98779296875	n/a	WORD	675815	wordpools/wasnorm_wordpool_576.txt	LTP364	ltpFR2	7	1	SUBWAY	1400	n/a	n/a	0	0	0
332.552734375	n/a	WORD	681068	wordpools/wasnorm_wordpool_576.txt	LTP364	ltpFR2	7	1	PECAN	1036	n/a	n/a	0	0	0
335.11865234375	n/a	WORD	686323	wordpools/wasnorm_wordpool_576.txt	LTP364	ltpFR2	7	1	THIEF	1456	n/a	n/a	0	0	0
337.6826171875	n/a	WORD	691574	wordpools/wasnorm_wordpool_576.txt	LTP364	ltpFR2	7	1	TROUT	1511	n/a	n/a	0	0	0
340.365234375	n/a	WORD	697068	wordpools/wasnorm_wordpool_576.txt	LTP364	ltpFR2	7	1	COTTAGE	384	n/a	n/a	0	0	0
342.84619140625	n/a	WORD	702149	wordpools/wasnorm_wordpool_576.txt	LTP364	ltpFR2	7	1	TUNNEL	1519	n/a	n/a	0	0	0
345.6123046875	n/a	WORD	707814	wordpools/wasnorm_wordpool_576.txt	LTP364	ltpFR2	7	1	LAPEL	800	n/a	n/a	0	0	0
348.31201171875	n/a	WORD	713343	wordpools/wasnorm_wordpool_576.txt	LTP364	ltpFR2	7	1	OUTLAW	989	n/a	n/a	0	0	0
350.994140625	n/a	WORD	718836	wordpools/wasnorm_wordpool_576.txt	LTP364	ltpFR2	7	1	LIPSTICK	829	n/a	n/a	0	0	0
353.80810546875	n/a	WORD	724599	wordpools/wasnorm_wordpool_576.txt	LTP364	ltpFR2	7	1	TAXI	1438	n/a	n/a	0	0	0
356.3408203125	n/a	WORD	729786	wordpools/wasnorm_wordpool_576.txt	LTP364	ltpFR2	7	1	OFFICE	972	n/a	n/a	0	0	0
358.90673828125	n/a	WORD	735041	wordpools/wasnorm_wordpool_576.txt	LTP364	ltpFR2	7	1	RACKET	1155	n/a	n/a	0	0	0
360.5224609375	n/a	START	738350	n/a	LTP364	ltpFR2	7	n/a	n/a	n/a	2	n/a	n/a	n/a	n/a
361.57958984375	n/a	DISTRACTOR	740515	n/a	LTP364	ltpFR2	7	1	n/a	n/a	n/a	n/a	0	0	0
361.5888671875	n/a	PROB	740534	n/a	LTP364	ltpFR2	7	n/a	n/a	n/a	2	14	3	2	9
363.61962890625	n/a	PROB	744693	n/a	LTP364	ltpFR2	7	n/a	n/a	n/a	2	17	3	5	9
365.7685546875	n/a	PROB	749094	n/a	LTP364	ltpFR2	7	n/a	n/a	n/a	2	13	4	1	8
367.78466796875	n/a	PROB	753223	n/a	LTP364	ltpFR2	7	n/a	n/a	n/a	2	10	5	4	1
369.58447265625	n/a	PROB	756909	n/a	LTP364	ltpFR2	7	n/a	n/a	n/a	2	13	3	6	4
371.1845703125	n/a	PROB	760186	n/a	LTP364	ltpFR2	7	n/a	n/a	n/a	2	22	9	7	6
375.365234375	n/a	PROB	768748	n/a	LTP364	ltpFR2	7	n/a	n/a	n/a	2	6	2	1	3
376.7470703125	n/a	PROB	771578	n/a	LTP364	ltpFR2	7	n/a	n/a	n/a	2	15	4	5	6
378.54736328125	n/a	PROB	775265	n/a	LTP364	ltpFR2	7	n/a	n/a	n/a	2	16	5	5	6
380.7119140625	n/a	PROB	779698	n/a	LTP364	ltpFR2	7	n/a	n/a	n/a	2	20	9	5	6
383.13916015625	n/a	STOP	784669	n/a	LTP364	ltpFR2	7	n/a	n/a	n/a	2	n/a	n/a	n/a	n/a
386.376953125	n/a	REC_START	791300	n/a	LTP364	ltpFR2	7	1	n/a	n/a	n/a	n/a	0	0	0
388.57763671875	n/a	REC_WORD	795807	wordpools/wasnorm_wordpool_576.txt	LTP364	ltpFR2	7	1	INMATE	738	n/a	n/a	0	0	0
389.52294921875	n/a	REC_WORD	797743	wordpools/wasnorm_wordpool_576.txt	LTP364	ltpFR2	7	1	BRACES	164	n/a	n/a	0	0	0
391.69775390625	n/a	REC_WORD	802197	wordpools/wasnorm_wordpool_576.txt	LTP364	ltpFR2	7	1	COWBOY	395	n/a	n/a	0	0	0
392.728515625	n/a	REC_WORD	804308	wordpools/wasnorm_wordpool_576.txt	LTP364	ltpFR2	7	1	FRIAR	605	n/a	n/a	0	0	0
394.65478515625	n/a	REC_WORD	808253	wordpools/wasnorm_wordpool_576.txt	LTP364	ltpFR2	7	1	PURSE	1145	n/a	n/a	0	0	0
396.21044921875	n/a	REC_WORD	811439	wordpools/wasnorm_wordpool_576.txt	LTP364	ltpFR2	7	1	KNAPSACK	783	n/a	n/a	0	0	0
397.81640625	n/a	REC_WORD	814728	wordpools/wasnorm_wordpool_576.txt	LTP364	ltpFR2	7	1	BOYFRIEND	162	n/a	n/a	0	0	0
398.96533203125	n/a	REC_WORD	817081	wordpools/wasnorm_wordpool_576.txt	LTP364	ltpFR2	7	1	SCARF	1246	n/a	n/a	0	0	0
402.91748046875	n/a	REC_WORD	825175	wordpools/wasnorm_wordpool_576.txt	LTP364	ltpFR2	7	1	BURGLAR	200	n/a	n/a	0	0	0
404.6181640625	n/a	REC_WORD	828658	wordpools/wasnorm_wordpool_576.txt	LTP364	ltpFR2	7	1	PEBBLE	1035	n/a	n/a	0	0	0
405.62841796875	n/a	REC_WORD	830727	wordpools/wasnorm_wordpool_576.txt	LTP364	ltpFR2	7	1	STONE	1385	n/a	n/a	0	0	0
406.92236328125	n/a	REC_WORD	833377	wordpools/wasnorm_wordpool_576.txt	LTP364	ltpFR2	7	1	SUBWAY	1400	n/a	n/a	0	0	0
412.34228515625	n/a	REC_WORD	844477	wordpools/wasnorm_wordpool_576.txt	LTP364	ltpFR2	7	1	PECAN	1036	n/a	n/a	0	0	0
413.58203125	n/a	REC_WORD	847016	wordpools/wasnorm_wordpool_576.txt	LTP364	ltpFR2	7	1	THIEF	1456	n/a	n/a	0	0	0
415.73095703125	n/a	REC_WORD	851417	wordpools/wasnorm_wordpool_576.txt	LTP364	ltpFR2	7	1	TROUT	1511	n/a	n/a	0	0	0
417.3427734375	n/a	REC_WORD	854718	wordpools/wasnorm_wordpool_576.txt	LTP364	ltpFR2	7	1	CABIN	211	n/a	n/a	0	0	0
418.69970703125	n/a	REC_WORD	857497	wordpools/wasnorm_wordpool_576.txt	LTP364	ltpFR2	7	1	TUNNEL	1519	n/a	n/a	0	0	0
423.94482421875	n/a	REC_WORD	868239	wordpools/wasnorm_wordpool_576.txt	LTP364	ltpFR2	7	1	LAPEL	800	n/a	n/a	0	0	0
425.7685546875	n/a	REC_WORD	871974	wordpools/wasnorm_wordpool_576.txt	LTP364	ltpFR2	7	1	OFFICE	972	n/a	n/a	0	0	0
428.9658203125	n/a	REC_WORD	878522	wordpools/wasnorm_wordpool_576.txt	LTP364	ltpFR2	7	1	RACKET	1155	n/a	n/a	0	0	0
431.53173828125	n/a	REC_WORD	883777	wordpools/wasnorm_wordpool_576.txt	LTP364	ltpFR2	7	1	TAXI	1438	n/a	n/a	0	0	0
437.92431640625	n/a	REC_WORD	896869	wordpools/wasnorm_wordpool_576.txt	LTP364	ltpFR2	7	1	OUTLAW	989	n/a	n/a	0	0	0
438.9462890625	n/a	REC_WORD	898962	wordpools/wasnorm_wordpool_576.txt	LTP364	ltpFR2	7	1	LIPSTICK	829	n/a	n/a	0	0	0
476.83203125	n/a	DISTRACTOR	976552	n/a	LTP364	ltpFR2	7	2	n/a	n/a	n/a	n/a	0	0	0
476.83203125	n/a	START	976552	n/a	LTP364	ltpFR2	7	n/a	n/a	n/a	3	n/a	n/a	n/a	n/a
476.84814453125	n/a	PROB	976585	n/a	LTP364	ltpFR2	7	n/a	n/a	n/a	3	11	1	3	7
479.08203125	n/a	PROB	981160	n/a	LTP364	ltpFR2	7	n/a	n/a	n/a	3	24	9	9	6
481.546875	n/a	PROB	986208	n/a	LTP364	ltpFR2	7	n/a	n/a	n/a	3	15	4	4	7
483.6787109375	n/a	PROB	990574	n/a	LTP364	ltpFR2	7	n/a	n/a	n/a	3	18	4	9	5
486.3447265625	n/a	PROB	996034	n/a	LTP364	ltpFR2	7	n/a	n/a	n/a	3	10	4	3	3
487.892578125	n/a	PROB	999204	n/a	LTP364	ltpFR2	7	n/a	n/a	n/a	3	19	1	9	9
489.40966796875	n/a	PROB	1002311	n/a	LTP364	ltpFR2	7	n/a	n/a	n/a	3	12	1	6	5
491.42578125	n/a	PROB	1006440	n/a	LTP364	ltpFR2	7	n/a	n/a	n/a	3	14	2	6	6
493.5576171875	n/a	PROB	1010806	n/a	LTP364	ltpFR2	7	n/a	n/a	n/a	3	17	9	3	5
496.70556640625	n/a	PROB	1017253	n/a	LTP364	ltpFR2	7	n/a	n/a	n/a	3	25	9	9	7
500.83056640625	n/a	STOP	1025701	n/a	LTP364	ltpFR2	7	n/a	n/a	n/a	3	n/a	n/a	n/a	n/a
501.9375	n/a	WORD	1027968	wordpools/wasnorm_wordpool_576.txt	LTP364	ltpFR2	7	2	FIREPLACE	570	n/a	n/a	0	0	0
504.60107421875	n/a	WORD	1033423	wordpools/wasnorm_wordpool_576.txt	LTP364	ltpFR2	7	2	STALLION	1369	n/a	n/a	0	0	0
507.10107421875	n/a	WORD	1038543	wordpools/wasnorm_wordpool_576.txt	LTP364	ltpFR2	7	2	BINDER	127	n/a	n/a	0	0	0
509.64892578125	n/a	WORD	1043761	wordpools/wasnorm_wordpool_576.txt	LTP364	ltpFR2	7	2	NOTEBOOK	959	n/a	n/a	0	0	0
512.31591796875	n/a	WORD	1049223	wordpools/wasnorm_wordpool_576.txt	LTP364	ltpFR2	7	2	DRUG	501	n/a	n/a	0	0	0
515.130859375	n/a	WORD	1054988	wordpools/wasnorm_wordpool_576.txt	LTP364	ltpFR2	7	2	TABLET	1427	n/a	n/a	0	0	0
517.74609375	n/a	WORD	1060344	wordpools/wasnorm_wordpool_576.txt	LTP364	ltpFR2	7	2	FLUTE	585	n/a	n/a	0	0	0
520.56201171875	n/a	WORD	1066111	wordpools/wasnorm_wordpool_576.txt	LTP364	ltpFR2	7	2	SWAMP	1416	n/a	n/a	0	0	0
523.36083984375	n/a	WORD	1071843	wordpools/wasnorm_wordpool_576.txt	LTP364	ltpFR2	7	2	CHAMPAGNE	278	n/a	n/a	0	0	0
525.92578125	n/a	WORD	1077096	wordpools/wasnorm_wordpool_576.txt	LTP364	ltpFR2	7	2	BRAKE	166	n/a	n/a	0	0	0
528.474609375	n/a	WORD	1082316	wordpools/wasnorm_wordpool_576.txt	LTP364	ltpFR2	7	2	PADDING	999	n/a	n/a	0	0	0
530.9736328125	n/a	WORD	1087434	wordpools/wasnorm_wordpool_576.txt	LTP364	ltpFR2	7	2	VAGRANT	1544	n/a	n/a	0	0	0
533.4384765625	n/a	WORD	1092482	wordpools/wasnorm_wordpool_576.txt	LTP364	ltpFR2	7	2	BLENDER	136	n/a	n/a	0	0	0
536.0712890625	n/a	WORD	1097874	wordpools/wasnorm_wordpool_576.txt	LTP364	ltpFR2	7	2	DENIM	446	n/a	n/a	0	0	0
538.6181640625	n/a	WORD	1103090	wordpools/wasnorm_wordpool_576.txt	LTP364	ltpFR2	7	2	CLOTHES	327	n/a	n/a	0	0	0
541.30224609375	n/a	WORD	1108587	wordpools/wasnorm_wordpool_576.txt	LTP364	ltpFR2	7	2	LILY	821	n/a	n/a	0	0	0
544.13427734375	n/a	WORD	1114387	wordpools/wasnorm_wordpool_576.txt	LTP364	ltpFR2	7	2	BOUQUET	157	n/a	n/a	0	0	0
546.6982421875	n/a	WORD	1119638	wordpools/wasnorm_wordpool_576.txt	LTP364	ltpFR2	7	2	ICING	732	n/a	n/a	0	0	0
549.4150390625	n/a	WORD	1125202	wordpools/wasnorm_wordpool_576.txt	LTP364	ltpFR2	7	2	CARRIAGE	248	n/a	n/a	0	0	0
551.9130859375	n/a	WORD	1130318	wordpools/wasnorm_wordpool_576.txt	LTP364	ltpFR2	7	2	OUTFIT	988	n/a	n/a	0	0	0
554.47900390625	n/a	WORD	1135573	wordpools/wasnorm_wordpool_576.txt	LTP364	ltpFR2	7	2	LOFT	840	n/a	n/a	0	0	0
557.27783203125	n/a	WORD	1141305	wordpools/wasnorm_wordpool_576.txt	LTP364	ltpFR2	7	2	FINGER	567	n/a	n/a	0	0	0
560.009765625	n/a	WORD	1146900	wordpools/wasnorm_wordpool_576.txt	LTP364	ltpFR2	7	2	LABEL	790	n/a	n/a	0	0	0
562.59130859375	n/a	WORD	1152187	wordpools/wasnorm_wordpool_576.txt	LTP364	ltpFR2	7	2	ATLAS	53	n/a	n/a	0	0	0
564.20751953125	n/a	START	1155497	n/a	LTP364	ltpFR2	7	n/a	n/a	n/a	4	n/a	n/a	n/a	n/a
565.31640625	n/a	DISTRACTOR	1157768	n/a	LTP364	ltpFR2	7	2	n/a	n/a	n/a	n/a	0	0	0
565.3232421875	n/a	PROB	1157782	n/a	LTP364	ltpFR2	7	n/a	n/a	n/a	4	20	7	7	6
567.2724609375	n/a	PROB	1161774	n/a	LTP364	ltpFR2	7	n/a	n/a	n/a	4	14	5	8	1
569.22119140625	n/a	PROB	1165765	n/a	LTP364	ltpFR2	7	n/a	n/a	n/a	4	10	2	4	4
570.9541015625	n/a	PROB	1169314	n/a	LTP364	ltpFR2	7	n/a	n/a	n/a	4	17	3	6	8
573.3193359375	n/a	PROB	1174158	n/a	LTP364	ltpFR2	7	n/a	n/a	n/a	4	20	9	6	5
577.083984375	n/a	PROB	1181868	n/a	LTP364	ltpFR2	7	n/a	n/a	n/a	4	19	7	5	7
579.39990234375	n/a	PROB	1186611	n/a	LTP364	ltpFR2	7	n/a	n/a	n/a	4	22	9	5	8
584.28076171875	n/a	PROB	1196607	n/a	LTP364	ltpFR2	7	n/a	n/a	n/a	4	14	8	5	1
586.11376953125	n/a	PROB	1200361	n/a	LTP364	ltpFR2	7	n/a	n/a	n/a	4	13	1	7	5
587.6015625	n/a	STOP	1203408	n/a	LTP364	ltpFR2	7	n/a	n/a	n/a	4	n/a	n/a	n/a	n/a
590.12890625	n/a	REC_START	1208584	n/a	LTP364	ltpFR2	7	2	n/a	n/a	n/a	n/a	0	0	0
593.6044921875	n/a	REC_WORD	1215702	wordpools/wasnorm_wordpool_576.txt	LTP364	ltpFR2	7	2	FIREPLACE	570	n/a	n/a	0	0	0
594.96240234375	n/a	REC_WORD	1218483	wordpools/wasnorm_wordpool_576.txt	LTP364	ltpFR2	7	2	STALLION	1369	n/a	n/a	0	0	0
596.24267578125	n/a	REC_WORD	1221105	wordpools/wasnorm_wordpool_576.txt	LTP364	ltpFR2	7	2	BINDER	127	n/a	n/a	0	0	0
597.29931640625	n/a	REC_WORD	1223269	wordpools/wasnorm_wordpool_576.txt	LTP364	ltpFR2	7	2	NOTEBOOK	959	n/a	n/a	0	0	0
598.58154296875	n/a	REC_WORD	1225895	wordpools/wasnorm_wordpool_576.txt	LTP364	ltpFR2	7	2	DRUG	501	n/a	n/a	0	0	0
599.67919921875	n/a	REC_WORD	1228143	wordpools/wasnorm_wordpool_576.txt	LTP364	ltpFR2	7	2	TABLET	1427	n/a	n/a	0	0	0
601.076171875	n/a	REC_WORD	1231004	wordpools/wasnorm_wordpool_576.txt	LTP364	ltpFR2	7	2	FLUTE	585	n/a	n/a	0	0	0
603.62353515625	n/a	REC_WORD	1236221	wordpools/wasnorm_wordpool_576.txt	LTP364	ltpFR2	7	2	SWAMP	1416	n/a	n/a	0	0	0
605.330078125	n/a	REC_WORD	1239716	wordpools/wasnorm_wordpool_576.txt	LTP364	ltpFR2	7	2	CHAMPAGNE	278	n/a	n/a	0	0	0
606.791015625	n/a	REC_WORD	1242708	wordpools/wasnorm_wordpool_576.txt	LTP364	ltpFR2	7	2	BRAKE	166	n/a	n/a	0	0	0
607.97119140625	n/a	REC_WORD	1245125	wordpools/wasnorm_wordpool_576.txt	LTP364	ltpFR2	7	2	PADDING	999	n/a	n/a	0	0	0
609.14892578125	n/a	REC_WORD	1247537	wordpools/wasnorm_wordpool_576.txt	LTP364	ltpFR2	7	2	BLENDER	136	n/a	n/a	0	0	0
610.361328125	n/a	REC_WORD	1250020	wordpools/wasnorm_wordpool_576.txt	LTP364	ltpFR2	7	2	JEANS	752	n/a	n/a	0	0	0
611.501953125	n/a	REC_WORD	1252356	wordpools/wasnorm_wordpool_576.txt	LTP364	ltpFR2	7	2	CLOTHES	327	n/a	n/a	0	0	0
612.88623046875	n/a	REC_WORD	1255191	wordpools/wasnorm_wordpool_576.txt	LTP364	ltpFR2	7	2	LILY	821	n/a	n/a	0	0	0
613.841796875	n/a	REC_WORD	1257148	wordpools/wasnorm_wordpool_576.txt	LTP364	ltpFR2	7	2	BOUQUET	157	n/a	n/a	0	0	0
615.52099609375	n/a	REC_WORD	1260587	wordpools/wasnorm_wordpool_576.txt	LTP364	ltpFR2	7	2	ICING	732	n/a	n/a	0	0	0
617.15673828125	n/a	REC_WORD	1263937	wordpools/wasnorm_wordpool_576.txt	LTP364	ltpFR2	7	2	CARRIAGE	248	n/a	n/a	0	0	0
619.15673828125	n/a	REC_WORD	1268033	wordpools/wasnorm_wordpool_576.txt	LTP364	ltpFR2	7	2	LOFT	840	n/a	n/a	0	0	0
621.2646484375	n/a	REC_WORD	1272350	wordpools/wasnorm_wordpool_576.txt	LTP364	ltpFR2	7	2	FINGER	567	n/a	n/a	0	0	0
623.173828125	n/a	REC_WORD	1276260	wordpools/wasnorm_wordpool_576.txt	LTP364	ltpFR2	7	2	LABEL	790	n/a	n/a	0	0	0
624.3125	n/a	REC_WORD	1278592	wordpools/wasnorm_wordpool_576.txt	LTP364	ltpFR2	7	2	ATLAS	53	n/a	n/a	0	0	0
680.56787109375	n/a	DISTRACTOR	1393803	n/a	LTP364	ltpFR2	7	3	n/a	n/a	n/a	n/a	0	0	0
680.56787109375	n/a	START	1393803	n/a	LTP364	ltpFR2	7	n/a	n/a	n/a	5	n/a	n/a	n/a	n/a
680.583984375	n/a	PROB	1393836	n/a	LTP364	ltpFR2	7	n/a	n/a	n/a	5	9	2	4	3
684.31591796875	n/a	PROB	1401479	n/a	LTP364	ltpFR2	7	n/a	n/a	n/a	5	20	7	4	9
686.14892578125	n/a	PROB	1405233	n/a	LTP364	ltpFR2	7	n/a	n/a	n/a	5	16	7	1	8
687.89794921875	n/a	PROB	1408815	n/a	LTP364	ltpFR2	7	n/a	n/a	n/a	5	15	9	1	5
689.33056640625	n/a	PROB	1411749	n/a	LTP364	ltpFR2	7	n/a	n/a	n/a	5	21	7	7	7
690.86181640625	n/a	PROB	1414885	n/a	LTP364	ltpFR2	7	n/a	n/a	n/a	5	16	6	5	5
692.21142578125	n/a	PROB	1417649	n/a	LTP364	ltpFR2	7	n/a	n/a	n/a	5	16	7	1	8
693.810546875	n/a	PROB	1420924	n/a	LTP364	ltpFR2	7	n/a	n/a	n/a	5	18	6	3	9
695.41064453125	n/a	PROB	1424201	n/a	LTP364	ltpFR2	7	n/a	n/a	n/a	5	14	5	7	2
698.34228515625	n/a	PROB	1430205	n/a	LTP364	ltpFR2	7	n/a	n/a	n/a	5	12	1	3	8
700.64013671875	n/a	PROB	1434911	n/a	LTP364	ltpFR2	7	n/a	n/a	n/a	5	15	4	6	5
702.107421875	n/a	PROB	1437916	n/a	LTP364	ltpFR2	7	n/a	n/a	n/a	5	16	9	3	4
704.37939453125	n/a	STOP	1442569	n/a	LTP364	ltpFR2	7	n/a	n/a	n/a	5	n/a	n/a	n/a	n/a
705.7041015625	n/a	WORD	1445282	wordpools/wasnorm_wordpool_576.txt	LTP364	ltpFR2	7	3	BURGLAR	200	n/a	n/a	0	0	0
708.27099609375	n/a	WORD	1450539	wordpools/wasnorm_wordpool_576.txt	LTP364	ltpFR2	7	3	COOKBOOK	373	n/a	n/a	0	0	0
710.7021484375	n/a	WORD	1455518	wordpools/wasnorm_wordpool_576.txt	LTP364	ltpFR2	7	3	MILDEW	893	n/a	n/a	0	0	0
713.28515625	n/a	WORD	1460808	wordpools/wasnorm_wordpool_576.txt	LTP364	ltpFR2	7	3	PARSLEY	1016	n/a	n/a	0	0	0
715.9169921875	n/a	WORD	1466198	wordpools/wasnorm_wordpool_576.txt	LTP364	ltpFR2	7	3	BEAKER	104	n/a	n/a	0	0	0
718.681640625	n/a	WORD	1471860	wordpools/wasnorm_wordpool_576.txt	LTP364	ltpFR2	7	3	NECKLACE	940	n/a	n/a	0	0	0
721.48193359375	n/a	WORD	1477595	wordpools/wasnorm_wordpool_576.txt	LTP364	ltpFR2	7	3	GIRL	637	n/a	n/a	0	0	0
724.02978515625	n/a	WORD	1482813	wordpools/wasnorm_wordpool_576.txt	LTP364	ltpFR2	7	3	VALVE	1546	n/a	n/a	0	0	0
726.71044921875	n/a	WORD	1488303	wordpools/wasnorm_wordpool_576.txt	LTP364	ltpFR2	7	3	FARMER	553	n/a	n/a	0	0	0
729.39453125	n/a	WORD	1493800	wordpools/wasnorm_wordpool_576.txt	LTP364	ltpFR2	7	3	FEMALE	559	n/a	n/a	0	0	0
731.9765625	n/a	WORD	1499088	wordpools/wasnorm_wordpool_576.txt	LTP364	ltpFR2	7	3	PIGEON	1065	n/a	n/a	0	0	0
734.70751953125	n/a	WORD	1504681	wordpools/wasnorm_wordpool_576.txt	LTP364	ltpFR2	7	3	SPARROW	1347	n/a	n/a	0	0	0
737.357421875	n/a	WORD	1510108	wordpools/wasnorm_wordpool_576.txt	LTP364	ltpFR2	7	3	SISTER	1312	n/a	n/a	0	0	0
740.1552734375	n/a	WORD	1515838	wordpools/wasnorm_wordpool_576.txt	LTP364	ltpFR2	7	3	REPORT	1184	n/a	n/a	0	0	0
742.703125	n/a	WORD	1521056	wordpools/wasnorm_wordpool_576.txt	LTP364	ltpFR2	7	3	SALAD	1224	n/a	n/a	0	0	0
745.43603515625	n/a	WORD	1526653	wordpools/wasnorm_wordpool_576.txt	LTP364	ltpFR2	7	3	ELBOW	520	n/a	n/a	0	0	0
747.91796875	n/a	WORD	1531736	wordpools/wasnorm_wordpool_576.txt	LTP364	ltpFR2	7	3	GRIZZLY	662	n/a	n/a	0	0	0
750.4169921875	n/a	WORD	1536854	wordpools/wasnorm_wordpool_576.txt	LTP364	ltpFR2	7	3	LAVA	804	n/a	n/a	0	0	0
752.98291015625	n/a	WORD	1542109	wordpools/wasnorm_wordpool_576.txt	LTP364	ltpFR2	7	3	RUST	1219	n/a	n/a	0	0	0
755.431640625	n/a	WORD	1547124	wordpools/wasnorm_wordpool_576.txt	LTP364	ltpFR2	7	3	COIN	343	n/a	n/a	0	0	0
757.94677734375	n/a	WORD	1552275	wordpools/wasnorm_wordpool_576.txt	LTP364	ltpFR2	7	3	TWEEZERS	1526	n/a	n/a	0	0	0
760.5947265625	n/a	WORD	1557698	wordpools/wasnorm_wordpool_576.txt	LTP364	ltpFR2	7	3	HOSTESS	723	n/a	n/a	0	0	0
763.27734375	n/a	WORD	1563192	wordpools/wasnorm_wordpool_576.txt	LTP364	ltpFR2	7	3	SUPPER	1411	n/a	n/a	0	0	0
765.70849609375	n/a	WORD	1568171	wordpools/wasnorm_wordpool_576.txt	LTP364	ltpFR2	7	3	FLASK	576	n/a	n/a	0	0	0
767.3095703125	n/a	START	1571450	n/a	LTP364	ltpFR2	7	n/a	n/a	n/a	6	n/a	n/a	n/a	n/a
768.13720703125	n/a	DISTRACTOR	1573145	n/a	LTP364	ltpFR2	7	3	n/a	n/a	n/a	n/a	0	0	0
768.14208984375	n/a	PROB	1573155	n/a	LTP364	ltpFR2	7	n/a	n/a	n/a	6	16	9	3	4
770.8232421875	n/a	PROB	1578646	n/a	LTP364	ltpFR2	7	n/a	n/a	n/a	6	8	2	4	2
772.9560546875	n/a	PROB	1583014	n/a	LTP364	ltpFR2	7	n/a	n/a	n/a	6	9	6	2	1
774.6708984375	n/a	PROB	1586526	n/a	LTP364	ltpFR2	7	n/a	n/a	n/a	6	19	9	9	1
776.88720703125	n/a	PROB	1591065	n/a	LTP364	ltpFR2	7	n/a	n/a	n/a	6	9	2	4	3
779.0869140625	n/a	PROB	1595570	n/a	LTP364	ltpFR2	7	n/a	n/a	n/a	6	25	9	9	7
782.36865234375	n/a	PROB	1602291	n/a	LTP364	ltpFR2	7	n/a	n/a	n/a	6	14	2	8	4
783.93505859375	n/a	PROB	1605499	n/a	LTP364	ltpFR2	7	n/a	n/a	n/a	6	24	9	9	6
787.2158203125	n/a	PROB	1612218	n/a	LTP364	ltpFR2	7	n/a	n/a	n/a	6	19	8	4	7
789.3486328125	n/a	PROB	1616586	n/a	LTP364	ltpFR2	7	n/a	n/a	n/a	6	16	4	4	8
791.25048828125	n/a	STOP	1620481	n/a	LTP364	ltpFR2	7	n/a	n/a	n/a	6	n/a	n/a	n/a	n/a
793.1474609375	n/a	REC_START	1624366	n/a	LTP364	ltpFR2	7	3	n/a	n/a	n/a	n/a	0	0	0
795.70361328125	n/a	REC_WORD	1629601	wordpools/wasnorm_wordpool_576.txt	LTP364	ltpFR2	7	3	BURGLAR	200	n/a	n/a	0	0	0
801.9150390625	n/a	REC_WORD	1642322	wordpools/wasnorm_wordpool_576.txt	LTP364	ltpFR2	7	3	COOKBOOK	373	n/a	n/a	0	0	0
802.783203125	n/a	REC_WORD	1644100	wordpools/wasnorm_wordpool_576.txt	LTP364	ltpFR2	7	3	MILDEW	893	n/a	n/a	0	0	0
804.22705078125	n/a	REC_WORD	1647057	wordpools/wasnorm_wordpool_576.txt	LTP364	ltpFR2	7	3	PARSLEY	1016	n/a	n/a	0	0	0
805.1669921875	n/a	REC_WORD	1648982	wordpools/wasnorm_wordpool_576.txt	LTP364	ltpFR2	7	3	BEAKER	104	n/a	n/a	0	0	0
806.01220703125	n/a	REC_WORD	1650713	wordpools/wasnorm_wordpool_576.txt	LTP364	ltpFR2	7	3	NECKLACE	940	n/a	n/a	0	0	0
809.072265625	n/a	REC_WORD	1656980	wordpools/wasnorm_wordpool_576.txt	LTP364	ltpFR2	7	3	GIRL	637	n/a	n/a	0	0	0
814.4638671875	n/a	REC_WORD	1668022	wordpools/wasnorm_wordpool_576.txt	LTP364	ltpFR2	7	3	VALVE	1546	n/a	n/a	0	0	0
818.005859375	n/a	REC_WORD	1675276	wordpools/wasnorm_wordpool_576.txt	LTP364	ltpFR2	7	3	FARMER	553	n/a	n/a	0	0	0
821.44873046875	n/a	REC_WORD	1682327	wordpools/wasnorm_wordpool_576.txt	LTP364	ltpFR2	7	3	PIGEON	1065	n/a	n/a	0	0	0
822.0478515625	n/a	REC_WORD	1683554	wordpools/wasnorm_wordpool_576.txt	LTP364	ltpFR2	7	3	SPARROW	1347	n/a	n/a	0	0	0
822.927734375	n/a	REC_WORD	1685356	wordpools/wasnorm_wordpool_576.txt	LTP364	ltpFR2	7	3	SISTER	1312	n/a	n/a	0	0	0
824.70068359375	n/a	REC_WORD	1688987	wordpools/wasnorm_wordpool_576.txt	LTP364	ltpFR2	7	3	REPORT	1184	n/a	n/a	0	0	0
825.8857421875	n/a	REC_WORD	1691414	wordpools/wasnorm_wordpool_576.txt	LTP364	ltpFR2	7	3	SALAD	1224	n/a	n/a	0	0	0
827.681640625	n/a	REC_WORD	1695092	wordpools/wasnorm_wordpool_576.txt	LTP364	ltpFR2	7	3	ELBOW	520	n/a	n/a	0	0	0
830.04736328125	n/a	REC_WORD	1699937	wordpools/wasnorm_wordpool_576.txt	LTP364	ltpFR2	7	3	GRIZZLY	662	n/a	n/a	0	0	0
830.91943359375	n/a	REC_WORD	1701723	wordpools/wasnorm_wordpool_576.txt	LTP364	ltpFR2	7	3	LAVA	804	n/a	n/a	0	0	0
831.76318359375	n/a	REC_WORD	1703451	wordpools/wasnorm_wordpool_576.txt	LTP364	ltpFR2	7	3	RUST	1219	n/a	n/a	0	0	0
837.85400390625	n/a	REC_WORD	1715925	wordpools/wasnorm_wordpool_576.txt	LTP364	ltpFR2	7	3	PARSLEY	1016	n/a	n/a	0	0	0
838.609375	n/a	REC_WORD	1717472	wordpools/wasnorm_wordpool_576.txt	LTP364	ltpFR2	7	3	TWEEZERS	1526	n/a	n/a	0	0	0
841.51416015625	n/a	REC_WORD	1723421	wordpools/wasnorm_wordpool_576.txt	LTP364	ltpFR2	7	3	HOSTESS	723	n/a	n/a	0	0	0
846.087890625	n/a	REC_WORD	1732788	wordpools/wasnorm_wordpool_576.txt	LTP364	ltpFR2	7	3	SUPPER	1411	n/a	n/a	0	0	0
848.60400390625	n/a	REC_WORD	1737941	wordpools/wasnorm_wordpool_576.txt	LTP364	ltpFR2	7	3	FLASK	576	n/a	n/a	0	0	0
883.5849609375	n/a	DISTRACTOR	1809582	n/a	LTP364	ltpFR2	7	4	n/a	n/a	n/a	n/a	0	0	0
883.5859375	n/a	START	1809584	n/a	LTP364	ltpFR2	7	n/a	n/a	n/a	7	n/a	n/a	n/a	n/a
883.6015625	n/a	PROB	1809616	n/a	LTP364	ltpFR2	7	n/a	n/a	n/a	7	22	8	8	6
887.849609375	n/a	PROB	1818316	n/a	LTP364	ltpFR2	7	n/a	n/a	n/a	7	16	5	2	9
889.66552734375	n/a	PROB	1822035	n/a	LTP364	ltpFR2	7	n/a	n/a	n/a	7	12	2	7	3
891.66455078125	n/a	PROB	1826129	n/a	LTP364	ltpFR2	7	n/a	n/a	n/a	7	24	9	6	9
893.96435546875	n/a	PROB	1830839	n/a	LTP364	ltpFR2	7	n/a	n/a	n/a	7	15	9	4	2
896.5302734375	n/a	PROB	1836094	n/a	LTP364	ltpFR2	7	n/a	n/a	n/a	7	18	6	9	3
900.9443359375	n/a	PROB	1845134	n/a	LTP364	ltpFR2	7	n/a	n/a	n/a	7	16	7	3	6
902.46044921875	n/a	PROB	1848239	n/a	LTP364	ltpFR2	7	n/a	n/a	n/a	7	18	9	6	3
904.50927734375	n/a	PROB	1852435	n/a	LTP364	ltpFR2	7	n/a	n/a	n/a	7	16	4	6	6
906.2509765625	n/a	STOP	1856002	n/a	LTP364	ltpFR2	7	n/a	n/a	n/a	7	n/a	n/a	n/a	n/a
908.7060546875	n/a	WORD	1861030	wordpools/wasnorm_wordpool_576.txt	LTP364	ltpFR2	7	4	FRANCE	601	n/a	n/a	0	0	0
911.4228515625	n/a	WORD	1866594	wordpools/wasnorm_wordpool_576.txt	LTP364	ltpFR2	7	4	LONDON	843	n/a	n/a	0	0	0
914.10498046875	n/a	WORD	1872087	wordpools/wasnorm_wordpool_576.txt	LTP364	ltpFR2	7	4	STAKE	1368	n/a	n/a	0	0	0
916.70263671875	n/a	WORD	1877407	wordpools/wasnorm_wordpool_576.txt	LTP364	ltpFR2	7	4	GARBAGE	622	n/a	n/a	0	0	0
919.36865234375	n/a	WORD	1882867	wordpools/wasnorm_wordpool_576.txt	LTP364	ltpFR2	7	4	TOMBSTONE	1478	n/a	n/a	0	0	0
921.81640625	n/a	WORD	1887880	wordpools/wasnorm_wordpool_576.txt	LTP364	ltpFR2	7	4	SCALPEL	1243	n/a	n/a	0	0	0
924.58251953125	n/a	WORD	1893545	wordpools/wasnorm_wordpool_576.txt	LTP364	ltpFR2	7	4	PICTURE	1061	n/a	n/a	0	0	0
927.04833984375	n/a	WORD	1898595	wordpools/wasnorm_wordpool_576.txt	LTP364	ltpFR2	7	4	MAILBOX	857	n/a	n/a	0	0	0
929.6962890625	n/a	WORD	1904018	wordpools/wasnorm_wordpool_576.txt	LTP364	ltpFR2	7	4	CHAPEL	280	n/a	n/a	0	0	0
932.412109375	n/a	WORD	1909580	wordpools/wasnorm_wordpool_576.txt	LTP364	ltpFR2	7	4	POLICE	1098	n/a	n/a	0	0	0
935.17822265625	n/a	WORD	1915245	wordpools/wasnorm_wordpool_576.txt	LTP364	ltpFR2	7	4	BARREL	91	n/a	n/a	0	0	0
937.67626953125	n/a	WORD	1920361	wordpools/wasnorm_wordpool_576.txt	LTP364	ltpFR2	7	4	PACKAGE	997	n/a	n/a	0	0	0
940.2919921875	n/a	WORD	1925718	wordpools/wasnorm_wordpool_576.txt	LTP364	ltpFR2	7	4	SMOG	1330	n/a	n/a	0	0	0
942.89111328125	n/a	WORD	1931041	wordpools/wasnorm_wordpool_576.txt	LTP364	ltpFR2	7	4	SLOPE	1328	n/a	n/a	0	0	0
945.48974609375	n/a	WORD	1936363	wordpools/wasnorm_wordpool_576.txt	LTP364	ltpFR2	7	4	CRUTCH	417	n/a	n/a	0	0	0
948.10498046875	n/a	WORD	1941719	wordpools/wasnorm_wordpool_576.txt	LTP364	ltpFR2	7	4	WRENCH	1625	n/a	n/a	0	0	0
950.8359375	n/a	WORD	1947312	wordpools/wasnorm_wordpool_576.txt	LTP364	ltpFR2	7	4	IDOL	733	n/a	n/a	0	0	0
953.50244140625	n/a	WORD	1952773	wordpools/wasnorm_wordpool_576.txt	LTP364	ltpFR2	7	4	PEPPER	1047	n/a	n/a	0	0	0
955.9345703125	n/a	WORD	1957754	wordpools/wasnorm_wordpool_576.txt	LTP364	ltpFR2	7	4	CANYON	235	n/a	n/a	0	0	0
958.36669921875	n/a	WORD	1962735	wordpools/wasnorm_wordpool_576.txt	LTP364	ltpFR2	7	4	BEAST	108	n/a	n/a	0	0	0
961.16552734375	n/a	WORD	1968467	wordpools/wasnorm_wordpool_576.txt	LTP364	ltpFR2	7	4	OX	994	n/a	n/a	0	0	0
963.98046875	n/a	WORD	1974232	wordpools/wasnorm_wordpool_576.txt	LTP364	ltpFR2	7	4	CANDY	230	n/a	n/a	0	0	0
966.46337890625	n/a	WORD	1979317	wordpools/wasnorm_wordpool_576.txt	LTP364	ltpFR2	7	4	POWDER	1117	n/a	n/a	0	0	0
968.97802734375	n/a	WORD	1984467	wordpools/wasnorm_wordpool_576.txt	LTP364	ltpFR2	7	4	BUGGY	188	n/a	n/a	0	0	0
970.59326171875	n/a	START	1987775	n/a	LTP364	ltpFR2	7	n/a	n/a	n/a	8	n/a	n/a	n/a	n/a
971.4091796875	n/a	DISTRACTOR	1989446	n/a	LTP364	ltpFR2	7	4	n/a	n/a	n/a	n/a	0	0	0
971.42724609375	n/a	PROB	1989483	n/a	LTP364	ltpFR2	7	n/a	n/a	n/a	8	12	3	4	5
974.85791015625	n/a	PROB	1996509	n/a	LTP364	ltpFR2	7	n/a	n/a	n/a	8	7	2	4	1
976.77392578125	n/a	PROB	2000433	n/a	LTP364	ltpFR2	7	n/a	n/a	n/a	8	6	4	1	1
979.40673828125	n/a	PROB	2005825	n/a	LTP364	ltpFR2	7	n/a	n/a	n/a	8	14	3	4	7
981.27294921875	n/a	PROB	2009647	n/a	LTP364	ltpFR2	7	n/a	n/a	n/a	8	13	6	6	1
983.07177734375	n/a	PROB	2013331	n/a	LTP364	ltpFR2	7	n/a	n/a	n/a	8	17	5	6	6
985.23681640625	n/a	PROB	2017765	n/a	LTP364	ltpFR2	7	n/a	n/a	n/a	8	1	4	5	4
987.36962890625	n/a	PROB	2022133	n/a	LTP364	ltpFR2	7	n/a	n/a	n/a	8	14	6	1	7
990.234375	n/a	PROB	2028000	n/a	LTP364	ltpFR2	7	n/a	n/a	n/a	8	18	9	3	6
994.59228515625	n/a	STOP	2036925	n/a	LTP364	ltpFR2	7	n/a	n/a	n/a	8	n/a	n/a	n/a	n/a
996.49853515625	n/a	REC_START	2040829	n/a	LTP364	ltpFR2	7	4	n/a	n/a	n/a	n/a	0	0	0
1008.44482421875	n/a	REC_WORD	2065295	wordpools/wasnorm_wordpool_576.txt	LTP364	ltpFR2	7	4	FRANCE	601	n/a	n/a	0	0	0
1009.421875	n/a	REC_WORD	2067296	wordpools/wasnorm_wordpool_576.txt	LTP364	ltpFR2	7	4	LONDON	843	n/a	n/a	0	0	0
1010.3310546875	n/a	REC_WORD	2069158	wordpools/wasnorm_wordpool_576.txt	LTP364	ltpFR2	7	4	STAKE	1368	n/a	n/a	0	0	0
1011.7880859375	n/a	REC_WORD	2072142	wordpools/wasnorm_wordpool_576.txt	LTP364	ltpFR2	7	4	GARBAGE	622	n/a	n/a	0	0	0
1015.6767578125	n/a	REC_WORD	2080106	wordpools/wasnorm_wordpool_576.txt	LTP364	ltpFR2	7	4	TOMBSTONE	1478	n/a	n/a	0	0	0
1016.66552734375	n/a	REC_WORD	2082131	wordpools/wasnorm_wordpool_576.txt	LTP364	ltpFR2	7	4	SCALPEL	1243	n/a	n/a	0	0	0
1019.478515625	n/a	REC_WORD	2087892	wordpools/wasnorm_wordpool_576.txt	LTP364	ltpFR2	7	4	PICTURE	1061	n/a	n/a	0	0	0
1024.5625	n/a	REC_WORD	2098304	wordpools/wasnorm_wordpool_576.txt	LTP364	ltpFR2	7	4	MAILBOX	857	n/a	n/a	0	0	0
1036.6953125	n/a	REC_WORD	2123152	wordpools/wasnorm_wordpool_576.txt	LTP364	ltpFR2	7	4	CHAPEL	280	n/a	n/a	0	0	0
1040.59814453125	n/a	REC_WORD	2131145	wordpools/wasnorm_wordpool_576.txt	LTP364	ltpFR2	7	4	POLICE	1098	n/a	n/a	0	0	0
1042.20703125	n/a	REC_WORD	2134440	wordpools/wasnorm_wordpool_576.txt	LTP364	ltpFR2	7	4	PACKAGE	997	n/a	n/a	0	0	0
1044.2060546875	n/a	REC_WORD	2138534	wordpools/wasnorm_wordpool_576.txt	LTP364	ltpFR2	7	4	BARREL	91	n/a	n/a	0	0	0
1046.8818359375	n/a	REC_WORD	2144014	wordpools/wasnorm_wordpool_576.txt	LTP364	ltpFR2	7	4	SMOG	1330	n/a	n/a	0	0	0
1051.19775390625	n/a	REC_WORD	2152853	wordpools/wasnorm_wordpool_576.txt	LTP364	ltpFR2	7	4	CRUTCH	417	n/a	n/a	0	0	0
1059.2373046875	n/a	REC_WORD	2169318	wordpools/wasnorm_wordpool_576.txt	LTP364	ltpFR2	7	4	WRENCH	1625	n/a	n/a	0	0	0
1063.685546875	n/a	REC_WORD	2178428	wordpools/wasnorm_wordpool_576.txt	LTP364	ltpFR2	7	4	PEPPER	1047	n/a	n/a	0	0	0
1066.34619140625	n/a	REC_WORD	2183877	wordpools/wasnorm_wordpool_576.txt	LTP364	ltpFR2	7	4	CANYON	235	n/a	n/a	0	0	0
1067.6943359375	n/a	REC_WORD	2186638	wordpools/wasnorm_wordpool_576.txt	LTP364	ltpFR2	7	4	MONSTER	912	n/a	n/a	0	0	0
1068.81201171875	n/a	REC_WORD	2188927	wordpools/wasnorm_wordpool_576.txt	LTP364	ltpFR2	7	4	OX	994	n/a	n/a	0	0	0
1069.92822265625	n/a	REC_WORD	2191213	wordpools/wasnorm_wordpool_576.txt	LTP364	ltpFR2	7	4	BUGGY	188	n/a	n/a	0	0	0
1086.9716796875	n/a	WORD	2226118	wordpools/wasnorm_wordpool_576.txt	LTP364	ltpFR2	7	5	STAPLE	1371	n/a	n/a	0	0	0
1089.470703125	n/a	WORD	2231236	wordpools/wasnorm_wordpool_576.txt	LTP364	ltpFR2	7	5	BUBBLE	183	n/a	n/a	0	0	0
1092.1025390625	n/a	WORD	2236626	wordpools/wasnorm_wordpool_576.txt	LTP364	ltpFR2	7	5	WRIST	1626	n/a	n/a	0	0	0
1094.6005859375	n/a	WORD	2241742	wordpools/wasnorm_wordpool_576.txt	LTP364	ltpFR2	7	5	LUMBER	848	n/a	n/a	0	0	0
1097.2333984375	n/a	WORD	2247134	wordpools/wasnorm_wordpool_576.txt	LTP364	ltpFR2	7	5	FOREST	593	n/a	n/a	0	0	0
1099.84716796875	n/a	WORD	2252487	wordpools/wasnorm_wordpool_576.txt	LTP364	ltpFR2	7	5	SKIRT	1319	n/a	n/a	0	0	0
1102.34716796875	n/a	WORD	2257607	wordpools/wasnorm_wordpool_576.txt	LTP364	ltpFR2	7	5	SHORTS	1293	n/a	n/a	0	0	0
1104.97900390625	n/a	WORD	2262997	wordpools/wasnorm_wordpool_576.txt	LTP364	ltpFR2	7	5	TILE	1468	n/a	n/a	0	0	0
1107.77685546875	n/a	WORD	2268727	wordpools/wasnorm_wordpool_576.txt	LTP364	ltpFR2	7	5	BRICK	172	n/a	n/a	0	0	0
1110.29296875	n/a	WORD	2273880	wordpools/wasnorm_wordpool_576.txt	LTP364	ltpFR2	7	5	CLIMBER	323	n/a	n/a	0	0	0
1112.82470703125	n/a	WORD	2279065	wordpools/wasnorm_wordpool_576.txt	LTP364	ltpFR2	7	5	CONTRACT	368	n/a	n/a	0	0	0
1115.3408203125	n/a	WORD	2284218	wordpools/wasnorm_wordpool_576.txt	LTP364	ltpFR2	7	5	GLOVE	642	n/a	n/a	0	0	0
1118.08984375	n/a	WORD	2289848	wordpools/wasnorm_wordpool_576.txt	LTP364	ltpFR2	7	5	DUST	508	n/a	n/a	0	0	0
1120.78759765625	n/a	WORD	2295373	wordpools/wasnorm_wordpool_576.txt	LTP364	ltpFR2	7	5	SPONGE	1355	n/a	n/a	0	0	0
1123.220703125	n/a	WORD	2300356	wordpools/wasnorm_wordpool_576.txt	LTP364	ltpFR2	7	5	MARKER	870	n/a	n/a	0	0	0
1125.96923828125	n/a	WORD	2305985	wordpools/wasnorm_wordpool_576.txt	LTP364	ltpFR2	7	5	BUG	187	n/a	n/a	0	0	0
1128.451171875	n/a	WORD	2311068	wordpools/wasnorm_wordpool_576.txt	LTP364	ltpFR2	7	5	FOOT	590	n/a	n/a	0	0	0
1130.91650390625	n/a	WORD	2316117	wordpools/wasnorm_wordpool_576.txt	LTP364	ltpFR2	7	5	LAMP	798	n/a	n/a	0	0	0
1133.482421875	n/a	WORD	2321372	wordpools/wasnorm_wordpool_576.txt	LTP364	ltpFR2	7	5	BALLOON	75	n/a	n/a	0	0	0
1136.1142578125	n/a	WORD	2326762	wordpools/wasnorm_wordpool_576.txt	LTP364	ltpFR2	7	5	HIKER	708	n/a	n/a	0	0	0
1138.64501953125	n/a	WORD	2331945	wordpools/wasnorm_wordpool_576.txt	LTP364	ltpFR2	7	5	SEAFOOD	1260	n/a	n/a	0	0	0
1141.22802734375	n/a	WORD	2337235	wordpools/wasnorm_wordpool_576.txt	LTP364	ltpFR2	7	5	FRAGRANCE	599	n/a	n/a	0	0	0
1143.67578125	n/a	WORD	2342248	wordpools/wasnorm_wordpool_576.txt	LTP364	ltpFR2	7	5	COSTUME	383	n/a	n/a	0	0	0
1146.49267578125	n/a	WORD	2348017	wordpools/wasnorm_wordpool_576.txt	LTP364	ltpFR2	7	5	FLESH	579	n/a	n/a	0	0	0
1148.10888671875	n/a	START	2351327	n/a	LTP364	ltpFR2	7	n/a	n/a	n/a	9	n/a	n/a	n/a	n/a
1148.94091796875	n/a	DISTRACTOR	2353031	n/a	LTP364	ltpFR2	7	5	n/a	n/a	n/a	n/a	0	0	0
1148.95751953125	n/a	PROB	2353065	n/a	LTP364	ltpFR2	7	n/a	n/a	n/a	9	11	1	7	3
1152.2724609375	n/a	PROB	2359854	n/a	LTP364	ltpFR2	7	n/a	n/a	n/a	9	16	9	6	1
1154.00537109375	n/a	PROB	2363403	n/a	LTP364	ltpFR2	7	n/a	n/a	n/a	9	18	6	6	5
1156.603515625	n/a	PROB	2368724	n/a	LTP364	ltpFR2	7	n/a	n/a	n/a	9	13	1	7	7
1159.1533203125	n/a	PROB	2373946	n/a	LTP364	ltpFR2	7	n/a	n/a	n/a	9	17	4	9	4
1163.83349609375	n/a	PROB	2383531	n/a	LTP364	ltpFR2	7	n/a	n/a	n/a	9	8	1	1	6
1165.13330078125	n/a	PROB	2386193	n/a	LTP364	ltpFR2	7	n/a	n/a	n/a	9	20	5	8	7
1167.8642578125	n/a	PROB	2391786	n/a	LTP364	ltpFR2	7	n/a	n/a	n/a	9	8	5	1	2
1169.64697265625	n/a	PROB	2395437	n/a	LTP364	ltpFR2	7	n/a	n/a	n/a	9	13	3	1	9
1171.60986328125	n/a	STOP	2399457	n/a	LTP364	ltpFR2	7	n/a	n/a	n/a	9	n/a	n/a	n/a	n/a
1174.02978515625	n/a	REC_START	2404413	n/a	LTP364	ltpFR2	7	5	n/a	n/a	n/a	n/a	0	0	0
1177.421875	n/a	REC_WORD_VV	2411360	wordpools/wasnorm_wordpool_576.txt	LTP364	ltpFR2	7	5	<>	-1	n/a	n/a	0	0	0
1178.421875	n/a	REC_WORD_VV	2413408	wordpools/wasnorm_wordpool_576.txt	LTP364	ltpFR2	7	5	<>	-1	n/a	n/a	0	0	0
1180.470703125	n/a	REC_WORD_VV	2417604	wordpools/wasnorm_wordpool_576.txt	LTP364	ltpFR2	7	5	<>	-1	n/a	n/a	0	0	0
1198.35546875	n/a	REC_WORD	2454232	wordpools/wasnorm_wordpool_576.txt	LTP364	ltpFR2	7	5	BUBBLE	183	n/a	n/a	0	0	0
1199.0400390625	n/a	REC_WORD	2455634	wordpools/wasnorm_wordpool_576.txt	LTP364	ltpFR2	7	5	WRIST	1626	n/a	n/a	0	0	0
1200.18408203125	n/a	REC_WORD	2457977	wordpools/wasnorm_wordpool_576.txt	LTP364	ltpFR2	7	5	LUMBER	848	n/a	n/a	0	0	0
1201.08935546875	n/a	REC_WORD	2459831	wordpools/wasnorm_wordpool_576.txt	LTP364	ltpFR2	7	5	FOREST	593	n/a	n/a	0	0	0
1202.55908203125	n/a	REC_WORD	2462841	wordpools/wasnorm_wordpool_576.txt	LTP364	ltpFR2	7	5	SKIRT	1319	n/a	n/a	0	0	0
1203.326171875	n/a	REC_WORD	2464412	wordpools/wasnorm_wordpool_576.txt	LTP364	ltpFR2	7	5	SHORTS	1293	n/a	n/a	0	0	0
1204.1708984375	n/a	REC_WORD	2466142	wordpools/wasnorm_wordpool_576.txt	LTP364	ltpFR2	7	5	TILE	1468	n/a	n/a	0	0	0
1205.0009765625	n/a	REC_WORD	2467842	wordpools/wasnorm_wordpool_576.txt	LTP364	ltpFR2	7	5	BRICK	172	n/a	n/a	0	0	0
1206.583984375	n/a	REC_WORD	2471084	wordpools/wasnorm_wordpool_576.txt	LTP364	ltpFR2	7	5	CLIMBER	323	n/a	n/a	0	0	0
1211.0908203125	n/a	REC_WORD	2480314	wordpools/wasnorm_wordpool_576.txt	LTP364	ltpFR2	7	5	CONTRACT	368	n/a	n/a	0	0	0
1211.880859375	n/a	REC_WORD	2481932	wordpools/wasnorm_wordpool_576.txt	LTP364	ltpFR2	7	5	GLOVE	642	n/a	n/a	0	0	0
1212.61279296875	n/a	REC_WORD	2483431	wordpools/wasnorm_wordpool_576.txt	LTP364	ltpFR2	7	5	DUST	508	n/a	n/a	0	0	0
1214.95263671875	n/a	REC_WORD	2488223	wordpools/wasnorm_wordpool_576.txt	LTP364	ltpFR2	7	5	FOOT	590	n/a	n/a	0	0	0
1215.8779296875	n/a	REC_WORD	2490118	wordpools/wasnorm_wordpool_576.txt	LTP364	ltpFR2	7	5	BUG	187	n/a	n/a	0	0	0
1218.40966796875	n/a	REC_WORD	2495303	wordpools/wasnorm_wordpool_576.txt	LTP364	ltpFR2	7	5	LAMP	798	n/a	n/a	0	0	0
1219.015625	n/a	REC_WORD	2496544	wordpools/wasnorm_wordpool_576.txt	LTP364	ltpFR2	7	5	BALLOON	75	n/a	n/a	0	0	0
1220.17333984375	n/a	REC_WORD	2498915	wordpools/wasnorm_wordpool_576.txt	LTP364	ltpFR2	7	5	HIKER	708	n/a	n/a	0	0	0
1220.90673828125	n/a	REC_WORD	2500417	wordpools/wasnorm_wordpool_576.txt	LTP364	ltpFR2	7	5	SEAFOOD	1260	n/a	n/a	0	0	0
1221.6943359375	n/a	REC_WORD	2502030	wordpools/wasnorm_wordpool_576.txt	LTP364	ltpFR2	7	5	COSTUME	383	n/a	n/a	0	0	0
1224.0712890625	n/a	REC_WORD	2506898	wordpools/wasnorm_wordpool_576.txt	LTP364	ltpFR2	7	5	FRAGRANCE	599	n/a	n/a	0	0	0
1238.0390625	n/a	REC_WORD	2535504	wordpools/wasnorm_wordpool_576.txt	LTP364	ltpFR2	7	5	FLESH	579	n/a	n/a	0	0	0
1264.46923828125	n/a	WORD	2589633	wordpools/wasnorm_wordpool_576.txt	LTP364	ltpFR2	7	6	PIGMENT	1066	n/a	n/a	0	0	0
1266.9169921875	n/a	WORD	2594646	wordpools/wasnorm_wordpool_576.txt	LTP364	ltpFR2	7	6	CABBAGE	210	n/a	n/a	0	0	0
1269.68212890625	n/a	WORD	2600309	wordpools/wasnorm_wordpool_576.txt	LTP364	ltpFR2	7	6	DRESS	495	n/a	n/a	0	0	0
1272.26513671875	n/a	WORD	2605599	wordpools/wasnorm_wordpool_576.txt	LTP364	ltpFR2	7	6	PRINCE	1124	n/a	n/a	0	0	0
1274.94677734375	n/a	WORD	2611091	wordpools/wasnorm_wordpool_576.txt	LTP364	ltpFR2	7	6	TRACTOR	1493	n/a	n/a	0	0	0
1277.49560546875	n/a	WORD	2616311	wordpools/wasnorm_wordpool_576.txt	LTP364	ltpFR2	7	6	DASHBOARD	441	n/a	n/a	0	0	0
1280.044921875	n/a	WORD	2621532	wordpools/wasnorm_wordpool_576.txt	LTP364	ltpFR2	7	6	ARM	38	n/a	n/a	0	0	0
1282.69287109375	n/a	WORD	2626955	wordpools/wasnorm_wordpool_576.txt	LTP364	ltpFR2	7	6	POPCORN	1104	n/a	n/a	0	0	0
1285.24169921875	n/a	WORD	2632175	wordpools/wasnorm_wordpool_576.txt	LTP364	ltpFR2	7	6	POET	1095	n/a	n/a	0	0	0
1288.00732421875	n/a	WORD	2637839	wordpools/wasnorm_wordpool_576.txt	LTP364	ltpFR2	7	6	THRONE	1461	n/a	n/a	0	0	0
1290.6884765625	n/a	WORD	2643330	wordpools/wasnorm_wordpool_576.txt	LTP364	ltpFR2	7	6	PEDAL	1037	n/a	n/a	0	0	0
1293.22119140625	n/a	WORD	2648517	wordpools/wasnorm_wordpool_576.txt	LTP364	ltpFR2	7	6	SOFTBALL	1343	n/a	n/a	0	0	0
1295.80224609375	n/a	WORD	2653803	wordpools/wasnorm_wordpool_576.txt	LTP364	ltpFR2	7	6	FOOTBALL	591	n/a	n/a	0	0	0
1298.60107421875	n/a	WORD	2659535	wordpools/wasnorm_wordpool_576.txt	LTP364	ltpFR2	7	6	SUNRISE	1407	n/a	n/a	0	0	0
1301.10107421875	n/a	WORD	2664655	wordpools/wasnorm_wordpool_576.txt	LTP364	ltpFR2	7	6	DOLPHIN	483	n/a	n/a	0	0	0
1303.916015625	n/a	WORD	2670420	wordpools/wasnorm_wordpool_576.txt	LTP364	ltpFR2	7	6	PALACE	1006	n/a	n/a	0	0	0
1306.46484375	n/a	WORD	2675640	wordpools/wasnorm_wordpool_576.txt	LTP364	ltpFR2	7	6	JELLO	754	n/a	n/a	0	0	0
1309.130859375	n/a	WORD	2681100	wordpools/wasnorm_wordpool_576.txt	LTP364	ltpFR2	7	6	CUSTARD	429	n/a	n/a	0	0	0
1311.86181640625	n/a	WORD	2686693	wordpools/wasnorm_wordpool_576.txt	LTP364	ltpFR2	7	6	ROBOT	1200	n/a	n/a	0	0	0
1314.3779296875	n/a	WORD	2691846	wordpools/wasnorm_wordpool_576.txt	LTP364	ltpFR2	7	6	PEANUT	1032	n/a	n/a	0	0	0
1316.8583984375	n/a	WORD	2696926	wordpools/wasnorm_wordpool_576.txt	LTP364	ltpFR2	7	6	SALMON	1227	n/a	n/a	0	0	0
1319.32568359375	n/a	WORD	2701979	wordpools/wasnorm_wordpool_576.txt	LTP364	ltpFR2	7	6	VELVET	1555	n/a	n/a	0	0	0
1321.8564453125	n/a	WORD	2707162	wordpools/wasnorm_wordpool_576.txt	LTP364	ltpFR2	7	6	LEG	809	n/a	n/a	0	0	0
1324.63818359375	n/a	WORD	2712859	wordpools/wasnorm_wordpool_576.txt	LTP364	ltpFR2	7	6	SHELF	1280	n/a	n/a	0	0	0
1326.25634765625	n/a	START	2716173	n/a	LTP364	ltpFR2	7	n/a	n/a	n/a	10	n/a	n/a	n/a	n/a
1327.25048828125	n/a	DISTRACTOR	2718209	n/a	LTP364	ltpFR2	7	6	n/a	n/a	n/a	n/a	0	0	0
1327.25537109375	n/a	PROB	2718219	n/a	LTP364	ltpFR2	7	n/a	n/a	n/a	10	19	6	5	8
1330.68603515625	n/a	PROB	2725245	n/a	LTP364	ltpFR2	7	n/a	n/a	n/a	10	18	6	6	6
1332.13623046875	n/a	PROB	2728215	n/a	LTP364	ltpFR2	7	n/a	n/a	n/a	10	16	5	5	6
1333.5693359375	n/a	PROB	2731150	n/a	LTP364	ltpFR2	7	n/a	n/a	n/a	10	18	3	7	8
1335.0849609375	n/a	PROB	2734254	n/a	LTP364	ltpFR2	7	n/a	n/a	n/a	10	16	4	9	3
1337.39990234375	n/a	PROB	2738995	n/a	LTP364	ltpFR2	7	n/a	n/a	n/a	10	14	8	3	3
1339.2158203125	n/a	PROB	2742714	n/a	LTP364	ltpFR2	7	n/a	n/a	n/a	10	19	9	6	4
1341.06494140625	n/a	PROB	2746501	n/a	LTP364	ltpFR2	7	n/a	n/a	n/a	10	11	2	5	4
1344.11376953125	n/a	PROB	2752745	n/a	LTP364	ltpFR2	7	n/a	n/a	n/a	10	7	1	4	2
1345.76171875	n/a	PROB	2756120	n/a	LTP364	ltpFR2	7	n/a	n/a	n/a	10	7	1	2	4
1347.6279296875	n/a	PROB	2759942	n/a	LTP364	ltpFR2	7	n/a	n/a	n/a	10	25	8	8	9
1349.60986328125	n/a	STOP	2764001	n/a	LTP364	ltpFR2	7	n/a	n/a	n/a	10	n/a	n/a	n/a	n/a
1352.02734375	n/a	REC_START	2768952	n/a	LTP364	ltpFR2	7	6	n/a	n/a	n/a	n/a	0	0	0
1379.73779296875	n/a	REC_WORD	2825703	wordpools/wasnorm_wordpool_576.txt	LTP364	ltpFR2	7	6	CRAYON	401	n/a	n/a	0	0	0
1380.48779296875	n/a	REC_WORD	2827239	wordpools/wasnorm_wordpool_576.txt	LTP364	ltpFR2	7	6	DOLPHIN	483	n/a	n/a	0	0	0
1381.3955078125	n/a	REC_WORD	2829098	wordpools/wasnorm_wordpool_576.txt	LTP364	ltpFR2	7	6	SUNRISE	1407	n/a	n/a	0	0	0
1383.40478515625	n/a	REC_WORD	2833213	wordpools/wasnorm_wordpool_576.txt	LTP364	ltpFR2	7	6	FOOTBALL	591	n/a	n/a	0	0	0
1384.0517578125	n/a	REC_WORD	2834538	wordpools/wasnorm_wordpool_576.txt	LTP364	ltpFR2	7	6	SOFTBALL	1343	n/a	n/a	0	0	0
1385.71142578125	n/a	REC_WORD	2837937	wordpools/wasnorm_wordpool_576.txt	LTP364	ltpFR2	7	6	DASHBOARD	441	n/a	n/a	0	0	0
1388.357421875	n/a	REC_WORD	2843356	wordpools/wasnorm_wordpool_576.txt	LTP364	ltpFR2	7	6	PRINCE	1124	n/a	n/a	0	0	0
1390.25146484375	n/a	REC_WORD	2847235	wordpools/wasnorm_wordpool_576.txt	LTP364	ltpFR2	7	6	PALACE	1006	n/a	n/a	0	0	0
1390.87158203125	n/a	REC_WORD	2848505	wordpools/wasnorm_wordpool_576.txt	LTP364	ltpFR2	7	6	JELLO	754	n/a	n/a	0	0	0
1391.494140625	n/a	REC_WORD	2849780	wordpools/wasnorm_wordpool_576.txt	LTP364	ltpFR2	7	6	CUSTARD	429	n/a	n/a	0	0	0
1392.29931640625	n/a	REC_WORD	2851429	wordpools/wasnorm_wordpool_576.txt	LTP364	ltpFR2	7	6	SALMON	1227	n/a	n/a	0	0	0
1393.443359375	n/a	REC_WORD	2853772	wordpools/wasnorm_wordpool_576.txt	LTP364	ltpFR2	7	6	VELVET	1555	n/a	n/a	0	0	0
1394.689453125	n/a	REC_WORD	2856324	wordpools/wasnorm_wordpool_576.txt	LTP364	ltpFR2	7	6	ROBOT	1200	n/a	n/a	0	0	0
1395.50732421875	n/a	REC_WORD	2857999	wordpools/wasnorm_wordpool_576.txt	LTP364	ltpFR2	7	6	PEANUT	1032	n/a	n/a	0	0	0
1397.2900390625	n/a	REC_WORD	2861650	wordpools/wasnorm_wordpool_576.txt	LTP364	ltpFR2	7	6	LEG	809	n/a	n/a	0	0	0
1420.58056640625	n/a	REC_WORD	2909349	wordpools/wasnorm_wordpool_576.txt	LTP364	ltpFR2	7	6	POET	1095	n/a	n/a	0	0	0
1442.44970703125	n/a	DISTRACTOR	2954137	n/a	LTP364	ltpFR2	7	7	n/a	n/a	n/a	n/a	0	0	0
1442.44970703125	n/a	START	2954137	n/a	LTP364	ltpFR2	7	n/a	n/a	n/a	11	n/a	n/a	n/a	n/a
1442.4658203125	n/a	PROB	2954170	n/a	LTP364	ltpFR2	7	n/a	n/a	n/a	11	13	7	5	1
1446.6796875	n/a	PROB	2962800	n/a	LTP364	ltpFR2	7	n/a	n/a	n/a	11	13	1	9	3
1448.52978515625	n/a	PROB	2966589	n/a	LTP364	ltpFR2	7	n/a	n/a	n/a	11	14	6	7	1
1451.04541015625	n/a	PROB	2971741	n/a	LTP364	ltpFR2	7	n/a	n/a	n/a	11	10	3	2	5
1452.57666015625	n/a	PROB	2974877	n/a	LTP364	ltpFR2	7	n/a	n/a	n/a	11	12	7	2	3
1455.01025390625	n/a	PROB	2979861	n/a	LTP364	ltpFR2	7	n/a	n/a	n/a	11	19	6	7	6
1457.392578125	n/a	PROB	2984740	n/a	LTP364	ltpFR2	7	n/a	n/a	n/a	11	17	9	1	7
1459.87451171875	n/a	PROB	2989823	n/a	LTP364	ltpFR2	7	n/a	n/a	n/a	11	17	4	8	5
1466.4482421875	n/a	STOP	3003286	n/a	LTP364	ltpFR2	7	n/a	n/a	n/a	11	n/a	n/a	n/a	n/a
1467.50390625	n/a	WORD	3005448	wordpools/wasnorm_wordpool_576.txt	LTP364	ltpFR2	7	7	BISON	131	n/a	n/a	0	0	0
1470.203125	n/a	WORD	3010976	wordpools/wasnorm_wordpool_576.txt	LTP364	ltpFR2	7	7	CRAB	397	n/a	n/a	0	0	0
1472.95068359375	n/a	WORD	3016603	wordpools/wasnorm_wordpool_576.txt	LTP364	ltpFR2	7	7	POSSUM	1112	n/a	n/a	0	0	0
1475.73291015625	n/a	WORD	3022301	wordpools/wasnorm_wordpool_576.txt	LTP364	ltpFR2	7	7	HORSE	719	n/a	n/a	0	0	0
1478.23193359375	n/a	WORD	3027419	wordpools/wasnorm_wordpool_576.txt	LTP364	ltpFR2	7	7	ZEBRA	1635	n/a	n/a	0	0	0
1480.82958984375	n/a	WORD	3032739	wordpools/wasnorm_wordpool_576.txt	LTP364	ltpFR2	7	7	COMET	353	n/a	n/a	0	0	0
1483.595703125	n/a	WORD	3038404	wordpools/wasnorm_wordpool_576.txt	LTP364	ltpFR2	7	7	MARROW	872	n/a	n/a	0	0	0
1486.21142578125	n/a	WORD	3043761	wordpools/wasnorm_wordpool_576.txt	LTP364	ltpFR2	7	7	PLASTER	1085	n/a	n/a	0	0	0
1488.91064453125	n/a	WORD	3049289	wordpools/wasnorm_wordpool_576.txt	LTP364	ltpFR2	7	7	HAND	683	n/a	n/a	0	0	0
1491.4091796875	n/a	WORD	3054406	wordpools/wasnorm_wordpool_576.txt	LTP364	ltpFR2	7	7	PLIERS	1089	n/a	n/a	0	0	0
1493.95849609375	n/a	WORD	3059627	wordpools/wasnorm_wordpool_576.txt	LTP364	ltpFR2	7	7	GARDEN	623	n/a	n/a	0	0	0
1496.60498046875	n/a	WORD	3065047	wordpools/wasnorm_wordpool_576.txt	LTP364	ltpFR2	7	7	CLAMP	316	n/a	n/a	0	0	0
1499.18896484375	n/a	WORD	3070339	wordpools/wasnorm_wordpool_576.txt	LTP364	ltpFR2	7	7	ROBIN	1199	n/a	n/a	0	0	0
1501.72021484375	n/a	WORD	3075523	wordpools/wasnorm_wordpool_576.txt	LTP364	ltpFR2	7	7	ORCHID	982	n/a	n/a	0	0	0
1504.35302734375	n/a	WORD	3080915	wordpools/wasnorm_wordpool_576.txt	LTP364	ltpFR2	7	7	PAPER	1011	n/a	n/a	0	0	0
1506.884765625	n/a	WORD	3086100	wordpools/wasnorm_wordpool_576.txt	LTP364	ltpFR2	7	7	PUPIL	1143	n/a	n/a	0	0	0
1509.4169921875	n/a	WORD	3091286	wordpools/wasnorm_wordpool_576.txt	LTP364	ltpFR2	7	7	POCKET	1093	n/a	n/a	0	0	0
1512.1328125	n/a	WORD	3096848	wordpools/wasnorm_wordpool_576.txt	LTP364	ltpFR2	7	7	BRANDY	169	n/a	n/a	0	0	0
1514.86376953125	n/a	WORD	3102441	wordpools/wasnorm_wordpool_576.txt	LTP364	ltpFR2	7	7	YOLK	1633	n/a	n/a	0	0	0
1517.57861328125	n/a	WORD	3108001	wordpools/wasnorm_wordpool_576.txt	LTP364	ltpFR2	7	7	COD	340	n/a	n/a	0	0	0
1520.3115234375	n/a	WORD	3113598	wordpools/wasnorm_wordpool_576.txt	LTP364	ltpFR2	7	7	TOASTER	1472	n/a	n/a	0	0	0
1522.826171875	n/a	WORD	3118748	wordpools/wasnorm_wordpool_576.txt	LTP364	ltpFR2	7	7	APRON	35	n/a	n/a	0	0	0
1525.658203125	n/a	WORD	3124548	wordpools/wasnorm_wordpool_576.txt	LTP364	ltpFR2	7	7	STATUE	1374	n/a	n/a	0	0	0
1528.34130859375	n/a	WORD	3130043	wordpools/wasnorm_wordpool_576.txt	LTP364	ltpFR2	7	7	SCALLOP	1242	n/a	n/a	0	0	0
1529.95703125	n/a	START	3133352	n/a	LTP364	ltpFR2	7	n/a	n/a	n/a	12	n/a	n/a	n/a	n/a
1531.041015625	n/a	DISTRACTOR	3135572	n/a	LTP364	ltpFR2	7	7	n/a	n/a	n/a	n/a	0	0	0
1531.05615234375	n/a	PROB	3135603	n/a	LTP364	ltpFR2	7	n/a	n/a	n/a	12	9	4	1	4
1534.3720703125	n/a	PROB	3142394	n/a	LTP364	ltpFR2	7	n/a	n/a	n/a	12	9	2	5	2
1536.81982421875	n/a	PROB	3147407	n/a	LTP364	ltpFR2	7	n/a	n/a	n/a	12	19	9	2	8
1539.93603515625	n/a	PROB	3153789	n/a	LTP364	ltpFR2	7	n/a	n/a	n/a	12	19	8	3	8
1541.95068359375	n/a	PROB	3157915	n/a	LTP364	ltpFR2	7	n/a	n/a	n/a	12	24	9	9	6
1545.1826171875	n/a	PROB	3164534	n/a	LTP364	ltpFR2	7	n/a	n/a	n/a	12	21	9	4	8
1549.763671875	n/a	PROB	3173916	n/a	LTP364	ltpFR2	7	n/a	n/a	n/a	12	19	1	9	9
1551.6455078125	n/a	PROB	3177770	n/a	LTP364	ltpFR2	7	n/a	n/a	n/a	12	19	8	7	4
1553.443359375	n/a	STOP	3181452	n/a	LTP364	ltpFR2	7	n/a	n/a	n/a	12	n/a	n/a	n/a	n/a
1555.9111328125	n/a	REC_START	3186506	n/a	LTP364	ltpFR2	7	7	n/a	n/a	n/a	n/a	0	0	0
1565.755859375	n/a	REC_WORD	3206668	wordpools/wasnorm_wordpool_576.txt	LTP364	ltpFR2	7	7	BISON	131	n/a	n/a	0	0	0
1575.70068359375	n/a	REC_WORD	3227035	wordpools/wasnorm_wordpool_576.txt	LTP364	ltpFR2	7	7	SPARROW	1347	n/a	n/a	0	0	0
1578.95068359375	n/a	REC_WORD	3233691	wordpools/wasnorm_wordpool_576.txt	LTP364	ltpFR2	7	7	POSSUM	1112	n/a	n/a	0	0	0
1580.42578125	n/a	REC_WORD	3236712	wordpools/wasnorm_wordpool_576.txt	LTP364	ltpFR2	7	7	HORSE	719	n/a	n/a	0	0	0
1581.677734375	n/a	REC_WORD	3239276	wordpools/wasnorm_wordpool_576.txt	LTP364	ltpFR2	7	7	ZEBRA	1635	n/a	n/a	0	0	0
1582.6484375	n/a	REC_WORD	3241264	wordpools/wasnorm_wordpool_576.txt	LTP364	ltpFR2	7	7	COMET	353	n/a	n/a	0	0	0
1583.49365234375	n/a	REC_WORD	3242995	wordpools/wasnorm_wordpool_576.txt	LTP364	ltpFR2	7	7	PLASTER	1085	n/a	n/a	0	0	0
1585.83447265625	n/a	REC_WORD	3247789	wordpools/wasnorm_wordpool_576.txt	LTP364	ltpFR2	7	7	HAND	683	n/a	n/a	0	0	0
1587.02734375	n/a	REC_WORD	3250232	wordpools/wasnorm_wordpool_576.txt	LTP364	ltpFR2	7	7	PLIERS	1089	n/a	n/a	0	0	0
1589.62744140625	n/a	REC_WORD	3255557	wordpools/wasnorm_wordpool_576.txt	LTP364	ltpFR2	7	7	ORCHID	982	n/a	n/a	0	0	0
1591.994140625	n/a	REC_WORD	3260404	wordpools/wasnorm_wordpool_576.txt	LTP364	ltpFR2	7	7	ROBIN	1199	n/a	n/a	0	0	0
1597.27490234375	n/a	REC_WORD	3271219	wordpools/wasnorm_wordpool_576.txt	LTP364	ltpFR2	7	7	APRON	35	n/a	n/a	0	0	0
1598.98095703125	n/a	REC_WORD	3274713	wordpools/wasnorm_wordpool_576.txt	LTP364	ltpFR2	7	7	POCKET	1093	n/a	n/a	0	0	0
1600.01708984375	n/a	REC_WORD	3276835	wordpools/wasnorm_wordpool_576.txt	LTP364	ltpFR2	7	7	BRANDY	169	n/a	n/a	0	0	0
1601.216796875	n/a	REC_WORD	3279292	wordpools/wasnorm_wordpool_576.txt	LTP364	ltpFR2	7	7	YOLK	1633	n/a	n/a	0	0	0
1603.2919921875	n/a	REC_WORD	3283542	wordpools/wasnorm_wordpool_576.txt	LTP364	ltpFR2	7	7	COD	340	n/a	n/a	0	0	0
1604.123046875	n/a	REC_WORD	3285244	wordpools/wasnorm_wordpool_576.txt	LTP364	ltpFR2	7	7	TOASTER	1472	n/a	n/a	0	0	0
1608.53466796875	n/a	REC_WORD	3294279	wordpools/wasnorm_wordpool_576.txt	LTP364	ltpFR2	7	7	GARDEN	623	n/a	n/a	0	0	0
1620.04736328125	n/a	REC_WORD	3317857	wordpools/wasnorm_wordpool_576.txt	LTP364	ltpFR2	7	7	PAPER	1011	n/a	n/a	0	0	0
1646.31787109375	n/a	DISTRACTOR	3371659	n/a	LTP364	ltpFR2	7	8	n/a	n/a	n/a	n/a	0	0	0
1646.31787109375	n/a	START	3371659	n/a	LTP364	ltpFR2	7	n/a	n/a	n/a	13	n/a	n/a	n/a	n/a
1646.33447265625	n/a	PROB	3371693	n/a	LTP364	ltpFR2	7	n/a	n/a	n/a	13	10	2	3	5
1649.16650390625	n/a	PROB	3377493	n/a	LTP364	ltpFR2	7	n/a	n/a	n/a	13	17	7	6	4
1651.03125	n/a	PROB	3381312	n/a	LTP364	ltpFR2	7	n/a	n/a	n/a	13	20	7	7	6
1654.1474609375	n/a	PROB	3387694	n/a	LTP364	ltpFR2	7	n/a	n/a	n/a	13	13	3	2	8
1655.91357421875	n/a	PROB	3391311	n/a	LTP364	ltpFR2	7	n/a	n/a	n/a	13	13	8	4	1
1657.4453125	n/a	PROB	3394448	n/a	LTP364	ltpFR2	7	n/a	n/a	n/a	13	7	2	1	4
1659.42822265625	n/a	PROB	3398509	n/a	LTP364	ltpFR2	7	n/a	n/a	n/a	13	17	7	4	6
1661.27734375	n/a	PROB	3402296	n/a	LTP364	ltpFR2	7	n/a	n/a	n/a	13	16	7	1	8
1663.27587890625	n/a	PROB	3406389	n/a	LTP364	ltpFR2	7	n/a	n/a	n/a	13	9	4	4	1
1665.0419921875	n/a	PROB	3410006	n/a	LTP364	ltpFR2	7	n/a	n/a	n/a	13	15	2	8	5
1670.31689453125	n/a	STOP	3420809	n/a	LTP364	ltpFR2	7	n/a	n/a	n/a	13	n/a	n/a	n/a	n/a
1671.3388671875	n/a	WORD	3422902	wordpools/wasnorm_wordpool_576.txt	LTP364	ltpFR2	7	8	PILOT	1070	n/a	n/a	0	0	0
1673.9208984375	n/a	WORD	3428190	wordpools/wasnorm_wordpool_576.txt	LTP364	ltpFR2	7	8	HEDGE	699	n/a	n/a	0	0	0
1676.36962890625	n/a	WORD	3433205	wordpools/wasnorm_wordpool_576.txt	LTP364	ltpFR2	7	8	SPOOL	1356	n/a	n/a	0	0	0
1678.86865234375	n/a	WORD	3438323	wordpools/wasnorm_wordpool_576.txt	LTP364	ltpFR2	7	8	YARN	1631	n/a	n/a	0	0	0
1681.3173828125	n/a	WORD	3443338	wordpools/wasnorm_wordpool_576.txt	LTP364	ltpFR2	7	8	PLAYGROUND	1087	n/a	n/a	0	0	0
1684.11572265625	n/a	WORD	3449069	wordpools/wasnorm_wordpool_576.txt	LTP364	ltpFR2	7	8	KITCHEN	778	n/a	n/a	0	0	0
1686.58056640625	n/a	WORD	3454117	wordpools/wasnorm_wordpool_576.txt	LTP364	ltpFR2	7	8	COLONEL	348	n/a	n/a	0	0	0
1689.2802734375	n/a	WORD	3459646	wordpools/wasnorm_wordpool_576.txt	LTP364	ltpFR2	7	8	STAMP	1370	n/a	n/a	0	0	0
1691.87939453125	n/a	WORD	3464969	wordpools/wasnorm_wordpool_576.txt	LTP364	ltpFR2	7	8	BARLEY	88	n/a	n/a	0	0	0
1694.4111328125	n/a	WORD	3470154	wordpools/wasnorm_wordpool_576.txt	LTP364	ltpFR2	7	8	SLUG	1329	n/a	n/a	0	0	0
1697.14306640625	n/a	WORD	3475749	wordpools/wasnorm_wordpool_576.txt	LTP364	ltpFR2	7	8	GYMNAST	675	n/a	n/a	0	0	0
1699.9248046875	n/a	WORD	3481446	wordpools/wasnorm_wordpool_576.txt	LTP364	ltpFR2	7	8	WARDROBE	1587	n/a	n/a	0	0	0
1702.57275390625	n/a	WORD	3486869	wordpools/wasnorm_wordpool_576.txt	LTP364	ltpFR2	7	8	SURVEY	1414	n/a	n/a	0	0	0
1705.0390625	n/a	WORD	3491920	wordpools/wasnorm_wordpool_576.txt	LTP364	ltpFR2	7	8	KEEPER	769	n/a	n/a	0	0	0
1707.5048828125	n/a	WORD	3496970	wordpools/wasnorm_wordpool_576.txt	LTP364	ltpFR2	7	8	DOUGHNUT	490	n/a	n/a	0	0	0
1710.06982421875	n/a	WORD	3502223	wordpools/wasnorm_wordpool_576.txt	LTP364	ltpFR2	7	8	MAILMAN	858	n/a	n/a	0	0	0
1712.8857421875	n/a	WORD	3507990	wordpools/wasnorm_wordpool_576.txt	LTP364	ltpFR2	7	8	PROTON	1132	n/a	n/a	0	0	0
1715.69970703125	n/a	WORD	3513753	wordpools/wasnorm_wordpool_576.txt	LTP364	ltpFR2	7	8	BLADE	134	n/a	n/a	0	0	0
1718.19921875	n/a	WORD	3518872	wordpools/wasnorm_wordpool_576.txt	LTP364	ltpFR2	7	8	BUTCHER	203	n/a	n/a	0	0	0
1720.86328125	n/a	WORD	3524328	wordpools/wasnorm_wordpool_576.txt	LTP364	ltpFR2	7	8	DIME	466	n/a	n/a	0	0	0
1723.54736328125	n/a	WORD	3529825	wordpools/wasnorm_wordpool_576.txt	LTP364	ltpFR2	7	8	TOURIST	1488	n/a	n/a	0	0	0
1725.97900390625	n/a	WORD	3534805	wordpools/wasnorm_wordpool_576.txt	LTP364	ltpFR2	7	8	SHOVEL	1295	n/a	n/a	0	0	0
1728.67724609375	n/a	WORD	3540331	wordpools/wasnorm_wordpool_576.txt	LTP364	ltpFR2	7	8	AIRPORT	13	n/a	n/a	0	0	0
1731.41015625	n/a	WORD	3545928	wordpools/wasnorm_wordpool_576.txt	LTP364	ltpFR2	7	8	SALT	1229	n/a	n/a	0	0	0
1733.02587890625	n/a	START	3549237	n/a	LTP364	ltpFR2	7	n/a	n/a	n/a	14	n/a	n/a	n/a	n/a
1734.0341796875	n/a	DISTRACTOR	3551302	n/a	LTP364	ltpFR2	7	8	n/a	n/a	n/a	n/a	0	0	0
1734.0419921875	n/a	PROB	3551318	n/a	LTP364	ltpFR2	7	n/a	n/a	n/a	14	19	9	8	2
1736.0908203125	n/a	PROB	3555514	n/a	LTP364	ltpFR2	7	n/a	n/a	n/a	14	24	6	9	7
1741.48876953125	n/a	PROB	3566569	n/a	LTP364	ltpFR2	7	n/a	n/a	n/a	14	14	9	1	4
1743.63671875	n/a	PROB	3570968	n/a	LTP364	ltpFR2	7	n/a	n/a	n/a	14	22	6	7	7
1747.8173828125	n/a	PROB	3579530	n/a	LTP364	ltpFR2	7	n/a	n/a	n/a	14	16	7	6	3
1750.16748046875	n/a	PROB	3584343	n/a	LTP364	ltpFR2	7	n/a	n/a	n/a	14	18	7	2	9
1751.74853515625	n/a	PROB	3587581	n/a	LTP364	ltpFR2	7	n/a	n/a	n/a	14	13	4	7	2
1753.63134765625	n/a	PROB	3591437	n/a	LTP364	ltpFR2	7	n/a	n/a	n/a	14	23	6	8	9
1756.275390625	n/a	STOP	3596852	n/a	LTP364	ltpFR2	7	n/a	n/a	n/a	14	n/a	n/a	n/a	n/a
1758.9130859375	n/a	REC_START	3602254	n/a	LTP364	ltpFR2	7	8	n/a	n/a	n/a	n/a	0	0	0
1761.1982421875	n/a	REC_WORD	3606934	wordpools/wasnorm_wordpool_576.txt	LTP364	ltpFR2	7	8	PILOT	1070	n/a	n/a	0	0	0
1763.56787109375	n/a	REC_WORD	3611787	wordpools/wasnorm_wordpool_576.txt	LTP364	ltpFR2	7	8	AIRPORT	13	n/a	n/a	0	0	0
1764.34423828125	n/a	REC_WORD	3613377	wordpools/wasnorm_wordpool_576.txt	LTP364	ltpFR2	7	8	BLADE	134	n/a	n/a	0	0	0
1768.0458984375	n/a	REC_WORD	3620958	wordpools/wasnorm_wordpool_576.txt	LTP364	ltpFR2	7	8	KITCHEN	778	n/a	n/a	0	0	0
1769.07666015625	n/a	REC_WORD	3623069	wordpools/wasnorm_wordpool_576.txt	LTP364	ltpFR2	7	8	COLONEL	348	n/a	n/a	0	0	0
1771.5849609375	n/a	REC_WORD	3628206	wordpools/wasnorm_wordpool_576.txt	LTP364	ltpFR2	7	8	PLAYGROUND	1087	n/a	n/a	0	0	0
1773.43798828125	n/a	REC_WORD	3632001	wordpools/wasnorm_wordpool_576.txt	LTP364	ltpFR2	7	8	STAMP	1370	n/a	n/a	0	0	0
1774.2216796875	n/a	REC_WORD	3633606	wordpools/wasnorm_wordpool_576.txt	LTP364	ltpFR2	7	8	BARLEY	88	n/a	n/a	0	0	0
1774.8505859375	n/a	REC_WORD	3634894	wordpools/wasnorm_wordpool_576.txt	LTP364	ltpFR2	7	8	SLUG	1329	n/a	n/a	0	0	0
1779.74267578125	n/a	REC_WORD	3644913	wordpools/wasnorm_wordpool_576.txt	LTP364	ltpFR2	7	8	MAILMAN	858	n/a	n/a	0	0	0
1780.49267578125	n/a	REC_WORD	3646449	wordpools/wasnorm_wordpool_576.txt	LTP364	ltpFR2	7	8	DOUGHNUT	490	n/a	n/a	0	0	0
1831.248046875	n/a	REC_WORD	3750396	wordpools/wasnorm_wordpool_576.txt	LTP364	ltpFR2	7	8	SPOOL	1356	n/a	n/a	0	0	0
1833.22900390625	n/a	REC_WORD	3754453	wordpools/wasnorm_wordpool_576.txt	LTP364	ltpFR2	7	8	YARN	1631	n/a	n/a	0	0	0
1835.44287109375	n/a	REST_REWET	3758987	n/a	LTP364	ltpFR2	7	8	n/a	n/a	n/a	n/a	0	0	0
2058.96826171875	n/a	DISTRACTOR	4216767	n/a	LTP364	ltpFR2	7	9	n/a	n/a	n/a	n/a	0	0	0
2058.96826171875	n/a	START	4216767	n/a	LTP364	ltpFR2	7	n/a	n/a	n/a	15	n/a	n/a	n/a	n/a
2058.98486328125	n/a	PROB	4216801	n/a	LTP364	ltpFR2	7	n/a	n/a	n/a	15	13	1	5	7
2061.84912109375	n/a	PROB	4222667	n/a	LTP364	ltpFR2	7	n/a	n/a	n/a	15	20	9	3	8
2064.28173828125	n/a	PROB	4227649	n/a	LTP364	ltpFR2	7	n/a	n/a	n/a	15	20	8	7	5
2068.22998046875	n/a	PROB	4235735	n/a	LTP364	ltpFR2	7	n/a	n/a	n/a	15	15	4	7	2
2071.677734375	n/a	PROB	4242796	n/a	LTP364	ltpFR2	7	n/a	n/a	n/a	15	18	5	7	6
2078.45849609375	n/a	PROB	4256683	n/a	LTP364	ltpFR2	7	n/a	n/a	n/a	15	12	1	9	2
2082.96728515625	n/a	STOP	4265917	n/a	LTP364	ltpFR2	7	n/a	n/a	n/a	15	n/a	n/a	n/a	n/a
2084.03955078125	n/a	WORD	4268113	wordpools/wasnorm_wordpool_576.txt	LTP364	ltpFR2	7	9	LADDER	793	n/a	n/a	0	0	0
2086.5380859375	n/a	WORD	4273230	wordpools/wasnorm_wordpool_576.txt	LTP364	ltpFR2	7	9	MISSILE	900	n/a	n/a	0	0	0
2089.287109375	n/a	WORD	4278860	wordpools/wasnorm_wordpool_576.txt	LTP364	ltpFR2	7	9	CASHIER	254	n/a	n/a	0	0	0
2091.80126953125	n/a	WORD	4284009	wordpools/wasnorm_wordpool_576.txt	LTP364	ltpFR2	7	9	PERFUME	1049	n/a	n/a	0	0	0
2094.451171875	n/a	WORD	4289436	wordpools/wasnorm_wordpool_576.txt	LTP364	ltpFR2	7	9	STICKER	1382	n/a	n/a	0	0	0
2096.8828125	n/a	WORD	4294416	wordpools/wasnorm_wordpool_576.txt	LTP364	ltpFR2	7	9	VICTIM	1562	n/a	n/a	0	0	0
2099.6640625	n/a	WORD	4300112	wordpools/wasnorm_wordpool_576.txt	LTP364	ltpFR2	7	9	BREAST	171	n/a	n/a	0	0	0
2102.39697265625	n/a	WORD	4305709	wordpools/wasnorm_wordpool_576.txt	LTP364	ltpFR2	7	9	PASTA	1021	n/a	n/a	0	0	0
2105.12890625	n/a	WORD	4311304	wordpools/wasnorm_wordpool_576.txt	LTP364	ltpFR2	7	9	PUDDLE	1140	n/a	n/a	0	0	0
2107.927734375	n/a	WORD	4317036	wordpools/wasnorm_wordpool_576.txt	LTP364	ltpFR2	7	9	MAMMAL	861	n/a	n/a	0	0	0
2110.45947265625	n/a	WORD	4322221	wordpools/wasnorm_wordpool_576.txt	LTP364	ltpFR2	7	9	FLIPPER	580	n/a	n/a	0	0	0
2112.94140625	n/a	WORD	4327304	wordpools/wasnorm_wordpool_576.txt	LTP364	ltpFR2	7	9	PARENT	1013	n/a	n/a	0	0	0
2115.58935546875	n/a	WORD	4332727	wordpools/wasnorm_wordpool_576.txt	LTP364	ltpFR2	7	9	SWIMMER	1420	n/a	n/a	0	0	0
2118.30615234375	n/a	WORD	4338291	wordpools/wasnorm_wordpool_576.txt	LTP364	ltpFR2	7	9	DANDRUFF	439	n/a	n/a	0	0	0
2120.77001953125	n/a	WORD	4343337	wordpools/wasnorm_wordpool_576.txt	LTP364	ltpFR2	7	9	NEUTRON	947	n/a	n/a	0	0	0
2123.30419921875	n/a	WORD	4348527	wordpools/wasnorm_wordpool_576.txt	LTP364	ltpFR2	7	9	SCULPTURE	1258	n/a	n/a	0	0	0
2125.9189453125	n/a	WORD	4353882	wordpools/wasnorm_wordpool_576.txt	LTP364	ltpFR2	7	9	DINER	467	n/a	n/a	0	0	0
2128.56689453125	n/a	WORD	4359305	wordpools/wasnorm_wordpool_576.txt	LTP364	ltpFR2	7	9	SAUSAGE	1238	n/a	n/a	0	0	0
2131.31689453125	n/a	WORD	4364937	wordpools/wasnorm_wordpool_576.txt	LTP364	ltpFR2	7	9	RIFLE	1192	n/a	n/a	0	0	0
2134.06494140625	n/a	WORD	4370565	wordpools/wasnorm_wordpool_576.txt	LTP364	ltpFR2	7	9	HOOK	715	n/a	n/a	0	0	0
2136.69580078125	n/a	WORD	4375953	wordpools/wasnorm_wordpool_576.txt	LTP364	ltpFR2	7	9	KLEENEX	782	n/a	n/a	0	0	0
2139.212890625	n/a	WORD	4381108	wordpools/wasnorm_wordpool_576.txt	LTP364	ltpFR2	7	9	WHISKERS	1605	n/a	n/a	0	0	0
2141.87744140625	n/a	WORD	4386565	wordpools/wasnorm_wordpool_576.txt	LTP364	ltpFR2	7	9	MOTOR	922	n/a	n/a	0	0	0
2144.42626953125	n/a	WORD	4391785	wordpools/wasnorm_wordpool_576.txt	LTP364	ltpFR2	7	9	CHAUFFEUR	283	n/a	n/a	0	0	0
2146.04248046875	n/a	START	4395095	n/a	LTP364	ltpFR2	7	n/a	n/a	n/a	16	n/a	n/a	n/a	n/a
2146.93359375	n/a	DISTRACTOR	4396920	n/a	LTP364	ltpFR2	7	9	n/a	n/a	n/a	n/a	0	0	0
2146.9423828125	n/a	PROB	4396938	n/a	LTP364	ltpFR2	7	n/a	n/a	n/a	16	15	1	5	9
2151.107421875	n/a	PROB	4405468	n/a	LTP364	ltpFR2	7	n/a	n/a	n/a	16	13	2	9	2
2152.83837890625	n/a	PROB	4409013	n/a	LTP364	ltpFR2	7	n/a	n/a	n/a	16	15	5	1	9
2155.00537109375	n/a	PROB	4413451	n/a	LTP364	ltpFR2	7	n/a	n/a	n/a	16	7	1	1	5
2156.6201171875	n/a	PROB	4416758	n/a	LTP364	ltpFR2	7	n/a	n/a	n/a	16	8	4	2	2
2158.71923828125	n/a	PROB	4421057	n/a	LTP364	ltpFR2	7	n/a	n/a	n/a	16	11	4	3	4
2160.701171875	n/a	PROB	4425116	n/a	LTP364	ltpFR2	7	n/a	n/a	n/a	16	10	7	2	1
2163.23388671875	n/a	PROB	4430303	n/a	LTP364	ltpFR2	7	n/a	n/a	n/a	16	16	6	9	1
2164.798828125	n/a	PROB	4433508	n/a	LTP364	ltpFR2	7	n/a	n/a	n/a	16	19	4	8	7
2166.916015625	n/a	PROB	4437844	n/a	LTP364	ltpFR2	7	n/a	n/a	n/a	16	10	4	3	3
2170.04150390625	n/a	STOP	4444245	n/a	LTP364	ltpFR2	7	n/a	n/a	n/a	16	n/a	n/a	n/a	n/a
2171.91357421875	n/a	REC_START	4448079	n/a	LTP364	ltpFR2	7	9	n/a	n/a	n/a	n/a	0	0	0
2183.68310546875	n/a	REC_WORD	4472183	wordpools/wasnorm_wordpool_576.txt	LTP364	ltpFR2	7	9	PROTON	1132	n/a	n/a	0	0	0
2194.68115234375	n/a	REC_WORD	4494707	wordpools/wasnorm_wordpool_576.txt	LTP364	ltpFR2	7	9	CASHIER	254	n/a	n/a	0	0	0
2195.39208984375	n/a	REC_WORD	4496163	wordpools/wasnorm_wordpool_576.txt	LTP364	ltpFR2	7	9	PERFUME	1049	n/a	n/a	0	0	0
2196.15087890625	n/a	REC_WORD	4497717	wordpools/wasnorm_wordpool_576.txt	LTP364	ltpFR2	7	9	STICKER	1382	n/a	n/a	0	0	0
2196.8759765625	n/a	REC_WORD	4499202	wordpools/wasnorm_wordpool_576.txt	LTP364	ltpFR2	7	9	VICTIM	1562	n/a	n/a	0	0	0
2197.66064453125	n/a	REC_WORD	4500809	wordpools/wasnorm_wordpool_576.txt	LTP364	ltpFR2	7	9	BREAST	171	n/a	n/a	0	0	0
2198.796875	n/a	REC_WORD	4503136	wordpools/wasnorm_wordpool_576.txt	LTP364	ltpFR2	7	9	SPAGHETTI	1346	n/a	n/a	0	0	0
2199.974609375	n/a	REC_WORD	4505548	wordpools/wasnorm_wordpool_576.txt	LTP364	ltpFR2	7	9	PUDDLE	1140	n/a	n/a	0	0	0
2201.82568359375	n/a	REC_WORD	4509339	wordpools/wasnorm_wordpool_576.txt	LTP364	ltpFR2	7	9	MAMMAL	861	n/a	n/a	0	0	0
2207.40771484375	n/a	REC_WORD	4520771	wordpools/wasnorm_wordpool_576.txt	LTP364	ltpFR2	7	9	FIN	566	n/a	n/a	0	0	0
2208.63671875	n/a	REC_WORD	4523288	wordpools/wasnorm_wordpool_576.txt	LTP364	ltpFR2	7	9	PARENT	1013	n/a	n/a	0	0	0
2209.50537109375	n/a	REC_WORD	4525067	wordpools/wasnorm_wordpool_576.txt	LTP364	ltpFR2	7	9	DANDRUFF	439	n/a	n/a	0	0	0
2212.40966796875	n/a	REC_WORD_VV	4531015	wordpools/wasnorm_wordpool_576.txt	LTP364	ltpFR2	7	9	<>	-1	n/a	n/a	0	0	0
2215.26318359375	n/a	REC_WORD	4536859	wordpools/wasnorm_wordpool_576.txt	LTP364	ltpFR2	7	9	DINER	467	n/a	n/a	0	0	0
2217.7431640625	n/a	REC_WORD	4541938	wordpools/wasnorm_wordpool_576.txt	LTP364	ltpFR2	7	9	SAUSAGE	1238	n/a	n/a	0	0	0
2219.703125	n/a	REC_WORD	4545952	wordpools/wasnorm_wordpool_576.txt	LTP364	ltpFR2	7	9	SCULPTURE	1258	n/a	n/a	0	0	0
2222.1171875	n/a	REC_WORD	4550896	wordpools/wasnorm_wordpool_576.txt	LTP364	ltpFR2	7	9	RIFLE	1192	n/a	n/a	0	0	0
2223.6572265625	n/a	REC_WORD	4554050	wordpools/wasnorm_wordpool_576.txt	LTP364	ltpFR2	7	9	HOOK	715	n/a	n/a	0	0	0
2224.85595703125	n/a	REC_WORD	4556505	wordpools/wasnorm_wordpool_576.txt	LTP364	ltpFR2	7	9	KLEENEX	782	n/a	n/a	0	0	0
2245.7373046875	n/a	REC_WORD	4599270	wordpools/wasnorm_wordpool_576.txt	LTP364	ltpFR2	7	9	ROCKET	1202	n/a	n/a	0	0	0
2262.3701171875	n/a	WORD	4633334	wordpools/wasnorm_wordpool_576.txt	LTP364	ltpFR2	7	10	COLLEGE	346	n/a	n/a	0	0	0
2264.95166015625	n/a	WORD	4638621	wordpools/wasnorm_wordpool_576.txt	LTP364	ltpFR2	7	10	CONVICT	371	n/a	n/a	0	0	0
2267.6826171875	n/a	WORD	4644214	wordpools/wasnorm_wordpool_576.txt	LTP364	ltpFR2	7	10	PLUTO	1092	n/a	n/a	0	0	0
2270.48291015625	n/a	WORD	4649949	wordpools/wasnorm_wordpool_576.txt	LTP364	ltpFR2	7	10	GLOBE	641	n/a	n/a	0	0	0
2272.931640625	n/a	WORD	4654964	wordpools/wasnorm_wordpool_576.txt	LTP364	ltpFR2	7	10	TUTU	1524	n/a	n/a	0	0	0
2275.57861328125	n/a	WORD	4660385	wordpools/wasnorm_wordpool_576.txt	LTP364	ltpFR2	7	10	DANCER	437	n/a	n/a	0	0	0
2278.228515625	n/a	WORD	4665812	wordpools/wasnorm_wordpool_576.txt	LTP364	ltpFR2	7	10	RECORD	1176	n/a	n/a	0	0	0
2281.01025390625	n/a	WORD	4671509	wordpools/wasnorm_wordpool_576.txt	LTP364	ltpFR2	7	10	COURSE	390	n/a	n/a	0	0	0
2283.59130859375	n/a	WORD	4676795	wordpools/wasnorm_wordpool_576.txt	LTP364	ltpFR2	7	10	AUTHOR	61	n/a	n/a	0	0	0
2286.275390625	n/a	WORD	4682292	wordpools/wasnorm_wordpool_576.txt	LTP364	ltpFR2	7	10	SUMMIT	1405	n/a	n/a	0	0	0
2288.77197265625	n/a	WORD	4687405	wordpools/wasnorm_wordpool_576.txt	LTP364	ltpFR2	7	10	BADGE	68	n/a	n/a	0	0	0
2291.30615234375	n/a	WORD	4692595	wordpools/wasnorm_wordpool_576.txt	LTP364	ltpFR2	7	10	AGENT	10	n/a	n/a	0	0	0
2293.85400390625	n/a	WORD	4697813	wordpools/wasnorm_wordpool_576.txt	LTP364	ltpFR2	7	10	LADY	794	n/a	n/a	0	0	0
2296.5029296875	n/a	WORD	4703238	wordpools/wasnorm_wordpool_576.txt	LTP364	ltpFR2	7	10	RAFT	1159	n/a	n/a	0	0	0
2299.01904296875	n/a	WORD	4708391	wordpools/wasnorm_wordpool_576.txt	LTP364	ltpFR2	7	10	CRATER	400	n/a	n/a	0	0	0
2301.5498046875	n/a	WORD	4713574	wordpools/wasnorm_wordpool_576.txt	LTP364	ltpFR2	7	10	MESSAGE	888	n/a	n/a	0	0	0
2304.2158203125	n/a	WORD	4719034	wordpools/wasnorm_wordpool_576.txt	LTP364	ltpFR2	7	10	PRINCESS	1125	n/a	n/a	0	0	0
2306.78076171875	n/a	WORD	4724287	wordpools/wasnorm_wordpool_576.txt	LTP364	ltpFR2	7	10	GRILL	661	n/a	n/a	0	0	0
2309.513671875	n/a	WORD	4729884	wordpools/wasnorm_wordpool_576.txt	LTP364	ltpFR2	7	10	PORK	1108	n/a	n/a	0	0	0
2312.32861328125	n/a	WORD	4735649	wordpools/wasnorm_wordpool_576.txt	LTP364	ltpFR2	7	10	TERMITE	1451	n/a	n/a	0	0	0
2314.7763671875	n/a	WORD	4740662	wordpools/wasnorm_wordpool_576.txt	LTP364	ltpFR2	7	10	PLAZA	1088	n/a	n/a	0	0	0
2317.2431640625	n/a	WORD	4745714	wordpools/wasnorm_wordpool_576.txt	LTP364	ltpFR2	7	10	CONCERT	360	n/a	n/a	0	0	0
2319.875	n/a	WORD	4751104	wordpools/wasnorm_wordpool_576.txt	LTP364	ltpFR2	7	10	GRAPE	654	n/a	n/a	0	0	0
2322.50732421875	n/a	WORD	4756495	wordpools/wasnorm_wordpool_576.txt	LTP364	ltpFR2	7	10	SUNSET	1408	n/a	n/a	0	0	0
2324.123046875	n/a	START	4759804	n/a	LTP364	ltpFR2	7	n/a	n/a	n/a	17	n/a	n/a	n/a	n/a
2325.28515625	n/a	DISTRACTOR	4762184	n/a	LTP364	ltpFR2	7	10	n/a	n/a	n/a	n/a	0	0	0
2325.2890625	n/a	PROB	4762192	n/a	LTP364	ltpFR2	7	n/a	n/a	n/a	17	10	2	3	5
2327.470703125	n/a	PROB	4766660	n/a	LTP364	ltpFR2	7	n/a	n/a	n/a	17	19	6	5	8
2330.36962890625	n/a	PROB	4772597	n/a	LTP364	ltpFR2	7	n/a	n/a	n/a	17	13	4	1	8
2332.052734375	n/a	PROB	4776044	n/a	LTP364	ltpFR2	7	n/a	n/a	n/a	17	13	8	3	2
2333.65087890625	n/a	PROB	4779317	n/a	LTP364	ltpFR2	7	n/a	n/a	n/a	17	9	5	1	3
2335.384765625	n/a	PROB	4782868	n/a	LTP364	ltpFR2	7	n/a	n/a	n/a	17	14	9	1	4
2338.3828125	n/a	PROB	4789008	n/a	LTP364	ltpFR2	7	n/a	n/a	n/a	17	14	1	6	7
2339.96533203125	n/a	PROB	4792249	n/a	LTP364	ltpFR2	7	n/a	n/a	n/a	17	15	1	9	5
2341.314453125	n/a	PROB	4795012	n/a	LTP364	ltpFR2	7	n/a	n/a	n/a	17	19	8	6	5
2344.1962890625	n/a	PROB	4800914	n/a	LTP364	ltpFR2	7	n/a	n/a	n/a	17	13	3	5	5
2348.12255859375	n/a	STOP	4808955	n/a	LTP364	ltpFR2	7	n/a	n/a	n/a	17	n/a	n/a	n/a	n/a
2349.92724609375	n/a	REC_START	4812651	n/a	LTP364	ltpFR2	7	10	n/a	n/a	n/a	n/a	0	0	0
2367.24658203125	n/a	REC_WORD	4848121	wordpools/wasnorm_wordpool_576.txt	LTP364	ltpFR2	7	10	AUTHOR	61	n/a	n/a	0	0	0
2368.1845703125	n/a	REC_WORD	4850042	wordpools/wasnorm_wordpool_576.txt	LTP364	ltpFR2	7	10	SUMMIT	1405	n/a	n/a	0	0	0
2370.5244140625	n/a	REC_WORD	4854834	wordpools/wasnorm_wordpool_576.txt	LTP364	ltpFR2	7	10	MEDAL	885	n/a	n/a	0	0	0
2376.228515625	n/a	REC_WORD	4866516	wordpools/wasnorm_wordpool_576.txt	LTP364	ltpFR2	7	10	AGENT	10	n/a	n/a	0	0	0
2379.96240234375	n/a	REC_WORD	4874163	wordpools/wasnorm_wordpool_576.txt	LTP364	ltpFR2	7	10	PICTURE	1061	n/a	n/a	0	0	0
2380.76123046875	n/a	REC_WORD	4875799	wordpools/wasnorm_wordpool_576.txt	LTP364	ltpFR2	7	10	LADY	794	n/a	n/a	0	0	0
2382.26708984375	n/a	REC_WORD	4878883	wordpools/wasnorm_wordpool_576.txt	LTP364	ltpFR2	7	10	RAFT	1159	n/a	n/a	0	0	0
2384.26806640625	n/a	REC_WORD	4882981	wordpools/wasnorm_wordpool_576.txt	LTP364	ltpFR2	7	10	CRATER	400	n/a	n/a	0	0	0
2386.19921875	n/a	REC_WORD	4886936	wordpools/wasnorm_wordpool_576.txt	LTP364	ltpFR2	7	10	BOTTLE	153	n/a	n/a	0	0	0
2386.97900390625	n/a	REC_WORD	4888533	wordpools/wasnorm_wordpool_576.txt	LTP364	ltpFR2	7	10	MESSAGE	888	n/a	n/a	0	0	0
2391.498046875	n/a	REC_WORD	4897788	wordpools/wasnorm_wordpool_576.txt	LTP364	ltpFR2	7	10	PRINCESS	1125	n/a	n/a	0	0	0
2396.56982421875	n/a	REC_WORD	4908175	wordpools/wasnorm_wordpool_576.txt	LTP364	ltpFR2	7	10	GRILL	661	n/a	n/a	0	0	0
2399.98779296875	n/a	REC_WORD	4915175	wordpools/wasnorm_wordpool_576.txt	LTP364	ltpFR2	7	10	PORK	1108	n/a	n/a	0	0	0
2400.8466796875	n/a	REC_WORD	4916934	wordpools/wasnorm_wordpool_576.txt	LTP364	ltpFR2	7	10	TERMITE	1451	n/a	n/a	0	0	0
2401.52490234375	n/a	REC_WORD	4918323	wordpools/wasnorm_wordpool_576.txt	LTP364	ltpFR2	7	10	PLAZA	1088	n/a	n/a	0	0	0
2403.3505859375	n/a	REC_WORD	4922062	wordpools/wasnorm_wordpool_576.txt	LTP364	ltpFR2	7	10	CONCERT	360	n/a	n/a	0	0	0
2404.13671875	n/a	REC_WORD	4923672	wordpools/wasnorm_wordpool_576.txt	LTP364	ltpFR2	7	10	GRAPE	654	n/a	n/a	0	0	0
2404.95751953125	n/a	REC_WORD	4925353	wordpools/wasnorm_wordpool_576.txt	LTP364	ltpFR2	7	10	SUNSET	1408	n/a	n/a	0	0	0
2419.0703125	n/a	REC_WORD_VV	4954256	wordpools/wasnorm_wordpool_576.txt	LTP364	ltpFR2	7	10	<>	-1	n/a	n/a	0	0	0
2420.0703125	n/a	REC_WORD_VV	4956304	wordpools/wasnorm_wordpool_576.txt	LTP364	ltpFR2	7	10	<>	-1	n/a	n/a	0	0	0
2421.0703125	n/a	REC_WORD_VV	4958352	wordpools/wasnorm_wordpool_576.txt	LTP364	ltpFR2	7	10	<>	-1	n/a	n/a	0	0	0
2424.72021484375	n/a	REC_WORD_VV	4965827	wordpools/wasnorm_wordpool_576.txt	LTP364	ltpFR2	7	10	<>	-1	n/a	n/a	0	0	0
2440.36669921875	n/a	WORD	4997871	wordpools/wasnorm_wordpool_576.txt	LTP364	ltpFR2	7	11	SLIDE	1326	n/a	n/a	0	0	0
2443.0654296875	n/a	WORD	5003398	wordpools/wasnorm_wordpool_576.txt	LTP364	ltpFR2	7	11	SWORD	1423	n/a	n/a	0	0	0
2445.54638671875	n/a	WORD	5008479	wordpools/wasnorm_wordpool_576.txt	LTP364	ltpFR2	7	11	CLOUD	328	n/a	n/a	0	0	0
2448.11328125	n/a	WORD	5013736	wordpools/wasnorm_wordpool_576.txt	LTP364	ltpFR2	7	11	BABY	64	n/a	n/a	0	0	0
2450.54443359375	n/a	WORD	5018715	wordpools/wasnorm_wordpool_576.txt	LTP364	ltpFR2	7	11	FRAME	600	n/a	n/a	0	0	0
2453.0439453125	n/a	WORD	5023834	wordpools/wasnorm_wordpool_576.txt	LTP364	ltpFR2	7	11	BEAVER	109	n/a	n/a	0	0	0
2455.8251953125	n/a	WORD	5029530	wordpools/wasnorm_wordpool_576.txt	LTP364	ltpFR2	7	11	FOX	598	n/a	n/a	0	0	0
2458.3251953125	n/a	WORD	5034650	wordpools/wasnorm_wordpool_576.txt	LTP364	ltpFR2	7	11	AIRPLANE	12	n/a	n/a	0	0	0
2460.95703125	n/a	WORD	5040040	wordpools/wasnorm_wordpool_576.txt	LTP364	ltpFR2	7	11	DIVER	476	n/a	n/a	0	0	0
2463.388671875	n/a	WORD	5045020	wordpools/wasnorm_wordpool_576.txt	LTP364	ltpFR2	7	11	CANAL	226	n/a	n/a	0	0	0
2466.1875	n/a	WORD	5050752	wordpools/wasnorm_wordpool_576.txt	LTP364	ltpFR2	7	11	JUDGE	761	n/a	n/a	0	0	0
2468.685546875	n/a	WORD	5055868	wordpools/wasnorm_wordpool_576.txt	LTP364	ltpFR2	7	11	MASK	876	n/a	n/a	0	0	0
2471.3017578125	n/a	WORD	5061226	wordpools/wasnorm_wordpool_576.txt	LTP364	ltpFR2	7	11	PREACHER	1119	n/a	n/a	0	0	0
2473.96728515625	n/a	WORD	5066685	wordpools/wasnorm_wordpool_576.txt	LTP364	ltpFR2	7	11	FOREHEAD	592	n/a	n/a	0	0	0
2476.5986328125	n/a	WORD	5072074	wordpools/wasnorm_wordpool_576.txt	LTP364	ltpFR2	7	11	ANTLER	29	n/a	n/a	0	0	0
2479.1142578125	n/a	WORD	5077226	wordpools/wasnorm_wordpool_576.txt	LTP364	ltpFR2	7	11	HAWK	692	n/a	n/a	0	0	0
2481.5791015625	n/a	WORD	5082274	wordpools/wasnorm_wordpool_576.txt	LTP364	ltpFR2	7	11	BEEF	113	n/a	n/a	0	0	0
2484.37939453125	n/a	WORD	5088009	wordpools/wasnorm_wordpool_576.txt	LTP364	ltpFR2	7	11	NURSE	963	n/a	n/a	0	0	0
2486.97705078125	n/a	WORD	5093329	wordpools/wasnorm_wordpool_576.txt	LTP364	ltpFR2	7	11	WORLD	1622	n/a	n/a	0	0	0
2489.5419921875	n/a	WORD	5098582	wordpools/wasnorm_wordpool_576.txt	LTP364	ltpFR2	7	11	STUDENT	1395	n/a	n/a	0	0	0
2492.24169921875	n/a	WORD	5104111	wordpools/wasnorm_wordpool_576.txt	LTP364	ltpFR2	7	11	PORTRAIT	1111	n/a	n/a	0	0	0
2494.8740234375	n/a	WORD	5109502	wordpools/wasnorm_wordpool_576.txt	LTP364	ltpFR2	7	11	MARSH	874	n/a	n/a	0	0	0
2497.48876953125	n/a	WORD	5114857	wordpools/wasnorm_wordpool_576.txt	LTP364	ltpFR2	7	11	CREATURE	403	n/a	n/a	0	0	0
2500.03759765625	n/a	WORD	5120077	wordpools/wasnorm_wordpool_576.txt	LTP364	ltpFR2	7	11	RATTLE	1170	n/a	n/a	0	0	0
2501.65283203125	n/a	START	5123385	n/a	LTP364	ltpFR2	7	n/a	n/a	n/a	18	n/a	n/a	n/a	n/a
2502.5546875	n/a	DISTRACTOR	5125232	n/a	LTP364	ltpFR2	7	11	n/a	n/a	n/a	n/a	0	0	0
2502.56884765625	n/a	PROB	5125261	n/a	LTP364	ltpFR2	7	n/a	n/a	n/a	18	12	6	4	2
2505.33544921875	n/a	PROB	5130927	n/a	LTP364	ltpFR2	7	n/a	n/a	n/a	18	13	7	1	5
2507.25146484375	n/a	PROB	5134851	n/a	LTP364	ltpFR2	7	n/a	n/a	n/a	18	14	7	5	2
2510.1494140625	n/a	PROB	5140786	n/a	LTP364	ltpFR2	7	n/a	n/a	n/a	18	15	1	9	5
2511.41552734375	n/a	PROB	5143379	n/a	LTP364	ltpFR2	7	n/a	n/a	n/a	18	11	2	6	3
2514.064453125	n/a	PROB	5148804	n/a	LTP364	ltpFR2	7	n/a	n/a	n/a	18	16	6	7	3
2516.46337890625	n/a	PROB	5153717	n/a	LTP364	ltpFR2	7	n/a	n/a	n/a	18	19	7	7	5
2518.6943359375	n/a	PROB	5158286	n/a	LTP364	ltpFR2	7	n/a	n/a	n/a	18	12	4	1	7
2520.79296875	n/a	PROB	5162584	n/a	LTP364	ltpFR2	7	n/a	n/a	n/a	18	17	7	2	8
2522.94287109375	n/a	PROB	5166987	n/a	LTP364	ltpFR2	7	n/a	n/a	n/a	18	18	5	8	5
2524.64990234375	n/a	STOP	5170483	n/a	LTP364	ltpFR2	7	n/a	n/a	n/a	18	n/a	n/a	n/a	n/a
2527.5908203125	n/a	REC_START	5176506	n/a	LTP364	ltpFR2	7	11	n/a	n/a	n/a	n/a	0	0	0
2545.20947265625	n/a	REC_WORD	5212589	wordpools/wasnorm_wordpool_576.txt	LTP364	ltpFR2	7	11	BABY	64	n/a	n/a	0	0	0
2547.76416015625	n/a	REC_WORD	5217821	wordpools/wasnorm_wordpool_576.txt	LTP364	ltpFR2	7	11	BEAVER	109	n/a	n/a	0	0	0
2548.6103515625	n/a	REC_WORD	5219554	wordpools/wasnorm_wordpool_576.txt	LTP364	ltpFR2	7	11	FOX	598	n/a	n/a	0	0	0
2550.43212890625	n/a	REC_WORD_VV	5223285	wordpools/wasnorm_wordpool_576.txt	LTP364	ltpFR2	7	11	<>	-1	n/a	n/a	0	0	0
2552.89208984375	n/a	REC_WORD	5228323	wordpools/wasnorm_wordpool_576.txt	LTP364	ltpFR2	7	11	AIRPLANE	12	n/a	n/a	0	0	0
2553.6552734375	n/a	REC_WORD	5229886	wordpools/wasnorm_wordpool_576.txt	LTP364	ltpFR2	7	11	DIVER	476	n/a	n/a	0	0	0
2554.38818359375	n/a	REC_WORD	5231387	wordpools/wasnorm_wordpool_576.txt	LTP364	ltpFR2	7	11	CANAL	226	n/a	n/a	0	0	0
2556.703125	n/a	REC_WORD	5236128	wordpools/wasnorm_wordpool_576.txt	LTP364	ltpFR2	7	11	ANTLER	29	n/a	n/a	0	0	0
2560.78564453125	n/a	REC_WORD	5244489	wordpools/wasnorm_wordpool_576.txt	LTP364	ltpFR2	7	11	PREACHER	1119	n/a	n/a	0	0	0
2561.50390625	n/a	REC_WORD	5245960	wordpools/wasnorm_wordpool_576.txt	LTP364	ltpFR2	7	11	FOREHEAD	592	n/a	n/a	0	0	0
2562.708984375	n/a	REC_WORD	5248428	wordpools/wasnorm_wordpool_576.txt	LTP364	ltpFR2	7	11	JUDGE	761	n/a	n/a	0	0	0
2575.83154296875	n/a	REC_WORD	5275303	wordpools/wasnorm_wordpool_576.txt	LTP364	ltpFR2	7	11	STUDENT	1395	n/a	n/a	0	0	0
2577.2822265625	n/a	REC_WORD	5278274	wordpools/wasnorm_wordpool_576.txt	LTP364	ltpFR2	7	11	CREATURE	403	n/a	n/a	0	0	0
2578.6865234375	n/a	REC_WORD	5281150	wordpools/wasnorm_wordpool_576.txt	LTP364	ltpFR2	7	11	PORTRAIT	1111	n/a	n/a	0	0	0
2579.37451171875	n/a	REC_WORD	5282559	wordpools/wasnorm_wordpool_576.txt	LTP364	ltpFR2	7	11	MARSH	874	n/a	n/a	0	0	0
2589.7587890625	n/a	REC_WORD	5303826	wordpools/wasnorm_wordpool_576.txt	LTP364	ltpFR2	7	11	BEEF	113	n/a	n/a	0	0	0
2596.19970703125	n/a	REC_WORD	5317017	wordpools/wasnorm_wordpool_576.txt	LTP364	ltpFR2	7	11	TEACHER	1440	n/a	n/a	0	0	0
2618.03125	n/a	WORD	5361728	wordpools/wasnorm_wordpool_576.txt	LTP364	ltpFR2	7	12	SHARK	1275	n/a	n/a	0	0	0
2620.84619140625	n/a	WORD	5367493	wordpools/wasnorm_wordpool_576.txt	LTP364	ltpFR2	7	12	CITRUS	313	n/a	n/a	0	0	0
2623.27783203125	n/a	WORD	5372473	wordpools/wasnorm_wordpool_576.txt	LTP364	ltpFR2	7	12	JAPAN	749	n/a	n/a	0	0	0
2625.9267578125	n/a	WORD	5377898	wordpools/wasnorm_wordpool_576.txt	LTP364	ltpFR2	7	12	MACHINE	852	n/a	n/a	0	0	0
2628.640625	n/a	WORD	5383456	wordpools/wasnorm_wordpool_576.txt	LTP364	ltpFR2	7	12	CRITIC	410	n/a	n/a	0	0	0
2631.4248046875	n/a	WORD	5389158	wordpools/wasnorm_wordpool_576.txt	LTP364	ltpFR2	7	12	BASEMENT	94	n/a	n/a	0	0	0
2633.9228515625	n/a	WORD	5394274	wordpools/wasnorm_wordpool_576.txt	LTP364	ltpFR2	7	12	LEOPARD	812	n/a	n/a	0	0	0
2636.388671875	n/a	WORD	5399324	wordpools/wasnorm_wordpool_576.txt	LTP364	ltpFR2	7	12	CHIPMUNK	304	n/a	n/a	0	0	0
2639.1376953125	n/a	WORD	5404954	wordpools/wasnorm_wordpool_576.txt	LTP364	ltpFR2	7	12	STREAM	1392	n/a	n/a	0	0	0
2641.86962890625	n/a	WORD	5410549	wordpools/wasnorm_wordpool_576.txt	LTP364	ltpFR2	7	12	SNAIL	1332	n/a	n/a	0	0	0
2644.43408203125	n/a	WORD	5415801	wordpools/wasnorm_wordpool_576.txt	LTP364	ltpFR2	7	12	MONSTER	912	n/a	n/a	0	0	0
2646.88330078125	n/a	WORD	5420817	wordpools/wasnorm_wordpool_576.txt	LTP364	ltpFR2	7	12	CELLAR	267	n/a	n/a	0	0	0
2649.33203125	n/a	WORD	5425832	wordpools/wasnorm_wordpool_576.txt	LTP364	ltpFR2	7	12	VIKING	1565	n/a	n/a	0	0	0
2651.9140625	n/a	WORD	5431120	wordpools/wasnorm_wordpool_576.txt	LTP364	ltpFR2	7	12	PUDDING	1139	n/a	n/a	0	0	0
2654.52880859375	n/a	WORD	5436475	wordpools/wasnorm_wordpool_576.txt	LTP364	ltpFR2	7	12	MILK	895	n/a	n/a	0	0	0
2657.02880859375	n/a	WORD	5441595	wordpools/wasnorm_wordpool_576.txt	LTP364	ltpFR2	7	12	DRINK	498	n/a	n/a	0	0	0
2659.56005859375	n/a	WORD	5446779	wordpools/wasnorm_wordpool_576.txt	LTP364	ltpFR2	7	12	ASIA	46	n/a	n/a	0	0	0
2662.392578125	n/a	WORD	5452580	wordpools/wasnorm_wordpool_576.txt	LTP364	ltpFR2	7	12	BLACKBOARD	133	n/a	n/a	0	0	0
2665.07470703125	n/a	WORD	5458073	wordpools/wasnorm_wordpool_576.txt	LTP364	ltpFR2	7	12	BOARD	143	n/a	n/a	0	0	0
2667.5068359375	n/a	WORD	5463054	wordpools/wasnorm_wordpool_576.txt	LTP364	ltpFR2	7	12	WINDOW	1611	n/a	n/a	0	0	0
2670.1884765625	n/a	WORD	5468546	wordpools/wasnorm_wordpool_576.txt	LTP364	ltpFR2	7	12	SILK	1307	n/a	n/a	0	0	0
2672.80322265625	n/a	WORD	5473901	wordpools/wasnorm_wordpool_576.txt	LTP364	ltpFR2	7	12	DONOR	485	n/a	n/a	0	0	0
2675.236328125	n/a	WORD	5478884	wordpools/wasnorm_wordpool_576.txt	LTP364	ltpFR2	7	12	WIFE	1609	n/a	n/a	0	0	0
2677.66748046875	n/a	WORD	5483863	wordpools/wasnorm_wordpool_576.txt	LTP364	ltpFR2	7	12	ROCKET	1202	n/a	n/a	0	0	0
2679.2841796875	n/a	START	5487174	n/a	LTP364	ltpFR2	7	n/a	n/a	n/a	19	n/a	n/a	n/a	n/a
2680.42138671875	n/a	DISTRACTOR	5489503	n/a	LTP364	ltpFR2	7	12	n/a	n/a	n/a	n/a	0	0	0
2680.43408203125	n/a	PROB	5489529	n/a	LTP364	ltpFR2	7	n/a	n/a	n/a	19	15	6	2	7
2682.3662109375	n/a	PROB	5493486	n/a	LTP364	ltpFR2	7	n/a	n/a	n/a	19	11	5	5	1
2683.748046875	n/a	PROB	5496316	n/a	LTP364	ltpFR2	7	n/a	n/a	n/a	19	12	8	2	2
2685.498046875	n/a	PROB	5499900	n/a	LTP364	ltpFR2	7	n/a	n/a	n/a	19	16	9	5	2
2687.26416015625	n/a	PROB	5503517	n/a	LTP364	ltpFR2	7	n/a	n/a	n/a	19	11	2	8	1
2688.7451171875	n/a	PROB	5506550	n/a	LTP364	ltpFR2	7	n/a	n/a	n/a	19	21	5	9	7
2692.49462890625	n/a	PROB	5514229	n/a	LTP364	ltpFR2	7	n/a	n/a	n/a	19	10	1	8	1
2694.5927734375	n/a	PROB	5518526	n/a	LTP364	ltpFR2	7	n/a	n/a	n/a	19	24	7	9	8
2697.49267578125	n/a	PROB	5524465	n/a	LTP364	ltpFR2	7	n/a	n/a	n/a	19	19	4	7	8
2700.0576171875	n/a	PROB	5529718	n/a	LTP364	ltpFR2	7	n/a	n/a	n/a	19	9	1	4	4
2701.95458984375	n/a	STOP	5533603	n/a	LTP364	ltpFR2	7	n/a	n/a	n/a	19	n/a	n/a	n/a	n/a
2705.138671875	n/a	REC_START	5540124	n/a	LTP364	ltpFR2	7	12	n/a	n/a	n/a	n/a	0	0	0
2707.00439453125	n/a	REC_WORD	5543945	wordpools/wasnorm_wordpool_576.txt	LTP364	ltpFR2	7	12	ROCKET	1202	n/a	n/a	0	0	0
2707.8095703125	n/a	REC_WORD	5545594	wordpools/wasnorm_wordpool_576.txt	LTP364	ltpFR2	7	12	BLACKBOARD	133	n/a	n/a	0	0	0
2708.83447265625	n/a	REC_WORD	5547693	wordpools/wasnorm_wordpool_576.txt	LTP364	ltpFR2	7	12	BOARD	143	n/a	n/a	0	0	0
2709.68212890625	n/a	REC_WORD	5549429	wordpools/wasnorm_wordpool_576.txt	LTP364	ltpFR2	7	12	WINDOW	1611	n/a	n/a	0	0	0
2710.83349609375	n/a	REC_WORD	5551787	wordpools/wasnorm_wordpool_576.txt	LTP364	ltpFR2	7	12	JAPAN	749	n/a	n/a	0	0	0
2712.05615234375	n/a	REC_WORD	5554291	wordpools/wasnorm_wordpool_576.txt	LTP364	ltpFR2	7	12	ASIA	46	n/a	n/a	0	0	0
2712.89208984375	n/a	REC_WORD	5556003	wordpools/wasnorm_wordpool_576.txt	LTP364	ltpFR2	7	12	SILK	1307	n/a	n/a	0	0	0
2719.2451171875	n/a	REC_WORD	5569014	wordpools/wasnorm_wordpool_576.txt	LTP364	ltpFR2	7	12	SNAIL	1332	n/a	n/a	0	0	0
2720.85986328125	n/a	REC_WORD	5572321	wordpools/wasnorm_wordpool_576.txt	LTP364	ltpFR2	7	12	SHARK	1275	n/a	n/a	0	0	0
2725.85302734375	n/a	REC_WORD	5582547	wordpools/wasnorm_wordpool_576.txt	LTP364	ltpFR2	7	12	CHIPMUNK	304	n/a	n/a	0	0	0
2728.17578125	n/a	REC_WORD	5587304	wordpools/wasnorm_wordpool_576.txt	LTP364	ltpFR2	7	12	LEOPARD	812	n/a	n/a	0	0	0
2728.78759765625	n/a	REC_WORD	5588557	wordpools/wasnorm_wordpool_576.txt	LTP364	ltpFR2	7	12	BASEMENT	94	n/a	n/a	0	0	0
2729.65966796875	n/a	REC_WORD	5590343	wordpools/wasnorm_wordpool_576.txt	LTP364	ltpFR2	7	12	CRITIC	410	n/a	n/a	0	0	0
2743.109375	n/a	REC_WORD	5617888	wordpools/wasnorm_wordpool_576.txt	LTP364	ltpFR2	7	12	SLIDE	1326	n/a	n/a	0	0	0
2795.59375	n/a	WORD	5725376	wordpools/wasnorm_wordpool_576.txt	LTP364	ltpFR2	7	13	FRUIT	610	n/a	n/a	0	0	0
2798.24365234375	n/a	WORD	5730803	wordpools/wasnorm_wordpool_576.txt	LTP364	ltpFR2	7	13	GRAVEL	659	n/a	n/a	0	0	0
2801.04248046875	n/a	WORD	5736535	wordpools/wasnorm_wordpool_576.txt	LTP364	ltpFR2	7	13	GREASE	660	n/a	n/a	0	0	0
2803.58935546875	n/a	WORD	5741751	wordpools/wasnorm_wordpool_576.txt	LTP364	ltpFR2	7	13	JURY	766	n/a	n/a	0	0	0
2806.2392578125	n/a	WORD	5747178	wordpools/wasnorm_wordpool_576.txt	LTP364	ltpFR2	7	13	AWARD	63	n/a	n/a	0	0	0
2808.87109375	n/a	WORD	5752568	wordpools/wasnorm_wordpool_576.txt	LTP364	ltpFR2	7	13	BROTHER	179	n/a	n/a	0	0	0
2811.30419921875	n/a	WORD	5757551	wordpools/wasnorm_wordpool_576.txt	LTP364	ltpFR2	7	13	HUMAN	726	n/a	n/a	0	0	0
2813.88623046875	n/a	WORD	5762839	wordpools/wasnorm_wordpool_576.txt	LTP364	ltpFR2	7	13	BODY	145	n/a	n/a	0	0	0
2816.5009765625	n/a	WORD	5768194	wordpools/wasnorm_wordpool_576.txt	LTP364	ltpFR2	7	13	VENUS	1557	n/a	n/a	0	0	0
2819.26708984375	n/a	WORD	5773859	wordpools/wasnorm_wordpool_576.txt	LTP364	ltpFR2	7	13	FILM	565	n/a	n/a	0	0	0
2821.7978515625	n/a	WORD	5779042	wordpools/wasnorm_wordpool_576.txt	LTP364	ltpFR2	7	13	ISLAND	745	n/a	n/a	0	0	0
2824.3310546875	n/a	WORD	5784230	wordpools/wasnorm_wordpool_576.txt	LTP364	ltpFR2	7	13	BROOK	177	n/a	n/a	0	0	0
2826.9296875	n/a	WORD	5789552	wordpools/wasnorm_wordpool_576.txt	LTP364	ltpFR2	7	13	FIDDLE	561	n/a	n/a	0	0	0
2829.66064453125	n/a	WORD	5795145	wordpools/wasnorm_wordpool_576.txt	LTP364	ltpFR2	7	13	MATCH	878	n/a	n/a	0	0	0
2832.24365234375	n/a	WORD	5800435	wordpools/wasnorm_wordpool_576.txt	LTP364	ltpFR2	7	13	CAFE	216	n/a	n/a	0	0	0
2834.69140625	n/a	WORD	5805448	wordpools/wasnorm_wordpool_576.txt	LTP364	ltpFR2	7	13	CUPBOARD	425	n/a	n/a	0	0	0
2837.17431640625	n/a	WORD	5810533	wordpools/wasnorm_wordpool_576.txt	LTP364	ltpFR2	7	13	DAUGHTER	442	n/a	n/a	0	0	0
2839.63916015625	n/a	WORD	5815581	wordpools/wasnorm_wordpool_576.txt	LTP364	ltpFR2	7	13	MEDAL	885	n/a	n/a	0	0	0
2842.2392578125	n/a	WORD	5820906	wordpools/wasnorm_wordpool_576.txt	LTP364	ltpFR2	7	13	OINTMENT	974	n/a	n/a	0	0	0
2845.00439453125	n/a	WORD	5826569	wordpools/wasnorm_wordpool_576.txt	LTP364	ltpFR2	7	13	PLAID	1080	n/a	n/a	0	0	0
2847.76806640625	n/a	WORD	5832229	wordpools/wasnorm_wordpool_576.txt	LTP364	ltpFR2	7	13	BUNNY	198	n/a	n/a	0	0	0
2850.28515625	n/a	WORD	5837384	wordpools/wasnorm_wordpool_576.txt	LTP364	ltpFR2	7	13	QUAIL	1147	n/a	n/a	0	0	0
2852.7158203125	n/a	WORD	5842362	wordpools/wasnorm_wordpool_576.txt	LTP364	ltpFR2	7	13	DRILL	497	n/a	n/a	0	0	0
2855.3330078125	n/a	WORD	5847722	wordpools/wasnorm_wordpool_576.txt	LTP364	ltpFR2	7	13	GAVEL	627	n/a	n/a	0	0	0
2856.94873046875	n/a	START	5851031	n/a	LTP364	ltpFR2	7	n/a	n/a	n/a	20	n/a	n/a	n/a	n/a
2858.12158203125	n/a	DISTRACTOR	5853433	n/a	LTP364	ltpFR2	7	13	n/a	n/a	n/a	n/a	0	0	0
2858.130859375	n/a	PROB	5853452	n/a	LTP364	ltpFR2	7	n/a	n/a	n/a	20	5	1	3	1
2860.66162109375	n/a	PROB	5858635	n/a	LTP364	ltpFR2	7	n/a	n/a	n/a	20	14	1	8	5
2862.2626953125	n/a	PROB	5861914	n/a	LTP364	ltpFR2	7	n/a	n/a	n/a	20	20	4	8	8
2864.3115234375	n/a	PROB	5866110	n/a	LTP364	ltpFR2	7	n/a	n/a	n/a	20	12	5	1	6
2866.04345703125	n/a	PROB	5869657	n/a	LTP364	ltpFR2	7	n/a	n/a	n/a	20	18	7	4	7
2868.42626953125	n/a	PROB	5874537	n/a	LTP364	ltpFR2	7	n/a	n/a	n/a	20	16	8	2	6
2869.74169921875	n/a	PROB	5877231	n/a	LTP364	ltpFR2	7	n/a	n/a	n/a	20	9	7	1	1
2871.7236328125	n/a	PROB	5881290	n/a	LTP364	ltpFR2	7	n/a	n/a	n/a	20	19	7	9	3
2875.25634765625	n/a	PROB	5888525	n/a	LTP364	ltpFR2	7	n/a	n/a	n/a	20	13	9	2	2
2876.88818359375	n/a	PROB	5891867	n/a	LTP364	ltpFR2	7	n/a	n/a	n/a	20	16	6	9	1
2878.58740234375	n/a	PROB	5895347	n/a	LTP364	ltpFR2	7	n/a	n/a	n/a	20	11	4	2	5
2880.7939453125	n/a	STOP	5899866	n/a	LTP364	ltpFR2	7	n/a	n/a	n/a	20	n/a	n/a	n/a	n/a
2882.80224609375	n/a	REC_START	5903979	n/a	LTP364	ltpFR2	7	13	n/a	n/a	n/a	n/a	0	0	0
2886.57080078125	n/a	REC_WORD	5911697	wordpools/wasnorm_wordpool_576.txt	LTP364	ltpFR2	7	13	FRUIT	610	n/a	n/a	0	0	0
2887.44970703125	n/a	REC_WORD	5913497	wordpools/wasnorm_wordpool_576.txt	LTP364	ltpFR2	7	13	GRAVEL	659	n/a	n/a	0	0	0
2896.6474609375	n/a	REC_WORD	5932334	wordpools/wasnorm_wordpool_576.txt	LTP364	ltpFR2	7	13	JURY	766	n/a	n/a	0	0	0
2903.818359375	n/a	REC_WORD	5947020	wordpools/wasnorm_wordpool_576.txt	LTP364	ltpFR2	7	13	AWARD	63	n/a	n/a	0	0	0
2905.0751953125	n/a	REC_WORD	5949594	wordpools/wasnorm_wordpool_576.txt	LTP364	ltpFR2	7	13	BROTHER	179	n/a	n/a	0	0	0
2906.31640625	n/a	REC_WORD	5952136	wordpools/wasnorm_wordpool_576.txt	LTP364	ltpFR2	7	13	HUMAN	726	n/a	n/a	0	0	0
2907.54150390625	n/a	REC_WORD	5954645	wordpools/wasnorm_wordpool_576.txt	LTP364	ltpFR2	7	13	BODY	145	n/a	n/a	0	0	0
2909.953125	n/a	REC_WORD	5959584	wordpools/wasnorm_wordpool_576.txt	LTP364	ltpFR2	7	13	VENUS	1557	n/a	n/a	0	0	0
2912.34423828125	n/a	REC_WORD	5964481	wordpools/wasnorm_wordpool_576.txt	LTP364	ltpFR2	7	13	ISLAND	745	n/a	n/a	0	0	0
2913.0341796875	n/a	REC_WORD	5965894	wordpools/wasnorm_wordpool_576.txt	LTP364	ltpFR2	7	13	STREAM	1392	n/a	n/a	0	0	0
2913.89892578125	n/a	REC_WORD	5967665	wordpools/wasnorm_wordpool_576.txt	LTP364	ltpFR2	7	13	FIDDLE	561	n/a	n/a	0	0	0
2914.85693359375	n/a	REC_WORD	5969627	wordpools/wasnorm_wordpool_576.txt	LTP364	ltpFR2	7	13	MATCH	878	n/a	n/a	0	0	0
2915.95703125	n/a	REC_WORD	5971880	wordpools/wasnorm_wordpool_576.txt	LTP364	ltpFR2	7	13	CAFE	216	n/a	n/a	0	0	0
2918.47607421875	n/a	REC_WORD	5977039	wordpools/wasnorm_wordpool_576.txt	LTP364	ltpFR2	7	13	CUPBOARD	425	n/a	n/a	0	0	0
2919.35107421875	n/a	REC_WORD	5978831	wordpools/wasnorm_wordpool_576.txt	LTP364	ltpFR2	7	13	DAUGHTER	442	n/a	n/a	0	0	0
2925.52880859375	n/a	REC_WORD_VV	5991483	wordpools/wasnorm_wordpool_576.txt	LTP364	ltpFR2	7	13	<>	-1	n/a	n/a	0	0	0
2926.52880859375	n/a	REC_WORD_VV	5993531	wordpools/wasnorm_wordpool_576.txt	LTP364	ltpFR2	7	13	<>	-1	n/a	n/a	0	0	0
2927.52880859375	n/a	REC_WORD_VV	5995579	wordpools/wasnorm_wordpool_576.txt	LTP364	ltpFR2	7	13	<>	-1	n/a	n/a	0	0	0
2930.3037109375	n/a	REC_WORD	6001262	wordpools/wasnorm_wordpool_576.txt	LTP364	ltpFR2	7	13	OINTMENT	974	n/a	n/a	0	0	0
2933.4453125	n/a	REC_WORD	6007696	wordpools/wasnorm_wordpool_576.txt	LTP364	ltpFR2	7	13	PLAID	1080	n/a	n/a	0	0	0
2936.6982421875	n/a	REC_WORD	6014358	wordpools/wasnorm_wordpool_576.txt	LTP364	ltpFR2	7	13	BUNNY	198	n/a	n/a	0	0	0
2942.71533203125	n/a	REC_WORD	6026681	wordpools/wasnorm_wordpool_576.txt	LTP364	ltpFR2	7	13	BUNNY	198	n/a	n/a	0	0	0
2943.8681640625	n/a	REC_WORD	6029042	wordpools/wasnorm_wordpool_576.txt	LTP364	ltpFR2	7	13	QUAIL	1147	n/a	n/a	0	0	0
2945.09716796875	n/a	REC_WORD	6031559	wordpools/wasnorm_wordpool_576.txt	LTP364	ltpFR2	7	13	DRILL	497	n/a	n/a	0	0	0
2948.22998046875	n/a	REC_WORD	6037975	wordpools/wasnorm_wordpool_576.txt	LTP364	ltpFR2	7	13	GAVEL	627	n/a	n/a	0	0	0
2973.2421875	n/a	WORD	6089200	wordpools/wasnorm_wordpool_576.txt	LTP364	ltpFR2	7	14	RABBIT	1152	n/a	n/a	0	0	0
2975.7900390625	n/a	WORD	6094418	wordpools/wasnorm_wordpool_576.txt	LTP364	ltpFR2	7	14	GLASS	639	n/a	n/a	0	0	0
2978.50634765625	n/a	WORD	6099981	wordpools/wasnorm_wordpool_576.txt	LTP364	ltpFR2	7	14	HEADBAND	696	n/a	n/a	0	0	0
2981.12109375	n/a	WORD	6105336	wordpools/wasnorm_wordpool_576.txt	LTP364	ltpFR2	7	14	SUSPECT	1415	n/a	n/a	0	0	0
2983.80322265625	n/a	WORD	6110829	wordpools/wasnorm_wordpool_576.txt	LTP364	ltpFR2	7	14	FLAG	573	n/a	n/a	0	0	0
2986.60107421875	n/a	WORD	6116559	wordpools/wasnorm_wordpool_576.txt	LTP364	ltpFR2	7	14	PARROT	1015	n/a	n/a	0	0	0
2989.35107421875	n/a	WORD	6122191	wordpools/wasnorm_wordpool_576.txt	LTP364	ltpFR2	7	14	HATCHET	691	n/a	n/a	0	0	0
2992.16552734375	n/a	WORD	6127955	wordpools/wasnorm_wordpool_576.txt	LTP364	ltpFR2	7	14	CIGAR	308	n/a	n/a	0	0	0
2994.7138671875	n/a	WORD	6133174	wordpools/wasnorm_wordpool_576.txt	LTP364	ltpFR2	7	14	PIMPLE	1071	n/a	n/a	0	0	0
2997.36376953125	n/a	WORD	6138601	wordpools/wasnorm_wordpool_576.txt	LTP364	ltpFR2	7	14	NOMAD	955	n/a	n/a	0	0	0
2999.82958984375	n/a	WORD	6143651	wordpools/wasnorm_wordpool_576.txt	LTP364	ltpFR2	7	14	EMPIRE	530	n/a	n/a	0	0	0
3002.3115234375	n/a	WORD	6148734	wordpools/wasnorm_wordpool_576.txt	LTP364	ltpFR2	7	14	CHILD	299	n/a	n/a	0	0	0
3005.12646484375	n/a	WORD	6154499	wordpools/wasnorm_wordpool_576.txt	LTP364	ltpFR2	7	14	SIBLING	1301	n/a	n/a	0	0	0
3007.87548828125	n/a	WORD	6160129	wordpools/wasnorm_wordpool_576.txt	LTP364	ltpFR2	7	14	MARKET	871	n/a	n/a	0	0	0
3010.68896484375	n/a	WORD	6165891	wordpools/wasnorm_wordpool_576.txt	LTP364	ltpFR2	7	14	EUROPE	541	n/a	n/a	0	0	0
3013.2060546875	n/a	WORD	6171046	wordpools/wasnorm_wordpool_576.txt	LTP364	ltpFR2	7	14	SPOON	1357	n/a	n/a	0	0	0
3015.955078125	n/a	WORD	6176676	wordpools/wasnorm_wordpool_576.txt	LTP364	ltpFR2	7	14	HORNET	718	n/a	n/a	0	0	0
3018.73583984375	n/a	WORD	6182371	wordpools/wasnorm_wordpool_576.txt	LTP364	ltpFR2	7	14	WASP	1593	n/a	n/a	0	0	0
3021.251953125	n/a	WORD	6187524	wordpools/wasnorm_wordpool_576.txt	LTP364	ltpFR2	7	14	SNACK	1331	n/a	n/a	0	0	0
3024.06787109375	n/a	WORD	6193291	wordpools/wasnorm_wordpool_576.txt	LTP364	ltpFR2	7	14	PLATE	1086	n/a	n/a	0	0	0
3026.58154296875	n/a	WORD	6198439	wordpools/wasnorm_wordpool_576.txt	LTP364	ltpFR2	7	14	EAGLE	512	n/a	n/a	0	0	0
3029.3818359375	n/a	WORD	6204174	wordpools/wasnorm_wordpool_576.txt	LTP364	ltpFR2	7	14	FLOWER	584	n/a	n/a	0	0	0
3031.96337890625	n/a	WORD	6209461	wordpools/wasnorm_wordpool_576.txt	LTP364	ltpFR2	7	14	TART	1436	n/a	n/a	0	0	0
3034.5126953125	n/a	WORD	6214682	wordpools/wasnorm_wordpool_576.txt	LTP364	ltpFR2	7	14	ONION	977	n/a	n/a	0	0	0
3036.12841796875	n/a	START	6217991	n/a	LTP364	ltpFR2	7	n/a	n/a	n/a	21	n/a	n/a	n/a	n/a
3037.18359375	n/a	DISTRACTOR	6220152	n/a	LTP364	ltpFR2	7	14	n/a	n/a	n/a	n/a	0	0	0
3037.1943359375	n/a	PROB	6220174	n/a	LTP364	ltpFR2	7	n/a	n/a	n/a	21	11	1	3	7
3038.943359375	n/a	PROB	6223756	n/a	LTP364	ltpFR2	7	n/a	n/a	n/a	21	12	1	5	6
3040.525390625	n/a	PROB	6226996	n/a	LTP364	ltpFR2	7	n/a	n/a	n/a	21	19	6	7	6
3043.05810546875	n/a	PROB	6232183	n/a	LTP364	ltpFR2	7	n/a	n/a	n/a	21	14	4	8	2
3044.50732421875	n/a	PROB	6235151	n/a	LTP364	ltpFR2	7	n/a	n/a	n/a	21	24	9	6	9
3050.455078125	n/a	PROB	6247332	n/a	LTP364	ltpFR2	7	n/a	n/a	n/a	21	15	4	2	9
3053.18701171875	n/a	PROB	6252927	n/a	LTP364	ltpFR2	7	n/a	n/a	n/a	21	19	7	9	3
3055.85205078125	n/a	PROB	6258385	n/a	LTP364	ltpFR2	7	n/a	n/a	n/a	21	14	4	6	4
3057.31787109375	n/a	PROB	6261387	n/a	LTP364	ltpFR2	7	n/a	n/a	n/a	21	9	7	1	1
3058.9228515625	n/a	STOP	6264674	n/a	LTP364	ltpFR2	7	n/a	n/a	n/a	21	n/a	n/a	n/a	n/a
3062.06640625	n/a	REC_START	6271112	n/a	LTP364	ltpFR2	7	14	n/a	n/a	n/a	n/a	0	0	0
3065.08056640625	n/a	REC_WORD	6277285	wordpools/wasnorm_wordpool_576.txt	LTP364	ltpFR2	7	14	GLASS	639	n/a	n/a	0	0	0
3065.8994140625	n/a	REC_WORD	6278962	wordpools/wasnorm_wordpool_576.txt	LTP364	ltpFR2	7	14	RABBIT	1152	n/a	n/a	0	0	0
3068.482421875	n/a	REC_WORD	6284252	wordpools/wasnorm_wordpool_576.txt	LTP364	ltpFR2	7	14	SUSPECT	1415	n/a	n/a	0	0	0
3071.08154296875	n/a	REC_WORD	6289575	wordpools/wasnorm_wordpool_576.txt	LTP364	ltpFR2	7	14	HEADBAND	696	n/a	n/a	0	0	0
3072.7880859375	n/a	REC_WORD	6293070	wordpools/wasnorm_wordpool_576.txt	LTP364	ltpFR2	7	14	PARROT	1015	n/a	n/a	0	0	0
3073.7841796875	n/a	REC_WORD	6295110	wordpools/wasnorm_wordpool_576.txt	LTP364	ltpFR2	7	14	HATCHET	691	n/a	n/a	0	0	0
3074.63525390625	n/a	REC_WORD	6296853	wordpools/wasnorm_wordpool_576.txt	LTP364	ltpFR2	7	14	CIGAR	308	n/a	n/a	0	0	0
3075.60107421875	n/a	REC_WORD	6298831	wordpools/wasnorm_wordpool_576.txt	LTP364	ltpFR2	7	14	PIMPLE	1071	n/a	n/a	0	0	0
3076.71630859375	n/a	REC_WORD	6301115	wordpools/wasnorm_wordpool_576.txt	LTP364	ltpFR2	7	14	NOMAD	955	n/a	n/a	0	0	0
3077.6650390625	n/a	REC_WORD	6303058	wordpools/wasnorm_wordpool_576.txt	LTP364	ltpFR2	7	14	EMPIRE	530	n/a	n/a	0	0	0
3084.2880859375	n/a	REC_WORD	6316622	wordpools/wasnorm_wordpool_576.txt	LTP364	ltpFR2	7	14	BABY	64	n/a	n/a	0	0	0
3084.9697265625	n/a	REC_WORD	6318018	wordpools/wasnorm_wordpool_576.txt	LTP364	ltpFR2	7	14	SIBLING	1301	n/a	n/a	0	0	0
3089.3798828125	n/a	REC_WORD	6327050	wordpools/wasnorm_wordpool_576.txt	LTP364	ltpFR2	7	14	MARKET	871	n/a	n/a	0	0	0
3090.1416015625	n/a	REC_WORD	6328610	wordpools/wasnorm_wordpool_576.txt	LTP364	ltpFR2	7	14	EUROPE	541	n/a	n/a	0	0	0
3091.23681640625	n/a	REC_WORD	6330853	wordpools/wasnorm_wordpool_576.txt	LTP364	ltpFR2	7	14	SPOON	1357	n/a	n/a	0	0	0
3094.28662109375	n/a	REC_WORD	6337099	wordpools/wasnorm_wordpool_576.txt	LTP364	ltpFR2	7	14	HORNET	718	n/a	n/a	0	0	0
3095.142578125	n/a	REC_WORD	6338852	wordpools/wasnorm_wordpool_576.txt	LTP364	ltpFR2	7	14	WASP	1593	n/a	n/a	0	0	0
3097.353515625	n/a	REC_WORD	6343380	wordpools/wasnorm_wordpool_576.txt	LTP364	ltpFR2	7	14	SNACK	1331	n/a	n/a	0	0	0
3099.34326171875	n/a	REC_WORD	6347455	wordpools/wasnorm_wordpool_576.txt	LTP364	ltpFR2	7	14	PLATE	1086	n/a	n/a	0	0	0
3100.5302734375	n/a	REC_WORD	6349886	wordpools/wasnorm_wordpool_576.txt	LTP364	ltpFR2	7	14	EAGLE	512	n/a	n/a	0	0	0
3101.2822265625	n/a	REC_WORD	6351426	wordpools/wasnorm_wordpool_576.txt	LTP364	ltpFR2	7	14	FLOWER	584	n/a	n/a	0	0	0
3104.1494140625	n/a	REC_WORD	6357298	wordpools/wasnorm_wordpool_576.txt	LTP364	ltpFR2	7	14	TART	1436	n/a	n/a	0	0	0
3104.87255859375	n/a	REC_WORD	6358779	wordpools/wasnorm_wordpool_576.txt	LTP364	ltpFR2	7	14	ONION	977	n/a	n/a	0	0	0
3123.22900390625	n/a	REC_WORD	6396373	wordpools/wasnorm_wordpool_576.txt	LTP364	ltpFR2	7	14	HIP	710	n/a	n/a	0	0	0
3152.52099609375	n/a	WORD	6456363	wordpools/wasnorm_wordpool_576.txt	LTP364	ltpFR2	7	15	WORKER	1621	n/a	n/a	0	0	0
3154.95361328125	n/a	WORD	6461345	wordpools/wasnorm_wordpool_576.txt	LTP364	ltpFR2	7	15	LION	827	n/a	n/a	0	0	0
3157.751953125	n/a	WORD	6467076	wordpools/wasnorm_wordpool_576.txt	LTP364	ltpFR2	7	15	LEADER	807	n/a	n/a	0	0	0
3160.40185546875	n/a	WORD	6472503	wordpools/wasnorm_wordpool_576.txt	LTP364	ltpFR2	7	15	SHIRT	1287	n/a	n/a	0	0	0
3162.8837890625	n/a	WORD	6477586	wordpools/wasnorm_wordpool_576.txt	LTP364	ltpFR2	7	15	PRIMATE	1123	n/a	n/a	0	0	0
3165.58154296875	n/a	WORD	6483111	wordpools/wasnorm_wordpool_576.txt	LTP364	ltpFR2	7	15	PANTHER	1009	n/a	n/a	0	0	0
3168.3642578125	n/a	WORD	6488810	wordpools/wasnorm_wordpool_576.txt	LTP364	ltpFR2	7	15	SKETCH	1315	n/a	n/a	0	0	0
3170.9462890625	n/a	WORD	6494098	wordpools/wasnorm_wordpool_576.txt	LTP364	ltpFR2	7	15	BOX	159	n/a	n/a	0	0	0
3173.67724609375	n/a	WORD	6499691	wordpools/wasnorm_wordpool_576.txt	LTP364	ltpFR2	7	15	MEAT	883	n/a	n/a	0	0	0
3176.3271484375	n/a	WORD	6505118	wordpools/wasnorm_wordpool_576.txt	LTP364	ltpFR2	7	15	LIVER	833	n/a	n/a	0	0	0
3178.97607421875	n/a	WORD	6510543	wordpools/wasnorm_wordpool_576.txt	LTP364	ltpFR2	7	15	CHURCH	307	n/a	n/a	0	0	0
3181.60693359375	n/a	WORD	6515931	wordpools/wasnorm_wordpool_576.txt	LTP364	ltpFR2	7	15	CROSS	413	n/a	n/a	0	0	0
3184.05712890625	n/a	WORD	6520949	wordpools/wasnorm_wordpool_576.txt	LTP364	ltpFR2	7	15	REBEL	1172	n/a	n/a	0	0	0
3186.8388671875	n/a	WORD	6526646	wordpools/wasnorm_wordpool_576.txt	LTP364	ltpFR2	7	15	PAIL	1002	n/a	n/a	0	0	0
3189.32080078125	n/a	WORD	6531729	wordpools/wasnorm_wordpool_576.txt	LTP364	ltpFR2	7	15	JUNGLE	764	n/a	n/a	0	0	0
3192.052734375	n/a	WORD	6537324	wordpools/wasnorm_wordpool_576.txt	LTP364	ltpFR2	7	15	COUNTRY	388	n/a	n/a	0	0	0
3194.6337890625	n/a	WORD	6542610	wordpools/wasnorm_wordpool_576.txt	LTP364	ltpFR2	7	15	STOVE	1388	n/a	n/a	0	0	0
3197.400390625	n/a	WORD	6548276	wordpools/wasnorm_wordpool_576.txt	LTP364	ltpFR2	7	15	CRAYON	401	n/a	n/a	0	0	0
3199.865234375	n/a	WORD	6553324	wordpools/wasnorm_wordpool_576.txt	LTP364	ltpFR2	7	15	DRAWING	494	n/a	n/a	0	0	0
3202.68017578125	n/a	WORD	6559089	wordpools/wasnorm_wordpool_576.txt	LTP364	ltpFR2	7	15	HUSBAND	728	n/a	n/a	0	0	0
3205.12939453125	n/a	WORD	6564105	wordpools/wasnorm_wordpool_576.txt	LTP364	ltpFR2	7	15	MISTER	901	n/a	n/a	0	0	0
3207.744140625	n/a	WORD	6569460	wordpools/wasnorm_wordpool_576.txt	LTP364	ltpFR2	7	15	RIVER	1194	n/a	n/a	0	0	0
3210.17724609375	n/a	WORD	6574443	wordpools/wasnorm_wordpool_576.txt	LTP364	ltpFR2	7	15	GUITAR	670	n/a	n/a	0	0	0
3212.7080078125	n/a	WORD	6579626	wordpools/wasnorm_wordpool_576.txt	LTP364	ltpFR2	7	15	COUNTY	389	n/a	n/a	0	0	0
3214.3251953125	n/a	START	6582938	n/a	LTP364	ltpFR2	7	n/a	n/a	n/a	22	n/a	n/a	n/a	n/a
3215.15283203125	n/a	DISTRACTOR	6584633	n/a	LTP364	ltpFR2	7	15	n/a	n/a	n/a	n/a	0	0	0
3215.158203125	n/a	PROB	6584644	n/a	LTP364	ltpFR2	7	n/a	n/a	n/a	22	18	8	2	8
3217.07373046875	n/a	PROB	6588567	n/a	LTP364	ltpFR2	7	n/a	n/a	n/a	22	18	9	4	5
3219.2900390625	n/a	PROB	6593106	n/a	LTP364	ltpFR2	7	n/a	n/a	n/a	22	9	2	3	4
3221.0888671875	n/a	PROB	6596790	n/a	LTP364	ltpFR2	7	n/a	n/a	n/a	22	16	7	7	2
3222.93798828125	n/a	PROB	6600577	n/a	LTP364	ltpFR2	7	n/a	n/a	n/a	22	17	9	5	3
3225.13671875	n/a	PROB	6605080	n/a	LTP364	ltpFR2	7	n/a	n/a	n/a	22	16	3	5	8
3227.302734375	n/a	PROB	6609516	n/a	LTP364	ltpFR2	7	n/a	n/a	n/a	22	21	7	7	7
3228.80078125	n/a	PROB	6612584	n/a	LTP364	ltpFR2	7	n/a	n/a	n/a	22	9	3	3	3
3230.11767578125	n/a	PROB	6615281	n/a	LTP364	ltpFR2	7	n/a	n/a	n/a	22	9	2	1	6
3231.78271484375	n/a	PROB	6618691	n/a	LTP364	ltpFR2	7	n/a	n/a	n/a	22	18	4	6	8
3233.19921875	n/a	PROB	6621592	n/a	LTP364	ltpFR2	7	n/a	n/a	n/a	22	19	9	8	2
3234.76416015625	n/a	PROB	6624797	n/a	LTP364	ltpFR2	7	n/a	n/a	n/a	22	18	4	5	9
3236.41455078125	n/a	PROB	6628177	n/a	LTP364	ltpFR2	7	n/a	n/a	n/a	22	8	2	4	2
3238.21826171875	n/a	STOP	6631871	n/a	LTP364	ltpFR2	7	n/a	n/a	n/a	22	n/a	n/a	n/a	n/a
3240.26318359375	n/a	REC_START	6636059	n/a	LTP364	ltpFR2	7	15	n/a	n/a	n/a	n/a	0	0	0
3242.8623046875	n/a	REC_WORD	6641382	wordpools/wasnorm_wordpool_576.txt	LTP364	ltpFR2	7	15	JUNGLE	764	n/a	n/a	0	0	0
3243.7490234375	n/a	REC_WORD	6643198	wordpools/wasnorm_wordpool_576.txt	LTP364	ltpFR2	7	15	LAND	-1	n/a	n/a	0	0	0
3244.451171875	n/a	REC_WORD	6644636	wordpools/wasnorm_wordpool_576.txt	LTP364	ltpFR2	7	15	COUNTY	389	n/a	n/a	0	0	0
3247.9560546875	n/a	REC_WORD	6651814	wordpools/wasnorm_wordpool_576.txt	LTP364	ltpFR2	7	15	RIVER	1194	n/a	n/a	0	0	0
3249.33203125	n/a	REC_WORD	6654632	wordpools/wasnorm_wordpool_576.txt	LTP364	ltpFR2	7	15	PANTHER	1009	n/a	n/a	0	0	0
3250.55908203125	n/a	REC_WORD	6657145	wordpools/wasnorm_wordpool_576.txt	LTP364	ltpFR2	7	15	DRAWING	494	n/a	n/a	0	0	0
3251.2490234375	n/a	REC_WORD	6658558	wordpools/wasnorm_wordpool_576.txt	LTP364	ltpFR2	7	15	SKETCH	1315	n/a	n/a	0	0	0
3252.04296875	n/a	REC_WORD	6660184	wordpools/wasnorm_wordpool_576.txt	LTP364	ltpFR2	7	15	CRAYON	401	n/a	n/a	0	0	0
3253.4189453125	n/a	REC_WORD	6663002	wordpools/wasnorm_wordpool_576.txt	LTP364	ltpFR2	7	15	BOX	159	n/a	n/a	0	0	0
3254.20068359375	n/a	REC_WORD	6664603	wordpools/wasnorm_wordpool_576.txt	LTP364	ltpFR2	7	15	SHIRT	1287	n/a	n/a	0	0	0
3264.15869140625	n/a	REC_WORD	6684997	wordpools/wasnorm_wordpool_576.txt	LTP364	ltpFR2	7	15	CHIMPANZEE	302	n/a	n/a	0	0	0
3267.12939453125	n/a	REC_WORD	6691081	wordpools/wasnorm_wordpool_576.txt	LTP364	ltpFR2	7	15	MEAT	883	n/a	n/a	0	0	0
3267.9462890625	n/a	REC_WORD	6692754	wordpools/wasnorm_wordpool_576.txt	LTP364	ltpFR2	7	15	LIVER	833	n/a	n/a	0	0	0
3268.72314453125	n/a	REC_WORD	6694345	wordpools/wasnorm_wordpool_576.txt	LTP364	ltpFR2	7	15	CHURCH	307	n/a	n/a	0	0	0
3269.37939453125	n/a	REC_WORD	6695689	wordpools/wasnorm_wordpool_576.txt	LTP364	ltpFR2	7	15	CROSS	413	n/a	n/a	0	0	0
3278.80712890625	n/a	REC_WORD	6714997	wordpools/wasnorm_wordpool_576.txt	LTP364	ltpFR2	7	15	COUNTRY	388	n/a	n/a	0	0	0
3330.70166015625	n/a	DISTRACTOR	6821277	n/a	LTP364	ltpFR2	7	16	n/a	n/a	n/a	n/a	0	0	0
3330.70166015625	n/a	START	6821277	n/a	LTP364	ltpFR2	7	n/a	n/a	n/a	23	n/a	n/a	n/a	n/a
3330.71728515625	n/a	PROB	6821309	n/a	LTP364	ltpFR2	7	n/a	n/a	n/a	23	17	6	2	9
3335.6982421875	n/a	PROB	6831510	n/a	LTP364	ltpFR2	7	n/a	n/a	n/a	23	21	6	8	7
3341.51220703125	n/a	PROB	6843417	n/a	LTP364	ltpFR2	7	n/a	n/a	n/a	23	22	6	7	9
3345.8779296875	n/a	PROB	6852358	n/a	LTP364	ltpFR2	7	n/a	n/a	n/a	23	12	9	1	2
3347.79296875	n/a	PROB	6856280	n/a	LTP364	ltpFR2	7	n/a	n/a	n/a	23	13	8	2	3
3349.7919921875	n/a	PROB	6860374	n/a	LTP364	ltpFR2	7	n/a	n/a	n/a	23	19	8	9	2
3352.458984375	n/a	PROB	6865836	n/a	LTP364	ltpFR2	7	n/a	n/a	n/a	23	7	5	1	1
3353.890625	n/a	STOP	6868768	n/a	LTP364	ltpFR2	7	n/a	n/a	n/a	23	n/a	n/a	n/a	n/a
3355.52294921875	n/a	WORD	6872111	wordpools/wasnorm_wordpool_576.txt	LTP364	ltpFR2	7	16	CYCLONE	431	n/a	n/a	0	0	0
3358.005859375	n/a	WORD	6877196	wordpools/wasnorm_wordpool_576.txt	LTP364	ltpFR2	7	16	LAGOON	795	n/a	n/a	0	0	0
3360.736328125	n/a	WORD	6882788	wordpools/wasnorm_wordpool_576.txt	LTP364	ltpFR2	7	16	GOBLIN	645	n/a	n/a	0	0	0
3363.26953125	n/a	WORD	6887976	wordpools/wasnorm_wordpool_576.txt	LTP364	ltpFR2	7	16	TRENCH	1503	n/a	n/a	0	0	0
3365.83544921875	n/a	WORD	6893231	wordpools/wasnorm_wordpool_576.txt	LTP364	ltpFR2	7	16	GALLON	618	n/a	n/a	0	0	0
3368.38427734375	n/a	WORD	6898451	wordpools/wasnorm_wordpool_576.txt	LTP364	ltpFR2	7	16	HELMET	702	n/a	n/a	0	0	0
3370.84912109375	n/a	WORD	6903499	wordpools/wasnorm_wordpool_576.txt	LTP364	ltpFR2	7	16	DRESSER	496	n/a	n/a	0	0	0
3373.46533203125	n/a	WORD	6908857	wordpools/wasnorm_wordpool_576.txt	LTP364	ltpFR2	7	16	MUFFIN	929	n/a	n/a	0	0	0
3376.197265625	n/a	WORD	6914452	wordpools/wasnorm_wordpool_576.txt	LTP364	ltpFR2	7	16	COFFEE	341	n/a	n/a	0	0	0
3378.99609375	n/a	WORD	6920184	wordpools/wasnorm_wordpool_576.txt	LTP364	ltpFR2	7	16	SLIME	1327	n/a	n/a	0	0	0
