mstime	trial_type	stim_file	subject	experiment	session	trial	task	item_name	item_num	recog_resp	recog_conf	resp	color_r	color_g	color_b	case	font
0	SESS_START	n/a	LTP187	ltpFR	3	n/a	n/a	n/a	n/a	1	1	n/a	n/a	n/a	n/a	n/a	n/a
160615	WORD	wordpools/wasnorm_wordpool_less_exclusions.txt	LTP187	ltpFR	3	1	0	MAGAZINE	853	0	n/a	0	0.422607421875	0.5869140625	0	upper	zerothre.ttf
164600	WORD	wordpools/wasnorm_wordpool_less_exclusions.txt	LTP187	ltpFR	3	1	0	TOOTHPASTE	1483	n/a	n/a	0	0.422607421875	0.5869140625	0	upper	zerothre.ttf
168779	WORD	wordpools/wasnorm_wordpool_less_exclusions.txt	LTP187	ltpFR	3	1	0	WALRUS	1585	n/a	n/a	1	0.422607421875	0.5869140625	0	upper	zerothre.ttf
172928	WORD	wordpools/wasnorm_wordpool_less_exclusions.txt	LTP187	ltpFR	3	1	1	COLUMN	350	n/a	n/a	0	0.57763671875	0.412841796875	1	lower	amplitud.ttf
176843	WORD	wordpools/wasnorm_wordpool_less_exclusions.txt	LTP187	ltpFR	3	1	1	TEAM	1441	n/a	n/a	1	0.57763671875	0.412841796875	1	lower	amplitud.ttf
180875	WORD	wordpools/wasnorm_wordpool_less_exclusions.txt	LTP187	ltpFR	3	1	1	SPIDER	1351	n/a	n/a	1	0.57763671875	0.412841796875	1	lower	amplitud.ttf
184925	WORD	wordpools/wasnorm_wordpool_less_exclusions.txt	LTP187	ltpFR	3	1	1	LEOPARD	812	n/a	n/a	1	0.57763671875	0.412841796875	1	lower	amplitud.ttf
188754	WORD	wordpools/wasnorm_wordpool_less_exclusions.txt	LTP187	ltpFR	3	1	0	AFRICA	9	n/a	n/a	1	0.422607421875	0.5869140625	0	upper	zerothre.ttf
192703	WORD	wordpools/wasnorm_wordpool_less_exclusions.txt	LTP187	ltpFR	3	1	0	SUBMARINE	1398	n/a	n/a	1	0.422607421875	0.5869140625	0	upper	zerothre.ttf
196703	WORD	wordpools/wasnorm_wordpool_less_exclusions.txt	LTP187	ltpFR	3	1	0	FLEA	577	n/a	n/a	0	0.422607421875	0.5869140625	0	upper	zerothre.ttf
200766	WORD	wordpools/wasnorm_wordpool_less_exclusions.txt	LTP187	ltpFR	3	1	0	BURGLAR	200	n/a	n/a	1	0.422607421875	0.5869140625	0	upper	zerothre.ttf
204664	WORD	wordpools/wasnorm_wordpool_less_exclusions.txt	LTP187	ltpFR	3	1	0	CLAY	320	n/a	n/a	0	0.422607421875	0.5869140625	0	upper	zerothre.ttf
208663	WORD	wordpools/wasnorm_wordpool_less_exclusions.txt	LTP187	ltpFR	3	1	1	DONOR	485	n/a	n/a	1	0.57763671875	0.412841796875	1	lower	amplitud.ttf
212628	WORD	wordpools/wasnorm_wordpool_less_exclusions.txt	LTP187	ltpFR	3	1	1	HEART	697	n/a	n/a	1	0.57763671875	0.412841796875	1	lower	amplitud.ttf
216795	WORD	wordpools/wasnorm_wordpool_less_exclusions.txt	LTP187	ltpFR	3	1	1	VOLLEYBALL	1576	n/a	n/a	0	0.57763671875	0.412841796875	1	lower	amplitud.ttf
220975	WORD	wordpools/wasnorm_wordpool_less_exclusions.txt	LTP187	ltpFR	3	1	1	BUTTERFLY	206	n/a	n/a	1	0.57763671875	0.412841796875	1	lower	amplitud.ttf
226665	REC_START	n/a	LTP187	ltpFR	3	1	n/a	n/a	n/a	n/a	n/a	n/a	n/a	n/a	n/a	n/a	n/a
227517	REC_WORD	wordpools/wasnorm_wordpool_less_exclusions.txt	LTP187	ltpFR	3	1	1	BUTTERFLY	206	n/a	n/a	1	n/a	n/a	n/a	n/a	n/a
228517	REC_WORD_VV	wordpools/wasnorm_wordpool_less_exclusions.txt	LTP187	ltpFR	3	1	n/a	<>	-1	n/a	n/a	n/a	n/a	n/a	n/a	n/a	n/a
230132	REC_WORD	wordpools/wasnorm_wordpool_less_exclusions.txt	LTP187	ltpFR	3	1	0	AFRICA	9	n/a	n/a	1	n/a	n/a	n/a	n/a	n/a
232467	REC_WORD	wordpools/wasnorm_wordpool_less_exclusions.txt	LTP187	ltpFR	3	1	1	LEOPARD	812	n/a	n/a	1	n/a	n/a	n/a	n/a	n/a
235150	REC_WORD	wordpools/wasnorm_wordpool_less_exclusions.txt	LTP187	ltpFR	3	1	0	MAGAZINE	853	n/a	n/a	0	n/a	n/a	n/a	n/a	n/a
237550	REC_WORD	wordpools/wasnorm_wordpool_less_exclusions.txt	LTP187	ltpFR	3	1	0	CLAY	320	n/a	n/a	0	n/a	n/a	n/a	n/a	n/a
256158	REC_WORD	wordpools/wasnorm_wordpool_less_exclusions.txt	LTP187	ltpFR	3	1	0	WALRUS	1585	n/a	n/a	1	n/a	n/a	n/a	n/a	n/a
259480	REC_WORD	wordpools/wasnorm_wordpool_less_exclusions.txt	LTP187	ltpFR	3	1	1	TEAM	1441	n/a	n/a	1	n/a	n/a	n/a	n/a	n/a
261455	REC_WORD	wordpools/wasnorm_wordpool_less_exclusions.txt	LTP187	ltpFR	3	1	1	VOLLEYBALL	1576	n/a	n/a	0	n/a	n/a	n/a	n/a	n/a
281804	REC_WORD	wordpools/wasnorm_wordpool_less_exclusions.txt	LTP187	ltpFR	3	1	0	TOOTHPASTE	1483	n/a	n/a	0	n/a	n/a	n/a	n/a	n/a
285251	REC_WORD	wordpools/wasnorm_wordpool_less_exclusions.txt	LTP187	ltpFR	3	1	1	DONOR	485	n/a	n/a	1	n/a	n/a	n/a	n/a	n/a
296780	REC_WORD	wordpools/wasnorm_wordpool_less_exclusions.txt	LTP187	ltpFR	3	1	0	FLEA	577	n/a	n/a	0	n/a	n/a	n/a	n/a	n/a
350363	WORD	wordpools/wasnorm_wordpool_less_exclusions.txt	LTP187	ltpFR	3	2	1	BELL	118	n/a	n/a	0	0.57763671875	0.412841796875	1	lower	amplitud.ttf
354246	WORD	wordpools/wasnorm_wordpool_less_exclusions.txt	LTP187	ltpFR	3	2	1	SUITCASE	1403	n/a	n/a	0	0.57763671875	0.412841796875	1	lower	amplitud.ttf
358410	WORD	wordpools/wasnorm_wordpool_less_exclusions.txt	LTP187	ltpFR	3	2	1	COLT	349	n/a	n/a	1	0.57763671875	0.412841796875	1	lower	amplitud.ttf
362426	WORD	wordpools/wasnorm_wordpool_less_exclusions.txt	LTP187	ltpFR	3	2	1	POLITICIAN	1099	n/a	n/a	1	0.57763671875	0.412841796875	1	lower	amplitud.ttf
366307	WORD	wordpools/wasnorm_wordpool_less_exclusions.txt	LTP187	ltpFR	3	2	1	CRAB	397	n/a	n/a	1	0.57763671875	0.412841796875	1	lower	amplitud.ttf
370222	WORD	wordpools/wasnorm_wordpool_less_exclusions.txt	LTP187	ltpFR	3	2	0	WHALE	1601	n/a	n/a	1	0.422607421875	0.5869140625	0	upper	zerothre.ttf
374421	WORD	wordpools/wasnorm_wordpool_less_exclusions.txt	LTP187	ltpFR	3	2	0	TAPE	1433	n/a	n/a	0	0.422607421875	0.5869140625	0	upper	zerothre.ttf
378369	WORD	wordpools/wasnorm_wordpool_less_exclusions.txt	LTP187	ltpFR	3	2	0	TEMPLE	1448	n/a	n/a	1	0.422607421875	0.5869140625	0	upper	zerothre.ttf
382234	WORD	wordpools/wasnorm_wordpool_less_exclusions.txt	LTP187	ltpFR	3	2	0	COLESLAW	344	n/a	n/a	0	0.422607421875	0.5869140625	0	upper	zerothre.ttf
386383	WORD	wordpools/wasnorm_wordpool_less_exclusions.txt	LTP187	ltpFR	3	2	0	CELLO	268	n/a	n/a	1	0.422607421875	0.5869140625	0	upper	zerothre.ttf
390448	WORD	wordpools/wasnorm_wordpool_less_exclusions.txt	LTP187	ltpFR	3	2	0	ORCHID	982	n/a	n/a	0	0.422607421875	0.5869140625	0	upper	zerothre.ttf
394329	WORD	wordpools/wasnorm_wordpool_less_exclusions.txt	LTP187	ltpFR	3	2	1	TURNIP	1521	n/a	n/a	1	0.57763671875	0.412841796875	1	lower	amplitud.ttf
398227	WORD	wordpools/wasnorm_wordpool_less_exclusions.txt	LTP187	ltpFR	3	2	1	BATHROOM	99	n/a	n/a	0	0.57763671875	0.412841796875	1	lower	amplitud.ttf
402242	WORD	wordpools/wasnorm_wordpool_less_exclusions.txt	LTP187	ltpFR	3	2	1	FAUCET	555	n/a	n/a	0	0.57763671875	0.412841796875	1	lower	amplitud.ttf
406441	WORD	wordpools/wasnorm_wordpool_less_exclusions.txt	LTP187	ltpFR	3	2	0	COW	393	n/a	n/a	1	0.422607421875	0.5869140625	0	upper	zerothre.ttf
410278	WORD	wordpools/wasnorm_wordpool_less_exclusions.txt	LTP187	ltpFR	3	2	0	RESTAURANT	1187	n/a	n/a	1	0.422607421875	0.5869140625	0	upper	zerothre.ttf
416145	REC_START	n/a	LTP187	ltpFR	3	2	n/a	n/a	n/a	n/a	n/a	n/a	n/a	n/a	n/a	n/a	n/a
417871	REC_WORD	wordpools/wasnorm_wordpool_less_exclusions.txt	LTP187	ltpFR	3	2	0	COW	393	n/a	n/a	1	n/a	n/a	n/a	n/a	n/a
419841	REC_WORD	wordpools/wasnorm_wordpool_less_exclusions.txt	LTP187	ltpFR	3	2	1	BELL	118	n/a	n/a	0	n/a	n/a	n/a	n/a	n/a
423194	REC_WORD	wordpools/wasnorm_wordpool_less_exclusions.txt	LTP187	ltpFR	3	2	0	RESTAURANT	1187	n/a	n/a	1	n/a	n/a	n/a	n/a	n/a
427219	REC_WORD	wordpools/wasnorm_wordpool_less_exclusions.txt	LTP187	ltpFR	3	2	1	FAUCET	555	n/a	n/a	0	n/a	n/a	n/a	n/a	n/a
441931	REC_WORD	wordpools/wasnorm_wordpool_less_exclusions.txt	LTP187	ltpFR	3	2	1	BATHROOM	99	n/a	n/a	0	n/a	n/a	n/a	n/a	n/a
448980	REC_WORD	wordpools/wasnorm_wordpool_less_exclusions.txt	LTP187	ltpFR	3	2	1	COLT	349	n/a	n/a	1	n/a	n/a	n/a	n/a	n/a
463143	REC_WORD	wordpools/wasnorm_wordpool_less_exclusions.txt	LTP187	ltpFR	3	2	0	WHALE	1601	n/a	n/a	1	n/a	n/a	n/a	n/a	n/a
527213	WORD	wordpools/wasnorm_wordpool_less_exclusions.txt	LTP187	ltpFR	3	3	0	POLICE	1098	n/a	n/a	1	0.422607421875	0.5869140625	0	upper	zerothre.ttf
531366	WORD	wordpools/wasnorm_wordpool_less_exclusions.txt	LTP187	ltpFR	3	3	0	JURY	766	n/a	n/a	1	0.422607421875	0.5869140625	0	upper	zerothre.ttf
535361	WORD	wordpools/wasnorm_wordpool_less_exclusions.txt	LTP187	ltpFR	3	3	0	GOBLIN	645	n/a	n/a	1	0.422607421875	0.5869140625	0	upper	zerothre.ttf
539314	WORD	wordpools/wasnorm_wordpool_less_exclusions.txt	LTP187	ltpFR	3	3	0	CARNIVAL	245	n/a	n/a	1	0.422607421875	0.5869140625	0	upper	zerothre.ttf
543274	WORD	wordpools/wasnorm_wordpool_less_exclusions.txt	LTP187	ltpFR	3	3	0	CIRCUS	311	n/a	n/a	1	0.422607421875	0.5869140625	0	upper	zerothre.ttf
547222	WORD	wordpools/wasnorm_wordpool_less_exclusions.txt	LTP187	ltpFR	3	3	0	MONK	910	n/a	n/a	1	0.422607421875	0.5869140625	0	upper	zerothre.ttf
551136	WORD	wordpools/wasnorm_wordpool_less_exclusions.txt	LTP187	ltpFR	3	3	0	CREATURE	403	n/a	n/a	1	0.422607421875	0.5869140625	0	upper	zerothre.ttf
555151	WORD	wordpools/wasnorm_wordpool_less_exclusions.txt	LTP187	ltpFR	3	3	0	PELT	1040	n/a	n/a	1	0.422607421875	0.5869140625	0	upper	zerothre.ttf
559267	WORD	wordpools/wasnorm_wordpool_less_exclusions.txt	LTP187	ltpFR	3	3	0	BARLEY	88	n/a	n/a	0	0.422607421875	0.5869140625	0	upper	zerothre.ttf
563333	WORD	wordpools/wasnorm_wordpool_less_exclusions.txt	LTP187	ltpFR	3	3	0	TERMITE	1451	n/a	n/a	0	0.422607421875	0.5869140625	0	upper	zerothre.ttf
567381	WORD	wordpools/wasnorm_wordpool_less_exclusions.txt	LTP187	ltpFR	3	3	0	GUITAR	670	n/a	n/a	1	0.422607421875	0.5869140625	0	upper	zerothre.ttf
571397	WORD	wordpools/wasnorm_wordpool_less_exclusions.txt	LTP187	ltpFR	3	3	0	DESSERT	453	n/a	n/a	0	0.422607421875	0.5869140625	0	upper	zerothre.ttf
575512	WORD	wordpools/wasnorm_wordpool_less_exclusions.txt	LTP187	ltpFR	3	3	0	BUG	187	n/a	n/a	0	0.422607421875	0.5869140625	0	upper	zerothre.ttf
579427	WORD	wordpools/wasnorm_wordpool_less_exclusions.txt	LTP187	ltpFR	3	3	0	NOTE	958	n/a	n/a	0	0.422607421875	0.5869140625	0	upper	zerothre.ttf
583611	WORD	wordpools/wasnorm_wordpool_less_exclusions.txt	LTP187	ltpFR	3	3	0	OTTER	986	n/a	n/a	1	0.422607421875	0.5869140625	0	upper	zerothre.ttf
587474	WORD	wordpools/wasnorm_wordpool_less_exclusions.txt	LTP187	ltpFR	3	3	0	TIDE	1465	n/a	n/a	1	0.422607421875	0.5869140625	0	upper	zerothre.ttf
593044	REC_START	n/a	LTP187	ltpFR	3	3	n/a	n/a	n/a	n/a	n/a	n/a	n/a	n/a	n/a	n/a	n/a
594610	REC_WORD	wordpools/wasnorm_wordpool_less_exclusions.txt	LTP187	ltpFR	3	3	0	NOTE	958	n/a	n/a	0	n/a	n/a	n/a	n/a	n/a
597130	REC_WORD	wordpools/wasnorm_wordpool_less_exclusions.txt	LTP187	ltpFR	3	3	0	OTTER	986	n/a	n/a	1	n/a	n/a	n/a	n/a	n/a
599449	REC_WORD	wordpools/wasnorm_wordpool_less_exclusions.txt	LTP187	ltpFR	3	3	0	TIDE	1465	n/a	n/a	1	n/a	n/a	n/a	n/a	n/a
603365	REC_WORD	wordpools/wasnorm_wordpool_less_exclusions.txt	LTP187	ltpFR	3	3	0	CARNIVAL	245	n/a	n/a	1	n/a	n/a	n/a	n/a	n/a
605730	REC_WORD	wordpools/wasnorm_wordpool_less_exclusions.txt	LTP187	ltpFR	3	3	0	CIRCUS	311	n/a	n/a	1	n/a	n/a	n/a	n/a	n/a
609252	REC_WORD	wordpools/wasnorm_wordpool_less_exclusions.txt	LTP187	ltpFR	3	3	0	MONK	910	n/a	n/a	1	n/a	n/a	n/a	n/a	n/a
619334	REC_WORD	wordpools/wasnorm_wordpool_less_exclusions.txt	LTP187	ltpFR	3	3	0	BARLEY	88	n/a	n/a	0	n/a	n/a	n/a	n/a	n/a
623011	REC_WORD	wordpools/wasnorm_wordpool_less_exclusions.txt	LTP187	ltpFR	3	3	0	PELT	1040	n/a	n/a	1	n/a	n/a	n/a	n/a	n/a
625774	REC_WORD	wordpools/wasnorm_wordpool_less_exclusions.txt	LTP187	ltpFR	3	3	0	GUITAR	670	n/a	n/a	1	n/a	n/a	n/a	n/a	n/a
718618	WORD	wordpools/wasnorm_wordpool_less_exclusions.txt	LTP187	ltpFR	3	4	-1	WARRIOR	1589	n/a	n/a	-1	1.0	1.0	1	upper	Verdana.ttf
722834	WORD	wordpools/wasnorm_wordpool_less_exclusions.txt	LTP187	ltpFR	3	4	-1	STOMACH	1384	n/a	n/a	-1	1.0	1.0	1	upper	Verdana.ttf
726888	WORD	wordpools/wasnorm_wordpool_less_exclusions.txt	LTP187	ltpFR	3	4	-1	ATTIRE	57	n/a	n/a	-1	1.0	1.0	1	upper	Verdana.ttf
730833	WORD	wordpools/wasnorm_wordpool_less_exclusions.txt	LTP187	ltpFR	3	4	-1	DOORBELL	487	n/a	n/a	-1	1.0	1.0	1	upper	Verdana.ttf
734695	WORD	wordpools/wasnorm_wordpool_less_exclusions.txt	LTP187	ltpFR	3	4	-1	CONE	363	n/a	n/a	-1	1.0	1.0	1	upper	Verdana.ttf
738560	WORD	wordpools/wasnorm_wordpool_less_exclusions.txt	LTP187	ltpFR	3	4	-1	WRITER	1627	n/a	n/a	-1	1.0	1.0	1	upper	Verdana.ttf
742408	WORD	wordpools/wasnorm_wordpool_less_exclusions.txt	LTP187	ltpFR	3	4	-1	BINDER	127	n/a	n/a	-1	1.0	1.0	1	upper	Verdana.ttf
746390	WORD	wordpools/wasnorm_wordpool_less_exclusions.txt	LTP187	ltpFR	3	4	-1	CABINET	212	n/a	n/a	-1	1.0	1.0	1	upper	Verdana.ttf
750338	WORD	wordpools/wasnorm_wordpool_less_exclusions.txt	LTP187	ltpFR	3	4	-1	HAMMER	680	n/a	n/a	-1	1.0	1.0	1	upper	Verdana.ttf
754403	WORD	wordpools/wasnorm_wordpool_less_exclusions.txt	LTP187	ltpFR	3	4	-1	INTESTINE	742	n/a	n/a	-1	1.0	1.0	1	upper	Verdana.ttf
758267	WORD	wordpools/wasnorm_wordpool_less_exclusions.txt	LTP187	ltpFR	3	4	-1	CUB	419	n/a	n/a	-1	1.0	1.0	1	upper	Verdana.ttf
762416	WORD	wordpools/wasnorm_wordpool_less_exclusions.txt	LTP187	ltpFR	3	4	-1	BEDROOM	111	n/a	n/a	-1	1.0	1.0	1	upper	Verdana.ttf
766565	WORD	wordpools/wasnorm_wordpool_less_exclusions.txt	LTP187	ltpFR	3	4	-1	CROWN	415	n/a	n/a	-1	1.0	1.0	1	upper	Verdana.ttf
770664	WORD	wordpools/wasnorm_wordpool_less_exclusions.txt	LTP187	ltpFR	3	4	-1	PRINCESS	1125	n/a	n/a	-1	1.0	1.0	1	upper	Verdana.ttf
774780	WORD	wordpools/wasnorm_wordpool_less_exclusions.txt	LTP187	ltpFR	3	4	-1	POLYESTER	1100	n/a	n/a	-1	1.0	1.0	1	upper	Verdana.ttf
778728	WORD	wordpools/wasnorm_wordpool_less_exclusions.txt	LTP187	ltpFR	3	4	-1	FROST	609	n/a	n/a	-1	1.0	1.0	1	upper	Verdana.ttf
784417	REC_START	n/a	LTP187	ltpFR	3	4	n/a	n/a	n/a	n/a	n/a	n/a	n/a	n/a	n/a	n/a	n/a
786482	REC_WORD	wordpools/wasnorm_wordpool_less_exclusions.txt	LTP187	ltpFR	3	4	-1	PRINCESS	1125	n/a	n/a	-1	n/a	n/a	n/a	n/a	n/a
788572	REC_WORD	wordpools/wasnorm_wordpool_less_exclusions.txt	LTP187	ltpFR	3	4	-1	POLYESTER	1100	n/a	n/a	-1	n/a	n/a	n/a	n/a	n/a
790887	REC_WORD	wordpools/wasnorm_wordpool_less_exclusions.txt	LTP187	ltpFR	3	4	-1	FROST	609	n/a	n/a	-1	n/a	n/a	n/a	n/a	n/a
793496	REC_WORD	wordpools/wasnorm_wordpool_less_exclusions.txt	LTP187	ltpFR	3	4	-1	WARRIOR	1589	n/a	n/a	-1	n/a	n/a	n/a	n/a	n/a
795750	REC_WORD	wordpools/wasnorm_wordpool_less_exclusions.txt	LTP187	ltpFR	3	4	-1	STOMACH	1384	n/a	n/a	-1	n/a	n/a	n/a	n/a	n/a
798475	REC_WORD	wordpools/wasnorm_wordpool_less_exclusions.txt	LTP187	ltpFR	3	4	-1	INTESTINE	742	n/a	n/a	-1	n/a	n/a	n/a	n/a	n/a
811854	REC_WORD	wordpools/wasnorm_wordpool_less_exclusions.txt	LTP187	ltpFR	3	4	-1	DOORBELL	487	n/a	n/a	-1	n/a	n/a	n/a	n/a	n/a
906846	WORD	wordpools/wasnorm_wordpool_less_exclusions.txt	LTP187	ltpFR	3	5	0	ACORN	3	n/a	n/a	0	0.422607421875	0.5869140625	0	upper	zerothre.ttf
911009	WORD	wordpools/wasnorm_wordpool_less_exclusions.txt	LTP187	ltpFR	3	5	0	LIP	828	n/a	n/a	0	0.422607421875	0.5869140625	0	upper	zerothre.ttf
915074	WORD	wordpools/wasnorm_wordpool_less_exclusions.txt	LTP187	ltpFR	3	5	0	RACCOON	1153	n/a	n/a	0	0.422607421875	0.5869140625	0	upper	zerothre.ttf
919089	WORD	wordpools/wasnorm_wordpool_less_exclusions.txt	LTP187	ltpFR	3	5	0	GRIZZLY	662	n/a	n/a	1	0.422607421875	0.5869140625	0	upper	zerothre.ttf
922938	WORD	wordpools/wasnorm_wordpool_less_exclusions.txt	LTP187	ltpFR	3	5	0	CURB	426	n/a	n/a	0	0.422607421875	0.5869140625	0	upper	zerothre.ttf
926838	WORD	wordpools/wasnorm_wordpool_less_exclusions.txt	LTP187	ltpFR	3	5	0	NAVIGATOR	938	n/a	n/a	1	0.422607421875	0.5869140625	0	upper	zerothre.ttf
930784	WORD	wordpools/wasnorm_wordpool_less_exclusions.txt	LTP187	ltpFR	3	5	0	YACHT	1629	n/a	n/a	1	0.422607421875	0.5869140625	0	upper	zerothre.ttf
934621	WORD	wordpools/wasnorm_wordpool_less_exclusions.txt	LTP187	ltpFR	3	5	0	FIG	563	n/a	n/a	0	0.422607421875	0.5869140625	0	upper	zerothre.ttf
938566	WORD	wordpools/wasnorm_wordpool_less_exclusions.txt	LTP187	ltpFR	3	5	0	SLUG	1329	n/a	n/a	0	0.422607421875	0.5869140625	0	upper	zerothre.ttf
942529	WORD	wordpools/wasnorm_wordpool_less_exclusions.txt	LTP187	ltpFR	3	5	0	MULE	931	n/a	n/a	1	0.422607421875	0.5869140625	0	upper	zerothre.ttf
946393	WORD	wordpools/wasnorm_wordpool_less_exclusions.txt	LTP187	ltpFR	3	5	0	DEPUTY	450	n/a	n/a	1	0.422607421875	0.5869140625	0	upper	zerothre.ttf
950477	WORD	wordpools/wasnorm_wordpool_less_exclusions.txt	LTP187	ltpFR	3	5	0	AUTOMOBILE	62	n/a	n/a	1	0.422607421875	0.5869140625	0	upper	zerothre.ttf
954356	WORD	wordpools/wasnorm_wordpool_less_exclusions.txt	LTP187	ltpFR	3	5	0	JAW	751	n/a	n/a	0	0.422607421875	0.5869140625	0	upper	zerothre.ttf
958221	WORD	wordpools/wasnorm_wordpool_less_exclusions.txt	LTP187	ltpFR	3	5	0	TRAIN	1494	n/a	n/a	1	0.422607421875	0.5869140625	0	upper	zerothre.ttf
962354	WORD	wordpools/wasnorm_wordpool_less_exclusions.txt	LTP187	ltpFR	3	5	0	EYE	545	n/a	n/a	0	0.422607421875	0.5869140625	0	upper	zerothre.ttf
966268	WORD	wordpools/wasnorm_wordpool_less_exclusions.txt	LTP187	ltpFR	3	5	0	GLASSES	640	n/a	n/a	0	0.422607421875	0.5869140625	0	upper	zerothre.ttf
972157	REC_START	n/a	LTP187	ltpFR	3	5	n/a	n/a	n/a	n/a	n/a	n/a	n/a	n/a	n/a	n/a	n/a
973998	REC_WORD	wordpools/wasnorm_wordpool_less_exclusions.txt	LTP187	ltpFR	3	5	0	EYE	545	n/a	n/a	0	n/a	n/a	n/a	n/a	n/a
976103	REC_WORD	wordpools/wasnorm_wordpool_less_exclusions.txt	LTP187	ltpFR	3	5	0	GLASSES	640	n/a	n/a	0	n/a	n/a	n/a	n/a	n/a
988290	REC_WORD	wordpools/wasnorm_wordpool_less_exclusions.txt	LTP187	ltpFR	3	5	0	AUTOMOBILE	62	n/a	n/a	1	n/a	n/a	n/a	n/a	n/a
1014925	REC_WORD	wordpools/wasnorm_wordpool_less_exclusions.txt	LTP187	ltpFR	3	5	0	POLICE	1098	n/a	n/a	1	n/a	n/a	n/a	n/a	n/a
1039109	REC_WORD	wordpools/wasnorm_wordpool_less_exclusions.txt	LTP187	ltpFR	3	5	0	SLUG	1329	n/a	n/a	0	n/a	n/a	n/a	n/a	n/a
1045625	REC_WORD	wordpools/wasnorm_wordpool_less_exclusions.txt	LTP187	ltpFR	3	5	0	ACORN	3	n/a	n/a	0	n/a	n/a	n/a	n/a	n/a
1102735	WORD	wordpools/wasnorm_wordpool_less_exclusions.txt	LTP187	ltpFR	3	6	0	FOREST	593	n/a	n/a	1	0.422607421875	0.5869140625	0	upper	zerothre.ttf
1106864	WORD	wordpools/wasnorm_wordpool_less_exclusions.txt	LTP187	ltpFR	3	6	0	FEMALE	559	n/a	n/a	1	0.422607421875	0.5869140625	0	upper	zerothre.ttf
1110996	WORD	wordpools/wasnorm_wordpool_less_exclusions.txt	LTP187	ltpFR	3	6	0	CITY	314	n/a	n/a	1	0.422607421875	0.5869140625	0	upper	zerothre.ttf
1115111	WORD	wordpools/wasnorm_wordpool_less_exclusions.txt	LTP187	ltpFR	3	6	0	ROOF	1205	n/a	n/a	1	0.422607421875	0.5869140625	0	upper	zerothre.ttf
1118943	WORD	wordpools/wasnorm_wordpool_less_exclusions.txt	LTP187	ltpFR	3	6	1	EYELASH	546	n/a	n/a	0	0.57763671875	0.412841796875	1	lower	amplitud.ttf
1122810	WORD	wordpools/wasnorm_wordpool_less_exclusions.txt	LTP187	ltpFR	3	6	1	LIPSTICK	829	n/a	n/a	0	0.57763671875	0.412841796875	1	lower	amplitud.ttf
1126873	WORD	wordpools/wasnorm_wordpool_less_exclusions.txt	LTP187	ltpFR	3	6	1	PEDESTRIAN	1038	n/a	n/a	1	0.57763671875	0.412841796875	1	lower	amplitud.ttf
1130939	WORD	wordpools/wasnorm_wordpool_less_exclusions.txt	LTP187	ltpFR	3	6	1	ATTIC	56	n/a	n/a	0	0.57763671875	0.412841796875	1	lower	amplitud.ttf
1135003	WORD	wordpools/wasnorm_wordpool_less_exclusions.txt	LTP187	ltpFR	3	6	1	JELLO	754	n/a	n/a	0	0.57763671875	0.412841796875	1	lower	amplitud.ttf
1138908	WORD	wordpools/wasnorm_wordpool_less_exclusions.txt	LTP187	ltpFR	3	6	0	PASTRY	1022	n/a	n/a	0	0.422607421875	0.5869140625	0	upper	zerothre.ttf
1142766	WORD	wordpools/wasnorm_wordpool_less_exclusions.txt	LTP187	ltpFR	3	6	0	SHOP	1290	n/a	n/a	1	0.422607421875	0.5869140625	0	upper	zerothre.ttf
1146882	WORD	wordpools/wasnorm_wordpool_less_exclusions.txt	LTP187	ltpFR	3	6	0	WRIST	1626	n/a	n/a	0	0.422607421875	0.5869140625	0	upper	zerothre.ttf
1150950	WORD	wordpools/wasnorm_wordpool_less_exclusions.txt	LTP187	ltpFR	3	6	0	SHOULDER	1294	n/a	n/a	0	0.422607421875	0.5869140625	0	upper	zerothre.ttf
1155129	WORD	wordpools/wasnorm_wordpool_less_exclusions.txt	LTP187	ltpFR	3	6	1	ELM	527	n/a	n/a	1	0.57763671875	0.412841796875	1	lower	amplitud.ttf
1159161	WORD	wordpools/wasnorm_wordpool_less_exclusions.txt	LTP187	ltpFR	3	6	1	BAKER	71	n/a	n/a	1	0.57763671875	0.412841796875	1	lower	amplitud.ttf
1163328	WORD	wordpools/wasnorm_wordpool_less_exclusions.txt	LTP187	ltpFR	3	6	1	BOULEVARD	156	n/a	n/a	0	0.57763671875	0.412841796875	1	lower	amplitud.ttf
1169250	REC_START	n/a	LTP187	ltpFR	3	6	n/a	n/a	n/a	n/a	n/a	n/a	n/a	n/a	n/a	n/a	n/a
1171649	REC_WORD	wordpools/wasnorm_wordpool_less_exclusions.txt	LTP187	ltpFR	3	6	1	BAKER	71	n/a	n/a	1	n/a	n/a	n/a	n/a	n/a
1174054	REC_WORD	wordpools/wasnorm_wordpool_less_exclusions.txt	LTP187	ltpFR	3	6	1	BOULEVARD	156	n/a	n/a	0	n/a	n/a	n/a	n/a	n/a
1176428	REC_WORD	wordpools/wasnorm_wordpool_less_exclusions.txt	LTP187	ltpFR	3	6	0	FOREST	593	n/a	n/a	1	n/a	n/a	n/a	n/a	n/a
1178723	REC_WORD	wordpools/wasnorm_wordpool_less_exclusions.txt	LTP187	ltpFR	3	6	0	FEMALE	559	n/a	n/a	1	n/a	n/a	n/a	n/a	n/a
1186326	REC_WORD	wordpools/wasnorm_wordpool_less_exclusions.txt	LTP187	ltpFR	3	6	1	ELM	527	n/a	n/a	1	n/a	n/a	n/a	n/a	n/a
1194697	REC_WORD	wordpools/wasnorm_wordpool_less_exclusions.txt	LTP187	ltpFR	3	6	1	LIPSTICK	829	n/a	n/a	0	n/a	n/a	n/a	n/a	n/a
1197511	REC_WORD	wordpools/wasnorm_wordpool_less_exclusions.txt	LTP187	ltpFR	3	6	1	EYELASH	546	n/a	n/a	0	n/a	n/a	n/a	n/a	n/a
1201167	REC_WORD	wordpools/wasnorm_wordpool_less_exclusions.txt	LTP187	ltpFR	3	6	1	JELLO	754	n/a	n/a	0	n/a	n/a	n/a	n/a	n/a
1207373	REC_WORD	wordpools/wasnorm_wordpool_less_exclusions.txt	LTP187	ltpFR	3	6	0	CITY	314	n/a	n/a	1	n/a	n/a	n/a	n/a	n/a
1242413	REC_WORD	wordpools/wasnorm_wordpool_less_exclusions.txt	LTP187	ltpFR	3	6	1	BOULEVARD	156	n/a	n/a	0	n/a	n/a	n/a	n/a	n/a
1307321	WORD	wordpools/wasnorm_wordpool_less_exclusions.txt	LTP187	ltpFR	3	7	-1	CAR	241	n/a	n/a	-1	1.0	1.0	1	upper	Verdana.ttf
1311218	WORD	wordpools/wasnorm_wordpool_less_exclusions.txt	LTP187	ltpFR	3	7	-1	CUPBOARD	425	n/a	n/a	-1	1.0	1.0	1	upper	Verdana.ttf
1315283	WORD	wordpools/wasnorm_wordpool_less_exclusions.txt	LTP187	ltpFR	3	7	-1	BOOT	150	n/a	n/a	-1	1.0	1.0	1	upper	Verdana.ttf
1319131	WORD	wordpools/wasnorm_wordpool_less_exclusions.txt	LTP187	ltpFR	3	7	-1	CARRIAGE	248	n/a	n/a	-1	1.0	1.0	1	upper	Verdana.ttf
1323028	WORD	wordpools/wasnorm_wordpool_less_exclusions.txt	LTP187	ltpFR	3	7	-1	POPE	1105	n/a	n/a	-1	1.0	1.0	1	upper	Verdana.ttf
1327160	WORD	wordpools/wasnorm_wordpool_less_exclusions.txt	LTP187	ltpFR	3	7	-1	CORK	380	n/a	n/a	-1	1.0	1.0	1	upper	Verdana.ttf
1331243	WORD	wordpools/wasnorm_wordpool_less_exclusions.txt	LTP187	ltpFR	3	7	-1	COOLER	375	n/a	n/a	-1	1.0	1.0	1	upper	Verdana.ttf
1335225	WORD	wordpools/wasnorm_wordpool_less_exclusions.txt	LTP187	ltpFR	3	7	-1	VAN	1548	n/a	n/a	-1	1.0	1.0	1	upper	Verdana.ttf
1339258	WORD	wordpools/wasnorm_wordpool_less_exclusions.txt	LTP187	ltpFR	3	7	-1	PIT	1077	n/a	n/a	-1	1.0	1.0	1	upper	Verdana.ttf
1343444	WORD	wordpools/wasnorm_wordpool_less_exclusions.txt	LTP187	ltpFR	3	7	-1	STREAM	1392	n/a	n/a	-1	1.0	1.0	1	upper	Verdana.ttf
1347589	WORD	wordpools/wasnorm_wordpool_less_exclusions.txt	LTP187	ltpFR	3	7	-1	RAFT	1159	n/a	n/a	-1	1.0	1.0	1	upper	Verdana.ttf
1351620	WORD	wordpools/wasnorm_wordpool_less_exclusions.txt	LTP187	ltpFR	3	7	-1	PADDING	999	n/a	n/a	-1	1.0	1.0	1	upper	Verdana.ttf
1355752	WORD	wordpools/wasnorm_wordpool_less_exclusions.txt	LTP187	ltpFR	3	7	-1	CERAMICS	271	n/a	n/a	-1	1.0	1.0	1	upper	Verdana.ttf
1359667	WORD	wordpools/wasnorm_wordpool_less_exclusions.txt	LTP187	ltpFR	3	7	-1	PAINTER	1004	n/a	n/a	-1	1.0	1.0	1	upper	Verdana.ttf
1363682	WORD	wordpools/wasnorm_wordpool_less_exclusions.txt	LTP187	ltpFR	3	7	-1	STOVE	1388	n/a	n/a	-1	1.0	1.0	1	upper	Verdana.ttf
1367582	WORD	wordpools/wasnorm_wordpool_less_exclusions.txt	LTP187	ltpFR	3	7	-1	SOFA	1342	n/a	n/a	-1	1.0	1.0	1	upper	Verdana.ttf
1373269	REC_START	n/a	LTP187	ltpFR	3	7	n/a	n/a	n/a	n/a	n/a	n/a	n/a	n/a	n/a	n/a	n/a
1375424	REC_WORD	wordpools/wasnorm_wordpool_less_exclusions.txt	LTP187	ltpFR	3	7	-1	CUPBOARD	425	n/a	n/a	-1	n/a	n/a	n/a	n/a	n/a
1377793	REC_WORD	wordpools/wasnorm_wordpool_less_exclusions.txt	LTP187	ltpFR	3	7	-1	BOOT	150	n/a	n/a	-1	n/a	n/a	n/a	n/a	n/a
1380428	REC_WORD	wordpools/wasnorm_wordpool_less_exclusions.txt	LTP187	ltpFR	3	7	0	AUTOMOBILE	62	n/a	n/a	1	n/a	n/a	n/a	n/a	n/a
1383221	REC_WORD	wordpools/wasnorm_wordpool_less_exclusions.txt	LTP187	ltpFR	3	7	-1	CARRIAGE	248	n/a	n/a	-1	n/a	n/a	n/a	n/a	n/a
1385566	REC_WORD	wordpools/wasnorm_wordpool_less_exclusions.txt	LTP187	ltpFR	3	7	-1	POPE	1105	n/a	n/a	-1	n/a	n/a	n/a	n/a	n/a
1391328	REC_WORD	wordpools/wasnorm_wordpool_less_exclusions.txt	LTP187	ltpFR	3	7	-1	VAN	1548	n/a	n/a	-1	n/a	n/a	n/a	n/a	n/a
1502036	WORD	wordpools/wasnorm_wordpool_less_exclusions.txt	LTP187	ltpFR	3	8	1	BREAD	170	n/a	n/a	0	0.57763671875	0.412841796875	1	lower	amplitud.ttf
1506203	WORD	wordpools/wasnorm_wordpool_less_exclusions.txt	LTP187	ltpFR	3	8	1	MARGARINE	868	n/a	n/a	0	0.57763671875	0.412841796875	1	lower	amplitud.ttf
1510402	WORD	wordpools/wasnorm_wordpool_less_exclusions.txt	LTP187	ltpFR	3	8	0	GARAGE	621	n/a	n/a	1	0.422607421875	0.5869140625	0	upper	zerothre.ttf
1514601	WORD	wordpools/wasnorm_wordpool_less_exclusions.txt	LTP187	ltpFR	3	8	0	STEW	1380	n/a	n/a	0	0.422607421875	0.5869140625	0	upper	zerothre.ttf
1518583	WORD	wordpools/wasnorm_wordpool_less_exclusions.txt	LTP187	ltpFR	3	8	0	PITCHFORK	1078	n/a	n/a	1	0.422607421875	0.5869140625	0	upper	zerothre.ttf
1522732	WORD	wordpools/wasnorm_wordpool_less_exclusions.txt	LTP187	ltpFR	3	8	0	ASSISTANT	48	n/a	n/a	1	0.422607421875	0.5869140625	0	upper	zerothre.ttf
1526613	WORD	wordpools/wasnorm_wordpool_less_exclusions.txt	LTP187	ltpFR	3	8	1	ROOST	1208	n/a	n/a	0	0.57763671875	0.412841796875	1	lower	amplitud.ttf
1530795	WORD	wordpools/wasnorm_wordpool_less_exclusions.txt	LTP187	ltpFR	3	8	1	DRIVER	499	n/a	n/a	1	0.57763671875	0.412841796875	1	lower	amplitud.ttf
1534697	WORD	wordpools/wasnorm_wordpool_less_exclusions.txt	LTP187	ltpFR	3	8	0	BOSS	152	n/a	n/a	1	0.422607421875	0.5869140625	0	upper	zerothre.ttf
1538893	WORD	wordpools/wasnorm_wordpool_less_exclusions.txt	LTP187	ltpFR	3	8	0	TIGER	1467	n/a	n/a	1	0.422607421875	0.5869140625	0	upper	zerothre.ttf
1542925	WORD	wordpools/wasnorm_wordpool_less_exclusions.txt	LTP187	ltpFR	3	8	0	HANDKERCHIEF	686	n/a	n/a	0	0.422607421875	0.5869140625	0	upper	zerothre.ttf
1547072	WORD	wordpools/wasnorm_wordpool_less_exclusions.txt	LTP187	ltpFR	3	8	0	BED	110	n/a	n/a	1	0.422607421875	0.5869140625	0	upper	zerothre.ttf
1551121	WORD	wordpools/wasnorm_wordpool_less_exclusions.txt	LTP187	ltpFR	3	8	1	SQUIRREL	1362	n/a	n/a	1	0.57763671875	0.412841796875	1	lower	amplitud.ttf
1554988	WORD	wordpools/wasnorm_wordpool_less_exclusions.txt	LTP187	ltpFR	3	8	1	BOLT	146	n/a	n/a	0	0.57763671875	0.412841796875	1	lower	amplitud.ttf
1559118	WORD	wordpools/wasnorm_wordpool_less_exclusions.txt	LTP187	ltpFR	3	8	1	REFRIGERATOR	1179	n/a	n/a	0	0.57763671875	0.412841796875	1	lower	amplitud.ttf
1562999	WORD	wordpools/wasnorm_wordpool_less_exclusions.txt	LTP187	ltpFR	3	8	1	SCARF	1246	n/a	n/a	0	0.57763671875	0.412841796875	1	lower	amplitud.ttf
1569039	REC_START	n/a	LTP187	ltpFR	3	8	n/a	n/a	n/a	n/a	n/a	n/a	n/a	n/a	n/a	n/a	n/a
1570216	REC_WORD	wordpools/wasnorm_wordpool_less_exclusions.txt	LTP187	ltpFR	3	8	1	REFRIGERATOR	1179	n/a	n/a	0	n/a	n/a	n/a	n/a	n/a
1571216	REC_WORD_VV	wordpools/wasnorm_wordpool_less_exclusions.txt	LTP187	ltpFR	3	8	n/a	<>	-1	n/a	n/a	n/a	n/a	n/a	n/a	n/a	n/a
1573179	REC_WORD	wordpools/wasnorm_wordpool_less_exclusions.txt	LTP187	ltpFR	3	8	1	SCARF	1246	n/a	n/a	0	n/a	n/a	n/a	n/a	n/a
1575444	REC_WORD	wordpools/wasnorm_wordpool_less_exclusions.txt	LTP187	ltpFR	3	8	1	BREAD	170	n/a	n/a	0	n/a	n/a	n/a	n/a	n/a
1577205	REC_WORD	wordpools/wasnorm_wordpool_less_exclusions.txt	LTP187	ltpFR	3	8	1	MARGARINE	868	n/a	n/a	0	n/a	n/a	n/a	n/a	n/a
1593567	REC_WORD	wordpools/wasnorm_wordpool_less_exclusions.txt	LTP187	ltpFR	3	8	0	STEW	1380	n/a	n/a	0	n/a	n/a	n/a	n/a	n/a
1624957	REC_WORD	wordpools/wasnorm_wordpool_less_exclusions.txt	LTP187	ltpFR	3	8	0	PITCHFORK	1078	n/a	n/a	1	n/a	n/a	n/a	n/a	n/a
1626837	REC_WORD	wordpools/wasnorm_wordpool_less_exclusions.txt	LTP187	ltpFR	3	8	n/a	PERSON	1052	n/a	n/a	n/a	n/a	n/a	n/a	n/a	n/a
1636654	REC_WORD	wordpools/wasnorm_wordpool_less_exclusions.txt	LTP187	ltpFR	3	8	1	SCARF	1246	n/a	n/a	0	n/a	n/a	n/a	n/a	n/a
1696386	WORD	wordpools/wasnorm_wordpool_less_exclusions.txt	LTP187	ltpFR	3	9	1	MUSHROOM	934	n/a	n/a	0	0.57763671875	0.412841796875	1	lower	amplitud.ttf
1700569	WORD	wordpools/wasnorm_wordpool_less_exclusions.txt	LTP187	ltpFR	3	9	1	SECRETARY	1265	n/a	n/a	1	0.57763671875	0.412841796875	1	lower	amplitud.ttf
1704617	WORD	wordpools/wasnorm_wordpool_less_exclusions.txt	LTP187	ltpFR	3	9	1	JOURNAL	760	n/a	n/a	0	0.57763671875	0.412841796875	1	lower	amplitud.ttf
1708515	WORD	wordpools/wasnorm_wordpool_less_exclusions.txt	LTP187	ltpFR	3	9	1	MOWER	928	n/a	n/a	1	0.57763671875	0.412841796875	1	lower	amplitud.ttf
1712699	WORD	wordpools/wasnorm_wordpool_less_exclusions.txt	LTP187	ltpFR	3	9	1	STALLION	1369	n/a	n/a	1	0.57763671875	0.412841796875	1	lower	amplitud.ttf
1716596	WORD	wordpools/wasnorm_wordpool_less_exclusions.txt	LTP187	ltpFR	3	9	1	CHECKERS	285	n/a	n/a	0	0.57763671875	0.412841796875	1	lower	amplitud.ttf
1720448	WORD	wordpools/wasnorm_wordpool_less_exclusions.txt	LTP187	ltpFR	3	9	1	PEN	1041	n/a	n/a	0	0.57763671875	0.412841796875	1	lower	amplitud.ttf
1724325	WORD	wordpools/wasnorm_wordpool_less_exclusions.txt	LTP187	ltpFR	3	9	1	LITERATURE	831	n/a	n/a	0	0.57763671875	0.412841796875	1	lower	amplitud.ttf
1728541	WORD	wordpools/wasnorm_wordpool_less_exclusions.txt	LTP187	ltpFR	3	9	1	DART	440	n/a	n/a	0	0.57763671875	0.412841796875	1	lower	amplitud.ttf
1732741	WORD	wordpools/wasnorm_wordpool_less_exclusions.txt	LTP187	ltpFR	3	9	1	RECEPTIONIST	1174	n/a	n/a	1	0.57763671875	0.412841796875	1	lower	amplitud.ttf
1736755	WORD	wordpools/wasnorm_wordpool_less_exclusions.txt	LTP187	ltpFR	3	9	1	DRESSER	496	n/a	n/a	1	0.57763671875	0.412841796875	1	lower	amplitud.ttf
1740686	WORD	wordpools/wasnorm_wordpool_less_exclusions.txt	LTP187	ltpFR	3	9	1	DIVER	476	n/a	n/a	1	0.57763671875	0.412841796875	1	lower	amplitud.ttf
1744902	WORD	wordpools/wasnorm_wordpool_less_exclusions.txt	LTP187	ltpFR	3	9	1	SHORE	1291	n/a	n/a	0	0.57763671875	0.412841796875	1	lower	amplitud.ttf
1748784	WORD	wordpools/wasnorm_wordpool_less_exclusions.txt	LTP187	ltpFR	3	9	1	SPACE	1345	n/a	n/a	0	0.57763671875	0.412841796875	1	lower	amplitud.ttf
1752698	WORD	wordpools/wasnorm_wordpool_less_exclusions.txt	LTP187	ltpFR	3	9	1	ROCKET	1202	n/a	n/a	n/a	0.57763671875	0.412841796875	1	lower	amplitud.ttf
1755730	SLOW_MSG	n/a	LTP187	ltpFR	3	9	n/a	n/a	n/a	n/a	n/a	n/a	n/a	n/a	n/a	n/a	n/a
1758353	WORD	wordpools/wasnorm_wordpool_less_exclusions.txt	LTP187	ltpFR	3	9	1	LIZARD	834	n/a	n/a	1	0.57763671875	0.412841796875	1	lower	amplitud.ttf
1764142	REC_START	n/a	LTP187	ltpFR	3	9	n/a	n/a	n/a	n/a	n/a	n/a	n/a	n/a	n/a	n/a	n/a
1765304	REC_WORD	wordpools/wasnorm_wordpool_less_exclusions.txt	LTP187	ltpFR	3	9	1	LIZARD	834	n/a	n/a	1	n/a	n/a	n/a	n/a	n/a
1784805	REC_WORD	wordpools/wasnorm_wordpool_less_exclusions.txt	LTP187	ltpFR	3	9	1	ROCKET	1202	n/a	n/a	n/a	n/a	n/a	n/a	n/a	n/a
1803093	REC_WORD	wordpools/wasnorm_wordpool_less_exclusions.txt	LTP187	ltpFR	3	9	1	RECEPTIONIST	1174	n/a	n/a	1	n/a	n/a	n/a	n/a	n/a
1804093	REC_WORD_VV	wordpools/wasnorm_wordpool_less_exclusions.txt	LTP187	ltpFR	3	9	n/a	<>	-1	n/a	n/a	n/a	n/a	n/a	n/a	n/a	n/a
1861509	WORD	wordpools/wasnorm_wordpool_less_exclusions.txt	LTP187	ltpFR	3	10	0	CHAIN	273	n/a	n/a	0	0.422607421875	0.5869140625	0	upper	zerothre.ttf
1865473	WORD	wordpools/wasnorm_wordpool_less_exclusions.txt	LTP187	ltpFR	3	10	0	SWIMMER	1420	n/a	n/a	1	0.422607421875	0.5869140625	0	upper	zerothre.ttf
1869472	WORD	wordpools/wasnorm_wordpool_less_exclusions.txt	LTP187	ltpFR	3	10	0	INN	739	n/a	n/a	1	0.422607421875	0.5869140625	0	upper	zerothre.ttf
1873303	WORD	wordpools/wasnorm_wordpool_less_exclusions.txt	LTP187	ltpFR	3	10	1	LODGE	839	n/a	n/a	0	0.57763671875	0.412841796875	1	lower	amplitud.ttf
1877485	WORD	wordpools/wasnorm_wordpool_less_exclusions.txt	LTP187	ltpFR	3	10	1	TRACTOR	1493	n/a	n/a	0	0.57763671875	0.412841796875	1	lower	amplitud.ttf
1881400	WORD	wordpools/wasnorm_wordpool_less_exclusions.txt	LTP187	ltpFR	3	10	0	CROCODILE	411	n/a	n/a	1	0.422607421875	0.5869140625	0	upper	zerothre.ttf
1885583	WORD	wordpools/wasnorm_wordpool_less_exclusions.txt	LTP187	ltpFR	3	10	0	BOYFRIEND	162	n/a	n/a	1	0.422607421875	0.5869140625	0	upper	zerothre.ttf
1889698	WORD	wordpools/wasnorm_wordpool_less_exclusions.txt	LTP187	ltpFR	3	10	0	JUG	762	n/a	n/a	0	0.422607421875	0.5869140625	0	upper	zerothre.ttf
1893881	WORD	wordpools/wasnorm_wordpool_less_exclusions.txt	LTP187	ltpFR	3	10	1	BARTENDER	92	n/a	n/a	1	0.57763671875	0.412841796875	1	lower	amplitud.ttf
1897829	WORD	wordpools/wasnorm_wordpool_less_exclusions.txt	LTP187	ltpFR	3	10	1	PENNY	1045	n/a	n/a	0	0.57763671875	0.412841796875	1	lower	amplitud.ttf
1901977	WORD	wordpools/wasnorm_wordpool_less_exclusions.txt	LTP187	ltpFR	3	10	1	BISCUIT	130	n/a	n/a	0	0.57763671875	0.412841796875	1	lower	amplitud.ttf
1906042	WORD	wordpools/wasnorm_wordpool_less_exclusions.txt	LTP187	ltpFR	3	10	1	MOLECULE	905	n/a	n/a	0	0.57763671875	0.412841796875	1	lower	amplitud.ttf
1910057	WORD	wordpools/wasnorm_wordpool_less_exclusions.txt	LTP187	ltpFR	3	10	1	FIELD	562	n/a	n/a	0	0.57763671875	0.412841796875	1	lower	amplitud.ttf
1913955	WORD	wordpools/wasnorm_wordpool_less_exclusions.txt	LTP187	ltpFR	3	10	1	WEED	1599	n/a	n/a	0	0.57763671875	0.412841796875	1	lower	amplitud.ttf
1918087	WORD	wordpools/wasnorm_wordpool_less_exclusions.txt	LTP187	ltpFR	3	10	0	PICKLE	1059	n/a	n/a	0	0.422607421875	0.5869140625	0	upper	zerothre.ttf
1922104	WORD	wordpools/wasnorm_wordpool_less_exclusions.txt	LTP187	ltpFR	3	10	0	ELECTRON	522	n/a	n/a	2	0.422607421875	0.5869140625	0	upper	zerothre.ttf
1924830	KEY_MSG	n/a	LTP187	ltpFR	3	10	n/a	n/a	n/a	n/a	n/a	n/a	n/a	n/a	n/a	n/a	n/a
1929096	REC_START	n/a	LTP187	ltpFR	3	10	n/a	n/a	n/a	n/a	n/a	n/a	n/a	n/a	n/a	n/a	n/a
1930143	REC_WORD	wordpools/wasnorm_wordpool_less_exclusions.txt	LTP187	ltpFR	3	10	0	ELECTRON	522	n/a	n/a	2	n/a	n/a	n/a	n/a	n/a
1943698	REC_WORD	wordpools/wasnorm_wordpool_less_exclusions.txt	LTP187	ltpFR	3	10	0	CROCODILE	411	n/a	n/a	1	n/a	n/a	n/a	n/a	n/a
2051959	WORD	wordpools/wasnorm_wordpool_less_exclusions.txt	LTP187	ltpFR	3	11	1	TOWN	1491	n/a	n/a	0	0.57763671875	0.412841796875	1	lower	amplitud.ttf
2056142	WORD	wordpools/wasnorm_wordpool_less_exclusions.txt	LTP187	ltpFR	3	11	1	POSSUM	1112	n/a	n/a	1	0.57763671875	0.412841796875	1	lower	amplitud.ttf
2060006	WORD	wordpools/wasnorm_wordpool_less_exclusions.txt	LTP187	ltpFR	3	11	1	ICEBERG	731	n/a	n/a	0	0.57763671875	0.412841796875	1	lower	amplitud.ttf
2063888	WORD	wordpools/wasnorm_wordpool_less_exclusions.txt	LTP187	ltpFR	3	11	1	GORILLA	650	n/a	n/a	1	0.57763671875	0.412841796875	1	lower	amplitud.ttf
2067837	WORD	wordpools/wasnorm_wordpool_less_exclusions.txt	LTP187	ltpFR	3	11	0	APE	31	n/a	n/a	1	0.422607421875	0.5869140625	0	upper	zerothre.ttf
2071973	WORD	wordpools/wasnorm_wordpool_less_exclusions.txt	LTP187	ltpFR	3	11	0	PALM	1007	n/a	n/a	0	0.422607421875	0.5869140625	0	upper	zerothre.ttf
2076169	WORD	wordpools/wasnorm_wordpool_less_exclusions.txt	LTP187	ltpFR	3	11	0	GRAVEL	659	n/a	n/a	n/a	0.422607421875	0.5869140625	0	upper	zerothre.ttf
2079199	SLOW_MSG	n/a	LTP187	ltpFR	3	11	n/a	n/a	n/a	n/a	n/a	n/a	n/a	n/a	n/a	n/a	n/a
2081538	WORD	wordpools/wasnorm_wordpool_less_exclusions.txt	LTP187	ltpFR	3	11	0	HERO	706	n/a	n/a	1	0.422607421875	0.5869140625	0	upper	zerothre.ttf
2085687	WORD	wordpools/wasnorm_wordpool_less_exclusions.txt	LTP187	ltpFR	3	11	1	KNUCKLE	789	n/a	n/a	0	0.57763671875	0.412841796875	1	lower	amplitud.ttf
2089702	WORD	wordpools/wasnorm_wordpool_less_exclusions.txt	LTP187	ltpFR	3	11	1	CAFE	216	n/a	n/a	0	0.57763671875	0.412841796875	1	lower	amplitud.ttf
2093516	WORD	wordpools/wasnorm_wordpool_less_exclusions.txt	LTP187	ltpFR	3	11	1	OREGANO	983	n/a	n/a	0	0.57763671875	0.412841796875	1	lower	amplitud.ttf
2097435	WORD	wordpools/wasnorm_wordpool_less_exclusions.txt	LTP187	ltpFR	3	11	1	SHOVEL	1295	n/a	n/a	0	0.57763671875	0.412841796875	1	lower	amplitud.ttf
2101563	WORD	wordpools/wasnorm_wordpool_less_exclusions.txt	LTP187	ltpFR	3	11	0	GRASSHOPPER	656	n/a	n/a	0	0.422607421875	0.5869140625	0	upper	zerothre.ttf
2105461	WORD	wordpools/wasnorm_wordpool_less_exclusions.txt	LTP187	ltpFR	3	11	0	APARTMENT	30	n/a	n/a	1	0.422607421875	0.5869140625	0	upper	zerothre.ttf
2109476	WORD	wordpools/wasnorm_wordpool_less_exclusions.txt	LTP187	ltpFR	3	11	0	BUCKET	184	n/a	n/a	0	0.422607421875	0.5869140625	0	upper	zerothre.ttf
2113508	WORD	wordpools/wasnorm_wordpool_less_exclusions.txt	LTP187	ltpFR	3	11	0	SEA	1259	n/a	n/a	1	0.422607421875	0.5869140625	0	upper	zerothre.ttf
2119247	REC_START	n/a	LTP187	ltpFR	3	11	n/a	n/a	n/a	n/a	n/a	n/a	n/a	n/a	n/a	n/a	n/a
2119740	REC_WORD	wordpools/wasnorm_wordpool_less_exclusions.txt	LTP187	ltpFR	3	11	0	BUCKET	184	n/a	n/a	0	n/a	n/a	n/a	n/a	n/a
2121736	REC_WORD	wordpools/wasnorm_wordpool_less_exclusions.txt	LTP187	ltpFR	3	11	0	SEA	1259	n/a	n/a	1	n/a	n/a	n/a	n/a	n/a
2123677	REC_WORD	wordpools/wasnorm_wordpool_less_exclusions.txt	LTP187	ltpFR	3	11	0	GRAVEL	659	n/a	n/a	n/a	n/a	n/a	n/a	n/a	n/a
2172436	REC_WORD	wordpools/wasnorm_wordpool_less_exclusions.txt	LTP187	ltpFR	3	11	0	HERO	706	n/a	n/a	1	n/a	n/a	n/a	n/a	n/a
2182613	REC_WORD	wordpools/wasnorm_wordpool_less_exclusions.txt	LTP187	ltpFR	3	11	0	PALM	1007	n/a	n/a	0	n/a	n/a	n/a	n/a	n/a
2184578	REC_WORD	wordpools/wasnorm_wordpool_less_exclusions.txt	LTP187	ltpFR	3	11	1	KNUCKLE	789	n/a	n/a	0	n/a	n/a	n/a	n/a	n/a
2213703	WORD	wordpools/wasnorm_wordpool_less_exclusions.txt	LTP187	ltpFR	3	12	1	DRILL	497	n/a	n/a	0	0.57763671875	0.412841796875	1	lower	amplitud.ttf
2217718	WORD	wordpools/wasnorm_wordpool_less_exclusions.txt	LTP187	ltpFR	3	12	1	CORPORATION	382	n/a	n/a	0	0.57763671875	0.412841796875	1	lower	amplitud.ttf
2221716	WORD	wordpools/wasnorm_wordpool_less_exclusions.txt	LTP187	ltpFR	3	12	1	GRADUATE	653	n/a	n/a	1	0.57763671875	0.412841796875	1	lower	amplitud.ttf
2225815	WORD	wordpools/wasnorm_wordpool_less_exclusions.txt	LTP187	ltpFR	3	12	1	CATERPILLAR	259	n/a	n/a	n/a	0.57763671875	0.412841796875	1	lower	amplitud.ttf
2228843	SLOW_MSG	n/a	LTP187	ltpFR	3	12	n/a	n/a	n/a	n/a	n/a	n/a	n/a	n/a	n/a	n/a	n/a
2231386	WORD	wordpools/wasnorm_wordpool_less_exclusions.txt	LTP187	ltpFR	3	12	1	COCOON	339	n/a	n/a	0	0.57763671875	0.412841796875	1	lower	amplitud.ttf
2235434	WORD	wordpools/wasnorm_wordpool_less_exclusions.txt	LTP187	ltpFR	3	12	1	CONDUCTOR	362	n/a	n/a	1	0.57763671875	0.412841796875	1	lower	amplitud.ttf
2239567	WORD	wordpools/wasnorm_wordpool_less_exclusions.txt	LTP187	ltpFR	3	12	1	TRUMPET	1513	n/a	n/a	0	0.57763671875	0.412841796875	1	lower	amplitud.ttf
2243683	WORD	wordpools/wasnorm_wordpool_less_exclusions.txt	LTP187	ltpFR	3	12	1	TEACHER	1440	n/a	n/a	1	0.57763671875	0.412841796875	1	lower	amplitud.ttf
2247630	WORD	wordpools/wasnorm_wordpool_less_exclusions.txt	LTP187	ltpFR	3	12	1	MONUMENT	913	n/a	n/a	0	0.57763671875	0.412841796875	1	lower	amplitud.ttf
2251579	WORD	wordpools/wasnorm_wordpool_less_exclusions.txt	LTP187	ltpFR	3	12	1	TEA	1439	n/a	n/a	0	0.57763671875	0.412841796875	1	lower	amplitud.ttf
2255577	WORD	wordpools/wasnorm_wordpool_less_exclusions.txt	LTP187	ltpFR	3	12	1	SUGAR	1401	n/a	n/a	0	0.57763671875	0.412841796875	1	lower	amplitud.ttf
2259776	WORD	wordpools/wasnorm_wordpool_less_exclusions.txt	LTP187	ltpFR	3	12	1	HOE	711	n/a	n/a	0	0.57763671875	0.412841796875	1	lower	amplitud.ttf
2263659	WORD	wordpools/wasnorm_wordpool_less_exclusions.txt	LTP187	ltpFR	3	12	1	RANCH	1166	n/a	n/a	0	0.57763671875	0.412841796875	1	lower	amplitud.ttf
2267706	WORD	wordpools/wasnorm_wordpool_less_exclusions.txt	LTP187	ltpFR	3	12	1	BANK	83	n/a	n/a	0	0.57763671875	0.412841796875	1	lower	amplitud.ttf
2271637	WORD	wordpools/wasnorm_wordpool_less_exclusions.txt	LTP187	ltpFR	3	12	1	TRICYCLE	1506	n/a	n/a	0	0.57763671875	0.412841796875	1	lower	amplitud.ttf
2275619	WORD	wordpools/wasnorm_wordpool_less_exclusions.txt	LTP187	ltpFR	3	12	1	CROOK	412	n/a	n/a	1	0.57763671875	0.412841796875	1	lower	amplitud.ttf
2281375	REC_START	n/a	LTP187	ltpFR	3	12	n/a	n/a	n/a	n/a	n/a	n/a	n/a	n/a	n/a	n/a	n/a
2282891	REC_WORD	wordpools/wasnorm_wordpool_less_exclusions.txt	LTP187	ltpFR	3	12	1	CROOK	412	n/a	n/a	1	n/a	n/a	n/a	n/a	n/a
2284417	REC_WORD	wordpools/wasnorm_wordpool_less_exclusions.txt	LTP187	ltpFR	3	12	1	BANK	83	n/a	n/a	0	n/a	n/a	n/a	n/a	n/a
2325220	REC_WORD	wordpools/wasnorm_wordpool_less_exclusions.txt	LTP187	ltpFR	3	12	1	CORPORATION	382	n/a	n/a	0	n/a	n/a	n/a	n/a	n/a
2327046	REC_WORD	wordpools/wasnorm_wordpool_less_exclusions.txt	LTP187	ltpFR	3	12	1	TEA	1439	n/a	n/a	0	n/a	n/a	n/a	n/a	n/a
2331017	REC_WORD	wordpools/wasnorm_wordpool_less_exclusions.txt	LTP187	ltpFR	3	12	1	SUGAR	1401	n/a	n/a	0	n/a	n/a	n/a	n/a	n/a
2334379	REC_WORD	wordpools/wasnorm_wordpool_less_exclusions.txt	LTP187	ltpFR	3	12	n/a	SALT	1229	n/a	n/a	n/a	n/a	n/a	n/a	n/a	n/a
2339278	REC_WORD	wordpools/wasnorm_wordpool_less_exclusions.txt	LTP187	ltpFR	3	12	1	COCOON	339	n/a	n/a	0	n/a	n/a	n/a	n/a	n/a
2342236	REC_WORD	wordpools/wasnorm_wordpool_less_exclusions.txt	LTP187	ltpFR	3	12	1	CATERPILLAR	259	n/a	n/a	n/a	n/a	n/a	n/a	n/a	n/a
2356992	REST_REWET	n/a	LTP187	ltpFR	3	12	n/a	n/a	n/a	n/a	n/a	n/a	n/a	n/a	n/a	n/a	n/a
2787045	WORD	wordpools/wasnorm_wordpool_less_exclusions.txt	LTP187	ltpFR	3	13	-1	BILL	126	n/a	n/a	-1	1.0	1.0	1	upper	Verdana.ttf
2790945	WORD	wordpools/wasnorm_wordpool_less_exclusions.txt	LTP187	ltpFR	3	13	-1	BELT	120	n/a	n/a	-1	1.0	1.0	1	upper	Verdana.ttf
2795059	WORD	wordpools/wasnorm_wordpool_less_exclusions.txt	LTP187	ltpFR	3	13	-1	WAVE	1596	n/a	n/a	-1	1.0	1.0	1	upper	Verdana.ttf
2798946	WORD	wordpools/wasnorm_wordpool_less_exclusions.txt	LTP187	ltpFR	3	13	-1	RIVER	1194	n/a	n/a	-1	1.0	1.0	1	upper	Verdana.ttf
2803022	WORD	wordpools/wasnorm_wordpool_less_exclusions.txt	LTP187	ltpFR	3	13	-1	DOUGHNUT	490	n/a	n/a	-1	1.0	1.0	1	upper	Verdana.ttf
2807104	WORD	wordpools/wasnorm_wordpool_less_exclusions.txt	LTP187	ltpFR	3	13	-1	BLACKBOARD	133	n/a	n/a	-1	1.0	1.0	1	upper	Verdana.ttf
2811019	WORD	wordpools/wasnorm_wordpool_less_exclusions.txt	LTP187	ltpFR	3	13	-1	SEAL	1262	n/a	n/a	-1	1.0	1.0	1	upper	Verdana.ttf
2815084	WORD	wordpools/wasnorm_wordpool_less_exclusions.txt	LTP187	ltpFR	3	13	-1	MOON	914	n/a	n/a	-1	1.0	1.0	1	upper	Verdana.ttf
2818933	WORD	wordpools/wasnorm_wordpool_less_exclusions.txt	LTP187	ltpFR	3	13	-1	PORPOISE	1109	n/a	n/a	-1	1.0	1.0	1	upper	Verdana.ttf
2822967	WORD	wordpools/wasnorm_wordpool_less_exclusions.txt	LTP187	ltpFR	3	13	-1	DIAL	457	n/a	n/a	-1	1.0	1.0	1	upper	Verdana.ttf
2826863	WORD	wordpools/wasnorm_wordpool_less_exclusions.txt	LTP187	ltpFR	3	13	-1	ERASER	538	n/a	n/a	-1	1.0	1.0	1	upper	Verdana.ttf
2830811	WORD	wordpools/wasnorm_wordpool_less_exclusions.txt	LTP187	ltpFR	3	13	-1	FURNITURE	616	n/a	n/a	-1	1.0	1.0	1	upper	Verdana.ttf
2834743	WORD	wordpools/wasnorm_wordpool_less_exclusions.txt	LTP187	ltpFR	3	13	-1	DOLL	481	n/a	n/a	-1	1.0	1.0	1	upper	Verdana.ttf
2838958	WORD	wordpools/wasnorm_wordpool_less_exclusions.txt	LTP187	ltpFR	3	13	-1	CACTUS	215	n/a	n/a	-1	1.0	1.0	1	upper	Verdana.ttf
2842807	WORD	wordpools/wasnorm_wordpool_less_exclusions.txt	LTP187	ltpFR	3	13	-1	NEST	945	n/a	n/a	-1	1.0	1.0	1	upper	Verdana.ttf
2846838	WORD	wordpools/wasnorm_wordpool_less_exclusions.txt	LTP187	ltpFR	3	13	-1	QUAIL	1147	n/a	n/a	-1	1.0	1.0	1	upper	Verdana.ttf
2852845	REC_START	n/a	LTP187	ltpFR	3	13	n/a	n/a	n/a	n/a	n/a	n/a	n/a	n/a	n/a	n/a	n/a
2854236	REC_WORD	wordpools/wasnorm_wordpool_less_exclusions.txt	LTP187	ltpFR	3	13	-1	FURNITURE	616	n/a	n/a	-1	n/a	n/a	n/a	n/a	n/a
2856661	REC_WORD	wordpools/wasnorm_wordpool_less_exclusions.txt	LTP187	ltpFR	3	13	-1	BILL	126	n/a	n/a	-1	n/a	n/a	n/a	n/a	n/a
2858157	REC_WORD	wordpools/wasnorm_wordpool_less_exclusions.txt	LTP187	ltpFR	3	13	-1	BELT	120	n/a	n/a	-1	n/a	n/a	n/a	n/a	n/a
2859734	REC_WORD	wordpools/wasnorm_wordpool_less_exclusions.txt	LTP187	ltpFR	3	13	-1	WAVE	1596	n/a	n/a	-1	n/a	n/a	n/a	n/a	n/a
2864433	REC_WORD	wordpools/wasnorm_wordpool_less_exclusions.txt	LTP187	ltpFR	3	13	-1	DOUGHNUT	490	n/a	n/a	-1	n/a	n/a	n/a	n/a	n/a
2869537	REC_WORD	wordpools/wasnorm_wordpool_less_exclusions.txt	LTP187	ltpFR	3	13	-1	SEAL	1262	n/a	n/a	-1	n/a	n/a	n/a	n/a	n/a
2871592	REC_WORD	wordpools/wasnorm_wordpool_less_exclusions.txt	LTP187	ltpFR	3	13	-1	BLACKBOARD	133	n/a	n/a	-1	n/a	n/a	n/a	n/a	n/a
2877219	REC_WORD	wordpools/wasnorm_wordpool_less_exclusions.txt	LTP187	ltpFR	3	13	-1	MOON	914	n/a	n/a	-1	n/a	n/a	n/a	n/a	n/a
2909596	REC_WORD_VV	wordpools/wasnorm_wordpool_less_exclusions.txt	LTP187	ltpFR	3	13	n/a	<>	-1	n/a	n/a	n/a	n/a	n/a	n/a	n/a	n/a
2910344	REC_WORD_VV	wordpools/wasnorm_wordpool_less_exclusions.txt	LTP187	ltpFR	3	13	n/a	<>	-1	n/a	n/a	n/a	n/a	n/a	n/a	n/a	n/a
2943269	WORD	wordpools/wasnorm_wordpool_less_exclusions.txt	LTP187	ltpFR	3	14	0	GENTLEMAN	631	n/a	n/a	1	0.422607421875	0.5869140625	0	upper	zerothre.ttf
2947168	WORD	wordpools/wasnorm_wordpool_less_exclusions.txt	LTP187	ltpFR	3	14	0	WHISTLE	1606	n/a	n/a	0	0.422607421875	0.5869140625	0	upper	zerothre.ttf
2951265	WORD	wordpools/wasnorm_wordpool_less_exclusions.txt	LTP187	ltpFR	3	14	0	KEYBOARD	774	n/a	n/a	0	0.422607421875	0.5869140625	0	upper	zerothre.ttf
2955095	WORD	wordpools/wasnorm_wordpool_less_exclusions.txt	LTP187	ltpFR	3	14	0	SAUCER	1237	n/a	n/a	0	0.422607421875	0.5869140625	0	upper	zerothre.ttf
2959078	WORD	wordpools/wasnorm_wordpool_less_exclusions.txt	LTP187	ltpFR	3	14	0	SHELF	1280	n/a	n/a	0	0.422607421875	0.5869140625	0	upper	zerothre.ttf
2963261	WORD	wordpools/wasnorm_wordpool_less_exclusions.txt	LTP187	ltpFR	3	14	0	PAGE	1001	n/a	n/a	0	0.422607421875	0.5869140625	0	upper	zerothre.ttf
2967394	WORD	wordpools/wasnorm_wordpool_less_exclusions.txt	LTP187	ltpFR	3	14	0	FLIPPER	580	n/a	n/a	1	0.422607421875	0.5869140625	0	upper	zerothre.ttf
2971257	WORD	wordpools/wasnorm_wordpool_less_exclusions.txt	LTP187	ltpFR	3	14	0	FISH	571	n/a	n/a	0	0.422607421875	0.5869140625	0	upper	zerothre.ttf
2975256	WORD	wordpools/wasnorm_wordpool_less_exclusions.txt	LTP187	ltpFR	3	14	0	BABY	64	n/a	n/a	1	0.422607421875	0.5869140625	0	upper	zerothre.ttf
2979371	WORD	wordpools/wasnorm_wordpool_less_exclusions.txt	LTP187	ltpFR	3	14	0	OMELET	976	n/a	n/a	0	0.422607421875	0.5869140625	0	upper	zerothre.ttf
2983458	WORD	wordpools/wasnorm_wordpool_less_exclusions.txt	LTP187	ltpFR	3	14	0	NEPTUNE	943	n/a	n/a	1	0.422607421875	0.5869140625	0	upper	zerothre.ttf
2987669	WORD	wordpools/wasnorm_wordpool_less_exclusions.txt	LTP187	ltpFR	3	14	0	SMOG	1330	n/a	n/a	1	0.422607421875	0.5869140625	0	upper	zerothre.ttf
2991567	WORD	wordpools/wasnorm_wordpool_less_exclusions.txt	LTP187	ltpFR	3	14	0	PLATE	1086	n/a	n/a	0	0.422607421875	0.5869140625	0	upper	zerothre.ttf
2995532	WORD	wordpools/wasnorm_wordpool_less_exclusions.txt	LTP187	ltpFR	3	14	0	MARS	873	n/a	n/a	1	0.422607421875	0.5869140625	0	upper	zerothre.ttf
2999547	WORD	wordpools/wasnorm_wordpool_less_exclusions.txt	LTP187	ltpFR	3	14	0	CONCERT	360	n/a	n/a	0	0.422607421875	0.5869140625	0	upper	zerothre.ttf
3003445	WORD	wordpools/wasnorm_wordpool_less_exclusions.txt	LTP187	ltpFR	3	14	0	CHIMNEY	301	n/a	n/a	1	0.422607421875	0.5869140625	0	upper	zerothre.ttf
3009302	REC_START	n/a	LTP187	ltpFR	3	14	n/a	n/a	n/a	n/a	n/a	n/a	n/a	n/a	n/a	n/a	n/a
3010464	REC_WORD	wordpools/wasnorm_wordpool_less_exclusions.txt	LTP187	ltpFR	3	14	0	CONCERT	360	n/a	n/a	0	n/a	n/a	n/a	n/a	n/a
3012420	REC_WORD	wordpools/wasnorm_wordpool_less_exclusions.txt	LTP187	ltpFR	3	14	0	CHIMNEY	301	n/a	n/a	1	n/a	n/a	n/a	n/a	n/a
3014599	REC_WORD	wordpools/wasnorm_wordpool_less_exclusions.txt	LTP187	ltpFR	3	14	0	BABY	64	n/a	n/a	1	n/a	n/a	n/a	n/a	n/a
3016645	REC_WORD	wordpools/wasnorm_wordpool_less_exclusions.txt	LTP187	ltpFR	3	14	0	OMELET	976	n/a	n/a	0	n/a	n/a	n/a	n/a	n/a
3019079	REC_WORD	wordpools/wasnorm_wordpool_less_exclusions.txt	LTP187	ltpFR	3	14	0	NEPTUNE	943	n/a	n/a	1	n/a	n/a	n/a	n/a	n/a
3029685	REC_WORD	wordpools/wasnorm_wordpool_less_exclusions.txt	LTP187	ltpFR	3	14	0	GENTLEMAN	631	n/a	n/a	1	n/a	n/a	n/a	n/a	n/a
3064192	REC_WORD	wordpools/wasnorm_wordpool_less_exclusions.txt	LTP187	ltpFR	3	14	-1	QUAIL	1147	n/a	n/a	-1	n/a	n/a	n/a	n/a	n/a
3123498	WORD	wordpools/wasnorm_wordpool_less_exclusions.txt	LTP187	ltpFR	3	15	-1	GOWN	652	n/a	n/a	-1	1.0	1.0	1	upper	Verdana.ttf
3127517	WORD	wordpools/wasnorm_wordpool_less_exclusions.txt	LTP187	ltpFR	3	15	-1	DRAWER	493	n/a	n/a	-1	1.0	1.0	1	upper	Verdana.ttf
3131461	WORD	wordpools/wasnorm_wordpool_less_exclusions.txt	LTP187	ltpFR	3	15	-1	VEST	1559	n/a	n/a	-1	1.0	1.0	1	upper	Verdana.ttf
3135292	WORD	wordpools/wasnorm_wordpool_less_exclusions.txt	LTP187	ltpFR	3	15	-1	COUNTY	389	n/a	n/a	-1	1.0	1.0	1	upper	Verdana.ttf
3139494	WORD	wordpools/wasnorm_wordpool_less_exclusions.txt	LTP187	ltpFR	3	15	-1	EARRING	514	n/a	n/a	-1	1.0	1.0	1	upper	Verdana.ttf
3143440	WORD	wordpools/wasnorm_wordpool_less_exclusions.txt	LTP187	ltpFR	3	15	-1	DOCUMENT	479	n/a	n/a	-1	1.0	1.0	1	upper	Verdana.ttf
3147522	WORD	wordpools/wasnorm_wordpool_less_exclusions.txt	LTP187	ltpFR	3	15	-1	SKIRT	1319	n/a	n/a	-1	1.0	1.0	1	upper	Verdana.ttf
3151704	WORD	wordpools/wasnorm_wordpool_less_exclusions.txt	LTP187	ltpFR	3	15	-1	STEP	1377	n/a	n/a	-1	1.0	1.0	1	upper	Verdana.ttf
3155887	WORD	wordpools/wasnorm_wordpool_less_exclusions.txt	LTP187	ltpFR	3	15	-1	CAULIFLOWER	262	n/a	n/a	-1	1.0	1.0	1	upper	Verdana.ttf
3159753	WORD	wordpools/wasnorm_wordpool_less_exclusions.txt	LTP187	ltpFR	3	15	-1	SENATE	1267	n/a	n/a	-1	1.0	1.0	1	upper	Verdana.ttf
3163599	WORD	wordpools/wasnorm_wordpool_less_exclusions.txt	LTP187	ltpFR	3	15	-1	CLIPPERS	324	n/a	n/a	-1	1.0	1.0	1	upper	Verdana.ttf
3167452	WORD	wordpools/wasnorm_wordpool_less_exclusions.txt	LTP187	ltpFR	3	15	-1	SHEARS	1276	n/a	n/a	-1	1.0	1.0	1	upper	Verdana.ttf
3171464	WORD	wordpools/wasnorm_wordpool_less_exclusions.txt	LTP187	ltpFR	3	15	-1	EDITORIAL	517	n/a	n/a	-1	1.0	1.0	1	upper	Verdana.ttf
3175544	WORD	wordpools/wasnorm_wordpool_less_exclusions.txt	LTP187	ltpFR	3	15	-1	SHEET	1279	n/a	n/a	-1	1.0	1.0	1	upper	Verdana.ttf
3179396	WORD	wordpools/wasnorm_wordpool_less_exclusions.txt	LTP187	ltpFR	3	15	-1	CRYSTAL	418	n/a	n/a	-1	1.0	1.0	1	upper	Verdana.ttf
3183574	WORD	wordpools/wasnorm_wordpool_less_exclusions.txt	LTP187	ltpFR	3	15	-1	RACKET	1155	n/a	n/a	-1	1.0	1.0	1	upper	Verdana.ttf
3189196	REC_START	n/a	LTP187	ltpFR	3	15	n/a	n/a	n/a	n/a	n/a	n/a	n/a	n/a	n/a	n/a	n/a
3190258	REC_WORD	wordpools/wasnorm_wordpool_less_exclusions.txt	LTP187	ltpFR	3	15	n/a	ACHIEVE	-1	n/a	n/a	n/a	n/a	n/a	n/a	n/a	n/a
3192389	REC_WORD	wordpools/wasnorm_wordpool_less_exclusions.txt	LTP187	ltpFR	3	15	-1	CRYSTAL	418	n/a	n/a	-1	n/a	n/a	n/a	n/a	n/a
3194379	REC_WORD	wordpools/wasnorm_wordpool_less_exclusions.txt	LTP187	ltpFR	3	15	-1	RACKET	1155	n/a	n/a	-1	n/a	n/a	n/a	n/a	n/a
3201119	REC_WORD	wordpools/wasnorm_wordpool_less_exclusions.txt	LTP187	ltpFR	3	15	-1	DRAWER	493	n/a	n/a	-1	n/a	n/a	n/a	n/a	n/a
3202969	REC_WORD	wordpools/wasnorm_wordpool_less_exclusions.txt	LTP187	ltpFR	3	15	-1	VEST	1559	n/a	n/a	-1	n/a	n/a	n/a	n/a	n/a
3205059	REC_WORD	wordpools/wasnorm_wordpool_less_exclusions.txt	LTP187	ltpFR	3	15	-1	GOWN	652	n/a	n/a	-1	n/a	n/a	n/a	n/a	n/a
3207379	REC_WORD	wordpools/wasnorm_wordpool_less_exclusions.txt	LTP187	ltpFR	3	15	-1	COUNTY	389	n/a	n/a	-1	n/a	n/a	n/a	n/a	n/a
3210308	REC_WORD	wordpools/wasnorm_wordpool_less_exclusions.txt	LTP187	ltpFR	3	15	-1	EARRING	514	n/a	n/a	-1	n/a	n/a	n/a	n/a	n/a
3316191	WORD	wordpools/wasnorm_wordpool_less_exclusions.txt	LTP187	ltpFR	3	16	1	CANARY	227	n/a	n/a	1	0.57763671875	0.412841796875	1	lower	amplitud.ttf
3320223	WORD	wordpools/wasnorm_wordpool_less_exclusions.txt	LTP187	ltpFR	3	16	1	ROBIN	1199	n/a	n/a	1	0.57763671875	0.412841796875	1	lower	amplitud.ttf
3324255	WORD	wordpools/wasnorm_wordpool_less_exclusions.txt	LTP187	ltpFR	3	16	1	MARBLE	867	n/a	n/a	0	0.57763671875	0.412841796875	1	lower	amplitud.ttf
3328387	WORD	wordpools/wasnorm_wordpool_less_exclusions.txt	LTP187	ltpFR	3	16	1	CUSTOMER	430	n/a	n/a	1	0.57763671875	0.412841796875	1	lower	amplitud.ttf
3332270	WORD	wordpools/wasnorm_wordpool_less_exclusions.txt	LTP187	ltpFR	3	16	1	ASH	44	n/a	n/a	0	0.57763671875	0.412841796875	1	lower	amplitud.ttf
3336199	WORD	wordpools/wasnorm_wordpool_less_exclusions.txt	LTP187	ltpFR	3	16	1	CARPET	247	n/a	n/a	1	0.57763671875	0.412841796875	1	lower	amplitud.ttf
3340181	WORD	wordpools/wasnorm_wordpool_less_exclusions.txt	LTP187	ltpFR	3	16	1	BUYER	208	n/a	n/a	1	0.57763671875	0.412841796875	1	lower	amplitud.ttf
3344230	WORD	wordpools/wasnorm_wordpool_less_exclusions.txt	LTP187	ltpFR	3	16	1	CUE	422	n/a	n/a	0	0.57763671875	0.412841796875	1	lower	amplitud.ttf
3348345	WORD	wordpools/wasnorm_wordpool_less_exclusions.txt	LTP187	ltpFR	3	16	1	PUCK	1138	n/a	n/a	0	0.57763671875	0.412841796875	1	lower	amplitud.ttf
3352329	WORD	wordpools/wasnorm_wordpool_less_exclusions.txt	LTP187	ltpFR	3	16	1	SERGEANT	1269	n/a	n/a	2	0.57763671875	0.412841796875	1	lower	amplitud.ttf
3354702	KEY_MSG	n/a	LTP187	ltpFR	3	16	n/a	n/a	n/a	n/a	n/a	n/a	n/a	n/a	n/a	n/a	n/a
3357363	WORD	wordpools/wasnorm_wordpool_less_exclusions.txt	LTP187	ltpFR	3	16	1	LADDER	793	n/a	n/a	0	0.57763671875	0.412841796875	1	lower	amplitud.ttf
3361210	WORD	wordpools/wasnorm_wordpool_less_exclusions.txt	LTP187	ltpFR	3	16	1	EUROPE	541	n/a	n/a	0	0.57763671875	0.412841796875	1	lower	amplitud.ttf
3365175	WORD	wordpools/wasnorm_wordpool_less_exclusions.txt	LTP187	ltpFR	3	16	1	BLACKBERRY	132	n/a	n/a	1	0.57763671875	0.412841796875	1	lower	amplitud.ttf
3369190	WORD	wordpools/wasnorm_wordpool_less_exclusions.txt	LTP187	ltpFR	3	16	1	BLOCKADE	137	n/a	n/a	0	0.57763671875	0.412841796875	1	lower	amplitud.ttf
3373071	WORD	wordpools/wasnorm_wordpool_less_exclusions.txt	LTP187	ltpFR	3	16	1	PAVEMENT	1028	n/a	n/a	0	0.57763671875	0.412841796875	1	lower	amplitud.ttf
3377271	WORD	wordpools/wasnorm_wordpool_less_exclusions.txt	LTP187	ltpFR	3	16	1	CLIFF	322	n/a	n/a	0	0.57763671875	0.412841796875	1	lower	amplitud.ttf
3383344	REC_START	n/a	LTP187	ltpFR	3	16	n/a	n/a	n/a	n/a	n/a	n/a	n/a	n/a	n/a	n/a	n/a
3384581	REC_WORD	wordpools/wasnorm_wordpool_less_exclusions.txt	LTP187	ltpFR	3	16	1	CLIFF	322	n/a	n/a	0	n/a	n/a	n/a	n/a	n/a
3407489	REC_WORD	wordpools/wasnorm_wordpool_less_exclusions.txt	LTP187	ltpFR	3	16	1	BLOCKADE	137	n/a	n/a	0	n/a	n/a	n/a	n/a	n/a
3414498	REC_WORD	wordpools/wasnorm_wordpool_less_exclusions.txt	LTP187	ltpFR	3	16	1	ASH	44	n/a	n/a	0	n/a	n/a	n/a	n/a	n/a
3446829	REC_WORD	wordpools/wasnorm_wordpool_less_exclusions.txt	LTP187	ltpFR	3	16	1	LADDER	793	n/a	n/a	0	n/a	n/a	n/a	n/a	n/a
3495383	REC_START	n/a	LTP187	ltpFR	3	n/a	n/a	n/a	n/a	n/a	n/a	n/a	n/a	n/a	n/a	n/a	n/a
3496929	FFR_REC_WORD	wordpools/wasnorm_wordpool_less_exclusions.txt	LTP187	ltpFR	3	n/a	1	LADDER	793	n/a	n/a	0	n/a	n/a	n/a	n/a	n/a
3498505	FFR_REC_WORD	wordpools/wasnorm_wordpool_less_exclusions.txt	LTP187	ltpFR	3	n/a	0	RACCOON	1153	n/a	n/a	0	n/a	n/a	n/a	n/a	n/a
3500925	FFR_REC_WORD	wordpools/wasnorm_wordpool_less_exclusions.txt	LTP187	ltpFR	3	n/a	1	BLACKBERRY	132	n/a	n/a	1	n/a	n/a	n/a	n/a	n/a
3504921	FFR_REC_WORD	wordpools/wasnorm_wordpool_less_exclusions.txt	LTP187	ltpFR	3	n/a	0	BOSS	152	n/a	n/a	1	n/a	n/a	n/a	n/a	n/a
3507351	FFR_REC_WORD	wordpools/wasnorm_wordpool_less_exclusions.txt	LTP187	ltpFR	3	n/a	n/a	FARM	552	n/a	n/a	n/a	n/a	n/a	n/a	n/a	n/a
3521718	FFR_REC_WORD	wordpools/wasnorm_wordpool_less_exclusions.txt	LTP187	ltpFR	3	n/a	0	TIDE	1465	n/a	n/a	1	n/a	n/a	n/a	n/a	n/a
3523120	FFR_REC_WORD	wordpools/wasnorm_wordpool_less_exclusions.txt	LTP187	ltpFR	3	n/a	-1	WAVE	1596	n/a	n/a	-1	n/a	n/a	n/a	n/a	n/a
3524905	FFR_REC_WORD	wordpools/wasnorm_wordpool_less_exclusions.txt	LTP187	ltpFR	3	n/a	-1	BELT	120	n/a	n/a	-1	n/a	n/a	n/a	n/a	n/a
3526896	FFR_REC_WORD	wordpools/wasnorm_wordpool_less_exclusions.txt	LTP187	ltpFR	3	n/a	-1	BILL	126	n/a	n/a	-1	n/a	n/a	n/a	n/a	n/a
3531874	FFR_REC_WORD	wordpools/wasnorm_wordpool_less_exclusions.txt	LTP187	ltpFR	3	n/a	-1	DOUGHNUT	490	n/a	n/a	-1	n/a	n/a	n/a	n/a	n/a
3538555	FFR_REC_WORD	wordpools/wasnorm_wordpool_less_exclusions.txt	LTP187	ltpFR	3	n/a	n/a	PERSON	1052	n/a	n/a	n/a	n/a	n/a	n/a	n/a	n/a
3550966	FFR_REC_WORD	wordpools/wasnorm_wordpool_less_exclusions.txt	LTP187	ltpFR	3	n/a	1	ELM	527	n/a	n/a	1	n/a	n/a	n/a	n/a	n/a
3564196	FFR_REC_WORD	wordpools/wasnorm_wordpool_less_exclusions.txt	LTP187	ltpFR	3	n/a	0	GENTLEMAN	631	n/a	n/a	1	n/a	n/a	n/a	n/a	n/a
3571549	FFR_REC_WORD	wordpools/wasnorm_wordpool_less_exclusions.txt	LTP187	ltpFR	3	n/a	n/a	JAGUAR	-1	n/a	n/a	n/a	n/a	n/a	n/a	n/a	n/a
3572549	FFR_REC_WORD_VV	wordpools/wasnorm_wordpool_less_exclusions.txt	LTP187	ltpFR	3	n/a	n/a	<>	-1	n/a	n/a	n/a	n/a	n/a	n/a	n/a	n/a
3575695	FFR_REC_WORD	wordpools/wasnorm_wordpool_less_exclusions.txt	LTP187	ltpFR	3	n/a	1	SUGAR	1401	n/a	n/a	0	n/a	n/a	n/a	n/a	n/a
3577092	FFR_REC_WORD	wordpools/wasnorm_wordpool_less_exclusions.txt	LTP187	ltpFR	3	n/a	1	TEA	1439	n/a	n/a	0	n/a	n/a	n/a	n/a	n/a
3589114	FFR_REC_WORD	wordpools/wasnorm_wordpool_less_exclusions.txt	LTP187	ltpFR	3	n/a	n/a	JEEP	753	n/a	n/a	n/a	n/a	n/a	n/a	n/a	n/a
3598967	FFR_REC_WORD	wordpools/wasnorm_wordpool_less_exclusions.txt	LTP187	ltpFR	3	n/a	-1	PORPOISE	1109	n/a	n/a	-1	n/a	n/a	n/a	n/a	n/a
3632591	FFR_REC_WORD	wordpools/wasnorm_wordpool_less_exclusions.txt	LTP187	ltpFR	3	n/a	1	MARBLE	867	n/a	n/a	0	n/a	n/a	n/a	n/a	n/a
3635449	FFR_REC_WORD	wordpools/wasnorm_wordpool_less_exclusions.txt	LTP187	ltpFR	3	n/a	1	ROBIN	1199	n/a	n/a	1	n/a	n/a	n/a	n/a	n/a
3658337	FFR_REC_WORD	wordpools/wasnorm_wordpool_less_exclusions.txt	LTP187	ltpFR	3	n/a	1	GORILLA	650	n/a	n/a	1	n/a	n/a	n/a	n/a	n/a
3670964	FFR_REC_WORD	wordpools/wasnorm_wordpool_less_exclusions.txt	LTP187	ltpFR	3	n/a	0	SHOULDER	1294	n/a	n/a	0	n/a	n/a	n/a	n/a	n/a
3672635	FFR_REC_WORD	wordpools/wasnorm_wordpool_less_exclusions.txt	LTP187	ltpFR	3	n/a	0	PALM	1007	n/a	n/a	0	n/a	n/a	n/a	n/a	n/a
3674201	FFR_REC_WORD	wordpools/wasnorm_wordpool_less_exclusions.txt	LTP187	ltpFR	3	n/a	1	KNUCKLE	789	n/a	n/a	0	n/a	n/a	n/a	n/a	n/a
3676342	FFR_REC_WORD	wordpools/wasnorm_wordpool_less_exclusions.txt	LTP187	ltpFR	3	n/a	0	EYE	545	n/a	n/a	0	n/a	n/a	n/a	n/a	n/a
3679030	FFR_REC_WORD	wordpools/wasnorm_wordpool_less_exclusions.txt	LTP187	ltpFR	3	n/a	-1	INTESTINE	742	n/a	n/a	-1	n/a	n/a	n/a	n/a	n/a
3680806	FFR_REC_WORD	wordpools/wasnorm_wordpool_less_exclusions.txt	LTP187	ltpFR	3	n/a	-1	STOMACH	1384	n/a	n/a	-1	n/a	n/a	n/a	n/a	n/a
3691577	FFR_REC_WORD	wordpools/wasnorm_wordpool_less_exclusions.txt	LTP187	ltpFR	3	n/a	0	FEMALE	559	n/a	n/a	1	n/a	n/a	n/a	n/a	n/a
3693053	FFR_REC_WORD	wordpools/wasnorm_wordpool_less_exclusions.txt	LTP187	ltpFR	3	n/a	0	FOREST	593	n/a	n/a	1	n/a	n/a	n/a	n/a	n/a
3716256	FFR_REC_WORD	wordpools/wasnorm_wordpool_less_exclusions.txt	LTP187	ltpFR	3	n/a	1	COCOON	339	n/a	n/a	0	n/a	n/a	n/a	n/a	n/a
3717907	FFR_REC_WORD	wordpools/wasnorm_wordpool_less_exclusions.txt	LTP187	ltpFR	3	n/a	1	BUTTERFLY	206	n/a	n/a	1	n/a	n/a	n/a	n/a	n/a
3719618	FFR_REC_WORD	wordpools/wasnorm_wordpool_less_exclusions.txt	LTP187	ltpFR	3	n/a	1	CATERPILLAR	259	n/a	n/a	n/a	n/a	n/a	n/a	n/a	n/a
3721064	FFR_REC_WORD	wordpools/wasnorm_wordpool_less_exclusions.txt	LTP187	ltpFR	3	n/a	1	SPIDER	1351	n/a	n/a	1	n/a	n/a	n/a	n/a	n/a
3722791	FFR_REC_WORD	wordpools/wasnorm_wordpool_less_exclusions.txt	LTP187	ltpFR	3	n/a	0	FLEA	577	n/a	n/a	0	n/a	n/a	n/a	n/a	n/a
3727725	FFR_REC_WORD	wordpools/wasnorm_wordpool_less_exclusions.txt	LTP187	ltpFR	3	n/a	0	SAUCER	1237	n/a	n/a	0	n/a	n/a	n/a	n/a	n/a
3735103	FFR_REC_WORD	wordpools/wasnorm_wordpool_less_exclusions.txt	LTP187	ltpFR	3	n/a	n/a	SNAIL	1332	n/a	n/a	n/a	n/a	n/a	n/a	n/a	n/a
3742625	FFR_REC_WORD	wordpools/wasnorm_wordpool_less_exclusions.txt	LTP187	ltpFR	3	n/a	0	GUITAR	670	n/a	n/a	1	n/a	n/a	n/a	n/a	n/a
3744512	FFR_REC_WORD	wordpools/wasnorm_wordpool_less_exclusions.txt	LTP187	ltpFR	3	n/a	1	TRUMPET	1513	n/a	n/a	0	n/a	n/a	n/a	n/a	n/a
3781876	FFR_REC_WORD	wordpools/wasnorm_wordpool_less_exclusions.txt	LTP187	ltpFR	3	n/a	n/a	FARMING	-1	n/a	n/a	n/a	n/a	n/a	n/a	n/a	n/a
3869141	REC_START	n/a	LTP187	ltpFR	3	1	n/a	n/a	n/a	n/a	n/a	n/a	n/a	n/a	n/a	n/a	n/a
3869191	RECOG_LURE	n/a	LTP187	ltpFR	3	1	n/a	PEPPER	1047	1	1	n/a	n/a	n/a	n/a	n/a	n/a
3871182	RECOG_RESP	n/a	LTP187	ltpFR	3	1	n/a	PEPPER	1047	1	n/a	n/a	n/a	n/a	n/a	n/a	n/a
3873466	RECOG_CONF	n/a	LTP187	ltpFR	3	1	n/a	PEPPER	1047	n/a	1	n/a	n/a	n/a	n/a	n/a	n/a
3875673	RECOG_TARGET	n/a	LTP187	ltpFR	3	1	1	COCOON	339	1	4	0	n/a	n/a	n/a	n/a	n/a
3876679	RECOG_RESP	n/a	LTP187	ltpFR	3	1	1	COCOON	339	1	n/a	0	n/a	n/a	n/a	n/a	n/a
3878187	RECOG_CONF	n/a	LTP187	ltpFR	3	1	1	COCOON	339	n/a	4	0	n/a	n/a	n/a	n/a	n/a
3880451	RECOG_TARGET	n/a	LTP187	ltpFR	3	1	0	SHOULDER	1294	1	5	0	n/a	n/a	n/a	n/a	n/a
3881219	RECOG_RESP	n/a	LTP187	ltpFR	3	1	0	SHOULDER	1294	1	n/a	0	n/a	n/a	n/a	n/a	n/a
3882724	RECOG_CONF	n/a	LTP187	ltpFR	3	1	0	SHOULDER	1294	n/a	5	0	n/a	n/a	n/a	n/a	n/a
3885019	RECOG_TARGET	n/a	LTP187	ltpFR	3	1	0	CHAIN	273	1	5	0	n/a	n/a	n/a	n/a	n/a
3885983	RECOG_RESP	n/a	LTP187	ltpFR	3	1	0	CHAIN	273	1	n/a	0	n/a	n/a	n/a	n/a	n/a
3887661	RECOG_CONF	n/a	LTP187	ltpFR	3	1	0	CHAIN	273	n/a	5	0	n/a	n/a	n/a	n/a	n/a
3889903	RECOG_TARGET	n/a	LTP187	ltpFR	3	1	1	MARBLE	867	1	5	0	n/a	n/a	n/a	n/a	n/a
3890760	RECOG_RESP	n/a	LTP187	ltpFR	3	1	1	MARBLE	867	1	n/a	0	n/a	n/a	n/a	n/a	n/a
3892325	RECOG_CONF	n/a	LTP187	ltpFR	3	1	1	MARBLE	867	n/a	5	0	n/a	n/a	n/a	n/a	n/a
3894487	RECOG_LURE	n/a	LTP187	ltpFR	3	1	n/a	TWINE	1529	0	2	n/a	n/a	n/a	n/a	n/a	n/a
3895741	RECOG_RESP	n/a	LTP187	ltpFR	3	1	n/a	TWINE	1529	0	n/a	n/a	n/a	n/a	n/a	n/a	n/a
3897797	RECOG_CONF	n/a	LTP187	ltpFR	3	1	n/a	TWINE	1529	n/a	2	n/a	n/a	n/a	n/a	n/a	n/a
3899690	RECOG_LURE	n/a	LTP187	ltpFR	3	1	n/a	NET	946	0	3	n/a	n/a	n/a	n/a	n/a	n/a
3900814	RECOG_RESP	n/a	LTP187	ltpFR	3	1	n/a	NET	946	0	n/a	n/a	n/a	n/a	n/a	n/a	n/a
3902226	RECOG_CONF	n/a	LTP187	ltpFR	3	1	n/a	NET	946	n/a	3	n/a	n/a	n/a	n/a	n/a	n/a
3904240	RECOG_TARGET	n/a	LTP187	ltpFR	3	1	0	CURB	426	1	2	0	n/a	n/a	n/a	n/a	n/a
3905829	RECOG_RESP	n/a	LTP187	ltpFR	3	1	0	CURB	426	1	n/a	0	n/a	n/a	n/a	n/a	n/a
3907169	RECOG_CONF	n/a	LTP187	ltpFR	3	1	0	CURB	426	n/a	2	0	n/a	n/a	n/a	n/a	n/a
3909293	RECOG_LURE	n/a	LTP187	ltpFR	3	1	n/a	ARCHITECT	36	0	4	n/a	n/a	n/a	n/a	n/a	n/a
3911186	RECOG_RESP	n/a	LTP187	ltpFR	3	1	n/a	ARCHITECT	36	0	n/a	n/a	n/a	n/a	n/a	n/a	n/a
3912507	RECOG_CONF	n/a	LTP187	ltpFR	3	1	n/a	ARCHITECT	36	n/a	4	n/a	n/a	n/a	n/a	n/a	n/a
3914512	RECOG_LURE	n/a	LTP187	ltpFR	3	1	n/a	TURKEY	1520	0	3	n/a	n/a	n/a	n/a	n/a	n/a
3915876	RECOG_RESP	n/a	LTP187	ltpFR	3	1	n/a	TURKEY	1520	0	n/a	n/a	n/a	n/a	n/a	n/a	n/a
3917366	RECOG_CONF	n/a	LTP187	ltpFR	3	1	n/a	TURKEY	1520	n/a	3	n/a	n/a	n/a	n/a	n/a	n/a
3919230	RECOG_LURE	n/a	LTP187	ltpFR	3	1	n/a	CANDY	230	0	2	n/a	n/a	n/a	n/a	n/a	n/a
3920735	RECOG_RESP	n/a	LTP187	ltpFR	3	1	n/a	CANDY	230	0	n/a	n/a	n/a	n/a	n/a	n/a	n/a
3922036	RECOG_CONF	n/a	LTP187	ltpFR	3	1	n/a	CANDY	230	n/a	2	n/a	n/a	n/a	n/a	n/a	n/a
3923997	RECOG_TARGET	n/a	LTP187	ltpFR	3	1	0	BUG	187	0	3	0	n/a	n/a	n/a	n/a	n/a
3925141	RECOG_RESP	n/a	LTP187	ltpFR	3	1	0	BUG	187	0	n/a	0	n/a	n/a	n/a	n/a	n/a
3926428	RECOG_CONF	n/a	LTP187	ltpFR	3	1	0	BUG	187	n/a	3	0	n/a	n/a	n/a	n/a	n/a
3928484	RECOG_TARGET	n/a	LTP187	ltpFR	3	1	1	BAKER	71	1	4	1	n/a	n/a	n/a	n/a	n/a
3929404	RECOG_RESP	n/a	LTP187	ltpFR	3	1	1	BAKER	71	1	n/a	1	n/a	n/a	n/a	n/a	n/a
3931012	RECOG_CONF	n/a	LTP187	ltpFR	3	1	1	BAKER	71	n/a	4	1	n/a	n/a	n/a	n/a	n/a
3933216	RECOG_TARGET	n/a	LTP187	ltpFR	3	1	1	BLACKBERRY	132	1	5	1	n/a	n/a	n/a	n/a	n/a
3934123	RECOG_RESP	n/a	LTP187	ltpFR	3	1	1	BLACKBERRY	132	1	n/a	1	n/a	n/a	n/a	n/a	n/a
3935712	RECOG_CONF	n/a	LTP187	ltpFR	3	1	1	BLACKBERRY	132	n/a	5	1	n/a	n/a	n/a	n/a	n/a
3938005	RECOG_TARGET	n/a	LTP187	ltpFR	3	1	0	COLESLAW	344	1	5	0	n/a	n/a	n/a	n/a	n/a
3939052	RECOG_RESP	n/a	LTP187	ltpFR	3	1	0	COLESLAW	344	1	n/a	0	n/a	n/a	n/a	n/a	n/a
3940499	RECOG_CONF	n/a	LTP187	ltpFR	3	1	0	COLESLAW	344	n/a	5	0	n/a	n/a	n/a	n/a	n/a
3942601	RECOG_TARGET	n/a	LTP187	ltpFR	3	1	-1	BINDER	127	0	2	-1	n/a	n/a	n/a	n/a	n/a
3944119	RECOG_RESP	n/a	LTP187	ltpFR	3	1	-1	BINDER	127	0	n/a	-1	n/a	n/a	n/a	n/a	n/a
3945411	RECOG_CONF	n/a	LTP187	ltpFR	3	1	-1	BINDER	127	n/a	2	-1	n/a	n/a	n/a	n/a	n/a
3947486	RECOG_TARGET	n/a	LTP187	ltpFR	3	1	0	ASSISTANT	48	1	2	1	n/a	n/a	n/a	n/a	n/a
3948382	RECOG_RESP	n/a	LTP187	ltpFR	3	1	0	ASSISTANT	48	1	n/a	1	n/a	n/a	n/a	n/a	n/a
3949670	RECOG_CONF	n/a	LTP187	ltpFR	3	1	0	ASSISTANT	48	n/a	2	1	n/a	n/a	n/a	n/a	n/a
3951719	RECOG_TARGET	n/a	LTP187	ltpFR	3	1	0	MONK	910	1	5	1	n/a	n/a	n/a	n/a	n/a
3952519	RECOG_RESP	n/a	LTP187	ltpFR	3	1	0	MONK	910	1	n/a	1	n/a	n/a	n/a	n/a	n/a
3953883	RECOG_CONF	n/a	LTP187	ltpFR	3	1	0	MONK	910	n/a	5	1	n/a	n/a	n/a	n/a	n/a
3955801	RECOG_TARGET	n/a	LTP187	ltpFR	3	1	-1	VEST	1559	1	5	-1	n/a	n/a	n/a	n/a	n/a
3956595	RECOG_RESP	n/a	LTP187	ltpFR	3	1	-1	VEST	1559	1	n/a	-1	n/a	n/a	n/a	n/a	n/a
3957761	RECOG_CONF	n/a	LTP187	ltpFR	3	1	-1	VEST	1559	n/a	5	-1	n/a	n/a	n/a	n/a	n/a
3959983	RECOG_LURE	n/a	LTP187	ltpFR	3	1	n/a	SPAGHETTI	1346	0	4	n/a	n/a	n/a	n/a	n/a	n/a
3960882	RECOG_RESP	n/a	LTP187	ltpFR	3	1	n/a	SPAGHETTI	1346	0	n/a	n/a	n/a	n/a	n/a	n/a	n/a
3962104	RECOG_CONF	n/a	LTP187	ltpFR	3	1	n/a	SPAGHETTI	1346	n/a	4	n/a	n/a	n/a	n/a	n/a	n/a
3996992	REC_START	n/a	LTP187	ltpFR	3	2	n/a	n/a	n/a	n/a	n/a	n/a	n/a	n/a	n/a	n/a	n/a
3997039	RECOG_TARGET	n/a	LTP187	ltpFR	3	2	0	GRIZZLY	662	1	3	1	n/a	n/a	n/a	n/a	n/a
3998158	RECOG_RESP	n/a	LTP187	ltpFR	3	2	0	GRIZZLY	662	1	n/a	1	n/a	n/a	n/a	n/a	n/a
3999701	RECOG_CONF	n/a	LTP187	ltpFR	3	2	0	GRIZZLY	662	n/a	3	1	n/a	n/a	n/a	n/a	n/a
4001607	RECOG_TARGET	n/a	LTP187	ltpFR	3	2	1	COLT	349	1	5	1	n/a	n/a	n/a	n/a	n/a
4002387	RECOG_RESP	n/a	LTP187	ltpFR	3	2	1	COLT	349	1	n/a	1	n/a	n/a	n/a	n/a	n/a
4003574	RECOG_CONF	n/a	LTP187	ltpFR	3	2	1	COLT	349	n/a	5	1	n/a	n/a	n/a	n/a	n/a
4005639	RECOG_LURE	n/a	LTP187	ltpFR	3	2	n/a	MOP	916	0	4	n/a	n/a	n/a	n/a	n/a	n/a
4006433	RECOG_RESP	n/a	LTP187	ltpFR	3	2	n/a	MOP	916	0	n/a	n/a	n/a	n/a	n/a	n/a	n/a
4007681	RECOG_CONF	n/a	LTP187	ltpFR	3	2	n/a	MOP	916	n/a	4	n/a	n/a	n/a	n/a	n/a	n/a
4009554	RECOG_LURE	n/a	LTP187	ltpFR	3	2	n/a	DESK	452	0	3	n/a	n/a	n/a	n/a	n/a	n/a
4010488	RECOG_RESP	n/a	LTP187	ltpFR	3	2	n/a	DESK	452	0	n/a	n/a	n/a	n/a	n/a	n/a	n/a
4011703	RECOG_CONF	n/a	LTP187	ltpFR	3	2	n/a	DESK	452	n/a	3	n/a	n/a	n/a	n/a	n/a	n/a
4013636	RECOG_TARGET	n/a	LTP187	ltpFR	3	2	0	NAVIGATOR	938	1	1	1	n/a	n/a	n/a	n/a	n/a
4015088	RECOG_RESP	n/a	LTP187	ltpFR	3	2	0	NAVIGATOR	938	1	n/a	1	n/a	n/a	n/a	n/a	n/a
4016225	RECOG_CONF	n/a	LTP187	ltpFR	3	2	0	NAVIGATOR	938	n/a	1	1	n/a	n/a	n/a	n/a	n/a
4018186	RECOG_TARGET	n/a	LTP187	ltpFR	3	2	-1	NEST	945	0	1	-1	n/a	n/a	n/a	n/a	n/a
4019335	RECOG_RESP	n/a	LTP187	ltpFR	3	2	-1	NEST	945	0	n/a	-1	n/a	n/a	n/a	n/a	n/a
4020424	RECOG_CONF	n/a	LTP187	ltpFR	3	2	-1	NEST	945	n/a	1	-1	n/a	n/a	n/a	n/a	n/a
4022452	RECOG_LURE	n/a	LTP187	ltpFR	3	2	n/a	LAWYER	806	0	2	n/a	n/a	n/a	n/a	n/a	n/a
4023381	RECOG_RESP	n/a	LTP187	ltpFR	3	2	n/a	LAWYER	806	0	n/a	n/a	n/a	n/a	n/a	n/a	n/a
4024466	RECOG_CONF	n/a	LTP187	ltpFR	3	2	n/a	LAWYER	806	n/a	2	n/a	n/a	n/a	n/a	n/a	n/a
4026467	RECOG_TARGET	n/a	LTP187	ltpFR	3	2	1	PUCK	1138	1	4	0	n/a	n/a	n/a	n/a	n/a
4027766	RECOG_RESP	n/a	LTP187	ltpFR	3	2	1	PUCK	1138	1	n/a	0	n/a	n/a	n/a	n/a	n/a
4028829	RECOG_CONF	n/a	LTP187	ltpFR	3	2	1	PUCK	1138	n/a	4	0	n/a	n/a	n/a	n/a	n/a
4030817	RECOG_TARGET	n/a	LTP187	ltpFR	3	2	0	SHELF	1280	1	5	0	n/a	n/a	n/a	n/a	n/a
4031807	RECOG_RESP	n/a	LTP187	ltpFR	3	2	0	SHELF	1280	1	n/a	0	n/a	n/a	n/a	n/a	n/a
4033255	RECOG_CONF	n/a	LTP187	ltpFR	3	2	0	SHELF	1280	n/a	5	0	n/a	n/a	n/a	n/a	n/a
4035301	RECOG_TARGET	n/a	LTP187	ltpFR	3	2	-1	CUPBOARD	425	1	5	-1	n/a	n/a	n/a	n/a	n/a
4036126	RECOG_RESP	n/a	LTP187	ltpFR	3	2	-1	CUPBOARD	425	1	n/a	-1	n/a	n/a	n/a	n/a	n/a
4037319	RECOG_CONF	n/a	LTP187	ltpFR	3	2	-1	CUPBOARD	425	n/a	5	-1	n/a	n/a	n/a	n/a	n/a
4039500	RECOG_TARGET	n/a	LTP187	ltpFR	3	2	1	POSSUM	1112	0	2	1	n/a	n/a	n/a	n/a	n/a
4040741	RECOG_RESP	n/a	LTP187	ltpFR	3	2	1	POSSUM	1112	0	n/a	1	n/a	n/a	n/a	n/a	n/a
4042264	RECOG_CONF	n/a	LTP187	ltpFR	3	2	1	POSSUM	1112	n/a	2	1	n/a	n/a	n/a	n/a	n/a
4044168	RECOG_LURE	n/a	LTP187	ltpFR	3	2	n/a	VIKING	1565	0	4	n/a	n/a	n/a	n/a	n/a	n/a
4045080	RECOG_RESP	n/a	LTP187	ltpFR	3	2	n/a	VIKING	1565	0	n/a	n/a	n/a	n/a	n/a	n/a	n/a
4046370	RECOG_CONF	n/a	LTP187	ltpFR	3	2	n/a	VIKING	1565	n/a	4	n/a	n/a	n/a	n/a	n/a	n/a
4048207	RECOG_TARGET	n/a	LTP187	ltpFR	3	2	1	LITERATURE	831	0	3	0	n/a	n/a	n/a	n/a	n/a
4049335	RECOG_RESP	n/a	LTP187	ltpFR	3	2	1	LITERATURE	831	0	n/a	0	n/a	n/a	n/a	n/a	n/a
4050775	RECOG_CONF	n/a	LTP187	ltpFR	3	2	1	LITERATURE	831	n/a	3	0	n/a	n/a	n/a	n/a	n/a
4052551	RECOG_TARGET	n/a	LTP187	ltpFR	3	2	0	TOOTHPASTE	1483	1	3	0	n/a	n/a	n/a	n/a	n/a
4053662	RECOG_RESP	n/a	LTP187	ltpFR	3	2	0	TOOTHPASTE	1483	1	n/a	0	n/a	n/a	n/a	n/a	n/a
4054935	RECOG_CONF	n/a	LTP187	ltpFR	3	2	0	TOOTHPASTE	1483	n/a	3	0	n/a	n/a	n/a	n/a	n/a
4056799	RECOG_LURE	n/a	LTP187	ltpFR	3	2	n/a	UNIVERSE	1540	0	3	n/a	n/a	n/a	n/a	n/a	n/a
4057715	RECOG_RESP	n/a	LTP187	ltpFR	3	2	n/a	UNIVERSE	1540	0	n/a	n/a	n/a	n/a	n/a	n/a	n/a
4058793	RECOG_CONF	n/a	LTP187	ltpFR	3	2	n/a	UNIVERSE	1540	n/a	3	n/a	n/a	n/a	n/a	n/a	n/a
4060881	RECOG_LURE	n/a	LTP187	ltpFR	3	2	n/a	COUCH	386	1	3	n/a	n/a	n/a	n/a	n/a	n/a
4061959	RECOG_RESP	n/a	LTP187	ltpFR	3	2	n/a	COUCH	386	1	n/a	n/a	n/a	n/a	n/a	n/a	n/a
4063543	RECOG_CONF	n/a	LTP187	ltpFR	3	2	n/a	COUCH	386	n/a	3	n/a	n/a	n/a	n/a	n/a	n/a
4065465	RECOG_LURE	n/a	LTP187	ltpFR	3	2	n/a	CAVITY	264	0	4	n/a	n/a	n/a	n/a	n/a	n/a
4066454	RECOG_RESP	n/a	LTP187	ltpFR	3	2	n/a	CAVITY	264	0	n/a	n/a	n/a	n/a	n/a	n/a	n/a
4067716	RECOG_CONF	n/a	LTP187	ltpFR	3	2	n/a	CAVITY	264	n/a	4	n/a	n/a	n/a	n/a	n/a	n/a
4069563	RECOG_LURE	n/a	LTP187	ltpFR	3	2	n/a	TONGUE	1479	0	2	n/a	n/a	n/a	n/a	n/a	n/a
4070527	RECOG_RESP	n/a	LTP187	ltpFR	3	2	n/a	TONGUE	1479	0	n/a	n/a	n/a	n/a	n/a	n/a	n/a
4071723	RECOG_CONF	n/a	LTP187	ltpFR	3	2	n/a	TONGUE	1479	n/a	2	n/a	n/a	n/a	n/a	n/a	n/a
4073746	RECOG_TARGET	n/a	LTP187	ltpFR	3	2	1	CARPET	247	1	3	1	n/a	n/a	n/a	n/a	n/a
4074643	RECOG_RESP	n/a	LTP187	ltpFR	3	2	1	CARPET	247	1	n/a	1	n/a	n/a	n/a	n/a	n/a
4076002	RECOG_CONF	n/a	LTP187	ltpFR	3	2	1	CARPET	247	n/a	3	1	n/a	n/a	n/a	n/a	n/a
4077995	RECOG_TARGET	n/a	LTP187	ltpFR	3	2	-1	SHEARS	1276	1	4	-1	n/a	n/a	n/a	n/a	n/a
4078991	RECOG_RESP	n/a	LTP187	ltpFR	3	2	-1	SHEARS	1276	1	n/a	-1	n/a	n/a	n/a	n/a	n/a
4080158	RECOG_CONF	n/a	LTP187	ltpFR	3	2	-1	SHEARS	1276	n/a	4	-1	n/a	n/a	n/a	n/a	n/a
4093549	REC_START	n/a	LTP187	ltpFR	3	3	n/a	n/a	n/a	n/a	n/a	n/a	n/a	n/a	n/a	n/a	n/a
4093604	RECOG_TARGET	n/a	LTP187	ltpFR	3	3	1	CORPORATION	382	1	5	0	n/a	n/a	n/a	n/a	n/a
4094490	RECOG_RESP	n/a	LTP187	ltpFR	3	3	1	CORPORATION	382	1	n/a	0	n/a	n/a	n/a	n/a	n/a
4095842	RECOG_CONF	n/a	LTP187	ltpFR	3	3	1	CORPORATION	382	n/a	5	0	n/a	n/a	n/a	n/a	n/a
4098103	RECOG_TARGET	n/a	LTP187	ltpFR	3	3	0	RESTAURANT	1187	1	4	1	n/a	n/a	n/a	n/a	n/a
4099009	RECOG_RESP	n/a	LTP187	ltpFR	3	3	0	RESTAURANT	1187	1	n/a	1	n/a	n/a	n/a	n/a	n/a
4100398	RECOG_CONF	n/a	LTP187	ltpFR	3	3	0	RESTAURANT	1187	n/a	4	1	n/a	n/a	n/a	n/a	n/a
4102487	RECOG_LURE	n/a	LTP187	ltpFR	3	3	n/a	SPICE	1350	0	2	n/a	n/a	n/a	n/a	n/a	n/a
4103397	RECOG_RESP	n/a	LTP187	ltpFR	3	3	n/a	SPICE	1350	0	n/a	n/a	n/a	n/a	n/a	n/a	n/a
4104577	RECOG_CONF	n/a	LTP187	ltpFR	3	3	n/a	SPICE	1350	n/a	2	n/a	n/a	n/a	n/a	n/a	n/a
4106453	RECOG_LURE	n/a	LTP187	ltpFR	3	3	n/a	PRINTER	1126	1	1	n/a	n/a	n/a	n/a	n/a	n/a
4108263	RECOG_RESP	n/a	LTP187	ltpFR	3	3	n/a	PRINTER	1126	1	n/a	n/a	n/a	n/a	n/a	n/a	n/a
4110338	RECOG_CONF	n/a	LTP187	ltpFR	3	3	n/a	PRINTER	1126	n/a	1	n/a	n/a	n/a	n/a	n/a	n/a
4112458	RECOG_TARGET	n/a	LTP187	ltpFR	3	3	0	CLAY	320	1	5	0	n/a	n/a	n/a	n/a	n/a
4113354	RECOG_RESP	n/a	LTP187	ltpFR	3	3	0	CLAY	320	1	n/a	0	n/a	n/a	n/a	n/a	n/a
4114946	RECOG_CONF	n/a	LTP187	ltpFR	3	3	0	CLAY	320	n/a	5	0	n/a	n/a	n/a	n/a	n/a
4117091	RECOG_LURE	n/a	LTP187	ltpFR	3	3	n/a	LOAF	835	1	2	n/a	n/a	n/a	n/a	n/a	n/a
4118259	RECOG_RESP	n/a	LTP187	ltpFR	3	3	n/a	LOAF	835	1	n/a	n/a	n/a	n/a	n/a	n/a	n/a
4119666	RECOG_CONF	n/a	LTP187	ltpFR	3	3	n/a	LOAF	835	n/a	2	n/a	n/a	n/a	n/a	n/a	n/a
4121626	RECOG_LURE	n/a	LTP187	ltpFR	3	3	n/a	GERM	632	0	3	n/a	n/a	n/a	n/a	n/a	n/a
4122563	RECOG_RESP	n/a	LTP187	ltpFR	3	3	n/a	GERM	632	0	n/a	n/a	n/a	n/a	n/a	n/a	n/a
4123706	RECOG_CONF	n/a	LTP187	ltpFR	3	3	n/a	GERM	632	n/a	3	n/a	n/a	n/a	n/a	n/a	n/a
4125541	RECOG_LURE	n/a	LTP187	ltpFR	3	3	n/a	PASTA	1021	0	2	n/a	n/a	n/a	n/a	n/a	n/a
4126757	RECOG_RESP	n/a	LTP187	ltpFR	3	3	n/a	PASTA	1021	0	n/a	n/a	n/a	n/a	n/a	n/a	n/a
4127937	RECOG_CONF	n/a	LTP187	ltpFR	3	3	n/a	PASTA	1021	n/a	2	n/a	n/a	n/a	n/a	n/a	n/a
4129824	RECOG_TARGET	n/a	LTP187	ltpFR	3	3	0	SWIMMER	1420	1	4	1	n/a	n/a	n/a	n/a	n/a
4130632	RECOG_RESP	n/a	LTP187	ltpFR	3	3	0	SWIMMER	1420	1	n/a	1	n/a	n/a	n/a	n/a	n/a
4131877	RECOG_CONF	n/a	LTP187	ltpFR	3	3	0	SWIMMER	1420	n/a	4	1	n/a	n/a	n/a	n/a	n/a
4134127	RECOG_LURE	n/a	LTP187	ltpFR	3	3	n/a	PEOPLE	1046	1	3	n/a	n/a	n/a	n/a	n/a	n/a
4135046	RECOG_RESP	n/a	LTP187	ltpFR	3	3	n/a	PEOPLE	1046	1	n/a	n/a	n/a	n/a	n/a	n/a	n/a
4136283	RECOG_CONF	n/a	LTP187	ltpFR	3	3	n/a	PEOPLE	1046	n/a	3	n/a	n/a	n/a	n/a	n/a	n/a
4138239	RECOG_LURE	n/a	LTP187	ltpFR	3	3	n/a	SYRINGE	1424	0	4	n/a	n/a	n/a	n/a	n/a	n/a
4139192	RECOG_RESP	n/a	LTP187	ltpFR	3	3	n/a	SYRINGE	1424	0	n/a	n/a	n/a	n/a	n/a	n/a	n/a
4140352	RECOG_CONF	n/a	LTP187	ltpFR	3	3	n/a	SYRINGE	1424	n/a	4	n/a	n/a	n/a	n/a	n/a	n/a
4142376	RECOG_LURE	n/a	LTP187	ltpFR	3	3	n/a	COBWEB	337	0	4	n/a	n/a	n/a	n/a	n/a	n/a
4143531	RECOG_RESP	n/a	LTP187	ltpFR	3	3	n/a	COBWEB	337	0	n/a	n/a	n/a	n/a	n/a	n/a	n/a
4144777	RECOG_CONF	n/a	LTP187	ltpFR	3	3	n/a	COBWEB	337	n/a	4	n/a	n/a	n/a	n/a	n/a	n/a
4146704	RECOG_TARGET	n/a	LTP187	ltpFR	3	3	0	SEA	1259	0	1	1	n/a	n/a	n/a	n/a	n/a
4148235	RECOG_RESP	n/a	LTP187	ltpFR	3	3	0	SEA	1259	0	n/a	1	n/a	n/a	n/a	n/a	n/a
4149754	RECOG_CONF	n/a	LTP187	ltpFR	3	3	0	SEA	1259	n/a	1	1	n/a	n/a	n/a	n/a	n/a
4151623	RECOG_TARGET	n/a	LTP187	ltpFR	3	3	0	PAGE	1001	1	1	0	n/a	n/a	n/a	n/a	n/a
4152518	RECOG_RESP	n/a	LTP187	ltpFR	3	3	0	PAGE	1001	1	n/a	0	n/a	n/a	n/a	n/a	n/a
4153621	RECOG_CONF	n/a	LTP187	ltpFR	3	3	0	PAGE	1001	n/a	1	0	n/a	n/a	n/a	n/a	n/a
4155454	RECOG_LURE	n/a	LTP187	ltpFR	3	3	n/a	HORSE	719	0	2	n/a	n/a	n/a	n/a	n/a	n/a
4156610	RECOG_RESP	n/a	LTP187	ltpFR	3	3	n/a	HORSE	719	0	n/a	n/a	n/a	n/a	n/a	n/a	n/a
4157992	RECOG_CONF	n/a	LTP187	ltpFR	3	3	n/a	HORSE	719	n/a	2	n/a	n/a	n/a	n/a	n/a	n/a
4159772	RECOG_TARGET	n/a	LTP187	ltpFR	3	3	1	PEDESTRIAN	1038	1	2	1	n/a	n/a	n/a	n/a	n/a
4160888	RECOG_RESP	n/a	LTP187	ltpFR	3	3	1	PEDESTRIAN	1038	1	n/a	1	n/a	n/a	n/a	n/a	n/a
4162049	RECOG_CONF	n/a	LTP187	ltpFR	3	3	1	PEDESTRIAN	1038	n/a	2	1	n/a	n/a	n/a	n/a	n/a
4163919	RECOG_TARGET	n/a	LTP187	ltpFR	3	3	0	MAGAZINE	853	1	5	0	n/a	n/a	n/a	n/a	n/a
4164898	RECOG_RESP	n/a	LTP187	ltpFR	3	3	0	MAGAZINE	853	1	n/a	0	n/a	n/a	n/a	n/a	n/a
4166725	RECOG_CONF	n/a	LTP187	ltpFR	3	3	0	MAGAZINE	853	n/a	5	0	n/a	n/a	n/a	n/a	n/a
4168620	RECOG_LURE	n/a	LTP187	ltpFR	3	3	n/a	STUDENT	1395	1	1	n/a	n/a	n/a	n/a	n/a	n/a
4170061	RECOG_RESP	n/a	LTP187	ltpFR	3	3	n/a	STUDENT	1395	1	n/a	n/a	n/a	n/a	n/a	n/a	n/a
4171292	RECOG_CONF	n/a	LTP187	ltpFR	3	3	n/a	STUDENT	1395	n/a	1	n/a	n/a	n/a	n/a	n/a	n/a
4173237	RECOG_TARGET	n/a	LTP187	ltpFR	3	3	0	SHOP	1290	0	1	1	n/a	n/a	n/a	n/a	n/a
4174195	RECOG_RESP	n/a	LTP187	ltpFR	3	3	0	SHOP	1290	0	n/a	1	n/a	n/a	n/a	n/a	n/a
4175348	RECOG_CONF	n/a	LTP187	ltpFR	3	3	0	SHOP	1290	n/a	1	1	n/a	n/a	n/a	n/a	n/a
4177319	RECOG_TARGET	n/a	LTP187	ltpFR	3	3	0	CITY	314	1	1	1	n/a	n/a	n/a	n/a	n/a
4178728	RECOG_RESP	n/a	LTP187	ltpFR	3	3	0	CITY	314	1	n/a	1	n/a	n/a	n/a	n/a	n/a
4179889	RECOG_CONF	n/a	LTP187	ltpFR	3	3	0	CITY	314	n/a	1	1	n/a	n/a	n/a	n/a	n/a
4190827	REC_START	n/a	LTP187	ltpFR	3	4	n/a	n/a	n/a	n/a	n/a	n/a	n/a	n/a	n/a	n/a	n/a
4190870	RECOG_TARGET	n/a	LTP187	ltpFR	3	4	1	HEART	697	1	4	1	n/a	n/a	n/a	n/a	n/a
4191871	RECOG_RESP	n/a	LTP187	ltpFR	3	4	1	HEART	697	1	n/a	1	n/a	n/a	n/a	n/a	n/a
4193022	RECOG_CONF	n/a	LTP187	ltpFR	3	4	1	HEART	697	n/a	4	1	n/a	n/a	n/a	n/a	n/a
4195087	RECOG_LURE	n/a	LTP187	ltpFR	3	4	n/a	GARLIC	624	0	2	n/a	n/a	n/a	n/a	n/a	n/a
4196111	RECOG_RESP	n/a	LTP187	ltpFR	3	4	n/a	GARLIC	624	0	n/a	n/a	n/a	n/a	n/a	n/a	n/a
4197213	RECOG_CONF	n/a	LTP187	ltpFR	3	4	n/a	GARLIC	624	n/a	2	n/a	n/a	n/a	n/a	n/a	n/a
4199252	RECOG_LURE	n/a	LTP187	ltpFR	3	4	n/a	MOOSE	915	0	3	n/a	n/a	n/a	n/a	n/a	n/a
4200251	RECOG_RESP	n/a	LTP187	ltpFR	3	4	n/a	MOOSE	915	0	n/a	n/a	n/a	n/a	n/a	n/a	n/a
4201260	RECOG_CONF	n/a	LTP187	ltpFR	3	4	n/a	MOOSE	915	n/a	3	n/a	n/a	n/a	n/a	n/a	n/a
4203284	RECOG_LURE	n/a	LTP187	ltpFR	3	4	n/a	XEROX	1628	0	5	n/a	n/a	n/a	n/a	n/a	n/a
4204172	RECOG_RESP	n/a	LTP187	ltpFR	3	4	n/a	XEROX	1628	0	n/a	n/a	n/a	n/a	n/a	n/a	n/a
4205279	RECOG_CONF	n/a	LTP187	ltpFR	3	4	n/a	XEROX	1628	n/a	5	n/a	n/a	n/a	n/a	n/a	n/a
4207299	RECOG_LURE	n/a	LTP187	ltpFR	3	4	n/a	DRAWING	494	0	4	n/a	n/a	n/a	n/a	n/a	n/a
4208265	RECOG_RESP	n/a	LTP187	ltpFR	3	4	n/a	DRAWING	494	0	n/a	n/a	n/a	n/a	n/a	n/a	n/a
4209576	RECOG_CONF	n/a	LTP187	ltpFR	3	4	n/a	DRAWING	494	n/a	4	n/a	n/a	n/a	n/a	n/a	n/a
4211431	RECOG_LURE	n/a	LTP187	ltpFR	3	4	n/a	NEEDLE	941	1	1	n/a	n/a	n/a	n/a	n/a	n/a
4212959	RECOG_RESP	n/a	LTP187	ltpFR	3	4	n/a	NEEDLE	941	1	n/a	n/a	n/a	n/a	n/a	n/a	n/a
4214051	RECOG_CONF	n/a	LTP187	ltpFR	3	4	n/a	NEEDLE	941	n/a	1	n/a	n/a	n/a	n/a	n/a	n/a
4215831	RECOG_TARGET	n/a	LTP187	ltpFR	3	4	1	MOWER	928	1	5	1	n/a	n/a	n/a	n/a	n/a
4216819	RECOG_RESP	n/a	LTP187	ltpFR	3	4	1	MOWER	928	1	n/a	1	n/a	n/a	n/a	n/a	n/a
4217921	RECOG_CONF	n/a	LTP187	ltpFR	3	4	1	MOWER	928	n/a	5	1	n/a	n/a	n/a	n/a	n/a
4219949	RECOG_TARGET	n/a	LTP187	ltpFR	3	4	1	CONDUCTOR	362	1	3	1	n/a	n/a	n/a	n/a	n/a
4220957	RECOG_RESP	n/a	LTP187	ltpFR	3	4	1	CONDUCTOR	362	1	n/a	1	n/a	n/a	n/a	n/a	n/a
4221992	RECOG_CONF	n/a	LTP187	ltpFR	3	4	1	CONDUCTOR	362	n/a	3	1	n/a	n/a	n/a	n/a	n/a
4223878	RECOG_TARGET	n/a	LTP187	ltpFR	3	4	0	CARNIVAL	245	1	4	1	n/a	n/a	n/a	n/a	n/a
4225003	RECOG_RESP	n/a	LTP187	ltpFR	3	4	0	CARNIVAL	245	1	n/a	1	n/a	n/a	n/a	n/a	n/a
4226337	RECOG_CONF	n/a	LTP187	ltpFR	3	4	0	CARNIVAL	245	n/a	4	1	n/a	n/a	n/a	n/a	n/a
4228331	RECOG_TARGET	n/a	LTP187	ltpFR	3	4	-1	CERAMICS	271	0	2	-1	n/a	n/a	n/a	n/a	n/a
4229531	RECOG_RESP	n/a	LTP187	ltpFR	3	4	-1	CERAMICS	271	0	n/a	-1	n/a	n/a	n/a	n/a	n/a
4230767	RECOG_CONF	n/a	LTP187	ltpFR	3	4	-1	CERAMICS	271	n/a	2	-1	n/a	n/a	n/a	n/a	n/a
4232544	RECOG_TARGET	n/a	LTP187	ltpFR	3	4	-1	WARRIOR	1589	0	1	-1	n/a	n/a	n/a	n/a	n/a
4233864	RECOG_RESP	n/a	LTP187	ltpFR	3	4	-1	WARRIOR	1589	0	n/a	-1	n/a	n/a	n/a	n/a	n/a
4235016	RECOG_CONF	n/a	LTP187	ltpFR	3	4	-1	WARRIOR	1589	n/a	1	-1	n/a	n/a	n/a	n/a	n/a
4236829	RECOG_LURE	n/a	LTP187	ltpFR	3	4	n/a	SCAPEGOAT	1244	0	3	n/a	n/a	n/a	n/a	n/a	n/a
4237854	RECOG_RESP	n/a	LTP187	ltpFR	3	4	n/a	SCAPEGOAT	1244	0	n/a	n/a	n/a	n/a	n/a	n/a	n/a
4238638	RECOG_CONF	n/a	LTP187	ltpFR	3	4	n/a	SCAPEGOAT	1244	n/a	3	n/a	n/a	n/a	n/a	n/a	n/a
4241210	RECOG_LURE	n/a	LTP187	ltpFR	3	4	n/a	WAITER	1580	1	3	n/a	n/a	n/a	n/a	n/a	n/a
4242234	RECOG_RESP	n/a	LTP187	ltpFR	3	4	n/a	WAITER	1580	1	n/a	n/a	n/a	n/a	n/a	n/a	n/a
4243199	RECOG_CONF	n/a	LTP187	ltpFR	3	4	n/a	WAITER	1580	n/a	3	n/a	n/a	n/a	n/a	n/a	n/a
4245242	RECOG_LURE	n/a	LTP187	ltpFR	3	4	n/a	CRIB	407	0	1	n/a	n/a	n/a	n/a	n/a	n/a
4246401	RECOG_RESP	n/a	LTP187	ltpFR	3	4	n/a	CRIB	407	0	n/a	n/a	n/a	n/a	n/a	n/a	n/a
4247593	RECOG_CONF	n/a	LTP187	ltpFR	3	4	n/a	CRIB	407	n/a	1	n/a	n/a	n/a	n/a	n/a	n/a
4250076	RECOG_TARGET	n/a	LTP187	ltpFR	3	4	0	ELECTRON	522	1	5	2	n/a	n/a	n/a	n/a	n/a
4250935	RECOG_RESP	n/a	LTP187	ltpFR	3	4	0	ELECTRON	522	1	n/a	2	n/a	n/a	n/a	n/a	n/a
4252054	RECOG_CONF	n/a	LTP187	ltpFR	3	4	0	ELECTRON	522	n/a	5	2	n/a	n/a	n/a	n/a	n/a
4254226	RECOG_LURE	n/a	LTP187	ltpFR	3	4	n/a	KNOT	788	0	1	n/a	n/a	n/a	n/a	n/a	n/a
4255447	RECOG_RESP	n/a	LTP187	ltpFR	3	4	n/a	KNOT	788	0	n/a	n/a	n/a	n/a	n/a	n/a	n/a
4256668	RECOG_CONF	n/a	LTP187	ltpFR	3	4	n/a	KNOT	788	n/a	1	n/a	n/a	n/a	n/a	n/a	n/a
4258425	RECOG_TARGET	n/a	LTP187	ltpFR	3	4	1	LADDER	793	1	5	0	n/a	n/a	n/a	n/a	n/a
4259246	RECOG_RESP	n/a	LTP187	ltpFR	3	4	1	LADDER	793	1	n/a	0	n/a	n/a	n/a	n/a	n/a
4260412	RECOG_CONF	n/a	LTP187	ltpFR	3	4	1	LADDER	793	n/a	5	0	n/a	n/a	n/a	n/a	n/a
4262457	RECOG_TARGET	n/a	LTP187	ltpFR	3	4	0	FOREST	593	1	5	1	n/a	n/a	n/a	n/a	n/a
4263200	RECOG_RESP	n/a	LTP187	ltpFR	3	4	0	FOREST	593	1	n/a	1	n/a	n/a	n/a	n/a	n/a
4264319	RECOG_CONF	n/a	LTP187	ltpFR	3	4	0	FOREST	593	n/a	5	1	n/a	n/a	n/a	n/a	n/a
4266338	RECOG_TARGET	n/a	LTP187	ltpFR	3	4	-1	CAR	241	0	2	-1	n/a	n/a	n/a	n/a	n/a
4267597	RECOG_RESP	n/a	LTP187	ltpFR	3	4	-1	CAR	241	0	n/a	-1	n/a	n/a	n/a	n/a	n/a
4268690	RECOG_CONF	n/a	LTP187	ltpFR	3	4	-1	CAR	241	n/a	2	-1	n/a	n/a	n/a	n/a	n/a
4270572	RECOG_TARGET	n/a	LTP187	ltpFR	3	4	1	SQUIRREL	1362	1	3	1	n/a	n/a	n/a	n/a	n/a
4271355	RECOG_RESP	n/a	LTP187	ltpFR	3	4	1	SQUIRREL	1362	1	n/a	1	n/a	n/a	n/a	n/a	n/a
4272421	RECOG_CONF	n/a	LTP187	ltpFR	3	4	1	SQUIRREL	1362	n/a	3	1	n/a	n/a	n/a	n/a	n/a
4309421	REC_START	n/a	LTP187	ltpFR	3	5	n/a	n/a	n/a	n/a	n/a	n/a	n/a	n/a	n/a	n/a	n/a
4309467	RECOG_TARGET	n/a	LTP187	ltpFR	3	5	0	WHALE	1601	1	5	1	n/a	n/a	n/a	n/a	n/a
4310329	RECOG_RESP	n/a	LTP187	ltpFR	3	5	0	WHALE	1601	1	n/a	1	n/a	n/a	n/a	n/a	n/a
4311570	RECOG_CONF	n/a	LTP187	ltpFR	3	5	0	WHALE	1601	n/a	5	1	n/a	n/a	n/a	n/a	n/a
4313520	RECOG_TARGET	n/a	LTP187	ltpFR	3	5	0	TERMITE	1451	0	1	0	n/a	n/a	n/a	n/a	n/a
4314683	RECOG_RESP	n/a	LTP187	ltpFR	3	5	0	TERMITE	1451	0	n/a	0	n/a	n/a	n/a	n/a	n/a
4315679	RECOG_CONF	n/a	LTP187	ltpFR	3	5	0	TERMITE	1451	n/a	1	0	n/a	n/a	n/a	n/a	n/a
4317598	RECOG_TARGET	n/a	LTP187	ltpFR	3	5	1	DART	440	0	1	0	n/a	n/a	n/a	n/a	n/a
4318690	RECOG_RESP	n/a	LTP187	ltpFR	3	5	1	DART	440	0	n/a	0	n/a	n/a	n/a	n/a	n/a
4319667	RECOG_CONF	n/a	LTP187	ltpFR	3	5	1	DART	440	n/a	1	0	n/a	n/a	n/a	n/a	n/a
4321797	RECOG_TARGET	n/a	LTP187	ltpFR	3	5	1	CRAB	397	1	5	1	n/a	n/a	n/a	n/a	n/a
4322931	RECOG_RESP	n/a	LTP187	ltpFR	3	5	1	CRAB	397	1	n/a	1	n/a	n/a	n/a	n/a	n/a
4324005	RECOG_CONF	n/a	LTP187	ltpFR	3	5	1	CRAB	397	n/a	5	1	n/a	n/a	n/a	n/a	n/a
4325913	RECOG_TARGET	n/a	LTP187	ltpFR	3	5	1	VOLLEYBALL	1576	1	5	0	n/a	n/a	n/a	n/a	n/a
4326814	RECOG_RESP	n/a	LTP187	ltpFR	3	5	1	VOLLEYBALL	1576	1	n/a	0	n/a	n/a	n/a	n/a	n/a
4327963	RECOG_CONF	n/a	LTP187	ltpFR	3	5	1	VOLLEYBALL	1576	n/a	5	0	n/a	n/a	n/a	n/a	n/a
4329817	RECOG_TARGET	n/a	LTP187	ltpFR	3	5	-1	INTESTINE	742	1	5	-1	n/a	n/a	n/a	n/a	n/a
4330697	RECOG_RESP	n/a	LTP187	ltpFR	3	5	-1	INTESTINE	742	1	n/a	-1	n/a	n/a	n/a	n/a	n/a
4332064	RECOG_CONF	n/a	LTP187	ltpFR	3	5	-1	INTESTINE	742	n/a	5	-1	n/a	n/a	n/a	n/a	n/a
4334262	RECOG_TARGET	n/a	LTP187	ltpFR	3	5	0	RACCOON	1153	1	5	0	n/a	n/a	n/a	n/a	n/a
4335078	RECOG_RESP	n/a	LTP187	ltpFR	3	5	0	RACCOON	1153	1	n/a	0	n/a	n/a	n/a	n/a	n/a
4336251	RECOG_CONF	n/a	LTP187	ltpFR	3	5	0	RACCOON	1153	n/a	5	0	n/a	n/a	n/a	n/a	n/a
4338560	RECOG_TARGET	n/a	LTP187	ltpFR	3	5	-1	MOON	914	1	5	-1	n/a	n/a	n/a	n/a	n/a
4339326	RECOG_RESP	n/a	LTP187	ltpFR	3	5	-1	MOON	914	1	n/a	-1	n/a	n/a	n/a	n/a	n/a
4340509	RECOG_CONF	n/a	LTP187	ltpFR	3	5	-1	MOON	914	n/a	5	-1	n/a	n/a	n/a	n/a	n/a
4342542	RECOG_LURE	n/a	LTP187	ltpFR	3	5	n/a	BRACELET	163	0	1	n/a	n/a	n/a	n/a	n/a	n/a
4344186	RECOG_RESP	n/a	LTP187	ltpFR	3	5	n/a	BRACELET	163	0	n/a	n/a	n/a	n/a	n/a	n/a	n/a
4345756	RECOG_CONF	n/a	LTP187	ltpFR	3	5	n/a	BRACELET	163	n/a	1	n/a	n/a	n/a	n/a	n/a	n/a
4347695	RECOG_LURE	n/a	LTP187	ltpFR	3	5	n/a	VALLEY	1545	0	1	n/a	n/a	n/a	n/a	n/a	n/a
4348768	RECOG_RESP	n/a	LTP187	ltpFR	3	5	n/a	VALLEY	1545	0	n/a	n/a	n/a	n/a	n/a	n/a	n/a
4349950	RECOG_CONF	n/a	LTP187	ltpFR	3	5	n/a	VALLEY	1545	n/a	1	n/a	n/a	n/a	n/a	n/a	n/a
4351844	RECOG_TARGET	n/a	LTP187	ltpFR	3	5	1	CAFE	216	0	1	0	n/a	n/a	n/a	n/a	n/a
4353218	RECOG_RESP	n/a	LTP187	ltpFR	3	5	1	CAFE	216	0	n/a	0	n/a	n/a	n/a	n/a	n/a
4354723	RECOG_CONF	n/a	LTP187	ltpFR	3	5	1	CAFE	216	n/a	1	0	n/a	n/a	n/a	n/a	n/a
4356578	RECOG_TARGET	n/a	LTP187	ltpFR	3	5	1	BOULEVARD	156	1	1	0	n/a	n/a	n/a	n/a	n/a
4357737	RECOG_RESP	n/a	LTP187	ltpFR	3	5	1	BOULEVARD	156	1	n/a	0	n/a	n/a	n/a	n/a	n/a
4359038	RECOG_CONF	n/a	LTP187	ltpFR	3	5	1	BOULEVARD	156	n/a	1	0	n/a	n/a	n/a	n/a	n/a
4360844	RECOG_LURE	n/a	LTP187	ltpFR	3	5	n/a	NERVE	944	0	2	n/a	n/a	n/a	n/a	n/a	n/a
4362012	RECOG_RESP	n/a	LTP187	ltpFR	3	5	n/a	NERVE	944	0	n/a	n/a	n/a	n/a	n/a	n/a	n/a
4364212	RECOG_CONF	n/a	LTP187	ltpFR	3	5	n/a	NERVE	944	n/a	2	n/a	n/a	n/a	n/a	n/a	n/a
4366014	RECOG_TARGET	n/a	LTP187	ltpFR	3	5	1	SCARF	1246	1	5	0	n/a	n/a	n/a	n/a	n/a
4366932	RECOG_RESP	n/a	LTP187	ltpFR	3	5	1	SCARF	1246	1	n/a	0	n/a	n/a	n/a	n/a	n/a
4368103	RECOG_CONF	n/a	LTP187	ltpFR	3	5	1	SCARF	1246	n/a	5	0	n/a	n/a	n/a	n/a	n/a
4370213	RECOG_LURE	n/a	LTP187	ltpFR	3	5	n/a	SOCIETY	1338	1	3	n/a	n/a	n/a	n/a	n/a	n/a
4371209	RECOG_RESP	n/a	LTP187	ltpFR	3	5	n/a	SOCIETY	1338	1	n/a	n/a	n/a	n/a	n/a	n/a	n/a
4372702	RECOG_CONF	n/a	LTP187	ltpFR	3	5	n/a	SOCIETY	1338	n/a	3	n/a	n/a	n/a	n/a	n/a	n/a
4374563	RECOG_TARGET	n/a	LTP187	ltpFR	3	5	0	POLICE	1098	1	2	1	n/a	n/a	n/a	n/a	n/a
4375690	RECOG_RESP	n/a	LTP187	ltpFR	3	5	0	POLICE	1098	1	n/a	1	n/a	n/a	n/a	n/a	n/a
4376975	RECOG_CONF	n/a	LTP187	ltpFR	3	5	0	POLICE	1098	n/a	2	1	n/a	n/a	n/a	n/a	n/a
4378965	RECOG_LURE	n/a	LTP187	ltpFR	3	5	n/a	SIRLOIN	1311	0	4	n/a	n/a	n/a	n/a	n/a	n/a
4379967	RECOG_RESP	n/a	LTP187	ltpFR	3	5	n/a	SIRLOIN	1311	0	n/a	n/a	n/a	n/a	n/a	n/a	n/a
4381138	RECOG_CONF	n/a	LTP187	ltpFR	3	5	n/a	SIRLOIN	1311	n/a	4	n/a	n/a	n/a	n/a	n/a	n/a
4383094	RECOG_TARGET	n/a	LTP187	ltpFR	3	5	0	GARAGE	621	1	4	1	n/a	n/a	n/a	n/a	n/a
4384229	RECOG_RESP	n/a	LTP187	ltpFR	3	5	0	GARAGE	621	1	n/a	1	n/a	n/a	n/a	n/a	n/a
4385433	RECOG_CONF	n/a	LTP187	ltpFR	3	5	0	GARAGE	621	n/a	4	1	n/a	n/a	n/a	n/a	n/a
4387378	RECOG_TARGET	n/a	LTP187	ltpFR	3	5	1	BELL	118	1	5	0	n/a	n/a	n/a	n/a	n/a
4388237	RECOG_RESP	n/a	LTP187	ltpFR	3	5	1	BELL	118	1	n/a	0	n/a	n/a	n/a	n/a	n/a
4389575	RECOG_CONF	n/a	LTP187	ltpFR	3	5	1	BELL	118	n/a	5	0	n/a	n/a	n/a	n/a	n/a
4391594	RECOG_TARGET	n/a	LTP187	ltpFR	3	5	1	BANK	83	1	5	0	n/a	n/a	n/a	n/a	n/a
4392312	RECOG_RESP	n/a	LTP187	ltpFR	3	5	1	BANK	83	1	n/a	0	n/a	n/a	n/a	n/a	n/a
4393441	RECOG_CONF	n/a	LTP187	ltpFR	3	5	1	BANK	83	n/a	5	0	n/a	n/a	n/a	n/a	n/a
4410011	REC_START	n/a	LTP187	ltpFR	3	6	n/a	n/a	n/a	n/a	n/a	n/a	n/a	n/a	n/a	n/a	n/a
4410062	RECOG_TARGET	n/a	LTP187	ltpFR	3	6	0	TAPE	1433	1	1	0	n/a	n/a	n/a	n/a	n/a
4410899	RECOG_RESP	n/a	LTP187	ltpFR	3	6	0	TAPE	1433	1	n/a	0	n/a	n/a	n/a	n/a	n/a
4412144	RECOG_CONF	n/a	LTP187	ltpFR	3	6	0	TAPE	1433	n/a	1	0	n/a	n/a	n/a	n/a	n/a
4413981	RECOG_LURE	n/a	LTP187	ltpFR	3	6	n/a	ANTELOPE	27	0	2	n/a	n/a	n/a	n/a	n/a	n/a
4415030	RECOG_RESP	n/a	LTP187	ltpFR	3	6	n/a	ANTELOPE	27	0	n/a	n/a	n/a	n/a	n/a	n/a	n/a
4416110	RECOG_CONF	n/a	LTP187	ltpFR	3	6	n/a	ANTELOPE	27	n/a	2	n/a	n/a	n/a	n/a	n/a	n/a
4417859	RECOG_TARGET	n/a	LTP187	ltpFR	3	6	1	DRESSER	496	1	5	1	n/a	n/a	n/a	n/a	n/a
4418701	RECOG_RESP	n/a	LTP187	ltpFR	3	6	1	DRESSER	496	1	n/a	1	n/a	n/a	n/a	n/a	n/a
4419899	RECOG_CONF	n/a	LTP187	ltpFR	3	6	1	DRESSER	496	n/a	5	1	n/a	n/a	n/a	n/a	n/a
4421807	RECOG_TARGET	n/a	LTP187	ltpFR	3	6	1	SPIDER	1351	1	5	1	n/a	n/a	n/a	n/a	n/a
4422664	RECOG_RESP	n/a	LTP187	ltpFR	3	6	1	SPIDER	1351	1	n/a	1	n/a	n/a	n/a	n/a	n/a
4423878	RECOG_CONF	n/a	LTP187	ltpFR	3	6	1	SPIDER	1351	n/a	5	1	n/a	n/a	n/a	n/a	n/a
4425856	RECOG_LURE	n/a	LTP187	ltpFR	3	6	n/a	PILLOW	1069	0	3	n/a	n/a	n/a	n/a	n/a	n/a
4426796	RECOG_RESP	n/a	LTP187	ltpFR	3	6	n/a	PILLOW	1069	0	n/a	n/a	n/a	n/a	n/a	n/a	n/a
4427747	RECOG_CONF	n/a	LTP187	ltpFR	3	6	n/a	PILLOW	1069	n/a	3	n/a	n/a	n/a	n/a	n/a	n/a
4429538	RECOG_TARGET	n/a	LTP187	ltpFR	3	6	0	GLASSES	640	1	1	0	n/a	n/a	n/a	n/a	n/a
4431110	RECOG_RESP	n/a	LTP187	ltpFR	3	6	0	GLASSES	640	1	n/a	0	n/a	n/a	n/a	n/a	n/a
4432268	RECOG_CONF	n/a	LTP187	ltpFR	3	6	0	GLASSES	640	n/a	1	0	n/a	n/a	n/a	n/a	n/a
4434271	RECOG_TARGET	n/a	LTP187	ltpFR	3	6	1	JOURNAL	760	1	4	0	n/a	n/a	n/a	n/a	n/a
4435181	RECOG_RESP	n/a	LTP187	ltpFR	3	6	1	JOURNAL	760	1	n/a	0	n/a	n/a	n/a	n/a	n/a
4436466	RECOG_CONF	n/a	LTP187	ltpFR	3	6	1	JOURNAL	760	n/a	4	0	n/a	n/a	n/a	n/a	n/a
4438420	RECOG_TARGET	n/a	LTP187	ltpFR	3	6	-1	PAINTER	1004	1	5	-1	n/a	n/a	n/a	n/a	n/a
4439300	RECOG_RESP	n/a	LTP187	ltpFR	3	6	-1	PAINTER	1004	1	n/a	-1	n/a	n/a	n/a	n/a	n/a
4440448	RECOG_CONF	n/a	LTP187	ltpFR	3	6	-1	PAINTER	1004	n/a	5	-1	n/a	n/a	n/a	n/a	n/a
4442552	RECOG_LURE	n/a	LTP187	ltpFR	3	6	n/a	SPOUSE	1358	0	2	n/a	n/a	n/a	n/a	n/a	n/a
4444138	RECOG_RESP	n/a	LTP187	ltpFR	3	6	n/a	SPOUSE	1358	0	n/a	n/a	n/a	n/a	n/a	n/a	n/a
4445395	RECOG_CONF	n/a	LTP187	ltpFR	3	6	n/a	SPOUSE	1358	n/a	2	n/a	n/a	n/a	n/a	n/a	n/a
4447370	RECOG_LURE	n/a	LTP187	ltpFR	3	6	n/a	MEDICINE	886	0	4	n/a	n/a	n/a	n/a	n/a	n/a
4448336	RECOG_RESP	n/a	LTP187	ltpFR	3	6	n/a	MEDICINE	886	0	n/a	n/a	n/a	n/a	n/a	n/a	n/a
4449583	RECOG_CONF	n/a	LTP187	ltpFR	3	6	n/a	MEDICINE	886	n/a	4	n/a	n/a	n/a	n/a	n/a	n/a
4451570	RECOG_LURE	n/a	LTP187	ltpFR	3	6	n/a	ZOO	1637	0	5	n/a	n/a	n/a	n/a	n/a	n/a
4452445	RECOG_RESP	n/a	LTP187	ltpFR	3	6	n/a	ZOO	1637	0	n/a	n/a	n/a	n/a	n/a	n/a	n/a
4453672	RECOG_CONF	n/a	LTP187	ltpFR	3	6	n/a	ZOO	1637	n/a	5	n/a	n/a	n/a	n/a	n/a	n/a
4455551	RECOG_LURE	n/a	LTP187	ltpFR	3	6	n/a	PLUMBER	1091	0	2	n/a	n/a	n/a	n/a	n/a	n/a
4456648	RECOG_RESP	n/a	LTP187	ltpFR	3	6	n/a	PLUMBER	1091	0	n/a	n/a	n/a	n/a	n/a	n/a	n/a
4458074	RECOG_CONF	n/a	LTP187	ltpFR	3	6	n/a	PLUMBER	1091	n/a	2	n/a	n/a	n/a	n/a	n/a	n/a
4459984	RECOG_TARGET	n/a	LTP187	ltpFR	3	6	1	PENNY	1045	1	3	0	n/a	n/a	n/a	n/a	n/a
4461433	RECOG_RESP	n/a	LTP187	ltpFR	3	6	1	PENNY	1045	1	n/a	0	n/a	n/a	n/a	n/a	n/a
4462713	RECOG_CONF	n/a	LTP187	ltpFR	3	6	1	PENNY	1045	n/a	3	0	n/a	n/a	n/a	n/a	n/a
4464635	RECOG_LURE	n/a	LTP187	ltpFR	3	6	n/a	IGLOO	734	0	2	n/a	n/a	n/a	n/a	n/a	n/a
4465732	RECOG_RESP	n/a	LTP187	ltpFR	3	6	n/a	IGLOO	734	0	n/a	n/a	n/a	n/a	n/a	n/a	n/a
4467226	RECOG_CONF	n/a	LTP187	ltpFR	3	6	n/a	IGLOO	734	n/a	2	n/a	n/a	n/a	n/a	n/a	n/a
4469068	RECOG_TARGET	n/a	LTP187	ltpFR	3	6	-1	SOFA	1342	1	5	-1	n/a	n/a	n/a	n/a	n/a
4469878	RECOG_RESP	n/a	LTP187	ltpFR	3	6	-1	SOFA	1342	1	n/a	-1	n/a	n/a	n/a	n/a	n/a
4471234	RECOG_CONF	n/a	LTP187	ltpFR	3	6	-1	SOFA	1342	n/a	5	-1	n/a	n/a	n/a	n/a	n/a
4473286	RECOG_TARGET	n/a	LTP187	ltpFR	3	6	-1	STOMACH	1384	1	5	-1	n/a	n/a	n/a	n/a	n/a
4474066	RECOG_RESP	n/a	LTP187	ltpFR	3	6	-1	STOMACH	1384	1	n/a	-1	n/a	n/a	n/a	n/a	n/a
4475253	RECOG_CONF	n/a	LTP187	ltpFR	3	6	-1	STOMACH	1384	n/a	5	-1	n/a	n/a	n/a	n/a	n/a
4477239	RECOG_TARGET	n/a	LTP187	ltpFR	3	6	-1	PRINCESS	1125	1	4	-1	n/a	n/a	n/a	n/a	n/a
4479281	RECOG_RESP	n/a	LTP187	ltpFR	3	6	-1	PRINCESS	1125	1	n/a	-1	n/a	n/a	n/a	n/a	n/a
4480489	RECOG_CONF	n/a	LTP187	ltpFR	3	6	-1	PRINCESS	1125	n/a	4	-1	n/a	n/a	n/a	n/a	n/a
4482453	RECOG_TARGET	n/a	LTP187	ltpFR	3	6	1	SHORE	1291	1	4	0	n/a	n/a	n/a	n/a	n/a
4483215	RECOG_RESP	n/a	LTP187	ltpFR	3	6	1	SHORE	1291	1	n/a	0	n/a	n/a	n/a	n/a	n/a
4484456	RECOG_CONF	n/a	LTP187	ltpFR	3	6	1	SHORE	1291	n/a	4	0	n/a	n/a	n/a	n/a	n/a
4486585	RECOG_TARGET	n/a	LTP187	ltpFR	3	6	0	YACHT	1629	1	5	1	n/a	n/a	n/a	n/a	n/a
4487433	RECOG_RESP	n/a	LTP187	ltpFR	3	6	0	YACHT	1629	1	n/a	1	n/a	n/a	n/a	n/a	n/a
4489178	RECOG_CONF	n/a	LTP187	ltpFR	3	6	0	YACHT	1629	n/a	5	1	n/a	n/a	n/a	n/a	n/a
4491219	RECOG_TARGET	n/a	LTP187	ltpFR	3	6	0	MARS	873	1	1	1	n/a	n/a	n/a	n/a	n/a
4492061	RECOG_RESP	n/a	LTP187	ltpFR	3	6	0	MARS	873	1	n/a	1	n/a	n/a	n/a	n/a	n/a
4493834	RECOG_CONF	n/a	LTP187	ltpFR	3	6	0	MARS	873	n/a	1	1	n/a	n/a	n/a	n/a	n/a
4517043	REC_START	n/a	LTP187	ltpFR	3	7	n/a	n/a	n/a	n/a	n/a	n/a	n/a	n/a	n/a	n/a	n/a
4517099	RECOG_LURE	n/a	LTP187	ltpFR	3	7	n/a	BUTCHER	203	0	2	n/a	n/a	n/a	n/a	n/a	n/a
4518109	RECOG_RESP	n/a	LTP187	ltpFR	3	7	n/a	BUTCHER	203	0	n/a	n/a	n/a	n/a	n/a	n/a	n/a
4519332	RECOG_CONF	n/a	LTP187	ltpFR	3	7	n/a	BUTCHER	203	n/a	2	n/a	n/a	n/a	n/a	n/a	n/a
4521249	RECOG_TARGET	n/a	LTP187	ltpFR	3	7	1	WEED	1599	1	5	0	n/a	n/a	n/a	n/a	n/a
4522073	RECOG_RESP	n/a	LTP187	ltpFR	3	7	1	WEED	1599	1	n/a	0	n/a	n/a	n/a	n/a	n/a
4523161	RECOG_CONF	n/a	LTP187	ltpFR	3	7	1	WEED	1599	n/a	5	0	n/a	n/a	n/a	n/a	n/a
4525214	RECOG_LURE	n/a	LTP187	ltpFR	3	7	n/a	DAM	436	1	2	n/a	n/a	n/a	n/a	n/a	n/a
4526038	RECOG_RESP	n/a	LTP187	ltpFR	3	7	n/a	DAM	436	1	n/a	n/a	n/a	n/a	n/a	n/a	n/a
4527272	RECOG_CONF	n/a	LTP187	ltpFR	3	7	n/a	DAM	436	n/a	2	n/a	n/a	n/a	n/a	n/a	n/a
4529251	RECOG_LURE	n/a	LTP187	ltpFR	3	7	n/a	WAITRESS	1581	0	3	n/a	n/a	n/a	n/a	n/a	n/a
4530415	RECOG_RESP	n/a	LTP187	ltpFR	3	7	n/a	WAITRESS	1581	0	n/a	n/a	n/a	n/a	n/a	n/a	n/a
4531665	RECOG_CONF	n/a	LTP187	ltpFR	3	7	n/a	WAITRESS	1581	n/a	3	n/a	n/a	n/a	n/a	n/a	n/a
4533463	RECOG_TARGET	n/a	LTP187	ltpFR	3	7	1	BATHROOM	99	1	3	0	n/a	n/a	n/a	n/a	n/a
4534308	RECOG_RESP	n/a	LTP187	ltpFR	3	7	1	BATHROOM	99	1	n/a	0	n/a	n/a	n/a	n/a	n/a
4535626	RECOG_CONF	n/a	LTP187	ltpFR	3	7	1	BATHROOM	99	n/a	3	0	n/a	n/a	n/a	n/a	n/a
4537493	RECOG_LURE	n/a	LTP187	ltpFR	3	7	n/a	BEEF	113	0	5	n/a	n/a	n/a	n/a	n/a	n/a
4538379	RECOG_RESP	n/a	LTP187	ltpFR	3	7	n/a	BEEF	113	0	n/a	n/a	n/a	n/a	n/a	n/a	n/a
4539363	RECOG_CONF	n/a	LTP187	ltpFR	3	7	n/a	BEEF	113	n/a	5	n/a	n/a	n/a	n/a	n/a	n/a
4541545	RECOG_LURE	n/a	LTP187	ltpFR	3	7	n/a	PLUTO	1092	0	5	n/a	n/a	n/a	n/a	n/a	n/a
4542619	RECOG_RESP	n/a	LTP187	ltpFR	3	7	n/a	PLUTO	1092	0	n/a	n/a	n/a	n/a	n/a	n/a	n/a
4543733	RECOG_CONF	n/a	LTP187	ltpFR	3	7	n/a	PLUTO	1092	n/a	5	n/a	n/a	n/a	n/a	n/a	n/a
4546008	RECOG_TARGET	n/a	LTP187	ltpFR	3	7	1	STALLION	1369	0	3	1	n/a	n/a	n/a	n/a	n/a
4547072	RECOG_RESP	n/a	LTP187	ltpFR	3	7	1	STALLION	1369	0	n/a	1	n/a	n/a	n/a	n/a	n/a
4548526	RECOG_CONF	n/a	LTP187	ltpFR	3	7	1	STALLION	1369	n/a	3	1	n/a	n/a	n/a	n/a	n/a
4550175	RECOG_TARGET	n/a	LTP187	ltpFR	3	7	0	JUG	762	1	2	0	n/a	n/a	n/a	n/a	n/a
4551262	RECOG_RESP	n/a	LTP187	ltpFR	3	7	0	JUG	762	1	n/a	0	n/a	n/a	n/a	n/a	n/a
4552655	RECOG_CONF	n/a	LTP187	ltpFR	3	7	0	JUG	762	n/a	2	0	n/a	n/a	n/a	n/a	n/a
4554508	RECOG_TARGET	n/a	LTP187	ltpFR	3	7	1	HOE	711	1	5	0	n/a	n/a	n/a	n/a	n/a
4555610	RECOG_RESP	n/a	LTP187	ltpFR	3	7	1	HOE	711	1	n/a	0	n/a	n/a	n/a	n/a	n/a
4556995	RECOG_CONF	n/a	LTP187	ltpFR	3	7	1	HOE	711	n/a	5	0	n/a	n/a	n/a	n/a	n/a
4559024	RECOG_TARGET	n/a	LTP187	ltpFR	3	7	1	BLOCKADE	137	1	5	0	n/a	n/a	n/a	n/a	n/a
4560142	RECOG_RESP	n/a	LTP187	ltpFR	3	7	1	BLOCKADE	137	1	n/a	0	n/a	n/a	n/a	n/a	n/a
4561339	RECOG_CONF	n/a	LTP187	ltpFR	3	7	1	BLOCKADE	137	n/a	5	0	n/a	n/a	n/a	n/a	n/a
4563294	RECOG_TARGET	n/a	LTP187	ltpFR	3	7	1	JELLO	754	0	1	0	n/a	n/a	n/a	n/a	n/a
4564241	RECOG_RESP	n/a	LTP187	ltpFR	3	7	1	JELLO	754	0	n/a	0	n/a	n/a	n/a	n/a	n/a
4565898	RECOG_CONF	n/a	LTP187	ltpFR	3	7	1	JELLO	754	n/a	1	0	n/a	n/a	n/a	n/a	n/a
4567757	RECOG_TARGET	n/a	LTP187	ltpFR	3	7	-1	STREAM	1392	1	1	-1	n/a	n/a	n/a	n/a	n/a
4568715	RECOG_RESP	n/a	LTP187	ltpFR	3	7	-1	STREAM	1392	1	n/a	-1	n/a	n/a	n/a	n/a	n/a
4569759	RECOG_CONF	n/a	LTP187	ltpFR	3	7	-1	STREAM	1392	n/a	1	-1	n/a	n/a	n/a	n/a	n/a
4571689	RECOG_TARGET	n/a	LTP187	ltpFR	3	7	1	ATTIC	56	1	4	0	n/a	n/a	n/a	n/a	n/a
4572590	RECOG_RESP	n/a	LTP187	ltpFR	3	7	1	ATTIC	56	1	n/a	0	n/a	n/a	n/a	n/a	n/a
4573841	RECOG_CONF	n/a	LTP187	ltpFR	3	7	1	ATTIC	56	n/a	4	0	n/a	n/a	n/a	n/a	n/a
4575788	RECOG_LURE	n/a	LTP187	ltpFR	3	7	n/a	CANDLE	229	0	2	n/a	n/a	n/a	n/a	n/a	n/a
4576718	RECOG_RESP	n/a	LTP187	ltpFR	3	7	n/a	CANDLE	229	0	n/a	n/a	n/a	n/a	n/a	n/a	n/a
4577846	RECOG_CONF	n/a	LTP187	ltpFR	3	7	n/a	CANDLE	229	n/a	2	n/a	n/a	n/a	n/a	n/a	n/a
4579535	RECOG_TARGET	n/a	LTP187	ltpFR	3	7	1	TEAM	1441	1	3	1	n/a	n/a	n/a	n/a	n/a
4580280	RECOG_RESP	n/a	LTP187	ltpFR	3	7	1	TEAM	1441	1	n/a	1	n/a	n/a	n/a	n/a	n/a
4581504	RECOG_CONF	n/a	LTP187	ltpFR	3	7	1	TEAM	1441	n/a	3	1	n/a	n/a	n/a	n/a	n/a
4583601	RECOG_TARGET	n/a	LTP187	ltpFR	3	7	1	SUITCASE	1403	1	5	0	n/a	n/a	n/a	n/a	n/a
4584416	RECOG_RESP	n/a	LTP187	ltpFR	3	7	1	SUITCASE	1403	1	n/a	0	n/a	n/a	n/a	n/a	n/a
4585762	RECOG_CONF	n/a	LTP187	ltpFR	3	7	1	SUITCASE	1403	n/a	5	0	n/a	n/a	n/a	n/a	n/a
4587549	RECOG_TARGET	n/a	LTP187	ltpFR	3	7	1	DIVER	476	1	5	1	n/a	n/a	n/a	n/a	n/a
4588707	RECOG_RESP	n/a	LTP187	ltpFR	3	7	1	DIVER	476	1	n/a	1	n/a	n/a	n/a	n/a	n/a
4589795	RECOG_CONF	n/a	LTP187	ltpFR	3	7	1	DIVER	476	n/a	5	1	n/a	n/a	n/a	n/a	n/a
4591668	RECOG_LURE	n/a	LTP187	ltpFR	3	7	n/a	GRAPE	654	0	2	n/a	n/a	n/a	n/a	n/a	n/a
4592682	RECOG_RESP	n/a	LTP187	ltpFR	3	7	n/a	GRAPE	654	0	n/a	n/a	n/a	n/a	n/a	n/a	n/a
4594478	RECOG_CONF	n/a	LTP187	ltpFR	3	7	n/a	GRAPE	654	n/a	2	n/a	n/a	n/a	n/a	n/a	n/a
4596304	RECOG_TARGET	n/a	LTP187	ltpFR	3	7	-1	QUAIL	1147	1	5	-1	n/a	n/a	n/a	n/a	n/a
4597417	RECOG_RESP	n/a	LTP187	ltpFR	3	7	-1	QUAIL	1147	1	n/a	-1	n/a	n/a	n/a	n/a	n/a
4598597	RECOG_CONF	n/a	LTP187	ltpFR	3	7	-1	QUAIL	1147	n/a	5	-1	n/a	n/a	n/a	n/a	n/a
4613100	REC_START	n/a	LTP187	ltpFR	3	8	n/a	n/a	n/a	n/a	n/a	n/a	n/a	n/a	n/a	n/a	n/a
4613144	RECOG_TARGET	n/a	LTP187	ltpFR	3	8	1	ROCKET	1202	1	2	n/a	n/a	n/a	n/a	n/a	n/a
4614037	RECOG_RESP	n/a	LTP187	ltpFR	3	8	1	ROCKET	1202	1	n/a	n/a	n/a	n/a	n/a	n/a	n/a
4615343	RECOG_CONF	n/a	LTP187	ltpFR	3	8	1	ROCKET	1202	n/a	2	n/a	n/a	n/a	n/a	n/a	n/a
4617428	RECOG_TARGET	n/a	LTP187	ltpFR	3	8	0	FEMALE	559	1	5	1	n/a	n/a	n/a	n/a	n/a
4618351	RECOG_RESP	n/a	LTP187	ltpFR	3	8	0	FEMALE	559	1	n/a	1	n/a	n/a	n/a	n/a	n/a
4619461	RECOG_CONF	n/a	LTP187	ltpFR	3	8	0	FEMALE	559	n/a	5	1	n/a	n/a	n/a	n/a	n/a
4621460	RECOG_TARGET	n/a	LTP187	ltpFR	3	8	0	TIDE	1465	1	3	1	n/a	n/a	n/a	n/a	n/a
4622230	RECOG_RESP	n/a	LTP187	ltpFR	3	8	0	TIDE	1465	1	n/a	1	n/a	n/a	n/a	n/a	n/a
4623365	RECOG_CONF	n/a	LTP187	ltpFR	3	8	0	TIDE	1465	n/a	3	1	n/a	n/a	n/a	n/a	n/a
4625375	RECOG_TARGET	n/a	LTP187	ltpFR	3	8	0	PITCHFORK	1078	1	5	1	n/a	n/a	n/a	n/a	n/a
4626256	RECOG_RESP	n/a	LTP187	ltpFR	3	8	0	PITCHFORK	1078	1	n/a	1	n/a	n/a	n/a	n/a	n/a
4627388	RECOG_CONF	n/a	LTP187	ltpFR	3	8	0	PITCHFORK	1078	n/a	5	1	n/a	n/a	n/a	n/a	n/a
4629473	RECOG_LURE	n/a	LTP187	ltpFR	3	8	n/a	NOMAD	955	0	3	n/a	n/a	n/a	n/a	n/a	n/a
4630383	RECOG_RESP	n/a	LTP187	ltpFR	3	8	n/a	NOMAD	955	0	n/a	n/a	n/a	n/a	n/a	n/a	n/a
4631543	RECOG_CONF	n/a	LTP187	ltpFR	3	8	n/a	NOMAD	955	n/a	3	n/a	n/a	n/a	n/a	n/a	n/a
4633388	RECOG_TARGET	n/a	LTP187	ltpFR	3	8	1	CROOK	412	1	2	1	n/a	n/a	n/a	n/a	n/a
4634255	RECOG_RESP	n/a	LTP187	ltpFR	3	8	1	CROOK	412	1	n/a	1	n/a	n/a	n/a	n/a	n/a
4635453	RECOG_CONF	n/a	LTP187	ltpFR	3	8	1	CROOK	412	n/a	2	1	n/a	n/a	n/a	n/a	n/a
4637371	RECOG_TARGET	n/a	LTP187	ltpFR	3	8	1	TEACHER	1440	1	2	1	n/a	n/a	n/a	n/a	n/a
4638438	RECOG_RESP	n/a	LTP187	ltpFR	3	8	1	TEACHER	1440	1	n/a	1	n/a	n/a	n/a	n/a	n/a
4639702	RECOG_CONF	n/a	LTP187	ltpFR	3	8	1	TEACHER	1440	n/a	2	1	n/a	n/a	n/a	n/a	n/a
4641669	RECOG_LURE	n/a	LTP187	ltpFR	3	8	n/a	OUTLAW	989	0	3	n/a	n/a	n/a	n/a	n/a	n/a
4642918	RECOG_RESP	n/a	LTP187	ltpFR	3	8	n/a	OUTLAW	989	0	n/a	n/a	n/a	n/a	n/a	n/a	n/a
4644134	RECOG_CONF	n/a	LTP187	ltpFR	3	8	n/a	OUTLAW	989	n/a	3	n/a	n/a	n/a	n/a	n/a	n/a
4646001	RECOG_LURE	n/a	LTP187	ltpFR	3	8	n/a	MARINE	869	1	3	n/a	n/a	n/a	n/a	n/a	n/a
4646961	RECOG_RESP	n/a	LTP187	ltpFR	3	8	n/a	MARINE	869	1	n/a	n/a	n/a	n/a	n/a	n/a	n/a
4648070	RECOG_CONF	n/a	LTP187	ltpFR	3	8	n/a	MARINE	869	n/a	3	n/a	n/a	n/a	n/a	n/a	n/a
4650005	RECOG_TARGET	n/a	LTP187	ltpFR	3	8	0	GOBLIN	645	1	5	1	n/a	n/a	n/a	n/a	n/a
4650886	RECOG_RESP	n/a	LTP187	ltpFR	3	8	0	GOBLIN	645	1	n/a	1	n/a	n/a	n/a	n/a	n/a
4652197	RECOG_CONF	n/a	LTP187	ltpFR	3	8	0	GOBLIN	645	n/a	5	1	n/a	n/a	n/a	n/a	n/a
4654116	RECOG_LURE	n/a	LTP187	ltpFR	3	8	n/a	PEBBLE	1035	0	3	n/a	n/a	n/a	n/a	n/a	n/a
4655020	RECOG_RESP	n/a	LTP187	ltpFR	3	8	n/a	PEBBLE	1035	0	n/a	n/a	n/a	n/a	n/a	n/a	n/a
4656237	RECOG_CONF	n/a	LTP187	ltpFR	3	8	n/a	PEBBLE	1035	n/a	3	n/a	n/a	n/a	n/a	n/a	n/a
4657914	RECOG_TARGET	n/a	LTP187	ltpFR	3	8	1	TEA	1439	1	5	0	n/a	n/a	n/a	n/a	n/a
4658655	RECOG_RESP	n/a	LTP187	ltpFR	3	8	1	TEA	1439	1	n/a	0	n/a	n/a	n/a	n/a	n/a
4661189	RECOG_CONF	n/a	LTP187	ltpFR	3	8	1	TEA	1439	n/a	5	0	n/a	n/a	n/a	n/a	n/a
4663351	RECOG_TARGET	n/a	LTP187	ltpFR	3	8	1	ROOST	1208	1	5	0	n/a	n/a	n/a	n/a	n/a
4664289	RECOG_RESP	n/a	LTP187	ltpFR	3	8	1	ROOST	1208	1	n/a	0	n/a	n/a	n/a	n/a	n/a
4665628	RECOG_CONF	n/a	LTP187	ltpFR	3	8	1	ROOST	1208	n/a	5	0	n/a	n/a	n/a	n/a	n/a
4667684	RECOG_LURE	n/a	LTP187	ltpFR	3	8	n/a	PROFESSIONAL	1130	0	2	n/a	n/a	n/a	n/a	n/a	n/a
4669191	RECOG_RESP	n/a	LTP187	ltpFR	3	8	n/a	PROFESSIONAL	1130	0	n/a	n/a	n/a	n/a	n/a	n/a	n/a
4670681	RECOG_CONF	n/a	LTP187	ltpFR	3	8	n/a	PROFESSIONAL	1130	n/a	2	n/a	n/a	n/a	n/a	n/a	n/a
4672404	RECOG_TARGET	n/a	LTP187	ltpFR	3	8	0	BARLEY	88	1	5	0	n/a	n/a	n/a	n/a	n/a
4673204	RECOG_RESP	n/a	LTP187	ltpFR	3	8	0	BARLEY	88	1	n/a	0	n/a	n/a	n/a	n/a	n/a
4674557	RECOG_CONF	n/a	LTP187	ltpFR	3	8	0	BARLEY	88	n/a	5	0	n/a	n/a	n/a	n/a	n/a
4676534	RECOG_TARGET	n/a	LTP187	ltpFR	3	8	1	TOWN	1491	1	5	0	n/a	n/a	n/a	n/a	n/a
4677250	RECOG_RESP	n/a	LTP187	ltpFR	3	8	1	TOWN	1491	1	n/a	0	n/a	n/a	n/a	n/a	n/a
4678539	RECOG_CONF	n/a	LTP187	ltpFR	3	8	1	TOWN	1491	n/a	5	0	n/a	n/a	n/a	n/a	n/a
4680583	RECOG_LURE	n/a	LTP187	ltpFR	3	8	n/a	LONDON	843	0	5	n/a	n/a	n/a	n/a	n/a	n/a
4681479	RECOG_RESP	n/a	LTP187	ltpFR	3	8	n/a	LONDON	843	0	n/a	n/a	n/a	n/a	n/a	n/a	n/a
4682644	RECOG_CONF	n/a	LTP187	ltpFR	3	8	n/a	LONDON	843	n/a	5	n/a	n/a	n/a	n/a	n/a	n/a
4684665	RECOG_TARGET	n/a	LTP187	ltpFR	3	8	1	ELM	527	1	5	1	n/a	n/a	n/a	n/a	n/a
4685562	RECOG_RESP	n/a	LTP187	ltpFR	3	8	1	ELM	527	1	n/a	1	n/a	n/a	n/a	n/a	n/a
4686877	RECOG_CONF	n/a	LTP187	ltpFR	3	8	1	ELM	527	n/a	5	1	n/a	n/a	n/a	n/a	n/a
4688830	RECOG_TARGET	n/a	LTP187	ltpFR	3	8	-1	FURNITURE	616	1	5	-1	n/a	n/a	n/a	n/a	n/a
4690435	RECOG_RESP	n/a	LTP187	ltpFR	3	8	-1	FURNITURE	616	1	n/a	-1	n/a	n/a	n/a	n/a	n/a
4691927	RECOG_CONF	n/a	LTP187	ltpFR	3	8	-1	FURNITURE	616	n/a	5	-1	n/a	n/a	n/a	n/a	n/a
4693903	RECOG_LURE	n/a	LTP187	ltpFR	3	8	n/a	DIARY	460	0	2	n/a	n/a	n/a	n/a	n/a	n/a
4694962	RECOG_RESP	n/a	LTP187	ltpFR	3	8	n/a	DIARY	460	0	n/a	n/a	n/a	n/a	n/a	n/a	n/a
4696276	RECOG_CONF	n/a	LTP187	ltpFR	3	8	n/a	DIARY	460	n/a	2	n/a	n/a	n/a	n/a	n/a	n/a
4737495	REC_START	n/a	LTP187	ltpFR	3	9	n/a	n/a	n/a	n/a	n/a	n/a	n/a	n/a	n/a	n/a	n/a
4737534	RECOG_TARGET	n/a	LTP187	ltpFR	3	9	0	PELT	1040	1	5	1	n/a	n/a	n/a	n/a	n/a
4738485	RECOG_RESP	n/a	LTP187	ltpFR	3	9	0	PELT	1040	1	n/a	1	n/a	n/a	n/a	n/a	n/a
4739944	RECOG_CONF	n/a	LTP187	ltpFR	3	9	0	PELT	1040	n/a	5	1	n/a	n/a	n/a	n/a	n/a
4741931	RECOG_TARGET	n/a	LTP187	ltpFR	3	9	1	GORILLA	650	1	4	1	n/a	n/a	n/a	n/a	n/a
4742744	RECOG_RESP	n/a	LTP187	ltpFR	3	9	1	GORILLA	650	1	n/a	1	n/a	n/a	n/a	n/a	n/a
4744035	RECOG_CONF	n/a	LTP187	ltpFR	3	9	1	GORILLA	650	n/a	4	1	n/a	n/a	n/a	n/a	n/a
